trials.thisRepN,trials.thisTrialN,trials.thisN,trials.thisIndex,trials.ran,Colourcodes,participant,session,date,expName,psychopyVersion,OS,frameRate,study_id,trials_4.thisRepN,trials_4.thisTrialN,trials_4.thisN,trials_4.thisIndex,trials_4.ran,StimulusPos,key_resp.keys,key_resp.rt,key_resp_2.keys,key_resp_2.rt,key_resp_15.keys,key_resp_15.rt,key_resp_17.keys,key_resp_17.rt,key_resp_9.keys,key_resp_9.rt,key_resp_10.keys,key_resp_10.rt,Circle1_col,Ecc,Circle2_col,similarity,response_time,mouse_5.x,mouse_5.y,mouse_5.leftButton,mouse_5.midButton,mouse_5.rightButton,mouse_5.clicked_name,mouse_10.x,mouse_10.y,mouse_10.leftButton,mouse_10.midButton,mouse_10.rightButton,mouse_10.clicked_name,mouse_7.x,mouse_7.y,mouse_7.leftButton,mouse_7.midButton,mouse_7.rightButton,catchnumberprac,mouse_6.x,mouse_6.y,mouse_6.leftButton,mouse_6.midButton,mouse_6.rightButton,duringprac.thisRepN,duringprac.thisTrialN,duringprac.thisN,duringprac.thisIndex,duringprac.ran,mouse_7.clicked_name,catchprac,mouse_6.clicked_name,key_resp_22.keys,key_resp_22.rt,Circle1_colour,Circle2_colour,mouse.x,mouse.y,mouse.leftButton,mouse.midButton,mouse.rightButton,mouse.clicked_name,mouse_2.x,mouse_2.y,mouse_2.leftButton,mouse_2.midButton,mouse_2.rightButton,mouse_2.clicked_name,mouse_3.x,mouse_3.y,mouse_3.leftButton,mouse_3.midButton,mouse_3.rightButton,catchresponse,catchnumber,response_time_catch,Catch,mouse_11.x,mouse_11.y,mouse_11.leftButton,mouse_11.midButton,mouse_11.rightButton,trials_2.thisRepN,trials_2.thisTrialN,trials_2.thisN,trials_2.thisIndex,trials_2.ran,Colourpair,Temporder,mouse_3.clicked_name,mouse_11.clicked_name,trials_3.thisRepN,trials_3.thisTrialN,trials_3.thisN,trials_3.thisIndex,trials_3.ran,key_resp_instr_Ishi.keys,key_resp_instr_Ishi.rt,Ishi_trial_keyresp.keys,Ishi_textbox.text,Ishi_mouse.x,Ishi_mouse.y,Ishi_mouse.leftButton,Ishi_mouse.midButton,Ishi_mouse.rightButton,Ishi_mouse.clicked_name,Ishi_loop.thisRepN,Ishi_loop.thisTrialN,Ishi_loop.thisN,Ishi_loop.thisIndex,Ishi_loop.ran,imageaddress,textbox.text,mouse_4.x,mouse_4.y,mouse_4.leftButton,mouse_4.midButton,mouse_4.rightButton,mouse_4.clicked_name,textbox_2.text,mouse_8.x,mouse_8.y,mouse_8.leftButton,mouse_8.midButton,mouse_8.rightButton,mouse_8.clicked_name,textbox_3.text,mouse_9.x,mouse_9.y,mouse_9.leftButton,mouse_9.midButton,mouse_9.rightButton,mouse_9.clicked_name,textbox_4.text,mouse_12.x,mouse_12.y,mouse_12.leftButton,mouse_12.midButton,mouse_12.rightButton,mouse_12.clicked_name,textbox_5.text,mouse_13.x,mouse_13.y,mouse_13.leftButton,mouse_13.midButton,mouse_13.rightButton,mouse_13.clicked_name,textbox_6.text,mouse_14.x,mouse_14.y,mouse_14.leftButton,mouse_14.midButton,mouse_14.rightButton,mouse_14.clicked_name,textbox_7.text,mouse_15.x,mouse_15.y,mouse_15.leftButton,mouse_15.midButton,mouse_15.rightButton,mouse_15.clicked_name
0,0,0,1,1,,5f2664edcb7a443902254785,62c53a853b716069deedd1fa,2022-07-06_09h32.56.209,Colour_Asymmetry_Pilot,2022.1.3,Win32,58.66134804,62c50e9c1127f2cd403a315f,,,,,,,,,,,,,,,,,,,,,,,,,,,,,,,,,,,,,,,,,,,,,,,,,,,,,,,,,,,,,,,,,,,,,,,,,,,,,,,,,,,,,,,,,,,,,,,,,,,,,,,,,,,,,,,,,,,,,,,,,,,,,,,,,,,,,,,,,,,,,,,,,,,,,,,,,,,,,,,,,,,
0,1,1,89,1,,5f2664edcb7a443902254785,62c53a853b716069deedd1fa,2022-07-06_09h32.56.209,Colour_Asymmetry_Pilot,2022.1.3,Win32,58.66134804,62c50e9c1127f2cd403a315f,,,,,,,,,,,,,,,,,,,,,,,,,,,,,,,,,,,,,,,,,,,,,,,,,,,,,,,,,,,,,,,,,,,,,,,,,,,,,,,,,,,,,,,,,,,,,,,,,,,,,,,,,,,,,,,,,,,,,,,,,,,,,,,,,,,,,,,,,,,,,,,,,,,,,,,,,,,,,,,,,,,
0,2,2,31,1,,5f2664edcb7a443902254785,62c53a853b716069deedd1fa,2022-07-06_09h32.56.209,Colour_Asymmetry_Pilot,2022.1.3,Win32,58.66134804,62c50e9c1127f2cd403a315f,,,,,,,,,,,,,,,,,,,,,,,,,,,,,,,,,,,,,,,,,,,,,,,,,,,,,,,,,,,,,,,,,,,,,,,,,,,,,,,,,,,,,,,,,,,,,,,,,,,,,,,,,,,,,,,,,,,,,,,,,,,,,,,,,,,,,,,,,,,,,,,,,,,,,,,,,,,,,,,,,,,
0,3,3,3,1,,5f2664edcb7a443902254785,62c53a853b716069deedd1fa,2022-07-06_09h32.56.209,Colour_Asymmetry_Pilot,2022.1.3,Win32,58.66134804,62c50e9c1127f2cd403a315f,,,,,,,,,,,,,,,,,,,,,,,,,,,,,,,,,,,,,,,,,,,,,,,,,,,,,,,,,,,,,,,,,,,,,,,,,,,,,,,,,,,,,,,,,,,,,,,,,,,,,,,,,,,,,,,,,,,,,,,,,,,,,,,,,,,,,,,,,,,,,,,,,,,,,,,,,,,,,,,,,,,
0,4,4,48,1,,5f2664edcb7a443902254785,62c53a853b716069deedd1fa,2022-07-06_09h32.56.209,Colour_Asymmetry_Pilot,2022.1.3,Win32,58.66134804,62c50e9c1127f2cd403a315f,,,,,,,,,,,,,,,,,,,,,,,,,,,,,,,,,,,,,,,,,,,,,,,,,,,,,,,,,,,,,,,,,,,,,,,,,,,,,,,,,,,,,,,,,,,,,,,,,,,,,,,,,,,,,,,,,,,,,,,,,,,,,,,,,,,,,,,,,,,,,,,,,,,,,,,,,,,,,,,,,,,
0,5,5,55,1,,5f2664edcb7a443902254785,62c53a853b716069deedd1fa,2022-07-06_09h32.56.209,Colour_Asymmetry_Pilot,2022.1.3,Win32,58.66134804,62c50e9c1127f2cd403a315f,,,,,,,,,,,,,,,,,,,,,,,,,,,,,,,,,,,,,,,,,,,,,,,,,,,,,,,,,,,,,,,,,,,,,,,,,,,,,,,,,,,,,,,,,,,,,,,,,,,,,,,,,,,,,,,,,,,,,,,,,,,,,,,,,,,,,,,,,,,,,,,,,,,,,,,,,,,,,,,,,,,
0,6,6,20,1,,5f2664edcb7a443902254785,62c53a853b716069deedd1fa,2022-07-06_09h32.56.209,Colour_Asymmetry_Pilot,2022.1.3,Win32,58.66134804,62c50e9c1127f2cd403a315f,,,,,,,,,,,,,,,,,,,,,,,,,,,,,,,,,,,,,,,,,,,,,,,,,,,,,,,,,,,,,,,,,,,,,,,,,,,,,,,,,,,,,,,,,,,,,,,,,,,,,,,,,,,,,,,,,,,,,,,,,,,,,,,,,,,,,,,,,,,,,,,,,,,,,,,,,,,,,,,,,,,
0,7,7,45,1,,5f2664edcb7a443902254785,62c53a853b716069deedd1fa,2022-07-06_09h32.56.209,Colour_Asymmetry_Pilot,2022.1.3,Win32,58.66134804,62c50e9c1127f2cd403a315f,,,,,,,,,,,,,,,,,,,,,,,,,,,,,,,,,,,,,,,,,,,,,,,,,,,,,,,,,,,,,,,,,,,,,,,,,,,,,,,,,,,,,,,,,,,,,,,,,,,,,,,,,,,,,,,,,,,,,,,,,,,,,,,,,,,,,,,,,,,,,,,,,,,,,,,,,,,,,,,,,,,
0,8,8,15,1,,5f2664edcb7a443902254785,62c53a853b716069deedd1fa,2022-07-06_09h32.56.209,Colour_Asymmetry_Pilot,2022.1.3,Win32,58.66134804,62c50e9c1127f2cd403a315f,,,,,,,,,,,,,,,,,,,,,,,,,,,,,,,,,,,,,,,,,,,,,,,,,,,,,,,,,,,,,,,,,,,,,,,,,,,,,,,,,,,,,,,,,,,,,,,,,,,,,,,,,,,,,,,,,,,,,,,,,,,,,,,,,,,,,,,,,,,,,,,,,,,,,,,,,,,,,,,,,,,
0,9,9,73,1,,5f2664edcb7a443902254785,62c53a853b716069deedd1fa,2022-07-06_09h32.56.209,Colour_Asymmetry_Pilot,2022.1.3,Win32,58.66134804,62c50e9c1127f2cd403a315f,,,,,,,,,,,,,,,,,,,,,,,,,,,,,,,,,,,,,,,,,,,,,,,,,,,,,,,,,,,,,,,,,,,,,,,,,,,,,,,,,,,,,,,,,,,,,,,,,,,,,,,,,,,,,,,,,,,,,,,,,,,,,,,,,,,,,,,,,,,,,,,,,,,,,,,,,,,,,,,,,,,
0,10,10,7,1,,5f2664edcb7a443902254785,62c53a853b716069deedd1fa,2022-07-06_09h32.56.209,Colour_Asymmetry_Pilot,2022.1.3,Win32,58.66134804,62c50e9c1127f2cd403a315f,,,,,,,,,,,,,,,,,,,,,,,,,,,,,,,,,,,,,,,,,,,,,,,,,,,,,,,,,,,,,,,,,,,,,,,,,,,,,,,,,,,,,,,,,,,,,,,,,,,,,,,,,,,,,,,,,,,,,,,,,,,,,,,,,,,,,,,,,,,,,,,,,,,,,,,,,,,,,,,,,,,
0,11,11,81,1,,5f2664edcb7a443902254785,62c53a853b716069deedd1fa,2022-07-06_09h32.56.209,Colour_Asymmetry_Pilot,2022.1.3,Win32,58.66134804,62c50e9c1127f2cd403a315f,,,,,,,,,,,,,,,,,,,,,,,,,,,,,,,,,,,,,,,,,,,,,,,,,,,,,,,,,,,,,,,,,,,,,,,,,,,,,,,,,,,,,,,,,,,,,,,,,,,,,,,,,,,,,,,,,,,,,,,,,,,,,,,,,,,,,,,,,,,,,,,,,,,,,,,,,,,,,,,,,,,
0,12,12,91,1,,5f2664edcb7a443902254785,62c53a853b716069deedd1fa,2022-07-06_09h32.56.209,Colour_Asymmetry_Pilot,2022.1.3,Win32,58.66134804,62c50e9c1127f2cd403a315f,,,,,,,,,,,,,,,,,,,,,,,,,,,,,,,,,,,,,,,,,,,,,,,,,,,,,,,,,,,,,,,,,,,,,,,,,,,,,,,,,,,,,,,,,,,,,,,,,,,,,,,,,,,,,,,,,,,,,,,,,,,,,,,,,,,,,,,,,,,,,,,,,,,,,,,,,,,,,,,,,,,
0,13,13,83,1,,5f2664edcb7a443902254785,62c53a853b716069deedd1fa,2022-07-06_09h32.56.209,Colour_Asymmetry_Pilot,2022.1.3,Win32,58.66134804,62c50e9c1127f2cd403a315f,,,,,,,,,,,,,,,,,,,,,,,,,,,,,,,,,,,,,,,,,,,,,,,,,,,,,,,,,,,,,,,,,,,,,,,,,,,,,,,,,,,,,,,,,,,,,,,,,,,,,,,,,,,,,,,,,,,,,,,,,,,,,,,,,,,,,,,,,,,,,,,,,,,,,,,,,,,,,,,,,,,
0,14,14,86,1,,5f2664edcb7a443902254785,62c53a853b716069deedd1fa,2022-07-06_09h32.56.209,Colour_Asymmetry_Pilot,2022.1.3,Win32,58.66134804,62c50e9c1127f2cd403a315f,,,,,,,,,,,,,,,,,,,,,,,,,,,,,,,,,,,,,,,,,,,,,,,,,,,,,,,,,,,,,,,,,,,,,,,,,,,,,,,,,,,,,,,,,,,,,,,,,,,,,,,,,,,,,,,,,,,,,,,,,,,,,,,,,,,,,,,,,,,,,,,,,,,,,,,,,,,,,,,,,,,
0,15,15,65,1,,5f2664edcb7a443902254785,62c53a853b716069deedd1fa,2022-07-06_09h32.56.209,Colour_Asymmetry_Pilot,2022.1.3,Win32,58.66134804,62c50e9c1127f2cd403a315f,,,,,,,,,,,,,,,,,,,,,,,,,,,,,,,,,,,,,,,,,,,,,,,,,,,,,,,,,,,,,,,,,,,,,,,,,,,,,,,,,,,,,,,,,,,,,,,,,,,,,,,,,,,,,,,,,,,,,,,,,,,,,,,,,,,,,,,,,,,,,,,,,,,,,,,,,,,,,,,,,,,
0,16,16,85,1,,5f2664edcb7a443902254785,62c53a853b716069deedd1fa,2022-07-06_09h32.56.209,Colour_Asymmetry_Pilot,2022.1.3,Win32,58.66134804,62c50e9c1127f2cd403a315f,,,,,,,,,,,,,,,,,,,,,,,,,,,,,,,,,,,,,,,,,,,,,,,,,,,,,,,,,,,,,,,,,,,,,,,,,,,,,,,,,,,,,,,,,,,,,,,,,,,,,,,,,,,,,,,,,,,,,,,,,,,,,,,,,,,,,,,,,,,,,,,,,,,,,,,,,,,,,,,,,,,
0,17,17,18,1,,5f2664edcb7a443902254785,62c53a853b716069deedd1fa,2022-07-06_09h32.56.209,Colour_Asymmetry_Pilot,2022.1.3,Win32,58.66134804,62c50e9c1127f2cd403a315f,,,,,,,,,,,,,,,,,,,,,,,,,,,,,,,,,,,,,,,,,,,,,,,,,,,,,,,,,,,,,,,,,,,,,,,,,,,,,,,,,,,,,,,,,,,,,,,,,,,,,,,,,,,,,,,,,,,,,,,,,,,,,,,,,,,,,,,,,,,,,,,,,,,,,,,,,,,,,,,,,,,
0,18,18,21,1,,5f2664edcb7a443902254785,62c53a853b716069deedd1fa,2022-07-06_09h32.56.209,Colour_Asymmetry_Pilot,2022.1.3,Win32,58.66134804,62c50e9c1127f2cd403a315f,,,,,,,,,,,,,,,,,,,,,,,,,,,,,,,,,,,,,,,,,,,,,,,,,,,,,,,,,,,,,,,,,,,,,,,,,,,,,,,,,,,,,,,,,,,,,,,,,,,,,,,,,,,,,,,,,,,,,,,,,,,,,,,,,,,,,,,,,,,,,,,,,,,,,,,,,,,,,,,,,,,
0,19,19,92,1,,5f2664edcb7a443902254785,62c53a853b716069deedd1fa,2022-07-06_09h32.56.209,Colour_Asymmetry_Pilot,2022.1.3,Win32,58.66134804,62c50e9c1127f2cd403a315f,,,,,,,,,,,,,,,,,,,,,,,,,,,,,,,,,,,,,,,,,,,,,,,,,,,,,,,,,,,,,,,,,,,,,,,,,,,,,,,,,,,,,,,,,,,,,,,,,,,,,,,,,,,,,,,,,,,,,,,,,,,,,,,,,,,,,,,,,,,,,,,,,,,,,,,,,,,,,,,,,,,
0,20,20,33,1,,5f2664edcb7a443902254785,62c53a853b716069deedd1fa,2022-07-06_09h32.56.209,Colour_Asymmetry_Pilot,2022.1.3,Win32,58.66134804,62c50e9c1127f2cd403a315f,,,,,,,,,,,,,,,,,,,,,,,,,,,,,,,,,,,,,,,,,,,,,,,,,,,,,,,,,,,,,,,,,,,,,,,,,,,,,,,,,,,,,,,,,,,,,,,,,,,,,,,,,,,,,,,,,,,,,,,,,,,,,,,,,,,,,,,,,,,,,,,,,,,,,,,,,,,,,,,,,,,
0,21,21,0,1,,5f2664edcb7a443902254785,62c53a853b716069deedd1fa,2022-07-06_09h32.56.209,Colour_Asymmetry_Pilot,2022.1.3,Win32,58.66134804,62c50e9c1127f2cd403a315f,,,,,,,,,,,,,,,,,,,,,,,,,,,,,,,,,,,,,,,,,,,,,,,,,,,,,,,,,,,,,,,,,,,,,,,,,,,,,,,,,,,,,,,,,,,,,,,,,,,,,,,,,,,,,,,,,,,,,,,,,,,,,,,,,,,,,,,,,,,,,,,,,,,,,,,,,,,,,,,,,,,
0,22,22,77,1,,5f2664edcb7a443902254785,62c53a853b716069deedd1fa,2022-07-06_09h32.56.209,Colour_Asymmetry_Pilot,2022.1.3,Win32,58.66134804,62c50e9c1127f2cd403a315f,,,,,,,,,,,,,,,,,,,,,,,,,,,,,,,,,,,,,,,,,,,,,,,,,,,,,,,,,,,,,,,,,,,,,,,,,,,,,,,,,,,,,,,,,,,,,,,,,,,,,,,,,,,,,,,,,,,,,,,,,,,,,,,,,,,,,,,,,,,,,,,,,,,,,,,,,,,,,,,,,,,
0,23,23,37,1,,5f2664edcb7a443902254785,62c53a853b716069deedd1fa,2022-07-06_09h32.56.209,Colour_Asymmetry_Pilot,2022.1.3,Win32,58.66134804,62c50e9c1127f2cd403a315f,,,,,,,,,,,,,,,,,,,,,,,,,,,,,,,,,,,,,,,,,,,,,,,,,,,,,,,,,,,,,,,,,,,,,,,,,,,,,,,,,,,,,,,,,,,,,,,,,,,,,,,,,,,,,,,,,,,,,,,,,,,,,,,,,,,,,,,,,,,,,,,,,,,,,,,,,,,,,,,,,,,
0,24,24,52,1,,5f2664edcb7a443902254785,62c53a853b716069deedd1fa,2022-07-06_09h32.56.209,Colour_Asymmetry_Pilot,2022.1.3,Win32,58.66134804,62c50e9c1127f2cd403a315f,,,,,,,,,,,,,,,,,,,,,,,,,,,,,,,,,,,,,,,,,,,,,,,,,,,,,,,,,,,,,,,,,,,,,,,,,,,,,,,,,,,,,,,,,,,,,,,,,,,,,,,,,,,,,,,,,,,,,,,,,,,,,,,,,,,,,,,,,,,,,,,,,,,,,,,,,,,,,,,,,,,
0,25,25,76,1,,5f2664edcb7a443902254785,62c53a853b716069deedd1fa,2022-07-06_09h32.56.209,Colour_Asymmetry_Pilot,2022.1.3,Win32,58.66134804,62c50e9c1127f2cd403a315f,,,,,,,,,,,,,,,,,,,,,,,,,,,,,,,,,,,,,,,,,,,,,,,,,,,,,,,,,,,,,,,,,,,,,,,,,,,,,,,,,,,,,,,,,,,,,,,,,,,,,,,,,,,,,,,,,,,,,,,,,,,,,,,,,,,,,,,,,,,,,,,,,,,,,,,,,,,,,,,,,,,
0,26,26,62,1,,5f2664edcb7a443902254785,62c53a853b716069deedd1fa,2022-07-06_09h32.56.209,Colour_Asymmetry_Pilot,2022.1.3,Win32,58.66134804,62c50e9c1127f2cd403a315f,,,,,,,,,,,,,,,,,,,,,,,,,,,,,,,,,,,,,,,,,,,,,,,,,,,,,,,,,,,,,,,,,,,,,,,,,,,,,,,,,,,,,,,,,,,,,,,,,,,,,,,,,,,,,,,,,,,,,,,,,,,,,,,,,,,,,,,,,,,,,,,,,,,,,,,,,,,,,,,,,,,
0,27,27,44,1,,5f2664edcb7a443902254785,62c53a853b716069deedd1fa,2022-07-06_09h32.56.209,Colour_Asymmetry_Pilot,2022.1.3,Win32,58.66134804,62c50e9c1127f2cd403a315f,,,,,,,,,,,,,,,,,,,,,,,,,,,,,,,,,,,,,,,,,,,,,,,,,,,,,,,,,,,,,,,,,,,,,,,,,,,,,,,,,,,,,,,,,,,,,,,,,,,,,,,,,,,,,,,,,,,,,,,,,,,,,,,,,,,,,,,,,,,,,,,,,,,,,,,,,,,,,,,,,,,
0,28,28,9,1,,5f2664edcb7a443902254785,62c53a853b716069deedd1fa,2022-07-06_09h32.56.209,Colour_Asymmetry_Pilot,2022.1.3,Win32,58.66134804,62c50e9c1127f2cd403a315f,,,,,,,,,,,,,,,,,,,,,,,,,,,,,,,,,,,,,,,,,,,,,,,,,,,,,,,,,,,,,,,,,,,,,,,,,,,,,,,,,,,,,,,,,,,,,,,,,,,,,,,,,,,,,,,,,,,,,,,,,,,,,,,,,,,,,,,,,,,,,,,,,,,,,,,,,,,,,,,,,,,
0,29,29,16,1,,5f2664edcb7a443902254785,62c53a853b716069deedd1fa,2022-07-06_09h32.56.209,Colour_Asymmetry_Pilot,2022.1.3,Win32,58.66134804,62c50e9c1127f2cd403a315f,,,,,,,,,,,,,,,,,,,,,,,,,,,,,,,,,,,,,,,,,,,,,,,,,,,,,,,,,,,,,,,,,,,,,,,,,,,,,,,,,,,,,,,,,,,,,,,,,,,,,,,,,,,,,,,,,,,,,,,,,,,,,,,,,,,,,,,,,,,,,,,,,,,,,,,,,,,,,,,,,,,
0,30,30,71,1,,5f2664edcb7a443902254785,62c53a853b716069deedd1fa,2022-07-06_09h32.56.209,Colour_Asymmetry_Pilot,2022.1.3,Win32,58.66134804,62c50e9c1127f2cd403a315f,,,,,,,,,,,,,,,,,,,,,,,,,,,,,,,,,,,,,,,,,,,,,,,,,,,,,,,,,,,,,,,,,,,,,,,,,,,,,,,,,,,,,,,,,,,,,,,,,,,,,,,,,,,,,,,,,,,,,,,,,,,,,,,,,,,,,,,,,,,,,,,,,,,,,,,,,,,,,,,,,,,
0,31,31,6,1,,5f2664edcb7a443902254785,62c53a853b716069deedd1fa,2022-07-06_09h32.56.209,Colour_Asymmetry_Pilot,2022.1.3,Win32,58.66134804,62c50e9c1127f2cd403a315f,,,,,,,,,,,,,,,,,,,,,,,,,,,,,,,,,,,,,,,,,,,,,,,,,,,,,,,,,,,,,,,,,,,,,,,,,,,,,,,,,,,,,,,,,,,,,,,,,,,,,,,,,,,,,,,,,,,,,,,,,,,,,,,,,,,,,,,,,,,,,,,,,,,,,,,,,,,,,,,,,,,
0,32,32,40,1,,5f2664edcb7a443902254785,62c53a853b716069deedd1fa,2022-07-06_09h32.56.209,Colour_Asymmetry_Pilot,2022.1.3,Win32,58.66134804,62c50e9c1127f2cd403a315f,,,,,,,,,,,,,,,,,,,,,,,,,,,,,,,,,,,,,,,,,,,,,,,,,,,,,,,,,,,,,,,,,,,,,,,,,,,,,,,,,,,,,,,,,,,,,,,,,,,,,,,,,,,,,,,,,,,,,,,,,,,,,,,,,,,,,,,,,,,,,,,,,,,,,,,,,,,,,,,,,,,
0,33,33,63,1,,5f2664edcb7a443902254785,62c53a853b716069deedd1fa,2022-07-06_09h32.56.209,Colour_Asymmetry_Pilot,2022.1.3,Win32,58.66134804,62c50e9c1127f2cd403a315f,,,,,,,,,,,,,,,,,,,,,,,,,,,,,,,,,,,,,,,,,,,,,,,,,,,,,,,,,,,,,,,,,,,,,,,,,,,,,,,,,,,,,,,,,,,,,,,,,,,,,,,,,,,,,,,,,,,,,,,,,,,,,,,,,,,,,,,,,,,,,,,,,,,,,,,,,,,,,,,,,,,
0,34,34,34,1,,5f2664edcb7a443902254785,62c53a853b716069deedd1fa,2022-07-06_09h32.56.209,Colour_Asymmetry_Pilot,2022.1.3,Win32,58.66134804,62c50e9c1127f2cd403a315f,,,,,,,,,,,,,,,,,,,,,,,,,,,,,,,,,,,,,,,,,,,,,,,,,,,,,,,,,,,,,,,,,,,,,,,,,,,,,,,,,,,,,,,,,,,,,,,,,,,,,,,,,,,,,,,,,,,,,,,,,,,,,,,,,,,,,,,,,,,,,,,,,,,,,,,,,,,,,,,,,,,
0,35,35,2,1,,5f2664edcb7a443902254785,62c53a853b716069deedd1fa,2022-07-06_09h32.56.209,Colour_Asymmetry_Pilot,2022.1.3,Win32,58.66134804,62c50e9c1127f2cd403a315f,,,,,,,,,,,,,,,,,,,,,,,,,,,,,,,,,,,,,,,,,,,,,,,,,,,,,,,,,,,,,,,,,,,,,,,,,,,,,,,,,,,,,,,,,,,,,,,,,,,,,,,,,,,,,,,,,,,,,,,,,,,,,,,,,,,,,,,,,,,,,,,,,,,,,,,,,,,,,,,,,,,
0,36,36,72,1,,5f2664edcb7a443902254785,62c53a853b716069deedd1fa,2022-07-06_09h32.56.209,Colour_Asymmetry_Pilot,2022.1.3,Win32,58.66134804,62c50e9c1127f2cd403a315f,,,,,,,,,,,,,,,,,,,,,,,,,,,,,,,,,,,,,,,,,,,,,,,,,,,,,,,,,,,,,,,,,,,,,,,,,,,,,,,,,,,,,,,,,,,,,,,,,,,,,,,,,,,,,,,,,,,,,,,,,,,,,,,,,,,,,,,,,,,,,,,,,,,,,,,,,,,,,,,,,,,
0,37,37,28,1,,5f2664edcb7a443902254785,62c53a853b716069deedd1fa,2022-07-06_09h32.56.209,Colour_Asymmetry_Pilot,2022.1.3,Win32,58.66134804,62c50e9c1127f2cd403a315f,,,,,,,,,,,,,,,,,,,,,,,,,,,,,,,,,,,,,,,,,,,,,,,,,,,,,,,,,,,,,,,,,,,,,,,,,,,,,,,,,,,,,,,,,,,,,,,,,,,,,,,,,,,,,,,,,,,,,,,,,,,,,,,,,,,,,,,,,,,,,,,,,,,,,,,,,,,,,,,,,,,
0,38,38,60,1,,5f2664edcb7a443902254785,62c53a853b716069deedd1fa,2022-07-06_09h32.56.209,Colour_Asymmetry_Pilot,2022.1.3,Win32,58.66134804,62c50e9c1127f2cd403a315f,,,,,,,,,,,,,,,,,,,,,,,,,,,,,,,,,,,,,,,,,,,,,,,,,,,,,,,,,,,,,,,,,,,,,,,,,,,,,,,,,,,,,,,,,,,,,,,,,,,,,,,,,,,,,,,,,,,,,,,,,,,,,,,,,,,,,,,,,,,,,,,,,,,,,,,,,,,,,,,,,,,
0,39,39,87,1,,5f2664edcb7a443902254785,62c53a853b716069deedd1fa,2022-07-06_09h32.56.209,Colour_Asymmetry_Pilot,2022.1.3,Win32,58.66134804,62c50e9c1127f2cd403a315f,,,,,,,,,,,,,,,,,,,,,,,,,,,,,,,,,,,,,,,,,,,,,,,,,,,,,,,,,,,,,,,,,,,,,,,,,,,,,,,,,,,,,,,,,,,,,,,,,,,,,,,,,,,,,,,,,,,,,,,,,,,,,,,,,,,,,,,,,,,,,,,,,,,,,,,,,,,,,,,,,,,
0,40,40,67,1,,5f2664edcb7a443902254785,62c53a853b716069deedd1fa,2022-07-06_09h32.56.209,Colour_Asymmetry_Pilot,2022.1.3,Win32,58.66134804,62c50e9c1127f2cd403a315f,,,,,,,,,,,,,,,,,,,,,,,,,,,,,,,,,,,,,,,,,,,,,,,,,,,,,,,,,,,,,,,,,,,,,,,,,,,,,,,,,,,,,,,,,,,,,,,,,,,,,,,,,,,,,,,,,,,,,,,,,,,,,,,,,,,,,,,,,,,,,,,,,,,,,,,,,,,,,,,,,,,
0,41,41,25,1,,5f2664edcb7a443902254785,62c53a853b716069deedd1fa,2022-07-06_09h32.56.209,Colour_Asymmetry_Pilot,2022.1.3,Win32,58.66134804,62c50e9c1127f2cd403a315f,,,,,,,,,,,,,,,,,,,,,,,,,,,,,,,,,,,,,,,,,,,,,,,,,,,,,,,,,,,,,,,,,,,,,,,,,,,,,,,,,,,,,,,,,,,,,,,,,,,,,,,,,,,,,,,,,,,,,,,,,,,,,,,,,,,,,,,,,,,,,,,,,,,,,,,,,,,,,,,,,,,
0,42,42,17,1,,5f2664edcb7a443902254785,62c53a853b716069deedd1fa,2022-07-06_09h32.56.209,Colour_Asymmetry_Pilot,2022.1.3,Win32,58.66134804,62c50e9c1127f2cd403a315f,,,,,,,,,,,,,,,,,,,,,,,,,,,,,,,,,,,,,,,,,,,,,,,,,,,,,,,,,,,,,,,,,,,,,,,,,,,,,,,,,,,,,,,,,,,,,,,,,,,,,,,,,,,,,,,,,,,,,,,,,,,,,,,,,,,,,,,,,,,,,,,,,,,,,,,,,,,,,,,,,,,
0,43,43,80,1,,5f2664edcb7a443902254785,62c53a853b716069deedd1fa,2022-07-06_09h32.56.209,Colour_Asymmetry_Pilot,2022.1.3,Win32,58.66134804,62c50e9c1127f2cd403a315f,,,,,,,,,,,,,,,,,,,,,,,,,,,,,,,,,,,,,,,,,,,,,,,,,,,,,,,,,,,,,,,,,,,,,,,,,,,,,,,,,,,,,,,,,,,,,,,,,,,,,,,,,,,,,,,,,,,,,,,,,,,,,,,,,,,,,,,,,,,,,,,,,,,,,,,,,,,,,,,,,,,
0,44,44,74,1,,5f2664edcb7a443902254785,62c53a853b716069deedd1fa,2022-07-06_09h32.56.209,Colour_Asymmetry_Pilot,2022.1.3,Win32,58.66134804,62c50e9c1127f2cd403a315f,,,,,,,,,,,,,,,,,,,,,,,,,,,,,,,,,,,,,,,,,,,,,,,,,,,,,,,,,,,,,,,,,,,,,,,,,,,,,,,,,,,,,,,,,,,,,,,,,,,,,,,,,,,,,,,,,,,,,,,,,,,,,,,,,,,,,,,,,,,,,,,,,,,,,,,,,,,,,,,,,,,
0,45,45,84,1,,5f2664edcb7a443902254785,62c53a853b716069deedd1fa,2022-07-06_09h32.56.209,Colour_Asymmetry_Pilot,2022.1.3,Win32,58.66134804,62c50e9c1127f2cd403a315f,,,,,,,,,,,,,,,,,,,,,,,,,,,,,,,,,,,,,,,,,,,,,,,,,,,,,,,,,,,,,,,,,,,,,,,,,,,,,,,,,,,,,,,,,,,,,,,,,,,,,,,,,,,,,,,,,,,,,,,,,,,,,,,,,,,,,,,,,,,,,,,,,,,,,,,,,,,,,,,,,,,
0,46,46,66,1,,5f2664edcb7a443902254785,62c53a853b716069deedd1fa,2022-07-06_09h32.56.209,Colour_Asymmetry_Pilot,2022.1.3,Win32,58.66134804,62c50e9c1127f2cd403a315f,,,,,,,,,,,,,,,,,,,,,,,,,,,,,,,,,,,,,,,,,,,,,,,,,,,,,,,,,,,,,,,,,,,,,,,,,,,,,,,,,,,,,,,,,,,,,,,,,,,,,,,,,,,,,,,,,,,,,,,,,,,,,,,,,,,,,,,,,,,,,,,,,,,,,,,,,,,,,,,,,,,
0,47,47,12,1,,5f2664edcb7a443902254785,62c53a853b716069deedd1fa,2022-07-06_09h32.56.209,Colour_Asymmetry_Pilot,2022.1.3,Win32,58.66134804,62c50e9c1127f2cd403a315f,,,,,,,,,,,,,,,,,,,,,,,,,,,,,,,,,,,,,,,,,,,,,,,,,,,,,,,,,,,,,,,,,,,,,,,,,,,,,,,,,,,,,,,,,,,,,,,,,,,,,,,,,,,,,,,,,,,,,,,,,,,,,,,,,,,,,,,,,,,,,,,,,,,,,,,,,,,,,,,,,,,
0,48,48,32,1,,5f2664edcb7a443902254785,62c53a853b716069deedd1fa,2022-07-06_09h32.56.209,Colour_Asymmetry_Pilot,2022.1.3,Win32,58.66134804,62c50e9c1127f2cd403a315f,,,,,,,,,,,,,,,,,,,,,,,,,,,,,,,,,,,,,,,,,,,,,,,,,,,,,,,,,,,,,,,,,,,,,,,,,,,,,,,,,,,,,,,,,,,,,,,,,,,,,,,,,,,,,,,,,,,,,,,,,,,,,,,,,,,,,,,,,,,,,,,,,,,,,,,,,,,,,,,,,,,
0,49,49,61,1,,5f2664edcb7a443902254785,62c53a853b716069deedd1fa,2022-07-06_09h32.56.209,Colour_Asymmetry_Pilot,2022.1.3,Win32,58.66134804,62c50e9c1127f2cd403a315f,,,,,,,,,,,,,,,,,,,,,,,,,,,,,,,,,,,,,,,,,,,,,,,,,,,,,,,,,,,,,,,,,,,,,,,,,,,,,,,,,,,,,,,,,,,,,,,,,,,,,,,,,,,,,,,,,,,,,,,,,,,,,,,,,,,,,,,,,,,,,,,,,,,,,,,,,,,,,,,,,,,
0,50,50,39,1,,5f2664edcb7a443902254785,62c53a853b716069deedd1fa,2022-07-06_09h32.56.209,Colour_Asymmetry_Pilot,2022.1.3,Win32,58.66134804,62c50e9c1127f2cd403a315f,,,,,,,,,,,,,,,,,,,,,,,,,,,,,,,,,,,,,,,,,,,,,,,,,,,,,,,,,,,,,,,,,,,,,,,,,,,,,,,,,,,,,,,,,,,,,,,,,,,,,,,,,,,,,,,,,,,,,,,,,,,,,,,,,,,,,,,,,,,,,,,,,,,,,,,,,,,,,,,,,,,
0,51,51,82,1,,5f2664edcb7a443902254785,62c53a853b716069deedd1fa,2022-07-06_09h32.56.209,Colour_Asymmetry_Pilot,2022.1.3,Win32,58.66134804,62c50e9c1127f2cd403a315f,,,,,,,,,,,,,,,,,,,,,,,,,,,,,,,,,,,,,,,,,,,,,,,,,,,,,,,,,,,,,,,,,,,,,,,,,,,,,,,,,,,,,,,,,,,,,,,,,,,,,,,,,,,,,,,,,,,,,,,,,,,,,,,,,,,,,,,,,,,,,,,,,,,,,,,,,,,,,,,,,,,
0,52,52,27,1,,5f2664edcb7a443902254785,62c53a853b716069deedd1fa,2022-07-06_09h32.56.209,Colour_Asymmetry_Pilot,2022.1.3,Win32,58.66134804,62c50e9c1127f2cd403a315f,,,,,,,,,,,,,,,,,,,,,,,,,,,,,,,,,,,,,,,,,,,,,,,,,,,,,,,,,,,,,,,,,,,,,,,,,,,,,,,,,,,,,,,,,,,,,,,,,,,,,,,,,,,,,,,,,,,,,,,,,,,,,,,,,,,,,,,,,,,,,,,,,,,,,,,,,,,,,,,,,,,
0,53,53,69,1,,5f2664edcb7a443902254785,62c53a853b716069deedd1fa,2022-07-06_09h32.56.209,Colour_Asymmetry_Pilot,2022.1.3,Win32,58.66134804,62c50e9c1127f2cd403a315f,,,,,,,,,,,,,,,,,,,,,,,,,,,,,,,,,,,,,,,,,,,,,,,,,,,,,,,,,,,,,,,,,,,,,,,,,,,,,,,,,,,,,,,,,,,,,,,,,,,,,,,,,,,,,,,,,,,,,,,,,,,,,,,,,,,,,,,,,,,,,,,,,,,,,,,,,,,,,,,,,,,
0,54,54,59,1,,5f2664edcb7a443902254785,62c53a853b716069deedd1fa,2022-07-06_09h32.56.209,Colour_Asymmetry_Pilot,2022.1.3,Win32,58.66134804,62c50e9c1127f2cd403a315f,,,,,,,,,,,,,,,,,,,,,,,,,,,,,,,,,,,,,,,,,,,,,,,,,,,,,,,,,,,,,,,,,,,,,,,,,,,,,,,,,,,,,,,,,,,,,,,,,,,,,,,,,,,,,,,,,,,,,,,,,,,,,,,,,,,,,,,,,,,,,,,,,,,,,,,,,,,,,,,,,,,
0,55,55,11,1,,5f2664edcb7a443902254785,62c53a853b716069deedd1fa,2022-07-06_09h32.56.209,Colour_Asymmetry_Pilot,2022.1.3,Win32,58.66134804,62c50e9c1127f2cd403a315f,,,,,,,,,,,,,,,,,,,,,,,,,,,,,,,,,,,,,,,,,,,,,,,,,,,,,,,,,,,,,,,,,,,,,,,,,,,,,,,,,,,,,,,,,,,,,,,,,,,,,,,,,,,,,,,,,,,,,,,,,,,,,,,,,,,,,,,,,,,,,,,,,,,,,,,,,,,,,,,,,,,
0,56,56,24,1,,5f2664edcb7a443902254785,62c53a853b716069deedd1fa,2022-07-06_09h32.56.209,Colour_Asymmetry_Pilot,2022.1.3,Win32,58.66134804,62c50e9c1127f2cd403a315f,,,,,,,,,,,,,,,,,,,,,,,,,,,,,,,,,,,,,,,,,,,,,,,,,,,,,,,,,,,,,,,,,,,,,,,,,,,,,,,,,,,,,,,,,,,,,,,,,,,,,,,,,,,,,,,,,,,,,,,,,,,,,,,,,,,,,,,,,,,,,,,,,,,,,,,,,,,,,,,,,,,
0,57,57,50,1,,5f2664edcb7a443902254785,62c53a853b716069deedd1fa,2022-07-06_09h32.56.209,Colour_Asymmetry_Pilot,2022.1.3,Win32,58.66134804,62c50e9c1127f2cd403a315f,,,,,,,,,,,,,,,,,,,,,,,,,,,,,,,,,,,,,,,,,,,,,,,,,,,,,,,,,,,,,,,,,,,,,,,,,,,,,,,,,,,,,,,,,,,,,,,,,,,,,,,,,,,,,,,,,,,,,,,,,,,,,,,,,,,,,,,,,,,,,,,,,,,,,,,,,,,,,,,,,,,
0,58,58,51,1,,5f2664edcb7a443902254785,62c53a853b716069deedd1fa,2022-07-06_09h32.56.209,Colour_Asymmetry_Pilot,2022.1.3,Win32,58.66134804,62c50e9c1127f2cd403a315f,,,,,,,,,,,,,,,,,,,,,,,,,,,,,,,,,,,,,,,,,,,,,,,,,,,,,,,,,,,,,,,,,,,,,,,,,,,,,,,,,,,,,,,,,,,,,,,,,,,,,,,,,,,,,,,,,,,,,,,,,,,,,,,,,,,,,,,,,,,,,,,,,,,,,,,,,,,,,,,,,,,
0,59,59,68,1,,5f2664edcb7a443902254785,62c53a853b716069deedd1fa,2022-07-06_09h32.56.209,Colour_Asymmetry_Pilot,2022.1.3,Win32,58.66134804,62c50e9c1127f2cd403a315f,,,,,,,,,,,,,,,,,,,,,,,,,,,,,,,,,,,,,,,,,,,,,,,,,,,,,,,,,,,,,,,,,,,,,,,,,,,,,,,,,,,,,,,,,,,,,,,,,,,,,,,,,,,,,,,,,,,,,,,,,,,,,,,,,,,,,,,,,,,,,,,,,,,,,,,,,,,,,,,,,,,
0,60,60,88,1,,5f2664edcb7a443902254785,62c53a853b716069deedd1fa,2022-07-06_09h32.56.209,Colour_Asymmetry_Pilot,2022.1.3,Win32,58.66134804,62c50e9c1127f2cd403a315f,,,,,,,,,,,,,,,,,,,,,,,,,,,,,,,,,,,,,,,,,,,,,,,,,,,,,,,,,,,,,,,,,,,,,,,,,,,,,,,,,,,,,,,,,,,,,,,,,,,,,,,,,,,,,,,,,,,,,,,,,,,,,,,,,,,,,,,,,,,,,,,,,,,,,,,,,,,,,,,,,,,
0,61,61,30,1,,5f2664edcb7a443902254785,62c53a853b716069deedd1fa,2022-07-06_09h32.56.209,Colour_Asymmetry_Pilot,2022.1.3,Win32,58.66134804,62c50e9c1127f2cd403a315f,,,,,,,,,,,,,,,,,,,,,,,,,,,,,,,,,,,,,,,,,,,,,,,,,,,,,,,,,,,,,,,,,,,,,,,,,,,,,,,,,,,,,,,,,,,,,,,,,,,,,,,,,,,,,,,,,,,,,,,,,,,,,,,,,,,,,,,,,,,,,,,,,,,,,,,,,,,,,,,,,,,
0,62,62,35,1,,5f2664edcb7a443902254785,62c53a853b716069deedd1fa,2022-07-06_09h32.56.209,Colour_Asymmetry_Pilot,2022.1.3,Win32,58.66134804,62c50e9c1127f2cd403a315f,,,,,,,,,,,,,,,,,,,,,,,,,,,,,,,,,,,,,,,,,,,,,,,,,,,,,,,,,,,,,,,,,,,,,,,,,,,,,,,,,,,,,,,,,,,,,,,,,,,,,,,,,,,,,,,,,,,,,,,,,,,,,,,,,,,,,,,,,,,,,,,,,,,,,,,,,,,,,,,,,,,
0,63,63,56,1,,5f2664edcb7a443902254785,62c53a853b716069deedd1fa,2022-07-06_09h32.56.209,Colour_Asymmetry_Pilot,2022.1.3,Win32,58.66134804,62c50e9c1127f2cd403a315f,,,,,,,,,,,,,,,,,,,,,,,,,,,,,,,,,,,,,,,,,,,,,,,,,,,,,,,,,,,,,,,,,,,,,,,,,,,,,,,,,,,,,,,,,,,,,,,,,,,,,,,,,,,,,,,,,,,,,,,,,,,,,,,,,,,,,,,,,,,,,,,,,,,,,,,,,,,,,,,,,,,
0,64,64,43,1,,5f2664edcb7a443902254785,62c53a853b716069deedd1fa,2022-07-06_09h32.56.209,Colour_Asymmetry_Pilot,2022.1.3,Win32,58.66134804,62c50e9c1127f2cd403a315f,,,,,,,,,,,,,,,,,,,,,,,,,,,,,,,,,,,,,,,,,,,,,,,,,,,,,,,,,,,,,,,,,,,,,,,,,,,,,,,,,,,,,,,,,,,,,,,,,,,,,,,,,,,,,,,,,,,,,,,,,,,,,,,,,,,,,,,,,,,,,,,,,,,,,,,,,,,,,,,,,,,
0,65,65,75,1,,5f2664edcb7a443902254785,62c53a853b716069deedd1fa,2022-07-06_09h32.56.209,Colour_Asymmetry_Pilot,2022.1.3,Win32,58.66134804,62c50e9c1127f2cd403a315f,,,,,,,,,,,,,,,,,,,,,,,,,,,,,,,,,,,,,,,,,,,,,,,,,,,,,,,,,,,,,,,,,,,,,,,,,,,,,,,,,,,,,,,,,,,,,,,,,,,,,,,,,,,,,,,,,,,,,,,,,,,,,,,,,,,,,,,,,,,,,,,,,,,,,,,,,,,,,,,,,,,
0,66,66,49,1,,5f2664edcb7a443902254785,62c53a853b716069deedd1fa,2022-07-06_09h32.56.209,Colour_Asymmetry_Pilot,2022.1.3,Win32,58.66134804,62c50e9c1127f2cd403a315f,,,,,,,,,,,,,,,,,,,,,,,,,,,,,,,,,,,,,,,,,,,,,,,,,,,,,,,,,,,,,,,,,,,,,,,,,,,,,,,,,,,,,,,,,,,,,,,,,,,,,,,,,,,,,,,,,,,,,,,,,,,,,,,,,,,,,,,,,,,,,,,,,,,,,,,,,,,,,,,,,,,
0,67,67,79,1,,5f2664edcb7a443902254785,62c53a853b716069deedd1fa,2022-07-06_09h32.56.209,Colour_Asymmetry_Pilot,2022.1.3,Win32,58.66134804,62c50e9c1127f2cd403a315f,,,,,,,,,,,,,,,,,,,,,,,,,,,,,,,,,,,,,,,,,,,,,,,,,,,,,,,,,,,,,,,,,,,,,,,,,,,,,,,,,,,,,,,,,,,,,,,,,,,,,,,,,,,,,,,,,,,,,,,,,,,,,,,,,,,,,,,,,,,,,,,,,,,,,,,,,,,,,,,,,,,
0,68,68,36,1,,5f2664edcb7a443902254785,62c53a853b716069deedd1fa,2022-07-06_09h32.56.209,Colour_Asymmetry_Pilot,2022.1.3,Win32,58.66134804,62c50e9c1127f2cd403a315f,,,,,,,,,,,,,,,,,,,,,,,,,,,,,,,,,,,,,,,,,,,,,,,,,,,,,,,,,,,,,,,,,,,,,,,,,,,,,,,,,,,,,,,,,,,,,,,,,,,,,,,,,,,,,,,,,,,,,,,,,,,,,,,,,,,,,,,,,,,,,,,,,,,,,,,,,,,,,,,,,,,
0,69,69,29,1,,5f2664edcb7a443902254785,62c53a853b716069deedd1fa,2022-07-06_09h32.56.209,Colour_Asymmetry_Pilot,2022.1.3,Win32,58.66134804,62c50e9c1127f2cd403a315f,,,,,,,,,,,,,,,,,,,,,,,,,,,,,,,,,,,,,,,,,,,,,,,,,,,,,,,,,,,,,,,,,,,,,,,,,,,,,,,,,,,,,,,,,,,,,,,,,,,,,,,,,,,,,,,,,,,,,,,,,,,,,,,,,,,,,,,,,,,,,,,,,,,,,,,,,,,,,,,,,,,
0,70,70,38,1,,5f2664edcb7a443902254785,62c53a853b716069deedd1fa,2022-07-06_09h32.56.209,Colour_Asymmetry_Pilot,2022.1.3,Win32,58.66134804,62c50e9c1127f2cd403a315f,,,,,,,,,,,,,,,,,,,,,,,,,,,,,,,,,,,,,,,,,,,,,,,,,,,,,,,,,,,,,,,,,,,,,,,,,,,,,,,,,,,,,,,,,,,,,,,,,,,,,,,,,,,,,,,,,,,,,,,,,,,,,,,,,,,,,,,,,,,,,,,,,,,,,,,,,,,,,,,,,,,
0,71,71,57,1,,5f2664edcb7a443902254785,62c53a853b716069deedd1fa,2022-07-06_09h32.56.209,Colour_Asymmetry_Pilot,2022.1.3,Win32,58.66134804,62c50e9c1127f2cd403a315f,,,,,,,,,,,,,,,,,,,,,,,,,,,,,,,,,,,,,,,,,,,,,,,,,,,,,,,,,,,,,,,,,,,,,,,,,,,,,,,,,,,,,,,,,,,,,,,,,,,,,,,,,,,,,,,,,,,,,,,,,,,,,,,,,,,,,,,,,,,,,,,,,,,,,,,,,,,,,,,,,,,
0,72,72,13,1,,5f2664edcb7a443902254785,62c53a853b716069deedd1fa,2022-07-06_09h32.56.209,Colour_Asymmetry_Pilot,2022.1.3,Win32,58.66134804,62c50e9c1127f2cd403a315f,,,,,,,,,,,,,,,,,,,,,,,,,,,,,,,,,,,,,,,,,,,,,,,,,,,,,,,,,,,,,,,,,,,,,,,,,,,,,,,,,,,,,,,,,,,,,,,,,,,,,,,,,,,,,,,,,,,,,,,,,,,,,,,,,,,,,,,,,,,,,,,,,,,,,,,,,,,,,,,,,,,
0,73,73,90,1,,5f2664edcb7a443902254785,62c53a853b716069deedd1fa,2022-07-06_09h32.56.209,Colour_Asymmetry_Pilot,2022.1.3,Win32,58.66134804,62c50e9c1127f2cd403a315f,,,,,,,,,,,,,,,,,,,,,,,,,,,,,,,,,,,,,,,,,,,,,,,,,,,,,,,,,,,,,,,,,,,,,,,,,,,,,,,,,,,,,,,,,,,,,,,,,,,,,,,,,,,,,,,,,,,,,,,,,,,,,,,,,,,,,,,,,,,,,,,,,,,,,,,,,,,,,,,,,,,
0,74,74,58,1,,5f2664edcb7a443902254785,62c53a853b716069deedd1fa,2022-07-06_09h32.56.209,Colour_Asymmetry_Pilot,2022.1.3,Win32,58.66134804,62c50e9c1127f2cd403a315f,,,,,,,,,,,,,,,,,,,,,,,,,,,,,,,,,,,,,,,,,,,,,,,,,,,,,,,,,,,,,,,,,,,,,,,,,,,,,,,,,,,,,,,,,,,,,,,,,,,,,,,,,,,,,,,,,,,,,,,,,,,,,,,,,,,,,,,,,,,,,,,,,,,,,,,,,,,,,,,,,,,
0,75,75,64,1,,5f2664edcb7a443902254785,62c53a853b716069deedd1fa,2022-07-06_09h32.56.209,Colour_Asymmetry_Pilot,2022.1.3,Win32,58.66134804,62c50e9c1127f2cd403a315f,,,,,,,,,,,,,,,,,,,,,,,,,,,,,,,,,,,,,,,,,,,,,,,,,,,,,,,,,,,,,,,,,,,,,,,,,,,,,,,,,,,,,,,,,,,,,,,,,,,,,,,,,,,,,,,,,,,,,,,,,,,,,,,,,,,,,,,,,,,,,,,,,,,,,,,,,,,,,,,,,,,
0,76,76,19,1,,5f2664edcb7a443902254785,62c53a853b716069deedd1fa,2022-07-06_09h32.56.209,Colour_Asymmetry_Pilot,2022.1.3,Win32,58.66134804,62c50e9c1127f2cd403a315f,,,,,,,,,,,,,,,,,,,,,,,,,,,,,,,,,,,,,,,,,,,,,,,,,,,,,,,,,,,,,,,,,,,,,,,,,,,,,,,,,,,,,,,,,,,,,,,,,,,,,,,,,,,,,,,,,,,,,,,,,,,,,,,,,,,,,,,,,,,,,,,,,,,,,,,,,,,,,,,,,,,
0,77,77,70,1,,5f2664edcb7a443902254785,62c53a853b716069deedd1fa,2022-07-06_09h32.56.209,Colour_Asymmetry_Pilot,2022.1.3,Win32,58.66134804,62c50e9c1127f2cd403a315f,,,,,,,,,,,,,,,,,,,,,,,,,,,,,,,,,,,,,,,,,,,,,,,,,,,,,,,,,,,,,,,,,,,,,,,,,,,,,,,,,,,,,,,,,,,,,,,,,,,,,,,,,,,,,,,,,,,,,,,,,,,,,,,,,,,,,,,,,,,,,,,,,,,,,,,,,,,,,,,,,,,
0,78,78,46,1,,5f2664edcb7a443902254785,62c53a853b716069deedd1fa,2022-07-06_09h32.56.209,Colour_Asymmetry_Pilot,2022.1.3,Win32,58.66134804,62c50e9c1127f2cd403a315f,,,,,,,,,,,,,,,,,,,,,,,,,,,,,,,,,,,,,,,,,,,,,,,,,,,,,,,,,,,,,,,,,,,,,,,,,,,,,,,,,,,,,,,,,,,,,,,,,,,,,,,,,,,,,,,,,,,,,,,,,,,,,,,,,,,,,,,,,,,,,,,,,,,,,,,,,,,,,,,,,,,
0,79,79,26,1,,5f2664edcb7a443902254785,62c53a853b716069deedd1fa,2022-07-06_09h32.56.209,Colour_Asymmetry_Pilot,2022.1.3,Win32,58.66134804,62c50e9c1127f2cd403a315f,,,,,,,,,,,,,,,,,,,,,,,,,,,,,,,,,,,,,,,,,,,,,,,,,,,,,,,,,,,,,,,,,,,,,,,,,,,,,,,,,,,,,,,,,,,,,,,,,,,,,,,,,,,,,,,,,,,,,,,,,,,,,,,,,,,,,,,,,,,,,,,,,,,,,,,,,,,,,,,,,,,
0,80,80,22,1,,5f2664edcb7a443902254785,62c53a853b716069deedd1fa,2022-07-06_09h32.56.209,Colour_Asymmetry_Pilot,2022.1.3,Win32,58.66134804,62c50e9c1127f2cd403a315f,,,,,,,,,,,,,,,,,,,,,,,,,,,,,,,,,,,,,,,,,,,,,,,,,,,,,,,,,,,,,,,,,,,,,,,,,,,,,,,,,,,,,,,,,,,,,,,,,,,,,,,,,,,,,,,,,,,,,,,,,,,,,,,,,,,,,,,,,,,,,,,,,,,,,,,,,,,,,,,,,,,
0,81,81,47,1,,5f2664edcb7a443902254785,62c53a853b716069deedd1fa,2022-07-06_09h32.56.209,Colour_Asymmetry_Pilot,2022.1.3,Win32,58.66134804,62c50e9c1127f2cd403a315f,,,,,,,,,,,,,,,,,,,,,,,,,,,,,,,,,,,,,,,,,,,,,,,,,,,,,,,,,,,,,,,,,,,,,,,,,,,,,,,,,,,,,,,,,,,,,,,,,,,,,,,,,,,,,,,,,,,,,,,,,,,,,,,,,,,,,,,,,,,,,,,,,,,,,,,,,,,,,,,,,,,
0,82,82,23,1,,5f2664edcb7a443902254785,62c53a853b716069deedd1fa,2022-07-06_09h32.56.209,Colour_Asymmetry_Pilot,2022.1.3,Win32,58.66134804,62c50e9c1127f2cd403a315f,,,,,,,,,,,,,,,,,,,,,,,,,,,,,,,,,,,,,,,,,,,,,,,,,,,,,,,,,,,,,,,,,,,,,,,,,,,,,,,,,,,,,,,,,,,,,,,,,,,,,,,,,,,,,,,,,,,,,,,,,,,,,,,,,,,,,,,,,,,,,,,,,,,,,,,,,,,,,,,,,,,
0,83,83,41,1,,5f2664edcb7a443902254785,62c53a853b716069deedd1fa,2022-07-06_09h32.56.209,Colour_Asymmetry_Pilot,2022.1.3,Win32,58.66134804,62c50e9c1127f2cd403a315f,,,,,,,,,,,,,,,,,,,,,,,,,,,,,,,,,,,,,,,,,,,,,,,,,,,,,,,,,,,,,,,,,,,,,,,,,,,,,,,,,,,,,,,,,,,,,,,,,,,,,,,,,,,,,,,,,,,,,,,,,,,,,,,,,,,,,,,,,,,,,,,,,,,,,,,,,,,,,,,,,,,
0,84,84,53,1,,5f2664edcb7a443902254785,62c53a853b716069deedd1fa,2022-07-06_09h32.56.209,Colour_Asymmetry_Pilot,2022.1.3,Win32,58.66134804,62c50e9c1127f2cd403a315f,,,,,,,,,,,,,,,,,,,,,,,,,,,,,,,,,,,,,,,,,,,,,,,,,,,,,,,,,,,,,,,,,,,,,,,,,,,,,,,,,,,,,,,,,,,,,,,,,,,,,,,,,,,,,,,,,,,,,,,,,,,,,,,,,,,,,,,,,,,,,,,,,,,,,,,,,,,,,,,,,,,
0,85,85,5,1,,5f2664edcb7a443902254785,62c53a853b716069deedd1fa,2022-07-06_09h32.56.209,Colour_Asymmetry_Pilot,2022.1.3,Win32,58.66134804,62c50e9c1127f2cd403a315f,,,,,,,,,,,,,,,,,,,,,,,,,,,,,,,,,,,,,,,,,,,,,,,,,,,,,,,,,,,,,,,,,,,,,,,,,,,,,,,,,,,,,,,,,,,,,,,,,,,,,,,,,,,,,,,,,,,,,,,,,,,,,,,,,,,,,,,,,,,,,,,,,,,,,,,,,,,,,,,,,,,
0,86,86,14,1,,5f2664edcb7a443902254785,62c53a853b716069deedd1fa,2022-07-06_09h32.56.209,Colour_Asymmetry_Pilot,2022.1.3,Win32,58.66134804,62c50e9c1127f2cd403a315f,,,,,,,,,,,,,,,,,,,,,,,,,,,,,,,,,,,,,,,,,,,,,,,,,,,,,,,,,,,,,,,,,,,,,,,,,,,,,,,,,,,,,,,,,,,,,,,,,,,,,,,,,,,,,,,,,,,,,,,,,,,,,,,,,,,,,,,,,,,,,,,,,,,,,,,,,,,,,,,,,,,
0,87,87,8,1,,5f2664edcb7a443902254785,62c53a853b716069deedd1fa,2022-07-06_09h32.56.209,Colour_Asymmetry_Pilot,2022.1.3,Win32,58.66134804,62c50e9c1127f2cd403a315f,,,,,,,,,,,,,,,,,,,,,,,,,,,,,,,,,,,,,,,,,,,,,,,,,,,,,,,,,,,,,,,,,,,,,,,,,,,,,,,,,,,,,,,,,,,,,,,,,,,,,,,,,,,,,,,,,,,,,,,,,,,,,,,,,,,,,,,,,,,,,,,,,,,,,,,,,,,,,,,,,,,
0,88,88,42,1,,5f2664edcb7a443902254785,62c53a853b716069deedd1fa,2022-07-06_09h32.56.209,Colour_Asymmetry_Pilot,2022.1.3,Win32,58.66134804,62c50e9c1127f2cd403a315f,,,,,,,,,,,,,,,,,,,,,,,,,,,,,,,,,,,,,,,,,,,,,,,,,,,,,,,,,,,,,,,,,,,,,,,,,,,,,,,,,,,,,,,,,,,,,,,,,,,,,,,,,,,,,,,,,,,,,,,,,,,,,,,,,,,,,,,,,,,,,,,,,,,,,,,,,,,,,,,,,,,
0,89,89,4,1,,5f2664edcb7a443902254785,62c53a853b716069deedd1fa,2022-07-06_09h32.56.209,Colour_Asymmetry_Pilot,2022.1.3,Win32,58.66134804,62c50e9c1127f2cd403a315f,,,,,,,,,,,,,,,,,,,,,,,,,,,,,,,,,,,,,,,,,,,,,,,,,,,,,,,,,,,,,,,,,,,,,,,,,,,,,,,,,,,,,,,,,,,,,,,,,,,,,,,,,,,,,,,,,,,,,,,,,,,,,,,,,,,,,,,,,,,,,,,,,,,,,,,,,,,,,,,,,,,
0,90,90,10,1,,5f2664edcb7a443902254785,62c53a853b716069deedd1fa,2022-07-06_09h32.56.209,Colour_Asymmetry_Pilot,2022.1.3,Win32,58.66134804,62c50e9c1127f2cd403a315f,,,,,,,,,,,,,,,,,,,,,,,,,,,,,,,,,,,,,,,,,,,,,,,,,,,,,,,,,,,,,,,,,,,,,,,,,,,,,,,,,,,,,,,,,,,,,,,,,,,,,,,,,,,,,,,,,,,,,,,,,,,,,,,,,,,,,,,,,,,,,,,,,,,,,,,,,,,,,,,,,,,
0,91,91,54,1,,5f2664edcb7a443902254785,62c53a853b716069deedd1fa,2022-07-06_09h32.56.209,Colour_Asymmetry_Pilot,2022.1.3,Win32,58.66134804,62c50e9c1127f2cd403a315f,,,,,,,,,,,,,,,,,,,,,,,,,,,,,,,,,,,,,,,,,,,,,,,,,,,,,,,,,,,,,,,,,,,,,,,,,,,,,,,,,,,,,,,,,,,,,,,,,,,,,,,,,,,,,,,,,,,,,,,,,,,,,,,,,,,,,,,,,,,,,,,,,,,,,,,,,,,,,,,,,,,
0,92,92,78,1,,5f2664edcb7a443902254785,62c53a853b716069deedd1fa,2022-07-06_09h32.56.209,Colour_Asymmetry_Pilot,2022.1.3,Win32,58.66134804,62c50e9c1127f2cd403a315f,,,,,,,,,,,,,,,,,,,,,,,,,,,,,,,,,,,,,,,,,,,,,,,,,,,,,,,,,,,,,,,,,,,,,,,,,,,,,,,,,,,,,,,,,,,,,,,,,,,,,,,,,,,,,,,,,,,,,,,,,,,,,,,,,,,,,,,,,,,,,,,,,,,,,,,,,,,,,,,,,,,
,,,,,,5f2664edcb7a443902254785,62c53a853b716069deedd1fa,2022-07-06_09h32.56.209,Colour_Asymmetry_Pilot,2022.1.3,Win32,58.66134804,62c50e9c1127f2cd403a315f,0,0,0,159,1,fourthree,,,,,,,,,,,,,,,,,,,,,,,,,,,,,,,,,,,,,,,,,,,,,,,,,,,,,,,,,,,,,,,,,,,,,,,,,,,,,,,,,,,,,,,,,,,,,,,,,,,,,,,,,,,,,,,,,,,,,,,,,,,,,,,,,,,,,,,,,,,,,,,,,,,,,,,,,,,,,
,,,,,,5f2664edcb7a443902254785,62c53a853b716069deedd1fa,2022-07-06_09h32.56.209,Colour_Asymmetry_Pilot,2022.1.3,Win32,58.66134804,62c50e9c1127f2cd403a315f,0,1,1,26,1,twoone,,,,,,,,,,,,,,,,,,,,,,,,,,,,,,,,,,,,,,,,,,,,,,,,,,,,,,,,,,,,,,,,,,,,,,,,,,,,,,,,,,,,,,,,,,,,,,,,,,,,,,,,,,,,,,,,,,,,,,,,,,,,,,,,,,,,,,,,,,,,,,,,,,,,,,,,,,,,,
,,,,,,5f2664edcb7a443902254785,62c53a853b716069deedd1fa,2022-07-06_09h32.56.209,Colour_Asymmetry_Pilot,2022.1.3,Win32,58.66134804,62c50e9c1127f2cd403a315f,0,2,2,100,1,threeone,,,,,,,,,,,,,,,,,,,,,,,,,,,,,,,,,,,,,,,,,,,,,,,,,,,,,,,,,,,,,,,,,,,,,,,,,,,,,,,,,,,,,,,,,,,,,,,,,,,,,,,,,,,,,,,,,,,,,,,,,,,,,,,,,,,,,,,,,,,,,,,,,,,,,,,,,,,,,
,,,,,,5f2664edcb7a443902254785,62c53a853b716069deedd1fa,2022-07-06_09h32.56.209,Colour_Asymmetry_Pilot,2022.1.3,Win32,58.66134804,62c50e9c1127f2cd403a315f,0,3,3,11,1,twofour,,,,,,,,,,,,,,,,,,,,,,,,,,,,,,,,,,,,,,,,,,,,,,,,,,,,,,,,,,,,,,,,,,,,,,,,,,,,,,,,,,,,,,,,,,,,,,,,,,,,,,,,,,,,,,,,,,,,,,,,,,,,,,,,,,,,,,,,,,,,,,,,,,,,,,,,,,,,,
,,,,,,5f2664edcb7a443902254785,62c53a853b716069deedd1fa,2022-07-06_09h32.56.209,Colour_Asymmetry_Pilot,2022.1.3,Win32,58.66134804,62c50e9c1127f2cd403a315f,0,4,4,91,1,twofour,,,,,,,,,,,,,,,,,,,,,,,,,,,,,,,,,,,,,,,,,,,,,,,,,,,,,,,,,,,,,,,,,,,,,,,,,,,,,,,,,,,,,,,,,,,,,,,,,,,,,,,,,,,,,,,,,,,,,,,,,,,,,,,,,,,,,,,,,,,,,,,,,,,,,,,,,,,,,
,,,,,,5f2664edcb7a443902254785,62c53a853b716069deedd1fa,2022-07-06_09h32.56.209,Colour_Asymmetry_Pilot,2022.1.3,Win32,58.66134804,62c50e9c1127f2cd403a315f,0,5,5,63,1,fourthree,,,,,,,,,,,,,,,,,,,,,,,,,,,,,,,,,,,,,,,,,,,,,,,,,,,,,,,,,,,,,,,,,,,,,,,,,,,,,,,,,,,,,,,,,,,,,,,,,,,,,,,,,,,,,,,,,,,,,,,,,,,,,,,,,,,,,,,,,,,,,,,,,,,,,,,,,,,,,
,,,,,,5f2664edcb7a443902254785,62c53a853b716069deedd1fa,2022-07-06_09h32.56.209,Colour_Asymmetry_Pilot,2022.1.3,Win32,58.66134804,62c50e9c1127f2cd403a315f,0,6,6,20,1,threeone,,,,,,,,,,,,,,,,,,,,,,,,,,,,,,,,,,,,,,,,,,,,,,,,,,,,,,,,,,,,,,,,,,,,,,,,,,,,,,,,,,,,,,,,,,,,,,,,,,,,,,,,,,,,,,,,,,,,,,,,,,,,,,,,,,,,,,,,,,,,,,,,,,,,,,,,,,,,,
,,,,,,5f2664edcb7a443902254785,62c53a853b716069deedd1fa,2022-07-06_09h32.56.209,Colour_Asymmetry_Pilot,2022.1.3,Win32,58.66134804,62c50e9c1127f2cd403a315f,0,7,7,59,1,twofour,,,,,,,,,,,,,,,,,,,,,,,,,,,,,,,,,,,,,,,,,,,,,,,,,,,,,,,,,,,,,,,,,,,,,,,,,,,,,,,,,,,,,,,,,,,,,,,,,,,,,,,,,,,,,,,,,,,,,,,,,,,,,,,,,,,,,,,,,,,,,,,,,,,,,,,,,,,,,
,,,,,,5f2664edcb7a443902254785,62c53a853b716069deedd1fa,2022-07-06_09h32.56.209,Colour_Asymmetry_Pilot,2022.1.3,Win32,58.66134804,62c50e9c1127f2cd403a315f,0,8,8,156,1,threeone,,,,,,,,,,,,,,,,,,,,,,,,,,,,,,,,,,,,,,,,,,,,,,,,,,,,,,,,,,,,,,,,,,,,,,,,,,,,,,,,,,,,,,,,,,,,,,,,,,,,,,,,,,,,,,,,,,,,,,,,,,,,,,,,,,,,,,,,,,,,,,,,,,,,,,,,,,,,,
,,,,,,5f2664edcb7a443902254785,62c53a853b716069deedd1fa,2022-07-06_09h32.56.209,Colour_Asymmetry_Pilot,2022.1.3,Win32,58.66134804,62c50e9c1127f2cd403a315f,0,9,9,61,1,threefour,,,,,,,,,,,,,,,,,,,,,,,,,,,,,,,,,,,,,,,,,,,,,,,,,,,,,,,,,,,,,,,,,,,,,,,,,,,,,,,,,,,,,,,,,,,,,,,,,,,,,,,,,,,,,,,,,,,,,,,,,,,,,,,,,,,,,,,,,,,,,,,,,,,,,,,,,,,,,
,,,,,,5f2664edcb7a443902254785,62c53a853b716069deedd1fa,2022-07-06_09h32.56.209,Colour_Asymmetry_Pilot,2022.1.3,Win32,58.66134804,62c50e9c1127f2cd403a315f,0,10,10,143,1,fourthree,,,,,,,,,,,,,,,,,,,,,,,,,,,,,,,,,,,,,,,,,,,,,,,,,,,,,,,,,,,,,,,,,,,,,,,,,,,,,,,,,,,,,,,,,,,,,,,,,,,,,,,,,,,,,,,,,,,,,,,,,,,,,,,,,,,,,,,,,,,,,,,,,,,,,,,,,,,,,
,,,,,,5f2664edcb7a443902254785,62c53a853b716069deedd1fa,2022-07-06_09h32.56.209,Colour_Asymmetry_Pilot,2022.1.3,Win32,58.66134804,62c50e9c1127f2cd403a315f,0,11,11,74,1,twoone,,,,,,,,,,,,,,,,,,,,,,,,,,,,,,,,,,,,,,,,,,,,,,,,,,,,,,,,,,,,,,,,,,,,,,,,,,,,,,,,,,,,,,,,,,,,,,,,,,,,,,,,,,,,,,,,,,,,,,,,,,,,,,,,,,,,,,,,,,,,,,,,,,,,,,,,,,,,,
,,,,,,5f2664edcb7a443902254785,62c53a853b716069deedd1fa,2022-07-06_09h32.56.209,Colour_Asymmetry_Pilot,2022.1.3,Win32,58.66134804,62c50e9c1127f2cd403a315f,0,12,12,42,1,twoone,,,,,,,,,,,,,,,,,,,,,,,,,,,,,,,,,,,,,,,,,,,,,,,,,,,,,,,,,,,,,,,,,,,,,,,,,,,,,,,,,,,,,,,,,,,,,,,,,,,,,,,,,,,,,,,,,,,,,,,,,,,,,,,,,,,,,,,,,,,,,,,,,,,,,,,,,,,,,
,,,,,,5f2664edcb7a443902254785,62c53a853b716069deedd1fa,2022-07-06_09h32.56.209,Colour_Asymmetry_Pilot,2022.1.3,Win32,58.66134804,62c50e9c1127f2cd403a315f,0,13,13,16,1,onetwo,,,,,,,,,,,,,,,,,,,,,,,,,,,,,,,,,,,,,,,,,,,,,,,,,,,,,,,,,,,,,,,,,,,,,,,,,,,,,,,,,,,,,,,,,,,,,,,,,,,,,,,,,,,,,,,,,,,,,,,,,,,,,,,,,,,,,,,,,,,,,,,,,,,,,,,,,,,,,
,,,,,,5f2664edcb7a443902254785,62c53a853b716069deedd1fa,2022-07-06_09h32.56.209,Colour_Asymmetry_Pilot,2022.1.3,Win32,58.66134804,62c50e9c1127f2cd403a315f,0,14,14,22,1,fourtwo,,,,,,,,,,,,,,,,,,,,,,,,,,,,,,,,,,,,,,,,,,,,,,,,,,,,,,,,,,,,,,,,,,,,,,,,,,,,,,,,,,,,,,,,,,,,,,,,,,,,,,,,,,,,,,,,,,,,,,,,,,,,,,,,,,,,,,,,,,,,,,,,,,,,,,,,,,,,,
,,,,,,5f2664edcb7a443902254785,62c53a853b716069deedd1fa,2022-07-06_09h32.56.209,Colour_Asymmetry_Pilot,2022.1.3,Win32,58.66134804,62c50e9c1127f2cd403a315f,0,15,15,122,1,twoone,,,,,,,,,,,,,,,,,,,,,,,,,,,,,,,,,,,,,,,,,,,,,,,,,,,,,,,,,,,,,,,,,,,,,,,,,,,,,,,,,,,,,,,,,,,,,,,,,,,,,,,,,,,,,,,,,,,,,,,,,,,,,,,,,,,,,,,,,,,,,,,,,,,,,,,,,,,,,
,,,,,,5f2664edcb7a443902254785,62c53a853b716069deedd1fa,2022-07-06_09h32.56.209,Colour_Asymmetry_Pilot,2022.1.3,Win32,58.66134804,62c50e9c1127f2cd403a315f,0,16,16,149,1,threefour,,,,,,,,,,,,,,,,,,,,,,,,,,,,,,,,,,,,,,,,,,,,,,,,,,,,,,,,,,,,,,,,,,,,,,,,,,,,,,,,,,,,,,,,,,,,,,,,,,,,,,,,,,,,,,,,,,,,,,,,,,,,,,,,,,,,,,,,,,,,,,,,,,,,,,,,,,,,,
,,,,,,5f2664edcb7a443902254785,62c53a853b716069deedd1fa,2022-07-06_09h32.56.209,Colour_Asymmetry_Pilot,2022.1.3,Win32,58.66134804,62c50e9c1127f2cd403a315f,0,17,17,60,1,threeone,,,,,,,,,,,,,,,,,,,,,,,,,,,,,,,,,,,,,,,,,,,,,,,,,,,,,,,,,,,,,,,,,,,,,,,,,,,,,,,,,,,,,,,,,,,,,,,,,,,,,,,,,,,,,,,,,,,,,,,,,,,,,,,,,,,,,,,,,,,,,,,,,,,,,,,,,,,,,
,,,,,,5f2664edcb7a443902254785,62c53a853b716069deedd1fa,2022-07-06_09h32.56.209,Colour_Asymmetry_Pilot,2022.1.3,Win32,58.66134804,62c50e9c1127f2cd403a315f,0,18,18,18,1,twoone,,,,,,,,,,,,,,,,,,,,,,,,,,,,,,,,,,,,,,,,,,,,,,,,,,,,,,,,,,,,,,,,,,,,,,,,,,,,,,,,,,,,,,,,,,,,,,,,,,,,,,,,,,,,,,,,,,,,,,,,,,,,,,,,,,,,,,,,,,,,,,,,,,,,,,,,,,,,,
,,,,,,5f2664edcb7a443902254785,62c53a853b716069deedd1fa,2022-07-06_09h32.56.209,Colour_Asymmetry_Pilot,2022.1.3,Win32,58.66134804,62c50e9c1127f2cd403a315f,0,19,19,65,1,onethree,,,,,,,,,,,,,,,,,,,,,,,,,,,,,,,,,,,,,,,,,,,,,,,,,,,,,,,,,,,,,,,,,,,,,,,,,,,,,,,,,,,,,,,,,,,,,,,,,,,,,,,,,,,,,,,,,,,,,,,,,,,,,,,,,,,,,,,,,,,,,,,,,,,,,,,,,,,,,
,,,,,,5f2664edcb7a443902254785,62c53a853b716069deedd1fa,2022-07-06_09h32.56.209,Colour_Asymmetry_Pilot,2022.1.3,Win32,58.66134804,62c50e9c1127f2cd403a315f,0,20,20,38,1,fourtwo,,,,,,,,,,,,,,,,,,,,,,,,,,,,,,,,,,,,,,,,,,,,,,,,,,,,,,,,,,,,,,,,,,,,,,,,,,,,,,,,,,,,,,,,,,,,,,,,,,,,,,,,,,,,,,,,,,,,,,,,,,,,,,,,,,,,,,,,,,,,,,,,,,,,,,,,,,,,,
,,,,,,5f2664edcb7a443902254785,62c53a853b716069deedd1fa,2022-07-06_09h32.56.209,Colour_Asymmetry_Pilot,2022.1.3,Win32,58.66134804,62c50e9c1127f2cd403a315f,0,21,21,110,1,fourtwo,,,,,,,,,,,,,,,,,,,,,,,,,,,,,,,,,,,,,,,,,,,,,,,,,,,,,,,,,,,,,,,,,,,,,,,,,,,,,,,,,,,,,,,,,,,,,,,,,,,,,,,,,,,,,,,,,,,,,,,,,,,,,,,,,,,,,,,,,,,,,,,,,,,,,,,,,,,,,
,,,,,,5f2664edcb7a443902254785,62c53a853b716069deedd1fa,2022-07-06_09h32.56.209,Colour_Asymmetry_Pilot,2022.1.3,Win32,58.66134804,62c50e9c1127f2cd403a315f,0,22,22,10,1,twoone,,,,,,,,,,,,,,,,,,,,,,,,,,,,,,,,,,,,,,,,,,,,,,,,,,,,,,,,,,,,,,,,,,,,,,,,,,,,,,,,,,,,,,,,,,,,,,,,,,,,,,,,,,,,,,,,,,,,,,,,,,,,,,,,,,,,,,,,,,,,,,,,,,,,,,,,,,,,,
,,,,,,5f2664edcb7a443902254785,62c53a853b716069deedd1fa,2022-07-06_09h32.56.209,Colour_Asymmetry_Pilot,2022.1.3,Win32,58.66134804,62c50e9c1127f2cd403a315f,0,23,23,126,1,fourtwo,,,,,,,,,,,,,,,,,,,,,,,,,,,,,,,,,,,,,,,,,,,,,,,,,,,,,,,,,,,,,,,,,,,,,,,,,,,,,,,,,,,,,,,,,,,,,,,,,,,,,,,,,,,,,,,,,,,,,,,,,,,,,,,,,,,,,,,,,,,,,,,,,,,,,,,,,,,,,
,,,,,,5f2664edcb7a443902254785,62c53a853b716069deedd1fa,2022-07-06_09h32.56.209,Colour_Asymmetry_Pilot,2022.1.3,Win32,58.66134804,62c50e9c1127f2cd403a315f,0,24,24,79,1,fourthree,,,,,,,,,,,,,,,,,,,,,,,,,,,,,,,,,,,,,,,,,,,,,,,,,,,,,,,,,,,,,,,,,,,,,,,,,,,,,,,,,,,,,,,,,,,,,,,,,,,,,,,,,,,,,,,,,,,,,,,,,,,,,,,,,,,,,,,,,,,,,,,,,,,,,,,,,,,,,
,,,,,,5f2664edcb7a443902254785,62c53a853b716069deedd1fa,2022-07-06_09h32.56.209,Colour_Asymmetry_Pilot,2022.1.3,Win32,58.66134804,62c50e9c1127f2cd403a315f,0,25,25,52,1,threeone,,,,,,,,,,,,,,,,,,,,,,,,,,,,,,,,,,,,,,,,,,,,,,,,,,,,,,,,,,,,,,,,,,,,,,,,,,,,,,,,,,,,,,,,,,,,,,,,,,,,,,,,,,,,,,,,,,,,,,,,,,,,,,,,,,,,,,,,,,,,,,,,,,,,,,,,,,,,,
,,,,,,5f2664edcb7a443902254785,62c53a853b716069deedd1fa,2022-07-06_09h32.56.209,Colour_Asymmetry_Pilot,2022.1.3,Win32,58.66134804,62c50e9c1127f2cd403a315f,0,26,26,161,1,onethree,,,,,,,,,,,,,,,,,,,,,,,,,,,,,,,,,,,,,,,,,,,,,,,,,,,,,,,,,,,,,,,,,,,,,,,,,,,,,,,,,,,,,,,,,,,,,,,,,,,,,,,,,,,,,,,,,,,,,,,,,,,,,,,,,,,,,,,,,,,,,,,,,,,,,,,,,,,,,
,,,,,,5f2664edcb7a443902254785,62c53a853b716069deedd1fa,2022-07-06_09h32.56.209,Colour_Asymmetry_Pilot,2022.1.3,Win32,58.66134804,62c50e9c1127f2cd403a315f,0,27,27,17,1,onethree,,,,,,,,,,,,,,,,,,,,,,,,,,,,,,,,,,,,,,,,,,,,,,,,,,,,,,,,,,,,,,,,,,,,,,,,,,,,,,,,,,,,,,,,,,,,,,,,,,,,,,,,,,,,,,,,,,,,,,,,,,,,,,,,,,,,,,,,,,,,,,,,,,,,,,,,,,,,,
,,,,,,5f2664edcb7a443902254785,62c53a853b716069deedd1fa,2022-07-06_09h32.56.209,Colour_Asymmetry_Pilot,2022.1.3,Win32,58.66134804,62c50e9c1127f2cd403a315f,0,28,28,134,1,fourtwo,,,,,,,,,,,,,,,,,,,,,,,,,,,,,,,,,,,,,,,,,,,,,,,,,,,,,,,,,,,,,,,,,,,,,,,,,,,,,,,,,,,,,,,,,,,,,,,,,,,,,,,,,,,,,,,,,,,,,,,,,,,,,,,,,,,,,,,,,,,,,,,,,,,,,,,,,,,,,
,,,,,,5f2664edcb7a443902254785,62c53a853b716069deedd1fa,2022-07-06_09h32.56.209,Colour_Asymmetry_Pilot,2022.1.3,Win32,58.66134804,62c50e9c1127f2cd403a315f,0,29,29,108,1,threeone,,,,,,,,,,,,,,,,,,,,,,,,,,,,,,,,,,,,,,,,,,,,,,,,,,,,,,,,,,,,,,,,,,,,,,,,,,,,,,,,,,,,,,,,,,,,,,,,,,,,,,,,,,,,,,,,,,,,,,,,,,,,,,,,,,,,,,,,,,,,,,,,,,,,,,,,,,,,,
,,,,,,5f2664edcb7a443902254785,62c53a853b716069deedd1fa,2022-07-06_09h32.56.209,Colour_Asymmetry_Pilot,2022.1.3,Win32,58.66134804,62c50e9c1127f2cd403a315f,0,30,30,36,1,threeone,,,,,,,,,,,,,,,,,,,,,,,,,,,,,,,,,,,,,,,,,,,,,,,,,,,,,,,,,,,,,,,,,,,,,,,,,,,,,,,,,,,,,,,,,,,,,,,,,,,,,,,,,,,,,,,,,,,,,,,,,,,,,,,,,,,,,,,,,,,,,,,,,,,,,,,,,,,,,
,,,,,,5f2664edcb7a443902254785,62c53a853b716069deedd1fa,2022-07-06_09h32.56.209,Colour_Asymmetry_Pilot,2022.1.3,Win32,58.66134804,62c50e9c1127f2cd403a315f,0,31,31,99,1,twofour,,,,,,,,,,,,,,,,,,,,,,,,,,,,,,,,,,,,,,,,,,,,,,,,,,,,,,,,,,,,,,,,,,,,,,,,,,,,,,,,,,,,,,,,,,,,,,,,,,,,,,,,,,,,,,,,,,,,,,,,,,,,,,,,,,,,,,,,,,,,,,,,,,,,,,,,,,,,,
,,,,,,5f2664edcb7a443902254785,62c53a853b716069deedd1fa,2022-07-06_09h32.56.209,Colour_Asymmetry_Pilot,2022.1.3,Win32,58.66134804,62c50e9c1127f2cd403a315f,0,32,32,153,1,onethree,,,,,,,,,,,,,,,,,,,,,,,,,,,,,,,,,,,,,,,,,,,,,,,,,,,,,,,,,,,,,,,,,,,,,,,,,,,,,,,,,,,,,,,,,,,,,,,,,,,,,,,,,,,,,,,,,,,,,,,,,,,,,,,,,,,,,,,,,,,,,,,,,,,,,,,,,,,,,
,,,,,,5f2664edcb7a443902254785,62c53a853b716069deedd1fa,2022-07-06_09h32.56.209,Colour_Asymmetry_Pilot,2022.1.3,Win32,58.66134804,62c50e9c1127f2cd403a315f,0,33,33,107,1,twofour,,,,,,,,,,,,,,,,,,,,,,,,,,,,,,,,,,,,,,,,,,,,,,,,,,,,,,,,,,,,,,,,,,,,,,,,,,,,,,,,,,,,,,,,,,,,,,,,,,,,,,,,,,,,,,,,,,,,,,,,,,,,,,,,,,,,,,,,,,,,,,,,,,,,,,,,,,,,,
,,,,,,5f2664edcb7a443902254785,62c53a853b716069deedd1fa,2022-07-06_09h32.56.209,Colour_Asymmetry_Pilot,2022.1.3,Win32,58.66134804,62c50e9c1127f2cd403a315f,0,34,34,2,1,twoone,,,,,,,,,,,,,,,,,,,,,,,,,,,,,,,,,,,,,,,,,,,,,,,,,,,,,,,,,,,,,,,,,,,,,,,,,,,,,,,,,,,,,,,,,,,,,,,,,,,,,,,,,,,,,,,,,,,,,,,,,,,,,,,,,,,,,,,,,,,,,,,,,,,,,,,,,,,,,
,,,,,,5f2664edcb7a443902254785,62c53a853b716069deedd1fa,2022-07-06_09h32.56.209,Colour_Asymmetry_Pilot,2022.1.3,Win32,58.66134804,62c50e9c1127f2cd403a315f,0,35,35,90,1,twoone,,,,,,,,,,,,,,,,,,,,,,,,,,,,,,,,,,,,,,,,,,,,,,,,,,,,,,,,,,,,,,,,,,,,,,,,,,,,,,,,,,,,,,,,,,,,,,,,,,,,,,,,,,,,,,,,,,,,,,,,,,,,,,,,,,,,,,,,,,,,,,,,,,,,,,,,,,,,,
,,,,,,5f2664edcb7a443902254785,62c53a853b716069deedd1fa,2022-07-06_09h32.56.209,Colour_Asymmetry_Pilot,2022.1.3,Win32,58.66134804,62c50e9c1127f2cd403a315f,0,36,36,41,1,onethree,,,,,,,,,,,,,,,,,,,,,,,,,,,,,,,,,,,,,,,,,,,,,,,,,,,,,,,,,,,,,,,,,,,,,,,,,,,,,,,,,,,,,,,,,,,,,,,,,,,,,,,,,,,,,,,,,,,,,,,,,,,,,,,,,,,,,,,,,,,,,,,,,,,,,,,,,,,,,
,,,,,,5f2664edcb7a443902254785,62c53a853b716069deedd1fa,2022-07-06_09h32.56.209,Colour_Asymmetry_Pilot,2022.1.3,Win32,58.66134804,62c50e9c1127f2cd403a315f,0,37,37,129,1,onethree,,,,,,,,,,,,,,,,,,,,,,,,,,,,,,,,,,,,,,,,,,,,,,,,,,,,,,,,,,,,,,,,,,,,,,,,,,,,,,,,,,,,,,,,,,,,,,,,,,,,,,,,,,,,,,,,,,,,,,,,,,,,,,,,,,,,,,,,,,,,,,,,,,,,,,,,,,,,,
,,,,,,5f2664edcb7a443902254785,62c53a853b716069deedd1fa,2022-07-06_09h32.56.209,Colour_Asymmetry_Pilot,2022.1.3,Win32,58.66134804,62c50e9c1127f2cd403a315f,0,38,38,66,1,twoone,,,,,,,,,,,,,,,,,,,,,,,,,,,,,,,,,,,,,,,,,,,,,,,,,,,,,,,,,,,,,,,,,,,,,,,,,,,,,,,,,,,,,,,,,,,,,,,,,,,,,,,,,,,,,,,,,,,,,,,,,,,,,,,,,,,,,,,,,,,,,,,,,,,,,,,,,,,,,
,,,,,,5f2664edcb7a443902254785,62c53a853b716069deedd1fa,2022-07-06_09h32.56.209,Colour_Asymmetry_Pilot,2022.1.3,Win32,58.66134804,62c50e9c1127f2cd403a315f,0,39,39,148,1,threeone,,,,,,,,,,,,,,,,,,,,,,,,,,,,,,,,,,,,,,,,,,,,,,,,,,,,,,,,,,,,,,,,,,,,,,,,,,,,,,,,,,,,,,,,,,,,,,,,,,,,,,,,,,,,,,,,,,,,,,,,,,,,,,,,,,,,,,,,,,,,,,,,,,,,,,,,,,,,,
,,,,,,5f2664edcb7a443902254785,62c53a853b716069deedd1fa,2022-07-06_09h32.56.209,Colour_Asymmetry_Pilot,2022.1.3,Win32,58.66134804,62c50e9c1127f2cd403a315f,0,40,40,19,1,twofour,,,,,,,,,,,,,,,,,,,,,,,,,,,,,,,,,,,,,,,,,,,,,,,,,,,,,,,,,,,,,,,,,,,,,,,,,,,,,,,,,,,,,,,,,,,,,,,,,,,,,,,,,,,,,,,,,,,,,,,,,,,,,,,,,,,,,,,,,,,,,,,,,,,,,,,,,,,,,
,,,,,,5f2664edcb7a443902254785,62c53a853b716069deedd1fa,2022-07-06_09h32.56.209,Colour_Asymmetry_Pilot,2022.1.3,Win32,58.66134804,62c50e9c1127f2cd403a315f,0,41,41,97,1,onethree,,,,,,,,,,,,,,,,,,,,,,,,,,,,,,,,,,,,,,,,,,,,,,,,,,,,,,,,,,,,,,,,,,,,,,,,,,,,,,,,,,,,,,,,,,,,,,,,,,,,,,,,,,,,,,,,,,,,,,,,,,,,,,,,,,,,,,,,,,,,,,,,,,,,,,,,,,,,,
,,,,,,5f2664edcb7a443902254785,62c53a853b716069deedd1fa,2022-07-06_09h32.56.209,Colour_Asymmetry_Pilot,2022.1.3,Win32,58.66134804,62c50e9c1127f2cd403a315f,0,42,42,101,1,threefour,,,,,,,,,,,,,,,,,,,,,,,,,,,,,,,,,,,,,,,,,,,,,,,,,,,,,,,,,,,,,,,,,,,,,,,,,,,,,,,,,,,,,,,,,,,,,,,,,,,,,,,,,,,,,,,,,,,,,,,,,,,,,,,,,,,,,,,,,,,,,,,,,,,,,,,,,,,,,
,,,,,,5f2664edcb7a443902254785,62c53a853b716069deedd1fa,2022-07-06_09h32.56.209,Colour_Asymmetry_Pilot,2022.1.3,Win32,58.66134804,62c50e9c1127f2cd403a315f,0,43,43,35,1,twofour,,,,,,,,,,,,,,,,,,,,,,,,,,,,,,,,,,,,,,,,,,,,,,,,,,,,,,,,,,,,,,,,,,,,,,,,,,,,,,,,,,,,,,,,,,,,,,,,,,,,,,,,,,,,,,,,,,,,,,,,,,,,,,,,,,,,,,,,,,,,,,,,,,,,,,,,,,,,,
,,,,,,5f2664edcb7a443902254785,62c53a853b716069deedd1fa,2022-07-06_09h32.56.209,Colour_Asymmetry_Pilot,2022.1.3,Win32,58.66134804,62c50e9c1127f2cd403a315f,0,44,44,46,1,fourtwo,,,,,,,,,,,,,,,,,,,,,,,,,,,,,,,,,,,,,,,,,,,,,,,,,,,,,,,,,,,,,,,,,,,,,,,,,,,,,,,,,,,,,,,,,,,,,,,,,,,,,,,,,,,,,,,,,,,,,,,,,,,,,,,,,,,,,,,,,,,,,,,,,,,,,,,,,,,,,
,,,,,,5f2664edcb7a443902254785,62c53a853b716069deedd1fa,2022-07-06_09h32.56.209,Colour_Asymmetry_Pilot,2022.1.3,Win32,58.66134804,62c50e9c1127f2cd403a315f,0,45,45,147,1,twofour,,,,,,,,,,,,,,,,,,,,,,,,,,,,,,,,,,,,,,,,,,,,,,,,,,,,,,,,,,,,,,,,,,,,,,,,,,,,,,,,,,,,,,,,,,,,,,,,,,,,,,,,,,,,,,,,,,,,,,,,,,,,,,,,,,,,,,,,,,,,,,,,,,,,,,,,,,,,,
,,,,,,5f2664edcb7a443902254785,62c53a853b716069deedd1fa,2022-07-06_09h32.56.209,Colour_Asymmetry_Pilot,2022.1.3,Win32,58.66134804,62c50e9c1127f2cd403a315f,0,46,46,96,1,onetwo,,,,,,,,,,,,,,,,,,,,,,,,,,,,,,,,,,,,,,,,,,,,,,,,,,,,,,,,,,,,,,,,,,,,,,,,,,,,,,,,,,,,,,,,,,,,,,,,,,,,,,,,,,,,,,,,,,,,,,,,,,,,,,,,,,,,,,,,,,,,,,,,,,,,,,,,,,,,,
,,,,,,5f2664edcb7a443902254785,62c53a853b716069deedd1fa,2022-07-06_09h32.56.209,Colour_Asymmetry_Pilot,2022.1.3,Win32,58.66134804,62c50e9c1127f2cd403a315f,0,47,47,34,1,twoone,,,,,,,,,,,,,,,,,,,,,,,,,,,,,,,,,,,,,,,,,,,,,,,,,,,,,,,,,,,,,,,,,,,,,,,,,,,,,,,,,,,,,,,,,,,,,,,,,,,,,,,,,,,,,,,,,,,,,,,,,,,,,,,,,,,,,,,,,,,,,,,,,,,,,,,,,,,,,
,,,,,,5f2664edcb7a443902254785,62c53a853b716069deedd1fa,2022-07-06_09h32.56.209,Colour_Asymmetry_Pilot,2022.1.3,Win32,58.66134804,62c50e9c1127f2cd403a315f,0,48,48,131,1,twofour,,,,,,,,,,,,,,,,,,,,,,,,,,,,,,,,,,,,,,,,,,,,,,,,,,,,,,,,,,,,,,,,,,,,,,,,,,,,,,,,,,,,,,,,,,,,,,,,,,,,,,,,,,,,,,,,,,,,,,,,,,,,,,,,,,,,,,,,,,,,,,,,,,,,,,,,,,,,,
,,,,,,5f2664edcb7a443902254785,62c53a853b716069deedd1fa,2022-07-06_09h32.56.209,Colour_Asymmetry_Pilot,2022.1.3,Win32,58.66134804,62c50e9c1127f2cd403a315f,0,49,49,103,1,fourthree,,,,,,,,,,,,,,,,,,,,,,,,,,,,,,,,,,,,,,,,,,,,,,,,,,,,,,,,,,,,,,,,,,,,,,,,,,,,,,,,,,,,,,,,,,,,,,,,,,,,,,,,,,,,,,,,,,,,,,,,,,,,,,,,,,,,,,,,,,,,,,,,,,,,,,,,,,,,,
,,,,,,5f2664edcb7a443902254785,62c53a853b716069deedd1fa,2022-07-06_09h32.56.209,Colour_Asymmetry_Pilot,2022.1.3,Win32,58.66134804,62c50e9c1127f2cd403a315f,0,50,50,82,1,twoone,,,,,,,,,,,,,,,,,,,,,,,,,,,,,,,,,,,,,,,,,,,,,,,,,,,,,,,,,,,,,,,,,,,,,,,,,,,,,,,,,,,,,,,,,,,,,,,,,,,,,,,,,,,,,,,,,,,,,,,,,,,,,,,,,,,,,,,,,,,,,,,,,,,,,,,,,,,,,
,,,,,,5f2664edcb7a443902254785,62c53a853b716069deedd1fa,2022-07-06_09h32.56.209,Colour_Asymmetry_Pilot,2022.1.3,Win32,58.66134804,62c50e9c1127f2cd403a315f,0,51,51,116,1,threeone,,,,,,,,,,,,,,,,,,,,,,,,,,,,,,,,,,,,,,,,,,,,,,,,,,,,,,,,,,,,,,,,,,,,,,,,,,,,,,,,,,,,,,,,,,,,,,,,,,,,,,,,,,,,,,,,,,,,,,,,,,,,,,,,,,,,,,,,,,,,,,,,,,,,,,,,,,,,,
,,,,,,5f2664edcb7a443902254785,62c53a853b716069deedd1fa,2022-07-06_09h32.56.209,Colour_Asymmetry_Pilot,2022.1.3,Win32,58.66134804,62c50e9c1127f2cd403a315f,0,52,52,51,1,twofour,,,,,,,,,,,,,,,,,,,,,,,,,,,,,,,,,,,,,,,,,,,,,,,,,,,,,,,,,,,,,,,,,,,,,,,,,,,,,,,,,,,,,,,,,,,,,,,,,,,,,,,,,,,,,,,,,,,,,,,,,,,,,,,,,,,,,,,,,,,,,,,,,,,,,,,,,,,,,
,,,,,,5f2664edcb7a443902254785,62c53a853b716069deedd1fa,2022-07-06_09h32.56.209,Colour_Asymmetry_Pilot,2022.1.3,Win32,58.66134804,62c50e9c1127f2cd403a315f,0,53,53,12,1,threeone,,,,,,,,,,,,,,,,,,,,,,,,,,,,,,,,,,,,,,,,,,,,,,,,,,,,,,,,,,,,,,,,,,,,,,,,,,,,,,,,,,,,,,,,,,,,,,,,,,,,,,,,,,,,,,,,,,,,,,,,,,,,,,,,,,,,,,,,,,,,,,,,,,,,,,,,,,,,,
,,,,,,5f2664edcb7a443902254785,62c53a853b716069deedd1fa,2022-07-06_09h32.56.209,Colour_Asymmetry_Pilot,2022.1.3,Win32,58.66134804,62c50e9c1127f2cd403a315f,0,54,54,109,1,threefour,,,,,,,,,,,,,,,,,,,,,,,,,,,,,,,,,,,,,,,,,,,,,,,,,,,,,,,,,,,,,,,,,,,,,,,,,,,,,,,,,,,,,,,,,,,,,,,,,,,,,,,,,,,,,,,,,,,,,,,,,,,,,,,,,,,,,,,,,,,,,,,,,,,,,,,,,,,,,
,,,,,,5f2664edcb7a443902254785,62c53a853b716069deedd1fa,2022-07-06_09h32.56.209,Colour_Asymmetry_Pilot,2022.1.3,Win32,58.66134804,62c50e9c1127f2cd403a315f,0,55,55,123,1,twofour,,,,,,,,,,,,,,,,,,,,,,,,,,,,,,,,,,,,,,,,,,,,,,,,,,,,,,,,,,,,,,,,,,,,,,,,,,,,,,,,,,,,,,,,,,,,,,,,,,,,,,,,,,,,,,,,,,,,,,,,,,,,,,,,,,,,,,,,,,,,,,,,,,,,,,,,,,,,,
,,,,,,5f2664edcb7a443902254785,62c53a853b716069deedd1fa,2022-07-06_09h32.56.209,Colour_Asymmetry_Pilot,2022.1.3,Win32,58.66134804,62c50e9c1127f2cd403a315f,0,56,56,31,1,fourthree,,,,,,,,,,,,,,,,,,,,,,,,,,,,,,,,,,,,,,,,,,,,,,,,,,,,,,,,,,,,,,,,,,,,,,,,,,,,,,,,,,,,,,,,,,,,,,,,,,,,,,,,,,,,,,,,,,,,,,,,,,,,,,,,,,,,,,,,,,,,,,,,,,,,,,,,,,,,,
,,,,,,5f2664edcb7a443902254785,62c53a853b716069deedd1fa,2022-07-06_09h32.56.209,Colour_Asymmetry_Pilot,2022.1.3,Win32,58.66134804,62c50e9c1127f2cd403a315f,0,57,57,4,1,threeone,,,,,,,,,,,,,,,,,,,,,,,,,,,,,,,,,,,,,,,,,,,,,,,,,,,,,,,,,,,,,,,,,,,,,,,,,,,,,,,,,,,,,,,,,,,,,,,,,,,,,,,,,,,,,,,,,,,,,,,,,,,,,,,,,,,,,,,,,,,,,,,,,,,,,,,,,,,,,
,,,,,,5f2664edcb7a443902254785,62c53a853b716069deedd1fa,2022-07-06_09h32.56.209,Colour_Asymmetry_Pilot,2022.1.3,Win32,58.66134804,62c50e9c1127f2cd403a315f,0,58,58,45,1,threefour,,,,,,,,,,,,,,,,,,,,,,,,,,,,,,,,,,,,,,,,,,,,,,,,,,,,,,,,,,,,,,,,,,,,,,,,,,,,,,,,,,,,,,,,,,,,,,,,,,,,,,,,,,,,,,,,,,,,,,,,,,,,,,,,,,,,,,,,,,,,,,,,,,,,,,,,,,,,,
,,,,,,5f2664edcb7a443902254785,62c53a853b716069deedd1fa,2022-07-06_09h32.56.209,Colour_Asymmetry_Pilot,2022.1.3,Win32,58.66134804,62c50e9c1127f2cd403a315f,0,59,59,111,1,fourthree,,,,,,,,,,,,,,,,,,,,,,,,,,,,,,,,,,,,,,,,,,,,,,,,,,,,,,,,,,,,,,,,,,,,,,,,,,,,,,,,,,,,,,,,,,,,,,,,,,,,,,,,,,,,,,,,,,,,,,,,,,,,,,,,,,,,,,,,,,,,,,,,,,,,,,,,,,,,,
,,,,,,5f2664edcb7a443902254785,62c53a853b716069deedd1fa,2022-07-06_09h32.56.209,Colour_Asymmetry_Pilot,2022.1.3,Win32,58.66134804,62c50e9c1127f2cd403a315f,0,60,60,117,1,threefour,,,,,,,,,,,,,,,,,,,,,,,,,,,,,,,,,,,,,,,,,,,,,,,,,,,,,,,,,,,,,,,,,,,,,,,,,,,,,,,,,,,,,,,,,,,,,,,,,,,,,,,,,,,,,,,,,,,,,,,,,,,,,,,,,,,,,,,,,,,,,,,,,,,,,,,,,,,,,
,,,,,,5f2664edcb7a443902254785,62c53a853b716069deedd1fa,2022-07-06_09h32.56.209,Colour_Asymmetry_Pilot,2022.1.3,Win32,58.66134804,62c50e9c1127f2cd403a315f,0,61,61,158,1,fourtwo,,,,,,,,,,,,,,,,,,,,,,,,,,,,,,,,,,,,,,,,,,,,,,,,,,,,,,,,,,,,,,,,,,,,,,,,,,,,,,,,,,,,,,,,,,,,,,,,,,,,,,,,,,,,,,,,,,,,,,,,,,,,,,,,,,,,,,,,,,,,,,,,,,,,,,,,,,,,,
,,,,,,5f2664edcb7a443902254785,62c53a853b716069deedd1fa,2022-07-06_09h32.56.209,Colour_Asymmetry_Pilot,2022.1.3,Win32,58.66134804,62c50e9c1127f2cd403a315f,0,62,62,1,1,onethree,,,,,,,,,,,,,,,,,,,,,,,,,,,,,,,,,,,,,,,,,,,,,,,,,,,,,,,,,,,,,,,,,,,,,,,,,,,,,,,,,,,,,,,,,,,,,,,,,,,,,,,,,,,,,,,,,,,,,,,,,,,,,,,,,,,,,,,,,,,,,,,,,,,,,,,,,,,,,
,,,,,,5f2664edcb7a443902254785,62c53a853b716069deedd1fa,2022-07-06_09h32.56.209,Colour_Asymmetry_Pilot,2022.1.3,Win32,58.66134804,62c50e9c1127f2cd403a315f,0,63,63,29,1,threefour,,,,,,,,,,,,,,,,,,,,,,,,,,,,,,,,,,,,,,,,,,,,,,,,,,,,,,,,,,,,,,,,,,,,,,,,,,,,,,,,,,,,,,,,,,,,,,,,,,,,,,,,,,,,,,,,,,,,,,,,,,,,,,,,,,,,,,,,,,,,,,,,,,,,,,,,,,,,,
,,,,,,5f2664edcb7a443902254785,62c53a853b716069deedd1fa,2022-07-06_09h32.56.209,Colour_Asymmetry_Pilot,2022.1.3,Win32,58.66134804,62c50e9c1127f2cd403a315f,0,64,64,30,1,fourtwo,,,,,,,,,,,,,,,,,,,,,,,,,,,,,,,,,,,,,,,,,,,,,,,,,,,,,,,,,,,,,,,,,,,,,,,,,,,,,,,,,,,,,,,,,,,,,,,,,,,,,,,,,,,,,,,,,,,,,,,,,,,,,,,,,,,,,,,,,,,,,,,,,,,,,,,,,,,,,
,,,,,,5f2664edcb7a443902254785,62c53a853b716069deedd1fa,2022-07-06_09h32.56.209,Colour_Asymmetry_Pilot,2022.1.3,Win32,58.66134804,62c50e9c1127f2cd403a315f,0,65,65,53,1,threefour,,,,,,,,,,,,,,,,,,,,,,,,,,,,,,,,,,,,,,,,,,,,,,,,,,,,,,,,,,,,,,,,,,,,,,,,,,,,,,,,,,,,,,,,,,,,,,,,,,,,,,,,,,,,,,,,,,,,,,,,,,,,,,,,,,,,,,,,,,,,,,,,,,,,,,,,,,,,,
,,,,,,5f2664edcb7a443902254785,62c53a853b716069deedd1fa,2022-07-06_09h32.56.209,Colour_Asymmetry_Pilot,2022.1.3,Win32,58.66134804,62c50e9c1127f2cd403a315f,0,66,66,77,1,threefour,,,,,,,,,,,,,,,,,,,,,,,,,,,,,,,,,,,,,,,,,,,,,,,,,,,,,,,,,,,,,,,,,,,,,,,,,,,,,,,,,,,,,,,,,,,,,,,,,,,,,,,,,,,,,,,,,,,,,,,,,,,,,,,,,,,,,,,,,,,,,,,,,,,,,,,,,,,,,
,,,,,,5f2664edcb7a443902254785,62c53a853b716069deedd1fa,2022-07-06_09h32.56.209,Colour_Asymmetry_Pilot,2022.1.3,Win32,58.66134804,62c50e9c1127f2cd403a315f,0,67,67,89,1,onethree,,,,,,,,,,,,,,,,,,,,,,,,,,,,,,,,,,,,,,,,,,,,,,,,,,,,,,,,,,,,,,,,,,,,,,,,,,,,,,,,,,,,,,,,,,,,,,,,,,,,,,,,,,,,,,,,,,,,,,,,,,,,,,,,,,,,,,,,,,,,,,,,,,,,,,,,,,,,,
,,,,,,5f2664edcb7a443902254785,62c53a853b716069deedd1fa,2022-07-06_09h32.56.209,Colour_Asymmetry_Pilot,2022.1.3,Win32,58.66134804,62c50e9c1127f2cd403a315f,0,68,68,27,1,twofour,,,,,,,,,,,,,,,,,,,,,,,,,,,,,,,,,,,,,,,,,,,,,,,,,,,,,,,,,,,,,,,,,,,,,,,,,,,,,,,,,,,,,,,,,,,,,,,,,,,,,,,,,,,,,,,,,,,,,,,,,,,,,,,,,,,,,,,,,,,,,,,,,,,,,,,,,,,,,
,,,,,,5f2664edcb7a443902254785,62c53a853b716069deedd1fa,2022-07-06_09h32.56.209,Colour_Asymmetry_Pilot,2022.1.3,Win32,58.66134804,62c50e9c1127f2cd403a315f,0,69,69,9,1,onethree,,,,,,,,,,,,,,,,,,,,,,,,,,,,,,,,,,,,,,,,,,,,,,,,,,,,,,,,,,,,,,,,,,,,,,,,,,,,,,,,,,,,,,,,,,,,,,,,,,,,,,,,,,,,,,,,,,,,,,,,,,,,,,,,,,,,,,,,,,,,,,,,,,,,,,,,,,,,,
,,,,,,5f2664edcb7a443902254785,62c53a853b716069deedd1fa,2022-07-06_09h32.56.209,Colour_Asymmetry_Pilot,2022.1.3,Win32,58.66134804,62c50e9c1127f2cd403a315f,0,70,70,85,1,threefour,,,,,,,,,,,,,,,,,,,,,,,,,,,,,,,,,,,,,,,,,,,,,,,,,,,,,,,,,,,,,,,,,,,,,,,,,,,,,,,,,,,,,,,,,,,,,,,,,,,,,,,,,,,,,,,,,,,,,,,,,,,,,,,,,,,,,,,,,,,,,,,,,,,,,,,,,,,,,
,,,,,,5f2664edcb7a443902254785,62c53a853b716069deedd1fa,2022-07-06_09h32.56.209,Colour_Asymmetry_Pilot,2022.1.3,Win32,58.66134804,62c50e9c1127f2cd403a315f,0,71,71,23,1,fourthree,,,,,,,,,,,,,,,,,,,,,,,,,,,,,,,,,,,,,,,,,,,,,,,,,,,,,,,,,,,,,,,,,,,,,,,,,,,,,,,,,,,,,,,,,,,,,,,,,,,,,,,,,,,,,,,,,,,,,,,,,,,,,,,,,,,,,,,,,,,,,,,,,,,,,,,,,,,,,
,,,,,,5f2664edcb7a443902254785,62c53a853b716069deedd1fa,2022-07-06_09h32.56.209,Colour_Asymmetry_Pilot,2022.1.3,Win32,58.66134804,62c50e9c1127f2cd403a315f,0,72,72,151,1,fourthree,,,,,,,,,,,,,,,,,,,,,,,,,,,,,,,,,,,,,,,,,,,,,,,,,,,,,,,,,,,,,,,,,,,,,,,,,,,,,,,,,,,,,,,,,,,,,,,,,,,,,,,,,,,,,,,,,,,,,,,,,,,,,,,,,,,,,,,,,,,,,,,,,,,,,,,,,,,,,
,,,,,,5f2664edcb7a443902254785,62c53a853b716069deedd1fa,2022-07-06_09h32.56.209,Colour_Asymmetry_Pilot,2022.1.3,Win32,58.66134804,62c50e9c1127f2cd403a315f,0,73,73,71,1,fourthree,,,,,,,,,,,,,,,,,,,,,,,,,,,,,,,,,,,,,,,,,,,,,,,,,,,,,,,,,,,,,,,,,,,,,,,,,,,,,,,,,,,,,,,,,,,,,,,,,,,,,,,,,,,,,,,,,,,,,,,,,,,,,,,,,,,,,,,,,,,,,,,,,,,,,,,,,,,,,
,,,,,,5f2664edcb7a443902254785,62c53a853b716069deedd1fa,2022-07-06_09h32.56.209,Colour_Asymmetry_Pilot,2022.1.3,Win32,58.66134804,62c50e9c1127f2cd403a315f,0,74,74,6,1,fourtwo,,,,,,,,,,,,,,,,,,,,,,,,,,,,,,,,,,,,,,,,,,,,,,,,,,,,,,,,,,,,,,,,,,,,,,,,,,,,,,,,,,,,,,,,,,,,,,,,,,,,,,,,,,,,,,,,,,,,,,,,,,,,,,,,,,,,,,,,,,,,,,,,,,,,,,,,,,,,,
,,,,,,5f2664edcb7a443902254785,62c53a853b716069deedd1fa,2022-07-06_09h32.56.209,Colour_Asymmetry_Pilot,2022.1.3,Win32,58.66134804,62c50e9c1127f2cd403a315f,0,75,75,44,1,threeone,,,,,,,,,,,,,,,,,,,,,,,,,,,,,,,,,,,,,,,,,,,,,,,,,,,,,,,,,,,,,,,,,,,,,,,,,,,,,,,,,,,,,,,,,,,,,,,,,,,,,,,,,,,,,,,,,,,,,,,,,,,,,,,,,,,,,,,,,,,,,,,,,,,,,,,,,,,,,
,,,,,,5f2664edcb7a443902254785,62c53a853b716069deedd1fa,2022-07-06_09h32.56.209,Colour_Asymmetry_Pilot,2022.1.3,Win32,58.66134804,62c50e9c1127f2cd403a315f,0,76,76,141,1,threefour,,,,,,,,,,,,,,,,,,,,,,,,,,,,,,,,,,,,,,,,,,,,,,,,,,,,,,,,,,,,,,,,,,,,,,,,,,,,,,,,,,,,,,,,,,,,,,,,,,,,,,,,,,,,,,,,,,,,,,,,,,,,,,,,,,,,,,,,,,,,,,,,,,,,,,,,,,,,,
,,,,,,5f2664edcb7a443902254785,62c53a853b716069deedd1fa,2022-07-06_09h32.56.209,Colour_Asymmetry_Pilot,2022.1.3,Win32,58.66134804,62c50e9c1127f2cd403a315f,0,77,77,113,1,onethree,,,,,,,,,,,,,,,,,,,,,,,,,,,,,,,,,,,,,,,,,,,,,,,,,,,,,,,,,,,,,,,,,,,,,,,,,,,,,,,,,,,,,,,,,,,,,,,,,,,,,,,,,,,,,,,,,,,,,,,,,,,,,,,,,,,,,,,,,,,,,,,,,,,,,,,,,,,,,
,,,,,,5f2664edcb7a443902254785,62c53a853b716069deedd1fa,2022-07-06_09h32.56.209,Colour_Asymmetry_Pilot,2022.1.3,Win32,58.66134804,62c50e9c1127f2cd403a315f,0,78,78,92,1,threeone,,,,,,,,,,,,,,,,,,,,,,,,,,,,,,,,,,,,,,,,,,,,,,,,,,,,,,,,,,,,,,,,,,,,,,,,,,,,,,,,,,,,,,,,,,,,,,,,,,,,,,,,,,,,,,,,,,,,,,,,,,,,,,,,,,,,,,,,,,,,,,,,,,,,,,,,,,,,,
,,,,,,5f2664edcb7a443902254785,62c53a853b716069deedd1fa,2022-07-06_09h32.56.209,Colour_Asymmetry_Pilot,2022.1.3,Win32,58.66134804,62c50e9c1127f2cd403a315f,0,79,79,64,1,onetwo,,,,,,,,,,,,,,,,,,,,,,,,,,,,,,,,,,,,,,,,,,,,,,,,,,,,,,,,,,,,,,,,,,,,,,,,,,,,,,,,,,,,,,,,,,,,,,,,,,,,,,,,,,,,,,,,,,,,,,,,,,,,,,,,,,,,,,,,,,,,,,,,,,,,,,,,,,,,,
,,,,,,5f2664edcb7a443902254785,62c53a853b716069deedd1fa,2022-07-06_09h32.56.209,Colour_Asymmetry_Pilot,2022.1.3,Win32,58.66134804,62c50e9c1127f2cd403a315f,0,80,80,98,1,twoone,,,,,,,,,,,,,,,,,,,,,,,,,,,,,,,,,,,,,,,,,,,,,,,,,,,,,,,,,,,,,,,,,,,,,,,,,,,,,,,,,,,,,,,,,,,,,,,,,,,,,,,,,,,,,,,,,,,,,,,,,,,,,,,,,,,,,,,,,,,,,,,,,,,,,,,,,,,,,
,,,,,,5f2664edcb7a443902254785,62c53a853b716069deedd1fa,2022-07-06_09h32.56.209,Colour_Asymmetry_Pilot,2022.1.3,Win32,58.66134804,62c50e9c1127f2cd403a315f,0,81,81,132,1,threeone,,,,,,,,,,,,,,,,,,,,,,,,,,,,,,,,,,,,,,,,,,,,,,,,,,,,,,,,,,,,,,,,,,,,,,,,,,,,,,,,,,,,,,,,,,,,,,,,,,,,,,,,,,,,,,,,,,,,,,,,,,,,,,,,,,,,,,,,,,,,,,,,,,,,,,,,,,,,,
,,,,,,5f2664edcb7a443902254785,62c53a853b716069deedd1fa,2022-07-06_09h32.56.209,Colour_Asymmetry_Pilot,2022.1.3,Win32,58.66134804,62c50e9c1127f2cd403a315f,0,82,82,3,1,twofour,,,,,,,,,,,,,,,,,,,,,,,,,,,,,,,,,,,,,,,,,,,,,,,,,,,,,,,,,,,,,,,,,,,,,,,,,,,,,,,,,,,,,,,,,,,,,,,,,,,,,,,,,,,,,,,,,,,,,,,,,,,,,,,,,,,,,,,,,,,,,,,,,,,,,,,,,,,,,
,,,,,,5f2664edcb7a443902254785,62c53a853b716069deedd1fa,2022-07-06_09h32.56.209,Colour_Asymmetry_Pilot,2022.1.3,Win32,58.66134804,62c50e9c1127f2cd403a315f,0,83,83,142,1,fourtwo,,,,,,,,,,,,,,,,,,,,,,,,,,,,,,,,,,,,,,,,,,,,,,,,,,,,,,,,,,,,,,,,,,,,,,,,,,,,,,,,,,,,,,,,,,,,,,,,,,,,,,,,,,,,,,,,,,,,,,,,,,,,,,,,,,,,,,,,,,,,,,,,,,,,,,,,,,,,,
,,,,,,5f2664edcb7a443902254785,62c53a853b716069deedd1fa,2022-07-06_09h32.56.209,Colour_Asymmetry_Pilot,2022.1.3,Win32,58.66134804,62c50e9c1127f2cd403a315f,0,84,84,56,1,onetwo,,,,,,,,,,,,,,,,,,,,,,,,,,,,,,,,,,,,,,,,,,,,,,,,,,,,,,,,,,,,,,,,,,,,,,,,,,,,,,,,,,,,,,,,,,,,,,,,,,,,,,,,,,,,,,,,,,,,,,,,,,,,,,,,,,,,,,,,,,,,,,,,,,,,,,,,,,,,,
,,,,,,5f2664edcb7a443902254785,62c53a853b716069deedd1fa,2022-07-06_09h32.56.209,Colour_Asymmetry_Pilot,2022.1.3,Win32,58.66134804,62c50e9c1127f2cd403a315f,0,85,85,154,1,twoone,,,,,,,,,,,,,,,,,,,,,,,,,,,,,,,,,,,,,,,,,,,,,,,,,,,,,,,,,,,,,,,,,,,,,,,,,,,,,,,,,,,,,,,,,,,,,,,,,,,,,,,,,,,,,,,,,,,,,,,,,,,,,,,,,,,,,,,,,,,,,,,,,,,,,,,,,,,,,
,,,,,,5f2664edcb7a443902254785,62c53a853b716069deedd1fa,2022-07-06_09h32.56.209,Colour_Asymmetry_Pilot,2022.1.3,Win32,58.66134804,62c50e9c1127f2cd403a315f,0,86,86,28,1,threeone,,,,,,,,,,,,,,,,,,,,,,,,,,,,,,,,,,,,,,,,,,,,,,,,,,,,,,,,,,,,,,,,,,,,,,,,,,,,,,,,,,,,,,,,,,,,,,,,,,,,,,,,,,,,,,,,,,,,,,,,,,,,,,,,,,,,,,,,,,,,,,,,,,,,,,,,,,,,,
,,,,,,5f2664edcb7a443902254785,62c53a853b716069deedd1fa,2022-07-06_09h32.56.209,Colour_Asymmetry_Pilot,2022.1.3,Win32,58.66134804,62c50e9c1127f2cd403a315f,0,87,87,7,1,fourthree,,,,,,,,,,,,,,,,,,,,,,,,,,,,,,,,,,,,,,,,,,,,,,,,,,,,,,,,,,,,,,,,,,,,,,,,,,,,,,,,,,,,,,,,,,,,,,,,,,,,,,,,,,,,,,,,,,,,,,,,,,,,,,,,,,,,,,,,,,,,,,,,,,,,,,,,,,,,,
,,,,,,5f2664edcb7a443902254785,62c53a853b716069deedd1fa,2022-07-06_09h32.56.209,Colour_Asymmetry_Pilot,2022.1.3,Win32,58.66134804,62c50e9c1127f2cd403a315f,0,88,88,136,1,onetwo,,,,,,,,,,,,,,,,,,,,,,,,,,,,,,,,,,,,,,,,,,,,,,,,,,,,,,,,,,,,,,,,,,,,,,,,,,,,,,,,,,,,,,,,,,,,,,,,,,,,,,,,,,,,,,,,,,,,,,,,,,,,,,,,,,,,,,,,,,,,,,,,,,,,,,,,,,,,,
,,,,,,5f2664edcb7a443902254785,62c53a853b716069deedd1fa,2022-07-06_09h32.56.209,Colour_Asymmetry_Pilot,2022.1.3,Win32,58.66134804,62c50e9c1127f2cd403a315f,0,89,89,14,1,fourtwo,,,,,,,,,,,,,,,,,,,,,,,,,,,,,,,,,,,,,,,,,,,,,,,,,,,,,,,,,,,,,,,,,,,,,,,,,,,,,,,,,,,,,,,,,,,,,,,,,,,,,,,,,,,,,,,,,,,,,,,,,,,,,,,,,,,,,,,,,,,,,,,,,,,,,,,,,,,,,
,,,,,,5f2664edcb7a443902254785,62c53a853b716069deedd1fa,2022-07-06_09h32.56.209,Colour_Asymmetry_Pilot,2022.1.3,Win32,58.66134804,62c50e9c1127f2cd403a315f,0,90,90,128,1,onetwo,,,,,,,,,,,,,,,,,,,,,,,,,,,,,,,,,,,,,,,,,,,,,,,,,,,,,,,,,,,,,,,,,,,,,,,,,,,,,,,,,,,,,,,,,,,,,,,,,,,,,,,,,,,,,,,,,,,,,,,,,,,,,,,,,,,,,,,,,,,,,,,,,,,,,,,,,,,,,
,,,,,,5f2664edcb7a443902254785,62c53a853b716069deedd1fa,2022-07-06_09h32.56.209,Colour_Asymmetry_Pilot,2022.1.3,Win32,58.66134804,62c50e9c1127f2cd403a315f,0,91,91,58,1,twoone,,,,,,,,,,,,,,,,,,,,,,,,,,,,,,,,,,,,,,,,,,,,,,,,,,,,,,,,,,,,,,,,,,,,,,,,,,,,,,,,,,,,,,,,,,,,,,,,,,,,,,,,,,,,,,,,,,,,,,,,,,,,,,,,,,,,,,,,,,,,,,,,,,,,,,,,,,,,,
,,,,,,5f2664edcb7a443902254785,62c53a853b716069deedd1fa,2022-07-06_09h32.56.209,Colour_Asymmetry_Pilot,2022.1.3,Win32,58.66134804,62c50e9c1127f2cd403a315f,0,92,92,119,1,fourthree,,,,,,,,,,,,,,,,,,,,,,,,,,,,,,,,,,,,,,,,,,,,,,,,,,,,,,,,,,,,,,,,,,,,,,,,,,,,,,,,,,,,,,,,,,,,,,,,,,,,,,,,,,,,,,,,,,,,,,,,,,,,,,,,,,,,,,,,,,,,,,,,,,,,,,,,,,,,,
,,,,,,5f2664edcb7a443902254785,62c53a853b716069deedd1fa,2022-07-06_09h32.56.209,Colour_Asymmetry_Pilot,2022.1.3,Win32,58.66134804,62c50e9c1127f2cd403a315f,0,93,93,139,1,twofour,,,,,,,,,,,,,,,,,,,,,,,,,,,,,,,,,,,,,,,,,,,,,,,,,,,,,,,,,,,,,,,,,,,,,,,,,,,,,,,,,,,,,,,,,,,,,,,,,,,,,,,,,,,,,,,,,,,,,,,,,,,,,,,,,,,,,,,,,,,,,,,,,,,,,,,,,,,,,
,,,,,,5f2664edcb7a443902254785,62c53a853b716069deedd1fa,2022-07-06_09h32.56.209,Colour_Asymmetry_Pilot,2022.1.3,Win32,58.66134804,62c50e9c1127f2cd403a315f,0,94,94,138,1,twoone,,,,,,,,,,,,,,,,,,,,,,,,,,,,,,,,,,,,,,,,,,,,,,,,,,,,,,,,,,,,,,,,,,,,,,,,,,,,,,,,,,,,,,,,,,,,,,,,,,,,,,,,,,,,,,,,,,,,,,,,,,,,,,,,,,,,,,,,,,,,,,,,,,,,,,,,,,,,,
,,,,,,5f2664edcb7a443902254785,62c53a853b716069deedd1fa,2022-07-06_09h32.56.209,Colour_Asymmetry_Pilot,2022.1.3,Win32,58.66134804,62c50e9c1127f2cd403a315f,0,95,95,73,1,onethree,,,,,,,,,,,,,,,,,,,,,,,,,,,,,,,,,,,,,,,,,,,,,,,,,,,,,,,,,,,,,,,,,,,,,,,,,,,,,,,,,,,,,,,,,,,,,,,,,,,,,,,,,,,,,,,,,,,,,,,,,,,,,,,,,,,,,,,,,,,,,,,,,,,,,,,,,,,,,
,,,,,,5f2664edcb7a443902254785,62c53a853b716069deedd1fa,2022-07-06_09h32.56.209,Colour_Asymmetry_Pilot,2022.1.3,Win32,58.66134804,62c50e9c1127f2cd403a315f,0,96,96,140,1,threeone,,,,,,,,,,,,,,,,,,,,,,,,,,,,,,,,,,,,,,,,,,,,,,,,,,,,,,,,,,,,,,,,,,,,,,,,,,,,,,,,,,,,,,,,,,,,,,,,,,,,,,,,,,,,,,,,,,,,,,,,,,,,,,,,,,,,,,,,,,,,,,,,,,,,,,,,,,,,,
,,,,,,5f2664edcb7a443902254785,62c53a853b716069deedd1fa,2022-07-06_09h32.56.209,Colour_Asymmetry_Pilot,2022.1.3,Win32,58.66134804,62c50e9c1127f2cd403a315f,0,97,97,87,1,fourthree,,,,,,,,,,,,,,,,,,,,,,,,,,,,,,,,,,,,,,,,,,,,,,,,,,,,,,,,,,,,,,,,,,,,,,,,,,,,,,,,,,,,,,,,,,,,,,,,,,,,,,,,,,,,,,,,,,,,,,,,,,,,,,,,,,,,,,,,,,,,,,,,,,,,,,,,,,,,,
,,,,,,5f2664edcb7a443902254785,62c53a853b716069deedd1fa,2022-07-06_09h32.56.209,Colour_Asymmetry_Pilot,2022.1.3,Win32,58.66134804,62c50e9c1127f2cd403a315f,0,98,98,94,1,fourtwo,,,,,,,,,,,,,,,,,,,,,,,,,,,,,,,,,,,,,,,,,,,,,,,,,,,,,,,,,,,,,,,,,,,,,,,,,,,,,,,,,,,,,,,,,,,,,,,,,,,,,,,,,,,,,,,,,,,,,,,,,,,,,,,,,,,,,,,,,,,,,,,,,,,,,,,,,,,,,
,,,,,,5f2664edcb7a443902254785,62c53a853b716069deedd1fa,2022-07-06_09h32.56.209,Colour_Asymmetry_Pilot,2022.1.3,Win32,58.66134804,62c50e9c1127f2cd403a315f,0,99,99,5,1,threefour,,,,,,,,,,,,,,,,,,,,,,,,,,,,,,,,,,,,,,,,,,,,,,,,,,,,,,,,,,,,,,,,,,,,,,,,,,,,,,,,,,,,,,,,,,,,,,,,,,,,,,,,,,,,,,,,,,,,,,,,,,,,,,,,,,,,,,,,,,,,,,,,,,,,,,,,,,,,,
,,,,,,5f2664edcb7a443902254785,62c53a853b716069deedd1fa,2022-07-06_09h32.56.209,Colour_Asymmetry_Pilot,2022.1.3,Win32,58.66134804,62c50e9c1127f2cd403a315f,0,100,100,93,1,threefour,,,,,,,,,,,,,,,,,,,,,,,,,,,,,,,,,,,,,,,,,,,,,,,,,,,,,,,,,,,,,,,,,,,,,,,,,,,,,,,,,,,,,,,,,,,,,,,,,,,,,,,,,,,,,,,,,,,,,,,,,,,,,,,,,,,,,,,,,,,,,,,,,,,,,,,,,,,,,
,,,,,,5f2664edcb7a443902254785,62c53a853b716069deedd1fa,2022-07-06_09h32.56.209,Colour_Asymmetry_Pilot,2022.1.3,Win32,58.66134804,62c50e9c1127f2cd403a315f,0,101,101,95,1,fourthree,,,,,,,,,,,,,,,,,,,,,,,,,,,,,,,,,,,,,,,,,,,,,,,,,,,,,,,,,,,,,,,,,,,,,,,,,,,,,,,,,,,,,,,,,,,,,,,,,,,,,,,,,,,,,,,,,,,,,,,,,,,,,,,,,,,,,,,,,,,,,,,,,,,,,,,,,,,,,
,,,,,,5f2664edcb7a443902254785,62c53a853b716069deedd1fa,2022-07-06_09h32.56.209,Colour_Asymmetry_Pilot,2022.1.3,Win32,58.66134804,62c50e9c1127f2cd403a315f,0,102,102,150,1,fourtwo,,,,,,,,,,,,,,,,,,,,,,,,,,,,,,,,,,,,,,,,,,,,,,,,,,,,,,,,,,,,,,,,,,,,,,,,,,,,,,,,,,,,,,,,,,,,,,,,,,,,,,,,,,,,,,,,,,,,,,,,,,,,,,,,,,,,,,,,,,,,,,,,,,,,,,,,,,,,,
,,,,,,5f2664edcb7a443902254785,62c53a853b716069deedd1fa,2022-07-06_09h32.56.209,Colour_Asymmetry_Pilot,2022.1.3,Win32,58.66134804,62c50e9c1127f2cd403a315f,0,103,103,83,1,twofour,,,,,,,,,,,,,,,,,,,,,,,,,,,,,,,,,,,,,,,,,,,,,,,,,,,,,,,,,,,,,,,,,,,,,,,,,,,,,,,,,,,,,,,,,,,,,,,,,,,,,,,,,,,,,,,,,,,,,,,,,,,,,,,,,,,,,,,,,,,,,,,,,,,,,,,,,,,,,
,,,,,,5f2664edcb7a443902254785,62c53a853b716069deedd1fa,2022-07-06_09h32.56.209,Colour_Asymmetry_Pilot,2022.1.3,Win32,58.66134804,62c50e9c1127f2cd403a315f,0,104,104,104,1,onetwo,,,,,,,,,,,,,,,,,,,,,,,,,,,,,,,,,,,,,,,,,,,,,,,,,,,,,,,,,,,,,,,,,,,,,,,,,,,,,,,,,,,,,,,,,,,,,,,,,,,,,,,,,,,,,,,,,,,,,,,,,,,,,,,,,,,,,,,,,,,,,,,,,,,,,,,,,,,,,
,,,,,,5f2664edcb7a443902254785,62c53a853b716069deedd1fa,2022-07-06_09h32.56.209,Colour_Asymmetry_Pilot,2022.1.3,Win32,58.66134804,62c50e9c1127f2cd403a315f,0,105,105,76,1,threeone,,,,,,,,,,,,,,,,,,,,,,,,,,,,,,,,,,,,,,,,,,,,,,,,,,,,,,,,,,,,,,,,,,,,,,,,,,,,,,,,,,,,,,,,,,,,,,,,,,,,,,,,,,,,,,,,,,,,,,,,,,,,,,,,,,,,,,,,,,,,,,,,,,,,,,,,,,,,,
,,,,,,5f2664edcb7a443902254785,62c53a853b716069deedd1fa,2022-07-06_09h32.56.209,Colour_Asymmetry_Pilot,2022.1.3,Win32,58.66134804,62c50e9c1127f2cd403a315f,0,106,106,115,1,twofour,,,,,,,,,,,,,,,,,,,,,,,,,,,,,,,,,,,,,,,,,,,,,,,,,,,,,,,,,,,,,,,,,,,,,,,,,,,,,,,,,,,,,,,,,,,,,,,,,,,,,,,,,,,,,,,,,,,,,,,,,,,,,,,,,,,,,,,,,,,,,,,,,,,,,,,,,,,,,
,,,,,,5f2664edcb7a443902254785,62c53a853b716069deedd1fa,2022-07-06_09h32.56.209,Colour_Asymmetry_Pilot,2022.1.3,Win32,58.66134804,62c50e9c1127f2cd403a315f,0,107,107,120,1,onetwo,,,,,,,,,,,,,,,,,,,,,,,,,,,,,,,,,,,,,,,,,,,,,,,,,,,,,,,,,,,,,,,,,,,,,,,,,,,,,,,,,,,,,,,,,,,,,,,,,,,,,,,,,,,,,,,,,,,,,,,,,,,,,,,,,,,,,,,,,,,,,,,,,,,,,,,,,,,,,
,,,,,,5f2664edcb7a443902254785,62c53a853b716069deedd1fa,2022-07-06_09h32.56.209,Colour_Asymmetry_Pilot,2022.1.3,Win32,58.66134804,62c50e9c1127f2cd403a315f,0,108,108,24,1,onetwo,,,,,,,,,,,,,,,,,,,,,,,,,,,,,,,,,,,,,,,,,,,,,,,,,,,,,,,,,,,,,,,,,,,,,,,,,,,,,,,,,,,,,,,,,,,,,,,,,,,,,,,,,,,,,,,,,,,,,,,,,,,,,,,,,,,,,,,,,,,,,,,,,,,,,,,,,,,,,
,,,,,,5f2664edcb7a443902254785,62c53a853b716069deedd1fa,2022-07-06_09h32.56.209,Colour_Asymmetry_Pilot,2022.1.3,Win32,58.66134804,62c50e9c1127f2cd403a315f,0,109,109,32,1,onetwo,,,,,,,,,,,,,,,,,,,,,,,,,,,,,,,,,,,,,,,,,,,,,,,,,,,,,,,,,,,,,,,,,,,,,,,,,,,,,,,,,,,,,,,,,,,,,,,,,,,,,,,,,,,,,,,,,,,,,,,,,,,,,,,,,,,,,,,,,,,,,,,,,,,,,,,,,,,,,
,,,,,,5f2664edcb7a443902254785,62c53a853b716069deedd1fa,2022-07-06_09h32.56.209,Colour_Asymmetry_Pilot,2022.1.3,Win32,58.66134804,62c50e9c1127f2cd403a315f,0,110,110,75,1,twofour,,,,,,,,,,,,,,,,,,,,,,,,,,,,,,,,,,,,,,,,,,,,,,,,,,,,,,,,,,,,,,,,,,,,,,,,,,,,,,,,,,,,,,,,,,,,,,,,,,,,,,,,,,,,,,,,,,,,,,,,,,,,,,,,,,,,,,,,,,,,,,,,,,,,,,,,,,,,,
,,,,,,5f2664edcb7a443902254785,62c53a853b716069deedd1fa,2022-07-06_09h32.56.209,Colour_Asymmetry_Pilot,2022.1.3,Win32,58.66134804,62c50e9c1127f2cd403a315f,0,111,111,118,1,fourtwo,,,,,,,,,,,,,,,,,,,,,,,,,,,,,,,,,,,,,,,,,,,,,,,,,,,,,,,,,,,,,,,,,,,,,,,,,,,,,,,,,,,,,,,,,,,,,,,,,,,,,,,,,,,,,,,,,,,,,,,,,,,,,,,,,,,,,,,,,,,,,,,,,,,,,,,,,,,,,
,,,,,,5f2664edcb7a443902254785,62c53a853b716069deedd1fa,2022-07-06_09h32.56.209,Colour_Asymmetry_Pilot,2022.1.3,Win32,58.66134804,62c50e9c1127f2cd403a315f,0,112,112,33,1,onethree,,,,,,,,,,,,,,,,,,,,,,,,,,,,,,,,,,,,,,,,,,,,,,,,,,,,,,,,,,,,,,,,,,,,,,,,,,,,,,,,,,,,,,,,,,,,,,,,,,,,,,,,,,,,,,,,,,,,,,,,,,,,,,,,,,,,,,,,,,,,,,,,,,,,,,,,,,,,,
,,,,,,5f2664edcb7a443902254785,62c53a853b716069deedd1fa,2022-07-06_09h32.56.209,Colour_Asymmetry_Pilot,2022.1.3,Win32,58.66134804,62c50e9c1127f2cd403a315f,0,113,113,48,1,onetwo,,,,,,,,,,,,,,,,,,,,,,,,,,,,,,,,,,,,,,,,,,,,,,,,,,,,,,,,,,,,,,,,,,,,,,,,,,,,,,,,,,,,,,,,,,,,,,,,,,,,,,,,,,,,,,,,,,,,,,,,,,,,,,,,,,,,,,,,,,,,,,,,,,,,,,,,,,,,,
,,,,,,5f2664edcb7a443902254785,62c53a853b716069deedd1fa,2022-07-06_09h32.56.209,Colour_Asymmetry_Pilot,2022.1.3,Win32,58.66134804,62c50e9c1127f2cd403a315f,0,114,114,68,1,threeone,,,,,,,,,,,,,,,,,,,,,,,,,,,,,,,,,,,,,,,,,,,,,,,,,,,,,,,,,,,,,,,,,,,,,,,,,,,,,,,,,,,,,,,,,,,,,,,,,,,,,,,,,,,,,,,,,,,,,,,,,,,,,,,,,,,,,,,,,,,,,,,,,,,,,,,,,,,,,
,,,,,,5f2664edcb7a443902254785,62c53a853b716069deedd1fa,2022-07-06_09h32.56.209,Colour_Asymmetry_Pilot,2022.1.3,Win32,58.66134804,62c50e9c1127f2cd403a315f,0,115,115,86,1,fourtwo,,,,,,,,,,,,,,,,,,,,,,,,,,,,,,,,,,,,,,,,,,,,,,,,,,,,,,,,,,,,,,,,,,,,,,,,,,,,,,,,,,,,,,,,,,,,,,,,,,,,,,,,,,,,,,,,,,,,,,,,,,,,,,,,,,,,,,,,,,,,,,,,,,,,,,,,,,,,,
,,,,,,5f2664edcb7a443902254785,62c53a853b716069deedd1fa,2022-07-06_09h32.56.209,Colour_Asymmetry_Pilot,2022.1.3,Win32,58.66134804,62c50e9c1127f2cd403a315f,0,116,116,21,1,threefour,,,,,,,,,,,,,,,,,,,,,,,,,,,,,,,,,,,,,,,,,,,,,,,,,,,,,,,,,,,,,,,,,,,,,,,,,,,,,,,,,,,,,,,,,,,,,,,,,,,,,,,,,,,,,,,,,,,,,,,,,,,,,,,,,,,,,,,,,,,,,,,,,,,,,,,,,,,,,
,,,,,,5f2664edcb7a443902254785,62c53a853b716069deedd1fa,2022-07-06_09h32.56.209,Colour_Asymmetry_Pilot,2022.1.3,Win32,58.66134804,62c50e9c1127f2cd403a315f,0,117,117,39,1,fourthree,,,,,,,,,,,,,,,,,,,,,,,,,,,,,,,,,,,,,,,,,,,,,,,,,,,,,,,,,,,,,,,,,,,,,,,,,,,,,,,,,,,,,,,,,,,,,,,,,,,,,,,,,,,,,,,,,,,,,,,,,,,,,,,,,,,,,,,,,,,,,,,,,,,,,,,,,,,,,
,,,,,,5f2664edcb7a443902254785,62c53a853b716069deedd1fa,2022-07-06_09h32.56.209,Colour_Asymmetry_Pilot,2022.1.3,Win32,58.66134804,62c50e9c1127f2cd403a315f,0,118,118,114,1,twoone,,,,,,,,,,,,,,,,,,,,,,,,,,,,,,,,,,,,,,,,,,,,,,,,,,,,,,,,,,,,,,,,,,,,,,,,,,,,,,,,,,,,,,,,,,,,,,,,,,,,,,,,,,,,,,,,,,,,,,,,,,,,,,,,,,,,,,,,,,,,,,,,,,,,,,,,,,,,,
,,,,,,5f2664edcb7a443902254785,62c53a853b716069deedd1fa,2022-07-06_09h32.56.209,Colour_Asymmetry_Pilot,2022.1.3,Win32,58.66134804,62c50e9c1127f2cd403a315f,0,119,119,81,1,onethree,,,,,,,,,,,,,,,,,,,,,,,,,,,,,,,,,,,,,,,,,,,,,,,,,,,,,,,,,,,,,,,,,,,,,,,,,,,,,,,,,,,,,,,,,,,,,,,,,,,,,,,,,,,,,,,,,,,,,,,,,,,,,,,,,,,,,,,,,,,,,,,,,,,,,,,,,,,,,
,,,,,,5f2664edcb7a443902254785,62c53a853b716069deedd1fa,2022-07-06_09h32.56.209,Colour_Asymmetry_Pilot,2022.1.3,Win32,58.66134804,62c50e9c1127f2cd403a315f,0,120,120,112,1,onetwo,,,,,,,,,,,,,,,,,,,,,,,,,,,,,,,,,,,,,,,,,,,,,,,,,,,,,,,,,,,,,,,,,,,,,,,,,,,,,,,,,,,,,,,,,,,,,,,,,,,,,,,,,,,,,,,,,,,,,,,,,,,,,,,,,,,,,,,,,,,,,,,,,,,,,,,,,,,,,
,,,,,,5f2664edcb7a443902254785,62c53a853b716069deedd1fa,2022-07-06_09h32.56.209,Colour_Asymmetry_Pilot,2022.1.3,Win32,58.66134804,62c50e9c1127f2cd403a315f,0,121,121,54,1,fourtwo,,,,,,,,,,,,,,,,,,,,,,,,,,,,,,,,,,,,,,,,,,,,,,,,,,,,,,,,,,,,,,,,,,,,,,,,,,,,,,,,,,,,,,,,,,,,,,,,,,,,,,,,,,,,,,,,,,,,,,,,,,,,,,,,,,,,,,,,,,,,,,,,,,,,,,,,,,,,,
,,,,,,5f2664edcb7a443902254785,62c53a853b716069deedd1fa,2022-07-06_09h32.56.209,Colour_Asymmetry_Pilot,2022.1.3,Win32,58.66134804,62c50e9c1127f2cd403a315f,0,122,122,15,1,fourthree,,,,,,,,,,,,,,,,,,,,,,,,,,,,,,,,,,,,,,,,,,,,,,,,,,,,,,,,,,,,,,,,,,,,,,,,,,,,,,,,,,,,,,,,,,,,,,,,,,,,,,,,,,,,,,,,,,,,,,,,,,,,,,,,,,,,,,,,,,,,,,,,,,,,,,,,,,,,,
,,,,,,5f2664edcb7a443902254785,62c53a853b716069deedd1fa,2022-07-06_09h32.56.209,Colour_Asymmetry_Pilot,2022.1.3,Win32,58.66134804,62c50e9c1127f2cd403a315f,0,123,123,80,1,onetwo,,,,,,,,,,,,,,,,,,,,,,,,,,,,,,,,,,,,,,,,,,,,,,,,,,,,,,,,,,,,,,,,,,,,,,,,,,,,,,,,,,,,,,,,,,,,,,,,,,,,,,,,,,,,,,,,,,,,,,,,,,,,,,,,,,,,,,,,,,,,,,,,,,,,,,,,,,,,,
,,,,,,5f2664edcb7a443902254785,62c53a853b716069deedd1fa,2022-07-06_09h32.56.209,Colour_Asymmetry_Pilot,2022.1.3,Win32,58.66134804,62c50e9c1127f2cd403a315f,0,124,124,67,1,twofour,,,,,,,,,,,,,,,,,,,,,,,,,,,,,,,,,,,,,,,,,,,,,,,,,,,,,,,,,,,,,,,,,,,,,,,,,,,,,,,,,,,,,,,,,,,,,,,,,,,,,,,,,,,,,,,,,,,,,,,,,,,,,,,,,,,,,,,,,,,,,,,,,,,,,,,,,,,,,
,,,,,,5f2664edcb7a443902254785,62c53a853b716069deedd1fa,2022-07-06_09h32.56.209,Colour_Asymmetry_Pilot,2022.1.3,Win32,58.66134804,62c50e9c1127f2cd403a315f,0,125,125,105,1,onethree,,,,,,,,,,,,,,,,,,,,,,,,,,,,,,,,,,,,,,,,,,,,,,,,,,,,,,,,,,,,,,,,,,,,,,,,,,,,,,,,,,,,,,,,,,,,,,,,,,,,,,,,,,,,,,,,,,,,,,,,,,,,,,,,,,,,,,,,,,,,,,,,,,,,,,,,,,,,,
,,,,,,5f2664edcb7a443902254785,62c53a853b716069deedd1fa,2022-07-06_09h32.56.209,Colour_Asymmetry_Pilot,2022.1.3,Win32,58.66134804,62c50e9c1127f2cd403a315f,0,126,126,121,1,onethree,,,,,,,,,,,,,,,,,,,,,,,,,,,,,,,,,,,,,,,,,,,,,,,,,,,,,,,,,,,,,,,,,,,,,,,,,,,,,,,,,,,,,,,,,,,,,,,,,,,,,,,,,,,,,,,,,,,,,,,,,,,,,,,,,,,,,,,,,,,,,,,,,,,,,,,,,,,,,
,,,,,,5f2664edcb7a443902254785,62c53a853b716069deedd1fa,2022-07-06_09h32.56.209,Colour_Asymmetry_Pilot,2022.1.3,Win32,58.66134804,62c50e9c1127f2cd403a315f,0,127,127,49,1,onethree,,,,,,,,,,,,,,,,,,,,,,,,,,,,,,,,,,,,,,,,,,,,,,,,,,,,,,,,,,,,,,,,,,,,,,,,,,,,,,,,,,,,,,,,,,,,,,,,,,,,,,,,,,,,,,,,,,,,,,,,,,,,,,,,,,,,,,,,,,,,,,,,,,,,,,,,,,,,,
,,,,,,5f2664edcb7a443902254785,62c53a853b716069deedd1fa,2022-07-06_09h32.56.209,Colour_Asymmetry_Pilot,2022.1.3,Win32,58.66134804,62c50e9c1127f2cd403a315f,0,128,128,145,1,onethree,,,,,,,,,,,,,,,,,,,,,,,,,,,,,,,,,,,,,,,,,,,,,,,,,,,,,,,,,,,,,,,,,,,,,,,,,,,,,,,,,,,,,,,,,,,,,,,,,,,,,,,,,,,,,,,,,,,,,,,,,,,,,,,,,,,,,,,,,,,,,,,,,,,,,,,,,,,,,
,,,,,,5f2664edcb7a443902254785,62c53a853b716069deedd1fa,2022-07-06_09h32.56.209,Colour_Asymmetry_Pilot,2022.1.3,Win32,58.66134804,62c50e9c1127f2cd403a315f,0,129,129,144,1,onetwo,,,,,,,,,,,,,,,,,,,,,,,,,,,,,,,,,,,,,,,,,,,,,,,,,,,,,,,,,,,,,,,,,,,,,,,,,,,,,,,,,,,,,,,,,,,,,,,,,,,,,,,,,,,,,,,,,,,,,,,,,,,,,,,,,,,,,,,,,,,,,,,,,,,,,,,,,,,,,
,,,,,,5f2664edcb7a443902254785,62c53a853b716069deedd1fa,2022-07-06_09h32.56.209,Colour_Asymmetry_Pilot,2022.1.3,Win32,58.66134804,62c50e9c1127f2cd403a315f,0,130,130,43,1,twofour,,,,,,,,,,,,,,,,,,,,,,,,,,,,,,,,,,,,,,,,,,,,,,,,,,,,,,,,,,,,,,,,,,,,,,,,,,,,,,,,,,,,,,,,,,,,,,,,,,,,,,,,,,,,,,,,,,,,,,,,,,,,,,,,,,,,,,,,,,,,,,,,,,,,,,,,,,,,,
,,,,,,5f2664edcb7a443902254785,62c53a853b716069deedd1fa,2022-07-06_09h32.56.209,Colour_Asymmetry_Pilot,2022.1.3,Win32,58.66134804,62c50e9c1127f2cd403a315f,0,131,131,8,1,onetwo,,,,,,,,,,,,,,,,,,,,,,,,,,,,,,,,,,,,,,,,,,,,,,,,,,,,,,,,,,,,,,,,,,,,,,,,,,,,,,,,,,,,,,,,,,,,,,,,,,,,,,,,,,,,,,,,,,,,,,,,,,,,,,,,,,,,,,,,,,,,,,,,,,,,,,,,,,,,,
,,,,,,5f2664edcb7a443902254785,62c53a853b716069deedd1fa,2022-07-06_09h32.56.209,Colour_Asymmetry_Pilot,2022.1.3,Win32,58.66134804,62c50e9c1127f2cd403a315f,0,132,132,13,1,threefour,,,,,,,,,,,,,,,,,,,,,,,,,,,,,,,,,,,,,,,,,,,,,,,,,,,,,,,,,,,,,,,,,,,,,,,,,,,,,,,,,,,,,,,,,,,,,,,,,,,,,,,,,,,,,,,,,,,,,,,,,,,,,,,,,,,,,,,,,,,,,,,,,,,,,,,,,,,,,
,,,,,,5f2664edcb7a443902254785,62c53a853b716069deedd1fa,2022-07-06_09h32.56.209,Colour_Asymmetry_Pilot,2022.1.3,Win32,58.66134804,62c50e9c1127f2cd403a315f,0,133,133,55,1,fourthree,,,,,,,,,,,,,,,,,,,,,,,,,,,,,,,,,,,,,,,,,,,,,,,,,,,,,,,,,,,,,,,,,,,,,,,,,,,,,,,,,,,,,,,,,,,,,,,,,,,,,,,,,,,,,,,,,,,,,,,,,,,,,,,,,,,,,,,,,,,,,,,,,,,,,,,,,,,,,
,,,,,,5f2664edcb7a443902254785,62c53a853b716069deedd1fa,2022-07-06_09h32.56.209,Colour_Asymmetry_Pilot,2022.1.3,Win32,58.66134804,62c50e9c1127f2cd403a315f,0,134,134,37,1,threefour,,,,,,,,,,,,,,,,,,,,,,,,,,,,,,,,,,,,,,,,,,,,,,,,,,,,,,,,,,,,,,,,,,,,,,,,,,,,,,,,,,,,,,,,,,,,,,,,,,,,,,,,,,,,,,,,,,,,,,,,,,,,,,,,,,,,,,,,,,,,,,,,,,,,,,,,,,,,,
,,,,,,5f2664edcb7a443902254785,62c53a853b716069deedd1fa,2022-07-06_09h32.56.209,Colour_Asymmetry_Pilot,2022.1.3,Win32,58.66134804,62c50e9c1127f2cd403a315f,0,135,135,135,1,fourthree,,,,,,,,,,,,,,,,,,,,,,,,,,,,,,,,,,,,,,,,,,,,,,,,,,,,,,,,,,,,,,,,,,,,,,,,,,,,,,,,,,,,,,,,,,,,,,,,,,,,,,,,,,,,,,,,,,,,,,,,,,,,,,,,,,,,,,,,,,,,,,,,,,,,,,,,,,,,,
,,,,,,5f2664edcb7a443902254785,62c53a853b716069deedd1fa,2022-07-06_09h32.56.209,Colour_Asymmetry_Pilot,2022.1.3,Win32,58.66134804,62c50e9c1127f2cd403a315f,0,136,136,47,1,fourthree,,,,,,,,,,,,,,,,,,,,,,,,,,,,,,,,,,,,,,,,,,,,,,,,,,,,,,,,,,,,,,,,,,,,,,,,,,,,,,,,,,,,,,,,,,,,,,,,,,,,,,,,,,,,,,,,,,,,,,,,,,,,,,,,,,,,,,,,,,,,,,,,,,,,,,,,,,,,,
,,,,,,5f2664edcb7a443902254785,62c53a853b716069deedd1fa,2022-07-06_09h32.56.209,Colour_Asymmetry_Pilot,2022.1.3,Win32,58.66134804,62c50e9c1127f2cd403a315f,0,137,137,78,1,fourtwo,,,,,,,,,,,,,,,,,,,,,,,,,,,,,,,,,,,,,,,,,,,,,,,,,,,,,,,,,,,,,,,,,,,,,,,,,,,,,,,,,,,,,,,,,,,,,,,,,,,,,,,,,,,,,,,,,,,,,,,,,,,,,,,,,,,,,,,,,,,,,,,,,,,,,,,,,,,,,
,,,,,,5f2664edcb7a443902254785,62c53a853b716069deedd1fa,2022-07-06_09h32.56.209,Colour_Asymmetry_Pilot,2022.1.3,Win32,58.66134804,62c50e9c1127f2cd403a315f,0,138,138,127,1,fourthree,,,,,,,,,,,,,,,,,,,,,,,,,,,,,,,,,,,,,,,,,,,,,,,,,,,,,,,,,,,,,,,,,,,,,,,,,,,,,,,,,,,,,,,,,,,,,,,,,,,,,,,,,,,,,,,,,,,,,,,,,,,,,,,,,,,,,,,,,,,,,,,,,,,,,,,,,,,,,
,,,,,,5f2664edcb7a443902254785,62c53a853b716069deedd1fa,2022-07-06_09h32.56.209,Colour_Asymmetry_Pilot,2022.1.3,Win32,58.66134804,62c50e9c1127f2cd403a315f,0,139,139,69,1,threefour,,,,,,,,,,,,,,,,,,,,,,,,,,,,,,,,,,,,,,,,,,,,,,,,,,,,,,,,,,,,,,,,,,,,,,,,,,,,,,,,,,,,,,,,,,,,,,,,,,,,,,,,,,,,,,,,,,,,,,,,,,,,,,,,,,,,,,,,,,,,,,,,,,,,,,,,,,,,,
,,,,,,5f2664edcb7a443902254785,62c53a853b716069deedd1fa,2022-07-06_09h32.56.209,Colour_Asymmetry_Pilot,2022.1.3,Win32,58.66134804,62c50e9c1127f2cd403a315f,0,140,140,106,1,twoone,,,,,,,,,,,,,,,,,,,,,,,,,,,,,,,,,,,,,,,,,,,,,,,,,,,,,,,,,,,,,,,,,,,,,,,,,,,,,,,,,,,,,,,,,,,,,,,,,,,,,,,,,,,,,,,,,,,,,,,,,,,,,,,,,,,,,,,,,,,,,,,,,,,,,,,,,,,,,
,,,,,,5f2664edcb7a443902254785,62c53a853b716069deedd1fa,2022-07-06_09h32.56.209,Colour_Asymmetry_Pilot,2022.1.3,Win32,58.66134804,62c50e9c1127f2cd403a315f,0,141,141,84,1,threeone,,,,,,,,,,,,,,,,,,,,,,,,,,,,,,,,,,,,,,,,,,,,,,,,,,,,,,,,,,,,,,,,,,,,,,,,,,,,,,,,,,,,,,,,,,,,,,,,,,,,,,,,,,,,,,,,,,,,,,,,,,,,,,,,,,,,,,,,,,,,,,,,,,,,,,,,,,,,,
,,,,,,5f2664edcb7a443902254785,62c53a853b716069deedd1fa,2022-07-06_09h32.56.209,Colour_Asymmetry_Pilot,2022.1.3,Win32,58.66134804,62c50e9c1127f2cd403a315f,0,142,142,125,1,threefour,,,,,,,,,,,,,,,,,,,,,,,,,,,,,,,,,,,,,,,,,,,,,,,,,,,,,,,,,,,,,,,,,,,,,,,,,,,,,,,,,,,,,,,,,,,,,,,,,,,,,,,,,,,,,,,,,,,,,,,,,,,,,,,,,,,,,,,,,,,,,,,,,,,,,,,,,,,,,
,,,,,,5f2664edcb7a443902254785,62c53a853b716069deedd1fa,2022-07-06_09h32.56.209,Colour_Asymmetry_Pilot,2022.1.3,Win32,58.66134804,62c50e9c1127f2cd403a315f,0,143,143,40,1,onetwo,,,,,,,,,,,,,,,,,,,,,,,,,,,,,,,,,,,,,,,,,,,,,,,,,,,,,,,,,,,,,,,,,,,,,,,,,,,,,,,,,,,,,,,,,,,,,,,,,,,,,,,,,,,,,,,,,,,,,,,,,,,,,,,,,,,,,,,,,,,,,,,,,,,,,,,,,,,,,
,,,,,,5f2664edcb7a443902254785,62c53a853b716069deedd1fa,2022-07-06_09h32.56.209,Colour_Asymmetry_Pilot,2022.1.3,Win32,58.66134804,62c50e9c1127f2cd403a315f,0,144,144,137,1,onethree,,,,,,,,,,,,,,,,,,,,,,,,,,,,,,,,,,,,,,,,,,,,,,,,,,,,,,,,,,,,,,,,,,,,,,,,,,,,,,,,,,,,,,,,,,,,,,,,,,,,,,,,,,,,,,,,,,,,,,,,,,,,,,,,,,,,,,,,,,,,,,,,,,,,,,,,,,,,,
,,,,,,5f2664edcb7a443902254785,62c53a853b716069deedd1fa,2022-07-06_09h32.56.209,Colour_Asymmetry_Pilot,2022.1.3,Win32,58.66134804,62c50e9c1127f2cd403a315f,0,145,145,160,1,onetwo,,,,,,,,,,,,,,,,,,,,,,,,,,,,,,,,,,,,,,,,,,,,,,,,,,,,,,,,,,,,,,,,,,,,,,,,,,,,,,,,,,,,,,,,,,,,,,,,,,,,,,,,,,,,,,,,,,,,,,,,,,,,,,,,,,,,,,,,,,,,,,,,,,,,,,,,,,,,,
,,,,,,5f2664edcb7a443902254785,62c53a853b716069deedd1fa,2022-07-06_09h32.56.209,Colour_Asymmetry_Pilot,2022.1.3,Win32,58.66134804,62c50e9c1127f2cd403a315f,0,146,146,102,1,fourtwo,,,,,,,,,,,,,,,,,,,,,,,,,,,,,,,,,,,,,,,,,,,,,,,,,,,,,,,,,,,,,,,,,,,,,,,,,,,,,,,,,,,,,,,,,,,,,,,,,,,,,,,,,,,,,,,,,,,,,,,,,,,,,,,,,,,,,,,,,,,,,,,,,,,,,,,,,,,,,
,,,,,,5f2664edcb7a443902254785,62c53a853b716069deedd1fa,2022-07-06_09h32.56.209,Colour_Asymmetry_Pilot,2022.1.3,Win32,58.66134804,62c50e9c1127f2cd403a315f,0,147,147,50,1,twoone,,,,,,,,,,,,,,,,,,,,,,,,,,,,,,,,,,,,,,,,,,,,,,,,,,,,,,,,,,,,,,,,,,,,,,,,,,,,,,,,,,,,,,,,,,,,,,,,,,,,,,,,,,,,,,,,,,,,,,,,,,,,,,,,,,,,,,,,,,,,,,,,,,,,,,,,,,,,,
,,,,,,5f2664edcb7a443902254785,62c53a853b716069deedd1fa,2022-07-06_09h32.56.209,Colour_Asymmetry_Pilot,2022.1.3,Win32,58.66134804,62c50e9c1127f2cd403a315f,0,148,148,155,1,twofour,,,,,,,,,,,,,,,,,,,,,,,,,,,,,,,,,,,,,,,,,,,,,,,,,,,,,,,,,,,,,,,,,,,,,,,,,,,,,,,,,,,,,,,,,,,,,,,,,,,,,,,,,,,,,,,,,,,,,,,,,,,,,,,,,,,,,,,,,,,,,,,,,,,,,,,,,,,,,
,,,,,,5f2664edcb7a443902254785,62c53a853b716069deedd1fa,2022-07-06_09h32.56.209,Colour_Asymmetry_Pilot,2022.1.3,Win32,58.66134804,62c50e9c1127f2cd403a315f,0,149,149,0,1,onetwo,,,,,,,,,,,,,,,,,,,,,,,,,,,,,,,,,,,,,,,,,,,,,,,,,,,,,,,,,,,,,,,,,,,,,,,,,,,,,,,,,,,,,,,,,,,,,,,,,,,,,,,,,,,,,,,,,,,,,,,,,,,,,,,,,,,,,,,,,,,,,,,,,,,,,,,,,,,,,
,,,,,,5f2664edcb7a443902254785,62c53a853b716069deedd1fa,2022-07-06_09h32.56.209,Colour_Asymmetry_Pilot,2022.1.3,Win32,58.66134804,62c50e9c1127f2cd403a315f,0,150,150,157,1,threefour,,,,,,,,,,,,,,,,,,,,,,,,,,,,,,,,,,,,,,,,,,,,,,,,,,,,,,,,,,,,,,,,,,,,,,,,,,,,,,,,,,,,,,,,,,,,,,,,,,,,,,,,,,,,,,,,,,,,,,,,,,,,,,,,,,,,,,,,,,,,,,,,,,,,,,,,,,,,,
,,,,,,5f2664edcb7a443902254785,62c53a853b716069deedd1fa,2022-07-06_09h32.56.209,Colour_Asymmetry_Pilot,2022.1.3,Win32,58.66134804,62c50e9c1127f2cd403a315f,0,151,151,70,1,fourtwo,,,,,,,,,,,,,,,,,,,,,,,,,,,,,,,,,,,,,,,,,,,,,,,,,,,,,,,,,,,,,,,,,,,,,,,,,,,,,,,,,,,,,,,,,,,,,,,,,,,,,,,,,,,,,,,,,,,,,,,,,,,,,,,,,,,,,,,,,,,,,,,,,,,,,,,,,,,,,
,,,,,,5f2664edcb7a443902254785,62c53a853b716069deedd1fa,2022-07-06_09h32.56.209,Colour_Asymmetry_Pilot,2022.1.3,Win32,58.66134804,62c50e9c1127f2cd403a315f,0,152,152,62,1,fourtwo,,,,,,,,,,,,,,,,,,,,,,,,,,,,,,,,,,,,,,,,,,,,,,,,,,,,,,,,,,,,,,,,,,,,,,,,,,,,,,,,,,,,,,,,,,,,,,,,,,,,,,,,,,,,,,,,,,,,,,,,,,,,,,,,,,,,,,,,,,,,,,,,,,,,,,,,,,,,,
,,,,,,5f2664edcb7a443902254785,62c53a853b716069deedd1fa,2022-07-06_09h32.56.209,Colour_Asymmetry_Pilot,2022.1.3,Win32,58.66134804,62c50e9c1127f2cd403a315f,0,153,153,152,1,onetwo,,,,,,,,,,,,,,,,,,,,,,,,,,,,,,,,,,,,,,,,,,,,,,,,,,,,,,,,,,,,,,,,,,,,,,,,,,,,,,,,,,,,,,,,,,,,,,,,,,,,,,,,,,,,,,,,,,,,,,,,,,,,,,,,,,,,,,,,,,,,,,,,,,,,,,,,,,,,,
,,,,,,5f2664edcb7a443902254785,62c53a853b716069deedd1fa,2022-07-06_09h32.56.209,Colour_Asymmetry_Pilot,2022.1.3,Win32,58.66134804,62c50e9c1127f2cd403a315f,0,154,154,130,1,twoone,,,,,,,,,,,,,,,,,,,,,,,,,,,,,,,,,,,,,,,,,,,,,,,,,,,,,,,,,,,,,,,,,,,,,,,,,,,,,,,,,,,,,,,,,,,,,,,,,,,,,,,,,,,,,,,,,,,,,,,,,,,,,,,,,,,,,,,,,,,,,,,,,,,,,,,,,,,,,
,,,,,,5f2664edcb7a443902254785,62c53a853b716069deedd1fa,2022-07-06_09h32.56.209,Colour_Asymmetry_Pilot,2022.1.3,Win32,58.66134804,62c50e9c1127f2cd403a315f,0,155,155,72,1,onetwo,,,,,,,,,,,,,,,,,,,,,,,,,,,,,,,,,,,,,,,,,,,,,,,,,,,,,,,,,,,,,,,,,,,,,,,,,,,,,,,,,,,,,,,,,,,,,,,,,,,,,,,,,,,,,,,,,,,,,,,,,,,,,,,,,,,,,,,,,,,,,,,,,,,,,,,,,,,,,
,,,,,,5f2664edcb7a443902254785,62c53a853b716069deedd1fa,2022-07-06_09h32.56.209,Colour_Asymmetry_Pilot,2022.1.3,Win32,58.66134804,62c50e9c1127f2cd403a315f,0,156,156,146,1,twoone,,,,,,,,,,,,,,,,,,,,,,,,,,,,,,,,,,,,,,,,,,,,,,,,,,,,,,,,,,,,,,,,,,,,,,,,,,,,,,,,,,,,,,,,,,,,,,,,,,,,,,,,,,,,,,,,,,,,,,,,,,,,,,,,,,,,,,,,,,,,,,,,,,,,,,,,,,,,,
,,,,,,5f2664edcb7a443902254785,62c53a853b716069deedd1fa,2022-07-06_09h32.56.209,Colour_Asymmetry_Pilot,2022.1.3,Win32,58.66134804,62c50e9c1127f2cd403a315f,0,157,157,133,1,threefour,,,,,,,,,,,,,,,,,,,,,,,,,,,,,,,,,,,,,,,,,,,,,,,,,,,,,,,,,,,,,,,,,,,,,,,,,,,,,,,,,,,,,,,,,,,,,,,,,,,,,,,,,,,,,,,,,,,,,,,,,,,,,,,,,,,,,,,,,,,,,,,,,,,,,,,,,,,,,
,,,,,,5f2664edcb7a443902254785,62c53a853b716069deedd1fa,2022-07-06_09h32.56.209,Colour_Asymmetry_Pilot,2022.1.3,Win32,58.66134804,62c50e9c1127f2cd403a315f,0,158,158,57,1,onethree,,,,,,,,,,,,,,,,,,,,,,,,,,,,,,,,,,,,,,,,,,,,,,,,,,,,,,,,,,,,,,,,,,,,,,,,,,,,,,,,,,,,,,,,,,,,,,,,,,,,,,,,,,,,,,,,,,,,,,,,,,,,,,,,,,,,,,,,,,,,,,,,,,,,,,,,,,,,,
,,,,,,5f2664edcb7a443902254785,62c53a853b716069deedd1fa,2022-07-06_09h32.56.209,Colour_Asymmetry_Pilot,2022.1.3,Win32,58.66134804,62c50e9c1127f2cd403a315f,0,159,159,124,1,threeone,,,,,,,,,,,,,,,,,,,,,,,,,,,,,,,,,,,,,,,,,,,,,,,,,,,,,,,,,,,,,,,,,,,,,,,,,,,,,,,,,,,,,,,,,,,,,,,,,,,,,,,,,,,,,,,,,,,,,,,,,,,,,,,,,,,,,,,,,,,,,,,,,,,,,,,,,,,,,
,,,,,,5f2664edcb7a443902254785,62c53a853b716069deedd1fa,2022-07-06_09h32.56.209,Colour_Asymmetry_Pilot,2022.1.3,Win32,58.66134804,62c50e9c1127f2cd403a315f,0,160,160,25,1,onethree,,,,,,,,,,,,,,,,,,,,,,,,,,,,,,,,,,,,,,,,,,,,,,,,,,,,,,,,,,,,,,,,,,,,,,,,,,,,,,,,,,,,,,,,,,,,,,,,,,,,,,,,,,,,,,,,,,,,,,,,,,,,,,,,,,,,,,,,,,,,,,,,,,,,,,,,,,,,,
,,,,,,5f2664edcb7a443902254785,62c53a853b716069deedd1fa,2022-07-06_09h32.56.209,Colour_Asymmetry_Pilot,2022.1.3,Win32,58.66134804,62c50e9c1127f2cd403a315f,0,161,161,88,1,onetwo,,,,,,,,,,,,,,,,,,,,,,,,,,,,,,,,,,,,,,,,,,,,,,,,,,,,,,,,,,,,,,,,,,,,,,,,,,,,,,,,,,,,,,,,,,,,,,,,,,,,,,,,,,,,,,,,,,,,,,,,,,,,,,,,,,,,,,,,,,,,,,,,,,,,,,,,,,,,,
,,,,,,5f2664edcb7a443902254785,62c53a853b716069deedd1fa,2022-07-06_09h32.56.209,Colour_Asymmetry_Pilot,2022.1.3,Win32,58.66134804,62c50e9c1127f2cd403a315f,,,,,,,space,4.5512,space,47.2832,space,64.8186,space,23.2109,space,5.8846,space,18.6382,"[0.7018,0.7176,0.6155999999999999]",fourtwo,"[-0.5452,-0.608,0.2470000000000001]",-4,6.956,-64,107.1999817,1,0,0,response7disk_5,1.600036621,-7.200012207,1,0,0,rectangle_8,1.600036621,-7.200012207,1,0,0,1,1.600036621,-7.200012207,1,0,0,0,0,0,0,1,,,,,,,,,,,,,,,,,,,,,,,,,,,,,,,,,,,,,,,,,,,,,,,,,,,,,,,,,,,,,,,,,,,,,,,,,,,,,,,,,,,,,,,,,,,,,,,,,,,,,,,,,,,,,,,,
,,,,,,5f2664edcb7a443902254785,62c53a853b716069deedd1fa,2022-07-06_09h32.56.209,Colour_Asymmetry_Pilot,2022.1.3,Win32,58.66134804,62c50e9c1127f2cd403a315f,,,,,,,,,,,,,,,,,,,"[-0.9138,-0.5296000000000001,-0.5529999999999999]",threefour,"[1,0.12939999999999996,-1]",-4,6.834,-48.79998779,98.3999939,1,0,0,response7disk_5,2.400024414,4.799987793,1,0,0,rectangle_8,2.400024414,4.799987793,1,0,0,1,2.400024414,4.799987793,1,0,0,1,0,1,0,1,,,,,,,,,,,,,,,,,,,,,,,,,,,,,,,,,,,,,,,,,,,,,,,,,,,,,,,,,,,,,,,,,,,,,,,,,,,,,,,,,,,,,,,,,,,,,,,,,,,,,,,,,,,,,,,,
,,,,,,5f2664edcb7a443902254785,62c53a853b716069deedd1fa,2022-07-06_09h32.56.209,Colour_Asymmetry_Pilot,2022.1.3,Win32,58.66134804,62c50e9c1127f2cd403a315f,,,,,,,,,,,,,,,,,,,"[0.8115999999999999,-0.0040000000000000036,-0.09819999999999995]",twoone,"[0.8274000000000001,-0.5844,-0.9452]",4,3.0851,45.60003662,127.1999817,1,0,0,response1disk_5,1.600036621,-1.600006104,1,0,0,rectangle_8,38.40002441,-84.79998779,1,0,0,1,2.400024414,-5.600006104,1,0,0,2,0,2,0,1,response3disk_7,4,rectangle_4,,,,,,,,,,,,,,,,,,,,,,,,,,,,,,,,,,,,,,,,,,,,,,,,,,,,,,,,,,,,,,,,,,,,,,,,,,,,,,,,,,,,,,,,,,,,,,,,,,,,,,,,,,,,,
,,,,,,5f2664edcb7a443902254785,62c53a853b716069deedd1fa,2022-07-06_09h32.56.209,Colour_Asymmetry_Pilot,2022.1.3,Win32,58.66134804,62c50e9c1127f2cd403a315f,,,,,,,,,,,,,,,,,,,"[-0.9688,-0.7412000000000001,-0.4902000000000001]",twoone,"[-0.2942,-0.24719999999999998,-0.357]",-4,12.6864,-34.39996338,74.3999939,1,0,0,response7disk_5,-10.39996338,-6.399993896,1,0,0,rectangle_8,-10.39996338,-6.399993896,1,0,0,1,-10.39996338,-6.399993896,1,0,0,3,0,3,0,1,,,,,,,,,,,,,,,,,,,,,,,,,,,,,,,,,,,,,,,,,,,,,,,,,,,,,,,,,,,,,,,,,,,,,,,,,,,,,,,,,,,,,,,,,,,,,,,,,,,,,,,,,,,,,,,,
,,,,,,5f2664edcb7a443902254785,62c53a853b716069deedd1fa,2022-07-06_09h32.56.209,Colour_Asymmetry_Pilot,2022.1.3,Win32,58.66134804,62c50e9c1127f2cd403a315f,,,,,,,,,,,,,,,,,,,"[-0.9844,-0.9688,-0.9922]",threefour,"[-0.20799999999999996,-0.655,-0.01980000000000004]",-4,3.8165,-52,98.3999939,1,0,0,response7disk_5,-1.599975586,0,1,0,0,rectangle_8,-1.599975586,0,1,0,0,1,-1.599975586,0,1,0,0,4,0,4,0,1,,,,,,,,,,,,,,,,,,,,,,,,,,,,,,,,,,,,,,,,,,,,,,,,,,,,,,,,,,,,,,,,,,,,,,,,,,,,,,,,,,,,,,,,,,,,,,,,,,,,,,,,,,,,,,,,
,,,,,,5f2664edcb7a443902254785,62c53a853b716069deedd1fa,2022-07-06_09h32.56.209,Colour_Asymmetry_Pilot,2022.1.3,Win32,58.66134804,62c50e9c1127f2cd403a315f,,,,,,,,,,,,,,,,,,,"[0.9842,0.7409999999999999,-0.6628000000000001]",threefour,"[-0.17659999999999998,-0.2864,-0.8354]",4,3.1827,43.20001221,97.6000061,1,0,0,response1disk_5,-1.599975586,5.600006104,1,0,0,rectangle_8,42.40002441,-92.79998779,1,0,0,1,-2.399963379,-9.600006104,1,0,0,5,0,5,0,1,response3disk_7,4,rectangle_4,,,,,,,,,,,,,,,,,,,,,,,,,,,,,,,,,,,,,,,,,,,,,,,,,,,,,,,,,,,,,,,,,,,,,,,,,,,,,,,,,,,,,,,,,,,,,,,,,,,,,,,,,,,,,
,,,,,,5f2664edcb7a443902254785,62c53a853b716069deedd1fa,2022-07-06_09h32.56.209,Colour_Asymmetry_Pilot,2022.1.3,Win32,58.66134804,62c50e9c1127f2cd403a315f,,,,,,,,,,,,,,,,,,,"[0.0351999999999999,0.41159999999999997,0.0038000000000000256]",threeone,"[0.19199999999999995,0.18419999999999992,0.5136000000000001]",-4,15.5198,-48.79998779,97.6000061,1,0,0,response7disk_5,4.799987793,-4.800018311,1,0,0,rectangle_8,4.799987793,-4.800018311,1,0,0,1,4.799987793,-4.800018311,1,0,0,6,0,6,0,1,,,,,,,,,,,,,,,,,,,,,,,,,,,,,,,,,,,,,,,,,,,,,,,,,,,,,,,,,,,,,,,,,,,,,,,,,,,,,,,,,,,,,,,,,,,,,,,,,,,,,,,,,,,,,,,,
,,,,,,5f2664edcb7a443902254785,62c53a853b716069deedd1fa,2022-07-06_09h32.56.209,Colour_Asymmetry_Pilot,2022.1.3,Win32,58.66134804,62c50e9c1127f2cd403a315f,,,,,,,,,,,,,,,,,,,,fourthree,,-4,2.6022,,,,,,,,,,,,,,,,,,,,,,,,,,,,,,,,space,4.5503,"[0.5528,0.7409999999999999,-0.71]","[0.8115999999999999,-0.0040000000000000036,-0.09819999999999995]",-48,95.19998169,1,0,0,response7disk,1.600036621,-13.6000061,1,0,0,rectangle,1.600036621,-13.6000061,1,0,0,,1,0.0074,0,1.600036621,-13.6000061,1,0,0,0,0,0,106,1,25,second,,,,,,,,,,,,,,,,,,,,,,,,,,,,,,,,,,,,,,,,,,,,,,,,,,,,,,,,,,,,,,,,,,,,,,,,
,,,,,,5f2664edcb7a443902254785,62c53a853b716069deedd1fa,2022-07-06_09h32.56.209,Colour_Asymmetry_Pilot,2022.1.3,Win32,58.66134804,62c50e9c1127f2cd403a315f,,,,,,,,,,,,,,,,,,,,twoone,,4,1.7344,,,,,,,,,,,,,,,,,,,,,,,,,,,,,,,,,,"[0.9686000000000001,0.3802000000000001,0.19999999999999996]","[0.18419999999999992,-0.4276,-0.404]",42.40002441,92.79998779,1,0,0,response1disk,11.20001221,4.799987793,1,0,0,rectangle,11.20001221,4.799987793,1,0,0,,1,0.0014,0,11.20001221,4.799987793,1,0,0,0,1,1,155,1,74,second,,,,,,,,,,,,,,,,,,,,,,,,,,,,,,,,,,,,,,,,,,,,,,,,,,,,,,,,,,,,,,,,,,,,,,,,
,,,,,,5f2664edcb7a443902254785,62c53a853b716069deedd1fa,2022-07-06_09h32.56.209,Colour_Asymmetry_Pilot,2022.1.3,Win32,58.66134804,62c50e9c1127f2cd403a315f,,,,,,,,,,,,,,,,,,,,threeone,,-4,6.3671,,,,,,,,,,,,,,,,,,,,,,,,,,,,,,,,,,"[-0.6235999999999999,-0.6786,-0.08239999999999992]","[-0.9844,-0.9688,-0.9922]",-45.59997559,72,1,0,0,response7disk,0,9.600006104,1,0,0,rectangle,0,9.600006104,1,0,0,,2,0.0094,0,0,9.600006104,1,0,0,0,2,2,12,1,12,first,,,,,,,,,,,,,,,,,,,,,,,,,,,,,,,,,,,,,,,,,,,,,,,,,,,,,,,,,,,,,,,,,,,,,,,,
,,,,,,5f2664edcb7a443902254785,62c53a853b716069deedd1fa,2022-07-06_09h32.56.209,Colour_Asymmetry_Pilot,2022.1.3,Win32,58.66134804,62c50e9c1127f2cd403a315f,,,,,,,,,,,,,,,,,,,,twofour,,4,8.0029,,,,,,,,,,,,,,,,,,,,,,,,,,,,,,,,,,"[-0.8198,-0.5138,-0.7492000000000001]","[-0.9296,-0.12959999999999994,-0.043199999999999905]",49.60003662,72,1,0,0,response1disk,11.20001221,-5.600006104,1,0,0,rectangle,11.20001221,-5.600006104,1,0,0,,2,0.0012,0,11.20001221,-5.600006104,1,0,0,0,3,3,110,1,29,second,,,,,,,,,,,,,,,,,,,,,,,,,,,,,,,,,,,,,,,,,,,,,,,,,,,,,,,,,,,,,,,,,,,,,,,,
,,,,,,5f2664edcb7a443902254785,62c53a853b716069deedd1fa,2022-07-06_09h32.56.209,Colour_Asymmetry_Pilot,2022.1.3,Win32,58.66134804,62c50e9c1127f2cd403a315f,,,,,,,,,,,,,,,,,,,,twofour,,-4,2.1157,,,,,,,,,,,,,,,,,,,,,,,,,,,,,,,,,,"[-0.9766,-0.6472,0.07440000000000002]","[0.8274000000000001,-0.5844,-0.9452]",-49.59997559,66.3999939,1,0,0,response7disk,0,-11.20001221,1,0,0,rectangle,0,-11.20001221,1,0,0,,2,0.0008,0,0,-11.20001221,1,0,0,0,4,4,96,1,15,second,,,,,,,,,,,,,,,,,,,,,,,,,,,,,,,,,,,,,,,,,,,,,,,,,,,,,,,,,,,,,,,,,,,,,,,,
,,,,,,5f2664edcb7a443902254785,62c53a853b716069deedd1fa,2022-07-06_09h32.56.209,Colour_Asymmetry_Pilot,2022.1.3,Win32,58.66134804,62c50e9c1127f2cd403a315f,,,,,,,,,,,,,,,,,,,,fourthree,,4,1.6835,,,,,,,,,,,,,,,,,,,,,,,,,,,,,,,,,,"[-0.09019999999999995,0.44300000000000006,0.5371999999999999]","[-0.8198,-0.5138,-0.7492000000000001]",36,79.19998169,1,0,0,response1disk,-4.799987793,0,1,0,0,rectangle,-4.799987793,0,1,0,0,,2,0.0007,0,-4.799987793,0,1,0,0,0,5,5,45,1,45,first,,,,,,,,,,,,,,,,,,,,,,,,,,,,,,,,,,,,,,,,,,,,,,,,,,,,,,,,,,,,,,,,,,,,,,,,
,,,,,,5f2664edcb7a443902254785,62c53a853b716069deedd1fa,2022-07-06_09h32.56.209,Colour_Asymmetry_Pilot,2022.1.3,Win32,58.66134804,62c50e9c1127f2cd403a315f,,,,,,,,,,,,,,,,,,,,threeone,,4,2.0522,,,,,,,,,,,,,,,,,,,,,,,,,,,,,,,,,,"[0.37240000000000006,-0.050999999999999934,-0.5216]","[0.9763999999999999,0.30979999999999985,-0.6786]",31.20001221,81.6000061,1,0,0,response1disk,13.60003662,-13.6000061,1,0,0,rectangle,13.60003662,-13.6000061,1,0,0,,1,0.0049,0,13.60003662,-13.6000061,1,0,0,0,6,6,24,1,24,first,,,,,,,,,,,,,,,,,,,,,,,,,,,,,,,,,,,,,,,,,,,,,,,,,,,,,,,,,,,,,,,,,,,,,,,,
,,,,,,5f2664edcb7a443902254785,62c53a853b716069deedd1fa,2022-07-06_09h32.56.209,Colour_Asymmetry_Pilot,2022.1.3,Win32,58.66134804,62c50e9c1127f2cd403a315f,,,,,,,,,,,,,,,,,,,,twofour,,4,1.5838,,,,,,,,,,,,,,,,,,,,,,,,,,,,,,,,,,"[-0.9688,-0.38039999999999996,-0.41979999999999995]","[0.34099999999999997,0.5841999999999998,-0.9844]",49.60003662,89.6000061,1,0,0,response1disk,5.600036621,10.3999939,1,0,0,rectangle,46.40002441,-92.79998779,1,0,0,1,1,2.134,1,3.200012207,13.6000061,1,0,0,0,7,7,76,1,76,first,response3disk_3,rectangle,,,,,,,,,,,,,,,,,,,,,,,,,,,,,,,,,,,,,,,,,,,,,,,,,,,,,,,,,,,,,,,,,,,,,,
,,,,,,5f2664edcb7a443902254785,62c53a853b716069deedd1fa,2022-07-06_09h32.56.209,Colour_Asymmetry_Pilot,2022.1.3,Win32,58.66134804,62c50e9c1127f2cd403a315f,,,,,,,,,,,,,,,,,,,,threeone,,-4,2.2686,,,,,,,,,,,,,,,,,,,,,,,,,,,,,,,,,,"[-0.4902000000000001,0.2704,-0.45899999999999996]","[-0.5922000000000001,-0.7492000000000001,-0.5296000000000001]",-52.79998779,84.79998779,1,0,0,response7disk,-4.799987793,-2.399993896,1,0,0,rectangle,-4.799987793,-2.399993896,1,0,0,1,1,0.0007,0,-4.799987793,-2.399993896,1,0,0,0,8,8,58,1,58,first,,,,,,,,,,,,,,,,,,,,,,,,,,,,,,,,,,,,,,,,,,,,,,,,,,,,,,,,,,,,,,,,,,,,,,,,
,,,,,,5f2664edcb7a443902254785,62c53a853b716069deedd1fa,2022-07-06_09h32.56.209,Colour_Asymmetry_Pilot,2022.1.3,Win32,58.66134804,62c50e9c1127f2cd403a315f,,,,,,,,,,,,,,,,,,,,threefour,,-4,1.184,,,,,,,,,,,,,,,,,,,,,,,,,,,,,,,,,,"[-0.17659999999999998,-0.2864,-0.8354]","[0.05879999999999996,0.2784,0.5841999999999998]",-49.59997559,96,1,0,0,response7disk,3.200012207,-1.600006104,1,0,0,rectangle,3.200012207,-1.600006104,1,0,0,1,1,0.0008,0,3.200012207,-1.600006104,1,0,0,0,9,9,128,1,47,second,,,,,,,,,,,,,,,,,,,,,,,,,,,,,,,,,,,,,,,,,,,,,,,,,,,,,,,,,,,,,,,,,,,,,,,,
,,,,,,5f2664edcb7a443902254785,62c53a853b716069deedd1fa,2022-07-06_09h32.56.209,Colour_Asymmetry_Pilot,2022.1.3,Win32,58.66134804,62c50e9c1127f2cd403a315f,,,,,,,,,,,,,,,,,,,,fourthree,,4,1.5504,,,,,,,,,,,,,,,,,,,,,,,,,,,,,,,,,,"[-0.6,0.16860000000000008,0.44300000000000006]","[-0.9688,-0.7412000000000001,-0.4902000000000001]",36,85.6000061,1,0,0,response1disk,4.799987793,-8,1,0,0,rectangle,4.799987793,-8,1,0,0,1,1,0.0009,0,4.799987793,-8,1,0,0,0,10,10,100,1,19,second,,,,,,,,,,,,,,,,,,,,,,,,,,,,,,,,,,,,,,,,,,,,,,,,,,,,,,,,,,,,,,,,,,,,,,,,
,,,,,,5f2664edcb7a443902254785,62c53a853b716069deedd1fa,2022-07-06_09h32.56.209,Colour_Asymmetry_Pilot,2022.1.3,Win32,58.66134804,62c50e9c1127f2cd403a315f,,,,,,,,,,,,,,,,,,,,twoone,,-4,0.7339,,,,,,,,,,,,,,,,,,,,,,,,,,,,,,,,,,"[1,0.12939999999999996,-1]","[0.19199999999999995,0.18419999999999992,0.5136000000000001]",-44.79998779,84,1,0,0,response7disk,-4,-4.800018311,1,0,0,rectangle,-4,-4.800018311,1,0,0,1,1,0.0007,0,-4,-4.800018311,1,0,0,0,11,11,123,1,42,second,,,,,,,,,,,,,,,,,,,,,,,,,,,,,,,,,,,,,,,,,,,,,,,,,,,,,,,,,,,,,,,,,,,,,,,,
,,,,,,5f2664edcb7a443902254785,62c53a853b716069deedd1fa,2022-07-06_09h32.56.209,Colour_Asymmetry_Pilot,2022.1.3,Win32,58.66134804,62c50e9c1127f2cd403a315f,,,,,,,,,,,,,,,,,,,,twoone,,-4,1.183,,,,,,,,,,,,,,,,,,,,,,,,,,,,,,,,,,"[-0.9844,-0.9688,-0.9922]","[0.9763999999999999,0.8588,-0.05900000000000005]",-42.39996338,81.6000061,1,0,0,response7disk,5.600036621,-13.6000061,1,0,0,rectangle,5.600036621,-13.6000061,1,0,0,1,2,0.0055,0,5.600036621,-13.6000061,1,0,0,0,12,12,20,1,20,first,,,,,,,,,,,,,,,,,,,,,,,,,,,,,,,,,,,,,,,,,,,,,,,,,,,,,,,,,,,,,,,,,,,,,,,,
,,,,,,5f2664edcb7a443902254785,62c53a853b716069deedd1fa,2022-07-06_09h32.56.209,Colour_Asymmetry_Pilot,2022.1.3,Win32,58.66134804,62c50e9c1127f2cd403a315f,,,,,,,,,,,,,,,,,,,,onetwo,,-4,1.4516,,,,,,,,,,,,,,,,,,,,,,,,,,,,,,,,,,"[-0.26280000000000003,-0.2158,-0.3256]","[0.09799999999999986,-0.24719999999999998,0.15280000000000005]",-32.79998779,81.6000061,1,0,0,response7disk,-1.599975586,0.799987793,1,0,0,rectangle,-1.599975586,0.799987793,1,0,0,1,2,0.001,0,-1.599975586,0.799987793,1,0,0,0,13,13,86,1,5,second,,,,,,,,,,,,,,,,,,,,,,,,,,,,,,,,,,,,,,,,,,,,,,,,,,,,,,,,,,,,,,,,,,,,,,,,
,,,,,,5f2664edcb7a443902254785,62c53a853b716069deedd1fa,2022-07-06_09h32.56.209,Colour_Asymmetry_Pilot,2022.1.3,Win32,58.66134804,62c50e9c1127f2cd403a315f,,,,,,,,,,,,,,,,,,,,fourtwo,,-4,0.8005,,,,,,,,,,,,,,,,,,,,,,,,,,,,,,,,,,"[0.6625999999999999,0.4980000000000002,-0.357]","[0.11359999999999992,0.6312,0.5213999999999999]",-40,76,1,0,0,response7disk,1.600036621,6.399993896,1,0,0,rectangle,1.600036621,6.399993896,1,0,0,1,1,0.0041,0,1.600036621,6.399993896,1,0,0,0,14,14,111,1,30,second,,,,,,,,,,,,,,,,,,,,,,,,,,,,,,,,,,,,,,,,,,,,,,,,,,,,,,,,,,,,,,,,,,,,,,,,
