trials.thisRepN,trials.thisTrialN,trials.thisN,trials.thisIndex,trials.ran,Colourcodes,participant,session,date,expName,psychopyVersion,OS,frameRate,study_id,trials_4.thisRepN,trials_4.thisTrialN,trials_4.thisN,trials_4.thisIndex,trials_4.ran,StimulusPos,key_resp.keys,key_resp.rt,key_resp_2.keys,key_resp_2.rt,key_resp_15.keys,key_resp_15.rt,key_resp_17.keys,key_resp_17.rt,key_resp_9.keys,key_resp_9.rt,key_resp_10.keys,key_resp_10.rt,Circle1_col,Ecc,Circle2_col,similarity,response_time,mouse_5.x,mouse_5.y,mouse_5.leftButton,mouse_5.midButton,mouse_5.rightButton,mouse_5.clicked_name,mouse_10.x,mouse_10.y,mouse_10.leftButton,mouse_10.midButton,mouse_10.rightButton,mouse_10.clicked_name,mouse_7.x,mouse_7.y,mouse_7.leftButton,mouse_7.midButton,mouse_7.rightButton,mouse_7.clicked_name,catchprac,catchnumberprac,mouse_6.x,mouse_6.y,mouse_6.leftButton,mouse_6.midButton,mouse_6.rightButton,mouse_6.clicked_name,duringprac.thisRepN,duringprac.thisTrialN,duringprac.thisN,duringprac.thisIndex,duringprac.ran,key_resp_22.keys,key_resp_22.rt,Circle1_colour,Circle2_colour,mouse.x,mouse.y,mouse.leftButton,mouse.midButton,mouse.rightButton,mouse.clicked_name,mouse_2.x,mouse_2.y,mouse_2.leftButton,mouse_2.midButton,mouse_2.rightButton,mouse_2.clicked_name,mouse_3.x,mouse_3.y,mouse_3.leftButton,mouse_3.midButton,mouse_3.rightButton,catchresponse,catchnumber,response_time_catch,Catch,mouse_11.x,mouse_11.y,mouse_11.leftButton,mouse_11.midButton,mouse_11.rightButton,trials_2.thisRepN,trials_2.thisTrialN,trials_2.thisN,trials_2.thisIndex,trials_2.ran,Colourpair,Temporder,mouse_3.clicked_name,mouse_11.clicked_name,trials_3.thisRepN,trials_3.thisTrialN,trials_3.thisN,trials_3.thisIndex,trials_3.ran,key_resp_instr_Ishi.keys,key_resp_instr_Ishi.rt,Ishi_trial_keyresp.keys,Ishi_textbox.text,Ishi_mouse.x,Ishi_mouse.y,Ishi_mouse.leftButton,Ishi_mouse.midButton,Ishi_mouse.rightButton,Ishi_mouse.clicked_name,Ishi_loop.thisRepN,Ishi_loop.thisTrialN,Ishi_loop.thisN,Ishi_loop.thisIndex,Ishi_loop.ran,imageaddress,textbox.text,mouse_4.x,mouse_4.y,mouse_4.leftButton,mouse_4.midButton,mouse_4.rightButton,mouse_4.clicked_name,textbox_2.text,mouse_8.x,mouse_8.y,mouse_8.leftButton,mouse_8.midButton,mouse_8.rightButton,mouse_8.clicked_name,textbox_3.text,mouse_9.x,mouse_9.y,mouse_9.leftButton,mouse_9.midButton,mouse_9.rightButton,mouse_9.clicked_name,textbox_4.text,mouse_12.x,mouse_12.y,mouse_12.leftButton,mouse_12.midButton,mouse_12.rightButton,mouse_12.clicked_name,textbox_5.text,mouse_13.x,mouse_13.y,mouse_13.leftButton,mouse_13.midButton,mouse_13.rightButton,mouse_13.clicked_name,textbox_6.text,mouse_14.x,mouse_14.y,mouse_14.leftButton,mouse_14.midButton,mouse_14.rightButton,mouse_14.clicked_name,textbox_7.text,mouse_15.x,mouse_15.y,mouse_15.leftButton,mouse_15.midButton,mouse_15.rightButton
0,0,0,57,1,,6128b6f850d39bf85a29211e,62c538a4e11c40b2f02aaeab,2022-07-06_09h25.36.436,Colour_Asymmetry_Pilot,2022.1.3,Win32,47.98694755,62c50e9c1127f2cd403a315f,,,,,,,,,,,,,,,,,,,,,,,,,,,,,,,,,,,,,,,,,,,,,,,,,,,,,,,,,,,,,,,,,,,,,,,,,,,,,,,,,,,,,,,,,,,,,,,,,,,,,,,,,,,,,,,,,,,,,,,,,,,,,,,,,,,,,,,,,,,,,,,,,,,,,,,,,,,,,,,,,,
0,1,1,45,1,,6128b6f850d39bf85a29211e,62c538a4e11c40b2f02aaeab,2022-07-06_09h25.36.436,Colour_Asymmetry_Pilot,2022.1.3,Win32,47.98694755,62c50e9c1127f2cd403a315f,,,,,,,,,,,,,,,,,,,,,,,,,,,,,,,,,,,,,,,,,,,,,,,,,,,,,,,,,,,,,,,,,,,,,,,,,,,,,,,,,,,,,,,,,,,,,,,,,,,,,,,,,,,,,,,,,,,,,,,,,,,,,,,,,,,,,,,,,,,,,,,,,,,,,,,,,,,,,,,,,,
0,2,2,64,1,,6128b6f850d39bf85a29211e,62c538a4e11c40b2f02aaeab,2022-07-06_09h25.36.436,Colour_Asymmetry_Pilot,2022.1.3,Win32,47.98694755,62c50e9c1127f2cd403a315f,,,,,,,,,,,,,,,,,,,,,,,,,,,,,,,,,,,,,,,,,,,,,,,,,,,,,,,,,,,,,,,,,,,,,,,,,,,,,,,,,,,,,,,,,,,,,,,,,,,,,,,,,,,,,,,,,,,,,,,,,,,,,,,,,,,,,,,,,,,,,,,,,,,,,,,,,,,,,,,,,,
0,3,3,52,1,,6128b6f850d39bf85a29211e,62c538a4e11c40b2f02aaeab,2022-07-06_09h25.36.436,Colour_Asymmetry_Pilot,2022.1.3,Win32,47.98694755,62c50e9c1127f2cd403a315f,,,,,,,,,,,,,,,,,,,,,,,,,,,,,,,,,,,,,,,,,,,,,,,,,,,,,,,,,,,,,,,,,,,,,,,,,,,,,,,,,,,,,,,,,,,,,,,,,,,,,,,,,,,,,,,,,,,,,,,,,,,,,,,,,,,,,,,,,,,,,,,,,,,,,,,,,,,,,,,,,,
0,4,4,35,1,,6128b6f850d39bf85a29211e,62c538a4e11c40b2f02aaeab,2022-07-06_09h25.36.436,Colour_Asymmetry_Pilot,2022.1.3,Win32,47.98694755,62c50e9c1127f2cd403a315f,,,,,,,,,,,,,,,,,,,,,,,,,,,,,,,,,,,,,,,,,,,,,,,,,,,,,,,,,,,,,,,,,,,,,,,,,,,,,,,,,,,,,,,,,,,,,,,,,,,,,,,,,,,,,,,,,,,,,,,,,,,,,,,,,,,,,,,,,,,,,,,,,,,,,,,,,,,,,,,,,,
0,5,5,44,1,,6128b6f850d39bf85a29211e,62c538a4e11c40b2f02aaeab,2022-07-06_09h25.36.436,Colour_Asymmetry_Pilot,2022.1.3,Win32,47.98694755,62c50e9c1127f2cd403a315f,,,,,,,,,,,,,,,,,,,,,,,,,,,,,,,,,,,,,,,,,,,,,,,,,,,,,,,,,,,,,,,,,,,,,,,,,,,,,,,,,,,,,,,,,,,,,,,,,,,,,,,,,,,,,,,,,,,,,,,,,,,,,,,,,,,,,,,,,,,,,,,,,,,,,,,,,,,,,,,,,,
0,6,6,80,1,,6128b6f850d39bf85a29211e,62c538a4e11c40b2f02aaeab,2022-07-06_09h25.36.436,Colour_Asymmetry_Pilot,2022.1.3,Win32,47.98694755,62c50e9c1127f2cd403a315f,,,,,,,,,,,,,,,,,,,,,,,,,,,,,,,,,,,,,,,,,,,,,,,,,,,,,,,,,,,,,,,,,,,,,,,,,,,,,,,,,,,,,,,,,,,,,,,,,,,,,,,,,,,,,,,,,,,,,,,,,,,,,,,,,,,,,,,,,,,,,,,,,,,,,,,,,,,,,,,,,,
0,7,7,26,1,,6128b6f850d39bf85a29211e,62c538a4e11c40b2f02aaeab,2022-07-06_09h25.36.436,Colour_Asymmetry_Pilot,2022.1.3,Win32,47.98694755,62c50e9c1127f2cd403a315f,,,,,,,,,,,,,,,,,,,,,,,,,,,,,,,,,,,,,,,,,,,,,,,,,,,,,,,,,,,,,,,,,,,,,,,,,,,,,,,,,,,,,,,,,,,,,,,,,,,,,,,,,,,,,,,,,,,,,,,,,,,,,,,,,,,,,,,,,,,,,,,,,,,,,,,,,,,,,,,,,,
0,8,8,86,1,,6128b6f850d39bf85a29211e,62c538a4e11c40b2f02aaeab,2022-07-06_09h25.36.436,Colour_Asymmetry_Pilot,2022.1.3,Win32,47.98694755,62c50e9c1127f2cd403a315f,,,,,,,,,,,,,,,,,,,,,,,,,,,,,,,,,,,,,,,,,,,,,,,,,,,,,,,,,,,,,,,,,,,,,,,,,,,,,,,,,,,,,,,,,,,,,,,,,,,,,,,,,,,,,,,,,,,,,,,,,,,,,,,,,,,,,,,,,,,,,,,,,,,,,,,,,,,,,,,,,,
0,9,9,15,1,,6128b6f850d39bf85a29211e,62c538a4e11c40b2f02aaeab,2022-07-06_09h25.36.436,Colour_Asymmetry_Pilot,2022.1.3,Win32,47.98694755,62c50e9c1127f2cd403a315f,,,,,,,,,,,,,,,,,,,,,,,,,,,,,,,,,,,,,,,,,,,,,,,,,,,,,,,,,,,,,,,,,,,,,,,,,,,,,,,,,,,,,,,,,,,,,,,,,,,,,,,,,,,,,,,,,,,,,,,,,,,,,,,,,,,,,,,,,,,,,,,,,,,,,,,,,,,,,,,,,,
0,10,10,91,1,,6128b6f850d39bf85a29211e,62c538a4e11c40b2f02aaeab,2022-07-06_09h25.36.436,Colour_Asymmetry_Pilot,2022.1.3,Win32,47.98694755,62c50e9c1127f2cd403a315f,,,,,,,,,,,,,,,,,,,,,,,,,,,,,,,,,,,,,,,,,,,,,,,,,,,,,,,,,,,,,,,,,,,,,,,,,,,,,,,,,,,,,,,,,,,,,,,,,,,,,,,,,,,,,,,,,,,,,,,,,,,,,,,,,,,,,,,,,,,,,,,,,,,,,,,,,,,,,,,,,,
0,11,11,12,1,,6128b6f850d39bf85a29211e,62c538a4e11c40b2f02aaeab,2022-07-06_09h25.36.436,Colour_Asymmetry_Pilot,2022.1.3,Win32,47.98694755,62c50e9c1127f2cd403a315f,,,,,,,,,,,,,,,,,,,,,,,,,,,,,,,,,,,,,,,,,,,,,,,,,,,,,,,,,,,,,,,,,,,,,,,,,,,,,,,,,,,,,,,,,,,,,,,,,,,,,,,,,,,,,,,,,,,,,,,,,,,,,,,,,,,,,,,,,,,,,,,,,,,,,,,,,,,,,,,,,,
0,12,12,74,1,,6128b6f850d39bf85a29211e,62c538a4e11c40b2f02aaeab,2022-07-06_09h25.36.436,Colour_Asymmetry_Pilot,2022.1.3,Win32,47.98694755,62c50e9c1127f2cd403a315f,,,,,,,,,,,,,,,,,,,,,,,,,,,,,,,,,,,,,,,,,,,,,,,,,,,,,,,,,,,,,,,,,,,,,,,,,,,,,,,,,,,,,,,,,,,,,,,,,,,,,,,,,,,,,,,,,,,,,,,,,,,,,,,,,,,,,,,,,,,,,,,,,,,,,,,,,,,,,,,,,,
0,13,13,5,1,,6128b6f850d39bf85a29211e,62c538a4e11c40b2f02aaeab,2022-07-06_09h25.36.436,Colour_Asymmetry_Pilot,2022.1.3,Win32,47.98694755,62c50e9c1127f2cd403a315f,,,,,,,,,,,,,,,,,,,,,,,,,,,,,,,,,,,,,,,,,,,,,,,,,,,,,,,,,,,,,,,,,,,,,,,,,,,,,,,,,,,,,,,,,,,,,,,,,,,,,,,,,,,,,,,,,,,,,,,,,,,,,,,,,,,,,,,,,,,,,,,,,,,,,,,,,,,,,,,,,,
0,14,14,23,1,,6128b6f850d39bf85a29211e,62c538a4e11c40b2f02aaeab,2022-07-06_09h25.36.436,Colour_Asymmetry_Pilot,2022.1.3,Win32,47.98694755,62c50e9c1127f2cd403a315f,,,,,,,,,,,,,,,,,,,,,,,,,,,,,,,,,,,,,,,,,,,,,,,,,,,,,,,,,,,,,,,,,,,,,,,,,,,,,,,,,,,,,,,,,,,,,,,,,,,,,,,,,,,,,,,,,,,,,,,,,,,,,,,,,,,,,,,,,,,,,,,,,,,,,,,,,,,,,,,,,,
0,15,15,51,1,,6128b6f850d39bf85a29211e,62c538a4e11c40b2f02aaeab,2022-07-06_09h25.36.436,Colour_Asymmetry_Pilot,2022.1.3,Win32,47.98694755,62c50e9c1127f2cd403a315f,,,,,,,,,,,,,,,,,,,,,,,,,,,,,,,,,,,,,,,,,,,,,,,,,,,,,,,,,,,,,,,,,,,,,,,,,,,,,,,,,,,,,,,,,,,,,,,,,,,,,,,,,,,,,,,,,,,,,,,,,,,,,,,,,,,,,,,,,,,,,,,,,,,,,,,,,,,,,,,,,,
0,16,16,58,1,,6128b6f850d39bf85a29211e,62c538a4e11c40b2f02aaeab,2022-07-06_09h25.36.436,Colour_Asymmetry_Pilot,2022.1.3,Win32,47.98694755,62c50e9c1127f2cd403a315f,,,,,,,,,,,,,,,,,,,,,,,,,,,,,,,,,,,,,,,,,,,,,,,,,,,,,,,,,,,,,,,,,,,,,,,,,,,,,,,,,,,,,,,,,,,,,,,,,,,,,,,,,,,,,,,,,,,,,,,,,,,,,,,,,,,,,,,,,,,,,,,,,,,,,,,,,,,,,,,,,,
0,17,17,30,1,,6128b6f850d39bf85a29211e,62c538a4e11c40b2f02aaeab,2022-07-06_09h25.36.436,Colour_Asymmetry_Pilot,2022.1.3,Win32,47.98694755,62c50e9c1127f2cd403a315f,,,,,,,,,,,,,,,,,,,,,,,,,,,,,,,,,,,,,,,,,,,,,,,,,,,,,,,,,,,,,,,,,,,,,,,,,,,,,,,,,,,,,,,,,,,,,,,,,,,,,,,,,,,,,,,,,,,,,,,,,,,,,,,,,,,,,,,,,,,,,,,,,,,,,,,,,,,,,,,,,,
0,18,18,28,1,,6128b6f850d39bf85a29211e,62c538a4e11c40b2f02aaeab,2022-07-06_09h25.36.436,Colour_Asymmetry_Pilot,2022.1.3,Win32,47.98694755,62c50e9c1127f2cd403a315f,,,,,,,,,,,,,,,,,,,,,,,,,,,,,,,,,,,,,,,,,,,,,,,,,,,,,,,,,,,,,,,,,,,,,,,,,,,,,,,,,,,,,,,,,,,,,,,,,,,,,,,,,,,,,,,,,,,,,,,,,,,,,,,,,,,,,,,,,,,,,,,,,,,,,,,,,,,,,,,,,,
0,19,19,43,1,,6128b6f850d39bf85a29211e,62c538a4e11c40b2f02aaeab,2022-07-06_09h25.36.436,Colour_Asymmetry_Pilot,2022.1.3,Win32,47.98694755,62c50e9c1127f2cd403a315f,,,,,,,,,,,,,,,,,,,,,,,,,,,,,,,,,,,,,,,,,,,,,,,,,,,,,,,,,,,,,,,,,,,,,,,,,,,,,,,,,,,,,,,,,,,,,,,,,,,,,,,,,,,,,,,,,,,,,,,,,,,,,,,,,,,,,,,,,,,,,,,,,,,,,,,,,,,,,,,,,,
0,20,20,48,1,,6128b6f850d39bf85a29211e,62c538a4e11c40b2f02aaeab,2022-07-06_09h25.36.436,Colour_Asymmetry_Pilot,2022.1.3,Win32,47.98694755,62c50e9c1127f2cd403a315f,,,,,,,,,,,,,,,,,,,,,,,,,,,,,,,,,,,,,,,,,,,,,,,,,,,,,,,,,,,,,,,,,,,,,,,,,,,,,,,,,,,,,,,,,,,,,,,,,,,,,,,,,,,,,,,,,,,,,,,,,,,,,,,,,,,,,,,,,,,,,,,,,,,,,,,,,,,,,,,,,,
0,21,21,19,1,,6128b6f850d39bf85a29211e,62c538a4e11c40b2f02aaeab,2022-07-06_09h25.36.436,Colour_Asymmetry_Pilot,2022.1.3,Win32,47.98694755,62c50e9c1127f2cd403a315f,,,,,,,,,,,,,,,,,,,,,,,,,,,,,,,,,,,,,,,,,,,,,,,,,,,,,,,,,,,,,,,,,,,,,,,,,,,,,,,,,,,,,,,,,,,,,,,,,,,,,,,,,,,,,,,,,,,,,,,,,,,,,,,,,,,,,,,,,,,,,,,,,,,,,,,,,,,,,,,,,,
0,22,22,77,1,,6128b6f850d39bf85a29211e,62c538a4e11c40b2f02aaeab,2022-07-06_09h25.36.436,Colour_Asymmetry_Pilot,2022.1.3,Win32,47.98694755,62c50e9c1127f2cd403a315f,,,,,,,,,,,,,,,,,,,,,,,,,,,,,,,,,,,,,,,,,,,,,,,,,,,,,,,,,,,,,,,,,,,,,,,,,,,,,,,,,,,,,,,,,,,,,,,,,,,,,,,,,,,,,,,,,,,,,,,,,,,,,,,,,,,,,,,,,,,,,,,,,,,,,,,,,,,,,,,,,,
0,23,23,72,1,,6128b6f850d39bf85a29211e,62c538a4e11c40b2f02aaeab,2022-07-06_09h25.36.436,Colour_Asymmetry_Pilot,2022.1.3,Win32,47.98694755,62c50e9c1127f2cd403a315f,,,,,,,,,,,,,,,,,,,,,,,,,,,,,,,,,,,,,,,,,,,,,,,,,,,,,,,,,,,,,,,,,,,,,,,,,,,,,,,,,,,,,,,,,,,,,,,,,,,,,,,,,,,,,,,,,,,,,,,,,,,,,,,,,,,,,,,,,,,,,,,,,,,,,,,,,,,,,,,,,,
0,24,24,21,1,,6128b6f850d39bf85a29211e,62c538a4e11c40b2f02aaeab,2022-07-06_09h25.36.436,Colour_Asymmetry_Pilot,2022.1.3,Win32,47.98694755,62c50e9c1127f2cd403a315f,,,,,,,,,,,,,,,,,,,,,,,,,,,,,,,,,,,,,,,,,,,,,,,,,,,,,,,,,,,,,,,,,,,,,,,,,,,,,,,,,,,,,,,,,,,,,,,,,,,,,,,,,,,,,,,,,,,,,,,,,,,,,,,,,,,,,,,,,,,,,,,,,,,,,,,,,,,,,,,,,,
0,25,25,49,1,,6128b6f850d39bf85a29211e,62c538a4e11c40b2f02aaeab,2022-07-06_09h25.36.436,Colour_Asymmetry_Pilot,2022.1.3,Win32,47.98694755,62c50e9c1127f2cd403a315f,,,,,,,,,,,,,,,,,,,,,,,,,,,,,,,,,,,,,,,,,,,,,,,,,,,,,,,,,,,,,,,,,,,,,,,,,,,,,,,,,,,,,,,,,,,,,,,,,,,,,,,,,,,,,,,,,,,,,,,,,,,,,,,,,,,,,,,,,,,,,,,,,,,,,,,,,,,,,,,,,,
0,26,26,70,1,,6128b6f850d39bf85a29211e,62c538a4e11c40b2f02aaeab,2022-07-06_09h25.36.436,Colour_Asymmetry_Pilot,2022.1.3,Win32,47.98694755,62c50e9c1127f2cd403a315f,,,,,,,,,,,,,,,,,,,,,,,,,,,,,,,,,,,,,,,,,,,,,,,,,,,,,,,,,,,,,,,,,,,,,,,,,,,,,,,,,,,,,,,,,,,,,,,,,,,,,,,,,,,,,,,,,,,,,,,,,,,,,,,,,,,,,,,,,,,,,,,,,,,,,,,,,,,,,,,,,,
0,27,27,65,1,,6128b6f850d39bf85a29211e,62c538a4e11c40b2f02aaeab,2022-07-06_09h25.36.436,Colour_Asymmetry_Pilot,2022.1.3,Win32,47.98694755,62c50e9c1127f2cd403a315f,,,,,,,,,,,,,,,,,,,,,,,,,,,,,,,,,,,,,,,,,,,,,,,,,,,,,,,,,,,,,,,,,,,,,,,,,,,,,,,,,,,,,,,,,,,,,,,,,,,,,,,,,,,,,,,,,,,,,,,,,,,,,,,,,,,,,,,,,,,,,,,,,,,,,,,,,,,,,,,,,,
0,28,28,33,1,,6128b6f850d39bf85a29211e,62c538a4e11c40b2f02aaeab,2022-07-06_09h25.36.436,Colour_Asymmetry_Pilot,2022.1.3,Win32,47.98694755,62c50e9c1127f2cd403a315f,,,,,,,,,,,,,,,,,,,,,,,,,,,,,,,,,,,,,,,,,,,,,,,,,,,,,,,,,,,,,,,,,,,,,,,,,,,,,,,,,,,,,,,,,,,,,,,,,,,,,,,,,,,,,,,,,,,,,,,,,,,,,,,,,,,,,,,,,,,,,,,,,,,,,,,,,,,,,,,,,,
0,29,29,90,1,,6128b6f850d39bf85a29211e,62c538a4e11c40b2f02aaeab,2022-07-06_09h25.36.436,Colour_Asymmetry_Pilot,2022.1.3,Win32,47.98694755,62c50e9c1127f2cd403a315f,,,,,,,,,,,,,,,,,,,,,,,,,,,,,,,,,,,,,,,,,,,,,,,,,,,,,,,,,,,,,,,,,,,,,,,,,,,,,,,,,,,,,,,,,,,,,,,,,,,,,,,,,,,,,,,,,,,,,,,,,,,,,,,,,,,,,,,,,,,,,,,,,,,,,,,,,,,,,,,,,,
0,30,30,9,1,,6128b6f850d39bf85a29211e,62c538a4e11c40b2f02aaeab,2022-07-06_09h25.36.436,Colour_Asymmetry_Pilot,2022.1.3,Win32,47.98694755,62c50e9c1127f2cd403a315f,,,,,,,,,,,,,,,,,,,,,,,,,,,,,,,,,,,,,,,,,,,,,,,,,,,,,,,,,,,,,,,,,,,,,,,,,,,,,,,,,,,,,,,,,,,,,,,,,,,,,,,,,,,,,,,,,,,,,,,,,,,,,,,,,,,,,,,,,,,,,,,,,,,,,,,,,,,,,,,,,,
0,31,31,16,1,,6128b6f850d39bf85a29211e,62c538a4e11c40b2f02aaeab,2022-07-06_09h25.36.436,Colour_Asymmetry_Pilot,2022.1.3,Win32,47.98694755,62c50e9c1127f2cd403a315f,,,,,,,,,,,,,,,,,,,,,,,,,,,,,,,,,,,,,,,,,,,,,,,,,,,,,,,,,,,,,,,,,,,,,,,,,,,,,,,,,,,,,,,,,,,,,,,,,,,,,,,,,,,,,,,,,,,,,,,,,,,,,,,,,,,,,,,,,,,,,,,,,,,,,,,,,,,,,,,,,,
0,32,32,24,1,,6128b6f850d39bf85a29211e,62c538a4e11c40b2f02aaeab,2022-07-06_09h25.36.436,Colour_Asymmetry_Pilot,2022.1.3,Win32,47.98694755,62c50e9c1127f2cd403a315f,,,,,,,,,,,,,,,,,,,,,,,,,,,,,,,,,,,,,,,,,,,,,,,,,,,,,,,,,,,,,,,,,,,,,,,,,,,,,,,,,,,,,,,,,,,,,,,,,,,,,,,,,,,,,,,,,,,,,,,,,,,,,,,,,,,,,,,,,,,,,,,,,,,,,,,,,,,,,,,,,,
0,33,33,66,1,,6128b6f850d39bf85a29211e,62c538a4e11c40b2f02aaeab,2022-07-06_09h25.36.436,Colour_Asymmetry_Pilot,2022.1.3,Win32,47.98694755,62c50e9c1127f2cd403a315f,,,,,,,,,,,,,,,,,,,,,,,,,,,,,,,,,,,,,,,,,,,,,,,,,,,,,,,,,,,,,,,,,,,,,,,,,,,,,,,,,,,,,,,,,,,,,,,,,,,,,,,,,,,,,,,,,,,,,,,,,,,,,,,,,,,,,,,,,,,,,,,,,,,,,,,,,,,,,,,,,,
0,34,34,37,1,,6128b6f850d39bf85a29211e,62c538a4e11c40b2f02aaeab,2022-07-06_09h25.36.436,Colour_Asymmetry_Pilot,2022.1.3,Win32,47.98694755,62c50e9c1127f2cd403a315f,,,,,,,,,,,,,,,,,,,,,,,,,,,,,,,,,,,,,,,,,,,,,,,,,,,,,,,,,,,,,,,,,,,,,,,,,,,,,,,,,,,,,,,,,,,,,,,,,,,,,,,,,,,,,,,,,,,,,,,,,,,,,,,,,,,,,,,,,,,,,,,,,,,,,,,,,,,,,,,,,,
0,35,35,36,1,,6128b6f850d39bf85a29211e,62c538a4e11c40b2f02aaeab,2022-07-06_09h25.36.436,Colour_Asymmetry_Pilot,2022.1.3,Win32,47.98694755,62c50e9c1127f2cd403a315f,,,,,,,,,,,,,,,,,,,,,,,,,,,,,,,,,,,,,,,,,,,,,,,,,,,,,,,,,,,,,,,,,,,,,,,,,,,,,,,,,,,,,,,,,,,,,,,,,,,,,,,,,,,,,,,,,,,,,,,,,,,,,,,,,,,,,,,,,,,,,,,,,,,,,,,,,,,,,,,,,,
0,36,36,71,1,,6128b6f850d39bf85a29211e,62c538a4e11c40b2f02aaeab,2022-07-06_09h25.36.436,Colour_Asymmetry_Pilot,2022.1.3,Win32,47.98694755,62c50e9c1127f2cd403a315f,,,,,,,,,,,,,,,,,,,,,,,,,,,,,,,,,,,,,,,,,,,,,,,,,,,,,,,,,,,,,,,,,,,,,,,,,,,,,,,,,,,,,,,,,,,,,,,,,,,,,,,,,,,,,,,,,,,,,,,,,,,,,,,,,,,,,,,,,,,,,,,,,,,,,,,,,,,,,,,,,,
0,37,37,78,1,,6128b6f850d39bf85a29211e,62c538a4e11c40b2f02aaeab,2022-07-06_09h25.36.436,Colour_Asymmetry_Pilot,2022.1.3,Win32,47.98694755,62c50e9c1127f2cd403a315f,,,,,,,,,,,,,,,,,,,,,,,,,,,,,,,,,,,,,,,,,,,,,,,,,,,,,,,,,,,,,,,,,,,,,,,,,,,,,,,,,,,,,,,,,,,,,,,,,,,,,,,,,,,,,,,,,,,,,,,,,,,,,,,,,,,,,,,,,,,,,,,,,,,,,,,,,,,,,,,,,,
0,38,38,7,1,,6128b6f850d39bf85a29211e,62c538a4e11c40b2f02aaeab,2022-07-06_09h25.36.436,Colour_Asymmetry_Pilot,2022.1.3,Win32,47.98694755,62c50e9c1127f2cd403a315f,,,,,,,,,,,,,,,,,,,,,,,,,,,,,,,,,,,,,,,,,,,,,,,,,,,,,,,,,,,,,,,,,,,,,,,,,,,,,,,,,,,,,,,,,,,,,,,,,,,,,,,,,,,,,,,,,,,,,,,,,,,,,,,,,,,,,,,,,,,,,,,,,,,,,,,,,,,,,,,,,,
0,39,39,54,1,,6128b6f850d39bf85a29211e,62c538a4e11c40b2f02aaeab,2022-07-06_09h25.36.436,Colour_Asymmetry_Pilot,2022.1.3,Win32,47.98694755,62c50e9c1127f2cd403a315f,,,,,,,,,,,,,,,,,,,,,,,,,,,,,,,,,,,,,,,,,,,,,,,,,,,,,,,,,,,,,,,,,,,,,,,,,,,,,,,,,,,,,,,,,,,,,,,,,,,,,,,,,,,,,,,,,,,,,,,,,,,,,,,,,,,,,,,,,,,,,,,,,,,,,,,,,,,,,,,,,,
0,40,40,73,1,,6128b6f850d39bf85a29211e,62c538a4e11c40b2f02aaeab,2022-07-06_09h25.36.436,Colour_Asymmetry_Pilot,2022.1.3,Win32,47.98694755,62c50e9c1127f2cd403a315f,,,,,,,,,,,,,,,,,,,,,,,,,,,,,,,,,,,,,,,,,,,,,,,,,,,,,,,,,,,,,,,,,,,,,,,,,,,,,,,,,,,,,,,,,,,,,,,,,,,,,,,,,,,,,,,,,,,,,,,,,,,,,,,,,,,,,,,,,,,,,,,,,,,,,,,,,,,,,,,,,,
0,41,41,46,1,,6128b6f850d39bf85a29211e,62c538a4e11c40b2f02aaeab,2022-07-06_09h25.36.436,Colour_Asymmetry_Pilot,2022.1.3,Win32,47.98694755,62c50e9c1127f2cd403a315f,,,,,,,,,,,,,,,,,,,,,,,,,,,,,,,,,,,,,,,,,,,,,,,,,,,,,,,,,,,,,,,,,,,,,,,,,,,,,,,,,,,,,,,,,,,,,,,,,,,,,,,,,,,,,,,,,,,,,,,,,,,,,,,,,,,,,,,,,,,,,,,,,,,,,,,,,,,,,,,,,,
0,42,42,31,1,,6128b6f850d39bf85a29211e,62c538a4e11c40b2f02aaeab,2022-07-06_09h25.36.436,Colour_Asymmetry_Pilot,2022.1.3,Win32,47.98694755,62c50e9c1127f2cd403a315f,,,,,,,,,,,,,,,,,,,,,,,,,,,,,,,,,,,,,,,,,,,,,,,,,,,,,,,,,,,,,,,,,,,,,,,,,,,,,,,,,,,,,,,,,,,,,,,,,,,,,,,,,,,,,,,,,,,,,,,,,,,,,,,,,,,,,,,,,,,,,,,,,,,,,,,,,,,,,,,,,,
0,43,43,69,1,,6128b6f850d39bf85a29211e,62c538a4e11c40b2f02aaeab,2022-07-06_09h25.36.436,Colour_Asymmetry_Pilot,2022.1.3,Win32,47.98694755,62c50e9c1127f2cd403a315f,,,,,,,,,,,,,,,,,,,,,,,,,,,,,,,,,,,,,,,,,,,,,,,,,,,,,,,,,,,,,,,,,,,,,,,,,,,,,,,,,,,,,,,,,,,,,,,,,,,,,,,,,,,,,,,,,,,,,,,,,,,,,,,,,,,,,,,,,,,,,,,,,,,,,,,,,,,,,,,,,,
0,44,44,32,1,,6128b6f850d39bf85a29211e,62c538a4e11c40b2f02aaeab,2022-07-06_09h25.36.436,Colour_Asymmetry_Pilot,2022.1.3,Win32,47.98694755,62c50e9c1127f2cd403a315f,,,,,,,,,,,,,,,,,,,,,,,,,,,,,,,,,,,,,,,,,,,,,,,,,,,,,,,,,,,,,,,,,,,,,,,,,,,,,,,,,,,,,,,,,,,,,,,,,,,,,,,,,,,,,,,,,,,,,,,,,,,,,,,,,,,,,,,,,,,,,,,,,,,,,,,,,,,,,,,,,,
0,45,45,6,1,,6128b6f850d39bf85a29211e,62c538a4e11c40b2f02aaeab,2022-07-06_09h25.36.436,Colour_Asymmetry_Pilot,2022.1.3,Win32,47.98694755,62c50e9c1127f2cd403a315f,,,,,,,,,,,,,,,,,,,,,,,,,,,,,,,,,,,,,,,,,,,,,,,,,,,,,,,,,,,,,,,,,,,,,,,,,,,,,,,,,,,,,,,,,,,,,,,,,,,,,,,,,,,,,,,,,,,,,,,,,,,,,,,,,,,,,,,,,,,,,,,,,,,,,,,,,,,,,,,,,,
0,46,46,34,1,,6128b6f850d39bf85a29211e,62c538a4e11c40b2f02aaeab,2022-07-06_09h25.36.436,Colour_Asymmetry_Pilot,2022.1.3,Win32,47.98694755,62c50e9c1127f2cd403a315f,,,,,,,,,,,,,,,,,,,,,,,,,,,,,,,,,,,,,,,,,,,,,,,,,,,,,,,,,,,,,,,,,,,,,,,,,,,,,,,,,,,,,,,,,,,,,,,,,,,,,,,,,,,,,,,,,,,,,,,,,,,,,,,,,,,,,,,,,,,,,,,,,,,,,,,,,,,,,,,,,,
0,47,47,85,1,,6128b6f850d39bf85a29211e,62c538a4e11c40b2f02aaeab,2022-07-06_09h25.36.436,Colour_Asymmetry_Pilot,2022.1.3,Win32,47.98694755,62c50e9c1127f2cd403a315f,,,,,,,,,,,,,,,,,,,,,,,,,,,,,,,,,,,,,,,,,,,,,,,,,,,,,,,,,,,,,,,,,,,,,,,,,,,,,,,,,,,,,,,,,,,,,,,,,,,,,,,,,,,,,,,,,,,,,,,,,,,,,,,,,,,,,,,,,,,,,,,,,,,,,,,,,,,,,,,,,,
0,48,48,27,1,,6128b6f850d39bf85a29211e,62c538a4e11c40b2f02aaeab,2022-07-06_09h25.36.436,Colour_Asymmetry_Pilot,2022.1.3,Win32,47.98694755,62c50e9c1127f2cd403a315f,,,,,,,,,,,,,,,,,,,,,,,,,,,,,,,,,,,,,,,,,,,,,,,,,,,,,,,,,,,,,,,,,,,,,,,,,,,,,,,,,,,,,,,,,,,,,,,,,,,,,,,,,,,,,,,,,,,,,,,,,,,,,,,,,,,,,,,,,,,,,,,,,,,,,,,,,,,,,,,,,,
0,49,49,50,1,,6128b6f850d39bf85a29211e,62c538a4e11c40b2f02aaeab,2022-07-06_09h25.36.436,Colour_Asymmetry_Pilot,2022.1.3,Win32,47.98694755,62c50e9c1127f2cd403a315f,,,,,,,,,,,,,,,,,,,,,,,,,,,,,,,,,,,,,,,,,,,,,,,,,,,,,,,,,,,,,,,,,,,,,,,,,,,,,,,,,,,,,,,,,,,,,,,,,,,,,,,,,,,,,,,,,,,,,,,,,,,,,,,,,,,,,,,,,,,,,,,,,,,,,,,,,,,,,,,,,,
0,50,50,53,1,,6128b6f850d39bf85a29211e,62c538a4e11c40b2f02aaeab,2022-07-06_09h25.36.436,Colour_Asymmetry_Pilot,2022.1.3,Win32,47.98694755,62c50e9c1127f2cd403a315f,,,,,,,,,,,,,,,,,,,,,,,,,,,,,,,,,,,,,,,,,,,,,,,,,,,,,,,,,,,,,,,,,,,,,,,,,,,,,,,,,,,,,,,,,,,,,,,,,,,,,,,,,,,,,,,,,,,,,,,,,,,,,,,,,,,,,,,,,,,,,,,,,,,,,,,,,,,,,,,,,,
0,51,51,87,1,,6128b6f850d39bf85a29211e,62c538a4e11c40b2f02aaeab,2022-07-06_09h25.36.436,Colour_Asymmetry_Pilot,2022.1.3,Win32,47.98694755,62c50e9c1127f2cd403a315f,,,,,,,,,,,,,,,,,,,,,,,,,,,,,,,,,,,,,,,,,,,,,,,,,,,,,,,,,,,,,,,,,,,,,,,,,,,,,,,,,,,,,,,,,,,,,,,,,,,,,,,,,,,,,,,,,,,,,,,,,,,,,,,,,,,,,,,,,,,,,,,,,,,,,,,,,,,,,,,,,,
0,52,52,62,1,,6128b6f850d39bf85a29211e,62c538a4e11c40b2f02aaeab,2022-07-06_09h25.36.436,Colour_Asymmetry_Pilot,2022.1.3,Win32,47.98694755,62c50e9c1127f2cd403a315f,,,,,,,,,,,,,,,,,,,,,,,,,,,,,,,,,,,,,,,,,,,,,,,,,,,,,,,,,,,,,,,,,,,,,,,,,,,,,,,,,,,,,,,,,,,,,,,,,,,,,,,,,,,,,,,,,,,,,,,,,,,,,,,,,,,,,,,,,,,,,,,,,,,,,,,,,,,,,,,,,,
0,53,53,2,1,,6128b6f850d39bf85a29211e,62c538a4e11c40b2f02aaeab,2022-07-06_09h25.36.436,Colour_Asymmetry_Pilot,2022.1.3,Win32,47.98694755,62c50e9c1127f2cd403a315f,,,,,,,,,,,,,,,,,,,,,,,,,,,,,,,,,,,,,,,,,,,,,,,,,,,,,,,,,,,,,,,,,,,,,,,,,,,,,,,,,,,,,,,,,,,,,,,,,,,,,,,,,,,,,,,,,,,,,,,,,,,,,,,,,,,,,,,,,,,,,,,,,,,,,,,,,,,,,,,,,,
0,54,54,92,1,,6128b6f850d39bf85a29211e,62c538a4e11c40b2f02aaeab,2022-07-06_09h25.36.436,Colour_Asymmetry_Pilot,2022.1.3,Win32,47.98694755,62c50e9c1127f2cd403a315f,,,,,,,,,,,,,,,,,,,,,,,,,,,,,,,,,,,,,,,,,,,,,,,,,,,,,,,,,,,,,,,,,,,,,,,,,,,,,,,,,,,,,,,,,,,,,,,,,,,,,,,,,,,,,,,,,,,,,,,,,,,,,,,,,,,,,,,,,,,,,,,,,,,,,,,,,,,,,,,,,,
0,55,55,55,1,,6128b6f850d39bf85a29211e,62c538a4e11c40b2f02aaeab,2022-07-06_09h25.36.436,Colour_Asymmetry_Pilot,2022.1.3,Win32,47.98694755,62c50e9c1127f2cd403a315f,,,,,,,,,,,,,,,,,,,,,,,,,,,,,,,,,,,,,,,,,,,,,,,,,,,,,,,,,,,,,,,,,,,,,,,,,,,,,,,,,,,,,,,,,,,,,,,,,,,,,,,,,,,,,,,,,,,,,,,,,,,,,,,,,,,,,,,,,,,,,,,,,,,,,,,,,,,,,,,,,,
0,56,56,22,1,,6128b6f850d39bf85a29211e,62c538a4e11c40b2f02aaeab,2022-07-06_09h25.36.436,Colour_Asymmetry_Pilot,2022.1.3,Win32,47.98694755,62c50e9c1127f2cd403a315f,,,,,,,,,,,,,,,,,,,,,,,,,,,,,,,,,,,,,,,,,,,,,,,,,,,,,,,,,,,,,,,,,,,,,,,,,,,,,,,,,,,,,,,,,,,,,,,,,,,,,,,,,,,,,,,,,,,,,,,,,,,,,,,,,,,,,,,,,,,,,,,,,,,,,,,,,,,,,,,,,,
0,57,57,60,1,,6128b6f850d39bf85a29211e,62c538a4e11c40b2f02aaeab,2022-07-06_09h25.36.436,Colour_Asymmetry_Pilot,2022.1.3,Win32,47.98694755,62c50e9c1127f2cd403a315f,,,,,,,,,,,,,,,,,,,,,,,,,,,,,,,,,,,,,,,,,,,,,,,,,,,,,,,,,,,,,,,,,,,,,,,,,,,,,,,,,,,,,,,,,,,,,,,,,,,,,,,,,,,,,,,,,,,,,,,,,,,,,,,,,,,,,,,,,,,,,,,,,,,,,,,,,,,,,,,,,,
0,58,58,3,1,,6128b6f850d39bf85a29211e,62c538a4e11c40b2f02aaeab,2022-07-06_09h25.36.436,Colour_Asymmetry_Pilot,2022.1.3,Win32,47.98694755,62c50e9c1127f2cd403a315f,,,,,,,,,,,,,,,,,,,,,,,,,,,,,,,,,,,,,,,,,,,,,,,,,,,,,,,,,,,,,,,,,,,,,,,,,,,,,,,,,,,,,,,,,,,,,,,,,,,,,,,,,,,,,,,,,,,,,,,,,,,,,,,,,,,,,,,,,,,,,,,,,,,,,,,,,,,,,,,,,,
0,59,59,63,1,,6128b6f850d39bf85a29211e,62c538a4e11c40b2f02aaeab,2022-07-06_09h25.36.436,Colour_Asymmetry_Pilot,2022.1.3,Win32,47.98694755,62c50e9c1127f2cd403a315f,,,,,,,,,,,,,,,,,,,,,,,,,,,,,,,,,,,,,,,,,,,,,,,,,,,,,,,,,,,,,,,,,,,,,,,,,,,,,,,,,,,,,,,,,,,,,,,,,,,,,,,,,,,,,,,,,,,,,,,,,,,,,,,,,,,,,,,,,,,,,,,,,,,,,,,,,,,,,,,,,,
0,60,60,47,1,,6128b6f850d39bf85a29211e,62c538a4e11c40b2f02aaeab,2022-07-06_09h25.36.436,Colour_Asymmetry_Pilot,2022.1.3,Win32,47.98694755,62c50e9c1127f2cd403a315f,,,,,,,,,,,,,,,,,,,,,,,,,,,,,,,,,,,,,,,,,,,,,,,,,,,,,,,,,,,,,,,,,,,,,,,,,,,,,,,,,,,,,,,,,,,,,,,,,,,,,,,,,,,,,,,,,,,,,,,,,,,,,,,,,,,,,,,,,,,,,,,,,,,,,,,,,,,,,,,,,,
0,61,61,41,1,,6128b6f850d39bf85a29211e,62c538a4e11c40b2f02aaeab,2022-07-06_09h25.36.436,Colour_Asymmetry_Pilot,2022.1.3,Win32,47.98694755,62c50e9c1127f2cd403a315f,,,,,,,,,,,,,,,,,,,,,,,,,,,,,,,,,,,,,,,,,,,,,,,,,,,,,,,,,,,,,,,,,,,,,,,,,,,,,,,,,,,,,,,,,,,,,,,,,,,,,,,,,,,,,,,,,,,,,,,,,,,,,,,,,,,,,,,,,,,,,,,,,,,,,,,,,,,,,,,,,,
0,62,62,20,1,,6128b6f850d39bf85a29211e,62c538a4e11c40b2f02aaeab,2022-07-06_09h25.36.436,Colour_Asymmetry_Pilot,2022.1.3,Win32,47.98694755,62c50e9c1127f2cd403a315f,,,,,,,,,,,,,,,,,,,,,,,,,,,,,,,,,,,,,,,,,,,,,,,,,,,,,,,,,,,,,,,,,,,,,,,,,,,,,,,,,,,,,,,,,,,,,,,,,,,,,,,,,,,,,,,,,,,,,,,,,,,,,,,,,,,,,,,,,,,,,,,,,,,,,,,,,,,,,,,,,,
0,63,63,56,1,,6128b6f850d39bf85a29211e,62c538a4e11c40b2f02aaeab,2022-07-06_09h25.36.436,Colour_Asymmetry_Pilot,2022.1.3,Win32,47.98694755,62c50e9c1127f2cd403a315f,,,,,,,,,,,,,,,,,,,,,,,,,,,,,,,,,,,,,,,,,,,,,,,,,,,,,,,,,,,,,,,,,,,,,,,,,,,,,,,,,,,,,,,,,,,,,,,,,,,,,,,,,,,,,,,,,,,,,,,,,,,,,,,,,,,,,,,,,,,,,,,,,,,,,,,,,,,,,,,,,,
0,64,64,0,1,,6128b6f850d39bf85a29211e,62c538a4e11c40b2f02aaeab,2022-07-06_09h25.36.436,Colour_Asymmetry_Pilot,2022.1.3,Win32,47.98694755,62c50e9c1127f2cd403a315f,,,,,,,,,,,,,,,,,,,,,,,,,,,,,,,,,,,,,,,,,,,,,,,,,,,,,,,,,,,,,,,,,,,,,,,,,,,,,,,,,,,,,,,,,,,,,,,,,,,,,,,,,,,,,,,,,,,,,,,,,,,,,,,,,,,,,,,,,,,,,,,,,,,,,,,,,,,,,,,,,,
0,65,65,59,1,,6128b6f850d39bf85a29211e,62c538a4e11c40b2f02aaeab,2022-07-06_09h25.36.436,Colour_Asymmetry_Pilot,2022.1.3,Win32,47.98694755,62c50e9c1127f2cd403a315f,,,,,,,,,,,,,,,,,,,,,,,,,,,,,,,,,,,,,,,,,,,,,,,,,,,,,,,,,,,,,,,,,,,,,,,,,,,,,,,,,,,,,,,,,,,,,,,,,,,,,,,,,,,,,,,,,,,,,,,,,,,,,,,,,,,,,,,,,,,,,,,,,,,,,,,,,,,,,,,,,,
0,66,66,42,1,,6128b6f850d39bf85a29211e,62c538a4e11c40b2f02aaeab,2022-07-06_09h25.36.436,Colour_Asymmetry_Pilot,2022.1.3,Win32,47.98694755,62c50e9c1127f2cd403a315f,,,,,,,,,,,,,,,,,,,,,,,,,,,,,,,,,,,,,,,,,,,,,,,,,,,,,,,,,,,,,,,,,,,,,,,,,,,,,,,,,,,,,,,,,,,,,,,,,,,,,,,,,,,,,,,,,,,,,,,,,,,,,,,,,,,,,,,,,,,,,,,,,,,,,,,,,,,,,,,,,,
0,67,67,39,1,,6128b6f850d39bf85a29211e,62c538a4e11c40b2f02aaeab,2022-07-06_09h25.36.436,Colour_Asymmetry_Pilot,2022.1.3,Win32,47.98694755,62c50e9c1127f2cd403a315f,,,,,,,,,,,,,,,,,,,,,,,,,,,,,,,,,,,,,,,,,,,,,,,,,,,,,,,,,,,,,,,,,,,,,,,,,,,,,,,,,,,,,,,,,,,,,,,,,,,,,,,,,,,,,,,,,,,,,,,,,,,,,,,,,,,,,,,,,,,,,,,,,,,,,,,,,,,,,,,,,,
0,68,68,84,1,,6128b6f850d39bf85a29211e,62c538a4e11c40b2f02aaeab,2022-07-06_09h25.36.436,Colour_Asymmetry_Pilot,2022.1.3,Win32,47.98694755,62c50e9c1127f2cd403a315f,,,,,,,,,,,,,,,,,,,,,,,,,,,,,,,,,,,,,,,,,,,,,,,,,,,,,,,,,,,,,,,,,,,,,,,,,,,,,,,,,,,,,,,,,,,,,,,,,,,,,,,,,,,,,,,,,,,,,,,,,,,,,,,,,,,,,,,,,,,,,,,,,,,,,,,,,,,,,,,,,,
0,69,69,81,1,,6128b6f850d39bf85a29211e,62c538a4e11c40b2f02aaeab,2022-07-06_09h25.36.436,Colour_Asymmetry_Pilot,2022.1.3,Win32,47.98694755,62c50e9c1127f2cd403a315f,,,,,,,,,,,,,,,,,,,,,,,,,,,,,,,,,,,,,,,,,,,,,,,,,,,,,,,,,,,,,,,,,,,,,,,,,,,,,,,,,,,,,,,,,,,,,,,,,,,,,,,,,,,,,,,,,,,,,,,,,,,,,,,,,,,,,,,,,,,,,,,,,,,,,,,,,,,,,,,,,,
0,70,70,67,1,,6128b6f850d39bf85a29211e,62c538a4e11c40b2f02aaeab,2022-07-06_09h25.36.436,Colour_Asymmetry_Pilot,2022.1.3,Win32,47.98694755,62c50e9c1127f2cd403a315f,,,,,,,,,,,,,,,,,,,,,,,,,,,,,,,,,,,,,,,,,,,,,,,,,,,,,,,,,,,,,,,,,,,,,,,,,,,,,,,,,,,,,,,,,,,,,,,,,,,,,,,,,,,,,,,,,,,,,,,,,,,,,,,,,,,,,,,,,,,,,,,,,,,,,,,,,,,,,,,,,,
0,71,71,89,1,,6128b6f850d39bf85a29211e,62c538a4e11c40b2f02aaeab,2022-07-06_09h25.36.436,Colour_Asymmetry_Pilot,2022.1.3,Win32,47.98694755,62c50e9c1127f2cd403a315f,,,,,,,,,,,,,,,,,,,,,,,,,,,,,,,,,,,,,,,,,,,,,,,,,,,,,,,,,,,,,,,,,,,,,,,,,,,,,,,,,,,,,,,,,,,,,,,,,,,,,,,,,,,,,,,,,,,,,,,,,,,,,,,,,,,,,,,,,,,,,,,,,,,,,,,,,,,,,,,,,,
0,72,72,76,1,,6128b6f850d39bf85a29211e,62c538a4e11c40b2f02aaeab,2022-07-06_09h25.36.436,Colour_Asymmetry_Pilot,2022.1.3,Win32,47.98694755,62c50e9c1127f2cd403a315f,,,,,,,,,,,,,,,,,,,,,,,,,,,,,,,,,,,,,,,,,,,,,,,,,,,,,,,,,,,,,,,,,,,,,,,,,,,,,,,,,,,,,,,,,,,,,,,,,,,,,,,,,,,,,,,,,,,,,,,,,,,,,,,,,,,,,,,,,,,,,,,,,,,,,,,,,,,,,,,,,,
0,73,73,75,1,,6128b6f850d39bf85a29211e,62c538a4e11c40b2f02aaeab,2022-07-06_09h25.36.436,Colour_Asymmetry_Pilot,2022.1.3,Win32,47.98694755,62c50e9c1127f2cd403a315f,,,,,,,,,,,,,,,,,,,,,,,,,,,,,,,,,,,,,,,,,,,,,,,,,,,,,,,,,,,,,,,,,,,,,,,,,,,,,,,,,,,,,,,,,,,,,,,,,,,,,,,,,,,,,,,,,,,,,,,,,,,,,,,,,,,,,,,,,,,,,,,,,,,,,,,,,,,,,,,,,,
0,74,74,88,1,,6128b6f850d39bf85a29211e,62c538a4e11c40b2f02aaeab,2022-07-06_09h25.36.436,Colour_Asymmetry_Pilot,2022.1.3,Win32,47.98694755,62c50e9c1127f2cd403a315f,,,,,,,,,,,,,,,,,,,,,,,,,,,,,,,,,,,,,,,,,,,,,,,,,,,,,,,,,,,,,,,,,,,,,,,,,,,,,,,,,,,,,,,,,,,,,,,,,,,,,,,,,,,,,,,,,,,,,,,,,,,,,,,,,,,,,,,,,,,,,,,,,,,,,,,,,,,,,,,,,,
0,75,75,10,1,,6128b6f850d39bf85a29211e,62c538a4e11c40b2f02aaeab,2022-07-06_09h25.36.436,Colour_Asymmetry_Pilot,2022.1.3,Win32,47.98694755,62c50e9c1127f2cd403a315f,,,,,,,,,,,,,,,,,,,,,,,,,,,,,,,,,,,,,,,,,,,,,,,,,,,,,,,,,,,,,,,,,,,,,,,,,,,,,,,,,,,,,,,,,,,,,,,,,,,,,,,,,,,,,,,,,,,,,,,,,,,,,,,,,,,,,,,,,,,,,,,,,,,,,,,,,,,,,,,,,,
0,76,76,68,1,,6128b6f850d39bf85a29211e,62c538a4e11c40b2f02aaeab,2022-07-06_09h25.36.436,Colour_Asymmetry_Pilot,2022.1.3,Win32,47.98694755,62c50e9c1127f2cd403a315f,,,,,,,,,,,,,,,,,,,,,,,,,,,,,,,,,,,,,,,,,,,,,,,,,,,,,,,,,,,,,,,,,,,,,,,,,,,,,,,,,,,,,,,,,,,,,,,,,,,,,,,,,,,,,,,,,,,,,,,,,,,,,,,,,,,,,,,,,,,,,,,,,,,,,,,,,,,,,,,,,,
0,77,77,29,1,,6128b6f850d39bf85a29211e,62c538a4e11c40b2f02aaeab,2022-07-06_09h25.36.436,Colour_Asymmetry_Pilot,2022.1.3,Win32,47.98694755,62c50e9c1127f2cd403a315f,,,,,,,,,,,,,,,,,,,,,,,,,,,,,,,,,,,,,,,,,,,,,,,,,,,,,,,,,,,,,,,,,,,,,,,,,,,,,,,,,,,,,,,,,,,,,,,,,,,,,,,,,,,,,,,,,,,,,,,,,,,,,,,,,,,,,,,,,,,,,,,,,,,,,,,,,,,,,,,,,,
0,78,78,38,1,,6128b6f850d39bf85a29211e,62c538a4e11c40b2f02aaeab,2022-07-06_09h25.36.436,Colour_Asymmetry_Pilot,2022.1.3,Win32,47.98694755,62c50e9c1127f2cd403a315f,,,,,,,,,,,,,,,,,,,,,,,,,,,,,,,,,,,,,,,,,,,,,,,,,,,,,,,,,,,,,,,,,,,,,,,,,,,,,,,,,,,,,,,,,,,,,,,,,,,,,,,,,,,,,,,,,,,,,,,,,,,,,,,,,,,,,,,,,,,,,,,,,,,,,,,,,,,,,,,,,,
0,79,79,79,1,,6128b6f850d39bf85a29211e,62c538a4e11c40b2f02aaeab,2022-07-06_09h25.36.436,Colour_Asymmetry_Pilot,2022.1.3,Win32,47.98694755,62c50e9c1127f2cd403a315f,,,,,,,,,,,,,,,,,,,,,,,,,,,,,,,,,,,,,,,,,,,,,,,,,,,,,,,,,,,,,,,,,,,,,,,,,,,,,,,,,,,,,,,,,,,,,,,,,,,,,,,,,,,,,,,,,,,,,,,,,,,,,,,,,,,,,,,,,,,,,,,,,,,,,,,,,,,,,,,,,,
0,80,80,14,1,,6128b6f850d39bf85a29211e,62c538a4e11c40b2f02aaeab,2022-07-06_09h25.36.436,Colour_Asymmetry_Pilot,2022.1.3,Win32,47.98694755,62c50e9c1127f2cd403a315f,,,,,,,,,,,,,,,,,,,,,,,,,,,,,,,,,,,,,,,,,,,,,,,,,,,,,,,,,,,,,,,,,,,,,,,,,,,,,,,,,,,,,,,,,,,,,,,,,,,,,,,,,,,,,,,,,,,,,,,,,,,,,,,,,,,,,,,,,,,,,,,,,,,,,,,,,,,,,,,,,,
0,81,81,18,1,,6128b6f850d39bf85a29211e,62c538a4e11c40b2f02aaeab,2022-07-06_09h25.36.436,Colour_Asymmetry_Pilot,2022.1.3,Win32,47.98694755,62c50e9c1127f2cd403a315f,,,,,,,,,,,,,,,,,,,,,,,,,,,,,,,,,,,,,,,,,,,,,,,,,,,,,,,,,,,,,,,,,,,,,,,,,,,,,,,,,,,,,,,,,,,,,,,,,,,,,,,,,,,,,,,,,,,,,,,,,,,,,,,,,,,,,,,,,,,,,,,,,,,,,,,,,,,,,,,,,,
0,82,82,17,1,,6128b6f850d39bf85a29211e,62c538a4e11c40b2f02aaeab,2022-07-06_09h25.36.436,Colour_Asymmetry_Pilot,2022.1.3,Win32,47.98694755,62c50e9c1127f2cd403a315f,,,,,,,,,,,,,,,,,,,,,,,,,,,,,,,,,,,,,,,,,,,,,,,,,,,,,,,,,,,,,,,,,,,,,,,,,,,,,,,,,,,,,,,,,,,,,,,,,,,,,,,,,,,,,,,,,,,,,,,,,,,,,,,,,,,,,,,,,,,,,,,,,,,,,,,,,,,,,,,,,,
0,83,83,11,1,,6128b6f850d39bf85a29211e,62c538a4e11c40b2f02aaeab,2022-07-06_09h25.36.436,Colour_Asymmetry_Pilot,2022.1.3,Win32,47.98694755,62c50e9c1127f2cd403a315f,,,,,,,,,,,,,,,,,,,,,,,,,,,,,,,,,,,,,,,,,,,,,,,,,,,,,,,,,,,,,,,,,,,,,,,,,,,,,,,,,,,,,,,,,,,,,,,,,,,,,,,,,,,,,,,,,,,,,,,,,,,,,,,,,,,,,,,,,,,,,,,,,,,,,,,,,,,,,,,,,,
0,84,84,4,1,,6128b6f850d39bf85a29211e,62c538a4e11c40b2f02aaeab,2022-07-06_09h25.36.436,Colour_Asymmetry_Pilot,2022.1.3,Win32,47.98694755,62c50e9c1127f2cd403a315f,,,,,,,,,,,,,,,,,,,,,,,,,,,,,,,,,,,,,,,,,,,,,,,,,,,,,,,,,,,,,,,,,,,,,,,,,,,,,,,,,,,,,,,,,,,,,,,,,,,,,,,,,,,,,,,,,,,,,,,,,,,,,,,,,,,,,,,,,,,,,,,,,,,,,,,,,,,,,,,,,,
0,85,85,83,1,,6128b6f850d39bf85a29211e,62c538a4e11c40b2f02aaeab,2022-07-06_09h25.36.436,Colour_Asymmetry_Pilot,2022.1.3,Win32,47.98694755,62c50e9c1127f2cd403a315f,,,,,,,,,,,,,,,,,,,,,,,,,,,,,,,,,,,,,,,,,,,,,,,,,,,,,,,,,,,,,,,,,,,,,,,,,,,,,,,,,,,,,,,,,,,,,,,,,,,,,,,,,,,,,,,,,,,,,,,,,,,,,,,,,,,,,,,,,,,,,,,,,,,,,,,,,,,,,,,,,,
0,86,86,61,1,,6128b6f850d39bf85a29211e,62c538a4e11c40b2f02aaeab,2022-07-06_09h25.36.436,Colour_Asymmetry_Pilot,2022.1.3,Win32,47.98694755,62c50e9c1127f2cd403a315f,,,,,,,,,,,,,,,,,,,,,,,,,,,,,,,,,,,,,,,,,,,,,,,,,,,,,,,,,,,,,,,,,,,,,,,,,,,,,,,,,,,,,,,,,,,,,,,,,,,,,,,,,,,,,,,,,,,,,,,,,,,,,,,,,,,,,,,,,,,,,,,,,,,,,,,,,,,,,,,,,,
0,87,87,8,1,,6128b6f850d39bf85a29211e,62c538a4e11c40b2f02aaeab,2022-07-06_09h25.36.436,Colour_Asymmetry_Pilot,2022.1.3,Win32,47.98694755,62c50e9c1127f2cd403a315f,,,,,,,,,,,,,,,,,,,,,,,,,,,,,,,,,,,,,,,,,,,,,,,,,,,,,,,,,,,,,,,,,,,,,,,,,,,,,,,,,,,,,,,,,,,,,,,,,,,,,,,,,,,,,,,,,,,,,,,,,,,,,,,,,,,,,,,,,,,,,,,,,,,,,,,,,,,,,,,,,,
0,88,88,1,1,,6128b6f850d39bf85a29211e,62c538a4e11c40b2f02aaeab,2022-07-06_09h25.36.436,Colour_Asymmetry_Pilot,2022.1.3,Win32,47.98694755,62c50e9c1127f2cd403a315f,,,,,,,,,,,,,,,,,,,,,,,,,,,,,,,,,,,,,,,,,,,,,,,,,,,,,,,,,,,,,,,,,,,,,,,,,,,,,,,,,,,,,,,,,,,,,,,,,,,,,,,,,,,,,,,,,,,,,,,,,,,,,,,,,,,,,,,,,,,,,,,,,,,,,,,,,,,,,,,,,,
0,89,89,40,1,,6128b6f850d39bf85a29211e,62c538a4e11c40b2f02aaeab,2022-07-06_09h25.36.436,Colour_Asymmetry_Pilot,2022.1.3,Win32,47.98694755,62c50e9c1127f2cd403a315f,,,,,,,,,,,,,,,,,,,,,,,,,,,,,,,,,,,,,,,,,,,,,,,,,,,,,,,,,,,,,,,,,,,,,,,,,,,,,,,,,,,,,,,,,,,,,,,,,,,,,,,,,,,,,,,,,,,,,,,,,,,,,,,,,,,,,,,,,,,,,,,,,,,,,,,,,,,,,,,,,,
0,90,90,13,1,,6128b6f850d39bf85a29211e,62c538a4e11c40b2f02aaeab,2022-07-06_09h25.36.436,Colour_Asymmetry_Pilot,2022.1.3,Win32,47.98694755,62c50e9c1127f2cd403a315f,,,,,,,,,,,,,,,,,,,,,,,,,,,,,,,,,,,,,,,,,,,,,,,,,,,,,,,,,,,,,,,,,,,,,,,,,,,,,,,,,,,,,,,,,,,,,,,,,,,,,,,,,,,,,,,,,,,,,,,,,,,,,,,,,,,,,,,,,,,,,,,,,,,,,,,,,,,,,,,,,,
0,91,91,25,1,,6128b6f850d39bf85a29211e,62c538a4e11c40b2f02aaeab,2022-07-06_09h25.36.436,Colour_Asymmetry_Pilot,2022.1.3,Win32,47.98694755,62c50e9c1127f2cd403a315f,,,,,,,,,,,,,,,,,,,,,,,,,,,,,,,,,,,,,,,,,,,,,,,,,,,,,,,,,,,,,,,,,,,,,,,,,,,,,,,,,,,,,,,,,,,,,,,,,,,,,,,,,,,,,,,,,,,,,,,,,,,,,,,,,,,,,,,,,,,,,,,,,,,,,,,,,,,,,,,,,,
0,92,92,82,1,,6128b6f850d39bf85a29211e,62c538a4e11c40b2f02aaeab,2022-07-06_09h25.36.436,Colour_Asymmetry_Pilot,2022.1.3,Win32,47.98694755,62c50e9c1127f2cd403a315f,,,,,,,,,,,,,,,,,,,,,,,,,,,,,,,,,,,,,,,,,,,,,,,,,,,,,,,,,,,,,,,,,,,,,,,,,,,,,,,,,,,,,,,,,,,,,,,,,,,,,,,,,,,,,,,,,,,,,,,,,,,,,,,,,,,,,,,,,,,,,,,,,,,,,,,,,,,,,,,,,,
,,,,,,6128b6f850d39bf85a29211e,62c538a4e11c40b2f02aaeab,2022-07-06_09h25.36.436,Colour_Asymmetry_Pilot,2022.1.3,Win32,47.98694755,62c50e9c1127f2cd403a315f,0,0,0,96,1,onetwo,,,,,,,,,,,,,,,,,,,,,,,,,,,,,,,,,,,,,,,,,,,,,,,,,,,,,,,,,,,,,,,,,,,,,,,,,,,,,,,,,,,,,,,,,,,,,,,,,,,,,,,,,,,,,,,,,,,,,,,,,,,,,,,,,,,,,,,,,,,,,,,,,,,,,,,,,,,,
,,,,,,6128b6f850d39bf85a29211e,62c538a4e11c40b2f02aaeab,2022-07-06_09h25.36.436,Colour_Asymmetry_Pilot,2022.1.3,Win32,47.98694755,62c50e9c1127f2cd403a315f,0,1,1,135,1,fourthree,,,,,,,,,,,,,,,,,,,,,,,,,,,,,,,,,,,,,,,,,,,,,,,,,,,,,,,,,,,,,,,,,,,,,,,,,,,,,,,,,,,,,,,,,,,,,,,,,,,,,,,,,,,,,,,,,,,,,,,,,,,,,,,,,,,,,,,,,,,,,,,,,,,,,,,,,,,,
,,,,,,6128b6f850d39bf85a29211e,62c538a4e11c40b2f02aaeab,2022-07-06_09h25.36.436,Colour_Asymmetry_Pilot,2022.1.3,Win32,47.98694755,62c50e9c1127f2cd403a315f,0,2,2,157,1,threefour,,,,,,,,,,,,,,,,,,,,,,,,,,,,,,,,,,,,,,,,,,,,,,,,,,,,,,,,,,,,,,,,,,,,,,,,,,,,,,,,,,,,,,,,,,,,,,,,,,,,,,,,,,,,,,,,,,,,,,,,,,,,,,,,,,,,,,,,,,,,,,,,,,,,,,,,,,,,
,,,,,,6128b6f850d39bf85a29211e,62c538a4e11c40b2f02aaeab,2022-07-06_09h25.36.436,Colour_Asymmetry_Pilot,2022.1.3,Win32,47.98694755,62c50e9c1127f2cd403a315f,0,3,3,147,1,twofour,,,,,,,,,,,,,,,,,,,,,,,,,,,,,,,,,,,,,,,,,,,,,,,,,,,,,,,,,,,,,,,,,,,,,,,,,,,,,,,,,,,,,,,,,,,,,,,,,,,,,,,,,,,,,,,,,,,,,,,,,,,,,,,,,,,,,,,,,,,,,,,,,,,,,,,,,,,,
,,,,,,6128b6f850d39bf85a29211e,62c538a4e11c40b2f02aaeab,2022-07-06_09h25.36.436,Colour_Asymmetry_Pilot,2022.1.3,Win32,47.98694755,62c50e9c1127f2cd403a315f,0,4,4,38,1,fourtwo,,,,,,,,,,,,,,,,,,,,,,,,,,,,,,,,,,,,,,,,,,,,,,,,,,,,,,,,,,,,,,,,,,,,,,,,,,,,,,,,,,,,,,,,,,,,,,,,,,,,,,,,,,,,,,,,,,,,,,,,,,,,,,,,,,,,,,,,,,,,,,,,,,,,,,,,,,,,
,,,,,,6128b6f850d39bf85a29211e,62c538a4e11c40b2f02aaeab,2022-07-06_09h25.36.436,Colour_Asymmetry_Pilot,2022.1.3,Win32,47.98694755,62c50e9c1127f2cd403a315f,0,5,5,12,1,threeone,,,,,,,,,,,,,,,,,,,,,,,,,,,,,,,,,,,,,,,,,,,,,,,,,,,,,,,,,,,,,,,,,,,,,,,,,,,,,,,,,,,,,,,,,,,,,,,,,,,,,,,,,,,,,,,,,,,,,,,,,,,,,,,,,,,,,,,,,,,,,,,,,,,,,,,,,,,,
,,,,,,6128b6f850d39bf85a29211e,62c538a4e11c40b2f02aaeab,2022-07-06_09h25.36.436,Colour_Asymmetry_Pilot,2022.1.3,Win32,47.98694755,62c50e9c1127f2cd403a315f,0,6,6,31,1,fourthree,,,,,,,,,,,,,,,,,,,,,,,,,,,,,,,,,,,,,,,,,,,,,,,,,,,,,,,,,,,,,,,,,,,,,,,,,,,,,,,,,,,,,,,,,,,,,,,,,,,,,,,,,,,,,,,,,,,,,,,,,,,,,,,,,,,,,,,,,,,,,,,,,,,,,,,,,,,,
,,,,,,6128b6f850d39bf85a29211e,62c538a4e11c40b2f02aaeab,2022-07-06_09h25.36.436,Colour_Asymmetry_Pilot,2022.1.3,Win32,47.98694755,62c50e9c1127f2cd403a315f,0,7,7,11,1,twofour,,,,,,,,,,,,,,,,,,,,,,,,,,,,,,,,,,,,,,,,,,,,,,,,,,,,,,,,,,,,,,,,,,,,,,,,,,,,,,,,,,,,,,,,,,,,,,,,,,,,,,,,,,,,,,,,,,,,,,,,,,,,,,,,,,,,,,,,,,,,,,,,,,,,,,,,,,,,
,,,,,,6128b6f850d39bf85a29211e,62c538a4e11c40b2f02aaeab,2022-07-06_09h25.36.436,Colour_Asymmetry_Pilot,2022.1.3,Win32,47.98694755,62c50e9c1127f2cd403a315f,0,8,8,140,1,threeone,,,,,,,,,,,,,,,,,,,,,,,,,,,,,,,,,,,,,,,,,,,,,,,,,,,,,,,,,,,,,,,,,,,,,,,,,,,,,,,,,,,,,,,,,,,,,,,,,,,,,,,,,,,,,,,,,,,,,,,,,,,,,,,,,,,,,,,,,,,,,,,,,,,,,,,,,,,,
,,,,,,6128b6f850d39bf85a29211e,62c538a4e11c40b2f02aaeab,2022-07-06_09h25.36.436,Colour_Asymmetry_Pilot,2022.1.3,Win32,47.98694755,62c50e9c1127f2cd403a315f,0,9,9,43,1,twofour,,,,,,,,,,,,,,,,,,,,,,,,,,,,,,,,,,,,,,,,,,,,,,,,,,,,,,,,,,,,,,,,,,,,,,,,,,,,,,,,,,,,,,,,,,,,,,,,,,,,,,,,,,,,,,,,,,,,,,,,,,,,,,,,,,,,,,,,,,,,,,,,,,,,,,,,,,,,
,,,,,,6128b6f850d39bf85a29211e,62c538a4e11c40b2f02aaeab,2022-07-06_09h25.36.436,Colour_Asymmetry_Pilot,2022.1.3,Win32,47.98694755,62c50e9c1127f2cd403a315f,0,10,10,88,1,onetwo,,,,,,,,,,,,,,,,,,,,,,,,,,,,,,,,,,,,,,,,,,,,,,,,,,,,,,,,,,,,,,,,,,,,,,,,,,,,,,,,,,,,,,,,,,,,,,,,,,,,,,,,,,,,,,,,,,,,,,,,,,,,,,,,,,,,,,,,,,,,,,,,,,,,,,,,,,,,
,,,,,,6128b6f850d39bf85a29211e,62c538a4e11c40b2f02aaeab,2022-07-06_09h25.36.436,Colour_Asymmetry_Pilot,2022.1.3,Win32,47.98694755,62c50e9c1127f2cd403a315f,0,11,11,141,1,threefour,,,,,,,,,,,,,,,,,,,,,,,,,,,,,,,,,,,,,,,,,,,,,,,,,,,,,,,,,,,,,,,,,,,,,,,,,,,,,,,,,,,,,,,,,,,,,,,,,,,,,,,,,,,,,,,,,,,,,,,,,,,,,,,,,,,,,,,,,,,,,,,,,,,,,,,,,,,,
,,,,,,6128b6f850d39bf85a29211e,62c538a4e11c40b2f02aaeab,2022-07-06_09h25.36.436,Colour_Asymmetry_Pilot,2022.1.3,Win32,47.98694755,62c50e9c1127f2cd403a315f,0,12,12,146,1,twoone,,,,,,,,,,,,,,,,,,,,,,,,,,,,,,,,,,,,,,,,,,,,,,,,,,,,,,,,,,,,,,,,,,,,,,,,,,,,,,,,,,,,,,,,,,,,,,,,,,,,,,,,,,,,,,,,,,,,,,,,,,,,,,,,,,,,,,,,,,,,,,,,,,,,,,,,,,,,
,,,,,,6128b6f850d39bf85a29211e,62c538a4e11c40b2f02aaeab,2022-07-06_09h25.36.436,Colour_Asymmetry_Pilot,2022.1.3,Win32,47.98694755,62c50e9c1127f2cd403a315f,0,13,13,116,1,threeone,,,,,,,,,,,,,,,,,,,,,,,,,,,,,,,,,,,,,,,,,,,,,,,,,,,,,,,,,,,,,,,,,,,,,,,,,,,,,,,,,,,,,,,,,,,,,,,,,,,,,,,,,,,,,,,,,,,,,,,,,,,,,,,,,,,,,,,,,,,,,,,,,,,,,,,,,,,,
,,,,,,6128b6f850d39bf85a29211e,62c538a4e11c40b2f02aaeab,2022-07-06_09h25.36.436,Colour_Asymmetry_Pilot,2022.1.3,Win32,47.98694755,62c50e9c1127f2cd403a315f,0,14,14,126,1,fourtwo,,,,,,,,,,,,,,,,,,,,,,,,,,,,,,,,,,,,,,,,,,,,,,,,,,,,,,,,,,,,,,,,,,,,,,,,,,,,,,,,,,,,,,,,,,,,,,,,,,,,,,,,,,,,,,,,,,,,,,,,,,,,,,,,,,,,,,,,,,,,,,,,,,,,,,,,,,,,
,,,,,,6128b6f850d39bf85a29211e,62c538a4e11c40b2f02aaeab,2022-07-06_09h25.36.436,Colour_Asymmetry_Pilot,2022.1.3,Win32,47.98694755,62c50e9c1127f2cd403a315f,0,15,15,16,1,onetwo,,,,,,,,,,,,,,,,,,,,,,,,,,,,,,,,,,,,,,,,,,,,,,,,,,,,,,,,,,,,,,,,,,,,,,,,,,,,,,,,,,,,,,,,,,,,,,,,,,,,,,,,,,,,,,,,,,,,,,,,,,,,,,,,,,,,,,,,,,,,,,,,,,,,,,,,,,,,
,,,,,,6128b6f850d39bf85a29211e,62c538a4e11c40b2f02aaeab,2022-07-06_09h25.36.436,Colour_Asymmetry_Pilot,2022.1.3,Win32,47.98694755,62c50e9c1127f2cd403a315f,0,16,16,32,1,onetwo,,,,,,,,,,,,,,,,,,,,,,,,,,,,,,,,,,,,,,,,,,,,,,,,,,,,,,,,,,,,,,,,,,,,,,,,,,,,,,,,,,,,,,,,,,,,,,,,,,,,,,,,,,,,,,,,,,,,,,,,,,,,,,,,,,,,,,,,,,,,,,,,,,,,,,,,,,,,
,,,,,,6128b6f850d39bf85a29211e,62c538a4e11c40b2f02aaeab,2022-07-06_09h25.36.436,Colour_Asymmetry_Pilot,2022.1.3,Win32,47.98694755,62c50e9c1127f2cd403a315f,0,17,17,44,1,threeone,,,,,,,,,,,,,,,,,,,,,,,,,,,,,,,,,,,,,,,,,,,,,,,,,,,,,,,,,,,,,,,,,,,,,,,,,,,,,,,,,,,,,,,,,,,,,,,,,,,,,,,,,,,,,,,,,,,,,,,,,,,,,,,,,,,,,,,,,,,,,,,,,,,,,,,,,,,,
,,,,,,6128b6f850d39bf85a29211e,62c538a4e11c40b2f02aaeab,2022-07-06_09h25.36.436,Colour_Asymmetry_Pilot,2022.1.3,Win32,47.98694755,62c50e9c1127f2cd403a315f,0,18,18,105,1,onethree,,,,,,,,,,,,,,,,,,,,,,,,,,,,,,,,,,,,,,,,,,,,,,,,,,,,,,,,,,,,,,,,,,,,,,,,,,,,,,,,,,,,,,,,,,,,,,,,,,,,,,,,,,,,,,,,,,,,,,,,,,,,,,,,,,,,,,,,,,,,,,,,,,,,,,,,,,,,
,,,,,,6128b6f850d39bf85a29211e,62c538a4e11c40b2f02aaeab,2022-07-06_09h25.36.436,Colour_Asymmetry_Pilot,2022.1.3,Win32,47.98694755,62c50e9c1127f2cd403a315f,0,19,19,87,1,fourthree,,,,,,,,,,,,,,,,,,,,,,,,,,,,,,,,,,,,,,,,,,,,,,,,,,,,,,,,,,,,,,,,,,,,,,,,,,,,,,,,,,,,,,,,,,,,,,,,,,,,,,,,,,,,,,,,,,,,,,,,,,,,,,,,,,,,,,,,,,,,,,,,,,,,,,,,,,,,
,,,,,,6128b6f850d39bf85a29211e,62c538a4e11c40b2f02aaeab,2022-07-06_09h25.36.436,Colour_Asymmetry_Pilot,2022.1.3,Win32,47.98694755,62c50e9c1127f2cd403a315f,0,20,20,39,1,fourthree,,,,,,,,,,,,,,,,,,,,,,,,,,,,,,,,,,,,,,,,,,,,,,,,,,,,,,,,,,,,,,,,,,,,,,,,,,,,,,,,,,,,,,,,,,,,,,,,,,,,,,,,,,,,,,,,,,,,,,,,,,,,,,,,,,,,,,,,,,,,,,,,,,,,,,,,,,,,
,,,,,,6128b6f850d39bf85a29211e,62c538a4e11c40b2f02aaeab,2022-07-06_09h25.36.436,Colour_Asymmetry_Pilot,2022.1.3,Win32,47.98694755,62c50e9c1127f2cd403a315f,0,21,21,102,1,fourtwo,,,,,,,,,,,,,,,,,,,,,,,,,,,,,,,,,,,,,,,,,,,,,,,,,,,,,,,,,,,,,,,,,,,,,,,,,,,,,,,,,,,,,,,,,,,,,,,,,,,,,,,,,,,,,,,,,,,,,,,,,,,,,,,,,,,,,,,,,,,,,,,,,,,,,,,,,,,,
,,,,,,6128b6f850d39bf85a29211e,62c538a4e11c40b2f02aaeab,2022-07-06_09h25.36.436,Colour_Asymmetry_Pilot,2022.1.3,Win32,47.98694755,62c50e9c1127f2cd403a315f,0,22,22,78,1,fourtwo,,,,,,,,,,,,,,,,,,,,,,,,,,,,,,,,,,,,,,,,,,,,,,,,,,,,,,,,,,,,,,,,,,,,,,,,,,,,,,,,,,,,,,,,,,,,,,,,,,,,,,,,,,,,,,,,,,,,,,,,,,,,,,,,,,,,,,,,,,,,,,,,,,,,,,,,,,,,
,,,,,,6128b6f850d39bf85a29211e,62c538a4e11c40b2f02aaeab,2022-07-06_09h25.36.436,Colour_Asymmetry_Pilot,2022.1.3,Win32,47.98694755,62c50e9c1127f2cd403a315f,0,23,23,154,1,twoone,,,,,,,,,,,,,,,,,,,,,,,,,,,,,,,,,,,,,,,,,,,,,,,,,,,,,,,,,,,,,,,,,,,,,,,,,,,,,,,,,,,,,,,,,,,,,,,,,,,,,,,,,,,,,,,,,,,,,,,,,,,,,,,,,,,,,,,,,,,,,,,,,,,,,,,,,,,,
,,,,,,6128b6f850d39bf85a29211e,62c538a4e11c40b2f02aaeab,2022-07-06_09h25.36.436,Colour_Asymmetry_Pilot,2022.1.3,Win32,47.98694755,62c50e9c1127f2cd403a315f,0,24,24,100,1,threeone,,,,,,,,,,,,,,,,,,,,,,,,,,,,,,,,,,,,,,,,,,,,,,,,,,,,,,,,,,,,,,,,,,,,,,,,,,,,,,,,,,,,,,,,,,,,,,,,,,,,,,,,,,,,,,,,,,,,,,,,,,,,,,,,,,,,,,,,,,,,,,,,,,,,,,,,,,,,
,,,,,,6128b6f850d39bf85a29211e,62c538a4e11c40b2f02aaeab,2022-07-06_09h25.36.436,Colour_Asymmetry_Pilot,2022.1.3,Win32,47.98694755,62c50e9c1127f2cd403a315f,0,25,25,18,1,twoone,,,,,,,,,,,,,,,,,,,,,,,,,,,,,,,,,,,,,,,,,,,,,,,,,,,,,,,,,,,,,,,,,,,,,,,,,,,,,,,,,,,,,,,,,,,,,,,,,,,,,,,,,,,,,,,,,,,,,,,,,,,,,,,,,,,,,,,,,,,,,,,,,,,,,,,,,,,,
,,,,,,6128b6f850d39bf85a29211e,62c538a4e11c40b2f02aaeab,2022-07-06_09h25.36.436,Colour_Asymmetry_Pilot,2022.1.3,Win32,47.98694755,62c50e9c1127f2cd403a315f,0,26,26,144,1,onetwo,,,,,,,,,,,,,,,,,,,,,,,,,,,,,,,,,,,,,,,,,,,,,,,,,,,,,,,,,,,,,,,,,,,,,,,,,,,,,,,,,,,,,,,,,,,,,,,,,,,,,,,,,,,,,,,,,,,,,,,,,,,,,,,,,,,,,,,,,,,,,,,,,,,,,,,,,,,,
,,,,,,6128b6f850d39bf85a29211e,62c538a4e11c40b2f02aaeab,2022-07-06_09h25.36.436,Colour_Asymmetry_Pilot,2022.1.3,Win32,47.98694755,62c50e9c1127f2cd403a315f,0,27,27,142,1,fourtwo,,,,,,,,,,,,,,,,,,,,,,,,,,,,,,,,,,,,,,,,,,,,,,,,,,,,,,,,,,,,,,,,,,,,,,,,,,,,,,,,,,,,,,,,,,,,,,,,,,,,,,,,,,,,,,,,,,,,,,,,,,,,,,,,,,,,,,,,,,,,,,,,,,,,,,,,,,,,
,,,,,,6128b6f850d39bf85a29211e,62c538a4e11c40b2f02aaeab,2022-07-06_09h25.36.436,Colour_Asymmetry_Pilot,2022.1.3,Win32,47.98694755,62c50e9c1127f2cd403a315f,0,28,28,36,1,threeone,,,,,,,,,,,,,,,,,,,,,,,,,,,,,,,,,,,,,,,,,,,,,,,,,,,,,,,,,,,,,,,,,,,,,,,,,,,,,,,,,,,,,,,,,,,,,,,,,,,,,,,,,,,,,,,,,,,,,,,,,,,,,,,,,,,,,,,,,,,,,,,,,,,,,,,,,,,,
,,,,,,6128b6f850d39bf85a29211e,62c538a4e11c40b2f02aaeab,2022-07-06_09h25.36.436,Colour_Asymmetry_Pilot,2022.1.3,Win32,47.98694755,62c50e9c1127f2cd403a315f,0,29,29,85,1,threefour,,,,,,,,,,,,,,,,,,,,,,,,,,,,,,,,,,,,,,,,,,,,,,,,,,,,,,,,,,,,,,,,,,,,,,,,,,,,,,,,,,,,,,,,,,,,,,,,,,,,,,,,,,,,,,,,,,,,,,,,,,,,,,,,,,,,,,,,,,,,,,,,,,,,,,,,,,,,
,,,,,,6128b6f850d39bf85a29211e,62c538a4e11c40b2f02aaeab,2022-07-06_09h25.36.436,Colour_Asymmetry_Pilot,2022.1.3,Win32,47.98694755,62c50e9c1127f2cd403a315f,0,30,30,136,1,onetwo,,,,,,,,,,,,,,,,,,,,,,,,,,,,,,,,,,,,,,,,,,,,,,,,,,,,,,,,,,,,,,,,,,,,,,,,,,,,,,,,,,,,,,,,,,,,,,,,,,,,,,,,,,,,,,,,,,,,,,,,,,,,,,,,,,,,,,,,,,,,,,,,,,,,,,,,,,,,
,,,,,,6128b6f850d39bf85a29211e,62c538a4e11c40b2f02aaeab,2022-07-06_09h25.36.436,Colour_Asymmetry_Pilot,2022.1.3,Win32,47.98694755,62c50e9c1127f2cd403a315f,0,31,31,10,1,twoone,,,,,,,,,,,,,,,,,,,,,,,,,,,,,,,,,,,,,,,,,,,,,,,,,,,,,,,,,,,,,,,,,,,,,,,,,,,,,,,,,,,,,,,,,,,,,,,,,,,,,,,,,,,,,,,,,,,,,,,,,,,,,,,,,,,,,,,,,,,,,,,,,,,,,,,,,,,,
,,,,,,6128b6f850d39bf85a29211e,62c538a4e11c40b2f02aaeab,2022-07-06_09h25.36.436,Colour_Asymmetry_Pilot,2022.1.3,Win32,47.98694755,62c50e9c1127f2cd403a315f,0,32,32,93,1,threefour,,,,,,,,,,,,,,,,,,,,,,,,,,,,,,,,,,,,,,,,,,,,,,,,,,,,,,,,,,,,,,,,,,,,,,,,,,,,,,,,,,,,,,,,,,,,,,,,,,,,,,,,,,,,,,,,,,,,,,,,,,,,,,,,,,,,,,,,,,,,,,,,,,,,,,,,,,,,
,,,,,,6128b6f850d39bf85a29211e,62c538a4e11c40b2f02aaeab,2022-07-06_09h25.36.436,Colour_Asymmetry_Pilot,2022.1.3,Win32,47.98694755,62c50e9c1127f2cd403a315f,0,33,33,107,1,twofour,,,,,,,,,,,,,,,,,,,,,,,,,,,,,,,,,,,,,,,,,,,,,,,,,,,,,,,,,,,,,,,,,,,,,,,,,,,,,,,,,,,,,,,,,,,,,,,,,,,,,,,,,,,,,,,,,,,,,,,,,,,,,,,,,,,,,,,,,,,,,,,,,,,,,,,,,,,,
,,,,,,6128b6f850d39bf85a29211e,62c538a4e11c40b2f02aaeab,2022-07-06_09h25.36.436,Colour_Asymmetry_Pilot,2022.1.3,Win32,47.98694755,62c50e9c1127f2cd403a315f,0,34,34,117,1,threefour,,,,,,,,,,,,,,,,,,,,,,,,,,,,,,,,,,,,,,,,,,,,,,,,,,,,,,,,,,,,,,,,,,,,,,,,,,,,,,,,,,,,,,,,,,,,,,,,,,,,,,,,,,,,,,,,,,,,,,,,,,,,,,,,,,,,,,,,,,,,,,,,,,,,,,,,,,,,
,,,,,,6128b6f850d39bf85a29211e,62c538a4e11c40b2f02aaeab,2022-07-06_09h25.36.436,Colour_Asymmetry_Pilot,2022.1.3,Win32,47.98694755,62c50e9c1127f2cd403a315f,0,35,35,66,1,twoone,,,,,,,,,,,,,,,,,,,,,,,,,,,,,,,,,,,,,,,,,,,,,,,,,,,,,,,,,,,,,,,,,,,,,,,,,,,,,,,,,,,,,,,,,,,,,,,,,,,,,,,,,,,,,,,,,,,,,,,,,,,,,,,,,,,,,,,,,,,,,,,,,,,,,,,,,,,,
,,,,,,6128b6f850d39bf85a29211e,62c538a4e11c40b2f02aaeab,2022-07-06_09h25.36.436,Colour_Asymmetry_Pilot,2022.1.3,Win32,47.98694755,62c50e9c1127f2cd403a315f,0,36,36,160,1,onetwo,,,,,,,,,,,,,,,,,,,,,,,,,,,,,,,,,,,,,,,,,,,,,,,,,,,,,,,,,,,,,,,,,,,,,,,,,,,,,,,,,,,,,,,,,,,,,,,,,,,,,,,,,,,,,,,,,,,,,,,,,,,,,,,,,,,,,,,,,,,,,,,,,,,,,,,,,,,,
,,,,,,6128b6f850d39bf85a29211e,62c538a4e11c40b2f02aaeab,2022-07-06_09h25.36.436,Colour_Asymmetry_Pilot,2022.1.3,Win32,47.98694755,62c50e9c1127f2cd403a315f,0,37,37,84,1,threeone,,,,,,,,,,,,,,,,,,,,,,,,,,,,,,,,,,,,,,,,,,,,,,,,,,,,,,,,,,,,,,,,,,,,,,,,,,,,,,,,,,,,,,,,,,,,,,,,,,,,,,,,,,,,,,,,,,,,,,,,,,,,,,,,,,,,,,,,,,,,,,,,,,,,,,,,,,,,
,,,,,,6128b6f850d39bf85a29211e,62c538a4e11c40b2f02aaeab,2022-07-06_09h25.36.436,Colour_Asymmetry_Pilot,2022.1.3,Win32,47.98694755,62c50e9c1127f2cd403a315f,0,38,38,4,1,threeone,,,,,,,,,,,,,,,,,,,,,,,,,,,,,,,,,,,,,,,,,,,,,,,,,,,,,,,,,,,,,,,,,,,,,,,,,,,,,,,,,,,,,,,,,,,,,,,,,,,,,,,,,,,,,,,,,,,,,,,,,,,,,,,,,,,,,,,,,,,,,,,,,,,,,,,,,,,,
,,,,,,6128b6f850d39bf85a29211e,62c538a4e11c40b2f02aaeab,2022-07-06_09h25.36.436,Colour_Asymmetry_Pilot,2022.1.3,Win32,47.98694755,62c50e9c1127f2cd403a315f,0,39,39,143,1,fourthree,,,,,,,,,,,,,,,,,,,,,,,,,,,,,,,,,,,,,,,,,,,,,,,,,,,,,,,,,,,,,,,,,,,,,,,,,,,,,,,,,,,,,,,,,,,,,,,,,,,,,,,,,,,,,,,,,,,,,,,,,,,,,,,,,,,,,,,,,,,,,,,,,,,,,,,,,,,,
,,,,,,6128b6f850d39bf85a29211e,62c538a4e11c40b2f02aaeab,2022-07-06_09h25.36.436,Colour_Asymmetry_Pilot,2022.1.3,Win32,47.98694755,62c50e9c1127f2cd403a315f,0,40,40,23,1,fourthree,,,,,,,,,,,,,,,,,,,,,,,,,,,,,,,,,,,,,,,,,,,,,,,,,,,,,,,,,,,,,,,,,,,,,,,,,,,,,,,,,,,,,,,,,,,,,,,,,,,,,,,,,,,,,,,,,,,,,,,,,,,,,,,,,,,,,,,,,,,,,,,,,,,,,,,,,,,,
,,,,,,6128b6f850d39bf85a29211e,62c538a4e11c40b2f02aaeab,2022-07-06_09h25.36.436,Colour_Asymmetry_Pilot,2022.1.3,Win32,47.98694755,62c50e9c1127f2cd403a315f,0,41,41,134,1,fourtwo,,,,,,,,,,,,,,,,,,,,,,,,,,,,,,,,,,,,,,,,,,,,,,,,,,,,,,,,,,,,,,,,,,,,,,,,,,,,,,,,,,,,,,,,,,,,,,,,,,,,,,,,,,,,,,,,,,,,,,,,,,,,,,,,,,,,,,,,,,,,,,,,,,,,,,,,,,,,
,,,,,,6128b6f850d39bf85a29211e,62c538a4e11c40b2f02aaeab,2022-07-06_09h25.36.436,Colour_Asymmetry_Pilot,2022.1.3,Win32,47.98694755,62c50e9c1127f2cd403a315f,0,42,42,158,1,fourtwo,,,,,,,,,,,,,,,,,,,,,,,,,,,,,,,,,,,,,,,,,,,,,,,,,,,,,,,,,,,,,,,,,,,,,,,,,,,,,,,,,,,,,,,,,,,,,,,,,,,,,,,,,,,,,,,,,,,,,,,,,,,,,,,,,,,,,,,,,,,,,,,,,,,,,,,,,,,,
,,,,,,6128b6f850d39bf85a29211e,62c538a4e11c40b2f02aaeab,2022-07-06_09h25.36.436,Colour_Asymmetry_Pilot,2022.1.3,Win32,47.98694755,62c50e9c1127f2cd403a315f,0,43,43,37,1,threefour,,,,,,,,,,,,,,,,,,,,,,,,,,,,,,,,,,,,,,,,,,,,,,,,,,,,,,,,,,,,,,,,,,,,,,,,,,,,,,,,,,,,,,,,,,,,,,,,,,,,,,,,,,,,,,,,,,,,,,,,,,,,,,,,,,,,,,,,,,,,,,,,,,,,,,,,,,,,
,,,,,,6128b6f850d39bf85a29211e,62c538a4e11c40b2f02aaeab,2022-07-06_09h25.36.436,Colour_Asymmetry_Pilot,2022.1.3,Win32,47.98694755,62c50e9c1127f2cd403a315f,0,44,44,98,1,twoone,,,,,,,,,,,,,,,,,,,,,,,,,,,,,,,,,,,,,,,,,,,,,,,,,,,,,,,,,,,,,,,,,,,,,,,,,,,,,,,,,,,,,,,,,,,,,,,,,,,,,,,,,,,,,,,,,,,,,,,,,,,,,,,,,,,,,,,,,,,,,,,,,,,,,,,,,,,,
,,,,,,6128b6f850d39bf85a29211e,62c538a4e11c40b2f02aaeab,2022-07-06_09h25.36.436,Colour_Asymmetry_Pilot,2022.1.3,Win32,47.98694755,62c50e9c1127f2cd403a315f,0,45,45,42,1,twoone,,,,,,,,,,,,,,,,,,,,,,,,,,,,,,,,,,,,,,,,,,,,,,,,,,,,,,,,,,,,,,,,,,,,,,,,,,,,,,,,,,,,,,,,,,,,,,,,,,,,,,,,,,,,,,,,,,,,,,,,,,,,,,,,,,,,,,,,,,,,,,,,,,,,,,,,,,,,
,,,,,,6128b6f850d39bf85a29211e,62c538a4e11c40b2f02aaeab,2022-07-06_09h25.36.436,Colour_Asymmetry_Pilot,2022.1.3,Win32,47.98694755,62c50e9c1127f2cd403a315f,0,46,46,127,1,fourthree,,,,,,,,,,,,,,,,,,,,,,,,,,,,,,,,,,,,,,,,,,,,,,,,,,,,,,,,,,,,,,,,,,,,,,,,,,,,,,,,,,,,,,,,,,,,,,,,,,,,,,,,,,,,,,,,,,,,,,,,,,,,,,,,,,,,,,,,,,,,,,,,,,,,,,,,,,,,
,,,,,,6128b6f850d39bf85a29211e,62c538a4e11c40b2f02aaeab,2022-07-06_09h25.36.436,Colour_Asymmetry_Pilot,2022.1.3,Win32,47.98694755,62c50e9c1127f2cd403a315f,0,47,47,137,1,onethree,,,,,,,,,,,,,,,,,,,,,,,,,,,,,,,,,,,,,,,,,,,,,,,,,,,,,,,,,,,,,,,,,,,,,,,,,,,,,,,,,,,,,,,,,,,,,,,,,,,,,,,,,,,,,,,,,,,,,,,,,,,,,,,,,,,,,,,,,,,,,,,,,,,,,,,,,,,,
,,,,,,6128b6f850d39bf85a29211e,62c538a4e11c40b2f02aaeab,2022-07-06_09h25.36.436,Colour_Asymmetry_Pilot,2022.1.3,Win32,47.98694755,62c50e9c1127f2cd403a315f,0,48,48,161,1,onethree,,,,,,,,,,,,,,,,,,,,,,,,,,,,,,,,,,,,,,,,,,,,,,,,,,,,,,,,,,,,,,,,,,,,,,,,,,,,,,,,,,,,,,,,,,,,,,,,,,,,,,,,,,,,,,,,,,,,,,,,,,,,,,,,,,,,,,,,,,,,,,,,,,,,,,,,,,,,
,,,,,,6128b6f850d39bf85a29211e,62c538a4e11c40b2f02aaeab,2022-07-06_09h25.36.436,Colour_Asymmetry_Pilot,2022.1.3,Win32,47.98694755,62c50e9c1127f2cd403a315f,0,49,49,111,1,fourthree,,,,,,,,,,,,,,,,,,,,,,,,,,,,,,,,,,,,,,,,,,,,,,,,,,,,,,,,,,,,,,,,,,,,,,,,,,,,,,,,,,,,,,,,,,,,,,,,,,,,,,,,,,,,,,,,,,,,,,,,,,,,,,,,,,,,,,,,,,,,,,,,,,,,,,,,,,,,
,,,,,,6128b6f850d39bf85a29211e,62c538a4e11c40b2f02aaeab,2022-07-06_09h25.36.436,Colour_Asymmetry_Pilot,2022.1.3,Win32,47.98694755,62c50e9c1127f2cd403a315f,0,50,50,148,1,threeone,,,,,,,,,,,,,,,,,,,,,,,,,,,,,,,,,,,,,,,,,,,,,,,,,,,,,,,,,,,,,,,,,,,,,,,,,,,,,,,,,,,,,,,,,,,,,,,,,,,,,,,,,,,,,,,,,,,,,,,,,,,,,,,,,,,,,,,,,,,,,,,,,,,,,,,,,,,,
,,,,,,6128b6f850d39bf85a29211e,62c538a4e11c40b2f02aaeab,2022-07-06_09h25.36.436,Colour_Asymmetry_Pilot,2022.1.3,Win32,47.98694755,62c50e9c1127f2cd403a315f,0,51,51,67,1,twofour,,,,,,,,,,,,,,,,,,,,,,,,,,,,,,,,,,,,,,,,,,,,,,,,,,,,,,,,,,,,,,,,,,,,,,,,,,,,,,,,,,,,,,,,,,,,,,,,,,,,,,,,,,,,,,,,,,,,,,,,,,,,,,,,,,,,,,,,,,,,,,,,,,,,,,,,,,,,
,,,,,,6128b6f850d39bf85a29211e,62c538a4e11c40b2f02aaeab,2022-07-06_09h25.36.436,Colour_Asymmetry_Pilot,2022.1.3,Win32,47.98694755,62c50e9c1127f2cd403a315f,0,52,52,150,1,fourtwo,,,,,,,,,,,,,,,,,,,,,,,,,,,,,,,,,,,,,,,,,,,,,,,,,,,,,,,,,,,,,,,,,,,,,,,,,,,,,,,,,,,,,,,,,,,,,,,,,,,,,,,,,,,,,,,,,,,,,,,,,,,,,,,,,,,,,,,,,,,,,,,,,,,,,,,,,,,,
,,,,,,6128b6f850d39bf85a29211e,62c538a4e11c40b2f02aaeab,2022-07-06_09h25.36.436,Colour_Asymmetry_Pilot,2022.1.3,Win32,47.98694755,62c50e9c1127f2cd403a315f,0,53,53,25,1,onethree,,,,,,,,,,,,,,,,,,,,,,,,,,,,,,,,,,,,,,,,,,,,,,,,,,,,,,,,,,,,,,,,,,,,,,,,,,,,,,,,,,,,,,,,,,,,,,,,,,,,,,,,,,,,,,,,,,,,,,,,,,,,,,,,,,,,,,,,,,,,,,,,,,,,,,,,,,,,
,,,,,,6128b6f850d39bf85a29211e,62c538a4e11c40b2f02aaeab,2022-07-06_09h25.36.436,Colour_Asymmetry_Pilot,2022.1.3,Win32,47.98694755,62c50e9c1127f2cd403a315f,0,54,54,69,1,threefour,,,,,,,,,,,,,,,,,,,,,,,,,,,,,,,,,,,,,,,,,,,,,,,,,,,,,,,,,,,,,,,,,,,,,,,,,,,,,,,,,,,,,,,,,,,,,,,,,,,,,,,,,,,,,,,,,,,,,,,,,,,,,,,,,,,,,,,,,,,,,,,,,,,,,,,,,,,,
,,,,,,6128b6f850d39bf85a29211e,62c538a4e11c40b2f02aaeab,2022-07-06_09h25.36.436,Colour_Asymmetry_Pilot,2022.1.3,Win32,47.98694755,62c50e9c1127f2cd403a315f,0,55,55,14,1,fourtwo,,,,,,,,,,,,,,,,,,,,,,,,,,,,,,,,,,,,,,,,,,,,,,,,,,,,,,,,,,,,,,,,,,,,,,,,,,,,,,,,,,,,,,,,,,,,,,,,,,,,,,,,,,,,,,,,,,,,,,,,,,,,,,,,,,,,,,,,,,,,,,,,,,,,,,,,,,,,
,,,,,,6128b6f850d39bf85a29211e,62c538a4e11c40b2f02aaeab,2022-07-06_09h25.36.436,Colour_Asymmetry_Pilot,2022.1.3,Win32,47.98694755,62c50e9c1127f2cd403a315f,0,56,56,70,1,fourtwo,,,,,,,,,,,,,,,,,,,,,,,,,,,,,,,,,,,,,,,,,,,,,,,,,,,,,,,,,,,,,,,,,,,,,,,,,,,,,,,,,,,,,,,,,,,,,,,,,,,,,,,,,,,,,,,,,,,,,,,,,,,,,,,,,,,,,,,,,,,,,,,,,,,,,,,,,,,,
,,,,,,6128b6f850d39bf85a29211e,62c538a4e11c40b2f02aaeab,2022-07-06_09h25.36.436,Colour_Asymmetry_Pilot,2022.1.3,Win32,47.98694755,62c50e9c1127f2cd403a315f,0,57,57,155,1,twofour,,,,,,,,,,,,,,,,,,,,,,,,,,,,,,,,,,,,,,,,,,,,,,,,,,,,,,,,,,,,,,,,,,,,,,,,,,,,,,,,,,,,,,,,,,,,,,,,,,,,,,,,,,,,,,,,,,,,,,,,,,,,,,,,,,,,,,,,,,,,,,,,,,,,,,,,,,,,
,,,,,,6128b6f850d39bf85a29211e,62c538a4e11c40b2f02aaeab,2022-07-06_09h25.36.436,Colour_Asymmetry_Pilot,2022.1.3,Win32,47.98694755,62c50e9c1127f2cd403a315f,0,58,58,59,1,twofour,,,,,,,,,,,,,,,,,,,,,,,,,,,,,,,,,,,,,,,,,,,,,,,,,,,,,,,,,,,,,,,,,,,,,,,,,,,,,,,,,,,,,,,,,,,,,,,,,,,,,,,,,,,,,,,,,,,,,,,,,,,,,,,,,,,,,,,,,,,,,,,,,,,,,,,,,,,,
,,,,,,6128b6f850d39bf85a29211e,62c538a4e11c40b2f02aaeab,2022-07-06_09h25.36.436,Colour_Asymmetry_Pilot,2022.1.3,Win32,47.98694755,62c50e9c1127f2cd403a315f,0,59,59,51,1,twofour,,,,,,,,,,,,,,,,,,,,,,,,,,,,,,,,,,,,,,,,,,,,,,,,,,,,,,,,,,,,,,,,,,,,,,,,,,,,,,,,,,,,,,,,,,,,,,,,,,,,,,,,,,,,,,,,,,,,,,,,,,,,,,,,,,,,,,,,,,,,,,,,,,,,,,,,,,,,
,,,,,,6128b6f850d39bf85a29211e,62c538a4e11c40b2f02aaeab,2022-07-06_09h25.36.436,Colour_Asymmetry_Pilot,2022.1.3,Win32,47.98694755,62c50e9c1127f2cd403a315f,0,60,60,139,1,twofour,,,,,,,,,,,,,,,,,,,,,,,,,,,,,,,,,,,,,,,,,,,,,,,,,,,,,,,,,,,,,,,,,,,,,,,,,,,,,,,,,,,,,,,,,,,,,,,,,,,,,,,,,,,,,,,,,,,,,,,,,,,,,,,,,,,,,,,,,,,,,,,,,,,,,,,,,,,,
,,,,,,6128b6f850d39bf85a29211e,62c538a4e11c40b2f02aaeab,2022-07-06_09h25.36.436,Colour_Asymmetry_Pilot,2022.1.3,Win32,47.98694755,62c50e9c1127f2cd403a315f,0,61,61,115,1,twofour,,,,,,,,,,,,,,,,,,,,,,,,,,,,,,,,,,,,,,,,,,,,,,,,,,,,,,,,,,,,,,,,,,,,,,,,,,,,,,,,,,,,,,,,,,,,,,,,,,,,,,,,,,,,,,,,,,,,,,,,,,,,,,,,,,,,,,,,,,,,,,,,,,,,,,,,,,,,
,,,,,,6128b6f850d39bf85a29211e,62c538a4e11c40b2f02aaeab,2022-07-06_09h25.36.436,Colour_Asymmetry_Pilot,2022.1.3,Win32,47.98694755,62c50e9c1127f2cd403a315f,0,62,62,30,1,fourtwo,,,,,,,,,,,,,,,,,,,,,,,,,,,,,,,,,,,,,,,,,,,,,,,,,,,,,,,,,,,,,,,,,,,,,,,,,,,,,,,,,,,,,,,,,,,,,,,,,,,,,,,,,,,,,,,,,,,,,,,,,,,,,,,,,,,,,,,,,,,,,,,,,,,,,,,,,,,,
,,,,,,6128b6f850d39bf85a29211e,62c538a4e11c40b2f02aaeab,2022-07-06_09h25.36.436,Colour_Asymmetry_Pilot,2022.1.3,Win32,47.98694755,62c50e9c1127f2cd403a315f,0,63,63,40,1,onetwo,,,,,,,,,,,,,,,,,,,,,,,,,,,,,,,,,,,,,,,,,,,,,,,,,,,,,,,,,,,,,,,,,,,,,,,,,,,,,,,,,,,,,,,,,,,,,,,,,,,,,,,,,,,,,,,,,,,,,,,,,,,,,,,,,,,,,,,,,,,,,,,,,,,,,,,,,,,,
,,,,,,6128b6f850d39bf85a29211e,62c538a4e11c40b2f02aaeab,2022-07-06_09h25.36.436,Colour_Asymmetry_Pilot,2022.1.3,Win32,47.98694755,62c50e9c1127f2cd403a315f,0,64,64,153,1,onethree,,,,,,,,,,,,,,,,,,,,,,,,,,,,,,,,,,,,,,,,,,,,,,,,,,,,,,,,,,,,,,,,,,,,,,,,,,,,,,,,,,,,,,,,,,,,,,,,,,,,,,,,,,,,,,,,,,,,,,,,,,,,,,,,,,,,,,,,,,,,,,,,,,,,,,,,,,,,
,,,,,,6128b6f850d39bf85a29211e,62c538a4e11c40b2f02aaeab,2022-07-06_09h25.36.436,Colour_Asymmetry_Pilot,2022.1.3,Win32,47.98694755,62c50e9c1127f2cd403a315f,0,65,65,79,1,fourthree,,,,,,,,,,,,,,,,,,,,,,,,,,,,,,,,,,,,,,,,,,,,,,,,,,,,,,,,,,,,,,,,,,,,,,,,,,,,,,,,,,,,,,,,,,,,,,,,,,,,,,,,,,,,,,,,,,,,,,,,,,,,,,,,,,,,,,,,,,,,,,,,,,,,,,,,,,,,
,,,,,,6128b6f850d39bf85a29211e,62c538a4e11c40b2f02aaeab,2022-07-06_09h25.36.436,Colour_Asymmetry_Pilot,2022.1.3,Win32,47.98694755,62c50e9c1127f2cd403a315f,0,66,66,64,1,onetwo,,,,,,,,,,,,,,,,,,,,,,,,,,,,,,,,,,,,,,,,,,,,,,,,,,,,,,,,,,,,,,,,,,,,,,,,,,,,,,,,,,,,,,,,,,,,,,,,,,,,,,,,,,,,,,,,,,,,,,,,,,,,,,,,,,,,,,,,,,,,,,,,,,,,,,,,,,,,
,,,,,,6128b6f850d39bf85a29211e,62c538a4e11c40b2f02aaeab,2022-07-06_09h25.36.436,Colour_Asymmetry_Pilot,2022.1.3,Win32,47.98694755,62c50e9c1127f2cd403a315f,0,67,67,151,1,fourthree,,,,,,,,,,,,,,,,,,,,,,,,,,,,,,,,,,,,,,,,,,,,,,,,,,,,,,,,,,,,,,,,,,,,,,,,,,,,,,,,,,,,,,,,,,,,,,,,,,,,,,,,,,,,,,,,,,,,,,,,,,,,,,,,,,,,,,,,,,,,,,,,,,,,,,,,,,,,
,,,,,,6128b6f850d39bf85a29211e,62c538a4e11c40b2f02aaeab,2022-07-06_09h25.36.436,Colour_Asymmetry_Pilot,2022.1.3,Win32,47.98694755,62c50e9c1127f2cd403a315f,0,68,68,103,1,fourthree,,,,,,,,,,,,,,,,,,,,,,,,,,,,,,,,,,,,,,,,,,,,,,,,,,,,,,,,,,,,,,,,,,,,,,,,,,,,,,,,,,,,,,,,,,,,,,,,,,,,,,,,,,,,,,,,,,,,,,,,,,,,,,,,,,,,,,,,,,,,,,,,,,,,,,,,,,,,
,,,,,,6128b6f850d39bf85a29211e,62c538a4e11c40b2f02aaeab,2022-07-06_09h25.36.436,Colour_Asymmetry_Pilot,2022.1.3,Win32,47.98694755,62c50e9c1127f2cd403a315f,0,69,69,122,1,twoone,,,,,,,,,,,,,,,,,,,,,,,,,,,,,,,,,,,,,,,,,,,,,,,,,,,,,,,,,,,,,,,,,,,,,,,,,,,,,,,,,,,,,,,,,,,,,,,,,,,,,,,,,,,,,,,,,,,,,,,,,,,,,,,,,,,,,,,,,,,,,,,,,,,,,,,,,,,,
,,,,,,6128b6f850d39bf85a29211e,62c538a4e11c40b2f02aaeab,2022-07-06_09h25.36.436,Colour_Asymmetry_Pilot,2022.1.3,Win32,47.98694755,62c50e9c1127f2cd403a315f,0,70,70,71,1,fourthree,,,,,,,,,,,,,,,,,,,,,,,,,,,,,,,,,,,,,,,,,,,,,,,,,,,,,,,,,,,,,,,,,,,,,,,,,,,,,,,,,,,,,,,,,,,,,,,,,,,,,,,,,,,,,,,,,,,,,,,,,,,,,,,,,,,,,,,,,,,,,,,,,,,,,,,,,,,,
,,,,,,6128b6f850d39bf85a29211e,62c538a4e11c40b2f02aaeab,2022-07-06_09h25.36.436,Colour_Asymmetry_Pilot,2022.1.3,Win32,47.98694755,62c50e9c1127f2cd403a315f,0,71,71,7,1,fourthree,,,,,,,,,,,,,,,,,,,,,,,,,,,,,,,,,,,,,,,,,,,,,,,,,,,,,,,,,,,,,,,,,,,,,,,,,,,,,,,,,,,,,,,,,,,,,,,,,,,,,,,,,,,,,,,,,,,,,,,,,,,,,,,,,,,,,,,,,,,,,,,,,,,,,,,,,,,,
,,,,,,6128b6f850d39bf85a29211e,62c538a4e11c40b2f02aaeab,2022-07-06_09h25.36.436,Colour_Asymmetry_Pilot,2022.1.3,Win32,47.98694755,62c50e9c1127f2cd403a315f,0,72,72,76,1,threeone,,,,,,,,,,,,,,,,,,,,,,,,,,,,,,,,,,,,,,,,,,,,,,,,,,,,,,,,,,,,,,,,,,,,,,,,,,,,,,,,,,,,,,,,,,,,,,,,,,,,,,,,,,,,,,,,,,,,,,,,,,,,,,,,,,,,,,,,,,,,,,,,,,,,,,,,,,,,
,,,,,,6128b6f850d39bf85a29211e,62c538a4e11c40b2f02aaeab,2022-07-06_09h25.36.436,Colour_Asymmetry_Pilot,2022.1.3,Win32,47.98694755,62c50e9c1127f2cd403a315f,0,73,73,46,1,fourtwo,,,,,,,,,,,,,,,,,,,,,,,,,,,,,,,,,,,,,,,,,,,,,,,,,,,,,,,,,,,,,,,,,,,,,,,,,,,,,,,,,,,,,,,,,,,,,,,,,,,,,,,,,,,,,,,,,,,,,,,,,,,,,,,,,,,,,,,,,,,,,,,,,,,,,,,,,,,,
,,,,,,6128b6f850d39bf85a29211e,62c538a4e11c40b2f02aaeab,2022-07-06_09h25.36.436,Colour_Asymmetry_Pilot,2022.1.3,Win32,47.98694755,62c50e9c1127f2cd403a315f,0,74,74,159,1,fourthree,,,,,,,,,,,,,,,,,,,,,,,,,,,,,,,,,,,,,,,,,,,,,,,,,,,,,,,,,,,,,,,,,,,,,,,,,,,,,,,,,,,,,,,,,,,,,,,,,,,,,,,,,,,,,,,,,,,,,,,,,,,,,,,,,,,,,,,,,,,,,,,,,,,,,,,,,,,,
,,,,,,6128b6f850d39bf85a29211e,62c538a4e11c40b2f02aaeab,2022-07-06_09h25.36.436,Colour_Asymmetry_Pilot,2022.1.3,Win32,47.98694755,62c50e9c1127f2cd403a315f,0,75,75,123,1,twofour,,,,,,,,,,,,,,,,,,,,,,,,,,,,,,,,,,,,,,,,,,,,,,,,,,,,,,,,,,,,,,,,,,,,,,,,,,,,,,,,,,,,,,,,,,,,,,,,,,,,,,,,,,,,,,,,,,,,,,,,,,,,,,,,,,,,,,,,,,,,,,,,,,,,,,,,,,,,
,,,,,,6128b6f850d39bf85a29211e,62c538a4e11c40b2f02aaeab,2022-07-06_09h25.36.436,Colour_Asymmetry_Pilot,2022.1.3,Win32,47.98694755,62c50e9c1127f2cd403a315f,0,76,76,8,1,onetwo,,,,,,,,,,,,,,,,,,,,,,,,,,,,,,,,,,,,,,,,,,,,,,,,,,,,,,,,,,,,,,,,,,,,,,,,,,,,,,,,,,,,,,,,,,,,,,,,,,,,,,,,,,,,,,,,,,,,,,,,,,,,,,,,,,,,,,,,,,,,,,,,,,,,,,,,,,,,
,,,,,,6128b6f850d39bf85a29211e,62c538a4e11c40b2f02aaeab,2022-07-06_09h25.36.436,Colour_Asymmetry_Pilot,2022.1.3,Win32,47.98694755,62c50e9c1127f2cd403a315f,0,77,77,5,1,threefour,,,,,,,,,,,,,,,,,,,,,,,,,,,,,,,,,,,,,,,,,,,,,,,,,,,,,,,,,,,,,,,,,,,,,,,,,,,,,,,,,,,,,,,,,,,,,,,,,,,,,,,,,,,,,,,,,,,,,,,,,,,,,,,,,,,,,,,,,,,,,,,,,,,,,,,,,,,,
,,,,,,6128b6f850d39bf85a29211e,62c538a4e11c40b2f02aaeab,2022-07-06_09h25.36.436,Colour_Asymmetry_Pilot,2022.1.3,Win32,47.98694755,62c50e9c1127f2cd403a315f,0,78,78,152,1,onetwo,,,,,,,,,,,,,,,,,,,,,,,,,,,,,,,,,,,,,,,,,,,,,,,,,,,,,,,,,,,,,,,,,,,,,,,,,,,,,,,,,,,,,,,,,,,,,,,,,,,,,,,,,,,,,,,,,,,,,,,,,,,,,,,,,,,,,,,,,,,,,,,,,,,,,,,,,,,,
,,,,,,6128b6f850d39bf85a29211e,62c538a4e11c40b2f02aaeab,2022-07-06_09h25.36.436,Colour_Asymmetry_Pilot,2022.1.3,Win32,47.98694755,62c50e9c1127f2cd403a315f,0,79,79,45,1,threefour,,,,,,,,,,,,,,,,,,,,,,,,,,,,,,,,,,,,,,,,,,,,,,,,,,,,,,,,,,,,,,,,,,,,,,,,,,,,,,,,,,,,,,,,,,,,,,,,,,,,,,,,,,,,,,,,,,,,,,,,,,,,,,,,,,,,,,,,,,,,,,,,,,,,,,,,,,,,
,,,,,,6128b6f850d39bf85a29211e,62c538a4e11c40b2f02aaeab,2022-07-06_09h25.36.436,Colour_Asymmetry_Pilot,2022.1.3,Win32,47.98694755,62c50e9c1127f2cd403a315f,0,80,80,138,1,twoone,,,,,,,,,,,,,,,,,,,,,,,,,,,,,,,,,,,,,,,,,,,,,,,,,,,,,,,,,,,,,,,,,,,,,,,,,,,,,,,,,,,,,,,,,,,,,,,,,,,,,,,,,,,,,,,,,,,,,,,,,,,,,,,,,,,,,,,,,,,,,,,,,,,,,,,,,,,,
,,,,,,6128b6f850d39bf85a29211e,62c538a4e11c40b2f02aaeab,2022-07-06_09h25.36.436,Colour_Asymmetry_Pilot,2022.1.3,Win32,47.98694755,62c50e9c1127f2cd403a315f,0,81,81,89,1,onethree,,,,,,,,,,,,,,,,,,,,,,,,,,,,,,,,,,,,,,,,,,,,,,,,,,,,,,,,,,,,,,,,,,,,,,,,,,,,,,,,,,,,,,,,,,,,,,,,,,,,,,,,,,,,,,,,,,,,,,,,,,,,,,,,,,,,,,,,,,,,,,,,,,,,,,,,,,,,
,,,,,,6128b6f850d39bf85a29211e,62c538a4e11c40b2f02aaeab,2022-07-06_09h25.36.436,Colour_Asymmetry_Pilot,2022.1.3,Win32,47.98694755,62c50e9c1127f2cd403a315f,0,82,82,110,1,fourtwo,,,,,,,,,,,,,,,,,,,,,,,,,,,,,,,,,,,,,,,,,,,,,,,,,,,,,,,,,,,,,,,,,,,,,,,,,,,,,,,,,,,,,,,,,,,,,,,,,,,,,,,,,,,,,,,,,,,,,,,,,,,,,,,,,,,,,,,,,,,,,,,,,,,,,,,,,,,,
,,,,,,6128b6f850d39bf85a29211e,62c538a4e11c40b2f02aaeab,2022-07-06_09h25.36.436,Colour_Asymmetry_Pilot,2022.1.3,Win32,47.98694755,62c50e9c1127f2cd403a315f,0,83,83,6,1,fourtwo,,,,,,,,,,,,,,,,,,,,,,,,,,,,,,,,,,,,,,,,,,,,,,,,,,,,,,,,,,,,,,,,,,,,,,,,,,,,,,,,,,,,,,,,,,,,,,,,,,,,,,,,,,,,,,,,,,,,,,,,,,,,,,,,,,,,,,,,,,,,,,,,,,,,,,,,,,,,
,,,,,,6128b6f850d39bf85a29211e,62c538a4e11c40b2f02aaeab,2022-07-06_09h25.36.436,Colour_Asymmetry_Pilot,2022.1.3,Win32,47.98694755,62c50e9c1127f2cd403a315f,0,84,84,55,1,fourthree,,,,,,,,,,,,,,,,,,,,,,,,,,,,,,,,,,,,,,,,,,,,,,,,,,,,,,,,,,,,,,,,,,,,,,,,,,,,,,,,,,,,,,,,,,,,,,,,,,,,,,,,,,,,,,,,,,,,,,,,,,,,,,,,,,,,,,,,,,,,,,,,,,,,,,,,,,,,
,,,,,,6128b6f850d39bf85a29211e,62c538a4e11c40b2f02aaeab,2022-07-06_09h25.36.436,Colour_Asymmetry_Pilot,2022.1.3,Win32,47.98694755,62c50e9c1127f2cd403a315f,0,85,85,113,1,onethree,,,,,,,,,,,,,,,,,,,,,,,,,,,,,,,,,,,,,,,,,,,,,,,,,,,,,,,,,,,,,,,,,,,,,,,,,,,,,,,,,,,,,,,,,,,,,,,,,,,,,,,,,,,,,,,,,,,,,,,,,,,,,,,,,,,,,,,,,,,,,,,,,,,,,,,,,,,,
,,,,,,6128b6f850d39bf85a29211e,62c538a4e11c40b2f02aaeab,2022-07-06_09h25.36.436,Colour_Asymmetry_Pilot,2022.1.3,Win32,47.98694755,62c50e9c1127f2cd403a315f,0,86,86,125,1,threefour,,,,,,,,,,,,,,,,,,,,,,,,,,,,,,,,,,,,,,,,,,,,,,,,,,,,,,,,,,,,,,,,,,,,,,,,,,,,,,,,,,,,,,,,,,,,,,,,,,,,,,,,,,,,,,,,,,,,,,,,,,,,,,,,,,,,,,,,,,,,,,,,,,,,,,,,,,,,
,,,,,,6128b6f850d39bf85a29211e,62c538a4e11c40b2f02aaeab,2022-07-06_09h25.36.436,Colour_Asymmetry_Pilot,2022.1.3,Win32,47.98694755,62c50e9c1127f2cd403a315f,0,87,87,108,1,threeone,,,,,,,,,,,,,,,,,,,,,,,,,,,,,,,,,,,,,,,,,,,,,,,,,,,,,,,,,,,,,,,,,,,,,,,,,,,,,,,,,,,,,,,,,,,,,,,,,,,,,,,,,,,,,,,,,,,,,,,,,,,,,,,,,,,,,,,,,,,,,,,,,,,,,,,,,,,,
,,,,,,6128b6f850d39bf85a29211e,62c538a4e11c40b2f02aaeab,2022-07-06_09h25.36.436,Colour_Asymmetry_Pilot,2022.1.3,Win32,47.98694755,62c50e9c1127f2cd403a315f,0,88,88,57,1,onethree,,,,,,,,,,,,,,,,,,,,,,,,,,,,,,,,,,,,,,,,,,,,,,,,,,,,,,,,,,,,,,,,,,,,,,,,,,,,,,,,,,,,,,,,,,,,,,,,,,,,,,,,,,,,,,,,,,,,,,,,,,,,,,,,,,,,,,,,,,,,,,,,,,,,,,,,,,,,
,,,,,,6128b6f850d39bf85a29211e,62c538a4e11c40b2f02aaeab,2022-07-06_09h25.36.436,Colour_Asymmetry_Pilot,2022.1.3,Win32,47.98694755,62c50e9c1127f2cd403a315f,0,89,89,1,1,onethree,,,,,,,,,,,,,,,,,,,,,,,,,,,,,,,,,,,,,,,,,,,,,,,,,,,,,,,,,,,,,,,,,,,,,,,,,,,,,,,,,,,,,,,,,,,,,,,,,,,,,,,,,,,,,,,,,,,,,,,,,,,,,,,,,,,,,,,,,,,,,,,,,,,,,,,,,,,,
,,,,,,6128b6f850d39bf85a29211e,62c538a4e11c40b2f02aaeab,2022-07-06_09h25.36.436,Colour_Asymmetry_Pilot,2022.1.3,Win32,47.98694755,62c50e9c1127f2cd403a315f,0,90,90,129,1,onethree,,,,,,,,,,,,,,,,,,,,,,,,,,,,,,,,,,,,,,,,,,,,,,,,,,,,,,,,,,,,,,,,,,,,,,,,,,,,,,,,,,,,,,,,,,,,,,,,,,,,,,,,,,,,,,,,,,,,,,,,,,,,,,,,,,,,,,,,,,,,,,,,,,,,,,,,,,,,
,,,,,,6128b6f850d39bf85a29211e,62c538a4e11c40b2f02aaeab,2022-07-06_09h25.36.436,Colour_Asymmetry_Pilot,2022.1.3,Win32,47.98694755,62c50e9c1127f2cd403a315f,0,91,91,92,1,threeone,,,,,,,,,,,,,,,,,,,,,,,,,,,,,,,,,,,,,,,,,,,,,,,,,,,,,,,,,,,,,,,,,,,,,,,,,,,,,,,,,,,,,,,,,,,,,,,,,,,,,,,,,,,,,,,,,,,,,,,,,,,,,,,,,,,,,,,,,,,,,,,,,,,,,,,,,,,,
,,,,,,6128b6f850d39bf85a29211e,62c538a4e11c40b2f02aaeab,2022-07-06_09h25.36.436,Colour_Asymmetry_Pilot,2022.1.3,Win32,47.98694755,62c50e9c1127f2cd403a315f,0,92,92,121,1,onethree,,,,,,,,,,,,,,,,,,,,,,,,,,,,,,,,,,,,,,,,,,,,,,,,,,,,,,,,,,,,,,,,,,,,,,,,,,,,,,,,,,,,,,,,,,,,,,,,,,,,,,,,,,,,,,,,,,,,,,,,,,,,,,,,,,,,,,,,,,,,,,,,,,,,,,,,,,,,
,,,,,,6128b6f850d39bf85a29211e,62c538a4e11c40b2f02aaeab,2022-07-06_09h25.36.436,Colour_Asymmetry_Pilot,2022.1.3,Win32,47.98694755,62c50e9c1127f2cd403a315f,0,93,93,34,1,twoone,,,,,,,,,,,,,,,,,,,,,,,,,,,,,,,,,,,,,,,,,,,,,,,,,,,,,,,,,,,,,,,,,,,,,,,,,,,,,,,,,,,,,,,,,,,,,,,,,,,,,,,,,,,,,,,,,,,,,,,,,,,,,,,,,,,,,,,,,,,,,,,,,,,,,,,,,,,,
,,,,,,6128b6f850d39bf85a29211e,62c538a4e11c40b2f02aaeab,2022-07-06_09h25.36.436,Colour_Asymmetry_Pilot,2022.1.3,Win32,47.98694755,62c50e9c1127f2cd403a315f,0,94,94,109,1,threefour,,,,,,,,,,,,,,,,,,,,,,,,,,,,,,,,,,,,,,,,,,,,,,,,,,,,,,,,,,,,,,,,,,,,,,,,,,,,,,,,,,,,,,,,,,,,,,,,,,,,,,,,,,,,,,,,,,,,,,,,,,,,,,,,,,,,,,,,,,,,,,,,,,,,,,,,,,,,
,,,,,,6128b6f850d39bf85a29211e,62c538a4e11c40b2f02aaeab,2022-07-06_09h25.36.436,Colour_Asymmetry_Pilot,2022.1.3,Win32,47.98694755,62c50e9c1127f2cd403a315f,0,95,95,112,1,onetwo,,,,,,,,,,,,,,,,,,,,,,,,,,,,,,,,,,,,,,,,,,,,,,,,,,,,,,,,,,,,,,,,,,,,,,,,,,,,,,,,,,,,,,,,,,,,,,,,,,,,,,,,,,,,,,,,,,,,,,,,,,,,,,,,,,,,,,,,,,,,,,,,,,,,,,,,,,,,
,,,,,,6128b6f850d39bf85a29211e,62c538a4e11c40b2f02aaeab,2022-07-06_09h25.36.436,Colour_Asymmetry_Pilot,2022.1.3,Win32,47.98694755,62c50e9c1127f2cd403a315f,0,96,96,60,1,threeone,,,,,,,,,,,,,,,,,,,,,,,,,,,,,,,,,,,,,,,,,,,,,,,,,,,,,,,,,,,,,,,,,,,,,,,,,,,,,,,,,,,,,,,,,,,,,,,,,,,,,,,,,,,,,,,,,,,,,,,,,,,,,,,,,,,,,,,,,,,,,,,,,,,,,,,,,,,,
,,,,,,6128b6f850d39bf85a29211e,62c538a4e11c40b2f02aaeab,2022-07-06_09h25.36.436,Colour_Asymmetry_Pilot,2022.1.3,Win32,47.98694755,62c50e9c1127f2cd403a315f,0,97,97,21,1,threefour,,,,,,,,,,,,,,,,,,,,,,,,,,,,,,,,,,,,,,,,,,,,,,,,,,,,,,,,,,,,,,,,,,,,,,,,,,,,,,,,,,,,,,,,,,,,,,,,,,,,,,,,,,,,,,,,,,,,,,,,,,,,,,,,,,,,,,,,,,,,,,,,,,,,,,,,,,,,
,,,,,,6128b6f850d39bf85a29211e,62c538a4e11c40b2f02aaeab,2022-07-06_09h25.36.436,Colour_Asymmetry_Pilot,2022.1.3,Win32,47.98694755,62c50e9c1127f2cd403a315f,0,98,98,132,1,threeone,,,,,,,,,,,,,,,,,,,,,,,,,,,,,,,,,,,,,,,,,,,,,,,,,,,,,,,,,,,,,,,,,,,,,,,,,,,,,,,,,,,,,,,,,,,,,,,,,,,,,,,,,,,,,,,,,,,,,,,,,,,,,,,,,,,,,,,,,,,,,,,,,,,,,,,,,,,,
,,,,,,6128b6f850d39bf85a29211e,62c538a4e11c40b2f02aaeab,2022-07-06_09h25.36.436,Colour_Asymmetry_Pilot,2022.1.3,Win32,47.98694755,62c50e9c1127f2cd403a315f,0,99,99,114,1,twoone,,,,,,,,,,,,,,,,,,,,,,,,,,,,,,,,,,,,,,,,,,,,,,,,,,,,,,,,,,,,,,,,,,,,,,,,,,,,,,,,,,,,,,,,,,,,,,,,,,,,,,,,,,,,,,,,,,,,,,,,,,,,,,,,,,,,,,,,,,,,,,,,,,,,,,,,,,,,
,,,,,,6128b6f850d39bf85a29211e,62c538a4e11c40b2f02aaeab,2022-07-06_09h25.36.436,Colour_Asymmetry_Pilot,2022.1.3,Win32,47.98694755,62c50e9c1127f2cd403a315f,0,100,100,83,1,twofour,,,,,,,,,,,,,,,,,,,,,,,,,,,,,,,,,,,,,,,,,,,,,,,,,,,,,,,,,,,,,,,,,,,,,,,,,,,,,,,,,,,,,,,,,,,,,,,,,,,,,,,,,,,,,,,,,,,,,,,,,,,,,,,,,,,,,,,,,,,,,,,,,,,,,,,,,,,,
,,,,,,6128b6f850d39bf85a29211e,62c538a4e11c40b2f02aaeab,2022-07-06_09h25.36.436,Colour_Asymmetry_Pilot,2022.1.3,Win32,47.98694755,62c50e9c1127f2cd403a315f,0,101,101,58,1,twoone,,,,,,,,,,,,,,,,,,,,,,,,,,,,,,,,,,,,,,,,,,,,,,,,,,,,,,,,,,,,,,,,,,,,,,,,,,,,,,,,,,,,,,,,,,,,,,,,,,,,,,,,,,,,,,,,,,,,,,,,,,,,,,,,,,,,,,,,,,,,,,,,,,,,,,,,,,,,
,,,,,,6128b6f850d39bf85a29211e,62c538a4e11c40b2f02aaeab,2022-07-06_09h25.36.436,Colour_Asymmetry_Pilot,2022.1.3,Win32,47.98694755,62c50e9c1127f2cd403a315f,0,102,102,54,1,fourtwo,,,,,,,,,,,,,,,,,,,,,,,,,,,,,,,,,,,,,,,,,,,,,,,,,,,,,,,,,,,,,,,,,,,,,,,,,,,,,,,,,,,,,,,,,,,,,,,,,,,,,,,,,,,,,,,,,,,,,,,,,,,,,,,,,,,,,,,,,,,,,,,,,,,,,,,,,,,,
,,,,,,6128b6f850d39bf85a29211e,62c538a4e11c40b2f02aaeab,2022-07-06_09h25.36.436,Colour_Asymmetry_Pilot,2022.1.3,Win32,47.98694755,62c50e9c1127f2cd403a315f,0,103,103,73,1,onethree,,,,,,,,,,,,,,,,,,,,,,,,,,,,,,,,,,,,,,,,,,,,,,,,,,,,,,,,,,,,,,,,,,,,,,,,,,,,,,,,,,,,,,,,,,,,,,,,,,,,,,,,,,,,,,,,,,,,,,,,,,,,,,,,,,,,,,,,,,,,,,,,,,,,,,,,,,,,
,,,,,,6128b6f850d39bf85a29211e,62c538a4e11c40b2f02aaeab,2022-07-06_09h25.36.436,Colour_Asymmetry_Pilot,2022.1.3,Win32,47.98694755,62c50e9c1127f2cd403a315f,0,104,104,119,1,fourthree,,,,,,,,,,,,,,,,,,,,,,,,,,,,,,,,,,,,,,,,,,,,,,,,,,,,,,,,,,,,,,,,,,,,,,,,,,,,,,,,,,,,,,,,,,,,,,,,,,,,,,,,,,,,,,,,,,,,,,,,,,,,,,,,,,,,,,,,,,,,,,,,,,,,,,,,,,,,
,,,,,,6128b6f850d39bf85a29211e,62c538a4e11c40b2f02aaeab,2022-07-06_09h25.36.436,Colour_Asymmetry_Pilot,2022.1.3,Win32,47.98694755,62c50e9c1127f2cd403a315f,0,105,105,95,1,fourthree,,,,,,,,,,,,,,,,,,,,,,,,,,,,,,,,,,,,,,,,,,,,,,,,,,,,,,,,,,,,,,,,,,,,,,,,,,,,,,,,,,,,,,,,,,,,,,,,,,,,,,,,,,,,,,,,,,,,,,,,,,,,,,,,,,,,,,,,,,,,,,,,,,,,,,,,,,,,
,,,,,,6128b6f850d39bf85a29211e,62c538a4e11c40b2f02aaeab,2022-07-06_09h25.36.436,Colour_Asymmetry_Pilot,2022.1.3,Win32,47.98694755,62c50e9c1127f2cd403a315f,0,106,106,41,1,onethree,,,,,,,,,,,,,,,,,,,,,,,,,,,,,,,,,,,,,,,,,,,,,,,,,,,,,,,,,,,,,,,,,,,,,,,,,,,,,,,,,,,,,,,,,,,,,,,,,,,,,,,,,,,,,,,,,,,,,,,,,,,,,,,,,,,,,,,,,,,,,,,,,,,,,,,,,,,,
,,,,,,6128b6f850d39bf85a29211e,62c538a4e11c40b2f02aaeab,2022-07-06_09h25.36.436,Colour_Asymmetry_Pilot,2022.1.3,Win32,47.98694755,62c50e9c1127f2cd403a315f,0,107,107,101,1,threefour,,,,,,,,,,,,,,,,,,,,,,,,,,,,,,,,,,,,,,,,,,,,,,,,,,,,,,,,,,,,,,,,,,,,,,,,,,,,,,,,,,,,,,,,,,,,,,,,,,,,,,,,,,,,,,,,,,,,,,,,,,,,,,,,,,,,,,,,,,,,,,,,,,,,,,,,,,,,
,,,,,,6128b6f850d39bf85a29211e,62c538a4e11c40b2f02aaeab,2022-07-06_09h25.36.436,Colour_Asymmetry_Pilot,2022.1.3,Win32,47.98694755,62c50e9c1127f2cd403a315f,0,108,108,99,1,twofour,,,,,,,,,,,,,,,,,,,,,,,,,,,,,,,,,,,,,,,,,,,,,,,,,,,,,,,,,,,,,,,,,,,,,,,,,,,,,,,,,,,,,,,,,,,,,,,,,,,,,,,,,,,,,,,,,,,,,,,,,,,,,,,,,,,,,,,,,,,,,,,,,,,,,,,,,,,,
,,,,,,6128b6f850d39bf85a29211e,62c538a4e11c40b2f02aaeab,2022-07-06_09h25.36.436,Colour_Asymmetry_Pilot,2022.1.3,Win32,47.98694755,62c50e9c1127f2cd403a315f,0,109,109,33,1,onethree,,,,,,,,,,,,,,,,,,,,,,,,,,,,,,,,,,,,,,,,,,,,,,,,,,,,,,,,,,,,,,,,,,,,,,,,,,,,,,,,,,,,,,,,,,,,,,,,,,,,,,,,,,,,,,,,,,,,,,,,,,,,,,,,,,,,,,,,,,,,,,,,,,,,,,,,,,,,
,,,,,,6128b6f850d39bf85a29211e,62c538a4e11c40b2f02aaeab,2022-07-06_09h25.36.436,Colour_Asymmetry_Pilot,2022.1.3,Win32,47.98694755,62c50e9c1127f2cd403a315f,0,110,110,145,1,onethree,,,,,,,,,,,,,,,,,,,,,,,,,,,,,,,,,,,,,,,,,,,,,,,,,,,,,,,,,,,,,,,,,,,,,,,,,,,,,,,,,,,,,,,,,,,,,,,,,,,,,,,,,,,,,,,,,,,,,,,,,,,,,,,,,,,,,,,,,,,,,,,,,,,,,,,,,,,,
,,,,,,6128b6f850d39bf85a29211e,62c538a4e11c40b2f02aaeab,2022-07-06_09h25.36.436,Colour_Asymmetry_Pilot,2022.1.3,Win32,47.98694755,62c50e9c1127f2cd403a315f,0,111,111,104,1,onetwo,,,,,,,,,,,,,,,,,,,,,,,,,,,,,,,,,,,,,,,,,,,,,,,,,,,,,,,,,,,,,,,,,,,,,,,,,,,,,,,,,,,,,,,,,,,,,,,,,,,,,,,,,,,,,,,,,,,,,,,,,,,,,,,,,,,,,,,,,,,,,,,,,,,,,,,,,,,,
,,,,,,6128b6f850d39bf85a29211e,62c538a4e11c40b2f02aaeab,2022-07-06_09h25.36.436,Colour_Asymmetry_Pilot,2022.1.3,Win32,47.98694755,62c50e9c1127f2cd403a315f,0,112,112,75,1,twofour,,,,,,,,,,,,,,,,,,,,,,,,,,,,,,,,,,,,,,,,,,,,,,,,,,,,,,,,,,,,,,,,,,,,,,,,,,,,,,,,,,,,,,,,,,,,,,,,,,,,,,,,,,,,,,,,,,,,,,,,,,,,,,,,,,,,,,,,,,,,,,,,,,,,,,,,,,,,
,,,,,,6128b6f850d39bf85a29211e,62c538a4e11c40b2f02aaeab,2022-07-06_09h25.36.436,Colour_Asymmetry_Pilot,2022.1.3,Win32,47.98694755,62c50e9c1127f2cd403a315f,0,113,113,128,1,onetwo,,,,,,,,,,,,,,,,,,,,,,,,,,,,,,,,,,,,,,,,,,,,,,,,,,,,,,,,,,,,,,,,,,,,,,,,,,,,,,,,,,,,,,,,,,,,,,,,,,,,,,,,,,,,,,,,,,,,,,,,,,,,,,,,,,,,,,,,,,,,,,,,,,,,,,,,,,,,
,,,,,,6128b6f850d39bf85a29211e,62c538a4e11c40b2f02aaeab,2022-07-06_09h25.36.436,Colour_Asymmetry_Pilot,2022.1.3,Win32,47.98694755,62c50e9c1127f2cd403a315f,0,114,114,118,1,fourtwo,,,,,,,,,,,,,,,,,,,,,,,,,,,,,,,,,,,,,,,,,,,,,,,,,,,,,,,,,,,,,,,,,,,,,,,,,,,,,,,,,,,,,,,,,,,,,,,,,,,,,,,,,,,,,,,,,,,,,,,,,,,,,,,,,,,,,,,,,,,,,,,,,,,,,,,,,,,,
,,,,,,6128b6f850d39bf85a29211e,62c538a4e11c40b2f02aaeab,2022-07-06_09h25.36.436,Colour_Asymmetry_Pilot,2022.1.3,Win32,47.98694755,62c50e9c1127f2cd403a315f,0,115,115,91,1,twofour,,,,,,,,,,,,,,,,,,,,,,,,,,,,,,,,,,,,,,,,,,,,,,,,,,,,,,,,,,,,,,,,,,,,,,,,,,,,,,,,,,,,,,,,,,,,,,,,,,,,,,,,,,,,,,,,,,,,,,,,,,,,,,,,,,,,,,,,,,,,,,,,,,,,,,,,,,,,
,,,,,,6128b6f850d39bf85a29211e,62c538a4e11c40b2f02aaeab,2022-07-06_09h25.36.436,Colour_Asymmetry_Pilot,2022.1.3,Win32,47.98694755,62c50e9c1127f2cd403a315f,0,116,116,82,1,twoone,,,,,,,,,,,,,,,,,,,,,,,,,,,,,,,,,,,,,,,,,,,,,,,,,,,,,,,,,,,,,,,,,,,,,,,,,,,,,,,,,,,,,,,,,,,,,,,,,,,,,,,,,,,,,,,,,,,,,,,,,,,,,,,,,,,,,,,,,,,,,,,,,,,,,,,,,,,,
,,,,,,6128b6f850d39bf85a29211e,62c538a4e11c40b2f02aaeab,2022-07-06_09h25.36.436,Colour_Asymmetry_Pilot,2022.1.3,Win32,47.98694755,62c50e9c1127f2cd403a315f,0,117,117,133,1,threefour,,,,,,,,,,,,,,,,,,,,,,,,,,,,,,,,,,,,,,,,,,,,,,,,,,,,,,,,,,,,,,,,,,,,,,,,,,,,,,,,,,,,,,,,,,,,,,,,,,,,,,,,,,,,,,,,,,,,,,,,,,,,,,,,,,,,,,,,,,,,,,,,,,,,,,,,,,,,
,,,,,,6128b6f850d39bf85a29211e,62c538a4e11c40b2f02aaeab,2022-07-06_09h25.36.436,Colour_Asymmetry_Pilot,2022.1.3,Win32,47.98694755,62c50e9c1127f2cd403a315f,0,118,118,86,1,fourtwo,,,,,,,,,,,,,,,,,,,,,,,,,,,,,,,,,,,,,,,,,,,,,,,,,,,,,,,,,,,,,,,,,,,,,,,,,,,,,,,,,,,,,,,,,,,,,,,,,,,,,,,,,,,,,,,,,,,,,,,,,,,,,,,,,,,,,,,,,,,,,,,,,,,,,,,,,,,,
,,,,,,6128b6f850d39bf85a29211e,62c538a4e11c40b2f02aaeab,2022-07-06_09h25.36.436,Colour_Asymmetry_Pilot,2022.1.3,Win32,47.98694755,62c50e9c1127f2cd403a315f,0,119,119,80,1,onetwo,,,,,,,,,,,,,,,,,,,,,,,,,,,,,,,,,,,,,,,,,,,,,,,,,,,,,,,,,,,,,,,,,,,,,,,,,,,,,,,,,,,,,,,,,,,,,,,,,,,,,,,,,,,,,,,,,,,,,,,,,,,,,,,,,,,,,,,,,,,,,,,,,,,,,,,,,,,,
,,,,,,6128b6f850d39bf85a29211e,62c538a4e11c40b2f02aaeab,2022-07-06_09h25.36.436,Colour_Asymmetry_Pilot,2022.1.3,Win32,47.98694755,62c50e9c1127f2cd403a315f,0,120,120,149,1,threefour,,,,,,,,,,,,,,,,,,,,,,,,,,,,,,,,,,,,,,,,,,,,,,,,,,,,,,,,,,,,,,,,,,,,,,,,,,,,,,,,,,,,,,,,,,,,,,,,,,,,,,,,,,,,,,,,,,,,,,,,,,,,,,,,,,,,,,,,,,,,,,,,,,,,,,,,,,,,
,,,,,,6128b6f850d39bf85a29211e,62c538a4e11c40b2f02aaeab,2022-07-06_09h25.36.436,Colour_Asymmetry_Pilot,2022.1.3,Win32,47.98694755,62c50e9c1127f2cd403a315f,0,121,121,97,1,onethree,,,,,,,,,,,,,,,,,,,,,,,,,,,,,,,,,,,,,,,,,,,,,,,,,,,,,,,,,,,,,,,,,,,,,,,,,,,,,,,,,,,,,,,,,,,,,,,,,,,,,,,,,,,,,,,,,,,,,,,,,,,,,,,,,,,,,,,,,,,,,,,,,,,,,,,,,,,,
,,,,,,6128b6f850d39bf85a29211e,62c538a4e11c40b2f02aaeab,2022-07-06_09h25.36.436,Colour_Asymmetry_Pilot,2022.1.3,Win32,47.98694755,62c50e9c1127f2cd403a315f,0,122,122,2,1,twoone,,,,,,,,,,,,,,,,,,,,,,,,,,,,,,,,,,,,,,,,,,,,,,,,,,,,,,,,,,,,,,,,,,,,,,,,,,,,,,,,,,,,,,,,,,,,,,,,,,,,,,,,,,,,,,,,,,,,,,,,,,,,,,,,,,,,,,,,,,,,,,,,,,,,,,,,,,,,
,,,,,,6128b6f850d39bf85a29211e,62c538a4e11c40b2f02aaeab,2022-07-06_09h25.36.436,Colour_Asymmetry_Pilot,2022.1.3,Win32,47.98694755,62c50e9c1127f2cd403a315f,0,123,123,3,1,twofour,,,,,,,,,,,,,,,,,,,,,,,,,,,,,,,,,,,,,,,,,,,,,,,,,,,,,,,,,,,,,,,,,,,,,,,,,,,,,,,,,,,,,,,,,,,,,,,,,,,,,,,,,,,,,,,,,,,,,,,,,,,,,,,,,,,,,,,,,,,,,,,,,,,,,,,,,,,,
,,,,,,6128b6f850d39bf85a29211e,62c538a4e11c40b2f02aaeab,2022-07-06_09h25.36.436,Colour_Asymmetry_Pilot,2022.1.3,Win32,47.98694755,62c50e9c1127f2cd403a315f,0,124,124,22,1,fourtwo,,,,,,,,,,,,,,,,,,,,,,,,,,,,,,,,,,,,,,,,,,,,,,,,,,,,,,,,,,,,,,,,,,,,,,,,,,,,,,,,,,,,,,,,,,,,,,,,,,,,,,,,,,,,,,,,,,,,,,,,,,,,,,,,,,,,,,,,,,,,,,,,,,,,,,,,,,,,
,,,,,,6128b6f850d39bf85a29211e,62c538a4e11c40b2f02aaeab,2022-07-06_09h25.36.436,Colour_Asymmetry_Pilot,2022.1.3,Win32,47.98694755,62c50e9c1127f2cd403a315f,0,125,125,120,1,onetwo,,,,,,,,,,,,,,,,,,,,,,,,,,,,,,,,,,,,,,,,,,,,,,,,,,,,,,,,,,,,,,,,,,,,,,,,,,,,,,,,,,,,,,,,,,,,,,,,,,,,,,,,,,,,,,,,,,,,,,,,,,,,,,,,,,,,,,,,,,,,,,,,,,,,,,,,,,,,
,,,,,,6128b6f850d39bf85a29211e,62c538a4e11c40b2f02aaeab,2022-07-06_09h25.36.436,Colour_Asymmetry_Pilot,2022.1.3,Win32,47.98694755,62c50e9c1127f2cd403a315f,0,126,126,13,1,threefour,,,,,,,,,,,,,,,,,,,,,,,,,,,,,,,,,,,,,,,,,,,,,,,,,,,,,,,,,,,,,,,,,,,,,,,,,,,,,,,,,,,,,,,,,,,,,,,,,,,,,,,,,,,,,,,,,,,,,,,,,,,,,,,,,,,,,,,,,,,,,,,,,,,,,,,,,,,,
,,,,,,6128b6f850d39bf85a29211e,62c538a4e11c40b2f02aaeab,2022-07-06_09h25.36.436,Colour_Asymmetry_Pilot,2022.1.3,Win32,47.98694755,62c50e9c1127f2cd403a315f,0,127,127,61,1,threefour,,,,,,,,,,,,,,,,,,,,,,,,,,,,,,,,,,,,,,,,,,,,,,,,,,,,,,,,,,,,,,,,,,,,,,,,,,,,,,,,,,,,,,,,,,,,,,,,,,,,,,,,,,,,,,,,,,,,,,,,,,,,,,,,,,,,,,,,,,,,,,,,,,,,,,,,,,,,
,,,,,,6128b6f850d39bf85a29211e,62c538a4e11c40b2f02aaeab,2022-07-06_09h25.36.436,Colour_Asymmetry_Pilot,2022.1.3,Win32,47.98694755,62c50e9c1127f2cd403a315f,0,128,128,156,1,threeone,,,,,,,,,,,,,,,,,,,,,,,,,,,,,,,,,,,,,,,,,,,,,,,,,,,,,,,,,,,,,,,,,,,,,,,,,,,,,,,,,,,,,,,,,,,,,,,,,,,,,,,,,,,,,,,,,,,,,,,,,,,,,,,,,,,,,,,,,,,,,,,,,,,,,,,,,,,,
,,,,,,6128b6f850d39bf85a29211e,62c538a4e11c40b2f02aaeab,2022-07-06_09h25.36.436,Colour_Asymmetry_Pilot,2022.1.3,Win32,47.98694755,62c50e9c1127f2cd403a315f,0,129,129,106,1,twoone,,,,,,,,,,,,,,,,,,,,,,,,,,,,,,,,,,,,,,,,,,,,,,,,,,,,,,,,,,,,,,,,,,,,,,,,,,,,,,,,,,,,,,,,,,,,,,,,,,,,,,,,,,,,,,,,,,,,,,,,,,,,,,,,,,,,,,,,,,,,,,,,,,,,,,,,,,,,
,,,,,,6128b6f850d39bf85a29211e,62c538a4e11c40b2f02aaeab,2022-07-06_09h25.36.436,Colour_Asymmetry_Pilot,2022.1.3,Win32,47.98694755,62c50e9c1127f2cd403a315f,0,130,130,72,1,onetwo,,,,,,,,,,,,,,,,,,,,,,,,,,,,,,,,,,,,,,,,,,,,,,,,,,,,,,,,,,,,,,,,,,,,,,,,,,,,,,,,,,,,,,,,,,,,,,,,,,,,,,,,,,,,,,,,,,,,,,,,,,,,,,,,,,,,,,,,,,,,,,,,,,,,,,,,,,,,
,,,,,,6128b6f850d39bf85a29211e,62c538a4e11c40b2f02aaeab,2022-07-06_09h25.36.436,Colour_Asymmetry_Pilot,2022.1.3,Win32,47.98694755,62c50e9c1127f2cd403a315f,0,131,131,124,1,threeone,,,,,,,,,,,,,,,,,,,,,,,,,,,,,,,,,,,,,,,,,,,,,,,,,,,,,,,,,,,,,,,,,,,,,,,,,,,,,,,,,,,,,,,,,,,,,,,,,,,,,,,,,,,,,,,,,,,,,,,,,,,,,,,,,,,,,,,,,,,,,,,,,,,,,,,,,,,,
,,,,,,6128b6f850d39bf85a29211e,62c538a4e11c40b2f02aaeab,2022-07-06_09h25.36.436,Colour_Asymmetry_Pilot,2022.1.3,Win32,47.98694755,62c50e9c1127f2cd403a315f,0,132,132,9,1,onethree,,,,,,,,,,,,,,,,,,,,,,,,,,,,,,,,,,,,,,,,,,,,,,,,,,,,,,,,,,,,,,,,,,,,,,,,,,,,,,,,,,,,,,,,,,,,,,,,,,,,,,,,,,,,,,,,,,,,,,,,,,,,,,,,,,,,,,,,,,,,,,,,,,,,,,,,,,,,
,,,,,,6128b6f850d39bf85a29211e,62c538a4e11c40b2f02aaeab,2022-07-06_09h25.36.436,Colour_Asymmetry_Pilot,2022.1.3,Win32,47.98694755,62c50e9c1127f2cd403a315f,0,133,133,130,1,twoone,,,,,,,,,,,,,,,,,,,,,,,,,,,,,,,,,,,,,,,,,,,,,,,,,,,,,,,,,,,,,,,,,,,,,,,,,,,,,,,,,,,,,,,,,,,,,,,,,,,,,,,,,,,,,,,,,,,,,,,,,,,,,,,,,,,,,,,,,,,,,,,,,,,,,,,,,,,,
,,,,,,6128b6f850d39bf85a29211e,62c538a4e11c40b2f02aaeab,2022-07-06_09h25.36.436,Colour_Asymmetry_Pilot,2022.1.3,Win32,47.98694755,62c50e9c1127f2cd403a315f,0,134,134,65,1,onethree,,,,,,,,,,,,,,,,,,,,,,,,,,,,,,,,,,,,,,,,,,,,,,,,,,,,,,,,,,,,,,,,,,,,,,,,,,,,,,,,,,,,,,,,,,,,,,,,,,,,,,,,,,,,,,,,,,,,,,,,,,,,,,,,,,,,,,,,,,,,,,,,,,,,,,,,,,,,
,,,,,,6128b6f850d39bf85a29211e,62c538a4e11c40b2f02aaeab,2022-07-06_09h25.36.436,Colour_Asymmetry_Pilot,2022.1.3,Win32,47.98694755,62c50e9c1127f2cd403a315f,0,135,135,26,1,twoone,,,,,,,,,,,,,,,,,,,,,,,,,,,,,,,,,,,,,,,,,,,,,,,,,,,,,,,,,,,,,,,,,,,,,,,,,,,,,,,,,,,,,,,,,,,,,,,,,,,,,,,,,,,,,,,,,,,,,,,,,,,,,,,,,,,,,,,,,,,,,,,,,,,,,,,,,,,,
,,,,,,6128b6f850d39bf85a29211e,62c538a4e11c40b2f02aaeab,2022-07-06_09h25.36.436,Colour_Asymmetry_Pilot,2022.1.3,Win32,47.98694755,62c50e9c1127f2cd403a315f,0,136,136,49,1,onethree,,,,,,,,,,,,,,,,,,,,,,,,,,,,,,,,,,,,,,,,,,,,,,,,,,,,,,,,,,,,,,,,,,,,,,,,,,,,,,,,,,,,,,,,,,,,,,,,,,,,,,,,,,,,,,,,,,,,,,,,,,,,,,,,,,,,,,,,,,,,,,,,,,,,,,,,,,,,
,,,,,,6128b6f850d39bf85a29211e,62c538a4e11c40b2f02aaeab,2022-07-06_09h25.36.436,Colour_Asymmetry_Pilot,2022.1.3,Win32,47.98694755,62c50e9c1127f2cd403a315f,0,137,137,0,1,onetwo,,,,,,,,,,,,,,,,,,,,,,,,,,,,,,,,,,,,,,,,,,,,,,,,,,,,,,,,,,,,,,,,,,,,,,,,,,,,,,,,,,,,,,,,,,,,,,,,,,,,,,,,,,,,,,,,,,,,,,,,,,,,,,,,,,,,,,,,,,,,,,,,,,,,,,,,,,,,
,,,,,,6128b6f850d39bf85a29211e,62c538a4e11c40b2f02aaeab,2022-07-06_09h25.36.436,Colour_Asymmetry_Pilot,2022.1.3,Win32,47.98694755,62c50e9c1127f2cd403a315f,0,138,138,19,1,twofour,,,,,,,,,,,,,,,,,,,,,,,,,,,,,,,,,,,,,,,,,,,,,,,,,,,,,,,,,,,,,,,,,,,,,,,,,,,,,,,,,,,,,,,,,,,,,,,,,,,,,,,,,,,,,,,,,,,,,,,,,,,,,,,,,,,,,,,,,,,,,,,,,,,,,,,,,,,,
,,,,,,6128b6f850d39bf85a29211e,62c538a4e11c40b2f02aaeab,2022-07-06_09h25.36.436,Colour_Asymmetry_Pilot,2022.1.3,Win32,47.98694755,62c50e9c1127f2cd403a315f,0,139,139,17,1,onethree,,,,,,,,,,,,,,,,,,,,,,,,,,,,,,,,,,,,,,,,,,,,,,,,,,,,,,,,,,,,,,,,,,,,,,,,,,,,,,,,,,,,,,,,,,,,,,,,,,,,,,,,,,,,,,,,,,,,,,,,,,,,,,,,,,,,,,,,,,,,,,,,,,,,,,,,,,,,
,,,,,,6128b6f850d39bf85a29211e,62c538a4e11c40b2f02aaeab,2022-07-06_09h25.36.436,Colour_Asymmetry_Pilot,2022.1.3,Win32,47.98694755,62c50e9c1127f2cd403a315f,0,140,140,68,1,threeone,,,,,,,,,,,,,,,,,,,,,,,,,,,,,,,,,,,,,,,,,,,,,,,,,,,,,,,,,,,,,,,,,,,,,,,,,,,,,,,,,,,,,,,,,,,,,,,,,,,,,,,,,,,,,,,,,,,,,,,,,,,,,,,,,,,,,,,,,,,,,,,,,,,,,,,,,,,,
,,,,,,6128b6f850d39bf85a29211e,62c538a4e11c40b2f02aaeab,2022-07-06_09h25.36.436,Colour_Asymmetry_Pilot,2022.1.3,Win32,47.98694755,62c50e9c1127f2cd403a315f,0,141,141,94,1,fourtwo,,,,,,,,,,,,,,,,,,,,,,,,,,,,,,,,,,,,,,,,,,,,,,,,,,,,,,,,,,,,,,,,,,,,,,,,,,,,,,,,,,,,,,,,,,,,,,,,,,,,,,,,,,,,,,,,,,,,,,,,,,,,,,,,,,,,,,,,,,,,,,,,,,,,,,,,,,,,
,,,,,,6128b6f850d39bf85a29211e,62c538a4e11c40b2f02aaeab,2022-07-06_09h25.36.436,Colour_Asymmetry_Pilot,2022.1.3,Win32,47.98694755,62c50e9c1127f2cd403a315f,0,142,142,48,1,onetwo,,,,,,,,,,,,,,,,,,,,,,,,,,,,,,,,,,,,,,,,,,,,,,,,,,,,,,,,,,,,,,,,,,,,,,,,,,,,,,,,,,,,,,,,,,,,,,,,,,,,,,,,,,,,,,,,,,,,,,,,,,,,,,,,,,,,,,,,,,,,,,,,,,,,,,,,,,,,
,,,,,,6128b6f850d39bf85a29211e,62c538a4e11c40b2f02aaeab,2022-07-06_09h25.36.436,Colour_Asymmetry_Pilot,2022.1.3,Win32,47.98694755,62c50e9c1127f2cd403a315f,0,143,143,74,1,twoone,,,,,,,,,,,,,,,,,,,,,,,,,,,,,,,,,,,,,,,,,,,,,,,,,,,,,,,,,,,,,,,,,,,,,,,,,,,,,,,,,,,,,,,,,,,,,,,,,,,,,,,,,,,,,,,,,,,,,,,,,,,,,,,,,,,,,,,,,,,,,,,,,,,,,,,,,,,,
,,,,,,6128b6f850d39bf85a29211e,62c538a4e11c40b2f02aaeab,2022-07-06_09h25.36.436,Colour_Asymmetry_Pilot,2022.1.3,Win32,47.98694755,62c50e9c1127f2cd403a315f,0,144,144,90,1,twoone,,,,,,,,,,,,,,,,,,,,,,,,,,,,,,,,,,,,,,,,,,,,,,,,,,,,,,,,,,,,,,,,,,,,,,,,,,,,,,,,,,,,,,,,,,,,,,,,,,,,,,,,,,,,,,,,,,,,,,,,,,,,,,,,,,,,,,,,,,,,,,,,,,,,,,,,,,,,
,,,,,,6128b6f850d39bf85a29211e,62c538a4e11c40b2f02aaeab,2022-07-06_09h25.36.436,Colour_Asymmetry_Pilot,2022.1.3,Win32,47.98694755,62c50e9c1127f2cd403a315f,0,145,145,50,1,twoone,,,,,,,,,,,,,,,,,,,,,,,,,,,,,,,,,,,,,,,,,,,,,,,,,,,,,,,,,,,,,,,,,,,,,,,,,,,,,,,,,,,,,,,,,,,,,,,,,,,,,,,,,,,,,,,,,,,,,,,,,,,,,,,,,,,,,,,,,,,,,,,,,,,,,,,,,,,,
,,,,,,6128b6f850d39bf85a29211e,62c538a4e11c40b2f02aaeab,2022-07-06_09h25.36.436,Colour_Asymmetry_Pilot,2022.1.3,Win32,47.98694755,62c50e9c1127f2cd403a315f,0,146,146,15,1,fourthree,,,,,,,,,,,,,,,,,,,,,,,,,,,,,,,,,,,,,,,,,,,,,,,,,,,,,,,,,,,,,,,,,,,,,,,,,,,,,,,,,,,,,,,,,,,,,,,,,,,,,,,,,,,,,,,,,,,,,,,,,,,,,,,,,,,,,,,,,,,,,,,,,,,,,,,,,,,,
,,,,,,6128b6f850d39bf85a29211e,62c538a4e11c40b2f02aaeab,2022-07-06_09h25.36.436,Colour_Asymmetry_Pilot,2022.1.3,Win32,47.98694755,62c50e9c1127f2cd403a315f,0,147,147,81,1,onethree,,,,,,,,,,,,,,,,,,,,,,,,,,,,,,,,,,,,,,,,,,,,,,,,,,,,,,,,,,,,,,,,,,,,,,,,,,,,,,,,,,,,,,,,,,,,,,,,,,,,,,,,,,,,,,,,,,,,,,,,,,,,,,,,,,,,,,,,,,,,,,,,,,,,,,,,,,,,
,,,,,,6128b6f850d39bf85a29211e,62c538a4e11c40b2f02aaeab,2022-07-06_09h25.36.436,Colour_Asymmetry_Pilot,2022.1.3,Win32,47.98694755,62c50e9c1127f2cd403a315f,0,148,148,27,1,twofour,,,,,,,,,,,,,,,,,,,,,,,,,,,,,,,,,,,,,,,,,,,,,,,,,,,,,,,,,,,,,,,,,,,,,,,,,,,,,,,,,,,,,,,,,,,,,,,,,,,,,,,,,,,,,,,,,,,,,,,,,,,,,,,,,,,,,,,,,,,,,,,,,,,,,,,,,,,,
,,,,,,6128b6f850d39bf85a29211e,62c538a4e11c40b2f02aaeab,2022-07-06_09h25.36.436,Colour_Asymmetry_Pilot,2022.1.3,Win32,47.98694755,62c50e9c1127f2cd403a315f,0,149,149,47,1,fourthree,,,,,,,,,,,,,,,,,,,,,,,,,,,,,,,,,,,,,,,,,,,,,,,,,,,,,,,,,,,,,,,,,,,,,,,,,,,,,,,,,,,,,,,,,,,,,,,,,,,,,,,,,,,,,,,,,,,,,,,,,,,,,,,,,,,,,,,,,,,,,,,,,,,,,,,,,,,,
,,,,,,6128b6f850d39bf85a29211e,62c538a4e11c40b2f02aaeab,2022-07-06_09h25.36.436,Colour_Asymmetry_Pilot,2022.1.3,Win32,47.98694755,62c50e9c1127f2cd403a315f,0,150,150,53,1,threefour,,,,,,,,,,,,,,,,,,,,,,,,,,,,,,,,,,,,,,,,,,,,,,,,,,,,,,,,,,,,,,,,,,,,,,,,,,,,,,,,,,,,,,,,,,,,,,,,,,,,,,,,,,,,,,,,,,,,,,,,,,,,,,,,,,,,,,,,,,,,,,,,,,,,,,,,,,,,
,,,,,,6128b6f850d39bf85a29211e,62c538a4e11c40b2f02aaeab,2022-07-06_09h25.36.436,Colour_Asymmetry_Pilot,2022.1.3,Win32,47.98694755,62c50e9c1127f2cd403a315f,0,151,151,62,1,fourtwo,,,,,,,,,,,,,,,,,,,,,,,,,,,,,,,,,,,,,,,,,,,,,,,,,,,,,,,,,,,,,,,,,,,,,,,,,,,,,,,,,,,,,,,,,,,,,,,,,,,,,,,,,,,,,,,,,,,,,,,,,,,,,,,,,,,,,,,,,,,,,,,,,,,,,,,,,,,,
,,,,,,6128b6f850d39bf85a29211e,62c538a4e11c40b2f02aaeab,2022-07-06_09h25.36.436,Colour_Asymmetry_Pilot,2022.1.3,Win32,47.98694755,62c50e9c1127f2cd403a315f,0,152,152,28,1,threeone,,,,,,,,,,,,,,,,,,,,,,,,,,,,,,,,,,,,,,,,,,,,,,,,,,,,,,,,,,,,,,,,,,,,,,,,,,,,,,,,,,,,,,,,,,,,,,,,,,,,,,,,,,,,,,,,,,,,,,,,,,,,,,,,,,,,,,,,,,,,,,,,,,,,,,,,,,,,
,,,,,,6128b6f850d39bf85a29211e,62c538a4e11c40b2f02aaeab,2022-07-06_09h25.36.436,Colour_Asymmetry_Pilot,2022.1.3,Win32,47.98694755,62c50e9c1127f2cd403a315f,0,153,153,20,1,threeone,,,,,,,,,,,,,,,,,,,,,,,,,,,,,,,,,,,,,,,,,,,,,,,,,,,,,,,,,,,,,,,,,,,,,,,,,,,,,,,,,,,,,,,,,,,,,,,,,,,,,,,,,,,,,,,,,,,,,,,,,,,,,,,,,,,,,,,,,,,,,,,,,,,,,,,,,,,,
,,,,,,6128b6f850d39bf85a29211e,62c538a4e11c40b2f02aaeab,2022-07-06_09h25.36.436,Colour_Asymmetry_Pilot,2022.1.3,Win32,47.98694755,62c50e9c1127f2cd403a315f,0,154,154,35,1,twofour,,,,,,,,,,,,,,,,,,,,,,,,,,,,,,,,,,,,,,,,,,,,,,,,,,,,,,,,,,,,,,,,,,,,,,,,,,,,,,,,,,,,,,,,,,,,,,,,,,,,,,,,,,,,,,,,,,,,,,,,,,,,,,,,,,,,,,,,,,,,,,,,,,,,,,,,,,,,
,,,,,,6128b6f850d39bf85a29211e,62c538a4e11c40b2f02aaeab,2022-07-06_09h25.36.436,Colour_Asymmetry_Pilot,2022.1.3,Win32,47.98694755,62c50e9c1127f2cd403a315f,0,155,155,24,1,onetwo,,,,,,,,,,,,,,,,,,,,,,,,,,,,,,,,,,,,,,,,,,,,,,,,,,,,,,,,,,,,,,,,,,,,,,,,,,,,,,,,,,,,,,,,,,,,,,,,,,,,,,,,,,,,,,,,,,,,,,,,,,,,,,,,,,,,,,,,,,,,,,,,,,,,,,,,,,,,
,,,,,,6128b6f850d39bf85a29211e,62c538a4e11c40b2f02aaeab,2022-07-06_09h25.36.436,Colour_Asymmetry_Pilot,2022.1.3,Win32,47.98694755,62c50e9c1127f2cd403a315f,0,156,156,52,1,threeone,,,,,,,,,,,,,,,,,,,,,,,,,,,,,,,,,,,,,,,,,,,,,,,,,,,,,,,,,,,,,,,,,,,,,,,,,,,,,,,,,,,,,,,,,,,,,,,,,,,,,,,,,,,,,,,,,,,,,,,,,,,,,,,,,,,,,,,,,,,,,,,,,,,,,,,,,,,,
,,,,,,6128b6f850d39bf85a29211e,62c538a4e11c40b2f02aaeab,2022-07-06_09h25.36.436,Colour_Asymmetry_Pilot,2022.1.3,Win32,47.98694755,62c50e9c1127f2cd403a315f,0,157,157,77,1,threefour,,,,,,,,,,,,,,,,,,,,,,,,,,,,,,,,,,,,,,,,,,,,,,,,,,,,,,,,,,,,,,,,,,,,,,,,,,,,,,,,,,,,,,,,,,,,,,,,,,,,,,,,,,,,,,,,,,,,,,,,,,,,,,,,,,,,,,,,,,,,,,,,,,,,,,,,,,,,
,,,,,,6128b6f850d39bf85a29211e,62c538a4e11c40b2f02aaeab,2022-07-06_09h25.36.436,Colour_Asymmetry_Pilot,2022.1.3,Win32,47.98694755,62c50e9c1127f2cd403a315f,0,158,158,56,1,onetwo,,,,,,,,,,,,,,,,,,,,,,,,,,,,,,,,,,,,,,,,,,,,,,,,,,,,,,,,,,,,,,,,,,,,,,,,,,,,,,,,,,,,,,,,,,,,,,,,,,,,,,,,,,,,,,,,,,,,,,,,,,,,,,,,,,,,,,,,,,,,,,,,,,,,,,,,,,,,
,,,,,,6128b6f850d39bf85a29211e,62c538a4e11c40b2f02aaeab,2022-07-06_09h25.36.436,Colour_Asymmetry_Pilot,2022.1.3,Win32,47.98694755,62c50e9c1127f2cd403a315f,0,159,159,131,1,twofour,,,,,,,,,,,,,,,,,,,,,,,,,,,,,,,,,,,,,,,,,,,,,,,,,,,,,,,,,,,,,,,,,,,,,,,,,,,,,,,,,,,,,,,,,,,,,,,,,,,,,,,,,,,,,,,,,,,,,,,,,,,,,,,,,,,,,,,,,,,,,,,,,,,,,,,,,,,,
,,,,,,6128b6f850d39bf85a29211e,62c538a4e11c40b2f02aaeab,2022-07-06_09h25.36.436,Colour_Asymmetry_Pilot,2022.1.3,Win32,47.98694755,62c50e9c1127f2cd403a315f,0,160,160,29,1,threefour,,,,,,,,,,,,,,,,,,,,,,,,,,,,,,,,,,,,,,,,,,,,,,,,,,,,,,,,,,,,,,,,,,,,,,,,,,,,,,,,,,,,,,,,,,,,,,,,,,,,,,,,,,,,,,,,,,,,,,,,,,,,,,,,,,,,,,,,,,,,,,,,,,,,,,,,,,,,
,,,,,,6128b6f850d39bf85a29211e,62c538a4e11c40b2f02aaeab,2022-07-06_09h25.36.436,Colour_Asymmetry_Pilot,2022.1.3,Win32,47.98694755,62c50e9c1127f2cd403a315f,0,161,161,63,1,fourthree,,,,,,,,,,,,,,,,,,,,,,,,,,,,,,,,,,,,,,,,,,,,,,,,,,,,,,,,,,,,,,,,,,,,,,,,,,,,,,,,,,,,,,,,,,,,,,,,,,,,,,,,,,,,,,,,,,,,,,,,,,,,,,,,,,,,,,,,,,,,,,,,,,,,,,,,,,,,
,,,,,,6128b6f850d39bf85a29211e,62c538a4e11c40b2f02aaeab,2022-07-06_09h25.36.436,Colour_Asymmetry_Pilot,2022.1.3,Win32,47.98694755,62c50e9c1127f2cd403a315f,,,,,,,space,1.5939,space,74.9504,space,34.2092,space,20.228,space,3.8099,space,13.4354,"[0.09799999999999986,-0.24719999999999998,0.15280000000000005]",onetwo,"[0.34099999999999997,0.5841999999999998,-0.9844]",-4,12.0215,-52.05541992,137.777771,1,0,0,response7disk_5,-13.16662598,-8.888916016,1,0,0,rectangle_8,111.277832,33.33331299,1,0,0,response1disk_7,6,3,-14.27770996,1.111083984,1,0,0,rectangle_4,0,0,0,0,1,,,,,,,,,,,,,,,,,,,,,,,,,,,,,,,,,,,,,,,,,,,,,,,,,,,,,,,,,,,,,,,,,,,,,,,,,,,,,,,,,,,,,,,,,,,,,,,,,,,,,,,,,,,,
,,,,,,6128b6f850d39bf85a29211e,62c538a4e11c40b2f02aaeab,2022-07-06_09h25.36.436,Colour_Asymmetry_Pilot,2022.1.3,Win32,47.98694755,62c50e9c1127f2cd403a315f,,,,,,,,,,,,,,,,,,,"[1,0.12939999999999996,-1]",onethree,"[-0.8118,-0.8198,-0.5452]",-4,2.8751,-49.83331299,112.2221985,1,0,0,response7disk_5,-20.94433594,14.44439697,1,0,0,rectangle_8,-20.94433594,14.44439697,1,0,0,,,3,-20.94433594,14.44439697,1,0,0,,1,0,1,0,1,,,,,,,,,,,,,,,,,,,,,,,,,,,,,,,,,,,,,,,,,,,,,,,,,,,,,,,,,,,,,,,,,,,,,,,,,,,,,,,,,,,,,,,,,,,,,,,,,,,,,,,,,,,,
,,,,,,6128b6f850d39bf85a29211e,62c538a4e11c40b2f02aaeab,2022-07-06_09h25.36.436,Colour_Asymmetry_Pilot,2022.1.3,Win32,47.98694755,62c50e9c1127f2cd403a315f,,,,,,,,,,,,,,,,,,,"[-0.4746,-0.0354000000000001,0.5449999999999999]",twofour,"[-0.4982,-0.2942,-0.0354000000000001]",2,12.8959,117.944458,-50.00012207,1,0,0,response3disk_5,-25.38879395,1.111083984,1,0,0,rectangle_8,-25.38879395,1.111083984,1,0,0,,,3,-25.38879395,1.111083984,1,0,0,,2,0,2,0,1,,,,,,,,,,,,,,,,,,,,,,,,,,,,,,,,,,,,,,,,,,,,,,,,,,,,,,,,,,,,,,,,,,,,,,,,,,,,,,,,,,,,,,,,,,,,,,,,,,,,,,,,,,,,
,,,,,,6128b6f850d39bf85a29211e,62c538a4e11c40b2f02aaeab,2022-07-06_09h25.36.436,Colour_Asymmetry_Pilot,2022.1.3,Win32,47.98694755,62c50e9c1127f2cd403a315f,,,,,,,,,,,,,,,,,,,"[0.09799999999999986,-0.24719999999999998,0.15280000000000005]",fourtwo,"[-0.9688,-0.7412000000000001,-0.4902000000000001]",-2,4.1047,-119.833313,-81.11114502,1,0,0,response5disk_5,-7.611083984,1.111083984,1,0,0,rectangle_8,-7.611083984,1.111083984,1,0,0,,,3,-7.611083984,1.111083984,1,0,0,,3,0,3,0,1,,,,,,,,,,,,,,,,,,,,,,,,,,,,,,,,,,,,,,,,,,,,,,,,,,,,,,,,,,,,,,,,,,,,,,,,,,,,,,,,,,,,,,,,,,,,,,,,,,,,,,,,,,,,
,,,,,,6128b6f850d39bf85a29211e,62c538a4e11c40b2f02aaeab,2022-07-06_09h25.36.436,Colour_Asymmetry_Pilot,2022.1.3,Win32,47.98694755,62c50e9c1127f2cd403a315f,,,,,,,,,,,,,,,,,,,"[0.7646000000000002,0.07440000000000002,0.2704]",fourthree,"[-0.9296,-0.12959999999999994,-0.043199999999999905]",-4,3.8332,-42.05554199,138.8888245,1,0,0,response7disk_5,-3.166625977,16.66662598,1,0,0,rectangle_8,111.277832,68.88885498,1,0,0,response1disk_7,6,3,1.277832031,2.222106934,1,0,0,rectangle_4,4,0,4,0,1,,,,,,,,,,,,,,,,,,,,,,,,,,,,,,,,,,,,,,,,,,,,,,,,,,,,,,,,,,,,,,,,,,,,,,,,,,,,,,,,,,,,,,,,,,,,,,,,,,,,,,,,,,,,
,,,,,,6128b6f850d39bf85a29211e,62c538a4e11c40b2f02aaeab,2022-07-06_09h25.36.436,Colour_Asymmetry_Pilot,2022.1.3,Win32,47.98694755,62c50e9c1127f2cd403a315f,,,,,,,,,,,,,,,,,,,"[0.5528,0.7409999999999999,-0.71]",onetwo,"[-0.30200000000000005,0.14500000000000002,0.2784]",-4,1.4168,-47.61108398,95.55554199,1,0,0,response7disk_5,4.611206055,7.777770996,1,0,0,rectangle_8,4.611206055,7.777770996,1,0,0,,,3,4.611206055,7.777770996,1,0,0,,5,0,5,0,1,,,,,,,,,,,,,,,,,,,,,,,,,,,,,,,,,,,,,,,,,,,,,,,,,,,,,,,,,,,,,,,,,,,,,,,,,,,,,,,,,,,,,,,,,,,,,,,,,,,,,,,,,,,,
,,,,,,6128b6f850d39bf85a29211e,62c538a4e11c40b2f02aaeab,2022-07-06_09h25.36.436,Colour_Asymmetry_Pilot,2022.1.3,Win32,47.98694755,62c50e9c1127f2cd403a315f,,,,,,,,,,,,,,,,,,,"[-0.0040000000000000036,0.02739999999999987,-0.08239999999999992]",fourthree,"[-0.8982,-0.37259999999999993,0.2784]",-3,6.5208,-104.2776489,44.44439697,1,0,0,response7disk_5,-12.05554199,-5.555603027,1,0,0,rectangle_8,-12.05554199,-5.555603027,1,0,0,,,3,-12.05554199,-5.555603027,1,0,0,,6,0,6,0,1,,,,,,,,,,,,,,,,,,,,,,,,,,,,,,,,,,,,,,,,,,,,,,,,,,,,,,,,,,,,,,,,,,,,,,,,,,,,,,,,,,,,,,,,,,,,,,,,,,,,,,,,,,,,
,,,,,,6128b6f850d39bf85a29211e,62c538a4e11c40b2f02aaeab,2022-07-06_09h25.36.436,Colour_Asymmetry_Pilot,2022.1.3,Win32,47.98694755,62c50e9c1127f2cd403a315f,,,,,,,,,,,,,,,,,,,,onetwo,,-4,1.6878,,,,,,,,,,,,,,,,,,,,,,,,,,,,,,,,space,2.2392,"[-0.6235999999999999,-0.6786,-0.08239999999999992]","[0.34099999999999997,0.5841999999999998,-0.9844]",-47.61108398,94.44442749,1,0,0,response7disk,-4.277709961,-2.222229004,1,0,0,rectangle,-4.277709961,-2.222229004,1,0,0,,1,0.0013,0,-4.277709961,-2.222229004,1,0,0,0,0,0,41,1,41,first,,,,,,,,,,,,,,,,,,,,,,,,,,,,,,,,,,,,,,,,,,,,,,,,,,,,,,,,,,,,,,,,,,,,,,,
,,,,,,6128b6f850d39bf85a29211e,62c538a4e11c40b2f02aaeab,2022-07-06_09h25.36.436,Colour_Asymmetry_Pilot,2022.1.3,Win32,47.98694755,62c50e9c1127f2cd403a315f,,,,,,,,,,,,,,,,,,,,fourthree,,-2,0.959,,,,,,,,,,,,,,,,,,,,,,,,,,,,,,,,,,"[0.0351999999999999,0.41159999999999997,0.0038000000000000256]","[0.19199999999999995,0.18419999999999992,0.5136000000000001]",-133.166626,-76.66668701,1,0,0,response5disk,9.055664063,-4.444458008,1,0,0,rectangle,9.055664063,-4.444458008,1,0,0,,1,0.0002,0,9.055664063,-4.444458008,1,0,0,0,1,1,73,1,73,first,,,,,,,,,,,,,,,,,,,,,,,,,,,,,,,,,,,,,,,,,,,,,,,,,,,,,,,,,,,,,,,,,,,,,,,
,,,,,,6128b6f850d39bf85a29211e,62c538a4e11c40b2f02aaeab,2022-07-06_09h25.36.436,Colour_Asymmetry_Pilot,2022.1.3,Win32,47.98694755,62c50e9c1127f2cd403a315f,,,,,,,,,,,,,,,,,,,,threefour,,-3,1.9578,,,,,,,,,,,,,,,,,,,,,,,,,,,,,,,,,,"[0.9686000000000001,0.3802000000000001,0.19999999999999996]","[0.4196,0.4665999999999999,0.3568]",-104.2776489,42.22216797,1,0,0,response7disk,-13.16662598,-3.333374023,1,0,0,rectangle,-13.16662598,-3.333374023,1,0,0,,3,0.0017,0,-13.16662598,-3.333374023,1,0,0,0,2,2,9,1,9,first,,,,,,,,,,,,,,,,,,,,,,,,,,,,,,,,,,,,,,,,,,,,,,,,,,,,,,,,,,,,,,,,,,,,,,,
,,,,,,6128b6f850d39bf85a29211e,62c538a4e11c40b2f02aaeab,2022-07-06_09h25.36.436,Colour_Asymmetry_Pilot,2022.1.3,Win32,47.98694755,62c50e9c1127f2cd403a315f,,,,,,,,,,,,,,,,,,,,twofour,,1,7.3129,,,,,,,,,,,,,,,,,,,,,,,,,,,,,,,,,,"[-0.9688,-0.4902000000000001,-0.12159999999999993]","[-0.6235999999999999,-0.6786,-0.08239999999999992]",33.5,-148.888916,1,0,0,response3disk,4.611206055,-5.555603027,1,0,0,rectangle,4.611206055,-5.555603027,1,0,0,,2,0.0014,0,4.611206055,-5.555603027,1,0,0,0,3,3,82,1,1,second,,,,,,,,,,,,,,,,,,,,,,,,,,,,,,,,,,,,,,,,,,,,,,,,,,,,,,,,,,,,,,,,,,,,,,,
,,,,,,6128b6f850d39bf85a29211e,62c538a4e11c40b2f02aaeab,2022-07-06_09h25.36.436,Colour_Asymmetry_Pilot,2022.1.3,Win32,47.98694755,62c50e9c1127f2cd403a315f,,,,,,,,,,,,,,,,,,,,fourtwo,,1,2.3334,,,,,,,,,,,,,,,,,,,,,,,,,,,,,,,,,,"[-0.4746,-0.0354000000000001,0.5449999999999999]","[-0.9296,-0.12959999999999994,-0.043199999999999905]",52.38891602,-103.333374,1,0,0,response3disk,4.611206055,-3.333374023,1,0,0,rectangle,4.611206055,-3.333374023,1,0,0,,1,0.0008,0,4.611206055,-3.333374023,1,0,0,0,4,4,91,1,10,second,,,,,,,,,,,,,,,,,,,,,,,,,,,,,,,,,,,,,,,,,,,,,,,,,,,,,,,,,,,,,,,,,,,,,,,
,,,,,,6128b6f850d39bf85a29211e,62c538a4e11c40b2f02aaeab,2022-07-06_09h25.36.436,Colour_Asymmetry_Pilot,2022.1.3,Win32,47.98694755,62c50e9c1127f2cd403a315f,,,,,,,,,,,,,,,,,,,,threeone,,-3,0.8334,,,,,,,,,,,,,,,,,,,,,,,,,,,,,,,,,,"[0.19199999999999995,0.18419999999999992,0.5136000000000001]","[0.34099999999999997,0.5841999999999998,-0.9844]",-88.72216797,47.777771,1,0,0,response7disk,2.388916016,3.333312988,1,0,0,rectangle,2.388916016,3.333312988,1,0,0,,2,0.0015,0,2.388916016,3.333312988,1,0,0,0,5,5,45,1,45,first,,,,,,,,,,,,,,,,,,,,,,,,,,,,,,,,,,,,,,,,,,,,,,,,,,,,,,,,,,,,,,,,,,,,,,,
,,,,,,6128b6f850d39bf85a29211e,62c538a4e11c40b2f02aaeab,2022-07-06_09h25.36.436,Colour_Asymmetry_Pilot,2022.1.3,Win32,47.98694755,62c50e9c1127f2cd403a315f,,,,,,,,,,,,,,,,,,,,fourthree,,-2,1.0001,,,,,,,,,,,,,,,,,,,,,,,,,,,,,,,,,,"[0.11359999999999992,0.6312,0.5213999999999999]","[0.0351999999999999,0.41159999999999997,0.0038000000000000256]",-105.388855,-61.11114502,1,0,0,response5disk,4.611206055,-2.222229004,1,0,0,rectangle,101.277832,-36.66668701,1,0,0,2,2,3.4998,1,1.277832031,-6.666687012,1,0,0,0,6,6,76,1,76,first,response3disk_3,rectangle,,,,,,,,,,,,,,,,,,,,,,,,,,,,,,,,,,,,,,,,,,,,,,,,,,,,,,,,,,,,,,,,,,,,,
,,,,,,6128b6f850d39bf85a29211e,62c538a4e11c40b2f02aaeab,2022-07-06_09h25.36.436,Colour_Asymmetry_Pilot,2022.1.3,Win32,47.98694755,62c50e9c1127f2cd403a315f,,,,,,,,,,,,,,,,,,,,twofour,,-2,2.0628,,,,,,,,,,,,,,,,,,,,,,,,,,,,,,,,,,"[-0.24719999999999998,-0.0354000000000001,0.3175999999999999]","[0.37240000000000006,0.4980000000000002,-0.2864]",-104.2776489,-45.55560303,1,0,0,response5disk,-5.388793945,7.777770996,1,0,0,rectangle,115.72229,47.777771,1,0,0,3,3,2.1454,1,-14.27770996,13.33331299,1,0,0,0,7,7,36,1,36,first,response1disk_3,rectangle,,,,,,,,,,,,,,,,,,,,,,,,,,,,,,,,,,,,,,,,,,,,,,,,,,,,,,,,,,,,,,,,,,,,,
,,,,,,6128b6f850d39bf85a29211e,62c538a4e11c40b2f02aaeab,2022-07-06_09h25.36.436,Colour_Asymmetry_Pilot,2022.1.3,Win32,47.98694755,62c50e9c1127f2cd403a315f,,,,,,,,,,,,,,,,,,,,threeone,,-3,1.6457,,,,,,,,,,,,,,,,,,,,,,,,,,,,,,,,,,"[-0.30200000000000005,0.14500000000000002,0.2784]","[0.34099999999999997,0.12939999999999996,-0.9766]",-100.944397,40,1,0,0,response7disk,1.277832031,1.111083984,1,0,0,rectangle,1.277832031,1.111083984,1,0,0,3,3,0.0002,0,1.277832031,1.111083984,1,0,0,0,8,8,43,1,43,first,,,,,,,,,,,,,,,,,,,,,,,,,,,,,,,,,,,,,,,,,,,,,,,,,,,,,,,,,,,,,,,,,,,,,,,
,,,,,,6128b6f850d39bf85a29211e,62c538a4e11c40b2f02aaeab,2022-07-06_09h25.36.436,Colour_Asymmetry_Pilot,2022.1.3,Win32,47.98694755,62c50e9c1127f2cd403a315f,,,,,,,,,,,,,,,,,,,,twofour,,3,1.5837,,,,,,,,,,,,,,,,,,,,,,,,,,,,,,,,,,"[-0.4668,-0.8746,-0.2942]","[0.09799999999999986,-0.24719999999999998,0.15280000000000005]",90.16674805,54.44439697,1,0,0,response1disk,5.722290039,2.222106934,1,0,0,rectangle,5.722290039,2.222106934,1,0,0,3,3,0.0001,0,5.722290039,2.222106934,1,0,0,0,9,9,79,1,79,first,,,,,,,,,,,,,,,,,,,,,,,,,,,,,,,,,,,,,,,,,,,,,,,,,,,,,,,,,,,,,,,,,,,,,,,
,,,,,,6128b6f850d39bf85a29211e,62c538a4e11c40b2f02aaeab,2022-07-06_09h25.36.436,Colour_Asymmetry_Pilot,2022.1.3,Win32,47.98694755,62c50e9c1127f2cd403a315f,,,,,,,,,,,,,,,,,,,,onetwo,,1,4.3959,,,,,,,,,,,,,,,,,,,,,,,,,,,,,,,,,,"[-0.2942,-0.24719999999999998,-0.357]","[-0.17659999999999998,0.3253999999999999,0.19999999999999996]",79.05578613,-114.444458,1,0,0,response3disk,-7.611083984,-11.11114502,1,0,0,rectangle,-7.611083984,-11.11114502,1,0,0,3,3,0.0001,0,-7.611083984,-11.11114502,1,0,0,0,10,10,89,1,8,second,,,,,,,,,,,,,,,,,,,,,,,,,,,,,,,,,,,,,,,,,,,,,,,,,,,,,,,,,,,,,,,,,,,,,,,
,,,,,,6128b6f850d39bf85a29211e,62c538a4e11c40b2f02aaeab,2022-07-06_09h25.36.436,Colour_Asymmetry_Pilot,2022.1.3,Win32,47.98694755,62c50e9c1127f2cd403a315f,,,,,,,,,,,,,,,,,,,,threefour,,-2,1.6459,,,,,,,,,,,,,,,,,,,,,,,,,,,,,,,,,,"[-0.9844,-0.9688,-0.9922]","[-0.20799999999999996,-0.655,-0.01980000000000004]",-104.2776489,-63.33337402,1,0,0,response5disk,-20.94433594,-15.55560303,1,0,0,rectangle,-20.94433594,-15.55560303,1,0,0,3,2,0.0007,0,-20.94433594,-15.55560303,1,0,0,0,11,11,152,1,71,second,,,,,,,,,,,,,,,,,,,,,,,,,,,,,,,,,,,,,,,,,,,,,,,,,,,,,,,,,,,,,,,,,,,,,,,
,,,,,,6128b6f850d39bf85a29211e,62c538a4e11c40b2f02aaeab,2022-07-06_09h25.36.436,Colour_Asymmetry_Pilot,2022.1.3,Win32,47.98694755,62c50e9c1127f2cd403a315f,,,,,,,,,,,,,,,,,,,,twoone,,-1,2.4167,,,,,,,,,,,,,,,,,,,,,,,,,,,,,,,,,,"[-0.26280000000000003,-0.4746,-0.2158]","[-0.6235999999999999,-0.6786,-0.08239999999999992]",-80.94439697,-125.555603,1,0,0,response5disk,1.277832031,1.111083984,1,0,0,rectangle,1.277832031,1.111083984,1,0,0,3,2,0.0001,0,1.277832031,1.111083984,1,0,0,0,12,12,148,1,67,second,,,,,,,,,,,,,,,,,,,,,,,,,,,,,,,,,,,,,,,,,,,,,,,,,,,,,,,,,,,,,,,,,,,,,,,
,,,,,,6128b6f850d39bf85a29211e,62c538a4e11c40b2f02aaeab,2022-07-06_09h25.36.436,Colour_Asymmetry_Pilot,2022.1.3,Win32,47.98694755,62c50e9c1127f2cd403a315f,,,,,,,,,,,,,,,,,,,,threeone,,-3,1.5832,,,,,,,,,,,,,,,,,,,,,,,,,,,,,,,,,,"[-0.24719999999999998,0.5213999999999999,-0.12959999999999994]","[-0.30200000000000005,0.14500000000000002,0.2784]",-124.2776489,80,1,0,0,response7disk,10.16674805,17.777771,1,0,0,rectangle,10.16674805,17.777771,1,0,0,3,2,0.0006,0,10.16674805,17.777771,1,0,0,0,13,13,19,1,19,first,,,,,,,,,,,,,,,,,,,,,,,,,,,,,,,,,,,,,,,,,,,,,,,,,,,,,,,,,,,,,,,,,,,,,,,
,,,,,,6128b6f850d39bf85a29211e,62c538a4e11c40b2f02aaeab,2022-07-06_09h25.36.436,Colour_Asymmetry_Pilot,2022.1.3,Win32,47.98694755,62c50e9c1127f2cd403a315f,,,,,,,,,,,,,,,,,,,,fourtwo,,-4,1.2501,,,,,,,,,,,,,,,,,,,,,,,,,,,,,,,,,,"[0.9763999999999999,0.8588,-0.05900000000000005]","[0.40379999999999994,0.09000000000000008,0.44300000000000006]",-58.72216797,127.77771,1,0,0,response7disk,4.611206055,12.22210693,1,0,0,rectangle,4.611206055,12.22210693,1,0,0,3,1,0.0007,0,4.611206055,12.22210693,1,0,0,0,14,14,29,1,29,first,,,,,,,,,,,,,,,,,,,,,,,,,,,,,,,,,,,,,,,,,,,,,,,,,,,,,,,,,,,,,,,,,,,,,,,
