trials.thisRepN,trials.thisTrialN,trials.thisN,trials.thisIndex,trials.ran,Colourcodes,participant,session,date,expName,psychopyVersion,OS,frameRate,study_id,trials_4.thisRepN,trials_4.thisTrialN,trials_4.thisN,trials_4.thisIndex,trials_4.ran,StimulusPos,key_resp.keys,key_resp.rt,key_resp_2.keys,key_resp_2.rt,key_resp_15.keys,key_resp_15.rt,key_resp_17.keys,key_resp_17.rt,key_resp_9.keys,key_resp_9.rt,key_resp_10.keys,key_resp_10.rt,Circle1_col,Ecc,Circle2_col,similarity,response_time,mouse_5.x,mouse_5.y,mouse_5.leftButton,mouse_5.midButton,mouse_5.rightButton,mouse_5.clicked_name,mouse_10.x,mouse_10.y,mouse_10.leftButton,mouse_10.midButton,mouse_10.rightButton,mouse_10.clicked_name,mouse_7.x,mouse_7.y,mouse_7.leftButton,mouse_7.midButton,mouse_7.rightButton,catchnumberprac,mouse_6.x,mouse_6.y,mouse_6.leftButton,mouse_6.midButton,mouse_6.rightButton,duringprac.thisRepN,duringprac.thisTrialN,duringprac.thisN,duringprac.thisIndex,duringprac.ran,mouse_7.clicked_name,catchprac,mouse_6.clicked_name,key_resp_22.keys,key_resp_22.rt,Circle1_colour,Circle2_colour,mouse.x,mouse.y,mouse.leftButton,mouse.midButton,mouse.rightButton,mouse.clicked_name,mouse_2.x,mouse_2.y,mouse_2.leftButton,mouse_2.midButton,mouse_2.rightButton,mouse_2.clicked_name,mouse_3.x,mouse_3.y,mouse_3.leftButton,mouse_3.midButton,mouse_3.rightButton,catchresponse,catchnumber,response_time_catch,Catch,mouse_11.x,mouse_11.y,mouse_11.leftButton,mouse_11.midButton,mouse_11.rightButton,trials_2.thisRepN,trials_2.thisTrialN,trials_2.thisN,trials_2.thisIndex,trials_2.ran,Colourpair,Temporder,mouse_3.clicked_name,mouse_11.clicked_name,trials_3.thisRepN,trials_3.thisTrialN,trials_3.thisN,trials_3.thisIndex,trials_3.ran,key_resp_instr_Ishi.keys,key_resp_instr_Ishi.rt,Ishi_trial_keyresp.keys,Ishi_textbox.text,Ishi_mouse.x,Ishi_mouse.y,Ishi_mouse.leftButton,Ishi_mouse.midButton,Ishi_mouse.rightButton,Ishi_mouse.clicked_name,Ishi_loop.thisRepN,Ishi_loop.thisTrialN,Ishi_loop.thisN,Ishi_loop.thisIndex,Ishi_loop.ran,imageaddress,textbox.text,mouse_4.x,mouse_4.y,mouse_4.leftButton,mouse_4.midButton,mouse_4.rightButton,mouse_4.clicked_name,textbox_2.text,mouse_8.x,mouse_8.y,mouse_8.leftButton,mouse_8.midButton,mouse_8.rightButton,mouse_8.clicked_name,textbox_3.text,mouse_9.x,mouse_9.y,mouse_9.leftButton,mouse_9.midButton,mouse_9.rightButton,mouse_9.clicked_name,textbox_4.text,mouse_12.x,mouse_12.y,mouse_12.leftButton,mouse_12.midButton,mouse_12.rightButton,mouse_12.clicked_name,textbox_5.text,mouse_13.x,mouse_13.y,mouse_13.leftButton,mouse_13.midButton,mouse_13.rightButton,mouse_13.clicked_name,textbox_6.text,mouse_14.x,mouse_14.y,mouse_14.leftButton,mouse_14.midButton,mouse_14.rightButton,mouse_14.clicked_name,textbox_7.text,mouse_15.x,mouse_15.y,mouse_15.leftButton,mouse_15.midButton,mouse_15.rightButton,mouse_15.clicked_name
0,0,0,74,1,,6174302b527b34205b0cc8f4,62c53a5c303bf8e23fd01cc9,2022-07-06_09h51.03.595,Colour_Asymmetry_Pilot,2022.1.3,Win32,59.87306909,62c50e9c1127f2cd403a315f,,,,,,,,,,,,,,,,,,,,,,,,,,,,,,,,,,,,,,,,,,,,,,,,,,,,,,,,,,,,,,,,,,,,,,,,,,,,,,,,,,,,,,,,,,,,,,,,,,,,,,,,,,,,,,,,,,,,,,,,,,,,,,,,,,,,,,,,,,,,,,,,,,,,,,,,,,,,,,,,,,,
0,1,1,44,1,,6174302b527b34205b0cc8f4,62c53a5c303bf8e23fd01cc9,2022-07-06_09h51.03.595,Colour_Asymmetry_Pilot,2022.1.3,Win32,59.87306909,62c50e9c1127f2cd403a315f,,,,,,,,,,,,,,,,,,,,,,,,,,,,,,,,,,,,,,,,,,,,,,,,,,,,,,,,,,,,,,,,,,,,,,,,,,,,,,,,,,,,,,,,,,,,,,,,,,,,,,,,,,,,,,,,,,,,,,,,,,,,,,,,,,,,,,,,,,,,,,,,,,,,,,,,,,,,,,,,,,,
0,2,2,60,1,,6174302b527b34205b0cc8f4,62c53a5c303bf8e23fd01cc9,2022-07-06_09h51.03.595,Colour_Asymmetry_Pilot,2022.1.3,Win32,59.87306909,62c50e9c1127f2cd403a315f,,,,,,,,,,,,,,,,,,,,,,,,,,,,,,,,,,,,,,,,,,,,,,,,,,,,,,,,,,,,,,,,,,,,,,,,,,,,,,,,,,,,,,,,,,,,,,,,,,,,,,,,,,,,,,,,,,,,,,,,,,,,,,,,,,,,,,,,,,,,,,,,,,,,,,,,,,,,,,,,,,,
0,3,3,20,1,,6174302b527b34205b0cc8f4,62c53a5c303bf8e23fd01cc9,2022-07-06_09h51.03.595,Colour_Asymmetry_Pilot,2022.1.3,Win32,59.87306909,62c50e9c1127f2cd403a315f,,,,,,,,,,,,,,,,,,,,,,,,,,,,,,,,,,,,,,,,,,,,,,,,,,,,,,,,,,,,,,,,,,,,,,,,,,,,,,,,,,,,,,,,,,,,,,,,,,,,,,,,,,,,,,,,,,,,,,,,,,,,,,,,,,,,,,,,,,,,,,,,,,,,,,,,,,,,,,,,,,,
0,4,4,92,1,,6174302b527b34205b0cc8f4,62c53a5c303bf8e23fd01cc9,2022-07-06_09h51.03.595,Colour_Asymmetry_Pilot,2022.1.3,Win32,59.87306909,62c50e9c1127f2cd403a315f,,,,,,,,,,,,,,,,,,,,,,,,,,,,,,,,,,,,,,,,,,,,,,,,,,,,,,,,,,,,,,,,,,,,,,,,,,,,,,,,,,,,,,,,,,,,,,,,,,,,,,,,,,,,,,,,,,,,,,,,,,,,,,,,,,,,,,,,,,,,,,,,,,,,,,,,,,,,,,,,,,,
0,5,5,64,1,,6174302b527b34205b0cc8f4,62c53a5c303bf8e23fd01cc9,2022-07-06_09h51.03.595,Colour_Asymmetry_Pilot,2022.1.3,Win32,59.87306909,62c50e9c1127f2cd403a315f,,,,,,,,,,,,,,,,,,,,,,,,,,,,,,,,,,,,,,,,,,,,,,,,,,,,,,,,,,,,,,,,,,,,,,,,,,,,,,,,,,,,,,,,,,,,,,,,,,,,,,,,,,,,,,,,,,,,,,,,,,,,,,,,,,,,,,,,,,,,,,,,,,,,,,,,,,,,,,,,,,,
0,6,6,14,1,,6174302b527b34205b0cc8f4,62c53a5c303bf8e23fd01cc9,2022-07-06_09h51.03.595,Colour_Asymmetry_Pilot,2022.1.3,Win32,59.87306909,62c50e9c1127f2cd403a315f,,,,,,,,,,,,,,,,,,,,,,,,,,,,,,,,,,,,,,,,,,,,,,,,,,,,,,,,,,,,,,,,,,,,,,,,,,,,,,,,,,,,,,,,,,,,,,,,,,,,,,,,,,,,,,,,,,,,,,,,,,,,,,,,,,,,,,,,,,,,,,,,,,,,,,,,,,,,,,,,,,,
0,7,7,6,1,,6174302b527b34205b0cc8f4,62c53a5c303bf8e23fd01cc9,2022-07-06_09h51.03.595,Colour_Asymmetry_Pilot,2022.1.3,Win32,59.87306909,62c50e9c1127f2cd403a315f,,,,,,,,,,,,,,,,,,,,,,,,,,,,,,,,,,,,,,,,,,,,,,,,,,,,,,,,,,,,,,,,,,,,,,,,,,,,,,,,,,,,,,,,,,,,,,,,,,,,,,,,,,,,,,,,,,,,,,,,,,,,,,,,,,,,,,,,,,,,,,,,,,,,,,,,,,,,,,,,,,,
0,8,8,57,1,,6174302b527b34205b0cc8f4,62c53a5c303bf8e23fd01cc9,2022-07-06_09h51.03.595,Colour_Asymmetry_Pilot,2022.1.3,Win32,59.87306909,62c50e9c1127f2cd403a315f,,,,,,,,,,,,,,,,,,,,,,,,,,,,,,,,,,,,,,,,,,,,,,,,,,,,,,,,,,,,,,,,,,,,,,,,,,,,,,,,,,,,,,,,,,,,,,,,,,,,,,,,,,,,,,,,,,,,,,,,,,,,,,,,,,,,,,,,,,,,,,,,,,,,,,,,,,,,,,,,,,,
0,9,9,65,1,,6174302b527b34205b0cc8f4,62c53a5c303bf8e23fd01cc9,2022-07-06_09h51.03.595,Colour_Asymmetry_Pilot,2022.1.3,Win32,59.87306909,62c50e9c1127f2cd403a315f,,,,,,,,,,,,,,,,,,,,,,,,,,,,,,,,,,,,,,,,,,,,,,,,,,,,,,,,,,,,,,,,,,,,,,,,,,,,,,,,,,,,,,,,,,,,,,,,,,,,,,,,,,,,,,,,,,,,,,,,,,,,,,,,,,,,,,,,,,,,,,,,,,,,,,,,,,,,,,,,,,,
0,10,10,43,1,,6174302b527b34205b0cc8f4,62c53a5c303bf8e23fd01cc9,2022-07-06_09h51.03.595,Colour_Asymmetry_Pilot,2022.1.3,Win32,59.87306909,62c50e9c1127f2cd403a315f,,,,,,,,,,,,,,,,,,,,,,,,,,,,,,,,,,,,,,,,,,,,,,,,,,,,,,,,,,,,,,,,,,,,,,,,,,,,,,,,,,,,,,,,,,,,,,,,,,,,,,,,,,,,,,,,,,,,,,,,,,,,,,,,,,,,,,,,,,,,,,,,,,,,,,,,,,,,,,,,,,,
0,11,11,29,1,,6174302b527b34205b0cc8f4,62c53a5c303bf8e23fd01cc9,2022-07-06_09h51.03.595,Colour_Asymmetry_Pilot,2022.1.3,Win32,59.87306909,62c50e9c1127f2cd403a315f,,,,,,,,,,,,,,,,,,,,,,,,,,,,,,,,,,,,,,,,,,,,,,,,,,,,,,,,,,,,,,,,,,,,,,,,,,,,,,,,,,,,,,,,,,,,,,,,,,,,,,,,,,,,,,,,,,,,,,,,,,,,,,,,,,,,,,,,,,,,,,,,,,,,,,,,,,,,,,,,,,,
0,12,12,36,1,,6174302b527b34205b0cc8f4,62c53a5c303bf8e23fd01cc9,2022-07-06_09h51.03.595,Colour_Asymmetry_Pilot,2022.1.3,Win32,59.87306909,62c50e9c1127f2cd403a315f,,,,,,,,,,,,,,,,,,,,,,,,,,,,,,,,,,,,,,,,,,,,,,,,,,,,,,,,,,,,,,,,,,,,,,,,,,,,,,,,,,,,,,,,,,,,,,,,,,,,,,,,,,,,,,,,,,,,,,,,,,,,,,,,,,,,,,,,,,,,,,,,,,,,,,,,,,,,,,,,,,,
0,13,13,50,1,,6174302b527b34205b0cc8f4,62c53a5c303bf8e23fd01cc9,2022-07-06_09h51.03.595,Colour_Asymmetry_Pilot,2022.1.3,Win32,59.87306909,62c50e9c1127f2cd403a315f,,,,,,,,,,,,,,,,,,,,,,,,,,,,,,,,,,,,,,,,,,,,,,,,,,,,,,,,,,,,,,,,,,,,,,,,,,,,,,,,,,,,,,,,,,,,,,,,,,,,,,,,,,,,,,,,,,,,,,,,,,,,,,,,,,,,,,,,,,,,,,,,,,,,,,,,,,,,,,,,,,,
0,14,14,38,1,,6174302b527b34205b0cc8f4,62c53a5c303bf8e23fd01cc9,2022-07-06_09h51.03.595,Colour_Asymmetry_Pilot,2022.1.3,Win32,59.87306909,62c50e9c1127f2cd403a315f,,,,,,,,,,,,,,,,,,,,,,,,,,,,,,,,,,,,,,,,,,,,,,,,,,,,,,,,,,,,,,,,,,,,,,,,,,,,,,,,,,,,,,,,,,,,,,,,,,,,,,,,,,,,,,,,,,,,,,,,,,,,,,,,,,,,,,,,,,,,,,,,,,,,,,,,,,,,,,,,,,,
0,15,15,71,1,,6174302b527b34205b0cc8f4,62c53a5c303bf8e23fd01cc9,2022-07-06_09h51.03.595,Colour_Asymmetry_Pilot,2022.1.3,Win32,59.87306909,62c50e9c1127f2cd403a315f,,,,,,,,,,,,,,,,,,,,,,,,,,,,,,,,,,,,,,,,,,,,,,,,,,,,,,,,,,,,,,,,,,,,,,,,,,,,,,,,,,,,,,,,,,,,,,,,,,,,,,,,,,,,,,,,,,,,,,,,,,,,,,,,,,,,,,,,,,,,,,,,,,,,,,,,,,,,,,,,,,,
0,16,16,51,1,,6174302b527b34205b0cc8f4,62c53a5c303bf8e23fd01cc9,2022-07-06_09h51.03.595,Colour_Asymmetry_Pilot,2022.1.3,Win32,59.87306909,62c50e9c1127f2cd403a315f,,,,,,,,,,,,,,,,,,,,,,,,,,,,,,,,,,,,,,,,,,,,,,,,,,,,,,,,,,,,,,,,,,,,,,,,,,,,,,,,,,,,,,,,,,,,,,,,,,,,,,,,,,,,,,,,,,,,,,,,,,,,,,,,,,,,,,,,,,,,,,,,,,,,,,,,,,,,,,,,,,,
0,17,17,84,1,,6174302b527b34205b0cc8f4,62c53a5c303bf8e23fd01cc9,2022-07-06_09h51.03.595,Colour_Asymmetry_Pilot,2022.1.3,Win32,59.87306909,62c50e9c1127f2cd403a315f,,,,,,,,,,,,,,,,,,,,,,,,,,,,,,,,,,,,,,,,,,,,,,,,,,,,,,,,,,,,,,,,,,,,,,,,,,,,,,,,,,,,,,,,,,,,,,,,,,,,,,,,,,,,,,,,,,,,,,,,,,,,,,,,,,,,,,,,,,,,,,,,,,,,,,,,,,,,,,,,,,,
0,18,18,35,1,,6174302b527b34205b0cc8f4,62c53a5c303bf8e23fd01cc9,2022-07-06_09h51.03.595,Colour_Asymmetry_Pilot,2022.1.3,Win32,59.87306909,62c50e9c1127f2cd403a315f,,,,,,,,,,,,,,,,,,,,,,,,,,,,,,,,,,,,,,,,,,,,,,,,,,,,,,,,,,,,,,,,,,,,,,,,,,,,,,,,,,,,,,,,,,,,,,,,,,,,,,,,,,,,,,,,,,,,,,,,,,,,,,,,,,,,,,,,,,,,,,,,,,,,,,,,,,,,,,,,,,,
0,19,19,69,1,,6174302b527b34205b0cc8f4,62c53a5c303bf8e23fd01cc9,2022-07-06_09h51.03.595,Colour_Asymmetry_Pilot,2022.1.3,Win32,59.87306909,62c50e9c1127f2cd403a315f,,,,,,,,,,,,,,,,,,,,,,,,,,,,,,,,,,,,,,,,,,,,,,,,,,,,,,,,,,,,,,,,,,,,,,,,,,,,,,,,,,,,,,,,,,,,,,,,,,,,,,,,,,,,,,,,,,,,,,,,,,,,,,,,,,,,,,,,,,,,,,,,,,,,,,,,,,,,,,,,,,,
0,20,20,79,1,,6174302b527b34205b0cc8f4,62c53a5c303bf8e23fd01cc9,2022-07-06_09h51.03.595,Colour_Asymmetry_Pilot,2022.1.3,Win32,59.87306909,62c50e9c1127f2cd403a315f,,,,,,,,,,,,,,,,,,,,,,,,,,,,,,,,,,,,,,,,,,,,,,,,,,,,,,,,,,,,,,,,,,,,,,,,,,,,,,,,,,,,,,,,,,,,,,,,,,,,,,,,,,,,,,,,,,,,,,,,,,,,,,,,,,,,,,,,,,,,,,,,,,,,,,,,,,,,,,,,,,,
0,21,21,61,1,,6174302b527b34205b0cc8f4,62c53a5c303bf8e23fd01cc9,2022-07-06_09h51.03.595,Colour_Asymmetry_Pilot,2022.1.3,Win32,59.87306909,62c50e9c1127f2cd403a315f,,,,,,,,,,,,,,,,,,,,,,,,,,,,,,,,,,,,,,,,,,,,,,,,,,,,,,,,,,,,,,,,,,,,,,,,,,,,,,,,,,,,,,,,,,,,,,,,,,,,,,,,,,,,,,,,,,,,,,,,,,,,,,,,,,,,,,,,,,,,,,,,,,,,,,,,,,,,,,,,,,,
0,22,22,13,1,,6174302b527b34205b0cc8f4,62c53a5c303bf8e23fd01cc9,2022-07-06_09h51.03.595,Colour_Asymmetry_Pilot,2022.1.3,Win32,59.87306909,62c50e9c1127f2cd403a315f,,,,,,,,,,,,,,,,,,,,,,,,,,,,,,,,,,,,,,,,,,,,,,,,,,,,,,,,,,,,,,,,,,,,,,,,,,,,,,,,,,,,,,,,,,,,,,,,,,,,,,,,,,,,,,,,,,,,,,,,,,,,,,,,,,,,,,,,,,,,,,,,,,,,,,,,,,,,,,,,,,,
0,23,23,48,1,,6174302b527b34205b0cc8f4,62c53a5c303bf8e23fd01cc9,2022-07-06_09h51.03.595,Colour_Asymmetry_Pilot,2022.1.3,Win32,59.87306909,62c50e9c1127f2cd403a315f,,,,,,,,,,,,,,,,,,,,,,,,,,,,,,,,,,,,,,,,,,,,,,,,,,,,,,,,,,,,,,,,,,,,,,,,,,,,,,,,,,,,,,,,,,,,,,,,,,,,,,,,,,,,,,,,,,,,,,,,,,,,,,,,,,,,,,,,,,,,,,,,,,,,,,,,,,,,,,,,,,,
0,24,24,75,1,,6174302b527b34205b0cc8f4,62c53a5c303bf8e23fd01cc9,2022-07-06_09h51.03.595,Colour_Asymmetry_Pilot,2022.1.3,Win32,59.87306909,62c50e9c1127f2cd403a315f,,,,,,,,,,,,,,,,,,,,,,,,,,,,,,,,,,,,,,,,,,,,,,,,,,,,,,,,,,,,,,,,,,,,,,,,,,,,,,,,,,,,,,,,,,,,,,,,,,,,,,,,,,,,,,,,,,,,,,,,,,,,,,,,,,,,,,,,,,,,,,,,,,,,,,,,,,,,,,,,,,,
0,25,25,10,1,,6174302b527b34205b0cc8f4,62c53a5c303bf8e23fd01cc9,2022-07-06_09h51.03.595,Colour_Asymmetry_Pilot,2022.1.3,Win32,59.87306909,62c50e9c1127f2cd403a315f,,,,,,,,,,,,,,,,,,,,,,,,,,,,,,,,,,,,,,,,,,,,,,,,,,,,,,,,,,,,,,,,,,,,,,,,,,,,,,,,,,,,,,,,,,,,,,,,,,,,,,,,,,,,,,,,,,,,,,,,,,,,,,,,,,,,,,,,,,,,,,,,,,,,,,,,,,,,,,,,,,,
0,26,26,41,1,,6174302b527b34205b0cc8f4,62c53a5c303bf8e23fd01cc9,2022-07-06_09h51.03.595,Colour_Asymmetry_Pilot,2022.1.3,Win32,59.87306909,62c50e9c1127f2cd403a315f,,,,,,,,,,,,,,,,,,,,,,,,,,,,,,,,,,,,,,,,,,,,,,,,,,,,,,,,,,,,,,,,,,,,,,,,,,,,,,,,,,,,,,,,,,,,,,,,,,,,,,,,,,,,,,,,,,,,,,,,,,,,,,,,,,,,,,,,,,,,,,,,,,,,,,,,,,,,,,,,,,,
0,27,27,11,1,,6174302b527b34205b0cc8f4,62c53a5c303bf8e23fd01cc9,2022-07-06_09h51.03.595,Colour_Asymmetry_Pilot,2022.1.3,Win32,59.87306909,62c50e9c1127f2cd403a315f,,,,,,,,,,,,,,,,,,,,,,,,,,,,,,,,,,,,,,,,,,,,,,,,,,,,,,,,,,,,,,,,,,,,,,,,,,,,,,,,,,,,,,,,,,,,,,,,,,,,,,,,,,,,,,,,,,,,,,,,,,,,,,,,,,,,,,,,,,,,,,,,,,,,,,,,,,,,,,,,,,,
0,28,28,80,1,,6174302b527b34205b0cc8f4,62c53a5c303bf8e23fd01cc9,2022-07-06_09h51.03.595,Colour_Asymmetry_Pilot,2022.1.3,Win32,59.87306909,62c50e9c1127f2cd403a315f,,,,,,,,,,,,,,,,,,,,,,,,,,,,,,,,,,,,,,,,,,,,,,,,,,,,,,,,,,,,,,,,,,,,,,,,,,,,,,,,,,,,,,,,,,,,,,,,,,,,,,,,,,,,,,,,,,,,,,,,,,,,,,,,,,,,,,,,,,,,,,,,,,,,,,,,,,,,,,,,,,,
0,29,29,24,1,,6174302b527b34205b0cc8f4,62c53a5c303bf8e23fd01cc9,2022-07-06_09h51.03.595,Colour_Asymmetry_Pilot,2022.1.3,Win32,59.87306909,62c50e9c1127f2cd403a315f,,,,,,,,,,,,,,,,,,,,,,,,,,,,,,,,,,,,,,,,,,,,,,,,,,,,,,,,,,,,,,,,,,,,,,,,,,,,,,,,,,,,,,,,,,,,,,,,,,,,,,,,,,,,,,,,,,,,,,,,,,,,,,,,,,,,,,,,,,,,,,,,,,,,,,,,,,,,,,,,,,,
0,30,30,42,1,,6174302b527b34205b0cc8f4,62c53a5c303bf8e23fd01cc9,2022-07-06_09h51.03.595,Colour_Asymmetry_Pilot,2022.1.3,Win32,59.87306909,62c50e9c1127f2cd403a315f,,,,,,,,,,,,,,,,,,,,,,,,,,,,,,,,,,,,,,,,,,,,,,,,,,,,,,,,,,,,,,,,,,,,,,,,,,,,,,,,,,,,,,,,,,,,,,,,,,,,,,,,,,,,,,,,,,,,,,,,,,,,,,,,,,,,,,,,,,,,,,,,,,,,,,,,,,,,,,,,,,,
0,31,31,49,1,,6174302b527b34205b0cc8f4,62c53a5c303bf8e23fd01cc9,2022-07-06_09h51.03.595,Colour_Asymmetry_Pilot,2022.1.3,Win32,59.87306909,62c50e9c1127f2cd403a315f,,,,,,,,,,,,,,,,,,,,,,,,,,,,,,,,,,,,,,,,,,,,,,,,,,,,,,,,,,,,,,,,,,,,,,,,,,,,,,,,,,,,,,,,,,,,,,,,,,,,,,,,,,,,,,,,,,,,,,,,,,,,,,,,,,,,,,,,,,,,,,,,,,,,,,,,,,,,,,,,,,,
0,32,32,16,1,,6174302b527b34205b0cc8f4,62c53a5c303bf8e23fd01cc9,2022-07-06_09h51.03.595,Colour_Asymmetry_Pilot,2022.1.3,Win32,59.87306909,62c50e9c1127f2cd403a315f,,,,,,,,,,,,,,,,,,,,,,,,,,,,,,,,,,,,,,,,,,,,,,,,,,,,,,,,,,,,,,,,,,,,,,,,,,,,,,,,,,,,,,,,,,,,,,,,,,,,,,,,,,,,,,,,,,,,,,,,,,,,,,,,,,,,,,,,,,,,,,,,,,,,,,,,,,,,,,,,,,,
0,33,33,82,1,,6174302b527b34205b0cc8f4,62c53a5c303bf8e23fd01cc9,2022-07-06_09h51.03.595,Colour_Asymmetry_Pilot,2022.1.3,Win32,59.87306909,62c50e9c1127f2cd403a315f,,,,,,,,,,,,,,,,,,,,,,,,,,,,,,,,,,,,,,,,,,,,,,,,,,,,,,,,,,,,,,,,,,,,,,,,,,,,,,,,,,,,,,,,,,,,,,,,,,,,,,,,,,,,,,,,,,,,,,,,,,,,,,,,,,,,,,,,,,,,,,,,,,,,,,,,,,,,,,,,,,,
0,34,34,76,1,,6174302b527b34205b0cc8f4,62c53a5c303bf8e23fd01cc9,2022-07-06_09h51.03.595,Colour_Asymmetry_Pilot,2022.1.3,Win32,59.87306909,62c50e9c1127f2cd403a315f,,,,,,,,,,,,,,,,,,,,,,,,,,,,,,,,,,,,,,,,,,,,,,,,,,,,,,,,,,,,,,,,,,,,,,,,,,,,,,,,,,,,,,,,,,,,,,,,,,,,,,,,,,,,,,,,,,,,,,,,,,,,,,,,,,,,,,,,,,,,,,,,,,,,,,,,,,,,,,,,,,,
0,35,35,5,1,,6174302b527b34205b0cc8f4,62c53a5c303bf8e23fd01cc9,2022-07-06_09h51.03.595,Colour_Asymmetry_Pilot,2022.1.3,Win32,59.87306909,62c50e9c1127f2cd403a315f,,,,,,,,,,,,,,,,,,,,,,,,,,,,,,,,,,,,,,,,,,,,,,,,,,,,,,,,,,,,,,,,,,,,,,,,,,,,,,,,,,,,,,,,,,,,,,,,,,,,,,,,,,,,,,,,,,,,,,,,,,,,,,,,,,,,,,,,,,,,,,,,,,,,,,,,,,,,,,,,,,,
0,36,36,88,1,,6174302b527b34205b0cc8f4,62c53a5c303bf8e23fd01cc9,2022-07-06_09h51.03.595,Colour_Asymmetry_Pilot,2022.1.3,Win32,59.87306909,62c50e9c1127f2cd403a315f,,,,,,,,,,,,,,,,,,,,,,,,,,,,,,,,,,,,,,,,,,,,,,,,,,,,,,,,,,,,,,,,,,,,,,,,,,,,,,,,,,,,,,,,,,,,,,,,,,,,,,,,,,,,,,,,,,,,,,,,,,,,,,,,,,,,,,,,,,,,,,,,,,,,,,,,,,,,,,,,,,,
0,37,37,31,1,,6174302b527b34205b0cc8f4,62c53a5c303bf8e23fd01cc9,2022-07-06_09h51.03.595,Colour_Asymmetry_Pilot,2022.1.3,Win32,59.87306909,62c50e9c1127f2cd403a315f,,,,,,,,,,,,,,,,,,,,,,,,,,,,,,,,,,,,,,,,,,,,,,,,,,,,,,,,,,,,,,,,,,,,,,,,,,,,,,,,,,,,,,,,,,,,,,,,,,,,,,,,,,,,,,,,,,,,,,,,,,,,,,,,,,,,,,,,,,,,,,,,,,,,,,,,,,,,,,,,,,,
0,38,38,78,1,,6174302b527b34205b0cc8f4,62c53a5c303bf8e23fd01cc9,2022-07-06_09h51.03.595,Colour_Asymmetry_Pilot,2022.1.3,Win32,59.87306909,62c50e9c1127f2cd403a315f,,,,,,,,,,,,,,,,,,,,,,,,,,,,,,,,,,,,,,,,,,,,,,,,,,,,,,,,,,,,,,,,,,,,,,,,,,,,,,,,,,,,,,,,,,,,,,,,,,,,,,,,,,,,,,,,,,,,,,,,,,,,,,,,,,,,,,,,,,,,,,,,,,,,,,,,,,,,,,,,,,,
0,39,39,0,1,,6174302b527b34205b0cc8f4,62c53a5c303bf8e23fd01cc9,2022-07-06_09h51.03.595,Colour_Asymmetry_Pilot,2022.1.3,Win32,59.87306909,62c50e9c1127f2cd403a315f,,,,,,,,,,,,,,,,,,,,,,,,,,,,,,,,,,,,,,,,,,,,,,,,,,,,,,,,,,,,,,,,,,,,,,,,,,,,,,,,,,,,,,,,,,,,,,,,,,,,,,,,,,,,,,,,,,,,,,,,,,,,,,,,,,,,,,,,,,,,,,,,,,,,,,,,,,,,,,,,,,,
0,40,40,86,1,,6174302b527b34205b0cc8f4,62c53a5c303bf8e23fd01cc9,2022-07-06_09h51.03.595,Colour_Asymmetry_Pilot,2022.1.3,Win32,59.87306909,62c50e9c1127f2cd403a315f,,,,,,,,,,,,,,,,,,,,,,,,,,,,,,,,,,,,,,,,,,,,,,,,,,,,,,,,,,,,,,,,,,,,,,,,,,,,,,,,,,,,,,,,,,,,,,,,,,,,,,,,,,,,,,,,,,,,,,,,,,,,,,,,,,,,,,,,,,,,,,,,,,,,,,,,,,,,,,,,,,,
0,41,41,68,1,,6174302b527b34205b0cc8f4,62c53a5c303bf8e23fd01cc9,2022-07-06_09h51.03.595,Colour_Asymmetry_Pilot,2022.1.3,Win32,59.87306909,62c50e9c1127f2cd403a315f,,,,,,,,,,,,,,,,,,,,,,,,,,,,,,,,,,,,,,,,,,,,,,,,,,,,,,,,,,,,,,,,,,,,,,,,,,,,,,,,,,,,,,,,,,,,,,,,,,,,,,,,,,,,,,,,,,,,,,,,,,,,,,,,,,,,,,,,,,,,,,,,,,,,,,,,,,,,,,,,,,,
0,42,42,8,1,,6174302b527b34205b0cc8f4,62c53a5c303bf8e23fd01cc9,2022-07-06_09h51.03.595,Colour_Asymmetry_Pilot,2022.1.3,Win32,59.87306909,62c50e9c1127f2cd403a315f,,,,,,,,,,,,,,,,,,,,,,,,,,,,,,,,,,,,,,,,,,,,,,,,,,,,,,,,,,,,,,,,,,,,,,,,,,,,,,,,,,,,,,,,,,,,,,,,,,,,,,,,,,,,,,,,,,,,,,,,,,,,,,,,,,,,,,,,,,,,,,,,,,,,,,,,,,,,,,,,,,,
0,43,43,45,1,,6174302b527b34205b0cc8f4,62c53a5c303bf8e23fd01cc9,2022-07-06_09h51.03.595,Colour_Asymmetry_Pilot,2022.1.3,Win32,59.87306909,62c50e9c1127f2cd403a315f,,,,,,,,,,,,,,,,,,,,,,,,,,,,,,,,,,,,,,,,,,,,,,,,,,,,,,,,,,,,,,,,,,,,,,,,,,,,,,,,,,,,,,,,,,,,,,,,,,,,,,,,,,,,,,,,,,,,,,,,,,,,,,,,,,,,,,,,,,,,,,,,,,,,,,,,,,,,,,,,,,,
0,44,44,9,1,,6174302b527b34205b0cc8f4,62c53a5c303bf8e23fd01cc9,2022-07-06_09h51.03.595,Colour_Asymmetry_Pilot,2022.1.3,Win32,59.87306909,62c50e9c1127f2cd403a315f,,,,,,,,,,,,,,,,,,,,,,,,,,,,,,,,,,,,,,,,,,,,,,,,,,,,,,,,,,,,,,,,,,,,,,,,,,,,,,,,,,,,,,,,,,,,,,,,,,,,,,,,,,,,,,,,,,,,,,,,,,,,,,,,,,,,,,,,,,,,,,,,,,,,,,,,,,,,,,,,,,,
0,45,45,1,1,,6174302b527b34205b0cc8f4,62c53a5c303bf8e23fd01cc9,2022-07-06_09h51.03.595,Colour_Asymmetry_Pilot,2022.1.3,Win32,59.87306909,62c50e9c1127f2cd403a315f,,,,,,,,,,,,,,,,,,,,,,,,,,,,,,,,,,,,,,,,,,,,,,,,,,,,,,,,,,,,,,,,,,,,,,,,,,,,,,,,,,,,,,,,,,,,,,,,,,,,,,,,,,,,,,,,,,,,,,,,,,,,,,,,,,,,,,,,,,,,,,,,,,,,,,,,,,,,,,,,,,,
0,46,46,63,1,,6174302b527b34205b0cc8f4,62c53a5c303bf8e23fd01cc9,2022-07-06_09h51.03.595,Colour_Asymmetry_Pilot,2022.1.3,Win32,59.87306909,62c50e9c1127f2cd403a315f,,,,,,,,,,,,,,,,,,,,,,,,,,,,,,,,,,,,,,,,,,,,,,,,,,,,,,,,,,,,,,,,,,,,,,,,,,,,,,,,,,,,,,,,,,,,,,,,,,,,,,,,,,,,,,,,,,,,,,,,,,,,,,,,,,,,,,,,,,,,,,,,,,,,,,,,,,,,,,,,,,,
0,47,47,25,1,,6174302b527b34205b0cc8f4,62c53a5c303bf8e23fd01cc9,2022-07-06_09h51.03.595,Colour_Asymmetry_Pilot,2022.1.3,Win32,59.87306909,62c50e9c1127f2cd403a315f,,,,,,,,,,,,,,,,,,,,,,,,,,,,,,,,,,,,,,,,,,,,,,,,,,,,,,,,,,,,,,,,,,,,,,,,,,,,,,,,,,,,,,,,,,,,,,,,,,,,,,,,,,,,,,,,,,,,,,,,,,,,,,,,,,,,,,,,,,,,,,,,,,,,,,,,,,,,,,,,,,,
0,48,48,19,1,,6174302b527b34205b0cc8f4,62c53a5c303bf8e23fd01cc9,2022-07-06_09h51.03.595,Colour_Asymmetry_Pilot,2022.1.3,Win32,59.87306909,62c50e9c1127f2cd403a315f,,,,,,,,,,,,,,,,,,,,,,,,,,,,,,,,,,,,,,,,,,,,,,,,,,,,,,,,,,,,,,,,,,,,,,,,,,,,,,,,,,,,,,,,,,,,,,,,,,,,,,,,,,,,,,,,,,,,,,,,,,,,,,,,,,,,,,,,,,,,,,,,,,,,,,,,,,,,,,,,,,,
0,49,49,26,1,,6174302b527b34205b0cc8f4,62c53a5c303bf8e23fd01cc9,2022-07-06_09h51.03.595,Colour_Asymmetry_Pilot,2022.1.3,Win32,59.87306909,62c50e9c1127f2cd403a315f,,,,,,,,,,,,,,,,,,,,,,,,,,,,,,,,,,,,,,,,,,,,,,,,,,,,,,,,,,,,,,,,,,,,,,,,,,,,,,,,,,,,,,,,,,,,,,,,,,,,,,,,,,,,,,,,,,,,,,,,,,,,,,,,,,,,,,,,,,,,,,,,,,,,,,,,,,,,,,,,,,,
0,50,50,59,1,,6174302b527b34205b0cc8f4,62c53a5c303bf8e23fd01cc9,2022-07-06_09h51.03.595,Colour_Asymmetry_Pilot,2022.1.3,Win32,59.87306909,62c50e9c1127f2cd403a315f,,,,,,,,,,,,,,,,,,,,,,,,,,,,,,,,,,,,,,,,,,,,,,,,,,,,,,,,,,,,,,,,,,,,,,,,,,,,,,,,,,,,,,,,,,,,,,,,,,,,,,,,,,,,,,,,,,,,,,,,,,,,,,,,,,,,,,,,,,,,,,,,,,,,,,,,,,,,,,,,,,,
0,51,51,21,1,,6174302b527b34205b0cc8f4,62c53a5c303bf8e23fd01cc9,2022-07-06_09h51.03.595,Colour_Asymmetry_Pilot,2022.1.3,Win32,59.87306909,62c50e9c1127f2cd403a315f,,,,,,,,,,,,,,,,,,,,,,,,,,,,,,,,,,,,,,,,,,,,,,,,,,,,,,,,,,,,,,,,,,,,,,,,,,,,,,,,,,,,,,,,,,,,,,,,,,,,,,,,,,,,,,,,,,,,,,,,,,,,,,,,,,,,,,,,,,,,,,,,,,,,,,,,,,,,,,,,,,,
0,52,52,39,1,,6174302b527b34205b0cc8f4,62c53a5c303bf8e23fd01cc9,2022-07-06_09h51.03.595,Colour_Asymmetry_Pilot,2022.1.3,Win32,59.87306909,62c50e9c1127f2cd403a315f,,,,,,,,,,,,,,,,,,,,,,,,,,,,,,,,,,,,,,,,,,,,,,,,,,,,,,,,,,,,,,,,,,,,,,,,,,,,,,,,,,,,,,,,,,,,,,,,,,,,,,,,,,,,,,,,,,,,,,,,,,,,,,,,,,,,,,,,,,,,,,,,,,,,,,,,,,,,,,,,,,,
0,53,53,12,1,,6174302b527b34205b0cc8f4,62c53a5c303bf8e23fd01cc9,2022-07-06_09h51.03.595,Colour_Asymmetry_Pilot,2022.1.3,Win32,59.87306909,62c50e9c1127f2cd403a315f,,,,,,,,,,,,,,,,,,,,,,,,,,,,,,,,,,,,,,,,,,,,,,,,,,,,,,,,,,,,,,,,,,,,,,,,,,,,,,,,,,,,,,,,,,,,,,,,,,,,,,,,,,,,,,,,,,,,,,,,,,,,,,,,,,,,,,,,,,,,,,,,,,,,,,,,,,,,,,,,,,,
0,54,54,56,1,,6174302b527b34205b0cc8f4,62c53a5c303bf8e23fd01cc9,2022-07-06_09h51.03.595,Colour_Asymmetry_Pilot,2022.1.3,Win32,59.87306909,62c50e9c1127f2cd403a315f,,,,,,,,,,,,,,,,,,,,,,,,,,,,,,,,,,,,,,,,,,,,,,,,,,,,,,,,,,,,,,,,,,,,,,,,,,,,,,,,,,,,,,,,,,,,,,,,,,,,,,,,,,,,,,,,,,,,,,,,,,,,,,,,,,,,,,,,,,,,,,,,,,,,,,,,,,,,,,,,,,,
0,55,55,40,1,,6174302b527b34205b0cc8f4,62c53a5c303bf8e23fd01cc9,2022-07-06_09h51.03.595,Colour_Asymmetry_Pilot,2022.1.3,Win32,59.87306909,62c50e9c1127f2cd403a315f,,,,,,,,,,,,,,,,,,,,,,,,,,,,,,,,,,,,,,,,,,,,,,,,,,,,,,,,,,,,,,,,,,,,,,,,,,,,,,,,,,,,,,,,,,,,,,,,,,,,,,,,,,,,,,,,,,,,,,,,,,,,,,,,,,,,,,,,,,,,,,,,,,,,,,,,,,,,,,,,,,,
0,56,56,46,1,,6174302b527b34205b0cc8f4,62c53a5c303bf8e23fd01cc9,2022-07-06_09h51.03.595,Colour_Asymmetry_Pilot,2022.1.3,Win32,59.87306909,62c50e9c1127f2cd403a315f,,,,,,,,,,,,,,,,,,,,,,,,,,,,,,,,,,,,,,,,,,,,,,,,,,,,,,,,,,,,,,,,,,,,,,,,,,,,,,,,,,,,,,,,,,,,,,,,,,,,,,,,,,,,,,,,,,,,,,,,,,,,,,,,,,,,,,,,,,,,,,,,,,,,,,,,,,,,,,,,,,,
0,57,57,28,1,,6174302b527b34205b0cc8f4,62c53a5c303bf8e23fd01cc9,2022-07-06_09h51.03.595,Colour_Asymmetry_Pilot,2022.1.3,Win32,59.87306909,62c50e9c1127f2cd403a315f,,,,,,,,,,,,,,,,,,,,,,,,,,,,,,,,,,,,,,,,,,,,,,,,,,,,,,,,,,,,,,,,,,,,,,,,,,,,,,,,,,,,,,,,,,,,,,,,,,,,,,,,,,,,,,,,,,,,,,,,,,,,,,,,,,,,,,,,,,,,,,,,,,,,,,,,,,,,,,,,,,,
0,58,58,87,1,,6174302b527b34205b0cc8f4,62c53a5c303bf8e23fd01cc9,2022-07-06_09h51.03.595,Colour_Asymmetry_Pilot,2022.1.3,Win32,59.87306909,62c50e9c1127f2cd403a315f,,,,,,,,,,,,,,,,,,,,,,,,,,,,,,,,,,,,,,,,,,,,,,,,,,,,,,,,,,,,,,,,,,,,,,,,,,,,,,,,,,,,,,,,,,,,,,,,,,,,,,,,,,,,,,,,,,,,,,,,,,,,,,,,,,,,,,,,,,,,,,,,,,,,,,,,,,,,,,,,,,,
0,59,59,73,1,,6174302b527b34205b0cc8f4,62c53a5c303bf8e23fd01cc9,2022-07-06_09h51.03.595,Colour_Asymmetry_Pilot,2022.1.3,Win32,59.87306909,62c50e9c1127f2cd403a315f,,,,,,,,,,,,,,,,,,,,,,,,,,,,,,,,,,,,,,,,,,,,,,,,,,,,,,,,,,,,,,,,,,,,,,,,,,,,,,,,,,,,,,,,,,,,,,,,,,,,,,,,,,,,,,,,,,,,,,,,,,,,,,,,,,,,,,,,,,,,,,,,,,,,,,,,,,,,,,,,,,,
0,60,60,3,1,,6174302b527b34205b0cc8f4,62c53a5c303bf8e23fd01cc9,2022-07-06_09h51.03.595,Colour_Asymmetry_Pilot,2022.1.3,Win32,59.87306909,62c50e9c1127f2cd403a315f,,,,,,,,,,,,,,,,,,,,,,,,,,,,,,,,,,,,,,,,,,,,,,,,,,,,,,,,,,,,,,,,,,,,,,,,,,,,,,,,,,,,,,,,,,,,,,,,,,,,,,,,,,,,,,,,,,,,,,,,,,,,,,,,,,,,,,,,,,,,,,,,,,,,,,,,,,,,,,,,,,,
0,61,61,55,1,,6174302b527b34205b0cc8f4,62c53a5c303bf8e23fd01cc9,2022-07-06_09h51.03.595,Colour_Asymmetry_Pilot,2022.1.3,Win32,59.87306909,62c50e9c1127f2cd403a315f,,,,,,,,,,,,,,,,,,,,,,,,,,,,,,,,,,,,,,,,,,,,,,,,,,,,,,,,,,,,,,,,,,,,,,,,,,,,,,,,,,,,,,,,,,,,,,,,,,,,,,,,,,,,,,,,,,,,,,,,,,,,,,,,,,,,,,,,,,,,,,,,,,,,,,,,,,,,,,,,,,,
0,62,62,30,1,,6174302b527b34205b0cc8f4,62c53a5c303bf8e23fd01cc9,2022-07-06_09h51.03.595,Colour_Asymmetry_Pilot,2022.1.3,Win32,59.87306909,62c50e9c1127f2cd403a315f,,,,,,,,,,,,,,,,,,,,,,,,,,,,,,,,,,,,,,,,,,,,,,,,,,,,,,,,,,,,,,,,,,,,,,,,,,,,,,,,,,,,,,,,,,,,,,,,,,,,,,,,,,,,,,,,,,,,,,,,,,,,,,,,,,,,,,,,,,,,,,,,,,,,,,,,,,,,,,,,,,,
0,63,63,89,1,,6174302b527b34205b0cc8f4,62c53a5c303bf8e23fd01cc9,2022-07-06_09h51.03.595,Colour_Asymmetry_Pilot,2022.1.3,Win32,59.87306909,62c50e9c1127f2cd403a315f,,,,,,,,,,,,,,,,,,,,,,,,,,,,,,,,,,,,,,,,,,,,,,,,,,,,,,,,,,,,,,,,,,,,,,,,,,,,,,,,,,,,,,,,,,,,,,,,,,,,,,,,,,,,,,,,,,,,,,,,,,,,,,,,,,,,,,,,,,,,,,,,,,,,,,,,,,,,,,,,,,,
0,64,64,85,1,,6174302b527b34205b0cc8f4,62c53a5c303bf8e23fd01cc9,2022-07-06_09h51.03.595,Colour_Asymmetry_Pilot,2022.1.3,Win32,59.87306909,62c50e9c1127f2cd403a315f,,,,,,,,,,,,,,,,,,,,,,,,,,,,,,,,,,,,,,,,,,,,,,,,,,,,,,,,,,,,,,,,,,,,,,,,,,,,,,,,,,,,,,,,,,,,,,,,,,,,,,,,,,,,,,,,,,,,,,,,,,,,,,,,,,,,,,,,,,,,,,,,,,,,,,,,,,,,,,,,,,,
0,65,65,72,1,,6174302b527b34205b0cc8f4,62c53a5c303bf8e23fd01cc9,2022-07-06_09h51.03.595,Colour_Asymmetry_Pilot,2022.1.3,Win32,59.87306909,62c50e9c1127f2cd403a315f,,,,,,,,,,,,,,,,,,,,,,,,,,,,,,,,,,,,,,,,,,,,,,,,,,,,,,,,,,,,,,,,,,,,,,,,,,,,,,,,,,,,,,,,,,,,,,,,,,,,,,,,,,,,,,,,,,,,,,,,,,,,,,,,,,,,,,,,,,,,,,,,,,,,,,,,,,,,,,,,,,,
0,66,66,47,1,,6174302b527b34205b0cc8f4,62c53a5c303bf8e23fd01cc9,2022-07-06_09h51.03.595,Colour_Asymmetry_Pilot,2022.1.3,Win32,59.87306909,62c50e9c1127f2cd403a315f,,,,,,,,,,,,,,,,,,,,,,,,,,,,,,,,,,,,,,,,,,,,,,,,,,,,,,,,,,,,,,,,,,,,,,,,,,,,,,,,,,,,,,,,,,,,,,,,,,,,,,,,,,,,,,,,,,,,,,,,,,,,,,,,,,,,,,,,,,,,,,,,,,,,,,,,,,,,,,,,,,,
0,67,67,53,1,,6174302b527b34205b0cc8f4,62c53a5c303bf8e23fd01cc9,2022-07-06_09h51.03.595,Colour_Asymmetry_Pilot,2022.1.3,Win32,59.87306909,62c50e9c1127f2cd403a315f,,,,,,,,,,,,,,,,,,,,,,,,,,,,,,,,,,,,,,,,,,,,,,,,,,,,,,,,,,,,,,,,,,,,,,,,,,,,,,,,,,,,,,,,,,,,,,,,,,,,,,,,,,,,,,,,,,,,,,,,,,,,,,,,,,,,,,,,,,,,,,,,,,,,,,,,,,,,,,,,,,,
0,68,68,54,1,,6174302b527b34205b0cc8f4,62c53a5c303bf8e23fd01cc9,2022-07-06_09h51.03.595,Colour_Asymmetry_Pilot,2022.1.3,Win32,59.87306909,62c50e9c1127f2cd403a315f,,,,,,,,,,,,,,,,,,,,,,,,,,,,,,,,,,,,,,,,,,,,,,,,,,,,,,,,,,,,,,,,,,,,,,,,,,,,,,,,,,,,,,,,,,,,,,,,,,,,,,,,,,,,,,,,,,,,,,,,,,,,,,,,,,,,,,,,,,,,,,,,,,,,,,,,,,,,,,,,,,,
0,69,69,52,1,,6174302b527b34205b0cc8f4,62c53a5c303bf8e23fd01cc9,2022-07-06_09h51.03.595,Colour_Asymmetry_Pilot,2022.1.3,Win32,59.87306909,62c50e9c1127f2cd403a315f,,,,,,,,,,,,,,,,,,,,,,,,,,,,,,,,,,,,,,,,,,,,,,,,,,,,,,,,,,,,,,,,,,,,,,,,,,,,,,,,,,,,,,,,,,,,,,,,,,,,,,,,,,,,,,,,,,,,,,,,,,,,,,,,,,,,,,,,,,,,,,,,,,,,,,,,,,,,,,,,,,,
0,70,70,34,1,,6174302b527b34205b0cc8f4,62c53a5c303bf8e23fd01cc9,2022-07-06_09h51.03.595,Colour_Asymmetry_Pilot,2022.1.3,Win32,59.87306909,62c50e9c1127f2cd403a315f,,,,,,,,,,,,,,,,,,,,,,,,,,,,,,,,,,,,,,,,,,,,,,,,,,,,,,,,,,,,,,,,,,,,,,,,,,,,,,,,,,,,,,,,,,,,,,,,,,,,,,,,,,,,,,,,,,,,,,,,,,,,,,,,,,,,,,,,,,,,,,,,,,,,,,,,,,,,,,,,,,,
0,71,71,33,1,,6174302b527b34205b0cc8f4,62c53a5c303bf8e23fd01cc9,2022-07-06_09h51.03.595,Colour_Asymmetry_Pilot,2022.1.3,Win32,59.87306909,62c50e9c1127f2cd403a315f,,,,,,,,,,,,,,,,,,,,,,,,,,,,,,,,,,,,,,,,,,,,,,,,,,,,,,,,,,,,,,,,,,,,,,,,,,,,,,,,,,,,,,,,,,,,,,,,,,,,,,,,,,,,,,,,,,,,,,,,,,,,,,,,,,,,,,,,,,,,,,,,,,,,,,,,,,,,,,,,,,,
0,72,72,91,1,,6174302b527b34205b0cc8f4,62c53a5c303bf8e23fd01cc9,2022-07-06_09h51.03.595,Colour_Asymmetry_Pilot,2022.1.3,Win32,59.87306909,62c50e9c1127f2cd403a315f,,,,,,,,,,,,,,,,,,,,,,,,,,,,,,,,,,,,,,,,,,,,,,,,,,,,,,,,,,,,,,,,,,,,,,,,,,,,,,,,,,,,,,,,,,,,,,,,,,,,,,,,,,,,,,,,,,,,,,,,,,,,,,,,,,,,,,,,,,,,,,,,,,,,,,,,,,,,,,,,,,,
0,73,73,27,1,,6174302b527b34205b0cc8f4,62c53a5c303bf8e23fd01cc9,2022-07-06_09h51.03.595,Colour_Asymmetry_Pilot,2022.1.3,Win32,59.87306909,62c50e9c1127f2cd403a315f,,,,,,,,,,,,,,,,,,,,,,,,,,,,,,,,,,,,,,,,,,,,,,,,,,,,,,,,,,,,,,,,,,,,,,,,,,,,,,,,,,,,,,,,,,,,,,,,,,,,,,,,,,,,,,,,,,,,,,,,,,,,,,,,,,,,,,,,,,,,,,,,,,,,,,,,,,,,,,,,,,,
0,74,74,58,1,,6174302b527b34205b0cc8f4,62c53a5c303bf8e23fd01cc9,2022-07-06_09h51.03.595,Colour_Asymmetry_Pilot,2022.1.3,Win32,59.87306909,62c50e9c1127f2cd403a315f,,,,,,,,,,,,,,,,,,,,,,,,,,,,,,,,,,,,,,,,,,,,,,,,,,,,,,,,,,,,,,,,,,,,,,,,,,,,,,,,,,,,,,,,,,,,,,,,,,,,,,,,,,,,,,,,,,,,,,,,,,,,,,,,,,,,,,,,,,,,,,,,,,,,,,,,,,,,,,,,,,,
0,75,75,83,1,,6174302b527b34205b0cc8f4,62c53a5c303bf8e23fd01cc9,2022-07-06_09h51.03.595,Colour_Asymmetry_Pilot,2022.1.3,Win32,59.87306909,62c50e9c1127f2cd403a315f,,,,,,,,,,,,,,,,,,,,,,,,,,,,,,,,,,,,,,,,,,,,,,,,,,,,,,,,,,,,,,,,,,,,,,,,,,,,,,,,,,,,,,,,,,,,,,,,,,,,,,,,,,,,,,,,,,,,,,,,,,,,,,,,,,,,,,,,,,,,,,,,,,,,,,,,,,,,,,,,,,,
0,76,76,7,1,,6174302b527b34205b0cc8f4,62c53a5c303bf8e23fd01cc9,2022-07-06_09h51.03.595,Colour_Asymmetry_Pilot,2022.1.3,Win32,59.87306909,62c50e9c1127f2cd403a315f,,,,,,,,,,,,,,,,,,,,,,,,,,,,,,,,,,,,,,,,,,,,,,,,,,,,,,,,,,,,,,,,,,,,,,,,,,,,,,,,,,,,,,,,,,,,,,,,,,,,,,,,,,,,,,,,,,,,,,,,,,,,,,,,,,,,,,,,,,,,,,,,,,,,,,,,,,,,,,,,,,,
0,77,77,17,1,,6174302b527b34205b0cc8f4,62c53a5c303bf8e23fd01cc9,2022-07-06_09h51.03.595,Colour_Asymmetry_Pilot,2022.1.3,Win32,59.87306909,62c50e9c1127f2cd403a315f,,,,,,,,,,,,,,,,,,,,,,,,,,,,,,,,,,,,,,,,,,,,,,,,,,,,,,,,,,,,,,,,,,,,,,,,,,,,,,,,,,,,,,,,,,,,,,,,,,,,,,,,,,,,,,,,,,,,,,,,,,,,,,,,,,,,,,,,,,,,,,,,,,,,,,,,,,,,,,,,,,,
0,78,78,62,1,,6174302b527b34205b0cc8f4,62c53a5c303bf8e23fd01cc9,2022-07-06_09h51.03.595,Colour_Asymmetry_Pilot,2022.1.3,Win32,59.87306909,62c50e9c1127f2cd403a315f,,,,,,,,,,,,,,,,,,,,,,,,,,,,,,,,,,,,,,,,,,,,,,,,,,,,,,,,,,,,,,,,,,,,,,,,,,,,,,,,,,,,,,,,,,,,,,,,,,,,,,,,,,,,,,,,,,,,,,,,,,,,,,,,,,,,,,,,,,,,,,,,,,,,,,,,,,,,,,,,,,,
0,79,79,18,1,,6174302b527b34205b0cc8f4,62c53a5c303bf8e23fd01cc9,2022-07-06_09h51.03.595,Colour_Asymmetry_Pilot,2022.1.3,Win32,59.87306909,62c50e9c1127f2cd403a315f,,,,,,,,,,,,,,,,,,,,,,,,,,,,,,,,,,,,,,,,,,,,,,,,,,,,,,,,,,,,,,,,,,,,,,,,,,,,,,,,,,,,,,,,,,,,,,,,,,,,,,,,,,,,,,,,,,,,,,,,,,,,,,,,,,,,,,,,,,,,,,,,,,,,,,,,,,,,,,,,,,,
0,80,80,2,1,,6174302b527b34205b0cc8f4,62c53a5c303bf8e23fd01cc9,2022-07-06_09h51.03.595,Colour_Asymmetry_Pilot,2022.1.3,Win32,59.87306909,62c50e9c1127f2cd403a315f,,,,,,,,,,,,,,,,,,,,,,,,,,,,,,,,,,,,,,,,,,,,,,,,,,,,,,,,,,,,,,,,,,,,,,,,,,,,,,,,,,,,,,,,,,,,,,,,,,,,,,,,,,,,,,,,,,,,,,,,,,,,,,,,,,,,,,,,,,,,,,,,,,,,,,,,,,,,,,,,,,,
0,81,81,32,1,,6174302b527b34205b0cc8f4,62c53a5c303bf8e23fd01cc9,2022-07-06_09h51.03.595,Colour_Asymmetry_Pilot,2022.1.3,Win32,59.87306909,62c50e9c1127f2cd403a315f,,,,,,,,,,,,,,,,,,,,,,,,,,,,,,,,,,,,,,,,,,,,,,,,,,,,,,,,,,,,,,,,,,,,,,,,,,,,,,,,,,,,,,,,,,,,,,,,,,,,,,,,,,,,,,,,,,,,,,,,,,,,,,,,,,,,,,,,,,,,,,,,,,,,,,,,,,,,,,,,,,,
0,82,82,67,1,,6174302b527b34205b0cc8f4,62c53a5c303bf8e23fd01cc9,2022-07-06_09h51.03.595,Colour_Asymmetry_Pilot,2022.1.3,Win32,59.87306909,62c50e9c1127f2cd403a315f,,,,,,,,,,,,,,,,,,,,,,,,,,,,,,,,,,,,,,,,,,,,,,,,,,,,,,,,,,,,,,,,,,,,,,,,,,,,,,,,,,,,,,,,,,,,,,,,,,,,,,,,,,,,,,,,,,,,,,,,,,,,,,,,,,,,,,,,,,,,,,,,,,,,,,,,,,,,,,,,,,,
0,83,83,81,1,,6174302b527b34205b0cc8f4,62c53a5c303bf8e23fd01cc9,2022-07-06_09h51.03.595,Colour_Asymmetry_Pilot,2022.1.3,Win32,59.87306909,62c50e9c1127f2cd403a315f,,,,,,,,,,,,,,,,,,,,,,,,,,,,,,,,,,,,,,,,,,,,,,,,,,,,,,,,,,,,,,,,,,,,,,,,,,,,,,,,,,,,,,,,,,,,,,,,,,,,,,,,,,,,,,,,,,,,,,,,,,,,,,,,,,,,,,,,,,,,,,,,,,,,,,,,,,,,,,,,,,,
0,84,84,37,1,,6174302b527b34205b0cc8f4,62c53a5c303bf8e23fd01cc9,2022-07-06_09h51.03.595,Colour_Asymmetry_Pilot,2022.1.3,Win32,59.87306909,62c50e9c1127f2cd403a315f,,,,,,,,,,,,,,,,,,,,,,,,,,,,,,,,,,,,,,,,,,,,,,,,,,,,,,,,,,,,,,,,,,,,,,,,,,,,,,,,,,,,,,,,,,,,,,,,,,,,,,,,,,,,,,,,,,,,,,,,,,,,,,,,,,,,,,,,,,,,,,,,,,,,,,,,,,,,,,,,,,,
0,85,85,66,1,,6174302b527b34205b0cc8f4,62c53a5c303bf8e23fd01cc9,2022-07-06_09h51.03.595,Colour_Asymmetry_Pilot,2022.1.3,Win32,59.87306909,62c50e9c1127f2cd403a315f,,,,,,,,,,,,,,,,,,,,,,,,,,,,,,,,,,,,,,,,,,,,,,,,,,,,,,,,,,,,,,,,,,,,,,,,,,,,,,,,,,,,,,,,,,,,,,,,,,,,,,,,,,,,,,,,,,,,,,,,,,,,,,,,,,,,,,,,,,,,,,,,,,,,,,,,,,,,,,,,,,,
0,86,86,70,1,,6174302b527b34205b0cc8f4,62c53a5c303bf8e23fd01cc9,2022-07-06_09h51.03.595,Colour_Asymmetry_Pilot,2022.1.3,Win32,59.87306909,62c50e9c1127f2cd403a315f,,,,,,,,,,,,,,,,,,,,,,,,,,,,,,,,,,,,,,,,,,,,,,,,,,,,,,,,,,,,,,,,,,,,,,,,,,,,,,,,,,,,,,,,,,,,,,,,,,,,,,,,,,,,,,,,,,,,,,,,,,,,,,,,,,,,,,,,,,,,,,,,,,,,,,,,,,,,,,,,,,,
0,87,87,23,1,,6174302b527b34205b0cc8f4,62c53a5c303bf8e23fd01cc9,2022-07-06_09h51.03.595,Colour_Asymmetry_Pilot,2022.1.3,Win32,59.87306909,62c50e9c1127f2cd403a315f,,,,,,,,,,,,,,,,,,,,,,,,,,,,,,,,,,,,,,,,,,,,,,,,,,,,,,,,,,,,,,,,,,,,,,,,,,,,,,,,,,,,,,,,,,,,,,,,,,,,,,,,,,,,,,,,,,,,,,,,,,,,,,,,,,,,,,,,,,,,,,,,,,,,,,,,,,,,,,,,,,,
0,88,88,4,1,,6174302b527b34205b0cc8f4,62c53a5c303bf8e23fd01cc9,2022-07-06_09h51.03.595,Colour_Asymmetry_Pilot,2022.1.3,Win32,59.87306909,62c50e9c1127f2cd403a315f,,,,,,,,,,,,,,,,,,,,,,,,,,,,,,,,,,,,,,,,,,,,,,,,,,,,,,,,,,,,,,,,,,,,,,,,,,,,,,,,,,,,,,,,,,,,,,,,,,,,,,,,,,,,,,,,,,,,,,,,,,,,,,,,,,,,,,,,,,,,,,,,,,,,,,,,,,,,,,,,,,,
0,89,89,90,1,,6174302b527b34205b0cc8f4,62c53a5c303bf8e23fd01cc9,2022-07-06_09h51.03.595,Colour_Asymmetry_Pilot,2022.1.3,Win32,59.87306909,62c50e9c1127f2cd403a315f,,,,,,,,,,,,,,,,,,,,,,,,,,,,,,,,,,,,,,,,,,,,,,,,,,,,,,,,,,,,,,,,,,,,,,,,,,,,,,,,,,,,,,,,,,,,,,,,,,,,,,,,,,,,,,,,,,,,,,,,,,,,,,,,,,,,,,,,,,,,,,,,,,,,,,,,,,,,,,,,,,,
0,90,90,15,1,,6174302b527b34205b0cc8f4,62c53a5c303bf8e23fd01cc9,2022-07-06_09h51.03.595,Colour_Asymmetry_Pilot,2022.1.3,Win32,59.87306909,62c50e9c1127f2cd403a315f,,,,,,,,,,,,,,,,,,,,,,,,,,,,,,,,,,,,,,,,,,,,,,,,,,,,,,,,,,,,,,,,,,,,,,,,,,,,,,,,,,,,,,,,,,,,,,,,,,,,,,,,,,,,,,,,,,,,,,,,,,,,,,,,,,,,,,,,,,,,,,,,,,,,,,,,,,,,,,,,,,,
0,91,91,22,1,,6174302b527b34205b0cc8f4,62c53a5c303bf8e23fd01cc9,2022-07-06_09h51.03.595,Colour_Asymmetry_Pilot,2022.1.3,Win32,59.87306909,62c50e9c1127f2cd403a315f,,,,,,,,,,,,,,,,,,,,,,,,,,,,,,,,,,,,,,,,,,,,,,,,,,,,,,,,,,,,,,,,,,,,,,,,,,,,,,,,,,,,,,,,,,,,,,,,,,,,,,,,,,,,,,,,,,,,,,,,,,,,,,,,,,,,,,,,,,,,,,,,,,,,,,,,,,,,,,,,,,,
0,92,92,77,1,,6174302b527b34205b0cc8f4,62c53a5c303bf8e23fd01cc9,2022-07-06_09h51.03.595,Colour_Asymmetry_Pilot,2022.1.3,Win32,59.87306909,62c50e9c1127f2cd403a315f,,,,,,,,,,,,,,,,,,,,,,,,,,,,,,,,,,,,,,,,,,,,,,,,,,,,,,,,,,,,,,,,,,,,,,,,,,,,,,,,,,,,,,,,,,,,,,,,,,,,,,,,,,,,,,,,,,,,,,,,,,,,,,,,,,,,,,,,,,,,,,,,,,,,,,,,,,,,,,,,,,,
,,,,,,6174302b527b34205b0cc8f4,62c53a5c303bf8e23fd01cc9,2022-07-06_09h51.03.595,Colour_Asymmetry_Pilot,2022.1.3,Win32,59.87306909,62c50e9c1127f2cd403a315f,0,0,0,114,1,twoone,,,,,,,,,,,,,,,,,,,,,,,,,,,,,,,,,,,,,,,,,,,,,,,,,,,,,,,,,,,,,,,,,,,,,,,,,,,,,,,,,,,,,,,,,,,,,,,,,,,,,,,,,,,,,,,,,,,,,,,,,,,,,,,,,,,,,,,,,,,,,,,,,,,,,,,,,,,,,
,,,,,,6174302b527b34205b0cc8f4,62c53a5c303bf8e23fd01cc9,2022-07-06_09h51.03.595,Colour_Asymmetry_Pilot,2022.1.3,Win32,59.87306909,62c50e9c1127f2cd403a315f,0,1,1,95,1,fourthree,,,,,,,,,,,,,,,,,,,,,,,,,,,,,,,,,,,,,,,,,,,,,,,,,,,,,,,,,,,,,,,,,,,,,,,,,,,,,,,,,,,,,,,,,,,,,,,,,,,,,,,,,,,,,,,,,,,,,,,,,,,,,,,,,,,,,,,,,,,,,,,,,,,,,,,,,,,,,
,,,,,,6174302b527b34205b0cc8f4,62c53a5c303bf8e23fd01cc9,2022-07-06_09h51.03.595,Colour_Asymmetry_Pilot,2022.1.3,Win32,59.87306909,62c50e9c1127f2cd403a315f,0,2,2,15,1,fourthree,,,,,,,,,,,,,,,,,,,,,,,,,,,,,,,,,,,,,,,,,,,,,,,,,,,,,,,,,,,,,,,,,,,,,,,,,,,,,,,,,,,,,,,,,,,,,,,,,,,,,,,,,,,,,,,,,,,,,,,,,,,,,,,,,,,,,,,,,,,,,,,,,,,,,,,,,,,,,
,,,,,,6174302b527b34205b0cc8f4,62c53a5c303bf8e23fd01cc9,2022-07-06_09h51.03.595,Colour_Asymmetry_Pilot,2022.1.3,Win32,59.87306909,62c50e9c1127f2cd403a315f,0,3,3,132,1,threeone,,,,,,,,,,,,,,,,,,,,,,,,,,,,,,,,,,,,,,,,,,,,,,,,,,,,,,,,,,,,,,,,,,,,,,,,,,,,,,,,,,,,,,,,,,,,,,,,,,,,,,,,,,,,,,,,,,,,,,,,,,,,,,,,,,,,,,,,,,,,,,,,,,,,,,,,,,,,,
,,,,,,6174302b527b34205b0cc8f4,62c53a5c303bf8e23fd01cc9,2022-07-06_09h51.03.595,Colour_Asymmetry_Pilot,2022.1.3,Win32,59.87306909,62c50e9c1127f2cd403a315f,0,4,4,142,1,fourtwo,,,,,,,,,,,,,,,,,,,,,,,,,,,,,,,,,,,,,,,,,,,,,,,,,,,,,,,,,,,,,,,,,,,,,,,,,,,,,,,,,,,,,,,,,,,,,,,,,,,,,,,,,,,,,,,,,,,,,,,,,,,,,,,,,,,,,,,,,,,,,,,,,,,,,,,,,,,,,
,,,,,,6174302b527b34205b0cc8f4,62c53a5c303bf8e23fd01cc9,2022-07-06_09h51.03.595,Colour_Asymmetry_Pilot,2022.1.3,Win32,59.87306909,62c50e9c1127f2cd403a315f,0,5,5,34,1,twoone,,,,,,,,,,,,,,,,,,,,,,,,,,,,,,,,,,,,,,,,,,,,,,,,,,,,,,,,,,,,,,,,,,,,,,,,,,,,,,,,,,,,,,,,,,,,,,,,,,,,,,,,,,,,,,,,,,,,,,,,,,,,,,,,,,,,,,,,,,,,,,,,,,,,,,,,,,,,,
,,,,,,6174302b527b34205b0cc8f4,62c53a5c303bf8e23fd01cc9,2022-07-06_09h51.03.595,Colour_Asymmetry_Pilot,2022.1.3,Win32,59.87306909,62c50e9c1127f2cd403a315f,0,6,6,56,1,onetwo,,,,,,,,,,,,,,,,,,,,,,,,,,,,,,,,,,,,,,,,,,,,,,,,,,,,,,,,,,,,,,,,,,,,,,,,,,,,,,,,,,,,,,,,,,,,,,,,,,,,,,,,,,,,,,,,,,,,,,,,,,,,,,,,,,,,,,,,,,,,,,,,,,,,,,,,,,,,,
,,,,,,6174302b527b34205b0cc8f4,62c53a5c303bf8e23fd01cc9,2022-07-06_09h51.03.595,Colour_Asymmetry_Pilot,2022.1.3,Win32,59.87306909,62c50e9c1127f2cd403a315f,0,7,7,115,1,twofour,,,,,,,,,,,,,,,,,,,,,,,,,,,,,,,,,,,,,,,,,,,,,,,,,,,,,,,,,,,,,,,,,,,,,,,,,,,,,,,,,,,,,,,,,,,,,,,,,,,,,,,,,,,,,,,,,,,,,,,,,,,,,,,,,,,,,,,,,,,,,,,,,,,,,,,,,,,,,
,,,,,,6174302b527b34205b0cc8f4,62c53a5c303bf8e23fd01cc9,2022-07-06_09h51.03.595,Colour_Asymmetry_Pilot,2022.1.3,Win32,59.87306909,62c50e9c1127f2cd403a315f,0,8,8,25,1,onethree,,,,,,,,,,,,,,,,,,,,,,,,,,,,,,,,,,,,,,,,,,,,,,,,,,,,,,,,,,,,,,,,,,,,,,,,,,,,,,,,,,,,,,,,,,,,,,,,,,,,,,,,,,,,,,,,,,,,,,,,,,,,,,,,,,,,,,,,,,,,,,,,,,,,,,,,,,,,,
,,,,,,6174302b527b34205b0cc8f4,62c53a5c303bf8e23fd01cc9,2022-07-06_09h51.03.595,Colour_Asymmetry_Pilot,2022.1.3,Win32,59.87306909,62c50e9c1127f2cd403a315f,0,9,9,124,1,threeone,,,,,,,,,,,,,,,,,,,,,,,,,,,,,,,,,,,,,,,,,,,,,,,,,,,,,,,,,,,,,,,,,,,,,,,,,,,,,,,,,,,,,,,,,,,,,,,,,,,,,,,,,,,,,,,,,,,,,,,,,,,,,,,,,,,,,,,,,,,,,,,,,,,,,,,,,,,,,
,,,,,,6174302b527b34205b0cc8f4,62c53a5c303bf8e23fd01cc9,2022-07-06_09h51.03.595,Colour_Asymmetry_Pilot,2022.1.3,Win32,59.87306909,62c50e9c1127f2cd403a315f,0,10,10,6,1,fourtwo,,,,,,,,,,,,,,,,,,,,,,,,,,,,,,,,,,,,,,,,,,,,,,,,,,,,,,,,,,,,,,,,,,,,,,,,,,,,,,,,,,,,,,,,,,,,,,,,,,,,,,,,,,,,,,,,,,,,,,,,,,,,,,,,,,,,,,,,,,,,,,,,,,,,,,,,,,,,,
,,,,,,6174302b527b34205b0cc8f4,62c53a5c303bf8e23fd01cc9,2022-07-06_09h51.03.595,Colour_Asymmetry_Pilot,2022.1.3,Win32,59.87306909,62c50e9c1127f2cd403a315f,0,11,11,123,1,twofour,,,,,,,,,,,,,,,,,,,,,,,,,,,,,,,,,,,,,,,,,,,,,,,,,,,,,,,,,,,,,,,,,,,,,,,,,,,,,,,,,,,,,,,,,,,,,,,,,,,,,,,,,,,,,,,,,,,,,,,,,,,,,,,,,,,,,,,,,,,,,,,,,,,,,,,,,,,,,
,,,,,,6174302b527b34205b0cc8f4,62c53a5c303bf8e23fd01cc9,2022-07-06_09h51.03.595,Colour_Asymmetry_Pilot,2022.1.3,Win32,59.87306909,62c50e9c1127f2cd403a315f,0,12,12,87,1,fourthree,,,,,,,,,,,,,,,,,,,,,,,,,,,,,,,,,,,,,,,,,,,,,,,,,,,,,,,,,,,,,,,,,,,,,,,,,,,,,,,,,,,,,,,,,,,,,,,,,,,,,,,,,,,,,,,,,,,,,,,,,,,,,,,,,,,,,,,,,,,,,,,,,,,,,,,,,,,,,
,,,,,,6174302b527b34205b0cc8f4,62c53a5c303bf8e23fd01cc9,2022-07-06_09h51.03.595,Colour_Asymmetry_Pilot,2022.1.3,Win32,59.87306909,62c50e9c1127f2cd403a315f,0,13,13,93,1,threefour,,,,,,,,,,,,,,,,,,,,,,,,,,,,,,,,,,,,,,,,,,,,,,,,,,,,,,,,,,,,,,,,,,,,,,,,,,,,,,,,,,,,,,,,,,,,,,,,,,,,,,,,,,,,,,,,,,,,,,,,,,,,,,,,,,,,,,,,,,,,,,,,,,,,,,,,,,,,,
,,,,,,6174302b527b34205b0cc8f4,62c53a5c303bf8e23fd01cc9,2022-07-06_09h51.03.595,Colour_Asymmetry_Pilot,2022.1.3,Win32,59.87306909,62c50e9c1127f2cd403a315f,0,14,14,150,1,fourtwo,,,,,,,,,,,,,,,,,,,,,,,,,,,,,,,,,,,,,,,,,,,,,,,,,,,,,,,,,,,,,,,,,,,,,,,,,,,,,,,,,,,,,,,,,,,,,,,,,,,,,,,,,,,,,,,,,,,,,,,,,,,,,,,,,,,,,,,,,,,,,,,,,,,,,,,,,,,,,
,,,,,,6174302b527b34205b0cc8f4,62c53a5c303bf8e23fd01cc9,2022-07-06_09h51.03.595,Colour_Asymmetry_Pilot,2022.1.3,Win32,59.87306909,62c50e9c1127f2cd403a315f,0,15,15,139,1,twofour,,,,,,,,,,,,,,,,,,,,,,,,,,,,,,,,,,,,,,,,,,,,,,,,,,,,,,,,,,,,,,,,,,,,,,,,,,,,,,,,,,,,,,,,,,,,,,,,,,,,,,,,,,,,,,,,,,,,,,,,,,,,,,,,,,,,,,,,,,,,,,,,,,,,,,,,,,,,,
,,,,,,6174302b527b34205b0cc8f4,62c53a5c303bf8e23fd01cc9,2022-07-06_09h51.03.595,Colour_Asymmetry_Pilot,2022.1.3,Win32,59.87306909,62c50e9c1127f2cd403a315f,0,16,16,110,1,fourtwo,,,,,,,,,,,,,,,,,,,,,,,,,,,,,,,,,,,,,,,,,,,,,,,,,,,,,,,,,,,,,,,,,,,,,,,,,,,,,,,,,,,,,,,,,,,,,,,,,,,,,,,,,,,,,,,,,,,,,,,,,,,,,,,,,,,,,,,,,,,,,,,,,,,,,,,,,,,,,
,,,,,,6174302b527b34205b0cc8f4,62c53a5c303bf8e23fd01cc9,2022-07-06_09h51.03.595,Colour_Asymmetry_Pilot,2022.1.3,Win32,59.87306909,62c50e9c1127f2cd403a315f,0,17,17,59,1,twofour,,,,,,,,,,,,,,,,,,,,,,,,,,,,,,,,,,,,,,,,,,,,,,,,,,,,,,,,,,,,,,,,,,,,,,,,,,,,,,,,,,,,,,,,,,,,,,,,,,,,,,,,,,,,,,,,,,,,,,,,,,,,,,,,,,,,,,,,,,,,,,,,,,,,,,,,,,,,,
,,,,,,6174302b527b34205b0cc8f4,62c53a5c303bf8e23fd01cc9,2022-07-06_09h51.03.595,Colour_Asymmetry_Pilot,2022.1.3,Win32,59.87306909,62c50e9c1127f2cd403a315f,0,18,18,126,1,fourtwo,,,,,,,,,,,,,,,,,,,,,,,,,,,,,,,,,,,,,,,,,,,,,,,,,,,,,,,,,,,,,,,,,,,,,,,,,,,,,,,,,,,,,,,,,,,,,,,,,,,,,,,,,,,,,,,,,,,,,,,,,,,,,,,,,,,,,,,,,,,,,,,,,,,,,,,,,,,,,
,,,,,,6174302b527b34205b0cc8f4,62c53a5c303bf8e23fd01cc9,2022-07-06_09h51.03.595,Colour_Asymmetry_Pilot,2022.1.3,Win32,59.87306909,62c50e9c1127f2cd403a315f,0,19,19,47,1,fourthree,,,,,,,,,,,,,,,,,,,,,,,,,,,,,,,,,,,,,,,,,,,,,,,,,,,,,,,,,,,,,,,,,,,,,,,,,,,,,,,,,,,,,,,,,,,,,,,,,,,,,,,,,,,,,,,,,,,,,,,,,,,,,,,,,,,,,,,,,,,,,,,,,,,,,,,,,,,,,
,,,,,,6174302b527b34205b0cc8f4,62c53a5c303bf8e23fd01cc9,2022-07-06_09h51.03.595,Colour_Asymmetry_Pilot,2022.1.3,Win32,59.87306909,62c50e9c1127f2cd403a315f,0,20,20,29,1,threefour,,,,,,,,,,,,,,,,,,,,,,,,,,,,,,,,,,,,,,,,,,,,,,,,,,,,,,,,,,,,,,,,,,,,,,,,,,,,,,,,,,,,,,,,,,,,,,,,,,,,,,,,,,,,,,,,,,,,,,,,,,,,,,,,,,,,,,,,,,,,,,,,,,,,,,,,,,,,,
,,,,,,6174302b527b34205b0cc8f4,62c53a5c303bf8e23fd01cc9,2022-07-06_09h51.03.595,Colour_Asymmetry_Pilot,2022.1.3,Win32,59.87306909,62c50e9c1127f2cd403a315f,0,21,21,79,1,fourthree,,,,,,,,,,,,,,,,,,,,,,,,,,,,,,,,,,,,,,,,,,,,,,,,,,,,,,,,,,,,,,,,,,,,,,,,,,,,,,,,,,,,,,,,,,,,,,,,,,,,,,,,,,,,,,,,,,,,,,,,,,,,,,,,,,,,,,,,,,,,,,,,,,,,,,,,,,,,,
,,,,,,6174302b527b34205b0cc8f4,62c53a5c303bf8e23fd01cc9,2022-07-06_09h51.03.595,Colour_Asymmetry_Pilot,2022.1.3,Win32,59.87306909,62c50e9c1127f2cd403a315f,0,22,22,94,1,fourtwo,,,,,,,,,,,,,,,,,,,,,,,,,,,,,,,,,,,,,,,,,,,,,,,,,,,,,,,,,,,,,,,,,,,,,,,,,,,,,,,,,,,,,,,,,,,,,,,,,,,,,,,,,,,,,,,,,,,,,,,,,,,,,,,,,,,,,,,,,,,,,,,,,,,,,,,,,,,,,
,,,,,,6174302b527b34205b0cc8f4,62c53a5c303bf8e23fd01cc9,2022-07-06_09h51.03.595,Colour_Asymmetry_Pilot,2022.1.3,Win32,59.87306909,62c50e9c1127f2cd403a315f,0,23,23,16,1,onetwo,,,,,,,,,,,,,,,,,,,,,,,,,,,,,,,,,,,,,,,,,,,,,,,,,,,,,,,,,,,,,,,,,,,,,,,,,,,,,,,,,,,,,,,,,,,,,,,,,,,,,,,,,,,,,,,,,,,,,,,,,,,,,,,,,,,,,,,,,,,,,,,,,,,,,,,,,,,,,
,,,,,,6174302b527b34205b0cc8f4,62c53a5c303bf8e23fd01cc9,2022-07-06_09h51.03.595,Colour_Asymmetry_Pilot,2022.1.3,Win32,59.87306909,62c50e9c1127f2cd403a315f,0,24,24,85,1,threefour,,,,,,,,,,,,,,,,,,,,,,,,,,,,,,,,,,,,,,,,,,,,,,,,,,,,,,,,,,,,,,,,,,,,,,,,,,,,,,,,,,,,,,,,,,,,,,,,,,,,,,,,,,,,,,,,,,,,,,,,,,,,,,,,,,,,,,,,,,,,,,,,,,,,,,,,,,,,,
,,,,,,6174302b527b34205b0cc8f4,62c53a5c303bf8e23fd01cc9,2022-07-06_09h51.03.595,Colour_Asymmetry_Pilot,2022.1.3,Win32,59.87306909,62c50e9c1127f2cd403a315f,0,25,25,53,1,threefour,,,,,,,,,,,,,,,,,,,,,,,,,,,,,,,,,,,,,,,,,,,,,,,,,,,,,,,,,,,,,,,,,,,,,,,,,,,,,,,,,,,,,,,,,,,,,,,,,,,,,,,,,,,,,,,,,,,,,,,,,,,,,,,,,,,,,,,,,,,,,,,,,,,,,,,,,,,,,
,,,,,,6174302b527b34205b0cc8f4,62c53a5c303bf8e23fd01cc9,2022-07-06_09h51.03.595,Colour_Asymmetry_Pilot,2022.1.3,Win32,59.87306909,62c50e9c1127f2cd403a315f,0,26,26,12,1,threeone,,,,,,,,,,,,,,,,,,,,,,,,,,,,,,,,,,,,,,,,,,,,,,,,,,,,,,,,,,,,,,,,,,,,,,,,,,,,,,,,,,,,,,,,,,,,,,,,,,,,,,,,,,,,,,,,,,,,,,,,,,,,,,,,,,,,,,,,,,,,,,,,,,,,,,,,,,,,,
,,,,,,6174302b527b34205b0cc8f4,62c53a5c303bf8e23fd01cc9,2022-07-06_09h51.03.595,Colour_Asymmetry_Pilot,2022.1.3,Win32,59.87306909,62c50e9c1127f2cd403a315f,0,27,27,57,1,onethree,,,,,,,,,,,,,,,,,,,,,,,,,,,,,,,,,,,,,,,,,,,,,,,,,,,,,,,,,,,,,,,,,,,,,,,,,,,,,,,,,,,,,,,,,,,,,,,,,,,,,,,,,,,,,,,,,,,,,,,,,,,,,,,,,,,,,,,,,,,,,,,,,,,,,,,,,,,,,
,,,,,,6174302b527b34205b0cc8f4,62c53a5c303bf8e23fd01cc9,2022-07-06_09h51.03.595,Colour_Asymmetry_Pilot,2022.1.3,Win32,59.87306909,62c50e9c1127f2cd403a315f,0,28,28,109,1,threefour,,,,,,,,,,,,,,,,,,,,,,,,,,,,,,,,,,,,,,,,,,,,,,,,,,,,,,,,,,,,,,,,,,,,,,,,,,,,,,,,,,,,,,,,,,,,,,,,,,,,,,,,,,,,,,,,,,,,,,,,,,,,,,,,,,,,,,,,,,,,,,,,,,,,,,,,,,,,,
,,,,,,6174302b527b34205b0cc8f4,62c53a5c303bf8e23fd01cc9,2022-07-06_09h51.03.595,Colour_Asymmetry_Pilot,2022.1.3,Win32,59.87306909,62c50e9c1127f2cd403a315f,0,29,29,141,1,threefour,,,,,,,,,,,,,,,,,,,,,,,,,,,,,,,,,,,,,,,,,,,,,,,,,,,,,,,,,,,,,,,,,,,,,,,,,,,,,,,,,,,,,,,,,,,,,,,,,,,,,,,,,,,,,,,,,,,,,,,,,,,,,,,,,,,,,,,,,,,,,,,,,,,,,,,,,,,,,
,,,,,,6174302b527b34205b0cc8f4,62c53a5c303bf8e23fd01cc9,2022-07-06_09h51.03.595,Colour_Asymmetry_Pilot,2022.1.3,Win32,59.87306909,62c50e9c1127f2cd403a315f,0,30,30,104,1,onetwo,,,,,,,,,,,,,,,,,,,,,,,,,,,,,,,,,,,,,,,,,,,,,,,,,,,,,,,,,,,,,,,,,,,,,,,,,,,,,,,,,,,,,,,,,,,,,,,,,,,,,,,,,,,,,,,,,,,,,,,,,,,,,,,,,,,,,,,,,,,,,,,,,,,,,,,,,,,,,
,,,,,,6174302b527b34205b0cc8f4,62c53a5c303bf8e23fd01cc9,2022-07-06_09h51.03.595,Colour_Asymmetry_Pilot,2022.1.3,Win32,59.87306909,62c50e9c1127f2cd403a315f,0,31,31,61,1,threefour,,,,,,,,,,,,,,,,,,,,,,,,,,,,,,,,,,,,,,,,,,,,,,,,,,,,,,,,,,,,,,,,,,,,,,,,,,,,,,,,,,,,,,,,,,,,,,,,,,,,,,,,,,,,,,,,,,,,,,,,,,,,,,,,,,,,,,,,,,,,,,,,,,,,,,,,,,,,,
,,,,,,6174302b527b34205b0cc8f4,62c53a5c303bf8e23fd01cc9,2022-07-06_09h51.03.595,Colour_Asymmetry_Pilot,2022.1.3,Win32,59.87306909,62c50e9c1127f2cd403a315f,0,32,32,13,1,threefour,,,,,,,,,,,,,,,,,,,,,,,,,,,,,,,,,,,,,,,,,,,,,,,,,,,,,,,,,,,,,,,,,,,,,,,,,,,,,,,,,,,,,,,,,,,,,,,,,,,,,,,,,,,,,,,,,,,,,,,,,,,,,,,,,,,,,,,,,,,,,,,,,,,,,,,,,,,,,
,,,,,,6174302b527b34205b0cc8f4,62c53a5c303bf8e23fd01cc9,2022-07-06_09h51.03.595,Colour_Asymmetry_Pilot,2022.1.3,Win32,59.87306909,62c50e9c1127f2cd403a315f,0,33,33,144,1,onetwo,,,,,,,,,,,,,,,,,,,,,,,,,,,,,,,,,,,,,,,,,,,,,,,,,,,,,,,,,,,,,,,,,,,,,,,,,,,,,,,,,,,,,,,,,,,,,,,,,,,,,,,,,,,,,,,,,,,,,,,,,,,,,,,,,,,,,,,,,,,,,,,,,,,,,,,,,,,,,
,,,,,,6174302b527b34205b0cc8f4,62c53a5c303bf8e23fd01cc9,2022-07-06_09h51.03.595,Colour_Asymmetry_Pilot,2022.1.3,Win32,59.87306909,62c50e9c1127f2cd403a315f,0,34,34,121,1,onethree,,,,,,,,,,,,,,,,,,,,,,,,,,,,,,,,,,,,,,,,,,,,,,,,,,,,,,,,,,,,,,,,,,,,,,,,,,,,,,,,,,,,,,,,,,,,,,,,,,,,,,,,,,,,,,,,,,,,,,,,,,,,,,,,,,,,,,,,,,,,,,,,,,,,,,,,,,,,,
,,,,,,6174302b527b34205b0cc8f4,62c53a5c303bf8e23fd01cc9,2022-07-06_09h51.03.595,Colour_Asymmetry_Pilot,2022.1.3,Win32,59.87306909,62c50e9c1127f2cd403a315f,0,35,35,152,1,onetwo,,,,,,,,,,,,,,,,,,,,,,,,,,,,,,,,,,,,,,,,,,,,,,,,,,,,,,,,,,,,,,,,,,,,,,,,,,,,,,,,,,,,,,,,,,,,,,,,,,,,,,,,,,,,,,,,,,,,,,,,,,,,,,,,,,,,,,,,,,,,,,,,,,,,,,,,,,,,,
,,,,,,6174302b527b34205b0cc8f4,62c53a5c303bf8e23fd01cc9,2022-07-06_09h51.03.595,Colour_Asymmetry_Pilot,2022.1.3,Win32,59.87306909,62c50e9c1127f2cd403a315f,0,36,36,136,1,onetwo,,,,,,,,,,,,,,,,,,,,,,,,,,,,,,,,,,,,,,,,,,,,,,,,,,,,,,,,,,,,,,,,,,,,,,,,,,,,,,,,,,,,,,,,,,,,,,,,,,,,,,,,,,,,,,,,,,,,,,,,,,,,,,,,,,,,,,,,,,,,,,,,,,,,,,,,,,,,,
,,,,,,6174302b527b34205b0cc8f4,62c53a5c303bf8e23fd01cc9,2022-07-06_09h51.03.595,Colour_Asymmetry_Pilot,2022.1.3,Win32,59.87306909,62c50e9c1127f2cd403a315f,0,37,37,149,1,threefour,,,,,,,,,,,,,,,,,,,,,,,,,,,,,,,,,,,,,,,,,,,,,,,,,,,,,,,,,,,,,,,,,,,,,,,,,,,,,,,,,,,,,,,,,,,,,,,,,,,,,,,,,,,,,,,,,,,,,,,,,,,,,,,,,,,,,,,,,,,,,,,,,,,,,,,,,,,,,
,,,,,,6174302b527b34205b0cc8f4,62c53a5c303bf8e23fd01cc9,2022-07-06_09h51.03.595,Colour_Asymmetry_Pilot,2022.1.3,Win32,59.87306909,62c50e9c1127f2cd403a315f,0,38,38,84,1,threeone,,,,,,,,,,,,,,,,,,,,,,,,,,,,,,,,,,,,,,,,,,,,,,,,,,,,,,,,,,,,,,,,,,,,,,,,,,,,,,,,,,,,,,,,,,,,,,,,,,,,,,,,,,,,,,,,,,,,,,,,,,,,,,,,,,,,,,,,,,,,,,,,,,,,,,,,,,,,,
,,,,,,6174302b527b34205b0cc8f4,62c53a5c303bf8e23fd01cc9,2022-07-06_09h51.03.595,Colour_Asymmetry_Pilot,2022.1.3,Win32,59.87306909,62c50e9c1127f2cd403a315f,0,39,39,68,1,threeone,,,,,,,,,,,,,,,,,,,,,,,,,,,,,,,,,,,,,,,,,,,,,,,,,,,,,,,,,,,,,,,,,,,,,,,,,,,,,,,,,,,,,,,,,,,,,,,,,,,,,,,,,,,,,,,,,,,,,,,,,,,,,,,,,,,,,,,,,,,,,,,,,,,,,,,,,,,,,
,,,,,,6174302b527b34205b0cc8f4,62c53a5c303bf8e23fd01cc9,2022-07-06_09h51.03.595,Colour_Asymmetry_Pilot,2022.1.3,Win32,59.87306909,62c50e9c1127f2cd403a315f,0,40,40,23,1,fourthree,,,,,,,,,,,,,,,,,,,,,,,,,,,,,,,,,,,,,,,,,,,,,,,,,,,,,,,,,,,,,,,,,,,,,,,,,,,,,,,,,,,,,,,,,,,,,,,,,,,,,,,,,,,,,,,,,,,,,,,,,,,,,,,,,,,,,,,,,,,,,,,,,,,,,,,,,,,,,
,,,,,,6174302b527b34205b0cc8f4,62c53a5c303bf8e23fd01cc9,2022-07-06_09h51.03.595,Colour_Asymmetry_Pilot,2022.1.3,Win32,59.87306909,62c50e9c1127f2cd403a315f,0,41,41,90,1,twoone,,,,,,,,,,,,,,,,,,,,,,,,,,,,,,,,,,,,,,,,,,,,,,,,,,,,,,,,,,,,,,,,,,,,,,,,,,,,,,,,,,,,,,,,,,,,,,,,,,,,,,,,,,,,,,,,,,,,,,,,,,,,,,,,,,,,,,,,,,,,,,,,,,,,,,,,,,,,,
,,,,,,6174302b527b34205b0cc8f4,62c53a5c303bf8e23fd01cc9,2022-07-06_09h51.03.595,Colour_Asymmetry_Pilot,2022.1.3,Win32,59.87306909,62c50e9c1127f2cd403a315f,0,42,42,66,1,twoone,,,,,,,,,,,,,,,,,,,,,,,,,,,,,,,,,,,,,,,,,,,,,,,,,,,,,,,,,,,,,,,,,,,,,,,,,,,,,,,,,,,,,,,,,,,,,,,,,,,,,,,,,,,,,,,,,,,,,,,,,,,,,,,,,,,,,,,,,,,,,,,,,,,,,,,,,,,,,
,,,,,,6174302b527b34205b0cc8f4,62c53a5c303bf8e23fd01cc9,2022-07-06_09h51.03.595,Colour_Asymmetry_Pilot,2022.1.3,Win32,59.87306909,62c50e9c1127f2cd403a315f,0,43,43,106,1,twoone,,,,,,,,,,,,,,,,,,,,,,,,,,,,,,,,,,,,,,,,,,,,,,,,,,,,,,,,,,,,,,,,,,,,,,,,,,,,,,,,,,,,,,,,,,,,,,,,,,,,,,,,,,,,,,,,,,,,,,,,,,,,,,,,,,,,,,,,,,,,,,,,,,,,,,,,,,,,,
,,,,,,6174302b527b34205b0cc8f4,62c53a5c303bf8e23fd01cc9,2022-07-06_09h51.03.595,Colour_Asymmetry_Pilot,2022.1.3,Win32,59.87306909,62c50e9c1127f2cd403a315f,0,44,44,131,1,twofour,,,,,,,,,,,,,,,,,,,,,,,,,,,,,,,,,,,,,,,,,,,,,,,,,,,,,,,,,,,,,,,,,,,,,,,,,,,,,,,,,,,,,,,,,,,,,,,,,,,,,,,,,,,,,,,,,,,,,,,,,,,,,,,,,,,,,,,,,,,,,,,,,,,,,,,,,,,,,
,,,,,,6174302b527b34205b0cc8f4,62c53a5c303bf8e23fd01cc9,2022-07-06_09h51.03.595,Colour_Asymmetry_Pilot,2022.1.3,Win32,59.87306909,62c50e9c1127f2cd403a315f,0,45,45,99,1,twofour,,,,,,,,,,,,,,,,,,,,,,,,,,,,,,,,,,,,,,,,,,,,,,,,,,,,,,,,,,,,,,,,,,,,,,,,,,,,,,,,,,,,,,,,,,,,,,,,,,,,,,,,,,,,,,,,,,,,,,,,,,,,,,,,,,,,,,,,,,,,,,,,,,,,,,,,,,,,,
,,,,,,6174302b527b34205b0cc8f4,62c53a5c303bf8e23fd01cc9,2022-07-06_09h51.03.595,Colour_Asymmetry_Pilot,2022.1.3,Win32,59.87306909,62c50e9c1127f2cd403a315f,0,46,46,17,1,onethree,,,,,,,,,,,,,,,,,,,,,,,,,,,,,,,,,,,,,,,,,,,,,,,,,,,,,,,,,,,,,,,,,,,,,,,,,,,,,,,,,,,,,,,,,,,,,,,,,,,,,,,,,,,,,,,,,,,,,,,,,,,,,,,,,,,,,,,,,,,,,,,,,,,,,,,,,,,,,
,,,,,,6174302b527b34205b0cc8f4,62c53a5c303bf8e23fd01cc9,2022-07-06_09h51.03.595,Colour_Asymmetry_Pilot,2022.1.3,Win32,59.87306909,62c50e9c1127f2cd403a315f,0,47,47,159,1,fourthree,,,,,,,,,,,,,,,,,,,,,,,,,,,,,,,,,,,,,,,,,,,,,,,,,,,,,,,,,,,,,,,,,,,,,,,,,,,,,,,,,,,,,,,,,,,,,,,,,,,,,,,,,,,,,,,,,,,,,,,,,,,,,,,,,,,,,,,,,,,,,,,,,,,,,,,,,,,,,
,,,,,,6174302b527b34205b0cc8f4,62c53a5c303bf8e23fd01cc9,2022-07-06_09h51.03.595,Colour_Asymmetry_Pilot,2022.1.3,Win32,59.87306909,62c50e9c1127f2cd403a315f,0,48,48,116,1,threeone,,,,,,,,,,,,,,,,,,,,,,,,,,,,,,,,,,,,,,,,,,,,,,,,,,,,,,,,,,,,,,,,,,,,,,,,,,,,,,,,,,,,,,,,,,,,,,,,,,,,,,,,,,,,,,,,,,,,,,,,,,,,,,,,,,,,,,,,,,,,,,,,,,,,,,,,,,,,,
,,,,,,6174302b527b34205b0cc8f4,62c53a5c303bf8e23fd01cc9,2022-07-06_09h51.03.595,Colour_Asymmetry_Pilot,2022.1.3,Win32,59.87306909,62c50e9c1127f2cd403a315f,0,49,49,119,1,fourthree,,,,,,,,,,,,,,,,,,,,,,,,,,,,,,,,,,,,,,,,,,,,,,,,,,,,,,,,,,,,,,,,,,,,,,,,,,,,,,,,,,,,,,,,,,,,,,,,,,,,,,,,,,,,,,,,,,,,,,,,,,,,,,,,,,,,,,,,,,,,,,,,,,,,,,,,,,,,,
,,,,,,6174302b527b34205b0cc8f4,62c53a5c303bf8e23fd01cc9,2022-07-06_09h51.03.595,Colour_Asymmetry_Pilot,2022.1.3,Win32,59.87306909,62c50e9c1127f2cd403a315f,0,50,50,100,1,threeone,,,,,,,,,,,,,,,,,,,,,,,,,,,,,,,,,,,,,,,,,,,,,,,,,,,,,,,,,,,,,,,,,,,,,,,,,,,,,,,,,,,,,,,,,,,,,,,,,,,,,,,,,,,,,,,,,,,,,,,,,,,,,,,,,,,,,,,,,,,,,,,,,,,,,,,,,,,,,
,,,,,,6174302b527b34205b0cc8f4,62c53a5c303bf8e23fd01cc9,2022-07-06_09h51.03.595,Colour_Asymmetry_Pilot,2022.1.3,Win32,59.87306909,62c50e9c1127f2cd403a315f,0,51,51,33,1,onethree,,,,,,,,,,,,,,,,,,,,,,,,,,,,,,,,,,,,,,,,,,,,,,,,,,,,,,,,,,,,,,,,,,,,,,,,,,,,,,,,,,,,,,,,,,,,,,,,,,,,,,,,,,,,,,,,,,,,,,,,,,,,,,,,,,,,,,,,,,,,,,,,,,,,,,,,,,,,,
,,,,,,6174302b527b34205b0cc8f4,62c53a5c303bf8e23fd01cc9,2022-07-06_09h51.03.595,Colour_Asymmetry_Pilot,2022.1.3,Win32,59.87306909,62c50e9c1127f2cd403a315f,0,52,52,67,1,twofour,,,,,,,,,,,,,,,,,,,,,,,,,,,,,,,,,,,,,,,,,,,,,,,,,,,,,,,,,,,,,,,,,,,,,,,,,,,,,,,,,,,,,,,,,,,,,,,,,,,,,,,,,,,,,,,,,,,,,,,,,,,,,,,,,,,,,,,,,,,,,,,,,,,,,,,,,,,,,
,,,,,,6174302b527b34205b0cc8f4,62c53a5c303bf8e23fd01cc9,2022-07-06_09h51.03.595,Colour_Asymmetry_Pilot,2022.1.3,Win32,59.87306909,62c50e9c1127f2cd403a315f,0,53,53,76,1,threeone,,,,,,,,,,,,,,,,,,,,,,,,,,,,,,,,,,,,,,,,,,,,,,,,,,,,,,,,,,,,,,,,,,,,,,,,,,,,,,,,,,,,,,,,,,,,,,,,,,,,,,,,,,,,,,,,,,,,,,,,,,,,,,,,,,,,,,,,,,,,,,,,,,,,,,,,,,,,,
,,,,,,6174302b527b34205b0cc8f4,62c53a5c303bf8e23fd01cc9,2022-07-06_09h51.03.595,Colour_Asymmetry_Pilot,2022.1.3,Win32,59.87306909,62c50e9c1127f2cd403a315f,0,54,54,80,1,onetwo,,,,,,,,,,,,,,,,,,,,,,,,,,,,,,,,,,,,,,,,,,,,,,,,,,,,,,,,,,,,,,,,,,,,,,,,,,,,,,,,,,,,,,,,,,,,,,,,,,,,,,,,,,,,,,,,,,,,,,,,,,,,,,,,,,,,,,,,,,,,,,,,,,,,,,,,,,,,,
,,,,,,6174302b527b34205b0cc8f4,62c53a5c303bf8e23fd01cc9,2022-07-06_09h51.03.595,Colour_Asymmetry_Pilot,2022.1.3,Win32,59.87306909,62c50e9c1127f2cd403a315f,0,55,55,156,1,threeone,,,,,,,,,,,,,,,,,,,,,,,,,,,,,,,,,,,,,,,,,,,,,,,,,,,,,,,,,,,,,,,,,,,,,,,,,,,,,,,,,,,,,,,,,,,,,,,,,,,,,,,,,,,,,,,,,,,,,,,,,,,,,,,,,,,,,,,,,,,,,,,,,,,,,,,,,,,,,
,,,,,,6174302b527b34205b0cc8f4,62c53a5c303bf8e23fd01cc9,2022-07-06_09h51.03.595,Colour_Asymmetry_Pilot,2022.1.3,Win32,59.87306909,62c50e9c1127f2cd403a315f,0,56,56,7,1,fourthree,,,,,,,,,,,,,,,,,,,,,,,,,,,,,,,,,,,,,,,,,,,,,,,,,,,,,,,,,,,,,,,,,,,,,,,,,,,,,,,,,,,,,,,,,,,,,,,,,,,,,,,,,,,,,,,,,,,,,,,,,,,,,,,,,,,,,,,,,,,,,,,,,,,,,,,,,,,,,
,,,,,,6174302b527b34205b0cc8f4,62c53a5c303bf8e23fd01cc9,2022-07-06_09h51.03.595,Colour_Asymmetry_Pilot,2022.1.3,Win32,59.87306909,62c50e9c1127f2cd403a315f,0,57,57,98,1,twoone,,,,,,,,,,,,,,,,,,,,,,,,,,,,,,,,,,,,,,,,,,,,,,,,,,,,,,,,,,,,,,,,,,,,,,,,,,,,,,,,,,,,,,,,,,,,,,,,,,,,,,,,,,,,,,,,,,,,,,,,,,,,,,,,,,,,,,,,,,,,,,,,,,,,,,,,,,,,,
,,,,,,6174302b527b34205b0cc8f4,62c53a5c303bf8e23fd01cc9,2022-07-06_09h51.03.595,Colour_Asymmetry_Pilot,2022.1.3,Win32,59.87306909,62c50e9c1127f2cd403a315f,0,58,58,65,1,onethree,,,,,,,,,,,,,,,,,,,,,,,,,,,,,,,,,,,,,,,,,,,,,,,,,,,,,,,,,,,,,,,,,,,,,,,,,,,,,,,,,,,,,,,,,,,,,,,,,,,,,,,,,,,,,,,,,,,,,,,,,,,,,,,,,,,,,,,,,,,,,,,,,,,,,,,,,,,,,
,,,,,,6174302b527b34205b0cc8f4,62c53a5c303bf8e23fd01cc9,2022-07-06_09h51.03.595,Colour_Asymmetry_Pilot,2022.1.3,Win32,59.87306909,62c50e9c1127f2cd403a315f,0,59,59,127,1,fourthree,,,,,,,,,,,,,,,,,,,,,,,,,,,,,,,,,,,,,,,,,,,,,,,,,,,,,,,,,,,,,,,,,,,,,,,,,,,,,,,,,,,,,,,,,,,,,,,,,,,,,,,,,,,,,,,,,,,,,,,,,,,,,,,,,,,,,,,,,,,,,,,,,,,,,,,,,,,,,
,,,,,,6174302b527b34205b0cc8f4,62c53a5c303bf8e23fd01cc9,2022-07-06_09h51.03.595,Colour_Asymmetry_Pilot,2022.1.3,Win32,59.87306909,62c50e9c1127f2cd403a315f,0,60,60,153,1,onethree,,,,,,,,,,,,,,,,,,,,,,,,,,,,,,,,,,,,,,,,,,,,,,,,,,,,,,,,,,,,,,,,,,,,,,,,,,,,,,,,,,,,,,,,,,,,,,,,,,,,,,,,,,,,,,,,,,,,,,,,,,,,,,,,,,,,,,,,,,,,,,,,,,,,,,,,,,,,,
,,,,,,6174302b527b34205b0cc8f4,62c53a5c303bf8e23fd01cc9,2022-07-06_09h51.03.595,Colour_Asymmetry_Pilot,2022.1.3,Win32,59.87306909,62c50e9c1127f2cd403a315f,0,61,61,129,1,onethree,,,,,,,,,,,,,,,,,,,,,,,,,,,,,,,,,,,,,,,,,,,,,,,,,,,,,,,,,,,,,,,,,,,,,,,,,,,,,,,,,,,,,,,,,,,,,,,,,,,,,,,,,,,,,,,,,,,,,,,,,,,,,,,,,,,,,,,,,,,,,,,,,,,,,,,,,,,,,
,,,,,,6174302b527b34205b0cc8f4,62c53a5c303bf8e23fd01cc9,2022-07-06_09h51.03.595,Colour_Asymmetry_Pilot,2022.1.3,Win32,59.87306909,62c50e9c1127f2cd403a315f,0,62,62,148,1,threeone,,,,,,,,,,,,,,,,,,,,,,,,,,,,,,,,,,,,,,,,,,,,,,,,,,,,,,,,,,,,,,,,,,,,,,,,,,,,,,,,,,,,,,,,,,,,,,,,,,,,,,,,,,,,,,,,,,,,,,,,,,,,,,,,,,,,,,,,,,,,,,,,,,,,,,,,,,,,,
,,,,,,6174302b527b34205b0cc8f4,62c53a5c303bf8e23fd01cc9,2022-07-06_09h51.03.595,Colour_Asymmetry_Pilot,2022.1.3,Win32,59.87306909,62c50e9c1127f2cd403a315f,0,63,63,74,1,twoone,,,,,,,,,,,,,,,,,,,,,,,,,,,,,,,,,,,,,,,,,,,,,,,,,,,,,,,,,,,,,,,,,,,,,,,,,,,,,,,,,,,,,,,,,,,,,,,,,,,,,,,,,,,,,,,,,,,,,,,,,,,,,,,,,,,,,,,,,,,,,,,,,,,,,,,,,,,,,
,,,,,,6174302b527b34205b0cc8f4,62c53a5c303bf8e23fd01cc9,2022-07-06_09h51.03.595,Colour_Asymmetry_Pilot,2022.1.3,Win32,59.87306909,62c50e9c1127f2cd403a315f,0,64,64,112,1,onetwo,,,,,,,,,,,,,,,,,,,,,,,,,,,,,,,,,,,,,,,,,,,,,,,,,,,,,,,,,,,,,,,,,,,,,,,,,,,,,,,,,,,,,,,,,,,,,,,,,,,,,,,,,,,,,,,,,,,,,,,,,,,,,,,,,,,,,,,,,,,,,,,,,,,,,,,,,,,,,
,,,,,,6174302b527b34205b0cc8f4,62c53a5c303bf8e23fd01cc9,2022-07-06_09h51.03.595,Colour_Asymmetry_Pilot,2022.1.3,Win32,59.87306909,62c50e9c1127f2cd403a315f,0,65,65,4,1,threeone,,,,,,,,,,,,,,,,,,,,,,,,,,,,,,,,,,,,,,,,,,,,,,,,,,,,,,,,,,,,,,,,,,,,,,,,,,,,,,,,,,,,,,,,,,,,,,,,,,,,,,,,,,,,,,,,,,,,,,,,,,,,,,,,,,,,,,,,,,,,,,,,,,,,,,,,,,,,,
,,,,,,6174302b527b34205b0cc8f4,62c53a5c303bf8e23fd01cc9,2022-07-06_09h51.03.595,Colour_Asymmetry_Pilot,2022.1.3,Win32,59.87306909,62c50e9c1127f2cd403a315f,0,66,66,39,1,fourthree,,,,,,,,,,,,,,,,,,,,,,,,,,,,,,,,,,,,,,,,,,,,,,,,,,,,,,,,,,,,,,,,,,,,,,,,,,,,,,,,,,,,,,,,,,,,,,,,,,,,,,,,,,,,,,,,,,,,,,,,,,,,,,,,,,,,,,,,,,,,,,,,,,,,,,,,,,,,,
,,,,,,6174302b527b34205b0cc8f4,62c53a5c303bf8e23fd01cc9,2022-07-06_09h51.03.595,Colour_Asymmetry_Pilot,2022.1.3,Win32,59.87306909,62c50e9c1127f2cd403a315f,0,67,67,51,1,twofour,,,,,,,,,,,,,,,,,,,,,,,,,,,,,,,,,,,,,,,,,,,,,,,,,,,,,,,,,,,,,,,,,,,,,,,,,,,,,,,,,,,,,,,,,,,,,,,,,,,,,,,,,,,,,,,,,,,,,,,,,,,,,,,,,,,,,,,,,,,,,,,,,,,,,,,,,,,,,
,,,,,,6174302b527b34205b0cc8f4,62c53a5c303bf8e23fd01cc9,2022-07-06_09h51.03.595,Colour_Asymmetry_Pilot,2022.1.3,Win32,59.87306909,62c50e9c1127f2cd403a315f,0,68,68,89,1,onethree,,,,,,,,,,,,,,,,,,,,,,,,,,,,,,,,,,,,,,,,,,,,,,,,,,,,,,,,,,,,,,,,,,,,,,,,,,,,,,,,,,,,,,,,,,,,,,,,,,,,,,,,,,,,,,,,,,,,,,,,,,,,,,,,,,,,,,,,,,,,,,,,,,,,,,,,,,,,,
,,,,,,6174302b527b34205b0cc8f4,62c53a5c303bf8e23fd01cc9,2022-07-06_09h51.03.595,Colour_Asymmetry_Pilot,2022.1.3,Win32,59.87306909,62c50e9c1127f2cd403a315f,0,69,69,9,1,onethree,,,,,,,,,,,,,,,,,,,,,,,,,,,,,,,,,,,,,,,,,,,,,,,,,,,,,,,,,,,,,,,,,,,,,,,,,,,,,,,,,,,,,,,,,,,,,,,,,,,,,,,,,,,,,,,,,,,,,,,,,,,,,,,,,,,,,,,,,,,,,,,,,,,,,,,,,,,,,
,,,,,,6174302b527b34205b0cc8f4,62c53a5c303bf8e23fd01cc9,2022-07-06_09h51.03.595,Colour_Asymmetry_Pilot,2022.1.3,Win32,59.87306909,62c50e9c1127f2cd403a315f,0,70,70,128,1,onetwo,,,,,,,,,,,,,,,,,,,,,,,,,,,,,,,,,,,,,,,,,,,,,,,,,,,,,,,,,,,,,,,,,,,,,,,,,,,,,,,,,,,,,,,,,,,,,,,,,,,,,,,,,,,,,,,,,,,,,,,,,,,,,,,,,,,,,,,,,,,,,,,,,,,,,,,,,,,,,
,,,,,,6174302b527b34205b0cc8f4,62c53a5c303bf8e23fd01cc9,2022-07-06_09h51.03.595,Colour_Asymmetry_Pilot,2022.1.3,Win32,59.87306909,62c50e9c1127f2cd403a315f,0,71,71,154,1,twoone,,,,,,,,,,,,,,,,,,,,,,,,,,,,,,,,,,,,,,,,,,,,,,,,,,,,,,,,,,,,,,,,,,,,,,,,,,,,,,,,,,,,,,,,,,,,,,,,,,,,,,,,,,,,,,,,,,,,,,,,,,,,,,,,,,,,,,,,,,,,,,,,,,,,,,,,,,,,,
,,,,,,6174302b527b34205b0cc8f4,62c53a5c303bf8e23fd01cc9,2022-07-06_09h51.03.595,Colour_Asymmetry_Pilot,2022.1.3,Win32,59.87306909,62c50e9c1127f2cd403a315f,0,72,72,146,1,twoone,,,,,,,,,,,,,,,,,,,,,,,,,,,,,,,,,,,,,,,,,,,,,,,,,,,,,,,,,,,,,,,,,,,,,,,,,,,,,,,,,,,,,,,,,,,,,,,,,,,,,,,,,,,,,,,,,,,,,,,,,,,,,,,,,,,,,,,,,,,,,,,,,,,,,,,,,,,,,
,,,,,,6174302b527b34205b0cc8f4,62c53a5c303bf8e23fd01cc9,2022-07-06_09h51.03.595,Colour_Asymmetry_Pilot,2022.1.3,Win32,59.87306909,62c50e9c1127f2cd403a315f,0,73,73,45,1,threefour,,,,,,,,,,,,,,,,,,,,,,,,,,,,,,,,,,,,,,,,,,,,,,,,,,,,,,,,,,,,,,,,,,,,,,,,,,,,,,,,,,,,,,,,,,,,,,,,,,,,,,,,,,,,,,,,,,,,,,,,,,,,,,,,,,,,,,,,,,,,,,,,,,,,,,,,,,,,,
,,,,,,6174302b527b34205b0cc8f4,62c53a5c303bf8e23fd01cc9,2022-07-06_09h51.03.595,Colour_Asymmetry_Pilot,2022.1.3,Win32,59.87306909,62c50e9c1127f2cd403a315f,0,74,74,120,1,onetwo,,,,,,,,,,,,,,,,,,,,,,,,,,,,,,,,,,,,,,,,,,,,,,,,,,,,,,,,,,,,,,,,,,,,,,,,,,,,,,,,,,,,,,,,,,,,,,,,,,,,,,,,,,,,,,,,,,,,,,,,,,,,,,,,,,,,,,,,,,,,,,,,,,,,,,,,,,,,,
,,,,,,6174302b527b34205b0cc8f4,62c53a5c303bf8e23fd01cc9,2022-07-06_09h51.03.595,Colour_Asymmetry_Pilot,2022.1.3,Win32,59.87306909,62c50e9c1127f2cd403a315f,0,75,75,22,1,fourtwo,,,,,,,,,,,,,,,,,,,,,,,,,,,,,,,,,,,,,,,,,,,,,,,,,,,,,,,,,,,,,,,,,,,,,,,,,,,,,,,,,,,,,,,,,,,,,,,,,,,,,,,,,,,,,,,,,,,,,,,,,,,,,,,,,,,,,,,,,,,,,,,,,,,,,,,,,,,,,
,,,,,,6174302b527b34205b0cc8f4,62c53a5c303bf8e23fd01cc9,2022-07-06_09h51.03.595,Colour_Asymmetry_Pilot,2022.1.3,Win32,59.87306909,62c50e9c1127f2cd403a315f,0,76,76,73,1,onethree,,,,,,,,,,,,,,,,,,,,,,,,,,,,,,,,,,,,,,,,,,,,,,,,,,,,,,,,,,,,,,,,,,,,,,,,,,,,,,,,,,,,,,,,,,,,,,,,,,,,,,,,,,,,,,,,,,,,,,,,,,,,,,,,,,,,,,,,,,,,,,,,,,,,,,,,,,,,,
,,,,,,6174302b527b34205b0cc8f4,62c53a5c303bf8e23fd01cc9,2022-07-06_09h51.03.595,Colour_Asymmetry_Pilot,2022.1.3,Win32,59.87306909,62c50e9c1127f2cd403a315f,0,77,77,1,1,onethree,,,,,,,,,,,,,,,,,,,,,,,,,,,,,,,,,,,,,,,,,,,,,,,,,,,,,,,,,,,,,,,,,,,,,,,,,,,,,,,,,,,,,,,,,,,,,,,,,,,,,,,,,,,,,,,,,,,,,,,,,,,,,,,,,,,,,,,,,,,,,,,,,,,,,,,,,,,,,
,,,,,,6174302b527b34205b0cc8f4,62c53a5c303bf8e23fd01cc9,2022-07-06_09h51.03.595,Colour_Asymmetry_Pilot,2022.1.3,Win32,59.87306909,62c50e9c1127f2cd403a315f,0,78,78,37,1,threefour,,,,,,,,,,,,,,,,,,,,,,,,,,,,,,,,,,,,,,,,,,,,,,,,,,,,,,,,,,,,,,,,,,,,,,,,,,,,,,,,,,,,,,,,,,,,,,,,,,,,,,,,,,,,,,,,,,,,,,,,,,,,,,,,,,,,,,,,,,,,,,,,,,,,,,,,,,,,,
,,,,,,6174302b527b34205b0cc8f4,62c53a5c303bf8e23fd01cc9,2022-07-06_09h51.03.595,Colour_Asymmetry_Pilot,2022.1.3,Win32,59.87306909,62c50e9c1127f2cd403a315f,0,79,79,20,1,threeone,,,,,,,,,,,,,,,,,,,,,,,,,,,,,,,,,,,,,,,,,,,,,,,,,,,,,,,,,,,,,,,,,,,,,,,,,,,,,,,,,,,,,,,,,,,,,,,,,,,,,,,,,,,,,,,,,,,,,,,,,,,,,,,,,,,,,,,,,,,,,,,,,,,,,,,,,,,,,
,,,,,,6174302b527b34205b0cc8f4,62c53a5c303bf8e23fd01cc9,2022-07-06_09h51.03.595,Colour_Asymmetry_Pilot,2022.1.3,Win32,59.87306909,62c50e9c1127f2cd403a315f,0,80,80,41,1,onethree,,,,,,,,,,,,,,,,,,,,,,,,,,,,,,,,,,,,,,,,,,,,,,,,,,,,,,,,,,,,,,,,,,,,,,,,,,,,,,,,,,,,,,,,,,,,,,,,,,,,,,,,,,,,,,,,,,,,,,,,,,,,,,,,,,,,,,,,,,,,,,,,,,,,,,,,,,,,,
,,,,,,6174302b527b34205b0cc8f4,62c53a5c303bf8e23fd01cc9,2022-07-06_09h51.03.595,Colour_Asymmetry_Pilot,2022.1.3,Win32,59.87306909,62c50e9c1127f2cd403a315f,0,81,81,10,1,twoone,,,,,,,,,,,,,,,,,,,,,,,,,,,,,,,,,,,,,,,,,,,,,,,,,,,,,,,,,,,,,,,,,,,,,,,,,,,,,,,,,,,,,,,,,,,,,,,,,,,,,,,,,,,,,,,,,,,,,,,,,,,,,,,,,,,,,,,,,,,,,,,,,,,,,,,,,,,,,
,,,,,,6174302b527b34205b0cc8f4,62c53a5c303bf8e23fd01cc9,2022-07-06_09h51.03.595,Colour_Asymmetry_Pilot,2022.1.3,Win32,59.87306909,62c50e9c1127f2cd403a315f,0,82,82,52,1,threeone,,,,,,,,,,,,,,,,,,,,,,,,,,,,,,,,,,,,,,,,,,,,,,,,,,,,,,,,,,,,,,,,,,,,,,,,,,,,,,,,,,,,,,,,,,,,,,,,,,,,,,,,,,,,,,,,,,,,,,,,,,,,,,,,,,,,,,,,,,,,,,,,,,,,,,,,,,,,,
,,,,,,6174302b527b34205b0cc8f4,62c53a5c303bf8e23fd01cc9,2022-07-06_09h51.03.595,Colour_Asymmetry_Pilot,2022.1.3,Win32,59.87306909,62c50e9c1127f2cd403a315f,0,83,83,40,1,onetwo,,,,,,,,,,,,,,,,,,,,,,,,,,,,,,,,,,,,,,,,,,,,,,,,,,,,,,,,,,,,,,,,,,,,,,,,,,,,,,,,,,,,,,,,,,,,,,,,,,,,,,,,,,,,,,,,,,,,,,,,,,,,,,,,,,,,,,,,,,,,,,,,,,,,,,,,,,,,,
,,,,,,6174302b527b34205b0cc8f4,62c53a5c303bf8e23fd01cc9,2022-07-06_09h51.03.595,Colour_Asymmetry_Pilot,2022.1.3,Win32,59.87306909,62c50e9c1127f2cd403a315f,0,84,84,60,1,threeone,,,,,,,,,,,,,,,,,,,,,,,,,,,,,,,,,,,,,,,,,,,,,,,,,,,,,,,,,,,,,,,,,,,,,,,,,,,,,,,,,,,,,,,,,,,,,,,,,,,,,,,,,,,,,,,,,,,,,,,,,,,,,,,,,,,,,,,,,,,,,,,,,,,,,,,,,,,,,
,,,,,,6174302b527b34205b0cc8f4,62c53a5c303bf8e23fd01cc9,2022-07-06_09h51.03.595,Colour_Asymmetry_Pilot,2022.1.3,Win32,59.87306909,62c50e9c1127f2cd403a315f,0,85,85,27,1,twofour,,,,,,,,,,,,,,,,,,,,,,,,,,,,,,,,,,,,,,,,,,,,,,,,,,,,,,,,,,,,,,,,,,,,,,,,,,,,,,,,,,,,,,,,,,,,,,,,,,,,,,,,,,,,,,,,,,,,,,,,,,,,,,,,,,,,,,,,,,,,,,,,,,,,,,,,,,,,,
,,,,,,6174302b527b34205b0cc8f4,62c53a5c303bf8e23fd01cc9,2022-07-06_09h51.03.595,Colour_Asymmetry_Pilot,2022.1.3,Win32,59.87306909,62c50e9c1127f2cd403a315f,0,86,86,77,1,threefour,,,,,,,,,,,,,,,,,,,,,,,,,,,,,,,,,,,,,,,,,,,,,,,,,,,,,,,,,,,,,,,,,,,,,,,,,,,,,,,,,,,,,,,,,,,,,,,,,,,,,,,,,,,,,,,,,,,,,,,,,,,,,,,,,,,,,,,,,,,,,,,,,,,,,,,,,,,,,
,,,,,,6174302b527b34205b0cc8f4,62c53a5c303bf8e23fd01cc9,2022-07-06_09h51.03.595,Colour_Asymmetry_Pilot,2022.1.3,Win32,59.87306909,62c50e9c1127f2cd403a315f,0,87,87,49,1,onethree,,,,,,,,,,,,,,,,,,,,,,,,,,,,,,,,,,,,,,,,,,,,,,,,,,,,,,,,,,,,,,,,,,,,,,,,,,,,,,,,,,,,,,,,,,,,,,,,,,,,,,,,,,,,,,,,,,,,,,,,,,,,,,,,,,,,,,,,,,,,,,,,,,,,,,,,,,,,,
,,,,,,6174302b527b34205b0cc8f4,62c53a5c303bf8e23fd01cc9,2022-07-06_09h51.03.595,Colour_Asymmetry_Pilot,2022.1.3,Win32,59.87306909,62c50e9c1127f2cd403a315f,0,88,88,78,1,fourtwo,,,,,,,,,,,,,,,,,,,,,,,,,,,,,,,,,,,,,,,,,,,,,,,,,,,,,,,,,,,,,,,,,,,,,,,,,,,,,,,,,,,,,,,,,,,,,,,,,,,,,,,,,,,,,,,,,,,,,,,,,,,,,,,,,,,,,,,,,,,,,,,,,,,,,,,,,,,,,
,,,,,,6174302b527b34205b0cc8f4,62c53a5c303bf8e23fd01cc9,2022-07-06_09h51.03.595,Colour_Asymmetry_Pilot,2022.1.3,Win32,59.87306909,62c50e9c1127f2cd403a315f,0,89,89,160,1,onetwo,,,,,,,,,,,,,,,,,,,,,,,,,,,,,,,,,,,,,,,,,,,,,,,,,,,,,,,,,,,,,,,,,,,,,,,,,,,,,,,,,,,,,,,,,,,,,,,,,,,,,,,,,,,,,,,,,,,,,,,,,,,,,,,,,,,,,,,,,,,,,,,,,,,,,,,,,,,,,
,,,,,,6174302b527b34205b0cc8f4,62c53a5c303bf8e23fd01cc9,2022-07-06_09h51.03.595,Colour_Asymmetry_Pilot,2022.1.3,Win32,59.87306909,62c50e9c1127f2cd403a315f,0,90,90,28,1,threeone,,,,,,,,,,,,,,,,,,,,,,,,,,,,,,,,,,,,,,,,,,,,,,,,,,,,,,,,,,,,,,,,,,,,,,,,,,,,,,,,,,,,,,,,,,,,,,,,,,,,,,,,,,,,,,,,,,,,,,,,,,,,,,,,,,,,,,,,,,,,,,,,,,,,,,,,,,,,,
,,,,,,6174302b527b34205b0cc8f4,62c53a5c303bf8e23fd01cc9,2022-07-06_09h51.03.595,Colour_Asymmetry_Pilot,2022.1.3,Win32,59.87306909,62c50e9c1127f2cd403a315f,0,91,91,134,1,fourtwo,,,,,,,,,,,,,,,,,,,,,,,,,,,,,,,,,,,,,,,,,,,,,,,,,,,,,,,,,,,,,,,,,,,,,,,,,,,,,,,,,,,,,,,,,,,,,,,,,,,,,,,,,,,,,,,,,,,,,,,,,,,,,,,,,,,,,,,,,,,,,,,,,,,,,,,,,,,,,
,,,,,,6174302b527b34205b0cc8f4,62c53a5c303bf8e23fd01cc9,2022-07-06_09h51.03.595,Colour_Asymmetry_Pilot,2022.1.3,Win32,59.87306909,62c50e9c1127f2cd403a315f,0,92,92,44,1,threeone,,,,,,,,,,,,,,,,,,,,,,,,,,,,,,,,,,,,,,,,,,,,,,,,,,,,,,,,,,,,,,,,,,,,,,,,,,,,,,,,,,,,,,,,,,,,,,,,,,,,,,,,,,,,,,,,,,,,,,,,,,,,,,,,,,,,,,,,,,,,,,,,,,,,,,,,,,,,,
,,,,,,6174302b527b34205b0cc8f4,62c53a5c303bf8e23fd01cc9,2022-07-06_09h51.03.595,Colour_Asymmetry_Pilot,2022.1.3,Win32,59.87306909,62c50e9c1127f2cd403a315f,0,93,93,140,1,threeone,,,,,,,,,,,,,,,,,,,,,,,,,,,,,,,,,,,,,,,,,,,,,,,,,,,,,,,,,,,,,,,,,,,,,,,,,,,,,,,,,,,,,,,,,,,,,,,,,,,,,,,,,,,,,,,,,,,,,,,,,,,,,,,,,,,,,,,,,,,,,,,,,,,,,,,,,,,,,
,,,,,,6174302b527b34205b0cc8f4,62c53a5c303bf8e23fd01cc9,2022-07-06_09h51.03.595,Colour_Asymmetry_Pilot,2022.1.3,Win32,59.87306909,62c50e9c1127f2cd403a315f,0,94,94,138,1,twoone,,,,,,,,,,,,,,,,,,,,,,,,,,,,,,,,,,,,,,,,,,,,,,,,,,,,,,,,,,,,,,,,,,,,,,,,,,,,,,,,,,,,,,,,,,,,,,,,,,,,,,,,,,,,,,,,,,,,,,,,,,,,,,,,,,,,,,,,,,,,,,,,,,,,,,,,,,,,,
,,,,,,6174302b527b34205b0cc8f4,62c53a5c303bf8e23fd01cc9,2022-07-06_09h51.03.595,Colour_Asymmetry_Pilot,2022.1.3,Win32,59.87306909,62c50e9c1127f2cd403a315f,0,95,95,2,1,twoone,,,,,,,,,,,,,,,,,,,,,,,,,,,,,,,,,,,,,,,,,,,,,,,,,,,,,,,,,,,,,,,,,,,,,,,,,,,,,,,,,,,,,,,,,,,,,,,,,,,,,,,,,,,,,,,,,,,,,,,,,,,,,,,,,,,,,,,,,,,,,,,,,,,,,,,,,,,,,
,,,,,,6174302b527b34205b0cc8f4,62c53a5c303bf8e23fd01cc9,2022-07-06_09h51.03.595,Colour_Asymmetry_Pilot,2022.1.3,Win32,59.87306909,62c50e9c1127f2cd403a315f,0,96,96,70,1,fourtwo,,,,,,,,,,,,,,,,,,,,,,,,,,,,,,,,,,,,,,,,,,,,,,,,,,,,,,,,,,,,,,,,,,,,,,,,,,,,,,,,,,,,,,,,,,,,,,,,,,,,,,,,,,,,,,,,,,,,,,,,,,,,,,,,,,,,,,,,,,,,,,,,,,,,,,,,,,,,,
,,,,,,6174302b527b34205b0cc8f4,62c53a5c303bf8e23fd01cc9,2022-07-06_09h51.03.595,Colour_Asymmetry_Pilot,2022.1.3,Win32,59.87306909,62c50e9c1127f2cd403a315f,0,97,97,103,1,fourthree,,,,,,,,,,,,,,,,,,,,,,,,,,,,,,,,,,,,,,,,,,,,,,,,,,,,,,,,,,,,,,,,,,,,,,,,,,,,,,,,,,,,,,,,,,,,,,,,,,,,,,,,,,,,,,,,,,,,,,,,,,,,,,,,,,,,,,,,,,,,,,,,,,,,,,,,,,,,,
,,,,,,6174302b527b34205b0cc8f4,62c53a5c303bf8e23fd01cc9,2022-07-06_09h51.03.595,Colour_Asymmetry_Pilot,2022.1.3,Win32,59.87306909,62c50e9c1127f2cd403a315f,0,98,98,86,1,fourtwo,,,,,,,,,,,,,,,,,,,,,,,,,,,,,,,,,,,,,,,,,,,,,,,,,,,,,,,,,,,,,,,,,,,,,,,,,,,,,,,,,,,,,,,,,,,,,,,,,,,,,,,,,,,,,,,,,,,,,,,,,,,,,,,,,,,,,,,,,,,,,,,,,,,,,,,,,,,,,
,,,,,,6174302b527b34205b0cc8f4,62c53a5c303bf8e23fd01cc9,2022-07-06_09h51.03.595,Colour_Asymmetry_Pilot,2022.1.3,Win32,59.87306909,62c50e9c1127f2cd403a315f,0,99,99,43,1,twofour,,,,,,,,,,,,,,,,,,,,,,,,,,,,,,,,,,,,,,,,,,,,,,,,,,,,,,,,,,,,,,,,,,,,,,,,,,,,,,,,,,,,,,,,,,,,,,,,,,,,,,,,,,,,,,,,,,,,,,,,,,,,,,,,,,,,,,,,,,,,,,,,,,,,,,,,,,,,,
,,,,,,6174302b527b34205b0cc8f4,62c53a5c303bf8e23fd01cc9,2022-07-06_09h51.03.595,Colour_Asymmetry_Pilot,2022.1.3,Win32,59.87306909,62c50e9c1127f2cd403a315f,0,100,100,19,1,twofour,,,,,,,,,,,,,,,,,,,,,,,,,,,,,,,,,,,,,,,,,,,,,,,,,,,,,,,,,,,,,,,,,,,,,,,,,,,,,,,,,,,,,,,,,,,,,,,,,,,,,,,,,,,,,,,,,,,,,,,,,,,,,,,,,,,,,,,,,,,,,,,,,,,,,,,,,,,,,
,,,,,,6174302b527b34205b0cc8f4,62c53a5c303bf8e23fd01cc9,2022-07-06_09h51.03.595,Colour_Asymmetry_Pilot,2022.1.3,Win32,59.87306909,62c50e9c1127f2cd403a315f,0,101,101,35,1,twofour,,,,,,,,,,,,,,,,,,,,,,,,,,,,,,,,,,,,,,,,,,,,,,,,,,,,,,,,,,,,,,,,,,,,,,,,,,,,,,,,,,,,,,,,,,,,,,,,,,,,,,,,,,,,,,,,,,,,,,,,,,,,,,,,,,,,,,,,,,,,,,,,,,,,,,,,,,,,,
,,,,,,6174302b527b34205b0cc8f4,62c53a5c303bf8e23fd01cc9,2022-07-06_09h51.03.595,Colour_Asymmetry_Pilot,2022.1.3,Win32,59.87306909,62c50e9c1127f2cd403a315f,0,102,102,42,1,twoone,,,,,,,,,,,,,,,,,,,,,,,,,,,,,,,,,,,,,,,,,,,,,,,,,,,,,,,,,,,,,,,,,,,,,,,,,,,,,,,,,,,,,,,,,,,,,,,,,,,,,,,,,,,,,,,,,,,,,,,,,,,,,,,,,,,,,,,,,,,,,,,,,,,,,,,,,,,,,
,,,,,,6174302b527b34205b0cc8f4,62c53a5c303bf8e23fd01cc9,2022-07-06_09h51.03.595,Colour_Asymmetry_Pilot,2022.1.3,Win32,59.87306909,62c50e9c1127f2cd403a315f,0,103,103,48,1,onetwo,,,,,,,,,,,,,,,,,,,,,,,,,,,,,,,,,,,,,,,,,,,,,,,,,,,,,,,,,,,,,,,,,,,,,,,,,,,,,,,,,,,,,,,,,,,,,,,,,,,,,,,,,,,,,,,,,,,,,,,,,,,,,,,,,,,,,,,,,,,,,,,,,,,,,,,,,,,,,
,,,,,,6174302b527b34205b0cc8f4,62c53a5c303bf8e23fd01cc9,2022-07-06_09h51.03.595,Colour_Asymmetry_Pilot,2022.1.3,Win32,59.87306909,62c50e9c1127f2cd403a315f,0,104,104,31,1,fourthree,,,,,,,,,,,,,,,,,,,,,,,,,,,,,,,,,,,,,,,,,,,,,,,,,,,,,,,,,,,,,,,,,,,,,,,,,,,,,,,,,,,,,,,,,,,,,,,,,,,,,,,,,,,,,,,,,,,,,,,,,,,,,,,,,,,,,,,,,,,,,,,,,,,,,,,,,,,,,
,,,,,,6174302b527b34205b0cc8f4,62c53a5c303bf8e23fd01cc9,2022-07-06_09h51.03.595,Colour_Asymmetry_Pilot,2022.1.3,Win32,59.87306909,62c50e9c1127f2cd403a315f,0,105,105,161,1,onethree,,,,,,,,,,,,,,,,,,,,,,,,,,,,,,,,,,,,,,,,,,,,,,,,,,,,,,,,,,,,,,,,,,,,,,,,,,,,,,,,,,,,,,,,,,,,,,,,,,,,,,,,,,,,,,,,,,,,,,,,,,,,,,,,,,,,,,,,,,,,,,,,,,,,,,,,,,,,,
,,,,,,6174302b527b34205b0cc8f4,62c53a5c303bf8e23fd01cc9,2022-07-06_09h51.03.595,Colour_Asymmetry_Pilot,2022.1.3,Win32,59.87306909,62c50e9c1127f2cd403a315f,0,106,106,38,1,fourtwo,,,,,,,,,,,,,,,,,,,,,,,,,,,,,,,,,,,,,,,,,,,,,,,,,,,,,,,,,,,,,,,,,,,,,,,,,,,,,,,,,,,,,,,,,,,,,,,,,,,,,,,,,,,,,,,,,,,,,,,,,,,,,,,,,,,,,,,,,,,,,,,,,,,,,,,,,,,,,
,,,,,,6174302b527b34205b0cc8f4,62c53a5c303bf8e23fd01cc9,2022-07-06_09h51.03.595,Colour_Asymmetry_Pilot,2022.1.3,Win32,59.87306909,62c50e9c1127f2cd403a315f,0,107,107,101,1,threefour,,,,,,,,,,,,,,,,,,,,,,,,,,,,,,,,,,,,,,,,,,,,,,,,,,,,,,,,,,,,,,,,,,,,,,,,,,,,,,,,,,,,,,,,,,,,,,,,,,,,,,,,,,,,,,,,,,,,,,,,,,,,,,,,,,,,,,,,,,,,,,,,,,,,,,,,,,,,,
,,,,,,6174302b527b34205b0cc8f4,62c53a5c303bf8e23fd01cc9,2022-07-06_09h51.03.595,Colour_Asymmetry_Pilot,2022.1.3,Win32,59.87306909,62c50e9c1127f2cd403a315f,0,108,108,147,1,twofour,,,,,,,,,,,,,,,,,,,,,,,,,,,,,,,,,,,,,,,,,,,,,,,,,,,,,,,,,,,,,,,,,,,,,,,,,,,,,,,,,,,,,,,,,,,,,,,,,,,,,,,,,,,,,,,,,,,,,,,,,,,,,,,,,,,,,,,,,,,,,,,,,,,,,,,,,,,,,
,,,,,,6174302b527b34205b0cc8f4,62c53a5c303bf8e23fd01cc9,2022-07-06_09h51.03.595,Colour_Asymmetry_Pilot,2022.1.3,Win32,59.87306909,62c50e9c1127f2cd403a315f,0,109,109,122,1,twoone,,,,,,,,,,,,,,,,,,,,,,,,,,,,,,,,,,,,,,,,,,,,,,,,,,,,,,,,,,,,,,,,,,,,,,,,,,,,,,,,,,,,,,,,,,,,,,,,,,,,,,,,,,,,,,,,,,,,,,,,,,,,,,,,,,,,,,,,,,,,,,,,,,,,,,,,,,,,,
,,,,,,6174302b527b34205b0cc8f4,62c53a5c303bf8e23fd01cc9,2022-07-06_09h51.03.595,Colour_Asymmetry_Pilot,2022.1.3,Win32,59.87306909,62c50e9c1127f2cd403a315f,0,110,110,117,1,threefour,,,,,,,,,,,,,,,,,,,,,,,,,,,,,,,,,,,,,,,,,,,,,,,,,,,,,,,,,,,,,,,,,,,,,,,,,,,,,,,,,,,,,,,,,,,,,,,,,,,,,,,,,,,,,,,,,,,,,,,,,,,,,,,,,,,,,,,,,,,,,,,,,,,,,,,,,,,,,
,,,,,,6174302b527b34205b0cc8f4,62c53a5c303bf8e23fd01cc9,2022-07-06_09h51.03.595,Colour_Asymmetry_Pilot,2022.1.3,Win32,59.87306909,62c50e9c1127f2cd403a315f,0,111,111,97,1,onethree,,,,,,,,,,,,,,,,,,,,,,,,,,,,,,,,,,,,,,,,,,,,,,,,,,,,,,,,,,,,,,,,,,,,,,,,,,,,,,,,,,,,,,,,,,,,,,,,,,,,,,,,,,,,,,,,,,,,,,,,,,,,,,,,,,,,,,,,,,,,,,,,,,,,,,,,,,,,,
,,,,,,6174302b527b34205b0cc8f4,62c53a5c303bf8e23fd01cc9,2022-07-06_09h51.03.595,Colour_Asymmetry_Pilot,2022.1.3,Win32,59.87306909,62c50e9c1127f2cd403a315f,0,112,112,158,1,fourtwo,,,,,,,,,,,,,,,,,,,,,,,,,,,,,,,,,,,,,,,,,,,,,,,,,,,,,,,,,,,,,,,,,,,,,,,,,,,,,,,,,,,,,,,,,,,,,,,,,,,,,,,,,,,,,,,,,,,,,,,,,,,,,,,,,,,,,,,,,,,,,,,,,,,,,,,,,,,,,
,,,,,,6174302b527b34205b0cc8f4,62c53a5c303bf8e23fd01cc9,2022-07-06_09h51.03.595,Colour_Asymmetry_Pilot,2022.1.3,Win32,59.87306909,62c50e9c1127f2cd403a315f,0,113,113,26,1,twoone,,,,,,,,,,,,,,,,,,,,,,,,,,,,,,,,,,,,,,,,,,,,,,,,,,,,,,,,,,,,,,,,,,,,,,,,,,,,,,,,,,,,,,,,,,,,,,,,,,,,,,,,,,,,,,,,,,,,,,,,,,,,,,,,,,,,,,,,,,,,,,,,,,,,,,,,,,,,,
,,,,,,6174302b527b34205b0cc8f4,62c53a5c303bf8e23fd01cc9,2022-07-06_09h51.03.595,Colour_Asymmetry_Pilot,2022.1.3,Win32,59.87306909,62c50e9c1127f2cd403a315f,0,114,114,8,1,onetwo,,,,,,,,,,,,,,,,,,,,,,,,,,,,,,,,,,,,,,,,,,,,,,,,,,,,,,,,,,,,,,,,,,,,,,,,,,,,,,,,,,,,,,,,,,,,,,,,,,,,,,,,,,,,,,,,,,,,,,,,,,,,,,,,,,,,,,,,,,,,,,,,,,,,,,,,,,,,,
,,,,,,6174302b527b34205b0cc8f4,62c53a5c303bf8e23fd01cc9,2022-07-06_09h51.03.595,Colour_Asymmetry_Pilot,2022.1.3,Win32,59.87306909,62c50e9c1127f2cd403a315f,0,115,115,88,1,onetwo,,,,,,,,,,,,,,,,,,,,,,,,,,,,,,,,,,,,,,,,,,,,,,,,,,,,,,,,,,,,,,,,,,,,,,,,,,,,,,,,,,,,,,,,,,,,,,,,,,,,,,,,,,,,,,,,,,,,,,,,,,,,,,,,,,,,,,,,,,,,,,,,,,,,,,,,,,,,,
,,,,,,6174302b527b34205b0cc8f4,62c53a5c303bf8e23fd01cc9,2022-07-06_09h51.03.595,Colour_Asymmetry_Pilot,2022.1.3,Win32,59.87306909,62c50e9c1127f2cd403a315f,0,116,116,71,1,fourthree,,,,,,,,,,,,,,,,,,,,,,,,,,,,,,,,,,,,,,,,,,,,,,,,,,,,,,,,,,,,,,,,,,,,,,,,,,,,,,,,,,,,,,,,,,,,,,,,,,,,,,,,,,,,,,,,,,,,,,,,,,,,,,,,,,,,,,,,,,,,,,,,,,,,,,,,,,,,,
,,,,,,6174302b527b34205b0cc8f4,62c53a5c303bf8e23fd01cc9,2022-07-06_09h51.03.595,Colour_Asymmetry_Pilot,2022.1.3,Win32,59.87306909,62c50e9c1127f2cd403a315f,0,117,117,24,1,onetwo,,,,,,,,,,,,,,,,,,,,,,,,,,,,,,,,,,,,,,,,,,,,,,,,,,,,,,,,,,,,,,,,,,,,,,,,,,,,,,,,,,,,,,,,,,,,,,,,,,,,,,,,,,,,,,,,,,,,,,,,,,,,,,,,,,,,,,,,,,,,,,,,,,,,,,,,,,,,,
,,,,,,6174302b527b34205b0cc8f4,62c53a5c303bf8e23fd01cc9,2022-07-06_09h51.03.595,Colour_Asymmetry_Pilot,2022.1.3,Win32,59.87306909,62c50e9c1127f2cd403a315f,0,118,118,36,1,threeone,,,,,,,,,,,,,,,,,,,,,,,,,,,,,,,,,,,,,,,,,,,,,,,,,,,,,,,,,,,,,,,,,,,,,,,,,,,,,,,,,,,,,,,,,,,,,,,,,,,,,,,,,,,,,,,,,,,,,,,,,,,,,,,,,,,,,,,,,,,,,,,,,,,,,,,,,,,,,
,,,,,,6174302b527b34205b0cc8f4,62c53a5c303bf8e23fd01cc9,2022-07-06_09h51.03.595,Colour_Asymmetry_Pilot,2022.1.3,Win32,59.87306909,62c50e9c1127f2cd403a315f,0,119,119,21,1,threefour,,,,,,,,,,,,,,,,,,,,,,,,,,,,,,,,,,,,,,,,,,,,,,,,,,,,,,,,,,,,,,,,,,,,,,,,,,,,,,,,,,,,,,,,,,,,,,,,,,,,,,,,,,,,,,,,,,,,,,,,,,,,,,,,,,,,,,,,,,,,,,,,,,,,,,,,,,,,,
,,,,,,6174302b527b34205b0cc8f4,62c53a5c303bf8e23fd01cc9,2022-07-06_09h51.03.595,Colour_Asymmetry_Pilot,2022.1.3,Win32,59.87306909,62c50e9c1127f2cd403a315f,0,120,120,11,1,twofour,,,,,,,,,,,,,,,,,,,,,,,,,,,,,,,,,,,,,,,,,,,,,,,,,,,,,,,,,,,,,,,,,,,,,,,,,,,,,,,,,,,,,,,,,,,,,,,,,,,,,,,,,,,,,,,,,,,,,,,,,,,,,,,,,,,,,,,,,,,,,,,,,,,,,,,,,,,,,
,,,,,,6174302b527b34205b0cc8f4,62c53a5c303bf8e23fd01cc9,2022-07-06_09h51.03.595,Colour_Asymmetry_Pilot,2022.1.3,Win32,59.87306909,62c50e9c1127f2cd403a315f,0,121,121,75,1,twofour,,,,,,,,,,,,,,,,,,,,,,,,,,,,,,,,,,,,,,,,,,,,,,,,,,,,,,,,,,,,,,,,,,,,,,,,,,,,,,,,,,,,,,,,,,,,,,,,,,,,,,,,,,,,,,,,,,,,,,,,,,,,,,,,,,,,,,,,,,,,,,,,,,,,,,,,,,,,,
,,,,,,6174302b527b34205b0cc8f4,62c53a5c303bf8e23fd01cc9,2022-07-06_09h51.03.595,Colour_Asymmetry_Pilot,2022.1.3,Win32,59.87306909,62c50e9c1127f2cd403a315f,0,122,122,102,1,fourtwo,,,,,,,,,,,,,,,,,,,,,,,,,,,,,,,,,,,,,,,,,,,,,,,,,,,,,,,,,,,,,,,,,,,,,,,,,,,,,,,,,,,,,,,,,,,,,,,,,,,,,,,,,,,,,,,,,,,,,,,,,,,,,,,,,,,,,,,,,,,,,,,,,,,,,,,,,,,,,
,,,,,,6174302b527b34205b0cc8f4,62c53a5c303bf8e23fd01cc9,2022-07-06_09h51.03.595,Colour_Asymmetry_Pilot,2022.1.3,Win32,59.87306909,62c50e9c1127f2cd403a315f,0,123,123,54,1,fourtwo,,,,,,,,,,,,,,,,,,,,,,,,,,,,,,,,,,,,,,,,,,,,,,,,,,,,,,,,,,,,,,,,,,,,,,,,,,,,,,,,,,,,,,,,,,,,,,,,,,,,,,,,,,,,,,,,,,,,,,,,,,,,,,,,,,,,,,,,,,,,,,,,,,,,,,,,,,,,,
,,,,,,6174302b527b34205b0cc8f4,62c53a5c303bf8e23fd01cc9,2022-07-06_09h51.03.595,Colour_Asymmetry_Pilot,2022.1.3,Win32,59.87306909,62c50e9c1127f2cd403a315f,0,124,124,137,1,onethree,,,,,,,,,,,,,,,,,,,,,,,,,,,,,,,,,,,,,,,,,,,,,,,,,,,,,,,,,,,,,,,,,,,,,,,,,,,,,,,,,,,,,,,,,,,,,,,,,,,,,,,,,,,,,,,,,,,,,,,,,,,,,,,,,,,,,,,,,,,,,,,,,,,,,,,,,,,,,
,,,,,,6174302b527b34205b0cc8f4,62c53a5c303bf8e23fd01cc9,2022-07-06_09h51.03.595,Colour_Asymmetry_Pilot,2022.1.3,Win32,59.87306909,62c50e9c1127f2cd403a315f,0,125,125,108,1,threeone,,,,,,,,,,,,,,,,,,,,,,,,,,,,,,,,,,,,,,,,,,,,,,,,,,,,,,,,,,,,,,,,,,,,,,,,,,,,,,,,,,,,,,,,,,,,,,,,,,,,,,,,,,,,,,,,,,,,,,,,,,,,,,,,,,,,,,,,,,,,,,,,,,,,,,,,,,,,,
,,,,,,6174302b527b34205b0cc8f4,62c53a5c303bf8e23fd01cc9,2022-07-06_09h51.03.595,Colour_Asymmetry_Pilot,2022.1.3,Win32,59.87306909,62c50e9c1127f2cd403a315f,0,126,126,105,1,onethree,,,,,,,,,,,,,,,,,,,,,,,,,,,,,,,,,,,,,,,,,,,,,,,,,,,,,,,,,,,,,,,,,,,,,,,,,,,,,,,,,,,,,,,,,,,,,,,,,,,,,,,,,,,,,,,,,,,,,,,,,,,,,,,,,,,,,,,,,,,,,,,,,,,,,,,,,,,,,
,,,,,,6174302b527b34205b0cc8f4,62c53a5c303bf8e23fd01cc9,2022-07-06_09h51.03.595,Colour_Asymmetry_Pilot,2022.1.3,Win32,59.87306909,62c50e9c1127f2cd403a315f,0,127,127,32,1,onetwo,,,,,,,,,,,,,,,,,,,,,,,,,,,,,,,,,,,,,,,,,,,,,,,,,,,,,,,,,,,,,,,,,,,,,,,,,,,,,,,,,,,,,,,,,,,,,,,,,,,,,,,,,,,,,,,,,,,,,,,,,,,,,,,,,,,,,,,,,,,,,,,,,,,,,,,,,,,,,
,,,,,,6174302b527b34205b0cc8f4,62c53a5c303bf8e23fd01cc9,2022-07-06_09h51.03.595,Colour_Asymmetry_Pilot,2022.1.3,Win32,59.87306909,62c50e9c1127f2cd403a315f,0,128,128,125,1,threefour,,,,,,,,,,,,,,,,,,,,,,,,,,,,,,,,,,,,,,,,,,,,,,,,,,,,,,,,,,,,,,,,,,,,,,,,,,,,,,,,,,,,,,,,,,,,,,,,,,,,,,,,,,,,,,,,,,,,,,,,,,,,,,,,,,,,,,,,,,,,,,,,,,,,,,,,,,,,,
,,,,,,6174302b527b34205b0cc8f4,62c53a5c303bf8e23fd01cc9,2022-07-06_09h51.03.595,Colour_Asymmetry_Pilot,2022.1.3,Win32,59.87306909,62c50e9c1127f2cd403a315f,0,129,129,96,1,onetwo,,,,,,,,,,,,,,,,,,,,,,,,,,,,,,,,,,,,,,,,,,,,,,,,,,,,,,,,,,,,,,,,,,,,,,,,,,,,,,,,,,,,,,,,,,,,,,,,,,,,,,,,,,,,,,,,,,,,,,,,,,,,,,,,,,,,,,,,,,,,,,,,,,,,,,,,,,,,,
,,,,,,6174302b527b34205b0cc8f4,62c53a5c303bf8e23fd01cc9,2022-07-06_09h51.03.595,Colour_Asymmetry_Pilot,2022.1.3,Win32,59.87306909,62c50e9c1127f2cd403a315f,0,130,130,92,1,threeone,,,,,,,,,,,,,,,,,,,,,,,,,,,,,,,,,,,,,,,,,,,,,,,,,,,,,,,,,,,,,,,,,,,,,,,,,,,,,,,,,,,,,,,,,,,,,,,,,,,,,,,,,,,,,,,,,,,,,,,,,,,,,,,,,,,,,,,,,,,,,,,,,,,,,,,,,,,,,
,,,,,,6174302b527b34205b0cc8f4,62c53a5c303bf8e23fd01cc9,2022-07-06_09h51.03.595,Colour_Asymmetry_Pilot,2022.1.3,Win32,59.87306909,62c50e9c1127f2cd403a315f,0,131,131,64,1,onetwo,,,,,,,,,,,,,,,,,,,,,,,,,,,,,,,,,,,,,,,,,,,,,,,,,,,,,,,,,,,,,,,,,,,,,,,,,,,,,,,,,,,,,,,,,,,,,,,,,,,,,,,,,,,,,,,,,,,,,,,,,,,,,,,,,,,,,,,,,,,,,,,,,,,,,,,,,,,,,
,,,,,,6174302b527b34205b0cc8f4,62c53a5c303bf8e23fd01cc9,2022-07-06_09h51.03.595,Colour_Asymmetry_Pilot,2022.1.3,Win32,59.87306909,62c50e9c1127f2cd403a315f,0,132,132,130,1,twoone,,,,,,,,,,,,,,,,,,,,,,,,,,,,,,,,,,,,,,,,,,,,,,,,,,,,,,,,,,,,,,,,,,,,,,,,,,,,,,,,,,,,,,,,,,,,,,,,,,,,,,,,,,,,,,,,,,,,,,,,,,,,,,,,,,,,,,,,,,,,,,,,,,,,,,,,,,,,,
,,,,,,6174302b527b34205b0cc8f4,62c53a5c303bf8e23fd01cc9,2022-07-06_09h51.03.595,Colour_Asymmetry_Pilot,2022.1.3,Win32,59.87306909,62c50e9c1127f2cd403a315f,0,133,133,14,1,fourtwo,,,,,,,,,,,,,,,,,,,,,,,,,,,,,,,,,,,,,,,,,,,,,,,,,,,,,,,,,,,,,,,,,,,,,,,,,,,,,,,,,,,,,,,,,,,,,,,,,,,,,,,,,,,,,,,,,,,,,,,,,,,,,,,,,,,,,,,,,,,,,,,,,,,,,,,,,,,,,
,,,,,,6174302b527b34205b0cc8f4,62c53a5c303bf8e23fd01cc9,2022-07-06_09h51.03.595,Colour_Asymmetry_Pilot,2022.1.3,Win32,59.87306909,62c50e9c1127f2cd403a315f,0,134,134,133,1,threefour,,,,,,,,,,,,,,,,,,,,,,,,,,,,,,,,,,,,,,,,,,,,,,,,,,,,,,,,,,,,,,,,,,,,,,,,,,,,,,,,,,,,,,,,,,,,,,,,,,,,,,,,,,,,,,,,,,,,,,,,,,,,,,,,,,,,,,,,,,,,,,,,,,,,,,,,,,,,,
,,,,,,6174302b527b34205b0cc8f4,62c53a5c303bf8e23fd01cc9,2022-07-06_09h51.03.595,Colour_Asymmetry_Pilot,2022.1.3,Win32,59.87306909,62c50e9c1127f2cd403a315f,0,135,135,143,1,fourthree,,,,,,,,,,,,,,,,,,,,,,,,,,,,,,,,,,,,,,,,,,,,,,,,,,,,,,,,,,,,,,,,,,,,,,,,,,,,,,,,,,,,,,,,,,,,,,,,,,,,,,,,,,,,,,,,,,,,,,,,,,,,,,,,,,,,,,,,,,,,,,,,,,,,,,,,,,,,,
,,,,,,6174302b527b34205b0cc8f4,62c53a5c303bf8e23fd01cc9,2022-07-06_09h51.03.595,Colour_Asymmetry_Pilot,2022.1.3,Win32,59.87306909,62c50e9c1127f2cd403a315f,0,136,136,135,1,fourthree,,,,,,,,,,,,,,,,,,,,,,,,,,,,,,,,,,,,,,,,,,,,,,,,,,,,,,,,,,,,,,,,,,,,,,,,,,,,,,,,,,,,,,,,,,,,,,,,,,,,,,,,,,,,,,,,,,,,,,,,,,,,,,,,,,,,,,,,,,,,,,,,,,,,,,,,,,,,,
,,,,,,6174302b527b34205b0cc8f4,62c53a5c303bf8e23fd01cc9,2022-07-06_09h51.03.595,Colour_Asymmetry_Pilot,2022.1.3,Win32,59.87306909,62c50e9c1127f2cd403a315f,0,137,137,83,1,twofour,,,,,,,,,,,,,,,,,,,,,,,,,,,,,,,,,,,,,,,,,,,,,,,,,,,,,,,,,,,,,,,,,,,,,,,,,,,,,,,,,,,,,,,,,,,,,,,,,,,,,,,,,,,,,,,,,,,,,,,,,,,,,,,,,,,,,,,,,,,,,,,,,,,,,,,,,,,,,
,,,,,,6174302b527b34205b0cc8f4,62c53a5c303bf8e23fd01cc9,2022-07-06_09h51.03.595,Colour_Asymmetry_Pilot,2022.1.3,Win32,59.87306909,62c50e9c1127f2cd403a315f,0,138,138,113,1,onethree,,,,,,,,,,,,,,,,,,,,,,,,,,,,,,,,,,,,,,,,,,,,,,,,,,,,,,,,,,,,,,,,,,,,,,,,,,,,,,,,,,,,,,,,,,,,,,,,,,,,,,,,,,,,,,,,,,,,,,,,,,,,,,,,,,,,,,,,,,,,,,,,,,,,,,,,,,,,,
,,,,,,6174302b527b34205b0cc8f4,62c53a5c303bf8e23fd01cc9,2022-07-06_09h51.03.595,Colour_Asymmetry_Pilot,2022.1.3,Win32,59.87306909,62c50e9c1127f2cd403a315f,0,139,139,55,1,fourthree,,,,,,,,,,,,,,,,,,,,,,,,,,,,,,,,,,,,,,,,,,,,,,,,,,,,,,,,,,,,,,,,,,,,,,,,,,,,,,,,,,,,,,,,,,,,,,,,,,,,,,,,,,,,,,,,,,,,,,,,,,,,,,,,,,,,,,,,,,,,,,,,,,,,,,,,,,,,,
,,,,,,6174302b527b34205b0cc8f4,62c53a5c303bf8e23fd01cc9,2022-07-06_09h51.03.595,Colour_Asymmetry_Pilot,2022.1.3,Win32,59.87306909,62c50e9c1127f2cd403a315f,0,140,140,157,1,threefour,,,,,,,,,,,,,,,,,,,,,,,,,,,,,,,,,,,,,,,,,,,,,,,,,,,,,,,,,,,,,,,,,,,,,,,,,,,,,,,,,,,,,,,,,,,,,,,,,,,,,,,,,,,,,,,,,,,,,,,,,,,,,,,,,,,,,,,,,,,,,,,,,,,,,,,,,,,,,
,,,,,,6174302b527b34205b0cc8f4,62c53a5c303bf8e23fd01cc9,2022-07-06_09h51.03.595,Colour_Asymmetry_Pilot,2022.1.3,Win32,59.87306909,62c50e9c1127f2cd403a315f,0,141,141,50,1,twoone,,,,,,,,,,,,,,,,,,,,,,,,,,,,,,,,,,,,,,,,,,,,,,,,,,,,,,,,,,,,,,,,,,,,,,,,,,,,,,,,,,,,,,,,,,,,,,,,,,,,,,,,,,,,,,,,,,,,,,,,,,,,,,,,,,,,,,,,,,,,,,,,,,,,,,,,,,,,,
,,,,,,6174302b527b34205b0cc8f4,62c53a5c303bf8e23fd01cc9,2022-07-06_09h51.03.595,Colour_Asymmetry_Pilot,2022.1.3,Win32,59.87306909,62c50e9c1127f2cd403a315f,0,142,142,62,1,fourtwo,,,,,,,,,,,,,,,,,,,,,,,,,,,,,,,,,,,,,,,,,,,,,,,,,,,,,,,,,,,,,,,,,,,,,,,,,,,,,,,,,,,,,,,,,,,,,,,,,,,,,,,,,,,,,,,,,,,,,,,,,,,,,,,,,,,,,,,,,,,,,,,,,,,,,,,,,,,,,
,,,,,,6174302b527b34205b0cc8f4,62c53a5c303bf8e23fd01cc9,2022-07-06_09h51.03.595,Colour_Asymmetry_Pilot,2022.1.3,Win32,59.87306909,62c50e9c1127f2cd403a315f,0,143,143,145,1,onethree,,,,,,,,,,,,,,,,,,,,,,,,,,,,,,,,,,,,,,,,,,,,,,,,,,,,,,,,,,,,,,,,,,,,,,,,,,,,,,,,,,,,,,,,,,,,,,,,,,,,,,,,,,,,,,,,,,,,,,,,,,,,,,,,,,,,,,,,,,,,,,,,,,,,,,,,,,,,,
,,,,,,6174302b527b34205b0cc8f4,62c53a5c303bf8e23fd01cc9,2022-07-06_09h51.03.595,Colour_Asymmetry_Pilot,2022.1.3,Win32,59.87306909,62c50e9c1127f2cd403a315f,0,144,144,3,1,twofour,,,,,,,,,,,,,,,,,,,,,,,,,,,,,,,,,,,,,,,,,,,,,,,,,,,,,,,,,,,,,,,,,,,,,,,,,,,,,,,,,,,,,,,,,,,,,,,,,,,,,,,,,,,,,,,,,,,,,,,,,,,,,,,,,,,,,,,,,,,,,,,,,,,,,,,,,,,,,
,,,,,,6174302b527b34205b0cc8f4,62c53a5c303bf8e23fd01cc9,2022-07-06_09h51.03.595,Colour_Asymmetry_Pilot,2022.1.3,Win32,59.87306909,62c50e9c1127f2cd403a315f,0,145,145,72,1,onetwo,,,,,,,,,,,,,,,,,,,,,,,,,,,,,,,,,,,,,,,,,,,,,,,,,,,,,,,,,,,,,,,,,,,,,,,,,,,,,,,,,,,,,,,,,,,,,,,,,,,,,,,,,,,,,,,,,,,,,,,,,,,,,,,,,,,,,,,,,,,,,,,,,,,,,,,,,,,,,
,,,,,,6174302b527b34205b0cc8f4,62c53a5c303bf8e23fd01cc9,2022-07-06_09h51.03.595,Colour_Asymmetry_Pilot,2022.1.3,Win32,59.87306909,62c50e9c1127f2cd403a315f,0,146,146,46,1,fourtwo,,,,,,,,,,,,,,,,,,,,,,,,,,,,,,,,,,,,,,,,,,,,,,,,,,,,,,,,,,,,,,,,,,,,,,,,,,,,,,,,,,,,,,,,,,,,,,,,,,,,,,,,,,,,,,,,,,,,,,,,,,,,,,,,,,,,,,,,,,,,,,,,,,,,,,,,,,,,,
,,,,,,6174302b527b34205b0cc8f4,62c53a5c303bf8e23fd01cc9,2022-07-06_09h51.03.595,Colour_Asymmetry_Pilot,2022.1.3,Win32,59.87306909,62c50e9c1127f2cd403a315f,0,147,147,81,1,onethree,,,,,,,,,,,,,,,,,,,,,,,,,,,,,,,,,,,,,,,,,,,,,,,,,,,,,,,,,,,,,,,,,,,,,,,,,,,,,,,,,,,,,,,,,,,,,,,,,,,,,,,,,,,,,,,,,,,,,,,,,,,,,,,,,,,,,,,,,,,,,,,,,,,,,,,,,,,,,
,,,,,,6174302b527b34205b0cc8f4,62c53a5c303bf8e23fd01cc9,2022-07-06_09h51.03.595,Colour_Asymmetry_Pilot,2022.1.3,Win32,59.87306909,62c50e9c1127f2cd403a315f,0,148,148,118,1,fourtwo,,,,,,,,,,,,,,,,,,,,,,,,,,,,,,,,,,,,,,,,,,,,,,,,,,,,,,,,,,,,,,,,,,,,,,,,,,,,,,,,,,,,,,,,,,,,,,,,,,,,,,,,,,,,,,,,,,,,,,,,,,,,,,,,,,,,,,,,,,,,,,,,,,,,,,,,,,,,,
,,,,,,6174302b527b34205b0cc8f4,62c53a5c303bf8e23fd01cc9,2022-07-06_09h51.03.595,Colour_Asymmetry_Pilot,2022.1.3,Win32,59.87306909,62c50e9c1127f2cd403a315f,0,149,149,111,1,fourthree,,,,,,,,,,,,,,,,,,,,,,,,,,,,,,,,,,,,,,,,,,,,,,,,,,,,,,,,,,,,,,,,,,,,,,,,,,,,,,,,,,,,,,,,,,,,,,,,,,,,,,,,,,,,,,,,,,,,,,,,,,,,,,,,,,,,,,,,,,,,,,,,,,,,,,,,,,,,,
,,,,,,6174302b527b34205b0cc8f4,62c53a5c303bf8e23fd01cc9,2022-07-06_09h51.03.595,Colour_Asymmetry_Pilot,2022.1.3,Win32,59.87306909,62c50e9c1127f2cd403a315f,0,150,150,58,1,twoone,,,,,,,,,,,,,,,,,,,,,,,,,,,,,,,,,,,,,,,,,,,,,,,,,,,,,,,,,,,,,,,,,,,,,,,,,,,,,,,,,,,,,,,,,,,,,,,,,,,,,,,,,,,,,,,,,,,,,,,,,,,,,,,,,,,,,,,,,,,,,,,,,,,,,,,,,,,,,
,,,,,,6174302b527b34205b0cc8f4,62c53a5c303bf8e23fd01cc9,2022-07-06_09h51.03.595,Colour_Asymmetry_Pilot,2022.1.3,Win32,59.87306909,62c50e9c1127f2cd403a315f,0,151,151,30,1,fourtwo,,,,,,,,,,,,,,,,,,,,,,,,,,,,,,,,,,,,,,,,,,,,,,,,,,,,,,,,,,,,,,,,,,,,,,,,,,,,,,,,,,,,,,,,,,,,,,,,,,,,,,,,,,,,,,,,,,,,,,,,,,,,,,,,,,,,,,,,,,,,,,,,,,,,,,,,,,,,,
,,,,,,6174302b527b34205b0cc8f4,62c53a5c303bf8e23fd01cc9,2022-07-06_09h51.03.595,Colour_Asymmetry_Pilot,2022.1.3,Win32,59.87306909,62c50e9c1127f2cd403a315f,0,152,152,0,1,onetwo,,,,,,,,,,,,,,,,,,,,,,,,,,,,,,,,,,,,,,,,,,,,,,,,,,,,,,,,,,,,,,,,,,,,,,,,,,,,,,,,,,,,,,,,,,,,,,,,,,,,,,,,,,,,,,,,,,,,,,,,,,,,,,,,,,,,,,,,,,,,,,,,,,,,,,,,,,,,,
,,,,,,6174302b527b34205b0cc8f4,62c53a5c303bf8e23fd01cc9,2022-07-06_09h51.03.595,Colour_Asymmetry_Pilot,2022.1.3,Win32,59.87306909,62c50e9c1127f2cd403a315f,0,153,153,155,1,twofour,,,,,,,,,,,,,,,,,,,,,,,,,,,,,,,,,,,,,,,,,,,,,,,,,,,,,,,,,,,,,,,,,,,,,,,,,,,,,,,,,,,,,,,,,,,,,,,,,,,,,,,,,,,,,,,,,,,,,,,,,,,,,,,,,,,,,,,,,,,,,,,,,,,,,,,,,,,,,
,,,,,,6174302b527b34205b0cc8f4,62c53a5c303bf8e23fd01cc9,2022-07-06_09h51.03.595,Colour_Asymmetry_Pilot,2022.1.3,Win32,59.87306909,62c50e9c1127f2cd403a315f,0,154,154,5,1,threefour,,,,,,,,,,,,,,,,,,,,,,,,,,,,,,,,,,,,,,,,,,,,,,,,,,,,,,,,,,,,,,,,,,,,,,,,,,,,,,,,,,,,,,,,,,,,,,,,,,,,,,,,,,,,,,,,,,,,,,,,,,,,,,,,,,,,,,,,,,,,,,,,,,,,,,,,,,,,,
,,,,,,6174302b527b34205b0cc8f4,62c53a5c303bf8e23fd01cc9,2022-07-06_09h51.03.595,Colour_Asymmetry_Pilot,2022.1.3,Win32,59.87306909,62c50e9c1127f2cd403a315f,0,155,155,151,1,fourthree,,,,,,,,,,,,,,,,,,,,,,,,,,,,,,,,,,,,,,,,,,,,,,,,,,,,,,,,,,,,,,,,,,,,,,,,,,,,,,,,,,,,,,,,,,,,,,,,,,,,,,,,,,,,,,,,,,,,,,,,,,,,,,,,,,,,,,,,,,,,,,,,,,,,,,,,,,,,,
,,,,,,6174302b527b34205b0cc8f4,62c53a5c303bf8e23fd01cc9,2022-07-06_09h51.03.595,Colour_Asymmetry_Pilot,2022.1.3,Win32,59.87306909,62c50e9c1127f2cd403a315f,0,156,156,18,1,twoone,,,,,,,,,,,,,,,,,,,,,,,,,,,,,,,,,,,,,,,,,,,,,,,,,,,,,,,,,,,,,,,,,,,,,,,,,,,,,,,,,,,,,,,,,,,,,,,,,,,,,,,,,,,,,,,,,,,,,,,,,,,,,,,,,,,,,,,,,,,,,,,,,,,,,,,,,,,,,
,,,,,,6174302b527b34205b0cc8f4,62c53a5c303bf8e23fd01cc9,2022-07-06_09h51.03.595,Colour_Asymmetry_Pilot,2022.1.3,Win32,59.87306909,62c50e9c1127f2cd403a315f,0,157,157,91,1,twofour,,,,,,,,,,,,,,,,,,,,,,,,,,,,,,,,,,,,,,,,,,,,,,,,,,,,,,,,,,,,,,,,,,,,,,,,,,,,,,,,,,,,,,,,,,,,,,,,,,,,,,,,,,,,,,,,,,,,,,,,,,,,,,,,,,,,,,,,,,,,,,,,,,,,,,,,,,,,,
,,,,,,6174302b527b34205b0cc8f4,62c53a5c303bf8e23fd01cc9,2022-07-06_09h51.03.595,Colour_Asymmetry_Pilot,2022.1.3,Win32,59.87306909,62c50e9c1127f2cd403a315f,0,158,158,69,1,threefour,,,,,,,,,,,,,,,,,,,,,,,,,,,,,,,,,,,,,,,,,,,,,,,,,,,,,,,,,,,,,,,,,,,,,,,,,,,,,,,,,,,,,,,,,,,,,,,,,,,,,,,,,,,,,,,,,,,,,,,,,,,,,,,,,,,,,,,,,,,,,,,,,,,,,,,,,,,,,
,,,,,,6174302b527b34205b0cc8f4,62c53a5c303bf8e23fd01cc9,2022-07-06_09h51.03.595,Colour_Asymmetry_Pilot,2022.1.3,Win32,59.87306909,62c50e9c1127f2cd403a315f,0,159,159,107,1,twofour,,,,,,,,,,,,,,,,,,,,,,,,,,,,,,,,,,,,,,,,,,,,,,,,,,,,,,,,,,,,,,,,,,,,,,,,,,,,,,,,,,,,,,,,,,,,,,,,,,,,,,,,,,,,,,,,,,,,,,,,,,,,,,,,,,,,,,,,,,,,,,,,,,,,,,,,,,,,,
,,,,,,6174302b527b34205b0cc8f4,62c53a5c303bf8e23fd01cc9,2022-07-06_09h51.03.595,Colour_Asymmetry_Pilot,2022.1.3,Win32,59.87306909,62c50e9c1127f2cd403a315f,0,160,160,82,1,twoone,,,,,,,,,,,,,,,,,,,,,,,,,,,,,,,,,,,,,,,,,,,,,,,,,,,,,,,,,,,,,,,,,,,,,,,,,,,,,,,,,,,,,,,,,,,,,,,,,,,,,,,,,,,,,,,,,,,,,,,,,,,,,,,,,,,,,,,,,,,,,,,,,,,,,,,,,,,,,
,,,,,,6174302b527b34205b0cc8f4,62c53a5c303bf8e23fd01cc9,2022-07-06_09h51.03.595,Colour_Asymmetry_Pilot,2022.1.3,Win32,59.87306909,62c50e9c1127f2cd403a315f,0,161,161,63,1,fourthree,,,,,,,,,,,,,,,,,,,,,,,,,,,,,,,,,,,,,,,,,,,,,,,,,,,,,,,,,,,,,,,,,,,,,,,,,,,,,,,,,,,,,,,,,,,,,,,,,,,,,,,,,,,,,,,,,,,,,,,,,,,,,,,,,,,,,,,,,,,,,,,,,,,,,,,,,,,,,
,,,,,,6174302b527b34205b0cc8f4,62c53a5c303bf8e23fd01cc9,2022-07-06_09h51.03.595,Colour_Asymmetry_Pilot,2022.1.3,Win32,59.87306909,62c50e9c1127f2cd403a315f,,,,,,,space,11.0187,space,78.1809,space,78.5502,space,34.4399,space,92.892,space,325.8819,"[-0.2942,-0.7648,-0.7492000000000001]",threefour,"[1,0.12939999999999996,-1]",4,17.1312,42,100.5,1,0,0,response1disk_5,-6,5.5,1,0,0,rectangle_8,-6,5.5,1,0,0,1,-6,5.5,1,0,0,0,0,0,0,1,,,,,,,,,,,,,,,,,,,,,,,,,,,,,,,,,,,,,,,,,,,,,,,,,,,,,,,,,,,,,,,,,,,,,,,,,,,,,,,,,,,,,,,,,,,,,,,,,,,,,,,,,,,,,,,,
,,,,,,6174302b527b34205b0cc8f4,62c53a5c303bf8e23fd01cc9,2022-07-06_09h51.03.595,Colour_Asymmetry_Pilot,2022.1.3,Win32,59.87306909,62c50e9c1127f2cd403a315f,,,,,,,,,,,,,,,,,,,"[0.22340000000000004,-0.9296,-0.7884]",onetwo,"[0.37240000000000006,-0.050999999999999934,-0.5216]",-4,17.5843,-50,71.5,1,0,0,response7disk_5,-3,9.5,1,0,0,rectangle_8,-3,9.5,1,0,0,1,-3,9.5,1,0,0,1,0,1,0,1,,,,,,,,,,,,,,,,,,,,,,,,,,,,,,,,,,,,,,,,,,,,,,,,,,,,,,,,,,,,,,,,,,,,,,,,,,,,,,,,,,,,,,,,,,,,,,,,,,,,,,,,,,,,,,,,
,,,,,,6174302b527b34205b0cc8f4,62c53a5c303bf8e23fd01cc9,2022-07-06_09h51.03.595,Colour_Asymmetry_Pilot,2022.1.3,Win32,59.87306909,62c50e9c1127f2cd403a315f,,,,,,,,,,,,,,,,,,,"[-0.2942,-0.7648,-0.7492000000000001]",twoone,"[-0.5922000000000001,-0.7492000000000001,-0.5296000000000001]",-4,4.078799999,-52,81.5,1,0,0,response7disk_5,-4,0.5,1,0,0,rectangle_8,39,-76.5,1,0,0,1,-5,9.5,1,0,0,2,0,2,0,1,response3disk_7,4,rectangle_4,,,,,,,,,,,,,,,,,,,,,,,,,,,,,,,,,,,,,,,,,,,,,,,,,,,,,,,,,,,,,,,,,,,,,,,,,,,,,,,,,,,,,,,,,,,,,,,,,,,,,,,,,,,,,
,,,,,,6174302b527b34205b0cc8f4,62c53a5c303bf8e23fd01cc9,2022-07-06_09h51.03.595,Colour_Asymmetry_Pilot,2022.1.3,Win32,59.87306909,62c50e9c1127f2cd403a315f,,,,,,,,,,,,,,,,,,,"[0.7018,0.7176,0.6155999999999999]",twoone,"[0.34099999999999997,0.5841999999999998,-0.9844]",-4,1.737400001,-33,81.5,1,0,0,response7disk_5,-16,4.5,1,0,0,rectangle_8,51,-68.5,1,0,0,1,-8,2.5,1,0,0,3,0,3,0,1,response3disk_7,4,rectangle_4,,,,,,,,,,,,,,,,,,,,,,,,,,,,,,,,,,,,,,,,,,,,,,,,,,,,,,,,,,,,,,,,,,,,,,,,,,,,,,,,,,,,,,,,,,,,,,,,,,,,,,,,,,,,,
,,,,,,6174302b527b34205b0cc8f4,62c53a5c303bf8e23fd01cc9,2022-07-06_09h51.03.595,Colour_Asymmetry_Pilot,2022.1.3,Win32,59.87306909,62c50e9c1127f2cd403a315f,,,,,,,,,,,,,,,,,,,"[0.04299999999999993,0.16060000000000008,-0.6628000000000001]",fourthree,"[0.3802000000000001,0.19199999999999995,-0.6394]",-4,7.4707,-40,93.5,1,0,0,response7disk_5,-3,5.5,1,0,0,rectangle_8,-3,5.5,1,0,0,1,-3,5.5,1,0,0,4,0,4,0,1,,,,,,,,,,,,,,,,,,,,,,,,,,,,,,,,,,,,,,,,,,,,,,,,,,,,,,,,,,,,,,,,,,,,,,,,,,,,,,,,,,,,,,,,,,,,,,,,,,,,,,,,,,,,,,,,
,,,,,,6174302b527b34205b0cc8f4,62c53a5c303bf8e23fd01cc9,2022-07-06_09h51.03.595,Colour_Asymmetry_Pilot,2022.1.3,Win32,59.87306909,62c50e9c1127f2cd403a315f,,,,,,,,,,,,,,,,,,,"[-0.17659999999999998,-0.2864,-0.8354]",onethree,"[0.5449999999999999,-0.31000000000000005,-0.0354000000000001]",-4,1.6049,-38,95.5,1,0,0,response7disk_5,-4,3.5,1,0,0,rectangle_8,-4,3.5,1,0,0,1,-4,3.5,1,0,0,5,0,5,0,1,,,,,,,,,,,,,,,,,,,,,,,,,,,,,,,,,,,,,,,,,,,,,,,,,,,,,,,,,,,,,,,,,,,,,,,,,,,,,,,,,,,,,,,,,,,,,,,,,,,,,,,,,,,,,,,,
,,,,,,6174302b527b34205b0cc8f4,62c53a5c303bf8e23fd01cc9,2022-07-06_09h51.03.595,Colour_Asymmetry_Pilot,2022.1.3,Win32,59.87306909,62c50e9c1127f2cd403a315f,,,,,,,,,,,,,,,,,,,"[0.11359999999999992,0.6312,0.5213999999999999]",threefour,"[-0.9688,-0.7412000000000001,-0.4902000000000001]",4,4.9586,49,80.5,1,0,0,response1disk_5,0,6.5,1,0,0,rectangle_8,0,6.5,1,0,0,1,0,6.5,1,0,0,6,0,6,0,1,,,,,,,,,,,,,,,,,,,,,,,,,,,,,,,,,,,,,,,,,,,,,,,,,,,,,,,,,,,,,,,,,,,,,,,,,,,,,,,,,,,,,,,,,,,,,,,,,,,,,,,,,,,,,,,,
,,,,,,6174302b527b34205b0cc8f4,62c53a5c303bf8e23fd01cc9,2022-07-06_09h51.03.595,Colour_Asymmetry_Pilot,2022.1.3,Win32,59.87306909,62c50e9c1127f2cd403a315f,,,,,,,,,,,,,,,,,,,,twoone,,-4,5.0654,,,,,,,,,,,,,,,,,,,,,,,,,,,,,,,,space,5.1179,"[0.7018,0.7802,-0.16079999999999994]","[-0.6,0.16860000000000008,0.44300000000000006]",-26,88.5,1,0,0,response7disk,5,-3.5,1,0,0,rectangle,5,-3.5,1,0,0,,1,0.002599999,0,5,-3.5,1,0,0,0,0,0,141,1,60,second,,,,,,,,,,,,,,,,,,,,,,,,,,,,,,,,,,,,,,,,,,,,,,,,,,,,,,,,,,,,,,,,,,,,,,,,
,,,,,,6174302b527b34205b0cc8f4,62c53a5c303bf8e23fd01cc9,2022-07-06_09h51.03.595,Colour_Asymmetry_Pilot,2022.1.3,Win32,59.87306909,62c50e9c1127f2cd403a315f,,,,,,,,,,,,,,,,,,,,fourthree,,-4,3.7313,,,,,,,,,,,,,,,,,,,,,,,,,,,,,,,,,,"[0.3802000000000001,0.19199999999999995,-0.6394]","[-0.20799999999999996,-0.655,-0.01980000000000004]",-42,102.5,1,0,0,response7disk,12,-6.5,1,0,0,rectangle,12,-6.5,1,0,0,,3,0.003599999,0,12,-6.5,1,0,0,0,1,1,27,1,27,first,,,,,,,,,,,,,,,,,,,,,,,,,,,,,,,,,,,,,,,,,,,,,,,,,,,,,,,,,,,,,,,,,,,,,,,,
,,,,,,6174302b527b34205b0cc8f4,62c53a5c303bf8e23fd01cc9,2022-07-06_09h51.03.595,Colour_Asymmetry_Pilot,2022.1.3,Win32,59.87306909,62c50e9c1127f2cd403a315f,,,,,,,,,,,,,,,,,,,,fourthree,,-4,1.636,,,,,,,,,,,,,,,,,,,,,,,,,,,,,,,,,,"[-0.6942,-0.7648,-0.12959999999999994]","[0.34099999999999997,0.5841999999999998,-0.9844]",-38,68.5,1,0,0,response7disk,-11,4.5,1,0,0,rectangle,-11,4.5,1,0,0,,2,0.0023,0,-11,4.5,1,0,0,0,2,2,115,1,34,second,,,,,,,,,,,,,,,,,,,,,,,,,,,,,,,,,,,,,,,,,,,,,,,,,,,,,,,,,,,,,,,,,,,,,,,,
,,,,,,6174302b527b34205b0cc8f4,62c53a5c303bf8e23fd01cc9,2022-07-06_09h51.03.595,Colour_Asymmetry_Pilot,2022.1.3,Win32,59.87306909,62c50e9c1127f2cd403a315f,,,,,,,,,,,,,,,,,,,,threeone,,-4,2.3896,,,,,,,,,,,,,,,,,,,,,,,,,,,,,,,,,,"[-0.6706000000000001,-0.6157999999999999,-0.6786]","[0.9372,0.20779999999999998,0.2704]",-54,86.5,1,0,0,response7disk,-11,4.5,1,0,0,rectangle,-11,4.5,1,0,0,,2,0.0007,0,-11,4.5,1,0,0,0,3,3,22,1,22,first,,,,,,,,,,,,,,,,,,,,,,,,,,,,,,,,,,,,,,,,,,,,,,,,,,,,,,,,,,,,,,,,,,,,,,,,
,,,,,,6174302b527b34205b0cc8f4,62c53a5c303bf8e23fd01cc9,2022-07-06_09h51.03.595,Colour_Asymmetry_Pilot,2022.1.3,Win32,59.87306909,62c50e9c1127f2cd403a315f,,,,,,,,,,,,,,,,,,,,fourtwo,,-4,1.8,,,,,,,,,,,,,,,,,,,,,,,,,,,,,,,,,,"[-0.9296,-0.12959999999999994,-0.043199999999999905]","[-0.09019999999999995,0.44300000000000006,0.5371999999999999]",-38,76.5,1,0,0,response7disk,-7,7.5,1,0,0,rectangle,91,38.5,1,0,0,3,3,4.0769,1,-7,-4.5,1,0,0,0,4,4,159,1,78,second,response1disk_3,rectangle,,,,,,,,,,,,,,,,,,,,,,,,,,,,,,,,,,,,,,,,,,,,,,,,,,,,,,,,,,,,,,,,,,,,,,
,,,,,,6174302b527b34205b0cc8f4,62c53a5c303bf8e23fd01cc9,2022-07-06_09h51.03.595,Colour_Asymmetry_Pilot,2022.1.3,Win32,59.87306909,62c50e9c1127f2cd403a315f,,,,,,,,,,,,,,,,,,,,twoone,,-4,1.079,,,,,,,,,,,,,,,,,,,,,,,,,,,,,,,,,,"[-0.5688,-0.08239999999999992,-0.1844]","[-0.34920000000000007,-0.702,-0.5216]",-50,72.5,1,0,0,response7disk,6,1.5,1,0,0,rectangle,6,1.5,1,0,0,3,2,0.0025,0,6,1.5,1,0,0,0,5,5,90,1,9,second,,,,,,,,,,,,,,,,,,,,,,,,,,,,,,,,,,,,,,,,,,,,,,,,,,,,,,,,,,,,,,,,,,,,,,,,
,,,,,,6174302b527b34205b0cc8f4,62c53a5c303bf8e23fd01cc9,2022-07-06_09h51.03.595,Colour_Asymmetry_Pilot,2022.1.3,Win32,59.87306909,62c50e9c1127f2cd403a315f,,,,,,,,,,,,,,,,,,,,onetwo,,-4,5.0907,,,,,,,,,,,,,,,,,,,,,,,,,,,,,,,,,,"[-0.0040000000000000036,0.02739999999999987,-0.08239999999999992]","[-0.9688,-0.38039999999999996,-0.41979999999999995]",-33,92.5,1,0,0,response7disk,15,3.5,1,0,0,rectangle,15,3.5,1,0,0,3,2,0.0003,0,15,3.5,1,0,0,0,6,6,68,1,68,first,,,,,,,,,,,,,,,,,,,,,,,,,,,,,,,,,,,,,,,,,,,,,,,,,,,,,,,,,,,,,,,,,,,,,,,,
,,,,,,6174302b527b34205b0cc8f4,62c53a5c303bf8e23fd01cc9,2022-07-06_09h51.03.595,Colour_Asymmetry_Pilot,2022.1.3,Win32,59.87306909,62c50e9c1127f2cd403a315f,,,,,,,,,,,,,,,,,,,,twofour,,4,0.9832,,,,,,,,,,,,,,,,,,,,,,,,,,,,,,,,,,"[0.23120000000000007,-0.7726,-0.34120000000000006]","[0.23120000000000007,-0.7726,-0.34120000000000006]",50,92.5,1,0,0,response1disk,14,3.5,1,0,0,rectangle,14,3.5,1,0,0,3,2,0.0005,0,14,3.5,1,0,0,0,7,7,79,1,79,first,,,,,,,,,,,,,,,,,,,,,,,,,,,,,,,,,,,,,,,,,,,,,,,,,,,,,,,,,,,,,,,,,,,,,,,,
,,,,,,6174302b527b34205b0cc8f4,62c53a5c303bf8e23fd01cc9,2022-07-06_09h51.03.595,Colour_Asymmetry_Pilot,2022.1.3,Win32,59.87306909,62c50e9c1127f2cd403a315f,,,,,,,,,,,,,,,,,,,,onethree,,-4,1.0689,,,,,,,,,,,,,,,,,,,,,,,,,,,,,,,,,,"[0.12939999999999996,-0.2864,0.3253999999999999]","[-0.9688,-0.38039999999999996,-0.41979999999999995]",-36,107.5,1,0,0,response7disk,8,0.5,1,0,0,rectangle,8,0.5,1,0,0,3,2,0.0007,0,8,0.5,1,0,0,0,8,8,93,1,12,second,,,,,,,,,,,,,,,,,,,,,,,,,,,,,,,,,,,,,,,,,,,,,,,,,,,,,,,,,,,,,,,,,,,,,,,,
,,,,,,6174302b527b34205b0cc8f4,62c53a5c303bf8e23fd01cc9,2022-07-06_09h51.03.595,Colour_Asymmetry_Pilot,2022.1.3,Win32,59.87306909,62c50e9c1127f2cd403a315f,,,,,,,,,,,,,,,,,,,,threeone,,-4,0.752400001,,,,,,,,,,,,,,,,,,,,,,,,,,,,,,,,,,"[0.9842,0.7409999999999999,-0.6628000000000001]","[0.18419999999999992,-0.4276,-0.404]",-42,85.5,1,0,0,response7disk,6,-3.5,1,0,0,rectangle,98,33.5,1,0,0,3,3,4.342299999,1,0,5.5,1,0,0,0,9,9,161,1,80,second,response1disk_3,rectangle,,,,,,,,,,,,,,,,,,,,,,,,,,,,,,,,,,,,,,,,,,,,,,,,,,,,,,,,,,,,,,,,,,,,,,
,,,,,,6174302b527b34205b0cc8f4,62c53a5c303bf8e23fd01cc9,2022-07-06_09h51.03.595,Colour_Asymmetry_Pilot,2022.1.3,Win32,59.87306909,62c50e9c1127f2cd403a315f,,,,,,,,,,,,,,,,,,,,fourtwo,,-4,3.3995,,,,,,,,,,,,,,,,,,,,,,,,,,,,,,,,,,"[0.6547999999999998,-0.043199999999999905,-0.011800000000000033]","[0.9686000000000001,0.5763999999999998,0.11359999999999992]",-46,100.5,1,0,0,response7disk,-3,-5.5,1,0,0,rectangle,-3,-5.5,1,0,0,3,1,0.0015,0,-3,-5.5,1,0,0,0,10,10,106,1,25,second,,,,,,,,,,,,,,,,,,,,,,,,,,,,,,,,,,,,,,,,,,,,,,,,,,,,,,,,,,,,,,,,,,,,,,,,
,,,,,,6174302b527b34205b0cc8f4,62c53a5c303bf8e23fd01cc9,2022-07-06_09h51.03.595,Colour_Asymmetry_Pilot,2022.1.3,Win32,59.87306909,62c50e9c1127f2cd403a315f,,,,,,,,,,,,,,,,,,,,twofour,,-4,1.0873,,,,,,,,,,,,,,,,,,,,,,,,,,,,,,,,,,"[0.22340000000000004,-0.9296,-0.7884]","[0.9842,0.7409999999999999,-0.6628000000000001]",-37,102.5,1,0,0,response7disk,-3,5.5,1,0,0,rectangle,-3,5.5,1,0,0,3,3,0.0014,0,-3,5.5,1,0,0,0,11,11,147,1,66,second,,,,,,,,,,,,,,,,,,,,,,,,,,,,,,,,,,,,,,,,,,,,,,,,,,,,,,,,,,,,,,,,,,,,,,,,
,,,,,,6174302b527b34205b0cc8f4,62c53a5c303bf8e23fd01cc9,2022-07-06_09h51.03.595,Colour_Asymmetry_Pilot,2022.1.3,Win32,59.87306909,62c50e9c1127f2cd403a315f,,,,,,,,,,,,,,,,,,,,fourthree,,4,0.6795,,,,,,,,,,,,,,,,,,,,,,,,,,,,,,,,,,"[0.05879999999999996,0.2784,0.5841999999999998]","[-0.10599999999999998,-0.10599999999999998,0.5841999999999998]",40,112.5,1,0,0,response1disk,19,1.5,1,0,0,rectangle,19,1.5,1,0,0,3,3,0.001099999,0,19,1.5,1,0,0,0,12,12,51,1,51,first,,,,,,,,,,,,,,,,,,,,,,,,,,,,,,,,,,,,,,,,,,,,,,,,,,,,,,,,,,,,,,,,,,,,,,,,
,,,,,,6174302b527b34205b0cc8f4,62c53a5c303bf8e23fd01cc9,2022-07-06_09h51.03.595,Colour_Asymmetry_Pilot,2022.1.3,Win32,59.87306909,62c50e9c1127f2cd403a315f,,,,,,,,,,,,,,,,,,,,threefour,,-4,0.916200001,,,,,,,,,,,,,,,,,,,,,,,,,,,,,,,,,,"[-0.24719999999999998,0.5213999999999999,-0.12959999999999994]","[-0.09019999999999995,0.44300000000000006,0.5371999999999999]",-41,84.5,1,0,0,response7disk,-16,7.5,1,0,0,rectangle,-16,7.5,1,0,0,3,3,0.0003,0,-16,7.5,1,0,0,0,13,13,101,1,20,second,,,,,,,,,,,,,,,,,,,,,,,,,,,,,,,,,,,,,,,,,,,,,,,,,,,,,,,,,,,,,,,,,,,,,,,,
,,,,,,6174302b527b34205b0cc8f4,62c53a5c303bf8e23fd01cc9,2022-07-06_09h51.03.595,Colour_Asymmetry_Pilot,2022.1.3,Win32,59.87306909,62c50e9c1127f2cd403a315f,,,,,,,,,,,,,,,,,,,,fourtwo,,-4,0.8596,,,,,,,,,,,,,,,,,,,,,,,,,,,,,,,,,,"[-0.8198,-0.5138,-0.7492000000000001]","[0.7176,-0.906,-0.6864]",-32,95.5,1,0,0,response7disk,-2,0.5,1,0,0,rectangle,-2,0.5,1,0,0,3,1,0.0027,0,-2,0.5,1,0,0,0,14,14,156,1,75,second,,,,,,,,,,,,,,,,,,,,,,,,,,,,,,,,,,,,,,,,,,,,,,,,,,,,,,,,,,,,,,,,,,,,,,,,
,,,,,,6174302b527b34205b0cc8f4,62c53a5c303bf8e23fd01cc9,2022-07-06_09h51.03.595,Colour_Asymmetry_Pilot,2022.1.3,Win32,59.87306909,62c50e9c1127f2cd403a315f,,,,,,,,,,,,,,,,,,,,twofour,,-4,0.932,,,,,,,,,,,,,,,,,,,,,,,,,,,,,,,,,,"[-0.2942,-0.24719999999999998,-0.357]","[0.6625999999999999,0.4980000000000002,-0.357]",-47,102.5,1,0,0,response7disk,-2,-3.5,1,0,0,rectangle,-2,-3.5,1,0,0,3,2,0.002099999,0,-2,-3.5,1,0,0,0,15,15,31,1,31,first,,,,,,,,,,,,,,,,,,,,,,,,,,,,,,,,,,,,,,,,,,,,,,,,,,,,,,,,,,,,,,,,,,,,,,,,
,,,,,,6174302b527b34205b0cc8f4,62c53a5c303bf8e23fd01cc9,2022-07-06_09h51.03.595,Colour_Asymmetry_Pilot,2022.1.3,Win32,59.87306909,62c50e9c1127f2cd403a315f,,,,,,,,,,,,,,,,,,,,fourtwo,,-4,0.8629,,,,,,,,,,,,,,,,,,,,,,,,,,,,,,,,,,"[0.796,0.2156,-0.27859999999999996]","[-0.10599999999999998,-0.15300000000000002,0.15280000000000005]",-33,99.5,1,0,0,response7disk,0,-1.5,1,0,0,rectangle,0,-1.5,1,0,0,3,1,0.0014,0,0,-1.5,1,0,0,0,16,16,58,1,58,first,,,,,,,,,,,,,,,,,,,,,,,,,,,,,,,,,,,,,,,,,,,,,,,,,,,,,,,,,,,,,,,,,,,,,,,,
