trials.thisRepN,trials.thisTrialN,trials.thisN,trials.thisIndex,trials.ran,Colourcodes,participant,session,date,expName,psychopyVersion,OS,frameRate,study_id,trials_4.thisRepN,trials_4.thisTrialN,trials_4.thisN,trials_4.thisIndex,trials_4.ran,StimulusPos,key_resp.keys,key_resp.rt,key_resp_2.keys,key_resp_2.rt,key_resp_15.keys,key_resp_15.rt,key_resp_17.keys,key_resp_17.rt,key_resp_9.keys,key_resp_9.rt,key_resp_10.keys,key_resp_10.rt,Circle1_col,Ecc,Circle2_col,similarity,response_time,mouse_5.x,mouse_5.y,mouse_5.leftButton,mouse_5.midButton,mouse_5.rightButton,mouse_5.clicked_name,mouse_10.x,mouse_10.y,mouse_10.leftButton,mouse_10.midButton,mouse_10.rightButton,mouse_10.clicked_name,mouse_7.x,mouse_7.y,mouse_7.leftButton,mouse_7.midButton,mouse_7.rightButton,catchnumberprac,mouse_6.x,mouse_6.y,mouse_6.leftButton,mouse_6.midButton,mouse_6.rightButton,duringprac.thisRepN,duringprac.thisTrialN,duringprac.thisN,duringprac.thisIndex,duringprac.ran,mouse_7.clicked_name,catchprac,mouse_6.clicked_name,key_resp_22.keys,key_resp_22.rt,Circle1_colour,Circle2_colour,mouse.x,mouse.y,mouse.leftButton,mouse.midButton,mouse.rightButton,mouse.clicked_name,mouse_2.x,mouse_2.y,mouse_2.leftButton,mouse_2.midButton,mouse_2.rightButton,mouse_2.clicked_name,mouse_3.x,mouse_3.y,mouse_3.leftButton,mouse_3.midButton,mouse_3.rightButton,catchresponse,catchnumber,response_time_catch,Catch,mouse_11.x,mouse_11.y,mouse_11.leftButton,mouse_11.midButton,mouse_11.rightButton,trials_2.thisRepN,trials_2.thisTrialN,trials_2.thisN,trials_2.thisIndex,trials_2.ran,Colourpair,Temporder,mouse_3.clicked_name,mouse_11.clicked_name,trials_3.thisRepN,trials_3.thisTrialN,trials_3.thisN,trials_3.thisIndex,trials_3.ran,key_resp_instr_Ishi.keys,key_resp_instr_Ishi.rt,Ishi_trial_keyresp.keys,Ishi_textbox.text,Ishi_mouse.x,Ishi_mouse.y,Ishi_mouse.leftButton,Ishi_mouse.midButton,Ishi_mouse.rightButton,Ishi_mouse.clicked_name,Ishi_loop.thisRepN,Ishi_loop.thisTrialN,Ishi_loop.thisN,Ishi_loop.thisIndex,Ishi_loop.ran,imageaddress,textbox.text,mouse_4.x,mouse_4.y,mouse_4.leftButton,mouse_4.midButton,mouse_4.rightButton,mouse_4.clicked_name,textbox_2.text,mouse_8.x,mouse_8.y,mouse_8.leftButton,mouse_8.midButton,mouse_8.rightButton,mouse_8.clicked_name,textbox_3.text,mouse_9.x,mouse_9.y,mouse_9.leftButton,mouse_9.midButton,mouse_9.rightButton,mouse_9.clicked_name,textbox_4.text,mouse_12.x,mouse_12.y,mouse_12.leftButton,mouse_12.midButton,mouse_12.rightButton,mouse_12.clicked_name,textbox_5.text,mouse_13.x,mouse_13.y,mouse_13.leftButton,mouse_13.midButton,mouse_13.rightButton,mouse_13.clicked_name,textbox_6.text,mouse_14.x,mouse_14.y,mouse_14.leftButton,mouse_14.midButton,mouse_14.rightButton,mouse_14.clicked_name,textbox_7.text,mouse_15.x,mouse_15.y,mouse_15.leftButton,mouse_15.midButton,mouse_15.rightButton,mouse_15.clicked_name
0,0,0,61,1,,5b992a5224a3450001fa3454,62c53aa5c5861622af3fff69,2022-07-06_09h39.06.586,Colour_Asymmetry_Pilot,2022.1.3,Win32,60.0132029,62c50e9c1127f2cd403a315f,,,,,,,,,,,,,,,,,,,,,,,,,,,,,,,,,,,,,,,,,,,,,,,,,,,,,,,,,,,,,,,,,,,,,,,,,,,,,,,,,,,,,,,,,,,,,,,,,,,,,,,,,,,,,,,,,,,,,,,,,,,,,,,,,,,,,,,,,,,,,,,,,,,,,,,,,,,,,,,,,,,
0,1,1,86,1,,5b992a5224a3450001fa3454,62c53aa5c5861622af3fff69,2022-07-06_09h39.06.586,Colour_Asymmetry_Pilot,2022.1.3,Win32,60.0132029,62c50e9c1127f2cd403a315f,,,,,,,,,,,,,,,,,,,,,,,,,,,,,,,,,,,,,,,,,,,,,,,,,,,,,,,,,,,,,,,,,,,,,,,,,,,,,,,,,,,,,,,,,,,,,,,,,,,,,,,,,,,,,,,,,,,,,,,,,,,,,,,,,,,,,,,,,,,,,,,,,,,,,,,,,,,,,,,,,,,
0,2,2,9,1,,5b992a5224a3450001fa3454,62c53aa5c5861622af3fff69,2022-07-06_09h39.06.586,Colour_Asymmetry_Pilot,2022.1.3,Win32,60.0132029,62c50e9c1127f2cd403a315f,,,,,,,,,,,,,,,,,,,,,,,,,,,,,,,,,,,,,,,,,,,,,,,,,,,,,,,,,,,,,,,,,,,,,,,,,,,,,,,,,,,,,,,,,,,,,,,,,,,,,,,,,,,,,,,,,,,,,,,,,,,,,,,,,,,,,,,,,,,,,,,,,,,,,,,,,,,,,,,,,,,
0,3,3,31,1,,5b992a5224a3450001fa3454,62c53aa5c5861622af3fff69,2022-07-06_09h39.06.586,Colour_Asymmetry_Pilot,2022.1.3,Win32,60.0132029,62c50e9c1127f2cd403a315f,,,,,,,,,,,,,,,,,,,,,,,,,,,,,,,,,,,,,,,,,,,,,,,,,,,,,,,,,,,,,,,,,,,,,,,,,,,,,,,,,,,,,,,,,,,,,,,,,,,,,,,,,,,,,,,,,,,,,,,,,,,,,,,,,,,,,,,,,,,,,,,,,,,,,,,,,,,,,,,,,,,
0,4,4,4,1,,5b992a5224a3450001fa3454,62c53aa5c5861622af3fff69,2022-07-06_09h39.06.586,Colour_Asymmetry_Pilot,2022.1.3,Win32,60.0132029,62c50e9c1127f2cd403a315f,,,,,,,,,,,,,,,,,,,,,,,,,,,,,,,,,,,,,,,,,,,,,,,,,,,,,,,,,,,,,,,,,,,,,,,,,,,,,,,,,,,,,,,,,,,,,,,,,,,,,,,,,,,,,,,,,,,,,,,,,,,,,,,,,,,,,,,,,,,,,,,,,,,,,,,,,,,,,,,,,,,
0,5,5,35,1,,5b992a5224a3450001fa3454,62c53aa5c5861622af3fff69,2022-07-06_09h39.06.586,Colour_Asymmetry_Pilot,2022.1.3,Win32,60.0132029,62c50e9c1127f2cd403a315f,,,,,,,,,,,,,,,,,,,,,,,,,,,,,,,,,,,,,,,,,,,,,,,,,,,,,,,,,,,,,,,,,,,,,,,,,,,,,,,,,,,,,,,,,,,,,,,,,,,,,,,,,,,,,,,,,,,,,,,,,,,,,,,,,,,,,,,,,,,,,,,,,,,,,,,,,,,,,,,,,,,
0,6,6,33,1,,5b992a5224a3450001fa3454,62c53aa5c5861622af3fff69,2022-07-06_09h39.06.586,Colour_Asymmetry_Pilot,2022.1.3,Win32,60.0132029,62c50e9c1127f2cd403a315f,,,,,,,,,,,,,,,,,,,,,,,,,,,,,,,,,,,,,,,,,,,,,,,,,,,,,,,,,,,,,,,,,,,,,,,,,,,,,,,,,,,,,,,,,,,,,,,,,,,,,,,,,,,,,,,,,,,,,,,,,,,,,,,,,,,,,,,,,,,,,,,,,,,,,,,,,,,,,,,,,,,
0,7,7,38,1,,5b992a5224a3450001fa3454,62c53aa5c5861622af3fff69,2022-07-06_09h39.06.586,Colour_Asymmetry_Pilot,2022.1.3,Win32,60.0132029,62c50e9c1127f2cd403a315f,,,,,,,,,,,,,,,,,,,,,,,,,,,,,,,,,,,,,,,,,,,,,,,,,,,,,,,,,,,,,,,,,,,,,,,,,,,,,,,,,,,,,,,,,,,,,,,,,,,,,,,,,,,,,,,,,,,,,,,,,,,,,,,,,,,,,,,,,,,,,,,,,,,,,,,,,,,,,,,,,,,
0,8,8,44,1,,5b992a5224a3450001fa3454,62c53aa5c5861622af3fff69,2022-07-06_09h39.06.586,Colour_Asymmetry_Pilot,2022.1.3,Win32,60.0132029,62c50e9c1127f2cd403a315f,,,,,,,,,,,,,,,,,,,,,,,,,,,,,,,,,,,,,,,,,,,,,,,,,,,,,,,,,,,,,,,,,,,,,,,,,,,,,,,,,,,,,,,,,,,,,,,,,,,,,,,,,,,,,,,,,,,,,,,,,,,,,,,,,,,,,,,,,,,,,,,,,,,,,,,,,,,,,,,,,,,
0,9,9,85,1,,5b992a5224a3450001fa3454,62c53aa5c5861622af3fff69,2022-07-06_09h39.06.586,Colour_Asymmetry_Pilot,2022.1.3,Win32,60.0132029,62c50e9c1127f2cd403a315f,,,,,,,,,,,,,,,,,,,,,,,,,,,,,,,,,,,,,,,,,,,,,,,,,,,,,,,,,,,,,,,,,,,,,,,,,,,,,,,,,,,,,,,,,,,,,,,,,,,,,,,,,,,,,,,,,,,,,,,,,,,,,,,,,,,,,,,,,,,,,,,,,,,,,,,,,,,,,,,,,,,
0,10,10,0,1,,5b992a5224a3450001fa3454,62c53aa5c5861622af3fff69,2022-07-06_09h39.06.586,Colour_Asymmetry_Pilot,2022.1.3,Win32,60.0132029,62c50e9c1127f2cd403a315f,,,,,,,,,,,,,,,,,,,,,,,,,,,,,,,,,,,,,,,,,,,,,,,,,,,,,,,,,,,,,,,,,,,,,,,,,,,,,,,,,,,,,,,,,,,,,,,,,,,,,,,,,,,,,,,,,,,,,,,,,,,,,,,,,,,,,,,,,,,,,,,,,,,,,,,,,,,,,,,,,,,
0,11,11,66,1,,5b992a5224a3450001fa3454,62c53aa5c5861622af3fff69,2022-07-06_09h39.06.586,Colour_Asymmetry_Pilot,2022.1.3,Win32,60.0132029,62c50e9c1127f2cd403a315f,,,,,,,,,,,,,,,,,,,,,,,,,,,,,,,,,,,,,,,,,,,,,,,,,,,,,,,,,,,,,,,,,,,,,,,,,,,,,,,,,,,,,,,,,,,,,,,,,,,,,,,,,,,,,,,,,,,,,,,,,,,,,,,,,,,,,,,,,,,,,,,,,,,,,,,,,,,,,,,,,,,
0,12,12,14,1,,5b992a5224a3450001fa3454,62c53aa5c5861622af3fff69,2022-07-06_09h39.06.586,Colour_Asymmetry_Pilot,2022.1.3,Win32,60.0132029,62c50e9c1127f2cd403a315f,,,,,,,,,,,,,,,,,,,,,,,,,,,,,,,,,,,,,,,,,,,,,,,,,,,,,,,,,,,,,,,,,,,,,,,,,,,,,,,,,,,,,,,,,,,,,,,,,,,,,,,,,,,,,,,,,,,,,,,,,,,,,,,,,,,,,,,,,,,,,,,,,,,,,,,,,,,,,,,,,,,
0,13,13,46,1,,5b992a5224a3450001fa3454,62c53aa5c5861622af3fff69,2022-07-06_09h39.06.586,Colour_Asymmetry_Pilot,2022.1.3,Win32,60.0132029,62c50e9c1127f2cd403a315f,,,,,,,,,,,,,,,,,,,,,,,,,,,,,,,,,,,,,,,,,,,,,,,,,,,,,,,,,,,,,,,,,,,,,,,,,,,,,,,,,,,,,,,,,,,,,,,,,,,,,,,,,,,,,,,,,,,,,,,,,,,,,,,,,,,,,,,,,,,,,,,,,,,,,,,,,,,,,,,,,,,
0,14,14,49,1,,5b992a5224a3450001fa3454,62c53aa5c5861622af3fff69,2022-07-06_09h39.06.586,Colour_Asymmetry_Pilot,2022.1.3,Win32,60.0132029,62c50e9c1127f2cd403a315f,,,,,,,,,,,,,,,,,,,,,,,,,,,,,,,,,,,,,,,,,,,,,,,,,,,,,,,,,,,,,,,,,,,,,,,,,,,,,,,,,,,,,,,,,,,,,,,,,,,,,,,,,,,,,,,,,,,,,,,,,,,,,,,,,,,,,,,,,,,,,,,,,,,,,,,,,,,,,,,,,,,
0,15,15,50,1,,5b992a5224a3450001fa3454,62c53aa5c5861622af3fff69,2022-07-06_09h39.06.586,Colour_Asymmetry_Pilot,2022.1.3,Win32,60.0132029,62c50e9c1127f2cd403a315f,,,,,,,,,,,,,,,,,,,,,,,,,,,,,,,,,,,,,,,,,,,,,,,,,,,,,,,,,,,,,,,,,,,,,,,,,,,,,,,,,,,,,,,,,,,,,,,,,,,,,,,,,,,,,,,,,,,,,,,,,,,,,,,,,,,,,,,,,,,,,,,,,,,,,,,,,,,,,,,,,,,
0,16,16,91,1,,5b992a5224a3450001fa3454,62c53aa5c5861622af3fff69,2022-07-06_09h39.06.586,Colour_Asymmetry_Pilot,2022.1.3,Win32,60.0132029,62c50e9c1127f2cd403a315f,,,,,,,,,,,,,,,,,,,,,,,,,,,,,,,,,,,,,,,,,,,,,,,,,,,,,,,,,,,,,,,,,,,,,,,,,,,,,,,,,,,,,,,,,,,,,,,,,,,,,,,,,,,,,,,,,,,,,,,,,,,,,,,,,,,,,,,,,,,,,,,,,,,,,,,,,,,,,,,,,,,
0,17,17,89,1,,5b992a5224a3450001fa3454,62c53aa5c5861622af3fff69,2022-07-06_09h39.06.586,Colour_Asymmetry_Pilot,2022.1.3,Win32,60.0132029,62c50e9c1127f2cd403a315f,,,,,,,,,,,,,,,,,,,,,,,,,,,,,,,,,,,,,,,,,,,,,,,,,,,,,,,,,,,,,,,,,,,,,,,,,,,,,,,,,,,,,,,,,,,,,,,,,,,,,,,,,,,,,,,,,,,,,,,,,,,,,,,,,,,,,,,,,,,,,,,,,,,,,,,,,,,,,,,,,,,
0,18,18,22,1,,5b992a5224a3450001fa3454,62c53aa5c5861622af3fff69,2022-07-06_09h39.06.586,Colour_Asymmetry_Pilot,2022.1.3,Win32,60.0132029,62c50e9c1127f2cd403a315f,,,,,,,,,,,,,,,,,,,,,,,,,,,,,,,,,,,,,,,,,,,,,,,,,,,,,,,,,,,,,,,,,,,,,,,,,,,,,,,,,,,,,,,,,,,,,,,,,,,,,,,,,,,,,,,,,,,,,,,,,,,,,,,,,,,,,,,,,,,,,,,,,,,,,,,,,,,,,,,,,,,
0,19,19,55,1,,5b992a5224a3450001fa3454,62c53aa5c5861622af3fff69,2022-07-06_09h39.06.586,Colour_Asymmetry_Pilot,2022.1.3,Win32,60.0132029,62c50e9c1127f2cd403a315f,,,,,,,,,,,,,,,,,,,,,,,,,,,,,,,,,,,,,,,,,,,,,,,,,,,,,,,,,,,,,,,,,,,,,,,,,,,,,,,,,,,,,,,,,,,,,,,,,,,,,,,,,,,,,,,,,,,,,,,,,,,,,,,,,,,,,,,,,,,,,,,,,,,,,,,,,,,,,,,,,,,
0,20,20,34,1,,5b992a5224a3450001fa3454,62c53aa5c5861622af3fff69,2022-07-06_09h39.06.586,Colour_Asymmetry_Pilot,2022.1.3,Win32,60.0132029,62c50e9c1127f2cd403a315f,,,,,,,,,,,,,,,,,,,,,,,,,,,,,,,,,,,,,,,,,,,,,,,,,,,,,,,,,,,,,,,,,,,,,,,,,,,,,,,,,,,,,,,,,,,,,,,,,,,,,,,,,,,,,,,,,,,,,,,,,,,,,,,,,,,,,,,,,,,,,,,,,,,,,,,,,,,,,,,,,,,
0,21,21,68,1,,5b992a5224a3450001fa3454,62c53aa5c5861622af3fff69,2022-07-06_09h39.06.586,Colour_Asymmetry_Pilot,2022.1.3,Win32,60.0132029,62c50e9c1127f2cd403a315f,,,,,,,,,,,,,,,,,,,,,,,,,,,,,,,,,,,,,,,,,,,,,,,,,,,,,,,,,,,,,,,,,,,,,,,,,,,,,,,,,,,,,,,,,,,,,,,,,,,,,,,,,,,,,,,,,,,,,,,,,,,,,,,,,,,,,,,,,,,,,,,,,,,,,,,,,,,,,,,,,,,
0,22,22,8,1,,5b992a5224a3450001fa3454,62c53aa5c5861622af3fff69,2022-07-06_09h39.06.586,Colour_Asymmetry_Pilot,2022.1.3,Win32,60.0132029,62c50e9c1127f2cd403a315f,,,,,,,,,,,,,,,,,,,,,,,,,,,,,,,,,,,,,,,,,,,,,,,,,,,,,,,,,,,,,,,,,,,,,,,,,,,,,,,,,,,,,,,,,,,,,,,,,,,,,,,,,,,,,,,,,,,,,,,,,,,,,,,,,,,,,,,,,,,,,,,,,,,,,,,,,,,,,,,,,,,
0,23,23,5,1,,5b992a5224a3450001fa3454,62c53aa5c5861622af3fff69,2022-07-06_09h39.06.586,Colour_Asymmetry_Pilot,2022.1.3,Win32,60.0132029,62c50e9c1127f2cd403a315f,,,,,,,,,,,,,,,,,,,,,,,,,,,,,,,,,,,,,,,,,,,,,,,,,,,,,,,,,,,,,,,,,,,,,,,,,,,,,,,,,,,,,,,,,,,,,,,,,,,,,,,,,,,,,,,,,,,,,,,,,,,,,,,,,,,,,,,,,,,,,,,,,,,,,,,,,,,,,,,,,,,
0,24,24,29,1,,5b992a5224a3450001fa3454,62c53aa5c5861622af3fff69,2022-07-06_09h39.06.586,Colour_Asymmetry_Pilot,2022.1.3,Win32,60.0132029,62c50e9c1127f2cd403a315f,,,,,,,,,,,,,,,,,,,,,,,,,,,,,,,,,,,,,,,,,,,,,,,,,,,,,,,,,,,,,,,,,,,,,,,,,,,,,,,,,,,,,,,,,,,,,,,,,,,,,,,,,,,,,,,,,,,,,,,,,,,,,,,,,,,,,,,,,,,,,,,,,,,,,,,,,,,,,,,,,,,
0,25,25,82,1,,5b992a5224a3450001fa3454,62c53aa5c5861622af3fff69,2022-07-06_09h39.06.586,Colour_Asymmetry_Pilot,2022.1.3,Win32,60.0132029,62c50e9c1127f2cd403a315f,,,,,,,,,,,,,,,,,,,,,,,,,,,,,,,,,,,,,,,,,,,,,,,,,,,,,,,,,,,,,,,,,,,,,,,,,,,,,,,,,,,,,,,,,,,,,,,,,,,,,,,,,,,,,,,,,,,,,,,,,,,,,,,,,,,,,,,,,,,,,,,,,,,,,,,,,,,,,,,,,,,
0,26,26,84,1,,5b992a5224a3450001fa3454,62c53aa5c5861622af3fff69,2022-07-06_09h39.06.586,Colour_Asymmetry_Pilot,2022.1.3,Win32,60.0132029,62c50e9c1127f2cd403a315f,,,,,,,,,,,,,,,,,,,,,,,,,,,,,,,,,,,,,,,,,,,,,,,,,,,,,,,,,,,,,,,,,,,,,,,,,,,,,,,,,,,,,,,,,,,,,,,,,,,,,,,,,,,,,,,,,,,,,,,,,,,,,,,,,,,,,,,,,,,,,,,,,,,,,,,,,,,,,,,,,,,
0,27,27,78,1,,5b992a5224a3450001fa3454,62c53aa5c5861622af3fff69,2022-07-06_09h39.06.586,Colour_Asymmetry_Pilot,2022.1.3,Win32,60.0132029,62c50e9c1127f2cd403a315f,,,,,,,,,,,,,,,,,,,,,,,,,,,,,,,,,,,,,,,,,,,,,,,,,,,,,,,,,,,,,,,,,,,,,,,,,,,,,,,,,,,,,,,,,,,,,,,,,,,,,,,,,,,,,,,,,,,,,,,,,,,,,,,,,,,,,,,,,,,,,,,,,,,,,,,,,,,,,,,,,,,
0,28,28,1,1,,5b992a5224a3450001fa3454,62c53aa5c5861622af3fff69,2022-07-06_09h39.06.586,Colour_Asymmetry_Pilot,2022.1.3,Win32,60.0132029,62c50e9c1127f2cd403a315f,,,,,,,,,,,,,,,,,,,,,,,,,,,,,,,,,,,,,,,,,,,,,,,,,,,,,,,,,,,,,,,,,,,,,,,,,,,,,,,,,,,,,,,,,,,,,,,,,,,,,,,,,,,,,,,,,,,,,,,,,,,,,,,,,,,,,,,,,,,,,,,,,,,,,,,,,,,,,,,,,,,
0,29,29,18,1,,5b992a5224a3450001fa3454,62c53aa5c5861622af3fff69,2022-07-06_09h39.06.586,Colour_Asymmetry_Pilot,2022.1.3,Win32,60.0132029,62c50e9c1127f2cd403a315f,,,,,,,,,,,,,,,,,,,,,,,,,,,,,,,,,,,,,,,,,,,,,,,,,,,,,,,,,,,,,,,,,,,,,,,,,,,,,,,,,,,,,,,,,,,,,,,,,,,,,,,,,,,,,,,,,,,,,,,,,,,,,,,,,,,,,,,,,,,,,,,,,,,,,,,,,,,,,,,,,,,
0,30,30,80,1,,5b992a5224a3450001fa3454,62c53aa5c5861622af3fff69,2022-07-06_09h39.06.586,Colour_Asymmetry_Pilot,2022.1.3,Win32,60.0132029,62c50e9c1127f2cd403a315f,,,,,,,,,,,,,,,,,,,,,,,,,,,,,,,,,,,,,,,,,,,,,,,,,,,,,,,,,,,,,,,,,,,,,,,,,,,,,,,,,,,,,,,,,,,,,,,,,,,,,,,,,,,,,,,,,,,,,,,,,,,,,,,,,,,,,,,,,,,,,,,,,,,,,,,,,,,,,,,,,,,
0,31,31,56,1,,5b992a5224a3450001fa3454,62c53aa5c5861622af3fff69,2022-07-06_09h39.06.586,Colour_Asymmetry_Pilot,2022.1.3,Win32,60.0132029,62c50e9c1127f2cd403a315f,,,,,,,,,,,,,,,,,,,,,,,,,,,,,,,,,,,,,,,,,,,,,,,,,,,,,,,,,,,,,,,,,,,,,,,,,,,,,,,,,,,,,,,,,,,,,,,,,,,,,,,,,,,,,,,,,,,,,,,,,,,,,,,,,,,,,,,,,,,,,,,,,,,,,,,,,,,,,,,,,,,
0,32,32,15,1,,5b992a5224a3450001fa3454,62c53aa5c5861622af3fff69,2022-07-06_09h39.06.586,Colour_Asymmetry_Pilot,2022.1.3,Win32,60.0132029,62c50e9c1127f2cd403a315f,,,,,,,,,,,,,,,,,,,,,,,,,,,,,,,,,,,,,,,,,,,,,,,,,,,,,,,,,,,,,,,,,,,,,,,,,,,,,,,,,,,,,,,,,,,,,,,,,,,,,,,,,,,,,,,,,,,,,,,,,,,,,,,,,,,,,,,,,,,,,,,,,,,,,,,,,,,,,,,,,,,
0,33,33,26,1,,5b992a5224a3450001fa3454,62c53aa5c5861622af3fff69,2022-07-06_09h39.06.586,Colour_Asymmetry_Pilot,2022.1.3,Win32,60.0132029,62c50e9c1127f2cd403a315f,,,,,,,,,,,,,,,,,,,,,,,,,,,,,,,,,,,,,,,,,,,,,,,,,,,,,,,,,,,,,,,,,,,,,,,,,,,,,,,,,,,,,,,,,,,,,,,,,,,,,,,,,,,,,,,,,,,,,,,,,,,,,,,,,,,,,,,,,,,,,,,,,,,,,,,,,,,,,,,,,,,
0,34,34,27,1,,5b992a5224a3450001fa3454,62c53aa5c5861622af3fff69,2022-07-06_09h39.06.586,Colour_Asymmetry_Pilot,2022.1.3,Win32,60.0132029,62c50e9c1127f2cd403a315f,,,,,,,,,,,,,,,,,,,,,,,,,,,,,,,,,,,,,,,,,,,,,,,,,,,,,,,,,,,,,,,,,,,,,,,,,,,,,,,,,,,,,,,,,,,,,,,,,,,,,,,,,,,,,,,,,,,,,,,,,,,,,,,,,,,,,,,,,,,,,,,,,,,,,,,,,,,,,,,,,,,
0,35,35,43,1,,5b992a5224a3450001fa3454,62c53aa5c5861622af3fff69,2022-07-06_09h39.06.586,Colour_Asymmetry_Pilot,2022.1.3,Win32,60.0132029,62c50e9c1127f2cd403a315f,,,,,,,,,,,,,,,,,,,,,,,,,,,,,,,,,,,,,,,,,,,,,,,,,,,,,,,,,,,,,,,,,,,,,,,,,,,,,,,,,,,,,,,,,,,,,,,,,,,,,,,,,,,,,,,,,,,,,,,,,,,,,,,,,,,,,,,,,,,,,,,,,,,,,,,,,,,,,,,,,,,
0,36,36,51,1,,5b992a5224a3450001fa3454,62c53aa5c5861622af3fff69,2022-07-06_09h39.06.586,Colour_Asymmetry_Pilot,2022.1.3,Win32,60.0132029,62c50e9c1127f2cd403a315f,,,,,,,,,,,,,,,,,,,,,,,,,,,,,,,,,,,,,,,,,,,,,,,,,,,,,,,,,,,,,,,,,,,,,,,,,,,,,,,,,,,,,,,,,,,,,,,,,,,,,,,,,,,,,,,,,,,,,,,,,,,,,,,,,,,,,,,,,,,,,,,,,,,,,,,,,,,,,,,,,,,
0,37,37,71,1,,5b992a5224a3450001fa3454,62c53aa5c5861622af3fff69,2022-07-06_09h39.06.586,Colour_Asymmetry_Pilot,2022.1.3,Win32,60.0132029,62c50e9c1127f2cd403a315f,,,,,,,,,,,,,,,,,,,,,,,,,,,,,,,,,,,,,,,,,,,,,,,,,,,,,,,,,,,,,,,,,,,,,,,,,,,,,,,,,,,,,,,,,,,,,,,,,,,,,,,,,,,,,,,,,,,,,,,,,,,,,,,,,,,,,,,,,,,,,,,,,,,,,,,,,,,,,,,,,,,
0,38,38,60,1,,5b992a5224a3450001fa3454,62c53aa5c5861622af3fff69,2022-07-06_09h39.06.586,Colour_Asymmetry_Pilot,2022.1.3,Win32,60.0132029,62c50e9c1127f2cd403a315f,,,,,,,,,,,,,,,,,,,,,,,,,,,,,,,,,,,,,,,,,,,,,,,,,,,,,,,,,,,,,,,,,,,,,,,,,,,,,,,,,,,,,,,,,,,,,,,,,,,,,,,,,,,,,,,,,,,,,,,,,,,,,,,,,,,,,,,,,,,,,,,,,,,,,,,,,,,,,,,,,,,
0,39,39,39,1,,5b992a5224a3450001fa3454,62c53aa5c5861622af3fff69,2022-07-06_09h39.06.586,Colour_Asymmetry_Pilot,2022.1.3,Win32,60.0132029,62c50e9c1127f2cd403a315f,,,,,,,,,,,,,,,,,,,,,,,,,,,,,,,,,,,,,,,,,,,,,,,,,,,,,,,,,,,,,,,,,,,,,,,,,,,,,,,,,,,,,,,,,,,,,,,,,,,,,,,,,,,,,,,,,,,,,,,,,,,,,,,,,,,,,,,,,,,,,,,,,,,,,,,,,,,,,,,,,,,
0,40,40,87,1,,5b992a5224a3450001fa3454,62c53aa5c5861622af3fff69,2022-07-06_09h39.06.586,Colour_Asymmetry_Pilot,2022.1.3,Win32,60.0132029,62c50e9c1127f2cd403a315f,,,,,,,,,,,,,,,,,,,,,,,,,,,,,,,,,,,,,,,,,,,,,,,,,,,,,,,,,,,,,,,,,,,,,,,,,,,,,,,,,,,,,,,,,,,,,,,,,,,,,,,,,,,,,,,,,,,,,,,,,,,,,,,,,,,,,,,,,,,,,,,,,,,,,,,,,,,,,,,,,,,
0,41,41,67,1,,5b992a5224a3450001fa3454,62c53aa5c5861622af3fff69,2022-07-06_09h39.06.586,Colour_Asymmetry_Pilot,2022.1.3,Win32,60.0132029,62c50e9c1127f2cd403a315f,,,,,,,,,,,,,,,,,,,,,,,,,,,,,,,,,,,,,,,,,,,,,,,,,,,,,,,,,,,,,,,,,,,,,,,,,,,,,,,,,,,,,,,,,,,,,,,,,,,,,,,,,,,,,,,,,,,,,,,,,,,,,,,,,,,,,,,,,,,,,,,,,,,,,,,,,,,,,,,,,,,
0,42,42,6,1,,5b992a5224a3450001fa3454,62c53aa5c5861622af3fff69,2022-07-06_09h39.06.586,Colour_Asymmetry_Pilot,2022.1.3,Win32,60.0132029,62c50e9c1127f2cd403a315f,,,,,,,,,,,,,,,,,,,,,,,,,,,,,,,,,,,,,,,,,,,,,,,,,,,,,,,,,,,,,,,,,,,,,,,,,,,,,,,,,,,,,,,,,,,,,,,,,,,,,,,,,,,,,,,,,,,,,,,,,,,,,,,,,,,,,,,,,,,,,,,,,,,,,,,,,,,,,,,,,,,
0,43,43,12,1,,5b992a5224a3450001fa3454,62c53aa5c5861622af3fff69,2022-07-06_09h39.06.586,Colour_Asymmetry_Pilot,2022.1.3,Win32,60.0132029,62c50e9c1127f2cd403a315f,,,,,,,,,,,,,,,,,,,,,,,,,,,,,,,,,,,,,,,,,,,,,,,,,,,,,,,,,,,,,,,,,,,,,,,,,,,,,,,,,,,,,,,,,,,,,,,,,,,,,,,,,,,,,,,,,,,,,,,,,,,,,,,,,,,,,,,,,,,,,,,,,,,,,,,,,,,,,,,,,,,
0,44,44,36,1,,5b992a5224a3450001fa3454,62c53aa5c5861622af3fff69,2022-07-06_09h39.06.586,Colour_Asymmetry_Pilot,2022.1.3,Win32,60.0132029,62c50e9c1127f2cd403a315f,,,,,,,,,,,,,,,,,,,,,,,,,,,,,,,,,,,,,,,,,,,,,,,,,,,,,,,,,,,,,,,,,,,,,,,,,,,,,,,,,,,,,,,,,,,,,,,,,,,,,,,,,,,,,,,,,,,,,,,,,,,,,,,,,,,,,,,,,,,,,,,,,,,,,,,,,,,,,,,,,,,
0,45,45,41,1,,5b992a5224a3450001fa3454,62c53aa5c5861622af3fff69,2022-07-06_09h39.06.586,Colour_Asymmetry_Pilot,2022.1.3,Win32,60.0132029,62c50e9c1127f2cd403a315f,,,,,,,,,,,,,,,,,,,,,,,,,,,,,,,,,,,,,,,,,,,,,,,,,,,,,,,,,,,,,,,,,,,,,,,,,,,,,,,,,,,,,,,,,,,,,,,,,,,,,,,,,,,,,,,,,,,,,,,,,,,,,,,,,,,,,,,,,,,,,,,,,,,,,,,,,,,,,,,,,,,
0,46,46,64,1,,5b992a5224a3450001fa3454,62c53aa5c5861622af3fff69,2022-07-06_09h39.06.586,Colour_Asymmetry_Pilot,2022.1.3,Win32,60.0132029,62c50e9c1127f2cd403a315f,,,,,,,,,,,,,,,,,,,,,,,,,,,,,,,,,,,,,,,,,,,,,,,,,,,,,,,,,,,,,,,,,,,,,,,,,,,,,,,,,,,,,,,,,,,,,,,,,,,,,,,,,,,,,,,,,,,,,,,,,,,,,,,,,,,,,,,,,,,,,,,,,,,,,,,,,,,,,,,,,,,
0,47,47,90,1,,5b992a5224a3450001fa3454,62c53aa5c5861622af3fff69,2022-07-06_09h39.06.586,Colour_Asymmetry_Pilot,2022.1.3,Win32,60.0132029,62c50e9c1127f2cd403a315f,,,,,,,,,,,,,,,,,,,,,,,,,,,,,,,,,,,,,,,,,,,,,,,,,,,,,,,,,,,,,,,,,,,,,,,,,,,,,,,,,,,,,,,,,,,,,,,,,,,,,,,,,,,,,,,,,,,,,,,,,,,,,,,,,,,,,,,,,,,,,,,,,,,,,,,,,,,,,,,,,,,
0,48,48,65,1,,5b992a5224a3450001fa3454,62c53aa5c5861622af3fff69,2022-07-06_09h39.06.586,Colour_Asymmetry_Pilot,2022.1.3,Win32,60.0132029,62c50e9c1127f2cd403a315f,,,,,,,,,,,,,,,,,,,,,,,,,,,,,,,,,,,,,,,,,,,,,,,,,,,,,,,,,,,,,,,,,,,,,,,,,,,,,,,,,,,,,,,,,,,,,,,,,,,,,,,,,,,,,,,,,,,,,,,,,,,,,,,,,,,,,,,,,,,,,,,,,,,,,,,,,,,,,,,,,,,
0,49,49,88,1,,5b992a5224a3450001fa3454,62c53aa5c5861622af3fff69,2022-07-06_09h39.06.586,Colour_Asymmetry_Pilot,2022.1.3,Win32,60.0132029,62c50e9c1127f2cd403a315f,,,,,,,,,,,,,,,,,,,,,,,,,,,,,,,,,,,,,,,,,,,,,,,,,,,,,,,,,,,,,,,,,,,,,,,,,,,,,,,,,,,,,,,,,,,,,,,,,,,,,,,,,,,,,,,,,,,,,,,,,,,,,,,,,,,,,,,,,,,,,,,,,,,,,,,,,,,,,,,,,,,
0,50,50,21,1,,5b992a5224a3450001fa3454,62c53aa5c5861622af3fff69,2022-07-06_09h39.06.586,Colour_Asymmetry_Pilot,2022.1.3,Win32,60.0132029,62c50e9c1127f2cd403a315f,,,,,,,,,,,,,,,,,,,,,,,,,,,,,,,,,,,,,,,,,,,,,,,,,,,,,,,,,,,,,,,,,,,,,,,,,,,,,,,,,,,,,,,,,,,,,,,,,,,,,,,,,,,,,,,,,,,,,,,,,,,,,,,,,,,,,,,,,,,,,,,,,,,,,,,,,,,,,,,,,,,
0,51,51,45,1,,5b992a5224a3450001fa3454,62c53aa5c5861622af3fff69,2022-07-06_09h39.06.586,Colour_Asymmetry_Pilot,2022.1.3,Win32,60.0132029,62c50e9c1127f2cd403a315f,,,,,,,,,,,,,,,,,,,,,,,,,,,,,,,,,,,,,,,,,,,,,,,,,,,,,,,,,,,,,,,,,,,,,,,,,,,,,,,,,,,,,,,,,,,,,,,,,,,,,,,,,,,,,,,,,,,,,,,,,,,,,,,,,,,,,,,,,,,,,,,,,,,,,,,,,,,,,,,,,,,
0,52,52,79,1,,5b992a5224a3450001fa3454,62c53aa5c5861622af3fff69,2022-07-06_09h39.06.586,Colour_Asymmetry_Pilot,2022.1.3,Win32,60.0132029,62c50e9c1127f2cd403a315f,,,,,,,,,,,,,,,,,,,,,,,,,,,,,,,,,,,,,,,,,,,,,,,,,,,,,,,,,,,,,,,,,,,,,,,,,,,,,,,,,,,,,,,,,,,,,,,,,,,,,,,,,,,,,,,,,,,,,,,,,,,,,,,,,,,,,,,,,,,,,,,,,,,,,,,,,,,,,,,,,,,
0,53,53,28,1,,5b992a5224a3450001fa3454,62c53aa5c5861622af3fff69,2022-07-06_09h39.06.586,Colour_Asymmetry_Pilot,2022.1.3,Win32,60.0132029,62c50e9c1127f2cd403a315f,,,,,,,,,,,,,,,,,,,,,,,,,,,,,,,,,,,,,,,,,,,,,,,,,,,,,,,,,,,,,,,,,,,,,,,,,,,,,,,,,,,,,,,,,,,,,,,,,,,,,,,,,,,,,,,,,,,,,,,,,,,,,,,,,,,,,,,,,,,,,,,,,,,,,,,,,,,,,,,,,,,
0,54,54,24,1,,5b992a5224a3450001fa3454,62c53aa5c5861622af3fff69,2022-07-06_09h39.06.586,Colour_Asymmetry_Pilot,2022.1.3,Win32,60.0132029,62c50e9c1127f2cd403a315f,,,,,,,,,,,,,,,,,,,,,,,,,,,,,,,,,,,,,,,,,,,,,,,,,,,,,,,,,,,,,,,,,,,,,,,,,,,,,,,,,,,,,,,,,,,,,,,,,,,,,,,,,,,,,,,,,,,,,,,,,,,,,,,,,,,,,,,,,,,,,,,,,,,,,,,,,,,,,,,,,,,
0,55,55,59,1,,5b992a5224a3450001fa3454,62c53aa5c5861622af3fff69,2022-07-06_09h39.06.586,Colour_Asymmetry_Pilot,2022.1.3,Win32,60.0132029,62c50e9c1127f2cd403a315f,,,,,,,,,,,,,,,,,,,,,,,,,,,,,,,,,,,,,,,,,,,,,,,,,,,,,,,,,,,,,,,,,,,,,,,,,,,,,,,,,,,,,,,,,,,,,,,,,,,,,,,,,,,,,,,,,,,,,,,,,,,,,,,,,,,,,,,,,,,,,,,,,,,,,,,,,,,,,,,,,,,
0,56,56,72,1,,5b992a5224a3450001fa3454,62c53aa5c5861622af3fff69,2022-07-06_09h39.06.586,Colour_Asymmetry_Pilot,2022.1.3,Win32,60.0132029,62c50e9c1127f2cd403a315f,,,,,,,,,,,,,,,,,,,,,,,,,,,,,,,,,,,,,,,,,,,,,,,,,,,,,,,,,,,,,,,,,,,,,,,,,,,,,,,,,,,,,,,,,,,,,,,,,,,,,,,,,,,,,,,,,,,,,,,,,,,,,,,,,,,,,,,,,,,,,,,,,,,,,,,,,,,,,,,,,,,
0,57,57,16,1,,5b992a5224a3450001fa3454,62c53aa5c5861622af3fff69,2022-07-06_09h39.06.586,Colour_Asymmetry_Pilot,2022.1.3,Win32,60.0132029,62c50e9c1127f2cd403a315f,,,,,,,,,,,,,,,,,,,,,,,,,,,,,,,,,,,,,,,,,,,,,,,,,,,,,,,,,,,,,,,,,,,,,,,,,,,,,,,,,,,,,,,,,,,,,,,,,,,,,,,,,,,,,,,,,,,,,,,,,,,,,,,,,,,,,,,,,,,,,,,,,,,,,,,,,,,,,,,,,,,
0,58,58,74,1,,5b992a5224a3450001fa3454,62c53aa5c5861622af3fff69,2022-07-06_09h39.06.586,Colour_Asymmetry_Pilot,2022.1.3,Win32,60.0132029,62c50e9c1127f2cd403a315f,,,,,,,,,,,,,,,,,,,,,,,,,,,,,,,,,,,,,,,,,,,,,,,,,,,,,,,,,,,,,,,,,,,,,,,,,,,,,,,,,,,,,,,,,,,,,,,,,,,,,,,,,,,,,,,,,,,,,,,,,,,,,,,,,,,,,,,,,,,,,,,,,,,,,,,,,,,,,,,,,,,
0,59,59,48,1,,5b992a5224a3450001fa3454,62c53aa5c5861622af3fff69,2022-07-06_09h39.06.586,Colour_Asymmetry_Pilot,2022.1.3,Win32,60.0132029,62c50e9c1127f2cd403a315f,,,,,,,,,,,,,,,,,,,,,,,,,,,,,,,,,,,,,,,,,,,,,,,,,,,,,,,,,,,,,,,,,,,,,,,,,,,,,,,,,,,,,,,,,,,,,,,,,,,,,,,,,,,,,,,,,,,,,,,,,,,,,,,,,,,,,,,,,,,,,,,,,,,,,,,,,,,,,,,,,,,
0,60,60,53,1,,5b992a5224a3450001fa3454,62c53aa5c5861622af3fff69,2022-07-06_09h39.06.586,Colour_Asymmetry_Pilot,2022.1.3,Win32,60.0132029,62c50e9c1127f2cd403a315f,,,,,,,,,,,,,,,,,,,,,,,,,,,,,,,,,,,,,,,,,,,,,,,,,,,,,,,,,,,,,,,,,,,,,,,,,,,,,,,,,,,,,,,,,,,,,,,,,,,,,,,,,,,,,,,,,,,,,,,,,,,,,,,,,,,,,,,,,,,,,,,,,,,,,,,,,,,,,,,,,,,
0,61,61,30,1,,5b992a5224a3450001fa3454,62c53aa5c5861622af3fff69,2022-07-06_09h39.06.586,Colour_Asymmetry_Pilot,2022.1.3,Win32,60.0132029,62c50e9c1127f2cd403a315f,,,,,,,,,,,,,,,,,,,,,,,,,,,,,,,,,,,,,,,,,,,,,,,,,,,,,,,,,,,,,,,,,,,,,,,,,,,,,,,,,,,,,,,,,,,,,,,,,,,,,,,,,,,,,,,,,,,,,,,,,,,,,,,,,,,,,,,,,,,,,,,,,,,,,,,,,,,,,,,,,,,
0,62,62,92,1,,5b992a5224a3450001fa3454,62c53aa5c5861622af3fff69,2022-07-06_09h39.06.586,Colour_Asymmetry_Pilot,2022.1.3,Win32,60.0132029,62c50e9c1127f2cd403a315f,,,,,,,,,,,,,,,,,,,,,,,,,,,,,,,,,,,,,,,,,,,,,,,,,,,,,,,,,,,,,,,,,,,,,,,,,,,,,,,,,,,,,,,,,,,,,,,,,,,,,,,,,,,,,,,,,,,,,,,,,,,,,,,,,,,,,,,,,,,,,,,,,,,,,,,,,,,,,,,,,,,
0,63,63,83,1,,5b992a5224a3450001fa3454,62c53aa5c5861622af3fff69,2022-07-06_09h39.06.586,Colour_Asymmetry_Pilot,2022.1.3,Win32,60.0132029,62c50e9c1127f2cd403a315f,,,,,,,,,,,,,,,,,,,,,,,,,,,,,,,,,,,,,,,,,,,,,,,,,,,,,,,,,,,,,,,,,,,,,,,,,,,,,,,,,,,,,,,,,,,,,,,,,,,,,,,,,,,,,,,,,,,,,,,,,,,,,,,,,,,,,,,,,,,,,,,,,,,,,,,,,,,,,,,,,,,
0,64,64,37,1,,5b992a5224a3450001fa3454,62c53aa5c5861622af3fff69,2022-07-06_09h39.06.586,Colour_Asymmetry_Pilot,2022.1.3,Win32,60.0132029,62c50e9c1127f2cd403a315f,,,,,,,,,,,,,,,,,,,,,,,,,,,,,,,,,,,,,,,,,,,,,,,,,,,,,,,,,,,,,,,,,,,,,,,,,,,,,,,,,,,,,,,,,,,,,,,,,,,,,,,,,,,,,,,,,,,,,,,,,,,,,,,,,,,,,,,,,,,,,,,,,,,,,,,,,,,,,,,,,,,
0,65,65,7,1,,5b992a5224a3450001fa3454,62c53aa5c5861622af3fff69,2022-07-06_09h39.06.586,Colour_Asymmetry_Pilot,2022.1.3,Win32,60.0132029,62c50e9c1127f2cd403a315f,,,,,,,,,,,,,,,,,,,,,,,,,,,,,,,,,,,,,,,,,,,,,,,,,,,,,,,,,,,,,,,,,,,,,,,,,,,,,,,,,,,,,,,,,,,,,,,,,,,,,,,,,,,,,,,,,,,,,,,,,,,,,,,,,,,,,,,,,,,,,,,,,,,,,,,,,,,,,,,,,,,
0,66,66,17,1,,5b992a5224a3450001fa3454,62c53aa5c5861622af3fff69,2022-07-06_09h39.06.586,Colour_Asymmetry_Pilot,2022.1.3,Win32,60.0132029,62c50e9c1127f2cd403a315f,,,,,,,,,,,,,,,,,,,,,,,,,,,,,,,,,,,,,,,,,,,,,,,,,,,,,,,,,,,,,,,,,,,,,,,,,,,,,,,,,,,,,,,,,,,,,,,,,,,,,,,,,,,,,,,,,,,,,,,,,,,,,,,,,,,,,,,,,,,,,,,,,,,,,,,,,,,,,,,,,,,
0,67,67,54,1,,5b992a5224a3450001fa3454,62c53aa5c5861622af3fff69,2022-07-06_09h39.06.586,Colour_Asymmetry_Pilot,2022.1.3,Win32,60.0132029,62c50e9c1127f2cd403a315f,,,,,,,,,,,,,,,,,,,,,,,,,,,,,,,,,,,,,,,,,,,,,,,,,,,,,,,,,,,,,,,,,,,,,,,,,,,,,,,,,,,,,,,,,,,,,,,,,,,,,,,,,,,,,,,,,,,,,,,,,,,,,,,,,,,,,,,,,,,,,,,,,,,,,,,,,,,,,,,,,,,
0,68,68,70,1,,5b992a5224a3450001fa3454,62c53aa5c5861622af3fff69,2022-07-06_09h39.06.586,Colour_Asymmetry_Pilot,2022.1.3,Win32,60.0132029,62c50e9c1127f2cd403a315f,,,,,,,,,,,,,,,,,,,,,,,,,,,,,,,,,,,,,,,,,,,,,,,,,,,,,,,,,,,,,,,,,,,,,,,,,,,,,,,,,,,,,,,,,,,,,,,,,,,,,,,,,,,,,,,,,,,,,,,,,,,,,,,,,,,,,,,,,,,,,,,,,,,,,,,,,,,,,,,,,,,
0,69,69,40,1,,5b992a5224a3450001fa3454,62c53aa5c5861622af3fff69,2022-07-06_09h39.06.586,Colour_Asymmetry_Pilot,2022.1.3,Win32,60.0132029,62c50e9c1127f2cd403a315f,,,,,,,,,,,,,,,,,,,,,,,,,,,,,,,,,,,,,,,,,,,,,,,,,,,,,,,,,,,,,,,,,,,,,,,,,,,,,,,,,,,,,,,,,,,,,,,,,,,,,,,,,,,,,,,,,,,,,,,,,,,,,,,,,,,,,,,,,,,,,,,,,,,,,,,,,,,,,,,,,,,
0,70,70,73,1,,5b992a5224a3450001fa3454,62c53aa5c5861622af3fff69,2022-07-06_09h39.06.586,Colour_Asymmetry_Pilot,2022.1.3,Win32,60.0132029,62c50e9c1127f2cd403a315f,,,,,,,,,,,,,,,,,,,,,,,,,,,,,,,,,,,,,,,,,,,,,,,,,,,,,,,,,,,,,,,,,,,,,,,,,,,,,,,,,,,,,,,,,,,,,,,,,,,,,,,,,,,,,,,,,,,,,,,,,,,,,,,,,,,,,,,,,,,,,,,,,,,,,,,,,,,,,,,,,,,
0,71,71,11,1,,5b992a5224a3450001fa3454,62c53aa5c5861622af3fff69,2022-07-06_09h39.06.586,Colour_Asymmetry_Pilot,2022.1.3,Win32,60.0132029,62c50e9c1127f2cd403a315f,,,,,,,,,,,,,,,,,,,,,,,,,,,,,,,,,,,,,,,,,,,,,,,,,,,,,,,,,,,,,,,,,,,,,,,,,,,,,,,,,,,,,,,,,,,,,,,,,,,,,,,,,,,,,,,,,,,,,,,,,,,,,,,,,,,,,,,,,,,,,,,,,,,,,,,,,,,,,,,,,,,
0,72,72,77,1,,5b992a5224a3450001fa3454,62c53aa5c5861622af3fff69,2022-07-06_09h39.06.586,Colour_Asymmetry_Pilot,2022.1.3,Win32,60.0132029,62c50e9c1127f2cd403a315f,,,,,,,,,,,,,,,,,,,,,,,,,,,,,,,,,,,,,,,,,,,,,,,,,,,,,,,,,,,,,,,,,,,,,,,,,,,,,,,,,,,,,,,,,,,,,,,,,,,,,,,,,,,,,,,,,,,,,,,,,,,,,,,,,,,,,,,,,,,,,,,,,,,,,,,,,,,,,,,,,,,
0,73,73,47,1,,5b992a5224a3450001fa3454,62c53aa5c5861622af3fff69,2022-07-06_09h39.06.586,Colour_Asymmetry_Pilot,2022.1.3,Win32,60.0132029,62c50e9c1127f2cd403a315f,,,,,,,,,,,,,,,,,,,,,,,,,,,,,,,,,,,,,,,,,,,,,,,,,,,,,,,,,,,,,,,,,,,,,,,,,,,,,,,,,,,,,,,,,,,,,,,,,,,,,,,,,,,,,,,,,,,,,,,,,,,,,,,,,,,,,,,,,,,,,,,,,,,,,,,,,,,,,,,,,,,
0,74,74,76,1,,5b992a5224a3450001fa3454,62c53aa5c5861622af3fff69,2022-07-06_09h39.06.586,Colour_Asymmetry_Pilot,2022.1.3,Win32,60.0132029,62c50e9c1127f2cd403a315f,,,,,,,,,,,,,,,,,,,,,,,,,,,,,,,,,,,,,,,,,,,,,,,,,,,,,,,,,,,,,,,,,,,,,,,,,,,,,,,,,,,,,,,,,,,,,,,,,,,,,,,,,,,,,,,,,,,,,,,,,,,,,,,,,,,,,,,,,,,,,,,,,,,,,,,,,,,,,,,,,,,
0,75,75,58,1,,5b992a5224a3450001fa3454,62c53aa5c5861622af3fff69,2022-07-06_09h39.06.586,Colour_Asymmetry_Pilot,2022.1.3,Win32,60.0132029,62c50e9c1127f2cd403a315f,,,,,,,,,,,,,,,,,,,,,,,,,,,,,,,,,,,,,,,,,,,,,,,,,,,,,,,,,,,,,,,,,,,,,,,,,,,,,,,,,,,,,,,,,,,,,,,,,,,,,,,,,,,,,,,,,,,,,,,,,,,,,,,,,,,,,,,,,,,,,,,,,,,,,,,,,,,,,,,,,,,
0,76,76,3,1,,5b992a5224a3450001fa3454,62c53aa5c5861622af3fff69,2022-07-06_09h39.06.586,Colour_Asymmetry_Pilot,2022.1.3,Win32,60.0132029,62c50e9c1127f2cd403a315f,,,,,,,,,,,,,,,,,,,,,,,,,,,,,,,,,,,,,,,,,,,,,,,,,,,,,,,,,,,,,,,,,,,,,,,,,,,,,,,,,,,,,,,,,,,,,,,,,,,,,,,,,,,,,,,,,,,,,,,,,,,,,,,,,,,,,,,,,,,,,,,,,,,,,,,,,,,,,,,,,,,
0,77,77,20,1,,5b992a5224a3450001fa3454,62c53aa5c5861622af3fff69,2022-07-06_09h39.06.586,Colour_Asymmetry_Pilot,2022.1.3,Win32,60.0132029,62c50e9c1127f2cd403a315f,,,,,,,,,,,,,,,,,,,,,,,,,,,,,,,,,,,,,,,,,,,,,,,,,,,,,,,,,,,,,,,,,,,,,,,,,,,,,,,,,,,,,,,,,,,,,,,,,,,,,,,,,,,,,,,,,,,,,,,,,,,,,,,,,,,,,,,,,,,,,,,,,,,,,,,,,,,,,,,,,,,
0,78,78,19,1,,5b992a5224a3450001fa3454,62c53aa5c5861622af3fff69,2022-07-06_09h39.06.586,Colour_Asymmetry_Pilot,2022.1.3,Win32,60.0132029,62c50e9c1127f2cd403a315f,,,,,,,,,,,,,,,,,,,,,,,,,,,,,,,,,,,,,,,,,,,,,,,,,,,,,,,,,,,,,,,,,,,,,,,,,,,,,,,,,,,,,,,,,,,,,,,,,,,,,,,,,,,,,,,,,,,,,,,,,,,,,,,,,,,,,,,,,,,,,,,,,,,,,,,,,,,,,,,,,,,
0,79,79,63,1,,5b992a5224a3450001fa3454,62c53aa5c5861622af3fff69,2022-07-06_09h39.06.586,Colour_Asymmetry_Pilot,2022.1.3,Win32,60.0132029,62c50e9c1127f2cd403a315f,,,,,,,,,,,,,,,,,,,,,,,,,,,,,,,,,,,,,,,,,,,,,,,,,,,,,,,,,,,,,,,,,,,,,,,,,,,,,,,,,,,,,,,,,,,,,,,,,,,,,,,,,,,,,,,,,,,,,,,,,,,,,,,,,,,,,,,,,,,,,,,,,,,,,,,,,,,,,,,,,,,
0,80,80,52,1,,5b992a5224a3450001fa3454,62c53aa5c5861622af3fff69,2022-07-06_09h39.06.586,Colour_Asymmetry_Pilot,2022.1.3,Win32,60.0132029,62c50e9c1127f2cd403a315f,,,,,,,,,,,,,,,,,,,,,,,,,,,,,,,,,,,,,,,,,,,,,,,,,,,,,,,,,,,,,,,,,,,,,,,,,,,,,,,,,,,,,,,,,,,,,,,,,,,,,,,,,,,,,,,,,,,,,,,,,,,,,,,,,,,,,,,,,,,,,,,,,,,,,,,,,,,,,,,,,,,
0,81,81,10,1,,5b992a5224a3450001fa3454,62c53aa5c5861622af3fff69,2022-07-06_09h39.06.586,Colour_Asymmetry_Pilot,2022.1.3,Win32,60.0132029,62c50e9c1127f2cd403a315f,,,,,,,,,,,,,,,,,,,,,,,,,,,,,,,,,,,,,,,,,,,,,,,,,,,,,,,,,,,,,,,,,,,,,,,,,,,,,,,,,,,,,,,,,,,,,,,,,,,,,,,,,,,,,,,,,,,,,,,,,,,,,,,,,,,,,,,,,,,,,,,,,,,,,,,,,,,,,,,,,,,
0,82,82,25,1,,5b992a5224a3450001fa3454,62c53aa5c5861622af3fff69,2022-07-06_09h39.06.586,Colour_Asymmetry_Pilot,2022.1.3,Win32,60.0132029,62c50e9c1127f2cd403a315f,,,,,,,,,,,,,,,,,,,,,,,,,,,,,,,,,,,,,,,,,,,,,,,,,,,,,,,,,,,,,,,,,,,,,,,,,,,,,,,,,,,,,,,,,,,,,,,,,,,,,,,,,,,,,,,,,,,,,,,,,,,,,,,,,,,,,,,,,,,,,,,,,,,,,,,,,,,,,,,,,,,
0,83,83,69,1,,5b992a5224a3450001fa3454,62c53aa5c5861622af3fff69,2022-07-06_09h39.06.586,Colour_Asymmetry_Pilot,2022.1.3,Win32,60.0132029,62c50e9c1127f2cd403a315f,,,,,,,,,,,,,,,,,,,,,,,,,,,,,,,,,,,,,,,,,,,,,,,,,,,,,,,,,,,,,,,,,,,,,,,,,,,,,,,,,,,,,,,,,,,,,,,,,,,,,,,,,,,,,,,,,,,,,,,,,,,,,,,,,,,,,,,,,,,,,,,,,,,,,,,,,,,,,,,,,,,
0,84,84,57,1,,5b992a5224a3450001fa3454,62c53aa5c5861622af3fff69,2022-07-06_09h39.06.586,Colour_Asymmetry_Pilot,2022.1.3,Win32,60.0132029,62c50e9c1127f2cd403a315f,,,,,,,,,,,,,,,,,,,,,,,,,,,,,,,,,,,,,,,,,,,,,,,,,,,,,,,,,,,,,,,,,,,,,,,,,,,,,,,,,,,,,,,,,,,,,,,,,,,,,,,,,,,,,,,,,,,,,,,,,,,,,,,,,,,,,,,,,,,,,,,,,,,,,,,,,,,,,,,,,,,
0,85,85,62,1,,5b992a5224a3450001fa3454,62c53aa5c5861622af3fff69,2022-07-06_09h39.06.586,Colour_Asymmetry_Pilot,2022.1.3,Win32,60.0132029,62c50e9c1127f2cd403a315f,,,,,,,,,,,,,,,,,,,,,,,,,,,,,,,,,,,,,,,,,,,,,,,,,,,,,,,,,,,,,,,,,,,,,,,,,,,,,,,,,,,,,,,,,,,,,,,,,,,,,,,,,,,,,,,,,,,,,,,,,,,,,,,,,,,,,,,,,,,,,,,,,,,,,,,,,,,,,,,,,,,
0,86,86,13,1,,5b992a5224a3450001fa3454,62c53aa5c5861622af3fff69,2022-07-06_09h39.06.586,Colour_Asymmetry_Pilot,2022.1.3,Win32,60.0132029,62c50e9c1127f2cd403a315f,,,,,,,,,,,,,,,,,,,,,,,,,,,,,,,,,,,,,,,,,,,,,,,,,,,,,,,,,,,,,,,,,,,,,,,,,,,,,,,,,,,,,,,,,,,,,,,,,,,,,,,,,,,,,,,,,,,,,,,,,,,,,,,,,,,,,,,,,,,,,,,,,,,,,,,,,,,,,,,,,,,
0,87,87,23,1,,5b992a5224a3450001fa3454,62c53aa5c5861622af3fff69,2022-07-06_09h39.06.586,Colour_Asymmetry_Pilot,2022.1.3,Win32,60.0132029,62c50e9c1127f2cd403a315f,,,,,,,,,,,,,,,,,,,,,,,,,,,,,,,,,,,,,,,,,,,,,,,,,,,,,,,,,,,,,,,,,,,,,,,,,,,,,,,,,,,,,,,,,,,,,,,,,,,,,,,,,,,,,,,,,,,,,,,,,,,,,,,,,,,,,,,,,,,,,,,,,,,,,,,,,,,,,,,,,,,
0,88,88,2,1,,5b992a5224a3450001fa3454,62c53aa5c5861622af3fff69,2022-07-06_09h39.06.586,Colour_Asymmetry_Pilot,2022.1.3,Win32,60.0132029,62c50e9c1127f2cd403a315f,,,,,,,,,,,,,,,,,,,,,,,,,,,,,,,,,,,,,,,,,,,,,,,,,,,,,,,,,,,,,,,,,,,,,,,,,,,,,,,,,,,,,,,,,,,,,,,,,,,,,,,,,,,,,,,,,,,,,,,,,,,,,,,,,,,,,,,,,,,,,,,,,,,,,,,,,,,,,,,,,,,
0,89,89,42,1,,5b992a5224a3450001fa3454,62c53aa5c5861622af3fff69,2022-07-06_09h39.06.586,Colour_Asymmetry_Pilot,2022.1.3,Win32,60.0132029,62c50e9c1127f2cd403a315f,,,,,,,,,,,,,,,,,,,,,,,,,,,,,,,,,,,,,,,,,,,,,,,,,,,,,,,,,,,,,,,,,,,,,,,,,,,,,,,,,,,,,,,,,,,,,,,,,,,,,,,,,,,,,,,,,,,,,,,,,,,,,,,,,,,,,,,,,,,,,,,,,,,,,,,,,,,,,,,,,,,
0,90,90,75,1,,5b992a5224a3450001fa3454,62c53aa5c5861622af3fff69,2022-07-06_09h39.06.586,Colour_Asymmetry_Pilot,2022.1.3,Win32,60.0132029,62c50e9c1127f2cd403a315f,,,,,,,,,,,,,,,,,,,,,,,,,,,,,,,,,,,,,,,,,,,,,,,,,,,,,,,,,,,,,,,,,,,,,,,,,,,,,,,,,,,,,,,,,,,,,,,,,,,,,,,,,,,,,,,,,,,,,,,,,,,,,,,,,,,,,,,,,,,,,,,,,,,,,,,,,,,,,,,,,,,
0,91,91,81,1,,5b992a5224a3450001fa3454,62c53aa5c5861622af3fff69,2022-07-06_09h39.06.586,Colour_Asymmetry_Pilot,2022.1.3,Win32,60.0132029,62c50e9c1127f2cd403a315f,,,,,,,,,,,,,,,,,,,,,,,,,,,,,,,,,,,,,,,,,,,,,,,,,,,,,,,,,,,,,,,,,,,,,,,,,,,,,,,,,,,,,,,,,,,,,,,,,,,,,,,,,,,,,,,,,,,,,,,,,,,,,,,,,,,,,,,,,,,,,,,,,,,,,,,,,,,,,,,,,,,
0,92,92,32,1,,5b992a5224a3450001fa3454,62c53aa5c5861622af3fff69,2022-07-06_09h39.06.586,Colour_Asymmetry_Pilot,2022.1.3,Win32,60.0132029,62c50e9c1127f2cd403a315f,,,,,,,,,,,,,,,,,,,,,,,,,,,,,,,,,,,,,,,,,,,,,,,,,,,,,,,,,,,,,,,,,,,,,,,,,,,,,,,,,,,,,,,,,,,,,,,,,,,,,,,,,,,,,,,,,,,,,,,,,,,,,,,,,,,,,,,,,,,,,,,,,,,,,,,,,,,,,,,,,,,
,,,,,,5b992a5224a3450001fa3454,62c53aa5c5861622af3fff69,2022-07-06_09h39.06.586,Colour_Asymmetry_Pilot,2022.1.3,Win32,60.0132029,62c50e9c1127f2cd403a315f,0,0,0,71,1,fourthree,,,,,,,,,,,,,,,,,,,,,,,,,,,,,,,,,,,,,,,,,,,,,,,,,,,,,,,,,,,,,,,,,,,,,,,,,,,,,,,,,,,,,,,,,,,,,,,,,,,,,,,,,,,,,,,,,,,,,,,,,,,,,,,,,,,,,,,,,,,,,,,,,,,,,,,,,,,,,
,,,,,,5b992a5224a3450001fa3454,62c53aa5c5861622af3fff69,2022-07-06_09h39.06.586,Colour_Asymmetry_Pilot,2022.1.3,Win32,60.0132029,62c50e9c1127f2cd403a315f,0,1,1,101,1,threefour,,,,,,,,,,,,,,,,,,,,,,,,,,,,,,,,,,,,,,,,,,,,,,,,,,,,,,,,,,,,,,,,,,,,,,,,,,,,,,,,,,,,,,,,,,,,,,,,,,,,,,,,,,,,,,,,,,,,,,,,,,,,,,,,,,,,,,,,,,,,,,,,,,,,,,,,,,,,,
,,,,,,5b992a5224a3450001fa3454,62c53aa5c5861622af3fff69,2022-07-06_09h39.06.586,Colour_Asymmetry_Pilot,2022.1.3,Win32,60.0132029,62c50e9c1127f2cd403a315f,0,2,2,42,1,twoone,,,,,,,,,,,,,,,,,,,,,,,,,,,,,,,,,,,,,,,,,,,,,,,,,,,,,,,,,,,,,,,,,,,,,,,,,,,,,,,,,,,,,,,,,,,,,,,,,,,,,,,,,,,,,,,,,,,,,,,,,,,,,,,,,,,,,,,,,,,,,,,,,,,,,,,,,,,,,
,,,,,,5b992a5224a3450001fa3454,62c53aa5c5861622af3fff69,2022-07-06_09h39.06.586,Colour_Asymmetry_Pilot,2022.1.3,Win32,60.0132029,62c50e9c1127f2cd403a315f,0,3,3,22,1,fourtwo,,,,,,,,,,,,,,,,,,,,,,,,,,,,,,,,,,,,,,,,,,,,,,,,,,,,,,,,,,,,,,,,,,,,,,,,,,,,,,,,,,,,,,,,,,,,,,,,,,,,,,,,,,,,,,,,,,,,,,,,,,,,,,,,,,,,,,,,,,,,,,,,,,,,,,,,,,,,,
,,,,,,5b992a5224a3450001fa3454,62c53aa5c5861622af3fff69,2022-07-06_09h39.06.586,Colour_Asymmetry_Pilot,2022.1.3,Win32,60.0132029,62c50e9c1127f2cd403a315f,0,4,4,39,1,fourthree,,,,,,,,,,,,,,,,,,,,,,,,,,,,,,,,,,,,,,,,,,,,,,,,,,,,,,,,,,,,,,,,,,,,,,,,,,,,,,,,,,,,,,,,,,,,,,,,,,,,,,,,,,,,,,,,,,,,,,,,,,,,,,,,,,,,,,,,,,,,,,,,,,,,,,,,,,,,,
,,,,,,5b992a5224a3450001fa3454,62c53aa5c5861622af3fff69,2022-07-06_09h39.06.586,Colour_Asymmetry_Pilot,2022.1.3,Win32,60.0132029,62c50e9c1127f2cd403a315f,0,5,5,70,1,fourtwo,,,,,,,,,,,,,,,,,,,,,,,,,,,,,,,,,,,,,,,,,,,,,,,,,,,,,,,,,,,,,,,,,,,,,,,,,,,,,,,,,,,,,,,,,,,,,,,,,,,,,,,,,,,,,,,,,,,,,,,,,,,,,,,,,,,,,,,,,,,,,,,,,,,,,,,,,,,,,
,,,,,,5b992a5224a3450001fa3454,62c53aa5c5861622af3fff69,2022-07-06_09h39.06.586,Colour_Asymmetry_Pilot,2022.1.3,Win32,60.0132029,62c50e9c1127f2cd403a315f,0,6,6,148,1,threeone,,,,,,,,,,,,,,,,,,,,,,,,,,,,,,,,,,,,,,,,,,,,,,,,,,,,,,,,,,,,,,,,,,,,,,,,,,,,,,,,,,,,,,,,,,,,,,,,,,,,,,,,,,,,,,,,,,,,,,,,,,,,,,,,,,,,,,,,,,,,,,,,,,,,,,,,,,,,,
,,,,,,5b992a5224a3450001fa3454,62c53aa5c5861622af3fff69,2022-07-06_09h39.06.586,Colour_Asymmetry_Pilot,2022.1.3,Win32,60.0132029,62c50e9c1127f2cd403a315f,0,7,7,137,1,onethree,,,,,,,,,,,,,,,,,,,,,,,,,,,,,,,,,,,,,,,,,,,,,,,,,,,,,,,,,,,,,,,,,,,,,,,,,,,,,,,,,,,,,,,,,,,,,,,,,,,,,,,,,,,,,,,,,,,,,,,,,,,,,,,,,,,,,,,,,,,,,,,,,,,,,,,,,,,,,
,,,,,,5b992a5224a3450001fa3454,62c53aa5c5861622af3fff69,2022-07-06_09h39.06.586,Colour_Asymmetry_Pilot,2022.1.3,Win32,60.0132029,62c50e9c1127f2cd403a315f,0,8,8,145,1,onethree,,,,,,,,,,,,,,,,,,,,,,,,,,,,,,,,,,,,,,,,,,,,,,,,,,,,,,,,,,,,,,,,,,,,,,,,,,,,,,,,,,,,,,,,,,,,,,,,,,,,,,,,,,,,,,,,,,,,,,,,,,,,,,,,,,,,,,,,,,,,,,,,,,,,,,,,,,,,,
,,,,,,5b992a5224a3450001fa3454,62c53aa5c5861622af3fff69,2022-07-06_09h39.06.586,Colour_Asymmetry_Pilot,2022.1.3,Win32,60.0132029,62c50e9c1127f2cd403a315f,0,9,9,72,1,onetwo,,,,,,,,,,,,,,,,,,,,,,,,,,,,,,,,,,,,,,,,,,,,,,,,,,,,,,,,,,,,,,,,,,,,,,,,,,,,,,,,,,,,,,,,,,,,,,,,,,,,,,,,,,,,,,,,,,,,,,,,,,,,,,,,,,,,,,,,,,,,,,,,,,,,,,,,,,,,,
,,,,,,5b992a5224a3450001fa3454,62c53aa5c5861622af3fff69,2022-07-06_09h39.06.586,Colour_Asymmetry_Pilot,2022.1.3,Win32,60.0132029,62c50e9c1127f2cd403a315f,0,10,10,29,1,threefour,,,,,,,,,,,,,,,,,,,,,,,,,,,,,,,,,,,,,,,,,,,,,,,,,,,,,,,,,,,,,,,,,,,,,,,,,,,,,,,,,,,,,,,,,,,,,,,,,,,,,,,,,,,,,,,,,,,,,,,,,,,,,,,,,,,,,,,,,,,,,,,,,,,,,,,,,,,,,
,,,,,,5b992a5224a3450001fa3454,62c53aa5c5861622af3fff69,2022-07-06_09h39.06.586,Colour_Asymmetry_Pilot,2022.1.3,Win32,60.0132029,62c50e9c1127f2cd403a315f,0,11,11,14,1,fourtwo,,,,,,,,,,,,,,,,,,,,,,,,,,,,,,,,,,,,,,,,,,,,,,,,,,,,,,,,,,,,,,,,,,,,,,,,,,,,,,,,,,,,,,,,,,,,,,,,,,,,,,,,,,,,,,,,,,,,,,,,,,,,,,,,,,,,,,,,,,,,,,,,,,,,,,,,,,,,,
,,,,,,5b992a5224a3450001fa3454,62c53aa5c5861622af3fff69,2022-07-06_09h39.06.586,Colour_Asymmetry_Pilot,2022.1.3,Win32,60.0132029,62c50e9c1127f2cd403a315f,0,12,12,74,1,twoone,,,,,,,,,,,,,,,,,,,,,,,,,,,,,,,,,,,,,,,,,,,,,,,,,,,,,,,,,,,,,,,,,,,,,,,,,,,,,,,,,,,,,,,,,,,,,,,,,,,,,,,,,,,,,,,,,,,,,,,,,,,,,,,,,,,,,,,,,,,,,,,,,,,,,,,,,,,,,
,,,,,,5b992a5224a3450001fa3454,62c53aa5c5861622af3fff69,2022-07-06_09h39.06.586,Colour_Asymmetry_Pilot,2022.1.3,Win32,60.0132029,62c50e9c1127f2cd403a315f,0,13,13,102,1,fourtwo,,,,,,,,,,,,,,,,,,,,,,,,,,,,,,,,,,,,,,,,,,,,,,,,,,,,,,,,,,,,,,,,,,,,,,,,,,,,,,,,,,,,,,,,,,,,,,,,,,,,,,,,,,,,,,,,,,,,,,,,,,,,,,,,,,,,,,,,,,,,,,,,,,,,,,,,,,,,,
,,,,,,5b992a5224a3450001fa3454,62c53aa5c5861622af3fff69,2022-07-06_09h39.06.586,Colour_Asymmetry_Pilot,2022.1.3,Win32,60.0132029,62c50e9c1127f2cd403a315f,0,14,14,24,1,onetwo,,,,,,,,,,,,,,,,,,,,,,,,,,,,,,,,,,,,,,,,,,,,,,,,,,,,,,,,,,,,,,,,,,,,,,,,,,,,,,,,,,,,,,,,,,,,,,,,,,,,,,,,,,,,,,,,,,,,,,,,,,,,,,,,,,,,,,,,,,,,,,,,,,,,,,,,,,,,,
,,,,,,5b992a5224a3450001fa3454,62c53aa5c5861622af3fff69,2022-07-06_09h39.06.586,Colour_Asymmetry_Pilot,2022.1.3,Win32,60.0132029,62c50e9c1127f2cd403a315f,0,15,15,98,1,twoone,,,,,,,,,,,,,,,,,,,,,,,,,,,,,,,,,,,,,,,,,,,,,,,,,,,,,,,,,,,,,,,,,,,,,,,,,,,,,,,,,,,,,,,,,,,,,,,,,,,,,,,,,,,,,,,,,,,,,,,,,,,,,,,,,,,,,,,,,,,,,,,,,,,,,,,,,,,,,
,,,,,,5b992a5224a3450001fa3454,62c53aa5c5861622af3fff69,2022-07-06_09h39.06.586,Colour_Asymmetry_Pilot,2022.1.3,Win32,60.0132029,62c50e9c1127f2cd403a315f,0,16,16,17,1,onethree,,,,,,,,,,,,,,,,,,,,,,,,,,,,,,,,,,,,,,,,,,,,,,,,,,,,,,,,,,,,,,,,,,,,,,,,,,,,,,,,,,,,,,,,,,,,,,,,,,,,,,,,,,,,,,,,,,,,,,,,,,,,,,,,,,,,,,,,,,,,,,,,,,,,,,,,,,,,,
,,,,,,5b992a5224a3450001fa3454,62c53aa5c5861622af3fff69,2022-07-06_09h39.06.586,Colour_Asymmetry_Pilot,2022.1.3,Win32,60.0132029,62c50e9c1127f2cd403a315f,0,17,17,10,1,twoone,,,,,,,,,,,,,,,,,,,,,,,,,,,,,,,,,,,,,,,,,,,,,,,,,,,,,,,,,,,,,,,,,,,,,,,,,,,,,,,,,,,,,,,,,,,,,,,,,,,,,,,,,,,,,,,,,,,,,,,,,,,,,,,,,,,,,,,,,,,,,,,,,,,,,,,,,,,,,
,,,,,,5b992a5224a3450001fa3454,62c53aa5c5861622af3fff69,2022-07-06_09h39.06.586,Colour_Asymmetry_Pilot,2022.1.3,Win32,60.0132029,62c50e9c1127f2cd403a315f,0,18,18,8,1,onetwo,,,,,,,,,,,,,,,,,,,,,,,,,,,,,,,,,,,,,,,,,,,,,,,,,,,,,,,,,,,,,,,,,,,,,,,,,,,,,,,,,,,,,,,,,,,,,,,,,,,,,,,,,,,,,,,,,,,,,,,,,,,,,,,,,,,,,,,,,,,,,,,,,,,,,,,,,,,,,
,,,,,,5b992a5224a3450001fa3454,62c53aa5c5861622af3fff69,2022-07-06_09h39.06.586,Colour_Asymmetry_Pilot,2022.1.3,Win32,60.0132029,62c50e9c1127f2cd403a315f,0,19,19,34,1,twoone,,,,,,,,,,,,,,,,,,,,,,,,,,,,,,,,,,,,,,,,,,,,,,,,,,,,,,,,,,,,,,,,,,,,,,,,,,,,,,,,,,,,,,,,,,,,,,,,,,,,,,,,,,,,,,,,,,,,,,,,,,,,,,,,,,,,,,,,,,,,,,,,,,,,,,,,,,,,,
,,,,,,5b992a5224a3450001fa3454,62c53aa5c5861622af3fff69,2022-07-06_09h39.06.586,Colour_Asymmetry_Pilot,2022.1.3,Win32,60.0132029,62c50e9c1127f2cd403a315f,0,20,20,149,1,threefour,,,,,,,,,,,,,,,,,,,,,,,,,,,,,,,,,,,,,,,,,,,,,,,,,,,,,,,,,,,,,,,,,,,,,,,,,,,,,,,,,,,,,,,,,,,,,,,,,,,,,,,,,,,,,,,,,,,,,,,,,,,,,,,,,,,,,,,,,,,,,,,,,,,,,,,,,,,,,
,,,,,,5b992a5224a3450001fa3454,62c53aa5c5861622af3fff69,2022-07-06_09h39.06.586,Colour_Asymmetry_Pilot,2022.1.3,Win32,60.0132029,62c50e9c1127f2cd403a315f,0,21,21,37,1,threefour,,,,,,,,,,,,,,,,,,,,,,,,,,,,,,,,,,,,,,,,,,,,,,,,,,,,,,,,,,,,,,,,,,,,,,,,,,,,,,,,,,,,,,,,,,,,,,,,,,,,,,,,,,,,,,,,,,,,,,,,,,,,,,,,,,,,,,,,,,,,,,,,,,,,,,,,,,,,,
,,,,,,5b992a5224a3450001fa3454,62c53aa5c5861622af3fff69,2022-07-06_09h39.06.586,Colour_Asymmetry_Pilot,2022.1.3,Win32,60.0132029,62c50e9c1127f2cd403a315f,0,22,22,89,1,onethree,,,,,,,,,,,,,,,,,,,,,,,,,,,,,,,,,,,,,,,,,,,,,,,,,,,,,,,,,,,,,,,,,,,,,,,,,,,,,,,,,,,,,,,,,,,,,,,,,,,,,,,,,,,,,,,,,,,,,,,,,,,,,,,,,,,,,,,,,,,,,,,,,,,,,,,,,,,,,
,,,,,,5b992a5224a3450001fa3454,62c53aa5c5861622af3fff69,2022-07-06_09h39.06.586,Colour_Asymmetry_Pilot,2022.1.3,Win32,60.0132029,62c50e9c1127f2cd403a315f,0,23,23,44,1,threeone,,,,,,,,,,,,,,,,,,,,,,,,,,,,,,,,,,,,,,,,,,,,,,,,,,,,,,,,,,,,,,,,,,,,,,,,,,,,,,,,,,,,,,,,,,,,,,,,,,,,,,,,,,,,,,,,,,,,,,,,,,,,,,,,,,,,,,,,,,,,,,,,,,,,,,,,,,,,,
,,,,,,5b992a5224a3450001fa3454,62c53aa5c5861622af3fff69,2022-07-06_09h39.06.586,Colour_Asymmetry_Pilot,2022.1.3,Win32,60.0132029,62c50e9c1127f2cd403a315f,0,24,24,156,1,threeone,,,,,,,,,,,,,,,,,,,,,,,,,,,,,,,,,,,,,,,,,,,,,,,,,,,,,,,,,,,,,,,,,,,,,,,,,,,,,,,,,,,,,,,,,,,,,,,,,,,,,,,,,,,,,,,,,,,,,,,,,,,,,,,,,,,,,,,,,,,,,,,,,,,,,,,,,,,,,
,,,,,,5b992a5224a3450001fa3454,62c53aa5c5861622af3fff69,2022-07-06_09h39.06.586,Colour_Asymmetry_Pilot,2022.1.3,Win32,60.0132029,62c50e9c1127f2cd403a315f,0,25,25,138,1,twoone,,,,,,,,,,,,,,,,,,,,,,,,,,,,,,,,,,,,,,,,,,,,,,,,,,,,,,,,,,,,,,,,,,,,,,,,,,,,,,,,,,,,,,,,,,,,,,,,,,,,,,,,,,,,,,,,,,,,,,,,,,,,,,,,,,,,,,,,,,,,,,,,,,,,,,,,,,,,,
,,,,,,5b992a5224a3450001fa3454,62c53aa5c5861622af3fff69,2022-07-06_09h39.06.586,Colour_Asymmetry_Pilot,2022.1.3,Win32,60.0132029,62c50e9c1127f2cd403a315f,0,26,26,53,1,threefour,,,,,,,,,,,,,,,,,,,,,,,,,,,,,,,,,,,,,,,,,,,,,,,,,,,,,,,,,,,,,,,,,,,,,,,,,,,,,,,,,,,,,,,,,,,,,,,,,,,,,,,,,,,,,,,,,,,,,,,,,,,,,,,,,,,,,,,,,,,,,,,,,,,,,,,,,,,,,
,,,,,,5b992a5224a3450001fa3454,62c53aa5c5861622af3fff69,2022-07-06_09h39.06.586,Colour_Asymmetry_Pilot,2022.1.3,Win32,60.0132029,62c50e9c1127f2cd403a315f,0,27,27,83,1,twofour,,,,,,,,,,,,,,,,,,,,,,,,,,,,,,,,,,,,,,,,,,,,,,,,,,,,,,,,,,,,,,,,,,,,,,,,,,,,,,,,,,,,,,,,,,,,,,,,,,,,,,,,,,,,,,,,,,,,,,,,,,,,,,,,,,,,,,,,,,,,,,,,,,,,,,,,,,,,,
,,,,,,5b992a5224a3450001fa3454,62c53aa5c5861622af3fff69,2022-07-06_09h39.06.586,Colour_Asymmetry_Pilot,2022.1.3,Win32,60.0132029,62c50e9c1127f2cd403a315f,0,28,28,125,1,threefour,,,,,,,,,,,,,,,,,,,,,,,,,,,,,,,,,,,,,,,,,,,,,,,,,,,,,,,,,,,,,,,,,,,,,,,,,,,,,,,,,,,,,,,,,,,,,,,,,,,,,,,,,,,,,,,,,,,,,,,,,,,,,,,,,,,,,,,,,,,,,,,,,,,,,,,,,,,,,
,,,,,,5b992a5224a3450001fa3454,62c53aa5c5861622af3fff69,2022-07-06_09h39.06.586,Colour_Asymmetry_Pilot,2022.1.3,Win32,60.0132029,62c50e9c1127f2cd403a315f,0,29,29,87,1,fourthree,,,,,,,,,,,,,,,,,,,,,,,,,,,,,,,,,,,,,,,,,,,,,,,,,,,,,,,,,,,,,,,,,,,,,,,,,,,,,,,,,,,,,,,,,,,,,,,,,,,,,,,,,,,,,,,,,,,,,,,,,,,,,,,,,,,,,,,,,,,,,,,,,,,,,,,,,,,,,
,,,,,,5b992a5224a3450001fa3454,62c53aa5c5861622af3fff69,2022-07-06_09h39.06.586,Colour_Asymmetry_Pilot,2022.1.3,Win32,60.0132029,62c50e9c1127f2cd403a315f,0,30,30,99,1,twofour,,,,,,,,,,,,,,,,,,,,,,,,,,,,,,,,,,,,,,,,,,,,,,,,,,,,,,,,,,,,,,,,,,,,,,,,,,,,,,,,,,,,,,,,,,,,,,,,,,,,,,,,,,,,,,,,,,,,,,,,,,,,,,,,,,,,,,,,,,,,,,,,,,,,,,,,,,,,,
,,,,,,5b992a5224a3450001fa3454,62c53aa5c5861622af3fff69,2022-07-06_09h39.06.586,Colour_Asymmetry_Pilot,2022.1.3,Win32,60.0132029,62c50e9c1127f2cd403a315f,0,31,31,36,1,threeone,,,,,,,,,,,,,,,,,,,,,,,,,,,,,,,,,,,,,,,,,,,,,,,,,,,,,,,,,,,,,,,,,,,,,,,,,,,,,,,,,,,,,,,,,,,,,,,,,,,,,,,,,,,,,,,,,,,,,,,,,,,,,,,,,,,,,,,,,,,,,,,,,,,,,,,,,,,,,
,,,,,,5b992a5224a3450001fa3454,62c53aa5c5861622af3fff69,2022-07-06_09h39.06.586,Colour_Asymmetry_Pilot,2022.1.3,Win32,60.0132029,62c50e9c1127f2cd403a315f,0,32,32,94,1,fourtwo,,,,,,,,,,,,,,,,,,,,,,,,,,,,,,,,,,,,,,,,,,,,,,,,,,,,,,,,,,,,,,,,,,,,,,,,,,,,,,,,,,,,,,,,,,,,,,,,,,,,,,,,,,,,,,,,,,,,,,,,,,,,,,,,,,,,,,,,,,,,,,,,,,,,,,,,,,,,,
,,,,,,5b992a5224a3450001fa3454,62c53aa5c5861622af3fff69,2022-07-06_09h39.06.586,Colour_Asymmetry_Pilot,2022.1.3,Win32,60.0132029,62c50e9c1127f2cd403a315f,0,33,33,3,1,twofour,,,,,,,,,,,,,,,,,,,,,,,,,,,,,,,,,,,,,,,,,,,,,,,,,,,,,,,,,,,,,,,,,,,,,,,,,,,,,,,,,,,,,,,,,,,,,,,,,,,,,,,,,,,,,,,,,,,,,,,,,,,,,,,,,,,,,,,,,,,,,,,,,,,,,,,,,,,,,
,,,,,,5b992a5224a3450001fa3454,62c53aa5c5861622af3fff69,2022-07-06_09h39.06.586,Colour_Asymmetry_Pilot,2022.1.3,Win32,60.0132029,62c50e9c1127f2cd403a315f,0,34,34,67,1,twofour,,,,,,,,,,,,,,,,,,,,,,,,,,,,,,,,,,,,,,,,,,,,,,,,,,,,,,,,,,,,,,,,,,,,,,,,,,,,,,,,,,,,,,,,,,,,,,,,,,,,,,,,,,,,,,,,,,,,,,,,,,,,,,,,,,,,,,,,,,,,,,,,,,,,,,,,,,,,,
,,,,,,5b992a5224a3450001fa3454,62c53aa5c5861622af3fff69,2022-07-06_09h39.06.586,Colour_Asymmetry_Pilot,2022.1.3,Win32,60.0132029,62c50e9c1127f2cd403a315f,0,35,35,92,1,threeone,,,,,,,,,,,,,,,,,,,,,,,,,,,,,,,,,,,,,,,,,,,,,,,,,,,,,,,,,,,,,,,,,,,,,,,,,,,,,,,,,,,,,,,,,,,,,,,,,,,,,,,,,,,,,,,,,,,,,,,,,,,,,,,,,,,,,,,,,,,,,,,,,,,,,,,,,,,,,
,,,,,,5b992a5224a3450001fa3454,62c53aa5c5861622af3fff69,2022-07-06_09h39.06.586,Colour_Asymmetry_Pilot,2022.1.3,Win32,60.0132029,62c50e9c1127f2cd403a315f,0,36,36,75,1,twofour,,,,,,,,,,,,,,,,,,,,,,,,,,,,,,,,,,,,,,,,,,,,,,,,,,,,,,,,,,,,,,,,,,,,,,,,,,,,,,,,,,,,,,,,,,,,,,,,,,,,,,,,,,,,,,,,,,,,,,,,,,,,,,,,,,,,,,,,,,,,,,,,,,,,,,,,,,,,,
,,,,,,5b992a5224a3450001fa3454,62c53aa5c5861622af3fff69,2022-07-06_09h39.06.586,Colour_Asymmetry_Pilot,2022.1.3,Win32,60.0132029,62c50e9c1127f2cd403a315f,0,37,37,77,1,threefour,,,,,,,,,,,,,,,,,,,,,,,,,,,,,,,,,,,,,,,,,,,,,,,,,,,,,,,,,,,,,,,,,,,,,,,,,,,,,,,,,,,,,,,,,,,,,,,,,,,,,,,,,,,,,,,,,,,,,,,,,,,,,,,,,,,,,,,,,,,,,,,,,,,,,,,,,,,,,
,,,,,,5b992a5224a3450001fa3454,62c53aa5c5861622af3fff69,2022-07-06_09h39.06.586,Colour_Asymmetry_Pilot,2022.1.3,Win32,60.0132029,62c50e9c1127f2cd403a315f,0,38,38,161,1,onethree,,,,,,,,,,,,,,,,,,,,,,,,,,,,,,,,,,,,,,,,,,,,,,,,,,,,,,,,,,,,,,,,,,,,,,,,,,,,,,,,,,,,,,,,,,,,,,,,,,,,,,,,,,,,,,,,,,,,,,,,,,,,,,,,,,,,,,,,,,,,,,,,,,,,,,,,,,,,,
,,,,,,5b992a5224a3450001fa3454,62c53aa5c5861622af3fff69,2022-07-06_09h39.06.586,Colour_Asymmetry_Pilot,2022.1.3,Win32,60.0132029,62c50e9c1127f2cd403a315f,0,39,39,26,1,twoone,,,,,,,,,,,,,,,,,,,,,,,,,,,,,,,,,,,,,,,,,,,,,,,,,,,,,,,,,,,,,,,,,,,,,,,,,,,,,,,,,,,,,,,,,,,,,,,,,,,,,,,,,,,,,,,,,,,,,,,,,,,,,,,,,,,,,,,,,,,,,,,,,,,,,,,,,,,,,
,,,,,,5b992a5224a3450001fa3454,62c53aa5c5861622af3fff69,2022-07-06_09h39.06.586,Colour_Asymmetry_Pilot,2022.1.3,Win32,60.0132029,62c50e9c1127f2cd403a315f,0,40,40,88,1,onetwo,,,,,,,,,,,,,,,,,,,,,,,,,,,,,,,,,,,,,,,,,,,,,,,,,,,,,,,,,,,,,,,,,,,,,,,,,,,,,,,,,,,,,,,,,,,,,,,,,,,,,,,,,,,,,,,,,,,,,,,,,,,,,,,,,,,,,,,,,,,,,,,,,,,,,,,,,,,,,
,,,,,,5b992a5224a3450001fa3454,62c53aa5c5861622af3fff69,2022-07-06_09h39.06.586,Colour_Asymmetry_Pilot,2022.1.3,Win32,60.0132029,62c50e9c1127f2cd403a315f,0,41,41,140,1,threeone,,,,,,,,,,,,,,,,,,,,,,,,,,,,,,,,,,,,,,,,,,,,,,,,,,,,,,,,,,,,,,,,,,,,,,,,,,,,,,,,,,,,,,,,,,,,,,,,,,,,,,,,,,,,,,,,,,,,,,,,,,,,,,,,,,,,,,,,,,,,,,,,,,,,,,,,,,,,,
,,,,,,5b992a5224a3450001fa3454,62c53aa5c5861622af3fff69,2022-07-06_09h39.06.586,Colour_Asymmetry_Pilot,2022.1.3,Win32,60.0132029,62c50e9c1127f2cd403a315f,0,42,42,107,1,twofour,,,,,,,,,,,,,,,,,,,,,,,,,,,,,,,,,,,,,,,,,,,,,,,,,,,,,,,,,,,,,,,,,,,,,,,,,,,,,,,,,,,,,,,,,,,,,,,,,,,,,,,,,,,,,,,,,,,,,,,,,,,,,,,,,,,,,,,,,,,,,,,,,,,,,,,,,,,,,
,,,,,,5b992a5224a3450001fa3454,62c53aa5c5861622af3fff69,2022-07-06_09h39.06.586,Colour_Asymmetry_Pilot,2022.1.3,Win32,60.0132029,62c50e9c1127f2cd403a315f,0,43,43,6,1,fourtwo,,,,,,,,,,,,,,,,,,,,,,,,,,,,,,,,,,,,,,,,,,,,,,,,,,,,,,,,,,,,,,,,,,,,,,,,,,,,,,,,,,,,,,,,,,,,,,,,,,,,,,,,,,,,,,,,,,,,,,,,,,,,,,,,,,,,,,,,,,,,,,,,,,,,,,,,,,,,,
,,,,,,5b992a5224a3450001fa3454,62c53aa5c5861622af3fff69,2022-07-06_09h39.06.586,Colour_Asymmetry_Pilot,2022.1.3,Win32,60.0132029,62c50e9c1127f2cd403a315f,0,44,44,141,1,threefour,,,,,,,,,,,,,,,,,,,,,,,,,,,,,,,,,,,,,,,,,,,,,,,,,,,,,,,,,,,,,,,,,,,,,,,,,,,,,,,,,,,,,,,,,,,,,,,,,,,,,,,,,,,,,,,,,,,,,,,,,,,,,,,,,,,,,,,,,,,,,,,,,,,,,,,,,,,,,
,,,,,,5b992a5224a3450001fa3454,62c53aa5c5861622af3fff69,2022-07-06_09h39.06.586,Colour_Asymmetry_Pilot,2022.1.3,Win32,60.0132029,62c50e9c1127f2cd403a315f,0,45,45,153,1,onethree,,,,,,,,,,,,,,,,,,,,,,,,,,,,,,,,,,,,,,,,,,,,,,,,,,,,,,,,,,,,,,,,,,,,,,,,,,,,,,,,,,,,,,,,,,,,,,,,,,,,,,,,,,,,,,,,,,,,,,,,,,,,,,,,,,,,,,,,,,,,,,,,,,,,,,,,,,,,,
,,,,,,5b992a5224a3450001fa3454,62c53aa5c5861622af3fff69,2022-07-06_09h39.06.586,Colour_Asymmetry_Pilot,2022.1.3,Win32,60.0132029,62c50e9c1127f2cd403a315f,0,46,46,78,1,fourtwo,,,,,,,,,,,,,,,,,,,,,,,,,,,,,,,,,,,,,,,,,,,,,,,,,,,,,,,,,,,,,,,,,,,,,,,,,,,,,,,,,,,,,,,,,,,,,,,,,,,,,,,,,,,,,,,,,,,,,,,,,,,,,,,,,,,,,,,,,,,,,,,,,,,,,,,,,,,,,
,,,,,,5b992a5224a3450001fa3454,62c53aa5c5861622af3fff69,2022-07-06_09h39.06.586,Colour_Asymmetry_Pilot,2022.1.3,Win32,60.0132029,62c50e9c1127f2cd403a315f,0,47,47,124,1,threeone,,,,,,,,,,,,,,,,,,,,,,,,,,,,,,,,,,,,,,,,,,,,,,,,,,,,,,,,,,,,,,,,,,,,,,,,,,,,,,,,,,,,,,,,,,,,,,,,,,,,,,,,,,,,,,,,,,,,,,,,,,,,,,,,,,,,,,,,,,,,,,,,,,,,,,,,,,,,,
,,,,,,5b992a5224a3450001fa3454,62c53aa5c5861622af3fff69,2022-07-06_09h39.06.586,Colour_Asymmetry_Pilot,2022.1.3,Win32,60.0132029,62c50e9c1127f2cd403a315f,0,48,48,150,1,fourtwo,,,,,,,,,,,,,,,,,,,,,,,,,,,,,,,,,,,,,,,,,,,,,,,,,,,,,,,,,,,,,,,,,,,,,,,,,,,,,,,,,,,,,,,,,,,,,,,,,,,,,,,,,,,,,,,,,,,,,,,,,,,,,,,,,,,,,,,,,,,,,,,,,,,,,,,,,,,,,
,,,,,,5b992a5224a3450001fa3454,62c53aa5c5861622af3fff69,2022-07-06_09h39.06.586,Colour_Asymmetry_Pilot,2022.1.3,Win32,60.0132029,62c50e9c1127f2cd403a315f,0,49,49,160,1,onetwo,,,,,,,,,,,,,,,,,,,,,,,,,,,,,,,,,,,,,,,,,,,,,,,,,,,,,,,,,,,,,,,,,,,,,,,,,,,,,,,,,,,,,,,,,,,,,,,,,,,,,,,,,,,,,,,,,,,,,,,,,,,,,,,,,,,,,,,,,,,,,,,,,,,,,,,,,,,,,
,,,,,,5b992a5224a3450001fa3454,62c53aa5c5861622af3fff69,2022-07-06_09h39.06.586,Colour_Asymmetry_Pilot,2022.1.3,Win32,60.0132029,62c50e9c1127f2cd403a315f,0,50,50,90,1,twoone,,,,,,,,,,,,,,,,,,,,,,,,,,,,,,,,,,,,,,,,,,,,,,,,,,,,,,,,,,,,,,,,,,,,,,,,,,,,,,,,,,,,,,,,,,,,,,,,,,,,,,,,,,,,,,,,,,,,,,,,,,,,,,,,,,,,,,,,,,,,,,,,,,,,,,,,,,,,,
,,,,,,5b992a5224a3450001fa3454,62c53aa5c5861622af3fff69,2022-07-06_09h39.06.586,Colour_Asymmetry_Pilot,2022.1.3,Win32,60.0132029,62c50e9c1127f2cd403a315f,0,51,51,106,1,twoone,,,,,,,,,,,,,,,,,,,,,,,,,,,,,,,,,,,,,,,,,,,,,,,,,,,,,,,,,,,,,,,,,,,,,,,,,,,,,,,,,,,,,,,,,,,,,,,,,,,,,,,,,,,,,,,,,,,,,,,,,,,,,,,,,,,,,,,,,,,,,,,,,,,,,,,,,,,,,
,,,,,,5b992a5224a3450001fa3454,62c53aa5c5861622af3fff69,2022-07-06_09h39.06.586,Colour_Asymmetry_Pilot,2022.1.3,Win32,60.0132029,62c50e9c1127f2cd403a315f,0,52,52,33,1,onethree,,,,,,,,,,,,,,,,,,,,,,,,,,,,,,,,,,,,,,,,,,,,,,,,,,,,,,,,,,,,,,,,,,,,,,,,,,,,,,,,,,,,,,,,,,,,,,,,,,,,,,,,,,,,,,,,,,,,,,,,,,,,,,,,,,,,,,,,,,,,,,,,,,,,,,,,,,,,,
,,,,,,5b992a5224a3450001fa3454,62c53aa5c5861622af3fff69,2022-07-06_09h39.06.586,Colour_Asymmetry_Pilot,2022.1.3,Win32,60.0132029,62c50e9c1127f2cd403a315f,0,53,53,18,1,twoone,,,,,,,,,,,,,,,,,,,,,,,,,,,,,,,,,,,,,,,,,,,,,,,,,,,,,,,,,,,,,,,,,,,,,,,,,,,,,,,,,,,,,,,,,,,,,,,,,,,,,,,,,,,,,,,,,,,,,,,,,,,,,,,,,,,,,,,,,,,,,,,,,,,,,,,,,,,,,
,,,,,,5b992a5224a3450001fa3454,62c53aa5c5861622af3fff69,2022-07-06_09h39.06.586,Colour_Asymmetry_Pilot,2022.1.3,Win32,60.0132029,62c50e9c1127f2cd403a315f,0,54,54,158,1,fourtwo,,,,,,,,,,,,,,,,,,,,,,,,,,,,,,,,,,,,,,,,,,,,,,,,,,,,,,,,,,,,,,,,,,,,,,,,,,,,,,,,,,,,,,,,,,,,,,,,,,,,,,,,,,,,,,,,,,,,,,,,,,,,,,,,,,,,,,,,,,,,,,,,,,,,,,,,,,,,,
,,,,,,5b992a5224a3450001fa3454,62c53aa5c5861622af3fff69,2022-07-06_09h39.06.586,Colour_Asymmetry_Pilot,2022.1.3,Win32,60.0132029,62c50e9c1127f2cd403a315f,0,55,55,142,1,fourtwo,,,,,,,,,,,,,,,,,,,,,,,,,,,,,,,,,,,,,,,,,,,,,,,,,,,,,,,,,,,,,,,,,,,,,,,,,,,,,,,,,,,,,,,,,,,,,,,,,,,,,,,,,,,,,,,,,,,,,,,,,,,,,,,,,,,,,,,,,,,,,,,,,,,,,,,,,,,,,
,,,,,,5b992a5224a3450001fa3454,62c53aa5c5861622af3fff69,2022-07-06_09h39.06.586,Colour_Asymmetry_Pilot,2022.1.3,Win32,60.0132029,62c50e9c1127f2cd403a315f,0,56,56,65,1,onethree,,,,,,,,,,,,,,,,,,,,,,,,,,,,,,,,,,,,,,,,,,,,,,,,,,,,,,,,,,,,,,,,,,,,,,,,,,,,,,,,,,,,,,,,,,,,,,,,,,,,,,,,,,,,,,,,,,,,,,,,,,,,,,,,,,,,,,,,,,,,,,,,,,,,,,,,,,,,,
,,,,,,5b992a5224a3450001fa3454,62c53aa5c5861622af3fff69,2022-07-06_09h39.06.586,Colour_Asymmetry_Pilot,2022.1.3,Win32,60.0132029,62c50e9c1127f2cd403a315f,0,57,57,21,1,threefour,,,,,,,,,,,,,,,,,,,,,,,,,,,,,,,,,,,,,,,,,,,,,,,,,,,,,,,,,,,,,,,,,,,,,,,,,,,,,,,,,,,,,,,,,,,,,,,,,,,,,,,,,,,,,,,,,,,,,,,,,,,,,,,,,,,,,,,,,,,,,,,,,,,,,,,,,,,,,
,,,,,,5b992a5224a3450001fa3454,62c53aa5c5861622af3fff69,2022-07-06_09h39.06.586,Colour_Asymmetry_Pilot,2022.1.3,Win32,60.0132029,62c50e9c1127f2cd403a315f,0,58,58,113,1,onethree,,,,,,,,,,,,,,,,,,,,,,,,,,,,,,,,,,,,,,,,,,,,,,,,,,,,,,,,,,,,,,,,,,,,,,,,,,,,,,,,,,,,,,,,,,,,,,,,,,,,,,,,,,,,,,,,,,,,,,,,,,,,,,,,,,,,,,,,,,,,,,,,,,,,,,,,,,,,,
,,,,,,5b992a5224a3450001fa3454,62c53aa5c5861622af3fff69,2022-07-06_09h39.06.586,Colour_Asymmetry_Pilot,2022.1.3,Win32,60.0132029,62c50e9c1127f2cd403a315f,0,59,59,97,1,onethree,,,,,,,,,,,,,,,,,,,,,,,,,,,,,,,,,,,,,,,,,,,,,,,,,,,,,,,,,,,,,,,,,,,,,,,,,,,,,,,,,,,,,,,,,,,,,,,,,,,,,,,,,,,,,,,,,,,,,,,,,,,,,,,,,,,,,,,,,,,,,,,,,,,,,,,,,,,,,
,,,,,,5b992a5224a3450001fa3454,62c53aa5c5861622af3fff69,2022-07-06_09h39.06.586,Colour_Asymmetry_Pilot,2022.1.3,Win32,60.0132029,62c50e9c1127f2cd403a315f,0,60,60,27,1,twofour,,,,,,,,,,,,,,,,,,,,,,,,,,,,,,,,,,,,,,,,,,,,,,,,,,,,,,,,,,,,,,,,,,,,,,,,,,,,,,,,,,,,,,,,,,,,,,,,,,,,,,,,,,,,,,,,,,,,,,,,,,,,,,,,,,,,,,,,,,,,,,,,,,,,,,,,,,,,,
,,,,,,5b992a5224a3450001fa3454,62c53aa5c5861622af3fff69,2022-07-06_09h39.06.586,Colour_Asymmetry_Pilot,2022.1.3,Win32,60.0132029,62c50e9c1127f2cd403a315f,0,61,61,100,1,threeone,,,,,,,,,,,,,,,,,,,,,,,,,,,,,,,,,,,,,,,,,,,,,,,,,,,,,,,,,,,,,,,,,,,,,,,,,,,,,,,,,,,,,,,,,,,,,,,,,,,,,,,,,,,,,,,,,,,,,,,,,,,,,,,,,,,,,,,,,,,,,,,,,,,,,,,,,,,,,
,,,,,,5b992a5224a3450001fa3454,62c53aa5c5861622af3fff69,2022-07-06_09h39.06.586,Colour_Asymmetry_Pilot,2022.1.3,Win32,60.0132029,62c50e9c1127f2cd403a315f,0,62,62,9,1,onethree,,,,,,,,,,,,,,,,,,,,,,,,,,,,,,,,,,,,,,,,,,,,,,,,,,,,,,,,,,,,,,,,,,,,,,,,,,,,,,,,,,,,,,,,,,,,,,,,,,,,,,,,,,,,,,,,,,,,,,,,,,,,,,,,,,,,,,,,,,,,,,,,,,,,,,,,,,,,,
,,,,,,5b992a5224a3450001fa3454,62c53aa5c5861622af3fff69,2022-07-06_09h39.06.586,Colour_Asymmetry_Pilot,2022.1.3,Win32,60.0132029,62c50e9c1127f2cd403a315f,0,63,63,63,1,fourthree,,,,,,,,,,,,,,,,,,,,,,,,,,,,,,,,,,,,,,,,,,,,,,,,,,,,,,,,,,,,,,,,,,,,,,,,,,,,,,,,,,,,,,,,,,,,,,,,,,,,,,,,,,,,,,,,,,,,,,,,,,,,,,,,,,,,,,,,,,,,,,,,,,,,,,,,,,,,,
,,,,,,5b992a5224a3450001fa3454,62c53aa5c5861622af3fff69,2022-07-06_09h39.06.586,Colour_Asymmetry_Pilot,2022.1.3,Win32,60.0132029,62c50e9c1127f2cd403a315f,0,64,64,127,1,fourthree,,,,,,,,,,,,,,,,,,,,,,,,,,,,,,,,,,,,,,,,,,,,,,,,,,,,,,,,,,,,,,,,,,,,,,,,,,,,,,,,,,,,,,,,,,,,,,,,,,,,,,,,,,,,,,,,,,,,,,,,,,,,,,,,,,,,,,,,,,,,,,,,,,,,,,,,,,,,,
,,,,,,5b992a5224a3450001fa3454,62c53aa5c5861622af3fff69,2022-07-06_09h39.06.586,Colour_Asymmetry_Pilot,2022.1.3,Win32,60.0132029,62c50e9c1127f2cd403a315f,0,65,65,41,1,onethree,,,,,,,,,,,,,,,,,,,,,,,,,,,,,,,,,,,,,,,,,,,,,,,,,,,,,,,,,,,,,,,,,,,,,,,,,,,,,,,,,,,,,,,,,,,,,,,,,,,,,,,,,,,,,,,,,,,,,,,,,,,,,,,,,,,,,,,,,,,,,,,,,,,,,,,,,,,,,
,,,,,,5b992a5224a3450001fa3454,62c53aa5c5861622af3fff69,2022-07-06_09h39.06.586,Colour_Asymmetry_Pilot,2022.1.3,Win32,60.0132029,62c50e9c1127f2cd403a315f,0,66,66,120,1,onetwo,,,,,,,,,,,,,,,,,,,,,,,,,,,,,,,,,,,,,,,,,,,,,,,,,,,,,,,,,,,,,,,,,,,,,,,,,,,,,,,,,,,,,,,,,,,,,,,,,,,,,,,,,,,,,,,,,,,,,,,,,,,,,,,,,,,,,,,,,,,,,,,,,,,,,,,,,,,,,
,,,,,,5b992a5224a3450001fa3454,62c53aa5c5861622af3fff69,2022-07-06_09h39.06.586,Colour_Asymmetry_Pilot,2022.1.3,Win32,60.0132029,62c50e9c1127f2cd403a315f,0,67,67,143,1,fourthree,,,,,,,,,,,,,,,,,,,,,,,,,,,,,,,,,,,,,,,,,,,,,,,,,,,,,,,,,,,,,,,,,,,,,,,,,,,,,,,,,,,,,,,,,,,,,,,,,,,,,,,,,,,,,,,,,,,,,,,,,,,,,,,,,,,,,,,,,,,,,,,,,,,,,,,,,,,,,
,,,,,,5b992a5224a3450001fa3454,62c53aa5c5861622af3fff69,2022-07-06_09h39.06.586,Colour_Asymmetry_Pilot,2022.1.3,Win32,60.0132029,62c50e9c1127f2cd403a315f,0,68,68,13,1,threefour,,,,,,,,,,,,,,,,,,,,,,,,,,,,,,,,,,,,,,,,,,,,,,,,,,,,,,,,,,,,,,,,,,,,,,,,,,,,,,,,,,,,,,,,,,,,,,,,,,,,,,,,,,,,,,,,,,,,,,,,,,,,,,,,,,,,,,,,,,,,,,,,,,,,,,,,,,,,,
,,,,,,5b992a5224a3450001fa3454,62c53aa5c5861622af3fff69,2022-07-06_09h39.06.586,Colour_Asymmetry_Pilot,2022.1.3,Win32,60.0132029,62c50e9c1127f2cd403a315f,0,69,69,116,1,threeone,,,,,,,,,,,,,,,,,,,,,,,,,,,,,,,,,,,,,,,,,,,,,,,,,,,,,,,,,,,,,,,,,,,,,,,,,,,,,,,,,,,,,,,,,,,,,,,,,,,,,,,,,,,,,,,,,,,,,,,,,,,,,,,,,,,,,,,,,,,,,,,,,,,,,,,,,,,,,
,,,,,,5b992a5224a3450001fa3454,62c53aa5c5861622af3fff69,2022-07-06_09h39.06.586,Colour_Asymmetry_Pilot,2022.1.3,Win32,60.0132029,62c50e9c1127f2cd403a315f,0,70,70,152,1,onetwo,,,,,,,,,,,,,,,,,,,,,,,,,,,,,,,,,,,,,,,,,,,,,,,,,,,,,,,,,,,,,,,,,,,,,,,,,,,,,,,,,,,,,,,,,,,,,,,,,,,,,,,,,,,,,,,,,,,,,,,,,,,,,,,,,,,,,,,,,,,,,,,,,,,,,,,,,,,,,
,,,,,,5b992a5224a3450001fa3454,62c53aa5c5861622af3fff69,2022-07-06_09h39.06.586,Colour_Asymmetry_Pilot,2022.1.3,Win32,60.0132029,62c50e9c1127f2cd403a315f,0,71,71,80,1,onetwo,,,,,,,,,,,,,,,,,,,,,,,,,,,,,,,,,,,,,,,,,,,,,,,,,,,,,,,,,,,,,,,,,,,,,,,,,,,,,,,,,,,,,,,,,,,,,,,,,,,,,,,,,,,,,,,,,,,,,,,,,,,,,,,,,,,,,,,,,,,,,,,,,,,,,,,,,,,,,
,,,,,,5b992a5224a3450001fa3454,62c53aa5c5861622af3fff69,2022-07-06_09h39.06.586,Colour_Asymmetry_Pilot,2022.1.3,Win32,60.0132029,62c50e9c1127f2cd403a315f,0,72,72,64,1,onetwo,,,,,,,,,,,,,,,,,,,,,,,,,,,,,,,,,,,,,,,,,,,,,,,,,,,,,,,,,,,,,,,,,,,,,,,,,,,,,,,,,,,,,,,,,,,,,,,,,,,,,,,,,,,,,,,,,,,,,,,,,,,,,,,,,,,,,,,,,,,,,,,,,,,,,,,,,,,,,
,,,,,,5b992a5224a3450001fa3454,62c53aa5c5861622af3fff69,2022-07-06_09h39.06.586,Colour_Asymmetry_Pilot,2022.1.3,Win32,60.0132029,62c50e9c1127f2cd403a315f,0,73,73,58,1,twoone,,,,,,,,,,,,,,,,,,,,,,,,,,,,,,,,,,,,,,,,,,,,,,,,,,,,,,,,,,,,,,,,,,,,,,,,,,,,,,,,,,,,,,,,,,,,,,,,,,,,,,,,,,,,,,,,,,,,,,,,,,,,,,,,,,,,,,,,,,,,,,,,,,,,,,,,,,,,,
,,,,,,5b992a5224a3450001fa3454,62c53aa5c5861622af3fff69,2022-07-06_09h39.06.586,Colour_Asymmetry_Pilot,2022.1.3,Win32,60.0132029,62c50e9c1127f2cd403a315f,0,74,74,47,1,fourthree,,,,,,,,,,,,,,,,,,,,,,,,,,,,,,,,,,,,,,,,,,,,,,,,,,,,,,,,,,,,,,,,,,,,,,,,,,,,,,,,,,,,,,,,,,,,,,,,,,,,,,,,,,,,,,,,,,,,,,,,,,,,,,,,,,,,,,,,,,,,,,,,,,,,,,,,,,,,,
,,,,,,5b992a5224a3450001fa3454,62c53aa5c5861622af3fff69,2022-07-06_09h39.06.586,Colour_Asymmetry_Pilot,2022.1.3,Win32,60.0132029,62c50e9c1127f2cd403a315f,0,75,75,136,1,onetwo,,,,,,,,,,,,,,,,,,,,,,,,,,,,,,,,,,,,,,,,,,,,,,,,,,,,,,,,,,,,,,,,,,,,,,,,,,,,,,,,,,,,,,,,,,,,,,,,,,,,,,,,,,,,,,,,,,,,,,,,,,,,,,,,,,,,,,,,,,,,,,,,,,,,,,,,,,,,,
,,,,,,5b992a5224a3450001fa3454,62c53aa5c5861622af3fff69,2022-07-06_09h39.06.586,Colour_Asymmetry_Pilot,2022.1.3,Win32,60.0132029,62c50e9c1127f2cd403a315f,0,76,76,81,1,onethree,,,,,,,,,,,,,,,,,,,,,,,,,,,,,,,,,,,,,,,,,,,,,,,,,,,,,,,,,,,,,,,,,,,,,,,,,,,,,,,,,,,,,,,,,,,,,,,,,,,,,,,,,,,,,,,,,,,,,,,,,,,,,,,,,,,,,,,,,,,,,,,,,,,,,,,,,,,,,
,,,,,,5b992a5224a3450001fa3454,62c53aa5c5861622af3fff69,2022-07-06_09h39.06.586,Colour_Asymmetry_Pilot,2022.1.3,Win32,60.0132029,62c50e9c1127f2cd403a315f,0,77,77,144,1,onetwo,,,,,,,,,,,,,,,,,,,,,,,,,,,,,,,,,,,,,,,,,,,,,,,,,,,,,,,,,,,,,,,,,,,,,,,,,,,,,,,,,,,,,,,,,,,,,,,,,,,,,,,,,,,,,,,,,,,,,,,,,,,,,,,,,,,,,,,,,,,,,,,,,,,,,,,,,,,,,
,,,,,,5b992a5224a3450001fa3454,62c53aa5c5861622af3fff69,2022-07-06_09h39.06.586,Colour_Asymmetry_Pilot,2022.1.3,Win32,60.0132029,62c50e9c1127f2cd403a315f,0,78,78,111,1,fourthree,,,,,,,,,,,,,,,,,,,,,,,,,,,,,,,,,,,,,,,,,,,,,,,,,,,,,,,,,,,,,,,,,,,,,,,,,,,,,,,,,,,,,,,,,,,,,,,,,,,,,,,,,,,,,,,,,,,,,,,,,,,,,,,,,,,,,,,,,,,,,,,,,,,,,,,,,,,,,
,,,,,,5b992a5224a3450001fa3454,62c53aa5c5861622af3fff69,2022-07-06_09h39.06.586,Colour_Asymmetry_Pilot,2022.1.3,Win32,60.0132029,62c50e9c1127f2cd403a315f,0,79,79,2,1,twoone,,,,,,,,,,,,,,,,,,,,,,,,,,,,,,,,,,,,,,,,,,,,,,,,,,,,,,,,,,,,,,,,,,,,,,,,,,,,,,,,,,,,,,,,,,,,,,,,,,,,,,,,,,,,,,,,,,,,,,,,,,,,,,,,,,,,,,,,,,,,,,,,,,,,,,,,,,,,,
,,,,,,5b992a5224a3450001fa3454,62c53aa5c5861622af3fff69,2022-07-06_09h39.06.586,Colour_Asymmetry_Pilot,2022.1.3,Win32,60.0132029,62c50e9c1127f2cd403a315f,0,80,80,96,1,onetwo,,,,,,,,,,,,,,,,,,,,,,,,,,,,,,,,,,,,,,,,,,,,,,,,,,,,,,,,,,,,,,,,,,,,,,,,,,,,,,,,,,,,,,,,,,,,,,,,,,,,,,,,,,,,,,,,,,,,,,,,,,,,,,,,,,,,,,,,,,,,,,,,,,,,,,,,,,,,,
,,,,,,5b992a5224a3450001fa3454,62c53aa5c5861622af3fff69,2022-07-06_09h39.06.586,Colour_Asymmetry_Pilot,2022.1.3,Win32,60.0132029,62c50e9c1127f2cd403a315f,0,81,81,126,1,fourtwo,,,,,,,,,,,,,,,,,,,,,,,,,,,,,,,,,,,,,,,,,,,,,,,,,,,,,,,,,,,,,,,,,,,,,,,,,,,,,,,,,,,,,,,,,,,,,,,,,,,,,,,,,,,,,,,,,,,,,,,,,,,,,,,,,,,,,,,,,,,,,,,,,,,,,,,,,,,,,
,,,,,,5b992a5224a3450001fa3454,62c53aa5c5861622af3fff69,2022-07-06_09h39.06.586,Colour_Asymmetry_Pilot,2022.1.3,Win32,60.0132029,62c50e9c1127f2cd403a315f,0,82,82,109,1,threefour,,,,,,,,,,,,,,,,,,,,,,,,,,,,,,,,,,,,,,,,,,,,,,,,,,,,,,,,,,,,,,,,,,,,,,,,,,,,,,,,,,,,,,,,,,,,,,,,,,,,,,,,,,,,,,,,,,,,,,,,,,,,,,,,,,,,,,,,,,,,,,,,,,,,,,,,,,,,,
,,,,,,5b992a5224a3450001fa3454,62c53aa5c5861622af3fff69,2022-07-06_09h39.06.586,Colour_Asymmetry_Pilot,2022.1.3,Win32,60.0132029,62c50e9c1127f2cd403a315f,0,83,83,16,1,onetwo,,,,,,,,,,,,,,,,,,,,,,,,,,,,,,,,,,,,,,,,,,,,,,,,,,,,,,,,,,,,,,,,,,,,,,,,,,,,,,,,,,,,,,,,,,,,,,,,,,,,,,,,,,,,,,,,,,,,,,,,,,,,,,,,,,,,,,,,,,,,,,,,,,,,,,,,,,,,,
,,,,,,5b992a5224a3450001fa3454,62c53aa5c5861622af3fff69,2022-07-06_09h39.06.586,Colour_Asymmetry_Pilot,2022.1.3,Win32,60.0132029,62c50e9c1127f2cd403a315f,0,84,84,128,1,onetwo,,,,,,,,,,,,,,,,,,,,,,,,,,,,,,,,,,,,,,,,,,,,,,,,,,,,,,,,,,,,,,,,,,,,,,,,,,,,,,,,,,,,,,,,,,,,,,,,,,,,,,,,,,,,,,,,,,,,,,,,,,,,,,,,,,,,,,,,,,,,,,,,,,,,,,,,,,,,,
,,,,,,5b992a5224a3450001fa3454,62c53aa5c5861622af3fff69,2022-07-06_09h39.06.586,Colour_Asymmetry_Pilot,2022.1.3,Win32,60.0132029,62c50e9c1127f2cd403a315f,0,85,85,52,1,threeone,,,,,,,,,,,,,,,,,,,,,,,,,,,,,,,,,,,,,,,,,,,,,,,,,,,,,,,,,,,,,,,,,,,,,,,,,,,,,,,,,,,,,,,,,,,,,,,,,,,,,,,,,,,,,,,,,,,,,,,,,,,,,,,,,,,,,,,,,,,,,,,,,,,,,,,,,,,,,
,,,,,,5b992a5224a3450001fa3454,62c53aa5c5861622af3fff69,2022-07-06_09h39.06.586,Colour_Asymmetry_Pilot,2022.1.3,Win32,60.0132029,62c50e9c1127f2cd403a315f,0,86,86,103,1,fourthree,,,,,,,,,,,,,,,,,,,,,,,,,,,,,,,,,,,,,,,,,,,,,,,,,,,,,,,,,,,,,,,,,,,,,,,,,,,,,,,,,,,,,,,,,,,,,,,,,,,,,,,,,,,,,,,,,,,,,,,,,,,,,,,,,,,,,,,,,,,,,,,,,,,,,,,,,,,,,
,,,,,,5b992a5224a3450001fa3454,62c53aa5c5861622af3fff69,2022-07-06_09h39.06.586,Colour_Asymmetry_Pilot,2022.1.3,Win32,60.0132029,62c50e9c1127f2cd403a315f,0,87,87,146,1,twoone,,,,,,,,,,,,,,,,,,,,,,,,,,,,,,,,,,,,,,,,,,,,,,,,,,,,,,,,,,,,,,,,,,,,,,,,,,,,,,,,,,,,,,,,,,,,,,,,,,,,,,,,,,,,,,,,,,,,,,,,,,,,,,,,,,,,,,,,,,,,,,,,,,,,,,,,,,,,,
,,,,,,5b992a5224a3450001fa3454,62c53aa5c5861622af3fff69,2022-07-06_09h39.06.586,Colour_Asymmetry_Pilot,2022.1.3,Win32,60.0132029,62c50e9c1127f2cd403a315f,0,88,88,12,1,threeone,,,,,,,,,,,,,,,,,,,,,,,,,,,,,,,,,,,,,,,,,,,,,,,,,,,,,,,,,,,,,,,,,,,,,,,,,,,,,,,,,,,,,,,,,,,,,,,,,,,,,,,,,,,,,,,,,,,,,,,,,,,,,,,,,,,,,,,,,,,,,,,,,,,,,,,,,,,,,
,,,,,,5b992a5224a3450001fa3454,62c53aa5c5861622af3fff69,2022-07-06_09h39.06.586,Colour_Asymmetry_Pilot,2022.1.3,Win32,60.0132029,62c50e9c1127f2cd403a315f,0,89,89,48,1,onetwo,,,,,,,,,,,,,,,,,,,,,,,,,,,,,,,,,,,,,,,,,,,,,,,,,,,,,,,,,,,,,,,,,,,,,,,,,,,,,,,,,,,,,,,,,,,,,,,,,,,,,,,,,,,,,,,,,,,,,,,,,,,,,,,,,,,,,,,,,,,,,,,,,,,,,,,,,,,,,
,,,,,,5b992a5224a3450001fa3454,62c53aa5c5861622af3fff69,2022-07-06_09h39.06.586,Colour_Asymmetry_Pilot,2022.1.3,Win32,60.0132029,62c50e9c1127f2cd403a315f,0,90,90,121,1,onethree,,,,,,,,,,,,,,,,,,,,,,,,,,,,,,,,,,,,,,,,,,,,,,,,,,,,,,,,,,,,,,,,,,,,,,,,,,,,,,,,,,,,,,,,,,,,,,,,,,,,,,,,,,,,,,,,,,,,,,,,,,,,,,,,,,,,,,,,,,,,,,,,,,,,,,,,,,,,,
,,,,,,5b992a5224a3450001fa3454,62c53aa5c5861622af3fff69,2022-07-06_09h39.06.586,Colour_Asymmetry_Pilot,2022.1.3,Win32,60.0132029,62c50e9c1127f2cd403a315f,0,91,91,79,1,fourthree,,,,,,,,,,,,,,,,,,,,,,,,,,,,,,,,,,,,,,,,,,,,,,,,,,,,,,,,,,,,,,,,,,,,,,,,,,,,,,,,,,,,,,,,,,,,,,,,,,,,,,,,,,,,,,,,,,,,,,,,,,,,,,,,,,,,,,,,,,,,,,,,,,,,,,,,,,,,,
,,,,,,5b992a5224a3450001fa3454,62c53aa5c5861622af3fff69,2022-07-06_09h39.06.586,Colour_Asymmetry_Pilot,2022.1.3,Win32,60.0132029,62c50e9c1127f2cd403a315f,0,92,92,93,1,threefour,,,,,,,,,,,,,,,,,,,,,,,,,,,,,,,,,,,,,,,,,,,,,,,,,,,,,,,,,,,,,,,,,,,,,,,,,,,,,,,,,,,,,,,,,,,,,,,,,,,,,,,,,,,,,,,,,,,,,,,,,,,,,,,,,,,,,,,,,,,,,,,,,,,,,,,,,,,,,
,,,,,,5b992a5224a3450001fa3454,62c53aa5c5861622af3fff69,2022-07-06_09h39.06.586,Colour_Asymmetry_Pilot,2022.1.3,Win32,60.0132029,62c50e9c1127f2cd403a315f,0,93,93,61,1,threefour,,,,,,,,,,,,,,,,,,,,,,,,,,,,,,,,,,,,,,,,,,,,,,,,,,,,,,,,,,,,,,,,,,,,,,,,,,,,,,,,,,,,,,,,,,,,,,,,,,,,,,,,,,,,,,,,,,,,,,,,,,,,,,,,,,,,,,,,,,,,,,,,,,,,,,,,,,,,,
,,,,,,5b992a5224a3450001fa3454,62c53aa5c5861622af3fff69,2022-07-06_09h39.06.586,Colour_Asymmetry_Pilot,2022.1.3,Win32,60.0132029,62c50e9c1127f2cd403a315f,0,94,94,154,1,twoone,,,,,,,,,,,,,,,,,,,,,,,,,,,,,,,,,,,,,,,,,,,,,,,,,,,,,,,,,,,,,,,,,,,,,,,,,,,,,,,,,,,,,,,,,,,,,,,,,,,,,,,,,,,,,,,,,,,,,,,,,,,,,,,,,,,,,,,,,,,,,,,,,,,,,,,,,,,,,
,,,,,,5b992a5224a3450001fa3454,62c53aa5c5861622af3fff69,2022-07-06_09h39.06.586,Colour_Asymmetry_Pilot,2022.1.3,Win32,60.0132029,62c50e9c1127f2cd403a315f,0,95,95,84,1,threeone,,,,,,,,,,,,,,,,,,,,,,,,,,,,,,,,,,,,,,,,,,,,,,,,,,,,,,,,,,,,,,,,,,,,,,,,,,,,,,,,,,,,,,,,,,,,,,,,,,,,,,,,,,,,,,,,,,,,,,,,,,,,,,,,,,,,,,,,,,,,,,,,,,,,,,,,,,,,,
,,,,,,5b992a5224a3450001fa3454,62c53aa5c5861622af3fff69,2022-07-06_09h39.06.586,Colour_Asymmetry_Pilot,2022.1.3,Win32,60.0132029,62c50e9c1127f2cd403a315f,0,96,96,130,1,twoone,,,,,,,,,,,,,,,,,,,,,,,,,,,,,,,,,,,,,,,,,,,,,,,,,,,,,,,,,,,,,,,,,,,,,,,,,,,,,,,,,,,,,,,,,,,,,,,,,,,,,,,,,,,,,,,,,,,,,,,,,,,,,,,,,,,,,,,,,,,,,,,,,,,,,,,,,,,,,
,,,,,,5b992a5224a3450001fa3454,62c53aa5c5861622af3fff69,2022-07-06_09h39.06.586,Colour_Asymmetry_Pilot,2022.1.3,Win32,60.0132029,62c50e9c1127f2cd403a315f,0,97,97,122,1,twoone,,,,,,,,,,,,,,,,,,,,,,,,,,,,,,,,,,,,,,,,,,,,,,,,,,,,,,,,,,,,,,,,,,,,,,,,,,,,,,,,,,,,,,,,,,,,,,,,,,,,,,,,,,,,,,,,,,,,,,,,,,,,,,,,,,,,,,,,,,,,,,,,,,,,,,,,,,,,,
,,,,,,5b992a5224a3450001fa3454,62c53aa5c5861622af3fff69,2022-07-06_09h39.06.586,Colour_Asymmetry_Pilot,2022.1.3,Win32,60.0132029,62c50e9c1127f2cd403a315f,0,98,98,23,1,fourthree,,,,,,,,,,,,,,,,,,,,,,,,,,,,,,,,,,,,,,,,,,,,,,,,,,,,,,,,,,,,,,,,,,,,,,,,,,,,,,,,,,,,,,,,,,,,,,,,,,,,,,,,,,,,,,,,,,,,,,,,,,,,,,,,,,,,,,,,,,,,,,,,,,,,,,,,,,,,,
,,,,,,5b992a5224a3450001fa3454,62c53aa5c5861622af3fff69,2022-07-06_09h39.06.586,Colour_Asymmetry_Pilot,2022.1.3,Win32,60.0132029,62c50e9c1127f2cd403a315f,0,99,99,132,1,threeone,,,,,,,,,,,,,,,,,,,,,,,,,,,,,,,,,,,,,,,,,,,,,,,,,,,,,,,,,,,,,,,,,,,,,,,,,,,,,,,,,,,,,,,,,,,,,,,,,,,,,,,,,,,,,,,,,,,,,,,,,,,,,,,,,,,,,,,,,,,,,,,,,,,,,,,,,,,,,
,,,,,,5b992a5224a3450001fa3454,62c53aa5c5861622af3fff69,2022-07-06_09h39.06.586,Colour_Asymmetry_Pilot,2022.1.3,Win32,60.0132029,62c50e9c1127f2cd403a315f,0,100,100,117,1,threefour,,,,,,,,,,,,,,,,,,,,,,,,,,,,,,,,,,,,,,,,,,,,,,,,,,,,,,,,,,,,,,,,,,,,,,,,,,,,,,,,,,,,,,,,,,,,,,,,,,,,,,,,,,,,,,,,,,,,,,,,,,,,,,,,,,,,,,,,,,,,,,,,,,,,,,,,,,,,,
,,,,,,5b992a5224a3450001fa3454,62c53aa5c5861622af3fff69,2022-07-06_09h39.06.586,Colour_Asymmetry_Pilot,2022.1.3,Win32,60.0132029,62c50e9c1127f2cd403a315f,0,101,101,135,1,fourthree,,,,,,,,,,,,,,,,,,,,,,,,,,,,,,,,,,,,,,,,,,,,,,,,,,,,,,,,,,,,,,,,,,,,,,,,,,,,,,,,,,,,,,,,,,,,,,,,,,,,,,,,,,,,,,,,,,,,,,,,,,,,,,,,,,,,,,,,,,,,,,,,,,,,,,,,,,,,,
,,,,,,5b992a5224a3450001fa3454,62c53aa5c5861622af3fff69,2022-07-06_09h39.06.586,Colour_Asymmetry_Pilot,2022.1.3,Win32,60.0132029,62c50e9c1127f2cd403a315f,0,102,102,46,1,fourtwo,,,,,,,,,,,,,,,,,,,,,,,,,,,,,,,,,,,,,,,,,,,,,,,,,,,,,,,,,,,,,,,,,,,,,,,,,,,,,,,,,,,,,,,,,,,,,,,,,,,,,,,,,,,,,,,,,,,,,,,,,,,,,,,,,,,,,,,,,,,,,,,,,,,,,,,,,,,,,
,,,,,,5b992a5224a3450001fa3454,62c53aa5c5861622af3fff69,2022-07-06_09h39.06.586,Colour_Asymmetry_Pilot,2022.1.3,Win32,60.0132029,62c50e9c1127f2cd403a315f,0,103,103,104,1,onetwo,,,,,,,,,,,,,,,,,,,,,,,,,,,,,,,,,,,,,,,,,,,,,,,,,,,,,,,,,,,,,,,,,,,,,,,,,,,,,,,,,,,,,,,,,,,,,,,,,,,,,,,,,,,,,,,,,,,,,,,,,,,,,,,,,,,,,,,,,,,,,,,,,,,,,,,,,,,,,
,,,,,,5b992a5224a3450001fa3454,62c53aa5c5861622af3fff69,2022-07-06_09h39.06.586,Colour_Asymmetry_Pilot,2022.1.3,Win32,60.0132029,62c50e9c1127f2cd403a315f,0,104,104,139,1,twofour,,,,,,,,,,,,,,,,,,,,,,,,,,,,,,,,,,,,,,,,,,,,,,,,,,,,,,,,,,,,,,,,,,,,,,,,,,,,,,,,,,,,,,,,,,,,,,,,,,,,,,,,,,,,,,,,,,,,,,,,,,,,,,,,,,,,,,,,,,,,,,,,,,,,,,,,,,,,,
,,,,,,5b992a5224a3450001fa3454,62c53aa5c5861622af3fff69,2022-07-06_09h39.06.586,Colour_Asymmetry_Pilot,2022.1.3,Win32,60.0132029,62c50e9c1127f2cd403a315f,0,105,105,157,1,threefour,,,,,,,,,,,,,,,,,,,,,,,,,,,,,,,,,,,,,,,,,,,,,,,,,,,,,,,,,,,,,,,,,,,,,,,,,,,,,,,,,,,,,,,,,,,,,,,,,,,,,,,,,,,,,,,,,,,,,,,,,,,,,,,,,,,,,,,,,,,,,,,,,,,,,,,,,,,,,
,,,,,,5b992a5224a3450001fa3454,62c53aa5c5861622af3fff69,2022-07-06_09h39.06.586,Colour_Asymmetry_Pilot,2022.1.3,Win32,60.0132029,62c50e9c1127f2cd403a315f,0,106,106,108,1,threeone,,,,,,,,,,,,,,,,,,,,,,,,,,,,,,,,,,,,,,,,,,,,,,,,,,,,,,,,,,,,,,,,,,,,,,,,,,,,,,,,,,,,,,,,,,,,,,,,,,,,,,,,,,,,,,,,,,,,,,,,,,,,,,,,,,,,,,,,,,,,,,,,,,,,,,,,,,,,,
,,,,,,5b992a5224a3450001fa3454,62c53aa5c5861622af3fff69,2022-07-06_09h39.06.586,Colour_Asymmetry_Pilot,2022.1.3,Win32,60.0132029,62c50e9c1127f2cd403a315f,0,107,107,105,1,onethree,,,,,,,,,,,,,,,,,,,,,,,,,,,,,,,,,,,,,,,,,,,,,,,,,,,,,,,,,,,,,,,,,,,,,,,,,,,,,,,,,,,,,,,,,,,,,,,,,,,,,,,,,,,,,,,,,,,,,,,,,,,,,,,,,,,,,,,,,,,,,,,,,,,,,,,,,,,,,
,,,,,,5b992a5224a3450001fa3454,62c53aa5c5861622af3fff69,2022-07-06_09h39.06.586,Colour_Asymmetry_Pilot,2022.1.3,Win32,60.0132029,62c50e9c1127f2cd403a315f,0,108,108,82,1,twoone,,,,,,,,,,,,,,,,,,,,,,,,,,,,,,,,,,,,,,,,,,,,,,,,,,,,,,,,,,,,,,,,,,,,,,,,,,,,,,,,,,,,,,,,,,,,,,,,,,,,,,,,,,,,,,,,,,,,,,,,,,,,,,,,,,,,,,,,,,,,,,,,,,,,,,,,,,,,,
,,,,,,5b992a5224a3450001fa3454,62c53aa5c5861622af3fff69,2022-07-06_09h39.06.586,Colour_Asymmetry_Pilot,2022.1.3,Win32,60.0132029,62c50e9c1127f2cd403a315f,0,109,109,56,1,onetwo,,,,,,,,,,,,,,,,,,,,,,,,,,,,,,,,,,,,,,,,,,,,,,,,,,,,,,,,,,,,,,,,,,,,,,,,,,,,,,,,,,,,,,,,,,,,,,,,,,,,,,,,,,,,,,,,,,,,,,,,,,,,,,,,,,,,,,,,,,,,,,,,,,,,,,,,,,,,,
,,,,,,5b992a5224a3450001fa3454,62c53aa5c5861622af3fff69,2022-07-06_09h39.06.586,Colour_Asymmetry_Pilot,2022.1.3,Win32,60.0132029,62c50e9c1127f2cd403a315f,0,110,110,110,1,fourtwo,,,,,,,,,,,,,,,,,,,,,,,,,,,,,,,,,,,,,,,,,,,,,,,,,,,,,,,,,,,,,,,,,,,,,,,,,,,,,,,,,,,,,,,,,,,,,,,,,,,,,,,,,,,,,,,,,,,,,,,,,,,,,,,,,,,,,,,,,,,,,,,,,,,,,,,,,,,,,
,,,,,,5b992a5224a3450001fa3454,62c53aa5c5861622af3fff69,2022-07-06_09h39.06.586,Colour_Asymmetry_Pilot,2022.1.3,Win32,60.0132029,62c50e9c1127f2cd403a315f,0,111,111,7,1,fourthree,,,,,,,,,,,,,,,,,,,,,,,,,,,,,,,,,,,,,,,,,,,,,,,,,,,,,,,,,,,,,,,,,,,,,,,,,,,,,,,,,,,,,,,,,,,,,,,,,,,,,,,,,,,,,,,,,,,,,,,,,,,,,,,,,,,,,,,,,,,,,,,,,,,,,,,,,,,,,
,,,,,,5b992a5224a3450001fa3454,62c53aa5c5861622af3fff69,2022-07-06_09h39.06.586,Colour_Asymmetry_Pilot,2022.1.3,Win32,60.0132029,62c50e9c1127f2cd403a315f,0,112,112,50,1,twoone,,,,,,,,,,,,,,,,,,,,,,,,,,,,,,,,,,,,,,,,,,,,,,,,,,,,,,,,,,,,,,,,,,,,,,,,,,,,,,,,,,,,,,,,,,,,,,,,,,,,,,,,,,,,,,,,,,,,,,,,,,,,,,,,,,,,,,,,,,,,,,,,,,,,,,,,,,,,,
,,,,,,5b992a5224a3450001fa3454,62c53aa5c5861622af3fff69,2022-07-06_09h39.06.586,Colour_Asymmetry_Pilot,2022.1.3,Win32,60.0132029,62c50e9c1127f2cd403a315f,0,113,113,60,1,threeone,,,,,,,,,,,,,,,,,,,,,,,,,,,,,,,,,,,,,,,,,,,,,,,,,,,,,,,,,,,,,,,,,,,,,,,,,,,,,,,,,,,,,,,,,,,,,,,,,,,,,,,,,,,,,,,,,,,,,,,,,,,,,,,,,,,,,,,,,,,,,,,,,,,,,,,,,,,,,
,,,,,,5b992a5224a3450001fa3454,62c53aa5c5861622af3fff69,2022-07-06_09h39.06.586,Colour_Asymmetry_Pilot,2022.1.3,Win32,60.0132029,62c50e9c1127f2cd403a315f,0,114,114,134,1,fourtwo,,,,,,,,,,,,,,,,,,,,,,,,,,,,,,,,,,,,,,,,,,,,,,,,,,,,,,,,,,,,,,,,,,,,,,,,,,,,,,,,,,,,,,,,,,,,,,,,,,,,,,,,,,,,,,,,,,,,,,,,,,,,,,,,,,,,,,,,,,,,,,,,,,,,,,,,,,,,,
,,,,,,5b992a5224a3450001fa3454,62c53aa5c5861622af3fff69,2022-07-06_09h39.06.586,Colour_Asymmetry_Pilot,2022.1.3,Win32,60.0132029,62c50e9c1127f2cd403a315f,0,115,115,38,1,fourtwo,,,,,,,,,,,,,,,,,,,,,,,,,,,,,,,,,,,,,,,,,,,,,,,,,,,,,,,,,,,,,,,,,,,,,,,,,,,,,,,,,,,,,,,,,,,,,,,,,,,,,,,,,,,,,,,,,,,,,,,,,,,,,,,,,,,,,,,,,,,,,,,,,,,,,,,,,,,,,
,,,,,,5b992a5224a3450001fa3454,62c53aa5c5861622af3fff69,2022-07-06_09h39.06.586,Colour_Asymmetry_Pilot,2022.1.3,Win32,60.0132029,62c50e9c1127f2cd403a315f,0,116,116,151,1,fourthree,,,,,,,,,,,,,,,,,,,,,,,,,,,,,,,,,,,,,,,,,,,,,,,,,,,,,,,,,,,,,,,,,,,,,,,,,,,,,,,,,,,,,,,,,,,,,,,,,,,,,,,,,,,,,,,,,,,,,,,,,,,,,,,,,,,,,,,,,,,,,,,,,,,,,,,,,,,,,
,,,,,,5b992a5224a3450001fa3454,62c53aa5c5861622af3fff69,2022-07-06_09h39.06.586,Colour_Asymmetry_Pilot,2022.1.3,Win32,60.0132029,62c50e9c1127f2cd403a315f,0,117,117,45,1,threefour,,,,,,,,,,,,,,,,,,,,,,,,,,,,,,,,,,,,,,,,,,,,,,,,,,,,,,,,,,,,,,,,,,,,,,,,,,,,,,,,,,,,,,,,,,,,,,,,,,,,,,,,,,,,,,,,,,,,,,,,,,,,,,,,,,,,,,,,,,,,,,,,,,,,,,,,,,,,,
,,,,,,5b992a5224a3450001fa3454,62c53aa5c5861622af3fff69,2022-07-06_09h39.06.586,Colour_Asymmetry_Pilot,2022.1.3,Win32,60.0132029,62c50e9c1127f2cd403a315f,0,118,118,62,1,fourtwo,,,,,,,,,,,,,,,,,,,,,,,,,,,,,,,,,,,,,,,,,,,,,,,,,,,,,,,,,,,,,,,,,,,,,,,,,,,,,,,,,,,,,,,,,,,,,,,,,,,,,,,,,,,,,,,,,,,,,,,,,,,,,,,,,,,,,,,,,,,,,,,,,,,,,,,,,,,,,
,,,,,,5b992a5224a3450001fa3454,62c53aa5c5861622af3fff69,2022-07-06_09h39.06.586,Colour_Asymmetry_Pilot,2022.1.3,Win32,60.0132029,62c50e9c1127f2cd403a315f,0,119,119,155,1,twofour,,,,,,,,,,,,,,,,,,,,,,,,,,,,,,,,,,,,,,,,,,,,,,,,,,,,,,,,,,,,,,,,,,,,,,,,,,,,,,,,,,,,,,,,,,,,,,,,,,,,,,,,,,,,,,,,,,,,,,,,,,,,,,,,,,,,,,,,,,,,,,,,,,,,,,,,,,,,,
,,,,,,5b992a5224a3450001fa3454,62c53aa5c5861622af3fff69,2022-07-06_09h39.06.586,Colour_Asymmetry_Pilot,2022.1.3,Win32,60.0132029,62c50e9c1127f2cd403a315f,0,120,120,118,1,fourtwo,,,,,,,,,,,,,,,,,,,,,,,,,,,,,,,,,,,,,,,,,,,,,,,,,,,,,,,,,,,,,,,,,,,,,,,,,,,,,,,,,,,,,,,,,,,,,,,,,,,,,,,,,,,,,,,,,,,,,,,,,,,,,,,,,,,,,,,,,,,,,,,,,,,,,,,,,,,,,
,,,,,,5b992a5224a3450001fa3454,62c53aa5c5861622af3fff69,2022-07-06_09h39.06.586,Colour_Asymmetry_Pilot,2022.1.3,Win32,60.0132029,62c50e9c1127f2cd403a315f,0,121,121,115,1,twofour,,,,,,,,,,,,,,,,,,,,,,,,,,,,,,,,,,,,,,,,,,,,,,,,,,,,,,,,,,,,,,,,,,,,,,,,,,,,,,,,,,,,,,,,,,,,,,,,,,,,,,,,,,,,,,,,,,,,,,,,,,,,,,,,,,,,,,,,,,,,,,,,,,,,,,,,,,,,,
,,,,,,5b992a5224a3450001fa3454,62c53aa5c5861622af3fff69,2022-07-06_09h39.06.586,Colour_Asymmetry_Pilot,2022.1.3,Win32,60.0132029,62c50e9c1127f2cd403a315f,0,122,122,68,1,threeone,,,,,,,,,,,,,,,,,,,,,,,,,,,,,,,,,,,,,,,,,,,,,,,,,,,,,,,,,,,,,,,,,,,,,,,,,,,,,,,,,,,,,,,,,,,,,,,,,,,,,,,,,,,,,,,,,,,,,,,,,,,,,,,,,,,,,,,,,,,,,,,,,,,,,,,,,,,,,
,,,,,,5b992a5224a3450001fa3454,62c53aa5c5861622af3fff69,2022-07-06_09h39.06.586,Colour_Asymmetry_Pilot,2022.1.3,Win32,60.0132029,62c50e9c1127f2cd403a315f,0,123,123,51,1,twofour,,,,,,,,,,,,,,,,,,,,,,,,,,,,,,,,,,,,,,,,,,,,,,,,,,,,,,,,,,,,,,,,,,,,,,,,,,,,,,,,,,,,,,,,,,,,,,,,,,,,,,,,,,,,,,,,,,,,,,,,,,,,,,,,,,,,,,,,,,,,,,,,,,,,,,,,,,,,,
,,,,,,5b992a5224a3450001fa3454,62c53aa5c5861622af3fff69,2022-07-06_09h39.06.586,Colour_Asymmetry_Pilot,2022.1.3,Win32,60.0132029,62c50e9c1127f2cd403a315f,0,124,124,66,1,twoone,,,,,,,,,,,,,,,,,,,,,,,,,,,,,,,,,,,,,,,,,,,,,,,,,,,,,,,,,,,,,,,,,,,,,,,,,,,,,,,,,,,,,,,,,,,,,,,,,,,,,,,,,,,,,,,,,,,,,,,,,,,,,,,,,,,,,,,,,,,,,,,,,,,,,,,,,,,,,
,,,,,,5b992a5224a3450001fa3454,62c53aa5c5861622af3fff69,2022-07-06_09h39.06.586,Colour_Asymmetry_Pilot,2022.1.3,Win32,60.0132029,62c50e9c1127f2cd403a315f,0,125,125,133,1,threefour,,,,,,,,,,,,,,,,,,,,,,,,,,,,,,,,,,,,,,,,,,,,,,,,,,,,,,,,,,,,,,,,,,,,,,,,,,,,,,,,,,,,,,,,,,,,,,,,,,,,,,,,,,,,,,,,,,,,,,,,,,,,,,,,,,,,,,,,,,,,,,,,,,,,,,,,,,,,,
,,,,,,5b992a5224a3450001fa3454,62c53aa5c5861622af3fff69,2022-07-06_09h39.06.586,Colour_Asymmetry_Pilot,2022.1.3,Win32,60.0132029,62c50e9c1127f2cd403a315f,0,126,126,129,1,onethree,,,,,,,,,,,,,,,,,,,,,,,,,,,,,,,,,,,,,,,,,,,,,,,,,,,,,,,,,,,,,,,,,,,,,,,,,,,,,,,,,,,,,,,,,,,,,,,,,,,,,,,,,,,,,,,,,,,,,,,,,,,,,,,,,,,,,,,,,,,,,,,,,,,,,,,,,,,,,
,,,,,,5b992a5224a3450001fa3454,62c53aa5c5861622af3fff69,2022-07-06_09h39.06.586,Colour_Asymmetry_Pilot,2022.1.3,Win32,60.0132029,62c50e9c1127f2cd403a315f,0,127,127,55,1,fourthree,,,,,,,,,,,,,,,,,,,,,,,,,,,,,,,,,,,,,,,,,,,,,,,,,,,,,,,,,,,,,,,,,,,,,,,,,,,,,,,,,,,,,,,,,,,,,,,,,,,,,,,,,,,,,,,,,,,,,,,,,,,,,,,,,,,,,,,,,,,,,,,,,,,,,,,,,,,,,
,,,,,,5b992a5224a3450001fa3454,62c53aa5c5861622af3fff69,2022-07-06_09h39.06.586,Colour_Asymmetry_Pilot,2022.1.3,Win32,60.0132029,62c50e9c1127f2cd403a315f,0,128,128,59,1,twofour,,,,,,,,,,,,,,,,,,,,,,,,,,,,,,,,,,,,,,,,,,,,,,,,,,,,,,,,,,,,,,,,,,,,,,,,,,,,,,,,,,,,,,,,,,,,,,,,,,,,,,,,,,,,,,,,,,,,,,,,,,,,,,,,,,,,,,,,,,,,,,,,,,,,,,,,,,,,,
,,,,,,5b992a5224a3450001fa3454,62c53aa5c5861622af3fff69,2022-07-06_09h39.06.586,Colour_Asymmetry_Pilot,2022.1.3,Win32,60.0132029,62c50e9c1127f2cd403a315f,0,129,129,11,1,twofour,,,,,,,,,,,,,,,,,,,,,,,,,,,,,,,,,,,,,,,,,,,,,,,,,,,,,,,,,,,,,,,,,,,,,,,,,,,,,,,,,,,,,,,,,,,,,,,,,,,,,,,,,,,,,,,,,,,,,,,,,,,,,,,,,,,,,,,,,,,,,,,,,,,,,,,,,,,,,
,,,,,,5b992a5224a3450001fa3454,62c53aa5c5861622af3fff69,2022-07-06_09h39.06.586,Colour_Asymmetry_Pilot,2022.1.3,Win32,60.0132029,62c50e9c1127f2cd403a315f,0,130,130,57,1,onethree,,,,,,,,,,,,,,,,,,,,,,,,,,,,,,,,,,,,,,,,,,,,,,,,,,,,,,,,,,,,,,,,,,,,,,,,,,,,,,,,,,,,,,,,,,,,,,,,,,,,,,,,,,,,,,,,,,,,,,,,,,,,,,,,,,,,,,,,,,,,,,,,,,,,,,,,,,,,,
,,,,,,5b992a5224a3450001fa3454,62c53aa5c5861622af3fff69,2022-07-06_09h39.06.586,Colour_Asymmetry_Pilot,2022.1.3,Win32,60.0132029,62c50e9c1127f2cd403a315f,0,131,131,54,1,fourtwo,,,,,,,,,,,,,,,,,,,,,,,,,,,,,,,,,,,,,,,,,,,,,,,,,,,,,,,,,,,,,,,,,,,,,,,,,,,,,,,,,,,,,,,,,,,,,,,,,,,,,,,,,,,,,,,,,,,,,,,,,,,,,,,,,,,,,,,,,,,,,,,,,,,,,,,,,,,,,
,,,,,,5b992a5224a3450001fa3454,62c53aa5c5861622af3fff69,2022-07-06_09h39.06.586,Colour_Asymmetry_Pilot,2022.1.3,Win32,60.0132029,62c50e9c1127f2cd403a315f,0,132,132,40,1,onetwo,,,,,,,,,,,,,,,,,,,,,,,,,,,,,,,,,,,,,,,,,,,,,,,,,,,,,,,,,,,,,,,,,,,,,,,,,,,,,,,,,,,,,,,,,,,,,,,,,,,,,,,,,,,,,,,,,,,,,,,,,,,,,,,,,,,,,,,,,,,,,,,,,,,,,,,,,,,,,
,,,,,,5b992a5224a3450001fa3454,62c53aa5c5861622af3fff69,2022-07-06_09h39.06.586,Colour_Asymmetry_Pilot,2022.1.3,Win32,60.0132029,62c50e9c1127f2cd403a315f,0,133,133,73,1,onethree,,,,,,,,,,,,,,,,,,,,,,,,,,,,,,,,,,,,,,,,,,,,,,,,,,,,,,,,,,,,,,,,,,,,,,,,,,,,,,,,,,,,,,,,,,,,,,,,,,,,,,,,,,,,,,,,,,,,,,,,,,,,,,,,,,,,,,,,,,,,,,,,,,,,,,,,,,,,,
,,,,,,5b992a5224a3450001fa3454,62c53aa5c5861622af3fff69,2022-07-06_09h39.06.586,Colour_Asymmetry_Pilot,2022.1.3,Win32,60.0132029,62c50e9c1127f2cd403a315f,0,134,134,15,1,fourthree,,,,,,,,,,,,,,,,,,,,,,,,,,,,,,,,,,,,,,,,,,,,,,,,,,,,,,,,,,,,,,,,,,,,,,,,,,,,,,,,,,,,,,,,,,,,,,,,,,,,,,,,,,,,,,,,,,,,,,,,,,,,,,,,,,,,,,,,,,,,,,,,,,,,,,,,,,,,,
,,,,,,5b992a5224a3450001fa3454,62c53aa5c5861622af3fff69,2022-07-06_09h39.06.586,Colour_Asymmetry_Pilot,2022.1.3,Win32,60.0132029,62c50e9c1127f2cd403a315f,0,135,135,114,1,twoone,,,,,,,,,,,,,,,,,,,,,,,,,,,,,,,,,,,,,,,,,,,,,,,,,,,,,,,,,,,,,,,,,,,,,,,,,,,,,,,,,,,,,,,,,,,,,,,,,,,,,,,,,,,,,,,,,,,,,,,,,,,,,,,,,,,,,,,,,,,,,,,,,,,,,,,,,,,,,
,,,,,,5b992a5224a3450001fa3454,62c53aa5c5861622af3fff69,2022-07-06_09h39.06.586,Colour_Asymmetry_Pilot,2022.1.3,Win32,60.0132029,62c50e9c1127f2cd403a315f,0,136,136,32,1,onetwo,,,,,,,,,,,,,,,,,,,,,,,,,,,,,,,,,,,,,,,,,,,,,,,,,,,,,,,,,,,,,,,,,,,,,,,,,,,,,,,,,,,,,,,,,,,,,,,,,,,,,,,,,,,,,,,,,,,,,,,,,,,,,,,,,,,,,,,,,,,,,,,,,,,,,,,,,,,,,
,,,,,,5b992a5224a3450001fa3454,62c53aa5c5861622af3fff69,2022-07-06_09h39.06.586,Colour_Asymmetry_Pilot,2022.1.3,Win32,60.0132029,62c50e9c1127f2cd403a315f,0,137,137,85,1,threefour,,,,,,,,,,,,,,,,,,,,,,,,,,,,,,,,,,,,,,,,,,,,,,,,,,,,,,,,,,,,,,,,,,,,,,,,,,,,,,,,,,,,,,,,,,,,,,,,,,,,,,,,,,,,,,,,,,,,,,,,,,,,,,,,,,,,,,,,,,,,,,,,,,,,,,,,,,,,,
,,,,,,5b992a5224a3450001fa3454,62c53aa5c5861622af3fff69,2022-07-06_09h39.06.586,Colour_Asymmetry_Pilot,2022.1.3,Win32,60.0132029,62c50e9c1127f2cd403a315f,0,138,138,86,1,fourtwo,,,,,,,,,,,,,,,,,,,,,,,,,,,,,,,,,,,,,,,,,,,,,,,,,,,,,,,,,,,,,,,,,,,,,,,,,,,,,,,,,,,,,,,,,,,,,,,,,,,,,,,,,,,,,,,,,,,,,,,,,,,,,,,,,,,,,,,,,,,,,,,,,,,,,,,,,,,,,
,,,,,,5b992a5224a3450001fa3454,62c53aa5c5861622af3fff69,2022-07-06_09h39.06.586,Colour_Asymmetry_Pilot,2022.1.3,Win32,60.0132029,62c50e9c1127f2cd403a315f,0,139,139,131,1,twofour,,,,,,,,,,,,,,,,,,,,,,,,,,,,,,,,,,,,,,,,,,,,,,,,,,,,,,,,,,,,,,,,,,,,,,,,,,,,,,,,,,,,,,,,,,,,,,,,,,,,,,,,,,,,,,,,,,,,,,,,,,,,,,,,,,,,,,,,,,,,,,,,,,,,,,,,,,,,,
,,,,,,5b992a5224a3450001fa3454,62c53aa5c5861622af3fff69,2022-07-06_09h39.06.586,Colour_Asymmetry_Pilot,2022.1.3,Win32,60.0132029,62c50e9c1127f2cd403a315f,0,140,140,95,1,fourthree,,,,,,,,,,,,,,,,,,,,,,,,,,,,,,,,,,,,,,,,,,,,,,,,,,,,,,,,,,,,,,,,,,,,,,,,,,,,,,,,,,,,,,,,,,,,,,,,,,,,,,,,,,,,,,,,,,,,,,,,,,,,,,,,,,,,,,,,,,,,,,,,,,,,,,,,,,,,,
,,,,,,5b992a5224a3450001fa3454,62c53aa5c5861622af3fff69,2022-07-06_09h39.06.586,Colour_Asymmetry_Pilot,2022.1.3,Win32,60.0132029,62c50e9c1127f2cd403a315f,0,141,141,4,1,threeone,,,,,,,,,,,,,,,,,,,,,,,,,,,,,,,,,,,,,,,,,,,,,,,,,,,,,,,,,,,,,,,,,,,,,,,,,,,,,,,,,,,,,,,,,,,,,,,,,,,,,,,,,,,,,,,,,,,,,,,,,,,,,,,,,,,,,,,,,,,,,,,,,,,,,,,,,,,,,
,,,,,,5b992a5224a3450001fa3454,62c53aa5c5861622af3fff69,2022-07-06_09h39.06.586,Colour_Asymmetry_Pilot,2022.1.3,Win32,60.0132029,62c50e9c1127f2cd403a315f,0,142,142,5,1,threefour,,,,,,,,,,,,,,,,,,,,,,,,,,,,,,,,,,,,,,,,,,,,,,,,,,,,,,,,,,,,,,,,,,,,,,,,,,,,,,,,,,,,,,,,,,,,,,,,,,,,,,,,,,,,,,,,,,,,,,,,,,,,,,,,,,,,,,,,,,,,,,,,,,,,,,,,,,,,,
,,,,,,5b992a5224a3450001fa3454,62c53aa5c5861622af3fff69,2022-07-06_09h39.06.586,Colour_Asymmetry_Pilot,2022.1.3,Win32,60.0132029,62c50e9c1127f2cd403a315f,0,143,143,31,1,fourthree,,,,,,,,,,,,,,,,,,,,,,,,,,,,,,,,,,,,,,,,,,,,,,,,,,,,,,,,,,,,,,,,,,,,,,,,,,,,,,,,,,,,,,,,,,,,,,,,,,,,,,,,,,,,,,,,,,,,,,,,,,,,,,,,,,,,,,,,,,,,,,,,,,,,,,,,,,,,,
,,,,,,5b992a5224a3450001fa3454,62c53aa5c5861622af3fff69,2022-07-06_09h39.06.586,Colour_Asymmetry_Pilot,2022.1.3,Win32,60.0132029,62c50e9c1127f2cd403a315f,0,144,144,123,1,twofour,,,,,,,,,,,,,,,,,,,,,,,,,,,,,,,,,,,,,,,,,,,,,,,,,,,,,,,,,,,,,,,,,,,,,,,,,,,,,,,,,,,,,,,,,,,,,,,,,,,,,,,,,,,,,,,,,,,,,,,,,,,,,,,,,,,,,,,,,,,,,,,,,,,,,,,,,,,,,
,,,,,,5b992a5224a3450001fa3454,62c53aa5c5861622af3fff69,2022-07-06_09h39.06.586,Colour_Asymmetry_Pilot,2022.1.3,Win32,60.0132029,62c50e9c1127f2cd403a315f,0,145,145,30,1,fourtwo,,,,,,,,,,,,,,,,,,,,,,,,,,,,,,,,,,,,,,,,,,,,,,,,,,,,,,,,,,,,,,,,,,,,,,,,,,,,,,,,,,,,,,,,,,,,,,,,,,,,,,,,,,,,,,,,,,,,,,,,,,,,,,,,,,,,,,,,,,,,,,,,,,,,,,,,,,,,,
,,,,,,5b992a5224a3450001fa3454,62c53aa5c5861622af3fff69,2022-07-06_09h39.06.586,Colour_Asymmetry_Pilot,2022.1.3,Win32,60.0132029,62c50e9c1127f2cd403a315f,0,146,146,112,1,onetwo,,,,,,,,,,,,,,,,,,,,,,,,,,,,,,,,,,,,,,,,,,,,,,,,,,,,,,,,,,,,,,,,,,,,,,,,,,,,,,,,,,,,,,,,,,,,,,,,,,,,,,,,,,,,,,,,,,,,,,,,,,,,,,,,,,,,,,,,,,,,,,,,,,,,,,,,,,,,,
,,,,,,5b992a5224a3450001fa3454,62c53aa5c5861622af3fff69,2022-07-06_09h39.06.586,Colour_Asymmetry_Pilot,2022.1.3,Win32,60.0132029,62c50e9c1127f2cd403a315f,0,147,147,1,1,onethree,,,,,,,,,,,,,,,,,,,,,,,,,,,,,,,,,,,,,,,,,,,,,,,,,,,,,,,,,,,,,,,,,,,,,,,,,,,,,,,,,,,,,,,,,,,,,,,,,,,,,,,,,,,,,,,,,,,,,,,,,,,,,,,,,,,,,,,,,,,,,,,,,,,,,,,,,,,,,
,,,,,,5b992a5224a3450001fa3454,62c53aa5c5861622af3fff69,2022-07-06_09h39.06.586,Colour_Asymmetry_Pilot,2022.1.3,Win32,60.0132029,62c50e9c1127f2cd403a315f,0,148,148,147,1,twofour,,,,,,,,,,,,,,,,,,,,,,,,,,,,,,,,,,,,,,,,,,,,,,,,,,,,,,,,,,,,,,,,,,,,,,,,,,,,,,,,,,,,,,,,,,,,,,,,,,,,,,,,,,,,,,,,,,,,,,,,,,,,,,,,,,,,,,,,,,,,,,,,,,,,,,,,,,,,,
,,,,,,5b992a5224a3450001fa3454,62c53aa5c5861622af3fff69,2022-07-06_09h39.06.586,Colour_Asymmetry_Pilot,2022.1.3,Win32,60.0132029,62c50e9c1127f2cd403a315f,0,149,149,119,1,fourthree,,,,,,,,,,,,,,,,,,,,,,,,,,,,,,,,,,,,,,,,,,,,,,,,,,,,,,,,,,,,,,,,,,,,,,,,,,,,,,,,,,,,,,,,,,,,,,,,,,,,,,,,,,,,,,,,,,,,,,,,,,,,,,,,,,,,,,,,,,,,,,,,,,,,,,,,,,,,,
,,,,,,5b992a5224a3450001fa3454,62c53aa5c5861622af3fff69,2022-07-06_09h39.06.586,Colour_Asymmetry_Pilot,2022.1.3,Win32,60.0132029,62c50e9c1127f2cd403a315f,0,150,150,0,1,onetwo,,,,,,,,,,,,,,,,,,,,,,,,,,,,,,,,,,,,,,,,,,,,,,,,,,,,,,,,,,,,,,,,,,,,,,,,,,,,,,,,,,,,,,,,,,,,,,,,,,,,,,,,,,,,,,,,,,,,,,,,,,,,,,,,,,,,,,,,,,,,,,,,,,,,,,,,,,,,,
,,,,,,5b992a5224a3450001fa3454,62c53aa5c5861622af3fff69,2022-07-06_09h39.06.586,Colour_Asymmetry_Pilot,2022.1.3,Win32,60.0132029,62c50e9c1127f2cd403a315f,0,151,151,69,1,threefour,,,,,,,,,,,,,,,,,,,,,,,,,,,,,,,,,,,,,,,,,,,,,,,,,,,,,,,,,,,,,,,,,,,,,,,,,,,,,,,,,,,,,,,,,,,,,,,,,,,,,,,,,,,,,,,,,,,,,,,,,,,,,,,,,,,,,,,,,,,,,,,,,,,,,,,,,,,,,
,,,,,,5b992a5224a3450001fa3454,62c53aa5c5861622af3fff69,2022-07-06_09h39.06.586,Colour_Asymmetry_Pilot,2022.1.3,Win32,60.0132029,62c50e9c1127f2cd403a315f,0,152,152,20,1,threeone,,,,,,,,,,,,,,,,,,,,,,,,,,,,,,,,,,,,,,,,,,,,,,,,,,,,,,,,,,,,,,,,,,,,,,,,,,,,,,,,,,,,,,,,,,,,,,,,,,,,,,,,,,,,,,,,,,,,,,,,,,,,,,,,,,,,,,,,,,,,,,,,,,,,,,,,,,,,,
,,,,,,5b992a5224a3450001fa3454,62c53aa5c5861622af3fff69,2022-07-06_09h39.06.586,Colour_Asymmetry_Pilot,2022.1.3,Win32,60.0132029,62c50e9c1127f2cd403a315f,0,153,153,159,1,fourthree,,,,,,,,,,,,,,,,,,,,,,,,,,,,,,,,,,,,,,,,,,,,,,,,,,,,,,,,,,,,,,,,,,,,,,,,,,,,,,,,,,,,,,,,,,,,,,,,,,,,,,,,,,,,,,,,,,,,,,,,,,,,,,,,,,,,,,,,,,,,,,,,,,,,,,,,,,,,,
,,,,,,5b992a5224a3450001fa3454,62c53aa5c5861622af3fff69,2022-07-06_09h39.06.586,Colour_Asymmetry_Pilot,2022.1.3,Win32,60.0132029,62c50e9c1127f2cd403a315f,0,154,154,76,1,threeone,,,,,,,,,,,,,,,,,,,,,,,,,,,,,,,,,,,,,,,,,,,,,,,,,,,,,,,,,,,,,,,,,,,,,,,,,,,,,,,,,,,,,,,,,,,,,,,,,,,,,,,,,,,,,,,,,,,,,,,,,,,,,,,,,,,,,,,,,,,,,,,,,,,,,,,,,,,,,
,,,,,,5b992a5224a3450001fa3454,62c53aa5c5861622af3fff69,2022-07-06_09h39.06.586,Colour_Asymmetry_Pilot,2022.1.3,Win32,60.0132029,62c50e9c1127f2cd403a315f,0,155,155,91,1,twofour,,,,,,,,,,,,,,,,,,,,,,,,,,,,,,,,,,,,,,,,,,,,,,,,,,,,,,,,,,,,,,,,,,,,,,,,,,,,,,,,,,,,,,,,,,,,,,,,,,,,,,,,,,,,,,,,,,,,,,,,,,,,,,,,,,,,,,,,,,,,,,,,,,,,,,,,,,,,,
,,,,,,5b992a5224a3450001fa3454,62c53aa5c5861622af3fff69,2022-07-06_09h39.06.586,Colour_Asymmetry_Pilot,2022.1.3,Win32,60.0132029,62c50e9c1127f2cd403a315f,0,156,156,28,1,threeone,,,,,,,,,,,,,,,,,,,,,,,,,,,,,,,,,,,,,,,,,,,,,,,,,,,,,,,,,,,,,,,,,,,,,,,,,,,,,,,,,,,,,,,,,,,,,,,,,,,,,,,,,,,,,,,,,,,,,,,,,,,,,,,,,,,,,,,,,,,,,,,,,,,,,,,,,,,,,
,,,,,,5b992a5224a3450001fa3454,62c53aa5c5861622af3fff69,2022-07-06_09h39.06.586,Colour_Asymmetry_Pilot,2022.1.3,Win32,60.0132029,62c50e9c1127f2cd403a315f,0,157,157,25,1,onethree,,,,,,,,,,,,,,,,,,,,,,,,,,,,,,,,,,,,,,,,,,,,,,,,,,,,,,,,,,,,,,,,,,,,,,,,,,,,,,,,,,,,,,,,,,,,,,,,,,,,,,,,,,,,,,,,,,,,,,,,,,,,,,,,,,,,,,,,,,,,,,,,,,,,,,,,,,,,,
,,,,,,5b992a5224a3450001fa3454,62c53aa5c5861622af3fff69,2022-07-06_09h39.06.586,Colour_Asymmetry_Pilot,2022.1.3,Win32,60.0132029,62c50e9c1127f2cd403a315f,0,158,158,43,1,twofour,,,,,,,,,,,,,,,,,,,,,,,,,,,,,,,,,,,,,,,,,,,,,,,,,,,,,,,,,,,,,,,,,,,,,,,,,,,,,,,,,,,,,,,,,,,,,,,,,,,,,,,,,,,,,,,,,,,,,,,,,,,,,,,,,,,,,,,,,,,,,,,,,,,,,,,,,,,,,
,,,,,,5b992a5224a3450001fa3454,62c53aa5c5861622af3fff69,2022-07-06_09h39.06.586,Colour_Asymmetry_Pilot,2022.1.3,Win32,60.0132029,62c50e9c1127f2cd403a315f,0,159,159,49,1,onethree,,,,,,,,,,,,,,,,,,,,,,,,,,,,,,,,,,,,,,,,,,,,,,,,,,,,,,,,,,,,,,,,,,,,,,,,,,,,,,,,,,,,,,,,,,,,,,,,,,,,,,,,,,,,,,,,,,,,,,,,,,,,,,,,,,,,,,,,,,,,,,,,,,,,,,,,,,,,,
,,,,,,5b992a5224a3450001fa3454,62c53aa5c5861622af3fff69,2022-07-06_09h39.06.586,Colour_Asymmetry_Pilot,2022.1.3,Win32,60.0132029,62c50e9c1127f2cd403a315f,0,160,160,35,1,twofour,,,,,,,,,,,,,,,,,,,,,,,,,,,,,,,,,,,,,,,,,,,,,,,,,,,,,,,,,,,,,,,,,,,,,,,,,,,,,,,,,,,,,,,,,,,,,,,,,,,,,,,,,,,,,,,,,,,,,,,,,,,,,,,,,,,,,,,,,,,,,,,,,,,,,,,,,,,,,
,,,,,,5b992a5224a3450001fa3454,62c53aa5c5861622af3fff69,2022-07-06_09h39.06.586,Colour_Asymmetry_Pilot,2022.1.3,Win32,60.0132029,62c50e9c1127f2cd403a315f,0,161,161,19,1,twofour,,,,,,,,,,,,,,,,,,,,,,,,,,,,,,,,,,,,,,,,,,,,,,,,,,,,,,,,,,,,,,,,,,,,,,,,,,,,,,,,,,,,,,,,,,,,,,,,,,,,,,,,,,,,,,,,,,,,,,,,,,,,,,,,,,,,,,,,,,,,,,,,,,,,,,,,,,,,,
,,,,,,5b992a5224a3450001fa3454,62c53aa5c5861622af3fff69,2022-07-06_09h39.06.586,Colour_Asymmetry_Pilot,2022.1.3,Win32,60.0132029,62c50e9c1127f2cd403a315f,,,,,,,space,2.6004,space,37.1401,space,30.4498,space,13.7333,space,2.7338,space,37.1121,"[0.34099999999999997,0.5841999999999998,-0.9844]",threefour,"[0.7176,-0.906,-0.6864]",-4,11.0891,-97,125,1,0,0,response7disk_5,-8,7,1,0,0,rectangle_8,-8,7,1,0,0,3,-8,7,1,0,0,0,0,0,0,1,,,,,,,,,,,,,,,,,,,,,,,,,,,,,,,,,,,,,,,,,,,,,,,,,,,,,,,,,,,,,,,,,,,,,,,,,,,,,,,,,,,,,,,,,,,,,,,,,,,,,,,,,,,,,,,,
,,,,,,5b992a5224a3450001fa3454,62c53aa5c5861622af3fff69,2022-07-06_09h39.06.586,Colour_Asymmetry_Pilot,2022.1.3,Win32,60.0132029,62c50e9c1127f2cd403a315f,,,,,,,,,,,,,,,,,,,"[0.2784,-0.31000000000000005,-0.5452]",threeone,"[-0.050999999999999934,-0.6706000000000001,-0.804]",2,4.7164,80,-45,1,0,0,response3disk_5,-5,-2,1,0,0,rectangle_8,123,64,1,0,0,3,18,0,1,0,0,1,0,1,0,1,response1disk_7,6,rectangle_4,,,,,,,,,,,,,,,,,,,,,,,,,,,,,,,,,,,,,,,,,,,,,,,,,,,,,,,,,,,,,,,,,,,,,,,,,,,,,,,,,,,,,,,,,,,,,,,,,,,,,,,,,,,,,
,,,,,,5b992a5224a3450001fa3454,62c53aa5c5861622af3fff69,2022-07-06_09h39.06.586,Colour_Asymmetry_Pilot,2022.1.3,Win32,60.0132029,62c50e9c1127f2cd403a315f,,,,,,,,,,,,,,,,,,,"[1,0.12939999999999996,-1]",onetwo,"[-0.9688,-0.7412000000000001,-0.4902000000000001]",-3,4.4497,-55,34,1,0,0,response7disk_5,-4,4,1,0,0,rectangle_8,-4,4,1,0,0,3,-4,4,1,0,0,2,0,2,0,1,,,,,,,,,,,,,,,,,,,,,,,,,,,,,,,,,,,,,,,,,,,,,,,,,,,,,,,,,,,,,,,,,,,,,,,,,,,,,,,,,,,,,,,,,,,,,,,,,,,,,,,,,,,,,,,,
,,,,,,5b992a5224a3450001fa3454,62c53aa5c5861622af3fff69,2022-07-06_09h39.06.586,Colour_Asymmetry_Pilot,2022.1.3,Win32,60.0132029,62c50e9c1127f2cd403a315f,,,,,,,,,,,,,,,,,,,"[0.30180000000000007,-0.7884,-0.9844]",fourtwo,"[0.7802,-0.23140000000000005,-0.20799999999999996]",3,4.3331,116,51,1,0,0,response1disk_5,0,-3,1,0,0,rectangle_8,0,-3,1,0,0,3,0,-3,1,0,0,3,0,3,0,1,,,,,,,,,,,,,,,,,,,,,,,,,,,,,,,,,,,,,,,,,,,,,,,,,,,,,,,,,,,,,,,,,,,,,,,,,,,,,,,,,,,,,,,,,,,,,,,,,,,,,,,,,,,,,,,,
,,,,,,5b992a5224a3450001fa3454,62c53aa5c5861622af3fff69,2022-07-06_09h39.06.586,Colour_Asymmetry_Pilot,2022.1.3,Win32,60.0132029,62c50e9c1127f2cd403a315f,,,,,,,,,,,,,,,,,,,"[-0.6,0.16860000000000008,0.44300000000000006]",onethree,"[-0.9216,-0.5529999999999999,-0.3962]",2,1.6505,113,-43,1,0,0,response3disk_5,1,6,1,0,0,rectangle_8,1,6,1,0,0,3,1,6,1,0,0,4,0,4,0,1,,,,,,,,,,,,,,,,,,,,,,,,,,,,,,,,,,,,,,,,,,,,,,,,,,,,,,,,,,,,,,,,,,,,,,,,,,,,,,,,,,,,,,,,,,,,,,,,,,,,,,,,,,,,,,,,
,,,,,,5b992a5224a3450001fa3454,62c53aa5c5861622af3fff69,2022-07-06_09h39.06.586,Colour_Asymmetry_Pilot,2022.1.3,Win32,60.0132029,62c50e9c1127f2cd403a315f,,,,,,,,,,,,,,,,,,,"[0.9842,0.7409999999999999,-0.6628000000000001]",twoone,"[0.0351999999999999,0.41159999999999997,0.0038000000000000256]",-2,6.533,-104,-58,1,0,0,response5disk_5,-11,4,1,0,0,rectangle_8,-11,4,1,0,0,3,-11,4,1,0,0,5,0,5,0,1,,,,,,,,,,,,,,,,,,,,,,,,,,,,,,,,,,,,,,,,,,,,,,,,,,,,,,,,,,,,,,,,,,,,,,,,,,,,,,,,,,,,,,,,,,,,,,,,,,,,,,,,,,,,,,,,
,,,,,,5b992a5224a3450001fa3454,62c53aa5c5861622af3fff69,2022-07-06_09h39.06.586,Colour_Asymmetry_Pilot,2022.1.3,Win32,60.0132029,62c50e9c1127f2cd403a315f,,,,,,,,,,,,,,,,,,,"[-0.8118,-0.8198,-0.5452]",fourthree,"[0.37240000000000006,-0.050999999999999934,-0.5216]",1,3.7833,101,-148,1,0,0,response3disk_5,-6,8,1,0,0,rectangle_8,-6,8,1,0,0,3,-6,8,1,0,0,6,0,6,0,1,,,,,,,,,,,,,,,,,,,,,,,,,,,,,,,,,,,,,,,,,,,,,,,,,,,,,,,,,,,,,,,,,,,,,,,,,,,,,,,,,,,,,,,,,,,,,,,,,,,,,,,,,,,,,,,,
,,,,,,5b992a5224a3450001fa3454,62c53aa5c5861622af3fff69,2022-07-06_09h39.06.586,Colour_Asymmetry_Pilot,2022.1.3,Win32,60.0132029,62c50e9c1127f2cd403a315f,,,,,,,,,,,,,,,,,,,,fourthree,,3,1.3995,,,,,,,,,,,,,,,,,,,,,,,,,,,,,,,,space,4.5465,"[-0.45899999999999996,-0.3256,-0.9374]","[-0.9138,-0.5296000000000001,-0.5529999999999999]",126,58,1,0,0,response1disk,3,-1,1,0,0,rectangle,3,-1,1,0,0,,2,0.001,0,3,-1,1,0,0,0,0,0,70,1,70,first,,,,,,,,,,,,,,,,,,,,,,,,,,,,,,,,,,,,,,,,,,,,,,,,,,,,,,,,,,,,,,,,,,,,,,,,
,,,,,,5b992a5224a3450001fa3454,62c53aa5c5861622af3fff69,2022-07-06_09h39.06.586,Colour_Asymmetry_Pilot,2022.1.3,Win32,60.0132029,62c50e9c1127f2cd403a315f,,,,,,,,,,,,,,,,,,,,threefour,,-3,1.6666,,,,,,,,,,,,,,,,,,,,,,,,,,,,,,,,,,"[-0.4746,-0.0354000000000001,0.5449999999999999]","[0.5449999999999999,-0.31000000000000005,-0.0354000000000001]",-89,37,1,0,0,response7disk,11,7,1,0,0,rectangle,11,7,1,0,0,,2,0,0,11,7,1,0,0,0,1,1,48,1,48,first,,,,,,,,,,,,,,,,,,,,,,,,,,,,,,,,,,,,,,,,,,,,,,,,,,,,,,,,,,,,,,,,,,,,,,,,
,,,,,,5b992a5224a3450001fa3454,62c53aa5c5861622af3fff69,2022-07-06_09h39.06.586,Colour_Asymmetry_Pilot,2022.1.3,Win32,60.0132029,62c50e9c1127f2cd403a315f,,,,,,,,,,,,,,,,,,,,twoone,,-4,0.6163,,,,,,,,,,,,,,,,,,,,,,,,,,,,,,,,,,"[-0.9296,-0.12959999999999994,-0.043199999999999905]","[0.9372,0.9450000000000001,0.8980000000000001]",-33,74,1,0,0,response7disk,-2,-6,1,0,0,rectangle,-2,-6,1,0,0,,3,0.0005,0,-2,-6,1,0,0,0,2,2,96,1,15,second,,,,,,,,,,,,,,,,,,,,,,,,,,,,,,,,,,,,,,,,,,,,,,,,,,,,,,,,,,,,,,,,,,,,,,,,
,,,,,,5b992a5224a3450001fa3454,62c53aa5c5861622af3fff69,2022-07-06_09h39.06.586,Colour_Asymmetry_Pilot,2022.1.3,Win32,60.0132029,62c50e9c1127f2cd403a315f,,,,,,,,,,,,,,,,,,,,fourtwo,,2,0.65,,,,,,,,,,,,,,,,,,,,,,,,,,,,,,,,,,"[-0.30200000000000005,0.14500000000000002,0.2784]","[-0.24719999999999998,-0.0354000000000001,0.3175999999999999]",95,-59,1,0,0,response3disk,3,4,1,0,0,rectangle,3,4,1,0,0,,1,0.0006,0,3,4,1,0,0,0,3,3,102,1,21,second,,,,,,,,,,,,,,,,,,,,,,,,,,,,,,,,,,,,,,,,,,,,,,,,,,,,,,,,,,,,,,,,,,,,,,,,
,,,,,,5b992a5224a3450001fa3454,62c53aa5c5861622af3fff69,2022-07-06_09h39.06.586,Colour_Asymmetry_Pilot,2022.1.3,Win32,60.0132029,62c50e9c1127f2cd403a315f,,,,,,,,,,,,,,,,,,,,fourthree,,-2,1.0163,,,,,,,,,,,,,,,,,,,,,,,,,,,,,,,,,,"[0.34099999999999997,0.12939999999999996,-0.9766]","[0.8115999999999999,-0.0040000000000000036,-0.09819999999999995]",-73,-51,1,0,0,response5disk,4,-1,1,0,0,rectangle,4,-1,1,0,0,,3,0.0006,0,4,-1,1,0,0,0,4,4,148,1,67,second,,,,,,,,,,,,,,,,,,,,,,,,,,,,,,,,,,,,,,,,,,,,,,,,,,,,,,,,,,,,,,,,,,,,,,,,
,,,,,,5b992a5224a3450001fa3454,62c53aa5c5861622af3fff69,2022-07-06_09h39.06.586,Colour_Asymmetry_Pilot,2022.1.3,Win32,60.0132029,62c50e9c1127f2cd403a315f,,,,,,,,,,,,,,,,,,,,fourtwo,,2,3.3166,,,,,,,,,,,,,,,,,,,,,,,,,,,,,,,,,,"[0.9763999999999999,0.8588,-0.05900000000000005]","[-0.24719999999999998,0.5213999999999999,-0.12959999999999994]",87,-49,1,0,0,response3disk,0,-2,1,0,0,rectangle,0,-2,1,0,0,,1,0.0006,0,0,-2,1,0,0,0,5,5,81,1,0,second,,,,,,,,,,,,,,,,,,,,,,,,,,,,,,,,,,,,,,,,,,,,,,,,,,,,,,,,,,,,,,,,,,,,,,,,
,,,,,,5b992a5224a3450001fa3454,62c53aa5c5861622af3fff69,2022-07-06_09h39.06.586,Colour_Asymmetry_Pilot,2022.1.3,Win32,60.0132029,62c50e9c1127f2cd403a315f,,,,,,,,,,,,,,,,,,,,threeone,,-4,0.6167,,,,,,,,,,,,,,,,,,,,,,,,,,,,,,,,,,"[-0.9844,-0.9688,-0.9922]","[-0.30200000000000005,0.14500000000000002,0.2784]",-51,81,1,0,0,response7disk,0,3,1,0,0,rectangle,0,3,1,0,0,,2,0.0006,0,0,3,1,0,0,0,6,6,33,1,33,first,,,,,,,,,,,,,,,,,,,,,,,,,,,,,,,,,,,,,,,,,,,,,,,,,,,,,,,,,,,,,,,,,,,,,,,,
,,,,,,5b992a5224a3450001fa3454,62c53aa5c5861622af3fff69,2022-07-06_09h39.06.586,Colour_Asymmetry_Pilot,2022.1.3,Win32,60.0132029,62c50e9c1127f2cd403a315f,,,,,,,,,,,,,,,,,,,,onethree,,-3,1.2499,,,,,,,,,,,,,,,,,,,,,,,,,,,,,,,,,,"[0.6625999999999999,0.4980000000000002,-0.357]","[-0.4982,-0.2942,-0.0354000000000001]",-91,36,1,0,0,response7disk,-4,5,1,0,0,rectangle,-4,5,1,0,0,,1,0.0005,0,-4,5,1,0,0,0,7,7,27,1,27,first,,,,,,,,,,,,,,,,,,,,,,,,,,,,,,,,,,,,,,,,,,,,,,,,,,,,,,,,,,,,,,,,,,,,,,,,
,,,,,,5b992a5224a3450001fa3454,62c53aa5c5861622af3fff69,2022-07-06_09h39.06.586,Colour_Asymmetry_Pilot,2022.1.3,Win32,60.0132029,62c50e9c1127f2cd403a315f,,,,,,,,,,,,,,,,,,,,onethree,,2,0.6834,,,,,,,,,,,,,,,,,,,,,,,,,,,,,,,,,,"[-0.38039999999999996,-0.4276,-0.1452]","[-0.6,0.16860000000000008,0.44300000000000006]",70,-35,1,0,0,response3disk,-6,-1,1,0,0,rectangle,-6,-1,1,0,0,,3,0.0005,0,-6,-1,1,0,0,0,8,8,19,1,19,first,,,,,,,,,,,,,,,,,,,,,,,,,,,,,,,,,,,,,,,,,,,,,,,,,,,,,,,,,,,,,,,,,,,,,,,,
,,,,,,5b992a5224a3450001fa3454,62c53aa5c5861622af3fff69,2022-07-06_09h39.06.586,Colour_Asymmetry_Pilot,2022.1.3,Win32,60.0132029,62c50e9c1127f2cd403a315f,,,,,,,,,,,,,,,,,,,,onetwo,,-3,0.8339,,,,,,,,,,,,,,,,,,,,,,,,,,,,,,,,,,"[0.34099999999999997,0.5841999999999998,-0.9844]","[0.3881999999999999,-0.23939999999999995,-0.05040000000000011]",-85,32,1,0,0,response7disk,-4,6,1,0,0,rectangle,86,-39,1,0,0,2,2,3.5837,1,3,2,1,0,0,0,9,9,97,1,16,second,response3disk_3,rectangle,,,,,,,,,,,,,,,,,,,,,,,,,,,,,,,,,,,,,,,,,,,,,,,,,,,,,,,,,,,,,,,,,,,,,,
,,,,,,5b992a5224a3450001fa3454,62c53aa5c5861622af3fff69,2022-07-06_09h39.06.586,Colour_Asymmetry_Pilot,2022.1.3,Win32,60.0132029,62c50e9c1127f2cd403a315f,,,,,,,,,,,,,,,,,,,,threefour,,-4,1.1001,,,,,,,,,,,,,,,,,,,,,,,,,,,,,,,,,,"[0.8115999999999999,-0.0040000000000000036,-0.09819999999999995]","[-0.9844,-0.9688,-0.9922]",-47,91,1,0,0,response7disk,1,0,1,0,0,rectangle,1,0,1,0,0,2,1,0.0006,0,1,0,1,0,0,0,10,10,139,1,58,second,,,,,,,,,,,,,,,,,,,,,,,,,,,,,,,,,,,,,,,,,,,,,,,,,,,,,,,,,,,,,,,,,,,,,,,,
,,,,,,5b992a5224a3450001fa3454,62c53aa5c5861622af3fff69,2022-07-06_09h39.06.586,Colour_Asymmetry_Pilot,2022.1.3,Win32,60.0132029,62c50e9c1127f2cd403a315f,,,,,,,,,,,,,,,,,,,,fourtwo,,3,0.6165,,,,,,,,,,,,,,,,,,,,,,,,,,,,,,,,,,"[-0.5922000000000001,-0.7492000000000001,-0.5296000000000001]","[-0.5922000000000001,-0.7492000000000001,-0.5296000000000001]",91,46,1,0,0,response1disk,0,-6,1,0,0,rectangle,0,-6,1,0,0,2,1,0.0001,0,0,-6,1,0,0,0,11,11,60,1,60,first,,,,,,,,,,,,,,,,,,,,,,,,,,,,,,,,,,,,,,,,,,,,,,,,,,,,,,,,,,,,,,,,,,,,,,,,
,,,,,,5b992a5224a3450001fa3454,62c53aa5c5861622af3fff69,2022-07-06_09h39.06.586,Colour_Asymmetry_Pilot,2022.1.3,Win32,60.0132029,62c50e9c1127f2cd403a315f,,,,,,,,,,,,,,,,,,,,twoone,,1,3.5832,,,,,,,,,,,,,,,,,,,,,,,,,,,,,,,,,,"[-0.6706000000000001,-0.6157999999999999,-0.6786]","[0.8115999999999999,-0.0040000000000000036,-0.09819999999999995]",25,-38,1,0,0,response3disk,-2,3,1,0,0,rectangle,-2,3,1,0,0,2,2,0.0004,0,-2,3,1,0,0,0,12,12,25,1,25,first,,,,,,,,,,,,,,,,,,,,,,,,,,,,,,,,,,,,,,,,,,,,,,,,,,,,,,,,,,,,,,,,,,,,,,,,
,,,,,,5b992a5224a3450001fa3454,62c53aa5c5861622af3fff69,2022-07-06_09h39.06.586,Colour_Asymmetry_Pilot,2022.1.3,Win32,60.0132029,62c50e9c1127f2cd403a315f,,,,,,,,,,,,,,,,,,,,fourtwo,,-4,0.5995,,,,,,,,,,,,,,,,,,,,,,,,,,,,,,,,,,"[0.23920000000000008,0.2704,0.16060000000000008]","[-0.4668,-0.8746,-0.2942]",-71,103,1,0,0,response7disk,-4,8,1,0,0,rectangle,-4,8,1,0,0,2,2,0.0001,0,-4,8,1,0,0,0,13,13,68,1,68,first,,,,,,,,,,,,,,,,,,,,,,,,,,,,,,,,,,,,,,,,,,,,,,,,,,,,,,,,,,,,,,,,,,,,,,,,
,,,,,,5b992a5224a3450001fa3454,62c53aa5c5861622af3fff69,2022-07-06_09h39.06.586,Colour_Asymmetry_Pilot,2022.1.3,Win32,60.0132029,62c50e9c1127f2cd403a315f,,,,,,,,,,,,,,,,,,,,onetwo,,1,5.5329,,,,,,,,,,,,,,,,,,,,,,,,,,,,,,,,,,"[1,0.12939999999999996,-1]","[-0.4982,-0.2942,-0.0354000000000001]",50,-94,1,0,0,response3disk,8,-4,1,0,0,rectangle,8,-4,1,0,0,2,1,0.0005,0,8,-4,1,0,0,0,14,14,150,1,69,second,,,,,,,,,,,,,,,,,,,,,,,,,,,,,,,,,,,,,,,,,,,,,,,,,,,,,,,,,,,,,,,,,,,,,,,,
,,,,,,5b992a5224a3450001fa3454,62c53aa5c5861622af3fff69,2022-07-06_09h39.06.586,Colour_Asymmetry_Pilot,2022.1.3,Win32,60.0132029,62c50e9c1127f2cd403a315f,,,,,,,,,,,,,,,,,,,,twoone,,2,0.8832,,,,,,,,,,,,,,,,,,,,,,,,,,,,,,,,,,"[-0.050999999999999934,-0.6706000000000001,-0.804]","[-0.01980000000000004,-0.5138,-0.38039999999999996]",102,-63,1,0,0,response3disk,2,4,1,0,0,rectangle,2,4,1,0,0,2,3,0.0004,0,2,4,1,0,0,0,15,15,105,1,24,second,,,,,,,,,,,,,,,,,,,,,,,,,,,,,,,,,,,,,,,,,,,,,,,,,,,,,,,,,,,,,,,,,,,,,,,,
,,,,,,5b992a5224a3450001fa3454,62c53aa5c5861622af3fff69,2022-07-06_09h39.06.586,Colour_Asymmetry_Pilot,2022.1.3,Win32,60.0132029,62c50e9c1127f2cd403a315f,,,,,,,,,,,,,,,,,,,,onethree,,-2,1.3167,,,,,,,,,,,,,,,,,,,,,,,,,,,,,,,,,,"[0.23920000000000008,0.2704,0.16060000000000008]","[-0.45899999999999996,-0.3256,-0.9374]",-58,-39,1,0,0,response5disk,-6,-1,1,0,0,rectangle,-6,-1,1,0,0,2,1,0.0006,0,-6,-1,1,0,0,0,16,16,79,1,79,first,,,,,,,,,,,,,,,,,,,,,,,,,,,,,,,,,,,,,,,,,,,,,,,,,,,,,,,,,,,,,,,,,,,,,,,,
,,,,,,5b992a5224a3450001fa3454,62c53aa5c5861622af3fff69,2022-07-06_09h39.06.586,Colour_Asymmetry_Pilot,2022.1.3,Win32,60.0132029,62c50e9c1127f2cd403a315f,,,,,,,,,,,,,,,,,,,,twoone,,-3,3.6163,,,,,,,,,,,,,,,,,,,,,,,,,,,,,,,,,,"[-0.06680000000000008,-0.45100000000000007,-0.906]","[0.6547999999999998,-0.043199999999999905,-0.011800000000000033]",-106,49,1,0,0,response7disk,-1,4,1,0,0,rectangle,-1,4,1,0,0,2,2,0.0005,0,-1,4,1,0,0,0,17,17,49,1,49,first,,,,,,,,,,,,,,,,,,,,,,,,,,,,,,,,,,,,,,,,,,,,,,,,,,,,,,,,,,,,,,,,,,,,,,,,
