trials.thisRepN,trials.thisTrialN,trials.thisN,trials.thisIndex,trials.ran,Colourcodes,participant,session,date,expName,psychopyVersion,OS,frameRate,study_id,trials_4.thisRepN,trials_4.thisTrialN,trials_4.thisN,trials_4.thisIndex,trials_4.ran,StimulusPos,key_resp.keys,key_resp.rt,key_resp_2.keys,key_resp_2.rt,key_resp_15.keys,key_resp_15.rt,key_resp_17.keys,key_resp_17.rt,key_resp_9.keys,key_resp_9.rt,key_resp_10.keys,key_resp_10.rt,Circle1_col,Ecc,Circle2_col,similarity,response_time,mouse_5.x,mouse_5.y,mouse_5.leftButton,mouse_5.midButton,mouse_5.rightButton,mouse_5.clicked_name,mouse_10.x,mouse_10.y,mouse_10.leftButton,mouse_10.midButton,mouse_10.rightButton,mouse_10.clicked_name,mouse_7.x,mouse_7.y,mouse_7.leftButton,mouse_7.midButton,mouse_7.rightButton,catchnumberprac,mouse_6.x,mouse_6.y,mouse_6.leftButton,mouse_6.midButton,mouse_6.rightButton,duringprac.thisRepN,duringprac.thisTrialN,duringprac.thisN,duringprac.thisIndex,duringprac.ran,mouse_7.clicked_name,catchprac,mouse_6.clicked_name,key_resp_22.keys,key_resp_22.rt,Circle1_colour,Circle2_colour,mouse.x,mouse.y,mouse.leftButton,mouse.midButton,mouse.rightButton,mouse.clicked_name,mouse_2.x,mouse_2.y,mouse_2.leftButton,mouse_2.midButton,mouse_2.rightButton,mouse_2.clicked_name,mouse_3.x,mouse_3.y,mouse_3.leftButton,mouse_3.midButton,mouse_3.rightButton,catchresponse,catchnumber,response_time_catch,Catch,mouse_11.x,mouse_11.y,mouse_11.leftButton,mouse_11.midButton,mouse_11.rightButton,trials_2.thisRepN,trials_2.thisTrialN,trials_2.thisN,trials_2.thisIndex,trials_2.ran,Colourpair,Temporder,mouse_3.clicked_name,mouse_11.clicked_name,trials_3.thisRepN,trials_3.thisTrialN,trials_3.thisN,trials_3.thisIndex,trials_3.ran,key_resp_instr_Ishi.keys,key_resp_instr_Ishi.rt,Ishi_trial_keyresp.keys,Ishi_textbox.text,Ishi_mouse.x,Ishi_mouse.y,Ishi_mouse.leftButton,Ishi_mouse.midButton,Ishi_mouse.rightButton,Ishi_mouse.clicked_name,Ishi_loop.thisRepN,Ishi_loop.thisTrialN,Ishi_loop.thisN,Ishi_loop.thisIndex,Ishi_loop.ran,imageaddress,textbox.text,mouse_4.x,mouse_4.y,mouse_4.leftButton,mouse_4.midButton,mouse_4.rightButton,mouse_4.clicked_name,textbox_2.text,mouse_8.x,mouse_8.y,mouse_8.leftButton,mouse_8.midButton,mouse_8.rightButton,mouse_8.clicked_name,textbox_3.text,mouse_9.x,mouse_9.y,mouse_9.leftButton,mouse_9.midButton,mouse_9.rightButton,mouse_9.clicked_name,textbox_4.text,mouse_12.x,mouse_12.y,mouse_12.leftButton,mouse_12.midButton,mouse_12.rightButton,mouse_12.clicked_name,textbox_5.text,mouse_13.x,mouse_13.y,mouse_13.leftButton,mouse_13.midButton,mouse_13.rightButton,mouse_13.clicked_name,textbox_6.text,mouse_14.x,mouse_14.y,mouse_14.leftButton,mouse_14.midButton,mouse_14.rightButton,mouse_14.clicked_name,textbox_7.text,mouse_15.x,mouse_15.y,mouse_15.leftButton,mouse_15.midButton,mouse_15.rightButton,mouse_15.clicked_name
0,0,0,10,1,,601293860c66d92eec572b90,62c5398e58c7705bdcbb4b2c,2022-07-06_09h28.45.826,Colour_Asymmetry_Pilot,2022.1.3,Win32,59.96641881,62c50e9c1127f2cd403a315f,,,,,,,,,,,,,,,,,,,,,,,,,,,,,,,,,,,,,,,,,,,,,,,,,,,,,,,,,,,,,,,,,,,,,,,,,,,,,,,,,,,,,,,,,,,,,,,,,,,,,,,,,,,,,,,,,,,,,,,,,,,,,,,,,,,,,,,,,,,,,,,,,,,,,,,,,,,,,,,,,,,
0,1,1,15,1,,601293860c66d92eec572b90,62c5398e58c7705bdcbb4b2c,2022-07-06_09h28.45.826,Colour_Asymmetry_Pilot,2022.1.3,Win32,59.96641881,62c50e9c1127f2cd403a315f,,,,,,,,,,,,,,,,,,,,,,,,,,,,,,,,,,,,,,,,,,,,,,,,,,,,,,,,,,,,,,,,,,,,,,,,,,,,,,,,,,,,,,,,,,,,,,,,,,,,,,,,,,,,,,,,,,,,,,,,,,,,,,,,,,,,,,,,,,,,,,,,,,,,,,,,,,,,,,,,,,,
0,2,2,89,1,,601293860c66d92eec572b90,62c5398e58c7705bdcbb4b2c,2022-07-06_09h28.45.826,Colour_Asymmetry_Pilot,2022.1.3,Win32,59.96641881,62c50e9c1127f2cd403a315f,,,,,,,,,,,,,,,,,,,,,,,,,,,,,,,,,,,,,,,,,,,,,,,,,,,,,,,,,,,,,,,,,,,,,,,,,,,,,,,,,,,,,,,,,,,,,,,,,,,,,,,,,,,,,,,,,,,,,,,,,,,,,,,,,,,,,,,,,,,,,,,,,,,,,,,,,,,,,,,,,,,
0,3,3,52,1,,601293860c66d92eec572b90,62c5398e58c7705bdcbb4b2c,2022-07-06_09h28.45.826,Colour_Asymmetry_Pilot,2022.1.3,Win32,59.96641881,62c50e9c1127f2cd403a315f,,,,,,,,,,,,,,,,,,,,,,,,,,,,,,,,,,,,,,,,,,,,,,,,,,,,,,,,,,,,,,,,,,,,,,,,,,,,,,,,,,,,,,,,,,,,,,,,,,,,,,,,,,,,,,,,,,,,,,,,,,,,,,,,,,,,,,,,,,,,,,,,,,,,,,,,,,,,,,,,,,,
0,4,4,40,1,,601293860c66d92eec572b90,62c5398e58c7705bdcbb4b2c,2022-07-06_09h28.45.826,Colour_Asymmetry_Pilot,2022.1.3,Win32,59.96641881,62c50e9c1127f2cd403a315f,,,,,,,,,,,,,,,,,,,,,,,,,,,,,,,,,,,,,,,,,,,,,,,,,,,,,,,,,,,,,,,,,,,,,,,,,,,,,,,,,,,,,,,,,,,,,,,,,,,,,,,,,,,,,,,,,,,,,,,,,,,,,,,,,,,,,,,,,,,,,,,,,,,,,,,,,,,,,,,,,,,
0,5,5,69,1,,601293860c66d92eec572b90,62c5398e58c7705bdcbb4b2c,2022-07-06_09h28.45.826,Colour_Asymmetry_Pilot,2022.1.3,Win32,59.96641881,62c50e9c1127f2cd403a315f,,,,,,,,,,,,,,,,,,,,,,,,,,,,,,,,,,,,,,,,,,,,,,,,,,,,,,,,,,,,,,,,,,,,,,,,,,,,,,,,,,,,,,,,,,,,,,,,,,,,,,,,,,,,,,,,,,,,,,,,,,,,,,,,,,,,,,,,,,,,,,,,,,,,,,,,,,,,,,,,,,,
0,6,6,23,1,,601293860c66d92eec572b90,62c5398e58c7705bdcbb4b2c,2022-07-06_09h28.45.826,Colour_Asymmetry_Pilot,2022.1.3,Win32,59.96641881,62c50e9c1127f2cd403a315f,,,,,,,,,,,,,,,,,,,,,,,,,,,,,,,,,,,,,,,,,,,,,,,,,,,,,,,,,,,,,,,,,,,,,,,,,,,,,,,,,,,,,,,,,,,,,,,,,,,,,,,,,,,,,,,,,,,,,,,,,,,,,,,,,,,,,,,,,,,,,,,,,,,,,,,,,,,,,,,,,,,
0,7,7,92,1,,601293860c66d92eec572b90,62c5398e58c7705bdcbb4b2c,2022-07-06_09h28.45.826,Colour_Asymmetry_Pilot,2022.1.3,Win32,59.96641881,62c50e9c1127f2cd403a315f,,,,,,,,,,,,,,,,,,,,,,,,,,,,,,,,,,,,,,,,,,,,,,,,,,,,,,,,,,,,,,,,,,,,,,,,,,,,,,,,,,,,,,,,,,,,,,,,,,,,,,,,,,,,,,,,,,,,,,,,,,,,,,,,,,,,,,,,,,,,,,,,,,,,,,,,,,,,,,,,,,,
0,8,8,38,1,,601293860c66d92eec572b90,62c5398e58c7705bdcbb4b2c,2022-07-06_09h28.45.826,Colour_Asymmetry_Pilot,2022.1.3,Win32,59.96641881,62c50e9c1127f2cd403a315f,,,,,,,,,,,,,,,,,,,,,,,,,,,,,,,,,,,,,,,,,,,,,,,,,,,,,,,,,,,,,,,,,,,,,,,,,,,,,,,,,,,,,,,,,,,,,,,,,,,,,,,,,,,,,,,,,,,,,,,,,,,,,,,,,,,,,,,,,,,,,,,,,,,,,,,,,,,,,,,,,,,
0,9,9,22,1,,601293860c66d92eec572b90,62c5398e58c7705bdcbb4b2c,2022-07-06_09h28.45.826,Colour_Asymmetry_Pilot,2022.1.3,Win32,59.96641881,62c50e9c1127f2cd403a315f,,,,,,,,,,,,,,,,,,,,,,,,,,,,,,,,,,,,,,,,,,,,,,,,,,,,,,,,,,,,,,,,,,,,,,,,,,,,,,,,,,,,,,,,,,,,,,,,,,,,,,,,,,,,,,,,,,,,,,,,,,,,,,,,,,,,,,,,,,,,,,,,,,,,,,,,,,,,,,,,,,,
0,10,10,16,1,,601293860c66d92eec572b90,62c5398e58c7705bdcbb4b2c,2022-07-06_09h28.45.826,Colour_Asymmetry_Pilot,2022.1.3,Win32,59.96641881,62c50e9c1127f2cd403a315f,,,,,,,,,,,,,,,,,,,,,,,,,,,,,,,,,,,,,,,,,,,,,,,,,,,,,,,,,,,,,,,,,,,,,,,,,,,,,,,,,,,,,,,,,,,,,,,,,,,,,,,,,,,,,,,,,,,,,,,,,,,,,,,,,,,,,,,,,,,,,,,,,,,,,,,,,,,,,,,,,,,
0,11,11,37,1,,601293860c66d92eec572b90,62c5398e58c7705bdcbb4b2c,2022-07-06_09h28.45.826,Colour_Asymmetry_Pilot,2022.1.3,Win32,59.96641881,62c50e9c1127f2cd403a315f,,,,,,,,,,,,,,,,,,,,,,,,,,,,,,,,,,,,,,,,,,,,,,,,,,,,,,,,,,,,,,,,,,,,,,,,,,,,,,,,,,,,,,,,,,,,,,,,,,,,,,,,,,,,,,,,,,,,,,,,,,,,,,,,,,,,,,,,,,,,,,,,,,,,,,,,,,,,,,,,,,,
0,12,12,20,1,,601293860c66d92eec572b90,62c5398e58c7705bdcbb4b2c,2022-07-06_09h28.45.826,Colour_Asymmetry_Pilot,2022.1.3,Win32,59.96641881,62c50e9c1127f2cd403a315f,,,,,,,,,,,,,,,,,,,,,,,,,,,,,,,,,,,,,,,,,,,,,,,,,,,,,,,,,,,,,,,,,,,,,,,,,,,,,,,,,,,,,,,,,,,,,,,,,,,,,,,,,,,,,,,,,,,,,,,,,,,,,,,,,,,,,,,,,,,,,,,,,,,,,,,,,,,,,,,,,,,
0,13,13,11,1,,601293860c66d92eec572b90,62c5398e58c7705bdcbb4b2c,2022-07-06_09h28.45.826,Colour_Asymmetry_Pilot,2022.1.3,Win32,59.96641881,62c50e9c1127f2cd403a315f,,,,,,,,,,,,,,,,,,,,,,,,,,,,,,,,,,,,,,,,,,,,,,,,,,,,,,,,,,,,,,,,,,,,,,,,,,,,,,,,,,,,,,,,,,,,,,,,,,,,,,,,,,,,,,,,,,,,,,,,,,,,,,,,,,,,,,,,,,,,,,,,,,,,,,,,,,,,,,,,,,,
0,14,14,73,1,,601293860c66d92eec572b90,62c5398e58c7705bdcbb4b2c,2022-07-06_09h28.45.826,Colour_Asymmetry_Pilot,2022.1.3,Win32,59.96641881,62c50e9c1127f2cd403a315f,,,,,,,,,,,,,,,,,,,,,,,,,,,,,,,,,,,,,,,,,,,,,,,,,,,,,,,,,,,,,,,,,,,,,,,,,,,,,,,,,,,,,,,,,,,,,,,,,,,,,,,,,,,,,,,,,,,,,,,,,,,,,,,,,,,,,,,,,,,,,,,,,,,,,,,,,,,,,,,,,,,
0,15,15,80,1,,601293860c66d92eec572b90,62c5398e58c7705bdcbb4b2c,2022-07-06_09h28.45.826,Colour_Asymmetry_Pilot,2022.1.3,Win32,59.96641881,62c50e9c1127f2cd403a315f,,,,,,,,,,,,,,,,,,,,,,,,,,,,,,,,,,,,,,,,,,,,,,,,,,,,,,,,,,,,,,,,,,,,,,,,,,,,,,,,,,,,,,,,,,,,,,,,,,,,,,,,,,,,,,,,,,,,,,,,,,,,,,,,,,,,,,,,,,,,,,,,,,,,,,,,,,,,,,,,,,,
0,16,16,55,1,,601293860c66d92eec572b90,62c5398e58c7705bdcbb4b2c,2022-07-06_09h28.45.826,Colour_Asymmetry_Pilot,2022.1.3,Win32,59.96641881,62c50e9c1127f2cd403a315f,,,,,,,,,,,,,,,,,,,,,,,,,,,,,,,,,,,,,,,,,,,,,,,,,,,,,,,,,,,,,,,,,,,,,,,,,,,,,,,,,,,,,,,,,,,,,,,,,,,,,,,,,,,,,,,,,,,,,,,,,,,,,,,,,,,,,,,,,,,,,,,,,,,,,,,,,,,,,,,,,,,
0,17,17,81,1,,601293860c66d92eec572b90,62c5398e58c7705bdcbb4b2c,2022-07-06_09h28.45.826,Colour_Asymmetry_Pilot,2022.1.3,Win32,59.96641881,62c50e9c1127f2cd403a315f,,,,,,,,,,,,,,,,,,,,,,,,,,,,,,,,,,,,,,,,,,,,,,,,,,,,,,,,,,,,,,,,,,,,,,,,,,,,,,,,,,,,,,,,,,,,,,,,,,,,,,,,,,,,,,,,,,,,,,,,,,,,,,,,,,,,,,,,,,,,,,,,,,,,,,,,,,,,,,,,,,,
0,18,18,4,1,,601293860c66d92eec572b90,62c5398e58c7705bdcbb4b2c,2022-07-06_09h28.45.826,Colour_Asymmetry_Pilot,2022.1.3,Win32,59.96641881,62c50e9c1127f2cd403a315f,,,,,,,,,,,,,,,,,,,,,,,,,,,,,,,,,,,,,,,,,,,,,,,,,,,,,,,,,,,,,,,,,,,,,,,,,,,,,,,,,,,,,,,,,,,,,,,,,,,,,,,,,,,,,,,,,,,,,,,,,,,,,,,,,,,,,,,,,,,,,,,,,,,,,,,,,,,,,,,,,,,
0,19,19,45,1,,601293860c66d92eec572b90,62c5398e58c7705bdcbb4b2c,2022-07-06_09h28.45.826,Colour_Asymmetry_Pilot,2022.1.3,Win32,59.96641881,62c50e9c1127f2cd403a315f,,,,,,,,,,,,,,,,,,,,,,,,,,,,,,,,,,,,,,,,,,,,,,,,,,,,,,,,,,,,,,,,,,,,,,,,,,,,,,,,,,,,,,,,,,,,,,,,,,,,,,,,,,,,,,,,,,,,,,,,,,,,,,,,,,,,,,,,,,,,,,,,,,,,,,,,,,,,,,,,,,,
0,20,20,33,1,,601293860c66d92eec572b90,62c5398e58c7705bdcbb4b2c,2022-07-06_09h28.45.826,Colour_Asymmetry_Pilot,2022.1.3,Win32,59.96641881,62c50e9c1127f2cd403a315f,,,,,,,,,,,,,,,,,,,,,,,,,,,,,,,,,,,,,,,,,,,,,,,,,,,,,,,,,,,,,,,,,,,,,,,,,,,,,,,,,,,,,,,,,,,,,,,,,,,,,,,,,,,,,,,,,,,,,,,,,,,,,,,,,,,,,,,,,,,,,,,,,,,,,,,,,,,,,,,,,,,
0,21,21,68,1,,601293860c66d92eec572b90,62c5398e58c7705bdcbb4b2c,2022-07-06_09h28.45.826,Colour_Asymmetry_Pilot,2022.1.3,Win32,59.96641881,62c50e9c1127f2cd403a315f,,,,,,,,,,,,,,,,,,,,,,,,,,,,,,,,,,,,,,,,,,,,,,,,,,,,,,,,,,,,,,,,,,,,,,,,,,,,,,,,,,,,,,,,,,,,,,,,,,,,,,,,,,,,,,,,,,,,,,,,,,,,,,,,,,,,,,,,,,,,,,,,,,,,,,,,,,,,,,,,,,,
0,22,22,35,1,,601293860c66d92eec572b90,62c5398e58c7705bdcbb4b2c,2022-07-06_09h28.45.826,Colour_Asymmetry_Pilot,2022.1.3,Win32,59.96641881,62c50e9c1127f2cd403a315f,,,,,,,,,,,,,,,,,,,,,,,,,,,,,,,,,,,,,,,,,,,,,,,,,,,,,,,,,,,,,,,,,,,,,,,,,,,,,,,,,,,,,,,,,,,,,,,,,,,,,,,,,,,,,,,,,,,,,,,,,,,,,,,,,,,,,,,,,,,,,,,,,,,,,,,,,,,,,,,,,,,
0,23,23,82,1,,601293860c66d92eec572b90,62c5398e58c7705bdcbb4b2c,2022-07-06_09h28.45.826,Colour_Asymmetry_Pilot,2022.1.3,Win32,59.96641881,62c50e9c1127f2cd403a315f,,,,,,,,,,,,,,,,,,,,,,,,,,,,,,,,,,,,,,,,,,,,,,,,,,,,,,,,,,,,,,,,,,,,,,,,,,,,,,,,,,,,,,,,,,,,,,,,,,,,,,,,,,,,,,,,,,,,,,,,,,,,,,,,,,,,,,,,,,,,,,,,,,,,,,,,,,,,,,,,,,,
0,24,24,21,1,,601293860c66d92eec572b90,62c5398e58c7705bdcbb4b2c,2022-07-06_09h28.45.826,Colour_Asymmetry_Pilot,2022.1.3,Win32,59.96641881,62c50e9c1127f2cd403a315f,,,,,,,,,,,,,,,,,,,,,,,,,,,,,,,,,,,,,,,,,,,,,,,,,,,,,,,,,,,,,,,,,,,,,,,,,,,,,,,,,,,,,,,,,,,,,,,,,,,,,,,,,,,,,,,,,,,,,,,,,,,,,,,,,,,,,,,,,,,,,,,,,,,,,,,,,,,,,,,,,,,
0,25,25,59,1,,601293860c66d92eec572b90,62c5398e58c7705bdcbb4b2c,2022-07-06_09h28.45.826,Colour_Asymmetry_Pilot,2022.1.3,Win32,59.96641881,62c50e9c1127f2cd403a315f,,,,,,,,,,,,,,,,,,,,,,,,,,,,,,,,,,,,,,,,,,,,,,,,,,,,,,,,,,,,,,,,,,,,,,,,,,,,,,,,,,,,,,,,,,,,,,,,,,,,,,,,,,,,,,,,,,,,,,,,,,,,,,,,,,,,,,,,,,,,,,,,,,,,,,,,,,,,,,,,,,,
0,26,26,28,1,,601293860c66d92eec572b90,62c5398e58c7705bdcbb4b2c,2022-07-06_09h28.45.826,Colour_Asymmetry_Pilot,2022.1.3,Win32,59.96641881,62c50e9c1127f2cd403a315f,,,,,,,,,,,,,,,,,,,,,,,,,,,,,,,,,,,,,,,,,,,,,,,,,,,,,,,,,,,,,,,,,,,,,,,,,,,,,,,,,,,,,,,,,,,,,,,,,,,,,,,,,,,,,,,,,,,,,,,,,,,,,,,,,,,,,,,,,,,,,,,,,,,,,,,,,,,,,,,,,,,
0,27,27,91,1,,601293860c66d92eec572b90,62c5398e58c7705bdcbb4b2c,2022-07-06_09h28.45.826,Colour_Asymmetry_Pilot,2022.1.3,Win32,59.96641881,62c50e9c1127f2cd403a315f,,,,,,,,,,,,,,,,,,,,,,,,,,,,,,,,,,,,,,,,,,,,,,,,,,,,,,,,,,,,,,,,,,,,,,,,,,,,,,,,,,,,,,,,,,,,,,,,,,,,,,,,,,,,,,,,,,,,,,,,,,,,,,,,,,,,,,,,,,,,,,,,,,,,,,,,,,,,,,,,,,,
0,28,28,30,1,,601293860c66d92eec572b90,62c5398e58c7705bdcbb4b2c,2022-07-06_09h28.45.826,Colour_Asymmetry_Pilot,2022.1.3,Win32,59.96641881,62c50e9c1127f2cd403a315f,,,,,,,,,,,,,,,,,,,,,,,,,,,,,,,,,,,,,,,,,,,,,,,,,,,,,,,,,,,,,,,,,,,,,,,,,,,,,,,,,,,,,,,,,,,,,,,,,,,,,,,,,,,,,,,,,,,,,,,,,,,,,,,,,,,,,,,,,,,,,,,,,,,,,,,,,,,,,,,,,,,
0,29,29,44,1,,601293860c66d92eec572b90,62c5398e58c7705bdcbb4b2c,2022-07-06_09h28.45.826,Colour_Asymmetry_Pilot,2022.1.3,Win32,59.96641881,62c50e9c1127f2cd403a315f,,,,,,,,,,,,,,,,,,,,,,,,,,,,,,,,,,,,,,,,,,,,,,,,,,,,,,,,,,,,,,,,,,,,,,,,,,,,,,,,,,,,,,,,,,,,,,,,,,,,,,,,,,,,,,,,,,,,,,,,,,,,,,,,,,,,,,,,,,,,,,,,,,,,,,,,,,,,,,,,,,,
0,30,30,50,1,,601293860c66d92eec572b90,62c5398e58c7705bdcbb4b2c,2022-07-06_09h28.45.826,Colour_Asymmetry_Pilot,2022.1.3,Win32,59.96641881,62c50e9c1127f2cd403a315f,,,,,,,,,,,,,,,,,,,,,,,,,,,,,,,,,,,,,,,,,,,,,,,,,,,,,,,,,,,,,,,,,,,,,,,,,,,,,,,,,,,,,,,,,,,,,,,,,,,,,,,,,,,,,,,,,,,,,,,,,,,,,,,,,,,,,,,,,,,,,,,,,,,,,,,,,,,,,,,,,,,
0,31,31,39,1,,601293860c66d92eec572b90,62c5398e58c7705bdcbb4b2c,2022-07-06_09h28.45.826,Colour_Asymmetry_Pilot,2022.1.3,Win32,59.96641881,62c50e9c1127f2cd403a315f,,,,,,,,,,,,,,,,,,,,,,,,,,,,,,,,,,,,,,,,,,,,,,,,,,,,,,,,,,,,,,,,,,,,,,,,,,,,,,,,,,,,,,,,,,,,,,,,,,,,,,,,,,,,,,,,,,,,,,,,,,,,,,,,,,,,,,,,,,,,,,,,,,,,,,,,,,,,,,,,,,,
0,32,32,58,1,,601293860c66d92eec572b90,62c5398e58c7705bdcbb4b2c,2022-07-06_09h28.45.826,Colour_Asymmetry_Pilot,2022.1.3,Win32,59.96641881,62c50e9c1127f2cd403a315f,,,,,,,,,,,,,,,,,,,,,,,,,,,,,,,,,,,,,,,,,,,,,,,,,,,,,,,,,,,,,,,,,,,,,,,,,,,,,,,,,,,,,,,,,,,,,,,,,,,,,,,,,,,,,,,,,,,,,,,,,,,,,,,,,,,,,,,,,,,,,,,,,,,,,,,,,,,,,,,,,,,
0,33,33,43,1,,601293860c66d92eec572b90,62c5398e58c7705bdcbb4b2c,2022-07-06_09h28.45.826,Colour_Asymmetry_Pilot,2022.1.3,Win32,59.96641881,62c50e9c1127f2cd403a315f,,,,,,,,,,,,,,,,,,,,,,,,,,,,,,,,,,,,,,,,,,,,,,,,,,,,,,,,,,,,,,,,,,,,,,,,,,,,,,,,,,,,,,,,,,,,,,,,,,,,,,,,,,,,,,,,,,,,,,,,,,,,,,,,,,,,,,,,,,,,,,,,,,,,,,,,,,,,,,,,,,,
0,34,34,7,1,,601293860c66d92eec572b90,62c5398e58c7705bdcbb4b2c,2022-07-06_09h28.45.826,Colour_Asymmetry_Pilot,2022.1.3,Win32,59.96641881,62c50e9c1127f2cd403a315f,,,,,,,,,,,,,,,,,,,,,,,,,,,,,,,,,,,,,,,,,,,,,,,,,,,,,,,,,,,,,,,,,,,,,,,,,,,,,,,,,,,,,,,,,,,,,,,,,,,,,,,,,,,,,,,,,,,,,,,,,,,,,,,,,,,,,,,,,,,,,,,,,,,,,,,,,,,,,,,,,,,
0,35,35,75,1,,601293860c66d92eec572b90,62c5398e58c7705bdcbb4b2c,2022-07-06_09h28.45.826,Colour_Asymmetry_Pilot,2022.1.3,Win32,59.96641881,62c50e9c1127f2cd403a315f,,,,,,,,,,,,,,,,,,,,,,,,,,,,,,,,,,,,,,,,,,,,,,,,,,,,,,,,,,,,,,,,,,,,,,,,,,,,,,,,,,,,,,,,,,,,,,,,,,,,,,,,,,,,,,,,,,,,,,,,,,,,,,,,,,,,,,,,,,,,,,,,,,,,,,,,,,,,,,,,,,,
0,36,36,74,1,,601293860c66d92eec572b90,62c5398e58c7705bdcbb4b2c,2022-07-06_09h28.45.826,Colour_Asymmetry_Pilot,2022.1.3,Win32,59.96641881,62c50e9c1127f2cd403a315f,,,,,,,,,,,,,,,,,,,,,,,,,,,,,,,,,,,,,,,,,,,,,,,,,,,,,,,,,,,,,,,,,,,,,,,,,,,,,,,,,,,,,,,,,,,,,,,,,,,,,,,,,,,,,,,,,,,,,,,,,,,,,,,,,,,,,,,,,,,,,,,,,,,,,,,,,,,,,,,,,,,
0,37,37,65,1,,601293860c66d92eec572b90,62c5398e58c7705bdcbb4b2c,2022-07-06_09h28.45.826,Colour_Asymmetry_Pilot,2022.1.3,Win32,59.96641881,62c50e9c1127f2cd403a315f,,,,,,,,,,,,,,,,,,,,,,,,,,,,,,,,,,,,,,,,,,,,,,,,,,,,,,,,,,,,,,,,,,,,,,,,,,,,,,,,,,,,,,,,,,,,,,,,,,,,,,,,,,,,,,,,,,,,,,,,,,,,,,,,,,,,,,,,,,,,,,,,,,,,,,,,,,,,,,,,,,,
0,38,38,83,1,,601293860c66d92eec572b90,62c5398e58c7705bdcbb4b2c,2022-07-06_09h28.45.826,Colour_Asymmetry_Pilot,2022.1.3,Win32,59.96641881,62c50e9c1127f2cd403a315f,,,,,,,,,,,,,,,,,,,,,,,,,,,,,,,,,,,,,,,,,,,,,,,,,,,,,,,,,,,,,,,,,,,,,,,,,,,,,,,,,,,,,,,,,,,,,,,,,,,,,,,,,,,,,,,,,,,,,,,,,,,,,,,,,,,,,,,,,,,,,,,,,,,,,,,,,,,,,,,,,,,
0,39,39,8,1,,601293860c66d92eec572b90,62c5398e58c7705bdcbb4b2c,2022-07-06_09h28.45.826,Colour_Asymmetry_Pilot,2022.1.3,Win32,59.96641881,62c50e9c1127f2cd403a315f,,,,,,,,,,,,,,,,,,,,,,,,,,,,,,,,,,,,,,,,,,,,,,,,,,,,,,,,,,,,,,,,,,,,,,,,,,,,,,,,,,,,,,,,,,,,,,,,,,,,,,,,,,,,,,,,,,,,,,,,,,,,,,,,,,,,,,,,,,,,,,,,,,,,,,,,,,,,,,,,,,,
0,40,40,14,1,,601293860c66d92eec572b90,62c5398e58c7705bdcbb4b2c,2022-07-06_09h28.45.826,Colour_Asymmetry_Pilot,2022.1.3,Win32,59.96641881,62c50e9c1127f2cd403a315f,,,,,,,,,,,,,,,,,,,,,,,,,,,,,,,,,,,,,,,,,,,,,,,,,,,,,,,,,,,,,,,,,,,,,,,,,,,,,,,,,,,,,,,,,,,,,,,,,,,,,,,,,,,,,,,,,,,,,,,,,,,,,,,,,,,,,,,,,,,,,,,,,,,,,,,,,,,,,,,,,,,
0,41,41,86,1,,601293860c66d92eec572b90,62c5398e58c7705bdcbb4b2c,2022-07-06_09h28.45.826,Colour_Asymmetry_Pilot,2022.1.3,Win32,59.96641881,62c50e9c1127f2cd403a315f,,,,,,,,,,,,,,,,,,,,,,,,,,,,,,,,,,,,,,,,,,,,,,,,,,,,,,,,,,,,,,,,,,,,,,,,,,,,,,,,,,,,,,,,,,,,,,,,,,,,,,,,,,,,,,,,,,,,,,,,,,,,,,,,,,,,,,,,,,,,,,,,,,,,,,,,,,,,,,,,,,,
0,42,42,47,1,,601293860c66d92eec572b90,62c5398e58c7705bdcbb4b2c,2022-07-06_09h28.45.826,Colour_Asymmetry_Pilot,2022.1.3,Win32,59.96641881,62c50e9c1127f2cd403a315f,,,,,,,,,,,,,,,,,,,,,,,,,,,,,,,,,,,,,,,,,,,,,,,,,,,,,,,,,,,,,,,,,,,,,,,,,,,,,,,,,,,,,,,,,,,,,,,,,,,,,,,,,,,,,,,,,,,,,,,,,,,,,,,,,,,,,,,,,,,,,,,,,,,,,,,,,,,,,,,,,,,
0,43,43,64,1,,601293860c66d92eec572b90,62c5398e58c7705bdcbb4b2c,2022-07-06_09h28.45.826,Colour_Asymmetry_Pilot,2022.1.3,Win32,59.96641881,62c50e9c1127f2cd403a315f,,,,,,,,,,,,,,,,,,,,,,,,,,,,,,,,,,,,,,,,,,,,,,,,,,,,,,,,,,,,,,,,,,,,,,,,,,,,,,,,,,,,,,,,,,,,,,,,,,,,,,,,,,,,,,,,,,,,,,,,,,,,,,,,,,,,,,,,,,,,,,,,,,,,,,,,,,,,,,,,,,,
0,44,44,51,1,,601293860c66d92eec572b90,62c5398e58c7705bdcbb4b2c,2022-07-06_09h28.45.826,Colour_Asymmetry_Pilot,2022.1.3,Win32,59.96641881,62c50e9c1127f2cd403a315f,,,,,,,,,,,,,,,,,,,,,,,,,,,,,,,,,,,,,,,,,,,,,,,,,,,,,,,,,,,,,,,,,,,,,,,,,,,,,,,,,,,,,,,,,,,,,,,,,,,,,,,,,,,,,,,,,,,,,,,,,,,,,,,,,,,,,,,,,,,,,,,,,,,,,,,,,,,,,,,,,,,
0,45,45,2,1,,601293860c66d92eec572b90,62c5398e58c7705bdcbb4b2c,2022-07-06_09h28.45.826,Colour_Asymmetry_Pilot,2022.1.3,Win32,59.96641881,62c50e9c1127f2cd403a315f,,,,,,,,,,,,,,,,,,,,,,,,,,,,,,,,,,,,,,,,,,,,,,,,,,,,,,,,,,,,,,,,,,,,,,,,,,,,,,,,,,,,,,,,,,,,,,,,,,,,,,,,,,,,,,,,,,,,,,,,,,,,,,,,,,,,,,,,,,,,,,,,,,,,,,,,,,,,,,,,,,,
0,46,46,1,1,,601293860c66d92eec572b90,62c5398e58c7705bdcbb4b2c,2022-07-06_09h28.45.826,Colour_Asymmetry_Pilot,2022.1.3,Win32,59.96641881,62c50e9c1127f2cd403a315f,,,,,,,,,,,,,,,,,,,,,,,,,,,,,,,,,,,,,,,,,,,,,,,,,,,,,,,,,,,,,,,,,,,,,,,,,,,,,,,,,,,,,,,,,,,,,,,,,,,,,,,,,,,,,,,,,,,,,,,,,,,,,,,,,,,,,,,,,,,,,,,,,,,,,,,,,,,,,,,,,,,
0,47,47,79,1,,601293860c66d92eec572b90,62c5398e58c7705bdcbb4b2c,2022-07-06_09h28.45.826,Colour_Asymmetry_Pilot,2022.1.3,Win32,59.96641881,62c50e9c1127f2cd403a315f,,,,,,,,,,,,,,,,,,,,,,,,,,,,,,,,,,,,,,,,,,,,,,,,,,,,,,,,,,,,,,,,,,,,,,,,,,,,,,,,,,,,,,,,,,,,,,,,,,,,,,,,,,,,,,,,,,,,,,,,,,,,,,,,,,,,,,,,,,,,,,,,,,,,,,,,,,,,,,,,,,,
0,48,48,48,1,,601293860c66d92eec572b90,62c5398e58c7705bdcbb4b2c,2022-07-06_09h28.45.826,Colour_Asymmetry_Pilot,2022.1.3,Win32,59.96641881,62c50e9c1127f2cd403a315f,,,,,,,,,,,,,,,,,,,,,,,,,,,,,,,,,,,,,,,,,,,,,,,,,,,,,,,,,,,,,,,,,,,,,,,,,,,,,,,,,,,,,,,,,,,,,,,,,,,,,,,,,,,,,,,,,,,,,,,,,,,,,,,,,,,,,,,,,,,,,,,,,,,,,,,,,,,,,,,,,,,
0,49,49,5,1,,601293860c66d92eec572b90,62c5398e58c7705bdcbb4b2c,2022-07-06_09h28.45.826,Colour_Asymmetry_Pilot,2022.1.3,Win32,59.96641881,62c50e9c1127f2cd403a315f,,,,,,,,,,,,,,,,,,,,,,,,,,,,,,,,,,,,,,,,,,,,,,,,,,,,,,,,,,,,,,,,,,,,,,,,,,,,,,,,,,,,,,,,,,,,,,,,,,,,,,,,,,,,,,,,,,,,,,,,,,,,,,,,,,,,,,,,,,,,,,,,,,,,,,,,,,,,,,,,,,,
0,50,50,49,1,,601293860c66d92eec572b90,62c5398e58c7705bdcbb4b2c,2022-07-06_09h28.45.826,Colour_Asymmetry_Pilot,2022.1.3,Win32,59.96641881,62c50e9c1127f2cd403a315f,,,,,,,,,,,,,,,,,,,,,,,,,,,,,,,,,,,,,,,,,,,,,,,,,,,,,,,,,,,,,,,,,,,,,,,,,,,,,,,,,,,,,,,,,,,,,,,,,,,,,,,,,,,,,,,,,,,,,,,,,,,,,,,,,,,,,,,,,,,,,,,,,,,,,,,,,,,,,,,,,,,
0,51,51,29,1,,601293860c66d92eec572b90,62c5398e58c7705bdcbb4b2c,2022-07-06_09h28.45.826,Colour_Asymmetry_Pilot,2022.1.3,Win32,59.96641881,62c50e9c1127f2cd403a315f,,,,,,,,,,,,,,,,,,,,,,,,,,,,,,,,,,,,,,,,,,,,,,,,,,,,,,,,,,,,,,,,,,,,,,,,,,,,,,,,,,,,,,,,,,,,,,,,,,,,,,,,,,,,,,,,,,,,,,,,,,,,,,,,,,,,,,,,,,,,,,,,,,,,,,,,,,,,,,,,,,,
0,52,52,62,1,,601293860c66d92eec572b90,62c5398e58c7705bdcbb4b2c,2022-07-06_09h28.45.826,Colour_Asymmetry_Pilot,2022.1.3,Win32,59.96641881,62c50e9c1127f2cd403a315f,,,,,,,,,,,,,,,,,,,,,,,,,,,,,,,,,,,,,,,,,,,,,,,,,,,,,,,,,,,,,,,,,,,,,,,,,,,,,,,,,,,,,,,,,,,,,,,,,,,,,,,,,,,,,,,,,,,,,,,,,,,,,,,,,,,,,,,,,,,,,,,,,,,,,,,,,,,,,,,,,,,
0,53,53,25,1,,601293860c66d92eec572b90,62c5398e58c7705bdcbb4b2c,2022-07-06_09h28.45.826,Colour_Asymmetry_Pilot,2022.1.3,Win32,59.96641881,62c50e9c1127f2cd403a315f,,,,,,,,,,,,,,,,,,,,,,,,,,,,,,,,,,,,,,,,,,,,,,,,,,,,,,,,,,,,,,,,,,,,,,,,,,,,,,,,,,,,,,,,,,,,,,,,,,,,,,,,,,,,,,,,,,,,,,,,,,,,,,,,,,,,,,,,,,,,,,,,,,,,,,,,,,,,,,,,,,,
0,54,54,41,1,,601293860c66d92eec572b90,62c5398e58c7705bdcbb4b2c,2022-07-06_09h28.45.826,Colour_Asymmetry_Pilot,2022.1.3,Win32,59.96641881,62c50e9c1127f2cd403a315f,,,,,,,,,,,,,,,,,,,,,,,,,,,,,,,,,,,,,,,,,,,,,,,,,,,,,,,,,,,,,,,,,,,,,,,,,,,,,,,,,,,,,,,,,,,,,,,,,,,,,,,,,,,,,,,,,,,,,,,,,,,,,,,,,,,,,,,,,,,,,,,,,,,,,,,,,,,,,,,,,,,
0,55,55,24,1,,601293860c66d92eec572b90,62c5398e58c7705bdcbb4b2c,2022-07-06_09h28.45.826,Colour_Asymmetry_Pilot,2022.1.3,Win32,59.96641881,62c50e9c1127f2cd403a315f,,,,,,,,,,,,,,,,,,,,,,,,,,,,,,,,,,,,,,,,,,,,,,,,,,,,,,,,,,,,,,,,,,,,,,,,,,,,,,,,,,,,,,,,,,,,,,,,,,,,,,,,,,,,,,,,,,,,,,,,,,,,,,,,,,,,,,,,,,,,,,,,,,,,,,,,,,,,,,,,,,,
0,56,56,54,1,,601293860c66d92eec572b90,62c5398e58c7705bdcbb4b2c,2022-07-06_09h28.45.826,Colour_Asymmetry_Pilot,2022.1.3,Win32,59.96641881,62c50e9c1127f2cd403a315f,,,,,,,,,,,,,,,,,,,,,,,,,,,,,,,,,,,,,,,,,,,,,,,,,,,,,,,,,,,,,,,,,,,,,,,,,,,,,,,,,,,,,,,,,,,,,,,,,,,,,,,,,,,,,,,,,,,,,,,,,,,,,,,,,,,,,,,,,,,,,,,,,,,,,,,,,,,,,,,,,,,
0,57,57,60,1,,601293860c66d92eec572b90,62c5398e58c7705bdcbb4b2c,2022-07-06_09h28.45.826,Colour_Asymmetry_Pilot,2022.1.3,Win32,59.96641881,62c50e9c1127f2cd403a315f,,,,,,,,,,,,,,,,,,,,,,,,,,,,,,,,,,,,,,,,,,,,,,,,,,,,,,,,,,,,,,,,,,,,,,,,,,,,,,,,,,,,,,,,,,,,,,,,,,,,,,,,,,,,,,,,,,,,,,,,,,,,,,,,,,,,,,,,,,,,,,,,,,,,,,,,,,,,,,,,,,,
0,58,58,13,1,,601293860c66d92eec572b90,62c5398e58c7705bdcbb4b2c,2022-07-06_09h28.45.826,Colour_Asymmetry_Pilot,2022.1.3,Win32,59.96641881,62c50e9c1127f2cd403a315f,,,,,,,,,,,,,,,,,,,,,,,,,,,,,,,,,,,,,,,,,,,,,,,,,,,,,,,,,,,,,,,,,,,,,,,,,,,,,,,,,,,,,,,,,,,,,,,,,,,,,,,,,,,,,,,,,,,,,,,,,,,,,,,,,,,,,,,,,,,,,,,,,,,,,,,,,,,,,,,,,,,
0,59,59,87,1,,601293860c66d92eec572b90,62c5398e58c7705bdcbb4b2c,2022-07-06_09h28.45.826,Colour_Asymmetry_Pilot,2022.1.3,Win32,59.96641881,62c50e9c1127f2cd403a315f,,,,,,,,,,,,,,,,,,,,,,,,,,,,,,,,,,,,,,,,,,,,,,,,,,,,,,,,,,,,,,,,,,,,,,,,,,,,,,,,,,,,,,,,,,,,,,,,,,,,,,,,,,,,,,,,,,,,,,,,,,,,,,,,,,,,,,,,,,,,,,,,,,,,,,,,,,,,,,,,,,,
0,60,60,76,1,,601293860c66d92eec572b90,62c5398e58c7705bdcbb4b2c,2022-07-06_09h28.45.826,Colour_Asymmetry_Pilot,2022.1.3,Win32,59.96641881,62c50e9c1127f2cd403a315f,,,,,,,,,,,,,,,,,,,,,,,,,,,,,,,,,,,,,,,,,,,,,,,,,,,,,,,,,,,,,,,,,,,,,,,,,,,,,,,,,,,,,,,,,,,,,,,,,,,,,,,,,,,,,,,,,,,,,,,,,,,,,,,,,,,,,,,,,,,,,,,,,,,,,,,,,,,,,,,,,,,
0,61,61,90,1,,601293860c66d92eec572b90,62c5398e58c7705bdcbb4b2c,2022-07-06_09h28.45.826,Colour_Asymmetry_Pilot,2022.1.3,Win32,59.96641881,62c50e9c1127f2cd403a315f,,,,,,,,,,,,,,,,,,,,,,,,,,,,,,,,,,,,,,,,,,,,,,,,,,,,,,,,,,,,,,,,,,,,,,,,,,,,,,,,,,,,,,,,,,,,,,,,,,,,,,,,,,,,,,,,,,,,,,,,,,,,,,,,,,,,,,,,,,,,,,,,,,,,,,,,,,,,,,,,,,,
0,62,62,57,1,,601293860c66d92eec572b90,62c5398e58c7705bdcbb4b2c,2022-07-06_09h28.45.826,Colour_Asymmetry_Pilot,2022.1.3,Win32,59.96641881,62c50e9c1127f2cd403a315f,,,,,,,,,,,,,,,,,,,,,,,,,,,,,,,,,,,,,,,,,,,,,,,,,,,,,,,,,,,,,,,,,,,,,,,,,,,,,,,,,,,,,,,,,,,,,,,,,,,,,,,,,,,,,,,,,,,,,,,,,,,,,,,,,,,,,,,,,,,,,,,,,,,,,,,,,,,,,,,,,,,
0,63,63,63,1,,601293860c66d92eec572b90,62c5398e58c7705bdcbb4b2c,2022-07-06_09h28.45.826,Colour_Asymmetry_Pilot,2022.1.3,Win32,59.96641881,62c50e9c1127f2cd403a315f,,,,,,,,,,,,,,,,,,,,,,,,,,,,,,,,,,,,,,,,,,,,,,,,,,,,,,,,,,,,,,,,,,,,,,,,,,,,,,,,,,,,,,,,,,,,,,,,,,,,,,,,,,,,,,,,,,,,,,,,,,,,,,,,,,,,,,,,,,,,,,,,,,,,,,,,,,,,,,,,,,,
0,64,64,18,1,,601293860c66d92eec572b90,62c5398e58c7705bdcbb4b2c,2022-07-06_09h28.45.826,Colour_Asymmetry_Pilot,2022.1.3,Win32,59.96641881,62c50e9c1127f2cd403a315f,,,,,,,,,,,,,,,,,,,,,,,,,,,,,,,,,,,,,,,,,,,,,,,,,,,,,,,,,,,,,,,,,,,,,,,,,,,,,,,,,,,,,,,,,,,,,,,,,,,,,,,,,,,,,,,,,,,,,,,,,,,,,,,,,,,,,,,,,,,,,,,,,,,,,,,,,,,,,,,,,,,
0,65,65,34,1,,601293860c66d92eec572b90,62c5398e58c7705bdcbb4b2c,2022-07-06_09h28.45.826,Colour_Asymmetry_Pilot,2022.1.3,Win32,59.96641881,62c50e9c1127f2cd403a315f,,,,,,,,,,,,,,,,,,,,,,,,,,,,,,,,,,,,,,,,,,,,,,,,,,,,,,,,,,,,,,,,,,,,,,,,,,,,,,,,,,,,,,,,,,,,,,,,,,,,,,,,,,,,,,,,,,,,,,,,,,,,,,,,,,,,,,,,,,,,,,,,,,,,,,,,,,,,,,,,,,,
0,66,66,19,1,,601293860c66d92eec572b90,62c5398e58c7705bdcbb4b2c,2022-07-06_09h28.45.826,Colour_Asymmetry_Pilot,2022.1.3,Win32,59.96641881,62c50e9c1127f2cd403a315f,,,,,,,,,,,,,,,,,,,,,,,,,,,,,,,,,,,,,,,,,,,,,,,,,,,,,,,,,,,,,,,,,,,,,,,,,,,,,,,,,,,,,,,,,,,,,,,,,,,,,,,,,,,,,,,,,,,,,,,,,,,,,,,,,,,,,,,,,,,,,,,,,,,,,,,,,,,,,,,,,,,
0,67,67,46,1,,601293860c66d92eec572b90,62c5398e58c7705bdcbb4b2c,2022-07-06_09h28.45.826,Colour_Asymmetry_Pilot,2022.1.3,Win32,59.96641881,62c50e9c1127f2cd403a315f,,,,,,,,,,,,,,,,,,,,,,,,,,,,,,,,,,,,,,,,,,,,,,,,,,,,,,,,,,,,,,,,,,,,,,,,,,,,,,,,,,,,,,,,,,,,,,,,,,,,,,,,,,,,,,,,,,,,,,,,,,,,,,,,,,,,,,,,,,,,,,,,,,,,,,,,,,,,,,,,,,,
0,68,68,88,1,,601293860c66d92eec572b90,62c5398e58c7705bdcbb4b2c,2022-07-06_09h28.45.826,Colour_Asymmetry_Pilot,2022.1.3,Win32,59.96641881,62c50e9c1127f2cd403a315f,,,,,,,,,,,,,,,,,,,,,,,,,,,,,,,,,,,,,,,,,,,,,,,,,,,,,,,,,,,,,,,,,,,,,,,,,,,,,,,,,,,,,,,,,,,,,,,,,,,,,,,,,,,,,,,,,,,,,,,,,,,,,,,,,,,,,,,,,,,,,,,,,,,,,,,,,,,,,,,,,,,
0,69,69,71,1,,601293860c66d92eec572b90,62c5398e58c7705bdcbb4b2c,2022-07-06_09h28.45.826,Colour_Asymmetry_Pilot,2022.1.3,Win32,59.96641881,62c50e9c1127f2cd403a315f,,,,,,,,,,,,,,,,,,,,,,,,,,,,,,,,,,,,,,,,,,,,,,,,,,,,,,,,,,,,,,,,,,,,,,,,,,,,,,,,,,,,,,,,,,,,,,,,,,,,,,,,,,,,,,,,,,,,,,,,,,,,,,,,,,,,,,,,,,,,,,,,,,,,,,,,,,,,,,,,,,,
0,70,70,31,1,,601293860c66d92eec572b90,62c5398e58c7705bdcbb4b2c,2022-07-06_09h28.45.826,Colour_Asymmetry_Pilot,2022.1.3,Win32,59.96641881,62c50e9c1127f2cd403a315f,,,,,,,,,,,,,,,,,,,,,,,,,,,,,,,,,,,,,,,,,,,,,,,,,,,,,,,,,,,,,,,,,,,,,,,,,,,,,,,,,,,,,,,,,,,,,,,,,,,,,,,,,,,,,,,,,,,,,,,,,,,,,,,,,,,,,,,,,,,,,,,,,,,,,,,,,,,,,,,,,,,
0,71,71,42,1,,601293860c66d92eec572b90,62c5398e58c7705bdcbb4b2c,2022-07-06_09h28.45.826,Colour_Asymmetry_Pilot,2022.1.3,Win32,59.96641881,62c50e9c1127f2cd403a315f,,,,,,,,,,,,,,,,,,,,,,,,,,,,,,,,,,,,,,,,,,,,,,,,,,,,,,,,,,,,,,,,,,,,,,,,,,,,,,,,,,,,,,,,,,,,,,,,,,,,,,,,,,,,,,,,,,,,,,,,,,,,,,,,,,,,,,,,,,,,,,,,,,,,,,,,,,,,,,,,,,,
0,72,72,66,1,,601293860c66d92eec572b90,62c5398e58c7705bdcbb4b2c,2022-07-06_09h28.45.826,Colour_Asymmetry_Pilot,2022.1.3,Win32,59.96641881,62c50e9c1127f2cd403a315f,,,,,,,,,,,,,,,,,,,,,,,,,,,,,,,,,,,,,,,,,,,,,,,,,,,,,,,,,,,,,,,,,,,,,,,,,,,,,,,,,,,,,,,,,,,,,,,,,,,,,,,,,,,,,,,,,,,,,,,,,,,,,,,,,,,,,,,,,,,,,,,,,,,,,,,,,,,,,,,,,,,
0,73,73,53,1,,601293860c66d92eec572b90,62c5398e58c7705bdcbb4b2c,2022-07-06_09h28.45.826,Colour_Asymmetry_Pilot,2022.1.3,Win32,59.96641881,62c50e9c1127f2cd403a315f,,,,,,,,,,,,,,,,,,,,,,,,,,,,,,,,,,,,,,,,,,,,,,,,,,,,,,,,,,,,,,,,,,,,,,,,,,,,,,,,,,,,,,,,,,,,,,,,,,,,,,,,,,,,,,,,,,,,,,,,,,,,,,,,,,,,,,,,,,,,,,,,,,,,,,,,,,,,,,,,,,,
0,74,74,9,1,,601293860c66d92eec572b90,62c5398e58c7705bdcbb4b2c,2022-07-06_09h28.45.826,Colour_Asymmetry_Pilot,2022.1.3,Win32,59.96641881,62c50e9c1127f2cd403a315f,,,,,,,,,,,,,,,,,,,,,,,,,,,,,,,,,,,,,,,,,,,,,,,,,,,,,,,,,,,,,,,,,,,,,,,,,,,,,,,,,,,,,,,,,,,,,,,,,,,,,,,,,,,,,,,,,,,,,,,,,,,,,,,,,,,,,,,,,,,,,,,,,,,,,,,,,,,,,,,,,,,
0,75,75,3,1,,601293860c66d92eec572b90,62c5398e58c7705bdcbb4b2c,2022-07-06_09h28.45.826,Colour_Asymmetry_Pilot,2022.1.3,Win32,59.96641881,62c50e9c1127f2cd403a315f,,,,,,,,,,,,,,,,,,,,,,,,,,,,,,,,,,,,,,,,,,,,,,,,,,,,,,,,,,,,,,,,,,,,,,,,,,,,,,,,,,,,,,,,,,,,,,,,,,,,,,,,,,,,,,,,,,,,,,,,,,,,,,,,,,,,,,,,,,,,,,,,,,,,,,,,,,,,,,,,,,,
0,76,76,84,1,,601293860c66d92eec572b90,62c5398e58c7705bdcbb4b2c,2022-07-06_09h28.45.826,Colour_Asymmetry_Pilot,2022.1.3,Win32,59.96641881,62c50e9c1127f2cd403a315f,,,,,,,,,,,,,,,,,,,,,,,,,,,,,,,,,,,,,,,,,,,,,,,,,,,,,,,,,,,,,,,,,,,,,,,,,,,,,,,,,,,,,,,,,,,,,,,,,,,,,,,,,,,,,,,,,,,,,,,,,,,,,,,,,,,,,,,,,,,,,,,,,,,,,,,,,,,,,,,,,,,
0,77,77,0,1,,601293860c66d92eec572b90,62c5398e58c7705bdcbb4b2c,2022-07-06_09h28.45.826,Colour_Asymmetry_Pilot,2022.1.3,Win32,59.96641881,62c50e9c1127f2cd403a315f,,,,,,,,,,,,,,,,,,,,,,,,,,,,,,,,,,,,,,,,,,,,,,,,,,,,,,,,,,,,,,,,,,,,,,,,,,,,,,,,,,,,,,,,,,,,,,,,,,,,,,,,,,,,,,,,,,,,,,,,,,,,,,,,,,,,,,,,,,,,,,,,,,,,,,,,,,,,,,,,,,,
0,78,78,85,1,,601293860c66d92eec572b90,62c5398e58c7705bdcbb4b2c,2022-07-06_09h28.45.826,Colour_Asymmetry_Pilot,2022.1.3,Win32,59.96641881,62c50e9c1127f2cd403a315f,,,,,,,,,,,,,,,,,,,,,,,,,,,,,,,,,,,,,,,,,,,,,,,,,,,,,,,,,,,,,,,,,,,,,,,,,,,,,,,,,,,,,,,,,,,,,,,,,,,,,,,,,,,,,,,,,,,,,,,,,,,,,,,,,,,,,,,,,,,,,,,,,,,,,,,,,,,,,,,,,,,
0,79,79,77,1,,601293860c66d92eec572b90,62c5398e58c7705bdcbb4b2c,2022-07-06_09h28.45.826,Colour_Asymmetry_Pilot,2022.1.3,Win32,59.96641881,62c50e9c1127f2cd403a315f,,,,,,,,,,,,,,,,,,,,,,,,,,,,,,,,,,,,,,,,,,,,,,,,,,,,,,,,,,,,,,,,,,,,,,,,,,,,,,,,,,,,,,,,,,,,,,,,,,,,,,,,,,,,,,,,,,,,,,,,,,,,,,,,,,,,,,,,,,,,,,,,,,,,,,,,,,,,,,,,,,,
0,80,80,26,1,,601293860c66d92eec572b90,62c5398e58c7705bdcbb4b2c,2022-07-06_09h28.45.826,Colour_Asymmetry_Pilot,2022.1.3,Win32,59.96641881,62c50e9c1127f2cd403a315f,,,,,,,,,,,,,,,,,,,,,,,,,,,,,,,,,,,,,,,,,,,,,,,,,,,,,,,,,,,,,,,,,,,,,,,,,,,,,,,,,,,,,,,,,,,,,,,,,,,,,,,,,,,,,,,,,,,,,,,,,,,,,,,,,,,,,,,,,,,,,,,,,,,,,,,,,,,,,,,,,,,
0,81,81,17,1,,601293860c66d92eec572b90,62c5398e58c7705bdcbb4b2c,2022-07-06_09h28.45.826,Colour_Asymmetry_Pilot,2022.1.3,Win32,59.96641881,62c50e9c1127f2cd403a315f,,,,,,,,,,,,,,,,,,,,,,,,,,,,,,,,,,,,,,,,,,,,,,,,,,,,,,,,,,,,,,,,,,,,,,,,,,,,,,,,,,,,,,,,,,,,,,,,,,,,,,,,,,,,,,,,,,,,,,,,,,,,,,,,,,,,,,,,,,,,,,,,,,,,,,,,,,,,,,,,,,,
0,82,82,67,1,,601293860c66d92eec572b90,62c5398e58c7705bdcbb4b2c,2022-07-06_09h28.45.826,Colour_Asymmetry_Pilot,2022.1.3,Win32,59.96641881,62c50e9c1127f2cd403a315f,,,,,,,,,,,,,,,,,,,,,,,,,,,,,,,,,,,,,,,,,,,,,,,,,,,,,,,,,,,,,,,,,,,,,,,,,,,,,,,,,,,,,,,,,,,,,,,,,,,,,,,,,,,,,,,,,,,,,,,,,,,,,,,,,,,,,,,,,,,,,,,,,,,,,,,,,,,,,,,,,,,
0,83,83,70,1,,601293860c66d92eec572b90,62c5398e58c7705bdcbb4b2c,2022-07-06_09h28.45.826,Colour_Asymmetry_Pilot,2022.1.3,Win32,59.96641881,62c50e9c1127f2cd403a315f,,,,,,,,,,,,,,,,,,,,,,,,,,,,,,,,,,,,,,,,,,,,,,,,,,,,,,,,,,,,,,,,,,,,,,,,,,,,,,,,,,,,,,,,,,,,,,,,,,,,,,,,,,,,,,,,,,,,,,,,,,,,,,,,,,,,,,,,,,,,,,,,,,,,,,,,,,,,,,,,,,,
0,84,84,61,1,,601293860c66d92eec572b90,62c5398e58c7705bdcbb4b2c,2022-07-06_09h28.45.826,Colour_Asymmetry_Pilot,2022.1.3,Win32,59.96641881,62c50e9c1127f2cd403a315f,,,,,,,,,,,,,,,,,,,,,,,,,,,,,,,,,,,,,,,,,,,,,,,,,,,,,,,,,,,,,,,,,,,,,,,,,,,,,,,,,,,,,,,,,,,,,,,,,,,,,,,,,,,,,,,,,,,,,,,,,,,,,,,,,,,,,,,,,,,,,,,,,,,,,,,,,,,,,,,,,,,
0,85,85,12,1,,601293860c66d92eec572b90,62c5398e58c7705bdcbb4b2c,2022-07-06_09h28.45.826,Colour_Asymmetry_Pilot,2022.1.3,Win32,59.96641881,62c50e9c1127f2cd403a315f,,,,,,,,,,,,,,,,,,,,,,,,,,,,,,,,,,,,,,,,,,,,,,,,,,,,,,,,,,,,,,,,,,,,,,,,,,,,,,,,,,,,,,,,,,,,,,,,,,,,,,,,,,,,,,,,,,,,,,,,,,,,,,,,,,,,,,,,,,,,,,,,,,,,,,,,,,,,,,,,,,,
0,86,86,32,1,,601293860c66d92eec572b90,62c5398e58c7705bdcbb4b2c,2022-07-06_09h28.45.826,Colour_Asymmetry_Pilot,2022.1.3,Win32,59.96641881,62c50e9c1127f2cd403a315f,,,,,,,,,,,,,,,,,,,,,,,,,,,,,,,,,,,,,,,,,,,,,,,,,,,,,,,,,,,,,,,,,,,,,,,,,,,,,,,,,,,,,,,,,,,,,,,,,,,,,,,,,,,,,,,,,,,,,,,,,,,,,,,,,,,,,,,,,,,,,,,,,,,,,,,,,,,,,,,,,,,
0,87,87,56,1,,601293860c66d92eec572b90,62c5398e58c7705bdcbb4b2c,2022-07-06_09h28.45.826,Colour_Asymmetry_Pilot,2022.1.3,Win32,59.96641881,62c50e9c1127f2cd403a315f,,,,,,,,,,,,,,,,,,,,,,,,,,,,,,,,,,,,,,,,,,,,,,,,,,,,,,,,,,,,,,,,,,,,,,,,,,,,,,,,,,,,,,,,,,,,,,,,,,,,,,,,,,,,,,,,,,,,,,,,,,,,,,,,,,,,,,,,,,,,,,,,,,,,,,,,,,,,,,,,,,,
0,88,88,78,1,,601293860c66d92eec572b90,62c5398e58c7705bdcbb4b2c,2022-07-06_09h28.45.826,Colour_Asymmetry_Pilot,2022.1.3,Win32,59.96641881,62c50e9c1127f2cd403a315f,,,,,,,,,,,,,,,,,,,,,,,,,,,,,,,,,,,,,,,,,,,,,,,,,,,,,,,,,,,,,,,,,,,,,,,,,,,,,,,,,,,,,,,,,,,,,,,,,,,,,,,,,,,,,,,,,,,,,,,,,,,,,,,,,,,,,,,,,,,,,,,,,,,,,,,,,,,,,,,,,,,
0,89,89,36,1,,601293860c66d92eec572b90,62c5398e58c7705bdcbb4b2c,2022-07-06_09h28.45.826,Colour_Asymmetry_Pilot,2022.1.3,Win32,59.96641881,62c50e9c1127f2cd403a315f,,,,,,,,,,,,,,,,,,,,,,,,,,,,,,,,,,,,,,,,,,,,,,,,,,,,,,,,,,,,,,,,,,,,,,,,,,,,,,,,,,,,,,,,,,,,,,,,,,,,,,,,,,,,,,,,,,,,,,,,,,,,,,,,,,,,,,,,,,,,,,,,,,,,,,,,,,,,,,,,,,,
0,90,90,27,1,,601293860c66d92eec572b90,62c5398e58c7705bdcbb4b2c,2022-07-06_09h28.45.826,Colour_Asymmetry_Pilot,2022.1.3,Win32,59.96641881,62c50e9c1127f2cd403a315f,,,,,,,,,,,,,,,,,,,,,,,,,,,,,,,,,,,,,,,,,,,,,,,,,,,,,,,,,,,,,,,,,,,,,,,,,,,,,,,,,,,,,,,,,,,,,,,,,,,,,,,,,,,,,,,,,,,,,,,,,,,,,,,,,,,,,,,,,,,,,,,,,,,,,,,,,,,,,,,,,,,
0,91,91,72,1,,601293860c66d92eec572b90,62c5398e58c7705bdcbb4b2c,2022-07-06_09h28.45.826,Colour_Asymmetry_Pilot,2022.1.3,Win32,59.96641881,62c50e9c1127f2cd403a315f,,,,,,,,,,,,,,,,,,,,,,,,,,,,,,,,,,,,,,,,,,,,,,,,,,,,,,,,,,,,,,,,,,,,,,,,,,,,,,,,,,,,,,,,,,,,,,,,,,,,,,,,,,,,,,,,,,,,,,,,,,,,,,,,,,,,,,,,,,,,,,,,,,,,,,,,,,,,,,,,,,,
0,92,92,6,1,,601293860c66d92eec572b90,62c5398e58c7705bdcbb4b2c,2022-07-06_09h28.45.826,Colour_Asymmetry_Pilot,2022.1.3,Win32,59.96641881,62c50e9c1127f2cd403a315f,,,,,,,,,,,,,,,,,,,,,,,,,,,,,,,,,,,,,,,,,,,,,,,,,,,,,,,,,,,,,,,,,,,,,,,,,,,,,,,,,,,,,,,,,,,,,,,,,,,,,,,,,,,,,,,,,,,,,,,,,,,,,,,,,,,,,,,,,,,,,,,,,,,,,,,,,,,,,,,,,,,
,,,,,,601293860c66d92eec572b90,62c5398e58c7705bdcbb4b2c,2022-07-06_09h28.45.826,Colour_Asymmetry_Pilot,2022.1.3,Win32,59.96641881,62c50e9c1127f2cd403a315f,0,0,0,56,1,onetwo,,,,,,,,,,,,,,,,,,,,,,,,,,,,,,,,,,,,,,,,,,,,,,,,,,,,,,,,,,,,,,,,,,,,,,,,,,,,,,,,,,,,,,,,,,,,,,,,,,,,,,,,,,,,,,,,,,,,,,,,,,,,,,,,,,,,,,,,,,,,,,,,,,,,,,,,,,,,,
,,,,,,601293860c66d92eec572b90,62c5398e58c7705bdcbb4b2c,2022-07-06_09h28.45.826,Colour_Asymmetry_Pilot,2022.1.3,Win32,59.96641881,62c50e9c1127f2cd403a315f,0,1,1,101,1,threefour,,,,,,,,,,,,,,,,,,,,,,,,,,,,,,,,,,,,,,,,,,,,,,,,,,,,,,,,,,,,,,,,,,,,,,,,,,,,,,,,,,,,,,,,,,,,,,,,,,,,,,,,,,,,,,,,,,,,,,,,,,,,,,,,,,,,,,,,,,,,,,,,,,,,,,,,,,,,,
,,,,,,601293860c66d92eec572b90,62c5398e58c7705bdcbb4b2c,2022-07-06_09h28.45.826,Colour_Asymmetry_Pilot,2022.1.3,Win32,59.96641881,62c50e9c1127f2cd403a315f,0,2,2,132,1,threeone,,,,,,,,,,,,,,,,,,,,,,,,,,,,,,,,,,,,,,,,,,,,,,,,,,,,,,,,,,,,,,,,,,,,,,,,,,,,,,,,,,,,,,,,,,,,,,,,,,,,,,,,,,,,,,,,,,,,,,,,,,,,,,,,,,,,,,,,,,,,,,,,,,,,,,,,,,,,,
,,,,,,601293860c66d92eec572b90,62c5398e58c7705bdcbb4b2c,2022-07-06_09h28.45.826,Colour_Asymmetry_Pilot,2022.1.3,Win32,59.96641881,62c50e9c1127f2cd403a315f,0,3,3,33,1,onethree,,,,,,,,,,,,,,,,,,,,,,,,,,,,,,,,,,,,,,,,,,,,,,,,,,,,,,,,,,,,,,,,,,,,,,,,,,,,,,,,,,,,,,,,,,,,,,,,,,,,,,,,,,,,,,,,,,,,,,,,,,,,,,,,,,,,,,,,,,,,,,,,,,,,,,,,,,,,,
,,,,,,601293860c66d92eec572b90,62c5398e58c7705bdcbb4b2c,2022-07-06_09h28.45.826,Colour_Asymmetry_Pilot,2022.1.3,Win32,59.96641881,62c50e9c1127f2cd403a315f,0,4,4,27,1,twofour,,,,,,,,,,,,,,,,,,,,,,,,,,,,,,,,,,,,,,,,,,,,,,,,,,,,,,,,,,,,,,,,,,,,,,,,,,,,,,,,,,,,,,,,,,,,,,,,,,,,,,,,,,,,,,,,,,,,,,,,,,,,,,,,,,,,,,,,,,,,,,,,,,,,,,,,,,,,,
,,,,,,601293860c66d92eec572b90,62c5398e58c7705bdcbb4b2c,2022-07-06_09h28.45.826,Colour_Asymmetry_Pilot,2022.1.3,Win32,59.96641881,62c50e9c1127f2cd403a315f,0,5,5,46,1,fourtwo,,,,,,,,,,,,,,,,,,,,,,,,,,,,,,,,,,,,,,,,,,,,,,,,,,,,,,,,,,,,,,,,,,,,,,,,,,,,,,,,,,,,,,,,,,,,,,,,,,,,,,,,,,,,,,,,,,,,,,,,,,,,,,,,,,,,,,,,,,,,,,,,,,,,,,,,,,,,,
,,,,,,601293860c66d92eec572b90,62c5398e58c7705bdcbb4b2c,2022-07-06_09h28.45.826,Colour_Asymmetry_Pilot,2022.1.3,Win32,59.96641881,62c50e9c1127f2cd403a315f,0,6,6,38,1,fourtwo,,,,,,,,,,,,,,,,,,,,,,,,,,,,,,,,,,,,,,,,,,,,,,,,,,,,,,,,,,,,,,,,,,,,,,,,,,,,,,,,,,,,,,,,,,,,,,,,,,,,,,,,,,,,,,,,,,,,,,,,,,,,,,,,,,,,,,,,,,,,,,,,,,,,,,,,,,,,,
,,,,,,601293860c66d92eec572b90,62c5398e58c7705bdcbb4b2c,2022-07-06_09h28.45.826,Colour_Asymmetry_Pilot,2022.1.3,Win32,59.96641881,62c50e9c1127f2cd403a315f,0,7,7,65,1,onethree,,,,,,,,,,,,,,,,,,,,,,,,,,,,,,,,,,,,,,,,,,,,,,,,,,,,,,,,,,,,,,,,,,,,,,,,,,,,,,,,,,,,,,,,,,,,,,,,,,,,,,,,,,,,,,,,,,,,,,,,,,,,,,,,,,,,,,,,,,,,,,,,,,,,,,,,,,,,,
,,,,,,601293860c66d92eec572b90,62c5398e58c7705bdcbb4b2c,2022-07-06_09h28.45.826,Colour_Asymmetry_Pilot,2022.1.3,Win32,59.96641881,62c50e9c1127f2cd403a315f,0,8,8,90,1,twoone,,,,,,,,,,,,,,,,,,,,,,,,,,,,,,,,,,,,,,,,,,,,,,,,,,,,,,,,,,,,,,,,,,,,,,,,,,,,,,,,,,,,,,,,,,,,,,,,,,,,,,,,,,,,,,,,,,,,,,,,,,,,,,,,,,,,,,,,,,,,,,,,,,,,,,,,,,,,,
,,,,,,601293860c66d92eec572b90,62c5398e58c7705bdcbb4b2c,2022-07-06_09h28.45.826,Colour_Asymmetry_Pilot,2022.1.3,Win32,59.96641881,62c50e9c1127f2cd403a315f,0,9,9,107,1,twofour,,,,,,,,,,,,,,,,,,,,,,,,,,,,,,,,,,,,,,,,,,,,,,,,,,,,,,,,,,,,,,,,,,,,,,,,,,,,,,,,,,,,,,,,,,,,,,,,,,,,,,,,,,,,,,,,,,,,,,,,,,,,,,,,,,,,,,,,,,,,,,,,,,,,,,,,,,,,,
,,,,,,601293860c66d92eec572b90,62c5398e58c7705bdcbb4b2c,2022-07-06_09h28.45.826,Colour_Asymmetry_Pilot,2022.1.3,Win32,59.96641881,62c50e9c1127f2cd403a315f,0,10,10,19,1,twofour,,,,,,,,,,,,,,,,,,,,,,,,,,,,,,,,,,,,,,,,,,,,,,,,,,,,,,,,,,,,,,,,,,,,,,,,,,,,,,,,,,,,,,,,,,,,,,,,,,,,,,,,,,,,,,,,,,,,,,,,,,,,,,,,,,,,,,,,,,,,,,,,,,,,,,,,,,,,,
,,,,,,601293860c66d92eec572b90,62c5398e58c7705bdcbb4b2c,2022-07-06_09h28.45.826,Colour_Asymmetry_Pilot,2022.1.3,Win32,59.96641881,62c50e9c1127f2cd403a315f,0,11,11,63,1,fourthree,,,,,,,,,,,,,,,,,,,,,,,,,,,,,,,,,,,,,,,,,,,,,,,,,,,,,,,,,,,,,,,,,,,,,,,,,,,,,,,,,,,,,,,,,,,,,,,,,,,,,,,,,,,,,,,,,,,,,,,,,,,,,,,,,,,,,,,,,,,,,,,,,,,,,,,,,,,,,
,,,,,,601293860c66d92eec572b90,62c5398e58c7705bdcbb4b2c,2022-07-06_09h28.45.826,Colour_Asymmetry_Pilot,2022.1.3,Win32,59.96641881,62c50e9c1127f2cd403a315f,0,12,12,50,1,twoone,,,,,,,,,,,,,,,,,,,,,,,,,,,,,,,,,,,,,,,,,,,,,,,,,,,,,,,,,,,,,,,,,,,,,,,,,,,,,,,,,,,,,,,,,,,,,,,,,,,,,,,,,,,,,,,,,,,,,,,,,,,,,,,,,,,,,,,,,,,,,,,,,,,,,,,,,,,,,
,,,,,,601293860c66d92eec572b90,62c5398e58c7705bdcbb4b2c,2022-07-06_09h28.45.826,Colour_Asymmetry_Pilot,2022.1.3,Win32,59.96641881,62c50e9c1127f2cd403a315f,0,13,13,57,1,onethree,,,,,,,,,,,,,,,,,,,,,,,,,,,,,,,,,,,,,,,,,,,,,,,,,,,,,,,,,,,,,,,,,,,,,,,,,,,,,,,,,,,,,,,,,,,,,,,,,,,,,,,,,,,,,,,,,,,,,,,,,,,,,,,,,,,,,,,,,,,,,,,,,,,,,,,,,,,,,
,,,,,,601293860c66d92eec572b90,62c5398e58c7705bdcbb4b2c,2022-07-06_09h28.45.826,Colour_Asymmetry_Pilot,2022.1.3,Win32,59.96641881,62c50e9c1127f2cd403a315f,0,14,14,77,1,threefour,,,,,,,,,,,,,,,,,,,,,,,,,,,,,,,,,,,,,,,,,,,,,,,,,,,,,,,,,,,,,,,,,,,,,,,,,,,,,,,,,,,,,,,,,,,,,,,,,,,,,,,,,,,,,,,,,,,,,,,,,,,,,,,,,,,,,,,,,,,,,,,,,,,,,,,,,,,,,
,,,,,,601293860c66d92eec572b90,62c5398e58c7705bdcbb4b2c,2022-07-06_09h28.45.826,Colour_Asymmetry_Pilot,2022.1.3,Win32,59.96641881,62c50e9c1127f2cd403a315f,0,15,15,94,1,fourtwo,,,,,,,,,,,,,,,,,,,,,,,,,,,,,,,,,,,,,,,,,,,,,,,,,,,,,,,,,,,,,,,,,,,,,,,,,,,,,,,,,,,,,,,,,,,,,,,,,,,,,,,,,,,,,,,,,,,,,,,,,,,,,,,,,,,,,,,,,,,,,,,,,,,,,,,,,,,,,
,,,,,,601293860c66d92eec572b90,62c5398e58c7705bdcbb4b2c,2022-07-06_09h28.45.826,Colour_Asymmetry_Pilot,2022.1.3,Win32,59.96641881,62c50e9c1127f2cd403a315f,0,16,16,100,1,threeone,,,,,,,,,,,,,,,,,,,,,,,,,,,,,,,,,,,,,,,,,,,,,,,,,,,,,,,,,,,,,,,,,,,,,,,,,,,,,,,,,,,,,,,,,,,,,,,,,,,,,,,,,,,,,,,,,,,,,,,,,,,,,,,,,,,,,,,,,,,,,,,,,,,,,,,,,,,,,
,,,,,,601293860c66d92eec572b90,62c5398e58c7705bdcbb4b2c,2022-07-06_09h28.45.826,Colour_Asymmetry_Pilot,2022.1.3,Win32,59.96641881,62c50e9c1127f2cd403a315f,0,17,17,105,1,onethree,,,,,,,,,,,,,,,,,,,,,,,,,,,,,,,,,,,,,,,,,,,,,,,,,,,,,,,,,,,,,,,,,,,,,,,,,,,,,,,,,,,,,,,,,,,,,,,,,,,,,,,,,,,,,,,,,,,,,,,,,,,,,,,,,,,,,,,,,,,,,,,,,,,,,,,,,,,,,
,,,,,,601293860c66d92eec572b90,62c5398e58c7705bdcbb4b2c,2022-07-06_09h28.45.826,Colour_Asymmetry_Pilot,2022.1.3,Win32,59.96641881,62c50e9c1127f2cd403a315f,0,18,18,30,1,fourtwo,,,,,,,,,,,,,,,,,,,,,,,,,,,,,,,,,,,,,,,,,,,,,,,,,,,,,,,,,,,,,,,,,,,,,,,,,,,,,,,,,,,,,,,,,,,,,,,,,,,,,,,,,,,,,,,,,,,,,,,,,,,,,,,,,,,,,,,,,,,,,,,,,,,,,,,,,,,,,
,,,,,,601293860c66d92eec572b90,62c5398e58c7705bdcbb4b2c,2022-07-06_09h28.45.826,Colour_Asymmetry_Pilot,2022.1.3,Win32,59.96641881,62c50e9c1127f2cd403a315f,0,19,19,108,1,threeone,,,,,,,,,,,,,,,,,,,,,,,,,,,,,,,,,,,,,,,,,,,,,,,,,,,,,,,,,,,,,,,,,,,,,,,,,,,,,,,,,,,,,,,,,,,,,,,,,,,,,,,,,,,,,,,,,,,,,,,,,,,,,,,,,,,,,,,,,,,,,,,,,,,,,,,,,,,,,
,,,,,,601293860c66d92eec572b90,62c5398e58c7705bdcbb4b2c,2022-07-06_09h28.45.826,Colour_Asymmetry_Pilot,2022.1.3,Win32,59.96641881,62c50e9c1127f2cd403a315f,0,20,20,159,1,fourthree,,,,,,,,,,,,,,,,,,,,,,,,,,,,,,,,,,,,,,,,,,,,,,,,,,,,,,,,,,,,,,,,,,,,,,,,,,,,,,,,,,,,,,,,,,,,,,,,,,,,,,,,,,,,,,,,,,,,,,,,,,,,,,,,,,,,,,,,,,,,,,,,,,,,,,,,,,,,,
,,,,,,601293860c66d92eec572b90,62c5398e58c7705bdcbb4b2c,2022-07-06_09h28.45.826,Colour_Asymmetry_Pilot,2022.1.3,Win32,59.96641881,62c50e9c1127f2cd403a315f,0,21,21,104,1,onetwo,,,,,,,,,,,,,,,,,,,,,,,,,,,,,,,,,,,,,,,,,,,,,,,,,,,,,,,,,,,,,,,,,,,,,,,,,,,,,,,,,,,,,,,,,,,,,,,,,,,,,,,,,,,,,,,,,,,,,,,,,,,,,,,,,,,,,,,,,,,,,,,,,,,,,,,,,,,,,
,,,,,,601293860c66d92eec572b90,62c5398e58c7705bdcbb4b2c,2022-07-06_09h28.45.826,Colour_Asymmetry_Pilot,2022.1.3,Win32,59.96641881,62c50e9c1127f2cd403a315f,0,22,22,133,1,threefour,,,,,,,,,,,,,,,,,,,,,,,,,,,,,,,,,,,,,,,,,,,,,,,,,,,,,,,,,,,,,,,,,,,,,,,,,,,,,,,,,,,,,,,,,,,,,,,,,,,,,,,,,,,,,,,,,,,,,,,,,,,,,,,,,,,,,,,,,,,,,,,,,,,,,,,,,,,,,
,,,,,,601293860c66d92eec572b90,62c5398e58c7705bdcbb4b2c,2022-07-06_09h28.45.826,Colour_Asymmetry_Pilot,2022.1.3,Win32,59.96641881,62c50e9c1127f2cd403a315f,0,23,23,66,1,twoone,,,,,,,,,,,,,,,,,,,,,,,,,,,,,,,,,,,,,,,,,,,,,,,,,,,,,,,,,,,,,,,,,,,,,,,,,,,,,,,,,,,,,,,,,,,,,,,,,,,,,,,,,,,,,,,,,,,,,,,,,,,,,,,,,,,,,,,,,,,,,,,,,,,,,,,,,,,,,
,,,,,,601293860c66d92eec572b90,62c5398e58c7705bdcbb4b2c,2022-07-06_09h28.45.826,Colour_Asymmetry_Pilot,2022.1.3,Win32,59.96641881,62c50e9c1127f2cd403a315f,0,24,24,53,1,threefour,,,,,,,,,,,,,,,,,,,,,,,,,,,,,,,,,,,,,,,,,,,,,,,,,,,,,,,,,,,,,,,,,,,,,,,,,,,,,,,,,,,,,,,,,,,,,,,,,,,,,,,,,,,,,,,,,,,,,,,,,,,,,,,,,,,,,,,,,,,,,,,,,,,,,,,,,,,,,
,,,,,,601293860c66d92eec572b90,62c5398e58c7705bdcbb4b2c,2022-07-06_09h28.45.826,Colour_Asymmetry_Pilot,2022.1.3,Win32,59.96641881,62c50e9c1127f2cd403a315f,0,25,25,79,1,fourthree,,,,,,,,,,,,,,,,,,,,,,,,,,,,,,,,,,,,,,,,,,,,,,,,,,,,,,,,,,,,,,,,,,,,,,,,,,,,,,,,,,,,,,,,,,,,,,,,,,,,,,,,,,,,,,,,,,,,,,,,,,,,,,,,,,,,,,,,,,,,,,,,,,,,,,,,,,,,,
,,,,,,601293860c66d92eec572b90,62c5398e58c7705bdcbb4b2c,2022-07-06_09h28.45.826,Colour_Asymmetry_Pilot,2022.1.3,Win32,59.96641881,62c50e9c1127f2cd403a315f,0,26,26,49,1,onethree,,,,,,,,,,,,,,,,,,,,,,,,,,,,,,,,,,,,,,,,,,,,,,,,,,,,,,,,,,,,,,,,,,,,,,,,,,,,,,,,,,,,,,,,,,,,,,,,,,,,,,,,,,,,,,,,,,,,,,,,,,,,,,,,,,,,,,,,,,,,,,,,,,,,,,,,,,,,,
,,,,,,601293860c66d92eec572b90,62c5398e58c7705bdcbb4b2c,2022-07-06_09h28.45.826,Colour_Asymmetry_Pilot,2022.1.3,Win32,59.96641881,62c50e9c1127f2cd403a315f,0,27,27,110,1,fourtwo,,,,,,,,,,,,,,,,,,,,,,,,,,,,,,,,,,,,,,,,,,,,,,,,,,,,,,,,,,,,,,,,,,,,,,,,,,,,,,,,,,,,,,,,,,,,,,,,,,,,,,,,,,,,,,,,,,,,,,,,,,,,,,,,,,,,,,,,,,,,,,,,,,,,,,,,,,,,,
,,,,,,601293860c66d92eec572b90,62c5398e58c7705bdcbb4b2c,2022-07-06_09h28.45.826,Colour_Asymmetry_Pilot,2022.1.3,Win32,59.96641881,62c50e9c1127f2cd403a315f,0,28,28,99,1,twofour,,,,,,,,,,,,,,,,,,,,,,,,,,,,,,,,,,,,,,,,,,,,,,,,,,,,,,,,,,,,,,,,,,,,,,,,,,,,,,,,,,,,,,,,,,,,,,,,,,,,,,,,,,,,,,,,,,,,,,,,,,,,,,,,,,,,,,,,,,,,,,,,,,,,,,,,,,,,,
,,,,,,601293860c66d92eec572b90,62c5398e58c7705bdcbb4b2c,2022-07-06_09h28.45.826,Colour_Asymmetry_Pilot,2022.1.3,Win32,59.96641881,62c50e9c1127f2cd403a315f,0,29,29,154,1,twoone,,,,,,,,,,,,,,,,,,,,,,,,,,,,,,,,,,,,,,,,,,,,,,,,,,,,,,,,,,,,,,,,,,,,,,,,,,,,,,,,,,,,,,,,,,,,,,,,,,,,,,,,,,,,,,,,,,,,,,,,,,,,,,,,,,,,,,,,,,,,,,,,,,,,,,,,,,,,,
,,,,,,601293860c66d92eec572b90,62c5398e58c7705bdcbb4b2c,2022-07-06_09h28.45.826,Colour_Asymmetry_Pilot,2022.1.3,Win32,59.96641881,62c50e9c1127f2cd403a315f,0,30,30,153,1,onethree,,,,,,,,,,,,,,,,,,,,,,,,,,,,,,,,,,,,,,,,,,,,,,,,,,,,,,,,,,,,,,,,,,,,,,,,,,,,,,,,,,,,,,,,,,,,,,,,,,,,,,,,,,,,,,,,,,,,,,,,,,,,,,,,,,,,,,,,,,,,,,,,,,,,,,,,,,,,,
,,,,,,601293860c66d92eec572b90,62c5398e58c7705bdcbb4b2c,2022-07-06_09h28.45.826,Colour_Asymmetry_Pilot,2022.1.3,Win32,59.96641881,62c50e9c1127f2cd403a315f,0,31,31,80,1,onetwo,,,,,,,,,,,,,,,,,,,,,,,,,,,,,,,,,,,,,,,,,,,,,,,,,,,,,,,,,,,,,,,,,,,,,,,,,,,,,,,,,,,,,,,,,,,,,,,,,,,,,,,,,,,,,,,,,,,,,,,,,,,,,,,,,,,,,,,,,,,,,,,,,,,,,,,,,,,,,
,,,,,,601293860c66d92eec572b90,62c5398e58c7705bdcbb4b2c,2022-07-06_09h28.45.826,Colour_Asymmetry_Pilot,2022.1.3,Win32,59.96641881,62c50e9c1127f2cd403a315f,0,32,32,23,1,fourthree,,,,,,,,,,,,,,,,,,,,,,,,,,,,,,,,,,,,,,,,,,,,,,,,,,,,,,,,,,,,,,,,,,,,,,,,,,,,,,,,,,,,,,,,,,,,,,,,,,,,,,,,,,,,,,,,,,,,,,,,,,,,,,,,,,,,,,,,,,,,,,,,,,,,,,,,,,,,,
,,,,,,601293860c66d92eec572b90,62c5398e58c7705bdcbb4b2c,2022-07-06_09h28.45.826,Colour_Asymmetry_Pilot,2022.1.3,Win32,59.96641881,62c50e9c1127f2cd403a315f,0,33,33,139,1,twofour,,,,,,,,,,,,,,,,,,,,,,,,,,,,,,,,,,,,,,,,,,,,,,,,,,,,,,,,,,,,,,,,,,,,,,,,,,,,,,,,,,,,,,,,,,,,,,,,,,,,,,,,,,,,,,,,,,,,,,,,,,,,,,,,,,,,,,,,,,,,,,,,,,,,,,,,,,,,,
,,,,,,601293860c66d92eec572b90,62c5398e58c7705bdcbb4b2c,2022-07-06_09h28.45.826,Colour_Asymmetry_Pilot,2022.1.3,Win32,59.96641881,62c50e9c1127f2cd403a315f,0,34,34,17,1,onethree,,,,,,,,,,,,,,,,,,,,,,,,,,,,,,,,,,,,,,,,,,,,,,,,,,,,,,,,,,,,,,,,,,,,,,,,,,,,,,,,,,,,,,,,,,,,,,,,,,,,,,,,,,,,,,,,,,,,,,,,,,,,,,,,,,,,,,,,,,,,,,,,,,,,,,,,,,,,,
,,,,,,601293860c66d92eec572b90,62c5398e58c7705bdcbb4b2c,2022-07-06_09h28.45.826,Colour_Asymmetry_Pilot,2022.1.3,Win32,59.96641881,62c50e9c1127f2cd403a315f,0,35,35,60,1,threeone,,,,,,,,,,,,,,,,,,,,,,,,,,,,,,,,,,,,,,,,,,,,,,,,,,,,,,,,,,,,,,,,,,,,,,,,,,,,,,,,,,,,,,,,,,,,,,,,,,,,,,,,,,,,,,,,,,,,,,,,,,,,,,,,,,,,,,,,,,,,,,,,,,,,,,,,,,,,,
,,,,,,601293860c66d92eec572b90,62c5398e58c7705bdcbb4b2c,2022-07-06_09h28.45.826,Colour_Asymmetry_Pilot,2022.1.3,Win32,59.96641881,62c50e9c1127f2cd403a315f,0,36,36,124,1,threeone,,,,,,,,,,,,,,,,,,,,,,,,,,,,,,,,,,,,,,,,,,,,,,,,,,,,,,,,,,,,,,,,,,,,,,,,,,,,,,,,,,,,,,,,,,,,,,,,,,,,,,,,,,,,,,,,,,,,,,,,,,,,,,,,,,,,,,,,,,,,,,,,,,,,,,,,,,,,,
,,,,,,601293860c66d92eec572b90,62c5398e58c7705bdcbb4b2c,2022-07-06_09h28.45.826,Colour_Asymmetry_Pilot,2022.1.3,Win32,59.96641881,62c50e9c1127f2cd403a315f,0,37,37,125,1,threefour,,,,,,,,,,,,,,,,,,,,,,,,,,,,,,,,,,,,,,,,,,,,,,,,,,,,,,,,,,,,,,,,,,,,,,,,,,,,,,,,,,,,,,,,,,,,,,,,,,,,,,,,,,,,,,,,,,,,,,,,,,,,,,,,,,,,,,,,,,,,,,,,,,,,,,,,,,,,,
,,,,,,601293860c66d92eec572b90,62c5398e58c7705bdcbb4b2c,2022-07-06_09h28.45.826,Colour_Asymmetry_Pilot,2022.1.3,Win32,59.96641881,62c50e9c1127f2cd403a315f,0,38,38,39,1,fourthree,,,,,,,,,,,,,,,,,,,,,,,,,,,,,,,,,,,,,,,,,,,,,,,,,,,,,,,,,,,,,,,,,,,,,,,,,,,,,,,,,,,,,,,,,,,,,,,,,,,,,,,,,,,,,,,,,,,,,,,,,,,,,,,,,,,,,,,,,,,,,,,,,,,,,,,,,,,,,
,,,,,,601293860c66d92eec572b90,62c5398e58c7705bdcbb4b2c,2022-07-06_09h28.45.826,Colour_Asymmetry_Pilot,2022.1.3,Win32,59.96641881,62c50e9c1127f2cd403a315f,0,39,39,136,1,onetwo,,,,,,,,,,,,,,,,,,,,,,,,,,,,,,,,,,,,,,,,,,,,,,,,,,,,,,,,,,,,,,,,,,,,,,,,,,,,,,,,,,,,,,,,,,,,,,,,,,,,,,,,,,,,,,,,,,,,,,,,,,,,,,,,,,,,,,,,,,,,,,,,,,,,,,,,,,,,,
,,,,,,601293860c66d92eec572b90,62c5398e58c7705bdcbb4b2c,2022-07-06_09h28.45.826,Colour_Asymmetry_Pilot,2022.1.3,Win32,59.96641881,62c50e9c1127f2cd403a315f,0,40,40,135,1,fourthree,,,,,,,,,,,,,,,,,,,,,,,,,,,,,,,,,,,,,,,,,,,,,,,,,,,,,,,,,,,,,,,,,,,,,,,,,,,,,,,,,,,,,,,,,,,,,,,,,,,,,,,,,,,,,,,,,,,,,,,,,,,,,,,,,,,,,,,,,,,,,,,,,,,,,,,,,,,,,
,,,,,,601293860c66d92eec572b90,62c5398e58c7705bdcbb4b2c,2022-07-06_09h28.45.826,Colour_Asymmetry_Pilot,2022.1.3,Win32,59.96641881,62c50e9c1127f2cd403a315f,0,41,41,88,1,onetwo,,,,,,,,,,,,,,,,,,,,,,,,,,,,,,,,,,,,,,,,,,,,,,,,,,,,,,,,,,,,,,,,,,,,,,,,,,,,,,,,,,,,,,,,,,,,,,,,,,,,,,,,,,,,,,,,,,,,,,,,,,,,,,,,,,,,,,,,,,,,,,,,,,,,,,,,,,,,,
,,,,,,601293860c66d92eec572b90,62c5398e58c7705bdcbb4b2c,2022-07-06_09h28.45.826,Colour_Asymmetry_Pilot,2022.1.3,Win32,59.96641881,62c50e9c1127f2cd403a315f,0,42,42,117,1,threefour,,,,,,,,,,,,,,,,,,,,,,,,,,,,,,,,,,,,,,,,,,,,,,,,,,,,,,,,,,,,,,,,,,,,,,,,,,,,,,,,,,,,,,,,,,,,,,,,,,,,,,,,,,,,,,,,,,,,,,,,,,,,,,,,,,,,,,,,,,,,,,,,,,,,,,,,,,,,,
,,,,,,601293860c66d92eec572b90,62c5398e58c7705bdcbb4b2c,2022-07-06_09h28.45.826,Colour_Asymmetry_Pilot,2022.1.3,Win32,59.96641881,62c50e9c1127f2cd403a315f,0,43,43,129,1,onethree,,,,,,,,,,,,,,,,,,,,,,,,,,,,,,,,,,,,,,,,,,,,,,,,,,,,,,,,,,,,,,,,,,,,,,,,,,,,,,,,,,,,,,,,,,,,,,,,,,,,,,,,,,,,,,,,,,,,,,,,,,,,,,,,,,,,,,,,,,,,,,,,,,,,,,,,,,,,,
,,,,,,601293860c66d92eec572b90,62c5398e58c7705bdcbb4b2c,2022-07-06_09h28.45.826,Colour_Asymmetry_Pilot,2022.1.3,Win32,59.96641881,62c50e9c1127f2cd403a315f,0,44,44,130,1,twoone,,,,,,,,,,,,,,,,,,,,,,,,,,,,,,,,,,,,,,,,,,,,,,,,,,,,,,,,,,,,,,,,,,,,,,,,,,,,,,,,,,,,,,,,,,,,,,,,,,,,,,,,,,,,,,,,,,,,,,,,,,,,,,,,,,,,,,,,,,,,,,,,,,,,,,,,,,,,,
,,,,,,601293860c66d92eec572b90,62c5398e58c7705bdcbb4b2c,2022-07-06_09h28.45.826,Colour_Asymmetry_Pilot,2022.1.3,Win32,59.96641881,62c50e9c1127f2cd403a315f,0,45,45,3,1,twofour,,,,,,,,,,,,,,,,,,,,,,,,,,,,,,,,,,,,,,,,,,,,,,,,,,,,,,,,,,,,,,,,,,,,,,,,,,,,,,,,,,,,,,,,,,,,,,,,,,,,,,,,,,,,,,,,,,,,,,,,,,,,,,,,,,,,,,,,,,,,,,,,,,,,,,,,,,,,,
,,,,,,601293860c66d92eec572b90,62c5398e58c7705bdcbb4b2c,2022-07-06_09h28.45.826,Colour_Asymmetry_Pilot,2022.1.3,Win32,59.96641881,62c50e9c1127f2cd403a315f,0,46,46,70,1,fourtwo,,,,,,,,,,,,,,,,,,,,,,,,,,,,,,,,,,,,,,,,,,,,,,,,,,,,,,,,,,,,,,,,,,,,,,,,,,,,,,,,,,,,,,,,,,,,,,,,,,,,,,,,,,,,,,,,,,,,,,,,,,,,,,,,,,,,,,,,,,,,,,,,,,,,,,,,,,,,,
,,,,,,601293860c66d92eec572b90,62c5398e58c7705bdcbb4b2c,2022-07-06_09h28.45.826,Colour_Asymmetry_Pilot,2022.1.3,Win32,59.96641881,62c50e9c1127f2cd403a315f,0,47,47,146,1,twoone,,,,,,,,,,,,,,,,,,,,,,,,,,,,,,,,,,,,,,,,,,,,,,,,,,,,,,,,,,,,,,,,,,,,,,,,,,,,,,,,,,,,,,,,,,,,,,,,,,,,,,,,,,,,,,,,,,,,,,,,,,,,,,,,,,,,,,,,,,,,,,,,,,,,,,,,,,,,,
,,,,,,601293860c66d92eec572b90,62c5398e58c7705bdcbb4b2c,2022-07-06_09h28.45.826,Colour_Asymmetry_Pilot,2022.1.3,Win32,59.96641881,62c50e9c1127f2cd403a315f,0,48,48,160,1,onetwo,,,,,,,,,,,,,,,,,,,,,,,,,,,,,,,,,,,,,,,,,,,,,,,,,,,,,,,,,,,,,,,,,,,,,,,,,,,,,,,,,,,,,,,,,,,,,,,,,,,,,,,,,,,,,,,,,,,,,,,,,,,,,,,,,,,,,,,,,,,,,,,,,,,,,,,,,,,,,
,,,,,,601293860c66d92eec572b90,62c5398e58c7705bdcbb4b2c,2022-07-06_09h28.45.826,Colour_Asymmetry_Pilot,2022.1.3,Win32,59.96641881,62c50e9c1127f2cd403a315f,0,49,49,41,1,onethree,,,,,,,,,,,,,,,,,,,,,,,,,,,,,,,,,,,,,,,,,,,,,,,,,,,,,,,,,,,,,,,,,,,,,,,,,,,,,,,,,,,,,,,,,,,,,,,,,,,,,,,,,,,,,,,,,,,,,,,,,,,,,,,,,,,,,,,,,,,,,,,,,,,,,,,,,,,,,
,,,,,,601293860c66d92eec572b90,62c5398e58c7705bdcbb4b2c,2022-07-06_09h28.45.826,Colour_Asymmetry_Pilot,2022.1.3,Win32,59.96641881,62c50e9c1127f2cd403a315f,0,50,50,156,1,threeone,,,,,,,,,,,,,,,,,,,,,,,,,,,,,,,,,,,,,,,,,,,,,,,,,,,,,,,,,,,,,,,,,,,,,,,,,,,,,,,,,,,,,,,,,,,,,,,,,,,,,,,,,,,,,,,,,,,,,,,,,,,,,,,,,,,,,,,,,,,,,,,,,,,,,,,,,,,,,
,,,,,,601293860c66d92eec572b90,62c5398e58c7705bdcbb4b2c,2022-07-06_09h28.45.826,Colour_Asymmetry_Pilot,2022.1.3,Win32,59.96641881,62c50e9c1127f2cd403a315f,0,51,51,85,1,threefour,,,,,,,,,,,,,,,,,,,,,,,,,,,,,,,,,,,,,,,,,,,,,,,,,,,,,,,,,,,,,,,,,,,,,,,,,,,,,,,,,,,,,,,,,,,,,,,,,,,,,,,,,,,,,,,,,,,,,,,,,,,,,,,,,,,,,,,,,,,,,,,,,,,,,,,,,,,,,
,,,,,,601293860c66d92eec572b90,62c5398e58c7705bdcbb4b2c,2022-07-06_09h28.45.826,Colour_Asymmetry_Pilot,2022.1.3,Win32,59.96641881,62c50e9c1127f2cd403a315f,0,52,52,150,1,fourtwo,,,,,,,,,,,,,,,,,,,,,,,,,,,,,,,,,,,,,,,,,,,,,,,,,,,,,,,,,,,,,,,,,,,,,,,,,,,,,,,,,,,,,,,,,,,,,,,,,,,,,,,,,,,,,,,,,,,,,,,,,,,,,,,,,,,,,,,,,,,,,,,,,,,,,,,,,,,,,
,,,,,,601293860c66d92eec572b90,62c5398e58c7705bdcbb4b2c,2022-07-06_09h28.45.826,Colour_Asymmetry_Pilot,2022.1.3,Win32,59.96641881,62c50e9c1127f2cd403a315f,0,53,53,161,1,onethree,,,,,,,,,,,,,,,,,,,,,,,,,,,,,,,,,,,,,,,,,,,,,,,,,,,,,,,,,,,,,,,,,,,,,,,,,,,,,,,,,,,,,,,,,,,,,,,,,,,,,,,,,,,,,,,,,,,,,,,,,,,,,,,,,,,,,,,,,,,,,,,,,,,,,,,,,,,,,
,,,,,,601293860c66d92eec572b90,62c5398e58c7705bdcbb4b2c,2022-07-06_09h28.45.826,Colour_Asymmetry_Pilot,2022.1.3,Win32,59.96641881,62c50e9c1127f2cd403a315f,0,54,54,47,1,fourthree,,,,,,,,,,,,,,,,,,,,,,,,,,,,,,,,,,,,,,,,,,,,,,,,,,,,,,,,,,,,,,,,,,,,,,,,,,,,,,,,,,,,,,,,,,,,,,,,,,,,,,,,,,,,,,,,,,,,,,,,,,,,,,,,,,,,,,,,,,,,,,,,,,,,,,,,,,,,,
,,,,,,601293860c66d92eec572b90,62c5398e58c7705bdcbb4b2c,2022-07-06_09h28.45.826,Colour_Asymmetry_Pilot,2022.1.3,Win32,59.96641881,62c50e9c1127f2cd403a315f,0,55,55,96,1,onetwo,,,,,,,,,,,,,,,,,,,,,,,,,,,,,,,,,,,,,,,,,,,,,,,,,,,,,,,,,,,,,,,,,,,,,,,,,,,,,,,,,,,,,,,,,,,,,,,,,,,,,,,,,,,,,,,,,,,,,,,,,,,,,,,,,,,,,,,,,,,,,,,,,,,,,,,,,,,,,
,,,,,,601293860c66d92eec572b90,62c5398e58c7705bdcbb4b2c,2022-07-06_09h28.45.826,Colour_Asymmetry_Pilot,2022.1.3,Win32,59.96641881,62c50e9c1127f2cd403a315f,0,56,56,112,1,onetwo,,,,,,,,,,,,,,,,,,,,,,,,,,,,,,,,,,,,,,,,,,,,,,,,,,,,,,,,,,,,,,,,,,,,,,,,,,,,,,,,,,,,,,,,,,,,,,,,,,,,,,,,,,,,,,,,,,,,,,,,,,,,,,,,,,,,,,,,,,,,,,,,,,,,,,,,,,,,,
,,,,,,601293860c66d92eec572b90,62c5398e58c7705bdcbb4b2c,2022-07-06_09h28.45.826,Colour_Asymmetry_Pilot,2022.1.3,Win32,59.96641881,62c50e9c1127f2cd403a315f,0,57,57,67,1,twofour,,,,,,,,,,,,,,,,,,,,,,,,,,,,,,,,,,,,,,,,,,,,,,,,,,,,,,,,,,,,,,,,,,,,,,,,,,,,,,,,,,,,,,,,,,,,,,,,,,,,,,,,,,,,,,,,,,,,,,,,,,,,,,,,,,,,,,,,,,,,,,,,,,,,,,,,,,,,,
,,,,,,601293860c66d92eec572b90,62c5398e58c7705bdcbb4b2c,2022-07-06_09h28.45.826,Colour_Asymmetry_Pilot,2022.1.3,Win32,59.96641881,62c50e9c1127f2cd403a315f,0,58,58,145,1,onethree,,,,,,,,,,,,,,,,,,,,,,,,,,,,,,,,,,,,,,,,,,,,,,,,,,,,,,,,,,,,,,,,,,,,,,,,,,,,,,,,,,,,,,,,,,,,,,,,,,,,,,,,,,,,,,,,,,,,,,,,,,,,,,,,,,,,,,,,,,,,,,,,,,,,,,,,,,,,,
,,,,,,601293860c66d92eec572b90,62c5398e58c7705bdcbb4b2c,2022-07-06_09h28.45.826,Colour_Asymmetry_Pilot,2022.1.3,Win32,59.96641881,62c50e9c1127f2cd403a315f,0,59,59,35,1,twofour,,,,,,,,,,,,,,,,,,,,,,,,,,,,,,,,,,,,,,,,,,,,,,,,,,,,,,,,,,,,,,,,,,,,,,,,,,,,,,,,,,,,,,,,,,,,,,,,,,,,,,,,,,,,,,,,,,,,,,,,,,,,,,,,,,,,,,,,,,,,,,,,,,,,,,,,,,,,,
,,,,,,601293860c66d92eec572b90,62c5398e58c7705bdcbb4b2c,2022-07-06_09h28.45.826,Colour_Asymmetry_Pilot,2022.1.3,Win32,59.96641881,62c50e9c1127f2cd403a315f,0,60,60,22,1,fourtwo,,,,,,,,,,,,,,,,,,,,,,,,,,,,,,,,,,,,,,,,,,,,,,,,,,,,,,,,,,,,,,,,,,,,,,,,,,,,,,,,,,,,,,,,,,,,,,,,,,,,,,,,,,,,,,,,,,,,,,,,,,,,,,,,,,,,,,,,,,,,,,,,,,,,,,,,,,,,,
,,,,,,601293860c66d92eec572b90,62c5398e58c7705bdcbb4b2c,2022-07-06_09h28.45.826,Colour_Asymmetry_Pilot,2022.1.3,Win32,59.96641881,62c50e9c1127f2cd403a315f,0,61,61,158,1,fourtwo,,,,,,,,,,,,,,,,,,,,,,,,,,,,,,,,,,,,,,,,,,,,,,,,,,,,,,,,,,,,,,,,,,,,,,,,,,,,,,,,,,,,,,,,,,,,,,,,,,,,,,,,,,,,,,,,,,,,,,,,,,,,,,,,,,,,,,,,,,,,,,,,,,,,,,,,,,,,,
,,,,,,601293860c66d92eec572b90,62c5398e58c7705bdcbb4b2c,2022-07-06_09h28.45.826,Colour_Asymmetry_Pilot,2022.1.3,Win32,59.96641881,62c50e9c1127f2cd403a315f,0,62,62,82,1,twoone,,,,,,,,,,,,,,,,,,,,,,,,,,,,,,,,,,,,,,,,,,,,,,,,,,,,,,,,,,,,,,,,,,,,,,,,,,,,,,,,,,,,,,,,,,,,,,,,,,,,,,,,,,,,,,,,,,,,,,,,,,,,,,,,,,,,,,,,,,,,,,,,,,,,,,,,,,,,,
,,,,,,601293860c66d92eec572b90,62c5398e58c7705bdcbb4b2c,2022-07-06_09h28.45.826,Colour_Asymmetry_Pilot,2022.1.3,Win32,59.96641881,62c50e9c1127f2cd403a315f,0,63,63,121,1,onethree,,,,,,,,,,,,,,,,,,,,,,,,,,,,,,,,,,,,,,,,,,,,,,,,,,,,,,,,,,,,,,,,,,,,,,,,,,,,,,,,,,,,,,,,,,,,,,,,,,,,,,,,,,,,,,,,,,,,,,,,,,,,,,,,,,,,,,,,,,,,,,,,,,,,,,,,,,,,,
,,,,,,601293860c66d92eec572b90,62c5398e58c7705bdcbb4b2c,2022-07-06_09h28.45.826,Colour_Asymmetry_Pilot,2022.1.3,Win32,59.96641881,62c50e9c1127f2cd403a315f,0,64,64,95,1,fourthree,,,,,,,,,,,,,,,,,,,,,,,,,,,,,,,,,,,,,,,,,,,,,,,,,,,,,,,,,,,,,,,,,,,,,,,,,,,,,,,,,,,,,,,,,,,,,,,,,,,,,,,,,,,,,,,,,,,,,,,,,,,,,,,,,,,,,,,,,,,,,,,,,,,,,,,,,,,,,
,,,,,,601293860c66d92eec572b90,62c5398e58c7705bdcbb4b2c,2022-07-06_09h28.45.826,Colour_Asymmetry_Pilot,2022.1.3,Win32,59.96641881,62c50e9c1127f2cd403a315f,0,65,65,149,1,threefour,,,,,,,,,,,,,,,,,,,,,,,,,,,,,,,,,,,,,,,,,,,,,,,,,,,,,,,,,,,,,,,,,,,,,,,,,,,,,,,,,,,,,,,,,,,,,,,,,,,,,,,,,,,,,,,,,,,,,,,,,,,,,,,,,,,,,,,,,,,,,,,,,,,,,,,,,,,,,
,,,,,,601293860c66d92eec572b90,62c5398e58c7705bdcbb4b2c,2022-07-06_09h28.45.826,Colour_Asymmetry_Pilot,2022.1.3,Win32,59.96641881,62c50e9c1127f2cd403a315f,0,66,66,11,1,twofour,,,,,,,,,,,,,,,,,,,,,,,,,,,,,,,,,,,,,,,,,,,,,,,,,,,,,,,,,,,,,,,,,,,,,,,,,,,,,,,,,,,,,,,,,,,,,,,,,,,,,,,,,,,,,,,,,,,,,,,,,,,,,,,,,,,,,,,,,,,,,,,,,,,,,,,,,,,,,
,,,,,,601293860c66d92eec572b90,62c5398e58c7705bdcbb4b2c,2022-07-06_09h28.45.826,Colour_Asymmetry_Pilot,2022.1.3,Win32,59.96641881,62c50e9c1127f2cd403a315f,0,67,67,13,1,threefour,,,,,,,,,,,,,,,,,,,,,,,,,,,,,,,,,,,,,,,,,,,,,,,,,,,,,,,,,,,,,,,,,,,,,,,,,,,,,,,,,,,,,,,,,,,,,,,,,,,,,,,,,,,,,,,,,,,,,,,,,,,,,,,,,,,,,,,,,,,,,,,,,,,,,,,,,,,,,
,,,,,,601293860c66d92eec572b90,62c5398e58c7705bdcbb4b2c,2022-07-06_09h28.45.826,Colour_Asymmetry_Pilot,2022.1.3,Win32,59.96641881,62c50e9c1127f2cd403a315f,0,68,68,28,1,threeone,,,,,,,,,,,,,,,,,,,,,,,,,,,,,,,,,,,,,,,,,,,,,,,,,,,,,,,,,,,,,,,,,,,,,,,,,,,,,,,,,,,,,,,,,,,,,,,,,,,,,,,,,,,,,,,,,,,,,,,,,,,,,,,,,,,,,,,,,,,,,,,,,,,,,,,,,,,,,
,,,,,,601293860c66d92eec572b90,62c5398e58c7705bdcbb4b2c,2022-07-06_09h28.45.826,Colour_Asymmetry_Pilot,2022.1.3,Win32,59.96641881,62c50e9c1127f2cd403a315f,0,69,69,52,1,threeone,,,,,,,,,,,,,,,,,,,,,,,,,,,,,,,,,,,,,,,,,,,,,,,,,,,,,,,,,,,,,,,,,,,,,,,,,,,,,,,,,,,,,,,,,,,,,,,,,,,,,,,,,,,,,,,,,,,,,,,,,,,,,,,,,,,,,,,,,,,,,,,,,,,,,,,,,,,,,
,,,,,,601293860c66d92eec572b90,62c5398e58c7705bdcbb4b2c,2022-07-06_09h28.45.826,Colour_Asymmetry_Pilot,2022.1.3,Win32,59.96641881,62c50e9c1127f2cd403a315f,0,70,70,86,1,fourtwo,,,,,,,,,,,,,,,,,,,,,,,,,,,,,,,,,,,,,,,,,,,,,,,,,,,,,,,,,,,,,,,,,,,,,,,,,,,,,,,,,,,,,,,,,,,,,,,,,,,,,,,,,,,,,,,,,,,,,,,,,,,,,,,,,,,,,,,,,,,,,,,,,,,,,,,,,,,,,
,,,,,,601293860c66d92eec572b90,62c5398e58c7705bdcbb4b2c,2022-07-06_09h28.45.826,Colour_Asymmetry_Pilot,2022.1.3,Win32,59.96641881,62c50e9c1127f2cd403a315f,0,71,71,48,1,onetwo,,,,,,,,,,,,,,,,,,,,,,,,,,,,,,,,,,,,,,,,,,,,,,,,,,,,,,,,,,,,,,,,,,,,,,,,,,,,,,,,,,,,,,,,,,,,,,,,,,,,,,,,,,,,,,,,,,,,,,,,,,,,,,,,,,,,,,,,,,,,,,,,,,,,,,,,,,,,,
,,,,,,601293860c66d92eec572b90,62c5398e58c7705bdcbb4b2c,2022-07-06_09h28.45.826,Colour_Asymmetry_Pilot,2022.1.3,Win32,59.96641881,62c50e9c1127f2cd403a315f,0,72,72,118,1,fourtwo,,,,,,,,,,,,,,,,,,,,,,,,,,,,,,,,,,,,,,,,,,,,,,,,,,,,,,,,,,,,,,,,,,,,,,,,,,,,,,,,,,,,,,,,,,,,,,,,,,,,,,,,,,,,,,,,,,,,,,,,,,,,,,,,,,,,,,,,,,,,,,,,,,,,,,,,,,,,,
,,,,,,601293860c66d92eec572b90,62c5398e58c7705bdcbb4b2c,2022-07-06_09h28.45.826,Colour_Asymmetry_Pilot,2022.1.3,Win32,59.96641881,62c50e9c1127f2cd403a315f,0,73,73,6,1,fourtwo,,,,,,,,,,,,,,,,,,,,,,,,,,,,,,,,,,,,,,,,,,,,,,,,,,,,,,,,,,,,,,,,,,,,,,,,,,,,,,,,,,,,,,,,,,,,,,,,,,,,,,,,,,,,,,,,,,,,,,,,,,,,,,,,,,,,,,,,,,,,,,,,,,,,,,,,,,,,,
,,,,,,601293860c66d92eec572b90,62c5398e58c7705bdcbb4b2c,2022-07-06_09h28.45.826,Colour_Asymmetry_Pilot,2022.1.3,Win32,59.96641881,62c50e9c1127f2cd403a315f,0,74,74,144,1,onetwo,,,,,,,,,,,,,,,,,,,,,,,,,,,,,,,,,,,,,,,,,,,,,,,,,,,,,,,,,,,,,,,,,,,,,,,,,,,,,,,,,,,,,,,,,,,,,,,,,,,,,,,,,,,,,,,,,,,,,,,,,,,,,,,,,,,,,,,,,,,,,,,,,,,,,,,,,,,,,
,,,,,,601293860c66d92eec572b90,62c5398e58c7705bdcbb4b2c,2022-07-06_09h28.45.826,Colour_Asymmetry_Pilot,2022.1.3,Win32,59.96641881,62c50e9c1127f2cd403a315f,0,75,75,97,1,onethree,,,,,,,,,,,,,,,,,,,,,,,,,,,,,,,,,,,,,,,,,,,,,,,,,,,,,,,,,,,,,,,,,,,,,,,,,,,,,,,,,,,,,,,,,,,,,,,,,,,,,,,,,,,,,,,,,,,,,,,,,,,,,,,,,,,,,,,,,,,,,,,,,,,,,,,,,,,,,
,,,,,,601293860c66d92eec572b90,62c5398e58c7705bdcbb4b2c,2022-07-06_09h28.45.826,Colour_Asymmetry_Pilot,2022.1.3,Win32,59.96641881,62c50e9c1127f2cd403a315f,0,76,76,58,1,twoone,,,,,,,,,,,,,,,,,,,,,,,,,,,,,,,,,,,,,,,,,,,,,,,,,,,,,,,,,,,,,,,,,,,,,,,,,,,,,,,,,,,,,,,,,,,,,,,,,,,,,,,,,,,,,,,,,,,,,,,,,,,,,,,,,,,,,,,,,,,,,,,,,,,,,,,,,,,,,
,,,,,,601293860c66d92eec572b90,62c5398e58c7705bdcbb4b2c,2022-07-06_09h28.45.826,Colour_Asymmetry_Pilot,2022.1.3,Win32,59.96641881,62c50e9c1127f2cd403a315f,0,77,77,73,1,onethree,,,,,,,,,,,,,,,,,,,,,,,,,,,,,,,,,,,,,,,,,,,,,,,,,,,,,,,,,,,,,,,,,,,,,,,,,,,,,,,,,,,,,,,,,,,,,,,,,,,,,,,,,,,,,,,,,,,,,,,,,,,,,,,,,,,,,,,,,,,,,,,,,,,,,,,,,,,,,
,,,,,,601293860c66d92eec572b90,62c5398e58c7705bdcbb4b2c,2022-07-06_09h28.45.826,Colour_Asymmetry_Pilot,2022.1.3,Win32,59.96641881,62c50e9c1127f2cd403a315f,0,78,78,9,1,onethree,,,,,,,,,,,,,,,,,,,,,,,,,,,,,,,,,,,,,,,,,,,,,,,,,,,,,,,,,,,,,,,,,,,,,,,,,,,,,,,,,,,,,,,,,,,,,,,,,,,,,,,,,,,,,,,,,,,,,,,,,,,,,,,,,,,,,,,,,,,,,,,,,,,,,,,,,,,,,
,,,,,,601293860c66d92eec572b90,62c5398e58c7705bdcbb4b2c,2022-07-06_09h28.45.826,Colour_Asymmetry_Pilot,2022.1.3,Win32,59.96641881,62c50e9c1127f2cd403a315f,0,79,79,5,1,threefour,,,,,,,,,,,,,,,,,,,,,,,,,,,,,,,,,,,,,,,,,,,,,,,,,,,,,,,,,,,,,,,,,,,,,,,,,,,,,,,,,,,,,,,,,,,,,,,,,,,,,,,,,,,,,,,,,,,,,,,,,,,,,,,,,,,,,,,,,,,,,,,,,,,,,,,,,,,,,
,,,,,,601293860c66d92eec572b90,62c5398e58c7705bdcbb4b2c,2022-07-06_09h28.45.826,Colour_Asymmetry_Pilot,2022.1.3,Win32,59.96641881,62c50e9c1127f2cd403a315f,0,80,80,14,1,fourtwo,,,,,,,,,,,,,,,,,,,,,,,,,,,,,,,,,,,,,,,,,,,,,,,,,,,,,,,,,,,,,,,,,,,,,,,,,,,,,,,,,,,,,,,,,,,,,,,,,,,,,,,,,,,,,,,,,,,,,,,,,,,,,,,,,,,,,,,,,,,,,,,,,,,,,,,,,,,,,
,,,,,,601293860c66d92eec572b90,62c5398e58c7705bdcbb4b2c,2022-07-06_09h28.45.826,Colour_Asymmetry_Pilot,2022.1.3,Win32,59.96641881,62c50e9c1127f2cd403a315f,0,81,81,89,1,onethree,,,,,,,,,,,,,,,,,,,,,,,,,,,,,,,,,,,,,,,,,,,,,,,,,,,,,,,,,,,,,,,,,,,,,,,,,,,,,,,,,,,,,,,,,,,,,,,,,,,,,,,,,,,,,,,,,,,,,,,,,,,,,,,,,,,,,,,,,,,,,,,,,,,,,,,,,,,,,
,,,,,,601293860c66d92eec572b90,62c5398e58c7705bdcbb4b2c,2022-07-06_09h28.45.826,Colour_Asymmetry_Pilot,2022.1.3,Win32,59.96641881,62c50e9c1127f2cd403a315f,0,82,82,119,1,fourthree,,,,,,,,,,,,,,,,,,,,,,,,,,,,,,,,,,,,,,,,,,,,,,,,,,,,,,,,,,,,,,,,,,,,,,,,,,,,,,,,,,,,,,,,,,,,,,,,,,,,,,,,,,,,,,,,,,,,,,,,,,,,,,,,,,,,,,,,,,,,,,,,,,,,,,,,,,,,,
,,,,,,601293860c66d92eec572b90,62c5398e58c7705bdcbb4b2c,2022-07-06_09h28.45.826,Colour_Asymmetry_Pilot,2022.1.3,Win32,59.96641881,62c50e9c1127f2cd403a315f,0,83,83,20,1,threeone,,,,,,,,,,,,,,,,,,,,,,,,,,,,,,,,,,,,,,,,,,,,,,,,,,,,,,,,,,,,,,,,,,,,,,,,,,,,,,,,,,,,,,,,,,,,,,,,,,,,,,,,,,,,,,,,,,,,,,,,,,,,,,,,,,,,,,,,,,,,,,,,,,,,,,,,,,,,,
,,,,,,601293860c66d92eec572b90,62c5398e58c7705bdcbb4b2c,2022-07-06_09h28.45.826,Colour_Asymmetry_Pilot,2022.1.3,Win32,59.96641881,62c50e9c1127f2cd403a315f,0,84,84,152,1,onetwo,,,,,,,,,,,,,,,,,,,,,,,,,,,,,,,,,,,,,,,,,,,,,,,,,,,,,,,,,,,,,,,,,,,,,,,,,,,,,,,,,,,,,,,,,,,,,,,,,,,,,,,,,,,,,,,,,,,,,,,,,,,,,,,,,,,,,,,,,,,,,,,,,,,,,,,,,,,,,
,,,,,,601293860c66d92eec572b90,62c5398e58c7705bdcbb4b2c,2022-07-06_09h28.45.826,Colour_Asymmetry_Pilot,2022.1.3,Win32,59.96641881,62c50e9c1127f2cd403a315f,0,85,85,91,1,twofour,,,,,,,,,,,,,,,,,,,,,,,,,,,,,,,,,,,,,,,,,,,,,,,,,,,,,,,,,,,,,,,,,,,,,,,,,,,,,,,,,,,,,,,,,,,,,,,,,,,,,,,,,,,,,,,,,,,,,,,,,,,,,,,,,,,,,,,,,,,,,,,,,,,,,,,,,,,,,
,,,,,,601293860c66d92eec572b90,62c5398e58c7705bdcbb4b2c,2022-07-06_09h28.45.826,Colour_Asymmetry_Pilot,2022.1.3,Win32,59.96641881,62c50e9c1127f2cd403a315f,0,86,86,81,1,onethree,,,,,,,,,,,,,,,,,,,,,,,,,,,,,,,,,,,,,,,,,,,,,,,,,,,,,,,,,,,,,,,,,,,,,,,,,,,,,,,,,,,,,,,,,,,,,,,,,,,,,,,,,,,,,,,,,,,,,,,,,,,,,,,,,,,,,,,,,,,,,,,,,,,,,,,,,,,,,
,,,,,,601293860c66d92eec572b90,62c5398e58c7705bdcbb4b2c,2022-07-06_09h28.45.826,Colour_Asymmetry_Pilot,2022.1.3,Win32,59.96641881,62c50e9c1127f2cd403a315f,0,87,87,8,1,onetwo,,,,,,,,,,,,,,,,,,,,,,,,,,,,,,,,,,,,,,,,,,,,,,,,,,,,,,,,,,,,,,,,,,,,,,,,,,,,,,,,,,,,,,,,,,,,,,,,,,,,,,,,,,,,,,,,,,,,,,,,,,,,,,,,,,,,,,,,,,,,,,,,,,,,,,,,,,,,,
,,,,,,601293860c66d92eec572b90,62c5398e58c7705bdcbb4b2c,2022-07-06_09h28.45.826,Colour_Asymmetry_Pilot,2022.1.3,Win32,59.96641881,62c50e9c1127f2cd403a315f,0,88,88,34,1,twoone,,,,,,,,,,,,,,,,,,,,,,,,,,,,,,,,,,,,,,,,,,,,,,,,,,,,,,,,,,,,,,,,,,,,,,,,,,,,,,,,,,,,,,,,,,,,,,,,,,,,,,,,,,,,,,,,,,,,,,,,,,,,,,,,,,,,,,,,,,,,,,,,,,,,,,,,,,,,,
,,,,,,601293860c66d92eec572b90,62c5398e58c7705bdcbb4b2c,2022-07-06_09h28.45.826,Colour_Asymmetry_Pilot,2022.1.3,Win32,59.96641881,62c50e9c1127f2cd403a315f,0,89,89,42,1,twoone,,,,,,,,,,,,,,,,,,,,,,,,,,,,,,,,,,,,,,,,,,,,,,,,,,,,,,,,,,,,,,,,,,,,,,,,,,,,,,,,,,,,,,,,,,,,,,,,,,,,,,,,,,,,,,,,,,,,,,,,,,,,,,,,,,,,,,,,,,,,,,,,,,,,,,,,,,,,,
,,,,,,601293860c66d92eec572b90,62c5398e58c7705bdcbb4b2c,2022-07-06_09h28.45.826,Colour_Asymmetry_Pilot,2022.1.3,Win32,59.96641881,62c50e9c1127f2cd403a315f,0,90,90,98,1,twoone,,,,,,,,,,,,,,,,,,,,,,,,,,,,,,,,,,,,,,,,,,,,,,,,,,,,,,,,,,,,,,,,,,,,,,,,,,,,,,,,,,,,,,,,,,,,,,,,,,,,,,,,,,,,,,,,,,,,,,,,,,,,,,,,,,,,,,,,,,,,,,,,,,,,,,,,,,,,,
,,,,,,601293860c66d92eec572b90,62c5398e58c7705bdcbb4b2c,2022-07-06_09h28.45.826,Colour_Asymmetry_Pilot,2022.1.3,Win32,59.96641881,62c50e9c1127f2cd403a315f,0,91,91,126,1,fourtwo,,,,,,,,,,,,,,,,,,,,,,,,,,,,,,,,,,,,,,,,,,,,,,,,,,,,,,,,,,,,,,,,,,,,,,,,,,,,,,,,,,,,,,,,,,,,,,,,,,,,,,,,,,,,,,,,,,,,,,,,,,,,,,,,,,,,,,,,,,,,,,,,,,,,,,,,,,,,,
,,,,,,601293860c66d92eec572b90,62c5398e58c7705bdcbb4b2c,2022-07-06_09h28.45.826,Colour_Asymmetry_Pilot,2022.1.3,Win32,59.96641881,62c50e9c1127f2cd403a315f,0,92,92,106,1,twoone,,,,,,,,,,,,,,,,,,,,,,,,,,,,,,,,,,,,,,,,,,,,,,,,,,,,,,,,,,,,,,,,,,,,,,,,,,,,,,,,,,,,,,,,,,,,,,,,,,,,,,,,,,,,,,,,,,,,,,,,,,,,,,,,,,,,,,,,,,,,,,,,,,,,,,,,,,,,,
,,,,,,601293860c66d92eec572b90,62c5398e58c7705bdcbb4b2c,2022-07-06_09h28.45.826,Colour_Asymmetry_Pilot,2022.1.3,Win32,59.96641881,62c50e9c1127f2cd403a315f,0,93,93,74,1,twoone,,,,,,,,,,,,,,,,,,,,,,,,,,,,,,,,,,,,,,,,,,,,,,,,,,,,,,,,,,,,,,,,,,,,,,,,,,,,,,,,,,,,,,,,,,,,,,,,,,,,,,,,,,,,,,,,,,,,,,,,,,,,,,,,,,,,,,,,,,,,,,,,,,,,,,,,,,,,,
,,,,,,601293860c66d92eec572b90,62c5398e58c7705bdcbb4b2c,2022-07-06_09h28.45.826,Colour_Asymmetry_Pilot,2022.1.3,Win32,59.96641881,62c50e9c1127f2cd403a315f,0,94,94,138,1,twoone,,,,,,,,,,,,,,,,,,,,,,,,,,,,,,,,,,,,,,,,,,,,,,,,,,,,,,,,,,,,,,,,,,,,,,,,,,,,,,,,,,,,,,,,,,,,,,,,,,,,,,,,,,,,,,,,,,,,,,,,,,,,,,,,,,,,,,,,,,,,,,,,,,,,,,,,,,,,,
,,,,,,601293860c66d92eec572b90,62c5398e58c7705bdcbb4b2c,2022-07-06_09h28.45.826,Colour_Asymmetry_Pilot,2022.1.3,Win32,59.96641881,62c50e9c1127f2cd403a315f,0,95,95,24,1,onetwo,,,,,,,,,,,,,,,,,,,,,,,,,,,,,,,,,,,,,,,,,,,,,,,,,,,,,,,,,,,,,,,,,,,,,,,,,,,,,,,,,,,,,,,,,,,,,,,,,,,,,,,,,,,,,,,,,,,,,,,,,,,,,,,,,,,,,,,,,,,,,,,,,,,,,,,,,,,,,
,,,,,,601293860c66d92eec572b90,62c5398e58c7705bdcbb4b2c,2022-07-06_09h28.45.826,Colour_Asymmetry_Pilot,2022.1.3,Win32,59.96641881,62c50e9c1127f2cd403a315f,0,96,96,128,1,onetwo,,,,,,,,,,,,,,,,,,,,,,,,,,,,,,,,,,,,,,,,,,,,,,,,,,,,,,,,,,,,,,,,,,,,,,,,,,,,,,,,,,,,,,,,,,,,,,,,,,,,,,,,,,,,,,,,,,,,,,,,,,,,,,,,,,,,,,,,,,,,,,,,,,,,,,,,,,,,,
,,,,,,601293860c66d92eec572b90,62c5398e58c7705bdcbb4b2c,2022-07-06_09h28.45.826,Colour_Asymmetry_Pilot,2022.1.3,Win32,59.96641881,62c50e9c1127f2cd403a315f,0,97,97,4,1,threeone,,,,,,,,,,,,,,,,,,,,,,,,,,,,,,,,,,,,,,,,,,,,,,,,,,,,,,,,,,,,,,,,,,,,,,,,,,,,,,,,,,,,,,,,,,,,,,,,,,,,,,,,,,,,,,,,,,,,,,,,,,,,,,,,,,,,,,,,,,,,,,,,,,,,,,,,,,,,,
,,,,,,601293860c66d92eec572b90,62c5398e58c7705bdcbb4b2c,2022-07-06_09h28.45.826,Colour_Asymmetry_Pilot,2022.1.3,Win32,59.96641881,62c50e9c1127f2cd403a315f,0,98,98,84,1,threeone,,,,,,,,,,,,,,,,,,,,,,,,,,,,,,,,,,,,,,,,,,,,,,,,,,,,,,,,,,,,,,,,,,,,,,,,,,,,,,,,,,,,,,,,,,,,,,,,,,,,,,,,,,,,,,,,,,,,,,,,,,,,,,,,,,,,,,,,,,,,,,,,,,,,,,,,,,,,,
,,,,,,601293860c66d92eec572b90,62c5398e58c7705bdcbb4b2c,2022-07-06_09h28.45.826,Colour_Asymmetry_Pilot,2022.1.3,Win32,59.96641881,62c50e9c1127f2cd403a315f,0,99,99,103,1,fourthree,,,,,,,,,,,,,,,,,,,,,,,,,,,,,,,,,,,,,,,,,,,,,,,,,,,,,,,,,,,,,,,,,,,,,,,,,,,,,,,,,,,,,,,,,,,,,,,,,,,,,,,,,,,,,,,,,,,,,,,,,,,,,,,,,,,,,,,,,,,,,,,,,,,,,,,,,,,,,
,,,,,,601293860c66d92eec572b90,62c5398e58c7705bdcbb4b2c,2022-07-06_09h28.45.826,Colour_Asymmetry_Pilot,2022.1.3,Win32,59.96641881,62c50e9c1127f2cd403a315f,0,100,100,93,1,threefour,,,,,,,,,,,,,,,,,,,,,,,,,,,,,,,,,,,,,,,,,,,,,,,,,,,,,,,,,,,,,,,,,,,,,,,,,,,,,,,,,,,,,,,,,,,,,,,,,,,,,,,,,,,,,,,,,,,,,,,,,,,,,,,,,,,,,,,,,,,,,,,,,,,,,,,,,,,,,
,,,,,,601293860c66d92eec572b90,62c5398e58c7705bdcbb4b2c,2022-07-06_09h28.45.826,Colour_Asymmetry_Pilot,2022.1.3,Win32,59.96641881,62c50e9c1127f2cd403a315f,0,101,101,2,1,twoone,,,,,,,,,,,,,,,,,,,,,,,,,,,,,,,,,,,,,,,,,,,,,,,,,,,,,,,,,,,,,,,,,,,,,,,,,,,,,,,,,,,,,,,,,,,,,,,,,,,,,,,,,,,,,,,,,,,,,,,,,,,,,,,,,,,,,,,,,,,,,,,,,,,,,,,,,,,,,
,,,,,,601293860c66d92eec572b90,62c5398e58c7705bdcbb4b2c,2022-07-06_09h28.45.826,Colour_Asymmetry_Pilot,2022.1.3,Win32,59.96641881,62c50e9c1127f2cd403a315f,0,102,102,148,1,threeone,,,,,,,,,,,,,,,,,,,,,,,,,,,,,,,,,,,,,,,,,,,,,,,,,,,,,,,,,,,,,,,,,,,,,,,,,,,,,,,,,,,,,,,,,,,,,,,,,,,,,,,,,,,,,,,,,,,,,,,,,,,,,,,,,,,,,,,,,,,,,,,,,,,,,,,,,,,,,
,,,,,,601293860c66d92eec572b90,62c5398e58c7705bdcbb4b2c,2022-07-06_09h28.45.826,Colour_Asymmetry_Pilot,2022.1.3,Win32,59.96641881,62c50e9c1127f2cd403a315f,0,103,103,147,1,twofour,,,,,,,,,,,,,,,,,,,,,,,,,,,,,,,,,,,,,,,,,,,,,,,,,,,,,,,,,,,,,,,,,,,,,,,,,,,,,,,,,,,,,,,,,,,,,,,,,,,,,,,,,,,,,,,,,,,,,,,,,,,,,,,,,,,,,,,,,,,,,,,,,,,,,,,,,,,,,
,,,,,,601293860c66d92eec572b90,62c5398e58c7705bdcbb4b2c,2022-07-06_09h28.45.826,Colour_Asymmetry_Pilot,2022.1.3,Win32,59.96641881,62c50e9c1127f2cd403a315f,0,104,104,114,1,twoone,,,,,,,,,,,,,,,,,,,,,,,,,,,,,,,,,,,,,,,,,,,,,,,,,,,,,,,,,,,,,,,,,,,,,,,,,,,,,,,,,,,,,,,,,,,,,,,,,,,,,,,,,,,,,,,,,,,,,,,,,,,,,,,,,,,,,,,,,,,,,,,,,,,,,,,,,,,,,
,,,,,,601293860c66d92eec572b90,62c5398e58c7705bdcbb4b2c,2022-07-06_09h28.45.826,Colour_Asymmetry_Pilot,2022.1.3,Win32,59.96641881,62c50e9c1127f2cd403a315f,0,105,105,143,1,fourthree,,,,,,,,,,,,,,,,,,,,,,,,,,,,,,,,,,,,,,,,,,,,,,,,,,,,,,,,,,,,,,,,,,,,,,,,,,,,,,,,,,,,,,,,,,,,,,,,,,,,,,,,,,,,,,,,,,,,,,,,,,,,,,,,,,,,,,,,,,,,,,,,,,,,,,,,,,,,,
,,,,,,601293860c66d92eec572b90,62c5398e58c7705bdcbb4b2c,2022-07-06_09h28.45.826,Colour_Asymmetry_Pilot,2022.1.3,Win32,59.96641881,62c50e9c1127f2cd403a315f,0,106,106,55,1,fourthree,,,,,,,,,,,,,,,,,,,,,,,,,,,,,,,,,,,,,,,,,,,,,,,,,,,,,,,,,,,,,,,,,,,,,,,,,,,,,,,,,,,,,,,,,,,,,,,,,,,,,,,,,,,,,,,,,,,,,,,,,,,,,,,,,,,,,,,,,,,,,,,,,,,,,,,,,,,,,
,,,,,,601293860c66d92eec572b90,62c5398e58c7705bdcbb4b2c,2022-07-06_09h28.45.826,Colour_Asymmetry_Pilot,2022.1.3,Win32,59.96641881,62c50e9c1127f2cd403a315f,0,107,107,44,1,threeone,,,,,,,,,,,,,,,,,,,,,,,,,,,,,,,,,,,,,,,,,,,,,,,,,,,,,,,,,,,,,,,,,,,,,,,,,,,,,,,,,,,,,,,,,,,,,,,,,,,,,,,,,,,,,,,,,,,,,,,,,,,,,,,,,,,,,,,,,,,,,,,,,,,,,,,,,,,,,
,,,,,,601293860c66d92eec572b90,62c5398e58c7705bdcbb4b2c,2022-07-06_09h28.45.826,Colour_Asymmetry_Pilot,2022.1.3,Win32,59.96641881,62c50e9c1127f2cd403a315f,0,108,108,54,1,fourtwo,,,,,,,,,,,,,,,,,,,,,,,,,,,,,,,,,,,,,,,,,,,,,,,,,,,,,,,,,,,,,,,,,,,,,,,,,,,,,,,,,,,,,,,,,,,,,,,,,,,,,,,,,,,,,,,,,,,,,,,,,,,,,,,,,,,,,,,,,,,,,,,,,,,,,,,,,,,,,
,,,,,,601293860c66d92eec572b90,62c5398e58c7705bdcbb4b2c,2022-07-06_09h28.45.826,Colour_Asymmetry_Pilot,2022.1.3,Win32,59.96641881,62c50e9c1127f2cd403a315f,0,109,109,71,1,fourthree,,,,,,,,,,,,,,,,,,,,,,,,,,,,,,,,,,,,,,,,,,,,,,,,,,,,,,,,,,,,,,,,,,,,,,,,,,,,,,,,,,,,,,,,,,,,,,,,,,,,,,,,,,,,,,,,,,,,,,,,,,,,,,,,,,,,,,,,,,,,,,,,,,,,,,,,,,,,,
,,,,,,601293860c66d92eec572b90,62c5398e58c7705bdcbb4b2c,2022-07-06_09h28.45.826,Colour_Asymmetry_Pilot,2022.1.3,Win32,59.96641881,62c50e9c1127f2cd403a315f,0,110,110,113,1,onethree,,,,,,,,,,,,,,,,,,,,,,,,,,,,,,,,,,,,,,,,,,,,,,,,,,,,,,,,,,,,,,,,,,,,,,,,,,,,,,,,,,,,,,,,,,,,,,,,,,,,,,,,,,,,,,,,,,,,,,,,,,,,,,,,,,,,,,,,,,,,,,,,,,,,,,,,,,,,,
,,,,,,601293860c66d92eec572b90,62c5398e58c7705bdcbb4b2c,2022-07-06_09h28.45.826,Colour_Asymmetry_Pilot,2022.1.3,Win32,59.96641881,62c50e9c1127f2cd403a315f,0,111,111,31,1,fourthree,,,,,,,,,,,,,,,,,,,,,,,,,,,,,,,,,,,,,,,,,,,,,,,,,,,,,,,,,,,,,,,,,,,,,,,,,,,,,,,,,,,,,,,,,,,,,,,,,,,,,,,,,,,,,,,,,,,,,,,,,,,,,,,,,,,,,,,,,,,,,,,,,,,,,,,,,,,,,
,,,,,,601293860c66d92eec572b90,62c5398e58c7705bdcbb4b2c,2022-07-06_09h28.45.826,Colour_Asymmetry_Pilot,2022.1.3,Win32,59.96641881,62c50e9c1127f2cd403a315f,0,112,112,15,1,fourthree,,,,,,,,,,,,,,,,,,,,,,,,,,,,,,,,,,,,,,,,,,,,,,,,,,,,,,,,,,,,,,,,,,,,,,,,,,,,,,,,,,,,,,,,,,,,,,,,,,,,,,,,,,,,,,,,,,,,,,,,,,,,,,,,,,,,,,,,,,,,,,,,,,,,,,,,,,,,,
,,,,,,601293860c66d92eec572b90,62c5398e58c7705bdcbb4b2c,2022-07-06_09h28.45.826,Colour_Asymmetry_Pilot,2022.1.3,Win32,59.96641881,62c50e9c1127f2cd403a315f,0,113,113,0,1,onetwo,,,,,,,,,,,,,,,,,,,,,,,,,,,,,,,,,,,,,,,,,,,,,,,,,,,,,,,,,,,,,,,,,,,,,,,,,,,,,,,,,,,,,,,,,,,,,,,,,,,,,,,,,,,,,,,,,,,,,,,,,,,,,,,,,,,,,,,,,,,,,,,,,,,,,,,,,,,,,
,,,,,,601293860c66d92eec572b90,62c5398e58c7705bdcbb4b2c,2022-07-06_09h28.45.826,Colour_Asymmetry_Pilot,2022.1.3,Win32,59.96641881,62c50e9c1127f2cd403a315f,0,114,114,102,1,fourtwo,,,,,,,,,,,,,,,,,,,,,,,,,,,,,,,,,,,,,,,,,,,,,,,,,,,,,,,,,,,,,,,,,,,,,,,,,,,,,,,,,,,,,,,,,,,,,,,,,,,,,,,,,,,,,,,,,,,,,,,,,,,,,,,,,,,,,,,,,,,,,,,,,,,,,,,,,,,,,
,,,,,,601293860c66d92eec572b90,62c5398e58c7705bdcbb4b2c,2022-07-06_09h28.45.826,Colour_Asymmetry_Pilot,2022.1.3,Win32,59.96641881,62c50e9c1127f2cd403a315f,0,115,115,137,1,onethree,,,,,,,,,,,,,,,,,,,,,,,,,,,,,,,,,,,,,,,,,,,,,,,,,,,,,,,,,,,,,,,,,,,,,,,,,,,,,,,,,,,,,,,,,,,,,,,,,,,,,,,,,,,,,,,,,,,,,,,,,,,,,,,,,,,,,,,,,,,,,,,,,,,,,,,,,,,,,
,,,,,,601293860c66d92eec572b90,62c5398e58c7705bdcbb4b2c,2022-07-06_09h28.45.826,Colour_Asymmetry_Pilot,2022.1.3,Win32,59.96641881,62c50e9c1127f2cd403a315f,0,116,116,155,1,twofour,,,,,,,,,,,,,,,,,,,,,,,,,,,,,,,,,,,,,,,,,,,,,,,,,,,,,,,,,,,,,,,,,,,,,,,,,,,,,,,,,,,,,,,,,,,,,,,,,,,,,,,,,,,,,,,,,,,,,,,,,,,,,,,,,,,,,,,,,,,,,,,,,,,,,,,,,,,,,
,,,,,,601293860c66d92eec572b90,62c5398e58c7705bdcbb4b2c,2022-07-06_09h28.45.826,Colour_Asymmetry_Pilot,2022.1.3,Win32,59.96641881,62c50e9c1127f2cd403a315f,0,117,117,32,1,onetwo,,,,,,,,,,,,,,,,,,,,,,,,,,,,,,,,,,,,,,,,,,,,,,,,,,,,,,,,,,,,,,,,,,,,,,,,,,,,,,,,,,,,,,,,,,,,,,,,,,,,,,,,,,,,,,,,,,,,,,,,,,,,,,,,,,,,,,,,,,,,,,,,,,,,,,,,,,,,,
,,,,,,601293860c66d92eec572b90,62c5398e58c7705bdcbb4b2c,2022-07-06_09h28.45.826,Colour_Asymmetry_Pilot,2022.1.3,Win32,59.96641881,62c50e9c1127f2cd403a315f,0,118,118,120,1,onetwo,,,,,,,,,,,,,,,,,,,,,,,,,,,,,,,,,,,,,,,,,,,,,,,,,,,,,,,,,,,,,,,,,,,,,,,,,,,,,,,,,,,,,,,,,,,,,,,,,,,,,,,,,,,,,,,,,,,,,,,,,,,,,,,,,,,,,,,,,,,,,,,,,,,,,,,,,,,,,
,,,,,,601293860c66d92eec572b90,62c5398e58c7705bdcbb4b2c,2022-07-06_09h28.45.826,Colour_Asymmetry_Pilot,2022.1.3,Win32,59.96641881,62c50e9c1127f2cd403a315f,0,119,119,10,1,twoone,,,,,,,,,,,,,,,,,,,,,,,,,,,,,,,,,,,,,,,,,,,,,,,,,,,,,,,,,,,,,,,,,,,,,,,,,,,,,,,,,,,,,,,,,,,,,,,,,,,,,,,,,,,,,,,,,,,,,,,,,,,,,,,,,,,,,,,,,,,,,,,,,,,,,,,,,,,,,
,,,,,,601293860c66d92eec572b90,62c5398e58c7705bdcbb4b2c,2022-07-06_09h28.45.826,Colour_Asymmetry_Pilot,2022.1.3,Win32,59.96641881,62c50e9c1127f2cd403a315f,0,120,120,36,1,threeone,,,,,,,,,,,,,,,,,,,,,,,,,,,,,,,,,,,,,,,,,,,,,,,,,,,,,,,,,,,,,,,,,,,,,,,,,,,,,,,,,,,,,,,,,,,,,,,,,,,,,,,,,,,,,,,,,,,,,,,,,,,,,,,,,,,,,,,,,,,,,,,,,,,,,,,,,,,,,
,,,,,,601293860c66d92eec572b90,62c5398e58c7705bdcbb4b2c,2022-07-06_09h28.45.826,Colour_Asymmetry_Pilot,2022.1.3,Win32,59.96641881,62c50e9c1127f2cd403a315f,0,121,121,68,1,threeone,,,,,,,,,,,,,,,,,,,,,,,,,,,,,,,,,,,,,,,,,,,,,,,,,,,,,,,,,,,,,,,,,,,,,,,,,,,,,,,,,,,,,,,,,,,,,,,,,,,,,,,,,,,,,,,,,,,,,,,,,,,,,,,,,,,,,,,,,,,,,,,,,,,,,,,,,,,,,
,,,,,,601293860c66d92eec572b90,62c5398e58c7705bdcbb4b2c,2022-07-06_09h28.45.826,Colour_Asymmetry_Pilot,2022.1.3,Win32,59.96641881,62c50e9c1127f2cd403a315f,0,122,122,21,1,threefour,,,,,,,,,,,,,,,,,,,,,,,,,,,,,,,,,,,,,,,,,,,,,,,,,,,,,,,,,,,,,,,,,,,,,,,,,,,,,,,,,,,,,,,,,,,,,,,,,,,,,,,,,,,,,,,,,,,,,,,,,,,,,,,,,,,,,,,,,,,,,,,,,,,,,,,,,,,,,
,,,,,,601293860c66d92eec572b90,62c5398e58c7705bdcbb4b2c,2022-07-06_09h28.45.826,Colour_Asymmetry_Pilot,2022.1.3,Win32,59.96641881,62c50e9c1127f2cd403a315f,0,123,123,43,1,twofour,,,,,,,,,,,,,,,,,,,,,,,,,,,,,,,,,,,,,,,,,,,,,,,,,,,,,,,,,,,,,,,,,,,,,,,,,,,,,,,,,,,,,,,,,,,,,,,,,,,,,,,,,,,,,,,,,,,,,,,,,,,,,,,,,,,,,,,,,,,,,,,,,,,,,,,,,,,,,
,,,,,,601293860c66d92eec572b90,62c5398e58c7705bdcbb4b2c,2022-07-06_09h28.45.826,Colour_Asymmetry_Pilot,2022.1.3,Win32,59.96641881,62c50e9c1127f2cd403a315f,0,124,124,115,1,twofour,,,,,,,,,,,,,,,,,,,,,,,,,,,,,,,,,,,,,,,,,,,,,,,,,,,,,,,,,,,,,,,,,,,,,,,,,,,,,,,,,,,,,,,,,,,,,,,,,,,,,,,,,,,,,,,,,,,,,,,,,,,,,,,,,,,,,,,,,,,,,,,,,,,,,,,,,,,,,
,,,,,,601293860c66d92eec572b90,62c5398e58c7705bdcbb4b2c,2022-07-06_09h28.45.826,Colour_Asymmetry_Pilot,2022.1.3,Win32,59.96641881,62c50e9c1127f2cd403a315f,0,125,125,109,1,threefour,,,,,,,,,,,,,,,,,,,,,,,,,,,,,,,,,,,,,,,,,,,,,,,,,,,,,,,,,,,,,,,,,,,,,,,,,,,,,,,,,,,,,,,,,,,,,,,,,,,,,,,,,,,,,,,,,,,,,,,,,,,,,,,,,,,,,,,,,,,,,,,,,,,,,,,,,,,,,
,,,,,,601293860c66d92eec572b90,62c5398e58c7705bdcbb4b2c,2022-07-06_09h28.45.826,Colour_Asymmetry_Pilot,2022.1.3,Win32,59.96641881,62c50e9c1127f2cd403a315f,0,126,126,26,1,twoone,,,,,,,,,,,,,,,,,,,,,,,,,,,,,,,,,,,,,,,,,,,,,,,,,,,,,,,,,,,,,,,,,,,,,,,,,,,,,,,,,,,,,,,,,,,,,,,,,,,,,,,,,,,,,,,,,,,,,,,,,,,,,,,,,,,,,,,,,,,,,,,,,,,,,,,,,,,,,
,,,,,,601293860c66d92eec572b90,62c5398e58c7705bdcbb4b2c,2022-07-06_09h28.45.826,Colour_Asymmetry_Pilot,2022.1.3,Win32,59.96641881,62c50e9c1127f2cd403a315f,0,127,127,157,1,threefour,,,,,,,,,,,,,,,,,,,,,,,,,,,,,,,,,,,,,,,,,,,,,,,,,,,,,,,,,,,,,,,,,,,,,,,,,,,,,,,,,,,,,,,,,,,,,,,,,,,,,,,,,,,,,,,,,,,,,,,,,,,,,,,,,,,,,,,,,,,,,,,,,,,,,,,,,,,,,
,,,,,,601293860c66d92eec572b90,62c5398e58c7705bdcbb4b2c,2022-07-06_09h28.45.826,Colour_Asymmetry_Pilot,2022.1.3,Win32,59.96641881,62c50e9c1127f2cd403a315f,0,128,128,111,1,fourthree,,,,,,,,,,,,,,,,,,,,,,,,,,,,,,,,,,,,,,,,,,,,,,,,,,,,,,,,,,,,,,,,,,,,,,,,,,,,,,,,,,,,,,,,,,,,,,,,,,,,,,,,,,,,,,,,,,,,,,,,,,,,,,,,,,,,,,,,,,,,,,,,,,,,,,,,,,,,,
,,,,,,601293860c66d92eec572b90,62c5398e58c7705bdcbb4b2c,2022-07-06_09h28.45.826,Colour_Asymmetry_Pilot,2022.1.3,Win32,59.96641881,62c50e9c1127f2cd403a315f,0,129,129,1,1,onethree,,,,,,,,,,,,,,,,,,,,,,,,,,,,,,,,,,,,,,,,,,,,,,,,,,,,,,,,,,,,,,,,,,,,,,,,,,,,,,,,,,,,,,,,,,,,,,,,,,,,,,,,,,,,,,,,,,,,,,,,,,,,,,,,,,,,,,,,,,,,,,,,,,,,,,,,,,,,,
,,,,,,601293860c66d92eec572b90,62c5398e58c7705bdcbb4b2c,2022-07-06_09h28.45.826,Colour_Asymmetry_Pilot,2022.1.3,Win32,59.96641881,62c50e9c1127f2cd403a315f,0,130,130,76,1,threeone,,,,,,,,,,,,,,,,,,,,,,,,,,,,,,,,,,,,,,,,,,,,,,,,,,,,,,,,,,,,,,,,,,,,,,,,,,,,,,,,,,,,,,,,,,,,,,,,,,,,,,,,,,,,,,,,,,,,,,,,,,,,,,,,,,,,,,,,,,,,,,,,,,,,,,,,,,,,,
,,,,,,601293860c66d92eec572b90,62c5398e58c7705bdcbb4b2c,2022-07-06_09h28.45.826,Colour_Asymmetry_Pilot,2022.1.3,Win32,59.96641881,62c50e9c1127f2cd403a315f,0,131,131,140,1,threeone,,,,,,,,,,,,,,,,,,,,,,,,,,,,,,,,,,,,,,,,,,,,,,,,,,,,,,,,,,,,,,,,,,,,,,,,,,,,,,,,,,,,,,,,,,,,,,,,,,,,,,,,,,,,,,,,,,,,,,,,,,,,,,,,,,,,,,,,,,,,,,,,,,,,,,,,,,,,,
,,,,,,601293860c66d92eec572b90,62c5398e58c7705bdcbb4b2c,2022-07-06_09h28.45.826,Colour_Asymmetry_Pilot,2022.1.3,Win32,59.96641881,62c50e9c1127f2cd403a315f,0,132,132,7,1,fourthree,,,,,,,,,,,,,,,,,,,,,,,,,,,,,,,,,,,,,,,,,,,,,,,,,,,,,,,,,,,,,,,,,,,,,,,,,,,,,,,,,,,,,,,,,,,,,,,,,,,,,,,,,,,,,,,,,,,,,,,,,,,,,,,,,,,,,,,,,,,,,,,,,,,,,,,,,,,,,
,,,,,,601293860c66d92eec572b90,62c5398e58c7705bdcbb4b2c,2022-07-06_09h28.45.826,Colour_Asymmetry_Pilot,2022.1.3,Win32,59.96641881,62c50e9c1127f2cd403a315f,0,133,133,69,1,threefour,,,,,,,,,,,,,,,,,,,,,,,,,,,,,,,,,,,,,,,,,,,,,,,,,,,,,,,,,,,,,,,,,,,,,,,,,,,,,,,,,,,,,,,,,,,,,,,,,,,,,,,,,,,,,,,,,,,,,,,,,,,,,,,,,,,,,,,,,,,,,,,,,,,,,,,,,,,,,
,,,,,,601293860c66d92eec572b90,62c5398e58c7705bdcbb4b2c,2022-07-06_09h28.45.826,Colour_Asymmetry_Pilot,2022.1.3,Win32,59.96641881,62c50e9c1127f2cd403a315f,0,134,134,64,1,onetwo,,,,,,,,,,,,,,,,,,,,,,,,,,,,,,,,,,,,,,,,,,,,,,,,,,,,,,,,,,,,,,,,,,,,,,,,,,,,,,,,,,,,,,,,,,,,,,,,,,,,,,,,,,,,,,,,,,,,,,,,,,,,,,,,,,,,,,,,,,,,,,,,,,,,,,,,,,,,,
,,,,,,601293860c66d92eec572b90,62c5398e58c7705bdcbb4b2c,2022-07-06_09h28.45.826,Colour_Asymmetry_Pilot,2022.1.3,Win32,59.96641881,62c50e9c1127f2cd403a315f,0,135,135,51,1,twofour,,,,,,,,,,,,,,,,,,,,,,,,,,,,,,,,,,,,,,,,,,,,,,,,,,,,,,,,,,,,,,,,,,,,,,,,,,,,,,,,,,,,,,,,,,,,,,,,,,,,,,,,,,,,,,,,,,,,,,,,,,,,,,,,,,,,,,,,,,,,,,,,,,,,,,,,,,,,,
,,,,,,601293860c66d92eec572b90,62c5398e58c7705bdcbb4b2c,2022-07-06_09h28.45.826,Colour_Asymmetry_Pilot,2022.1.3,Win32,59.96641881,62c50e9c1127f2cd403a315f,0,136,136,37,1,threefour,,,,,,,,,,,,,,,,,,,,,,,,,,,,,,,,,,,,,,,,,,,,,,,,,,,,,,,,,,,,,,,,,,,,,,,,,,,,,,,,,,,,,,,,,,,,,,,,,,,,,,,,,,,,,,,,,,,,,,,,,,,,,,,,,,,,,,,,,,,,,,,,,,,,,,,,,,,,,
,,,,,,601293860c66d92eec572b90,62c5398e58c7705bdcbb4b2c,2022-07-06_09h28.45.826,Colour_Asymmetry_Pilot,2022.1.3,Win32,59.96641881,62c50e9c1127f2cd403a315f,0,137,137,83,1,twofour,,,,,,,,,,,,,,,,,,,,,,,,,,,,,,,,,,,,,,,,,,,,,,,,,,,,,,,,,,,,,,,,,,,,,,,,,,,,,,,,,,,,,,,,,,,,,,,,,,,,,,,,,,,,,,,,,,,,,,,,,,,,,,,,,,,,,,,,,,,,,,,,,,,,,,,,,,,,,
,,,,,,601293860c66d92eec572b90,62c5398e58c7705bdcbb4b2c,2022-07-06_09h28.45.826,Colour_Asymmetry_Pilot,2022.1.3,Win32,59.96641881,62c50e9c1127f2cd403a315f,0,138,138,25,1,onethree,,,,,,,,,,,,,,,,,,,,,,,,,,,,,,,,,,,,,,,,,,,,,,,,,,,,,,,,,,,,,,,,,,,,,,,,,,,,,,,,,,,,,,,,,,,,,,,,,,,,,,,,,,,,,,,,,,,,,,,,,,,,,,,,,,,,,,,,,,,,,,,,,,,,,,,,,,,,,
,,,,,,601293860c66d92eec572b90,62c5398e58c7705bdcbb4b2c,2022-07-06_09h28.45.826,Colour_Asymmetry_Pilot,2022.1.3,Win32,59.96641881,62c50e9c1127f2cd403a315f,0,139,139,151,1,fourthree,,,,,,,,,,,,,,,,,,,,,,,,,,,,,,,,,,,,,,,,,,,,,,,,,,,,,,,,,,,,,,,,,,,,,,,,,,,,,,,,,,,,,,,,,,,,,,,,,,,,,,,,,,,,,,,,,,,,,,,,,,,,,,,,,,,,,,,,,,,,,,,,,,,,,,,,,,,,,
,,,,,,601293860c66d92eec572b90,62c5398e58c7705bdcbb4b2c,2022-07-06_09h28.45.826,Colour_Asymmetry_Pilot,2022.1.3,Win32,59.96641881,62c50e9c1127f2cd403a315f,0,140,140,40,1,onetwo,,,,,,,,,,,,,,,,,,,,,,,,,,,,,,,,,,,,,,,,,,,,,,,,,,,,,,,,,,,,,,,,,,,,,,,,,,,,,,,,,,,,,,,,,,,,,,,,,,,,,,,,,,,,,,,,,,,,,,,,,,,,,,,,,,,,,,,,,,,,,,,,,,,,,,,,,,,,,
,,,,,,601293860c66d92eec572b90,62c5398e58c7705bdcbb4b2c,2022-07-06_09h28.45.826,Colour_Asymmetry_Pilot,2022.1.3,Win32,59.96641881,62c50e9c1127f2cd403a315f,0,141,141,16,1,onetwo,,,,,,,,,,,,,,,,,,,,,,,,,,,,,,,,,,,,,,,,,,,,,,,,,,,,,,,,,,,,,,,,,,,,,,,,,,,,,,,,,,,,,,,,,,,,,,,,,,,,,,,,,,,,,,,,,,,,,,,,,,,,,,,,,,,,,,,,,,,,,,,,,,,,,,,,,,,,,
,,,,,,601293860c66d92eec572b90,62c5398e58c7705bdcbb4b2c,2022-07-06_09h28.45.826,Colour_Asymmetry_Pilot,2022.1.3,Win32,59.96641881,62c50e9c1127f2cd403a315f,0,142,142,75,1,twofour,,,,,,,,,,,,,,,,,,,,,,,,,,,,,,,,,,,,,,,,,,,,,,,,,,,,,,,,,,,,,,,,,,,,,,,,,,,,,,,,,,,,,,,,,,,,,,,,,,,,,,,,,,,,,,,,,,,,,,,,,,,,,,,,,,,,,,,,,,,,,,,,,,,,,,,,,,,,,
,,,,,,601293860c66d92eec572b90,62c5398e58c7705bdcbb4b2c,2022-07-06_09h28.45.826,Colour_Asymmetry_Pilot,2022.1.3,Win32,59.96641881,62c50e9c1127f2cd403a315f,0,143,143,72,1,onetwo,,,,,,,,,,,,,,,,,,,,,,,,,,,,,,,,,,,,,,,,,,,,,,,,,,,,,,,,,,,,,,,,,,,,,,,,,,,,,,,,,,,,,,,,,,,,,,,,,,,,,,,,,,,,,,,,,,,,,,,,,,,,,,,,,,,,,,,,,,,,,,,,,,,,,,,,,,,,,
,,,,,,601293860c66d92eec572b90,62c5398e58c7705bdcbb4b2c,2022-07-06_09h28.45.826,Colour_Asymmetry_Pilot,2022.1.3,Win32,59.96641881,62c50e9c1127f2cd403a315f,0,144,144,87,1,fourthree,,,,,,,,,,,,,,,,,,,,,,,,,,,,,,,,,,,,,,,,,,,,,,,,,,,,,,,,,,,,,,,,,,,,,,,,,,,,,,,,,,,,,,,,,,,,,,,,,,,,,,,,,,,,,,,,,,,,,,,,,,,,,,,,,,,,,,,,,,,,,,,,,,,,,,,,,,,,,
,,,,,,601293860c66d92eec572b90,62c5398e58c7705bdcbb4b2c,2022-07-06_09h28.45.826,Colour_Asymmetry_Pilot,2022.1.3,Win32,59.96641881,62c50e9c1127f2cd403a315f,0,145,145,45,1,threefour,,,,,,,,,,,,,,,,,,,,,,,,,,,,,,,,,,,,,,,,,,,,,,,,,,,,,,,,,,,,,,,,,,,,,,,,,,,,,,,,,,,,,,,,,,,,,,,,,,,,,,,,,,,,,,,,,,,,,,,,,,,,,,,,,,,,,,,,,,,,,,,,,,,,,,,,,,,,,
,,,,,,601293860c66d92eec572b90,62c5398e58c7705bdcbb4b2c,2022-07-06_09h28.45.826,Colour_Asymmetry_Pilot,2022.1.3,Win32,59.96641881,62c50e9c1127f2cd403a315f,0,146,146,123,1,twofour,,,,,,,,,,,,,,,,,,,,,,,,,,,,,,,,,,,,,,,,,,,,,,,,,,,,,,,,,,,,,,,,,,,,,,,,,,,,,,,,,,,,,,,,,,,,,,,,,,,,,,,,,,,,,,,,,,,,,,,,,,,,,,,,,,,,,,,,,,,,,,,,,,,,,,,,,,,,,
,,,,,,601293860c66d92eec572b90,62c5398e58c7705bdcbb4b2c,2022-07-06_09h28.45.826,Colour_Asymmetry_Pilot,2022.1.3,Win32,59.96641881,62c50e9c1127f2cd403a315f,0,147,147,62,1,fourtwo,,,,,,,,,,,,,,,,,,,,,,,,,,,,,,,,,,,,,,,,,,,,,,,,,,,,,,,,,,,,,,,,,,,,,,,,,,,,,,,,,,,,,,,,,,,,,,,,,,,,,,,,,,,,,,,,,,,,,,,,,,,,,,,,,,,,,,,,,,,,,,,,,,,,,,,,,,,,,
,,,,,,601293860c66d92eec572b90,62c5398e58c7705bdcbb4b2c,2022-07-06_09h28.45.826,Colour_Asymmetry_Pilot,2022.1.3,Win32,59.96641881,62c50e9c1127f2cd403a315f,0,148,148,92,1,threeone,,,,,,,,,,,,,,,,,,,,,,,,,,,,,,,,,,,,,,,,,,,,,,,,,,,,,,,,,,,,,,,,,,,,,,,,,,,,,,,,,,,,,,,,,,,,,,,,,,,,,,,,,,,,,,,,,,,,,,,,,,,,,,,,,,,,,,,,,,,,,,,,,,,,,,,,,,,,,
,,,,,,601293860c66d92eec572b90,62c5398e58c7705bdcbb4b2c,2022-07-06_09h28.45.826,Colour_Asymmetry_Pilot,2022.1.3,Win32,59.96641881,62c50e9c1127f2cd403a315f,0,149,149,142,1,fourtwo,,,,,,,,,,,,,,,,,,,,,,,,,,,,,,,,,,,,,,,,,,,,,,,,,,,,,,,,,,,,,,,,,,,,,,,,,,,,,,,,,,,,,,,,,,,,,,,,,,,,,,,,,,,,,,,,,,,,,,,,,,,,,,,,,,,,,,,,,,,,,,,,,,,,,,,,,,,,,
,,,,,,601293860c66d92eec572b90,62c5398e58c7705bdcbb4b2c,2022-07-06_09h28.45.826,Colour_Asymmetry_Pilot,2022.1.3,Win32,59.96641881,62c50e9c1127f2cd403a315f,0,150,150,78,1,fourtwo,,,,,,,,,,,,,,,,,,,,,,,,,,,,,,,,,,,,,,,,,,,,,,,,,,,,,,,,,,,,,,,,,,,,,,,,,,,,,,,,,,,,,,,,,,,,,,,,,,,,,,,,,,,,,,,,,,,,,,,,,,,,,,,,,,,,,,,,,,,,,,,,,,,,,,,,,,,,,
,,,,,,601293860c66d92eec572b90,62c5398e58c7705bdcbb4b2c,2022-07-06_09h28.45.826,Colour_Asymmetry_Pilot,2022.1.3,Win32,59.96641881,62c50e9c1127f2cd403a315f,0,151,151,59,1,twofour,,,,,,,,,,,,,,,,,,,,,,,,,,,,,,,,,,,,,,,,,,,,,,,,,,,,,,,,,,,,,,,,,,,,,,,,,,,,,,,,,,,,,,,,,,,,,,,,,,,,,,,,,,,,,,,,,,,,,,,,,,,,,,,,,,,,,,,,,,,,,,,,,,,,,,,,,,,,,
,,,,,,601293860c66d92eec572b90,62c5398e58c7705bdcbb4b2c,2022-07-06_09h28.45.826,Colour_Asymmetry_Pilot,2022.1.3,Win32,59.96641881,62c50e9c1127f2cd403a315f,0,152,152,131,1,twofour,,,,,,,,,,,,,,,,,,,,,,,,,,,,,,,,,,,,,,,,,,,,,,,,,,,,,,,,,,,,,,,,,,,,,,,,,,,,,,,,,,,,,,,,,,,,,,,,,,,,,,,,,,,,,,,,,,,,,,,,,,,,,,,,,,,,,,,,,,,,,,,,,,,,,,,,,,,,,
,,,,,,601293860c66d92eec572b90,62c5398e58c7705bdcbb4b2c,2022-07-06_09h28.45.826,Colour_Asymmetry_Pilot,2022.1.3,Win32,59.96641881,62c50e9c1127f2cd403a315f,0,153,153,116,1,threeone,,,,,,,,,,,,,,,,,,,,,,,,,,,,,,,,,,,,,,,,,,,,,,,,,,,,,,,,,,,,,,,,,,,,,,,,,,,,,,,,,,,,,,,,,,,,,,,,,,,,,,,,,,,,,,,,,,,,,,,,,,,,,,,,,,,,,,,,,,,,,,,,,,,,,,,,,,,,,
,,,,,,601293860c66d92eec572b90,62c5398e58c7705bdcbb4b2c,2022-07-06_09h28.45.826,Colour_Asymmetry_Pilot,2022.1.3,Win32,59.96641881,62c50e9c1127f2cd403a315f,0,154,154,12,1,threeone,,,,,,,,,,,,,,,,,,,,,,,,,,,,,,,,,,,,,,,,,,,,,,,,,,,,,,,,,,,,,,,,,,,,,,,,,,,,,,,,,,,,,,,,,,,,,,,,,,,,,,,,,,,,,,,,,,,,,,,,,,,,,,,,,,,,,,,,,,,,,,,,,,,,,,,,,,,,,
,,,,,,601293860c66d92eec572b90,62c5398e58c7705bdcbb4b2c,2022-07-06_09h28.45.826,Colour_Asymmetry_Pilot,2022.1.3,Win32,59.96641881,62c50e9c1127f2cd403a315f,0,155,155,141,1,threefour,,,,,,,,,,,,,,,,,,,,,,,,,,,,,,,,,,,,,,,,,,,,,,,,,,,,,,,,,,,,,,,,,,,,,,,,,,,,,,,,,,,,,,,,,,,,,,,,,,,,,,,,,,,,,,,,,,,,,,,,,,,,,,,,,,,,,,,,,,,,,,,,,,,,,,,,,,,,,
,,,,,,601293860c66d92eec572b90,62c5398e58c7705bdcbb4b2c,2022-07-06_09h28.45.826,Colour_Asymmetry_Pilot,2022.1.3,Win32,59.96641881,62c50e9c1127f2cd403a315f,0,156,156,134,1,fourtwo,,,,,,,,,,,,,,,,,,,,,,,,,,,,,,,,,,,,,,,,,,,,,,,,,,,,,,,,,,,,,,,,,,,,,,,,,,,,,,,,,,,,,,,,,,,,,,,,,,,,,,,,,,,,,,,,,,,,,,,,,,,,,,,,,,,,,,,,,,,,,,,,,,,,,,,,,,,,,
,,,,,,601293860c66d92eec572b90,62c5398e58c7705bdcbb4b2c,2022-07-06_09h28.45.826,Colour_Asymmetry_Pilot,2022.1.3,Win32,59.96641881,62c50e9c1127f2cd403a315f,0,157,157,29,1,threefour,,,,,,,,,,,,,,,,,,,,,,,,,,,,,,,,,,,,,,,,,,,,,,,,,,,,,,,,,,,,,,,,,,,,,,,,,,,,,,,,,,,,,,,,,,,,,,,,,,,,,,,,,,,,,,,,,,,,,,,,,,,,,,,,,,,,,,,,,,,,,,,,,,,,,,,,,,,,,
,,,,,,601293860c66d92eec572b90,62c5398e58c7705bdcbb4b2c,2022-07-06_09h28.45.826,Colour_Asymmetry_Pilot,2022.1.3,Win32,59.96641881,62c50e9c1127f2cd403a315f,0,158,158,122,1,twoone,,,,,,,,,,,,,,,,,,,,,,,,,,,,,,,,,,,,,,,,,,,,,,,,,,,,,,,,,,,,,,,,,,,,,,,,,,,,,,,,,,,,,,,,,,,,,,,,,,,,,,,,,,,,,,,,,,,,,,,,,,,,,,,,,,,,,,,,,,,,,,,,,,,,,,,,,,,,,
,,,,,,601293860c66d92eec572b90,62c5398e58c7705bdcbb4b2c,2022-07-06_09h28.45.826,Colour_Asymmetry_Pilot,2022.1.3,Win32,59.96641881,62c50e9c1127f2cd403a315f,0,159,159,127,1,fourthree,,,,,,,,,,,,,,,,,,,,,,,,,,,,,,,,,,,,,,,,,,,,,,,,,,,,,,,,,,,,,,,,,,,,,,,,,,,,,,,,,,,,,,,,,,,,,,,,,,,,,,,,,,,,,,,,,,,,,,,,,,,,,,,,,,,,,,,,,,,,,,,,,,,,,,,,,,,,,
,,,,,,601293860c66d92eec572b90,62c5398e58c7705bdcbb4b2c,2022-07-06_09h28.45.826,Colour_Asymmetry_Pilot,2022.1.3,Win32,59.96641881,62c50e9c1127f2cd403a315f,0,160,160,61,1,threefour,,,,,,,,,,,,,,,,,,,,,,,,,,,,,,,,,,,,,,,,,,,,,,,,,,,,,,,,,,,,,,,,,,,,,,,,,,,,,,,,,,,,,,,,,,,,,,,,,,,,,,,,,,,,,,,,,,,,,,,,,,,,,,,,,,,,,,,,,,,,,,,,,,,,,,,,,,,,,
,,,,,,601293860c66d92eec572b90,62c5398e58c7705bdcbb4b2c,2022-07-06_09h28.45.826,Colour_Asymmetry_Pilot,2022.1.3,Win32,59.96641881,62c50e9c1127f2cd403a315f,0,161,161,18,1,twoone,,,,,,,,,,,,,,,,,,,,,,,,,,,,,,,,,,,,,,,,,,,,,,,,,,,,,,,,,,,,,,,,,,,,,,,,,,,,,,,,,,,,,,,,,,,,,,,,,,,,,,,,,,,,,,,,,,,,,,,,,,,,,,,,,,,,,,,,,,,,,,,,,,,,,,,,,,,,,
,,,,,,601293860c66d92eec572b90,62c5398e58c7705bdcbb4b2c,2022-07-06_09h28.45.826,Colour_Asymmetry_Pilot,2022.1.3,Win32,59.96641881,62c50e9c1127f2cd403a315f,,,,,,,space,3.0798,space,16.5349,space,40.984,space,21.8922,space,10.2162,space,6.225,"[0.9763999999999999,0.8588,-0.05900000000000005]",fourthree,"[0.8115999999999999,-0.0040000000000000036,-0.09819999999999995]",-3,8.2064,-99.20001221,40,1,0,0,response7disk_5,-1.599975586,3.199981689,1,0,0,rectangle_8,-1.599975586,3.199981689,1,0,0,1,-1.599975586,3.199981689,1,0,0,0,0,0,0,1,,,,,,,,,,,,,,,,,,,,,,,,,,,,,,,,,,,,,,,,,,,,,,,,,,,,,,,,,,,,,,,,,,,,,,,,,,,,,,,,,,,,,,,,,,,,,,,,,,,,,,,,,,,,,,,,
,,,,,,601293860c66d92eec572b90,62c5398e58c7705bdcbb4b2c,2022-07-06_09h28.45.826,Colour_Asymmetry_Pilot,2022.1.3,Win32,59.96641881,62c50e9c1127f2cd403a315f,,,,,,,,,,,,,,,,,,,"[0.12939999999999996,-0.2864,0.3253999999999999]",twoone,"[0.9686000000000001,0.5763999999999998,0.11359999999999992]",-3,3.796,-84,44.79998779,1,0,0,response7disk_5,-10.39996338,-7.200012207,1,0,0,rectangle_8,-10.39996338,-7.200012207,1,0,0,1,-10.39996338,-7.200012207,1,0,0,1,0,1,0,1,,,,,,,,,,,,,,,,,,,,,,,,,,,,,,,,,,,,,,,,,,,,,,,,,,,,,,,,,,,,,,,,,,,,,,,,,,,,,,,,,,,,,,,,,,,,,,,,,,,,,,,,,,,,,,,,
,,,,,,601293860c66d92eec572b90,62c5398e58c7705bdcbb4b2c,2022-07-06_09h28.45.826,Colour_Asymmetry_Pilot,2022.1.3,Win32,59.96641881,62c50e9c1127f2cd403a315f,,,,,,,,,,,,,,,,,,,"[-0.01980000000000004,-0.5138,-0.38039999999999996]",onetwo,"[-0.9844,-0.9688,-0.9922]",1,3.5905,56,-75.20001221,1,0,0,response3disk_5,4,-5.600006104,1,0,0,rectangle_8,56,-104.7999878,1,0,0,1,10.40002441,-3.200012207,1,0,0,2,0,2,0,1,response3disk_7,4,rectangle_4,,,,,,,,,,,,,,,,,,,,,,,,,,,,,,,,,,,,,,,,,,,,,,,,,,,,,,,,,,,,,,,,,,,,,,,,,,,,,,,,,,,,,,,,,,,,,,,,,,,,,,,,,,,,,
,,,,,,601293860c66d92eec572b90,62c5398e58c7705bdcbb4b2c,2022-07-06_09h28.45.826,Colour_Asymmetry_Pilot,2022.1.3,Win32,59.96641881,62c50e9c1127f2cd403a315f,,,,,,,,,,,,,,,,,,,"[-0.17659999999999998,0.3253999999999999,0.19999999999999996]",fourtwo,"[0.12939999999999996,-0.2864,0.3253999999999999]",-2,2.1655,-92.79998779,-54.3999939,1,0,0,response5disk_5,0,-4,1,0,0,rectangle_8,54.40002441,-77.6000061,1,0,0,1,3.200012207,-4,1,0,0,3,0,3,0,1,response3disk_7,4,rectangle_4,,,,,,,,,,,,,,,,,,,,,,,,,,,,,,,,,,,,,,,,,,,,,,,,,,,,,,,,,,,,,,,,,,,,,,,,,,,,,,,,,,,,,,,,,,,,,,,,,,,,,,,,,,,,,
,,,,,,601293860c66d92eec572b90,62c5398e58c7705bdcbb4b2c,2022-07-06_09h28.45.826,Colour_Asymmetry_Pilot,2022.1.3,Win32,59.96641881,62c50e9c1127f2cd403a315f,,,,,,,,,,,,,,,,,,,"[0.09799999999999986,-0.24719999999999998,0.15280000000000005]",twoone,"[0.34099999999999997,0.5841999999999998,-0.9844]",-4,1.7822,-45.59997559,64.79998779,1,0,0,response7disk_5,4,-6.399993896,1,0,0,rectangle_8,4,-6.399993896,1,0,0,1,4,-6.399993896,1,0,0,4,0,4,0,1,,,,,,,,,,,,,,,,,,,,,,,,,,,,,,,,,,,,,,,,,,,,,,,,,,,,,,,,,,,,,,,,,,,,,,,,,,,,,,,,,,,,,,,,,,,,,,,,,,,,,,,,,,,,,,,,
,,,,,,601293860c66d92eec572b90,62c5398e58c7705bdcbb4b2c,2022-07-06_09h28.45.826,Colour_Asymmetry_Pilot,2022.1.3,Win32,59.96641881,62c50e9c1127f2cd403a315f,,,,,,,,,,,,,,,,,,,"[-0.9138,-0.5296000000000001,-0.5529999999999999]",onetwo,"[-0.26280000000000003,-0.4746,-0.2158]",1,1.8318,49.60003662,-86.40002441,1,0,0,response3disk_5,0.799987793,5.600006104,1,0,0,rectangle_8,0.799987793,5.600006104,1,0,0,1,0.799987793,5.600006104,1,0,0,5,0,5,0,1,,,,,,,,,,,,,,,,,,,,,,,,,,,,,,,,,,,,,,,,,,,,,,,,,,,,,,,,,,,,,,,,,,,,,,,,,,,,,,,,,,,,,,,,,,,,,,,,,,,,,,,,,,,,,,,,
,,,,,,601293860c66d92eec572b90,62c5398e58c7705bdcbb4b2c,2022-07-06_09h28.45.826,Colour_Asymmetry_Pilot,2022.1.3,Win32,59.96641881,62c50e9c1127f2cd403a315f,,,,,,,,,,,,,,,,,,,"[0.04299999999999993,0.16060000000000008,-0.6628000000000001]",fourthree,"[-0.6942,-0.7648,-0.12959999999999994]",-4,2.0172,-45.59997559,59.19998169,1,0,0,response7disk_5,-4.799987793,-10.3999939,1,0,0,rectangle_8,-4.799987793,-10.3999939,1,0,0,1,-4.799987793,-10.3999939,1,0,0,6,0,6,0,1,,,,,,,,,,,,,,,,,,,,,,,,,,,,,,,,,,,,,,,,,,,,,,,,,,,,,,,,,,,,,,,,,,,,,,,,,,,,,,,,,,,,,,,,,,,,,,,,,,,,,,,,,,,,,,,,
,,,,,,601293860c66d92eec572b90,62c5398e58c7705bdcbb4b2c,2022-07-06_09h28.45.826,Colour_Asymmetry_Pilot,2022.1.3,Win32,59.96641881,62c50e9c1127f2cd403a315f,,,,,,,,,,,,,,,,,,,,onetwo,,-4,3.0287,,,,,,,,,,,,,,,,,,,,,,,,,,,,,,,,space,6.0971,"[0.9372,0.9450000000000001,0.8980000000000001]","[-0.2942,-0.7648,-0.7492000000000001]",-78.39996338,83.19998169,1,0,0,response7disk,0,6.399993896,1,0,0,rectangle,0,6.399993896,1,0,0,,1,0.0043,0,0,6.399993896,1,0,0,0,0,0,77,1,77,first,,,,,,,,,,,,,,,,,,,,,,,,,,,,,,,,,,,,,,,,,,,,,,,,,,,,,,,,,,,,,,,,,,,,,,,,
,,,,,,601293860c66d92eec572b90,62c5398e58c7705bdcbb4b2c,2022-07-06_09h28.45.826,Colour_Asymmetry_Pilot,2022.1.3,Win32,59.96641881,62c50e9c1127f2cd403a315f,,,,,,,,,,,,,,,,,,,,threefour,,3,1.3811,,,,,,,,,,,,,,,,,,,,,,,,,,,,,,,,,,"[0.2784,-0.31000000000000005,-0.5452]","[-0.2942,-0.7648,-0.7492000000000001]",78.40002441,44,1,0,0,response1disk,22.40002441,0.799987793,1,0,0,rectangle,22.40002441,0.799987793,1,0,0,,2,0.0029,0,22.40002441,0.799987793,1,0,0,0,1,1,157,1,76,second,,,,,,,,,,,,,,,,,,,,,,,,,,,,,,,,,,,,,,,,,,,,,,,,,,,,,,,,,,,,,,,,,,,,,,,,
,,,,,,601293860c66d92eec572b90,62c5398e58c7705bdcbb4b2c,2022-07-06_09h28.45.826,Colour_Asymmetry_Pilot,2022.1.3,Win32,59.96641881,62c50e9c1127f2cd403a315f,,,,,,,,,,,,,,,,,,,,threeone,,3,1.7114,,,,,,,,,,,,,,,,,,,,,,,,,,,,,,,,,,"[-0.2942,-0.7648,-0.7492000000000001]","[0.2784,-0.31000000000000005,-0.5452]",78.40002441,48,1,0,0,response1disk,-3.200012207,-0.800018311,1,0,0,rectangle,74.40002441,-36.80001831,1,0,0,2,2,1.9164,1,-13.59997559,8,1,0,0,0,2,2,76,1,76,first,response3disk_3,rectangle,,,,,,,,,,,,,,,,,,,,,,,,,,,,,,,,,,,,,,,,,,,,,,,,,,,,,,,,,,,,,,,,,,,,,,
,,,,,,601293860c66d92eec572b90,62c5398e58c7705bdcbb4b2c,2022-07-06_09h28.45.826,Colour_Asymmetry_Pilot,2022.1.3,Win32,59.96641881,62c50e9c1127f2cd403a315f,,,,,,,,,,,,,,,,,,,,onethree,,2,2.4656,,,,,,,,,,,,,,,,,,,,,,,,,,,,,,,,,,"[-0.4668,-0.8746,-0.2942]","[-0.2942,-0.7648,-0.7492000000000001]",100.7999878,-68.80001831,1,0,0,response3disk,-6.399963379,-0.800018311,1,0,0,rectangle,-6.399963379,-0.800018311,1,0,0,2,1,0.0016,0,-6.399963379,-0.800018311,1,0,0,0,3,3,20,1,20,first,,,,,,,,,,,,,,,,,,,,,,,,,,,,,,,,,,,,,,,,,,,,,,,,,,,,,,,,,,,,,,,,,,,,,,,,
,,,,,,601293860c66d92eec572b90,62c5398e58c7705bdcbb4b2c,2022-07-06_09h28.45.826,Colour_Asymmetry_Pilot,2022.1.3,Win32,59.96641881,62c50e9c1127f2cd403a315f,,,,,,,,,,,,,,,,,,,,twofour,,3,5.0947,,,,,,,,,,,,,,,,,,,,,,,,,,,,,,,,,,"[0.2784,-0.31000000000000005,-0.5452]","[0.30180000000000007,-0.7884,-0.9844]",102.4000244,69.6000061,1,0,0,response1disk,-3.200012207,4.799987793,1,0,0,rectangle,-3.200012207,4.799987793,1,0,0,2,2,0.002,0,-3.200012207,4.799987793,1,0,0,0,4,4,127,1,46,second,,,,,,,,,,,,,,,,,,,,,,,,,,,,,,,,,,,,,,,,,,,,,,,,,,,,,,,,,,,,,,,,,,,,,,,,
,,,,,,601293860c66d92eec572b90,62c5398e58c7705bdcbb4b2c,2022-07-06_09h28.45.826,Colour_Asymmetry_Pilot,2022.1.3,Win32,59.96641881,62c50e9c1127f2cd403a315f,,,,,,,,,,,,,,,,,,,,fourtwo,,3,1.4761,,,,,,,,,,,,,,,,,,,,,,,,,,,,,,,,,,"[0.11359999999999992,0.6312,0.5213999999999999]","[0.7018,0.7176,0.6155999999999999]",82.40002441,50.3999939,1,0,0,response1disk,-11.20001221,13.6000061,1,0,0,rectangle,91.20001221,42.3999939,1,0,0,3,3,1.5945,1,-19.20001221,4,1,0,0,0,5,5,159,1,78,second,response1disk_3,rectangle,,,,,,,,,,,,,,,,,,,,,,,,,,,,,,,,,,,,,,,,,,,,,,,,,,,,,,,,,,,,,,,,,,,,,,
,,,,,,601293860c66d92eec572b90,62c5398e58c7705bdcbb4b2c,2022-07-06_09h28.45.826,Colour_Asymmetry_Pilot,2022.1.3,Win32,59.96641881,62c50e9c1127f2cd403a315f,,,,,,,,,,,,,,,,,,,,fourtwo,,2,2.7961,,,,,,,,,,,,,,,,,,,,,,,,,,,,,,,,,,"[-0.9688,-0.4902000000000001,-0.12159999999999993]","[-0.30200000000000005,0.14500000000000002,0.2784]",113.6000366,-40,1,0,0,response3disk,-15.20001221,-4,1,0,0,rectangle,-15.20001221,-4,1,0,0,3,1,0.0023,0,-15.20001221,-4,1,0,0,0,6,6,13,1,13,first,,,,,,,,,,,,,,,,,,,,,,,,,,,,,,,,,,,,,,,,,,,,,,,,,,,,,,,,,,,,,,,,,,,,,,,,
,,,,,,601293860c66d92eec572b90,62c5398e58c7705bdcbb4b2c,2022-07-06_09h28.45.826,Colour_Asymmetry_Pilot,2022.1.3,Win32,59.96641881,62c50e9c1127f2cd403a315f,,,,,,,,,,,,,,,,,,,,onethree,,2,2.3042,,,,,,,,,,,,,,,,,,,,,,,,,,,,,,,,,,"[-0.011800000000000033,-0.906,-0.45100000000000007]","[0.5449999999999999,-0.31000000000000005,-0.0354000000000001]",72,-45.6000061,1,0,0,response3disk,-8.799987793,1.600006104,1,0,0,rectangle,-8.799987793,1.600006104,1,0,0,3,2,0.0031,0,-8.799987793,1.600006104,1,0,0,0,7,7,21,1,21,first,,,,,,,,,,,,,,,,,,,,,,,,,,,,,,,,,,,,,,,,,,,,,,,,,,,,,,,,,,,,,,,,,,,,,,,,
,,,,,,601293860c66d92eec572b90,62c5398e58c7705bdcbb4b2c,2022-07-06_09h28.45.826,Colour_Asymmetry_Pilot,2022.1.3,Win32,59.96641881,62c50e9c1127f2cd403a315f,,,,,,,,,,,,,,,,,,,,twoone,,-2,1.1144,,,,,,,,,,,,,,,,,,,,,,,,,,,,,,,,,,"[0.9372,0.9450000000000001,0.8980000000000001]","[-0.24719999999999998,-0.0354000000000001,0.3175999999999999]",-88.79998779,-30.3999939,1,0,0,response5disk,-11.20001221,-15.20001221,1,0,0,rectangle,-11.20001221,-15.20001221,1,0,0,3,2,0.0002,0,-11.20001221,-15.20001221,1,0,0,0,8,8,154,1,73,second,,,,,,,,,,,,,,,,,,,,,,,,,,,,,,,,,,,,,,,,,,,,,,,,,,,,,,,,,,,,,,,,,,,,,,,,
,,,,,,601293860c66d92eec572b90,62c5398e58c7705bdcbb4b2c,2022-07-06_09h28.45.826,Colour_Asymmetry_Pilot,2022.1.3,Win32,59.96641881,62c50e9c1127f2cd403a315f,,,,,,,,,,,,,,,,,,,,twofour,,-3,3.6501,,,,,,,,,,,,,,,,,,,,,,,,,,,,,,,,,,"[0.9372,0.20779999999999998,0.2704]","[0.9763999999999999,0.8588,-0.05900000000000005]",-81.59997559,34.3999939,1,0,0,response7disk,24.79998779,-0.800018311,1,0,0,rectangle,24.79998779,-0.800018311,1,0,0,3,3,0.0024,0,24.79998779,-0.800018311,1,0,0,0,9,9,15,1,15,first,,,,,,,,,,,,,,,,,,,,,,,,,,,,,,,,,,,,,,,,,,,,,,,,,,,,,,,,,,,,,,,,,,,,,,,,
,,,,,,601293860c66d92eec572b90,62c5398e58c7705bdcbb4b2c,2022-07-06_09h28.45.826,Colour_Asymmetry_Pilot,2022.1.3,Win32,59.96641881,62c50e9c1127f2cd403a315f,,,,,,,,,,,,,,,,,,,,twofour,,4,1.5654,,,,,,,,,,,,,,,,,,,,,,,,,,,,,,,,,,"[1,0.12939999999999996,-1]","[1,0.12939999999999996,-1]",55.20001221,81.6000061,1,0,0,response1disk,-5.599975586,1.600006104,1,0,0,rectangle,-5.599975586,1.600006104,1,0,0,3,1,0.0024,0,-5.599975586,1.600006104,1,0,0,0,10,10,107,1,26,second,,,,,,,,,,,,,,,,,,,,,,,,,,,,,,,,,,,,,,,,,,,,,,,,,,,,,,,,,,,,,,,,,,,,,,,,
,,,,,,601293860c66d92eec572b90,62c5398e58c7705bdcbb4b2c,2022-07-06_09h28.45.826,Colour_Asymmetry_Pilot,2022.1.3,Win32,59.96641881,62c50e9c1127f2cd403a315f,,,,,,,,,,,,,,,,,,,,fourthree,,-3,1.9177,,,,,,,,,,,,,,,,,,,,,,,,,,,,,,,,,,"[0.2784,-0.31000000000000005,-0.5452]","[-0.24719999999999998,-0.0354000000000001,0.3175999999999999]",-116,32,1,0,0,response7disk,0.799987793,-2.399993896,1,0,0,rectangle,0.799987793,-2.399993896,1,0,0,3,1,0.0008,0,0.799987793,-2.399993896,1,0,0,0,11,11,19,1,19,first,,,,,,,,,,,,,,,,,,,,,,,,,,,,,,,,,,,,,,,,,,,,,,,,,,,,,,,,,,,,,,,,,,,,,,,,
,,,,,,601293860c66d92eec572b90,62c5398e58c7705bdcbb4b2c,2022-07-06_09h28.45.826,Colour_Asymmetry_Pilot,2022.1.3,Win32,59.96641881,62c50e9c1127f2cd403a315f,,,,,,,,,,,,,,,,,,,,twoone,,-3,0.6668,,,,,,,,,,,,,,,,,,,,,,,,,,,,,,,,,,"[-0.2942,-0.7648,-0.7492000000000001]","[0.37240000000000006,0.4980000000000002,-0.2864]",-87.20001221,34.3999939,1,0,0,response7disk,-14.39996338,6.399993896,1,0,0,rectangle,-14.39996338,6.399993896,1,0,0,3,3,0.0019,0,-14.39996338,6.399993896,1,0,0,0,12,12,67,1,67,first,,,,,,,,,,,,,,,,,,,,,,,,,,,,,,,,,,,,,,,,,,,,,,,,,,,,,,,,,,,,,,,,,,,,,,,,
,,,,,,601293860c66d92eec572b90,62c5398e58c7705bdcbb4b2c,2022-07-06_09h28.45.826,Colour_Asymmetry_Pilot,2022.1.3,Win32,59.96641881,62c50e9c1127f2cd403a315f,,,,,,,,,,,,,,,,,,,,onethree,,1,0.9263,,,,,,,,,,,,,,,,,,,,,,,,,,,,,,,,,,"[-0.26280000000000003,-0.2158,-0.3256]","[-0.9688,-0.38039999999999996,-0.41979999999999995]",29.60003662,-55.20001221,1,0,0,response3disk,-14.39996338,-6.399993896,1,0,0,rectangle,-14.39996338,-6.399993896,1,0,0,3,1,0.0015,0,-14.39996338,-6.399993896,1,0,0,0,13,13,128,1,47,second,,,,,,,,,,,,,,,,,,,,,,,,,,,,,,,,,,,,,,,,,,,,,,,,,,,,,,,,,,,,,,,,,,,,,,,,
,,,,,,601293860c66d92eec572b90,62c5398e58c7705bdcbb4b2c,2022-07-06_09h28.45.826,Colour_Asymmetry_Pilot,2022.1.3,Win32,59.96641881,62c50e9c1127f2cd403a315f,,,,,,,,,,,,,,,,,,,,threefour,,-3,1.167,,,,,,,,,,,,,,,,,,,,,,,,,,,,,,,,,,"[-0.24719999999999998,0.5213999999999999,-0.12959999999999994]","[0.09799999999999986,-0.24719999999999998,0.15280000000000005]",-110.3999634,28,1,0,0,response7disk,15.20001221,0,1,0,0,rectangle,15.20001221,0,1,0,0,3,3,0.0019,0,15.20001221,0,1,0,0,0,14,14,116,1,35,second,,,,,,,,,,,,,,,,,,,,,,,,,,,,,,,,,,,,,,,,,,,,,,,,,,,,,,,,,,,,,,,,,,,,,,,,
