trials.thisRepN,trials.thisTrialN,trials.thisN,trials.thisIndex,trials.ran,Colourcodes,participant,session,date,expName,psychopyVersion,OS,frameRate,study_id,trials_4.thisRepN,trials_4.thisTrialN,trials_4.thisN,trials_4.thisIndex,trials_4.ran,StimulusPos,key_resp.keys,key_resp.rt,key_resp_2.keys,key_resp_2.rt,key_resp_15.keys,key_resp_15.rt,key_resp_17.keys,key_resp_17.rt,key_resp_9.keys,key_resp_9.rt,key_resp_10.keys,key_resp_10.rt,Circle1_col,Ecc,Circle2_col,similarity,response_time,mouse_5.x,mouse_5.y,mouse_5.leftButton,mouse_5.midButton,mouse_5.rightButton,mouse_5.clicked_name,mouse_10.x,mouse_10.y,mouse_10.leftButton,mouse_10.midButton,mouse_10.rightButton,mouse_10.clicked_name,mouse_7.x,mouse_7.y,mouse_7.leftButton,mouse_7.midButton,mouse_7.rightButton,catchnumberprac,mouse_6.x,mouse_6.y,mouse_6.leftButton,mouse_6.midButton,mouse_6.rightButton,duringprac.thisRepN,duringprac.thisTrialN,duringprac.thisN,duringprac.thisIndex,duringprac.ran,mouse_7.clicked_name,catchprac,mouse_6.clicked_name,key_resp_22.keys,key_resp_22.rt,Circle1_colour,Circle2_colour,mouse.x,mouse.y,mouse.leftButton,mouse.midButton,mouse.rightButton,mouse.clicked_name,mouse_2.x,mouse_2.y,mouse_2.leftButton,mouse_2.midButton,mouse_2.rightButton,mouse_2.clicked_name,mouse_3.x,mouse_3.y,mouse_3.leftButton,mouse_3.midButton,mouse_3.rightButton,catchresponse,catchnumber,response_time_catch,Catch,mouse_11.x,mouse_11.y,mouse_11.leftButton,mouse_11.midButton,mouse_11.rightButton,trials_2.thisRepN,trials_2.thisTrialN,trials_2.thisN,trials_2.thisIndex,trials_2.ran,Colourpair,Temporder,mouse_3.clicked_name,mouse_11.clicked_name,trials_3.thisRepN,trials_3.thisTrialN,trials_3.thisN,trials_3.thisIndex,trials_3.ran,key_resp_instr_Ishi.keys,key_resp_instr_Ishi.rt,Ishi_trial_keyresp.keys,Ishi_textbox.text,Ishi_mouse.x,Ishi_mouse.y,Ishi_mouse.leftButton,Ishi_mouse.midButton,Ishi_mouse.rightButton,Ishi_mouse.clicked_name,Ishi_loop.thisRepN,Ishi_loop.thisTrialN,Ishi_loop.thisN,Ishi_loop.thisIndex,Ishi_loop.ran,imageaddress,textbox.text,mouse_4.x,mouse_4.y,mouse_4.leftButton,mouse_4.midButton,mouse_4.rightButton,mouse_4.clicked_name,textbox_2.text,mouse_8.x,mouse_8.y,mouse_8.leftButton,mouse_8.midButton,mouse_8.rightButton,mouse_8.clicked_name,textbox_3.text,mouse_9.x,mouse_9.y,mouse_9.leftButton,mouse_9.midButton,mouse_9.rightButton,mouse_9.clicked_name,textbox_4.text,mouse_12.x,mouse_12.y,mouse_12.leftButton,mouse_12.midButton,mouse_12.rightButton,mouse_12.clicked_name,textbox_5.text,mouse_13.x,mouse_13.y,mouse_13.leftButton,mouse_13.midButton,mouse_13.rightButton,mouse_13.clicked_name,textbox_6.text,mouse_14.x,mouse_14.y,mouse_14.leftButton,mouse_14.midButton,mouse_14.rightButton,mouse_14.clicked_name,textbox_7.text,mouse_15.x,mouse_15.y,mouse_15.leftButton,mouse_15.midButton,mouse_15.rightButton,mouse_15.clicked_name
0,0,0,21,1,,5fe23f65878eaadb5e2c8ba1,62c53a85deca570d4abc80d5,2022-07-06_09h34.28.387,Colour_Asymmetry_Pilot,2022.1.3,Win32,60.15037594,62c50e9c1127f2cd403a315f,,,,,,,,,,,,,,,,,,,,,,,,,,,,,,,,,,,,,,,,,,,,,,,,,,,,,,,,,,,,,,,,,,,,,,,,,,,,,,,,,,,,,,,,,,,,,,,,,,,,,,,,,,,,,,,,,,,,,,,,,,,,,,,,,,,,,,,,,,,,,,,,,,,,,,,,,,,,,,,,,,,
0,1,1,88,1,,5fe23f65878eaadb5e2c8ba1,62c53a85deca570d4abc80d5,2022-07-06_09h34.28.387,Colour_Asymmetry_Pilot,2022.1.3,Win32,60.15037594,62c50e9c1127f2cd403a315f,,,,,,,,,,,,,,,,,,,,,,,,,,,,,,,,,,,,,,,,,,,,,,,,,,,,,,,,,,,,,,,,,,,,,,,,,,,,,,,,,,,,,,,,,,,,,,,,,,,,,,,,,,,,,,,,,,,,,,,,,,,,,,,,,,,,,,,,,,,,,,,,,,,,,,,,,,,,,,,,,,,
0,2,2,86,1,,5fe23f65878eaadb5e2c8ba1,62c53a85deca570d4abc80d5,2022-07-06_09h34.28.387,Colour_Asymmetry_Pilot,2022.1.3,Win32,60.15037594,62c50e9c1127f2cd403a315f,,,,,,,,,,,,,,,,,,,,,,,,,,,,,,,,,,,,,,,,,,,,,,,,,,,,,,,,,,,,,,,,,,,,,,,,,,,,,,,,,,,,,,,,,,,,,,,,,,,,,,,,,,,,,,,,,,,,,,,,,,,,,,,,,,,,,,,,,,,,,,,,,,,,,,,,,,,,,,,,,,,
0,3,3,17,1,,5fe23f65878eaadb5e2c8ba1,62c53a85deca570d4abc80d5,2022-07-06_09h34.28.387,Colour_Asymmetry_Pilot,2022.1.3,Win32,60.15037594,62c50e9c1127f2cd403a315f,,,,,,,,,,,,,,,,,,,,,,,,,,,,,,,,,,,,,,,,,,,,,,,,,,,,,,,,,,,,,,,,,,,,,,,,,,,,,,,,,,,,,,,,,,,,,,,,,,,,,,,,,,,,,,,,,,,,,,,,,,,,,,,,,,,,,,,,,,,,,,,,,,,,,,,,,,,,,,,,,,,
0,4,4,15,1,,5fe23f65878eaadb5e2c8ba1,62c53a85deca570d4abc80d5,2022-07-06_09h34.28.387,Colour_Asymmetry_Pilot,2022.1.3,Win32,60.15037594,62c50e9c1127f2cd403a315f,,,,,,,,,,,,,,,,,,,,,,,,,,,,,,,,,,,,,,,,,,,,,,,,,,,,,,,,,,,,,,,,,,,,,,,,,,,,,,,,,,,,,,,,,,,,,,,,,,,,,,,,,,,,,,,,,,,,,,,,,,,,,,,,,,,,,,,,,,,,,,,,,,,,,,,,,,,,,,,,,,,
0,5,5,76,1,,5fe23f65878eaadb5e2c8ba1,62c53a85deca570d4abc80d5,2022-07-06_09h34.28.387,Colour_Asymmetry_Pilot,2022.1.3,Win32,60.15037594,62c50e9c1127f2cd403a315f,,,,,,,,,,,,,,,,,,,,,,,,,,,,,,,,,,,,,,,,,,,,,,,,,,,,,,,,,,,,,,,,,,,,,,,,,,,,,,,,,,,,,,,,,,,,,,,,,,,,,,,,,,,,,,,,,,,,,,,,,,,,,,,,,,,,,,,,,,,,,,,,,,,,,,,,,,,,,,,,,,,
0,6,6,71,1,,5fe23f65878eaadb5e2c8ba1,62c53a85deca570d4abc80d5,2022-07-06_09h34.28.387,Colour_Asymmetry_Pilot,2022.1.3,Win32,60.15037594,62c50e9c1127f2cd403a315f,,,,,,,,,,,,,,,,,,,,,,,,,,,,,,,,,,,,,,,,,,,,,,,,,,,,,,,,,,,,,,,,,,,,,,,,,,,,,,,,,,,,,,,,,,,,,,,,,,,,,,,,,,,,,,,,,,,,,,,,,,,,,,,,,,,,,,,,,,,,,,,,,,,,,,,,,,,,,,,,,,,
0,7,7,51,1,,5fe23f65878eaadb5e2c8ba1,62c53a85deca570d4abc80d5,2022-07-06_09h34.28.387,Colour_Asymmetry_Pilot,2022.1.3,Win32,60.15037594,62c50e9c1127f2cd403a315f,,,,,,,,,,,,,,,,,,,,,,,,,,,,,,,,,,,,,,,,,,,,,,,,,,,,,,,,,,,,,,,,,,,,,,,,,,,,,,,,,,,,,,,,,,,,,,,,,,,,,,,,,,,,,,,,,,,,,,,,,,,,,,,,,,,,,,,,,,,,,,,,,,,,,,,,,,,,,,,,,,,
0,8,8,27,1,,5fe23f65878eaadb5e2c8ba1,62c53a85deca570d4abc80d5,2022-07-06_09h34.28.387,Colour_Asymmetry_Pilot,2022.1.3,Win32,60.15037594,62c50e9c1127f2cd403a315f,,,,,,,,,,,,,,,,,,,,,,,,,,,,,,,,,,,,,,,,,,,,,,,,,,,,,,,,,,,,,,,,,,,,,,,,,,,,,,,,,,,,,,,,,,,,,,,,,,,,,,,,,,,,,,,,,,,,,,,,,,,,,,,,,,,,,,,,,,,,,,,,,,,,,,,,,,,,,,,,,,,
0,9,9,64,1,,5fe23f65878eaadb5e2c8ba1,62c53a85deca570d4abc80d5,2022-07-06_09h34.28.387,Colour_Asymmetry_Pilot,2022.1.3,Win32,60.15037594,62c50e9c1127f2cd403a315f,,,,,,,,,,,,,,,,,,,,,,,,,,,,,,,,,,,,,,,,,,,,,,,,,,,,,,,,,,,,,,,,,,,,,,,,,,,,,,,,,,,,,,,,,,,,,,,,,,,,,,,,,,,,,,,,,,,,,,,,,,,,,,,,,,,,,,,,,,,,,,,,,,,,,,,,,,,,,,,,,,,
0,10,10,49,1,,5fe23f65878eaadb5e2c8ba1,62c53a85deca570d4abc80d5,2022-07-06_09h34.28.387,Colour_Asymmetry_Pilot,2022.1.3,Win32,60.15037594,62c50e9c1127f2cd403a315f,,,,,,,,,,,,,,,,,,,,,,,,,,,,,,,,,,,,,,,,,,,,,,,,,,,,,,,,,,,,,,,,,,,,,,,,,,,,,,,,,,,,,,,,,,,,,,,,,,,,,,,,,,,,,,,,,,,,,,,,,,,,,,,,,,,,,,,,,,,,,,,,,,,,,,,,,,,,,,,,,,,
0,11,11,47,1,,5fe23f65878eaadb5e2c8ba1,62c53a85deca570d4abc80d5,2022-07-06_09h34.28.387,Colour_Asymmetry_Pilot,2022.1.3,Win32,60.15037594,62c50e9c1127f2cd403a315f,,,,,,,,,,,,,,,,,,,,,,,,,,,,,,,,,,,,,,,,,,,,,,,,,,,,,,,,,,,,,,,,,,,,,,,,,,,,,,,,,,,,,,,,,,,,,,,,,,,,,,,,,,,,,,,,,,,,,,,,,,,,,,,,,,,,,,,,,,,,,,,,,,,,,,,,,,,,,,,,,,,
0,12,12,48,1,,5fe23f65878eaadb5e2c8ba1,62c53a85deca570d4abc80d5,2022-07-06_09h34.28.387,Colour_Asymmetry_Pilot,2022.1.3,Win32,60.15037594,62c50e9c1127f2cd403a315f,,,,,,,,,,,,,,,,,,,,,,,,,,,,,,,,,,,,,,,,,,,,,,,,,,,,,,,,,,,,,,,,,,,,,,,,,,,,,,,,,,,,,,,,,,,,,,,,,,,,,,,,,,,,,,,,,,,,,,,,,,,,,,,,,,,,,,,,,,,,,,,,,,,,,,,,,,,,,,,,,,,
0,13,13,9,1,,5fe23f65878eaadb5e2c8ba1,62c53a85deca570d4abc80d5,2022-07-06_09h34.28.387,Colour_Asymmetry_Pilot,2022.1.3,Win32,60.15037594,62c50e9c1127f2cd403a315f,,,,,,,,,,,,,,,,,,,,,,,,,,,,,,,,,,,,,,,,,,,,,,,,,,,,,,,,,,,,,,,,,,,,,,,,,,,,,,,,,,,,,,,,,,,,,,,,,,,,,,,,,,,,,,,,,,,,,,,,,,,,,,,,,,,,,,,,,,,,,,,,,,,,,,,,,,,,,,,,,,,
0,14,14,66,1,,5fe23f65878eaadb5e2c8ba1,62c53a85deca570d4abc80d5,2022-07-06_09h34.28.387,Colour_Asymmetry_Pilot,2022.1.3,Win32,60.15037594,62c50e9c1127f2cd403a315f,,,,,,,,,,,,,,,,,,,,,,,,,,,,,,,,,,,,,,,,,,,,,,,,,,,,,,,,,,,,,,,,,,,,,,,,,,,,,,,,,,,,,,,,,,,,,,,,,,,,,,,,,,,,,,,,,,,,,,,,,,,,,,,,,,,,,,,,,,,,,,,,,,,,,,,,,,,,,,,,,,,
0,15,15,23,1,,5fe23f65878eaadb5e2c8ba1,62c53a85deca570d4abc80d5,2022-07-06_09h34.28.387,Colour_Asymmetry_Pilot,2022.1.3,Win32,60.15037594,62c50e9c1127f2cd403a315f,,,,,,,,,,,,,,,,,,,,,,,,,,,,,,,,,,,,,,,,,,,,,,,,,,,,,,,,,,,,,,,,,,,,,,,,,,,,,,,,,,,,,,,,,,,,,,,,,,,,,,,,,,,,,,,,,,,,,,,,,,,,,,,,,,,,,,,,,,,,,,,,,,,,,,,,,,,,,,,,,,,
0,16,16,87,1,,5fe23f65878eaadb5e2c8ba1,62c53a85deca570d4abc80d5,2022-07-06_09h34.28.387,Colour_Asymmetry_Pilot,2022.1.3,Win32,60.15037594,62c50e9c1127f2cd403a315f,,,,,,,,,,,,,,,,,,,,,,,,,,,,,,,,,,,,,,,,,,,,,,,,,,,,,,,,,,,,,,,,,,,,,,,,,,,,,,,,,,,,,,,,,,,,,,,,,,,,,,,,,,,,,,,,,,,,,,,,,,,,,,,,,,,,,,,,,,,,,,,,,,,,,,,,,,,,,,,,,,,
0,17,17,12,1,,5fe23f65878eaadb5e2c8ba1,62c53a85deca570d4abc80d5,2022-07-06_09h34.28.387,Colour_Asymmetry_Pilot,2022.1.3,Win32,60.15037594,62c50e9c1127f2cd403a315f,,,,,,,,,,,,,,,,,,,,,,,,,,,,,,,,,,,,,,,,,,,,,,,,,,,,,,,,,,,,,,,,,,,,,,,,,,,,,,,,,,,,,,,,,,,,,,,,,,,,,,,,,,,,,,,,,,,,,,,,,,,,,,,,,,,,,,,,,,,,,,,,,,,,,,,,,,,,,,,,,,,
0,18,18,38,1,,5fe23f65878eaadb5e2c8ba1,62c53a85deca570d4abc80d5,2022-07-06_09h34.28.387,Colour_Asymmetry_Pilot,2022.1.3,Win32,60.15037594,62c50e9c1127f2cd403a315f,,,,,,,,,,,,,,,,,,,,,,,,,,,,,,,,,,,,,,,,,,,,,,,,,,,,,,,,,,,,,,,,,,,,,,,,,,,,,,,,,,,,,,,,,,,,,,,,,,,,,,,,,,,,,,,,,,,,,,,,,,,,,,,,,,,,,,,,,,,,,,,,,,,,,,,,,,,,,,,,,,,
0,19,19,29,1,,5fe23f65878eaadb5e2c8ba1,62c53a85deca570d4abc80d5,2022-07-06_09h34.28.387,Colour_Asymmetry_Pilot,2022.1.3,Win32,60.15037594,62c50e9c1127f2cd403a315f,,,,,,,,,,,,,,,,,,,,,,,,,,,,,,,,,,,,,,,,,,,,,,,,,,,,,,,,,,,,,,,,,,,,,,,,,,,,,,,,,,,,,,,,,,,,,,,,,,,,,,,,,,,,,,,,,,,,,,,,,,,,,,,,,,,,,,,,,,,,,,,,,,,,,,,,,,,,,,,,,,,
0,20,20,2,1,,5fe23f65878eaadb5e2c8ba1,62c53a85deca570d4abc80d5,2022-07-06_09h34.28.387,Colour_Asymmetry_Pilot,2022.1.3,Win32,60.15037594,62c50e9c1127f2cd403a315f,,,,,,,,,,,,,,,,,,,,,,,,,,,,,,,,,,,,,,,,,,,,,,,,,,,,,,,,,,,,,,,,,,,,,,,,,,,,,,,,,,,,,,,,,,,,,,,,,,,,,,,,,,,,,,,,,,,,,,,,,,,,,,,,,,,,,,,,,,,,,,,,,,,,,,,,,,,,,,,,,,,
0,21,21,30,1,,5fe23f65878eaadb5e2c8ba1,62c53a85deca570d4abc80d5,2022-07-06_09h34.28.387,Colour_Asymmetry_Pilot,2022.1.3,Win32,60.15037594,62c50e9c1127f2cd403a315f,,,,,,,,,,,,,,,,,,,,,,,,,,,,,,,,,,,,,,,,,,,,,,,,,,,,,,,,,,,,,,,,,,,,,,,,,,,,,,,,,,,,,,,,,,,,,,,,,,,,,,,,,,,,,,,,,,,,,,,,,,,,,,,,,,,,,,,,,,,,,,,,,,,,,,,,,,,,,,,,,,,
0,22,22,79,1,,5fe23f65878eaadb5e2c8ba1,62c53a85deca570d4abc80d5,2022-07-06_09h34.28.387,Colour_Asymmetry_Pilot,2022.1.3,Win32,60.15037594,62c50e9c1127f2cd403a315f,,,,,,,,,,,,,,,,,,,,,,,,,,,,,,,,,,,,,,,,,,,,,,,,,,,,,,,,,,,,,,,,,,,,,,,,,,,,,,,,,,,,,,,,,,,,,,,,,,,,,,,,,,,,,,,,,,,,,,,,,,,,,,,,,,,,,,,,,,,,,,,,,,,,,,,,,,,,,,,,,,,
0,23,23,24,1,,5fe23f65878eaadb5e2c8ba1,62c53a85deca570d4abc80d5,2022-07-06_09h34.28.387,Colour_Asymmetry_Pilot,2022.1.3,Win32,60.15037594,62c50e9c1127f2cd403a315f,,,,,,,,,,,,,,,,,,,,,,,,,,,,,,,,,,,,,,,,,,,,,,,,,,,,,,,,,,,,,,,,,,,,,,,,,,,,,,,,,,,,,,,,,,,,,,,,,,,,,,,,,,,,,,,,,,,,,,,,,,,,,,,,,,,,,,,,,,,,,,,,,,,,,,,,,,,,,,,,,,,
0,24,24,10,1,,5fe23f65878eaadb5e2c8ba1,62c53a85deca570d4abc80d5,2022-07-06_09h34.28.387,Colour_Asymmetry_Pilot,2022.1.3,Win32,60.15037594,62c50e9c1127f2cd403a315f,,,,,,,,,,,,,,,,,,,,,,,,,,,,,,,,,,,,,,,,,,,,,,,,,,,,,,,,,,,,,,,,,,,,,,,,,,,,,,,,,,,,,,,,,,,,,,,,,,,,,,,,,,,,,,,,,,,,,,,,,,,,,,,,,,,,,,,,,,,,,,,,,,,,,,,,,,,,,,,,,,,
0,25,25,16,1,,5fe23f65878eaadb5e2c8ba1,62c53a85deca570d4abc80d5,2022-07-06_09h34.28.387,Colour_Asymmetry_Pilot,2022.1.3,Win32,60.15037594,62c50e9c1127f2cd403a315f,,,,,,,,,,,,,,,,,,,,,,,,,,,,,,,,,,,,,,,,,,,,,,,,,,,,,,,,,,,,,,,,,,,,,,,,,,,,,,,,,,,,,,,,,,,,,,,,,,,,,,,,,,,,,,,,,,,,,,,,,,,,,,,,,,,,,,,,,,,,,,,,,,,,,,,,,,,,,,,,,,,
0,26,26,40,1,,5fe23f65878eaadb5e2c8ba1,62c53a85deca570d4abc80d5,2022-07-06_09h34.28.387,Colour_Asymmetry_Pilot,2022.1.3,Win32,60.15037594,62c50e9c1127f2cd403a315f,,,,,,,,,,,,,,,,,,,,,,,,,,,,,,,,,,,,,,,,,,,,,,,,,,,,,,,,,,,,,,,,,,,,,,,,,,,,,,,,,,,,,,,,,,,,,,,,,,,,,,,,,,,,,,,,,,,,,,,,,,,,,,,,,,,,,,,,,,,,,,,,,,,,,,,,,,,,,,,,,,,
0,27,27,62,1,,5fe23f65878eaadb5e2c8ba1,62c53a85deca570d4abc80d5,2022-07-06_09h34.28.387,Colour_Asymmetry_Pilot,2022.1.3,Win32,60.15037594,62c50e9c1127f2cd403a315f,,,,,,,,,,,,,,,,,,,,,,,,,,,,,,,,,,,,,,,,,,,,,,,,,,,,,,,,,,,,,,,,,,,,,,,,,,,,,,,,,,,,,,,,,,,,,,,,,,,,,,,,,,,,,,,,,,,,,,,,,,,,,,,,,,,,,,,,,,,,,,,,,,,,,,,,,,,,,,,,,,,
0,28,28,6,1,,5fe23f65878eaadb5e2c8ba1,62c53a85deca570d4abc80d5,2022-07-06_09h34.28.387,Colour_Asymmetry_Pilot,2022.1.3,Win32,60.15037594,62c50e9c1127f2cd403a315f,,,,,,,,,,,,,,,,,,,,,,,,,,,,,,,,,,,,,,,,,,,,,,,,,,,,,,,,,,,,,,,,,,,,,,,,,,,,,,,,,,,,,,,,,,,,,,,,,,,,,,,,,,,,,,,,,,,,,,,,,,,,,,,,,,,,,,,,,,,,,,,,,,,,,,,,,,,,,,,,,,,
0,29,29,60,1,,5fe23f65878eaadb5e2c8ba1,62c53a85deca570d4abc80d5,2022-07-06_09h34.28.387,Colour_Asymmetry_Pilot,2022.1.3,Win32,60.15037594,62c50e9c1127f2cd403a315f,,,,,,,,,,,,,,,,,,,,,,,,,,,,,,,,,,,,,,,,,,,,,,,,,,,,,,,,,,,,,,,,,,,,,,,,,,,,,,,,,,,,,,,,,,,,,,,,,,,,,,,,,,,,,,,,,,,,,,,,,,,,,,,,,,,,,,,,,,,,,,,,,,,,,,,,,,,,,,,,,,,
0,30,30,32,1,,5fe23f65878eaadb5e2c8ba1,62c53a85deca570d4abc80d5,2022-07-06_09h34.28.387,Colour_Asymmetry_Pilot,2022.1.3,Win32,60.15037594,62c50e9c1127f2cd403a315f,,,,,,,,,,,,,,,,,,,,,,,,,,,,,,,,,,,,,,,,,,,,,,,,,,,,,,,,,,,,,,,,,,,,,,,,,,,,,,,,,,,,,,,,,,,,,,,,,,,,,,,,,,,,,,,,,,,,,,,,,,,,,,,,,,,,,,,,,,,,,,,,,,,,,,,,,,,,,,,,,,,
0,31,31,13,1,,5fe23f65878eaadb5e2c8ba1,62c53a85deca570d4abc80d5,2022-07-06_09h34.28.387,Colour_Asymmetry_Pilot,2022.1.3,Win32,60.15037594,62c50e9c1127f2cd403a315f,,,,,,,,,,,,,,,,,,,,,,,,,,,,,,,,,,,,,,,,,,,,,,,,,,,,,,,,,,,,,,,,,,,,,,,,,,,,,,,,,,,,,,,,,,,,,,,,,,,,,,,,,,,,,,,,,,,,,,,,,,,,,,,,,,,,,,,,,,,,,,,,,,,,,,,,,,,,,,,,,,,
0,32,32,3,1,,5fe23f65878eaadb5e2c8ba1,62c53a85deca570d4abc80d5,2022-07-06_09h34.28.387,Colour_Asymmetry_Pilot,2022.1.3,Win32,60.15037594,62c50e9c1127f2cd403a315f,,,,,,,,,,,,,,,,,,,,,,,,,,,,,,,,,,,,,,,,,,,,,,,,,,,,,,,,,,,,,,,,,,,,,,,,,,,,,,,,,,,,,,,,,,,,,,,,,,,,,,,,,,,,,,,,,,,,,,,,,,,,,,,,,,,,,,,,,,,,,,,,,,,,,,,,,,,,,,,,,,,
0,33,33,39,1,,5fe23f65878eaadb5e2c8ba1,62c53a85deca570d4abc80d5,2022-07-06_09h34.28.387,Colour_Asymmetry_Pilot,2022.1.3,Win32,60.15037594,62c50e9c1127f2cd403a315f,,,,,,,,,,,,,,,,,,,,,,,,,,,,,,,,,,,,,,,,,,,,,,,,,,,,,,,,,,,,,,,,,,,,,,,,,,,,,,,,,,,,,,,,,,,,,,,,,,,,,,,,,,,,,,,,,,,,,,,,,,,,,,,,,,,,,,,,,,,,,,,,,,,,,,,,,,,,,,,,,,,
0,34,34,63,1,,5fe23f65878eaadb5e2c8ba1,62c53a85deca570d4abc80d5,2022-07-06_09h34.28.387,Colour_Asymmetry_Pilot,2022.1.3,Win32,60.15037594,62c50e9c1127f2cd403a315f,,,,,,,,,,,,,,,,,,,,,,,,,,,,,,,,,,,,,,,,,,,,,,,,,,,,,,,,,,,,,,,,,,,,,,,,,,,,,,,,,,,,,,,,,,,,,,,,,,,,,,,,,,,,,,,,,,,,,,,,,,,,,,,,,,,,,,,,,,,,,,,,,,,,,,,,,,,,,,,,,,,
0,35,35,56,1,,5fe23f65878eaadb5e2c8ba1,62c53a85deca570d4abc80d5,2022-07-06_09h34.28.387,Colour_Asymmetry_Pilot,2022.1.3,Win32,60.15037594,62c50e9c1127f2cd403a315f,,,,,,,,,,,,,,,,,,,,,,,,,,,,,,,,,,,,,,,,,,,,,,,,,,,,,,,,,,,,,,,,,,,,,,,,,,,,,,,,,,,,,,,,,,,,,,,,,,,,,,,,,,,,,,,,,,,,,,,,,,,,,,,,,,,,,,,,,,,,,,,,,,,,,,,,,,,,,,,,,,,
0,36,36,20,1,,5fe23f65878eaadb5e2c8ba1,62c53a85deca570d4abc80d5,2022-07-06_09h34.28.387,Colour_Asymmetry_Pilot,2022.1.3,Win32,60.15037594,62c50e9c1127f2cd403a315f,,,,,,,,,,,,,,,,,,,,,,,,,,,,,,,,,,,,,,,,,,,,,,,,,,,,,,,,,,,,,,,,,,,,,,,,,,,,,,,,,,,,,,,,,,,,,,,,,,,,,,,,,,,,,,,,,,,,,,,,,,,,,,,,,,,,,,,,,,,,,,,,,,,,,,,,,,,,,,,,,,,
0,37,37,11,1,,5fe23f65878eaadb5e2c8ba1,62c53a85deca570d4abc80d5,2022-07-06_09h34.28.387,Colour_Asymmetry_Pilot,2022.1.3,Win32,60.15037594,62c50e9c1127f2cd403a315f,,,,,,,,,,,,,,,,,,,,,,,,,,,,,,,,,,,,,,,,,,,,,,,,,,,,,,,,,,,,,,,,,,,,,,,,,,,,,,,,,,,,,,,,,,,,,,,,,,,,,,,,,,,,,,,,,,,,,,,,,,,,,,,,,,,,,,,,,,,,,,,,,,,,,,,,,,,,,,,,,,,
0,38,38,31,1,,5fe23f65878eaadb5e2c8ba1,62c53a85deca570d4abc80d5,2022-07-06_09h34.28.387,Colour_Asymmetry_Pilot,2022.1.3,Win32,60.15037594,62c50e9c1127f2cd403a315f,,,,,,,,,,,,,,,,,,,,,,,,,,,,,,,,,,,,,,,,,,,,,,,,,,,,,,,,,,,,,,,,,,,,,,,,,,,,,,,,,,,,,,,,,,,,,,,,,,,,,,,,,,,,,,,,,,,,,,,,,,,,,,,,,,,,,,,,,,,,,,,,,,,,,,,,,,,,,,,,,,,
0,39,39,73,1,,5fe23f65878eaadb5e2c8ba1,62c53a85deca570d4abc80d5,2022-07-06_09h34.28.387,Colour_Asymmetry_Pilot,2022.1.3,Win32,60.15037594,62c50e9c1127f2cd403a315f,,,,,,,,,,,,,,,,,,,,,,,,,,,,,,,,,,,,,,,,,,,,,,,,,,,,,,,,,,,,,,,,,,,,,,,,,,,,,,,,,,,,,,,,,,,,,,,,,,,,,,,,,,,,,,,,,,,,,,,,,,,,,,,,,,,,,,,,,,,,,,,,,,,,,,,,,,,,,,,,,,,
0,40,40,75,1,,5fe23f65878eaadb5e2c8ba1,62c53a85deca570d4abc80d5,2022-07-06_09h34.28.387,Colour_Asymmetry_Pilot,2022.1.3,Win32,60.15037594,62c50e9c1127f2cd403a315f,,,,,,,,,,,,,,,,,,,,,,,,,,,,,,,,,,,,,,,,,,,,,,,,,,,,,,,,,,,,,,,,,,,,,,,,,,,,,,,,,,,,,,,,,,,,,,,,,,,,,,,,,,,,,,,,,,,,,,,,,,,,,,,,,,,,,,,,,,,,,,,,,,,,,,,,,,,,,,,,,,,
0,41,41,52,1,,5fe23f65878eaadb5e2c8ba1,62c53a85deca570d4abc80d5,2022-07-06_09h34.28.387,Colour_Asymmetry_Pilot,2022.1.3,Win32,60.15037594,62c50e9c1127f2cd403a315f,,,,,,,,,,,,,,,,,,,,,,,,,,,,,,,,,,,,,,,,,,,,,,,,,,,,,,,,,,,,,,,,,,,,,,,,,,,,,,,,,,,,,,,,,,,,,,,,,,,,,,,,,,,,,,,,,,,,,,,,,,,,,,,,,,,,,,,,,,,,,,,,,,,,,,,,,,,,,,,,,,,
0,42,42,90,1,,5fe23f65878eaadb5e2c8ba1,62c53a85deca570d4abc80d5,2022-07-06_09h34.28.387,Colour_Asymmetry_Pilot,2022.1.3,Win32,60.15037594,62c50e9c1127f2cd403a315f,,,,,,,,,,,,,,,,,,,,,,,,,,,,,,,,,,,,,,,,,,,,,,,,,,,,,,,,,,,,,,,,,,,,,,,,,,,,,,,,,,,,,,,,,,,,,,,,,,,,,,,,,,,,,,,,,,,,,,,,,,,,,,,,,,,,,,,,,,,,,,,,,,,,,,,,,,,,,,,,,,,
0,43,43,57,1,,5fe23f65878eaadb5e2c8ba1,62c53a85deca570d4abc80d5,2022-07-06_09h34.28.387,Colour_Asymmetry_Pilot,2022.1.3,Win32,60.15037594,62c50e9c1127f2cd403a315f,,,,,,,,,,,,,,,,,,,,,,,,,,,,,,,,,,,,,,,,,,,,,,,,,,,,,,,,,,,,,,,,,,,,,,,,,,,,,,,,,,,,,,,,,,,,,,,,,,,,,,,,,,,,,,,,,,,,,,,,,,,,,,,,,,,,,,,,,,,,,,,,,,,,,,,,,,,,,,,,,,,
0,44,44,61,1,,5fe23f65878eaadb5e2c8ba1,62c53a85deca570d4abc80d5,2022-07-06_09h34.28.387,Colour_Asymmetry_Pilot,2022.1.3,Win32,60.15037594,62c50e9c1127f2cd403a315f,,,,,,,,,,,,,,,,,,,,,,,,,,,,,,,,,,,,,,,,,,,,,,,,,,,,,,,,,,,,,,,,,,,,,,,,,,,,,,,,,,,,,,,,,,,,,,,,,,,,,,,,,,,,,,,,,,,,,,,,,,,,,,,,,,,,,,,,,,,,,,,,,,,,,,,,,,,,,,,,,,,
0,45,45,65,1,,5fe23f65878eaadb5e2c8ba1,62c53a85deca570d4abc80d5,2022-07-06_09h34.28.387,Colour_Asymmetry_Pilot,2022.1.3,Win32,60.15037594,62c50e9c1127f2cd403a315f,,,,,,,,,,,,,,,,,,,,,,,,,,,,,,,,,,,,,,,,,,,,,,,,,,,,,,,,,,,,,,,,,,,,,,,,,,,,,,,,,,,,,,,,,,,,,,,,,,,,,,,,,,,,,,,,,,,,,,,,,,,,,,,,,,,,,,,,,,,,,,,,,,,,,,,,,,,,,,,,,,,
0,46,46,54,1,,5fe23f65878eaadb5e2c8ba1,62c53a85deca570d4abc80d5,2022-07-06_09h34.28.387,Colour_Asymmetry_Pilot,2022.1.3,Win32,60.15037594,62c50e9c1127f2cd403a315f,,,,,,,,,,,,,,,,,,,,,,,,,,,,,,,,,,,,,,,,,,,,,,,,,,,,,,,,,,,,,,,,,,,,,,,,,,,,,,,,,,,,,,,,,,,,,,,,,,,,,,,,,,,,,,,,,,,,,,,,,,,,,,,,,,,,,,,,,,,,,,,,,,,,,,,,,,,,,,,,,,,
0,47,47,58,1,,5fe23f65878eaadb5e2c8ba1,62c53a85deca570d4abc80d5,2022-07-06_09h34.28.387,Colour_Asymmetry_Pilot,2022.1.3,Win32,60.15037594,62c50e9c1127f2cd403a315f,,,,,,,,,,,,,,,,,,,,,,,,,,,,,,,,,,,,,,,,,,,,,,,,,,,,,,,,,,,,,,,,,,,,,,,,,,,,,,,,,,,,,,,,,,,,,,,,,,,,,,,,,,,,,,,,,,,,,,,,,,,,,,,,,,,,,,,,,,,,,,,,,,,,,,,,,,,,,,,,,,,
0,48,48,77,1,,5fe23f65878eaadb5e2c8ba1,62c53a85deca570d4abc80d5,2022-07-06_09h34.28.387,Colour_Asymmetry_Pilot,2022.1.3,Win32,60.15037594,62c50e9c1127f2cd403a315f,,,,,,,,,,,,,,,,,,,,,,,,,,,,,,,,,,,,,,,,,,,,,,,,,,,,,,,,,,,,,,,,,,,,,,,,,,,,,,,,,,,,,,,,,,,,,,,,,,,,,,,,,,,,,,,,,,,,,,,,,,,,,,,,,,,,,,,,,,,,,,,,,,,,,,,,,,,,,,,,,,,
0,49,49,46,1,,5fe23f65878eaadb5e2c8ba1,62c53a85deca570d4abc80d5,2022-07-06_09h34.28.387,Colour_Asymmetry_Pilot,2022.1.3,Win32,60.15037594,62c50e9c1127f2cd403a315f,,,,,,,,,,,,,,,,,,,,,,,,,,,,,,,,,,,,,,,,,,,,,,,,,,,,,,,,,,,,,,,,,,,,,,,,,,,,,,,,,,,,,,,,,,,,,,,,,,,,,,,,,,,,,,,,,,,,,,,,,,,,,,,,,,,,,,,,,,,,,,,,,,,,,,,,,,,,,,,,,,,
0,50,50,81,1,,5fe23f65878eaadb5e2c8ba1,62c53a85deca570d4abc80d5,2022-07-06_09h34.28.387,Colour_Asymmetry_Pilot,2022.1.3,Win32,60.15037594,62c50e9c1127f2cd403a315f,,,,,,,,,,,,,,,,,,,,,,,,,,,,,,,,,,,,,,,,,,,,,,,,,,,,,,,,,,,,,,,,,,,,,,,,,,,,,,,,,,,,,,,,,,,,,,,,,,,,,,,,,,,,,,,,,,,,,,,,,,,,,,,,,,,,,,,,,,,,,,,,,,,,,,,,,,,,,,,,,,,
0,51,51,18,1,,5fe23f65878eaadb5e2c8ba1,62c53a85deca570d4abc80d5,2022-07-06_09h34.28.387,Colour_Asymmetry_Pilot,2022.1.3,Win32,60.15037594,62c50e9c1127f2cd403a315f,,,,,,,,,,,,,,,,,,,,,,,,,,,,,,,,,,,,,,,,,,,,,,,,,,,,,,,,,,,,,,,,,,,,,,,,,,,,,,,,,,,,,,,,,,,,,,,,,,,,,,,,,,,,,,,,,,,,,,,,,,,,,,,,,,,,,,,,,,,,,,,,,,,,,,,,,,,,,,,,,,,
0,52,52,89,1,,5fe23f65878eaadb5e2c8ba1,62c53a85deca570d4abc80d5,2022-07-06_09h34.28.387,Colour_Asymmetry_Pilot,2022.1.3,Win32,60.15037594,62c50e9c1127f2cd403a315f,,,,,,,,,,,,,,,,,,,,,,,,,,,,,,,,,,,,,,,,,,,,,,,,,,,,,,,,,,,,,,,,,,,,,,,,,,,,,,,,,,,,,,,,,,,,,,,,,,,,,,,,,,,,,,,,,,,,,,,,,,,,,,,,,,,,,,,,,,,,,,,,,,,,,,,,,,,,,,,,,,,
0,53,53,70,1,,5fe23f65878eaadb5e2c8ba1,62c53a85deca570d4abc80d5,2022-07-06_09h34.28.387,Colour_Asymmetry_Pilot,2022.1.3,Win32,60.15037594,62c50e9c1127f2cd403a315f,,,,,,,,,,,,,,,,,,,,,,,,,,,,,,,,,,,,,,,,,,,,,,,,,,,,,,,,,,,,,,,,,,,,,,,,,,,,,,,,,,,,,,,,,,,,,,,,,,,,,,,,,,,,,,,,,,,,,,,,,,,,,,,,,,,,,,,,,,,,,,,,,,,,,,,,,,,,,,,,,,,
0,54,54,25,1,,5fe23f65878eaadb5e2c8ba1,62c53a85deca570d4abc80d5,2022-07-06_09h34.28.387,Colour_Asymmetry_Pilot,2022.1.3,Win32,60.15037594,62c50e9c1127f2cd403a315f,,,,,,,,,,,,,,,,,,,,,,,,,,,,,,,,,,,,,,,,,,,,,,,,,,,,,,,,,,,,,,,,,,,,,,,,,,,,,,,,,,,,,,,,,,,,,,,,,,,,,,,,,,,,,,,,,,,,,,,,,,,,,,,,,,,,,,,,,,,,,,,,,,,,,,,,,,,,,,,,,,,
0,55,55,74,1,,5fe23f65878eaadb5e2c8ba1,62c53a85deca570d4abc80d5,2022-07-06_09h34.28.387,Colour_Asymmetry_Pilot,2022.1.3,Win32,60.15037594,62c50e9c1127f2cd403a315f,,,,,,,,,,,,,,,,,,,,,,,,,,,,,,,,,,,,,,,,,,,,,,,,,,,,,,,,,,,,,,,,,,,,,,,,,,,,,,,,,,,,,,,,,,,,,,,,,,,,,,,,,,,,,,,,,,,,,,,,,,,,,,,,,,,,,,,,,,,,,,,,,,,,,,,,,,,,,,,,,,,
0,56,56,41,1,,5fe23f65878eaadb5e2c8ba1,62c53a85deca570d4abc80d5,2022-07-06_09h34.28.387,Colour_Asymmetry_Pilot,2022.1.3,Win32,60.15037594,62c50e9c1127f2cd403a315f,,,,,,,,,,,,,,,,,,,,,,,,,,,,,,,,,,,,,,,,,,,,,,,,,,,,,,,,,,,,,,,,,,,,,,,,,,,,,,,,,,,,,,,,,,,,,,,,,,,,,,,,,,,,,,,,,,,,,,,,,,,,,,,,,,,,,,,,,,,,,,,,,,,,,,,,,,,,,,,,,,,
0,57,57,44,1,,5fe23f65878eaadb5e2c8ba1,62c53a85deca570d4abc80d5,2022-07-06_09h34.28.387,Colour_Asymmetry_Pilot,2022.1.3,Win32,60.15037594,62c50e9c1127f2cd403a315f,,,,,,,,,,,,,,,,,,,,,,,,,,,,,,,,,,,,,,,,,,,,,,,,,,,,,,,,,,,,,,,,,,,,,,,,,,,,,,,,,,,,,,,,,,,,,,,,,,,,,,,,,,,,,,,,,,,,,,,,,,,,,,,,,,,,,,,,,,,,,,,,,,,,,,,,,,,,,,,,,,,
0,58,58,8,1,,5fe23f65878eaadb5e2c8ba1,62c53a85deca570d4abc80d5,2022-07-06_09h34.28.387,Colour_Asymmetry_Pilot,2022.1.3,Win32,60.15037594,62c50e9c1127f2cd403a315f,,,,,,,,,,,,,,,,,,,,,,,,,,,,,,,,,,,,,,,,,,,,,,,,,,,,,,,,,,,,,,,,,,,,,,,,,,,,,,,,,,,,,,,,,,,,,,,,,,,,,,,,,,,,,,,,,,,,,,,,,,,,,,,,,,,,,,,,,,,,,,,,,,,,,,,,,,,,,,,,,,,
0,59,59,5,1,,5fe23f65878eaadb5e2c8ba1,62c53a85deca570d4abc80d5,2022-07-06_09h34.28.387,Colour_Asymmetry_Pilot,2022.1.3,Win32,60.15037594,62c50e9c1127f2cd403a315f,,,,,,,,,,,,,,,,,,,,,,,,,,,,,,,,,,,,,,,,,,,,,,,,,,,,,,,,,,,,,,,,,,,,,,,,,,,,,,,,,,,,,,,,,,,,,,,,,,,,,,,,,,,,,,,,,,,,,,,,,,,,,,,,,,,,,,,,,,,,,,,,,,,,,,,,,,,,,,,,,,,
0,60,60,72,1,,5fe23f65878eaadb5e2c8ba1,62c53a85deca570d4abc80d5,2022-07-06_09h34.28.387,Colour_Asymmetry_Pilot,2022.1.3,Win32,60.15037594,62c50e9c1127f2cd403a315f,,,,,,,,,,,,,,,,,,,,,,,,,,,,,,,,,,,,,,,,,,,,,,,,,,,,,,,,,,,,,,,,,,,,,,,,,,,,,,,,,,,,,,,,,,,,,,,,,,,,,,,,,,,,,,,,,,,,,,,,,,,,,,,,,,,,,,,,,,,,,,,,,,,,,,,,,,,,,,,,,,,
0,61,61,7,1,,5fe23f65878eaadb5e2c8ba1,62c53a85deca570d4abc80d5,2022-07-06_09h34.28.387,Colour_Asymmetry_Pilot,2022.1.3,Win32,60.15037594,62c50e9c1127f2cd403a315f,,,,,,,,,,,,,,,,,,,,,,,,,,,,,,,,,,,,,,,,,,,,,,,,,,,,,,,,,,,,,,,,,,,,,,,,,,,,,,,,,,,,,,,,,,,,,,,,,,,,,,,,,,,,,,,,,,,,,,,,,,,,,,,,,,,,,,,,,,,,,,,,,,,,,,,,,,,,,,,,,,,
0,62,62,92,1,,5fe23f65878eaadb5e2c8ba1,62c53a85deca570d4abc80d5,2022-07-06_09h34.28.387,Colour_Asymmetry_Pilot,2022.1.3,Win32,60.15037594,62c50e9c1127f2cd403a315f,,,,,,,,,,,,,,,,,,,,,,,,,,,,,,,,,,,,,,,,,,,,,,,,,,,,,,,,,,,,,,,,,,,,,,,,,,,,,,,,,,,,,,,,,,,,,,,,,,,,,,,,,,,,,,,,,,,,,,,,,,,,,,,,,,,,,,,,,,,,,,,,,,,,,,,,,,,,,,,,,,,
0,63,63,36,1,,5fe23f65878eaadb5e2c8ba1,62c53a85deca570d4abc80d5,2022-07-06_09h34.28.387,Colour_Asymmetry_Pilot,2022.1.3,Win32,60.15037594,62c50e9c1127f2cd403a315f,,,,,,,,,,,,,,,,,,,,,,,,,,,,,,,,,,,,,,,,,,,,,,,,,,,,,,,,,,,,,,,,,,,,,,,,,,,,,,,,,,,,,,,,,,,,,,,,,,,,,,,,,,,,,,,,,,,,,,,,,,,,,,,,,,,,,,,,,,,,,,,,,,,,,,,,,,,,,,,,,,,
0,64,64,0,1,,5fe23f65878eaadb5e2c8ba1,62c53a85deca570d4abc80d5,2022-07-06_09h34.28.387,Colour_Asymmetry_Pilot,2022.1.3,Win32,60.15037594,62c50e9c1127f2cd403a315f,,,,,,,,,,,,,,,,,,,,,,,,,,,,,,,,,,,,,,,,,,,,,,,,,,,,,,,,,,,,,,,,,,,,,,,,,,,,,,,,,,,,,,,,,,,,,,,,,,,,,,,,,,,,,,,,,,,,,,,,,,,,,,,,,,,,,,,,,,,,,,,,,,,,,,,,,,,,,,,,,,,
0,65,65,4,1,,5fe23f65878eaadb5e2c8ba1,62c53a85deca570d4abc80d5,2022-07-06_09h34.28.387,Colour_Asymmetry_Pilot,2022.1.3,Win32,60.15037594,62c50e9c1127f2cd403a315f,,,,,,,,,,,,,,,,,,,,,,,,,,,,,,,,,,,,,,,,,,,,,,,,,,,,,,,,,,,,,,,,,,,,,,,,,,,,,,,,,,,,,,,,,,,,,,,,,,,,,,,,,,,,,,,,,,,,,,,,,,,,,,,,,,,,,,,,,,,,,,,,,,,,,,,,,,,,,,,,,,,
0,66,66,80,1,,5fe23f65878eaadb5e2c8ba1,62c53a85deca570d4abc80d5,2022-07-06_09h34.28.387,Colour_Asymmetry_Pilot,2022.1.3,Win32,60.15037594,62c50e9c1127f2cd403a315f,,,,,,,,,,,,,,,,,,,,,,,,,,,,,,,,,,,,,,,,,,,,,,,,,,,,,,,,,,,,,,,,,,,,,,,,,,,,,,,,,,,,,,,,,,,,,,,,,,,,,,,,,,,,,,,,,,,,,,,,,,,,,,,,,,,,,,,,,,,,,,,,,,,,,,,,,,,,,,,,,,,
0,67,67,37,1,,5fe23f65878eaadb5e2c8ba1,62c53a85deca570d4abc80d5,2022-07-06_09h34.28.387,Colour_Asymmetry_Pilot,2022.1.3,Win32,60.15037594,62c50e9c1127f2cd403a315f,,,,,,,,,,,,,,,,,,,,,,,,,,,,,,,,,,,,,,,,,,,,,,,,,,,,,,,,,,,,,,,,,,,,,,,,,,,,,,,,,,,,,,,,,,,,,,,,,,,,,,,,,,,,,,,,,,,,,,,,,,,,,,,,,,,,,,,,,,,,,,,,,,,,,,,,,,,,,,,,,,,
0,68,68,84,1,,5fe23f65878eaadb5e2c8ba1,62c53a85deca570d4abc80d5,2022-07-06_09h34.28.387,Colour_Asymmetry_Pilot,2022.1.3,Win32,60.15037594,62c50e9c1127f2cd403a315f,,,,,,,,,,,,,,,,,,,,,,,,,,,,,,,,,,,,,,,,,,,,,,,,,,,,,,,,,,,,,,,,,,,,,,,,,,,,,,,,,,,,,,,,,,,,,,,,,,,,,,,,,,,,,,,,,,,,,,,,,,,,,,,,,,,,,,,,,,,,,,,,,,,,,,,,,,,,,,,,,,,
0,69,69,26,1,,5fe23f65878eaadb5e2c8ba1,62c53a85deca570d4abc80d5,2022-07-06_09h34.28.387,Colour_Asymmetry_Pilot,2022.1.3,Win32,60.15037594,62c50e9c1127f2cd403a315f,,,,,,,,,,,,,,,,,,,,,,,,,,,,,,,,,,,,,,,,,,,,,,,,,,,,,,,,,,,,,,,,,,,,,,,,,,,,,,,,,,,,,,,,,,,,,,,,,,,,,,,,,,,,,,,,,,,,,,,,,,,,,,,,,,,,,,,,,,,,,,,,,,,,,,,,,,,,,,,,,,,
0,70,70,85,1,,5fe23f65878eaadb5e2c8ba1,62c53a85deca570d4abc80d5,2022-07-06_09h34.28.387,Colour_Asymmetry_Pilot,2022.1.3,Win32,60.15037594,62c50e9c1127f2cd403a315f,,,,,,,,,,,,,,,,,,,,,,,,,,,,,,,,,,,,,,,,,,,,,,,,,,,,,,,,,,,,,,,,,,,,,,,,,,,,,,,,,,,,,,,,,,,,,,,,,,,,,,,,,,,,,,,,,,,,,,,,,,,,,,,,,,,,,,,,,,,,,,,,,,,,,,,,,,,,,,,,,,,
0,71,71,22,1,,5fe23f65878eaadb5e2c8ba1,62c53a85deca570d4abc80d5,2022-07-06_09h34.28.387,Colour_Asymmetry_Pilot,2022.1.3,Win32,60.15037594,62c50e9c1127f2cd403a315f,,,,,,,,,,,,,,,,,,,,,,,,,,,,,,,,,,,,,,,,,,,,,,,,,,,,,,,,,,,,,,,,,,,,,,,,,,,,,,,,,,,,,,,,,,,,,,,,,,,,,,,,,,,,,,,,,,,,,,,,,,,,,,,,,,,,,,,,,,,,,,,,,,,,,,,,,,,,,,,,,,,
0,72,72,68,1,,5fe23f65878eaadb5e2c8ba1,62c53a85deca570d4abc80d5,2022-07-06_09h34.28.387,Colour_Asymmetry_Pilot,2022.1.3,Win32,60.15037594,62c50e9c1127f2cd403a315f,,,,,,,,,,,,,,,,,,,,,,,,,,,,,,,,,,,,,,,,,,,,,,,,,,,,,,,,,,,,,,,,,,,,,,,,,,,,,,,,,,,,,,,,,,,,,,,,,,,,,,,,,,,,,,,,,,,,,,,,,,,,,,,,,,,,,,,,,,,,,,,,,,,,,,,,,,,,,,,,,,,
0,73,73,55,1,,5fe23f65878eaadb5e2c8ba1,62c53a85deca570d4abc80d5,2022-07-06_09h34.28.387,Colour_Asymmetry_Pilot,2022.1.3,Win32,60.15037594,62c50e9c1127f2cd403a315f,,,,,,,,,,,,,,,,,,,,,,,,,,,,,,,,,,,,,,,,,,,,,,,,,,,,,,,,,,,,,,,,,,,,,,,,,,,,,,,,,,,,,,,,,,,,,,,,,,,,,,,,,,,,,,,,,,,,,,,,,,,,,,,,,,,,,,,,,,,,,,,,,,,,,,,,,,,,,,,,,,,
0,74,74,1,1,,5fe23f65878eaadb5e2c8ba1,62c53a85deca570d4abc80d5,2022-07-06_09h34.28.387,Colour_Asymmetry_Pilot,2022.1.3,Win32,60.15037594,62c50e9c1127f2cd403a315f,,,,,,,,,,,,,,,,,,,,,,,,,,,,,,,,,,,,,,,,,,,,,,,,,,,,,,,,,,,,,,,,,,,,,,,,,,,,,,,,,,,,,,,,,,,,,,,,,,,,,,,,,,,,,,,,,,,,,,,,,,,,,,,,,,,,,,,,,,,,,,,,,,,,,,,,,,,,,,,,,,,
0,75,75,69,1,,5fe23f65878eaadb5e2c8ba1,62c53a85deca570d4abc80d5,2022-07-06_09h34.28.387,Colour_Asymmetry_Pilot,2022.1.3,Win32,60.15037594,62c50e9c1127f2cd403a315f,,,,,,,,,,,,,,,,,,,,,,,,,,,,,,,,,,,,,,,,,,,,,,,,,,,,,,,,,,,,,,,,,,,,,,,,,,,,,,,,,,,,,,,,,,,,,,,,,,,,,,,,,,,,,,,,,,,,,,,,,,,,,,,,,,,,,,,,,,,,,,,,,,,,,,,,,,,,,,,,,,,
0,76,76,28,1,,5fe23f65878eaadb5e2c8ba1,62c53a85deca570d4abc80d5,2022-07-06_09h34.28.387,Colour_Asymmetry_Pilot,2022.1.3,Win32,60.15037594,62c50e9c1127f2cd403a315f,,,,,,,,,,,,,,,,,,,,,,,,,,,,,,,,,,,,,,,,,,,,,,,,,,,,,,,,,,,,,,,,,,,,,,,,,,,,,,,,,,,,,,,,,,,,,,,,,,,,,,,,,,,,,,,,,,,,,,,,,,,,,,,,,,,,,,,,,,,,,,,,,,,,,,,,,,,,,,,,,,,
0,77,77,91,1,,5fe23f65878eaadb5e2c8ba1,62c53a85deca570d4abc80d5,2022-07-06_09h34.28.387,Colour_Asymmetry_Pilot,2022.1.3,Win32,60.15037594,62c50e9c1127f2cd403a315f,,,,,,,,,,,,,,,,,,,,,,,,,,,,,,,,,,,,,,,,,,,,,,,,,,,,,,,,,,,,,,,,,,,,,,,,,,,,,,,,,,,,,,,,,,,,,,,,,,,,,,,,,,,,,,,,,,,,,,,,,,,,,,,,,,,,,,,,,,,,,,,,,,,,,,,,,,,,,,,,,,,
0,78,78,42,1,,5fe23f65878eaadb5e2c8ba1,62c53a85deca570d4abc80d5,2022-07-06_09h34.28.387,Colour_Asymmetry_Pilot,2022.1.3,Win32,60.15037594,62c50e9c1127f2cd403a315f,,,,,,,,,,,,,,,,,,,,,,,,,,,,,,,,,,,,,,,,,,,,,,,,,,,,,,,,,,,,,,,,,,,,,,,,,,,,,,,,,,,,,,,,,,,,,,,,,,,,,,,,,,,,,,,,,,,,,,,,,,,,,,,,,,,,,,,,,,,,,,,,,,,,,,,,,,,,,,,,,,,
0,79,79,35,1,,5fe23f65878eaadb5e2c8ba1,62c53a85deca570d4abc80d5,2022-07-06_09h34.28.387,Colour_Asymmetry_Pilot,2022.1.3,Win32,60.15037594,62c50e9c1127f2cd403a315f,,,,,,,,,,,,,,,,,,,,,,,,,,,,,,,,,,,,,,,,,,,,,,,,,,,,,,,,,,,,,,,,,,,,,,,,,,,,,,,,,,,,,,,,,,,,,,,,,,,,,,,,,,,,,,,,,,,,,,,,,,,,,,,,,,,,,,,,,,,,,,,,,,,,,,,,,,,,,,,,,,,
0,80,80,53,1,,5fe23f65878eaadb5e2c8ba1,62c53a85deca570d4abc80d5,2022-07-06_09h34.28.387,Colour_Asymmetry_Pilot,2022.1.3,Win32,60.15037594,62c50e9c1127f2cd403a315f,,,,,,,,,,,,,,,,,,,,,,,,,,,,,,,,,,,,,,,,,,,,,,,,,,,,,,,,,,,,,,,,,,,,,,,,,,,,,,,,,,,,,,,,,,,,,,,,,,,,,,,,,,,,,,,,,,,,,,,,,,,,,,,,,,,,,,,,,,,,,,,,,,,,,,,,,,,,,,,,,,,
0,81,81,59,1,,5fe23f65878eaadb5e2c8ba1,62c53a85deca570d4abc80d5,2022-07-06_09h34.28.387,Colour_Asymmetry_Pilot,2022.1.3,Win32,60.15037594,62c50e9c1127f2cd403a315f,,,,,,,,,,,,,,,,,,,,,,,,,,,,,,,,,,,,,,,,,,,,,,,,,,,,,,,,,,,,,,,,,,,,,,,,,,,,,,,,,,,,,,,,,,,,,,,,,,,,,,,,,,,,,,,,,,,,,,,,,,,,,,,,,,,,,,,,,,,,,,,,,,,,,,,,,,,,,,,,,,,
0,82,82,19,1,,5fe23f65878eaadb5e2c8ba1,62c53a85deca570d4abc80d5,2022-07-06_09h34.28.387,Colour_Asymmetry_Pilot,2022.1.3,Win32,60.15037594,62c50e9c1127f2cd403a315f,,,,,,,,,,,,,,,,,,,,,,,,,,,,,,,,,,,,,,,,,,,,,,,,,,,,,,,,,,,,,,,,,,,,,,,,,,,,,,,,,,,,,,,,,,,,,,,,,,,,,,,,,,,,,,,,,,,,,,,,,,,,,,,,,,,,,,,,,,,,,,,,,,,,,,,,,,,,,,,,,,,
0,83,83,34,1,,5fe23f65878eaadb5e2c8ba1,62c53a85deca570d4abc80d5,2022-07-06_09h34.28.387,Colour_Asymmetry_Pilot,2022.1.3,Win32,60.15037594,62c50e9c1127f2cd403a315f,,,,,,,,,,,,,,,,,,,,,,,,,,,,,,,,,,,,,,,,,,,,,,,,,,,,,,,,,,,,,,,,,,,,,,,,,,,,,,,,,,,,,,,,,,,,,,,,,,,,,,,,,,,,,,,,,,,,,,,,,,,,,,,,,,,,,,,,,,,,,,,,,,,,,,,,,,,,,,,,,,,
0,84,84,33,1,,5fe23f65878eaadb5e2c8ba1,62c53a85deca570d4abc80d5,2022-07-06_09h34.28.387,Colour_Asymmetry_Pilot,2022.1.3,Win32,60.15037594,62c50e9c1127f2cd403a315f,,,,,,,,,,,,,,,,,,,,,,,,,,,,,,,,,,,,,,,,,,,,,,,,,,,,,,,,,,,,,,,,,,,,,,,,,,,,,,,,,,,,,,,,,,,,,,,,,,,,,,,,,,,,,,,,,,,,,,,,,,,,,,,,,,,,,,,,,,,,,,,,,,,,,,,,,,,,,,,,,,,
0,85,85,14,1,,5fe23f65878eaadb5e2c8ba1,62c53a85deca570d4abc80d5,2022-07-06_09h34.28.387,Colour_Asymmetry_Pilot,2022.1.3,Win32,60.15037594,62c50e9c1127f2cd403a315f,,,,,,,,,,,,,,,,,,,,,,,,,,,,,,,,,,,,,,,,,,,,,,,,,,,,,,,,,,,,,,,,,,,,,,,,,,,,,,,,,,,,,,,,,,,,,,,,,,,,,,,,,,,,,,,,,,,,,,,,,,,,,,,,,,,,,,,,,,,,,,,,,,,,,,,,,,,,,,,,,,,
0,86,86,83,1,,5fe23f65878eaadb5e2c8ba1,62c53a85deca570d4abc80d5,2022-07-06_09h34.28.387,Colour_Asymmetry_Pilot,2022.1.3,Win32,60.15037594,62c50e9c1127f2cd403a315f,,,,,,,,,,,,,,,,,,,,,,,,,,,,,,,,,,,,,,,,,,,,,,,,,,,,,,,,,,,,,,,,,,,,,,,,,,,,,,,,,,,,,,,,,,,,,,,,,,,,,,,,,,,,,,,,,,,,,,,,,,,,,,,,,,,,,,,,,,,,,,,,,,,,,,,,,,,,,,,,,,,
0,87,87,50,1,,5fe23f65878eaadb5e2c8ba1,62c53a85deca570d4abc80d5,2022-07-06_09h34.28.387,Colour_Asymmetry_Pilot,2022.1.3,Win32,60.15037594,62c50e9c1127f2cd403a315f,,,,,,,,,,,,,,,,,,,,,,,,,,,,,,,,,,,,,,,,,,,,,,,,,,,,,,,,,,,,,,,,,,,,,,,,,,,,,,,,,,,,,,,,,,,,,,,,,,,,,,,,,,,,,,,,,,,,,,,,,,,,,,,,,,,,,,,,,,,,,,,,,,,,,,,,,,,,,,,,,,,
0,88,88,78,1,,5fe23f65878eaadb5e2c8ba1,62c53a85deca570d4abc80d5,2022-07-06_09h34.28.387,Colour_Asymmetry_Pilot,2022.1.3,Win32,60.15037594,62c50e9c1127f2cd403a315f,,,,,,,,,,,,,,,,,,,,,,,,,,,,,,,,,,,,,,,,,,,,,,,,,,,,,,,,,,,,,,,,,,,,,,,,,,,,,,,,,,,,,,,,,,,,,,,,,,,,,,,,,,,,,,,,,,,,,,,,,,,,,,,,,,,,,,,,,,,,,,,,,,,,,,,,,,,,,,,,,,,
0,89,89,82,1,,5fe23f65878eaadb5e2c8ba1,62c53a85deca570d4abc80d5,2022-07-06_09h34.28.387,Colour_Asymmetry_Pilot,2022.1.3,Win32,60.15037594,62c50e9c1127f2cd403a315f,,,,,,,,,,,,,,,,,,,,,,,,,,,,,,,,,,,,,,,,,,,,,,,,,,,,,,,,,,,,,,,,,,,,,,,,,,,,,,,,,,,,,,,,,,,,,,,,,,,,,,,,,,,,,,,,,,,,,,,,,,,,,,,,,,,,,,,,,,,,,,,,,,,,,,,,,,,,,,,,,,,
0,90,90,43,1,,5fe23f65878eaadb5e2c8ba1,62c53a85deca570d4abc80d5,2022-07-06_09h34.28.387,Colour_Asymmetry_Pilot,2022.1.3,Win32,60.15037594,62c50e9c1127f2cd403a315f,,,,,,,,,,,,,,,,,,,,,,,,,,,,,,,,,,,,,,,,,,,,,,,,,,,,,,,,,,,,,,,,,,,,,,,,,,,,,,,,,,,,,,,,,,,,,,,,,,,,,,,,,,,,,,,,,,,,,,,,,,,,,,,,,,,,,,,,,,,,,,,,,,,,,,,,,,,,,,,,,,,
0,91,91,67,1,,5fe23f65878eaadb5e2c8ba1,62c53a85deca570d4abc80d5,2022-07-06_09h34.28.387,Colour_Asymmetry_Pilot,2022.1.3,Win32,60.15037594,62c50e9c1127f2cd403a315f,,,,,,,,,,,,,,,,,,,,,,,,,,,,,,,,,,,,,,,,,,,,,,,,,,,,,,,,,,,,,,,,,,,,,,,,,,,,,,,,,,,,,,,,,,,,,,,,,,,,,,,,,,,,,,,,,,,,,,,,,,,,,,,,,,,,,,,,,,,,,,,,,,,,,,,,,,,,,,,,,,,
0,92,92,45,1,,5fe23f65878eaadb5e2c8ba1,62c53a85deca570d4abc80d5,2022-07-06_09h34.28.387,Colour_Asymmetry_Pilot,2022.1.3,Win32,60.15037594,62c50e9c1127f2cd403a315f,,,,,,,,,,,,,,,,,,,,,,,,,,,,,,,,,,,,,,,,,,,,,,,,,,,,,,,,,,,,,,,,,,,,,,,,,,,,,,,,,,,,,,,,,,,,,,,,,,,,,,,,,,,,,,,,,,,,,,,,,,,,,,,,,,,,,,,,,,,,,,,,,,,,,,,,,,,,,,,,,,,
,,,,,,5fe23f65878eaadb5e2c8ba1,62c53a85deca570d4abc80d5,2022-07-06_09h34.28.387,Colour_Asymmetry_Pilot,2022.1.3,Win32,60.15037594,62c50e9c1127f2cd403a315f,0,0,0,82,1,twoone,,,,,,,,,,,,,,,,,,,,,,,,,,,,,,,,,,,,,,,,,,,,,,,,,,,,,,,,,,,,,,,,,,,,,,,,,,,,,,,,,,,,,,,,,,,,,,,,,,,,,,,,,,,,,,,,,,,,,,,,,,,,,,,,,,,,,,,,,,,,,,,,,,,,,,,,,,,,,
,,,,,,5fe23f65878eaadb5e2c8ba1,62c53a85deca570d4abc80d5,2022-07-06_09h34.28.387,Colour_Asymmetry_Pilot,2022.1.3,Win32,60.15037594,62c50e9c1127f2cd403a315f,0,1,1,51,1,twofour,,,,,,,,,,,,,,,,,,,,,,,,,,,,,,,,,,,,,,,,,,,,,,,,,,,,,,,,,,,,,,,,,,,,,,,,,,,,,,,,,,,,,,,,,,,,,,,,,,,,,,,,,,,,,,,,,,,,,,,,,,,,,,,,,,,,,,,,,,,,,,,,,,,,,,,,,,,,,
,,,,,,5fe23f65878eaadb5e2c8ba1,62c53a85deca570d4abc80d5,2022-07-06_09h34.28.387,Colour_Asymmetry_Pilot,2022.1.3,Win32,60.15037594,62c50e9c1127f2cd403a315f,0,2,2,22,1,fourtwo,,,,,,,,,,,,,,,,,,,,,,,,,,,,,,,,,,,,,,,,,,,,,,,,,,,,,,,,,,,,,,,,,,,,,,,,,,,,,,,,,,,,,,,,,,,,,,,,,,,,,,,,,,,,,,,,,,,,,,,,,,,,,,,,,,,,,,,,,,,,,,,,,,,,,,,,,,,,,
,,,,,,5fe23f65878eaadb5e2c8ba1,62c53a85deca570d4abc80d5,2022-07-06_09h34.28.387,Colour_Asymmetry_Pilot,2022.1.3,Win32,60.15037594,62c50e9c1127f2cd403a315f,0,3,3,71,1,fourthree,,,,,,,,,,,,,,,,,,,,,,,,,,,,,,,,,,,,,,,,,,,,,,,,,,,,,,,,,,,,,,,,,,,,,,,,,,,,,,,,,,,,,,,,,,,,,,,,,,,,,,,,,,,,,,,,,,,,,,,,,,,,,,,,,,,,,,,,,,,,,,,,,,,,,,,,,,,,,
,,,,,,5fe23f65878eaadb5e2c8ba1,62c53a85deca570d4abc80d5,2022-07-06_09h34.28.387,Colour_Asymmetry_Pilot,2022.1.3,Win32,60.15037594,62c50e9c1127f2cd403a315f,0,4,4,97,1,onethree,,,,,,,,,,,,,,,,,,,,,,,,,,,,,,,,,,,,,,,,,,,,,,,,,,,,,,,,,,,,,,,,,,,,,,,,,,,,,,,,,,,,,,,,,,,,,,,,,,,,,,,,,,,,,,,,,,,,,,,,,,,,,,,,,,,,,,,,,,,,,,,,,,,,,,,,,,,,,
,,,,,,5fe23f65878eaadb5e2c8ba1,62c53a85deca570d4abc80d5,2022-07-06_09h34.28.387,Colour_Asymmetry_Pilot,2022.1.3,Win32,60.15037594,62c50e9c1127f2cd403a315f,0,5,5,151,1,fourthree,,,,,,,,,,,,,,,,,,,,,,,,,,,,,,,,,,,,,,,,,,,,,,,,,,,,,,,,,,,,,,,,,,,,,,,,,,,,,,,,,,,,,,,,,,,,,,,,,,,,,,,,,,,,,,,,,,,,,,,,,,,,,,,,,,,,,,,,,,,,,,,,,,,,,,,,,,,,,
,,,,,,5fe23f65878eaadb5e2c8ba1,62c53a85deca570d4abc80d5,2022-07-06_09h34.28.387,Colour_Asymmetry_Pilot,2022.1.3,Win32,60.15037594,62c50e9c1127f2cd403a315f,0,6,6,47,1,fourthree,,,,,,,,,,,,,,,,,,,,,,,,,,,,,,,,,,,,,,,,,,,,,,,,,,,,,,,,,,,,,,,,,,,,,,,,,,,,,,,,,,,,,,,,,,,,,,,,,,,,,,,,,,,,,,,,,,,,,,,,,,,,,,,,,,,,,,,,,,,,,,,,,,,,,,,,,,,,,
,,,,,,5fe23f65878eaadb5e2c8ba1,62c53a85deca570d4abc80d5,2022-07-06_09h34.28.387,Colour_Asymmetry_Pilot,2022.1.3,Win32,60.15037594,62c50e9c1127f2cd403a315f,0,7,7,55,1,fourthree,,,,,,,,,,,,,,,,,,,,,,,,,,,,,,,,,,,,,,,,,,,,,,,,,,,,,,,,,,,,,,,,,,,,,,,,,,,,,,,,,,,,,,,,,,,,,,,,,,,,,,,,,,,,,,,,,,,,,,,,,,,,,,,,,,,,,,,,,,,,,,,,,,,,,,,,,,,,,
,,,,,,5fe23f65878eaadb5e2c8ba1,62c53a85deca570d4abc80d5,2022-07-06_09h34.28.387,Colour_Asymmetry_Pilot,2022.1.3,Win32,60.15037594,62c50e9c1127f2cd403a315f,0,8,8,120,1,onetwo,,,,,,,,,,,,,,,,,,,,,,,,,,,,,,,,,,,,,,,,,,,,,,,,,,,,,,,,,,,,,,,,,,,,,,,,,,,,,,,,,,,,,,,,,,,,,,,,,,,,,,,,,,,,,,,,,,,,,,,,,,,,,,,,,,,,,,,,,,,,,,,,,,,,,,,,,,,,,
,,,,,,5fe23f65878eaadb5e2c8ba1,62c53a85deca570d4abc80d5,2022-07-06_09h34.28.387,Colour_Asymmetry_Pilot,2022.1.3,Win32,60.15037594,62c50e9c1127f2cd403a315f,0,9,9,77,1,threefour,,,,,,,,,,,,,,,,,,,,,,,,,,,,,,,,,,,,,,,,,,,,,,,,,,,,,,,,,,,,,,,,,,,,,,,,,,,,,,,,,,,,,,,,,,,,,,,,,,,,,,,,,,,,,,,,,,,,,,,,,,,,,,,,,,,,,,,,,,,,,,,,,,,,,,,,,,,,,
,,,,,,5fe23f65878eaadb5e2c8ba1,62c53a85deca570d4abc80d5,2022-07-06_09h34.28.387,Colour_Asymmetry_Pilot,2022.1.3,Win32,60.15037594,62c50e9c1127f2cd403a315f,0,10,10,40,1,onetwo,,,,,,,,,,,,,,,,,,,,,,,,,,,,,,,,,,,,,,,,,,,,,,,,,,,,,,,,,,,,,,,,,,,,,,,,,,,,,,,,,,,,,,,,,,,,,,,,,,,,,,,,,,,,,,,,,,,,,,,,,,,,,,,,,,,,,,,,,,,,,,,,,,,,,,,,,,,,,
,,,,,,5fe23f65878eaadb5e2c8ba1,62c53a85deca570d4abc80d5,2022-07-06_09h34.28.387,Colour_Asymmetry_Pilot,2022.1.3,Win32,60.15037594,62c50e9c1127f2cd403a315f,0,11,11,67,1,twofour,,,,,,,,,,,,,,,,,,,,,,,,,,,,,,,,,,,,,,,,,,,,,,,,,,,,,,,,,,,,,,,,,,,,,,,,,,,,,,,,,,,,,,,,,,,,,,,,,,,,,,,,,,,,,,,,,,,,,,,,,,,,,,,,,,,,,,,,,,,,,,,,,,,,,,,,,,,,,
,,,,,,5fe23f65878eaadb5e2c8ba1,62c53a85deca570d4abc80d5,2022-07-06_09h34.28.387,Colour_Asymmetry_Pilot,2022.1.3,Win32,60.15037594,62c50e9c1127f2cd403a315f,0,12,12,142,1,fourtwo,,,,,,,,,,,,,,,,,,,,,,,,,,,,,,,,,,,,,,,,,,,,,,,,,,,,,,,,,,,,,,,,,,,,,,,,,,,,,,,,,,,,,,,,,,,,,,,,,,,,,,,,,,,,,,,,,,,,,,,,,,,,,,,,,,,,,,,,,,,,,,,,,,,,,,,,,,,,,
,,,,,,5fe23f65878eaadb5e2c8ba1,62c53a85deca570d4abc80d5,2022-07-06_09h34.28.387,Colour_Asymmetry_Pilot,2022.1.3,Win32,60.15037594,62c50e9c1127f2cd403a315f,0,13,13,44,1,threeone,,,,,,,,,,,,,,,,,,,,,,,,,,,,,,,,,,,,,,,,,,,,,,,,,,,,,,,,,,,,,,,,,,,,,,,,,,,,,,,,,,,,,,,,,,,,,,,,,,,,,,,,,,,,,,,,,,,,,,,,,,,,,,,,,,,,,,,,,,,,,,,,,,,,,,,,,,,,,
,,,,,,5fe23f65878eaadb5e2c8ba1,62c53a85deca570d4abc80d5,2022-07-06_09h34.28.387,Colour_Asymmetry_Pilot,2022.1.3,Win32,60.15037594,62c50e9c1127f2cd403a315f,0,14,14,139,1,twofour,,,,,,,,,,,,,,,,,,,,,,,,,,,,,,,,,,,,,,,,,,,,,,,,,,,,,,,,,,,,,,,,,,,,,,,,,,,,,,,,,,,,,,,,,,,,,,,,,,,,,,,,,,,,,,,,,,,,,,,,,,,,,,,,,,,,,,,,,,,,,,,,,,,,,,,,,,,,,
,,,,,,5fe23f65878eaadb5e2c8ba1,62c53a85deca570d4abc80d5,2022-07-06_09h34.28.387,Colour_Asymmetry_Pilot,2022.1.3,Win32,60.15037594,62c50e9c1127f2cd403a315f,0,15,15,107,1,twofour,,,,,,,,,,,,,,,,,,,,,,,,,,,,,,,,,,,,,,,,,,,,,,,,,,,,,,,,,,,,,,,,,,,,,,,,,,,,,,,,,,,,,,,,,,,,,,,,,,,,,,,,,,,,,,,,,,,,,,,,,,,,,,,,,,,,,,,,,,,,,,,,,,,,,,,,,,,,,
,,,,,,5fe23f65878eaadb5e2c8ba1,62c53a85deca570d4abc80d5,2022-07-06_09h34.28.387,Colour_Asymmetry_Pilot,2022.1.3,Win32,60.15037594,62c50e9c1127f2cd403a315f,0,16,16,6,1,fourtwo,,,,,,,,,,,,,,,,,,,,,,,,,,,,,,,,,,,,,,,,,,,,,,,,,,,,,,,,,,,,,,,,,,,,,,,,,,,,,,,,,,,,,,,,,,,,,,,,,,,,,,,,,,,,,,,,,,,,,,,,,,,,,,,,,,,,,,,,,,,,,,,,,,,,,,,,,,,,,
,,,,,,5fe23f65878eaadb5e2c8ba1,62c53a85deca570d4abc80d5,2022-07-06_09h34.28.387,Colour_Asymmetry_Pilot,2022.1.3,Win32,60.15037594,62c50e9c1127f2cd403a315f,0,17,17,35,1,twofour,,,,,,,,,,,,,,,,,,,,,,,,,,,,,,,,,,,,,,,,,,,,,,,,,,,,,,,,,,,,,,,,,,,,,,,,,,,,,,,,,,,,,,,,,,,,,,,,,,,,,,,,,,,,,,,,,,,,,,,,,,,,,,,,,,,,,,,,,,,,,,,,,,,,,,,,,,,,,
,,,,,,5fe23f65878eaadb5e2c8ba1,62c53a85deca570d4abc80d5,2022-07-06_09h34.28.387,Colour_Asymmetry_Pilot,2022.1.3,Win32,60.15037594,62c50e9c1127f2cd403a315f,0,18,18,25,1,onethree,,,,,,,,,,,,,,,,,,,,,,,,,,,,,,,,,,,,,,,,,,,,,,,,,,,,,,,,,,,,,,,,,,,,,,,,,,,,,,,,,,,,,,,,,,,,,,,,,,,,,,,,,,,,,,,,,,,,,,,,,,,,,,,,,,,,,,,,,,,,,,,,,,,,,,,,,,,,,
,,,,,,5fe23f65878eaadb5e2c8ba1,62c53a85deca570d4abc80d5,2022-07-06_09h34.28.387,Colour_Asymmetry_Pilot,2022.1.3,Win32,60.15037594,62c50e9c1127f2cd403a315f,0,19,19,96,1,onetwo,,,,,,,,,,,,,,,,,,,,,,,,,,,,,,,,,,,,,,,,,,,,,,,,,,,,,,,,,,,,,,,,,,,,,,,,,,,,,,,,,,,,,,,,,,,,,,,,,,,,,,,,,,,,,,,,,,,,,,,,,,,,,,,,,,,,,,,,,,,,,,,,,,,,,,,,,,,,,
,,,,,,5fe23f65878eaadb5e2c8ba1,62c53a85deca570d4abc80d5,2022-07-06_09h34.28.387,Colour_Asymmetry_Pilot,2022.1.3,Win32,60.15037594,62c50e9c1127f2cd403a315f,0,20,20,124,1,threeone,,,,,,,,,,,,,,,,,,,,,,,,,,,,,,,,,,,,,,,,,,,,,,,,,,,,,,,,,,,,,,,,,,,,,,,,,,,,,,,,,,,,,,,,,,,,,,,,,,,,,,,,,,,,,,,,,,,,,,,,,,,,,,,,,,,,,,,,,,,,,,,,,,,,,,,,,,,,,
,,,,,,5fe23f65878eaadb5e2c8ba1,62c53a85deca570d4abc80d5,2022-07-06_09h34.28.387,Colour_Asymmetry_Pilot,2022.1.3,Win32,60.15037594,62c50e9c1127f2cd403a315f,0,21,21,146,1,twoone,,,,,,,,,,,,,,,,,,,,,,,,,,,,,,,,,,,,,,,,,,,,,,,,,,,,,,,,,,,,,,,,,,,,,,,,,,,,,,,,,,,,,,,,,,,,,,,,,,,,,,,,,,,,,,,,,,,,,,,,,,,,,,,,,,,,,,,,,,,,,,,,,,,,,,,,,,,,,
,,,,,,5fe23f65878eaadb5e2c8ba1,62c53a85deca570d4abc80d5,2022-07-06_09h34.28.387,Colour_Asymmetry_Pilot,2022.1.3,Win32,60.15037594,62c50e9c1127f2cd403a315f,0,22,22,2,1,twoone,,,,,,,,,,,,,,,,,,,,,,,,,,,,,,,,,,,,,,,,,,,,,,,,,,,,,,,,,,,,,,,,,,,,,,,,,,,,,,,,,,,,,,,,,,,,,,,,,,,,,,,,,,,,,,,,,,,,,,,,,,,,,,,,,,,,,,,,,,,,,,,,,,,,,,,,,,,,,
,,,,,,5fe23f65878eaadb5e2c8ba1,62c53a85deca570d4abc80d5,2022-07-06_09h34.28.387,Colour_Asymmetry_Pilot,2022.1.3,Win32,60.15037594,62c50e9c1127f2cd403a315f,0,23,23,56,1,onetwo,,,,,,,,,,,,,,,,,,,,,,,,,,,,,,,,,,,,,,,,,,,,,,,,,,,,,,,,,,,,,,,,,,,,,,,,,,,,,,,,,,,,,,,,,,,,,,,,,,,,,,,,,,,,,,,,,,,,,,,,,,,,,,,,,,,,,,,,,,,,,,,,,,,,,,,,,,,,,
,,,,,,5fe23f65878eaadb5e2c8ba1,62c53a85deca570d4abc80d5,2022-07-06_09h34.28.387,Colour_Asymmetry_Pilot,2022.1.3,Win32,60.15037594,62c50e9c1127f2cd403a315f,0,24,24,16,1,onetwo,,,,,,,,,,,,,,,,,,,,,,,,,,,,,,,,,,,,,,,,,,,,,,,,,,,,,,,,,,,,,,,,,,,,,,,,,,,,,,,,,,,,,,,,,,,,,,,,,,,,,,,,,,,,,,,,,,,,,,,,,,,,,,,,,,,,,,,,,,,,,,,,,,,,,,,,,,,,,
,,,,,,5fe23f65878eaadb5e2c8ba1,62c53a85deca570d4abc80d5,2022-07-06_09h34.28.387,Colour_Asymmetry_Pilot,2022.1.3,Win32,60.15037594,62c50e9c1127f2cd403a315f,0,25,25,87,1,fourthree,,,,,,,,,,,,,,,,,,,,,,,,,,,,,,,,,,,,,,,,,,,,,,,,,,,,,,,,,,,,,,,,,,,,,,,,,,,,,,,,,,,,,,,,,,,,,,,,,,,,,,,,,,,,,,,,,,,,,,,,,,,,,,,,,,,,,,,,,,,,,,,,,,,,,,,,,,,,,
,,,,,,5fe23f65878eaadb5e2c8ba1,62c53a85deca570d4abc80d5,2022-07-06_09h34.28.387,Colour_Asymmetry_Pilot,2022.1.3,Win32,60.15037594,62c50e9c1127f2cd403a315f,0,26,26,57,1,onethree,,,,,,,,,,,,,,,,,,,,,,,,,,,,,,,,,,,,,,,,,,,,,,,,,,,,,,,,,,,,,,,,,,,,,,,,,,,,,,,,,,,,,,,,,,,,,,,,,,,,,,,,,,,,,,,,,,,,,,,,,,,,,,,,,,,,,,,,,,,,,,,,,,,,,,,,,,,,,
,,,,,,5fe23f65878eaadb5e2c8ba1,62c53a85deca570d4abc80d5,2022-07-06_09h34.28.387,Colour_Asymmetry_Pilot,2022.1.3,Win32,60.15037594,62c50e9c1127f2cd403a315f,0,27,27,36,1,threeone,,,,,,,,,,,,,,,,,,,,,,,,,,,,,,,,,,,,,,,,,,,,,,,,,,,,,,,,,,,,,,,,,,,,,,,,,,,,,,,,,,,,,,,,,,,,,,,,,,,,,,,,,,,,,,,,,,,,,,,,,,,,,,,,,,,,,,,,,,,,,,,,,,,,,,,,,,,,,
,,,,,,5fe23f65878eaadb5e2c8ba1,62c53a85deca570d4abc80d5,2022-07-06_09h34.28.387,Colour_Asymmetry_Pilot,2022.1.3,Win32,60.15037594,62c50e9c1127f2cd403a315f,0,28,28,17,1,onethree,,,,,,,,,,,,,,,,,,,,,,,,,,,,,,,,,,,,,,,,,,,,,,,,,,,,,,,,,,,,,,,,,,,,,,,,,,,,,,,,,,,,,,,,,,,,,,,,,,,,,,,,,,,,,,,,,,,,,,,,,,,,,,,,,,,,,,,,,,,,,,,,,,,,,,,,,,,,,
,,,,,,5fe23f65878eaadb5e2c8ba1,62c53a85deca570d4abc80d5,2022-07-06_09h34.28.387,Colour_Asymmetry_Pilot,2022.1.3,Win32,60.15037594,62c50e9c1127f2cd403a315f,0,29,29,37,1,threefour,,,,,,,,,,,,,,,,,,,,,,,,,,,,,,,,,,,,,,,,,,,,,,,,,,,,,,,,,,,,,,,,,,,,,,,,,,,,,,,,,,,,,,,,,,,,,,,,,,,,,,,,,,,,,,,,,,,,,,,,,,,,,,,,,,,,,,,,,,,,,,,,,,,,,,,,,,,,,
,,,,,,5fe23f65878eaadb5e2c8ba1,62c53a85deca570d4abc80d5,2022-07-06_09h34.28.387,Colour_Asymmetry_Pilot,2022.1.3,Win32,60.15037594,62c50e9c1127f2cd403a315f,0,30,30,45,1,threefour,,,,,,,,,,,,,,,,,,,,,,,,,,,,,,,,,,,,,,,,,,,,,,,,,,,,,,,,,,,,,,,,,,,,,,,,,,,,,,,,,,,,,,,,,,,,,,,,,,,,,,,,,,,,,,,,,,,,,,,,,,,,,,,,,,,,,,,,,,,,,,,,,,,,,,,,,,,,,
,,,,,,5fe23f65878eaadb5e2c8ba1,62c53a85deca570d4abc80d5,2022-07-06_09h34.28.387,Colour_Asymmetry_Pilot,2022.1.3,Win32,60.15037594,62c50e9c1127f2cd403a315f,0,31,31,110,1,fourtwo,,,,,,,,,,,,,,,,,,,,,,,,,,,,,,,,,,,,,,,,,,,,,,,,,,,,,,,,,,,,,,,,,,,,,,,,,,,,,,,,,,,,,,,,,,,,,,,,,,,,,,,,,,,,,,,,,,,,,,,,,,,,,,,,,,,,,,,,,,,,,,,,,,,,,,,,,,,,,
,,,,,,5fe23f65878eaadb5e2c8ba1,62c53a85deca570d4abc80d5,2022-07-06_09h34.28.387,Colour_Asymmetry_Pilot,2022.1.3,Win32,60.15037594,62c50e9c1127f2cd403a315f,0,32,32,159,1,fourthree,,,,,,,,,,,,,,,,,,,,,,,,,,,,,,,,,,,,,,,,,,,,,,,,,,,,,,,,,,,,,,,,,,,,,,,,,,,,,,,,,,,,,,,,,,,,,,,,,,,,,,,,,,,,,,,,,,,,,,,,,,,,,,,,,,,,,,,,,,,,,,,,,,,,,,,,,,,,,
,,,,,,5fe23f65878eaadb5e2c8ba1,62c53a85deca570d4abc80d5,2022-07-06_09h34.28.387,Colour_Asymmetry_Pilot,2022.1.3,Win32,60.15037594,62c50e9c1127f2cd403a315f,0,33,33,160,1,onetwo,,,,,,,,,,,,,,,,,,,,,,,,,,,,,,,,,,,,,,,,,,,,,,,,,,,,,,,,,,,,,,,,,,,,,,,,,,,,,,,,,,,,,,,,,,,,,,,,,,,,,,,,,,,,,,,,,,,,,,,,,,,,,,,,,,,,,,,,,,,,,,,,,,,,,,,,,,,,,
,,,,,,5fe23f65878eaadb5e2c8ba1,62c53a85deca570d4abc80d5,2022-07-06_09h34.28.387,Colour_Asymmetry_Pilot,2022.1.3,Win32,60.15037594,62c50e9c1127f2cd403a315f,0,34,34,89,1,onethree,,,,,,,,,,,,,,,,,,,,,,,,,,,,,,,,,,,,,,,,,,,,,,,,,,,,,,,,,,,,,,,,,,,,,,,,,,,,,,,,,,,,,,,,,,,,,,,,,,,,,,,,,,,,,,,,,,,,,,,,,,,,,,,,,,,,,,,,,,,,,,,,,,,,,,,,,,,,,
,,,,,,5fe23f65878eaadb5e2c8ba1,62c53a85deca570d4abc80d5,2022-07-06_09h34.28.387,Colour_Asymmetry_Pilot,2022.1.3,Win32,60.15037594,62c50e9c1127f2cd403a315f,0,35,35,100,1,threeone,,,,,,,,,,,,,,,,,,,,,,,,,,,,,,,,,,,,,,,,,,,,,,,,,,,,,,,,,,,,,,,,,,,,,,,,,,,,,,,,,,,,,,,,,,,,,,,,,,,,,,,,,,,,,,,,,,,,,,,,,,,,,,,,,,,,,,,,,,,,,,,,,,,,,,,,,,,,,
,,,,,,5fe23f65878eaadb5e2c8ba1,62c53a85deca570d4abc80d5,2022-07-06_09h34.28.387,Colour_Asymmetry_Pilot,2022.1.3,Win32,60.15037594,62c50e9c1127f2cd403a315f,0,36,36,7,1,fourthree,,,,,,,,,,,,,,,,,,,,,,,,,,,,,,,,,,,,,,,,,,,,,,,,,,,,,,,,,,,,,,,,,,,,,,,,,,,,,,,,,,,,,,,,,,,,,,,,,,,,,,,,,,,,,,,,,,,,,,,,,,,,,,,,,,,,,,,,,,,,,,,,,,,,,,,,,,,,,
,,,,,,5fe23f65878eaadb5e2c8ba1,62c53a85deca570d4abc80d5,2022-07-06_09h34.28.387,Colour_Asymmetry_Pilot,2022.1.3,Win32,60.15037594,62c50e9c1127f2cd403a315f,0,37,37,129,1,onethree,,,,,,,,,,,,,,,,,,,,,,,,,,,,,,,,,,,,,,,,,,,,,,,,,,,,,,,,,,,,,,,,,,,,,,,,,,,,,,,,,,,,,,,,,,,,,,,,,,,,,,,,,,,,,,,,,,,,,,,,,,,,,,,,,,,,,,,,,,,,,,,,,,,,,,,,,,,,,
,,,,,,5fe23f65878eaadb5e2c8ba1,62c53a85deca570d4abc80d5,2022-07-06_09h34.28.387,Colour_Asymmetry_Pilot,2022.1.3,Win32,60.15037594,62c50e9c1127f2cd403a315f,0,38,38,133,1,threefour,,,,,,,,,,,,,,,,,,,,,,,,,,,,,,,,,,,,,,,,,,,,,,,,,,,,,,,,,,,,,,,,,,,,,,,,,,,,,,,,,,,,,,,,,,,,,,,,,,,,,,,,,,,,,,,,,,,,,,,,,,,,,,,,,,,,,,,,,,,,,,,,,,,,,,,,,,,,,
,,,,,,5fe23f65878eaadb5e2c8ba1,62c53a85deca570d4abc80d5,2022-07-06_09h34.28.387,Colour_Asymmetry_Pilot,2022.1.3,Win32,60.15037594,62c50e9c1127f2cd403a315f,0,39,39,122,1,twoone,,,,,,,,,,,,,,,,,,,,,,,,,,,,,,,,,,,,,,,,,,,,,,,,,,,,,,,,,,,,,,,,,,,,,,,,,,,,,,,,,,,,,,,,,,,,,,,,,,,,,,,,,,,,,,,,,,,,,,,,,,,,,,,,,,,,,,,,,,,,,,,,,,,,,,,,,,,,,
,,,,,,5fe23f65878eaadb5e2c8ba1,62c53a85deca570d4abc80d5,2022-07-06_09h34.28.387,Colour_Asymmetry_Pilot,2022.1.3,Win32,60.15037594,62c50e9c1127f2cd403a315f,0,40,40,149,1,threefour,,,,,,,,,,,,,,,,,,,,,,,,,,,,,,,,,,,,,,,,,,,,,,,,,,,,,,,,,,,,,,,,,,,,,,,,,,,,,,,,,,,,,,,,,,,,,,,,,,,,,,,,,,,,,,,,,,,,,,,,,,,,,,,,,,,,,,,,,,,,,,,,,,,,,,,,,,,,,
,,,,,,5fe23f65878eaadb5e2c8ba1,62c53a85deca570d4abc80d5,2022-07-06_09h34.28.387,Colour_Asymmetry_Pilot,2022.1.3,Win32,60.15037594,62c50e9c1127f2cd403a315f,0,41,41,78,1,fourtwo,,,,,,,,,,,,,,,,,,,,,,,,,,,,,,,,,,,,,,,,,,,,,,,,,,,,,,,,,,,,,,,,,,,,,,,,,,,,,,,,,,,,,,,,,,,,,,,,,,,,,,,,,,,,,,,,,,,,,,,,,,,,,,,,,,,,,,,,,,,,,,,,,,,,,,,,,,,,,
,,,,,,5fe23f65878eaadb5e2c8ba1,62c53a85deca570d4abc80d5,2022-07-06_09h34.28.387,Colour_Asymmetry_Pilot,2022.1.3,Win32,60.15037594,62c50e9c1127f2cd403a315f,0,42,42,21,1,threefour,,,,,,,,,,,,,,,,,,,,,,,,,,,,,,,,,,,,,,,,,,,,,,,,,,,,,,,,,,,,,,,,,,,,,,,,,,,,,,,,,,,,,,,,,,,,,,,,,,,,,,,,,,,,,,,,,,,,,,,,,,,,,,,,,,,,,,,,,,,,,,,,,,,,,,,,,,,,,
,,,,,,5fe23f65878eaadb5e2c8ba1,62c53a85deca570d4abc80d5,2022-07-06_09h34.28.387,Colour_Asymmetry_Pilot,2022.1.3,Win32,60.15037594,62c50e9c1127f2cd403a315f,0,43,43,65,1,onethree,,,,,,,,,,,,,,,,,,,,,,,,,,,,,,,,,,,,,,,,,,,,,,,,,,,,,,,,,,,,,,,,,,,,,,,,,,,,,,,,,,,,,,,,,,,,,,,,,,,,,,,,,,,,,,,,,,,,,,,,,,,,,,,,,,,,,,,,,,,,,,,,,,,,,,,,,,,,,
,,,,,,5fe23f65878eaadb5e2c8ba1,62c53a85deca570d4abc80d5,2022-07-06_09h34.28.387,Colour_Asymmetry_Pilot,2022.1.3,Win32,60.15037594,62c50e9c1127f2cd403a315f,0,44,44,90,1,twoone,,,,,,,,,,,,,,,,,,,,,,,,,,,,,,,,,,,,,,,,,,,,,,,,,,,,,,,,,,,,,,,,,,,,,,,,,,,,,,,,,,,,,,,,,,,,,,,,,,,,,,,,,,,,,,,,,,,,,,,,,,,,,,,,,,,,,,,,,,,,,,,,,,,,,,,,,,,,,
,,,,,,5fe23f65878eaadb5e2c8ba1,62c53a85deca570d4abc80d5,2022-07-06_09h34.28.387,Colour_Asymmetry_Pilot,2022.1.3,Win32,60.15037594,62c50e9c1127f2cd403a315f,0,45,45,64,1,onetwo,,,,,,,,,,,,,,,,,,,,,,,,,,,,,,,,,,,,,,,,,,,,,,,,,,,,,,,,,,,,,,,,,,,,,,,,,,,,,,,,,,,,,,,,,,,,,,,,,,,,,,,,,,,,,,,,,,,,,,,,,,,,,,,,,,,,,,,,,,,,,,,,,,,,,,,,,,,,,
,,,,,,5fe23f65878eaadb5e2c8ba1,62c53a85deca570d4abc80d5,2022-07-06_09h34.28.387,Colour_Asymmetry_Pilot,2022.1.3,Win32,60.15037594,62c50e9c1127f2cd403a315f,0,46,46,52,1,threeone,,,,,,,,,,,,,,,,,,,,,,,,,,,,,,,,,,,,,,,,,,,,,,,,,,,,,,,,,,,,,,,,,,,,,,,,,,,,,,,,,,,,,,,,,,,,,,,,,,,,,,,,,,,,,,,,,,,,,,,,,,,,,,,,,,,,,,,,,,,,,,,,,,,,,,,,,,,,,
,,,,,,5fe23f65878eaadb5e2c8ba1,62c53a85deca570d4abc80d5,2022-07-06_09h34.28.387,Colour_Asymmetry_Pilot,2022.1.3,Win32,60.15037594,62c50e9c1127f2cd403a315f,0,47,47,63,1,fourthree,,,,,,,,,,,,,,,,,,,,,,,,,,,,,,,,,,,,,,,,,,,,,,,,,,,,,,,,,,,,,,,,,,,,,,,,,,,,,,,,,,,,,,,,,,,,,,,,,,,,,,,,,,,,,,,,,,,,,,,,,,,,,,,,,,,,,,,,,,,,,,,,,,,,,,,,,,,,,
,,,,,,5fe23f65878eaadb5e2c8ba1,62c53a85deca570d4abc80d5,2022-07-06_09h34.28.387,Colour_Asymmetry_Pilot,2022.1.3,Win32,60.15037594,62c50e9c1127f2cd403a315f,0,48,48,72,1,onetwo,,,,,,,,,,,,,,,,,,,,,,,,,,,,,,,,,,,,,,,,,,,,,,,,,,,,,,,,,,,,,,,,,,,,,,,,,,,,,,,,,,,,,,,,,,,,,,,,,,,,,,,,,,,,,,,,,,,,,,,,,,,,,,,,,,,,,,,,,,,,,,,,,,,,,,,,,,,,,
,,,,,,5fe23f65878eaadb5e2c8ba1,62c53a85deca570d4abc80d5,2022-07-06_09h34.28.387,Colour_Asymmetry_Pilot,2022.1.3,Win32,60.15037594,62c50e9c1127f2cd403a315f,0,49,49,134,1,fourtwo,,,,,,,,,,,,,,,,,,,,,,,,,,,,,,,,,,,,,,,,,,,,,,,,,,,,,,,,,,,,,,,,,,,,,,,,,,,,,,,,,,,,,,,,,,,,,,,,,,,,,,,,,,,,,,,,,,,,,,,,,,,,,,,,,,,,,,,,,,,,,,,,,,,,,,,,,,,,,
,,,,,,5fe23f65878eaadb5e2c8ba1,62c53a85deca570d4abc80d5,2022-07-06_09h34.28.387,Colour_Asymmetry_Pilot,2022.1.3,Win32,60.15037594,62c50e9c1127f2cd403a315f,0,50,50,0,1,onetwo,,,,,,,,,,,,,,,,,,,,,,,,,,,,,,,,,,,,,,,,,,,,,,,,,,,,,,,,,,,,,,,,,,,,,,,,,,,,,,,,,,,,,,,,,,,,,,,,,,,,,,,,,,,,,,,,,,,,,,,,,,,,,,,,,,,,,,,,,,,,,,,,,,,,,,,,,,,,,
,,,,,,5fe23f65878eaadb5e2c8ba1,62c53a85deca570d4abc80d5,2022-07-06_09h34.28.387,Colour_Asymmetry_Pilot,2022.1.3,Win32,60.15037594,62c50e9c1127f2cd403a315f,0,51,51,5,1,threefour,,,,,,,,,,,,,,,,,,,,,,,,,,,,,,,,,,,,,,,,,,,,,,,,,,,,,,,,,,,,,,,,,,,,,,,,,,,,,,,,,,,,,,,,,,,,,,,,,,,,,,,,,,,,,,,,,,,,,,,,,,,,,,,,,,,,,,,,,,,,,,,,,,,,,,,,,,,,,
,,,,,,5fe23f65878eaadb5e2c8ba1,62c53a85deca570d4abc80d5,2022-07-06_09h34.28.387,Colour_Asymmetry_Pilot,2022.1.3,Win32,60.15037594,62c50e9c1127f2cd403a315f,0,52,52,85,1,threefour,,,,,,,,,,,,,,,,,,,,,,,,,,,,,,,,,,,,,,,,,,,,,,,,,,,,,,,,,,,,,,,,,,,,,,,,,,,,,,,,,,,,,,,,,,,,,,,,,,,,,,,,,,,,,,,,,,,,,,,,,,,,,,,,,,,,,,,,,,,,,,,,,,,,,,,,,,,,,
,,,,,,5fe23f65878eaadb5e2c8ba1,62c53a85deca570d4abc80d5,2022-07-06_09h34.28.387,Colour_Asymmetry_Pilot,2022.1.3,Win32,60.15037594,62c50e9c1127f2cd403a315f,0,53,53,41,1,onethree,,,,,,,,,,,,,,,,,,,,,,,,,,,,,,,,,,,,,,,,,,,,,,,,,,,,,,,,,,,,,,,,,,,,,,,,,,,,,,,,,,,,,,,,,,,,,,,,,,,,,,,,,,,,,,,,,,,,,,,,,,,,,,,,,,,,,,,,,,,,,,,,,,,,,,,,,,,,,
,,,,,,5fe23f65878eaadb5e2c8ba1,62c53a85deca570d4abc80d5,2022-07-06_09h34.28.387,Colour_Asymmetry_Pilot,2022.1.3,Win32,60.15037594,62c50e9c1127f2cd403a315f,0,54,54,10,1,twoone,,,,,,,,,,,,,,,,,,,,,,,,,,,,,,,,,,,,,,,,,,,,,,,,,,,,,,,,,,,,,,,,,,,,,,,,,,,,,,,,,,,,,,,,,,,,,,,,,,,,,,,,,,,,,,,,,,,,,,,,,,,,,,,,,,,,,,,,,,,,,,,,,,,,,,,,,,,,,
,,,,,,5fe23f65878eaadb5e2c8ba1,62c53a85deca570d4abc80d5,2022-07-06_09h34.28.387,Colour_Asymmetry_Pilot,2022.1.3,Win32,60.15037594,62c50e9c1127f2cd403a315f,0,55,55,154,1,twoone,,,,,,,,,,,,,,,,,,,,,,,,,,,,,,,,,,,,,,,,,,,,,,,,,,,,,,,,,,,,,,,,,,,,,,,,,,,,,,,,,,,,,,,,,,,,,,,,,,,,,,,,,,,,,,,,,,,,,,,,,,,,,,,,,,,,,,,,,,,,,,,,,,,,,,,,,,,,,
,,,,,,5fe23f65878eaadb5e2c8ba1,62c53a85deca570d4abc80d5,2022-07-06_09h34.28.387,Colour_Asymmetry_Pilot,2022.1.3,Win32,60.15037594,62c50e9c1127f2cd403a315f,0,56,56,80,1,onetwo,,,,,,,,,,,,,,,,,,,,,,,,,,,,,,,,,,,,,,,,,,,,,,,,,,,,,,,,,,,,,,,,,,,,,,,,,,,,,,,,,,,,,,,,,,,,,,,,,,,,,,,,,,,,,,,,,,,,,,,,,,,,,,,,,,,,,,,,,,,,,,,,,,,,,,,,,,,,,
,,,,,,5fe23f65878eaadb5e2c8ba1,62c53a85deca570d4abc80d5,2022-07-06_09h34.28.387,Colour_Asymmetry_Pilot,2022.1.3,Win32,60.15037594,62c50e9c1127f2cd403a315f,0,57,57,39,1,fourthree,,,,,,,,,,,,,,,,,,,,,,,,,,,,,,,,,,,,,,,,,,,,,,,,,,,,,,,,,,,,,,,,,,,,,,,,,,,,,,,,,,,,,,,,,,,,,,,,,,,,,,,,,,,,,,,,,,,,,,,,,,,,,,,,,,,,,,,,,,,,,,,,,,,,,,,,,,,,,
,,,,,,5fe23f65878eaadb5e2c8ba1,62c53a85deca570d4abc80d5,2022-07-06_09h34.28.387,Colour_Asymmetry_Pilot,2022.1.3,Win32,60.15037594,62c50e9c1127f2cd403a315f,0,58,58,86,1,fourtwo,,,,,,,,,,,,,,,,,,,,,,,,,,,,,,,,,,,,,,,,,,,,,,,,,,,,,,,,,,,,,,,,,,,,,,,,,,,,,,,,,,,,,,,,,,,,,,,,,,,,,,,,,,,,,,,,,,,,,,,,,,,,,,,,,,,,,,,,,,,,,,,,,,,,,,,,,,,,,
,,,,,,5fe23f65878eaadb5e2c8ba1,62c53a85deca570d4abc80d5,2022-07-06_09h34.28.387,Colour_Asymmetry_Pilot,2022.1.3,Win32,60.15037594,62c50e9c1127f2cd403a315f,0,59,59,128,1,onetwo,,,,,,,,,,,,,,,,,,,,,,,,,,,,,,,,,,,,,,,,,,,,,,,,,,,,,,,,,,,,,,,,,,,,,,,,,,,,,,,,,,,,,,,,,,,,,,,,,,,,,,,,,,,,,,,,,,,,,,,,,,,,,,,,,,,,,,,,,,,,,,,,,,,,,,,,,,,,,
,,,,,,5fe23f65878eaadb5e2c8ba1,62c53a85deca570d4abc80d5,2022-07-06_09h34.28.387,Colour_Asymmetry_Pilot,2022.1.3,Win32,60.15037594,62c50e9c1127f2cd403a315f,0,60,60,24,1,onetwo,,,,,,,,,,,,,,,,,,,,,,,,,,,,,,,,,,,,,,,,,,,,,,,,,,,,,,,,,,,,,,,,,,,,,,,,,,,,,,,,,,,,,,,,,,,,,,,,,,,,,,,,,,,,,,,,,,,,,,,,,,,,,,,,,,,,,,,,,,,,,,,,,,,,,,,,,,,,,
,,,,,,5fe23f65878eaadb5e2c8ba1,62c53a85deca570d4abc80d5,2022-07-06_09h34.28.387,Colour_Asymmetry_Pilot,2022.1.3,Win32,60.15037594,62c50e9c1127f2cd403a315f,0,61,61,109,1,threefour,,,,,,,,,,,,,,,,,,,,,,,,,,,,,,,,,,,,,,,,,,,,,,,,,,,,,,,,,,,,,,,,,,,,,,,,,,,,,,,,,,,,,,,,,,,,,,,,,,,,,,,,,,,,,,,,,,,,,,,,,,,,,,,,,,,,,,,,,,,,,,,,,,,,,,,,,,,,,
,,,,,,5fe23f65878eaadb5e2c8ba1,62c53a85deca570d4abc80d5,2022-07-06_09h34.28.387,Colour_Asymmetry_Pilot,2022.1.3,Win32,60.15037594,62c50e9c1127f2cd403a315f,0,62,62,26,1,twoone,,,,,,,,,,,,,,,,,,,,,,,,,,,,,,,,,,,,,,,,,,,,,,,,,,,,,,,,,,,,,,,,,,,,,,,,,,,,,,,,,,,,,,,,,,,,,,,,,,,,,,,,,,,,,,,,,,,,,,,,,,,,,,,,,,,,,,,,,,,,,,,,,,,,,,,,,,,,,
,,,,,,5fe23f65878eaadb5e2c8ba1,62c53a85deca570d4abc80d5,2022-07-06_09h34.28.387,Colour_Asymmetry_Pilot,2022.1.3,Win32,60.15037594,62c50e9c1127f2cd403a315f,0,63,63,132,1,threeone,,,,,,,,,,,,,,,,,,,,,,,,,,,,,,,,,,,,,,,,,,,,,,,,,,,,,,,,,,,,,,,,,,,,,,,,,,,,,,,,,,,,,,,,,,,,,,,,,,,,,,,,,,,,,,,,,,,,,,,,,,,,,,,,,,,,,,,,,,,,,,,,,,,,,,,,,,,,,
,,,,,,5fe23f65878eaadb5e2c8ba1,62c53a85deca570d4abc80d5,2022-07-06_09h34.28.387,Colour_Asymmetry_Pilot,2022.1.3,Win32,60.15037594,62c50e9c1127f2cd403a315f,0,64,64,30,1,fourtwo,,,,,,,,,,,,,,,,,,,,,,,,,,,,,,,,,,,,,,,,,,,,,,,,,,,,,,,,,,,,,,,,,,,,,,,,,,,,,,,,,,,,,,,,,,,,,,,,,,,,,,,,,,,,,,,,,,,,,,,,,,,,,,,,,,,,,,,,,,,,,,,,,,,,,,,,,,,,,
,,,,,,5fe23f65878eaadb5e2c8ba1,62c53a85deca570d4abc80d5,2022-07-06_09h34.28.387,Colour_Asymmetry_Pilot,2022.1.3,Win32,60.15037594,62c50e9c1127f2cd403a315f,0,65,65,60,1,threeone,,,,,,,,,,,,,,,,,,,,,,,,,,,,,,,,,,,,,,,,,,,,,,,,,,,,,,,,,,,,,,,,,,,,,,,,,,,,,,,,,,,,,,,,,,,,,,,,,,,,,,,,,,,,,,,,,,,,,,,,,,,,,,,,,,,,,,,,,,,,,,,,,,,,,,,,,,,,,
,,,,,,5fe23f65878eaadb5e2c8ba1,62c53a85deca570d4abc80d5,2022-07-06_09h34.28.387,Colour_Asymmetry_Pilot,2022.1.3,Win32,60.15037594,62c50e9c1127f2cd403a315f,0,66,66,140,1,threeone,,,,,,,,,,,,,,,,,,,,,,,,,,,,,,,,,,,,,,,,,,,,,,,,,,,,,,,,,,,,,,,,,,,,,,,,,,,,,,,,,,,,,,,,,,,,,,,,,,,,,,,,,,,,,,,,,,,,,,,,,,,,,,,,,,,,,,,,,,,,,,,,,,,,,,,,,,,,,
,,,,,,5fe23f65878eaadb5e2c8ba1,62c53a85deca570d4abc80d5,2022-07-06_09h34.28.387,Colour_Asymmetry_Pilot,2022.1.3,Win32,60.15037594,62c50e9c1127f2cd403a315f,0,67,67,19,1,twofour,,,,,,,,,,,,,,,,,,,,,,,,,,,,,,,,,,,,,,,,,,,,,,,,,,,,,,,,,,,,,,,,,,,,,,,,,,,,,,,,,,,,,,,,,,,,,,,,,,,,,,,,,,,,,,,,,,,,,,,,,,,,,,,,,,,,,,,,,,,,,,,,,,,,,,,,,,,,,
,,,,,,5fe23f65878eaadb5e2c8ba1,62c53a85deca570d4abc80d5,2022-07-06_09h34.28.387,Colour_Asymmetry_Pilot,2022.1.3,Win32,60.15037594,62c50e9c1127f2cd403a315f,0,68,68,119,1,fourthree,,,,,,,,,,,,,,,,,,,,,,,,,,,,,,,,,,,,,,,,,,,,,,,,,,,,,,,,,,,,,,,,,,,,,,,,,,,,,,,,,,,,,,,,,,,,,,,,,,,,,,,,,,,,,,,,,,,,,,,,,,,,,,,,,,,,,,,,,,,,,,,,,,,,,,,,,,,,,
,,,,,,5fe23f65878eaadb5e2c8ba1,62c53a85deca570d4abc80d5,2022-07-06_09h34.28.387,Colour_Asymmetry_Pilot,2022.1.3,Win32,60.15037594,62c50e9c1127f2cd403a315f,0,69,69,92,1,threeone,,,,,,,,,,,,,,,,,,,,,,,,,,,,,,,,,,,,,,,,,,,,,,,,,,,,,,,,,,,,,,,,,,,,,,,,,,,,,,,,,,,,,,,,,,,,,,,,,,,,,,,,,,,,,,,,,,,,,,,,,,,,,,,,,,,,,,,,,,,,,,,,,,,,,,,,,,,,,
,,,,,,5fe23f65878eaadb5e2c8ba1,62c53a85deca570d4abc80d5,2022-07-06_09h34.28.387,Colour_Asymmetry_Pilot,2022.1.3,Win32,60.15037594,62c50e9c1127f2cd403a315f,0,70,70,12,1,threeone,,,,,,,,,,,,,,,,,,,,,,,,,,,,,,,,,,,,,,,,,,,,,,,,,,,,,,,,,,,,,,,,,,,,,,,,,,,,,,,,,,,,,,,,,,,,,,,,,,,,,,,,,,,,,,,,,,,,,,,,,,,,,,,,,,,,,,,,,,,,,,,,,,,,,,,,,,,,,
,,,,,,5fe23f65878eaadb5e2c8ba1,62c53a85deca570d4abc80d5,2022-07-06_09h34.28.387,Colour_Asymmetry_Pilot,2022.1.3,Win32,60.15037594,62c50e9c1127f2cd403a315f,0,71,71,59,1,twofour,,,,,,,,,,,,,,,,,,,,,,,,,,,,,,,,,,,,,,,,,,,,,,,,,,,,,,,,,,,,,,,,,,,,,,,,,,,,,,,,,,,,,,,,,,,,,,,,,,,,,,,,,,,,,,,,,,,,,,,,,,,,,,,,,,,,,,,,,,,,,,,,,,,,,,,,,,,,,
,,,,,,5fe23f65878eaadb5e2c8ba1,62c53a85deca570d4abc80d5,2022-07-06_09h34.28.387,Colour_Asymmetry_Pilot,2022.1.3,Win32,60.15037594,62c50e9c1127f2cd403a315f,0,72,72,48,1,onetwo,,,,,,,,,,,,,,,,,,,,,,,,,,,,,,,,,,,,,,,,,,,,,,,,,,,,,,,,,,,,,,,,,,,,,,,,,,,,,,,,,,,,,,,,,,,,,,,,,,,,,,,,,,,,,,,,,,,,,,,,,,,,,,,,,,,,,,,,,,,,,,,,,,,,,,,,,,,,,
,,,,,,5fe23f65878eaadb5e2c8ba1,62c53a85deca570d4abc80d5,2022-07-06_09h34.28.387,Colour_Asymmetry_Pilot,2022.1.3,Win32,60.15037594,62c50e9c1127f2cd403a315f,0,73,73,108,1,threeone,,,,,,,,,,,,,,,,,,,,,,,,,,,,,,,,,,,,,,,,,,,,,,,,,,,,,,,,,,,,,,,,,,,,,,,,,,,,,,,,,,,,,,,,,,,,,,,,,,,,,,,,,,,,,,,,,,,,,,,,,,,,,,,,,,,,,,,,,,,,,,,,,,,,,,,,,,,,,
,,,,,,5fe23f65878eaadb5e2c8ba1,62c53a85deca570d4abc80d5,2022-07-06_09h34.28.387,Colour_Asymmetry_Pilot,2022.1.3,Win32,60.15037594,62c50e9c1127f2cd403a315f,0,74,74,152,1,onetwo,,,,,,,,,,,,,,,,,,,,,,,,,,,,,,,,,,,,,,,,,,,,,,,,,,,,,,,,,,,,,,,,,,,,,,,,,,,,,,,,,,,,,,,,,,,,,,,,,,,,,,,,,,,,,,,,,,,,,,,,,,,,,,,,,,,,,,,,,,,,,,,,,,,,,,,,,,,,,
,,,,,,5fe23f65878eaadb5e2c8ba1,62c53a85deca570d4abc80d5,2022-07-06_09h34.28.387,Colour_Asymmetry_Pilot,2022.1.3,Win32,60.15037594,62c50e9c1127f2cd403a315f,0,75,75,145,1,onethree,,,,,,,,,,,,,,,,,,,,,,,,,,,,,,,,,,,,,,,,,,,,,,,,,,,,,,,,,,,,,,,,,,,,,,,,,,,,,,,,,,,,,,,,,,,,,,,,,,,,,,,,,,,,,,,,,,,,,,,,,,,,,,,,,,,,,,,,,,,,,,,,,,,,,,,,,,,,,
,,,,,,5fe23f65878eaadb5e2c8ba1,62c53a85deca570d4abc80d5,2022-07-06_09h34.28.387,Colour_Asymmetry_Pilot,2022.1.3,Win32,60.15037594,62c50e9c1127f2cd403a315f,0,76,76,150,1,fourtwo,,,,,,,,,,,,,,,,,,,,,,,,,,,,,,,,,,,,,,,,,,,,,,,,,,,,,,,,,,,,,,,,,,,,,,,,,,,,,,,,,,,,,,,,,,,,,,,,,,,,,,,,,,,,,,,,,,,,,,,,,,,,,,,,,,,,,,,,,,,,,,,,,,,,,,,,,,,,,
,,,,,,5fe23f65878eaadb5e2c8ba1,62c53a85deca570d4abc80d5,2022-07-06_09h34.28.387,Colour_Asymmetry_Pilot,2022.1.3,Win32,60.15037594,62c50e9c1127f2cd403a315f,0,77,77,32,1,onetwo,,,,,,,,,,,,,,,,,,,,,,,,,,,,,,,,,,,,,,,,,,,,,,,,,,,,,,,,,,,,,,,,,,,,,,,,,,,,,,,,,,,,,,,,,,,,,,,,,,,,,,,,,,,,,,,,,,,,,,,,,,,,,,,,,,,,,,,,,,,,,,,,,,,,,,,,,,,,,
,,,,,,5fe23f65878eaadb5e2c8ba1,62c53a85deca570d4abc80d5,2022-07-06_09h34.28.387,Colour_Asymmetry_Pilot,2022.1.3,Win32,60.15037594,62c50e9c1127f2cd403a315f,0,78,78,13,1,threefour,,,,,,,,,,,,,,,,,,,,,,,,,,,,,,,,,,,,,,,,,,,,,,,,,,,,,,,,,,,,,,,,,,,,,,,,,,,,,,,,,,,,,,,,,,,,,,,,,,,,,,,,,,,,,,,,,,,,,,,,,,,,,,,,,,,,,,,,,,,,,,,,,,,,,,,,,,,,,
,,,,,,5fe23f65878eaadb5e2c8ba1,62c53a85deca570d4abc80d5,2022-07-06_09h34.28.387,Colour_Asymmetry_Pilot,2022.1.3,Win32,60.15037594,62c50e9c1127f2cd403a315f,0,79,79,148,1,threeone,,,,,,,,,,,,,,,,,,,,,,,,,,,,,,,,,,,,,,,,,,,,,,,,,,,,,,,,,,,,,,,,,,,,,,,,,,,,,,,,,,,,,,,,,,,,,,,,,,,,,,,,,,,,,,,,,,,,,,,,,,,,,,,,,,,,,,,,,,,,,,,,,,,,,,,,,,,,,
,,,,,,5fe23f65878eaadb5e2c8ba1,62c53a85deca570d4abc80d5,2022-07-06_09h34.28.387,Colour_Asymmetry_Pilot,2022.1.3,Win32,60.15037594,62c50e9c1127f2cd403a315f,0,80,80,153,1,onethree,,,,,,,,,,,,,,,,,,,,,,,,,,,,,,,,,,,,,,,,,,,,,,,,,,,,,,,,,,,,,,,,,,,,,,,,,,,,,,,,,,,,,,,,,,,,,,,,,,,,,,,,,,,,,,,,,,,,,,,,,,,,,,,,,,,,,,,,,,,,,,,,,,,,,,,,,,,,,
,,,,,,5fe23f65878eaadb5e2c8ba1,62c53a85deca570d4abc80d5,2022-07-06_09h34.28.387,Colour_Asymmetry_Pilot,2022.1.3,Win32,60.15037594,62c50e9c1127f2cd403a315f,0,81,81,20,1,threeone,,,,,,,,,,,,,,,,,,,,,,,,,,,,,,,,,,,,,,,,,,,,,,,,,,,,,,,,,,,,,,,,,,,,,,,,,,,,,,,,,,,,,,,,,,,,,,,,,,,,,,,,,,,,,,,,,,,,,,,,,,,,,,,,,,,,,,,,,,,,,,,,,,,,,,,,,,,,,
,,,,,,5fe23f65878eaadb5e2c8ba1,62c53a85deca570d4abc80d5,2022-07-06_09h34.28.387,Colour_Asymmetry_Pilot,2022.1.3,Win32,60.15037594,62c50e9c1127f2cd403a315f,0,82,82,136,1,onetwo,,,,,,,,,,,,,,,,,,,,,,,,,,,,,,,,,,,,,,,,,,,,,,,,,,,,,,,,,,,,,,,,,,,,,,,,,,,,,,,,,,,,,,,,,,,,,,,,,,,,,,,,,,,,,,,,,,,,,,,,,,,,,,,,,,,,,,,,,,,,,,,,,,,,,,,,,,,,,
,,,,,,5fe23f65878eaadb5e2c8ba1,62c53a85deca570d4abc80d5,2022-07-06_09h34.28.387,Colour_Asymmetry_Pilot,2022.1.3,Win32,60.15037594,62c50e9c1127f2cd403a315f,0,83,83,112,1,onetwo,,,,,,,,,,,,,,,,,,,,,,,,,,,,,,,,,,,,,,,,,,,,,,,,,,,,,,,,,,,,,,,,,,,,,,,,,,,,,,,,,,,,,,,,,,,,,,,,,,,,,,,,,,,,,,,,,,,,,,,,,,,,,,,,,,,,,,,,,,,,,,,,,,,,,,,,,,,,,
,,,,,,5fe23f65878eaadb5e2c8ba1,62c53a85deca570d4abc80d5,2022-07-06_09h34.28.387,Colour_Asymmetry_Pilot,2022.1.3,Win32,60.15037594,62c50e9c1127f2cd403a315f,0,84,84,28,1,threeone,,,,,,,,,,,,,,,,,,,,,,,,,,,,,,,,,,,,,,,,,,,,,,,,,,,,,,,,,,,,,,,,,,,,,,,,,,,,,,,,,,,,,,,,,,,,,,,,,,,,,,,,,,,,,,,,,,,,,,,,,,,,,,,,,,,,,,,,,,,,,,,,,,,,,,,,,,,,,
,,,,,,5fe23f65878eaadb5e2c8ba1,62c53a85deca570d4abc80d5,2022-07-06_09h34.28.387,Colour_Asymmetry_Pilot,2022.1.3,Win32,60.15037594,62c50e9c1127f2cd403a315f,0,85,85,31,1,fourthree,,,,,,,,,,,,,,,,,,,,,,,,,,,,,,,,,,,,,,,,,,,,,,,,,,,,,,,,,,,,,,,,,,,,,,,,,,,,,,,,,,,,,,,,,,,,,,,,,,,,,,,,,,,,,,,,,,,,,,,,,,,,,,,,,,,,,,,,,,,,,,,,,,,,,,,,,,,,,
,,,,,,5fe23f65878eaadb5e2c8ba1,62c53a85deca570d4abc80d5,2022-07-06_09h34.28.387,Colour_Asymmetry_Pilot,2022.1.3,Win32,60.15037594,62c50e9c1127f2cd403a315f,0,86,86,14,1,fourtwo,,,,,,,,,,,,,,,,,,,,,,,,,,,,,,,,,,,,,,,,,,,,,,,,,,,,,,,,,,,,,,,,,,,,,,,,,,,,,,,,,,,,,,,,,,,,,,,,,,,,,,,,,,,,,,,,,,,,,,,,,,,,,,,,,,,,,,,,,,,,,,,,,,,,,,,,,,,,,
,,,,,,5fe23f65878eaadb5e2c8ba1,62c53a85deca570d4abc80d5,2022-07-06_09h34.28.387,Colour_Asymmetry_Pilot,2022.1.3,Win32,60.15037594,62c50e9c1127f2cd403a315f,0,87,87,116,1,threeone,,,,,,,,,,,,,,,,,,,,,,,,,,,,,,,,,,,,,,,,,,,,,,,,,,,,,,,,,,,,,,,,,,,,,,,,,,,,,,,,,,,,,,,,,,,,,,,,,,,,,,,,,,,,,,,,,,,,,,,,,,,,,,,,,,,,,,,,,,,,,,,,,,,,,,,,,,,,,
,,,,,,5fe23f65878eaadb5e2c8ba1,62c53a85deca570d4abc80d5,2022-07-06_09h34.28.387,Colour_Asymmetry_Pilot,2022.1.3,Win32,60.15037594,62c50e9c1127f2cd403a315f,0,88,88,121,1,onethree,,,,,,,,,,,,,,,,,,,,,,,,,,,,,,,,,,,,,,,,,,,,,,,,,,,,,,,,,,,,,,,,,,,,,,,,,,,,,,,,,,,,,,,,,,,,,,,,,,,,,,,,,,,,,,,,,,,,,,,,,,,,,,,,,,,,,,,,,,,,,,,,,,,,,,,,,,,,,
,,,,,,5fe23f65878eaadb5e2c8ba1,62c53a85deca570d4abc80d5,2022-07-06_09h34.28.387,Colour_Asymmetry_Pilot,2022.1.3,Win32,60.15037594,62c50e9c1127f2cd403a315f,0,89,89,141,1,threefour,,,,,,,,,,,,,,,,,,,,,,,,,,,,,,,,,,,,,,,,,,,,,,,,,,,,,,,,,,,,,,,,,,,,,,,,,,,,,,,,,,,,,,,,,,,,,,,,,,,,,,,,,,,,,,,,,,,,,,,,,,,,,,,,,,,,,,,,,,,,,,,,,,,,,,,,,,,,,
,,,,,,5fe23f65878eaadb5e2c8ba1,62c53a85deca570d4abc80d5,2022-07-06_09h34.28.387,Colour_Asymmetry_Pilot,2022.1.3,Win32,60.15037594,62c50e9c1127f2cd403a315f,0,90,90,104,1,onetwo,,,,,,,,,,,,,,,,,,,,,,,,,,,,,,,,,,,,,,,,,,,,,,,,,,,,,,,,,,,,,,,,,,,,,,,,,,,,,,,,,,,,,,,,,,,,,,,,,,,,,,,,,,,,,,,,,,,,,,,,,,,,,,,,,,,,,,,,,,,,,,,,,,,,,,,,,,,,,
,,,,,,5fe23f65878eaadb5e2c8ba1,62c53a85deca570d4abc80d5,2022-07-06_09h34.28.387,Colour_Asymmetry_Pilot,2022.1.3,Win32,60.15037594,62c50e9c1127f2cd403a315f,0,91,91,33,1,onethree,,,,,,,,,,,,,,,,,,,,,,,,,,,,,,,,,,,,,,,,,,,,,,,,,,,,,,,,,,,,,,,,,,,,,,,,,,,,,,,,,,,,,,,,,,,,,,,,,,,,,,,,,,,,,,,,,,,,,,,,,,,,,,,,,,,,,,,,,,,,,,,,,,,,,,,,,,,,,
,,,,,,5fe23f65878eaadb5e2c8ba1,62c53a85deca570d4abc80d5,2022-07-06_09h34.28.387,Colour_Asymmetry_Pilot,2022.1.3,Win32,60.15037594,62c50e9c1127f2cd403a315f,0,92,92,144,1,onetwo,,,,,,,,,,,,,,,,,,,,,,,,,,,,,,,,,,,,,,,,,,,,,,,,,,,,,,,,,,,,,,,,,,,,,,,,,,,,,,,,,,,,,,,,,,,,,,,,,,,,,,,,,,,,,,,,,,,,,,,,,,,,,,,,,,,,,,,,,,,,,,,,,,,,,,,,,,,,,
,,,,,,5fe23f65878eaadb5e2c8ba1,62c53a85deca570d4abc80d5,2022-07-06_09h34.28.387,Colour_Asymmetry_Pilot,2022.1.3,Win32,60.15037594,62c50e9c1127f2cd403a315f,0,93,93,155,1,twofour,,,,,,,,,,,,,,,,,,,,,,,,,,,,,,,,,,,,,,,,,,,,,,,,,,,,,,,,,,,,,,,,,,,,,,,,,,,,,,,,,,,,,,,,,,,,,,,,,,,,,,,,,,,,,,,,,,,,,,,,,,,,,,,,,,,,,,,,,,,,,,,,,,,,,,,,,,,,,
,,,,,,5fe23f65878eaadb5e2c8ba1,62c53a85deca570d4abc80d5,2022-07-06_09h34.28.387,Colour_Asymmetry_Pilot,2022.1.3,Win32,60.15037594,62c50e9c1127f2cd403a315f,0,94,94,84,1,threeone,,,,,,,,,,,,,,,,,,,,,,,,,,,,,,,,,,,,,,,,,,,,,,,,,,,,,,,,,,,,,,,,,,,,,,,,,,,,,,,,,,,,,,,,,,,,,,,,,,,,,,,,,,,,,,,,,,,,,,,,,,,,,,,,,,,,,,,,,,,,,,,,,,,,,,,,,,,,,
,,,,,,5fe23f65878eaadb5e2c8ba1,62c53a85deca570d4abc80d5,2022-07-06_09h34.28.387,Colour_Asymmetry_Pilot,2022.1.3,Win32,60.15037594,62c50e9c1127f2cd403a315f,0,95,95,137,1,onethree,,,,,,,,,,,,,,,,,,,,,,,,,,,,,,,,,,,,,,,,,,,,,,,,,,,,,,,,,,,,,,,,,,,,,,,,,,,,,,,,,,,,,,,,,,,,,,,,,,,,,,,,,,,,,,,,,,,,,,,,,,,,,,,,,,,,,,,,,,,,,,,,,,,,,,,,,,,,,
,,,,,,5fe23f65878eaadb5e2c8ba1,62c53a85deca570d4abc80d5,2022-07-06_09h34.28.387,Colour_Asymmetry_Pilot,2022.1.3,Win32,60.15037594,62c50e9c1127f2cd403a315f,0,96,96,54,1,fourtwo,,,,,,,,,,,,,,,,,,,,,,,,,,,,,,,,,,,,,,,,,,,,,,,,,,,,,,,,,,,,,,,,,,,,,,,,,,,,,,,,,,,,,,,,,,,,,,,,,,,,,,,,,,,,,,,,,,,,,,,,,,,,,,,,,,,,,,,,,,,,,,,,,,,,,,,,,,,,,
,,,,,,5fe23f65878eaadb5e2c8ba1,62c53a85deca570d4abc80d5,2022-07-06_09h34.28.387,Colour_Asymmetry_Pilot,2022.1.3,Win32,60.15037594,62c50e9c1127f2cd403a315f,0,97,97,91,1,twofour,,,,,,,,,,,,,,,,,,,,,,,,,,,,,,,,,,,,,,,,,,,,,,,,,,,,,,,,,,,,,,,,,,,,,,,,,,,,,,,,,,,,,,,,,,,,,,,,,,,,,,,,,,,,,,,,,,,,,,,,,,,,,,,,,,,,,,,,,,,,,,,,,,,,,,,,,,,,,
,,,,,,5fe23f65878eaadb5e2c8ba1,62c53a85deca570d4abc80d5,2022-07-06_09h34.28.387,Colour_Asymmetry_Pilot,2022.1.3,Win32,60.15037594,62c50e9c1127f2cd403a315f,0,98,98,43,1,twofour,,,,,,,,,,,,,,,,,,,,,,,,,,,,,,,,,,,,,,,,,,,,,,,,,,,,,,,,,,,,,,,,,,,,,,,,,,,,,,,,,,,,,,,,,,,,,,,,,,,,,,,,,,,,,,,,,,,,,,,,,,,,,,,,,,,,,,,,,,,,,,,,,,,,,,,,,,,,,
,,,,,,5fe23f65878eaadb5e2c8ba1,62c53a85deca570d4abc80d5,2022-07-06_09h34.28.387,Colour_Asymmetry_Pilot,2022.1.3,Win32,60.15037594,62c50e9c1127f2cd403a315f,0,99,99,93,1,threefour,,,,,,,,,,,,,,,,,,,,,,,,,,,,,,,,,,,,,,,,,,,,,,,,,,,,,,,,,,,,,,,,,,,,,,,,,,,,,,,,,,,,,,,,,,,,,,,,,,,,,,,,,,,,,,,,,,,,,,,,,,,,,,,,,,,,,,,,,,,,,,,,,,,,,,,,,,,,,
,,,,,,5fe23f65878eaadb5e2c8ba1,62c53a85deca570d4abc80d5,2022-07-06_09h34.28.387,Colour_Asymmetry_Pilot,2022.1.3,Win32,60.15037594,62c50e9c1127f2cd403a315f,0,100,100,46,1,fourtwo,,,,,,,,,,,,,,,,,,,,,,,,,,,,,,,,,,,,,,,,,,,,,,,,,,,,,,,,,,,,,,,,,,,,,,,,,,,,,,,,,,,,,,,,,,,,,,,,,,,,,,,,,,,,,,,,,,,,,,,,,,,,,,,,,,,,,,,,,,,,,,,,,,,,,,,,,,,,,
,,,,,,5fe23f65878eaadb5e2c8ba1,62c53a85deca570d4abc80d5,2022-07-06_09h34.28.387,Colour_Asymmetry_Pilot,2022.1.3,Win32,60.15037594,62c50e9c1127f2cd403a315f,0,101,101,27,1,twofour,,,,,,,,,,,,,,,,,,,,,,,,,,,,,,,,,,,,,,,,,,,,,,,,,,,,,,,,,,,,,,,,,,,,,,,,,,,,,,,,,,,,,,,,,,,,,,,,,,,,,,,,,,,,,,,,,,,,,,,,,,,,,,,,,,,,,,,,,,,,,,,,,,,,,,,,,,,,,
,,,,,,5fe23f65878eaadb5e2c8ba1,62c53a85deca570d4abc80d5,2022-07-06_09h34.28.387,Colour_Asymmetry_Pilot,2022.1.3,Win32,60.15037594,62c50e9c1127f2cd403a315f,0,102,102,94,1,fourtwo,,,,,,,,,,,,,,,,,,,,,,,,,,,,,,,,,,,,,,,,,,,,,,,,,,,,,,,,,,,,,,,,,,,,,,,,,,,,,,,,,,,,,,,,,,,,,,,,,,,,,,,,,,,,,,,,,,,,,,,,,,,,,,,,,,,,,,,,,,,,,,,,,,,,,,,,,,,,,
,,,,,,5fe23f65878eaadb5e2c8ba1,62c53a85deca570d4abc80d5,2022-07-06_09h34.28.387,Colour_Asymmetry_Pilot,2022.1.3,Win32,60.15037594,62c50e9c1127f2cd403a315f,0,103,103,74,1,twoone,,,,,,,,,,,,,,,,,,,,,,,,,,,,,,,,,,,,,,,,,,,,,,,,,,,,,,,,,,,,,,,,,,,,,,,,,,,,,,,,,,,,,,,,,,,,,,,,,,,,,,,,,,,,,,,,,,,,,,,,,,,,,,,,,,,,,,,,,,,,,,,,,,,,,,,,,,,,,
,,,,,,5fe23f65878eaadb5e2c8ba1,62c53a85deca570d4abc80d5,2022-07-06_09h34.28.387,Colour_Asymmetry_Pilot,2022.1.3,Win32,60.15037594,62c50e9c1127f2cd403a315f,0,104,104,147,1,twofour,,,,,,,,,,,,,,,,,,,,,,,,,,,,,,,,,,,,,,,,,,,,,,,,,,,,,,,,,,,,,,,,,,,,,,,,,,,,,,,,,,,,,,,,,,,,,,,,,,,,,,,,,,,,,,,,,,,,,,,,,,,,,,,,,,,,,,,,,,,,,,,,,,,,,,,,,,,,,
,,,,,,5fe23f65878eaadb5e2c8ba1,62c53a85deca570d4abc80d5,2022-07-06_09h34.28.387,Colour_Asymmetry_Pilot,2022.1.3,Win32,60.15037594,62c50e9c1127f2cd403a315f,0,105,105,98,1,twoone,,,,,,,,,,,,,,,,,,,,,,,,,,,,,,,,,,,,,,,,,,,,,,,,,,,,,,,,,,,,,,,,,,,,,,,,,,,,,,,,,,,,,,,,,,,,,,,,,,,,,,,,,,,,,,,,,,,,,,,,,,,,,,,,,,,,,,,,,,,,,,,,,,,,,,,,,,,,,
,,,,,,5fe23f65878eaadb5e2c8ba1,62c53a85deca570d4abc80d5,2022-07-06_09h34.28.387,Colour_Asymmetry_Pilot,2022.1.3,Win32,60.15037594,62c50e9c1127f2cd403a315f,0,106,106,103,1,fourthree,,,,,,,,,,,,,,,,,,,,,,,,,,,,,,,,,,,,,,,,,,,,,,,,,,,,,,,,,,,,,,,,,,,,,,,,,,,,,,,,,,,,,,,,,,,,,,,,,,,,,,,,,,,,,,,,,,,,,,,,,,,,,,,,,,,,,,,,,,,,,,,,,,,,,,,,,,,,,
,,,,,,5fe23f65878eaadb5e2c8ba1,62c53a85deca570d4abc80d5,2022-07-06_09h34.28.387,Colour_Asymmetry_Pilot,2022.1.3,Win32,60.15037594,62c50e9c1127f2cd403a315f,0,107,107,8,1,onetwo,,,,,,,,,,,,,,,,,,,,,,,,,,,,,,,,,,,,,,,,,,,,,,,,,,,,,,,,,,,,,,,,,,,,,,,,,,,,,,,,,,,,,,,,,,,,,,,,,,,,,,,,,,,,,,,,,,,,,,,,,,,,,,,,,,,,,,,,,,,,,,,,,,,,,,,,,,,,,
,,,,,,5fe23f65878eaadb5e2c8ba1,62c53a85deca570d4abc80d5,2022-07-06_09h34.28.387,Colour_Asymmetry_Pilot,2022.1.3,Win32,60.15037594,62c50e9c1127f2cd403a315f,0,108,108,117,1,threefour,,,,,,,,,,,,,,,,,,,,,,,,,,,,,,,,,,,,,,,,,,,,,,,,,,,,,,,,,,,,,,,,,,,,,,,,,,,,,,,,,,,,,,,,,,,,,,,,,,,,,,,,,,,,,,,,,,,,,,,,,,,,,,,,,,,,,,,,,,,,,,,,,,,,,,,,,,,,,
,,,,,,5fe23f65878eaadb5e2c8ba1,62c53a85deca570d4abc80d5,2022-07-06_09h34.28.387,Colour_Asymmetry_Pilot,2022.1.3,Win32,60.15037594,62c50e9c1127f2cd403a315f,0,109,109,126,1,fourtwo,,,,,,,,,,,,,,,,,,,,,,,,,,,,,,,,,,,,,,,,,,,,,,,,,,,,,,,,,,,,,,,,,,,,,,,,,,,,,,,,,,,,,,,,,,,,,,,,,,,,,,,,,,,,,,,,,,,,,,,,,,,,,,,,,,,,,,,,,,,,,,,,,,,,,,,,,,,,,
,,,,,,5fe23f65878eaadb5e2c8ba1,62c53a85deca570d4abc80d5,2022-07-06_09h34.28.387,Colour_Asymmetry_Pilot,2022.1.3,Win32,60.15037594,62c50e9c1127f2cd403a315f,0,110,110,76,1,threeone,,,,,,,,,,,,,,,,,,,,,,,,,,,,,,,,,,,,,,,,,,,,,,,,,,,,,,,,,,,,,,,,,,,,,,,,,,,,,,,,,,,,,,,,,,,,,,,,,,,,,,,,,,,,,,,,,,,,,,,,,,,,,,,,,,,,,,,,,,,,,,,,,,,,,,,,,,,,,
,,,,,,5fe23f65878eaadb5e2c8ba1,62c53a85deca570d4abc80d5,2022-07-06_09h34.28.387,Colour_Asymmetry_Pilot,2022.1.3,Win32,60.15037594,62c50e9c1127f2cd403a315f,0,111,111,131,1,twofour,,,,,,,,,,,,,,,,,,,,,,,,,,,,,,,,,,,,,,,,,,,,,,,,,,,,,,,,,,,,,,,,,,,,,,,,,,,,,,,,,,,,,,,,,,,,,,,,,,,,,,,,,,,,,,,,,,,,,,,,,,,,,,,,,,,,,,,,,,,,,,,,,,,,,,,,,,,,,
,,,,,,5fe23f65878eaadb5e2c8ba1,62c53a85deca570d4abc80d5,2022-07-06_09h34.28.387,Colour_Asymmetry_Pilot,2022.1.3,Win32,60.15037594,62c50e9c1127f2cd403a315f,0,112,112,75,1,twofour,,,,,,,,,,,,,,,,,,,,,,,,,,,,,,,,,,,,,,,,,,,,,,,,,,,,,,,,,,,,,,,,,,,,,,,,,,,,,,,,,,,,,,,,,,,,,,,,,,,,,,,,,,,,,,,,,,,,,,,,,,,,,,,,,,,,,,,,,,,,,,,,,,,,,,,,,,,,,
,,,,,,5fe23f65878eaadb5e2c8ba1,62c53a85deca570d4abc80d5,2022-07-06_09h34.28.387,Colour_Asymmetry_Pilot,2022.1.3,Win32,60.15037594,62c50e9c1127f2cd403a315f,0,113,113,158,1,fourtwo,,,,,,,,,,,,,,,,,,,,,,,,,,,,,,,,,,,,,,,,,,,,,,,,,,,,,,,,,,,,,,,,,,,,,,,,,,,,,,,,,,,,,,,,,,,,,,,,,,,,,,,,,,,,,,,,,,,,,,,,,,,,,,,,,,,,,,,,,,,,,,,,,,,,,,,,,,,,,
,,,,,,5fe23f65878eaadb5e2c8ba1,62c53a85deca570d4abc80d5,2022-07-06_09h34.28.387,Colour_Asymmetry_Pilot,2022.1.3,Win32,60.15037594,62c50e9c1127f2cd403a315f,0,114,114,68,1,threeone,,,,,,,,,,,,,,,,,,,,,,,,,,,,,,,,,,,,,,,,,,,,,,,,,,,,,,,,,,,,,,,,,,,,,,,,,,,,,,,,,,,,,,,,,,,,,,,,,,,,,,,,,,,,,,,,,,,,,,,,,,,,,,,,,,,,,,,,,,,,,,,,,,,,,,,,,,,,,
,,,,,,5fe23f65878eaadb5e2c8ba1,62c53a85deca570d4abc80d5,2022-07-06_09h34.28.387,Colour_Asymmetry_Pilot,2022.1.3,Win32,60.15037594,62c50e9c1127f2cd403a315f,0,115,115,81,1,onethree,,,,,,,,,,,,,,,,,,,,,,,,,,,,,,,,,,,,,,,,,,,,,,,,,,,,,,,,,,,,,,,,,,,,,,,,,,,,,,,,,,,,,,,,,,,,,,,,,,,,,,,,,,,,,,,,,,,,,,,,,,,,,,,,,,,,,,,,,,,,,,,,,,,,,,,,,,,,,
,,,,,,5fe23f65878eaadb5e2c8ba1,62c53a85deca570d4abc80d5,2022-07-06_09h34.28.387,Colour_Asymmetry_Pilot,2022.1.3,Win32,60.15037594,62c50e9c1127f2cd403a315f,0,116,116,118,1,fourtwo,,,,,,,,,,,,,,,,,,,,,,,,,,,,,,,,,,,,,,,,,,,,,,,,,,,,,,,,,,,,,,,,,,,,,,,,,,,,,,,,,,,,,,,,,,,,,,,,,,,,,,,,,,,,,,,,,,,,,,,,,,,,,,,,,,,,,,,,,,,,,,,,,,,,,,,,,,,,,
,,,,,,5fe23f65878eaadb5e2c8ba1,62c53a85deca570d4abc80d5,2022-07-06_09h34.28.387,Colour_Asymmetry_Pilot,2022.1.3,Win32,60.15037594,62c50e9c1127f2cd403a315f,0,117,117,62,1,fourtwo,,,,,,,,,,,,,,,,,,,,,,,,,,,,,,,,,,,,,,,,,,,,,,,,,,,,,,,,,,,,,,,,,,,,,,,,,,,,,,,,,,,,,,,,,,,,,,,,,,,,,,,,,,,,,,,,,,,,,,,,,,,,,,,,,,,,,,,,,,,,,,,,,,,,,,,,,,,,,
,,,,,,5fe23f65878eaadb5e2c8ba1,62c53a85deca570d4abc80d5,2022-07-06_09h34.28.387,Colour_Asymmetry_Pilot,2022.1.3,Win32,60.15037594,62c50e9c1127f2cd403a315f,0,118,118,113,1,onethree,,,,,,,,,,,,,,,,,,,,,,,,,,,,,,,,,,,,,,,,,,,,,,,,,,,,,,,,,,,,,,,,,,,,,,,,,,,,,,,,,,,,,,,,,,,,,,,,,,,,,,,,,,,,,,,,,,,,,,,,,,,,,,,,,,,,,,,,,,,,,,,,,,,,,,,,,,,,,
,,,,,,5fe23f65878eaadb5e2c8ba1,62c53a85deca570d4abc80d5,2022-07-06_09h34.28.387,Colour_Asymmetry_Pilot,2022.1.3,Win32,60.15037594,62c50e9c1127f2cd403a315f,0,119,119,38,1,fourtwo,,,,,,,,,,,,,,,,,,,,,,,,,,,,,,,,,,,,,,,,,,,,,,,,,,,,,,,,,,,,,,,,,,,,,,,,,,,,,,,,,,,,,,,,,,,,,,,,,,,,,,,,,,,,,,,,,,,,,,,,,,,,,,,,,,,,,,,,,,,,,,,,,,,,,,,,,,,,,
,,,,,,5fe23f65878eaadb5e2c8ba1,62c53a85deca570d4abc80d5,2022-07-06_09h34.28.387,Colour_Asymmetry_Pilot,2022.1.3,Win32,60.15037594,62c50e9c1127f2cd403a315f,0,120,120,115,1,twofour,,,,,,,,,,,,,,,,,,,,,,,,,,,,,,,,,,,,,,,,,,,,,,,,,,,,,,,,,,,,,,,,,,,,,,,,,,,,,,,,,,,,,,,,,,,,,,,,,,,,,,,,,,,,,,,,,,,,,,,,,,,,,,,,,,,,,,,,,,,,,,,,,,,,,,,,,,,,,
,,,,,,5fe23f65878eaadb5e2c8ba1,62c53a85deca570d4abc80d5,2022-07-06_09h34.28.387,Colour_Asymmetry_Pilot,2022.1.3,Win32,60.15037594,62c50e9c1127f2cd403a315f,0,121,121,15,1,fourthree,,,,,,,,,,,,,,,,,,,,,,,,,,,,,,,,,,,,,,,,,,,,,,,,,,,,,,,,,,,,,,,,,,,,,,,,,,,,,,,,,,,,,,,,,,,,,,,,,,,,,,,,,,,,,,,,,,,,,,,,,,,,,,,,,,,,,,,,,,,,,,,,,,,,,,,,,,,,,
,,,,,,5fe23f65878eaadb5e2c8ba1,62c53a85deca570d4abc80d5,2022-07-06_09h34.28.387,Colour_Asymmetry_Pilot,2022.1.3,Win32,60.15037594,62c50e9c1127f2cd403a315f,0,122,122,11,1,twofour,,,,,,,,,,,,,,,,,,,,,,,,,,,,,,,,,,,,,,,,,,,,,,,,,,,,,,,,,,,,,,,,,,,,,,,,,,,,,,,,,,,,,,,,,,,,,,,,,,,,,,,,,,,,,,,,,,,,,,,,,,,,,,,,,,,,,,,,,,,,,,,,,,,,,,,,,,,,,
,,,,,,5fe23f65878eaadb5e2c8ba1,62c53a85deca570d4abc80d5,2022-07-06_09h34.28.387,Colour_Asymmetry_Pilot,2022.1.3,Win32,60.15037594,62c50e9c1127f2cd403a315f,0,123,123,95,1,fourthree,,,,,,,,,,,,,,,,,,,,,,,,,,,,,,,,,,,,,,,,,,,,,,,,,,,,,,,,,,,,,,,,,,,,,,,,,,,,,,,,,,,,,,,,,,,,,,,,,,,,,,,,,,,,,,,,,,,,,,,,,,,,,,,,,,,,,,,,,,,,,,,,,,,,,,,,,,,,,
,,,,,,5fe23f65878eaadb5e2c8ba1,62c53a85deca570d4abc80d5,2022-07-06_09h34.28.387,Colour_Asymmetry_Pilot,2022.1.3,Win32,60.15037594,62c50e9c1127f2cd403a315f,0,124,124,66,1,twoone,,,,,,,,,,,,,,,,,,,,,,,,,,,,,,,,,,,,,,,,,,,,,,,,,,,,,,,,,,,,,,,,,,,,,,,,,,,,,,,,,,,,,,,,,,,,,,,,,,,,,,,,,,,,,,,,,,,,,,,,,,,,,,,,,,,,,,,,,,,,,,,,,,,,,,,,,,,,,
,,,,,,5fe23f65878eaadb5e2c8ba1,62c53a85deca570d4abc80d5,2022-07-06_09h34.28.387,Colour_Asymmetry_Pilot,2022.1.3,Win32,60.15037594,62c50e9c1127f2cd403a315f,0,125,125,99,1,twofour,,,,,,,,,,,,,,,,,,,,,,,,,,,,,,,,,,,,,,,,,,,,,,,,,,,,,,,,,,,,,,,,,,,,,,,,,,,,,,,,,,,,,,,,,,,,,,,,,,,,,,,,,,,,,,,,,,,,,,,,,,,,,,,,,,,,,,,,,,,,,,,,,,,,,,,,,,,,,
,,,,,,5fe23f65878eaadb5e2c8ba1,62c53a85deca570d4abc80d5,2022-07-06_09h34.28.387,Colour_Asymmetry_Pilot,2022.1.3,Win32,60.15037594,62c50e9c1127f2cd403a315f,0,126,126,125,1,threefour,,,,,,,,,,,,,,,,,,,,,,,,,,,,,,,,,,,,,,,,,,,,,,,,,,,,,,,,,,,,,,,,,,,,,,,,,,,,,,,,,,,,,,,,,,,,,,,,,,,,,,,,,,,,,,,,,,,,,,,,,,,,,,,,,,,,,,,,,,,,,,,,,,,,,,,,,,,,,
,,,,,,5fe23f65878eaadb5e2c8ba1,62c53a85deca570d4abc80d5,2022-07-06_09h34.28.387,Colour_Asymmetry_Pilot,2022.1.3,Win32,60.15037594,62c50e9c1127f2cd403a315f,0,127,127,105,1,onethree,,,,,,,,,,,,,,,,,,,,,,,,,,,,,,,,,,,,,,,,,,,,,,,,,,,,,,,,,,,,,,,,,,,,,,,,,,,,,,,,,,,,,,,,,,,,,,,,,,,,,,,,,,,,,,,,,,,,,,,,,,,,,,,,,,,,,,,,,,,,,,,,,,,,,,,,,,,,,
,,,,,,5fe23f65878eaadb5e2c8ba1,62c53a85deca570d4abc80d5,2022-07-06_09h34.28.387,Colour_Asymmetry_Pilot,2022.1.3,Win32,60.15037594,62c50e9c1127f2cd403a315f,0,128,128,123,1,twofour,,,,,,,,,,,,,,,,,,,,,,,,,,,,,,,,,,,,,,,,,,,,,,,,,,,,,,,,,,,,,,,,,,,,,,,,,,,,,,,,,,,,,,,,,,,,,,,,,,,,,,,,,,,,,,,,,,,,,,,,,,,,,,,,,,,,,,,,,,,,,,,,,,,,,,,,,,,,,
,,,,,,5fe23f65878eaadb5e2c8ba1,62c53a85deca570d4abc80d5,2022-07-06_09h34.28.387,Colour_Asymmetry_Pilot,2022.1.3,Win32,60.15037594,62c50e9c1127f2cd403a315f,0,129,129,135,1,fourthree,,,,,,,,,,,,,,,,,,,,,,,,,,,,,,,,,,,,,,,,,,,,,,,,,,,,,,,,,,,,,,,,,,,,,,,,,,,,,,,,,,,,,,,,,,,,,,,,,,,,,,,,,,,,,,,,,,,,,,,,,,,,,,,,,,,,,,,,,,,,,,,,,,,,,,,,,,,,,
,,,,,,5fe23f65878eaadb5e2c8ba1,62c53a85deca570d4abc80d5,2022-07-06_09h34.28.387,Colour_Asymmetry_Pilot,2022.1.3,Win32,60.15037594,62c50e9c1127f2cd403a315f,0,130,130,157,1,threefour,,,,,,,,,,,,,,,,,,,,,,,,,,,,,,,,,,,,,,,,,,,,,,,,,,,,,,,,,,,,,,,,,,,,,,,,,,,,,,,,,,,,,,,,,,,,,,,,,,,,,,,,,,,,,,,,,,,,,,,,,,,,,,,,,,,,,,,,,,,,,,,,,,,,,,,,,,,,,
,,,,,,5fe23f65878eaadb5e2c8ba1,62c53a85deca570d4abc80d5,2022-07-06_09h34.28.387,Colour_Asymmetry_Pilot,2022.1.3,Win32,60.15037594,62c50e9c1127f2cd403a315f,0,131,131,79,1,fourthree,,,,,,,,,,,,,,,,,,,,,,,,,,,,,,,,,,,,,,,,,,,,,,,,,,,,,,,,,,,,,,,,,,,,,,,,,,,,,,,,,,,,,,,,,,,,,,,,,,,,,,,,,,,,,,,,,,,,,,,,,,,,,,,,,,,,,,,,,,,,,,,,,,,,,,,,,,,,,
,,,,,,5fe23f65878eaadb5e2c8ba1,62c53a85deca570d4abc80d5,2022-07-06_09h34.28.387,Colour_Asymmetry_Pilot,2022.1.3,Win32,60.15037594,62c50e9c1127f2cd403a315f,0,132,132,88,1,onetwo,,,,,,,,,,,,,,,,,,,,,,,,,,,,,,,,,,,,,,,,,,,,,,,,,,,,,,,,,,,,,,,,,,,,,,,,,,,,,,,,,,,,,,,,,,,,,,,,,,,,,,,,,,,,,,,,,,,,,,,,,,,,,,,,,,,,,,,,,,,,,,,,,,,,,,,,,,,,,
,,,,,,5fe23f65878eaadb5e2c8ba1,62c53a85deca570d4abc80d5,2022-07-06_09h34.28.387,Colour_Asymmetry_Pilot,2022.1.3,Win32,60.15037594,62c50e9c1127f2cd403a315f,0,133,133,101,1,threefour,,,,,,,,,,,,,,,,,,,,,,,,,,,,,,,,,,,,,,,,,,,,,,,,,,,,,,,,,,,,,,,,,,,,,,,,,,,,,,,,,,,,,,,,,,,,,,,,,,,,,,,,,,,,,,,,,,,,,,,,,,,,,,,,,,,,,,,,,,,,,,,,,,,,,,,,,,,,,
,,,,,,5fe23f65878eaadb5e2c8ba1,62c53a85deca570d4abc80d5,2022-07-06_09h34.28.387,Colour_Asymmetry_Pilot,2022.1.3,Win32,60.15037594,62c50e9c1127f2cd403a315f,0,134,134,130,1,twoone,,,,,,,,,,,,,,,,,,,,,,,,,,,,,,,,,,,,,,,,,,,,,,,,,,,,,,,,,,,,,,,,,,,,,,,,,,,,,,,,,,,,,,,,,,,,,,,,,,,,,,,,,,,,,,,,,,,,,,,,,,,,,,,,,,,,,,,,,,,,,,,,,,,,,,,,,,,,,
,,,,,,5fe23f65878eaadb5e2c8ba1,62c53a85deca570d4abc80d5,2022-07-06_09h34.28.387,Colour_Asymmetry_Pilot,2022.1.3,Win32,60.15037594,62c50e9c1127f2cd403a315f,0,135,135,127,1,fourthree,,,,,,,,,,,,,,,,,,,,,,,,,,,,,,,,,,,,,,,,,,,,,,,,,,,,,,,,,,,,,,,,,,,,,,,,,,,,,,,,,,,,,,,,,,,,,,,,,,,,,,,,,,,,,,,,,,,,,,,,,,,,,,,,,,,,,,,,,,,,,,,,,,,,,,,,,,,,,
,,,,,,5fe23f65878eaadb5e2c8ba1,62c53a85deca570d4abc80d5,2022-07-06_09h34.28.387,Colour_Asymmetry_Pilot,2022.1.3,Win32,60.15037594,62c50e9c1127f2cd403a315f,0,136,136,53,1,threefour,,,,,,,,,,,,,,,,,,,,,,,,,,,,,,,,,,,,,,,,,,,,,,,,,,,,,,,,,,,,,,,,,,,,,,,,,,,,,,,,,,,,,,,,,,,,,,,,,,,,,,,,,,,,,,,,,,,,,,,,,,,,,,,,,,,,,,,,,,,,,,,,,,,,,,,,,,,,,
,,,,,,5fe23f65878eaadb5e2c8ba1,62c53a85deca570d4abc80d5,2022-07-06_09h34.28.387,Colour_Asymmetry_Pilot,2022.1.3,Win32,60.15037594,62c50e9c1127f2cd403a315f,0,137,137,18,1,twoone,,,,,,,,,,,,,,,,,,,,,,,,,,,,,,,,,,,,,,,,,,,,,,,,,,,,,,,,,,,,,,,,,,,,,,,,,,,,,,,,,,,,,,,,,,,,,,,,,,,,,,,,,,,,,,,,,,,,,,,,,,,,,,,,,,,,,,,,,,,,,,,,,,,,,,,,,,,,,
,,,,,,5fe23f65878eaadb5e2c8ba1,62c53a85deca570d4abc80d5,2022-07-06_09h34.28.387,Colour_Asymmetry_Pilot,2022.1.3,Win32,60.15037594,62c50e9c1127f2cd403a315f,0,138,138,4,1,threeone,,,,,,,,,,,,,,,,,,,,,,,,,,,,,,,,,,,,,,,,,,,,,,,,,,,,,,,,,,,,,,,,,,,,,,,,,,,,,,,,,,,,,,,,,,,,,,,,,,,,,,,,,,,,,,,,,,,,,,,,,,,,,,,,,,,,,,,,,,,,,,,,,,,,,,,,,,,,,
,,,,,,5fe23f65878eaadb5e2c8ba1,62c53a85deca570d4abc80d5,2022-07-06_09h34.28.387,Colour_Asymmetry_Pilot,2022.1.3,Win32,60.15037594,62c50e9c1127f2cd403a315f,0,139,139,70,1,fourtwo,,,,,,,,,,,,,,,,,,,,,,,,,,,,,,,,,,,,,,,,,,,,,,,,,,,,,,,,,,,,,,,,,,,,,,,,,,,,,,,,,,,,,,,,,,,,,,,,,,,,,,,,,,,,,,,,,,,,,,,,,,,,,,,,,,,,,,,,,,,,,,,,,,,,,,,,,,,,,
,,,,,,5fe23f65878eaadb5e2c8ba1,62c53a85deca570d4abc80d5,2022-07-06_09h34.28.387,Colour_Asymmetry_Pilot,2022.1.3,Win32,60.15037594,62c50e9c1127f2cd403a315f,0,140,140,161,1,onethree,,,,,,,,,,,,,,,,,,,,,,,,,,,,,,,,,,,,,,,,,,,,,,,,,,,,,,,,,,,,,,,,,,,,,,,,,,,,,,,,,,,,,,,,,,,,,,,,,,,,,,,,,,,,,,,,,,,,,,,,,,,,,,,,,,,,,,,,,,,,,,,,,,,,,,,,,,,,,
,,,,,,5fe23f65878eaadb5e2c8ba1,62c53a85deca570d4abc80d5,2022-07-06_09h34.28.387,Colour_Asymmetry_Pilot,2022.1.3,Win32,60.15037594,62c50e9c1127f2cd403a315f,0,141,141,106,1,twoone,,,,,,,,,,,,,,,,,,,,,,,,,,,,,,,,,,,,,,,,,,,,,,,,,,,,,,,,,,,,,,,,,,,,,,,,,,,,,,,,,,,,,,,,,,,,,,,,,,,,,,,,,,,,,,,,,,,,,,,,,,,,,,,,,,,,,,,,,,,,,,,,,,,,,,,,,,,,,
,,,,,,5fe23f65878eaadb5e2c8ba1,62c53a85deca570d4abc80d5,2022-07-06_09h34.28.387,Colour_Asymmetry_Pilot,2022.1.3,Win32,60.15037594,62c50e9c1127f2cd403a315f,0,142,142,156,1,threeone,,,,,,,,,,,,,,,,,,,,,,,,,,,,,,,,,,,,,,,,,,,,,,,,,,,,,,,,,,,,,,,,,,,,,,,,,,,,,,,,,,,,,,,,,,,,,,,,,,,,,,,,,,,,,,,,,,,,,,,,,,,,,,,,,,,,,,,,,,,,,,,,,,,,,,,,,,,,,
,,,,,,5fe23f65878eaadb5e2c8ba1,62c53a85deca570d4abc80d5,2022-07-06_09h34.28.387,Colour_Asymmetry_Pilot,2022.1.3,Win32,60.15037594,62c50e9c1127f2cd403a315f,0,143,143,83,1,twofour,,,,,,,,,,,,,,,,,,,,,,,,,,,,,,,,,,,,,,,,,,,,,,,,,,,,,,,,,,,,,,,,,,,,,,,,,,,,,,,,,,,,,,,,,,,,,,,,,,,,,,,,,,,,,,,,,,,,,,,,,,,,,,,,,,,,,,,,,,,,,,,,,,,,,,,,,,,,,
,,,,,,5fe23f65878eaadb5e2c8ba1,62c53a85deca570d4abc80d5,2022-07-06_09h34.28.387,Colour_Asymmetry_Pilot,2022.1.3,Win32,60.15037594,62c50e9c1127f2cd403a315f,0,144,144,9,1,onethree,,,,,,,,,,,,,,,,,,,,,,,,,,,,,,,,,,,,,,,,,,,,,,,,,,,,,,,,,,,,,,,,,,,,,,,,,,,,,,,,,,,,,,,,,,,,,,,,,,,,,,,,,,,,,,,,,,,,,,,,,,,,,,,,,,,,,,,,,,,,,,,,,,,,,,,,,,,,,
,,,,,,5fe23f65878eaadb5e2c8ba1,62c53a85deca570d4abc80d5,2022-07-06_09h34.28.387,Colour_Asymmetry_Pilot,2022.1.3,Win32,60.15037594,62c50e9c1127f2cd403a315f,0,145,145,29,1,threefour,,,,,,,,,,,,,,,,,,,,,,,,,,,,,,,,,,,,,,,,,,,,,,,,,,,,,,,,,,,,,,,,,,,,,,,,,,,,,,,,,,,,,,,,,,,,,,,,,,,,,,,,,,,,,,,,,,,,,,,,,,,,,,,,,,,,,,,,,,,,,,,,,,,,,,,,,,,,,
,,,,,,5fe23f65878eaadb5e2c8ba1,62c53a85deca570d4abc80d5,2022-07-06_09h34.28.387,Colour_Asymmetry_Pilot,2022.1.3,Win32,60.15037594,62c50e9c1127f2cd403a315f,0,146,146,102,1,fourtwo,,,,,,,,,,,,,,,,,,,,,,,,,,,,,,,,,,,,,,,,,,,,,,,,,,,,,,,,,,,,,,,,,,,,,,,,,,,,,,,,,,,,,,,,,,,,,,,,,,,,,,,,,,,,,,,,,,,,,,,,,,,,,,,,,,,,,,,,,,,,,,,,,,,,,,,,,,,,,
,,,,,,5fe23f65878eaadb5e2c8ba1,62c53a85deca570d4abc80d5,2022-07-06_09h34.28.387,Colour_Asymmetry_Pilot,2022.1.3,Win32,60.15037594,62c50e9c1127f2cd403a315f,0,147,147,61,1,threefour,,,,,,,,,,,,,,,,,,,,,,,,,,,,,,,,,,,,,,,,,,,,,,,,,,,,,,,,,,,,,,,,,,,,,,,,,,,,,,,,,,,,,,,,,,,,,,,,,,,,,,,,,,,,,,,,,,,,,,,,,,,,,,,,,,,,,,,,,,,,,,,,,,,,,,,,,,,,,
,,,,,,5fe23f65878eaadb5e2c8ba1,62c53a85deca570d4abc80d5,2022-07-06_09h34.28.387,Colour_Asymmetry_Pilot,2022.1.3,Win32,60.15037594,62c50e9c1127f2cd403a315f,0,148,148,69,1,threefour,,,,,,,,,,,,,,,,,,,,,,,,,,,,,,,,,,,,,,,,,,,,,,,,,,,,,,,,,,,,,,,,,,,,,,,,,,,,,,,,,,,,,,,,,,,,,,,,,,,,,,,,,,,,,,,,,,,,,,,,,,,,,,,,,,,,,,,,,,,,,,,,,,,,,,,,,,,,,
,,,,,,5fe23f65878eaadb5e2c8ba1,62c53a85deca570d4abc80d5,2022-07-06_09h34.28.387,Colour_Asymmetry_Pilot,2022.1.3,Win32,60.15037594,62c50e9c1127f2cd403a315f,0,149,149,23,1,fourthree,,,,,,,,,,,,,,,,,,,,,,,,,,,,,,,,,,,,,,,,,,,,,,,,,,,,,,,,,,,,,,,,,,,,,,,,,,,,,,,,,,,,,,,,,,,,,,,,,,,,,,,,,,,,,,,,,,,,,,,,,,,,,,,,,,,,,,,,,,,,,,,,,,,,,,,,,,,,,
,,,,,,5fe23f65878eaadb5e2c8ba1,62c53a85deca570d4abc80d5,2022-07-06_09h34.28.387,Colour_Asymmetry_Pilot,2022.1.3,Win32,60.15037594,62c50e9c1127f2cd403a315f,0,150,150,143,1,fourthree,,,,,,,,,,,,,,,,,,,,,,,,,,,,,,,,,,,,,,,,,,,,,,,,,,,,,,,,,,,,,,,,,,,,,,,,,,,,,,,,,,,,,,,,,,,,,,,,,,,,,,,,,,,,,,,,,,,,,,,,,,,,,,,,,,,,,,,,,,,,,,,,,,,,,,,,,,,,,
,,,,,,5fe23f65878eaadb5e2c8ba1,62c53a85deca570d4abc80d5,2022-07-06_09h34.28.387,Colour_Asymmetry_Pilot,2022.1.3,Win32,60.15037594,62c50e9c1127f2cd403a315f,0,151,151,49,1,onethree,,,,,,,,,,,,,,,,,,,,,,,,,,,,,,,,,,,,,,,,,,,,,,,,,,,,,,,,,,,,,,,,,,,,,,,,,,,,,,,,,,,,,,,,,,,,,,,,,,,,,,,,,,,,,,,,,,,,,,,,,,,,,,,,,,,,,,,,,,,,,,,,,,,,,,,,,,,,,
,,,,,,5fe23f65878eaadb5e2c8ba1,62c53a85deca570d4abc80d5,2022-07-06_09h34.28.387,Colour_Asymmetry_Pilot,2022.1.3,Win32,60.15037594,62c50e9c1127f2cd403a315f,0,152,152,111,1,fourthree,,,,,,,,,,,,,,,,,,,,,,,,,,,,,,,,,,,,,,,,,,,,,,,,,,,,,,,,,,,,,,,,,,,,,,,,,,,,,,,,,,,,,,,,,,,,,,,,,,,,,,,,,,,,,,,,,,,,,,,,,,,,,,,,,,,,,,,,,,,,,,,,,,,,,,,,,,,,,
,,,,,,5fe23f65878eaadb5e2c8ba1,62c53a85deca570d4abc80d5,2022-07-06_09h34.28.387,Colour_Asymmetry_Pilot,2022.1.3,Win32,60.15037594,62c50e9c1127f2cd403a315f,0,153,153,58,1,twoone,,,,,,,,,,,,,,,,,,,,,,,,,,,,,,,,,,,,,,,,,,,,,,,,,,,,,,,,,,,,,,,,,,,,,,,,,,,,,,,,,,,,,,,,,,,,,,,,,,,,,,,,,,,,,,,,,,,,,,,,,,,,,,,,,,,,,,,,,,,,,,,,,,,,,,,,,,,,,
,,,,,,5fe23f65878eaadb5e2c8ba1,62c53a85deca570d4abc80d5,2022-07-06_09h34.28.387,Colour_Asymmetry_Pilot,2022.1.3,Win32,60.15037594,62c50e9c1127f2cd403a315f,0,154,154,1,1,onethree,,,,,,,,,,,,,,,,,,,,,,,,,,,,,,,,,,,,,,,,,,,,,,,,,,,,,,,,,,,,,,,,,,,,,,,,,,,,,,,,,,,,,,,,,,,,,,,,,,,,,,,,,,,,,,,,,,,,,,,,,,,,,,,,,,,,,,,,,,,,,,,,,,,,,,,,,,,,,
,,,,,,5fe23f65878eaadb5e2c8ba1,62c53a85deca570d4abc80d5,2022-07-06_09h34.28.387,Colour_Asymmetry_Pilot,2022.1.3,Win32,60.15037594,62c50e9c1127f2cd403a315f,0,155,155,73,1,onethree,,,,,,,,,,,,,,,,,,,,,,,,,,,,,,,,,,,,,,,,,,,,,,,,,,,,,,,,,,,,,,,,,,,,,,,,,,,,,,,,,,,,,,,,,,,,,,,,,,,,,,,,,,,,,,,,,,,,,,,,,,,,,,,,,,,,,,,,,,,,,,,,,,,,,,,,,,,,,
,,,,,,5fe23f65878eaadb5e2c8ba1,62c53a85deca570d4abc80d5,2022-07-06_09h34.28.387,Colour_Asymmetry_Pilot,2022.1.3,Win32,60.15037594,62c50e9c1127f2cd403a315f,0,156,156,42,1,twoone,,,,,,,,,,,,,,,,,,,,,,,,,,,,,,,,,,,,,,,,,,,,,,,,,,,,,,,,,,,,,,,,,,,,,,,,,,,,,,,,,,,,,,,,,,,,,,,,,,,,,,,,,,,,,,,,,,,,,,,,,,,,,,,,,,,,,,,,,,,,,,,,,,,,,,,,,,,,,
,,,,,,5fe23f65878eaadb5e2c8ba1,62c53a85deca570d4abc80d5,2022-07-06_09h34.28.387,Colour_Asymmetry_Pilot,2022.1.3,Win32,60.15037594,62c50e9c1127f2cd403a315f,0,157,157,34,1,twoone,,,,,,,,,,,,,,,,,,,,,,,,,,,,,,,,,,,,,,,,,,,,,,,,,,,,,,,,,,,,,,,,,,,,,,,,,,,,,,,,,,,,,,,,,,,,,,,,,,,,,,,,,,,,,,,,,,,,,,,,,,,,,,,,,,,,,,,,,,,,,,,,,,,,,,,,,,,,,
,,,,,,5fe23f65878eaadb5e2c8ba1,62c53a85deca570d4abc80d5,2022-07-06_09h34.28.387,Colour_Asymmetry_Pilot,2022.1.3,Win32,60.15037594,62c50e9c1127f2cd403a315f,0,158,158,114,1,twoone,,,,,,,,,,,,,,,,,,,,,,,,,,,,,,,,,,,,,,,,,,,,,,,,,,,,,,,,,,,,,,,,,,,,,,,,,,,,,,,,,,,,,,,,,,,,,,,,,,,,,,,,,,,,,,,,,,,,,,,,,,,,,,,,,,,,,,,,,,,,,,,,,,,,,,,,,,,,,
,,,,,,5fe23f65878eaadb5e2c8ba1,62c53a85deca570d4abc80d5,2022-07-06_09h34.28.387,Colour_Asymmetry_Pilot,2022.1.3,Win32,60.15037594,62c50e9c1127f2cd403a315f,0,159,159,50,1,twoone,,,,,,,,,,,,,,,,,,,,,,,,,,,,,,,,,,,,,,,,,,,,,,,,,,,,,,,,,,,,,,,,,,,,,,,,,,,,,,,,,,,,,,,,,,,,,,,,,,,,,,,,,,,,,,,,,,,,,,,,,,,,,,,,,,,,,,,,,,,,,,,,,,,,,,,,,,,,,
,,,,,,5fe23f65878eaadb5e2c8ba1,62c53a85deca570d4abc80d5,2022-07-06_09h34.28.387,Colour_Asymmetry_Pilot,2022.1.3,Win32,60.15037594,62c50e9c1127f2cd403a315f,0,160,160,3,1,twofour,,,,,,,,,,,,,,,,,,,,,,,,,,,,,,,,,,,,,,,,,,,,,,,,,,,,,,,,,,,,,,,,,,,,,,,,,,,,,,,,,,,,,,,,,,,,,,,,,,,,,,,,,,,,,,,,,,,,,,,,,,,,,,,,,,,,,,,,,,,,,,,,,,,,,,,,,,,,,
,,,,,,5fe23f65878eaadb5e2c8ba1,62c53a85deca570d4abc80d5,2022-07-06_09h34.28.387,Colour_Asymmetry_Pilot,2022.1.3,Win32,60.15037594,62c50e9c1127f2cd403a315f,0,161,161,138,1,twoone,,,,,,,,,,,,,,,,,,,,,,,,,,,,,,,,,,,,,,,,,,,,,,,,,,,,,,,,,,,,,,,,,,,,,,,,,,,,,,,,,,,,,,,,,,,,,,,,,,,,,,,,,,,,,,,,,,,,,,,,,,,,,,,,,,,,,,,,,,,,,,,,,,,,,,,,,,,,,
,,,,,,5fe23f65878eaadb5e2c8ba1,62c53a85deca570d4abc80d5,2022-07-06_09h34.28.387,Colour_Asymmetry_Pilot,2022.1.3,Win32,60.15037594,62c50e9c1127f2cd403a315f,,,,,,,space,2.8868,space,46.4196,space,107.7889,space,13.7101,space,3.9831,space,6.1216,"[0.7018,0.7802,-0.16079999999999994]",onethree,"[-0.34920000000000007,-0.702,-0.5216]",-3,23.5524,-131.2000122,59.20001221,1,0,0,response7disk_5,-7.200012207,-0.799987793,1,0,0,rectangle_8,-7.200012207,-0.799987793,1,0,0,4,-7.200012207,-0.799987793,1,0,0,0,0,0,0,1,,,,,,,,,,,,,,,,,,,,,,,,,,,,,,,,,,,,,,,,,,,,,,,,,,,,,,,,,,,,,,,,,,,,,,,,,,,,,,,,,,,,,,,,,,,,,,,,,,,,,,,,,,,,,,,,
,,,,,,5fe23f65878eaadb5e2c8ba1,62c53a85deca570d4abc80d5,2022-07-06_09h34.28.387,Colour_Asymmetry_Pilot,2022.1.3,Win32,60.15037594,62c50e9c1127f2cd403a315f,,,,,,,,,,,,,,,,,,,"[-0.7412000000000001,-0.08239999999999992,-0.6864]",onetwo,"[0.3881999999999999,-0.23939999999999995,-0.05040000000000011]",-4,8.04,-68,140.7999878,1,0,0,response7disk_5,-4,-11.20001221,1,0,0,rectangle_8,56,128,1,0,0,4,15.20007324,-4.799987793,1,0,0,1,0,1,0,1,response1disk_7,7,rectangle_4,,,,,,,,,,,,,,,,,,,,,,,,,,,,,,,,,,,,,,,,,,,,,,,,,,,,,,,,,,,,,,,,,,,,,,,,,,,,,,,,,,,,,,,,,,,,,,,,,,,,,,,,,,,,,
,,,,,,5fe23f65878eaadb5e2c8ba1,62c53a85deca570d4abc80d5,2022-07-06_09h34.28.387,Colour_Asymmetry_Pilot,2022.1.3,Win32,60.15037594,62c50e9c1127f2cd403a315f,,,,,,,,,,,,,,,,,,,"[-0.6706000000000001,-0.6157999999999999,-0.6786]",threefour,"[-0.20799999999999996,-0.655,-0.01980000000000004]",-3,5.0518,-118.3999634,32,1,0,0,response7disk_5,-3.200012207,0,1,0,0,rectangle_8,60.80004883,123.1999817,1,0,0,4,25.59997559,4,1,0,0,2,0,2,0,1,response1disk_7,7,rectangle_4,,,,,,,,,,,,,,,,,,,,,,,,,,,,,,,,,,,,,,,,,,,,,,,,,,,,,,,,,,,,,,,,,,,,,,,,,,,,,,,,,,,,,,,,,,,,,,,,,,,,,,,,,,,,,
,,,,,,5fe23f65878eaadb5e2c8ba1,62c53a85deca570d4abc80d5,2022-07-06_09h34.28.387,Colour_Asymmetry_Pilot,2022.1.3,Win32,60.15037594,62c50e9c1127f2cd403a315f,,,,,,,,,,,,,,,,,,,"[0.30180000000000007,-0.7884,-0.9844]",fourtwo,"[0.23120000000000007,-0.7726,-0.34120000000000006]",3,3.6362,142.4000244,68.79998779,1,0,0,response1disk_5,-12,-13.60003662,1,0,0,rectangle_8,-12,-13.60003662,1,0,0,4,-12,-13.60003662,1,0,0,3,0,3,0,1,,,,,,,,,,,,,,,,,,,,,,,,,,,,,,,,,,,,,,,,,,,,,,,,,,,,,,,,,,,,,,,,,,,,,,,,,,,,,,,,,,,,,,,,,,,,,,,,,,,,,,,,,,,,,,,,
,,,,,,5fe23f65878eaadb5e2c8ba1,62c53a85deca570d4abc80d5,2022-07-06_09h34.28.387,Colour_Asymmetry_Pilot,2022.1.3,Win32,60.15037594,62c50e9c1127f2cd403a315f,,,,,,,,,,,,,,,,,,,"[-0.050999999999999934,-0.6706000000000001,-0.804]",threefour,"[0.22340000000000004,-0.9296,-0.7884]",3,2.4689,96.80004883,36.79998779,1,0,0,response1disk_5,-8,-12,1,0,0,rectangle_8,-8,-12,1,0,0,4,-8,-12,1,0,0,4,0,4,0,1,,,,,,,,,,,,,,,,,,,,,,,,,,,,,,,,,,,,,,,,,,,,,,,,,,,,,,,,,,,,,,,,,,,,,,,,,,,,,,,,,,,,,,,,,,,,,,,,,,,,,,,,,,,,,,,,
,,,,,,5fe23f65878eaadb5e2c8ba1,62c53a85deca570d4abc80d5,2022-07-06_09h34.28.387,Colour_Asymmetry_Pilot,2022.1.3,Win32,60.15037594,62c50e9c1127f2cd403a315f,,,,,,,,,,,,,,,,,,,"[0.37240000000000006,-0.050999999999999934,-0.5216]",fourtwo,"[-0.9216,-0.5529999999999999,-0.3962]",-4,2.4686,-49.59997559,85.6000061,1,0,0,response7disk_5,2.400024414,-6.400024414,1,0,0,rectangle_8,2.400024414,-6.400024414,1,0,0,4,2.400024414,-6.400024414,1,0,0,5,0,5,0,1,,,,,,,,,,,,,,,,,,,,,,,,,,,,,,,,,,,,,,,,,,,,,,,,,,,,,,,,,,,,,,,,,,,,,,,,,,,,,,,,,,,,,,,,,,,,,,,,,,,,,,,,,,,,,,,,
,,,,,,5fe23f65878eaadb5e2c8ba1,62c53a85deca570d4abc80d5,2022-07-06_09h34.28.387,Colour_Asymmetry_Pilot,2022.1.3,Win32,60.15037594,62c50e9c1127f2cd403a315f,,,,,,,,,,,,,,,,,,,"[-0.30200000000000005,0.14500000000000002,0.2784]",fourthree,"[-0.24719999999999998,-0.0354000000000001,0.3175999999999999]",3,2.7192,138.4000244,25.59997559,1,0,0,response1disk_5,4.800048828,-11.20001221,1,0,0,rectangle_8,4.800048828,-11.20001221,1,0,0,4,4.800048828,-11.20001221,1,0,0,6,0,6,0,1,,,,,,,,,,,,,,,,,,,,,,,,,,,,,,,,,,,,,,,,,,,,,,,,,,,,,,,,,,,,,,,,,,,,,,,,,,,,,,,,,,,,,,,,,,,,,,,,,,,,,,,,,,,,,,,,
,,,,,,5fe23f65878eaadb5e2c8ba1,62c53a85deca570d4abc80d5,2022-07-06_09h34.28.387,Colour_Asymmetry_Pilot,2022.1.3,Win32,60.15037594,62c50e9c1127f2cd403a315f,,,,,,,,,,,,,,,,,,,,twoone,,-2,2.4525,,,,,,,,,,,,,,,,,,,,,,,,,,,,,,,,space,5.3258,"[-0.38039999999999996,-0.4276,-0.1452]","[0.22340000000000004,-0.9296,-0.7884]",-125.5999756,-35.20001221,1,0,0,response5disk,10.40002441,0.799987793,1,0,0,rectangle,10.40002441,0.799987793,1,0,0,,3,0.0026,0,10.40002441,0.799987793,1,0,0,0,0,0,100,1,19,second,,,,,,,,,,,,,,,,,,,,,,,,,,,,,,,,,,,,,,,,,,,,,,,,,,,,,,,,,,,,,,,,,,,,,,,,
,,,,,,5fe23f65878eaadb5e2c8ba1,62c53a85deca570d4abc80d5,2022-07-06_09h34.28.387,Colour_Asymmetry_Pilot,2022.1.3,Win32,60.15037594,62c50e9c1127f2cd403a315f,,,,,,,,,,,,,,,,,,,,twofour,,-2,4.656,,,,,,,,,,,,,,,,,,,,,,,,,,,,,,,,,,"[0.7646000000000002,0.07440000000000002,0.2704]","[-0.26280000000000003,-0.4746,-0.2158]",-108,-54.40002441,1,0,0,response5disk,-12,-6.400024414,1,0,0,rectangle,-12,-6.400024414,1,0,0,,3,0.0003,0,-12,-6.400024414,1,0,0,0,1,1,34,1,34,first,,,,,,,,,,,,,,,,,,,,,,,,,,,,,,,,,,,,,,,,,,,,,,,,,,,,,,,,,,,,,,,,,,,,,,,,
,,,,,,5fe23f65878eaadb5e2c8ba1,62c53a85deca570d4abc80d5,2022-07-06_09h34.28.387,Colour_Asymmetry_Pilot,2022.1.3,Win32,60.15037594,62c50e9c1127f2cd403a315f,,,,,,,,,,,,,,,,,,,,fourtwo,,-3,2.6354,,,,,,,,,,,,,,,,,,,,,,,,,,,,,,,,,,"[0.2784,-0.31000000000000005,-0.5452]","[-0.10599999999999998,-0.15300000000000002,0.15280000000000005]",-90.39996338,66.3999939,1,0,0,response7disk,2.400024414,-2.400024414,1,0,0,rectangle,2.400024414,-2.400024414,1,0,0,,2,0.0011,0,2.400024414,-2.400024414,1,0,0,0,2,2,40,1,40,first,,,,,,,,,,,,,,,,,,,,,,,,,,,,,,,,,,,,,,,,,,,,,,,,,,,,,,,,,,,,,,,,,,,,,,,,
,,,,,,5fe23f65878eaadb5e2c8ba1,62c53a85deca570d4abc80d5,2022-07-06_09h34.28.387,Colour_Asymmetry_Pilot,2022.1.3,Win32,60.15037594,62c50e9c1127f2cd403a315f,,,,,,,,,,,,,,,,,,,,fourthree,,1,4.1544,,,,,,,,,,,,,,,,,,,,,,,,,,,,,,,,,,"[-0.17659999999999998,-0.2864,-0.8354]","[0.34099999999999997,0.12939999999999996,-0.9766]",40,-152.7999878,1,0,0,response3disk,-5.599975586,-4,1,0,0,rectangle,-5.599975586,-4,1,0,0,,1,0.0015,0,-5.599975586,-4,1,0,0,0,3,3,24,1,24,first,,,,,,,,,,,,,,,,,,,,,,,,,,,,,,,,,,,,,,,,,,,,,,,,,,,,,,,,,,,,,,,,,,,,,,,,
,,,,,,5fe23f65878eaadb5e2c8ba1,62c53a85deca570d4abc80d5,2022-07-06_09h34.28.387,Colour_Asymmetry_Pilot,2022.1.3,Win32,60.15037594,62c50e9c1127f2cd403a315f,,,,,,,,,,,,,,,,,,,,onethree,,-3,2.9861,,,,,,,,,,,,,,,,,,,,,,,,,,,,,,,,,,"[0.7018,0.7802,-0.16079999999999994]","[0.7176,-0.906,-0.6864]",-118.3999634,55.20001221,1,0,0,response7disk,-1.599975586,-12.79998779,1,0,0,rectangle,-1.599975586,-12.79998779,1,0,0,,1,0.0004,0,-1.599975586,-12.79998779,1,0,0,0,4,4,152,1,71,second,,,,,,,,,,,,,,,,,,,,,,,,,,,,,,,,,,,,,,,,,,,,,,,,,,,,,,,,,,,,,,,,,,,,,,,,
,,,,,,5fe23f65878eaadb5e2c8ba1,62c53a85deca570d4abc80d5,2022-07-06_09h34.28.387,Colour_Asymmetry_Pilot,2022.1.3,Win32,60.15037594,62c50e9c1127f2cd403a315f,,,,,,,,,,,,,,,,,,,,fourthree,,-4,0.9177,,,,,,,,,,,,,,,,,,,,,,,,,,,,,,,,,,"[-0.01980000000000004,-0.5138,-0.38039999999999996]","[-0.9216,-0.5529999999999999,-0.3962]",-34.39996338,88.79998779,1,0,0,response7disk,-1.599975586,-4.799987793,1,0,0,rectangle,-1.599975586,-4.799987793,1,0,0,,1,0.0003,0,-1.599975586,-4.799987793,1,0,0,0,5,5,122,1,41,second,,,,,,,,,,,,,,,,,,,,,,,,,,,,,,,,,,,,,,,,,,,,,,,,,,,,,,,,,,,,,,,,,,,,,,,,
,,,,,,5fe23f65878eaadb5e2c8ba1,62c53a85deca570d4abc80d5,2022-07-06_09h34.28.387,Colour_Asymmetry_Pilot,2022.1.3,Win32,60.15037594,62c50e9c1127f2cd403a315f,,,,,,,,,,,,,,,,,,,,fourthree,,-2,12.7942,,,,,,,,,,,,,,,,,,,,,,,,,,,,,,,,,,"[-0.48240000000000005,0.3175999999999999,0.2156]","[0.19199999999999995,0.18419999999999992,0.5136000000000001]",-101.5999756,-71.20001221,1,0,0,response5disk,3.200073242,-2.400024414,1,0,0,rectangle,3.200073242,-2.400024414,1,0,0,,2,0.0012,0,3.200073242,-2.400024414,1,0,0,0,6,6,134,1,53,second,,,,,,,,,,,,,,,,,,,,,,,,,,,,,,,,,,,,,,,,,,,,,,,,,,,,,,,,,,,,,,,,,,,,,,,,
,,,,,,5fe23f65878eaadb5e2c8ba1,62c53a85deca570d4abc80d5,2022-07-06_09h34.28.387,Colour_Asymmetry_Pilot,2022.1.3,Win32,60.15037594,62c50e9c1127f2cd403a315f,,,,,,,,,,,,,,,,,,,,fourthree,,-2,4.9377,,,,,,,,,,,,,,,,,,,,,,,,,,,,,,,,,,"[-0.8198,-0.5138,-0.7492000000000001]","[-0.9688,-0.4902000000000001,-0.12159999999999993]",-126.3999634,-56,1,0,0,response5disk,4,11.20001221,1,0,0,rectangle,136.8000488,54.39996338,1,0,0,3,3,2.4499,1,8,-8.799987793,1,0,0,0,7,7,161,1,80,second,response1disk_3,rectangle,,,,,,,,,,,,,,,,,,,,,,,,,,,,,,,,,,,,,,,,,,,,,,,,,,,,,,,,,,,,,,,,,,,,,,
,,,,,,5fe23f65878eaadb5e2c8ba1,62c53a85deca570d4abc80d5,2022-07-06_09h34.28.387,Colour_Asymmetry_Pilot,2022.1.3,Win32,60.15037594,62c50e9c1127f2cd403a315f,,,,,,,,,,,,,,,,,,,,onetwo,,-3,2.0855,,,,,,,,,,,,,,,,,,,,,,,,,,,,,,,,,,"[0.22340000000000004,-0.9296,-0.7884]","[-0.2942,-0.24719999999999998,-0.357]",-115.2000122,48.79998779,1,0,0,response7disk,-4.799987793,-2.400024414,1,0,0,rectangle,-4.799987793,-2.400024414,1,0,0,3,2,0.0008,0,-4.799987793,-2.400024414,1,0,0,0,8,8,26,1,26,first,,,,,,,,,,,,,,,,,,,,,,,,,,,,,,,,,,,,,,,,,,,,,,,,,,,,,,,,,,,,,,,,,,,,,,,,
,,,,,,5fe23f65878eaadb5e2c8ba1,62c53a85deca570d4abc80d5,2022-07-06_09h34.28.387,Colour_Asymmetry_Pilot,2022.1.3,Win32,60.15037594,62c50e9c1127f2cd403a315f,,,,,,,,,,,,,,,,,,,,threefour,,-3,2.5829,,,,,,,,,,,,,,,,,,,,,,,,,,,,,,,,,,"[0.7018,0.7176,0.6155999999999999]","[0.9372,0.20779999999999998,0.2704]",-121.5999756,35.20001221,1,0,0,response7disk,0.800048828,-10.40002441,1,0,0,rectangle,0.800048828,-10.40002441,1,0,0,3,1,0.0012,0,0.800048828,-10.40002441,1,0,0,0,9,9,95,1,14,second,,,,,,,,,,,,,,,,,,,,,,,,,,,,,,,,,,,,,,,,,,,,,,,,,,,,,,,,,,,,,,,,,,,,,,,,
,,,,,,5fe23f65878eaadb5e2c8ba1,62c53a85deca570d4abc80d5,2022-07-06_09h34.28.387,Colour_Asymmetry_Pilot,2022.1.3,Win32,60.15037594,62c50e9c1127f2cd403a315f,,,,,,,,,,,,,,,,,,,,onetwo,,-2,1.0351,,,,,,,,,,,,,,,,,,,,,,,,,,,,,,,,,,"[-0.6942,-0.7648,-0.12959999999999994]","[-0.9138,-0.5296000000000001,-0.5529999999999999]",-127.2000122,-78.40002441,1,0,0,response5disk,8,-12.79998779,1,0,0,rectangle,8,-12.79998779,1,0,0,3,2,0.0008,0,8,-12.79998779,1,0,0,0,10,10,2,1,2,first,,,,,,,,,,,,,,,,,,,,,,,,,,,,,,,,,,,,,,,,,,,,,,,,,,,,,,,,,,,,,,,,,,,,,,,,
,,,,,,5fe23f65878eaadb5e2c8ba1,62c53a85deca570d4abc80d5,2022-07-06_09h34.28.387,Colour_Asymmetry_Pilot,2022.1.3,Win32,60.15037594,62c50e9c1127f2cd403a315f,,,,,,,,,,,,,,,,,,,,twofour,,-1,2.6188,,,,,,,,,,,,,,,,,,,,,,,,,,,,,,,,,,"[-0.7412000000000001,-0.08239999999999992,-0.6864]","[-0.48240000000000005,0.3175999999999999,0.2156]",-64,-94.40002441,1,0,0,response5disk,-16,4,1,0,0,rectangle,-16,4,1,0,0,3,3,0.0012,0,-16,4,1,0,0,0,11,11,13,1,13,first,,,,,,,,,,,,,,,,,,,,,,,,,,,,,,,,,,,,,,,,,,,,,,,,,,,,,,,,,,,,,,,,,,,,,,,,
,,,,,,5fe23f65878eaadb5e2c8ba1,62c53a85deca570d4abc80d5,2022-07-06_09h34.28.387,Colour_Asymmetry_Pilot,2022.1.3,Win32,60.15037594,62c50e9c1127f2cd403a315f,,,,,,,,,,,,,,,,,,,,fourtwo,,1,0.7891,,,,,,,,,,,,,,,,,,,,,,,,,,,,,,,,,,"[0.2862,0.7802,0.3568]","[-0.9688,-0.38039999999999996,-0.41979999999999995]",36,-112.7999878,1,0,0,response3disk,-21.59997559,0,1,0,0,rectangle,-21.59997559,0,1,0,0,3,2,0.0024,0,-21.59997559,0,1,0,0,0,12,12,101,1,20,second,,,,,,,,,,,,,,,,,,,,,,,,,,,,,,,,,,,,,,,,,,,,,,,,,,,,,,,,,,,,,,,,,,,,,,,,
,,,,,,5fe23f65878eaadb5e2c8ba1,62c53a85deca570d4abc80d5,2022-07-06_09h34.28.387,Colour_Asymmetry_Pilot,2022.1.3,Win32,60.15037594,62c50e9c1127f2cd403a315f,,,,,,,,,,,,,,,,,,,,threeone,,-4,4.6254,,,,,,,,,,,,,,,,,,,,,,,,,,,,,,,,,,"[0.9372,0.9450000000000001,0.8980000000000001]","[0.8274000000000001,-0.5844,-0.9452]",-48.79998779,116.7999878,1,0,0,response7disk,4,-16,1,0,0,rectangle,4,-16,1,0,0,3,2,0.0002,0,4,-16,1,0,0,0,13,13,72,1,72,first,,,,,,,,,,,,,,,,,,,,,,,,,,,,,,,,,,,,,,,,,,,,,,,,,,,,,,,,,,,,,,,,,,,,,,,,
,,,,,,5fe23f65878eaadb5e2c8ba1,62c53a85deca570d4abc80d5,2022-07-06_09h34.28.387,Colour_Asymmetry_Pilot,2022.1.3,Win32,60.15037594,62c50e9c1127f2cd403a315f,,,,,,,,,,,,,,,,,,,,twofour,,2,1.4149,,,,,,,,,,,,,,,,,,,,,,,,,,,,,,,,,,"[0.7176,-0.906,-0.6864]","[0.7646000000000002,0.07440000000000002,0.2704]",143.2000732,-71.20001221,1,0,0,response3disk,-1.599975586,-0.799987793,1,0,0,rectangle,-1.599975586,-0.799987793,1,0,0,3,2,0.0004,0,-1.599975586,-0.799987793,1,0,0,0,14,14,23,1,23,first,,,,,,,,,,,,,,,,,,,,,,,,,,,,,,,,,,,,,,,,,,,,,,,,,,,,,,,,,,,,,,,,,,,,,,,,
