trials.thisRepN,trials.thisTrialN,trials.thisN,trials.thisIndex,trials.ran,Colourcodes,participant,session,date,expName,psychopyVersion,OS,frameRate,study_id,trials_4.thisRepN,trials_4.thisTrialN,trials_4.thisN,trials_4.thisIndex,trials_4.ran,StimulusPos,key_resp.keys,key_resp.rt,key_resp_2.keys,key_resp_2.rt,key_resp_15.keys,key_resp_15.rt,key_resp_17.keys,key_resp_17.rt,key_resp_9.keys,key_resp_9.rt,key_resp_10.keys,key_resp_10.rt,Circle1_col,Ecc,Circle2_col,similarity,response_time,mouse_5.x,mouse_5.y,mouse_5.leftButton,mouse_5.midButton,mouse_5.rightButton,mouse_5.clicked_name,mouse_10.x,mouse_10.y,mouse_10.leftButton,mouse_10.midButton,mouse_10.rightButton,mouse_10.clicked_name,mouse_7.x,mouse_7.y,mouse_7.leftButton,mouse_7.midButton,mouse_7.rightButton,catchnumberprac,mouse_6.x,mouse_6.y,mouse_6.leftButton,mouse_6.midButton,mouse_6.rightButton,duringprac.thisRepN,duringprac.thisTrialN,duringprac.thisN,duringprac.thisIndex,duringprac.ran,key_resp_22.keys,key_resp_22.rt,Circle1_colour,Circle2_colour,mouse.x,mouse.y,mouse.leftButton,mouse.midButton,mouse.rightButton,mouse.clicked_name,mouse_2.x,mouse_2.y,mouse_2.leftButton,mouse_2.midButton,mouse_2.rightButton,mouse_2.clicked_name,mouse_3.x,mouse_3.y,mouse_3.leftButton,mouse_3.midButton,mouse_3.rightButton,catchresponse,catchnumber,response_time_catch,Catch,mouse_11.x,mouse_11.y,mouse_11.leftButton,mouse_11.midButton,mouse_11.rightButton,trials_2.thisRepN,trials_2.thisTrialN,trials_2.thisN,trials_2.thisIndex,trials_2.ran,Colourpair,Temporder,mouse_3.clicked_name,mouse_11.clicked_name,trials_3.thisRepN,trials_3.thisTrialN,trials_3.thisN,trials_3.thisIndex,trials_3.ran,key_resp_instr_Ishi.keys,key_resp_instr_Ishi.rt,Ishi_trial_keyresp.keys,Ishi_textbox.text,Ishi_mouse.x,Ishi_mouse.y,Ishi_mouse.leftButton,Ishi_mouse.midButton,Ishi_mouse.rightButton,Ishi_mouse.clicked_name,Ishi_loop.thisRepN,Ishi_loop.thisTrialN,Ishi_loop.thisN,Ishi_loop.thisIndex,Ishi_loop.ran,imageaddress,textbox.text,mouse_4.x,mouse_4.y,mouse_4.leftButton,mouse_4.midButton,mouse_4.rightButton,mouse_4.clicked_name,textbox_2.text,mouse_8.x,mouse_8.y,mouse_8.leftButton,mouse_8.midButton,mouse_8.rightButton,mouse_8.clicked_name,textbox_3.text,mouse_9.x,mouse_9.y,mouse_9.leftButton,mouse_9.midButton,mouse_9.rightButton,mouse_9.clicked_name,textbox_4.text,mouse_12.x,mouse_12.y,mouse_12.leftButton,mouse_12.midButton,mouse_12.rightButton,mouse_12.clicked_name,textbox_5.text,mouse_13.x,mouse_13.y,mouse_13.leftButton,mouse_13.midButton,mouse_13.rightButton,mouse_13.clicked_name,textbox_6.text,mouse_14.x,mouse_14.y,mouse_14.leftButton,mouse_14.midButton,mouse_14.rightButton,mouse_14.clicked_name,textbox_7.text,mouse_15.x,mouse_15.y,mouse_15.leftButton,mouse_15.midButton,mouse_15.rightButton,mouse_15.clicked_name
0,0,0,18,1,,59b0565d2a78fd00010b8259,62c53a39c914d34f9b3fff62,2022-07-06_09h31.47.265,Colour_Asymmetry_Pilot,2022.1.3,Win32,60.0240096,62c50e9c1127f2cd403a315f,,,,,,,,,,,,,,,,,,,,,,,,,,,,,,,,,,,,,,,,,,,,,,,,,,,,,,,,,,,,,,,,,,,,,,,,,,,,,,,,,,,,,,,,,,,,,,,,,,,,,,,,,,,,,,,,,,,,,,,,,,,,,,,,,,,,,,,,,,,,,,,,,,,,,,,,,,,,,,,,
0,1,1,89,1,,59b0565d2a78fd00010b8259,62c53a39c914d34f9b3fff62,2022-07-06_09h31.47.265,Colour_Asymmetry_Pilot,2022.1.3,Win32,60.0240096,62c50e9c1127f2cd403a315f,,,,,,,,,,,,,,,,,,,,,,,,,,,,,,,,,,,,,,,,,,,,,,,,,,,,,,,,,,,,,,,,,,,,,,,,,,,,,,,,,,,,,,,,,,,,,,,,,,,,,,,,,,,,,,,,,,,,,,,,,,,,,,,,,,,,,,,,,,,,,,,,,,,,,,,,,,,,,,,,
0,2,2,81,1,,59b0565d2a78fd00010b8259,62c53a39c914d34f9b3fff62,2022-07-06_09h31.47.265,Colour_Asymmetry_Pilot,2022.1.3,Win32,60.0240096,62c50e9c1127f2cd403a315f,,,,,,,,,,,,,,,,,,,,,,,,,,,,,,,,,,,,,,,,,,,,,,,,,,,,,,,,,,,,,,,,,,,,,,,,,,,,,,,,,,,,,,,,,,,,,,,,,,,,,,,,,,,,,,,,,,,,,,,,,,,,,,,,,,,,,,,,,,,,,,,,,,,,,,,,,,,,,,,,
0,3,3,25,1,,59b0565d2a78fd00010b8259,62c53a39c914d34f9b3fff62,2022-07-06_09h31.47.265,Colour_Asymmetry_Pilot,2022.1.3,Win32,60.0240096,62c50e9c1127f2cd403a315f,,,,,,,,,,,,,,,,,,,,,,,,,,,,,,,,,,,,,,,,,,,,,,,,,,,,,,,,,,,,,,,,,,,,,,,,,,,,,,,,,,,,,,,,,,,,,,,,,,,,,,,,,,,,,,,,,,,,,,,,,,,,,,,,,,,,,,,,,,,,,,,,,,,,,,,,,,,,,,,,
0,4,4,0,1,,59b0565d2a78fd00010b8259,62c53a39c914d34f9b3fff62,2022-07-06_09h31.47.265,Colour_Asymmetry_Pilot,2022.1.3,Win32,60.0240096,62c50e9c1127f2cd403a315f,,,,,,,,,,,,,,,,,,,,,,,,,,,,,,,,,,,,,,,,,,,,,,,,,,,,,,,,,,,,,,,,,,,,,,,,,,,,,,,,,,,,,,,,,,,,,,,,,,,,,,,,,,,,,,,,,,,,,,,,,,,,,,,,,,,,,,,,,,,,,,,,,,,,,,,,,,,,,,,,
0,5,5,58,1,,59b0565d2a78fd00010b8259,62c53a39c914d34f9b3fff62,2022-07-06_09h31.47.265,Colour_Asymmetry_Pilot,2022.1.3,Win32,60.0240096,62c50e9c1127f2cd403a315f,,,,,,,,,,,,,,,,,,,,,,,,,,,,,,,,,,,,,,,,,,,,,,,,,,,,,,,,,,,,,,,,,,,,,,,,,,,,,,,,,,,,,,,,,,,,,,,,,,,,,,,,,,,,,,,,,,,,,,,,,,,,,,,,,,,,,,,,,,,,,,,,,,,,,,,,,,,,,,,,
0,6,6,46,1,,59b0565d2a78fd00010b8259,62c53a39c914d34f9b3fff62,2022-07-06_09h31.47.265,Colour_Asymmetry_Pilot,2022.1.3,Win32,60.0240096,62c50e9c1127f2cd403a315f,,,,,,,,,,,,,,,,,,,,,,,,,,,,,,,,,,,,,,,,,,,,,,,,,,,,,,,,,,,,,,,,,,,,,,,,,,,,,,,,,,,,,,,,,,,,,,,,,,,,,,,,,,,,,,,,,,,,,,,,,,,,,,,,,,,,,,,,,,,,,,,,,,,,,,,,,,,,,,,,
0,7,7,72,1,,59b0565d2a78fd00010b8259,62c53a39c914d34f9b3fff62,2022-07-06_09h31.47.265,Colour_Asymmetry_Pilot,2022.1.3,Win32,60.0240096,62c50e9c1127f2cd403a315f,,,,,,,,,,,,,,,,,,,,,,,,,,,,,,,,,,,,,,,,,,,,,,,,,,,,,,,,,,,,,,,,,,,,,,,,,,,,,,,,,,,,,,,,,,,,,,,,,,,,,,,,,,,,,,,,,,,,,,,,,,,,,,,,,,,,,,,,,,,,,,,,,,,,,,,,,,,,,,,,
0,8,8,49,1,,59b0565d2a78fd00010b8259,62c53a39c914d34f9b3fff62,2022-07-06_09h31.47.265,Colour_Asymmetry_Pilot,2022.1.3,Win32,60.0240096,62c50e9c1127f2cd403a315f,,,,,,,,,,,,,,,,,,,,,,,,,,,,,,,,,,,,,,,,,,,,,,,,,,,,,,,,,,,,,,,,,,,,,,,,,,,,,,,,,,,,,,,,,,,,,,,,,,,,,,,,,,,,,,,,,,,,,,,,,,,,,,,,,,,,,,,,,,,,,,,,,,,,,,,,,,,,,,,,
0,9,9,22,1,,59b0565d2a78fd00010b8259,62c53a39c914d34f9b3fff62,2022-07-06_09h31.47.265,Colour_Asymmetry_Pilot,2022.1.3,Win32,60.0240096,62c50e9c1127f2cd403a315f,,,,,,,,,,,,,,,,,,,,,,,,,,,,,,,,,,,,,,,,,,,,,,,,,,,,,,,,,,,,,,,,,,,,,,,,,,,,,,,,,,,,,,,,,,,,,,,,,,,,,,,,,,,,,,,,,,,,,,,,,,,,,,,,,,,,,,,,,,,,,,,,,,,,,,,,,,,,,,,,
0,10,10,92,1,,59b0565d2a78fd00010b8259,62c53a39c914d34f9b3fff62,2022-07-06_09h31.47.265,Colour_Asymmetry_Pilot,2022.1.3,Win32,60.0240096,62c50e9c1127f2cd403a315f,,,,,,,,,,,,,,,,,,,,,,,,,,,,,,,,,,,,,,,,,,,,,,,,,,,,,,,,,,,,,,,,,,,,,,,,,,,,,,,,,,,,,,,,,,,,,,,,,,,,,,,,,,,,,,,,,,,,,,,,,,,,,,,,,,,,,,,,,,,,,,,,,,,,,,,,,,,,,,,,
0,11,11,44,1,,59b0565d2a78fd00010b8259,62c53a39c914d34f9b3fff62,2022-07-06_09h31.47.265,Colour_Asymmetry_Pilot,2022.1.3,Win32,60.0240096,62c50e9c1127f2cd403a315f,,,,,,,,,,,,,,,,,,,,,,,,,,,,,,,,,,,,,,,,,,,,,,,,,,,,,,,,,,,,,,,,,,,,,,,,,,,,,,,,,,,,,,,,,,,,,,,,,,,,,,,,,,,,,,,,,,,,,,,,,,,,,,,,,,,,,,,,,,,,,,,,,,,,,,,,,,,,,,,,
0,12,12,43,1,,59b0565d2a78fd00010b8259,62c53a39c914d34f9b3fff62,2022-07-06_09h31.47.265,Colour_Asymmetry_Pilot,2022.1.3,Win32,60.0240096,62c50e9c1127f2cd403a315f,,,,,,,,,,,,,,,,,,,,,,,,,,,,,,,,,,,,,,,,,,,,,,,,,,,,,,,,,,,,,,,,,,,,,,,,,,,,,,,,,,,,,,,,,,,,,,,,,,,,,,,,,,,,,,,,,,,,,,,,,,,,,,,,,,,,,,,,,,,,,,,,,,,,,,,,,,,,,,,,
0,13,13,73,1,,59b0565d2a78fd00010b8259,62c53a39c914d34f9b3fff62,2022-07-06_09h31.47.265,Colour_Asymmetry_Pilot,2022.1.3,Win32,60.0240096,62c50e9c1127f2cd403a315f,,,,,,,,,,,,,,,,,,,,,,,,,,,,,,,,,,,,,,,,,,,,,,,,,,,,,,,,,,,,,,,,,,,,,,,,,,,,,,,,,,,,,,,,,,,,,,,,,,,,,,,,,,,,,,,,,,,,,,,,,,,,,,,,,,,,,,,,,,,,,,,,,,,,,,,,,,,,,,,,
0,14,14,24,1,,59b0565d2a78fd00010b8259,62c53a39c914d34f9b3fff62,2022-07-06_09h31.47.265,Colour_Asymmetry_Pilot,2022.1.3,Win32,60.0240096,62c50e9c1127f2cd403a315f,,,,,,,,,,,,,,,,,,,,,,,,,,,,,,,,,,,,,,,,,,,,,,,,,,,,,,,,,,,,,,,,,,,,,,,,,,,,,,,,,,,,,,,,,,,,,,,,,,,,,,,,,,,,,,,,,,,,,,,,,,,,,,,,,,,,,,,,,,,,,,,,,,,,,,,,,,,,,,,,
0,15,15,59,1,,59b0565d2a78fd00010b8259,62c53a39c914d34f9b3fff62,2022-07-06_09h31.47.265,Colour_Asymmetry_Pilot,2022.1.3,Win32,60.0240096,62c50e9c1127f2cd403a315f,,,,,,,,,,,,,,,,,,,,,,,,,,,,,,,,,,,,,,,,,,,,,,,,,,,,,,,,,,,,,,,,,,,,,,,,,,,,,,,,,,,,,,,,,,,,,,,,,,,,,,,,,,,,,,,,,,,,,,,,,,,,,,,,,,,,,,,,,,,,,,,,,,,,,,,,,,,,,,,,
0,16,16,78,1,,59b0565d2a78fd00010b8259,62c53a39c914d34f9b3fff62,2022-07-06_09h31.47.265,Colour_Asymmetry_Pilot,2022.1.3,Win32,60.0240096,62c50e9c1127f2cd403a315f,,,,,,,,,,,,,,,,,,,,,,,,,,,,,,,,,,,,,,,,,,,,,,,,,,,,,,,,,,,,,,,,,,,,,,,,,,,,,,,,,,,,,,,,,,,,,,,,,,,,,,,,,,,,,,,,,,,,,,,,,,,,,,,,,,,,,,,,,,,,,,,,,,,,,,,,,,,,,,,,
0,17,17,74,1,,59b0565d2a78fd00010b8259,62c53a39c914d34f9b3fff62,2022-07-06_09h31.47.265,Colour_Asymmetry_Pilot,2022.1.3,Win32,60.0240096,62c50e9c1127f2cd403a315f,,,,,,,,,,,,,,,,,,,,,,,,,,,,,,,,,,,,,,,,,,,,,,,,,,,,,,,,,,,,,,,,,,,,,,,,,,,,,,,,,,,,,,,,,,,,,,,,,,,,,,,,,,,,,,,,,,,,,,,,,,,,,,,,,,,,,,,,,,,,,,,,,,,,,,,,,,,,,,,,
0,18,18,70,1,,59b0565d2a78fd00010b8259,62c53a39c914d34f9b3fff62,2022-07-06_09h31.47.265,Colour_Asymmetry_Pilot,2022.1.3,Win32,60.0240096,62c50e9c1127f2cd403a315f,,,,,,,,,,,,,,,,,,,,,,,,,,,,,,,,,,,,,,,,,,,,,,,,,,,,,,,,,,,,,,,,,,,,,,,,,,,,,,,,,,,,,,,,,,,,,,,,,,,,,,,,,,,,,,,,,,,,,,,,,,,,,,,,,,,,,,,,,,,,,,,,,,,,,,,,,,,,,,,,
0,19,19,56,1,,59b0565d2a78fd00010b8259,62c53a39c914d34f9b3fff62,2022-07-06_09h31.47.265,Colour_Asymmetry_Pilot,2022.1.3,Win32,60.0240096,62c50e9c1127f2cd403a315f,,,,,,,,,,,,,,,,,,,,,,,,,,,,,,,,,,,,,,,,,,,,,,,,,,,,,,,,,,,,,,,,,,,,,,,,,,,,,,,,,,,,,,,,,,,,,,,,,,,,,,,,,,,,,,,,,,,,,,,,,,,,,,,,,,,,,,,,,,,,,,,,,,,,,,,,,,,,,,,,
0,20,20,36,1,,59b0565d2a78fd00010b8259,62c53a39c914d34f9b3fff62,2022-07-06_09h31.47.265,Colour_Asymmetry_Pilot,2022.1.3,Win32,60.0240096,62c50e9c1127f2cd403a315f,,,,,,,,,,,,,,,,,,,,,,,,,,,,,,,,,,,,,,,,,,,,,,,,,,,,,,,,,,,,,,,,,,,,,,,,,,,,,,,,,,,,,,,,,,,,,,,,,,,,,,,,,,,,,,,,,,,,,,,,,,,,,,,,,,,,,,,,,,,,,,,,,,,,,,,,,,,,,,,,
0,21,21,20,1,,59b0565d2a78fd00010b8259,62c53a39c914d34f9b3fff62,2022-07-06_09h31.47.265,Colour_Asymmetry_Pilot,2022.1.3,Win32,60.0240096,62c50e9c1127f2cd403a315f,,,,,,,,,,,,,,,,,,,,,,,,,,,,,,,,,,,,,,,,,,,,,,,,,,,,,,,,,,,,,,,,,,,,,,,,,,,,,,,,,,,,,,,,,,,,,,,,,,,,,,,,,,,,,,,,,,,,,,,,,,,,,,,,,,,,,,,,,,,,,,,,,,,,,,,,,,,,,,,,
0,22,22,82,1,,59b0565d2a78fd00010b8259,62c53a39c914d34f9b3fff62,2022-07-06_09h31.47.265,Colour_Asymmetry_Pilot,2022.1.3,Win32,60.0240096,62c50e9c1127f2cd403a315f,,,,,,,,,,,,,,,,,,,,,,,,,,,,,,,,,,,,,,,,,,,,,,,,,,,,,,,,,,,,,,,,,,,,,,,,,,,,,,,,,,,,,,,,,,,,,,,,,,,,,,,,,,,,,,,,,,,,,,,,,,,,,,,,,,,,,,,,,,,,,,,,,,,,,,,,,,,,,,,,
0,23,23,11,1,,59b0565d2a78fd00010b8259,62c53a39c914d34f9b3fff62,2022-07-06_09h31.47.265,Colour_Asymmetry_Pilot,2022.1.3,Win32,60.0240096,62c50e9c1127f2cd403a315f,,,,,,,,,,,,,,,,,,,,,,,,,,,,,,,,,,,,,,,,,,,,,,,,,,,,,,,,,,,,,,,,,,,,,,,,,,,,,,,,,,,,,,,,,,,,,,,,,,,,,,,,,,,,,,,,,,,,,,,,,,,,,,,,,,,,,,,,,,,,,,,,,,,,,,,,,,,,,,,,
0,24,24,19,1,,59b0565d2a78fd00010b8259,62c53a39c914d34f9b3fff62,2022-07-06_09h31.47.265,Colour_Asymmetry_Pilot,2022.1.3,Win32,60.0240096,62c50e9c1127f2cd403a315f,,,,,,,,,,,,,,,,,,,,,,,,,,,,,,,,,,,,,,,,,,,,,,,,,,,,,,,,,,,,,,,,,,,,,,,,,,,,,,,,,,,,,,,,,,,,,,,,,,,,,,,,,,,,,,,,,,,,,,,,,,,,,,,,,,,,,,,,,,,,,,,,,,,,,,,,,,,,,,,,
0,25,25,69,1,,59b0565d2a78fd00010b8259,62c53a39c914d34f9b3fff62,2022-07-06_09h31.47.265,Colour_Asymmetry_Pilot,2022.1.3,Win32,60.0240096,62c50e9c1127f2cd403a315f,,,,,,,,,,,,,,,,,,,,,,,,,,,,,,,,,,,,,,,,,,,,,,,,,,,,,,,,,,,,,,,,,,,,,,,,,,,,,,,,,,,,,,,,,,,,,,,,,,,,,,,,,,,,,,,,,,,,,,,,,,,,,,,,,,,,,,,,,,,,,,,,,,,,,,,,,,,,,,,,
0,26,26,32,1,,59b0565d2a78fd00010b8259,62c53a39c914d34f9b3fff62,2022-07-06_09h31.47.265,Colour_Asymmetry_Pilot,2022.1.3,Win32,60.0240096,62c50e9c1127f2cd403a315f,,,,,,,,,,,,,,,,,,,,,,,,,,,,,,,,,,,,,,,,,,,,,,,,,,,,,,,,,,,,,,,,,,,,,,,,,,,,,,,,,,,,,,,,,,,,,,,,,,,,,,,,,,,,,,,,,,,,,,,,,,,,,,,,,,,,,,,,,,,,,,,,,,,,,,,,,,,,,,,,
0,27,27,83,1,,59b0565d2a78fd00010b8259,62c53a39c914d34f9b3fff62,2022-07-06_09h31.47.265,Colour_Asymmetry_Pilot,2022.1.3,Win32,60.0240096,62c50e9c1127f2cd403a315f,,,,,,,,,,,,,,,,,,,,,,,,,,,,,,,,,,,,,,,,,,,,,,,,,,,,,,,,,,,,,,,,,,,,,,,,,,,,,,,,,,,,,,,,,,,,,,,,,,,,,,,,,,,,,,,,,,,,,,,,,,,,,,,,,,,,,,,,,,,,,,,,,,,,,,,,,,,,,,,,
0,28,28,91,1,,59b0565d2a78fd00010b8259,62c53a39c914d34f9b3fff62,2022-07-06_09h31.47.265,Colour_Asymmetry_Pilot,2022.1.3,Win32,60.0240096,62c50e9c1127f2cd403a315f,,,,,,,,,,,,,,,,,,,,,,,,,,,,,,,,,,,,,,,,,,,,,,,,,,,,,,,,,,,,,,,,,,,,,,,,,,,,,,,,,,,,,,,,,,,,,,,,,,,,,,,,,,,,,,,,,,,,,,,,,,,,,,,,,,,,,,,,,,,,,,,,,,,,,,,,,,,,,,,,
0,29,29,88,1,,59b0565d2a78fd00010b8259,62c53a39c914d34f9b3fff62,2022-07-06_09h31.47.265,Colour_Asymmetry_Pilot,2022.1.3,Win32,60.0240096,62c50e9c1127f2cd403a315f,,,,,,,,,,,,,,,,,,,,,,,,,,,,,,,,,,,,,,,,,,,,,,,,,,,,,,,,,,,,,,,,,,,,,,,,,,,,,,,,,,,,,,,,,,,,,,,,,,,,,,,,,,,,,,,,,,,,,,,,,,,,,,,,,,,,,,,,,,,,,,,,,,,,,,,,,,,,,,,,
0,30,30,21,1,,59b0565d2a78fd00010b8259,62c53a39c914d34f9b3fff62,2022-07-06_09h31.47.265,Colour_Asymmetry_Pilot,2022.1.3,Win32,60.0240096,62c50e9c1127f2cd403a315f,,,,,,,,,,,,,,,,,,,,,,,,,,,,,,,,,,,,,,,,,,,,,,,,,,,,,,,,,,,,,,,,,,,,,,,,,,,,,,,,,,,,,,,,,,,,,,,,,,,,,,,,,,,,,,,,,,,,,,,,,,,,,,,,,,,,,,,,,,,,,,,,,,,,,,,,,,,,,,,,
0,31,31,85,1,,59b0565d2a78fd00010b8259,62c53a39c914d34f9b3fff62,2022-07-06_09h31.47.265,Colour_Asymmetry_Pilot,2022.1.3,Win32,60.0240096,62c50e9c1127f2cd403a315f,,,,,,,,,,,,,,,,,,,,,,,,,,,,,,,,,,,,,,,,,,,,,,,,,,,,,,,,,,,,,,,,,,,,,,,,,,,,,,,,,,,,,,,,,,,,,,,,,,,,,,,,,,,,,,,,,,,,,,,,,,,,,,,,,,,,,,,,,,,,,,,,,,,,,,,,,,,,,,,,
0,32,32,12,1,,59b0565d2a78fd00010b8259,62c53a39c914d34f9b3fff62,2022-07-06_09h31.47.265,Colour_Asymmetry_Pilot,2022.1.3,Win32,60.0240096,62c50e9c1127f2cd403a315f,,,,,,,,,,,,,,,,,,,,,,,,,,,,,,,,,,,,,,,,,,,,,,,,,,,,,,,,,,,,,,,,,,,,,,,,,,,,,,,,,,,,,,,,,,,,,,,,,,,,,,,,,,,,,,,,,,,,,,,,,,,,,,,,,,,,,,,,,,,,,,,,,,,,,,,,,,,,,,,,
0,33,33,35,1,,59b0565d2a78fd00010b8259,62c53a39c914d34f9b3fff62,2022-07-06_09h31.47.265,Colour_Asymmetry_Pilot,2022.1.3,Win32,60.0240096,62c50e9c1127f2cd403a315f,,,,,,,,,,,,,,,,,,,,,,,,,,,,,,,,,,,,,,,,,,,,,,,,,,,,,,,,,,,,,,,,,,,,,,,,,,,,,,,,,,,,,,,,,,,,,,,,,,,,,,,,,,,,,,,,,,,,,,,,,,,,,,,,,,,,,,,,,,,,,,,,,,,,,,,,,,,,,,,,
0,34,34,37,1,,59b0565d2a78fd00010b8259,62c53a39c914d34f9b3fff62,2022-07-06_09h31.47.265,Colour_Asymmetry_Pilot,2022.1.3,Win32,60.0240096,62c50e9c1127f2cd403a315f,,,,,,,,,,,,,,,,,,,,,,,,,,,,,,,,,,,,,,,,,,,,,,,,,,,,,,,,,,,,,,,,,,,,,,,,,,,,,,,,,,,,,,,,,,,,,,,,,,,,,,,,,,,,,,,,,,,,,,,,,,,,,,,,,,,,,,,,,,,,,,,,,,,,,,,,,,,,,,,,
0,35,35,41,1,,59b0565d2a78fd00010b8259,62c53a39c914d34f9b3fff62,2022-07-06_09h31.47.265,Colour_Asymmetry_Pilot,2022.1.3,Win32,60.0240096,62c50e9c1127f2cd403a315f,,,,,,,,,,,,,,,,,,,,,,,,,,,,,,,,,,,,,,,,,,,,,,,,,,,,,,,,,,,,,,,,,,,,,,,,,,,,,,,,,,,,,,,,,,,,,,,,,,,,,,,,,,,,,,,,,,,,,,,,,,,,,,,,,,,,,,,,,,,,,,,,,,,,,,,,,,,,,,,,
0,36,36,66,1,,59b0565d2a78fd00010b8259,62c53a39c914d34f9b3fff62,2022-07-06_09h31.47.265,Colour_Asymmetry_Pilot,2022.1.3,Win32,60.0240096,62c50e9c1127f2cd403a315f,,,,,,,,,,,,,,,,,,,,,,,,,,,,,,,,,,,,,,,,,,,,,,,,,,,,,,,,,,,,,,,,,,,,,,,,,,,,,,,,,,,,,,,,,,,,,,,,,,,,,,,,,,,,,,,,,,,,,,,,,,,,,,,,,,,,,,,,,,,,,,,,,,,,,,,,,,,,,,,,
0,37,37,53,1,,59b0565d2a78fd00010b8259,62c53a39c914d34f9b3fff62,2022-07-06_09h31.47.265,Colour_Asymmetry_Pilot,2022.1.3,Win32,60.0240096,62c50e9c1127f2cd403a315f,,,,,,,,,,,,,,,,,,,,,,,,,,,,,,,,,,,,,,,,,,,,,,,,,,,,,,,,,,,,,,,,,,,,,,,,,,,,,,,,,,,,,,,,,,,,,,,,,,,,,,,,,,,,,,,,,,,,,,,,,,,,,,,,,,,,,,,,,,,,,,,,,,,,,,,,,,,,,,,,
0,38,38,67,1,,59b0565d2a78fd00010b8259,62c53a39c914d34f9b3fff62,2022-07-06_09h31.47.265,Colour_Asymmetry_Pilot,2022.1.3,Win32,60.0240096,62c50e9c1127f2cd403a315f,,,,,,,,,,,,,,,,,,,,,,,,,,,,,,,,,,,,,,,,,,,,,,,,,,,,,,,,,,,,,,,,,,,,,,,,,,,,,,,,,,,,,,,,,,,,,,,,,,,,,,,,,,,,,,,,,,,,,,,,,,,,,,,,,,,,,,,,,,,,,,,,,,,,,,,,,,,,,,,,
0,39,39,52,1,,59b0565d2a78fd00010b8259,62c53a39c914d34f9b3fff62,2022-07-06_09h31.47.265,Colour_Asymmetry_Pilot,2022.1.3,Win32,60.0240096,62c50e9c1127f2cd403a315f,,,,,,,,,,,,,,,,,,,,,,,,,,,,,,,,,,,,,,,,,,,,,,,,,,,,,,,,,,,,,,,,,,,,,,,,,,,,,,,,,,,,,,,,,,,,,,,,,,,,,,,,,,,,,,,,,,,,,,,,,,,,,,,,,,,,,,,,,,,,,,,,,,,,,,,,,,,,,,,,
0,40,40,10,1,,59b0565d2a78fd00010b8259,62c53a39c914d34f9b3fff62,2022-07-06_09h31.47.265,Colour_Asymmetry_Pilot,2022.1.3,Win32,60.0240096,62c50e9c1127f2cd403a315f,,,,,,,,,,,,,,,,,,,,,,,,,,,,,,,,,,,,,,,,,,,,,,,,,,,,,,,,,,,,,,,,,,,,,,,,,,,,,,,,,,,,,,,,,,,,,,,,,,,,,,,,,,,,,,,,,,,,,,,,,,,,,,,,,,,,,,,,,,,,,,,,,,,,,,,,,,,,,,,,
0,41,41,77,1,,59b0565d2a78fd00010b8259,62c53a39c914d34f9b3fff62,2022-07-06_09h31.47.265,Colour_Asymmetry_Pilot,2022.1.3,Win32,60.0240096,62c50e9c1127f2cd403a315f,,,,,,,,,,,,,,,,,,,,,,,,,,,,,,,,,,,,,,,,,,,,,,,,,,,,,,,,,,,,,,,,,,,,,,,,,,,,,,,,,,,,,,,,,,,,,,,,,,,,,,,,,,,,,,,,,,,,,,,,,,,,,,,,,,,,,,,,,,,,,,,,,,,,,,,,,,,,,,,,
0,42,42,65,1,,59b0565d2a78fd00010b8259,62c53a39c914d34f9b3fff62,2022-07-06_09h31.47.265,Colour_Asymmetry_Pilot,2022.1.3,Win32,60.0240096,62c50e9c1127f2cd403a315f,,,,,,,,,,,,,,,,,,,,,,,,,,,,,,,,,,,,,,,,,,,,,,,,,,,,,,,,,,,,,,,,,,,,,,,,,,,,,,,,,,,,,,,,,,,,,,,,,,,,,,,,,,,,,,,,,,,,,,,,,,,,,,,,,,,,,,,,,,,,,,,,,,,,,,,,,,,,,,,,
0,43,43,51,1,,59b0565d2a78fd00010b8259,62c53a39c914d34f9b3fff62,2022-07-06_09h31.47.265,Colour_Asymmetry_Pilot,2022.1.3,Win32,60.0240096,62c50e9c1127f2cd403a315f,,,,,,,,,,,,,,,,,,,,,,,,,,,,,,,,,,,,,,,,,,,,,,,,,,,,,,,,,,,,,,,,,,,,,,,,,,,,,,,,,,,,,,,,,,,,,,,,,,,,,,,,,,,,,,,,,,,,,,,,,,,,,,,,,,,,,,,,,,,,,,,,,,,,,,,,,,,,,,,,
0,44,44,48,1,,59b0565d2a78fd00010b8259,62c53a39c914d34f9b3fff62,2022-07-06_09h31.47.265,Colour_Asymmetry_Pilot,2022.1.3,Win32,60.0240096,62c50e9c1127f2cd403a315f,,,,,,,,,,,,,,,,,,,,,,,,,,,,,,,,,,,,,,,,,,,,,,,,,,,,,,,,,,,,,,,,,,,,,,,,,,,,,,,,,,,,,,,,,,,,,,,,,,,,,,,,,,,,,,,,,,,,,,,,,,,,,,,,,,,,,,,,,,,,,,,,,,,,,,,,,,,,,,,,
0,45,45,54,1,,59b0565d2a78fd00010b8259,62c53a39c914d34f9b3fff62,2022-07-06_09h31.47.265,Colour_Asymmetry_Pilot,2022.1.3,Win32,60.0240096,62c50e9c1127f2cd403a315f,,,,,,,,,,,,,,,,,,,,,,,,,,,,,,,,,,,,,,,,,,,,,,,,,,,,,,,,,,,,,,,,,,,,,,,,,,,,,,,,,,,,,,,,,,,,,,,,,,,,,,,,,,,,,,,,,,,,,,,,,,,,,,,,,,,,,,,,,,,,,,,,,,,,,,,,,,,,,,,,
0,46,46,14,1,,59b0565d2a78fd00010b8259,62c53a39c914d34f9b3fff62,2022-07-06_09h31.47.265,Colour_Asymmetry_Pilot,2022.1.3,Win32,60.0240096,62c50e9c1127f2cd403a315f,,,,,,,,,,,,,,,,,,,,,,,,,,,,,,,,,,,,,,,,,,,,,,,,,,,,,,,,,,,,,,,,,,,,,,,,,,,,,,,,,,,,,,,,,,,,,,,,,,,,,,,,,,,,,,,,,,,,,,,,,,,,,,,,,,,,,,,,,,,,,,,,,,,,,,,,,,,,,,,,
0,47,47,76,1,,59b0565d2a78fd00010b8259,62c53a39c914d34f9b3fff62,2022-07-06_09h31.47.265,Colour_Asymmetry_Pilot,2022.1.3,Win32,60.0240096,62c50e9c1127f2cd403a315f,,,,,,,,,,,,,,,,,,,,,,,,,,,,,,,,,,,,,,,,,,,,,,,,,,,,,,,,,,,,,,,,,,,,,,,,,,,,,,,,,,,,,,,,,,,,,,,,,,,,,,,,,,,,,,,,,,,,,,,,,,,,,,,,,,,,,,,,,,,,,,,,,,,,,,,,,,,,,,,,
0,48,48,28,1,,59b0565d2a78fd00010b8259,62c53a39c914d34f9b3fff62,2022-07-06_09h31.47.265,Colour_Asymmetry_Pilot,2022.1.3,Win32,60.0240096,62c50e9c1127f2cd403a315f,,,,,,,,,,,,,,,,,,,,,,,,,,,,,,,,,,,,,,,,,,,,,,,,,,,,,,,,,,,,,,,,,,,,,,,,,,,,,,,,,,,,,,,,,,,,,,,,,,,,,,,,,,,,,,,,,,,,,,,,,,,,,,,,,,,,,,,,,,,,,,,,,,,,,,,,,,,,,,,,
0,49,49,33,1,,59b0565d2a78fd00010b8259,62c53a39c914d34f9b3fff62,2022-07-06_09h31.47.265,Colour_Asymmetry_Pilot,2022.1.3,Win32,60.0240096,62c50e9c1127f2cd403a315f,,,,,,,,,,,,,,,,,,,,,,,,,,,,,,,,,,,,,,,,,,,,,,,,,,,,,,,,,,,,,,,,,,,,,,,,,,,,,,,,,,,,,,,,,,,,,,,,,,,,,,,,,,,,,,,,,,,,,,,,,,,,,,,,,,,,,,,,,,,,,,,,,,,,,,,,,,,,,,,,
0,50,50,15,1,,59b0565d2a78fd00010b8259,62c53a39c914d34f9b3fff62,2022-07-06_09h31.47.265,Colour_Asymmetry_Pilot,2022.1.3,Win32,60.0240096,62c50e9c1127f2cd403a315f,,,,,,,,,,,,,,,,,,,,,,,,,,,,,,,,,,,,,,,,,,,,,,,,,,,,,,,,,,,,,,,,,,,,,,,,,,,,,,,,,,,,,,,,,,,,,,,,,,,,,,,,,,,,,,,,,,,,,,,,,,,,,,,,,,,,,,,,,,,,,,,,,,,,,,,,,,,,,,,,
0,51,51,6,1,,59b0565d2a78fd00010b8259,62c53a39c914d34f9b3fff62,2022-07-06_09h31.47.265,Colour_Asymmetry_Pilot,2022.1.3,Win32,60.0240096,62c50e9c1127f2cd403a315f,,,,,,,,,,,,,,,,,,,,,,,,,,,,,,,,,,,,,,,,,,,,,,,,,,,,,,,,,,,,,,,,,,,,,,,,,,,,,,,,,,,,,,,,,,,,,,,,,,,,,,,,,,,,,,,,,,,,,,,,,,,,,,,,,,,,,,,,,,,,,,,,,,,,,,,,,,,,,,,,
0,52,52,39,1,,59b0565d2a78fd00010b8259,62c53a39c914d34f9b3fff62,2022-07-06_09h31.47.265,Colour_Asymmetry_Pilot,2022.1.3,Win32,60.0240096,62c50e9c1127f2cd403a315f,,,,,,,,,,,,,,,,,,,,,,,,,,,,,,,,,,,,,,,,,,,,,,,,,,,,,,,,,,,,,,,,,,,,,,,,,,,,,,,,,,,,,,,,,,,,,,,,,,,,,,,,,,,,,,,,,,,,,,,,,,,,,,,,,,,,,,,,,,,,,,,,,,,,,,,,,,,,,,,,
0,53,53,87,1,,59b0565d2a78fd00010b8259,62c53a39c914d34f9b3fff62,2022-07-06_09h31.47.265,Colour_Asymmetry_Pilot,2022.1.3,Win32,60.0240096,62c50e9c1127f2cd403a315f,,,,,,,,,,,,,,,,,,,,,,,,,,,,,,,,,,,,,,,,,,,,,,,,,,,,,,,,,,,,,,,,,,,,,,,,,,,,,,,,,,,,,,,,,,,,,,,,,,,,,,,,,,,,,,,,,,,,,,,,,,,,,,,,,,,,,,,,,,,,,,,,,,,,,,,,,,,,,,,,
0,54,54,61,1,,59b0565d2a78fd00010b8259,62c53a39c914d34f9b3fff62,2022-07-06_09h31.47.265,Colour_Asymmetry_Pilot,2022.1.3,Win32,60.0240096,62c50e9c1127f2cd403a315f,,,,,,,,,,,,,,,,,,,,,,,,,,,,,,,,,,,,,,,,,,,,,,,,,,,,,,,,,,,,,,,,,,,,,,,,,,,,,,,,,,,,,,,,,,,,,,,,,,,,,,,,,,,,,,,,,,,,,,,,,,,,,,,,,,,,,,,,,,,,,,,,,,,,,,,,,,,,,,,,
0,55,55,31,1,,59b0565d2a78fd00010b8259,62c53a39c914d34f9b3fff62,2022-07-06_09h31.47.265,Colour_Asymmetry_Pilot,2022.1.3,Win32,60.0240096,62c50e9c1127f2cd403a315f,,,,,,,,,,,,,,,,,,,,,,,,,,,,,,,,,,,,,,,,,,,,,,,,,,,,,,,,,,,,,,,,,,,,,,,,,,,,,,,,,,,,,,,,,,,,,,,,,,,,,,,,,,,,,,,,,,,,,,,,,,,,,,,,,,,,,,,,,,,,,,,,,,,,,,,,,,,,,,,,
0,56,56,8,1,,59b0565d2a78fd00010b8259,62c53a39c914d34f9b3fff62,2022-07-06_09h31.47.265,Colour_Asymmetry_Pilot,2022.1.3,Win32,60.0240096,62c50e9c1127f2cd403a315f,,,,,,,,,,,,,,,,,,,,,,,,,,,,,,,,,,,,,,,,,,,,,,,,,,,,,,,,,,,,,,,,,,,,,,,,,,,,,,,,,,,,,,,,,,,,,,,,,,,,,,,,,,,,,,,,,,,,,,,,,,,,,,,,,,,,,,,,,,,,,,,,,,,,,,,,,,,,,,,,
0,57,57,68,1,,59b0565d2a78fd00010b8259,62c53a39c914d34f9b3fff62,2022-07-06_09h31.47.265,Colour_Asymmetry_Pilot,2022.1.3,Win32,60.0240096,62c50e9c1127f2cd403a315f,,,,,,,,,,,,,,,,,,,,,,,,,,,,,,,,,,,,,,,,,,,,,,,,,,,,,,,,,,,,,,,,,,,,,,,,,,,,,,,,,,,,,,,,,,,,,,,,,,,,,,,,,,,,,,,,,,,,,,,,,,,,,,,,,,,,,,,,,,,,,,,,,,,,,,,,,,,,,,,,
0,58,58,29,1,,59b0565d2a78fd00010b8259,62c53a39c914d34f9b3fff62,2022-07-06_09h31.47.265,Colour_Asymmetry_Pilot,2022.1.3,Win32,60.0240096,62c50e9c1127f2cd403a315f,,,,,,,,,,,,,,,,,,,,,,,,,,,,,,,,,,,,,,,,,,,,,,,,,,,,,,,,,,,,,,,,,,,,,,,,,,,,,,,,,,,,,,,,,,,,,,,,,,,,,,,,,,,,,,,,,,,,,,,,,,,,,,,,,,,,,,,,,,,,,,,,,,,,,,,,,,,,,,,,
0,59,59,63,1,,59b0565d2a78fd00010b8259,62c53a39c914d34f9b3fff62,2022-07-06_09h31.47.265,Colour_Asymmetry_Pilot,2022.1.3,Win32,60.0240096,62c50e9c1127f2cd403a315f,,,,,,,,,,,,,,,,,,,,,,,,,,,,,,,,,,,,,,,,,,,,,,,,,,,,,,,,,,,,,,,,,,,,,,,,,,,,,,,,,,,,,,,,,,,,,,,,,,,,,,,,,,,,,,,,,,,,,,,,,,,,,,,,,,,,,,,,,,,,,,,,,,,,,,,,,,,,,,,,
0,60,60,30,1,,59b0565d2a78fd00010b8259,62c53a39c914d34f9b3fff62,2022-07-06_09h31.47.265,Colour_Asymmetry_Pilot,2022.1.3,Win32,60.0240096,62c50e9c1127f2cd403a315f,,,,,,,,,,,,,,,,,,,,,,,,,,,,,,,,,,,,,,,,,,,,,,,,,,,,,,,,,,,,,,,,,,,,,,,,,,,,,,,,,,,,,,,,,,,,,,,,,,,,,,,,,,,,,,,,,,,,,,,,,,,,,,,,,,,,,,,,,,,,,,,,,,,,,,,,,,,,,,,,
0,61,61,7,1,,59b0565d2a78fd00010b8259,62c53a39c914d34f9b3fff62,2022-07-06_09h31.47.265,Colour_Asymmetry_Pilot,2022.1.3,Win32,60.0240096,62c50e9c1127f2cd403a315f,,,,,,,,,,,,,,,,,,,,,,,,,,,,,,,,,,,,,,,,,,,,,,,,,,,,,,,,,,,,,,,,,,,,,,,,,,,,,,,,,,,,,,,,,,,,,,,,,,,,,,,,,,,,,,,,,,,,,,,,,,,,,,,,,,,,,,,,,,,,,,,,,,,,,,,,,,,,,,,,
0,62,62,23,1,,59b0565d2a78fd00010b8259,62c53a39c914d34f9b3fff62,2022-07-06_09h31.47.265,Colour_Asymmetry_Pilot,2022.1.3,Win32,60.0240096,62c50e9c1127f2cd403a315f,,,,,,,,,,,,,,,,,,,,,,,,,,,,,,,,,,,,,,,,,,,,,,,,,,,,,,,,,,,,,,,,,,,,,,,,,,,,,,,,,,,,,,,,,,,,,,,,,,,,,,,,,,,,,,,,,,,,,,,,,,,,,,,,,,,,,,,,,,,,,,,,,,,,,,,,,,,,,,,,
0,63,63,34,1,,59b0565d2a78fd00010b8259,62c53a39c914d34f9b3fff62,2022-07-06_09h31.47.265,Colour_Asymmetry_Pilot,2022.1.3,Win32,60.0240096,62c50e9c1127f2cd403a315f,,,,,,,,,,,,,,,,,,,,,,,,,,,,,,,,,,,,,,,,,,,,,,,,,,,,,,,,,,,,,,,,,,,,,,,,,,,,,,,,,,,,,,,,,,,,,,,,,,,,,,,,,,,,,,,,,,,,,,,,,,,,,,,,,,,,,,,,,,,,,,,,,,,,,,,,,,,,,,,,
0,64,64,47,1,,59b0565d2a78fd00010b8259,62c53a39c914d34f9b3fff62,2022-07-06_09h31.47.265,Colour_Asymmetry_Pilot,2022.1.3,Win32,60.0240096,62c50e9c1127f2cd403a315f,,,,,,,,,,,,,,,,,,,,,,,,,,,,,,,,,,,,,,,,,,,,,,,,,,,,,,,,,,,,,,,,,,,,,,,,,,,,,,,,,,,,,,,,,,,,,,,,,,,,,,,,,,,,,,,,,,,,,,,,,,,,,,,,,,,,,,,,,,,,,,,,,,,,,,,,,,,,,,,,
0,65,65,40,1,,59b0565d2a78fd00010b8259,62c53a39c914d34f9b3fff62,2022-07-06_09h31.47.265,Colour_Asymmetry_Pilot,2022.1.3,Win32,60.0240096,62c50e9c1127f2cd403a315f,,,,,,,,,,,,,,,,,,,,,,,,,,,,,,,,,,,,,,,,,,,,,,,,,,,,,,,,,,,,,,,,,,,,,,,,,,,,,,,,,,,,,,,,,,,,,,,,,,,,,,,,,,,,,,,,,,,,,,,,,,,,,,,,,,,,,,,,,,,,,,,,,,,,,,,,,,,,,,,,
0,66,66,90,1,,59b0565d2a78fd00010b8259,62c53a39c914d34f9b3fff62,2022-07-06_09h31.47.265,Colour_Asymmetry_Pilot,2022.1.3,Win32,60.0240096,62c50e9c1127f2cd403a315f,,,,,,,,,,,,,,,,,,,,,,,,,,,,,,,,,,,,,,,,,,,,,,,,,,,,,,,,,,,,,,,,,,,,,,,,,,,,,,,,,,,,,,,,,,,,,,,,,,,,,,,,,,,,,,,,,,,,,,,,,,,,,,,,,,,,,,,,,,,,,,,,,,,,,,,,,,,,,,,,
0,67,67,16,1,,59b0565d2a78fd00010b8259,62c53a39c914d34f9b3fff62,2022-07-06_09h31.47.265,Colour_Asymmetry_Pilot,2022.1.3,Win32,60.0240096,62c50e9c1127f2cd403a315f,,,,,,,,,,,,,,,,,,,,,,,,,,,,,,,,,,,,,,,,,,,,,,,,,,,,,,,,,,,,,,,,,,,,,,,,,,,,,,,,,,,,,,,,,,,,,,,,,,,,,,,,,,,,,,,,,,,,,,,,,,,,,,,,,,,,,,,,,,,,,,,,,,,,,,,,,,,,,,,,
0,68,68,57,1,,59b0565d2a78fd00010b8259,62c53a39c914d34f9b3fff62,2022-07-06_09h31.47.265,Colour_Asymmetry_Pilot,2022.1.3,Win32,60.0240096,62c50e9c1127f2cd403a315f,,,,,,,,,,,,,,,,,,,,,,,,,,,,,,,,,,,,,,,,,,,,,,,,,,,,,,,,,,,,,,,,,,,,,,,,,,,,,,,,,,,,,,,,,,,,,,,,,,,,,,,,,,,,,,,,,,,,,,,,,,,,,,,,,,,,,,,,,,,,,,,,,,,,,,,,,,,,,,,,
0,69,69,86,1,,59b0565d2a78fd00010b8259,62c53a39c914d34f9b3fff62,2022-07-06_09h31.47.265,Colour_Asymmetry_Pilot,2022.1.3,Win32,60.0240096,62c50e9c1127f2cd403a315f,,,,,,,,,,,,,,,,,,,,,,,,,,,,,,,,,,,,,,,,,,,,,,,,,,,,,,,,,,,,,,,,,,,,,,,,,,,,,,,,,,,,,,,,,,,,,,,,,,,,,,,,,,,,,,,,,,,,,,,,,,,,,,,,,,,,,,,,,,,,,,,,,,,,,,,,,,,,,,,,
0,70,70,9,1,,59b0565d2a78fd00010b8259,62c53a39c914d34f9b3fff62,2022-07-06_09h31.47.265,Colour_Asymmetry_Pilot,2022.1.3,Win32,60.0240096,62c50e9c1127f2cd403a315f,,,,,,,,,,,,,,,,,,,,,,,,,,,,,,,,,,,,,,,,,,,,,,,,,,,,,,,,,,,,,,,,,,,,,,,,,,,,,,,,,,,,,,,,,,,,,,,,,,,,,,,,,,,,,,,,,,,,,,,,,,,,,,,,,,,,,,,,,,,,,,,,,,,,,,,,,,,,,,,,
0,71,71,45,1,,59b0565d2a78fd00010b8259,62c53a39c914d34f9b3fff62,2022-07-06_09h31.47.265,Colour_Asymmetry_Pilot,2022.1.3,Win32,60.0240096,62c50e9c1127f2cd403a315f,,,,,,,,,,,,,,,,,,,,,,,,,,,,,,,,,,,,,,,,,,,,,,,,,,,,,,,,,,,,,,,,,,,,,,,,,,,,,,,,,,,,,,,,,,,,,,,,,,,,,,,,,,,,,,,,,,,,,,,,,,,,,,,,,,,,,,,,,,,,,,,,,,,,,,,,,,,,,,,,
0,72,72,38,1,,59b0565d2a78fd00010b8259,62c53a39c914d34f9b3fff62,2022-07-06_09h31.47.265,Colour_Asymmetry_Pilot,2022.1.3,Win32,60.0240096,62c50e9c1127f2cd403a315f,,,,,,,,,,,,,,,,,,,,,,,,,,,,,,,,,,,,,,,,,,,,,,,,,,,,,,,,,,,,,,,,,,,,,,,,,,,,,,,,,,,,,,,,,,,,,,,,,,,,,,,,,,,,,,,,,,,,,,,,,,,,,,,,,,,,,,,,,,,,,,,,,,,,,,,,,,,,,,,,
0,73,73,64,1,,59b0565d2a78fd00010b8259,62c53a39c914d34f9b3fff62,2022-07-06_09h31.47.265,Colour_Asymmetry_Pilot,2022.1.3,Win32,60.0240096,62c50e9c1127f2cd403a315f,,,,,,,,,,,,,,,,,,,,,,,,,,,,,,,,,,,,,,,,,,,,,,,,,,,,,,,,,,,,,,,,,,,,,,,,,,,,,,,,,,,,,,,,,,,,,,,,,,,,,,,,,,,,,,,,,,,,,,,,,,,,,,,,,,,,,,,,,,,,,,,,,,,,,,,,,,,,,,,,
0,74,74,75,1,,59b0565d2a78fd00010b8259,62c53a39c914d34f9b3fff62,2022-07-06_09h31.47.265,Colour_Asymmetry_Pilot,2022.1.3,Win32,60.0240096,62c50e9c1127f2cd403a315f,,,,,,,,,,,,,,,,,,,,,,,,,,,,,,,,,,,,,,,,,,,,,,,,,,,,,,,,,,,,,,,,,,,,,,,,,,,,,,,,,,,,,,,,,,,,,,,,,,,,,,,,,,,,,,,,,,,,,,,,,,,,,,,,,,,,,,,,,,,,,,,,,,,,,,,,,,,,,,,,
0,75,75,17,1,,59b0565d2a78fd00010b8259,62c53a39c914d34f9b3fff62,2022-07-06_09h31.47.265,Colour_Asymmetry_Pilot,2022.1.3,Win32,60.0240096,62c50e9c1127f2cd403a315f,,,,,,,,,,,,,,,,,,,,,,,,,,,,,,,,,,,,,,,,,,,,,,,,,,,,,,,,,,,,,,,,,,,,,,,,,,,,,,,,,,,,,,,,,,,,,,,,,,,,,,,,,,,,,,,,,,,,,,,,,,,,,,,,,,,,,,,,,,,,,,,,,,,,,,,,,,,,,,,,
0,76,76,55,1,,59b0565d2a78fd00010b8259,62c53a39c914d34f9b3fff62,2022-07-06_09h31.47.265,Colour_Asymmetry_Pilot,2022.1.3,Win32,60.0240096,62c50e9c1127f2cd403a315f,,,,,,,,,,,,,,,,,,,,,,,,,,,,,,,,,,,,,,,,,,,,,,,,,,,,,,,,,,,,,,,,,,,,,,,,,,,,,,,,,,,,,,,,,,,,,,,,,,,,,,,,,,,,,,,,,,,,,,,,,,,,,,,,,,,,,,,,,,,,,,,,,,,,,,,,,,,,,,,,
0,77,77,62,1,,59b0565d2a78fd00010b8259,62c53a39c914d34f9b3fff62,2022-07-06_09h31.47.265,Colour_Asymmetry_Pilot,2022.1.3,Win32,60.0240096,62c50e9c1127f2cd403a315f,,,,,,,,,,,,,,,,,,,,,,,,,,,,,,,,,,,,,,,,,,,,,,,,,,,,,,,,,,,,,,,,,,,,,,,,,,,,,,,,,,,,,,,,,,,,,,,,,,,,,,,,,,,,,,,,,,,,,,,,,,,,,,,,,,,,,,,,,,,,,,,,,,,,,,,,,,,,,,,,
0,78,78,4,1,,59b0565d2a78fd00010b8259,62c53a39c914d34f9b3fff62,2022-07-06_09h31.47.265,Colour_Asymmetry_Pilot,2022.1.3,Win32,60.0240096,62c50e9c1127f2cd403a315f,,,,,,,,,,,,,,,,,,,,,,,,,,,,,,,,,,,,,,,,,,,,,,,,,,,,,,,,,,,,,,,,,,,,,,,,,,,,,,,,,,,,,,,,,,,,,,,,,,,,,,,,,,,,,,,,,,,,,,,,,,,,,,,,,,,,,,,,,,,,,,,,,,,,,,,,,,,,,,,,
0,79,79,13,1,,59b0565d2a78fd00010b8259,62c53a39c914d34f9b3fff62,2022-07-06_09h31.47.265,Colour_Asymmetry_Pilot,2022.1.3,Win32,60.0240096,62c50e9c1127f2cd403a315f,,,,,,,,,,,,,,,,,,,,,,,,,,,,,,,,,,,,,,,,,,,,,,,,,,,,,,,,,,,,,,,,,,,,,,,,,,,,,,,,,,,,,,,,,,,,,,,,,,,,,,,,,,,,,,,,,,,,,,,,,,,,,,,,,,,,,,,,,,,,,,,,,,,,,,,,,,,,,,,,
0,80,80,60,1,,59b0565d2a78fd00010b8259,62c53a39c914d34f9b3fff62,2022-07-06_09h31.47.265,Colour_Asymmetry_Pilot,2022.1.3,Win32,60.0240096,62c50e9c1127f2cd403a315f,,,,,,,,,,,,,,,,,,,,,,,,,,,,,,,,,,,,,,,,,,,,,,,,,,,,,,,,,,,,,,,,,,,,,,,,,,,,,,,,,,,,,,,,,,,,,,,,,,,,,,,,,,,,,,,,,,,,,,,,,,,,,,,,,,,,,,,,,,,,,,,,,,,,,,,,,,,,,,,,
0,81,81,2,1,,59b0565d2a78fd00010b8259,62c53a39c914d34f9b3fff62,2022-07-06_09h31.47.265,Colour_Asymmetry_Pilot,2022.1.3,Win32,60.0240096,62c50e9c1127f2cd403a315f,,,,,,,,,,,,,,,,,,,,,,,,,,,,,,,,,,,,,,,,,,,,,,,,,,,,,,,,,,,,,,,,,,,,,,,,,,,,,,,,,,,,,,,,,,,,,,,,,,,,,,,,,,,,,,,,,,,,,,,,,,,,,,,,,,,,,,,,,,,,,,,,,,,,,,,,,,,,,,,,
0,82,82,71,1,,59b0565d2a78fd00010b8259,62c53a39c914d34f9b3fff62,2022-07-06_09h31.47.265,Colour_Asymmetry_Pilot,2022.1.3,Win32,60.0240096,62c50e9c1127f2cd403a315f,,,,,,,,,,,,,,,,,,,,,,,,,,,,,,,,,,,,,,,,,,,,,,,,,,,,,,,,,,,,,,,,,,,,,,,,,,,,,,,,,,,,,,,,,,,,,,,,,,,,,,,,,,,,,,,,,,,,,,,,,,,,,,,,,,,,,,,,,,,,,,,,,,,,,,,,,,,,,,,,
0,83,83,27,1,,59b0565d2a78fd00010b8259,62c53a39c914d34f9b3fff62,2022-07-06_09h31.47.265,Colour_Asymmetry_Pilot,2022.1.3,Win32,60.0240096,62c50e9c1127f2cd403a315f,,,,,,,,,,,,,,,,,,,,,,,,,,,,,,,,,,,,,,,,,,,,,,,,,,,,,,,,,,,,,,,,,,,,,,,,,,,,,,,,,,,,,,,,,,,,,,,,,,,,,,,,,,,,,,,,,,,,,,,,,,,,,,,,,,,,,,,,,,,,,,,,,,,,,,,,,,,,,,,,
0,84,84,50,1,,59b0565d2a78fd00010b8259,62c53a39c914d34f9b3fff62,2022-07-06_09h31.47.265,Colour_Asymmetry_Pilot,2022.1.3,Win32,60.0240096,62c50e9c1127f2cd403a315f,,,,,,,,,,,,,,,,,,,,,,,,,,,,,,,,,,,,,,,,,,,,,,,,,,,,,,,,,,,,,,,,,,,,,,,,,,,,,,,,,,,,,,,,,,,,,,,,,,,,,,,,,,,,,,,,,,,,,,,,,,,,,,,,,,,,,,,,,,,,,,,,,,,,,,,,,,,,,,,,
0,85,85,84,1,,59b0565d2a78fd00010b8259,62c53a39c914d34f9b3fff62,2022-07-06_09h31.47.265,Colour_Asymmetry_Pilot,2022.1.3,Win32,60.0240096,62c50e9c1127f2cd403a315f,,,,,,,,,,,,,,,,,,,,,,,,,,,,,,,,,,,,,,,,,,,,,,,,,,,,,,,,,,,,,,,,,,,,,,,,,,,,,,,,,,,,,,,,,,,,,,,,,,,,,,,,,,,,,,,,,,,,,,,,,,,,,,,,,,,,,,,,,,,,,,,,,,,,,,,,,,,,,,,,
0,86,86,79,1,,59b0565d2a78fd00010b8259,62c53a39c914d34f9b3fff62,2022-07-06_09h31.47.265,Colour_Asymmetry_Pilot,2022.1.3,Win32,60.0240096,62c50e9c1127f2cd403a315f,,,,,,,,,,,,,,,,,,,,,,,,,,,,,,,,,,,,,,,,,,,,,,,,,,,,,,,,,,,,,,,,,,,,,,,,,,,,,,,,,,,,,,,,,,,,,,,,,,,,,,,,,,,,,,,,,,,,,,,,,,,,,,,,,,,,,,,,,,,,,,,,,,,,,,,,,,,,,,,,
0,87,87,26,1,,59b0565d2a78fd00010b8259,62c53a39c914d34f9b3fff62,2022-07-06_09h31.47.265,Colour_Asymmetry_Pilot,2022.1.3,Win32,60.0240096,62c50e9c1127f2cd403a315f,,,,,,,,,,,,,,,,,,,,,,,,,,,,,,,,,,,,,,,,,,,,,,,,,,,,,,,,,,,,,,,,,,,,,,,,,,,,,,,,,,,,,,,,,,,,,,,,,,,,,,,,,,,,,,,,,,,,,,,,,,,,,,,,,,,,,,,,,,,,,,,,,,,,,,,,,,,,,,,,
0,88,88,1,1,,59b0565d2a78fd00010b8259,62c53a39c914d34f9b3fff62,2022-07-06_09h31.47.265,Colour_Asymmetry_Pilot,2022.1.3,Win32,60.0240096,62c50e9c1127f2cd403a315f,,,,,,,,,,,,,,,,,,,,,,,,,,,,,,,,,,,,,,,,,,,,,,,,,,,,,,,,,,,,,,,,,,,,,,,,,,,,,,,,,,,,,,,,,,,,,,,,,,,,,,,,,,,,,,,,,,,,,,,,,,,,,,,,,,,,,,,,,,,,,,,,,,,,,,,,,,,,,,,,
0,89,89,42,1,,59b0565d2a78fd00010b8259,62c53a39c914d34f9b3fff62,2022-07-06_09h31.47.265,Colour_Asymmetry_Pilot,2022.1.3,Win32,60.0240096,62c50e9c1127f2cd403a315f,,,,,,,,,,,,,,,,,,,,,,,,,,,,,,,,,,,,,,,,,,,,,,,,,,,,,,,,,,,,,,,,,,,,,,,,,,,,,,,,,,,,,,,,,,,,,,,,,,,,,,,,,,,,,,,,,,,,,,,,,,,,,,,,,,,,,,,,,,,,,,,,,,,,,,,,,,,,,,,,
0,90,90,80,1,,59b0565d2a78fd00010b8259,62c53a39c914d34f9b3fff62,2022-07-06_09h31.47.265,Colour_Asymmetry_Pilot,2022.1.3,Win32,60.0240096,62c50e9c1127f2cd403a315f,,,,,,,,,,,,,,,,,,,,,,,,,,,,,,,,,,,,,,,,,,,,,,,,,,,,,,,,,,,,,,,,,,,,,,,,,,,,,,,,,,,,,,,,,,,,,,,,,,,,,,,,,,,,,,,,,,,,,,,,,,,,,,,,,,,,,,,,,,,,,,,,,,,,,,,,,,,,,,,,
0,91,91,3,1,,59b0565d2a78fd00010b8259,62c53a39c914d34f9b3fff62,2022-07-06_09h31.47.265,Colour_Asymmetry_Pilot,2022.1.3,Win32,60.0240096,62c50e9c1127f2cd403a315f,,,,,,,,,,,,,,,,,,,,,,,,,,,,,,,,,,,,,,,,,,,,,,,,,,,,,,,,,,,,,,,,,,,,,,,,,,,,,,,,,,,,,,,,,,,,,,,,,,,,,,,,,,,,,,,,,,,,,,,,,,,,,,,,,,,,,,,,,,,,,,,,,,,,,,,,,,,,,,,,
0,92,92,5,1,,59b0565d2a78fd00010b8259,62c53a39c914d34f9b3fff62,2022-07-06_09h31.47.265,Colour_Asymmetry_Pilot,2022.1.3,Win32,60.0240096,62c50e9c1127f2cd403a315f,,,,,,,,,,,,,,,,,,,,,,,,,,,,,,,,,,,,,,,,,,,,,,,,,,,,,,,,,,,,,,,,,,,,,,,,,,,,,,,,,,,,,,,,,,,,,,,,,,,,,,,,,,,,,,,,,,,,,,,,,,,,,,,,,,,,,,,,,,,,,,,,,,,,,,,,,,,,,,,,
,,,,,,59b0565d2a78fd00010b8259,62c53a39c914d34f9b3fff62,2022-07-06_09h31.47.265,Colour_Asymmetry_Pilot,2022.1.3,Win32,60.0240096,62c50e9c1127f2cd403a315f,0,0,0,5,1,threefour,,,,,,,,,,,,,,,,,,,,,,,,,,,,,,,,,,,,,,,,,,,,,,,,,,,,,,,,,,,,,,,,,,,,,,,,,,,,,,,,,,,,,,,,,,,,,,,,,,,,,,,,,,,,,,,,,,,,,,,,,,,,,,,,,,,,,,,,,,,,,,,,,,,,,,,,,,
,,,,,,59b0565d2a78fd00010b8259,62c53a39c914d34f9b3fff62,2022-07-06_09h31.47.265,Colour_Asymmetry_Pilot,2022.1.3,Win32,60.0240096,62c50e9c1127f2cd403a315f,0,1,1,93,1,threefour,,,,,,,,,,,,,,,,,,,,,,,,,,,,,,,,,,,,,,,,,,,,,,,,,,,,,,,,,,,,,,,,,,,,,,,,,,,,,,,,,,,,,,,,,,,,,,,,,,,,,,,,,,,,,,,,,,,,,,,,,,,,,,,,,,,,,,,,,,,,,,,,,,,,,,,,,,
,,,,,,59b0565d2a78fd00010b8259,62c53a39c914d34f9b3fff62,2022-07-06_09h31.47.265,Colour_Asymmetry_Pilot,2022.1.3,Win32,60.0240096,62c50e9c1127f2cd403a315f,0,2,2,33,1,onethree,,,,,,,,,,,,,,,,,,,,,,,,,,,,,,,,,,,,,,,,,,,,,,,,,,,,,,,,,,,,,,,,,,,,,,,,,,,,,,,,,,,,,,,,,,,,,,,,,,,,,,,,,,,,,,,,,,,,,,,,,,,,,,,,,,,,,,,,,,,,,,,,,,,,,,,,,,
,,,,,,59b0565d2a78fd00010b8259,62c53a39c914d34f9b3fff62,2022-07-06_09h31.47.265,Colour_Asymmetry_Pilot,2022.1.3,Win32,60.0240096,62c50e9c1127f2cd403a315f,0,3,3,111,1,fourthree,,,,,,,,,,,,,,,,,,,,,,,,,,,,,,,,,,,,,,,,,,,,,,,,,,,,,,,,,,,,,,,,,,,,,,,,,,,,,,,,,,,,,,,,,,,,,,,,,,,,,,,,,,,,,,,,,,,,,,,,,,,,,,,,,,,,,,,,,,,,,,,,,,,,,,,,,,
,,,,,,59b0565d2a78fd00010b8259,62c53a39c914d34f9b3fff62,2022-07-06_09h31.47.265,Colour_Asymmetry_Pilot,2022.1.3,Win32,60.0240096,62c50e9c1127f2cd403a315f,0,4,4,50,1,twoone,,,,,,,,,,,,,,,,,,,,,,,,,,,,,,,,,,,,,,,,,,,,,,,,,,,,,,,,,,,,,,,,,,,,,,,,,,,,,,,,,,,,,,,,,,,,,,,,,,,,,,,,,,,,,,,,,,,,,,,,,,,,,,,,,,,,,,,,,,,,,,,,,,,,,,,,,,
,,,,,,59b0565d2a78fd00010b8259,62c53a39c914d34f9b3fff62,2022-07-06_09h31.47.265,Colour_Asymmetry_Pilot,2022.1.3,Win32,60.0240096,62c50e9c1127f2cd403a315f,0,5,5,88,1,onetwo,,,,,,,,,,,,,,,,,,,,,,,,,,,,,,,,,,,,,,,,,,,,,,,,,,,,,,,,,,,,,,,,,,,,,,,,,,,,,,,,,,,,,,,,,,,,,,,,,,,,,,,,,,,,,,,,,,,,,,,,,,,,,,,,,,,,,,,,,,,,,,,,,,,,,,,,,,
,,,,,,59b0565d2a78fd00010b8259,62c53a39c914d34f9b3fff62,2022-07-06_09h31.47.265,Colour_Asymmetry_Pilot,2022.1.3,Win32,60.0240096,62c50e9c1127f2cd403a315f,0,6,6,43,1,twofour,,,,,,,,,,,,,,,,,,,,,,,,,,,,,,,,,,,,,,,,,,,,,,,,,,,,,,,,,,,,,,,,,,,,,,,,,,,,,,,,,,,,,,,,,,,,,,,,,,,,,,,,,,,,,,,,,,,,,,,,,,,,,,,,,,,,,,,,,,,,,,,,,,,,,,,,,,
,,,,,,59b0565d2a78fd00010b8259,62c53a39c914d34f9b3fff62,2022-07-06_09h31.47.265,Colour_Asymmetry_Pilot,2022.1.3,Win32,60.0240096,62c50e9c1127f2cd403a315f,0,7,7,87,1,fourthree,,,,,,,,,,,,,,,,,,,,,,,,,,,,,,,,,,,,,,,,,,,,,,,,,,,,,,,,,,,,,,,,,,,,,,,,,,,,,,,,,,,,,,,,,,,,,,,,,,,,,,,,,,,,,,,,,,,,,,,,,,,,,,,,,,,,,,,,,,,,,,,,,,,,,,,,,,
,,,,,,59b0565d2a78fd00010b8259,62c53a39c914d34f9b3fff62,2022-07-06_09h31.47.265,Colour_Asymmetry_Pilot,2022.1.3,Win32,60.0240096,62c50e9c1127f2cd403a315f,0,8,8,56,1,onetwo,,,,,,,,,,,,,,,,,,,,,,,,,,,,,,,,,,,,,,,,,,,,,,,,,,,,,,,,,,,,,,,,,,,,,,,,,,,,,,,,,,,,,,,,,,,,,,,,,,,,,,,,,,,,,,,,,,,,,,,,,,,,,,,,,,,,,,,,,,,,,,,,,,,,,,,,,,
,,,,,,59b0565d2a78fd00010b8259,62c53a39c914d34f9b3fff62,2022-07-06_09h31.47.265,Colour_Asymmetry_Pilot,2022.1.3,Win32,60.0240096,62c50e9c1127f2cd403a315f,0,9,9,15,1,fourthree,,,,,,,,,,,,,,,,,,,,,,,,,,,,,,,,,,,,,,,,,,,,,,,,,,,,,,,,,,,,,,,,,,,,,,,,,,,,,,,,,,,,,,,,,,,,,,,,,,,,,,,,,,,,,,,,,,,,,,,,,,,,,,,,,,,,,,,,,,,,,,,,,,,,,,,,,,
,,,,,,59b0565d2a78fd00010b8259,62c53a39c914d34f9b3fff62,2022-07-06_09h31.47.265,Colour_Asymmetry_Pilot,2022.1.3,Win32,60.0240096,62c50e9c1127f2cd403a315f,0,10,10,84,1,threeone,,,,,,,,,,,,,,,,,,,,,,,,,,,,,,,,,,,,,,,,,,,,,,,,,,,,,,,,,,,,,,,,,,,,,,,,,,,,,,,,,,,,,,,,,,,,,,,,,,,,,,,,,,,,,,,,,,,,,,,,,,,,,,,,,,,,,,,,,,,,,,,,,,,,,,,,,,
,,,,,,59b0565d2a78fd00010b8259,62c53a39c914d34f9b3fff62,2022-07-06_09h31.47.265,Colour_Asymmetry_Pilot,2022.1.3,Win32,60.0240096,62c50e9c1127f2cd403a315f,0,11,11,95,1,fourthree,,,,,,,,,,,,,,,,,,,,,,,,,,,,,,,,,,,,,,,,,,,,,,,,,,,,,,,,,,,,,,,,,,,,,,,,,,,,,,,,,,,,,,,,,,,,,,,,,,,,,,,,,,,,,,,,,,,,,,,,,,,,,,,,,,,,,,,,,,,,,,,,,,,,,,,,,,
,,,,,,59b0565d2a78fd00010b8259,62c53a39c914d34f9b3fff62,2022-07-06_09h31.47.265,Colour_Asymmetry_Pilot,2022.1.3,Win32,60.0240096,62c50e9c1127f2cd403a315f,0,12,12,144,1,onetwo,,,,,,,,,,,,,,,,,,,,,,,,,,,,,,,,,,,,,,,,,,,,,,,,,,,,,,,,,,,,,,,,,,,,,,,,,,,,,,,,,,,,,,,,,,,,,,,,,,,,,,,,,,,,,,,,,,,,,,,,,,,,,,,,,,,,,,,,,,,,,,,,,,,,,,,,,,
,,,,,,59b0565d2a78fd00010b8259,62c53a39c914d34f9b3fff62,2022-07-06_09h31.47.265,Colour_Asymmetry_Pilot,2022.1.3,Win32,60.0240096,62c50e9c1127f2cd403a315f,0,13,13,101,1,threefour,,,,,,,,,,,,,,,,,,,,,,,,,,,,,,,,,,,,,,,,,,,,,,,,,,,,,,,,,,,,,,,,,,,,,,,,,,,,,,,,,,,,,,,,,,,,,,,,,,,,,,,,,,,,,,,,,,,,,,,,,,,,,,,,,,,,,,,,,,,,,,,,,,,,,,,,,,
,,,,,,59b0565d2a78fd00010b8259,62c53a39c914d34f9b3fff62,2022-07-06_09h31.47.265,Colour_Asymmetry_Pilot,2022.1.3,Win32,60.0240096,62c50e9c1127f2cd403a315f,0,14,14,26,1,twoone,,,,,,,,,,,,,,,,,,,,,,,,,,,,,,,,,,,,,,,,,,,,,,,,,,,,,,,,,,,,,,,,,,,,,,,,,,,,,,,,,,,,,,,,,,,,,,,,,,,,,,,,,,,,,,,,,,,,,,,,,,,,,,,,,,,,,,,,,,,,,,,,,,,,,,,,,,
,,,,,,59b0565d2a78fd00010b8259,62c53a39c914d34f9b3fff62,2022-07-06_09h31.47.265,Colour_Asymmetry_Pilot,2022.1.3,Win32,60.0240096,62c50e9c1127f2cd403a315f,0,15,15,149,1,threefour,,,,,,,,,,,,,,,,,,,,,,,,,,,,,,,,,,,,,,,,,,,,,,,,,,,,,,,,,,,,,,,,,,,,,,,,,,,,,,,,,,,,,,,,,,,,,,,,,,,,,,,,,,,,,,,,,,,,,,,,,,,,,,,,,,,,,,,,,,,,,,,,,,,,,,,,,,
,,,,,,59b0565d2a78fd00010b8259,62c53a39c914d34f9b3fff62,2022-07-06_09h31.47.265,Colour_Asymmetry_Pilot,2022.1.3,Win32,60.0240096,62c50e9c1127f2cd403a315f,0,16,16,49,1,onethree,,,,,,,,,,,,,,,,,,,,,,,,,,,,,,,,,,,,,,,,,,,,,,,,,,,,,,,,,,,,,,,,,,,,,,,,,,,,,,,,,,,,,,,,,,,,,,,,,,,,,,,,,,,,,,,,,,,,,,,,,,,,,,,,,,,,,,,,,,,,,,,,,,,,,,,,,,
,,,,,,59b0565d2a78fd00010b8259,62c53a39c914d34f9b3fff62,2022-07-06_09h31.47.265,Colour_Asymmetry_Pilot,2022.1.3,Win32,60.0240096,62c50e9c1127f2cd403a315f,0,17,17,105,1,onethree,,,,,,,,,,,,,,,,,,,,,,,,,,,,,,,,,,,,,,,,,,,,,,,,,,,,,,,,,,,,,,,,,,,,,,,,,,,,,,,,,,,,,,,,,,,,,,,,,,,,,,,,,,,,,,,,,,,,,,,,,,,,,,,,,,,,,,,,,,,,,,,,,,,,,,,,,,
,,,,,,59b0565d2a78fd00010b8259,62c53a39c914d34f9b3fff62,2022-07-06_09h31.47.265,Colour_Asymmetry_Pilot,2022.1.3,Win32,60.0240096,62c50e9c1127f2cd403a315f,0,18,18,39,1,fourthree,,,,,,,,,,,,,,,,,,,,,,,,,,,,,,,,,,,,,,,,,,,,,,,,,,,,,,,,,,,,,,,,,,,,,,,,,,,,,,,,,,,,,,,,,,,,,,,,,,,,,,,,,,,,,,,,,,,,,,,,,,,,,,,,,,,,,,,,,,,,,,,,,,,,,,,,,,
,,,,,,59b0565d2a78fd00010b8259,62c53a39c914d34f9b3fff62,2022-07-06_09h31.47.265,Colour_Asymmetry_Pilot,2022.1.3,Win32,60.0240096,62c50e9c1127f2cd403a315f,0,19,19,9,1,onethree,,,,,,,,,,,,,,,,,,,,,,,,,,,,,,,,,,,,,,,,,,,,,,,,,,,,,,,,,,,,,,,,,,,,,,,,,,,,,,,,,,,,,,,,,,,,,,,,,,,,,,,,,,,,,,,,,,,,,,,,,,,,,,,,,,,,,,,,,,,,,,,,,,,,,,,,,,
,,,,,,59b0565d2a78fd00010b8259,62c53a39c914d34f9b3fff62,2022-07-06_09h31.47.265,Colour_Asymmetry_Pilot,2022.1.3,Win32,60.0240096,62c50e9c1127f2cd403a315f,0,20,20,18,1,twoone,,,,,,,,,,,,,,,,,,,,,,,,,,,,,,,,,,,,,,,,,,,,,,,,,,,,,,,,,,,,,,,,,,,,,,,,,,,,,,,,,,,,,,,,,,,,,,,,,,,,,,,,,,,,,,,,,,,,,,,,,,,,,,,,,,,,,,,,,,,,,,,,,,,,,,,,,,
,,,,,,59b0565d2a78fd00010b8259,62c53a39c914d34f9b3fff62,2022-07-06_09h31.47.265,Colour_Asymmetry_Pilot,2022.1.3,Win32,60.0240096,62c50e9c1127f2cd403a315f,0,21,21,100,1,threeone,,,,,,,,,,,,,,,,,,,,,,,,,,,,,,,,,,,,,,,,,,,,,,,,,,,,,,,,,,,,,,,,,,,,,,,,,,,,,,,,,,,,,,,,,,,,,,,,,,,,,,,,,,,,,,,,,,,,,,,,,,,,,,,,,,,,,,,,,,,,,,,,,,,,,,,,,,
,,,,,,59b0565d2a78fd00010b8259,62c53a39c914d34f9b3fff62,2022-07-06_09h31.47.265,Colour_Asymmetry_Pilot,2022.1.3,Win32,60.0240096,62c50e9c1127f2cd403a315f,0,22,22,69,1,threefour,,,,,,,,,,,,,,,,,,,,,,,,,,,,,,,,,,,,,,,,,,,,,,,,,,,,,,,,,,,,,,,,,,,,,,,,,,,,,,,,,,,,,,,,,,,,,,,,,,,,,,,,,,,,,,,,,,,,,,,,,,,,,,,,,,,,,,,,,,,,,,,,,,,,,,,,,,
,,,,,,59b0565d2a78fd00010b8259,62c53a39c914d34f9b3fff62,2022-07-06_09h31.47.265,Colour_Asymmetry_Pilot,2022.1.3,Win32,60.0240096,62c50e9c1127f2cd403a315f,0,23,23,76,1,threeone,,,,,,,,,,,,,,,,,,,,,,,,,,,,,,,,,,,,,,,,,,,,,,,,,,,,,,,,,,,,,,,,,,,,,,,,,,,,,,,,,,,,,,,,,,,,,,,,,,,,,,,,,,,,,,,,,,,,,,,,,,,,,,,,,,,,,,,,,,,,,,,,,,,,,,,,,,
,,,,,,59b0565d2a78fd00010b8259,62c53a39c914d34f9b3fff62,2022-07-06_09h31.47.265,Colour_Asymmetry_Pilot,2022.1.3,Win32,60.0240096,62c50e9c1127f2cd403a315f,0,24,24,110,1,fourtwo,,,,,,,,,,,,,,,,,,,,,,,,,,,,,,,,,,,,,,,,,,,,,,,,,,,,,,,,,,,,,,,,,,,,,,,,,,,,,,,,,,,,,,,,,,,,,,,,,,,,,,,,,,,,,,,,,,,,,,,,,,,,,,,,,,,,,,,,,,,,,,,,,,,,,,,,,,
,,,,,,59b0565d2a78fd00010b8259,62c53a39c914d34f9b3fff62,2022-07-06_09h31.47.265,Colour_Asymmetry_Pilot,2022.1.3,Win32,60.0240096,62c50e9c1127f2cd403a315f,0,25,25,65,1,onethree,,,,,,,,,,,,,,,,,,,,,,,,,,,,,,,,,,,,,,,,,,,,,,,,,,,,,,,,,,,,,,,,,,,,,,,,,,,,,,,,,,,,,,,,,,,,,,,,,,,,,,,,,,,,,,,,,,,,,,,,,,,,,,,,,,,,,,,,,,,,,,,,,,,,,,,,,,
,,,,,,59b0565d2a78fd00010b8259,62c53a39c914d34f9b3fff62,2022-07-06_09h31.47.265,Colour_Asymmetry_Pilot,2022.1.3,Win32,60.0240096,62c50e9c1127f2cd403a315f,0,26,26,120,1,onetwo,,,,,,,,,,,,,,,,,,,,,,,,,,,,,,,,,,,,,,,,,,,,,,,,,,,,,,,,,,,,,,,,,,,,,,,,,,,,,,,,,,,,,,,,,,,,,,,,,,,,,,,,,,,,,,,,,,,,,,,,,,,,,,,,,,,,,,,,,,,,,,,,,,,,,,,,,,
,,,,,,59b0565d2a78fd00010b8259,62c53a39c914d34f9b3fff62,2022-07-06_09h31.47.265,Colour_Asymmetry_Pilot,2022.1.3,Win32,60.0240096,62c50e9c1127f2cd403a315f,0,27,27,92,1,threeone,,,,,,,,,,,,,,,,,,,,,,,,,,,,,,,,,,,,,,,,,,,,,,,,,,,,,,,,,,,,,,,,,,,,,,,,,,,,,,,,,,,,,,,,,,,,,,,,,,,,,,,,,,,,,,,,,,,,,,,,,,,,,,,,,,,,,,,,,,,,,,,,,,,,,,,,,,
,,,,,,59b0565d2a78fd00010b8259,62c53a39c914d34f9b3fff62,2022-07-06_09h31.47.265,Colour_Asymmetry_Pilot,2022.1.3,Win32,60.0240096,62c50e9c1127f2cd403a315f,0,28,28,2,1,twoone,,,,,,,,,,,,,,,,,,,,,,,,,,,,,,,,,,,,,,,,,,,,,,,,,,,,,,,,,,,,,,,,,,,,,,,,,,,,,,,,,,,,,,,,,,,,,,,,,,,,,,,,,,,,,,,,,,,,,,,,,,,,,,,,,,,,,,,,,,,,,,,,,,,,,,,,,,
,,,,,,59b0565d2a78fd00010b8259,62c53a39c914d34f9b3fff62,2022-07-06_09h31.47.265,Colour_Asymmetry_Pilot,2022.1.3,Win32,60.0240096,62c50e9c1127f2cd403a315f,0,29,29,35,1,twofour,,,,,,,,,,,,,,,,,,,,,,,,,,,,,,,,,,,,,,,,,,,,,,,,,,,,,,,,,,,,,,,,,,,,,,,,,,,,,,,,,,,,,,,,,,,,,,,,,,,,,,,,,,,,,,,,,,,,,,,,,,,,,,,,,,,,,,,,,,,,,,,,,,,,,,,,,,
,,,,,,59b0565d2a78fd00010b8259,62c53a39c914d34f9b3fff62,2022-07-06_09h31.47.265,Colour_Asymmetry_Pilot,2022.1.3,Win32,60.0240096,62c50e9c1127f2cd403a315f,0,30,30,140,1,threeone,,,,,,,,,,,,,,,,,,,,,,,,,,,,,,,,,,,,,,,,,,,,,,,,,,,,,,,,,,,,,,,,,,,,,,,,,,,,,,,,,,,,,,,,,,,,,,,,,,,,,,,,,,,,,,,,,,,,,,,,,,,,,,,,,,,,,,,,,,,,,,,,,,,,,,,,,,
,,,,,,59b0565d2a78fd00010b8259,62c53a39c914d34f9b3fff62,2022-07-06_09h31.47.265,Colour_Asymmetry_Pilot,2022.1.3,Win32,60.0240096,62c50e9c1127f2cd403a315f,0,31,31,54,1,fourtwo,,,,,,,,,,,,,,,,,,,,,,,,,,,,,,,,,,,,,,,,,,,,,,,,,,,,,,,,,,,,,,,,,,,,,,,,,,,,,,,,,,,,,,,,,,,,,,,,,,,,,,,,,,,,,,,,,,,,,,,,,,,,,,,,,,,,,,,,,,,,,,,,,,,,,,,,,,
,,,,,,59b0565d2a78fd00010b8259,62c53a39c914d34f9b3fff62,2022-07-06_09h31.47.265,Colour_Asymmetry_Pilot,2022.1.3,Win32,60.0240096,62c50e9c1127f2cd403a315f,0,32,32,155,1,twofour,,,,,,,,,,,,,,,,,,,,,,,,,,,,,,,,,,,,,,,,,,,,,,,,,,,,,,,,,,,,,,,,,,,,,,,,,,,,,,,,,,,,,,,,,,,,,,,,,,,,,,,,,,,,,,,,,,,,,,,,,,,,,,,,,,,,,,,,,,,,,,,,,,,,,,,,,,
,,,,,,59b0565d2a78fd00010b8259,62c53a39c914d34f9b3fff62,2022-07-06_09h31.47.265,Colour_Asymmetry_Pilot,2022.1.3,Win32,60.0240096,62c50e9c1127f2cd403a315f,0,33,33,137,1,onethree,,,,,,,,,,,,,,,,,,,,,,,,,,,,,,,,,,,,,,,,,,,,,,,,,,,,,,,,,,,,,,,,,,,,,,,,,,,,,,,,,,,,,,,,,,,,,,,,,,,,,,,,,,,,,,,,,,,,,,,,,,,,,,,,,,,,,,,,,,,,,,,,,,,,,,,,,,
,,,,,,59b0565d2a78fd00010b8259,62c53a39c914d34f9b3fff62,2022-07-06_09h31.47.265,Colour_Asymmetry_Pilot,2022.1.3,Win32,60.0240096,62c50e9c1127f2cd403a315f,0,34,34,148,1,threeone,,,,,,,,,,,,,,,,,,,,,,,,,,,,,,,,,,,,,,,,,,,,,,,,,,,,,,,,,,,,,,,,,,,,,,,,,,,,,,,,,,,,,,,,,,,,,,,,,,,,,,,,,,,,,,,,,,,,,,,,,,,,,,,,,,,,,,,,,,,,,,,,,,,,,,,,,,
,,,,,,59b0565d2a78fd00010b8259,62c53a39c914d34f9b3fff62,2022-07-06_09h31.47.265,Colour_Asymmetry_Pilot,2022.1.3,Win32,60.0240096,62c50e9c1127f2cd403a315f,0,35,35,158,1,fourtwo,,,,,,,,,,,,,,,,,,,,,,,,,,,,,,,,,,,,,,,,,,,,,,,,,,,,,,,,,,,,,,,,,,,,,,,,,,,,,,,,,,,,,,,,,,,,,,,,,,,,,,,,,,,,,,,,,,,,,,,,,,,,,,,,,,,,,,,,,,,,,,,,,,,,,,,,,,
,,,,,,59b0565d2a78fd00010b8259,62c53a39c914d34f9b3fff62,2022-07-06_09h31.47.265,Colour_Asymmetry_Pilot,2022.1.3,Win32,60.0240096,62c50e9c1127f2cd403a315f,0,36,36,64,1,onetwo,,,,,,,,,,,,,,,,,,,,,,,,,,,,,,,,,,,,,,,,,,,,,,,,,,,,,,,,,,,,,,,,,,,,,,,,,,,,,,,,,,,,,,,,,,,,,,,,,,,,,,,,,,,,,,,,,,,,,,,,,,,,,,,,,,,,,,,,,,,,,,,,,,,,,,,,,,
,,,,,,59b0565d2a78fd00010b8259,62c53a39c914d34f9b3fff62,2022-07-06_09h31.47.265,Colour_Asymmetry_Pilot,2022.1.3,Win32,60.0240096,62c50e9c1127f2cd403a315f,0,37,37,40,1,onetwo,,,,,,,,,,,,,,,,,,,,,,,,,,,,,,,,,,,,,,,,,,,,,,,,,,,,,,,,,,,,,,,,,,,,,,,,,,,,,,,,,,,,,,,,,,,,,,,,,,,,,,,,,,,,,,,,,,,,,,,,,,,,,,,,,,,,,,,,,,,,,,,,,,,,,,,,,,
,,,,,,59b0565d2a78fd00010b8259,62c53a39c914d34f9b3fff62,2022-07-06_09h31.47.265,Colour_Asymmetry_Pilot,2022.1.3,Win32,60.0240096,62c50e9c1127f2cd403a315f,0,38,38,30,1,fourtwo,,,,,,,,,,,,,,,,,,,,,,,,,,,,,,,,,,,,,,,,,,,,,,,,,,,,,,,,,,,,,,,,,,,,,,,,,,,,,,,,,,,,,,,,,,,,,,,,,,,,,,,,,,,,,,,,,,,,,,,,,,,,,,,,,,,,,,,,,,,,,,,,,,,,,,,,,,
,,,,,,59b0565d2a78fd00010b8259,62c53a39c914d34f9b3fff62,2022-07-06_09h31.47.265,Colour_Asymmetry_Pilot,2022.1.3,Win32,60.0240096,62c50e9c1127f2cd403a315f,0,39,39,6,1,fourtwo,,,,,,,,,,,,,,,,,,,,,,,,,,,,,,,,,,,,,,,,,,,,,,,,,,,,,,,,,,,,,,,,,,,,,,,,,,,,,,,,,,,,,,,,,,,,,,,,,,,,,,,,,,,,,,,,,,,,,,,,,,,,,,,,,,,,,,,,,,,,,,,,,,,,,,,,,,
,,,,,,59b0565d2a78fd00010b8259,62c53a39c914d34f9b3fff62,2022-07-06_09h31.47.265,Colour_Asymmetry_Pilot,2022.1.3,Win32,60.0240096,62c50e9c1127f2cd403a315f,0,40,40,11,1,twofour,,,,,,,,,,,,,,,,,,,,,,,,,,,,,,,,,,,,,,,,,,,,,,,,,,,,,,,,,,,,,,,,,,,,,,,,,,,,,,,,,,,,,,,,,,,,,,,,,,,,,,,,,,,,,,,,,,,,,,,,,,,,,,,,,,,,,,,,,,,,,,,,,,,,,,,,,,
,,,,,,59b0565d2a78fd00010b8259,62c53a39c914d34f9b3fff62,2022-07-06_09h31.47.265,Colour_Asymmetry_Pilot,2022.1.3,Win32,60.0240096,62c50e9c1127f2cd403a315f,0,41,41,154,1,twoone,,,,,,,,,,,,,,,,,,,,,,,,,,,,,,,,,,,,,,,,,,,,,,,,,,,,,,,,,,,,,,,,,,,,,,,,,,,,,,,,,,,,,,,,,,,,,,,,,,,,,,,,,,,,,,,,,,,,,,,,,,,,,,,,,,,,,,,,,,,,,,,,,,,,,,,,,,
,,,,,,59b0565d2a78fd00010b8259,62c53a39c914d34f9b3fff62,2022-07-06_09h31.47.265,Colour_Asymmetry_Pilot,2022.1.3,Win32,60.0240096,62c50e9c1127f2cd403a315f,0,42,42,19,1,twofour,,,,,,,,,,,,,,,,,,,,,,,,,,,,,,,,,,,,,,,,,,,,,,,,,,,,,,,,,,,,,,,,,,,,,,,,,,,,,,,,,,,,,,,,,,,,,,,,,,,,,,,,,,,,,,,,,,,,,,,,,,,,,,,,,,,,,,,,,,,,,,,,,,,,,,,,,,
,,,,,,59b0565d2a78fd00010b8259,62c53a39c914d34f9b3fff62,2022-07-06_09h31.47.265,Colour_Asymmetry_Pilot,2022.1.3,Win32,60.0240096,62c50e9c1127f2cd403a315f,0,43,43,152,1,onetwo,,,,,,,,,,,,,,,,,,,,,,,,,,,,,,,,,,,,,,,,,,,,,,,,,,,,,,,,,,,,,,,,,,,,,,,,,,,,,,,,,,,,,,,,,,,,,,,,,,,,,,,,,,,,,,,,,,,,,,,,,,,,,,,,,,,,,,,,,,,,,,,,,,,,,,,,,,
,,,,,,59b0565d2a78fd00010b8259,62c53a39c914d34f9b3fff62,2022-07-06_09h31.47.265,Colour_Asymmetry_Pilot,2022.1.3,Win32,60.0240096,62c50e9c1127f2cd403a315f,0,44,44,160,1,onetwo,,,,,,,,,,,,,,,,,,,,,,,,,,,,,,,,,,,,,,,,,,,,,,,,,,,,,,,,,,,,,,,,,,,,,,,,,,,,,,,,,,,,,,,,,,,,,,,,,,,,,,,,,,,,,,,,,,,,,,,,,,,,,,,,,,,,,,,,,,,,,,,,,,,,,,,,,,
,,,,,,59b0565d2a78fd00010b8259,62c53a39c914d34f9b3fff62,2022-07-06_09h31.47.265,Colour_Asymmetry_Pilot,2022.1.3,Win32,60.0240096,62c50e9c1127f2cd403a315f,0,45,45,85,1,threefour,,,,,,,,,,,,,,,,,,,,,,,,,,,,,,,,,,,,,,,,,,,,,,,,,,,,,,,,,,,,,,,,,,,,,,,,,,,,,,,,,,,,,,,,,,,,,,,,,,,,,,,,,,,,,,,,,,,,,,,,,,,,,,,,,,,,,,,,,,,,,,,,,,,,,,,,,,
,,,,,,59b0565d2a78fd00010b8259,62c53a39c914d34f9b3fff62,2022-07-06_09h31.47.265,Colour_Asymmetry_Pilot,2022.1.3,Win32,60.0240096,62c50e9c1127f2cd403a315f,0,46,46,22,1,fourtwo,,,,,,,,,,,,,,,,,,,,,,,,,,,,,,,,,,,,,,,,,,,,,,,,,,,,,,,,,,,,,,,,,,,,,,,,,,,,,,,,,,,,,,,,,,,,,,,,,,,,,,,,,,,,,,,,,,,,,,,,,,,,,,,,,,,,,,,,,,,,,,,,,,,,,,,,,,
,,,,,,59b0565d2a78fd00010b8259,62c53a39c914d34f9b3fff62,2022-07-06_09h31.47.265,Colour_Asymmetry_Pilot,2022.1.3,Win32,60.0240096,62c50e9c1127f2cd403a315f,0,47,47,17,1,onethree,,,,,,,,,,,,,,,,,,,,,,,,,,,,,,,,,,,,,,,,,,,,,,,,,,,,,,,,,,,,,,,,,,,,,,,,,,,,,,,,,,,,,,,,,,,,,,,,,,,,,,,,,,,,,,,,,,,,,,,,,,,,,,,,,,,,,,,,,,,,,,,,,,,,,,,,,,
,,,,,,59b0565d2a78fd00010b8259,62c53a39c914d34f9b3fff62,2022-07-06_09h31.47.265,Colour_Asymmetry_Pilot,2022.1.3,Win32,60.0240096,62c50e9c1127f2cd403a315f,0,48,48,10,1,twoone,,,,,,,,,,,,,,,,,,,,,,,,,,,,,,,,,,,,,,,,,,,,,,,,,,,,,,,,,,,,,,,,,,,,,,,,,,,,,,,,,,,,,,,,,,,,,,,,,,,,,,,,,,,,,,,,,,,,,,,,,,,,,,,,,,,,,,,,,,,,,,,,,,,,,,,,,,
,,,,,,59b0565d2a78fd00010b8259,62c53a39c914d34f9b3fff62,2022-07-06_09h31.47.265,Colour_Asymmetry_Pilot,2022.1.3,Win32,60.0240096,62c50e9c1127f2cd403a315f,0,49,49,143,1,fourthree,,,,,,,,,,,,,,,,,,,,,,,,,,,,,,,,,,,,,,,,,,,,,,,,,,,,,,,,,,,,,,,,,,,,,,,,,,,,,,,,,,,,,,,,,,,,,,,,,,,,,,,,,,,,,,,,,,,,,,,,,,,,,,,,,,,,,,,,,,,,,,,,,,,,,,,,,,
,,,,,,59b0565d2a78fd00010b8259,62c53a39c914d34f9b3fff62,2022-07-06_09h31.47.265,Colour_Asymmetry_Pilot,2022.1.3,Win32,60.0240096,62c50e9c1127f2cd403a315f,0,50,50,71,1,fourthree,,,,,,,,,,,,,,,,,,,,,,,,,,,,,,,,,,,,,,,,,,,,,,,,,,,,,,,,,,,,,,,,,,,,,,,,,,,,,,,,,,,,,,,,,,,,,,,,,,,,,,,,,,,,,,,,,,,,,,,,,,,,,,,,,,,,,,,,,,,,,,,,,,,,,,,,,,
,,,,,,59b0565d2a78fd00010b8259,62c53a39c914d34f9b3fff62,2022-07-06_09h31.47.265,Colour_Asymmetry_Pilot,2022.1.3,Win32,60.0240096,62c50e9c1127f2cd403a315f,0,51,51,108,1,threeone,,,,,,,,,,,,,,,,,,,,,,,,,,,,,,,,,,,,,,,,,,,,,,,,,,,,,,,,,,,,,,,,,,,,,,,,,,,,,,,,,,,,,,,,,,,,,,,,,,,,,,,,,,,,,,,,,,,,,,,,,,,,,,,,,,,,,,,,,,,,,,,,,,,,,,,,,,
,,,,,,59b0565d2a78fd00010b8259,62c53a39c914d34f9b3fff62,2022-07-06_09h31.47.265,Colour_Asymmetry_Pilot,2022.1.3,Win32,60.0240096,62c50e9c1127f2cd403a315f,0,52,52,8,1,onetwo,,,,,,,,,,,,,,,,,,,,,,,,,,,,,,,,,,,,,,,,,,,,,,,,,,,,,,,,,,,,,,,,,,,,,,,,,,,,,,,,,,,,,,,,,,,,,,,,,,,,,,,,,,,,,,,,,,,,,,,,,,,,,,,,,,,,,,,,,,,,,,,,,,,,,,,,,,
,,,,,,59b0565d2a78fd00010b8259,62c53a39c914d34f9b3fff62,2022-07-06_09h31.47.265,Colour_Asymmetry_Pilot,2022.1.3,Win32,60.0240096,62c50e9c1127f2cd403a315f,0,53,53,13,1,threefour,,,,,,,,,,,,,,,,,,,,,,,,,,,,,,,,,,,,,,,,,,,,,,,,,,,,,,,,,,,,,,,,,,,,,,,,,,,,,,,,,,,,,,,,,,,,,,,,,,,,,,,,,,,,,,,,,,,,,,,,,,,,,,,,,,,,,,,,,,,,,,,,,,,,,,,,,,
,,,,,,59b0565d2a78fd00010b8259,62c53a39c914d34f9b3fff62,2022-07-06_09h31.47.265,Colour_Asymmetry_Pilot,2022.1.3,Win32,60.0240096,62c50e9c1127f2cd403a315f,0,54,54,103,1,fourthree,,,,,,,,,,,,,,,,,,,,,,,,,,,,,,,,,,,,,,,,,,,,,,,,,,,,,,,,,,,,,,,,,,,,,,,,,,,,,,,,,,,,,,,,,,,,,,,,,,,,,,,,,,,,,,,,,,,,,,,,,,,,,,,,,,,,,,,,,,,,,,,,,,,,,,,,,,
,,,,,,59b0565d2a78fd00010b8259,62c53a39c914d34f9b3fff62,2022-07-06_09h31.47.265,Colour_Asymmetry_Pilot,2022.1.3,Win32,60.0240096,62c50e9c1127f2cd403a315f,0,55,55,99,1,twofour,,,,,,,,,,,,,,,,,,,,,,,,,,,,,,,,,,,,,,,,,,,,,,,,,,,,,,,,,,,,,,,,,,,,,,,,,,,,,,,,,,,,,,,,,,,,,,,,,,,,,,,,,,,,,,,,,,,,,,,,,,,,,,,,,,,,,,,,,,,,,,,,,,,,,,,,,,
,,,,,,59b0565d2a78fd00010b8259,62c53a39c914d34f9b3fff62,2022-07-06_09h31.47.265,Colour_Asymmetry_Pilot,2022.1.3,Win32,60.0240096,62c50e9c1127f2cd403a315f,0,56,56,47,1,fourthree,,,,,,,,,,,,,,,,,,,,,,,,,,,,,,,,,,,,,,,,,,,,,,,,,,,,,,,,,,,,,,,,,,,,,,,,,,,,,,,,,,,,,,,,,,,,,,,,,,,,,,,,,,,,,,,,,,,,,,,,,,,,,,,,,,,,,,,,,,,,,,,,,,,,,,,,,,
,,,,,,59b0565d2a78fd00010b8259,62c53a39c914d34f9b3fff62,2022-07-06_09h31.47.265,Colour_Asymmetry_Pilot,2022.1.3,Win32,60.0240096,62c50e9c1127f2cd403a315f,0,57,57,117,1,threefour,,,,,,,,,,,,,,,,,,,,,,,,,,,,,,,,,,,,,,,,,,,,,,,,,,,,,,,,,,,,,,,,,,,,,,,,,,,,,,,,,,,,,,,,,,,,,,,,,,,,,,,,,,,,,,,,,,,,,,,,,,,,,,,,,,,,,,,,,,,,,,,,,,,,,,,,,,
,,,,,,59b0565d2a78fd00010b8259,62c53a39c914d34f9b3fff62,2022-07-06_09h31.47.265,Colour_Asymmetry_Pilot,2022.1.3,Win32,60.0240096,62c50e9c1127f2cd403a315f,0,58,58,112,1,onetwo,,,,,,,,,,,,,,,,,,,,,,,,,,,,,,,,,,,,,,,,,,,,,,,,,,,,,,,,,,,,,,,,,,,,,,,,,,,,,,,,,,,,,,,,,,,,,,,,,,,,,,,,,,,,,,,,,,,,,,,,,,,,,,,,,,,,,,,,,,,,,,,,,,,,,,,,,,
,,,,,,59b0565d2a78fd00010b8259,62c53a39c914d34f9b3fff62,2022-07-06_09h31.47.265,Colour_Asymmetry_Pilot,2022.1.3,Win32,60.0240096,62c50e9c1127f2cd403a315f,0,59,59,142,1,fourtwo,,,,,,,,,,,,,,,,,,,,,,,,,,,,,,,,,,,,,,,,,,,,,,,,,,,,,,,,,,,,,,,,,,,,,,,,,,,,,,,,,,,,,,,,,,,,,,,,,,,,,,,,,,,,,,,,,,,,,,,,,,,,,,,,,,,,,,,,,,,,,,,,,,,,,,,,,,
,,,,,,59b0565d2a78fd00010b8259,62c53a39c914d34f9b3fff62,2022-07-06_09h31.47.265,Colour_Asymmetry_Pilot,2022.1.3,Win32,60.0240096,62c50e9c1127f2cd403a315f,0,60,60,159,1,fourthree,,,,,,,,,,,,,,,,,,,,,,,,,,,,,,,,,,,,,,,,,,,,,,,,,,,,,,,,,,,,,,,,,,,,,,,,,,,,,,,,,,,,,,,,,,,,,,,,,,,,,,,,,,,,,,,,,,,,,,,,,,,,,,,,,,,,,,,,,,,,,,,,,,,,,,,,,,
,,,,,,59b0565d2a78fd00010b8259,62c53a39c914d34f9b3fff62,2022-07-06_09h31.47.265,Colour_Asymmetry_Pilot,2022.1.3,Win32,60.0240096,62c50e9c1127f2cd403a315f,0,61,61,59,1,twofour,,,,,,,,,,,,,,,,,,,,,,,,,,,,,,,,,,,,,,,,,,,,,,,,,,,,,,,,,,,,,,,,,,,,,,,,,,,,,,,,,,,,,,,,,,,,,,,,,,,,,,,,,,,,,,,,,,,,,,,,,,,,,,,,,,,,,,,,,,,,,,,,,,,,,,,,,,
,,,,,,59b0565d2a78fd00010b8259,62c53a39c914d34f9b3fff62,2022-07-06_09h31.47.265,Colour_Asymmetry_Pilot,2022.1.3,Win32,60.0240096,62c50e9c1127f2cd403a315f,0,62,62,86,1,fourtwo,,,,,,,,,,,,,,,,,,,,,,,,,,,,,,,,,,,,,,,,,,,,,,,,,,,,,,,,,,,,,,,,,,,,,,,,,,,,,,,,,,,,,,,,,,,,,,,,,,,,,,,,,,,,,,,,,,,,,,,,,,,,,,,,,,,,,,,,,,,,,,,,,,,,,,,,,,
,,,,,,59b0565d2a78fd00010b8259,62c53a39c914d34f9b3fff62,2022-07-06_09h31.47.265,Colour_Asymmetry_Pilot,2022.1.3,Win32,60.0240096,62c50e9c1127f2cd403a315f,0,63,63,20,1,threeone,,,,,,,,,,,,,,,,,,,,,,,,,,,,,,,,,,,,,,,,,,,,,,,,,,,,,,,,,,,,,,,,,,,,,,,,,,,,,,,,,,,,,,,,,,,,,,,,,,,,,,,,,,,,,,,,,,,,,,,,,,,,,,,,,,,,,,,,,,,,,,,,,,,,,,,,,,
,,,,,,59b0565d2a78fd00010b8259,62c53a39c914d34f9b3fff62,2022-07-06_09h31.47.265,Colour_Asymmetry_Pilot,2022.1.3,Win32,60.0240096,62c50e9c1127f2cd403a315f,0,64,64,72,1,onetwo,,,,,,,,,,,,,,,,,,,,,,,,,,,,,,,,,,,,,,,,,,,,,,,,,,,,,,,,,,,,,,,,,,,,,,,,,,,,,,,,,,,,,,,,,,,,,,,,,,,,,,,,,,,,,,,,,,,,,,,,,,,,,,,,,,,,,,,,,,,,,,,,,,,,,,,,,,
,,,,,,59b0565d2a78fd00010b8259,62c53a39c914d34f9b3fff62,2022-07-06_09h31.47.265,Colour_Asymmetry_Pilot,2022.1.3,Win32,60.0240096,62c50e9c1127f2cd403a315f,0,65,65,3,1,twofour,,,,,,,,,,,,,,,,,,,,,,,,,,,,,,,,,,,,,,,,,,,,,,,,,,,,,,,,,,,,,,,,,,,,,,,,,,,,,,,,,,,,,,,,,,,,,,,,,,,,,,,,,,,,,,,,,,,,,,,,,,,,,,,,,,,,,,,,,,,,,,,,,,,,,,,,,,
,,,,,,59b0565d2a78fd00010b8259,62c53a39c914d34f9b3fff62,2022-07-06_09h31.47.265,Colour_Asymmetry_Pilot,2022.1.3,Win32,60.0240096,62c50e9c1127f2cd403a315f,0,66,66,63,1,fourthree,,,,,,,,,,,,,,,,,,,,,,,,,,,,,,,,,,,,,,,,,,,,,,,,,,,,,,,,,,,,,,,,,,,,,,,,,,,,,,,,,,,,,,,,,,,,,,,,,,,,,,,,,,,,,,,,,,,,,,,,,,,,,,,,,,,,,,,,,,,,,,,,,,,,,,,,,,
,,,,,,59b0565d2a78fd00010b8259,62c53a39c914d34f9b3fff62,2022-07-06_09h31.47.265,Colour_Asymmetry_Pilot,2022.1.3,Win32,60.0240096,62c50e9c1127f2cd403a315f,0,67,67,138,1,twoone,,,,,,,,,,,,,,,,,,,,,,,,,,,,,,,,,,,,,,,,,,,,,,,,,,,,,,,,,,,,,,,,,,,,,,,,,,,,,,,,,,,,,,,,,,,,,,,,,,,,,,,,,,,,,,,,,,,,,,,,,,,,,,,,,,,,,,,,,,,,,,,,,,,,,,,,,,
,,,,,,59b0565d2a78fd00010b8259,62c53a39c914d34f9b3fff62,2022-07-06_09h31.47.265,Colour_Asymmetry_Pilot,2022.1.3,Win32,60.0240096,62c50e9c1127f2cd403a315f,0,68,68,156,1,threeone,,,,,,,,,,,,,,,,,,,,,,,,,,,,,,,,,,,,,,,,,,,,,,,,,,,,,,,,,,,,,,,,,,,,,,,,,,,,,,,,,,,,,,,,,,,,,,,,,,,,,,,,,,,,,,,,,,,,,,,,,,,,,,,,,,,,,,,,,,,,,,,,,,,,,,,,,,
,,,,,,59b0565d2a78fd00010b8259,62c53a39c914d34f9b3fff62,2022-07-06_09h31.47.265,Colour_Asymmetry_Pilot,2022.1.3,Win32,60.0240096,62c50e9c1127f2cd403a315f,0,69,69,62,1,fourtwo,,,,,,,,,,,,,,,,,,,,,,,,,,,,,,,,,,,,,,,,,,,,,,,,,,,,,,,,,,,,,,,,,,,,,,,,,,,,,,,,,,,,,,,,,,,,,,,,,,,,,,,,,,,,,,,,,,,,,,,,,,,,,,,,,,,,,,,,,,,,,,,,,,,,,,,,,,
,,,,,,59b0565d2a78fd00010b8259,62c53a39c914d34f9b3fff62,2022-07-06_09h31.47.265,Colour_Asymmetry_Pilot,2022.1.3,Win32,60.0240096,62c50e9c1127f2cd403a315f,0,70,70,45,1,threefour,,,,,,,,,,,,,,,,,,,,,,,,,,,,,,,,,,,,,,,,,,,,,,,,,,,,,,,,,,,,,,,,,,,,,,,,,,,,,,,,,,,,,,,,,,,,,,,,,,,,,,,,,,,,,,,,,,,,,,,,,,,,,,,,,,,,,,,,,,,,,,,,,,,,,,,,,,
,,,,,,59b0565d2a78fd00010b8259,62c53a39c914d34f9b3fff62,2022-07-06_09h31.47.265,Colour_Asymmetry_Pilot,2022.1.3,Win32,60.0240096,62c50e9c1127f2cd403a315f,0,71,71,60,1,threeone,,,,,,,,,,,,,,,,,,,,,,,,,,,,,,,,,,,,,,,,,,,,,,,,,,,,,,,,,,,,,,,,,,,,,,,,,,,,,,,,,,,,,,,,,,,,,,,,,,,,,,,,,,,,,,,,,,,,,,,,,,,,,,,,,,,,,,,,,,,,,,,,,,,,,,,,,,
,,,,,,59b0565d2a78fd00010b8259,62c53a39c914d34f9b3fff62,2022-07-06_09h31.47.265,Colour_Asymmetry_Pilot,2022.1.3,Win32,60.0240096,62c50e9c1127f2cd403a315f,0,72,72,73,1,onethree,,,,,,,,,,,,,,,,,,,,,,,,,,,,,,,,,,,,,,,,,,,,,,,,,,,,,,,,,,,,,,,,,,,,,,,,,,,,,,,,,,,,,,,,,,,,,,,,,,,,,,,,,,,,,,,,,,,,,,,,,,,,,,,,,,,,,,,,,,,,,,,,,,,,,,,,,,
,,,,,,59b0565d2a78fd00010b8259,62c53a39c914d34f9b3fff62,2022-07-06_09h31.47.265,Colour_Asymmetry_Pilot,2022.1.3,Win32,60.0240096,62c50e9c1127f2cd403a315f,0,73,73,46,1,fourtwo,,,,,,,,,,,,,,,,,,,,,,,,,,,,,,,,,,,,,,,,,,,,,,,,,,,,,,,,,,,,,,,,,,,,,,,,,,,,,,,,,,,,,,,,,,,,,,,,,,,,,,,,,,,,,,,,,,,,,,,,,,,,,,,,,,,,,,,,,,,,,,,,,,,,,,,,,,
,,,,,,59b0565d2a78fd00010b8259,62c53a39c914d34f9b3fff62,2022-07-06_09h31.47.265,Colour_Asymmetry_Pilot,2022.1.3,Win32,60.0240096,62c50e9c1127f2cd403a315f,0,74,74,4,1,threeone,,,,,,,,,,,,,,,,,,,,,,,,,,,,,,,,,,,,,,,,,,,,,,,,,,,,,,,,,,,,,,,,,,,,,,,,,,,,,,,,,,,,,,,,,,,,,,,,,,,,,,,,,,,,,,,,,,,,,,,,,,,,,,,,,,,,,,,,,,,,,,,,,,,,,,,,,,
,,,,,,59b0565d2a78fd00010b8259,62c53a39c914d34f9b3fff62,2022-07-06_09h31.47.265,Colour_Asymmetry_Pilot,2022.1.3,Win32,60.0240096,62c50e9c1127f2cd403a315f,0,75,75,136,1,onetwo,,,,,,,,,,,,,,,,,,,,,,,,,,,,,,,,,,,,,,,,,,,,,,,,,,,,,,,,,,,,,,,,,,,,,,,,,,,,,,,,,,,,,,,,,,,,,,,,,,,,,,,,,,,,,,,,,,,,,,,,,,,,,,,,,,,,,,,,,,,,,,,,,,,,,,,,,,
,,,,,,59b0565d2a78fd00010b8259,62c53a39c914d34f9b3fff62,2022-07-06_09h31.47.265,Colour_Asymmetry_Pilot,2022.1.3,Win32,60.0240096,62c50e9c1127f2cd403a315f,0,76,76,7,1,fourthree,,,,,,,,,,,,,,,,,,,,,,,,,,,,,,,,,,,,,,,,,,,,,,,,,,,,,,,,,,,,,,,,,,,,,,,,,,,,,,,,,,,,,,,,,,,,,,,,,,,,,,,,,,,,,,,,,,,,,,,,,,,,,,,,,,,,,,,,,,,,,,,,,,,,,,,,,,
,,,,,,59b0565d2a78fd00010b8259,62c53a39c914d34f9b3fff62,2022-07-06_09h31.47.265,Colour_Asymmetry_Pilot,2022.1.3,Win32,60.0240096,62c50e9c1127f2cd403a315f,0,77,77,81,1,onethree,,,,,,,,,,,,,,,,,,,,,,,,,,,,,,,,,,,,,,,,,,,,,,,,,,,,,,,,,,,,,,,,,,,,,,,,,,,,,,,,,,,,,,,,,,,,,,,,,,,,,,,,,,,,,,,,,,,,,,,,,,,,,,,,,,,,,,,,,,,,,,,,,,,,,,,,,,
,,,,,,59b0565d2a78fd00010b8259,62c53a39c914d34f9b3fff62,2022-07-06_09h31.47.265,Colour_Asymmetry_Pilot,2022.1.3,Win32,60.0240096,62c50e9c1127f2cd403a315f,0,78,78,96,1,onetwo,,,,,,,,,,,,,,,,,,,,,,,,,,,,,,,,,,,,,,,,,,,,,,,,,,,,,,,,,,,,,,,,,,,,,,,,,,,,,,,,,,,,,,,,,,,,,,,,,,,,,,,,,,,,,,,,,,,,,,,,,,,,,,,,,,,,,,,,,,,,,,,,,,,,,,,,,,
,,,,,,59b0565d2a78fd00010b8259,62c53a39c914d34f9b3fff62,2022-07-06_09h31.47.265,Colour_Asymmetry_Pilot,2022.1.3,Win32,60.0240096,62c50e9c1127f2cd403a315f,0,79,79,127,1,fourthree,,,,,,,,,,,,,,,,,,,,,,,,,,,,,,,,,,,,,,,,,,,,,,,,,,,,,,,,,,,,,,,,,,,,,,,,,,,,,,,,,,,,,,,,,,,,,,,,,,,,,,,,,,,,,,,,,,,,,,,,,,,,,,,,,,,,,,,,,,,,,,,,,,,,,,,,,,
,,,,,,59b0565d2a78fd00010b8259,62c53a39c914d34f9b3fff62,2022-07-06_09h31.47.265,Colour_Asymmetry_Pilot,2022.1.3,Win32,60.0240096,62c50e9c1127f2cd403a315f,0,80,80,98,1,twoone,,,,,,,,,,,,,,,,,,,,,,,,,,,,,,,,,,,,,,,,,,,,,,,,,,,,,,,,,,,,,,,,,,,,,,,,,,,,,,,,,,,,,,,,,,,,,,,,,,,,,,,,,,,,,,,,,,,,,,,,,,,,,,,,,,,,,,,,,,,,,,,,,,,,,,,,,,
,,,,,,59b0565d2a78fd00010b8259,62c53a39c914d34f9b3fff62,2022-07-06_09h31.47.265,Colour_Asymmetry_Pilot,2022.1.3,Win32,60.0240096,62c50e9c1127f2cd403a315f,0,81,81,79,1,fourthree,,,,,,,,,,,,,,,,,,,,,,,,,,,,,,,,,,,,,,,,,,,,,,,,,,,,,,,,,,,,,,,,,,,,,,,,,,,,,,,,,,,,,,,,,,,,,,,,,,,,,,,,,,,,,,,,,,,,,,,,,,,,,,,,,,,,,,,,,,,,,,,,,,,,,,,,,,
,,,,,,59b0565d2a78fd00010b8259,62c53a39c914d34f9b3fff62,2022-07-06_09h31.47.265,Colour_Asymmetry_Pilot,2022.1.3,Win32,60.0240096,62c50e9c1127f2cd403a315f,0,82,82,161,1,onethree,,,,,,,,,,,,,,,,,,,,,,,,,,,,,,,,,,,,,,,,,,,,,,,,,,,,,,,,,,,,,,,,,,,,,,,,,,,,,,,,,,,,,,,,,,,,,,,,,,,,,,,,,,,,,,,,,,,,,,,,,,,,,,,,,,,,,,,,,,,,,,,,,,,,,,,,,,
,,,,,,59b0565d2a78fd00010b8259,62c53a39c914d34f9b3fff62,2022-07-06_09h31.47.265,Colour_Asymmetry_Pilot,2022.1.3,Win32,60.0240096,62c50e9c1127f2cd403a315f,0,83,83,41,1,onethree,,,,,,,,,,,,,,,,,,,,,,,,,,,,,,,,,,,,,,,,,,,,,,,,,,,,,,,,,,,,,,,,,,,,,,,,,,,,,,,,,,,,,,,,,,,,,,,,,,,,,,,,,,,,,,,,,,,,,,,,,,,,,,,,,,,,,,,,,,,,,,,,,,,,,,,,,,
,,,,,,59b0565d2a78fd00010b8259,62c53a39c914d34f9b3fff62,2022-07-06_09h31.47.265,Colour_Asymmetry_Pilot,2022.1.3,Win32,60.0240096,62c50e9c1127f2cd403a315f,0,84,84,57,1,onethree,,,,,,,,,,,,,,,,,,,,,,,,,,,,,,,,,,,,,,,,,,,,,,,,,,,,,,,,,,,,,,,,,,,,,,,,,,,,,,,,,,,,,,,,,,,,,,,,,,,,,,,,,,,,,,,,,,,,,,,,,,,,,,,,,,,,,,,,,,,,,,,,,,,,,,,,,,
,,,,,,59b0565d2a78fd00010b8259,62c53a39c914d34f9b3fff62,2022-07-06_09h31.47.265,Colour_Asymmetry_Pilot,2022.1.3,Win32,60.0240096,62c50e9c1127f2cd403a315f,0,85,85,48,1,onetwo,,,,,,,,,,,,,,,,,,,,,,,,,,,,,,,,,,,,,,,,,,,,,,,,,,,,,,,,,,,,,,,,,,,,,,,,,,,,,,,,,,,,,,,,,,,,,,,,,,,,,,,,,,,,,,,,,,,,,,,,,,,,,,,,,,,,,,,,,,,,,,,,,,,,,,,,,,
,,,,,,59b0565d2a78fd00010b8259,62c53a39c914d34f9b3fff62,2022-07-06_09h31.47.265,Colour_Asymmetry_Pilot,2022.1.3,Win32,60.0240096,62c50e9c1127f2cd403a315f,0,86,86,77,1,threefour,,,,,,,,,,,,,,,,,,,,,,,,,,,,,,,,,,,,,,,,,,,,,,,,,,,,,,,,,,,,,,,,,,,,,,,,,,,,,,,,,,,,,,,,,,,,,,,,,,,,,,,,,,,,,,,,,,,,,,,,,,,,,,,,,,,,,,,,,,,,,,,,,,,,,,,,,,
,,,,,,59b0565d2a78fd00010b8259,62c53a39c914d34f9b3fff62,2022-07-06_09h31.47.265,Colour_Asymmetry_Pilot,2022.1.3,Win32,60.0240096,62c50e9c1127f2cd403a315f,0,87,87,28,1,threeone,,,,,,,,,,,,,,,,,,,,,,,,,,,,,,,,,,,,,,,,,,,,,,,,,,,,,,,,,,,,,,,,,,,,,,,,,,,,,,,,,,,,,,,,,,,,,,,,,,,,,,,,,,,,,,,,,,,,,,,,,,,,,,,,,,,,,,,,,,,,,,,,,,,,,,,,,,
,,,,,,59b0565d2a78fd00010b8259,62c53a39c914d34f9b3fff62,2022-07-06_09h31.47.265,Colour_Asymmetry_Pilot,2022.1.3,Win32,60.0240096,62c50e9c1127f2cd403a315f,0,88,88,61,1,threefour,,,,,,,,,,,,,,,,,,,,,,,,,,,,,,,,,,,,,,,,,,,,,,,,,,,,,,,,,,,,,,,,,,,,,,,,,,,,,,,,,,,,,,,,,,,,,,,,,,,,,,,,,,,,,,,,,,,,,,,,,,,,,,,,,,,,,,,,,,,,,,,,,,,,,,,,,,
,,,,,,59b0565d2a78fd00010b8259,62c53a39c914d34f9b3fff62,2022-07-06_09h31.47.265,Colour_Asymmetry_Pilot,2022.1.3,Win32,60.0240096,62c50e9c1127f2cd403a315f,0,89,89,37,1,threefour,,,,,,,,,,,,,,,,,,,,,,,,,,,,,,,,,,,,,,,,,,,,,,,,,,,,,,,,,,,,,,,,,,,,,,,,,,,,,,,,,,,,,,,,,,,,,,,,,,,,,,,,,,,,,,,,,,,,,,,,,,,,,,,,,,,,,,,,,,,,,,,,,,,,,,,,,,
,,,,,,59b0565d2a78fd00010b8259,62c53a39c914d34f9b3fff62,2022-07-06_09h31.47.265,Colour_Asymmetry_Pilot,2022.1.3,Win32,60.0240096,62c50e9c1127f2cd403a315f,0,90,90,104,1,onetwo,,,,,,,,,,,,,,,,,,,,,,,,,,,,,,,,,,,,,,,,,,,,,,,,,,,,,,,,,,,,,,,,,,,,,,,,,,,,,,,,,,,,,,,,,,,,,,,,,,,,,,,,,,,,,,,,,,,,,,,,,,,,,,,,,,,,,,,,,,,,,,,,,,,,,,,,,,
,,,,,,59b0565d2a78fd00010b8259,62c53a39c914d34f9b3fff62,2022-07-06_09h31.47.265,Colour_Asymmetry_Pilot,2022.1.3,Win32,60.0240096,62c50e9c1127f2cd403a315f,0,91,91,126,1,fourtwo,,,,,,,,,,,,,,,,,,,,,,,,,,,,,,,,,,,,,,,,,,,,,,,,,,,,,,,,,,,,,,,,,,,,,,,,,,,,,,,,,,,,,,,,,,,,,,,,,,,,,,,,,,,,,,,,,,,,,,,,,,,,,,,,,,,,,,,,,,,,,,,,,,,,,,,,,,
,,,,,,59b0565d2a78fd00010b8259,62c53a39c914d34f9b3fff62,2022-07-06_09h31.47.265,Colour_Asymmetry_Pilot,2022.1.3,Win32,60.0240096,62c50e9c1127f2cd403a315f,0,92,92,157,1,threefour,,,,,,,,,,,,,,,,,,,,,,,,,,,,,,,,,,,,,,,,,,,,,,,,,,,,,,,,,,,,,,,,,,,,,,,,,,,,,,,,,,,,,,,,,,,,,,,,,,,,,,,,,,,,,,,,,,,,,,,,,,,,,,,,,,,,,,,,,,,,,,,,,,,,,,,,,,
,,,,,,59b0565d2a78fd00010b8259,62c53a39c914d34f9b3fff62,2022-07-06_09h31.47.265,Colour_Asymmetry_Pilot,2022.1.3,Win32,60.0240096,62c50e9c1127f2cd403a315f,0,93,93,82,1,twoone,,,,,,,,,,,,,,,,,,,,,,,,,,,,,,,,,,,,,,,,,,,,,,,,,,,,,,,,,,,,,,,,,,,,,,,,,,,,,,,,,,,,,,,,,,,,,,,,,,,,,,,,,,,,,,,,,,,,,,,,,,,,,,,,,,,,,,,,,,,,,,,,,,,,,,,,,,
,,,,,,59b0565d2a78fd00010b8259,62c53a39c914d34f9b3fff62,2022-07-06_09h31.47.265,Colour_Asymmetry_Pilot,2022.1.3,Win32,60.0240096,62c50e9c1127f2cd403a315f,0,94,94,153,1,onethree,,,,,,,,,,,,,,,,,,,,,,,,,,,,,,,,,,,,,,,,,,,,,,,,,,,,,,,,,,,,,,,,,,,,,,,,,,,,,,,,,,,,,,,,,,,,,,,,,,,,,,,,,,,,,,,,,,,,,,,,,,,,,,,,,,,,,,,,,,,,,,,,,,,,,,,,,,
,,,,,,59b0565d2a78fd00010b8259,62c53a39c914d34f9b3fff62,2022-07-06_09h31.47.265,Colour_Asymmetry_Pilot,2022.1.3,Win32,60.0240096,62c50e9c1127f2cd403a315f,0,95,95,42,1,twoone,,,,,,,,,,,,,,,,,,,,,,,,,,,,,,,,,,,,,,,,,,,,,,,,,,,,,,,,,,,,,,,,,,,,,,,,,,,,,,,,,,,,,,,,,,,,,,,,,,,,,,,,,,,,,,,,,,,,,,,,,,,,,,,,,,,,,,,,,,,,,,,,,,,,,,,,,,
,,,,,,59b0565d2a78fd00010b8259,62c53a39c914d34f9b3fff62,2022-07-06_09h31.47.265,Colour_Asymmetry_Pilot,2022.1.3,Win32,60.0240096,62c50e9c1127f2cd403a315f,0,96,96,147,1,twofour,,,,,,,,,,,,,,,,,,,,,,,,,,,,,,,,,,,,,,,,,,,,,,,,,,,,,,,,,,,,,,,,,,,,,,,,,,,,,,,,,,,,,,,,,,,,,,,,,,,,,,,,,,,,,,,,,,,,,,,,,,,,,,,,,,,,,,,,,,,,,,,,,,,,,,,,,,
,,,,,,59b0565d2a78fd00010b8259,62c53a39c914d34f9b3fff62,2022-07-06_09h31.47.265,Colour_Asymmetry_Pilot,2022.1.3,Win32,60.0240096,62c50e9c1127f2cd403a315f,0,97,97,55,1,fourthree,,,,,,,,,,,,,,,,,,,,,,,,,,,,,,,,,,,,,,,,,,,,,,,,,,,,,,,,,,,,,,,,,,,,,,,,,,,,,,,,,,,,,,,,,,,,,,,,,,,,,,,,,,,,,,,,,,,,,,,,,,,,,,,,,,,,,,,,,,,,,,,,,,,,,,,,,,
,,,,,,59b0565d2a78fd00010b8259,62c53a39c914d34f9b3fff62,2022-07-06_09h31.47.265,Colour_Asymmetry_Pilot,2022.1.3,Win32,60.0240096,62c50e9c1127f2cd403a315f,0,98,98,123,1,twofour,,,,,,,,,,,,,,,,,,,,,,,,,,,,,,,,,,,,,,,,,,,,,,,,,,,,,,,,,,,,,,,,,,,,,,,,,,,,,,,,,,,,,,,,,,,,,,,,,,,,,,,,,,,,,,,,,,,,,,,,,,,,,,,,,,,,,,,,,,,,,,,,,,,,,,,,,,
,,,,,,59b0565d2a78fd00010b8259,62c53a39c914d34f9b3fff62,2022-07-06_09h31.47.265,Colour_Asymmetry_Pilot,2022.1.3,Win32,60.0240096,62c50e9c1127f2cd403a315f,0,99,99,91,1,twofour,,,,,,,,,,,,,,,,,,,,,,,,,,,,,,,,,,,,,,,,,,,,,,,,,,,,,,,,,,,,,,,,,,,,,,,,,,,,,,,,,,,,,,,,,,,,,,,,,,,,,,,,,,,,,,,,,,,,,,,,,,,,,,,,,,,,,,,,,,,,,,,,,,,,,,,,,,
,,,,,,59b0565d2a78fd00010b8259,62c53a39c914d34f9b3fff62,2022-07-06_09h31.47.265,Colour_Asymmetry_Pilot,2022.1.3,Win32,60.0240096,62c50e9c1127f2cd403a315f,0,100,100,116,1,threeone,,,,,,,,,,,,,,,,,,,,,,,,,,,,,,,,,,,,,,,,,,,,,,,,,,,,,,,,,,,,,,,,,,,,,,,,,,,,,,,,,,,,,,,,,,,,,,,,,,,,,,,,,,,,,,,,,,,,,,,,,,,,,,,,,,,,,,,,,,,,,,,,,,,,,,,,,,
,,,,,,59b0565d2a78fd00010b8259,62c53a39c914d34f9b3fff62,2022-07-06_09h31.47.265,Colour_Asymmetry_Pilot,2022.1.3,Win32,60.0240096,62c50e9c1127f2cd403a315f,0,101,101,53,1,threefour,,,,,,,,,,,,,,,,,,,,,,,,,,,,,,,,,,,,,,,,,,,,,,,,,,,,,,,,,,,,,,,,,,,,,,,,,,,,,,,,,,,,,,,,,,,,,,,,,,,,,,,,,,,,,,,,,,,,,,,,,,,,,,,,,,,,,,,,,,,,,,,,,,,,,,,,,,
,,,,,,59b0565d2a78fd00010b8259,62c53a39c914d34f9b3fff62,2022-07-06_09h31.47.265,Colour_Asymmetry_Pilot,2022.1.3,Win32,60.0240096,62c50e9c1127f2cd403a315f,0,102,102,132,1,threeone,,,,,,,,,,,,,,,,,,,,,,,,,,,,,,,,,,,,,,,,,,,,,,,,,,,,,,,,,,,,,,,,,,,,,,,,,,,,,,,,,,,,,,,,,,,,,,,,,,,,,,,,,,,,,,,,,,,,,,,,,,,,,,,,,,,,,,,,,,,,,,,,,,,,,,,,,,
,,,,,,59b0565d2a78fd00010b8259,62c53a39c914d34f9b3fff62,2022-07-06_09h31.47.265,Colour_Asymmetry_Pilot,2022.1.3,Win32,60.0240096,62c50e9c1127f2cd403a315f,0,103,103,118,1,fourtwo,,,,,,,,,,,,,,,,,,,,,,,,,,,,,,,,,,,,,,,,,,,,,,,,,,,,,,,,,,,,,,,,,,,,,,,,,,,,,,,,,,,,,,,,,,,,,,,,,,,,,,,,,,,,,,,,,,,,,,,,,,,,,,,,,,,,,,,,,,,,,,,,,,,,,,,,,,
,,,,,,59b0565d2a78fd00010b8259,62c53a39c914d34f9b3fff62,2022-07-06_09h31.47.265,Colour_Asymmetry_Pilot,2022.1.3,Win32,60.0240096,62c50e9c1127f2cd403a315f,0,104,104,113,1,onethree,,,,,,,,,,,,,,,,,,,,,,,,,,,,,,,,,,,,,,,,,,,,,,,,,,,,,,,,,,,,,,,,,,,,,,,,,,,,,,,,,,,,,,,,,,,,,,,,,,,,,,,,,,,,,,,,,,,,,,,,,,,,,,,,,,,,,,,,,,,,,,,,,,,,,,,,,,
,,,,,,59b0565d2a78fd00010b8259,62c53a39c914d34f9b3fff62,2022-07-06_09h31.47.265,Colour_Asymmetry_Pilot,2022.1.3,Win32,60.0240096,62c50e9c1127f2cd403a315f,0,105,105,115,1,twofour,,,,,,,,,,,,,,,,,,,,,,,,,,,,,,,,,,,,,,,,,,,,,,,,,,,,,,,,,,,,,,,,,,,,,,,,,,,,,,,,,,,,,,,,,,,,,,,,,,,,,,,,,,,,,,,,,,,,,,,,,,,,,,,,,,,,,,,,,,,,,,,,,,,,,,,,,,
,,,,,,59b0565d2a78fd00010b8259,62c53a39c914d34f9b3fff62,2022-07-06_09h31.47.265,Colour_Asymmetry_Pilot,2022.1.3,Win32,60.0240096,62c50e9c1127f2cd403a315f,0,106,106,89,1,onethree,,,,,,,,,,,,,,,,,,,,,,,,,,,,,,,,,,,,,,,,,,,,,,,,,,,,,,,,,,,,,,,,,,,,,,,,,,,,,,,,,,,,,,,,,,,,,,,,,,,,,,,,,,,,,,,,,,,,,,,,,,,,,,,,,,,,,,,,,,,,,,,,,,,,,,,,,,
,,,,,,59b0565d2a78fd00010b8259,62c53a39c914d34f9b3fff62,2022-07-06_09h31.47.265,Colour_Asymmetry_Pilot,2022.1.3,Win32,60.0240096,62c50e9c1127f2cd403a315f,0,107,107,16,1,onetwo,,,,,,,,,,,,,,,,,,,,,,,,,,,,,,,,,,,,,,,,,,,,,,,,,,,,,,,,,,,,,,,,,,,,,,,,,,,,,,,,,,,,,,,,,,,,,,,,,,,,,,,,,,,,,,,,,,,,,,,,,,,,,,,,,,,,,,,,,,,,,,,,,,,,,,,,,,
,,,,,,59b0565d2a78fd00010b8259,62c53a39c914d34f9b3fff62,2022-07-06_09h31.47.265,Colour_Asymmetry_Pilot,2022.1.3,Win32,60.0240096,62c50e9c1127f2cd403a315f,0,108,108,34,1,twoone,,,,,,,,,,,,,,,,,,,,,,,,,,,,,,,,,,,,,,,,,,,,,,,,,,,,,,,,,,,,,,,,,,,,,,,,,,,,,,,,,,,,,,,,,,,,,,,,,,,,,,,,,,,,,,,,,,,,,,,,,,,,,,,,,,,,,,,,,,,,,,,,,,,,,,,,,,
,,,,,,59b0565d2a78fd00010b8259,62c53a39c914d34f9b3fff62,2022-07-06_09h31.47.265,Colour_Asymmetry_Pilot,2022.1.3,Win32,60.0240096,62c50e9c1127f2cd403a315f,0,109,109,102,1,fourtwo,,,,,,,,,,,,,,,,,,,,,,,,,,,,,,,,,,,,,,,,,,,,,,,,,,,,,,,,,,,,,,,,,,,,,,,,,,,,,,,,,,,,,,,,,,,,,,,,,,,,,,,,,,,,,,,,,,,,,,,,,,,,,,,,,,,,,,,,,,,,,,,,,,,,,,,,,,
,,,,,,59b0565d2a78fd00010b8259,62c53a39c914d34f9b3fff62,2022-07-06_09h31.47.265,Colour_Asymmetry_Pilot,2022.1.3,Win32,60.0240096,62c50e9c1127f2cd403a315f,0,110,110,131,1,twofour,,,,,,,,,,,,,,,,,,,,,,,,,,,,,,,,,,,,,,,,,,,,,,,,,,,,,,,,,,,,,,,,,,,,,,,,,,,,,,,,,,,,,,,,,,,,,,,,,,,,,,,,,,,,,,,,,,,,,,,,,,,,,,,,,,,,,,,,,,,,,,,,,,,,,,,,,,
,,,,,,59b0565d2a78fd00010b8259,62c53a39c914d34f9b3fff62,2022-07-06_09h31.47.265,Colour_Asymmetry_Pilot,2022.1.3,Win32,60.0240096,62c50e9c1127f2cd403a315f,0,111,111,66,1,twoone,,,,,,,,,,,,,,,,,,,,,,,,,,,,,,,,,,,,,,,,,,,,,,,,,,,,,,,,,,,,,,,,,,,,,,,,,,,,,,,,,,,,,,,,,,,,,,,,,,,,,,,,,,,,,,,,,,,,,,,,,,,,,,,,,,,,,,,,,,,,,,,,,,,,,,,,,,
,,,,,,59b0565d2a78fd00010b8259,62c53a39c914d34f9b3fff62,2022-07-06_09h31.47.265,Colour_Asymmetry_Pilot,2022.1.3,Win32,60.0240096,62c50e9c1127f2cd403a315f,0,112,112,24,1,onetwo,,,,,,,,,,,,,,,,,,,,,,,,,,,,,,,,,,,,,,,,,,,,,,,,,,,,,,,,,,,,,,,,,,,,,,,,,,,,,,,,,,,,,,,,,,,,,,,,,,,,,,,,,,,,,,,,,,,,,,,,,,,,,,,,,,,,,,,,,,,,,,,,,,,,,,,,,,
,,,,,,59b0565d2a78fd00010b8259,62c53a39c914d34f9b3fff62,2022-07-06_09h31.47.265,Colour_Asymmetry_Pilot,2022.1.3,Win32,60.0240096,62c50e9c1127f2cd403a315f,0,113,113,25,1,onethree,,,,,,,,,,,,,,,,,,,,,,,,,,,,,,,,,,,,,,,,,,,,,,,,,,,,,,,,,,,,,,,,,,,,,,,,,,,,,,,,,,,,,,,,,,,,,,,,,,,,,,,,,,,,,,,,,,,,,,,,,,,,,,,,,,,,,,,,,,,,,,,,,,,,,,,,,,
,,,,,,59b0565d2a78fd00010b8259,62c53a39c914d34f9b3fff62,2022-07-06_09h31.47.265,Colour_Asymmetry_Pilot,2022.1.3,Win32,60.0240096,62c50e9c1127f2cd403a315f,0,114,114,38,1,fourtwo,,,,,,,,,,,,,,,,,,,,,,,,,,,,,,,,,,,,,,,,,,,,,,,,,,,,,,,,,,,,,,,,,,,,,,,,,,,,,,,,,,,,,,,,,,,,,,,,,,,,,,,,,,,,,,,,,,,,,,,,,,,,,,,,,,,,,,,,,,,,,,,,,,,,,,,,,,
,,,,,,59b0565d2a78fd00010b8259,62c53a39c914d34f9b3fff62,2022-07-06_09h31.47.265,Colour_Asymmetry_Pilot,2022.1.3,Win32,60.0240096,62c50e9c1127f2cd403a315f,0,115,115,31,1,fourthree,,,,,,,,,,,,,,,,,,,,,,,,,,,,,,,,,,,,,,,,,,,,,,,,,,,,,,,,,,,,,,,,,,,,,,,,,,,,,,,,,,,,,,,,,,,,,,,,,,,,,,,,,,,,,,,,,,,,,,,,,,,,,,,,,,,,,,,,,,,,,,,,,,,,,,,,,,
,,,,,,59b0565d2a78fd00010b8259,62c53a39c914d34f9b3fff62,2022-07-06_09h31.47.265,Colour_Asymmetry_Pilot,2022.1.3,Win32,60.0240096,62c50e9c1127f2cd403a315f,0,116,116,145,1,onethree,,,,,,,,,,,,,,,,,,,,,,,,,,,,,,,,,,,,,,,,,,,,,,,,,,,,,,,,,,,,,,,,,,,,,,,,,,,,,,,,,,,,,,,,,,,,,,,,,,,,,,,,,,,,,,,,,,,,,,,,,,,,,,,,,,,,,,,,,,,,,,,,,,,,,,,,,,
,,,,,,59b0565d2a78fd00010b8259,62c53a39c914d34f9b3fff62,2022-07-06_09h31.47.265,Colour_Asymmetry_Pilot,2022.1.3,Win32,60.0240096,62c50e9c1127f2cd403a315f,0,117,117,128,1,onetwo,,,,,,,,,,,,,,,,,,,,,,,,,,,,,,,,,,,,,,,,,,,,,,,,,,,,,,,,,,,,,,,,,,,,,,,,,,,,,,,,,,,,,,,,,,,,,,,,,,,,,,,,,,,,,,,,,,,,,,,,,,,,,,,,,,,,,,,,,,,,,,,,,,,,,,,,,,
,,,,,,59b0565d2a78fd00010b8259,62c53a39c914d34f9b3fff62,2022-07-06_09h31.47.265,Colour_Asymmetry_Pilot,2022.1.3,Win32,60.0240096,62c50e9c1127f2cd403a315f,0,118,118,12,1,threeone,,,,,,,,,,,,,,,,,,,,,,,,,,,,,,,,,,,,,,,,,,,,,,,,,,,,,,,,,,,,,,,,,,,,,,,,,,,,,,,,,,,,,,,,,,,,,,,,,,,,,,,,,,,,,,,,,,,,,,,,,,,,,,,,,,,,,,,,,,,,,,,,,,,,,,,,,,
,,,,,,59b0565d2a78fd00010b8259,62c53a39c914d34f9b3fff62,2022-07-06_09h31.47.265,Colour_Asymmetry_Pilot,2022.1.3,Win32,60.0240096,62c50e9c1127f2cd403a315f,0,119,119,130,1,twoone,,,,,,,,,,,,,,,,,,,,,,,,,,,,,,,,,,,,,,,,,,,,,,,,,,,,,,,,,,,,,,,,,,,,,,,,,,,,,,,,,,,,,,,,,,,,,,,,,,,,,,,,,,,,,,,,,,,,,,,,,,,,,,,,,,,,,,,,,,,,,,,,,,,,,,,,,,
,,,,,,59b0565d2a78fd00010b8259,62c53a39c914d34f9b3fff62,2022-07-06_09h31.47.265,Colour_Asymmetry_Pilot,2022.1.3,Win32,60.0240096,62c50e9c1127f2cd403a315f,0,120,120,70,1,fourtwo,,,,,,,,,,,,,,,,,,,,,,,,,,,,,,,,,,,,,,,,,,,,,,,,,,,,,,,,,,,,,,,,,,,,,,,,,,,,,,,,,,,,,,,,,,,,,,,,,,,,,,,,,,,,,,,,,,,,,,,,,,,,,,,,,,,,,,,,,,,,,,,,,,,,,,,,,,
,,,,,,59b0565d2a78fd00010b8259,62c53a39c914d34f9b3fff62,2022-07-06_09h31.47.265,Colour_Asymmetry_Pilot,2022.1.3,Win32,60.0240096,62c50e9c1127f2cd403a315f,0,121,121,80,1,onetwo,,,,,,,,,,,,,,,,,,,,,,,,,,,,,,,,,,,,,,,,,,,,,,,,,,,,,,,,,,,,,,,,,,,,,,,,,,,,,,,,,,,,,,,,,,,,,,,,,,,,,,,,,,,,,,,,,,,,,,,,,,,,,,,,,,,,,,,,,,,,,,,,,,,,,,,,,,
,,,,,,59b0565d2a78fd00010b8259,62c53a39c914d34f9b3fff62,2022-07-06_09h31.47.265,Colour_Asymmetry_Pilot,2022.1.3,Win32,60.0240096,62c50e9c1127f2cd403a315f,0,122,122,58,1,twoone,,,,,,,,,,,,,,,,,,,,,,,,,,,,,,,,,,,,,,,,,,,,,,,,,,,,,,,,,,,,,,,,,,,,,,,,,,,,,,,,,,,,,,,,,,,,,,,,,,,,,,,,,,,,,,,,,,,,,,,,,,,,,,,,,,,,,,,,,,,,,,,,,,,,,,,,,,
,,,,,,59b0565d2a78fd00010b8259,62c53a39c914d34f9b3fff62,2022-07-06_09h31.47.265,Colour_Asymmetry_Pilot,2022.1.3,Win32,60.0240096,62c50e9c1127f2cd403a315f,0,123,123,75,1,twofour,,,,,,,,,,,,,,,,,,,,,,,,,,,,,,,,,,,,,,,,,,,,,,,,,,,,,,,,,,,,,,,,,,,,,,,,,,,,,,,,,,,,,,,,,,,,,,,,,,,,,,,,,,,,,,,,,,,,,,,,,,,,,,,,,,,,,,,,,,,,,,,,,,,,,,,,,,
,,,,,,59b0565d2a78fd00010b8259,62c53a39c914d34f9b3fff62,2022-07-06_09h31.47.265,Colour_Asymmetry_Pilot,2022.1.3,Win32,60.0240096,62c50e9c1127f2cd403a315f,0,124,124,146,1,twoone,,,,,,,,,,,,,,,,,,,,,,,,,,,,,,,,,,,,,,,,,,,,,,,,,,,,,,,,,,,,,,,,,,,,,,,,,,,,,,,,,,,,,,,,,,,,,,,,,,,,,,,,,,,,,,,,,,,,,,,,,,,,,,,,,,,,,,,,,,,,,,,,,,,,,,,,,,
,,,,,,59b0565d2a78fd00010b8259,62c53a39c914d34f9b3fff62,2022-07-06_09h31.47.265,Colour_Asymmetry_Pilot,2022.1.3,Win32,60.0240096,62c50e9c1127f2cd403a315f,0,125,125,21,1,threefour,,,,,,,,,,,,,,,,,,,,,,,,,,,,,,,,,,,,,,,,,,,,,,,,,,,,,,,,,,,,,,,,,,,,,,,,,,,,,,,,,,,,,,,,,,,,,,,,,,,,,,,,,,,,,,,,,,,,,,,,,,,,,,,,,,,,,,,,,,,,,,,,,,,,,,,,,,
,,,,,,59b0565d2a78fd00010b8259,62c53a39c914d34f9b3fff62,2022-07-06_09h31.47.265,Colour_Asymmetry_Pilot,2022.1.3,Win32,60.0240096,62c50e9c1127f2cd403a315f,0,126,126,90,1,twoone,,,,,,,,,,,,,,,,,,,,,,,,,,,,,,,,,,,,,,,,,,,,,,,,,,,,,,,,,,,,,,,,,,,,,,,,,,,,,,,,,,,,,,,,,,,,,,,,,,,,,,,,,,,,,,,,,,,,,,,,,,,,,,,,,,,,,,,,,,,,,,,,,,,,,,,,,,
,,,,,,59b0565d2a78fd00010b8259,62c53a39c914d34f9b3fff62,2022-07-06_09h31.47.265,Colour_Asymmetry_Pilot,2022.1.3,Win32,60.0240096,62c50e9c1127f2cd403a315f,0,127,127,83,1,twofour,,,,,,,,,,,,,,,,,,,,,,,,,,,,,,,,,,,,,,,,,,,,,,,,,,,,,,,,,,,,,,,,,,,,,,,,,,,,,,,,,,,,,,,,,,,,,,,,,,,,,,,,,,,,,,,,,,,,,,,,,,,,,,,,,,,,,,,,,,,,,,,,,,,,,,,,,,
,,,,,,59b0565d2a78fd00010b8259,62c53a39c914d34f9b3fff62,2022-07-06_09h31.47.265,Colour_Asymmetry_Pilot,2022.1.3,Win32,60.0240096,62c50e9c1127f2cd403a315f,0,128,128,121,1,onethree,,,,,,,,,,,,,,,,,,,,,,,,,,,,,,,,,,,,,,,,,,,,,,,,,,,,,,,,,,,,,,,,,,,,,,,,,,,,,,,,,,,,,,,,,,,,,,,,,,,,,,,,,,,,,,,,,,,,,,,,,,,,,,,,,,,,,,,,,,,,,,,,,,,,,,,,,,
,,,,,,59b0565d2a78fd00010b8259,62c53a39c914d34f9b3fff62,2022-07-06_09h31.47.265,Colour_Asymmetry_Pilot,2022.1.3,Win32,60.0240096,62c50e9c1127f2cd403a315f,0,129,129,78,1,fourtwo,,,,,,,,,,,,,,,,,,,,,,,,,,,,,,,,,,,,,,,,,,,,,,,,,,,,,,,,,,,,,,,,,,,,,,,,,,,,,,,,,,,,,,,,,,,,,,,,,,,,,,,,,,,,,,,,,,,,,,,,,,,,,,,,,,,,,,,,,,,,,,,,,,,,,,,,,,
,,,,,,59b0565d2a78fd00010b8259,62c53a39c914d34f9b3fff62,2022-07-06_09h31.47.265,Colour_Asymmetry_Pilot,2022.1.3,Win32,60.0240096,62c50e9c1127f2cd403a315f,0,130,130,14,1,fourtwo,,,,,,,,,,,,,,,,,,,,,,,,,,,,,,,,,,,,,,,,,,,,,,,,,,,,,,,,,,,,,,,,,,,,,,,,,,,,,,,,,,,,,,,,,,,,,,,,,,,,,,,,,,,,,,,,,,,,,,,,,,,,,,,,,,,,,,,,,,,,,,,,,,,,,,,,,,
,,,,,,59b0565d2a78fd00010b8259,62c53a39c914d34f9b3fff62,2022-07-06_09h31.47.265,Colour_Asymmetry_Pilot,2022.1.3,Win32,60.0240096,62c50e9c1127f2cd403a315f,0,131,131,107,1,twofour,,,,,,,,,,,,,,,,,,,,,,,,,,,,,,,,,,,,,,,,,,,,,,,,,,,,,,,,,,,,,,,,,,,,,,,,,,,,,,,,,,,,,,,,,,,,,,,,,,,,,,,,,,,,,,,,,,,,,,,,,,,,,,,,,,,,,,,,,,,,,,,,,,,,,,,,,,
,,,,,,59b0565d2a78fd00010b8259,62c53a39c914d34f9b3fff62,2022-07-06_09h31.47.265,Colour_Asymmetry_Pilot,2022.1.3,Win32,60.0240096,62c50e9c1127f2cd403a315f,0,132,132,1,1,onethree,,,,,,,,,,,,,,,,,,,,,,,,,,,,,,,,,,,,,,,,,,,,,,,,,,,,,,,,,,,,,,,,,,,,,,,,,,,,,,,,,,,,,,,,,,,,,,,,,,,,,,,,,,,,,,,,,,,,,,,,,,,,,,,,,,,,,,,,,,,,,,,,,,,,,,,,,,
,,,,,,59b0565d2a78fd00010b8259,62c53a39c914d34f9b3fff62,2022-07-06_09h31.47.265,Colour_Asymmetry_Pilot,2022.1.3,Win32,60.0240096,62c50e9c1127f2cd403a315f,0,133,133,119,1,fourthree,,,,,,,,,,,,,,,,,,,,,,,,,,,,,,,,,,,,,,,,,,,,,,,,,,,,,,,,,,,,,,,,,,,,,,,,,,,,,,,,,,,,,,,,,,,,,,,,,,,,,,,,,,,,,,,,,,,,,,,,,,,,,,,,,,,,,,,,,,,,,,,,,,,,,,,,,,
,,,,,,59b0565d2a78fd00010b8259,62c53a39c914d34f9b3fff62,2022-07-06_09h31.47.265,Colour_Asymmetry_Pilot,2022.1.3,Win32,60.0240096,62c50e9c1127f2cd403a315f,0,134,134,52,1,threeone,,,,,,,,,,,,,,,,,,,,,,,,,,,,,,,,,,,,,,,,,,,,,,,,,,,,,,,,,,,,,,,,,,,,,,,,,,,,,,,,,,,,,,,,,,,,,,,,,,,,,,,,,,,,,,,,,,,,,,,,,,,,,,,,,,,,,,,,,,,,,,,,,,,,,,,,,,
,,,,,,59b0565d2a78fd00010b8259,62c53a39c914d34f9b3fff62,2022-07-06_09h31.47.265,Colour_Asymmetry_Pilot,2022.1.3,Win32,60.0240096,62c50e9c1127f2cd403a315f,0,135,135,124,1,threeone,,,,,,,,,,,,,,,,,,,,,,,,,,,,,,,,,,,,,,,,,,,,,,,,,,,,,,,,,,,,,,,,,,,,,,,,,,,,,,,,,,,,,,,,,,,,,,,,,,,,,,,,,,,,,,,,,,,,,,,,,,,,,,,,,,,,,,,,,,,,,,,,,,,,,,,,,,
,,,,,,59b0565d2a78fd00010b8259,62c53a39c914d34f9b3fff62,2022-07-06_09h31.47.265,Colour_Asymmetry_Pilot,2022.1.3,Win32,60.0240096,62c50e9c1127f2cd403a315f,0,136,136,151,1,fourthree,,,,,,,,,,,,,,,,,,,,,,,,,,,,,,,,,,,,,,,,,,,,,,,,,,,,,,,,,,,,,,,,,,,,,,,,,,,,,,,,,,,,,,,,,,,,,,,,,,,,,,,,,,,,,,,,,,,,,,,,,,,,,,,,,,,,,,,,,,,,,,,,,,,,,,,,,,
,,,,,,59b0565d2a78fd00010b8259,62c53a39c914d34f9b3fff62,2022-07-06_09h31.47.265,Colour_Asymmetry_Pilot,2022.1.3,Win32,60.0240096,62c50e9c1127f2cd403a315f,0,137,137,129,1,onethree,,,,,,,,,,,,,,,,,,,,,,,,,,,,,,,,,,,,,,,,,,,,,,,,,,,,,,,,,,,,,,,,,,,,,,,,,,,,,,,,,,,,,,,,,,,,,,,,,,,,,,,,,,,,,,,,,,,,,,,,,,,,,,,,,,,,,,,,,,,,,,,,,,,,,,,,,,
,,,,,,59b0565d2a78fd00010b8259,62c53a39c914d34f9b3fff62,2022-07-06_09h31.47.265,Colour_Asymmetry_Pilot,2022.1.3,Win32,60.0240096,62c50e9c1127f2cd403a315f,0,138,138,68,1,threeone,,,,,,,,,,,,,,,,,,,,,,,,,,,,,,,,,,,,,,,,,,,,,,,,,,,,,,,,,,,,,,,,,,,,,,,,,,,,,,,,,,,,,,,,,,,,,,,,,,,,,,,,,,,,,,,,,,,,,,,,,,,,,,,,,,,,,,,,,,,,,,,,,,,,,,,,,,
,,,,,,59b0565d2a78fd00010b8259,62c53a39c914d34f9b3fff62,2022-07-06_09h31.47.265,Colour_Asymmetry_Pilot,2022.1.3,Win32,60.0240096,62c50e9c1127f2cd403a315f,0,139,139,135,1,fourthree,,,,,,,,,,,,,,,,,,,,,,,,,,,,,,,,,,,,,,,,,,,,,,,,,,,,,,,,,,,,,,,,,,,,,,,,,,,,,,,,,,,,,,,,,,,,,,,,,,,,,,,,,,,,,,,,,,,,,,,,,,,,,,,,,,,,,,,,,,,,,,,,,,,,,,,,,,
,,,,,,59b0565d2a78fd00010b8259,62c53a39c914d34f9b3fff62,2022-07-06_09h31.47.265,Colour_Asymmetry_Pilot,2022.1.3,Win32,60.0240096,62c50e9c1127f2cd403a315f,0,140,140,109,1,threefour,,,,,,,,,,,,,,,,,,,,,,,,,,,,,,,,,,,,,,,,,,,,,,,,,,,,,,,,,,,,,,,,,,,,,,,,,,,,,,,,,,,,,,,,,,,,,,,,,,,,,,,,,,,,,,,,,,,,,,,,,,,,,,,,,,,,,,,,,,,,,,,,,,,,,,,,,,
,,,,,,59b0565d2a78fd00010b8259,62c53a39c914d34f9b3fff62,2022-07-06_09h31.47.265,Colour_Asymmetry_Pilot,2022.1.3,Win32,60.0240096,62c50e9c1127f2cd403a315f,0,141,141,67,1,twofour,,,,,,,,,,,,,,,,,,,,,,,,,,,,,,,,,,,,,,,,,,,,,,,,,,,,,,,,,,,,,,,,,,,,,,,,,,,,,,,,,,,,,,,,,,,,,,,,,,,,,,,,,,,,,,,,,,,,,,,,,,,,,,,,,,,,,,,,,,,,,,,,,,,,,,,,,,
,,,,,,59b0565d2a78fd00010b8259,62c53a39c914d34f9b3fff62,2022-07-06_09h31.47.265,Colour_Asymmetry_Pilot,2022.1.3,Win32,60.0240096,62c50e9c1127f2cd403a315f,0,142,142,139,1,twofour,,,,,,,,,,,,,,,,,,,,,,,,,,,,,,,,,,,,,,,,,,,,,,,,,,,,,,,,,,,,,,,,,,,,,,,,,,,,,,,,,,,,,,,,,,,,,,,,,,,,,,,,,,,,,,,,,,,,,,,,,,,,,,,,,,,,,,,,,,,,,,,,,,,,,,,,,,
,,,,,,59b0565d2a78fd00010b8259,62c53a39c914d34f9b3fff62,2022-07-06_09h31.47.265,Colour_Asymmetry_Pilot,2022.1.3,Win32,60.0240096,62c50e9c1127f2cd403a315f,0,143,143,74,1,twoone,,,,,,,,,,,,,,,,,,,,,,,,,,,,,,,,,,,,,,,,,,,,,,,,,,,,,,,,,,,,,,,,,,,,,,,,,,,,,,,,,,,,,,,,,,,,,,,,,,,,,,,,,,,,,,,,,,,,,,,,,,,,,,,,,,,,,,,,,,,,,,,,,,,,,,,,,,
,,,,,,59b0565d2a78fd00010b8259,62c53a39c914d34f9b3fff62,2022-07-06_09h31.47.265,Colour_Asymmetry_Pilot,2022.1.3,Win32,60.0240096,62c50e9c1127f2cd403a315f,0,144,144,133,1,threefour,,,,,,,,,,,,,,,,,,,,,,,,,,,,,,,,,,,,,,,,,,,,,,,,,,,,,,,,,,,,,,,,,,,,,,,,,,,,,,,,,,,,,,,,,,,,,,,,,,,,,,,,,,,,,,,,,,,,,,,,,,,,,,,,,,,,,,,,,,,,,,,,,,,,,,,,,,
,,,,,,59b0565d2a78fd00010b8259,62c53a39c914d34f9b3fff62,2022-07-06_09h31.47.265,Colour_Asymmetry_Pilot,2022.1.3,Win32,60.0240096,62c50e9c1127f2cd403a315f,0,145,145,122,1,twoone,,,,,,,,,,,,,,,,,,,,,,,,,,,,,,,,,,,,,,,,,,,,,,,,,,,,,,,,,,,,,,,,,,,,,,,,,,,,,,,,,,,,,,,,,,,,,,,,,,,,,,,,,,,,,,,,,,,,,,,,,,,,,,,,,,,,,,,,,,,,,,,,,,,,,,,,,,
,,,,,,59b0565d2a78fd00010b8259,62c53a39c914d34f9b3fff62,2022-07-06_09h31.47.265,Colour_Asymmetry_Pilot,2022.1.3,Win32,60.0240096,62c50e9c1127f2cd403a315f,0,146,146,36,1,threeone,,,,,,,,,,,,,,,,,,,,,,,,,,,,,,,,,,,,,,,,,,,,,,,,,,,,,,,,,,,,,,,,,,,,,,,,,,,,,,,,,,,,,,,,,,,,,,,,,,,,,,,,,,,,,,,,,,,,,,,,,,,,,,,,,,,,,,,,,,,,,,,,,,,,,,,,,,
,,,,,,59b0565d2a78fd00010b8259,62c53a39c914d34f9b3fff62,2022-07-06_09h31.47.265,Colour_Asymmetry_Pilot,2022.1.3,Win32,60.0240096,62c50e9c1127f2cd403a315f,0,147,147,51,1,twofour,,,,,,,,,,,,,,,,,,,,,,,,,,,,,,,,,,,,,,,,,,,,,,,,,,,,,,,,,,,,,,,,,,,,,,,,,,,,,,,,,,,,,,,,,,,,,,,,,,,,,,,,,,,,,,,,,,,,,,,,,,,,,,,,,,,,,,,,,,,,,,,,,,,,,,,,,,
,,,,,,59b0565d2a78fd00010b8259,62c53a39c914d34f9b3fff62,2022-07-06_09h31.47.265,Colour_Asymmetry_Pilot,2022.1.3,Win32,60.0240096,62c50e9c1127f2cd403a315f,0,148,148,94,1,fourtwo,,,,,,,,,,,,,,,,,,,,,,,,,,,,,,,,,,,,,,,,,,,,,,,,,,,,,,,,,,,,,,,,,,,,,,,,,,,,,,,,,,,,,,,,,,,,,,,,,,,,,,,,,,,,,,,,,,,,,,,,,,,,,,,,,,,,,,,,,,,,,,,,,,,,,,,,,,
,,,,,,59b0565d2a78fd00010b8259,62c53a39c914d34f9b3fff62,2022-07-06_09h31.47.265,Colour_Asymmetry_Pilot,2022.1.3,Win32,60.0240096,62c50e9c1127f2cd403a315f,0,149,149,114,1,twoone,,,,,,,,,,,,,,,,,,,,,,,,,,,,,,,,,,,,,,,,,,,,,,,,,,,,,,,,,,,,,,,,,,,,,,,,,,,,,,,,,,,,,,,,,,,,,,,,,,,,,,,,,,,,,,,,,,,,,,,,,,,,,,,,,,,,,,,,,,,,,,,,,,,,,,,,,,
,,,,,,59b0565d2a78fd00010b8259,62c53a39c914d34f9b3fff62,2022-07-06_09h31.47.265,Colour_Asymmetry_Pilot,2022.1.3,Win32,60.0240096,62c50e9c1127f2cd403a315f,0,150,150,106,1,twoone,,,,,,,,,,,,,,,,,,,,,,,,,,,,,,,,,,,,,,,,,,,,,,,,,,,,,,,,,,,,,,,,,,,,,,,,,,,,,,,,,,,,,,,,,,,,,,,,,,,,,,,,,,,,,,,,,,,,,,,,,,,,,,,,,,,,,,,,,,,,,,,,,,,,,,,,,,
,,,,,,59b0565d2a78fd00010b8259,62c53a39c914d34f9b3fff62,2022-07-06_09h31.47.265,Colour_Asymmetry_Pilot,2022.1.3,Win32,60.0240096,62c50e9c1127f2cd403a315f,0,151,151,97,1,onethree,,,,,,,,,,,,,,,,,,,,,,,,,,,,,,,,,,,,,,,,,,,,,,,,,,,,,,,,,,,,,,,,,,,,,,,,,,,,,,,,,,,,,,,,,,,,,,,,,,,,,,,,,,,,,,,,,,,,,,,,,,,,,,,,,,,,,,,,,,,,,,,,,,,,,,,,,,
,,,,,,59b0565d2a78fd00010b8259,62c53a39c914d34f9b3fff62,2022-07-06_09h31.47.265,Colour_Asymmetry_Pilot,2022.1.3,Win32,60.0240096,62c50e9c1127f2cd403a315f,0,152,152,134,1,fourtwo,,,,,,,,,,,,,,,,,,,,,,,,,,,,,,,,,,,,,,,,,,,,,,,,,,,,,,,,,,,,,,,,,,,,,,,,,,,,,,,,,,,,,,,,,,,,,,,,,,,,,,,,,,,,,,,,,,,,,,,,,,,,,,,,,,,,,,,,,,,,,,,,,,,,,,,,,,
,,,,,,59b0565d2a78fd00010b8259,62c53a39c914d34f9b3fff62,2022-07-06_09h31.47.265,Colour_Asymmetry_Pilot,2022.1.3,Win32,60.0240096,62c50e9c1127f2cd403a315f,0,153,153,44,1,threeone,,,,,,,,,,,,,,,,,,,,,,,,,,,,,,,,,,,,,,,,,,,,,,,,,,,,,,,,,,,,,,,,,,,,,,,,,,,,,,,,,,,,,,,,,,,,,,,,,,,,,,,,,,,,,,,,,,,,,,,,,,,,,,,,,,,,,,,,,,,,,,,,,,,,,,,,,,
,,,,,,59b0565d2a78fd00010b8259,62c53a39c914d34f9b3fff62,2022-07-06_09h31.47.265,Colour_Asymmetry_Pilot,2022.1.3,Win32,60.0240096,62c50e9c1127f2cd403a315f,0,154,154,27,1,twofour,,,,,,,,,,,,,,,,,,,,,,,,,,,,,,,,,,,,,,,,,,,,,,,,,,,,,,,,,,,,,,,,,,,,,,,,,,,,,,,,,,,,,,,,,,,,,,,,,,,,,,,,,,,,,,,,,,,,,,,,,,,,,,,,,,,,,,,,,,,,,,,,,,,,,,,,,,
,,,,,,59b0565d2a78fd00010b8259,62c53a39c914d34f9b3fff62,2022-07-06_09h31.47.265,Colour_Asymmetry_Pilot,2022.1.3,Win32,60.0240096,62c50e9c1127f2cd403a315f,0,155,155,32,1,onetwo,,,,,,,,,,,,,,,,,,,,,,,,,,,,,,,,,,,,,,,,,,,,,,,,,,,,,,,,,,,,,,,,,,,,,,,,,,,,,,,,,,,,,,,,,,,,,,,,,,,,,,,,,,,,,,,,,,,,,,,,,,,,,,,,,,,,,,,,,,,,,,,,,,,,,,,,,,
,,,,,,59b0565d2a78fd00010b8259,62c53a39c914d34f9b3fff62,2022-07-06_09h31.47.265,Colour_Asymmetry_Pilot,2022.1.3,Win32,60.0240096,62c50e9c1127f2cd403a315f,0,156,156,29,1,threefour,,,,,,,,,,,,,,,,,,,,,,,,,,,,,,,,,,,,,,,,,,,,,,,,,,,,,,,,,,,,,,,,,,,,,,,,,,,,,,,,,,,,,,,,,,,,,,,,,,,,,,,,,,,,,,,,,,,,,,,,,,,,,,,,,,,,,,,,,,,,,,,,,,,,,,,,,,
,,,,,,59b0565d2a78fd00010b8259,62c53a39c914d34f9b3fff62,2022-07-06_09h31.47.265,Colour_Asymmetry_Pilot,2022.1.3,Win32,60.0240096,62c50e9c1127f2cd403a315f,0,157,157,0,1,onetwo,,,,,,,,,,,,,,,,,,,,,,,,,,,,,,,,,,,,,,,,,,,,,,,,,,,,,,,,,,,,,,,,,,,,,,,,,,,,,,,,,,,,,,,,,,,,,,,,,,,,,,,,,,,,,,,,,,,,,,,,,,,,,,,,,,,,,,,,,,,,,,,,,,,,,,,,,,
,,,,,,59b0565d2a78fd00010b8259,62c53a39c914d34f9b3fff62,2022-07-06_09h31.47.265,Colour_Asymmetry_Pilot,2022.1.3,Win32,60.0240096,62c50e9c1127f2cd403a315f,0,158,158,141,1,threefour,,,,,,,,,,,,,,,,,,,,,,,,,,,,,,,,,,,,,,,,,,,,,,,,,,,,,,,,,,,,,,,,,,,,,,,,,,,,,,,,,,,,,,,,,,,,,,,,,,,,,,,,,,,,,,,,,,,,,,,,,,,,,,,,,,,,,,,,,,,,,,,,,,,,,,,,,,
,,,,,,59b0565d2a78fd00010b8259,62c53a39c914d34f9b3fff62,2022-07-06_09h31.47.265,Colour_Asymmetry_Pilot,2022.1.3,Win32,60.0240096,62c50e9c1127f2cd403a315f,0,159,159,125,1,threefour,,,,,,,,,,,,,,,,,,,,,,,,,,,,,,,,,,,,,,,,,,,,,,,,,,,,,,,,,,,,,,,,,,,,,,,,,,,,,,,,,,,,,,,,,,,,,,,,,,,,,,,,,,,,,,,,,,,,,,,,,,,,,,,,,,,,,,,,,,,,,,,,,,,,,,,,,,
,,,,,,59b0565d2a78fd00010b8259,62c53a39c914d34f9b3fff62,2022-07-06_09h31.47.265,Colour_Asymmetry_Pilot,2022.1.3,Win32,60.0240096,62c50e9c1127f2cd403a315f,0,160,160,23,1,fourthree,,,,,,,,,,,,,,,,,,,,,,,,,,,,,,,,,,,,,,,,,,,,,,,,,,,,,,,,,,,,,,,,,,,,,,,,,,,,,,,,,,,,,,,,,,,,,,,,,,,,,,,,,,,,,,,,,,,,,,,,,,,,,,,,,,,,,,,,,,,,,,,,,,,,,,,,,,
,,,,,,59b0565d2a78fd00010b8259,62c53a39c914d34f9b3fff62,2022-07-06_09h31.47.265,Colour_Asymmetry_Pilot,2022.1.3,Win32,60.0240096,62c50e9c1127f2cd403a315f,0,161,161,150,1,fourtwo,,,,,,,,,,,,,,,,,,,,,,,,,,,,,,,,,,,,,,,,,,,,,,,,,,,,,,,,,,,,,,,,,,,,,,,,,,,,,,,,,,,,,,,,,,,,,,,,,,,,,,,,,,,,,,,,,,,,,,,,,,,,,,,,,,,,,,,,,,,,,,,,,,,,,,,,,,
,,,,,,59b0565d2a78fd00010b8259,62c53a39c914d34f9b3fff62,2022-07-06_09h31.47.265,Colour_Asymmetry_Pilot,2022.1.3,Win32,60.0240096,62c50e9c1127f2cd403a315f,,,,,,,space,2.9703,space,5.4485,space,23.7853,space,11.7337,space,4.7855,space,3.7026,"[0.6547999999999998,-0.043199999999999905,-0.011800000000000033]",onetwo,"[0.7018,0.7176,0.6155999999999999]",-4,6.3875,-26.66662598,70,1,0,0,response7disk_5,-4.666625977,4.666656494,1,0,0,rectangle_8,-4.666625977,4.666656494,1,0,0,3,-4.666625977,4.666656494,1,0,0,0,0,0,0,1,,,,,,,,,,,,,,,,,,,,,,,,,,,,,,,,,,,,,,,,,,,,,,,,,,,,,,,,,,,,,,,,,,,,,,,,,,,,,,,,,,,,,,,,,,,,,,,,,,,,,,,,,,,,,
,,,,,,59b0565d2a78fd00010b8259,62c53a39c914d34f9b3fff62,2022-07-06_09h31.47.265,Colour_Asymmetry_Pilot,2022.1.3,Win32,60.0240096,62c50e9c1127f2cd403a315f,,,,,,,,,,,,,,,,,,,"[0.0351999999999999,0.41159999999999997,0.0038000000000000256]",onethree,"[0.09799999999999986,-0.24719999999999998,0.15280000000000005]",-2,7.9517,-64,-31.33334351,1,0,0,response5disk_5,-4.666625977,0.666656494,1,0,0,rectangle_8,-4.666625977,0.666656494,1,0,0,3,-4.666625977,0.666656494,1,0,0,1,0,1,0,1,,,,,,,,,,,,,,,,,,,,,,,,,,,,,,,,,,,,,,,,,,,,,,,,,,,,,,,,,,,,,,,,,,,,,,,,,,,,,,,,,,,,,,,,,,,,,,,,,,,,,,,,,,,,,
,,,,,,59b0565d2a78fd00010b8259,62c53a39c914d34f9b3fff62,2022-07-06_09h31.47.265,Colour_Asymmetry_Pilot,2022.1.3,Win32,60.0240096,62c50e9c1127f2cd403a315f,,,,,,,,,,,,,,,,,,,"[0.7176,-0.906,-0.6864]",threefour,"[0.9763999999999999,-0.1137999999999999,-0.6314]",2,2.518,44.66668701,-28.66668701,1,0,0,response3disk_5,-2.666625977,2,1,0,0,rectangle_8,-2.666625977,2,1,0,0,3,-2.666625977,2,1,0,0,2,0,2,0,1,,,,,,,,,,,,,,,,,,,,,,,,,,,,,,,,,,,,,,,,,,,,,,,,,,,,,,,,,,,,,,,,,,,,,,,,,,,,,,,,,,,,,,,,,,,,,,,,,,,,,,,,,,,,,
,,,,,,59b0565d2a78fd00010b8259,62c53a39c914d34f9b3fff62,2022-07-06_09h31.47.265,Colour_Asymmetry_Pilot,2022.1.3,Win32,60.0240096,62c50e9c1127f2cd403a315f,,,,,,,,,,,,,,,,,,,"[-0.6706000000000001,-0.6157999999999999,-0.6786]",twoone,"[-0.01980000000000004,-0.5138,-0.38039999999999996]",1,2.7999,38.66668701,-60,1,0,0,response3disk_5,-4,1.333312988,1,0,0,rectangle_8,-4,1.333312988,1,0,0,3,-4,1.333312988,1,0,0,3,0,3,0,1,,,,,,,,,,,,,,,,,,,,,,,,,,,,,,,,,,,,,,,,,,,,,,,,,,,,,,,,,,,,,,,,,,,,,,,,,,,,,,,,,,,,,,,,,,,,,,,,,,,,,,,,,,,,,
,,,,,,59b0565d2a78fd00010b8259,62c53a39c914d34f9b3fff62,2022-07-06_09h31.47.265,Colour_Asymmetry_Pilot,2022.1.3,Win32,60.0240096,62c50e9c1127f2cd403a315f,,,,,,,,,,,,,,,,,,,"[-0.4668,-0.8746,-0.2942]",threeone,"[0.04299999999999993,0.16060000000000008,-0.6628000000000001]",-1,3.2003,-33.33331299,-72.66668701,1,0,0,response5disk_5,-17.33331299,2,1,0,0,rectangle_8,-17.33331299,2,1,0,0,3,-17.33331299,2,1,0,0,4,0,4,0,1,,,,,,,,,,,,,,,,,,,,,,,,,,,,,,,,,,,,,,,,,,,,,,,,,,,,,,,,,,,,,,,,,,,,,,,,,,,,,,,,,,,,,,,,,,,,,,,,,,,,,,,,,,,,,
,,,,,,59b0565d2a78fd00010b8259,62c53a39c914d34f9b3fff62,2022-07-06_09h31.47.265,Colour_Asymmetry_Pilot,2022.1.3,Win32,60.0240096,62c50e9c1127f2cd403a315f,,,,,,,,,,,,,,,,,,,"[0.5528,0.7409999999999999,-0.71]",twofour,"[0.3568,-0.20799999999999996,-0.9844]",2,2.1501,80.66668701,-43.33334351,1,0,0,response3disk_5,-4.666625977,-2.666687012,1,0,0,rectangle_8,-4.666625977,-2.666687012,1,0,0,3,-4.666625977,-2.666687012,1,0,0,5,0,5,0,1,,,,,,,,,,,,,,,,,,,,,,,,,,,,,,,,,,,,,,,,,,,,,,,,,,,,,,,,,,,,,,,,,,,,,,,,,,,,,,,,,,,,,,,,,,,,,,,,,,,,,,,,,,,,,
,,,,,,59b0565d2a78fd00010b8259,62c53a39c914d34f9b3fff62,2022-07-06_09h31.47.265,Colour_Asymmetry_Pilot,2022.1.3,Win32,60.0240096,62c50e9c1127f2cd403a315f,,,,,,,,,,,,,,,,,,,"[-0.24719999999999998,0.5213999999999999,-0.12959999999999994]",twoone,"[0.19199999999999995,0.18419999999999992,0.5136000000000001]",-1,2.1324,-29.33331299,-84,1,0,0,response5disk_5,3.333374023,5.333312988,1,0,0,rectangle_8,3.333374023,5.333312988,1,0,0,3,3.333374023,5.333312988,1,0,0,6,0,6,0,1,,,,,,,,,,,,,,,,,,,,,,,,,,,,,,,,,,,,,,,,,,,,,,,,,,,,,,,,,,,,,,,,,,,,,,,,,,,,,,,,,,,,,,,,,,,,,,,,,,,,,,,,,,,,,
,,,,,,59b0565d2a78fd00010b8259,62c53a39c914d34f9b3fff62,2022-07-06_09h31.47.265,Colour_Asymmetry_Pilot,2022.1.3,Win32,60.0240096,62c50e9c1127f2cd403a315f,,,,,,,,,,,,,,,,,,,,threefour,,-1,1.0184,,,,,,,,,,,,,,,,,,,,,,,,,,,,,space,3.8956,"[0.9686000000000001,0.3802000000000001,0.19999999999999996]","[0.11359999999999992,0.6312,0.5213999999999999]",-32.66662598,-69.33334351,1,0,0,response5disk,0.666687012,-2,1,0,0,rectangle,0.666687012,-2,1,0,0,,3,0.0036,0,0.666687012,-2,1,0,0,0,0,0,86,1,5,second,,,,,,,,,,,,,,,,,,,,,,,,,,,,,,,,,,,,,,,,,,,,,,,,,,,,,,,,,,,,,,,,,,,,,,,,
,,,,,,59b0565d2a78fd00010b8259,62c53a39c914d34f9b3fff62,2022-07-06_09h31.47.265,Colour_Asymmetry_Pilot,2022.1.3,Win32,60.0240096,62c50e9c1127f2cd403a315f,,,,,,,,,,,,,,,,,,,,threefour,,-2,1.243,,,,,,,,,,,,,,,,,,,,,,,,,,,,,,,"[0.3568,-0.20799999999999996,-0.9844]","[-0.9216,-0.5529999999999999,-0.3962]",-72,-38,1,0,0,response5disk,-0.666625977,4.666656494,1,0,0,rectangle,-0.666625977,4.666656494,1,0,0,,3,0.0007,0,-0.666625977,4.666656494,1,0,0,0,1,1,29,1,29,first,,,,,,,,,,,,,,,,,,,,,,,,,,,,,,,,,,,,,,,,,,,,,,,,,,,,,,,,,,,,,,,,,,,,,,,,
,,,,,,59b0565d2a78fd00010b8259,62c53a39c914d34f9b3fff62,2022-07-06_09h31.47.265,Colour_Asymmetry_Pilot,2022.1.3,Win32,60.0240096,62c50e9c1127f2cd403a315f,,,,,,,,,,,,,,,,,,,,onethree,,-1,1.3078,,,,,,,,,,,,,,,,,,,,,,,,,,,,,,,"[0.34099999999999997,0.5841999999999998,-0.9844]","[0.9686000000000001,0.3802000000000001,0.19999999999999996]",-36.66662598,-78,1,0,0,response5disk,5.333374023,-0.666687012,1,0,0,rectangle,5.333374023,-0.666687012,1,0,0,,3,0.0007,0,5.333374023,-0.666687012,1,0,0,0,2,2,6,1,6,first,,,,,,,,,,,,,,,,,,,,,,,,,,,,,,,,,,,,,,,,,,,,,,,,,,,,,,,,,,,,,,,,,,,,,,,,
,,,,,,59b0565d2a78fd00010b8259,62c53a39c914d34f9b3fff62,2022-07-06_09h31.47.265,Colour_Asymmetry_Pilot,2022.1.3,Win32,60.0240096,62c50e9c1127f2cd403a315f,,,,,,,,,,,,,,,,,,,,fourthree,,1,0.8836,,,,,,,,,,,,,,,,,,,,,,,,,,,,,,,"[-0.26280000000000003,-0.2158,-0.3256]","[-0.4982,-0.2942,-0.0354000000000001]",42,-71.33334351,1,0,0,response3disk,4.666687012,-4,1,0,0,rectangle,4.666687012,-4,1,0,0,,2,0.0028,0,4.666687012,-4,1,0,0,0,3,3,21,1,21,first,,,,,,,,,,,,,,,,,,,,,,,,,,,,,,,,,,,,,,,,,,,,,,,,,,,,,,,,,,,,,,,,,,,,,,,,
,,,,,,59b0565d2a78fd00010b8259,62c53a39c914d34f9b3fff62,2022-07-06_09h31.47.265,Colour_Asymmetry_Pilot,2022.1.3,Win32,60.0240096,62c50e9c1127f2cd403a315f,,,,,,,,,,,,,,,,,,,,twoone,,-3,1.2515,,,,,,,,,,,,,,,,,,,,,,,,,,,,,,,"[0.9372,0.9450000000000001,0.8980000000000001]","[-0.10599999999999998,-0.10599999999999998,0.5841999999999998]",-70,28.66665649,1,0,0,response7disk,0.666687012,-4,1,0,0,rectangle,0.666687012,-4,1,0,0,,1,0.0025,0,0.666687012,-4,1,0,0,0,4,4,50,1,50,first,,,,,,,,,,,,,,,,,,,,,,,,,,,,,,,,,,,,,,,,,,,,,,,,,,,,,,,,,,,,,,,,,,,,,,,,
,,,,,,59b0565d2a78fd00010b8259,62c53a39c914d34f9b3fff62,2022-07-06_09h31.47.265,Colour_Asymmetry_Pilot,2022.1.3,Win32,60.0240096,62c50e9c1127f2cd403a315f,,,,,,,,,,,,,,,,,,,,onetwo,,-1,1.1672,,,,,,,,,,,,,,,,,,,,,,,,,,,,,,,"[0.12939999999999996,-0.2864,0.3253999999999999]","[0.22340000000000004,-0.9296,-0.7884]",-38,-64,1,0,0,response5disk,6,6.666656494,1,0,0,rectangle,6,6.666656494,1,0,0,,1,0.0008,0,6,6.666656494,1,0,0,0,5,5,67,1,67,first,,,,,,,,,,,,,,,,,,,,,,,,,,,,,,,,,,,,,,,,,,,,,,,,,,,,,,,,,,,,,,,,,,,,,,,,
,,,,,,59b0565d2a78fd00010b8259,62c53a39c914d34f9b3fff62,2022-07-06_09h31.47.265,Colour_Asymmetry_Pilot,2022.1.3,Win32,60.0240096,62c50e9c1127f2cd403a315f,,,,,,,,,,,,,,,,,,,,twofour,,2,0.6831,,,,,,,,,,,,,,,,,,,,,,,,,,,,,,,"[0.7802,-0.23140000000000005,-0.20799999999999996]","[0.796,0.2156,-0.27859999999999996]",58,-27.33334351,1,0,0,response3disk,-13.33331299,2,1,0,0,rectangle,-13.33331299,2,1,0,0,,3,0.003,0,-13.33331299,2,1,0,0,0,6,6,64,1,64,first,,,,,,,,,,,,,,,,,,,,,,,,,,,,,,,,,,,,,,,,,,,,,,,,,,,,,,,,,,,,,,,,,,,,,,,,
,,,,,,59b0565d2a78fd00010b8259,62c53a39c914d34f9b3fff62,2022-07-06_09h31.47.265,Colour_Asymmetry_Pilot,2022.1.3,Win32,60.0240096,62c50e9c1127f2cd403a315f,,,,,,,,,,,,,,,,,,,,fourthree,,-1,0.7501,,,,,,,,,,,,,,,,,,,,,,,,,,,,,,,"[0.11359999999999992,0.6312,0.5213999999999999]","[0.9686000000000001,0.3802000000000001,0.19999999999999996]",-50.66662598,-84,1,0,0,response5disk,-4.666625977,-4.666687012,1,0,0,rectangle,-4.666625977,-4.666687012,1,0,0,,3,0.0046,0,-4.666625977,-4.666687012,1,0,0,0,7,7,5,1,5,first,,,,,,,,,,,,,,,,,,,,,,,,,,,,,,,,,,,,,,,,,,,,,,,,,,,,,,,,,,,,,,,,,,,,,,,,
,,,,,,59b0565d2a78fd00010b8259,62c53a39c914d34f9b3fff62,2022-07-06_09h31.47.265,Colour_Asymmetry_Pilot,2022.1.3,Win32,60.0240096,62c50e9c1127f2cd403a315f,,,,,,,,,,,,,,,,,,,,onetwo,,1,1.4668,,,,,,,,,,,,,,,,,,,,,,,,,,,,,,,"[-0.7412000000000001,-0.08239999999999992,-0.6864]","[-0.6706000000000001,-0.6157999999999999,-0.6786]",35.33337402,-74,1,0,0,response3disk,-10,-1.333343506,1,0,0,rectangle,70.66668701,-32,1,0,0,2,2,2.9327,1,-5.333312988,3.333312988,1,0,0,0,8,8,136,1,55,second,response3disk_3,rectangle,,,,,,,,,,,,,,,,,,,,,,,,,,,,,,,,,,,,,,,,,,,,,,,,,,,,,,,,,,,,,,,,,,,,,,
,,,,,,59b0565d2a78fd00010b8259,62c53a39c914d34f9b3fff62,2022-07-06_09h31.47.265,Colour_Asymmetry_Pilot,2022.1.3,Win32,60.0240096,62c50e9c1127f2cd403a315f,,,,,,,,,,,,,,,,,,,,fourthree,,-4,1.5337,,,,,,,,,,,,,,,,,,,,,,,,,,,,,,,"[-0.4746,-0.0354000000000001,0.5449999999999999]","[0.5528,0.7409999999999999,-0.71]",-54.66662598,68.66665649,1,0,0,response7disk,-11.33331299,4.666656494,1,0,0,rectangle,-11.33331299,4.666656494,1,0,0,2,2,0.0008,0,-11.33331299,4.666656494,1,0,0,0,9,9,16,1,16,first,,,,,,,,,,,,,,,,,,,,,,,,,,,,,,,,,,,,,,,,,,,,,,,,,,,,,,,,,,,,,,,,,,,,,,,,
,,,,,,59b0565d2a78fd00010b8259,62c53a39c914d34f9b3fff62,2022-07-06_09h31.47.265,Colour_Asymmetry_Pilot,2022.1.3,Win32,60.0240096,62c50e9c1127f2cd403a315f,,,,,,,,,,,,,,,,,,,,threeone,,2,0.8505,,,,,,,,,,,,,,,,,,,,,,,,,,,,,,,"[-0.4276,0.0038000000000000256,-0.3256]","[0.11359999999999992,0.6312,0.5213999999999999]",53.33337402,-29.33334351,1,0,0,response3disk,-10,-2.666687012,1,0,0,rectangle,-10,-2.666687012,1,0,0,2,3,0.0033,0,-10,-2.666687012,1,0,0,0,10,10,22,1,22,first,,,,,,,,,,,,,,,,,,,,,,,,,,,,,,,,,,,,,,,,,,,,,,,,,,,,,,,,,,,,,,,,,,,,,,,,
,,,,,,59b0565d2a78fd00010b8259,62c53a39c914d34f9b3fff62,2022-07-06_09h31.47.265,Colour_Asymmetry_Pilot,2022.1.3,Win32,60.0240096,62c50e9c1127f2cd403a315f,,,,,,,,,,,,,,,,,,,,fourthree,,1,0.6001,,,,,,,,,,,,,,,,,,,,,,,,,,,,,,,"[-0.6706000000000001,-0.6157999999999999,-0.6786]","[-0.7412000000000001,-0.08239999999999992,-0.6864]",20,-68.66668701,1,0,0,response3disk,-6,2,1,0,0,rectangle,48,-84,1,0,0,1,1,1.8993,1,-4,0.666656494,1,0,0,0,11,11,55,1,55,first,response3disk_3,rectangle,,,,,,,,,,,,,,,,,,,,,,,,,,,,,,,,,,,,,,,,,,,,,,,,,,,,,,,,,,,,,,,,,,,,,,
,,,,,,59b0565d2a78fd00010b8259,62c53a39c914d34f9b3fff62,2022-07-06_09h31.47.265,Colour_Asymmetry_Pilot,2022.1.3,Win32,60.0240096,62c50e9c1127f2cd403a315f,,,,,,,,,,,,,,,,,,,,onetwo,,-1,0.7171,,,,,,,,,,,,,,,,,,,,,,,,,,,,,,,"[0.23920000000000008,0.2704,0.16060000000000008]","[0.12939999999999996,-0.2864,0.3253999999999999]",-44,-74,1,0,0,response5disk,-2.666625977,1.333312988,1,0,0,rectangle,-2.666625977,1.333312988,1,0,0,1,3,0.0033,0,-2.666625977,1.333312988,1,0,0,0,12,12,133,1,52,second,,,,,,,,,,,,,,,,,,,,,,,,,,,,,,,,,,,,,,,,,,,,,,,,,,,,,,,,,,,,,,,,,,,,,,,,
,,,,,,59b0565d2a78fd00010b8259,62c53a39c914d34f9b3fff62,2022-07-06_09h31.47.265,Colour_Asymmetry_Pilot,2022.1.3,Win32,60.0240096,62c50e9c1127f2cd403a315f,,,,,,,,,,,,,,,,,,,,threefour,,2,1.0167,,,,,,,,,,,,,,,,,,,,,,,,,,,,,,,"[0.8115999999999999,-0.0040000000000000036,-0.09819999999999995]","[1,0.12939999999999996,-1]",84.66668701,-49.33334351,1,0,0,response3disk,-0.666625977,2,1,0,0,rectangle,-0.666625977,2,1,0,0,1,2,0.0037,0,-0.666625977,2,1,0,0,0,13,13,25,1,25,first,,,,,,,,,,,,,,,,,,,,,,,,,,,,,,,,,,,,,,,,,,,,,,,,,,,,,,,,,,,,,,,,,,,,,,,,
,,,,,,59b0565d2a78fd00010b8259,62c53a39c914d34f9b3fff62,2022-07-06_09h31.47.265,Colour_Asymmetry_Pilot,2022.1.3,Win32,60.0240096,62c50e9c1127f2cd403a315f,,,,,,,,,,,,,,,,,,,,twoone,,2,1.4829,,,,,,,,,,,,,,,,,,,,,,,,,,,,,,,"[-0.9844,-0.9688,-0.9922]","[-0.6235999999999999,-0.6786,-0.08239999999999992]",84.66668701,-28,1,0,0,response3disk,10,0.666656494,1,0,0,rectangle,10,0.666656494,1,0,0,1,1,0.0032,0,10,0.666656494,1,0,0,0,14,14,23,1,23,first,,,,,,,,,,,,,,,,,,,,,,,,,,,,,,,,,,,,,,,,,,,,,,,,,,,,,,,,,,,,,,,,,,,,,,,,
,,,,,,59b0565d2a78fd00010b8259,62c53a39c914d34f9b3fff62,2022-07-06_09h31.47.265,Colour_Asymmetry_Pilot,2022.1.3,Win32,60.0240096,62c50e9c1127f2cd403a315f,,,,,,,,,,,,,,,,,,,,threefour,,2,0.6839,,,,,,,,,,,,,,,,,,,,,,,,,,,,,,,"[0.7018,0.7176,0.6155999999999999]","[0.19199999999999995,0.18419999999999992,0.5136000000000001]",55.33337402,-26.66668701,1,0,0,response3disk,7.333374023,-0.666687012,1,0,0,rectangle,7.333374023,-0.666687012,1,0,0,1,1,0.0005,0,7.333374023,-0.666687012,1,0,0,0,15,15,78,1,78,first,,,,,,,,,,,,,,,,,,,,,,,,,,,,,,,,,,,,,,,,,,,,,,,,,,,,,,,,,,,,,,,,,,,,,,,,
,,,,,,59b0565d2a78fd00010b8259,62c53a39c914d34f9b3fff62,2022-07-06_09h31.47.265,Colour_Asymmetry_Pilot,2022.1.3,Win32,60.0240096,62c50e9c1127f2cd403a315f,,,,,,,,,,,,,,,,,,,,onethree,,1,0.5665,,,,,,,,,,,,,,,,,,,,,,,,,,,,,,,"[-0.6235999999999999,-0.6786,-0.08239999999999992]","[0.5449999999999999,-0.31000000000000005,-0.0354000000000001]",26,-57.33334351,1,0,0,response3disk,-6,-2.666687012,1,0,0,rectangle,-6,-2.666687012,1,0,0,1,1,0.0003,0,-6,-2.666687012,1,0,0,0,16,16,15,1,15,first,,,,,,,,,,,,,,,,,,,,,,,,,,,,,,,,,,,,,,,,,,,,,,,,,,,,,,,,,,,,,,,,,,,,,,,,
