trials.thisRepN,trials.thisTrialN,trials.thisN,trials.thisIndex,trials.ran,Colourcodes,participant,session,date,expName,psychopyVersion,OS,frameRate,study_id,trials_4.thisRepN,trials_4.thisTrialN,trials_4.thisN,trials_4.thisIndex,trials_4.ran,StimulusPos,key_resp.keys,key_resp.rt,key_resp_2.keys,key_resp_2.rt,key_resp_15.keys,key_resp_15.rt,key_resp_17.keys,key_resp_17.rt,key_resp_9.keys,key_resp_9.rt,key_resp_10.keys,key_resp_10.rt,Circle1_col,Ecc,Circle2_col,similarity,response_time,mouse_5.x,mouse_5.y,mouse_5.leftButton,mouse_5.midButton,mouse_5.rightButton,mouse_5.clicked_name,mouse_10.x,mouse_10.y,mouse_10.leftButton,mouse_10.midButton,mouse_10.rightButton,mouse_10.clicked_name,mouse_7.x,mouse_7.y,mouse_7.leftButton,mouse_7.midButton,mouse_7.rightButton,catchnumberprac,mouse_6.x,mouse_6.y,mouse_6.leftButton,mouse_6.midButton,mouse_6.rightButton,duringprac.thisRepN,duringprac.thisTrialN,duringprac.thisN,duringprac.thisIndex,duringprac.ran,mouse_7.clicked_name,catchprac,mouse_6.clicked_name,key_resp_22.keys,key_resp_22.rt,Circle1_colour,Circle2_colour,mouse.x,mouse.y,mouse.leftButton,mouse.midButton,mouse.rightButton,mouse.clicked_name,mouse_2.x,mouse_2.y,mouse_2.leftButton,mouse_2.midButton,mouse_2.rightButton,mouse_2.clicked_name,mouse_3.x,mouse_3.y,mouse_3.leftButton,mouse_3.midButton,mouse_3.rightButton,catchresponse,catchnumber,response_time_catch,Catch,mouse_11.x,mouse_11.y,mouse_11.leftButton,mouse_11.midButton,mouse_11.rightButton,trials_2.thisRepN,trials_2.thisTrialN,trials_2.thisN,trials_2.thisIndex,trials_2.ran,Colourpair,Temporder,mouse_3.clicked_name,mouse_11.clicked_name,trials_3.thisRepN,trials_3.thisTrialN,trials_3.thisN,trials_3.thisIndex,trials_3.ran,key_resp_instr_Ishi.keys,key_resp_instr_Ishi.rt,Ishi_trial_keyresp.keys,Ishi_textbox.text,Ishi_mouse.x,Ishi_mouse.y,Ishi_mouse.leftButton,Ishi_mouse.midButton,Ishi_mouse.rightButton,Ishi_mouse.clicked_name,Ishi_loop.thisRepN,Ishi_loop.thisTrialN,Ishi_loop.thisN,Ishi_loop.thisIndex,Ishi_loop.ran,imageaddress,textbox.text,mouse_4.x,mouse_4.y,mouse_4.leftButton,mouse_4.midButton,mouse_4.rightButton,mouse_4.clicked_name,textbox_2.text,mouse_8.x,mouse_8.y,mouse_8.leftButton,mouse_8.midButton,mouse_8.rightButton,mouse_8.clicked_name,textbox_3.text,mouse_9.x,mouse_9.y,mouse_9.leftButton,mouse_9.midButton,mouse_9.rightButton,mouse_9.clicked_name,textbox_4.text,mouse_12.x,mouse_12.y,mouse_12.leftButton,mouse_12.midButton,mouse_12.rightButton,mouse_12.clicked_name,textbox_5.text,mouse_13.x,mouse_13.y,mouse_13.leftButton,mouse_13.midButton,mouse_13.rightButton,mouse_13.clicked_name,textbox_6.text,mouse_14.x,mouse_14.y,mouse_14.leftButton,mouse_14.midButton,mouse_14.rightButton,mouse_14.clicked_name,textbox_7.text,mouse_15.x,mouse_15.y,mouse_15.leftButton,mouse_15.midButton,mouse_15.rightButton,mouse_15.clicked_name
0,0,0,23,1,,5e37fef4d8843b000aeb1b8f,62c5392c567e3751bfbb4b06,2022-07-06_09h26.47.839,Colour_Asymmetry_Pilot,2022.1.3,Win32,60.22645146,62c50e9c1127f2cd403a315f,,,,,,,,,,,,,,,,,,,,,,,,,,,,,,,,,,,,,,,,,,,,,,,,,,,,,,,,,,,,,,,,,,,,,,,,,,,,,,,,,,,,,,,,,,,,,,,,,,,,,,,,,,,,,,,,,,,,,,,,,,,,,,,,,,,,,,,,,,,,,,,,,,,,,,,,,,,,,,,,,,,
0,1,1,37,1,,5e37fef4d8843b000aeb1b8f,62c5392c567e3751bfbb4b06,2022-07-06_09h26.47.839,Colour_Asymmetry_Pilot,2022.1.3,Win32,60.22645146,62c50e9c1127f2cd403a315f,,,,,,,,,,,,,,,,,,,,,,,,,,,,,,,,,,,,,,,,,,,,,,,,,,,,,,,,,,,,,,,,,,,,,,,,,,,,,,,,,,,,,,,,,,,,,,,,,,,,,,,,,,,,,,,,,,,,,,,,,,,,,,,,,,,,,,,,,,,,,,,,,,,,,,,,,,,,,,,,,,,
0,2,2,32,1,,5e37fef4d8843b000aeb1b8f,62c5392c567e3751bfbb4b06,2022-07-06_09h26.47.839,Colour_Asymmetry_Pilot,2022.1.3,Win32,60.22645146,62c50e9c1127f2cd403a315f,,,,,,,,,,,,,,,,,,,,,,,,,,,,,,,,,,,,,,,,,,,,,,,,,,,,,,,,,,,,,,,,,,,,,,,,,,,,,,,,,,,,,,,,,,,,,,,,,,,,,,,,,,,,,,,,,,,,,,,,,,,,,,,,,,,,,,,,,,,,,,,,,,,,,,,,,,,,,,,,,,,
0,3,3,61,1,,5e37fef4d8843b000aeb1b8f,62c5392c567e3751bfbb4b06,2022-07-06_09h26.47.839,Colour_Asymmetry_Pilot,2022.1.3,Win32,60.22645146,62c50e9c1127f2cd403a315f,,,,,,,,,,,,,,,,,,,,,,,,,,,,,,,,,,,,,,,,,,,,,,,,,,,,,,,,,,,,,,,,,,,,,,,,,,,,,,,,,,,,,,,,,,,,,,,,,,,,,,,,,,,,,,,,,,,,,,,,,,,,,,,,,,,,,,,,,,,,,,,,,,,,,,,,,,,,,,,,,,,
0,4,4,45,1,,5e37fef4d8843b000aeb1b8f,62c5392c567e3751bfbb4b06,2022-07-06_09h26.47.839,Colour_Asymmetry_Pilot,2022.1.3,Win32,60.22645146,62c50e9c1127f2cd403a315f,,,,,,,,,,,,,,,,,,,,,,,,,,,,,,,,,,,,,,,,,,,,,,,,,,,,,,,,,,,,,,,,,,,,,,,,,,,,,,,,,,,,,,,,,,,,,,,,,,,,,,,,,,,,,,,,,,,,,,,,,,,,,,,,,,,,,,,,,,,,,,,,,,,,,,,,,,,,,,,,,,,
0,5,5,87,1,,5e37fef4d8843b000aeb1b8f,62c5392c567e3751bfbb4b06,2022-07-06_09h26.47.839,Colour_Asymmetry_Pilot,2022.1.3,Win32,60.22645146,62c50e9c1127f2cd403a315f,,,,,,,,,,,,,,,,,,,,,,,,,,,,,,,,,,,,,,,,,,,,,,,,,,,,,,,,,,,,,,,,,,,,,,,,,,,,,,,,,,,,,,,,,,,,,,,,,,,,,,,,,,,,,,,,,,,,,,,,,,,,,,,,,,,,,,,,,,,,,,,,,,,,,,,,,,,,,,,,,,,
0,6,6,71,1,,5e37fef4d8843b000aeb1b8f,62c5392c567e3751bfbb4b06,2022-07-06_09h26.47.839,Colour_Asymmetry_Pilot,2022.1.3,Win32,60.22645146,62c50e9c1127f2cd403a315f,,,,,,,,,,,,,,,,,,,,,,,,,,,,,,,,,,,,,,,,,,,,,,,,,,,,,,,,,,,,,,,,,,,,,,,,,,,,,,,,,,,,,,,,,,,,,,,,,,,,,,,,,,,,,,,,,,,,,,,,,,,,,,,,,,,,,,,,,,,,,,,,,,,,,,,,,,,,,,,,,,,
0,7,7,9,1,,5e37fef4d8843b000aeb1b8f,62c5392c567e3751bfbb4b06,2022-07-06_09h26.47.839,Colour_Asymmetry_Pilot,2022.1.3,Win32,60.22645146,62c50e9c1127f2cd403a315f,,,,,,,,,,,,,,,,,,,,,,,,,,,,,,,,,,,,,,,,,,,,,,,,,,,,,,,,,,,,,,,,,,,,,,,,,,,,,,,,,,,,,,,,,,,,,,,,,,,,,,,,,,,,,,,,,,,,,,,,,,,,,,,,,,,,,,,,,,,,,,,,,,,,,,,,,,,,,,,,,,,
0,8,8,59,1,,5e37fef4d8843b000aeb1b8f,62c5392c567e3751bfbb4b06,2022-07-06_09h26.47.839,Colour_Asymmetry_Pilot,2022.1.3,Win32,60.22645146,62c50e9c1127f2cd403a315f,,,,,,,,,,,,,,,,,,,,,,,,,,,,,,,,,,,,,,,,,,,,,,,,,,,,,,,,,,,,,,,,,,,,,,,,,,,,,,,,,,,,,,,,,,,,,,,,,,,,,,,,,,,,,,,,,,,,,,,,,,,,,,,,,,,,,,,,,,,,,,,,,,,,,,,,,,,,,,,,,,,
0,9,9,76,1,,5e37fef4d8843b000aeb1b8f,62c5392c567e3751bfbb4b06,2022-07-06_09h26.47.839,Colour_Asymmetry_Pilot,2022.1.3,Win32,60.22645146,62c50e9c1127f2cd403a315f,,,,,,,,,,,,,,,,,,,,,,,,,,,,,,,,,,,,,,,,,,,,,,,,,,,,,,,,,,,,,,,,,,,,,,,,,,,,,,,,,,,,,,,,,,,,,,,,,,,,,,,,,,,,,,,,,,,,,,,,,,,,,,,,,,,,,,,,,,,,,,,,,,,,,,,,,,,,,,,,,,,
0,10,10,50,1,,5e37fef4d8843b000aeb1b8f,62c5392c567e3751bfbb4b06,2022-07-06_09h26.47.839,Colour_Asymmetry_Pilot,2022.1.3,Win32,60.22645146,62c50e9c1127f2cd403a315f,,,,,,,,,,,,,,,,,,,,,,,,,,,,,,,,,,,,,,,,,,,,,,,,,,,,,,,,,,,,,,,,,,,,,,,,,,,,,,,,,,,,,,,,,,,,,,,,,,,,,,,,,,,,,,,,,,,,,,,,,,,,,,,,,,,,,,,,,,,,,,,,,,,,,,,,,,,,,,,,,,,
0,11,11,31,1,,5e37fef4d8843b000aeb1b8f,62c5392c567e3751bfbb4b06,2022-07-06_09h26.47.839,Colour_Asymmetry_Pilot,2022.1.3,Win32,60.22645146,62c50e9c1127f2cd403a315f,,,,,,,,,,,,,,,,,,,,,,,,,,,,,,,,,,,,,,,,,,,,,,,,,,,,,,,,,,,,,,,,,,,,,,,,,,,,,,,,,,,,,,,,,,,,,,,,,,,,,,,,,,,,,,,,,,,,,,,,,,,,,,,,,,,,,,,,,,,,,,,,,,,,,,,,,,,,,,,,,,,
0,12,12,28,1,,5e37fef4d8843b000aeb1b8f,62c5392c567e3751bfbb4b06,2022-07-06_09h26.47.839,Colour_Asymmetry_Pilot,2022.1.3,Win32,60.22645146,62c50e9c1127f2cd403a315f,,,,,,,,,,,,,,,,,,,,,,,,,,,,,,,,,,,,,,,,,,,,,,,,,,,,,,,,,,,,,,,,,,,,,,,,,,,,,,,,,,,,,,,,,,,,,,,,,,,,,,,,,,,,,,,,,,,,,,,,,,,,,,,,,,,,,,,,,,,,,,,,,,,,,,,,,,,,,,,,,,,
0,13,13,17,1,,5e37fef4d8843b000aeb1b8f,62c5392c567e3751bfbb4b06,2022-07-06_09h26.47.839,Colour_Asymmetry_Pilot,2022.1.3,Win32,60.22645146,62c50e9c1127f2cd403a315f,,,,,,,,,,,,,,,,,,,,,,,,,,,,,,,,,,,,,,,,,,,,,,,,,,,,,,,,,,,,,,,,,,,,,,,,,,,,,,,,,,,,,,,,,,,,,,,,,,,,,,,,,,,,,,,,,,,,,,,,,,,,,,,,,,,,,,,,,,,,,,,,,,,,,,,,,,,,,,,,,,,
0,14,14,89,1,,5e37fef4d8843b000aeb1b8f,62c5392c567e3751bfbb4b06,2022-07-06_09h26.47.839,Colour_Asymmetry_Pilot,2022.1.3,Win32,60.22645146,62c50e9c1127f2cd403a315f,,,,,,,,,,,,,,,,,,,,,,,,,,,,,,,,,,,,,,,,,,,,,,,,,,,,,,,,,,,,,,,,,,,,,,,,,,,,,,,,,,,,,,,,,,,,,,,,,,,,,,,,,,,,,,,,,,,,,,,,,,,,,,,,,,,,,,,,,,,,,,,,,,,,,,,,,,,,,,,,,,,
0,15,15,56,1,,5e37fef4d8843b000aeb1b8f,62c5392c567e3751bfbb4b06,2022-07-06_09h26.47.839,Colour_Asymmetry_Pilot,2022.1.3,Win32,60.22645146,62c50e9c1127f2cd403a315f,,,,,,,,,,,,,,,,,,,,,,,,,,,,,,,,,,,,,,,,,,,,,,,,,,,,,,,,,,,,,,,,,,,,,,,,,,,,,,,,,,,,,,,,,,,,,,,,,,,,,,,,,,,,,,,,,,,,,,,,,,,,,,,,,,,,,,,,,,,,,,,,,,,,,,,,,,,,,,,,,,,
0,16,16,88,1,,5e37fef4d8843b000aeb1b8f,62c5392c567e3751bfbb4b06,2022-07-06_09h26.47.839,Colour_Asymmetry_Pilot,2022.1.3,Win32,60.22645146,62c50e9c1127f2cd403a315f,,,,,,,,,,,,,,,,,,,,,,,,,,,,,,,,,,,,,,,,,,,,,,,,,,,,,,,,,,,,,,,,,,,,,,,,,,,,,,,,,,,,,,,,,,,,,,,,,,,,,,,,,,,,,,,,,,,,,,,,,,,,,,,,,,,,,,,,,,,,,,,,,,,,,,,,,,,,,,,,,,,
0,17,17,15,1,,5e37fef4d8843b000aeb1b8f,62c5392c567e3751bfbb4b06,2022-07-06_09h26.47.839,Colour_Asymmetry_Pilot,2022.1.3,Win32,60.22645146,62c50e9c1127f2cd403a315f,,,,,,,,,,,,,,,,,,,,,,,,,,,,,,,,,,,,,,,,,,,,,,,,,,,,,,,,,,,,,,,,,,,,,,,,,,,,,,,,,,,,,,,,,,,,,,,,,,,,,,,,,,,,,,,,,,,,,,,,,,,,,,,,,,,,,,,,,,,,,,,,,,,,,,,,,,,,,,,,,,,
0,18,18,35,1,,5e37fef4d8843b000aeb1b8f,62c5392c567e3751bfbb4b06,2022-07-06_09h26.47.839,Colour_Asymmetry_Pilot,2022.1.3,Win32,60.22645146,62c50e9c1127f2cd403a315f,,,,,,,,,,,,,,,,,,,,,,,,,,,,,,,,,,,,,,,,,,,,,,,,,,,,,,,,,,,,,,,,,,,,,,,,,,,,,,,,,,,,,,,,,,,,,,,,,,,,,,,,,,,,,,,,,,,,,,,,,,,,,,,,,,,,,,,,,,,,,,,,,,,,,,,,,,,,,,,,,,,
0,19,19,60,1,,5e37fef4d8843b000aeb1b8f,62c5392c567e3751bfbb4b06,2022-07-06_09h26.47.839,Colour_Asymmetry_Pilot,2022.1.3,Win32,60.22645146,62c50e9c1127f2cd403a315f,,,,,,,,,,,,,,,,,,,,,,,,,,,,,,,,,,,,,,,,,,,,,,,,,,,,,,,,,,,,,,,,,,,,,,,,,,,,,,,,,,,,,,,,,,,,,,,,,,,,,,,,,,,,,,,,,,,,,,,,,,,,,,,,,,,,,,,,,,,,,,,,,,,,,,,,,,,,,,,,,,,
0,20,20,57,1,,5e37fef4d8843b000aeb1b8f,62c5392c567e3751bfbb4b06,2022-07-06_09h26.47.839,Colour_Asymmetry_Pilot,2022.1.3,Win32,60.22645146,62c50e9c1127f2cd403a315f,,,,,,,,,,,,,,,,,,,,,,,,,,,,,,,,,,,,,,,,,,,,,,,,,,,,,,,,,,,,,,,,,,,,,,,,,,,,,,,,,,,,,,,,,,,,,,,,,,,,,,,,,,,,,,,,,,,,,,,,,,,,,,,,,,,,,,,,,,,,,,,,,,,,,,,,,,,,,,,,,,,
0,21,21,85,1,,5e37fef4d8843b000aeb1b8f,62c5392c567e3751bfbb4b06,2022-07-06_09h26.47.839,Colour_Asymmetry_Pilot,2022.1.3,Win32,60.22645146,62c50e9c1127f2cd403a315f,,,,,,,,,,,,,,,,,,,,,,,,,,,,,,,,,,,,,,,,,,,,,,,,,,,,,,,,,,,,,,,,,,,,,,,,,,,,,,,,,,,,,,,,,,,,,,,,,,,,,,,,,,,,,,,,,,,,,,,,,,,,,,,,,,,,,,,,,,,,,,,,,,,,,,,,,,,,,,,,,,,
0,22,22,53,1,,5e37fef4d8843b000aeb1b8f,62c5392c567e3751bfbb4b06,2022-07-06_09h26.47.839,Colour_Asymmetry_Pilot,2022.1.3,Win32,60.22645146,62c50e9c1127f2cd403a315f,,,,,,,,,,,,,,,,,,,,,,,,,,,,,,,,,,,,,,,,,,,,,,,,,,,,,,,,,,,,,,,,,,,,,,,,,,,,,,,,,,,,,,,,,,,,,,,,,,,,,,,,,,,,,,,,,,,,,,,,,,,,,,,,,,,,,,,,,,,,,,,,,,,,,,,,,,,,,,,,,,,
0,23,23,49,1,,5e37fef4d8843b000aeb1b8f,62c5392c567e3751bfbb4b06,2022-07-06_09h26.47.839,Colour_Asymmetry_Pilot,2022.1.3,Win32,60.22645146,62c50e9c1127f2cd403a315f,,,,,,,,,,,,,,,,,,,,,,,,,,,,,,,,,,,,,,,,,,,,,,,,,,,,,,,,,,,,,,,,,,,,,,,,,,,,,,,,,,,,,,,,,,,,,,,,,,,,,,,,,,,,,,,,,,,,,,,,,,,,,,,,,,,,,,,,,,,,,,,,,,,,,,,,,,,,,,,,,,,
0,24,24,73,1,,5e37fef4d8843b000aeb1b8f,62c5392c567e3751bfbb4b06,2022-07-06_09h26.47.839,Colour_Asymmetry_Pilot,2022.1.3,Win32,60.22645146,62c50e9c1127f2cd403a315f,,,,,,,,,,,,,,,,,,,,,,,,,,,,,,,,,,,,,,,,,,,,,,,,,,,,,,,,,,,,,,,,,,,,,,,,,,,,,,,,,,,,,,,,,,,,,,,,,,,,,,,,,,,,,,,,,,,,,,,,,,,,,,,,,,,,,,,,,,,,,,,,,,,,,,,,,,,,,,,,,,,
0,25,25,42,1,,5e37fef4d8843b000aeb1b8f,62c5392c567e3751bfbb4b06,2022-07-06_09h26.47.839,Colour_Asymmetry_Pilot,2022.1.3,Win32,60.22645146,62c50e9c1127f2cd403a315f,,,,,,,,,,,,,,,,,,,,,,,,,,,,,,,,,,,,,,,,,,,,,,,,,,,,,,,,,,,,,,,,,,,,,,,,,,,,,,,,,,,,,,,,,,,,,,,,,,,,,,,,,,,,,,,,,,,,,,,,,,,,,,,,,,,,,,,,,,,,,,,,,,,,,,,,,,,,,,,,,,,
0,26,26,36,1,,5e37fef4d8843b000aeb1b8f,62c5392c567e3751bfbb4b06,2022-07-06_09h26.47.839,Colour_Asymmetry_Pilot,2022.1.3,Win32,60.22645146,62c50e9c1127f2cd403a315f,,,,,,,,,,,,,,,,,,,,,,,,,,,,,,,,,,,,,,,,,,,,,,,,,,,,,,,,,,,,,,,,,,,,,,,,,,,,,,,,,,,,,,,,,,,,,,,,,,,,,,,,,,,,,,,,,,,,,,,,,,,,,,,,,,,,,,,,,,,,,,,,,,,,,,,,,,,,,,,,,,,
0,27,27,22,1,,5e37fef4d8843b000aeb1b8f,62c5392c567e3751bfbb4b06,2022-07-06_09h26.47.839,Colour_Asymmetry_Pilot,2022.1.3,Win32,60.22645146,62c50e9c1127f2cd403a315f,,,,,,,,,,,,,,,,,,,,,,,,,,,,,,,,,,,,,,,,,,,,,,,,,,,,,,,,,,,,,,,,,,,,,,,,,,,,,,,,,,,,,,,,,,,,,,,,,,,,,,,,,,,,,,,,,,,,,,,,,,,,,,,,,,,,,,,,,,,,,,,,,,,,,,,,,,,,,,,,,,,
0,28,28,65,1,,5e37fef4d8843b000aeb1b8f,62c5392c567e3751bfbb4b06,2022-07-06_09h26.47.839,Colour_Asymmetry_Pilot,2022.1.3,Win32,60.22645146,62c50e9c1127f2cd403a315f,,,,,,,,,,,,,,,,,,,,,,,,,,,,,,,,,,,,,,,,,,,,,,,,,,,,,,,,,,,,,,,,,,,,,,,,,,,,,,,,,,,,,,,,,,,,,,,,,,,,,,,,,,,,,,,,,,,,,,,,,,,,,,,,,,,,,,,,,,,,,,,,,,,,,,,,,,,,,,,,,,,
0,29,29,84,1,,5e37fef4d8843b000aeb1b8f,62c5392c567e3751bfbb4b06,2022-07-06_09h26.47.839,Colour_Asymmetry_Pilot,2022.1.3,Win32,60.22645146,62c50e9c1127f2cd403a315f,,,,,,,,,,,,,,,,,,,,,,,,,,,,,,,,,,,,,,,,,,,,,,,,,,,,,,,,,,,,,,,,,,,,,,,,,,,,,,,,,,,,,,,,,,,,,,,,,,,,,,,,,,,,,,,,,,,,,,,,,,,,,,,,,,,,,,,,,,,,,,,,,,,,,,,,,,,,,,,,,,,
0,30,30,16,1,,5e37fef4d8843b000aeb1b8f,62c5392c567e3751bfbb4b06,2022-07-06_09h26.47.839,Colour_Asymmetry_Pilot,2022.1.3,Win32,60.22645146,62c50e9c1127f2cd403a315f,,,,,,,,,,,,,,,,,,,,,,,,,,,,,,,,,,,,,,,,,,,,,,,,,,,,,,,,,,,,,,,,,,,,,,,,,,,,,,,,,,,,,,,,,,,,,,,,,,,,,,,,,,,,,,,,,,,,,,,,,,,,,,,,,,,,,,,,,,,,,,,,,,,,,,,,,,,,,,,,,,,
0,31,31,30,1,,5e37fef4d8843b000aeb1b8f,62c5392c567e3751bfbb4b06,2022-07-06_09h26.47.839,Colour_Asymmetry_Pilot,2022.1.3,Win32,60.22645146,62c50e9c1127f2cd403a315f,,,,,,,,,,,,,,,,,,,,,,,,,,,,,,,,,,,,,,,,,,,,,,,,,,,,,,,,,,,,,,,,,,,,,,,,,,,,,,,,,,,,,,,,,,,,,,,,,,,,,,,,,,,,,,,,,,,,,,,,,,,,,,,,,,,,,,,,,,,,,,,,,,,,,,,,,,,,,,,,,,,
0,32,32,83,1,,5e37fef4d8843b000aeb1b8f,62c5392c567e3751bfbb4b06,2022-07-06_09h26.47.839,Colour_Asymmetry_Pilot,2022.1.3,Win32,60.22645146,62c50e9c1127f2cd403a315f,,,,,,,,,,,,,,,,,,,,,,,,,,,,,,,,,,,,,,,,,,,,,,,,,,,,,,,,,,,,,,,,,,,,,,,,,,,,,,,,,,,,,,,,,,,,,,,,,,,,,,,,,,,,,,,,,,,,,,,,,,,,,,,,,,,,,,,,,,,,,,,,,,,,,,,,,,,,,,,,,,,
0,33,33,24,1,,5e37fef4d8843b000aeb1b8f,62c5392c567e3751bfbb4b06,2022-07-06_09h26.47.839,Colour_Asymmetry_Pilot,2022.1.3,Win32,60.22645146,62c50e9c1127f2cd403a315f,,,,,,,,,,,,,,,,,,,,,,,,,,,,,,,,,,,,,,,,,,,,,,,,,,,,,,,,,,,,,,,,,,,,,,,,,,,,,,,,,,,,,,,,,,,,,,,,,,,,,,,,,,,,,,,,,,,,,,,,,,,,,,,,,,,,,,,,,,,,,,,,,,,,,,,,,,,,,,,,,,,
0,34,34,51,1,,5e37fef4d8843b000aeb1b8f,62c5392c567e3751bfbb4b06,2022-07-06_09h26.47.839,Colour_Asymmetry_Pilot,2022.1.3,Win32,60.22645146,62c50e9c1127f2cd403a315f,,,,,,,,,,,,,,,,,,,,,,,,,,,,,,,,,,,,,,,,,,,,,,,,,,,,,,,,,,,,,,,,,,,,,,,,,,,,,,,,,,,,,,,,,,,,,,,,,,,,,,,,,,,,,,,,,,,,,,,,,,,,,,,,,,,,,,,,,,,,,,,,,,,,,,,,,,,,,,,,,,,
0,35,35,11,1,,5e37fef4d8843b000aeb1b8f,62c5392c567e3751bfbb4b06,2022-07-06_09h26.47.839,Colour_Asymmetry_Pilot,2022.1.3,Win32,60.22645146,62c50e9c1127f2cd403a315f,,,,,,,,,,,,,,,,,,,,,,,,,,,,,,,,,,,,,,,,,,,,,,,,,,,,,,,,,,,,,,,,,,,,,,,,,,,,,,,,,,,,,,,,,,,,,,,,,,,,,,,,,,,,,,,,,,,,,,,,,,,,,,,,,,,,,,,,,,,,,,,,,,,,,,,,,,,,,,,,,,,
0,36,36,12,1,,5e37fef4d8843b000aeb1b8f,62c5392c567e3751bfbb4b06,2022-07-06_09h26.47.839,Colour_Asymmetry_Pilot,2022.1.3,Win32,60.22645146,62c50e9c1127f2cd403a315f,,,,,,,,,,,,,,,,,,,,,,,,,,,,,,,,,,,,,,,,,,,,,,,,,,,,,,,,,,,,,,,,,,,,,,,,,,,,,,,,,,,,,,,,,,,,,,,,,,,,,,,,,,,,,,,,,,,,,,,,,,,,,,,,,,,,,,,,,,,,,,,,,,,,,,,,,,,,,,,,,,,
0,37,37,38,1,,5e37fef4d8843b000aeb1b8f,62c5392c567e3751bfbb4b06,2022-07-06_09h26.47.839,Colour_Asymmetry_Pilot,2022.1.3,Win32,60.22645146,62c50e9c1127f2cd403a315f,,,,,,,,,,,,,,,,,,,,,,,,,,,,,,,,,,,,,,,,,,,,,,,,,,,,,,,,,,,,,,,,,,,,,,,,,,,,,,,,,,,,,,,,,,,,,,,,,,,,,,,,,,,,,,,,,,,,,,,,,,,,,,,,,,,,,,,,,,,,,,,,,,,,,,,,,,,,,,,,,,,
0,38,38,63,1,,5e37fef4d8843b000aeb1b8f,62c5392c567e3751bfbb4b06,2022-07-06_09h26.47.839,Colour_Asymmetry_Pilot,2022.1.3,Win32,60.22645146,62c50e9c1127f2cd403a315f,,,,,,,,,,,,,,,,,,,,,,,,,,,,,,,,,,,,,,,,,,,,,,,,,,,,,,,,,,,,,,,,,,,,,,,,,,,,,,,,,,,,,,,,,,,,,,,,,,,,,,,,,,,,,,,,,,,,,,,,,,,,,,,,,,,,,,,,,,,,,,,,,,,,,,,,,,,,,,,,,,,
0,39,39,40,1,,5e37fef4d8843b000aeb1b8f,62c5392c567e3751bfbb4b06,2022-07-06_09h26.47.839,Colour_Asymmetry_Pilot,2022.1.3,Win32,60.22645146,62c50e9c1127f2cd403a315f,,,,,,,,,,,,,,,,,,,,,,,,,,,,,,,,,,,,,,,,,,,,,,,,,,,,,,,,,,,,,,,,,,,,,,,,,,,,,,,,,,,,,,,,,,,,,,,,,,,,,,,,,,,,,,,,,,,,,,,,,,,,,,,,,,,,,,,,,,,,,,,,,,,,,,,,,,,,,,,,,,,
0,40,40,69,1,,5e37fef4d8843b000aeb1b8f,62c5392c567e3751bfbb4b06,2022-07-06_09h26.47.839,Colour_Asymmetry_Pilot,2022.1.3,Win32,60.22645146,62c50e9c1127f2cd403a315f,,,,,,,,,,,,,,,,,,,,,,,,,,,,,,,,,,,,,,,,,,,,,,,,,,,,,,,,,,,,,,,,,,,,,,,,,,,,,,,,,,,,,,,,,,,,,,,,,,,,,,,,,,,,,,,,,,,,,,,,,,,,,,,,,,,,,,,,,,,,,,,,,,,,,,,,,,,,,,,,,,,
0,41,41,75,1,,5e37fef4d8843b000aeb1b8f,62c5392c567e3751bfbb4b06,2022-07-06_09h26.47.839,Colour_Asymmetry_Pilot,2022.1.3,Win32,60.22645146,62c50e9c1127f2cd403a315f,,,,,,,,,,,,,,,,,,,,,,,,,,,,,,,,,,,,,,,,,,,,,,,,,,,,,,,,,,,,,,,,,,,,,,,,,,,,,,,,,,,,,,,,,,,,,,,,,,,,,,,,,,,,,,,,,,,,,,,,,,,,,,,,,,,,,,,,,,,,,,,,,,,,,,,,,,,,,,,,,,,
0,42,42,5,1,,5e37fef4d8843b000aeb1b8f,62c5392c567e3751bfbb4b06,2022-07-06_09h26.47.839,Colour_Asymmetry_Pilot,2022.1.3,Win32,60.22645146,62c50e9c1127f2cd403a315f,,,,,,,,,,,,,,,,,,,,,,,,,,,,,,,,,,,,,,,,,,,,,,,,,,,,,,,,,,,,,,,,,,,,,,,,,,,,,,,,,,,,,,,,,,,,,,,,,,,,,,,,,,,,,,,,,,,,,,,,,,,,,,,,,,,,,,,,,,,,,,,,,,,,,,,,,,,,,,,,,,,
0,43,43,90,1,,5e37fef4d8843b000aeb1b8f,62c5392c567e3751bfbb4b06,2022-07-06_09h26.47.839,Colour_Asymmetry_Pilot,2022.1.3,Win32,60.22645146,62c50e9c1127f2cd403a315f,,,,,,,,,,,,,,,,,,,,,,,,,,,,,,,,,,,,,,,,,,,,,,,,,,,,,,,,,,,,,,,,,,,,,,,,,,,,,,,,,,,,,,,,,,,,,,,,,,,,,,,,,,,,,,,,,,,,,,,,,,,,,,,,,,,,,,,,,,,,,,,,,,,,,,,,,,,,,,,,,,,
0,44,44,62,1,,5e37fef4d8843b000aeb1b8f,62c5392c567e3751bfbb4b06,2022-07-06_09h26.47.839,Colour_Asymmetry_Pilot,2022.1.3,Win32,60.22645146,62c50e9c1127f2cd403a315f,,,,,,,,,,,,,,,,,,,,,,,,,,,,,,,,,,,,,,,,,,,,,,,,,,,,,,,,,,,,,,,,,,,,,,,,,,,,,,,,,,,,,,,,,,,,,,,,,,,,,,,,,,,,,,,,,,,,,,,,,,,,,,,,,,,,,,,,,,,,,,,,,,,,,,,,,,,,,,,,,,,
0,45,45,86,1,,5e37fef4d8843b000aeb1b8f,62c5392c567e3751bfbb4b06,2022-07-06_09h26.47.839,Colour_Asymmetry_Pilot,2022.1.3,Win32,60.22645146,62c50e9c1127f2cd403a315f,,,,,,,,,,,,,,,,,,,,,,,,,,,,,,,,,,,,,,,,,,,,,,,,,,,,,,,,,,,,,,,,,,,,,,,,,,,,,,,,,,,,,,,,,,,,,,,,,,,,,,,,,,,,,,,,,,,,,,,,,,,,,,,,,,,,,,,,,,,,,,,,,,,,,,,,,,,,,,,,,,,
0,46,46,34,1,,5e37fef4d8843b000aeb1b8f,62c5392c567e3751bfbb4b06,2022-07-06_09h26.47.839,Colour_Asymmetry_Pilot,2022.1.3,Win32,60.22645146,62c50e9c1127f2cd403a315f,,,,,,,,,,,,,,,,,,,,,,,,,,,,,,,,,,,,,,,,,,,,,,,,,,,,,,,,,,,,,,,,,,,,,,,,,,,,,,,,,,,,,,,,,,,,,,,,,,,,,,,,,,,,,,,,,,,,,,,,,,,,,,,,,,,,,,,,,,,,,,,,,,,,,,,,,,,,,,,,,,,
0,47,47,33,1,,5e37fef4d8843b000aeb1b8f,62c5392c567e3751bfbb4b06,2022-07-06_09h26.47.839,Colour_Asymmetry_Pilot,2022.1.3,Win32,60.22645146,62c50e9c1127f2cd403a315f,,,,,,,,,,,,,,,,,,,,,,,,,,,,,,,,,,,,,,,,,,,,,,,,,,,,,,,,,,,,,,,,,,,,,,,,,,,,,,,,,,,,,,,,,,,,,,,,,,,,,,,,,,,,,,,,,,,,,,,,,,,,,,,,,,,,,,,,,,,,,,,,,,,,,,,,,,,,,,,,,,,
0,48,48,6,1,,5e37fef4d8843b000aeb1b8f,62c5392c567e3751bfbb4b06,2022-07-06_09h26.47.839,Colour_Asymmetry_Pilot,2022.1.3,Win32,60.22645146,62c50e9c1127f2cd403a315f,,,,,,,,,,,,,,,,,,,,,,,,,,,,,,,,,,,,,,,,,,,,,,,,,,,,,,,,,,,,,,,,,,,,,,,,,,,,,,,,,,,,,,,,,,,,,,,,,,,,,,,,,,,,,,,,,,,,,,,,,,,,,,,,,,,,,,,,,,,,,,,,,,,,,,,,,,,,,,,,,,,
0,49,49,58,1,,5e37fef4d8843b000aeb1b8f,62c5392c567e3751bfbb4b06,2022-07-06_09h26.47.839,Colour_Asymmetry_Pilot,2022.1.3,Win32,60.22645146,62c50e9c1127f2cd403a315f,,,,,,,,,,,,,,,,,,,,,,,,,,,,,,,,,,,,,,,,,,,,,,,,,,,,,,,,,,,,,,,,,,,,,,,,,,,,,,,,,,,,,,,,,,,,,,,,,,,,,,,,,,,,,,,,,,,,,,,,,,,,,,,,,,,,,,,,,,,,,,,,,,,,,,,,,,,,,,,,,,,
0,50,50,19,1,,5e37fef4d8843b000aeb1b8f,62c5392c567e3751bfbb4b06,2022-07-06_09h26.47.839,Colour_Asymmetry_Pilot,2022.1.3,Win32,60.22645146,62c50e9c1127f2cd403a315f,,,,,,,,,,,,,,,,,,,,,,,,,,,,,,,,,,,,,,,,,,,,,,,,,,,,,,,,,,,,,,,,,,,,,,,,,,,,,,,,,,,,,,,,,,,,,,,,,,,,,,,,,,,,,,,,,,,,,,,,,,,,,,,,,,,,,,,,,,,,,,,,,,,,,,,,,,,,,,,,,,,
0,51,51,72,1,,5e37fef4d8843b000aeb1b8f,62c5392c567e3751bfbb4b06,2022-07-06_09h26.47.839,Colour_Asymmetry_Pilot,2022.1.3,Win32,60.22645146,62c50e9c1127f2cd403a315f,,,,,,,,,,,,,,,,,,,,,,,,,,,,,,,,,,,,,,,,,,,,,,,,,,,,,,,,,,,,,,,,,,,,,,,,,,,,,,,,,,,,,,,,,,,,,,,,,,,,,,,,,,,,,,,,,,,,,,,,,,,,,,,,,,,,,,,,,,,,,,,,,,,,,,,,,,,,,,,,,,,
0,52,52,3,1,,5e37fef4d8843b000aeb1b8f,62c5392c567e3751bfbb4b06,2022-07-06_09h26.47.839,Colour_Asymmetry_Pilot,2022.1.3,Win32,60.22645146,62c50e9c1127f2cd403a315f,,,,,,,,,,,,,,,,,,,,,,,,,,,,,,,,,,,,,,,,,,,,,,,,,,,,,,,,,,,,,,,,,,,,,,,,,,,,,,,,,,,,,,,,,,,,,,,,,,,,,,,,,,,,,,,,,,,,,,,,,,,,,,,,,,,,,,,,,,,,,,,,,,,,,,,,,,,,,,,,,,,
0,53,53,78,1,,5e37fef4d8843b000aeb1b8f,62c5392c567e3751bfbb4b06,2022-07-06_09h26.47.839,Colour_Asymmetry_Pilot,2022.1.3,Win32,60.22645146,62c50e9c1127f2cd403a315f,,,,,,,,,,,,,,,,,,,,,,,,,,,,,,,,,,,,,,,,,,,,,,,,,,,,,,,,,,,,,,,,,,,,,,,,,,,,,,,,,,,,,,,,,,,,,,,,,,,,,,,,,,,,,,,,,,,,,,,,,,,,,,,,,,,,,,,,,,,,,,,,,,,,,,,,,,,,,,,,,,,
0,54,54,27,1,,5e37fef4d8843b000aeb1b8f,62c5392c567e3751bfbb4b06,2022-07-06_09h26.47.839,Colour_Asymmetry_Pilot,2022.1.3,Win32,60.22645146,62c50e9c1127f2cd403a315f,,,,,,,,,,,,,,,,,,,,,,,,,,,,,,,,,,,,,,,,,,,,,,,,,,,,,,,,,,,,,,,,,,,,,,,,,,,,,,,,,,,,,,,,,,,,,,,,,,,,,,,,,,,,,,,,,,,,,,,,,,,,,,,,,,,,,,,,,,,,,,,,,,,,,,,,,,,,,,,,,,,
0,55,55,8,1,,5e37fef4d8843b000aeb1b8f,62c5392c567e3751bfbb4b06,2022-07-06_09h26.47.839,Colour_Asymmetry_Pilot,2022.1.3,Win32,60.22645146,62c50e9c1127f2cd403a315f,,,,,,,,,,,,,,,,,,,,,,,,,,,,,,,,,,,,,,,,,,,,,,,,,,,,,,,,,,,,,,,,,,,,,,,,,,,,,,,,,,,,,,,,,,,,,,,,,,,,,,,,,,,,,,,,,,,,,,,,,,,,,,,,,,,,,,,,,,,,,,,,,,,,,,,,,,,,,,,,,,,
0,56,56,70,1,,5e37fef4d8843b000aeb1b8f,62c5392c567e3751bfbb4b06,2022-07-06_09h26.47.839,Colour_Asymmetry_Pilot,2022.1.3,Win32,60.22645146,62c50e9c1127f2cd403a315f,,,,,,,,,,,,,,,,,,,,,,,,,,,,,,,,,,,,,,,,,,,,,,,,,,,,,,,,,,,,,,,,,,,,,,,,,,,,,,,,,,,,,,,,,,,,,,,,,,,,,,,,,,,,,,,,,,,,,,,,,,,,,,,,,,,,,,,,,,,,,,,,,,,,,,,,,,,,,,,,,,,
0,57,57,20,1,,5e37fef4d8843b000aeb1b8f,62c5392c567e3751bfbb4b06,2022-07-06_09h26.47.839,Colour_Asymmetry_Pilot,2022.1.3,Win32,60.22645146,62c50e9c1127f2cd403a315f,,,,,,,,,,,,,,,,,,,,,,,,,,,,,,,,,,,,,,,,,,,,,,,,,,,,,,,,,,,,,,,,,,,,,,,,,,,,,,,,,,,,,,,,,,,,,,,,,,,,,,,,,,,,,,,,,,,,,,,,,,,,,,,,,,,,,,,,,,,,,,,,,,,,,,,,,,,,,,,,,,,
0,58,58,21,1,,5e37fef4d8843b000aeb1b8f,62c5392c567e3751bfbb4b06,2022-07-06_09h26.47.839,Colour_Asymmetry_Pilot,2022.1.3,Win32,60.22645146,62c50e9c1127f2cd403a315f,,,,,,,,,,,,,,,,,,,,,,,,,,,,,,,,,,,,,,,,,,,,,,,,,,,,,,,,,,,,,,,,,,,,,,,,,,,,,,,,,,,,,,,,,,,,,,,,,,,,,,,,,,,,,,,,,,,,,,,,,,,,,,,,,,,,,,,,,,,,,,,,,,,,,,,,,,,,,,,,,,,
0,59,59,47,1,,5e37fef4d8843b000aeb1b8f,62c5392c567e3751bfbb4b06,2022-07-06_09h26.47.839,Colour_Asymmetry_Pilot,2022.1.3,Win32,60.22645146,62c50e9c1127f2cd403a315f,,,,,,,,,,,,,,,,,,,,,,,,,,,,,,,,,,,,,,,,,,,,,,,,,,,,,,,,,,,,,,,,,,,,,,,,,,,,,,,,,,,,,,,,,,,,,,,,,,,,,,,,,,,,,,,,,,,,,,,,,,,,,,,,,,,,,,,,,,,,,,,,,,,,,,,,,,,,,,,,,,,
0,60,60,44,1,,5e37fef4d8843b000aeb1b8f,62c5392c567e3751bfbb4b06,2022-07-06_09h26.47.839,Colour_Asymmetry_Pilot,2022.1.3,Win32,60.22645146,62c50e9c1127f2cd403a315f,,,,,,,,,,,,,,,,,,,,,,,,,,,,,,,,,,,,,,,,,,,,,,,,,,,,,,,,,,,,,,,,,,,,,,,,,,,,,,,,,,,,,,,,,,,,,,,,,,,,,,,,,,,,,,,,,,,,,,,,,,,,,,,,,,,,,,,,,,,,,,,,,,,,,,,,,,,,,,,,,,,
0,61,61,46,1,,5e37fef4d8843b000aeb1b8f,62c5392c567e3751bfbb4b06,2022-07-06_09h26.47.839,Colour_Asymmetry_Pilot,2022.1.3,Win32,60.22645146,62c50e9c1127f2cd403a315f,,,,,,,,,,,,,,,,,,,,,,,,,,,,,,,,,,,,,,,,,,,,,,,,,,,,,,,,,,,,,,,,,,,,,,,,,,,,,,,,,,,,,,,,,,,,,,,,,,,,,,,,,,,,,,,,,,,,,,,,,,,,,,,,,,,,,,,,,,,,,,,,,,,,,,,,,,,,,,,,,,,
0,62,62,54,1,,5e37fef4d8843b000aeb1b8f,62c5392c567e3751bfbb4b06,2022-07-06_09h26.47.839,Colour_Asymmetry_Pilot,2022.1.3,Win32,60.22645146,62c50e9c1127f2cd403a315f,,,,,,,,,,,,,,,,,,,,,,,,,,,,,,,,,,,,,,,,,,,,,,,,,,,,,,,,,,,,,,,,,,,,,,,,,,,,,,,,,,,,,,,,,,,,,,,,,,,,,,,,,,,,,,,,,,,,,,,,,,,,,,,,,,,,,,,,,,,,,,,,,,,,,,,,,,,,,,,,,,,
0,63,63,92,1,,5e37fef4d8843b000aeb1b8f,62c5392c567e3751bfbb4b06,2022-07-06_09h26.47.839,Colour_Asymmetry_Pilot,2022.1.3,Win32,60.22645146,62c50e9c1127f2cd403a315f,,,,,,,,,,,,,,,,,,,,,,,,,,,,,,,,,,,,,,,,,,,,,,,,,,,,,,,,,,,,,,,,,,,,,,,,,,,,,,,,,,,,,,,,,,,,,,,,,,,,,,,,,,,,,,,,,,,,,,,,,,,,,,,,,,,,,,,,,,,,,,,,,,,,,,,,,,,,,,,,,,,
0,64,64,80,1,,5e37fef4d8843b000aeb1b8f,62c5392c567e3751bfbb4b06,2022-07-06_09h26.47.839,Colour_Asymmetry_Pilot,2022.1.3,Win32,60.22645146,62c50e9c1127f2cd403a315f,,,,,,,,,,,,,,,,,,,,,,,,,,,,,,,,,,,,,,,,,,,,,,,,,,,,,,,,,,,,,,,,,,,,,,,,,,,,,,,,,,,,,,,,,,,,,,,,,,,,,,,,,,,,,,,,,,,,,,,,,,,,,,,,,,,,,,,,,,,,,,,,,,,,,,,,,,,,,,,,,,,
0,65,65,74,1,,5e37fef4d8843b000aeb1b8f,62c5392c567e3751bfbb4b06,2022-07-06_09h26.47.839,Colour_Asymmetry_Pilot,2022.1.3,Win32,60.22645146,62c50e9c1127f2cd403a315f,,,,,,,,,,,,,,,,,,,,,,,,,,,,,,,,,,,,,,,,,,,,,,,,,,,,,,,,,,,,,,,,,,,,,,,,,,,,,,,,,,,,,,,,,,,,,,,,,,,,,,,,,,,,,,,,,,,,,,,,,,,,,,,,,,,,,,,,,,,,,,,,,,,,,,,,,,,,,,,,,,,
0,66,66,43,1,,5e37fef4d8843b000aeb1b8f,62c5392c567e3751bfbb4b06,2022-07-06_09h26.47.839,Colour_Asymmetry_Pilot,2022.1.3,Win32,60.22645146,62c50e9c1127f2cd403a315f,,,,,,,,,,,,,,,,,,,,,,,,,,,,,,,,,,,,,,,,,,,,,,,,,,,,,,,,,,,,,,,,,,,,,,,,,,,,,,,,,,,,,,,,,,,,,,,,,,,,,,,,,,,,,,,,,,,,,,,,,,,,,,,,,,,,,,,,,,,,,,,,,,,,,,,,,,,,,,,,,,,
0,67,67,52,1,,5e37fef4d8843b000aeb1b8f,62c5392c567e3751bfbb4b06,2022-07-06_09h26.47.839,Colour_Asymmetry_Pilot,2022.1.3,Win32,60.22645146,62c50e9c1127f2cd403a315f,,,,,,,,,,,,,,,,,,,,,,,,,,,,,,,,,,,,,,,,,,,,,,,,,,,,,,,,,,,,,,,,,,,,,,,,,,,,,,,,,,,,,,,,,,,,,,,,,,,,,,,,,,,,,,,,,,,,,,,,,,,,,,,,,,,,,,,,,,,,,,,,,,,,,,,,,,,,,,,,,,,
0,68,68,41,1,,5e37fef4d8843b000aeb1b8f,62c5392c567e3751bfbb4b06,2022-07-06_09h26.47.839,Colour_Asymmetry_Pilot,2022.1.3,Win32,60.22645146,62c50e9c1127f2cd403a315f,,,,,,,,,,,,,,,,,,,,,,,,,,,,,,,,,,,,,,,,,,,,,,,,,,,,,,,,,,,,,,,,,,,,,,,,,,,,,,,,,,,,,,,,,,,,,,,,,,,,,,,,,,,,,,,,,,,,,,,,,,,,,,,,,,,,,,,,,,,,,,,,,,,,,,,,,,,,,,,,,,,
0,69,69,10,1,,5e37fef4d8843b000aeb1b8f,62c5392c567e3751bfbb4b06,2022-07-06_09h26.47.839,Colour_Asymmetry_Pilot,2022.1.3,Win32,60.22645146,62c50e9c1127f2cd403a315f,,,,,,,,,,,,,,,,,,,,,,,,,,,,,,,,,,,,,,,,,,,,,,,,,,,,,,,,,,,,,,,,,,,,,,,,,,,,,,,,,,,,,,,,,,,,,,,,,,,,,,,,,,,,,,,,,,,,,,,,,,,,,,,,,,,,,,,,,,,,,,,,,,,,,,,,,,,,,,,,,,,
0,70,70,7,1,,5e37fef4d8843b000aeb1b8f,62c5392c567e3751bfbb4b06,2022-07-06_09h26.47.839,Colour_Asymmetry_Pilot,2022.1.3,Win32,60.22645146,62c50e9c1127f2cd403a315f,,,,,,,,,,,,,,,,,,,,,,,,,,,,,,,,,,,,,,,,,,,,,,,,,,,,,,,,,,,,,,,,,,,,,,,,,,,,,,,,,,,,,,,,,,,,,,,,,,,,,,,,,,,,,,,,,,,,,,,,,,,,,,,,,,,,,,,,,,,,,,,,,,,,,,,,,,,,,,,,,,,
0,71,71,82,1,,5e37fef4d8843b000aeb1b8f,62c5392c567e3751bfbb4b06,2022-07-06_09h26.47.839,Colour_Asymmetry_Pilot,2022.1.3,Win32,60.22645146,62c50e9c1127f2cd403a315f,,,,,,,,,,,,,,,,,,,,,,,,,,,,,,,,,,,,,,,,,,,,,,,,,,,,,,,,,,,,,,,,,,,,,,,,,,,,,,,,,,,,,,,,,,,,,,,,,,,,,,,,,,,,,,,,,,,,,,,,,,,,,,,,,,,,,,,,,,,,,,,,,,,,,,,,,,,,,,,,,,,
0,72,72,77,1,,5e37fef4d8843b000aeb1b8f,62c5392c567e3751bfbb4b06,2022-07-06_09h26.47.839,Colour_Asymmetry_Pilot,2022.1.3,Win32,60.22645146,62c50e9c1127f2cd403a315f,,,,,,,,,,,,,,,,,,,,,,,,,,,,,,,,,,,,,,,,,,,,,,,,,,,,,,,,,,,,,,,,,,,,,,,,,,,,,,,,,,,,,,,,,,,,,,,,,,,,,,,,,,,,,,,,,,,,,,,,,,,,,,,,,,,,,,,,,,,,,,,,,,,,,,,,,,,,,,,,,,,
0,73,73,48,1,,5e37fef4d8843b000aeb1b8f,62c5392c567e3751bfbb4b06,2022-07-06_09h26.47.839,Colour_Asymmetry_Pilot,2022.1.3,Win32,60.22645146,62c50e9c1127f2cd403a315f,,,,,,,,,,,,,,,,,,,,,,,,,,,,,,,,,,,,,,,,,,,,,,,,,,,,,,,,,,,,,,,,,,,,,,,,,,,,,,,,,,,,,,,,,,,,,,,,,,,,,,,,,,,,,,,,,,,,,,,,,,,,,,,,,,,,,,,,,,,,,,,,,,,,,,,,,,,,,,,,,,,
0,74,74,18,1,,5e37fef4d8843b000aeb1b8f,62c5392c567e3751bfbb4b06,2022-07-06_09h26.47.839,Colour_Asymmetry_Pilot,2022.1.3,Win32,60.22645146,62c50e9c1127f2cd403a315f,,,,,,,,,,,,,,,,,,,,,,,,,,,,,,,,,,,,,,,,,,,,,,,,,,,,,,,,,,,,,,,,,,,,,,,,,,,,,,,,,,,,,,,,,,,,,,,,,,,,,,,,,,,,,,,,,,,,,,,,,,,,,,,,,,,,,,,,,,,,,,,,,,,,,,,,,,,,,,,,,,,
0,75,75,4,1,,5e37fef4d8843b000aeb1b8f,62c5392c567e3751bfbb4b06,2022-07-06_09h26.47.839,Colour_Asymmetry_Pilot,2022.1.3,Win32,60.22645146,62c50e9c1127f2cd403a315f,,,,,,,,,,,,,,,,,,,,,,,,,,,,,,,,,,,,,,,,,,,,,,,,,,,,,,,,,,,,,,,,,,,,,,,,,,,,,,,,,,,,,,,,,,,,,,,,,,,,,,,,,,,,,,,,,,,,,,,,,,,,,,,,,,,,,,,,,,,,,,,,,,,,,,,,,,,,,,,,,,,
0,76,76,39,1,,5e37fef4d8843b000aeb1b8f,62c5392c567e3751bfbb4b06,2022-07-06_09h26.47.839,Colour_Asymmetry_Pilot,2022.1.3,Win32,60.22645146,62c50e9c1127f2cd403a315f,,,,,,,,,,,,,,,,,,,,,,,,,,,,,,,,,,,,,,,,,,,,,,,,,,,,,,,,,,,,,,,,,,,,,,,,,,,,,,,,,,,,,,,,,,,,,,,,,,,,,,,,,,,,,,,,,,,,,,,,,,,,,,,,,,,,,,,,,,,,,,,,,,,,,,,,,,,,,,,,,,,
0,77,77,81,1,,5e37fef4d8843b000aeb1b8f,62c5392c567e3751bfbb4b06,2022-07-06_09h26.47.839,Colour_Asymmetry_Pilot,2022.1.3,Win32,60.22645146,62c50e9c1127f2cd403a315f,,,,,,,,,,,,,,,,,,,,,,,,,,,,,,,,,,,,,,,,,,,,,,,,,,,,,,,,,,,,,,,,,,,,,,,,,,,,,,,,,,,,,,,,,,,,,,,,,,,,,,,,,,,,,,,,,,,,,,,,,,,,,,,,,,,,,,,,,,,,,,,,,,,,,,,,,,,,,,,,,,,
0,78,78,79,1,,5e37fef4d8843b000aeb1b8f,62c5392c567e3751bfbb4b06,2022-07-06_09h26.47.839,Colour_Asymmetry_Pilot,2022.1.3,Win32,60.22645146,62c50e9c1127f2cd403a315f,,,,,,,,,,,,,,,,,,,,,,,,,,,,,,,,,,,,,,,,,,,,,,,,,,,,,,,,,,,,,,,,,,,,,,,,,,,,,,,,,,,,,,,,,,,,,,,,,,,,,,,,,,,,,,,,,,,,,,,,,,,,,,,,,,,,,,,,,,,,,,,,,,,,,,,,,,,,,,,,,,,
0,79,79,2,1,,5e37fef4d8843b000aeb1b8f,62c5392c567e3751bfbb4b06,2022-07-06_09h26.47.839,Colour_Asymmetry_Pilot,2022.1.3,Win32,60.22645146,62c50e9c1127f2cd403a315f,,,,,,,,,,,,,,,,,,,,,,,,,,,,,,,,,,,,,,,,,,,,,,,,,,,,,,,,,,,,,,,,,,,,,,,,,,,,,,,,,,,,,,,,,,,,,,,,,,,,,,,,,,,,,,,,,,,,,,,,,,,,,,,,,,,,,,,,,,,,,,,,,,,,,,,,,,,,,,,,,,,
0,80,80,55,1,,5e37fef4d8843b000aeb1b8f,62c5392c567e3751bfbb4b06,2022-07-06_09h26.47.839,Colour_Asymmetry_Pilot,2022.1.3,Win32,60.22645146,62c50e9c1127f2cd403a315f,,,,,,,,,,,,,,,,,,,,,,,,,,,,,,,,,,,,,,,,,,,,,,,,,,,,,,,,,,,,,,,,,,,,,,,,,,,,,,,,,,,,,,,,,,,,,,,,,,,,,,,,,,,,,,,,,,,,,,,,,,,,,,,,,,,,,,,,,,,,,,,,,,,,,,,,,,,,,,,,,,,
0,81,81,64,1,,5e37fef4d8843b000aeb1b8f,62c5392c567e3751bfbb4b06,2022-07-06_09h26.47.839,Colour_Asymmetry_Pilot,2022.1.3,Win32,60.22645146,62c50e9c1127f2cd403a315f,,,,,,,,,,,,,,,,,,,,,,,,,,,,,,,,,,,,,,,,,,,,,,,,,,,,,,,,,,,,,,,,,,,,,,,,,,,,,,,,,,,,,,,,,,,,,,,,,,,,,,,,,,,,,,,,,,,,,,,,,,,,,,,,,,,,,,,,,,,,,,,,,,,,,,,,,,,,,,,,,,,
0,82,82,1,1,,5e37fef4d8843b000aeb1b8f,62c5392c567e3751bfbb4b06,2022-07-06_09h26.47.839,Colour_Asymmetry_Pilot,2022.1.3,Win32,60.22645146,62c50e9c1127f2cd403a315f,,,,,,,,,,,,,,,,,,,,,,,,,,,,,,,,,,,,,,,,,,,,,,,,,,,,,,,,,,,,,,,,,,,,,,,,,,,,,,,,,,,,,,,,,,,,,,,,,,,,,,,,,,,,,,,,,,,,,,,,,,,,,,,,,,,,,,,,,,,,,,,,,,,,,,,,,,,,,,,,,,,
0,83,83,66,1,,5e37fef4d8843b000aeb1b8f,62c5392c567e3751bfbb4b06,2022-07-06_09h26.47.839,Colour_Asymmetry_Pilot,2022.1.3,Win32,60.22645146,62c50e9c1127f2cd403a315f,,,,,,,,,,,,,,,,,,,,,,,,,,,,,,,,,,,,,,,,,,,,,,,,,,,,,,,,,,,,,,,,,,,,,,,,,,,,,,,,,,,,,,,,,,,,,,,,,,,,,,,,,,,,,,,,,,,,,,,,,,,,,,,,,,,,,,,,,,,,,,,,,,,,,,,,,,,,,,,,,,,
0,84,84,13,1,,5e37fef4d8843b000aeb1b8f,62c5392c567e3751bfbb4b06,2022-07-06_09h26.47.839,Colour_Asymmetry_Pilot,2022.1.3,Win32,60.22645146,62c50e9c1127f2cd403a315f,,,,,,,,,,,,,,,,,,,,,,,,,,,,,,,,,,,,,,,,,,,,,,,,,,,,,,,,,,,,,,,,,,,,,,,,,,,,,,,,,,,,,,,,,,,,,,,,,,,,,,,,,,,,,,,,,,,,,,,,,,,,,,,,,,,,,,,,,,,,,,,,,,,,,,,,,,,,,,,,,,,
0,85,85,68,1,,5e37fef4d8843b000aeb1b8f,62c5392c567e3751bfbb4b06,2022-07-06_09h26.47.839,Colour_Asymmetry_Pilot,2022.1.3,Win32,60.22645146,62c50e9c1127f2cd403a315f,,,,,,,,,,,,,,,,,,,,,,,,,,,,,,,,,,,,,,,,,,,,,,,,,,,,,,,,,,,,,,,,,,,,,,,,,,,,,,,,,,,,,,,,,,,,,,,,,,,,,,,,,,,,,,,,,,,,,,,,,,,,,,,,,,,,,,,,,,,,,,,,,,,,,,,,,,,,,,,,,,,
0,86,86,26,1,,5e37fef4d8843b000aeb1b8f,62c5392c567e3751bfbb4b06,2022-07-06_09h26.47.839,Colour_Asymmetry_Pilot,2022.1.3,Win32,60.22645146,62c50e9c1127f2cd403a315f,,,,,,,,,,,,,,,,,,,,,,,,,,,,,,,,,,,,,,,,,,,,,,,,,,,,,,,,,,,,,,,,,,,,,,,,,,,,,,,,,,,,,,,,,,,,,,,,,,,,,,,,,,,,,,,,,,,,,,,,,,,,,,,,,,,,,,,,,,,,,,,,,,,,,,,,,,,,,,,,,,,
0,87,87,14,1,,5e37fef4d8843b000aeb1b8f,62c5392c567e3751bfbb4b06,2022-07-06_09h26.47.839,Colour_Asymmetry_Pilot,2022.1.3,Win32,60.22645146,62c50e9c1127f2cd403a315f,,,,,,,,,,,,,,,,,,,,,,,,,,,,,,,,,,,,,,,,,,,,,,,,,,,,,,,,,,,,,,,,,,,,,,,,,,,,,,,,,,,,,,,,,,,,,,,,,,,,,,,,,,,,,,,,,,,,,,,,,,,,,,,,,,,,,,,,,,,,,,,,,,,,,,,,,,,,,,,,,,,
0,88,88,25,1,,5e37fef4d8843b000aeb1b8f,62c5392c567e3751bfbb4b06,2022-07-06_09h26.47.839,Colour_Asymmetry_Pilot,2022.1.3,Win32,60.22645146,62c50e9c1127f2cd403a315f,,,,,,,,,,,,,,,,,,,,,,,,,,,,,,,,,,,,,,,,,,,,,,,,,,,,,,,,,,,,,,,,,,,,,,,,,,,,,,,,,,,,,,,,,,,,,,,,,,,,,,,,,,,,,,,,,,,,,,,,,,,,,,,,,,,,,,,,,,,,,,,,,,,,,,,,,,,,,,,,,,,
0,89,89,91,1,,5e37fef4d8843b000aeb1b8f,62c5392c567e3751bfbb4b06,2022-07-06_09h26.47.839,Colour_Asymmetry_Pilot,2022.1.3,Win32,60.22645146,62c50e9c1127f2cd403a315f,,,,,,,,,,,,,,,,,,,,,,,,,,,,,,,,,,,,,,,,,,,,,,,,,,,,,,,,,,,,,,,,,,,,,,,,,,,,,,,,,,,,,,,,,,,,,,,,,,,,,,,,,,,,,,,,,,,,,,,,,,,,,,,,,,,,,,,,,,,,,,,,,,,,,,,,,,,,,,,,,,,
0,90,90,0,1,,5e37fef4d8843b000aeb1b8f,62c5392c567e3751bfbb4b06,2022-07-06_09h26.47.839,Colour_Asymmetry_Pilot,2022.1.3,Win32,60.22645146,62c50e9c1127f2cd403a315f,,,,,,,,,,,,,,,,,,,,,,,,,,,,,,,,,,,,,,,,,,,,,,,,,,,,,,,,,,,,,,,,,,,,,,,,,,,,,,,,,,,,,,,,,,,,,,,,,,,,,,,,,,,,,,,,,,,,,,,,,,,,,,,,,,,,,,,,,,,,,,,,,,,,,,,,,,,,,,,,,,,
0,91,91,67,1,,5e37fef4d8843b000aeb1b8f,62c5392c567e3751bfbb4b06,2022-07-06_09h26.47.839,Colour_Asymmetry_Pilot,2022.1.3,Win32,60.22645146,62c50e9c1127f2cd403a315f,,,,,,,,,,,,,,,,,,,,,,,,,,,,,,,,,,,,,,,,,,,,,,,,,,,,,,,,,,,,,,,,,,,,,,,,,,,,,,,,,,,,,,,,,,,,,,,,,,,,,,,,,,,,,,,,,,,,,,,,,,,,,,,,,,,,,,,,,,,,,,,,,,,,,,,,,,,,,,,,,,,
0,92,92,29,1,,5e37fef4d8843b000aeb1b8f,62c5392c567e3751bfbb4b06,2022-07-06_09h26.47.839,Colour_Asymmetry_Pilot,2022.1.3,Win32,60.22645146,62c50e9c1127f2cd403a315f,,,,,,,,,,,,,,,,,,,,,,,,,,,,,,,,,,,,,,,,,,,,,,,,,,,,,,,,,,,,,,,,,,,,,,,,,,,,,,,,,,,,,,,,,,,,,,,,,,,,,,,,,,,,,,,,,,,,,,,,,,,,,,,,,,,,,,,,,,,,,,,,,,,,,,,,,,,,,,,,,,,
,,,,,,5e37fef4d8843b000aeb1b8f,62c5392c567e3751bfbb4b06,2022-07-06_09h26.47.839,Colour_Asymmetry_Pilot,2022.1.3,Win32,60.22645146,62c50e9c1127f2cd403a315f,0,0,0,155,1,twofour,,,,,,,,,,,,,,,,,,,,,,,,,,,,,,,,,,,,,,,,,,,,,,,,,,,,,,,,,,,,,,,,,,,,,,,,,,,,,,,,,,,,,,,,,,,,,,,,,,,,,,,,,,,,,,,,,,,,,,,,,,,,,,,,,,,,,,,,,,,,,,,,,,,,,,,,,,,,,
,,,,,,5e37fef4d8843b000aeb1b8f,62c5392c567e3751bfbb4b06,2022-07-06_09h26.47.839,Colour_Asymmetry_Pilot,2022.1.3,Win32,60.22645146,62c50e9c1127f2cd403a315f,0,1,1,10,1,twoone,,,,,,,,,,,,,,,,,,,,,,,,,,,,,,,,,,,,,,,,,,,,,,,,,,,,,,,,,,,,,,,,,,,,,,,,,,,,,,,,,,,,,,,,,,,,,,,,,,,,,,,,,,,,,,,,,,,,,,,,,,,,,,,,,,,,,,,,,,,,,,,,,,,,,,,,,,,,,
,,,,,,5e37fef4d8843b000aeb1b8f,62c5392c567e3751bfbb4b06,2022-07-06_09h26.47.839,Colour_Asymmetry_Pilot,2022.1.3,Win32,60.22645146,62c50e9c1127f2cd403a315f,0,2,2,118,1,fourtwo,,,,,,,,,,,,,,,,,,,,,,,,,,,,,,,,,,,,,,,,,,,,,,,,,,,,,,,,,,,,,,,,,,,,,,,,,,,,,,,,,,,,,,,,,,,,,,,,,,,,,,,,,,,,,,,,,,,,,,,,,,,,,,,,,,,,,,,,,,,,,,,,,,,,,,,,,,,,,
,,,,,,5e37fef4d8843b000aeb1b8f,62c5392c567e3751bfbb4b06,2022-07-06_09h26.47.839,Colour_Asymmetry_Pilot,2022.1.3,Win32,60.22645146,62c50e9c1127f2cd403a315f,0,3,3,143,1,fourthree,,,,,,,,,,,,,,,,,,,,,,,,,,,,,,,,,,,,,,,,,,,,,,,,,,,,,,,,,,,,,,,,,,,,,,,,,,,,,,,,,,,,,,,,,,,,,,,,,,,,,,,,,,,,,,,,,,,,,,,,,,,,,,,,,,,,,,,,,,,,,,,,,,,,,,,,,,,,,
,,,,,,5e37fef4d8843b000aeb1b8f,62c5392c567e3751bfbb4b06,2022-07-06_09h26.47.839,Colour_Asymmetry_Pilot,2022.1.3,Win32,60.22645146,62c50e9c1127f2cd403a315f,0,4,4,108,1,threeone,,,,,,,,,,,,,,,,,,,,,,,,,,,,,,,,,,,,,,,,,,,,,,,,,,,,,,,,,,,,,,,,,,,,,,,,,,,,,,,,,,,,,,,,,,,,,,,,,,,,,,,,,,,,,,,,,,,,,,,,,,,,,,,,,,,,,,,,,,,,,,,,,,,,,,,,,,,,,
,,,,,,5e37fef4d8843b000aeb1b8f,62c5392c567e3751bfbb4b06,2022-07-06_09h26.47.839,Colour_Asymmetry_Pilot,2022.1.3,Win32,60.22645146,62c50e9c1127f2cd403a315f,0,5,5,41,1,onethree,,,,,,,,,,,,,,,,,,,,,,,,,,,,,,,,,,,,,,,,,,,,,,,,,,,,,,,,,,,,,,,,,,,,,,,,,,,,,,,,,,,,,,,,,,,,,,,,,,,,,,,,,,,,,,,,,,,,,,,,,,,,,,,,,,,,,,,,,,,,,,,,,,,,,,,,,,,,,
,,,,,,5e37fef4d8843b000aeb1b8f,62c5392c567e3751bfbb4b06,2022-07-06_09h26.47.839,Colour_Asymmetry_Pilot,2022.1.3,Win32,60.22645146,62c50e9c1127f2cd403a315f,0,6,6,8,1,onetwo,,,,,,,,,,,,,,,,,,,,,,,,,,,,,,,,,,,,,,,,,,,,,,,,,,,,,,,,,,,,,,,,,,,,,,,,,,,,,,,,,,,,,,,,,,,,,,,,,,,,,,,,,,,,,,,,,,,,,,,,,,,,,,,,,,,,,,,,,,,,,,,,,,,,,,,,,,,,,
,,,,,,5e37fef4d8843b000aeb1b8f,62c5392c567e3751bfbb4b06,2022-07-06_09h26.47.839,Colour_Asymmetry_Pilot,2022.1.3,Win32,60.22645146,62c50e9c1127f2cd403a315f,0,7,7,1,1,onethree,,,,,,,,,,,,,,,,,,,,,,,,,,,,,,,,,,,,,,,,,,,,,,,,,,,,,,,,,,,,,,,,,,,,,,,,,,,,,,,,,,,,,,,,,,,,,,,,,,,,,,,,,,,,,,,,,,,,,,,,,,,,,,,,,,,,,,,,,,,,,,,,,,,,,,,,,,,,,
,,,,,,5e37fef4d8843b000aeb1b8f,62c5392c567e3751bfbb4b06,2022-07-06_09h26.47.839,Colour_Asymmetry_Pilot,2022.1.3,Win32,60.22645146,62c50e9c1127f2cd403a315f,0,8,8,114,1,twoone,,,,,,,,,,,,,,,,,,,,,,,,,,,,,,,,,,,,,,,,,,,,,,,,,,,,,,,,,,,,,,,,,,,,,,,,,,,,,,,,,,,,,,,,,,,,,,,,,,,,,,,,,,,,,,,,,,,,,,,,,,,,,,,,,,,,,,,,,,,,,,,,,,,,,,,,,,,,,
,,,,,,5e37fef4d8843b000aeb1b8f,62c5392c567e3751bfbb4b06,2022-07-06_09h26.47.839,Colour_Asymmetry_Pilot,2022.1.3,Win32,60.22645146,62c50e9c1127f2cd403a315f,0,9,9,89,1,onethree,,,,,,,,,,,,,,,,,,,,,,,,,,,,,,,,,,,,,,,,,,,,,,,,,,,,,,,,,,,,,,,,,,,,,,,,,,,,,,,,,,,,,,,,,,,,,,,,,,,,,,,,,,,,,,,,,,,,,,,,,,,,,,,,,,,,,,,,,,,,,,,,,,,,,,,,,,,,,
,,,,,,5e37fef4d8843b000aeb1b8f,62c5392c567e3751bfbb4b06,2022-07-06_09h26.47.839,Colour_Asymmetry_Pilot,2022.1.3,Win32,60.22645146,62c50e9c1127f2cd403a315f,0,10,10,88,1,onetwo,,,,,,,,,,,,,,,,,,,,,,,,,,,,,,,,,,,,,,,,,,,,,,,,,,,,,,,,,,,,,,,,,,,,,,,,,,,,,,,,,,,,,,,,,,,,,,,,,,,,,,,,,,,,,,,,,,,,,,,,,,,,,,,,,,,,,,,,,,,,,,,,,,,,,,,,,,,,,
,,,,,,5e37fef4d8843b000aeb1b8f,62c5392c567e3751bfbb4b06,2022-07-06_09h26.47.839,Colour_Asymmetry_Pilot,2022.1.3,Win32,60.22645146,62c50e9c1127f2cd403a315f,0,11,11,9,1,onethree,,,,,,,,,,,,,,,,,,,,,,,,,,,,,,,,,,,,,,,,,,,,,,,,,,,,,,,,,,,,,,,,,,,,,,,,,,,,,,,,,,,,,,,,,,,,,,,,,,,,,,,,,,,,,,,,,,,,,,,,,,,,,,,,,,,,,,,,,,,,,,,,,,,,,,,,,,,,,
,,,,,,5e37fef4d8843b000aeb1b8f,62c5392c567e3751bfbb4b06,2022-07-06_09h26.47.839,Colour_Asymmetry_Pilot,2022.1.3,Win32,60.22645146,62c50e9c1127f2cd403a315f,0,12,12,70,1,fourtwo,,,,,,,,,,,,,,,,,,,,,,,,,,,,,,,,,,,,,,,,,,,,,,,,,,,,,,,,,,,,,,,,,,,,,,,,,,,,,,,,,,,,,,,,,,,,,,,,,,,,,,,,,,,,,,,,,,,,,,,,,,,,,,,,,,,,,,,,,,,,,,,,,,,,,,,,,,,,,
,,,,,,5e37fef4d8843b000aeb1b8f,62c5392c567e3751bfbb4b06,2022-07-06_09h26.47.839,Colour_Asymmetry_Pilot,2022.1.3,Win32,60.22645146,62c50e9c1127f2cd403a315f,0,13,13,34,1,twoone,,,,,,,,,,,,,,,,,,,,,,,,,,,,,,,,,,,,,,,,,,,,,,,,,,,,,,,,,,,,,,,,,,,,,,,,,,,,,,,,,,,,,,,,,,,,,,,,,,,,,,,,,,,,,,,,,,,,,,,,,,,,,,,,,,,,,,,,,,,,,,,,,,,,,,,,,,,,,
,,,,,,5e37fef4d8843b000aeb1b8f,62c5392c567e3751bfbb4b06,2022-07-06_09h26.47.839,Colour_Asymmetry_Pilot,2022.1.3,Win32,60.22645146,62c50e9c1127f2cd403a315f,0,14,14,126,1,fourtwo,,,,,,,,,,,,,,,,,,,,,,,,,,,,,,,,,,,,,,,,,,,,,,,,,,,,,,,,,,,,,,,,,,,,,,,,,,,,,,,,,,,,,,,,,,,,,,,,,,,,,,,,,,,,,,,,,,,,,,,,,,,,,,,,,,,,,,,,,,,,,,,,,,,,,,,,,,,,,
,,,,,,5e37fef4d8843b000aeb1b8f,62c5392c567e3751bfbb4b06,2022-07-06_09h26.47.839,Colour_Asymmetry_Pilot,2022.1.3,Win32,60.22645146,62c50e9c1127f2cd403a315f,0,15,15,44,1,threeone,,,,,,,,,,,,,,,,,,,,,,,,,,,,,,,,,,,,,,,,,,,,,,,,,,,,,,,,,,,,,,,,,,,,,,,,,,,,,,,,,,,,,,,,,,,,,,,,,,,,,,,,,,,,,,,,,,,,,,,,,,,,,,,,,,,,,,,,,,,,,,,,,,,,,,,,,,,,,
,,,,,,5e37fef4d8843b000aeb1b8f,62c5392c567e3751bfbb4b06,2022-07-06_09h26.47.839,Colour_Asymmetry_Pilot,2022.1.3,Win32,60.22645146,62c50e9c1127f2cd403a315f,0,16,16,112,1,onetwo,,,,,,,,,,,,,,,,,,,,,,,,,,,,,,,,,,,,,,,,,,,,,,,,,,,,,,,,,,,,,,,,,,,,,,,,,,,,,,,,,,,,,,,,,,,,,,,,,,,,,,,,,,,,,,,,,,,,,,,,,,,,,,,,,,,,,,,,,,,,,,,,,,,,,,,,,,,,,
,,,,,,5e37fef4d8843b000aeb1b8f,62c5392c567e3751bfbb4b06,2022-07-06_09h26.47.839,Colour_Asymmetry_Pilot,2022.1.3,Win32,60.22645146,62c50e9c1127f2cd403a315f,0,17,17,12,1,threeone,,,,,,,,,,,,,,,,,,,,,,,,,,,,,,,,,,,,,,,,,,,,,,,,,,,,,,,,,,,,,,,,,,,,,,,,,,,,,,,,,,,,,,,,,,,,,,,,,,,,,,,,,,,,,,,,,,,,,,,,,,,,,,,,,,,,,,,,,,,,,,,,,,,,,,,,,,,,,
,,,,,,5e37fef4d8843b000aeb1b8f,62c5392c567e3751bfbb4b06,2022-07-06_09h26.47.839,Colour_Asymmetry_Pilot,2022.1.3,Win32,60.22645146,62c50e9c1127f2cd403a315f,0,18,18,83,1,twofour,,,,,,,,,,,,,,,,,,,,,,,,,,,,,,,,,,,,,,,,,,,,,,,,,,,,,,,,,,,,,,,,,,,,,,,,,,,,,,,,,,,,,,,,,,,,,,,,,,,,,,,,,,,,,,,,,,,,,,,,,,,,,,,,,,,,,,,,,,,,,,,,,,,,,,,,,,,,,
,,,,,,5e37fef4d8843b000aeb1b8f,62c5392c567e3751bfbb4b06,2022-07-06_09h26.47.839,Colour_Asymmetry_Pilot,2022.1.3,Win32,60.22645146,62c50e9c1127f2cd403a315f,0,19,19,49,1,onethree,,,,,,,,,,,,,,,,,,,,,,,,,,,,,,,,,,,,,,,,,,,,,,,,,,,,,,,,,,,,,,,,,,,,,,,,,,,,,,,,,,,,,,,,,,,,,,,,,,,,,,,,,,,,,,,,,,,,,,,,,,,,,,,,,,,,,,,,,,,,,,,,,,,,,,,,,,,,,
,,,,,,5e37fef4d8843b000aeb1b8f,62c5392c567e3751bfbb4b06,2022-07-06_09h26.47.839,Colour_Asymmetry_Pilot,2022.1.3,Win32,60.22645146,62c50e9c1127f2cd403a315f,0,20,20,99,1,twofour,,,,,,,,,,,,,,,,,,,,,,,,,,,,,,,,,,,,,,,,,,,,,,,,,,,,,,,,,,,,,,,,,,,,,,,,,,,,,,,,,,,,,,,,,,,,,,,,,,,,,,,,,,,,,,,,,,,,,,,,,,,,,,,,,,,,,,,,,,,,,,,,,,,,,,,,,,,,,
,,,,,,5e37fef4d8843b000aeb1b8f,62c5392c567e3751bfbb4b06,2022-07-06_09h26.47.839,Colour_Asymmetry_Pilot,2022.1.3,Win32,60.22645146,62c50e9c1127f2cd403a315f,0,21,21,150,1,fourtwo,,,,,,,,,,,,,,,,,,,,,,,,,,,,,,,,,,,,,,,,,,,,,,,,,,,,,,,,,,,,,,,,,,,,,,,,,,,,,,,,,,,,,,,,,,,,,,,,,,,,,,,,,,,,,,,,,,,,,,,,,,,,,,,,,,,,,,,,,,,,,,,,,,,,,,,,,,,,,
,,,,,,5e37fef4d8843b000aeb1b8f,62c5392c567e3751bfbb4b06,2022-07-06_09h26.47.839,Colour_Asymmetry_Pilot,2022.1.3,Win32,60.22645146,62c50e9c1127f2cd403a315f,0,22,22,157,1,threefour,,,,,,,,,,,,,,,,,,,,,,,,,,,,,,,,,,,,,,,,,,,,,,,,,,,,,,,,,,,,,,,,,,,,,,,,,,,,,,,,,,,,,,,,,,,,,,,,,,,,,,,,,,,,,,,,,,,,,,,,,,,,,,,,,,,,,,,,,,,,,,,,,,,,,,,,,,,,,
,,,,,,5e37fef4d8843b000aeb1b8f,62c5392c567e3751bfbb4b06,2022-07-06_09h26.47.839,Colour_Asymmetry_Pilot,2022.1.3,Win32,60.22645146,62c50e9c1127f2cd403a315f,0,23,23,63,1,fourthree,,,,,,,,,,,,,,,,,,,,,,,,,,,,,,,,,,,,,,,,,,,,,,,,,,,,,,,,,,,,,,,,,,,,,,,,,,,,,,,,,,,,,,,,,,,,,,,,,,,,,,,,,,,,,,,,,,,,,,,,,,,,,,,,,,,,,,,,,,,,,,,,,,,,,,,,,,,,,
,,,,,,5e37fef4d8843b000aeb1b8f,62c5392c567e3751bfbb4b06,2022-07-06_09h26.47.839,Colour_Asymmetry_Pilot,2022.1.3,Win32,60.22645146,62c50e9c1127f2cd403a315f,0,24,24,102,1,fourtwo,,,,,,,,,,,,,,,,,,,,,,,,,,,,,,,,,,,,,,,,,,,,,,,,,,,,,,,,,,,,,,,,,,,,,,,,,,,,,,,,,,,,,,,,,,,,,,,,,,,,,,,,,,,,,,,,,,,,,,,,,,,,,,,,,,,,,,,,,,,,,,,,,,,,,,,,,,,,,
,,,,,,5e37fef4d8843b000aeb1b8f,62c5392c567e3751bfbb4b06,2022-07-06_09h26.47.839,Colour_Asymmetry_Pilot,2022.1.3,Win32,60.22645146,62c50e9c1127f2cd403a315f,0,25,25,24,1,onetwo,,,,,,,,,,,,,,,,,,,,,,,,,,,,,,,,,,,,,,,,,,,,,,,,,,,,,,,,,,,,,,,,,,,,,,,,,,,,,,,,,,,,,,,,,,,,,,,,,,,,,,,,,,,,,,,,,,,,,,,,,,,,,,,,,,,,,,,,,,,,,,,,,,,,,,,,,,,,,
,,,,,,5e37fef4d8843b000aeb1b8f,62c5392c567e3751bfbb4b06,2022-07-06_09h26.47.839,Colour_Asymmetry_Pilot,2022.1.3,Win32,60.22645146,62c50e9c1127f2cd403a315f,0,26,26,160,1,onetwo,,,,,,,,,,,,,,,,,,,,,,,,,,,,,,,,,,,,,,,,,,,,,,,,,,,,,,,,,,,,,,,,,,,,,,,,,,,,,,,,,,,,,,,,,,,,,,,,,,,,,,,,,,,,,,,,,,,,,,,,,,,,,,,,,,,,,,,,,,,,,,,,,,,,,,,,,,,,,
,,,,,,5e37fef4d8843b000aeb1b8f,62c5392c567e3751bfbb4b06,2022-07-06_09h26.47.839,Colour_Asymmetry_Pilot,2022.1.3,Win32,60.22645146,62c50e9c1127f2cd403a315f,0,27,27,23,1,fourthree,,,,,,,,,,,,,,,,,,,,,,,,,,,,,,,,,,,,,,,,,,,,,,,,,,,,,,,,,,,,,,,,,,,,,,,,,,,,,,,,,,,,,,,,,,,,,,,,,,,,,,,,,,,,,,,,,,,,,,,,,,,,,,,,,,,,,,,,,,,,,,,,,,,,,,,,,,,,,
,,,,,,5e37fef4d8843b000aeb1b8f,62c5392c567e3751bfbb4b06,2022-07-06_09h26.47.839,Colour_Asymmetry_Pilot,2022.1.3,Win32,60.22645146,62c50e9c1127f2cd403a315f,0,28,28,29,1,threefour,,,,,,,,,,,,,,,,,,,,,,,,,,,,,,,,,,,,,,,,,,,,,,,,,,,,,,,,,,,,,,,,,,,,,,,,,,,,,,,,,,,,,,,,,,,,,,,,,,,,,,,,,,,,,,,,,,,,,,,,,,,,,,,,,,,,,,,,,,,,,,,,,,,,,,,,,,,,,
,,,,,,5e37fef4d8843b000aeb1b8f,62c5392c567e3751bfbb4b06,2022-07-06_09h26.47.839,Colour_Asymmetry_Pilot,2022.1.3,Win32,60.22645146,62c50e9c1127f2cd403a315f,0,29,29,65,1,onethree,,,,,,,,,,,,,,,,,,,,,,,,,,,,,,,,,,,,,,,,,,,,,,,,,,,,,,,,,,,,,,,,,,,,,,,,,,,,,,,,,,,,,,,,,,,,,,,,,,,,,,,,,,,,,,,,,,,,,,,,,,,,,,,,,,,,,,,,,,,,,,,,,,,,,,,,,,,,,
,,,,,,5e37fef4d8843b000aeb1b8f,62c5392c567e3751bfbb4b06,2022-07-06_09h26.47.839,Colour_Asymmetry_Pilot,2022.1.3,Win32,60.22645146,62c50e9c1127f2cd403a315f,0,30,30,134,1,fourtwo,,,,,,,,,,,,,,,,,,,,,,,,,,,,,,,,,,,,,,,,,,,,,,,,,,,,,,,,,,,,,,,,,,,,,,,,,,,,,,,,,,,,,,,,,,,,,,,,,,,,,,,,,,,,,,,,,,,,,,,,,,,,,,,,,,,,,,,,,,,,,,,,,,,,,,,,,,,,,
,,,,,,5e37fef4d8843b000aeb1b8f,62c5392c567e3751bfbb4b06,2022-07-06_09h26.47.839,Colour_Asymmetry_Pilot,2022.1.3,Win32,60.22645146,62c50e9c1127f2cd403a315f,0,31,31,0,1,onetwo,,,,,,,,,,,,,,,,,,,,,,,,,,,,,,,,,,,,,,,,,,,,,,,,,,,,,,,,,,,,,,,,,,,,,,,,,,,,,,,,,,,,,,,,,,,,,,,,,,,,,,,,,,,,,,,,,,,,,,,,,,,,,,,,,,,,,,,,,,,,,,,,,,,,,,,,,,,,,
,,,,,,5e37fef4d8843b000aeb1b8f,62c5392c567e3751bfbb4b06,2022-07-06_09h26.47.839,Colour_Asymmetry_Pilot,2022.1.3,Win32,60.22645146,62c50e9c1127f2cd403a315f,0,32,32,69,1,threefour,,,,,,,,,,,,,,,,,,,,,,,,,,,,,,,,,,,,,,,,,,,,,,,,,,,,,,,,,,,,,,,,,,,,,,,,,,,,,,,,,,,,,,,,,,,,,,,,,,,,,,,,,,,,,,,,,,,,,,,,,,,,,,,,,,,,,,,,,,,,,,,,,,,,,,,,,,,,,
,,,,,,5e37fef4d8843b000aeb1b8f,62c5392c567e3751bfbb4b06,2022-07-06_09h26.47.839,Colour_Asymmetry_Pilot,2022.1.3,Win32,60.22645146,62c50e9c1127f2cd403a315f,0,33,33,2,1,twoone,,,,,,,,,,,,,,,,,,,,,,,,,,,,,,,,,,,,,,,,,,,,,,,,,,,,,,,,,,,,,,,,,,,,,,,,,,,,,,,,,,,,,,,,,,,,,,,,,,,,,,,,,,,,,,,,,,,,,,,,,,,,,,,,,,,,,,,,,,,,,,,,,,,,,,,,,,,,,
,,,,,,5e37fef4d8843b000aeb1b8f,62c5392c567e3751bfbb4b06,2022-07-06_09h26.47.839,Colour_Asymmetry_Pilot,2022.1.3,Win32,60.22645146,62c50e9c1127f2cd403a315f,0,34,34,42,1,twoone,,,,,,,,,,,,,,,,,,,,,,,,,,,,,,,,,,,,,,,,,,,,,,,,,,,,,,,,,,,,,,,,,,,,,,,,,,,,,,,,,,,,,,,,,,,,,,,,,,,,,,,,,,,,,,,,,,,,,,,,,,,,,,,,,,,,,,,,,,,,,,,,,,,,,,,,,,,,,
,,,,,,5e37fef4d8843b000aeb1b8f,62c5392c567e3751bfbb4b06,2022-07-06_09h26.47.839,Colour_Asymmetry_Pilot,2022.1.3,Win32,60.22645146,62c50e9c1127f2cd403a315f,0,35,35,48,1,onetwo,,,,,,,,,,,,,,,,,,,,,,,,,,,,,,,,,,,,,,,,,,,,,,,,,,,,,,,,,,,,,,,,,,,,,,,,,,,,,,,,,,,,,,,,,,,,,,,,,,,,,,,,,,,,,,,,,,,,,,,,,,,,,,,,,,,,,,,,,,,,,,,,,,,,,,,,,,,,,
,,,,,,5e37fef4d8843b000aeb1b8f,62c5392c567e3751bfbb4b06,2022-07-06_09h26.47.839,Colour_Asymmetry_Pilot,2022.1.3,Win32,60.22645146,62c50e9c1127f2cd403a315f,0,36,36,45,1,threefour,,,,,,,,,,,,,,,,,,,,,,,,,,,,,,,,,,,,,,,,,,,,,,,,,,,,,,,,,,,,,,,,,,,,,,,,,,,,,,,,,,,,,,,,,,,,,,,,,,,,,,,,,,,,,,,,,,,,,,,,,,,,,,,,,,,,,,,,,,,,,,,,,,,,,,,,,,,,,
,,,,,,5e37fef4d8843b000aeb1b8f,62c5392c567e3751bfbb4b06,2022-07-06_09h26.47.839,Colour_Asymmetry_Pilot,2022.1.3,Win32,60.22645146,62c50e9c1127f2cd403a315f,0,37,37,103,1,fourthree,,,,,,,,,,,,,,,,,,,,,,,,,,,,,,,,,,,,,,,,,,,,,,,,,,,,,,,,,,,,,,,,,,,,,,,,,,,,,,,,,,,,,,,,,,,,,,,,,,,,,,,,,,,,,,,,,,,,,,,,,,,,,,,,,,,,,,,,,,,,,,,,,,,,,,,,,,,,,
,,,,,,5e37fef4d8843b000aeb1b8f,62c5392c567e3751bfbb4b06,2022-07-06_09h26.47.839,Colour_Asymmetry_Pilot,2022.1.3,Win32,60.22645146,62c50e9c1127f2cd403a315f,0,38,38,92,1,threeone,,,,,,,,,,,,,,,,,,,,,,,,,,,,,,,,,,,,,,,,,,,,,,,,,,,,,,,,,,,,,,,,,,,,,,,,,,,,,,,,,,,,,,,,,,,,,,,,,,,,,,,,,,,,,,,,,,,,,,,,,,,,,,,,,,,,,,,,,,,,,,,,,,,,,,,,,,,,,
,,,,,,5e37fef4d8843b000aeb1b8f,62c5392c567e3751bfbb4b06,2022-07-06_09h26.47.839,Colour_Asymmetry_Pilot,2022.1.3,Win32,60.22645146,62c50e9c1127f2cd403a315f,0,39,39,107,1,twofour,,,,,,,,,,,,,,,,,,,,,,,,,,,,,,,,,,,,,,,,,,,,,,,,,,,,,,,,,,,,,,,,,,,,,,,,,,,,,,,,,,,,,,,,,,,,,,,,,,,,,,,,,,,,,,,,,,,,,,,,,,,,,,,,,,,,,,,,,,,,,,,,,,,,,,,,,,,,,
,,,,,,5e37fef4d8843b000aeb1b8f,62c5392c567e3751bfbb4b06,2022-07-06_09h26.47.839,Colour_Asymmetry_Pilot,2022.1.3,Win32,60.22645146,62c50e9c1127f2cd403a315f,0,40,40,86,1,fourtwo,,,,,,,,,,,,,,,,,,,,,,,,,,,,,,,,,,,,,,,,,,,,,,,,,,,,,,,,,,,,,,,,,,,,,,,,,,,,,,,,,,,,,,,,,,,,,,,,,,,,,,,,,,,,,,,,,,,,,,,,,,,,,,,,,,,,,,,,,,,,,,,,,,,,,,,,,,,,,
,,,,,,5e37fef4d8843b000aeb1b8f,62c5392c567e3751bfbb4b06,2022-07-06_09h26.47.839,Colour_Asymmetry_Pilot,2022.1.3,Win32,60.22645146,62c50e9c1127f2cd403a315f,0,41,41,154,1,twoone,,,,,,,,,,,,,,,,,,,,,,,,,,,,,,,,,,,,,,,,,,,,,,,,,,,,,,,,,,,,,,,,,,,,,,,,,,,,,,,,,,,,,,,,,,,,,,,,,,,,,,,,,,,,,,,,,,,,,,,,,,,,,,,,,,,,,,,,,,,,,,,,,,,,,,,,,,,,,
,,,,,,5e37fef4d8843b000aeb1b8f,62c5392c567e3751bfbb4b06,2022-07-06_09h26.47.839,Colour_Asymmetry_Pilot,2022.1.3,Win32,60.22645146,62c50e9c1127f2cd403a315f,0,42,42,149,1,threefour,,,,,,,,,,,,,,,,,,,,,,,,,,,,,,,,,,,,,,,,,,,,,,,,,,,,,,,,,,,,,,,,,,,,,,,,,,,,,,,,,,,,,,,,,,,,,,,,,,,,,,,,,,,,,,,,,,,,,,,,,,,,,,,,,,,,,,,,,,,,,,,,,,,,,,,,,,,,,
,,,,,,5e37fef4d8843b000aeb1b8f,62c5392c567e3751bfbb4b06,2022-07-06_09h26.47.839,Colour_Asymmetry_Pilot,2022.1.3,Win32,60.22645146,62c50e9c1127f2cd403a315f,0,43,43,90,1,twoone,,,,,,,,,,,,,,,,,,,,,,,,,,,,,,,,,,,,,,,,,,,,,,,,,,,,,,,,,,,,,,,,,,,,,,,,,,,,,,,,,,,,,,,,,,,,,,,,,,,,,,,,,,,,,,,,,,,,,,,,,,,,,,,,,,,,,,,,,,,,,,,,,,,,,,,,,,,,,
,,,,,,5e37fef4d8843b000aeb1b8f,62c5392c567e3751bfbb4b06,2022-07-06_09h26.47.839,Colour_Asymmetry_Pilot,2022.1.3,Win32,60.22645146,62c50e9c1127f2cd403a315f,0,44,44,5,1,threefour,,,,,,,,,,,,,,,,,,,,,,,,,,,,,,,,,,,,,,,,,,,,,,,,,,,,,,,,,,,,,,,,,,,,,,,,,,,,,,,,,,,,,,,,,,,,,,,,,,,,,,,,,,,,,,,,,,,,,,,,,,,,,,,,,,,,,,,,,,,,,,,,,,,,,,,,,,,,,
,,,,,,5e37fef4d8843b000aeb1b8f,62c5392c567e3751bfbb4b06,2022-07-06_09h26.47.839,Colour_Asymmetry_Pilot,2022.1.3,Win32,60.22645146,62c50e9c1127f2cd403a315f,0,45,45,121,1,onethree,,,,,,,,,,,,,,,,,,,,,,,,,,,,,,,,,,,,,,,,,,,,,,,,,,,,,,,,,,,,,,,,,,,,,,,,,,,,,,,,,,,,,,,,,,,,,,,,,,,,,,,,,,,,,,,,,,,,,,,,,,,,,,,,,,,,,,,,,,,,,,,,,,,,,,,,,,,,,
,,,,,,5e37fef4d8843b000aeb1b8f,62c5392c567e3751bfbb4b06,2022-07-06_09h26.47.839,Colour_Asymmetry_Pilot,2022.1.3,Win32,60.22645146,62c50e9c1127f2cd403a315f,0,46,46,60,1,threeone,,,,,,,,,,,,,,,,,,,,,,,,,,,,,,,,,,,,,,,,,,,,,,,,,,,,,,,,,,,,,,,,,,,,,,,,,,,,,,,,,,,,,,,,,,,,,,,,,,,,,,,,,,,,,,,,,,,,,,,,,,,,,,,,,,,,,,,,,,,,,,,,,,,,,,,,,,,,,
,,,,,,5e37fef4d8843b000aeb1b8f,62c5392c567e3751bfbb4b06,2022-07-06_09h26.47.839,Colour_Asymmetry_Pilot,2022.1.3,Win32,60.22645146,62c50e9c1127f2cd403a315f,0,47,47,7,1,fourthree,,,,,,,,,,,,,,,,,,,,,,,,,,,,,,,,,,,,,,,,,,,,,,,,,,,,,,,,,,,,,,,,,,,,,,,,,,,,,,,,,,,,,,,,,,,,,,,,,,,,,,,,,,,,,,,,,,,,,,,,,,,,,,,,,,,,,,,,,,,,,,,,,,,,,,,,,,,,,
,,,,,,5e37fef4d8843b000aeb1b8f,62c5392c567e3751bfbb4b06,2022-07-06_09h26.47.839,Colour_Asymmetry_Pilot,2022.1.3,Win32,60.22645146,62c50e9c1127f2cd403a315f,0,48,48,91,1,twofour,,,,,,,,,,,,,,,,,,,,,,,,,,,,,,,,,,,,,,,,,,,,,,,,,,,,,,,,,,,,,,,,,,,,,,,,,,,,,,,,,,,,,,,,,,,,,,,,,,,,,,,,,,,,,,,,,,,,,,,,,,,,,,,,,,,,,,,,,,,,,,,,,,,,,,,,,,,,,
,,,,,,5e37fef4d8843b000aeb1b8f,62c5392c567e3751bfbb4b06,2022-07-06_09h26.47.839,Colour_Asymmetry_Pilot,2022.1.3,Win32,60.22645146,62c50e9c1127f2cd403a315f,0,49,49,156,1,threeone,,,,,,,,,,,,,,,,,,,,,,,,,,,,,,,,,,,,,,,,,,,,,,,,,,,,,,,,,,,,,,,,,,,,,,,,,,,,,,,,,,,,,,,,,,,,,,,,,,,,,,,,,,,,,,,,,,,,,,,,,,,,,,,,,,,,,,,,,,,,,,,,,,,,,,,,,,,,,
,,,,,,5e37fef4d8843b000aeb1b8f,62c5392c567e3751bfbb4b06,2022-07-06_09h26.47.839,Colour_Asymmetry_Pilot,2022.1.3,Win32,60.22645146,62c50e9c1127f2cd403a315f,0,50,50,148,1,threeone,,,,,,,,,,,,,,,,,,,,,,,,,,,,,,,,,,,,,,,,,,,,,,,,,,,,,,,,,,,,,,,,,,,,,,,,,,,,,,,,,,,,,,,,,,,,,,,,,,,,,,,,,,,,,,,,,,,,,,,,,,,,,,,,,,,,,,,,,,,,,,,,,,,,,,,,,,,,,
,,,,,,5e37fef4d8843b000aeb1b8f,62c5392c567e3751bfbb4b06,2022-07-06_09h26.47.839,Colour_Asymmetry_Pilot,2022.1.3,Win32,60.22645146,62c50e9c1127f2cd403a315f,0,51,51,105,1,onethree,,,,,,,,,,,,,,,,,,,,,,,,,,,,,,,,,,,,,,,,,,,,,,,,,,,,,,,,,,,,,,,,,,,,,,,,,,,,,,,,,,,,,,,,,,,,,,,,,,,,,,,,,,,,,,,,,,,,,,,,,,,,,,,,,,,,,,,,,,,,,,,,,,,,,,,,,,,,,
,,,,,,5e37fef4d8843b000aeb1b8f,62c5392c567e3751bfbb4b06,2022-07-06_09h26.47.839,Colour_Asymmetry_Pilot,2022.1.3,Win32,60.22645146,62c50e9c1127f2cd403a315f,0,52,52,43,1,twofour,,,,,,,,,,,,,,,,,,,,,,,,,,,,,,,,,,,,,,,,,,,,,,,,,,,,,,,,,,,,,,,,,,,,,,,,,,,,,,,,,,,,,,,,,,,,,,,,,,,,,,,,,,,,,,,,,,,,,,,,,,,,,,,,,,,,,,,,,,,,,,,,,,,,,,,,,,,,,
,,,,,,5e37fef4d8843b000aeb1b8f,62c5392c567e3751bfbb4b06,2022-07-06_09h26.47.839,Colour_Asymmetry_Pilot,2022.1.3,Win32,60.22645146,62c50e9c1127f2cd403a315f,0,53,53,127,1,fourthree,,,,,,,,,,,,,,,,,,,,,,,,,,,,,,,,,,,,,,,,,,,,,,,,,,,,,,,,,,,,,,,,,,,,,,,,,,,,,,,,,,,,,,,,,,,,,,,,,,,,,,,,,,,,,,,,,,,,,,,,,,,,,,,,,,,,,,,,,,,,,,,,,,,,,,,,,,,,,
,,,,,,5e37fef4d8843b000aeb1b8f,62c5392c567e3751bfbb4b06,2022-07-06_09h26.47.839,Colour_Asymmetry_Pilot,2022.1.3,Win32,60.22645146,62c50e9c1127f2cd403a315f,0,54,54,51,1,twofour,,,,,,,,,,,,,,,,,,,,,,,,,,,,,,,,,,,,,,,,,,,,,,,,,,,,,,,,,,,,,,,,,,,,,,,,,,,,,,,,,,,,,,,,,,,,,,,,,,,,,,,,,,,,,,,,,,,,,,,,,,,,,,,,,,,,,,,,,,,,,,,,,,,,,,,,,,,,,
,,,,,,5e37fef4d8843b000aeb1b8f,62c5392c567e3751bfbb4b06,2022-07-06_09h26.47.839,Colour_Asymmetry_Pilot,2022.1.3,Win32,60.22645146,62c50e9c1127f2cd403a315f,0,55,55,27,1,twofour,,,,,,,,,,,,,,,,,,,,,,,,,,,,,,,,,,,,,,,,,,,,,,,,,,,,,,,,,,,,,,,,,,,,,,,,,,,,,,,,,,,,,,,,,,,,,,,,,,,,,,,,,,,,,,,,,,,,,,,,,,,,,,,,,,,,,,,,,,,,,,,,,,,,,,,,,,,,,
,,,,,,5e37fef4d8843b000aeb1b8f,62c5392c567e3751bfbb4b06,2022-07-06_09h26.47.839,Colour_Asymmetry_Pilot,2022.1.3,Win32,60.22645146,62c50e9c1127f2cd403a315f,0,56,56,76,1,threeone,,,,,,,,,,,,,,,,,,,,,,,,,,,,,,,,,,,,,,,,,,,,,,,,,,,,,,,,,,,,,,,,,,,,,,,,,,,,,,,,,,,,,,,,,,,,,,,,,,,,,,,,,,,,,,,,,,,,,,,,,,,,,,,,,,,,,,,,,,,,,,,,,,,,,,,,,,,,,
,,,,,,5e37fef4d8843b000aeb1b8f,62c5392c567e3751bfbb4b06,2022-07-06_09h26.47.839,Colour_Asymmetry_Pilot,2022.1.3,Win32,60.22645146,62c50e9c1127f2cd403a315f,0,57,57,152,1,onetwo,,,,,,,,,,,,,,,,,,,,,,,,,,,,,,,,,,,,,,,,,,,,,,,,,,,,,,,,,,,,,,,,,,,,,,,,,,,,,,,,,,,,,,,,,,,,,,,,,,,,,,,,,,,,,,,,,,,,,,,,,,,,,,,,,,,,,,,,,,,,,,,,,,,,,,,,,,,,,
,,,,,,5e37fef4d8843b000aeb1b8f,62c5392c567e3751bfbb4b06,2022-07-06_09h26.47.839,Colour_Asymmetry_Pilot,2022.1.3,Win32,60.22645146,62c50e9c1127f2cd403a315f,0,58,58,128,1,onetwo,,,,,,,,,,,,,,,,,,,,,,,,,,,,,,,,,,,,,,,,,,,,,,,,,,,,,,,,,,,,,,,,,,,,,,,,,,,,,,,,,,,,,,,,,,,,,,,,,,,,,,,,,,,,,,,,,,,,,,,,,,,,,,,,,,,,,,,,,,,,,,,,,,,,,,,,,,,,,
,,,,,,5e37fef4d8843b000aeb1b8f,62c5392c567e3751bfbb4b06,2022-07-06_09h26.47.839,Colour_Asymmetry_Pilot,2022.1.3,Win32,60.22645146,62c50e9c1127f2cd403a315f,0,59,59,109,1,threefour,,,,,,,,,,,,,,,,,,,,,,,,,,,,,,,,,,,,,,,,,,,,,,,,,,,,,,,,,,,,,,,,,,,,,,,,,,,,,,,,,,,,,,,,,,,,,,,,,,,,,,,,,,,,,,,,,,,,,,,,,,,,,,,,,,,,,,,,,,,,,,,,,,,,,,,,,,,,,
,,,,,,5e37fef4d8843b000aeb1b8f,62c5392c567e3751bfbb4b06,2022-07-06_09h26.47.839,Colour_Asymmetry_Pilot,2022.1.3,Win32,60.22645146,62c50e9c1127f2cd403a315f,0,60,60,81,1,onethree,,,,,,,,,,,,,,,,,,,,,,,,,,,,,,,,,,,,,,,,,,,,,,,,,,,,,,,,,,,,,,,,,,,,,,,,,,,,,,,,,,,,,,,,,,,,,,,,,,,,,,,,,,,,,,,,,,,,,,,,,,,,,,,,,,,,,,,,,,,,,,,,,,,,,,,,,,,,,
,,,,,,5e37fef4d8843b000aeb1b8f,62c5392c567e3751bfbb4b06,2022-07-06_09h26.47.839,Colour_Asymmetry_Pilot,2022.1.3,Win32,60.22645146,62c50e9c1127f2cd403a315f,0,61,61,57,1,onethree,,,,,,,,,,,,,,,,,,,,,,,,,,,,,,,,,,,,,,,,,,,,,,,,,,,,,,,,,,,,,,,,,,,,,,,,,,,,,,,,,,,,,,,,,,,,,,,,,,,,,,,,,,,,,,,,,,,,,,,,,,,,,,,,,,,,,,,,,,,,,,,,,,,,,,,,,,,,,
,,,,,,5e37fef4d8843b000aeb1b8f,62c5392c567e3751bfbb4b06,2022-07-06_09h26.47.839,Colour_Asymmetry_Pilot,2022.1.3,Win32,60.22645146,62c50e9c1127f2cd403a315f,0,62,62,94,1,fourtwo,,,,,,,,,,,,,,,,,,,,,,,,,,,,,,,,,,,,,,,,,,,,,,,,,,,,,,,,,,,,,,,,,,,,,,,,,,,,,,,,,,,,,,,,,,,,,,,,,,,,,,,,,,,,,,,,,,,,,,,,,,,,,,,,,,,,,,,,,,,,,,,,,,,,,,,,,,,,,
,,,,,,5e37fef4d8843b000aeb1b8f,62c5392c567e3751bfbb4b06,2022-07-06_09h26.47.839,Colour_Asymmetry_Pilot,2022.1.3,Win32,60.22645146,62c50e9c1127f2cd403a315f,0,63,63,67,1,twofour,,,,,,,,,,,,,,,,,,,,,,,,,,,,,,,,,,,,,,,,,,,,,,,,,,,,,,,,,,,,,,,,,,,,,,,,,,,,,,,,,,,,,,,,,,,,,,,,,,,,,,,,,,,,,,,,,,,,,,,,,,,,,,,,,,,,,,,,,,,,,,,,,,,,,,,,,,,,,
,,,,,,5e37fef4d8843b000aeb1b8f,62c5392c567e3751bfbb4b06,2022-07-06_09h26.47.839,Colour_Asymmetry_Pilot,2022.1.3,Win32,60.22645146,62c50e9c1127f2cd403a315f,0,64,64,123,1,twofour,,,,,,,,,,,,,,,,,,,,,,,,,,,,,,,,,,,,,,,,,,,,,,,,,,,,,,,,,,,,,,,,,,,,,,,,,,,,,,,,,,,,,,,,,,,,,,,,,,,,,,,,,,,,,,,,,,,,,,,,,,,,,,,,,,,,,,,,,,,,,,,,,,,,,,,,,,,,,
,,,,,,5e37fef4d8843b000aeb1b8f,62c5392c567e3751bfbb4b06,2022-07-06_09h26.47.839,Colour_Asymmetry_Pilot,2022.1.3,Win32,60.22645146,62c50e9c1127f2cd403a315f,0,65,65,141,1,threefour,,,,,,,,,,,,,,,,,,,,,,,,,,,,,,,,,,,,,,,,,,,,,,,,,,,,,,,,,,,,,,,,,,,,,,,,,,,,,,,,,,,,,,,,,,,,,,,,,,,,,,,,,,,,,,,,,,,,,,,,,,,,,,,,,,,,,,,,,,,,,,,,,,,,,,,,,,,,,
,,,,,,5e37fef4d8843b000aeb1b8f,62c5392c567e3751bfbb4b06,2022-07-06_09h26.47.839,Colour_Asymmetry_Pilot,2022.1.3,Win32,60.22645146,62c50e9c1127f2cd403a315f,0,66,66,124,1,threeone,,,,,,,,,,,,,,,,,,,,,,,,,,,,,,,,,,,,,,,,,,,,,,,,,,,,,,,,,,,,,,,,,,,,,,,,,,,,,,,,,,,,,,,,,,,,,,,,,,,,,,,,,,,,,,,,,,,,,,,,,,,,,,,,,,,,,,,,,,,,,,,,,,,,,,,,,,,,,
,,,,,,5e37fef4d8843b000aeb1b8f,62c5392c567e3751bfbb4b06,2022-07-06_09h26.47.839,Colour_Asymmetry_Pilot,2022.1.3,Win32,60.22645146,62c50e9c1127f2cd403a315f,0,67,67,104,1,onetwo,,,,,,,,,,,,,,,,,,,,,,,,,,,,,,,,,,,,,,,,,,,,,,,,,,,,,,,,,,,,,,,,,,,,,,,,,,,,,,,,,,,,,,,,,,,,,,,,,,,,,,,,,,,,,,,,,,,,,,,,,,,,,,,,,,,,,,,,,,,,,,,,,,,,,,,,,,,,,
,,,,,,5e37fef4d8843b000aeb1b8f,62c5392c567e3751bfbb4b06,2022-07-06_09h26.47.839,Colour_Asymmetry_Pilot,2022.1.3,Win32,60.22645146,62c50e9c1127f2cd403a315f,0,68,68,58,1,twoone,,,,,,,,,,,,,,,,,,,,,,,,,,,,,,,,,,,,,,,,,,,,,,,,,,,,,,,,,,,,,,,,,,,,,,,,,,,,,,,,,,,,,,,,,,,,,,,,,,,,,,,,,,,,,,,,,,,,,,,,,,,,,,,,,,,,,,,,,,,,,,,,,,,,,,,,,,,,,
,,,,,,5e37fef4d8843b000aeb1b8f,62c5392c567e3751bfbb4b06,2022-07-06_09h26.47.839,Colour_Asymmetry_Pilot,2022.1.3,Win32,60.22645146,62c50e9c1127f2cd403a315f,0,69,69,18,1,twoone,,,,,,,,,,,,,,,,,,,,,,,,,,,,,,,,,,,,,,,,,,,,,,,,,,,,,,,,,,,,,,,,,,,,,,,,,,,,,,,,,,,,,,,,,,,,,,,,,,,,,,,,,,,,,,,,,,,,,,,,,,,,,,,,,,,,,,,,,,,,,,,,,,,,,,,,,,,,,
,,,,,,5e37fef4d8843b000aeb1b8f,62c5392c567e3751bfbb4b06,2022-07-06_09h26.47.839,Colour_Asymmetry_Pilot,2022.1.3,Win32,60.22645146,62c50e9c1127f2cd403a315f,0,70,70,26,1,twoone,,,,,,,,,,,,,,,,,,,,,,,,,,,,,,,,,,,,,,,,,,,,,,,,,,,,,,,,,,,,,,,,,,,,,,,,,,,,,,,,,,,,,,,,,,,,,,,,,,,,,,,,,,,,,,,,,,,,,,,,,,,,,,,,,,,,,,,,,,,,,,,,,,,,,,,,,,,,,
,,,,,,5e37fef4d8843b000aeb1b8f,62c5392c567e3751bfbb4b06,2022-07-06_09h26.47.839,Colour_Asymmetry_Pilot,2022.1.3,Win32,60.22645146,62c50e9c1127f2cd403a315f,0,71,71,113,1,onethree,,,,,,,,,,,,,,,,,,,,,,,,,,,,,,,,,,,,,,,,,,,,,,,,,,,,,,,,,,,,,,,,,,,,,,,,,,,,,,,,,,,,,,,,,,,,,,,,,,,,,,,,,,,,,,,,,,,,,,,,,,,,,,,,,,,,,,,,,,,,,,,,,,,,,,,,,,,,,
,,,,,,5e37fef4d8843b000aeb1b8f,62c5392c567e3751bfbb4b06,2022-07-06_09h26.47.839,Colour_Asymmetry_Pilot,2022.1.3,Win32,60.22645146,62c50e9c1127f2cd403a315f,0,72,72,36,1,threeone,,,,,,,,,,,,,,,,,,,,,,,,,,,,,,,,,,,,,,,,,,,,,,,,,,,,,,,,,,,,,,,,,,,,,,,,,,,,,,,,,,,,,,,,,,,,,,,,,,,,,,,,,,,,,,,,,,,,,,,,,,,,,,,,,,,,,,,,,,,,,,,,,,,,,,,,,,,,,
,,,,,,5e37fef4d8843b000aeb1b8f,62c5392c567e3751bfbb4b06,2022-07-06_09h26.47.839,Colour_Asymmetry_Pilot,2022.1.3,Win32,60.22645146,62c50e9c1127f2cd403a315f,0,73,73,119,1,fourthree,,,,,,,,,,,,,,,,,,,,,,,,,,,,,,,,,,,,,,,,,,,,,,,,,,,,,,,,,,,,,,,,,,,,,,,,,,,,,,,,,,,,,,,,,,,,,,,,,,,,,,,,,,,,,,,,,,,,,,,,,,,,,,,,,,,,,,,,,,,,,,,,,,,,,,,,,,,,,
,,,,,,5e37fef4d8843b000aeb1b8f,62c5392c567e3751bfbb4b06,2022-07-06_09h26.47.839,Colour_Asymmetry_Pilot,2022.1.3,Win32,60.22645146,62c50e9c1127f2cd403a315f,0,74,74,73,1,onethree,,,,,,,,,,,,,,,,,,,,,,,,,,,,,,,,,,,,,,,,,,,,,,,,,,,,,,,,,,,,,,,,,,,,,,,,,,,,,,,,,,,,,,,,,,,,,,,,,,,,,,,,,,,,,,,,,,,,,,,,,,,,,,,,,,,,,,,,,,,,,,,,,,,,,,,,,,,,,
,,,,,,5e37fef4d8843b000aeb1b8f,62c5392c567e3751bfbb4b06,2022-07-06_09h26.47.839,Colour_Asymmetry_Pilot,2022.1.3,Win32,60.22645146,62c50e9c1127f2cd403a315f,0,75,75,72,1,onetwo,,,,,,,,,,,,,,,,,,,,,,,,,,,,,,,,,,,,,,,,,,,,,,,,,,,,,,,,,,,,,,,,,,,,,,,,,,,,,,,,,,,,,,,,,,,,,,,,,,,,,,,,,,,,,,,,,,,,,,,,,,,,,,,,,,,,,,,,,,,,,,,,,,,,,,,,,,,,,
,,,,,,5e37fef4d8843b000aeb1b8f,62c5392c567e3751bfbb4b06,2022-07-06_09h26.47.839,Colour_Asymmetry_Pilot,2022.1.3,Win32,60.22645146,62c50e9c1127f2cd403a315f,0,76,76,133,1,threefour,,,,,,,,,,,,,,,,,,,,,,,,,,,,,,,,,,,,,,,,,,,,,,,,,,,,,,,,,,,,,,,,,,,,,,,,,,,,,,,,,,,,,,,,,,,,,,,,,,,,,,,,,,,,,,,,,,,,,,,,,,,,,,,,,,,,,,,,,,,,,,,,,,,,,,,,,,,,,
,,,,,,5e37fef4d8843b000aeb1b8f,62c5392c567e3751bfbb4b06,2022-07-06_09h26.47.839,Colour_Asymmetry_Pilot,2022.1.3,Win32,60.22645146,62c50e9c1127f2cd403a315f,0,77,77,19,1,twofour,,,,,,,,,,,,,,,,,,,,,,,,,,,,,,,,,,,,,,,,,,,,,,,,,,,,,,,,,,,,,,,,,,,,,,,,,,,,,,,,,,,,,,,,,,,,,,,,,,,,,,,,,,,,,,,,,,,,,,,,,,,,,,,,,,,,,,,,,,,,,,,,,,,,,,,,,,,,,
,,,,,,5e37fef4d8843b000aeb1b8f,62c5392c567e3751bfbb4b06,2022-07-06_09h26.47.839,Colour_Asymmetry_Pilot,2022.1.3,Win32,60.22645146,62c50e9c1127f2cd403a315f,0,78,78,47,1,fourthree,,,,,,,,,,,,,,,,,,,,,,,,,,,,,,,,,,,,,,,,,,,,,,,,,,,,,,,,,,,,,,,,,,,,,,,,,,,,,,,,,,,,,,,,,,,,,,,,,,,,,,,,,,,,,,,,,,,,,,,,,,,,,,,,,,,,,,,,,,,,,,,,,,,,,,,,,,,,,
,,,,,,5e37fef4d8843b000aeb1b8f,62c5392c567e3751bfbb4b06,2022-07-06_09h26.47.839,Colour_Asymmetry_Pilot,2022.1.3,Win32,60.22645146,62c50e9c1127f2cd403a315f,0,79,79,101,1,threefour,,,,,,,,,,,,,,,,,,,,,,,,,,,,,,,,,,,,,,,,,,,,,,,,,,,,,,,,,,,,,,,,,,,,,,,,,,,,,,,,,,,,,,,,,,,,,,,,,,,,,,,,,,,,,,,,,,,,,,,,,,,,,,,,,,,,,,,,,,,,,,,,,,,,,,,,,,,,,
,,,,,,5e37fef4d8843b000aeb1b8f,62c5392c567e3751bfbb4b06,2022-07-06_09h26.47.839,Colour_Asymmetry_Pilot,2022.1.3,Win32,60.22645146,62c50e9c1127f2cd403a315f,0,80,80,50,1,twoone,,,,,,,,,,,,,,,,,,,,,,,,,,,,,,,,,,,,,,,,,,,,,,,,,,,,,,,,,,,,,,,,,,,,,,,,,,,,,,,,,,,,,,,,,,,,,,,,,,,,,,,,,,,,,,,,,,,,,,,,,,,,,,,,,,,,,,,,,,,,,,,,,,,,,,,,,,,,,
,,,,,,5e37fef4d8843b000aeb1b8f,62c5392c567e3751bfbb4b06,2022-07-06_09h26.47.839,Colour_Asymmetry_Pilot,2022.1.3,Win32,60.22645146,62c50e9c1127f2cd403a315f,0,81,81,68,1,threeone,,,,,,,,,,,,,,,,,,,,,,,,,,,,,,,,,,,,,,,,,,,,,,,,,,,,,,,,,,,,,,,,,,,,,,,,,,,,,,,,,,,,,,,,,,,,,,,,,,,,,,,,,,,,,,,,,,,,,,,,,,,,,,,,,,,,,,,,,,,,,,,,,,,,,,,,,,,,,
,,,,,,5e37fef4d8843b000aeb1b8f,62c5392c567e3751bfbb4b06,2022-07-06_09h26.47.839,Colour_Asymmetry_Pilot,2022.1.3,Win32,60.22645146,62c50e9c1127f2cd403a315f,0,82,82,84,1,threeone,,,,,,,,,,,,,,,,,,,,,,,,,,,,,,,,,,,,,,,,,,,,,,,,,,,,,,,,,,,,,,,,,,,,,,,,,,,,,,,,,,,,,,,,,,,,,,,,,,,,,,,,,,,,,,,,,,,,,,,,,,,,,,,,,,,,,,,,,,,,,,,,,,,,,,,,,,,,,
,,,,,,5e37fef4d8843b000aeb1b8f,62c5392c567e3751bfbb4b06,2022-07-06_09h26.47.839,Colour_Asymmetry_Pilot,2022.1.3,Win32,60.22645146,62c50e9c1127f2cd403a315f,0,83,83,59,1,twofour,,,,,,,,,,,,,,,,,,,,,,,,,,,,,,,,,,,,,,,,,,,,,,,,,,,,,,,,,,,,,,,,,,,,,,,,,,,,,,,,,,,,,,,,,,,,,,,,,,,,,,,,,,,,,,,,,,,,,,,,,,,,,,,,,,,,,,,,,,,,,,,,,,,,,,,,,,,,,
,,,,,,5e37fef4d8843b000aeb1b8f,62c5392c567e3751bfbb4b06,2022-07-06_09h26.47.839,Colour_Asymmetry_Pilot,2022.1.3,Win32,60.22645146,62c50e9c1127f2cd403a315f,0,84,84,144,1,onetwo,,,,,,,,,,,,,,,,,,,,,,,,,,,,,,,,,,,,,,,,,,,,,,,,,,,,,,,,,,,,,,,,,,,,,,,,,,,,,,,,,,,,,,,,,,,,,,,,,,,,,,,,,,,,,,,,,,,,,,,,,,,,,,,,,,,,,,,,,,,,,,,,,,,,,,,,,,,,,
,,,,,,5e37fef4d8843b000aeb1b8f,62c5392c567e3751bfbb4b06,2022-07-06_09h26.47.839,Colour_Asymmetry_Pilot,2022.1.3,Win32,60.22645146,62c50e9c1127f2cd403a315f,0,85,85,95,1,fourthree,,,,,,,,,,,,,,,,,,,,,,,,,,,,,,,,,,,,,,,,,,,,,,,,,,,,,,,,,,,,,,,,,,,,,,,,,,,,,,,,,,,,,,,,,,,,,,,,,,,,,,,,,,,,,,,,,,,,,,,,,,,,,,,,,,,,,,,,,,,,,,,,,,,,,,,,,,,,,
,,,,,,5e37fef4d8843b000aeb1b8f,62c5392c567e3751bfbb4b06,2022-07-06_09h26.47.839,Colour_Asymmetry_Pilot,2022.1.3,Win32,60.22645146,62c50e9c1127f2cd403a315f,0,86,86,17,1,onethree,,,,,,,,,,,,,,,,,,,,,,,,,,,,,,,,,,,,,,,,,,,,,,,,,,,,,,,,,,,,,,,,,,,,,,,,,,,,,,,,,,,,,,,,,,,,,,,,,,,,,,,,,,,,,,,,,,,,,,,,,,,,,,,,,,,,,,,,,,,,,,,,,,,,,,,,,,,,,
,,,,,,5e37fef4d8843b000aeb1b8f,62c5392c567e3751bfbb4b06,2022-07-06_09h26.47.839,Colour_Asymmetry_Pilot,2022.1.3,Win32,60.22645146,62c50e9c1127f2cd403a315f,0,87,87,66,1,twoone,,,,,,,,,,,,,,,,,,,,,,,,,,,,,,,,,,,,,,,,,,,,,,,,,,,,,,,,,,,,,,,,,,,,,,,,,,,,,,,,,,,,,,,,,,,,,,,,,,,,,,,,,,,,,,,,,,,,,,,,,,,,,,,,,,,,,,,,,,,,,,,,,,,,,,,,,,,,,
,,,,,,5e37fef4d8843b000aeb1b8f,62c5392c567e3751bfbb4b06,2022-07-06_09h26.47.839,Colour_Asymmetry_Pilot,2022.1.3,Win32,60.22645146,62c50e9c1127f2cd403a315f,0,88,88,79,1,fourthree,,,,,,,,,,,,,,,,,,,,,,,,,,,,,,,,,,,,,,,,,,,,,,,,,,,,,,,,,,,,,,,,,,,,,,,,,,,,,,,,,,,,,,,,,,,,,,,,,,,,,,,,,,,,,,,,,,,,,,,,,,,,,,,,,,,,,,,,,,,,,,,,,,,,,,,,,,,,,
,,,,,,5e37fef4d8843b000aeb1b8f,62c5392c567e3751bfbb4b06,2022-07-06_09h26.47.839,Colour_Asymmetry_Pilot,2022.1.3,Win32,60.22645146,62c50e9c1127f2cd403a315f,0,89,89,39,1,fourthree,,,,,,,,,,,,,,,,,,,,,,,,,,,,,,,,,,,,,,,,,,,,,,,,,,,,,,,,,,,,,,,,,,,,,,,,,,,,,,,,,,,,,,,,,,,,,,,,,,,,,,,,,,,,,,,,,,,,,,,,,,,,,,,,,,,,,,,,,,,,,,,,,,,,,,,,,,,,,
,,,,,,5e37fef4d8843b000aeb1b8f,62c5392c567e3751bfbb4b06,2022-07-06_09h26.47.839,Colour_Asymmetry_Pilot,2022.1.3,Win32,60.22645146,62c50e9c1127f2cd403a315f,0,90,90,139,1,twofour,,,,,,,,,,,,,,,,,,,,,,,,,,,,,,,,,,,,,,,,,,,,,,,,,,,,,,,,,,,,,,,,,,,,,,,,,,,,,,,,,,,,,,,,,,,,,,,,,,,,,,,,,,,,,,,,,,,,,,,,,,,,,,,,,,,,,,,,,,,,,,,,,,,,,,,,,,,,,
,,,,,,5e37fef4d8843b000aeb1b8f,62c5392c567e3751bfbb4b06,2022-07-06_09h26.47.839,Colour_Asymmetry_Pilot,2022.1.3,Win32,60.22645146,62c50e9c1127f2cd403a315f,0,91,91,146,1,twoone,,,,,,,,,,,,,,,,,,,,,,,,,,,,,,,,,,,,,,,,,,,,,,,,,,,,,,,,,,,,,,,,,,,,,,,,,,,,,,,,,,,,,,,,,,,,,,,,,,,,,,,,,,,,,,,,,,,,,,,,,,,,,,,,,,,,,,,,,,,,,,,,,,,,,,,,,,,,,
,,,,,,5e37fef4d8843b000aeb1b8f,62c5392c567e3751bfbb4b06,2022-07-06_09h26.47.839,Colour_Asymmetry_Pilot,2022.1.3,Win32,60.22645146,62c50e9c1127f2cd403a315f,0,92,92,13,1,threefour,,,,,,,,,,,,,,,,,,,,,,,,,,,,,,,,,,,,,,,,,,,,,,,,,,,,,,,,,,,,,,,,,,,,,,,,,,,,,,,,,,,,,,,,,,,,,,,,,,,,,,,,,,,,,,,,,,,,,,,,,,,,,,,,,,,,,,,,,,,,,,,,,,,,,,,,,,,,,
,,,,,,5e37fef4d8843b000aeb1b8f,62c5392c567e3751bfbb4b06,2022-07-06_09h26.47.839,Colour_Asymmetry_Pilot,2022.1.3,Win32,60.22645146,62c50e9c1127f2cd403a315f,0,93,93,85,1,threefour,,,,,,,,,,,,,,,,,,,,,,,,,,,,,,,,,,,,,,,,,,,,,,,,,,,,,,,,,,,,,,,,,,,,,,,,,,,,,,,,,,,,,,,,,,,,,,,,,,,,,,,,,,,,,,,,,,,,,,,,,,,,,,,,,,,,,,,,,,,,,,,,,,,,,,,,,,,,,
,,,,,,5e37fef4d8843b000aeb1b8f,62c5392c567e3751bfbb4b06,2022-07-06_09h26.47.839,Colour_Asymmetry_Pilot,2022.1.3,Win32,60.22645146,62c50e9c1127f2cd403a315f,0,94,94,96,1,onetwo,,,,,,,,,,,,,,,,,,,,,,,,,,,,,,,,,,,,,,,,,,,,,,,,,,,,,,,,,,,,,,,,,,,,,,,,,,,,,,,,,,,,,,,,,,,,,,,,,,,,,,,,,,,,,,,,,,,,,,,,,,,,,,,,,,,,,,,,,,,,,,,,,,,,,,,,,,,,,
,,,,,,5e37fef4d8843b000aeb1b8f,62c5392c567e3751bfbb4b06,2022-07-06_09h26.47.839,Colour_Asymmetry_Pilot,2022.1.3,Win32,60.22645146,62c50e9c1127f2cd403a315f,0,95,95,93,1,threefour,,,,,,,,,,,,,,,,,,,,,,,,,,,,,,,,,,,,,,,,,,,,,,,,,,,,,,,,,,,,,,,,,,,,,,,,,,,,,,,,,,,,,,,,,,,,,,,,,,,,,,,,,,,,,,,,,,,,,,,,,,,,,,,,,,,,,,,,,,,,,,,,,,,,,,,,,,,,,
,,,,,,5e37fef4d8843b000aeb1b8f,62c5392c567e3751bfbb4b06,2022-07-06_09h26.47.839,Colour_Asymmetry_Pilot,2022.1.3,Win32,60.22645146,62c50e9c1127f2cd403a315f,0,96,96,28,1,threeone,,,,,,,,,,,,,,,,,,,,,,,,,,,,,,,,,,,,,,,,,,,,,,,,,,,,,,,,,,,,,,,,,,,,,,,,,,,,,,,,,,,,,,,,,,,,,,,,,,,,,,,,,,,,,,,,,,,,,,,,,,,,,,,,,,,,,,,,,,,,,,,,,,,,,,,,,,,,,
,,,,,,5e37fef4d8843b000aeb1b8f,62c5392c567e3751bfbb4b06,2022-07-06_09h26.47.839,Colour_Asymmetry_Pilot,2022.1.3,Win32,60.22645146,62c50e9c1127f2cd403a315f,0,97,97,46,1,fourtwo,,,,,,,,,,,,,,,,,,,,,,,,,,,,,,,,,,,,,,,,,,,,,,,,,,,,,,,,,,,,,,,,,,,,,,,,,,,,,,,,,,,,,,,,,,,,,,,,,,,,,,,,,,,,,,,,,,,,,,,,,,,,,,,,,,,,,,,,,,,,,,,,,,,,,,,,,,,,,
,,,,,,5e37fef4d8843b000aeb1b8f,62c5392c567e3751bfbb4b06,2022-07-06_09h26.47.839,Colour_Asymmetry_Pilot,2022.1.3,Win32,60.22645146,62c50e9c1127f2cd403a315f,0,98,98,132,1,threeone,,,,,,,,,,,,,,,,,,,,,,,,,,,,,,,,,,,,,,,,,,,,,,,,,,,,,,,,,,,,,,,,,,,,,,,,,,,,,,,,,,,,,,,,,,,,,,,,,,,,,,,,,,,,,,,,,,,,,,,,,,,,,,,,,,,,,,,,,,,,,,,,,,,,,,,,,,,,,
,,,,,,5e37fef4d8843b000aeb1b8f,62c5392c567e3751bfbb4b06,2022-07-06_09h26.47.839,Colour_Asymmetry_Pilot,2022.1.3,Win32,60.22645146,62c50e9c1127f2cd403a315f,0,99,99,142,1,fourtwo,,,,,,,,,,,,,,,,,,,,,,,,,,,,,,,,,,,,,,,,,,,,,,,,,,,,,,,,,,,,,,,,,,,,,,,,,,,,,,,,,,,,,,,,,,,,,,,,,,,,,,,,,,,,,,,,,,,,,,,,,,,,,,,,,,,,,,,,,,,,,,,,,,,,,,,,,,,,,
,,,,,,5e37fef4d8843b000aeb1b8f,62c5392c567e3751bfbb4b06,2022-07-06_09h26.47.839,Colour_Asymmetry_Pilot,2022.1.3,Win32,60.22645146,62c50e9c1127f2cd403a315f,0,100,100,40,1,onetwo,,,,,,,,,,,,,,,,,,,,,,,,,,,,,,,,,,,,,,,,,,,,,,,,,,,,,,,,,,,,,,,,,,,,,,,,,,,,,,,,,,,,,,,,,,,,,,,,,,,,,,,,,,,,,,,,,,,,,,,,,,,,,,,,,,,,,,,,,,,,,,,,,,,,,,,,,,,,,
,,,,,,5e37fef4d8843b000aeb1b8f,62c5392c567e3751bfbb4b06,2022-07-06_09h26.47.839,Colour_Asymmetry_Pilot,2022.1.3,Win32,60.22645146,62c50e9c1127f2cd403a315f,0,101,101,30,1,fourtwo,,,,,,,,,,,,,,,,,,,,,,,,,,,,,,,,,,,,,,,,,,,,,,,,,,,,,,,,,,,,,,,,,,,,,,,,,,,,,,,,,,,,,,,,,,,,,,,,,,,,,,,,,,,,,,,,,,,,,,,,,,,,,,,,,,,,,,,,,,,,,,,,,,,,,,,,,,,,,
,,,,,,5e37fef4d8843b000aeb1b8f,62c5392c567e3751bfbb4b06,2022-07-06_09h26.47.839,Colour_Asymmetry_Pilot,2022.1.3,Win32,60.22645146,62c50e9c1127f2cd403a315f,0,102,102,130,1,twoone,,,,,,,,,,,,,,,,,,,,,,,,,,,,,,,,,,,,,,,,,,,,,,,,,,,,,,,,,,,,,,,,,,,,,,,,,,,,,,,,,,,,,,,,,,,,,,,,,,,,,,,,,,,,,,,,,,,,,,,,,,,,,,,,,,,,,,,,,,,,,,,,,,,,,,,,,,,,,
,,,,,,5e37fef4d8843b000aeb1b8f,62c5392c567e3751bfbb4b06,2022-07-06_09h26.47.839,Colour_Asymmetry_Pilot,2022.1.3,Win32,60.22645146,62c50e9c1127f2cd403a315f,0,103,103,52,1,threeone,,,,,,,,,,,,,,,,,,,,,,,,,,,,,,,,,,,,,,,,,,,,,,,,,,,,,,,,,,,,,,,,,,,,,,,,,,,,,,,,,,,,,,,,,,,,,,,,,,,,,,,,,,,,,,,,,,,,,,,,,,,,,,,,,,,,,,,,,,,,,,,,,,,,,,,,,,,,,
,,,,,,5e37fef4d8843b000aeb1b8f,62c5392c567e3751bfbb4b06,2022-07-06_09h26.47.839,Colour_Asymmetry_Pilot,2022.1.3,Win32,60.22645146,62c50e9c1127f2cd403a315f,0,104,104,75,1,twofour,,,,,,,,,,,,,,,,,,,,,,,,,,,,,,,,,,,,,,,,,,,,,,,,,,,,,,,,,,,,,,,,,,,,,,,,,,,,,,,,,,,,,,,,,,,,,,,,,,,,,,,,,,,,,,,,,,,,,,,,,,,,,,,,,,,,,,,,,,,,,,,,,,,,,,,,,,,,,
,,,,,,5e37fef4d8843b000aeb1b8f,62c5392c567e3751bfbb4b06,2022-07-06_09h26.47.839,Colour_Asymmetry_Pilot,2022.1.3,Win32,60.22645146,62c50e9c1127f2cd403a315f,0,105,105,77,1,threefour,,,,,,,,,,,,,,,,,,,,,,,,,,,,,,,,,,,,,,,,,,,,,,,,,,,,,,,,,,,,,,,,,,,,,,,,,,,,,,,,,,,,,,,,,,,,,,,,,,,,,,,,,,,,,,,,,,,,,,,,,,,,,,,,,,,,,,,,,,,,,,,,,,,,,,,,,,,,,
,,,,,,5e37fef4d8843b000aeb1b8f,62c5392c567e3751bfbb4b06,2022-07-06_09h26.47.839,Colour_Asymmetry_Pilot,2022.1.3,Win32,60.22645146,62c50e9c1127f2cd403a315f,0,106,106,159,1,fourthree,,,,,,,,,,,,,,,,,,,,,,,,,,,,,,,,,,,,,,,,,,,,,,,,,,,,,,,,,,,,,,,,,,,,,,,,,,,,,,,,,,,,,,,,,,,,,,,,,,,,,,,,,,,,,,,,,,,,,,,,,,,,,,,,,,,,,,,,,,,,,,,,,,,,,,,,,,,,,
,,,,,,5e37fef4d8843b000aeb1b8f,62c5392c567e3751bfbb4b06,2022-07-06_09h26.47.839,Colour_Asymmetry_Pilot,2022.1.3,Win32,60.22645146,62c50e9c1127f2cd403a315f,0,107,107,122,1,twoone,,,,,,,,,,,,,,,,,,,,,,,,,,,,,,,,,,,,,,,,,,,,,,,,,,,,,,,,,,,,,,,,,,,,,,,,,,,,,,,,,,,,,,,,,,,,,,,,,,,,,,,,,,,,,,,,,,,,,,,,,,,,,,,,,,,,,,,,,,,,,,,,,,,,,,,,,,,,,
,,,,,,5e37fef4d8843b000aeb1b8f,62c5392c567e3751bfbb4b06,2022-07-06_09h26.47.839,Colour_Asymmetry_Pilot,2022.1.3,Win32,60.22645146,62c50e9c1127f2cd403a315f,0,108,108,129,1,onethree,,,,,,,,,,,,,,,,,,,,,,,,,,,,,,,,,,,,,,,,,,,,,,,,,,,,,,,,,,,,,,,,,,,,,,,,,,,,,,,,,,,,,,,,,,,,,,,,,,,,,,,,,,,,,,,,,,,,,,,,,,,,,,,,,,,,,,,,,,,,,,,,,,,,,,,,,,,,,
,,,,,,5e37fef4d8843b000aeb1b8f,62c5392c567e3751bfbb4b06,2022-07-06_09h26.47.839,Colour_Asymmetry_Pilot,2022.1.3,Win32,60.22645146,62c50e9c1127f2cd403a315f,0,109,109,87,1,fourthree,,,,,,,,,,,,,,,,,,,,,,,,,,,,,,,,,,,,,,,,,,,,,,,,,,,,,,,,,,,,,,,,,,,,,,,,,,,,,,,,,,,,,,,,,,,,,,,,,,,,,,,,,,,,,,,,,,,,,,,,,,,,,,,,,,,,,,,,,,,,,,,,,,,,,,,,,,,,,
,,,,,,5e37fef4d8843b000aeb1b8f,62c5392c567e3751bfbb4b06,2022-07-06_09h26.47.839,Colour_Asymmetry_Pilot,2022.1.3,Win32,60.22645146,62c50e9c1127f2cd403a315f,0,110,110,38,1,fourtwo,,,,,,,,,,,,,,,,,,,,,,,,,,,,,,,,,,,,,,,,,,,,,,,,,,,,,,,,,,,,,,,,,,,,,,,,,,,,,,,,,,,,,,,,,,,,,,,,,,,,,,,,,,,,,,,,,,,,,,,,,,,,,,,,,,,,,,,,,,,,,,,,,,,,,,,,,,,,,
,,,,,,5e37fef4d8843b000aeb1b8f,62c5392c567e3751bfbb4b06,2022-07-06_09h26.47.839,Colour_Asymmetry_Pilot,2022.1.3,Win32,60.22645146,62c50e9c1127f2cd403a315f,0,111,111,11,1,twofour,,,,,,,,,,,,,,,,,,,,,,,,,,,,,,,,,,,,,,,,,,,,,,,,,,,,,,,,,,,,,,,,,,,,,,,,,,,,,,,,,,,,,,,,,,,,,,,,,,,,,,,,,,,,,,,,,,,,,,,,,,,,,,,,,,,,,,,,,,,,,,,,,,,,,,,,,,,,,
,,,,,,5e37fef4d8843b000aeb1b8f,62c5392c567e3751bfbb4b06,2022-07-06_09h26.47.839,Colour_Asymmetry_Pilot,2022.1.3,Win32,60.22645146,62c50e9c1127f2cd403a315f,0,112,112,78,1,fourtwo,,,,,,,,,,,,,,,,,,,,,,,,,,,,,,,,,,,,,,,,,,,,,,,,,,,,,,,,,,,,,,,,,,,,,,,,,,,,,,,,,,,,,,,,,,,,,,,,,,,,,,,,,,,,,,,,,,,,,,,,,,,,,,,,,,,,,,,,,,,,,,,,,,,,,,,,,,,,,
,,,,,,5e37fef4d8843b000aeb1b8f,62c5392c567e3751bfbb4b06,2022-07-06_09h26.47.839,Colour_Asymmetry_Pilot,2022.1.3,Win32,60.22645146,62c50e9c1127f2cd403a315f,0,113,113,151,1,fourthree,,,,,,,,,,,,,,,,,,,,,,,,,,,,,,,,,,,,,,,,,,,,,,,,,,,,,,,,,,,,,,,,,,,,,,,,,,,,,,,,,,,,,,,,,,,,,,,,,,,,,,,,,,,,,,,,,,,,,,,,,,,,,,,,,,,,,,,,,,,,,,,,,,,,,,,,,,,,,
,,,,,,5e37fef4d8843b000aeb1b8f,62c5392c567e3751bfbb4b06,2022-07-06_09h26.47.839,Colour_Asymmetry_Pilot,2022.1.3,Win32,60.22645146,62c50e9c1127f2cd403a315f,0,114,114,56,1,onetwo,,,,,,,,,,,,,,,,,,,,,,,,,,,,,,,,,,,,,,,,,,,,,,,,,,,,,,,,,,,,,,,,,,,,,,,,,,,,,,,,,,,,,,,,,,,,,,,,,,,,,,,,,,,,,,,,,,,,,,,,,,,,,,,,,,,,,,,,,,,,,,,,,,,,,,,,,,,,,
,,,,,,5e37fef4d8843b000aeb1b8f,62c5392c567e3751bfbb4b06,2022-07-06_09h26.47.839,Colour_Asymmetry_Pilot,2022.1.3,Win32,60.22645146,62c50e9c1127f2cd403a315f,0,115,115,125,1,threefour,,,,,,,,,,,,,,,,,,,,,,,,,,,,,,,,,,,,,,,,,,,,,,,,,,,,,,,,,,,,,,,,,,,,,,,,,,,,,,,,,,,,,,,,,,,,,,,,,,,,,,,,,,,,,,,,,,,,,,,,,,,,,,,,,,,,,,,,,,,,,,,,,,,,,,,,,,,,,
,,,,,,5e37fef4d8843b000aeb1b8f,62c5392c567e3751bfbb4b06,2022-07-06_09h26.47.839,Colour_Asymmetry_Pilot,2022.1.3,Win32,60.22645146,62c50e9c1127f2cd403a315f,0,116,116,111,1,fourthree,,,,,,,,,,,,,,,,,,,,,,,,,,,,,,,,,,,,,,,,,,,,,,,,,,,,,,,,,,,,,,,,,,,,,,,,,,,,,,,,,,,,,,,,,,,,,,,,,,,,,,,,,,,,,,,,,,,,,,,,,,,,,,,,,,,,,,,,,,,,,,,,,,,,,,,,,,,,,
,,,,,,5e37fef4d8843b000aeb1b8f,62c5392c567e3751bfbb4b06,2022-07-06_09h26.47.839,Colour_Asymmetry_Pilot,2022.1.3,Win32,60.22645146,62c50e9c1127f2cd403a315f,0,117,117,136,1,onetwo,,,,,,,,,,,,,,,,,,,,,,,,,,,,,,,,,,,,,,,,,,,,,,,,,,,,,,,,,,,,,,,,,,,,,,,,,,,,,,,,,,,,,,,,,,,,,,,,,,,,,,,,,,,,,,,,,,,,,,,,,,,,,,,,,,,,,,,,,,,,,,,,,,,,,,,,,,,,,
,,,,,,5e37fef4d8843b000aeb1b8f,62c5392c567e3751bfbb4b06,2022-07-06_09h26.47.839,Colour_Asymmetry_Pilot,2022.1.3,Win32,60.22645146,62c50e9c1127f2cd403a315f,0,118,118,32,1,onetwo,,,,,,,,,,,,,,,,,,,,,,,,,,,,,,,,,,,,,,,,,,,,,,,,,,,,,,,,,,,,,,,,,,,,,,,,,,,,,,,,,,,,,,,,,,,,,,,,,,,,,,,,,,,,,,,,,,,,,,,,,,,,,,,,,,,,,,,,,,,,,,,,,,,,,,,,,,,,,
,,,,,,5e37fef4d8843b000aeb1b8f,62c5392c567e3751bfbb4b06,2022-07-06_09h26.47.839,Colour_Asymmetry_Pilot,2022.1.3,Win32,60.22645146,62c50e9c1127f2cd403a315f,0,119,119,120,1,onetwo,,,,,,,,,,,,,,,,,,,,,,,,,,,,,,,,,,,,,,,,,,,,,,,,,,,,,,,,,,,,,,,,,,,,,,,,,,,,,,,,,,,,,,,,,,,,,,,,,,,,,,,,,,,,,,,,,,,,,,,,,,,,,,,,,,,,,,,,,,,,,,,,,,,,,,,,,,,,,
,,,,,,5e37fef4d8843b000aeb1b8f,62c5392c567e3751bfbb4b06,2022-07-06_09h26.47.839,Colour_Asymmetry_Pilot,2022.1.3,Win32,60.22645146,62c50e9c1127f2cd403a315f,0,120,120,25,1,onethree,,,,,,,,,,,,,,,,,,,,,,,,,,,,,,,,,,,,,,,,,,,,,,,,,,,,,,,,,,,,,,,,,,,,,,,,,,,,,,,,,,,,,,,,,,,,,,,,,,,,,,,,,,,,,,,,,,,,,,,,,,,,,,,,,,,,,,,,,,,,,,,,,,,,,,,,,,,,,
,,,,,,5e37fef4d8843b000aeb1b8f,62c5392c567e3751bfbb4b06,2022-07-06_09h26.47.839,Colour_Asymmetry_Pilot,2022.1.3,Win32,60.22645146,62c50e9c1127f2cd403a315f,0,121,121,54,1,fourtwo,,,,,,,,,,,,,,,,,,,,,,,,,,,,,,,,,,,,,,,,,,,,,,,,,,,,,,,,,,,,,,,,,,,,,,,,,,,,,,,,,,,,,,,,,,,,,,,,,,,,,,,,,,,,,,,,,,,,,,,,,,,,,,,,,,,,,,,,,,,,,,,,,,,,,,,,,,,,,
,,,,,,5e37fef4d8843b000aeb1b8f,62c5392c567e3751bfbb4b06,2022-07-06_09h26.47.839,Colour_Asymmetry_Pilot,2022.1.3,Win32,60.22645146,62c50e9c1127f2cd403a315f,0,122,122,35,1,twofour,,,,,,,,,,,,,,,,,,,,,,,,,,,,,,,,,,,,,,,,,,,,,,,,,,,,,,,,,,,,,,,,,,,,,,,,,,,,,,,,,,,,,,,,,,,,,,,,,,,,,,,,,,,,,,,,,,,,,,,,,,,,,,,,,,,,,,,,,,,,,,,,,,,,,,,,,,,,,
,,,,,,5e37fef4d8843b000aeb1b8f,62c5392c567e3751bfbb4b06,2022-07-06_09h26.47.839,Colour_Asymmetry_Pilot,2022.1.3,Win32,60.22645146,62c50e9c1127f2cd403a315f,0,123,123,117,1,threefour,,,,,,,,,,,,,,,,,,,,,,,,,,,,,,,,,,,,,,,,,,,,,,,,,,,,,,,,,,,,,,,,,,,,,,,,,,,,,,,,,,,,,,,,,,,,,,,,,,,,,,,,,,,,,,,,,,,,,,,,,,,,,,,,,,,,,,,,,,,,,,,,,,,,,,,,,,,,,
,,,,,,5e37fef4d8843b000aeb1b8f,62c5392c567e3751bfbb4b06,2022-07-06_09h26.47.839,Colour_Asymmetry_Pilot,2022.1.3,Win32,60.22645146,62c50e9c1127f2cd403a315f,0,124,124,161,1,onethree,,,,,,,,,,,,,,,,,,,,,,,,,,,,,,,,,,,,,,,,,,,,,,,,,,,,,,,,,,,,,,,,,,,,,,,,,,,,,,,,,,,,,,,,,,,,,,,,,,,,,,,,,,,,,,,,,,,,,,,,,,,,,,,,,,,,,,,,,,,,,,,,,,,,,,,,,,,,,
,,,,,,5e37fef4d8843b000aeb1b8f,62c5392c567e3751bfbb4b06,2022-07-06_09h26.47.839,Colour_Asymmetry_Pilot,2022.1.3,Win32,60.22645146,62c50e9c1127f2cd403a315f,0,125,125,147,1,twofour,,,,,,,,,,,,,,,,,,,,,,,,,,,,,,,,,,,,,,,,,,,,,,,,,,,,,,,,,,,,,,,,,,,,,,,,,,,,,,,,,,,,,,,,,,,,,,,,,,,,,,,,,,,,,,,,,,,,,,,,,,,,,,,,,,,,,,,,,,,,,,,,,,,,,,,,,,,,,
,,,,,,5e37fef4d8843b000aeb1b8f,62c5392c567e3751bfbb4b06,2022-07-06_09h26.47.839,Colour_Asymmetry_Pilot,2022.1.3,Win32,60.22645146,62c50e9c1127f2cd403a315f,0,126,126,64,1,onetwo,,,,,,,,,,,,,,,,,,,,,,,,,,,,,,,,,,,,,,,,,,,,,,,,,,,,,,,,,,,,,,,,,,,,,,,,,,,,,,,,,,,,,,,,,,,,,,,,,,,,,,,,,,,,,,,,,,,,,,,,,,,,,,,,,,,,,,,,,,,,,,,,,,,,,,,,,,,,,
,,,,,,5e37fef4d8843b000aeb1b8f,62c5392c567e3751bfbb4b06,2022-07-06_09h26.47.839,Colour_Asymmetry_Pilot,2022.1.3,Win32,60.22645146,62c50e9c1127f2cd403a315f,0,127,127,97,1,onethree,,,,,,,,,,,,,,,,,,,,,,,,,,,,,,,,,,,,,,,,,,,,,,,,,,,,,,,,,,,,,,,,,,,,,,,,,,,,,,,,,,,,,,,,,,,,,,,,,,,,,,,,,,,,,,,,,,,,,,,,,,,,,,,,,,,,,,,,,,,,,,,,,,,,,,,,,,,,,
,,,,,,5e37fef4d8843b000aeb1b8f,62c5392c567e3751bfbb4b06,2022-07-06_09h26.47.839,Colour_Asymmetry_Pilot,2022.1.3,Win32,60.22645146,62c50e9c1127f2cd403a315f,0,128,128,82,1,twoone,,,,,,,,,,,,,,,,,,,,,,,,,,,,,,,,,,,,,,,,,,,,,,,,,,,,,,,,,,,,,,,,,,,,,,,,,,,,,,,,,,,,,,,,,,,,,,,,,,,,,,,,,,,,,,,,,,,,,,,,,,,,,,,,,,,,,,,,,,,,,,,,,,,,,,,,,,,,,
,,,,,,5e37fef4d8843b000aeb1b8f,62c5392c567e3751bfbb4b06,2022-07-06_09h26.47.839,Colour_Asymmetry_Pilot,2022.1.3,Win32,60.22645146,62c50e9c1127f2cd403a315f,0,129,129,14,1,fourtwo,,,,,,,,,,,,,,,,,,,,,,,,,,,,,,,,,,,,,,,,,,,,,,,,,,,,,,,,,,,,,,,,,,,,,,,,,,,,,,,,,,,,,,,,,,,,,,,,,,,,,,,,,,,,,,,,,,,,,,,,,,,,,,,,,,,,,,,,,,,,,,,,,,,,,,,,,,,,,
,,,,,,5e37fef4d8843b000aeb1b8f,62c5392c567e3751bfbb4b06,2022-07-06_09h26.47.839,Colour_Asymmetry_Pilot,2022.1.3,Win32,60.22645146,62c50e9c1127f2cd403a315f,0,130,130,55,1,fourthree,,,,,,,,,,,,,,,,,,,,,,,,,,,,,,,,,,,,,,,,,,,,,,,,,,,,,,,,,,,,,,,,,,,,,,,,,,,,,,,,,,,,,,,,,,,,,,,,,,,,,,,,,,,,,,,,,,,,,,,,,,,,,,,,,,,,,,,,,,,,,,,,,,,,,,,,,,,,,
,,,,,,5e37fef4d8843b000aeb1b8f,62c5392c567e3751bfbb4b06,2022-07-06_09h26.47.839,Colour_Asymmetry_Pilot,2022.1.3,Win32,60.22645146,62c50e9c1127f2cd403a315f,0,131,131,158,1,fourtwo,,,,,,,,,,,,,,,,,,,,,,,,,,,,,,,,,,,,,,,,,,,,,,,,,,,,,,,,,,,,,,,,,,,,,,,,,,,,,,,,,,,,,,,,,,,,,,,,,,,,,,,,,,,,,,,,,,,,,,,,,,,,,,,,,,,,,,,,,,,,,,,,,,,,,,,,,,,,,
,,,,,,5e37fef4d8843b000aeb1b8f,62c5392c567e3751bfbb4b06,2022-07-06_09h26.47.839,Colour_Asymmetry_Pilot,2022.1.3,Win32,60.22645146,62c50e9c1127f2cd403a315f,0,132,132,135,1,fourthree,,,,,,,,,,,,,,,,,,,,,,,,,,,,,,,,,,,,,,,,,,,,,,,,,,,,,,,,,,,,,,,,,,,,,,,,,,,,,,,,,,,,,,,,,,,,,,,,,,,,,,,,,,,,,,,,,,,,,,,,,,,,,,,,,,,,,,,,,,,,,,,,,,,,,,,,,,,,,
,,,,,,5e37fef4d8843b000aeb1b8f,62c5392c567e3751bfbb4b06,2022-07-06_09h26.47.839,Colour_Asymmetry_Pilot,2022.1.3,Win32,60.22645146,62c50e9c1127f2cd403a315f,0,133,133,71,1,fourthree,,,,,,,,,,,,,,,,,,,,,,,,,,,,,,,,,,,,,,,,,,,,,,,,,,,,,,,,,,,,,,,,,,,,,,,,,,,,,,,,,,,,,,,,,,,,,,,,,,,,,,,,,,,,,,,,,,,,,,,,,,,,,,,,,,,,,,,,,,,,,,,,,,,,,,,,,,,,,
,,,,,,5e37fef4d8843b000aeb1b8f,62c5392c567e3751bfbb4b06,2022-07-06_09h26.47.839,Colour_Asymmetry_Pilot,2022.1.3,Win32,60.22645146,62c50e9c1127f2cd403a315f,0,134,134,145,1,onethree,,,,,,,,,,,,,,,,,,,,,,,,,,,,,,,,,,,,,,,,,,,,,,,,,,,,,,,,,,,,,,,,,,,,,,,,,,,,,,,,,,,,,,,,,,,,,,,,,,,,,,,,,,,,,,,,,,,,,,,,,,,,,,,,,,,,,,,,,,,,,,,,,,,,,,,,,,,,,
,,,,,,5e37fef4d8843b000aeb1b8f,62c5392c567e3751bfbb4b06,2022-07-06_09h26.47.839,Colour_Asymmetry_Pilot,2022.1.3,Win32,60.22645146,62c50e9c1127f2cd403a315f,0,135,135,140,1,threeone,,,,,,,,,,,,,,,,,,,,,,,,,,,,,,,,,,,,,,,,,,,,,,,,,,,,,,,,,,,,,,,,,,,,,,,,,,,,,,,,,,,,,,,,,,,,,,,,,,,,,,,,,,,,,,,,,,,,,,,,,,,,,,,,,,,,,,,,,,,,,,,,,,,,,,,,,,,,,
,,,,,,5e37fef4d8843b000aeb1b8f,62c5392c567e3751bfbb4b06,2022-07-06_09h26.47.839,Colour_Asymmetry_Pilot,2022.1.3,Win32,60.22645146,62c50e9c1127f2cd403a315f,0,136,136,31,1,fourthree,,,,,,,,,,,,,,,,,,,,,,,,,,,,,,,,,,,,,,,,,,,,,,,,,,,,,,,,,,,,,,,,,,,,,,,,,,,,,,,,,,,,,,,,,,,,,,,,,,,,,,,,,,,,,,,,,,,,,,,,,,,,,,,,,,,,,,,,,,,,,,,,,,,,,,,,,,,,,
,,,,,,5e37fef4d8843b000aeb1b8f,62c5392c567e3751bfbb4b06,2022-07-06_09h26.47.839,Colour_Asymmetry_Pilot,2022.1.3,Win32,60.22645146,62c50e9c1127f2cd403a315f,0,137,137,110,1,fourtwo,,,,,,,,,,,,,,,,,,,,,,,,,,,,,,,,,,,,,,,,,,,,,,,,,,,,,,,,,,,,,,,,,,,,,,,,,,,,,,,,,,,,,,,,,,,,,,,,,,,,,,,,,,,,,,,,,,,,,,,,,,,,,,,,,,,,,,,,,,,,,,,,,,,,,,,,,,,,,
,,,,,,5e37fef4d8843b000aeb1b8f,62c5392c567e3751bfbb4b06,2022-07-06_09h26.47.839,Colour_Asymmetry_Pilot,2022.1.3,Win32,60.22645146,62c50e9c1127f2cd403a315f,0,138,138,74,1,twoone,,,,,,,,,,,,,,,,,,,,,,,,,,,,,,,,,,,,,,,,,,,,,,,,,,,,,,,,,,,,,,,,,,,,,,,,,,,,,,,,,,,,,,,,,,,,,,,,,,,,,,,,,,,,,,,,,,,,,,,,,,,,,,,,,,,,,,,,,,,,,,,,,,,,,,,,,,,,,
,,,,,,5e37fef4d8843b000aeb1b8f,62c5392c567e3751bfbb4b06,2022-07-06_09h26.47.839,Colour_Asymmetry_Pilot,2022.1.3,Win32,60.22645146,62c50e9c1127f2cd403a315f,0,139,139,106,1,twoone,,,,,,,,,,,,,,,,,,,,,,,,,,,,,,,,,,,,,,,,,,,,,,,,,,,,,,,,,,,,,,,,,,,,,,,,,,,,,,,,,,,,,,,,,,,,,,,,,,,,,,,,,,,,,,,,,,,,,,,,,,,,,,,,,,,,,,,,,,,,,,,,,,,,,,,,,,,,,
,,,,,,5e37fef4d8843b000aeb1b8f,62c5392c567e3751bfbb4b06,2022-07-06_09h26.47.839,Colour_Asymmetry_Pilot,2022.1.3,Win32,60.22645146,62c50e9c1127f2cd403a315f,0,140,140,15,1,fourthree,,,,,,,,,,,,,,,,,,,,,,,,,,,,,,,,,,,,,,,,,,,,,,,,,,,,,,,,,,,,,,,,,,,,,,,,,,,,,,,,,,,,,,,,,,,,,,,,,,,,,,,,,,,,,,,,,,,,,,,,,,,,,,,,,,,,,,,,,,,,,,,,,,,,,,,,,,,,,
,,,,,,5e37fef4d8843b000aeb1b8f,62c5392c567e3751bfbb4b06,2022-07-06_09h26.47.839,Colour_Asymmetry_Pilot,2022.1.3,Win32,60.22645146,62c50e9c1127f2cd403a315f,0,141,141,100,1,threeone,,,,,,,,,,,,,,,,,,,,,,,,,,,,,,,,,,,,,,,,,,,,,,,,,,,,,,,,,,,,,,,,,,,,,,,,,,,,,,,,,,,,,,,,,,,,,,,,,,,,,,,,,,,,,,,,,,,,,,,,,,,,,,,,,,,,,,,,,,,,,,,,,,,,,,,,,,,,,
,,,,,,5e37fef4d8843b000aeb1b8f,62c5392c567e3751bfbb4b06,2022-07-06_09h26.47.839,Colour_Asymmetry_Pilot,2022.1.3,Win32,60.22645146,62c50e9c1127f2cd403a315f,0,142,142,98,1,twoone,,,,,,,,,,,,,,,,,,,,,,,,,,,,,,,,,,,,,,,,,,,,,,,,,,,,,,,,,,,,,,,,,,,,,,,,,,,,,,,,,,,,,,,,,,,,,,,,,,,,,,,,,,,,,,,,,,,,,,,,,,,,,,,,,,,,,,,,,,,,,,,,,,,,,,,,,,,,,
,,,,,,5e37fef4d8843b000aeb1b8f,62c5392c567e3751bfbb4b06,2022-07-06_09h26.47.839,Colour_Asymmetry_Pilot,2022.1.3,Win32,60.22645146,62c50e9c1127f2cd403a315f,0,143,143,16,1,onetwo,,,,,,,,,,,,,,,,,,,,,,,,,,,,,,,,,,,,,,,,,,,,,,,,,,,,,,,,,,,,,,,,,,,,,,,,,,,,,,,,,,,,,,,,,,,,,,,,,,,,,,,,,,,,,,,,,,,,,,,,,,,,,,,,,,,,,,,,,,,,,,,,,,,,,,,,,,,,,
,,,,,,5e37fef4d8843b000aeb1b8f,62c5392c567e3751bfbb4b06,2022-07-06_09h26.47.839,Colour_Asymmetry_Pilot,2022.1.3,Win32,60.22645146,62c50e9c1127f2cd403a315f,0,144,144,6,1,fourtwo,,,,,,,,,,,,,,,,,,,,,,,,,,,,,,,,,,,,,,,,,,,,,,,,,,,,,,,,,,,,,,,,,,,,,,,,,,,,,,,,,,,,,,,,,,,,,,,,,,,,,,,,,,,,,,,,,,,,,,,,,,,,,,,,,,,,,,,,,,,,,,,,,,,,,,,,,,,,,
,,,,,,5e37fef4d8843b000aeb1b8f,62c5392c567e3751bfbb4b06,2022-07-06_09h26.47.839,Colour_Asymmetry_Pilot,2022.1.3,Win32,60.22645146,62c50e9c1127f2cd403a315f,0,145,145,22,1,fourtwo,,,,,,,,,,,,,,,,,,,,,,,,,,,,,,,,,,,,,,,,,,,,,,,,,,,,,,,,,,,,,,,,,,,,,,,,,,,,,,,,,,,,,,,,,,,,,,,,,,,,,,,,,,,,,,,,,,,,,,,,,,,,,,,,,,,,,,,,,,,,,,,,,,,,,,,,,,,,,
,,,,,,5e37fef4d8843b000aeb1b8f,62c5392c567e3751bfbb4b06,2022-07-06_09h26.47.839,Colour_Asymmetry_Pilot,2022.1.3,Win32,60.22645146,62c50e9c1127f2cd403a315f,0,146,146,3,1,twofour,,,,,,,,,,,,,,,,,,,,,,,,,,,,,,,,,,,,,,,,,,,,,,,,,,,,,,,,,,,,,,,,,,,,,,,,,,,,,,,,,,,,,,,,,,,,,,,,,,,,,,,,,,,,,,,,,,,,,,,,,,,,,,,,,,,,,,,,,,,,,,,,,,,,,,,,,,,,,
,,,,,,5e37fef4d8843b000aeb1b8f,62c5392c567e3751bfbb4b06,2022-07-06_09h26.47.839,Colour_Asymmetry_Pilot,2022.1.3,Win32,60.22645146,62c50e9c1127f2cd403a315f,0,147,147,116,1,threeone,,,,,,,,,,,,,,,,,,,,,,,,,,,,,,,,,,,,,,,,,,,,,,,,,,,,,,,,,,,,,,,,,,,,,,,,,,,,,,,,,,,,,,,,,,,,,,,,,,,,,,,,,,,,,,,,,,,,,,,,,,,,,,,,,,,,,,,,,,,,,,,,,,,,,,,,,,,,,
,,,,,,5e37fef4d8843b000aeb1b8f,62c5392c567e3751bfbb4b06,2022-07-06_09h26.47.839,Colour_Asymmetry_Pilot,2022.1.3,Win32,60.22645146,62c50e9c1127f2cd403a315f,0,148,148,115,1,twofour,,,,,,,,,,,,,,,,,,,,,,,,,,,,,,,,,,,,,,,,,,,,,,,,,,,,,,,,,,,,,,,,,,,,,,,,,,,,,,,,,,,,,,,,,,,,,,,,,,,,,,,,,,,,,,,,,,,,,,,,,,,,,,,,,,,,,,,,,,,,,,,,,,,,,,,,,,,,,
,,,,,,5e37fef4d8843b000aeb1b8f,62c5392c567e3751bfbb4b06,2022-07-06_09h26.47.839,Colour_Asymmetry_Pilot,2022.1.3,Win32,60.22645146,62c50e9c1127f2cd403a315f,0,149,149,53,1,threefour,,,,,,,,,,,,,,,,,,,,,,,,,,,,,,,,,,,,,,,,,,,,,,,,,,,,,,,,,,,,,,,,,,,,,,,,,,,,,,,,,,,,,,,,,,,,,,,,,,,,,,,,,,,,,,,,,,,,,,,,,,,,,,,,,,,,,,,,,,,,,,,,,,,,,,,,,,,,,
,,,,,,5e37fef4d8843b000aeb1b8f,62c5392c567e3751bfbb4b06,2022-07-06_09h26.47.839,Colour_Asymmetry_Pilot,2022.1.3,Win32,60.22645146,62c50e9c1127f2cd403a315f,0,150,150,37,1,threefour,,,,,,,,,,,,,,,,,,,,,,,,,,,,,,,,,,,,,,,,,,,,,,,,,,,,,,,,,,,,,,,,,,,,,,,,,,,,,,,,,,,,,,,,,,,,,,,,,,,,,,,,,,,,,,,,,,,,,,,,,,,,,,,,,,,,,,,,,,,,,,,,,,,,,,,,,,,,,
,,,,,,5e37fef4d8843b000aeb1b8f,62c5392c567e3751bfbb4b06,2022-07-06_09h26.47.839,Colour_Asymmetry_Pilot,2022.1.3,Win32,60.22645146,62c50e9c1127f2cd403a315f,0,151,151,138,1,twoone,,,,,,,,,,,,,,,,,,,,,,,,,,,,,,,,,,,,,,,,,,,,,,,,,,,,,,,,,,,,,,,,,,,,,,,,,,,,,,,,,,,,,,,,,,,,,,,,,,,,,,,,,,,,,,,,,,,,,,,,,,,,,,,,,,,,,,,,,,,,,,,,,,,,,,,,,,,,,
,,,,,,5e37fef4d8843b000aeb1b8f,62c5392c567e3751bfbb4b06,2022-07-06_09h26.47.839,Colour_Asymmetry_Pilot,2022.1.3,Win32,60.22645146,62c50e9c1127f2cd403a315f,0,152,152,4,1,threeone,,,,,,,,,,,,,,,,,,,,,,,,,,,,,,,,,,,,,,,,,,,,,,,,,,,,,,,,,,,,,,,,,,,,,,,,,,,,,,,,,,,,,,,,,,,,,,,,,,,,,,,,,,,,,,,,,,,,,,,,,,,,,,,,,,,,,,,,,,,,,,,,,,,,,,,,,,,,,
,,,,,,5e37fef4d8843b000aeb1b8f,62c5392c567e3751bfbb4b06,2022-07-06_09h26.47.839,Colour_Asymmetry_Pilot,2022.1.3,Win32,60.22645146,62c50e9c1127f2cd403a315f,0,153,153,21,1,threefour,,,,,,,,,,,,,,,,,,,,,,,,,,,,,,,,,,,,,,,,,,,,,,,,,,,,,,,,,,,,,,,,,,,,,,,,,,,,,,,,,,,,,,,,,,,,,,,,,,,,,,,,,,,,,,,,,,,,,,,,,,,,,,,,,,,,,,,,,,,,,,,,,,,,,,,,,,,,,
,,,,,,5e37fef4d8843b000aeb1b8f,62c5392c567e3751bfbb4b06,2022-07-06_09h26.47.839,Colour_Asymmetry_Pilot,2022.1.3,Win32,60.22645146,62c50e9c1127f2cd403a315f,0,154,154,153,1,onethree,,,,,,,,,,,,,,,,,,,,,,,,,,,,,,,,,,,,,,,,,,,,,,,,,,,,,,,,,,,,,,,,,,,,,,,,,,,,,,,,,,,,,,,,,,,,,,,,,,,,,,,,,,,,,,,,,,,,,,,,,,,,,,,,,,,,,,,,,,,,,,,,,,,,,,,,,,,,,
,,,,,,5e37fef4d8843b000aeb1b8f,62c5392c567e3751bfbb4b06,2022-07-06_09h26.47.839,Colour_Asymmetry_Pilot,2022.1.3,Win32,60.22645146,62c50e9c1127f2cd403a315f,0,155,155,33,1,onethree,,,,,,,,,,,,,,,,,,,,,,,,,,,,,,,,,,,,,,,,,,,,,,,,,,,,,,,,,,,,,,,,,,,,,,,,,,,,,,,,,,,,,,,,,,,,,,,,,,,,,,,,,,,,,,,,,,,,,,,,,,,,,,,,,,,,,,,,,,,,,,,,,,,,,,,,,,,,,
,,,,,,5e37fef4d8843b000aeb1b8f,62c5392c567e3751bfbb4b06,2022-07-06_09h26.47.839,Colour_Asymmetry_Pilot,2022.1.3,Win32,60.22645146,62c50e9c1127f2cd403a315f,0,156,156,80,1,onetwo,,,,,,,,,,,,,,,,,,,,,,,,,,,,,,,,,,,,,,,,,,,,,,,,,,,,,,,,,,,,,,,,,,,,,,,,,,,,,,,,,,,,,,,,,,,,,,,,,,,,,,,,,,,,,,,,,,,,,,,,,,,,,,,,,,,,,,,,,,,,,,,,,,,,,,,,,,,,,
,,,,,,5e37fef4d8843b000aeb1b8f,62c5392c567e3751bfbb4b06,2022-07-06_09h26.47.839,Colour_Asymmetry_Pilot,2022.1.3,Win32,60.22645146,62c50e9c1127f2cd403a315f,0,157,157,20,1,threeone,,,,,,,,,,,,,,,,,,,,,,,,,,,,,,,,,,,,,,,,,,,,,,,,,,,,,,,,,,,,,,,,,,,,,,,,,,,,,,,,,,,,,,,,,,,,,,,,,,,,,,,,,,,,,,,,,,,,,,,,,,,,,,,,,,,,,,,,,,,,,,,,,,,,,,,,,,,,,
,,,,,,5e37fef4d8843b000aeb1b8f,62c5392c567e3751bfbb4b06,2022-07-06_09h26.47.839,Colour_Asymmetry_Pilot,2022.1.3,Win32,60.22645146,62c50e9c1127f2cd403a315f,0,158,158,61,1,threefour,,,,,,,,,,,,,,,,,,,,,,,,,,,,,,,,,,,,,,,,,,,,,,,,,,,,,,,,,,,,,,,,,,,,,,,,,,,,,,,,,,,,,,,,,,,,,,,,,,,,,,,,,,,,,,,,,,,,,,,,,,,,,,,,,,,,,,,,,,,,,,,,,,,,,,,,,,,,,
,,,,,,5e37fef4d8843b000aeb1b8f,62c5392c567e3751bfbb4b06,2022-07-06_09h26.47.839,Colour_Asymmetry_Pilot,2022.1.3,Win32,60.22645146,62c50e9c1127f2cd403a315f,0,159,159,137,1,onethree,,,,,,,,,,,,,,,,,,,,,,,,,,,,,,,,,,,,,,,,,,,,,,,,,,,,,,,,,,,,,,,,,,,,,,,,,,,,,,,,,,,,,,,,,,,,,,,,,,,,,,,,,,,,,,,,,,,,,,,,,,,,,,,,,,,,,,,,,,,,,,,,,,,,,,,,,,,,,
,,,,,,5e37fef4d8843b000aeb1b8f,62c5392c567e3751bfbb4b06,2022-07-06_09h26.47.839,Colour_Asymmetry_Pilot,2022.1.3,Win32,60.22645146,62c50e9c1127f2cd403a315f,0,160,160,62,1,fourtwo,,,,,,,,,,,,,,,,,,,,,,,,,,,,,,,,,,,,,,,,,,,,,,,,,,,,,,,,,,,,,,,,,,,,,,,,,,,,,,,,,,,,,,,,,,,,,,,,,,,,,,,,,,,,,,,,,,,,,,,,,,,,,,,,,,,,,,,,,,,,,,,,,,,,,,,,,,,,,
,,,,,,5e37fef4d8843b000aeb1b8f,62c5392c567e3751bfbb4b06,2022-07-06_09h26.47.839,Colour_Asymmetry_Pilot,2022.1.3,Win32,60.22645146,62c50e9c1127f2cd403a315f,0,161,161,131,1,twofour,,,,,,,,,,,,,,,,,,,,,,,,,,,,,,,,,,,,,,,,,,,,,,,,,,,,,,,,,,,,,,,,,,,,,,,,,,,,,,,,,,,,,,,,,,,,,,,,,,,,,,,,,,,,,,,,,,,,,,,,,,,,,,,,,,,,,,,,,,,,,,,,,,,,,,,,,,,,,
,,,,,,5e37fef4d8843b000aeb1b8f,62c5392c567e3751bfbb4b06,2022-07-06_09h26.47.839,Colour_Asymmetry_Pilot,2022.1.3,Win32,60.22645146,62c50e9c1127f2cd403a315f,,,,,,,space,1.2336,space,4.6732,space,19.6803,space,4.1651,space,1.6444,space,37.1025,"[0.4196,0.4665999999999999,0.3568]",fourtwo,"[0.23920000000000008,0.2704,0.16060000000000008]",4,22.6516,73.33337402,185.333313,1,0,0,response1disk_5,-10.66662598,4.333312988,1,0,0,rectangle_8,-10.66662598,4.333312988,1,0,0,4,-10.66662598,4.333312988,1,0,0,0,0,0,0,1,,,,,,,,,,,,,,,,,,,,,,,,,,,,,,,,,,,,,,,,,,,,,,,,,,,,,,,,,,,,,,,,,,,,,,,,,,,,,,,,,,,,,,,,,,,,,,,,,,,,,,,,,,,,,,,,
,,,,,,5e37fef4d8843b000aeb1b8f,62c5392c567e3751bfbb4b06,2022-07-06_09h26.47.839,Colour_Asymmetry_Pilot,2022.1.3,Win32,60.22645146,62c50e9c1127f2cd403a315f,,,,,,,,,,,,,,,,,,,"[0.37240000000000006,0.4980000000000002,-0.2864]",fourthree,"[-0.10599999999999998,-0.10599999999999998,0.5841999999999998]",-4,2.149,-74.66662598,151,1,0,0,response7disk_5,12,-1,1,0,0,rectangle_8,84,187,1,0,0,4,-12,-5,1,0,0,1,0,1,0,1,response1disk_7,7,rectangle_4,,,,,,,,,,,,,,,,,,,,,,,,,,,,,,,,,,,,,,,,,,,,,,,,,,,,,,,,,,,,,,,,,,,,,,,,,,,,,,,,,,,,,,,,,,,,,,,,,,,,,,,,,,,,,
,,,,,,5e37fef4d8843b000aeb1b8f,62c5392c567e3751bfbb4b06,2022-07-06_09h26.47.839,Colour_Asymmetry_Pilot,2022.1.3,Win32,60.22645146,62c50e9c1127f2cd403a315f,,,,,,,,,,,,,,,,,,,"[-0.45899999999999996,-0.3256,-0.9374]",onetwo,"[0.6625999999999999,0.4980000000000002,-0.357]",-4,1.6162,-78.66662598,173.666626,1,0,0,response7disk_5,4,-7.666687012,1,0,0,rectangle_8,4,-7.666687012,1,0,0,4,4,-7.666687012,1,0,0,2,0,2,0,1,,,,,,,,,,,,,,,,,,,,,,,,,,,,,,,,,,,,,,,,,,,,,,,,,,,,,,,,,,,,,,,,,,,,,,,,,,,,,,,,,,,,,,,,,,,,,,,,,,,,,,,,,,,,,,,,
,,,,,,5e37fef4d8843b000aeb1b8f,62c5392c567e3751bfbb4b06,2022-07-06_09h26.47.839,Colour_Asymmetry_Pilot,2022.1.3,Win32,60.22645146,62c50e9c1127f2cd403a315f,,,,,,,,,,,,,,,,,,,"[0.3568,-0.20799999999999996,-0.9844]",fourthree,"[-0.0040000000000000036,0.02739999999999987,-0.08239999999999992]",2,2.3154,148,-69,1,0,0,response3disk_5,2.666748047,-3.666687012,1,0,0,rectangle_8,2.666748047,-3.666687012,1,0,0,4,2.666748047,-3.666687012,1,0,0,3,0,3,0,1,,,,,,,,,,,,,,,,,,,,,,,,,,,,,,,,,,,,,,,,,,,,,,,,,,,,,,,,,,,,,,,,,,,,,,,,,,,,,,,,,,,,,,,,,,,,,,,,,,,,,,,,,,,,,,,,
,,,,,,5e37fef4d8843b000aeb1b8f,62c5392c567e3751bfbb4b06,2022-07-06_09h26.47.839,Colour_Asymmetry_Pilot,2022.1.3,Win32,60.22645146,62c50e9c1127f2cd403a315f,,,,,,,,,,,,,,,,,,,"[0.05879999999999996,0.2784,0.5841999999999998]",onetwo,"[-0.24719999999999998,-0.0354000000000001,0.3175999999999999]",4,1.5321,52,204.333313,1,0,0,response1disk_5,-18.66662598,-1,1,0,0,rectangle_8,73.33337402,195,1,0,0,4,-16,4.333312988,1,0,0,4,0,4,0,1,response1disk_7,7,rectangle_4,,,,,,,,,,,,,,,,,,,,,,,,,,,,,,,,,,,,,,,,,,,,,,,,,,,,,,,,,,,,,,,,,,,,,,,,,,,,,,,,,,,,,,,,,,,,,,,,,,,,,,,,,,,,,
,,,,,,5e37fef4d8843b000aeb1b8f,62c5392c567e3751bfbb4b06,2022-07-06_09h26.47.839,Colour_Asymmetry_Pilot,2022.1.3,Win32,60.22645146,62c50e9c1127f2cd403a315f,,,,,,,,,,,,,,,,,,,"[-0.17659999999999998,0.3253999999999999,0.19999999999999996]",fourthree,"[0.6547999999999998,-0.043199999999999905,-0.011800000000000033]",-4,1.3322,-65.33325195,148.333313,1,0,0,response7disk_5,20,-3.666687012,1,0,0,rectangle_8,20,-3.666687012,1,0,0,4,20,-3.666687012,1,0,0,5,0,5,0,1,,,,,,,,,,,,,,,,,,,,,,,,,,,,,,,,,,,,,,,,,,,,,,,,,,,,,,,,,,,,,,,,,,,,,,,,,,,,,,,,,,,,,,,,,,,,,,,,,,,,,,,,,,,,,,,,
,,,,,,5e37fef4d8843b000aeb1b8f,62c5392c567e3751bfbb4b06,2022-07-06_09h26.47.839,Colour_Asymmetry_Pilot,2022.1.3,Win32,60.22645146,62c50e9c1127f2cd403a315f,,,,,,,,,,,,,,,,,,,"[0.3881999999999999,-0.23939999999999995,-0.05040000000000011]",twofour,"[-0.9296,-0.12959999999999994,-0.043199999999999905]",-4,1.6509,-70.66662598,189.666626,1,0,0,response7disk_5,14.66674805,12.33331299,1,0,0,rectangle_8,14.66674805,12.33331299,1,0,0,4,14.66674805,12.33331299,1,0,0,6,0,6,0,1,,,,,,,,,,,,,,,,,,,,,,,,,,,,,,,,,,,,,,,,,,,,,,,,,,,,,,,,,,,,,,,,,,,,,,,,,,,,,,,,,,,,,,,,,,,,,,,,,,,,,,,,,,,,,,,,
,,,,,,5e37fef4d8843b000aeb1b8f,62c5392c567e3751bfbb4b06,2022-07-06_09h26.47.839,Colour_Asymmetry_Pilot,2022.1.3,Win32,60.22645146,62c50e9c1127f2cd403a315f,,,,,,,,,,,,,,,,,,,,twofour,,-3,1.5668,,,,,,,,,,,,,,,,,,,,,,,,,,,,,,,,space,520.0945,"[-0.34920000000000007,-0.702,-0.5216]","[0.23920000000000008,0.2704,0.16060000000000008]",-161.333252,68.33331299,1,0,0,response7disk,-13.33325195,-13,1,0,0,rectangle,-13.33325195,-13,1,0,0,,2,0.0031,0,-13.33325195,-13,1,0,0,0,0,0,102,1,21,second,,,,,,,,,,,,,,,,,,,,,,,,,,,,,,,,,,,,,,,,,,,,,,,,,,,,,,,,,,,,,,,,,,,,,,,,
,,,,,,5e37fef4d8843b000aeb1b8f,62c5392c567e3751bfbb4b06,2022-07-06_09h26.47.839,Colour_Asymmetry_Pilot,2022.1.3,Win32,60.22645146,62c50e9c1127f2cd403a315f,,,,,,,,,,,,,,,,,,,,twoone,,4,0.8485,,,,,,,,,,,,,,,,,,,,,,,,,,,,,,,,,,"[0.6547999999999998,-0.043199999999999905,-0.011800000000000033]","[0.7802,-0.23140000000000005,-0.20799999999999996]",81.33337402,201.666626,1,0,0,response1disk,2.666748047,8.333312988,1,0,0,rectangle,2.666748047,8.333312988,1,0,0,,3,0.0031,0,2.666748047,8.333312988,1,0,0,0,1,1,140,1,59,second,,,,,,,,,,,,,,,,,,,,,,,,,,,,,,,,,,,,,,,,,,,,,,,,,,,,,,,,,,,,,,,,,,,,,,,,
,,,,,,5e37fef4d8843b000aeb1b8f,62c5392c567e3751bfbb4b06,2022-07-06_09h26.47.839,Colour_Asymmetry_Pilot,2022.1.3,Win32,60.22645146,62c50e9c1127f2cd403a315f,,,,,,,,,,,,,,,,,,,,fourtwo,,-2,2.5811,,,,,,,,,,,,,,,,,,,,,,,,,,,,,,,,,,"[-0.17659999999999998,0.3253999999999999,0.19999999999999996]","[0.5528,0.7409999999999999,-0.71]",-146.666626,-61,1,0,0,response5disk,10.66674805,-6.333374023,1,0,0,rectangle,84,-189,1,0,0,1,1,30.7099,1,4,-18.33337402,1,0,0,0,2,2,11,1,11,first,response3disk_3,rectangle,,,,,,,,,,,,,,,,,,,,,,,,,,,,,,,,,,,,,,,,,,,,,,,,,,,,,,,,,,,,,,,,,,,,,,
,,,,,,5e37fef4d8843b000aeb1b8f,62c5392c567e3751bfbb4b06,2022-07-06_09h26.47.839,Colour_Asymmetry_Pilot,2022.1.3,Win32,60.22645146,62c50e9c1127f2cd403a315f,,,,,,,,,,,,,,,,,,,,fourthree,,-4,2.0325,,,,,,,,,,,,,,,,,,,,,,,,,,,,,,,,,,"[-0.050999999999999934,-0.6706000000000001,-0.804]","[0.9213999999999998,0.6391999999999998,-0.9922]",-76,172.333313,1,0,0,response7disk,9.333374023,5.666625977,1,0,0,rectangle,9.333374023,5.666625977,1,0,0,1,3,0.002,0,9.333374023,5.666625977,1,0,0,0,3,3,98,1,17,second,,,,,,,,,,,,,,,,,,,,,,,,,,,,,,,,,,,,,,,,,,,,,,,,,,,,,,,,,,,,,,,,,,,,,,,,
,,,,,,5e37fef4d8843b000aeb1b8f,62c5392c567e3751bfbb4b06,2022-07-06_09h26.47.839,Colour_Asymmetry_Pilot,2022.1.3,Win32,60.22645146,62c50e9c1127f2cd403a315f,,,,,,,,,,,,,,,,,,,,threeone,,-3,1.9979,,,,,,,,,,,,,,,,,,,,,,,,,,,,,,,,,,"[-0.9688,-0.4902000000000001,-0.12159999999999993]","[0.4196,0.4665999999999999,0.3568]",-180,89.66662598,1,0,0,response7disk,-16,-6.333374023,1,0,0,rectangle,-16,-6.333374023,1,0,0,1,3,0.0002,0,-16,-6.333374023,1,0,0,0,4,4,42,1,42,first,,,,,,,,,,,,,,,,,,,,,,,,,,,,,,,,,,,,,,,,,,,,,,,,,,,,,,,,,,,,,,,,,,,,,,,,
,,,,,,5e37fef4d8843b000aeb1b8f,62c5392c567e3751bfbb4b06,2022-07-06_09h26.47.839,Colour_Asymmetry_Pilot,2022.1.3,Win32,60.22645146,62c50e9c1127f2cd403a315f,,,,,,,,,,,,,,,,,,,,onethree,,-2,2.9142,,,,,,,,,,,,,,,,,,,,,,,,,,,,,,,,,,"[0.7018,0.7176,0.6155999999999999]","[-0.09019999999999995,0.44300000000000006,0.5371999999999999]",-176,-63.66668701,1,0,0,response5disk,60,4.333312988,1,0,0,rectangle,60,4.333312988,1,0,0,1,2,0.0032,0,60,4.333312988,1,0,0,0,5,5,96,1,15,second,,,,,,,,,,,,,,,,,,,,,,,,,,,,,,,,,,,,,,,,,,,,,,,,,,,,,,,,,,,,,,,,,,,,,,,,
,,,,,,5e37fef4d8843b000aeb1b8f,62c5392c567e3751bfbb4b06,2022-07-06_09h26.47.839,Colour_Asymmetry_Pilot,2022.1.3,Win32,60.22645146,62c50e9c1127f2cd403a315f,,,,,,,,,,,,,,,,,,,,onetwo,,1,2.382,,,,,,,,,,,,,,,,,,,,,,,,,,,,,,,,,,"[-0.9688,-0.38039999999999996,-0.41979999999999995]","[-0.34920000000000007,-0.702,-0.5216]",89.33337402,-139.666687,1,0,0,response3disk,-20,8.333312988,1,0,0,rectangle,-20,8.333312988,1,0,0,1,1,0.0042,0,-20,8.333312988,1,0,0,0,6,6,88,1,7,second,,,,,,,,,,,,,,,,,,,,,,,,,,,,,,,,,,,,,,,,,,,,,,,,,,,,,,,,,,,,,,,,,,,,,,,,
,,,,,,5e37fef4d8843b000aeb1b8f,62c5392c567e3751bfbb4b06,2022-07-06_09h26.47.839,Colour_Asymmetry_Pilot,2022.1.3,Win32,60.22645146,62c50e9c1127f2cd403a315f,,,,,,,,,,,,,,,,,,,,onethree,,-4,1.4813,,,,,,,,,,,,,,,,,,,,,,,,,,,,,,,,,,"[-0.24719999999999998,0.5213999999999999,-0.12959999999999994]","[0.18419999999999992,-0.4276,-0.404]",-72,165.666626,1,0,0,response7disk,18.66674805,8.333312988,1,0,0,rectangle,18.66674805,8.333312988,1,0,0,1,3,0.0028,0,18.66674805,8.333312988,1,0,0,0,7,7,2,1,2,first,,,,,,,,,,,,,,,,,,,,,,,,,,,,,,,,,,,,,,,,,,,,,,,,,,,,,,,,,,,,,,,,,,,,,,,,
,,,,,,5e37fef4d8843b000aeb1b8f,62c5392c567e3751bfbb4b06,2022-07-06_09h26.47.839,Colour_Asymmetry_Pilot,2022.1.3,Win32,60.22645146,62c50e9c1127f2cd403a315f,,,,,,,,,,,,,,,,,,,,twoone,,-4,1.382,,,,,,,,,,,,,,,,,,,,,,,,,,,,,,,,,,"[0.9213999999999998,0.6391999999999998,-0.9922]","[-0.30200000000000005,0.14500000000000002,0.2784]",-58.66662598,169.666626,1,0,0,response7disk,-5.333251953,-2.333374023,1,0,0,rectangle,-5.333251953,-2.333374023,1,0,0,1,2,0.0018,0,-5.333251953,-2.333374023,1,0,0,0,8,8,14,1,14,first,,,,,,,,,,,,,,,,,,,,,,,,,,,,,,,,,,,,,,,,,,,,,,,,,,,,,,,,,,,,,,,,,,,,,,,,
,,,,,,5e37fef4d8843b000aeb1b8f,62c5392c567e3751bfbb4b06,2022-07-06_09h26.47.839,Colour_Asymmetry_Pilot,2022.1.3,Win32,60.22645146,62c50e9c1127f2cd403a315f,,,,,,,,,,,,,,,,,,,,onethree,,-3,3.4311,,,,,,,,,,,,,,,,,,,,,,,,,,,,,,,,,,"[0.7018,0.7802,-0.16079999999999994]","[-0.9766,-0.34920000000000007,0.2156]",-141.333252,69.66662598,1,0,0,response7disk,-14.66662598,-1,1,0,0,rectangle,-14.66662598,-1,1,0,0,1,3,0.0034,0,-14.66662598,-1,1,0,0,0,9,9,157,1,76,second,,,,,,,,,,,,,,,,,,,,,,,,,,,,,,,,,,,,,,,,,,,,,,,,,,,,,,,,,,,,,,,,,,,,,,,,
,,,,,,5e37fef4d8843b000aeb1b8f,62c5392c567e3751bfbb4b06,2022-07-06_09h26.47.839,Colour_Asymmetry_Pilot,2022.1.3,Win32,60.22645146,62c50e9c1127f2cd403a315f,,,,,,,,,,,,,,,,,,,,onetwo,,-4,0.9826,,,,,,,,,,,,,,,,,,,,,,,,,,,,,,,,,,"[-0.34920000000000007,-0.702,-0.5216]","[-0.9688,-0.38039999999999996,-0.41979999999999995]",-84,124.333313,1,0,0,response7disk,-26.66662598,13.66662598,1,0,0,rectangle,-26.66662598,13.66662598,1,0,0,1,3,0.0008,0,-26.66662598,13.66662598,1,0,0,0,10,10,7,1,7,first,,,,,,,,,,,,,,,,,,,,,,,,,,,,,,,,,,,,,,,,,,,,,,,,,,,,,,,,,,,,,,,,,,,,,,,,
,,,,,,5e37fef4d8843b000aeb1b8f,62c5392c567e3751bfbb4b06,2022-07-06_09h26.47.839,Colour_Asymmetry_Pilot,2022.1.3,Win32,60.22645146,62c50e9c1127f2cd403a315f,,,,,,,,,,,,,,,,,,,,onethree,,-4,0.5994,,,,,,,,,,,,,,,,,,,,,,,,,,,,,,,,,,"[0.12939999999999996,-0.2864,0.3253999999999999]","[0.11359999999999992,0.6312,0.5213999999999999]",-92,151,1,0,0,response7disk,-29.33325195,12.33331299,1,0,0,rectangle,-29.33325195,12.33331299,1,0,0,1,2,0.002,0,-29.33325195,12.33331299,1,0,0,0,11,11,31,1,31,first,,,,,,,,,,,,,,,,,,,,,,,,,,,,,,,,,,,,,,,,,,,,,,,,,,,,,,,,,,,,,,,,,,,,,,,,
,,,,,,5e37fef4d8843b000aeb1b8f,62c5392c567e3751bfbb4b06,2022-07-06_09h26.47.839,Colour_Asymmetry_Pilot,2022.1.3,Win32,60.22645146,62c50e9c1127f2cd403a315f,,,,,,,,,,,,,,,,,,,,fourtwo,,-2,2.834,,,,,,,,,,,,,,,,,,,,,,,,,,,,,,,,,,"[0.9372,0.20779999999999998,0.2704]","[0.796,0.2156,-0.27859999999999996]",-166.666626,-71.66668701,1,0,0,response5disk,18.66674805,8.333312988,1,0,0,rectangle,18.66674805,8.333312988,1,0,0,1,2,0.0007,0,18.66674805,8.333312988,1,0,0,0,12,12,49,1,49,first,,,,,,,,,,,,,,,,,,,,,,,,,,,,,,,,,,,,,,,,,,,,,,,,,,,,,,,,,,,,,,,,,,,,,,,,
,,,,,,5e37fef4d8843b000aeb1b8f,62c5392c567e3751bfbb4b06,2022-07-06_09h26.47.839,Colour_Asymmetry_Pilot,2022.1.3,Win32,60.22645146,62c50e9c1127f2cd403a315f,,,,,,,,,,,,,,,,,,,,twoone,,-4,0.4665,,,,,,,,,,,,,,,,,,,,,,,,,,,,,,,,,,"[-0.17659999999999998,-0.2864,-0.8354]","[-0.26280000000000003,-0.4746,-0.2158]",-81.33325195,173.666626,1,0,0,response7disk,-13.33325195,-18.33337402,1,0,0,rectangle,-13.33325195,-18.33337402,1,0,0,1,1,0.0028,0,-13.33325195,-18.33337402,1,0,0,0,13,13,29,1,29,first,,,,,,,,,,,,,,,,,,,,,,,,,,,,,,,,,,,,,,,,,,,,,,,,,,,,,,,,,,,,,,,,,,,,,,,,
,,,,,,5e37fef4d8843b000aeb1b8f,62c5392c567e3751bfbb4b06,2022-07-06_09h26.47.839,Colour_Asymmetry_Pilot,2022.1.3,Win32,60.22645146,62c50e9c1127f2cd403a315f,,,,,,,,,,,,,,,,,,,,fourtwo,,-4,0.5998,,,,,,,,,,,,,,,,,,,,,,,,,,,,,,,,,,"[-0.5452,-0.608,0.2470000000000001]","[0.22340000000000004,-0.9296,-0.7884]",-69.33325195,112.333313,1,0,0,response7disk,-16,8.333312988,1,0,0,rectangle,-16,8.333312988,1,0,0,1,1,0.0009,0,-16,8.333312988,1,0,0,0,14,14,61,1,61,first,,,,,,,,,,,,,,,,,,,,,,,,,,,,,,,,,,,,,,,,,,,,,,,,,,,,,,,,,,,,,,,,,,,,,,,,
