trials.thisRepN,trials.thisTrialN,trials.thisN,trials.thisIndex,trials.ran,Colourcodes,participant,session,date,expName,psychopyVersion,OS,frameRate,study_id,trials_4.thisRepN,trials_4.thisTrialN,trials_4.thisN,trials_4.thisIndex,trials_4.ran,StimulusPos,key_resp.keys,key_resp.rt,key_resp_2.keys,key_resp_2.rt,key_resp_15.keys,key_resp_15.rt,key_resp_17.keys,key_resp_17.rt,key_resp_9.keys,key_resp_9.rt,key_resp_10.keys,key_resp_10.rt,Circle1_col,Ecc,Circle2_col,similarity,response_time,mouse_5.x,mouse_5.y,mouse_5.leftButton,mouse_5.midButton,mouse_5.rightButton,mouse_5.clicked_name,mouse_10.x,mouse_10.y,mouse_10.leftButton,mouse_10.midButton,mouse_10.rightButton,mouse_10.clicked_name,mouse_7.x,mouse_7.y,mouse_7.leftButton,mouse_7.midButton,mouse_7.rightButton,catchnumberprac,mouse_6.x,mouse_6.y,mouse_6.leftButton,mouse_6.midButton,mouse_6.rightButton,duringprac.thisRepN,duringprac.thisTrialN,duringprac.thisN,duringprac.thisIndex,duringprac.ran,mouse_7.clicked_name,catchprac,mouse_6.clicked_name,key_resp_22.keys,key_resp_22.rt,Circle1_colour,Circle2_colour,mouse.x,mouse.y,mouse.leftButton,mouse.midButton,mouse.rightButton,mouse.clicked_name,mouse_2.x,mouse_2.y,mouse_2.leftButton,mouse_2.midButton,mouse_2.rightButton,mouse_2.clicked_name,mouse_3.x,mouse_3.y,mouse_3.leftButton,mouse_3.midButton,mouse_3.rightButton,catchresponse,catchnumber,response_time_catch,Catch,mouse_11.x,mouse_11.y,mouse_11.leftButton,mouse_11.midButton,mouse_11.rightButton,trials_2.thisRepN,trials_2.thisTrialN,trials_2.thisN,trials_2.thisIndex,trials_2.ran,Colourpair,Temporder,mouse_3.clicked_name,mouse_11.clicked_name,trials_3.thisRepN,trials_3.thisTrialN,trials_3.thisN,trials_3.thisIndex,trials_3.ran,key_resp_instr_Ishi.keys,key_resp_instr_Ishi.rt,Ishi_trial_keyresp.keys,Ishi_textbox.text,Ishi_mouse.x,Ishi_mouse.y,Ishi_mouse.leftButton,Ishi_mouse.midButton,Ishi_mouse.rightButton,Ishi_mouse.clicked_name,Ishi_loop.thisRepN,Ishi_loop.thisTrialN,Ishi_loop.thisN,Ishi_loop.thisIndex,Ishi_loop.ran,imageaddress,textbox.text,mouse_4.x,mouse_4.y,mouse_4.leftButton,mouse_4.midButton,mouse_4.rightButton,mouse_4.clicked_name,textbox_2.text,mouse_8.x,mouse_8.y,mouse_8.leftButton,mouse_8.midButton,mouse_8.rightButton,mouse_8.clicked_name,textbox_3.text,mouse_9.x,mouse_9.y,mouse_9.leftButton,mouse_9.midButton,mouse_9.rightButton,mouse_9.clicked_name,textbox_4.text,mouse_12.x,mouse_12.y,mouse_12.leftButton,mouse_12.midButton,mouse_12.rightButton,mouse_12.clicked_name,textbox_5.text,mouse_13.x,mouse_13.y,mouse_13.leftButton,mouse_13.midButton,mouse_13.rightButton,mouse_13.clicked_name,textbox_6.text,mouse_14.x,mouse_14.y,mouse_14.leftButton,mouse_14.midButton,mouse_14.rightButton,mouse_14.clicked_name,textbox_7.text,mouse_15.x,mouse_15.y,mouse_15.leftButton,mouse_15.midButton,mouse_15.rightButton,mouse_15.clicked_name
0,0,0,6,1,,5f5aa7a073b8271a0ab0947c,62c53a0a7b979cb36aef82e5,2022-07-06_09h31.53.965,Colour_Asymmetry_Pilot,2022.1.3,Win32,144.0092166,62c50e9c1127f2cd403a315f,,,,,,,,,,,,,,,,,,,,,,,,,,,,,,,,,,,,,,,,,,,,,,,,,,,,,,,,,,,,,,,,,,,,,,,,,,,,,,,,,,,,,,,,,,,,,,,,,,,,,,,,,,,,,,,,,,,,,,,,,,,,,,,,,,,,,,,,,,,,,,,,,,,,,,,,,,,,,,,,,,,
0,1,1,76,1,,5f5aa7a073b8271a0ab0947c,62c53a0a7b979cb36aef82e5,2022-07-06_09h31.53.965,Colour_Asymmetry_Pilot,2022.1.3,Win32,144.0092166,62c50e9c1127f2cd403a315f,,,,,,,,,,,,,,,,,,,,,,,,,,,,,,,,,,,,,,,,,,,,,,,,,,,,,,,,,,,,,,,,,,,,,,,,,,,,,,,,,,,,,,,,,,,,,,,,,,,,,,,,,,,,,,,,,,,,,,,,,,,,,,,,,,,,,,,,,,,,,,,,,,,,,,,,,,,,,,,,,,,
0,2,2,79,1,,5f5aa7a073b8271a0ab0947c,62c53a0a7b979cb36aef82e5,2022-07-06_09h31.53.965,Colour_Asymmetry_Pilot,2022.1.3,Win32,144.0092166,62c50e9c1127f2cd403a315f,,,,,,,,,,,,,,,,,,,,,,,,,,,,,,,,,,,,,,,,,,,,,,,,,,,,,,,,,,,,,,,,,,,,,,,,,,,,,,,,,,,,,,,,,,,,,,,,,,,,,,,,,,,,,,,,,,,,,,,,,,,,,,,,,,,,,,,,,,,,,,,,,,,,,,,,,,,,,,,,,,,
0,3,3,26,1,,5f5aa7a073b8271a0ab0947c,62c53a0a7b979cb36aef82e5,2022-07-06_09h31.53.965,Colour_Asymmetry_Pilot,2022.1.3,Win32,144.0092166,62c50e9c1127f2cd403a315f,,,,,,,,,,,,,,,,,,,,,,,,,,,,,,,,,,,,,,,,,,,,,,,,,,,,,,,,,,,,,,,,,,,,,,,,,,,,,,,,,,,,,,,,,,,,,,,,,,,,,,,,,,,,,,,,,,,,,,,,,,,,,,,,,,,,,,,,,,,,,,,,,,,,,,,,,,,,,,,,,,,
0,4,4,56,1,,5f5aa7a073b8271a0ab0947c,62c53a0a7b979cb36aef82e5,2022-07-06_09h31.53.965,Colour_Asymmetry_Pilot,2022.1.3,Win32,144.0092166,62c50e9c1127f2cd403a315f,,,,,,,,,,,,,,,,,,,,,,,,,,,,,,,,,,,,,,,,,,,,,,,,,,,,,,,,,,,,,,,,,,,,,,,,,,,,,,,,,,,,,,,,,,,,,,,,,,,,,,,,,,,,,,,,,,,,,,,,,,,,,,,,,,,,,,,,,,,,,,,,,,,,,,,,,,,,,,,,,,,
0,5,5,87,1,,5f5aa7a073b8271a0ab0947c,62c53a0a7b979cb36aef82e5,2022-07-06_09h31.53.965,Colour_Asymmetry_Pilot,2022.1.3,Win32,144.0092166,62c50e9c1127f2cd403a315f,,,,,,,,,,,,,,,,,,,,,,,,,,,,,,,,,,,,,,,,,,,,,,,,,,,,,,,,,,,,,,,,,,,,,,,,,,,,,,,,,,,,,,,,,,,,,,,,,,,,,,,,,,,,,,,,,,,,,,,,,,,,,,,,,,,,,,,,,,,,,,,,,,,,,,,,,,,,,,,,,,,
0,6,6,13,1,,5f5aa7a073b8271a0ab0947c,62c53a0a7b979cb36aef82e5,2022-07-06_09h31.53.965,Colour_Asymmetry_Pilot,2022.1.3,Win32,144.0092166,62c50e9c1127f2cd403a315f,,,,,,,,,,,,,,,,,,,,,,,,,,,,,,,,,,,,,,,,,,,,,,,,,,,,,,,,,,,,,,,,,,,,,,,,,,,,,,,,,,,,,,,,,,,,,,,,,,,,,,,,,,,,,,,,,,,,,,,,,,,,,,,,,,,,,,,,,,,,,,,,,,,,,,,,,,,,,,,,,,,
0,7,7,64,1,,5f5aa7a073b8271a0ab0947c,62c53a0a7b979cb36aef82e5,2022-07-06_09h31.53.965,Colour_Asymmetry_Pilot,2022.1.3,Win32,144.0092166,62c50e9c1127f2cd403a315f,,,,,,,,,,,,,,,,,,,,,,,,,,,,,,,,,,,,,,,,,,,,,,,,,,,,,,,,,,,,,,,,,,,,,,,,,,,,,,,,,,,,,,,,,,,,,,,,,,,,,,,,,,,,,,,,,,,,,,,,,,,,,,,,,,,,,,,,,,,,,,,,,,,,,,,,,,,,,,,,,,,
0,8,8,91,1,,5f5aa7a073b8271a0ab0947c,62c53a0a7b979cb36aef82e5,2022-07-06_09h31.53.965,Colour_Asymmetry_Pilot,2022.1.3,Win32,144.0092166,62c50e9c1127f2cd403a315f,,,,,,,,,,,,,,,,,,,,,,,,,,,,,,,,,,,,,,,,,,,,,,,,,,,,,,,,,,,,,,,,,,,,,,,,,,,,,,,,,,,,,,,,,,,,,,,,,,,,,,,,,,,,,,,,,,,,,,,,,,,,,,,,,,,,,,,,,,,,,,,,,,,,,,,,,,,,,,,,,,,
0,9,9,40,1,,5f5aa7a073b8271a0ab0947c,62c53a0a7b979cb36aef82e5,2022-07-06_09h31.53.965,Colour_Asymmetry_Pilot,2022.1.3,Win32,144.0092166,62c50e9c1127f2cd403a315f,,,,,,,,,,,,,,,,,,,,,,,,,,,,,,,,,,,,,,,,,,,,,,,,,,,,,,,,,,,,,,,,,,,,,,,,,,,,,,,,,,,,,,,,,,,,,,,,,,,,,,,,,,,,,,,,,,,,,,,,,,,,,,,,,,,,,,,,,,,,,,,,,,,,,,,,,,,,,,,,,,,
0,10,10,60,1,,5f5aa7a073b8271a0ab0947c,62c53a0a7b979cb36aef82e5,2022-07-06_09h31.53.965,Colour_Asymmetry_Pilot,2022.1.3,Win32,144.0092166,62c50e9c1127f2cd403a315f,,,,,,,,,,,,,,,,,,,,,,,,,,,,,,,,,,,,,,,,,,,,,,,,,,,,,,,,,,,,,,,,,,,,,,,,,,,,,,,,,,,,,,,,,,,,,,,,,,,,,,,,,,,,,,,,,,,,,,,,,,,,,,,,,,,,,,,,,,,,,,,,,,,,,,,,,,,,,,,,,,,
0,11,11,30,1,,5f5aa7a073b8271a0ab0947c,62c53a0a7b979cb36aef82e5,2022-07-06_09h31.53.965,Colour_Asymmetry_Pilot,2022.1.3,Win32,144.0092166,62c50e9c1127f2cd403a315f,,,,,,,,,,,,,,,,,,,,,,,,,,,,,,,,,,,,,,,,,,,,,,,,,,,,,,,,,,,,,,,,,,,,,,,,,,,,,,,,,,,,,,,,,,,,,,,,,,,,,,,,,,,,,,,,,,,,,,,,,,,,,,,,,,,,,,,,,,,,,,,,,,,,,,,,,,,,,,,,,,,
0,12,12,8,1,,5f5aa7a073b8271a0ab0947c,62c53a0a7b979cb36aef82e5,2022-07-06_09h31.53.965,Colour_Asymmetry_Pilot,2022.1.3,Win32,144.0092166,62c50e9c1127f2cd403a315f,,,,,,,,,,,,,,,,,,,,,,,,,,,,,,,,,,,,,,,,,,,,,,,,,,,,,,,,,,,,,,,,,,,,,,,,,,,,,,,,,,,,,,,,,,,,,,,,,,,,,,,,,,,,,,,,,,,,,,,,,,,,,,,,,,,,,,,,,,,,,,,,,,,,,,,,,,,,,,,,,,,
0,13,13,17,1,,5f5aa7a073b8271a0ab0947c,62c53a0a7b979cb36aef82e5,2022-07-06_09h31.53.965,Colour_Asymmetry_Pilot,2022.1.3,Win32,144.0092166,62c50e9c1127f2cd403a315f,,,,,,,,,,,,,,,,,,,,,,,,,,,,,,,,,,,,,,,,,,,,,,,,,,,,,,,,,,,,,,,,,,,,,,,,,,,,,,,,,,,,,,,,,,,,,,,,,,,,,,,,,,,,,,,,,,,,,,,,,,,,,,,,,,,,,,,,,,,,,,,,,,,,,,,,,,,,,,,,,,,
0,14,14,23,1,,5f5aa7a073b8271a0ab0947c,62c53a0a7b979cb36aef82e5,2022-07-06_09h31.53.965,Colour_Asymmetry_Pilot,2022.1.3,Win32,144.0092166,62c50e9c1127f2cd403a315f,,,,,,,,,,,,,,,,,,,,,,,,,,,,,,,,,,,,,,,,,,,,,,,,,,,,,,,,,,,,,,,,,,,,,,,,,,,,,,,,,,,,,,,,,,,,,,,,,,,,,,,,,,,,,,,,,,,,,,,,,,,,,,,,,,,,,,,,,,,,,,,,,,,,,,,,,,,,,,,,,,,
0,15,15,1,1,,5f5aa7a073b8271a0ab0947c,62c53a0a7b979cb36aef82e5,2022-07-06_09h31.53.965,Colour_Asymmetry_Pilot,2022.1.3,Win32,144.0092166,62c50e9c1127f2cd403a315f,,,,,,,,,,,,,,,,,,,,,,,,,,,,,,,,,,,,,,,,,,,,,,,,,,,,,,,,,,,,,,,,,,,,,,,,,,,,,,,,,,,,,,,,,,,,,,,,,,,,,,,,,,,,,,,,,,,,,,,,,,,,,,,,,,,,,,,,,,,,,,,,,,,,,,,,,,,,,,,,,,,
0,16,16,77,1,,5f5aa7a073b8271a0ab0947c,62c53a0a7b979cb36aef82e5,2022-07-06_09h31.53.965,Colour_Asymmetry_Pilot,2022.1.3,Win32,144.0092166,62c50e9c1127f2cd403a315f,,,,,,,,,,,,,,,,,,,,,,,,,,,,,,,,,,,,,,,,,,,,,,,,,,,,,,,,,,,,,,,,,,,,,,,,,,,,,,,,,,,,,,,,,,,,,,,,,,,,,,,,,,,,,,,,,,,,,,,,,,,,,,,,,,,,,,,,,,,,,,,,,,,,,,,,,,,,,,,,,,,
0,17,17,88,1,,5f5aa7a073b8271a0ab0947c,62c53a0a7b979cb36aef82e5,2022-07-06_09h31.53.965,Colour_Asymmetry_Pilot,2022.1.3,Win32,144.0092166,62c50e9c1127f2cd403a315f,,,,,,,,,,,,,,,,,,,,,,,,,,,,,,,,,,,,,,,,,,,,,,,,,,,,,,,,,,,,,,,,,,,,,,,,,,,,,,,,,,,,,,,,,,,,,,,,,,,,,,,,,,,,,,,,,,,,,,,,,,,,,,,,,,,,,,,,,,,,,,,,,,,,,,,,,,,,,,,,,,,
0,18,18,90,1,,5f5aa7a073b8271a0ab0947c,62c53a0a7b979cb36aef82e5,2022-07-06_09h31.53.965,Colour_Asymmetry_Pilot,2022.1.3,Win32,144.0092166,62c50e9c1127f2cd403a315f,,,,,,,,,,,,,,,,,,,,,,,,,,,,,,,,,,,,,,,,,,,,,,,,,,,,,,,,,,,,,,,,,,,,,,,,,,,,,,,,,,,,,,,,,,,,,,,,,,,,,,,,,,,,,,,,,,,,,,,,,,,,,,,,,,,,,,,,,,,,,,,,,,,,,,,,,,,,,,,,,,,
0,19,19,14,1,,5f5aa7a073b8271a0ab0947c,62c53a0a7b979cb36aef82e5,2022-07-06_09h31.53.965,Colour_Asymmetry_Pilot,2022.1.3,Win32,144.0092166,62c50e9c1127f2cd403a315f,,,,,,,,,,,,,,,,,,,,,,,,,,,,,,,,,,,,,,,,,,,,,,,,,,,,,,,,,,,,,,,,,,,,,,,,,,,,,,,,,,,,,,,,,,,,,,,,,,,,,,,,,,,,,,,,,,,,,,,,,,,,,,,,,,,,,,,,,,,,,,,,,,,,,,,,,,,,,,,,,,,
0,20,20,70,1,,5f5aa7a073b8271a0ab0947c,62c53a0a7b979cb36aef82e5,2022-07-06_09h31.53.965,Colour_Asymmetry_Pilot,2022.1.3,Win32,144.0092166,62c50e9c1127f2cd403a315f,,,,,,,,,,,,,,,,,,,,,,,,,,,,,,,,,,,,,,,,,,,,,,,,,,,,,,,,,,,,,,,,,,,,,,,,,,,,,,,,,,,,,,,,,,,,,,,,,,,,,,,,,,,,,,,,,,,,,,,,,,,,,,,,,,,,,,,,,,,,,,,,,,,,,,,,,,,,,,,,,,,
0,21,21,75,1,,5f5aa7a073b8271a0ab0947c,62c53a0a7b979cb36aef82e5,2022-07-06_09h31.53.965,Colour_Asymmetry_Pilot,2022.1.3,Win32,144.0092166,62c50e9c1127f2cd403a315f,,,,,,,,,,,,,,,,,,,,,,,,,,,,,,,,,,,,,,,,,,,,,,,,,,,,,,,,,,,,,,,,,,,,,,,,,,,,,,,,,,,,,,,,,,,,,,,,,,,,,,,,,,,,,,,,,,,,,,,,,,,,,,,,,,,,,,,,,,,,,,,,,,,,,,,,,,,,,,,,,,,
0,22,22,32,1,,5f5aa7a073b8271a0ab0947c,62c53a0a7b979cb36aef82e5,2022-07-06_09h31.53.965,Colour_Asymmetry_Pilot,2022.1.3,Win32,144.0092166,62c50e9c1127f2cd403a315f,,,,,,,,,,,,,,,,,,,,,,,,,,,,,,,,,,,,,,,,,,,,,,,,,,,,,,,,,,,,,,,,,,,,,,,,,,,,,,,,,,,,,,,,,,,,,,,,,,,,,,,,,,,,,,,,,,,,,,,,,,,,,,,,,,,,,,,,,,,,,,,,,,,,,,,,,,,,,,,,,,,
0,23,23,5,1,,5f5aa7a073b8271a0ab0947c,62c53a0a7b979cb36aef82e5,2022-07-06_09h31.53.965,Colour_Asymmetry_Pilot,2022.1.3,Win32,144.0092166,62c50e9c1127f2cd403a315f,,,,,,,,,,,,,,,,,,,,,,,,,,,,,,,,,,,,,,,,,,,,,,,,,,,,,,,,,,,,,,,,,,,,,,,,,,,,,,,,,,,,,,,,,,,,,,,,,,,,,,,,,,,,,,,,,,,,,,,,,,,,,,,,,,,,,,,,,,,,,,,,,,,,,,,,,,,,,,,,,,,
0,24,24,50,1,,5f5aa7a073b8271a0ab0947c,62c53a0a7b979cb36aef82e5,2022-07-06_09h31.53.965,Colour_Asymmetry_Pilot,2022.1.3,Win32,144.0092166,62c50e9c1127f2cd403a315f,,,,,,,,,,,,,,,,,,,,,,,,,,,,,,,,,,,,,,,,,,,,,,,,,,,,,,,,,,,,,,,,,,,,,,,,,,,,,,,,,,,,,,,,,,,,,,,,,,,,,,,,,,,,,,,,,,,,,,,,,,,,,,,,,,,,,,,,,,,,,,,,,,,,,,,,,,,,,,,,,,,
0,25,25,39,1,,5f5aa7a073b8271a0ab0947c,62c53a0a7b979cb36aef82e5,2022-07-06_09h31.53.965,Colour_Asymmetry_Pilot,2022.1.3,Win32,144.0092166,62c50e9c1127f2cd403a315f,,,,,,,,,,,,,,,,,,,,,,,,,,,,,,,,,,,,,,,,,,,,,,,,,,,,,,,,,,,,,,,,,,,,,,,,,,,,,,,,,,,,,,,,,,,,,,,,,,,,,,,,,,,,,,,,,,,,,,,,,,,,,,,,,,,,,,,,,,,,,,,,,,,,,,,,,,,,,,,,,,,
0,26,26,25,1,,5f5aa7a073b8271a0ab0947c,62c53a0a7b979cb36aef82e5,2022-07-06_09h31.53.965,Colour_Asymmetry_Pilot,2022.1.3,Win32,144.0092166,62c50e9c1127f2cd403a315f,,,,,,,,,,,,,,,,,,,,,,,,,,,,,,,,,,,,,,,,,,,,,,,,,,,,,,,,,,,,,,,,,,,,,,,,,,,,,,,,,,,,,,,,,,,,,,,,,,,,,,,,,,,,,,,,,,,,,,,,,,,,,,,,,,,,,,,,,,,,,,,,,,,,,,,,,,,,,,,,,,,
0,27,27,41,1,,5f5aa7a073b8271a0ab0947c,62c53a0a7b979cb36aef82e5,2022-07-06_09h31.53.965,Colour_Asymmetry_Pilot,2022.1.3,Win32,144.0092166,62c50e9c1127f2cd403a315f,,,,,,,,,,,,,,,,,,,,,,,,,,,,,,,,,,,,,,,,,,,,,,,,,,,,,,,,,,,,,,,,,,,,,,,,,,,,,,,,,,,,,,,,,,,,,,,,,,,,,,,,,,,,,,,,,,,,,,,,,,,,,,,,,,,,,,,,,,,,,,,,,,,,,,,,,,,,,,,,,,,
0,28,28,43,1,,5f5aa7a073b8271a0ab0947c,62c53a0a7b979cb36aef82e5,2022-07-06_09h31.53.965,Colour_Asymmetry_Pilot,2022.1.3,Win32,144.0092166,62c50e9c1127f2cd403a315f,,,,,,,,,,,,,,,,,,,,,,,,,,,,,,,,,,,,,,,,,,,,,,,,,,,,,,,,,,,,,,,,,,,,,,,,,,,,,,,,,,,,,,,,,,,,,,,,,,,,,,,,,,,,,,,,,,,,,,,,,,,,,,,,,,,,,,,,,,,,,,,,,,,,,,,,,,,,,,,,,,,
0,29,29,86,1,,5f5aa7a073b8271a0ab0947c,62c53a0a7b979cb36aef82e5,2022-07-06_09h31.53.965,Colour_Asymmetry_Pilot,2022.1.3,Win32,144.0092166,62c50e9c1127f2cd403a315f,,,,,,,,,,,,,,,,,,,,,,,,,,,,,,,,,,,,,,,,,,,,,,,,,,,,,,,,,,,,,,,,,,,,,,,,,,,,,,,,,,,,,,,,,,,,,,,,,,,,,,,,,,,,,,,,,,,,,,,,,,,,,,,,,,,,,,,,,,,,,,,,,,,,,,,,,,,,,,,,,,,
0,30,30,83,1,,5f5aa7a073b8271a0ab0947c,62c53a0a7b979cb36aef82e5,2022-07-06_09h31.53.965,Colour_Asymmetry_Pilot,2022.1.3,Win32,144.0092166,62c50e9c1127f2cd403a315f,,,,,,,,,,,,,,,,,,,,,,,,,,,,,,,,,,,,,,,,,,,,,,,,,,,,,,,,,,,,,,,,,,,,,,,,,,,,,,,,,,,,,,,,,,,,,,,,,,,,,,,,,,,,,,,,,,,,,,,,,,,,,,,,,,,,,,,,,,,,,,,,,,,,,,,,,,,,,,,,,,,
0,31,31,2,1,,5f5aa7a073b8271a0ab0947c,62c53a0a7b979cb36aef82e5,2022-07-06_09h31.53.965,Colour_Asymmetry_Pilot,2022.1.3,Win32,144.0092166,62c50e9c1127f2cd403a315f,,,,,,,,,,,,,,,,,,,,,,,,,,,,,,,,,,,,,,,,,,,,,,,,,,,,,,,,,,,,,,,,,,,,,,,,,,,,,,,,,,,,,,,,,,,,,,,,,,,,,,,,,,,,,,,,,,,,,,,,,,,,,,,,,,,,,,,,,,,,,,,,,,,,,,,,,,,,,,,,,,,
0,32,32,33,1,,5f5aa7a073b8271a0ab0947c,62c53a0a7b979cb36aef82e5,2022-07-06_09h31.53.965,Colour_Asymmetry_Pilot,2022.1.3,Win32,144.0092166,62c50e9c1127f2cd403a315f,,,,,,,,,,,,,,,,,,,,,,,,,,,,,,,,,,,,,,,,,,,,,,,,,,,,,,,,,,,,,,,,,,,,,,,,,,,,,,,,,,,,,,,,,,,,,,,,,,,,,,,,,,,,,,,,,,,,,,,,,,,,,,,,,,,,,,,,,,,,,,,,,,,,,,,,,,,,,,,,,,,
0,33,33,46,1,,5f5aa7a073b8271a0ab0947c,62c53a0a7b979cb36aef82e5,2022-07-06_09h31.53.965,Colour_Asymmetry_Pilot,2022.1.3,Win32,144.0092166,62c50e9c1127f2cd403a315f,,,,,,,,,,,,,,,,,,,,,,,,,,,,,,,,,,,,,,,,,,,,,,,,,,,,,,,,,,,,,,,,,,,,,,,,,,,,,,,,,,,,,,,,,,,,,,,,,,,,,,,,,,,,,,,,,,,,,,,,,,,,,,,,,,,,,,,,,,,,,,,,,,,,,,,,,,,,,,,,,,,
0,34,34,45,1,,5f5aa7a073b8271a0ab0947c,62c53a0a7b979cb36aef82e5,2022-07-06_09h31.53.965,Colour_Asymmetry_Pilot,2022.1.3,Win32,144.0092166,62c50e9c1127f2cd403a315f,,,,,,,,,,,,,,,,,,,,,,,,,,,,,,,,,,,,,,,,,,,,,,,,,,,,,,,,,,,,,,,,,,,,,,,,,,,,,,,,,,,,,,,,,,,,,,,,,,,,,,,,,,,,,,,,,,,,,,,,,,,,,,,,,,,,,,,,,,,,,,,,,,,,,,,,,,,,,,,,,,,
0,35,35,53,1,,5f5aa7a073b8271a0ab0947c,62c53a0a7b979cb36aef82e5,2022-07-06_09h31.53.965,Colour_Asymmetry_Pilot,2022.1.3,Win32,144.0092166,62c50e9c1127f2cd403a315f,,,,,,,,,,,,,,,,,,,,,,,,,,,,,,,,,,,,,,,,,,,,,,,,,,,,,,,,,,,,,,,,,,,,,,,,,,,,,,,,,,,,,,,,,,,,,,,,,,,,,,,,,,,,,,,,,,,,,,,,,,,,,,,,,,,,,,,,,,,,,,,,,,,,,,,,,,,,,,,,,,,
0,36,36,89,1,,5f5aa7a073b8271a0ab0947c,62c53a0a7b979cb36aef82e5,2022-07-06_09h31.53.965,Colour_Asymmetry_Pilot,2022.1.3,Win32,144.0092166,62c50e9c1127f2cd403a315f,,,,,,,,,,,,,,,,,,,,,,,,,,,,,,,,,,,,,,,,,,,,,,,,,,,,,,,,,,,,,,,,,,,,,,,,,,,,,,,,,,,,,,,,,,,,,,,,,,,,,,,,,,,,,,,,,,,,,,,,,,,,,,,,,,,,,,,,,,,,,,,,,,,,,,,,,,,,,,,,,,,
0,37,37,27,1,,5f5aa7a073b8271a0ab0947c,62c53a0a7b979cb36aef82e5,2022-07-06_09h31.53.965,Colour_Asymmetry_Pilot,2022.1.3,Win32,144.0092166,62c50e9c1127f2cd403a315f,,,,,,,,,,,,,,,,,,,,,,,,,,,,,,,,,,,,,,,,,,,,,,,,,,,,,,,,,,,,,,,,,,,,,,,,,,,,,,,,,,,,,,,,,,,,,,,,,,,,,,,,,,,,,,,,,,,,,,,,,,,,,,,,,,,,,,,,,,,,,,,,,,,,,,,,,,,,,,,,,,,
0,38,38,49,1,,5f5aa7a073b8271a0ab0947c,62c53a0a7b979cb36aef82e5,2022-07-06_09h31.53.965,Colour_Asymmetry_Pilot,2022.1.3,Win32,144.0092166,62c50e9c1127f2cd403a315f,,,,,,,,,,,,,,,,,,,,,,,,,,,,,,,,,,,,,,,,,,,,,,,,,,,,,,,,,,,,,,,,,,,,,,,,,,,,,,,,,,,,,,,,,,,,,,,,,,,,,,,,,,,,,,,,,,,,,,,,,,,,,,,,,,,,,,,,,,,,,,,,,,,,,,,,,,,,,,,,,,,
0,39,39,84,1,,5f5aa7a073b8271a0ab0947c,62c53a0a7b979cb36aef82e5,2022-07-06_09h31.53.965,Colour_Asymmetry_Pilot,2022.1.3,Win32,144.0092166,62c50e9c1127f2cd403a315f,,,,,,,,,,,,,,,,,,,,,,,,,,,,,,,,,,,,,,,,,,,,,,,,,,,,,,,,,,,,,,,,,,,,,,,,,,,,,,,,,,,,,,,,,,,,,,,,,,,,,,,,,,,,,,,,,,,,,,,,,,,,,,,,,,,,,,,,,,,,,,,,,,,,,,,,,,,,,,,,,,,
0,40,40,3,1,,5f5aa7a073b8271a0ab0947c,62c53a0a7b979cb36aef82e5,2022-07-06_09h31.53.965,Colour_Asymmetry_Pilot,2022.1.3,Win32,144.0092166,62c50e9c1127f2cd403a315f,,,,,,,,,,,,,,,,,,,,,,,,,,,,,,,,,,,,,,,,,,,,,,,,,,,,,,,,,,,,,,,,,,,,,,,,,,,,,,,,,,,,,,,,,,,,,,,,,,,,,,,,,,,,,,,,,,,,,,,,,,,,,,,,,,,,,,,,,,,,,,,,,,,,,,,,,,,,,,,,,,,
0,41,41,19,1,,5f5aa7a073b8271a0ab0947c,62c53a0a7b979cb36aef82e5,2022-07-06_09h31.53.965,Colour_Asymmetry_Pilot,2022.1.3,Win32,144.0092166,62c50e9c1127f2cd403a315f,,,,,,,,,,,,,,,,,,,,,,,,,,,,,,,,,,,,,,,,,,,,,,,,,,,,,,,,,,,,,,,,,,,,,,,,,,,,,,,,,,,,,,,,,,,,,,,,,,,,,,,,,,,,,,,,,,,,,,,,,,,,,,,,,,,,,,,,,,,,,,,,,,,,,,,,,,,,,,,,,,,
0,42,42,67,1,,5f5aa7a073b8271a0ab0947c,62c53a0a7b979cb36aef82e5,2022-07-06_09h31.53.965,Colour_Asymmetry_Pilot,2022.1.3,Win32,144.0092166,62c50e9c1127f2cd403a315f,,,,,,,,,,,,,,,,,,,,,,,,,,,,,,,,,,,,,,,,,,,,,,,,,,,,,,,,,,,,,,,,,,,,,,,,,,,,,,,,,,,,,,,,,,,,,,,,,,,,,,,,,,,,,,,,,,,,,,,,,,,,,,,,,,,,,,,,,,,,,,,,,,,,,,,,,,,,,,,,,,,
0,43,43,81,1,,5f5aa7a073b8271a0ab0947c,62c53a0a7b979cb36aef82e5,2022-07-06_09h31.53.965,Colour_Asymmetry_Pilot,2022.1.3,Win32,144.0092166,62c50e9c1127f2cd403a315f,,,,,,,,,,,,,,,,,,,,,,,,,,,,,,,,,,,,,,,,,,,,,,,,,,,,,,,,,,,,,,,,,,,,,,,,,,,,,,,,,,,,,,,,,,,,,,,,,,,,,,,,,,,,,,,,,,,,,,,,,,,,,,,,,,,,,,,,,,,,,,,,,,,,,,,,,,,,,,,,,,,
0,44,44,51,1,,5f5aa7a073b8271a0ab0947c,62c53a0a7b979cb36aef82e5,2022-07-06_09h31.53.965,Colour_Asymmetry_Pilot,2022.1.3,Win32,144.0092166,62c50e9c1127f2cd403a315f,,,,,,,,,,,,,,,,,,,,,,,,,,,,,,,,,,,,,,,,,,,,,,,,,,,,,,,,,,,,,,,,,,,,,,,,,,,,,,,,,,,,,,,,,,,,,,,,,,,,,,,,,,,,,,,,,,,,,,,,,,,,,,,,,,,,,,,,,,,,,,,,,,,,,,,,,,,,,,,,,,,
0,45,45,11,1,,5f5aa7a073b8271a0ab0947c,62c53a0a7b979cb36aef82e5,2022-07-06_09h31.53.965,Colour_Asymmetry_Pilot,2022.1.3,Win32,144.0092166,62c50e9c1127f2cd403a315f,,,,,,,,,,,,,,,,,,,,,,,,,,,,,,,,,,,,,,,,,,,,,,,,,,,,,,,,,,,,,,,,,,,,,,,,,,,,,,,,,,,,,,,,,,,,,,,,,,,,,,,,,,,,,,,,,,,,,,,,,,,,,,,,,,,,,,,,,,,,,,,,,,,,,,,,,,,,,,,,,,,
0,46,46,35,1,,5f5aa7a073b8271a0ab0947c,62c53a0a7b979cb36aef82e5,2022-07-06_09h31.53.965,Colour_Asymmetry_Pilot,2022.1.3,Win32,144.0092166,62c50e9c1127f2cd403a315f,,,,,,,,,,,,,,,,,,,,,,,,,,,,,,,,,,,,,,,,,,,,,,,,,,,,,,,,,,,,,,,,,,,,,,,,,,,,,,,,,,,,,,,,,,,,,,,,,,,,,,,,,,,,,,,,,,,,,,,,,,,,,,,,,,,,,,,,,,,,,,,,,,,,,,,,,,,,,,,,,,,
0,47,47,92,1,,5f5aa7a073b8271a0ab0947c,62c53a0a7b979cb36aef82e5,2022-07-06_09h31.53.965,Colour_Asymmetry_Pilot,2022.1.3,Win32,144.0092166,62c50e9c1127f2cd403a315f,,,,,,,,,,,,,,,,,,,,,,,,,,,,,,,,,,,,,,,,,,,,,,,,,,,,,,,,,,,,,,,,,,,,,,,,,,,,,,,,,,,,,,,,,,,,,,,,,,,,,,,,,,,,,,,,,,,,,,,,,,,,,,,,,,,,,,,,,,,,,,,,,,,,,,,,,,,,,,,,,,,
0,48,48,55,1,,5f5aa7a073b8271a0ab0947c,62c53a0a7b979cb36aef82e5,2022-07-06_09h31.53.965,Colour_Asymmetry_Pilot,2022.1.3,Win32,144.0092166,62c50e9c1127f2cd403a315f,,,,,,,,,,,,,,,,,,,,,,,,,,,,,,,,,,,,,,,,,,,,,,,,,,,,,,,,,,,,,,,,,,,,,,,,,,,,,,,,,,,,,,,,,,,,,,,,,,,,,,,,,,,,,,,,,,,,,,,,,,,,,,,,,,,,,,,,,,,,,,,,,,,,,,,,,,,,,,,,,,,
0,49,49,82,1,,5f5aa7a073b8271a0ab0947c,62c53a0a7b979cb36aef82e5,2022-07-06_09h31.53.965,Colour_Asymmetry_Pilot,2022.1.3,Win32,144.0092166,62c50e9c1127f2cd403a315f,,,,,,,,,,,,,,,,,,,,,,,,,,,,,,,,,,,,,,,,,,,,,,,,,,,,,,,,,,,,,,,,,,,,,,,,,,,,,,,,,,,,,,,,,,,,,,,,,,,,,,,,,,,,,,,,,,,,,,,,,,,,,,,,,,,,,,,,,,,,,,,,,,,,,,,,,,,,,,,,,,,
0,50,50,0,1,,5f5aa7a073b8271a0ab0947c,62c53a0a7b979cb36aef82e5,2022-07-06_09h31.53.965,Colour_Asymmetry_Pilot,2022.1.3,Win32,144.0092166,62c50e9c1127f2cd403a315f,,,,,,,,,,,,,,,,,,,,,,,,,,,,,,,,,,,,,,,,,,,,,,,,,,,,,,,,,,,,,,,,,,,,,,,,,,,,,,,,,,,,,,,,,,,,,,,,,,,,,,,,,,,,,,,,,,,,,,,,,,,,,,,,,,,,,,,,,,,,,,,,,,,,,,,,,,,,,,,,,,,
0,51,51,34,1,,5f5aa7a073b8271a0ab0947c,62c53a0a7b979cb36aef82e5,2022-07-06_09h31.53.965,Colour_Asymmetry_Pilot,2022.1.3,Win32,144.0092166,62c50e9c1127f2cd403a315f,,,,,,,,,,,,,,,,,,,,,,,,,,,,,,,,,,,,,,,,,,,,,,,,,,,,,,,,,,,,,,,,,,,,,,,,,,,,,,,,,,,,,,,,,,,,,,,,,,,,,,,,,,,,,,,,,,,,,,,,,,,,,,,,,,,,,,,,,,,,,,,,,,,,,,,,,,,,,,,,,,,
0,52,52,37,1,,5f5aa7a073b8271a0ab0947c,62c53a0a7b979cb36aef82e5,2022-07-06_09h31.53.965,Colour_Asymmetry_Pilot,2022.1.3,Win32,144.0092166,62c50e9c1127f2cd403a315f,,,,,,,,,,,,,,,,,,,,,,,,,,,,,,,,,,,,,,,,,,,,,,,,,,,,,,,,,,,,,,,,,,,,,,,,,,,,,,,,,,,,,,,,,,,,,,,,,,,,,,,,,,,,,,,,,,,,,,,,,,,,,,,,,,,,,,,,,,,,,,,,,,,,,,,,,,,,,,,,,,,
0,53,53,7,1,,5f5aa7a073b8271a0ab0947c,62c53a0a7b979cb36aef82e5,2022-07-06_09h31.53.965,Colour_Asymmetry_Pilot,2022.1.3,Win32,144.0092166,62c50e9c1127f2cd403a315f,,,,,,,,,,,,,,,,,,,,,,,,,,,,,,,,,,,,,,,,,,,,,,,,,,,,,,,,,,,,,,,,,,,,,,,,,,,,,,,,,,,,,,,,,,,,,,,,,,,,,,,,,,,,,,,,,,,,,,,,,,,,,,,,,,,,,,,,,,,,,,,,,,,,,,,,,,,,,,,,,,,
0,54,54,20,1,,5f5aa7a073b8271a0ab0947c,62c53a0a7b979cb36aef82e5,2022-07-06_09h31.53.965,Colour_Asymmetry_Pilot,2022.1.3,Win32,144.0092166,62c50e9c1127f2cd403a315f,,,,,,,,,,,,,,,,,,,,,,,,,,,,,,,,,,,,,,,,,,,,,,,,,,,,,,,,,,,,,,,,,,,,,,,,,,,,,,,,,,,,,,,,,,,,,,,,,,,,,,,,,,,,,,,,,,,,,,,,,,,,,,,,,,,,,,,,,,,,,,,,,,,,,,,,,,,,,,,,,,,
0,55,55,78,1,,5f5aa7a073b8271a0ab0947c,62c53a0a7b979cb36aef82e5,2022-07-06_09h31.53.965,Colour_Asymmetry_Pilot,2022.1.3,Win32,144.0092166,62c50e9c1127f2cd403a315f,,,,,,,,,,,,,,,,,,,,,,,,,,,,,,,,,,,,,,,,,,,,,,,,,,,,,,,,,,,,,,,,,,,,,,,,,,,,,,,,,,,,,,,,,,,,,,,,,,,,,,,,,,,,,,,,,,,,,,,,,,,,,,,,,,,,,,,,,,,,,,,,,,,,,,,,,,,,,,,,,,,
0,56,56,72,1,,5f5aa7a073b8271a0ab0947c,62c53a0a7b979cb36aef82e5,2022-07-06_09h31.53.965,Colour_Asymmetry_Pilot,2022.1.3,Win32,144.0092166,62c50e9c1127f2cd403a315f,,,,,,,,,,,,,,,,,,,,,,,,,,,,,,,,,,,,,,,,,,,,,,,,,,,,,,,,,,,,,,,,,,,,,,,,,,,,,,,,,,,,,,,,,,,,,,,,,,,,,,,,,,,,,,,,,,,,,,,,,,,,,,,,,,,,,,,,,,,,,,,,,,,,,,,,,,,,,,,,,,,
0,57,57,24,1,,5f5aa7a073b8271a0ab0947c,62c53a0a7b979cb36aef82e5,2022-07-06_09h31.53.965,Colour_Asymmetry_Pilot,2022.1.3,Win32,144.0092166,62c50e9c1127f2cd403a315f,,,,,,,,,,,,,,,,,,,,,,,,,,,,,,,,,,,,,,,,,,,,,,,,,,,,,,,,,,,,,,,,,,,,,,,,,,,,,,,,,,,,,,,,,,,,,,,,,,,,,,,,,,,,,,,,,,,,,,,,,,,,,,,,,,,,,,,,,,,,,,,,,,,,,,,,,,,,,,,,,,,
0,58,58,9,1,,5f5aa7a073b8271a0ab0947c,62c53a0a7b979cb36aef82e5,2022-07-06_09h31.53.965,Colour_Asymmetry_Pilot,2022.1.3,Win32,144.0092166,62c50e9c1127f2cd403a315f,,,,,,,,,,,,,,,,,,,,,,,,,,,,,,,,,,,,,,,,,,,,,,,,,,,,,,,,,,,,,,,,,,,,,,,,,,,,,,,,,,,,,,,,,,,,,,,,,,,,,,,,,,,,,,,,,,,,,,,,,,,,,,,,,,,,,,,,,,,,,,,,,,,,,,,,,,,,,,,,,,,
0,59,59,57,1,,5f5aa7a073b8271a0ab0947c,62c53a0a7b979cb36aef82e5,2022-07-06_09h31.53.965,Colour_Asymmetry_Pilot,2022.1.3,Win32,144.0092166,62c50e9c1127f2cd403a315f,,,,,,,,,,,,,,,,,,,,,,,,,,,,,,,,,,,,,,,,,,,,,,,,,,,,,,,,,,,,,,,,,,,,,,,,,,,,,,,,,,,,,,,,,,,,,,,,,,,,,,,,,,,,,,,,,,,,,,,,,,,,,,,,,,,,,,,,,,,,,,,,,,,,,,,,,,,,,,,,,,,
0,60,60,61,1,,5f5aa7a073b8271a0ab0947c,62c53a0a7b979cb36aef82e5,2022-07-06_09h31.53.965,Colour_Asymmetry_Pilot,2022.1.3,Win32,144.0092166,62c50e9c1127f2cd403a315f,,,,,,,,,,,,,,,,,,,,,,,,,,,,,,,,,,,,,,,,,,,,,,,,,,,,,,,,,,,,,,,,,,,,,,,,,,,,,,,,,,,,,,,,,,,,,,,,,,,,,,,,,,,,,,,,,,,,,,,,,,,,,,,,,,,,,,,,,,,,,,,,,,,,,,,,,,,,,,,,,,,
0,61,61,85,1,,5f5aa7a073b8271a0ab0947c,62c53a0a7b979cb36aef82e5,2022-07-06_09h31.53.965,Colour_Asymmetry_Pilot,2022.1.3,Win32,144.0092166,62c50e9c1127f2cd403a315f,,,,,,,,,,,,,,,,,,,,,,,,,,,,,,,,,,,,,,,,,,,,,,,,,,,,,,,,,,,,,,,,,,,,,,,,,,,,,,,,,,,,,,,,,,,,,,,,,,,,,,,,,,,,,,,,,,,,,,,,,,,,,,,,,,,,,,,,,,,,,,,,,,,,,,,,,,,,,,,,,,,
0,62,62,22,1,,5f5aa7a073b8271a0ab0947c,62c53a0a7b979cb36aef82e5,2022-07-06_09h31.53.965,Colour_Asymmetry_Pilot,2022.1.3,Win32,144.0092166,62c50e9c1127f2cd403a315f,,,,,,,,,,,,,,,,,,,,,,,,,,,,,,,,,,,,,,,,,,,,,,,,,,,,,,,,,,,,,,,,,,,,,,,,,,,,,,,,,,,,,,,,,,,,,,,,,,,,,,,,,,,,,,,,,,,,,,,,,,,,,,,,,,,,,,,,,,,,,,,,,,,,,,,,,,,,,,,,,,,
0,63,63,54,1,,5f5aa7a073b8271a0ab0947c,62c53a0a7b979cb36aef82e5,2022-07-06_09h31.53.965,Colour_Asymmetry_Pilot,2022.1.3,Win32,144.0092166,62c50e9c1127f2cd403a315f,,,,,,,,,,,,,,,,,,,,,,,,,,,,,,,,,,,,,,,,,,,,,,,,,,,,,,,,,,,,,,,,,,,,,,,,,,,,,,,,,,,,,,,,,,,,,,,,,,,,,,,,,,,,,,,,,,,,,,,,,,,,,,,,,,,,,,,,,,,,,,,,,,,,,,,,,,,,,,,,,,,
0,64,64,74,1,,5f5aa7a073b8271a0ab0947c,62c53a0a7b979cb36aef82e5,2022-07-06_09h31.53.965,Colour_Asymmetry_Pilot,2022.1.3,Win32,144.0092166,62c50e9c1127f2cd403a315f,,,,,,,,,,,,,,,,,,,,,,,,,,,,,,,,,,,,,,,,,,,,,,,,,,,,,,,,,,,,,,,,,,,,,,,,,,,,,,,,,,,,,,,,,,,,,,,,,,,,,,,,,,,,,,,,,,,,,,,,,,,,,,,,,,,,,,,,,,,,,,,,,,,,,,,,,,,,,,,,,,,
0,65,65,29,1,,5f5aa7a073b8271a0ab0947c,62c53a0a7b979cb36aef82e5,2022-07-06_09h31.53.965,Colour_Asymmetry_Pilot,2022.1.3,Win32,144.0092166,62c50e9c1127f2cd403a315f,,,,,,,,,,,,,,,,,,,,,,,,,,,,,,,,,,,,,,,,,,,,,,,,,,,,,,,,,,,,,,,,,,,,,,,,,,,,,,,,,,,,,,,,,,,,,,,,,,,,,,,,,,,,,,,,,,,,,,,,,,,,,,,,,,,,,,,,,,,,,,,,,,,,,,,,,,,,,,,,,,,
0,66,66,63,1,,5f5aa7a073b8271a0ab0947c,62c53a0a7b979cb36aef82e5,2022-07-06_09h31.53.965,Colour_Asymmetry_Pilot,2022.1.3,Win32,144.0092166,62c50e9c1127f2cd403a315f,,,,,,,,,,,,,,,,,,,,,,,,,,,,,,,,,,,,,,,,,,,,,,,,,,,,,,,,,,,,,,,,,,,,,,,,,,,,,,,,,,,,,,,,,,,,,,,,,,,,,,,,,,,,,,,,,,,,,,,,,,,,,,,,,,,,,,,,,,,,,,,,,,,,,,,,,,,,,,,,,,,
0,67,67,36,1,,5f5aa7a073b8271a0ab0947c,62c53a0a7b979cb36aef82e5,2022-07-06_09h31.53.965,Colour_Asymmetry_Pilot,2022.1.3,Win32,144.0092166,62c50e9c1127f2cd403a315f,,,,,,,,,,,,,,,,,,,,,,,,,,,,,,,,,,,,,,,,,,,,,,,,,,,,,,,,,,,,,,,,,,,,,,,,,,,,,,,,,,,,,,,,,,,,,,,,,,,,,,,,,,,,,,,,,,,,,,,,,,,,,,,,,,,,,,,,,,,,,,,,,,,,,,,,,,,,,,,,,,,
0,68,68,21,1,,5f5aa7a073b8271a0ab0947c,62c53a0a7b979cb36aef82e5,2022-07-06_09h31.53.965,Colour_Asymmetry_Pilot,2022.1.3,Win32,144.0092166,62c50e9c1127f2cd403a315f,,,,,,,,,,,,,,,,,,,,,,,,,,,,,,,,,,,,,,,,,,,,,,,,,,,,,,,,,,,,,,,,,,,,,,,,,,,,,,,,,,,,,,,,,,,,,,,,,,,,,,,,,,,,,,,,,,,,,,,,,,,,,,,,,,,,,,,,,,,,,,,,,,,,,,,,,,,,,,,,,,,
0,69,69,12,1,,5f5aa7a073b8271a0ab0947c,62c53a0a7b979cb36aef82e5,2022-07-06_09h31.53.965,Colour_Asymmetry_Pilot,2022.1.3,Win32,144.0092166,62c50e9c1127f2cd403a315f,,,,,,,,,,,,,,,,,,,,,,,,,,,,,,,,,,,,,,,,,,,,,,,,,,,,,,,,,,,,,,,,,,,,,,,,,,,,,,,,,,,,,,,,,,,,,,,,,,,,,,,,,,,,,,,,,,,,,,,,,,,,,,,,,,,,,,,,,,,,,,,,,,,,,,,,,,,,,,,,,,,
0,70,70,28,1,,5f5aa7a073b8271a0ab0947c,62c53a0a7b979cb36aef82e5,2022-07-06_09h31.53.965,Colour_Asymmetry_Pilot,2022.1.3,Win32,144.0092166,62c50e9c1127f2cd403a315f,,,,,,,,,,,,,,,,,,,,,,,,,,,,,,,,,,,,,,,,,,,,,,,,,,,,,,,,,,,,,,,,,,,,,,,,,,,,,,,,,,,,,,,,,,,,,,,,,,,,,,,,,,,,,,,,,,,,,,,,,,,,,,,,,,,,,,,,,,,,,,,,,,,,,,,,,,,,,,,,,,,
0,71,71,44,1,,5f5aa7a073b8271a0ab0947c,62c53a0a7b979cb36aef82e5,2022-07-06_09h31.53.965,Colour_Asymmetry_Pilot,2022.1.3,Win32,144.0092166,62c50e9c1127f2cd403a315f,,,,,,,,,,,,,,,,,,,,,,,,,,,,,,,,,,,,,,,,,,,,,,,,,,,,,,,,,,,,,,,,,,,,,,,,,,,,,,,,,,,,,,,,,,,,,,,,,,,,,,,,,,,,,,,,,,,,,,,,,,,,,,,,,,,,,,,,,,,,,,,,,,,,,,,,,,,,,,,,,,,
0,72,72,71,1,,5f5aa7a073b8271a0ab0947c,62c53a0a7b979cb36aef82e5,2022-07-06_09h31.53.965,Colour_Asymmetry_Pilot,2022.1.3,Win32,144.0092166,62c50e9c1127f2cd403a315f,,,,,,,,,,,,,,,,,,,,,,,,,,,,,,,,,,,,,,,,,,,,,,,,,,,,,,,,,,,,,,,,,,,,,,,,,,,,,,,,,,,,,,,,,,,,,,,,,,,,,,,,,,,,,,,,,,,,,,,,,,,,,,,,,,,,,,,,,,,,,,,,,,,,,,,,,,,,,,,,,,,
0,73,73,31,1,,5f5aa7a073b8271a0ab0947c,62c53a0a7b979cb36aef82e5,2022-07-06_09h31.53.965,Colour_Asymmetry_Pilot,2022.1.3,Win32,144.0092166,62c50e9c1127f2cd403a315f,,,,,,,,,,,,,,,,,,,,,,,,,,,,,,,,,,,,,,,,,,,,,,,,,,,,,,,,,,,,,,,,,,,,,,,,,,,,,,,,,,,,,,,,,,,,,,,,,,,,,,,,,,,,,,,,,,,,,,,,,,,,,,,,,,,,,,,,,,,,,,,,,,,,,,,,,,,,,,,,,,,
0,74,74,62,1,,5f5aa7a073b8271a0ab0947c,62c53a0a7b979cb36aef82e5,2022-07-06_09h31.53.965,Colour_Asymmetry_Pilot,2022.1.3,Win32,144.0092166,62c50e9c1127f2cd403a315f,,,,,,,,,,,,,,,,,,,,,,,,,,,,,,,,,,,,,,,,,,,,,,,,,,,,,,,,,,,,,,,,,,,,,,,,,,,,,,,,,,,,,,,,,,,,,,,,,,,,,,,,,,,,,,,,,,,,,,,,,,,,,,,,,,,,,,,,,,,,,,,,,,,,,,,,,,,,,,,,,,,
0,75,75,42,1,,5f5aa7a073b8271a0ab0947c,62c53a0a7b979cb36aef82e5,2022-07-06_09h31.53.965,Colour_Asymmetry_Pilot,2022.1.3,Win32,144.0092166,62c50e9c1127f2cd403a315f,,,,,,,,,,,,,,,,,,,,,,,,,,,,,,,,,,,,,,,,,,,,,,,,,,,,,,,,,,,,,,,,,,,,,,,,,,,,,,,,,,,,,,,,,,,,,,,,,,,,,,,,,,,,,,,,,,,,,,,,,,,,,,,,,,,,,,,,,,,,,,,,,,,,,,,,,,,,,,,,,,,
0,76,76,58,1,,5f5aa7a073b8271a0ab0947c,62c53a0a7b979cb36aef82e5,2022-07-06_09h31.53.965,Colour_Asymmetry_Pilot,2022.1.3,Win32,144.0092166,62c50e9c1127f2cd403a315f,,,,,,,,,,,,,,,,,,,,,,,,,,,,,,,,,,,,,,,,,,,,,,,,,,,,,,,,,,,,,,,,,,,,,,,,,,,,,,,,,,,,,,,,,,,,,,,,,,,,,,,,,,,,,,,,,,,,,,,,,,,,,,,,,,,,,,,,,,,,,,,,,,,,,,,,,,,,,,,,,,,
0,77,77,52,1,,5f5aa7a073b8271a0ab0947c,62c53a0a7b979cb36aef82e5,2022-07-06_09h31.53.965,Colour_Asymmetry_Pilot,2022.1.3,Win32,144.0092166,62c50e9c1127f2cd403a315f,,,,,,,,,,,,,,,,,,,,,,,,,,,,,,,,,,,,,,,,,,,,,,,,,,,,,,,,,,,,,,,,,,,,,,,,,,,,,,,,,,,,,,,,,,,,,,,,,,,,,,,,,,,,,,,,,,,,,,,,,,,,,,,,,,,,,,,,,,,,,,,,,,,,,,,,,,,,,,,,,,,
0,78,78,38,1,,5f5aa7a073b8271a0ab0947c,62c53a0a7b979cb36aef82e5,2022-07-06_09h31.53.965,Colour_Asymmetry_Pilot,2022.1.3,Win32,144.0092166,62c50e9c1127f2cd403a315f,,,,,,,,,,,,,,,,,,,,,,,,,,,,,,,,,,,,,,,,,,,,,,,,,,,,,,,,,,,,,,,,,,,,,,,,,,,,,,,,,,,,,,,,,,,,,,,,,,,,,,,,,,,,,,,,,,,,,,,,,,,,,,,,,,,,,,,,,,,,,,,,,,,,,,,,,,,,,,,,,,,
0,79,79,80,1,,5f5aa7a073b8271a0ab0947c,62c53a0a7b979cb36aef82e5,2022-07-06_09h31.53.965,Colour_Asymmetry_Pilot,2022.1.3,Win32,144.0092166,62c50e9c1127f2cd403a315f,,,,,,,,,,,,,,,,,,,,,,,,,,,,,,,,,,,,,,,,,,,,,,,,,,,,,,,,,,,,,,,,,,,,,,,,,,,,,,,,,,,,,,,,,,,,,,,,,,,,,,,,,,,,,,,,,,,,,,,,,,,,,,,,,,,,,,,,,,,,,,,,,,,,,,,,,,,,,,,,,,,
0,80,80,48,1,,5f5aa7a073b8271a0ab0947c,62c53a0a7b979cb36aef82e5,2022-07-06_09h31.53.965,Colour_Asymmetry_Pilot,2022.1.3,Win32,144.0092166,62c50e9c1127f2cd403a315f,,,,,,,,,,,,,,,,,,,,,,,,,,,,,,,,,,,,,,,,,,,,,,,,,,,,,,,,,,,,,,,,,,,,,,,,,,,,,,,,,,,,,,,,,,,,,,,,,,,,,,,,,,,,,,,,,,,,,,,,,,,,,,,,,,,,,,,,,,,,,,,,,,,,,,,,,,,,,,,,,,,
0,81,81,69,1,,5f5aa7a073b8271a0ab0947c,62c53a0a7b979cb36aef82e5,2022-07-06_09h31.53.965,Colour_Asymmetry_Pilot,2022.1.3,Win32,144.0092166,62c50e9c1127f2cd403a315f,,,,,,,,,,,,,,,,,,,,,,,,,,,,,,,,,,,,,,,,,,,,,,,,,,,,,,,,,,,,,,,,,,,,,,,,,,,,,,,,,,,,,,,,,,,,,,,,,,,,,,,,,,,,,,,,,,,,,,,,,,,,,,,,,,,,,,,,,,,,,,,,,,,,,,,,,,,,,,,,,,,
0,82,82,15,1,,5f5aa7a073b8271a0ab0947c,62c53a0a7b979cb36aef82e5,2022-07-06_09h31.53.965,Colour_Asymmetry_Pilot,2022.1.3,Win32,144.0092166,62c50e9c1127f2cd403a315f,,,,,,,,,,,,,,,,,,,,,,,,,,,,,,,,,,,,,,,,,,,,,,,,,,,,,,,,,,,,,,,,,,,,,,,,,,,,,,,,,,,,,,,,,,,,,,,,,,,,,,,,,,,,,,,,,,,,,,,,,,,,,,,,,,,,,,,,,,,,,,,,,,,,,,,,,,,,,,,,,,,
0,83,83,65,1,,5f5aa7a073b8271a0ab0947c,62c53a0a7b979cb36aef82e5,2022-07-06_09h31.53.965,Colour_Asymmetry_Pilot,2022.1.3,Win32,144.0092166,62c50e9c1127f2cd403a315f,,,,,,,,,,,,,,,,,,,,,,,,,,,,,,,,,,,,,,,,,,,,,,,,,,,,,,,,,,,,,,,,,,,,,,,,,,,,,,,,,,,,,,,,,,,,,,,,,,,,,,,,,,,,,,,,,,,,,,,,,,,,,,,,,,,,,,,,,,,,,,,,,,,,,,,,,,,,,,,,,,,
0,84,84,59,1,,5f5aa7a073b8271a0ab0947c,62c53a0a7b979cb36aef82e5,2022-07-06_09h31.53.965,Colour_Asymmetry_Pilot,2022.1.3,Win32,144.0092166,62c50e9c1127f2cd403a315f,,,,,,,,,,,,,,,,,,,,,,,,,,,,,,,,,,,,,,,,,,,,,,,,,,,,,,,,,,,,,,,,,,,,,,,,,,,,,,,,,,,,,,,,,,,,,,,,,,,,,,,,,,,,,,,,,,,,,,,,,,,,,,,,,,,,,,,,,,,,,,,,,,,,,,,,,,,,,,,,,,,
0,85,85,16,1,,5f5aa7a073b8271a0ab0947c,62c53a0a7b979cb36aef82e5,2022-07-06_09h31.53.965,Colour_Asymmetry_Pilot,2022.1.3,Win32,144.0092166,62c50e9c1127f2cd403a315f,,,,,,,,,,,,,,,,,,,,,,,,,,,,,,,,,,,,,,,,,,,,,,,,,,,,,,,,,,,,,,,,,,,,,,,,,,,,,,,,,,,,,,,,,,,,,,,,,,,,,,,,,,,,,,,,,,,,,,,,,,,,,,,,,,,,,,,,,,,,,,,,,,,,,,,,,,,,,,,,,,,
0,86,86,10,1,,5f5aa7a073b8271a0ab0947c,62c53a0a7b979cb36aef82e5,2022-07-06_09h31.53.965,Colour_Asymmetry_Pilot,2022.1.3,Win32,144.0092166,62c50e9c1127f2cd403a315f,,,,,,,,,,,,,,,,,,,,,,,,,,,,,,,,,,,,,,,,,,,,,,,,,,,,,,,,,,,,,,,,,,,,,,,,,,,,,,,,,,,,,,,,,,,,,,,,,,,,,,,,,,,,,,,,,,,,,,,,,,,,,,,,,,,,,,,,,,,,,,,,,,,,,,,,,,,,,,,,,,,
0,87,87,73,1,,5f5aa7a073b8271a0ab0947c,62c53a0a7b979cb36aef82e5,2022-07-06_09h31.53.965,Colour_Asymmetry_Pilot,2022.1.3,Win32,144.0092166,62c50e9c1127f2cd403a315f,,,,,,,,,,,,,,,,,,,,,,,,,,,,,,,,,,,,,,,,,,,,,,,,,,,,,,,,,,,,,,,,,,,,,,,,,,,,,,,,,,,,,,,,,,,,,,,,,,,,,,,,,,,,,,,,,,,,,,,,,,,,,,,,,,,,,,,,,,,,,,,,,,,,,,,,,,,,,,,,,,,
0,88,88,47,1,,5f5aa7a073b8271a0ab0947c,62c53a0a7b979cb36aef82e5,2022-07-06_09h31.53.965,Colour_Asymmetry_Pilot,2022.1.3,Win32,144.0092166,62c50e9c1127f2cd403a315f,,,,,,,,,,,,,,,,,,,,,,,,,,,,,,,,,,,,,,,,,,,,,,,,,,,,,,,,,,,,,,,,,,,,,,,,,,,,,,,,,,,,,,,,,,,,,,,,,,,,,,,,,,,,,,,,,,,,,,,,,,,,,,,,,,,,,,,,,,,,,,,,,,,,,,,,,,,,,,,,,,,
0,89,89,66,1,,5f5aa7a073b8271a0ab0947c,62c53a0a7b979cb36aef82e5,2022-07-06_09h31.53.965,Colour_Asymmetry_Pilot,2022.1.3,Win32,144.0092166,62c50e9c1127f2cd403a315f,,,,,,,,,,,,,,,,,,,,,,,,,,,,,,,,,,,,,,,,,,,,,,,,,,,,,,,,,,,,,,,,,,,,,,,,,,,,,,,,,,,,,,,,,,,,,,,,,,,,,,,,,,,,,,,,,,,,,,,,,,,,,,,,,,,,,,,,,,,,,,,,,,,,,,,,,,,,,,,,,,,
0,90,90,18,1,,5f5aa7a073b8271a0ab0947c,62c53a0a7b979cb36aef82e5,2022-07-06_09h31.53.965,Colour_Asymmetry_Pilot,2022.1.3,Win32,144.0092166,62c50e9c1127f2cd403a315f,,,,,,,,,,,,,,,,,,,,,,,,,,,,,,,,,,,,,,,,,,,,,,,,,,,,,,,,,,,,,,,,,,,,,,,,,,,,,,,,,,,,,,,,,,,,,,,,,,,,,,,,,,,,,,,,,,,,,,,,,,,,,,,,,,,,,,,,,,,,,,,,,,,,,,,,,,,,,,,,,,,
0,91,91,4,1,,5f5aa7a073b8271a0ab0947c,62c53a0a7b979cb36aef82e5,2022-07-06_09h31.53.965,Colour_Asymmetry_Pilot,2022.1.3,Win32,144.0092166,62c50e9c1127f2cd403a315f,,,,,,,,,,,,,,,,,,,,,,,,,,,,,,,,,,,,,,,,,,,,,,,,,,,,,,,,,,,,,,,,,,,,,,,,,,,,,,,,,,,,,,,,,,,,,,,,,,,,,,,,,,,,,,,,,,,,,,,,,,,,,,,,,,,,,,,,,,,,,,,,,,,,,,,,,,,,,,,,,,,
0,92,92,68,1,,5f5aa7a073b8271a0ab0947c,62c53a0a7b979cb36aef82e5,2022-07-06_09h31.53.965,Colour_Asymmetry_Pilot,2022.1.3,Win32,144.0092166,62c50e9c1127f2cd403a315f,,,,,,,,,,,,,,,,,,,,,,,,,,,,,,,,,,,,,,,,,,,,,,,,,,,,,,,,,,,,,,,,,,,,,,,,,,,,,,,,,,,,,,,,,,,,,,,,,,,,,,,,,,,,,,,,,,,,,,,,,,,,,,,,,,,,,,,,,,,,,,,,,,,,,,,,,,,,,,,,,,,
,,,,,,5f5aa7a073b8271a0ab0947c,62c53a0a7b979cb36aef82e5,2022-07-06_09h31.53.965,Colour_Asymmetry_Pilot,2022.1.3,Win32,144.0092166,62c50e9c1127f2cd403a315f,0,0,0,37,1,threefour,,,,,,,,,,,,,,,,,,,,,,,,,,,,,,,,,,,,,,,,,,,,,,,,,,,,,,,,,,,,,,,,,,,,,,,,,,,,,,,,,,,,,,,,,,,,,,,,,,,,,,,,,,,,,,,,,,,,,,,,,,,,,,,,,,,,,,,,,,,,,,,,,,,,,,,,,,,,,
,,,,,,5f5aa7a073b8271a0ab0947c,62c53a0a7b979cb36aef82e5,2022-07-06_09h31.53.965,Colour_Asymmetry_Pilot,2022.1.3,Win32,144.0092166,62c50e9c1127f2cd403a315f,0,1,1,146,1,twoone,,,,,,,,,,,,,,,,,,,,,,,,,,,,,,,,,,,,,,,,,,,,,,,,,,,,,,,,,,,,,,,,,,,,,,,,,,,,,,,,,,,,,,,,,,,,,,,,,,,,,,,,,,,,,,,,,,,,,,,,,,,,,,,,,,,,,,,,,,,,,,,,,,,,,,,,,,,,,
,,,,,,5f5aa7a073b8271a0ab0947c,62c53a0a7b979cb36aef82e5,2022-07-06_09h31.53.965,Colour_Asymmetry_Pilot,2022.1.3,Win32,144.0092166,62c50e9c1127f2cd403a315f,0,2,2,141,1,threefour,,,,,,,,,,,,,,,,,,,,,,,,,,,,,,,,,,,,,,,,,,,,,,,,,,,,,,,,,,,,,,,,,,,,,,,,,,,,,,,,,,,,,,,,,,,,,,,,,,,,,,,,,,,,,,,,,,,,,,,,,,,,,,,,,,,,,,,,,,,,,,,,,,,,,,,,,,,,,
,,,,,,5f5aa7a073b8271a0ab0947c,62c53a0a7b979cb36aef82e5,2022-07-06_09h31.53.965,Colour_Asymmetry_Pilot,2022.1.3,Win32,144.0092166,62c50e9c1127f2cd403a315f,0,3,3,148,1,threeone,,,,,,,,,,,,,,,,,,,,,,,,,,,,,,,,,,,,,,,,,,,,,,,,,,,,,,,,,,,,,,,,,,,,,,,,,,,,,,,,,,,,,,,,,,,,,,,,,,,,,,,,,,,,,,,,,,,,,,,,,,,,,,,,,,,,,,,,,,,,,,,,,,,,,,,,,,,,,
,,,,,,5f5aa7a073b8271a0ab0947c,62c53a0a7b979cb36aef82e5,2022-07-06_09h31.53.965,Colour_Asymmetry_Pilot,2022.1.3,Win32,144.0092166,62c50e9c1127f2cd403a315f,0,4,4,23,1,fourthree,,,,,,,,,,,,,,,,,,,,,,,,,,,,,,,,,,,,,,,,,,,,,,,,,,,,,,,,,,,,,,,,,,,,,,,,,,,,,,,,,,,,,,,,,,,,,,,,,,,,,,,,,,,,,,,,,,,,,,,,,,,,,,,,,,,,,,,,,,,,,,,,,,,,,,,,,,,,,
,,,,,,5f5aa7a073b8271a0ab0947c,62c53a0a7b979cb36aef82e5,2022-07-06_09h31.53.965,Colour_Asymmetry_Pilot,2022.1.3,Win32,144.0092166,62c50e9c1127f2cd403a315f,0,5,5,33,1,onethree,,,,,,,,,,,,,,,,,,,,,,,,,,,,,,,,,,,,,,,,,,,,,,,,,,,,,,,,,,,,,,,,,,,,,,,,,,,,,,,,,,,,,,,,,,,,,,,,,,,,,,,,,,,,,,,,,,,,,,,,,,,,,,,,,,,,,,,,,,,,,,,,,,,,,,,,,,,,,
,,,,,,5f5aa7a073b8271a0ab0947c,62c53a0a7b979cb36aef82e5,2022-07-06_09h31.53.965,Colour_Asymmetry_Pilot,2022.1.3,Win32,144.0092166,62c50e9c1127f2cd403a315f,0,6,6,60,1,threeone,,,,,,,,,,,,,,,,,,,,,,,,,,,,,,,,,,,,,,,,,,,,,,,,,,,,,,,,,,,,,,,,,,,,,,,,,,,,,,,,,,,,,,,,,,,,,,,,,,,,,,,,,,,,,,,,,,,,,,,,,,,,,,,,,,,,,,,,,,,,,,,,,,,,,,,,,,,,,
,,,,,,5f5aa7a073b8271a0ab0947c,62c53a0a7b979cb36aef82e5,2022-07-06_09h31.53.965,Colour_Asymmetry_Pilot,2022.1.3,Win32,144.0092166,62c50e9c1127f2cd403a315f,0,7,7,57,1,onethree,,,,,,,,,,,,,,,,,,,,,,,,,,,,,,,,,,,,,,,,,,,,,,,,,,,,,,,,,,,,,,,,,,,,,,,,,,,,,,,,,,,,,,,,,,,,,,,,,,,,,,,,,,,,,,,,,,,,,,,,,,,,,,,,,,,,,,,,,,,,,,,,,,,,,,,,,,,,,
,,,,,,5f5aa7a073b8271a0ab0947c,62c53a0a7b979cb36aef82e5,2022-07-06_09h31.53.965,Colour_Asymmetry_Pilot,2022.1.3,Win32,144.0092166,62c50e9c1127f2cd403a315f,0,8,8,102,1,fourtwo,,,,,,,,,,,,,,,,,,,,,,,,,,,,,,,,,,,,,,,,,,,,,,,,,,,,,,,,,,,,,,,,,,,,,,,,,,,,,,,,,,,,,,,,,,,,,,,,,,,,,,,,,,,,,,,,,,,,,,,,,,,,,,,,,,,,,,,,,,,,,,,,,,,,,,,,,,,,,
,,,,,,5f5aa7a073b8271a0ab0947c,62c53a0a7b979cb36aef82e5,2022-07-06_09h31.53.965,Colour_Asymmetry_Pilot,2022.1.3,Win32,144.0092166,62c50e9c1127f2cd403a315f,0,9,9,139,1,twofour,,,,,,,,,,,,,,,,,,,,,,,,,,,,,,,,,,,,,,,,,,,,,,,,,,,,,,,,,,,,,,,,,,,,,,,,,,,,,,,,,,,,,,,,,,,,,,,,,,,,,,,,,,,,,,,,,,,,,,,,,,,,,,,,,,,,,,,,,,,,,,,,,,,,,,,,,,,,,
,,,,,,5f5aa7a073b8271a0ab0947c,62c53a0a7b979cb36aef82e5,2022-07-06_09h31.53.965,Colour_Asymmetry_Pilot,2022.1.3,Win32,144.0092166,62c50e9c1127f2cd403a315f,0,10,10,83,1,twofour,,,,,,,,,,,,,,,,,,,,,,,,,,,,,,,,,,,,,,,,,,,,,,,,,,,,,,,,,,,,,,,,,,,,,,,,,,,,,,,,,,,,,,,,,,,,,,,,,,,,,,,,,,,,,,,,,,,,,,,,,,,,,,,,,,,,,,,,,,,,,,,,,,,,,,,,,,,,,
,,,,,,5f5aa7a073b8271a0ab0947c,62c53a0a7b979cb36aef82e5,2022-07-06_09h31.53.965,Colour_Asymmetry_Pilot,2022.1.3,Win32,144.0092166,62c50e9c1127f2cd403a315f,0,11,11,105,1,onethree,,,,,,,,,,,,,,,,,,,,,,,,,,,,,,,,,,,,,,,,,,,,,,,,,,,,,,,,,,,,,,,,,,,,,,,,,,,,,,,,,,,,,,,,,,,,,,,,,,,,,,,,,,,,,,,,,,,,,,,,,,,,,,,,,,,,,,,,,,,,,,,,,,,,,,,,,,,,,
,,,,,,5f5aa7a073b8271a0ab0947c,62c53a0a7b979cb36aef82e5,2022-07-06_09h31.53.965,Colour_Asymmetry_Pilot,2022.1.3,Win32,144.0092166,62c50e9c1127f2cd403a315f,0,12,12,29,1,threefour,,,,,,,,,,,,,,,,,,,,,,,,,,,,,,,,,,,,,,,,,,,,,,,,,,,,,,,,,,,,,,,,,,,,,,,,,,,,,,,,,,,,,,,,,,,,,,,,,,,,,,,,,,,,,,,,,,,,,,,,,,,,,,,,,,,,,,,,,,,,,,,,,,,,,,,,,,,,,
,,,,,,5f5aa7a073b8271a0ab0947c,62c53a0a7b979cb36aef82e5,2022-07-06_09h31.53.965,Colour_Asymmetry_Pilot,2022.1.3,Win32,144.0092166,62c50e9c1127f2cd403a315f,0,13,13,109,1,threefour,,,,,,,,,,,,,,,,,,,,,,,,,,,,,,,,,,,,,,,,,,,,,,,,,,,,,,,,,,,,,,,,,,,,,,,,,,,,,,,,,,,,,,,,,,,,,,,,,,,,,,,,,,,,,,,,,,,,,,,,,,,,,,,,,,,,,,,,,,,,,,,,,,,,,,,,,,,,,
,,,,,,5f5aa7a073b8271a0ab0947c,62c53a0a7b979cb36aef82e5,2022-07-06_09h31.53.965,Colour_Asymmetry_Pilot,2022.1.3,Win32,144.0092166,62c50e9c1127f2cd403a315f,0,14,14,107,1,twofour,,,,,,,,,,,,,,,,,,,,,,,,,,,,,,,,,,,,,,,,,,,,,,,,,,,,,,,,,,,,,,,,,,,,,,,,,,,,,,,,,,,,,,,,,,,,,,,,,,,,,,,,,,,,,,,,,,,,,,,,,,,,,,,,,,,,,,,,,,,,,,,,,,,,,,,,,,,,,
,,,,,,5f5aa7a073b8271a0ab0947c,62c53a0a7b979cb36aef82e5,2022-07-06_09h31.53.965,Colour_Asymmetry_Pilot,2022.1.3,Win32,144.0092166,62c50e9c1127f2cd403a315f,0,15,15,28,1,threeone,,,,,,,,,,,,,,,,,,,,,,,,,,,,,,,,,,,,,,,,,,,,,,,,,,,,,,,,,,,,,,,,,,,,,,,,,,,,,,,,,,,,,,,,,,,,,,,,,,,,,,,,,,,,,,,,,,,,,,,,,,,,,,,,,,,,,,,,,,,,,,,,,,,,,,,,,,,,,
,,,,,,5f5aa7a073b8271a0ab0947c,62c53a0a7b979cb36aef82e5,2022-07-06_09h31.53.965,Colour_Asymmetry_Pilot,2022.1.3,Win32,144.0092166,62c50e9c1127f2cd403a315f,0,16,16,18,1,twoone,,,,,,,,,,,,,,,,,,,,,,,,,,,,,,,,,,,,,,,,,,,,,,,,,,,,,,,,,,,,,,,,,,,,,,,,,,,,,,,,,,,,,,,,,,,,,,,,,,,,,,,,,,,,,,,,,,,,,,,,,,,,,,,,,,,,,,,,,,,,,,,,,,,,,,,,,,,,,
,,,,,,5f5aa7a073b8271a0ab0947c,62c53a0a7b979cb36aef82e5,2022-07-06_09h31.53.965,Colour_Asymmetry_Pilot,2022.1.3,Win32,144.0092166,62c50e9c1127f2cd403a315f,0,17,17,38,1,fourtwo,,,,,,,,,,,,,,,,,,,,,,,,,,,,,,,,,,,,,,,,,,,,,,,,,,,,,,,,,,,,,,,,,,,,,,,,,,,,,,,,,,,,,,,,,,,,,,,,,,,,,,,,,,,,,,,,,,,,,,,,,,,,,,,,,,,,,,,,,,,,,,,,,,,,,,,,,,,,,
,,,,,,5f5aa7a073b8271a0ab0947c,62c53a0a7b979cb36aef82e5,2022-07-06_09h31.53.965,Colour_Asymmetry_Pilot,2022.1.3,Win32,144.0092166,62c50e9c1127f2cd403a315f,0,18,18,119,1,fourthree,,,,,,,,,,,,,,,,,,,,,,,,,,,,,,,,,,,,,,,,,,,,,,,,,,,,,,,,,,,,,,,,,,,,,,,,,,,,,,,,,,,,,,,,,,,,,,,,,,,,,,,,,,,,,,,,,,,,,,,,,,,,,,,,,,,,,,,,,,,,,,,,,,,,,,,,,,,,,
,,,,,,5f5aa7a073b8271a0ab0947c,62c53a0a7b979cb36aef82e5,2022-07-06_09h31.53.965,Colour_Asymmetry_Pilot,2022.1.3,Win32,144.0092166,62c50e9c1127f2cd403a315f,0,19,19,75,1,twofour,,,,,,,,,,,,,,,,,,,,,,,,,,,,,,,,,,,,,,,,,,,,,,,,,,,,,,,,,,,,,,,,,,,,,,,,,,,,,,,,,,,,,,,,,,,,,,,,,,,,,,,,,,,,,,,,,,,,,,,,,,,,,,,,,,,,,,,,,,,,,,,,,,,,,,,,,,,,,
,,,,,,5f5aa7a073b8271a0ab0947c,62c53a0a7b979cb36aef82e5,2022-07-06_09h31.53.965,Colour_Asymmetry_Pilot,2022.1.3,Win32,144.0092166,62c50e9c1127f2cd403a315f,0,20,20,0,1,onetwo,,,,,,,,,,,,,,,,,,,,,,,,,,,,,,,,,,,,,,,,,,,,,,,,,,,,,,,,,,,,,,,,,,,,,,,,,,,,,,,,,,,,,,,,,,,,,,,,,,,,,,,,,,,,,,,,,,,,,,,,,,,,,,,,,,,,,,,,,,,,,,,,,,,,,,,,,,,,,
,,,,,,5f5aa7a073b8271a0ab0947c,62c53a0a7b979cb36aef82e5,2022-07-06_09h31.53.965,Colour_Asymmetry_Pilot,2022.1.3,Win32,144.0092166,62c50e9c1127f2cd403a315f,0,21,21,21,1,threefour,,,,,,,,,,,,,,,,,,,,,,,,,,,,,,,,,,,,,,,,,,,,,,,,,,,,,,,,,,,,,,,,,,,,,,,,,,,,,,,,,,,,,,,,,,,,,,,,,,,,,,,,,,,,,,,,,,,,,,,,,,,,,,,,,,,,,,,,,,,,,,,,,,,,,,,,,,,,,
,,,,,,5f5aa7a073b8271a0ab0947c,62c53a0a7b979cb36aef82e5,2022-07-06_09h31.53.965,Colour_Asymmetry_Pilot,2022.1.3,Win32,144.0092166,62c50e9c1127f2cd403a315f,0,22,22,72,1,onetwo,,,,,,,,,,,,,,,,,,,,,,,,,,,,,,,,,,,,,,,,,,,,,,,,,,,,,,,,,,,,,,,,,,,,,,,,,,,,,,,,,,,,,,,,,,,,,,,,,,,,,,,,,,,,,,,,,,,,,,,,,,,,,,,,,,,,,,,,,,,,,,,,,,,,,,,,,,,,,
,,,,,,5f5aa7a073b8271a0ab0947c,62c53a0a7b979cb36aef82e5,2022-07-06_09h31.53.965,Colour_Asymmetry_Pilot,2022.1.3,Win32,144.0092166,62c50e9c1127f2cd403a315f,0,23,23,8,1,onetwo,,,,,,,,,,,,,,,,,,,,,,,,,,,,,,,,,,,,,,,,,,,,,,,,,,,,,,,,,,,,,,,,,,,,,,,,,,,,,,,,,,,,,,,,,,,,,,,,,,,,,,,,,,,,,,,,,,,,,,,,,,,,,,,,,,,,,,,,,,,,,,,,,,,,,,,,,,,,,
,,,,,,5f5aa7a073b8271a0ab0947c,62c53a0a7b979cb36aef82e5,2022-07-06_09h31.53.965,Colour_Asymmetry_Pilot,2022.1.3,Win32,144.0092166,62c50e9c1127f2cd403a315f,0,24,24,115,1,twofour,,,,,,,,,,,,,,,,,,,,,,,,,,,,,,,,,,,,,,,,,,,,,,,,,,,,,,,,,,,,,,,,,,,,,,,,,,,,,,,,,,,,,,,,,,,,,,,,,,,,,,,,,,,,,,,,,,,,,,,,,,,,,,,,,,,,,,,,,,,,,,,,,,,,,,,,,,,,,
,,,,,,5f5aa7a073b8271a0ab0947c,62c53a0a7b979cb36aef82e5,2022-07-06_09h31.53.965,Colour_Asymmetry_Pilot,2022.1.3,Win32,144.0092166,62c50e9c1127f2cd403a315f,0,25,25,71,1,fourthree,,,,,,,,,,,,,,,,,,,,,,,,,,,,,,,,,,,,,,,,,,,,,,,,,,,,,,,,,,,,,,,,,,,,,,,,,,,,,,,,,,,,,,,,,,,,,,,,,,,,,,,,,,,,,,,,,,,,,,,,,,,,,,,,,,,,,,,,,,,,,,,,,,,,,,,,,,,,,
,,,,,,5f5aa7a073b8271a0ab0947c,62c53a0a7b979cb36aef82e5,2022-07-06_09h31.53.965,Colour_Asymmetry_Pilot,2022.1.3,Win32,144.0092166,62c50e9c1127f2cd403a315f,0,26,26,5,1,threefour,,,,,,,,,,,,,,,,,,,,,,,,,,,,,,,,,,,,,,,,,,,,,,,,,,,,,,,,,,,,,,,,,,,,,,,,,,,,,,,,,,,,,,,,,,,,,,,,,,,,,,,,,,,,,,,,,,,,,,,,,,,,,,,,,,,,,,,,,,,,,,,,,,,,,,,,,,,,,
,,,,,,5f5aa7a073b8271a0ab0947c,62c53a0a7b979cb36aef82e5,2022-07-06_09h31.53.965,Colour_Asymmetry_Pilot,2022.1.3,Win32,144.0092166,62c50e9c1127f2cd403a315f,0,27,27,69,1,threefour,,,,,,,,,,,,,,,,,,,,,,,,,,,,,,,,,,,,,,,,,,,,,,,,,,,,,,,,,,,,,,,,,,,,,,,,,,,,,,,,,,,,,,,,,,,,,,,,,,,,,,,,,,,,,,,,,,,,,,,,,,,,,,,,,,,,,,,,,,,,,,,,,,,,,,,,,,,,,
,,,,,,5f5aa7a073b8271a0ab0947c,62c53a0a7b979cb36aef82e5,2022-07-06_09h31.53.965,Colour_Asymmetry_Pilot,2022.1.3,Win32,144.0092166,62c50e9c1127f2cd403a315f,0,28,28,61,1,threefour,,,,,,,,,,,,,,,,,,,,,,,,,,,,,,,,,,,,,,,,,,,,,,,,,,,,,,,,,,,,,,,,,,,,,,,,,,,,,,,,,,,,,,,,,,,,,,,,,,,,,,,,,,,,,,,,,,,,,,,,,,,,,,,,,,,,,,,,,,,,,,,,,,,,,,,,,,,,,
,,,,,,5f5aa7a073b8271a0ab0947c,62c53a0a7b979cb36aef82e5,2022-07-06_09h31.53.965,Colour_Asymmetry_Pilot,2022.1.3,Win32,144.0092166,62c50e9c1127f2cd403a315f,0,29,29,130,1,twoone,,,,,,,,,,,,,,,,,,,,,,,,,,,,,,,,,,,,,,,,,,,,,,,,,,,,,,,,,,,,,,,,,,,,,,,,,,,,,,,,,,,,,,,,,,,,,,,,,,,,,,,,,,,,,,,,,,,,,,,,,,,,,,,,,,,,,,,,,,,,,,,,,,,,,,,,,,,,,
,,,,,,5f5aa7a073b8271a0ab0947c,62c53a0a7b979cb36aef82e5,2022-07-06_09h31.53.965,Colour_Asymmetry_Pilot,2022.1.3,Win32,144.0092166,62c50e9c1127f2cd403a315f,0,30,30,96,1,onetwo,,,,,,,,,,,,,,,,,,,,,,,,,,,,,,,,,,,,,,,,,,,,,,,,,,,,,,,,,,,,,,,,,,,,,,,,,,,,,,,,,,,,,,,,,,,,,,,,,,,,,,,,,,,,,,,,,,,,,,,,,,,,,,,,,,,,,,,,,,,,,,,,,,,,,,,,,,,,,
,,,,,,5f5aa7a073b8271a0ab0947c,62c53a0a7b979cb36aef82e5,2022-07-06_09h31.53.965,Colour_Asymmetry_Pilot,2022.1.3,Win32,144.0092166,62c50e9c1127f2cd403a315f,0,31,31,11,1,twofour,,,,,,,,,,,,,,,,,,,,,,,,,,,,,,,,,,,,,,,,,,,,,,,,,,,,,,,,,,,,,,,,,,,,,,,,,,,,,,,,,,,,,,,,,,,,,,,,,,,,,,,,,,,,,,,,,,,,,,,,,,,,,,,,,,,,,,,,,,,,,,,,,,,,,,,,,,,,,
,,,,,,5f5aa7a073b8271a0ab0947c,62c53a0a7b979cb36aef82e5,2022-07-06_09h31.53.965,Colour_Asymmetry_Pilot,2022.1.3,Win32,144.0092166,62c50e9c1127f2cd403a315f,0,32,32,73,1,onethree,,,,,,,,,,,,,,,,,,,,,,,,,,,,,,,,,,,,,,,,,,,,,,,,,,,,,,,,,,,,,,,,,,,,,,,,,,,,,,,,,,,,,,,,,,,,,,,,,,,,,,,,,,,,,,,,,,,,,,,,,,,,,,,,,,,,,,,,,,,,,,,,,,,,,,,,,,,,,
,,,,,,5f5aa7a073b8271a0ab0947c,62c53a0a7b979cb36aef82e5,2022-07-06_09h31.53.965,Colour_Asymmetry_Pilot,2022.1.3,Win32,144.0092166,62c50e9c1127f2cd403a315f,0,33,33,112,1,onetwo,,,,,,,,,,,,,,,,,,,,,,,,,,,,,,,,,,,,,,,,,,,,,,,,,,,,,,,,,,,,,,,,,,,,,,,,,,,,,,,,,,,,,,,,,,,,,,,,,,,,,,,,,,,,,,,,,,,,,,,,,,,,,,,,,,,,,,,,,,,,,,,,,,,,,,,,,,,,,
,,,,,,5f5aa7a073b8271a0ab0947c,62c53a0a7b979cb36aef82e5,2022-07-06_09h31.53.965,Colour_Asymmetry_Pilot,2022.1.3,Win32,144.0092166,62c50e9c1127f2cd403a315f,0,34,34,22,1,fourtwo,,,,,,,,,,,,,,,,,,,,,,,,,,,,,,,,,,,,,,,,,,,,,,,,,,,,,,,,,,,,,,,,,,,,,,,,,,,,,,,,,,,,,,,,,,,,,,,,,,,,,,,,,,,,,,,,,,,,,,,,,,,,,,,,,,,,,,,,,,,,,,,,,,,,,,,,,,,,,
,,,,,,5f5aa7a073b8271a0ab0947c,62c53a0a7b979cb36aef82e5,2022-07-06_09h31.53.965,Colour_Asymmetry_Pilot,2022.1.3,Win32,144.0092166,62c50e9c1127f2cd403a315f,0,35,35,134,1,fourtwo,,,,,,,,,,,,,,,,,,,,,,,,,,,,,,,,,,,,,,,,,,,,,,,,,,,,,,,,,,,,,,,,,,,,,,,,,,,,,,,,,,,,,,,,,,,,,,,,,,,,,,,,,,,,,,,,,,,,,,,,,,,,,,,,,,,,,,,,,,,,,,,,,,,,,,,,,,,,,
,,,,,,5f5aa7a073b8271a0ab0947c,62c53a0a7b979cb36aef82e5,2022-07-06_09h31.53.965,Colour_Asymmetry_Pilot,2022.1.3,Win32,144.0092166,62c50e9c1127f2cd403a315f,0,36,36,19,1,twofour,,,,,,,,,,,,,,,,,,,,,,,,,,,,,,,,,,,,,,,,,,,,,,,,,,,,,,,,,,,,,,,,,,,,,,,,,,,,,,,,,,,,,,,,,,,,,,,,,,,,,,,,,,,,,,,,,,,,,,,,,,,,,,,,,,,,,,,,,,,,,,,,,,,,,,,,,,,,,
,,,,,,5f5aa7a073b8271a0ab0947c,62c53a0a7b979cb36aef82e5,2022-07-06_09h31.53.965,Colour_Asymmetry_Pilot,2022.1.3,Win32,144.0092166,62c50e9c1127f2cd403a315f,0,37,37,113,1,onethree,,,,,,,,,,,,,,,,,,,,,,,,,,,,,,,,,,,,,,,,,,,,,,,,,,,,,,,,,,,,,,,,,,,,,,,,,,,,,,,,,,,,,,,,,,,,,,,,,,,,,,,,,,,,,,,,,,,,,,,,,,,,,,,,,,,,,,,,,,,,,,,,,,,,,,,,,,,,,
,,,,,,5f5aa7a073b8271a0ab0947c,62c53a0a7b979cb36aef82e5,2022-07-06_09h31.53.965,Colour_Asymmetry_Pilot,2022.1.3,Win32,144.0092166,62c50e9c1127f2cd403a315f,0,38,38,79,1,fourthree,,,,,,,,,,,,,,,,,,,,,,,,,,,,,,,,,,,,,,,,,,,,,,,,,,,,,,,,,,,,,,,,,,,,,,,,,,,,,,,,,,,,,,,,,,,,,,,,,,,,,,,,,,,,,,,,,,,,,,,,,,,,,,,,,,,,,,,,,,,,,,,,,,,,,,,,,,,,,
,,,,,,5f5aa7a073b8271a0ab0947c,62c53a0a7b979cb36aef82e5,2022-07-06_09h31.53.965,Colour_Asymmetry_Pilot,2022.1.3,Win32,144.0092166,62c50e9c1127f2cd403a315f,0,39,39,26,1,twoone,,,,,,,,,,,,,,,,,,,,,,,,,,,,,,,,,,,,,,,,,,,,,,,,,,,,,,,,,,,,,,,,,,,,,,,,,,,,,,,,,,,,,,,,,,,,,,,,,,,,,,,,,,,,,,,,,,,,,,,,,,,,,,,,,,,,,,,,,,,,,,,,,,,,,,,,,,,,,
,,,,,,5f5aa7a073b8271a0ab0947c,62c53a0a7b979cb36aef82e5,2022-07-06_09h31.53.965,Colour_Asymmetry_Pilot,2022.1.3,Win32,144.0092166,62c50e9c1127f2cd403a315f,0,40,40,108,1,threeone,,,,,,,,,,,,,,,,,,,,,,,,,,,,,,,,,,,,,,,,,,,,,,,,,,,,,,,,,,,,,,,,,,,,,,,,,,,,,,,,,,,,,,,,,,,,,,,,,,,,,,,,,,,,,,,,,,,,,,,,,,,,,,,,,,,,,,,,,,,,,,,,,,,,,,,,,,,,,
,,,,,,5f5aa7a073b8271a0ab0947c,62c53a0a7b979cb36aef82e5,2022-07-06_09h31.53.965,Colour_Asymmetry_Pilot,2022.1.3,Win32,144.0092166,62c50e9c1127f2cd403a315f,0,41,41,152,1,onetwo,,,,,,,,,,,,,,,,,,,,,,,,,,,,,,,,,,,,,,,,,,,,,,,,,,,,,,,,,,,,,,,,,,,,,,,,,,,,,,,,,,,,,,,,,,,,,,,,,,,,,,,,,,,,,,,,,,,,,,,,,,,,,,,,,,,,,,,,,,,,,,,,,,,,,,,,,,,,,
,,,,,,5f5aa7a073b8271a0ab0947c,62c53a0a7b979cb36aef82e5,2022-07-06_09h31.53.965,Colour_Asymmetry_Pilot,2022.1.3,Win32,144.0092166,62c50e9c1127f2cd403a315f,0,42,42,62,1,fourtwo,,,,,,,,,,,,,,,,,,,,,,,,,,,,,,,,,,,,,,,,,,,,,,,,,,,,,,,,,,,,,,,,,,,,,,,,,,,,,,,,,,,,,,,,,,,,,,,,,,,,,,,,,,,,,,,,,,,,,,,,,,,,,,,,,,,,,,,,,,,,,,,,,,,,,,,,,,,,,
,,,,,,5f5aa7a073b8271a0ab0947c,62c53a0a7b979cb36aef82e5,2022-07-06_09h31.53.965,Colour_Asymmetry_Pilot,2022.1.3,Win32,144.0092166,62c50e9c1127f2cd403a315f,0,43,43,124,1,threeone,,,,,,,,,,,,,,,,,,,,,,,,,,,,,,,,,,,,,,,,,,,,,,,,,,,,,,,,,,,,,,,,,,,,,,,,,,,,,,,,,,,,,,,,,,,,,,,,,,,,,,,,,,,,,,,,,,,,,,,,,,,,,,,,,,,,,,,,,,,,,,,,,,,,,,,,,,,,,
,,,,,,5f5aa7a073b8271a0ab0947c,62c53a0a7b979cb36aef82e5,2022-07-06_09h31.53.965,Colour_Asymmetry_Pilot,2022.1.3,Win32,144.0092166,62c50e9c1127f2cd403a315f,0,44,44,133,1,threefour,,,,,,,,,,,,,,,,,,,,,,,,,,,,,,,,,,,,,,,,,,,,,,,,,,,,,,,,,,,,,,,,,,,,,,,,,,,,,,,,,,,,,,,,,,,,,,,,,,,,,,,,,,,,,,,,,,,,,,,,,,,,,,,,,,,,,,,,,,,,,,,,,,,,,,,,,,,,,
,,,,,,5f5aa7a073b8271a0ab0947c,62c53a0a7b979cb36aef82e5,2022-07-06_09h31.53.965,Colour_Asymmetry_Pilot,2022.1.3,Win32,144.0092166,62c50e9c1127f2cd403a315f,0,45,45,123,1,twofour,,,,,,,,,,,,,,,,,,,,,,,,,,,,,,,,,,,,,,,,,,,,,,,,,,,,,,,,,,,,,,,,,,,,,,,,,,,,,,,,,,,,,,,,,,,,,,,,,,,,,,,,,,,,,,,,,,,,,,,,,,,,,,,,,,,,,,,,,,,,,,,,,,,,,,,,,,,,,
,,,,,,5f5aa7a073b8271a0ab0947c,62c53a0a7b979cb36aef82e5,2022-07-06_09h31.53.965,Colour_Asymmetry_Pilot,2022.1.3,Win32,144.0092166,62c50e9c1127f2cd403a315f,0,46,46,116,1,threeone,,,,,,,,,,,,,,,,,,,,,,,,,,,,,,,,,,,,,,,,,,,,,,,,,,,,,,,,,,,,,,,,,,,,,,,,,,,,,,,,,,,,,,,,,,,,,,,,,,,,,,,,,,,,,,,,,,,,,,,,,,,,,,,,,,,,,,,,,,,,,,,,,,,,,,,,,,,,,
,,,,,,5f5aa7a073b8271a0ab0947c,62c53a0a7b979cb36aef82e5,2022-07-06_09h31.53.965,Colour_Asymmetry_Pilot,2022.1.3,Win32,144.0092166,62c50e9c1127f2cd403a315f,0,47,47,43,1,twofour,,,,,,,,,,,,,,,,,,,,,,,,,,,,,,,,,,,,,,,,,,,,,,,,,,,,,,,,,,,,,,,,,,,,,,,,,,,,,,,,,,,,,,,,,,,,,,,,,,,,,,,,,,,,,,,,,,,,,,,,,,,,,,,,,,,,,,,,,,,,,,,,,,,,,,,,,,,,,
,,,,,,5f5aa7a073b8271a0ab0947c,62c53a0a7b979cb36aef82e5,2022-07-06_09h31.53.965,Colour_Asymmetry_Pilot,2022.1.3,Win32,144.0092166,62c50e9c1127f2cd403a315f,0,48,48,16,1,onetwo,,,,,,,,,,,,,,,,,,,,,,,,,,,,,,,,,,,,,,,,,,,,,,,,,,,,,,,,,,,,,,,,,,,,,,,,,,,,,,,,,,,,,,,,,,,,,,,,,,,,,,,,,,,,,,,,,,,,,,,,,,,,,,,,,,,,,,,,,,,,,,,,,,,,,,,,,,,,,
,,,,,,5f5aa7a073b8271a0ab0947c,62c53a0a7b979cb36aef82e5,2022-07-06_09h31.53.965,Colour_Asymmetry_Pilot,2022.1.3,Win32,144.0092166,62c50e9c1127f2cd403a315f,0,49,49,110,1,fourtwo,,,,,,,,,,,,,,,,,,,,,,,,,,,,,,,,,,,,,,,,,,,,,,,,,,,,,,,,,,,,,,,,,,,,,,,,,,,,,,,,,,,,,,,,,,,,,,,,,,,,,,,,,,,,,,,,,,,,,,,,,,,,,,,,,,,,,,,,,,,,,,,,,,,,,,,,,,,,,
,,,,,,5f5aa7a073b8271a0ab0947c,62c53a0a7b979cb36aef82e5,2022-07-06_09h31.53.965,Colour_Asymmetry_Pilot,2022.1.3,Win32,144.0092166,62c50e9c1127f2cd403a315f,0,50,50,128,1,onetwo,,,,,,,,,,,,,,,,,,,,,,,,,,,,,,,,,,,,,,,,,,,,,,,,,,,,,,,,,,,,,,,,,,,,,,,,,,,,,,,,,,,,,,,,,,,,,,,,,,,,,,,,,,,,,,,,,,,,,,,,,,,,,,,,,,,,,,,,,,,,,,,,,,,,,,,,,,,,,
,,,,,,5f5aa7a073b8271a0ab0947c,62c53a0a7b979cb36aef82e5,2022-07-06_09h31.53.965,Colour_Asymmetry_Pilot,2022.1.3,Win32,144.0092166,62c50e9c1127f2cd403a315f,0,51,51,156,1,threeone,,,,,,,,,,,,,,,,,,,,,,,,,,,,,,,,,,,,,,,,,,,,,,,,,,,,,,,,,,,,,,,,,,,,,,,,,,,,,,,,,,,,,,,,,,,,,,,,,,,,,,,,,,,,,,,,,,,,,,,,,,,,,,,,,,,,,,,,,,,,,,,,,,,,,,,,,,,,,
,,,,,,5f5aa7a073b8271a0ab0947c,62c53a0a7b979cb36aef82e5,2022-07-06_09h31.53.965,Colour_Asymmetry_Pilot,2022.1.3,Win32,144.0092166,62c50e9c1127f2cd403a315f,0,52,52,64,1,onetwo,,,,,,,,,,,,,,,,,,,,,,,,,,,,,,,,,,,,,,,,,,,,,,,,,,,,,,,,,,,,,,,,,,,,,,,,,,,,,,,,,,,,,,,,,,,,,,,,,,,,,,,,,,,,,,,,,,,,,,,,,,,,,,,,,,,,,,,,,,,,,,,,,,,,,,,,,,,,,
,,,,,,5f5aa7a073b8271a0ab0947c,62c53a0a7b979cb36aef82e5,2022-07-06_09h31.53.965,Colour_Asymmetry_Pilot,2022.1.3,Win32,144.0092166,62c50e9c1127f2cd403a315f,0,53,53,99,1,twofour,,,,,,,,,,,,,,,,,,,,,,,,,,,,,,,,,,,,,,,,,,,,,,,,,,,,,,,,,,,,,,,,,,,,,,,,,,,,,,,,,,,,,,,,,,,,,,,,,,,,,,,,,,,,,,,,,,,,,,,,,,,,,,,,,,,,,,,,,,,,,,,,,,,,,,,,,,,,,
,,,,,,5f5aa7a073b8271a0ab0947c,62c53a0a7b979cb36aef82e5,2022-07-06_09h31.53.965,Colour_Asymmetry_Pilot,2022.1.3,Win32,144.0092166,62c50e9c1127f2cd403a315f,0,54,54,82,1,twoone,,,,,,,,,,,,,,,,,,,,,,,,,,,,,,,,,,,,,,,,,,,,,,,,,,,,,,,,,,,,,,,,,,,,,,,,,,,,,,,,,,,,,,,,,,,,,,,,,,,,,,,,,,,,,,,,,,,,,,,,,,,,,,,,,,,,,,,,,,,,,,,,,,,,,,,,,,,,,
,,,,,,5f5aa7a073b8271a0ab0947c,62c53a0a7b979cb36aef82e5,2022-07-06_09h31.53.965,Colour_Asymmetry_Pilot,2022.1.3,Win32,144.0092166,62c50e9c1127f2cd403a315f,0,55,55,101,1,threefour,,,,,,,,,,,,,,,,,,,,,,,,,,,,,,,,,,,,,,,,,,,,,,,,,,,,,,,,,,,,,,,,,,,,,,,,,,,,,,,,,,,,,,,,,,,,,,,,,,,,,,,,,,,,,,,,,,,,,,,,,,,,,,,,,,,,,,,,,,,,,,,,,,,,,,,,,,,,,
,,,,,,5f5aa7a073b8271a0ab0947c,62c53a0a7b979cb36aef82e5,2022-07-06_09h31.53.965,Colour_Asymmetry_Pilot,2022.1.3,Win32,144.0092166,62c50e9c1127f2cd403a315f,0,56,56,127,1,fourthree,,,,,,,,,,,,,,,,,,,,,,,,,,,,,,,,,,,,,,,,,,,,,,,,,,,,,,,,,,,,,,,,,,,,,,,,,,,,,,,,,,,,,,,,,,,,,,,,,,,,,,,,,,,,,,,,,,,,,,,,,,,,,,,,,,,,,,,,,,,,,,,,,,,,,,,,,,,,,
,,,,,,5f5aa7a073b8271a0ab0947c,62c53a0a7b979cb36aef82e5,2022-07-06_09h31.53.965,Colour_Asymmetry_Pilot,2022.1.3,Win32,144.0092166,62c50e9c1127f2cd403a315f,0,57,57,153,1,onethree,,,,,,,,,,,,,,,,,,,,,,,,,,,,,,,,,,,,,,,,,,,,,,,,,,,,,,,,,,,,,,,,,,,,,,,,,,,,,,,,,,,,,,,,,,,,,,,,,,,,,,,,,,,,,,,,,,,,,,,,,,,,,,,,,,,,,,,,,,,,,,,,,,,,,,,,,,,,,
,,,,,,5f5aa7a073b8271a0ab0947c,62c53a0a7b979cb36aef82e5,2022-07-06_09h31.53.965,Colour_Asymmetry_Pilot,2022.1.3,Win32,144.0092166,62c50e9c1127f2cd403a315f,0,58,58,77,1,threefour,,,,,,,,,,,,,,,,,,,,,,,,,,,,,,,,,,,,,,,,,,,,,,,,,,,,,,,,,,,,,,,,,,,,,,,,,,,,,,,,,,,,,,,,,,,,,,,,,,,,,,,,,,,,,,,,,,,,,,,,,,,,,,,,,,,,,,,,,,,,,,,,,,,,,,,,,,,,,
,,,,,,5f5aa7a073b8271a0ab0947c,62c53a0a7b979cb36aef82e5,2022-07-06_09h31.53.965,Colour_Asymmetry_Pilot,2022.1.3,Win32,144.0092166,62c50e9c1127f2cd403a315f,0,59,59,93,1,threefour,,,,,,,,,,,,,,,,,,,,,,,,,,,,,,,,,,,,,,,,,,,,,,,,,,,,,,,,,,,,,,,,,,,,,,,,,,,,,,,,,,,,,,,,,,,,,,,,,,,,,,,,,,,,,,,,,,,,,,,,,,,,,,,,,,,,,,,,,,,,,,,,,,,,,,,,,,,,,
,,,,,,5f5aa7a073b8271a0ab0947c,62c53a0a7b979cb36aef82e5,2022-07-06_09h31.53.965,Colour_Asymmetry_Pilot,2022.1.3,Win32,144.0092166,62c50e9c1127f2cd403a315f,0,60,60,1,1,onethree,,,,,,,,,,,,,,,,,,,,,,,,,,,,,,,,,,,,,,,,,,,,,,,,,,,,,,,,,,,,,,,,,,,,,,,,,,,,,,,,,,,,,,,,,,,,,,,,,,,,,,,,,,,,,,,,,,,,,,,,,,,,,,,,,,,,,,,,,,,,,,,,,,,,,,,,,,,,,
,,,,,,5f5aa7a073b8271a0ab0947c,62c53a0a7b979cb36aef82e5,2022-07-06_09h31.53.965,Colour_Asymmetry_Pilot,2022.1.3,Win32,144.0092166,62c50e9c1127f2cd403a315f,0,61,61,47,1,fourthree,,,,,,,,,,,,,,,,,,,,,,,,,,,,,,,,,,,,,,,,,,,,,,,,,,,,,,,,,,,,,,,,,,,,,,,,,,,,,,,,,,,,,,,,,,,,,,,,,,,,,,,,,,,,,,,,,,,,,,,,,,,,,,,,,,,,,,,,,,,,,,,,,,,,,,,,,,,,,
,,,,,,5f5aa7a073b8271a0ab0947c,62c53a0a7b979cb36aef82e5,2022-07-06_09h31.53.965,Colour_Asymmetry_Pilot,2022.1.3,Win32,144.0092166,62c50e9c1127f2cd403a315f,0,62,62,155,1,twofour,,,,,,,,,,,,,,,,,,,,,,,,,,,,,,,,,,,,,,,,,,,,,,,,,,,,,,,,,,,,,,,,,,,,,,,,,,,,,,,,,,,,,,,,,,,,,,,,,,,,,,,,,,,,,,,,,,,,,,,,,,,,,,,,,,,,,,,,,,,,,,,,,,,,,,,,,,,,,
,,,,,,5f5aa7a073b8271a0ab0947c,62c53a0a7b979cb36aef82e5,2022-07-06_09h31.53.965,Colour_Asymmetry_Pilot,2022.1.3,Win32,144.0092166,62c50e9c1127f2cd403a315f,0,63,63,151,1,fourthree,,,,,,,,,,,,,,,,,,,,,,,,,,,,,,,,,,,,,,,,,,,,,,,,,,,,,,,,,,,,,,,,,,,,,,,,,,,,,,,,,,,,,,,,,,,,,,,,,,,,,,,,,,,,,,,,,,,,,,,,,,,,,,,,,,,,,,,,,,,,,,,,,,,,,,,,,,,,,
,,,,,,5f5aa7a073b8271a0ab0947c,62c53a0a7b979cb36aef82e5,2022-07-06_09h31.53.965,Colour_Asymmetry_Pilot,2022.1.3,Win32,144.0092166,62c50e9c1127f2cd403a315f,0,64,64,39,1,fourthree,,,,,,,,,,,,,,,,,,,,,,,,,,,,,,,,,,,,,,,,,,,,,,,,,,,,,,,,,,,,,,,,,,,,,,,,,,,,,,,,,,,,,,,,,,,,,,,,,,,,,,,,,,,,,,,,,,,,,,,,,,,,,,,,,,,,,,,,,,,,,,,,,,,,,,,,,,,,,
,,,,,,5f5aa7a073b8271a0ab0947c,62c53a0a7b979cb36aef82e5,2022-07-06_09h31.53.965,Colour_Asymmetry_Pilot,2022.1.3,Win32,144.0092166,62c50e9c1127f2cd403a315f,0,65,65,86,1,fourtwo,,,,,,,,,,,,,,,,,,,,,,,,,,,,,,,,,,,,,,,,,,,,,,,,,,,,,,,,,,,,,,,,,,,,,,,,,,,,,,,,,,,,,,,,,,,,,,,,,,,,,,,,,,,,,,,,,,,,,,,,,,,,,,,,,,,,,,,,,,,,,,,,,,,,,,,,,,,,,
,,,,,,5f5aa7a073b8271a0ab0947c,62c53a0a7b979cb36aef82e5,2022-07-06_09h31.53.965,Colour_Asymmetry_Pilot,2022.1.3,Win32,144.0092166,62c50e9c1127f2cd403a315f,0,66,66,81,1,onethree,,,,,,,,,,,,,,,,,,,,,,,,,,,,,,,,,,,,,,,,,,,,,,,,,,,,,,,,,,,,,,,,,,,,,,,,,,,,,,,,,,,,,,,,,,,,,,,,,,,,,,,,,,,,,,,,,,,,,,,,,,,,,,,,,,,,,,,,,,,,,,,,,,,,,,,,,,,,,
,,,,,,5f5aa7a073b8271a0ab0947c,62c53a0a7b979cb36aef82e5,2022-07-06_09h31.53.965,Colour_Asymmetry_Pilot,2022.1.3,Win32,144.0092166,62c50e9c1127f2cd403a315f,0,67,67,44,1,threeone,,,,,,,,,,,,,,,,,,,,,,,,,,,,,,,,,,,,,,,,,,,,,,,,,,,,,,,,,,,,,,,,,,,,,,,,,,,,,,,,,,,,,,,,,,,,,,,,,,,,,,,,,,,,,,,,,,,,,,,,,,,,,,,,,,,,,,,,,,,,,,,,,,,,,,,,,,,,,
,,,,,,5f5aa7a073b8271a0ab0947c,62c53a0a7b979cb36aef82e5,2022-07-06_09h31.53.965,Colour_Asymmetry_Pilot,2022.1.3,Win32,144.0092166,62c50e9c1127f2cd403a315f,0,68,68,126,1,fourtwo,,,,,,,,,,,,,,,,,,,,,,,,,,,,,,,,,,,,,,,,,,,,,,,,,,,,,,,,,,,,,,,,,,,,,,,,,,,,,,,,,,,,,,,,,,,,,,,,,,,,,,,,,,,,,,,,,,,,,,,,,,,,,,,,,,,,,,,,,,,,,,,,,,,,,,,,,,,,,
,,,,,,5f5aa7a073b8271a0ab0947c,62c53a0a7b979cb36aef82e5,2022-07-06_09h31.53.965,Colour_Asymmetry_Pilot,2022.1.3,Win32,144.0092166,62c50e9c1127f2cd403a315f,0,69,69,14,1,fourtwo,,,,,,,,,,,,,,,,,,,,,,,,,,,,,,,,,,,,,,,,,,,,,,,,,,,,,,,,,,,,,,,,,,,,,,,,,,,,,,,,,,,,,,,,,,,,,,,,,,,,,,,,,,,,,,,,,,,,,,,,,,,,,,,,,,,,,,,,,,,,,,,,,,,,,,,,,,,,,
,,,,,,5f5aa7a073b8271a0ab0947c,62c53a0a7b979cb36aef82e5,2022-07-06_09h31.53.965,Colour_Asymmetry_Pilot,2022.1.3,Win32,144.0092166,62c50e9c1127f2cd403a315f,0,70,70,40,1,onetwo,,,,,,,,,,,,,,,,,,,,,,,,,,,,,,,,,,,,,,,,,,,,,,,,,,,,,,,,,,,,,,,,,,,,,,,,,,,,,,,,,,,,,,,,,,,,,,,,,,,,,,,,,,,,,,,,,,,,,,,,,,,,,,,,,,,,,,,,,,,,,,,,,,,,,,,,,,,,,
,,,,,,5f5aa7a073b8271a0ab0947c,62c53a0a7b979cb36aef82e5,2022-07-06_09h31.53.965,Colour_Asymmetry_Pilot,2022.1.3,Win32,144.0092166,62c50e9c1127f2cd403a315f,0,71,71,140,1,threeone,,,,,,,,,,,,,,,,,,,,,,,,,,,,,,,,,,,,,,,,,,,,,,,,,,,,,,,,,,,,,,,,,,,,,,,,,,,,,,,,,,,,,,,,,,,,,,,,,,,,,,,,,,,,,,,,,,,,,,,,,,,,,,,,,,,,,,,,,,,,,,,,,,,,,,,,,,,,,
,,,,,,5f5aa7a073b8271a0ab0947c,62c53a0a7b979cb36aef82e5,2022-07-06_09h31.53.965,Colour_Asymmetry_Pilot,2022.1.3,Win32,144.0092166,62c50e9c1127f2cd403a315f,0,72,72,95,1,fourthree,,,,,,,,,,,,,,,,,,,,,,,,,,,,,,,,,,,,,,,,,,,,,,,,,,,,,,,,,,,,,,,,,,,,,,,,,,,,,,,,,,,,,,,,,,,,,,,,,,,,,,,,,,,,,,,,,,,,,,,,,,,,,,,,,,,,,,,,,,,,,,,,,,,,,,,,,,,,,
,,,,,,5f5aa7a073b8271a0ab0947c,62c53a0a7b979cb36aef82e5,2022-07-06_09h31.53.965,Colour_Asymmetry_Pilot,2022.1.3,Win32,144.0092166,62c50e9c1127f2cd403a315f,0,73,73,91,1,twofour,,,,,,,,,,,,,,,,,,,,,,,,,,,,,,,,,,,,,,,,,,,,,,,,,,,,,,,,,,,,,,,,,,,,,,,,,,,,,,,,,,,,,,,,,,,,,,,,,,,,,,,,,,,,,,,,,,,,,,,,,,,,,,,,,,,,,,,,,,,,,,,,,,,,,,,,,,,,,
,,,,,,5f5aa7a073b8271a0ab0947c,62c53a0a7b979cb36aef82e5,2022-07-06_09h31.53.965,Colour_Asymmetry_Pilot,2022.1.3,Win32,144.0092166,62c50e9c1127f2cd403a315f,0,74,74,41,1,onethree,,,,,,,,,,,,,,,,,,,,,,,,,,,,,,,,,,,,,,,,,,,,,,,,,,,,,,,,,,,,,,,,,,,,,,,,,,,,,,,,,,,,,,,,,,,,,,,,,,,,,,,,,,,,,,,,,,,,,,,,,,,,,,,,,,,,,,,,,,,,,,,,,,,,,,,,,,,,,
,,,,,,5f5aa7a073b8271a0ab0947c,62c53a0a7b979cb36aef82e5,2022-07-06_09h31.53.965,Colour_Asymmetry_Pilot,2022.1.3,Win32,144.0092166,62c50e9c1127f2cd403a315f,0,75,75,67,1,twofour,,,,,,,,,,,,,,,,,,,,,,,,,,,,,,,,,,,,,,,,,,,,,,,,,,,,,,,,,,,,,,,,,,,,,,,,,,,,,,,,,,,,,,,,,,,,,,,,,,,,,,,,,,,,,,,,,,,,,,,,,,,,,,,,,,,,,,,,,,,,,,,,,,,,,,,,,,,,,
,,,,,,5f5aa7a073b8271a0ab0947c,62c53a0a7b979cb36aef82e5,2022-07-06_09h31.53.965,Colour_Asymmetry_Pilot,2022.1.3,Win32,144.0092166,62c50e9c1127f2cd403a315f,0,76,76,117,1,threefour,,,,,,,,,,,,,,,,,,,,,,,,,,,,,,,,,,,,,,,,,,,,,,,,,,,,,,,,,,,,,,,,,,,,,,,,,,,,,,,,,,,,,,,,,,,,,,,,,,,,,,,,,,,,,,,,,,,,,,,,,,,,,,,,,,,,,,,,,,,,,,,,,,,,,,,,,,,,,
,,,,,,5f5aa7a073b8271a0ab0947c,62c53a0a7b979cb36aef82e5,2022-07-06_09h31.53.965,Colour_Asymmetry_Pilot,2022.1.3,Win32,144.0092166,62c50e9c1127f2cd403a315f,0,77,77,27,1,twofour,,,,,,,,,,,,,,,,,,,,,,,,,,,,,,,,,,,,,,,,,,,,,,,,,,,,,,,,,,,,,,,,,,,,,,,,,,,,,,,,,,,,,,,,,,,,,,,,,,,,,,,,,,,,,,,,,,,,,,,,,,,,,,,,,,,,,,,,,,,,,,,,,,,,,,,,,,,,,
,,,,,,5f5aa7a073b8271a0ab0947c,62c53a0a7b979cb36aef82e5,2022-07-06_09h31.53.965,Colour_Asymmetry_Pilot,2022.1.3,Win32,144.0092166,62c50e9c1127f2cd403a315f,0,78,78,100,1,threeone,,,,,,,,,,,,,,,,,,,,,,,,,,,,,,,,,,,,,,,,,,,,,,,,,,,,,,,,,,,,,,,,,,,,,,,,,,,,,,,,,,,,,,,,,,,,,,,,,,,,,,,,,,,,,,,,,,,,,,,,,,,,,,,,,,,,,,,,,,,,,,,,,,,,,,,,,,,,,
,,,,,,5f5aa7a073b8271a0ab0947c,62c53a0a7b979cb36aef82e5,2022-07-06_09h31.53.965,Colour_Asymmetry_Pilot,2022.1.3,Win32,144.0092166,62c50e9c1127f2cd403a315f,0,79,79,68,1,threeone,,,,,,,,,,,,,,,,,,,,,,,,,,,,,,,,,,,,,,,,,,,,,,,,,,,,,,,,,,,,,,,,,,,,,,,,,,,,,,,,,,,,,,,,,,,,,,,,,,,,,,,,,,,,,,,,,,,,,,,,,,,,,,,,,,,,,,,,,,,,,,,,,,,,,,,,,,,,,
,,,,,,5f5aa7a073b8271a0ab0947c,62c53a0a7b979cb36aef82e5,2022-07-06_09h31.53.965,Colour_Asymmetry_Pilot,2022.1.3,Win32,144.0092166,62c50e9c1127f2cd403a315f,0,80,80,15,1,fourthree,,,,,,,,,,,,,,,,,,,,,,,,,,,,,,,,,,,,,,,,,,,,,,,,,,,,,,,,,,,,,,,,,,,,,,,,,,,,,,,,,,,,,,,,,,,,,,,,,,,,,,,,,,,,,,,,,,,,,,,,,,,,,,,,,,,,,,,,,,,,,,,,,,,,,,,,,,,,,
,,,,,,5f5aa7a073b8271a0ab0947c,62c53a0a7b979cb36aef82e5,2022-07-06_09h31.53.965,Colour_Asymmetry_Pilot,2022.1.3,Win32,144.0092166,62c50e9c1127f2cd403a315f,0,81,81,80,1,onetwo,,,,,,,,,,,,,,,,,,,,,,,,,,,,,,,,,,,,,,,,,,,,,,,,,,,,,,,,,,,,,,,,,,,,,,,,,,,,,,,,,,,,,,,,,,,,,,,,,,,,,,,,,,,,,,,,,,,,,,,,,,,,,,,,,,,,,,,,,,,,,,,,,,,,,,,,,,,,,
,,,,,,5f5aa7a073b8271a0ab0947c,62c53a0a7b979cb36aef82e5,2022-07-06_09h31.53.965,Colour_Asymmetry_Pilot,2022.1.3,Win32,144.0092166,62c50e9c1127f2cd403a315f,0,82,82,4,1,threeone,,,,,,,,,,,,,,,,,,,,,,,,,,,,,,,,,,,,,,,,,,,,,,,,,,,,,,,,,,,,,,,,,,,,,,,,,,,,,,,,,,,,,,,,,,,,,,,,,,,,,,,,,,,,,,,,,,,,,,,,,,,,,,,,,,,,,,,,,,,,,,,,,,,,,,,,,,,,,
,,,,,,5f5aa7a073b8271a0ab0947c,62c53a0a7b979cb36aef82e5,2022-07-06_09h31.53.965,Colour_Asymmetry_Pilot,2022.1.3,Win32,144.0092166,62c50e9c1127f2cd403a315f,0,83,83,58,1,twoone,,,,,,,,,,,,,,,,,,,,,,,,,,,,,,,,,,,,,,,,,,,,,,,,,,,,,,,,,,,,,,,,,,,,,,,,,,,,,,,,,,,,,,,,,,,,,,,,,,,,,,,,,,,,,,,,,,,,,,,,,,,,,,,,,,,,,,,,,,,,,,,,,,,,,,,,,,,,,
,,,,,,5f5aa7a073b8271a0ab0947c,62c53a0a7b979cb36aef82e5,2022-07-06_09h31.53.965,Colour_Asymmetry_Pilot,2022.1.3,Win32,144.0092166,62c50e9c1127f2cd403a315f,0,84,84,20,1,threeone,,,,,,,,,,,,,,,,,,,,,,,,,,,,,,,,,,,,,,,,,,,,,,,,,,,,,,,,,,,,,,,,,,,,,,,,,,,,,,,,,,,,,,,,,,,,,,,,,,,,,,,,,,,,,,,,,,,,,,,,,,,,,,,,,,,,,,,,,,,,,,,,,,,,,,,,,,,,,
,,,,,,5f5aa7a073b8271a0ab0947c,62c53a0a7b979cb36aef82e5,2022-07-06_09h31.53.965,Colour_Asymmetry_Pilot,2022.1.3,Win32,144.0092166,62c50e9c1127f2cd403a315f,0,85,85,2,1,twoone,,,,,,,,,,,,,,,,,,,,,,,,,,,,,,,,,,,,,,,,,,,,,,,,,,,,,,,,,,,,,,,,,,,,,,,,,,,,,,,,,,,,,,,,,,,,,,,,,,,,,,,,,,,,,,,,,,,,,,,,,,,,,,,,,,,,,,,,,,,,,,,,,,,,,,,,,,,,,
,,,,,,5f5aa7a073b8271a0ab0947c,62c53a0a7b979cb36aef82e5,2022-07-06_09h31.53.965,Colour_Asymmetry_Pilot,2022.1.3,Win32,144.0092166,62c50e9c1127f2cd403a315f,0,86,86,122,1,twoone,,,,,,,,,,,,,,,,,,,,,,,,,,,,,,,,,,,,,,,,,,,,,,,,,,,,,,,,,,,,,,,,,,,,,,,,,,,,,,,,,,,,,,,,,,,,,,,,,,,,,,,,,,,,,,,,,,,,,,,,,,,,,,,,,,,,,,,,,,,,,,,,,,,,,,,,,,,,,
,,,,,,5f5aa7a073b8271a0ab0947c,62c53a0a7b979cb36aef82e5,2022-07-06_09h31.53.965,Colour_Asymmetry_Pilot,2022.1.3,Win32,144.0092166,62c50e9c1127f2cd403a315f,0,87,87,143,1,fourthree,,,,,,,,,,,,,,,,,,,,,,,,,,,,,,,,,,,,,,,,,,,,,,,,,,,,,,,,,,,,,,,,,,,,,,,,,,,,,,,,,,,,,,,,,,,,,,,,,,,,,,,,,,,,,,,,,,,,,,,,,,,,,,,,,,,,,,,,,,,,,,,,,,,,,,,,,,,,,
,,,,,,5f5aa7a073b8271a0ab0947c,62c53a0a7b979cb36aef82e5,2022-07-06_09h31.53.965,Colour_Asymmetry_Pilot,2022.1.3,Win32,144.0092166,62c50e9c1127f2cd403a315f,0,88,88,131,1,twofour,,,,,,,,,,,,,,,,,,,,,,,,,,,,,,,,,,,,,,,,,,,,,,,,,,,,,,,,,,,,,,,,,,,,,,,,,,,,,,,,,,,,,,,,,,,,,,,,,,,,,,,,,,,,,,,,,,,,,,,,,,,,,,,,,,,,,,,,,,,,,,,,,,,,,,,,,,,,,
,,,,,,5f5aa7a073b8271a0ab0947c,62c53a0a7b979cb36aef82e5,2022-07-06_09h31.53.965,Colour_Asymmetry_Pilot,2022.1.3,Win32,144.0092166,62c50e9c1127f2cd403a315f,0,89,89,85,1,threefour,,,,,,,,,,,,,,,,,,,,,,,,,,,,,,,,,,,,,,,,,,,,,,,,,,,,,,,,,,,,,,,,,,,,,,,,,,,,,,,,,,,,,,,,,,,,,,,,,,,,,,,,,,,,,,,,,,,,,,,,,,,,,,,,,,,,,,,,,,,,,,,,,,,,,,,,,,,,,
,,,,,,5f5aa7a073b8271a0ab0947c,62c53a0a7b979cb36aef82e5,2022-07-06_09h31.53.965,Colour_Asymmetry_Pilot,2022.1.3,Win32,144.0092166,62c50e9c1127f2cd403a315f,0,90,90,160,1,onetwo,,,,,,,,,,,,,,,,,,,,,,,,,,,,,,,,,,,,,,,,,,,,,,,,,,,,,,,,,,,,,,,,,,,,,,,,,,,,,,,,,,,,,,,,,,,,,,,,,,,,,,,,,,,,,,,,,,,,,,,,,,,,,,,,,,,,,,,,,,,,,,,,,,,,,,,,,,,,,
,,,,,,5f5aa7a073b8271a0ab0947c,62c53a0a7b979cb36aef82e5,2022-07-06_09h31.53.965,Colour_Asymmetry_Pilot,2022.1.3,Win32,144.0092166,62c50e9c1127f2cd403a315f,0,91,91,76,1,threeone,,,,,,,,,,,,,,,,,,,,,,,,,,,,,,,,,,,,,,,,,,,,,,,,,,,,,,,,,,,,,,,,,,,,,,,,,,,,,,,,,,,,,,,,,,,,,,,,,,,,,,,,,,,,,,,,,,,,,,,,,,,,,,,,,,,,,,,,,,,,,,,,,,,,,,,,,,,,,
,,,,,,5f5aa7a073b8271a0ab0947c,62c53a0a7b979cb36aef82e5,2022-07-06_09h31.53.965,Colour_Asymmetry_Pilot,2022.1.3,Win32,144.0092166,62c50e9c1127f2cd403a315f,0,92,92,9,1,onethree,,,,,,,,,,,,,,,,,,,,,,,,,,,,,,,,,,,,,,,,,,,,,,,,,,,,,,,,,,,,,,,,,,,,,,,,,,,,,,,,,,,,,,,,,,,,,,,,,,,,,,,,,,,,,,,,,,,,,,,,,,,,,,,,,,,,,,,,,,,,,,,,,,,,,,,,,,,,,
,,,,,,5f5aa7a073b8271a0ab0947c,62c53a0a7b979cb36aef82e5,2022-07-06_09h31.53.965,Colour_Asymmetry_Pilot,2022.1.3,Win32,144.0092166,62c50e9c1127f2cd403a315f,0,93,93,147,1,twofour,,,,,,,,,,,,,,,,,,,,,,,,,,,,,,,,,,,,,,,,,,,,,,,,,,,,,,,,,,,,,,,,,,,,,,,,,,,,,,,,,,,,,,,,,,,,,,,,,,,,,,,,,,,,,,,,,,,,,,,,,,,,,,,,,,,,,,,,,,,,,,,,,,,,,,,,,,,,,
,,,,,,5f5aa7a073b8271a0ab0947c,62c53a0a7b979cb36aef82e5,2022-07-06_09h31.53.965,Colour_Asymmetry_Pilot,2022.1.3,Win32,144.0092166,62c50e9c1127f2cd403a315f,0,94,94,89,1,onethree,,,,,,,,,,,,,,,,,,,,,,,,,,,,,,,,,,,,,,,,,,,,,,,,,,,,,,,,,,,,,,,,,,,,,,,,,,,,,,,,,,,,,,,,,,,,,,,,,,,,,,,,,,,,,,,,,,,,,,,,,,,,,,,,,,,,,,,,,,,,,,,,,,,,,,,,,,,,,
,,,,,,5f5aa7a073b8271a0ab0947c,62c53a0a7b979cb36aef82e5,2022-07-06_09h31.53.965,Colour_Asymmetry_Pilot,2022.1.3,Win32,144.0092166,62c50e9c1127f2cd403a315f,0,95,95,36,1,threeone,,,,,,,,,,,,,,,,,,,,,,,,,,,,,,,,,,,,,,,,,,,,,,,,,,,,,,,,,,,,,,,,,,,,,,,,,,,,,,,,,,,,,,,,,,,,,,,,,,,,,,,,,,,,,,,,,,,,,,,,,,,,,,,,,,,,,,,,,,,,,,,,,,,,,,,,,,,,,
,,,,,,5f5aa7a073b8271a0ab0947c,62c53a0a7b979cb36aef82e5,2022-07-06_09h31.53.965,Colour_Asymmetry_Pilot,2022.1.3,Win32,144.0092166,62c50e9c1127f2cd403a315f,0,96,96,52,1,threeone,,,,,,,,,,,,,,,,,,,,,,,,,,,,,,,,,,,,,,,,,,,,,,,,,,,,,,,,,,,,,,,,,,,,,,,,,,,,,,,,,,,,,,,,,,,,,,,,,,,,,,,,,,,,,,,,,,,,,,,,,,,,,,,,,,,,,,,,,,,,,,,,,,,,,,,,,,,,,
,,,,,,5f5aa7a073b8271a0ab0947c,62c53a0a7b979cb36aef82e5,2022-07-06_09h31.53.965,Colour_Asymmetry_Pilot,2022.1.3,Win32,144.0092166,62c50e9c1127f2cd403a315f,0,97,97,132,1,threeone,,,,,,,,,,,,,,,,,,,,,,,,,,,,,,,,,,,,,,,,,,,,,,,,,,,,,,,,,,,,,,,,,,,,,,,,,,,,,,,,,,,,,,,,,,,,,,,,,,,,,,,,,,,,,,,,,,,,,,,,,,,,,,,,,,,,,,,,,,,,,,,,,,,,,,,,,,,,,
,,,,,,5f5aa7a073b8271a0ab0947c,62c53a0a7b979cb36aef82e5,2022-07-06_09h31.53.965,Colour_Asymmetry_Pilot,2022.1.3,Win32,144.0092166,62c50e9c1127f2cd403a315f,0,98,98,65,1,onethree,,,,,,,,,,,,,,,,,,,,,,,,,,,,,,,,,,,,,,,,,,,,,,,,,,,,,,,,,,,,,,,,,,,,,,,,,,,,,,,,,,,,,,,,,,,,,,,,,,,,,,,,,,,,,,,,,,,,,,,,,,,,,,,,,,,,,,,,,,,,,,,,,,,,,,,,,,,,,
,,,,,,5f5aa7a073b8271a0ab0947c,62c53a0a7b979cb36aef82e5,2022-07-06_09h31.53.965,Colour_Asymmetry_Pilot,2022.1.3,Win32,144.0092166,62c50e9c1127f2cd403a315f,0,99,99,42,1,twoone,,,,,,,,,,,,,,,,,,,,,,,,,,,,,,,,,,,,,,,,,,,,,,,,,,,,,,,,,,,,,,,,,,,,,,,,,,,,,,,,,,,,,,,,,,,,,,,,,,,,,,,,,,,,,,,,,,,,,,,,,,,,,,,,,,,,,,,,,,,,,,,,,,,,,,,,,,,,,
,,,,,,5f5aa7a073b8271a0ab0947c,62c53a0a7b979cb36aef82e5,2022-07-06_09h31.53.965,Colour_Asymmetry_Pilot,2022.1.3,Win32,144.0092166,62c50e9c1127f2cd403a315f,0,100,100,24,1,onetwo,,,,,,,,,,,,,,,,,,,,,,,,,,,,,,,,,,,,,,,,,,,,,,,,,,,,,,,,,,,,,,,,,,,,,,,,,,,,,,,,,,,,,,,,,,,,,,,,,,,,,,,,,,,,,,,,,,,,,,,,,,,,,,,,,,,,,,,,,,,,,,,,,,,,,,,,,,,,,
,,,,,,5f5aa7a073b8271a0ab0947c,62c53a0a7b979cb36aef82e5,2022-07-06_09h31.53.965,Colour_Asymmetry_Pilot,2022.1.3,Win32,144.0092166,62c50e9c1127f2cd403a315f,0,101,101,59,1,twofour,,,,,,,,,,,,,,,,,,,,,,,,,,,,,,,,,,,,,,,,,,,,,,,,,,,,,,,,,,,,,,,,,,,,,,,,,,,,,,,,,,,,,,,,,,,,,,,,,,,,,,,,,,,,,,,,,,,,,,,,,,,,,,,,,,,,,,,,,,,,,,,,,,,,,,,,,,,,,
,,,,,,5f5aa7a073b8271a0ab0947c,62c53a0a7b979cb36aef82e5,2022-07-06_09h31.53.965,Colour_Asymmetry_Pilot,2022.1.3,Win32,144.0092166,62c50e9c1127f2cd403a315f,0,102,102,103,1,fourthree,,,,,,,,,,,,,,,,,,,,,,,,,,,,,,,,,,,,,,,,,,,,,,,,,,,,,,,,,,,,,,,,,,,,,,,,,,,,,,,,,,,,,,,,,,,,,,,,,,,,,,,,,,,,,,,,,,,,,,,,,,,,,,,,,,,,,,,,,,,,,,,,,,,,,,,,,,,,,
,,,,,,5f5aa7a073b8271a0ab0947c,62c53a0a7b979cb36aef82e5,2022-07-06_09h31.53.965,Colour_Asymmetry_Pilot,2022.1.3,Win32,144.0092166,62c50e9c1127f2cd403a315f,0,103,103,97,1,onethree,,,,,,,,,,,,,,,,,,,,,,,,,,,,,,,,,,,,,,,,,,,,,,,,,,,,,,,,,,,,,,,,,,,,,,,,,,,,,,,,,,,,,,,,,,,,,,,,,,,,,,,,,,,,,,,,,,,,,,,,,,,,,,,,,,,,,,,,,,,,,,,,,,,,,,,,,,,,,
,,,,,,5f5aa7a073b8271a0ab0947c,62c53a0a7b979cb36aef82e5,2022-07-06_09h31.53.965,Colour_Asymmetry_Pilot,2022.1.3,Win32,144.0092166,62c50e9c1127f2cd403a315f,0,104,104,31,1,fourthree,,,,,,,,,,,,,,,,,,,,,,,,,,,,,,,,,,,,,,,,,,,,,,,,,,,,,,,,,,,,,,,,,,,,,,,,,,,,,,,,,,,,,,,,,,,,,,,,,,,,,,,,,,,,,,,,,,,,,,,,,,,,,,,,,,,,,,,,,,,,,,,,,,,,,,,,,,,,,
,,,,,,5f5aa7a073b8271a0ab0947c,62c53a0a7b979cb36aef82e5,2022-07-06_09h31.53.965,Colour_Asymmetry_Pilot,2022.1.3,Win32,144.0092166,62c50e9c1127f2cd403a315f,0,105,105,66,1,twoone,,,,,,,,,,,,,,,,,,,,,,,,,,,,,,,,,,,,,,,,,,,,,,,,,,,,,,,,,,,,,,,,,,,,,,,,,,,,,,,,,,,,,,,,,,,,,,,,,,,,,,,,,,,,,,,,,,,,,,,,,,,,,,,,,,,,,,,,,,,,,,,,,,,,,,,,,,,,,
,,,,,,5f5aa7a073b8271a0ab0947c,62c53a0a7b979cb36aef82e5,2022-07-06_09h31.53.965,Colour_Asymmetry_Pilot,2022.1.3,Win32,144.0092166,62c50e9c1127f2cd403a315f,0,106,106,32,1,onetwo,,,,,,,,,,,,,,,,,,,,,,,,,,,,,,,,,,,,,,,,,,,,,,,,,,,,,,,,,,,,,,,,,,,,,,,,,,,,,,,,,,,,,,,,,,,,,,,,,,,,,,,,,,,,,,,,,,,,,,,,,,,,,,,,,,,,,,,,,,,,,,,,,,,,,,,,,,,,,
,,,,,,5f5aa7a073b8271a0ab0947c,62c53a0a7b979cb36aef82e5,2022-07-06_09h31.53.965,Colour_Asymmetry_Pilot,2022.1.3,Win32,144.0092166,62c50e9c1127f2cd403a315f,0,107,107,13,1,threefour,,,,,,,,,,,,,,,,,,,,,,,,,,,,,,,,,,,,,,,,,,,,,,,,,,,,,,,,,,,,,,,,,,,,,,,,,,,,,,,,,,,,,,,,,,,,,,,,,,,,,,,,,,,,,,,,,,,,,,,,,,,,,,,,,,,,,,,,,,,,,,,,,,,,,,,,,,,,,
,,,,,,5f5aa7a073b8271a0ab0947c,62c53a0a7b979cb36aef82e5,2022-07-06_09h31.53.965,Colour_Asymmetry_Pilot,2022.1.3,Win32,144.0092166,62c50e9c1127f2cd403a315f,0,108,108,55,1,fourthree,,,,,,,,,,,,,,,,,,,,,,,,,,,,,,,,,,,,,,,,,,,,,,,,,,,,,,,,,,,,,,,,,,,,,,,,,,,,,,,,,,,,,,,,,,,,,,,,,,,,,,,,,,,,,,,,,,,,,,,,,,,,,,,,,,,,,,,,,,,,,,,,,,,,,,,,,,,,,
,,,,,,5f5aa7a073b8271a0ab0947c,62c53a0a7b979cb36aef82e5,2022-07-06_09h31.53.965,Colour_Asymmetry_Pilot,2022.1.3,Win32,144.0092166,62c50e9c1127f2cd403a315f,0,109,109,118,1,fourtwo,,,,,,,,,,,,,,,,,,,,,,,,,,,,,,,,,,,,,,,,,,,,,,,,,,,,,,,,,,,,,,,,,,,,,,,,,,,,,,,,,,,,,,,,,,,,,,,,,,,,,,,,,,,,,,,,,,,,,,,,,,,,,,,,,,,,,,,,,,,,,,,,,,,,,,,,,,,,,
,,,,,,5f5aa7a073b8271a0ab0947c,62c53a0a7b979cb36aef82e5,2022-07-06_09h31.53.965,Colour_Asymmetry_Pilot,2022.1.3,Win32,144.0092166,62c50e9c1127f2cd403a315f,0,110,110,88,1,onetwo,,,,,,,,,,,,,,,,,,,,,,,,,,,,,,,,,,,,,,,,,,,,,,,,,,,,,,,,,,,,,,,,,,,,,,,,,,,,,,,,,,,,,,,,,,,,,,,,,,,,,,,,,,,,,,,,,,,,,,,,,,,,,,,,,,,,,,,,,,,,,,,,,,,,,,,,,,,,,
,,,,,,5f5aa7a073b8271a0ab0947c,62c53a0a7b979cb36aef82e5,2022-07-06_09h31.53.965,Colour_Asymmetry_Pilot,2022.1.3,Win32,144.0092166,62c50e9c1127f2cd403a315f,0,111,111,138,1,twoone,,,,,,,,,,,,,,,,,,,,,,,,,,,,,,,,,,,,,,,,,,,,,,,,,,,,,,,,,,,,,,,,,,,,,,,,,,,,,,,,,,,,,,,,,,,,,,,,,,,,,,,,,,,,,,,,,,,,,,,,,,,,,,,,,,,,,,,,,,,,,,,,,,,,,,,,,,,,,
,,,,,,5f5aa7a073b8271a0ab0947c,62c53a0a7b979cb36aef82e5,2022-07-06_09h31.53.965,Colour_Asymmetry_Pilot,2022.1.3,Win32,144.0092166,62c50e9c1127f2cd403a315f,0,112,112,98,1,twoone,,,,,,,,,,,,,,,,,,,,,,,,,,,,,,,,,,,,,,,,,,,,,,,,,,,,,,,,,,,,,,,,,,,,,,,,,,,,,,,,,,,,,,,,,,,,,,,,,,,,,,,,,,,,,,,,,,,,,,,,,,,,,,,,,,,,,,,,,,,,,,,,,,,,,,,,,,,,,
,,,,,,5f5aa7a073b8271a0ab0947c,62c53a0a7b979cb36aef82e5,2022-07-06_09h31.53.965,Colour_Asymmetry_Pilot,2022.1.3,Win32,144.0092166,62c50e9c1127f2cd403a315f,0,113,113,7,1,fourthree,,,,,,,,,,,,,,,,,,,,,,,,,,,,,,,,,,,,,,,,,,,,,,,,,,,,,,,,,,,,,,,,,,,,,,,,,,,,,,,,,,,,,,,,,,,,,,,,,,,,,,,,,,,,,,,,,,,,,,,,,,,,,,,,,,,,,,,,,,,,,,,,,,,,,,,,,,,,,
,,,,,,5f5aa7a073b8271a0ab0947c,62c53a0a7b979cb36aef82e5,2022-07-06_09h31.53.965,Colour_Asymmetry_Pilot,2022.1.3,Win32,144.0092166,62c50e9c1127f2cd403a315f,0,114,114,142,1,fourtwo,,,,,,,,,,,,,,,,,,,,,,,,,,,,,,,,,,,,,,,,,,,,,,,,,,,,,,,,,,,,,,,,,,,,,,,,,,,,,,,,,,,,,,,,,,,,,,,,,,,,,,,,,,,,,,,,,,,,,,,,,,,,,,,,,,,,,,,,,,,,,,,,,,,,,,,,,,,,,
,,,,,,5f5aa7a073b8271a0ab0947c,62c53a0a7b979cb36aef82e5,2022-07-06_09h31.53.965,Colour_Asymmetry_Pilot,2022.1.3,Win32,144.0092166,62c50e9c1127f2cd403a315f,0,115,115,74,1,twoone,,,,,,,,,,,,,,,,,,,,,,,,,,,,,,,,,,,,,,,,,,,,,,,,,,,,,,,,,,,,,,,,,,,,,,,,,,,,,,,,,,,,,,,,,,,,,,,,,,,,,,,,,,,,,,,,,,,,,,,,,,,,,,,,,,,,,,,,,,,,,,,,,,,,,,,,,,,,,
,,,,,,5f5aa7a073b8271a0ab0947c,62c53a0a7b979cb36aef82e5,2022-07-06_09h31.53.965,Colour_Asymmetry_Pilot,2022.1.3,Win32,144.0092166,62c50e9c1127f2cd403a315f,0,116,116,106,1,twoone,,,,,,,,,,,,,,,,,,,,,,,,,,,,,,,,,,,,,,,,,,,,,,,,,,,,,,,,,,,,,,,,,,,,,,,,,,,,,,,,,,,,,,,,,,,,,,,,,,,,,,,,,,,,,,,,,,,,,,,,,,,,,,,,,,,,,,,,,,,,,,,,,,,,,,,,,,,,,
,,,,,,5f5aa7a073b8271a0ab0947c,62c53a0a7b979cb36aef82e5,2022-07-06_09h31.53.965,Colour_Asymmetry_Pilot,2022.1.3,Win32,144.0092166,62c50e9c1127f2cd403a315f,0,117,117,111,1,fourthree,,,,,,,,,,,,,,,,,,,,,,,,,,,,,,,,,,,,,,,,,,,,,,,,,,,,,,,,,,,,,,,,,,,,,,,,,,,,,,,,,,,,,,,,,,,,,,,,,,,,,,,,,,,,,,,,,,,,,,,,,,,,,,,,,,,,,,,,,,,,,,,,,,,,,,,,,,,,,
,,,,,,5f5aa7a073b8271a0ab0947c,62c53a0a7b979cb36aef82e5,2022-07-06_09h31.53.965,Colour_Asymmetry_Pilot,2022.1.3,Win32,144.0092166,62c50e9c1127f2cd403a315f,0,118,118,34,1,twoone,,,,,,,,,,,,,,,,,,,,,,,,,,,,,,,,,,,,,,,,,,,,,,,,,,,,,,,,,,,,,,,,,,,,,,,,,,,,,,,,,,,,,,,,,,,,,,,,,,,,,,,,,,,,,,,,,,,,,,,,,,,,,,,,,,,,,,,,,,,,,,,,,,,,,,,,,,,,,
,,,,,,5f5aa7a073b8271a0ab0947c,62c53a0a7b979cb36aef82e5,2022-07-06_09h31.53.965,Colour_Asymmetry_Pilot,2022.1.3,Win32,144.0092166,62c50e9c1127f2cd403a315f,0,119,119,12,1,threeone,,,,,,,,,,,,,,,,,,,,,,,,,,,,,,,,,,,,,,,,,,,,,,,,,,,,,,,,,,,,,,,,,,,,,,,,,,,,,,,,,,,,,,,,,,,,,,,,,,,,,,,,,,,,,,,,,,,,,,,,,,,,,,,,,,,,,,,,,,,,,,,,,,,,,,,,,,,,,
,,,,,,5f5aa7a073b8271a0ab0947c,62c53a0a7b979cb36aef82e5,2022-07-06_09h31.53.965,Colour_Asymmetry_Pilot,2022.1.3,Win32,144.0092166,62c50e9c1127f2cd403a315f,0,120,120,125,1,threefour,,,,,,,,,,,,,,,,,,,,,,,,,,,,,,,,,,,,,,,,,,,,,,,,,,,,,,,,,,,,,,,,,,,,,,,,,,,,,,,,,,,,,,,,,,,,,,,,,,,,,,,,,,,,,,,,,,,,,,,,,,,,,,,,,,,,,,,,,,,,,,,,,,,,,,,,,,,,,
,,,,,,5f5aa7a073b8271a0ab0947c,62c53a0a7b979cb36aef82e5,2022-07-06_09h31.53.965,Colour_Asymmetry_Pilot,2022.1.3,Win32,144.0092166,62c50e9c1127f2cd403a315f,0,121,121,10,1,twoone,,,,,,,,,,,,,,,,,,,,,,,,,,,,,,,,,,,,,,,,,,,,,,,,,,,,,,,,,,,,,,,,,,,,,,,,,,,,,,,,,,,,,,,,,,,,,,,,,,,,,,,,,,,,,,,,,,,,,,,,,,,,,,,,,,,,,,,,,,,,,,,,,,,,,,,,,,,,,
,,,,,,5f5aa7a073b8271a0ab0947c,62c53a0a7b979cb36aef82e5,2022-07-06_09h31.53.965,Colour_Asymmetry_Pilot,2022.1.3,Win32,144.0092166,62c50e9c1127f2cd403a315f,0,122,122,6,1,fourtwo,,,,,,,,,,,,,,,,,,,,,,,,,,,,,,,,,,,,,,,,,,,,,,,,,,,,,,,,,,,,,,,,,,,,,,,,,,,,,,,,,,,,,,,,,,,,,,,,,,,,,,,,,,,,,,,,,,,,,,,,,,,,,,,,,,,,,,,,,,,,,,,,,,,,,,,,,,,,,
,,,,,,5f5aa7a073b8271a0ab0947c,62c53a0a7b979cb36aef82e5,2022-07-06_09h31.53.965,Colour_Asymmetry_Pilot,2022.1.3,Win32,144.0092166,62c50e9c1127f2cd403a315f,0,123,123,63,1,fourthree,,,,,,,,,,,,,,,,,,,,,,,,,,,,,,,,,,,,,,,,,,,,,,,,,,,,,,,,,,,,,,,,,,,,,,,,,,,,,,,,,,,,,,,,,,,,,,,,,,,,,,,,,,,,,,,,,,,,,,,,,,,,,,,,,,,,,,,,,,,,,,,,,,,,,,,,,,,,,
,,,,,,5f5aa7a073b8271a0ab0947c,62c53a0a7b979cb36aef82e5,2022-07-06_09h31.53.965,Colour_Asymmetry_Pilot,2022.1.3,Win32,144.0092166,62c50e9c1127f2cd403a315f,0,124,124,159,1,fourthree,,,,,,,,,,,,,,,,,,,,,,,,,,,,,,,,,,,,,,,,,,,,,,,,,,,,,,,,,,,,,,,,,,,,,,,,,,,,,,,,,,,,,,,,,,,,,,,,,,,,,,,,,,,,,,,,,,,,,,,,,,,,,,,,,,,,,,,,,,,,,,,,,,,,,,,,,,,,,
,,,,,,5f5aa7a073b8271a0ab0947c,62c53a0a7b979cb36aef82e5,2022-07-06_09h31.53.965,Colour_Asymmetry_Pilot,2022.1.3,Win32,144.0092166,62c50e9c1127f2cd403a315f,0,125,125,78,1,fourtwo,,,,,,,,,,,,,,,,,,,,,,,,,,,,,,,,,,,,,,,,,,,,,,,,,,,,,,,,,,,,,,,,,,,,,,,,,,,,,,,,,,,,,,,,,,,,,,,,,,,,,,,,,,,,,,,,,,,,,,,,,,,,,,,,,,,,,,,,,,,,,,,,,,,,,,,,,,,,,
,,,,,,5f5aa7a073b8271a0ab0947c,62c53a0a7b979cb36aef82e5,2022-07-06_09h31.53.965,Colour_Asymmetry_Pilot,2022.1.3,Win32,144.0092166,62c50e9c1127f2cd403a315f,0,126,126,70,1,fourtwo,,,,,,,,,,,,,,,,,,,,,,,,,,,,,,,,,,,,,,,,,,,,,,,,,,,,,,,,,,,,,,,,,,,,,,,,,,,,,,,,,,,,,,,,,,,,,,,,,,,,,,,,,,,,,,,,,,,,,,,,,,,,,,,,,,,,,,,,,,,,,,,,,,,,,,,,,,,,,
,,,,,,5f5aa7a073b8271a0ab0947c,62c53a0a7b979cb36aef82e5,2022-07-06_09h31.53.965,Colour_Asymmetry_Pilot,2022.1.3,Win32,144.0092166,62c50e9c1127f2cd403a315f,0,127,127,48,1,onetwo,,,,,,,,,,,,,,,,,,,,,,,,,,,,,,,,,,,,,,,,,,,,,,,,,,,,,,,,,,,,,,,,,,,,,,,,,,,,,,,,,,,,,,,,,,,,,,,,,,,,,,,,,,,,,,,,,,,,,,,,,,,,,,,,,,,,,,,,,,,,,,,,,,,,,,,,,,,,,
,,,,,,5f5aa7a073b8271a0ab0947c,62c53a0a7b979cb36aef82e5,2022-07-06_09h31.53.965,Colour_Asymmetry_Pilot,2022.1.3,Win32,144.0092166,62c50e9c1127f2cd403a315f,0,128,128,30,1,fourtwo,,,,,,,,,,,,,,,,,,,,,,,,,,,,,,,,,,,,,,,,,,,,,,,,,,,,,,,,,,,,,,,,,,,,,,,,,,,,,,,,,,,,,,,,,,,,,,,,,,,,,,,,,,,,,,,,,,,,,,,,,,,,,,,,,,,,,,,,,,,,,,,,,,,,,,,,,,,,,
,,,,,,5f5aa7a073b8271a0ab0947c,62c53a0a7b979cb36aef82e5,2022-07-06_09h31.53.965,Colour_Asymmetry_Pilot,2022.1.3,Win32,144.0092166,62c50e9c1127f2cd403a315f,0,129,129,161,1,onethree,,,,,,,,,,,,,,,,,,,,,,,,,,,,,,,,,,,,,,,,,,,,,,,,,,,,,,,,,,,,,,,,,,,,,,,,,,,,,,,,,,,,,,,,,,,,,,,,,,,,,,,,,,,,,,,,,,,,,,,,,,,,,,,,,,,,,,,,,,,,,,,,,,,,,,,,,,,,,
,,,,,,5f5aa7a073b8271a0ab0947c,62c53a0a7b979cb36aef82e5,2022-07-06_09h31.53.965,Colour_Asymmetry_Pilot,2022.1.3,Win32,144.0092166,62c50e9c1127f2cd403a315f,0,130,130,90,1,twoone,,,,,,,,,,,,,,,,,,,,,,,,,,,,,,,,,,,,,,,,,,,,,,,,,,,,,,,,,,,,,,,,,,,,,,,,,,,,,,,,,,,,,,,,,,,,,,,,,,,,,,,,,,,,,,,,,,,,,,,,,,,,,,,,,,,,,,,,,,,,,,,,,,,,,,,,,,,,,
,,,,,,5f5aa7a073b8271a0ab0947c,62c53a0a7b979cb36aef82e5,2022-07-06_09h31.53.965,Colour_Asymmetry_Pilot,2022.1.3,Win32,144.0092166,62c50e9c1127f2cd403a315f,0,131,131,145,1,onethree,,,,,,,,,,,,,,,,,,,,,,,,,,,,,,,,,,,,,,,,,,,,,,,,,,,,,,,,,,,,,,,,,,,,,,,,,,,,,,,,,,,,,,,,,,,,,,,,,,,,,,,,,,,,,,,,,,,,,,,,,,,,,,,,,,,,,,,,,,,,,,,,,,,,,,,,,,,,,
,,,,,,5f5aa7a073b8271a0ab0947c,62c53a0a7b979cb36aef82e5,2022-07-06_09h31.53.965,Colour_Asymmetry_Pilot,2022.1.3,Win32,144.0092166,62c50e9c1127f2cd403a315f,0,132,132,129,1,onethree,,,,,,,,,,,,,,,,,,,,,,,,,,,,,,,,,,,,,,,,,,,,,,,,,,,,,,,,,,,,,,,,,,,,,,,,,,,,,,,,,,,,,,,,,,,,,,,,,,,,,,,,,,,,,,,,,,,,,,,,,,,,,,,,,,,,,,,,,,,,,,,,,,,,,,,,,,,,,
,,,,,,5f5aa7a073b8271a0ab0947c,62c53a0a7b979cb36aef82e5,2022-07-06_09h31.53.965,Colour_Asymmetry_Pilot,2022.1.3,Win32,144.0092166,62c50e9c1127f2cd403a315f,0,133,133,137,1,onethree,,,,,,,,,,,,,,,,,,,,,,,,,,,,,,,,,,,,,,,,,,,,,,,,,,,,,,,,,,,,,,,,,,,,,,,,,,,,,,,,,,,,,,,,,,,,,,,,,,,,,,,,,,,,,,,,,,,,,,,,,,,,,,,,,,,,,,,,,,,,,,,,,,,,,,,,,,,,,
,,,,,,5f5aa7a073b8271a0ab0947c,62c53a0a7b979cb36aef82e5,2022-07-06_09h31.53.965,Colour_Asymmetry_Pilot,2022.1.3,Win32,144.0092166,62c50e9c1127f2cd403a315f,0,134,134,3,1,twofour,,,,,,,,,,,,,,,,,,,,,,,,,,,,,,,,,,,,,,,,,,,,,,,,,,,,,,,,,,,,,,,,,,,,,,,,,,,,,,,,,,,,,,,,,,,,,,,,,,,,,,,,,,,,,,,,,,,,,,,,,,,,,,,,,,,,,,,,,,,,,,,,,,,,,,,,,,,,,
,,,,,,5f5aa7a073b8271a0ab0947c,62c53a0a7b979cb36aef82e5,2022-07-06_09h31.53.965,Colour_Asymmetry_Pilot,2022.1.3,Win32,144.0092166,62c50e9c1127f2cd403a315f,0,135,135,136,1,onetwo,,,,,,,,,,,,,,,,,,,,,,,,,,,,,,,,,,,,,,,,,,,,,,,,,,,,,,,,,,,,,,,,,,,,,,,,,,,,,,,,,,,,,,,,,,,,,,,,,,,,,,,,,,,,,,,,,,,,,,,,,,,,,,,,,,,,,,,,,,,,,,,,,,,,,,,,,,,,,
,,,,,,5f5aa7a073b8271a0ab0947c,62c53a0a7b979cb36aef82e5,2022-07-06_09h31.53.965,Colour_Asymmetry_Pilot,2022.1.3,Win32,144.0092166,62c50e9c1127f2cd403a315f,0,136,136,158,1,fourtwo,,,,,,,,,,,,,,,,,,,,,,,,,,,,,,,,,,,,,,,,,,,,,,,,,,,,,,,,,,,,,,,,,,,,,,,,,,,,,,,,,,,,,,,,,,,,,,,,,,,,,,,,,,,,,,,,,,,,,,,,,,,,,,,,,,,,,,,,,,,,,,,,,,,,,,,,,,,,,
,,,,,,5f5aa7a073b8271a0ab0947c,62c53a0a7b979cb36aef82e5,2022-07-06_09h31.53.965,Colour_Asymmetry_Pilot,2022.1.3,Win32,144.0092166,62c50e9c1127f2cd403a315f,0,137,137,154,1,twoone,,,,,,,,,,,,,,,,,,,,,,,,,,,,,,,,,,,,,,,,,,,,,,,,,,,,,,,,,,,,,,,,,,,,,,,,,,,,,,,,,,,,,,,,,,,,,,,,,,,,,,,,,,,,,,,,,,,,,,,,,,,,,,,,,,,,,,,,,,,,,,,,,,,,,,,,,,,,,
,,,,,,5f5aa7a073b8271a0ab0947c,62c53a0a7b979cb36aef82e5,2022-07-06_09h31.53.965,Colour_Asymmetry_Pilot,2022.1.3,Win32,144.0092166,62c50e9c1127f2cd403a315f,0,138,138,35,1,twofour,,,,,,,,,,,,,,,,,,,,,,,,,,,,,,,,,,,,,,,,,,,,,,,,,,,,,,,,,,,,,,,,,,,,,,,,,,,,,,,,,,,,,,,,,,,,,,,,,,,,,,,,,,,,,,,,,,,,,,,,,,,,,,,,,,,,,,,,,,,,,,,,,,,,,,,,,,,,,
,,,,,,5f5aa7a073b8271a0ab0947c,62c53a0a7b979cb36aef82e5,2022-07-06_09h31.53.965,Colour_Asymmetry_Pilot,2022.1.3,Win32,144.0092166,62c50e9c1127f2cd403a315f,0,139,139,54,1,fourtwo,,,,,,,,,,,,,,,,,,,,,,,,,,,,,,,,,,,,,,,,,,,,,,,,,,,,,,,,,,,,,,,,,,,,,,,,,,,,,,,,,,,,,,,,,,,,,,,,,,,,,,,,,,,,,,,,,,,,,,,,,,,,,,,,,,,,,,,,,,,,,,,,,,,,,,,,,,,,,
,,,,,,5f5aa7a073b8271a0ab0947c,62c53a0a7b979cb36aef82e5,2022-07-06_09h31.53.965,Colour_Asymmetry_Pilot,2022.1.3,Win32,144.0092166,62c50e9c1127f2cd403a315f,0,140,140,114,1,twoone,,,,,,,,,,,,,,,,,,,,,,,,,,,,,,,,,,,,,,,,,,,,,,,,,,,,,,,,,,,,,,,,,,,,,,,,,,,,,,,,,,,,,,,,,,,,,,,,,,,,,,,,,,,,,,,,,,,,,,,,,,,,,,,,,,,,,,,,,,,,,,,,,,,,,,,,,,,,,
,,,,,,5f5aa7a073b8271a0ab0947c,62c53a0a7b979cb36aef82e5,2022-07-06_09h31.53.965,Colour_Asymmetry_Pilot,2022.1.3,Win32,144.0092166,62c50e9c1127f2cd403a315f,0,141,141,150,1,fourtwo,,,,,,,,,,,,,,,,,,,,,,,,,,,,,,,,,,,,,,,,,,,,,,,,,,,,,,,,,,,,,,,,,,,,,,,,,,,,,,,,,,,,,,,,,,,,,,,,,,,,,,,,,,,,,,,,,,,,,,,,,,,,,,,,,,,,,,,,,,,,,,,,,,,,,,,,,,,,,
,,,,,,5f5aa7a073b8271a0ab0947c,62c53a0a7b979cb36aef82e5,2022-07-06_09h31.53.965,Colour_Asymmetry_Pilot,2022.1.3,Win32,144.0092166,62c50e9c1127f2cd403a315f,0,142,142,17,1,onethree,,,,,,,,,,,,,,,,,,,,,,,,,,,,,,,,,,,,,,,,,,,,,,,,,,,,,,,,,,,,,,,,,,,,,,,,,,,,,,,,,,,,,,,,,,,,,,,,,,,,,,,,,,,,,,,,,,,,,,,,,,,,,,,,,,,,,,,,,,,,,,,,,,,,,,,,,,,,,
,,,,,,5f5aa7a073b8271a0ab0947c,62c53a0a7b979cb36aef82e5,2022-07-06_09h31.53.965,Colour_Asymmetry_Pilot,2022.1.3,Win32,144.0092166,62c50e9c1127f2cd403a315f,0,143,143,49,1,onethree,,,,,,,,,,,,,,,,,,,,,,,,,,,,,,,,,,,,,,,,,,,,,,,,,,,,,,,,,,,,,,,,,,,,,,,,,,,,,,,,,,,,,,,,,,,,,,,,,,,,,,,,,,,,,,,,,,,,,,,,,,,,,,,,,,,,,,,,,,,,,,,,,,,,,,,,,,,,,
,,,,,,5f5aa7a073b8271a0ab0947c,62c53a0a7b979cb36aef82e5,2022-07-06_09h31.53.965,Colour_Asymmetry_Pilot,2022.1.3,Win32,144.0092166,62c50e9c1127f2cd403a315f,0,144,144,56,1,onetwo,,,,,,,,,,,,,,,,,,,,,,,,,,,,,,,,,,,,,,,,,,,,,,,,,,,,,,,,,,,,,,,,,,,,,,,,,,,,,,,,,,,,,,,,,,,,,,,,,,,,,,,,,,,,,,,,,,,,,,,,,,,,,,,,,,,,,,,,,,,,,,,,,,,,,,,,,,,,,
,,,,,,5f5aa7a073b8271a0ab0947c,62c53a0a7b979cb36aef82e5,2022-07-06_09h31.53.965,Colour_Asymmetry_Pilot,2022.1.3,Win32,144.0092166,62c50e9c1127f2cd403a315f,0,145,145,45,1,threefour,,,,,,,,,,,,,,,,,,,,,,,,,,,,,,,,,,,,,,,,,,,,,,,,,,,,,,,,,,,,,,,,,,,,,,,,,,,,,,,,,,,,,,,,,,,,,,,,,,,,,,,,,,,,,,,,,,,,,,,,,,,,,,,,,,,,,,,,,,,,,,,,,,,,,,,,,,,,,
,,,,,,5f5aa7a073b8271a0ab0947c,62c53a0a7b979cb36aef82e5,2022-07-06_09h31.53.965,Colour_Asymmetry_Pilot,2022.1.3,Win32,144.0092166,62c50e9c1127f2cd403a315f,0,146,146,157,1,threefour,,,,,,,,,,,,,,,,,,,,,,,,,,,,,,,,,,,,,,,,,,,,,,,,,,,,,,,,,,,,,,,,,,,,,,,,,,,,,,,,,,,,,,,,,,,,,,,,,,,,,,,,,,,,,,,,,,,,,,,,,,,,,,,,,,,,,,,,,,,,,,,,,,,,,,,,,,,,,
,,,,,,5f5aa7a073b8271a0ab0947c,62c53a0a7b979cb36aef82e5,2022-07-06_09h31.53.965,Colour_Asymmetry_Pilot,2022.1.3,Win32,144.0092166,62c50e9c1127f2cd403a315f,0,147,147,87,1,fourthree,,,,,,,,,,,,,,,,,,,,,,,,,,,,,,,,,,,,,,,,,,,,,,,,,,,,,,,,,,,,,,,,,,,,,,,,,,,,,,,,,,,,,,,,,,,,,,,,,,,,,,,,,,,,,,,,,,,,,,,,,,,,,,,,,,,,,,,,,,,,,,,,,,,,,,,,,,,,,
,,,,,,5f5aa7a073b8271a0ab0947c,62c53a0a7b979cb36aef82e5,2022-07-06_09h31.53.965,Colour_Asymmetry_Pilot,2022.1.3,Win32,144.0092166,62c50e9c1127f2cd403a315f,0,148,148,121,1,onethree,,,,,,,,,,,,,,,,,,,,,,,,,,,,,,,,,,,,,,,,,,,,,,,,,,,,,,,,,,,,,,,,,,,,,,,,,,,,,,,,,,,,,,,,,,,,,,,,,,,,,,,,,,,,,,,,,,,,,,,,,,,,,,,,,,,,,,,,,,,,,,,,,,,,,,,,,,,,,
,,,,,,5f5aa7a073b8271a0ab0947c,62c53a0a7b979cb36aef82e5,2022-07-06_09h31.53.965,Colour_Asymmetry_Pilot,2022.1.3,Win32,144.0092166,62c50e9c1127f2cd403a315f,0,149,149,50,1,twoone,,,,,,,,,,,,,,,,,,,,,,,,,,,,,,,,,,,,,,,,,,,,,,,,,,,,,,,,,,,,,,,,,,,,,,,,,,,,,,,,,,,,,,,,,,,,,,,,,,,,,,,,,,,,,,,,,,,,,,,,,,,,,,,,,,,,,,,,,,,,,,,,,,,,,,,,,,,,,
,,,,,,5f5aa7a073b8271a0ab0947c,62c53a0a7b979cb36aef82e5,2022-07-06_09h31.53.965,Colour_Asymmetry_Pilot,2022.1.3,Win32,144.0092166,62c50e9c1127f2cd403a315f,0,150,150,149,1,threefour,,,,,,,,,,,,,,,,,,,,,,,,,,,,,,,,,,,,,,,,,,,,,,,,,,,,,,,,,,,,,,,,,,,,,,,,,,,,,,,,,,,,,,,,,,,,,,,,,,,,,,,,,,,,,,,,,,,,,,,,,,,,,,,,,,,,,,,,,,,,,,,,,,,,,,,,,,,,,
,,,,,,5f5aa7a073b8271a0ab0947c,62c53a0a7b979cb36aef82e5,2022-07-06_09h31.53.965,Colour_Asymmetry_Pilot,2022.1.3,Win32,144.0092166,62c50e9c1127f2cd403a315f,0,151,151,92,1,threeone,,,,,,,,,,,,,,,,,,,,,,,,,,,,,,,,,,,,,,,,,,,,,,,,,,,,,,,,,,,,,,,,,,,,,,,,,,,,,,,,,,,,,,,,,,,,,,,,,,,,,,,,,,,,,,,,,,,,,,,,,,,,,,,,,,,,,,,,,,,,,,,,,,,,,,,,,,,,,
,,,,,,5f5aa7a073b8271a0ab0947c,62c53a0a7b979cb36aef82e5,2022-07-06_09h31.53.965,Colour_Asymmetry_Pilot,2022.1.3,Win32,144.0092166,62c50e9c1127f2cd403a315f,0,152,152,84,1,threeone,,,,,,,,,,,,,,,,,,,,,,,,,,,,,,,,,,,,,,,,,,,,,,,,,,,,,,,,,,,,,,,,,,,,,,,,,,,,,,,,,,,,,,,,,,,,,,,,,,,,,,,,,,,,,,,,,,,,,,,,,,,,,,,,,,,,,,,,,,,,,,,,,,,,,,,,,,,,,
,,,,,,5f5aa7a073b8271a0ab0947c,62c53a0a7b979cb36aef82e5,2022-07-06_09h31.53.965,Colour_Asymmetry_Pilot,2022.1.3,Win32,144.0092166,62c50e9c1127f2cd403a315f,0,153,153,135,1,fourthree,,,,,,,,,,,,,,,,,,,,,,,,,,,,,,,,,,,,,,,,,,,,,,,,,,,,,,,,,,,,,,,,,,,,,,,,,,,,,,,,,,,,,,,,,,,,,,,,,,,,,,,,,,,,,,,,,,,,,,,,,,,,,,,,,,,,,,,,,,,,,,,,,,,,,,,,,,,,,
,,,,,,5f5aa7a073b8271a0ab0947c,62c53a0a7b979cb36aef82e5,2022-07-06_09h31.53.965,Colour_Asymmetry_Pilot,2022.1.3,Win32,144.0092166,62c50e9c1127f2cd403a315f,0,154,154,94,1,fourtwo,,,,,,,,,,,,,,,,,,,,,,,,,,,,,,,,,,,,,,,,,,,,,,,,,,,,,,,,,,,,,,,,,,,,,,,,,,,,,,,,,,,,,,,,,,,,,,,,,,,,,,,,,,,,,,,,,,,,,,,,,,,,,,,,,,,,,,,,,,,,,,,,,,,,,,,,,,,,,
,,,,,,5f5aa7a073b8271a0ab0947c,62c53a0a7b979cb36aef82e5,2022-07-06_09h31.53.965,Colour_Asymmetry_Pilot,2022.1.3,Win32,144.0092166,62c50e9c1127f2cd403a315f,0,155,155,53,1,threefour,,,,,,,,,,,,,,,,,,,,,,,,,,,,,,,,,,,,,,,,,,,,,,,,,,,,,,,,,,,,,,,,,,,,,,,,,,,,,,,,,,,,,,,,,,,,,,,,,,,,,,,,,,,,,,,,,,,,,,,,,,,,,,,,,,,,,,,,,,,,,,,,,,,,,,,,,,,,,
,,,,,,5f5aa7a073b8271a0ab0947c,62c53a0a7b979cb36aef82e5,2022-07-06_09h31.53.965,Colour_Asymmetry_Pilot,2022.1.3,Win32,144.0092166,62c50e9c1127f2cd403a315f,0,156,156,46,1,fourtwo,,,,,,,,,,,,,,,,,,,,,,,,,,,,,,,,,,,,,,,,,,,,,,,,,,,,,,,,,,,,,,,,,,,,,,,,,,,,,,,,,,,,,,,,,,,,,,,,,,,,,,,,,,,,,,,,,,,,,,,,,,,,,,,,,,,,,,,,,,,,,,,,,,,,,,,,,,,,,
,,,,,,5f5aa7a073b8271a0ab0947c,62c53a0a7b979cb36aef82e5,2022-07-06_09h31.53.965,Colour_Asymmetry_Pilot,2022.1.3,Win32,144.0092166,62c50e9c1127f2cd403a315f,0,157,157,104,1,onetwo,,,,,,,,,,,,,,,,,,,,,,,,,,,,,,,,,,,,,,,,,,,,,,,,,,,,,,,,,,,,,,,,,,,,,,,,,,,,,,,,,,,,,,,,,,,,,,,,,,,,,,,,,,,,,,,,,,,,,,,,,,,,,,,,,,,,,,,,,,,,,,,,,,,,,,,,,,,,,
,,,,,,5f5aa7a073b8271a0ab0947c,62c53a0a7b979cb36aef82e5,2022-07-06_09h31.53.965,Colour_Asymmetry_Pilot,2022.1.3,Win32,144.0092166,62c50e9c1127f2cd403a315f,0,158,158,144,1,onetwo,,,,,,,,,,,,,,,,,,,,,,,,,,,,,,,,,,,,,,,,,,,,,,,,,,,,,,,,,,,,,,,,,,,,,,,,,,,,,,,,,,,,,,,,,,,,,,,,,,,,,,,,,,,,,,,,,,,,,,,,,,,,,,,,,,,,,,,,,,,,,,,,,,,,,,,,,,,,,
,,,,,,5f5aa7a073b8271a0ab0947c,62c53a0a7b979cb36aef82e5,2022-07-06_09h31.53.965,Colour_Asymmetry_Pilot,2022.1.3,Win32,144.0092166,62c50e9c1127f2cd403a315f,0,159,159,51,1,twofour,,,,,,,,,,,,,,,,,,,,,,,,,,,,,,,,,,,,,,,,,,,,,,,,,,,,,,,,,,,,,,,,,,,,,,,,,,,,,,,,,,,,,,,,,,,,,,,,,,,,,,,,,,,,,,,,,,,,,,,,,,,,,,,,,,,,,,,,,,,,,,,,,,,,,,,,,,,,,
,,,,,,5f5aa7a073b8271a0ab0947c,62c53a0a7b979cb36aef82e5,2022-07-06_09h31.53.965,Colour_Asymmetry_Pilot,2022.1.3,Win32,144.0092166,62c50e9c1127f2cd403a315f,0,160,160,25,1,onethree,,,,,,,,,,,,,,,,,,,,,,,,,,,,,,,,,,,,,,,,,,,,,,,,,,,,,,,,,,,,,,,,,,,,,,,,,,,,,,,,,,,,,,,,,,,,,,,,,,,,,,,,,,,,,,,,,,,,,,,,,,,,,,,,,,,,,,,,,,,,,,,,,,,,,,,,,,,,,
,,,,,,5f5aa7a073b8271a0ab0947c,62c53a0a7b979cb36aef82e5,2022-07-06_09h31.53.965,Colour_Asymmetry_Pilot,2022.1.3,Win32,144.0092166,62c50e9c1127f2cd403a315f,0,161,161,120,1,onetwo,,,,,,,,,,,,,,,,,,,,,,,,,,,,,,,,,,,,,,,,,,,,,,,,,,,,,,,,,,,,,,,,,,,,,,,,,,,,,,,,,,,,,,,,,,,,,,,,,,,,,,,,,,,,,,,,,,,,,,,,,,,,,,,,,,,,,,,,,,,,,,,,,,,,,,,,,,,,,
,,,,,,5f5aa7a073b8271a0ab0947c,62c53a0a7b979cb36aef82e5,2022-07-06_09h31.53.965,Colour_Asymmetry_Pilot,2022.1.3,Win32,144.0092166,62c50e9c1127f2cd403a315f,,,,,,,space,732.5855,space,5.6737,space,87.5689,space,10.3624,space,9.1001,space,5.6054,"[0.7018,0.7176,0.6155999999999999]",onetwo,"[0.9686000000000001,0.5763999999999998,0.11359999999999992]",1,7.1772,65,-131,1,0,0,response3disk_5,9,-7,1,0,0,rectangle_8,9,-7,1,0,0,4,9,-7,1,0,0,0,0,0,0,1,,,,,,,,,,,,,,,,,,,,,,,,,,,,,,,,,,,,,,,,,,,,,,,,,,,,,,,,,,,,,,,,,,,,,,,,,,,,,,,,,,,,,,,,,,,,,,,,,,,,,,,,,,,,,,,,
,,,,,,5f5aa7a073b8271a0ab0947c,62c53a0a7b979cb36aef82e5,2022-07-06_09h31.53.965,Colour_Asymmetry_Pilot,2022.1.3,Win32,144.0092166,62c50e9c1127f2cd403a315f,,,,,,,,,,,,,,,,,,,"[-0.9844,-0.9688,-0.9922]",threeone,"[-0.4982,-0.2942,-0.0354000000000001]",-3,4.7639,-111,38,1,0,0,response7disk_5,-16,-1,1,0,0,rectangle_8,-16,-1,1,0,0,4,-16,-1,1,0,0,1,0,1,0,1,,,,,,,,,,,,,,,,,,,,,,,,,,,,,,,,,,,,,,,,,,,,,,,,,,,,,,,,,,,,,,,,,,,,,,,,,,,,,,,,,,,,,,,,,,,,,,,,,,,,,,,,,,,,,,,,
,,,,,,5f5aa7a073b8271a0ab0947c,62c53a0a7b979cb36aef82e5,2022-07-06_09h31.53.965,Colour_Asymmetry_Pilot,2022.1.3,Win32,144.0092166,62c50e9c1127f2cd403a315f,,,,,,,,,,,,,,,,,,,"[-0.5922000000000001,-0.7492000000000001,-0.5296000000000001]",twoone,"[-0.17659999999999998,-0.2864,-0.8354]",-2,1.9168,-119,-82,1,0,0,response5disk_5,14,-12,1,0,0,rectangle_8,14,-12,1,0,0,4,14,-12,1,0,0,2,0,2,0,1,,,,,,,,,,,,,,,,,,,,,,,,,,,,,,,,,,,,,,,,,,,,,,,,,,,,,,,,,,,,,,,,,,,,,,,,,,,,,,,,,,,,,,,,,,,,,,,,,,,,,,,,,,,,,,,,
,,,,,,5f5aa7a073b8271a0ab0947c,62c53a0a7b979cb36aef82e5,2022-07-06_09h31.53.965,Colour_Asymmetry_Pilot,2022.1.3,Win32,144.0092166,62c50e9c1127f2cd403a315f,,,,,,,,,,,,,,,,,,,"[-0.050999999999999934,-0.6706000000000001,-0.804]",onetwo,"[0.23120000000000007,-0.7726,-0.34120000000000006]",2,3.2085,126,-37,1,0,0,response3disk_5,-17,-11,1,0,0,rectangle_8,47,127,1,0,0,4,-5,1,1,0,0,3,0,3,0,1,response1disk_7,7,rectangle_4,,,,,,,,,,,,,,,,,,,,,,,,,,,,,,,,,,,,,,,,,,,,,,,,,,,,,,,,,,,,,,,,,,,,,,,,,,,,,,,,,,,,,,,,,,,,,,,,,,,,,,,,,,,,,
,,,,,,5f5aa7a073b8271a0ab0947c,62c53a0a7b979cb36aef82e5,2022-07-06_09h31.53.965,Colour_Asymmetry_Pilot,2022.1.3,Win32,144.0092166,62c50e9c1127f2cd403a315f,,,,,,,,,,,,,,,,,,,"[0.30180000000000007,-0.7884,-0.9844]",twoone,"[-0.9138,-0.5296000000000001,-0.5529999999999999]",-3,2.6665,-98,47,1,0,0,response7disk_5,-3,13,1,0,0,rectangle_8,-3,13,1,0,0,4,-3,13,1,0,0,4,0,4,0,1,,,,,,,,,,,,,,,,,,,,,,,,,,,,,,,,,,,,,,,,,,,,,,,,,,,,,,,,,,,,,,,,,,,,,,,,,,,,,,,,,,,,,,,,,,,,,,,,,,,,,,,,,,,,,,,,
,,,,,,5f5aa7a073b8271a0ab0947c,62c53a0a7b979cb36aef82e5,2022-07-06_09h31.53.965,Colour_Asymmetry_Pilot,2022.1.3,Win32,144.0092166,62c50e9c1127f2cd403a315f,,,,,,,,,,,,,,,,,,,"[-0.9296,-0.12959999999999994,-0.043199999999999905]",threefour,"[-0.17659999999999998,-0.2864,-0.8354]",-1,1.9876,-60,-128,1,0,0,response5disk_5,-13,-2,1,0,0,rectangle_8,-48,134,1,0,0,4,1,3,1,0,0,5,0,5,0,1,response7disk_7,0,rectangle_4,,,,,,,,,,,,,,,,,,,,,,,,,,,,,,,,,,,,,,,,,,,,,,,,,,,,,,,,,,,,,,,,,,,,,,,,,,,,,,,,,,,,,,,,,,,,,,,,,,,,,,,,,,,,,
,,,,,,5f5aa7a073b8271a0ab0947c,62c53a0a7b979cb36aef82e5,2022-07-06_09h31.53.965,Colour_Asymmetry_Pilot,2022.1.3,Win32,144.0092166,62c50e9c1127f2cd403a315f,,,,,,,,,,,,,,,,,,,"[-0.6942,-0.7648,-0.12959999999999994]",twoone,"[0.11359999999999992,0.6312,0.5213999999999999]",-2,2.3371,-91,-49,1,0,0,response5disk_5,-13,7,1,0,0,rectangle_8,-13,7,1,0,0,4,-13,7,1,0,0,6,0,6,0,1,,,,,,,,,,,,,,,,,,,,,,,,,,,,,,,,,,,,,,,,,,,,,,,,,,,,,,,,,,,,,,,,,,,,,,,,,,,,,,,,,,,,,,,,,,,,,,,,,,,,,,,,,,,,,,,,
,,,,,,5f5aa7a073b8271a0ab0947c,62c53a0a7b979cb36aef82e5,2022-07-06_09h31.53.965,Colour_Asymmetry_Pilot,2022.1.3,Win32,144.0092166,62c50e9c1127f2cd403a315f,,,,,,,,,,,,,,,,,,,,threefour,,3,2.6565,,,,,,,,,,,,,,,,,,,,,,,,,,,,,,,,space,230.4894,"[0.7018,0.7802,-0.16079999999999994]","[1,0.12939999999999996,-1]",106,47,1,0,0,response1disk,0,0,1,0,0,rectangle,0,0,1,0,0,,3,0.0009,0,0,0,1,0,0,0,0,0,108,1,27,second,,,,,,,,,,,,,,,,,,,,,,,,,,,,,,,,,,,,,,,,,,,,,,,,,,,,,,,,,,,,,,,,,,,,,,,,
,,,,,,5f5aa7a073b8271a0ab0947c,62c53a0a7b979cb36aef82e5,2022-07-06_09h31.53.965,Colour_Asymmetry_Pilot,2022.1.3,Win32,144.0092166,62c50e9c1127f2cd403a315f,,,,,,,,,,,,,,,,,,,,twoone,,1,1.4305,,,,,,,,,,,,,,,,,,,,,,,,,,,,,,,,,,"[-0.48240000000000005,0.3175999999999999,0.2156]","[-0.9138,-0.5296000000000001,-0.5529999999999999]",34,-133,1,0,0,response3disk,-8,4,1,0,0,rectangle,-8,4,1,0,0,,3,0.0001,0,-8,4,1,0,0,0,1,1,126,1,45,second,,,,,,,,,,,,,,,,,,,,,,,,,,,,,,,,,,,,,,,,,,,,,,,,,,,,,,,,,,,,,,,,,,,,,,,,
,,,,,,5f5aa7a073b8271a0ab0947c,62c53a0a7b979cb36aef82e5,2022-07-06_09h31.53.965,Colour_Asymmetry_Pilot,2022.1.3,Win32,144.0092166,62c50e9c1127f2cd403a315f,,,,,,,,,,,,,,,,,,,,threefour,,-4,2.9514,,,,,,,,,,,,,,,,,,,,,,,,,,,,,,,,,,"[-0.9688,-0.4902000000000001,-0.12159999999999993]","[-0.050999999999999934,-0.6706000000000001,-0.804]",-59,115,1,0,0,response7disk,4,-2,1,0,0,rectangle,4,-2,1,0,0,,3,0.0002,0,4,-2,1,0,0,0,2,2,109,1,28,second,,,,,,,,,,,,,,,,,,,,,,,,,,,,,,,,,,,,,,,,,,,,,,,,,,,,,,,,,,,,,,,,,,,,,,,,
,,,,,,5f5aa7a073b8271a0ab0947c,62c53a0a7b979cb36aef82e5,2022-07-06_09h31.53.965,Colour_Asymmetry_Pilot,2022.1.3,Win32,144.0092166,62c50e9c1127f2cd403a315f,,,,,,,,,,,,,,,,,,,,threeone,,-2,2.8265,,,,,,,,,,,,,,,,,,,,,,,,,,,,,,,,,,"[0.6625999999999999,0.4980000000000002,-0.357]","[-0.4902000000000001,0.2704,-0.45899999999999996]",-113,-52,1,0,0,response5disk,7,7,1,0,0,rectangle,7,7,1,0,0,,3,9.99999E-05,0,7,7,1,0,0,0,3,3,99,1,18,second,,,,,,,,,,,,,,,,,,,,,,,,,,,,,,,,,,,,,,,,,,,,,,,,,,,,,,,,,,,,,,,,,,,,,,,,
,,,,,,5f5aa7a073b8271a0ab0947c,62c53a0a7b979cb36aef82e5,2022-07-06_09h31.53.965,Colour_Asymmetry_Pilot,2022.1.3,Win32,144.0092166,62c50e9c1127f2cd403a315f,,,,,,,,,,,,,,,,,,,,fourthree,,-4,2.3165,,,,,,,,,,,,,,,,,,,,,,,,,,,,,,,,,,"[-0.20799999999999996,-0.655,-0.01980000000000004]","[-0.7412000000000001,-0.08239999999999992,-0.6864]",-52,122,1,0,0,response7disk,-7,-2,1,0,0,rectangle,-7,-2,1,0,0,,3,0,0,-7,-2,1,0,0,0,4,4,91,1,10,second,,,,,,,,,,,,,,,,,,,,,,,,,,,,,,,,,,,,,,,,,,,,,,,,,,,,,,,,,,,,,,,,,,,,,,,,
,,,,,,5f5aa7a073b8271a0ab0947c,62c53a0a7b979cb36aef82e5,2022-07-06_09h31.53.965,Colour_Asymmetry_Pilot,2022.1.3,Win32,144.0092166,62c50e9c1127f2cd403a315f,,,,,,,,,,,,,,,,,,,,onethree,,-3,2.7222,,,,,,,,,,,,,,,,,,,,,,,,,,,,,,,,,,"[-0.10599999999999998,-0.10599999999999998,0.5841999999999998]","[0.0351999999999999,0.41159999999999997,0.0038000000000000256]",-132,36,1,0,0,response7disk,-28,2,1,0,0,rectangle,-28,2,1,0,0,,1,0.0004,0,-28,2,1,0,0,0,5,5,123,1,42,second,,,,,,,,,,,,,,,,,,,,,,,,,,,,,,,,,,,,,,,,,,,,,,,,,,,,,,,,,,,,,,,,,,,,,,,,
,,,,,,5f5aa7a073b8271a0ab0947c,62c53a0a7b979cb36aef82e5,2022-07-06_09h31.53.965,Colour_Asymmetry_Pilot,2022.1.3,Win32,144.0092166,62c50e9c1127f2cd403a315f,,,,,,,,,,,,,,,,,,,,threeone,,-4,3.3054,,,,,,,,,,,,,,,,,,,,,,,,,,,,,,,,,,"[1,0.12939999999999996,-1]","[0.11359999999999992,0.6312,0.5213999999999999]",-50,114,1,0,0,response7disk,-30,8,1,0,0,rectangle,-30,8,1,0,0,,1,0.0003,0,-30,8,1,0,0,0,6,6,87,1,6,second,,,,,,,,,,,,,,,,,,,,,,,,,,,,,,,,,,,,,,,,,,,,,,,,,,,,,,,,,,,,,,,,,,,,,,,,
,,,,,,5f5aa7a073b8271a0ab0947c,62c53a0a7b979cb36aef82e5,2022-07-06_09h31.53.965,Colour_Asymmetry_Pilot,2022.1.3,Win32,144.0092166,62c50e9c1127f2cd403a315f,,,,,,,,,,,,,,,,,,,,onethree,,-4,1.034,,,,,,,,,,,,,,,,,,,,,,,,,,,,,,,,,,"[-0.6706000000000001,-0.6157999999999999,-0.6786]","[0.6625999999999999,0.4980000000000002,-0.357]",-62,123,1,0,0,response7disk,-19,-4,1,0,0,rectangle,-19,-4,1,0,0,,2,0.0005,0,-19,-4,1,0,0,0,7,7,58,1,58,first,,,,,,,,,,,,,,,,,,,,,,,,,,,,,,,,,,,,,,,,,,,,,,,,,,,,,,,,,,,,,,,,,,,,,,,,
,,,,,,5f5aa7a073b8271a0ab0947c,62c53a0a7b979cb36aef82e5,2022-07-06_09h31.53.965,Colour_Asymmetry_Pilot,2022.1.3,Win32,144.0092166,62c50e9c1127f2cd403a315f,,,,,,,,,,,,,,,,,,,,fourtwo,,-3,1.1389,,,,,,,,,,,,,,,,,,,,,,,,,,,,,,,,,,"[0.9686000000000001,0.3802000000000001,0.19999999999999996]","[-0.48240000000000005,0.3175999999999999,0.2156]",-118,46,1,0,0,response7disk,30,-1,1,0,0,rectangle,30,-1,1,0,0,,2,0,0,30,-1,1,0,0,0,8,8,47,1,47,first,,,,,,,,,,,,,,,,,,,,,,,,,,,,,,,,,,,,,,,,,,,,,,,,,,,,,,,,,,,,,,,,,,,,,,,,
,,,,,,5f5aa7a073b8271a0ab0947c,62c53a0a7b979cb36aef82e5,2022-07-06_09h31.53.965,Colour_Asymmetry_Pilot,2022.1.3,Win32,144.0092166,62c50e9c1127f2cd403a315f,,,,,,,,,,,,,,,,,,,,twofour,,-1,1.3472,,,,,,,,,,,,,,,,,,,,,,,,,,,,,,,,,,"[-0.9216,-0.5529999999999999,-0.3962]","[0.23920000000000008,0.2704,0.16060000000000008]",-60,-137,1,0,0,response5disk,11,1,1,0,0,rectangle,11,1,1,0,0,,1,0.0005,0,11,1,1,0,0,0,9,9,61,1,61,first,,,,,,,,,,,,,,,,,,,,,,,,,,,,,,,,,,,,,,,,,,,,,,,,,,,,,,,,,,,,,,,,,,,,,,,,
,,,,,,5f5aa7a073b8271a0ab0947c,62c53a0a7b979cb36aef82e5,2022-07-06_09h31.53.965,Colour_Asymmetry_Pilot,2022.1.3,Win32,144.0092166,62c50e9c1127f2cd403a315f,,,,,,,,,,,,,,,,,,,,twofour,,-3,0.7986,,,,,,,,,,,,,,,,,,,,,,,,,,,,,,,,,,"[-0.48240000000000005,0.3175999999999999,0.2156]","[0.9686000000000001,0.3802000000000001,0.19999999999999996]",-113,56,1,0,0,response7disk,-19,-10,1,0,0,rectangle,-19,-10,1,0,0,,2,0.0005,0,-19,-10,1,0,0,0,10,10,128,1,47,second,,,,,,,,,,,,,,,,,,,,,,,,,,,,,,,,,,,,,,,,,,,,,,,,,,,,,,,,,,,,,,,,,,,,,,,,
,,,,,,5f5aa7a073b8271a0ab0947c,62c53a0a7b979cb36aef82e5,2022-07-06_09h31.53.965,Colour_Asymmetry_Pilot,2022.1.3,Win32,144.0092166,62c50e9c1127f2cd403a315f,,,,,,,,,,,,,,,,,,,,onethree,,-4,0.8402,,,,,,,,,,,,,,,,,,,,,,,,,,,,,,,,,,"[0.2862,0.7802,0.3568]","[0.2784,-0.31000000000000005,-0.5452]",-77,114,1,0,0,response7disk,-31,1,1,0,0,rectangle,-31,1,1,0,0,,2,0.0001,0,-31,1,1,0,0,0,11,11,2,1,2,first,,,,,,,,,,,,,,,,,,,,,,,,,,,,,,,,,,,,,,,,,,,,,,,,,,,,,,,,,,,,,,,,,,,,,,,,
,,,,,,5f5aa7a073b8271a0ab0947c,62c53a0a7b979cb36aef82e5,2022-07-06_09h31.53.965,Colour_Asymmetry_Pilot,2022.1.3,Win32,144.0092166,62c50e9c1127f2cd403a315f,,,,,,,,,,,,,,,,,,,,threefour,,2,2.8679,,,,,,,,,,,,,,,,,,,,,,,,,,,,,,,,,,"[-0.9296,-0.12959999999999994,-0.043199999999999905]","[-0.24719999999999998,0.5213999999999999,-0.12959999999999994]",125,-55,1,0,0,response3disk,15,3,1,0,0,rectangle,15,3,1,0,0,,3,0.0007,0,15,3,1,0,0,0,12,12,134,1,53,second,,,,,,,,,,,,,,,,,,,,,,,,,,,,,,,,,,,,,,,,,,,,,,,,,,,,,,,,,,,,,,,,,,,,,,,,
,,,,,,5f5aa7a073b8271a0ab0947c,62c53a0a7b979cb36aef82e5,2022-07-06_09h31.53.965,Colour_Asymmetry_Pilot,2022.1.3,Win32,144.0092166,62c50e9c1127f2cd403a315f,,,,,,,,,,,,,,,,,,,,threefour,,-1,1.1599,,,,,,,,,,,,,,,,,,,,,,,,,,,,,,,,,,"[0.7176,-0.906,-0.6864]","[-0.0040000000000000036,0.02739999999999987,-0.08239999999999992]",-58,-125,1,0,0,response5disk,-20,-4,1,0,0,rectangle,-20,-4,1,0,0,,2,0.0006,0,-20,-4,1,0,0,0,13,13,122,1,41,second,,,,,,,,,,,,,,,,,,,,,,,,,,,,,,,,,,,,,,,,,,,,,,,,,,,,,,,,,,,,,,,,,,,,,,,,
,,,,,,5f5aa7a073b8271a0ab0947c,62c53a0a7b979cb36aef82e5,2022-07-06_09h31.53.965,Colour_Asymmetry_Pilot,2022.1.3,Win32,144.0092166,62c50e9c1127f2cd403a315f,,,,,,,,,,,,,,,,,,,,twofour,,4,1.6252,,,,,,,,,,,,,,,,,,,,,,,,,,,,,,,,,,"[0.7018,0.7802,-0.16079999999999994]","[0.5528,0.7409999999999999,-0.71]",56,123,1,0,0,response1disk,15,-1,1,0,0,rectangle,15,-1,1,0,0,,2,9.99999E-05,0,15,-1,1,0,0,0,14,14,64,1,64,first,,,,,,,,,,,,,,,,,,,,,,,,,,,,,,,,,,,,,,,,,,,,,,,,,,,,,,,,,,,,,,,,,,,,,,,,
,,,,,,5f5aa7a073b8271a0ab0947c,62c53a0a7b979cb36aef82e5,2022-07-06_09h31.53.965,Colour_Asymmetry_Pilot,2022.1.3,Win32,144.0092166,62c50e9c1127f2cd403a315f,,,,,,,,,,,,,,,,,,,,threeone,,-4,0.8334,,,,,,,,,,,,,,,,,,,,,,,,,,,,,,,,,,"[-0.9688,-0.7412000000000001,-0.4902000000000001]","[0.796,0.2156,-0.27859999999999996]",-54,124,1,0,0,response7disk,-14,-13,1,0,0,rectangle,-14,-13,1,0,0,,3,0.0007,0,-14,-13,1,0,0,0,15,15,30,1,30,first,,,,,,,,,,,,,,,,,,,,,,,,,,,,,,,,,,,,,,,,,,,,,,,,,,,,,,,,,,,,,,,,,,,,,,,,
,,,,,,5f5aa7a073b8271a0ab0947c,62c53a0a7b979cb36aef82e5,2022-07-06_09h31.53.965,Colour_Asymmetry_Pilot,2022.1.3,Win32,144.0092166,62c50e9c1127f2cd403a315f,,,,,,,,,,,,,,,,,,,,twoone,,-3,2.1539,,,,,,,,,,,,,,,,,,,,,,,,,,,,,,,,,,"[-0.30200000000000005,0.14500000000000002,0.2784]","[0.6547999999999998,-0.043199999999999905,-0.011800000000000033]",-99,54,1,0,0,response7disk,13,-14,1,0,0,rectangle,13,-14,1,0,0,,2,0.0005,0,13,-14,1,0,0,0,16,16,25,1,25,first,,,,,,,,,,,,,,,,,,,,,,,,,,,,,,,,,,,,,,,,,,,,,,,,,,,,,,,,,,,,,,,,,,,,,,,,
,,,,,,5f5aa7a073b8271a0ab0947c,62c53a0a7b979cb36aef82e5,2022-07-06_09h31.53.965,Colour_Asymmetry_Pilot,2022.1.3,Win32,144.0092166,62c50e9c1127f2cd403a315f,,,,,,,,,,,,,,,,,,,,fourtwo,,3,0.9864,,,,,,,,,,,,,,,,,,,,,,,,,,,,,,,,,,"[0.9686000000000001,0.3802000000000001,0.19999999999999996]","[0.2784,-0.31000000000000005,-0.5452]",147,41,1,0,0,response1disk,20,-12,1,0,0,rectangle,20,-12,1,0,0,,1,0.0005,0,20,-12,1,0,0,0,17,17,113,1,32,second,,,,,,,,,,,,,,,,,,,,,,,,,,,,,,,,,,,,,,,,,,,,,,,,,,,,,,,,,,,,,,,,,,,,,,,,
