trials.thisRepN,trials.thisTrialN,trials.thisN,trials.thisIndex,trials.ran,Colourcodes,participant,session,date,expName,psychopyVersion,OS,frameRate,study_id,trials_4.thisRepN,trials_4.thisTrialN,trials_4.thisN,trials_4.thisIndex,trials_4.ran,StimulusPos,key_resp.keys,key_resp.rt,key_resp_2.keys,key_resp_2.rt,key_resp_15.keys,key_resp_15.rt,key_resp_17.keys,key_resp_17.rt,key_resp_9.keys,key_resp_9.rt,key_resp_10.keys,key_resp_10.rt,Circle1_col,Ecc,Circle2_col,similarity,response_time,mouse_5.x,mouse_5.y,mouse_5.leftButton,mouse_5.midButton,mouse_5.rightButton,mouse_5.clicked_name,mouse_10.x,mouse_10.y,mouse_10.leftButton,mouse_10.midButton,mouse_10.rightButton,mouse_10.clicked_name,mouse_7.x,mouse_7.y,mouse_7.leftButton,mouse_7.midButton,mouse_7.rightButton,catchnumberprac,mouse_6.x,mouse_6.y,mouse_6.leftButton,mouse_6.midButton,mouse_6.rightButton,duringprac.thisRepN,duringprac.thisTrialN,duringprac.thisN,duringprac.thisIndex,duringprac.ran,mouse_7.clicked_name,catchprac,mouse_6.clicked_name,key_resp_22.keys,key_resp_22.rt,Circle1_colour,Circle2_colour,mouse.x,mouse.y,mouse.leftButton,mouse.midButton,mouse.rightButton,mouse.clicked_name,mouse_2.x,mouse_2.y,mouse_2.leftButton,mouse_2.midButton,mouse_2.rightButton,mouse_2.clicked_name,mouse_3.x,mouse_3.y,mouse_3.leftButton,mouse_3.midButton,mouse_3.rightButton,catchresponse,catchnumber,response_time_catch,Catch,mouse_11.x,mouse_11.y,mouse_11.leftButton,mouse_11.midButton,mouse_11.rightButton,trials_2.thisRepN,trials_2.thisTrialN,trials_2.thisN,trials_2.thisIndex,trials_2.ran,Colourpair,Temporder,mouse_3.clicked_name,mouse_11.clicked_name,trials_3.thisRepN,trials_3.thisTrialN,trials_3.thisN,trials_3.thisIndex,trials_3.ran,key_resp_instr_Ishi.keys,key_resp_instr_Ishi.rt,Ishi_trial_keyresp.keys,Ishi_textbox.text,Ishi_mouse.x,Ishi_mouse.y,Ishi_mouse.leftButton,Ishi_mouse.midButton,Ishi_mouse.rightButton,Ishi_mouse.clicked_name,Ishi_loop.thisRepN,Ishi_loop.thisTrialN,Ishi_loop.thisN,Ishi_loop.thisIndex,Ishi_loop.ran,imageaddress,textbox.text,mouse_4.x,mouse_4.y,mouse_4.leftButton,mouse_4.midButton,mouse_4.rightButton,mouse_4.clicked_name,textbox_2.text,mouse_8.x,mouse_8.y,mouse_8.leftButton,mouse_8.midButton,mouse_8.rightButton,mouse_8.clicked_name,textbox_3.text,mouse_9.x,mouse_9.y,mouse_9.leftButton,mouse_9.midButton,mouse_9.rightButton,mouse_9.clicked_name,textbox_4.text,mouse_12.x,mouse_12.y,mouse_12.leftButton,mouse_12.midButton,mouse_12.rightButton,mouse_12.clicked_name,textbox_5.text,mouse_13.x,mouse_13.y,mouse_13.leftButton,mouse_13.midButton,mouse_13.rightButton,mouse_13.clicked_name,textbox_6.text,mouse_14.x,mouse_14.y,mouse_14.leftButton,mouse_14.midButton,mouse_14.rightButton,mouse_14.clicked_name,textbox_7.text,mouse_15.x,mouse_15.y,mouse_15.leftButton,mouse_15.midButton,mouse_15.rightButton,mouse_15.clicked_name
0,0,0,77,1,,60fd8eafe88dceaddd8dee71,62c53a0eb173bbfd2c792f50,2022-07-06_09h30.52.210,Colour_Asymmetry_Pilot,2022.1.3,Win32,60.05645307,62c50e9c1127f2cd403a315f,,,,,,,,,,,,,,,,,,,,,,,,,,,,,,,,,,,,,,,,,,,,,,,,,,,,,,,,,,,,,,,,,,,,,,,,,,,,,,,,,,,,,,,,,,,,,,,,,,,,,,,,,,,,,,,,,,,,,,,,,,,,,,,,,,,,,,,,,,,,,,,,,,,,,,,,,,,,,,,,,,,
0,1,1,86,1,,60fd8eafe88dceaddd8dee71,62c53a0eb173bbfd2c792f50,2022-07-06_09h30.52.210,Colour_Asymmetry_Pilot,2022.1.3,Win32,60.05645307,62c50e9c1127f2cd403a315f,,,,,,,,,,,,,,,,,,,,,,,,,,,,,,,,,,,,,,,,,,,,,,,,,,,,,,,,,,,,,,,,,,,,,,,,,,,,,,,,,,,,,,,,,,,,,,,,,,,,,,,,,,,,,,,,,,,,,,,,,,,,,,,,,,,,,,,,,,,,,,,,,,,,,,,,,,,,,,,,,,,
0,2,2,40,1,,60fd8eafe88dceaddd8dee71,62c53a0eb173bbfd2c792f50,2022-07-06_09h30.52.210,Colour_Asymmetry_Pilot,2022.1.3,Win32,60.05645307,62c50e9c1127f2cd403a315f,,,,,,,,,,,,,,,,,,,,,,,,,,,,,,,,,,,,,,,,,,,,,,,,,,,,,,,,,,,,,,,,,,,,,,,,,,,,,,,,,,,,,,,,,,,,,,,,,,,,,,,,,,,,,,,,,,,,,,,,,,,,,,,,,,,,,,,,,,,,,,,,,,,,,,,,,,,,,,,,,,,
0,3,3,44,1,,60fd8eafe88dceaddd8dee71,62c53a0eb173bbfd2c792f50,2022-07-06_09h30.52.210,Colour_Asymmetry_Pilot,2022.1.3,Win32,60.05645307,62c50e9c1127f2cd403a315f,,,,,,,,,,,,,,,,,,,,,,,,,,,,,,,,,,,,,,,,,,,,,,,,,,,,,,,,,,,,,,,,,,,,,,,,,,,,,,,,,,,,,,,,,,,,,,,,,,,,,,,,,,,,,,,,,,,,,,,,,,,,,,,,,,,,,,,,,,,,,,,,,,,,,,,,,,,,,,,,,,,
0,4,4,16,1,,60fd8eafe88dceaddd8dee71,62c53a0eb173bbfd2c792f50,2022-07-06_09h30.52.210,Colour_Asymmetry_Pilot,2022.1.3,Win32,60.05645307,62c50e9c1127f2cd403a315f,,,,,,,,,,,,,,,,,,,,,,,,,,,,,,,,,,,,,,,,,,,,,,,,,,,,,,,,,,,,,,,,,,,,,,,,,,,,,,,,,,,,,,,,,,,,,,,,,,,,,,,,,,,,,,,,,,,,,,,,,,,,,,,,,,,,,,,,,,,,,,,,,,,,,,,,,,,,,,,,,,,
0,5,5,92,1,,60fd8eafe88dceaddd8dee71,62c53a0eb173bbfd2c792f50,2022-07-06_09h30.52.210,Colour_Asymmetry_Pilot,2022.1.3,Win32,60.05645307,62c50e9c1127f2cd403a315f,,,,,,,,,,,,,,,,,,,,,,,,,,,,,,,,,,,,,,,,,,,,,,,,,,,,,,,,,,,,,,,,,,,,,,,,,,,,,,,,,,,,,,,,,,,,,,,,,,,,,,,,,,,,,,,,,,,,,,,,,,,,,,,,,,,,,,,,,,,,,,,,,,,,,,,,,,,,,,,,,,,
0,6,6,91,1,,60fd8eafe88dceaddd8dee71,62c53a0eb173bbfd2c792f50,2022-07-06_09h30.52.210,Colour_Asymmetry_Pilot,2022.1.3,Win32,60.05645307,62c50e9c1127f2cd403a315f,,,,,,,,,,,,,,,,,,,,,,,,,,,,,,,,,,,,,,,,,,,,,,,,,,,,,,,,,,,,,,,,,,,,,,,,,,,,,,,,,,,,,,,,,,,,,,,,,,,,,,,,,,,,,,,,,,,,,,,,,,,,,,,,,,,,,,,,,,,,,,,,,,,,,,,,,,,,,,,,,,,
0,7,7,31,1,,60fd8eafe88dceaddd8dee71,62c53a0eb173bbfd2c792f50,2022-07-06_09h30.52.210,Colour_Asymmetry_Pilot,2022.1.3,Win32,60.05645307,62c50e9c1127f2cd403a315f,,,,,,,,,,,,,,,,,,,,,,,,,,,,,,,,,,,,,,,,,,,,,,,,,,,,,,,,,,,,,,,,,,,,,,,,,,,,,,,,,,,,,,,,,,,,,,,,,,,,,,,,,,,,,,,,,,,,,,,,,,,,,,,,,,,,,,,,,,,,,,,,,,,,,,,,,,,,,,,,,,,
0,8,8,74,1,,60fd8eafe88dceaddd8dee71,62c53a0eb173bbfd2c792f50,2022-07-06_09h30.52.210,Colour_Asymmetry_Pilot,2022.1.3,Win32,60.05645307,62c50e9c1127f2cd403a315f,,,,,,,,,,,,,,,,,,,,,,,,,,,,,,,,,,,,,,,,,,,,,,,,,,,,,,,,,,,,,,,,,,,,,,,,,,,,,,,,,,,,,,,,,,,,,,,,,,,,,,,,,,,,,,,,,,,,,,,,,,,,,,,,,,,,,,,,,,,,,,,,,,,,,,,,,,,,,,,,,,,
0,9,9,47,1,,60fd8eafe88dceaddd8dee71,62c53a0eb173bbfd2c792f50,2022-07-06_09h30.52.210,Colour_Asymmetry_Pilot,2022.1.3,Win32,60.05645307,62c50e9c1127f2cd403a315f,,,,,,,,,,,,,,,,,,,,,,,,,,,,,,,,,,,,,,,,,,,,,,,,,,,,,,,,,,,,,,,,,,,,,,,,,,,,,,,,,,,,,,,,,,,,,,,,,,,,,,,,,,,,,,,,,,,,,,,,,,,,,,,,,,,,,,,,,,,,,,,,,,,,,,,,,,,,,,,,,,,
0,10,10,29,1,,60fd8eafe88dceaddd8dee71,62c53a0eb173bbfd2c792f50,2022-07-06_09h30.52.210,Colour_Asymmetry_Pilot,2022.1.3,Win32,60.05645307,62c50e9c1127f2cd403a315f,,,,,,,,,,,,,,,,,,,,,,,,,,,,,,,,,,,,,,,,,,,,,,,,,,,,,,,,,,,,,,,,,,,,,,,,,,,,,,,,,,,,,,,,,,,,,,,,,,,,,,,,,,,,,,,,,,,,,,,,,,,,,,,,,,,,,,,,,,,,,,,,,,,,,,,,,,,,,,,,,,,
0,11,11,28,1,,60fd8eafe88dceaddd8dee71,62c53a0eb173bbfd2c792f50,2022-07-06_09h30.52.210,Colour_Asymmetry_Pilot,2022.1.3,Win32,60.05645307,62c50e9c1127f2cd403a315f,,,,,,,,,,,,,,,,,,,,,,,,,,,,,,,,,,,,,,,,,,,,,,,,,,,,,,,,,,,,,,,,,,,,,,,,,,,,,,,,,,,,,,,,,,,,,,,,,,,,,,,,,,,,,,,,,,,,,,,,,,,,,,,,,,,,,,,,,,,,,,,,,,,,,,,,,,,,,,,,,,,
0,12,12,72,1,,60fd8eafe88dceaddd8dee71,62c53a0eb173bbfd2c792f50,2022-07-06_09h30.52.210,Colour_Asymmetry_Pilot,2022.1.3,Win32,60.05645307,62c50e9c1127f2cd403a315f,,,,,,,,,,,,,,,,,,,,,,,,,,,,,,,,,,,,,,,,,,,,,,,,,,,,,,,,,,,,,,,,,,,,,,,,,,,,,,,,,,,,,,,,,,,,,,,,,,,,,,,,,,,,,,,,,,,,,,,,,,,,,,,,,,,,,,,,,,,,,,,,,,,,,,,,,,,,,,,,,,,
0,13,13,65,1,,60fd8eafe88dceaddd8dee71,62c53a0eb173bbfd2c792f50,2022-07-06_09h30.52.210,Colour_Asymmetry_Pilot,2022.1.3,Win32,60.05645307,62c50e9c1127f2cd403a315f,,,,,,,,,,,,,,,,,,,,,,,,,,,,,,,,,,,,,,,,,,,,,,,,,,,,,,,,,,,,,,,,,,,,,,,,,,,,,,,,,,,,,,,,,,,,,,,,,,,,,,,,,,,,,,,,,,,,,,,,,,,,,,,,,,,,,,,,,,,,,,,,,,,,,,,,,,,,,,,,,,,
0,14,14,19,1,,60fd8eafe88dceaddd8dee71,62c53a0eb173bbfd2c792f50,2022-07-06_09h30.52.210,Colour_Asymmetry_Pilot,2022.1.3,Win32,60.05645307,62c50e9c1127f2cd403a315f,,,,,,,,,,,,,,,,,,,,,,,,,,,,,,,,,,,,,,,,,,,,,,,,,,,,,,,,,,,,,,,,,,,,,,,,,,,,,,,,,,,,,,,,,,,,,,,,,,,,,,,,,,,,,,,,,,,,,,,,,,,,,,,,,,,,,,,,,,,,,,,,,,,,,,,,,,,,,,,,,,,
0,15,15,63,1,,60fd8eafe88dceaddd8dee71,62c53a0eb173bbfd2c792f50,2022-07-06_09h30.52.210,Colour_Asymmetry_Pilot,2022.1.3,Win32,60.05645307,62c50e9c1127f2cd403a315f,,,,,,,,,,,,,,,,,,,,,,,,,,,,,,,,,,,,,,,,,,,,,,,,,,,,,,,,,,,,,,,,,,,,,,,,,,,,,,,,,,,,,,,,,,,,,,,,,,,,,,,,,,,,,,,,,,,,,,,,,,,,,,,,,,,,,,,,,,,,,,,,,,,,,,,,,,,,,,,,,,,
0,16,16,7,1,,60fd8eafe88dceaddd8dee71,62c53a0eb173bbfd2c792f50,2022-07-06_09h30.52.210,Colour_Asymmetry_Pilot,2022.1.3,Win32,60.05645307,62c50e9c1127f2cd403a315f,,,,,,,,,,,,,,,,,,,,,,,,,,,,,,,,,,,,,,,,,,,,,,,,,,,,,,,,,,,,,,,,,,,,,,,,,,,,,,,,,,,,,,,,,,,,,,,,,,,,,,,,,,,,,,,,,,,,,,,,,,,,,,,,,,,,,,,,,,,,,,,,,,,,,,,,,,,,,,,,,,,
0,17,17,42,1,,60fd8eafe88dceaddd8dee71,62c53a0eb173bbfd2c792f50,2022-07-06_09h30.52.210,Colour_Asymmetry_Pilot,2022.1.3,Win32,60.05645307,62c50e9c1127f2cd403a315f,,,,,,,,,,,,,,,,,,,,,,,,,,,,,,,,,,,,,,,,,,,,,,,,,,,,,,,,,,,,,,,,,,,,,,,,,,,,,,,,,,,,,,,,,,,,,,,,,,,,,,,,,,,,,,,,,,,,,,,,,,,,,,,,,,,,,,,,,,,,,,,,,,,,,,,,,,,,,,,,,,,
0,18,18,75,1,,60fd8eafe88dceaddd8dee71,62c53a0eb173bbfd2c792f50,2022-07-06_09h30.52.210,Colour_Asymmetry_Pilot,2022.1.3,Win32,60.05645307,62c50e9c1127f2cd403a315f,,,,,,,,,,,,,,,,,,,,,,,,,,,,,,,,,,,,,,,,,,,,,,,,,,,,,,,,,,,,,,,,,,,,,,,,,,,,,,,,,,,,,,,,,,,,,,,,,,,,,,,,,,,,,,,,,,,,,,,,,,,,,,,,,,,,,,,,,,,,,,,,,,,,,,,,,,,,,,,,,,,
0,19,19,55,1,,60fd8eafe88dceaddd8dee71,62c53a0eb173bbfd2c792f50,2022-07-06_09h30.52.210,Colour_Asymmetry_Pilot,2022.1.3,Win32,60.05645307,62c50e9c1127f2cd403a315f,,,,,,,,,,,,,,,,,,,,,,,,,,,,,,,,,,,,,,,,,,,,,,,,,,,,,,,,,,,,,,,,,,,,,,,,,,,,,,,,,,,,,,,,,,,,,,,,,,,,,,,,,,,,,,,,,,,,,,,,,,,,,,,,,,,,,,,,,,,,,,,,,,,,,,,,,,,,,,,,,,,
0,20,20,57,1,,60fd8eafe88dceaddd8dee71,62c53a0eb173bbfd2c792f50,2022-07-06_09h30.52.210,Colour_Asymmetry_Pilot,2022.1.3,Win32,60.05645307,62c50e9c1127f2cd403a315f,,,,,,,,,,,,,,,,,,,,,,,,,,,,,,,,,,,,,,,,,,,,,,,,,,,,,,,,,,,,,,,,,,,,,,,,,,,,,,,,,,,,,,,,,,,,,,,,,,,,,,,,,,,,,,,,,,,,,,,,,,,,,,,,,,,,,,,,,,,,,,,,,,,,,,,,,,,,,,,,,,,
0,21,21,11,1,,60fd8eafe88dceaddd8dee71,62c53a0eb173bbfd2c792f50,2022-07-06_09h30.52.210,Colour_Asymmetry_Pilot,2022.1.3,Win32,60.05645307,62c50e9c1127f2cd403a315f,,,,,,,,,,,,,,,,,,,,,,,,,,,,,,,,,,,,,,,,,,,,,,,,,,,,,,,,,,,,,,,,,,,,,,,,,,,,,,,,,,,,,,,,,,,,,,,,,,,,,,,,,,,,,,,,,,,,,,,,,,,,,,,,,,,,,,,,,,,,,,,,,,,,,,,,,,,,,,,,,,,
0,22,22,22,1,,60fd8eafe88dceaddd8dee71,62c53a0eb173bbfd2c792f50,2022-07-06_09h30.52.210,Colour_Asymmetry_Pilot,2022.1.3,Win32,60.05645307,62c50e9c1127f2cd403a315f,,,,,,,,,,,,,,,,,,,,,,,,,,,,,,,,,,,,,,,,,,,,,,,,,,,,,,,,,,,,,,,,,,,,,,,,,,,,,,,,,,,,,,,,,,,,,,,,,,,,,,,,,,,,,,,,,,,,,,,,,,,,,,,,,,,,,,,,,,,,,,,,,,,,,,,,,,,,,,,,,,,
0,23,23,0,1,,60fd8eafe88dceaddd8dee71,62c53a0eb173bbfd2c792f50,2022-07-06_09h30.52.210,Colour_Asymmetry_Pilot,2022.1.3,Win32,60.05645307,62c50e9c1127f2cd403a315f,,,,,,,,,,,,,,,,,,,,,,,,,,,,,,,,,,,,,,,,,,,,,,,,,,,,,,,,,,,,,,,,,,,,,,,,,,,,,,,,,,,,,,,,,,,,,,,,,,,,,,,,,,,,,,,,,,,,,,,,,,,,,,,,,,,,,,,,,,,,,,,,,,,,,,,,,,,,,,,,,,,
0,24,24,24,1,,60fd8eafe88dceaddd8dee71,62c53a0eb173bbfd2c792f50,2022-07-06_09h30.52.210,Colour_Asymmetry_Pilot,2022.1.3,Win32,60.05645307,62c50e9c1127f2cd403a315f,,,,,,,,,,,,,,,,,,,,,,,,,,,,,,,,,,,,,,,,,,,,,,,,,,,,,,,,,,,,,,,,,,,,,,,,,,,,,,,,,,,,,,,,,,,,,,,,,,,,,,,,,,,,,,,,,,,,,,,,,,,,,,,,,,,,,,,,,,,,,,,,,,,,,,,,,,,,,,,,,,,
0,25,25,79,1,,60fd8eafe88dceaddd8dee71,62c53a0eb173bbfd2c792f50,2022-07-06_09h30.52.210,Colour_Asymmetry_Pilot,2022.1.3,Win32,60.05645307,62c50e9c1127f2cd403a315f,,,,,,,,,,,,,,,,,,,,,,,,,,,,,,,,,,,,,,,,,,,,,,,,,,,,,,,,,,,,,,,,,,,,,,,,,,,,,,,,,,,,,,,,,,,,,,,,,,,,,,,,,,,,,,,,,,,,,,,,,,,,,,,,,,,,,,,,,,,,,,,,,,,,,,,,,,,,,,,,,,,
0,26,26,49,1,,60fd8eafe88dceaddd8dee71,62c53a0eb173bbfd2c792f50,2022-07-06_09h30.52.210,Colour_Asymmetry_Pilot,2022.1.3,Win32,60.05645307,62c50e9c1127f2cd403a315f,,,,,,,,,,,,,,,,,,,,,,,,,,,,,,,,,,,,,,,,,,,,,,,,,,,,,,,,,,,,,,,,,,,,,,,,,,,,,,,,,,,,,,,,,,,,,,,,,,,,,,,,,,,,,,,,,,,,,,,,,,,,,,,,,,,,,,,,,,,,,,,,,,,,,,,,,,,,,,,,,,,
0,27,27,82,1,,60fd8eafe88dceaddd8dee71,62c53a0eb173bbfd2c792f50,2022-07-06_09h30.52.210,Colour_Asymmetry_Pilot,2022.1.3,Win32,60.05645307,62c50e9c1127f2cd403a315f,,,,,,,,,,,,,,,,,,,,,,,,,,,,,,,,,,,,,,,,,,,,,,,,,,,,,,,,,,,,,,,,,,,,,,,,,,,,,,,,,,,,,,,,,,,,,,,,,,,,,,,,,,,,,,,,,,,,,,,,,,,,,,,,,,,,,,,,,,,,,,,,,,,,,,,,,,,,,,,,,,,
0,28,28,9,1,,60fd8eafe88dceaddd8dee71,62c53a0eb173bbfd2c792f50,2022-07-06_09h30.52.210,Colour_Asymmetry_Pilot,2022.1.3,Win32,60.05645307,62c50e9c1127f2cd403a315f,,,,,,,,,,,,,,,,,,,,,,,,,,,,,,,,,,,,,,,,,,,,,,,,,,,,,,,,,,,,,,,,,,,,,,,,,,,,,,,,,,,,,,,,,,,,,,,,,,,,,,,,,,,,,,,,,,,,,,,,,,,,,,,,,,,,,,,,,,,,,,,,,,,,,,,,,,,,,,,,,,,
0,29,29,18,1,,60fd8eafe88dceaddd8dee71,62c53a0eb173bbfd2c792f50,2022-07-06_09h30.52.210,Colour_Asymmetry_Pilot,2022.1.3,Win32,60.05645307,62c50e9c1127f2cd403a315f,,,,,,,,,,,,,,,,,,,,,,,,,,,,,,,,,,,,,,,,,,,,,,,,,,,,,,,,,,,,,,,,,,,,,,,,,,,,,,,,,,,,,,,,,,,,,,,,,,,,,,,,,,,,,,,,,,,,,,,,,,,,,,,,,,,,,,,,,,,,,,,,,,,,,,,,,,,,,,,,,,,
0,30,30,89,1,,60fd8eafe88dceaddd8dee71,62c53a0eb173bbfd2c792f50,2022-07-06_09h30.52.210,Colour_Asymmetry_Pilot,2022.1.3,Win32,60.05645307,62c50e9c1127f2cd403a315f,,,,,,,,,,,,,,,,,,,,,,,,,,,,,,,,,,,,,,,,,,,,,,,,,,,,,,,,,,,,,,,,,,,,,,,,,,,,,,,,,,,,,,,,,,,,,,,,,,,,,,,,,,,,,,,,,,,,,,,,,,,,,,,,,,,,,,,,,,,,,,,,,,,,,,,,,,,,,,,,,,,
0,31,31,13,1,,60fd8eafe88dceaddd8dee71,62c53a0eb173bbfd2c792f50,2022-07-06_09h30.52.210,Colour_Asymmetry_Pilot,2022.1.3,Win32,60.05645307,62c50e9c1127f2cd403a315f,,,,,,,,,,,,,,,,,,,,,,,,,,,,,,,,,,,,,,,,,,,,,,,,,,,,,,,,,,,,,,,,,,,,,,,,,,,,,,,,,,,,,,,,,,,,,,,,,,,,,,,,,,,,,,,,,,,,,,,,,,,,,,,,,,,,,,,,,,,,,,,,,,,,,,,,,,,,,,,,,,,
0,32,32,70,1,,60fd8eafe88dceaddd8dee71,62c53a0eb173bbfd2c792f50,2022-07-06_09h30.52.210,Colour_Asymmetry_Pilot,2022.1.3,Win32,60.05645307,62c50e9c1127f2cd403a315f,,,,,,,,,,,,,,,,,,,,,,,,,,,,,,,,,,,,,,,,,,,,,,,,,,,,,,,,,,,,,,,,,,,,,,,,,,,,,,,,,,,,,,,,,,,,,,,,,,,,,,,,,,,,,,,,,,,,,,,,,,,,,,,,,,,,,,,,,,,,,,,,,,,,,,,,,,,,,,,,,,,
0,33,33,80,1,,60fd8eafe88dceaddd8dee71,62c53a0eb173bbfd2c792f50,2022-07-06_09h30.52.210,Colour_Asymmetry_Pilot,2022.1.3,Win32,60.05645307,62c50e9c1127f2cd403a315f,,,,,,,,,,,,,,,,,,,,,,,,,,,,,,,,,,,,,,,,,,,,,,,,,,,,,,,,,,,,,,,,,,,,,,,,,,,,,,,,,,,,,,,,,,,,,,,,,,,,,,,,,,,,,,,,,,,,,,,,,,,,,,,,,,,,,,,,,,,,,,,,,,,,,,,,,,,,,,,,,,,
0,34,34,50,1,,60fd8eafe88dceaddd8dee71,62c53a0eb173bbfd2c792f50,2022-07-06_09h30.52.210,Colour_Asymmetry_Pilot,2022.1.3,Win32,60.05645307,62c50e9c1127f2cd403a315f,,,,,,,,,,,,,,,,,,,,,,,,,,,,,,,,,,,,,,,,,,,,,,,,,,,,,,,,,,,,,,,,,,,,,,,,,,,,,,,,,,,,,,,,,,,,,,,,,,,,,,,,,,,,,,,,,,,,,,,,,,,,,,,,,,,,,,,,,,,,,,,,,,,,,,,,,,,,,,,,,,,
0,35,35,5,1,,60fd8eafe88dceaddd8dee71,62c53a0eb173bbfd2c792f50,2022-07-06_09h30.52.210,Colour_Asymmetry_Pilot,2022.1.3,Win32,60.05645307,62c50e9c1127f2cd403a315f,,,,,,,,,,,,,,,,,,,,,,,,,,,,,,,,,,,,,,,,,,,,,,,,,,,,,,,,,,,,,,,,,,,,,,,,,,,,,,,,,,,,,,,,,,,,,,,,,,,,,,,,,,,,,,,,,,,,,,,,,,,,,,,,,,,,,,,,,,,,,,,,,,,,,,,,,,,,,,,,,,,
0,36,36,84,1,,60fd8eafe88dceaddd8dee71,62c53a0eb173bbfd2c792f50,2022-07-06_09h30.52.210,Colour_Asymmetry_Pilot,2022.1.3,Win32,60.05645307,62c50e9c1127f2cd403a315f,,,,,,,,,,,,,,,,,,,,,,,,,,,,,,,,,,,,,,,,,,,,,,,,,,,,,,,,,,,,,,,,,,,,,,,,,,,,,,,,,,,,,,,,,,,,,,,,,,,,,,,,,,,,,,,,,,,,,,,,,,,,,,,,,,,,,,,,,,,,,,,,,,,,,,,,,,,,,,,,,,,
0,37,37,4,1,,60fd8eafe88dceaddd8dee71,62c53a0eb173bbfd2c792f50,2022-07-06_09h30.52.210,Colour_Asymmetry_Pilot,2022.1.3,Win32,60.05645307,62c50e9c1127f2cd403a315f,,,,,,,,,,,,,,,,,,,,,,,,,,,,,,,,,,,,,,,,,,,,,,,,,,,,,,,,,,,,,,,,,,,,,,,,,,,,,,,,,,,,,,,,,,,,,,,,,,,,,,,,,,,,,,,,,,,,,,,,,,,,,,,,,,,,,,,,,,,,,,,,,,,,,,,,,,,,,,,,,,,
0,38,38,61,1,,60fd8eafe88dceaddd8dee71,62c53a0eb173bbfd2c792f50,2022-07-06_09h30.52.210,Colour_Asymmetry_Pilot,2022.1.3,Win32,60.05645307,62c50e9c1127f2cd403a315f,,,,,,,,,,,,,,,,,,,,,,,,,,,,,,,,,,,,,,,,,,,,,,,,,,,,,,,,,,,,,,,,,,,,,,,,,,,,,,,,,,,,,,,,,,,,,,,,,,,,,,,,,,,,,,,,,,,,,,,,,,,,,,,,,,,,,,,,,,,,,,,,,,,,,,,,,,,,,,,,,,,
0,39,39,73,1,,60fd8eafe88dceaddd8dee71,62c53a0eb173bbfd2c792f50,2022-07-06_09h30.52.210,Colour_Asymmetry_Pilot,2022.1.3,Win32,60.05645307,62c50e9c1127f2cd403a315f,,,,,,,,,,,,,,,,,,,,,,,,,,,,,,,,,,,,,,,,,,,,,,,,,,,,,,,,,,,,,,,,,,,,,,,,,,,,,,,,,,,,,,,,,,,,,,,,,,,,,,,,,,,,,,,,,,,,,,,,,,,,,,,,,,,,,,,,,,,,,,,,,,,,,,,,,,,,,,,,,,,
0,40,40,88,1,,60fd8eafe88dceaddd8dee71,62c53a0eb173bbfd2c792f50,2022-07-06_09h30.52.210,Colour_Asymmetry_Pilot,2022.1.3,Win32,60.05645307,62c50e9c1127f2cd403a315f,,,,,,,,,,,,,,,,,,,,,,,,,,,,,,,,,,,,,,,,,,,,,,,,,,,,,,,,,,,,,,,,,,,,,,,,,,,,,,,,,,,,,,,,,,,,,,,,,,,,,,,,,,,,,,,,,,,,,,,,,,,,,,,,,,,,,,,,,,,,,,,,,,,,,,,,,,,,,,,,,,,
0,41,41,67,1,,60fd8eafe88dceaddd8dee71,62c53a0eb173bbfd2c792f50,2022-07-06_09h30.52.210,Colour_Asymmetry_Pilot,2022.1.3,Win32,60.05645307,62c50e9c1127f2cd403a315f,,,,,,,,,,,,,,,,,,,,,,,,,,,,,,,,,,,,,,,,,,,,,,,,,,,,,,,,,,,,,,,,,,,,,,,,,,,,,,,,,,,,,,,,,,,,,,,,,,,,,,,,,,,,,,,,,,,,,,,,,,,,,,,,,,,,,,,,,,,,,,,,,,,,,,,,,,,,,,,,,,,
0,42,42,54,1,,60fd8eafe88dceaddd8dee71,62c53a0eb173bbfd2c792f50,2022-07-06_09h30.52.210,Colour_Asymmetry_Pilot,2022.1.3,Win32,60.05645307,62c50e9c1127f2cd403a315f,,,,,,,,,,,,,,,,,,,,,,,,,,,,,,,,,,,,,,,,,,,,,,,,,,,,,,,,,,,,,,,,,,,,,,,,,,,,,,,,,,,,,,,,,,,,,,,,,,,,,,,,,,,,,,,,,,,,,,,,,,,,,,,,,,,,,,,,,,,,,,,,,,,,,,,,,,,,,,,,,,,
0,43,43,52,1,,60fd8eafe88dceaddd8dee71,62c53a0eb173bbfd2c792f50,2022-07-06_09h30.52.210,Colour_Asymmetry_Pilot,2022.1.3,Win32,60.05645307,62c50e9c1127f2cd403a315f,,,,,,,,,,,,,,,,,,,,,,,,,,,,,,,,,,,,,,,,,,,,,,,,,,,,,,,,,,,,,,,,,,,,,,,,,,,,,,,,,,,,,,,,,,,,,,,,,,,,,,,,,,,,,,,,,,,,,,,,,,,,,,,,,,,,,,,,,,,,,,,,,,,,,,,,,,,,,,,,,,,
0,44,44,90,1,,60fd8eafe88dceaddd8dee71,62c53a0eb173bbfd2c792f50,2022-07-06_09h30.52.210,Colour_Asymmetry_Pilot,2022.1.3,Win32,60.05645307,62c50e9c1127f2cd403a315f,,,,,,,,,,,,,,,,,,,,,,,,,,,,,,,,,,,,,,,,,,,,,,,,,,,,,,,,,,,,,,,,,,,,,,,,,,,,,,,,,,,,,,,,,,,,,,,,,,,,,,,,,,,,,,,,,,,,,,,,,,,,,,,,,,,,,,,,,,,,,,,,,,,,,,,,,,,,,,,,,,,
0,45,45,58,1,,60fd8eafe88dceaddd8dee71,62c53a0eb173bbfd2c792f50,2022-07-06_09h30.52.210,Colour_Asymmetry_Pilot,2022.1.3,Win32,60.05645307,62c50e9c1127f2cd403a315f,,,,,,,,,,,,,,,,,,,,,,,,,,,,,,,,,,,,,,,,,,,,,,,,,,,,,,,,,,,,,,,,,,,,,,,,,,,,,,,,,,,,,,,,,,,,,,,,,,,,,,,,,,,,,,,,,,,,,,,,,,,,,,,,,,,,,,,,,,,,,,,,,,,,,,,,,,,,,,,,,,,
0,46,46,39,1,,60fd8eafe88dceaddd8dee71,62c53a0eb173bbfd2c792f50,2022-07-06_09h30.52.210,Colour_Asymmetry_Pilot,2022.1.3,Win32,60.05645307,62c50e9c1127f2cd403a315f,,,,,,,,,,,,,,,,,,,,,,,,,,,,,,,,,,,,,,,,,,,,,,,,,,,,,,,,,,,,,,,,,,,,,,,,,,,,,,,,,,,,,,,,,,,,,,,,,,,,,,,,,,,,,,,,,,,,,,,,,,,,,,,,,,,,,,,,,,,,,,,,,,,,,,,,,,,,,,,,,,,
0,47,47,71,1,,60fd8eafe88dceaddd8dee71,62c53a0eb173bbfd2c792f50,2022-07-06_09h30.52.210,Colour_Asymmetry_Pilot,2022.1.3,Win32,60.05645307,62c50e9c1127f2cd403a315f,,,,,,,,,,,,,,,,,,,,,,,,,,,,,,,,,,,,,,,,,,,,,,,,,,,,,,,,,,,,,,,,,,,,,,,,,,,,,,,,,,,,,,,,,,,,,,,,,,,,,,,,,,,,,,,,,,,,,,,,,,,,,,,,,,,,,,,,,,,,,,,,,,,,,,,,,,,,,,,,,,,
0,48,48,53,1,,60fd8eafe88dceaddd8dee71,62c53a0eb173bbfd2c792f50,2022-07-06_09h30.52.210,Colour_Asymmetry_Pilot,2022.1.3,Win32,60.05645307,62c50e9c1127f2cd403a315f,,,,,,,,,,,,,,,,,,,,,,,,,,,,,,,,,,,,,,,,,,,,,,,,,,,,,,,,,,,,,,,,,,,,,,,,,,,,,,,,,,,,,,,,,,,,,,,,,,,,,,,,,,,,,,,,,,,,,,,,,,,,,,,,,,,,,,,,,,,,,,,,,,,,,,,,,,,,,,,,,,,
0,49,49,56,1,,60fd8eafe88dceaddd8dee71,62c53a0eb173bbfd2c792f50,2022-07-06_09h30.52.210,Colour_Asymmetry_Pilot,2022.1.3,Win32,60.05645307,62c50e9c1127f2cd403a315f,,,,,,,,,,,,,,,,,,,,,,,,,,,,,,,,,,,,,,,,,,,,,,,,,,,,,,,,,,,,,,,,,,,,,,,,,,,,,,,,,,,,,,,,,,,,,,,,,,,,,,,,,,,,,,,,,,,,,,,,,,,,,,,,,,,,,,,,,,,,,,,,,,,,,,,,,,,,,,,,,,,
0,50,50,59,1,,60fd8eafe88dceaddd8dee71,62c53a0eb173bbfd2c792f50,2022-07-06_09h30.52.210,Colour_Asymmetry_Pilot,2022.1.3,Win32,60.05645307,62c50e9c1127f2cd403a315f,,,,,,,,,,,,,,,,,,,,,,,,,,,,,,,,,,,,,,,,,,,,,,,,,,,,,,,,,,,,,,,,,,,,,,,,,,,,,,,,,,,,,,,,,,,,,,,,,,,,,,,,,,,,,,,,,,,,,,,,,,,,,,,,,,,,,,,,,,,,,,,,,,,,,,,,,,,,,,,,,,,
0,51,51,81,1,,60fd8eafe88dceaddd8dee71,62c53a0eb173bbfd2c792f50,2022-07-06_09h30.52.210,Colour_Asymmetry_Pilot,2022.1.3,Win32,60.05645307,62c50e9c1127f2cd403a315f,,,,,,,,,,,,,,,,,,,,,,,,,,,,,,,,,,,,,,,,,,,,,,,,,,,,,,,,,,,,,,,,,,,,,,,,,,,,,,,,,,,,,,,,,,,,,,,,,,,,,,,,,,,,,,,,,,,,,,,,,,,,,,,,,,,,,,,,,,,,,,,,,,,,,,,,,,,,,,,,,,,
0,52,52,15,1,,60fd8eafe88dceaddd8dee71,62c53a0eb173bbfd2c792f50,2022-07-06_09h30.52.210,Colour_Asymmetry_Pilot,2022.1.3,Win32,60.05645307,62c50e9c1127f2cd403a315f,,,,,,,,,,,,,,,,,,,,,,,,,,,,,,,,,,,,,,,,,,,,,,,,,,,,,,,,,,,,,,,,,,,,,,,,,,,,,,,,,,,,,,,,,,,,,,,,,,,,,,,,,,,,,,,,,,,,,,,,,,,,,,,,,,,,,,,,,,,,,,,,,,,,,,,,,,,,,,,,,,,
0,53,53,1,1,,60fd8eafe88dceaddd8dee71,62c53a0eb173bbfd2c792f50,2022-07-06_09h30.52.210,Colour_Asymmetry_Pilot,2022.1.3,Win32,60.05645307,62c50e9c1127f2cd403a315f,,,,,,,,,,,,,,,,,,,,,,,,,,,,,,,,,,,,,,,,,,,,,,,,,,,,,,,,,,,,,,,,,,,,,,,,,,,,,,,,,,,,,,,,,,,,,,,,,,,,,,,,,,,,,,,,,,,,,,,,,,,,,,,,,,,,,,,,,,,,,,,,,,,,,,,,,,,,,,,,,,,
0,54,54,6,1,,60fd8eafe88dceaddd8dee71,62c53a0eb173bbfd2c792f50,2022-07-06_09h30.52.210,Colour_Asymmetry_Pilot,2022.1.3,Win32,60.05645307,62c50e9c1127f2cd403a315f,,,,,,,,,,,,,,,,,,,,,,,,,,,,,,,,,,,,,,,,,,,,,,,,,,,,,,,,,,,,,,,,,,,,,,,,,,,,,,,,,,,,,,,,,,,,,,,,,,,,,,,,,,,,,,,,,,,,,,,,,,,,,,,,,,,,,,,,,,,,,,,,,,,,,,,,,,,,,,,,,,,
0,55,55,26,1,,60fd8eafe88dceaddd8dee71,62c53a0eb173bbfd2c792f50,2022-07-06_09h30.52.210,Colour_Asymmetry_Pilot,2022.1.3,Win32,60.05645307,62c50e9c1127f2cd403a315f,,,,,,,,,,,,,,,,,,,,,,,,,,,,,,,,,,,,,,,,,,,,,,,,,,,,,,,,,,,,,,,,,,,,,,,,,,,,,,,,,,,,,,,,,,,,,,,,,,,,,,,,,,,,,,,,,,,,,,,,,,,,,,,,,,,,,,,,,,,,,,,,,,,,,,,,,,,,,,,,,,,
0,56,56,12,1,,60fd8eafe88dceaddd8dee71,62c53a0eb173bbfd2c792f50,2022-07-06_09h30.52.210,Colour_Asymmetry_Pilot,2022.1.3,Win32,60.05645307,62c50e9c1127f2cd403a315f,,,,,,,,,,,,,,,,,,,,,,,,,,,,,,,,,,,,,,,,,,,,,,,,,,,,,,,,,,,,,,,,,,,,,,,,,,,,,,,,,,,,,,,,,,,,,,,,,,,,,,,,,,,,,,,,,,,,,,,,,,,,,,,,,,,,,,,,,,,,,,,,,,,,,,,,,,,,,,,,,,,
0,57,57,51,1,,60fd8eafe88dceaddd8dee71,62c53a0eb173bbfd2c792f50,2022-07-06_09h30.52.210,Colour_Asymmetry_Pilot,2022.1.3,Win32,60.05645307,62c50e9c1127f2cd403a315f,,,,,,,,,,,,,,,,,,,,,,,,,,,,,,,,,,,,,,,,,,,,,,,,,,,,,,,,,,,,,,,,,,,,,,,,,,,,,,,,,,,,,,,,,,,,,,,,,,,,,,,,,,,,,,,,,,,,,,,,,,,,,,,,,,,,,,,,,,,,,,,,,,,,,,,,,,,,,,,,,,,
0,58,58,38,1,,60fd8eafe88dceaddd8dee71,62c53a0eb173bbfd2c792f50,2022-07-06_09h30.52.210,Colour_Asymmetry_Pilot,2022.1.3,Win32,60.05645307,62c50e9c1127f2cd403a315f,,,,,,,,,,,,,,,,,,,,,,,,,,,,,,,,,,,,,,,,,,,,,,,,,,,,,,,,,,,,,,,,,,,,,,,,,,,,,,,,,,,,,,,,,,,,,,,,,,,,,,,,,,,,,,,,,,,,,,,,,,,,,,,,,,,,,,,,,,,,,,,,,,,,,,,,,,,,,,,,,,,
0,59,59,8,1,,60fd8eafe88dceaddd8dee71,62c53a0eb173bbfd2c792f50,2022-07-06_09h30.52.210,Colour_Asymmetry_Pilot,2022.1.3,Win32,60.05645307,62c50e9c1127f2cd403a315f,,,,,,,,,,,,,,,,,,,,,,,,,,,,,,,,,,,,,,,,,,,,,,,,,,,,,,,,,,,,,,,,,,,,,,,,,,,,,,,,,,,,,,,,,,,,,,,,,,,,,,,,,,,,,,,,,,,,,,,,,,,,,,,,,,,,,,,,,,,,,,,,,,,,,,,,,,,,,,,,,,,
0,60,60,87,1,,60fd8eafe88dceaddd8dee71,62c53a0eb173bbfd2c792f50,2022-07-06_09h30.52.210,Colour_Asymmetry_Pilot,2022.1.3,Win32,60.05645307,62c50e9c1127f2cd403a315f,,,,,,,,,,,,,,,,,,,,,,,,,,,,,,,,,,,,,,,,,,,,,,,,,,,,,,,,,,,,,,,,,,,,,,,,,,,,,,,,,,,,,,,,,,,,,,,,,,,,,,,,,,,,,,,,,,,,,,,,,,,,,,,,,,,,,,,,,,,,,,,,,,,,,,,,,,,,,,,,,,,
0,61,61,37,1,,60fd8eafe88dceaddd8dee71,62c53a0eb173bbfd2c792f50,2022-07-06_09h30.52.210,Colour_Asymmetry_Pilot,2022.1.3,Win32,60.05645307,62c50e9c1127f2cd403a315f,,,,,,,,,,,,,,,,,,,,,,,,,,,,,,,,,,,,,,,,,,,,,,,,,,,,,,,,,,,,,,,,,,,,,,,,,,,,,,,,,,,,,,,,,,,,,,,,,,,,,,,,,,,,,,,,,,,,,,,,,,,,,,,,,,,,,,,,,,,,,,,,,,,,,,,,,,,,,,,,,,,
0,62,62,36,1,,60fd8eafe88dceaddd8dee71,62c53a0eb173bbfd2c792f50,2022-07-06_09h30.52.210,Colour_Asymmetry_Pilot,2022.1.3,Win32,60.05645307,62c50e9c1127f2cd403a315f,,,,,,,,,,,,,,,,,,,,,,,,,,,,,,,,,,,,,,,,,,,,,,,,,,,,,,,,,,,,,,,,,,,,,,,,,,,,,,,,,,,,,,,,,,,,,,,,,,,,,,,,,,,,,,,,,,,,,,,,,,,,,,,,,,,,,,,,,,,,,,,,,,,,,,,,,,,,,,,,,,,
0,63,63,30,1,,60fd8eafe88dceaddd8dee71,62c53a0eb173bbfd2c792f50,2022-07-06_09h30.52.210,Colour_Asymmetry_Pilot,2022.1.3,Win32,60.05645307,62c50e9c1127f2cd403a315f,,,,,,,,,,,,,,,,,,,,,,,,,,,,,,,,,,,,,,,,,,,,,,,,,,,,,,,,,,,,,,,,,,,,,,,,,,,,,,,,,,,,,,,,,,,,,,,,,,,,,,,,,,,,,,,,,,,,,,,,,,,,,,,,,,,,,,,,,,,,,,,,,,,,,,,,,,,,,,,,,,,
0,64,64,78,1,,60fd8eafe88dceaddd8dee71,62c53a0eb173bbfd2c792f50,2022-07-06_09h30.52.210,Colour_Asymmetry_Pilot,2022.1.3,Win32,60.05645307,62c50e9c1127f2cd403a315f,,,,,,,,,,,,,,,,,,,,,,,,,,,,,,,,,,,,,,,,,,,,,,,,,,,,,,,,,,,,,,,,,,,,,,,,,,,,,,,,,,,,,,,,,,,,,,,,,,,,,,,,,,,,,,,,,,,,,,,,,,,,,,,,,,,,,,,,,,,,,,,,,,,,,,,,,,,,,,,,,,,
0,65,65,83,1,,60fd8eafe88dceaddd8dee71,62c53a0eb173bbfd2c792f50,2022-07-06_09h30.52.210,Colour_Asymmetry_Pilot,2022.1.3,Win32,60.05645307,62c50e9c1127f2cd403a315f,,,,,,,,,,,,,,,,,,,,,,,,,,,,,,,,,,,,,,,,,,,,,,,,,,,,,,,,,,,,,,,,,,,,,,,,,,,,,,,,,,,,,,,,,,,,,,,,,,,,,,,,,,,,,,,,,,,,,,,,,,,,,,,,,,,,,,,,,,,,,,,,,,,,,,,,,,,,,,,,,,,
0,66,66,20,1,,60fd8eafe88dceaddd8dee71,62c53a0eb173bbfd2c792f50,2022-07-06_09h30.52.210,Colour_Asymmetry_Pilot,2022.1.3,Win32,60.05645307,62c50e9c1127f2cd403a315f,,,,,,,,,,,,,,,,,,,,,,,,,,,,,,,,,,,,,,,,,,,,,,,,,,,,,,,,,,,,,,,,,,,,,,,,,,,,,,,,,,,,,,,,,,,,,,,,,,,,,,,,,,,,,,,,,,,,,,,,,,,,,,,,,,,,,,,,,,,,,,,,,,,,,,,,,,,,,,,,,,,
0,67,67,68,1,,60fd8eafe88dceaddd8dee71,62c53a0eb173bbfd2c792f50,2022-07-06_09h30.52.210,Colour_Asymmetry_Pilot,2022.1.3,Win32,60.05645307,62c50e9c1127f2cd403a315f,,,,,,,,,,,,,,,,,,,,,,,,,,,,,,,,,,,,,,,,,,,,,,,,,,,,,,,,,,,,,,,,,,,,,,,,,,,,,,,,,,,,,,,,,,,,,,,,,,,,,,,,,,,,,,,,,,,,,,,,,,,,,,,,,,,,,,,,,,,,,,,,,,,,,,,,,,,,,,,,,,,
0,68,68,69,1,,60fd8eafe88dceaddd8dee71,62c53a0eb173bbfd2c792f50,2022-07-06_09h30.52.210,Colour_Asymmetry_Pilot,2022.1.3,Win32,60.05645307,62c50e9c1127f2cd403a315f,,,,,,,,,,,,,,,,,,,,,,,,,,,,,,,,,,,,,,,,,,,,,,,,,,,,,,,,,,,,,,,,,,,,,,,,,,,,,,,,,,,,,,,,,,,,,,,,,,,,,,,,,,,,,,,,,,,,,,,,,,,,,,,,,,,,,,,,,,,,,,,,,,,,,,,,,,,,,,,,,,,
0,69,69,66,1,,60fd8eafe88dceaddd8dee71,62c53a0eb173bbfd2c792f50,2022-07-06_09h30.52.210,Colour_Asymmetry_Pilot,2022.1.3,Win32,60.05645307,62c50e9c1127f2cd403a315f,,,,,,,,,,,,,,,,,,,,,,,,,,,,,,,,,,,,,,,,,,,,,,,,,,,,,,,,,,,,,,,,,,,,,,,,,,,,,,,,,,,,,,,,,,,,,,,,,,,,,,,,,,,,,,,,,,,,,,,,,,,,,,,,,,,,,,,,,,,,,,,,,,,,,,,,,,,,,,,,,,,
0,70,70,62,1,,60fd8eafe88dceaddd8dee71,62c53a0eb173bbfd2c792f50,2022-07-06_09h30.52.210,Colour_Asymmetry_Pilot,2022.1.3,Win32,60.05645307,62c50e9c1127f2cd403a315f,,,,,,,,,,,,,,,,,,,,,,,,,,,,,,,,,,,,,,,,,,,,,,,,,,,,,,,,,,,,,,,,,,,,,,,,,,,,,,,,,,,,,,,,,,,,,,,,,,,,,,,,,,,,,,,,,,,,,,,,,,,,,,,,,,,,,,,,,,,,,,,,,,,,,,,,,,,,,,,,,,,
0,71,71,14,1,,60fd8eafe88dceaddd8dee71,62c53a0eb173bbfd2c792f50,2022-07-06_09h30.52.210,Colour_Asymmetry_Pilot,2022.1.3,Win32,60.05645307,62c50e9c1127f2cd403a315f,,,,,,,,,,,,,,,,,,,,,,,,,,,,,,,,,,,,,,,,,,,,,,,,,,,,,,,,,,,,,,,,,,,,,,,,,,,,,,,,,,,,,,,,,,,,,,,,,,,,,,,,,,,,,,,,,,,,,,,,,,,,,,,,,,,,,,,,,,,,,,,,,,,,,,,,,,,,,,,,,,,
0,72,72,27,1,,60fd8eafe88dceaddd8dee71,62c53a0eb173bbfd2c792f50,2022-07-06_09h30.52.210,Colour_Asymmetry_Pilot,2022.1.3,Win32,60.05645307,62c50e9c1127f2cd403a315f,,,,,,,,,,,,,,,,,,,,,,,,,,,,,,,,,,,,,,,,,,,,,,,,,,,,,,,,,,,,,,,,,,,,,,,,,,,,,,,,,,,,,,,,,,,,,,,,,,,,,,,,,,,,,,,,,,,,,,,,,,,,,,,,,,,,,,,,,,,,,,,,,,,,,,,,,,,,,,,,,,,
0,73,73,17,1,,60fd8eafe88dceaddd8dee71,62c53a0eb173bbfd2c792f50,2022-07-06_09h30.52.210,Colour_Asymmetry_Pilot,2022.1.3,Win32,60.05645307,62c50e9c1127f2cd403a315f,,,,,,,,,,,,,,,,,,,,,,,,,,,,,,,,,,,,,,,,,,,,,,,,,,,,,,,,,,,,,,,,,,,,,,,,,,,,,,,,,,,,,,,,,,,,,,,,,,,,,,,,,,,,,,,,,,,,,,,,,,,,,,,,,,,,,,,,,,,,,,,,,,,,,,,,,,,,,,,,,,,
0,74,74,48,1,,60fd8eafe88dceaddd8dee71,62c53a0eb173bbfd2c792f50,2022-07-06_09h30.52.210,Colour_Asymmetry_Pilot,2022.1.3,Win32,60.05645307,62c50e9c1127f2cd403a315f,,,,,,,,,,,,,,,,,,,,,,,,,,,,,,,,,,,,,,,,,,,,,,,,,,,,,,,,,,,,,,,,,,,,,,,,,,,,,,,,,,,,,,,,,,,,,,,,,,,,,,,,,,,,,,,,,,,,,,,,,,,,,,,,,,,,,,,,,,,,,,,,,,,,,,,,,,,,,,,,,,,
0,75,75,10,1,,60fd8eafe88dceaddd8dee71,62c53a0eb173bbfd2c792f50,2022-07-06_09h30.52.210,Colour_Asymmetry_Pilot,2022.1.3,Win32,60.05645307,62c50e9c1127f2cd403a315f,,,,,,,,,,,,,,,,,,,,,,,,,,,,,,,,,,,,,,,,,,,,,,,,,,,,,,,,,,,,,,,,,,,,,,,,,,,,,,,,,,,,,,,,,,,,,,,,,,,,,,,,,,,,,,,,,,,,,,,,,,,,,,,,,,,,,,,,,,,,,,,,,,,,,,,,,,,,,,,,,,,
0,76,76,25,1,,60fd8eafe88dceaddd8dee71,62c53a0eb173bbfd2c792f50,2022-07-06_09h30.52.210,Colour_Asymmetry_Pilot,2022.1.3,Win32,60.05645307,62c50e9c1127f2cd403a315f,,,,,,,,,,,,,,,,,,,,,,,,,,,,,,,,,,,,,,,,,,,,,,,,,,,,,,,,,,,,,,,,,,,,,,,,,,,,,,,,,,,,,,,,,,,,,,,,,,,,,,,,,,,,,,,,,,,,,,,,,,,,,,,,,,,,,,,,,,,,,,,,,,,,,,,,,,,,,,,,,,,
0,77,77,35,1,,60fd8eafe88dceaddd8dee71,62c53a0eb173bbfd2c792f50,2022-07-06_09h30.52.210,Colour_Asymmetry_Pilot,2022.1.3,Win32,60.05645307,62c50e9c1127f2cd403a315f,,,,,,,,,,,,,,,,,,,,,,,,,,,,,,,,,,,,,,,,,,,,,,,,,,,,,,,,,,,,,,,,,,,,,,,,,,,,,,,,,,,,,,,,,,,,,,,,,,,,,,,,,,,,,,,,,,,,,,,,,,,,,,,,,,,,,,,,,,,,,,,,,,,,,,,,,,,,,,,,,,,
0,78,78,41,1,,60fd8eafe88dceaddd8dee71,62c53a0eb173bbfd2c792f50,2022-07-06_09h30.52.210,Colour_Asymmetry_Pilot,2022.1.3,Win32,60.05645307,62c50e9c1127f2cd403a315f,,,,,,,,,,,,,,,,,,,,,,,,,,,,,,,,,,,,,,,,,,,,,,,,,,,,,,,,,,,,,,,,,,,,,,,,,,,,,,,,,,,,,,,,,,,,,,,,,,,,,,,,,,,,,,,,,,,,,,,,,,,,,,,,,,,,,,,,,,,,,,,,,,,,,,,,,,,,,,,,,,,
0,79,79,3,1,,60fd8eafe88dceaddd8dee71,62c53a0eb173bbfd2c792f50,2022-07-06_09h30.52.210,Colour_Asymmetry_Pilot,2022.1.3,Win32,60.05645307,62c50e9c1127f2cd403a315f,,,,,,,,,,,,,,,,,,,,,,,,,,,,,,,,,,,,,,,,,,,,,,,,,,,,,,,,,,,,,,,,,,,,,,,,,,,,,,,,,,,,,,,,,,,,,,,,,,,,,,,,,,,,,,,,,,,,,,,,,,,,,,,,,,,,,,,,,,,,,,,,,,,,,,,,,,,,,,,,,,,
0,80,80,43,1,,60fd8eafe88dceaddd8dee71,62c53a0eb173bbfd2c792f50,2022-07-06_09h30.52.210,Colour_Asymmetry_Pilot,2022.1.3,Win32,60.05645307,62c50e9c1127f2cd403a315f,,,,,,,,,,,,,,,,,,,,,,,,,,,,,,,,,,,,,,,,,,,,,,,,,,,,,,,,,,,,,,,,,,,,,,,,,,,,,,,,,,,,,,,,,,,,,,,,,,,,,,,,,,,,,,,,,,,,,,,,,,,,,,,,,,,,,,,,,,,,,,,,,,,,,,,,,,,,,,,,,,,
0,81,81,76,1,,60fd8eafe88dceaddd8dee71,62c53a0eb173bbfd2c792f50,2022-07-06_09h30.52.210,Colour_Asymmetry_Pilot,2022.1.3,Win32,60.05645307,62c50e9c1127f2cd403a315f,,,,,,,,,,,,,,,,,,,,,,,,,,,,,,,,,,,,,,,,,,,,,,,,,,,,,,,,,,,,,,,,,,,,,,,,,,,,,,,,,,,,,,,,,,,,,,,,,,,,,,,,,,,,,,,,,,,,,,,,,,,,,,,,,,,,,,,,,,,,,,,,,,,,,,,,,,,,,,,,,,,
0,82,82,23,1,,60fd8eafe88dceaddd8dee71,62c53a0eb173bbfd2c792f50,2022-07-06_09h30.52.210,Colour_Asymmetry_Pilot,2022.1.3,Win32,60.05645307,62c50e9c1127f2cd403a315f,,,,,,,,,,,,,,,,,,,,,,,,,,,,,,,,,,,,,,,,,,,,,,,,,,,,,,,,,,,,,,,,,,,,,,,,,,,,,,,,,,,,,,,,,,,,,,,,,,,,,,,,,,,,,,,,,,,,,,,,,,,,,,,,,,,,,,,,,,,,,,,,,,,,,,,,,,,,,,,,,,,
0,83,83,46,1,,60fd8eafe88dceaddd8dee71,62c53a0eb173bbfd2c792f50,2022-07-06_09h30.52.210,Colour_Asymmetry_Pilot,2022.1.3,Win32,60.05645307,62c50e9c1127f2cd403a315f,,,,,,,,,,,,,,,,,,,,,,,,,,,,,,,,,,,,,,,,,,,,,,,,,,,,,,,,,,,,,,,,,,,,,,,,,,,,,,,,,,,,,,,,,,,,,,,,,,,,,,,,,,,,,,,,,,,,,,,,,,,,,,,,,,,,,,,,,,,,,,,,,,,,,,,,,,,,,,,,,,,
0,84,84,64,1,,60fd8eafe88dceaddd8dee71,62c53a0eb173bbfd2c792f50,2022-07-06_09h30.52.210,Colour_Asymmetry_Pilot,2022.1.3,Win32,60.05645307,62c50e9c1127f2cd403a315f,,,,,,,,,,,,,,,,,,,,,,,,,,,,,,,,,,,,,,,,,,,,,,,,,,,,,,,,,,,,,,,,,,,,,,,,,,,,,,,,,,,,,,,,,,,,,,,,,,,,,,,,,,,,,,,,,,,,,,,,,,,,,,,,,,,,,,,,,,,,,,,,,,,,,,,,,,,,,,,,,,,
0,85,85,33,1,,60fd8eafe88dceaddd8dee71,62c53a0eb173bbfd2c792f50,2022-07-06_09h30.52.210,Colour_Asymmetry_Pilot,2022.1.3,Win32,60.05645307,62c50e9c1127f2cd403a315f,,,,,,,,,,,,,,,,,,,,,,,,,,,,,,,,,,,,,,,,,,,,,,,,,,,,,,,,,,,,,,,,,,,,,,,,,,,,,,,,,,,,,,,,,,,,,,,,,,,,,,,,,,,,,,,,,,,,,,,,,,,,,,,,,,,,,,,,,,,,,,,,,,,,,,,,,,,,,,,,,,,
0,86,86,60,1,,60fd8eafe88dceaddd8dee71,62c53a0eb173bbfd2c792f50,2022-07-06_09h30.52.210,Colour_Asymmetry_Pilot,2022.1.3,Win32,60.05645307,62c50e9c1127f2cd403a315f,,,,,,,,,,,,,,,,,,,,,,,,,,,,,,,,,,,,,,,,,,,,,,,,,,,,,,,,,,,,,,,,,,,,,,,,,,,,,,,,,,,,,,,,,,,,,,,,,,,,,,,,,,,,,,,,,,,,,,,,,,,,,,,,,,,,,,,,,,,,,,,,,,,,,,,,,,,,,,,,,,,
0,87,87,85,1,,60fd8eafe88dceaddd8dee71,62c53a0eb173bbfd2c792f50,2022-07-06_09h30.52.210,Colour_Asymmetry_Pilot,2022.1.3,Win32,60.05645307,62c50e9c1127f2cd403a315f,,,,,,,,,,,,,,,,,,,,,,,,,,,,,,,,,,,,,,,,,,,,,,,,,,,,,,,,,,,,,,,,,,,,,,,,,,,,,,,,,,,,,,,,,,,,,,,,,,,,,,,,,,,,,,,,,,,,,,,,,,,,,,,,,,,,,,,,,,,,,,,,,,,,,,,,,,,,,,,,,,,
0,88,88,21,1,,60fd8eafe88dceaddd8dee71,62c53a0eb173bbfd2c792f50,2022-07-06_09h30.52.210,Colour_Asymmetry_Pilot,2022.1.3,Win32,60.05645307,62c50e9c1127f2cd403a315f,,,,,,,,,,,,,,,,,,,,,,,,,,,,,,,,,,,,,,,,,,,,,,,,,,,,,,,,,,,,,,,,,,,,,,,,,,,,,,,,,,,,,,,,,,,,,,,,,,,,,,,,,,,,,,,,,,,,,,,,,,,,,,,,,,,,,,,,,,,,,,,,,,,,,,,,,,,,,,,,,,,
0,89,89,34,1,,60fd8eafe88dceaddd8dee71,62c53a0eb173bbfd2c792f50,2022-07-06_09h30.52.210,Colour_Asymmetry_Pilot,2022.1.3,Win32,60.05645307,62c50e9c1127f2cd403a315f,,,,,,,,,,,,,,,,,,,,,,,,,,,,,,,,,,,,,,,,,,,,,,,,,,,,,,,,,,,,,,,,,,,,,,,,,,,,,,,,,,,,,,,,,,,,,,,,,,,,,,,,,,,,,,,,,,,,,,,,,,,,,,,,,,,,,,,,,,,,,,,,,,,,,,,,,,,,,,,,,,,
0,90,90,45,1,,60fd8eafe88dceaddd8dee71,62c53a0eb173bbfd2c792f50,2022-07-06_09h30.52.210,Colour_Asymmetry_Pilot,2022.1.3,Win32,60.05645307,62c50e9c1127f2cd403a315f,,,,,,,,,,,,,,,,,,,,,,,,,,,,,,,,,,,,,,,,,,,,,,,,,,,,,,,,,,,,,,,,,,,,,,,,,,,,,,,,,,,,,,,,,,,,,,,,,,,,,,,,,,,,,,,,,,,,,,,,,,,,,,,,,,,,,,,,,,,,,,,,,,,,,,,,,,,,,,,,,,,
0,91,91,32,1,,60fd8eafe88dceaddd8dee71,62c53a0eb173bbfd2c792f50,2022-07-06_09h30.52.210,Colour_Asymmetry_Pilot,2022.1.3,Win32,60.05645307,62c50e9c1127f2cd403a315f,,,,,,,,,,,,,,,,,,,,,,,,,,,,,,,,,,,,,,,,,,,,,,,,,,,,,,,,,,,,,,,,,,,,,,,,,,,,,,,,,,,,,,,,,,,,,,,,,,,,,,,,,,,,,,,,,,,,,,,,,,,,,,,,,,,,,,,,,,,,,,,,,,,,,,,,,,,,,,,,,,,
0,92,92,2,1,,60fd8eafe88dceaddd8dee71,62c53a0eb173bbfd2c792f50,2022-07-06_09h30.52.210,Colour_Asymmetry_Pilot,2022.1.3,Win32,60.05645307,62c50e9c1127f2cd403a315f,,,,,,,,,,,,,,,,,,,,,,,,,,,,,,,,,,,,,,,,,,,,,,,,,,,,,,,,,,,,,,,,,,,,,,,,,,,,,,,,,,,,,,,,,,,,,,,,,,,,,,,,,,,,,,,,,,,,,,,,,,,,,,,,,,,,,,,,,,,,,,,,,,,,,,,,,,,,,,,,,,,
,,,,,,60fd8eafe88dceaddd8dee71,62c53a0eb173bbfd2c792f50,2022-07-06_09h30.52.210,Colour_Asymmetry_Pilot,2022.1.3,Win32,60.05645307,62c50e9c1127f2cd403a315f,0,0,0,4,1,threeone,,,,,,,,,,,,,,,,,,,,,,,,,,,,,,,,,,,,,,,,,,,,,,,,,,,,,,,,,,,,,,,,,,,,,,,,,,,,,,,,,,,,,,,,,,,,,,,,,,,,,,,,,,,,,,,,,,,,,,,,,,,,,,,,,,,,,,,,,,,,,,,,,,,,,,,,,,,,,
,,,,,,60fd8eafe88dceaddd8dee71,62c53a0eb173bbfd2c792f50,2022-07-06_09h30.52.210,Colour_Asymmetry_Pilot,2022.1.3,Win32,60.05645307,62c50e9c1127f2cd403a315f,0,1,1,11,1,twofour,,,,,,,,,,,,,,,,,,,,,,,,,,,,,,,,,,,,,,,,,,,,,,,,,,,,,,,,,,,,,,,,,,,,,,,,,,,,,,,,,,,,,,,,,,,,,,,,,,,,,,,,,,,,,,,,,,,,,,,,,,,,,,,,,,,,,,,,,,,,,,,,,,,,,,,,,,,,,
,,,,,,60fd8eafe88dceaddd8dee71,62c53a0eb173bbfd2c792f50,2022-07-06_09h30.52.210,Colour_Asymmetry_Pilot,2022.1.3,Win32,60.05645307,62c50e9c1127f2cd403a315f,0,2,2,97,1,onethree,,,,,,,,,,,,,,,,,,,,,,,,,,,,,,,,,,,,,,,,,,,,,,,,,,,,,,,,,,,,,,,,,,,,,,,,,,,,,,,,,,,,,,,,,,,,,,,,,,,,,,,,,,,,,,,,,,,,,,,,,,,,,,,,,,,,,,,,,,,,,,,,,,,,,,,,,,,,,
,,,,,,60fd8eafe88dceaddd8dee71,62c53a0eb173bbfd2c792f50,2022-07-06_09h30.52.210,Colour_Asymmetry_Pilot,2022.1.3,Win32,60.05645307,62c50e9c1127f2cd403a315f,0,3,3,128,1,onetwo,,,,,,,,,,,,,,,,,,,,,,,,,,,,,,,,,,,,,,,,,,,,,,,,,,,,,,,,,,,,,,,,,,,,,,,,,,,,,,,,,,,,,,,,,,,,,,,,,,,,,,,,,,,,,,,,,,,,,,,,,,,,,,,,,,,,,,,,,,,,,,,,,,,,,,,,,,,,,
,,,,,,60fd8eafe88dceaddd8dee71,62c53a0eb173bbfd2c792f50,2022-07-06_09h30.52.210,Colour_Asymmetry_Pilot,2022.1.3,Win32,60.05645307,62c50e9c1127f2cd403a315f,0,4,4,88,1,onetwo,,,,,,,,,,,,,,,,,,,,,,,,,,,,,,,,,,,,,,,,,,,,,,,,,,,,,,,,,,,,,,,,,,,,,,,,,,,,,,,,,,,,,,,,,,,,,,,,,,,,,,,,,,,,,,,,,,,,,,,,,,,,,,,,,,,,,,,,,,,,,,,,,,,,,,,,,,,,,
,,,,,,60fd8eafe88dceaddd8dee71,62c53a0eb173bbfd2c792f50,2022-07-06_09h30.52.210,Colour_Asymmetry_Pilot,2022.1.3,Win32,60.05645307,62c50e9c1127f2cd403a315f,0,5,5,109,1,threefour,,,,,,,,,,,,,,,,,,,,,,,,,,,,,,,,,,,,,,,,,,,,,,,,,,,,,,,,,,,,,,,,,,,,,,,,,,,,,,,,,,,,,,,,,,,,,,,,,,,,,,,,,,,,,,,,,,,,,,,,,,,,,,,,,,,,,,,,,,,,,,,,,,,,,,,,,,,,,
,,,,,,60fd8eafe88dceaddd8dee71,62c53a0eb173bbfd2c792f50,2022-07-06_09h30.52.210,Colour_Asymmetry_Pilot,2022.1.3,Win32,60.05645307,62c50e9c1127f2cd403a315f,0,6,6,28,1,threeone,,,,,,,,,,,,,,,,,,,,,,,,,,,,,,,,,,,,,,,,,,,,,,,,,,,,,,,,,,,,,,,,,,,,,,,,,,,,,,,,,,,,,,,,,,,,,,,,,,,,,,,,,,,,,,,,,,,,,,,,,,,,,,,,,,,,,,,,,,,,,,,,,,,,,,,,,,,,,
,,,,,,60fd8eafe88dceaddd8dee71,62c53a0eb173bbfd2c792f50,2022-07-06_09h30.52.210,Colour_Asymmetry_Pilot,2022.1.3,Win32,60.05645307,62c50e9c1127f2cd403a315f,0,7,7,36,1,threeone,,,,,,,,,,,,,,,,,,,,,,,,,,,,,,,,,,,,,,,,,,,,,,,,,,,,,,,,,,,,,,,,,,,,,,,,,,,,,,,,,,,,,,,,,,,,,,,,,,,,,,,,,,,,,,,,,,,,,,,,,,,,,,,,,,,,,,,,,,,,,,,,,,,,,,,,,,,,,
,,,,,,60fd8eafe88dceaddd8dee71,62c53a0eb173bbfd2c792f50,2022-07-06_09h30.52.210,Colour_Asymmetry_Pilot,2022.1.3,Win32,60.05645307,62c50e9c1127f2cd403a315f,0,8,8,23,1,fourthree,,,,,,,,,,,,,,,,,,,,,,,,,,,,,,,,,,,,,,,,,,,,,,,,,,,,,,,,,,,,,,,,,,,,,,,,,,,,,,,,,,,,,,,,,,,,,,,,,,,,,,,,,,,,,,,,,,,,,,,,,,,,,,,,,,,,,,,,,,,,,,,,,,,,,,,,,,,,,
,,,,,,60fd8eafe88dceaddd8dee71,62c53a0eb173bbfd2c792f50,2022-07-06_09h30.52.210,Colour_Asymmetry_Pilot,2022.1.3,Win32,60.05645307,62c50e9c1127f2cd403a315f,0,9,9,151,1,fourthree,,,,,,,,,,,,,,,,,,,,,,,,,,,,,,,,,,,,,,,,,,,,,,,,,,,,,,,,,,,,,,,,,,,,,,,,,,,,,,,,,,,,,,,,,,,,,,,,,,,,,,,,,,,,,,,,,,,,,,,,,,,,,,,,,,,,,,,,,,,,,,,,,,,,,,,,,,,,,
,,,,,,60fd8eafe88dceaddd8dee71,62c53a0eb173bbfd2c792f50,2022-07-06_09h30.52.210,Colour_Asymmetry_Pilot,2022.1.3,Win32,60.05645307,62c50e9c1127f2cd403a315f,0,10,10,68,1,threeone,,,,,,,,,,,,,,,,,,,,,,,,,,,,,,,,,,,,,,,,,,,,,,,,,,,,,,,,,,,,,,,,,,,,,,,,,,,,,,,,,,,,,,,,,,,,,,,,,,,,,,,,,,,,,,,,,,,,,,,,,,,,,,,,,,,,,,,,,,,,,,,,,,,,,,,,,,,,,
,,,,,,60fd8eafe88dceaddd8dee71,62c53a0eb173bbfd2c792f50,2022-07-06_09h30.52.210,Colour_Asymmetry_Pilot,2022.1.3,Win32,60.05645307,62c50e9c1127f2cd403a315f,0,11,11,71,1,fourthree,,,,,,,,,,,,,,,,,,,,,,,,,,,,,,,,,,,,,,,,,,,,,,,,,,,,,,,,,,,,,,,,,,,,,,,,,,,,,,,,,,,,,,,,,,,,,,,,,,,,,,,,,,,,,,,,,,,,,,,,,,,,,,,,,,,,,,,,,,,,,,,,,,,,,,,,,,,,,
,,,,,,60fd8eafe88dceaddd8dee71,62c53a0eb173bbfd2c792f50,2022-07-06_09h30.52.210,Colour_Asymmetry_Pilot,2022.1.3,Win32,60.05645307,62c50e9c1127f2cd403a315f,0,12,12,154,1,twoone,,,,,,,,,,,,,,,,,,,,,,,,,,,,,,,,,,,,,,,,,,,,,,,,,,,,,,,,,,,,,,,,,,,,,,,,,,,,,,,,,,,,,,,,,,,,,,,,,,,,,,,,,,,,,,,,,,,,,,,,,,,,,,,,,,,,,,,,,,,,,,,,,,,,,,,,,,,,,
,,,,,,60fd8eafe88dceaddd8dee71,62c53a0eb173bbfd2c792f50,2022-07-06_09h30.52.210,Colour_Asymmetry_Pilot,2022.1.3,Win32,60.05645307,62c50e9c1127f2cd403a315f,0,13,13,103,1,fourthree,,,,,,,,,,,,,,,,,,,,,,,,,,,,,,,,,,,,,,,,,,,,,,,,,,,,,,,,,,,,,,,,,,,,,,,,,,,,,,,,,,,,,,,,,,,,,,,,,,,,,,,,,,,,,,,,,,,,,,,,,,,,,,,,,,,,,,,,,,,,,,,,,,,,,,,,,,,,,
,,,,,,60fd8eafe88dceaddd8dee71,62c53a0eb173bbfd2c792f50,2022-07-06_09h30.52.210,Colour_Asymmetry_Pilot,2022.1.3,Win32,60.05645307,62c50e9c1127f2cd403a315f,0,14,14,65,1,onethree,,,,,,,,,,,,,,,,,,,,,,,,,,,,,,,,,,,,,,,,,,,,,,,,,,,,,,,,,,,,,,,,,,,,,,,,,,,,,,,,,,,,,,,,,,,,,,,,,,,,,,,,,,,,,,,,,,,,,,,,,,,,,,,,,,,,,,,,,,,,,,,,,,,,,,,,,,,,,
,,,,,,60fd8eafe88dceaddd8dee71,62c53a0eb173bbfd2c792f50,2022-07-06_09h30.52.210,Colour_Asymmetry_Pilot,2022.1.3,Win32,60.05645307,62c50e9c1127f2cd403a315f,0,15,15,77,1,threefour,,,,,,,,,,,,,,,,,,,,,,,,,,,,,,,,,,,,,,,,,,,,,,,,,,,,,,,,,,,,,,,,,,,,,,,,,,,,,,,,,,,,,,,,,,,,,,,,,,,,,,,,,,,,,,,,,,,,,,,,,,,,,,,,,,,,,,,,,,,,,,,,,,,,,,,,,,,,,
,,,,,,60fd8eafe88dceaddd8dee71,62c53a0eb173bbfd2c792f50,2022-07-06_09h30.52.210,Colour_Asymmetry_Pilot,2022.1.3,Win32,60.05645307,62c50e9c1127f2cd403a315f,0,16,16,45,1,threefour,,,,,,,,,,,,,,,,,,,,,,,,,,,,,,,,,,,,,,,,,,,,,,,,,,,,,,,,,,,,,,,,,,,,,,,,,,,,,,,,,,,,,,,,,,,,,,,,,,,,,,,,,,,,,,,,,,,,,,,,,,,,,,,,,,,,,,,,,,,,,,,,,,,,,,,,,,,,,
,,,,,,60fd8eafe88dceaddd8dee71,62c53a0eb173bbfd2c792f50,2022-07-06_09h30.52.210,Colour_Asymmetry_Pilot,2022.1.3,Win32,60.05645307,62c50e9c1127f2cd403a315f,0,17,17,63,1,fourthree,,,,,,,,,,,,,,,,,,,,,,,,,,,,,,,,,,,,,,,,,,,,,,,,,,,,,,,,,,,,,,,,,,,,,,,,,,,,,,,,,,,,,,,,,,,,,,,,,,,,,,,,,,,,,,,,,,,,,,,,,,,,,,,,,,,,,,,,,,,,,,,,,,,,,,,,,,,,,
,,,,,,60fd8eafe88dceaddd8dee71,62c53a0eb173bbfd2c792f50,2022-07-06_09h30.52.210,Colour_Asymmetry_Pilot,2022.1.3,Win32,60.05645307,62c50e9c1127f2cd403a315f,0,18,18,149,1,threefour,,,,,,,,,,,,,,,,,,,,,,,,,,,,,,,,,,,,,,,,,,,,,,,,,,,,,,,,,,,,,,,,,,,,,,,,,,,,,,,,,,,,,,,,,,,,,,,,,,,,,,,,,,,,,,,,,,,,,,,,,,,,,,,,,,,,,,,,,,,,,,,,,,,,,,,,,,,,,
,,,,,,60fd8eafe88dceaddd8dee71,62c53a0eb173bbfd2c792f50,2022-07-06_09h30.52.210,Colour_Asymmetry_Pilot,2022.1.3,Win32,60.05645307,62c50e9c1127f2cd403a315f,0,19,19,133,1,threefour,,,,,,,,,,,,,,,,,,,,,,,,,,,,,,,,,,,,,,,,,,,,,,,,,,,,,,,,,,,,,,,,,,,,,,,,,,,,,,,,,,,,,,,,,,,,,,,,,,,,,,,,,,,,,,,,,,,,,,,,,,,,,,,,,,,,,,,,,,,,,,,,,,,,,,,,,,,,,
,,,,,,60fd8eafe88dceaddd8dee71,62c53a0eb173bbfd2c792f50,2022-07-06_09h30.52.210,Colour_Asymmetry_Pilot,2022.1.3,Win32,60.05645307,62c50e9c1127f2cd403a315f,0,20,20,120,1,onetwo,,,,,,,,,,,,,,,,,,,,,,,,,,,,,,,,,,,,,,,,,,,,,,,,,,,,,,,,,,,,,,,,,,,,,,,,,,,,,,,,,,,,,,,,,,,,,,,,,,,,,,,,,,,,,,,,,,,,,,,,,,,,,,,,,,,,,,,,,,,,,,,,,,,,,,,,,,,,,
,,,,,,60fd8eafe88dceaddd8dee71,62c53a0eb173bbfd2c792f50,2022-07-06_09h30.52.210,Colour_Asymmetry_Pilot,2022.1.3,Win32,60.05645307,62c50e9c1127f2cd403a315f,0,21,21,140,1,threeone,,,,,,,,,,,,,,,,,,,,,,,,,,,,,,,,,,,,,,,,,,,,,,,,,,,,,,,,,,,,,,,,,,,,,,,,,,,,,,,,,,,,,,,,,,,,,,,,,,,,,,,,,,,,,,,,,,,,,,,,,,,,,,,,,,,,,,,,,,,,,,,,,,,,,,,,,,,,,
,,,,,,60fd8eafe88dceaddd8dee71,62c53a0eb173bbfd2c792f50,2022-07-06_09h30.52.210,Colour_Asymmetry_Pilot,2022.1.3,Win32,60.05645307,62c50e9c1127f2cd403a315f,0,22,22,53,1,threefour,,,,,,,,,,,,,,,,,,,,,,,,,,,,,,,,,,,,,,,,,,,,,,,,,,,,,,,,,,,,,,,,,,,,,,,,,,,,,,,,,,,,,,,,,,,,,,,,,,,,,,,,,,,,,,,,,,,,,,,,,,,,,,,,,,,,,,,,,,,,,,,,,,,,,,,,,,,,,
,,,,,,60fd8eafe88dceaddd8dee71,62c53a0eb173bbfd2c792f50,2022-07-06_09h30.52.210,Colour_Asymmetry_Pilot,2022.1.3,Win32,60.05645307,62c50e9c1127f2cd403a315f,0,23,23,127,1,fourthree,,,,,,,,,,,,,,,,,,,,,,,,,,,,,,,,,,,,,,,,,,,,,,,,,,,,,,,,,,,,,,,,,,,,,,,,,,,,,,,,,,,,,,,,,,,,,,,,,,,,,,,,,,,,,,,,,,,,,,,,,,,,,,,,,,,,,,,,,,,,,,,,,,,,,,,,,,,,,
,,,,,,60fd8eafe88dceaddd8dee71,62c53a0eb173bbfd2c792f50,2022-07-06_09h30.52.210,Colour_Asymmetry_Pilot,2022.1.3,Win32,60.05645307,62c50e9c1127f2cd403a315f,0,24,24,32,1,onetwo,,,,,,,,,,,,,,,,,,,,,,,,,,,,,,,,,,,,,,,,,,,,,,,,,,,,,,,,,,,,,,,,,,,,,,,,,,,,,,,,,,,,,,,,,,,,,,,,,,,,,,,,,,,,,,,,,,,,,,,,,,,,,,,,,,,,,,,,,,,,,,,,,,,,,,,,,,,,,
,,,,,,60fd8eafe88dceaddd8dee71,62c53a0eb173bbfd2c792f50,2022-07-06_09h30.52.210,Colour_Asymmetry_Pilot,2022.1.3,Win32,60.05645307,62c50e9c1127f2cd403a315f,0,25,25,105,1,onethree,,,,,,,,,,,,,,,,,,,,,,,,,,,,,,,,,,,,,,,,,,,,,,,,,,,,,,,,,,,,,,,,,,,,,,,,,,,,,,,,,,,,,,,,,,,,,,,,,,,,,,,,,,,,,,,,,,,,,,,,,,,,,,,,,,,,,,,,,,,,,,,,,,,,,,,,,,,,,
,,,,,,60fd8eafe88dceaddd8dee71,62c53a0eb173bbfd2c792f50,2022-07-06_09h30.52.210,Colour_Asymmetry_Pilot,2022.1.3,Win32,60.05645307,62c50e9c1127f2cd403a315f,0,26,26,93,1,threefour,,,,,,,,,,,,,,,,,,,,,,,,,,,,,,,,,,,,,,,,,,,,,,,,,,,,,,,,,,,,,,,,,,,,,,,,,,,,,,,,,,,,,,,,,,,,,,,,,,,,,,,,,,,,,,,,,,,,,,,,,,,,,,,,,,,,,,,,,,,,,,,,,,,,,,,,,,,,,
,,,,,,60fd8eafe88dceaddd8dee71,62c53a0eb173bbfd2c792f50,2022-07-06_09h30.52.210,Colour_Asymmetry_Pilot,2022.1.3,Win32,60.05645307,62c50e9c1127f2cd403a315f,0,27,27,139,1,twofour,,,,,,,,,,,,,,,,,,,,,,,,,,,,,,,,,,,,,,,,,,,,,,,,,,,,,,,,,,,,,,,,,,,,,,,,,,,,,,,,,,,,,,,,,,,,,,,,,,,,,,,,,,,,,,,,,,,,,,,,,,,,,,,,,,,,,,,,,,,,,,,,,,,,,,,,,,,,,
,,,,,,60fd8eafe88dceaddd8dee71,62c53a0eb173bbfd2c792f50,2022-07-06_09h30.52.210,Colour_Asymmetry_Pilot,2022.1.3,Win32,60.05645307,62c50e9c1127f2cd403a315f,0,28,28,132,1,threeone,,,,,,,,,,,,,,,,,,,,,,,,,,,,,,,,,,,,,,,,,,,,,,,,,,,,,,,,,,,,,,,,,,,,,,,,,,,,,,,,,,,,,,,,,,,,,,,,,,,,,,,,,,,,,,,,,,,,,,,,,,,,,,,,,,,,,,,,,,,,,,,,,,,,,,,,,,,,,
,,,,,,60fd8eafe88dceaddd8dee71,62c53a0eb173bbfd2c792f50,2022-07-06_09h30.52.210,Colour_Asymmetry_Pilot,2022.1.3,Win32,60.05645307,62c50e9c1127f2cd403a315f,0,29,29,3,1,twofour,,,,,,,,,,,,,,,,,,,,,,,,,,,,,,,,,,,,,,,,,,,,,,,,,,,,,,,,,,,,,,,,,,,,,,,,,,,,,,,,,,,,,,,,,,,,,,,,,,,,,,,,,,,,,,,,,,,,,,,,,,,,,,,,,,,,,,,,,,,,,,,,,,,,,,,,,,,,,
,,,,,,60fd8eafe88dceaddd8dee71,62c53a0eb173bbfd2c792f50,2022-07-06_09h30.52.210,Colour_Asymmetry_Pilot,2022.1.3,Win32,60.05645307,62c50e9c1127f2cd403a315f,0,30,30,6,1,fourtwo,,,,,,,,,,,,,,,,,,,,,,,,,,,,,,,,,,,,,,,,,,,,,,,,,,,,,,,,,,,,,,,,,,,,,,,,,,,,,,,,,,,,,,,,,,,,,,,,,,,,,,,,,,,,,,,,,,,,,,,,,,,,,,,,,,,,,,,,,,,,,,,,,,,,,,,,,,,,,
,,,,,,60fd8eafe88dceaddd8dee71,62c53a0eb173bbfd2c792f50,2022-07-06_09h30.52.210,Colour_Asymmetry_Pilot,2022.1.3,Win32,60.05645307,62c50e9c1127f2cd403a315f,0,31,31,95,1,fourthree,,,,,,,,,,,,,,,,,,,,,,,,,,,,,,,,,,,,,,,,,,,,,,,,,,,,,,,,,,,,,,,,,,,,,,,,,,,,,,,,,,,,,,,,,,,,,,,,,,,,,,,,,,,,,,,,,,,,,,,,,,,,,,,,,,,,,,,,,,,,,,,,,,,,,,,,,,,,,
,,,,,,60fd8eafe88dceaddd8dee71,62c53a0eb173bbfd2c792f50,2022-07-06_09h30.52.210,Colour_Asymmetry_Pilot,2022.1.3,Win32,60.05645307,62c50e9c1127f2cd403a315f,0,32,32,141,1,threefour,,,,,,,,,,,,,,,,,,,,,,,,,,,,,,,,,,,,,,,,,,,,,,,,,,,,,,,,,,,,,,,,,,,,,,,,,,,,,,,,,,,,,,,,,,,,,,,,,,,,,,,,,,,,,,,,,,,,,,,,,,,,,,,,,,,,,,,,,,,,,,,,,,,,,,,,,,,,,
,,,,,,60fd8eafe88dceaddd8dee71,62c53a0eb173bbfd2c792f50,2022-07-06_09h30.52.210,Colour_Asymmetry_Pilot,2022.1.3,Win32,60.05645307,62c50e9c1127f2cd403a315f,0,33,33,22,1,fourtwo,,,,,,,,,,,,,,,,,,,,,,,,,,,,,,,,,,,,,,,,,,,,,,,,,,,,,,,,,,,,,,,,,,,,,,,,,,,,,,,,,,,,,,,,,,,,,,,,,,,,,,,,,,,,,,,,,,,,,,,,,,,,,,,,,,,,,,,,,,,,,,,,,,,,,,,,,,,,,
,,,,,,60fd8eafe88dceaddd8dee71,62c53a0eb173bbfd2c792f50,2022-07-06_09h30.52.210,Colour_Asymmetry_Pilot,2022.1.3,Win32,60.05645307,62c50e9c1127f2cd403a315f,0,34,34,55,1,fourthree,,,,,,,,,,,,,,,,,,,,,,,,,,,,,,,,,,,,,,,,,,,,,,,,,,,,,,,,,,,,,,,,,,,,,,,,,,,,,,,,,,,,,,,,,,,,,,,,,,,,,,,,,,,,,,,,,,,,,,,,,,,,,,,,,,,,,,,,,,,,,,,,,,,,,,,,,,,,,
,,,,,,60fd8eafe88dceaddd8dee71,62c53a0eb173bbfd2c792f50,2022-07-06_09h30.52.210,Colour_Asymmetry_Pilot,2022.1.3,Win32,60.05645307,62c50e9c1127f2cd403a315f,0,35,35,150,1,fourtwo,,,,,,,,,,,,,,,,,,,,,,,,,,,,,,,,,,,,,,,,,,,,,,,,,,,,,,,,,,,,,,,,,,,,,,,,,,,,,,,,,,,,,,,,,,,,,,,,,,,,,,,,,,,,,,,,,,,,,,,,,,,,,,,,,,,,,,,,,,,,,,,,,,,,,,,,,,,,,
,,,,,,60fd8eafe88dceaddd8dee71,62c53a0eb173bbfd2c792f50,2022-07-06_09h30.52.210,Colour_Asymmetry_Pilot,2022.1.3,Win32,60.05645307,62c50e9c1127f2cd403a315f,0,36,36,114,1,twoone,,,,,,,,,,,,,,,,,,,,,,,,,,,,,,,,,,,,,,,,,,,,,,,,,,,,,,,,,,,,,,,,,,,,,,,,,,,,,,,,,,,,,,,,,,,,,,,,,,,,,,,,,,,,,,,,,,,,,,,,,,,,,,,,,,,,,,,,,,,,,,,,,,,,,,,,,,,,,
,,,,,,60fd8eafe88dceaddd8dee71,62c53a0eb173bbfd2c792f50,2022-07-06_09h30.52.210,Colour_Asymmetry_Pilot,2022.1.3,Win32,60.05645307,62c50e9c1127f2cd403a315f,0,37,37,129,1,onethree,,,,,,,,,,,,,,,,,,,,,,,,,,,,,,,,,,,,,,,,,,,,,,,,,,,,,,,,,,,,,,,,,,,,,,,,,,,,,,,,,,,,,,,,,,,,,,,,,,,,,,,,,,,,,,,,,,,,,,,,,,,,,,,,,,,,,,,,,,,,,,,,,,,,,,,,,,,,,
,,,,,,60fd8eafe88dceaddd8dee71,62c53a0eb173bbfd2c792f50,2022-07-06_09h30.52.210,Colour_Asymmetry_Pilot,2022.1.3,Win32,60.05645307,62c50e9c1127f2cd403a315f,0,38,38,2,1,twoone,,,,,,,,,,,,,,,,,,,,,,,,,,,,,,,,,,,,,,,,,,,,,,,,,,,,,,,,,,,,,,,,,,,,,,,,,,,,,,,,,,,,,,,,,,,,,,,,,,,,,,,,,,,,,,,,,,,,,,,,,,,,,,,,,,,,,,,,,,,,,,,,,,,,,,,,,,,,,
,,,,,,60fd8eafe88dceaddd8dee71,62c53a0eb173bbfd2c792f50,2022-07-06_09h30.52.210,Colour_Asymmetry_Pilot,2022.1.3,Win32,60.05645307,62c50e9c1127f2cd403a315f,0,39,39,60,1,threeone,,,,,,,,,,,,,,,,,,,,,,,,,,,,,,,,,,,,,,,,,,,,,,,,,,,,,,,,,,,,,,,,,,,,,,,,,,,,,,,,,,,,,,,,,,,,,,,,,,,,,,,,,,,,,,,,,,,,,,,,,,,,,,,,,,,,,,,,,,,,,,,,,,,,,,,,,,,,,
,,,,,,60fd8eafe88dceaddd8dee71,62c53a0eb173bbfd2c792f50,2022-07-06_09h30.52.210,Colour_Asymmetry_Pilot,2022.1.3,Win32,60.05645307,62c50e9c1127f2cd403a315f,0,40,40,101,1,threefour,,,,,,,,,,,,,,,,,,,,,,,,,,,,,,,,,,,,,,,,,,,,,,,,,,,,,,,,,,,,,,,,,,,,,,,,,,,,,,,,,,,,,,,,,,,,,,,,,,,,,,,,,,,,,,,,,,,,,,,,,,,,,,,,,,,,,,,,,,,,,,,,,,,,,,,,,,,,,
,,,,,,60fd8eafe88dceaddd8dee71,62c53a0eb173bbfd2c792f50,2022-07-06_09h30.52.210,Colour_Asymmetry_Pilot,2022.1.3,Win32,60.05645307,62c50e9c1127f2cd403a315f,0,41,41,70,1,fourtwo,,,,,,,,,,,,,,,,,,,,,,,,,,,,,,,,,,,,,,,,,,,,,,,,,,,,,,,,,,,,,,,,,,,,,,,,,,,,,,,,,,,,,,,,,,,,,,,,,,,,,,,,,,,,,,,,,,,,,,,,,,,,,,,,,,,,,,,,,,,,,,,,,,,,,,,,,,,,,
,,,,,,60fd8eafe88dceaddd8dee71,62c53a0eb173bbfd2c792f50,2022-07-06_09h30.52.210,Colour_Asymmetry_Pilot,2022.1.3,Win32,60.05645307,62c50e9c1127f2cd403a315f,0,42,42,80,1,onetwo,,,,,,,,,,,,,,,,,,,,,,,,,,,,,,,,,,,,,,,,,,,,,,,,,,,,,,,,,,,,,,,,,,,,,,,,,,,,,,,,,,,,,,,,,,,,,,,,,,,,,,,,,,,,,,,,,,,,,,,,,,,,,,,,,,,,,,,,,,,,,,,,,,,,,,,,,,,,,
,,,,,,60fd8eafe88dceaddd8dee71,62c53a0eb173bbfd2c792f50,2022-07-06_09h30.52.210,Colour_Asymmetry_Pilot,2022.1.3,Win32,60.05645307,62c50e9c1127f2cd403a315f,0,43,43,74,1,twoone,,,,,,,,,,,,,,,,,,,,,,,,,,,,,,,,,,,,,,,,,,,,,,,,,,,,,,,,,,,,,,,,,,,,,,,,,,,,,,,,,,,,,,,,,,,,,,,,,,,,,,,,,,,,,,,,,,,,,,,,,,,,,,,,,,,,,,,,,,,,,,,,,,,,,,,,,,,,,
,,,,,,60fd8eafe88dceaddd8dee71,62c53a0eb173bbfd2c792f50,2022-07-06_09h30.52.210,Colour_Asymmetry_Pilot,2022.1.3,Win32,60.05645307,62c50e9c1127f2cd403a315f,0,44,44,91,1,twofour,,,,,,,,,,,,,,,,,,,,,,,,,,,,,,,,,,,,,,,,,,,,,,,,,,,,,,,,,,,,,,,,,,,,,,,,,,,,,,,,,,,,,,,,,,,,,,,,,,,,,,,,,,,,,,,,,,,,,,,,,,,,,,,,,,,,,,,,,,,,,,,,,,,,,,,,,,,,,
,,,,,,60fd8eafe88dceaddd8dee71,62c53a0eb173bbfd2c792f50,2022-07-06_09h30.52.210,Colour_Asymmetry_Pilot,2022.1.3,Win32,60.05645307,62c50e9c1127f2cd403a315f,0,45,45,115,1,twofour,,,,,,,,,,,,,,,,,,,,,,,,,,,,,,,,,,,,,,,,,,,,,,,,,,,,,,,,,,,,,,,,,,,,,,,,,,,,,,,,,,,,,,,,,,,,,,,,,,,,,,,,,,,,,,,,,,,,,,,,,,,,,,,,,,,,,,,,,,,,,,,,,,,,,,,,,,,,,
,,,,,,60fd8eafe88dceaddd8dee71,62c53a0eb173bbfd2c792f50,2022-07-06_09h30.52.210,Colour_Asymmetry_Pilot,2022.1.3,Win32,60.05645307,62c50e9c1127f2cd403a315f,0,46,46,108,1,threeone,,,,,,,,,,,,,,,,,,,,,,,,,,,,,,,,,,,,,,,,,,,,,,,,,,,,,,,,,,,,,,,,,,,,,,,,,,,,,,,,,,,,,,,,,,,,,,,,,,,,,,,,,,,,,,,,,,,,,,,,,,,,,,,,,,,,,,,,,,,,,,,,,,,,,,,,,,,,,
,,,,,,60fd8eafe88dceaddd8dee71,62c53a0eb173bbfd2c792f50,2022-07-06_09h30.52.210,Colour_Asymmetry_Pilot,2022.1.3,Win32,60.05645307,62c50e9c1127f2cd403a315f,0,47,47,78,1,fourtwo,,,,,,,,,,,,,,,,,,,,,,,,,,,,,,,,,,,,,,,,,,,,,,,,,,,,,,,,,,,,,,,,,,,,,,,,,,,,,,,,,,,,,,,,,,,,,,,,,,,,,,,,,,,,,,,,,,,,,,,,,,,,,,,,,,,,,,,,,,,,,,,,,,,,,,,,,,,,,
,,,,,,60fd8eafe88dceaddd8dee71,62c53a0eb173bbfd2c792f50,2022-07-06_09h30.52.210,Colour_Asymmetry_Pilot,2022.1.3,Win32,60.05645307,62c50e9c1127f2cd403a315f,0,48,48,18,1,twoone,,,,,,,,,,,,,,,,,,,,,,,,,,,,,,,,,,,,,,,,,,,,,,,,,,,,,,,,,,,,,,,,,,,,,,,,,,,,,,,,,,,,,,,,,,,,,,,,,,,,,,,,,,,,,,,,,,,,,,,,,,,,,,,,,,,,,,,,,,,,,,,,,,,,,,,,,,,,,
,,,,,,60fd8eafe88dceaddd8dee71,62c53a0eb173bbfd2c792f50,2022-07-06_09h30.52.210,Colour_Asymmetry_Pilot,2022.1.3,Win32,60.05645307,62c50e9c1127f2cd403a315f,0,49,49,62,1,fourtwo,,,,,,,,,,,,,,,,,,,,,,,,,,,,,,,,,,,,,,,,,,,,,,,,,,,,,,,,,,,,,,,,,,,,,,,,,,,,,,,,,,,,,,,,,,,,,,,,,,,,,,,,,,,,,,,,,,,,,,,,,,,,,,,,,,,,,,,,,,,,,,,,,,,,,,,,,,,,,
,,,,,,60fd8eafe88dceaddd8dee71,62c53a0eb173bbfd2c792f50,2022-07-06_09h30.52.210,Colour_Asymmetry_Pilot,2022.1.3,Win32,60.05645307,62c50e9c1127f2cd403a315f,0,50,50,84,1,threeone,,,,,,,,,,,,,,,,,,,,,,,,,,,,,,,,,,,,,,,,,,,,,,,,,,,,,,,,,,,,,,,,,,,,,,,,,,,,,,,,,,,,,,,,,,,,,,,,,,,,,,,,,,,,,,,,,,,,,,,,,,,,,,,,,,,,,,,,,,,,,,,,,,,,,,,,,,,,,
,,,,,,60fd8eafe88dceaddd8dee71,62c53a0eb173bbfd2c792f50,2022-07-06_09h30.52.210,Colour_Asymmetry_Pilot,2022.1.3,Win32,60.05645307,62c50e9c1127f2cd403a315f,0,51,51,33,1,onethree,,,,,,,,,,,,,,,,,,,,,,,,,,,,,,,,,,,,,,,,,,,,,,,,,,,,,,,,,,,,,,,,,,,,,,,,,,,,,,,,,,,,,,,,,,,,,,,,,,,,,,,,,,,,,,,,,,,,,,,,,,,,,,,,,,,,,,,,,,,,,,,,,,,,,,,,,,,,,
,,,,,,60fd8eafe88dceaddd8dee71,62c53a0eb173bbfd2c792f50,2022-07-06_09h30.52.210,Colour_Asymmetry_Pilot,2022.1.3,Win32,60.05645307,62c50e9c1127f2cd403a315f,0,52,52,13,1,threefour,,,,,,,,,,,,,,,,,,,,,,,,,,,,,,,,,,,,,,,,,,,,,,,,,,,,,,,,,,,,,,,,,,,,,,,,,,,,,,,,,,,,,,,,,,,,,,,,,,,,,,,,,,,,,,,,,,,,,,,,,,,,,,,,,,,,,,,,,,,,,,,,,,,,,,,,,,,,,
,,,,,,60fd8eafe88dceaddd8dee71,62c53a0eb173bbfd2c792f50,2022-07-06_09h30.52.210,Colour_Asymmetry_Pilot,2022.1.3,Win32,60.05645307,62c50e9c1127f2cd403a315f,0,53,53,81,1,onethree,,,,,,,,,,,,,,,,,,,,,,,,,,,,,,,,,,,,,,,,,,,,,,,,,,,,,,,,,,,,,,,,,,,,,,,,,,,,,,,,,,,,,,,,,,,,,,,,,,,,,,,,,,,,,,,,,,,,,,,,,,,,,,,,,,,,,,,,,,,,,,,,,,,,,,,,,,,,,
,,,,,,60fd8eafe88dceaddd8dee71,62c53a0eb173bbfd2c792f50,2022-07-06_09h30.52.210,Colour_Asymmetry_Pilot,2022.1.3,Win32,60.05645307,62c50e9c1127f2cd403a315f,0,54,54,82,1,twoone,,,,,,,,,,,,,,,,,,,,,,,,,,,,,,,,,,,,,,,,,,,,,,,,,,,,,,,,,,,,,,,,,,,,,,,,,,,,,,,,,,,,,,,,,,,,,,,,,,,,,,,,,,,,,,,,,,,,,,,,,,,,,,,,,,,,,,,,,,,,,,,,,,,,,,,,,,,,,
,,,,,,60fd8eafe88dceaddd8dee71,62c53a0eb173bbfd2c792f50,2022-07-06_09h30.52.210,Colour_Asymmetry_Pilot,2022.1.3,Win32,60.05645307,62c50e9c1127f2cd403a315f,0,55,55,145,1,onethree,,,,,,,,,,,,,,,,,,,,,,,,,,,,,,,,,,,,,,,,,,,,,,,,,,,,,,,,,,,,,,,,,,,,,,,,,,,,,,,,,,,,,,,,,,,,,,,,,,,,,,,,,,,,,,,,,,,,,,,,,,,,,,,,,,,,,,,,,,,,,,,,,,,,,,,,,,,,,
,,,,,,60fd8eafe88dceaddd8dee71,62c53a0eb173bbfd2c792f50,2022-07-06_09h30.52.210,Colour_Asymmetry_Pilot,2022.1.3,Win32,60.05645307,62c50e9c1127f2cd403a315f,0,56,56,75,1,twofour,,,,,,,,,,,,,,,,,,,,,,,,,,,,,,,,,,,,,,,,,,,,,,,,,,,,,,,,,,,,,,,,,,,,,,,,,,,,,,,,,,,,,,,,,,,,,,,,,,,,,,,,,,,,,,,,,,,,,,,,,,,,,,,,,,,,,,,,,,,,,,,,,,,,,,,,,,,,,
,,,,,,60fd8eafe88dceaddd8dee71,62c53a0eb173bbfd2c792f50,2022-07-06_09h30.52.210,Colour_Asymmetry_Pilot,2022.1.3,Win32,60.05645307,62c50e9c1127f2cd403a315f,0,57,57,118,1,fourtwo,,,,,,,,,,,,,,,,,,,,,,,,,,,,,,,,,,,,,,,,,,,,,,,,,,,,,,,,,,,,,,,,,,,,,,,,,,,,,,,,,,,,,,,,,,,,,,,,,,,,,,,,,,,,,,,,,,,,,,,,,,,,,,,,,,,,,,,,,,,,,,,,,,,,,,,,,,,,,
,,,,,,60fd8eafe88dceaddd8dee71,62c53a0eb173bbfd2c792f50,2022-07-06_09h30.52.210,Colour_Asymmetry_Pilot,2022.1.3,Win32,60.05645307,62c50e9c1127f2cd403a315f,0,58,58,90,1,twoone,,,,,,,,,,,,,,,,,,,,,,,,,,,,,,,,,,,,,,,,,,,,,,,,,,,,,,,,,,,,,,,,,,,,,,,,,,,,,,,,,,,,,,,,,,,,,,,,,,,,,,,,,,,,,,,,,,,,,,,,,,,,,,,,,,,,,,,,,,,,,,,,,,,,,,,,,,,,,
,,,,,,60fd8eafe88dceaddd8dee71,62c53a0eb173bbfd2c792f50,2022-07-06_09h30.52.210,Colour_Asymmetry_Pilot,2022.1.3,Win32,60.05645307,62c50e9c1127f2cd403a315f,0,59,59,92,1,threeone,,,,,,,,,,,,,,,,,,,,,,,,,,,,,,,,,,,,,,,,,,,,,,,,,,,,,,,,,,,,,,,,,,,,,,,,,,,,,,,,,,,,,,,,,,,,,,,,,,,,,,,,,,,,,,,,,,,,,,,,,,,,,,,,,,,,,,,,,,,,,,,,,,,,,,,,,,,,,
,,,,,,60fd8eafe88dceaddd8dee71,62c53a0eb173bbfd2c792f50,2022-07-06_09h30.52.210,Colour_Asymmetry_Pilot,2022.1.3,Win32,60.05645307,62c50e9c1127f2cd403a315f,0,60,60,39,1,fourthree,,,,,,,,,,,,,,,,,,,,,,,,,,,,,,,,,,,,,,,,,,,,,,,,,,,,,,,,,,,,,,,,,,,,,,,,,,,,,,,,,,,,,,,,,,,,,,,,,,,,,,,,,,,,,,,,,,,,,,,,,,,,,,,,,,,,,,,,,,,,,,,,,,,,,,,,,,,,,
,,,,,,60fd8eafe88dceaddd8dee71,62c53a0eb173bbfd2c792f50,2022-07-06_09h30.52.210,Colour_Asymmetry_Pilot,2022.1.3,Win32,60.05645307,62c50e9c1127f2cd403a315f,0,61,61,16,1,onetwo,,,,,,,,,,,,,,,,,,,,,,,,,,,,,,,,,,,,,,,,,,,,,,,,,,,,,,,,,,,,,,,,,,,,,,,,,,,,,,,,,,,,,,,,,,,,,,,,,,,,,,,,,,,,,,,,,,,,,,,,,,,,,,,,,,,,,,,,,,,,,,,,,,,,,,,,,,,,,
,,,,,,60fd8eafe88dceaddd8dee71,62c53a0eb173bbfd2c792f50,2022-07-06_09h30.52.210,Colour_Asymmetry_Pilot,2022.1.3,Win32,60.05645307,62c50e9c1127f2cd403a315f,0,62,62,30,1,fourtwo,,,,,,,,,,,,,,,,,,,,,,,,,,,,,,,,,,,,,,,,,,,,,,,,,,,,,,,,,,,,,,,,,,,,,,,,,,,,,,,,,,,,,,,,,,,,,,,,,,,,,,,,,,,,,,,,,,,,,,,,,,,,,,,,,,,,,,,,,,,,,,,,,,,,,,,,,,,,,
,,,,,,60fd8eafe88dceaddd8dee71,62c53a0eb173bbfd2c792f50,2022-07-06_09h30.52.210,Colour_Asymmetry_Pilot,2022.1.3,Win32,60.05645307,62c50e9c1127f2cd403a315f,0,63,63,12,1,threeone,,,,,,,,,,,,,,,,,,,,,,,,,,,,,,,,,,,,,,,,,,,,,,,,,,,,,,,,,,,,,,,,,,,,,,,,,,,,,,,,,,,,,,,,,,,,,,,,,,,,,,,,,,,,,,,,,,,,,,,,,,,,,,,,,,,,,,,,,,,,,,,,,,,,,,,,,,,,,
,,,,,,60fd8eafe88dceaddd8dee71,62c53a0eb173bbfd2c792f50,2022-07-06_09h30.52.210,Colour_Asymmetry_Pilot,2022.1.3,Win32,60.05645307,62c50e9c1127f2cd403a315f,0,64,64,20,1,threeone,,,,,,,,,,,,,,,,,,,,,,,,,,,,,,,,,,,,,,,,,,,,,,,,,,,,,,,,,,,,,,,,,,,,,,,,,,,,,,,,,,,,,,,,,,,,,,,,,,,,,,,,,,,,,,,,,,,,,,,,,,,,,,,,,,,,,,,,,,,,,,,,,,,,,,,,,,,,,
,,,,,,60fd8eafe88dceaddd8dee71,62c53a0eb173bbfd2c792f50,2022-07-06_09h30.52.210,Colour_Asymmetry_Pilot,2022.1.3,Win32,60.05645307,62c50e9c1127f2cd403a315f,0,65,65,134,1,fourtwo,,,,,,,,,,,,,,,,,,,,,,,,,,,,,,,,,,,,,,,,,,,,,,,,,,,,,,,,,,,,,,,,,,,,,,,,,,,,,,,,,,,,,,,,,,,,,,,,,,,,,,,,,,,,,,,,,,,,,,,,,,,,,,,,,,,,,,,,,,,,,,,,,,,,,,,,,,,,,
,,,,,,60fd8eafe88dceaddd8dee71,62c53a0eb173bbfd2c792f50,2022-07-06_09h30.52.210,Colour_Asymmetry_Pilot,2022.1.3,Win32,60.05645307,62c50e9c1127f2cd403a315f,0,66,66,76,1,threeone,,,,,,,,,,,,,,,,,,,,,,,,,,,,,,,,,,,,,,,,,,,,,,,,,,,,,,,,,,,,,,,,,,,,,,,,,,,,,,,,,,,,,,,,,,,,,,,,,,,,,,,,,,,,,,,,,,,,,,,,,,,,,,,,,,,,,,,,,,,,,,,,,,,,,,,,,,,,,
,,,,,,60fd8eafe88dceaddd8dee71,62c53a0eb173bbfd2c792f50,2022-07-06_09h30.52.210,Colour_Asymmetry_Pilot,2022.1.3,Win32,60.05645307,62c50e9c1127f2cd403a315f,0,67,67,35,1,twofour,,,,,,,,,,,,,,,,,,,,,,,,,,,,,,,,,,,,,,,,,,,,,,,,,,,,,,,,,,,,,,,,,,,,,,,,,,,,,,,,,,,,,,,,,,,,,,,,,,,,,,,,,,,,,,,,,,,,,,,,,,,,,,,,,,,,,,,,,,,,,,,,,,,,,,,,,,,,,
,,,,,,60fd8eafe88dceaddd8dee71,62c53a0eb173bbfd2c792f50,2022-07-06_09h30.52.210,Colour_Asymmetry_Pilot,2022.1.3,Win32,60.05645307,62c50e9c1127f2cd403a315f,0,68,68,94,1,fourtwo,,,,,,,,,,,,,,,,,,,,,,,,,,,,,,,,,,,,,,,,,,,,,,,,,,,,,,,,,,,,,,,,,,,,,,,,,,,,,,,,,,,,,,,,,,,,,,,,,,,,,,,,,,,,,,,,,,,,,,,,,,,,,,,,,,,,,,,,,,,,,,,,,,,,,,,,,,,,,
,,,,,,60fd8eafe88dceaddd8dee71,62c53a0eb173bbfd2c792f50,2022-07-06_09h30.52.210,Colour_Asymmetry_Pilot,2022.1.3,Win32,60.05645307,62c50e9c1127f2cd403a315f,0,69,69,157,1,threefour,,,,,,,,,,,,,,,,,,,,,,,,,,,,,,,,,,,,,,,,,,,,,,,,,,,,,,,,,,,,,,,,,,,,,,,,,,,,,,,,,,,,,,,,,,,,,,,,,,,,,,,,,,,,,,,,,,,,,,,,,,,,,,,,,,,,,,,,,,,,,,,,,,,,,,,,,,,,,
,,,,,,60fd8eafe88dceaddd8dee71,62c53a0eb173bbfd2c792f50,2022-07-06_09h30.52.210,Colour_Asymmetry_Pilot,2022.1.3,Win32,60.05645307,62c50e9c1127f2cd403a315f,0,70,70,119,1,fourthree,,,,,,,,,,,,,,,,,,,,,,,,,,,,,,,,,,,,,,,,,,,,,,,,,,,,,,,,,,,,,,,,,,,,,,,,,,,,,,,,,,,,,,,,,,,,,,,,,,,,,,,,,,,,,,,,,,,,,,,,,,,,,,,,,,,,,,,,,,,,,,,,,,,,,,,,,,,,,
,,,,,,60fd8eafe88dceaddd8dee71,62c53a0eb173bbfd2c792f50,2022-07-06_09h30.52.210,Colour_Asymmetry_Pilot,2022.1.3,Win32,60.05645307,62c50e9c1127f2cd403a315f,0,71,71,104,1,onetwo,,,,,,,,,,,,,,,,,,,,,,,,,,,,,,,,,,,,,,,,,,,,,,,,,,,,,,,,,,,,,,,,,,,,,,,,,,,,,,,,,,,,,,,,,,,,,,,,,,,,,,,,,,,,,,,,,,,,,,,,,,,,,,,,,,,,,,,,,,,,,,,,,,,,,,,,,,,,,
,,,,,,60fd8eafe88dceaddd8dee71,62c53a0eb173bbfd2c792f50,2022-07-06_09h30.52.210,Colour_Asymmetry_Pilot,2022.1.3,Win32,60.05645307,62c50e9c1127f2cd403a315f,0,72,72,113,1,onethree,,,,,,,,,,,,,,,,,,,,,,,,,,,,,,,,,,,,,,,,,,,,,,,,,,,,,,,,,,,,,,,,,,,,,,,,,,,,,,,,,,,,,,,,,,,,,,,,,,,,,,,,,,,,,,,,,,,,,,,,,,,,,,,,,,,,,,,,,,,,,,,,,,,,,,,,,,,,,
,,,,,,60fd8eafe88dceaddd8dee71,62c53a0eb173bbfd2c792f50,2022-07-06_09h30.52.210,Colour_Asymmetry_Pilot,2022.1.3,Win32,60.05645307,62c50e9c1127f2cd403a315f,0,73,73,122,1,twoone,,,,,,,,,,,,,,,,,,,,,,,,,,,,,,,,,,,,,,,,,,,,,,,,,,,,,,,,,,,,,,,,,,,,,,,,,,,,,,,,,,,,,,,,,,,,,,,,,,,,,,,,,,,,,,,,,,,,,,,,,,,,,,,,,,,,,,,,,,,,,,,,,,,,,,,,,,,,,
,,,,,,60fd8eafe88dceaddd8dee71,62c53a0eb173bbfd2c792f50,2022-07-06_09h30.52.210,Colour_Asymmetry_Pilot,2022.1.3,Win32,60.05645307,62c50e9c1127f2cd403a315f,0,74,74,160,1,onetwo,,,,,,,,,,,,,,,,,,,,,,,,,,,,,,,,,,,,,,,,,,,,,,,,,,,,,,,,,,,,,,,,,,,,,,,,,,,,,,,,,,,,,,,,,,,,,,,,,,,,,,,,,,,,,,,,,,,,,,,,,,,,,,,,,,,,,,,,,,,,,,,,,,,,,,,,,,,,,
,,,,,,60fd8eafe88dceaddd8dee71,62c53a0eb173bbfd2c792f50,2022-07-06_09h30.52.210,Colour_Asymmetry_Pilot,2022.1.3,Win32,60.05645307,62c50e9c1127f2cd403a315f,0,75,75,41,1,onethree,,,,,,,,,,,,,,,,,,,,,,,,,,,,,,,,,,,,,,,,,,,,,,,,,,,,,,,,,,,,,,,,,,,,,,,,,,,,,,,,,,,,,,,,,,,,,,,,,,,,,,,,,,,,,,,,,,,,,,,,,,,,,,,,,,,,,,,,,,,,,,,,,,,,,,,,,,,,,
,,,,,,60fd8eafe88dceaddd8dee71,62c53a0eb173bbfd2c792f50,2022-07-06_09h30.52.210,Colour_Asymmetry_Pilot,2022.1.3,Win32,60.05645307,62c50e9c1127f2cd403a315f,0,76,76,123,1,twofour,,,,,,,,,,,,,,,,,,,,,,,,,,,,,,,,,,,,,,,,,,,,,,,,,,,,,,,,,,,,,,,,,,,,,,,,,,,,,,,,,,,,,,,,,,,,,,,,,,,,,,,,,,,,,,,,,,,,,,,,,,,,,,,,,,,,,,,,,,,,,,,,,,,,,,,,,,,,,
,,,,,,60fd8eafe88dceaddd8dee71,62c53a0eb173bbfd2c792f50,2022-07-06_09h30.52.210,Colour_Asymmetry_Pilot,2022.1.3,Win32,60.05645307,62c50e9c1127f2cd403a315f,0,77,77,106,1,twoone,,,,,,,,,,,,,,,,,,,,,,,,,,,,,,,,,,,,,,,,,,,,,,,,,,,,,,,,,,,,,,,,,,,,,,,,,,,,,,,,,,,,,,,,,,,,,,,,,,,,,,,,,,,,,,,,,,,,,,,,,,,,,,,,,,,,,,,,,,,,,,,,,,,,,,,,,,,,,
,,,,,,60fd8eafe88dceaddd8dee71,62c53a0eb173bbfd2c792f50,2022-07-06_09h30.52.210,Colour_Asymmetry_Pilot,2022.1.3,Win32,60.05645307,62c50e9c1127f2cd403a315f,0,78,78,44,1,threeone,,,,,,,,,,,,,,,,,,,,,,,,,,,,,,,,,,,,,,,,,,,,,,,,,,,,,,,,,,,,,,,,,,,,,,,,,,,,,,,,,,,,,,,,,,,,,,,,,,,,,,,,,,,,,,,,,,,,,,,,,,,,,,,,,,,,,,,,,,,,,,,,,,,,,,,,,,,,,
,,,,,,60fd8eafe88dceaddd8dee71,62c53a0eb173bbfd2c792f50,2022-07-06_09h30.52.210,Colour_Asymmetry_Pilot,2022.1.3,Win32,60.05645307,62c50e9c1127f2cd403a315f,0,79,79,69,1,threefour,,,,,,,,,,,,,,,,,,,,,,,,,,,,,,,,,,,,,,,,,,,,,,,,,,,,,,,,,,,,,,,,,,,,,,,,,,,,,,,,,,,,,,,,,,,,,,,,,,,,,,,,,,,,,,,,,,,,,,,,,,,,,,,,,,,,,,,,,,,,,,,,,,,,,,,,,,,,,
,,,,,,60fd8eafe88dceaddd8dee71,62c53a0eb173bbfd2c792f50,2022-07-06_09h30.52.210,Colour_Asymmetry_Pilot,2022.1.3,Win32,60.05645307,62c50e9c1127f2cd403a315f,0,80,80,72,1,onetwo,,,,,,,,,,,,,,,,,,,,,,,,,,,,,,,,,,,,,,,,,,,,,,,,,,,,,,,,,,,,,,,,,,,,,,,,,,,,,,,,,,,,,,,,,,,,,,,,,,,,,,,,,,,,,,,,,,,,,,,,,,,,,,,,,,,,,,,,,,,,,,,,,,,,,,,,,,,,,
,,,,,,60fd8eafe88dceaddd8dee71,62c53a0eb173bbfd2c792f50,2022-07-06_09h30.52.210,Colour_Asymmetry_Pilot,2022.1.3,Win32,60.05645307,62c50e9c1127f2cd403a315f,0,81,81,10,1,twoone,,,,,,,,,,,,,,,,,,,,,,,,,,,,,,,,,,,,,,,,,,,,,,,,,,,,,,,,,,,,,,,,,,,,,,,,,,,,,,,,,,,,,,,,,,,,,,,,,,,,,,,,,,,,,,,,,,,,,,,,,,,,,,,,,,,,,,,,,,,,,,,,,,,,,,,,,,,,,
,,,,,,60fd8eafe88dceaddd8dee71,62c53a0eb173bbfd2c792f50,2022-07-06_09h30.52.210,Colour_Asymmetry_Pilot,2022.1.3,Win32,60.05645307,62c50e9c1127f2cd403a315f,0,82,82,54,1,fourtwo,,,,,,,,,,,,,,,,,,,,,,,,,,,,,,,,,,,,,,,,,,,,,,,,,,,,,,,,,,,,,,,,,,,,,,,,,,,,,,,,,,,,,,,,,,,,,,,,,,,,,,,,,,,,,,,,,,,,,,,,,,,,,,,,,,,,,,,,,,,,,,,,,,,,,,,,,,,,,
,,,,,,60fd8eafe88dceaddd8dee71,62c53a0eb173bbfd2c792f50,2022-07-06_09h30.52.210,Colour_Asymmetry_Pilot,2022.1.3,Win32,60.05645307,62c50e9c1127f2cd403a315f,0,83,83,144,1,onetwo,,,,,,,,,,,,,,,,,,,,,,,,,,,,,,,,,,,,,,,,,,,,,,,,,,,,,,,,,,,,,,,,,,,,,,,,,,,,,,,,,,,,,,,,,,,,,,,,,,,,,,,,,,,,,,,,,,,,,,,,,,,,,,,,,,,,,,,,,,,,,,,,,,,,,,,,,,,,,
,,,,,,60fd8eafe88dceaddd8dee71,62c53a0eb173bbfd2c792f50,2022-07-06_09h30.52.210,Colour_Asymmetry_Pilot,2022.1.3,Win32,60.05645307,62c50e9c1127f2cd403a315f,0,84,84,156,1,threeone,,,,,,,,,,,,,,,,,,,,,,,,,,,,,,,,,,,,,,,,,,,,,,,,,,,,,,,,,,,,,,,,,,,,,,,,,,,,,,,,,,,,,,,,,,,,,,,,,,,,,,,,,,,,,,,,,,,,,,,,,,,,,,,,,,,,,,,,,,,,,,,,,,,,,,,,,,,,,
,,,,,,60fd8eafe88dceaddd8dee71,62c53a0eb173bbfd2c792f50,2022-07-06_09h30.52.210,Colour_Asymmetry_Pilot,2022.1.3,Win32,60.05645307,62c50e9c1127f2cd403a315f,0,85,85,130,1,twoone,,,,,,,,,,,,,,,,,,,,,,,,,,,,,,,,,,,,,,,,,,,,,,,,,,,,,,,,,,,,,,,,,,,,,,,,,,,,,,,,,,,,,,,,,,,,,,,,,,,,,,,,,,,,,,,,,,,,,,,,,,,,,,,,,,,,,,,,,,,,,,,,,,,,,,,,,,,,,
,,,,,,60fd8eafe88dceaddd8dee71,62c53a0eb173bbfd2c792f50,2022-07-06_09h30.52.210,Colour_Asymmetry_Pilot,2022.1.3,Win32,60.05645307,62c50e9c1127f2cd403a315f,0,86,86,143,1,fourthree,,,,,,,,,,,,,,,,,,,,,,,,,,,,,,,,,,,,,,,,,,,,,,,,,,,,,,,,,,,,,,,,,,,,,,,,,,,,,,,,,,,,,,,,,,,,,,,,,,,,,,,,,,,,,,,,,,,,,,,,,,,,,,,,,,,,,,,,,,,,,,,,,,,,,,,,,,,,,
,,,,,,60fd8eafe88dceaddd8dee71,62c53a0eb173bbfd2c792f50,2022-07-06_09h30.52.210,Colour_Asymmetry_Pilot,2022.1.3,Win32,60.05645307,62c50e9c1127f2cd403a315f,0,87,87,111,1,fourthree,,,,,,,,,,,,,,,,,,,,,,,,,,,,,,,,,,,,,,,,,,,,,,,,,,,,,,,,,,,,,,,,,,,,,,,,,,,,,,,,,,,,,,,,,,,,,,,,,,,,,,,,,,,,,,,,,,,,,,,,,,,,,,,,,,,,,,,,,,,,,,,,,,,,,,,,,,,,,
,,,,,,60fd8eafe88dceaddd8dee71,62c53a0eb173bbfd2c792f50,2022-07-06_09h30.52.210,Colour_Asymmetry_Pilot,2022.1.3,Win32,60.05645307,62c50e9c1127f2cd403a315f,0,88,88,124,1,threeone,,,,,,,,,,,,,,,,,,,,,,,,,,,,,,,,,,,,,,,,,,,,,,,,,,,,,,,,,,,,,,,,,,,,,,,,,,,,,,,,,,,,,,,,,,,,,,,,,,,,,,,,,,,,,,,,,,,,,,,,,,,,,,,,,,,,,,,,,,,,,,,,,,,,,,,,,,,,,
,,,,,,60fd8eafe88dceaddd8dee71,62c53a0eb173bbfd2c792f50,2022-07-06_09h30.52.210,Colour_Asymmetry_Pilot,2022.1.3,Win32,60.05645307,62c50e9c1127f2cd403a315f,0,89,89,15,1,fourthree,,,,,,,,,,,,,,,,,,,,,,,,,,,,,,,,,,,,,,,,,,,,,,,,,,,,,,,,,,,,,,,,,,,,,,,,,,,,,,,,,,,,,,,,,,,,,,,,,,,,,,,,,,,,,,,,,,,,,,,,,,,,,,,,,,,,,,,,,,,,,,,,,,,,,,,,,,,,,
,,,,,,60fd8eafe88dceaddd8dee71,62c53a0eb173bbfd2c792f50,2022-07-06_09h30.52.210,Colour_Asymmetry_Pilot,2022.1.3,Win32,60.05645307,62c50e9c1127f2cd403a315f,0,90,90,147,1,twofour,,,,,,,,,,,,,,,,,,,,,,,,,,,,,,,,,,,,,,,,,,,,,,,,,,,,,,,,,,,,,,,,,,,,,,,,,,,,,,,,,,,,,,,,,,,,,,,,,,,,,,,,,,,,,,,,,,,,,,,,,,,,,,,,,,,,,,,,,,,,,,,,,,,,,,,,,,,,,
,,,,,,60fd8eafe88dceaddd8dee71,62c53a0eb173bbfd2c792f50,2022-07-06_09h30.52.210,Colour_Asymmetry_Pilot,2022.1.3,Win32,60.05645307,62c50e9c1127f2cd403a315f,0,91,91,86,1,fourtwo,,,,,,,,,,,,,,,,,,,,,,,,,,,,,,,,,,,,,,,,,,,,,,,,,,,,,,,,,,,,,,,,,,,,,,,,,,,,,,,,,,,,,,,,,,,,,,,,,,,,,,,,,,,,,,,,,,,,,,,,,,,,,,,,,,,,,,,,,,,,,,,,,,,,,,,,,,,,,
,,,,,,60fd8eafe88dceaddd8dee71,62c53a0eb173bbfd2c792f50,2022-07-06_09h30.52.210,Colour_Asymmetry_Pilot,2022.1.3,Win32,60.05645307,62c50e9c1127f2cd403a315f,0,92,92,14,1,fourtwo,,,,,,,,,,,,,,,,,,,,,,,,,,,,,,,,,,,,,,,,,,,,,,,,,,,,,,,,,,,,,,,,,,,,,,,,,,,,,,,,,,,,,,,,,,,,,,,,,,,,,,,,,,,,,,,,,,,,,,,,,,,,,,,,,,,,,,,,,,,,,,,,,,,,,,,,,,,,,
,,,,,,60fd8eafe88dceaddd8dee71,62c53a0eb173bbfd2c792f50,2022-07-06_09h30.52.210,Colour_Asymmetry_Pilot,2022.1.3,Win32,60.05645307,62c50e9c1127f2cd403a315f,0,93,93,5,1,threefour,,,,,,,,,,,,,,,,,,,,,,,,,,,,,,,,,,,,,,,,,,,,,,,,,,,,,,,,,,,,,,,,,,,,,,,,,,,,,,,,,,,,,,,,,,,,,,,,,,,,,,,,,,,,,,,,,,,,,,,,,,,,,,,,,,,,,,,,,,,,,,,,,,,,,,,,,,,,,
,,,,,,60fd8eafe88dceaddd8dee71,62c53a0eb173bbfd2c792f50,2022-07-06_09h30.52.210,Colour_Asymmetry_Pilot,2022.1.3,Win32,60.05645307,62c50e9c1127f2cd403a315f,0,94,94,1,1,onethree,,,,,,,,,,,,,,,,,,,,,,,,,,,,,,,,,,,,,,,,,,,,,,,,,,,,,,,,,,,,,,,,,,,,,,,,,,,,,,,,,,,,,,,,,,,,,,,,,,,,,,,,,,,,,,,,,,,,,,,,,,,,,,,,,,,,,,,,,,,,,,,,,,,,,,,,,,,,,
,,,,,,60fd8eafe88dceaddd8dee71,62c53a0eb173bbfd2c792f50,2022-07-06_09h30.52.210,Colour_Asymmetry_Pilot,2022.1.3,Win32,60.05645307,62c50e9c1127f2cd403a315f,0,95,95,7,1,fourthree,,,,,,,,,,,,,,,,,,,,,,,,,,,,,,,,,,,,,,,,,,,,,,,,,,,,,,,,,,,,,,,,,,,,,,,,,,,,,,,,,,,,,,,,,,,,,,,,,,,,,,,,,,,,,,,,,,,,,,,,,,,,,,,,,,,,,,,,,,,,,,,,,,,,,,,,,,,,,
,,,,,,60fd8eafe88dceaddd8dee71,62c53a0eb173bbfd2c792f50,2022-07-06_09h30.52.210,Colour_Asymmetry_Pilot,2022.1.3,Win32,60.05645307,62c50e9c1127f2cd403a315f,0,96,96,142,1,fourtwo,,,,,,,,,,,,,,,,,,,,,,,,,,,,,,,,,,,,,,,,,,,,,,,,,,,,,,,,,,,,,,,,,,,,,,,,,,,,,,,,,,,,,,,,,,,,,,,,,,,,,,,,,,,,,,,,,,,,,,,,,,,,,,,,,,,,,,,,,,,,,,,,,,,,,,,,,,,,,
,,,,,,60fd8eafe88dceaddd8dee71,62c53a0eb173bbfd2c792f50,2022-07-06_09h30.52.210,Colour_Asymmetry_Pilot,2022.1.3,Win32,60.05645307,62c50e9c1127f2cd403a315f,0,97,97,50,1,twoone,,,,,,,,,,,,,,,,,,,,,,,,,,,,,,,,,,,,,,,,,,,,,,,,,,,,,,,,,,,,,,,,,,,,,,,,,,,,,,,,,,,,,,,,,,,,,,,,,,,,,,,,,,,,,,,,,,,,,,,,,,,,,,,,,,,,,,,,,,,,,,,,,,,,,,,,,,,,,
,,,,,,60fd8eafe88dceaddd8dee71,62c53a0eb173bbfd2c792f50,2022-07-06_09h30.52.210,Colour_Asymmetry_Pilot,2022.1.3,Win32,60.05645307,62c50e9c1127f2cd403a315f,0,98,98,27,1,twofour,,,,,,,,,,,,,,,,,,,,,,,,,,,,,,,,,,,,,,,,,,,,,,,,,,,,,,,,,,,,,,,,,,,,,,,,,,,,,,,,,,,,,,,,,,,,,,,,,,,,,,,,,,,,,,,,,,,,,,,,,,,,,,,,,,,,,,,,,,,,,,,,,,,,,,,,,,,,,
,,,,,,60fd8eafe88dceaddd8dee71,62c53a0eb173bbfd2c792f50,2022-07-06_09h30.52.210,Colour_Asymmetry_Pilot,2022.1.3,Win32,60.05645307,62c50e9c1127f2cd403a315f,0,99,99,31,1,fourthree,,,,,,,,,,,,,,,,,,,,,,,,,,,,,,,,,,,,,,,,,,,,,,,,,,,,,,,,,,,,,,,,,,,,,,,,,,,,,,,,,,,,,,,,,,,,,,,,,,,,,,,,,,,,,,,,,,,,,,,,,,,,,,,,,,,,,,,,,,,,,,,,,,,,,,,,,,,,,
,,,,,,60fd8eafe88dceaddd8dee71,62c53a0eb173bbfd2c792f50,2022-07-06_09h30.52.210,Colour_Asymmetry_Pilot,2022.1.3,Win32,60.05645307,62c50e9c1127f2cd403a315f,0,100,100,61,1,threefour,,,,,,,,,,,,,,,,,,,,,,,,,,,,,,,,,,,,,,,,,,,,,,,,,,,,,,,,,,,,,,,,,,,,,,,,,,,,,,,,,,,,,,,,,,,,,,,,,,,,,,,,,,,,,,,,,,,,,,,,,,,,,,,,,,,,,,,,,,,,,,,,,,,,,,,,,,,,,
,,,,,,60fd8eafe88dceaddd8dee71,62c53a0eb173bbfd2c792f50,2022-07-06_09h30.52.210,Colour_Asymmetry_Pilot,2022.1.3,Win32,60.05645307,62c50e9c1127f2cd403a315f,0,101,101,26,1,twoone,,,,,,,,,,,,,,,,,,,,,,,,,,,,,,,,,,,,,,,,,,,,,,,,,,,,,,,,,,,,,,,,,,,,,,,,,,,,,,,,,,,,,,,,,,,,,,,,,,,,,,,,,,,,,,,,,,,,,,,,,,,,,,,,,,,,,,,,,,,,,,,,,,,,,,,,,,,,,
,,,,,,60fd8eafe88dceaddd8dee71,62c53a0eb173bbfd2c792f50,2022-07-06_09h30.52.210,Colour_Asymmetry_Pilot,2022.1.3,Win32,60.05645307,62c50e9c1127f2cd403a315f,0,102,102,19,1,twofour,,,,,,,,,,,,,,,,,,,,,,,,,,,,,,,,,,,,,,,,,,,,,,,,,,,,,,,,,,,,,,,,,,,,,,,,,,,,,,,,,,,,,,,,,,,,,,,,,,,,,,,,,,,,,,,,,,,,,,,,,,,,,,,,,,,,,,,,,,,,,,,,,,,,,,,,,,,,,
,,,,,,60fd8eafe88dceaddd8dee71,62c53a0eb173bbfd2c792f50,2022-07-06_09h30.52.210,Colour_Asymmetry_Pilot,2022.1.3,Win32,60.05645307,62c50e9c1127f2cd403a315f,0,103,103,100,1,threeone,,,,,,,,,,,,,,,,,,,,,,,,,,,,,,,,,,,,,,,,,,,,,,,,,,,,,,,,,,,,,,,,,,,,,,,,,,,,,,,,,,,,,,,,,,,,,,,,,,,,,,,,,,,,,,,,,,,,,,,,,,,,,,,,,,,,,,,,,,,,,,,,,,,,,,,,,,,,,
,,,,,,60fd8eafe88dceaddd8dee71,62c53a0eb173bbfd2c792f50,2022-07-06_09h30.52.210,Colour_Asymmetry_Pilot,2022.1.3,Win32,60.05645307,62c50e9c1127f2cd403a315f,0,104,104,158,1,fourtwo,,,,,,,,,,,,,,,,,,,,,,,,,,,,,,,,,,,,,,,,,,,,,,,,,,,,,,,,,,,,,,,,,,,,,,,,,,,,,,,,,,,,,,,,,,,,,,,,,,,,,,,,,,,,,,,,,,,,,,,,,,,,,,,,,,,,,,,,,,,,,,,,,,,,,,,,,,,,,
,,,,,,60fd8eafe88dceaddd8dee71,62c53a0eb173bbfd2c792f50,2022-07-06_09h30.52.210,Colour_Asymmetry_Pilot,2022.1.3,Win32,60.05645307,62c50e9c1127f2cd403a315f,0,105,105,8,1,onetwo,,,,,,,,,,,,,,,,,,,,,,,,,,,,,,,,,,,,,,,,,,,,,,,,,,,,,,,,,,,,,,,,,,,,,,,,,,,,,,,,,,,,,,,,,,,,,,,,,,,,,,,,,,,,,,,,,,,,,,,,,,,,,,,,,,,,,,,,,,,,,,,,,,,,,,,,,,,,,
,,,,,,60fd8eafe88dceaddd8dee71,62c53a0eb173bbfd2c792f50,2022-07-06_09h30.52.210,Colour_Asymmetry_Pilot,2022.1.3,Win32,60.05645307,62c50e9c1127f2cd403a315f,0,106,106,51,1,twofour,,,,,,,,,,,,,,,,,,,,,,,,,,,,,,,,,,,,,,,,,,,,,,,,,,,,,,,,,,,,,,,,,,,,,,,,,,,,,,,,,,,,,,,,,,,,,,,,,,,,,,,,,,,,,,,,,,,,,,,,,,,,,,,,,,,,,,,,,,,,,,,,,,,,,,,,,,,,,
,,,,,,60fd8eafe88dceaddd8dee71,62c53a0eb173bbfd2c792f50,2022-07-06_09h30.52.210,Colour_Asymmetry_Pilot,2022.1.3,Win32,60.05645307,62c50e9c1127f2cd403a315f,0,107,107,83,1,twofour,,,,,,,,,,,,,,,,,,,,,,,,,,,,,,,,,,,,,,,,,,,,,,,,,,,,,,,,,,,,,,,,,,,,,,,,,,,,,,,,,,,,,,,,,,,,,,,,,,,,,,,,,,,,,,,,,,,,,,,,,,,,,,,,,,,,,,,,,,,,,,,,,,,,,,,,,,,,,
,,,,,,60fd8eafe88dceaddd8dee71,62c53a0eb173bbfd2c792f50,2022-07-06_09h30.52.210,Colour_Asymmetry_Pilot,2022.1.3,Win32,60.05645307,62c50e9c1127f2cd403a315f,0,108,108,98,1,twoone,,,,,,,,,,,,,,,,,,,,,,,,,,,,,,,,,,,,,,,,,,,,,,,,,,,,,,,,,,,,,,,,,,,,,,,,,,,,,,,,,,,,,,,,,,,,,,,,,,,,,,,,,,,,,,,,,,,,,,,,,,,,,,,,,,,,,,,,,,,,,,,,,,,,,,,,,,,,,
,,,,,,60fd8eafe88dceaddd8dee71,62c53a0eb173bbfd2c792f50,2022-07-06_09h30.52.210,Colour_Asymmetry_Pilot,2022.1.3,Win32,60.05645307,62c50e9c1127f2cd403a315f,0,109,109,116,1,threeone,,,,,,,,,,,,,,,,,,,,,,,,,,,,,,,,,,,,,,,,,,,,,,,,,,,,,,,,,,,,,,,,,,,,,,,,,,,,,,,,,,,,,,,,,,,,,,,,,,,,,,,,,,,,,,,,,,,,,,,,,,,,,,,,,,,,,,,,,,,,,,,,,,,,,,,,,,,,,
,,,,,,60fd8eafe88dceaddd8dee71,62c53a0eb173bbfd2c792f50,2022-07-06_09h30.52.210,Colour_Asymmetry_Pilot,2022.1.3,Win32,60.05645307,62c50e9c1127f2cd403a315f,0,110,110,40,1,onetwo,,,,,,,,,,,,,,,,,,,,,,,,,,,,,,,,,,,,,,,,,,,,,,,,,,,,,,,,,,,,,,,,,,,,,,,,,,,,,,,,,,,,,,,,,,,,,,,,,,,,,,,,,,,,,,,,,,,,,,,,,,,,,,,,,,,,,,,,,,,,,,,,,,,,,,,,,,,,,
,,,,,,60fd8eafe88dceaddd8dee71,62c53a0eb173bbfd2c792f50,2022-07-06_09h30.52.210,Colour_Asymmetry_Pilot,2022.1.3,Win32,60.05645307,62c50e9c1127f2cd403a315f,0,111,111,110,1,fourtwo,,,,,,,,,,,,,,,,,,,,,,,,,,,,,,,,,,,,,,,,,,,,,,,,,,,,,,,,,,,,,,,,,,,,,,,,,,,,,,,,,,,,,,,,,,,,,,,,,,,,,,,,,,,,,,,,,,,,,,,,,,,,,,,,,,,,,,,,,,,,,,,,,,,,,,,,,,,,,
,,,,,,60fd8eafe88dceaddd8dee71,62c53a0eb173bbfd2c792f50,2022-07-06_09h30.52.210,Colour_Asymmetry_Pilot,2022.1.3,Win32,60.05645307,62c50e9c1127f2cd403a315f,0,112,112,137,1,onethree,,,,,,,,,,,,,,,,,,,,,,,,,,,,,,,,,,,,,,,,,,,,,,,,,,,,,,,,,,,,,,,,,,,,,,,,,,,,,,,,,,,,,,,,,,,,,,,,,,,,,,,,,,,,,,,,,,,,,,,,,,,,,,,,,,,,,,,,,,,,,,,,,,,,,,,,,,,,,
,,,,,,60fd8eafe88dceaddd8dee71,62c53a0eb173bbfd2c792f50,2022-07-06_09h30.52.210,Colour_Asymmetry_Pilot,2022.1.3,Win32,60.05645307,62c50e9c1127f2cd403a315f,0,113,113,73,1,onethree,,,,,,,,,,,,,,,,,,,,,,,,,,,,,,,,,,,,,,,,,,,,,,,,,,,,,,,,,,,,,,,,,,,,,,,,,,,,,,,,,,,,,,,,,,,,,,,,,,,,,,,,,,,,,,,,,,,,,,,,,,,,,,,,,,,,,,,,,,,,,,,,,,,,,,,,,,,,,
,,,,,,60fd8eafe88dceaddd8dee71,62c53a0eb173bbfd2c792f50,2022-07-06_09h30.52.210,Colour_Asymmetry_Pilot,2022.1.3,Win32,60.05645307,62c50e9c1127f2cd403a315f,0,114,114,79,1,fourthree,,,,,,,,,,,,,,,,,,,,,,,,,,,,,,,,,,,,,,,,,,,,,,,,,,,,,,,,,,,,,,,,,,,,,,,,,,,,,,,,,,,,,,,,,,,,,,,,,,,,,,,,,,,,,,,,,,,,,,,,,,,,,,,,,,,,,,,,,,,,,,,,,,,,,,,,,,,,,
,,,,,,60fd8eafe88dceaddd8dee71,62c53a0eb173bbfd2c792f50,2022-07-06_09h30.52.210,Colour_Asymmetry_Pilot,2022.1.3,Win32,60.05645307,62c50e9c1127f2cd403a315f,0,115,115,24,1,onetwo,,,,,,,,,,,,,,,,,,,,,,,,,,,,,,,,,,,,,,,,,,,,,,,,,,,,,,,,,,,,,,,,,,,,,,,,,,,,,,,,,,,,,,,,,,,,,,,,,,,,,,,,,,,,,,,,,,,,,,,,,,,,,,,,,,,,,,,,,,,,,,,,,,,,,,,,,,,,,
,,,,,,60fd8eafe88dceaddd8dee71,62c53a0eb173bbfd2c792f50,2022-07-06_09h30.52.210,Colour_Asymmetry_Pilot,2022.1.3,Win32,60.05645307,62c50e9c1127f2cd403a315f,0,116,116,121,1,onethree,,,,,,,,,,,,,,,,,,,,,,,,,,,,,,,,,,,,,,,,,,,,,,,,,,,,,,,,,,,,,,,,,,,,,,,,,,,,,,,,,,,,,,,,,,,,,,,,,,,,,,,,,,,,,,,,,,,,,,,,,,,,,,,,,,,,,,,,,,,,,,,,,,,,,,,,,,,,,
,,,,,,60fd8eafe88dceaddd8dee71,62c53a0eb173bbfd2c792f50,2022-07-06_09h30.52.210,Colour_Asymmetry_Pilot,2022.1.3,Win32,60.05645307,62c50e9c1127f2cd403a315f,0,117,117,112,1,onetwo,,,,,,,,,,,,,,,,,,,,,,,,,,,,,,,,,,,,,,,,,,,,,,,,,,,,,,,,,,,,,,,,,,,,,,,,,,,,,,,,,,,,,,,,,,,,,,,,,,,,,,,,,,,,,,,,,,,,,,,,,,,,,,,,,,,,,,,,,,,,,,,,,,,,,,,,,,,,,
,,,,,,60fd8eafe88dceaddd8dee71,62c53a0eb173bbfd2c792f50,2022-07-06_09h30.52.210,Colour_Asymmetry_Pilot,2022.1.3,Win32,60.05645307,62c50e9c1127f2cd403a315f,0,118,118,148,1,threeone,,,,,,,,,,,,,,,,,,,,,,,,,,,,,,,,,,,,,,,,,,,,,,,,,,,,,,,,,,,,,,,,,,,,,,,,,,,,,,,,,,,,,,,,,,,,,,,,,,,,,,,,,,,,,,,,,,,,,,,,,,,,,,,,,,,,,,,,,,,,,,,,,,,,,,,,,,,,,
,,,,,,60fd8eafe88dceaddd8dee71,62c53a0eb173bbfd2c792f50,2022-07-06_09h30.52.210,Colour_Asymmetry_Pilot,2022.1.3,Win32,60.05645307,62c50e9c1127f2cd403a315f,0,119,119,43,1,twofour,,,,,,,,,,,,,,,,,,,,,,,,,,,,,,,,,,,,,,,,,,,,,,,,,,,,,,,,,,,,,,,,,,,,,,,,,,,,,,,,,,,,,,,,,,,,,,,,,,,,,,,,,,,,,,,,,,,,,,,,,,,,,,,,,,,,,,,,,,,,,,,,,,,,,,,,,,,,,
,,,,,,60fd8eafe88dceaddd8dee71,62c53a0eb173bbfd2c792f50,2022-07-06_09h30.52.210,Colour_Asymmetry_Pilot,2022.1.3,Win32,60.05645307,62c50e9c1127f2cd403a315f,0,120,120,9,1,onethree,,,,,,,,,,,,,,,,,,,,,,,,,,,,,,,,,,,,,,,,,,,,,,,,,,,,,,,,,,,,,,,,,,,,,,,,,,,,,,,,,,,,,,,,,,,,,,,,,,,,,,,,,,,,,,,,,,,,,,,,,,,,,,,,,,,,,,,,,,,,,,,,,,,,,,,,,,,,,
,,,,,,60fd8eafe88dceaddd8dee71,62c53a0eb173bbfd2c792f50,2022-07-06_09h30.52.210,Colour_Asymmetry_Pilot,2022.1.3,Win32,60.05645307,62c50e9c1127f2cd403a315f,0,121,121,155,1,twofour,,,,,,,,,,,,,,,,,,,,,,,,,,,,,,,,,,,,,,,,,,,,,,,,,,,,,,,,,,,,,,,,,,,,,,,,,,,,,,,,,,,,,,,,,,,,,,,,,,,,,,,,,,,,,,,,,,,,,,,,,,,,,,,,,,,,,,,,,,,,,,,,,,,,,,,,,,,,,
,,,,,,60fd8eafe88dceaddd8dee71,62c53a0eb173bbfd2c792f50,2022-07-06_09h30.52.210,Colour_Asymmetry_Pilot,2022.1.3,Win32,60.05645307,62c50e9c1127f2cd403a315f,0,122,122,67,1,twofour,,,,,,,,,,,,,,,,,,,,,,,,,,,,,,,,,,,,,,,,,,,,,,,,,,,,,,,,,,,,,,,,,,,,,,,,,,,,,,,,,,,,,,,,,,,,,,,,,,,,,,,,,,,,,,,,,,,,,,,,,,,,,,,,,,,,,,,,,,,,,,,,,,,,,,,,,,,,,
,,,,,,60fd8eafe88dceaddd8dee71,62c53a0eb173bbfd2c792f50,2022-07-06_09h30.52.210,Colour_Asymmetry_Pilot,2022.1.3,Win32,60.05645307,62c50e9c1127f2cd403a315f,0,123,123,49,1,onethree,,,,,,,,,,,,,,,,,,,,,,,,,,,,,,,,,,,,,,,,,,,,,,,,,,,,,,,,,,,,,,,,,,,,,,,,,,,,,,,,,,,,,,,,,,,,,,,,,,,,,,,,,,,,,,,,,,,,,,,,,,,,,,,,,,,,,,,,,,,,,,,,,,,,,,,,,,,,,
,,,,,,60fd8eafe88dceaddd8dee71,62c53a0eb173bbfd2c792f50,2022-07-06_09h30.52.210,Colour_Asymmetry_Pilot,2022.1.3,Win32,60.05645307,62c50e9c1127f2cd403a315f,0,124,124,138,1,twoone,,,,,,,,,,,,,,,,,,,,,,,,,,,,,,,,,,,,,,,,,,,,,,,,,,,,,,,,,,,,,,,,,,,,,,,,,,,,,,,,,,,,,,,,,,,,,,,,,,,,,,,,,,,,,,,,,,,,,,,,,,,,,,,,,,,,,,,,,,,,,,,,,,,,,,,,,,,,,
,,,,,,60fd8eafe88dceaddd8dee71,62c53a0eb173bbfd2c792f50,2022-07-06_09h30.52.210,Colour_Asymmetry_Pilot,2022.1.3,Win32,60.05645307,62c50e9c1127f2cd403a315f,0,125,125,59,1,twofour,,,,,,,,,,,,,,,,,,,,,,,,,,,,,,,,,,,,,,,,,,,,,,,,,,,,,,,,,,,,,,,,,,,,,,,,,,,,,,,,,,,,,,,,,,,,,,,,,,,,,,,,,,,,,,,,,,,,,,,,,,,,,,,,,,,,,,,,,,,,,,,,,,,,,,,,,,,,,
,,,,,,60fd8eafe88dceaddd8dee71,62c53a0eb173bbfd2c792f50,2022-07-06_09h30.52.210,Colour_Asymmetry_Pilot,2022.1.3,Win32,60.05645307,62c50e9c1127f2cd403a315f,0,126,126,58,1,twoone,,,,,,,,,,,,,,,,,,,,,,,,,,,,,,,,,,,,,,,,,,,,,,,,,,,,,,,,,,,,,,,,,,,,,,,,,,,,,,,,,,,,,,,,,,,,,,,,,,,,,,,,,,,,,,,,,,,,,,,,,,,,,,,,,,,,,,,,,,,,,,,,,,,,,,,,,,,,,
,,,,,,60fd8eafe88dceaddd8dee71,62c53a0eb173bbfd2c792f50,2022-07-06_09h30.52.210,Colour_Asymmetry_Pilot,2022.1.3,Win32,60.05645307,62c50e9c1127f2cd403a315f,0,127,127,42,1,twoone,,,,,,,,,,,,,,,,,,,,,,,,,,,,,,,,,,,,,,,,,,,,,,,,,,,,,,,,,,,,,,,,,,,,,,,,,,,,,,,,,,,,,,,,,,,,,,,,,,,,,,,,,,,,,,,,,,,,,,,,,,,,,,,,,,,,,,,,,,,,,,,,,,,,,,,,,,,,,
,,,,,,60fd8eafe88dceaddd8dee71,62c53a0eb173bbfd2c792f50,2022-07-06_09h30.52.210,Colour_Asymmetry_Pilot,2022.1.3,Win32,60.05645307,62c50e9c1127f2cd403a315f,0,128,128,159,1,fourthree,,,,,,,,,,,,,,,,,,,,,,,,,,,,,,,,,,,,,,,,,,,,,,,,,,,,,,,,,,,,,,,,,,,,,,,,,,,,,,,,,,,,,,,,,,,,,,,,,,,,,,,,,,,,,,,,,,,,,,,,,,,,,,,,,,,,,,,,,,,,,,,,,,,,,,,,,,,,,
,,,,,,60fd8eafe88dceaddd8dee71,62c53a0eb173bbfd2c792f50,2022-07-06_09h30.52.210,Colour_Asymmetry_Pilot,2022.1.3,Win32,60.05645307,62c50e9c1127f2cd403a315f,0,129,129,52,1,threeone,,,,,,,,,,,,,,,,,,,,,,,,,,,,,,,,,,,,,,,,,,,,,,,,,,,,,,,,,,,,,,,,,,,,,,,,,,,,,,,,,,,,,,,,,,,,,,,,,,,,,,,,,,,,,,,,,,,,,,,,,,,,,,,,,,,,,,,,,,,,,,,,,,,,,,,,,,,,,
,,,,,,60fd8eafe88dceaddd8dee71,62c53a0eb173bbfd2c792f50,2022-07-06_09h30.52.210,Colour_Asymmetry_Pilot,2022.1.3,Win32,60.05645307,62c50e9c1127f2cd403a315f,0,130,130,0,1,onetwo,,,,,,,,,,,,,,,,,,,,,,,,,,,,,,,,,,,,,,,,,,,,,,,,,,,,,,,,,,,,,,,,,,,,,,,,,,,,,,,,,,,,,,,,,,,,,,,,,,,,,,,,,,,,,,,,,,,,,,,,,,,,,,,,,,,,,,,,,,,,,,,,,,,,,,,,,,,,,
,,,,,,60fd8eafe88dceaddd8dee71,62c53a0eb173bbfd2c792f50,2022-07-06_09h30.52.210,Colour_Asymmetry_Pilot,2022.1.3,Win32,60.05645307,62c50e9c1127f2cd403a315f,0,131,131,87,1,fourthree,,,,,,,,,,,,,,,,,,,,,,,,,,,,,,,,,,,,,,,,,,,,,,,,,,,,,,,,,,,,,,,,,,,,,,,,,,,,,,,,,,,,,,,,,,,,,,,,,,,,,,,,,,,,,,,,,,,,,,,,,,,,,,,,,,,,,,,,,,,,,,,,,,,,,,,,,,,,,
,,,,,,60fd8eafe88dceaddd8dee71,62c53a0eb173bbfd2c792f50,2022-07-06_09h30.52.210,Colour_Asymmetry_Pilot,2022.1.3,Win32,60.05645307,62c50e9c1127f2cd403a315f,0,132,132,64,1,onetwo,,,,,,,,,,,,,,,,,,,,,,,,,,,,,,,,,,,,,,,,,,,,,,,,,,,,,,,,,,,,,,,,,,,,,,,,,,,,,,,,,,,,,,,,,,,,,,,,,,,,,,,,,,,,,,,,,,,,,,,,,,,,,,,,,,,,,,,,,,,,,,,,,,,,,,,,,,,,,
,,,,,,60fd8eafe88dceaddd8dee71,62c53a0eb173bbfd2c792f50,2022-07-06_09h30.52.210,Colour_Asymmetry_Pilot,2022.1.3,Win32,60.05645307,62c50e9c1127f2cd403a315f,0,133,133,48,1,onetwo,,,,,,,,,,,,,,,,,,,,,,,,,,,,,,,,,,,,,,,,,,,,,,,,,,,,,,,,,,,,,,,,,,,,,,,,,,,,,,,,,,,,,,,,,,,,,,,,,,,,,,,,,,,,,,,,,,,,,,,,,,,,,,,,,,,,,,,,,,,,,,,,,,,,,,,,,,,,,
,,,,,,60fd8eafe88dceaddd8dee71,62c53a0eb173bbfd2c792f50,2022-07-06_09h30.52.210,Colour_Asymmetry_Pilot,2022.1.3,Win32,60.05645307,62c50e9c1127f2cd403a315f,0,134,134,56,1,onetwo,,,,,,,,,,,,,,,,,,,,,,,,,,,,,,,,,,,,,,,,,,,,,,,,,,,,,,,,,,,,,,,,,,,,,,,,,,,,,,,,,,,,,,,,,,,,,,,,,,,,,,,,,,,,,,,,,,,,,,,,,,,,,,,,,,,,,,,,,,,,,,,,,,,,,,,,,,,,,
,,,,,,60fd8eafe88dceaddd8dee71,62c53a0eb173bbfd2c792f50,2022-07-06_09h30.52.210,Colour_Asymmetry_Pilot,2022.1.3,Win32,60.05645307,62c50e9c1127f2cd403a315f,0,135,135,135,1,fourthree,,,,,,,,,,,,,,,,,,,,,,,,,,,,,,,,,,,,,,,,,,,,,,,,,,,,,,,,,,,,,,,,,,,,,,,,,,,,,,,,,,,,,,,,,,,,,,,,,,,,,,,,,,,,,,,,,,,,,,,,,,,,,,,,,,,,,,,,,,,,,,,,,,,,,,,,,,,,,
,,,,,,60fd8eafe88dceaddd8dee71,62c53a0eb173bbfd2c792f50,2022-07-06_09h30.52.210,Colour_Asymmetry_Pilot,2022.1.3,Win32,60.05645307,62c50e9c1127f2cd403a315f,0,136,136,96,1,onetwo,,,,,,,,,,,,,,,,,,,,,,,,,,,,,,,,,,,,,,,,,,,,,,,,,,,,,,,,,,,,,,,,,,,,,,,,,,,,,,,,,,,,,,,,,,,,,,,,,,,,,,,,,,,,,,,,,,,,,,,,,,,,,,,,,,,,,,,,,,,,,,,,,,,,,,,,,,,,,
,,,,,,60fd8eafe88dceaddd8dee71,62c53a0eb173bbfd2c792f50,2022-07-06_09h30.52.210,Colour_Asymmetry_Pilot,2022.1.3,Win32,60.05645307,62c50e9c1127f2cd403a315f,0,137,137,107,1,twofour,,,,,,,,,,,,,,,,,,,,,,,,,,,,,,,,,,,,,,,,,,,,,,,,,,,,,,,,,,,,,,,,,,,,,,,,,,,,,,,,,,,,,,,,,,,,,,,,,,,,,,,,,,,,,,,,,,,,,,,,,,,,,,,,,,,,,,,,,,,,,,,,,,,,,,,,,,,,,
,,,,,,60fd8eafe88dceaddd8dee71,62c53a0eb173bbfd2c792f50,2022-07-06_09h30.52.210,Colour_Asymmetry_Pilot,2022.1.3,Win32,60.05645307,62c50e9c1127f2cd403a315f,0,138,138,85,1,threefour,,,,,,,,,,,,,,,,,,,,,,,,,,,,,,,,,,,,,,,,,,,,,,,,,,,,,,,,,,,,,,,,,,,,,,,,,,,,,,,,,,,,,,,,,,,,,,,,,,,,,,,,,,,,,,,,,,,,,,,,,,,,,,,,,,,,,,,,,,,,,,,,,,,,,,,,,,,,,
,,,,,,60fd8eafe88dceaddd8dee71,62c53a0eb173bbfd2c792f50,2022-07-06_09h30.52.210,Colour_Asymmetry_Pilot,2022.1.3,Win32,60.05645307,62c50e9c1127f2cd403a315f,0,139,139,89,1,onethree,,,,,,,,,,,,,,,,,,,,,,,,,,,,,,,,,,,,,,,,,,,,,,,,,,,,,,,,,,,,,,,,,,,,,,,,,,,,,,,,,,,,,,,,,,,,,,,,,,,,,,,,,,,,,,,,,,,,,,,,,,,,,,,,,,,,,,,,,,,,,,,,,,,,,,,,,,,,,
,,,,,,60fd8eafe88dceaddd8dee71,62c53a0eb173bbfd2c792f50,2022-07-06_09h30.52.210,Colour_Asymmetry_Pilot,2022.1.3,Win32,60.05645307,62c50e9c1127f2cd403a315f,0,140,140,152,1,onetwo,,,,,,,,,,,,,,,,,,,,,,,,,,,,,,,,,,,,,,,,,,,,,,,,,,,,,,,,,,,,,,,,,,,,,,,,,,,,,,,,,,,,,,,,,,,,,,,,,,,,,,,,,,,,,,,,,,,,,,,,,,,,,,,,,,,,,,,,,,,,,,,,,,,,,,,,,,,,,
,,,,,,60fd8eafe88dceaddd8dee71,62c53a0eb173bbfd2c792f50,2022-07-06_09h30.52.210,Colour_Asymmetry_Pilot,2022.1.3,Win32,60.05645307,62c50e9c1127f2cd403a315f,0,141,141,66,1,twoone,,,,,,,,,,,,,,,,,,,,,,,,,,,,,,,,,,,,,,,,,,,,,,,,,,,,,,,,,,,,,,,,,,,,,,,,,,,,,,,,,,,,,,,,,,,,,,,,,,,,,,,,,,,,,,,,,,,,,,,,,,,,,,,,,,,,,,,,,,,,,,,,,,,,,,,,,,,,,
,,,,,,60fd8eafe88dceaddd8dee71,62c53a0eb173bbfd2c792f50,2022-07-06_09h30.52.210,Colour_Asymmetry_Pilot,2022.1.3,Win32,60.05645307,62c50e9c1127f2cd403a315f,0,142,142,29,1,threefour,,,,,,,,,,,,,,,,,,,,,,,,,,,,,,,,,,,,,,,,,,,,,,,,,,,,,,,,,,,,,,,,,,,,,,,,,,,,,,,,,,,,,,,,,,,,,,,,,,,,,,,,,,,,,,,,,,,,,,,,,,,,,,,,,,,,,,,,,,,,,,,,,,,,,,,,,,,,,
,,,,,,60fd8eafe88dceaddd8dee71,62c53a0eb173bbfd2c792f50,2022-07-06_09h30.52.210,Colour_Asymmetry_Pilot,2022.1.3,Win32,60.05645307,62c50e9c1127f2cd403a315f,0,143,143,146,1,twoone,,,,,,,,,,,,,,,,,,,,,,,,,,,,,,,,,,,,,,,,,,,,,,,,,,,,,,,,,,,,,,,,,,,,,,,,,,,,,,,,,,,,,,,,,,,,,,,,,,,,,,,,,,,,,,,,,,,,,,,,,,,,,,,,,,,,,,,,,,,,,,,,,,,,,,,,,,,,,
,,,,,,60fd8eafe88dceaddd8dee71,62c53a0eb173bbfd2c792f50,2022-07-06_09h30.52.210,Colour_Asymmetry_Pilot,2022.1.3,Win32,60.05645307,62c50e9c1127f2cd403a315f,0,144,144,136,1,onetwo,,,,,,,,,,,,,,,,,,,,,,,,,,,,,,,,,,,,,,,,,,,,,,,,,,,,,,,,,,,,,,,,,,,,,,,,,,,,,,,,,,,,,,,,,,,,,,,,,,,,,,,,,,,,,,,,,,,,,,,,,,,,,,,,,,,,,,,,,,,,,,,,,,,,,,,,,,,,,
,,,,,,60fd8eafe88dceaddd8dee71,62c53a0eb173bbfd2c792f50,2022-07-06_09h30.52.210,Colour_Asymmetry_Pilot,2022.1.3,Win32,60.05645307,62c50e9c1127f2cd403a315f,0,145,145,57,1,onethree,,,,,,,,,,,,,,,,,,,,,,,,,,,,,,,,,,,,,,,,,,,,,,,,,,,,,,,,,,,,,,,,,,,,,,,,,,,,,,,,,,,,,,,,,,,,,,,,,,,,,,,,,,,,,,,,,,,,,,,,,,,,,,,,,,,,,,,,,,,,,,,,,,,,,,,,,,,,,
,,,,,,60fd8eafe88dceaddd8dee71,62c53a0eb173bbfd2c792f50,2022-07-06_09h30.52.210,Colour_Asymmetry_Pilot,2022.1.3,Win32,60.05645307,62c50e9c1127f2cd403a315f,0,146,146,21,1,threefour,,,,,,,,,,,,,,,,,,,,,,,,,,,,,,,,,,,,,,,,,,,,,,,,,,,,,,,,,,,,,,,,,,,,,,,,,,,,,,,,,,,,,,,,,,,,,,,,,,,,,,,,,,,,,,,,,,,,,,,,,,,,,,,,,,,,,,,,,,,,,,,,,,,,,,,,,,,,,
,,,,,,60fd8eafe88dceaddd8dee71,62c53a0eb173bbfd2c792f50,2022-07-06_09h30.52.210,Colour_Asymmetry_Pilot,2022.1.3,Win32,60.05645307,62c50e9c1127f2cd403a315f,0,147,147,126,1,fourtwo,,,,,,,,,,,,,,,,,,,,,,,,,,,,,,,,,,,,,,,,,,,,,,,,,,,,,,,,,,,,,,,,,,,,,,,,,,,,,,,,,,,,,,,,,,,,,,,,,,,,,,,,,,,,,,,,,,,,,,,,,,,,,,,,,,,,,,,,,,,,,,,,,,,,,,,,,,,,,
,,,,,,60fd8eafe88dceaddd8dee71,62c53a0eb173bbfd2c792f50,2022-07-06_09h30.52.210,Colour_Asymmetry_Pilot,2022.1.3,Win32,60.05645307,62c50e9c1127f2cd403a315f,0,148,148,125,1,threefour,,,,,,,,,,,,,,,,,,,,,,,,,,,,,,,,,,,,,,,,,,,,,,,,,,,,,,,,,,,,,,,,,,,,,,,,,,,,,,,,,,,,,,,,,,,,,,,,,,,,,,,,,,,,,,,,,,,,,,,,,,,,,,,,,,,,,,,,,,,,,,,,,,,,,,,,,,,,,
,,,,,,60fd8eafe88dceaddd8dee71,62c53a0eb173bbfd2c792f50,2022-07-06_09h30.52.210,Colour_Asymmetry_Pilot,2022.1.3,Win32,60.05645307,62c50e9c1127f2cd403a315f,0,149,149,102,1,fourtwo,,,,,,,,,,,,,,,,,,,,,,,,,,,,,,,,,,,,,,,,,,,,,,,,,,,,,,,,,,,,,,,,,,,,,,,,,,,,,,,,,,,,,,,,,,,,,,,,,,,,,,,,,,,,,,,,,,,,,,,,,,,,,,,,,,,,,,,,,,,,,,,,,,,,,,,,,,,,,
,,,,,,60fd8eafe88dceaddd8dee71,62c53a0eb173bbfd2c792f50,2022-07-06_09h30.52.210,Colour_Asymmetry_Pilot,2022.1.3,Win32,60.05645307,62c50e9c1127f2cd403a315f,0,150,150,25,1,onethree,,,,,,,,,,,,,,,,,,,,,,,,,,,,,,,,,,,,,,,,,,,,,,,,,,,,,,,,,,,,,,,,,,,,,,,,,,,,,,,,,,,,,,,,,,,,,,,,,,,,,,,,,,,,,,,,,,,,,,,,,,,,,,,,,,,,,,,,,,,,,,,,,,,,,,,,,,,,,
,,,,,,60fd8eafe88dceaddd8dee71,62c53a0eb173bbfd2c792f50,2022-07-06_09h30.52.210,Colour_Asymmetry_Pilot,2022.1.3,Win32,60.05645307,62c50e9c1127f2cd403a315f,0,151,151,161,1,onethree,,,,,,,,,,,,,,,,,,,,,,,,,,,,,,,,,,,,,,,,,,,,,,,,,,,,,,,,,,,,,,,,,,,,,,,,,,,,,,,,,,,,,,,,,,,,,,,,,,,,,,,,,,,,,,,,,,,,,,,,,,,,,,,,,,,,,,,,,,,,,,,,,,,,,,,,,,,,,
,,,,,,60fd8eafe88dceaddd8dee71,62c53a0eb173bbfd2c792f50,2022-07-06_09h30.52.210,Colour_Asymmetry_Pilot,2022.1.3,Win32,60.05645307,62c50e9c1127f2cd403a315f,0,152,152,46,1,fourtwo,,,,,,,,,,,,,,,,,,,,,,,,,,,,,,,,,,,,,,,,,,,,,,,,,,,,,,,,,,,,,,,,,,,,,,,,,,,,,,,,,,,,,,,,,,,,,,,,,,,,,,,,,,,,,,,,,,,,,,,,,,,,,,,,,,,,,,,,,,,,,,,,,,,,,,,,,,,,,
,,,,,,60fd8eafe88dceaddd8dee71,62c53a0eb173bbfd2c792f50,2022-07-06_09h30.52.210,Colour_Asymmetry_Pilot,2022.1.3,Win32,60.05645307,62c50e9c1127f2cd403a315f,0,153,153,131,1,twofour,,,,,,,,,,,,,,,,,,,,,,,,,,,,,,,,,,,,,,,,,,,,,,,,,,,,,,,,,,,,,,,,,,,,,,,,,,,,,,,,,,,,,,,,,,,,,,,,,,,,,,,,,,,,,,,,,,,,,,,,,,,,,,,,,,,,,,,,,,,,,,,,,,,,,,,,,,,,,
,,,,,,60fd8eafe88dceaddd8dee71,62c53a0eb173bbfd2c792f50,2022-07-06_09h30.52.210,Colour_Asymmetry_Pilot,2022.1.3,Win32,60.05645307,62c50e9c1127f2cd403a315f,0,154,154,37,1,threefour,,,,,,,,,,,,,,,,,,,,,,,,,,,,,,,,,,,,,,,,,,,,,,,,,,,,,,,,,,,,,,,,,,,,,,,,,,,,,,,,,,,,,,,,,,,,,,,,,,,,,,,,,,,,,,,,,,,,,,,,,,,,,,,,,,,,,,,,,,,,,,,,,,,,,,,,,,,,,
,,,,,,60fd8eafe88dceaddd8dee71,62c53a0eb173bbfd2c792f50,2022-07-06_09h30.52.210,Colour_Asymmetry_Pilot,2022.1.3,Win32,60.05645307,62c50e9c1127f2cd403a315f,0,155,155,34,1,twoone,,,,,,,,,,,,,,,,,,,,,,,,,,,,,,,,,,,,,,,,,,,,,,,,,,,,,,,,,,,,,,,,,,,,,,,,,,,,,,,,,,,,,,,,,,,,,,,,,,,,,,,,,,,,,,,,,,,,,,,,,,,,,,,,,,,,,,,,,,,,,,,,,,,,,,,,,,,,,
,,,,,,60fd8eafe88dceaddd8dee71,62c53a0eb173bbfd2c792f50,2022-07-06_09h30.52.210,Colour_Asymmetry_Pilot,2022.1.3,Win32,60.05645307,62c50e9c1127f2cd403a315f,0,156,156,47,1,fourthree,,,,,,,,,,,,,,,,,,,,,,,,,,,,,,,,,,,,,,,,,,,,,,,,,,,,,,,,,,,,,,,,,,,,,,,,,,,,,,,,,,,,,,,,,,,,,,,,,,,,,,,,,,,,,,,,,,,,,,,,,,,,,,,,,,,,,,,,,,,,,,,,,,,,,,,,,,,,,
,,,,,,60fd8eafe88dceaddd8dee71,62c53a0eb173bbfd2c792f50,2022-07-06_09h30.52.210,Colour_Asymmetry_Pilot,2022.1.3,Win32,60.05645307,62c50e9c1127f2cd403a315f,0,157,157,99,1,twofour,,,,,,,,,,,,,,,,,,,,,,,,,,,,,,,,,,,,,,,,,,,,,,,,,,,,,,,,,,,,,,,,,,,,,,,,,,,,,,,,,,,,,,,,,,,,,,,,,,,,,,,,,,,,,,,,,,,,,,,,,,,,,,,,,,,,,,,,,,,,,,,,,,,,,,,,,,,,,
,,,,,,60fd8eafe88dceaddd8dee71,62c53a0eb173bbfd2c792f50,2022-07-06_09h30.52.210,Colour_Asymmetry_Pilot,2022.1.3,Win32,60.05645307,62c50e9c1127f2cd403a315f,0,158,158,38,1,fourtwo,,,,,,,,,,,,,,,,,,,,,,,,,,,,,,,,,,,,,,,,,,,,,,,,,,,,,,,,,,,,,,,,,,,,,,,,,,,,,,,,,,,,,,,,,,,,,,,,,,,,,,,,,,,,,,,,,,,,,,,,,,,,,,,,,,,,,,,,,,,,,,,,,,,,,,,,,,,,,
,,,,,,60fd8eafe88dceaddd8dee71,62c53a0eb173bbfd2c792f50,2022-07-06_09h30.52.210,Colour_Asymmetry_Pilot,2022.1.3,Win32,60.05645307,62c50e9c1127f2cd403a315f,0,159,159,153,1,onethree,,,,,,,,,,,,,,,,,,,,,,,,,,,,,,,,,,,,,,,,,,,,,,,,,,,,,,,,,,,,,,,,,,,,,,,,,,,,,,,,,,,,,,,,,,,,,,,,,,,,,,,,,,,,,,,,,,,,,,,,,,,,,,,,,,,,,,,,,,,,,,,,,,,,,,,,,,,,,
,,,,,,60fd8eafe88dceaddd8dee71,62c53a0eb173bbfd2c792f50,2022-07-06_09h30.52.210,Colour_Asymmetry_Pilot,2022.1.3,Win32,60.05645307,62c50e9c1127f2cd403a315f,0,160,160,117,1,threefour,,,,,,,,,,,,,,,,,,,,,,,,,,,,,,,,,,,,,,,,,,,,,,,,,,,,,,,,,,,,,,,,,,,,,,,,,,,,,,,,,,,,,,,,,,,,,,,,,,,,,,,,,,,,,,,,,,,,,,,,,,,,,,,,,,,,,,,,,,,,,,,,,,,,,,,,,,,,,
,,,,,,60fd8eafe88dceaddd8dee71,62c53a0eb173bbfd2c792f50,2022-07-06_09h30.52.210,Colour_Asymmetry_Pilot,2022.1.3,Win32,60.05645307,62c50e9c1127f2cd403a315f,0,161,161,17,1,onethree,,,,,,,,,,,,,,,,,,,,,,,,,,,,,,,,,,,,,,,,,,,,,,,,,,,,,,,,,,,,,,,,,,,,,,,,,,,,,,,,,,,,,,,,,,,,,,,,,,,,,,,,,,,,,,,,,,,,,,,,,,,,,,,,,,,,,,,,,,,,,,,,,,,,,,,,,,,,,
,,,,,,60fd8eafe88dceaddd8dee71,62c53a0eb173bbfd2c792f50,2022-07-06_09h30.52.210,Colour_Asymmetry_Pilot,2022.1.3,Win32,60.05645307,62c50e9c1127f2cd403a315f,,,,,,,space,6.0975,space,31.6938,space,25.51,space,19.8953,space,6.4855,space,6.0776,"[-0.9688,-0.38039999999999996,-0.41979999999999995]",threeone,"[0.22340000000000004,-0.9296,-0.7884]",-2,20.3105,-78,-35,1,0,0,response5disk_5,0,8,1,0,0,rectangle_8,0,8,1,0,0,1,0,8,1,0,0,0,0,0,0,1,,,,,,,,,,,,,,,,,,,,,,,,,,,,,,,,,,,,,,,,,,,,,,,,,,,,,,,,,,,,,,,,,,,,,,,,,,,,,,,,,,,,,,,,,,,,,,,,,,,,,,,,,,,,,,,,
,,,,,,60fd8eafe88dceaddd8dee71,62c53a0eb173bbfd2c792f50,2022-07-06_09h30.52.210,Colour_Asymmetry_Pilot,2022.1.3,Win32,60.05645307,62c50e9c1127f2cd403a315f,,,,,,,,,,,,,,,,,,,"[0.9763999999999999,0.8588,-0.05900000000000005]",twofour,"[-0.06680000000000008,-0.45100000000000007,-0.906]",-1,5.9462,-46,-83,1,0,0,response5disk_5,-1,-2,1,0,0,rectangle_8,30,-73,1,0,0,1,-5,3,1,0,0,1,0,1,0,1,response3disk_7,4,rectangle_4,,,,,,,,,,,,,,,,,,,,,,,,,,,,,,,,,,,,,,,,,,,,,,,,,,,,,,,,,,,,,,,,,,,,,,,,,,,,,,,,,,,,,,,,,,,,,,,,,,,,,,,,,,,,,
,,,,,,60fd8eafe88dceaddd8dee71,62c53a0eb173bbfd2c792f50,2022-07-06_09h30.52.210,Colour_Asymmetry_Pilot,2022.1.3,Win32,60.05645307,62c50e9c1127f2cd403a315f,,,,,,,,,,,,,,,,,,,"[-0.09019999999999995,0.44300000000000006,0.5371999999999999]",onetwo,"[-0.48240000000000005,0.3175999999999999,0.2156]",4,3.4477,29,82,1,0,0,response1disk_5,-6,-8,1,0,0,rectangle_8,-6,-8,1,0,0,1,-6,-8,1,0,0,2,0,2,0,1,,,,,,,,,,,,,,,,,,,,,,,,,,,,,,,,,,,,,,,,,,,,,,,,,,,,,,,,,,,,,,,,,,,,,,,,,,,,,,,,,,,,,,,,,,,,,,,,,,,,,,,,,,,,,,,,
,,,,,,60fd8eafe88dceaddd8dee71,62c53a0eb173bbfd2c792f50,2022-07-06_09h30.52.210,Colour_Asymmetry_Pilot,2022.1.3,Win32,60.05645307,62c50e9c1127f2cd403a315f,,,,,,,,,,,,,,,,,,,"[-0.050999999999999934,-0.6706000000000001,-0.804]",fourthree,"[0.09799999999999986,-0.24719999999999998,0.15280000000000005]",-3,3.6971,-72,22,1,0,0,response7disk_5,-25,-10,1,0,0,rectangle_8,-25,-10,1,0,0,1,-25,-10,1,0,0,3,0,3,0,1,,,,,,,,,,,,,,,,,,,,,,,,,,,,,,,,,,,,,,,,,,,,,,,,,,,,,,,,,,,,,,,,,,,,,,,,,,,,,,,,,,,,,,,,,,,,,,,,,,,,,,,,,,,,,,,,
,,,,,,60fd8eafe88dceaddd8dee71,62c53a0eb173bbfd2c792f50,2022-07-06_09h30.52.210,Colour_Asymmetry_Pilot,2022.1.3,Win32,60.05645307,62c50e9c1127f2cd403a315f,,,,,,,,,,,,,,,,,,,"[-0.0040000000000000036,0.02739999999999987,-0.08239999999999992]",onethree,"[0.12939999999999996,-0.2864,0.3253999999999999]",-3,2.3316,-74,49,1,0,0,response7disk_5,-11,-8,1,0,0,rectangle_8,-11,-8,1,0,0,1,-11,-8,1,0,0,4,0,4,0,1,,,,,,,,,,,,,,,,,,,,,,,,,,,,,,,,,,,,,,,,,,,,,,,,,,,,,,,,,,,,,,,,,,,,,,,,,,,,,,,,,,,,,,,,,,,,,,,,,,,,,,,,,,,,,,,,
,,,,,,60fd8eafe88dceaddd8dee71,62c53a0eb173bbfd2c792f50,2022-07-06_09h30.52.210,Colour_Asymmetry_Pilot,2022.1.3,Win32,60.05645307,62c50e9c1127f2cd403a315f,,,,,,,,,,,,,,,,,,,"[0.7802,-0.23140000000000005,-0.20799999999999996]",twofour,"[0.8274000000000001,-0.5844,-0.9452]",1,4.1966,29,-61,1,0,0,response3disk_5,8,-6,1,0,0,rectangle_8,31,-84,1,0,0,1,3,-7,1,0,0,5,0,5,0,1,response3disk_7,4,rectangle_4,,,,,,,,,,,,,,,,,,,,,,,,,,,,,,,,,,,,,,,,,,,,,,,,,,,,,,,,,,,,,,,,,,,,,,,,,,,,,,,,,,,,,,,,,,,,,,,,,,,,,,,,,,,,,
,,,,,,60fd8eafe88dceaddd8dee71,62c53a0eb173bbfd2c792f50,2022-07-06_09h30.52.210,Colour_Asymmetry_Pilot,2022.1.3,Win32,60.05645307,62c50e9c1127f2cd403a315f,,,,,,,,,,,,,,,,,,,"[-0.9766,-0.34920000000000007,0.2156]",onethree,"[-0.34920000000000007,-0.702,-0.5216]",-1,3.8452,-33,-83,1,0,0,response5disk_5,-20,-5,1,0,0,rectangle_8,-20,-5,1,0,0,1,-20,-5,1,0,0,6,0,6,0,1,,,,,,,,,,,,,,,,,,,,,,,,,,,,,,,,,,,,,,,,,,,,,,,,,,,,,,,,,,,,,,,,,,,,,,,,,,,,,,,,,,,,,,,,,,,,,,,,,,,,,,,,,,,,,,,,
,,,,,,60fd8eafe88dceaddd8dee71,62c53a0eb173bbfd2c792f50,2022-07-06_09h30.52.210,Colour_Asymmetry_Pilot,2022.1.3,Win32,60.05645307,62c50e9c1127f2cd403a315f,,,,,,,,,,,,,,,,,,,,threeone,,-3,2.8984,,,,,,,,,,,,,,,,,,,,,,,,,,,,,,,,space,4.9659,"[0.9686000000000001,0.5763999999999998,0.11359999999999992]","[-0.9688,-0.7412000000000001,-0.4902000000000001]",-90,34,1,0,0,response7disk,-4,5,1,0,0,rectangle,-4,5,1,0,0,,1,0.0017,0,-4,5,1,0,0,0,0,0,126,1,45,second,,,,,,,,,,,,,,,,,,,,,,,,,,,,,,,,,,,,,,,,,,,,,,,,,,,,,,,,,,,,,,,,,,,,,,,,
,,,,,,60fd8eafe88dceaddd8dee71,62c53a0eb173bbfd2c792f50,2022-07-06_09h30.52.210,Colour_Asymmetry_Pilot,2022.1.3,Win32,60.05645307,62c50e9c1127f2cd403a315f,,,,,,,,,,,,,,,,,,,,twofour,,-1,1.8825,,,,,,,,,,,,,,,,,,,,,,,,,,,,,,,,,,"[0.3881999999999999,-0.23939999999999995,-0.05040000000000011]","[0.796,0.2156,-0.27859999999999996]",-31,-85,1,0,0,response5disk,-1,-1,1,0,0,rectangle,-1,-1,1,0,0,,1,0.0007,0,-1,-1,1,0,0,0,1,1,42,1,42,first,,,,,,,,,,,,,,,,,,,,,,,,,,,,,,,,,,,,,,,,,,,,,,,,,,,,,,,,,,,,,,,,,,,,,,,,
,,,,,,60fd8eafe88dceaddd8dee71,62c53a0eb173bbfd2c792f50,2022-07-06_09h30.52.210,Colour_Asymmetry_Pilot,2022.1.3,Win32,60.05645307,62c50e9c1127f2cd403a315f,,,,,,,,,,,,,,,,,,,,onethree,,-2,2.3671,,,,,,,,,,,,,,,,,,,,,,,,,,,,,,,,,,"[0.9686000000000001,0.3802000000000001,0.19999999999999996]","[0.9842,0.7409999999999999,-0.6628000000000001]",-77,-41,1,0,0,response5disk,-9,-2,1,0,0,rectangle,-9,-2,1,0,0,,1,9.99999E-05,0,-9,-2,1,0,0,0,2,2,154,1,73,second,,,,,,,,,,,,,,,,,,,,,,,,,,,,,,,,,,,,,,,,,,,,,,,,,,,,,,,,,,,,,,,,,,,,,,,,
,,,,,,60fd8eafe88dceaddd8dee71,62c53a0eb173bbfd2c792f50,2022-07-06_09h30.52.210,Colour_Asymmetry_Pilot,2022.1.3,Win32,60.05645307,62c50e9c1127f2cd403a315f,,,,,,,,,,,,,,,,,,,,onetwo,,-4,2.6996,,,,,,,,,,,,,,,,,,,,,,,,,,,,,,,,,,"[0.23120000000000007,-0.7726,-0.34120000000000006]","[0.3802000000000001,0.19199999999999995,-0.6394]",-54,87,1,0,0,response7disk,3,-11,1,0,0,rectangle,3,-11,1,0,0,,2,0.0009,0,3,-11,1,0,0,0,3,3,62,1,62,first,,,,,,,,,,,,,,,,,,,,,,,,,,,,,,,,,,,,,,,,,,,,,,,,,,,,,,,,,,,,,,,,,,,,,,,,
,,,,,,60fd8eafe88dceaddd8dee71,62c53a0eb173bbfd2c792f50,2022-07-06_09h30.52.210,Colour_Asymmetry_Pilot,2022.1.3,Win32,60.05645307,62c50e9c1127f2cd403a315f,,,,,,,,,,,,,,,,,,,,onetwo,,-2,1.0654,,,,,,,,,,,,,,,,,,,,,,,,,,,,,,,,,,"[-0.9844,-0.9688,-0.9922]","[-0.34920000000000007,-0.702,-0.5216]",-66,-44,1,0,0,response5disk,-2,-1,1,0,0,rectangle,-2,-1,1,0,0,,2,0.0003,0,-2,-1,1,0,0,0,4,4,157,1,76,second,,,,,,,,,,,,,,,,,,,,,,,,,,,,,,,,,,,,,,,,,,,,,,,,,,,,,,,,,,,,,,,,,,,,,,,,
,,,,,,60fd8eafe88dceaddd8dee71,62c53a0eb173bbfd2c792f50,2022-07-06_09h30.52.210,Colour_Asymmetry_Pilot,2022.1.3,Win32,60.05645307,62c50e9c1127f2cd403a315f,,,,,,,,,,,,,,,,,,,,threefour,,-1,1.1501,,,,,,,,,,,,,,,,,,,,,,,,,,,,,,,,,,"[0.796,0.2156,-0.27859999999999996]","[0.3881999999999999,-0.23939999999999995,-0.05040000000000011]",-44,-71,1,0,0,response5disk,-4,-3,1,0,0,rectangle,-4,-3,1,0,0,,1,0.0008,0,-4,-3,1,0,0,0,5,5,123,1,42,second,,,,,,,,,,,,,,,,,,,,,,,,,,,,,,,,,,,,,,,,,,,,,,,,,,,,,,,,,,,,,,,,,,,,,,,,
,,,,,,60fd8eafe88dceaddd8dee71,62c53a0eb173bbfd2c792f50,2022-07-06_09h30.52.210,Colour_Asymmetry_Pilot,2022.1.3,Win32,60.05645307,62c50e9c1127f2cd403a315f,,,,,,,,,,,,,,,,,,,,threeone,,-2,2.2161,,,,,,,,,,,,,,,,,,,,,,,,,,,,,,,,,,"[0.22340000000000004,-0.9296,-0.7884]","[0.9686000000000001,0.3802000000000001,0.19999999999999996]",-92,-18,1,0,0,response5disk,6,2,1,0,0,rectangle,6,2,1,0,0,,3,0.0007,0,6,2,1,0,0,0,6,6,79,1,79,first,,,,,,,,,,,,,,,,,,,,,,,,,,,,,,,,,,,,,,,,,,,,,,,,,,,,,,,,,,,,,,,,,,,,,,,,
,,,,,,60fd8eafe88dceaddd8dee71,62c53a0eb173bbfd2c792f50,2022-07-06_09h30.52.210,Colour_Asymmetry_Pilot,2022.1.3,Win32,60.05645307,62c50e9c1127f2cd403a315f,,,,,,,,,,,,,,,,,,,,threeone,,-3,1.982,,,,,,,,,,,,,,,,,,,,,,,,,,,,,,,,,,"[0.0351999999999999,0.41159999999999997,0.0038000000000000256]","[-0.4982,-0.2942,-0.0354000000000001]",-75,34,1,0,0,response7disk,-7,-1,1,0,0,rectangle,-7,-1,1,0,0,,3,0.0002,0,-7,-1,1,0,0,0,7,7,111,1,30,second,,,,,,,,,,,,,,,,,,,,,,,,,,,,,,,,,,,,,,,,,,,,,,,,,,,,,,,,,,,,,,,,,,,,,,,,
,,,,,,60fd8eafe88dceaddd8dee71,62c53a0eb173bbfd2c792f50,2022-07-06_09h30.52.210,Colour_Asymmetry_Pilot,2022.1.3,Win32,60.05645307,62c50e9c1127f2cd403a315f,,,,,,,,,,,,,,,,,,,,fourthree,,-2,1.3327,,,,,,,,,,,,,,,,,,,,,,,,,,,,,,,,,,"[-0.5688,-0.08239999999999992,-0.1844]","[0.6547999999999998,-0.043199999999999905,-0.011800000000000033]",-63,-30,1,0,0,response5disk,-6,-2,1,0,0,rectangle,-6,-2,1,0,0,,2,0.0008,0,-6,-2,1,0,0,0,8,8,12,1,12,first,,,,,,,,,,,,,,,,,,,,,,,,,,,,,,,,,,,,,,,,,,,,,,,,,,,,,,,,,,,,,,,,,,,,,,,,
,,,,,,60fd8eafe88dceaddd8dee71,62c53a0eb173bbfd2c792f50,2022-07-06_09h30.52.210,Colour_Asymmetry_Pilot,2022.1.3,Win32,60.05645307,62c50e9c1127f2cd403a315f,,,,,,,,,,,,,,,,,,,,fourthree,,-2,1.735,,,,,,,,,,,,,,,,,,,,,,,,,,,,,,,,,,"[0.6547999999999998,-0.043199999999999905,-0.011800000000000033]","[0.9842,0.7409999999999999,-0.6628000000000001]",-104,-36,1,0,0,response5disk,-2,0,1,0,0,rectangle,-2,0,1,0,0,,2,0.0002,0,-2,0,1,0,0,0,9,9,114,1,33,second,,,,,,,,,,,,,,,,,,,,,,,,,,,,,,,,,,,,,,,,,,,,,,,,,,,,,,,,,,,,,,,,,,,,,,,,
,,,,,,60fd8eafe88dceaddd8dee71,62c53a0eb173bbfd2c792f50,2022-07-06_09h30.52.210,Colour_Asymmetry_Pilot,2022.1.3,Win32,60.05645307,62c50e9c1127f2cd403a315f,,,,,,,,,,,,,,,,,,,,threeone,,-4,1.6819,,,,,,,,,,,,,,,,,,,,,,,,,,,,,,,,,,"[0.34099999999999997,0.5841999999999998,-0.9844]","[0.22340000000000004,-0.9296,-0.7884]",-59,85,1,0,0,response7disk,-8,6,1,0,0,rectangle,-8,6,1,0,0,,3,0.0022,0,-8,6,1,0,0,0,10,10,142,1,61,second,,,,,,,,,,,,,,,,,,,,,,,,,,,,,,,,,,,,,,,,,,,,,,,,,,,,,,,,,,,,,,,,,,,,,,,,
,,,,,,60fd8eafe88dceaddd8dee71,62c53a0eb173bbfd2c792f50,2022-07-06_09h30.52.210,Colour_Asymmetry_Pilot,2022.1.3,Win32,60.05645307,62c50e9c1127f2cd403a315f,,,,,,,,,,,,,,,,,,,,fourthree,,1,4.4987,,,,,,,,,,,,,,,,,,,,,,,,,,,,,,,,,,"[-0.10599999999999998,-0.10599999999999998,0.5841999999999998]","[-0.9688,-0.4902000000000001,-0.12159999999999993]",37,-77,1,0,0,response3disk,-10,-3,1,0,0,rectangle,-10,-3,1,0,0,,1,0.0008,0,-10,-3,1,0,0,0,11,11,91,1,10,second,,,,,,,,,,,,,,,,,,,,,,,,,,,,,,,,,,,,,,,,,,,,,,,,,,,,,,,,,,,,,,,,,,,,,,,,
,,,,,,60fd8eafe88dceaddd8dee71,62c53a0eb173bbfd2c792f50,2022-07-06_09h30.52.210,Colour_Asymmetry_Pilot,2022.1.3,Win32,60.05645307,62c50e9c1127f2cd403a315f,,,,,,,,,,,,,,,,,,,,twoone,,-1,0.9154,,,,,,,,,,,,,,,,,,,,,,,,,,,,,,,,,,"[0.9763999999999999,0.8588,-0.05900000000000005]","[0.8115999999999999,-0.0040000000000000036,-0.09819999999999995]",-51,-92,1,0,0,response5disk,-6,9,1,0,0,rectangle,-6,9,1,0,0,,2,0.0008,0,-6,9,1,0,0,0,12,12,3,1,3,first,,,,,,,,,,,,,,,,,,,,,,,,,,,,,,,,,,,,,,,,,,,,,,,,,,,,,,,,,,,,,,,,,,,,,,,,
,,,,,,60fd8eafe88dceaddd8dee71,62c53a0eb173bbfd2c792f50,2022-07-06_09h30.52.210,Colour_Asymmetry_Pilot,2022.1.3,Win32,60.05645307,62c50e9c1127f2cd403a315f,,,,,,,,,,,,,,,,,,,,fourthree,,-4,1.332,,,,,,,,,,,,,,,,,,,,,,,,,,,,,,,,,,"[-0.9766,-0.6472,0.07440000000000002]","[0.4196,0.4665999999999999,0.3568]",-50,68,1,0,0,response7disk,3,2,1,0,0,rectangle,3,2,1,0,0,,2,0.0013,0,3,2,1,0,0,0,13,13,83,1,2,second,,,,,,,,,,,,,,,,,,,,,,,,,,,,,,,,,,,,,,,,,,,,,,,,,,,,,,,,,,,,,,,,,,,,,,,,
,,,,,,60fd8eafe88dceaddd8dee71,62c53a0eb173bbfd2c792f50,2022-07-06_09h30.52.210,Colour_Asymmetry_Pilot,2022.1.3,Win32,60.05645307,62c50e9c1127f2cd403a315f,,,,,,,,,,,,,,,,,,,,onethree,,-1,1.685,,,,,,,,,,,,,,,,,,,,,,,,,,,,,,,,,,"[0.8274000000000001,-0.5844,-0.9452]","[-0.06680000000000008,-0.45100000000000007,-0.906]",-48,-61,1,0,0,response5disk,-2,2,1,0,0,rectangle,-2,2,1,0,0,,3,0.0008,0,-2,2,1,0,0,0,14,14,46,1,46,first,,,,,,,,,,,,,,,,,,,,,,,,,,,,,,,,,,,,,,,,,,,,,,,,,,,,,,,,,,,,,,,,,,,,,,,,
,,,,,,60fd8eafe88dceaddd8dee71,62c53a0eb173bbfd2c792f50,2022-07-06_09h30.52.210,Colour_Asymmetry_Pilot,2022.1.3,Win32,60.05645307,62c50e9c1127f2cd403a315f,,,,,,,,,,,,,,,,,,,,threefour,,-3,1.6682,,,,,,,,,,,,,,,,,,,,,,,,,,,,,,,,,,"[-0.2942,-0.24719999999999998,-0.357]","[-0.17659999999999998,0.3253999999999999,0.19999999999999996]",-78,20,1,0,0,response7disk,0,0,1,0,0,rectangle,0,0,1,0,0,,1,0.0009,0,0,0,1,0,0,0,15,15,40,1,40,first,,,,,,,,,,,,,,,,,,,,,,,,,,,,,,,,,,,,,,,,,,,,,,,,,,,,,,,,,,,,,,,,,,,,,,,,
,,,,,,60fd8eafe88dceaddd8dee71,62c53a0eb173bbfd2c792f50,2022-07-06_09h30.52.210,Colour_Asymmetry_Pilot,2022.1.3,Win32,60.05645307,62c50e9c1127f2cd403a315f,,,,,,,,,,,,,,,,,,,,threefour,,-4,1.649,,,,,,,,,,,,,,,,,,,,,,,,,,,,,,,,,,"[-0.5452,-0.608,0.2470000000000001]","[0.8274000000000001,-0.5844,-0.9452]",-29,70,1,0,0,response7disk,-2,2,1,0,0,rectangle,-2,2,1,0,0,,1,9.99999E-05,0,-2,2,1,0,0,0,16,16,148,1,67,second,,,,,,,,,,,,,,,,,,,,,,,,,,,,,,,,,,,,,,,,,,,,,,,,,,,,,,,,,,,,,,,,,,,,,,,,
,,,,,,60fd8eafe88dceaddd8dee71,62c53a0eb173bbfd2c792f50,2022-07-06_09h30.52.210,Colour_Asymmetry_Pilot,2022.1.3,Win32,60.05645307,62c50e9c1127f2cd403a315f,,,,,,,,,,,,,,,,,,,,fourthree,,-1,1.2302,,,,,,,,,,,,,,,,,,,,,,,,,,,,,,,,,,"[-0.9296,-0.12959999999999994,-0.043199999999999905]","[-0.4982,-0.2942,-0.0354000000000001]",-35,-75,1,0,0,response5disk,-4,-8,1,0,0,rectangle,-4,-8,1,0,0,,3,0.001,0,-4,-8,1,0,0,0,17,17,147,1,66,second,,,,,,,,,,,,,,,,,,,,,,,,,,,,,,,,,,,,,,,,,,,,,,,,,,,,,,,,,,,,,,,,,,,,,,,,
