trials.thisRepN,trials.thisTrialN,trials.thisN,trials.thisIndex,trials.ran,Colourcodes,participant,session,date,expName,psychopyVersion,OS,frameRate,study_id,trials_4.thisRepN,trials_4.thisTrialN,trials_4.thisN,trials_4.thisIndex,trials_4.ran,StimulusPos,key_resp.keys,key_resp.rt,key_resp_2.keys,key_resp_2.rt,key_resp_15.keys,key_resp_15.rt,key_resp_17.keys,key_resp_17.rt,key_resp_9.keys,key_resp_9.rt,key_resp_10.keys,key_resp_10.rt,Circle1_col,Ecc,Circle2_col,similarity,response_time,mouse_5.x,mouse_5.y,mouse_5.leftButton,mouse_5.midButton,mouse_5.rightButton,mouse_5.clicked_name,mouse_10.x,mouse_10.y,mouse_10.leftButton,mouse_10.midButton,mouse_10.rightButton,mouse_10.clicked_name,mouse_7.x,mouse_7.y,mouse_7.leftButton,mouse_7.midButton,mouse_7.rightButton,mouse_7.clicked_name,catchprac,catchnumberprac,mouse_6.x,mouse_6.y,mouse_6.leftButton,mouse_6.midButton,mouse_6.rightButton,mouse_6.clicked_name,duringprac.thisRepN,duringprac.thisTrialN,duringprac.thisN,duringprac.thisIndex,duringprac.ran,key_resp_22.keys,key_resp_22.rt,Circle1_colour,Circle2_colour,mouse.x,mouse.y,mouse.leftButton,mouse.midButton,mouse.rightButton,mouse.clicked_name,mouse_2.x,mouse_2.y,mouse_2.leftButton,mouse_2.midButton,mouse_2.rightButton,mouse_2.clicked_name,mouse_3.x,mouse_3.y,mouse_3.leftButton,mouse_3.midButton,mouse_3.rightButton,catchresponse,catchnumber,response_time_catch,Catch,mouse_11.x,mouse_11.y,mouse_11.leftButton,mouse_11.midButton,mouse_11.rightButton,trials_2.thisRepN,trials_2.thisTrialN,trials_2.thisN,trials_2.thisIndex,trials_2.ran,Colourpair,Temporder,mouse_3.clicked_name,mouse_11.clicked_name,trials_3.thisRepN,trials_3.thisTrialN,trials_3.thisN,trials_3.thisIndex,trials_3.ran,key_resp_instr_Ishi.keys,key_resp_instr_Ishi.rt,Ishi_trial_keyresp.keys,Ishi_trial_keyresp.rt,Ishi_textbox.text,Ishi_mouse.x,Ishi_mouse.y,Ishi_mouse.leftButton,Ishi_mouse.midButton,Ishi_mouse.rightButton,Ishi_loop.thisRepN,Ishi_loop.thisTrialN,Ishi_loop.thisN,Ishi_loop.thisIndex,Ishi_loop.ran,imageaddress,textbox.text,mouse_4.x,mouse_4.y,mouse_4.leftButton,mouse_4.midButton,mouse_4.rightButton,mouse_4.clicked_name,textbox_2.text,mouse_8.x,mouse_8.y,mouse_8.leftButton,mouse_8.midButton,mouse_8.rightButton,mouse_8.clicked_name,textbox_3.text,mouse_9.x,mouse_9.y,mouse_9.leftButton,mouse_9.midButton,mouse_9.rightButton,mouse_9.clicked_name,textbox_4.text,mouse_12.x,mouse_12.y,mouse_12.leftButton,mouse_12.midButton,mouse_12.rightButton,mouse_12.clicked_name,textbox_5.text,mouse_13.x,mouse_13.y,mouse_13.leftButton,mouse_13.midButton,mouse_13.rightButton,mouse_13.clicked_name,textbox_6.text,mouse_14.x,mouse_14.y,mouse_14.leftButton,mouse_14.midButton,mouse_14.rightButton,textbox_7.text,mouse_15.x,mouse_15.y,mouse_15.leftButton,mouse_15.midButton,mouse_15.rightButton
0,0,0,55,1,,610778fe744943d12ecab3cc,62c53892676c34b35019437d,2022-07-06_09h25.36.855,Colour_Asymmetry_Pilot,2022.1.3,Win32,60.10337781,62c50e9c1127f2cd403a315f,,,,,,,,,,,,,,,,,,,,,,,,,,,,,,,,,,,,,,,,,,,,,,,,,,,,,,,,,,,,,,,,,,,,,,,,,,,,,,,,,,,,,,,,,,,,,,,,,,,,,,,,,,,,,,,,,,,,,,,,,,,,,,,,,,,,,,,,,,,,,,,,,,,,,,,,,,,,,,,,,
0,1,1,31,1,,610778fe744943d12ecab3cc,62c53892676c34b35019437d,2022-07-06_09h25.36.855,Colour_Asymmetry_Pilot,2022.1.3,Win32,60.10337781,62c50e9c1127f2cd403a315f,,,,,,,,,,,,,,,,,,,,,,,,,,,,,,,,,,,,,,,,,,,,,,,,,,,,,,,,,,,,,,,,,,,,,,,,,,,,,,,,,,,,,,,,,,,,,,,,,,,,,,,,,,,,,,,,,,,,,,,,,,,,,,,,,,,,,,,,,,,,,,,,,,,,,,,,,,,,,,,,,
0,2,2,24,1,,610778fe744943d12ecab3cc,62c53892676c34b35019437d,2022-07-06_09h25.36.855,Colour_Asymmetry_Pilot,2022.1.3,Win32,60.10337781,62c50e9c1127f2cd403a315f,,,,,,,,,,,,,,,,,,,,,,,,,,,,,,,,,,,,,,,,,,,,,,,,,,,,,,,,,,,,,,,,,,,,,,,,,,,,,,,,,,,,,,,,,,,,,,,,,,,,,,,,,,,,,,,,,,,,,,,,,,,,,,,,,,,,,,,,,,,,,,,,,,,,,,,,,,,,,,,,,
0,3,3,40,1,,610778fe744943d12ecab3cc,62c53892676c34b35019437d,2022-07-06_09h25.36.855,Colour_Asymmetry_Pilot,2022.1.3,Win32,60.10337781,62c50e9c1127f2cd403a315f,,,,,,,,,,,,,,,,,,,,,,,,,,,,,,,,,,,,,,,,,,,,,,,,,,,,,,,,,,,,,,,,,,,,,,,,,,,,,,,,,,,,,,,,,,,,,,,,,,,,,,,,,,,,,,,,,,,,,,,,,,,,,,,,,,,,,,,,,,,,,,,,,,,,,,,,,,,,,,,,,
0,4,4,14,1,,610778fe744943d12ecab3cc,62c53892676c34b35019437d,2022-07-06_09h25.36.855,Colour_Asymmetry_Pilot,2022.1.3,Win32,60.10337781,62c50e9c1127f2cd403a315f,,,,,,,,,,,,,,,,,,,,,,,,,,,,,,,,,,,,,,,,,,,,,,,,,,,,,,,,,,,,,,,,,,,,,,,,,,,,,,,,,,,,,,,,,,,,,,,,,,,,,,,,,,,,,,,,,,,,,,,,,,,,,,,,,,,,,,,,,,,,,,,,,,,,,,,,,,,,,,,,,
0,5,5,20,1,,610778fe744943d12ecab3cc,62c53892676c34b35019437d,2022-07-06_09h25.36.855,Colour_Asymmetry_Pilot,2022.1.3,Win32,60.10337781,62c50e9c1127f2cd403a315f,,,,,,,,,,,,,,,,,,,,,,,,,,,,,,,,,,,,,,,,,,,,,,,,,,,,,,,,,,,,,,,,,,,,,,,,,,,,,,,,,,,,,,,,,,,,,,,,,,,,,,,,,,,,,,,,,,,,,,,,,,,,,,,,,,,,,,,,,,,,,,,,,,,,,,,,,,,,,,,,,
0,6,6,37,1,,610778fe744943d12ecab3cc,62c53892676c34b35019437d,2022-07-06_09h25.36.855,Colour_Asymmetry_Pilot,2022.1.3,Win32,60.10337781,62c50e9c1127f2cd403a315f,,,,,,,,,,,,,,,,,,,,,,,,,,,,,,,,,,,,,,,,,,,,,,,,,,,,,,,,,,,,,,,,,,,,,,,,,,,,,,,,,,,,,,,,,,,,,,,,,,,,,,,,,,,,,,,,,,,,,,,,,,,,,,,,,,,,,,,,,,,,,,,,,,,,,,,,,,,,,,,,,
0,7,7,39,1,,610778fe744943d12ecab3cc,62c53892676c34b35019437d,2022-07-06_09h25.36.855,Colour_Asymmetry_Pilot,2022.1.3,Win32,60.10337781,62c50e9c1127f2cd403a315f,,,,,,,,,,,,,,,,,,,,,,,,,,,,,,,,,,,,,,,,,,,,,,,,,,,,,,,,,,,,,,,,,,,,,,,,,,,,,,,,,,,,,,,,,,,,,,,,,,,,,,,,,,,,,,,,,,,,,,,,,,,,,,,,,,,,,,,,,,,,,,,,,,,,,,,,,,,,,,,,,
0,8,8,41,1,,610778fe744943d12ecab3cc,62c53892676c34b35019437d,2022-07-06_09h25.36.855,Colour_Asymmetry_Pilot,2022.1.3,Win32,60.10337781,62c50e9c1127f2cd403a315f,,,,,,,,,,,,,,,,,,,,,,,,,,,,,,,,,,,,,,,,,,,,,,,,,,,,,,,,,,,,,,,,,,,,,,,,,,,,,,,,,,,,,,,,,,,,,,,,,,,,,,,,,,,,,,,,,,,,,,,,,,,,,,,,,,,,,,,,,,,,,,,,,,,,,,,,,,,,,,,,,
0,9,9,71,1,,610778fe744943d12ecab3cc,62c53892676c34b35019437d,2022-07-06_09h25.36.855,Colour_Asymmetry_Pilot,2022.1.3,Win32,60.10337781,62c50e9c1127f2cd403a315f,,,,,,,,,,,,,,,,,,,,,,,,,,,,,,,,,,,,,,,,,,,,,,,,,,,,,,,,,,,,,,,,,,,,,,,,,,,,,,,,,,,,,,,,,,,,,,,,,,,,,,,,,,,,,,,,,,,,,,,,,,,,,,,,,,,,,,,,,,,,,,,,,,,,,,,,,,,,,,,,,
0,10,10,74,1,,610778fe744943d12ecab3cc,62c53892676c34b35019437d,2022-07-06_09h25.36.855,Colour_Asymmetry_Pilot,2022.1.3,Win32,60.10337781,62c50e9c1127f2cd403a315f,,,,,,,,,,,,,,,,,,,,,,,,,,,,,,,,,,,,,,,,,,,,,,,,,,,,,,,,,,,,,,,,,,,,,,,,,,,,,,,,,,,,,,,,,,,,,,,,,,,,,,,,,,,,,,,,,,,,,,,,,,,,,,,,,,,,,,,,,,,,,,,,,,,,,,,,,,,,,,,,,
0,11,11,21,1,,610778fe744943d12ecab3cc,62c53892676c34b35019437d,2022-07-06_09h25.36.855,Colour_Asymmetry_Pilot,2022.1.3,Win32,60.10337781,62c50e9c1127f2cd403a315f,,,,,,,,,,,,,,,,,,,,,,,,,,,,,,,,,,,,,,,,,,,,,,,,,,,,,,,,,,,,,,,,,,,,,,,,,,,,,,,,,,,,,,,,,,,,,,,,,,,,,,,,,,,,,,,,,,,,,,,,,,,,,,,,,,,,,,,,,,,,,,,,,,,,,,,,,,,,,,,,,
0,12,12,58,1,,610778fe744943d12ecab3cc,62c53892676c34b35019437d,2022-07-06_09h25.36.855,Colour_Asymmetry_Pilot,2022.1.3,Win32,60.10337781,62c50e9c1127f2cd403a315f,,,,,,,,,,,,,,,,,,,,,,,,,,,,,,,,,,,,,,,,,,,,,,,,,,,,,,,,,,,,,,,,,,,,,,,,,,,,,,,,,,,,,,,,,,,,,,,,,,,,,,,,,,,,,,,,,,,,,,,,,,,,,,,,,,,,,,,,,,,,,,,,,,,,,,,,,,,,,,,,,
0,13,13,6,1,,610778fe744943d12ecab3cc,62c53892676c34b35019437d,2022-07-06_09h25.36.855,Colour_Asymmetry_Pilot,2022.1.3,Win32,60.10337781,62c50e9c1127f2cd403a315f,,,,,,,,,,,,,,,,,,,,,,,,,,,,,,,,,,,,,,,,,,,,,,,,,,,,,,,,,,,,,,,,,,,,,,,,,,,,,,,,,,,,,,,,,,,,,,,,,,,,,,,,,,,,,,,,,,,,,,,,,,,,,,,,,,,,,,,,,,,,,,,,,,,,,,,,,,,,,,,,,
0,14,14,57,1,,610778fe744943d12ecab3cc,62c53892676c34b35019437d,2022-07-06_09h25.36.855,Colour_Asymmetry_Pilot,2022.1.3,Win32,60.10337781,62c50e9c1127f2cd403a315f,,,,,,,,,,,,,,,,,,,,,,,,,,,,,,,,,,,,,,,,,,,,,,,,,,,,,,,,,,,,,,,,,,,,,,,,,,,,,,,,,,,,,,,,,,,,,,,,,,,,,,,,,,,,,,,,,,,,,,,,,,,,,,,,,,,,,,,,,,,,,,,,,,,,,,,,,,,,,,,,,
0,15,15,64,1,,610778fe744943d12ecab3cc,62c53892676c34b35019437d,2022-07-06_09h25.36.855,Colour_Asymmetry_Pilot,2022.1.3,Win32,60.10337781,62c50e9c1127f2cd403a315f,,,,,,,,,,,,,,,,,,,,,,,,,,,,,,,,,,,,,,,,,,,,,,,,,,,,,,,,,,,,,,,,,,,,,,,,,,,,,,,,,,,,,,,,,,,,,,,,,,,,,,,,,,,,,,,,,,,,,,,,,,,,,,,,,,,,,,,,,,,,,,,,,,,,,,,,,,,,,,,,,
0,16,16,44,1,,610778fe744943d12ecab3cc,62c53892676c34b35019437d,2022-07-06_09h25.36.855,Colour_Asymmetry_Pilot,2022.1.3,Win32,60.10337781,62c50e9c1127f2cd403a315f,,,,,,,,,,,,,,,,,,,,,,,,,,,,,,,,,,,,,,,,,,,,,,,,,,,,,,,,,,,,,,,,,,,,,,,,,,,,,,,,,,,,,,,,,,,,,,,,,,,,,,,,,,,,,,,,,,,,,,,,,,,,,,,,,,,,,,,,,,,,,,,,,,,,,,,,,,,,,,,,,
0,17,17,62,1,,610778fe744943d12ecab3cc,62c53892676c34b35019437d,2022-07-06_09h25.36.855,Colour_Asymmetry_Pilot,2022.1.3,Win32,60.10337781,62c50e9c1127f2cd403a315f,,,,,,,,,,,,,,,,,,,,,,,,,,,,,,,,,,,,,,,,,,,,,,,,,,,,,,,,,,,,,,,,,,,,,,,,,,,,,,,,,,,,,,,,,,,,,,,,,,,,,,,,,,,,,,,,,,,,,,,,,,,,,,,,,,,,,,,,,,,,,,,,,,,,,,,,,,,,,,,,,
0,18,18,85,1,,610778fe744943d12ecab3cc,62c53892676c34b35019437d,2022-07-06_09h25.36.855,Colour_Asymmetry_Pilot,2022.1.3,Win32,60.10337781,62c50e9c1127f2cd403a315f,,,,,,,,,,,,,,,,,,,,,,,,,,,,,,,,,,,,,,,,,,,,,,,,,,,,,,,,,,,,,,,,,,,,,,,,,,,,,,,,,,,,,,,,,,,,,,,,,,,,,,,,,,,,,,,,,,,,,,,,,,,,,,,,,,,,,,,,,,,,,,,,,,,,,,,,,,,,,,,,,
0,19,19,28,1,,610778fe744943d12ecab3cc,62c53892676c34b35019437d,2022-07-06_09h25.36.855,Colour_Asymmetry_Pilot,2022.1.3,Win32,60.10337781,62c50e9c1127f2cd403a315f,,,,,,,,,,,,,,,,,,,,,,,,,,,,,,,,,,,,,,,,,,,,,,,,,,,,,,,,,,,,,,,,,,,,,,,,,,,,,,,,,,,,,,,,,,,,,,,,,,,,,,,,,,,,,,,,,,,,,,,,,,,,,,,,,,,,,,,,,,,,,,,,,,,,,,,,,,,,,,,,,
0,20,20,35,1,,610778fe744943d12ecab3cc,62c53892676c34b35019437d,2022-07-06_09h25.36.855,Colour_Asymmetry_Pilot,2022.1.3,Win32,60.10337781,62c50e9c1127f2cd403a315f,,,,,,,,,,,,,,,,,,,,,,,,,,,,,,,,,,,,,,,,,,,,,,,,,,,,,,,,,,,,,,,,,,,,,,,,,,,,,,,,,,,,,,,,,,,,,,,,,,,,,,,,,,,,,,,,,,,,,,,,,,,,,,,,,,,,,,,,,,,,,,,,,,,,,,,,,,,,,,,,,
0,21,21,16,1,,610778fe744943d12ecab3cc,62c53892676c34b35019437d,2022-07-06_09h25.36.855,Colour_Asymmetry_Pilot,2022.1.3,Win32,60.10337781,62c50e9c1127f2cd403a315f,,,,,,,,,,,,,,,,,,,,,,,,,,,,,,,,,,,,,,,,,,,,,,,,,,,,,,,,,,,,,,,,,,,,,,,,,,,,,,,,,,,,,,,,,,,,,,,,,,,,,,,,,,,,,,,,,,,,,,,,,,,,,,,,,,,,,,,,,,,,,,,,,,,,,,,,,,,,,,,,,
0,22,22,77,1,,610778fe744943d12ecab3cc,62c53892676c34b35019437d,2022-07-06_09h25.36.855,Colour_Asymmetry_Pilot,2022.1.3,Win32,60.10337781,62c50e9c1127f2cd403a315f,,,,,,,,,,,,,,,,,,,,,,,,,,,,,,,,,,,,,,,,,,,,,,,,,,,,,,,,,,,,,,,,,,,,,,,,,,,,,,,,,,,,,,,,,,,,,,,,,,,,,,,,,,,,,,,,,,,,,,,,,,,,,,,,,,,,,,,,,,,,,,,,,,,,,,,,,,,,,,,,,
0,23,23,75,1,,610778fe744943d12ecab3cc,62c53892676c34b35019437d,2022-07-06_09h25.36.855,Colour_Asymmetry_Pilot,2022.1.3,Win32,60.10337781,62c50e9c1127f2cd403a315f,,,,,,,,,,,,,,,,,,,,,,,,,,,,,,,,,,,,,,,,,,,,,,,,,,,,,,,,,,,,,,,,,,,,,,,,,,,,,,,,,,,,,,,,,,,,,,,,,,,,,,,,,,,,,,,,,,,,,,,,,,,,,,,,,,,,,,,,,,,,,,,,,,,,,,,,,,,,,,,,,
0,24,24,1,1,,610778fe744943d12ecab3cc,62c53892676c34b35019437d,2022-07-06_09h25.36.855,Colour_Asymmetry_Pilot,2022.1.3,Win32,60.10337781,62c50e9c1127f2cd403a315f,,,,,,,,,,,,,,,,,,,,,,,,,,,,,,,,,,,,,,,,,,,,,,,,,,,,,,,,,,,,,,,,,,,,,,,,,,,,,,,,,,,,,,,,,,,,,,,,,,,,,,,,,,,,,,,,,,,,,,,,,,,,,,,,,,,,,,,,,,,,,,,,,,,,,,,,,,,,,,,,,
0,25,25,66,1,,610778fe744943d12ecab3cc,62c53892676c34b35019437d,2022-07-06_09h25.36.855,Colour_Asymmetry_Pilot,2022.1.3,Win32,60.10337781,62c50e9c1127f2cd403a315f,,,,,,,,,,,,,,,,,,,,,,,,,,,,,,,,,,,,,,,,,,,,,,,,,,,,,,,,,,,,,,,,,,,,,,,,,,,,,,,,,,,,,,,,,,,,,,,,,,,,,,,,,,,,,,,,,,,,,,,,,,,,,,,,,,,,,,,,,,,,,,,,,,,,,,,,,,,,,,,,,
0,26,26,48,1,,610778fe744943d12ecab3cc,62c53892676c34b35019437d,2022-07-06_09h25.36.855,Colour_Asymmetry_Pilot,2022.1.3,Win32,60.10337781,62c50e9c1127f2cd403a315f,,,,,,,,,,,,,,,,,,,,,,,,,,,,,,,,,,,,,,,,,,,,,,,,,,,,,,,,,,,,,,,,,,,,,,,,,,,,,,,,,,,,,,,,,,,,,,,,,,,,,,,,,,,,,,,,,,,,,,,,,,,,,,,,,,,,,,,,,,,,,,,,,,,,,,,,,,,,,,,,,
0,27,27,19,1,,610778fe744943d12ecab3cc,62c53892676c34b35019437d,2022-07-06_09h25.36.855,Colour_Asymmetry_Pilot,2022.1.3,Win32,60.10337781,62c50e9c1127f2cd403a315f,,,,,,,,,,,,,,,,,,,,,,,,,,,,,,,,,,,,,,,,,,,,,,,,,,,,,,,,,,,,,,,,,,,,,,,,,,,,,,,,,,,,,,,,,,,,,,,,,,,,,,,,,,,,,,,,,,,,,,,,,,,,,,,,,,,,,,,,,,,,,,,,,,,,,,,,,,,,,,,,,
0,28,28,9,1,,610778fe744943d12ecab3cc,62c53892676c34b35019437d,2022-07-06_09h25.36.855,Colour_Asymmetry_Pilot,2022.1.3,Win32,60.10337781,62c50e9c1127f2cd403a315f,,,,,,,,,,,,,,,,,,,,,,,,,,,,,,,,,,,,,,,,,,,,,,,,,,,,,,,,,,,,,,,,,,,,,,,,,,,,,,,,,,,,,,,,,,,,,,,,,,,,,,,,,,,,,,,,,,,,,,,,,,,,,,,,,,,,,,,,,,,,,,,,,,,,,,,,,,,,,,,,,
0,29,29,32,1,,610778fe744943d12ecab3cc,62c53892676c34b35019437d,2022-07-06_09h25.36.855,Colour_Asymmetry_Pilot,2022.1.3,Win32,60.10337781,62c50e9c1127f2cd403a315f,,,,,,,,,,,,,,,,,,,,,,,,,,,,,,,,,,,,,,,,,,,,,,,,,,,,,,,,,,,,,,,,,,,,,,,,,,,,,,,,,,,,,,,,,,,,,,,,,,,,,,,,,,,,,,,,,,,,,,,,,,,,,,,,,,,,,,,,,,,,,,,,,,,,,,,,,,,,,,,,,
0,30,30,89,1,,610778fe744943d12ecab3cc,62c53892676c34b35019437d,2022-07-06_09h25.36.855,Colour_Asymmetry_Pilot,2022.1.3,Win32,60.10337781,62c50e9c1127f2cd403a315f,,,,,,,,,,,,,,,,,,,,,,,,,,,,,,,,,,,,,,,,,,,,,,,,,,,,,,,,,,,,,,,,,,,,,,,,,,,,,,,,,,,,,,,,,,,,,,,,,,,,,,,,,,,,,,,,,,,,,,,,,,,,,,,,,,,,,,,,,,,,,,,,,,,,,,,,,,,,,,,,,
0,31,31,4,1,,610778fe744943d12ecab3cc,62c53892676c34b35019437d,2022-07-06_09h25.36.855,Colour_Asymmetry_Pilot,2022.1.3,Win32,60.10337781,62c50e9c1127f2cd403a315f,,,,,,,,,,,,,,,,,,,,,,,,,,,,,,,,,,,,,,,,,,,,,,,,,,,,,,,,,,,,,,,,,,,,,,,,,,,,,,,,,,,,,,,,,,,,,,,,,,,,,,,,,,,,,,,,,,,,,,,,,,,,,,,,,,,,,,,,,,,,,,,,,,,,,,,,,,,,,,,,,
0,32,32,91,1,,610778fe744943d12ecab3cc,62c53892676c34b35019437d,2022-07-06_09h25.36.855,Colour_Asymmetry_Pilot,2022.1.3,Win32,60.10337781,62c50e9c1127f2cd403a315f,,,,,,,,,,,,,,,,,,,,,,,,,,,,,,,,,,,,,,,,,,,,,,,,,,,,,,,,,,,,,,,,,,,,,,,,,,,,,,,,,,,,,,,,,,,,,,,,,,,,,,,,,,,,,,,,,,,,,,,,,,,,,,,,,,,,,,,,,,,,,,,,,,,,,,,,,,,,,,,,,
0,33,33,43,1,,610778fe744943d12ecab3cc,62c53892676c34b35019437d,2022-07-06_09h25.36.855,Colour_Asymmetry_Pilot,2022.1.3,Win32,60.10337781,62c50e9c1127f2cd403a315f,,,,,,,,,,,,,,,,,,,,,,,,,,,,,,,,,,,,,,,,,,,,,,,,,,,,,,,,,,,,,,,,,,,,,,,,,,,,,,,,,,,,,,,,,,,,,,,,,,,,,,,,,,,,,,,,,,,,,,,,,,,,,,,,,,,,,,,,,,,,,,,,,,,,,,,,,,,,,,,,,
0,34,34,42,1,,610778fe744943d12ecab3cc,62c53892676c34b35019437d,2022-07-06_09h25.36.855,Colour_Asymmetry_Pilot,2022.1.3,Win32,60.10337781,62c50e9c1127f2cd403a315f,,,,,,,,,,,,,,,,,,,,,,,,,,,,,,,,,,,,,,,,,,,,,,,,,,,,,,,,,,,,,,,,,,,,,,,,,,,,,,,,,,,,,,,,,,,,,,,,,,,,,,,,,,,,,,,,,,,,,,,,,,,,,,,,,,,,,,,,,,,,,,,,,,,,,,,,,,,,,,,,,
0,35,35,34,1,,610778fe744943d12ecab3cc,62c53892676c34b35019437d,2022-07-06_09h25.36.855,Colour_Asymmetry_Pilot,2022.1.3,Win32,60.10337781,62c50e9c1127f2cd403a315f,,,,,,,,,,,,,,,,,,,,,,,,,,,,,,,,,,,,,,,,,,,,,,,,,,,,,,,,,,,,,,,,,,,,,,,,,,,,,,,,,,,,,,,,,,,,,,,,,,,,,,,,,,,,,,,,,,,,,,,,,,,,,,,,,,,,,,,,,,,,,,,,,,,,,,,,,,,,,,,,,
0,36,36,61,1,,610778fe744943d12ecab3cc,62c53892676c34b35019437d,2022-07-06_09h25.36.855,Colour_Asymmetry_Pilot,2022.1.3,Win32,60.10337781,62c50e9c1127f2cd403a315f,,,,,,,,,,,,,,,,,,,,,,,,,,,,,,,,,,,,,,,,,,,,,,,,,,,,,,,,,,,,,,,,,,,,,,,,,,,,,,,,,,,,,,,,,,,,,,,,,,,,,,,,,,,,,,,,,,,,,,,,,,,,,,,,,,,,,,,,,,,,,,,,,,,,,,,,,,,,,,,,,
0,37,37,81,1,,610778fe744943d12ecab3cc,62c53892676c34b35019437d,2022-07-06_09h25.36.855,Colour_Asymmetry_Pilot,2022.1.3,Win32,60.10337781,62c50e9c1127f2cd403a315f,,,,,,,,,,,,,,,,,,,,,,,,,,,,,,,,,,,,,,,,,,,,,,,,,,,,,,,,,,,,,,,,,,,,,,,,,,,,,,,,,,,,,,,,,,,,,,,,,,,,,,,,,,,,,,,,,,,,,,,,,,,,,,,,,,,,,,,,,,,,,,,,,,,,,,,,,,,,,,,,,
0,38,38,11,1,,610778fe744943d12ecab3cc,62c53892676c34b35019437d,2022-07-06_09h25.36.855,Colour_Asymmetry_Pilot,2022.1.3,Win32,60.10337781,62c50e9c1127f2cd403a315f,,,,,,,,,,,,,,,,,,,,,,,,,,,,,,,,,,,,,,,,,,,,,,,,,,,,,,,,,,,,,,,,,,,,,,,,,,,,,,,,,,,,,,,,,,,,,,,,,,,,,,,,,,,,,,,,,,,,,,,,,,,,,,,,,,,,,,,,,,,,,,,,,,,,,,,,,,,,,,,,,
0,39,39,23,1,,610778fe744943d12ecab3cc,62c53892676c34b35019437d,2022-07-06_09h25.36.855,Colour_Asymmetry_Pilot,2022.1.3,Win32,60.10337781,62c50e9c1127f2cd403a315f,,,,,,,,,,,,,,,,,,,,,,,,,,,,,,,,,,,,,,,,,,,,,,,,,,,,,,,,,,,,,,,,,,,,,,,,,,,,,,,,,,,,,,,,,,,,,,,,,,,,,,,,,,,,,,,,,,,,,,,,,,,,,,,,,,,,,,,,,,,,,,,,,,,,,,,,,,,,,,,,,
0,40,40,22,1,,610778fe744943d12ecab3cc,62c53892676c34b35019437d,2022-07-06_09h25.36.855,Colour_Asymmetry_Pilot,2022.1.3,Win32,60.10337781,62c50e9c1127f2cd403a315f,,,,,,,,,,,,,,,,,,,,,,,,,,,,,,,,,,,,,,,,,,,,,,,,,,,,,,,,,,,,,,,,,,,,,,,,,,,,,,,,,,,,,,,,,,,,,,,,,,,,,,,,,,,,,,,,,,,,,,,,,,,,,,,,,,,,,,,,,,,,,,,,,,,,,,,,,,,,,,,,,
0,41,41,90,1,,610778fe744943d12ecab3cc,62c53892676c34b35019437d,2022-07-06_09h25.36.855,Colour_Asymmetry_Pilot,2022.1.3,Win32,60.10337781,62c50e9c1127f2cd403a315f,,,,,,,,,,,,,,,,,,,,,,,,,,,,,,,,,,,,,,,,,,,,,,,,,,,,,,,,,,,,,,,,,,,,,,,,,,,,,,,,,,,,,,,,,,,,,,,,,,,,,,,,,,,,,,,,,,,,,,,,,,,,,,,,,,,,,,,,,,,,,,,,,,,,,,,,,,,,,,,,,
0,42,42,5,1,,610778fe744943d12ecab3cc,62c53892676c34b35019437d,2022-07-06_09h25.36.855,Colour_Asymmetry_Pilot,2022.1.3,Win32,60.10337781,62c50e9c1127f2cd403a315f,,,,,,,,,,,,,,,,,,,,,,,,,,,,,,,,,,,,,,,,,,,,,,,,,,,,,,,,,,,,,,,,,,,,,,,,,,,,,,,,,,,,,,,,,,,,,,,,,,,,,,,,,,,,,,,,,,,,,,,,,,,,,,,,,,,,,,,,,,,,,,,,,,,,,,,,,,,,,,,,,
0,43,43,83,1,,610778fe744943d12ecab3cc,62c53892676c34b35019437d,2022-07-06_09h25.36.855,Colour_Asymmetry_Pilot,2022.1.3,Win32,60.10337781,62c50e9c1127f2cd403a315f,,,,,,,,,,,,,,,,,,,,,,,,,,,,,,,,,,,,,,,,,,,,,,,,,,,,,,,,,,,,,,,,,,,,,,,,,,,,,,,,,,,,,,,,,,,,,,,,,,,,,,,,,,,,,,,,,,,,,,,,,,,,,,,,,,,,,,,,,,,,,,,,,,,,,,,,,,,,,,,,,
0,44,44,54,1,,610778fe744943d12ecab3cc,62c53892676c34b35019437d,2022-07-06_09h25.36.855,Colour_Asymmetry_Pilot,2022.1.3,Win32,60.10337781,62c50e9c1127f2cd403a315f,,,,,,,,,,,,,,,,,,,,,,,,,,,,,,,,,,,,,,,,,,,,,,,,,,,,,,,,,,,,,,,,,,,,,,,,,,,,,,,,,,,,,,,,,,,,,,,,,,,,,,,,,,,,,,,,,,,,,,,,,,,,,,,,,,,,,,,,,,,,,,,,,,,,,,,,,,,,,,,,,
0,45,45,45,1,,610778fe744943d12ecab3cc,62c53892676c34b35019437d,2022-07-06_09h25.36.855,Colour_Asymmetry_Pilot,2022.1.3,Win32,60.10337781,62c50e9c1127f2cd403a315f,,,,,,,,,,,,,,,,,,,,,,,,,,,,,,,,,,,,,,,,,,,,,,,,,,,,,,,,,,,,,,,,,,,,,,,,,,,,,,,,,,,,,,,,,,,,,,,,,,,,,,,,,,,,,,,,,,,,,,,,,,,,,,,,,,,,,,,,,,,,,,,,,,,,,,,,,,,,,,,,,
0,46,46,51,1,,610778fe744943d12ecab3cc,62c53892676c34b35019437d,2022-07-06_09h25.36.855,Colour_Asymmetry_Pilot,2022.1.3,Win32,60.10337781,62c50e9c1127f2cd403a315f,,,,,,,,,,,,,,,,,,,,,,,,,,,,,,,,,,,,,,,,,,,,,,,,,,,,,,,,,,,,,,,,,,,,,,,,,,,,,,,,,,,,,,,,,,,,,,,,,,,,,,,,,,,,,,,,,,,,,,,,,,,,,,,,,,,,,,,,,,,,,,,,,,,,,,,,,,,,,,,,,
0,47,47,38,1,,610778fe744943d12ecab3cc,62c53892676c34b35019437d,2022-07-06_09h25.36.855,Colour_Asymmetry_Pilot,2022.1.3,Win32,60.10337781,62c50e9c1127f2cd403a315f,,,,,,,,,,,,,,,,,,,,,,,,,,,,,,,,,,,,,,,,,,,,,,,,,,,,,,,,,,,,,,,,,,,,,,,,,,,,,,,,,,,,,,,,,,,,,,,,,,,,,,,,,,,,,,,,,,,,,,,,,,,,,,,,,,,,,,,,,,,,,,,,,,,,,,,,,,,,,,,,,
0,48,48,10,1,,610778fe744943d12ecab3cc,62c53892676c34b35019437d,2022-07-06_09h25.36.855,Colour_Asymmetry_Pilot,2022.1.3,Win32,60.10337781,62c50e9c1127f2cd403a315f,,,,,,,,,,,,,,,,,,,,,,,,,,,,,,,,,,,,,,,,,,,,,,,,,,,,,,,,,,,,,,,,,,,,,,,,,,,,,,,,,,,,,,,,,,,,,,,,,,,,,,,,,,,,,,,,,,,,,,,,,,,,,,,,,,,,,,,,,,,,,,,,,,,,,,,,,,,,,,,,,
0,49,49,92,1,,610778fe744943d12ecab3cc,62c53892676c34b35019437d,2022-07-06_09h25.36.855,Colour_Asymmetry_Pilot,2022.1.3,Win32,60.10337781,62c50e9c1127f2cd403a315f,,,,,,,,,,,,,,,,,,,,,,,,,,,,,,,,,,,,,,,,,,,,,,,,,,,,,,,,,,,,,,,,,,,,,,,,,,,,,,,,,,,,,,,,,,,,,,,,,,,,,,,,,,,,,,,,,,,,,,,,,,,,,,,,,,,,,,,,,,,,,,,,,,,,,,,,,,,,,,,,,
0,50,50,59,1,,610778fe744943d12ecab3cc,62c53892676c34b35019437d,2022-07-06_09h25.36.855,Colour_Asymmetry_Pilot,2022.1.3,Win32,60.10337781,62c50e9c1127f2cd403a315f,,,,,,,,,,,,,,,,,,,,,,,,,,,,,,,,,,,,,,,,,,,,,,,,,,,,,,,,,,,,,,,,,,,,,,,,,,,,,,,,,,,,,,,,,,,,,,,,,,,,,,,,,,,,,,,,,,,,,,,,,,,,,,,,,,,,,,,,,,,,,,,,,,,,,,,,,,,,,,,,,
0,51,51,12,1,,610778fe744943d12ecab3cc,62c53892676c34b35019437d,2022-07-06_09h25.36.855,Colour_Asymmetry_Pilot,2022.1.3,Win32,60.10337781,62c50e9c1127f2cd403a315f,,,,,,,,,,,,,,,,,,,,,,,,,,,,,,,,,,,,,,,,,,,,,,,,,,,,,,,,,,,,,,,,,,,,,,,,,,,,,,,,,,,,,,,,,,,,,,,,,,,,,,,,,,,,,,,,,,,,,,,,,,,,,,,,,,,,,,,,,,,,,,,,,,,,,,,,,,,,,,,,,
0,52,52,88,1,,610778fe744943d12ecab3cc,62c53892676c34b35019437d,2022-07-06_09h25.36.855,Colour_Asymmetry_Pilot,2022.1.3,Win32,60.10337781,62c50e9c1127f2cd403a315f,,,,,,,,,,,,,,,,,,,,,,,,,,,,,,,,,,,,,,,,,,,,,,,,,,,,,,,,,,,,,,,,,,,,,,,,,,,,,,,,,,,,,,,,,,,,,,,,,,,,,,,,,,,,,,,,,,,,,,,,,,,,,,,,,,,,,,,,,,,,,,,,,,,,,,,,,,,,,,,,,
0,53,53,65,1,,610778fe744943d12ecab3cc,62c53892676c34b35019437d,2022-07-06_09h25.36.855,Colour_Asymmetry_Pilot,2022.1.3,Win32,60.10337781,62c50e9c1127f2cd403a315f,,,,,,,,,,,,,,,,,,,,,,,,,,,,,,,,,,,,,,,,,,,,,,,,,,,,,,,,,,,,,,,,,,,,,,,,,,,,,,,,,,,,,,,,,,,,,,,,,,,,,,,,,,,,,,,,,,,,,,,,,,,,,,,,,,,,,,,,,,,,,,,,,,,,,,,,,,,,,,,,,
0,54,54,17,1,,610778fe744943d12ecab3cc,62c53892676c34b35019437d,2022-07-06_09h25.36.855,Colour_Asymmetry_Pilot,2022.1.3,Win32,60.10337781,62c50e9c1127f2cd403a315f,,,,,,,,,,,,,,,,,,,,,,,,,,,,,,,,,,,,,,,,,,,,,,,,,,,,,,,,,,,,,,,,,,,,,,,,,,,,,,,,,,,,,,,,,,,,,,,,,,,,,,,,,,,,,,,,,,,,,,,,,,,,,,,,,,,,,,,,,,,,,,,,,,,,,,,,,,,,,,,,,
0,55,55,3,1,,610778fe744943d12ecab3cc,62c53892676c34b35019437d,2022-07-06_09h25.36.855,Colour_Asymmetry_Pilot,2022.1.3,Win32,60.10337781,62c50e9c1127f2cd403a315f,,,,,,,,,,,,,,,,,,,,,,,,,,,,,,,,,,,,,,,,,,,,,,,,,,,,,,,,,,,,,,,,,,,,,,,,,,,,,,,,,,,,,,,,,,,,,,,,,,,,,,,,,,,,,,,,,,,,,,,,,,,,,,,,,,,,,,,,,,,,,,,,,,,,,,,,,,,,,,,,,
0,56,56,25,1,,610778fe744943d12ecab3cc,62c53892676c34b35019437d,2022-07-06_09h25.36.855,Colour_Asymmetry_Pilot,2022.1.3,Win32,60.10337781,62c50e9c1127f2cd403a315f,,,,,,,,,,,,,,,,,,,,,,,,,,,,,,,,,,,,,,,,,,,,,,,,,,,,,,,,,,,,,,,,,,,,,,,,,,,,,,,,,,,,,,,,,,,,,,,,,,,,,,,,,,,,,,,,,,,,,,,,,,,,,,,,,,,,,,,,,,,,,,,,,,,,,,,,,,,,,,,,,
0,57,57,7,1,,610778fe744943d12ecab3cc,62c53892676c34b35019437d,2022-07-06_09h25.36.855,Colour_Asymmetry_Pilot,2022.1.3,Win32,60.10337781,62c50e9c1127f2cd403a315f,,,,,,,,,,,,,,,,,,,,,,,,,,,,,,,,,,,,,,,,,,,,,,,,,,,,,,,,,,,,,,,,,,,,,,,,,,,,,,,,,,,,,,,,,,,,,,,,,,,,,,,,,,,,,,,,,,,,,,,,,,,,,,,,,,,,,,,,,,,,,,,,,,,,,,,,,,,,,,,,,
0,58,58,76,1,,610778fe744943d12ecab3cc,62c53892676c34b35019437d,2022-07-06_09h25.36.855,Colour_Asymmetry_Pilot,2022.1.3,Win32,60.10337781,62c50e9c1127f2cd403a315f,,,,,,,,,,,,,,,,,,,,,,,,,,,,,,,,,,,,,,,,,,,,,,,,,,,,,,,,,,,,,,,,,,,,,,,,,,,,,,,,,,,,,,,,,,,,,,,,,,,,,,,,,,,,,,,,,,,,,,,,,,,,,,,,,,,,,,,,,,,,,,,,,,,,,,,,,,,,,,,,,
0,59,59,52,1,,610778fe744943d12ecab3cc,62c53892676c34b35019437d,2022-07-06_09h25.36.855,Colour_Asymmetry_Pilot,2022.1.3,Win32,60.10337781,62c50e9c1127f2cd403a315f,,,,,,,,,,,,,,,,,,,,,,,,,,,,,,,,,,,,,,,,,,,,,,,,,,,,,,,,,,,,,,,,,,,,,,,,,,,,,,,,,,,,,,,,,,,,,,,,,,,,,,,,,,,,,,,,,,,,,,,,,,,,,,,,,,,,,,,,,,,,,,,,,,,,,,,,,,,,,,,,,
0,60,60,80,1,,610778fe744943d12ecab3cc,62c53892676c34b35019437d,2022-07-06_09h25.36.855,Colour_Asymmetry_Pilot,2022.1.3,Win32,60.10337781,62c50e9c1127f2cd403a315f,,,,,,,,,,,,,,,,,,,,,,,,,,,,,,,,,,,,,,,,,,,,,,,,,,,,,,,,,,,,,,,,,,,,,,,,,,,,,,,,,,,,,,,,,,,,,,,,,,,,,,,,,,,,,,,,,,,,,,,,,,,,,,,,,,,,,,,,,,,,,,,,,,,,,,,,,,,,,,,,,
0,61,61,68,1,,610778fe744943d12ecab3cc,62c53892676c34b35019437d,2022-07-06_09h25.36.855,Colour_Asymmetry_Pilot,2022.1.3,Win32,60.10337781,62c50e9c1127f2cd403a315f,,,,,,,,,,,,,,,,,,,,,,,,,,,,,,,,,,,,,,,,,,,,,,,,,,,,,,,,,,,,,,,,,,,,,,,,,,,,,,,,,,,,,,,,,,,,,,,,,,,,,,,,,,,,,,,,,,,,,,,,,,,,,,,,,,,,,,,,,,,,,,,,,,,,,,,,,,,,,,,,,
0,62,62,70,1,,610778fe744943d12ecab3cc,62c53892676c34b35019437d,2022-07-06_09h25.36.855,Colour_Asymmetry_Pilot,2022.1.3,Win32,60.10337781,62c50e9c1127f2cd403a315f,,,,,,,,,,,,,,,,,,,,,,,,,,,,,,,,,,,,,,,,,,,,,,,,,,,,,,,,,,,,,,,,,,,,,,,,,,,,,,,,,,,,,,,,,,,,,,,,,,,,,,,,,,,,,,,,,,,,,,,,,,,,,,,,,,,,,,,,,,,,,,,,,,,,,,,,,,,,,,,,,
0,63,63,72,1,,610778fe744943d12ecab3cc,62c53892676c34b35019437d,2022-07-06_09h25.36.855,Colour_Asymmetry_Pilot,2022.1.3,Win32,60.10337781,62c50e9c1127f2cd403a315f,,,,,,,,,,,,,,,,,,,,,,,,,,,,,,,,,,,,,,,,,,,,,,,,,,,,,,,,,,,,,,,,,,,,,,,,,,,,,,,,,,,,,,,,,,,,,,,,,,,,,,,,,,,,,,,,,,,,,,,,,,,,,,,,,,,,,,,,,,,,,,,,,,,,,,,,,,,,,,,,,
0,64,64,2,1,,610778fe744943d12ecab3cc,62c53892676c34b35019437d,2022-07-06_09h25.36.855,Colour_Asymmetry_Pilot,2022.1.3,Win32,60.10337781,62c50e9c1127f2cd403a315f,,,,,,,,,,,,,,,,,,,,,,,,,,,,,,,,,,,,,,,,,,,,,,,,,,,,,,,,,,,,,,,,,,,,,,,,,,,,,,,,,,,,,,,,,,,,,,,,,,,,,,,,,,,,,,,,,,,,,,,,,,,,,,,,,,,,,,,,,,,,,,,,,,,,,,,,,,,,,,,,,
0,65,65,30,1,,610778fe744943d12ecab3cc,62c53892676c34b35019437d,2022-07-06_09h25.36.855,Colour_Asymmetry_Pilot,2022.1.3,Win32,60.10337781,62c50e9c1127f2cd403a315f,,,,,,,,,,,,,,,,,,,,,,,,,,,,,,,,,,,,,,,,,,,,,,,,,,,,,,,,,,,,,,,,,,,,,,,,,,,,,,,,,,,,,,,,,,,,,,,,,,,,,,,,,,,,,,,,,,,,,,,,,,,,,,,,,,,,,,,,,,,,,,,,,,,,,,,,,,,,,,,,,
0,66,66,56,1,,610778fe744943d12ecab3cc,62c53892676c34b35019437d,2022-07-06_09h25.36.855,Colour_Asymmetry_Pilot,2022.1.3,Win32,60.10337781,62c50e9c1127f2cd403a315f,,,,,,,,,,,,,,,,,,,,,,,,,,,,,,,,,,,,,,,,,,,,,,,,,,,,,,,,,,,,,,,,,,,,,,,,,,,,,,,,,,,,,,,,,,,,,,,,,,,,,,,,,,,,,,,,,,,,,,,,,,,,,,,,,,,,,,,,,,,,,,,,,,,,,,,,,,,,,,,,,
0,67,67,8,1,,610778fe744943d12ecab3cc,62c53892676c34b35019437d,2022-07-06_09h25.36.855,Colour_Asymmetry_Pilot,2022.1.3,Win32,60.10337781,62c50e9c1127f2cd403a315f,,,,,,,,,,,,,,,,,,,,,,,,,,,,,,,,,,,,,,,,,,,,,,,,,,,,,,,,,,,,,,,,,,,,,,,,,,,,,,,,,,,,,,,,,,,,,,,,,,,,,,,,,,,,,,,,,,,,,,,,,,,,,,,,,,,,,,,,,,,,,,,,,,,,,,,,,,,,,,,,,
0,68,68,60,1,,610778fe744943d12ecab3cc,62c53892676c34b35019437d,2022-07-06_09h25.36.855,Colour_Asymmetry_Pilot,2022.1.3,Win32,60.10337781,62c50e9c1127f2cd403a315f,,,,,,,,,,,,,,,,,,,,,,,,,,,,,,,,,,,,,,,,,,,,,,,,,,,,,,,,,,,,,,,,,,,,,,,,,,,,,,,,,,,,,,,,,,,,,,,,,,,,,,,,,,,,,,,,,,,,,,,,,,,,,,,,,,,,,,,,,,,,,,,,,,,,,,,,,,,,,,,,,
0,69,69,86,1,,610778fe744943d12ecab3cc,62c53892676c34b35019437d,2022-07-06_09h25.36.855,Colour_Asymmetry_Pilot,2022.1.3,Win32,60.10337781,62c50e9c1127f2cd403a315f,,,,,,,,,,,,,,,,,,,,,,,,,,,,,,,,,,,,,,,,,,,,,,,,,,,,,,,,,,,,,,,,,,,,,,,,,,,,,,,,,,,,,,,,,,,,,,,,,,,,,,,,,,,,,,,,,,,,,,,,,,,,,,,,,,,,,,,,,,,,,,,,,,,,,,,,,,,,,,,,,
0,70,70,26,1,,610778fe744943d12ecab3cc,62c53892676c34b35019437d,2022-07-06_09h25.36.855,Colour_Asymmetry_Pilot,2022.1.3,Win32,60.10337781,62c50e9c1127f2cd403a315f,,,,,,,,,,,,,,,,,,,,,,,,,,,,,,,,,,,,,,,,,,,,,,,,,,,,,,,,,,,,,,,,,,,,,,,,,,,,,,,,,,,,,,,,,,,,,,,,,,,,,,,,,,,,,,,,,,,,,,,,,,,,,,,,,,,,,,,,,,,,,,,,,,,,,,,,,,,,,,,,,
0,71,71,13,1,,610778fe744943d12ecab3cc,62c53892676c34b35019437d,2022-07-06_09h25.36.855,Colour_Asymmetry_Pilot,2022.1.3,Win32,60.10337781,62c50e9c1127f2cd403a315f,,,,,,,,,,,,,,,,,,,,,,,,,,,,,,,,,,,,,,,,,,,,,,,,,,,,,,,,,,,,,,,,,,,,,,,,,,,,,,,,,,,,,,,,,,,,,,,,,,,,,,,,,,,,,,,,,,,,,,,,,,,,,,,,,,,,,,,,,,,,,,,,,,,,,,,,,,,,,,,,,
0,72,72,63,1,,610778fe744943d12ecab3cc,62c53892676c34b35019437d,2022-07-06_09h25.36.855,Colour_Asymmetry_Pilot,2022.1.3,Win32,60.10337781,62c50e9c1127f2cd403a315f,,,,,,,,,,,,,,,,,,,,,,,,,,,,,,,,,,,,,,,,,,,,,,,,,,,,,,,,,,,,,,,,,,,,,,,,,,,,,,,,,,,,,,,,,,,,,,,,,,,,,,,,,,,,,,,,,,,,,,,,,,,,,,,,,,,,,,,,,,,,,,,,,,,,,,,,,,,,,,,,,
0,73,73,46,1,,610778fe744943d12ecab3cc,62c53892676c34b35019437d,2022-07-06_09h25.36.855,Colour_Asymmetry_Pilot,2022.1.3,Win32,60.10337781,62c50e9c1127f2cd403a315f,,,,,,,,,,,,,,,,,,,,,,,,,,,,,,,,,,,,,,,,,,,,,,,,,,,,,,,,,,,,,,,,,,,,,,,,,,,,,,,,,,,,,,,,,,,,,,,,,,,,,,,,,,,,,,,,,,,,,,,,,,,,,,,,,,,,,,,,,,,,,,,,,,,,,,,,,,,,,,,,,
0,74,74,27,1,,610778fe744943d12ecab3cc,62c53892676c34b35019437d,2022-07-06_09h25.36.855,Colour_Asymmetry_Pilot,2022.1.3,Win32,60.10337781,62c50e9c1127f2cd403a315f,,,,,,,,,,,,,,,,,,,,,,,,,,,,,,,,,,,,,,,,,,,,,,,,,,,,,,,,,,,,,,,,,,,,,,,,,,,,,,,,,,,,,,,,,,,,,,,,,,,,,,,,,,,,,,,,,,,,,,,,,,,,,,,,,,,,,,,,,,,,,,,,,,,,,,,,,,,,,,,,,
0,75,75,69,1,,610778fe744943d12ecab3cc,62c53892676c34b35019437d,2022-07-06_09h25.36.855,Colour_Asymmetry_Pilot,2022.1.3,Win32,60.10337781,62c50e9c1127f2cd403a315f,,,,,,,,,,,,,,,,,,,,,,,,,,,,,,,,,,,,,,,,,,,,,,,,,,,,,,,,,,,,,,,,,,,,,,,,,,,,,,,,,,,,,,,,,,,,,,,,,,,,,,,,,,,,,,,,,,,,,,,,,,,,,,,,,,,,,,,,,,,,,,,,,,,,,,,,,,,,,,,,,
0,76,76,0,1,,610778fe744943d12ecab3cc,62c53892676c34b35019437d,2022-07-06_09h25.36.855,Colour_Asymmetry_Pilot,2022.1.3,Win32,60.10337781,62c50e9c1127f2cd403a315f,,,,,,,,,,,,,,,,,,,,,,,,,,,,,,,,,,,,,,,,,,,,,,,,,,,,,,,,,,,,,,,,,,,,,,,,,,,,,,,,,,,,,,,,,,,,,,,,,,,,,,,,,,,,,,,,,,,,,,,,,,,,,,,,,,,,,,,,,,,,,,,,,,,,,,,,,,,,,,,,,
0,77,77,15,1,,610778fe744943d12ecab3cc,62c53892676c34b35019437d,2022-07-06_09h25.36.855,Colour_Asymmetry_Pilot,2022.1.3,Win32,60.10337781,62c50e9c1127f2cd403a315f,,,,,,,,,,,,,,,,,,,,,,,,,,,,,,,,,,,,,,,,,,,,,,,,,,,,,,,,,,,,,,,,,,,,,,,,,,,,,,,,,,,,,,,,,,,,,,,,,,,,,,,,,,,,,,,,,,,,,,,,,,,,,,,,,,,,,,,,,,,,,,,,,,,,,,,,,,,,,,,,,
0,78,78,78,1,,610778fe744943d12ecab3cc,62c53892676c34b35019437d,2022-07-06_09h25.36.855,Colour_Asymmetry_Pilot,2022.1.3,Win32,60.10337781,62c50e9c1127f2cd403a315f,,,,,,,,,,,,,,,,,,,,,,,,,,,,,,,,,,,,,,,,,,,,,,,,,,,,,,,,,,,,,,,,,,,,,,,,,,,,,,,,,,,,,,,,,,,,,,,,,,,,,,,,,,,,,,,,,,,,,,,,,,,,,,,,,,,,,,,,,,,,,,,,,,,,,,,,,,,,,,,,,
0,79,79,49,1,,610778fe744943d12ecab3cc,62c53892676c34b35019437d,2022-07-06_09h25.36.855,Colour_Asymmetry_Pilot,2022.1.3,Win32,60.10337781,62c50e9c1127f2cd403a315f,,,,,,,,,,,,,,,,,,,,,,,,,,,,,,,,,,,,,,,,,,,,,,,,,,,,,,,,,,,,,,,,,,,,,,,,,,,,,,,,,,,,,,,,,,,,,,,,,,,,,,,,,,,,,,,,,,,,,,,,,,,,,,,,,,,,,,,,,,,,,,,,,,,,,,,,,,,,,,,,,
0,80,80,33,1,,610778fe744943d12ecab3cc,62c53892676c34b35019437d,2022-07-06_09h25.36.855,Colour_Asymmetry_Pilot,2022.1.3,Win32,60.10337781,62c50e9c1127f2cd403a315f,,,,,,,,,,,,,,,,,,,,,,,,,,,,,,,,,,,,,,,,,,,,,,,,,,,,,,,,,,,,,,,,,,,,,,,,,,,,,,,,,,,,,,,,,,,,,,,,,,,,,,,,,,,,,,,,,,,,,,,,,,,,,,,,,,,,,,,,,,,,,,,,,,,,,,,,,,,,,,,,,
0,81,81,84,1,,610778fe744943d12ecab3cc,62c53892676c34b35019437d,2022-07-06_09h25.36.855,Colour_Asymmetry_Pilot,2022.1.3,Win32,60.10337781,62c50e9c1127f2cd403a315f,,,,,,,,,,,,,,,,,,,,,,,,,,,,,,,,,,,,,,,,,,,,,,,,,,,,,,,,,,,,,,,,,,,,,,,,,,,,,,,,,,,,,,,,,,,,,,,,,,,,,,,,,,,,,,,,,,,,,,,,,,,,,,,,,,,,,,,,,,,,,,,,,,,,,,,,,,,,,,,,,
0,82,82,53,1,,610778fe744943d12ecab3cc,62c53892676c34b35019437d,2022-07-06_09h25.36.855,Colour_Asymmetry_Pilot,2022.1.3,Win32,60.10337781,62c50e9c1127f2cd403a315f,,,,,,,,,,,,,,,,,,,,,,,,,,,,,,,,,,,,,,,,,,,,,,,,,,,,,,,,,,,,,,,,,,,,,,,,,,,,,,,,,,,,,,,,,,,,,,,,,,,,,,,,,,,,,,,,,,,,,,,,,,,,,,,,,,,,,,,,,,,,,,,,,,,,,,,,,,,,,,,,,
0,83,83,47,1,,610778fe744943d12ecab3cc,62c53892676c34b35019437d,2022-07-06_09h25.36.855,Colour_Asymmetry_Pilot,2022.1.3,Win32,60.10337781,62c50e9c1127f2cd403a315f,,,,,,,,,,,,,,,,,,,,,,,,,,,,,,,,,,,,,,,,,,,,,,,,,,,,,,,,,,,,,,,,,,,,,,,,,,,,,,,,,,,,,,,,,,,,,,,,,,,,,,,,,,,,,,,,,,,,,,,,,,,,,,,,,,,,,,,,,,,,,,,,,,,,,,,,,,,,,,,,,
0,84,84,82,1,,610778fe744943d12ecab3cc,62c53892676c34b35019437d,2022-07-06_09h25.36.855,Colour_Asymmetry_Pilot,2022.1.3,Win32,60.10337781,62c50e9c1127f2cd403a315f,,,,,,,,,,,,,,,,,,,,,,,,,,,,,,,,,,,,,,,,,,,,,,,,,,,,,,,,,,,,,,,,,,,,,,,,,,,,,,,,,,,,,,,,,,,,,,,,,,,,,,,,,,,,,,,,,,,,,,,,,,,,,,,,,,,,,,,,,,,,,,,,,,,,,,,,,,,,,,,,,
0,85,85,67,1,,610778fe744943d12ecab3cc,62c53892676c34b35019437d,2022-07-06_09h25.36.855,Colour_Asymmetry_Pilot,2022.1.3,Win32,60.10337781,62c50e9c1127f2cd403a315f,,,,,,,,,,,,,,,,,,,,,,,,,,,,,,,,,,,,,,,,,,,,,,,,,,,,,,,,,,,,,,,,,,,,,,,,,,,,,,,,,,,,,,,,,,,,,,,,,,,,,,,,,,,,,,,,,,,,,,,,,,,,,,,,,,,,,,,,,,,,,,,,,,,,,,,,,,,,,,,,,
0,86,86,29,1,,610778fe744943d12ecab3cc,62c53892676c34b35019437d,2022-07-06_09h25.36.855,Colour_Asymmetry_Pilot,2022.1.3,Win32,60.10337781,62c50e9c1127f2cd403a315f,,,,,,,,,,,,,,,,,,,,,,,,,,,,,,,,,,,,,,,,,,,,,,,,,,,,,,,,,,,,,,,,,,,,,,,,,,,,,,,,,,,,,,,,,,,,,,,,,,,,,,,,,,,,,,,,,,,,,,,,,,,,,,,,,,,,,,,,,,,,,,,,,,,,,,,,,,,,,,,,,
0,87,87,50,1,,610778fe744943d12ecab3cc,62c53892676c34b35019437d,2022-07-06_09h25.36.855,Colour_Asymmetry_Pilot,2022.1.3,Win32,60.10337781,62c50e9c1127f2cd403a315f,,,,,,,,,,,,,,,,,,,,,,,,,,,,,,,,,,,,,,,,,,,,,,,,,,,,,,,,,,,,,,,,,,,,,,,,,,,,,,,,,,,,,,,,,,,,,,,,,,,,,,,,,,,,,,,,,,,,,,,,,,,,,,,,,,,,,,,,,,,,,,,,,,,,,,,,,,,,,,,,,
0,88,88,79,1,,610778fe744943d12ecab3cc,62c53892676c34b35019437d,2022-07-06_09h25.36.855,Colour_Asymmetry_Pilot,2022.1.3,Win32,60.10337781,62c50e9c1127f2cd403a315f,,,,,,,,,,,,,,,,,,,,,,,,,,,,,,,,,,,,,,,,,,,,,,,,,,,,,,,,,,,,,,,,,,,,,,,,,,,,,,,,,,,,,,,,,,,,,,,,,,,,,,,,,,,,,,,,,,,,,,,,,,,,,,,,,,,,,,,,,,,,,,,,,,,,,,,,,,,,,,,,,
0,89,89,73,1,,610778fe744943d12ecab3cc,62c53892676c34b35019437d,2022-07-06_09h25.36.855,Colour_Asymmetry_Pilot,2022.1.3,Win32,60.10337781,62c50e9c1127f2cd403a315f,,,,,,,,,,,,,,,,,,,,,,,,,,,,,,,,,,,,,,,,,,,,,,,,,,,,,,,,,,,,,,,,,,,,,,,,,,,,,,,,,,,,,,,,,,,,,,,,,,,,,,,,,,,,,,,,,,,,,,,,,,,,,,,,,,,,,,,,,,,,,,,,,,,,,,,,,,,,,,,,,
0,90,90,36,1,,610778fe744943d12ecab3cc,62c53892676c34b35019437d,2022-07-06_09h25.36.855,Colour_Asymmetry_Pilot,2022.1.3,Win32,60.10337781,62c50e9c1127f2cd403a315f,,,,,,,,,,,,,,,,,,,,,,,,,,,,,,,,,,,,,,,,,,,,,,,,,,,,,,,,,,,,,,,,,,,,,,,,,,,,,,,,,,,,,,,,,,,,,,,,,,,,,,,,,,,,,,,,,,,,,,,,,,,,,,,,,,,,,,,,,,,,,,,,,,,,,,,,,,,,,,,,,
0,91,91,18,1,,610778fe744943d12ecab3cc,62c53892676c34b35019437d,2022-07-06_09h25.36.855,Colour_Asymmetry_Pilot,2022.1.3,Win32,60.10337781,62c50e9c1127f2cd403a315f,,,,,,,,,,,,,,,,,,,,,,,,,,,,,,,,,,,,,,,,,,,,,,,,,,,,,,,,,,,,,,,,,,,,,,,,,,,,,,,,,,,,,,,,,,,,,,,,,,,,,,,,,,,,,,,,,,,,,,,,,,,,,,,,,,,,,,,,,,,,,,,,,,,,,,,,,,,,,,,,,
0,92,92,87,1,,610778fe744943d12ecab3cc,62c53892676c34b35019437d,2022-07-06_09h25.36.855,Colour_Asymmetry_Pilot,2022.1.3,Win32,60.10337781,62c50e9c1127f2cd403a315f,,,,,,,,,,,,,,,,,,,,,,,,,,,,,,,,,,,,,,,,,,,,,,,,,,,,,,,,,,,,,,,,,,,,,,,,,,,,,,,,,,,,,,,,,,,,,,,,,,,,,,,,,,,,,,,,,,,,,,,,,,,,,,,,,,,,,,,,,,,,,,,,,,,,,,,,,,,,,,,,,
,,,,,,610778fe744943d12ecab3cc,62c53892676c34b35019437d,2022-07-06_09h25.36.855,Colour_Asymmetry_Pilot,2022.1.3,Win32,60.10337781,62c50e9c1127f2cd403a315f,0,0,0,86,1,fourtwo,,,,,,,,,,,,,,,,,,,,,,,,,,,,,,,,,,,,,,,,,,,,,,,,,,,,,,,,,,,,,,,,,,,,,,,,,,,,,,,,,,,,,,,,,,,,,,,,,,,,,,,,,,,,,,,,,,,,,,,,,,,,,,,,,,,,,,,,,,,,,,,,,,,,,,,,,,,
,,,,,,610778fe744943d12ecab3cc,62c53892676c34b35019437d,2022-07-06_09h25.36.855,Colour_Asymmetry_Pilot,2022.1.3,Win32,60.10337781,62c50e9c1127f2cd403a315f,0,1,1,129,1,onethree,,,,,,,,,,,,,,,,,,,,,,,,,,,,,,,,,,,,,,,,,,,,,,,,,,,,,,,,,,,,,,,,,,,,,,,,,,,,,,,,,,,,,,,,,,,,,,,,,,,,,,,,,,,,,,,,,,,,,,,,,,,,,,,,,,,,,,,,,,,,,,,,,,,,,,,,,,,
,,,,,,610778fe744943d12ecab3cc,62c53892676c34b35019437d,2022-07-06_09h25.36.855,Colour_Asymmetry_Pilot,2022.1.3,Win32,60.10337781,62c50e9c1127f2cd403a315f,0,2,2,17,1,onethree,,,,,,,,,,,,,,,,,,,,,,,,,,,,,,,,,,,,,,,,,,,,,,,,,,,,,,,,,,,,,,,,,,,,,,,,,,,,,,,,,,,,,,,,,,,,,,,,,,,,,,,,,,,,,,,,,,,,,,,,,,,,,,,,,,,,,,,,,,,,,,,,,,,,,,,,,,,
,,,,,,610778fe744943d12ecab3cc,62c53892676c34b35019437d,2022-07-06_09h25.36.855,Colour_Asymmetry_Pilot,2022.1.3,Win32,60.10337781,62c50e9c1127f2cd403a315f,0,3,3,53,1,threefour,,,,,,,,,,,,,,,,,,,,,,,,,,,,,,,,,,,,,,,,,,,,,,,,,,,,,,,,,,,,,,,,,,,,,,,,,,,,,,,,,,,,,,,,,,,,,,,,,,,,,,,,,,,,,,,,,,,,,,,,,,,,,,,,,,,,,,,,,,,,,,,,,,,,,,,,,,,
,,,,,,610778fe744943d12ecab3cc,62c53892676c34b35019437d,2022-07-06_09h25.36.855,Colour_Asymmetry_Pilot,2022.1.3,Win32,60.10337781,62c50e9c1127f2cd403a315f,0,4,4,143,1,fourthree,,,,,,,,,,,,,,,,,,,,,,,,,,,,,,,,,,,,,,,,,,,,,,,,,,,,,,,,,,,,,,,,,,,,,,,,,,,,,,,,,,,,,,,,,,,,,,,,,,,,,,,,,,,,,,,,,,,,,,,,,,,,,,,,,,,,,,,,,,,,,,,,,,,,,,,,,,,
,,,,,,610778fe744943d12ecab3cc,62c53892676c34b35019437d,2022-07-06_09h25.36.855,Colour_Asymmetry_Pilot,2022.1.3,Win32,60.10337781,62c50e9c1127f2cd403a315f,0,5,5,107,1,twofour,,,,,,,,,,,,,,,,,,,,,,,,,,,,,,,,,,,,,,,,,,,,,,,,,,,,,,,,,,,,,,,,,,,,,,,,,,,,,,,,,,,,,,,,,,,,,,,,,,,,,,,,,,,,,,,,,,,,,,,,,,,,,,,,,,,,,,,,,,,,,,,,,,,,,,,,,,,
,,,,,,610778fe744943d12ecab3cc,62c53892676c34b35019437d,2022-07-06_09h25.36.855,Colour_Asymmetry_Pilot,2022.1.3,Win32,60.10337781,62c50e9c1127f2cd403a315f,0,6,6,43,1,twofour,,,,,,,,,,,,,,,,,,,,,,,,,,,,,,,,,,,,,,,,,,,,,,,,,,,,,,,,,,,,,,,,,,,,,,,,,,,,,,,,,,,,,,,,,,,,,,,,,,,,,,,,,,,,,,,,,,,,,,,,,,,,,,,,,,,,,,,,,,,,,,,,,,,,,,,,,,,
,,,,,,610778fe744943d12ecab3cc,62c53892676c34b35019437d,2022-07-06_09h25.36.855,Colour_Asymmetry_Pilot,2022.1.3,Win32,60.10337781,62c50e9c1127f2cd403a315f,0,7,7,127,1,fourthree,,,,,,,,,,,,,,,,,,,,,,,,,,,,,,,,,,,,,,,,,,,,,,,,,,,,,,,,,,,,,,,,,,,,,,,,,,,,,,,,,,,,,,,,,,,,,,,,,,,,,,,,,,,,,,,,,,,,,,,,,,,,,,,,,,,,,,,,,,,,,,,,,,,,,,,,,,,
,,,,,,610778fe744943d12ecab3cc,62c53892676c34b35019437d,2022-07-06_09h25.36.855,Colour_Asymmetry_Pilot,2022.1.3,Win32,60.10337781,62c50e9c1127f2cd403a315f,0,8,8,131,1,twofour,,,,,,,,,,,,,,,,,,,,,,,,,,,,,,,,,,,,,,,,,,,,,,,,,,,,,,,,,,,,,,,,,,,,,,,,,,,,,,,,,,,,,,,,,,,,,,,,,,,,,,,,,,,,,,,,,,,,,,,,,,,,,,,,,,,,,,,,,,,,,,,,,,,,,,,,,,,
,,,,,,610778fe744943d12ecab3cc,62c53892676c34b35019437d,2022-07-06_09h25.36.855,Colour_Asymmetry_Pilot,2022.1.3,Win32,60.10337781,62c50e9c1127f2cd403a315f,0,9,9,158,1,fourtwo,,,,,,,,,,,,,,,,,,,,,,,,,,,,,,,,,,,,,,,,,,,,,,,,,,,,,,,,,,,,,,,,,,,,,,,,,,,,,,,,,,,,,,,,,,,,,,,,,,,,,,,,,,,,,,,,,,,,,,,,,,,,,,,,,,,,,,,,,,,,,,,,,,,,,,,,,,,
,,,,,,610778fe744943d12ecab3cc,62c53892676c34b35019437d,2022-07-06_09h25.36.855,Colour_Asymmetry_Pilot,2022.1.3,Win32,60.10337781,62c50e9c1127f2cd403a315f,0,10,10,90,1,twoone,,,,,,,,,,,,,,,,,,,,,,,,,,,,,,,,,,,,,,,,,,,,,,,,,,,,,,,,,,,,,,,,,,,,,,,,,,,,,,,,,,,,,,,,,,,,,,,,,,,,,,,,,,,,,,,,,,,,,,,,,,,,,,,,,,,,,,,,,,,,,,,,,,,,,,,,,,,
,,,,,,610778fe744943d12ecab3cc,62c53892676c34b35019437d,2022-07-06_09h25.36.855,Colour_Asymmetry_Pilot,2022.1.3,Win32,60.10337781,62c50e9c1127f2cd403a315f,0,11,11,76,1,threeone,,,,,,,,,,,,,,,,,,,,,,,,,,,,,,,,,,,,,,,,,,,,,,,,,,,,,,,,,,,,,,,,,,,,,,,,,,,,,,,,,,,,,,,,,,,,,,,,,,,,,,,,,,,,,,,,,,,,,,,,,,,,,,,,,,,,,,,,,,,,,,,,,,,,,,,,,,,
,,,,,,610778fe744943d12ecab3cc,62c53892676c34b35019437d,2022-07-06_09h25.36.855,Colour_Asymmetry_Pilot,2022.1.3,Win32,60.10337781,62c50e9c1127f2cd403a315f,0,12,12,72,1,onetwo,,,,,,,,,,,,,,,,,,,,,,,,,,,,,,,,,,,,,,,,,,,,,,,,,,,,,,,,,,,,,,,,,,,,,,,,,,,,,,,,,,,,,,,,,,,,,,,,,,,,,,,,,,,,,,,,,,,,,,,,,,,,,,,,,,,,,,,,,,,,,,,,,,,,,,,,,,,
,,,,,,610778fe744943d12ecab3cc,62c53892676c34b35019437d,2022-07-06_09h25.36.855,Colour_Asymmetry_Pilot,2022.1.3,Win32,60.10337781,62c50e9c1127f2cd403a315f,0,13,13,30,1,fourtwo,,,,,,,,,,,,,,,,,,,,,,,,,,,,,,,,,,,,,,,,,,,,,,,,,,,,,,,,,,,,,,,,,,,,,,,,,,,,,,,,,,,,,,,,,,,,,,,,,,,,,,,,,,,,,,,,,,,,,,,,,,,,,,,,,,,,,,,,,,,,,,,,,,,,,,,,,,,
,,,,,,610778fe744943d12ecab3cc,62c53892676c34b35019437d,2022-07-06_09h25.36.855,Colour_Asymmetry_Pilot,2022.1.3,Win32,60.10337781,62c50e9c1127f2cd403a315f,0,14,14,128,1,onetwo,,,,,,,,,,,,,,,,,,,,,,,,,,,,,,,,,,,,,,,,,,,,,,,,,,,,,,,,,,,,,,,,,,,,,,,,,,,,,,,,,,,,,,,,,,,,,,,,,,,,,,,,,,,,,,,,,,,,,,,,,,,,,,,,,,,,,,,,,,,,,,,,,,,,,,,,,,,
,,,,,,610778fe744943d12ecab3cc,62c53892676c34b35019437d,2022-07-06_09h25.36.855,Colour_Asymmetry_Pilot,2022.1.3,Win32,60.10337781,62c50e9c1127f2cd403a315f,0,15,15,13,1,threefour,,,,,,,,,,,,,,,,,,,,,,,,,,,,,,,,,,,,,,,,,,,,,,,,,,,,,,,,,,,,,,,,,,,,,,,,,,,,,,,,,,,,,,,,,,,,,,,,,,,,,,,,,,,,,,,,,,,,,,,,,,,,,,,,,,,,,,,,,,,,,,,,,,,,,,,,,,,
,,,,,,610778fe744943d12ecab3cc,62c53892676c34b35019437d,2022-07-06_09h25.36.855,Colour_Asymmetry_Pilot,2022.1.3,Win32,60.10337781,62c50e9c1127f2cd403a315f,0,16,16,54,1,fourtwo,,,,,,,,,,,,,,,,,,,,,,,,,,,,,,,,,,,,,,,,,,,,,,,,,,,,,,,,,,,,,,,,,,,,,,,,,,,,,,,,,,,,,,,,,,,,,,,,,,,,,,,,,,,,,,,,,,,,,,,,,,,,,,,,,,,,,,,,,,,,,,,,,,,,,,,,,,,
,,,,,,610778fe744943d12ecab3cc,62c53892676c34b35019437d,2022-07-06_09h25.36.855,Colour_Asymmetry_Pilot,2022.1.3,Win32,60.10337781,62c50e9c1127f2cd403a315f,0,17,17,78,1,fourtwo,,,,,,,,,,,,,,,,,,,,,,,,,,,,,,,,,,,,,,,,,,,,,,,,,,,,,,,,,,,,,,,,,,,,,,,,,,,,,,,,,,,,,,,,,,,,,,,,,,,,,,,,,,,,,,,,,,,,,,,,,,,,,,,,,,,,,,,,,,,,,,,,,,,,,,,,,,,
,,,,,,610778fe744943d12ecab3cc,62c53892676c34b35019437d,2022-07-06_09h25.36.855,Colour_Asymmetry_Pilot,2022.1.3,Win32,60.10337781,62c50e9c1127f2cd403a315f,0,18,18,27,1,twofour,,,,,,,,,,,,,,,,,,,,,,,,,,,,,,,,,,,,,,,,,,,,,,,,,,,,,,,,,,,,,,,,,,,,,,,,,,,,,,,,,,,,,,,,,,,,,,,,,,,,,,,,,,,,,,,,,,,,,,,,,,,,,,,,,,,,,,,,,,,,,,,,,,,,,,,,,,,
,,,,,,610778fe744943d12ecab3cc,62c53892676c34b35019437d,2022-07-06_09h25.36.855,Colour_Asymmetry_Pilot,2022.1.3,Win32,60.10337781,62c50e9c1127f2cd403a315f,0,19,19,31,1,fourthree,,,,,,,,,,,,,,,,,,,,,,,,,,,,,,,,,,,,,,,,,,,,,,,,,,,,,,,,,,,,,,,,,,,,,,,,,,,,,,,,,,,,,,,,,,,,,,,,,,,,,,,,,,,,,,,,,,,,,,,,,,,,,,,,,,,,,,,,,,,,,,,,,,,,,,,,,,,
,,,,,,610778fe744943d12ecab3cc,62c53892676c34b35019437d,2022-07-06_09h25.36.855,Colour_Asymmetry_Pilot,2022.1.3,Win32,60.10337781,62c50e9c1127f2cd403a315f,0,20,20,62,1,fourtwo,,,,,,,,,,,,,,,,,,,,,,,,,,,,,,,,,,,,,,,,,,,,,,,,,,,,,,,,,,,,,,,,,,,,,,,,,,,,,,,,,,,,,,,,,,,,,,,,,,,,,,,,,,,,,,,,,,,,,,,,,,,,,,,,,,,,,,,,,,,,,,,,,,,,,,,,,,,
,,,,,,610778fe744943d12ecab3cc,62c53892676c34b35019437d,2022-07-06_09h25.36.855,Colour_Asymmetry_Pilot,2022.1.3,Win32,60.10337781,62c50e9c1127f2cd403a315f,0,21,21,12,1,threeone,,,,,,,,,,,,,,,,,,,,,,,,,,,,,,,,,,,,,,,,,,,,,,,,,,,,,,,,,,,,,,,,,,,,,,,,,,,,,,,,,,,,,,,,,,,,,,,,,,,,,,,,,,,,,,,,,,,,,,,,,,,,,,,,,,,,,,,,,,,,,,,,,,,,,,,,,,,
,,,,,,610778fe744943d12ecab3cc,62c53892676c34b35019437d,2022-07-06_09h25.36.855,Colour_Asymmetry_Pilot,2022.1.3,Win32,60.10337781,62c50e9c1127f2cd403a315f,0,22,22,22,1,fourtwo,,,,,,,,,,,,,,,,,,,,,,,,,,,,,,,,,,,,,,,,,,,,,,,,,,,,,,,,,,,,,,,,,,,,,,,,,,,,,,,,,,,,,,,,,,,,,,,,,,,,,,,,,,,,,,,,,,,,,,,,,,,,,,,,,,,,,,,,,,,,,,,,,,,,,,,,,,,
,,,,,,610778fe744943d12ecab3cc,62c53892676c34b35019437d,2022-07-06_09h25.36.855,Colour_Asymmetry_Pilot,2022.1.3,Win32,60.10337781,62c50e9c1127f2cd403a315f,0,23,23,81,1,onethree,,,,,,,,,,,,,,,,,,,,,,,,,,,,,,,,,,,,,,,,,,,,,,,,,,,,,,,,,,,,,,,,,,,,,,,,,,,,,,,,,,,,,,,,,,,,,,,,,,,,,,,,,,,,,,,,,,,,,,,,,,,,,,,,,,,,,,,,,,,,,,,,,,,,,,,,,,,
,,,,,,610778fe744943d12ecab3cc,62c53892676c34b35019437d,2022-07-06_09h25.36.855,Colour_Asymmetry_Pilot,2022.1.3,Win32,60.10337781,62c50e9c1127f2cd403a315f,0,24,24,144,1,onetwo,,,,,,,,,,,,,,,,,,,,,,,,,,,,,,,,,,,,,,,,,,,,,,,,,,,,,,,,,,,,,,,,,,,,,,,,,,,,,,,,,,,,,,,,,,,,,,,,,,,,,,,,,,,,,,,,,,,,,,,,,,,,,,,,,,,,,,,,,,,,,,,,,,,,,,,,,,,
,,,,,,610778fe744943d12ecab3cc,62c53892676c34b35019437d,2022-07-06_09h25.36.855,Colour_Asymmetry_Pilot,2022.1.3,Win32,60.10337781,62c50e9c1127f2cd403a315f,0,25,25,74,1,twoone,,,,,,,,,,,,,,,,,,,,,,,,,,,,,,,,,,,,,,,,,,,,,,,,,,,,,,,,,,,,,,,,,,,,,,,,,,,,,,,,,,,,,,,,,,,,,,,,,,,,,,,,,,,,,,,,,,,,,,,,,,,,,,,,,,,,,,,,,,,,,,,,,,,,,,,,,,,
,,,,,,610778fe744943d12ecab3cc,62c53892676c34b35019437d,2022-07-06_09h25.36.855,Colour_Asymmetry_Pilot,2022.1.3,Win32,60.10337781,62c50e9c1127f2cd403a315f,0,26,26,9,1,onethree,,,,,,,,,,,,,,,,,,,,,,,,,,,,,,,,,,,,,,,,,,,,,,,,,,,,,,,,,,,,,,,,,,,,,,,,,,,,,,,,,,,,,,,,,,,,,,,,,,,,,,,,,,,,,,,,,,,,,,,,,,,,,,,,,,,,,,,,,,,,,,,,,,,,,,,,,,,
,,,,,,610778fe744943d12ecab3cc,62c53892676c34b35019437d,2022-07-06_09h25.36.855,Colour_Asymmetry_Pilot,2022.1.3,Win32,60.10337781,62c50e9c1127f2cd403a315f,0,27,27,38,1,fourtwo,,,,,,,,,,,,,,,,,,,,,,,,,,,,,,,,,,,,,,,,,,,,,,,,,,,,,,,,,,,,,,,,,,,,,,,,,,,,,,,,,,,,,,,,,,,,,,,,,,,,,,,,,,,,,,,,,,,,,,,,,,,,,,,,,,,,,,,,,,,,,,,,,,,,,,,,,,,
,,,,,,610778fe744943d12ecab3cc,62c53892676c34b35019437d,2022-07-06_09h25.36.855,Colour_Asymmetry_Pilot,2022.1.3,Win32,60.10337781,62c50e9c1127f2cd403a315f,0,28,28,153,1,onethree,,,,,,,,,,,,,,,,,,,,,,,,,,,,,,,,,,,,,,,,,,,,,,,,,,,,,,,,,,,,,,,,,,,,,,,,,,,,,,,,,,,,,,,,,,,,,,,,,,,,,,,,,,,,,,,,,,,,,,,,,,,,,,,,,,,,,,,,,,,,,,,,,,,,,,,,,,,
,,,,,,610778fe744943d12ecab3cc,62c53892676c34b35019437d,2022-07-06_09h25.36.855,Colour_Asymmetry_Pilot,2022.1.3,Win32,60.10337781,62c50e9c1127f2cd403a315f,0,29,29,41,1,onethree,,,,,,,,,,,,,,,,,,,,,,,,,,,,,,,,,,,,,,,,,,,,,,,,,,,,,,,,,,,,,,,,,,,,,,,,,,,,,,,,,,,,,,,,,,,,,,,,,,,,,,,,,,,,,,,,,,,,,,,,,,,,,,,,,,,,,,,,,,,,,,,,,,,,,,,,,,,
,,,,,,610778fe744943d12ecab3cc,62c53892676c34b35019437d,2022-07-06_09h25.36.855,Colour_Asymmetry_Pilot,2022.1.3,Win32,60.10337781,62c50e9c1127f2cd403a315f,0,30,30,138,1,twoone,,,,,,,,,,,,,,,,,,,,,,,,,,,,,,,,,,,,,,,,,,,,,,,,,,,,,,,,,,,,,,,,,,,,,,,,,,,,,,,,,,,,,,,,,,,,,,,,,,,,,,,,,,,,,,,,,,,,,,,,,,,,,,,,,,,,,,,,,,,,,,,,,,,,,,,,,,,
,,,,,,610778fe744943d12ecab3cc,62c53892676c34b35019437d,2022-07-06_09h25.36.855,Colour_Asymmetry_Pilot,2022.1.3,Win32,60.10337781,62c50e9c1127f2cd403a315f,0,31,31,157,1,threefour,,,,,,,,,,,,,,,,,,,,,,,,,,,,,,,,,,,,,,,,,,,,,,,,,,,,,,,,,,,,,,,,,,,,,,,,,,,,,,,,,,,,,,,,,,,,,,,,,,,,,,,,,,,,,,,,,,,,,,,,,,,,,,,,,,,,,,,,,,,,,,,,,,,,,,,,,,,
,,,,,,610778fe744943d12ecab3cc,62c53892676c34b35019437d,2022-07-06_09h25.36.855,Colour_Asymmetry_Pilot,2022.1.3,Win32,60.10337781,62c50e9c1127f2cd403a315f,0,32,32,64,1,onetwo,,,,,,,,,,,,,,,,,,,,,,,,,,,,,,,,,,,,,,,,,,,,,,,,,,,,,,,,,,,,,,,,,,,,,,,,,,,,,,,,,,,,,,,,,,,,,,,,,,,,,,,,,,,,,,,,,,,,,,,,,,,,,,,,,,,,,,,,,,,,,,,,,,,,,,,,,,,
,,,,,,610778fe744943d12ecab3cc,62c53892676c34b35019437d,2022-07-06_09h25.36.855,Colour_Asymmetry_Pilot,2022.1.3,Win32,60.10337781,62c50e9c1127f2cd403a315f,0,33,33,57,1,onethree,,,,,,,,,,,,,,,,,,,,,,,,,,,,,,,,,,,,,,,,,,,,,,,,,,,,,,,,,,,,,,,,,,,,,,,,,,,,,,,,,,,,,,,,,,,,,,,,,,,,,,,,,,,,,,,,,,,,,,,,,,,,,,,,,,,,,,,,,,,,,,,,,,,,,,,,,,,
,,,,,,610778fe744943d12ecab3cc,62c53892676c34b35019437d,2022-07-06_09h25.36.855,Colour_Asymmetry_Pilot,2022.1.3,Win32,60.10337781,62c50e9c1127f2cd403a315f,0,34,34,55,1,fourthree,,,,,,,,,,,,,,,,,,,,,,,,,,,,,,,,,,,,,,,,,,,,,,,,,,,,,,,,,,,,,,,,,,,,,,,,,,,,,,,,,,,,,,,,,,,,,,,,,,,,,,,,,,,,,,,,,,,,,,,,,,,,,,,,,,,,,,,,,,,,,,,,,,,,,,,,,,,
,,,,,,610778fe744943d12ecab3cc,62c53892676c34b35019437d,2022-07-06_09h25.36.855,Colour_Asymmetry_Pilot,2022.1.3,Win32,60.10337781,62c50e9c1127f2cd403a315f,0,35,35,141,1,threefour,,,,,,,,,,,,,,,,,,,,,,,,,,,,,,,,,,,,,,,,,,,,,,,,,,,,,,,,,,,,,,,,,,,,,,,,,,,,,,,,,,,,,,,,,,,,,,,,,,,,,,,,,,,,,,,,,,,,,,,,,,,,,,,,,,,,,,,,,,,,,,,,,,,,,,,,,,,
,,,,,,610778fe744943d12ecab3cc,62c53892676c34b35019437d,2022-07-06_09h25.36.855,Colour_Asymmetry_Pilot,2022.1.3,Win32,60.10337781,62c50e9c1127f2cd403a315f,0,36,36,56,1,onetwo,,,,,,,,,,,,,,,,,,,,,,,,,,,,,,,,,,,,,,,,,,,,,,,,,,,,,,,,,,,,,,,,,,,,,,,,,,,,,,,,,,,,,,,,,,,,,,,,,,,,,,,,,,,,,,,,,,,,,,,,,,,,,,,,,,,,,,,,,,,,,,,,,,,,,,,,,,,
,,,,,,610778fe744943d12ecab3cc,62c53892676c34b35019437d,2022-07-06_09h25.36.855,Colour_Asymmetry_Pilot,2022.1.3,Win32,60.10337781,62c50e9c1127f2cd403a315f,0,37,37,39,1,fourthree,,,,,,,,,,,,,,,,,,,,,,,,,,,,,,,,,,,,,,,,,,,,,,,,,,,,,,,,,,,,,,,,,,,,,,,,,,,,,,,,,,,,,,,,,,,,,,,,,,,,,,,,,,,,,,,,,,,,,,,,,,,,,,,,,,,,,,,,,,,,,,,,,,,,,,,,,,,
,,,,,,610778fe744943d12ecab3cc,62c53892676c34b35019437d,2022-07-06_09h25.36.855,Colour_Asymmetry_Pilot,2022.1.3,Win32,60.10337781,62c50e9c1127f2cd403a315f,0,38,38,102,1,fourtwo,,,,,,,,,,,,,,,,,,,,,,,,,,,,,,,,,,,,,,,,,,,,,,,,,,,,,,,,,,,,,,,,,,,,,,,,,,,,,,,,,,,,,,,,,,,,,,,,,,,,,,,,,,,,,,,,,,,,,,,,,,,,,,,,,,,,,,,,,,,,,,,,,,,,,,,,,,,
,,,,,,610778fe744943d12ecab3cc,62c53892676c34b35019437d,2022-07-06_09h25.36.855,Colour_Asymmetry_Pilot,2022.1.3,Win32,60.10337781,62c50e9c1127f2cd403a315f,0,39,39,67,1,twofour,,,,,,,,,,,,,,,,,,,,,,,,,,,,,,,,,,,,,,,,,,,,,,,,,,,,,,,,,,,,,,,,,,,,,,,,,,,,,,,,,,,,,,,,,,,,,,,,,,,,,,,,,,,,,,,,,,,,,,,,,,,,,,,,,,,,,,,,,,,,,,,,,,,,,,,,,,,
,,,,,,610778fe744943d12ecab3cc,62c53892676c34b35019437d,2022-07-06_09h25.36.855,Colour_Asymmetry_Pilot,2022.1.3,Win32,60.10337781,62c50e9c1127f2cd403a315f,0,40,40,124,1,threeone,,,,,,,,,,,,,,,,,,,,,,,,,,,,,,,,,,,,,,,,,,,,,,,,,,,,,,,,,,,,,,,,,,,,,,,,,,,,,,,,,,,,,,,,,,,,,,,,,,,,,,,,,,,,,,,,,,,,,,,,,,,,,,,,,,,,,,,,,,,,,,,,,,,,,,,,,,,
,,,,,,610778fe744943d12ecab3cc,62c53892676c34b35019437d,2022-07-06_09h25.36.855,Colour_Asymmetry_Pilot,2022.1.3,Win32,60.10337781,62c50e9c1127f2cd403a315f,0,41,41,82,1,twoone,,,,,,,,,,,,,,,,,,,,,,,,,,,,,,,,,,,,,,,,,,,,,,,,,,,,,,,,,,,,,,,,,,,,,,,,,,,,,,,,,,,,,,,,,,,,,,,,,,,,,,,,,,,,,,,,,,,,,,,,,,,,,,,,,,,,,,,,,,,,,,,,,,,,,,,,,,,
,,,,,,610778fe744943d12ecab3cc,62c53892676c34b35019437d,2022-07-06_09h25.36.855,Colour_Asymmetry_Pilot,2022.1.3,Win32,60.10337781,62c50e9c1127f2cd403a315f,0,42,42,155,1,twofour,,,,,,,,,,,,,,,,,,,,,,,,,,,,,,,,,,,,,,,,,,,,,,,,,,,,,,,,,,,,,,,,,,,,,,,,,,,,,,,,,,,,,,,,,,,,,,,,,,,,,,,,,,,,,,,,,,,,,,,,,,,,,,,,,,,,,,,,,,,,,,,,,,,,,,,,,,,
,,,,,,610778fe744943d12ecab3cc,62c53892676c34b35019437d,2022-07-06_09h25.36.855,Colour_Asymmetry_Pilot,2022.1.3,Win32,60.10337781,62c50e9c1127f2cd403a315f,0,43,43,14,1,fourtwo,,,,,,,,,,,,,,,,,,,,,,,,,,,,,,,,,,,,,,,,,,,,,,,,,,,,,,,,,,,,,,,,,,,,,,,,,,,,,,,,,,,,,,,,,,,,,,,,,,,,,,,,,,,,,,,,,,,,,,,,,,,,,,,,,,,,,,,,,,,,,,,,,,,,,,,,,,,
,,,,,,610778fe744943d12ecab3cc,62c53892676c34b35019437d,2022-07-06_09h25.36.855,Colour_Asymmetry_Pilot,2022.1.3,Win32,60.10337781,62c50e9c1127f2cd403a315f,0,44,44,106,1,twoone,,,,,,,,,,,,,,,,,,,,,,,,,,,,,,,,,,,,,,,,,,,,,,,,,,,,,,,,,,,,,,,,,,,,,,,,,,,,,,,,,,,,,,,,,,,,,,,,,,,,,,,,,,,,,,,,,,,,,,,,,,,,,,,,,,,,,,,,,,,,,,,,,,,,,,,,,,,
,,,,,,610778fe744943d12ecab3cc,62c53892676c34b35019437d,2022-07-06_09h25.36.855,Colour_Asymmetry_Pilot,2022.1.3,Win32,60.10337781,62c50e9c1127f2cd403a315f,0,45,45,111,1,fourthree,,,,,,,,,,,,,,,,,,,,,,,,,,,,,,,,,,,,,,,,,,,,,,,,,,,,,,,,,,,,,,,,,,,,,,,,,,,,,,,,,,,,,,,,,,,,,,,,,,,,,,,,,,,,,,,,,,,,,,,,,,,,,,,,,,,,,,,,,,,,,,,,,,,,,,,,,,,
,,,,,,610778fe744943d12ecab3cc,62c53892676c34b35019437d,2022-07-06_09h25.36.855,Colour_Asymmetry_Pilot,2022.1.3,Win32,60.10337781,62c50e9c1127f2cd403a315f,0,46,46,103,1,fourthree,,,,,,,,,,,,,,,,,,,,,,,,,,,,,,,,,,,,,,,,,,,,,,,,,,,,,,,,,,,,,,,,,,,,,,,,,,,,,,,,,,,,,,,,,,,,,,,,,,,,,,,,,,,,,,,,,,,,,,,,,,,,,,,,,,,,,,,,,,,,,,,,,,,,,,,,,,,
,,,,,,610778fe744943d12ecab3cc,62c53892676c34b35019437d,2022-07-06_09h25.36.855,Colour_Asymmetry_Pilot,2022.1.3,Win32,60.10337781,62c50e9c1127f2cd403a315f,0,47,47,37,1,threefour,,,,,,,,,,,,,,,,,,,,,,,,,,,,,,,,,,,,,,,,,,,,,,,,,,,,,,,,,,,,,,,,,,,,,,,,,,,,,,,,,,,,,,,,,,,,,,,,,,,,,,,,,,,,,,,,,,,,,,,,,,,,,,,,,,,,,,,,,,,,,,,,,,,,,,,,,,,
,,,,,,610778fe744943d12ecab3cc,62c53892676c34b35019437d,2022-07-06_09h25.36.855,Colour_Asymmetry_Pilot,2022.1.3,Win32,60.10337781,62c50e9c1127f2cd403a315f,0,48,48,123,1,twofour,,,,,,,,,,,,,,,,,,,,,,,,,,,,,,,,,,,,,,,,,,,,,,,,,,,,,,,,,,,,,,,,,,,,,,,,,,,,,,,,,,,,,,,,,,,,,,,,,,,,,,,,,,,,,,,,,,,,,,,,,,,,,,,,,,,,,,,,,,,,,,,,,,,,,,,,,,,
,,,,,,610778fe744943d12ecab3cc,62c53892676c34b35019437d,2022-07-06_09h25.36.855,Colour_Asymmetry_Pilot,2022.1.3,Win32,60.10337781,62c50e9c1127f2cd403a315f,0,49,49,23,1,fourthree,,,,,,,,,,,,,,,,,,,,,,,,,,,,,,,,,,,,,,,,,,,,,,,,,,,,,,,,,,,,,,,,,,,,,,,,,,,,,,,,,,,,,,,,,,,,,,,,,,,,,,,,,,,,,,,,,,,,,,,,,,,,,,,,,,,,,,,,,,,,,,,,,,,,,,,,,,,
,,,,,,610778fe744943d12ecab3cc,62c53892676c34b35019437d,2022-07-06_09h25.36.855,Colour_Asymmetry_Pilot,2022.1.3,Win32,60.10337781,62c50e9c1127f2cd403a315f,0,50,50,18,1,twoone,,,,,,,,,,,,,,,,,,,,,,,,,,,,,,,,,,,,,,,,,,,,,,,,,,,,,,,,,,,,,,,,,,,,,,,,,,,,,,,,,,,,,,,,,,,,,,,,,,,,,,,,,,,,,,,,,,,,,,,,,,,,,,,,,,,,,,,,,,,,,,,,,,,,,,,,,,,
,,,,,,610778fe744943d12ecab3cc,62c53892676c34b35019437d,2022-07-06_09h25.36.855,Colour_Asymmetry_Pilot,2022.1.3,Win32,60.10337781,62c50e9c1127f2cd403a315f,0,51,51,20,1,threeone,,,,,,,,,,,,,,,,,,,,,,,,,,,,,,,,,,,,,,,,,,,,,,,,,,,,,,,,,,,,,,,,,,,,,,,,,,,,,,,,,,,,,,,,,,,,,,,,,,,,,,,,,,,,,,,,,,,,,,,,,,,,,,,,,,,,,,,,,,,,,,,,,,,,,,,,,,,
,,,,,,610778fe744943d12ecab3cc,62c53892676c34b35019437d,2022-07-06_09h25.36.855,Colour_Asymmetry_Pilot,2022.1.3,Win32,60.10337781,62c50e9c1127f2cd403a315f,0,52,52,80,1,onetwo,,,,,,,,,,,,,,,,,,,,,,,,,,,,,,,,,,,,,,,,,,,,,,,,,,,,,,,,,,,,,,,,,,,,,,,,,,,,,,,,,,,,,,,,,,,,,,,,,,,,,,,,,,,,,,,,,,,,,,,,,,,,,,,,,,,,,,,,,,,,,,,,,,,,,,,,,,,
,,,,,,610778fe744943d12ecab3cc,62c53892676c34b35019437d,2022-07-06_09h25.36.855,Colour_Asymmetry_Pilot,2022.1.3,Win32,60.10337781,62c50e9c1127f2cd403a315f,0,53,53,152,1,onetwo,,,,,,,,,,,,,,,,,,,,,,,,,,,,,,,,,,,,,,,,,,,,,,,,,,,,,,,,,,,,,,,,,,,,,,,,,,,,,,,,,,,,,,,,,,,,,,,,,,,,,,,,,,,,,,,,,,,,,,,,,,,,,,,,,,,,,,,,,,,,,,,,,,,,,,,,,,,
,,,,,,610778fe744943d12ecab3cc,62c53892676c34b35019437d,2022-07-06_09h25.36.855,Colour_Asymmetry_Pilot,2022.1.3,Win32,60.10337781,62c50e9c1127f2cd403a315f,0,54,54,6,1,fourtwo,,,,,,,,,,,,,,,,,,,,,,,,,,,,,,,,,,,,,,,,,,,,,,,,,,,,,,,,,,,,,,,,,,,,,,,,,,,,,,,,,,,,,,,,,,,,,,,,,,,,,,,,,,,,,,,,,,,,,,,,,,,,,,,,,,,,,,,,,,,,,,,,,,,,,,,,,,,
,,,,,,610778fe744943d12ecab3cc,62c53892676c34b35019437d,2022-07-06_09h25.36.855,Colour_Asymmetry_Pilot,2022.1.3,Win32,60.10337781,62c50e9c1127f2cd403a315f,0,55,55,49,1,onethree,,,,,,,,,,,,,,,,,,,,,,,,,,,,,,,,,,,,,,,,,,,,,,,,,,,,,,,,,,,,,,,,,,,,,,,,,,,,,,,,,,,,,,,,,,,,,,,,,,,,,,,,,,,,,,,,,,,,,,,,,,,,,,,,,,,,,,,,,,,,,,,,,,,,,,,,,,,
,,,,,,610778fe744943d12ecab3cc,62c53892676c34b35019437d,2022-07-06_09h25.36.855,Colour_Asymmetry_Pilot,2022.1.3,Win32,60.10337781,62c50e9c1127f2cd403a315f,0,56,56,118,1,fourtwo,,,,,,,,,,,,,,,,,,,,,,,,,,,,,,,,,,,,,,,,,,,,,,,,,,,,,,,,,,,,,,,,,,,,,,,,,,,,,,,,,,,,,,,,,,,,,,,,,,,,,,,,,,,,,,,,,,,,,,,,,,,,,,,,,,,,,,,,,,,,,,,,,,,,,,,,,,,
,,,,,,610778fe744943d12ecab3cc,62c53892676c34b35019437d,2022-07-06_09h25.36.855,Colour_Asymmetry_Pilot,2022.1.3,Win32,60.10337781,62c50e9c1127f2cd403a315f,0,57,57,70,1,fourtwo,,,,,,,,,,,,,,,,,,,,,,,,,,,,,,,,,,,,,,,,,,,,,,,,,,,,,,,,,,,,,,,,,,,,,,,,,,,,,,,,,,,,,,,,,,,,,,,,,,,,,,,,,,,,,,,,,,,,,,,,,,,,,,,,,,,,,,,,,,,,,,,,,,,,,,,,,,,
,,,,,,610778fe744943d12ecab3cc,62c53892676c34b35019437d,2022-07-06_09h25.36.855,Colour_Asymmetry_Pilot,2022.1.3,Win32,60.10337781,62c50e9c1127f2cd403a315f,0,58,58,21,1,threefour,,,,,,,,,,,,,,,,,,,,,,,,,,,,,,,,,,,,,,,,,,,,,,,,,,,,,,,,,,,,,,,,,,,,,,,,,,,,,,,,,,,,,,,,,,,,,,,,,,,,,,,,,,,,,,,,,,,,,,,,,,,,,,,,,,,,,,,,,,,,,,,,,,,,,,,,,,,
,,,,,,610778fe744943d12ecab3cc,62c53892676c34b35019437d,2022-07-06_09h25.36.855,Colour_Asymmetry_Pilot,2022.1.3,Win32,60.10337781,62c50e9c1127f2cd403a315f,0,59,59,154,1,twoone,,,,,,,,,,,,,,,,,,,,,,,,,,,,,,,,,,,,,,,,,,,,,,,,,,,,,,,,,,,,,,,,,,,,,,,,,,,,,,,,,,,,,,,,,,,,,,,,,,,,,,,,,,,,,,,,,,,,,,,,,,,,,,,,,,,,,,,,,,,,,,,,,,,,,,,,,,,
,,,,,,610778fe744943d12ecab3cc,62c53892676c34b35019437d,2022-07-06_09h25.36.855,Colour_Asymmetry_Pilot,2022.1.3,Win32,60.10337781,62c50e9c1127f2cd403a315f,0,60,60,147,1,twofour,,,,,,,,,,,,,,,,,,,,,,,,,,,,,,,,,,,,,,,,,,,,,,,,,,,,,,,,,,,,,,,,,,,,,,,,,,,,,,,,,,,,,,,,,,,,,,,,,,,,,,,,,,,,,,,,,,,,,,,,,,,,,,,,,,,,,,,,,,,,,,,,,,,,,,,,,,,
,,,,,,610778fe744943d12ecab3cc,62c53892676c34b35019437d,2022-07-06_09h25.36.855,Colour_Asymmetry_Pilot,2022.1.3,Win32,60.10337781,62c50e9c1127f2cd403a315f,0,61,61,42,1,twoone,,,,,,,,,,,,,,,,,,,,,,,,,,,,,,,,,,,,,,,,,,,,,,,,,,,,,,,,,,,,,,,,,,,,,,,,,,,,,,,,,,,,,,,,,,,,,,,,,,,,,,,,,,,,,,,,,,,,,,,,,,,,,,,,,,,,,,,,,,,,,,,,,,,,,,,,,,,
,,,,,,610778fe744943d12ecab3cc,62c53892676c34b35019437d,2022-07-06_09h25.36.855,Colour_Asymmetry_Pilot,2022.1.3,Win32,60.10337781,62c50e9c1127f2cd403a315f,0,62,62,137,1,onethree,,,,,,,,,,,,,,,,,,,,,,,,,,,,,,,,,,,,,,,,,,,,,,,,,,,,,,,,,,,,,,,,,,,,,,,,,,,,,,,,,,,,,,,,,,,,,,,,,,,,,,,,,,,,,,,,,,,,,,,,,,,,,,,,,,,,,,,,,,,,,,,,,,,,,,,,,,,
,,,,,,610778fe744943d12ecab3cc,62c53892676c34b35019437d,2022-07-06_09h25.36.855,Colour_Asymmetry_Pilot,2022.1.3,Win32,60.10337781,62c50e9c1127f2cd403a315f,0,63,63,132,1,threeone,,,,,,,,,,,,,,,,,,,,,,,,,,,,,,,,,,,,,,,,,,,,,,,,,,,,,,,,,,,,,,,,,,,,,,,,,,,,,,,,,,,,,,,,,,,,,,,,,,,,,,,,,,,,,,,,,,,,,,,,,,,,,,,,,,,,,,,,,,,,,,,,,,,,,,,,,,,
,,,,,,610778fe744943d12ecab3cc,62c53892676c34b35019437d,2022-07-06_09h25.36.855,Colour_Asymmetry_Pilot,2022.1.3,Win32,60.10337781,62c50e9c1127f2cd403a315f,0,64,64,115,1,twofour,,,,,,,,,,,,,,,,,,,,,,,,,,,,,,,,,,,,,,,,,,,,,,,,,,,,,,,,,,,,,,,,,,,,,,,,,,,,,,,,,,,,,,,,,,,,,,,,,,,,,,,,,,,,,,,,,,,,,,,,,,,,,,,,,,,,,,,,,,,,,,,,,,,,,,,,,,,
,,,,,,610778fe744943d12ecab3cc,62c53892676c34b35019437d,2022-07-06_09h25.36.855,Colour_Asymmetry_Pilot,2022.1.3,Win32,60.10337781,62c50e9c1127f2cd403a315f,0,65,65,95,1,fourthree,,,,,,,,,,,,,,,,,,,,,,,,,,,,,,,,,,,,,,,,,,,,,,,,,,,,,,,,,,,,,,,,,,,,,,,,,,,,,,,,,,,,,,,,,,,,,,,,,,,,,,,,,,,,,,,,,,,,,,,,,,,,,,,,,,,,,,,,,,,,,,,,,,,,,,,,,,,
,,,,,,610778fe744943d12ecab3cc,62c53892676c34b35019437d,2022-07-06_09h25.36.855,Colour_Asymmetry_Pilot,2022.1.3,Win32,60.10337781,62c50e9c1127f2cd403a315f,0,66,66,52,1,threeone,,,,,,,,,,,,,,,,,,,,,,,,,,,,,,,,,,,,,,,,,,,,,,,,,,,,,,,,,,,,,,,,,,,,,,,,,,,,,,,,,,,,,,,,,,,,,,,,,,,,,,,,,,,,,,,,,,,,,,,,,,,,,,,,,,,,,,,,,,,,,,,,,,,,,,,,,,,
,,,,,,610778fe744943d12ecab3cc,62c53892676c34b35019437d,2022-07-06_09h25.36.855,Colour_Asymmetry_Pilot,2022.1.3,Win32,60.10337781,62c50e9c1127f2cd403a315f,0,67,67,116,1,threeone,,,,,,,,,,,,,,,,,,,,,,,,,,,,,,,,,,,,,,,,,,,,,,,,,,,,,,,,,,,,,,,,,,,,,,,,,,,,,,,,,,,,,,,,,,,,,,,,,,,,,,,,,,,,,,,,,,,,,,,,,,,,,,,,,,,,,,,,,,,,,,,,,,,,,,,,,,,
,,,,,,610778fe744943d12ecab3cc,62c53892676c34b35019437d,2022-07-06_09h25.36.855,Colour_Asymmetry_Pilot,2022.1.3,Win32,60.10337781,62c50e9c1127f2cd403a315f,0,68,68,101,1,threefour,,,,,,,,,,,,,,,,,,,,,,,,,,,,,,,,,,,,,,,,,,,,,,,,,,,,,,,,,,,,,,,,,,,,,,,,,,,,,,,,,,,,,,,,,,,,,,,,,,,,,,,,,,,,,,,,,,,,,,,,,,,,,,,,,,,,,,,,,,,,,,,,,,,,,,,,,,,
,,,,,,610778fe744943d12ecab3cc,62c53892676c34b35019437d,2022-07-06_09h25.36.855,Colour_Asymmetry_Pilot,2022.1.3,Win32,60.10337781,62c50e9c1127f2cd403a315f,0,69,69,125,1,threefour,,,,,,,,,,,,,,,,,,,,,,,,,,,,,,,,,,,,,,,,,,,,,,,,,,,,,,,,,,,,,,,,,,,,,,,,,,,,,,,,,,,,,,,,,,,,,,,,,,,,,,,,,,,,,,,,,,,,,,,,,,,,,,,,,,,,,,,,,,,,,,,,,,,,,,,,,,,
,,,,,,610778fe744943d12ecab3cc,62c53892676c34b35019437d,2022-07-06_09h25.36.855,Colour_Asymmetry_Pilot,2022.1.3,Win32,60.10337781,62c50e9c1127f2cd403a315f,0,70,70,126,1,fourtwo,,,,,,,,,,,,,,,,,,,,,,,,,,,,,,,,,,,,,,,,,,,,,,,,,,,,,,,,,,,,,,,,,,,,,,,,,,,,,,,,,,,,,,,,,,,,,,,,,,,,,,,,,,,,,,,,,,,,,,,,,,,,,,,,,,,,,,,,,,,,,,,,,,,,,,,,,,,
,,,,,,610778fe744943d12ecab3cc,62c53892676c34b35019437d,2022-07-06_09h25.36.855,Colour_Asymmetry_Pilot,2022.1.3,Win32,60.10337781,62c50e9c1127f2cd403a315f,0,71,71,15,1,fourthree,,,,,,,,,,,,,,,,,,,,,,,,,,,,,,,,,,,,,,,,,,,,,,,,,,,,,,,,,,,,,,,,,,,,,,,,,,,,,,,,,,,,,,,,,,,,,,,,,,,,,,,,,,,,,,,,,,,,,,,,,,,,,,,,,,,,,,,,,,,,,,,,,,,,,,,,,,,
,,,,,,610778fe744943d12ecab3cc,62c53892676c34b35019437d,2022-07-06_09h25.36.855,Colour_Asymmetry_Pilot,2022.1.3,Win32,60.10337781,62c50e9c1127f2cd403a315f,0,72,72,61,1,threefour,,,,,,,,,,,,,,,,,,,,,,,,,,,,,,,,,,,,,,,,,,,,,,,,,,,,,,,,,,,,,,,,,,,,,,,,,,,,,,,,,,,,,,,,,,,,,,,,,,,,,,,,,,,,,,,,,,,,,,,,,,,,,,,,,,,,,,,,,,,,,,,,,,,,,,,,,,,
,,,,,,610778fe744943d12ecab3cc,62c53892676c34b35019437d,2022-07-06_09h25.36.855,Colour_Asymmetry_Pilot,2022.1.3,Win32,60.10337781,62c50e9c1127f2cd403a315f,0,73,73,161,1,onethree,,,,,,,,,,,,,,,,,,,,,,,,,,,,,,,,,,,,,,,,,,,,,,,,,,,,,,,,,,,,,,,,,,,,,,,,,,,,,,,,,,,,,,,,,,,,,,,,,,,,,,,,,,,,,,,,,,,,,,,,,,,,,,,,,,,,,,,,,,,,,,,,,,,,,,,,,,,
,,,,,,610778fe744943d12ecab3cc,62c53892676c34b35019437d,2022-07-06_09h25.36.855,Colour_Asymmetry_Pilot,2022.1.3,Win32,60.10337781,62c50e9c1127f2cd403a315f,0,74,74,5,1,threefour,,,,,,,,,,,,,,,,,,,,,,,,,,,,,,,,,,,,,,,,,,,,,,,,,,,,,,,,,,,,,,,,,,,,,,,,,,,,,,,,,,,,,,,,,,,,,,,,,,,,,,,,,,,,,,,,,,,,,,,,,,,,,,,,,,,,,,,,,,,,,,,,,,,,,,,,,,,
,,,,,,610778fe744943d12ecab3cc,62c53892676c34b35019437d,2022-07-06_09h25.36.855,Colour_Asymmetry_Pilot,2022.1.3,Win32,60.10337781,62c50e9c1127f2cd403a315f,0,75,75,65,1,onethree,,,,,,,,,,,,,,,,,,,,,,,,,,,,,,,,,,,,,,,,,,,,,,,,,,,,,,,,,,,,,,,,,,,,,,,,,,,,,,,,,,,,,,,,,,,,,,,,,,,,,,,,,,,,,,,,,,,,,,,,,,,,,,,,,,,,,,,,,,,,,,,,,,,,,,,,,,,
,,,,,,610778fe744943d12ecab3cc,62c53892676c34b35019437d,2022-07-06_09h25.36.855,Colour_Asymmetry_Pilot,2022.1.3,Win32,60.10337781,62c50e9c1127f2cd403a315f,0,76,76,59,1,twofour,,,,,,,,,,,,,,,,,,,,,,,,,,,,,,,,,,,,,,,,,,,,,,,,,,,,,,,,,,,,,,,,,,,,,,,,,,,,,,,,,,,,,,,,,,,,,,,,,,,,,,,,,,,,,,,,,,,,,,,,,,,,,,,,,,,,,,,,,,,,,,,,,,,,,,,,,,,
,,,,,,610778fe744943d12ecab3cc,62c53892676c34b35019437d,2022-07-06_09h25.36.855,Colour_Asymmetry_Pilot,2022.1.3,Win32,60.10337781,62c50e9c1127f2cd403a315f,0,77,77,83,1,twofour,,,,,,,,,,,,,,,,,,,,,,,,,,,,,,,,,,,,,,,,,,,,,,,,,,,,,,,,,,,,,,,,,,,,,,,,,,,,,,,,,,,,,,,,,,,,,,,,,,,,,,,,,,,,,,,,,,,,,,,,,,,,,,,,,,,,,,,,,,,,,,,,,,,,,,,,,,,
,,,,,,610778fe744943d12ecab3cc,62c53892676c34b35019437d,2022-07-06_09h25.36.855,Colour_Asymmetry_Pilot,2022.1.3,Win32,60.10337781,62c50e9c1127f2cd403a315f,0,78,78,109,1,threefour,,,,,,,,,,,,,,,,,,,,,,,,,,,,,,,,,,,,,,,,,,,,,,,,,,,,,,,,,,,,,,,,,,,,,,,,,,,,,,,,,,,,,,,,,,,,,,,,,,,,,,,,,,,,,,,,,,,,,,,,,,,,,,,,,,,,,,,,,,,,,,,,,,,,,,,,,,,
,,,,,,610778fe744943d12ecab3cc,62c53892676c34b35019437d,2022-07-06_09h25.36.855,Colour_Asymmetry_Pilot,2022.1.3,Win32,60.10337781,62c50e9c1127f2cd403a315f,0,79,79,34,1,twoone,,,,,,,,,,,,,,,,,,,,,,,,,,,,,,,,,,,,,,,,,,,,,,,,,,,,,,,,,,,,,,,,,,,,,,,,,,,,,,,,,,,,,,,,,,,,,,,,,,,,,,,,,,,,,,,,,,,,,,,,,,,,,,,,,,,,,,,,,,,,,,,,,,,,,,,,,,,
,,,,,,610778fe744943d12ecab3cc,62c53892676c34b35019437d,2022-07-06_09h25.36.855,Colour_Asymmetry_Pilot,2022.1.3,Win32,60.10337781,62c50e9c1127f2cd403a315f,0,80,80,136,1,onetwo,,,,,,,,,,,,,,,,,,,,,,,,,,,,,,,,,,,,,,,,,,,,,,,,,,,,,,,,,,,,,,,,,,,,,,,,,,,,,,,,,,,,,,,,,,,,,,,,,,,,,,,,,,,,,,,,,,,,,,,,,,,,,,,,,,,,,,,,,,,,,,,,,,,,,,,,,,,
,,,,,,610778fe744943d12ecab3cc,62c53892676c34b35019437d,2022-07-06_09h25.36.855,Colour_Asymmetry_Pilot,2022.1.3,Win32,60.10337781,62c50e9c1127f2cd403a315f,0,81,81,151,1,fourthree,,,,,,,,,,,,,,,,,,,,,,,,,,,,,,,,,,,,,,,,,,,,,,,,,,,,,,,,,,,,,,,,,,,,,,,,,,,,,,,,,,,,,,,,,,,,,,,,,,,,,,,,,,,,,,,,,,,,,,,,,,,,,,,,,,,,,,,,,,,,,,,,,,,,,,,,,,,
,,,,,,610778fe744943d12ecab3cc,62c53892676c34b35019437d,2022-07-06_09h25.36.855,Colour_Asymmetry_Pilot,2022.1.3,Win32,60.10337781,62c50e9c1127f2cd403a315f,0,82,82,45,1,threefour,,,,,,,,,,,,,,,,,,,,,,,,,,,,,,,,,,,,,,,,,,,,,,,,,,,,,,,,,,,,,,,,,,,,,,,,,,,,,,,,,,,,,,,,,,,,,,,,,,,,,,,,,,,,,,,,,,,,,,,,,,,,,,,,,,,,,,,,,,,,,,,,,,,,,,,,,,,
,,,,,,610778fe744943d12ecab3cc,62c53892676c34b35019437d,2022-07-06_09h25.36.855,Colour_Asymmetry_Pilot,2022.1.3,Win32,60.10337781,62c50e9c1127f2cd403a315f,0,83,83,29,1,threefour,,,,,,,,,,,,,,,,,,,,,,,,,,,,,,,,,,,,,,,,,,,,,,,,,,,,,,,,,,,,,,,,,,,,,,,,,,,,,,,,,,,,,,,,,,,,,,,,,,,,,,,,,,,,,,,,,,,,,,,,,,,,,,,,,,,,,,,,,,,,,,,,,,,,,,,,,,,
,,,,,,610778fe744943d12ecab3cc,62c53892676c34b35019437d,2022-07-06_09h25.36.855,Colour_Asymmetry_Pilot,2022.1.3,Win32,60.10337781,62c50e9c1127f2cd403a315f,0,84,84,35,1,twofour,,,,,,,,,,,,,,,,,,,,,,,,,,,,,,,,,,,,,,,,,,,,,,,,,,,,,,,,,,,,,,,,,,,,,,,,,,,,,,,,,,,,,,,,,,,,,,,,,,,,,,,,,,,,,,,,,,,,,,,,,,,,,,,,,,,,,,,,,,,,,,,,,,,,,,,,,,,
,,,,,,610778fe744943d12ecab3cc,62c53892676c34b35019437d,2022-07-06_09h25.36.855,Colour_Asymmetry_Pilot,2022.1.3,Win32,60.10337781,62c50e9c1127f2cd403a315f,0,85,85,117,1,threefour,,,,,,,,,,,,,,,,,,,,,,,,,,,,,,,,,,,,,,,,,,,,,,,,,,,,,,,,,,,,,,,,,,,,,,,,,,,,,,,,,,,,,,,,,,,,,,,,,,,,,,,,,,,,,,,,,,,,,,,,,,,,,,,,,,,,,,,,,,,,,,,,,,,,,,,,,,,
,,,,,,610778fe744943d12ecab3cc,62c53892676c34b35019437d,2022-07-06_09h25.36.855,Colour_Asymmetry_Pilot,2022.1.3,Win32,60.10337781,62c50e9c1127f2cd403a315f,0,86,86,133,1,threefour,,,,,,,,,,,,,,,,,,,,,,,,,,,,,,,,,,,,,,,,,,,,,,,,,,,,,,,,,,,,,,,,,,,,,,,,,,,,,,,,,,,,,,,,,,,,,,,,,,,,,,,,,,,,,,,,,,,,,,,,,,,,,,,,,,,,,,,,,,,,,,,,,,,,,,,,,,,
,,,,,,610778fe744943d12ecab3cc,62c53892676c34b35019437d,2022-07-06_09h25.36.855,Colour_Asymmetry_Pilot,2022.1.3,Win32,60.10337781,62c50e9c1127f2cd403a315f,0,87,87,145,1,onethree,,,,,,,,,,,,,,,,,,,,,,,,,,,,,,,,,,,,,,,,,,,,,,,,,,,,,,,,,,,,,,,,,,,,,,,,,,,,,,,,,,,,,,,,,,,,,,,,,,,,,,,,,,,,,,,,,,,,,,,,,,,,,,,,,,,,,,,,,,,,,,,,,,,,,,,,,,,
,,,,,,610778fe744943d12ecab3cc,62c53892676c34b35019437d,2022-07-06_09h25.36.855,Colour_Asymmetry_Pilot,2022.1.3,Win32,60.10337781,62c50e9c1127f2cd403a315f,0,88,88,8,1,onetwo,,,,,,,,,,,,,,,,,,,,,,,,,,,,,,,,,,,,,,,,,,,,,,,,,,,,,,,,,,,,,,,,,,,,,,,,,,,,,,,,,,,,,,,,,,,,,,,,,,,,,,,,,,,,,,,,,,,,,,,,,,,,,,,,,,,,,,,,,,,,,,,,,,,,,,,,,,,
,,,,,,610778fe744943d12ecab3cc,62c53892676c34b35019437d,2022-07-06_09h25.36.855,Colour_Asymmetry_Pilot,2022.1.3,Win32,60.10337781,62c50e9c1127f2cd403a315f,0,89,89,85,1,threefour,,,,,,,,,,,,,,,,,,,,,,,,,,,,,,,,,,,,,,,,,,,,,,,,,,,,,,,,,,,,,,,,,,,,,,,,,,,,,,,,,,,,,,,,,,,,,,,,,,,,,,,,,,,,,,,,,,,,,,,,,,,,,,,,,,,,,,,,,,,,,,,,,,,,,,,,,,,
,,,,,,610778fe744943d12ecab3cc,62c53892676c34b35019437d,2022-07-06_09h25.36.855,Colour_Asymmetry_Pilot,2022.1.3,Win32,60.10337781,62c50e9c1127f2cd403a315f,0,90,90,63,1,fourthree,,,,,,,,,,,,,,,,,,,,,,,,,,,,,,,,,,,,,,,,,,,,,,,,,,,,,,,,,,,,,,,,,,,,,,,,,,,,,,,,,,,,,,,,,,,,,,,,,,,,,,,,,,,,,,,,,,,,,,,,,,,,,,,,,,,,,,,,,,,,,,,,,,,,,,,,,,,
,,,,,,610778fe744943d12ecab3cc,62c53892676c34b35019437d,2022-07-06_09h25.36.855,Colour_Asymmetry_Pilot,2022.1.3,Win32,60.10337781,62c50e9c1127f2cd403a315f,0,91,91,92,1,threeone,,,,,,,,,,,,,,,,,,,,,,,,,,,,,,,,,,,,,,,,,,,,,,,,,,,,,,,,,,,,,,,,,,,,,,,,,,,,,,,,,,,,,,,,,,,,,,,,,,,,,,,,,,,,,,,,,,,,,,,,,,,,,,,,,,,,,,,,,,,,,,,,,,,,,,,,,,,
,,,,,,610778fe744943d12ecab3cc,62c53892676c34b35019437d,2022-07-06_09h25.36.855,Colour_Asymmetry_Pilot,2022.1.3,Win32,60.10337781,62c50e9c1127f2cd403a315f,0,92,92,119,1,fourthree,,,,,,,,,,,,,,,,,,,,,,,,,,,,,,,,,,,,,,,,,,,,,,,,,,,,,,,,,,,,,,,,,,,,,,,,,,,,,,,,,,,,,,,,,,,,,,,,,,,,,,,,,,,,,,,,,,,,,,,,,,,,,,,,,,,,,,,,,,,,,,,,,,,,,,,,,,,
,,,,,,610778fe744943d12ecab3cc,62c53892676c34b35019437d,2022-07-06_09h25.36.855,Colour_Asymmetry_Pilot,2022.1.3,Win32,60.10337781,62c50e9c1127f2cd403a315f,0,93,93,19,1,twofour,,,,,,,,,,,,,,,,,,,,,,,,,,,,,,,,,,,,,,,,,,,,,,,,,,,,,,,,,,,,,,,,,,,,,,,,,,,,,,,,,,,,,,,,,,,,,,,,,,,,,,,,,,,,,,,,,,,,,,,,,,,,,,,,,,,,,,,,,,,,,,,,,,,,,,,,,,,
,,,,,,610778fe744943d12ecab3cc,62c53892676c34b35019437d,2022-07-06_09h25.36.855,Colour_Asymmetry_Pilot,2022.1.3,Win32,60.10337781,62c50e9c1127f2cd403a315f,0,94,94,108,1,threeone,,,,,,,,,,,,,,,,,,,,,,,,,,,,,,,,,,,,,,,,,,,,,,,,,,,,,,,,,,,,,,,,,,,,,,,,,,,,,,,,,,,,,,,,,,,,,,,,,,,,,,,,,,,,,,,,,,,,,,,,,,,,,,,,,,,,,,,,,,,,,,,,,,,,,,,,,,,
,,,,,,610778fe744943d12ecab3cc,62c53892676c34b35019437d,2022-07-06_09h25.36.855,Colour_Asymmetry_Pilot,2022.1.3,Win32,60.10337781,62c50e9c1127f2cd403a315f,0,95,95,91,1,twofour,,,,,,,,,,,,,,,,,,,,,,,,,,,,,,,,,,,,,,,,,,,,,,,,,,,,,,,,,,,,,,,,,,,,,,,,,,,,,,,,,,,,,,,,,,,,,,,,,,,,,,,,,,,,,,,,,,,,,,,,,,,,,,,,,,,,,,,,,,,,,,,,,,,,,,,,,,,
,,,,,,610778fe744943d12ecab3cc,62c53892676c34b35019437d,2022-07-06_09h25.36.855,Colour_Asymmetry_Pilot,2022.1.3,Win32,60.10337781,62c50e9c1127f2cd403a315f,0,96,96,71,1,fourthree,,,,,,,,,,,,,,,,,,,,,,,,,,,,,,,,,,,,,,,,,,,,,,,,,,,,,,,,,,,,,,,,,,,,,,,,,,,,,,,,,,,,,,,,,,,,,,,,,,,,,,,,,,,,,,,,,,,,,,,,,,,,,,,,,,,,,,,,,,,,,,,,,,,,,,,,,,,
,,,,,,610778fe744943d12ecab3cc,62c53892676c34b35019437d,2022-07-06_09h25.36.855,Colour_Asymmetry_Pilot,2022.1.3,Win32,60.10337781,62c50e9c1127f2cd403a315f,0,97,97,150,1,fourtwo,,,,,,,,,,,,,,,,,,,,,,,,,,,,,,,,,,,,,,,,,,,,,,,,,,,,,,,,,,,,,,,,,,,,,,,,,,,,,,,,,,,,,,,,,,,,,,,,,,,,,,,,,,,,,,,,,,,,,,,,,,,,,,,,,,,,,,,,,,,,,,,,,,,,,,,,,,,
,,,,,,610778fe744943d12ecab3cc,62c53892676c34b35019437d,2022-07-06_09h25.36.855,Colour_Asymmetry_Pilot,2022.1.3,Win32,60.10337781,62c50e9c1127f2cd403a315f,0,98,98,105,1,onethree,,,,,,,,,,,,,,,,,,,,,,,,,,,,,,,,,,,,,,,,,,,,,,,,,,,,,,,,,,,,,,,,,,,,,,,,,,,,,,,,,,,,,,,,,,,,,,,,,,,,,,,,,,,,,,,,,,,,,,,,,,,,,,,,,,,,,,,,,,,,,,,,,,,,,,,,,,,
,,,,,,610778fe744943d12ecab3cc,62c53892676c34b35019437d,2022-07-06_09h25.36.855,Colour_Asymmetry_Pilot,2022.1.3,Win32,60.10337781,62c50e9c1127f2cd403a315f,0,99,99,148,1,threeone,,,,,,,,,,,,,,,,,,,,,,,,,,,,,,,,,,,,,,,,,,,,,,,,,,,,,,,,,,,,,,,,,,,,,,,,,,,,,,,,,,,,,,,,,,,,,,,,,,,,,,,,,,,,,,,,,,,,,,,,,,,,,,,,,,,,,,,,,,,,,,,,,,,,,,,,,,,
,,,,,,610778fe744943d12ecab3cc,62c53892676c34b35019437d,2022-07-06_09h25.36.855,Colour_Asymmetry_Pilot,2022.1.3,Win32,60.10337781,62c50e9c1127f2cd403a315f,0,100,100,44,1,threeone,,,,,,,,,,,,,,,,,,,,,,,,,,,,,,,,,,,,,,,,,,,,,,,,,,,,,,,,,,,,,,,,,,,,,,,,,,,,,,,,,,,,,,,,,,,,,,,,,,,,,,,,,,,,,,,,,,,,,,,,,,,,,,,,,,,,,,,,,,,,,,,,,,,,,,,,,,,
,,,,,,610778fe744943d12ecab3cc,62c53892676c34b35019437d,2022-07-06_09h25.36.855,Colour_Asymmetry_Pilot,2022.1.3,Win32,60.10337781,62c50e9c1127f2cd403a315f,0,101,101,0,1,onetwo,,,,,,,,,,,,,,,,,,,,,,,,,,,,,,,,,,,,,,,,,,,,,,,,,,,,,,,,,,,,,,,,,,,,,,,,,,,,,,,,,,,,,,,,,,,,,,,,,,,,,,,,,,,,,,,,,,,,,,,,,,,,,,,,,,,,,,,,,,,,,,,,,,,,,,,,,,,
,,,,,,610778fe744943d12ecab3cc,62c53892676c34b35019437d,2022-07-06_09h25.36.855,Colour_Asymmetry_Pilot,2022.1.3,Win32,60.10337781,62c50e9c1127f2cd403a315f,0,102,102,25,1,onethree,,,,,,,,,,,,,,,,,,,,,,,,,,,,,,,,,,,,,,,,,,,,,,,,,,,,,,,,,,,,,,,,,,,,,,,,,,,,,,,,,,,,,,,,,,,,,,,,,,,,,,,,,,,,,,,,,,,,,,,,,,,,,,,,,,,,,,,,,,,,,,,,,,,,,,,,,,,
,,,,,,610778fe744943d12ecab3cc,62c53892676c34b35019437d,2022-07-06_09h25.36.855,Colour_Asymmetry_Pilot,2022.1.3,Win32,60.10337781,62c50e9c1127f2cd403a315f,0,103,103,159,1,fourthree,,,,,,,,,,,,,,,,,,,,,,,,,,,,,,,,,,,,,,,,,,,,,,,,,,,,,,,,,,,,,,,,,,,,,,,,,,,,,,,,,,,,,,,,,,,,,,,,,,,,,,,,,,,,,,,,,,,,,,,,,,,,,,,,,,,,,,,,,,,,,,,,,,,,,,,,,,,
,,,,,,610778fe744943d12ecab3cc,62c53892676c34b35019437d,2022-07-06_09h25.36.855,Colour_Asymmetry_Pilot,2022.1.3,Win32,60.10337781,62c50e9c1127f2cd403a315f,0,104,104,114,1,twoone,,,,,,,,,,,,,,,,,,,,,,,,,,,,,,,,,,,,,,,,,,,,,,,,,,,,,,,,,,,,,,,,,,,,,,,,,,,,,,,,,,,,,,,,,,,,,,,,,,,,,,,,,,,,,,,,,,,,,,,,,,,,,,,,,,,,,,,,,,,,,,,,,,,,,,,,,,,
,,,,,,610778fe744943d12ecab3cc,62c53892676c34b35019437d,2022-07-06_09h25.36.855,Colour_Asymmetry_Pilot,2022.1.3,Win32,60.10337781,62c50e9c1127f2cd403a315f,0,105,105,50,1,twoone,,,,,,,,,,,,,,,,,,,,,,,,,,,,,,,,,,,,,,,,,,,,,,,,,,,,,,,,,,,,,,,,,,,,,,,,,,,,,,,,,,,,,,,,,,,,,,,,,,,,,,,,,,,,,,,,,,,,,,,,,,,,,,,,,,,,,,,,,,,,,,,,,,,,,,,,,,,
,,,,,,610778fe744943d12ecab3cc,62c53892676c34b35019437d,2022-07-06_09h25.36.855,Colour_Asymmetry_Pilot,2022.1.3,Win32,60.10337781,62c50e9c1127f2cd403a315f,0,106,106,1,1,onethree,,,,,,,,,,,,,,,,,,,,,,,,,,,,,,,,,,,,,,,,,,,,,,,,,,,,,,,,,,,,,,,,,,,,,,,,,,,,,,,,,,,,,,,,,,,,,,,,,,,,,,,,,,,,,,,,,,,,,,,,,,,,,,,,,,,,,,,,,,,,,,,,,,,,,,,,,,,
,,,,,,610778fe744943d12ecab3cc,62c53892676c34b35019437d,2022-07-06_09h25.36.855,Colour_Asymmetry_Pilot,2022.1.3,Win32,60.10337781,62c50e9c1127f2cd403a315f,0,107,107,32,1,onetwo,,,,,,,,,,,,,,,,,,,,,,,,,,,,,,,,,,,,,,,,,,,,,,,,,,,,,,,,,,,,,,,,,,,,,,,,,,,,,,,,,,,,,,,,,,,,,,,,,,,,,,,,,,,,,,,,,,,,,,,,,,,,,,,,,,,,,,,,,,,,,,,,,,,,,,,,,,,
,,,,,,610778fe744943d12ecab3cc,62c53892676c34b35019437d,2022-07-06_09h25.36.855,Colour_Asymmetry_Pilot,2022.1.3,Win32,60.10337781,62c50e9c1127f2cd403a315f,0,108,108,97,1,onethree,,,,,,,,,,,,,,,,,,,,,,,,,,,,,,,,,,,,,,,,,,,,,,,,,,,,,,,,,,,,,,,,,,,,,,,,,,,,,,,,,,,,,,,,,,,,,,,,,,,,,,,,,,,,,,,,,,,,,,,,,,,,,,,,,,,,,,,,,,,,,,,,,,,,,,,,,,,
,,,,,,610778fe744943d12ecab3cc,62c53892676c34b35019437d,2022-07-06_09h25.36.855,Colour_Asymmetry_Pilot,2022.1.3,Win32,60.10337781,62c50e9c1127f2cd403a315f,0,109,109,96,1,onetwo,,,,,,,,,,,,,,,,,,,,,,,,,,,,,,,,,,,,,,,,,,,,,,,,,,,,,,,,,,,,,,,,,,,,,,,,,,,,,,,,,,,,,,,,,,,,,,,,,,,,,,,,,,,,,,,,,,,,,,,,,,,,,,,,,,,,,,,,,,,,,,,,,,,,,,,,,,,
,,,,,,610778fe744943d12ecab3cc,62c53892676c34b35019437d,2022-07-06_09h25.36.855,Colour_Asymmetry_Pilot,2022.1.3,Win32,60.10337781,62c50e9c1127f2cd403a315f,0,110,110,89,1,onethree,,,,,,,,,,,,,,,,,,,,,,,,,,,,,,,,,,,,,,,,,,,,,,,,,,,,,,,,,,,,,,,,,,,,,,,,,,,,,,,,,,,,,,,,,,,,,,,,,,,,,,,,,,,,,,,,,,,,,,,,,,,,,,,,,,,,,,,,,,,,,,,,,,,,,,,,,,,
,,,,,,610778fe744943d12ecab3cc,62c53892676c34b35019437d,2022-07-06_09h25.36.855,Colour_Asymmetry_Pilot,2022.1.3,Win32,60.10337781,62c50e9c1127f2cd403a315f,0,111,111,24,1,onetwo,,,,,,,,,,,,,,,,,,,,,,,,,,,,,,,,,,,,,,,,,,,,,,,,,,,,,,,,,,,,,,,,,,,,,,,,,,,,,,,,,,,,,,,,,,,,,,,,,,,,,,,,,,,,,,,,,,,,,,,,,,,,,,,,,,,,,,,,,,,,,,,,,,,,,,,,,,,
,,,,,,610778fe744943d12ecab3cc,62c53892676c34b35019437d,2022-07-06_09h25.36.855,Colour_Asymmetry_Pilot,2022.1.3,Win32,60.10337781,62c50e9c1127f2cd403a315f,0,112,112,93,1,threefour,,,,,,,,,,,,,,,,,,,,,,,,,,,,,,,,,,,,,,,,,,,,,,,,,,,,,,,,,,,,,,,,,,,,,,,,,,,,,,,,,,,,,,,,,,,,,,,,,,,,,,,,,,,,,,,,,,,,,,,,,,,,,,,,,,,,,,,,,,,,,,,,,,,,,,,,,,,
,,,,,,610778fe744943d12ecab3cc,62c53892676c34b35019437d,2022-07-06_09h25.36.855,Colour_Asymmetry_Pilot,2022.1.3,Win32,60.10337781,62c50e9c1127f2cd403a315f,0,113,113,130,1,twoone,,,,,,,,,,,,,,,,,,,,,,,,,,,,,,,,,,,,,,,,,,,,,,,,,,,,,,,,,,,,,,,,,,,,,,,,,,,,,,,,,,,,,,,,,,,,,,,,,,,,,,,,,,,,,,,,,,,,,,,,,,,,,,,,,,,,,,,,,,,,,,,,,,,,,,,,,,,
,,,,,,610778fe744943d12ecab3cc,62c53892676c34b35019437d,2022-07-06_09h25.36.855,Colour_Asymmetry_Pilot,2022.1.3,Win32,60.10337781,62c50e9c1127f2cd403a315f,0,114,114,77,1,threefour,,,,,,,,,,,,,,,,,,,,,,,,,,,,,,,,,,,,,,,,,,,,,,,,,,,,,,,,,,,,,,,,,,,,,,,,,,,,,,,,,,,,,,,,,,,,,,,,,,,,,,,,,,,,,,,,,,,,,,,,,,,,,,,,,,,,,,,,,,,,,,,,,,,,,,,,,,,
,,,,,,610778fe744943d12ecab3cc,62c53892676c34b35019437d,2022-07-06_09h25.36.855,Colour_Asymmetry_Pilot,2022.1.3,Win32,60.10337781,62c50e9c1127f2cd403a315f,0,115,115,11,1,twofour,,,,,,,,,,,,,,,,,,,,,,,,,,,,,,,,,,,,,,,,,,,,,,,,,,,,,,,,,,,,,,,,,,,,,,,,,,,,,,,,,,,,,,,,,,,,,,,,,,,,,,,,,,,,,,,,,,,,,,,,,,,,,,,,,,,,,,,,,,,,,,,,,,,,,,,,,,,
,,,,,,610778fe744943d12ecab3cc,62c53892676c34b35019437d,2022-07-06_09h25.36.855,Colour_Asymmetry_Pilot,2022.1.3,Win32,60.10337781,62c50e9c1127f2cd403a315f,0,116,116,140,1,threeone,,,,,,,,,,,,,,,,,,,,,,,,,,,,,,,,,,,,,,,,,,,,,,,,,,,,,,,,,,,,,,,,,,,,,,,,,,,,,,,,,,,,,,,,,,,,,,,,,,,,,,,,,,,,,,,,,,,,,,,,,,,,,,,,,,,,,,,,,,,,,,,,,,,,,,,,,,,
,,,,,,610778fe744943d12ecab3cc,62c53892676c34b35019437d,2022-07-06_09h25.36.855,Colour_Asymmetry_Pilot,2022.1.3,Win32,60.10337781,62c50e9c1127f2cd403a315f,0,117,117,99,1,twofour,,,,,,,,,,,,,,,,,,,,,,,,,,,,,,,,,,,,,,,,,,,,,,,,,,,,,,,,,,,,,,,,,,,,,,,,,,,,,,,,,,,,,,,,,,,,,,,,,,,,,,,,,,,,,,,,,,,,,,,,,,,,,,,,,,,,,,,,,,,,,,,,,,,,,,,,,,,
,,,,,,610778fe744943d12ecab3cc,62c53892676c34b35019437d,2022-07-06_09h25.36.855,Colour_Asymmetry_Pilot,2022.1.3,Win32,60.10337781,62c50e9c1127f2cd403a315f,0,118,118,160,1,onetwo,,,,,,,,,,,,,,,,,,,,,,,,,,,,,,,,,,,,,,,,,,,,,,,,,,,,,,,,,,,,,,,,,,,,,,,,,,,,,,,,,,,,,,,,,,,,,,,,,,,,,,,,,,,,,,,,,,,,,,,,,,,,,,,,,,,,,,,,,,,,,,,,,,,,,,,,,,,
,,,,,,610778fe744943d12ecab3cc,62c53892676c34b35019437d,2022-07-06_09h25.36.855,Colour_Asymmetry_Pilot,2022.1.3,Win32,60.10337781,62c50e9c1127f2cd403a315f,0,119,119,84,1,threeone,,,,,,,,,,,,,,,,,,,,,,,,,,,,,,,,,,,,,,,,,,,,,,,,,,,,,,,,,,,,,,,,,,,,,,,,,,,,,,,,,,,,,,,,,,,,,,,,,,,,,,,,,,,,,,,,,,,,,,,,,,,,,,,,,,,,,,,,,,,,,,,,,,,,,,,,,,,
,,,,,,610778fe744943d12ecab3cc,62c53892676c34b35019437d,2022-07-06_09h25.36.855,Colour_Asymmetry_Pilot,2022.1.3,Win32,60.10337781,62c50e9c1127f2cd403a315f,0,120,120,79,1,fourthree,,,,,,,,,,,,,,,,,,,,,,,,,,,,,,,,,,,,,,,,,,,,,,,,,,,,,,,,,,,,,,,,,,,,,,,,,,,,,,,,,,,,,,,,,,,,,,,,,,,,,,,,,,,,,,,,,,,,,,,,,,,,,,,,,,,,,,,,,,,,,,,,,,,,,,,,,,,
,,,,,,610778fe744943d12ecab3cc,62c53892676c34b35019437d,2022-07-06_09h25.36.855,Colour_Asymmetry_Pilot,2022.1.3,Win32,60.10337781,62c50e9c1127f2cd403a315f,0,121,121,3,1,twofour,,,,,,,,,,,,,,,,,,,,,,,,,,,,,,,,,,,,,,,,,,,,,,,,,,,,,,,,,,,,,,,,,,,,,,,,,,,,,,,,,,,,,,,,,,,,,,,,,,,,,,,,,,,,,,,,,,,,,,,,,,,,,,,,,,,,,,,,,,,,,,,,,,,,,,,,,,,
,,,,,,610778fe744943d12ecab3cc,62c53892676c34b35019437d,2022-07-06_09h25.36.855,Colour_Asymmetry_Pilot,2022.1.3,Win32,60.10337781,62c50e9c1127f2cd403a315f,0,122,122,121,1,onethree,,,,,,,,,,,,,,,,,,,,,,,,,,,,,,,,,,,,,,,,,,,,,,,,,,,,,,,,,,,,,,,,,,,,,,,,,,,,,,,,,,,,,,,,,,,,,,,,,,,,,,,,,,,,,,,,,,,,,,,,,,,,,,,,,,,,,,,,,,,,,,,,,,,,,,,,,,,
,,,,,,610778fe744943d12ecab3cc,62c53892676c34b35019437d,2022-07-06_09h25.36.855,Colour_Asymmetry_Pilot,2022.1.3,Win32,60.10337781,62c50e9c1127f2cd403a315f,0,123,123,87,1,fourthree,,,,,,,,,,,,,,,,,,,,,,,,,,,,,,,,,,,,,,,,,,,,,,,,,,,,,,,,,,,,,,,,,,,,,,,,,,,,,,,,,,,,,,,,,,,,,,,,,,,,,,,,,,,,,,,,,,,,,,,,,,,,,,,,,,,,,,,,,,,,,,,,,,,,,,,,,,,
,,,,,,610778fe744943d12ecab3cc,62c53892676c34b35019437d,2022-07-06_09h25.36.855,Colour_Asymmetry_Pilot,2022.1.3,Win32,60.10337781,62c50e9c1127f2cd403a315f,0,124,124,146,1,twoone,,,,,,,,,,,,,,,,,,,,,,,,,,,,,,,,,,,,,,,,,,,,,,,,,,,,,,,,,,,,,,,,,,,,,,,,,,,,,,,,,,,,,,,,,,,,,,,,,,,,,,,,,,,,,,,,,,,,,,,,,,,,,,,,,,,,,,,,,,,,,,,,,,,,,,,,,,,
,,,,,,610778fe744943d12ecab3cc,62c53892676c34b35019437d,2022-07-06_09h25.36.855,Colour_Asymmetry_Pilot,2022.1.3,Win32,60.10337781,62c50e9c1127f2cd403a315f,0,125,125,75,1,twofour,,,,,,,,,,,,,,,,,,,,,,,,,,,,,,,,,,,,,,,,,,,,,,,,,,,,,,,,,,,,,,,,,,,,,,,,,,,,,,,,,,,,,,,,,,,,,,,,,,,,,,,,,,,,,,,,,,,,,,,,,,,,,,,,,,,,,,,,,,,,,,,,,,,,,,,,,,,
,,,,,,610778fe744943d12ecab3cc,62c53892676c34b35019437d,2022-07-06_09h25.36.855,Colour_Asymmetry_Pilot,2022.1.3,Win32,60.10337781,62c50e9c1127f2cd403a315f,0,126,126,88,1,onetwo,,,,,,,,,,,,,,,,,,,,,,,,,,,,,,,,,,,,,,,,,,,,,,,,,,,,,,,,,,,,,,,,,,,,,,,,,,,,,,,,,,,,,,,,,,,,,,,,,,,,,,,,,,,,,,,,,,,,,,,,,,,,,,,,,,,,,,,,,,,,,,,,,,,,,,,,,,,
,,,,,,610778fe744943d12ecab3cc,62c53892676c34b35019437d,2022-07-06_09h25.36.855,Colour_Asymmetry_Pilot,2022.1.3,Win32,60.10337781,62c50e9c1127f2cd403a315f,0,127,127,40,1,onetwo,,,,,,,,,,,,,,,,,,,,,,,,,,,,,,,,,,,,,,,,,,,,,,,,,,,,,,,,,,,,,,,,,,,,,,,,,,,,,,,,,,,,,,,,,,,,,,,,,,,,,,,,,,,,,,,,,,,,,,,,,,,,,,,,,,,,,,,,,,,,,,,,,,,,,,,,,,,
,,,,,,610778fe744943d12ecab3cc,62c53892676c34b35019437d,2022-07-06_09h25.36.855,Colour_Asymmetry_Pilot,2022.1.3,Win32,60.10337781,62c50e9c1127f2cd403a315f,0,128,128,60,1,threeone,,,,,,,,,,,,,,,,,,,,,,,,,,,,,,,,,,,,,,,,,,,,,,,,,,,,,,,,,,,,,,,,,,,,,,,,,,,,,,,,,,,,,,,,,,,,,,,,,,,,,,,,,,,,,,,,,,,,,,,,,,,,,,,,,,,,,,,,,,,,,,,,,,,,,,,,,,,
,,,,,,610778fe744943d12ecab3cc,62c53892676c34b35019437d,2022-07-06_09h25.36.855,Colour_Asymmetry_Pilot,2022.1.3,Win32,60.10337781,62c50e9c1127f2cd403a315f,0,129,129,48,1,onetwo,,,,,,,,,,,,,,,,,,,,,,,,,,,,,,,,,,,,,,,,,,,,,,,,,,,,,,,,,,,,,,,,,,,,,,,,,,,,,,,,,,,,,,,,,,,,,,,,,,,,,,,,,,,,,,,,,,,,,,,,,,,,,,,,,,,,,,,,,,,,,,,,,,,,,,,,,,,
,,,,,,610778fe744943d12ecab3cc,62c53892676c34b35019437d,2022-07-06_09h25.36.855,Colour_Asymmetry_Pilot,2022.1.3,Win32,60.10337781,62c50e9c1127f2cd403a315f,0,130,130,94,1,fourtwo,,,,,,,,,,,,,,,,,,,,,,,,,,,,,,,,,,,,,,,,,,,,,,,,,,,,,,,,,,,,,,,,,,,,,,,,,,,,,,,,,,,,,,,,,,,,,,,,,,,,,,,,,,,,,,,,,,,,,,,,,,,,,,,,,,,,,,,,,,,,,,,,,,,,,,,,,,,
,,,,,,610778fe744943d12ecab3cc,62c53892676c34b35019437d,2022-07-06_09h25.36.855,Colour_Asymmetry_Pilot,2022.1.3,Win32,60.10337781,62c50e9c1127f2cd403a315f,0,131,131,2,1,twoone,,,,,,,,,,,,,,,,,,,,,,,,,,,,,,,,,,,,,,,,,,,,,,,,,,,,,,,,,,,,,,,,,,,,,,,,,,,,,,,,,,,,,,,,,,,,,,,,,,,,,,,,,,,,,,,,,,,,,,,,,,,,,,,,,,,,,,,,,,,,,,,,,,,,,,,,,,,
,,,,,,610778fe744943d12ecab3cc,62c53892676c34b35019437d,2022-07-06_09h25.36.855,Colour_Asymmetry_Pilot,2022.1.3,Win32,60.10337781,62c50e9c1127f2cd403a315f,0,132,132,135,1,fourthree,,,,,,,,,,,,,,,,,,,,,,,,,,,,,,,,,,,,,,,,,,,,,,,,,,,,,,,,,,,,,,,,,,,,,,,,,,,,,,,,,,,,,,,,,,,,,,,,,,,,,,,,,,,,,,,,,,,,,,,,,,,,,,,,,,,,,,,,,,,,,,,,,,,,,,,,,,,
,,,,,,610778fe744943d12ecab3cc,62c53892676c34b35019437d,2022-07-06_09h25.36.855,Colour_Asymmetry_Pilot,2022.1.3,Win32,60.10337781,62c50e9c1127f2cd403a315f,0,133,133,69,1,threefour,,,,,,,,,,,,,,,,,,,,,,,,,,,,,,,,,,,,,,,,,,,,,,,,,,,,,,,,,,,,,,,,,,,,,,,,,,,,,,,,,,,,,,,,,,,,,,,,,,,,,,,,,,,,,,,,,,,,,,,,,,,,,,,,,,,,,,,,,,,,,,,,,,,,,,,,,,,
,,,,,,610778fe744943d12ecab3cc,62c53892676c34b35019437d,2022-07-06_09h25.36.855,Colour_Asymmetry_Pilot,2022.1.3,Win32,60.10337781,62c50e9c1127f2cd403a315f,0,134,134,51,1,twofour,,,,,,,,,,,,,,,,,,,,,,,,,,,,,,,,,,,,,,,,,,,,,,,,,,,,,,,,,,,,,,,,,,,,,,,,,,,,,,,,,,,,,,,,,,,,,,,,,,,,,,,,,,,,,,,,,,,,,,,,,,,,,,,,,,,,,,,,,,,,,,,,,,,,,,,,,,,
,,,,,,610778fe744943d12ecab3cc,62c53892676c34b35019437d,2022-07-06_09h25.36.855,Colour_Asymmetry_Pilot,2022.1.3,Win32,60.10337781,62c50e9c1127f2cd403a315f,0,135,135,58,1,twoone,,,,,,,,,,,,,,,,,,,,,,,,,,,,,,,,,,,,,,,,,,,,,,,,,,,,,,,,,,,,,,,,,,,,,,,,,,,,,,,,,,,,,,,,,,,,,,,,,,,,,,,,,,,,,,,,,,,,,,,,,,,,,,,,,,,,,,,,,,,,,,,,,,,,,,,,,,,
,,,,,,610778fe744943d12ecab3cc,62c53892676c34b35019437d,2022-07-06_09h25.36.855,Colour_Asymmetry_Pilot,2022.1.3,Win32,60.10337781,62c50e9c1127f2cd403a315f,0,136,136,47,1,fourthree,,,,,,,,,,,,,,,,,,,,,,,,,,,,,,,,,,,,,,,,,,,,,,,,,,,,,,,,,,,,,,,,,,,,,,,,,,,,,,,,,,,,,,,,,,,,,,,,,,,,,,,,,,,,,,,,,,,,,,,,,,,,,,,,,,,,,,,,,,,,,,,,,,,,,,,,,,,
,,,,,,610778fe744943d12ecab3cc,62c53892676c34b35019437d,2022-07-06_09h25.36.855,Colour_Asymmetry_Pilot,2022.1.3,Win32,60.10337781,62c50e9c1127f2cd403a315f,0,137,137,113,1,onethree,,,,,,,,,,,,,,,,,,,,,,,,,,,,,,,,,,,,,,,,,,,,,,,,,,,,,,,,,,,,,,,,,,,,,,,,,,,,,,,,,,,,,,,,,,,,,,,,,,,,,,,,,,,,,,,,,,,,,,,,,,,,,,,,,,,,,,,,,,,,,,,,,,,,,,,,,,,
,,,,,,610778fe744943d12ecab3cc,62c53892676c34b35019437d,2022-07-06_09h25.36.855,Colour_Asymmetry_Pilot,2022.1.3,Win32,60.10337781,62c50e9c1127f2cd403a315f,0,138,138,46,1,fourtwo,,,,,,,,,,,,,,,,,,,,,,,,,,,,,,,,,,,,,,,,,,,,,,,,,,,,,,,,,,,,,,,,,,,,,,,,,,,,,,,,,,,,,,,,,,,,,,,,,,,,,,,,,,,,,,,,,,,,,,,,,,,,,,,,,,,,,,,,,,,,,,,,,,,,,,,,,,,
,,,,,,610778fe744943d12ecab3cc,62c53892676c34b35019437d,2022-07-06_09h25.36.855,Colour_Asymmetry_Pilot,2022.1.3,Win32,60.10337781,62c50e9c1127f2cd403a315f,0,139,139,110,1,fourtwo,,,,,,,,,,,,,,,,,,,,,,,,,,,,,,,,,,,,,,,,,,,,,,,,,,,,,,,,,,,,,,,,,,,,,,,,,,,,,,,,,,,,,,,,,,,,,,,,,,,,,,,,,,,,,,,,,,,,,,,,,,,,,,,,,,,,,,,,,,,,,,,,,,,,,,,,,,,
,,,,,,610778fe744943d12ecab3cc,62c53892676c34b35019437d,2022-07-06_09h25.36.855,Colour_Asymmetry_Pilot,2022.1.3,Win32,60.10337781,62c50e9c1127f2cd403a315f,0,140,140,10,1,twoone,,,,,,,,,,,,,,,,,,,,,,,,,,,,,,,,,,,,,,,,,,,,,,,,,,,,,,,,,,,,,,,,,,,,,,,,,,,,,,,,,,,,,,,,,,,,,,,,,,,,,,,,,,,,,,,,,,,,,,,,,,,,,,,,,,,,,,,,,,,,,,,,,,,,,,,,,,,
,,,,,,610778fe744943d12ecab3cc,62c53892676c34b35019437d,2022-07-06_09h25.36.855,Colour_Asymmetry_Pilot,2022.1.3,Win32,60.10337781,62c50e9c1127f2cd403a315f,0,141,141,156,1,threeone,,,,,,,,,,,,,,,,,,,,,,,,,,,,,,,,,,,,,,,,,,,,,,,,,,,,,,,,,,,,,,,,,,,,,,,,,,,,,,,,,,,,,,,,,,,,,,,,,,,,,,,,,,,,,,,,,,,,,,,,,,,,,,,,,,,,,,,,,,,,,,,,,,,,,,,,,,,
,,,,,,610778fe744943d12ecab3cc,62c53892676c34b35019437d,2022-07-06_09h25.36.855,Colour_Asymmetry_Pilot,2022.1.3,Win32,60.10337781,62c50e9c1127f2cd403a315f,0,142,142,112,1,onetwo,,,,,,,,,,,,,,,,,,,,,,,,,,,,,,,,,,,,,,,,,,,,,,,,,,,,,,,,,,,,,,,,,,,,,,,,,,,,,,,,,,,,,,,,,,,,,,,,,,,,,,,,,,,,,,,,,,,,,,,,,,,,,,,,,,,,,,,,,,,,,,,,,,,,,,,,,,,
,,,,,,610778fe744943d12ecab3cc,62c53892676c34b35019437d,2022-07-06_09h25.36.855,Colour_Asymmetry_Pilot,2022.1.3,Win32,60.10337781,62c50e9c1127f2cd403a315f,0,143,143,4,1,threeone,,,,,,,,,,,,,,,,,,,,,,,,,,,,,,,,,,,,,,,,,,,,,,,,,,,,,,,,,,,,,,,,,,,,,,,,,,,,,,,,,,,,,,,,,,,,,,,,,,,,,,,,,,,,,,,,,,,,,,,,,,,,,,,,,,,,,,,,,,,,,,,,,,,,,,,,,,,
,,,,,,610778fe744943d12ecab3cc,62c53892676c34b35019437d,2022-07-06_09h25.36.855,Colour_Asymmetry_Pilot,2022.1.3,Win32,60.10337781,62c50e9c1127f2cd403a315f,0,144,144,142,1,fourtwo,,,,,,,,,,,,,,,,,,,,,,,,,,,,,,,,,,,,,,,,,,,,,,,,,,,,,,,,,,,,,,,,,,,,,,,,,,,,,,,,,,,,,,,,,,,,,,,,,,,,,,,,,,,,,,,,,,,,,,,,,,,,,,,,,,,,,,,,,,,,,,,,,,,,,,,,,,,
,,,,,,610778fe744943d12ecab3cc,62c53892676c34b35019437d,2022-07-06_09h25.36.855,Colour_Asymmetry_Pilot,2022.1.3,Win32,60.10337781,62c50e9c1127f2cd403a315f,0,145,145,139,1,twofour,,,,,,,,,,,,,,,,,,,,,,,,,,,,,,,,,,,,,,,,,,,,,,,,,,,,,,,,,,,,,,,,,,,,,,,,,,,,,,,,,,,,,,,,,,,,,,,,,,,,,,,,,,,,,,,,,,,,,,,,,,,,,,,,,,,,,,,,,,,,,,,,,,,,,,,,,,,
,,,,,,610778fe744943d12ecab3cc,62c53892676c34b35019437d,2022-07-06_09h25.36.855,Colour_Asymmetry_Pilot,2022.1.3,Win32,60.10337781,62c50e9c1127f2cd403a315f,0,146,146,98,1,twoone,,,,,,,,,,,,,,,,,,,,,,,,,,,,,,,,,,,,,,,,,,,,,,,,,,,,,,,,,,,,,,,,,,,,,,,,,,,,,,,,,,,,,,,,,,,,,,,,,,,,,,,,,,,,,,,,,,,,,,,,,,,,,,,,,,,,,,,,,,,,,,,,,,,,,,,,,,,
,,,,,,610778fe744943d12ecab3cc,62c53892676c34b35019437d,2022-07-06_09h25.36.855,Colour_Asymmetry_Pilot,2022.1.3,Win32,60.10337781,62c50e9c1127f2cd403a315f,0,147,147,33,1,onethree,,,,,,,,,,,,,,,,,,,,,,,,,,,,,,,,,,,,,,,,,,,,,,,,,,,,,,,,,,,,,,,,,,,,,,,,,,,,,,,,,,,,,,,,,,,,,,,,,,,,,,,,,,,,,,,,,,,,,,,,,,,,,,,,,,,,,,,,,,,,,,,,,,,,,,,,,,,
,,,,,,610778fe744943d12ecab3cc,62c53892676c34b35019437d,2022-07-06_09h25.36.855,Colour_Asymmetry_Pilot,2022.1.3,Win32,60.10337781,62c50e9c1127f2cd403a315f,0,148,148,73,1,onethree,,,,,,,,,,,,,,,,,,,,,,,,,,,,,,,,,,,,,,,,,,,,,,,,,,,,,,,,,,,,,,,,,,,,,,,,,,,,,,,,,,,,,,,,,,,,,,,,,,,,,,,,,,,,,,,,,,,,,,,,,,,,,,,,,,,,,,,,,,,,,,,,,,,,,,,,,,,
,,,,,,610778fe744943d12ecab3cc,62c53892676c34b35019437d,2022-07-06_09h25.36.855,Colour_Asymmetry_Pilot,2022.1.3,Win32,60.10337781,62c50e9c1127f2cd403a315f,0,149,149,122,1,twoone,,,,,,,,,,,,,,,,,,,,,,,,,,,,,,,,,,,,,,,,,,,,,,,,,,,,,,,,,,,,,,,,,,,,,,,,,,,,,,,,,,,,,,,,,,,,,,,,,,,,,,,,,,,,,,,,,,,,,,,,,,,,,,,,,,,,,,,,,,,,,,,,,,,,,,,,,,,
,,,,,,610778fe744943d12ecab3cc,62c53892676c34b35019437d,2022-07-06_09h25.36.855,Colour_Asymmetry_Pilot,2022.1.3,Win32,60.10337781,62c50e9c1127f2cd403a315f,0,150,150,134,1,fourtwo,,,,,,,,,,,,,,,,,,,,,,,,,,,,,,,,,,,,,,,,,,,,,,,,,,,,,,,,,,,,,,,,,,,,,,,,,,,,,,,,,,,,,,,,,,,,,,,,,,,,,,,,,,,,,,,,,,,,,,,,,,,,,,,,,,,,,,,,,,,,,,,,,,,,,,,,,,,
,,,,,,610778fe744943d12ecab3cc,62c53892676c34b35019437d,2022-07-06_09h25.36.855,Colour_Asymmetry_Pilot,2022.1.3,Win32,60.10337781,62c50e9c1127f2cd403a315f,0,151,151,100,1,threeone,,,,,,,,,,,,,,,,,,,,,,,,,,,,,,,,,,,,,,,,,,,,,,,,,,,,,,,,,,,,,,,,,,,,,,,,,,,,,,,,,,,,,,,,,,,,,,,,,,,,,,,,,,,,,,,,,,,,,,,,,,,,,,,,,,,,,,,,,,,,,,,,,,,,,,,,,,,
,,,,,,610778fe744943d12ecab3cc,62c53892676c34b35019437d,2022-07-06_09h25.36.855,Colour_Asymmetry_Pilot,2022.1.3,Win32,60.10337781,62c50e9c1127f2cd403a315f,0,152,152,120,1,onetwo,,,,,,,,,,,,,,,,,,,,,,,,,,,,,,,,,,,,,,,,,,,,,,,,,,,,,,,,,,,,,,,,,,,,,,,,,,,,,,,,,,,,,,,,,,,,,,,,,,,,,,,,,,,,,,,,,,,,,,,,,,,,,,,,,,,,,,,,,,,,,,,,,,,,,,,,,,,
,,,,,,610778fe744943d12ecab3cc,62c53892676c34b35019437d,2022-07-06_09h25.36.855,Colour_Asymmetry_Pilot,2022.1.3,Win32,60.10337781,62c50e9c1127f2cd403a315f,0,153,153,104,1,onetwo,,,,,,,,,,,,,,,,,,,,,,,,,,,,,,,,,,,,,,,,,,,,,,,,,,,,,,,,,,,,,,,,,,,,,,,,,,,,,,,,,,,,,,,,,,,,,,,,,,,,,,,,,,,,,,,,,,,,,,,,,,,,,,,,,,,,,,,,,,,,,,,,,,,,,,,,,,,
,,,,,,610778fe744943d12ecab3cc,62c53892676c34b35019437d,2022-07-06_09h25.36.855,Colour_Asymmetry_Pilot,2022.1.3,Win32,60.10337781,62c50e9c1127f2cd403a315f,0,154,154,28,1,threeone,,,,,,,,,,,,,,,,,,,,,,,,,,,,,,,,,,,,,,,,,,,,,,,,,,,,,,,,,,,,,,,,,,,,,,,,,,,,,,,,,,,,,,,,,,,,,,,,,,,,,,,,,,,,,,,,,,,,,,,,,,,,,,,,,,,,,,,,,,,,,,,,,,,,,,,,,,,
,,,,,,610778fe744943d12ecab3cc,62c53892676c34b35019437d,2022-07-06_09h25.36.855,Colour_Asymmetry_Pilot,2022.1.3,Win32,60.10337781,62c50e9c1127f2cd403a315f,0,155,155,66,1,twoone,,,,,,,,,,,,,,,,,,,,,,,,,,,,,,,,,,,,,,,,,,,,,,,,,,,,,,,,,,,,,,,,,,,,,,,,,,,,,,,,,,,,,,,,,,,,,,,,,,,,,,,,,,,,,,,,,,,,,,,,,,,,,,,,,,,,,,,,,,,,,,,,,,,,,,,,,,,
,,,,,,610778fe744943d12ecab3cc,62c53892676c34b35019437d,2022-07-06_09h25.36.855,Colour_Asymmetry_Pilot,2022.1.3,Win32,60.10337781,62c50e9c1127f2cd403a315f,0,156,156,36,1,threeone,,,,,,,,,,,,,,,,,,,,,,,,,,,,,,,,,,,,,,,,,,,,,,,,,,,,,,,,,,,,,,,,,,,,,,,,,,,,,,,,,,,,,,,,,,,,,,,,,,,,,,,,,,,,,,,,,,,,,,,,,,,,,,,,,,,,,,,,,,,,,,,,,,,,,,,,,,,
,,,,,,610778fe744943d12ecab3cc,62c53892676c34b35019437d,2022-07-06_09h25.36.855,Colour_Asymmetry_Pilot,2022.1.3,Win32,60.10337781,62c50e9c1127f2cd403a315f,0,157,157,149,1,threefour,,,,,,,,,,,,,,,,,,,,,,,,,,,,,,,,,,,,,,,,,,,,,,,,,,,,,,,,,,,,,,,,,,,,,,,,,,,,,,,,,,,,,,,,,,,,,,,,,,,,,,,,,,,,,,,,,,,,,,,,,,,,,,,,,,,,,,,,,,,,,,,,,,,,,,,,,,,
,,,,,,610778fe744943d12ecab3cc,62c53892676c34b35019437d,2022-07-06_09h25.36.855,Colour_Asymmetry_Pilot,2022.1.3,Win32,60.10337781,62c50e9c1127f2cd403a315f,0,158,158,7,1,fourthree,,,,,,,,,,,,,,,,,,,,,,,,,,,,,,,,,,,,,,,,,,,,,,,,,,,,,,,,,,,,,,,,,,,,,,,,,,,,,,,,,,,,,,,,,,,,,,,,,,,,,,,,,,,,,,,,,,,,,,,,,,,,,,,,,,,,,,,,,,,,,,,,,,,,,,,,,,,
,,,,,,610778fe744943d12ecab3cc,62c53892676c34b35019437d,2022-07-06_09h25.36.855,Colour_Asymmetry_Pilot,2022.1.3,Win32,60.10337781,62c50e9c1127f2cd403a315f,0,159,159,68,1,threeone,,,,,,,,,,,,,,,,,,,,,,,,,,,,,,,,,,,,,,,,,,,,,,,,,,,,,,,,,,,,,,,,,,,,,,,,,,,,,,,,,,,,,,,,,,,,,,,,,,,,,,,,,,,,,,,,,,,,,,,,,,,,,,,,,,,,,,,,,,,,,,,,,,,,,,,,,,,
,,,,,,610778fe744943d12ecab3cc,62c53892676c34b35019437d,2022-07-06_09h25.36.855,Colour_Asymmetry_Pilot,2022.1.3,Win32,60.10337781,62c50e9c1127f2cd403a315f,0,160,160,16,1,onetwo,,,,,,,,,,,,,,,,,,,,,,,,,,,,,,,,,,,,,,,,,,,,,,,,,,,,,,,,,,,,,,,,,,,,,,,,,,,,,,,,,,,,,,,,,,,,,,,,,,,,,,,,,,,,,,,,,,,,,,,,,,,,,,,,,,,,,,,,,,,,,,,,,,,,,,,,,,,
,,,,,,610778fe744943d12ecab3cc,62c53892676c34b35019437d,2022-07-06_09h25.36.855,Colour_Asymmetry_Pilot,2022.1.3,Win32,60.10337781,62c50e9c1127f2cd403a315f,0,161,161,26,1,twoone,,,,,,,,,,,,,,,,,,,,,,,,,,,,,,,,,,,,,,,,,,,,,,,,,,,,,,,,,,,,,,,,,,,,,,,,,,,,,,,,,,,,,,,,,,,,,,,,,,,,,,,,,,,,,,,,,,,,,,,,,,,,,,,,,,,,,,,,,,,,,,,,,,,,,,,,,,,
,,,,,,610778fe744943d12ecab3cc,62c53892676c34b35019437d,2022-07-06_09h25.36.855,Colour_Asymmetry_Pilot,2022.1.3,Win32,60.10337781,62c50e9c1127f2cd403a315f,,,,,,,space,24.7178,space,50.4392,space,36.2387,space,36.425,space,9.4408,space,10.4369,"[-0.9138,-0.5296000000000001,-0.5529999999999999]",onetwo,"[0.23920000000000008,0.2704,0.16060000000000008]",-3,40.6798,-73,41,1,0,0,response7disk_5,3,3,1,0,0,rectangle_8,69,38,1,0,0,response1disk_7,6,3,6,-5,1,0,0,rectangle_4,0,0,0,0,1,,,,,,,,,,,,,,,,,,,,,,,,,,,,,,,,,,,,,,,,,,,,,,,,,,,,,,,,,,,,,,,,,,,,,,,,,,,,,,,,,,,,,,,,,,,,,,,,,,,,,,,,,,,
,,,,,,610778fe744943d12ecab3cc,62c53892676c34b35019437d,2022-07-06_09h25.36.855,Colour_Asymmetry_Pilot,2022.1.3,Win32,60.10337781,62c50e9c1127f2cd403a315f,,,,,,,,,,,,,,,,,,,"[0.3881999999999999,-0.23939999999999995,-0.05040000000000011]",threefour,"[0.6625999999999999,0.4980000000000002,-0.357]",-2,17.0652,-86,-48,1,0,0,response5disk_5,17,3,1,0,0,rectangle_8,17,3,1,0,0,,,3,17,3,1,0,0,,1,0,1,0,1,,,,,,,,,,,,,,,,,,,,,,,,,,,,,,,,,,,,,,,,,,,,,,,,,,,,,,,,,,,,,,,,,,,,,,,,,,,,,,,,,,,,,,,,,,,,,,,,,,,,,,,,,,,
,,,,,,610778fe744943d12ecab3cc,62c53892676c34b35019437d,2022-07-06_09h25.36.855,Colour_Asymmetry_Pilot,2022.1.3,Win32,60.10337781,62c50e9c1127f2cd403a315f,,,,,,,,,,,,,,,,,,,"[-0.24719999999999998,-0.0354000000000001,0.3175999999999999]",fourtwo,"[-0.48240000000000005,0.3175999999999999,0.2156]",3,14.5805,108,91,1,0,0,response1disk_5,16,12,1,0,0,rectangle_8,16,12,1,0,0,,,3,16,12,1,0,0,,2,0,2,0,1,,,,,,,,,,,,,,,,,,,,,,,,,,,,,,,,,,,,,,,,,,,,,,,,,,,,,,,,,,,,,,,,,,,,,,,,,,,,,,,,,,,,,,,,,,,,,,,,,,,,,,,,,,,
,,,,,,610778fe744943d12ecab3cc,62c53892676c34b35019437d,2022-07-06_09h25.36.855,Colour_Asymmetry_Pilot,2022.1.3,Win32,60.10337781,62c50e9c1127f2cd403a315f,,,,,,,,,,,,,,,,,,,"[0.11359999999999992,0.6312,0.5213999999999999]",twofour,"[-0.4982,-0.2942,-0.0354000000000001]",-4,19.5454,-74,87,1,0,0,response7disk_5,-1,6,1,0,0,rectangle_8,72,50,1,0,0,response1disk_7,6,3,15,-2,1,0,0,rectangle_4,3,0,3,0,1,,,,,,,,,,,,,,,,,,,,,,,,,,,,,,,,,,,,,,,,,,,,,,,,,,,,,,,,,,,,,,,,,,,,,,,,,,,,,,,,,,,,,,,,,,,,,,,,,,,,,,,,,,,
,,,,,,610778fe744943d12ecab3cc,62c53892676c34b35019437d,2022-07-06_09h25.36.855,Colour_Asymmetry_Pilot,2022.1.3,Win32,60.10337781,62c50e9c1127f2cd403a315f,,,,,,,,,,,,,,,,,,,"[0.37240000000000006,0.4980000000000002,-0.2864]",twoone,"[-0.45899999999999996,-0.3256,-0.9374]",-4,5.9953,-50,76,1,0,0,response7disk_5,25,-6,1,0,0,rectangle_8,25,-6,1,0,0,,,3,25,-6,1,0,0,,4,0,4,0,1,,,,,,,,,,,,,,,,,,,,,,,,,,,,,,,,,,,,,,,,,,,,,,,,,,,,,,,,,,,,,,,,,,,,,,,,,,,,,,,,,,,,,,,,,,,,,,,,,,,,,,,,,,,
,,,,,,610778fe744943d12ecab3cc,62c53892676c34b35019437d,2022-07-06_09h25.36.855,Colour_Asymmetry_Pilot,2022.1.3,Win32,60.10337781,62c50e9c1127f2cd403a315f,,,,,,,,,,,,,,,,,,,"[0.6547999999999998,-0.043199999999999905,-0.011800000000000033]",fourthree,"[-0.26280000000000003,-0.4746,-0.2158]",-4,4.3481,-55,84,1,0,0,response7disk_5,0,4,1,0,0,rectangle_8,0,4,1,0,0,,,3,0,4,1,0,0,,5,0,5,0,1,,,,,,,,,,,,,,,,,,,,,,,,,,,,,,,,,,,,,,,,,,,,,,,,,,,,,,,,,,,,,,,,,,,,,,,,,,,,,,,,,,,,,,,,,,,,,,,,,,,,,,,,,,,
,,,,,,610778fe744943d12ecab3cc,62c53892676c34b35019437d,2022-07-06_09h25.36.855,Colour_Asymmetry_Pilot,2022.1.3,Win32,60.10337781,62c50e9c1127f2cd403a315f,,,,,,,,,,,,,,,,,,,"[-0.6235999999999999,-0.6786,-0.08239999999999992]",onetwo,"[-0.10599999999999998,-0.10599999999999998,0.5841999999999998]",-4,3.0239,-52,78,1,0,0,response7disk_5,8,9,1,0,0,rectangle_8,8,9,1,0,0,,,3,8,9,1,0,0,,6,0,6,0,1,,,,,,,,,,,,,,,,,,,,,,,,,,,,,,,,,,,,,,,,,,,,,,,,,,,,,,,,,,,,,,,,,,,,,,,,,,,,,,,,,,,,,,,,,,,,,,,,,,,,,,,,,,,
,,,,,,610778fe744943d12ecab3cc,62c53892676c34b35019437d,2022-07-06_09h25.36.855,Colour_Asymmetry_Pilot,2022.1.3,Win32,60.10337781,62c50e9c1127f2cd403a315f,,,,,,,,,,,,,,,,,,,,fourtwo,,-4,1.9175,,,,,,,,,,,,,,,,,,,,,,,,,,,,,,,,space,9.8939,"[-0.17659999999999998,-0.2864,-0.8354]","[-0.9296,-0.12959999999999994,-0.043199999999999905]",-28,80,1,0,0,response7disk,-8,2,1,0,0,rectangle,-8,2,1,0,0,,2,0.004,0,-8,2,1,0,0,0,0,0,134,1,53,second,,,,,,,,,,,,,,,,,,,,,,,,,,,,,,,,,,,,,,,,,,,,,,,,,,,,,,,,,,,,,,,,,,,,,,
,,,,,,610778fe744943d12ecab3cc,62c53892676c34b35019437d,2022-07-06_09h25.36.855,Colour_Asymmetry_Pilot,2022.1.3,Win32,60.10337781,62c50e9c1127f2cd403a315f,,,,,,,,,,,,,,,,,,,,onethree,,-4,2.1494,,,,,,,,,,,,,,,,,,,,,,,,,,,,,,,,,,"[0.19199999999999995,0.18419999999999992,0.5136000000000001]","[-0.34920000000000007,-0.702,-0.5216]",-61,62,1,0,0,response7disk,4,-1,1,0,0,rectangle,4,-1,1,0,0,,3,0.0015,0,4,-1,1,0,0,0,1,1,132,1,51,second,,,,,,,,,,,,,,,,,,,,,,,,,,,,,,,,,,,,,,,,,,,,,,,,,,,,,,,,,,,,,,,,,,,,,,
,,,,,,610778fe744943d12ecab3cc,62c53892676c34b35019437d,2022-07-06_09h25.36.855,Colour_Asymmetry_Pilot,2022.1.3,Win32,60.10337781,62c50e9c1127f2cd403a315f,,,,,,,,,,,,,,,,,,,,onethree,,-4,1.9394,,,,,,,,,,,,,,,,,,,,,,,,,,,,,,,,,,"[-0.09019999999999995,0.44300000000000006,0.5371999999999999]","[0.9763999999999999,-0.1137999999999999,-0.6314]",-55,97,1,0,0,response7disk,11,-1,1,0,0,rectangle,11,-1,1,0,0,,3,0.0002,0,11,-1,1,0,0,0,2,2,143,1,62,second,,,,,,,,,,,,,,,,,,,,,,,,,,,,,,,,,,,,,,,,,,,,,,,,,,,,,,,,,,,,,,,,,,,,,,
,,,,,,610778fe744943d12ecab3cc,62c53892676c34b35019437d,2022-07-06_09h25.36.855,Colour_Asymmetry_Pilot,2022.1.3,Win32,60.10337781,62c50e9c1127f2cd403a315f,,,,,,,,,,,,,,,,,,,,threefour,,-4,4.5308,,,,,,,,,,,,,,,,,,,,,,,,,,,,,,,,,,"[0.23920000000000008,0.2704,0.16060000000000008]","[0.9686000000000001,0.5763999999999998,0.11359999999999992]",-37,89,1,0,0,response7disk,-2,1,1,0,0,rectangle,-2,1,1,0,0,,2,0.0031,0,-2,1,1,0,0,0,3,3,7,1,7,first,,,,,,,,,,,,,,,,,,,,,,,,,,,,,,,,,,,,,,,,,,,,,,,,,,,,,,,,,,,,,,,,,,,,,,
,,,,,,610778fe744943d12ecab3cc,62c53892676c34b35019437d,2022-07-06_09h25.36.855,Colour_Asymmetry_Pilot,2022.1.3,Win32,60.10337781,62c50e9c1127f2cd403a315f,,,,,,,,,,,,,,,,,,,,fourthree,,-4,1.3112,,,,,,,,,,,,,,,,,,,,,,,,,,,,,,,,,,"[0.7018,0.7802,-0.16079999999999994]","[0.9763999999999999,-0.1137999999999999,-0.6314]",-39,76,1,0,0,response7disk,-7,3,1,0,0,rectangle,-7,3,1,0,0,,3,0.0017,0,-7,3,1,0,0,0,4,4,79,1,79,first,,,,,,,,,,,,,,,,,,,,,,,,,,,,,,,,,,,,,,,,,,,,,,,,,,,,,,,,,,,,,,,,,,,,,,
,,,,,,610778fe744943d12ecab3cc,62c53892676c34b35019437d,2022-07-06_09h25.36.855,Colour_Asymmetry_Pilot,2022.1.3,Win32,60.10337781,62c50e9c1127f2cd403a315f,,,,,,,,,,,,,,,,,,,,twofour,,-4,1.3486,,,,,,,,,,,,,,,,,,,,,,,,,,,,,,,,,,"[0.4196,0.4665999999999999,0.3568]","[0.40379999999999994,0.09000000000000008,0.44300000000000006]",-44,75,1,0,0,response7disk,11,6,1,0,0,rectangle,11,6,1,0,0,,3,0.0006,0,11,6,1,0,0,0,5,5,14,1,14,first,,,,,,,,,,,,,,,,,,,,,,,,,,,,,,,,,,,,,,,,,,,,,,,,,,,,,,,,,,,,,,,,,,,,,,
,,,,,,610778fe744943d12ecab3cc,62c53892676c34b35019437d,2022-07-06_09h25.36.855,Colour_Asymmetry_Pilot,2022.1.3,Win32,60.10337781,62c50e9c1127f2cd403a315f,,,,,,,,,,,,,,,,,,,,twofour,,-4,1.0934,,,,,,,,,,,,,,,,,,,,,,,,,,,,,,,,,,"[0.9686000000000001,0.5763999999999998,0.11359999999999992]","[0.6547999999999998,-0.043199999999999905,-0.011800000000000033]",-48,93,1,0,0,response7disk,5,1,1,0,0,rectangle,5,1,1,0,0,,3,0.0016,0,5,1,1,0,0,0,6,6,157,1,76,second,,,,,,,,,,,,,,,,,,,,,,,,,,,,,,,,,,,,,,,,,,,,,,,,,,,,,,,,,,,,,,,,,,,,,,
,,,,,,610778fe744943d12ecab3cc,62c53892676c34b35019437d,2022-07-06_09h25.36.855,Colour_Asymmetry_Pilot,2022.1.3,Win32,60.10337781,62c50e9c1127f2cd403a315f,,,,,,,,,,,,,,,,,,,,fourthree,,-4,0.8257,,,,,,,,,,,,,,,,,,,,,,,,,,,,,,,,,,"[0.23920000000000008,0.2704,0.16060000000000008]","[-0.9138,-0.5296000000000001,-0.5529999999999999]",-41,65,1,0,0,response7disk,1,-1,1,0,0,rectangle,1,-1,1,0,0,,3,0.0017,0,1,-1,1,0,0,0,7,7,56,1,56,first,,,,,,,,,,,,,,,,,,,,,,,,,,,,,,,,,,,,,,,,,,,,,,,,,,,,,,,,,,,,,,,,,,,,,,
,,,,,,610778fe744943d12ecab3cc,62c53892676c34b35019437d,2022-07-06_09h25.36.855,Colour_Asymmetry_Pilot,2022.1.3,Win32,60.10337781,62c50e9c1127f2cd403a315f,,,,,,,,,,,,,,,,,,,,twofour,,-4,0.6835,,,,,,,,,,,,,,,,,,,,,,,,,,,,,,,,,,"[0.3568,-0.20799999999999996,-0.9844]","[0.5528,0.7409999999999999,-0.71]",-47,77,1,0,0,response7disk,7,1,1,0,0,rectangle,7,1,1,0,0,,1,0.0042,0,7,1,1,0,0,0,8,8,151,1,70,second,,,,,,,,,,,,,,,,,,,,,,,,,,,,,,,,,,,,,,,,,,,,,,,,,,,,,,,,,,,,,,,,,,,,,,
,,,,,,610778fe744943d12ecab3cc,62c53892676c34b35019437d,2022-07-06_09h25.36.855,Colour_Asymmetry_Pilot,2022.1.3,Win32,60.10337781,62c50e9c1127f2cd403a315f,,,,,,,,,,,,,,,,,,,,fourtwo,,-4,0.7506,,,,,,,,,,,,,,,,,,,,,,,,,,,,,,,,,,"[0.9686000000000001,0.5763999999999998,0.11359999999999992]","[-0.48240000000000005,0.3175999999999999,0.2156]",-23,44,1,0,0,response7disk,-19,10,1,0,0,rectangle,-19,10,1,0,0,,3,0.0014,0,-19,10,1,0,0,0,9,9,40,1,40,first,,,,,,,,,,,,,,,,,,,,,,,,,,,,,,,,,,,,,,,,,,,,,,,,,,,,,,,,,,,,,,,,,,,,,,
,,,,,,610778fe744943d12ecab3cc,62c53892676c34b35019437d,2022-07-06_09h25.36.855,Colour_Asymmetry_Pilot,2022.1.3,Win32,60.10337781,62c50e9c1127f2cd403a315f,,,,,,,,,,,,,,,,,,,,twoone,,-4,0.5915,,,,,,,,,,,,,,,,,,,,,,,,,,,,,,,,,,"[-0.9296,-0.12959999999999994,-0.043199999999999905]","[-0.17659999999999998,-0.2864,-0.8354]",-31,83,1,0,0,response7disk,7,4,1,0,0,rectangle,7,4,1,0,0,,3,0.0006,0,7,4,1,0,0,0,10,10,53,1,53,first,,,,,,,,,,,,,,,,,,,,,,,,,,,,,,,,,,,,,,,,,,,,,,,,,,,,,,,,,,,,,,,,,,,,,,
,,,,,,610778fe744943d12ecab3cc,62c53892676c34b35019437d,2022-07-06_09h25.36.855,Colour_Asymmetry_Pilot,2022.1.3,Win32,60.10337781,62c50e9c1127f2cd403a315f,,,,,,,,,,,,,,,,,,,,threeone,,-4,0.599,,,,,,,,,,,,,,,,,,,,,,,,,,,,,,,,,,"[0.23120000000000007,-0.7726,-0.34120000000000006]","[0.37240000000000006,0.4980000000000002,-0.2864]",-39,88,1,0,0,response7disk,-8,5,1,0,0,rectangle,-8,5,1,0,0,,2,0.0027,0,-8,5,1,0,0,0,11,11,99,1,18,second,,,,,,,,,,,,,,,,,,,,,,,,,,,,,,,,,,,,,,,,,,,,,,,,,,,,,,,,,,,,,,,,,,,,,,
,,,,,,610778fe744943d12ecab3cc,62c53892676c34b35019437d,2022-07-06_09h25.36.855,Colour_Asymmetry_Pilot,2022.1.3,Win32,60.10337781,62c50e9c1127f2cd403a315f,,,,,,,,,,,,,,,,,,,,onetwo,,-4,0.7339,,,,,,,,,,,,,,,,,,,,,,,,,,,,,,,,,,"[-0.07459999999999989,0.12139999999999995,-0.9922]","[0.0351999999999999,0.41159999999999997,0.0038000000000000256]",-26,68,1,0,0,response7disk,-1,12,1,0,0,rectangle,-1,12,1,0,0,,2,0.0004,0,-1,12,1,0,0,0,12,12,63,1,63,first,,,,,,,,,,,,,,,,,,,,,,,,,,,,,,,,,,,,,,,,,,,,,,,,,,,,,,,,,,,,,,,,,,,,,,
,,,,,,610778fe744943d12ecab3cc,62c53892676c34b35019437d,2022-07-06_09h25.36.855,Colour_Asymmetry_Pilot,2022.1.3,Win32,60.10337781,62c50e9c1127f2cd403a315f,,,,,,,,,,,,,,,,,,,,fourtwo,,-4,0.4545,,,,,,,,,,,,,,,,,,,,,,,,,,,,,,,,,,"[-0.2942,-0.7648,-0.7492000000000001]","[-0.9688,-0.7412000000000001,-0.4902000000000001]",-37,63,1,0,0,response7disk,-11,-3,1,0,0,rectangle,-11,-3,1,0,0,,3,0.0011,0,-11,-3,1,0,0,0,13,13,109,1,28,second,,,,,,,,,,,,,,,,,,,,,,,,,,,,,,,,,,,,,,,,,,,,,,,,,,,,,,,,,,,,,,,,,,,,,,
,,,,,,610778fe744943d12ecab3cc,62c53892676c34b35019437d,2022-07-06_09h25.36.855,Colour_Asymmetry_Pilot,2022.1.3,Win32,60.10337781,62c50e9c1127f2cd403a315f,,,,,,,,,,,,,,,,,,,,onetwo,,-4,0.4499,,,,,,,,,,,,,,,,,,,,,,,,,,,,,,,,,,"[-0.4668,-0.8746,-0.2942]","[0.7018,0.7176,0.6155999999999999]",-46,75,1,0,0,response7disk,-9,7,1,0,0,rectangle,-9,7,1,0,0,,2,0.0016,0,-9,7,1,0,0,0,14,14,125,1,44,second,,,,,,,,,,,,,,,,,,,,,,,,,,,,,,,,,,,,,,,,,,,,,,,,,,,,,,,,,,,,,,,,,,,,,,
,,,,,,610778fe744943d12ecab3cc,62c53892676c34b35019437d,2022-07-06_09h25.36.855,Colour_Asymmetry_Pilot,2022.1.3,Win32,60.10337781,62c50e9c1127f2cd403a315f,,,,,,,,,,,,,,,,,,,,threefour,,-4,0.4858,,,,,,,,,,,,,,,,,,,,,,,,,,,,,,,,,,"[0.3568,-0.20799999999999996,-0.9844]","[0.19199999999999995,0.18419999999999992,0.5136000000000001]",-24,60,1,0,0,response7disk,-5,-8,1,0,0,rectangle,-5,-8,1,0,0,,2,0.0002,0,-5,-8,1,0,0,0,15,15,42,1,42,first,,,,,,,,,,,,,,,,,,,,,,,,,,,,,,,,,,,,,,,,,,,,,,,,,,,,,,,,,,,,,,,,,,,,,,
,,,,,,610778fe744943d12ecab3cc,62c53892676c34b35019437d,2022-07-06_09h25.36.855,Colour_Asymmetry_Pilot,2022.1.3,Win32,60.10337781,62c50e9c1127f2cd403a315f,,,,,,,,,,,,,,,,,,,,fourtwo,,-4,0.535,,,,,,,,,,,,,,,,,,,,,,,,,,,,,,,,,,"[0.8274000000000001,-0.5844,-0.9452]","[0.9842,0.7409999999999999,-0.6628000000000001]",-33,66,1,0,0,response7disk,-5,8,1,0,0,rectangle,-5,8,1,0,0,,3,0.001,0,-5,8,1,0,0,0,16,16,17,1,17,first,,,,,,,,,,,,,,,,,,,,,,,,,,,,,,,,,,,,,,,,,,,,,,,,,,,,,,,,,,,,,,,,,,,,,,
,,,,,,610778fe744943d12ecab3cc,62c53892676c34b35019437d,2022-07-06_09h25.36.855,Colour_Asymmetry_Pilot,2022.1.3,Win32,60.10337781,62c50e9c1127f2cd403a315f,,,,,,,,,,,,,,,,,,,,fourtwo,,-4,0.5602,,,,,,,,,,,,,,,,,,,,,,,,,,,,,,,,,,"[0.18419999999999992,-0.4276,-0.404]","[-0.9844,-0.9688,-0.9922]",-23,81,1,0,0,response7disk,-2,-6,1,0,0,rectangle,-2,-6,1,0,0,,1,0.0024,0,-2,-6,1,0,0,0,17,17,110,1,29,second,,,,,,,,,,,,,,,,,,,,,,,,,,,,,,,,,,,,,,,,,,,,,,,,,,,,,,,,,,,,,,,,,,,,,,
,,,,,,610778fe744943d12ecab3cc,62c53892676c34b35019437d,2022-07-06_09h25.36.855,Colour_Asymmetry_Pilot,2022.1.3,Win32,60.10337781,62c50e9c1127f2cd403a315f,,,,,,,,,,,,,,,,,,,,twofour,,-4,0.4835,,,,,,,,,,,,,,,,,,,,,,,,,,,,,,,,,,"[0.3881999999999999,-0.23939999999999995,-0.05040000000000011]","[0.18419999999999992,-0.4276,-0.404]",-27,57,1,0,0,response7disk,-3,4,1,0,0,rectangle,-3,4,1,0,0,,3,0.0009,0,-3,4,1,0,0,0,18,18,72,1,72,first,,,,,,,,,,,,,,,,,,,,,,,,,,,,,,,,,,,,,,,,,,,,,,,,,,,,,,,,,,,,,,,,,,,,,,
