trials.thisRepN,trials.thisTrialN,trials.thisN,trials.thisIndex,trials.ran,Colourcodes,participant,session,date,expName,psychopyVersion,OS,frameRate,study_id,trials_4.thisRepN,trials_4.thisTrialN,trials_4.thisN,trials_4.thisIndex,trials_4.ran,StimulusPos,key_resp.keys,key_resp.rt,key_resp_2.keys,key_resp_2.rt,key_resp_15.keys,key_resp_15.rt,key_resp_17.keys,key_resp_17.rt,key_resp_9.keys,key_resp_9.rt,key_resp_10.keys,key_resp_10.rt,Circle1_col,Ecc,Circle2_col,similarity,response_time,mouse_5.x,mouse_5.y,mouse_5.leftButton,mouse_5.midButton,mouse_5.rightButton,mouse_5.clicked_name,mouse_10.x,mouse_10.y,mouse_10.leftButton,mouse_10.midButton,mouse_10.rightButton,mouse_10.clicked_name,mouse_7.x,mouse_7.y,mouse_7.leftButton,mouse_7.midButton,mouse_7.rightButton,mouse_7.clicked_name,catchprac,catchnumberprac,mouse_6.x,mouse_6.y,mouse_6.leftButton,mouse_6.midButton,mouse_6.rightButton,mouse_6.clicked_name,duringprac.thisRepN,duringprac.thisTrialN,duringprac.thisN,duringprac.thisIndex,duringprac.ran,key_resp_22.keys,key_resp_22.rt,Circle1_colour,Circle2_colour,mouse.x,mouse.y,mouse.leftButton,mouse.midButton,mouse.rightButton,mouse.clicked_name,mouse_2.x,mouse_2.y,mouse_2.leftButton,mouse_2.midButton,mouse_2.rightButton,mouse_2.clicked_name,mouse_3.x,mouse_3.y,mouse_3.leftButton,mouse_3.midButton,mouse_3.rightButton,catchresponse,catchnumber,response_time_catch,Catch,mouse_11.x,mouse_11.y,mouse_11.leftButton,mouse_11.midButton,mouse_11.rightButton,trials_2.thisRepN,trials_2.thisTrialN,trials_2.thisN,trials_2.thisIndex,trials_2.ran,Colourpair,Temporder,mouse_3.clicked_name,mouse_11.clicked_name,trials_3.thisRepN,trials_3.thisTrialN,trials_3.thisN,trials_3.thisIndex,trials_3.ran,key_resp_instr_Ishi.keys,key_resp_instr_Ishi.rt,Ishi_trial_keyresp.keys,Ishi_trial_keyresp.rt,Ishi_textbox.text,Ishi_mouse.x,Ishi_mouse.y,Ishi_mouse.leftButton,Ishi_mouse.midButton,Ishi_mouse.rightButton,Ishi_loop.thisRepN,Ishi_loop.thisTrialN,Ishi_loop.thisN,Ishi_loop.thisIndex,Ishi_loop.ran,imageaddress,textbox.text,mouse_4.x,mouse_4.y,mouse_4.leftButton,mouse_4.midButton,mouse_4.rightButton,mouse_4.clicked_name,textbox_2.text,mouse_8.x,mouse_8.y,mouse_8.leftButton,mouse_8.midButton,mouse_8.rightButton,mouse_8.clicked_name,textbox_3.text,mouse_9.x,mouse_9.y,mouse_9.leftButton,mouse_9.midButton,mouse_9.rightButton,mouse_9.clicked_name,textbox_4.text,mouse_12.x,mouse_12.y,mouse_12.leftButton,mouse_12.midButton,mouse_12.rightButton,mouse_12.clicked_name,textbox_5.text,mouse_13.x,mouse_13.y,mouse_13.leftButton,mouse_13.midButton,mouse_13.rightButton,mouse_13.clicked_name,textbox_6.text,mouse_14.x,mouse_14.y,mouse_14.leftButton,mouse_14.midButton,mouse_14.rightButton,mouse_14.clicked_name,textbox_7.text,mouse_15.x,mouse_15.y,mouse_15.leftButton,mouse_15.midButton,mouse_15.rightButton,mouse_15.clicked_name
0,0,0,90,1,,5ef211cba33a988a6311bc67,62c539ef3ede2ab943e36d3f,2022-07-06_09h30.04.544,Colour_Asymmetry_Pilot,2022.1.3,Win32,59.29791271,62c50e9c1127f2cd403a315f,,,,,,,,,,,,,,,,,,,,,,,,,,,,,,,,,,,,,,,,,,,,,,,,,,,,,,,,,,,,,,,,,,,,,,,,,,,,,,,,,,,,,,,,,,,,,,,,,,,,,,,,,,,,,,,,,,,,,,,,,,,,,,,,,,,,,,,,,,,,,,,,,,,,,,,,,,,,,,,,,,,
0,1,1,58,1,,5ef211cba33a988a6311bc67,62c539ef3ede2ab943e36d3f,2022-07-06_09h30.04.544,Colour_Asymmetry_Pilot,2022.1.3,Win32,59.29791271,62c50e9c1127f2cd403a315f,,,,,,,,,,,,,,,,,,,,,,,,,,,,,,,,,,,,,,,,,,,,,,,,,,,,,,,,,,,,,,,,,,,,,,,,,,,,,,,,,,,,,,,,,,,,,,,,,,,,,,,,,,,,,,,,,,,,,,,,,,,,,,,,,,,,,,,,,,,,,,,,,,,,,,,,,,,,,,,,,,,
0,2,2,41,1,,5ef211cba33a988a6311bc67,62c539ef3ede2ab943e36d3f,2022-07-06_09h30.04.544,Colour_Asymmetry_Pilot,2022.1.3,Win32,59.29791271,62c50e9c1127f2cd403a315f,,,,,,,,,,,,,,,,,,,,,,,,,,,,,,,,,,,,,,,,,,,,,,,,,,,,,,,,,,,,,,,,,,,,,,,,,,,,,,,,,,,,,,,,,,,,,,,,,,,,,,,,,,,,,,,,,,,,,,,,,,,,,,,,,,,,,,,,,,,,,,,,,,,,,,,,,,,,,,,,,,,
0,3,3,13,1,,5ef211cba33a988a6311bc67,62c539ef3ede2ab943e36d3f,2022-07-06_09h30.04.544,Colour_Asymmetry_Pilot,2022.1.3,Win32,59.29791271,62c50e9c1127f2cd403a315f,,,,,,,,,,,,,,,,,,,,,,,,,,,,,,,,,,,,,,,,,,,,,,,,,,,,,,,,,,,,,,,,,,,,,,,,,,,,,,,,,,,,,,,,,,,,,,,,,,,,,,,,,,,,,,,,,,,,,,,,,,,,,,,,,,,,,,,,,,,,,,,,,,,,,,,,,,,,,,,,,,,
0,4,4,83,1,,5ef211cba33a988a6311bc67,62c539ef3ede2ab943e36d3f,2022-07-06_09h30.04.544,Colour_Asymmetry_Pilot,2022.1.3,Win32,59.29791271,62c50e9c1127f2cd403a315f,,,,,,,,,,,,,,,,,,,,,,,,,,,,,,,,,,,,,,,,,,,,,,,,,,,,,,,,,,,,,,,,,,,,,,,,,,,,,,,,,,,,,,,,,,,,,,,,,,,,,,,,,,,,,,,,,,,,,,,,,,,,,,,,,,,,,,,,,,,,,,,,,,,,,,,,,,,,,,,,,,,
0,5,5,88,1,,5ef211cba33a988a6311bc67,62c539ef3ede2ab943e36d3f,2022-07-06_09h30.04.544,Colour_Asymmetry_Pilot,2022.1.3,Win32,59.29791271,62c50e9c1127f2cd403a315f,,,,,,,,,,,,,,,,,,,,,,,,,,,,,,,,,,,,,,,,,,,,,,,,,,,,,,,,,,,,,,,,,,,,,,,,,,,,,,,,,,,,,,,,,,,,,,,,,,,,,,,,,,,,,,,,,,,,,,,,,,,,,,,,,,,,,,,,,,,,,,,,,,,,,,,,,,,,,,,,,,,
0,6,6,19,1,,5ef211cba33a988a6311bc67,62c539ef3ede2ab943e36d3f,2022-07-06_09h30.04.544,Colour_Asymmetry_Pilot,2022.1.3,Win32,59.29791271,62c50e9c1127f2cd403a315f,,,,,,,,,,,,,,,,,,,,,,,,,,,,,,,,,,,,,,,,,,,,,,,,,,,,,,,,,,,,,,,,,,,,,,,,,,,,,,,,,,,,,,,,,,,,,,,,,,,,,,,,,,,,,,,,,,,,,,,,,,,,,,,,,,,,,,,,,,,,,,,,,,,,,,,,,,,,,,,,,,,
0,7,7,49,1,,5ef211cba33a988a6311bc67,62c539ef3ede2ab943e36d3f,2022-07-06_09h30.04.544,Colour_Asymmetry_Pilot,2022.1.3,Win32,59.29791271,62c50e9c1127f2cd403a315f,,,,,,,,,,,,,,,,,,,,,,,,,,,,,,,,,,,,,,,,,,,,,,,,,,,,,,,,,,,,,,,,,,,,,,,,,,,,,,,,,,,,,,,,,,,,,,,,,,,,,,,,,,,,,,,,,,,,,,,,,,,,,,,,,,,,,,,,,,,,,,,,,,,,,,,,,,,,,,,,,,,
0,8,8,69,1,,5ef211cba33a988a6311bc67,62c539ef3ede2ab943e36d3f,2022-07-06_09h30.04.544,Colour_Asymmetry_Pilot,2022.1.3,Win32,59.29791271,62c50e9c1127f2cd403a315f,,,,,,,,,,,,,,,,,,,,,,,,,,,,,,,,,,,,,,,,,,,,,,,,,,,,,,,,,,,,,,,,,,,,,,,,,,,,,,,,,,,,,,,,,,,,,,,,,,,,,,,,,,,,,,,,,,,,,,,,,,,,,,,,,,,,,,,,,,,,,,,,,,,,,,,,,,,,,,,,,,,
0,9,9,70,1,,5ef211cba33a988a6311bc67,62c539ef3ede2ab943e36d3f,2022-07-06_09h30.04.544,Colour_Asymmetry_Pilot,2022.1.3,Win32,59.29791271,62c50e9c1127f2cd403a315f,,,,,,,,,,,,,,,,,,,,,,,,,,,,,,,,,,,,,,,,,,,,,,,,,,,,,,,,,,,,,,,,,,,,,,,,,,,,,,,,,,,,,,,,,,,,,,,,,,,,,,,,,,,,,,,,,,,,,,,,,,,,,,,,,,,,,,,,,,,,,,,,,,,,,,,,,,,,,,,,,,,
0,10,10,52,1,,5ef211cba33a988a6311bc67,62c539ef3ede2ab943e36d3f,2022-07-06_09h30.04.544,Colour_Asymmetry_Pilot,2022.1.3,Win32,59.29791271,62c50e9c1127f2cd403a315f,,,,,,,,,,,,,,,,,,,,,,,,,,,,,,,,,,,,,,,,,,,,,,,,,,,,,,,,,,,,,,,,,,,,,,,,,,,,,,,,,,,,,,,,,,,,,,,,,,,,,,,,,,,,,,,,,,,,,,,,,,,,,,,,,,,,,,,,,,,,,,,,,,,,,,,,,,,,,,,,,,,
0,11,11,5,1,,5ef211cba33a988a6311bc67,62c539ef3ede2ab943e36d3f,2022-07-06_09h30.04.544,Colour_Asymmetry_Pilot,2022.1.3,Win32,59.29791271,62c50e9c1127f2cd403a315f,,,,,,,,,,,,,,,,,,,,,,,,,,,,,,,,,,,,,,,,,,,,,,,,,,,,,,,,,,,,,,,,,,,,,,,,,,,,,,,,,,,,,,,,,,,,,,,,,,,,,,,,,,,,,,,,,,,,,,,,,,,,,,,,,,,,,,,,,,,,,,,,,,,,,,,,,,,,,,,,,,,
0,12,12,32,1,,5ef211cba33a988a6311bc67,62c539ef3ede2ab943e36d3f,2022-07-06_09h30.04.544,Colour_Asymmetry_Pilot,2022.1.3,Win32,59.29791271,62c50e9c1127f2cd403a315f,,,,,,,,,,,,,,,,,,,,,,,,,,,,,,,,,,,,,,,,,,,,,,,,,,,,,,,,,,,,,,,,,,,,,,,,,,,,,,,,,,,,,,,,,,,,,,,,,,,,,,,,,,,,,,,,,,,,,,,,,,,,,,,,,,,,,,,,,,,,,,,,,,,,,,,,,,,,,,,,,,,
0,13,13,0,1,,5ef211cba33a988a6311bc67,62c539ef3ede2ab943e36d3f,2022-07-06_09h30.04.544,Colour_Asymmetry_Pilot,2022.1.3,Win32,59.29791271,62c50e9c1127f2cd403a315f,,,,,,,,,,,,,,,,,,,,,,,,,,,,,,,,,,,,,,,,,,,,,,,,,,,,,,,,,,,,,,,,,,,,,,,,,,,,,,,,,,,,,,,,,,,,,,,,,,,,,,,,,,,,,,,,,,,,,,,,,,,,,,,,,,,,,,,,,,,,,,,,,,,,,,,,,,,,,,,,,,,
0,14,14,11,1,,5ef211cba33a988a6311bc67,62c539ef3ede2ab943e36d3f,2022-07-06_09h30.04.544,Colour_Asymmetry_Pilot,2022.1.3,Win32,59.29791271,62c50e9c1127f2cd403a315f,,,,,,,,,,,,,,,,,,,,,,,,,,,,,,,,,,,,,,,,,,,,,,,,,,,,,,,,,,,,,,,,,,,,,,,,,,,,,,,,,,,,,,,,,,,,,,,,,,,,,,,,,,,,,,,,,,,,,,,,,,,,,,,,,,,,,,,,,,,,,,,,,,,,,,,,,,,,,,,,,,,
0,15,15,82,1,,5ef211cba33a988a6311bc67,62c539ef3ede2ab943e36d3f,2022-07-06_09h30.04.544,Colour_Asymmetry_Pilot,2022.1.3,Win32,59.29791271,62c50e9c1127f2cd403a315f,,,,,,,,,,,,,,,,,,,,,,,,,,,,,,,,,,,,,,,,,,,,,,,,,,,,,,,,,,,,,,,,,,,,,,,,,,,,,,,,,,,,,,,,,,,,,,,,,,,,,,,,,,,,,,,,,,,,,,,,,,,,,,,,,,,,,,,,,,,,,,,,,,,,,,,,,,,,,,,,,,,
0,16,16,28,1,,5ef211cba33a988a6311bc67,62c539ef3ede2ab943e36d3f,2022-07-06_09h30.04.544,Colour_Asymmetry_Pilot,2022.1.3,Win32,59.29791271,62c50e9c1127f2cd403a315f,,,,,,,,,,,,,,,,,,,,,,,,,,,,,,,,,,,,,,,,,,,,,,,,,,,,,,,,,,,,,,,,,,,,,,,,,,,,,,,,,,,,,,,,,,,,,,,,,,,,,,,,,,,,,,,,,,,,,,,,,,,,,,,,,,,,,,,,,,,,,,,,,,,,,,,,,,,,,,,,,,,
0,17,17,36,1,,5ef211cba33a988a6311bc67,62c539ef3ede2ab943e36d3f,2022-07-06_09h30.04.544,Colour_Asymmetry_Pilot,2022.1.3,Win32,59.29791271,62c50e9c1127f2cd403a315f,,,,,,,,,,,,,,,,,,,,,,,,,,,,,,,,,,,,,,,,,,,,,,,,,,,,,,,,,,,,,,,,,,,,,,,,,,,,,,,,,,,,,,,,,,,,,,,,,,,,,,,,,,,,,,,,,,,,,,,,,,,,,,,,,,,,,,,,,,,,,,,,,,,,,,,,,,,,,,,,,,,
0,18,18,75,1,,5ef211cba33a988a6311bc67,62c539ef3ede2ab943e36d3f,2022-07-06_09h30.04.544,Colour_Asymmetry_Pilot,2022.1.3,Win32,59.29791271,62c50e9c1127f2cd403a315f,,,,,,,,,,,,,,,,,,,,,,,,,,,,,,,,,,,,,,,,,,,,,,,,,,,,,,,,,,,,,,,,,,,,,,,,,,,,,,,,,,,,,,,,,,,,,,,,,,,,,,,,,,,,,,,,,,,,,,,,,,,,,,,,,,,,,,,,,,,,,,,,,,,,,,,,,,,,,,,,,,,
0,19,19,31,1,,5ef211cba33a988a6311bc67,62c539ef3ede2ab943e36d3f,2022-07-06_09h30.04.544,Colour_Asymmetry_Pilot,2022.1.3,Win32,59.29791271,62c50e9c1127f2cd403a315f,,,,,,,,,,,,,,,,,,,,,,,,,,,,,,,,,,,,,,,,,,,,,,,,,,,,,,,,,,,,,,,,,,,,,,,,,,,,,,,,,,,,,,,,,,,,,,,,,,,,,,,,,,,,,,,,,,,,,,,,,,,,,,,,,,,,,,,,,,,,,,,,,,,,,,,,,,,,,,,,,,,
0,20,20,72,1,,5ef211cba33a988a6311bc67,62c539ef3ede2ab943e36d3f,2022-07-06_09h30.04.544,Colour_Asymmetry_Pilot,2022.1.3,Win32,59.29791271,62c50e9c1127f2cd403a315f,,,,,,,,,,,,,,,,,,,,,,,,,,,,,,,,,,,,,,,,,,,,,,,,,,,,,,,,,,,,,,,,,,,,,,,,,,,,,,,,,,,,,,,,,,,,,,,,,,,,,,,,,,,,,,,,,,,,,,,,,,,,,,,,,,,,,,,,,,,,,,,,,,,,,,,,,,,,,,,,,,,
0,21,21,79,1,,5ef211cba33a988a6311bc67,62c539ef3ede2ab943e36d3f,2022-07-06_09h30.04.544,Colour_Asymmetry_Pilot,2022.1.3,Win32,59.29791271,62c50e9c1127f2cd403a315f,,,,,,,,,,,,,,,,,,,,,,,,,,,,,,,,,,,,,,,,,,,,,,,,,,,,,,,,,,,,,,,,,,,,,,,,,,,,,,,,,,,,,,,,,,,,,,,,,,,,,,,,,,,,,,,,,,,,,,,,,,,,,,,,,,,,,,,,,,,,,,,,,,,,,,,,,,,,,,,,,,,
0,22,22,47,1,,5ef211cba33a988a6311bc67,62c539ef3ede2ab943e36d3f,2022-07-06_09h30.04.544,Colour_Asymmetry_Pilot,2022.1.3,Win32,59.29791271,62c50e9c1127f2cd403a315f,,,,,,,,,,,,,,,,,,,,,,,,,,,,,,,,,,,,,,,,,,,,,,,,,,,,,,,,,,,,,,,,,,,,,,,,,,,,,,,,,,,,,,,,,,,,,,,,,,,,,,,,,,,,,,,,,,,,,,,,,,,,,,,,,,,,,,,,,,,,,,,,,,,,,,,,,,,,,,,,,,,
0,23,23,33,1,,5ef211cba33a988a6311bc67,62c539ef3ede2ab943e36d3f,2022-07-06_09h30.04.544,Colour_Asymmetry_Pilot,2022.1.3,Win32,59.29791271,62c50e9c1127f2cd403a315f,,,,,,,,,,,,,,,,,,,,,,,,,,,,,,,,,,,,,,,,,,,,,,,,,,,,,,,,,,,,,,,,,,,,,,,,,,,,,,,,,,,,,,,,,,,,,,,,,,,,,,,,,,,,,,,,,,,,,,,,,,,,,,,,,,,,,,,,,,,,,,,,,,,,,,,,,,,,,,,,,,,
0,24,24,89,1,,5ef211cba33a988a6311bc67,62c539ef3ede2ab943e36d3f,2022-07-06_09h30.04.544,Colour_Asymmetry_Pilot,2022.1.3,Win32,59.29791271,62c50e9c1127f2cd403a315f,,,,,,,,,,,,,,,,,,,,,,,,,,,,,,,,,,,,,,,,,,,,,,,,,,,,,,,,,,,,,,,,,,,,,,,,,,,,,,,,,,,,,,,,,,,,,,,,,,,,,,,,,,,,,,,,,,,,,,,,,,,,,,,,,,,,,,,,,,,,,,,,,,,,,,,,,,,,,,,,,,,
0,25,25,10,1,,5ef211cba33a988a6311bc67,62c539ef3ede2ab943e36d3f,2022-07-06_09h30.04.544,Colour_Asymmetry_Pilot,2022.1.3,Win32,59.29791271,62c50e9c1127f2cd403a315f,,,,,,,,,,,,,,,,,,,,,,,,,,,,,,,,,,,,,,,,,,,,,,,,,,,,,,,,,,,,,,,,,,,,,,,,,,,,,,,,,,,,,,,,,,,,,,,,,,,,,,,,,,,,,,,,,,,,,,,,,,,,,,,,,,,,,,,,,,,,,,,,,,,,,,,,,,,,,,,,,,,
0,26,26,20,1,,5ef211cba33a988a6311bc67,62c539ef3ede2ab943e36d3f,2022-07-06_09h30.04.544,Colour_Asymmetry_Pilot,2022.1.3,Win32,59.29791271,62c50e9c1127f2cd403a315f,,,,,,,,,,,,,,,,,,,,,,,,,,,,,,,,,,,,,,,,,,,,,,,,,,,,,,,,,,,,,,,,,,,,,,,,,,,,,,,,,,,,,,,,,,,,,,,,,,,,,,,,,,,,,,,,,,,,,,,,,,,,,,,,,,,,,,,,,,,,,,,,,,,,,,,,,,,,,,,,,,,
0,27,27,37,1,,5ef211cba33a988a6311bc67,62c539ef3ede2ab943e36d3f,2022-07-06_09h30.04.544,Colour_Asymmetry_Pilot,2022.1.3,Win32,59.29791271,62c50e9c1127f2cd403a315f,,,,,,,,,,,,,,,,,,,,,,,,,,,,,,,,,,,,,,,,,,,,,,,,,,,,,,,,,,,,,,,,,,,,,,,,,,,,,,,,,,,,,,,,,,,,,,,,,,,,,,,,,,,,,,,,,,,,,,,,,,,,,,,,,,,,,,,,,,,,,,,,,,,,,,,,,,,,,,,,,,,
0,28,28,45,1,,5ef211cba33a988a6311bc67,62c539ef3ede2ab943e36d3f,2022-07-06_09h30.04.544,Colour_Asymmetry_Pilot,2022.1.3,Win32,59.29791271,62c50e9c1127f2cd403a315f,,,,,,,,,,,,,,,,,,,,,,,,,,,,,,,,,,,,,,,,,,,,,,,,,,,,,,,,,,,,,,,,,,,,,,,,,,,,,,,,,,,,,,,,,,,,,,,,,,,,,,,,,,,,,,,,,,,,,,,,,,,,,,,,,,,,,,,,,,,,,,,,,,,,,,,,,,,,,,,,,,,
0,29,29,73,1,,5ef211cba33a988a6311bc67,62c539ef3ede2ab943e36d3f,2022-07-06_09h30.04.544,Colour_Asymmetry_Pilot,2022.1.3,Win32,59.29791271,62c50e9c1127f2cd403a315f,,,,,,,,,,,,,,,,,,,,,,,,,,,,,,,,,,,,,,,,,,,,,,,,,,,,,,,,,,,,,,,,,,,,,,,,,,,,,,,,,,,,,,,,,,,,,,,,,,,,,,,,,,,,,,,,,,,,,,,,,,,,,,,,,,,,,,,,,,,,,,,,,,,,,,,,,,,,,,,,,,,
0,30,30,66,1,,5ef211cba33a988a6311bc67,62c539ef3ede2ab943e36d3f,2022-07-06_09h30.04.544,Colour_Asymmetry_Pilot,2022.1.3,Win32,59.29791271,62c50e9c1127f2cd403a315f,,,,,,,,,,,,,,,,,,,,,,,,,,,,,,,,,,,,,,,,,,,,,,,,,,,,,,,,,,,,,,,,,,,,,,,,,,,,,,,,,,,,,,,,,,,,,,,,,,,,,,,,,,,,,,,,,,,,,,,,,,,,,,,,,,,,,,,,,,,,,,,,,,,,,,,,,,,,,,,,,,,
0,31,31,46,1,,5ef211cba33a988a6311bc67,62c539ef3ede2ab943e36d3f,2022-07-06_09h30.04.544,Colour_Asymmetry_Pilot,2022.1.3,Win32,59.29791271,62c50e9c1127f2cd403a315f,,,,,,,,,,,,,,,,,,,,,,,,,,,,,,,,,,,,,,,,,,,,,,,,,,,,,,,,,,,,,,,,,,,,,,,,,,,,,,,,,,,,,,,,,,,,,,,,,,,,,,,,,,,,,,,,,,,,,,,,,,,,,,,,,,,,,,,,,,,,,,,,,,,,,,,,,,,,,,,,,,,
0,32,32,6,1,,5ef211cba33a988a6311bc67,62c539ef3ede2ab943e36d3f,2022-07-06_09h30.04.544,Colour_Asymmetry_Pilot,2022.1.3,Win32,59.29791271,62c50e9c1127f2cd403a315f,,,,,,,,,,,,,,,,,,,,,,,,,,,,,,,,,,,,,,,,,,,,,,,,,,,,,,,,,,,,,,,,,,,,,,,,,,,,,,,,,,,,,,,,,,,,,,,,,,,,,,,,,,,,,,,,,,,,,,,,,,,,,,,,,,,,,,,,,,,,,,,,,,,,,,,,,,,,,,,,,,,
0,33,33,85,1,,5ef211cba33a988a6311bc67,62c539ef3ede2ab943e36d3f,2022-07-06_09h30.04.544,Colour_Asymmetry_Pilot,2022.1.3,Win32,59.29791271,62c50e9c1127f2cd403a315f,,,,,,,,,,,,,,,,,,,,,,,,,,,,,,,,,,,,,,,,,,,,,,,,,,,,,,,,,,,,,,,,,,,,,,,,,,,,,,,,,,,,,,,,,,,,,,,,,,,,,,,,,,,,,,,,,,,,,,,,,,,,,,,,,,,,,,,,,,,,,,,,,,,,,,,,,,,,,,,,,,,
0,34,34,12,1,,5ef211cba33a988a6311bc67,62c539ef3ede2ab943e36d3f,2022-07-06_09h30.04.544,Colour_Asymmetry_Pilot,2022.1.3,Win32,59.29791271,62c50e9c1127f2cd403a315f,,,,,,,,,,,,,,,,,,,,,,,,,,,,,,,,,,,,,,,,,,,,,,,,,,,,,,,,,,,,,,,,,,,,,,,,,,,,,,,,,,,,,,,,,,,,,,,,,,,,,,,,,,,,,,,,,,,,,,,,,,,,,,,,,,,,,,,,,,,,,,,,,,,,,,,,,,,,,,,,,,,
0,35,35,18,1,,5ef211cba33a988a6311bc67,62c539ef3ede2ab943e36d3f,2022-07-06_09h30.04.544,Colour_Asymmetry_Pilot,2022.1.3,Win32,59.29791271,62c50e9c1127f2cd403a315f,,,,,,,,,,,,,,,,,,,,,,,,,,,,,,,,,,,,,,,,,,,,,,,,,,,,,,,,,,,,,,,,,,,,,,,,,,,,,,,,,,,,,,,,,,,,,,,,,,,,,,,,,,,,,,,,,,,,,,,,,,,,,,,,,,,,,,,,,,,,,,,,,,,,,,,,,,,,,,,,,,,
0,36,36,87,1,,5ef211cba33a988a6311bc67,62c539ef3ede2ab943e36d3f,2022-07-06_09h30.04.544,Colour_Asymmetry_Pilot,2022.1.3,Win32,59.29791271,62c50e9c1127f2cd403a315f,,,,,,,,,,,,,,,,,,,,,,,,,,,,,,,,,,,,,,,,,,,,,,,,,,,,,,,,,,,,,,,,,,,,,,,,,,,,,,,,,,,,,,,,,,,,,,,,,,,,,,,,,,,,,,,,,,,,,,,,,,,,,,,,,,,,,,,,,,,,,,,,,,,,,,,,,,,,,,,,,,,
0,37,37,53,1,,5ef211cba33a988a6311bc67,62c539ef3ede2ab943e36d3f,2022-07-06_09h30.04.544,Colour_Asymmetry_Pilot,2022.1.3,Win32,59.29791271,62c50e9c1127f2cd403a315f,,,,,,,,,,,,,,,,,,,,,,,,,,,,,,,,,,,,,,,,,,,,,,,,,,,,,,,,,,,,,,,,,,,,,,,,,,,,,,,,,,,,,,,,,,,,,,,,,,,,,,,,,,,,,,,,,,,,,,,,,,,,,,,,,,,,,,,,,,,,,,,,,,,,,,,,,,,,,,,,,,,
0,38,38,78,1,,5ef211cba33a988a6311bc67,62c539ef3ede2ab943e36d3f,2022-07-06_09h30.04.544,Colour_Asymmetry_Pilot,2022.1.3,Win32,59.29791271,62c50e9c1127f2cd403a315f,,,,,,,,,,,,,,,,,,,,,,,,,,,,,,,,,,,,,,,,,,,,,,,,,,,,,,,,,,,,,,,,,,,,,,,,,,,,,,,,,,,,,,,,,,,,,,,,,,,,,,,,,,,,,,,,,,,,,,,,,,,,,,,,,,,,,,,,,,,,,,,,,,,,,,,,,,,,,,,,,,,
0,39,39,61,1,,5ef211cba33a988a6311bc67,62c539ef3ede2ab943e36d3f,2022-07-06_09h30.04.544,Colour_Asymmetry_Pilot,2022.1.3,Win32,59.29791271,62c50e9c1127f2cd403a315f,,,,,,,,,,,,,,,,,,,,,,,,,,,,,,,,,,,,,,,,,,,,,,,,,,,,,,,,,,,,,,,,,,,,,,,,,,,,,,,,,,,,,,,,,,,,,,,,,,,,,,,,,,,,,,,,,,,,,,,,,,,,,,,,,,,,,,,,,,,,,,,,,,,,,,,,,,,,,,,,,,,
0,40,40,43,1,,5ef211cba33a988a6311bc67,62c539ef3ede2ab943e36d3f,2022-07-06_09h30.04.544,Colour_Asymmetry_Pilot,2022.1.3,Win32,59.29791271,62c50e9c1127f2cd403a315f,,,,,,,,,,,,,,,,,,,,,,,,,,,,,,,,,,,,,,,,,,,,,,,,,,,,,,,,,,,,,,,,,,,,,,,,,,,,,,,,,,,,,,,,,,,,,,,,,,,,,,,,,,,,,,,,,,,,,,,,,,,,,,,,,,,,,,,,,,,,,,,,,,,,,,,,,,,,,,,,,,,
0,41,41,27,1,,5ef211cba33a988a6311bc67,62c539ef3ede2ab943e36d3f,2022-07-06_09h30.04.544,Colour_Asymmetry_Pilot,2022.1.3,Win32,59.29791271,62c50e9c1127f2cd403a315f,,,,,,,,,,,,,,,,,,,,,,,,,,,,,,,,,,,,,,,,,,,,,,,,,,,,,,,,,,,,,,,,,,,,,,,,,,,,,,,,,,,,,,,,,,,,,,,,,,,,,,,,,,,,,,,,,,,,,,,,,,,,,,,,,,,,,,,,,,,,,,,,,,,,,,,,,,,,,,,,,,,
0,42,42,62,1,,5ef211cba33a988a6311bc67,62c539ef3ede2ab943e36d3f,2022-07-06_09h30.04.544,Colour_Asymmetry_Pilot,2022.1.3,Win32,59.29791271,62c50e9c1127f2cd403a315f,,,,,,,,,,,,,,,,,,,,,,,,,,,,,,,,,,,,,,,,,,,,,,,,,,,,,,,,,,,,,,,,,,,,,,,,,,,,,,,,,,,,,,,,,,,,,,,,,,,,,,,,,,,,,,,,,,,,,,,,,,,,,,,,,,,,,,,,,,,,,,,,,,,,,,,,,,,,,,,,,,,
0,43,43,56,1,,5ef211cba33a988a6311bc67,62c539ef3ede2ab943e36d3f,2022-07-06_09h30.04.544,Colour_Asymmetry_Pilot,2022.1.3,Win32,59.29791271,62c50e9c1127f2cd403a315f,,,,,,,,,,,,,,,,,,,,,,,,,,,,,,,,,,,,,,,,,,,,,,,,,,,,,,,,,,,,,,,,,,,,,,,,,,,,,,,,,,,,,,,,,,,,,,,,,,,,,,,,,,,,,,,,,,,,,,,,,,,,,,,,,,,,,,,,,,,,,,,,,,,,,,,,,,,,,,,,,,,
0,44,44,7,1,,5ef211cba33a988a6311bc67,62c539ef3ede2ab943e36d3f,2022-07-06_09h30.04.544,Colour_Asymmetry_Pilot,2022.1.3,Win32,59.29791271,62c50e9c1127f2cd403a315f,,,,,,,,,,,,,,,,,,,,,,,,,,,,,,,,,,,,,,,,,,,,,,,,,,,,,,,,,,,,,,,,,,,,,,,,,,,,,,,,,,,,,,,,,,,,,,,,,,,,,,,,,,,,,,,,,,,,,,,,,,,,,,,,,,,,,,,,,,,,,,,,,,,,,,,,,,,,,,,,,,,
0,45,45,60,1,,5ef211cba33a988a6311bc67,62c539ef3ede2ab943e36d3f,2022-07-06_09h30.04.544,Colour_Asymmetry_Pilot,2022.1.3,Win32,59.29791271,62c50e9c1127f2cd403a315f,,,,,,,,,,,,,,,,,,,,,,,,,,,,,,,,,,,,,,,,,,,,,,,,,,,,,,,,,,,,,,,,,,,,,,,,,,,,,,,,,,,,,,,,,,,,,,,,,,,,,,,,,,,,,,,,,,,,,,,,,,,,,,,,,,,,,,,,,,,,,,,,,,,,,,,,,,,,,,,,,,,
0,46,46,91,1,,5ef211cba33a988a6311bc67,62c539ef3ede2ab943e36d3f,2022-07-06_09h30.04.544,Colour_Asymmetry_Pilot,2022.1.3,Win32,59.29791271,62c50e9c1127f2cd403a315f,,,,,,,,,,,,,,,,,,,,,,,,,,,,,,,,,,,,,,,,,,,,,,,,,,,,,,,,,,,,,,,,,,,,,,,,,,,,,,,,,,,,,,,,,,,,,,,,,,,,,,,,,,,,,,,,,,,,,,,,,,,,,,,,,,,,,,,,,,,,,,,,,,,,,,,,,,,,,,,,,,,
0,47,47,35,1,,5ef211cba33a988a6311bc67,62c539ef3ede2ab943e36d3f,2022-07-06_09h30.04.544,Colour_Asymmetry_Pilot,2022.1.3,Win32,59.29791271,62c50e9c1127f2cd403a315f,,,,,,,,,,,,,,,,,,,,,,,,,,,,,,,,,,,,,,,,,,,,,,,,,,,,,,,,,,,,,,,,,,,,,,,,,,,,,,,,,,,,,,,,,,,,,,,,,,,,,,,,,,,,,,,,,,,,,,,,,,,,,,,,,,,,,,,,,,,,,,,,,,,,,,,,,,,,,,,,,,,
0,48,48,65,1,,5ef211cba33a988a6311bc67,62c539ef3ede2ab943e36d3f,2022-07-06_09h30.04.544,Colour_Asymmetry_Pilot,2022.1.3,Win32,59.29791271,62c50e9c1127f2cd403a315f,,,,,,,,,,,,,,,,,,,,,,,,,,,,,,,,,,,,,,,,,,,,,,,,,,,,,,,,,,,,,,,,,,,,,,,,,,,,,,,,,,,,,,,,,,,,,,,,,,,,,,,,,,,,,,,,,,,,,,,,,,,,,,,,,,,,,,,,,,,,,,,,,,,,,,,,,,,,,,,,,,,
0,49,49,30,1,,5ef211cba33a988a6311bc67,62c539ef3ede2ab943e36d3f,2022-07-06_09h30.04.544,Colour_Asymmetry_Pilot,2022.1.3,Win32,59.29791271,62c50e9c1127f2cd403a315f,,,,,,,,,,,,,,,,,,,,,,,,,,,,,,,,,,,,,,,,,,,,,,,,,,,,,,,,,,,,,,,,,,,,,,,,,,,,,,,,,,,,,,,,,,,,,,,,,,,,,,,,,,,,,,,,,,,,,,,,,,,,,,,,,,,,,,,,,,,,,,,,,,,,,,,,,,,,,,,,,,,
0,50,50,34,1,,5ef211cba33a988a6311bc67,62c539ef3ede2ab943e36d3f,2022-07-06_09h30.04.544,Colour_Asymmetry_Pilot,2022.1.3,Win32,59.29791271,62c50e9c1127f2cd403a315f,,,,,,,,,,,,,,,,,,,,,,,,,,,,,,,,,,,,,,,,,,,,,,,,,,,,,,,,,,,,,,,,,,,,,,,,,,,,,,,,,,,,,,,,,,,,,,,,,,,,,,,,,,,,,,,,,,,,,,,,,,,,,,,,,,,,,,,,,,,,,,,,,,,,,,,,,,,,,,,,,,,
0,51,51,59,1,,5ef211cba33a988a6311bc67,62c539ef3ede2ab943e36d3f,2022-07-06_09h30.04.544,Colour_Asymmetry_Pilot,2022.1.3,Win32,59.29791271,62c50e9c1127f2cd403a315f,,,,,,,,,,,,,,,,,,,,,,,,,,,,,,,,,,,,,,,,,,,,,,,,,,,,,,,,,,,,,,,,,,,,,,,,,,,,,,,,,,,,,,,,,,,,,,,,,,,,,,,,,,,,,,,,,,,,,,,,,,,,,,,,,,,,,,,,,,,,,,,,,,,,,,,,,,,,,,,,,,,
0,52,52,74,1,,5ef211cba33a988a6311bc67,62c539ef3ede2ab943e36d3f,2022-07-06_09h30.04.544,Colour_Asymmetry_Pilot,2022.1.3,Win32,59.29791271,62c50e9c1127f2cd403a315f,,,,,,,,,,,,,,,,,,,,,,,,,,,,,,,,,,,,,,,,,,,,,,,,,,,,,,,,,,,,,,,,,,,,,,,,,,,,,,,,,,,,,,,,,,,,,,,,,,,,,,,,,,,,,,,,,,,,,,,,,,,,,,,,,,,,,,,,,,,,,,,,,,,,,,,,,,,,,,,,,,,
0,53,53,14,1,,5ef211cba33a988a6311bc67,62c539ef3ede2ab943e36d3f,2022-07-06_09h30.04.544,Colour_Asymmetry_Pilot,2022.1.3,Win32,59.29791271,62c50e9c1127f2cd403a315f,,,,,,,,,,,,,,,,,,,,,,,,,,,,,,,,,,,,,,,,,,,,,,,,,,,,,,,,,,,,,,,,,,,,,,,,,,,,,,,,,,,,,,,,,,,,,,,,,,,,,,,,,,,,,,,,,,,,,,,,,,,,,,,,,,,,,,,,,,,,,,,,,,,,,,,,,,,,,,,,,,,
0,54,54,17,1,,5ef211cba33a988a6311bc67,62c539ef3ede2ab943e36d3f,2022-07-06_09h30.04.544,Colour_Asymmetry_Pilot,2022.1.3,Win32,59.29791271,62c50e9c1127f2cd403a315f,,,,,,,,,,,,,,,,,,,,,,,,,,,,,,,,,,,,,,,,,,,,,,,,,,,,,,,,,,,,,,,,,,,,,,,,,,,,,,,,,,,,,,,,,,,,,,,,,,,,,,,,,,,,,,,,,,,,,,,,,,,,,,,,,,,,,,,,,,,,,,,,,,,,,,,,,,,,,,,,,,,
0,55,55,8,1,,5ef211cba33a988a6311bc67,62c539ef3ede2ab943e36d3f,2022-07-06_09h30.04.544,Colour_Asymmetry_Pilot,2022.1.3,Win32,59.29791271,62c50e9c1127f2cd403a315f,,,,,,,,,,,,,,,,,,,,,,,,,,,,,,,,,,,,,,,,,,,,,,,,,,,,,,,,,,,,,,,,,,,,,,,,,,,,,,,,,,,,,,,,,,,,,,,,,,,,,,,,,,,,,,,,,,,,,,,,,,,,,,,,,,,,,,,,,,,,,,,,,,,,,,,,,,,,,,,,,,,
0,56,56,76,1,,5ef211cba33a988a6311bc67,62c539ef3ede2ab943e36d3f,2022-07-06_09h30.04.544,Colour_Asymmetry_Pilot,2022.1.3,Win32,59.29791271,62c50e9c1127f2cd403a315f,,,,,,,,,,,,,,,,,,,,,,,,,,,,,,,,,,,,,,,,,,,,,,,,,,,,,,,,,,,,,,,,,,,,,,,,,,,,,,,,,,,,,,,,,,,,,,,,,,,,,,,,,,,,,,,,,,,,,,,,,,,,,,,,,,,,,,,,,,,,,,,,,,,,,,,,,,,,,,,,,,,
0,57,57,38,1,,5ef211cba33a988a6311bc67,62c539ef3ede2ab943e36d3f,2022-07-06_09h30.04.544,Colour_Asymmetry_Pilot,2022.1.3,Win32,59.29791271,62c50e9c1127f2cd403a315f,,,,,,,,,,,,,,,,,,,,,,,,,,,,,,,,,,,,,,,,,,,,,,,,,,,,,,,,,,,,,,,,,,,,,,,,,,,,,,,,,,,,,,,,,,,,,,,,,,,,,,,,,,,,,,,,,,,,,,,,,,,,,,,,,,,,,,,,,,,,,,,,,,,,,,,,,,,,,,,,,,,
0,58,58,40,1,,5ef211cba33a988a6311bc67,62c539ef3ede2ab943e36d3f,2022-07-06_09h30.04.544,Colour_Asymmetry_Pilot,2022.1.3,Win32,59.29791271,62c50e9c1127f2cd403a315f,,,,,,,,,,,,,,,,,,,,,,,,,,,,,,,,,,,,,,,,,,,,,,,,,,,,,,,,,,,,,,,,,,,,,,,,,,,,,,,,,,,,,,,,,,,,,,,,,,,,,,,,,,,,,,,,,,,,,,,,,,,,,,,,,,,,,,,,,,,,,,,,,,,,,,,,,,,,,,,,,,,
0,59,59,44,1,,5ef211cba33a988a6311bc67,62c539ef3ede2ab943e36d3f,2022-07-06_09h30.04.544,Colour_Asymmetry_Pilot,2022.1.3,Win32,59.29791271,62c50e9c1127f2cd403a315f,,,,,,,,,,,,,,,,,,,,,,,,,,,,,,,,,,,,,,,,,,,,,,,,,,,,,,,,,,,,,,,,,,,,,,,,,,,,,,,,,,,,,,,,,,,,,,,,,,,,,,,,,,,,,,,,,,,,,,,,,,,,,,,,,,,,,,,,,,,,,,,,,,,,,,,,,,,,,,,,,,,
0,60,60,80,1,,5ef211cba33a988a6311bc67,62c539ef3ede2ab943e36d3f,2022-07-06_09h30.04.544,Colour_Asymmetry_Pilot,2022.1.3,Win32,59.29791271,62c50e9c1127f2cd403a315f,,,,,,,,,,,,,,,,,,,,,,,,,,,,,,,,,,,,,,,,,,,,,,,,,,,,,,,,,,,,,,,,,,,,,,,,,,,,,,,,,,,,,,,,,,,,,,,,,,,,,,,,,,,,,,,,,,,,,,,,,,,,,,,,,,,,,,,,,,,,,,,,,,,,,,,,,,,,,,,,,,,
0,61,61,81,1,,5ef211cba33a988a6311bc67,62c539ef3ede2ab943e36d3f,2022-07-06_09h30.04.544,Colour_Asymmetry_Pilot,2022.1.3,Win32,59.29791271,62c50e9c1127f2cd403a315f,,,,,,,,,,,,,,,,,,,,,,,,,,,,,,,,,,,,,,,,,,,,,,,,,,,,,,,,,,,,,,,,,,,,,,,,,,,,,,,,,,,,,,,,,,,,,,,,,,,,,,,,,,,,,,,,,,,,,,,,,,,,,,,,,,,,,,,,,,,,,,,,,,,,,,,,,,,,,,,,,,,
0,62,62,25,1,,5ef211cba33a988a6311bc67,62c539ef3ede2ab943e36d3f,2022-07-06_09h30.04.544,Colour_Asymmetry_Pilot,2022.1.3,Win32,59.29791271,62c50e9c1127f2cd403a315f,,,,,,,,,,,,,,,,,,,,,,,,,,,,,,,,,,,,,,,,,,,,,,,,,,,,,,,,,,,,,,,,,,,,,,,,,,,,,,,,,,,,,,,,,,,,,,,,,,,,,,,,,,,,,,,,,,,,,,,,,,,,,,,,,,,,,,,,,,,,,,,,,,,,,,,,,,,,,,,,,,,
0,63,63,50,1,,5ef211cba33a988a6311bc67,62c539ef3ede2ab943e36d3f,2022-07-06_09h30.04.544,Colour_Asymmetry_Pilot,2022.1.3,Win32,59.29791271,62c50e9c1127f2cd403a315f,,,,,,,,,,,,,,,,,,,,,,,,,,,,,,,,,,,,,,,,,,,,,,,,,,,,,,,,,,,,,,,,,,,,,,,,,,,,,,,,,,,,,,,,,,,,,,,,,,,,,,,,,,,,,,,,,,,,,,,,,,,,,,,,,,,,,,,,,,,,,,,,,,,,,,,,,,,,,,,,,,,
0,64,64,71,1,,5ef211cba33a988a6311bc67,62c539ef3ede2ab943e36d3f,2022-07-06_09h30.04.544,Colour_Asymmetry_Pilot,2022.1.3,Win32,59.29791271,62c50e9c1127f2cd403a315f,,,,,,,,,,,,,,,,,,,,,,,,,,,,,,,,,,,,,,,,,,,,,,,,,,,,,,,,,,,,,,,,,,,,,,,,,,,,,,,,,,,,,,,,,,,,,,,,,,,,,,,,,,,,,,,,,,,,,,,,,,,,,,,,,,,,,,,,,,,,,,,,,,,,,,,,,,,,,,,,,,,
0,65,65,21,1,,5ef211cba33a988a6311bc67,62c539ef3ede2ab943e36d3f,2022-07-06_09h30.04.544,Colour_Asymmetry_Pilot,2022.1.3,Win32,59.29791271,62c50e9c1127f2cd403a315f,,,,,,,,,,,,,,,,,,,,,,,,,,,,,,,,,,,,,,,,,,,,,,,,,,,,,,,,,,,,,,,,,,,,,,,,,,,,,,,,,,,,,,,,,,,,,,,,,,,,,,,,,,,,,,,,,,,,,,,,,,,,,,,,,,,,,,,,,,,,,,,,,,,,,,,,,,,,,,,,,,,
0,66,66,2,1,,5ef211cba33a988a6311bc67,62c539ef3ede2ab943e36d3f,2022-07-06_09h30.04.544,Colour_Asymmetry_Pilot,2022.1.3,Win32,59.29791271,62c50e9c1127f2cd403a315f,,,,,,,,,,,,,,,,,,,,,,,,,,,,,,,,,,,,,,,,,,,,,,,,,,,,,,,,,,,,,,,,,,,,,,,,,,,,,,,,,,,,,,,,,,,,,,,,,,,,,,,,,,,,,,,,,,,,,,,,,,,,,,,,,,,,,,,,,,,,,,,,,,,,,,,,,,,,,,,,,,,
0,67,67,3,1,,5ef211cba33a988a6311bc67,62c539ef3ede2ab943e36d3f,2022-07-06_09h30.04.544,Colour_Asymmetry_Pilot,2022.1.3,Win32,59.29791271,62c50e9c1127f2cd403a315f,,,,,,,,,,,,,,,,,,,,,,,,,,,,,,,,,,,,,,,,,,,,,,,,,,,,,,,,,,,,,,,,,,,,,,,,,,,,,,,,,,,,,,,,,,,,,,,,,,,,,,,,,,,,,,,,,,,,,,,,,,,,,,,,,,,,,,,,,,,,,,,,,,,,,,,,,,,,,,,,,,,
0,68,68,1,1,,5ef211cba33a988a6311bc67,62c539ef3ede2ab943e36d3f,2022-07-06_09h30.04.544,Colour_Asymmetry_Pilot,2022.1.3,Win32,59.29791271,62c50e9c1127f2cd403a315f,,,,,,,,,,,,,,,,,,,,,,,,,,,,,,,,,,,,,,,,,,,,,,,,,,,,,,,,,,,,,,,,,,,,,,,,,,,,,,,,,,,,,,,,,,,,,,,,,,,,,,,,,,,,,,,,,,,,,,,,,,,,,,,,,,,,,,,,,,,,,,,,,,,,,,,,,,,,,,,,,,,
0,69,69,92,1,,5ef211cba33a988a6311bc67,62c539ef3ede2ab943e36d3f,2022-07-06_09h30.04.544,Colour_Asymmetry_Pilot,2022.1.3,Win32,59.29791271,62c50e9c1127f2cd403a315f,,,,,,,,,,,,,,,,,,,,,,,,,,,,,,,,,,,,,,,,,,,,,,,,,,,,,,,,,,,,,,,,,,,,,,,,,,,,,,,,,,,,,,,,,,,,,,,,,,,,,,,,,,,,,,,,,,,,,,,,,,,,,,,,,,,,,,,,,,,,,,,,,,,,,,,,,,,,,,,,,,,
0,70,70,54,1,,5ef211cba33a988a6311bc67,62c539ef3ede2ab943e36d3f,2022-07-06_09h30.04.544,Colour_Asymmetry_Pilot,2022.1.3,Win32,59.29791271,62c50e9c1127f2cd403a315f,,,,,,,,,,,,,,,,,,,,,,,,,,,,,,,,,,,,,,,,,,,,,,,,,,,,,,,,,,,,,,,,,,,,,,,,,,,,,,,,,,,,,,,,,,,,,,,,,,,,,,,,,,,,,,,,,,,,,,,,,,,,,,,,,,,,,,,,,,,,,,,,,,,,,,,,,,,,,,,,,,,
0,71,71,29,1,,5ef211cba33a988a6311bc67,62c539ef3ede2ab943e36d3f,2022-07-06_09h30.04.544,Colour_Asymmetry_Pilot,2022.1.3,Win32,59.29791271,62c50e9c1127f2cd403a315f,,,,,,,,,,,,,,,,,,,,,,,,,,,,,,,,,,,,,,,,,,,,,,,,,,,,,,,,,,,,,,,,,,,,,,,,,,,,,,,,,,,,,,,,,,,,,,,,,,,,,,,,,,,,,,,,,,,,,,,,,,,,,,,,,,,,,,,,,,,,,,,,,,,,,,,,,,,,,,,,,,,
0,72,72,22,1,,5ef211cba33a988a6311bc67,62c539ef3ede2ab943e36d3f,2022-07-06_09h30.04.544,Colour_Asymmetry_Pilot,2022.1.3,Win32,59.29791271,62c50e9c1127f2cd403a315f,,,,,,,,,,,,,,,,,,,,,,,,,,,,,,,,,,,,,,,,,,,,,,,,,,,,,,,,,,,,,,,,,,,,,,,,,,,,,,,,,,,,,,,,,,,,,,,,,,,,,,,,,,,,,,,,,,,,,,,,,,,,,,,,,,,,,,,,,,,,,,,,,,,,,,,,,,,,,,,,,,,
0,73,73,24,1,,5ef211cba33a988a6311bc67,62c539ef3ede2ab943e36d3f,2022-07-06_09h30.04.544,Colour_Asymmetry_Pilot,2022.1.3,Win32,59.29791271,62c50e9c1127f2cd403a315f,,,,,,,,,,,,,,,,,,,,,,,,,,,,,,,,,,,,,,,,,,,,,,,,,,,,,,,,,,,,,,,,,,,,,,,,,,,,,,,,,,,,,,,,,,,,,,,,,,,,,,,,,,,,,,,,,,,,,,,,,,,,,,,,,,,,,,,,,,,,,,,,,,,,,,,,,,,,,,,,,,,
0,74,74,39,1,,5ef211cba33a988a6311bc67,62c539ef3ede2ab943e36d3f,2022-07-06_09h30.04.544,Colour_Asymmetry_Pilot,2022.1.3,Win32,59.29791271,62c50e9c1127f2cd403a315f,,,,,,,,,,,,,,,,,,,,,,,,,,,,,,,,,,,,,,,,,,,,,,,,,,,,,,,,,,,,,,,,,,,,,,,,,,,,,,,,,,,,,,,,,,,,,,,,,,,,,,,,,,,,,,,,,,,,,,,,,,,,,,,,,,,,,,,,,,,,,,,,,,,,,,,,,,,,,,,,,,,
0,75,75,57,1,,5ef211cba33a988a6311bc67,62c539ef3ede2ab943e36d3f,2022-07-06_09h30.04.544,Colour_Asymmetry_Pilot,2022.1.3,Win32,59.29791271,62c50e9c1127f2cd403a315f,,,,,,,,,,,,,,,,,,,,,,,,,,,,,,,,,,,,,,,,,,,,,,,,,,,,,,,,,,,,,,,,,,,,,,,,,,,,,,,,,,,,,,,,,,,,,,,,,,,,,,,,,,,,,,,,,,,,,,,,,,,,,,,,,,,,,,,,,,,,,,,,,,,,,,,,,,,,,,,,,,,
0,76,76,55,1,,5ef211cba33a988a6311bc67,62c539ef3ede2ab943e36d3f,2022-07-06_09h30.04.544,Colour_Asymmetry_Pilot,2022.1.3,Win32,59.29791271,62c50e9c1127f2cd403a315f,,,,,,,,,,,,,,,,,,,,,,,,,,,,,,,,,,,,,,,,,,,,,,,,,,,,,,,,,,,,,,,,,,,,,,,,,,,,,,,,,,,,,,,,,,,,,,,,,,,,,,,,,,,,,,,,,,,,,,,,,,,,,,,,,,,,,,,,,,,,,,,,,,,,,,,,,,,,,,,,,,,
0,77,77,4,1,,5ef211cba33a988a6311bc67,62c539ef3ede2ab943e36d3f,2022-07-06_09h30.04.544,Colour_Asymmetry_Pilot,2022.1.3,Win32,59.29791271,62c50e9c1127f2cd403a315f,,,,,,,,,,,,,,,,,,,,,,,,,,,,,,,,,,,,,,,,,,,,,,,,,,,,,,,,,,,,,,,,,,,,,,,,,,,,,,,,,,,,,,,,,,,,,,,,,,,,,,,,,,,,,,,,,,,,,,,,,,,,,,,,,,,,,,,,,,,,,,,,,,,,,,,,,,,,,,,,,,,
0,78,78,15,1,,5ef211cba33a988a6311bc67,62c539ef3ede2ab943e36d3f,2022-07-06_09h30.04.544,Colour_Asymmetry_Pilot,2022.1.3,Win32,59.29791271,62c50e9c1127f2cd403a315f,,,,,,,,,,,,,,,,,,,,,,,,,,,,,,,,,,,,,,,,,,,,,,,,,,,,,,,,,,,,,,,,,,,,,,,,,,,,,,,,,,,,,,,,,,,,,,,,,,,,,,,,,,,,,,,,,,,,,,,,,,,,,,,,,,,,,,,,,,,,,,,,,,,,,,,,,,,,,,,,,,,
0,79,79,48,1,,5ef211cba33a988a6311bc67,62c539ef3ede2ab943e36d3f,2022-07-06_09h30.04.544,Colour_Asymmetry_Pilot,2022.1.3,Win32,59.29791271,62c50e9c1127f2cd403a315f,,,,,,,,,,,,,,,,,,,,,,,,,,,,,,,,,,,,,,,,,,,,,,,,,,,,,,,,,,,,,,,,,,,,,,,,,,,,,,,,,,,,,,,,,,,,,,,,,,,,,,,,,,,,,,,,,,,,,,,,,,,,,,,,,,,,,,,,,,,,,,,,,,,,,,,,,,,,,,,,,,,
0,80,80,68,1,,5ef211cba33a988a6311bc67,62c539ef3ede2ab943e36d3f,2022-07-06_09h30.04.544,Colour_Asymmetry_Pilot,2022.1.3,Win32,59.29791271,62c50e9c1127f2cd403a315f,,,,,,,,,,,,,,,,,,,,,,,,,,,,,,,,,,,,,,,,,,,,,,,,,,,,,,,,,,,,,,,,,,,,,,,,,,,,,,,,,,,,,,,,,,,,,,,,,,,,,,,,,,,,,,,,,,,,,,,,,,,,,,,,,,,,,,,,,,,,,,,,,,,,,,,,,,,,,,,,,,,
0,81,81,16,1,,5ef211cba33a988a6311bc67,62c539ef3ede2ab943e36d3f,2022-07-06_09h30.04.544,Colour_Asymmetry_Pilot,2022.1.3,Win32,59.29791271,62c50e9c1127f2cd403a315f,,,,,,,,,,,,,,,,,,,,,,,,,,,,,,,,,,,,,,,,,,,,,,,,,,,,,,,,,,,,,,,,,,,,,,,,,,,,,,,,,,,,,,,,,,,,,,,,,,,,,,,,,,,,,,,,,,,,,,,,,,,,,,,,,,,,,,,,,,,,,,,,,,,,,,,,,,,,,,,,,,,
0,82,82,77,1,,5ef211cba33a988a6311bc67,62c539ef3ede2ab943e36d3f,2022-07-06_09h30.04.544,Colour_Asymmetry_Pilot,2022.1.3,Win32,59.29791271,62c50e9c1127f2cd403a315f,,,,,,,,,,,,,,,,,,,,,,,,,,,,,,,,,,,,,,,,,,,,,,,,,,,,,,,,,,,,,,,,,,,,,,,,,,,,,,,,,,,,,,,,,,,,,,,,,,,,,,,,,,,,,,,,,,,,,,,,,,,,,,,,,,,,,,,,,,,,,,,,,,,,,,,,,,,,,,,,,,,
0,83,83,84,1,,5ef211cba33a988a6311bc67,62c539ef3ede2ab943e36d3f,2022-07-06_09h30.04.544,Colour_Asymmetry_Pilot,2022.1.3,Win32,59.29791271,62c50e9c1127f2cd403a315f,,,,,,,,,,,,,,,,,,,,,,,,,,,,,,,,,,,,,,,,,,,,,,,,,,,,,,,,,,,,,,,,,,,,,,,,,,,,,,,,,,,,,,,,,,,,,,,,,,,,,,,,,,,,,,,,,,,,,,,,,,,,,,,,,,,,,,,,,,,,,,,,,,,,,,,,,,,,,,,,,,,
0,84,84,51,1,,5ef211cba33a988a6311bc67,62c539ef3ede2ab943e36d3f,2022-07-06_09h30.04.544,Colour_Asymmetry_Pilot,2022.1.3,Win32,59.29791271,62c50e9c1127f2cd403a315f,,,,,,,,,,,,,,,,,,,,,,,,,,,,,,,,,,,,,,,,,,,,,,,,,,,,,,,,,,,,,,,,,,,,,,,,,,,,,,,,,,,,,,,,,,,,,,,,,,,,,,,,,,,,,,,,,,,,,,,,,,,,,,,,,,,,,,,,,,,,,,,,,,,,,,,,,,,,,,,,,,,
0,85,85,23,1,,5ef211cba33a988a6311bc67,62c539ef3ede2ab943e36d3f,2022-07-06_09h30.04.544,Colour_Asymmetry_Pilot,2022.1.3,Win32,59.29791271,62c50e9c1127f2cd403a315f,,,,,,,,,,,,,,,,,,,,,,,,,,,,,,,,,,,,,,,,,,,,,,,,,,,,,,,,,,,,,,,,,,,,,,,,,,,,,,,,,,,,,,,,,,,,,,,,,,,,,,,,,,,,,,,,,,,,,,,,,,,,,,,,,,,,,,,,,,,,,,,,,,,,,,,,,,,,,,,,,,,
0,86,86,9,1,,5ef211cba33a988a6311bc67,62c539ef3ede2ab943e36d3f,2022-07-06_09h30.04.544,Colour_Asymmetry_Pilot,2022.1.3,Win32,59.29791271,62c50e9c1127f2cd403a315f,,,,,,,,,,,,,,,,,,,,,,,,,,,,,,,,,,,,,,,,,,,,,,,,,,,,,,,,,,,,,,,,,,,,,,,,,,,,,,,,,,,,,,,,,,,,,,,,,,,,,,,,,,,,,,,,,,,,,,,,,,,,,,,,,,,,,,,,,,,,,,,,,,,,,,,,,,,,,,,,,,,
0,87,87,42,1,,5ef211cba33a988a6311bc67,62c539ef3ede2ab943e36d3f,2022-07-06_09h30.04.544,Colour_Asymmetry_Pilot,2022.1.3,Win32,59.29791271,62c50e9c1127f2cd403a315f,,,,,,,,,,,,,,,,,,,,,,,,,,,,,,,,,,,,,,,,,,,,,,,,,,,,,,,,,,,,,,,,,,,,,,,,,,,,,,,,,,,,,,,,,,,,,,,,,,,,,,,,,,,,,,,,,,,,,,,,,,,,,,,,,,,,,,,,,,,,,,,,,,,,,,,,,,,,,,,,,,,
0,88,88,26,1,,5ef211cba33a988a6311bc67,62c539ef3ede2ab943e36d3f,2022-07-06_09h30.04.544,Colour_Asymmetry_Pilot,2022.1.3,Win32,59.29791271,62c50e9c1127f2cd403a315f,,,,,,,,,,,,,,,,,,,,,,,,,,,,,,,,,,,,,,,,,,,,,,,,,,,,,,,,,,,,,,,,,,,,,,,,,,,,,,,,,,,,,,,,,,,,,,,,,,,,,,,,,,,,,,,,,,,,,,,,,,,,,,,,,,,,,,,,,,,,,,,,,,,,,,,,,,,,,,,,,,,
0,89,89,86,1,,5ef211cba33a988a6311bc67,62c539ef3ede2ab943e36d3f,2022-07-06_09h30.04.544,Colour_Asymmetry_Pilot,2022.1.3,Win32,59.29791271,62c50e9c1127f2cd403a315f,,,,,,,,,,,,,,,,,,,,,,,,,,,,,,,,,,,,,,,,,,,,,,,,,,,,,,,,,,,,,,,,,,,,,,,,,,,,,,,,,,,,,,,,,,,,,,,,,,,,,,,,,,,,,,,,,,,,,,,,,,,,,,,,,,,,,,,,,,,,,,,,,,,,,,,,,,,,,,,,,,,
0,90,90,67,1,,5ef211cba33a988a6311bc67,62c539ef3ede2ab943e36d3f,2022-07-06_09h30.04.544,Colour_Asymmetry_Pilot,2022.1.3,Win32,59.29791271,62c50e9c1127f2cd403a315f,,,,,,,,,,,,,,,,,,,,,,,,,,,,,,,,,,,,,,,,,,,,,,,,,,,,,,,,,,,,,,,,,,,,,,,,,,,,,,,,,,,,,,,,,,,,,,,,,,,,,,,,,,,,,,,,,,,,,,,,,,,,,,,,,,,,,,,,,,,,,,,,,,,,,,,,,,,,,,,,,,,
0,91,91,64,1,,5ef211cba33a988a6311bc67,62c539ef3ede2ab943e36d3f,2022-07-06_09h30.04.544,Colour_Asymmetry_Pilot,2022.1.3,Win32,59.29791271,62c50e9c1127f2cd403a315f,,,,,,,,,,,,,,,,,,,,,,,,,,,,,,,,,,,,,,,,,,,,,,,,,,,,,,,,,,,,,,,,,,,,,,,,,,,,,,,,,,,,,,,,,,,,,,,,,,,,,,,,,,,,,,,,,,,,,,,,,,,,,,,,,,,,,,,,,,,,,,,,,,,,,,,,,,,,,,,,,,,
0,92,92,63,1,,5ef211cba33a988a6311bc67,62c539ef3ede2ab943e36d3f,2022-07-06_09h30.04.544,Colour_Asymmetry_Pilot,2022.1.3,Win32,59.29791271,62c50e9c1127f2cd403a315f,,,,,,,,,,,,,,,,,,,,,,,,,,,,,,,,,,,,,,,,,,,,,,,,,,,,,,,,,,,,,,,,,,,,,,,,,,,,,,,,,,,,,,,,,,,,,,,,,,,,,,,,,,,,,,,,,,,,,,,,,,,,,,,,,,,,,,,,,,,,,,,,,,,,,,,,,,,,,,,,,,,
,,,,,,5ef211cba33a988a6311bc67,62c539ef3ede2ab943e36d3f,2022-07-06_09h30.04.544,Colour_Asymmetry_Pilot,2022.1.3,Win32,59.29791271,62c50e9c1127f2cd403a315f,0,0,0,27,1,twofour,,,,,,,,,,,,,,,,,,,,,,,,,,,,,,,,,,,,,,,,,,,,,,,,,,,,,,,,,,,,,,,,,,,,,,,,,,,,,,,,,,,,,,,,,,,,,,,,,,,,,,,,,,,,,,,,,,,,,,,,,,,,,,,,,,,,,,,,,,,,,,,,,,,,,,,,,,,,,
,,,,,,5ef211cba33a988a6311bc67,62c539ef3ede2ab943e36d3f,2022-07-06_09h30.04.544,Colour_Asymmetry_Pilot,2022.1.3,Win32,59.29791271,62c50e9c1127f2cd403a315f,0,1,1,150,1,fourtwo,,,,,,,,,,,,,,,,,,,,,,,,,,,,,,,,,,,,,,,,,,,,,,,,,,,,,,,,,,,,,,,,,,,,,,,,,,,,,,,,,,,,,,,,,,,,,,,,,,,,,,,,,,,,,,,,,,,,,,,,,,,,,,,,,,,,,,,,,,,,,,,,,,,,,,,,,,,,,
,,,,,,5ef211cba33a988a6311bc67,62c539ef3ede2ab943e36d3f,2022-07-06_09h30.04.544,Colour_Asymmetry_Pilot,2022.1.3,Win32,59.29791271,62c50e9c1127f2cd403a315f,0,2,2,52,1,threeone,,,,,,,,,,,,,,,,,,,,,,,,,,,,,,,,,,,,,,,,,,,,,,,,,,,,,,,,,,,,,,,,,,,,,,,,,,,,,,,,,,,,,,,,,,,,,,,,,,,,,,,,,,,,,,,,,,,,,,,,,,,,,,,,,,,,,,,,,,,,,,,,,,,,,,,,,,,,,
,,,,,,5ef211cba33a988a6311bc67,62c539ef3ede2ab943e36d3f,2022-07-06_09h30.04.544,Colour_Asymmetry_Pilot,2022.1.3,Win32,59.29791271,62c50e9c1127f2cd403a315f,0,3,3,6,1,fourtwo,,,,,,,,,,,,,,,,,,,,,,,,,,,,,,,,,,,,,,,,,,,,,,,,,,,,,,,,,,,,,,,,,,,,,,,,,,,,,,,,,,,,,,,,,,,,,,,,,,,,,,,,,,,,,,,,,,,,,,,,,,,,,,,,,,,,,,,,,,,,,,,,,,,,,,,,,,,,,
,,,,,,5ef211cba33a988a6311bc67,62c539ef3ede2ab943e36d3f,2022-07-06_09h30.04.544,Colour_Asymmetry_Pilot,2022.1.3,Win32,59.29791271,62c50e9c1127f2cd403a315f,0,4,4,138,1,twoone,,,,,,,,,,,,,,,,,,,,,,,,,,,,,,,,,,,,,,,,,,,,,,,,,,,,,,,,,,,,,,,,,,,,,,,,,,,,,,,,,,,,,,,,,,,,,,,,,,,,,,,,,,,,,,,,,,,,,,,,,,,,,,,,,,,,,,,,,,,,,,,,,,,,,,,,,,,,,
,,,,,,5ef211cba33a988a6311bc67,62c539ef3ede2ab943e36d3f,2022-07-06_09h30.04.544,Colour_Asymmetry_Pilot,2022.1.3,Win32,59.29791271,62c50e9c1127f2cd403a315f,0,5,5,58,1,twoone,,,,,,,,,,,,,,,,,,,,,,,,,,,,,,,,,,,,,,,,,,,,,,,,,,,,,,,,,,,,,,,,,,,,,,,,,,,,,,,,,,,,,,,,,,,,,,,,,,,,,,,,,,,,,,,,,,,,,,,,,,,,,,,,,,,,,,,,,,,,,,,,,,,,,,,,,,,,,
,,,,,,5ef211cba33a988a6311bc67,62c539ef3ede2ab943e36d3f,2022-07-06_09h30.04.544,Colour_Asymmetry_Pilot,2022.1.3,Win32,59.29791271,62c50e9c1127f2cd403a315f,0,6,6,28,1,threeone,,,,,,,,,,,,,,,,,,,,,,,,,,,,,,,,,,,,,,,,,,,,,,,,,,,,,,,,,,,,,,,,,,,,,,,,,,,,,,,,,,,,,,,,,,,,,,,,,,,,,,,,,,,,,,,,,,,,,,,,,,,,,,,,,,,,,,,,,,,,,,,,,,,,,,,,,,,,,
,,,,,,5ef211cba33a988a6311bc67,62c539ef3ede2ab943e36d3f,2022-07-06_09h30.04.544,Colour_Asymmetry_Pilot,2022.1.3,Win32,59.29791271,62c50e9c1127f2cd403a315f,0,7,7,18,1,twoone,,,,,,,,,,,,,,,,,,,,,,,,,,,,,,,,,,,,,,,,,,,,,,,,,,,,,,,,,,,,,,,,,,,,,,,,,,,,,,,,,,,,,,,,,,,,,,,,,,,,,,,,,,,,,,,,,,,,,,,,,,,,,,,,,,,,,,,,,,,,,,,,,,,,,,,,,,,,,
,,,,,,5ef211cba33a988a6311bc67,62c539ef3ede2ab943e36d3f,2022-07-06_09h30.04.544,Colour_Asymmetry_Pilot,2022.1.3,Win32,59.29791271,62c50e9c1127f2cd403a315f,0,8,8,160,1,onetwo,,,,,,,,,,,,,,,,,,,,,,,,,,,,,,,,,,,,,,,,,,,,,,,,,,,,,,,,,,,,,,,,,,,,,,,,,,,,,,,,,,,,,,,,,,,,,,,,,,,,,,,,,,,,,,,,,,,,,,,,,,,,,,,,,,,,,,,,,,,,,,,,,,,,,,,,,,,,,
,,,,,,5ef211cba33a988a6311bc67,62c539ef3ede2ab943e36d3f,2022-07-06_09h30.04.544,Colour_Asymmetry_Pilot,2022.1.3,Win32,59.29791271,62c50e9c1127f2cd403a315f,0,9,9,97,1,onethree,,,,,,,,,,,,,,,,,,,,,,,,,,,,,,,,,,,,,,,,,,,,,,,,,,,,,,,,,,,,,,,,,,,,,,,,,,,,,,,,,,,,,,,,,,,,,,,,,,,,,,,,,,,,,,,,,,,,,,,,,,,,,,,,,,,,,,,,,,,,,,,,,,,,,,,,,,,,,
,,,,,,5ef211cba33a988a6311bc67,62c539ef3ede2ab943e36d3f,2022-07-06_09h30.04.544,Colour_Asymmetry_Pilot,2022.1.3,Win32,59.29791271,62c50e9c1127f2cd403a315f,0,10,10,129,1,onethree,,,,,,,,,,,,,,,,,,,,,,,,,,,,,,,,,,,,,,,,,,,,,,,,,,,,,,,,,,,,,,,,,,,,,,,,,,,,,,,,,,,,,,,,,,,,,,,,,,,,,,,,,,,,,,,,,,,,,,,,,,,,,,,,,,,,,,,,,,,,,,,,,,,,,,,,,,,,,
,,,,,,5ef211cba33a988a6311bc67,62c539ef3ede2ab943e36d3f,2022-07-06_09h30.04.544,Colour_Asymmetry_Pilot,2022.1.3,Win32,59.29791271,62c50e9c1127f2cd403a315f,0,11,11,56,1,onetwo,,,,,,,,,,,,,,,,,,,,,,,,,,,,,,,,,,,,,,,,,,,,,,,,,,,,,,,,,,,,,,,,,,,,,,,,,,,,,,,,,,,,,,,,,,,,,,,,,,,,,,,,,,,,,,,,,,,,,,,,,,,,,,,,,,,,,,,,,,,,,,,,,,,,,,,,,,,,,
,,,,,,5ef211cba33a988a6311bc67,62c539ef3ede2ab943e36d3f,2022-07-06_09h30.04.544,Colour_Asymmetry_Pilot,2022.1.3,Win32,59.29791271,62c50e9c1127f2cd403a315f,0,12,12,31,1,fourthree,,,,,,,,,,,,,,,,,,,,,,,,,,,,,,,,,,,,,,,,,,,,,,,,,,,,,,,,,,,,,,,,,,,,,,,,,,,,,,,,,,,,,,,,,,,,,,,,,,,,,,,,,,,,,,,,,,,,,,,,,,,,,,,,,,,,,,,,,,,,,,,,,,,,,,,,,,,,,
,,,,,,5ef211cba33a988a6311bc67,62c539ef3ede2ab943e36d3f,2022-07-06_09h30.04.544,Colour_Asymmetry_Pilot,2022.1.3,Win32,59.29791271,62c50e9c1127f2cd403a315f,0,13,13,55,1,fourthree,,,,,,,,,,,,,,,,,,,,,,,,,,,,,,,,,,,,,,,,,,,,,,,,,,,,,,,,,,,,,,,,,,,,,,,,,,,,,,,,,,,,,,,,,,,,,,,,,,,,,,,,,,,,,,,,,,,,,,,,,,,,,,,,,,,,,,,,,,,,,,,,,,,,,,,,,,,,,
,,,,,,5ef211cba33a988a6311bc67,62c539ef3ede2ab943e36d3f,2022-07-06_09h30.04.544,Colour_Asymmetry_Pilot,2022.1.3,Win32,59.29791271,62c50e9c1127f2cd403a315f,0,14,14,96,1,onetwo,,,,,,,,,,,,,,,,,,,,,,,,,,,,,,,,,,,,,,,,,,,,,,,,,,,,,,,,,,,,,,,,,,,,,,,,,,,,,,,,,,,,,,,,,,,,,,,,,,,,,,,,,,,,,,,,,,,,,,,,,,,,,,,,,,,,,,,,,,,,,,,,,,,,,,,,,,,,,
,,,,,,5ef211cba33a988a6311bc67,62c539ef3ede2ab943e36d3f,2022-07-06_09h30.04.544,Colour_Asymmetry_Pilot,2022.1.3,Win32,59.29791271,62c50e9c1127f2cd403a315f,0,15,15,83,1,twofour,,,,,,,,,,,,,,,,,,,,,,,,,,,,,,,,,,,,,,,,,,,,,,,,,,,,,,,,,,,,,,,,,,,,,,,,,,,,,,,,,,,,,,,,,,,,,,,,,,,,,,,,,,,,,,,,,,,,,,,,,,,,,,,,,,,,,,,,,,,,,,,,,,,,,,,,,,,,,
,,,,,,5ef211cba33a988a6311bc67,62c539ef3ede2ab943e36d3f,2022-07-06_09h30.04.544,Colour_Asymmetry_Pilot,2022.1.3,Win32,59.29791271,62c50e9c1127f2cd403a315f,0,16,16,114,1,twoone,,,,,,,,,,,,,,,,,,,,,,,,,,,,,,,,,,,,,,,,,,,,,,,,,,,,,,,,,,,,,,,,,,,,,,,,,,,,,,,,,,,,,,,,,,,,,,,,,,,,,,,,,,,,,,,,,,,,,,,,,,,,,,,,,,,,,,,,,,,,,,,,,,,,,,,,,,,,,
,,,,,,5ef211cba33a988a6311bc67,62c539ef3ede2ab943e36d3f,2022-07-06_09h30.04.544,Colour_Asymmetry_Pilot,2022.1.3,Win32,59.29791271,62c50e9c1127f2cd403a315f,0,17,17,130,1,twoone,,,,,,,,,,,,,,,,,,,,,,,,,,,,,,,,,,,,,,,,,,,,,,,,,,,,,,,,,,,,,,,,,,,,,,,,,,,,,,,,,,,,,,,,,,,,,,,,,,,,,,,,,,,,,,,,,,,,,,,,,,,,,,,,,,,,,,,,,,,,,,,,,,,,,,,,,,,,,
,,,,,,5ef211cba33a988a6311bc67,62c539ef3ede2ab943e36d3f,2022-07-06_09h30.04.544,Colour_Asymmetry_Pilot,2022.1.3,Win32,59.29791271,62c50e9c1127f2cd403a315f,0,18,18,17,1,onethree,,,,,,,,,,,,,,,,,,,,,,,,,,,,,,,,,,,,,,,,,,,,,,,,,,,,,,,,,,,,,,,,,,,,,,,,,,,,,,,,,,,,,,,,,,,,,,,,,,,,,,,,,,,,,,,,,,,,,,,,,,,,,,,,,,,,,,,,,,,,,,,,,,,,,,,,,,,,,
,,,,,,5ef211cba33a988a6311bc67,62c539ef3ede2ab943e36d3f,2022-07-06_09h30.04.544,Colour_Asymmetry_Pilot,2022.1.3,Win32,59.29791271,62c50e9c1127f2cd403a315f,0,19,19,11,1,twofour,,,,,,,,,,,,,,,,,,,,,,,,,,,,,,,,,,,,,,,,,,,,,,,,,,,,,,,,,,,,,,,,,,,,,,,,,,,,,,,,,,,,,,,,,,,,,,,,,,,,,,,,,,,,,,,,,,,,,,,,,,,,,,,,,,,,,,,,,,,,,,,,,,,,,,,,,,,,,
,,,,,,5ef211cba33a988a6311bc67,62c539ef3ede2ab943e36d3f,2022-07-06_09h30.04.544,Colour_Asymmetry_Pilot,2022.1.3,Win32,59.29791271,62c50e9c1127f2cd403a315f,0,20,20,13,1,threefour,,,,,,,,,,,,,,,,,,,,,,,,,,,,,,,,,,,,,,,,,,,,,,,,,,,,,,,,,,,,,,,,,,,,,,,,,,,,,,,,,,,,,,,,,,,,,,,,,,,,,,,,,,,,,,,,,,,,,,,,,,,,,,,,,,,,,,,,,,,,,,,,,,,,,,,,,,,,,
,,,,,,5ef211cba33a988a6311bc67,62c539ef3ede2ab943e36d3f,2022-07-06_09h30.04.544,Colour_Asymmetry_Pilot,2022.1.3,Win32,59.29791271,62c50e9c1127f2cd403a315f,0,21,21,103,1,fourthree,,,,,,,,,,,,,,,,,,,,,,,,,,,,,,,,,,,,,,,,,,,,,,,,,,,,,,,,,,,,,,,,,,,,,,,,,,,,,,,,,,,,,,,,,,,,,,,,,,,,,,,,,,,,,,,,,,,,,,,,,,,,,,,,,,,,,,,,,,,,,,,,,,,,,,,,,,,,,
,,,,,,5ef211cba33a988a6311bc67,62c539ef3ede2ab943e36d3f,2022-07-06_09h30.04.544,Colour_Asymmetry_Pilot,2022.1.3,Win32,59.29791271,62c50e9c1127f2cd403a315f,0,22,22,29,1,threefour,,,,,,,,,,,,,,,,,,,,,,,,,,,,,,,,,,,,,,,,,,,,,,,,,,,,,,,,,,,,,,,,,,,,,,,,,,,,,,,,,,,,,,,,,,,,,,,,,,,,,,,,,,,,,,,,,,,,,,,,,,,,,,,,,,,,,,,,,,,,,,,,,,,,,,,,,,,,,
,,,,,,5ef211cba33a988a6311bc67,62c539ef3ede2ab943e36d3f,2022-07-06_09h30.04.544,Colour_Asymmetry_Pilot,2022.1.3,Win32,59.29791271,62c50e9c1127f2cd403a315f,0,23,23,46,1,fourtwo,,,,,,,,,,,,,,,,,,,,,,,,,,,,,,,,,,,,,,,,,,,,,,,,,,,,,,,,,,,,,,,,,,,,,,,,,,,,,,,,,,,,,,,,,,,,,,,,,,,,,,,,,,,,,,,,,,,,,,,,,,,,,,,,,,,,,,,,,,,,,,,,,,,,,,,,,,,,,
,,,,,,5ef211cba33a988a6311bc67,62c539ef3ede2ab943e36d3f,2022-07-06_09h30.04.544,Colour_Asymmetry_Pilot,2022.1.3,Win32,59.29791271,62c50e9c1127f2cd403a315f,0,24,24,88,1,onetwo,,,,,,,,,,,,,,,,,,,,,,,,,,,,,,,,,,,,,,,,,,,,,,,,,,,,,,,,,,,,,,,,,,,,,,,,,,,,,,,,,,,,,,,,,,,,,,,,,,,,,,,,,,,,,,,,,,,,,,,,,,,,,,,,,,,,,,,,,,,,,,,,,,,,,,,,,,,,,
,,,,,,5ef211cba33a988a6311bc67,62c539ef3ede2ab943e36d3f,2022-07-06_09h30.04.544,Colour_Asymmetry_Pilot,2022.1.3,Win32,59.29791271,62c50e9c1127f2cd403a315f,0,25,25,106,1,twoone,,,,,,,,,,,,,,,,,,,,,,,,,,,,,,,,,,,,,,,,,,,,,,,,,,,,,,,,,,,,,,,,,,,,,,,,,,,,,,,,,,,,,,,,,,,,,,,,,,,,,,,,,,,,,,,,,,,,,,,,,,,,,,,,,,,,,,,,,,,,,,,,,,,,,,,,,,,,,
,,,,,,5ef211cba33a988a6311bc67,62c539ef3ede2ab943e36d3f,2022-07-06_09h30.04.544,Colour_Asymmetry_Pilot,2022.1.3,Win32,59.29791271,62c50e9c1127f2cd403a315f,0,26,26,109,1,threefour,,,,,,,,,,,,,,,,,,,,,,,,,,,,,,,,,,,,,,,,,,,,,,,,,,,,,,,,,,,,,,,,,,,,,,,,,,,,,,,,,,,,,,,,,,,,,,,,,,,,,,,,,,,,,,,,,,,,,,,,,,,,,,,,,,,,,,,,,,,,,,,,,,,,,,,,,,,,,
,,,,,,5ef211cba33a988a6311bc67,62c539ef3ede2ab943e36d3f,2022-07-06_09h30.04.544,Colour_Asymmetry_Pilot,2022.1.3,Win32,59.29791271,62c50e9c1127f2cd403a315f,0,27,27,80,1,onetwo,,,,,,,,,,,,,,,,,,,,,,,,,,,,,,,,,,,,,,,,,,,,,,,,,,,,,,,,,,,,,,,,,,,,,,,,,,,,,,,,,,,,,,,,,,,,,,,,,,,,,,,,,,,,,,,,,,,,,,,,,,,,,,,,,,,,,,,,,,,,,,,,,,,,,,,,,,,,,
,,,,,,5ef211cba33a988a6311bc67,62c539ef3ede2ab943e36d3f,2022-07-06_09h30.04.544,Colour_Asymmetry_Pilot,2022.1.3,Win32,59.29791271,62c50e9c1127f2cd403a315f,0,28,28,145,1,onethree,,,,,,,,,,,,,,,,,,,,,,,,,,,,,,,,,,,,,,,,,,,,,,,,,,,,,,,,,,,,,,,,,,,,,,,,,,,,,,,,,,,,,,,,,,,,,,,,,,,,,,,,,,,,,,,,,,,,,,,,,,,,,,,,,,,,,,,,,,,,,,,,,,,,,,,,,,,,,
,,,,,,5ef211cba33a988a6311bc67,62c539ef3ede2ab943e36d3f,2022-07-06_09h30.04.544,Colour_Asymmetry_Pilot,2022.1.3,Win32,59.29791271,62c50e9c1127f2cd403a315f,0,29,29,53,1,threefour,,,,,,,,,,,,,,,,,,,,,,,,,,,,,,,,,,,,,,,,,,,,,,,,,,,,,,,,,,,,,,,,,,,,,,,,,,,,,,,,,,,,,,,,,,,,,,,,,,,,,,,,,,,,,,,,,,,,,,,,,,,,,,,,,,,,,,,,,,,,,,,,,,,,,,,,,,,,,
,,,,,,5ef211cba33a988a6311bc67,62c539ef3ede2ab943e36d3f,2022-07-06_09h30.04.544,Colour_Asymmetry_Pilot,2022.1.3,Win32,59.29791271,62c50e9c1127f2cd403a315f,0,30,30,14,1,fourtwo,,,,,,,,,,,,,,,,,,,,,,,,,,,,,,,,,,,,,,,,,,,,,,,,,,,,,,,,,,,,,,,,,,,,,,,,,,,,,,,,,,,,,,,,,,,,,,,,,,,,,,,,,,,,,,,,,,,,,,,,,,,,,,,,,,,,,,,,,,,,,,,,,,,,,,,,,,,,,
,,,,,,5ef211cba33a988a6311bc67,62c539ef3ede2ab943e36d3f,2022-07-06_09h30.04.544,Colour_Asymmetry_Pilot,2022.1.3,Win32,59.29791271,62c50e9c1127f2cd403a315f,0,31,31,120,1,onetwo,,,,,,,,,,,,,,,,,,,,,,,,,,,,,,,,,,,,,,,,,,,,,,,,,,,,,,,,,,,,,,,,,,,,,,,,,,,,,,,,,,,,,,,,,,,,,,,,,,,,,,,,,,,,,,,,,,,,,,,,,,,,,,,,,,,,,,,,,,,,,,,,,,,,,,,,,,,,,
,,,,,,5ef211cba33a988a6311bc67,62c539ef3ede2ab943e36d3f,2022-07-06_09h30.04.544,Colour_Asymmetry_Pilot,2022.1.3,Win32,59.29791271,62c50e9c1127f2cd403a315f,0,32,32,124,1,threeone,,,,,,,,,,,,,,,,,,,,,,,,,,,,,,,,,,,,,,,,,,,,,,,,,,,,,,,,,,,,,,,,,,,,,,,,,,,,,,,,,,,,,,,,,,,,,,,,,,,,,,,,,,,,,,,,,,,,,,,,,,,,,,,,,,,,,,,,,,,,,,,,,,,,,,,,,,,,,
,,,,,,5ef211cba33a988a6311bc67,62c539ef3ede2ab943e36d3f,2022-07-06_09h30.04.544,Colour_Asymmetry_Pilot,2022.1.3,Win32,59.29791271,62c50e9c1127f2cd403a315f,0,33,33,121,1,onethree,,,,,,,,,,,,,,,,,,,,,,,,,,,,,,,,,,,,,,,,,,,,,,,,,,,,,,,,,,,,,,,,,,,,,,,,,,,,,,,,,,,,,,,,,,,,,,,,,,,,,,,,,,,,,,,,,,,,,,,,,,,,,,,,,,,,,,,,,,,,,,,,,,,,,,,,,,,,,
,,,,,,5ef211cba33a988a6311bc67,62c539ef3ede2ab943e36d3f,2022-07-06_09h30.04.544,Colour_Asymmetry_Pilot,2022.1.3,Win32,59.29791271,62c50e9c1127f2cd403a315f,0,34,34,132,1,threeone,,,,,,,,,,,,,,,,,,,,,,,,,,,,,,,,,,,,,,,,,,,,,,,,,,,,,,,,,,,,,,,,,,,,,,,,,,,,,,,,,,,,,,,,,,,,,,,,,,,,,,,,,,,,,,,,,,,,,,,,,,,,,,,,,,,,,,,,,,,,,,,,,,,,,,,,,,,,,
,,,,,,5ef211cba33a988a6311bc67,62c539ef3ede2ab943e36d3f,2022-07-06_09h30.04.544,Colour_Asymmetry_Pilot,2022.1.3,Win32,59.29791271,62c50e9c1127f2cd403a315f,0,35,35,154,1,twoone,,,,,,,,,,,,,,,,,,,,,,,,,,,,,,,,,,,,,,,,,,,,,,,,,,,,,,,,,,,,,,,,,,,,,,,,,,,,,,,,,,,,,,,,,,,,,,,,,,,,,,,,,,,,,,,,,,,,,,,,,,,,,,,,,,,,,,,,,,,,,,,,,,,,,,,,,,,,,
,,,,,,5ef211cba33a988a6311bc67,62c539ef3ede2ab943e36d3f,2022-07-06_09h30.04.544,Colour_Asymmetry_Pilot,2022.1.3,Win32,59.29791271,62c50e9c1127f2cd403a315f,0,36,36,39,1,fourthree,,,,,,,,,,,,,,,,,,,,,,,,,,,,,,,,,,,,,,,,,,,,,,,,,,,,,,,,,,,,,,,,,,,,,,,,,,,,,,,,,,,,,,,,,,,,,,,,,,,,,,,,,,,,,,,,,,,,,,,,,,,,,,,,,,,,,,,,,,,,,,,,,,,,,,,,,,,,,
,,,,,,5ef211cba33a988a6311bc67,62c539ef3ede2ab943e36d3f,2022-07-06_09h30.04.544,Colour_Asymmetry_Pilot,2022.1.3,Win32,59.29791271,62c50e9c1127f2cd403a315f,0,37,37,79,1,fourthree,,,,,,,,,,,,,,,,,,,,,,,,,,,,,,,,,,,,,,,,,,,,,,,,,,,,,,,,,,,,,,,,,,,,,,,,,,,,,,,,,,,,,,,,,,,,,,,,,,,,,,,,,,,,,,,,,,,,,,,,,,,,,,,,,,,,,,,,,,,,,,,,,,,,,,,,,,,,,
,,,,,,5ef211cba33a988a6311bc67,62c539ef3ede2ab943e36d3f,2022-07-06_09h30.04.544,Colour_Asymmetry_Pilot,2022.1.3,Win32,59.29791271,62c50e9c1127f2cd403a315f,0,38,38,23,1,fourthree,,,,,,,,,,,,,,,,,,,,,,,,,,,,,,,,,,,,,,,,,,,,,,,,,,,,,,,,,,,,,,,,,,,,,,,,,,,,,,,,,,,,,,,,,,,,,,,,,,,,,,,,,,,,,,,,,,,,,,,,,,,,,,,,,,,,,,,,,,,,,,,,,,,,,,,,,,,,,
,,,,,,5ef211cba33a988a6311bc67,62c539ef3ede2ab943e36d3f,2022-07-06_09h30.04.544,Colour_Asymmetry_Pilot,2022.1.3,Win32,59.29791271,62c50e9c1127f2cd403a315f,0,39,39,7,1,fourthree,,,,,,,,,,,,,,,,,,,,,,,,,,,,,,,,,,,,,,,,,,,,,,,,,,,,,,,,,,,,,,,,,,,,,,,,,,,,,,,,,,,,,,,,,,,,,,,,,,,,,,,,,,,,,,,,,,,,,,,,,,,,,,,,,,,,,,,,,,,,,,,,,,,,,,,,,,,,,
,,,,,,5ef211cba33a988a6311bc67,62c539ef3ede2ab943e36d3f,2022-07-06_09h30.04.544,Colour_Asymmetry_Pilot,2022.1.3,Win32,59.29791271,62c50e9c1127f2cd403a315f,0,40,40,0,1,onetwo,,,,,,,,,,,,,,,,,,,,,,,,,,,,,,,,,,,,,,,,,,,,,,,,,,,,,,,,,,,,,,,,,,,,,,,,,,,,,,,,,,,,,,,,,,,,,,,,,,,,,,,,,,,,,,,,,,,,,,,,,,,,,,,,,,,,,,,,,,,,,,,,,,,,,,,,,,,,,
,,,,,,5ef211cba33a988a6311bc67,62c539ef3ede2ab943e36d3f,2022-07-06_09h30.04.544,Colour_Asymmetry_Pilot,2022.1.3,Win32,59.29791271,62c50e9c1127f2cd403a315f,0,41,41,33,1,onethree,,,,,,,,,,,,,,,,,,,,,,,,,,,,,,,,,,,,,,,,,,,,,,,,,,,,,,,,,,,,,,,,,,,,,,,,,,,,,,,,,,,,,,,,,,,,,,,,,,,,,,,,,,,,,,,,,,,,,,,,,,,,,,,,,,,,,,,,,,,,,,,,,,,,,,,,,,,,,
,,,,,,5ef211cba33a988a6311bc67,62c539ef3ede2ab943e36d3f,2022-07-06_09h30.04.544,Colour_Asymmetry_Pilot,2022.1.3,Win32,59.29791271,62c50e9c1127f2cd403a315f,0,42,42,93,1,threefour,,,,,,,,,,,,,,,,,,,,,,,,,,,,,,,,,,,,,,,,,,,,,,,,,,,,,,,,,,,,,,,,,,,,,,,,,,,,,,,,,,,,,,,,,,,,,,,,,,,,,,,,,,,,,,,,,,,,,,,,,,,,,,,,,,,,,,,,,,,,,,,,,,,,,,,,,,,,,
,,,,,,5ef211cba33a988a6311bc67,62c539ef3ede2ab943e36d3f,2022-07-06_09h30.04.544,Colour_Asymmetry_Pilot,2022.1.3,Win32,59.29791271,62c50e9c1127f2cd403a315f,0,43,43,49,1,onethree,,,,,,,,,,,,,,,,,,,,,,,,,,,,,,,,,,,,,,,,,,,,,,,,,,,,,,,,,,,,,,,,,,,,,,,,,,,,,,,,,,,,,,,,,,,,,,,,,,,,,,,,,,,,,,,,,,,,,,,,,,,,,,,,,,,,,,,,,,,,,,,,,,,,,,,,,,,,,
,,,,,,5ef211cba33a988a6311bc67,62c539ef3ede2ab943e36d3f,2022-07-06_09h30.04.544,Colour_Asymmetry_Pilot,2022.1.3,Win32,59.29791271,62c50e9c1127f2cd403a315f,0,44,44,95,1,fourthree,,,,,,,,,,,,,,,,,,,,,,,,,,,,,,,,,,,,,,,,,,,,,,,,,,,,,,,,,,,,,,,,,,,,,,,,,,,,,,,,,,,,,,,,,,,,,,,,,,,,,,,,,,,,,,,,,,,,,,,,,,,,,,,,,,,,,,,,,,,,,,,,,,,,,,,,,,,,,
,,,,,,5ef211cba33a988a6311bc67,62c539ef3ede2ab943e36d3f,2022-07-06_09h30.04.544,Colour_Asymmetry_Pilot,2022.1.3,Win32,59.29791271,62c50e9c1127f2cd403a315f,0,45,45,99,1,twofour,,,,,,,,,,,,,,,,,,,,,,,,,,,,,,,,,,,,,,,,,,,,,,,,,,,,,,,,,,,,,,,,,,,,,,,,,,,,,,,,,,,,,,,,,,,,,,,,,,,,,,,,,,,,,,,,,,,,,,,,,,,,,,,,,,,,,,,,,,,,,,,,,,,,,,,,,,,,,
,,,,,,5ef211cba33a988a6311bc67,62c539ef3ede2ab943e36d3f,2022-07-06_09h30.04.544,Colour_Asymmetry_Pilot,2022.1.3,Win32,59.29791271,62c50e9c1127f2cd403a315f,0,46,46,74,1,twoone,,,,,,,,,,,,,,,,,,,,,,,,,,,,,,,,,,,,,,,,,,,,,,,,,,,,,,,,,,,,,,,,,,,,,,,,,,,,,,,,,,,,,,,,,,,,,,,,,,,,,,,,,,,,,,,,,,,,,,,,,,,,,,,,,,,,,,,,,,,,,,,,,,,,,,,,,,,,,
,,,,,,5ef211cba33a988a6311bc67,62c539ef3ede2ab943e36d3f,2022-07-06_09h30.04.544,Colour_Asymmetry_Pilot,2022.1.3,Win32,59.29791271,62c50e9c1127f2cd403a315f,0,47,47,104,1,onetwo,,,,,,,,,,,,,,,,,,,,,,,,,,,,,,,,,,,,,,,,,,,,,,,,,,,,,,,,,,,,,,,,,,,,,,,,,,,,,,,,,,,,,,,,,,,,,,,,,,,,,,,,,,,,,,,,,,,,,,,,,,,,,,,,,,,,,,,,,,,,,,,,,,,,,,,,,,,,,
,,,,,,5ef211cba33a988a6311bc67,62c539ef3ede2ab943e36d3f,2022-07-06_09h30.04.544,Colour_Asymmetry_Pilot,2022.1.3,Win32,59.29791271,62c50e9c1127f2cd403a315f,0,48,48,117,1,threefour,,,,,,,,,,,,,,,,,,,,,,,,,,,,,,,,,,,,,,,,,,,,,,,,,,,,,,,,,,,,,,,,,,,,,,,,,,,,,,,,,,,,,,,,,,,,,,,,,,,,,,,,,,,,,,,,,,,,,,,,,,,,,,,,,,,,,,,,,,,,,,,,,,,,,,,,,,,,,
,,,,,,5ef211cba33a988a6311bc67,62c539ef3ede2ab943e36d3f,2022-07-06_09h30.04.544,Colour_Asymmetry_Pilot,2022.1.3,Win32,59.29791271,62c50e9c1127f2cd403a315f,0,49,49,34,1,twoone,,,,,,,,,,,,,,,,,,,,,,,,,,,,,,,,,,,,,,,,,,,,,,,,,,,,,,,,,,,,,,,,,,,,,,,,,,,,,,,,,,,,,,,,,,,,,,,,,,,,,,,,,,,,,,,,,,,,,,,,,,,,,,,,,,,,,,,,,,,,,,,,,,,,,,,,,,,,,
,,,,,,5ef211cba33a988a6311bc67,62c539ef3ede2ab943e36d3f,2022-07-06_09h30.04.544,Colour_Asymmetry_Pilot,2022.1.3,Win32,59.29791271,62c50e9c1127f2cd403a315f,0,50,50,26,1,twoone,,,,,,,,,,,,,,,,,,,,,,,,,,,,,,,,,,,,,,,,,,,,,,,,,,,,,,,,,,,,,,,,,,,,,,,,,,,,,,,,,,,,,,,,,,,,,,,,,,,,,,,,,,,,,,,,,,,,,,,,,,,,,,,,,,,,,,,,,,,,,,,,,,,,,,,,,,,,,
,,,,,,5ef211cba33a988a6311bc67,62c539ef3ede2ab943e36d3f,2022-07-06_09h30.04.544,Colour_Asymmetry_Pilot,2022.1.3,Win32,59.29791271,62c50e9c1127f2cd403a315f,0,51,51,159,1,fourthree,,,,,,,,,,,,,,,,,,,,,,,,,,,,,,,,,,,,,,,,,,,,,,,,,,,,,,,,,,,,,,,,,,,,,,,,,,,,,,,,,,,,,,,,,,,,,,,,,,,,,,,,,,,,,,,,,,,,,,,,,,,,,,,,,,,,,,,,,,,,,,,,,,,,,,,,,,,,,
,,,,,,5ef211cba33a988a6311bc67,62c539ef3ede2ab943e36d3f,2022-07-06_09h30.04.544,Colour_Asymmetry_Pilot,2022.1.3,Win32,59.29791271,62c50e9c1127f2cd403a315f,0,52,52,35,1,twofour,,,,,,,,,,,,,,,,,,,,,,,,,,,,,,,,,,,,,,,,,,,,,,,,,,,,,,,,,,,,,,,,,,,,,,,,,,,,,,,,,,,,,,,,,,,,,,,,,,,,,,,,,,,,,,,,,,,,,,,,,,,,,,,,,,,,,,,,,,,,,,,,,,,,,,,,,,,,,
,,,,,,5ef211cba33a988a6311bc67,62c539ef3ede2ab943e36d3f,2022-07-06_09h30.04.544,Colour_Asymmetry_Pilot,2022.1.3,Win32,59.29791271,62c50e9c1127f2cd403a315f,0,53,53,54,1,fourtwo,,,,,,,,,,,,,,,,,,,,,,,,,,,,,,,,,,,,,,,,,,,,,,,,,,,,,,,,,,,,,,,,,,,,,,,,,,,,,,,,,,,,,,,,,,,,,,,,,,,,,,,,,,,,,,,,,,,,,,,,,,,,,,,,,,,,,,,,,,,,,,,,,,,,,,,,,,,,,
,,,,,,5ef211cba33a988a6311bc67,62c539ef3ede2ab943e36d3f,2022-07-06_09h30.04.544,Colour_Asymmetry_Pilot,2022.1.3,Win32,59.29791271,62c50e9c1127f2cd403a315f,0,54,54,90,1,twoone,,,,,,,,,,,,,,,,,,,,,,,,,,,,,,,,,,,,,,,,,,,,,,,,,,,,,,,,,,,,,,,,,,,,,,,,,,,,,,,,,,,,,,,,,,,,,,,,,,,,,,,,,,,,,,,,,,,,,,,,,,,,,,,,,,,,,,,,,,,,,,,,,,,,,,,,,,,,,
,,,,,,5ef211cba33a988a6311bc67,62c539ef3ede2ab943e36d3f,2022-07-06_09h30.04.544,Colour_Asymmetry_Pilot,2022.1.3,Win32,59.29791271,62c50e9c1127f2cd403a315f,0,55,55,61,1,threefour,,,,,,,,,,,,,,,,,,,,,,,,,,,,,,,,,,,,,,,,,,,,,,,,,,,,,,,,,,,,,,,,,,,,,,,,,,,,,,,,,,,,,,,,,,,,,,,,,,,,,,,,,,,,,,,,,,,,,,,,,,,,,,,,,,,,,,,,,,,,,,,,,,,,,,,,,,,,,
,,,,,,5ef211cba33a988a6311bc67,62c539ef3ede2ab943e36d3f,2022-07-06_09h30.04.544,Colour_Asymmetry_Pilot,2022.1.3,Win32,59.29791271,62c50e9c1127f2cd403a315f,0,56,56,19,1,twofour,,,,,,,,,,,,,,,,,,,,,,,,,,,,,,,,,,,,,,,,,,,,,,,,,,,,,,,,,,,,,,,,,,,,,,,,,,,,,,,,,,,,,,,,,,,,,,,,,,,,,,,,,,,,,,,,,,,,,,,,,,,,,,,,,,,,,,,,,,,,,,,,,,,,,,,,,,,,,
,,,,,,5ef211cba33a988a6311bc67,62c539ef3ede2ab943e36d3f,2022-07-06_09h30.04.544,Colour_Asymmetry_Pilot,2022.1.3,Win32,59.29791271,62c50e9c1127f2cd403a315f,0,57,57,149,1,threefour,,,,,,,,,,,,,,,,,,,,,,,,,,,,,,,,,,,,,,,,,,,,,,,,,,,,,,,,,,,,,,,,,,,,,,,,,,,,,,,,,,,,,,,,,,,,,,,,,,,,,,,,,,,,,,,,,,,,,,,,,,,,,,,,,,,,,,,,,,,,,,,,,,,,,,,,,,,,,
,,,,,,5ef211cba33a988a6311bc67,62c539ef3ede2ab943e36d3f,2022-07-06_09h30.04.544,Colour_Asymmetry_Pilot,2022.1.3,Win32,59.29791271,62c50e9c1127f2cd403a315f,0,58,58,76,1,threeone,,,,,,,,,,,,,,,,,,,,,,,,,,,,,,,,,,,,,,,,,,,,,,,,,,,,,,,,,,,,,,,,,,,,,,,,,,,,,,,,,,,,,,,,,,,,,,,,,,,,,,,,,,,,,,,,,,,,,,,,,,,,,,,,,,,,,,,,,,,,,,,,,,,,,,,,,,,,,
,,,,,,5ef211cba33a988a6311bc67,62c539ef3ede2ab943e36d3f,2022-07-06_09h30.04.544,Colour_Asymmetry_Pilot,2022.1.3,Win32,59.29791271,62c50e9c1127f2cd403a315f,0,59,59,107,1,twofour,,,,,,,,,,,,,,,,,,,,,,,,,,,,,,,,,,,,,,,,,,,,,,,,,,,,,,,,,,,,,,,,,,,,,,,,,,,,,,,,,,,,,,,,,,,,,,,,,,,,,,,,,,,,,,,,,,,,,,,,,,,,,,,,,,,,,,,,,,,,,,,,,,,,,,,,,,,,,
,,,,,,5ef211cba33a988a6311bc67,62c539ef3ede2ab943e36d3f,2022-07-06_09h30.04.544,Colour_Asymmetry_Pilot,2022.1.3,Win32,59.29791271,62c50e9c1127f2cd403a315f,0,60,60,77,1,threefour,,,,,,,,,,,,,,,,,,,,,,,,,,,,,,,,,,,,,,,,,,,,,,,,,,,,,,,,,,,,,,,,,,,,,,,,,,,,,,,,,,,,,,,,,,,,,,,,,,,,,,,,,,,,,,,,,,,,,,,,,,,,,,,,,,,,,,,,,,,,,,,,,,,,,,,,,,,,,
,,,,,,5ef211cba33a988a6311bc67,62c539ef3ede2ab943e36d3f,2022-07-06_09h30.04.544,Colour_Asymmetry_Pilot,2022.1.3,Win32,59.29791271,62c50e9c1127f2cd403a315f,0,61,61,45,1,threefour,,,,,,,,,,,,,,,,,,,,,,,,,,,,,,,,,,,,,,,,,,,,,,,,,,,,,,,,,,,,,,,,,,,,,,,,,,,,,,,,,,,,,,,,,,,,,,,,,,,,,,,,,,,,,,,,,,,,,,,,,,,,,,,,,,,,,,,,,,,,,,,,,,,,,,,,,,,,,
,,,,,,5ef211cba33a988a6311bc67,62c539ef3ede2ab943e36d3f,2022-07-06_09h30.04.544,Colour_Asymmetry_Pilot,2022.1.3,Win32,59.29791271,62c50e9c1127f2cd403a315f,0,62,62,16,1,onetwo,,,,,,,,,,,,,,,,,,,,,,,,,,,,,,,,,,,,,,,,,,,,,,,,,,,,,,,,,,,,,,,,,,,,,,,,,,,,,,,,,,,,,,,,,,,,,,,,,,,,,,,,,,,,,,,,,,,,,,,,,,,,,,,,,,,,,,,,,,,,,,,,,,,,,,,,,,,,,
,,,,,,5ef211cba33a988a6311bc67,62c539ef3ede2ab943e36d3f,2022-07-06_09h30.04.544,Colour_Asymmetry_Pilot,2022.1.3,Win32,59.29791271,62c50e9c1127f2cd403a315f,0,63,63,89,1,onethree,,,,,,,,,,,,,,,,,,,,,,,,,,,,,,,,,,,,,,,,,,,,,,,,,,,,,,,,,,,,,,,,,,,,,,,,,,,,,,,,,,,,,,,,,,,,,,,,,,,,,,,,,,,,,,,,,,,,,,,,,,,,,,,,,,,,,,,,,,,,,,,,,,,,,,,,,,,,,
,,,,,,5ef211cba33a988a6311bc67,62c539ef3ede2ab943e36d3f,2022-07-06_09h30.04.544,Colour_Asymmetry_Pilot,2022.1.3,Win32,59.29791271,62c50e9c1127f2cd403a315f,0,64,64,82,1,twoone,,,,,,,,,,,,,,,,,,,,,,,,,,,,,,,,,,,,,,,,,,,,,,,,,,,,,,,,,,,,,,,,,,,,,,,,,,,,,,,,,,,,,,,,,,,,,,,,,,,,,,,,,,,,,,,,,,,,,,,,,,,,,,,,,,,,,,,,,,,,,,,,,,,,,,,,,,,,,
,,,,,,5ef211cba33a988a6311bc67,62c539ef3ede2ab943e36d3f,2022-07-06_09h30.04.544,Colour_Asymmetry_Pilot,2022.1.3,Win32,59.29791271,62c50e9c1127f2cd403a315f,0,65,65,157,1,threefour,,,,,,,,,,,,,,,,,,,,,,,,,,,,,,,,,,,,,,,,,,,,,,,,,,,,,,,,,,,,,,,,,,,,,,,,,,,,,,,,,,,,,,,,,,,,,,,,,,,,,,,,,,,,,,,,,,,,,,,,,,,,,,,,,,,,,,,,,,,,,,,,,,,,,,,,,,,,,
,,,,,,5ef211cba33a988a6311bc67,62c539ef3ede2ab943e36d3f,2022-07-06_09h30.04.544,Colour_Asymmetry_Pilot,2022.1.3,Win32,59.29791271,62c50e9c1127f2cd403a315f,0,66,66,118,1,fourtwo,,,,,,,,,,,,,,,,,,,,,,,,,,,,,,,,,,,,,,,,,,,,,,,,,,,,,,,,,,,,,,,,,,,,,,,,,,,,,,,,,,,,,,,,,,,,,,,,,,,,,,,,,,,,,,,,,,,,,,,,,,,,,,,,,,,,,,,,,,,,,,,,,,,,,,,,,,,,,
,,,,,,5ef211cba33a988a6311bc67,62c539ef3ede2ab943e36d3f,2022-07-06_09h30.04.544,Colour_Asymmetry_Pilot,2022.1.3,Win32,59.29791271,62c50e9c1127f2cd403a315f,0,67,67,62,1,fourtwo,,,,,,,,,,,,,,,,,,,,,,,,,,,,,,,,,,,,,,,,,,,,,,,,,,,,,,,,,,,,,,,,,,,,,,,,,,,,,,,,,,,,,,,,,,,,,,,,,,,,,,,,,,,,,,,,,,,,,,,,,,,,,,,,,,,,,,,,,,,,,,,,,,,,,,,,,,,,,
,,,,,,5ef211cba33a988a6311bc67,62c539ef3ede2ab943e36d3f,2022-07-06_09h30.04.544,Colour_Asymmetry_Pilot,2022.1.3,Win32,59.29791271,62c50e9c1127f2cd403a315f,0,68,68,48,1,onetwo,,,,,,,,,,,,,,,,,,,,,,,,,,,,,,,,,,,,,,,,,,,,,,,,,,,,,,,,,,,,,,,,,,,,,,,,,,,,,,,,,,,,,,,,,,,,,,,,,,,,,,,,,,,,,,,,,,,,,,,,,,,,,,,,,,,,,,,,,,,,,,,,,,,,,,,,,,,,,
,,,,,,5ef211cba33a988a6311bc67,62c539ef3ede2ab943e36d3f,2022-07-06_09h30.04.544,Colour_Asymmetry_Pilot,2022.1.3,Win32,59.29791271,62c50e9c1127f2cd403a315f,0,69,69,25,1,onethree,,,,,,,,,,,,,,,,,,,,,,,,,,,,,,,,,,,,,,,,,,,,,,,,,,,,,,,,,,,,,,,,,,,,,,,,,,,,,,,,,,,,,,,,,,,,,,,,,,,,,,,,,,,,,,,,,,,,,,,,,,,,,,,,,,,,,,,,,,,,,,,,,,,,,,,,,,,,,
,,,,,,5ef211cba33a988a6311bc67,62c539ef3ede2ab943e36d3f,2022-07-06_09h30.04.544,Colour_Asymmetry_Pilot,2022.1.3,Win32,59.29791271,62c50e9c1127f2cd403a315f,0,70,70,36,1,threeone,,,,,,,,,,,,,,,,,,,,,,,,,,,,,,,,,,,,,,,,,,,,,,,,,,,,,,,,,,,,,,,,,,,,,,,,,,,,,,,,,,,,,,,,,,,,,,,,,,,,,,,,,,,,,,,,,,,,,,,,,,,,,,,,,,,,,,,,,,,,,,,,,,,,,,,,,,,,,
,,,,,,5ef211cba33a988a6311bc67,62c539ef3ede2ab943e36d3f,2022-07-06_09h30.04.544,Colour_Asymmetry_Pilot,2022.1.3,Win32,59.29791271,62c50e9c1127f2cd403a315f,0,71,71,108,1,threeone,,,,,,,,,,,,,,,,,,,,,,,,,,,,,,,,,,,,,,,,,,,,,,,,,,,,,,,,,,,,,,,,,,,,,,,,,,,,,,,,,,,,,,,,,,,,,,,,,,,,,,,,,,,,,,,,,,,,,,,,,,,,,,,,,,,,,,,,,,,,,,,,,,,,,,,,,,,,,
,,,,,,5ef211cba33a988a6311bc67,62c539ef3ede2ab943e36d3f,2022-07-06_09h30.04.544,Colour_Asymmetry_Pilot,2022.1.3,Win32,59.29791271,62c50e9c1127f2cd403a315f,0,72,72,92,1,threeone,,,,,,,,,,,,,,,,,,,,,,,,,,,,,,,,,,,,,,,,,,,,,,,,,,,,,,,,,,,,,,,,,,,,,,,,,,,,,,,,,,,,,,,,,,,,,,,,,,,,,,,,,,,,,,,,,,,,,,,,,,,,,,,,,,,,,,,,,,,,,,,,,,,,,,,,,,,,,
,,,,,,5ef211cba33a988a6311bc67,62c539ef3ede2ab943e36d3f,2022-07-06_09h30.04.544,Colour_Asymmetry_Pilot,2022.1.3,Win32,59.29791271,62c50e9c1127f2cd403a315f,0,73,73,156,1,threeone,,,,,,,,,,,,,,,,,,,,,,,,,,,,,,,,,,,,,,,,,,,,,,,,,,,,,,,,,,,,,,,,,,,,,,,,,,,,,,,,,,,,,,,,,,,,,,,,,,,,,,,,,,,,,,,,,,,,,,,,,,,,,,,,,,,,,,,,,,,,,,,,,,,,,,,,,,,,,
,,,,,,5ef211cba33a988a6311bc67,62c539ef3ede2ab943e36d3f,2022-07-06_09h30.04.544,Colour_Asymmetry_Pilot,2022.1.3,Win32,59.29791271,62c50e9c1127f2cd403a315f,0,74,74,155,1,twofour,,,,,,,,,,,,,,,,,,,,,,,,,,,,,,,,,,,,,,,,,,,,,,,,,,,,,,,,,,,,,,,,,,,,,,,,,,,,,,,,,,,,,,,,,,,,,,,,,,,,,,,,,,,,,,,,,,,,,,,,,,,,,,,,,,,,,,,,,,,,,,,,,,,,,,,,,,,,,
,,,,,,5ef211cba33a988a6311bc67,62c539ef3ede2ab943e36d3f,2022-07-06_09h30.04.544,Colour_Asymmetry_Pilot,2022.1.3,Win32,59.29791271,62c50e9c1127f2cd403a315f,0,75,75,110,1,fourtwo,,,,,,,,,,,,,,,,,,,,,,,,,,,,,,,,,,,,,,,,,,,,,,,,,,,,,,,,,,,,,,,,,,,,,,,,,,,,,,,,,,,,,,,,,,,,,,,,,,,,,,,,,,,,,,,,,,,,,,,,,,,,,,,,,,,,,,,,,,,,,,,,,,,,,,,,,,,,,
,,,,,,5ef211cba33a988a6311bc67,62c539ef3ede2ab943e36d3f,2022-07-06_09h30.04.544,Colour_Asymmetry_Pilot,2022.1.3,Win32,59.29791271,62c50e9c1127f2cd403a315f,0,76,76,86,1,fourtwo,,,,,,,,,,,,,,,,,,,,,,,,,,,,,,,,,,,,,,,,,,,,,,,,,,,,,,,,,,,,,,,,,,,,,,,,,,,,,,,,,,,,,,,,,,,,,,,,,,,,,,,,,,,,,,,,,,,,,,,,,,,,,,,,,,,,,,,,,,,,,,,,,,,,,,,,,,,,,
,,,,,,5ef211cba33a988a6311bc67,62c539ef3ede2ab943e36d3f,2022-07-06_09h30.04.544,Colour_Asymmetry_Pilot,2022.1.3,Win32,59.29791271,62c50e9c1127f2cd403a315f,0,77,77,57,1,onethree,,,,,,,,,,,,,,,,,,,,,,,,,,,,,,,,,,,,,,,,,,,,,,,,,,,,,,,,,,,,,,,,,,,,,,,,,,,,,,,,,,,,,,,,,,,,,,,,,,,,,,,,,,,,,,,,,,,,,,,,,,,,,,,,,,,,,,,,,,,,,,,,,,,,,,,,,,,,,
,,,,,,5ef211cba33a988a6311bc67,62c539ef3ede2ab943e36d3f,2022-07-06_09h30.04.544,Colour_Asymmetry_Pilot,2022.1.3,Win32,59.29791271,62c50e9c1127f2cd403a315f,0,78,78,78,1,fourtwo,,,,,,,,,,,,,,,,,,,,,,,,,,,,,,,,,,,,,,,,,,,,,,,,,,,,,,,,,,,,,,,,,,,,,,,,,,,,,,,,,,,,,,,,,,,,,,,,,,,,,,,,,,,,,,,,,,,,,,,,,,,,,,,,,,,,,,,,,,,,,,,,,,,,,,,,,,,,,
,,,,,,5ef211cba33a988a6311bc67,62c539ef3ede2ab943e36d3f,2022-07-06_09h30.04.544,Colour_Asymmetry_Pilot,2022.1.3,Win32,59.29791271,62c50e9c1127f2cd403a315f,0,79,79,1,1,onethree,,,,,,,,,,,,,,,,,,,,,,,,,,,,,,,,,,,,,,,,,,,,,,,,,,,,,,,,,,,,,,,,,,,,,,,,,,,,,,,,,,,,,,,,,,,,,,,,,,,,,,,,,,,,,,,,,,,,,,,,,,,,,,,,,,,,,,,,,,,,,,,,,,,,,,,,,,,,,
,,,,,,5ef211cba33a988a6311bc67,62c539ef3ede2ab943e36d3f,2022-07-06_09h30.04.544,Colour_Asymmetry_Pilot,2022.1.3,Win32,59.29791271,62c50e9c1127f2cd403a315f,0,80,80,66,1,twoone,,,,,,,,,,,,,,,,,,,,,,,,,,,,,,,,,,,,,,,,,,,,,,,,,,,,,,,,,,,,,,,,,,,,,,,,,,,,,,,,,,,,,,,,,,,,,,,,,,,,,,,,,,,,,,,,,,,,,,,,,,,,,,,,,,,,,,,,,,,,,,,,,,,,,,,,,,,,,
,,,,,,5ef211cba33a988a6311bc67,62c539ef3ede2ab943e36d3f,2022-07-06_09h30.04.544,Colour_Asymmetry_Pilot,2022.1.3,Win32,59.29791271,62c50e9c1127f2cd403a315f,0,81,81,158,1,fourtwo,,,,,,,,,,,,,,,,,,,,,,,,,,,,,,,,,,,,,,,,,,,,,,,,,,,,,,,,,,,,,,,,,,,,,,,,,,,,,,,,,,,,,,,,,,,,,,,,,,,,,,,,,,,,,,,,,,,,,,,,,,,,,,,,,,,,,,,,,,,,,,,,,,,,,,,,,,,,,
,,,,,,5ef211cba33a988a6311bc67,62c539ef3ede2ab943e36d3f,2022-07-06_09h30.04.544,Colour_Asymmetry_Pilot,2022.1.3,Win32,59.29791271,62c50e9c1127f2cd403a315f,0,82,82,144,1,onetwo,,,,,,,,,,,,,,,,,,,,,,,,,,,,,,,,,,,,,,,,,,,,,,,,,,,,,,,,,,,,,,,,,,,,,,,,,,,,,,,,,,,,,,,,,,,,,,,,,,,,,,,,,,,,,,,,,,,,,,,,,,,,,,,,,,,,,,,,,,,,,,,,,,,,,,,,,,,,,
,,,,,,5ef211cba33a988a6311bc67,62c539ef3ede2ab943e36d3f,2022-07-06_09h30.04.544,Colour_Asymmetry_Pilot,2022.1.3,Win32,59.29791271,62c50e9c1127f2cd403a315f,0,83,83,134,1,fourtwo,,,,,,,,,,,,,,,,,,,,,,,,,,,,,,,,,,,,,,,,,,,,,,,,,,,,,,,,,,,,,,,,,,,,,,,,,,,,,,,,,,,,,,,,,,,,,,,,,,,,,,,,,,,,,,,,,,,,,,,,,,,,,,,,,,,,,,,,,,,,,,,,,,,,,,,,,,,,,
,,,,,,5ef211cba33a988a6311bc67,62c539ef3ede2ab943e36d3f,2022-07-06_09h30.04.544,Colour_Asymmetry_Pilot,2022.1.3,Win32,59.29791271,62c50e9c1127f2cd403a315f,0,84,84,98,1,twoone,,,,,,,,,,,,,,,,,,,,,,,,,,,,,,,,,,,,,,,,,,,,,,,,,,,,,,,,,,,,,,,,,,,,,,,,,,,,,,,,,,,,,,,,,,,,,,,,,,,,,,,,,,,,,,,,,,,,,,,,,,,,,,,,,,,,,,,,,,,,,,,,,,,,,,,,,,,,,
,,,,,,5ef211cba33a988a6311bc67,62c539ef3ede2ab943e36d3f,2022-07-06_09h30.04.544,Colour_Asymmetry_Pilot,2022.1.3,Win32,59.29791271,62c50e9c1127f2cd403a315f,0,85,85,115,1,twofour,,,,,,,,,,,,,,,,,,,,,,,,,,,,,,,,,,,,,,,,,,,,,,,,,,,,,,,,,,,,,,,,,,,,,,,,,,,,,,,,,,,,,,,,,,,,,,,,,,,,,,,,,,,,,,,,,,,,,,,,,,,,,,,,,,,,,,,,,,,,,,,,,,,,,,,,,,,,,
,,,,,,5ef211cba33a988a6311bc67,62c539ef3ede2ab943e36d3f,2022-07-06_09h30.04.544,Colour_Asymmetry_Pilot,2022.1.3,Win32,59.29791271,62c50e9c1127f2cd403a315f,0,86,86,101,1,threefour,,,,,,,,,,,,,,,,,,,,,,,,,,,,,,,,,,,,,,,,,,,,,,,,,,,,,,,,,,,,,,,,,,,,,,,,,,,,,,,,,,,,,,,,,,,,,,,,,,,,,,,,,,,,,,,,,,,,,,,,,,,,,,,,,,,,,,,,,,,,,,,,,,,,,,,,,,,,,
,,,,,,5ef211cba33a988a6311bc67,62c539ef3ede2ab943e36d3f,2022-07-06_09h30.04.544,Colour_Asymmetry_Pilot,2022.1.3,Win32,59.29791271,62c50e9c1127f2cd403a315f,0,87,87,123,1,twofour,,,,,,,,,,,,,,,,,,,,,,,,,,,,,,,,,,,,,,,,,,,,,,,,,,,,,,,,,,,,,,,,,,,,,,,,,,,,,,,,,,,,,,,,,,,,,,,,,,,,,,,,,,,,,,,,,,,,,,,,,,,,,,,,,,,,,,,,,,,,,,,,,,,,,,,,,,,,,
,,,,,,5ef211cba33a988a6311bc67,62c539ef3ede2ab943e36d3f,2022-07-06_09h30.04.544,Colour_Asymmetry_Pilot,2022.1.3,Win32,59.29791271,62c50e9c1127f2cd403a315f,0,88,88,153,1,onethree,,,,,,,,,,,,,,,,,,,,,,,,,,,,,,,,,,,,,,,,,,,,,,,,,,,,,,,,,,,,,,,,,,,,,,,,,,,,,,,,,,,,,,,,,,,,,,,,,,,,,,,,,,,,,,,,,,,,,,,,,,,,,,,,,,,,,,,,,,,,,,,,,,,,,,,,,,,,,
,,,,,,5ef211cba33a988a6311bc67,62c539ef3ede2ab943e36d3f,2022-07-06_09h30.04.544,Colour_Asymmetry_Pilot,2022.1.3,Win32,59.29791271,62c50e9c1127f2cd403a315f,0,89,89,42,1,twoone,,,,,,,,,,,,,,,,,,,,,,,,,,,,,,,,,,,,,,,,,,,,,,,,,,,,,,,,,,,,,,,,,,,,,,,,,,,,,,,,,,,,,,,,,,,,,,,,,,,,,,,,,,,,,,,,,,,,,,,,,,,,,,,,,,,,,,,,,,,,,,,,,,,,,,,,,,,,,
,,,,,,5ef211cba33a988a6311bc67,62c539ef3ede2ab943e36d3f,2022-07-06_09h30.04.544,Colour_Asymmetry_Pilot,2022.1.3,Win32,59.29791271,62c50e9c1127f2cd403a315f,0,90,90,38,1,fourtwo,,,,,,,,,,,,,,,,,,,,,,,,,,,,,,,,,,,,,,,,,,,,,,,,,,,,,,,,,,,,,,,,,,,,,,,,,,,,,,,,,,,,,,,,,,,,,,,,,,,,,,,,,,,,,,,,,,,,,,,,,,,,,,,,,,,,,,,,,,,,,,,,,,,,,,,,,,,,,
,,,,,,5ef211cba33a988a6311bc67,62c539ef3ede2ab943e36d3f,2022-07-06_09h30.04.544,Colour_Asymmetry_Pilot,2022.1.3,Win32,59.29791271,62c50e9c1127f2cd403a315f,0,91,91,136,1,onetwo,,,,,,,,,,,,,,,,,,,,,,,,,,,,,,,,,,,,,,,,,,,,,,,,,,,,,,,,,,,,,,,,,,,,,,,,,,,,,,,,,,,,,,,,,,,,,,,,,,,,,,,,,,,,,,,,,,,,,,,,,,,,,,,,,,,,,,,,,,,,,,,,,,,,,,,,,,,,,
,,,,,,5ef211cba33a988a6311bc67,62c539ef3ede2ab943e36d3f,2022-07-06_09h30.04.544,Colour_Asymmetry_Pilot,2022.1.3,Win32,59.29791271,62c50e9c1127f2cd403a315f,0,92,92,151,1,fourthree,,,,,,,,,,,,,,,,,,,,,,,,,,,,,,,,,,,,,,,,,,,,,,,,,,,,,,,,,,,,,,,,,,,,,,,,,,,,,,,,,,,,,,,,,,,,,,,,,,,,,,,,,,,,,,,,,,,,,,,,,,,,,,,,,,,,,,,,,,,,,,,,,,,,,,,,,,,,,
,,,,,,5ef211cba33a988a6311bc67,62c539ef3ede2ab943e36d3f,2022-07-06_09h30.04.544,Colour_Asymmetry_Pilot,2022.1.3,Win32,59.29791271,62c50e9c1127f2cd403a315f,0,93,93,94,1,fourtwo,,,,,,,,,,,,,,,,,,,,,,,,,,,,,,,,,,,,,,,,,,,,,,,,,,,,,,,,,,,,,,,,,,,,,,,,,,,,,,,,,,,,,,,,,,,,,,,,,,,,,,,,,,,,,,,,,,,,,,,,,,,,,,,,,,,,,,,,,,,,,,,,,,,,,,,,,,,,,
,,,,,,5ef211cba33a988a6311bc67,62c539ef3ede2ab943e36d3f,2022-07-06_09h30.04.544,Colour_Asymmetry_Pilot,2022.1.3,Win32,59.29791271,62c50e9c1127f2cd403a315f,0,94,94,75,1,twofour,,,,,,,,,,,,,,,,,,,,,,,,,,,,,,,,,,,,,,,,,,,,,,,,,,,,,,,,,,,,,,,,,,,,,,,,,,,,,,,,,,,,,,,,,,,,,,,,,,,,,,,,,,,,,,,,,,,,,,,,,,,,,,,,,,,,,,,,,,,,,,,,,,,,,,,,,,,,,
,,,,,,5ef211cba33a988a6311bc67,62c539ef3ede2ab943e36d3f,2022-07-06_09h30.04.544,Colour_Asymmetry_Pilot,2022.1.3,Win32,59.29791271,62c50e9c1127f2cd403a315f,0,95,95,147,1,twofour,,,,,,,,,,,,,,,,,,,,,,,,,,,,,,,,,,,,,,,,,,,,,,,,,,,,,,,,,,,,,,,,,,,,,,,,,,,,,,,,,,,,,,,,,,,,,,,,,,,,,,,,,,,,,,,,,,,,,,,,,,,,,,,,,,,,,,,,,,,,,,,,,,,,,,,,,,,,,
,,,,,,5ef211cba33a988a6311bc67,62c539ef3ede2ab943e36d3f,2022-07-06_09h30.04.544,Colour_Asymmetry_Pilot,2022.1.3,Win32,59.29791271,62c50e9c1127f2cd403a315f,0,96,96,64,1,onetwo,,,,,,,,,,,,,,,,,,,,,,,,,,,,,,,,,,,,,,,,,,,,,,,,,,,,,,,,,,,,,,,,,,,,,,,,,,,,,,,,,,,,,,,,,,,,,,,,,,,,,,,,,,,,,,,,,,,,,,,,,,,,,,,,,,,,,,,,,,,,,,,,,,,,,,,,,,,,,
,,,,,,5ef211cba33a988a6311bc67,62c539ef3ede2ab943e36d3f,2022-07-06_09h30.04.544,Colour_Asymmetry_Pilot,2022.1.3,Win32,59.29791271,62c50e9c1127f2cd403a315f,0,97,97,9,1,onethree,,,,,,,,,,,,,,,,,,,,,,,,,,,,,,,,,,,,,,,,,,,,,,,,,,,,,,,,,,,,,,,,,,,,,,,,,,,,,,,,,,,,,,,,,,,,,,,,,,,,,,,,,,,,,,,,,,,,,,,,,,,,,,,,,,,,,,,,,,,,,,,,,,,,,,,,,,,,,
,,,,,,5ef211cba33a988a6311bc67,62c539ef3ede2ab943e36d3f,2022-07-06_09h30.04.544,Colour_Asymmetry_Pilot,2022.1.3,Win32,59.29791271,62c50e9c1127f2cd403a315f,0,98,98,68,1,threeone,,,,,,,,,,,,,,,,,,,,,,,,,,,,,,,,,,,,,,,,,,,,,,,,,,,,,,,,,,,,,,,,,,,,,,,,,,,,,,,,,,,,,,,,,,,,,,,,,,,,,,,,,,,,,,,,,,,,,,,,,,,,,,,,,,,,,,,,,,,,,,,,,,,,,,,,,,,,,
,,,,,,5ef211cba33a988a6311bc67,62c539ef3ede2ab943e36d3f,2022-07-06_09h30.04.544,Colour_Asymmetry_Pilot,2022.1.3,Win32,59.29791271,62c50e9c1127f2cd403a315f,0,99,99,102,1,fourtwo,,,,,,,,,,,,,,,,,,,,,,,,,,,,,,,,,,,,,,,,,,,,,,,,,,,,,,,,,,,,,,,,,,,,,,,,,,,,,,,,,,,,,,,,,,,,,,,,,,,,,,,,,,,,,,,,,,,,,,,,,,,,,,,,,,,,,,,,,,,,,,,,,,,,,,,,,,,,,
,,,,,,5ef211cba33a988a6311bc67,62c539ef3ede2ab943e36d3f,2022-07-06_09h30.04.544,Colour_Asymmetry_Pilot,2022.1.3,Win32,59.29791271,62c50e9c1127f2cd403a315f,0,100,100,126,1,fourtwo,,,,,,,,,,,,,,,,,,,,,,,,,,,,,,,,,,,,,,,,,,,,,,,,,,,,,,,,,,,,,,,,,,,,,,,,,,,,,,,,,,,,,,,,,,,,,,,,,,,,,,,,,,,,,,,,,,,,,,,,,,,,,,,,,,,,,,,,,,,,,,,,,,,,,,,,,,,,,
,,,,,,5ef211cba33a988a6311bc67,62c539ef3ede2ab943e36d3f,2022-07-06_09h30.04.544,Colour_Asymmetry_Pilot,2022.1.3,Win32,59.29791271,62c50e9c1127f2cd403a315f,0,101,101,50,1,twoone,,,,,,,,,,,,,,,,,,,,,,,,,,,,,,,,,,,,,,,,,,,,,,,,,,,,,,,,,,,,,,,,,,,,,,,,,,,,,,,,,,,,,,,,,,,,,,,,,,,,,,,,,,,,,,,,,,,,,,,,,,,,,,,,,,,,,,,,,,,,,,,,,,,,,,,,,,,,,
,,,,,,5ef211cba33a988a6311bc67,62c539ef3ede2ab943e36d3f,2022-07-06_09h30.04.544,Colour_Asymmetry_Pilot,2022.1.3,Win32,59.29791271,62c50e9c1127f2cd403a315f,0,102,102,81,1,onethree,,,,,,,,,,,,,,,,,,,,,,,,,,,,,,,,,,,,,,,,,,,,,,,,,,,,,,,,,,,,,,,,,,,,,,,,,,,,,,,,,,,,,,,,,,,,,,,,,,,,,,,,,,,,,,,,,,,,,,,,,,,,,,,,,,,,,,,,,,,,,,,,,,,,,,,,,,,,,
,,,,,,5ef211cba33a988a6311bc67,62c539ef3ede2ab943e36d3f,2022-07-06_09h30.04.544,Colour_Asymmetry_Pilot,2022.1.3,Win32,59.29791271,62c50e9c1127f2cd403a315f,0,103,103,112,1,onetwo,,,,,,,,,,,,,,,,,,,,,,,,,,,,,,,,,,,,,,,,,,,,,,,,,,,,,,,,,,,,,,,,,,,,,,,,,,,,,,,,,,,,,,,,,,,,,,,,,,,,,,,,,,,,,,,,,,,,,,,,,,,,,,,,,,,,,,,,,,,,,,,,,,,,,,,,,,,,,
,,,,,,5ef211cba33a988a6311bc67,62c539ef3ede2ab943e36d3f,2022-07-06_09h30.04.544,Colour_Asymmetry_Pilot,2022.1.3,Win32,59.29791271,62c50e9c1127f2cd403a315f,0,104,104,41,1,onethree,,,,,,,,,,,,,,,,,,,,,,,,,,,,,,,,,,,,,,,,,,,,,,,,,,,,,,,,,,,,,,,,,,,,,,,,,,,,,,,,,,,,,,,,,,,,,,,,,,,,,,,,,,,,,,,,,,,,,,,,,,,,,,,,,,,,,,,,,,,,,,,,,,,,,,,,,,,,,
,,,,,,5ef211cba33a988a6311bc67,62c539ef3ede2ab943e36d3f,2022-07-06_09h30.04.544,Colour_Asymmetry_Pilot,2022.1.3,Win32,59.29791271,62c50e9c1127f2cd403a315f,0,105,105,70,1,fourtwo,,,,,,,,,,,,,,,,,,,,,,,,,,,,,,,,,,,,,,,,,,,,,,,,,,,,,,,,,,,,,,,,,,,,,,,,,,,,,,,,,,,,,,,,,,,,,,,,,,,,,,,,,,,,,,,,,,,,,,,,,,,,,,,,,,,,,,,,,,,,,,,,,,,,,,,,,,,,,
,,,,,,5ef211cba33a988a6311bc67,62c539ef3ede2ab943e36d3f,2022-07-06_09h30.04.544,Colour_Asymmetry_Pilot,2022.1.3,Win32,59.29791271,62c50e9c1127f2cd403a315f,0,106,106,44,1,threeone,,,,,,,,,,,,,,,,,,,,,,,,,,,,,,,,,,,,,,,,,,,,,,,,,,,,,,,,,,,,,,,,,,,,,,,,,,,,,,,,,,,,,,,,,,,,,,,,,,,,,,,,,,,,,,,,,,,,,,,,,,,,,,,,,,,,,,,,,,,,,,,,,,,,,,,,,,,,,
,,,,,,5ef211cba33a988a6311bc67,62c539ef3ede2ab943e36d3f,2022-07-06_09h30.04.544,Colour_Asymmetry_Pilot,2022.1.3,Win32,59.29791271,62c50e9c1127f2cd403a315f,0,107,107,2,1,twoone,,,,,,,,,,,,,,,,,,,,,,,,,,,,,,,,,,,,,,,,,,,,,,,,,,,,,,,,,,,,,,,,,,,,,,,,,,,,,,,,,,,,,,,,,,,,,,,,,,,,,,,,,,,,,,,,,,,,,,,,,,,,,,,,,,,,,,,,,,,,,,,,,,,,,,,,,,,,,
,,,,,,5ef211cba33a988a6311bc67,62c539ef3ede2ab943e36d3f,2022-07-06_09h30.04.544,Colour_Asymmetry_Pilot,2022.1.3,Win32,59.29791271,62c50e9c1127f2cd403a315f,0,108,108,113,1,onethree,,,,,,,,,,,,,,,,,,,,,,,,,,,,,,,,,,,,,,,,,,,,,,,,,,,,,,,,,,,,,,,,,,,,,,,,,,,,,,,,,,,,,,,,,,,,,,,,,,,,,,,,,,,,,,,,,,,,,,,,,,,,,,,,,,,,,,,,,,,,,,,,,,,,,,,,,,,,,
,,,,,,5ef211cba33a988a6311bc67,62c539ef3ede2ab943e36d3f,2022-07-06_09h30.04.544,Colour_Asymmetry_Pilot,2022.1.3,Win32,59.29791271,62c50e9c1127f2cd403a315f,0,109,109,20,1,threeone,,,,,,,,,,,,,,,,,,,,,,,,,,,,,,,,,,,,,,,,,,,,,,,,,,,,,,,,,,,,,,,,,,,,,,,,,,,,,,,,,,,,,,,,,,,,,,,,,,,,,,,,,,,,,,,,,,,,,,,,,,,,,,,,,,,,,,,,,,,,,,,,,,,,,,,,,,,,,
,,,,,,5ef211cba33a988a6311bc67,62c539ef3ede2ab943e36d3f,2022-07-06_09h30.04.544,Colour_Asymmetry_Pilot,2022.1.3,Win32,59.29791271,62c50e9c1127f2cd403a315f,0,110,110,43,1,twofour,,,,,,,,,,,,,,,,,,,,,,,,,,,,,,,,,,,,,,,,,,,,,,,,,,,,,,,,,,,,,,,,,,,,,,,,,,,,,,,,,,,,,,,,,,,,,,,,,,,,,,,,,,,,,,,,,,,,,,,,,,,,,,,,,,,,,,,,,,,,,,,,,,,,,,,,,,,,,
,,,,,,5ef211cba33a988a6311bc67,62c539ef3ede2ab943e36d3f,2022-07-06_09h30.04.544,Colour_Asymmetry_Pilot,2022.1.3,Win32,59.29791271,62c50e9c1127f2cd403a315f,0,111,111,59,1,twofour,,,,,,,,,,,,,,,,,,,,,,,,,,,,,,,,,,,,,,,,,,,,,,,,,,,,,,,,,,,,,,,,,,,,,,,,,,,,,,,,,,,,,,,,,,,,,,,,,,,,,,,,,,,,,,,,,,,,,,,,,,,,,,,,,,,,,,,,,,,,,,,,,,,,,,,,,,,,,
,,,,,,5ef211cba33a988a6311bc67,62c539ef3ede2ab943e36d3f,2022-07-06_09h30.04.544,Colour_Asymmetry_Pilot,2022.1.3,Win32,59.29791271,62c50e9c1127f2cd403a315f,0,112,112,37,1,threefour,,,,,,,,,,,,,,,,,,,,,,,,,,,,,,,,,,,,,,,,,,,,,,,,,,,,,,,,,,,,,,,,,,,,,,,,,,,,,,,,,,,,,,,,,,,,,,,,,,,,,,,,,,,,,,,,,,,,,,,,,,,,,,,,,,,,,,,,,,,,,,,,,,,,,,,,,,,,,
,,,,,,5ef211cba33a988a6311bc67,62c539ef3ede2ab943e36d3f,2022-07-06_09h30.04.544,Colour_Asymmetry_Pilot,2022.1.3,Win32,59.29791271,62c50e9c1127f2cd403a315f,0,113,113,122,1,twoone,,,,,,,,,,,,,,,,,,,,,,,,,,,,,,,,,,,,,,,,,,,,,,,,,,,,,,,,,,,,,,,,,,,,,,,,,,,,,,,,,,,,,,,,,,,,,,,,,,,,,,,,,,,,,,,,,,,,,,,,,,,,,,,,,,,,,,,,,,,,,,,,,,,,,,,,,,,,,
,,,,,,5ef211cba33a988a6311bc67,62c539ef3ede2ab943e36d3f,2022-07-06_09h30.04.544,Colour_Asymmetry_Pilot,2022.1.3,Win32,59.29791271,62c50e9c1127f2cd403a315f,0,114,114,65,1,onethree,,,,,,,,,,,,,,,,,,,,,,,,,,,,,,,,,,,,,,,,,,,,,,,,,,,,,,,,,,,,,,,,,,,,,,,,,,,,,,,,,,,,,,,,,,,,,,,,,,,,,,,,,,,,,,,,,,,,,,,,,,,,,,,,,,,,,,,,,,,,,,,,,,,,,,,,,,,,,
,,,,,,5ef211cba33a988a6311bc67,62c539ef3ede2ab943e36d3f,2022-07-06_09h30.04.544,Colour_Asymmetry_Pilot,2022.1.3,Win32,59.29791271,62c50e9c1127f2cd403a315f,0,115,115,15,1,fourthree,,,,,,,,,,,,,,,,,,,,,,,,,,,,,,,,,,,,,,,,,,,,,,,,,,,,,,,,,,,,,,,,,,,,,,,,,,,,,,,,,,,,,,,,,,,,,,,,,,,,,,,,,,,,,,,,,,,,,,,,,,,,,,,,,,,,,,,,,,,,,,,,,,,,,,,,,,,,,
,,,,,,5ef211cba33a988a6311bc67,62c539ef3ede2ab943e36d3f,2022-07-06_09h30.04.544,Colour_Asymmetry_Pilot,2022.1.3,Win32,59.29791271,62c50e9c1127f2cd403a315f,0,116,116,119,1,fourthree,,,,,,,,,,,,,,,,,,,,,,,,,,,,,,,,,,,,,,,,,,,,,,,,,,,,,,,,,,,,,,,,,,,,,,,,,,,,,,,,,,,,,,,,,,,,,,,,,,,,,,,,,,,,,,,,,,,,,,,,,,,,,,,,,,,,,,,,,,,,,,,,,,,,,,,,,,,,,
,,,,,,5ef211cba33a988a6311bc67,62c539ef3ede2ab943e36d3f,2022-07-06_09h30.04.544,Colour_Asymmetry_Pilot,2022.1.3,Win32,59.29791271,62c50e9c1127f2cd403a315f,0,117,117,10,1,twoone,,,,,,,,,,,,,,,,,,,,,,,,,,,,,,,,,,,,,,,,,,,,,,,,,,,,,,,,,,,,,,,,,,,,,,,,,,,,,,,,,,,,,,,,,,,,,,,,,,,,,,,,,,,,,,,,,,,,,,,,,,,,,,,,,,,,,,,,,,,,,,,,,,,,,,,,,,,,,
,,,,,,5ef211cba33a988a6311bc67,62c539ef3ede2ab943e36d3f,2022-07-06_09h30.04.544,Colour_Asymmetry_Pilot,2022.1.3,Win32,59.29791271,62c50e9c1127f2cd403a315f,0,118,118,146,1,twoone,,,,,,,,,,,,,,,,,,,,,,,,,,,,,,,,,,,,,,,,,,,,,,,,,,,,,,,,,,,,,,,,,,,,,,,,,,,,,,,,,,,,,,,,,,,,,,,,,,,,,,,,,,,,,,,,,,,,,,,,,,,,,,,,,,,,,,,,,,,,,,,,,,,,,,,,,,,,,
,,,,,,5ef211cba33a988a6311bc67,62c539ef3ede2ab943e36d3f,2022-07-06_09h30.04.544,Colour_Asymmetry_Pilot,2022.1.3,Win32,59.29791271,62c50e9c1127f2cd403a315f,0,119,119,12,1,threeone,,,,,,,,,,,,,,,,,,,,,,,,,,,,,,,,,,,,,,,,,,,,,,,,,,,,,,,,,,,,,,,,,,,,,,,,,,,,,,,,,,,,,,,,,,,,,,,,,,,,,,,,,,,,,,,,,,,,,,,,,,,,,,,,,,,,,,,,,,,,,,,,,,,,,,,,,,,,,
,,,,,,5ef211cba33a988a6311bc67,62c539ef3ede2ab943e36d3f,2022-07-06_09h30.04.544,Colour_Asymmetry_Pilot,2022.1.3,Win32,59.29791271,62c50e9c1127f2cd403a315f,0,120,120,111,1,fourthree,,,,,,,,,,,,,,,,,,,,,,,,,,,,,,,,,,,,,,,,,,,,,,,,,,,,,,,,,,,,,,,,,,,,,,,,,,,,,,,,,,,,,,,,,,,,,,,,,,,,,,,,,,,,,,,,,,,,,,,,,,,,,,,,,,,,,,,,,,,,,,,,,,,,,,,,,,,,,
,,,,,,5ef211cba33a988a6311bc67,62c539ef3ede2ab943e36d3f,2022-07-06_09h30.04.544,Colour_Asymmetry_Pilot,2022.1.3,Win32,59.29791271,62c50e9c1127f2cd403a315f,0,121,121,3,1,twofour,,,,,,,,,,,,,,,,,,,,,,,,,,,,,,,,,,,,,,,,,,,,,,,,,,,,,,,,,,,,,,,,,,,,,,,,,,,,,,,,,,,,,,,,,,,,,,,,,,,,,,,,,,,,,,,,,,,,,,,,,,,,,,,,,,,,,,,,,,,,,,,,,,,,,,,,,,,,,
,,,,,,5ef211cba33a988a6311bc67,62c539ef3ede2ab943e36d3f,2022-07-06_09h30.04.544,Colour_Asymmetry_Pilot,2022.1.3,Win32,59.29791271,62c50e9c1127f2cd403a315f,0,122,122,137,1,onethree,,,,,,,,,,,,,,,,,,,,,,,,,,,,,,,,,,,,,,,,,,,,,,,,,,,,,,,,,,,,,,,,,,,,,,,,,,,,,,,,,,,,,,,,,,,,,,,,,,,,,,,,,,,,,,,,,,,,,,,,,,,,,,,,,,,,,,,,,,,,,,,,,,,,,,,,,,,,,
,,,,,,5ef211cba33a988a6311bc67,62c539ef3ede2ab943e36d3f,2022-07-06_09h30.04.544,Colour_Asymmetry_Pilot,2022.1.3,Win32,59.29791271,62c50e9c1127f2cd403a315f,0,123,123,22,1,fourtwo,,,,,,,,,,,,,,,,,,,,,,,,,,,,,,,,,,,,,,,,,,,,,,,,,,,,,,,,,,,,,,,,,,,,,,,,,,,,,,,,,,,,,,,,,,,,,,,,,,,,,,,,,,,,,,,,,,,,,,,,,,,,,,,,,,,,,,,,,,,,,,,,,,,,,,,,,,,,,
,,,,,,5ef211cba33a988a6311bc67,62c539ef3ede2ab943e36d3f,2022-07-06_09h30.04.544,Colour_Asymmetry_Pilot,2022.1.3,Win32,59.29791271,62c50e9c1127f2cd403a315f,0,124,124,63,1,fourthree,,,,,,,,,,,,,,,,,,,,,,,,,,,,,,,,,,,,,,,,,,,,,,,,,,,,,,,,,,,,,,,,,,,,,,,,,,,,,,,,,,,,,,,,,,,,,,,,,,,,,,,,,,,,,,,,,,,,,,,,,,,,,,,,,,,,,,,,,,,,,,,,,,,,,,,,,,,,,
,,,,,,5ef211cba33a988a6311bc67,62c539ef3ede2ab943e36d3f,2022-07-06_09h30.04.544,Colour_Asymmetry_Pilot,2022.1.3,Win32,59.29791271,62c50e9c1127f2cd403a315f,0,125,125,84,1,threeone,,,,,,,,,,,,,,,,,,,,,,,,,,,,,,,,,,,,,,,,,,,,,,,,,,,,,,,,,,,,,,,,,,,,,,,,,,,,,,,,,,,,,,,,,,,,,,,,,,,,,,,,,,,,,,,,,,,,,,,,,,,,,,,,,,,,,,,,,,,,,,,,,,,,,,,,,,,,,
,,,,,,5ef211cba33a988a6311bc67,62c539ef3ede2ab943e36d3f,2022-07-06_09h30.04.544,Colour_Asymmetry_Pilot,2022.1.3,Win32,59.29791271,62c50e9c1127f2cd403a315f,0,126,126,140,1,threeone,,,,,,,,,,,,,,,,,,,,,,,,,,,,,,,,,,,,,,,,,,,,,,,,,,,,,,,,,,,,,,,,,,,,,,,,,,,,,,,,,,,,,,,,,,,,,,,,,,,,,,,,,,,,,,,,,,,,,,,,,,,,,,,,,,,,,,,,,,,,,,,,,,,,,,,,,,,,,
,,,,,,5ef211cba33a988a6311bc67,62c539ef3ede2ab943e36d3f,2022-07-06_09h30.04.544,Colour_Asymmetry_Pilot,2022.1.3,Win32,59.29791271,62c50e9c1127f2cd403a315f,0,127,127,24,1,onetwo,,,,,,,,,,,,,,,,,,,,,,,,,,,,,,,,,,,,,,,,,,,,,,,,,,,,,,,,,,,,,,,,,,,,,,,,,,,,,,,,,,,,,,,,,,,,,,,,,,,,,,,,,,,,,,,,,,,,,,,,,,,,,,,,,,,,,,,,,,,,,,,,,,,,,,,,,,,,,
,,,,,,5ef211cba33a988a6311bc67,62c539ef3ede2ab943e36d3f,2022-07-06_09h30.04.544,Colour_Asymmetry_Pilot,2022.1.3,Win32,59.29791271,62c50e9c1127f2cd403a315f,0,128,128,141,1,threefour,,,,,,,,,,,,,,,,,,,,,,,,,,,,,,,,,,,,,,,,,,,,,,,,,,,,,,,,,,,,,,,,,,,,,,,,,,,,,,,,,,,,,,,,,,,,,,,,,,,,,,,,,,,,,,,,,,,,,,,,,,,,,,,,,,,,,,,,,,,,,,,,,,,,,,,,,,,,,
,,,,,,5ef211cba33a988a6311bc67,62c539ef3ede2ab943e36d3f,2022-07-06_09h30.04.544,Colour_Asymmetry_Pilot,2022.1.3,Win32,59.29791271,62c50e9c1127f2cd403a315f,0,129,129,135,1,fourthree,,,,,,,,,,,,,,,,,,,,,,,,,,,,,,,,,,,,,,,,,,,,,,,,,,,,,,,,,,,,,,,,,,,,,,,,,,,,,,,,,,,,,,,,,,,,,,,,,,,,,,,,,,,,,,,,,,,,,,,,,,,,,,,,,,,,,,,,,,,,,,,,,,,,,,,,,,,,,
,,,,,,5ef211cba33a988a6311bc67,62c539ef3ede2ab943e36d3f,2022-07-06_09h30.04.544,Colour_Asymmetry_Pilot,2022.1.3,Win32,59.29791271,62c50e9c1127f2cd403a315f,0,130,130,161,1,onethree,,,,,,,,,,,,,,,,,,,,,,,,,,,,,,,,,,,,,,,,,,,,,,,,,,,,,,,,,,,,,,,,,,,,,,,,,,,,,,,,,,,,,,,,,,,,,,,,,,,,,,,,,,,,,,,,,,,,,,,,,,,,,,,,,,,,,,,,,,,,,,,,,,,,,,,,,,,,,
,,,,,,5ef211cba33a988a6311bc67,62c539ef3ede2ab943e36d3f,2022-07-06_09h30.04.544,Colour_Asymmetry_Pilot,2022.1.3,Win32,59.29791271,62c50e9c1127f2cd403a315f,0,131,131,60,1,threeone,,,,,,,,,,,,,,,,,,,,,,,,,,,,,,,,,,,,,,,,,,,,,,,,,,,,,,,,,,,,,,,,,,,,,,,,,,,,,,,,,,,,,,,,,,,,,,,,,,,,,,,,,,,,,,,,,,,,,,,,,,,,,,,,,,,,,,,,,,,,,,,,,,,,,,,,,,,,,
,,,,,,5ef211cba33a988a6311bc67,62c539ef3ede2ab943e36d3f,2022-07-06_09h30.04.544,Colour_Asymmetry_Pilot,2022.1.3,Win32,59.29791271,62c50e9c1127f2cd403a315f,0,132,132,91,1,twofour,,,,,,,,,,,,,,,,,,,,,,,,,,,,,,,,,,,,,,,,,,,,,,,,,,,,,,,,,,,,,,,,,,,,,,,,,,,,,,,,,,,,,,,,,,,,,,,,,,,,,,,,,,,,,,,,,,,,,,,,,,,,,,,,,,,,,,,,,,,,,,,,,,,,,,,,,,,,,
,,,,,,5ef211cba33a988a6311bc67,62c539ef3ede2ab943e36d3f,2022-07-06_09h30.04.544,Colour_Asymmetry_Pilot,2022.1.3,Win32,59.29791271,62c50e9c1127f2cd403a315f,0,133,133,51,1,twofour,,,,,,,,,,,,,,,,,,,,,,,,,,,,,,,,,,,,,,,,,,,,,,,,,,,,,,,,,,,,,,,,,,,,,,,,,,,,,,,,,,,,,,,,,,,,,,,,,,,,,,,,,,,,,,,,,,,,,,,,,,,,,,,,,,,,,,,,,,,,,,,,,,,,,,,,,,,,,
,,,,,,5ef211cba33a988a6311bc67,62c539ef3ede2ab943e36d3f,2022-07-06_09h30.04.544,Colour_Asymmetry_Pilot,2022.1.3,Win32,59.29791271,62c50e9c1127f2cd403a315f,0,134,134,100,1,threeone,,,,,,,,,,,,,,,,,,,,,,,,,,,,,,,,,,,,,,,,,,,,,,,,,,,,,,,,,,,,,,,,,,,,,,,,,,,,,,,,,,,,,,,,,,,,,,,,,,,,,,,,,,,,,,,,,,,,,,,,,,,,,,,,,,,,,,,,,,,,,,,,,,,,,,,,,,,,,
,,,,,,5ef211cba33a988a6311bc67,62c539ef3ede2ab943e36d3f,2022-07-06_09h30.04.544,Colour_Asymmetry_Pilot,2022.1.3,Win32,59.29791271,62c50e9c1127f2cd403a315f,0,135,135,143,1,fourthree,,,,,,,,,,,,,,,,,,,,,,,,,,,,,,,,,,,,,,,,,,,,,,,,,,,,,,,,,,,,,,,,,,,,,,,,,,,,,,,,,,,,,,,,,,,,,,,,,,,,,,,,,,,,,,,,,,,,,,,,,,,,,,,,,,,,,,,,,,,,,,,,,,,,,,,,,,,,,
,,,,,,5ef211cba33a988a6311bc67,62c539ef3ede2ab943e36d3f,2022-07-06_09h30.04.544,Colour_Asymmetry_Pilot,2022.1.3,Win32,59.29791271,62c50e9c1127f2cd403a315f,0,136,136,73,1,onethree,,,,,,,,,,,,,,,,,,,,,,,,,,,,,,,,,,,,,,,,,,,,,,,,,,,,,,,,,,,,,,,,,,,,,,,,,,,,,,,,,,,,,,,,,,,,,,,,,,,,,,,,,,,,,,,,,,,,,,,,,,,,,,,,,,,,,,,,,,,,,,,,,,,,,,,,,,,,,
,,,,,,5ef211cba33a988a6311bc67,62c539ef3ede2ab943e36d3f,2022-07-06_09h30.04.544,Colour_Asymmetry_Pilot,2022.1.3,Win32,59.29791271,62c50e9c1127f2cd403a315f,0,137,137,69,1,threefour,,,,,,,,,,,,,,,,,,,,,,,,,,,,,,,,,,,,,,,,,,,,,,,,,,,,,,,,,,,,,,,,,,,,,,,,,,,,,,,,,,,,,,,,,,,,,,,,,,,,,,,,,,,,,,,,,,,,,,,,,,,,,,,,,,,,,,,,,,,,,,,,,,,,,,,,,,,,,
,,,,,,5ef211cba33a988a6311bc67,62c539ef3ede2ab943e36d3f,2022-07-06_09h30.04.544,Colour_Asymmetry_Pilot,2022.1.3,Win32,59.29791271,62c50e9c1127f2cd403a315f,0,138,138,133,1,threefour,,,,,,,,,,,,,,,,,,,,,,,,,,,,,,,,,,,,,,,,,,,,,,,,,,,,,,,,,,,,,,,,,,,,,,,,,,,,,,,,,,,,,,,,,,,,,,,,,,,,,,,,,,,,,,,,,,,,,,,,,,,,,,,,,,,,,,,,,,,,,,,,,,,,,,,,,,,,,
,,,,,,5ef211cba33a988a6311bc67,62c539ef3ede2ab943e36d3f,2022-07-06_09h30.04.544,Colour_Asymmetry_Pilot,2022.1.3,Win32,59.29791271,62c50e9c1127f2cd403a315f,0,139,139,40,1,onetwo,,,,,,,,,,,,,,,,,,,,,,,,,,,,,,,,,,,,,,,,,,,,,,,,,,,,,,,,,,,,,,,,,,,,,,,,,,,,,,,,,,,,,,,,,,,,,,,,,,,,,,,,,,,,,,,,,,,,,,,,,,,,,,,,,,,,,,,,,,,,,,,,,,,,,,,,,,,,,
,,,,,,5ef211cba33a988a6311bc67,62c539ef3ede2ab943e36d3f,2022-07-06_09h30.04.544,Colour_Asymmetry_Pilot,2022.1.3,Win32,59.29791271,62c50e9c1127f2cd403a315f,0,140,140,105,1,onethree,,,,,,,,,,,,,,,,,,,,,,,,,,,,,,,,,,,,,,,,,,,,,,,,,,,,,,,,,,,,,,,,,,,,,,,,,,,,,,,,,,,,,,,,,,,,,,,,,,,,,,,,,,,,,,,,,,,,,,,,,,,,,,,,,,,,,,,,,,,,,,,,,,,,,,,,,,,,,
,,,,,,5ef211cba33a988a6311bc67,62c539ef3ede2ab943e36d3f,2022-07-06_09h30.04.544,Colour_Asymmetry_Pilot,2022.1.3,Win32,59.29791271,62c50e9c1127f2cd403a315f,0,141,141,139,1,twofour,,,,,,,,,,,,,,,,,,,,,,,,,,,,,,,,,,,,,,,,,,,,,,,,,,,,,,,,,,,,,,,,,,,,,,,,,,,,,,,,,,,,,,,,,,,,,,,,,,,,,,,,,,,,,,,,,,,,,,,,,,,,,,,,,,,,,,,,,,,,,,,,,,,,,,,,,,,,,
,,,,,,5ef211cba33a988a6311bc67,62c539ef3ede2ab943e36d3f,2022-07-06_09h30.04.544,Colour_Asymmetry_Pilot,2022.1.3,Win32,59.29791271,62c50e9c1127f2cd403a315f,0,142,142,5,1,threefour,,,,,,,,,,,,,,,,,,,,,,,,,,,,,,,,,,,,,,,,,,,,,,,,,,,,,,,,,,,,,,,,,,,,,,,,,,,,,,,,,,,,,,,,,,,,,,,,,,,,,,,,,,,,,,,,,,,,,,,,,,,,,,,,,,,,,,,,,,,,,,,,,,,,,,,,,,,,,
,,,,,,5ef211cba33a988a6311bc67,62c539ef3ede2ab943e36d3f,2022-07-06_09h30.04.544,Colour_Asymmetry_Pilot,2022.1.3,Win32,59.29791271,62c50e9c1127f2cd403a315f,0,143,143,131,1,twofour,,,,,,,,,,,,,,,,,,,,,,,,,,,,,,,,,,,,,,,,,,,,,,,,,,,,,,,,,,,,,,,,,,,,,,,,,,,,,,,,,,,,,,,,,,,,,,,,,,,,,,,,,,,,,,,,,,,,,,,,,,,,,,,,,,,,,,,,,,,,,,,,,,,,,,,,,,,,,
,,,,,,5ef211cba33a988a6311bc67,62c539ef3ede2ab943e36d3f,2022-07-06_09h30.04.544,Colour_Asymmetry_Pilot,2022.1.3,Win32,59.29791271,62c50e9c1127f2cd403a315f,0,144,144,85,1,threefour,,,,,,,,,,,,,,,,,,,,,,,,,,,,,,,,,,,,,,,,,,,,,,,,,,,,,,,,,,,,,,,,,,,,,,,,,,,,,,,,,,,,,,,,,,,,,,,,,,,,,,,,,,,,,,,,,,,,,,,,,,,,,,,,,,,,,,,,,,,,,,,,,,,,,,,,,,,,,
,,,,,,5ef211cba33a988a6311bc67,62c539ef3ede2ab943e36d3f,2022-07-06_09h30.04.544,Colour_Asymmetry_Pilot,2022.1.3,Win32,59.29791271,62c50e9c1127f2cd403a315f,0,145,145,32,1,onetwo,,,,,,,,,,,,,,,,,,,,,,,,,,,,,,,,,,,,,,,,,,,,,,,,,,,,,,,,,,,,,,,,,,,,,,,,,,,,,,,,,,,,,,,,,,,,,,,,,,,,,,,,,,,,,,,,,,,,,,,,,,,,,,,,,,,,,,,,,,,,,,,,,,,,,,,,,,,,,
,,,,,,5ef211cba33a988a6311bc67,62c539ef3ede2ab943e36d3f,2022-07-06_09h30.04.544,Colour_Asymmetry_Pilot,2022.1.3,Win32,59.29791271,62c50e9c1127f2cd403a315f,0,146,146,87,1,fourthree,,,,,,,,,,,,,,,,,,,,,,,,,,,,,,,,,,,,,,,,,,,,,,,,,,,,,,,,,,,,,,,,,,,,,,,,,,,,,,,,,,,,,,,,,,,,,,,,,,,,,,,,,,,,,,,,,,,,,,,,,,,,,,,,,,,,,,,,,,,,,,,,,,,,,,,,,,,,,
,,,,,,5ef211cba33a988a6311bc67,62c539ef3ede2ab943e36d3f,2022-07-06_09h30.04.544,Colour_Asymmetry_Pilot,2022.1.3,Win32,59.29791271,62c50e9c1127f2cd403a315f,0,147,147,72,1,onetwo,,,,,,,,,,,,,,,,,,,,,,,,,,,,,,,,,,,,,,,,,,,,,,,,,,,,,,,,,,,,,,,,,,,,,,,,,,,,,,,,,,,,,,,,,,,,,,,,,,,,,,,,,,,,,,,,,,,,,,,,,,,,,,,,,,,,,,,,,,,,,,,,,,,,,,,,,,,,,
,,,,,,5ef211cba33a988a6311bc67,62c539ef3ede2ab943e36d3f,2022-07-06_09h30.04.544,Colour_Asymmetry_Pilot,2022.1.3,Win32,59.29791271,62c50e9c1127f2cd403a315f,0,148,148,8,1,onetwo,,,,,,,,,,,,,,,,,,,,,,,,,,,,,,,,,,,,,,,,,,,,,,,,,,,,,,,,,,,,,,,,,,,,,,,,,,,,,,,,,,,,,,,,,,,,,,,,,,,,,,,,,,,,,,,,,,,,,,,,,,,,,,,,,,,,,,,,,,,,,,,,,,,,,,,,,,,,,
,,,,,,5ef211cba33a988a6311bc67,62c539ef3ede2ab943e36d3f,2022-07-06_09h30.04.544,Colour_Asymmetry_Pilot,2022.1.3,Win32,59.29791271,62c50e9c1127f2cd403a315f,0,149,149,21,1,threefour,,,,,,,,,,,,,,,,,,,,,,,,,,,,,,,,,,,,,,,,,,,,,,,,,,,,,,,,,,,,,,,,,,,,,,,,,,,,,,,,,,,,,,,,,,,,,,,,,,,,,,,,,,,,,,,,,,,,,,,,,,,,,,,,,,,,,,,,,,,,,,,,,,,,,,,,,,,,,
,,,,,,5ef211cba33a988a6311bc67,62c539ef3ede2ab943e36d3f,2022-07-06_09h30.04.544,Colour_Asymmetry_Pilot,2022.1.3,Win32,59.29791271,62c50e9c1127f2cd403a315f,0,150,150,142,1,fourtwo,,,,,,,,,,,,,,,,,,,,,,,,,,,,,,,,,,,,,,,,,,,,,,,,,,,,,,,,,,,,,,,,,,,,,,,,,,,,,,,,,,,,,,,,,,,,,,,,,,,,,,,,,,,,,,,,,,,,,,,,,,,,,,,,,,,,,,,,,,,,,,,,,,,,,,,,,,,,,
,,,,,,5ef211cba33a988a6311bc67,62c539ef3ede2ab943e36d3f,2022-07-06_09h30.04.544,Colour_Asymmetry_Pilot,2022.1.3,Win32,59.29791271,62c50e9c1127f2cd403a315f,0,151,151,152,1,onetwo,,,,,,,,,,,,,,,,,,,,,,,,,,,,,,,,,,,,,,,,,,,,,,,,,,,,,,,,,,,,,,,,,,,,,,,,,,,,,,,,,,,,,,,,,,,,,,,,,,,,,,,,,,,,,,,,,,,,,,,,,,,,,,,,,,,,,,,,,,,,,,,,,,,,,,,,,,,,,
,,,,,,5ef211cba33a988a6311bc67,62c539ef3ede2ab943e36d3f,2022-07-06_09h30.04.544,Colour_Asymmetry_Pilot,2022.1.3,Win32,59.29791271,62c50e9c1127f2cd403a315f,0,152,152,127,1,fourthree,,,,,,,,,,,,,,,,,,,,,,,,,,,,,,,,,,,,,,,,,,,,,,,,,,,,,,,,,,,,,,,,,,,,,,,,,,,,,,,,,,,,,,,,,,,,,,,,,,,,,,,,,,,,,,,,,,,,,,,,,,,,,,,,,,,,,,,,,,,,,,,,,,,,,,,,,,,,,
,,,,,,5ef211cba33a988a6311bc67,62c539ef3ede2ab943e36d3f,2022-07-06_09h30.04.544,Colour_Asymmetry_Pilot,2022.1.3,Win32,59.29791271,62c50e9c1127f2cd403a315f,0,153,153,4,1,threeone,,,,,,,,,,,,,,,,,,,,,,,,,,,,,,,,,,,,,,,,,,,,,,,,,,,,,,,,,,,,,,,,,,,,,,,,,,,,,,,,,,,,,,,,,,,,,,,,,,,,,,,,,,,,,,,,,,,,,,,,,,,,,,,,,,,,,,,,,,,,,,,,,,,,,,,,,,,,,
,,,,,,5ef211cba33a988a6311bc67,62c539ef3ede2ab943e36d3f,2022-07-06_09h30.04.544,Colour_Asymmetry_Pilot,2022.1.3,Win32,59.29791271,62c50e9c1127f2cd403a315f,0,154,154,148,1,threeone,,,,,,,,,,,,,,,,,,,,,,,,,,,,,,,,,,,,,,,,,,,,,,,,,,,,,,,,,,,,,,,,,,,,,,,,,,,,,,,,,,,,,,,,,,,,,,,,,,,,,,,,,,,,,,,,,,,,,,,,,,,,,,,,,,,,,,,,,,,,,,,,,,,,,,,,,,,,,
,,,,,,5ef211cba33a988a6311bc67,62c539ef3ede2ab943e36d3f,2022-07-06_09h30.04.544,Colour_Asymmetry_Pilot,2022.1.3,Win32,59.29791271,62c50e9c1127f2cd403a315f,0,155,155,116,1,threeone,,,,,,,,,,,,,,,,,,,,,,,,,,,,,,,,,,,,,,,,,,,,,,,,,,,,,,,,,,,,,,,,,,,,,,,,,,,,,,,,,,,,,,,,,,,,,,,,,,,,,,,,,,,,,,,,,,,,,,,,,,,,,,,,,,,,,,,,,,,,,,,,,,,,,,,,,,,,,
,,,,,,5ef211cba33a988a6311bc67,62c539ef3ede2ab943e36d3f,2022-07-06_09h30.04.544,Colour_Asymmetry_Pilot,2022.1.3,Win32,59.29791271,62c50e9c1127f2cd403a315f,0,156,156,71,1,fourthree,,,,,,,,,,,,,,,,,,,,,,,,,,,,,,,,,,,,,,,,,,,,,,,,,,,,,,,,,,,,,,,,,,,,,,,,,,,,,,,,,,,,,,,,,,,,,,,,,,,,,,,,,,,,,,,,,,,,,,,,,,,,,,,,,,,,,,,,,,,,,,,,,,,,,,,,,,,,,
,,,,,,5ef211cba33a988a6311bc67,62c539ef3ede2ab943e36d3f,2022-07-06_09h30.04.544,Colour_Asymmetry_Pilot,2022.1.3,Win32,59.29791271,62c50e9c1127f2cd403a315f,0,157,157,128,1,onetwo,,,,,,,,,,,,,,,,,,,,,,,,,,,,,,,,,,,,,,,,,,,,,,,,,,,,,,,,,,,,,,,,,,,,,,,,,,,,,,,,,,,,,,,,,,,,,,,,,,,,,,,,,,,,,,,,,,,,,,,,,,,,,,,,,,,,,,,,,,,,,,,,,,,,,,,,,,,,,
,,,,,,5ef211cba33a988a6311bc67,62c539ef3ede2ab943e36d3f,2022-07-06_09h30.04.544,Colour_Asymmetry_Pilot,2022.1.3,Win32,59.29791271,62c50e9c1127f2cd403a315f,0,158,158,30,1,fourtwo,,,,,,,,,,,,,,,,,,,,,,,,,,,,,,,,,,,,,,,,,,,,,,,,,,,,,,,,,,,,,,,,,,,,,,,,,,,,,,,,,,,,,,,,,,,,,,,,,,,,,,,,,,,,,,,,,,,,,,,,,,,,,,,,,,,,,,,,,,,,,,,,,,,,,,,,,,,,,
,,,,,,5ef211cba33a988a6311bc67,62c539ef3ede2ab943e36d3f,2022-07-06_09h30.04.544,Colour_Asymmetry_Pilot,2022.1.3,Win32,59.29791271,62c50e9c1127f2cd403a315f,0,159,159,47,1,fourthree,,,,,,,,,,,,,,,,,,,,,,,,,,,,,,,,,,,,,,,,,,,,,,,,,,,,,,,,,,,,,,,,,,,,,,,,,,,,,,,,,,,,,,,,,,,,,,,,,,,,,,,,,,,,,,,,,,,,,,,,,,,,,,,,,,,,,,,,,,,,,,,,,,,,,,,,,,,,,
,,,,,,5ef211cba33a988a6311bc67,62c539ef3ede2ab943e36d3f,2022-07-06_09h30.04.544,Colour_Asymmetry_Pilot,2022.1.3,Win32,59.29791271,62c50e9c1127f2cd403a315f,0,160,160,67,1,twofour,,,,,,,,,,,,,,,,,,,,,,,,,,,,,,,,,,,,,,,,,,,,,,,,,,,,,,,,,,,,,,,,,,,,,,,,,,,,,,,,,,,,,,,,,,,,,,,,,,,,,,,,,,,,,,,,,,,,,,,,,,,,,,,,,,,,,,,,,,,,,,,,,,,,,,,,,,,,,
,,,,,,5ef211cba33a988a6311bc67,62c539ef3ede2ab943e36d3f,2022-07-06_09h30.04.544,Colour_Asymmetry_Pilot,2022.1.3,Win32,59.29791271,62c50e9c1127f2cd403a315f,0,161,161,125,1,threefour,,,,,,,,,,,,,,,,,,,,,,,,,,,,,,,,,,,,,,,,,,,,,,,,,,,,,,,,,,,,,,,,,,,,,,,,,,,,,,,,,,,,,,,,,,,,,,,,,,,,,,,,,,,,,,,,,,,,,,,,,,,,,,,,,,,,,,,,,,,,,,,,,,,,,,,,,,,,,
,,,,,,5ef211cba33a988a6311bc67,62c539ef3ede2ab943e36d3f,2022-07-06_09h30.04.544,Colour_Asymmetry_Pilot,2022.1.3,Win32,59.29791271,62c50e9c1127f2cd403a315f,,,,,,,space,3.4185,space,0.9475,space,30.9943,space,6.9766,space,4.0333,space,0.5829,"[-0.8198,-0.5138,-0.7492000000000001]",threefour,"[-0.9766,-0.6472,0.07440000000000002]",1,9.1746,37.60003662,-65.6000061,1,0,0,response3disk_5,-9.599975586,2.399993896,1,0,0,rectangle_8,58.40002441,114.3999939,1,0,0,response1disk_7,7,4,-3.200012207,7.199981689,1,0,0,rectangle_4,0,0,0,0,1,,,,,,,,,,,,,,,,,,,,,,,,,,,,,,,,,,,,,,,,,,,,,,,,,,,,,,,,,,,,,,,,,,,,,,,,,,,,,,,,,,,,,,,,,,,,,,,,,,,,,,,,,,,,,
,,,,,,5ef211cba33a988a6311bc67,62c539ef3ede2ab943e36d3f,2022-07-06_09h30.04.544,Colour_Asymmetry_Pilot,2022.1.3,Win32,59.29791271,62c50e9c1127f2cd403a315f,,,,,,,,,,,,,,,,,,,"[-0.6942,-0.7648,-0.12959999999999994]",onetwo,"[0.9842,0.7409999999999999,-0.6628000000000001]",-4,6.9993,-49.59997559,109.6000061,1,0,0,response7disk_5,-2.399963379,-3.200012207,1,0,0,rectangle_8,-2.399963379,-3.200012207,1,0,0,,,4,-2.399963379,-3.200012207,1,0,0,,1,0,1,0,1,,,,,,,,,,,,,,,,,,,,,,,,,,,,,,,,,,,,,,,,,,,,,,,,,,,,,,,,,,,,,,,,,,,,,,,,,,,,,,,,,,,,,,,,,,,,,,,,,,,,,,,,,,,,,
,,,,,,5ef211cba33a988a6311bc67,62c539ef3ede2ab943e36d3f,2022-07-06_09h30.04.544,Colour_Asymmetry_Pilot,2022.1.3,Win32,59.29791271,62c50e9c1127f2cd403a315f,,,,,,,,,,,,,,,,,,,"[0.8115999999999999,-0.0040000000000000036,-0.09819999999999995]",fourthree,"[0.37240000000000006,0.4980000000000002,-0.2864]",1,9.8822,45.60003662,-116.7999878,1,0,0,response3disk_5,1.600036621,-4.800018311,1,0,0,rectangle_8,1.600036621,-4.800018311,1,0,0,,,4,1.600036621,-4.800018311,1,0,0,,2,0,2,0,1,,,,,,,,,,,,,,,,,,,,,,,,,,,,,,,,,,,,,,,,,,,,,,,,,,,,,,,,,,,,,,,,,,,,,,,,,,,,,,,,,,,,,,,,,,,,,,,,,,,,,,,,,,,,,
,,,,,,5ef211cba33a988a6311bc67,62c539ef3ede2ab943e36d3f,2022-07-06_09h30.04.544,Colour_Asymmetry_Pilot,2022.1.3,Win32,59.29791271,62c50e9c1127f2cd403a315f,,,,,,,,,,,,,,,,,,,"[-0.9688,-0.7412000000000001,-0.4902000000000001]",fourtwo,"[-0.26280000000000003,-0.2158,-0.3256]",3,3.6166,87.20001221,36,1,0,0,response1disk_5,8.799987793,-14.3999939,1,0,0,rectangle_8,28,106.3999939,1,0,0,response1disk_7,7,4,-4.799987793,4,1,0,0,rectangle_4,3,0,3,0,1,,,,,,,,,,,,,,,,,,,,,,,,,,,,,,,,,,,,,,,,,,,,,,,,,,,,,,,,,,,,,,,,,,,,,,,,,,,,,,,,,,,,,,,,,,,,,,,,,,,,,,,,,,,,,
,,,,,,5ef211cba33a988a6311bc67,62c539ef3ede2ab943e36d3f,2022-07-06_09h30.04.544,Colour_Asymmetry_Pilot,2022.1.3,Win32,59.29791271,62c50e9c1127f2cd403a315f,,,,,,,,,,,,,,,,,,,"[0.22340000000000004,-0.9296,-0.7884]",threefour,"[-0.8198,-0.5138,-0.7492000000000001]",-1,1.9831,-48,-99.20001221,1,0,0,response5disk_5,9.600036621,-7.200012207,1,0,0,rectangle_8,9.600036621,-7.200012207,1,0,0,,,4,9.600036621,-7.200012207,1,0,0,,4,0,4,0,1,,,,,,,,,,,,,,,,,,,,,,,,,,,,,,,,,,,,,,,,,,,,,,,,,,,,,,,,,,,,,,,,,,,,,,,,,,,,,,,,,,,,,,,,,,,,,,,,,,,,,,,,,,,,,
,,,,,,5ef211cba33a988a6311bc67,62c539ef3ede2ab943e36d3f,2022-07-06_09h30.04.544,Colour_Asymmetry_Pilot,2022.1.3,Win32,59.29791271,62c50e9c1127f2cd403a315f,,,,,,,,,,,,,,,,,,,"[0.23920000000000008,0.2704,0.16060000000000008]",fourthree,"[-0.9138,-0.5296000000000001,-0.5529999999999999]",2,2.1994,58.40002441,-36.80001831,1,0,0,response3disk_5,-4,8,1,0,0,rectangle_8,-4,8,1,0,0,,,4,-4,8,1,0,0,,5,0,5,0,1,,,,,,,,,,,,,,,,,,,,,,,,,,,,,,,,,,,,,,,,,,,,,,,,,,,,,,,,,,,,,,,,,,,,,,,,,,,,,,,,,,,,,,,,,,,,,,,,,,,,,,,,,,,,,
,,,,,,5ef211cba33a988a6311bc67,62c539ef3ede2ab943e36d3f,2022-07-06_09h30.04.544,Colour_Asymmetry_Pilot,2022.1.3,Win32,59.29791271,62c50e9c1127f2cd403a315f,,,,,,,,,,,,,,,,,,,"[-0.9688,-0.4902000000000001,-0.12159999999999993]",threeone,"[0.3568,-0.20799999999999996,-0.9844]",-3,1.6828,-88,32,1,0,0,response7disk_5,-24.79998779,1.600006104,1,0,0,rectangle_8,-24.79998779,1.600006104,1,0,0,,,4,-24.79998779,1.600006104,1,0,0,,6,0,6,0,1,,,,,,,,,,,,,,,,,,,,,,,,,,,,,,,,,,,,,,,,,,,,,,,,,,,,,,,,,,,,,,,,,,,,,,,,,,,,,,,,,,,,,,,,,,,,,,,,,,,,,,,,,,,,,
,,,,,,5ef211cba33a988a6311bc67,62c539ef3ede2ab943e36d3f,2022-07-06_09h30.04.544,Colour_Asymmetry_Pilot,2022.1.3,Win32,59.29791271,62c50e9c1127f2cd403a315f,,,,,,,,,,,,,,,,,,,,twofour,,-1,1.4658,,,,,,,,,,,,,,,,,,,,,,,,,,,,,,,,space,3.7498,"[-0.7412000000000001,-0.08239999999999992,-0.6864]","[0.9372,0.9450000000000001,0.8980000000000001]",-34.39996338,-88,1,0,0,response5disk,-29.59997559,0,1,0,0,rectangle,-29.59997559,0,1,0,0,,2,0.0022,0,-29.59997559,0,1,0,0,0,0,0,147,1,66,second,,,,,,,,,,,,,,,,,,,,,,,,,,,,,,,,,,,,,,,,,,,,,,,,,,,,,,,,,,,,,,,,,,,,,,,,
,,,,,,5ef211cba33a988a6311bc67,62c539ef3ede2ab943e36d3f,2022-07-06_09h30.04.544,Colour_Asymmetry_Pilot,2022.1.3,Win32,59.29791271,62c50e9c1127f2cd403a315f,,,,,,,,,,,,,,,,,,,,fourtwo,,-1,1.7169,,,,,,,,,,,,,,,,,,,,,,,,,,,,,,,,,,"[-0.38039999999999996,-0.4276,-0.1452]","[0.22340000000000004,-0.9296,-0.7884]",-35.20001221,-88.79998779,1,0,0,response5disk,-16.79998779,4,1,0,0,rectangle,43.20001221,-92,1,0,0,1,1,3.3989,1,-16.79998779,-15.20001221,1,0,0,0,1,1,97,1,16,second,response3disk_3,rectangle,,,,,,,,,,,,,,,,,,,,,,,,,,,,,,,,,,,,,,,,,,,,,,,,,,,,,,,,,,,,,,,,,,,,,,
,,,,,,5ef211cba33a988a6311bc67,62c539ef3ede2ab943e36d3f,2022-07-06_09h30.04.544,Colour_Asymmetry_Pilot,2022.1.3,Win32,59.29791271,62c50e9c1127f2cd403a315f,,,,,,,,,,,,,,,,,,,,threeone,,2,2.6667,,,,,,,,,,,,,,,,,,,,,,,,,,,,,,,,,,"[0.7802,-0.23140000000000005,-0.20799999999999996]","[-0.20799999999999996,-0.655,-0.01980000000000004]",128.7999878,-49.6000061,1,0,0,response3disk,17.60003662,-2.399993896,1,0,0,rectangle,17.60003662,-2.399993896,1,0,0,1,2,0.0019,0,17.60003662,-2.399993896,1,0,0,0,2,2,148,1,67,second,,,,,,,,,,,,,,,,,,,,,,,,,,,,,,,,,,,,,,,,,,,,,,,,,,,,,,,,,,,,,,,,,,,,,,,,
,,,,,,5ef211cba33a988a6311bc67,62c539ef3ede2ab943e36d3f,2022-07-06_09h30.04.544,Colour_Asymmetry_Pilot,2022.1.3,Win32,59.29791271,62c50e9c1127f2cd403a315f,,,,,,,,,,,,,,,,,,,,fourtwo,,-1,1.2172,,,,,,,,,,,,,,,,,,,,,,,,,,,,,,,,,,"[0.22340000000000004,-0.9296,-0.7884]","[0.9372,0.9450000000000001,0.8980000000000001]",-51.20001221,-92.79998779,1,0,0,response5disk,-6.399963379,11.19998169,1,0,0,rectangle,-6.399963379,11.19998169,1,0,0,1,3,0.0011,0,-6.399963379,11.19998169,1,0,0,0,3,3,129,1,48,second,,,,,,,,,,,,,,,,,,,,,,,,,,,,,,,,,,,,,,,,,,,,,,,,,,,,,,,,,,,,,,,,,,,,,,,,
,,,,,,5ef211cba33a988a6311bc67,62c539ef3ede2ab943e36d3f,2022-07-06_09h30.04.544,Colour_Asymmetry_Pilot,2022.1.3,Win32,59.29791271,62c50e9c1127f2cd403a315f,,,,,,,,,,,,,,,,,,,,twoone,,4,1.0665,,,,,,,,,,,,,,,,,,,,,,,,,,,,,,,,,,"[-0.2942,-0.7648,-0.7492000000000001]","[-0.050999999999999934,-0.6706000000000001,-0.804]",46.40002441,83.19998169,1,0,0,response1disk,-1.599975586,8.799987793,1,0,0,rectangle,-1.599975586,8.799987793,1,0,0,1,1,0.0017,0,-1.599975586,8.799987793,1,0,0,0,4,4,143,1,62,second,,,,,,,,,,,,,,,,,,,,,,,,,,,,,,,,,,,,,,,,,,,,,,,,,,,,,,,,,,,,,,,,,,,,,,,,
,,,,,,5ef211cba33a988a6311bc67,62c539ef3ede2ab943e36d3f,2022-07-06_09h30.04.544,Colour_Asymmetry_Pilot,2022.1.3,Win32,59.29791271,62c50e9c1127f2cd403a315f,,,,,,,,,,,,,,,,,,,,twoone,,2,1.5168,,,,,,,,,,,,,,,,,,,,,,,,,,,,,,,,,,"[-0.24719999999999998,-0.0354000000000001,0.3175999999999999]","[-0.5688,-0.08239999999999992,-0.1844]",107.2000122,-62.3999939,1,0,0,response3disk,-15.20001221,8,1,0,0,rectangle,-15.20001221,8,1,0,0,1,2,0.0017,0,-15.20001221,8,1,0,0,0,5,5,107,1,26,second,,,,,,,,,,,,,,,,,,,,,,,,,,,,,,,,,,,,,,,,,,,,,,,,,,,,,,,,,,,,,,,,,,,,,,,,
,,,,,,5ef211cba33a988a6311bc67,62c539ef3ede2ab943e36d3f,2022-07-06_09h30.04.544,Colour_Asymmetry_Pilot,2022.1.3,Win32,59.29791271,62c50e9c1127f2cd403a315f,,,,,,,,,,,,,,,,,,,,threeone,,2,1.3501,,,,,,,,,,,,,,,,,,,,,,,,,,,,,,,,,,"[-0.01980000000000004,-0.5138,-0.38039999999999996]","[0.9763999999999999,-0.1137999999999999,-0.6314]",60.79998779,-20.80001831,1,0,0,response3disk,-6.399963379,4,1,0,0,rectangle,-6.399963379,4,1,0,0,1,1,0.0011,0,-6.399963379,4,1,0,0,0,6,6,119,1,38,second,,,,,,,,,,,,,,,,,,,,,,,,,,,,,,,,,,,,,,,,,,,,,,,,,,,,,,,,,,,,,,,,,,,,,,,,
,,,,,,5ef211cba33a988a6311bc67,62c539ef3ede2ab943e36d3f,2022-07-06_09h30.04.544,Colour_Asymmetry_Pilot,2022.1.3,Win32,59.29791271,62c50e9c1127f2cd403a315f,,,,,,,,,,,,,,,,,,,,twoone,,-1,0.6003,,,,,,,,,,,,,,,,,,,,,,,,,,,,,,,,,,"[-0.26280000000000003,-0.4746,-0.2158]","[0.9372,0.9450000000000001,0.8980000000000001]",-36.79998779,-102.4000244,1,0,0,response5disk,7.200012207,11.19998169,1,0,0,rectangle,7.200012207,11.19998169,1,0,0,1,1,0.0001,0,7.200012207,11.19998169,1,0,0,0,7,7,32,1,32,first,,,,,,,,,,,,,,,,,,,,,,,,,,,,,,,,,,,,,,,,,,,,,,,,,,,,,,,,,,,,,,,,,,,,,,,,
,,,,,,5ef211cba33a988a6311bc67,62c539ef3ede2ab943e36d3f,2022-07-06_09h30.04.544,Colour_Asymmetry_Pilot,2022.1.3,Win32,59.29791271,62c50e9c1127f2cd403a315f,,,,,,,,,,,,,,,,,,,,onetwo,,3,2.0164,,,,,,,,,,,,,,,,,,,,,,,,,,,,,,,,,,"[0.40379999999999994,0.09000000000000008,0.44300000000000006]","[0.5449999999999999,-0.31000000000000005,-0.0354000000000001]",94.40002441,48.79998779,1,0,0,response1disk,-24,-7.200012207,1,0,0,rectangle,-24,-7.200012207,1,0,0,1,1,0.0016,0,-24,-7.200012207,1,0,0,0,8,8,12,1,12,first,,,,,,,,,,,,,,,,,,,,,,,,,,,,,,,,,,,,,,,,,,,,,,,,,,,,,,,,,,,,,,,,,,,,,,,,
,,,,,,5ef211cba33a988a6311bc67,62c539ef3ede2ab943e36d3f,2022-07-06_09h30.04.544,Colour_Asymmetry_Pilot,2022.1.3,Win32,59.29791271,62c50e9c1127f2cd403a315f,,,,,,,,,,,,,,,,,,,,onethree,,3,0.5999,,,,,,,,,,,,,,,,,,,,,,,,,,,,,,,,,,"[0.11359999999999992,0.6312,0.5213999999999999]","[-0.6,0.16860000000000008,0.44300000000000006]",108.7999878,56.79998779,1,0,0,response1disk,25.60003662,7.199981689,1,0,0,rectangle,25.60003662,7.199981689,1,0,0,1,1,0.0002,0,25.60003662,7.199981689,1,0,0,0,9,9,68,1,68,first,,,,,,,,,,,,,,,,,,,,,,,,,,,,,,,,,,,,,,,,,,,,,,,,,,,,,,,,,,,,,,,,,,,,,,,,
,,,,,,5ef211cba33a988a6311bc67,62c539ef3ede2ab943e36d3f,2022-07-06_09h30.04.544,Colour_Asymmetry_Pilot,2022.1.3,Win32,59.29791271,62c50e9c1127f2cd403a315f,,,,,,,,,,,,,,,,,,,,onethree,,-1,4.5494,,,,,,,,,,,,,,,,,,,,,,,,,,,,,,,,,,"[-0.38039999999999996,-0.4276,-0.1452]","[-0.01980000000000004,-0.5138,-0.38039999999999996]",-51.20001221,-97.60003662,1,0,0,response5disk,-15.20001221,-6.399993896,1,0,0,rectangle,-15.20001221,-6.399993896,1,0,0,1,3,0.0024,0,-15.20001221,-6.399993896,1,0,0,0,10,10,3,1,3,first,,,,,,,,,,,,,,,,,,,,,,,,,,,,,,,,,,,,,,,,,,,,,,,,,,,,,,,,,,,,,,,,,,,,,,,,
,,,,,,5ef211cba33a988a6311bc67,62c539ef3ede2ab943e36d3f,2022-07-06_09h30.04.544,Colour_Asymmetry_Pilot,2022.1.3,Win32,59.29791271,62c50e9c1127f2cd403a315f,,,,,,,,,,,,,,,,,,,,onetwo,,1,2.2166,,,,,,,,,,,,,,,,,,,,,,,,,,,,,,,,,,"[-0.4902000000000001,0.2704,-0.45899999999999996]","[0.5528,0.7409999999999999,-0.71]",32.79998779,-85.60003662,1,0,0,response3disk,-14.39996338,6.399993896,1,0,0,rectangle,-14.39996338,6.399993896,1,0,0,1,1,0.0007,0,-14.39996338,6.399993896,1,0,0,0,11,11,127,1,46,second,,,,,,,,,,,,,,,,,,,,,,,,,,,,,,,,,,,,,,,,,,,,,,,,,,,,,,,,,,,,,,,,,,,,,,,,
,,,,,,5ef211cba33a988a6311bc67,62c539ef3ede2ab943e36d3f,2022-07-06_09h30.04.544,Colour_Asymmetry_Pilot,2022.1.3,Win32,59.29791271,62c50e9c1127f2cd403a315f,,,,,,,,,,,,,,,,,,,,fourthree,,1,2.1001,,,,,,,,,,,,,,,,,,,,,,,,,,,,,,,,,,"[0.8115999999999999,-0.0040000000000000036,-0.09819999999999995]","[-0.4668,-0.8746,-0.2942]",75.20001221,-131.2000122,1,0,0,response3disk,-12,16.79998779,1,0,0,rectangle,-12,16.79998779,1,0,0,1,3,0.001,0,-12,16.79998779,1,0,0,0,12,12,125,1,44,second,,,,,,,,,,,,,,,,,,,,,,,,,,,,,,,,,,,,,,,,,,,,,,,,,,,,,,,,,,,,,,,,,,,,,,,,
,,,,,,5ef211cba33a988a6311bc67,62c539ef3ede2ab943e36d3f,2022-07-06_09h30.04.544,Colour_Asymmetry_Pilot,2022.1.3,Win32,59.29791271,62c50e9c1127f2cd403a315f,,,,,,,,,,,,,,,,,,,,fourthree,,4,1.0498,,,,,,,,,,,,,,,,,,,,,,,,,,,,,,,,,,"[-0.050999999999999934,-0.6706000000000001,-0.804]","[-0.2942,-0.7648,-0.7492000000000001]",39.20001221,63.19998169,1,0,0,response1disk,11.20001221,-4.800018311,1,0,0,rectangle,11.20001221,-4.800018311,1,0,0,1,1,0.0014,0,11.20001221,-4.800018311,1,0,0,0,13,13,62,1,62,first,,,,,,,,,,,,,,,,,,,,,,,,,,,,,,,,,,,,,,,,,,,,,,,,,,,,,,,,,,,,,,,,,,,,,,,,
,,,,,,5ef211cba33a988a6311bc67,62c539ef3ede2ab943e36d3f,2022-07-06_09h30.04.544,Colour_Asymmetry_Pilot,2022.1.3,Win32,59.29791271,62c50e9c1127f2cd403a315f,,,,,,,,,,,,,,,,,,,,onetwo,,2,1.1497,,,,,,,,,,,,,,,,,,,,,,,,,,,,,,,,,,"[-0.5688,-0.08239999999999992,-0.1844]","[-0.6,0.16860000000000008,0.44300000000000006]",85.60003662,-19.20001221,1,0,0,response3disk,8,5.600006104,1,0,0,rectangle,8,5.600006104,1,0,0,1,1,0.0003,0,8,5.600006104,1,0,0,0,14,14,9,1,9,first,,,,,,,,,,,,,,,,,,,,,,,,,,,,,,,,,,,,,,,,,,,,,,,,,,,,,,,,,,,,,,,,,,,,,,,,
