trials.thisRepN,trials.thisTrialN,trials.thisN,trials.thisIndex,trials.ran,Colourcodes,participant,session,date,expName,psychopyVersion,OS,frameRate,study_id,trials_4.thisRepN,trials_4.thisTrialN,trials_4.thisN,trials_4.thisIndex,trials_4.ran,StimulusPos,key_resp.keys,key_resp.rt,key_resp_2.keys,key_resp_2.rt,key_resp_15.keys,key_resp_15.rt,key_resp_17.keys,key_resp_17.rt,key_resp_9.keys,key_resp_9.rt,key_resp_10.keys,key_resp_10.rt,Circle1_col,Ecc,Circle2_col,similarity,response_time,mouse_5.x,mouse_5.y,mouse_5.leftButton,mouse_5.midButton,mouse_5.rightButton,mouse_5.clicked_name,mouse_10.x,mouse_10.y,mouse_10.leftButton,mouse_10.midButton,mouse_10.rightButton,mouse_10.clicked_name,mouse_7.x,mouse_7.y,mouse_7.leftButton,mouse_7.midButton,mouse_7.rightButton,catchnumberprac,mouse_6.x,mouse_6.y,mouse_6.leftButton,mouse_6.midButton,mouse_6.rightButton,duringprac.thisRepN,duringprac.thisTrialN,duringprac.thisN,duringprac.thisIndex,duringprac.ran,mouse_7.clicked_name,catchprac,mouse_6.clicked_name,key_resp_22.keys,key_resp_22.rt,Circle1_colour,Circle2_colour,mouse.x,mouse.y,mouse.leftButton,mouse.midButton,mouse.rightButton,mouse.clicked_name,mouse_2.x,mouse_2.y,mouse_2.leftButton,mouse_2.midButton,mouse_2.rightButton,mouse_2.clicked_name,mouse_3.x,mouse_3.y,mouse_3.leftButton,mouse_3.midButton,mouse_3.rightButton,catchresponse,catchnumber,response_time_catch,Catch,mouse_11.x,mouse_11.y,mouse_11.leftButton,mouse_11.midButton,mouse_11.rightButton,trials_2.thisRepN,trials_2.thisTrialN,trials_2.thisN,trials_2.thisIndex,trials_2.ran,Colourpair,Temporder,mouse_3.clicked_name,mouse_11.clicked_name,trials_3.thisRepN,trials_3.thisTrialN,trials_3.thisN,trials_3.thisIndex,trials_3.ran,key_resp_instr_Ishi.keys,key_resp_instr_Ishi.rt,Ishi_trial_keyresp.keys,Ishi_textbox.text,Ishi_mouse.x,Ishi_mouse.y,Ishi_mouse.leftButton,Ishi_mouse.midButton,Ishi_mouse.rightButton,Ishi_mouse.clicked_name,Ishi_loop.thisRepN,Ishi_loop.thisTrialN,Ishi_loop.thisN,Ishi_loop.thisIndex,Ishi_loop.ran,imageaddress,Ishi_trial_keyresp.rt,textbox.text,mouse_4.x,mouse_4.y,mouse_4.leftButton,mouse_4.midButton,mouse_4.rightButton,mouse_4.clicked_name,textbox_2.text,mouse_8.x,mouse_8.y,mouse_8.leftButton,mouse_8.midButton,mouse_8.rightButton,mouse_8.clicked_name,textbox_3.text,mouse_9.x,mouse_9.y,mouse_9.leftButton,mouse_9.midButton,mouse_9.rightButton,mouse_9.clicked_name,textbox_4.text,mouse_12.x,mouse_12.y,mouse_12.leftButton,mouse_12.midButton,mouse_12.rightButton,mouse_12.clicked_name,textbox_5.text,mouse_13.x,mouse_13.y,mouse_13.leftButton,mouse_13.midButton,mouse_13.rightButton,mouse_13.clicked_name,textbox_6.text,mouse_14.x,mouse_14.y,mouse_14.leftButton,mouse_14.midButton,mouse_14.rightButton,mouse_14.clicked_name,textbox_7.text,mouse_15.x,mouse_15.y,mouse_15.leftButton,mouse_15.midButton,mouse_15.rightButton,mouse_15.clicked_name
0,0,0,39,1,,600726c489ddb31a15162ab0,62c5397fcc76923a56d01cde,2022-07-06_09h30.20.658,Colour_Asymmetry_Pilot,2022.1.3,Win32,59.58410296,62c50e9c1127f2cd403a315f,,,,,,,,,,,,,,,,,,,,,,,,,,,,,,,,,,,,,,,,,,,,,,,,,,,,,,,,,,,,,,,,,,,,,,,,,,,,,,,,,,,,,,,,,,,,,,,,,,,,,,,,,,,,,,,,,,,,,,,,,,,,,,,,,,,,,,,,,,,,,,,,,,,,,,,,,,,,,,,,,,,,
0,1,1,26,1,,600726c489ddb31a15162ab0,62c5397fcc76923a56d01cde,2022-07-06_09h30.20.658,Colour_Asymmetry_Pilot,2022.1.3,Win32,59.58410296,62c50e9c1127f2cd403a315f,,,,,,,,,,,,,,,,,,,,,,,,,,,,,,,,,,,,,,,,,,,,,,,,,,,,,,,,,,,,,,,,,,,,,,,,,,,,,,,,,,,,,,,,,,,,,,,,,,,,,,,,,,,,,,,,,,,,,,,,,,,,,,,,,,,,,,,,,,,,,,,,,,,,,,,,,,,,,,,,,,,,
0,2,2,2,1,,600726c489ddb31a15162ab0,62c5397fcc76923a56d01cde,2022-07-06_09h30.20.658,Colour_Asymmetry_Pilot,2022.1.3,Win32,59.58410296,62c50e9c1127f2cd403a315f,,,,,,,,,,,,,,,,,,,,,,,,,,,,,,,,,,,,,,,,,,,,,,,,,,,,,,,,,,,,,,,,,,,,,,,,,,,,,,,,,,,,,,,,,,,,,,,,,,,,,,,,,,,,,,,,,,,,,,,,,,,,,,,,,,,,,,,,,,,,,,,,,,,,,,,,,,,,,,,,,,,,
0,3,3,38,1,,600726c489ddb31a15162ab0,62c5397fcc76923a56d01cde,2022-07-06_09h30.20.658,Colour_Asymmetry_Pilot,2022.1.3,Win32,59.58410296,62c50e9c1127f2cd403a315f,,,,,,,,,,,,,,,,,,,,,,,,,,,,,,,,,,,,,,,,,,,,,,,,,,,,,,,,,,,,,,,,,,,,,,,,,,,,,,,,,,,,,,,,,,,,,,,,,,,,,,,,,,,,,,,,,,,,,,,,,,,,,,,,,,,,,,,,,,,,,,,,,,,,,,,,,,,,,,,,,,,,
0,4,4,45,1,,600726c489ddb31a15162ab0,62c5397fcc76923a56d01cde,2022-07-06_09h30.20.658,Colour_Asymmetry_Pilot,2022.1.3,Win32,59.58410296,62c50e9c1127f2cd403a315f,,,,,,,,,,,,,,,,,,,,,,,,,,,,,,,,,,,,,,,,,,,,,,,,,,,,,,,,,,,,,,,,,,,,,,,,,,,,,,,,,,,,,,,,,,,,,,,,,,,,,,,,,,,,,,,,,,,,,,,,,,,,,,,,,,,,,,,,,,,,,,,,,,,,,,,,,,,,,,,,,,,,
0,5,5,84,1,,600726c489ddb31a15162ab0,62c5397fcc76923a56d01cde,2022-07-06_09h30.20.658,Colour_Asymmetry_Pilot,2022.1.3,Win32,59.58410296,62c50e9c1127f2cd403a315f,,,,,,,,,,,,,,,,,,,,,,,,,,,,,,,,,,,,,,,,,,,,,,,,,,,,,,,,,,,,,,,,,,,,,,,,,,,,,,,,,,,,,,,,,,,,,,,,,,,,,,,,,,,,,,,,,,,,,,,,,,,,,,,,,,,,,,,,,,,,,,,,,,,,,,,,,,,,,,,,,,,,
0,6,6,51,1,,600726c489ddb31a15162ab0,62c5397fcc76923a56d01cde,2022-07-06_09h30.20.658,Colour_Asymmetry_Pilot,2022.1.3,Win32,59.58410296,62c50e9c1127f2cd403a315f,,,,,,,,,,,,,,,,,,,,,,,,,,,,,,,,,,,,,,,,,,,,,,,,,,,,,,,,,,,,,,,,,,,,,,,,,,,,,,,,,,,,,,,,,,,,,,,,,,,,,,,,,,,,,,,,,,,,,,,,,,,,,,,,,,,,,,,,,,,,,,,,,,,,,,,,,,,,,,,,,,,,
0,7,7,6,1,,600726c489ddb31a15162ab0,62c5397fcc76923a56d01cde,2022-07-06_09h30.20.658,Colour_Asymmetry_Pilot,2022.1.3,Win32,59.58410296,62c50e9c1127f2cd403a315f,,,,,,,,,,,,,,,,,,,,,,,,,,,,,,,,,,,,,,,,,,,,,,,,,,,,,,,,,,,,,,,,,,,,,,,,,,,,,,,,,,,,,,,,,,,,,,,,,,,,,,,,,,,,,,,,,,,,,,,,,,,,,,,,,,,,,,,,,,,,,,,,,,,,,,,,,,,,,,,,,,,,
0,8,8,3,1,,600726c489ddb31a15162ab0,62c5397fcc76923a56d01cde,2022-07-06_09h30.20.658,Colour_Asymmetry_Pilot,2022.1.3,Win32,59.58410296,62c50e9c1127f2cd403a315f,,,,,,,,,,,,,,,,,,,,,,,,,,,,,,,,,,,,,,,,,,,,,,,,,,,,,,,,,,,,,,,,,,,,,,,,,,,,,,,,,,,,,,,,,,,,,,,,,,,,,,,,,,,,,,,,,,,,,,,,,,,,,,,,,,,,,,,,,,,,,,,,,,,,,,,,,,,,,,,,,,,,
0,9,9,23,1,,600726c489ddb31a15162ab0,62c5397fcc76923a56d01cde,2022-07-06_09h30.20.658,Colour_Asymmetry_Pilot,2022.1.3,Win32,59.58410296,62c50e9c1127f2cd403a315f,,,,,,,,,,,,,,,,,,,,,,,,,,,,,,,,,,,,,,,,,,,,,,,,,,,,,,,,,,,,,,,,,,,,,,,,,,,,,,,,,,,,,,,,,,,,,,,,,,,,,,,,,,,,,,,,,,,,,,,,,,,,,,,,,,,,,,,,,,,,,,,,,,,,,,,,,,,,,,,,,,,,
0,10,10,14,1,,600726c489ddb31a15162ab0,62c5397fcc76923a56d01cde,2022-07-06_09h30.20.658,Colour_Asymmetry_Pilot,2022.1.3,Win32,59.58410296,62c50e9c1127f2cd403a315f,,,,,,,,,,,,,,,,,,,,,,,,,,,,,,,,,,,,,,,,,,,,,,,,,,,,,,,,,,,,,,,,,,,,,,,,,,,,,,,,,,,,,,,,,,,,,,,,,,,,,,,,,,,,,,,,,,,,,,,,,,,,,,,,,,,,,,,,,,,,,,,,,,,,,,,,,,,,,,,,,,,,
0,11,11,89,1,,600726c489ddb31a15162ab0,62c5397fcc76923a56d01cde,2022-07-06_09h30.20.658,Colour_Asymmetry_Pilot,2022.1.3,Win32,59.58410296,62c50e9c1127f2cd403a315f,,,,,,,,,,,,,,,,,,,,,,,,,,,,,,,,,,,,,,,,,,,,,,,,,,,,,,,,,,,,,,,,,,,,,,,,,,,,,,,,,,,,,,,,,,,,,,,,,,,,,,,,,,,,,,,,,,,,,,,,,,,,,,,,,,,,,,,,,,,,,,,,,,,,,,,,,,,,,,,,,,,,
0,12,12,20,1,,600726c489ddb31a15162ab0,62c5397fcc76923a56d01cde,2022-07-06_09h30.20.658,Colour_Asymmetry_Pilot,2022.1.3,Win32,59.58410296,62c50e9c1127f2cd403a315f,,,,,,,,,,,,,,,,,,,,,,,,,,,,,,,,,,,,,,,,,,,,,,,,,,,,,,,,,,,,,,,,,,,,,,,,,,,,,,,,,,,,,,,,,,,,,,,,,,,,,,,,,,,,,,,,,,,,,,,,,,,,,,,,,,,,,,,,,,,,,,,,,,,,,,,,,,,,,,,,,,,,
0,13,13,56,1,,600726c489ddb31a15162ab0,62c5397fcc76923a56d01cde,2022-07-06_09h30.20.658,Colour_Asymmetry_Pilot,2022.1.3,Win32,59.58410296,62c50e9c1127f2cd403a315f,,,,,,,,,,,,,,,,,,,,,,,,,,,,,,,,,,,,,,,,,,,,,,,,,,,,,,,,,,,,,,,,,,,,,,,,,,,,,,,,,,,,,,,,,,,,,,,,,,,,,,,,,,,,,,,,,,,,,,,,,,,,,,,,,,,,,,,,,,,,,,,,,,,,,,,,,,,,,,,,,,,,
0,14,14,70,1,,600726c489ddb31a15162ab0,62c5397fcc76923a56d01cde,2022-07-06_09h30.20.658,Colour_Asymmetry_Pilot,2022.1.3,Win32,59.58410296,62c50e9c1127f2cd403a315f,,,,,,,,,,,,,,,,,,,,,,,,,,,,,,,,,,,,,,,,,,,,,,,,,,,,,,,,,,,,,,,,,,,,,,,,,,,,,,,,,,,,,,,,,,,,,,,,,,,,,,,,,,,,,,,,,,,,,,,,,,,,,,,,,,,,,,,,,,,,,,,,,,,,,,,,,,,,,,,,,,,,
0,15,15,13,1,,600726c489ddb31a15162ab0,62c5397fcc76923a56d01cde,2022-07-06_09h30.20.658,Colour_Asymmetry_Pilot,2022.1.3,Win32,59.58410296,62c50e9c1127f2cd403a315f,,,,,,,,,,,,,,,,,,,,,,,,,,,,,,,,,,,,,,,,,,,,,,,,,,,,,,,,,,,,,,,,,,,,,,,,,,,,,,,,,,,,,,,,,,,,,,,,,,,,,,,,,,,,,,,,,,,,,,,,,,,,,,,,,,,,,,,,,,,,,,,,,,,,,,,,,,,,,,,,,,,,
0,16,16,80,1,,600726c489ddb31a15162ab0,62c5397fcc76923a56d01cde,2022-07-06_09h30.20.658,Colour_Asymmetry_Pilot,2022.1.3,Win32,59.58410296,62c50e9c1127f2cd403a315f,,,,,,,,,,,,,,,,,,,,,,,,,,,,,,,,,,,,,,,,,,,,,,,,,,,,,,,,,,,,,,,,,,,,,,,,,,,,,,,,,,,,,,,,,,,,,,,,,,,,,,,,,,,,,,,,,,,,,,,,,,,,,,,,,,,,,,,,,,,,,,,,,,,,,,,,,,,,,,,,,,,,
0,17,17,50,1,,600726c489ddb31a15162ab0,62c5397fcc76923a56d01cde,2022-07-06_09h30.20.658,Colour_Asymmetry_Pilot,2022.1.3,Win32,59.58410296,62c50e9c1127f2cd403a315f,,,,,,,,,,,,,,,,,,,,,,,,,,,,,,,,,,,,,,,,,,,,,,,,,,,,,,,,,,,,,,,,,,,,,,,,,,,,,,,,,,,,,,,,,,,,,,,,,,,,,,,,,,,,,,,,,,,,,,,,,,,,,,,,,,,,,,,,,,,,,,,,,,,,,,,,,,,,,,,,,,,,
0,18,18,57,1,,600726c489ddb31a15162ab0,62c5397fcc76923a56d01cde,2022-07-06_09h30.20.658,Colour_Asymmetry_Pilot,2022.1.3,Win32,59.58410296,62c50e9c1127f2cd403a315f,,,,,,,,,,,,,,,,,,,,,,,,,,,,,,,,,,,,,,,,,,,,,,,,,,,,,,,,,,,,,,,,,,,,,,,,,,,,,,,,,,,,,,,,,,,,,,,,,,,,,,,,,,,,,,,,,,,,,,,,,,,,,,,,,,,,,,,,,,,,,,,,,,,,,,,,,,,,,,,,,,,,
0,19,19,61,1,,600726c489ddb31a15162ab0,62c5397fcc76923a56d01cde,2022-07-06_09h30.20.658,Colour_Asymmetry_Pilot,2022.1.3,Win32,59.58410296,62c50e9c1127f2cd403a315f,,,,,,,,,,,,,,,,,,,,,,,,,,,,,,,,,,,,,,,,,,,,,,,,,,,,,,,,,,,,,,,,,,,,,,,,,,,,,,,,,,,,,,,,,,,,,,,,,,,,,,,,,,,,,,,,,,,,,,,,,,,,,,,,,,,,,,,,,,,,,,,,,,,,,,,,,,,,,,,,,,,,
0,20,20,58,1,,600726c489ddb31a15162ab0,62c5397fcc76923a56d01cde,2022-07-06_09h30.20.658,Colour_Asymmetry_Pilot,2022.1.3,Win32,59.58410296,62c50e9c1127f2cd403a315f,,,,,,,,,,,,,,,,,,,,,,,,,,,,,,,,,,,,,,,,,,,,,,,,,,,,,,,,,,,,,,,,,,,,,,,,,,,,,,,,,,,,,,,,,,,,,,,,,,,,,,,,,,,,,,,,,,,,,,,,,,,,,,,,,,,,,,,,,,,,,,,,,,,,,,,,,,,,,,,,,,,,
0,21,21,74,1,,600726c489ddb31a15162ab0,62c5397fcc76923a56d01cde,2022-07-06_09h30.20.658,Colour_Asymmetry_Pilot,2022.1.3,Win32,59.58410296,62c50e9c1127f2cd403a315f,,,,,,,,,,,,,,,,,,,,,,,,,,,,,,,,,,,,,,,,,,,,,,,,,,,,,,,,,,,,,,,,,,,,,,,,,,,,,,,,,,,,,,,,,,,,,,,,,,,,,,,,,,,,,,,,,,,,,,,,,,,,,,,,,,,,,,,,,,,,,,,,,,,,,,,,,,,,,,,,,,,,
0,22,22,90,1,,600726c489ddb31a15162ab0,62c5397fcc76923a56d01cde,2022-07-06_09h30.20.658,Colour_Asymmetry_Pilot,2022.1.3,Win32,59.58410296,62c50e9c1127f2cd403a315f,,,,,,,,,,,,,,,,,,,,,,,,,,,,,,,,,,,,,,,,,,,,,,,,,,,,,,,,,,,,,,,,,,,,,,,,,,,,,,,,,,,,,,,,,,,,,,,,,,,,,,,,,,,,,,,,,,,,,,,,,,,,,,,,,,,,,,,,,,,,,,,,,,,,,,,,,,,,,,,,,,,,
0,23,23,4,1,,600726c489ddb31a15162ab0,62c5397fcc76923a56d01cde,2022-07-06_09h30.20.658,Colour_Asymmetry_Pilot,2022.1.3,Win32,59.58410296,62c50e9c1127f2cd403a315f,,,,,,,,,,,,,,,,,,,,,,,,,,,,,,,,,,,,,,,,,,,,,,,,,,,,,,,,,,,,,,,,,,,,,,,,,,,,,,,,,,,,,,,,,,,,,,,,,,,,,,,,,,,,,,,,,,,,,,,,,,,,,,,,,,,,,,,,,,,,,,,,,,,,,,,,,,,,,,,,,,,,
0,24,24,62,1,,600726c489ddb31a15162ab0,62c5397fcc76923a56d01cde,2022-07-06_09h30.20.658,Colour_Asymmetry_Pilot,2022.1.3,Win32,59.58410296,62c50e9c1127f2cd403a315f,,,,,,,,,,,,,,,,,,,,,,,,,,,,,,,,,,,,,,,,,,,,,,,,,,,,,,,,,,,,,,,,,,,,,,,,,,,,,,,,,,,,,,,,,,,,,,,,,,,,,,,,,,,,,,,,,,,,,,,,,,,,,,,,,,,,,,,,,,,,,,,,,,,,,,,,,,,,,,,,,,,,
0,25,25,91,1,,600726c489ddb31a15162ab0,62c5397fcc76923a56d01cde,2022-07-06_09h30.20.658,Colour_Asymmetry_Pilot,2022.1.3,Win32,59.58410296,62c50e9c1127f2cd403a315f,,,,,,,,,,,,,,,,,,,,,,,,,,,,,,,,,,,,,,,,,,,,,,,,,,,,,,,,,,,,,,,,,,,,,,,,,,,,,,,,,,,,,,,,,,,,,,,,,,,,,,,,,,,,,,,,,,,,,,,,,,,,,,,,,,,,,,,,,,,,,,,,,,,,,,,,,,,,,,,,,,,,
0,26,26,5,1,,600726c489ddb31a15162ab0,62c5397fcc76923a56d01cde,2022-07-06_09h30.20.658,Colour_Asymmetry_Pilot,2022.1.3,Win32,59.58410296,62c50e9c1127f2cd403a315f,,,,,,,,,,,,,,,,,,,,,,,,,,,,,,,,,,,,,,,,,,,,,,,,,,,,,,,,,,,,,,,,,,,,,,,,,,,,,,,,,,,,,,,,,,,,,,,,,,,,,,,,,,,,,,,,,,,,,,,,,,,,,,,,,,,,,,,,,,,,,,,,,,,,,,,,,,,,,,,,,,,,
0,27,27,81,1,,600726c489ddb31a15162ab0,62c5397fcc76923a56d01cde,2022-07-06_09h30.20.658,Colour_Asymmetry_Pilot,2022.1.3,Win32,59.58410296,62c50e9c1127f2cd403a315f,,,,,,,,,,,,,,,,,,,,,,,,,,,,,,,,,,,,,,,,,,,,,,,,,,,,,,,,,,,,,,,,,,,,,,,,,,,,,,,,,,,,,,,,,,,,,,,,,,,,,,,,,,,,,,,,,,,,,,,,,,,,,,,,,,,,,,,,,,,,,,,,,,,,,,,,,,,,,,,,,,,,
0,28,28,18,1,,600726c489ddb31a15162ab0,62c5397fcc76923a56d01cde,2022-07-06_09h30.20.658,Colour_Asymmetry_Pilot,2022.1.3,Win32,59.58410296,62c50e9c1127f2cd403a315f,,,,,,,,,,,,,,,,,,,,,,,,,,,,,,,,,,,,,,,,,,,,,,,,,,,,,,,,,,,,,,,,,,,,,,,,,,,,,,,,,,,,,,,,,,,,,,,,,,,,,,,,,,,,,,,,,,,,,,,,,,,,,,,,,,,,,,,,,,,,,,,,,,,,,,,,,,,,,,,,,,,,
0,29,29,15,1,,600726c489ddb31a15162ab0,62c5397fcc76923a56d01cde,2022-07-06_09h30.20.658,Colour_Asymmetry_Pilot,2022.1.3,Win32,59.58410296,62c50e9c1127f2cd403a315f,,,,,,,,,,,,,,,,,,,,,,,,,,,,,,,,,,,,,,,,,,,,,,,,,,,,,,,,,,,,,,,,,,,,,,,,,,,,,,,,,,,,,,,,,,,,,,,,,,,,,,,,,,,,,,,,,,,,,,,,,,,,,,,,,,,,,,,,,,,,,,,,,,,,,,,,,,,,,,,,,,,,
0,30,30,78,1,,600726c489ddb31a15162ab0,62c5397fcc76923a56d01cde,2022-07-06_09h30.20.658,Colour_Asymmetry_Pilot,2022.1.3,Win32,59.58410296,62c50e9c1127f2cd403a315f,,,,,,,,,,,,,,,,,,,,,,,,,,,,,,,,,,,,,,,,,,,,,,,,,,,,,,,,,,,,,,,,,,,,,,,,,,,,,,,,,,,,,,,,,,,,,,,,,,,,,,,,,,,,,,,,,,,,,,,,,,,,,,,,,,,,,,,,,,,,,,,,,,,,,,,,,,,,,,,,,,,,
0,31,31,69,1,,600726c489ddb31a15162ab0,62c5397fcc76923a56d01cde,2022-07-06_09h30.20.658,Colour_Asymmetry_Pilot,2022.1.3,Win32,59.58410296,62c50e9c1127f2cd403a315f,,,,,,,,,,,,,,,,,,,,,,,,,,,,,,,,,,,,,,,,,,,,,,,,,,,,,,,,,,,,,,,,,,,,,,,,,,,,,,,,,,,,,,,,,,,,,,,,,,,,,,,,,,,,,,,,,,,,,,,,,,,,,,,,,,,,,,,,,,,,,,,,,,,,,,,,,,,,,,,,,,,,
0,32,32,52,1,,600726c489ddb31a15162ab0,62c5397fcc76923a56d01cde,2022-07-06_09h30.20.658,Colour_Asymmetry_Pilot,2022.1.3,Win32,59.58410296,62c50e9c1127f2cd403a315f,,,,,,,,,,,,,,,,,,,,,,,,,,,,,,,,,,,,,,,,,,,,,,,,,,,,,,,,,,,,,,,,,,,,,,,,,,,,,,,,,,,,,,,,,,,,,,,,,,,,,,,,,,,,,,,,,,,,,,,,,,,,,,,,,,,,,,,,,,,,,,,,,,,,,,,,,,,,,,,,,,,,
0,33,33,77,1,,600726c489ddb31a15162ab0,62c5397fcc76923a56d01cde,2022-07-06_09h30.20.658,Colour_Asymmetry_Pilot,2022.1.3,Win32,59.58410296,62c50e9c1127f2cd403a315f,,,,,,,,,,,,,,,,,,,,,,,,,,,,,,,,,,,,,,,,,,,,,,,,,,,,,,,,,,,,,,,,,,,,,,,,,,,,,,,,,,,,,,,,,,,,,,,,,,,,,,,,,,,,,,,,,,,,,,,,,,,,,,,,,,,,,,,,,,,,,,,,,,,,,,,,,,,,,,,,,,,,
0,34,34,65,1,,600726c489ddb31a15162ab0,62c5397fcc76923a56d01cde,2022-07-06_09h30.20.658,Colour_Asymmetry_Pilot,2022.1.3,Win32,59.58410296,62c50e9c1127f2cd403a315f,,,,,,,,,,,,,,,,,,,,,,,,,,,,,,,,,,,,,,,,,,,,,,,,,,,,,,,,,,,,,,,,,,,,,,,,,,,,,,,,,,,,,,,,,,,,,,,,,,,,,,,,,,,,,,,,,,,,,,,,,,,,,,,,,,,,,,,,,,,,,,,,,,,,,,,,,,,,,,,,,,,,
0,35,35,43,1,,600726c489ddb31a15162ab0,62c5397fcc76923a56d01cde,2022-07-06_09h30.20.658,Colour_Asymmetry_Pilot,2022.1.3,Win32,59.58410296,62c50e9c1127f2cd403a315f,,,,,,,,,,,,,,,,,,,,,,,,,,,,,,,,,,,,,,,,,,,,,,,,,,,,,,,,,,,,,,,,,,,,,,,,,,,,,,,,,,,,,,,,,,,,,,,,,,,,,,,,,,,,,,,,,,,,,,,,,,,,,,,,,,,,,,,,,,,,,,,,,,,,,,,,,,,,,,,,,,,,
0,36,36,27,1,,600726c489ddb31a15162ab0,62c5397fcc76923a56d01cde,2022-07-06_09h30.20.658,Colour_Asymmetry_Pilot,2022.1.3,Win32,59.58410296,62c50e9c1127f2cd403a315f,,,,,,,,,,,,,,,,,,,,,,,,,,,,,,,,,,,,,,,,,,,,,,,,,,,,,,,,,,,,,,,,,,,,,,,,,,,,,,,,,,,,,,,,,,,,,,,,,,,,,,,,,,,,,,,,,,,,,,,,,,,,,,,,,,,,,,,,,,,,,,,,,,,,,,,,,,,,,,,,,,,,
0,37,37,29,1,,600726c489ddb31a15162ab0,62c5397fcc76923a56d01cde,2022-07-06_09h30.20.658,Colour_Asymmetry_Pilot,2022.1.3,Win32,59.58410296,62c50e9c1127f2cd403a315f,,,,,,,,,,,,,,,,,,,,,,,,,,,,,,,,,,,,,,,,,,,,,,,,,,,,,,,,,,,,,,,,,,,,,,,,,,,,,,,,,,,,,,,,,,,,,,,,,,,,,,,,,,,,,,,,,,,,,,,,,,,,,,,,,,,,,,,,,,,,,,,,,,,,,,,,,,,,,,,,,,,,
0,38,38,22,1,,600726c489ddb31a15162ab0,62c5397fcc76923a56d01cde,2022-07-06_09h30.20.658,Colour_Asymmetry_Pilot,2022.1.3,Win32,59.58410296,62c50e9c1127f2cd403a315f,,,,,,,,,,,,,,,,,,,,,,,,,,,,,,,,,,,,,,,,,,,,,,,,,,,,,,,,,,,,,,,,,,,,,,,,,,,,,,,,,,,,,,,,,,,,,,,,,,,,,,,,,,,,,,,,,,,,,,,,,,,,,,,,,,,,,,,,,,,,,,,,,,,,,,,,,,,,,,,,,,,,
0,39,39,72,1,,600726c489ddb31a15162ab0,62c5397fcc76923a56d01cde,2022-07-06_09h30.20.658,Colour_Asymmetry_Pilot,2022.1.3,Win32,59.58410296,62c50e9c1127f2cd403a315f,,,,,,,,,,,,,,,,,,,,,,,,,,,,,,,,,,,,,,,,,,,,,,,,,,,,,,,,,,,,,,,,,,,,,,,,,,,,,,,,,,,,,,,,,,,,,,,,,,,,,,,,,,,,,,,,,,,,,,,,,,,,,,,,,,,,,,,,,,,,,,,,,,,,,,,,,,,,,,,,,,,,
0,40,40,34,1,,600726c489ddb31a15162ab0,62c5397fcc76923a56d01cde,2022-07-06_09h30.20.658,Colour_Asymmetry_Pilot,2022.1.3,Win32,59.58410296,62c50e9c1127f2cd403a315f,,,,,,,,,,,,,,,,,,,,,,,,,,,,,,,,,,,,,,,,,,,,,,,,,,,,,,,,,,,,,,,,,,,,,,,,,,,,,,,,,,,,,,,,,,,,,,,,,,,,,,,,,,,,,,,,,,,,,,,,,,,,,,,,,,,,,,,,,,,,,,,,,,,,,,,,,,,,,,,,,,,,
0,41,41,86,1,,600726c489ddb31a15162ab0,62c5397fcc76923a56d01cde,2022-07-06_09h30.20.658,Colour_Asymmetry_Pilot,2022.1.3,Win32,59.58410296,62c50e9c1127f2cd403a315f,,,,,,,,,,,,,,,,,,,,,,,,,,,,,,,,,,,,,,,,,,,,,,,,,,,,,,,,,,,,,,,,,,,,,,,,,,,,,,,,,,,,,,,,,,,,,,,,,,,,,,,,,,,,,,,,,,,,,,,,,,,,,,,,,,,,,,,,,,,,,,,,,,,,,,,,,,,,,,,,,,,,
0,42,42,87,1,,600726c489ddb31a15162ab0,62c5397fcc76923a56d01cde,2022-07-06_09h30.20.658,Colour_Asymmetry_Pilot,2022.1.3,Win32,59.58410296,62c50e9c1127f2cd403a315f,,,,,,,,,,,,,,,,,,,,,,,,,,,,,,,,,,,,,,,,,,,,,,,,,,,,,,,,,,,,,,,,,,,,,,,,,,,,,,,,,,,,,,,,,,,,,,,,,,,,,,,,,,,,,,,,,,,,,,,,,,,,,,,,,,,,,,,,,,,,,,,,,,,,,,,,,,,,,,,,,,,,
0,43,43,17,1,,600726c489ddb31a15162ab0,62c5397fcc76923a56d01cde,2022-07-06_09h30.20.658,Colour_Asymmetry_Pilot,2022.1.3,Win32,59.58410296,62c50e9c1127f2cd403a315f,,,,,,,,,,,,,,,,,,,,,,,,,,,,,,,,,,,,,,,,,,,,,,,,,,,,,,,,,,,,,,,,,,,,,,,,,,,,,,,,,,,,,,,,,,,,,,,,,,,,,,,,,,,,,,,,,,,,,,,,,,,,,,,,,,,,,,,,,,,,,,,,,,,,,,,,,,,,,,,,,,,,
0,44,44,11,1,,600726c489ddb31a15162ab0,62c5397fcc76923a56d01cde,2022-07-06_09h30.20.658,Colour_Asymmetry_Pilot,2022.1.3,Win32,59.58410296,62c50e9c1127f2cd403a315f,,,,,,,,,,,,,,,,,,,,,,,,,,,,,,,,,,,,,,,,,,,,,,,,,,,,,,,,,,,,,,,,,,,,,,,,,,,,,,,,,,,,,,,,,,,,,,,,,,,,,,,,,,,,,,,,,,,,,,,,,,,,,,,,,,,,,,,,,,,,,,,,,,,,,,,,,,,,,,,,,,,,
0,45,45,83,1,,600726c489ddb31a15162ab0,62c5397fcc76923a56d01cde,2022-07-06_09h30.20.658,Colour_Asymmetry_Pilot,2022.1.3,Win32,59.58410296,62c50e9c1127f2cd403a315f,,,,,,,,,,,,,,,,,,,,,,,,,,,,,,,,,,,,,,,,,,,,,,,,,,,,,,,,,,,,,,,,,,,,,,,,,,,,,,,,,,,,,,,,,,,,,,,,,,,,,,,,,,,,,,,,,,,,,,,,,,,,,,,,,,,,,,,,,,,,,,,,,,,,,,,,,,,,,,,,,,,,
0,46,46,88,1,,600726c489ddb31a15162ab0,62c5397fcc76923a56d01cde,2022-07-06_09h30.20.658,Colour_Asymmetry_Pilot,2022.1.3,Win32,59.58410296,62c50e9c1127f2cd403a315f,,,,,,,,,,,,,,,,,,,,,,,,,,,,,,,,,,,,,,,,,,,,,,,,,,,,,,,,,,,,,,,,,,,,,,,,,,,,,,,,,,,,,,,,,,,,,,,,,,,,,,,,,,,,,,,,,,,,,,,,,,,,,,,,,,,,,,,,,,,,,,,,,,,,,,,,,,,,,,,,,,,,
0,47,47,31,1,,600726c489ddb31a15162ab0,62c5397fcc76923a56d01cde,2022-07-06_09h30.20.658,Colour_Asymmetry_Pilot,2022.1.3,Win32,59.58410296,62c50e9c1127f2cd403a315f,,,,,,,,,,,,,,,,,,,,,,,,,,,,,,,,,,,,,,,,,,,,,,,,,,,,,,,,,,,,,,,,,,,,,,,,,,,,,,,,,,,,,,,,,,,,,,,,,,,,,,,,,,,,,,,,,,,,,,,,,,,,,,,,,,,,,,,,,,,,,,,,,,,,,,,,,,,,,,,,,,,,
0,48,48,32,1,,600726c489ddb31a15162ab0,62c5397fcc76923a56d01cde,2022-07-06_09h30.20.658,Colour_Asymmetry_Pilot,2022.1.3,Win32,59.58410296,62c50e9c1127f2cd403a315f,,,,,,,,,,,,,,,,,,,,,,,,,,,,,,,,,,,,,,,,,,,,,,,,,,,,,,,,,,,,,,,,,,,,,,,,,,,,,,,,,,,,,,,,,,,,,,,,,,,,,,,,,,,,,,,,,,,,,,,,,,,,,,,,,,,,,,,,,,,,,,,,,,,,,,,,,,,,,,,,,,,,
0,49,49,48,1,,600726c489ddb31a15162ab0,62c5397fcc76923a56d01cde,2022-07-06_09h30.20.658,Colour_Asymmetry_Pilot,2022.1.3,Win32,59.58410296,62c50e9c1127f2cd403a315f,,,,,,,,,,,,,,,,,,,,,,,,,,,,,,,,,,,,,,,,,,,,,,,,,,,,,,,,,,,,,,,,,,,,,,,,,,,,,,,,,,,,,,,,,,,,,,,,,,,,,,,,,,,,,,,,,,,,,,,,,,,,,,,,,,,,,,,,,,,,,,,,,,,,,,,,,,,,,,,,,,,,
0,50,50,8,1,,600726c489ddb31a15162ab0,62c5397fcc76923a56d01cde,2022-07-06_09h30.20.658,Colour_Asymmetry_Pilot,2022.1.3,Win32,59.58410296,62c50e9c1127f2cd403a315f,,,,,,,,,,,,,,,,,,,,,,,,,,,,,,,,,,,,,,,,,,,,,,,,,,,,,,,,,,,,,,,,,,,,,,,,,,,,,,,,,,,,,,,,,,,,,,,,,,,,,,,,,,,,,,,,,,,,,,,,,,,,,,,,,,,,,,,,,,,,,,,,,,,,,,,,,,,,,,,,,,,,
0,51,51,16,1,,600726c489ddb31a15162ab0,62c5397fcc76923a56d01cde,2022-07-06_09h30.20.658,Colour_Asymmetry_Pilot,2022.1.3,Win32,59.58410296,62c50e9c1127f2cd403a315f,,,,,,,,,,,,,,,,,,,,,,,,,,,,,,,,,,,,,,,,,,,,,,,,,,,,,,,,,,,,,,,,,,,,,,,,,,,,,,,,,,,,,,,,,,,,,,,,,,,,,,,,,,,,,,,,,,,,,,,,,,,,,,,,,,,,,,,,,,,,,,,,,,,,,,,,,,,,,,,,,,,,
0,52,52,63,1,,600726c489ddb31a15162ab0,62c5397fcc76923a56d01cde,2022-07-06_09h30.20.658,Colour_Asymmetry_Pilot,2022.1.3,Win32,59.58410296,62c50e9c1127f2cd403a315f,,,,,,,,,,,,,,,,,,,,,,,,,,,,,,,,,,,,,,,,,,,,,,,,,,,,,,,,,,,,,,,,,,,,,,,,,,,,,,,,,,,,,,,,,,,,,,,,,,,,,,,,,,,,,,,,,,,,,,,,,,,,,,,,,,,,,,,,,,,,,,,,,,,,,,,,,,,,,,,,,,,,
0,53,53,67,1,,600726c489ddb31a15162ab0,62c5397fcc76923a56d01cde,2022-07-06_09h30.20.658,Colour_Asymmetry_Pilot,2022.1.3,Win32,59.58410296,62c50e9c1127f2cd403a315f,,,,,,,,,,,,,,,,,,,,,,,,,,,,,,,,,,,,,,,,,,,,,,,,,,,,,,,,,,,,,,,,,,,,,,,,,,,,,,,,,,,,,,,,,,,,,,,,,,,,,,,,,,,,,,,,,,,,,,,,,,,,,,,,,,,,,,,,,,,,,,,,,,,,,,,,,,,,,,,,,,,,
0,54,54,82,1,,600726c489ddb31a15162ab0,62c5397fcc76923a56d01cde,2022-07-06_09h30.20.658,Colour_Asymmetry_Pilot,2022.1.3,Win32,59.58410296,62c50e9c1127f2cd403a315f,,,,,,,,,,,,,,,,,,,,,,,,,,,,,,,,,,,,,,,,,,,,,,,,,,,,,,,,,,,,,,,,,,,,,,,,,,,,,,,,,,,,,,,,,,,,,,,,,,,,,,,,,,,,,,,,,,,,,,,,,,,,,,,,,,,,,,,,,,,,,,,,,,,,,,,,,,,,,,,,,,,,
0,55,55,54,1,,600726c489ddb31a15162ab0,62c5397fcc76923a56d01cde,2022-07-06_09h30.20.658,Colour_Asymmetry_Pilot,2022.1.3,Win32,59.58410296,62c50e9c1127f2cd403a315f,,,,,,,,,,,,,,,,,,,,,,,,,,,,,,,,,,,,,,,,,,,,,,,,,,,,,,,,,,,,,,,,,,,,,,,,,,,,,,,,,,,,,,,,,,,,,,,,,,,,,,,,,,,,,,,,,,,,,,,,,,,,,,,,,,,,,,,,,,,,,,,,,,,,,,,,,,,,,,,,,,,,
0,56,56,42,1,,600726c489ddb31a15162ab0,62c5397fcc76923a56d01cde,2022-07-06_09h30.20.658,Colour_Asymmetry_Pilot,2022.1.3,Win32,59.58410296,62c50e9c1127f2cd403a315f,,,,,,,,,,,,,,,,,,,,,,,,,,,,,,,,,,,,,,,,,,,,,,,,,,,,,,,,,,,,,,,,,,,,,,,,,,,,,,,,,,,,,,,,,,,,,,,,,,,,,,,,,,,,,,,,,,,,,,,,,,,,,,,,,,,,,,,,,,,,,,,,,,,,,,,,,,,,,,,,,,,,
0,57,57,1,1,,600726c489ddb31a15162ab0,62c5397fcc76923a56d01cde,2022-07-06_09h30.20.658,Colour_Asymmetry_Pilot,2022.1.3,Win32,59.58410296,62c50e9c1127f2cd403a315f,,,,,,,,,,,,,,,,,,,,,,,,,,,,,,,,,,,,,,,,,,,,,,,,,,,,,,,,,,,,,,,,,,,,,,,,,,,,,,,,,,,,,,,,,,,,,,,,,,,,,,,,,,,,,,,,,,,,,,,,,,,,,,,,,,,,,,,,,,,,,,,,,,,,,,,,,,,,,,,,,,,,
0,58,58,37,1,,600726c489ddb31a15162ab0,62c5397fcc76923a56d01cde,2022-07-06_09h30.20.658,Colour_Asymmetry_Pilot,2022.1.3,Win32,59.58410296,62c50e9c1127f2cd403a315f,,,,,,,,,,,,,,,,,,,,,,,,,,,,,,,,,,,,,,,,,,,,,,,,,,,,,,,,,,,,,,,,,,,,,,,,,,,,,,,,,,,,,,,,,,,,,,,,,,,,,,,,,,,,,,,,,,,,,,,,,,,,,,,,,,,,,,,,,,,,,,,,,,,,,,,,,,,,,,,,,,,,
0,59,59,47,1,,600726c489ddb31a15162ab0,62c5397fcc76923a56d01cde,2022-07-06_09h30.20.658,Colour_Asymmetry_Pilot,2022.1.3,Win32,59.58410296,62c50e9c1127f2cd403a315f,,,,,,,,,,,,,,,,,,,,,,,,,,,,,,,,,,,,,,,,,,,,,,,,,,,,,,,,,,,,,,,,,,,,,,,,,,,,,,,,,,,,,,,,,,,,,,,,,,,,,,,,,,,,,,,,,,,,,,,,,,,,,,,,,,,,,,,,,,,,,,,,,,,,,,,,,,,,,,,,,,,,
0,60,60,19,1,,600726c489ddb31a15162ab0,62c5397fcc76923a56d01cde,2022-07-06_09h30.20.658,Colour_Asymmetry_Pilot,2022.1.3,Win32,59.58410296,62c50e9c1127f2cd403a315f,,,,,,,,,,,,,,,,,,,,,,,,,,,,,,,,,,,,,,,,,,,,,,,,,,,,,,,,,,,,,,,,,,,,,,,,,,,,,,,,,,,,,,,,,,,,,,,,,,,,,,,,,,,,,,,,,,,,,,,,,,,,,,,,,,,,,,,,,,,,,,,,,,,,,,,,,,,,,,,,,,,,
0,61,61,66,1,,600726c489ddb31a15162ab0,62c5397fcc76923a56d01cde,2022-07-06_09h30.20.658,Colour_Asymmetry_Pilot,2022.1.3,Win32,59.58410296,62c50e9c1127f2cd403a315f,,,,,,,,,,,,,,,,,,,,,,,,,,,,,,,,,,,,,,,,,,,,,,,,,,,,,,,,,,,,,,,,,,,,,,,,,,,,,,,,,,,,,,,,,,,,,,,,,,,,,,,,,,,,,,,,,,,,,,,,,,,,,,,,,,,,,,,,,,,,,,,,,,,,,,,,,,,,,,,,,,,,
0,62,62,71,1,,600726c489ddb31a15162ab0,62c5397fcc76923a56d01cde,2022-07-06_09h30.20.658,Colour_Asymmetry_Pilot,2022.1.3,Win32,59.58410296,62c50e9c1127f2cd403a315f,,,,,,,,,,,,,,,,,,,,,,,,,,,,,,,,,,,,,,,,,,,,,,,,,,,,,,,,,,,,,,,,,,,,,,,,,,,,,,,,,,,,,,,,,,,,,,,,,,,,,,,,,,,,,,,,,,,,,,,,,,,,,,,,,,,,,,,,,,,,,,,,,,,,,,,,,,,,,,,,,,,,
0,63,63,0,1,,600726c489ddb31a15162ab0,62c5397fcc76923a56d01cde,2022-07-06_09h30.20.658,Colour_Asymmetry_Pilot,2022.1.3,Win32,59.58410296,62c50e9c1127f2cd403a315f,,,,,,,,,,,,,,,,,,,,,,,,,,,,,,,,,,,,,,,,,,,,,,,,,,,,,,,,,,,,,,,,,,,,,,,,,,,,,,,,,,,,,,,,,,,,,,,,,,,,,,,,,,,,,,,,,,,,,,,,,,,,,,,,,,,,,,,,,,,,,,,,,,,,,,,,,,,,,,,,,,,,
0,64,64,73,1,,600726c489ddb31a15162ab0,62c5397fcc76923a56d01cde,2022-07-06_09h30.20.658,Colour_Asymmetry_Pilot,2022.1.3,Win32,59.58410296,62c50e9c1127f2cd403a315f,,,,,,,,,,,,,,,,,,,,,,,,,,,,,,,,,,,,,,,,,,,,,,,,,,,,,,,,,,,,,,,,,,,,,,,,,,,,,,,,,,,,,,,,,,,,,,,,,,,,,,,,,,,,,,,,,,,,,,,,,,,,,,,,,,,,,,,,,,,,,,,,,,,,,,,,,,,,,,,,,,,,
0,65,65,35,1,,600726c489ddb31a15162ab0,62c5397fcc76923a56d01cde,2022-07-06_09h30.20.658,Colour_Asymmetry_Pilot,2022.1.3,Win32,59.58410296,62c50e9c1127f2cd403a315f,,,,,,,,,,,,,,,,,,,,,,,,,,,,,,,,,,,,,,,,,,,,,,,,,,,,,,,,,,,,,,,,,,,,,,,,,,,,,,,,,,,,,,,,,,,,,,,,,,,,,,,,,,,,,,,,,,,,,,,,,,,,,,,,,,,,,,,,,,,,,,,,,,,,,,,,,,,,,,,,,,,,
0,66,66,36,1,,600726c489ddb31a15162ab0,62c5397fcc76923a56d01cde,2022-07-06_09h30.20.658,Colour_Asymmetry_Pilot,2022.1.3,Win32,59.58410296,62c50e9c1127f2cd403a315f,,,,,,,,,,,,,,,,,,,,,,,,,,,,,,,,,,,,,,,,,,,,,,,,,,,,,,,,,,,,,,,,,,,,,,,,,,,,,,,,,,,,,,,,,,,,,,,,,,,,,,,,,,,,,,,,,,,,,,,,,,,,,,,,,,,,,,,,,,,,,,,,,,,,,,,,,,,,,,,,,,,,
0,67,67,75,1,,600726c489ddb31a15162ab0,62c5397fcc76923a56d01cde,2022-07-06_09h30.20.658,Colour_Asymmetry_Pilot,2022.1.3,Win32,59.58410296,62c50e9c1127f2cd403a315f,,,,,,,,,,,,,,,,,,,,,,,,,,,,,,,,,,,,,,,,,,,,,,,,,,,,,,,,,,,,,,,,,,,,,,,,,,,,,,,,,,,,,,,,,,,,,,,,,,,,,,,,,,,,,,,,,,,,,,,,,,,,,,,,,,,,,,,,,,,,,,,,,,,,,,,,,,,,,,,,,,,,
0,68,68,60,1,,600726c489ddb31a15162ab0,62c5397fcc76923a56d01cde,2022-07-06_09h30.20.658,Colour_Asymmetry_Pilot,2022.1.3,Win32,59.58410296,62c50e9c1127f2cd403a315f,,,,,,,,,,,,,,,,,,,,,,,,,,,,,,,,,,,,,,,,,,,,,,,,,,,,,,,,,,,,,,,,,,,,,,,,,,,,,,,,,,,,,,,,,,,,,,,,,,,,,,,,,,,,,,,,,,,,,,,,,,,,,,,,,,,,,,,,,,,,,,,,,,,,,,,,,,,,,,,,,,,,
0,69,69,44,1,,600726c489ddb31a15162ab0,62c5397fcc76923a56d01cde,2022-07-06_09h30.20.658,Colour_Asymmetry_Pilot,2022.1.3,Win32,59.58410296,62c50e9c1127f2cd403a315f,,,,,,,,,,,,,,,,,,,,,,,,,,,,,,,,,,,,,,,,,,,,,,,,,,,,,,,,,,,,,,,,,,,,,,,,,,,,,,,,,,,,,,,,,,,,,,,,,,,,,,,,,,,,,,,,,,,,,,,,,,,,,,,,,,,,,,,,,,,,,,,,,,,,,,,,,,,,,,,,,,,,
0,70,70,12,1,,600726c489ddb31a15162ab0,62c5397fcc76923a56d01cde,2022-07-06_09h30.20.658,Colour_Asymmetry_Pilot,2022.1.3,Win32,59.58410296,62c50e9c1127f2cd403a315f,,,,,,,,,,,,,,,,,,,,,,,,,,,,,,,,,,,,,,,,,,,,,,,,,,,,,,,,,,,,,,,,,,,,,,,,,,,,,,,,,,,,,,,,,,,,,,,,,,,,,,,,,,,,,,,,,,,,,,,,,,,,,,,,,,,,,,,,,,,,,,,,,,,,,,,,,,,,,,,,,,,,
0,71,71,76,1,,600726c489ddb31a15162ab0,62c5397fcc76923a56d01cde,2022-07-06_09h30.20.658,Colour_Asymmetry_Pilot,2022.1.3,Win32,59.58410296,62c50e9c1127f2cd403a315f,,,,,,,,,,,,,,,,,,,,,,,,,,,,,,,,,,,,,,,,,,,,,,,,,,,,,,,,,,,,,,,,,,,,,,,,,,,,,,,,,,,,,,,,,,,,,,,,,,,,,,,,,,,,,,,,,,,,,,,,,,,,,,,,,,,,,,,,,,,,,,,,,,,,,,,,,,,,,,,,,,,,
0,72,72,53,1,,600726c489ddb31a15162ab0,62c5397fcc76923a56d01cde,2022-07-06_09h30.20.658,Colour_Asymmetry_Pilot,2022.1.3,Win32,59.58410296,62c50e9c1127f2cd403a315f,,,,,,,,,,,,,,,,,,,,,,,,,,,,,,,,,,,,,,,,,,,,,,,,,,,,,,,,,,,,,,,,,,,,,,,,,,,,,,,,,,,,,,,,,,,,,,,,,,,,,,,,,,,,,,,,,,,,,,,,,,,,,,,,,,,,,,,,,,,,,,,,,,,,,,,,,,,,,,,,,,,,
0,73,73,25,1,,600726c489ddb31a15162ab0,62c5397fcc76923a56d01cde,2022-07-06_09h30.20.658,Colour_Asymmetry_Pilot,2022.1.3,Win32,59.58410296,62c50e9c1127f2cd403a315f,,,,,,,,,,,,,,,,,,,,,,,,,,,,,,,,,,,,,,,,,,,,,,,,,,,,,,,,,,,,,,,,,,,,,,,,,,,,,,,,,,,,,,,,,,,,,,,,,,,,,,,,,,,,,,,,,,,,,,,,,,,,,,,,,,,,,,,,,,,,,,,,,,,,,,,,,,,,,,,,,,,,
0,74,74,24,1,,600726c489ddb31a15162ab0,62c5397fcc76923a56d01cde,2022-07-06_09h30.20.658,Colour_Asymmetry_Pilot,2022.1.3,Win32,59.58410296,62c50e9c1127f2cd403a315f,,,,,,,,,,,,,,,,,,,,,,,,,,,,,,,,,,,,,,,,,,,,,,,,,,,,,,,,,,,,,,,,,,,,,,,,,,,,,,,,,,,,,,,,,,,,,,,,,,,,,,,,,,,,,,,,,,,,,,,,,,,,,,,,,,,,,,,,,,,,,,,,,,,,,,,,,,,,,,,,,,,,
0,75,75,10,1,,600726c489ddb31a15162ab0,62c5397fcc76923a56d01cde,2022-07-06_09h30.20.658,Colour_Asymmetry_Pilot,2022.1.3,Win32,59.58410296,62c50e9c1127f2cd403a315f,,,,,,,,,,,,,,,,,,,,,,,,,,,,,,,,,,,,,,,,,,,,,,,,,,,,,,,,,,,,,,,,,,,,,,,,,,,,,,,,,,,,,,,,,,,,,,,,,,,,,,,,,,,,,,,,,,,,,,,,,,,,,,,,,,,,,,,,,,,,,,,,,,,,,,,,,,,,,,,,,,,,
0,76,76,55,1,,600726c489ddb31a15162ab0,62c5397fcc76923a56d01cde,2022-07-06_09h30.20.658,Colour_Asymmetry_Pilot,2022.1.3,Win32,59.58410296,62c50e9c1127f2cd403a315f,,,,,,,,,,,,,,,,,,,,,,,,,,,,,,,,,,,,,,,,,,,,,,,,,,,,,,,,,,,,,,,,,,,,,,,,,,,,,,,,,,,,,,,,,,,,,,,,,,,,,,,,,,,,,,,,,,,,,,,,,,,,,,,,,,,,,,,,,,,,,,,,,,,,,,,,,,,,,,,,,,,,
0,77,77,41,1,,600726c489ddb31a15162ab0,62c5397fcc76923a56d01cde,2022-07-06_09h30.20.658,Colour_Asymmetry_Pilot,2022.1.3,Win32,59.58410296,62c50e9c1127f2cd403a315f,,,,,,,,,,,,,,,,,,,,,,,,,,,,,,,,,,,,,,,,,,,,,,,,,,,,,,,,,,,,,,,,,,,,,,,,,,,,,,,,,,,,,,,,,,,,,,,,,,,,,,,,,,,,,,,,,,,,,,,,,,,,,,,,,,,,,,,,,,,,,,,,,,,,,,,,,,,,,,,,,,,,
0,78,78,79,1,,600726c489ddb31a15162ab0,62c5397fcc76923a56d01cde,2022-07-06_09h30.20.658,Colour_Asymmetry_Pilot,2022.1.3,Win32,59.58410296,62c50e9c1127f2cd403a315f,,,,,,,,,,,,,,,,,,,,,,,,,,,,,,,,,,,,,,,,,,,,,,,,,,,,,,,,,,,,,,,,,,,,,,,,,,,,,,,,,,,,,,,,,,,,,,,,,,,,,,,,,,,,,,,,,,,,,,,,,,,,,,,,,,,,,,,,,,,,,,,,,,,,,,,,,,,,,,,,,,,,
0,79,79,46,1,,600726c489ddb31a15162ab0,62c5397fcc76923a56d01cde,2022-07-06_09h30.20.658,Colour_Asymmetry_Pilot,2022.1.3,Win32,59.58410296,62c50e9c1127f2cd403a315f,,,,,,,,,,,,,,,,,,,,,,,,,,,,,,,,,,,,,,,,,,,,,,,,,,,,,,,,,,,,,,,,,,,,,,,,,,,,,,,,,,,,,,,,,,,,,,,,,,,,,,,,,,,,,,,,,,,,,,,,,,,,,,,,,,,,,,,,,,,,,,,,,,,,,,,,,,,,,,,,,,,,
0,80,80,33,1,,600726c489ddb31a15162ab0,62c5397fcc76923a56d01cde,2022-07-06_09h30.20.658,Colour_Asymmetry_Pilot,2022.1.3,Win32,59.58410296,62c50e9c1127f2cd403a315f,,,,,,,,,,,,,,,,,,,,,,,,,,,,,,,,,,,,,,,,,,,,,,,,,,,,,,,,,,,,,,,,,,,,,,,,,,,,,,,,,,,,,,,,,,,,,,,,,,,,,,,,,,,,,,,,,,,,,,,,,,,,,,,,,,,,,,,,,,,,,,,,,,,,,,,,,,,,,,,,,,,,
0,81,81,49,1,,600726c489ddb31a15162ab0,62c5397fcc76923a56d01cde,2022-07-06_09h30.20.658,Colour_Asymmetry_Pilot,2022.1.3,Win32,59.58410296,62c50e9c1127f2cd403a315f,,,,,,,,,,,,,,,,,,,,,,,,,,,,,,,,,,,,,,,,,,,,,,,,,,,,,,,,,,,,,,,,,,,,,,,,,,,,,,,,,,,,,,,,,,,,,,,,,,,,,,,,,,,,,,,,,,,,,,,,,,,,,,,,,,,,,,,,,,,,,,,,,,,,,,,,,,,,,,,,,,,,
0,82,82,7,1,,600726c489ddb31a15162ab0,62c5397fcc76923a56d01cde,2022-07-06_09h30.20.658,Colour_Asymmetry_Pilot,2022.1.3,Win32,59.58410296,62c50e9c1127f2cd403a315f,,,,,,,,,,,,,,,,,,,,,,,,,,,,,,,,,,,,,,,,,,,,,,,,,,,,,,,,,,,,,,,,,,,,,,,,,,,,,,,,,,,,,,,,,,,,,,,,,,,,,,,,,,,,,,,,,,,,,,,,,,,,,,,,,,,,,,,,,,,,,,,,,,,,,,,,,,,,,,,,,,,,
0,83,83,9,1,,600726c489ddb31a15162ab0,62c5397fcc76923a56d01cde,2022-07-06_09h30.20.658,Colour_Asymmetry_Pilot,2022.1.3,Win32,59.58410296,62c50e9c1127f2cd403a315f,,,,,,,,,,,,,,,,,,,,,,,,,,,,,,,,,,,,,,,,,,,,,,,,,,,,,,,,,,,,,,,,,,,,,,,,,,,,,,,,,,,,,,,,,,,,,,,,,,,,,,,,,,,,,,,,,,,,,,,,,,,,,,,,,,,,,,,,,,,,,,,,,,,,,,,,,,,,,,,,,,,,
0,84,84,59,1,,600726c489ddb31a15162ab0,62c5397fcc76923a56d01cde,2022-07-06_09h30.20.658,Colour_Asymmetry_Pilot,2022.1.3,Win32,59.58410296,62c50e9c1127f2cd403a315f,,,,,,,,,,,,,,,,,,,,,,,,,,,,,,,,,,,,,,,,,,,,,,,,,,,,,,,,,,,,,,,,,,,,,,,,,,,,,,,,,,,,,,,,,,,,,,,,,,,,,,,,,,,,,,,,,,,,,,,,,,,,,,,,,,,,,,,,,,,,,,,,,,,,,,,,,,,,,,,,,,,,
0,85,85,64,1,,600726c489ddb31a15162ab0,62c5397fcc76923a56d01cde,2022-07-06_09h30.20.658,Colour_Asymmetry_Pilot,2022.1.3,Win32,59.58410296,62c50e9c1127f2cd403a315f,,,,,,,,,,,,,,,,,,,,,,,,,,,,,,,,,,,,,,,,,,,,,,,,,,,,,,,,,,,,,,,,,,,,,,,,,,,,,,,,,,,,,,,,,,,,,,,,,,,,,,,,,,,,,,,,,,,,,,,,,,,,,,,,,,,,,,,,,,,,,,,,,,,,,,,,,,,,,,,,,,,,
0,86,86,30,1,,600726c489ddb31a15162ab0,62c5397fcc76923a56d01cde,2022-07-06_09h30.20.658,Colour_Asymmetry_Pilot,2022.1.3,Win32,59.58410296,62c50e9c1127f2cd403a315f,,,,,,,,,,,,,,,,,,,,,,,,,,,,,,,,,,,,,,,,,,,,,,,,,,,,,,,,,,,,,,,,,,,,,,,,,,,,,,,,,,,,,,,,,,,,,,,,,,,,,,,,,,,,,,,,,,,,,,,,,,,,,,,,,,,,,,,,,,,,,,,,,,,,,,,,,,,,,,,,,,,,
0,87,87,28,1,,600726c489ddb31a15162ab0,62c5397fcc76923a56d01cde,2022-07-06_09h30.20.658,Colour_Asymmetry_Pilot,2022.1.3,Win32,59.58410296,62c50e9c1127f2cd403a315f,,,,,,,,,,,,,,,,,,,,,,,,,,,,,,,,,,,,,,,,,,,,,,,,,,,,,,,,,,,,,,,,,,,,,,,,,,,,,,,,,,,,,,,,,,,,,,,,,,,,,,,,,,,,,,,,,,,,,,,,,,,,,,,,,,,,,,,,,,,,,,,,,,,,,,,,,,,,,,,,,,,,
0,88,88,68,1,,600726c489ddb31a15162ab0,62c5397fcc76923a56d01cde,2022-07-06_09h30.20.658,Colour_Asymmetry_Pilot,2022.1.3,Win32,59.58410296,62c50e9c1127f2cd403a315f,,,,,,,,,,,,,,,,,,,,,,,,,,,,,,,,,,,,,,,,,,,,,,,,,,,,,,,,,,,,,,,,,,,,,,,,,,,,,,,,,,,,,,,,,,,,,,,,,,,,,,,,,,,,,,,,,,,,,,,,,,,,,,,,,,,,,,,,,,,,,,,,,,,,,,,,,,,,,,,,,,,,
0,89,89,85,1,,600726c489ddb31a15162ab0,62c5397fcc76923a56d01cde,2022-07-06_09h30.20.658,Colour_Asymmetry_Pilot,2022.1.3,Win32,59.58410296,62c50e9c1127f2cd403a315f,,,,,,,,,,,,,,,,,,,,,,,,,,,,,,,,,,,,,,,,,,,,,,,,,,,,,,,,,,,,,,,,,,,,,,,,,,,,,,,,,,,,,,,,,,,,,,,,,,,,,,,,,,,,,,,,,,,,,,,,,,,,,,,,,,,,,,,,,,,,,,,,,,,,,,,,,,,,,,,,,,,,
0,90,90,21,1,,600726c489ddb31a15162ab0,62c5397fcc76923a56d01cde,2022-07-06_09h30.20.658,Colour_Asymmetry_Pilot,2022.1.3,Win32,59.58410296,62c50e9c1127f2cd403a315f,,,,,,,,,,,,,,,,,,,,,,,,,,,,,,,,,,,,,,,,,,,,,,,,,,,,,,,,,,,,,,,,,,,,,,,,,,,,,,,,,,,,,,,,,,,,,,,,,,,,,,,,,,,,,,,,,,,,,,,,,,,,,,,,,,,,,,,,,,,,,,,,,,,,,,,,,,,,,,,,,,,,
0,91,91,92,1,,600726c489ddb31a15162ab0,62c5397fcc76923a56d01cde,2022-07-06_09h30.20.658,Colour_Asymmetry_Pilot,2022.1.3,Win32,59.58410296,62c50e9c1127f2cd403a315f,,,,,,,,,,,,,,,,,,,,,,,,,,,,,,,,,,,,,,,,,,,,,,,,,,,,,,,,,,,,,,,,,,,,,,,,,,,,,,,,,,,,,,,,,,,,,,,,,,,,,,,,,,,,,,,,,,,,,,,,,,,,,,,,,,,,,,,,,,,,,,,,,,,,,,,,,,,,,,,,,,,,
0,92,92,40,1,,600726c489ddb31a15162ab0,62c5397fcc76923a56d01cde,2022-07-06_09h30.20.658,Colour_Asymmetry_Pilot,2022.1.3,Win32,59.58410296,62c50e9c1127f2cd403a315f,,,,,,,,,,,,,,,,,,,,,,,,,,,,,,,,,,,,,,,,,,,,,,,,,,,,,,,,,,,,,,,,,,,,,,,,,,,,,,,,,,,,,,,,,,,,,,,,,,,,,,,,,,,,,,,,,,,,,,,,,,,,,,,,,,,,,,,,,,,,,,,,,,,,,,,,,,,,,,,,,,,,
,,,,,,600726c489ddb31a15162ab0,62c5397fcc76923a56d01cde,2022-07-06_09h30.20.658,Colour_Asymmetry_Pilot,2022.1.3,Win32,59.58410296,62c50e9c1127f2cd403a315f,0,0,0,161,1,onethree,,,,,,,,,,,,,,,,,,,,,,,,,,,,,,,,,,,,,,,,,,,,,,,,,,,,,,,,,,,,,,,,,,,,,,,,,,,,,,,,,,,,,,,,,,,,,,,,,,,,,,,,,,,,,,,,,,,,,,,,,,,,,,,,,,,,,,,,,,,,,,,,,,,,,,,,,,,,,,
,,,,,,600726c489ddb31a15162ab0,62c5397fcc76923a56d01cde,2022-07-06_09h30.20.658,Colour_Asymmetry_Pilot,2022.1.3,Win32,59.58410296,62c50e9c1127f2cd403a315f,0,1,1,80,1,onetwo,,,,,,,,,,,,,,,,,,,,,,,,,,,,,,,,,,,,,,,,,,,,,,,,,,,,,,,,,,,,,,,,,,,,,,,,,,,,,,,,,,,,,,,,,,,,,,,,,,,,,,,,,,,,,,,,,,,,,,,,,,,,,,,,,,,,,,,,,,,,,,,,,,,,,,,,,,,,,,
,,,,,,600726c489ddb31a15162ab0,62c5397fcc76923a56d01cde,2022-07-06_09h30.20.658,Colour_Asymmetry_Pilot,2022.1.3,Win32,59.58410296,62c50e9c1127f2cd403a315f,0,2,2,117,1,threefour,,,,,,,,,,,,,,,,,,,,,,,,,,,,,,,,,,,,,,,,,,,,,,,,,,,,,,,,,,,,,,,,,,,,,,,,,,,,,,,,,,,,,,,,,,,,,,,,,,,,,,,,,,,,,,,,,,,,,,,,,,,,,,,,,,,,,,,,,,,,,,,,,,,,,,,,,,,,,,
,,,,,,600726c489ddb31a15162ab0,62c5397fcc76923a56d01cde,2022-07-06_09h30.20.658,Colour_Asymmetry_Pilot,2022.1.3,Win32,59.58410296,62c50e9c1127f2cd403a315f,0,3,3,124,1,threeone,,,,,,,,,,,,,,,,,,,,,,,,,,,,,,,,,,,,,,,,,,,,,,,,,,,,,,,,,,,,,,,,,,,,,,,,,,,,,,,,,,,,,,,,,,,,,,,,,,,,,,,,,,,,,,,,,,,,,,,,,,,,,,,,,,,,,,,,,,,,,,,,,,,,,,,,,,,,,,
,,,,,,600726c489ddb31a15162ab0,62c5397fcc76923a56d01cde,2022-07-06_09h30.20.658,Colour_Asymmetry_Pilot,2022.1.3,Win32,59.58410296,62c50e9c1127f2cd403a315f,0,4,4,98,1,twoone,,,,,,,,,,,,,,,,,,,,,,,,,,,,,,,,,,,,,,,,,,,,,,,,,,,,,,,,,,,,,,,,,,,,,,,,,,,,,,,,,,,,,,,,,,,,,,,,,,,,,,,,,,,,,,,,,,,,,,,,,,,,,,,,,,,,,,,,,,,,,,,,,,,,,,,,,,,,,,
,,,,,,600726c489ddb31a15162ab0,62c5397fcc76923a56d01cde,2022-07-06_09h30.20.658,Colour_Asymmetry_Pilot,2022.1.3,Win32,59.58410296,62c50e9c1127f2cd403a315f,0,5,5,136,1,onetwo,,,,,,,,,,,,,,,,,,,,,,,,,,,,,,,,,,,,,,,,,,,,,,,,,,,,,,,,,,,,,,,,,,,,,,,,,,,,,,,,,,,,,,,,,,,,,,,,,,,,,,,,,,,,,,,,,,,,,,,,,,,,,,,,,,,,,,,,,,,,,,,,,,,,,,,,,,,,,,
,,,,,,600726c489ddb31a15162ab0,62c5397fcc76923a56d01cde,2022-07-06_09h30.20.658,Colour_Asymmetry_Pilot,2022.1.3,Win32,59.58410296,62c50e9c1127f2cd403a315f,0,6,6,156,1,threeone,,,,,,,,,,,,,,,,,,,,,,,,,,,,,,,,,,,,,,,,,,,,,,,,,,,,,,,,,,,,,,,,,,,,,,,,,,,,,,,,,,,,,,,,,,,,,,,,,,,,,,,,,,,,,,,,,,,,,,,,,,,,,,,,,,,,,,,,,,,,,,,,,,,,,,,,,,,,,,
,,,,,,600726c489ddb31a15162ab0,62c5397fcc76923a56d01cde,2022-07-06_09h30.20.658,Colour_Asymmetry_Pilot,2022.1.3,Win32,59.58410296,62c50e9c1127f2cd403a315f,0,7,7,83,1,twofour,,,,,,,,,,,,,,,,,,,,,,,,,,,,,,,,,,,,,,,,,,,,,,,,,,,,,,,,,,,,,,,,,,,,,,,,,,,,,,,,,,,,,,,,,,,,,,,,,,,,,,,,,,,,,,,,,,,,,,,,,,,,,,,,,,,,,,,,,,,,,,,,,,,,,,,,,,,,,,
,,,,,,600726c489ddb31a15162ab0,62c5397fcc76923a56d01cde,2022-07-06_09h30.20.658,Colour_Asymmetry_Pilot,2022.1.3,Win32,59.58410296,62c50e9c1127f2cd403a315f,0,8,8,122,1,twoone,,,,,,,,,,,,,,,,,,,,,,,,,,,,,,,,,,,,,,,,,,,,,,,,,,,,,,,,,,,,,,,,,,,,,,,,,,,,,,,,,,,,,,,,,,,,,,,,,,,,,,,,,,,,,,,,,,,,,,,,,,,,,,,,,,,,,,,,,,,,,,,,,,,,,,,,,,,,,,
,,,,,,600726c489ddb31a15162ab0,62c5397fcc76923a56d01cde,2022-07-06_09h30.20.658,Colour_Asymmetry_Pilot,2022.1.3,Win32,59.58410296,62c50e9c1127f2cd403a315f,0,9,9,23,1,fourthree,,,,,,,,,,,,,,,,,,,,,,,,,,,,,,,,,,,,,,,,,,,,,,,,,,,,,,,,,,,,,,,,,,,,,,,,,,,,,,,,,,,,,,,,,,,,,,,,,,,,,,,,,,,,,,,,,,,,,,,,,,,,,,,,,,,,,,,,,,,,,,,,,,,,,,,,,,,,,,
,,,,,,600726c489ddb31a15162ab0,62c5397fcc76923a56d01cde,2022-07-06_09h30.20.658,Colour_Asymmetry_Pilot,2022.1.3,Win32,59.58410296,62c50e9c1127f2cd403a315f,0,10,10,87,1,fourthree,,,,,,,,,,,,,,,,,,,,,,,,,,,,,,,,,,,,,,,,,,,,,,,,,,,,,,,,,,,,,,,,,,,,,,,,,,,,,,,,,,,,,,,,,,,,,,,,,,,,,,,,,,,,,,,,,,,,,,,,,,,,,,,,,,,,,,,,,,,,,,,,,,,,,,,,,,,,,,
,,,,,,600726c489ddb31a15162ab0,62c5397fcc76923a56d01cde,2022-07-06_09h30.20.658,Colour_Asymmetry_Pilot,2022.1.3,Win32,59.58410296,62c50e9c1127f2cd403a315f,0,11,11,39,1,fourthree,,,,,,,,,,,,,,,,,,,,,,,,,,,,,,,,,,,,,,,,,,,,,,,,,,,,,,,,,,,,,,,,,,,,,,,,,,,,,,,,,,,,,,,,,,,,,,,,,,,,,,,,,,,,,,,,,,,,,,,,,,,,,,,,,,,,,,,,,,,,,,,,,,,,,,,,,,,,,,
,,,,,,600726c489ddb31a15162ab0,62c5397fcc76923a56d01cde,2022-07-06_09h30.20.658,Colour_Asymmetry_Pilot,2022.1.3,Win32,59.58410296,62c50e9c1127f2cd403a315f,0,12,12,99,1,twofour,,,,,,,,,,,,,,,,,,,,,,,,,,,,,,,,,,,,,,,,,,,,,,,,,,,,,,,,,,,,,,,,,,,,,,,,,,,,,,,,,,,,,,,,,,,,,,,,,,,,,,,,,,,,,,,,,,,,,,,,,,,,,,,,,,,,,,,,,,,,,,,,,,,,,,,,,,,,,,
,,,,,,600726c489ddb31a15162ab0,62c5397fcc76923a56d01cde,2022-07-06_09h30.20.658,Colour_Asymmetry_Pilot,2022.1.3,Win32,59.58410296,62c50e9c1127f2cd403a315f,0,13,13,128,1,onetwo,,,,,,,,,,,,,,,,,,,,,,,,,,,,,,,,,,,,,,,,,,,,,,,,,,,,,,,,,,,,,,,,,,,,,,,,,,,,,,,,,,,,,,,,,,,,,,,,,,,,,,,,,,,,,,,,,,,,,,,,,,,,,,,,,,,,,,,,,,,,,,,,,,,,,,,,,,,,,,
,,,,,,600726c489ddb31a15162ab0,62c5397fcc76923a56d01cde,2022-07-06_09h30.20.658,Colour_Asymmetry_Pilot,2022.1.3,Win32,59.58410296,62c50e9c1127f2cd403a315f,0,14,14,67,1,twofour,,,,,,,,,,,,,,,,,,,,,,,,,,,,,,,,,,,,,,,,,,,,,,,,,,,,,,,,,,,,,,,,,,,,,,,,,,,,,,,,,,,,,,,,,,,,,,,,,,,,,,,,,,,,,,,,,,,,,,,,,,,,,,,,,,,,,,,,,,,,,,,,,,,,,,,,,,,,,,
,,,,,,600726c489ddb31a15162ab0,62c5397fcc76923a56d01cde,2022-07-06_09h30.20.658,Colour_Asymmetry_Pilot,2022.1.3,Win32,59.58410296,62c50e9c1127f2cd403a315f,0,15,15,110,1,fourtwo,,,,,,,,,,,,,,,,,,,,,,,,,,,,,,,,,,,,,,,,,,,,,,,,,,,,,,,,,,,,,,,,,,,,,,,,,,,,,,,,,,,,,,,,,,,,,,,,,,,,,,,,,,,,,,,,,,,,,,,,,,,,,,,,,,,,,,,,,,,,,,,,,,,,,,,,,,,,,,
,,,,,,600726c489ddb31a15162ab0,62c5397fcc76923a56d01cde,2022-07-06_09h30.20.658,Colour_Asymmetry_Pilot,2022.1.3,Win32,59.58410296,62c50e9c1127f2cd403a315f,0,16,16,6,1,fourtwo,,,,,,,,,,,,,,,,,,,,,,,,,,,,,,,,,,,,,,,,,,,,,,,,,,,,,,,,,,,,,,,,,,,,,,,,,,,,,,,,,,,,,,,,,,,,,,,,,,,,,,,,,,,,,,,,,,,,,,,,,,,,,,,,,,,,,,,,,,,,,,,,,,,,,,,,,,,,,,
,,,,,,600726c489ddb31a15162ab0,62c5397fcc76923a56d01cde,2022-07-06_09h30.20.658,Colour_Asymmetry_Pilot,2022.1.3,Win32,59.58410296,62c50e9c1127f2cd403a315f,0,17,17,47,1,fourthree,,,,,,,,,,,,,,,,,,,,,,,,,,,,,,,,,,,,,,,,,,,,,,,,,,,,,,,,,,,,,,,,,,,,,,,,,,,,,,,,,,,,,,,,,,,,,,,,,,,,,,,,,,,,,,,,,,,,,,,,,,,,,,,,,,,,,,,,,,,,,,,,,,,,,,,,,,,,,,
,,,,,,600726c489ddb31a15162ab0,62c5397fcc76923a56d01cde,2022-07-06_09h30.20.658,Colour_Asymmetry_Pilot,2022.1.3,Win32,59.58410296,62c50e9c1127f2cd403a315f,0,18,18,26,1,twoone,,,,,,,,,,,,,,,,,,,,,,,,,,,,,,,,,,,,,,,,,,,,,,,,,,,,,,,,,,,,,,,,,,,,,,,,,,,,,,,,,,,,,,,,,,,,,,,,,,,,,,,,,,,,,,,,,,,,,,,,,,,,,,,,,,,,,,,,,,,,,,,,,,,,,,,,,,,,,,
,,,,,,600726c489ddb31a15162ab0,62c5397fcc76923a56d01cde,2022-07-06_09h30.20.658,Colour_Asymmetry_Pilot,2022.1.3,Win32,59.58410296,62c50e9c1127f2cd403a315f,0,19,19,79,1,fourthree,,,,,,,,,,,,,,,,,,,,,,,,,,,,,,,,,,,,,,,,,,,,,,,,,,,,,,,,,,,,,,,,,,,,,,,,,,,,,,,,,,,,,,,,,,,,,,,,,,,,,,,,,,,,,,,,,,,,,,,,,,,,,,,,,,,,,,,,,,,,,,,,,,,,,,,,,,,,,,
,,,,,,600726c489ddb31a15162ab0,62c5397fcc76923a56d01cde,2022-07-06_09h30.20.658,Colour_Asymmetry_Pilot,2022.1.3,Win32,59.58410296,62c50e9c1127f2cd403a315f,0,20,20,132,1,threeone,,,,,,,,,,,,,,,,,,,,,,,,,,,,,,,,,,,,,,,,,,,,,,,,,,,,,,,,,,,,,,,,,,,,,,,,,,,,,,,,,,,,,,,,,,,,,,,,,,,,,,,,,,,,,,,,,,,,,,,,,,,,,,,,,,,,,,,,,,,,,,,,,,,,,,,,,,,,,,
,,,,,,600726c489ddb31a15162ab0,62c5397fcc76923a56d01cde,2022-07-06_09h30.20.658,Colour_Asymmetry_Pilot,2022.1.3,Win32,59.58410296,62c50e9c1127f2cd403a315f,0,21,21,2,1,twoone,,,,,,,,,,,,,,,,,,,,,,,,,,,,,,,,,,,,,,,,,,,,,,,,,,,,,,,,,,,,,,,,,,,,,,,,,,,,,,,,,,,,,,,,,,,,,,,,,,,,,,,,,,,,,,,,,,,,,,,,,,,,,,,,,,,,,,,,,,,,,,,,,,,,,,,,,,,,,,
,,,,,,600726c489ddb31a15162ab0,62c5397fcc76923a56d01cde,2022-07-06_09h30.20.658,Colour_Asymmetry_Pilot,2022.1.3,Win32,59.58410296,62c50e9c1127f2cd403a315f,0,22,22,22,1,fourtwo,,,,,,,,,,,,,,,,,,,,,,,,,,,,,,,,,,,,,,,,,,,,,,,,,,,,,,,,,,,,,,,,,,,,,,,,,,,,,,,,,,,,,,,,,,,,,,,,,,,,,,,,,,,,,,,,,,,,,,,,,,,,,,,,,,,,,,,,,,,,,,,,,,,,,,,,,,,,,,
,,,,,,600726c489ddb31a15162ab0,62c5397fcc76923a56d01cde,2022-07-06_09h30.20.658,Colour_Asymmetry_Pilot,2022.1.3,Win32,59.58410296,62c50e9c1127f2cd403a315f,0,23,23,43,1,twofour,,,,,,,,,,,,,,,,,,,,,,,,,,,,,,,,,,,,,,,,,,,,,,,,,,,,,,,,,,,,,,,,,,,,,,,,,,,,,,,,,,,,,,,,,,,,,,,,,,,,,,,,,,,,,,,,,,,,,,,,,,,,,,,,,,,,,,,,,,,,,,,,,,,,,,,,,,,,,,
,,,,,,600726c489ddb31a15162ab0,62c5397fcc76923a56d01cde,2022-07-06_09h30.20.658,Colour_Asymmetry_Pilot,2022.1.3,Win32,59.58410296,62c50e9c1127f2cd403a315f,0,24,24,108,1,threeone,,,,,,,,,,,,,,,,,,,,,,,,,,,,,,,,,,,,,,,,,,,,,,,,,,,,,,,,,,,,,,,,,,,,,,,,,,,,,,,,,,,,,,,,,,,,,,,,,,,,,,,,,,,,,,,,,,,,,,,,,,,,,,,,,,,,,,,,,,,,,,,,,,,,,,,,,,,,,,
,,,,,,600726c489ddb31a15162ab0,62c5397fcc76923a56d01cde,2022-07-06_09h30.20.658,Colour_Asymmetry_Pilot,2022.1.3,Win32,59.58410296,62c50e9c1127f2cd403a315f,0,25,25,86,1,fourtwo,,,,,,,,,,,,,,,,,,,,,,,,,,,,,,,,,,,,,,,,,,,,,,,,,,,,,,,,,,,,,,,,,,,,,,,,,,,,,,,,,,,,,,,,,,,,,,,,,,,,,,,,,,,,,,,,,,,,,,,,,,,,,,,,,,,,,,,,,,,,,,,,,,,,,,,,,,,,,,
,,,,,,600726c489ddb31a15162ab0,62c5397fcc76923a56d01cde,2022-07-06_09h30.20.658,Colour_Asymmetry_Pilot,2022.1.3,Win32,59.58410296,62c50e9c1127f2cd403a315f,0,26,26,91,1,twofour,,,,,,,,,,,,,,,,,,,,,,,,,,,,,,,,,,,,,,,,,,,,,,,,,,,,,,,,,,,,,,,,,,,,,,,,,,,,,,,,,,,,,,,,,,,,,,,,,,,,,,,,,,,,,,,,,,,,,,,,,,,,,,,,,,,,,,,,,,,,,,,,,,,,,,,,,,,,,,
,,,,,,600726c489ddb31a15162ab0,62c5397fcc76923a56d01cde,2022-07-06_09h30.20.658,Colour_Asymmetry_Pilot,2022.1.3,Win32,59.58410296,62c50e9c1127f2cd403a315f,0,27,27,123,1,twofour,,,,,,,,,,,,,,,,,,,,,,,,,,,,,,,,,,,,,,,,,,,,,,,,,,,,,,,,,,,,,,,,,,,,,,,,,,,,,,,,,,,,,,,,,,,,,,,,,,,,,,,,,,,,,,,,,,,,,,,,,,,,,,,,,,,,,,,,,,,,,,,,,,,,,,,,,,,,,,
,,,,,,600726c489ddb31a15162ab0,62c5397fcc76923a56d01cde,2022-07-06_09h30.20.658,Colour_Asymmetry_Pilot,2022.1.3,Win32,59.58410296,62c50e9c1127f2cd403a315f,0,28,28,5,1,threefour,,,,,,,,,,,,,,,,,,,,,,,,,,,,,,,,,,,,,,,,,,,,,,,,,,,,,,,,,,,,,,,,,,,,,,,,,,,,,,,,,,,,,,,,,,,,,,,,,,,,,,,,,,,,,,,,,,,,,,,,,,,,,,,,,,,,,,,,,,,,,,,,,,,,,,,,,,,,,,
,,,,,,600726c489ddb31a15162ab0,62c5397fcc76923a56d01cde,2022-07-06_09h30.20.658,Colour_Asymmetry_Pilot,2022.1.3,Win32,59.58410296,62c50e9c1127f2cd403a315f,0,29,29,19,1,twofour,,,,,,,,,,,,,,,,,,,,,,,,,,,,,,,,,,,,,,,,,,,,,,,,,,,,,,,,,,,,,,,,,,,,,,,,,,,,,,,,,,,,,,,,,,,,,,,,,,,,,,,,,,,,,,,,,,,,,,,,,,,,,,,,,,,,,,,,,,,,,,,,,,,,,,,,,,,,,,
,,,,,,600726c489ddb31a15162ab0,62c5397fcc76923a56d01cde,2022-07-06_09h30.20.658,Colour_Asymmetry_Pilot,2022.1.3,Win32,59.58410296,62c50e9c1127f2cd403a315f,0,30,30,145,1,onethree,,,,,,,,,,,,,,,,,,,,,,,,,,,,,,,,,,,,,,,,,,,,,,,,,,,,,,,,,,,,,,,,,,,,,,,,,,,,,,,,,,,,,,,,,,,,,,,,,,,,,,,,,,,,,,,,,,,,,,,,,,,,,,,,,,,,,,,,,,,,,,,,,,,,,,,,,,,,,,
,,,,,,600726c489ddb31a15162ab0,62c5397fcc76923a56d01cde,2022-07-06_09h30.20.658,Colour_Asymmetry_Pilot,2022.1.3,Win32,59.58410296,62c50e9c1127f2cd403a315f,0,31,31,78,1,fourtwo,,,,,,,,,,,,,,,,,,,,,,,,,,,,,,,,,,,,,,,,,,,,,,,,,,,,,,,,,,,,,,,,,,,,,,,,,,,,,,,,,,,,,,,,,,,,,,,,,,,,,,,,,,,,,,,,,,,,,,,,,,,,,,,,,,,,,,,,,,,,,,,,,,,,,,,,,,,,,,
,,,,,,600726c489ddb31a15162ab0,62c5397fcc76923a56d01cde,2022-07-06_09h30.20.658,Colour_Asymmetry_Pilot,2022.1.3,Win32,59.58410296,62c50e9c1127f2cd403a315f,0,32,32,138,1,twoone,,,,,,,,,,,,,,,,,,,,,,,,,,,,,,,,,,,,,,,,,,,,,,,,,,,,,,,,,,,,,,,,,,,,,,,,,,,,,,,,,,,,,,,,,,,,,,,,,,,,,,,,,,,,,,,,,,,,,,,,,,,,,,,,,,,,,,,,,,,,,,,,,,,,,,,,,,,,,,
,,,,,,600726c489ddb31a15162ab0,62c5397fcc76923a56d01cde,2022-07-06_09h30.20.658,Colour_Asymmetry_Pilot,2022.1.3,Win32,59.58410296,62c50e9c1127f2cd403a315f,0,33,33,131,1,twofour,,,,,,,,,,,,,,,,,,,,,,,,,,,,,,,,,,,,,,,,,,,,,,,,,,,,,,,,,,,,,,,,,,,,,,,,,,,,,,,,,,,,,,,,,,,,,,,,,,,,,,,,,,,,,,,,,,,,,,,,,,,,,,,,,,,,,,,,,,,,,,,,,,,,,,,,,,,,,,
,,,,,,600726c489ddb31a15162ab0,62c5397fcc76923a56d01cde,2022-07-06_09h30.20.658,Colour_Asymmetry_Pilot,2022.1.3,Win32,59.58410296,62c50e9c1127f2cd403a315f,0,34,34,76,1,threeone,,,,,,,,,,,,,,,,,,,,,,,,,,,,,,,,,,,,,,,,,,,,,,,,,,,,,,,,,,,,,,,,,,,,,,,,,,,,,,,,,,,,,,,,,,,,,,,,,,,,,,,,,,,,,,,,,,,,,,,,,,,,,,,,,,,,,,,,,,,,,,,,,,,,,,,,,,,,,,
,,,,,,600726c489ddb31a15162ab0,62c5397fcc76923a56d01cde,2022-07-06_09h30.20.658,Colour_Asymmetry_Pilot,2022.1.3,Win32,59.58410296,62c50e9c1127f2cd403a315f,0,35,35,11,1,twofour,,,,,,,,,,,,,,,,,,,,,,,,,,,,,,,,,,,,,,,,,,,,,,,,,,,,,,,,,,,,,,,,,,,,,,,,,,,,,,,,,,,,,,,,,,,,,,,,,,,,,,,,,,,,,,,,,,,,,,,,,,,,,,,,,,,,,,,,,,,,,,,,,,,,,,,,,,,,,,
,,,,,,600726c489ddb31a15162ab0,62c5397fcc76923a56d01cde,2022-07-06_09h30.20.658,Colour_Asymmetry_Pilot,2022.1.3,Win32,59.58410296,62c50e9c1127f2cd403a315f,0,36,36,0,1,onetwo,,,,,,,,,,,,,,,,,,,,,,,,,,,,,,,,,,,,,,,,,,,,,,,,,,,,,,,,,,,,,,,,,,,,,,,,,,,,,,,,,,,,,,,,,,,,,,,,,,,,,,,,,,,,,,,,,,,,,,,,,,,,,,,,,,,,,,,,,,,,,,,,,,,,,,,,,,,,,,
,,,,,,600726c489ddb31a15162ab0,62c5397fcc76923a56d01cde,2022-07-06_09h30.20.658,Colour_Asymmetry_Pilot,2022.1.3,Win32,59.58410296,62c50e9c1127f2cd403a315f,0,37,37,84,1,threeone,,,,,,,,,,,,,,,,,,,,,,,,,,,,,,,,,,,,,,,,,,,,,,,,,,,,,,,,,,,,,,,,,,,,,,,,,,,,,,,,,,,,,,,,,,,,,,,,,,,,,,,,,,,,,,,,,,,,,,,,,,,,,,,,,,,,,,,,,,,,,,,,,,,,,,,,,,,,,,
,,,,,,600726c489ddb31a15162ab0,62c5397fcc76923a56d01cde,2022-07-06_09h30.20.658,Colour_Asymmetry_Pilot,2022.1.3,Win32,59.58410296,62c50e9c1127f2cd403a315f,0,38,38,77,1,threefour,,,,,,,,,,,,,,,,,,,,,,,,,,,,,,,,,,,,,,,,,,,,,,,,,,,,,,,,,,,,,,,,,,,,,,,,,,,,,,,,,,,,,,,,,,,,,,,,,,,,,,,,,,,,,,,,,,,,,,,,,,,,,,,,,,,,,,,,,,,,,,,,,,,,,,,,,,,,,,
,,,,,,600726c489ddb31a15162ab0,62c5397fcc76923a56d01cde,2022-07-06_09h30.20.658,Colour_Asymmetry_Pilot,2022.1.3,Win32,59.58410296,62c50e9c1127f2cd403a315f,0,39,39,93,1,threefour,,,,,,,,,,,,,,,,,,,,,,,,,,,,,,,,,,,,,,,,,,,,,,,,,,,,,,,,,,,,,,,,,,,,,,,,,,,,,,,,,,,,,,,,,,,,,,,,,,,,,,,,,,,,,,,,,,,,,,,,,,,,,,,,,,,,,,,,,,,,,,,,,,,,,,,,,,,,,,
,,,,,,600726c489ddb31a15162ab0,62c5397fcc76923a56d01cde,2022-07-06_09h30.20.658,Colour_Asymmetry_Pilot,2022.1.3,Win32,59.58410296,62c50e9c1127f2cd403a315f,0,40,40,157,1,threefour,,,,,,,,,,,,,,,,,,,,,,,,,,,,,,,,,,,,,,,,,,,,,,,,,,,,,,,,,,,,,,,,,,,,,,,,,,,,,,,,,,,,,,,,,,,,,,,,,,,,,,,,,,,,,,,,,,,,,,,,,,,,,,,,,,,,,,,,,,,,,,,,,,,,,,,,,,,,,,
,,,,,,600726c489ddb31a15162ab0,62c5397fcc76923a56d01cde,2022-07-06_09h30.20.658,Colour_Asymmetry_Pilot,2022.1.3,Win32,59.58410296,62c50e9c1127f2cd403a315f,0,41,41,85,1,threefour,,,,,,,,,,,,,,,,,,,,,,,,,,,,,,,,,,,,,,,,,,,,,,,,,,,,,,,,,,,,,,,,,,,,,,,,,,,,,,,,,,,,,,,,,,,,,,,,,,,,,,,,,,,,,,,,,,,,,,,,,,,,,,,,,,,,,,,,,,,,,,,,,,,,,,,,,,,,,,
,,,,,,600726c489ddb31a15162ab0,62c5397fcc76923a56d01cde,2022-07-06_09h30.20.658,Colour_Asymmetry_Pilot,2022.1.3,Win32,59.58410296,62c50e9c1127f2cd403a315f,0,42,42,159,1,fourthree,,,,,,,,,,,,,,,,,,,,,,,,,,,,,,,,,,,,,,,,,,,,,,,,,,,,,,,,,,,,,,,,,,,,,,,,,,,,,,,,,,,,,,,,,,,,,,,,,,,,,,,,,,,,,,,,,,,,,,,,,,,,,,,,,,,,,,,,,,,,,,,,,,,,,,,,,,,,,,
,,,,,,600726c489ddb31a15162ab0,62c5397fcc76923a56d01cde,2022-07-06_09h30.20.658,Colour_Asymmetry_Pilot,2022.1.3,Win32,59.58410296,62c50e9c1127f2cd403a315f,0,43,43,113,1,onethree,,,,,,,,,,,,,,,,,,,,,,,,,,,,,,,,,,,,,,,,,,,,,,,,,,,,,,,,,,,,,,,,,,,,,,,,,,,,,,,,,,,,,,,,,,,,,,,,,,,,,,,,,,,,,,,,,,,,,,,,,,,,,,,,,,,,,,,,,,,,,,,,,,,,,,,,,,,,,,
,,,,,,600726c489ddb31a15162ab0,62c5397fcc76923a56d01cde,2022-07-06_09h30.20.658,Colour_Asymmetry_Pilot,2022.1.3,Win32,59.58410296,62c50e9c1127f2cd403a315f,0,44,44,59,1,twofour,,,,,,,,,,,,,,,,,,,,,,,,,,,,,,,,,,,,,,,,,,,,,,,,,,,,,,,,,,,,,,,,,,,,,,,,,,,,,,,,,,,,,,,,,,,,,,,,,,,,,,,,,,,,,,,,,,,,,,,,,,,,,,,,,,,,,,,,,,,,,,,,,,,,,,,,,,,,,,
,,,,,,600726c489ddb31a15162ab0,62c5397fcc76923a56d01cde,2022-07-06_09h30.20.658,Colour_Asymmetry_Pilot,2022.1.3,Win32,59.58410296,62c50e9c1127f2cd403a315f,0,45,45,54,1,fourtwo,,,,,,,,,,,,,,,,,,,,,,,,,,,,,,,,,,,,,,,,,,,,,,,,,,,,,,,,,,,,,,,,,,,,,,,,,,,,,,,,,,,,,,,,,,,,,,,,,,,,,,,,,,,,,,,,,,,,,,,,,,,,,,,,,,,,,,,,,,,,,,,,,,,,,,,,,,,,,,
,,,,,,600726c489ddb31a15162ab0,62c5397fcc76923a56d01cde,2022-07-06_09h30.20.658,Colour_Asymmetry_Pilot,2022.1.3,Win32,59.58410296,62c50e9c1127f2cd403a315f,0,46,46,127,1,fourthree,,,,,,,,,,,,,,,,,,,,,,,,,,,,,,,,,,,,,,,,,,,,,,,,,,,,,,,,,,,,,,,,,,,,,,,,,,,,,,,,,,,,,,,,,,,,,,,,,,,,,,,,,,,,,,,,,,,,,,,,,,,,,,,,,,,,,,,,,,,,,,,,,,,,,,,,,,,,,,
,,,,,,600726c489ddb31a15162ab0,62c5397fcc76923a56d01cde,2022-07-06_09h30.20.658,Colour_Asymmetry_Pilot,2022.1.3,Win32,59.58410296,62c50e9c1127f2cd403a315f,0,47,47,105,1,onethree,,,,,,,,,,,,,,,,,,,,,,,,,,,,,,,,,,,,,,,,,,,,,,,,,,,,,,,,,,,,,,,,,,,,,,,,,,,,,,,,,,,,,,,,,,,,,,,,,,,,,,,,,,,,,,,,,,,,,,,,,,,,,,,,,,,,,,,,,,,,,,,,,,,,,,,,,,,,,,
,,,,,,600726c489ddb31a15162ab0,62c5397fcc76923a56d01cde,2022-07-06_09h30.20.658,Colour_Asymmetry_Pilot,2022.1.3,Win32,59.58410296,62c50e9c1127f2cd403a315f,0,48,48,125,1,threefour,,,,,,,,,,,,,,,,,,,,,,,,,,,,,,,,,,,,,,,,,,,,,,,,,,,,,,,,,,,,,,,,,,,,,,,,,,,,,,,,,,,,,,,,,,,,,,,,,,,,,,,,,,,,,,,,,,,,,,,,,,,,,,,,,,,,,,,,,,,,,,,,,,,,,,,,,,,,,,
,,,,,,600726c489ddb31a15162ab0,62c5397fcc76923a56d01cde,2022-07-06_09h30.20.658,Colour_Asymmetry_Pilot,2022.1.3,Win32,59.58410296,62c50e9c1127f2cd403a315f,0,49,49,126,1,fourtwo,,,,,,,,,,,,,,,,,,,,,,,,,,,,,,,,,,,,,,,,,,,,,,,,,,,,,,,,,,,,,,,,,,,,,,,,,,,,,,,,,,,,,,,,,,,,,,,,,,,,,,,,,,,,,,,,,,,,,,,,,,,,,,,,,,,,,,,,,,,,,,,,,,,,,,,,,,,,,,
,,,,,,600726c489ddb31a15162ab0,62c5397fcc76923a56d01cde,2022-07-06_09h30.20.658,Colour_Asymmetry_Pilot,2022.1.3,Win32,59.58410296,62c50e9c1127f2cd403a315f,0,50,50,73,1,onethree,,,,,,,,,,,,,,,,,,,,,,,,,,,,,,,,,,,,,,,,,,,,,,,,,,,,,,,,,,,,,,,,,,,,,,,,,,,,,,,,,,,,,,,,,,,,,,,,,,,,,,,,,,,,,,,,,,,,,,,,,,,,,,,,,,,,,,,,,,,,,,,,,,,,,,,,,,,,,,
,,,,,,600726c489ddb31a15162ab0,62c5397fcc76923a56d01cde,2022-07-06_09h30.20.658,Colour_Asymmetry_Pilot,2022.1.3,Win32,59.58410296,62c50e9c1127f2cd403a315f,0,51,51,44,1,threeone,,,,,,,,,,,,,,,,,,,,,,,,,,,,,,,,,,,,,,,,,,,,,,,,,,,,,,,,,,,,,,,,,,,,,,,,,,,,,,,,,,,,,,,,,,,,,,,,,,,,,,,,,,,,,,,,,,,,,,,,,,,,,,,,,,,,,,,,,,,,,,,,,,,,,,,,,,,,,,
,,,,,,600726c489ddb31a15162ab0,62c5397fcc76923a56d01cde,2022-07-06_09h30.20.658,Colour_Asymmetry_Pilot,2022.1.3,Win32,59.58410296,62c50e9c1127f2cd403a315f,0,52,52,1,1,onethree,,,,,,,,,,,,,,,,,,,,,,,,,,,,,,,,,,,,,,,,,,,,,,,,,,,,,,,,,,,,,,,,,,,,,,,,,,,,,,,,,,,,,,,,,,,,,,,,,,,,,,,,,,,,,,,,,,,,,,,,,,,,,,,,,,,,,,,,,,,,,,,,,,,,,,,,,,,,,,
,,,,,,600726c489ddb31a15162ab0,62c5397fcc76923a56d01cde,2022-07-06_09h30.20.658,Colour_Asymmetry_Pilot,2022.1.3,Win32,59.58410296,62c50e9c1127f2cd403a315f,0,53,53,116,1,threeone,,,,,,,,,,,,,,,,,,,,,,,,,,,,,,,,,,,,,,,,,,,,,,,,,,,,,,,,,,,,,,,,,,,,,,,,,,,,,,,,,,,,,,,,,,,,,,,,,,,,,,,,,,,,,,,,,,,,,,,,,,,,,,,,,,,,,,,,,,,,,,,,,,,,,,,,,,,,,,
,,,,,,600726c489ddb31a15162ab0,62c5397fcc76923a56d01cde,2022-07-06_09h30.20.658,Colour_Asymmetry_Pilot,2022.1.3,Win32,59.58410296,62c50e9c1127f2cd403a315f,0,54,54,57,1,onethree,,,,,,,,,,,,,,,,,,,,,,,,,,,,,,,,,,,,,,,,,,,,,,,,,,,,,,,,,,,,,,,,,,,,,,,,,,,,,,,,,,,,,,,,,,,,,,,,,,,,,,,,,,,,,,,,,,,,,,,,,,,,,,,,,,,,,,,,,,,,,,,,,,,,,,,,,,,,,,
,,,,,,600726c489ddb31a15162ab0,62c5397fcc76923a56d01cde,2022-07-06_09h30.20.658,Colour_Asymmetry_Pilot,2022.1.3,Win32,59.58410296,62c50e9c1127f2cd403a315f,0,55,55,53,1,threefour,,,,,,,,,,,,,,,,,,,,,,,,,,,,,,,,,,,,,,,,,,,,,,,,,,,,,,,,,,,,,,,,,,,,,,,,,,,,,,,,,,,,,,,,,,,,,,,,,,,,,,,,,,,,,,,,,,,,,,,,,,,,,,,,,,,,,,,,,,,,,,,,,,,,,,,,,,,,,,
,,,,,,600726c489ddb31a15162ab0,62c5397fcc76923a56d01cde,2022-07-06_09h30.20.658,Colour_Asymmetry_Pilot,2022.1.3,Win32,59.58410296,62c50e9c1127f2cd403a315f,0,56,56,35,1,twofour,,,,,,,,,,,,,,,,,,,,,,,,,,,,,,,,,,,,,,,,,,,,,,,,,,,,,,,,,,,,,,,,,,,,,,,,,,,,,,,,,,,,,,,,,,,,,,,,,,,,,,,,,,,,,,,,,,,,,,,,,,,,,,,,,,,,,,,,,,,,,,,,,,,,,,,,,,,,,,
,,,,,,600726c489ddb31a15162ab0,62c5397fcc76923a56d01cde,2022-07-06_09h30.20.658,Colour_Asymmetry_Pilot,2022.1.3,Win32,59.58410296,62c50e9c1127f2cd403a315f,0,57,57,137,1,onethree,,,,,,,,,,,,,,,,,,,,,,,,,,,,,,,,,,,,,,,,,,,,,,,,,,,,,,,,,,,,,,,,,,,,,,,,,,,,,,,,,,,,,,,,,,,,,,,,,,,,,,,,,,,,,,,,,,,,,,,,,,,,,,,,,,,,,,,,,,,,,,,,,,,,,,,,,,,,,,
,,,,,,600726c489ddb31a15162ab0,62c5397fcc76923a56d01cde,2022-07-06_09h30.20.658,Colour_Asymmetry_Pilot,2022.1.3,Win32,59.58410296,62c50e9c1127f2cd403a315f,0,58,58,52,1,threeone,,,,,,,,,,,,,,,,,,,,,,,,,,,,,,,,,,,,,,,,,,,,,,,,,,,,,,,,,,,,,,,,,,,,,,,,,,,,,,,,,,,,,,,,,,,,,,,,,,,,,,,,,,,,,,,,,,,,,,,,,,,,,,,,,,,,,,,,,,,,,,,,,,,,,,,,,,,,,,
,,,,,,600726c489ddb31a15162ab0,62c5397fcc76923a56d01cde,2022-07-06_09h30.20.658,Colour_Asymmetry_Pilot,2022.1.3,Win32,59.58410296,62c50e9c1127f2cd403a315f,0,59,59,94,1,fourtwo,,,,,,,,,,,,,,,,,,,,,,,,,,,,,,,,,,,,,,,,,,,,,,,,,,,,,,,,,,,,,,,,,,,,,,,,,,,,,,,,,,,,,,,,,,,,,,,,,,,,,,,,,,,,,,,,,,,,,,,,,,,,,,,,,,,,,,,,,,,,,,,,,,,,,,,,,,,,,,
,,,,,,600726c489ddb31a15162ab0,62c5397fcc76923a56d01cde,2022-07-06_09h30.20.658,Colour_Asymmetry_Pilot,2022.1.3,Win32,59.58410296,62c50e9c1127f2cd403a315f,0,60,60,28,1,threeone,,,,,,,,,,,,,,,,,,,,,,,,,,,,,,,,,,,,,,,,,,,,,,,,,,,,,,,,,,,,,,,,,,,,,,,,,,,,,,,,,,,,,,,,,,,,,,,,,,,,,,,,,,,,,,,,,,,,,,,,,,,,,,,,,,,,,,,,,,,,,,,,,,,,,,,,,,,,,,
,,,,,,600726c489ddb31a15162ab0,62c5397fcc76923a56d01cde,2022-07-06_09h30.20.658,Colour_Asymmetry_Pilot,2022.1.3,Win32,59.58410296,62c50e9c1127f2cd403a315f,0,61,61,152,1,onetwo,,,,,,,,,,,,,,,,,,,,,,,,,,,,,,,,,,,,,,,,,,,,,,,,,,,,,,,,,,,,,,,,,,,,,,,,,,,,,,,,,,,,,,,,,,,,,,,,,,,,,,,,,,,,,,,,,,,,,,,,,,,,,,,,,,,,,,,,,,,,,,,,,,,,,,,,,,,,,,
,,,,,,600726c489ddb31a15162ab0,62c5397fcc76923a56d01cde,2022-07-06_09h30.20.658,Colour_Asymmetry_Pilot,2022.1.3,Win32,59.58410296,62c50e9c1127f2cd403a315f,0,62,62,150,1,fourtwo,,,,,,,,,,,,,,,,,,,,,,,,,,,,,,,,,,,,,,,,,,,,,,,,,,,,,,,,,,,,,,,,,,,,,,,,,,,,,,,,,,,,,,,,,,,,,,,,,,,,,,,,,,,,,,,,,,,,,,,,,,,,,,,,,,,,,,,,,,,,,,,,,,,,,,,,,,,,,,
,,,,,,600726c489ddb31a15162ab0,62c5397fcc76923a56d01cde,2022-07-06_09h30.20.658,Colour_Asymmetry_Pilot,2022.1.3,Win32,59.58410296,62c50e9c1127f2cd403a315f,0,63,63,30,1,fourtwo,,,,,,,,,,,,,,,,,,,,,,,,,,,,,,,,,,,,,,,,,,,,,,,,,,,,,,,,,,,,,,,,,,,,,,,,,,,,,,,,,,,,,,,,,,,,,,,,,,,,,,,,,,,,,,,,,,,,,,,,,,,,,,,,,,,,,,,,,,,,,,,,,,,,,,,,,,,,,,
,,,,,,600726c489ddb31a15162ab0,62c5397fcc76923a56d01cde,2022-07-06_09h30.20.658,Colour_Asymmetry_Pilot,2022.1.3,Win32,59.58410296,62c50e9c1127f2cd403a315f,0,64,64,82,1,twoone,,,,,,,,,,,,,,,,,,,,,,,,,,,,,,,,,,,,,,,,,,,,,,,,,,,,,,,,,,,,,,,,,,,,,,,,,,,,,,,,,,,,,,,,,,,,,,,,,,,,,,,,,,,,,,,,,,,,,,,,,,,,,,,,,,,,,,,,,,,,,,,,,,,,,,,,,,,,,,
,,,,,,600726c489ddb31a15162ab0,62c5397fcc76923a56d01cde,2022-07-06_09h30.20.658,Colour_Asymmetry_Pilot,2022.1.3,Win32,59.58410296,62c50e9c1127f2cd403a315f,0,65,65,21,1,threefour,,,,,,,,,,,,,,,,,,,,,,,,,,,,,,,,,,,,,,,,,,,,,,,,,,,,,,,,,,,,,,,,,,,,,,,,,,,,,,,,,,,,,,,,,,,,,,,,,,,,,,,,,,,,,,,,,,,,,,,,,,,,,,,,,,,,,,,,,,,,,,,,,,,,,,,,,,,,,,
,,,,,,600726c489ddb31a15162ab0,62c5397fcc76923a56d01cde,2022-07-06_09h30.20.658,Colour_Asymmetry_Pilot,2022.1.3,Win32,59.58410296,62c50e9c1127f2cd403a315f,0,66,66,158,1,fourtwo,,,,,,,,,,,,,,,,,,,,,,,,,,,,,,,,,,,,,,,,,,,,,,,,,,,,,,,,,,,,,,,,,,,,,,,,,,,,,,,,,,,,,,,,,,,,,,,,,,,,,,,,,,,,,,,,,,,,,,,,,,,,,,,,,,,,,,,,,,,,,,,,,,,,,,,,,,,,,,
,,,,,,600726c489ddb31a15162ab0,62c5397fcc76923a56d01cde,2022-07-06_09h30.20.658,Colour_Asymmetry_Pilot,2022.1.3,Win32,59.58410296,62c50e9c1127f2cd403a315f,0,67,67,50,1,twoone,,,,,,,,,,,,,,,,,,,,,,,,,,,,,,,,,,,,,,,,,,,,,,,,,,,,,,,,,,,,,,,,,,,,,,,,,,,,,,,,,,,,,,,,,,,,,,,,,,,,,,,,,,,,,,,,,,,,,,,,,,,,,,,,,,,,,,,,,,,,,,,,,,,,,,,,,,,,,,
,,,,,,600726c489ddb31a15162ab0,62c5397fcc76923a56d01cde,2022-07-06_09h30.20.658,Colour_Asymmetry_Pilot,2022.1.3,Win32,59.58410296,62c50e9c1127f2cd403a315f,0,68,68,88,1,onetwo,,,,,,,,,,,,,,,,,,,,,,,,,,,,,,,,,,,,,,,,,,,,,,,,,,,,,,,,,,,,,,,,,,,,,,,,,,,,,,,,,,,,,,,,,,,,,,,,,,,,,,,,,,,,,,,,,,,,,,,,,,,,,,,,,,,,,,,,,,,,,,,,,,,,,,,,,,,,,,
,,,,,,600726c489ddb31a15162ab0,62c5397fcc76923a56d01cde,2022-07-06_09h30.20.658,Colour_Asymmetry_Pilot,2022.1.3,Win32,59.58410296,62c50e9c1127f2cd403a315f,0,69,69,42,1,twoone,,,,,,,,,,,,,,,,,,,,,,,,,,,,,,,,,,,,,,,,,,,,,,,,,,,,,,,,,,,,,,,,,,,,,,,,,,,,,,,,,,,,,,,,,,,,,,,,,,,,,,,,,,,,,,,,,,,,,,,,,,,,,,,,,,,,,,,,,,,,,,,,,,,,,,,,,,,,,,
,,,,,,600726c489ddb31a15162ab0,62c5397fcc76923a56d01cde,2022-07-06_09h30.20.658,Colour_Asymmetry_Pilot,2022.1.3,Win32,59.58410296,62c50e9c1127f2cd403a315f,0,70,70,143,1,fourthree,,,,,,,,,,,,,,,,,,,,,,,,,,,,,,,,,,,,,,,,,,,,,,,,,,,,,,,,,,,,,,,,,,,,,,,,,,,,,,,,,,,,,,,,,,,,,,,,,,,,,,,,,,,,,,,,,,,,,,,,,,,,,,,,,,,,,,,,,,,,,,,,,,,,,,,,,,,,,,
,,,,,,600726c489ddb31a15162ab0,62c5397fcc76923a56d01cde,2022-07-06_09h30.20.658,Colour_Asymmetry_Pilot,2022.1.3,Win32,59.58410296,62c50e9c1127f2cd403a315f,0,71,71,118,1,fourtwo,,,,,,,,,,,,,,,,,,,,,,,,,,,,,,,,,,,,,,,,,,,,,,,,,,,,,,,,,,,,,,,,,,,,,,,,,,,,,,,,,,,,,,,,,,,,,,,,,,,,,,,,,,,,,,,,,,,,,,,,,,,,,,,,,,,,,,,,,,,,,,,,,,,,,,,,,,,,,,
,,,,,,600726c489ddb31a15162ab0,62c5397fcc76923a56d01cde,2022-07-06_09h30.20.658,Colour_Asymmetry_Pilot,2022.1.3,Win32,59.58410296,62c50e9c1127f2cd403a315f,0,72,72,142,1,fourtwo,,,,,,,,,,,,,,,,,,,,,,,,,,,,,,,,,,,,,,,,,,,,,,,,,,,,,,,,,,,,,,,,,,,,,,,,,,,,,,,,,,,,,,,,,,,,,,,,,,,,,,,,,,,,,,,,,,,,,,,,,,,,,,,,,,,,,,,,,,,,,,,,,,,,,,,,,,,,,,
,,,,,,600726c489ddb31a15162ab0,62c5397fcc76923a56d01cde,2022-07-06_09h30.20.658,Colour_Asymmetry_Pilot,2022.1.3,Win32,59.58410296,62c50e9c1127f2cd403a315f,0,73,73,153,1,onethree,,,,,,,,,,,,,,,,,,,,,,,,,,,,,,,,,,,,,,,,,,,,,,,,,,,,,,,,,,,,,,,,,,,,,,,,,,,,,,,,,,,,,,,,,,,,,,,,,,,,,,,,,,,,,,,,,,,,,,,,,,,,,,,,,,,,,,,,,,,,,,,,,,,,,,,,,,,,,,
,,,,,,600726c489ddb31a15162ab0,62c5397fcc76923a56d01cde,2022-07-06_09h30.20.658,Colour_Asymmetry_Pilot,2022.1.3,Win32,59.58410296,62c50e9c1127f2cd403a315f,0,74,74,51,1,twofour,,,,,,,,,,,,,,,,,,,,,,,,,,,,,,,,,,,,,,,,,,,,,,,,,,,,,,,,,,,,,,,,,,,,,,,,,,,,,,,,,,,,,,,,,,,,,,,,,,,,,,,,,,,,,,,,,,,,,,,,,,,,,,,,,,,,,,,,,,,,,,,,,,,,,,,,,,,,,,
,,,,,,600726c489ddb31a15162ab0,62c5397fcc76923a56d01cde,2022-07-06_09h30.20.658,Colour_Asymmetry_Pilot,2022.1.3,Win32,59.58410296,62c50e9c1127f2cd403a315f,0,75,75,111,1,fourthree,,,,,,,,,,,,,,,,,,,,,,,,,,,,,,,,,,,,,,,,,,,,,,,,,,,,,,,,,,,,,,,,,,,,,,,,,,,,,,,,,,,,,,,,,,,,,,,,,,,,,,,,,,,,,,,,,,,,,,,,,,,,,,,,,,,,,,,,,,,,,,,,,,,,,,,,,,,,,,
,,,,,,600726c489ddb31a15162ab0,62c5397fcc76923a56d01cde,2022-07-06_09h30.20.658,Colour_Asymmetry_Pilot,2022.1.3,Win32,59.58410296,62c50e9c1127f2cd403a315f,0,76,76,10,1,twoone,,,,,,,,,,,,,,,,,,,,,,,,,,,,,,,,,,,,,,,,,,,,,,,,,,,,,,,,,,,,,,,,,,,,,,,,,,,,,,,,,,,,,,,,,,,,,,,,,,,,,,,,,,,,,,,,,,,,,,,,,,,,,,,,,,,,,,,,,,,,,,,,,,,,,,,,,,,,,,
,,,,,,600726c489ddb31a15162ab0,62c5397fcc76923a56d01cde,2022-07-06_09h30.20.658,Colour_Asymmetry_Pilot,2022.1.3,Win32,59.58410296,62c50e9c1127f2cd403a315f,0,77,77,95,1,fourthree,,,,,,,,,,,,,,,,,,,,,,,,,,,,,,,,,,,,,,,,,,,,,,,,,,,,,,,,,,,,,,,,,,,,,,,,,,,,,,,,,,,,,,,,,,,,,,,,,,,,,,,,,,,,,,,,,,,,,,,,,,,,,,,,,,,,,,,,,,,,,,,,,,,,,,,,,,,,,,
,,,,,,600726c489ddb31a15162ab0,62c5397fcc76923a56d01cde,2022-07-06_09h30.20.658,Colour_Asymmetry_Pilot,2022.1.3,Win32,59.58410296,62c50e9c1127f2cd403a315f,0,78,78,45,1,threefour,,,,,,,,,,,,,,,,,,,,,,,,,,,,,,,,,,,,,,,,,,,,,,,,,,,,,,,,,,,,,,,,,,,,,,,,,,,,,,,,,,,,,,,,,,,,,,,,,,,,,,,,,,,,,,,,,,,,,,,,,,,,,,,,,,,,,,,,,,,,,,,,,,,,,,,,,,,,,,
,,,,,,600726c489ddb31a15162ab0,62c5397fcc76923a56d01cde,2022-07-06_09h30.20.658,Colour_Asymmetry_Pilot,2022.1.3,Win32,59.58410296,62c50e9c1127f2cd403a315f,0,79,79,96,1,onetwo,,,,,,,,,,,,,,,,,,,,,,,,,,,,,,,,,,,,,,,,,,,,,,,,,,,,,,,,,,,,,,,,,,,,,,,,,,,,,,,,,,,,,,,,,,,,,,,,,,,,,,,,,,,,,,,,,,,,,,,,,,,,,,,,,,,,,,,,,,,,,,,,,,,,,,,,,,,,,,
,,,,,,600726c489ddb31a15162ab0,62c5397fcc76923a56d01cde,2022-07-06_09h30.20.658,Colour_Asymmetry_Pilot,2022.1.3,Win32,59.58410296,62c50e9c1127f2cd403a315f,0,80,80,27,1,twofour,,,,,,,,,,,,,,,,,,,,,,,,,,,,,,,,,,,,,,,,,,,,,,,,,,,,,,,,,,,,,,,,,,,,,,,,,,,,,,,,,,,,,,,,,,,,,,,,,,,,,,,,,,,,,,,,,,,,,,,,,,,,,,,,,,,,,,,,,,,,,,,,,,,,,,,,,,,,,,
,,,,,,600726c489ddb31a15162ab0,62c5397fcc76923a56d01cde,2022-07-06_09h30.20.658,Colour_Asymmetry_Pilot,2022.1.3,Win32,59.58410296,62c50e9c1127f2cd403a315f,0,81,81,60,1,threeone,,,,,,,,,,,,,,,,,,,,,,,,,,,,,,,,,,,,,,,,,,,,,,,,,,,,,,,,,,,,,,,,,,,,,,,,,,,,,,,,,,,,,,,,,,,,,,,,,,,,,,,,,,,,,,,,,,,,,,,,,,,,,,,,,,,,,,,,,,,,,,,,,,,,,,,,,,,,,,
,,,,,,600726c489ddb31a15162ab0,62c5397fcc76923a56d01cde,2022-07-06_09h30.20.658,Colour_Asymmetry_Pilot,2022.1.3,Win32,59.58410296,62c50e9c1127f2cd403a315f,0,82,82,114,1,twoone,,,,,,,,,,,,,,,,,,,,,,,,,,,,,,,,,,,,,,,,,,,,,,,,,,,,,,,,,,,,,,,,,,,,,,,,,,,,,,,,,,,,,,,,,,,,,,,,,,,,,,,,,,,,,,,,,,,,,,,,,,,,,,,,,,,,,,,,,,,,,,,,,,,,,,,,,,,,,,
,,,,,,600726c489ddb31a15162ab0,62c5397fcc76923a56d01cde,2022-07-06_09h30.20.658,Colour_Asymmetry_Pilot,2022.1.3,Win32,59.58410296,62c50e9c1127f2cd403a315f,0,83,83,72,1,onetwo,,,,,,,,,,,,,,,,,,,,,,,,,,,,,,,,,,,,,,,,,,,,,,,,,,,,,,,,,,,,,,,,,,,,,,,,,,,,,,,,,,,,,,,,,,,,,,,,,,,,,,,,,,,,,,,,,,,,,,,,,,,,,,,,,,,,,,,,,,,,,,,,,,,,,,,,,,,,,,
,,,,,,600726c489ddb31a15162ab0,62c5397fcc76923a56d01cde,2022-07-06_09h30.20.658,Colour_Asymmetry_Pilot,2022.1.3,Win32,59.58410296,62c50e9c1127f2cd403a315f,0,84,84,16,1,onetwo,,,,,,,,,,,,,,,,,,,,,,,,,,,,,,,,,,,,,,,,,,,,,,,,,,,,,,,,,,,,,,,,,,,,,,,,,,,,,,,,,,,,,,,,,,,,,,,,,,,,,,,,,,,,,,,,,,,,,,,,,,,,,,,,,,,,,,,,,,,,,,,,,,,,,,,,,,,,,,
,,,,,,600726c489ddb31a15162ab0,62c5397fcc76923a56d01cde,2022-07-06_09h30.20.658,Colour_Asymmetry_Pilot,2022.1.3,Win32,59.58410296,62c50e9c1127f2cd403a315f,0,85,85,29,1,threefour,,,,,,,,,,,,,,,,,,,,,,,,,,,,,,,,,,,,,,,,,,,,,,,,,,,,,,,,,,,,,,,,,,,,,,,,,,,,,,,,,,,,,,,,,,,,,,,,,,,,,,,,,,,,,,,,,,,,,,,,,,,,,,,,,,,,,,,,,,,,,,,,,,,,,,,,,,,,,,
,,,,,,600726c489ddb31a15162ab0,62c5397fcc76923a56d01cde,2022-07-06_09h30.20.658,Colour_Asymmetry_Pilot,2022.1.3,Win32,59.58410296,62c50e9c1127f2cd403a315f,0,86,86,55,1,fourthree,,,,,,,,,,,,,,,,,,,,,,,,,,,,,,,,,,,,,,,,,,,,,,,,,,,,,,,,,,,,,,,,,,,,,,,,,,,,,,,,,,,,,,,,,,,,,,,,,,,,,,,,,,,,,,,,,,,,,,,,,,,,,,,,,,,,,,,,,,,,,,,,,,,,,,,,,,,,,,
,,,,,,600726c489ddb31a15162ab0,62c5397fcc76923a56d01cde,2022-07-06_09h30.20.658,Colour_Asymmetry_Pilot,2022.1.3,Win32,59.58410296,62c50e9c1127f2cd403a315f,0,87,87,71,1,fourthree,,,,,,,,,,,,,,,,,,,,,,,,,,,,,,,,,,,,,,,,,,,,,,,,,,,,,,,,,,,,,,,,,,,,,,,,,,,,,,,,,,,,,,,,,,,,,,,,,,,,,,,,,,,,,,,,,,,,,,,,,,,,,,,,,,,,,,,,,,,,,,,,,,,,,,,,,,,,,,
,,,,,,600726c489ddb31a15162ab0,62c5397fcc76923a56d01cde,2022-07-06_09h30.20.658,Colour_Asymmetry_Pilot,2022.1.3,Win32,59.58410296,62c50e9c1127f2cd403a315f,0,88,88,155,1,twofour,,,,,,,,,,,,,,,,,,,,,,,,,,,,,,,,,,,,,,,,,,,,,,,,,,,,,,,,,,,,,,,,,,,,,,,,,,,,,,,,,,,,,,,,,,,,,,,,,,,,,,,,,,,,,,,,,,,,,,,,,,,,,,,,,,,,,,,,,,,,,,,,,,,,,,,,,,,,,,
,,,,,,600726c489ddb31a15162ab0,62c5397fcc76923a56d01cde,2022-07-06_09h30.20.658,Colour_Asymmetry_Pilot,2022.1.3,Win32,59.58410296,62c50e9c1127f2cd403a315f,0,89,89,68,1,threeone,,,,,,,,,,,,,,,,,,,,,,,,,,,,,,,,,,,,,,,,,,,,,,,,,,,,,,,,,,,,,,,,,,,,,,,,,,,,,,,,,,,,,,,,,,,,,,,,,,,,,,,,,,,,,,,,,,,,,,,,,,,,,,,,,,,,,,,,,,,,,,,,,,,,,,,,,,,,,,
,,,,,,600726c489ddb31a15162ab0,62c5397fcc76923a56d01cde,2022-07-06_09h30.20.658,Colour_Asymmetry_Pilot,2022.1.3,Win32,59.58410296,62c50e9c1127f2cd403a315f,0,90,90,151,1,fourthree,,,,,,,,,,,,,,,,,,,,,,,,,,,,,,,,,,,,,,,,,,,,,,,,,,,,,,,,,,,,,,,,,,,,,,,,,,,,,,,,,,,,,,,,,,,,,,,,,,,,,,,,,,,,,,,,,,,,,,,,,,,,,,,,,,,,,,,,,,,,,,,,,,,,,,,,,,,,,,
,,,,,,600726c489ddb31a15162ab0,62c5397fcc76923a56d01cde,2022-07-06_09h30.20.658,Colour_Asymmetry_Pilot,2022.1.3,Win32,59.58410296,62c50e9c1127f2cd403a315f,0,91,91,24,1,onetwo,,,,,,,,,,,,,,,,,,,,,,,,,,,,,,,,,,,,,,,,,,,,,,,,,,,,,,,,,,,,,,,,,,,,,,,,,,,,,,,,,,,,,,,,,,,,,,,,,,,,,,,,,,,,,,,,,,,,,,,,,,,,,,,,,,,,,,,,,,,,,,,,,,,,,,,,,,,,,,
,,,,,,600726c489ddb31a15162ab0,62c5397fcc76923a56d01cde,2022-07-06_09h30.20.658,Colour_Asymmetry_Pilot,2022.1.3,Win32,59.58410296,62c50e9c1127f2cd403a315f,0,92,92,4,1,threeone,,,,,,,,,,,,,,,,,,,,,,,,,,,,,,,,,,,,,,,,,,,,,,,,,,,,,,,,,,,,,,,,,,,,,,,,,,,,,,,,,,,,,,,,,,,,,,,,,,,,,,,,,,,,,,,,,,,,,,,,,,,,,,,,,,,,,,,,,,,,,,,,,,,,,,,,,,,,,,
,,,,,,600726c489ddb31a15162ab0,62c5397fcc76923a56d01cde,2022-07-06_09h30.20.658,Colour_Asymmetry_Pilot,2022.1.3,Win32,59.58410296,62c50e9c1127f2cd403a315f,0,93,93,148,1,threeone,,,,,,,,,,,,,,,,,,,,,,,,,,,,,,,,,,,,,,,,,,,,,,,,,,,,,,,,,,,,,,,,,,,,,,,,,,,,,,,,,,,,,,,,,,,,,,,,,,,,,,,,,,,,,,,,,,,,,,,,,,,,,,,,,,,,,,,,,,,,,,,,,,,,,,,,,,,,,,
,,,,,,600726c489ddb31a15162ab0,62c5397fcc76923a56d01cde,2022-07-06_09h30.20.658,Colour_Asymmetry_Pilot,2022.1.3,Win32,59.58410296,62c50e9c1127f2cd403a315f,0,94,94,15,1,fourthree,,,,,,,,,,,,,,,,,,,,,,,,,,,,,,,,,,,,,,,,,,,,,,,,,,,,,,,,,,,,,,,,,,,,,,,,,,,,,,,,,,,,,,,,,,,,,,,,,,,,,,,,,,,,,,,,,,,,,,,,,,,,,,,,,,,,,,,,,,,,,,,,,,,,,,,,,,,,,,
,,,,,,600726c489ddb31a15162ab0,62c5397fcc76923a56d01cde,2022-07-06_09h30.20.658,Colour_Asymmetry_Pilot,2022.1.3,Win32,59.58410296,62c50e9c1127f2cd403a315f,0,95,95,12,1,threeone,,,,,,,,,,,,,,,,,,,,,,,,,,,,,,,,,,,,,,,,,,,,,,,,,,,,,,,,,,,,,,,,,,,,,,,,,,,,,,,,,,,,,,,,,,,,,,,,,,,,,,,,,,,,,,,,,,,,,,,,,,,,,,,,,,,,,,,,,,,,,,,,,,,,,,,,,,,,,,
,,,,,,600726c489ddb31a15162ab0,62c5397fcc76923a56d01cde,2022-07-06_09h30.20.658,Colour_Asymmetry_Pilot,2022.1.3,Win32,59.58410296,62c50e9c1127f2cd403a315f,0,96,96,112,1,onetwo,,,,,,,,,,,,,,,,,,,,,,,,,,,,,,,,,,,,,,,,,,,,,,,,,,,,,,,,,,,,,,,,,,,,,,,,,,,,,,,,,,,,,,,,,,,,,,,,,,,,,,,,,,,,,,,,,,,,,,,,,,,,,,,,,,,,,,,,,,,,,,,,,,,,,,,,,,,,,,
,,,,,,600726c489ddb31a15162ab0,62c5397fcc76923a56d01cde,2022-07-06_09h30.20.658,Colour_Asymmetry_Pilot,2022.1.3,Win32,59.58410296,62c50e9c1127f2cd403a315f,0,97,97,100,1,threeone,,,,,,,,,,,,,,,,,,,,,,,,,,,,,,,,,,,,,,,,,,,,,,,,,,,,,,,,,,,,,,,,,,,,,,,,,,,,,,,,,,,,,,,,,,,,,,,,,,,,,,,,,,,,,,,,,,,,,,,,,,,,,,,,,,,,,,,,,,,,,,,,,,,,,,,,,,,,,,
,,,,,,600726c489ddb31a15162ab0,62c5397fcc76923a56d01cde,2022-07-06_09h30.20.658,Colour_Asymmetry_Pilot,2022.1.3,Win32,59.58410296,62c50e9c1127f2cd403a315f,0,98,98,31,1,fourthree,,,,,,,,,,,,,,,,,,,,,,,,,,,,,,,,,,,,,,,,,,,,,,,,,,,,,,,,,,,,,,,,,,,,,,,,,,,,,,,,,,,,,,,,,,,,,,,,,,,,,,,,,,,,,,,,,,,,,,,,,,,,,,,,,,,,,,,,,,,,,,,,,,,,,,,,,,,,,,
,,,,,,600726c489ddb31a15162ab0,62c5397fcc76923a56d01cde,2022-07-06_09h30.20.658,Colour_Asymmetry_Pilot,2022.1.3,Win32,59.58410296,62c50e9c1127f2cd403a315f,0,99,99,8,1,onetwo,,,,,,,,,,,,,,,,,,,,,,,,,,,,,,,,,,,,,,,,,,,,,,,,,,,,,,,,,,,,,,,,,,,,,,,,,,,,,,,,,,,,,,,,,,,,,,,,,,,,,,,,,,,,,,,,,,,,,,,,,,,,,,,,,,,,,,,,,,,,,,,,,,,,,,,,,,,,,,
,,,,,,600726c489ddb31a15162ab0,62c5397fcc76923a56d01cde,2022-07-06_09h30.20.658,Colour_Asymmetry_Pilot,2022.1.3,Win32,59.58410296,62c50e9c1127f2cd403a315f,0,100,100,140,1,threeone,,,,,,,,,,,,,,,,,,,,,,,,,,,,,,,,,,,,,,,,,,,,,,,,,,,,,,,,,,,,,,,,,,,,,,,,,,,,,,,,,,,,,,,,,,,,,,,,,,,,,,,,,,,,,,,,,,,,,,,,,,,,,,,,,,,,,,,,,,,,,,,,,,,,,,,,,,,,,,
,,,,,,600726c489ddb31a15162ab0,62c5397fcc76923a56d01cde,2022-07-06_09h30.20.658,Colour_Asymmetry_Pilot,2022.1.3,Win32,59.58410296,62c50e9c1127f2cd403a315f,0,101,101,102,1,fourtwo,,,,,,,,,,,,,,,,,,,,,,,,,,,,,,,,,,,,,,,,,,,,,,,,,,,,,,,,,,,,,,,,,,,,,,,,,,,,,,,,,,,,,,,,,,,,,,,,,,,,,,,,,,,,,,,,,,,,,,,,,,,,,,,,,,,,,,,,,,,,,,,,,,,,,,,,,,,,,,
,,,,,,600726c489ddb31a15162ab0,62c5397fcc76923a56d01cde,2022-07-06_09h30.20.658,Colour_Asymmetry_Pilot,2022.1.3,Win32,59.58410296,62c50e9c1127f2cd403a315f,0,102,102,147,1,twofour,,,,,,,,,,,,,,,,,,,,,,,,,,,,,,,,,,,,,,,,,,,,,,,,,,,,,,,,,,,,,,,,,,,,,,,,,,,,,,,,,,,,,,,,,,,,,,,,,,,,,,,,,,,,,,,,,,,,,,,,,,,,,,,,,,,,,,,,,,,,,,,,,,,,,,,,,,,,,,
,,,,,,600726c489ddb31a15162ab0,62c5397fcc76923a56d01cde,2022-07-06_09h30.20.658,Colour_Asymmetry_Pilot,2022.1.3,Win32,59.58410296,62c50e9c1127f2cd403a315f,0,103,103,75,1,twofour,,,,,,,,,,,,,,,,,,,,,,,,,,,,,,,,,,,,,,,,,,,,,,,,,,,,,,,,,,,,,,,,,,,,,,,,,,,,,,,,,,,,,,,,,,,,,,,,,,,,,,,,,,,,,,,,,,,,,,,,,,,,,,,,,,,,,,,,,,,,,,,,,,,,,,,,,,,,,,
,,,,,,600726c489ddb31a15162ab0,62c5397fcc76923a56d01cde,2022-07-06_09h30.20.658,Colour_Asymmetry_Pilot,2022.1.3,Win32,59.58410296,62c50e9c1127f2cd403a315f,0,104,104,7,1,fourthree,,,,,,,,,,,,,,,,,,,,,,,,,,,,,,,,,,,,,,,,,,,,,,,,,,,,,,,,,,,,,,,,,,,,,,,,,,,,,,,,,,,,,,,,,,,,,,,,,,,,,,,,,,,,,,,,,,,,,,,,,,,,,,,,,,,,,,,,,,,,,,,,,,,,,,,,,,,,,,
,,,,,,600726c489ddb31a15162ab0,62c5397fcc76923a56d01cde,2022-07-06_09h30.20.658,Colour_Asymmetry_Pilot,2022.1.3,Win32,59.58410296,62c50e9c1127f2cd403a315f,0,105,105,66,1,twoone,,,,,,,,,,,,,,,,,,,,,,,,,,,,,,,,,,,,,,,,,,,,,,,,,,,,,,,,,,,,,,,,,,,,,,,,,,,,,,,,,,,,,,,,,,,,,,,,,,,,,,,,,,,,,,,,,,,,,,,,,,,,,,,,,,,,,,,,,,,,,,,,,,,,,,,,,,,,,,
,,,,,,600726c489ddb31a15162ab0,62c5397fcc76923a56d01cde,2022-07-06_09h30.20.658,Colour_Asymmetry_Pilot,2022.1.3,Win32,59.58410296,62c50e9c1127f2cd403a315f,0,106,106,106,1,twoone,,,,,,,,,,,,,,,,,,,,,,,,,,,,,,,,,,,,,,,,,,,,,,,,,,,,,,,,,,,,,,,,,,,,,,,,,,,,,,,,,,,,,,,,,,,,,,,,,,,,,,,,,,,,,,,,,,,,,,,,,,,,,,,,,,,,,,,,,,,,,,,,,,,,,,,,,,,,,,
,,,,,,600726c489ddb31a15162ab0,62c5397fcc76923a56d01cde,2022-07-06_09h30.20.658,Colour_Asymmetry_Pilot,2022.1.3,Win32,59.58410296,62c50e9c1127f2cd403a315f,0,107,107,41,1,onethree,,,,,,,,,,,,,,,,,,,,,,,,,,,,,,,,,,,,,,,,,,,,,,,,,,,,,,,,,,,,,,,,,,,,,,,,,,,,,,,,,,,,,,,,,,,,,,,,,,,,,,,,,,,,,,,,,,,,,,,,,,,,,,,,,,,,,,,,,,,,,,,,,,,,,,,,,,,,,,
,,,,,,600726c489ddb31a15162ab0,62c5397fcc76923a56d01cde,2022-07-06_09h30.20.658,Colour_Asymmetry_Pilot,2022.1.3,Win32,59.58410296,62c50e9c1127f2cd403a315f,0,108,108,103,1,fourthree,,,,,,,,,,,,,,,,,,,,,,,,,,,,,,,,,,,,,,,,,,,,,,,,,,,,,,,,,,,,,,,,,,,,,,,,,,,,,,,,,,,,,,,,,,,,,,,,,,,,,,,,,,,,,,,,,,,,,,,,,,,,,,,,,,,,,,,,,,,,,,,,,,,,,,,,,,,,,,
,,,,,,600726c489ddb31a15162ab0,62c5397fcc76923a56d01cde,2022-07-06_09h30.20.658,Colour_Asymmetry_Pilot,2022.1.3,Win32,59.58410296,62c50e9c1127f2cd403a315f,0,109,109,139,1,twofour,,,,,,,,,,,,,,,,,,,,,,,,,,,,,,,,,,,,,,,,,,,,,,,,,,,,,,,,,,,,,,,,,,,,,,,,,,,,,,,,,,,,,,,,,,,,,,,,,,,,,,,,,,,,,,,,,,,,,,,,,,,,,,,,,,,,,,,,,,,,,,,,,,,,,,,,,,,,,,
,,,,,,600726c489ddb31a15162ab0,62c5397fcc76923a56d01cde,2022-07-06_09h30.20.658,Colour_Asymmetry_Pilot,2022.1.3,Win32,59.58410296,62c50e9c1127f2cd403a315f,0,110,110,37,1,threefour,,,,,,,,,,,,,,,,,,,,,,,,,,,,,,,,,,,,,,,,,,,,,,,,,,,,,,,,,,,,,,,,,,,,,,,,,,,,,,,,,,,,,,,,,,,,,,,,,,,,,,,,,,,,,,,,,,,,,,,,,,,,,,,,,,,,,,,,,,,,,,,,,,,,,,,,,,,,,,
,,,,,,600726c489ddb31a15162ab0,62c5397fcc76923a56d01cde,2022-07-06_09h30.20.658,Colour_Asymmetry_Pilot,2022.1.3,Win32,59.58410296,62c50e9c1127f2cd403a315f,0,111,111,14,1,fourtwo,,,,,,,,,,,,,,,,,,,,,,,,,,,,,,,,,,,,,,,,,,,,,,,,,,,,,,,,,,,,,,,,,,,,,,,,,,,,,,,,,,,,,,,,,,,,,,,,,,,,,,,,,,,,,,,,,,,,,,,,,,,,,,,,,,,,,,,,,,,,,,,,,,,,,,,,,,,,,,
,,,,,,600726c489ddb31a15162ab0,62c5397fcc76923a56d01cde,2022-07-06_09h30.20.658,Colour_Asymmetry_Pilot,2022.1.3,Win32,59.58410296,62c50e9c1127f2cd403a315f,0,112,112,149,1,threefour,,,,,,,,,,,,,,,,,,,,,,,,,,,,,,,,,,,,,,,,,,,,,,,,,,,,,,,,,,,,,,,,,,,,,,,,,,,,,,,,,,,,,,,,,,,,,,,,,,,,,,,,,,,,,,,,,,,,,,,,,,,,,,,,,,,,,,,,,,,,,,,,,,,,,,,,,,,,,,
,,,,,,600726c489ddb31a15162ab0,62c5397fcc76923a56d01cde,2022-07-06_09h30.20.658,Colour_Asymmetry_Pilot,2022.1.3,Win32,59.58410296,62c50e9c1127f2cd403a315f,0,113,113,58,1,twoone,,,,,,,,,,,,,,,,,,,,,,,,,,,,,,,,,,,,,,,,,,,,,,,,,,,,,,,,,,,,,,,,,,,,,,,,,,,,,,,,,,,,,,,,,,,,,,,,,,,,,,,,,,,,,,,,,,,,,,,,,,,,,,,,,,,,,,,,,,,,,,,,,,,,,,,,,,,,,,
,,,,,,600726c489ddb31a15162ab0,62c5397fcc76923a56d01cde,2022-07-06_09h30.20.658,Colour_Asymmetry_Pilot,2022.1.3,Win32,59.58410296,62c50e9c1127f2cd403a315f,0,114,114,34,1,twoone,,,,,,,,,,,,,,,,,,,,,,,,,,,,,,,,,,,,,,,,,,,,,,,,,,,,,,,,,,,,,,,,,,,,,,,,,,,,,,,,,,,,,,,,,,,,,,,,,,,,,,,,,,,,,,,,,,,,,,,,,,,,,,,,,,,,,,,,,,,,,,,,,,,,,,,,,,,,,,
,,,,,,600726c489ddb31a15162ab0,62c5397fcc76923a56d01cde,2022-07-06_09h30.20.658,Colour_Asymmetry_Pilot,2022.1.3,Win32,59.58410296,62c50e9c1127f2cd403a315f,0,115,115,62,1,fourtwo,,,,,,,,,,,,,,,,,,,,,,,,,,,,,,,,,,,,,,,,,,,,,,,,,,,,,,,,,,,,,,,,,,,,,,,,,,,,,,,,,,,,,,,,,,,,,,,,,,,,,,,,,,,,,,,,,,,,,,,,,,,,,,,,,,,,,,,,,,,,,,,,,,,,,,,,,,,,,,
,,,,,,600726c489ddb31a15162ab0,62c5397fcc76923a56d01cde,2022-07-06_09h30.20.658,Colour_Asymmetry_Pilot,2022.1.3,Win32,59.58410296,62c50e9c1127f2cd403a315f,0,116,116,154,1,twoone,,,,,,,,,,,,,,,,,,,,,,,,,,,,,,,,,,,,,,,,,,,,,,,,,,,,,,,,,,,,,,,,,,,,,,,,,,,,,,,,,,,,,,,,,,,,,,,,,,,,,,,,,,,,,,,,,,,,,,,,,,,,,,,,,,,,,,,,,,,,,,,,,,,,,,,,,,,,,,
,,,,,,600726c489ddb31a15162ab0,62c5397fcc76923a56d01cde,2022-07-06_09h30.20.658,Colour_Asymmetry_Pilot,2022.1.3,Win32,59.58410296,62c50e9c1127f2cd403a315f,0,117,117,9,1,onethree,,,,,,,,,,,,,,,,,,,,,,,,,,,,,,,,,,,,,,,,,,,,,,,,,,,,,,,,,,,,,,,,,,,,,,,,,,,,,,,,,,,,,,,,,,,,,,,,,,,,,,,,,,,,,,,,,,,,,,,,,,,,,,,,,,,,,,,,,,,,,,,,,,,,,,,,,,,,,,
,,,,,,600726c489ddb31a15162ab0,62c5397fcc76923a56d01cde,2022-07-06_09h30.20.658,Colour_Asymmetry_Pilot,2022.1.3,Win32,59.58410296,62c50e9c1127f2cd403a315f,0,118,118,133,1,threefour,,,,,,,,,,,,,,,,,,,,,,,,,,,,,,,,,,,,,,,,,,,,,,,,,,,,,,,,,,,,,,,,,,,,,,,,,,,,,,,,,,,,,,,,,,,,,,,,,,,,,,,,,,,,,,,,,,,,,,,,,,,,,,,,,,,,,,,,,,,,,,,,,,,,,,,,,,,,,,
,,,,,,600726c489ddb31a15162ab0,62c5397fcc76923a56d01cde,2022-07-06_09h30.20.658,Colour_Asymmetry_Pilot,2022.1.3,Win32,59.58410296,62c50e9c1127f2cd403a315f,0,119,119,18,1,twoone,,,,,,,,,,,,,,,,,,,,,,,,,,,,,,,,,,,,,,,,,,,,,,,,,,,,,,,,,,,,,,,,,,,,,,,,,,,,,,,,,,,,,,,,,,,,,,,,,,,,,,,,,,,,,,,,,,,,,,,,,,,,,,,,,,,,,,,,,,,,,,,,,,,,,,,,,,,,,,
,,,,,,600726c489ddb31a15162ab0,62c5397fcc76923a56d01cde,2022-07-06_09h30.20.658,Colour_Asymmetry_Pilot,2022.1.3,Win32,59.58410296,62c50e9c1127f2cd403a315f,0,120,120,70,1,fourtwo,,,,,,,,,,,,,,,,,,,,,,,,,,,,,,,,,,,,,,,,,,,,,,,,,,,,,,,,,,,,,,,,,,,,,,,,,,,,,,,,,,,,,,,,,,,,,,,,,,,,,,,,,,,,,,,,,,,,,,,,,,,,,,,,,,,,,,,,,,,,,,,,,,,,,,,,,,,,,,
,,,,,,600726c489ddb31a15162ab0,62c5397fcc76923a56d01cde,2022-07-06_09h30.20.658,Colour_Asymmetry_Pilot,2022.1.3,Win32,59.58410296,62c50e9c1127f2cd403a315f,0,121,121,120,1,onetwo,,,,,,,,,,,,,,,,,,,,,,,,,,,,,,,,,,,,,,,,,,,,,,,,,,,,,,,,,,,,,,,,,,,,,,,,,,,,,,,,,,,,,,,,,,,,,,,,,,,,,,,,,,,,,,,,,,,,,,,,,,,,,,,,,,,,,,,,,,,,,,,,,,,,,,,,,,,,,,
,,,,,,600726c489ddb31a15162ab0,62c5397fcc76923a56d01cde,2022-07-06_09h30.20.658,Colour_Asymmetry_Pilot,2022.1.3,Win32,59.58410296,62c50e9c1127f2cd403a315f,0,122,122,134,1,fourtwo,,,,,,,,,,,,,,,,,,,,,,,,,,,,,,,,,,,,,,,,,,,,,,,,,,,,,,,,,,,,,,,,,,,,,,,,,,,,,,,,,,,,,,,,,,,,,,,,,,,,,,,,,,,,,,,,,,,,,,,,,,,,,,,,,,,,,,,,,,,,,,,,,,,,,,,,,,,,,,
,,,,,,600726c489ddb31a15162ab0,62c5397fcc76923a56d01cde,2022-07-06_09h30.20.658,Colour_Asymmetry_Pilot,2022.1.3,Win32,59.58410296,62c50e9c1127f2cd403a315f,0,123,123,36,1,threeone,,,,,,,,,,,,,,,,,,,,,,,,,,,,,,,,,,,,,,,,,,,,,,,,,,,,,,,,,,,,,,,,,,,,,,,,,,,,,,,,,,,,,,,,,,,,,,,,,,,,,,,,,,,,,,,,,,,,,,,,,,,,,,,,,,,,,,,,,,,,,,,,,,,,,,,,,,,,,,
,,,,,,600726c489ddb31a15162ab0,62c5397fcc76923a56d01cde,2022-07-06_09h30.20.658,Colour_Asymmetry_Pilot,2022.1.3,Win32,59.58410296,62c50e9c1127f2cd403a315f,0,124,124,115,1,twofour,,,,,,,,,,,,,,,,,,,,,,,,,,,,,,,,,,,,,,,,,,,,,,,,,,,,,,,,,,,,,,,,,,,,,,,,,,,,,,,,,,,,,,,,,,,,,,,,,,,,,,,,,,,,,,,,,,,,,,,,,,,,,,,,,,,,,,,,,,,,,,,,,,,,,,,,,,,,,,
,,,,,,600726c489ddb31a15162ab0,62c5397fcc76923a56d01cde,2022-07-06_09h30.20.658,Colour_Asymmetry_Pilot,2022.1.3,Win32,59.58410296,62c50e9c1127f2cd403a315f,0,125,125,13,1,threefour,,,,,,,,,,,,,,,,,,,,,,,,,,,,,,,,,,,,,,,,,,,,,,,,,,,,,,,,,,,,,,,,,,,,,,,,,,,,,,,,,,,,,,,,,,,,,,,,,,,,,,,,,,,,,,,,,,,,,,,,,,,,,,,,,,,,,,,,,,,,,,,,,,,,,,,,,,,,,,
,,,,,,600726c489ddb31a15162ab0,62c5397fcc76923a56d01cde,2022-07-06_09h30.20.658,Colour_Asymmetry_Pilot,2022.1.3,Win32,59.58410296,62c50e9c1127f2cd403a315f,0,126,126,104,1,onetwo,,,,,,,,,,,,,,,,,,,,,,,,,,,,,,,,,,,,,,,,,,,,,,,,,,,,,,,,,,,,,,,,,,,,,,,,,,,,,,,,,,,,,,,,,,,,,,,,,,,,,,,,,,,,,,,,,,,,,,,,,,,,,,,,,,,,,,,,,,,,,,,,,,,,,,,,,,,,,,
,,,,,,600726c489ddb31a15162ab0,62c5397fcc76923a56d01cde,2022-07-06_09h30.20.658,Colour_Asymmetry_Pilot,2022.1.3,Win32,59.58410296,62c50e9c1127f2cd403a315f,0,127,127,40,1,onetwo,,,,,,,,,,,,,,,,,,,,,,,,,,,,,,,,,,,,,,,,,,,,,,,,,,,,,,,,,,,,,,,,,,,,,,,,,,,,,,,,,,,,,,,,,,,,,,,,,,,,,,,,,,,,,,,,,,,,,,,,,,,,,,,,,,,,,,,,,,,,,,,,,,,,,,,,,,,,,,
,,,,,,600726c489ddb31a15162ab0,62c5397fcc76923a56d01cde,2022-07-06_09h30.20.658,Colour_Asymmetry_Pilot,2022.1.3,Win32,59.58410296,62c50e9c1127f2cd403a315f,0,128,128,81,1,onethree,,,,,,,,,,,,,,,,,,,,,,,,,,,,,,,,,,,,,,,,,,,,,,,,,,,,,,,,,,,,,,,,,,,,,,,,,,,,,,,,,,,,,,,,,,,,,,,,,,,,,,,,,,,,,,,,,,,,,,,,,,,,,,,,,,,,,,,,,,,,,,,,,,,,,,,,,,,,,,
,,,,,,600726c489ddb31a15162ab0,62c5397fcc76923a56d01cde,2022-07-06_09h30.20.658,Colour_Asymmetry_Pilot,2022.1.3,Win32,59.58410296,62c50e9c1127f2cd403a315f,0,129,129,49,1,onethree,,,,,,,,,,,,,,,,,,,,,,,,,,,,,,,,,,,,,,,,,,,,,,,,,,,,,,,,,,,,,,,,,,,,,,,,,,,,,,,,,,,,,,,,,,,,,,,,,,,,,,,,,,,,,,,,,,,,,,,,,,,,,,,,,,,,,,,,,,,,,,,,,,,,,,,,,,,,,,
,,,,,,600726c489ddb31a15162ab0,62c5397fcc76923a56d01cde,2022-07-06_09h30.20.658,Colour_Asymmetry_Pilot,2022.1.3,Win32,59.58410296,62c50e9c1127f2cd403a315f,0,130,130,160,1,onetwo,,,,,,,,,,,,,,,,,,,,,,,,,,,,,,,,,,,,,,,,,,,,,,,,,,,,,,,,,,,,,,,,,,,,,,,,,,,,,,,,,,,,,,,,,,,,,,,,,,,,,,,,,,,,,,,,,,,,,,,,,,,,,,,,,,,,,,,,,,,,,,,,,,,,,,,,,,,,,,
,,,,,,600726c489ddb31a15162ab0,62c5397fcc76923a56d01cde,2022-07-06_09h30.20.658,Colour_Asymmetry_Pilot,2022.1.3,Win32,59.58410296,62c50e9c1127f2cd403a315f,0,131,131,89,1,onethree,,,,,,,,,,,,,,,,,,,,,,,,,,,,,,,,,,,,,,,,,,,,,,,,,,,,,,,,,,,,,,,,,,,,,,,,,,,,,,,,,,,,,,,,,,,,,,,,,,,,,,,,,,,,,,,,,,,,,,,,,,,,,,,,,,,,,,,,,,,,,,,,,,,,,,,,,,,,,,
,,,,,,600726c489ddb31a15162ab0,62c5397fcc76923a56d01cde,2022-07-06_09h30.20.658,Colour_Asymmetry_Pilot,2022.1.3,Win32,59.58410296,62c50e9c1127f2cd403a315f,0,132,132,97,1,onethree,,,,,,,,,,,,,,,,,,,,,,,,,,,,,,,,,,,,,,,,,,,,,,,,,,,,,,,,,,,,,,,,,,,,,,,,,,,,,,,,,,,,,,,,,,,,,,,,,,,,,,,,,,,,,,,,,,,,,,,,,,,,,,,,,,,,,,,,,,,,,,,,,,,,,,,,,,,,,,
,,,,,,600726c489ddb31a15162ab0,62c5397fcc76923a56d01cde,2022-07-06_09h30.20.658,Colour_Asymmetry_Pilot,2022.1.3,Win32,59.58410296,62c50e9c1127f2cd403a315f,0,133,133,56,1,onetwo,,,,,,,,,,,,,,,,,,,,,,,,,,,,,,,,,,,,,,,,,,,,,,,,,,,,,,,,,,,,,,,,,,,,,,,,,,,,,,,,,,,,,,,,,,,,,,,,,,,,,,,,,,,,,,,,,,,,,,,,,,,,,,,,,,,,,,,,,,,,,,,,,,,,,,,,,,,,,,
,,,,,,600726c489ddb31a15162ab0,62c5397fcc76923a56d01cde,2022-07-06_09h30.20.658,Colour_Asymmetry_Pilot,2022.1.3,Win32,59.58410296,62c50e9c1127f2cd403a315f,0,134,134,3,1,twofour,,,,,,,,,,,,,,,,,,,,,,,,,,,,,,,,,,,,,,,,,,,,,,,,,,,,,,,,,,,,,,,,,,,,,,,,,,,,,,,,,,,,,,,,,,,,,,,,,,,,,,,,,,,,,,,,,,,,,,,,,,,,,,,,,,,,,,,,,,,,,,,,,,,,,,,,,,,,,,
,,,,,,600726c489ddb31a15162ab0,62c5397fcc76923a56d01cde,2022-07-06_09h30.20.658,Colour_Asymmetry_Pilot,2022.1.3,Win32,59.58410296,62c50e9c1127f2cd403a315f,0,135,135,69,1,threefour,,,,,,,,,,,,,,,,,,,,,,,,,,,,,,,,,,,,,,,,,,,,,,,,,,,,,,,,,,,,,,,,,,,,,,,,,,,,,,,,,,,,,,,,,,,,,,,,,,,,,,,,,,,,,,,,,,,,,,,,,,,,,,,,,,,,,,,,,,,,,,,,,,,,,,,,,,,,,,
,,,,,,600726c489ddb31a15162ab0,62c5397fcc76923a56d01cde,2022-07-06_09h30.20.658,Colour_Asymmetry_Pilot,2022.1.3,Win32,59.58410296,62c50e9c1127f2cd403a315f,0,136,136,141,1,threefour,,,,,,,,,,,,,,,,,,,,,,,,,,,,,,,,,,,,,,,,,,,,,,,,,,,,,,,,,,,,,,,,,,,,,,,,,,,,,,,,,,,,,,,,,,,,,,,,,,,,,,,,,,,,,,,,,,,,,,,,,,,,,,,,,,,,,,,,,,,,,,,,,,,,,,,,,,,,,,
,,,,,,600726c489ddb31a15162ab0,62c5397fcc76923a56d01cde,2022-07-06_09h30.20.658,Colour_Asymmetry_Pilot,2022.1.3,Win32,59.58410296,62c50e9c1127f2cd403a315f,0,137,137,61,1,threefour,,,,,,,,,,,,,,,,,,,,,,,,,,,,,,,,,,,,,,,,,,,,,,,,,,,,,,,,,,,,,,,,,,,,,,,,,,,,,,,,,,,,,,,,,,,,,,,,,,,,,,,,,,,,,,,,,,,,,,,,,,,,,,,,,,,,,,,,,,,,,,,,,,,,,,,,,,,,,,
,,,,,,600726c489ddb31a15162ab0,62c5397fcc76923a56d01cde,2022-07-06_09h30.20.658,Colour_Asymmetry_Pilot,2022.1.3,Win32,59.58410296,62c50e9c1127f2cd403a315f,0,138,138,33,1,onethree,,,,,,,,,,,,,,,,,,,,,,,,,,,,,,,,,,,,,,,,,,,,,,,,,,,,,,,,,,,,,,,,,,,,,,,,,,,,,,,,,,,,,,,,,,,,,,,,,,,,,,,,,,,,,,,,,,,,,,,,,,,,,,,,,,,,,,,,,,,,,,,,,,,,,,,,,,,,,,
,,,,,,600726c489ddb31a15162ab0,62c5397fcc76923a56d01cde,2022-07-06_09h30.20.658,Colour_Asymmetry_Pilot,2022.1.3,Win32,59.58410296,62c50e9c1127f2cd403a315f,0,139,139,25,1,onethree,,,,,,,,,,,,,,,,,,,,,,,,,,,,,,,,,,,,,,,,,,,,,,,,,,,,,,,,,,,,,,,,,,,,,,,,,,,,,,,,,,,,,,,,,,,,,,,,,,,,,,,,,,,,,,,,,,,,,,,,,,,,,,,,,,,,,,,,,,,,,,,,,,,,,,,,,,,,,,
,,,,,,600726c489ddb31a15162ab0,62c5397fcc76923a56d01cde,2022-07-06_09h30.20.658,Colour_Asymmetry_Pilot,2022.1.3,Win32,59.58410296,62c50e9c1127f2cd403a315f,0,140,140,63,1,fourthree,,,,,,,,,,,,,,,,,,,,,,,,,,,,,,,,,,,,,,,,,,,,,,,,,,,,,,,,,,,,,,,,,,,,,,,,,,,,,,,,,,,,,,,,,,,,,,,,,,,,,,,,,,,,,,,,,,,,,,,,,,,,,,,,,,,,,,,,,,,,,,,,,,,,,,,,,,,,,,
,,,,,,600726c489ddb31a15162ab0,62c5397fcc76923a56d01cde,2022-07-06_09h30.20.658,Colour_Asymmetry_Pilot,2022.1.3,Win32,59.58410296,62c50e9c1127f2cd403a315f,0,141,141,48,1,onetwo,,,,,,,,,,,,,,,,,,,,,,,,,,,,,,,,,,,,,,,,,,,,,,,,,,,,,,,,,,,,,,,,,,,,,,,,,,,,,,,,,,,,,,,,,,,,,,,,,,,,,,,,,,,,,,,,,,,,,,,,,,,,,,,,,,,,,,,,,,,,,,,,,,,,,,,,,,,,,,
,,,,,,600726c489ddb31a15162ab0,62c5397fcc76923a56d01cde,2022-07-06_09h30.20.658,Colour_Asymmetry_Pilot,2022.1.3,Win32,59.58410296,62c50e9c1127f2cd403a315f,0,142,142,64,1,onetwo,,,,,,,,,,,,,,,,,,,,,,,,,,,,,,,,,,,,,,,,,,,,,,,,,,,,,,,,,,,,,,,,,,,,,,,,,,,,,,,,,,,,,,,,,,,,,,,,,,,,,,,,,,,,,,,,,,,,,,,,,,,,,,,,,,,,,,,,,,,,,,,,,,,,,,,,,,,,,,
,,,,,,600726c489ddb31a15162ab0,62c5397fcc76923a56d01cde,2022-07-06_09h30.20.658,Colour_Asymmetry_Pilot,2022.1.3,Win32,59.58410296,62c50e9c1127f2cd403a315f,0,143,143,38,1,fourtwo,,,,,,,,,,,,,,,,,,,,,,,,,,,,,,,,,,,,,,,,,,,,,,,,,,,,,,,,,,,,,,,,,,,,,,,,,,,,,,,,,,,,,,,,,,,,,,,,,,,,,,,,,,,,,,,,,,,,,,,,,,,,,,,,,,,,,,,,,,,,,,,,,,,,,,,,,,,,,,
,,,,,,600726c489ddb31a15162ab0,62c5397fcc76923a56d01cde,2022-07-06_09h30.20.658,Colour_Asymmetry_Pilot,2022.1.3,Win32,59.58410296,62c50e9c1127f2cd403a315f,0,144,144,32,1,onetwo,,,,,,,,,,,,,,,,,,,,,,,,,,,,,,,,,,,,,,,,,,,,,,,,,,,,,,,,,,,,,,,,,,,,,,,,,,,,,,,,,,,,,,,,,,,,,,,,,,,,,,,,,,,,,,,,,,,,,,,,,,,,,,,,,,,,,,,,,,,,,,,,,,,,,,,,,,,,,,
,,,,,,600726c489ddb31a15162ab0,62c5397fcc76923a56d01cde,2022-07-06_09h30.20.658,Colour_Asymmetry_Pilot,2022.1.3,Win32,59.58410296,62c50e9c1127f2cd403a315f,0,145,145,119,1,fourthree,,,,,,,,,,,,,,,,,,,,,,,,,,,,,,,,,,,,,,,,,,,,,,,,,,,,,,,,,,,,,,,,,,,,,,,,,,,,,,,,,,,,,,,,,,,,,,,,,,,,,,,,,,,,,,,,,,,,,,,,,,,,,,,,,,,,,,,,,,,,,,,,,,,,,,,,,,,,,,
,,,,,,600726c489ddb31a15162ab0,62c5397fcc76923a56d01cde,2022-07-06_09h30.20.658,Colour_Asymmetry_Pilot,2022.1.3,Win32,59.58410296,62c50e9c1127f2cd403a315f,0,146,146,17,1,onethree,,,,,,,,,,,,,,,,,,,,,,,,,,,,,,,,,,,,,,,,,,,,,,,,,,,,,,,,,,,,,,,,,,,,,,,,,,,,,,,,,,,,,,,,,,,,,,,,,,,,,,,,,,,,,,,,,,,,,,,,,,,,,,,,,,,,,,,,,,,,,,,,,,,,,,,,,,,,,,
,,,,,,600726c489ddb31a15162ab0,62c5397fcc76923a56d01cde,2022-07-06_09h30.20.658,Colour_Asymmetry_Pilot,2022.1.3,Win32,59.58410296,62c50e9c1127f2cd403a315f,0,147,147,46,1,fourtwo,,,,,,,,,,,,,,,,,,,,,,,,,,,,,,,,,,,,,,,,,,,,,,,,,,,,,,,,,,,,,,,,,,,,,,,,,,,,,,,,,,,,,,,,,,,,,,,,,,,,,,,,,,,,,,,,,,,,,,,,,,,,,,,,,,,,,,,,,,,,,,,,,,,,,,,,,,,,,,
,,,,,,600726c489ddb31a15162ab0,62c5397fcc76923a56d01cde,2022-07-06_09h30.20.658,Colour_Asymmetry_Pilot,2022.1.3,Win32,59.58410296,62c50e9c1127f2cd403a315f,0,148,148,107,1,twofour,,,,,,,,,,,,,,,,,,,,,,,,,,,,,,,,,,,,,,,,,,,,,,,,,,,,,,,,,,,,,,,,,,,,,,,,,,,,,,,,,,,,,,,,,,,,,,,,,,,,,,,,,,,,,,,,,,,,,,,,,,,,,,,,,,,,,,,,,,,,,,,,,,,,,,,,,,,,,,
,,,,,,600726c489ddb31a15162ab0,62c5397fcc76923a56d01cde,2022-07-06_09h30.20.658,Colour_Asymmetry_Pilot,2022.1.3,Win32,59.58410296,62c50e9c1127f2cd403a315f,0,149,149,90,1,twoone,,,,,,,,,,,,,,,,,,,,,,,,,,,,,,,,,,,,,,,,,,,,,,,,,,,,,,,,,,,,,,,,,,,,,,,,,,,,,,,,,,,,,,,,,,,,,,,,,,,,,,,,,,,,,,,,,,,,,,,,,,,,,,,,,,,,,,,,,,,,,,,,,,,,,,,,,,,,,,
,,,,,,600726c489ddb31a15162ab0,62c5397fcc76923a56d01cde,2022-07-06_09h30.20.658,Colour_Asymmetry_Pilot,2022.1.3,Win32,59.58410296,62c50e9c1127f2cd403a315f,0,150,150,144,1,onetwo,,,,,,,,,,,,,,,,,,,,,,,,,,,,,,,,,,,,,,,,,,,,,,,,,,,,,,,,,,,,,,,,,,,,,,,,,,,,,,,,,,,,,,,,,,,,,,,,,,,,,,,,,,,,,,,,,,,,,,,,,,,,,,,,,,,,,,,,,,,,,,,,,,,,,,,,,,,,,,
,,,,,,600726c489ddb31a15162ab0,62c5397fcc76923a56d01cde,2022-07-06_09h30.20.658,Colour_Asymmetry_Pilot,2022.1.3,Win32,59.58410296,62c50e9c1127f2cd403a315f,0,151,151,101,1,threefour,,,,,,,,,,,,,,,,,,,,,,,,,,,,,,,,,,,,,,,,,,,,,,,,,,,,,,,,,,,,,,,,,,,,,,,,,,,,,,,,,,,,,,,,,,,,,,,,,,,,,,,,,,,,,,,,,,,,,,,,,,,,,,,,,,,,,,,,,,,,,,,,,,,,,,,,,,,,,,
,,,,,,600726c489ddb31a15162ab0,62c5397fcc76923a56d01cde,2022-07-06_09h30.20.658,Colour_Asymmetry_Pilot,2022.1.3,Win32,59.58410296,62c50e9c1127f2cd403a315f,0,152,152,65,1,onethree,,,,,,,,,,,,,,,,,,,,,,,,,,,,,,,,,,,,,,,,,,,,,,,,,,,,,,,,,,,,,,,,,,,,,,,,,,,,,,,,,,,,,,,,,,,,,,,,,,,,,,,,,,,,,,,,,,,,,,,,,,,,,,,,,,,,,,,,,,,,,,,,,,,,,,,,,,,,,,
,,,,,,600726c489ddb31a15162ab0,62c5397fcc76923a56d01cde,2022-07-06_09h30.20.658,Colour_Asymmetry_Pilot,2022.1.3,Win32,59.58410296,62c50e9c1127f2cd403a315f,0,153,153,121,1,onethree,,,,,,,,,,,,,,,,,,,,,,,,,,,,,,,,,,,,,,,,,,,,,,,,,,,,,,,,,,,,,,,,,,,,,,,,,,,,,,,,,,,,,,,,,,,,,,,,,,,,,,,,,,,,,,,,,,,,,,,,,,,,,,,,,,,,,,,,,,,,,,,,,,,,,,,,,,,,,,
,,,,,,600726c489ddb31a15162ab0,62c5397fcc76923a56d01cde,2022-07-06_09h30.20.658,Colour_Asymmetry_Pilot,2022.1.3,Win32,59.58410296,62c50e9c1127f2cd403a315f,0,154,154,146,1,twoone,,,,,,,,,,,,,,,,,,,,,,,,,,,,,,,,,,,,,,,,,,,,,,,,,,,,,,,,,,,,,,,,,,,,,,,,,,,,,,,,,,,,,,,,,,,,,,,,,,,,,,,,,,,,,,,,,,,,,,,,,,,,,,,,,,,,,,,,,,,,,,,,,,,,,,,,,,,,,,
,,,,,,600726c489ddb31a15162ab0,62c5397fcc76923a56d01cde,2022-07-06_09h30.20.658,Colour_Asymmetry_Pilot,2022.1.3,Win32,59.58410296,62c50e9c1127f2cd403a315f,0,155,155,74,1,twoone,,,,,,,,,,,,,,,,,,,,,,,,,,,,,,,,,,,,,,,,,,,,,,,,,,,,,,,,,,,,,,,,,,,,,,,,,,,,,,,,,,,,,,,,,,,,,,,,,,,,,,,,,,,,,,,,,,,,,,,,,,,,,,,,,,,,,,,,,,,,,,,,,,,,,,,,,,,,,,
,,,,,,600726c489ddb31a15162ab0,62c5397fcc76923a56d01cde,2022-07-06_09h30.20.658,Colour_Asymmetry_Pilot,2022.1.3,Win32,59.58410296,62c50e9c1127f2cd403a315f,0,156,156,135,1,fourthree,,,,,,,,,,,,,,,,,,,,,,,,,,,,,,,,,,,,,,,,,,,,,,,,,,,,,,,,,,,,,,,,,,,,,,,,,,,,,,,,,,,,,,,,,,,,,,,,,,,,,,,,,,,,,,,,,,,,,,,,,,,,,,,,,,,,,,,,,,,,,,,,,,,,,,,,,,,,,,
,,,,,,600726c489ddb31a15162ab0,62c5397fcc76923a56d01cde,2022-07-06_09h30.20.658,Colour_Asymmetry_Pilot,2022.1.3,Win32,59.58410296,62c50e9c1127f2cd403a315f,0,157,157,129,1,onethree,,,,,,,,,,,,,,,,,,,,,,,,,,,,,,,,,,,,,,,,,,,,,,,,,,,,,,,,,,,,,,,,,,,,,,,,,,,,,,,,,,,,,,,,,,,,,,,,,,,,,,,,,,,,,,,,,,,,,,,,,,,,,,,,,,,,,,,,,,,,,,,,,,,,,,,,,,,,,,
,,,,,,600726c489ddb31a15162ab0,62c5397fcc76923a56d01cde,2022-07-06_09h30.20.658,Colour_Asymmetry_Pilot,2022.1.3,Win32,59.58410296,62c50e9c1127f2cd403a315f,0,158,158,109,1,threefour,,,,,,,,,,,,,,,,,,,,,,,,,,,,,,,,,,,,,,,,,,,,,,,,,,,,,,,,,,,,,,,,,,,,,,,,,,,,,,,,,,,,,,,,,,,,,,,,,,,,,,,,,,,,,,,,,,,,,,,,,,,,,,,,,,,,,,,,,,,,,,,,,,,,,,,,,,,,,,
,,,,,,600726c489ddb31a15162ab0,62c5397fcc76923a56d01cde,2022-07-06_09h30.20.658,Colour_Asymmetry_Pilot,2022.1.3,Win32,59.58410296,62c50e9c1127f2cd403a315f,0,159,159,92,1,threeone,,,,,,,,,,,,,,,,,,,,,,,,,,,,,,,,,,,,,,,,,,,,,,,,,,,,,,,,,,,,,,,,,,,,,,,,,,,,,,,,,,,,,,,,,,,,,,,,,,,,,,,,,,,,,,,,,,,,,,,,,,,,,,,,,,,,,,,,,,,,,,,,,,,,,,,,,,,,,,
,,,,,,600726c489ddb31a15162ab0,62c5397fcc76923a56d01cde,2022-07-06_09h30.20.658,Colour_Asymmetry_Pilot,2022.1.3,Win32,59.58410296,62c50e9c1127f2cd403a315f,0,160,160,20,1,threeone,,,,,,,,,,,,,,,,,,,,,,,,,,,,,,,,,,,,,,,,,,,,,,,,,,,,,,,,,,,,,,,,,,,,,,,,,,,,,,,,,,,,,,,,,,,,,,,,,,,,,,,,,,,,,,,,,,,,,,,,,,,,,,,,,,,,,,,,,,,,,,,,,,,,,,,,,,,,,,
,,,,,,600726c489ddb31a15162ab0,62c5397fcc76923a56d01cde,2022-07-06_09h30.20.658,Colour_Asymmetry_Pilot,2022.1.3,Win32,59.58410296,62c50e9c1127f2cd403a315f,0,161,161,130,1,twoone,,,,,,,,,,,,,,,,,,,,,,,,,,,,,,,,,,,,,,,,,,,,,,,,,,,,,,,,,,,,,,,,,,,,,,,,,,,,,,,,,,,,,,,,,,,,,,,,,,,,,,,,,,,,,,,,,,,,,,,,,,,,,,,,,,,,,,,,,,,,,,,,,,,,,,,,,,,,,,
,,,,,,600726c489ddb31a15162ab0,62c5397fcc76923a56d01cde,2022-07-06_09h30.20.658,Colour_Asymmetry_Pilot,2022.1.3,Win32,59.58410296,62c50e9c1127f2cd403a315f,,,,,,,space,2.0135,space,9.9019,space,38.4245,space,8.2837,space,1.7016,space,5.4834,"[-0.8982,-0.37259999999999993,0.2784]",fourtwo,"[-0.9688,-0.7412000000000001,-0.4902000000000001]",4,9.2544,73.60003662,106.3999939,1,0,0,response1disk_5,-6.399963379,4.799987793,1,0,0,rectangle_8,-6.399963379,4.799987793,1,0,0,1,-6.399963379,4.799987793,1,0,0,0,0,0,0,1,,,,,,,,,,,,,,,,,,,,,,,,,,,,,,,,,,,,,,,,,,,,,,,,,,,,,,,,,,,,,,,,,,,,,,,,,,,,,,,,,,,,,,,,,,,,,,,,,,,,,,,,,,,,,,,,,
,,,,,,600726c489ddb31a15162ab0,62c5397fcc76923a56d01cde,2022-07-06_09h30.20.658,Colour_Asymmetry_Pilot,2022.1.3,Win32,59.58410296,62c50e9c1127f2cd403a315f,,,,,,,,,,,,,,,,,,,"[-0.9688,-0.4902000000000001,-0.12159999999999993]",fourthree,"[-0.4668,-0.8746,-0.2942]",1,6.0988,41.60003662,-87.20001221,1,0,0,response3disk_5,26.40002441,11.19998169,1,0,0,rectangle_8,26.40002441,11.19998169,1,0,0,1,26.40002441,11.19998169,1,0,0,1,0,1,0,1,,,,,,,,,,,,,,,,,,,,,,,,,,,,,,,,,,,,,,,,,,,,,,,,,,,,,,,,,,,,,,,,,,,,,,,,,,,,,,,,,,,,,,,,,,,,,,,,,,,,,,,,,,,,,,,,,
,,,,,,600726c489ddb31a15162ab0,62c5397fcc76923a56d01cde,2022-07-06_09h30.20.658,Colour_Asymmetry_Pilot,2022.1.3,Win32,59.58410296,62c50e9c1127f2cd403a315f,,,,,,,,,,,,,,,,,,,"[-0.9688,-0.7412000000000001,-0.4902000000000001]",twofour,"[-0.5688,-0.08239999999999992,-0.1844]",1,1.0667,48,-96,1,0,0,response3disk_5,-2.399963379,-4.800018311,1,0,0,rectangle_8,44,-109.6000366,1,0,0,1,9.600036621,-8,1,0,0,2,0,2,0,1,response3disk_7,4,rectangle_4,,,,,,,,,,,,,,,,,,,,,,,,,,,,,,,,,,,,,,,,,,,,,,,,,,,,,,,,,,,,,,,,,,,,,,,,,,,,,,,,,,,,,,,,,,,,,,,,,,,,,,,,,,,,,,
,,,,,,600726c489ddb31a15162ab0,62c5397fcc76923a56d01cde,2022-07-06_09h30.20.658,Colour_Asymmetry_Pilot,2022.1.3,Win32,59.58410296,62c50e9c1127f2cd403a315f,,,,,,,,,,,,,,,,,,,"[-0.050999999999999934,-0.6706000000000001,-0.804]",twofour,"[0.9686000000000001,0.5763999999999998,0.11359999999999992]",-2,1.2832,-68,-26.3999939,1,0,0,response5disk_5,-13.59997559,-4,1,0,0,rectangle_8,-13.59997559,-4,1,0,0,1,-13.59997559,-4,1,0,0,3,0,3,0,1,,,,,,,,,,,,,,,,,,,,,,,,,,,,,,,,,,,,,,,,,,,,,,,,,,,,,,,,,,,,,,,,,,,,,,,,,,,,,,,,,,,,,,,,,,,,,,,,,,,,,,,,,,,,,,,,,
,,,,,,600726c489ddb31a15162ab0,62c5397fcc76923a56d01cde,2022-07-06_09h30.20.658,Colour_Asymmetry_Pilot,2022.1.3,Win32,59.58410296,62c50e9c1127f2cd403a315f,,,,,,,,,,,,,,,,,,,"[0.9763999999999999,-0.1137999999999999,-0.6314]",onethree,"[0.9213999999999998,0.6391999999999998,-0.9922]",1,1.4999,55.20001221,-88.79998779,1,0,0,response3disk_5,-15.20001221,7.199981689,1,0,0,rectangle_8,-15.20001221,7.199981689,1,0,0,1,-15.20001221,7.199981689,1,0,0,4,0,4,0,1,,,,,,,,,,,,,,,,,,,,,,,,,,,,,,,,,,,,,,,,,,,,,,,,,,,,,,,,,,,,,,,,,,,,,,,,,,,,,,,,,,,,,,,,,,,,,,,,,,,,,,,,,,,,,,,,,
,,,,,,600726c489ddb31a15162ab0,62c5397fcc76923a56d01cde,2022-07-06_09h30.20.658,Colour_Asymmetry_Pilot,2022.1.3,Win32,59.58410296,62c50e9c1127f2cd403a315f,,,,,,,,,,,,,,,,,,,"[-0.45899999999999996,-0.3256,-0.9374]",fourtwo,"[-0.26280000000000003,-0.4746,-0.2158]",-2,0.9665,-56,-29.6000061,1,0,0,response5disk_5,7.200012207,10.3999939,1,0,0,rectangle_8,7.200012207,10.3999939,1,0,0,1,7.200012207,10.3999939,1,0,0,5,0,5,0,1,,,,,,,,,,,,,,,,,,,,,,,,,,,,,,,,,,,,,,,,,,,,,,,,,,,,,,,,,,,,,,,,,,,,,,,,,,,,,,,,,,,,,,,,,,,,,,,,,,,,,,,,,,,,,,,,,
,,,,,,600726c489ddb31a15162ab0,62c5397fcc76923a56d01cde,2022-07-06_09h30.20.658,Colour_Asymmetry_Pilot,2022.1.3,Win32,59.58410296,62c50e9c1127f2cd403a315f,,,,,,,,,,,,,,,,,,,"[-0.9688,-0.7412000000000001,-0.4902000000000001]",fourtwo,"[-0.24719999999999998,0.5213999999999999,-0.12959999999999994]",-3,1.0331,-110.3999634,74.3999939,1,0,0,response7disk_5,-31.20001221,5.600006104,1,0,0,rectangle_8,-31.20001221,5.600006104,1,0,0,1,-31.20001221,5.600006104,1,0,0,6,0,6,0,1,,,,,,,,,,,,,,,,,,,,,,,,,,,,,,,,,,,,,,,,,,,,,,,,,,,,,,,,,,,,,,,,,,,,,,,,,,,,,,,,,,,,,,,,,,,,,,,,,,,,,,,,,,,,,,,,,
,,,,,,600726c489ddb31a15162ab0,62c5397fcc76923a56d01cde,2022-07-06_09h30.20.658,Colour_Asymmetry_Pilot,2022.1.3,Win32,59.58410296,62c50e9c1127f2cd403a315f,,,,,,,,,,,,,,,,,,,,onethree,,-1,2.6332,,,,,,,,,,,,,,,,,,,,,,,,,,,,,,,,space,2.7876,"[0.4196,0.4665999999999999,0.3568]","[0.7018,0.7802,-0.16079999999999994]",-40,-84.79998779,1,0,0,response5disk,-3.200012207,-5.600006104,1,0,0,rectangle,-3.200012207,-5.600006104,1,0,0,,1,0.0013,0,-3.200012207,-5.600006104,1,0,0,0,0,0,134,1,53,second,,,,,,,,,,,,,,,,,,,,,,,,,,,,,,,,,,,,,,,,,,,,,,,,,,,,,,,,,,,,,,,,,,,,,,,,,
,,,,,,600726c489ddb31a15162ab0,62c5397fcc76923a56d01cde,2022-07-06_09h30.20.658,Colour_Asymmetry_Pilot,2022.1.3,Win32,59.58410296,62c50e9c1127f2cd403a315f,,,,,,,,,,,,,,,,,,,,onetwo,,-1,1.8331,,,,,,,,,,,,,,,,,,,,,,,,,,,,,,,,,,"[0.09799999999999986,-0.24719999999999998,0.15280000000000005]","[-0.9138,-0.5296000000000001,-0.5529999999999999]",-52.79998779,-120,1,0,0,response5disk,8,13.6000061,1,0,0,rectangle,8,13.6000061,1,0,0,,1,0.0006,0,8,13.6000061,1,0,0,0,1,1,125,1,44,second,,,,,,,,,,,,,,,,,,,,,,,,,,,,,,,,,,,,,,,,,,,,,,,,,,,,,,,,,,,,,,,,,,,,,,,,,
,,,,,,600726c489ddb31a15162ab0,62c5397fcc76923a56d01cde,2022-07-06_09h30.20.658,Colour_Asymmetry_Pilot,2022.1.3,Win32,59.58410296,62c50e9c1127f2cd403a315f,,,,,,,,,,,,,,,,,,,,threefour,,-3,0.7496,,,,,,,,,,,,,,,,,,,,,,,,,,,,,,,,,,"[0.22340000000000004,-0.9296,-0.7884]","[0.9372,0.9450000000000001,0.8980000000000001]",-104.7999878,68,1,0,0,response7disk,-15.20001221,-1.600006104,1,0,0,rectangle,-15.20001221,-1.600006104,1,0,0,,3,0.0007,0,-15.20001221,-1.600006104,1,0,0,0,2,2,63,1,63,first,,,,,,,,,,,,,,,,,,,,,,,,,,,,,,,,,,,,,,,,,,,,,,,,,,,,,,,,,,,,,,,,,,,,,,,,,
,,,,,,600726c489ddb31a15162ab0,62c5397fcc76923a56d01cde,2022-07-06_09h30.20.658,Colour_Asymmetry_Pilot,2022.1.3,Win32,59.58410296,62c50e9c1127f2cd403a315f,,,,,,,,,,,,,,,,,,,,threeone,,-2,0.583,,,,,,,,,,,,,,,,,,,,,,,,,,,,,,,,,,"[-0.4746,-0.0354000000000001,0.5449999999999999]","[0.23920000000000008,0.2704,0.16060000000000008]",-65.59997559,-36.80001831,1,0,0,response5disk,-6.399963379,2.399993896,1,0,0,rectangle,-6.399963379,2.399993896,1,0,0,,3,0.0002,0,-6.399963379,2.399993896,1,0,0,0,3,3,139,1,58,second,,,,,,,,,,,,,,,,,,,,,,,,,,,,,,,,,,,,,,,,,,,,,,,,,,,,,,,,,,,,,,,,,,,,,,,,,
,,,,,,600726c489ddb31a15162ab0,62c5397fcc76923a56d01cde,2022-07-06_09h30.20.658,Colour_Asymmetry_Pilot,2022.1.3,Win32,59.58410296,62c50e9c1127f2cd403a315f,,,,,,,,,,,,,,,,,,,,twoone,,2,1.1999,,,,,,,,,,,,,,,,,,,,,,,,,,,,,,,,,,"[-0.8198,-0.5138,-0.7492000000000001]","[-0.9688,-0.4902000000000001,-0.12159999999999993]",89.60003662,-39.20001221,1,0,0,response3disk,-32,-1.600006104,1,0,0,rectangle,-32,-1.600006104,1,0,0,,3,0.0001,0,-32,-1.600006104,1,0,0,0,4,4,103,1,22,second,,,,,,,,,,,,,,,,,,,,,,,,,,,,,,,,,,,,,,,,,,,,,,,,,,,,,,,,,,,,,,,,,,,,,,,,,
,,,,,,600726c489ddb31a15162ab0,62c5397fcc76923a56d01cde,2022-07-06_09h30.20.658,Colour_Asymmetry_Pilot,2022.1.3,Win32,59.58410296,62c50e9c1127f2cd403a315f,,,,,,,,,,,,,,,,,,,,onetwo,,1,0.5833,,,,,,,,,,,,,,,,,,,,,,,,,,,,,,,,,,"[-0.10599999999999998,-0.10599999999999998,0.5841999999999998]","[0.4196,0.4665999999999999,0.3568]",74.40002441,-109.6000366,1,0,0,response3disk,16,-2.399993896,1,0,0,rectangle,16,-2.399993896,1,0,0,,1,0.0007,0,16,-2.399993896,1,0,0,0,5,5,124,1,43,second,,,,,,,,,,,,,,,,,,,,,,,,,,,,,,,,,,,,,,,,,,,,,,,,,,,,,,,,,,,,,,,,,,,,,,,,,
,,,,,,600726c489ddb31a15162ab0,62c5397fcc76923a56d01cde,2022-07-06_09h30.20.658,Colour_Asymmetry_Pilot,2022.1.3,Win32,59.58410296,62c50e9c1127f2cd403a315f,,,,,,,,,,,,,,,,,,,,threeone,,-2,0.6831,,,,,,,,,,,,,,,,,,,,,,,,,,,,,,,,,,"[0.5449999999999999,-0.31000000000000005,-0.0354000000000001]","[-0.9688,-0.7412000000000001,-0.4902000000000001]",-98.39996338,-45.6000061,1,0,0,response5disk,-17.59997559,6.399993896,1,0,0,rectangle,-17.59997559,6.399993896,1,0,0,,2,0.0014,0,-17.59997559,6.399993896,1,0,0,0,6,6,59,1,59,first,,,,,,,,,,,,,,,,,,,,,,,,,,,,,,,,,,,,,,,,,,,,,,,,,,,,,,,,,,,,,,,,,,,,,,,,,
,,,,,,600726c489ddb31a15162ab0,62c5397fcc76923a56d01cde,2022-07-06_09h30.20.658,Colour_Asymmetry_Pilot,2022.1.3,Win32,59.58410296,62c50e9c1127f2cd403a315f,,,,,,,,,,,,,,,,,,,,twofour,,-1,1.2499,,,,,,,,,,,,,,,,,,,,,,,,,,,,,,,,,,"[-0.8118,-0.8198,-0.5452]","[0.04299999999999993,0.16060000000000008,-0.6628000000000001]",-27.20001221,-87.20001221,1,0,0,response5disk,21.60003662,0,1,0,0,rectangle,21.60003662,0,1,0,0,,2,0.0002,0,21.60003662,0,1,0,0,0,7,7,147,1,66,second,,,,,,,,,,,,,,,,,,,,,,,,,,,,,,,,,,,,,,,,,,,,,,,,,,,,,,,,,,,,,,,,,,,,,,,,,
,,,,,,600726c489ddb31a15162ab0,62c5397fcc76923a56d01cde,2022-07-06_09h30.20.658,Colour_Asymmetry_Pilot,2022.1.3,Win32,59.58410296,62c50e9c1127f2cd403a315f,,,,,,,,,,,,,,,,,,,,twoone,,1,0.6833,,,,,,,,,,,,,,,,,,,,,,,,,,,,,,,,,,"[-0.9766,-0.34920000000000007,0.2156]","[-0.5922000000000001,-0.7492000000000001,-0.5296000000000001]",46.40002441,-76.80001831,1,0,0,response3disk,7.200012207,6.399993896,1,0,0,rectangle,7.200012207,6.399993896,1,0,0,,2,0.0002,0,7.200012207,6.399993896,1,0,0,0,8,8,28,1,28,first,,,,,,,,,,,,,,,,,,,,,,,,,,,,,,,,,,,,,,,,,,,,,,,,,,,,,,,,,,,,,,,,,,,,,,,,,
,,,,,,600726c489ddb31a15162ab0,62c5397fcc76923a56d01cde,2022-07-06_09h30.20.658,Colour_Asymmetry_Pilot,2022.1.3,Win32,59.58410296,62c50e9c1127f2cd403a315f,,,,,,,,,,,,,,,,,,,,fourthree,,-4,0.8502,,,,,,,,,,,,,,,,,,,,,,,,,,,,,,,,,,"[0.8115999999999999,-0.0040000000000000036,-0.09819999999999995]","[-0.5922000000000001,-0.7492000000000001,-0.5296000000000001]",-40.79998779,76.79998779,1,0,0,response7disk,-0.799987793,-6.399993896,1,0,0,rectangle,-0.799987793,-6.399993896,1,0,0,,2,0.0001,0,-0.799987793,-6.399993896,1,0,0,0,9,9,13,1,13,first,,,,,,,,,,,,,,,,,,,,,,,,,,,,,,,,,,,,,,,,,,,,,,,,,,,,,,,,,,,,,,,,,,,,,,,,,
,,,,,,600726c489ddb31a15162ab0,62c5397fcc76923a56d01cde,2022-07-06_09h30.20.658,Colour_Asymmetry_Pilot,2022.1.3,Win32,59.58410296,62c50e9c1127f2cd403a315f,,,,,,,,,,,,,,,,,,,,fourthree,,-4,1.4833,,,,,,,,,,,,,,,,,,,,,,,,,,,,,,,,,,"[0.3881999999999999,-0.23939999999999995,-0.05040000000000011]","[0.9213999999999998,0.6391999999999998,-0.9922]",-44,68.79998779,1,0,0,response7disk,-10.39996338,1.600006104,1,0,0,rectangle,-10.39996338,1.600006104,1,0,0,,3,0.0008,0,-10.39996338,1.600006104,1,0,0,0,10,10,42,1,42,first,,,,,,,,,,,,,,,,,,,,,,,,,,,,,,,,,,,,,,,,,,,,,,,,,,,,,,,,,,,,,,,,,,,,,,,,,
,,,,,,600726c489ddb31a15162ab0,62c5397fcc76923a56d01cde,2022-07-06_09h30.20.658,Colour_Asymmetry_Pilot,2022.1.3,Win32,59.58410296,62c50e9c1127f2cd403a315f,,,,,,,,,,,,,,,,,,,,fourthree,,2,0.7502,,,,,,,,,,,,,,,,,,,,,,,,,,,,,,,,,,"[0.9213999999999998,0.6391999999999998,-0.9922]","[0.37240000000000006,-0.050999999999999934,-0.5216]",67.20001221,-41.6000061,1,0,0,response3disk,20,-6.399993896,1,0,0,rectangle,20,-6.399993896,1,0,0,,1,0.0006,0,20,-6.399993896,1,0,0,0,11,11,113,1,32,second,,,,,,,,,,,,,,,,,,,,,,,,,,,,,,,,,,,,,,,,,,,,,,,,,,,,,,,,,,,,,,,,,,,,,,,,,
,,,,,,600726c489ddb31a15162ab0,62c5397fcc76923a56d01cde,2022-07-06_09h30.20.658,Colour_Asymmetry_Pilot,2022.1.3,Win32,59.58410296,62c50e9c1127f2cd403a315f,,,,,,,,,,,,,,,,,,,,twofour,,-3,1.1831,,,,,,,,,,,,,,,,,,,,,,,,,,,,,,,,,,"[-0.6235999999999999,-0.6786,-0.08239999999999992]","[0.796,0.2156,-0.27859999999999996]",-113.5999756,40.79998779,1,0,0,response7disk,19.20001221,13.6000061,1,0,0,rectangle,19.20001221,13.6000061,1,0,0,,3,0.0005,0,19.20001221,13.6000061,1,0,0,0,12,12,6,1,6,first,,,,,,,,,,,,,,,,,,,,,,,,,,,,,,,,,,,,,,,,,,,,,,,,,,,,,,,,,,,,,,,,,,,,,,,,,
,,,,,,600726c489ddb31a15162ab0,62c5397fcc76923a56d01cde,2022-07-06_09h30.20.658,Colour_Asymmetry_Pilot,2022.1.3,Win32,59.58410296,62c50e9c1127f2cd403a315f,,,,,,,,,,,,,,,,,,,,onetwo,,-3,6.3494,,,,,,,,,,,,,,,,,,,,,,,,,,,,,,,,,,"[0.19199999999999995,0.18419999999999992,0.5136000000000001]","[-0.7412000000000001,-0.08239999999999992,-0.6864]",-64.79998779,48.79998779,1,0,0,response7disk,4.799987793,4.799987793,1,0,0,rectangle,93.60003662,-49.6000061,1,0,0,2,2,3.0669,1,8,5.600006104,1,0,0,0,13,13,136,1,55,second,response3disk_3,rectangle,,,,,,,,,,,,,,,,,,,,,,,,,,,,,,,,,,,,,,,,,,,,,,,,,,,,,,,,,,,,,,,,,,,,,,,
