trials.thisRepN,trials.thisTrialN,trials.thisN,trials.thisIndex,trials.ran,Colourcodes,participant,session,date,expName,psychopyVersion,OS,frameRate,study_id,trials_4.thisRepN,trials_4.thisTrialN,trials_4.thisN,trials_4.thisIndex,trials_4.ran,StimulusPos,key_resp.keys,key_resp.rt,key_resp_2.keys,key_resp_2.rt,key_resp_15.keys,key_resp_15.rt,key_resp_17.keys,key_resp_17.rt,key_resp_9.keys,key_resp_9.rt,key_resp_10.keys,key_resp_10.rt,Circle1_col,Ecc,Circle2_col,similarity,response_time,mouse_5.x,mouse_5.y,mouse_5.leftButton,mouse_5.midButton,mouse_5.rightButton,mouse_5.clicked_name,mouse_10.x,mouse_10.y,mouse_10.leftButton,mouse_10.midButton,mouse_10.rightButton,mouse_10.clicked_name,mouse_7.x,mouse_7.y,mouse_7.leftButton,mouse_7.midButton,mouse_7.rightButton,mouse_7.clicked_name,catchprac,catchnumberprac,mouse_6.x,mouse_6.y,mouse_6.leftButton,mouse_6.midButton,mouse_6.rightButton,mouse_6.clicked_name,duringprac.thisRepN,duringprac.thisTrialN,duringprac.thisN,duringprac.thisIndex,duringprac.ran,key_resp_22.keys,key_resp_22.rt,Circle1_colour,Circle2_colour,mouse.x,mouse.y,mouse.leftButton,mouse.midButton,mouse.rightButton,mouse.clicked_name,mouse_2.x,mouse_2.y,mouse_2.leftButton,mouse_2.midButton,mouse_2.rightButton,mouse_2.clicked_name,mouse_3.x,mouse_3.y,mouse_3.leftButton,mouse_3.midButton,mouse_3.rightButton,catchresponse,catchnumber,response_time_catch,Catch,mouse_11.x,mouse_11.y,mouse_11.leftButton,mouse_11.midButton,mouse_11.rightButton,trials_2.thisRepN,trials_2.thisTrialN,trials_2.thisN,trials_2.thisIndex,trials_2.ran,Colourpair,Temporder,mouse_3.clicked_name,mouse_11.clicked_name,trials_3.thisRepN,trials_3.thisTrialN,trials_3.thisN,trials_3.thisIndex,trials_3.ran,key_resp_instr_Ishi.keys,key_resp_instr_Ishi.rt,Ishi_trial_keyresp.keys,Ishi_textbox.text,Ishi_mouse.x,Ishi_mouse.y,Ishi_mouse.leftButton,Ishi_mouse.midButton,Ishi_mouse.rightButton,Ishi_mouse.clicked_name,Ishi_loop.thisRepN,Ishi_loop.thisTrialN,Ishi_loop.thisN,Ishi_loop.thisIndex,Ishi_loop.ran,imageaddress,textbox.text,mouse_4.x,mouse_4.y,mouse_4.leftButton,mouse_4.midButton,mouse_4.rightButton,mouse_4.clicked_name,textbox_2.text,mouse_8.x,mouse_8.y,mouse_8.leftButton,mouse_8.midButton,mouse_8.rightButton,mouse_8.clicked_name,textbox_3.text,mouse_9.x,mouse_9.y,mouse_9.leftButton,mouse_9.midButton,mouse_9.rightButton,mouse_9.clicked_name,textbox_4.text,mouse_12.x,mouse_12.y,mouse_12.leftButton,mouse_12.midButton,mouse_12.rightButton,mouse_12.clicked_name,textbox_5.text,mouse_13.x,mouse_13.y,mouse_13.leftButton,mouse_13.midButton,mouse_13.rightButton,mouse_13.clicked_name,textbox_6.text,mouse_14.x,mouse_14.y,mouse_14.leftButton,mouse_14.midButton,mouse_14.rightButton,mouse_14.clicked_name,textbox_7.text,mouse_15.x,mouse_15.y,mouse_15.leftButton,mouse_15.midButton,mouse_15.rightButton,mouse_15.clicked_name
0,0,0,28,1,,5c4318404d76b1000173d466,62c5392a51e5e64e9dd01ce4,2022-07-06_09h26.58.168,Colour_Asymmetry_Pilot,2022.1.3,Win32,144.0092166,62c50e9c1127f2cd403a315f,,,,,,,,,,,,,,,,,,,,,,,,,,,,,,,,,,,,,,,,,,,,,,,,,,,,,,,,,,,,,,,,,,,,,,,,,,,,,,,,,,,,,,,,,,,,,,,,,,,,,,,,,,,,,,,,,,,,,,,,,,,,,,,,,,,,,,,,,,,,,,,,,,,,,,,,,,,,,,,,,,,
0,1,1,60,1,,5c4318404d76b1000173d466,62c5392a51e5e64e9dd01ce4,2022-07-06_09h26.58.168,Colour_Asymmetry_Pilot,2022.1.3,Win32,144.0092166,62c50e9c1127f2cd403a315f,,,,,,,,,,,,,,,,,,,,,,,,,,,,,,,,,,,,,,,,,,,,,,,,,,,,,,,,,,,,,,,,,,,,,,,,,,,,,,,,,,,,,,,,,,,,,,,,,,,,,,,,,,,,,,,,,,,,,,,,,,,,,,,,,,,,,,,,,,,,,,,,,,,,,,,,,,,,,,,,,,,
0,2,2,37,1,,5c4318404d76b1000173d466,62c5392a51e5e64e9dd01ce4,2022-07-06_09h26.58.168,Colour_Asymmetry_Pilot,2022.1.3,Win32,144.0092166,62c50e9c1127f2cd403a315f,,,,,,,,,,,,,,,,,,,,,,,,,,,,,,,,,,,,,,,,,,,,,,,,,,,,,,,,,,,,,,,,,,,,,,,,,,,,,,,,,,,,,,,,,,,,,,,,,,,,,,,,,,,,,,,,,,,,,,,,,,,,,,,,,,,,,,,,,,,,,,,,,,,,,,,,,,,,,,,,,,,
0,3,3,18,1,,5c4318404d76b1000173d466,62c5392a51e5e64e9dd01ce4,2022-07-06_09h26.58.168,Colour_Asymmetry_Pilot,2022.1.3,Win32,144.0092166,62c50e9c1127f2cd403a315f,,,,,,,,,,,,,,,,,,,,,,,,,,,,,,,,,,,,,,,,,,,,,,,,,,,,,,,,,,,,,,,,,,,,,,,,,,,,,,,,,,,,,,,,,,,,,,,,,,,,,,,,,,,,,,,,,,,,,,,,,,,,,,,,,,,,,,,,,,,,,,,,,,,,,,,,,,,,,,,,,,,
0,4,4,25,1,,5c4318404d76b1000173d466,62c5392a51e5e64e9dd01ce4,2022-07-06_09h26.58.168,Colour_Asymmetry_Pilot,2022.1.3,Win32,144.0092166,62c50e9c1127f2cd403a315f,,,,,,,,,,,,,,,,,,,,,,,,,,,,,,,,,,,,,,,,,,,,,,,,,,,,,,,,,,,,,,,,,,,,,,,,,,,,,,,,,,,,,,,,,,,,,,,,,,,,,,,,,,,,,,,,,,,,,,,,,,,,,,,,,,,,,,,,,,,,,,,,,,,,,,,,,,,,,,,,,,,
0,5,5,23,1,,5c4318404d76b1000173d466,62c5392a51e5e64e9dd01ce4,2022-07-06_09h26.58.168,Colour_Asymmetry_Pilot,2022.1.3,Win32,144.0092166,62c50e9c1127f2cd403a315f,,,,,,,,,,,,,,,,,,,,,,,,,,,,,,,,,,,,,,,,,,,,,,,,,,,,,,,,,,,,,,,,,,,,,,,,,,,,,,,,,,,,,,,,,,,,,,,,,,,,,,,,,,,,,,,,,,,,,,,,,,,,,,,,,,,,,,,,,,,,,,,,,,,,,,,,,,,,,,,,,,,
0,6,6,86,1,,5c4318404d76b1000173d466,62c5392a51e5e64e9dd01ce4,2022-07-06_09h26.58.168,Colour_Asymmetry_Pilot,2022.1.3,Win32,144.0092166,62c50e9c1127f2cd403a315f,,,,,,,,,,,,,,,,,,,,,,,,,,,,,,,,,,,,,,,,,,,,,,,,,,,,,,,,,,,,,,,,,,,,,,,,,,,,,,,,,,,,,,,,,,,,,,,,,,,,,,,,,,,,,,,,,,,,,,,,,,,,,,,,,,,,,,,,,,,,,,,,,,,,,,,,,,,,,,,,,,,
0,7,7,90,1,,5c4318404d76b1000173d466,62c5392a51e5e64e9dd01ce4,2022-07-06_09h26.58.168,Colour_Asymmetry_Pilot,2022.1.3,Win32,144.0092166,62c50e9c1127f2cd403a315f,,,,,,,,,,,,,,,,,,,,,,,,,,,,,,,,,,,,,,,,,,,,,,,,,,,,,,,,,,,,,,,,,,,,,,,,,,,,,,,,,,,,,,,,,,,,,,,,,,,,,,,,,,,,,,,,,,,,,,,,,,,,,,,,,,,,,,,,,,,,,,,,,,,,,,,,,,,,,,,,,,,
0,8,8,81,1,,5c4318404d76b1000173d466,62c5392a51e5e64e9dd01ce4,2022-07-06_09h26.58.168,Colour_Asymmetry_Pilot,2022.1.3,Win32,144.0092166,62c50e9c1127f2cd403a315f,,,,,,,,,,,,,,,,,,,,,,,,,,,,,,,,,,,,,,,,,,,,,,,,,,,,,,,,,,,,,,,,,,,,,,,,,,,,,,,,,,,,,,,,,,,,,,,,,,,,,,,,,,,,,,,,,,,,,,,,,,,,,,,,,,,,,,,,,,,,,,,,,,,,,,,,,,,,,,,,,,,
0,9,9,6,1,,5c4318404d76b1000173d466,62c5392a51e5e64e9dd01ce4,2022-07-06_09h26.58.168,Colour_Asymmetry_Pilot,2022.1.3,Win32,144.0092166,62c50e9c1127f2cd403a315f,,,,,,,,,,,,,,,,,,,,,,,,,,,,,,,,,,,,,,,,,,,,,,,,,,,,,,,,,,,,,,,,,,,,,,,,,,,,,,,,,,,,,,,,,,,,,,,,,,,,,,,,,,,,,,,,,,,,,,,,,,,,,,,,,,,,,,,,,,,,,,,,,,,,,,,,,,,,,,,,,,,
0,10,10,30,1,,5c4318404d76b1000173d466,62c5392a51e5e64e9dd01ce4,2022-07-06_09h26.58.168,Colour_Asymmetry_Pilot,2022.1.3,Win32,144.0092166,62c50e9c1127f2cd403a315f,,,,,,,,,,,,,,,,,,,,,,,,,,,,,,,,,,,,,,,,,,,,,,,,,,,,,,,,,,,,,,,,,,,,,,,,,,,,,,,,,,,,,,,,,,,,,,,,,,,,,,,,,,,,,,,,,,,,,,,,,,,,,,,,,,,,,,,,,,,,,,,,,,,,,,,,,,,,,,,,,,,
0,11,11,91,1,,5c4318404d76b1000173d466,62c5392a51e5e64e9dd01ce4,2022-07-06_09h26.58.168,Colour_Asymmetry_Pilot,2022.1.3,Win32,144.0092166,62c50e9c1127f2cd403a315f,,,,,,,,,,,,,,,,,,,,,,,,,,,,,,,,,,,,,,,,,,,,,,,,,,,,,,,,,,,,,,,,,,,,,,,,,,,,,,,,,,,,,,,,,,,,,,,,,,,,,,,,,,,,,,,,,,,,,,,,,,,,,,,,,,,,,,,,,,,,,,,,,,,,,,,,,,,,,,,,,,,
0,12,12,47,1,,5c4318404d76b1000173d466,62c5392a51e5e64e9dd01ce4,2022-07-06_09h26.58.168,Colour_Asymmetry_Pilot,2022.1.3,Win32,144.0092166,62c50e9c1127f2cd403a315f,,,,,,,,,,,,,,,,,,,,,,,,,,,,,,,,,,,,,,,,,,,,,,,,,,,,,,,,,,,,,,,,,,,,,,,,,,,,,,,,,,,,,,,,,,,,,,,,,,,,,,,,,,,,,,,,,,,,,,,,,,,,,,,,,,,,,,,,,,,,,,,,,,,,,,,,,,,,,,,,,,,
0,13,13,44,1,,5c4318404d76b1000173d466,62c5392a51e5e64e9dd01ce4,2022-07-06_09h26.58.168,Colour_Asymmetry_Pilot,2022.1.3,Win32,144.0092166,62c50e9c1127f2cd403a315f,,,,,,,,,,,,,,,,,,,,,,,,,,,,,,,,,,,,,,,,,,,,,,,,,,,,,,,,,,,,,,,,,,,,,,,,,,,,,,,,,,,,,,,,,,,,,,,,,,,,,,,,,,,,,,,,,,,,,,,,,,,,,,,,,,,,,,,,,,,,,,,,,,,,,,,,,,,,,,,,,,,
0,14,14,75,1,,5c4318404d76b1000173d466,62c5392a51e5e64e9dd01ce4,2022-07-06_09h26.58.168,Colour_Asymmetry_Pilot,2022.1.3,Win32,144.0092166,62c50e9c1127f2cd403a315f,,,,,,,,,,,,,,,,,,,,,,,,,,,,,,,,,,,,,,,,,,,,,,,,,,,,,,,,,,,,,,,,,,,,,,,,,,,,,,,,,,,,,,,,,,,,,,,,,,,,,,,,,,,,,,,,,,,,,,,,,,,,,,,,,,,,,,,,,,,,,,,,,,,,,,,,,,,,,,,,,,,
0,15,15,26,1,,5c4318404d76b1000173d466,62c5392a51e5e64e9dd01ce4,2022-07-06_09h26.58.168,Colour_Asymmetry_Pilot,2022.1.3,Win32,144.0092166,62c50e9c1127f2cd403a315f,,,,,,,,,,,,,,,,,,,,,,,,,,,,,,,,,,,,,,,,,,,,,,,,,,,,,,,,,,,,,,,,,,,,,,,,,,,,,,,,,,,,,,,,,,,,,,,,,,,,,,,,,,,,,,,,,,,,,,,,,,,,,,,,,,,,,,,,,,,,,,,,,,,,,,,,,,,,,,,,,,,
0,16,16,88,1,,5c4318404d76b1000173d466,62c5392a51e5e64e9dd01ce4,2022-07-06_09h26.58.168,Colour_Asymmetry_Pilot,2022.1.3,Win32,144.0092166,62c50e9c1127f2cd403a315f,,,,,,,,,,,,,,,,,,,,,,,,,,,,,,,,,,,,,,,,,,,,,,,,,,,,,,,,,,,,,,,,,,,,,,,,,,,,,,,,,,,,,,,,,,,,,,,,,,,,,,,,,,,,,,,,,,,,,,,,,,,,,,,,,,,,,,,,,,,,,,,,,,,,,,,,,,,,,,,,,,,
0,17,17,54,1,,5c4318404d76b1000173d466,62c5392a51e5e64e9dd01ce4,2022-07-06_09h26.58.168,Colour_Asymmetry_Pilot,2022.1.3,Win32,144.0092166,62c50e9c1127f2cd403a315f,,,,,,,,,,,,,,,,,,,,,,,,,,,,,,,,,,,,,,,,,,,,,,,,,,,,,,,,,,,,,,,,,,,,,,,,,,,,,,,,,,,,,,,,,,,,,,,,,,,,,,,,,,,,,,,,,,,,,,,,,,,,,,,,,,,,,,,,,,,,,,,,,,,,,,,,,,,,,,,,,,,
0,18,18,55,1,,5c4318404d76b1000173d466,62c5392a51e5e64e9dd01ce4,2022-07-06_09h26.58.168,Colour_Asymmetry_Pilot,2022.1.3,Win32,144.0092166,62c50e9c1127f2cd403a315f,,,,,,,,,,,,,,,,,,,,,,,,,,,,,,,,,,,,,,,,,,,,,,,,,,,,,,,,,,,,,,,,,,,,,,,,,,,,,,,,,,,,,,,,,,,,,,,,,,,,,,,,,,,,,,,,,,,,,,,,,,,,,,,,,,,,,,,,,,,,,,,,,,,,,,,,,,,,,,,,,,,
0,19,19,53,1,,5c4318404d76b1000173d466,62c5392a51e5e64e9dd01ce4,2022-07-06_09h26.58.168,Colour_Asymmetry_Pilot,2022.1.3,Win32,144.0092166,62c50e9c1127f2cd403a315f,,,,,,,,,,,,,,,,,,,,,,,,,,,,,,,,,,,,,,,,,,,,,,,,,,,,,,,,,,,,,,,,,,,,,,,,,,,,,,,,,,,,,,,,,,,,,,,,,,,,,,,,,,,,,,,,,,,,,,,,,,,,,,,,,,,,,,,,,,,,,,,,,,,,,,,,,,,,,,,,,,,
0,20,20,33,1,,5c4318404d76b1000173d466,62c5392a51e5e64e9dd01ce4,2022-07-06_09h26.58.168,Colour_Asymmetry_Pilot,2022.1.3,Win32,144.0092166,62c50e9c1127f2cd403a315f,,,,,,,,,,,,,,,,,,,,,,,,,,,,,,,,,,,,,,,,,,,,,,,,,,,,,,,,,,,,,,,,,,,,,,,,,,,,,,,,,,,,,,,,,,,,,,,,,,,,,,,,,,,,,,,,,,,,,,,,,,,,,,,,,,,,,,,,,,,,,,,,,,,,,,,,,,,,,,,,,,,
0,21,21,52,1,,5c4318404d76b1000173d466,62c5392a51e5e64e9dd01ce4,2022-07-06_09h26.58.168,Colour_Asymmetry_Pilot,2022.1.3,Win32,144.0092166,62c50e9c1127f2cd403a315f,,,,,,,,,,,,,,,,,,,,,,,,,,,,,,,,,,,,,,,,,,,,,,,,,,,,,,,,,,,,,,,,,,,,,,,,,,,,,,,,,,,,,,,,,,,,,,,,,,,,,,,,,,,,,,,,,,,,,,,,,,,,,,,,,,,,,,,,,,,,,,,,,,,,,,,,,,,,,,,,,,,
0,22,22,85,1,,5c4318404d76b1000173d466,62c5392a51e5e64e9dd01ce4,2022-07-06_09h26.58.168,Colour_Asymmetry_Pilot,2022.1.3,Win32,144.0092166,62c50e9c1127f2cd403a315f,,,,,,,,,,,,,,,,,,,,,,,,,,,,,,,,,,,,,,,,,,,,,,,,,,,,,,,,,,,,,,,,,,,,,,,,,,,,,,,,,,,,,,,,,,,,,,,,,,,,,,,,,,,,,,,,,,,,,,,,,,,,,,,,,,,,,,,,,,,,,,,,,,,,,,,,,,,,,,,,,,,
0,23,23,51,1,,5c4318404d76b1000173d466,62c5392a51e5e64e9dd01ce4,2022-07-06_09h26.58.168,Colour_Asymmetry_Pilot,2022.1.3,Win32,144.0092166,62c50e9c1127f2cd403a315f,,,,,,,,,,,,,,,,,,,,,,,,,,,,,,,,,,,,,,,,,,,,,,,,,,,,,,,,,,,,,,,,,,,,,,,,,,,,,,,,,,,,,,,,,,,,,,,,,,,,,,,,,,,,,,,,,,,,,,,,,,,,,,,,,,,,,,,,,,,,,,,,,,,,,,,,,,,,,,,,,,,
0,24,24,40,1,,5c4318404d76b1000173d466,62c5392a51e5e64e9dd01ce4,2022-07-06_09h26.58.168,Colour_Asymmetry_Pilot,2022.1.3,Win32,144.0092166,62c50e9c1127f2cd403a315f,,,,,,,,,,,,,,,,,,,,,,,,,,,,,,,,,,,,,,,,,,,,,,,,,,,,,,,,,,,,,,,,,,,,,,,,,,,,,,,,,,,,,,,,,,,,,,,,,,,,,,,,,,,,,,,,,,,,,,,,,,,,,,,,,,,,,,,,,,,,,,,,,,,,,,,,,,,,,,,,,,,
0,25,25,27,1,,5c4318404d76b1000173d466,62c5392a51e5e64e9dd01ce4,2022-07-06_09h26.58.168,Colour_Asymmetry_Pilot,2022.1.3,Win32,144.0092166,62c50e9c1127f2cd403a315f,,,,,,,,,,,,,,,,,,,,,,,,,,,,,,,,,,,,,,,,,,,,,,,,,,,,,,,,,,,,,,,,,,,,,,,,,,,,,,,,,,,,,,,,,,,,,,,,,,,,,,,,,,,,,,,,,,,,,,,,,,,,,,,,,,,,,,,,,,,,,,,,,,,,,,,,,,,,,,,,,,,
0,26,26,31,1,,5c4318404d76b1000173d466,62c5392a51e5e64e9dd01ce4,2022-07-06_09h26.58.168,Colour_Asymmetry_Pilot,2022.1.3,Win32,144.0092166,62c50e9c1127f2cd403a315f,,,,,,,,,,,,,,,,,,,,,,,,,,,,,,,,,,,,,,,,,,,,,,,,,,,,,,,,,,,,,,,,,,,,,,,,,,,,,,,,,,,,,,,,,,,,,,,,,,,,,,,,,,,,,,,,,,,,,,,,,,,,,,,,,,,,,,,,,,,,,,,,,,,,,,,,,,,,,,,,,,,
0,27,27,76,1,,5c4318404d76b1000173d466,62c5392a51e5e64e9dd01ce4,2022-07-06_09h26.58.168,Colour_Asymmetry_Pilot,2022.1.3,Win32,144.0092166,62c50e9c1127f2cd403a315f,,,,,,,,,,,,,,,,,,,,,,,,,,,,,,,,,,,,,,,,,,,,,,,,,,,,,,,,,,,,,,,,,,,,,,,,,,,,,,,,,,,,,,,,,,,,,,,,,,,,,,,,,,,,,,,,,,,,,,,,,,,,,,,,,,,,,,,,,,,,,,,,,,,,,,,,,,,,,,,,,,,
0,28,28,82,1,,5c4318404d76b1000173d466,62c5392a51e5e64e9dd01ce4,2022-07-06_09h26.58.168,Colour_Asymmetry_Pilot,2022.1.3,Win32,144.0092166,62c50e9c1127f2cd403a315f,,,,,,,,,,,,,,,,,,,,,,,,,,,,,,,,,,,,,,,,,,,,,,,,,,,,,,,,,,,,,,,,,,,,,,,,,,,,,,,,,,,,,,,,,,,,,,,,,,,,,,,,,,,,,,,,,,,,,,,,,,,,,,,,,,,,,,,,,,,,,,,,,,,,,,,,,,,,,,,,,,,
0,29,29,73,1,,5c4318404d76b1000173d466,62c5392a51e5e64e9dd01ce4,2022-07-06_09h26.58.168,Colour_Asymmetry_Pilot,2022.1.3,Win32,144.0092166,62c50e9c1127f2cd403a315f,,,,,,,,,,,,,,,,,,,,,,,,,,,,,,,,,,,,,,,,,,,,,,,,,,,,,,,,,,,,,,,,,,,,,,,,,,,,,,,,,,,,,,,,,,,,,,,,,,,,,,,,,,,,,,,,,,,,,,,,,,,,,,,,,,,,,,,,,,,,,,,,,,,,,,,,,,,,,,,,,,,
0,30,30,11,1,,5c4318404d76b1000173d466,62c5392a51e5e64e9dd01ce4,2022-07-06_09h26.58.168,Colour_Asymmetry_Pilot,2022.1.3,Win32,144.0092166,62c50e9c1127f2cd403a315f,,,,,,,,,,,,,,,,,,,,,,,,,,,,,,,,,,,,,,,,,,,,,,,,,,,,,,,,,,,,,,,,,,,,,,,,,,,,,,,,,,,,,,,,,,,,,,,,,,,,,,,,,,,,,,,,,,,,,,,,,,,,,,,,,,,,,,,,,,,,,,,,,,,,,,,,,,,,,,,,,,,
0,31,31,57,1,,5c4318404d76b1000173d466,62c5392a51e5e64e9dd01ce4,2022-07-06_09h26.58.168,Colour_Asymmetry_Pilot,2022.1.3,Win32,144.0092166,62c50e9c1127f2cd403a315f,,,,,,,,,,,,,,,,,,,,,,,,,,,,,,,,,,,,,,,,,,,,,,,,,,,,,,,,,,,,,,,,,,,,,,,,,,,,,,,,,,,,,,,,,,,,,,,,,,,,,,,,,,,,,,,,,,,,,,,,,,,,,,,,,,,,,,,,,,,,,,,,,,,,,,,,,,,,,,,,,,,
0,32,32,61,1,,5c4318404d76b1000173d466,62c5392a51e5e64e9dd01ce4,2022-07-06_09h26.58.168,Colour_Asymmetry_Pilot,2022.1.3,Win32,144.0092166,62c50e9c1127f2cd403a315f,,,,,,,,,,,,,,,,,,,,,,,,,,,,,,,,,,,,,,,,,,,,,,,,,,,,,,,,,,,,,,,,,,,,,,,,,,,,,,,,,,,,,,,,,,,,,,,,,,,,,,,,,,,,,,,,,,,,,,,,,,,,,,,,,,,,,,,,,,,,,,,,,,,,,,,,,,,,,,,,,,,
0,33,33,50,1,,5c4318404d76b1000173d466,62c5392a51e5e64e9dd01ce4,2022-07-06_09h26.58.168,Colour_Asymmetry_Pilot,2022.1.3,Win32,144.0092166,62c50e9c1127f2cd403a315f,,,,,,,,,,,,,,,,,,,,,,,,,,,,,,,,,,,,,,,,,,,,,,,,,,,,,,,,,,,,,,,,,,,,,,,,,,,,,,,,,,,,,,,,,,,,,,,,,,,,,,,,,,,,,,,,,,,,,,,,,,,,,,,,,,,,,,,,,,,,,,,,,,,,,,,,,,,,,,,,,,,
0,34,34,58,1,,5c4318404d76b1000173d466,62c5392a51e5e64e9dd01ce4,2022-07-06_09h26.58.168,Colour_Asymmetry_Pilot,2022.1.3,Win32,144.0092166,62c50e9c1127f2cd403a315f,,,,,,,,,,,,,,,,,,,,,,,,,,,,,,,,,,,,,,,,,,,,,,,,,,,,,,,,,,,,,,,,,,,,,,,,,,,,,,,,,,,,,,,,,,,,,,,,,,,,,,,,,,,,,,,,,,,,,,,,,,,,,,,,,,,,,,,,,,,,,,,,,,,,,,,,,,,,,,,,,,,
0,35,35,5,1,,5c4318404d76b1000173d466,62c5392a51e5e64e9dd01ce4,2022-07-06_09h26.58.168,Colour_Asymmetry_Pilot,2022.1.3,Win32,144.0092166,62c50e9c1127f2cd403a315f,,,,,,,,,,,,,,,,,,,,,,,,,,,,,,,,,,,,,,,,,,,,,,,,,,,,,,,,,,,,,,,,,,,,,,,,,,,,,,,,,,,,,,,,,,,,,,,,,,,,,,,,,,,,,,,,,,,,,,,,,,,,,,,,,,,,,,,,,,,,,,,,,,,,,,,,,,,,,,,,,,,
0,36,36,22,1,,5c4318404d76b1000173d466,62c5392a51e5e64e9dd01ce4,2022-07-06_09h26.58.168,Colour_Asymmetry_Pilot,2022.1.3,Win32,144.0092166,62c50e9c1127f2cd403a315f,,,,,,,,,,,,,,,,,,,,,,,,,,,,,,,,,,,,,,,,,,,,,,,,,,,,,,,,,,,,,,,,,,,,,,,,,,,,,,,,,,,,,,,,,,,,,,,,,,,,,,,,,,,,,,,,,,,,,,,,,,,,,,,,,,,,,,,,,,,,,,,,,,,,,,,,,,,,,,,,,,,
0,37,37,92,1,,5c4318404d76b1000173d466,62c5392a51e5e64e9dd01ce4,2022-07-06_09h26.58.168,Colour_Asymmetry_Pilot,2022.1.3,Win32,144.0092166,62c50e9c1127f2cd403a315f,,,,,,,,,,,,,,,,,,,,,,,,,,,,,,,,,,,,,,,,,,,,,,,,,,,,,,,,,,,,,,,,,,,,,,,,,,,,,,,,,,,,,,,,,,,,,,,,,,,,,,,,,,,,,,,,,,,,,,,,,,,,,,,,,,,,,,,,,,,,,,,,,,,,,,,,,,,,,,,,,,,
0,38,38,7,1,,5c4318404d76b1000173d466,62c5392a51e5e64e9dd01ce4,2022-07-06_09h26.58.168,Colour_Asymmetry_Pilot,2022.1.3,Win32,144.0092166,62c50e9c1127f2cd403a315f,,,,,,,,,,,,,,,,,,,,,,,,,,,,,,,,,,,,,,,,,,,,,,,,,,,,,,,,,,,,,,,,,,,,,,,,,,,,,,,,,,,,,,,,,,,,,,,,,,,,,,,,,,,,,,,,,,,,,,,,,,,,,,,,,,,,,,,,,,,,,,,,,,,,,,,,,,,,,,,,,,,
0,39,39,77,1,,5c4318404d76b1000173d466,62c5392a51e5e64e9dd01ce4,2022-07-06_09h26.58.168,Colour_Asymmetry_Pilot,2022.1.3,Win32,144.0092166,62c50e9c1127f2cd403a315f,,,,,,,,,,,,,,,,,,,,,,,,,,,,,,,,,,,,,,,,,,,,,,,,,,,,,,,,,,,,,,,,,,,,,,,,,,,,,,,,,,,,,,,,,,,,,,,,,,,,,,,,,,,,,,,,,,,,,,,,,,,,,,,,,,,,,,,,,,,,,,,,,,,,,,,,,,,,,,,,,,,
0,40,40,21,1,,5c4318404d76b1000173d466,62c5392a51e5e64e9dd01ce4,2022-07-06_09h26.58.168,Colour_Asymmetry_Pilot,2022.1.3,Win32,144.0092166,62c50e9c1127f2cd403a315f,,,,,,,,,,,,,,,,,,,,,,,,,,,,,,,,,,,,,,,,,,,,,,,,,,,,,,,,,,,,,,,,,,,,,,,,,,,,,,,,,,,,,,,,,,,,,,,,,,,,,,,,,,,,,,,,,,,,,,,,,,,,,,,,,,,,,,,,,,,,,,,,,,,,,,,,,,,,,,,,,,,
0,41,41,39,1,,5c4318404d76b1000173d466,62c5392a51e5e64e9dd01ce4,2022-07-06_09h26.58.168,Colour_Asymmetry_Pilot,2022.1.3,Win32,144.0092166,62c50e9c1127f2cd403a315f,,,,,,,,,,,,,,,,,,,,,,,,,,,,,,,,,,,,,,,,,,,,,,,,,,,,,,,,,,,,,,,,,,,,,,,,,,,,,,,,,,,,,,,,,,,,,,,,,,,,,,,,,,,,,,,,,,,,,,,,,,,,,,,,,,,,,,,,,,,,,,,,,,,,,,,,,,,,,,,,,,,
0,42,42,68,1,,5c4318404d76b1000173d466,62c5392a51e5e64e9dd01ce4,2022-07-06_09h26.58.168,Colour_Asymmetry_Pilot,2022.1.3,Win32,144.0092166,62c50e9c1127f2cd403a315f,,,,,,,,,,,,,,,,,,,,,,,,,,,,,,,,,,,,,,,,,,,,,,,,,,,,,,,,,,,,,,,,,,,,,,,,,,,,,,,,,,,,,,,,,,,,,,,,,,,,,,,,,,,,,,,,,,,,,,,,,,,,,,,,,,,,,,,,,,,,,,,,,,,,,,,,,,,,,,,,,,,
0,43,43,42,1,,5c4318404d76b1000173d466,62c5392a51e5e64e9dd01ce4,2022-07-06_09h26.58.168,Colour_Asymmetry_Pilot,2022.1.3,Win32,144.0092166,62c50e9c1127f2cd403a315f,,,,,,,,,,,,,,,,,,,,,,,,,,,,,,,,,,,,,,,,,,,,,,,,,,,,,,,,,,,,,,,,,,,,,,,,,,,,,,,,,,,,,,,,,,,,,,,,,,,,,,,,,,,,,,,,,,,,,,,,,,,,,,,,,,,,,,,,,,,,,,,,,,,,,,,,,,,,,,,,,,,
0,44,44,1,1,,5c4318404d76b1000173d466,62c5392a51e5e64e9dd01ce4,2022-07-06_09h26.58.168,Colour_Asymmetry_Pilot,2022.1.3,Win32,144.0092166,62c50e9c1127f2cd403a315f,,,,,,,,,,,,,,,,,,,,,,,,,,,,,,,,,,,,,,,,,,,,,,,,,,,,,,,,,,,,,,,,,,,,,,,,,,,,,,,,,,,,,,,,,,,,,,,,,,,,,,,,,,,,,,,,,,,,,,,,,,,,,,,,,,,,,,,,,,,,,,,,,,,,,,,,,,,,,,,,,,,
0,45,45,9,1,,5c4318404d76b1000173d466,62c5392a51e5e64e9dd01ce4,2022-07-06_09h26.58.168,Colour_Asymmetry_Pilot,2022.1.3,Win32,144.0092166,62c50e9c1127f2cd403a315f,,,,,,,,,,,,,,,,,,,,,,,,,,,,,,,,,,,,,,,,,,,,,,,,,,,,,,,,,,,,,,,,,,,,,,,,,,,,,,,,,,,,,,,,,,,,,,,,,,,,,,,,,,,,,,,,,,,,,,,,,,,,,,,,,,,,,,,,,,,,,,,,,,,,,,,,,,,,,,,,,,,
0,46,46,19,1,,5c4318404d76b1000173d466,62c5392a51e5e64e9dd01ce4,2022-07-06_09h26.58.168,Colour_Asymmetry_Pilot,2022.1.3,Win32,144.0092166,62c50e9c1127f2cd403a315f,,,,,,,,,,,,,,,,,,,,,,,,,,,,,,,,,,,,,,,,,,,,,,,,,,,,,,,,,,,,,,,,,,,,,,,,,,,,,,,,,,,,,,,,,,,,,,,,,,,,,,,,,,,,,,,,,,,,,,,,,,,,,,,,,,,,,,,,,,,,,,,,,,,,,,,,,,,,,,,,,,,
0,47,47,34,1,,5c4318404d76b1000173d466,62c5392a51e5e64e9dd01ce4,2022-07-06_09h26.58.168,Colour_Asymmetry_Pilot,2022.1.3,Win32,144.0092166,62c50e9c1127f2cd403a315f,,,,,,,,,,,,,,,,,,,,,,,,,,,,,,,,,,,,,,,,,,,,,,,,,,,,,,,,,,,,,,,,,,,,,,,,,,,,,,,,,,,,,,,,,,,,,,,,,,,,,,,,,,,,,,,,,,,,,,,,,,,,,,,,,,,,,,,,,,,,,,,,,,,,,,,,,,,,,,,,,,,
0,48,48,83,1,,5c4318404d76b1000173d466,62c5392a51e5e64e9dd01ce4,2022-07-06_09h26.58.168,Colour_Asymmetry_Pilot,2022.1.3,Win32,144.0092166,62c50e9c1127f2cd403a315f,,,,,,,,,,,,,,,,,,,,,,,,,,,,,,,,,,,,,,,,,,,,,,,,,,,,,,,,,,,,,,,,,,,,,,,,,,,,,,,,,,,,,,,,,,,,,,,,,,,,,,,,,,,,,,,,,,,,,,,,,,,,,,,,,,,,,,,,,,,,,,,,,,,,,,,,,,,,,,,,,,,
0,49,49,32,1,,5c4318404d76b1000173d466,62c5392a51e5e64e9dd01ce4,2022-07-06_09h26.58.168,Colour_Asymmetry_Pilot,2022.1.3,Win32,144.0092166,62c50e9c1127f2cd403a315f,,,,,,,,,,,,,,,,,,,,,,,,,,,,,,,,,,,,,,,,,,,,,,,,,,,,,,,,,,,,,,,,,,,,,,,,,,,,,,,,,,,,,,,,,,,,,,,,,,,,,,,,,,,,,,,,,,,,,,,,,,,,,,,,,,,,,,,,,,,,,,,,,,,,,,,,,,,,,,,,,,,
0,50,50,64,1,,5c4318404d76b1000173d466,62c5392a51e5e64e9dd01ce4,2022-07-06_09h26.58.168,Colour_Asymmetry_Pilot,2022.1.3,Win32,144.0092166,62c50e9c1127f2cd403a315f,,,,,,,,,,,,,,,,,,,,,,,,,,,,,,,,,,,,,,,,,,,,,,,,,,,,,,,,,,,,,,,,,,,,,,,,,,,,,,,,,,,,,,,,,,,,,,,,,,,,,,,,,,,,,,,,,,,,,,,,,,,,,,,,,,,,,,,,,,,,,,,,,,,,,,,,,,,,,,,,,,,
0,51,51,74,1,,5c4318404d76b1000173d466,62c5392a51e5e64e9dd01ce4,2022-07-06_09h26.58.168,Colour_Asymmetry_Pilot,2022.1.3,Win32,144.0092166,62c50e9c1127f2cd403a315f,,,,,,,,,,,,,,,,,,,,,,,,,,,,,,,,,,,,,,,,,,,,,,,,,,,,,,,,,,,,,,,,,,,,,,,,,,,,,,,,,,,,,,,,,,,,,,,,,,,,,,,,,,,,,,,,,,,,,,,,,,,,,,,,,,,,,,,,,,,,,,,,,,,,,,,,,,,,,,,,,,,
0,52,52,20,1,,5c4318404d76b1000173d466,62c5392a51e5e64e9dd01ce4,2022-07-06_09h26.58.168,Colour_Asymmetry_Pilot,2022.1.3,Win32,144.0092166,62c50e9c1127f2cd403a315f,,,,,,,,,,,,,,,,,,,,,,,,,,,,,,,,,,,,,,,,,,,,,,,,,,,,,,,,,,,,,,,,,,,,,,,,,,,,,,,,,,,,,,,,,,,,,,,,,,,,,,,,,,,,,,,,,,,,,,,,,,,,,,,,,,,,,,,,,,,,,,,,,,,,,,,,,,,,,,,,,,,
0,53,53,72,1,,5c4318404d76b1000173d466,62c5392a51e5e64e9dd01ce4,2022-07-06_09h26.58.168,Colour_Asymmetry_Pilot,2022.1.3,Win32,144.0092166,62c50e9c1127f2cd403a315f,,,,,,,,,,,,,,,,,,,,,,,,,,,,,,,,,,,,,,,,,,,,,,,,,,,,,,,,,,,,,,,,,,,,,,,,,,,,,,,,,,,,,,,,,,,,,,,,,,,,,,,,,,,,,,,,,,,,,,,,,,,,,,,,,,,,,,,,,,,,,,,,,,,,,,,,,,,,,,,,,,,
0,54,54,87,1,,5c4318404d76b1000173d466,62c5392a51e5e64e9dd01ce4,2022-07-06_09h26.58.168,Colour_Asymmetry_Pilot,2022.1.3,Win32,144.0092166,62c50e9c1127f2cd403a315f,,,,,,,,,,,,,,,,,,,,,,,,,,,,,,,,,,,,,,,,,,,,,,,,,,,,,,,,,,,,,,,,,,,,,,,,,,,,,,,,,,,,,,,,,,,,,,,,,,,,,,,,,,,,,,,,,,,,,,,,,,,,,,,,,,,,,,,,,,,,,,,,,,,,,,,,,,,,,,,,,,,
0,55,55,14,1,,5c4318404d76b1000173d466,62c5392a51e5e64e9dd01ce4,2022-07-06_09h26.58.168,Colour_Asymmetry_Pilot,2022.1.3,Win32,144.0092166,62c50e9c1127f2cd403a315f,,,,,,,,,,,,,,,,,,,,,,,,,,,,,,,,,,,,,,,,,,,,,,,,,,,,,,,,,,,,,,,,,,,,,,,,,,,,,,,,,,,,,,,,,,,,,,,,,,,,,,,,,,,,,,,,,,,,,,,,,,,,,,,,,,,,,,,,,,,,,,,,,,,,,,,,,,,,,,,,,,,
0,56,56,12,1,,5c4318404d76b1000173d466,62c5392a51e5e64e9dd01ce4,2022-07-06_09h26.58.168,Colour_Asymmetry_Pilot,2022.1.3,Win32,144.0092166,62c50e9c1127f2cd403a315f,,,,,,,,,,,,,,,,,,,,,,,,,,,,,,,,,,,,,,,,,,,,,,,,,,,,,,,,,,,,,,,,,,,,,,,,,,,,,,,,,,,,,,,,,,,,,,,,,,,,,,,,,,,,,,,,,,,,,,,,,,,,,,,,,,,,,,,,,,,,,,,,,,,,,,,,,,,,,,,,,,,
0,57,57,62,1,,5c4318404d76b1000173d466,62c5392a51e5e64e9dd01ce4,2022-07-06_09h26.58.168,Colour_Asymmetry_Pilot,2022.1.3,Win32,144.0092166,62c50e9c1127f2cd403a315f,,,,,,,,,,,,,,,,,,,,,,,,,,,,,,,,,,,,,,,,,,,,,,,,,,,,,,,,,,,,,,,,,,,,,,,,,,,,,,,,,,,,,,,,,,,,,,,,,,,,,,,,,,,,,,,,,,,,,,,,,,,,,,,,,,,,,,,,,,,,,,,,,,,,,,,,,,,,,,,,,,,
0,58,58,70,1,,5c4318404d76b1000173d466,62c5392a51e5e64e9dd01ce4,2022-07-06_09h26.58.168,Colour_Asymmetry_Pilot,2022.1.3,Win32,144.0092166,62c50e9c1127f2cd403a315f,,,,,,,,,,,,,,,,,,,,,,,,,,,,,,,,,,,,,,,,,,,,,,,,,,,,,,,,,,,,,,,,,,,,,,,,,,,,,,,,,,,,,,,,,,,,,,,,,,,,,,,,,,,,,,,,,,,,,,,,,,,,,,,,,,,,,,,,,,,,,,,,,,,,,,,,,,,,,,,,,,,
0,59,59,15,1,,5c4318404d76b1000173d466,62c5392a51e5e64e9dd01ce4,2022-07-06_09h26.58.168,Colour_Asymmetry_Pilot,2022.1.3,Win32,144.0092166,62c50e9c1127f2cd403a315f,,,,,,,,,,,,,,,,,,,,,,,,,,,,,,,,,,,,,,,,,,,,,,,,,,,,,,,,,,,,,,,,,,,,,,,,,,,,,,,,,,,,,,,,,,,,,,,,,,,,,,,,,,,,,,,,,,,,,,,,,,,,,,,,,,,,,,,,,,,,,,,,,,,,,,,,,,,,,,,,,,,
0,60,60,49,1,,5c4318404d76b1000173d466,62c5392a51e5e64e9dd01ce4,2022-07-06_09h26.58.168,Colour_Asymmetry_Pilot,2022.1.3,Win32,144.0092166,62c50e9c1127f2cd403a315f,,,,,,,,,,,,,,,,,,,,,,,,,,,,,,,,,,,,,,,,,,,,,,,,,,,,,,,,,,,,,,,,,,,,,,,,,,,,,,,,,,,,,,,,,,,,,,,,,,,,,,,,,,,,,,,,,,,,,,,,,,,,,,,,,,,,,,,,,,,,,,,,,,,,,,,,,,,,,,,,,,,
0,61,61,24,1,,5c4318404d76b1000173d466,62c5392a51e5e64e9dd01ce4,2022-07-06_09h26.58.168,Colour_Asymmetry_Pilot,2022.1.3,Win32,144.0092166,62c50e9c1127f2cd403a315f,,,,,,,,,,,,,,,,,,,,,,,,,,,,,,,,,,,,,,,,,,,,,,,,,,,,,,,,,,,,,,,,,,,,,,,,,,,,,,,,,,,,,,,,,,,,,,,,,,,,,,,,,,,,,,,,,,,,,,,,,,,,,,,,,,,,,,,,,,,,,,,,,,,,,,,,,,,,,,,,,,,
0,62,62,35,1,,5c4318404d76b1000173d466,62c5392a51e5e64e9dd01ce4,2022-07-06_09h26.58.168,Colour_Asymmetry_Pilot,2022.1.3,Win32,144.0092166,62c50e9c1127f2cd403a315f,,,,,,,,,,,,,,,,,,,,,,,,,,,,,,,,,,,,,,,,,,,,,,,,,,,,,,,,,,,,,,,,,,,,,,,,,,,,,,,,,,,,,,,,,,,,,,,,,,,,,,,,,,,,,,,,,,,,,,,,,,,,,,,,,,,,,,,,,,,,,,,,,,,,,,,,,,,,,,,,,,,
0,63,63,56,1,,5c4318404d76b1000173d466,62c5392a51e5e64e9dd01ce4,2022-07-06_09h26.58.168,Colour_Asymmetry_Pilot,2022.1.3,Win32,144.0092166,62c50e9c1127f2cd403a315f,,,,,,,,,,,,,,,,,,,,,,,,,,,,,,,,,,,,,,,,,,,,,,,,,,,,,,,,,,,,,,,,,,,,,,,,,,,,,,,,,,,,,,,,,,,,,,,,,,,,,,,,,,,,,,,,,,,,,,,,,,,,,,,,,,,,,,,,,,,,,,,,,,,,,,,,,,,,,,,,,,,
0,64,64,41,1,,5c4318404d76b1000173d466,62c5392a51e5e64e9dd01ce4,2022-07-06_09h26.58.168,Colour_Asymmetry_Pilot,2022.1.3,Win32,144.0092166,62c50e9c1127f2cd403a315f,,,,,,,,,,,,,,,,,,,,,,,,,,,,,,,,,,,,,,,,,,,,,,,,,,,,,,,,,,,,,,,,,,,,,,,,,,,,,,,,,,,,,,,,,,,,,,,,,,,,,,,,,,,,,,,,,,,,,,,,,,,,,,,,,,,,,,,,,,,,,,,,,,,,,,,,,,,,,,,,,,,
0,65,65,3,1,,5c4318404d76b1000173d466,62c5392a51e5e64e9dd01ce4,2022-07-06_09h26.58.168,Colour_Asymmetry_Pilot,2022.1.3,Win32,144.0092166,62c50e9c1127f2cd403a315f,,,,,,,,,,,,,,,,,,,,,,,,,,,,,,,,,,,,,,,,,,,,,,,,,,,,,,,,,,,,,,,,,,,,,,,,,,,,,,,,,,,,,,,,,,,,,,,,,,,,,,,,,,,,,,,,,,,,,,,,,,,,,,,,,,,,,,,,,,,,,,,,,,,,,,,,,,,,,,,,,,,
0,66,66,2,1,,5c4318404d76b1000173d466,62c5392a51e5e64e9dd01ce4,2022-07-06_09h26.58.168,Colour_Asymmetry_Pilot,2022.1.3,Win32,144.0092166,62c50e9c1127f2cd403a315f,,,,,,,,,,,,,,,,,,,,,,,,,,,,,,,,,,,,,,,,,,,,,,,,,,,,,,,,,,,,,,,,,,,,,,,,,,,,,,,,,,,,,,,,,,,,,,,,,,,,,,,,,,,,,,,,,,,,,,,,,,,,,,,,,,,,,,,,,,,,,,,,,,,,,,,,,,,,,,,,,,,
0,67,67,48,1,,5c4318404d76b1000173d466,62c5392a51e5e64e9dd01ce4,2022-07-06_09h26.58.168,Colour_Asymmetry_Pilot,2022.1.3,Win32,144.0092166,62c50e9c1127f2cd403a315f,,,,,,,,,,,,,,,,,,,,,,,,,,,,,,,,,,,,,,,,,,,,,,,,,,,,,,,,,,,,,,,,,,,,,,,,,,,,,,,,,,,,,,,,,,,,,,,,,,,,,,,,,,,,,,,,,,,,,,,,,,,,,,,,,,,,,,,,,,,,,,,,,,,,,,,,,,,,,,,,,,,
0,68,68,79,1,,5c4318404d76b1000173d466,62c5392a51e5e64e9dd01ce4,2022-07-06_09h26.58.168,Colour_Asymmetry_Pilot,2022.1.3,Win32,144.0092166,62c50e9c1127f2cd403a315f,,,,,,,,,,,,,,,,,,,,,,,,,,,,,,,,,,,,,,,,,,,,,,,,,,,,,,,,,,,,,,,,,,,,,,,,,,,,,,,,,,,,,,,,,,,,,,,,,,,,,,,,,,,,,,,,,,,,,,,,,,,,,,,,,,,,,,,,,,,,,,,,,,,,,,,,,,,,,,,,,,,
0,69,69,59,1,,5c4318404d76b1000173d466,62c5392a51e5e64e9dd01ce4,2022-07-06_09h26.58.168,Colour_Asymmetry_Pilot,2022.1.3,Win32,144.0092166,62c50e9c1127f2cd403a315f,,,,,,,,,,,,,,,,,,,,,,,,,,,,,,,,,,,,,,,,,,,,,,,,,,,,,,,,,,,,,,,,,,,,,,,,,,,,,,,,,,,,,,,,,,,,,,,,,,,,,,,,,,,,,,,,,,,,,,,,,,,,,,,,,,,,,,,,,,,,,,,,,,,,,,,,,,,,,,,,,,,
0,70,70,45,1,,5c4318404d76b1000173d466,62c5392a51e5e64e9dd01ce4,2022-07-06_09h26.58.168,Colour_Asymmetry_Pilot,2022.1.3,Win32,144.0092166,62c50e9c1127f2cd403a315f,,,,,,,,,,,,,,,,,,,,,,,,,,,,,,,,,,,,,,,,,,,,,,,,,,,,,,,,,,,,,,,,,,,,,,,,,,,,,,,,,,,,,,,,,,,,,,,,,,,,,,,,,,,,,,,,,,,,,,,,,,,,,,,,,,,,,,,,,,,,,,,,,,,,,,,,,,,,,,,,,,,
0,71,71,46,1,,5c4318404d76b1000173d466,62c5392a51e5e64e9dd01ce4,2022-07-06_09h26.58.168,Colour_Asymmetry_Pilot,2022.1.3,Win32,144.0092166,62c50e9c1127f2cd403a315f,,,,,,,,,,,,,,,,,,,,,,,,,,,,,,,,,,,,,,,,,,,,,,,,,,,,,,,,,,,,,,,,,,,,,,,,,,,,,,,,,,,,,,,,,,,,,,,,,,,,,,,,,,,,,,,,,,,,,,,,,,,,,,,,,,,,,,,,,,,,,,,,,,,,,,,,,,,,,,,,,,,
0,72,72,10,1,,5c4318404d76b1000173d466,62c5392a51e5e64e9dd01ce4,2022-07-06_09h26.58.168,Colour_Asymmetry_Pilot,2022.1.3,Win32,144.0092166,62c50e9c1127f2cd403a315f,,,,,,,,,,,,,,,,,,,,,,,,,,,,,,,,,,,,,,,,,,,,,,,,,,,,,,,,,,,,,,,,,,,,,,,,,,,,,,,,,,,,,,,,,,,,,,,,,,,,,,,,,,,,,,,,,,,,,,,,,,,,,,,,,,,,,,,,,,,,,,,,,,,,,,,,,,,,,,,,,,,
0,73,73,43,1,,5c4318404d76b1000173d466,62c5392a51e5e64e9dd01ce4,2022-07-06_09h26.58.168,Colour_Asymmetry_Pilot,2022.1.3,Win32,144.0092166,62c50e9c1127f2cd403a315f,,,,,,,,,,,,,,,,,,,,,,,,,,,,,,,,,,,,,,,,,,,,,,,,,,,,,,,,,,,,,,,,,,,,,,,,,,,,,,,,,,,,,,,,,,,,,,,,,,,,,,,,,,,,,,,,,,,,,,,,,,,,,,,,,,,,,,,,,,,,,,,,,,,,,,,,,,,,,,,,,,,
0,74,74,78,1,,5c4318404d76b1000173d466,62c5392a51e5e64e9dd01ce4,2022-07-06_09h26.58.168,Colour_Asymmetry_Pilot,2022.1.3,Win32,144.0092166,62c50e9c1127f2cd403a315f,,,,,,,,,,,,,,,,,,,,,,,,,,,,,,,,,,,,,,,,,,,,,,,,,,,,,,,,,,,,,,,,,,,,,,,,,,,,,,,,,,,,,,,,,,,,,,,,,,,,,,,,,,,,,,,,,,,,,,,,,,,,,,,,,,,,,,,,,,,,,,,,,,,,,,,,,,,,,,,,,,,
0,75,75,71,1,,5c4318404d76b1000173d466,62c5392a51e5e64e9dd01ce4,2022-07-06_09h26.58.168,Colour_Asymmetry_Pilot,2022.1.3,Win32,144.0092166,62c50e9c1127f2cd403a315f,,,,,,,,,,,,,,,,,,,,,,,,,,,,,,,,,,,,,,,,,,,,,,,,,,,,,,,,,,,,,,,,,,,,,,,,,,,,,,,,,,,,,,,,,,,,,,,,,,,,,,,,,,,,,,,,,,,,,,,,,,,,,,,,,,,,,,,,,,,,,,,,,,,,,,,,,,,,,,,,,,,
0,76,76,65,1,,5c4318404d76b1000173d466,62c5392a51e5e64e9dd01ce4,2022-07-06_09h26.58.168,Colour_Asymmetry_Pilot,2022.1.3,Win32,144.0092166,62c50e9c1127f2cd403a315f,,,,,,,,,,,,,,,,,,,,,,,,,,,,,,,,,,,,,,,,,,,,,,,,,,,,,,,,,,,,,,,,,,,,,,,,,,,,,,,,,,,,,,,,,,,,,,,,,,,,,,,,,,,,,,,,,,,,,,,,,,,,,,,,,,,,,,,,,,,,,,,,,,,,,,,,,,,,,,,,,,,
0,77,77,17,1,,5c4318404d76b1000173d466,62c5392a51e5e64e9dd01ce4,2022-07-06_09h26.58.168,Colour_Asymmetry_Pilot,2022.1.3,Win32,144.0092166,62c50e9c1127f2cd403a315f,,,,,,,,,,,,,,,,,,,,,,,,,,,,,,,,,,,,,,,,,,,,,,,,,,,,,,,,,,,,,,,,,,,,,,,,,,,,,,,,,,,,,,,,,,,,,,,,,,,,,,,,,,,,,,,,,,,,,,,,,,,,,,,,,,,,,,,,,,,,,,,,,,,,,,,,,,,,,,,,,,,
0,78,78,84,1,,5c4318404d76b1000173d466,62c5392a51e5e64e9dd01ce4,2022-07-06_09h26.58.168,Colour_Asymmetry_Pilot,2022.1.3,Win32,144.0092166,62c50e9c1127f2cd403a315f,,,,,,,,,,,,,,,,,,,,,,,,,,,,,,,,,,,,,,,,,,,,,,,,,,,,,,,,,,,,,,,,,,,,,,,,,,,,,,,,,,,,,,,,,,,,,,,,,,,,,,,,,,,,,,,,,,,,,,,,,,,,,,,,,,,,,,,,,,,,,,,,,,,,,,,,,,,,,,,,,,,
0,79,79,89,1,,5c4318404d76b1000173d466,62c5392a51e5e64e9dd01ce4,2022-07-06_09h26.58.168,Colour_Asymmetry_Pilot,2022.1.3,Win32,144.0092166,62c50e9c1127f2cd403a315f,,,,,,,,,,,,,,,,,,,,,,,,,,,,,,,,,,,,,,,,,,,,,,,,,,,,,,,,,,,,,,,,,,,,,,,,,,,,,,,,,,,,,,,,,,,,,,,,,,,,,,,,,,,,,,,,,,,,,,,,,,,,,,,,,,,,,,,,,,,,,,,,,,,,,,,,,,,,,,,,,,,
0,80,80,36,1,,5c4318404d76b1000173d466,62c5392a51e5e64e9dd01ce4,2022-07-06_09h26.58.168,Colour_Asymmetry_Pilot,2022.1.3,Win32,144.0092166,62c50e9c1127f2cd403a315f,,,,,,,,,,,,,,,,,,,,,,,,,,,,,,,,,,,,,,,,,,,,,,,,,,,,,,,,,,,,,,,,,,,,,,,,,,,,,,,,,,,,,,,,,,,,,,,,,,,,,,,,,,,,,,,,,,,,,,,,,,,,,,,,,,,,,,,,,,,,,,,,,,,,,,,,,,,,,,,,,,,
0,81,81,4,1,,5c4318404d76b1000173d466,62c5392a51e5e64e9dd01ce4,2022-07-06_09h26.58.168,Colour_Asymmetry_Pilot,2022.1.3,Win32,144.0092166,62c50e9c1127f2cd403a315f,,,,,,,,,,,,,,,,,,,,,,,,,,,,,,,,,,,,,,,,,,,,,,,,,,,,,,,,,,,,,,,,,,,,,,,,,,,,,,,,,,,,,,,,,,,,,,,,,,,,,,,,,,,,,,,,,,,,,,,,,,,,,,,,,,,,,,,,,,,,,,,,,,,,,,,,,,,,,,,,,,,
0,82,82,38,1,,5c4318404d76b1000173d466,62c5392a51e5e64e9dd01ce4,2022-07-06_09h26.58.168,Colour_Asymmetry_Pilot,2022.1.3,Win32,144.0092166,62c50e9c1127f2cd403a315f,,,,,,,,,,,,,,,,,,,,,,,,,,,,,,,,,,,,,,,,,,,,,,,,,,,,,,,,,,,,,,,,,,,,,,,,,,,,,,,,,,,,,,,,,,,,,,,,,,,,,,,,,,,,,,,,,,,,,,,,,,,,,,,,,,,,,,,,,,,,,,,,,,,,,,,,,,,,,,,,,,,
0,83,83,69,1,,5c4318404d76b1000173d466,62c5392a51e5e64e9dd01ce4,2022-07-06_09h26.58.168,Colour_Asymmetry_Pilot,2022.1.3,Win32,144.0092166,62c50e9c1127f2cd403a315f,,,,,,,,,,,,,,,,,,,,,,,,,,,,,,,,,,,,,,,,,,,,,,,,,,,,,,,,,,,,,,,,,,,,,,,,,,,,,,,,,,,,,,,,,,,,,,,,,,,,,,,,,,,,,,,,,,,,,,,,,,,,,,,,,,,,,,,,,,,,,,,,,,,,,,,,,,,,,,,,,,,
0,84,84,13,1,,5c4318404d76b1000173d466,62c5392a51e5e64e9dd01ce4,2022-07-06_09h26.58.168,Colour_Asymmetry_Pilot,2022.1.3,Win32,144.0092166,62c50e9c1127f2cd403a315f,,,,,,,,,,,,,,,,,,,,,,,,,,,,,,,,,,,,,,,,,,,,,,,,,,,,,,,,,,,,,,,,,,,,,,,,,,,,,,,,,,,,,,,,,,,,,,,,,,,,,,,,,,,,,,,,,,,,,,,,,,,,,,,,,,,,,,,,,,,,,,,,,,,,,,,,,,,,,,,,,,,
0,85,85,16,1,,5c4318404d76b1000173d466,62c5392a51e5e64e9dd01ce4,2022-07-06_09h26.58.168,Colour_Asymmetry_Pilot,2022.1.3,Win32,144.0092166,62c50e9c1127f2cd403a315f,,,,,,,,,,,,,,,,,,,,,,,,,,,,,,,,,,,,,,,,,,,,,,,,,,,,,,,,,,,,,,,,,,,,,,,,,,,,,,,,,,,,,,,,,,,,,,,,,,,,,,,,,,,,,,,,,,,,,,,,,,,,,,,,,,,,,,,,,,,,,,,,,,,,,,,,,,,,,,,,,,,
0,86,86,67,1,,5c4318404d76b1000173d466,62c5392a51e5e64e9dd01ce4,2022-07-06_09h26.58.168,Colour_Asymmetry_Pilot,2022.1.3,Win32,144.0092166,62c50e9c1127f2cd403a315f,,,,,,,,,,,,,,,,,,,,,,,,,,,,,,,,,,,,,,,,,,,,,,,,,,,,,,,,,,,,,,,,,,,,,,,,,,,,,,,,,,,,,,,,,,,,,,,,,,,,,,,,,,,,,,,,,,,,,,,,,,,,,,,,,,,,,,,,,,,,,,,,,,,,,,,,,,,,,,,,,,,
0,87,87,8,1,,5c4318404d76b1000173d466,62c5392a51e5e64e9dd01ce4,2022-07-06_09h26.58.168,Colour_Asymmetry_Pilot,2022.1.3,Win32,144.0092166,62c50e9c1127f2cd403a315f,,,,,,,,,,,,,,,,,,,,,,,,,,,,,,,,,,,,,,,,,,,,,,,,,,,,,,,,,,,,,,,,,,,,,,,,,,,,,,,,,,,,,,,,,,,,,,,,,,,,,,,,,,,,,,,,,,,,,,,,,,,,,,,,,,,,,,,,,,,,,,,,,,,,,,,,,,,,,,,,,,,
0,88,88,80,1,,5c4318404d76b1000173d466,62c5392a51e5e64e9dd01ce4,2022-07-06_09h26.58.168,Colour_Asymmetry_Pilot,2022.1.3,Win32,144.0092166,62c50e9c1127f2cd403a315f,,,,,,,,,,,,,,,,,,,,,,,,,,,,,,,,,,,,,,,,,,,,,,,,,,,,,,,,,,,,,,,,,,,,,,,,,,,,,,,,,,,,,,,,,,,,,,,,,,,,,,,,,,,,,,,,,,,,,,,,,,,,,,,,,,,,,,,,,,,,,,,,,,,,,,,,,,,,,,,,,,,
0,89,89,29,1,,5c4318404d76b1000173d466,62c5392a51e5e64e9dd01ce4,2022-07-06_09h26.58.168,Colour_Asymmetry_Pilot,2022.1.3,Win32,144.0092166,62c50e9c1127f2cd403a315f,,,,,,,,,,,,,,,,,,,,,,,,,,,,,,,,,,,,,,,,,,,,,,,,,,,,,,,,,,,,,,,,,,,,,,,,,,,,,,,,,,,,,,,,,,,,,,,,,,,,,,,,,,,,,,,,,,,,,,,,,,,,,,,,,,,,,,,,,,,,,,,,,,,,,,,,,,,,,,,,,,,
0,90,90,0,1,,5c4318404d76b1000173d466,62c5392a51e5e64e9dd01ce4,2022-07-06_09h26.58.168,Colour_Asymmetry_Pilot,2022.1.3,Win32,144.0092166,62c50e9c1127f2cd403a315f,,,,,,,,,,,,,,,,,,,,,,,,,,,,,,,,,,,,,,,,,,,,,,,,,,,,,,,,,,,,,,,,,,,,,,,,,,,,,,,,,,,,,,,,,,,,,,,,,,,,,,,,,,,,,,,,,,,,,,,,,,,,,,,,,,,,,,,,,,,,,,,,,,,,,,,,,,,,,,,,,,,
0,91,91,63,1,,5c4318404d76b1000173d466,62c5392a51e5e64e9dd01ce4,2022-07-06_09h26.58.168,Colour_Asymmetry_Pilot,2022.1.3,Win32,144.0092166,62c50e9c1127f2cd403a315f,,,,,,,,,,,,,,,,,,,,,,,,,,,,,,,,,,,,,,,,,,,,,,,,,,,,,,,,,,,,,,,,,,,,,,,,,,,,,,,,,,,,,,,,,,,,,,,,,,,,,,,,,,,,,,,,,,,,,,,,,,,,,,,,,,,,,,,,,,,,,,,,,,,,,,,,,,,,,,,,,,,
0,92,92,66,1,,5c4318404d76b1000173d466,62c5392a51e5e64e9dd01ce4,2022-07-06_09h26.58.168,Colour_Asymmetry_Pilot,2022.1.3,Win32,144.0092166,62c50e9c1127f2cd403a315f,,,,,,,,,,,,,,,,,,,,,,,,,,,,,,,,,,,,,,,,,,,,,,,,,,,,,,,,,,,,,,,,,,,,,,,,,,,,,,,,,,,,,,,,,,,,,,,,,,,,,,,,,,,,,,,,,,,,,,,,,,,,,,,,,,,,,,,,,,,,,,,,,,,,,,,,,,,,,,,,,,,
,,,,,,5c4318404d76b1000173d466,62c5392a51e5e64e9dd01ce4,2022-07-06_09h26.58.168,Colour_Asymmetry_Pilot,2022.1.3,Win32,144.0092166,62c50e9c1127f2cd403a315f,0,0,0,106,1,twoone,,,,,,,,,,,,,,,,,,,,,,,,,,,,,,,,,,,,,,,,,,,,,,,,,,,,,,,,,,,,,,,,,,,,,,,,,,,,,,,,,,,,,,,,,,,,,,,,,,,,,,,,,,,,,,,,,,,,,,,,,,,,,,,,,,,,,,,,,,,,,,,,,,,,,,,,,,,,,
,,,,,,5c4318404d76b1000173d466,62c5392a51e5e64e9dd01ce4,2022-07-06_09h26.58.168,Colour_Asymmetry_Pilot,2022.1.3,Win32,144.0092166,62c50e9c1127f2cd403a315f,0,1,1,85,1,threefour,,,,,,,,,,,,,,,,,,,,,,,,,,,,,,,,,,,,,,,,,,,,,,,,,,,,,,,,,,,,,,,,,,,,,,,,,,,,,,,,,,,,,,,,,,,,,,,,,,,,,,,,,,,,,,,,,,,,,,,,,,,,,,,,,,,,,,,,,,,,,,,,,,,,,,,,,,,,,
,,,,,,5c4318404d76b1000173d466,62c5392a51e5e64e9dd01ce4,2022-07-06_09h26.58.168,Colour_Asymmetry_Pilot,2022.1.3,Win32,144.0092166,62c50e9c1127f2cd403a315f,0,2,2,140,1,threeone,,,,,,,,,,,,,,,,,,,,,,,,,,,,,,,,,,,,,,,,,,,,,,,,,,,,,,,,,,,,,,,,,,,,,,,,,,,,,,,,,,,,,,,,,,,,,,,,,,,,,,,,,,,,,,,,,,,,,,,,,,,,,,,,,,,,,,,,,,,,,,,,,,,,,,,,,,,,,
,,,,,,5c4318404d76b1000173d466,62c5392a51e5e64e9dd01ce4,2022-07-06_09h26.58.168,Colour_Asymmetry_Pilot,2022.1.3,Win32,144.0092166,62c50e9c1127f2cd403a315f,0,3,3,80,1,onetwo,,,,,,,,,,,,,,,,,,,,,,,,,,,,,,,,,,,,,,,,,,,,,,,,,,,,,,,,,,,,,,,,,,,,,,,,,,,,,,,,,,,,,,,,,,,,,,,,,,,,,,,,,,,,,,,,,,,,,,,,,,,,,,,,,,,,,,,,,,,,,,,,,,,,,,,,,,,,,
,,,,,,5c4318404d76b1000173d466,62c5392a51e5e64e9dd01ce4,2022-07-06_09h26.58.168,Colour_Asymmetry_Pilot,2022.1.3,Win32,144.0092166,62c50e9c1127f2cd403a315f,0,4,4,47,1,fourthree,,,,,,,,,,,,,,,,,,,,,,,,,,,,,,,,,,,,,,,,,,,,,,,,,,,,,,,,,,,,,,,,,,,,,,,,,,,,,,,,,,,,,,,,,,,,,,,,,,,,,,,,,,,,,,,,,,,,,,,,,,,,,,,,,,,,,,,,,,,,,,,,,,,,,,,,,,,,,
,,,,,,5c4318404d76b1000173d466,62c5392a51e5e64e9dd01ce4,2022-07-06_09h26.58.168,Colour_Asymmetry_Pilot,2022.1.3,Win32,144.0092166,62c50e9c1127f2cd403a315f,0,5,5,144,1,onetwo,,,,,,,,,,,,,,,,,,,,,,,,,,,,,,,,,,,,,,,,,,,,,,,,,,,,,,,,,,,,,,,,,,,,,,,,,,,,,,,,,,,,,,,,,,,,,,,,,,,,,,,,,,,,,,,,,,,,,,,,,,,,,,,,,,,,,,,,,,,,,,,,,,,,,,,,,,,,,
,,,,,,5c4318404d76b1000173d466,62c5392a51e5e64e9dd01ce4,2022-07-06_09h26.58.168,Colour_Asymmetry_Pilot,2022.1.3,Win32,144.0092166,62c50e9c1127f2cd403a315f,0,6,6,38,1,fourtwo,,,,,,,,,,,,,,,,,,,,,,,,,,,,,,,,,,,,,,,,,,,,,,,,,,,,,,,,,,,,,,,,,,,,,,,,,,,,,,,,,,,,,,,,,,,,,,,,,,,,,,,,,,,,,,,,,,,,,,,,,,,,,,,,,,,,,,,,,,,,,,,,,,,,,,,,,,,,,
,,,,,,5c4318404d76b1000173d466,62c5392a51e5e64e9dd01ce4,2022-07-06_09h26.58.168,Colour_Asymmetry_Pilot,2022.1.3,Win32,144.0092166,62c50e9c1127f2cd403a315f,0,7,7,63,1,fourthree,,,,,,,,,,,,,,,,,,,,,,,,,,,,,,,,,,,,,,,,,,,,,,,,,,,,,,,,,,,,,,,,,,,,,,,,,,,,,,,,,,,,,,,,,,,,,,,,,,,,,,,,,,,,,,,,,,,,,,,,,,,,,,,,,,,,,,,,,,,,,,,,,,,,,,,,,,,,,
,,,,,,5c4318404d76b1000173d466,62c5392a51e5e64e9dd01ce4,2022-07-06_09h26.58.168,Colour_Asymmetry_Pilot,2022.1.3,Win32,144.0092166,62c50e9c1127f2cd403a315f,0,8,8,123,1,twofour,,,,,,,,,,,,,,,,,,,,,,,,,,,,,,,,,,,,,,,,,,,,,,,,,,,,,,,,,,,,,,,,,,,,,,,,,,,,,,,,,,,,,,,,,,,,,,,,,,,,,,,,,,,,,,,,,,,,,,,,,,,,,,,,,,,,,,,,,,,,,,,,,,,,,,,,,,,,,
,,,,,,5c4318404d76b1000173d466,62c5392a51e5e64e9dd01ce4,2022-07-06_09h26.58.168,Colour_Asymmetry_Pilot,2022.1.3,Win32,144.0092166,62c50e9c1127f2cd403a315f,0,9,9,27,1,twofour,,,,,,,,,,,,,,,,,,,,,,,,,,,,,,,,,,,,,,,,,,,,,,,,,,,,,,,,,,,,,,,,,,,,,,,,,,,,,,,,,,,,,,,,,,,,,,,,,,,,,,,,,,,,,,,,,,,,,,,,,,,,,,,,,,,,,,,,,,,,,,,,,,,,,,,,,,,,,
,,,,,,5c4318404d76b1000173d466,62c5392a51e5e64e9dd01ce4,2022-07-06_09h26.58.168,Colour_Asymmetry_Pilot,2022.1.3,Win32,144.0092166,62c50e9c1127f2cd403a315f,0,10,10,40,1,onetwo,,,,,,,,,,,,,,,,,,,,,,,,,,,,,,,,,,,,,,,,,,,,,,,,,,,,,,,,,,,,,,,,,,,,,,,,,,,,,,,,,,,,,,,,,,,,,,,,,,,,,,,,,,,,,,,,,,,,,,,,,,,,,,,,,,,,,,,,,,,,,,,,,,,,,,,,,,,,,
,,,,,,5c4318404d76b1000173d466,62c5392a51e5e64e9dd01ce4,2022-07-06_09h26.58.168,Colour_Asymmetry_Pilot,2022.1.3,Win32,144.0092166,62c50e9c1127f2cd403a315f,0,11,11,34,1,twoone,,,,,,,,,,,,,,,,,,,,,,,,,,,,,,,,,,,,,,,,,,,,,,,,,,,,,,,,,,,,,,,,,,,,,,,,,,,,,,,,,,,,,,,,,,,,,,,,,,,,,,,,,,,,,,,,,,,,,,,,,,,,,,,,,,,,,,,,,,,,,,,,,,,,,,,,,,,,,
,,,,,,5c4318404d76b1000173d466,62c5392a51e5e64e9dd01ce4,2022-07-06_09h26.58.168,Colour_Asymmetry_Pilot,2022.1.3,Win32,144.0092166,62c50e9c1127f2cd403a315f,0,12,12,121,1,onethree,,,,,,,,,,,,,,,,,,,,,,,,,,,,,,,,,,,,,,,,,,,,,,,,,,,,,,,,,,,,,,,,,,,,,,,,,,,,,,,,,,,,,,,,,,,,,,,,,,,,,,,,,,,,,,,,,,,,,,,,,,,,,,,,,,,,,,,,,,,,,,,,,,,,,,,,,,,,,
,,,,,,5c4318404d76b1000173d466,62c5392a51e5e64e9dd01ce4,2022-07-06_09h26.58.168,Colour_Asymmetry_Pilot,2022.1.3,Win32,144.0092166,62c50e9c1127f2cd403a315f,0,13,13,77,1,threefour,,,,,,,,,,,,,,,,,,,,,,,,,,,,,,,,,,,,,,,,,,,,,,,,,,,,,,,,,,,,,,,,,,,,,,,,,,,,,,,,,,,,,,,,,,,,,,,,,,,,,,,,,,,,,,,,,,,,,,,,,,,,,,,,,,,,,,,,,,,,,,,,,,,,,,,,,,,,,
,,,,,,5c4318404d76b1000173d466,62c5392a51e5e64e9dd01ce4,2022-07-06_09h26.58.168,Colour_Asymmetry_Pilot,2022.1.3,Win32,144.0092166,62c50e9c1127f2cd403a315f,0,14,14,88,1,onetwo,,,,,,,,,,,,,,,,,,,,,,,,,,,,,,,,,,,,,,,,,,,,,,,,,,,,,,,,,,,,,,,,,,,,,,,,,,,,,,,,,,,,,,,,,,,,,,,,,,,,,,,,,,,,,,,,,,,,,,,,,,,,,,,,,,,,,,,,,,,,,,,,,,,,,,,,,,,,,
,,,,,,5c4318404d76b1000173d466,62c5392a51e5e64e9dd01ce4,2022-07-06_09h26.58.168,Colour_Asymmetry_Pilot,2022.1.3,Win32,144.0092166,62c50e9c1127f2cd403a315f,0,15,15,161,1,onethree,,,,,,,,,,,,,,,,,,,,,,,,,,,,,,,,,,,,,,,,,,,,,,,,,,,,,,,,,,,,,,,,,,,,,,,,,,,,,,,,,,,,,,,,,,,,,,,,,,,,,,,,,,,,,,,,,,,,,,,,,,,,,,,,,,,,,,,,,,,,,,,,,,,,,,,,,,,,,
,,,,,,5c4318404d76b1000173d466,62c5392a51e5e64e9dd01ce4,2022-07-06_09h26.58.168,Colour_Asymmetry_Pilot,2022.1.3,Win32,144.0092166,62c50e9c1127f2cd403a315f,0,16,16,19,1,twofour,,,,,,,,,,,,,,,,,,,,,,,,,,,,,,,,,,,,,,,,,,,,,,,,,,,,,,,,,,,,,,,,,,,,,,,,,,,,,,,,,,,,,,,,,,,,,,,,,,,,,,,,,,,,,,,,,,,,,,,,,,,,,,,,,,,,,,,,,,,,,,,,,,,,,,,,,,,,,
,,,,,,5c4318404d76b1000173d466,62c5392a51e5e64e9dd01ce4,2022-07-06_09h26.58.168,Colour_Asymmetry_Pilot,2022.1.3,Win32,144.0092166,62c50e9c1127f2cd403a315f,0,17,17,83,1,twofour,,,,,,,,,,,,,,,,,,,,,,,,,,,,,,,,,,,,,,,,,,,,,,,,,,,,,,,,,,,,,,,,,,,,,,,,,,,,,,,,,,,,,,,,,,,,,,,,,,,,,,,,,,,,,,,,,,,,,,,,,,,,,,,,,,,,,,,,,,,,,,,,,,,,,,,,,,,,,
,,,,,,5c4318404d76b1000173d466,62c5392a51e5e64e9dd01ce4,2022-07-06_09h26.58.168,Colour_Asymmetry_Pilot,2022.1.3,Win32,144.0092166,62c50e9c1127f2cd403a315f,0,18,18,91,1,twofour,,,,,,,,,,,,,,,,,,,,,,,,,,,,,,,,,,,,,,,,,,,,,,,,,,,,,,,,,,,,,,,,,,,,,,,,,,,,,,,,,,,,,,,,,,,,,,,,,,,,,,,,,,,,,,,,,,,,,,,,,,,,,,,,,,,,,,,,,,,,,,,,,,,,,,,,,,,,,
,,,,,,5c4318404d76b1000173d466,62c5392a51e5e64e9dd01ce4,2022-07-06_09h26.58.168,Colour_Asymmetry_Pilot,2022.1.3,Win32,144.0092166,62c50e9c1127f2cd403a315f,0,19,19,159,1,fourthree,,,,,,,,,,,,,,,,,,,,,,,,,,,,,,,,,,,,,,,,,,,,,,,,,,,,,,,,,,,,,,,,,,,,,,,,,,,,,,,,,,,,,,,,,,,,,,,,,,,,,,,,,,,,,,,,,,,,,,,,,,,,,,,,,,,,,,,,,,,,,,,,,,,,,,,,,,,,,
,,,,,,5c4318404d76b1000173d466,62c5392a51e5e64e9dd01ce4,2022-07-06_09h26.58.168,Colour_Asymmetry_Pilot,2022.1.3,Win32,144.0092166,62c50e9c1127f2cd403a315f,0,20,20,102,1,fourtwo,,,,,,,,,,,,,,,,,,,,,,,,,,,,,,,,,,,,,,,,,,,,,,,,,,,,,,,,,,,,,,,,,,,,,,,,,,,,,,,,,,,,,,,,,,,,,,,,,,,,,,,,,,,,,,,,,,,,,,,,,,,,,,,,,,,,,,,,,,,,,,,,,,,,,,,,,,,,,
,,,,,,5c4318404d76b1000173d466,62c5392a51e5e64e9dd01ce4,2022-07-06_09h26.58.168,Colour_Asymmetry_Pilot,2022.1.3,Win32,144.0092166,62c50e9c1127f2cd403a315f,0,21,21,35,1,twofour,,,,,,,,,,,,,,,,,,,,,,,,,,,,,,,,,,,,,,,,,,,,,,,,,,,,,,,,,,,,,,,,,,,,,,,,,,,,,,,,,,,,,,,,,,,,,,,,,,,,,,,,,,,,,,,,,,,,,,,,,,,,,,,,,,,,,,,,,,,,,,,,,,,,,,,,,,,,,
,,,,,,5c4318404d76b1000173d466,62c5392a51e5e64e9dd01ce4,2022-07-06_09h26.58.168,Colour_Asymmetry_Pilot,2022.1.3,Win32,144.0092166,62c50e9c1127f2cd403a315f,0,22,22,118,1,fourtwo,,,,,,,,,,,,,,,,,,,,,,,,,,,,,,,,,,,,,,,,,,,,,,,,,,,,,,,,,,,,,,,,,,,,,,,,,,,,,,,,,,,,,,,,,,,,,,,,,,,,,,,,,,,,,,,,,,,,,,,,,,,,,,,,,,,,,,,,,,,,,,,,,,,,,,,,,,,,,
,,,,,,5c4318404d76b1000173d466,62c5392a51e5e64e9dd01ce4,2022-07-06_09h26.58.168,Colour_Asymmetry_Pilot,2022.1.3,Win32,144.0092166,62c50e9c1127f2cd403a315f,0,23,23,16,1,onetwo,,,,,,,,,,,,,,,,,,,,,,,,,,,,,,,,,,,,,,,,,,,,,,,,,,,,,,,,,,,,,,,,,,,,,,,,,,,,,,,,,,,,,,,,,,,,,,,,,,,,,,,,,,,,,,,,,,,,,,,,,,,,,,,,,,,,,,,,,,,,,,,,,,,,,,,,,,,,,
,,,,,,5c4318404d76b1000173d466,62c5392a51e5e64e9dd01ce4,2022-07-06_09h26.58.168,Colour_Asymmetry_Pilot,2022.1.3,Win32,144.0092166,62c50e9c1127f2cd403a315f,0,24,24,136,1,onetwo,,,,,,,,,,,,,,,,,,,,,,,,,,,,,,,,,,,,,,,,,,,,,,,,,,,,,,,,,,,,,,,,,,,,,,,,,,,,,,,,,,,,,,,,,,,,,,,,,,,,,,,,,,,,,,,,,,,,,,,,,,,,,,,,,,,,,,,,,,,,,,,,,,,,,,,,,,,,,
,,,,,,5c4318404d76b1000173d466,62c5392a51e5e64e9dd01ce4,2022-07-06_09h26.58.168,Colour_Asymmetry_Pilot,2022.1.3,Win32,144.0092166,62c50e9c1127f2cd403a315f,0,25,25,20,1,threeone,,,,,,,,,,,,,,,,,,,,,,,,,,,,,,,,,,,,,,,,,,,,,,,,,,,,,,,,,,,,,,,,,,,,,,,,,,,,,,,,,,,,,,,,,,,,,,,,,,,,,,,,,,,,,,,,,,,,,,,,,,,,,,,,,,,,,,,,,,,,,,,,,,,,,,,,,,,,,
,,,,,,5c4318404d76b1000173d466,62c5392a51e5e64e9dd01ce4,2022-07-06_09h26.58.168,Colour_Asymmetry_Pilot,2022.1.3,Win32,144.0092166,62c50e9c1127f2cd403a315f,0,26,26,29,1,threefour,,,,,,,,,,,,,,,,,,,,,,,,,,,,,,,,,,,,,,,,,,,,,,,,,,,,,,,,,,,,,,,,,,,,,,,,,,,,,,,,,,,,,,,,,,,,,,,,,,,,,,,,,,,,,,,,,,,,,,,,,,,,,,,,,,,,,,,,,,,,,,,,,,,,,,,,,,,,,
,,,,,,5c4318404d76b1000173d466,62c5392a51e5e64e9dd01ce4,2022-07-06_09h26.58.168,Colour_Asymmetry_Pilot,2022.1.3,Win32,144.0092166,62c50e9c1127f2cd403a315f,0,27,27,81,1,onethree,,,,,,,,,,,,,,,,,,,,,,,,,,,,,,,,,,,,,,,,,,,,,,,,,,,,,,,,,,,,,,,,,,,,,,,,,,,,,,,,,,,,,,,,,,,,,,,,,,,,,,,,,,,,,,,,,,,,,,,,,,,,,,,,,,,,,,,,,,,,,,,,,,,,,,,,,,,,,
,,,,,,5c4318404d76b1000173d466,62c5392a51e5e64e9dd01ce4,2022-07-06_09h26.58.168,Colour_Asymmetry_Pilot,2022.1.3,Win32,144.0092166,62c50e9c1127f2cd403a315f,0,28,28,120,1,onetwo,,,,,,,,,,,,,,,,,,,,,,,,,,,,,,,,,,,,,,,,,,,,,,,,,,,,,,,,,,,,,,,,,,,,,,,,,,,,,,,,,,,,,,,,,,,,,,,,,,,,,,,,,,,,,,,,,,,,,,,,,,,,,,,,,,,,,,,,,,,,,,,,,,,,,,,,,,,,,
,,,,,,5c4318404d76b1000173d466,62c5392a51e5e64e9dd01ce4,2022-07-06_09h26.58.168,Colour_Asymmetry_Pilot,2022.1.3,Win32,144.0092166,62c50e9c1127f2cd403a315f,0,29,29,147,1,twofour,,,,,,,,,,,,,,,,,,,,,,,,,,,,,,,,,,,,,,,,,,,,,,,,,,,,,,,,,,,,,,,,,,,,,,,,,,,,,,,,,,,,,,,,,,,,,,,,,,,,,,,,,,,,,,,,,,,,,,,,,,,,,,,,,,,,,,,,,,,,,,,,,,,,,,,,,,,,,
,,,,,,5c4318404d76b1000173d466,62c5392a51e5e64e9dd01ce4,2022-07-06_09h26.58.168,Colour_Asymmetry_Pilot,2022.1.3,Win32,144.0092166,62c50e9c1127f2cd403a315f,0,30,30,44,1,threeone,,,,,,,,,,,,,,,,,,,,,,,,,,,,,,,,,,,,,,,,,,,,,,,,,,,,,,,,,,,,,,,,,,,,,,,,,,,,,,,,,,,,,,,,,,,,,,,,,,,,,,,,,,,,,,,,,,,,,,,,,,,,,,,,,,,,,,,,,,,,,,,,,,,,,,,,,,,,,
,,,,,,5c4318404d76b1000173d466,62c5392a51e5e64e9dd01ce4,2022-07-06_09h26.58.168,Colour_Asymmetry_Pilot,2022.1.3,Win32,144.0092166,62c50e9c1127f2cd403a315f,0,31,31,119,1,fourthree,,,,,,,,,,,,,,,,,,,,,,,,,,,,,,,,,,,,,,,,,,,,,,,,,,,,,,,,,,,,,,,,,,,,,,,,,,,,,,,,,,,,,,,,,,,,,,,,,,,,,,,,,,,,,,,,,,,,,,,,,,,,,,,,,,,,,,,,,,,,,,,,,,,,,,,,,,,,,
,,,,,,5c4318404d76b1000173d466,62c5392a51e5e64e9dd01ce4,2022-07-06_09h26.58.168,Colour_Asymmetry_Pilot,2022.1.3,Win32,144.0092166,62c50e9c1127f2cd403a315f,0,32,32,122,1,twoone,,,,,,,,,,,,,,,,,,,,,,,,,,,,,,,,,,,,,,,,,,,,,,,,,,,,,,,,,,,,,,,,,,,,,,,,,,,,,,,,,,,,,,,,,,,,,,,,,,,,,,,,,,,,,,,,,,,,,,,,,,,,,,,,,,,,,,,,,,,,,,,,,,,,,,,,,,,,,
,,,,,,5c4318404d76b1000173d466,62c5392a51e5e64e9dd01ce4,2022-07-06_09h26.58.168,Colour_Asymmetry_Pilot,2022.1.3,Win32,144.0092166,62c50e9c1127f2cd403a315f,0,33,33,11,1,twofour,,,,,,,,,,,,,,,,,,,,,,,,,,,,,,,,,,,,,,,,,,,,,,,,,,,,,,,,,,,,,,,,,,,,,,,,,,,,,,,,,,,,,,,,,,,,,,,,,,,,,,,,,,,,,,,,,,,,,,,,,,,,,,,,,,,,,,,,,,,,,,,,,,,,,,,,,,,,,
,,,,,,5c4318404d76b1000173d466,62c5392a51e5e64e9dd01ce4,2022-07-06_09h26.58.168,Colour_Asymmetry_Pilot,2022.1.3,Win32,144.0092166,62c50e9c1127f2cd403a315f,0,34,34,56,1,onetwo,,,,,,,,,,,,,,,,,,,,,,,,,,,,,,,,,,,,,,,,,,,,,,,,,,,,,,,,,,,,,,,,,,,,,,,,,,,,,,,,,,,,,,,,,,,,,,,,,,,,,,,,,,,,,,,,,,,,,,,,,,,,,,,,,,,,,,,,,,,,,,,,,,,,,,,,,,,,,
,,,,,,5c4318404d76b1000173d466,62c5392a51e5e64e9dd01ce4,2022-07-06_09h26.58.168,Colour_Asymmetry_Pilot,2022.1.3,Win32,144.0092166,62c50e9c1127f2cd403a315f,0,35,35,0,1,onetwo,,,,,,,,,,,,,,,,,,,,,,,,,,,,,,,,,,,,,,,,,,,,,,,,,,,,,,,,,,,,,,,,,,,,,,,,,,,,,,,,,,,,,,,,,,,,,,,,,,,,,,,,,,,,,,,,,,,,,,,,,,,,,,,,,,,,,,,,,,,,,,,,,,,,,,,,,,,,,
,,,,,,5c4318404d76b1000173d466,62c5392a51e5e64e9dd01ce4,2022-07-06_09h26.58.168,Colour_Asymmetry_Pilot,2022.1.3,Win32,144.0092166,62c50e9c1127f2cd403a315f,0,36,36,139,1,twofour,,,,,,,,,,,,,,,,,,,,,,,,,,,,,,,,,,,,,,,,,,,,,,,,,,,,,,,,,,,,,,,,,,,,,,,,,,,,,,,,,,,,,,,,,,,,,,,,,,,,,,,,,,,,,,,,,,,,,,,,,,,,,,,,,,,,,,,,,,,,,,,,,,,,,,,,,,,,,
,,,,,,5c4318404d76b1000173d466,62c5392a51e5e64e9dd01ce4,2022-07-06_09h26.58.168,Colour_Asymmetry_Pilot,2022.1.3,Win32,144.0092166,62c50e9c1127f2cd403a315f,0,37,37,149,1,threefour,,,,,,,,,,,,,,,,,,,,,,,,,,,,,,,,,,,,,,,,,,,,,,,,,,,,,,,,,,,,,,,,,,,,,,,,,,,,,,,,,,,,,,,,,,,,,,,,,,,,,,,,,,,,,,,,,,,,,,,,,,,,,,,,,,,,,,,,,,,,,,,,,,,,,,,,,,,,,
,,,,,,5c4318404d76b1000173d466,62c5392a51e5e64e9dd01ce4,2022-07-06_09h26.58.168,Colour_Asymmetry_Pilot,2022.1.3,Win32,144.0092166,62c50e9c1127f2cd403a315f,0,38,38,143,1,fourthree,,,,,,,,,,,,,,,,,,,,,,,,,,,,,,,,,,,,,,,,,,,,,,,,,,,,,,,,,,,,,,,,,,,,,,,,,,,,,,,,,,,,,,,,,,,,,,,,,,,,,,,,,,,,,,,,,,,,,,,,,,,,,,,,,,,,,,,,,,,,,,,,,,,,,,,,,,,,,
,,,,,,5c4318404d76b1000173d466,62c5392a51e5e64e9dd01ce4,2022-07-06_09h26.58.168,Colour_Asymmetry_Pilot,2022.1.3,Win32,144.0092166,62c50e9c1127f2cd403a315f,0,39,39,9,1,onethree,,,,,,,,,,,,,,,,,,,,,,,,,,,,,,,,,,,,,,,,,,,,,,,,,,,,,,,,,,,,,,,,,,,,,,,,,,,,,,,,,,,,,,,,,,,,,,,,,,,,,,,,,,,,,,,,,,,,,,,,,,,,,,,,,,,,,,,,,,,,,,,,,,,,,,,,,,,,,
,,,,,,5c4318404d76b1000173d466,62c5392a51e5e64e9dd01ce4,2022-07-06_09h26.58.168,Colour_Asymmetry_Pilot,2022.1.3,Win32,144.0092166,62c50e9c1127f2cd403a315f,0,40,40,74,1,twoone,,,,,,,,,,,,,,,,,,,,,,,,,,,,,,,,,,,,,,,,,,,,,,,,,,,,,,,,,,,,,,,,,,,,,,,,,,,,,,,,,,,,,,,,,,,,,,,,,,,,,,,,,,,,,,,,,,,,,,,,,,,,,,,,,,,,,,,,,,,,,,,,,,,,,,,,,,,,,
,,,,,,5c4318404d76b1000173d466,62c5392a51e5e64e9dd01ce4,2022-07-06_09h26.58.168,Colour_Asymmetry_Pilot,2022.1.3,Win32,144.0092166,62c50e9c1127f2cd403a315f,0,41,41,137,1,onethree,,,,,,,,,,,,,,,,,,,,,,,,,,,,,,,,,,,,,,,,,,,,,,,,,,,,,,,,,,,,,,,,,,,,,,,,,,,,,,,,,,,,,,,,,,,,,,,,,,,,,,,,,,,,,,,,,,,,,,,,,,,,,,,,,,,,,,,,,,,,,,,,,,,,,,,,,,,,,
,,,,,,5c4318404d76b1000173d466,62c5392a51e5e64e9dd01ce4,2022-07-06_09h26.58.168,Colour_Asymmetry_Pilot,2022.1.3,Win32,144.0092166,62c50e9c1127f2cd403a315f,0,42,42,73,1,onethree,,,,,,,,,,,,,,,,,,,,,,,,,,,,,,,,,,,,,,,,,,,,,,,,,,,,,,,,,,,,,,,,,,,,,,,,,,,,,,,,,,,,,,,,,,,,,,,,,,,,,,,,,,,,,,,,,,,,,,,,,,,,,,,,,,,,,,,,,,,,,,,,,,,,,,,,,,,,,
,,,,,,5c4318404d76b1000173d466,62c5392a51e5e64e9dd01ce4,2022-07-06_09h26.58.168,Colour_Asymmetry_Pilot,2022.1.3,Win32,144.0092166,62c50e9c1127f2cd403a315f,0,43,43,69,1,threefour,,,,,,,,,,,,,,,,,,,,,,,,,,,,,,,,,,,,,,,,,,,,,,,,,,,,,,,,,,,,,,,,,,,,,,,,,,,,,,,,,,,,,,,,,,,,,,,,,,,,,,,,,,,,,,,,,,,,,,,,,,,,,,,,,,,,,,,,,,,,,,,,,,,,,,,,,,,,,
,,,,,,5c4318404d76b1000173d466,62c5392a51e5e64e9dd01ce4,2022-07-06_09h26.58.168,Colour_Asymmetry_Pilot,2022.1.3,Win32,144.0092166,62c50e9c1127f2cd403a315f,0,44,44,100,1,threeone,,,,,,,,,,,,,,,,,,,,,,,,,,,,,,,,,,,,,,,,,,,,,,,,,,,,,,,,,,,,,,,,,,,,,,,,,,,,,,,,,,,,,,,,,,,,,,,,,,,,,,,,,,,,,,,,,,,,,,,,,,,,,,,,,,,,,,,,,,,,,,,,,,,,,,,,,,,,,
,,,,,,5c4318404d76b1000173d466,62c5392a51e5e64e9dd01ce4,2022-07-06_09h26.58.168,Colour_Asymmetry_Pilot,2022.1.3,Win32,144.0092166,62c50e9c1127f2cd403a315f,0,45,45,154,1,twoone,,,,,,,,,,,,,,,,,,,,,,,,,,,,,,,,,,,,,,,,,,,,,,,,,,,,,,,,,,,,,,,,,,,,,,,,,,,,,,,,,,,,,,,,,,,,,,,,,,,,,,,,,,,,,,,,,,,,,,,,,,,,,,,,,,,,,,,,,,,,,,,,,,,,,,,,,,,,,
,,,,,,5c4318404d76b1000173d466,62c5392a51e5e64e9dd01ce4,2022-07-06_09h26.58.168,Colour_Asymmetry_Pilot,2022.1.3,Win32,144.0092166,62c50e9c1127f2cd403a315f,0,46,46,158,1,fourtwo,,,,,,,,,,,,,,,,,,,,,,,,,,,,,,,,,,,,,,,,,,,,,,,,,,,,,,,,,,,,,,,,,,,,,,,,,,,,,,,,,,,,,,,,,,,,,,,,,,,,,,,,,,,,,,,,,,,,,,,,,,,,,,,,,,,,,,,,,,,,,,,,,,,,,,,,,,,,,
,,,,,,5c4318404d76b1000173d466,62c5392a51e5e64e9dd01ce4,2022-07-06_09h26.58.168,Colour_Asymmetry_Pilot,2022.1.3,Win32,144.0092166,62c50e9c1127f2cd403a315f,0,47,47,107,1,twofour,,,,,,,,,,,,,,,,,,,,,,,,,,,,,,,,,,,,,,,,,,,,,,,,,,,,,,,,,,,,,,,,,,,,,,,,,,,,,,,,,,,,,,,,,,,,,,,,,,,,,,,,,,,,,,,,,,,,,,,,,,,,,,,,,,,,,,,,,,,,,,,,,,,,,,,,,,,,,
,,,,,,5c4318404d76b1000173d466,62c5392a51e5e64e9dd01ce4,2022-07-06_09h26.58.168,Colour_Asymmetry_Pilot,2022.1.3,Win32,144.0092166,62c50e9c1127f2cd403a315f,0,48,48,145,1,onethree,,,,,,,,,,,,,,,,,,,,,,,,,,,,,,,,,,,,,,,,,,,,,,,,,,,,,,,,,,,,,,,,,,,,,,,,,,,,,,,,,,,,,,,,,,,,,,,,,,,,,,,,,,,,,,,,,,,,,,,,,,,,,,,,,,,,,,,,,,,,,,,,,,,,,,,,,,,,,
,,,,,,5c4318404d76b1000173d466,62c5392a51e5e64e9dd01ce4,2022-07-06_09h26.58.168,Colour_Asymmetry_Pilot,2022.1.3,Win32,144.0092166,62c50e9c1127f2cd403a315f,0,49,49,71,1,fourthree,,,,,,,,,,,,,,,,,,,,,,,,,,,,,,,,,,,,,,,,,,,,,,,,,,,,,,,,,,,,,,,,,,,,,,,,,,,,,,,,,,,,,,,,,,,,,,,,,,,,,,,,,,,,,,,,,,,,,,,,,,,,,,,,,,,,,,,,,,,,,,,,,,,,,,,,,,,,,
,,,,,,5c4318404d76b1000173d466,62c5392a51e5e64e9dd01ce4,2022-07-06_09h26.58.168,Colour_Asymmetry_Pilot,2022.1.3,Win32,144.0092166,62c50e9c1127f2cd403a315f,0,50,50,23,1,fourthree,,,,,,,,,,,,,,,,,,,,,,,,,,,,,,,,,,,,,,,,,,,,,,,,,,,,,,,,,,,,,,,,,,,,,,,,,,,,,,,,,,,,,,,,,,,,,,,,,,,,,,,,,,,,,,,,,,,,,,,,,,,,,,,,,,,,,,,,,,,,,,,,,,,,,,,,,,,,,
,,,,,,5c4318404d76b1000173d466,62c5392a51e5e64e9dd01ce4,2022-07-06_09h26.58.168,Colour_Asymmetry_Pilot,2022.1.3,Win32,144.0092166,62c50e9c1127f2cd403a315f,0,51,51,36,1,threeone,,,,,,,,,,,,,,,,,,,,,,,,,,,,,,,,,,,,,,,,,,,,,,,,,,,,,,,,,,,,,,,,,,,,,,,,,,,,,,,,,,,,,,,,,,,,,,,,,,,,,,,,,,,,,,,,,,,,,,,,,,,,,,,,,,,,,,,,,,,,,,,,,,,,,,,,,,,,,
,,,,,,5c4318404d76b1000173d466,62c5392a51e5e64e9dd01ce4,2022-07-06_09h26.58.168,Colour_Asymmetry_Pilot,2022.1.3,Win32,144.0092166,62c50e9c1127f2cd403a315f,0,52,52,66,1,twoone,,,,,,,,,,,,,,,,,,,,,,,,,,,,,,,,,,,,,,,,,,,,,,,,,,,,,,,,,,,,,,,,,,,,,,,,,,,,,,,,,,,,,,,,,,,,,,,,,,,,,,,,,,,,,,,,,,,,,,,,,,,,,,,,,,,,,,,,,,,,,,,,,,,,,,,,,,,,,
,,,,,,5c4318404d76b1000173d466,62c5392a51e5e64e9dd01ce4,2022-07-06_09h26.58.168,Colour_Asymmetry_Pilot,2022.1.3,Win32,144.0092166,62c50e9c1127f2cd403a315f,0,53,53,15,1,fourthree,,,,,,,,,,,,,,,,,,,,,,,,,,,,,,,,,,,,,,,,,,,,,,,,,,,,,,,,,,,,,,,,,,,,,,,,,,,,,,,,,,,,,,,,,,,,,,,,,,,,,,,,,,,,,,,,,,,,,,,,,,,,,,,,,,,,,,,,,,,,,,,,,,,,,,,,,,,,,
,,,,,,5c4318404d76b1000173d466,62c5392a51e5e64e9dd01ce4,2022-07-06_09h26.58.168,Colour_Asymmetry_Pilot,2022.1.3,Win32,144.0092166,62c50e9c1127f2cd403a315f,0,54,54,24,1,onetwo,,,,,,,,,,,,,,,,,,,,,,,,,,,,,,,,,,,,,,,,,,,,,,,,,,,,,,,,,,,,,,,,,,,,,,,,,,,,,,,,,,,,,,,,,,,,,,,,,,,,,,,,,,,,,,,,,,,,,,,,,,,,,,,,,,,,,,,,,,,,,,,,,,,,,,,,,,,,,
,,,,,,5c4318404d76b1000173d466,62c5392a51e5e64e9dd01ce4,2022-07-06_09h26.58.168,Colour_Asymmetry_Pilot,2022.1.3,Win32,144.0092166,62c50e9c1127f2cd403a315f,0,55,55,55,1,fourthree,,,,,,,,,,,,,,,,,,,,,,,,,,,,,,,,,,,,,,,,,,,,,,,,,,,,,,,,,,,,,,,,,,,,,,,,,,,,,,,,,,,,,,,,,,,,,,,,,,,,,,,,,,,,,,,,,,,,,,,,,,,,,,,,,,,,,,,,,,,,,,,,,,,,,,,,,,,,,
,,,,,,5c4318404d76b1000173d466,62c5392a51e5e64e9dd01ce4,2022-07-06_09h26.58.168,Colour_Asymmetry_Pilot,2022.1.3,Win32,144.0092166,62c50e9c1127f2cd403a315f,0,56,56,128,1,onetwo,,,,,,,,,,,,,,,,,,,,,,,,,,,,,,,,,,,,,,,,,,,,,,,,,,,,,,,,,,,,,,,,,,,,,,,,,,,,,,,,,,,,,,,,,,,,,,,,,,,,,,,,,,,,,,,,,,,,,,,,,,,,,,,,,,,,,,,,,,,,,,,,,,,,,,,,,,,,,
,,,,,,5c4318404d76b1000173d466,62c5392a51e5e64e9dd01ce4,2022-07-06_09h26.58.168,Colour_Asymmetry_Pilot,2022.1.3,Win32,144.0092166,62c50e9c1127f2cd403a315f,0,57,57,32,1,onetwo,,,,,,,,,,,,,,,,,,,,,,,,,,,,,,,,,,,,,,,,,,,,,,,,,,,,,,,,,,,,,,,,,,,,,,,,,,,,,,,,,,,,,,,,,,,,,,,,,,,,,,,,,,,,,,,,,,,,,,,,,,,,,,,,,,,,,,,,,,,,,,,,,,,,,,,,,,,,,
,,,,,,5c4318404d76b1000173d466,62c5392a51e5e64e9dd01ce4,2022-07-06_09h26.58.168,Colour_Asymmetry_Pilot,2022.1.3,Win32,144.0092166,62c50e9c1127f2cd403a315f,0,58,58,89,1,onethree,,,,,,,,,,,,,,,,,,,,,,,,,,,,,,,,,,,,,,,,,,,,,,,,,,,,,,,,,,,,,,,,,,,,,,,,,,,,,,,,,,,,,,,,,,,,,,,,,,,,,,,,,,,,,,,,,,,,,,,,,,,,,,,,,,,,,,,,,,,,,,,,,,,,,,,,,,,,,
,,,,,,5c4318404d76b1000173d466,62c5392a51e5e64e9dd01ce4,2022-07-06_09h26.58.168,Colour_Asymmetry_Pilot,2022.1.3,Win32,144.0092166,62c50e9c1127f2cd403a315f,0,59,59,52,1,threeone,,,,,,,,,,,,,,,,,,,,,,,,,,,,,,,,,,,,,,,,,,,,,,,,,,,,,,,,,,,,,,,,,,,,,,,,,,,,,,,,,,,,,,,,,,,,,,,,,,,,,,,,,,,,,,,,,,,,,,,,,,,,,,,,,,,,,,,,,,,,,,,,,,,,,,,,,,,,,
,,,,,,5c4318404d76b1000173d466,62c5392a51e5e64e9dd01ce4,2022-07-06_09h26.58.168,Colour_Asymmetry_Pilot,2022.1.3,Win32,144.0092166,62c50e9c1127f2cd403a315f,0,60,60,97,1,onethree,,,,,,,,,,,,,,,,,,,,,,,,,,,,,,,,,,,,,,,,,,,,,,,,,,,,,,,,,,,,,,,,,,,,,,,,,,,,,,,,,,,,,,,,,,,,,,,,,,,,,,,,,,,,,,,,,,,,,,,,,,,,,,,,,,,,,,,,,,,,,,,,,,,,,,,,,,,,,
,,,,,,5c4318404d76b1000173d466,62c5392a51e5e64e9dd01ce4,2022-07-06_09h26.58.168,Colour_Asymmetry_Pilot,2022.1.3,Win32,144.0092166,62c50e9c1127f2cd403a315f,0,61,61,99,1,twofour,,,,,,,,,,,,,,,,,,,,,,,,,,,,,,,,,,,,,,,,,,,,,,,,,,,,,,,,,,,,,,,,,,,,,,,,,,,,,,,,,,,,,,,,,,,,,,,,,,,,,,,,,,,,,,,,,,,,,,,,,,,,,,,,,,,,,,,,,,,,,,,,,,,,,,,,,,,,,
,,,,,,5c4318404d76b1000173d466,62c5392a51e5e64e9dd01ce4,2022-07-06_09h26.58.168,Colour_Asymmetry_Pilot,2022.1.3,Win32,144.0092166,62c50e9c1127f2cd403a315f,0,62,62,131,1,twofour,,,,,,,,,,,,,,,,,,,,,,,,,,,,,,,,,,,,,,,,,,,,,,,,,,,,,,,,,,,,,,,,,,,,,,,,,,,,,,,,,,,,,,,,,,,,,,,,,,,,,,,,,,,,,,,,,,,,,,,,,,,,,,,,,,,,,,,,,,,,,,,,,,,,,,,,,,,,,
,,,,,,5c4318404d76b1000173d466,62c5392a51e5e64e9dd01ce4,2022-07-06_09h26.58.168,Colour_Asymmetry_Pilot,2022.1.3,Win32,144.0092166,62c50e9c1127f2cd403a315f,0,63,63,70,1,fourtwo,,,,,,,,,,,,,,,,,,,,,,,,,,,,,,,,,,,,,,,,,,,,,,,,,,,,,,,,,,,,,,,,,,,,,,,,,,,,,,,,,,,,,,,,,,,,,,,,,,,,,,,,,,,,,,,,,,,,,,,,,,,,,,,,,,,,,,,,,,,,,,,,,,,,,,,,,,,,,
,,,,,,5c4318404d76b1000173d466,62c5392a51e5e64e9dd01ce4,2022-07-06_09h26.58.168,Colour_Asymmetry_Pilot,2022.1.3,Win32,144.0092166,62c50e9c1127f2cd403a315f,0,64,64,61,1,threefour,,,,,,,,,,,,,,,,,,,,,,,,,,,,,,,,,,,,,,,,,,,,,,,,,,,,,,,,,,,,,,,,,,,,,,,,,,,,,,,,,,,,,,,,,,,,,,,,,,,,,,,,,,,,,,,,,,,,,,,,,,,,,,,,,,,,,,,,,,,,,,,,,,,,,,,,,,,,,
,,,,,,5c4318404d76b1000173d466,62c5392a51e5e64e9dd01ce4,2022-07-06_09h26.58.168,Colour_Asymmetry_Pilot,2022.1.3,Win32,144.0092166,62c50e9c1127f2cd403a315f,0,65,65,64,1,onetwo,,,,,,,,,,,,,,,,,,,,,,,,,,,,,,,,,,,,,,,,,,,,,,,,,,,,,,,,,,,,,,,,,,,,,,,,,,,,,,,,,,,,,,,,,,,,,,,,,,,,,,,,,,,,,,,,,,,,,,,,,,,,,,,,,,,,,,,,,,,,,,,,,,,,,,,,,,,,,
,,,,,,5c4318404d76b1000173d466,62c5392a51e5e64e9dd01ce4,2022-07-06_09h26.58.168,Colour_Asymmetry_Pilot,2022.1.3,Win32,144.0092166,62c50e9c1127f2cd403a315f,0,66,66,50,1,twoone,,,,,,,,,,,,,,,,,,,,,,,,,,,,,,,,,,,,,,,,,,,,,,,,,,,,,,,,,,,,,,,,,,,,,,,,,,,,,,,,,,,,,,,,,,,,,,,,,,,,,,,,,,,,,,,,,,,,,,,,,,,,,,,,,,,,,,,,,,,,,,,,,,,,,,,,,,,,,
,,,,,,5c4318404d76b1000173d466,62c5392a51e5e64e9dd01ce4,2022-07-06_09h26.58.168,Colour_Asymmetry_Pilot,2022.1.3,Win32,144.0092166,62c50e9c1127f2cd403a315f,0,67,67,25,1,onethree,,,,,,,,,,,,,,,,,,,,,,,,,,,,,,,,,,,,,,,,,,,,,,,,,,,,,,,,,,,,,,,,,,,,,,,,,,,,,,,,,,,,,,,,,,,,,,,,,,,,,,,,,,,,,,,,,,,,,,,,,,,,,,,,,,,,,,,,,,,,,,,,,,,,,,,,,,,,,
,,,,,,5c4318404d76b1000173d466,62c5392a51e5e64e9dd01ce4,2022-07-06_09h26.58.168,Colour_Asymmetry_Pilot,2022.1.3,Win32,144.0092166,62c50e9c1127f2cd403a315f,0,68,68,67,1,twofour,,,,,,,,,,,,,,,,,,,,,,,,,,,,,,,,,,,,,,,,,,,,,,,,,,,,,,,,,,,,,,,,,,,,,,,,,,,,,,,,,,,,,,,,,,,,,,,,,,,,,,,,,,,,,,,,,,,,,,,,,,,,,,,,,,,,,,,,,,,,,,,,,,,,,,,,,,,,,
,,,,,,5c4318404d76b1000173d466,62c5392a51e5e64e9dd01ce4,2022-07-06_09h26.58.168,Colour_Asymmetry_Pilot,2022.1.3,Win32,144.0092166,62c50e9c1127f2cd403a315f,0,69,69,160,1,onetwo,,,,,,,,,,,,,,,,,,,,,,,,,,,,,,,,,,,,,,,,,,,,,,,,,,,,,,,,,,,,,,,,,,,,,,,,,,,,,,,,,,,,,,,,,,,,,,,,,,,,,,,,,,,,,,,,,,,,,,,,,,,,,,,,,,,,,,,,,,,,,,,,,,,,,,,,,,,,,
,,,,,,5c4318404d76b1000173d466,62c5392a51e5e64e9dd01ce4,2022-07-06_09h26.58.168,Colour_Asymmetry_Pilot,2022.1.3,Win32,144.0092166,62c50e9c1127f2cd403a315f,0,70,70,30,1,fourtwo,,,,,,,,,,,,,,,,,,,,,,,,,,,,,,,,,,,,,,,,,,,,,,,,,,,,,,,,,,,,,,,,,,,,,,,,,,,,,,,,,,,,,,,,,,,,,,,,,,,,,,,,,,,,,,,,,,,,,,,,,,,,,,,,,,,,,,,,,,,,,,,,,,,,,,,,,,,,,
,,,,,,5c4318404d76b1000173d466,62c5392a51e5e64e9dd01ce4,2022-07-06_09h26.58.168,Colour_Asymmetry_Pilot,2022.1.3,Win32,144.0092166,62c50e9c1127f2cd403a315f,0,71,71,108,1,threeone,,,,,,,,,,,,,,,,,,,,,,,,,,,,,,,,,,,,,,,,,,,,,,,,,,,,,,,,,,,,,,,,,,,,,,,,,,,,,,,,,,,,,,,,,,,,,,,,,,,,,,,,,,,,,,,,,,,,,,,,,,,,,,,,,,,,,,,,,,,,,,,,,,,,,,,,,,,,,
,,,,,,5c4318404d76b1000173d466,62c5392a51e5e64e9dd01ce4,2022-07-06_09h26.58.168,Colour_Asymmetry_Pilot,2022.1.3,Win32,144.0092166,62c50e9c1127f2cd403a315f,0,72,72,8,1,onetwo,,,,,,,,,,,,,,,,,,,,,,,,,,,,,,,,,,,,,,,,,,,,,,,,,,,,,,,,,,,,,,,,,,,,,,,,,,,,,,,,,,,,,,,,,,,,,,,,,,,,,,,,,,,,,,,,,,,,,,,,,,,,,,,,,,,,,,,,,,,,,,,,,,,,,,,,,,,,,
,,,,,,5c4318404d76b1000173d466,62c5392a51e5e64e9dd01ce4,2022-07-06_09h26.58.168,Colour_Asymmetry_Pilot,2022.1.3,Win32,144.0092166,62c50e9c1127f2cd403a315f,0,73,73,28,1,threeone,,,,,,,,,,,,,,,,,,,,,,,,,,,,,,,,,,,,,,,,,,,,,,,,,,,,,,,,,,,,,,,,,,,,,,,,,,,,,,,,,,,,,,,,,,,,,,,,,,,,,,,,,,,,,,,,,,,,,,,,,,,,,,,,,,,,,,,,,,,,,,,,,,,,,,,,,,,,,
,,,,,,5c4318404d76b1000173d466,62c5392a51e5e64e9dd01ce4,2022-07-06_09h26.58.168,Colour_Asymmetry_Pilot,2022.1.3,Win32,144.0092166,62c50e9c1127f2cd403a315f,0,74,74,41,1,onethree,,,,,,,,,,,,,,,,,,,,,,,,,,,,,,,,,,,,,,,,,,,,,,,,,,,,,,,,,,,,,,,,,,,,,,,,,,,,,,,,,,,,,,,,,,,,,,,,,,,,,,,,,,,,,,,,,,,,,,,,,,,,,,,,,,,,,,,,,,,,,,,,,,,,,,,,,,,,,
,,,,,,5c4318404d76b1000173d466,62c5392a51e5e64e9dd01ce4,2022-07-06_09h26.58.168,Colour_Asymmetry_Pilot,2022.1.3,Win32,144.0092166,62c50e9c1127f2cd403a315f,0,75,75,42,1,twoone,,,,,,,,,,,,,,,,,,,,,,,,,,,,,,,,,,,,,,,,,,,,,,,,,,,,,,,,,,,,,,,,,,,,,,,,,,,,,,,,,,,,,,,,,,,,,,,,,,,,,,,,,,,,,,,,,,,,,,,,,,,,,,,,,,,,,,,,,,,,,,,,,,,,,,,,,,,,,
,,,,,,5c4318404d76b1000173d466,62c5392a51e5e64e9dd01ce4,2022-07-06_09h26.58.168,Colour_Asymmetry_Pilot,2022.1.3,Win32,144.0092166,62c50e9c1127f2cd403a315f,0,76,76,10,1,twoone,,,,,,,,,,,,,,,,,,,,,,,,,,,,,,,,,,,,,,,,,,,,,,,,,,,,,,,,,,,,,,,,,,,,,,,,,,,,,,,,,,,,,,,,,,,,,,,,,,,,,,,,,,,,,,,,,,,,,,,,,,,,,,,,,,,,,,,,,,,,,,,,,,,,,,,,,,,,,
,,,,,,5c4318404d76b1000173d466,62c5392a51e5e64e9dd01ce4,2022-07-06_09h26.58.168,Colour_Asymmetry_Pilot,2022.1.3,Win32,144.0092166,62c50e9c1127f2cd403a315f,0,77,77,157,1,threefour,,,,,,,,,,,,,,,,,,,,,,,,,,,,,,,,,,,,,,,,,,,,,,,,,,,,,,,,,,,,,,,,,,,,,,,,,,,,,,,,,,,,,,,,,,,,,,,,,,,,,,,,,,,,,,,,,,,,,,,,,,,,,,,,,,,,,,,,,,,,,,,,,,,,,,,,,,,,,
,,,,,,5c4318404d76b1000173d466,62c5392a51e5e64e9dd01ce4,2022-07-06_09h26.58.168,Colour_Asymmetry_Pilot,2022.1.3,Win32,144.0092166,62c50e9c1127f2cd403a315f,0,78,78,98,1,twoone,,,,,,,,,,,,,,,,,,,,,,,,,,,,,,,,,,,,,,,,,,,,,,,,,,,,,,,,,,,,,,,,,,,,,,,,,,,,,,,,,,,,,,,,,,,,,,,,,,,,,,,,,,,,,,,,,,,,,,,,,,,,,,,,,,,,,,,,,,,,,,,,,,,,,,,,,,,,,
,,,,,,5c4318404d76b1000173d466,62c5392a51e5e64e9dd01ce4,2022-07-06_09h26.58.168,Colour_Asymmetry_Pilot,2022.1.3,Win32,144.0092166,62c50e9c1127f2cd403a315f,0,79,79,150,1,fourtwo,,,,,,,,,,,,,,,,,,,,,,,,,,,,,,,,,,,,,,,,,,,,,,,,,,,,,,,,,,,,,,,,,,,,,,,,,,,,,,,,,,,,,,,,,,,,,,,,,,,,,,,,,,,,,,,,,,,,,,,,,,,,,,,,,,,,,,,,,,,,,,,,,,,,,,,,,,,,,
,,,,,,5c4318404d76b1000173d466,62c5392a51e5e64e9dd01ce4,2022-07-06_09h26.58.168,Colour_Asymmetry_Pilot,2022.1.3,Win32,144.0092166,62c50e9c1127f2cd403a315f,0,80,80,112,1,onetwo,,,,,,,,,,,,,,,,,,,,,,,,,,,,,,,,,,,,,,,,,,,,,,,,,,,,,,,,,,,,,,,,,,,,,,,,,,,,,,,,,,,,,,,,,,,,,,,,,,,,,,,,,,,,,,,,,,,,,,,,,,,,,,,,,,,,,,,,,,,,,,,,,,,,,,,,,,,,,
,,,,,,5c4318404d76b1000173d466,62c5392a51e5e64e9dd01ce4,2022-07-06_09h26.58.168,Colour_Asymmetry_Pilot,2022.1.3,Win32,144.0092166,62c50e9c1127f2cd403a315f,0,81,81,155,1,twofour,,,,,,,,,,,,,,,,,,,,,,,,,,,,,,,,,,,,,,,,,,,,,,,,,,,,,,,,,,,,,,,,,,,,,,,,,,,,,,,,,,,,,,,,,,,,,,,,,,,,,,,,,,,,,,,,,,,,,,,,,,,,,,,,,,,,,,,,,,,,,,,,,,,,,,,,,,,,,
,,,,,,5c4318404d76b1000173d466,62c5392a51e5e64e9dd01ce4,2022-07-06_09h26.58.168,Colour_Asymmetry_Pilot,2022.1.3,Win32,144.0092166,62c50e9c1127f2cd403a315f,0,82,82,117,1,threefour,,,,,,,,,,,,,,,,,,,,,,,,,,,,,,,,,,,,,,,,,,,,,,,,,,,,,,,,,,,,,,,,,,,,,,,,,,,,,,,,,,,,,,,,,,,,,,,,,,,,,,,,,,,,,,,,,,,,,,,,,,,,,,,,,,,,,,,,,,,,,,,,,,,,,,,,,,,,,
,,,,,,5c4318404d76b1000173d466,62c5392a51e5e64e9dd01ce4,2022-07-06_09h26.58.168,Colour_Asymmetry_Pilot,2022.1.3,Win32,144.0092166,62c50e9c1127f2cd403a315f,0,83,83,105,1,onethree,,,,,,,,,,,,,,,,,,,,,,,,,,,,,,,,,,,,,,,,,,,,,,,,,,,,,,,,,,,,,,,,,,,,,,,,,,,,,,,,,,,,,,,,,,,,,,,,,,,,,,,,,,,,,,,,,,,,,,,,,,,,,,,,,,,,,,,,,,,,,,,,,,,,,,,,,,,,,
,,,,,,5c4318404d76b1000173d466,62c5392a51e5e64e9dd01ce4,2022-07-06_09h26.58.168,Colour_Asymmetry_Pilot,2022.1.3,Win32,144.0092166,62c50e9c1127f2cd403a315f,0,84,84,78,1,fourtwo,,,,,,,,,,,,,,,,,,,,,,,,,,,,,,,,,,,,,,,,,,,,,,,,,,,,,,,,,,,,,,,,,,,,,,,,,,,,,,,,,,,,,,,,,,,,,,,,,,,,,,,,,,,,,,,,,,,,,,,,,,,,,,,,,,,,,,,,,,,,,,,,,,,,,,,,,,,,,
,,,,,,5c4318404d76b1000173d466,62c5392a51e5e64e9dd01ce4,2022-07-06_09h26.58.168,Colour_Asymmetry_Pilot,2022.1.3,Win32,144.0092166,62c50e9c1127f2cd403a315f,0,85,85,148,1,threeone,,,,,,,,,,,,,,,,,,,,,,,,,,,,,,,,,,,,,,,,,,,,,,,,,,,,,,,,,,,,,,,,,,,,,,,,,,,,,,,,,,,,,,,,,,,,,,,,,,,,,,,,,,,,,,,,,,,,,,,,,,,,,,,,,,,,,,,,,,,,,,,,,,,,,,,,,,,,,
,,,,,,5c4318404d76b1000173d466,62c5392a51e5e64e9dd01ce4,2022-07-06_09h26.58.168,Colour_Asymmetry_Pilot,2022.1.3,Win32,144.0092166,62c50e9c1127f2cd403a315f,0,86,86,33,1,onethree,,,,,,,,,,,,,,,,,,,,,,,,,,,,,,,,,,,,,,,,,,,,,,,,,,,,,,,,,,,,,,,,,,,,,,,,,,,,,,,,,,,,,,,,,,,,,,,,,,,,,,,,,,,,,,,,,,,,,,,,,,,,,,,,,,,,,,,,,,,,,,,,,,,,,,,,,,,,,
,,,,,,5c4318404d76b1000173d466,62c5392a51e5e64e9dd01ce4,2022-07-06_09h26.58.168,Colour_Asymmetry_Pilot,2022.1.3,Win32,144.0092166,62c50e9c1127f2cd403a315f,0,87,87,39,1,fourthree,,,,,,,,,,,,,,,,,,,,,,,,,,,,,,,,,,,,,,,,,,,,,,,,,,,,,,,,,,,,,,,,,,,,,,,,,,,,,,,,,,,,,,,,,,,,,,,,,,,,,,,,,,,,,,,,,,,,,,,,,,,,,,,,,,,,,,,,,,,,,,,,,,,,,,,,,,,,,
,,,,,,5c4318404d76b1000173d466,62c5392a51e5e64e9dd01ce4,2022-07-06_09h26.58.168,Colour_Asymmetry_Pilot,2022.1.3,Win32,144.0092166,62c50e9c1127f2cd403a315f,0,88,88,22,1,fourtwo,,,,,,,,,,,,,,,,,,,,,,,,,,,,,,,,,,,,,,,,,,,,,,,,,,,,,,,,,,,,,,,,,,,,,,,,,,,,,,,,,,,,,,,,,,,,,,,,,,,,,,,,,,,,,,,,,,,,,,,,,,,,,,,,,,,,,,,,,,,,,,,,,,,,,,,,,,,,,
,,,,,,5c4318404d76b1000173d466,62c5392a51e5e64e9dd01ce4,2022-07-06_09h26.58.168,Colour_Asymmetry_Pilot,2022.1.3,Win32,144.0092166,62c50e9c1127f2cd403a315f,0,89,89,134,1,fourtwo,,,,,,,,,,,,,,,,,,,,,,,,,,,,,,,,,,,,,,,,,,,,,,,,,,,,,,,,,,,,,,,,,,,,,,,,,,,,,,,,,,,,,,,,,,,,,,,,,,,,,,,,,,,,,,,,,,,,,,,,,,,,,,,,,,,,,,,,,,,,,,,,,,,,,,,,,,,,,
,,,,,,5c4318404d76b1000173d466,62c5392a51e5e64e9dd01ce4,2022-07-06_09h26.58.168,Colour_Asymmetry_Pilot,2022.1.3,Win32,144.0092166,62c50e9c1127f2cd403a315f,0,90,90,54,1,fourtwo,,,,,,,,,,,,,,,,,,,,,,,,,,,,,,,,,,,,,,,,,,,,,,,,,,,,,,,,,,,,,,,,,,,,,,,,,,,,,,,,,,,,,,,,,,,,,,,,,,,,,,,,,,,,,,,,,,,,,,,,,,,,,,,,,,,,,,,,,,,,,,,,,,,,,,,,,,,,,
,,,,,,5c4318404d76b1000173d466,62c5392a51e5e64e9dd01ce4,2022-07-06_09h26.58.168,Colour_Asymmetry_Pilot,2022.1.3,Win32,144.0092166,62c50e9c1127f2cd403a315f,0,91,91,129,1,onethree,,,,,,,,,,,,,,,,,,,,,,,,,,,,,,,,,,,,,,,,,,,,,,,,,,,,,,,,,,,,,,,,,,,,,,,,,,,,,,,,,,,,,,,,,,,,,,,,,,,,,,,,,,,,,,,,,,,,,,,,,,,,,,,,,,,,,,,,,,,,,,,,,,,,,,,,,,,,,
,,,,,,5c4318404d76b1000173d466,62c5392a51e5e64e9dd01ce4,2022-07-06_09h26.58.168,Colour_Asymmetry_Pilot,2022.1.3,Win32,144.0092166,62c50e9c1127f2cd403a315f,0,92,92,13,1,threefour,,,,,,,,,,,,,,,,,,,,,,,,,,,,,,,,,,,,,,,,,,,,,,,,,,,,,,,,,,,,,,,,,,,,,,,,,,,,,,,,,,,,,,,,,,,,,,,,,,,,,,,,,,,,,,,,,,,,,,,,,,,,,,,,,,,,,,,,,,,,,,,,,,,,,,,,,,,,,
,,,,,,5c4318404d76b1000173d466,62c5392a51e5e64e9dd01ce4,2022-07-06_09h26.58.168,Colour_Asymmetry_Pilot,2022.1.3,Win32,144.0092166,62c50e9c1127f2cd403a315f,0,93,93,146,1,twoone,,,,,,,,,,,,,,,,,,,,,,,,,,,,,,,,,,,,,,,,,,,,,,,,,,,,,,,,,,,,,,,,,,,,,,,,,,,,,,,,,,,,,,,,,,,,,,,,,,,,,,,,,,,,,,,,,,,,,,,,,,,,,,,,,,,,,,,,,,,,,,,,,,,,,,,,,,,,,
,,,,,,5c4318404d76b1000173d466,62c5392a51e5e64e9dd01ce4,2022-07-06_09h26.58.168,Colour_Asymmetry_Pilot,2022.1.3,Win32,144.0092166,62c50e9c1127f2cd403a315f,0,94,94,84,1,threeone,,,,,,,,,,,,,,,,,,,,,,,,,,,,,,,,,,,,,,,,,,,,,,,,,,,,,,,,,,,,,,,,,,,,,,,,,,,,,,,,,,,,,,,,,,,,,,,,,,,,,,,,,,,,,,,,,,,,,,,,,,,,,,,,,,,,,,,,,,,,,,,,,,,,,,,,,,,,,
,,,,,,5c4318404d76b1000173d466,62c5392a51e5e64e9dd01ce4,2022-07-06_09h26.58.168,Colour_Asymmetry_Pilot,2022.1.3,Win32,144.0092166,62c50e9c1127f2cd403a315f,0,95,95,18,1,twoone,,,,,,,,,,,,,,,,,,,,,,,,,,,,,,,,,,,,,,,,,,,,,,,,,,,,,,,,,,,,,,,,,,,,,,,,,,,,,,,,,,,,,,,,,,,,,,,,,,,,,,,,,,,,,,,,,,,,,,,,,,,,,,,,,,,,,,,,,,,,,,,,,,,,,,,,,,,,,
,,,,,,5c4318404d76b1000173d466,62c5392a51e5e64e9dd01ce4,2022-07-06_09h26.58.168,Colour_Asymmetry_Pilot,2022.1.3,Win32,144.0092166,62c50e9c1127f2cd403a315f,0,96,96,65,1,onethree,,,,,,,,,,,,,,,,,,,,,,,,,,,,,,,,,,,,,,,,,,,,,,,,,,,,,,,,,,,,,,,,,,,,,,,,,,,,,,,,,,,,,,,,,,,,,,,,,,,,,,,,,,,,,,,,,,,,,,,,,,,,,,,,,,,,,,,,,,,,,,,,,,,,,,,,,,,,,
,,,,,,5c4318404d76b1000173d466,62c5392a51e5e64e9dd01ce4,2022-07-06_09h26.58.168,Colour_Asymmetry_Pilot,2022.1.3,Win32,144.0092166,62c50e9c1127f2cd403a315f,0,97,97,116,1,threeone,,,,,,,,,,,,,,,,,,,,,,,,,,,,,,,,,,,,,,,,,,,,,,,,,,,,,,,,,,,,,,,,,,,,,,,,,,,,,,,,,,,,,,,,,,,,,,,,,,,,,,,,,,,,,,,,,,,,,,,,,,,,,,,,,,,,,,,,,,,,,,,,,,,,,,,,,,,,,
,,,,,,5c4318404d76b1000173d466,62c5392a51e5e64e9dd01ce4,2022-07-06_09h26.58.168,Colour_Asymmetry_Pilot,2022.1.3,Win32,144.0092166,62c50e9c1127f2cd403a315f,0,98,98,1,1,onethree,,,,,,,,,,,,,,,,,,,,,,,,,,,,,,,,,,,,,,,,,,,,,,,,,,,,,,,,,,,,,,,,,,,,,,,,,,,,,,,,,,,,,,,,,,,,,,,,,,,,,,,,,,,,,,,,,,,,,,,,,,,,,,,,,,,,,,,,,,,,,,,,,,,,,,,,,,,,,
,,,,,,5c4318404d76b1000173d466,62c5392a51e5e64e9dd01ce4,2022-07-06_09h26.58.168,Colour_Asymmetry_Pilot,2022.1.3,Win32,144.0092166,62c50e9c1127f2cd403a315f,0,99,99,126,1,fourtwo,,,,,,,,,,,,,,,,,,,,,,,,,,,,,,,,,,,,,,,,,,,,,,,,,,,,,,,,,,,,,,,,,,,,,,,,,,,,,,,,,,,,,,,,,,,,,,,,,,,,,,,,,,,,,,,,,,,,,,,,,,,,,,,,,,,,,,,,,,,,,,,,,,,,,,,,,,,,,
,,,,,,5c4318404d76b1000173d466,62c5392a51e5e64e9dd01ce4,2022-07-06_09h26.58.168,Colour_Asymmetry_Pilot,2022.1.3,Win32,144.0092166,62c50e9c1127f2cd403a315f,0,100,100,152,1,onetwo,,,,,,,,,,,,,,,,,,,,,,,,,,,,,,,,,,,,,,,,,,,,,,,,,,,,,,,,,,,,,,,,,,,,,,,,,,,,,,,,,,,,,,,,,,,,,,,,,,,,,,,,,,,,,,,,,,,,,,,,,,,,,,,,,,,,,,,,,,,,,,,,,,,,,,,,,,,,,
,,,,,,5c4318404d76b1000173d466,62c5392a51e5e64e9dd01ce4,2022-07-06_09h26.58.168,Colour_Asymmetry_Pilot,2022.1.3,Win32,144.0092166,62c50e9c1127f2cd403a315f,0,101,101,26,1,twoone,,,,,,,,,,,,,,,,,,,,,,,,,,,,,,,,,,,,,,,,,,,,,,,,,,,,,,,,,,,,,,,,,,,,,,,,,,,,,,,,,,,,,,,,,,,,,,,,,,,,,,,,,,,,,,,,,,,,,,,,,,,,,,,,,,,,,,,,,,,,,,,,,,,,,,,,,,,,,
,,,,,,5c4318404d76b1000173d466,62c5392a51e5e64e9dd01ce4,2022-07-06_09h26.58.168,Colour_Asymmetry_Pilot,2022.1.3,Win32,144.0092166,62c50e9c1127f2cd403a315f,0,102,102,72,1,onetwo,,,,,,,,,,,,,,,,,,,,,,,,,,,,,,,,,,,,,,,,,,,,,,,,,,,,,,,,,,,,,,,,,,,,,,,,,,,,,,,,,,,,,,,,,,,,,,,,,,,,,,,,,,,,,,,,,,,,,,,,,,,,,,,,,,,,,,,,,,,,,,,,,,,,,,,,,,,,,
,,,,,,5c4318404d76b1000173d466,62c5392a51e5e64e9dd01ce4,2022-07-06_09h26.58.168,Colour_Asymmetry_Pilot,2022.1.3,Win32,144.0092166,62c50e9c1127f2cd403a315f,0,103,103,124,1,threeone,,,,,,,,,,,,,,,,,,,,,,,,,,,,,,,,,,,,,,,,,,,,,,,,,,,,,,,,,,,,,,,,,,,,,,,,,,,,,,,,,,,,,,,,,,,,,,,,,,,,,,,,,,,,,,,,,,,,,,,,,,,,,,,,,,,,,,,,,,,,,,,,,,,,,,,,,,,,,
,,,,,,5c4318404d76b1000173d466,62c5392a51e5e64e9dd01ce4,2022-07-06_09h26.58.168,Colour_Asymmetry_Pilot,2022.1.3,Win32,144.0092166,62c50e9c1127f2cd403a315f,0,104,104,12,1,threeone,,,,,,,,,,,,,,,,,,,,,,,,,,,,,,,,,,,,,,,,,,,,,,,,,,,,,,,,,,,,,,,,,,,,,,,,,,,,,,,,,,,,,,,,,,,,,,,,,,,,,,,,,,,,,,,,,,,,,,,,,,,,,,,,,,,,,,,,,,,,,,,,,,,,,,,,,,,,,
,,,,,,5c4318404d76b1000173d466,62c5392a51e5e64e9dd01ce4,2022-07-06_09h26.58.168,Colour_Asymmetry_Pilot,2022.1.3,Win32,144.0092166,62c50e9c1127f2cd403a315f,0,105,105,103,1,fourthree,,,,,,,,,,,,,,,,,,,,,,,,,,,,,,,,,,,,,,,,,,,,,,,,,,,,,,,,,,,,,,,,,,,,,,,,,,,,,,,,,,,,,,,,,,,,,,,,,,,,,,,,,,,,,,,,,,,,,,,,,,,,,,,,,,,,,,,,,,,,,,,,,,,,,,,,,,,,,
,,,,,,5c4318404d76b1000173d466,62c5392a51e5e64e9dd01ce4,2022-07-06_09h26.58.168,Colour_Asymmetry_Pilot,2022.1.3,Win32,144.0092166,62c50e9c1127f2cd403a315f,0,106,106,127,1,fourthree,,,,,,,,,,,,,,,,,,,,,,,,,,,,,,,,,,,,,,,,,,,,,,,,,,,,,,,,,,,,,,,,,,,,,,,,,,,,,,,,,,,,,,,,,,,,,,,,,,,,,,,,,,,,,,,,,,,,,,,,,,,,,,,,,,,,,,,,,,,,,,,,,,,,,,,,,,,,,
,,,,,,5c4318404d76b1000173d466,62c5392a51e5e64e9dd01ce4,2022-07-06_09h26.58.168,Colour_Asymmetry_Pilot,2022.1.3,Win32,144.0092166,62c50e9c1127f2cd403a315f,0,107,107,68,1,threeone,,,,,,,,,,,,,,,,,,,,,,,,,,,,,,,,,,,,,,,,,,,,,,,,,,,,,,,,,,,,,,,,,,,,,,,,,,,,,,,,,,,,,,,,,,,,,,,,,,,,,,,,,,,,,,,,,,,,,,,,,,,,,,,,,,,,,,,,,,,,,,,,,,,,,,,,,,,,,
,,,,,,5c4318404d76b1000173d466,62c5392a51e5e64e9dd01ce4,2022-07-06_09h26.58.168,Colour_Asymmetry_Pilot,2022.1.3,Win32,144.0092166,62c50e9c1127f2cd403a315f,0,108,108,58,1,twoone,,,,,,,,,,,,,,,,,,,,,,,,,,,,,,,,,,,,,,,,,,,,,,,,,,,,,,,,,,,,,,,,,,,,,,,,,,,,,,,,,,,,,,,,,,,,,,,,,,,,,,,,,,,,,,,,,,,,,,,,,,,,,,,,,,,,,,,,,,,,,,,,,,,,,,,,,,,,,
,,,,,,5c4318404d76b1000173d466,62c5392a51e5e64e9dd01ce4,2022-07-06_09h26.58.168,Colour_Asymmetry_Pilot,2022.1.3,Win32,144.0092166,62c50e9c1127f2cd403a315f,0,109,109,132,1,threeone,,,,,,,,,,,,,,,,,,,,,,,,,,,,,,,,,,,,,,,,,,,,,,,,,,,,,,,,,,,,,,,,,,,,,,,,,,,,,,,,,,,,,,,,,,,,,,,,,,,,,,,,,,,,,,,,,,,,,,,,,,,,,,,,,,,,,,,,,,,,,,,,,,,,,,,,,,,,,
,,,,,,5c4318404d76b1000173d466,62c5392a51e5e64e9dd01ce4,2022-07-06_09h26.58.168,Colour_Asymmetry_Pilot,2022.1.3,Win32,144.0092166,62c50e9c1127f2cd403a315f,0,110,110,111,1,fourthree,,,,,,,,,,,,,,,,,,,,,,,,,,,,,,,,,,,,,,,,,,,,,,,,,,,,,,,,,,,,,,,,,,,,,,,,,,,,,,,,,,,,,,,,,,,,,,,,,,,,,,,,,,,,,,,,,,,,,,,,,,,,,,,,,,,,,,,,,,,,,,,,,,,,,,,,,,,,,
,,,,,,5c4318404d76b1000173d466,62c5392a51e5e64e9dd01ce4,2022-07-06_09h26.58.168,Colour_Asymmetry_Pilot,2022.1.3,Win32,144.0092166,62c50e9c1127f2cd403a315f,0,111,111,53,1,threefour,,,,,,,,,,,,,,,,,,,,,,,,,,,,,,,,,,,,,,,,,,,,,,,,,,,,,,,,,,,,,,,,,,,,,,,,,,,,,,,,,,,,,,,,,,,,,,,,,,,,,,,,,,,,,,,,,,,,,,,,,,,,,,,,,,,,,,,,,,,,,,,,,,,,,,,,,,,,,
,,,,,,5c4318404d76b1000173d466,62c5392a51e5e64e9dd01ce4,2022-07-06_09h26.58.168,Colour_Asymmetry_Pilot,2022.1.3,Win32,144.0092166,62c50e9c1127f2cd403a315f,0,112,112,43,1,twofour,,,,,,,,,,,,,,,,,,,,,,,,,,,,,,,,,,,,,,,,,,,,,,,,,,,,,,,,,,,,,,,,,,,,,,,,,,,,,,,,,,,,,,,,,,,,,,,,,,,,,,,,,,,,,,,,,,,,,,,,,,,,,,,,,,,,,,,,,,,,,,,,,,,,,,,,,,,,,
,,,,,,5c4318404d76b1000173d466,62c5392a51e5e64e9dd01ce4,2022-07-06_09h26.58.168,Colour_Asymmetry_Pilot,2022.1.3,Win32,144.0092166,62c50e9c1127f2cd403a315f,0,113,113,104,1,onetwo,,,,,,,,,,,,,,,,,,,,,,,,,,,,,,,,,,,,,,,,,,,,,,,,,,,,,,,,,,,,,,,,,,,,,,,,,,,,,,,,,,,,,,,,,,,,,,,,,,,,,,,,,,,,,,,,,,,,,,,,,,,,,,,,,,,,,,,,,,,,,,,,,,,,,,,,,,,,,
,,,,,,5c4318404d76b1000173d466,62c5392a51e5e64e9dd01ce4,2022-07-06_09h26.58.168,Colour_Asymmetry_Pilot,2022.1.3,Win32,144.0092166,62c50e9c1127f2cd403a315f,0,114,114,133,1,threefour,,,,,,,,,,,,,,,,,,,,,,,,,,,,,,,,,,,,,,,,,,,,,,,,,,,,,,,,,,,,,,,,,,,,,,,,,,,,,,,,,,,,,,,,,,,,,,,,,,,,,,,,,,,,,,,,,,,,,,,,,,,,,,,,,,,,,,,,,,,,,,,,,,,,,,,,,,,,,
,,,,,,5c4318404d76b1000173d466,62c5392a51e5e64e9dd01ce4,2022-07-06_09h26.58.168,Colour_Asymmetry_Pilot,2022.1.3,Win32,144.0092166,62c50e9c1127f2cd403a315f,0,115,115,86,1,fourtwo,,,,,,,,,,,,,,,,,,,,,,,,,,,,,,,,,,,,,,,,,,,,,,,,,,,,,,,,,,,,,,,,,,,,,,,,,,,,,,,,,,,,,,,,,,,,,,,,,,,,,,,,,,,,,,,,,,,,,,,,,,,,,,,,,,,,,,,,,,,,,,,,,,,,,,,,,,,,,
,,,,,,5c4318404d76b1000173d466,62c5392a51e5e64e9dd01ce4,2022-07-06_09h26.58.168,Colour_Asymmetry_Pilot,2022.1.3,Win32,144.0092166,62c50e9c1127f2cd403a315f,0,116,116,17,1,onethree,,,,,,,,,,,,,,,,,,,,,,,,,,,,,,,,,,,,,,,,,,,,,,,,,,,,,,,,,,,,,,,,,,,,,,,,,,,,,,,,,,,,,,,,,,,,,,,,,,,,,,,,,,,,,,,,,,,,,,,,,,,,,,,,,,,,,,,,,,,,,,,,,,,,,,,,,,,,,
,,,,,,5c4318404d76b1000173d466,62c5392a51e5e64e9dd01ce4,2022-07-06_09h26.58.168,Colour_Asymmetry_Pilot,2022.1.3,Win32,144.0092166,62c50e9c1127f2cd403a315f,0,117,117,62,1,fourtwo,,,,,,,,,,,,,,,,,,,,,,,,,,,,,,,,,,,,,,,,,,,,,,,,,,,,,,,,,,,,,,,,,,,,,,,,,,,,,,,,,,,,,,,,,,,,,,,,,,,,,,,,,,,,,,,,,,,,,,,,,,,,,,,,,,,,,,,,,,,,,,,,,,,,,,,,,,,,,
,,,,,,5c4318404d76b1000173d466,62c5392a51e5e64e9dd01ce4,2022-07-06_09h26.58.168,Colour_Asymmetry_Pilot,2022.1.3,Win32,144.0092166,62c50e9c1127f2cd403a315f,0,118,118,6,1,fourtwo,,,,,,,,,,,,,,,,,,,,,,,,,,,,,,,,,,,,,,,,,,,,,,,,,,,,,,,,,,,,,,,,,,,,,,,,,,,,,,,,,,,,,,,,,,,,,,,,,,,,,,,,,,,,,,,,,,,,,,,,,,,,,,,,,,,,,,,,,,,,,,,,,,,,,,,,,,,,,
,,,,,,5c4318404d76b1000173d466,62c5392a51e5e64e9dd01ce4,2022-07-06_09h26.58.168,Colour_Asymmetry_Pilot,2022.1.3,Win32,144.0092166,62c50e9c1127f2cd403a315f,0,119,119,96,1,onetwo,,,,,,,,,,,,,,,,,,,,,,,,,,,,,,,,,,,,,,,,,,,,,,,,,,,,,,,,,,,,,,,,,,,,,,,,,,,,,,,,,,,,,,,,,,,,,,,,,,,,,,,,,,,,,,,,,,,,,,,,,,,,,,,,,,,,,,,,,,,,,,,,,,,,,,,,,,,,,
,,,,,,5c4318404d76b1000173d466,62c5392a51e5e64e9dd01ce4,2022-07-06_09h26.58.168,Colour_Asymmetry_Pilot,2022.1.3,Win32,144.0092166,62c50e9c1127f2cd403a315f,0,120,120,156,1,threeone,,,,,,,,,,,,,,,,,,,,,,,,,,,,,,,,,,,,,,,,,,,,,,,,,,,,,,,,,,,,,,,,,,,,,,,,,,,,,,,,,,,,,,,,,,,,,,,,,,,,,,,,,,,,,,,,,,,,,,,,,,,,,,,,,,,,,,,,,,,,,,,,,,,,,,,,,,,,,
,,,,,,5c4318404d76b1000173d466,62c5392a51e5e64e9dd01ce4,2022-07-06_09h26.58.168,Colour_Asymmetry_Pilot,2022.1.3,Win32,144.0092166,62c50e9c1127f2cd403a315f,0,121,121,95,1,fourthree,,,,,,,,,,,,,,,,,,,,,,,,,,,,,,,,,,,,,,,,,,,,,,,,,,,,,,,,,,,,,,,,,,,,,,,,,,,,,,,,,,,,,,,,,,,,,,,,,,,,,,,,,,,,,,,,,,,,,,,,,,,,,,,,,,,,,,,,,,,,,,,,,,,,,,,,,,,,,
,,,,,,5c4318404d76b1000173d466,62c5392a51e5e64e9dd01ce4,2022-07-06_09h26.58.168,Colour_Asymmetry_Pilot,2022.1.3,Win32,144.0092166,62c50e9c1127f2cd403a315f,0,122,122,138,1,twoone,,,,,,,,,,,,,,,,,,,,,,,,,,,,,,,,,,,,,,,,,,,,,,,,,,,,,,,,,,,,,,,,,,,,,,,,,,,,,,,,,,,,,,,,,,,,,,,,,,,,,,,,,,,,,,,,,,,,,,,,,,,,,,,,,,,,,,,,,,,,,,,,,,,,,,,,,,,,,
,,,,,,5c4318404d76b1000173d466,62c5392a51e5e64e9dd01ce4,2022-07-06_09h26.58.168,Colour_Asymmetry_Pilot,2022.1.3,Win32,144.0092166,62c50e9c1127f2cd403a315f,0,123,123,87,1,fourthree,,,,,,,,,,,,,,,,,,,,,,,,,,,,,,,,,,,,,,,,,,,,,,,,,,,,,,,,,,,,,,,,,,,,,,,,,,,,,,,,,,,,,,,,,,,,,,,,,,,,,,,,,,,,,,,,,,,,,,,,,,,,,,,,,,,,,,,,,,,,,,,,,,,,,,,,,,,,,
,,,,,,5c4318404d76b1000173d466,62c5392a51e5e64e9dd01ce4,2022-07-06_09h26.58.168,Colour_Asymmetry_Pilot,2022.1.3,Win32,144.0092166,62c50e9c1127f2cd403a315f,0,124,124,109,1,threefour,,,,,,,,,,,,,,,,,,,,,,,,,,,,,,,,,,,,,,,,,,,,,,,,,,,,,,,,,,,,,,,,,,,,,,,,,,,,,,,,,,,,,,,,,,,,,,,,,,,,,,,,,,,,,,,,,,,,,,,,,,,,,,,,,,,,,,,,,,,,,,,,,,,,,,,,,,,,,
,,,,,,5c4318404d76b1000173d466,62c5392a51e5e64e9dd01ce4,2022-07-06_09h26.58.168,Colour_Asymmetry_Pilot,2022.1.3,Win32,144.0092166,62c50e9c1127f2cd403a315f,0,125,125,48,1,onetwo,,,,,,,,,,,,,,,,,,,,,,,,,,,,,,,,,,,,,,,,,,,,,,,,,,,,,,,,,,,,,,,,,,,,,,,,,,,,,,,,,,,,,,,,,,,,,,,,,,,,,,,,,,,,,,,,,,,,,,,,,,,,,,,,,,,,,,,,,,,,,,,,,,,,,,,,,,,,,
,,,,,,5c4318404d76b1000173d466,62c5392a51e5e64e9dd01ce4,2022-07-06_09h26.58.168,Colour_Asymmetry_Pilot,2022.1.3,Win32,144.0092166,62c50e9c1127f2cd403a315f,0,126,126,51,1,twofour,,,,,,,,,,,,,,,,,,,,,,,,,,,,,,,,,,,,,,,,,,,,,,,,,,,,,,,,,,,,,,,,,,,,,,,,,,,,,,,,,,,,,,,,,,,,,,,,,,,,,,,,,,,,,,,,,,,,,,,,,,,,,,,,,,,,,,,,,,,,,,,,,,,,,,,,,,,,,
,,,,,,5c4318404d76b1000173d466,62c5392a51e5e64e9dd01ce4,2022-07-06_09h26.58.168,Colour_Asymmetry_Pilot,2022.1.3,Win32,144.0092166,62c50e9c1127f2cd403a315f,0,127,127,94,1,fourtwo,,,,,,,,,,,,,,,,,,,,,,,,,,,,,,,,,,,,,,,,,,,,,,,,,,,,,,,,,,,,,,,,,,,,,,,,,,,,,,,,,,,,,,,,,,,,,,,,,,,,,,,,,,,,,,,,,,,,,,,,,,,,,,,,,,,,,,,,,,,,,,,,,,,,,,,,,,,,,
,,,,,,5c4318404d76b1000173d466,62c5392a51e5e64e9dd01ce4,2022-07-06_09h26.58.168,Colour_Asymmetry_Pilot,2022.1.3,Win32,144.0092166,62c50e9c1127f2cd403a315f,0,128,128,14,1,fourtwo,,,,,,,,,,,,,,,,,,,,,,,,,,,,,,,,,,,,,,,,,,,,,,,,,,,,,,,,,,,,,,,,,,,,,,,,,,,,,,,,,,,,,,,,,,,,,,,,,,,,,,,,,,,,,,,,,,,,,,,,,,,,,,,,,,,,,,,,,,,,,,,,,,,,,,,,,,,,,
,,,,,,5c4318404d76b1000173d466,62c5392a51e5e64e9dd01ce4,2022-07-06_09h26.58.168,Colour_Asymmetry_Pilot,2022.1.3,Win32,144.0092166,62c50e9c1127f2cd403a315f,0,129,129,135,1,fourthree,,,,,,,,,,,,,,,,,,,,,,,,,,,,,,,,,,,,,,,,,,,,,,,,,,,,,,,,,,,,,,,,,,,,,,,,,,,,,,,,,,,,,,,,,,,,,,,,,,,,,,,,,,,,,,,,,,,,,,,,,,,,,,,,,,,,,,,,,,,,,,,,,,,,,,,,,,,,,
,,,,,,5c4318404d76b1000173d466,62c5392a51e5e64e9dd01ce4,2022-07-06_09h26.58.168,Colour_Asymmetry_Pilot,2022.1.3,Win32,144.0092166,62c50e9c1127f2cd403a315f,0,130,130,4,1,threeone,,,,,,,,,,,,,,,,,,,,,,,,,,,,,,,,,,,,,,,,,,,,,,,,,,,,,,,,,,,,,,,,,,,,,,,,,,,,,,,,,,,,,,,,,,,,,,,,,,,,,,,,,,,,,,,,,,,,,,,,,,,,,,,,,,,,,,,,,,,,,,,,,,,,,,,,,,,,,
,,,,,,5c4318404d76b1000173d466,62c5392a51e5e64e9dd01ce4,2022-07-06_09h26.58.168,Colour_Asymmetry_Pilot,2022.1.3,Win32,144.0092166,62c50e9c1127f2cd403a315f,0,131,131,79,1,fourthree,,,,,,,,,,,,,,,,,,,,,,,,,,,,,,,,,,,,,,,,,,,,,,,,,,,,,,,,,,,,,,,,,,,,,,,,,,,,,,,,,,,,,,,,,,,,,,,,,,,,,,,,,,,,,,,,,,,,,,,,,,,,,,,,,,,,,,,,,,,,,,,,,,,,,,,,,,,,,
,,,,,,5c4318404d76b1000173d466,62c5392a51e5e64e9dd01ce4,2022-07-06_09h26.58.168,Colour_Asymmetry_Pilot,2022.1.3,Win32,144.0092166,62c50e9c1127f2cd403a315f,0,132,132,31,1,fourthree,,,,,,,,,,,,,,,,,,,,,,,,,,,,,,,,,,,,,,,,,,,,,,,,,,,,,,,,,,,,,,,,,,,,,,,,,,,,,,,,,,,,,,,,,,,,,,,,,,,,,,,,,,,,,,,,,,,,,,,,,,,,,,,,,,,,,,,,,,,,,,,,,,,,,,,,,,,,,
,,,,,,5c4318404d76b1000173d466,62c5392a51e5e64e9dd01ce4,2022-07-06_09h26.58.168,Colour_Asymmetry_Pilot,2022.1.3,Win32,144.0092166,62c50e9c1127f2cd403a315f,0,133,133,21,1,threefour,,,,,,,,,,,,,,,,,,,,,,,,,,,,,,,,,,,,,,,,,,,,,,,,,,,,,,,,,,,,,,,,,,,,,,,,,,,,,,,,,,,,,,,,,,,,,,,,,,,,,,,,,,,,,,,,,,,,,,,,,,,,,,,,,,,,,,,,,,,,,,,,,,,,,,,,,,,,,
,,,,,,5c4318404d76b1000173d466,62c5392a51e5e64e9dd01ce4,2022-07-06_09h26.58.168,Colour_Asymmetry_Pilot,2022.1.3,Win32,144.0092166,62c50e9c1127f2cd403a315f,0,134,134,37,1,threefour,,,,,,,,,,,,,,,,,,,,,,,,,,,,,,,,,,,,,,,,,,,,,,,,,,,,,,,,,,,,,,,,,,,,,,,,,,,,,,,,,,,,,,,,,,,,,,,,,,,,,,,,,,,,,,,,,,,,,,,,,,,,,,,,,,,,,,,,,,,,,,,,,,,,,,,,,,,,,
,,,,,,5c4318404d76b1000173d466,62c5392a51e5e64e9dd01ce4,2022-07-06_09h26.58.168,Colour_Asymmetry_Pilot,2022.1.3,Win32,144.0092166,62c50e9c1127f2cd403a315f,0,135,135,110,1,fourtwo,,,,,,,,,,,,,,,,,,,,,,,,,,,,,,,,,,,,,,,,,,,,,,,,,,,,,,,,,,,,,,,,,,,,,,,,,,,,,,,,,,,,,,,,,,,,,,,,,,,,,,,,,,,,,,,,,,,,,,,,,,,,,,,,,,,,,,,,,,,,,,,,,,,,,,,,,,,,,
,,,,,,5c4318404d76b1000173d466,62c5392a51e5e64e9dd01ce4,2022-07-06_09h26.58.168,Colour_Asymmetry_Pilot,2022.1.3,Win32,144.0092166,62c50e9c1127f2cd403a315f,0,136,136,49,1,onethree,,,,,,,,,,,,,,,,,,,,,,,,,,,,,,,,,,,,,,,,,,,,,,,,,,,,,,,,,,,,,,,,,,,,,,,,,,,,,,,,,,,,,,,,,,,,,,,,,,,,,,,,,,,,,,,,,,,,,,,,,,,,,,,,,,,,,,,,,,,,,,,,,,,,,,,,,,,,,
,,,,,,5c4318404d76b1000173d466,62c5392a51e5e64e9dd01ce4,2022-07-06_09h26.58.168,Colour_Asymmetry_Pilot,2022.1.3,Win32,144.0092166,62c50e9c1127f2cd403a315f,0,137,137,76,1,threeone,,,,,,,,,,,,,,,,,,,,,,,,,,,,,,,,,,,,,,,,,,,,,,,,,,,,,,,,,,,,,,,,,,,,,,,,,,,,,,,,,,,,,,,,,,,,,,,,,,,,,,,,,,,,,,,,,,,,,,,,,,,,,,,,,,,,,,,,,,,,,,,,,,,,,,,,,,,,,
,,,,,,5c4318404d76b1000173d466,62c5392a51e5e64e9dd01ce4,2022-07-06_09h26.58.168,Colour_Asymmetry_Pilot,2022.1.3,Win32,144.0092166,62c50e9c1127f2cd403a315f,0,138,138,153,1,onethree,,,,,,,,,,,,,,,,,,,,,,,,,,,,,,,,,,,,,,,,,,,,,,,,,,,,,,,,,,,,,,,,,,,,,,,,,,,,,,,,,,,,,,,,,,,,,,,,,,,,,,,,,,,,,,,,,,,,,,,,,,,,,,,,,,,,,,,,,,,,,,,,,,,,,,,,,,,,,
,,,,,,5c4318404d76b1000173d466,62c5392a51e5e64e9dd01ce4,2022-07-06_09h26.58.168,Colour_Asymmetry_Pilot,2022.1.3,Win32,144.0092166,62c50e9c1127f2cd403a315f,0,139,139,59,1,twofour,,,,,,,,,,,,,,,,,,,,,,,,,,,,,,,,,,,,,,,,,,,,,,,,,,,,,,,,,,,,,,,,,,,,,,,,,,,,,,,,,,,,,,,,,,,,,,,,,,,,,,,,,,,,,,,,,,,,,,,,,,,,,,,,,,,,,,,,,,,,,,,,,,,,,,,,,,,,,
,,,,,,5c4318404d76b1000173d466,62c5392a51e5e64e9dd01ce4,2022-07-06_09h26.58.168,Colour_Asymmetry_Pilot,2022.1.3,Win32,144.0092166,62c50e9c1127f2cd403a315f,0,140,140,142,1,fourtwo,,,,,,,,,,,,,,,,,,,,,,,,,,,,,,,,,,,,,,,,,,,,,,,,,,,,,,,,,,,,,,,,,,,,,,,,,,,,,,,,,,,,,,,,,,,,,,,,,,,,,,,,,,,,,,,,,,,,,,,,,,,,,,,,,,,,,,,,,,,,,,,,,,,,,,,,,,,,,
,,,,,,5c4318404d76b1000173d466,62c5392a51e5e64e9dd01ce4,2022-07-06_09h26.58.168,Colour_Asymmetry_Pilot,2022.1.3,Win32,144.0092166,62c50e9c1127f2cd403a315f,0,141,141,125,1,threefour,,,,,,,,,,,,,,,,,,,,,,,,,,,,,,,,,,,,,,,,,,,,,,,,,,,,,,,,,,,,,,,,,,,,,,,,,,,,,,,,,,,,,,,,,,,,,,,,,,,,,,,,,,,,,,,,,,,,,,,,,,,,,,,,,,,,,,,,,,,,,,,,,,,,,,,,,,,,,
,,,,,,5c4318404d76b1000173d466,62c5392a51e5e64e9dd01ce4,2022-07-06_09h26.58.168,Colour_Asymmetry_Pilot,2022.1.3,Win32,144.0092166,62c50e9c1127f2cd403a315f,0,142,142,101,1,threefour,,,,,,,,,,,,,,,,,,,,,,,,,,,,,,,,,,,,,,,,,,,,,,,,,,,,,,,,,,,,,,,,,,,,,,,,,,,,,,,,,,,,,,,,,,,,,,,,,,,,,,,,,,,,,,,,,,,,,,,,,,,,,,,,,,,,,,,,,,,,,,,,,,,,,,,,,,,,,
,,,,,,5c4318404d76b1000173d466,62c5392a51e5e64e9dd01ce4,2022-07-06_09h26.58.168,Colour_Asymmetry_Pilot,2022.1.3,Win32,144.0092166,62c50e9c1127f2cd403a315f,0,143,143,5,1,threefour,,,,,,,,,,,,,,,,,,,,,,,,,,,,,,,,,,,,,,,,,,,,,,,,,,,,,,,,,,,,,,,,,,,,,,,,,,,,,,,,,,,,,,,,,,,,,,,,,,,,,,,,,,,,,,,,,,,,,,,,,,,,,,,,,,,,,,,,,,,,,,,,,,,,,,,,,,,,,
,,,,,,5c4318404d76b1000173d466,62c5392a51e5e64e9dd01ce4,2022-07-06_09h26.58.168,Colour_Asymmetry_Pilot,2022.1.3,Win32,144.0092166,62c50e9c1127f2cd403a315f,0,144,144,60,1,threeone,,,,,,,,,,,,,,,,,,,,,,,,,,,,,,,,,,,,,,,,,,,,,,,,,,,,,,,,,,,,,,,,,,,,,,,,,,,,,,,,,,,,,,,,,,,,,,,,,,,,,,,,,,,,,,,,,,,,,,,,,,,,,,,,,,,,,,,,,,,,,,,,,,,,,,,,,,,,,
,,,,,,5c4318404d76b1000173d466,62c5392a51e5e64e9dd01ce4,2022-07-06_09h26.58.168,Colour_Asymmetry_Pilot,2022.1.3,Win32,144.0092166,62c50e9c1127f2cd403a315f,0,145,145,3,1,twofour,,,,,,,,,,,,,,,,,,,,,,,,,,,,,,,,,,,,,,,,,,,,,,,,,,,,,,,,,,,,,,,,,,,,,,,,,,,,,,,,,,,,,,,,,,,,,,,,,,,,,,,,,,,,,,,,,,,,,,,,,,,,,,,,,,,,,,,,,,,,,,,,,,,,,,,,,,,,,
,,,,,,5c4318404d76b1000173d466,62c5392a51e5e64e9dd01ce4,2022-07-06_09h26.58.168,Colour_Asymmetry_Pilot,2022.1.3,Win32,144.0092166,62c50e9c1127f2cd403a315f,0,146,146,130,1,twoone,,,,,,,,,,,,,,,,,,,,,,,,,,,,,,,,,,,,,,,,,,,,,,,,,,,,,,,,,,,,,,,,,,,,,,,,,,,,,,,,,,,,,,,,,,,,,,,,,,,,,,,,,,,,,,,,,,,,,,,,,,,,,,,,,,,,,,,,,,,,,,,,,,,,,,,,,,,,,
,,,,,,5c4318404d76b1000173d466,62c5392a51e5e64e9dd01ce4,2022-07-06_09h26.58.168,Colour_Asymmetry_Pilot,2022.1.3,Win32,144.0092166,62c50e9c1127f2cd403a315f,0,147,147,115,1,twofour,,,,,,,,,,,,,,,,,,,,,,,,,,,,,,,,,,,,,,,,,,,,,,,,,,,,,,,,,,,,,,,,,,,,,,,,,,,,,,,,,,,,,,,,,,,,,,,,,,,,,,,,,,,,,,,,,,,,,,,,,,,,,,,,,,,,,,,,,,,,,,,,,,,,,,,,,,,,,
,,,,,,5c4318404d76b1000173d466,62c5392a51e5e64e9dd01ce4,2022-07-06_09h26.58.168,Colour_Asymmetry_Pilot,2022.1.3,Win32,144.0092166,62c50e9c1127f2cd403a315f,0,148,148,113,1,onethree,,,,,,,,,,,,,,,,,,,,,,,,,,,,,,,,,,,,,,,,,,,,,,,,,,,,,,,,,,,,,,,,,,,,,,,,,,,,,,,,,,,,,,,,,,,,,,,,,,,,,,,,,,,,,,,,,,,,,,,,,,,,,,,,,,,,,,,,,,,,,,,,,,,,,,,,,,,,,
,,,,,,5c4318404d76b1000173d466,62c5392a51e5e64e9dd01ce4,2022-07-06_09h26.58.168,Colour_Asymmetry_Pilot,2022.1.3,Win32,144.0092166,62c50e9c1127f2cd403a315f,0,149,149,92,1,threeone,,,,,,,,,,,,,,,,,,,,,,,,,,,,,,,,,,,,,,,,,,,,,,,,,,,,,,,,,,,,,,,,,,,,,,,,,,,,,,,,,,,,,,,,,,,,,,,,,,,,,,,,,,,,,,,,,,,,,,,,,,,,,,,,,,,,,,,,,,,,,,,,,,,,,,,,,,,,,
,,,,,,5c4318404d76b1000173d466,62c5392a51e5e64e9dd01ce4,2022-07-06_09h26.58.168,Colour_Asymmetry_Pilot,2022.1.3,Win32,144.0092166,62c50e9c1127f2cd403a315f,0,150,150,57,1,onethree,,,,,,,,,,,,,,,,,,,,,,,,,,,,,,,,,,,,,,,,,,,,,,,,,,,,,,,,,,,,,,,,,,,,,,,,,,,,,,,,,,,,,,,,,,,,,,,,,,,,,,,,,,,,,,,,,,,,,,,,,,,,,,,,,,,,,,,,,,,,,,,,,,,,,,,,,,,,,
,,,,,,5c4318404d76b1000173d466,62c5392a51e5e64e9dd01ce4,2022-07-06_09h26.58.168,Colour_Asymmetry_Pilot,2022.1.3,Win32,144.0092166,62c50e9c1127f2cd403a315f,0,151,151,93,1,threefour,,,,,,,,,,,,,,,,,,,,,,,,,,,,,,,,,,,,,,,,,,,,,,,,,,,,,,,,,,,,,,,,,,,,,,,,,,,,,,,,,,,,,,,,,,,,,,,,,,,,,,,,,,,,,,,,,,,,,,,,,,,,,,,,,,,,,,,,,,,,,,,,,,,,,,,,,,,,,
,,,,,,5c4318404d76b1000173d466,62c5392a51e5e64e9dd01ce4,2022-07-06_09h26.58.168,Colour_Asymmetry_Pilot,2022.1.3,Win32,144.0092166,62c50e9c1127f2cd403a315f,0,152,152,151,1,fourthree,,,,,,,,,,,,,,,,,,,,,,,,,,,,,,,,,,,,,,,,,,,,,,,,,,,,,,,,,,,,,,,,,,,,,,,,,,,,,,,,,,,,,,,,,,,,,,,,,,,,,,,,,,,,,,,,,,,,,,,,,,,,,,,,,,,,,,,,,,,,,,,,,,,,,,,,,,,,,
,,,,,,5c4318404d76b1000173d466,62c5392a51e5e64e9dd01ce4,2022-07-06_09h26.58.168,Colour_Asymmetry_Pilot,2022.1.3,Win32,144.0092166,62c50e9c1127f2cd403a315f,0,153,153,45,1,threefour,,,,,,,,,,,,,,,,,,,,,,,,,,,,,,,,,,,,,,,,,,,,,,,,,,,,,,,,,,,,,,,,,,,,,,,,,,,,,,,,,,,,,,,,,,,,,,,,,,,,,,,,,,,,,,,,,,,,,,,,,,,,,,,,,,,,,,,,,,,,,,,,,,,,,,,,,,,,,
,,,,,,5c4318404d76b1000173d466,62c5392a51e5e64e9dd01ce4,2022-07-06_09h26.58.168,Colour_Asymmetry_Pilot,2022.1.3,Win32,144.0092166,62c50e9c1127f2cd403a315f,0,154,154,82,1,twoone,,,,,,,,,,,,,,,,,,,,,,,,,,,,,,,,,,,,,,,,,,,,,,,,,,,,,,,,,,,,,,,,,,,,,,,,,,,,,,,,,,,,,,,,,,,,,,,,,,,,,,,,,,,,,,,,,,,,,,,,,,,,,,,,,,,,,,,,,,,,,,,,,,,,,,,,,,,,,
,,,,,,5c4318404d76b1000173d466,62c5392a51e5e64e9dd01ce4,2022-07-06_09h26.58.168,Colour_Asymmetry_Pilot,2022.1.3,Win32,144.0092166,62c50e9c1127f2cd403a315f,0,155,155,141,1,threefour,,,,,,,,,,,,,,,,,,,,,,,,,,,,,,,,,,,,,,,,,,,,,,,,,,,,,,,,,,,,,,,,,,,,,,,,,,,,,,,,,,,,,,,,,,,,,,,,,,,,,,,,,,,,,,,,,,,,,,,,,,,,,,,,,,,,,,,,,,,,,,,,,,,,,,,,,,,,,
,,,,,,5c4318404d76b1000173d466,62c5392a51e5e64e9dd01ce4,2022-07-06_09h26.58.168,Colour_Asymmetry_Pilot,2022.1.3,Win32,144.0092166,62c50e9c1127f2cd403a315f,0,156,156,2,1,twoone,,,,,,,,,,,,,,,,,,,,,,,,,,,,,,,,,,,,,,,,,,,,,,,,,,,,,,,,,,,,,,,,,,,,,,,,,,,,,,,,,,,,,,,,,,,,,,,,,,,,,,,,,,,,,,,,,,,,,,,,,,,,,,,,,,,,,,,,,,,,,,,,,,,,,,,,,,,,,
,,,,,,5c4318404d76b1000173d466,62c5392a51e5e64e9dd01ce4,2022-07-06_09h26.58.168,Colour_Asymmetry_Pilot,2022.1.3,Win32,144.0092166,62c50e9c1127f2cd403a315f,0,157,157,7,1,fourthree,,,,,,,,,,,,,,,,,,,,,,,,,,,,,,,,,,,,,,,,,,,,,,,,,,,,,,,,,,,,,,,,,,,,,,,,,,,,,,,,,,,,,,,,,,,,,,,,,,,,,,,,,,,,,,,,,,,,,,,,,,,,,,,,,,,,,,,,,,,,,,,,,,,,,,,,,,,,,
,,,,,,5c4318404d76b1000173d466,62c5392a51e5e64e9dd01ce4,2022-07-06_09h26.58.168,Colour_Asymmetry_Pilot,2022.1.3,Win32,144.0092166,62c50e9c1127f2cd403a315f,0,158,158,114,1,twoone,,,,,,,,,,,,,,,,,,,,,,,,,,,,,,,,,,,,,,,,,,,,,,,,,,,,,,,,,,,,,,,,,,,,,,,,,,,,,,,,,,,,,,,,,,,,,,,,,,,,,,,,,,,,,,,,,,,,,,,,,,,,,,,,,,,,,,,,,,,,,,,,,,,,,,,,,,,,,
,,,,,,5c4318404d76b1000173d466,62c5392a51e5e64e9dd01ce4,2022-07-06_09h26.58.168,Colour_Asymmetry_Pilot,2022.1.3,Win32,144.0092166,62c50e9c1127f2cd403a315f,0,159,159,90,1,twoone,,,,,,,,,,,,,,,,,,,,,,,,,,,,,,,,,,,,,,,,,,,,,,,,,,,,,,,,,,,,,,,,,,,,,,,,,,,,,,,,,,,,,,,,,,,,,,,,,,,,,,,,,,,,,,,,,,,,,,,,,,,,,,,,,,,,,,,,,,,,,,,,,,,,,,,,,,,,,
,,,,,,5c4318404d76b1000173d466,62c5392a51e5e64e9dd01ce4,2022-07-06_09h26.58.168,Colour_Asymmetry_Pilot,2022.1.3,Win32,144.0092166,62c50e9c1127f2cd403a315f,0,160,160,75,1,twofour,,,,,,,,,,,,,,,,,,,,,,,,,,,,,,,,,,,,,,,,,,,,,,,,,,,,,,,,,,,,,,,,,,,,,,,,,,,,,,,,,,,,,,,,,,,,,,,,,,,,,,,,,,,,,,,,,,,,,,,,,,,,,,,,,,,,,,,,,,,,,,,,,,,,,,,,,,,,,
,,,,,,5c4318404d76b1000173d466,62c5392a51e5e64e9dd01ce4,2022-07-06_09h26.58.168,Colour_Asymmetry_Pilot,2022.1.3,Win32,144.0092166,62c50e9c1127f2cd403a315f,0,161,161,46,1,fourtwo,,,,,,,,,,,,,,,,,,,,,,,,,,,,,,,,,,,,,,,,,,,,,,,,,,,,,,,,,,,,,,,,,,,,,,,,,,,,,,,,,,,,,,,,,,,,,,,,,,,,,,,,,,,,,,,,,,,,,,,,,,,,,,,,,,,,,,,,,,,,,,,,,,,,,,,,,,,,,
,,,,,,5c4318404d76b1000173d466,62c5392a51e5e64e9dd01ce4,2022-07-06_09h26.58.168,Colour_Asymmetry_Pilot,2022.1.3,Win32,144.0092166,62c50e9c1127f2cd403a315f,,,,,,,space,3.3161,space,57.589,space,25.9575,space,5.6385,space,1.8629,space,4.3414,"[0.3881999999999999,-0.23939999999999995,-0.05040000000000011]",onetwo,"[-0.01980000000000004,-0.5138,-0.38039999999999996]",2,6.1741,106.4000244,-38.3999939,1,0,0,response3disk_5,-8,0.799987793,1,0,0,rectangle_8,48,93.6000061,1,0,0,response1disk_7,7,4,16.79998779,1.600006104,1,0,0,rectangle_4,0,0,0,0,1,,,,,,,,,,,,,,,,,,,,,,,,,,,,,,,,,,,,,,,,,,,,,,,,,,,,,,,,,,,,,,,,,,,,,,,,,,,,,,,,,,,,,,,,,,,,,,,,,,,,,,,,,,,,,
,,,,,,5c4318404d76b1000173d466,62c5392a51e5e64e9dd01ce4,2022-07-06_09h26.58.168,Colour_Asymmetry_Pilot,2022.1.3,Win32,144.0092166,62c50e9c1127f2cd403a315f,,,,,,,,,,,,,,,,,,,"[-0.6235999999999999,-0.6786,-0.08239999999999992]",onetwo,"[-0.07459999999999989,0.12139999999999995,-0.9922]",-4,4.1942,-53.59997559,81.6000061,1,0,0,response7disk_5,14.40002441,-4.800018311,1,0,0,rectangle_8,14.40002441,-4.800018311,1,0,0,,,4,14.40002441,-4.800018311,1,0,0,,1,0,1,0,1,,,,,,,,,,,,,,,,,,,,,,,,,,,,,,,,,,,,,,,,,,,,,,,,,,,,,,,,,,,,,,,,,,,,,,,,,,,,,,,,,,,,,,,,,,,,,,,,,,,,,,,,,,,,,
,,,,,,5c4318404d76b1000173d466,62c5392a51e5e64e9dd01ce4,2022-07-06_09h26.58.168,Colour_Asymmetry_Pilot,2022.1.3,Win32,144.0092166,62c50e9c1127f2cd403a315f,,,,,,,,,,,,,,,,,,,"[0.23920000000000008,0.2704,0.16060000000000008]",onethree,"[0.9372,0.20779999999999998,0.2704]",-1,4.2639,-59.20001221,-85.60003662,1,0,0,response5disk_5,-5.599975586,5.600006104,1,0,0,rectangle_8,-5.599975586,5.600006104,1,0,0,,,4,-5.599975586,5.600006104,1,0,0,,2,0,2,0,1,,,,,,,,,,,,,,,,,,,,,,,,,,,,,,,,,,,,,,,,,,,,,,,,,,,,,,,,,,,,,,,,,,,,,,,,,,,,,,,,,,,,,,,,,,,,,,,,,,,,,,,,,,,,,
,,,,,,5c4318404d76b1000173d466,62c5392a51e5e64e9dd01ce4,2022-07-06_09h26.58.168,Colour_Asymmetry_Pilot,2022.1.3,Win32,144.0092166,62c50e9c1127f2cd403a315f,,,,,,,,,,,,,,,,,,,"[-0.24719999999999998,0.5213999999999999,-0.12959999999999994]",fourthree,"[-0.5688,-0.08239999999999992,-0.1844]",1,3.4377,37.60003662,-88.79998779,1,0,0,response3disk_5,-0.799987793,-7.200012207,1,0,0,rectangle_8,-0.799987793,-7.200012207,1,0,0,,,4,-0.799987793,-7.200012207,1,0,0,,3,0,3,0,1,,,,,,,,,,,,,,,,,,,,,,,,,,,,,,,,,,,,,,,,,,,,,,,,,,,,,,,,,,,,,,,,,,,,,,,,,,,,,,,,,,,,,,,,,,,,,,,,,,,,,,,,,,,,,
,,,,,,5c4318404d76b1000173d466,62c5392a51e5e64e9dd01ce4,2022-07-06_09h26.58.168,Colour_Asymmetry_Pilot,2022.1.3,Win32,144.0092166,62c50e9c1127f2cd403a315f,,,,,,,,,,,,,,,,,,,"[-0.4982,-0.2942,-0.0354000000000001]",fourtwo,"[-0.26280000000000003,-0.4746,-0.2158]",-2,2.7568,-66.39996338,-33.6000061,1,0,0,response5disk_5,-20.79998779,-10.3999939,1,0,0,rectangle_8,-20.79998779,-10.3999939,1,0,0,,,4,-20.79998779,-10.3999939,1,0,0,,4,0,4,0,1,,,,,,,,,,,,,,,,,,,,,,,,,,,,,,,,,,,,,,,,,,,,,,,,,,,,,,,,,,,,,,,,,,,,,,,,,,,,,,,,,,,,,,,,,,,,,,,,,,,,,,,,,,,,,
,,,,,,5c4318404d76b1000173d466,62c5392a51e5e64e9dd01ce4,2022-07-06_09h26.58.168,Colour_Asymmetry_Pilot,2022.1.3,Win32,144.0092166,62c50e9c1127f2cd403a315f,,,,,,,,,,,,,,,,,,,"[0.34099999999999997,0.5841999999999998,-0.9844]",fourtwo,"[-0.8118,-0.8198,-0.5452]",-4,1.7225,-49.59997559,87.19998169,1,0,0,response7disk_5,-13.59997559,5.600006104,1,0,0,rectangle_8,-13.59997559,5.600006104,1,0,0,,,4,-13.59997559,5.600006104,1,0,0,,5,0,5,0,1,,,,,,,,,,,,,,,,,,,,,,,,,,,,,,,,,,,,,,,,,,,,,,,,,,,,,,,,,,,,,,,,,,,,,,,,,,,,,,,,,,,,,,,,,,,,,,,,,,,,,,,,,,,,,
,,,,,,5c4318404d76b1000173d466,62c5392a51e5e64e9dd01ce4,2022-07-06_09h26.58.168,Colour_Asymmetry_Pilot,2022.1.3,Win32,144.0092166,62c50e9c1127f2cd403a315f,,,,,,,,,,,,,,,,,,,"[0.34099999999999997,0.12939999999999996,-0.9766]",threefour,"[-0.01980000000000004,-0.5138,-0.38039999999999996]",-4,1.4577,-43.20001221,84.79998779,1,0,0,response7disk_5,-4,4.799987793,1,0,0,rectangle_8,-4,4.799987793,1,0,0,,,4,-4,4.799987793,1,0,0,,6,0,6,0,1,,,,,,,,,,,,,,,,,,,,,,,,,,,,,,,,,,,,,,,,,,,,,,,,,,,,,,,,,,,,,,,,,,,,,,,,,,,,,,,,,,,,,,,,,,,,,,,,,,,,,,,,,,,,,
,,,,,,5c4318404d76b1000173d466,62c5392a51e5e64e9dd01ce4,2022-07-06_09h26.58.168,Colour_Asymmetry_Pilot,2022.1.3,Win32,144.0092166,62c50e9c1127f2cd403a315f,,,,,,,,,,,,,,,,,,,,twoone,,-4,1.4174,,,,,,,,,,,,,,,,,,,,,,,,,,,,,,,,space,2.4791,"[0.34099999999999997,0.5841999999999998,-0.9844]","[-0.9216,-0.5529999999999999,-0.3962]",-40,74.3999939,1,0,0,response7disk,8.799987793,-5.600006104,1,0,0,rectangle,8.799987793,-5.600006104,1,0,0,,1,0.0025,0,8.799987793,-5.600006104,1,0,0,0,0,0,18,1,18,first,,,,,,,,,,,,,,,,,,,,,,,,,,,,,,,,,,,,,,,,,,,,,,,,,,,,,,,,,,,,,,,,,,,,,,,,
,,,,,,5c4318404d76b1000173d466,62c5392a51e5e64e9dd01ce4,2022-07-06_09h26.58.168,Colour_Asymmetry_Pilot,2022.1.3,Win32,144.0092166,62c50e9c1127f2cd403a315f,,,,,,,,,,,,,,,,,,,,threefour,,-4,1.0693,,,,,,,,,,,,,,,,,,,,,,,,,,,,,,,,,,"[-0.8982,-0.37259999999999993,0.2784]","[0.34099999999999997,0.12939999999999996,-0.9766]",-33.59997559,72,1,0,0,response7disk,-8.799987793,0,1,0,0,rectangle,-8.799987793,0,1,0,0,,2,0.0019,0,-8.799987793,0,1,0,0,0,1,1,100,1,19,second,,,,,,,,,,,,,,,,,,,,,,,,,,,,,,,,,,,,,,,,,,,,,,,,,,,,,,,,,,,,,,,,,,,,,,,,
,,,,,,5c4318404d76b1000173d466,62c5392a51e5e64e9dd01ce4,2022-07-06_09h26.58.168,Colour_Asymmetry_Pilot,2022.1.3,Win32,144.0092166,62c50e9c1127f2cd403a315f,,,,,,,,,,,,,,,,,,,,threeone,,2,2.0421,,,,,,,,,,,,,,,,,,,,,,,,,,,,,,,,,,"[0.0351999999999999,0.41159999999999997,0.0038000000000000256]","[-0.5688,-0.08239999999999992,-0.1844]",77.60003662,-44.80001831,1,0,0,response3disk,-1.599975586,1.600006104,1,0,0,rectangle,-1.599975586,1.600006104,1,0,0,,2,0.0002,0,-1.599975586,1.600006104,1,0,0,0,2,2,33,1,33,first,,,,,,,,,,,,,,,,,,,,,,,,,,,,,,,,,,,,,,,,,,,,,,,,,,,,,,,,,,,,,,,,,,,,,,,,
,,,,,,5c4318404d76b1000173d466,62c5392a51e5e64e9dd01ce4,2022-07-06_09h26.58.168,Colour_Asymmetry_Pilot,2022.1.3,Win32,144.0092166,62c50e9c1127f2cd403a315f,,,,,,,,,,,,,,,,,,,,onetwo,,-3,1.2435,,,,,,,,,,,,,,,,,,,,,,,,,,,,,,,,,,"[-0.5922000000000001,-0.7492000000000001,-0.5296000000000001]","[0.09799999999999986,-0.24719999999999998,0.15280000000000005]",-74.39996338,48,1,0,0,response7disk,-20.79998779,0.799987793,1,0,0,rectangle,-20.79998779,0.799987793,1,0,0,,1,0.0015,0,-20.79998779,0.799987793,1,0,0,0,3,3,82,1,1,second,,,,,,,,,,,,,,,,,,,,,,,,,,,,,,,,,,,,,,,,,,,,,,,,,,,,,,,,,,,,,,,,,,,,,,,,
,,,,,,5c4318404d76b1000173d466,62c5392a51e5e64e9dd01ce4,2022-07-06_09h26.58.168,Colour_Asymmetry_Pilot,2022.1.3,Win32,144.0092166,62c50e9c1127f2cd403a315f,,,,,,,,,,,,,,,,,,,,fourthree,,4,1.6039,,,,,,,,,,,,,,,,,,,,,,,,,,,,,,,,,,"[0.9763999999999999,0.8588,-0.05900000000000005]","[0.7018,0.7802,-0.16079999999999994]",47.20001221,90.3999939,1,0,0,response1disk,12.79998779,-10.3999939,1,0,0,rectangle,12.79998779,-10.3999939,1,0,0,,1,0.0004,0,12.79998779,-10.3999939,1,0,0,0,4,4,47,1,47,first,,,,,,,,,,,,,,,,,,,,,,,,,,,,,,,,,,,,,,,,,,,,,,,,,,,,,,,,,,,,,,,,,,,,,,,,
,,,,,,5c4318404d76b1000173d466,62c5392a51e5e64e9dd01ce4,2022-07-06_09h26.58.168,Colour_Asymmetry_Pilot,2022.1.3,Win32,144.0092166,62c50e9c1127f2cd403a315f,,,,,,,,,,,,,,,,,,,,onetwo,,-4,1.4443,,,,,,,,,,,,,,,,,,,,,,,,,,,,,,,,,,"[-0.26280000000000003,-0.2158,-0.3256]","[-0.34920000000000007,-0.702,-0.5216]",-45.59997559,76.79998779,1,0,0,response7disk,-9.599975586,-6.399993896,1,0,0,rectangle,-9.599975586,-6.399993896,1,0,0,,3,0.0012,0,-9.599975586,-6.399993896,1,0,0,0,5,5,14,1,14,first,,,,,,,,,,,,,,,,,,,,,,,,,,,,,,,,,,,,,,,,,,,,,,,,,,,,,,,,,,,,,,,,,,,,,,,,
,,,,,,5c4318404d76b1000173d466,62c5392a51e5e64e9dd01ce4,2022-07-06_09h26.58.168,Colour_Asymmetry_Pilot,2022.1.3,Win32,144.0092166,62c50e9c1127f2cd403a315f,,,,,,,,,,,,,,,,,,,,fourtwo,,-4,1.7918,,,,,,,,,,,,,,,,,,,,,,,,,,,,,,,,,,"[-0.4982,-0.2942,-0.0354000000000001]","[0.9842,0.7409999999999999,-0.6628000000000001]",-36.79998779,76.79998779,1,0,0,response7disk,-0.799987793,1.600006104,1,0,0,rectangle,-0.799987793,1.600006104,1,0,0,,1,0.0014,0,-0.799987793,1.600006104,1,0,0,0,6,6,59,1,59,first,,,,,,,,,,,,,,,,,,,,,,,,,,,,,,,,,,,,,,,,,,,,,,,,,,,,,,,,,,,,,,,,,,,,,,,,
,,,,,,5c4318404d76b1000173d466,62c5392a51e5e64e9dd01ce4,2022-07-06_09h26.58.168,Colour_Asymmetry_Pilot,2022.1.3,Win32,144.0092166,62c50e9c1127f2cd403a315f,,,,,,,,,,,,,,,,,,,,fourthree,,-4,1.5415,,,,,,,,,,,,,,,,,,,,,,,,,,,,,,,,,,"[-0.8198,-0.5138,-0.7492000000000001]","[-0.2942,-0.7648,-0.7492000000000001]",-40,76.79998779,1,0,0,response7disk,-10.39996338,-2.399993896,1,0,0,rectangle,-10.39996338,-2.399993896,1,0,0,,2,0.0011,0,-10.39996338,-2.399993896,1,0,0,0,7,7,68,1,68,first,,,,,,,,,,,,,,,,,,,,,,,,,,,,,,,,,,,,,,,,,,,,,,,,,,,,,,,,,,,,,,,,,,,,,,,,
,,,,,,5c4318404d76b1000173d466,62c5392a51e5e64e9dd01ce4,2022-07-06_09h26.58.168,Colour_Asymmetry_Pilot,2022.1.3,Win32,144.0092166,62c50e9c1127f2cd403a315f,,,,,,,,,,,,,,,,,,,,twofour,,-3,0.6874,,,,,,,,,,,,,,,,,,,,,,,,,,,,,,,,,,"[-0.10599999999999998,-0.10599999999999998,0.5841999999999998]","[-0.07459999999999989,0.12139999999999995,-0.9922]",-78.39996338,48.79998779,1,0,0,response7disk,-1.599975586,-4.800018311,1,0,0,rectangle,-1.599975586,-4.800018311,1,0,0,,3,0.0013,0,-1.599975586,-4.800018311,1,0,0,0,8,8,32,1,32,first,,,,,,,,,,,,,,,,,,,,,,,,,,,,,,,,,,,,,,,,,,,,,,,,,,,,,,,,,,,,,,,,,,,,,,,,
,,,,,,5c4318404d76b1000173d466,62c5392a51e5e64e9dd01ce4,2022-07-06_09h26.58.168,Colour_Asymmetry_Pilot,2022.1.3,Win32,144.0092166,62c50e9c1127f2cd403a315f,,,,,,,,,,,,,,,,,,,,twofour,,-2,4.3891,,,,,,,,,,,,,,,,,,,,,,,,,,,,,,,,,,"[-0.9688,-0.38039999999999996,-0.41979999999999995]","[-0.6706000000000001,-0.6157999999999999,-0.6786]",-88.79998779,-40,1,0,0,response5disk,8.799987793,-3.200012207,1,0,0,rectangle,8.799987793,-3.200012207,1,0,0,,2,0.0012,0,8.799987793,-3.200012207,1,0,0,0,9,9,37,1,37,first,,,,,,,,,,,,,,,,,,,,,,,,,,,,,,,,,,,,,,,,,,,,,,,,,,,,,,,,,,,,,,,,,,,,,,,,
,,,,,,5c4318404d76b1000173d466,62c5392a51e5e64e9dd01ce4,2022-07-06_09h26.58.168,Colour_Asymmetry_Pilot,2022.1.3,Win32,144.0092166,62c50e9c1127f2cd403a315f,,,,,,,,,,,,,,,,,,,,onetwo,,-3,1.4311,,,,,,,,,,,,,,,,,,,,,,,,,,,,,,,,,,"[0.6625999999999999,0.4980000000000002,-0.357]","[0.3568,-0.20799999999999996,-0.9844]",-77.59997559,34.3999939,1,0,0,response7disk,-11.20001221,-1.600006104,1,0,0,rectangle,-11.20001221,-1.600006104,1,0,0,,2,0.0003,0,-11.20001221,-1.600006104,1,0,0,0,10,10,53,1,53,first,,,,,,,,,,,,,,,,,,,,,,,,,,,,,,,,,,,,,,,,,,,,,,,,,,,,,,,,,,,,,,,,,,,,,,,,
,,,,,,5c4318404d76b1000173d466,62c5392a51e5e64e9dd01ce4,2022-07-06_09h26.58.168,Colour_Asymmetry_Pilot,2022.1.3,Win32,144.0092166,62c50e9c1127f2cd403a315f,,,,,,,,,,,,,,,,,,,,twoone,,-4,1.0348,,,,,,,,,,,,,,,,,,,,,,,,,,,,,,,,,,"[-0.9766,-0.6472,0.07440000000000002]","[-0.9844,-0.9688,-0.9922]",-56.79998779,89.6000061,1,0,0,response7disk,4.799987793,-0.800018311,1,0,0,rectangle,4.799987793,-0.800018311,1,0,0,,1,0.0014,0,4.799987793,-0.800018311,1,0,0,0,11,11,24,1,24,first,,,,,,,,,,,,,,,,,,,,,,,,,,,,,,,,,,,,,,,,,,,,,,,,,,,,,,,,,,,,,,,,,,,,,,,,
,,,,,,5c4318404d76b1000173d466,62c5392a51e5e64e9dd01ce4,2022-07-06_09h26.58.168,Colour_Asymmetry_Pilot,2022.1.3,Win32,144.0092166,62c50e9c1127f2cd403a315f,,,,,,,,,,,,,,,,,,,,onethree,,-4,0.4928,,,,,,,,,,,,,,,,,,,,,,,,,,,,,,,,,,"[-0.06680000000000008,-0.45100000000000007,-0.906]","[0.12939999999999996,-0.2864,0.3253999999999999]",-45.59997559,78.3999939,1,0,0,response7disk,7.200012207,0,1,0,0,rectangle,85.60003662,41.6000061,1,0,0,3,3,2.3753,1,9.600036621,0,1,0,0,0,12,12,161,1,80,second,response1disk_3,rectangle,,,,,,,,,,,,,,,,,,,,,,,,,,,,,,,,,,,,,,,,,,,,,,,,,,,,,,,,,,,,,,,,,,,,,,
,,,,,,5c4318404d76b1000173d466,62c5392a51e5e64e9dd01ce4,2022-07-06_09h26.58.168,Colour_Asymmetry_Pilot,2022.1.3,Win32,144.0092166,62c50e9c1127f2cd403a315f,,,,,,,,,,,,,,,,,,,,threefour,,-4,0.563,,,,,,,,,,,,,,,,,,,,,,,,,,,,,,,,,,"[0.2784,-0.31000000000000005,-0.5452]","[-0.5922000000000001,-0.7492000000000001,-0.5296000000000001]",-34.39996338,78.3999939,1,0,0,response7disk,9.600036621,-5.600006104,1,0,0,rectangle,9.600036621,-5.600006104,1,0,0,3,2,0.0016,0,9.600036621,-5.600006104,1,0,0,0,13,13,137,1,56,second,,,,,,,,,,,,,,,,,,,,,,,,,,,,,,,,,,,,,,,,,,,,,,,,,,,,,,,,,,,,,,,,,,,,,,,,
,,,,,,5c4318404d76b1000173d466,62c5392a51e5e64e9dd01ce4,2022-07-06_09h26.58.168,Colour_Asymmetry_Pilot,2022.1.3,Win32,144.0092166,62c50e9c1127f2cd403a315f,,,,,,,,,,,,,,,,,,,,onetwo,,-3,2.5416,,,,,,,,,,,,,,,,,,,,,,,,,,,,,,,,,,"[-0.0040000000000000036,0.02739999999999987,-0.08239999999999992]","[-0.26280000000000003,-0.4746,-0.2158]",-95.20001221,26.3999939,1,0,0,response7disk,-16,-0.800018311,1,0,0,rectangle,-16,-0.800018311,1,0,0,3,1,0.0014,0,-16,-0.800018311,1,0,0,0,14,14,62,1,62,first,,,,,,,,,,,,,,,,,,,,,,,,,,,,,,,,,,,,,,,,,,,,,,,,,,,,,,,,,,,,,,,,,,,,,,,,
