trials.thisRepN,trials.thisTrialN,trials.thisN,trials.thisIndex,trials.ran,Colourcodes,participant,session,date,expName,psychopyVersion,OS,frameRate,study_id,trials_4.thisRepN,trials_4.thisTrialN,trials_4.thisN,trials_4.thisIndex,trials_4.ran,StimulusPos,key_resp.keys,key_resp.rt,key_resp_2.keys,key_resp_2.rt,key_resp_15.keys,key_resp_15.rt,key_resp_17.keys,key_resp_17.rt,key_resp_9.keys,key_resp_9.rt,key_resp_10.keys,key_resp_10.rt,Circle1_col,Ecc,Circle2_col,similarity,response_time,mouse_5.x,mouse_5.y,mouse_5.leftButton,mouse_5.midButton,mouse_5.rightButton,mouse_5.clicked_name,mouse_10.x,mouse_10.y,mouse_10.leftButton,mouse_10.midButton,mouse_10.rightButton,mouse_10.clicked_name,mouse_7.x,mouse_7.y,mouse_7.leftButton,mouse_7.midButton,mouse_7.rightButton,catchnumberprac,mouse_6.x,mouse_6.y,mouse_6.leftButton,mouse_6.midButton,mouse_6.rightButton,duringprac.thisRepN,duringprac.thisTrialN,duringprac.thisN,duringprac.thisIndex,duringprac.ran,mouse_7.clicked_name,catchprac,mouse_6.clicked_name,key_resp_22.keys,key_resp_22.rt,Circle1_colour,Circle2_colour,mouse.x,mouse.y,mouse.leftButton,mouse.midButton,mouse.rightButton,mouse.clicked_name,mouse_2.x,mouse_2.y,mouse_2.leftButton,mouse_2.midButton,mouse_2.rightButton,mouse_2.clicked_name,mouse_3.x,mouse_3.y,mouse_3.leftButton,mouse_3.midButton,mouse_3.rightButton,catchresponse,catchnumber,response_time_catch,Catch,mouse_11.x,mouse_11.y,mouse_11.leftButton,mouse_11.midButton,mouse_11.rightButton,trials_2.thisRepN,trials_2.thisTrialN,trials_2.thisN,trials_2.thisIndex,trials_2.ran,Colourpair,Temporder,mouse_3.clicked_name,mouse_11.clicked_name,trials_3.thisRepN,trials_3.thisTrialN,trials_3.thisN,trials_3.thisIndex,trials_3.ran,key_resp_instr_Ishi.keys,key_resp_instr_Ishi.rt,Ishi_trial_keyresp.keys,Ishi_textbox.text,Ishi_mouse.x,Ishi_mouse.y,Ishi_mouse.leftButton,Ishi_mouse.midButton,Ishi_mouse.rightButton,Ishi_mouse.clicked_name,Ishi_loop.thisRepN,Ishi_loop.thisTrialN,Ishi_loop.thisN,Ishi_loop.thisIndex,Ishi_loop.ran,imageaddress,textbox.text,mouse_4.x,mouse_4.y,mouse_4.leftButton,mouse_4.midButton,mouse_4.rightButton,mouse_4.clicked_name,textbox_2.text,mouse_8.x,mouse_8.y,mouse_8.leftButton,mouse_8.midButton,mouse_8.rightButton,mouse_8.clicked_name,textbox_3.text,mouse_9.x,mouse_9.y,mouse_9.leftButton,mouse_9.midButton,mouse_9.rightButton,mouse_9.clicked_name,textbox_4.text,mouse_12.x,mouse_12.y,mouse_12.leftButton,mouse_12.midButton,mouse_12.rightButton,mouse_12.clicked_name,textbox_5.text,mouse_13.x,mouse_13.y,mouse_13.leftButton,mouse_13.midButton,mouse_13.rightButton,mouse_13.clicked_name,textbox_6.text,mouse_14.x,mouse_14.y,mouse_14.leftButton,mouse_14.midButton,mouse_14.rightButton,textbox_7.text,mouse_15.x,mouse_15.y,mouse_15.leftButton,mouse_15.midButton,mouse_15.rightButton,mouse_15.clicked_name
0,0,0,18,1,,6128cecf0227785e527007c6,62c53a83cfff8ef2daef82de,2022-07-06_09h32.40.461,Colour_Asymmetry_Pilot,2022.1.3,Win32,61.61049843,62c50e9c1127f2cd403a315f,,,,,,,,,,,,,,,,,,,,,,,,,,,,,,,,,,,,,,,,,,,,,,,,,,,,,,,,,,,,,,,,,,,,,,,,,,,,,,,,,,,,,,,,,,,,,,,,,,,,,,,,,,,,,,,,,,,,,,,,,,,,,,,,,,,,,,,,,,,,,,,,,,,,,,,,,,,,,,,,,,
0,1,1,19,1,,6128cecf0227785e527007c6,62c53a83cfff8ef2daef82de,2022-07-06_09h32.40.461,Colour_Asymmetry_Pilot,2022.1.3,Win32,61.61049843,62c50e9c1127f2cd403a315f,,,,,,,,,,,,,,,,,,,,,,,,,,,,,,,,,,,,,,,,,,,,,,,,,,,,,,,,,,,,,,,,,,,,,,,,,,,,,,,,,,,,,,,,,,,,,,,,,,,,,,,,,,,,,,,,,,,,,,,,,,,,,,,,,,,,,,,,,,,,,,,,,,,,,,,,,,,,,,,,,,
0,2,2,15,1,,6128cecf0227785e527007c6,62c53a83cfff8ef2daef82de,2022-07-06_09h32.40.461,Colour_Asymmetry_Pilot,2022.1.3,Win32,61.61049843,62c50e9c1127f2cd403a315f,,,,,,,,,,,,,,,,,,,,,,,,,,,,,,,,,,,,,,,,,,,,,,,,,,,,,,,,,,,,,,,,,,,,,,,,,,,,,,,,,,,,,,,,,,,,,,,,,,,,,,,,,,,,,,,,,,,,,,,,,,,,,,,,,,,,,,,,,,,,,,,,,,,,,,,,,,,,,,,,,,
0,3,3,33,1,,6128cecf0227785e527007c6,62c53a83cfff8ef2daef82de,2022-07-06_09h32.40.461,Colour_Asymmetry_Pilot,2022.1.3,Win32,61.61049843,62c50e9c1127f2cd403a315f,,,,,,,,,,,,,,,,,,,,,,,,,,,,,,,,,,,,,,,,,,,,,,,,,,,,,,,,,,,,,,,,,,,,,,,,,,,,,,,,,,,,,,,,,,,,,,,,,,,,,,,,,,,,,,,,,,,,,,,,,,,,,,,,,,,,,,,,,,,,,,,,,,,,,,,,,,,,,,,,,,
0,4,4,11,1,,6128cecf0227785e527007c6,62c53a83cfff8ef2daef82de,2022-07-06_09h32.40.461,Colour_Asymmetry_Pilot,2022.1.3,Win32,61.61049843,62c50e9c1127f2cd403a315f,,,,,,,,,,,,,,,,,,,,,,,,,,,,,,,,,,,,,,,,,,,,,,,,,,,,,,,,,,,,,,,,,,,,,,,,,,,,,,,,,,,,,,,,,,,,,,,,,,,,,,,,,,,,,,,,,,,,,,,,,,,,,,,,,,,,,,,,,,,,,,,,,,,,,,,,,,,,,,,,,,
0,5,5,73,1,,6128cecf0227785e527007c6,62c53a83cfff8ef2daef82de,2022-07-06_09h32.40.461,Colour_Asymmetry_Pilot,2022.1.3,Win32,61.61049843,62c50e9c1127f2cd403a315f,,,,,,,,,,,,,,,,,,,,,,,,,,,,,,,,,,,,,,,,,,,,,,,,,,,,,,,,,,,,,,,,,,,,,,,,,,,,,,,,,,,,,,,,,,,,,,,,,,,,,,,,,,,,,,,,,,,,,,,,,,,,,,,,,,,,,,,,,,,,,,,,,,,,,,,,,,,,,,,,,,
0,6,6,7,1,,6128cecf0227785e527007c6,62c53a83cfff8ef2daef82de,2022-07-06_09h32.40.461,Colour_Asymmetry_Pilot,2022.1.3,Win32,61.61049843,62c50e9c1127f2cd403a315f,,,,,,,,,,,,,,,,,,,,,,,,,,,,,,,,,,,,,,,,,,,,,,,,,,,,,,,,,,,,,,,,,,,,,,,,,,,,,,,,,,,,,,,,,,,,,,,,,,,,,,,,,,,,,,,,,,,,,,,,,,,,,,,,,,,,,,,,,,,,,,,,,,,,,,,,,,,,,,,,,,
0,7,7,91,1,,6128cecf0227785e527007c6,62c53a83cfff8ef2daef82de,2022-07-06_09h32.40.461,Colour_Asymmetry_Pilot,2022.1.3,Win32,61.61049843,62c50e9c1127f2cd403a315f,,,,,,,,,,,,,,,,,,,,,,,,,,,,,,,,,,,,,,,,,,,,,,,,,,,,,,,,,,,,,,,,,,,,,,,,,,,,,,,,,,,,,,,,,,,,,,,,,,,,,,,,,,,,,,,,,,,,,,,,,,,,,,,,,,,,,,,,,,,,,,,,,,,,,,,,,,,,,,,,,,
0,8,8,28,1,,6128cecf0227785e527007c6,62c53a83cfff8ef2daef82de,2022-07-06_09h32.40.461,Colour_Asymmetry_Pilot,2022.1.3,Win32,61.61049843,62c50e9c1127f2cd403a315f,,,,,,,,,,,,,,,,,,,,,,,,,,,,,,,,,,,,,,,,,,,,,,,,,,,,,,,,,,,,,,,,,,,,,,,,,,,,,,,,,,,,,,,,,,,,,,,,,,,,,,,,,,,,,,,,,,,,,,,,,,,,,,,,,,,,,,,,,,,,,,,,,,,,,,,,,,,,,,,,,,
0,9,9,13,1,,6128cecf0227785e527007c6,62c53a83cfff8ef2daef82de,2022-07-06_09h32.40.461,Colour_Asymmetry_Pilot,2022.1.3,Win32,61.61049843,62c50e9c1127f2cd403a315f,,,,,,,,,,,,,,,,,,,,,,,,,,,,,,,,,,,,,,,,,,,,,,,,,,,,,,,,,,,,,,,,,,,,,,,,,,,,,,,,,,,,,,,,,,,,,,,,,,,,,,,,,,,,,,,,,,,,,,,,,,,,,,,,,,,,,,,,,,,,,,,,,,,,,,,,,,,,,,,,,,
0,10,10,71,1,,6128cecf0227785e527007c6,62c53a83cfff8ef2daef82de,2022-07-06_09h32.40.461,Colour_Asymmetry_Pilot,2022.1.3,Win32,61.61049843,62c50e9c1127f2cd403a315f,,,,,,,,,,,,,,,,,,,,,,,,,,,,,,,,,,,,,,,,,,,,,,,,,,,,,,,,,,,,,,,,,,,,,,,,,,,,,,,,,,,,,,,,,,,,,,,,,,,,,,,,,,,,,,,,,,,,,,,,,,,,,,,,,,,,,,,,,,,,,,,,,,,,,,,,,,,,,,,,,,
0,11,11,27,1,,6128cecf0227785e527007c6,62c53a83cfff8ef2daef82de,2022-07-06_09h32.40.461,Colour_Asymmetry_Pilot,2022.1.3,Win32,61.61049843,62c50e9c1127f2cd403a315f,,,,,,,,,,,,,,,,,,,,,,,,,,,,,,,,,,,,,,,,,,,,,,,,,,,,,,,,,,,,,,,,,,,,,,,,,,,,,,,,,,,,,,,,,,,,,,,,,,,,,,,,,,,,,,,,,,,,,,,,,,,,,,,,,,,,,,,,,,,,,,,,,,,,,,,,,,,,,,,,,,
0,12,12,53,1,,6128cecf0227785e527007c6,62c53a83cfff8ef2daef82de,2022-07-06_09h32.40.461,Colour_Asymmetry_Pilot,2022.1.3,Win32,61.61049843,62c50e9c1127f2cd403a315f,,,,,,,,,,,,,,,,,,,,,,,,,,,,,,,,,,,,,,,,,,,,,,,,,,,,,,,,,,,,,,,,,,,,,,,,,,,,,,,,,,,,,,,,,,,,,,,,,,,,,,,,,,,,,,,,,,,,,,,,,,,,,,,,,,,,,,,,,,,,,,,,,,,,,,,,,,,,,,,,,,
0,13,13,42,1,,6128cecf0227785e527007c6,62c53a83cfff8ef2daef82de,2022-07-06_09h32.40.461,Colour_Asymmetry_Pilot,2022.1.3,Win32,61.61049843,62c50e9c1127f2cd403a315f,,,,,,,,,,,,,,,,,,,,,,,,,,,,,,,,,,,,,,,,,,,,,,,,,,,,,,,,,,,,,,,,,,,,,,,,,,,,,,,,,,,,,,,,,,,,,,,,,,,,,,,,,,,,,,,,,,,,,,,,,,,,,,,,,,,,,,,,,,,,,,,,,,,,,,,,,,,,,,,,,,
0,14,14,59,1,,6128cecf0227785e527007c6,62c53a83cfff8ef2daef82de,2022-07-06_09h32.40.461,Colour_Asymmetry_Pilot,2022.1.3,Win32,61.61049843,62c50e9c1127f2cd403a315f,,,,,,,,,,,,,,,,,,,,,,,,,,,,,,,,,,,,,,,,,,,,,,,,,,,,,,,,,,,,,,,,,,,,,,,,,,,,,,,,,,,,,,,,,,,,,,,,,,,,,,,,,,,,,,,,,,,,,,,,,,,,,,,,,,,,,,,,,,,,,,,,,,,,,,,,,,,,,,,,,,
0,15,15,29,1,,6128cecf0227785e527007c6,62c53a83cfff8ef2daef82de,2022-07-06_09h32.40.461,Colour_Asymmetry_Pilot,2022.1.3,Win32,61.61049843,62c50e9c1127f2cd403a315f,,,,,,,,,,,,,,,,,,,,,,,,,,,,,,,,,,,,,,,,,,,,,,,,,,,,,,,,,,,,,,,,,,,,,,,,,,,,,,,,,,,,,,,,,,,,,,,,,,,,,,,,,,,,,,,,,,,,,,,,,,,,,,,,,,,,,,,,,,,,,,,,,,,,,,,,,,,,,,,,,,
0,16,16,51,1,,6128cecf0227785e527007c6,62c53a83cfff8ef2daef82de,2022-07-06_09h32.40.461,Colour_Asymmetry_Pilot,2022.1.3,Win32,61.61049843,62c50e9c1127f2cd403a315f,,,,,,,,,,,,,,,,,,,,,,,,,,,,,,,,,,,,,,,,,,,,,,,,,,,,,,,,,,,,,,,,,,,,,,,,,,,,,,,,,,,,,,,,,,,,,,,,,,,,,,,,,,,,,,,,,,,,,,,,,,,,,,,,,,,,,,,,,,,,,,,,,,,,,,,,,,,,,,,,,,
0,17,17,49,1,,6128cecf0227785e527007c6,62c53a83cfff8ef2daef82de,2022-07-06_09h32.40.461,Colour_Asymmetry_Pilot,2022.1.3,Win32,61.61049843,62c50e9c1127f2cd403a315f,,,,,,,,,,,,,,,,,,,,,,,,,,,,,,,,,,,,,,,,,,,,,,,,,,,,,,,,,,,,,,,,,,,,,,,,,,,,,,,,,,,,,,,,,,,,,,,,,,,,,,,,,,,,,,,,,,,,,,,,,,,,,,,,,,,,,,,,,,,,,,,,,,,,,,,,,,,,,,,,,,
0,18,18,34,1,,6128cecf0227785e527007c6,62c53a83cfff8ef2daef82de,2022-07-06_09h32.40.461,Colour_Asymmetry_Pilot,2022.1.3,Win32,61.61049843,62c50e9c1127f2cd403a315f,,,,,,,,,,,,,,,,,,,,,,,,,,,,,,,,,,,,,,,,,,,,,,,,,,,,,,,,,,,,,,,,,,,,,,,,,,,,,,,,,,,,,,,,,,,,,,,,,,,,,,,,,,,,,,,,,,,,,,,,,,,,,,,,,,,,,,,,,,,,,,,,,,,,,,,,,,,,,,,,,,
0,19,19,63,1,,6128cecf0227785e527007c6,62c53a83cfff8ef2daef82de,2022-07-06_09h32.40.461,Colour_Asymmetry_Pilot,2022.1.3,Win32,61.61049843,62c50e9c1127f2cd403a315f,,,,,,,,,,,,,,,,,,,,,,,,,,,,,,,,,,,,,,,,,,,,,,,,,,,,,,,,,,,,,,,,,,,,,,,,,,,,,,,,,,,,,,,,,,,,,,,,,,,,,,,,,,,,,,,,,,,,,,,,,,,,,,,,,,,,,,,,,,,,,,,,,,,,,,,,,,,,,,,,,,
0,20,20,16,1,,6128cecf0227785e527007c6,62c53a83cfff8ef2daef82de,2022-07-06_09h32.40.461,Colour_Asymmetry_Pilot,2022.1.3,Win32,61.61049843,62c50e9c1127f2cd403a315f,,,,,,,,,,,,,,,,,,,,,,,,,,,,,,,,,,,,,,,,,,,,,,,,,,,,,,,,,,,,,,,,,,,,,,,,,,,,,,,,,,,,,,,,,,,,,,,,,,,,,,,,,,,,,,,,,,,,,,,,,,,,,,,,,,,,,,,,,,,,,,,,,,,,,,,,,,,,,,,,,,
0,21,21,31,1,,6128cecf0227785e527007c6,62c53a83cfff8ef2daef82de,2022-07-06_09h32.40.461,Colour_Asymmetry_Pilot,2022.1.3,Win32,61.61049843,62c50e9c1127f2cd403a315f,,,,,,,,,,,,,,,,,,,,,,,,,,,,,,,,,,,,,,,,,,,,,,,,,,,,,,,,,,,,,,,,,,,,,,,,,,,,,,,,,,,,,,,,,,,,,,,,,,,,,,,,,,,,,,,,,,,,,,,,,,,,,,,,,,,,,,,,,,,,,,,,,,,,,,,,,,,,,,,,,,
0,22,22,79,1,,6128cecf0227785e527007c6,62c53a83cfff8ef2daef82de,2022-07-06_09h32.40.461,Colour_Asymmetry_Pilot,2022.1.3,Win32,61.61049843,62c50e9c1127f2cd403a315f,,,,,,,,,,,,,,,,,,,,,,,,,,,,,,,,,,,,,,,,,,,,,,,,,,,,,,,,,,,,,,,,,,,,,,,,,,,,,,,,,,,,,,,,,,,,,,,,,,,,,,,,,,,,,,,,,,,,,,,,,,,,,,,,,,,,,,,,,,,,,,,,,,,,,,,,,,,,,,,,,,
0,23,23,48,1,,6128cecf0227785e527007c6,62c53a83cfff8ef2daef82de,2022-07-06_09h32.40.461,Colour_Asymmetry_Pilot,2022.1.3,Win32,61.61049843,62c50e9c1127f2cd403a315f,,,,,,,,,,,,,,,,,,,,,,,,,,,,,,,,,,,,,,,,,,,,,,,,,,,,,,,,,,,,,,,,,,,,,,,,,,,,,,,,,,,,,,,,,,,,,,,,,,,,,,,,,,,,,,,,,,,,,,,,,,,,,,,,,,,,,,,,,,,,,,,,,,,,,,,,,,,,,,,,,,
0,24,24,56,1,,6128cecf0227785e527007c6,62c53a83cfff8ef2daef82de,2022-07-06_09h32.40.461,Colour_Asymmetry_Pilot,2022.1.3,Win32,61.61049843,62c50e9c1127f2cd403a315f,,,,,,,,,,,,,,,,,,,,,,,,,,,,,,,,,,,,,,,,,,,,,,,,,,,,,,,,,,,,,,,,,,,,,,,,,,,,,,,,,,,,,,,,,,,,,,,,,,,,,,,,,,,,,,,,,,,,,,,,,,,,,,,,,,,,,,,,,,,,,,,,,,,,,,,,,,,,,,,,,,
0,25,25,35,1,,6128cecf0227785e527007c6,62c53a83cfff8ef2daef82de,2022-07-06_09h32.40.461,Colour_Asymmetry_Pilot,2022.1.3,Win32,61.61049843,62c50e9c1127f2cd403a315f,,,,,,,,,,,,,,,,,,,,,,,,,,,,,,,,,,,,,,,,,,,,,,,,,,,,,,,,,,,,,,,,,,,,,,,,,,,,,,,,,,,,,,,,,,,,,,,,,,,,,,,,,,,,,,,,,,,,,,,,,,,,,,,,,,,,,,,,,,,,,,,,,,,,,,,,,,,,,,,,,,
0,26,26,2,1,,6128cecf0227785e527007c6,62c53a83cfff8ef2daef82de,2022-07-06_09h32.40.461,Colour_Asymmetry_Pilot,2022.1.3,Win32,61.61049843,62c50e9c1127f2cd403a315f,,,,,,,,,,,,,,,,,,,,,,,,,,,,,,,,,,,,,,,,,,,,,,,,,,,,,,,,,,,,,,,,,,,,,,,,,,,,,,,,,,,,,,,,,,,,,,,,,,,,,,,,,,,,,,,,,,,,,,,,,,,,,,,,,,,,,,,,,,,,,,,,,,,,,,,,,,,,,,,,,,
0,27,27,54,1,,6128cecf0227785e527007c6,62c53a83cfff8ef2daef82de,2022-07-06_09h32.40.461,Colour_Asymmetry_Pilot,2022.1.3,Win32,61.61049843,62c50e9c1127f2cd403a315f,,,,,,,,,,,,,,,,,,,,,,,,,,,,,,,,,,,,,,,,,,,,,,,,,,,,,,,,,,,,,,,,,,,,,,,,,,,,,,,,,,,,,,,,,,,,,,,,,,,,,,,,,,,,,,,,,,,,,,,,,,,,,,,,,,,,,,,,,,,,,,,,,,,,,,,,,,,,,,,,,,
0,28,28,66,1,,6128cecf0227785e527007c6,62c53a83cfff8ef2daef82de,2022-07-06_09h32.40.461,Colour_Asymmetry_Pilot,2022.1.3,Win32,61.61049843,62c50e9c1127f2cd403a315f,,,,,,,,,,,,,,,,,,,,,,,,,,,,,,,,,,,,,,,,,,,,,,,,,,,,,,,,,,,,,,,,,,,,,,,,,,,,,,,,,,,,,,,,,,,,,,,,,,,,,,,,,,,,,,,,,,,,,,,,,,,,,,,,,,,,,,,,,,,,,,,,,,,,,,,,,,,,,,,,,,
0,29,29,77,1,,6128cecf0227785e527007c6,62c53a83cfff8ef2daef82de,2022-07-06_09h32.40.461,Colour_Asymmetry_Pilot,2022.1.3,Win32,61.61049843,62c50e9c1127f2cd403a315f,,,,,,,,,,,,,,,,,,,,,,,,,,,,,,,,,,,,,,,,,,,,,,,,,,,,,,,,,,,,,,,,,,,,,,,,,,,,,,,,,,,,,,,,,,,,,,,,,,,,,,,,,,,,,,,,,,,,,,,,,,,,,,,,,,,,,,,,,,,,,,,,,,,,,,,,,,,,,,,,,,
0,30,30,45,1,,6128cecf0227785e527007c6,62c53a83cfff8ef2daef82de,2022-07-06_09h32.40.461,Colour_Asymmetry_Pilot,2022.1.3,Win32,61.61049843,62c50e9c1127f2cd403a315f,,,,,,,,,,,,,,,,,,,,,,,,,,,,,,,,,,,,,,,,,,,,,,,,,,,,,,,,,,,,,,,,,,,,,,,,,,,,,,,,,,,,,,,,,,,,,,,,,,,,,,,,,,,,,,,,,,,,,,,,,,,,,,,,,,,,,,,,,,,,,,,,,,,,,,,,,,,,,,,,,,
0,31,31,43,1,,6128cecf0227785e527007c6,62c53a83cfff8ef2daef82de,2022-07-06_09h32.40.461,Colour_Asymmetry_Pilot,2022.1.3,Win32,61.61049843,62c50e9c1127f2cd403a315f,,,,,,,,,,,,,,,,,,,,,,,,,,,,,,,,,,,,,,,,,,,,,,,,,,,,,,,,,,,,,,,,,,,,,,,,,,,,,,,,,,,,,,,,,,,,,,,,,,,,,,,,,,,,,,,,,,,,,,,,,,,,,,,,,,,,,,,,,,,,,,,,,,,,,,,,,,,,,,,,,,
0,32,32,1,1,,6128cecf0227785e527007c6,62c53a83cfff8ef2daef82de,2022-07-06_09h32.40.461,Colour_Asymmetry_Pilot,2022.1.3,Win32,61.61049843,62c50e9c1127f2cd403a315f,,,,,,,,,,,,,,,,,,,,,,,,,,,,,,,,,,,,,,,,,,,,,,,,,,,,,,,,,,,,,,,,,,,,,,,,,,,,,,,,,,,,,,,,,,,,,,,,,,,,,,,,,,,,,,,,,,,,,,,,,,,,,,,,,,,,,,,,,,,,,,,,,,,,,,,,,,,,,,,,,,
0,33,33,70,1,,6128cecf0227785e527007c6,62c53a83cfff8ef2daef82de,2022-07-06_09h32.40.461,Colour_Asymmetry_Pilot,2022.1.3,Win32,61.61049843,62c50e9c1127f2cd403a315f,,,,,,,,,,,,,,,,,,,,,,,,,,,,,,,,,,,,,,,,,,,,,,,,,,,,,,,,,,,,,,,,,,,,,,,,,,,,,,,,,,,,,,,,,,,,,,,,,,,,,,,,,,,,,,,,,,,,,,,,,,,,,,,,,,,,,,,,,,,,,,,,,,,,,,,,,,,,,,,,,,
0,34,34,81,1,,6128cecf0227785e527007c6,62c53a83cfff8ef2daef82de,2022-07-06_09h32.40.461,Colour_Asymmetry_Pilot,2022.1.3,Win32,61.61049843,62c50e9c1127f2cd403a315f,,,,,,,,,,,,,,,,,,,,,,,,,,,,,,,,,,,,,,,,,,,,,,,,,,,,,,,,,,,,,,,,,,,,,,,,,,,,,,,,,,,,,,,,,,,,,,,,,,,,,,,,,,,,,,,,,,,,,,,,,,,,,,,,,,,,,,,,,,,,,,,,,,,,,,,,,,,,,,,,,,
0,35,35,76,1,,6128cecf0227785e527007c6,62c53a83cfff8ef2daef82de,2022-07-06_09h32.40.461,Colour_Asymmetry_Pilot,2022.1.3,Win32,61.61049843,62c50e9c1127f2cd403a315f,,,,,,,,,,,,,,,,,,,,,,,,,,,,,,,,,,,,,,,,,,,,,,,,,,,,,,,,,,,,,,,,,,,,,,,,,,,,,,,,,,,,,,,,,,,,,,,,,,,,,,,,,,,,,,,,,,,,,,,,,,,,,,,,,,,,,,,,,,,,,,,,,,,,,,,,,,,,,,,,,,
0,36,36,10,1,,6128cecf0227785e527007c6,62c53a83cfff8ef2daef82de,2022-07-06_09h32.40.461,Colour_Asymmetry_Pilot,2022.1.3,Win32,61.61049843,62c50e9c1127f2cd403a315f,,,,,,,,,,,,,,,,,,,,,,,,,,,,,,,,,,,,,,,,,,,,,,,,,,,,,,,,,,,,,,,,,,,,,,,,,,,,,,,,,,,,,,,,,,,,,,,,,,,,,,,,,,,,,,,,,,,,,,,,,,,,,,,,,,,,,,,,,,,,,,,,,,,,,,,,,,,,,,,,,,
0,37,37,64,1,,6128cecf0227785e527007c6,62c53a83cfff8ef2daef82de,2022-07-06_09h32.40.461,Colour_Asymmetry_Pilot,2022.1.3,Win32,61.61049843,62c50e9c1127f2cd403a315f,,,,,,,,,,,,,,,,,,,,,,,,,,,,,,,,,,,,,,,,,,,,,,,,,,,,,,,,,,,,,,,,,,,,,,,,,,,,,,,,,,,,,,,,,,,,,,,,,,,,,,,,,,,,,,,,,,,,,,,,,,,,,,,,,,,,,,,,,,,,,,,,,,,,,,,,,,,,,,,,,,
0,38,38,84,1,,6128cecf0227785e527007c6,62c53a83cfff8ef2daef82de,2022-07-06_09h32.40.461,Colour_Asymmetry_Pilot,2022.1.3,Win32,61.61049843,62c50e9c1127f2cd403a315f,,,,,,,,,,,,,,,,,,,,,,,,,,,,,,,,,,,,,,,,,,,,,,,,,,,,,,,,,,,,,,,,,,,,,,,,,,,,,,,,,,,,,,,,,,,,,,,,,,,,,,,,,,,,,,,,,,,,,,,,,,,,,,,,,,,,,,,,,,,,,,,,,,,,,,,,,,,,,,,,,,
0,39,39,58,1,,6128cecf0227785e527007c6,62c53a83cfff8ef2daef82de,2022-07-06_09h32.40.461,Colour_Asymmetry_Pilot,2022.1.3,Win32,61.61049843,62c50e9c1127f2cd403a315f,,,,,,,,,,,,,,,,,,,,,,,,,,,,,,,,,,,,,,,,,,,,,,,,,,,,,,,,,,,,,,,,,,,,,,,,,,,,,,,,,,,,,,,,,,,,,,,,,,,,,,,,,,,,,,,,,,,,,,,,,,,,,,,,,,,,,,,,,,,,,,,,,,,,,,,,,,,,,,,,,,
0,40,40,65,1,,6128cecf0227785e527007c6,62c53a83cfff8ef2daef82de,2022-07-06_09h32.40.461,Colour_Asymmetry_Pilot,2022.1.3,Win32,61.61049843,62c50e9c1127f2cd403a315f,,,,,,,,,,,,,,,,,,,,,,,,,,,,,,,,,,,,,,,,,,,,,,,,,,,,,,,,,,,,,,,,,,,,,,,,,,,,,,,,,,,,,,,,,,,,,,,,,,,,,,,,,,,,,,,,,,,,,,,,,,,,,,,,,,,,,,,,,,,,,,,,,,,,,,,,,,,,,,,,,,
0,41,41,14,1,,6128cecf0227785e527007c6,62c53a83cfff8ef2daef82de,2022-07-06_09h32.40.461,Colour_Asymmetry_Pilot,2022.1.3,Win32,61.61049843,62c50e9c1127f2cd403a315f,,,,,,,,,,,,,,,,,,,,,,,,,,,,,,,,,,,,,,,,,,,,,,,,,,,,,,,,,,,,,,,,,,,,,,,,,,,,,,,,,,,,,,,,,,,,,,,,,,,,,,,,,,,,,,,,,,,,,,,,,,,,,,,,,,,,,,,,,,,,,,,,,,,,,,,,,,,,,,,,,,
0,42,42,23,1,,6128cecf0227785e527007c6,62c53a83cfff8ef2daef82de,2022-07-06_09h32.40.461,Colour_Asymmetry_Pilot,2022.1.3,Win32,61.61049843,62c50e9c1127f2cd403a315f,,,,,,,,,,,,,,,,,,,,,,,,,,,,,,,,,,,,,,,,,,,,,,,,,,,,,,,,,,,,,,,,,,,,,,,,,,,,,,,,,,,,,,,,,,,,,,,,,,,,,,,,,,,,,,,,,,,,,,,,,,,,,,,,,,,,,,,,,,,,,,,,,,,,,,,,,,,,,,,,,,
0,43,43,67,1,,6128cecf0227785e527007c6,62c53a83cfff8ef2daef82de,2022-07-06_09h32.40.461,Colour_Asymmetry_Pilot,2022.1.3,Win32,61.61049843,62c50e9c1127f2cd403a315f,,,,,,,,,,,,,,,,,,,,,,,,,,,,,,,,,,,,,,,,,,,,,,,,,,,,,,,,,,,,,,,,,,,,,,,,,,,,,,,,,,,,,,,,,,,,,,,,,,,,,,,,,,,,,,,,,,,,,,,,,,,,,,,,,,,,,,,,,,,,,,,,,,,,,,,,,,,,,,,,,,
0,44,44,17,1,,6128cecf0227785e527007c6,62c53a83cfff8ef2daef82de,2022-07-06_09h32.40.461,Colour_Asymmetry_Pilot,2022.1.3,Win32,61.61049843,62c50e9c1127f2cd403a315f,,,,,,,,,,,,,,,,,,,,,,,,,,,,,,,,,,,,,,,,,,,,,,,,,,,,,,,,,,,,,,,,,,,,,,,,,,,,,,,,,,,,,,,,,,,,,,,,,,,,,,,,,,,,,,,,,,,,,,,,,,,,,,,,,,,,,,,,,,,,,,,,,,,,,,,,,,,,,,,,,,
0,45,45,50,1,,6128cecf0227785e527007c6,62c53a83cfff8ef2daef82de,2022-07-06_09h32.40.461,Colour_Asymmetry_Pilot,2022.1.3,Win32,61.61049843,62c50e9c1127f2cd403a315f,,,,,,,,,,,,,,,,,,,,,,,,,,,,,,,,,,,,,,,,,,,,,,,,,,,,,,,,,,,,,,,,,,,,,,,,,,,,,,,,,,,,,,,,,,,,,,,,,,,,,,,,,,,,,,,,,,,,,,,,,,,,,,,,,,,,,,,,,,,,,,,,,,,,,,,,,,,,,,,,,,
0,46,46,60,1,,6128cecf0227785e527007c6,62c53a83cfff8ef2daef82de,2022-07-06_09h32.40.461,Colour_Asymmetry_Pilot,2022.1.3,Win32,61.61049843,62c50e9c1127f2cd403a315f,,,,,,,,,,,,,,,,,,,,,,,,,,,,,,,,,,,,,,,,,,,,,,,,,,,,,,,,,,,,,,,,,,,,,,,,,,,,,,,,,,,,,,,,,,,,,,,,,,,,,,,,,,,,,,,,,,,,,,,,,,,,,,,,,,,,,,,,,,,,,,,,,,,,,,,,,,,,,,,,,,
0,47,47,80,1,,6128cecf0227785e527007c6,62c53a83cfff8ef2daef82de,2022-07-06_09h32.40.461,Colour_Asymmetry_Pilot,2022.1.3,Win32,61.61049843,62c50e9c1127f2cd403a315f,,,,,,,,,,,,,,,,,,,,,,,,,,,,,,,,,,,,,,,,,,,,,,,,,,,,,,,,,,,,,,,,,,,,,,,,,,,,,,,,,,,,,,,,,,,,,,,,,,,,,,,,,,,,,,,,,,,,,,,,,,,,,,,,,,,,,,,,,,,,,,,,,,,,,,,,,,,,,,,,,,
0,48,48,37,1,,6128cecf0227785e527007c6,62c53a83cfff8ef2daef82de,2022-07-06_09h32.40.461,Colour_Asymmetry_Pilot,2022.1.3,Win32,61.61049843,62c50e9c1127f2cd403a315f,,,,,,,,,,,,,,,,,,,,,,,,,,,,,,,,,,,,,,,,,,,,,,,,,,,,,,,,,,,,,,,,,,,,,,,,,,,,,,,,,,,,,,,,,,,,,,,,,,,,,,,,,,,,,,,,,,,,,,,,,,,,,,,,,,,,,,,,,,,,,,,,,,,,,,,,,,,,,,,,,,
0,49,49,4,1,,6128cecf0227785e527007c6,62c53a83cfff8ef2daef82de,2022-07-06_09h32.40.461,Colour_Asymmetry_Pilot,2022.1.3,Win32,61.61049843,62c50e9c1127f2cd403a315f,,,,,,,,,,,,,,,,,,,,,,,,,,,,,,,,,,,,,,,,,,,,,,,,,,,,,,,,,,,,,,,,,,,,,,,,,,,,,,,,,,,,,,,,,,,,,,,,,,,,,,,,,,,,,,,,,,,,,,,,,,,,,,,,,,,,,,,,,,,,,,,,,,,,,,,,,,,,,,,,,,
0,50,50,69,1,,6128cecf0227785e527007c6,62c53a83cfff8ef2daef82de,2022-07-06_09h32.40.461,Colour_Asymmetry_Pilot,2022.1.3,Win32,61.61049843,62c50e9c1127f2cd403a315f,,,,,,,,,,,,,,,,,,,,,,,,,,,,,,,,,,,,,,,,,,,,,,,,,,,,,,,,,,,,,,,,,,,,,,,,,,,,,,,,,,,,,,,,,,,,,,,,,,,,,,,,,,,,,,,,,,,,,,,,,,,,,,,,,,,,,,,,,,,,,,,,,,,,,,,,,,,,,,,,,,
0,51,51,41,1,,6128cecf0227785e527007c6,62c53a83cfff8ef2daef82de,2022-07-06_09h32.40.461,Colour_Asymmetry_Pilot,2022.1.3,Win32,61.61049843,62c50e9c1127f2cd403a315f,,,,,,,,,,,,,,,,,,,,,,,,,,,,,,,,,,,,,,,,,,,,,,,,,,,,,,,,,,,,,,,,,,,,,,,,,,,,,,,,,,,,,,,,,,,,,,,,,,,,,,,,,,,,,,,,,,,,,,,,,,,,,,,,,,,,,,,,,,,,,,,,,,,,,,,,,,,,,,,,,,
0,52,52,75,1,,6128cecf0227785e527007c6,62c53a83cfff8ef2daef82de,2022-07-06_09h32.40.461,Colour_Asymmetry_Pilot,2022.1.3,Win32,61.61049843,62c50e9c1127f2cd403a315f,,,,,,,,,,,,,,,,,,,,,,,,,,,,,,,,,,,,,,,,,,,,,,,,,,,,,,,,,,,,,,,,,,,,,,,,,,,,,,,,,,,,,,,,,,,,,,,,,,,,,,,,,,,,,,,,,,,,,,,,,,,,,,,,,,,,,,,,,,,,,,,,,,,,,,,,,,,,,,,,,,
0,53,53,22,1,,6128cecf0227785e527007c6,62c53a83cfff8ef2daef82de,2022-07-06_09h32.40.461,Colour_Asymmetry_Pilot,2022.1.3,Win32,61.61049843,62c50e9c1127f2cd403a315f,,,,,,,,,,,,,,,,,,,,,,,,,,,,,,,,,,,,,,,,,,,,,,,,,,,,,,,,,,,,,,,,,,,,,,,,,,,,,,,,,,,,,,,,,,,,,,,,,,,,,,,,,,,,,,,,,,,,,,,,,,,,,,,,,,,,,,,,,,,,,,,,,,,,,,,,,,,,,,,,,,
0,54,54,78,1,,6128cecf0227785e527007c6,62c53a83cfff8ef2daef82de,2022-07-06_09h32.40.461,Colour_Asymmetry_Pilot,2022.1.3,Win32,61.61049843,62c50e9c1127f2cd403a315f,,,,,,,,,,,,,,,,,,,,,,,,,,,,,,,,,,,,,,,,,,,,,,,,,,,,,,,,,,,,,,,,,,,,,,,,,,,,,,,,,,,,,,,,,,,,,,,,,,,,,,,,,,,,,,,,,,,,,,,,,,,,,,,,,,,,,,,,,,,,,,,,,,,,,,,,,,,,,,,,,,
0,55,55,9,1,,6128cecf0227785e527007c6,62c53a83cfff8ef2daef82de,2022-07-06_09h32.40.461,Colour_Asymmetry_Pilot,2022.1.3,Win32,61.61049843,62c50e9c1127f2cd403a315f,,,,,,,,,,,,,,,,,,,,,,,,,,,,,,,,,,,,,,,,,,,,,,,,,,,,,,,,,,,,,,,,,,,,,,,,,,,,,,,,,,,,,,,,,,,,,,,,,,,,,,,,,,,,,,,,,,,,,,,,,,,,,,,,,,,,,,,,,,,,,,,,,,,,,,,,,,,,,,,,,,
0,56,56,90,1,,6128cecf0227785e527007c6,62c53a83cfff8ef2daef82de,2022-07-06_09h32.40.461,Colour_Asymmetry_Pilot,2022.1.3,Win32,61.61049843,62c50e9c1127f2cd403a315f,,,,,,,,,,,,,,,,,,,,,,,,,,,,,,,,,,,,,,,,,,,,,,,,,,,,,,,,,,,,,,,,,,,,,,,,,,,,,,,,,,,,,,,,,,,,,,,,,,,,,,,,,,,,,,,,,,,,,,,,,,,,,,,,,,,,,,,,,,,,,,,,,,,,,,,,,,,,,,,,,,
0,57,57,62,1,,6128cecf0227785e527007c6,62c53a83cfff8ef2daef82de,2022-07-06_09h32.40.461,Colour_Asymmetry_Pilot,2022.1.3,Win32,61.61049843,62c50e9c1127f2cd403a315f,,,,,,,,,,,,,,,,,,,,,,,,,,,,,,,,,,,,,,,,,,,,,,,,,,,,,,,,,,,,,,,,,,,,,,,,,,,,,,,,,,,,,,,,,,,,,,,,,,,,,,,,,,,,,,,,,,,,,,,,,,,,,,,,,,,,,,,,,,,,,,,,,,,,,,,,,,,,,,,,,,
0,58,58,39,1,,6128cecf0227785e527007c6,62c53a83cfff8ef2daef82de,2022-07-06_09h32.40.461,Colour_Asymmetry_Pilot,2022.1.3,Win32,61.61049843,62c50e9c1127f2cd403a315f,,,,,,,,,,,,,,,,,,,,,,,,,,,,,,,,,,,,,,,,,,,,,,,,,,,,,,,,,,,,,,,,,,,,,,,,,,,,,,,,,,,,,,,,,,,,,,,,,,,,,,,,,,,,,,,,,,,,,,,,,,,,,,,,,,,,,,,,,,,,,,,,,,,,,,,,,,,,,,,,,,
0,59,59,44,1,,6128cecf0227785e527007c6,62c53a83cfff8ef2daef82de,2022-07-06_09h32.40.461,Colour_Asymmetry_Pilot,2022.1.3,Win32,61.61049843,62c50e9c1127f2cd403a315f,,,,,,,,,,,,,,,,,,,,,,,,,,,,,,,,,,,,,,,,,,,,,,,,,,,,,,,,,,,,,,,,,,,,,,,,,,,,,,,,,,,,,,,,,,,,,,,,,,,,,,,,,,,,,,,,,,,,,,,,,,,,,,,,,,,,,,,,,,,,,,,,,,,,,,,,,,,,,,,,,,
0,60,60,72,1,,6128cecf0227785e527007c6,62c53a83cfff8ef2daef82de,2022-07-06_09h32.40.461,Colour_Asymmetry_Pilot,2022.1.3,Win32,61.61049843,62c50e9c1127f2cd403a315f,,,,,,,,,,,,,,,,,,,,,,,,,,,,,,,,,,,,,,,,,,,,,,,,,,,,,,,,,,,,,,,,,,,,,,,,,,,,,,,,,,,,,,,,,,,,,,,,,,,,,,,,,,,,,,,,,,,,,,,,,,,,,,,,,,,,,,,,,,,,,,,,,,,,,,,,,,,,,,,,,,
0,61,61,83,1,,6128cecf0227785e527007c6,62c53a83cfff8ef2daef82de,2022-07-06_09h32.40.461,Colour_Asymmetry_Pilot,2022.1.3,Win32,61.61049843,62c50e9c1127f2cd403a315f,,,,,,,,,,,,,,,,,,,,,,,,,,,,,,,,,,,,,,,,,,,,,,,,,,,,,,,,,,,,,,,,,,,,,,,,,,,,,,,,,,,,,,,,,,,,,,,,,,,,,,,,,,,,,,,,,,,,,,,,,,,,,,,,,,,,,,,,,,,,,,,,,,,,,,,,,,,,,,,,,,
0,62,62,38,1,,6128cecf0227785e527007c6,62c53a83cfff8ef2daef82de,2022-07-06_09h32.40.461,Colour_Asymmetry_Pilot,2022.1.3,Win32,61.61049843,62c50e9c1127f2cd403a315f,,,,,,,,,,,,,,,,,,,,,,,,,,,,,,,,,,,,,,,,,,,,,,,,,,,,,,,,,,,,,,,,,,,,,,,,,,,,,,,,,,,,,,,,,,,,,,,,,,,,,,,,,,,,,,,,,,,,,,,,,,,,,,,,,,,,,,,,,,,,,,,,,,,,,,,,,,,,,,,,,,
0,63,63,3,1,,6128cecf0227785e527007c6,62c53a83cfff8ef2daef82de,2022-07-06_09h32.40.461,Colour_Asymmetry_Pilot,2022.1.3,Win32,61.61049843,62c50e9c1127f2cd403a315f,,,,,,,,,,,,,,,,,,,,,,,,,,,,,,,,,,,,,,,,,,,,,,,,,,,,,,,,,,,,,,,,,,,,,,,,,,,,,,,,,,,,,,,,,,,,,,,,,,,,,,,,,,,,,,,,,,,,,,,,,,,,,,,,,,,,,,,,,,,,,,,,,,,,,,,,,,,,,,,,,,
0,64,64,68,1,,6128cecf0227785e527007c6,62c53a83cfff8ef2daef82de,2022-07-06_09h32.40.461,Colour_Asymmetry_Pilot,2022.1.3,Win32,61.61049843,62c50e9c1127f2cd403a315f,,,,,,,,,,,,,,,,,,,,,,,,,,,,,,,,,,,,,,,,,,,,,,,,,,,,,,,,,,,,,,,,,,,,,,,,,,,,,,,,,,,,,,,,,,,,,,,,,,,,,,,,,,,,,,,,,,,,,,,,,,,,,,,,,,,,,,,,,,,,,,,,,,,,,,,,,,,,,,,,,,
0,65,65,55,1,,6128cecf0227785e527007c6,62c53a83cfff8ef2daef82de,2022-07-06_09h32.40.461,Colour_Asymmetry_Pilot,2022.1.3,Win32,61.61049843,62c50e9c1127f2cd403a315f,,,,,,,,,,,,,,,,,,,,,,,,,,,,,,,,,,,,,,,,,,,,,,,,,,,,,,,,,,,,,,,,,,,,,,,,,,,,,,,,,,,,,,,,,,,,,,,,,,,,,,,,,,,,,,,,,,,,,,,,,,,,,,,,,,,,,,,,,,,,,,,,,,,,,,,,,,,,,,,,,,
0,66,66,20,1,,6128cecf0227785e527007c6,62c53a83cfff8ef2daef82de,2022-07-06_09h32.40.461,Colour_Asymmetry_Pilot,2022.1.3,Win32,61.61049843,62c50e9c1127f2cd403a315f,,,,,,,,,,,,,,,,,,,,,,,,,,,,,,,,,,,,,,,,,,,,,,,,,,,,,,,,,,,,,,,,,,,,,,,,,,,,,,,,,,,,,,,,,,,,,,,,,,,,,,,,,,,,,,,,,,,,,,,,,,,,,,,,,,,,,,,,,,,,,,,,,,,,,,,,,,,,,,,,,,
0,67,67,47,1,,6128cecf0227785e527007c6,62c53a83cfff8ef2daef82de,2022-07-06_09h32.40.461,Colour_Asymmetry_Pilot,2022.1.3,Win32,61.61049843,62c50e9c1127f2cd403a315f,,,,,,,,,,,,,,,,,,,,,,,,,,,,,,,,,,,,,,,,,,,,,,,,,,,,,,,,,,,,,,,,,,,,,,,,,,,,,,,,,,,,,,,,,,,,,,,,,,,,,,,,,,,,,,,,,,,,,,,,,,,,,,,,,,,,,,,,,,,,,,,,,,,,,,,,,,,,,,,,,,
0,68,68,40,1,,6128cecf0227785e527007c6,62c53a83cfff8ef2daef82de,2022-07-06_09h32.40.461,Colour_Asymmetry_Pilot,2022.1.3,Win32,61.61049843,62c50e9c1127f2cd403a315f,,,,,,,,,,,,,,,,,,,,,,,,,,,,,,,,,,,,,,,,,,,,,,,,,,,,,,,,,,,,,,,,,,,,,,,,,,,,,,,,,,,,,,,,,,,,,,,,,,,,,,,,,,,,,,,,,,,,,,,,,,,,,,,,,,,,,,,,,,,,,,,,,,,,,,,,,,,,,,,,,,
0,69,69,26,1,,6128cecf0227785e527007c6,62c53a83cfff8ef2daef82de,2022-07-06_09h32.40.461,Colour_Asymmetry_Pilot,2022.1.3,Win32,61.61049843,62c50e9c1127f2cd403a315f,,,,,,,,,,,,,,,,,,,,,,,,,,,,,,,,,,,,,,,,,,,,,,,,,,,,,,,,,,,,,,,,,,,,,,,,,,,,,,,,,,,,,,,,,,,,,,,,,,,,,,,,,,,,,,,,,,,,,,,,,,,,,,,,,,,,,,,,,,,,,,,,,,,,,,,,,,,,,,,,,,
0,70,70,32,1,,6128cecf0227785e527007c6,62c53a83cfff8ef2daef82de,2022-07-06_09h32.40.461,Colour_Asymmetry_Pilot,2022.1.3,Win32,61.61049843,62c50e9c1127f2cd403a315f,,,,,,,,,,,,,,,,,,,,,,,,,,,,,,,,,,,,,,,,,,,,,,,,,,,,,,,,,,,,,,,,,,,,,,,,,,,,,,,,,,,,,,,,,,,,,,,,,,,,,,,,,,,,,,,,,,,,,,,,,,,,,,,,,,,,,,,,,,,,,,,,,,,,,,,,,,,,,,,,,,
0,71,71,36,1,,6128cecf0227785e527007c6,62c53a83cfff8ef2daef82de,2022-07-06_09h32.40.461,Colour_Asymmetry_Pilot,2022.1.3,Win32,61.61049843,62c50e9c1127f2cd403a315f,,,,,,,,,,,,,,,,,,,,,,,,,,,,,,,,,,,,,,,,,,,,,,,,,,,,,,,,,,,,,,,,,,,,,,,,,,,,,,,,,,,,,,,,,,,,,,,,,,,,,,,,,,,,,,,,,,,,,,,,,,,,,,,,,,,,,,,,,,,,,,,,,,,,,,,,,,,,,,,,,,
0,72,72,85,1,,6128cecf0227785e527007c6,62c53a83cfff8ef2daef82de,2022-07-06_09h32.40.461,Colour_Asymmetry_Pilot,2022.1.3,Win32,61.61049843,62c50e9c1127f2cd403a315f,,,,,,,,,,,,,,,,,,,,,,,,,,,,,,,,,,,,,,,,,,,,,,,,,,,,,,,,,,,,,,,,,,,,,,,,,,,,,,,,,,,,,,,,,,,,,,,,,,,,,,,,,,,,,,,,,,,,,,,,,,,,,,,,,,,,,,,,,,,,,,,,,,,,,,,,,,,,,,,,,,
0,73,73,82,1,,6128cecf0227785e527007c6,62c53a83cfff8ef2daef82de,2022-07-06_09h32.40.461,Colour_Asymmetry_Pilot,2022.1.3,Win32,61.61049843,62c50e9c1127f2cd403a315f,,,,,,,,,,,,,,,,,,,,,,,,,,,,,,,,,,,,,,,,,,,,,,,,,,,,,,,,,,,,,,,,,,,,,,,,,,,,,,,,,,,,,,,,,,,,,,,,,,,,,,,,,,,,,,,,,,,,,,,,,,,,,,,,,,,,,,,,,,,,,,,,,,,,,,,,,,,,,,,,,,
0,74,74,74,1,,6128cecf0227785e527007c6,62c53a83cfff8ef2daef82de,2022-07-06_09h32.40.461,Colour_Asymmetry_Pilot,2022.1.3,Win32,61.61049843,62c50e9c1127f2cd403a315f,,,,,,,,,,,,,,,,,,,,,,,,,,,,,,,,,,,,,,,,,,,,,,,,,,,,,,,,,,,,,,,,,,,,,,,,,,,,,,,,,,,,,,,,,,,,,,,,,,,,,,,,,,,,,,,,,,,,,,,,,,,,,,,,,,,,,,,,,,,,,,,,,,,,,,,,,,,,,,,,,,
0,75,75,30,1,,6128cecf0227785e527007c6,62c53a83cfff8ef2daef82de,2022-07-06_09h32.40.461,Colour_Asymmetry_Pilot,2022.1.3,Win32,61.61049843,62c50e9c1127f2cd403a315f,,,,,,,,,,,,,,,,,,,,,,,,,,,,,,,,,,,,,,,,,,,,,,,,,,,,,,,,,,,,,,,,,,,,,,,,,,,,,,,,,,,,,,,,,,,,,,,,,,,,,,,,,,,,,,,,,,,,,,,,,,,,,,,,,,,,,,,,,,,,,,,,,,,,,,,,,,,,,,,,,,
0,76,76,52,1,,6128cecf0227785e527007c6,62c53a83cfff8ef2daef82de,2022-07-06_09h32.40.461,Colour_Asymmetry_Pilot,2022.1.3,Win32,61.61049843,62c50e9c1127f2cd403a315f,,,,,,,,,,,,,,,,,,,,,,,,,,,,,,,,,,,,,,,,,,,,,,,,,,,,,,,,,,,,,,,,,,,,,,,,,,,,,,,,,,,,,,,,,,,,,,,,,,,,,,,,,,,,,,,,,,,,,,,,,,,,,,,,,,,,,,,,,,,,,,,,,,,,,,,,,,,,,,,,,,
0,77,77,89,1,,6128cecf0227785e527007c6,62c53a83cfff8ef2daef82de,2022-07-06_09h32.40.461,Colour_Asymmetry_Pilot,2022.1.3,Win32,61.61049843,62c50e9c1127f2cd403a315f,,,,,,,,,,,,,,,,,,,,,,,,,,,,,,,,,,,,,,,,,,,,,,,,,,,,,,,,,,,,,,,,,,,,,,,,,,,,,,,,,,,,,,,,,,,,,,,,,,,,,,,,,,,,,,,,,,,,,,,,,,,,,,,,,,,,,,,,,,,,,,,,,,,,,,,,,,,,,,,,,,
0,78,78,61,1,,6128cecf0227785e527007c6,62c53a83cfff8ef2daef82de,2022-07-06_09h32.40.461,Colour_Asymmetry_Pilot,2022.1.3,Win32,61.61049843,62c50e9c1127f2cd403a315f,,,,,,,,,,,,,,,,,,,,,,,,,,,,,,,,,,,,,,,,,,,,,,,,,,,,,,,,,,,,,,,,,,,,,,,,,,,,,,,,,,,,,,,,,,,,,,,,,,,,,,,,,,,,,,,,,,,,,,,,,,,,,,,,,,,,,,,,,,,,,,,,,,,,,,,,,,,,,,,,,,
0,79,79,87,1,,6128cecf0227785e527007c6,62c53a83cfff8ef2daef82de,2022-07-06_09h32.40.461,Colour_Asymmetry_Pilot,2022.1.3,Win32,61.61049843,62c50e9c1127f2cd403a315f,,,,,,,,,,,,,,,,,,,,,,,,,,,,,,,,,,,,,,,,,,,,,,,,,,,,,,,,,,,,,,,,,,,,,,,,,,,,,,,,,,,,,,,,,,,,,,,,,,,,,,,,,,,,,,,,,,,,,,,,,,,,,,,,,,,,,,,,,,,,,,,,,,,,,,,,,,,,,,,,,,
0,80,80,25,1,,6128cecf0227785e527007c6,62c53a83cfff8ef2daef82de,2022-07-06_09h32.40.461,Colour_Asymmetry_Pilot,2022.1.3,Win32,61.61049843,62c50e9c1127f2cd403a315f,,,,,,,,,,,,,,,,,,,,,,,,,,,,,,,,,,,,,,,,,,,,,,,,,,,,,,,,,,,,,,,,,,,,,,,,,,,,,,,,,,,,,,,,,,,,,,,,,,,,,,,,,,,,,,,,,,,,,,,,,,,,,,,,,,,,,,,,,,,,,,,,,,,,,,,,,,,,,,,,,,
0,81,81,6,1,,6128cecf0227785e527007c6,62c53a83cfff8ef2daef82de,2022-07-06_09h32.40.461,Colour_Asymmetry_Pilot,2022.1.3,Win32,61.61049843,62c50e9c1127f2cd403a315f,,,,,,,,,,,,,,,,,,,,,,,,,,,,,,,,,,,,,,,,,,,,,,,,,,,,,,,,,,,,,,,,,,,,,,,,,,,,,,,,,,,,,,,,,,,,,,,,,,,,,,,,,,,,,,,,,,,,,,,,,,,,,,,,,,,,,,,,,,,,,,,,,,,,,,,,,,,,,,,,,,
0,82,82,8,1,,6128cecf0227785e527007c6,62c53a83cfff8ef2daef82de,2022-07-06_09h32.40.461,Colour_Asymmetry_Pilot,2022.1.3,Win32,61.61049843,62c50e9c1127f2cd403a315f,,,,,,,,,,,,,,,,,,,,,,,,,,,,,,,,,,,,,,,,,,,,,,,,,,,,,,,,,,,,,,,,,,,,,,,,,,,,,,,,,,,,,,,,,,,,,,,,,,,,,,,,,,,,,,,,,,,,,,,,,,,,,,,,,,,,,,,,,,,,,,,,,,,,,,,,,,,,,,,,,,
0,83,83,12,1,,6128cecf0227785e527007c6,62c53a83cfff8ef2daef82de,2022-07-06_09h32.40.461,Colour_Asymmetry_Pilot,2022.1.3,Win32,61.61049843,62c50e9c1127f2cd403a315f,,,,,,,,,,,,,,,,,,,,,,,,,,,,,,,,,,,,,,,,,,,,,,,,,,,,,,,,,,,,,,,,,,,,,,,,,,,,,,,,,,,,,,,,,,,,,,,,,,,,,,,,,,,,,,,,,,,,,,,,,,,,,,,,,,,,,,,,,,,,,,,,,,,,,,,,,,,,,,,,,,
0,84,84,46,1,,6128cecf0227785e527007c6,62c53a83cfff8ef2daef82de,2022-07-06_09h32.40.461,Colour_Asymmetry_Pilot,2022.1.3,Win32,61.61049843,62c50e9c1127f2cd403a315f,,,,,,,,,,,,,,,,,,,,,,,,,,,,,,,,,,,,,,,,,,,,,,,,,,,,,,,,,,,,,,,,,,,,,,,,,,,,,,,,,,,,,,,,,,,,,,,,,,,,,,,,,,,,,,,,,,,,,,,,,,,,,,,,,,,,,,,,,,,,,,,,,,,,,,,,,,,,,,,,,,
0,85,85,21,1,,6128cecf0227785e527007c6,62c53a83cfff8ef2daef82de,2022-07-06_09h32.40.461,Colour_Asymmetry_Pilot,2022.1.3,Win32,61.61049843,62c50e9c1127f2cd403a315f,,,,,,,,,,,,,,,,,,,,,,,,,,,,,,,,,,,,,,,,,,,,,,,,,,,,,,,,,,,,,,,,,,,,,,,,,,,,,,,,,,,,,,,,,,,,,,,,,,,,,,,,,,,,,,,,,,,,,,,,,,,,,,,,,,,,,,,,,,,,,,,,,,,,,,,,,,,,,,,,,,
0,86,86,92,1,,6128cecf0227785e527007c6,62c53a83cfff8ef2daef82de,2022-07-06_09h32.40.461,Colour_Asymmetry_Pilot,2022.1.3,Win32,61.61049843,62c50e9c1127f2cd403a315f,,,,,,,,,,,,,,,,,,,,,,,,,,,,,,,,,,,,,,,,,,,,,,,,,,,,,,,,,,,,,,,,,,,,,,,,,,,,,,,,,,,,,,,,,,,,,,,,,,,,,,,,,,,,,,,,,,,,,,,,,,,,,,,,,,,,,,,,,,,,,,,,,,,,,,,,,,,,,,,,,,
0,87,87,24,1,,6128cecf0227785e527007c6,62c53a83cfff8ef2daef82de,2022-07-06_09h32.40.461,Colour_Asymmetry_Pilot,2022.1.3,Win32,61.61049843,62c50e9c1127f2cd403a315f,,,,,,,,,,,,,,,,,,,,,,,,,,,,,,,,,,,,,,,,,,,,,,,,,,,,,,,,,,,,,,,,,,,,,,,,,,,,,,,,,,,,,,,,,,,,,,,,,,,,,,,,,,,,,,,,,,,,,,,,,,,,,,,,,,,,,,,,,,,,,,,,,,,,,,,,,,,,,,,,,,
0,88,88,0,1,,6128cecf0227785e527007c6,62c53a83cfff8ef2daef82de,2022-07-06_09h32.40.461,Colour_Asymmetry_Pilot,2022.1.3,Win32,61.61049843,62c50e9c1127f2cd403a315f,,,,,,,,,,,,,,,,,,,,,,,,,,,,,,,,,,,,,,,,,,,,,,,,,,,,,,,,,,,,,,,,,,,,,,,,,,,,,,,,,,,,,,,,,,,,,,,,,,,,,,,,,,,,,,,,,,,,,,,,,,,,,,,,,,,,,,,,,,,,,,,,,,,,,,,,,,,,,,,,,,
0,89,89,86,1,,6128cecf0227785e527007c6,62c53a83cfff8ef2daef82de,2022-07-06_09h32.40.461,Colour_Asymmetry_Pilot,2022.1.3,Win32,61.61049843,62c50e9c1127f2cd403a315f,,,,,,,,,,,,,,,,,,,,,,,,,,,,,,,,,,,,,,,,,,,,,,,,,,,,,,,,,,,,,,,,,,,,,,,,,,,,,,,,,,,,,,,,,,,,,,,,,,,,,,,,,,,,,,,,,,,,,,,,,,,,,,,,,,,,,,,,,,,,,,,,,,,,,,,,,,,,,,,,,,
0,90,90,5,1,,6128cecf0227785e527007c6,62c53a83cfff8ef2daef82de,2022-07-06_09h32.40.461,Colour_Asymmetry_Pilot,2022.1.3,Win32,61.61049843,62c50e9c1127f2cd403a315f,,,,,,,,,,,,,,,,,,,,,,,,,,,,,,,,,,,,,,,,,,,,,,,,,,,,,,,,,,,,,,,,,,,,,,,,,,,,,,,,,,,,,,,,,,,,,,,,,,,,,,,,,,,,,,,,,,,,,,,,,,,,,,,,,,,,,,,,,,,,,,,,,,,,,,,,,,,,,,,,,,
0,91,91,57,1,,6128cecf0227785e527007c6,62c53a83cfff8ef2daef82de,2022-07-06_09h32.40.461,Colour_Asymmetry_Pilot,2022.1.3,Win32,61.61049843,62c50e9c1127f2cd403a315f,,,,,,,,,,,,,,,,,,,,,,,,,,,,,,,,,,,,,,,,,,,,,,,,,,,,,,,,,,,,,,,,,,,,,,,,,,,,,,,,,,,,,,,,,,,,,,,,,,,,,,,,,,,,,,,,,,,,,,,,,,,,,,,,,,,,,,,,,,,,,,,,,,,,,,,,,,,,,,,,,,
0,92,92,88,1,,6128cecf0227785e527007c6,62c53a83cfff8ef2daef82de,2022-07-06_09h32.40.461,Colour_Asymmetry_Pilot,2022.1.3,Win32,61.61049843,62c50e9c1127f2cd403a315f,,,,,,,,,,,,,,,,,,,,,,,,,,,,,,,,,,,,,,,,,,,,,,,,,,,,,,,,,,,,,,,,,,,,,,,,,,,,,,,,,,,,,,,,,,,,,,,,,,,,,,,,,,,,,,,,,,,,,,,,,,,,,,,,,,,,,,,,,,,,,,,,,,,,,,,,,,,,,,,,,,
,,,,,,6128cecf0227785e527007c6,62c53a83cfff8ef2daef82de,2022-07-06_09h32.40.461,Colour_Asymmetry_Pilot,2022.1.3,Win32,61.61049843,62c50e9c1127f2cd403a315f,0,0,0,156,1,threeone,,,,,,,,,,,,,,,,,,,,,,,,,,,,,,,,,,,,,,,,,,,,,,,,,,,,,,,,,,,,,,,,,,,,,,,,,,,,,,,,,,,,,,,,,,,,,,,,,,,,,,,,,,,,,,,,,,,,,,,,,,,,,,,,,,,,,,,,,,,,,,,,,,,,,,,,,,,,
,,,,,,6128cecf0227785e527007c6,62c53a83cfff8ef2daef82de,2022-07-06_09h32.40.461,Colour_Asymmetry_Pilot,2022.1.3,Win32,61.61049843,62c50e9c1127f2cd403a315f,0,1,1,119,1,fourthree,,,,,,,,,,,,,,,,,,,,,,,,,,,,,,,,,,,,,,,,,,,,,,,,,,,,,,,,,,,,,,,,,,,,,,,,,,,,,,,,,,,,,,,,,,,,,,,,,,,,,,,,,,,,,,,,,,,,,,,,,,,,,,,,,,,,,,,,,,,,,,,,,,,,,,,,,,,,
,,,,,,6128cecf0227785e527007c6,62c53a83cfff8ef2daef82de,2022-07-06_09h32.40.461,Colour_Asymmetry_Pilot,2022.1.3,Win32,61.61049843,62c50e9c1127f2cd403a315f,0,2,2,5,1,threefour,,,,,,,,,,,,,,,,,,,,,,,,,,,,,,,,,,,,,,,,,,,,,,,,,,,,,,,,,,,,,,,,,,,,,,,,,,,,,,,,,,,,,,,,,,,,,,,,,,,,,,,,,,,,,,,,,,,,,,,,,,,,,,,,,,,,,,,,,,,,,,,,,,,,,,,,,,,,
,,,,,,6128cecf0227785e527007c6,62c53a83cfff8ef2daef82de,2022-07-06_09h32.40.461,Colour_Asymmetry_Pilot,2022.1.3,Win32,61.61049843,62c50e9c1127f2cd403a315f,0,3,3,3,1,twofour,,,,,,,,,,,,,,,,,,,,,,,,,,,,,,,,,,,,,,,,,,,,,,,,,,,,,,,,,,,,,,,,,,,,,,,,,,,,,,,,,,,,,,,,,,,,,,,,,,,,,,,,,,,,,,,,,,,,,,,,,,,,,,,,,,,,,,,,,,,,,,,,,,,,,,,,,,,,
,,,,,,6128cecf0227785e527007c6,62c53a83cfff8ef2daef82de,2022-07-06_09h32.40.461,Colour_Asymmetry_Pilot,2022.1.3,Win32,61.61049843,62c50e9c1127f2cd403a315f,0,4,4,30,1,fourtwo,,,,,,,,,,,,,,,,,,,,,,,,,,,,,,,,,,,,,,,,,,,,,,,,,,,,,,,,,,,,,,,,,,,,,,,,,,,,,,,,,,,,,,,,,,,,,,,,,,,,,,,,,,,,,,,,,,,,,,,,,,,,,,,,,,,,,,,,,,,,,,,,,,,,,,,,,,,,
,,,,,,6128cecf0227785e527007c6,62c53a83cfff8ef2daef82de,2022-07-06_09h32.40.461,Colour_Asymmetry_Pilot,2022.1.3,Win32,61.61049843,62c50e9c1127f2cd403a315f,0,5,5,138,1,twoone,,,,,,,,,,,,,,,,,,,,,,,,,,,,,,,,,,,,,,,,,,,,,,,,,,,,,,,,,,,,,,,,,,,,,,,,,,,,,,,,,,,,,,,,,,,,,,,,,,,,,,,,,,,,,,,,,,,,,,,,,,,,,,,,,,,,,,,,,,,,,,,,,,,,,,,,,,,,
,,,,,,6128cecf0227785e527007c6,62c53a83cfff8ef2daef82de,2022-07-06_09h32.40.461,Colour_Asymmetry_Pilot,2022.1.3,Win32,61.61049843,62c50e9c1127f2cd403a315f,0,6,6,104,1,onetwo,,,,,,,,,,,,,,,,,,,,,,,,,,,,,,,,,,,,,,,,,,,,,,,,,,,,,,,,,,,,,,,,,,,,,,,,,,,,,,,,,,,,,,,,,,,,,,,,,,,,,,,,,,,,,,,,,,,,,,,,,,,,,,,,,,,,,,,,,,,,,,,,,,,,,,,,,,,,
,,,,,,6128cecf0227785e527007c6,62c53a83cfff8ef2daef82de,2022-07-06_09h32.40.461,Colour_Asymmetry_Pilot,2022.1.3,Win32,61.61049843,62c50e9c1127f2cd403a315f,0,7,7,2,1,twoone,,,,,,,,,,,,,,,,,,,,,,,,,,,,,,,,,,,,,,,,,,,,,,,,,,,,,,,,,,,,,,,,,,,,,,,,,,,,,,,,,,,,,,,,,,,,,,,,,,,,,,,,,,,,,,,,,,,,,,,,,,,,,,,,,,,,,,,,,,,,,,,,,,,,,,,,,,,,
,,,,,,6128cecf0227785e527007c6,62c53a83cfff8ef2daef82de,2022-07-06_09h32.40.461,Colour_Asymmetry_Pilot,2022.1.3,Win32,61.61049843,62c50e9c1127f2cd403a315f,0,8,8,124,1,threeone,,,,,,,,,,,,,,,,,,,,,,,,,,,,,,,,,,,,,,,,,,,,,,,,,,,,,,,,,,,,,,,,,,,,,,,,,,,,,,,,,,,,,,,,,,,,,,,,,,,,,,,,,,,,,,,,,,,,,,,,,,,,,,,,,,,,,,,,,,,,,,,,,,,,,,,,,,,,
,,,,,,6128cecf0227785e527007c6,62c53a83cfff8ef2daef82de,2022-07-06_09h32.40.461,Colour_Asymmetry_Pilot,2022.1.3,Win32,61.61049843,62c50e9c1127f2cd403a315f,0,9,9,90,1,twoone,,,,,,,,,,,,,,,,,,,,,,,,,,,,,,,,,,,,,,,,,,,,,,,,,,,,,,,,,,,,,,,,,,,,,,,,,,,,,,,,,,,,,,,,,,,,,,,,,,,,,,,,,,,,,,,,,,,,,,,,,,,,,,,,,,,,,,,,,,,,,,,,,,,,,,,,,,,,
,,,,,,6128cecf0227785e527007c6,62c53a83cfff8ef2daef82de,2022-07-06_09h32.40.461,Colour_Asymmetry_Pilot,2022.1.3,Win32,61.61049843,62c50e9c1127f2cd403a315f,0,10,10,74,1,twoone,,,,,,,,,,,,,,,,,,,,,,,,,,,,,,,,,,,,,,,,,,,,,,,,,,,,,,,,,,,,,,,,,,,,,,,,,,,,,,,,,,,,,,,,,,,,,,,,,,,,,,,,,,,,,,,,,,,,,,,,,,,,,,,,,,,,,,,,,,,,,,,,,,,,,,,,,,,,
,,,,,,6128cecf0227785e527007c6,62c53a83cfff8ef2daef82de,2022-07-06_09h32.40.461,Colour_Asymmetry_Pilot,2022.1.3,Win32,61.61049843,62c50e9c1127f2cd403a315f,0,11,11,75,1,twofour,,,,,,,,,,,,,,,,,,,,,,,,,,,,,,,,,,,,,,,,,,,,,,,,,,,,,,,,,,,,,,,,,,,,,,,,,,,,,,,,,,,,,,,,,,,,,,,,,,,,,,,,,,,,,,,,,,,,,,,,,,,,,,,,,,,,,,,,,,,,,,,,,,,,,,,,,,,,
,,,,,,6128cecf0227785e527007c6,62c53a83cfff8ef2daef82de,2022-07-06_09h32.40.461,Colour_Asymmetry_Pilot,2022.1.3,Win32,61.61049843,62c50e9c1127f2cd403a315f,0,12,12,92,1,threeone,,,,,,,,,,,,,,,,,,,,,,,,,,,,,,,,,,,,,,,,,,,,,,,,,,,,,,,,,,,,,,,,,,,,,,,,,,,,,,,,,,,,,,,,,,,,,,,,,,,,,,,,,,,,,,,,,,,,,,,,,,,,,,,,,,,,,,,,,,,,,,,,,,,,,,,,,,,,
,,,,,,6128cecf0227785e527007c6,62c53a83cfff8ef2daef82de,2022-07-06_09h32.40.461,Colour_Asymmetry_Pilot,2022.1.3,Win32,61.61049843,62c50e9c1127f2cd403a315f,0,13,13,57,1,onethree,,,,,,,,,,,,,,,,,,,,,,,,,,,,,,,,,,,,,,,,,,,,,,,,,,,,,,,,,,,,,,,,,,,,,,,,,,,,,,,,,,,,,,,,,,,,,,,,,,,,,,,,,,,,,,,,,,,,,,,,,,,,,,,,,,,,,,,,,,,,,,,,,,,,,,,,,,,,
,,,,,,6128cecf0227785e527007c6,62c53a83cfff8ef2daef82de,2022-07-06_09h32.40.461,Colour_Asymmetry_Pilot,2022.1.3,Win32,61.61049843,62c50e9c1127f2cd403a315f,0,14,14,91,1,twofour,,,,,,,,,,,,,,,,,,,,,,,,,,,,,,,,,,,,,,,,,,,,,,,,,,,,,,,,,,,,,,,,,,,,,,,,,,,,,,,,,,,,,,,,,,,,,,,,,,,,,,,,,,,,,,,,,,,,,,,,,,,,,,,,,,,,,,,,,,,,,,,,,,,,,,,,,,,,
,,,,,,6128cecf0227785e527007c6,62c53a83cfff8ef2daef82de,2022-07-06_09h32.40.461,Colour_Asymmetry_Pilot,2022.1.3,Win32,61.61049843,62c50e9c1127f2cd403a315f,0,15,15,44,1,threeone,,,,,,,,,,,,,,,,,,,,,,,,,,,,,,,,,,,,,,,,,,,,,,,,,,,,,,,,,,,,,,,,,,,,,,,,,,,,,,,,,,,,,,,,,,,,,,,,,,,,,,,,,,,,,,,,,,,,,,,,,,,,,,,,,,,,,,,,,,,,,,,,,,,,,,,,,,,,
,,,,,,6128cecf0227785e527007c6,62c53a83cfff8ef2daef82de,2022-07-06_09h32.40.461,Colour_Asymmetry_Pilot,2022.1.3,Win32,61.61049843,62c50e9c1127f2cd403a315f,0,16,16,89,1,onethree,,,,,,,,,,,,,,,,,,,,,,,,,,,,,,,,,,,,,,,,,,,,,,,,,,,,,,,,,,,,,,,,,,,,,,,,,,,,,,,,,,,,,,,,,,,,,,,,,,,,,,,,,,,,,,,,,,,,,,,,,,,,,,,,,,,,,,,,,,,,,,,,,,,,,,,,,,,,
,,,,,,6128cecf0227785e527007c6,62c53a83cfff8ef2daef82de,2022-07-06_09h32.40.461,Colour_Asymmetry_Pilot,2022.1.3,Win32,61.61049843,62c50e9c1127f2cd403a315f,0,17,17,69,1,threefour,,,,,,,,,,,,,,,,,,,,,,,,,,,,,,,,,,,,,,,,,,,,,,,,,,,,,,,,,,,,,,,,,,,,,,,,,,,,,,,,,,,,,,,,,,,,,,,,,,,,,,,,,,,,,,,,,,,,,,,,,,,,,,,,,,,,,,,,,,,,,,,,,,,,,,,,,,,,
,,,,,,6128cecf0227785e527007c6,62c53a83cfff8ef2daef82de,2022-07-06_09h32.40.461,Colour_Asymmetry_Pilot,2022.1.3,Win32,61.61049843,62c50e9c1127f2cd403a315f,0,18,18,80,1,onetwo,,,,,,,,,,,,,,,,,,,,,,,,,,,,,,,,,,,,,,,,,,,,,,,,,,,,,,,,,,,,,,,,,,,,,,,,,,,,,,,,,,,,,,,,,,,,,,,,,,,,,,,,,,,,,,,,,,,,,,,,,,,,,,,,,,,,,,,,,,,,,,,,,,,,,,,,,,,,
,,,,,,6128cecf0227785e527007c6,62c53a83cfff8ef2daef82de,2022-07-06_09h32.40.461,Colour_Asymmetry_Pilot,2022.1.3,Win32,61.61049843,62c50e9c1127f2cd403a315f,0,19,19,96,1,onetwo,,,,,,,,,,,,,,,,,,,,,,,,,,,,,,,,,,,,,,,,,,,,,,,,,,,,,,,,,,,,,,,,,,,,,,,,,,,,,,,,,,,,,,,,,,,,,,,,,,,,,,,,,,,,,,,,,,,,,,,,,,,,,,,,,,,,,,,,,,,,,,,,,,,,,,,,,,,,
,,,,,,6128cecf0227785e527007c6,62c53a83cfff8ef2daef82de,2022-07-06_09h32.40.461,Colour_Asymmetry_Pilot,2022.1.3,Win32,61.61049843,62c50e9c1127f2cd403a315f,0,20,20,102,1,fourtwo,,,,,,,,,,,,,,,,,,,,,,,,,,,,,,,,,,,,,,,,,,,,,,,,,,,,,,,,,,,,,,,,,,,,,,,,,,,,,,,,,,,,,,,,,,,,,,,,,,,,,,,,,,,,,,,,,,,,,,,,,,,,,,,,,,,,,,,,,,,,,,,,,,,,,,,,,,,,
,,,,,,6128cecf0227785e527007c6,62c53a83cfff8ef2daef82de,2022-07-06_09h32.40.461,Colour_Asymmetry_Pilot,2022.1.3,Win32,61.61049843,62c50e9c1127f2cd403a315f,0,21,21,142,1,fourtwo,,,,,,,,,,,,,,,,,,,,,,,,,,,,,,,,,,,,,,,,,,,,,,,,,,,,,,,,,,,,,,,,,,,,,,,,,,,,,,,,,,,,,,,,,,,,,,,,,,,,,,,,,,,,,,,,,,,,,,,,,,,,,,,,,,,,,,,,,,,,,,,,,,,,,,,,,,,,
,,,,,,6128cecf0227785e527007c6,62c53a83cfff8ef2daef82de,2022-07-06_09h32.40.461,Colour_Asymmetry_Pilot,2022.1.3,Win32,61.61049843,62c50e9c1127f2cd403a315f,0,22,22,39,1,fourthree,,,,,,,,,,,,,,,,,,,,,,,,,,,,,,,,,,,,,,,,,,,,,,,,,,,,,,,,,,,,,,,,,,,,,,,,,,,,,,,,,,,,,,,,,,,,,,,,,,,,,,,,,,,,,,,,,,,,,,,,,,,,,,,,,,,,,,,,,,,,,,,,,,,,,,,,,,,,
,,,,,,6128cecf0227785e527007c6,62c53a83cfff8ef2daef82de,2022-07-06_09h32.40.461,Colour_Asymmetry_Pilot,2022.1.3,Win32,61.61049843,62c50e9c1127f2cd403a315f,0,23,23,81,1,onethree,,,,,,,,,,,,,,,,,,,,,,,,,,,,,,,,,,,,,,,,,,,,,,,,,,,,,,,,,,,,,,,,,,,,,,,,,,,,,,,,,,,,,,,,,,,,,,,,,,,,,,,,,,,,,,,,,,,,,,,,,,,,,,,,,,,,,,,,,,,,,,,,,,,,,,,,,,,,
,,,,,,6128cecf0227785e527007c6,62c53a83cfff8ef2daef82de,2022-07-06_09h32.40.461,Colour_Asymmetry_Pilot,2022.1.3,Win32,61.61049843,62c50e9c1127f2cd403a315f,0,24,24,23,1,fourthree,,,,,,,,,,,,,,,,,,,,,,,,,,,,,,,,,,,,,,,,,,,,,,,,,,,,,,,,,,,,,,,,,,,,,,,,,,,,,,,,,,,,,,,,,,,,,,,,,,,,,,,,,,,,,,,,,,,,,,,,,,,,,,,,,,,,,,,,,,,,,,,,,,,,,,,,,,,,
,,,,,,6128cecf0227785e527007c6,62c53a83cfff8ef2daef82de,2022-07-06_09h32.40.461,Colour_Asymmetry_Pilot,2022.1.3,Win32,61.61049843,62c50e9c1127f2cd403a315f,0,25,25,70,1,fourtwo,,,,,,,,,,,,,,,,,,,,,,,,,,,,,,,,,,,,,,,,,,,,,,,,,,,,,,,,,,,,,,,,,,,,,,,,,,,,,,,,,,,,,,,,,,,,,,,,,,,,,,,,,,,,,,,,,,,,,,,,,,,,,,,,,,,,,,,,,,,,,,,,,,,,,,,,,,,,
,,,,,,6128cecf0227785e527007c6,62c53a83cfff8ef2daef82de,2022-07-06_09h32.40.461,Colour_Asymmetry_Pilot,2022.1.3,Win32,61.61049843,62c50e9c1127f2cd403a315f,0,26,26,34,1,twoone,,,,,,,,,,,,,,,,,,,,,,,,,,,,,,,,,,,,,,,,,,,,,,,,,,,,,,,,,,,,,,,,,,,,,,,,,,,,,,,,,,,,,,,,,,,,,,,,,,,,,,,,,,,,,,,,,,,,,,,,,,,,,,,,,,,,,,,,,,,,,,,,,,,,,,,,,,,,
,,,,,,6128cecf0227785e527007c6,62c53a83cfff8ef2daef82de,2022-07-06_09h32.40.461,Colour_Asymmetry_Pilot,2022.1.3,Win32,61.61049843,62c50e9c1127f2cd403a315f,0,27,27,100,1,threeone,,,,,,,,,,,,,,,,,,,,,,,,,,,,,,,,,,,,,,,,,,,,,,,,,,,,,,,,,,,,,,,,,,,,,,,,,,,,,,,,,,,,,,,,,,,,,,,,,,,,,,,,,,,,,,,,,,,,,,,,,,,,,,,,,,,,,,,,,,,,,,,,,,,,,,,,,,,,
,,,,,,6128cecf0227785e527007c6,62c53a83cfff8ef2daef82de,2022-07-06_09h32.40.461,Colour_Asymmetry_Pilot,2022.1.3,Win32,61.61049843,62c50e9c1127f2cd403a315f,0,28,28,122,1,twoone,,,,,,,,,,,,,,,,,,,,,,,,,,,,,,,,,,,,,,,,,,,,,,,,,,,,,,,,,,,,,,,,,,,,,,,,,,,,,,,,,,,,,,,,,,,,,,,,,,,,,,,,,,,,,,,,,,,,,,,,,,,,,,,,,,,,,,,,,,,,,,,,,,,,,,,,,,,,
,,,,,,6128cecf0227785e527007c6,62c53a83cfff8ef2daef82de,2022-07-06_09h32.40.461,Colour_Asymmetry_Pilot,2022.1.3,Win32,61.61049843,62c50e9c1127f2cd403a315f,0,29,29,36,1,threeone,,,,,,,,,,,,,,,,,,,,,,,,,,,,,,,,,,,,,,,,,,,,,,,,,,,,,,,,,,,,,,,,,,,,,,,,,,,,,,,,,,,,,,,,,,,,,,,,,,,,,,,,,,,,,,,,,,,,,,,,,,,,,,,,,,,,,,,,,,,,,,,,,,,,,,,,,,,,
,,,,,,6128cecf0227785e527007c6,62c53a83cfff8ef2daef82de,2022-07-06_09h32.40.461,Colour_Asymmetry_Pilot,2022.1.3,Win32,61.61049843,62c50e9c1127f2cd403a315f,0,30,30,13,1,threefour,,,,,,,,,,,,,,,,,,,,,,,,,,,,,,,,,,,,,,,,,,,,,,,,,,,,,,,,,,,,,,,,,,,,,,,,,,,,,,,,,,,,,,,,,,,,,,,,,,,,,,,,,,,,,,,,,,,,,,,,,,,,,,,,,,,,,,,,,,,,,,,,,,,,,,,,,,,,
,,,,,,6128cecf0227785e527007c6,62c53a83cfff8ef2daef82de,2022-07-06_09h32.40.461,Colour_Asymmetry_Pilot,2022.1.3,Win32,61.61049843,62c50e9c1127f2cd403a315f,0,31,31,58,1,twoone,,,,,,,,,,,,,,,,,,,,,,,,,,,,,,,,,,,,,,,,,,,,,,,,,,,,,,,,,,,,,,,,,,,,,,,,,,,,,,,,,,,,,,,,,,,,,,,,,,,,,,,,,,,,,,,,,,,,,,,,,,,,,,,,,,,,,,,,,,,,,,,,,,,,,,,,,,,,
,,,,,,6128cecf0227785e527007c6,62c53a83cfff8ef2daef82de,2022-07-06_09h32.40.461,Colour_Asymmetry_Pilot,2022.1.3,Win32,61.61049843,62c50e9c1127f2cd403a315f,0,32,32,97,1,onethree,,,,,,,,,,,,,,,,,,,,,,,,,,,,,,,,,,,,,,,,,,,,,,,,,,,,,,,,,,,,,,,,,,,,,,,,,,,,,,,,,,,,,,,,,,,,,,,,,,,,,,,,,,,,,,,,,,,,,,,,,,,,,,,,,,,,,,,,,,,,,,,,,,,,,,,,,,,,
,,,,,,6128cecf0227785e527007c6,62c53a83cfff8ef2daef82de,2022-07-06_09h32.40.461,Colour_Asymmetry_Pilot,2022.1.3,Win32,61.61049843,62c50e9c1127f2cd403a315f,0,33,33,54,1,fourtwo,,,,,,,,,,,,,,,,,,,,,,,,,,,,,,,,,,,,,,,,,,,,,,,,,,,,,,,,,,,,,,,,,,,,,,,,,,,,,,,,,,,,,,,,,,,,,,,,,,,,,,,,,,,,,,,,,,,,,,,,,,,,,,,,,,,,,,,,,,,,,,,,,,,,,,,,,,,,
,,,,,,6128cecf0227785e527007c6,62c53a83cfff8ef2daef82de,2022-07-06_09h32.40.461,Colour_Asymmetry_Pilot,2022.1.3,Win32,61.61049843,62c50e9c1127f2cd403a315f,0,34,34,51,1,twofour,,,,,,,,,,,,,,,,,,,,,,,,,,,,,,,,,,,,,,,,,,,,,,,,,,,,,,,,,,,,,,,,,,,,,,,,,,,,,,,,,,,,,,,,,,,,,,,,,,,,,,,,,,,,,,,,,,,,,,,,,,,,,,,,,,,,,,,,,,,,,,,,,,,,,,,,,,,,
,,,,,,6128cecf0227785e527007c6,62c53a83cfff8ef2daef82de,2022-07-06_09h32.40.461,Colour_Asymmetry_Pilot,2022.1.3,Win32,61.61049843,62c50e9c1127f2cd403a315f,0,35,35,101,1,threefour,,,,,,,,,,,,,,,,,,,,,,,,,,,,,,,,,,,,,,,,,,,,,,,,,,,,,,,,,,,,,,,,,,,,,,,,,,,,,,,,,,,,,,,,,,,,,,,,,,,,,,,,,,,,,,,,,,,,,,,,,,,,,,,,,,,,,,,,,,,,,,,,,,,,,,,,,,,,
,,,,,,6128cecf0227785e527007c6,62c53a83cfff8ef2daef82de,2022-07-06_09h32.40.461,Colour_Asymmetry_Pilot,2022.1.3,Win32,61.61049843,62c50e9c1127f2cd403a315f,0,36,36,137,1,onethree,,,,,,,,,,,,,,,,,,,,,,,,,,,,,,,,,,,,,,,,,,,,,,,,,,,,,,,,,,,,,,,,,,,,,,,,,,,,,,,,,,,,,,,,,,,,,,,,,,,,,,,,,,,,,,,,,,,,,,,,,,,,,,,,,,,,,,,,,,,,,,,,,,,,,,,,,,,,
,,,,,,6128cecf0227785e527007c6,62c53a83cfff8ef2daef82de,2022-07-06_09h32.40.461,Colour_Asymmetry_Pilot,2022.1.3,Win32,61.61049843,62c50e9c1127f2cd403a315f,0,37,37,147,1,twofour,,,,,,,,,,,,,,,,,,,,,,,,,,,,,,,,,,,,,,,,,,,,,,,,,,,,,,,,,,,,,,,,,,,,,,,,,,,,,,,,,,,,,,,,,,,,,,,,,,,,,,,,,,,,,,,,,,,,,,,,,,,,,,,,,,,,,,,,,,,,,,,,,,,,,,,,,,,,
,,,,,,6128cecf0227785e527007c6,62c53a83cfff8ef2daef82de,2022-07-06_09h32.40.461,Colour_Asymmetry_Pilot,2022.1.3,Win32,61.61049843,62c50e9c1127f2cd403a315f,0,38,38,29,1,threefour,,,,,,,,,,,,,,,,,,,,,,,,,,,,,,,,,,,,,,,,,,,,,,,,,,,,,,,,,,,,,,,,,,,,,,,,,,,,,,,,,,,,,,,,,,,,,,,,,,,,,,,,,,,,,,,,,,,,,,,,,,,,,,,,,,,,,,,,,,,,,,,,,,,,,,,,,,,,
,,,,,,6128cecf0227785e527007c6,62c53a83cfff8ef2daef82de,2022-07-06_09h32.40.461,Colour_Asymmetry_Pilot,2022.1.3,Win32,61.61049843,62c50e9c1127f2cd403a315f,0,39,39,79,1,fourthree,,,,,,,,,,,,,,,,,,,,,,,,,,,,,,,,,,,,,,,,,,,,,,,,,,,,,,,,,,,,,,,,,,,,,,,,,,,,,,,,,,,,,,,,,,,,,,,,,,,,,,,,,,,,,,,,,,,,,,,,,,,,,,,,,,,,,,,,,,,,,,,,,,,,,,,,,,,,
,,,,,,6128cecf0227785e527007c6,62c53a83cfff8ef2daef82de,2022-07-06_09h32.40.461,Colour_Asymmetry_Pilot,2022.1.3,Win32,61.61049843,62c50e9c1127f2cd403a315f,0,40,40,157,1,threefour,,,,,,,,,,,,,,,,,,,,,,,,,,,,,,,,,,,,,,,,,,,,,,,,,,,,,,,,,,,,,,,,,,,,,,,,,,,,,,,,,,,,,,,,,,,,,,,,,,,,,,,,,,,,,,,,,,,,,,,,,,,,,,,,,,,,,,,,,,,,,,,,,,,,,,,,,,,,
,,,,,,6128cecf0227785e527007c6,62c53a83cfff8ef2daef82de,2022-07-06_09h32.40.461,Colour_Asymmetry_Pilot,2022.1.3,Win32,61.61049843,62c50e9c1127f2cd403a315f,0,41,41,71,1,fourthree,,,,,,,,,,,,,,,,,,,,,,,,,,,,,,,,,,,,,,,,,,,,,,,,,,,,,,,,,,,,,,,,,,,,,,,,,,,,,,,,,,,,,,,,,,,,,,,,,,,,,,,,,,,,,,,,,,,,,,,,,,,,,,,,,,,,,,,,,,,,,,,,,,,,,,,,,,,,
,,,,,,6128cecf0227785e527007c6,62c53a83cfff8ef2daef82de,2022-07-06_09h32.40.461,Colour_Asymmetry_Pilot,2022.1.3,Win32,61.61049843,62c50e9c1127f2cd403a315f,0,42,42,123,1,twofour,,,,,,,,,,,,,,,,,,,,,,,,,,,,,,,,,,,,,,,,,,,,,,,,,,,,,,,,,,,,,,,,,,,,,,,,,,,,,,,,,,,,,,,,,,,,,,,,,,,,,,,,,,,,,,,,,,,,,,,,,,,,,,,,,,,,,,,,,,,,,,,,,,,,,,,,,,,,
,,,,,,6128cecf0227785e527007c6,62c53a83cfff8ef2daef82de,2022-07-06_09h32.40.461,Colour_Asymmetry_Pilot,2022.1.3,Win32,61.61049843,62c50e9c1127f2cd403a315f,0,43,43,113,1,onethree,,,,,,,,,,,,,,,,,,,,,,,,,,,,,,,,,,,,,,,,,,,,,,,,,,,,,,,,,,,,,,,,,,,,,,,,,,,,,,,,,,,,,,,,,,,,,,,,,,,,,,,,,,,,,,,,,,,,,,,,,,,,,,,,,,,,,,,,,,,,,,,,,,,,,,,,,,,,
,,,,,,6128cecf0227785e527007c6,62c53a83cfff8ef2daef82de,2022-07-06_09h32.40.461,Colour_Asymmetry_Pilot,2022.1.3,Win32,61.61049843,62c50e9c1127f2cd403a315f,0,44,44,76,1,threeone,,,,,,,,,,,,,,,,,,,,,,,,,,,,,,,,,,,,,,,,,,,,,,,,,,,,,,,,,,,,,,,,,,,,,,,,,,,,,,,,,,,,,,,,,,,,,,,,,,,,,,,,,,,,,,,,,,,,,,,,,,,,,,,,,,,,,,,,,,,,,,,,,,,,,,,,,,,,
,,,,,,6128cecf0227785e527007c6,62c53a83cfff8ef2daef82de,2022-07-06_09h32.40.461,Colour_Asymmetry_Pilot,2022.1.3,Win32,61.61049843,62c50e9c1127f2cd403a315f,0,45,45,27,1,twofour,,,,,,,,,,,,,,,,,,,,,,,,,,,,,,,,,,,,,,,,,,,,,,,,,,,,,,,,,,,,,,,,,,,,,,,,,,,,,,,,,,,,,,,,,,,,,,,,,,,,,,,,,,,,,,,,,,,,,,,,,,,,,,,,,,,,,,,,,,,,,,,,,,,,,,,,,,,,
,,,,,,6128cecf0227785e527007c6,62c53a83cfff8ef2daef82de,2022-07-06_09h32.40.461,Colour_Asymmetry_Pilot,2022.1.3,Win32,61.61049843,62c50e9c1127f2cd403a315f,0,46,46,109,1,threefour,,,,,,,,,,,,,,,,,,,,,,,,,,,,,,,,,,,,,,,,,,,,,,,,,,,,,,,,,,,,,,,,,,,,,,,,,,,,,,,,,,,,,,,,,,,,,,,,,,,,,,,,,,,,,,,,,,,,,,,,,,,,,,,,,,,,,,,,,,,,,,,,,,,,,,,,,,,,
,,,,,,6128cecf0227785e527007c6,62c53a83cfff8ef2daef82de,2022-07-06_09h32.40.461,Colour_Asymmetry_Pilot,2022.1.3,Win32,61.61049843,62c50e9c1127f2cd403a315f,0,47,47,140,1,threeone,,,,,,,,,,,,,,,,,,,,,,,,,,,,,,,,,,,,,,,,,,,,,,,,,,,,,,,,,,,,,,,,,,,,,,,,,,,,,,,,,,,,,,,,,,,,,,,,,,,,,,,,,,,,,,,,,,,,,,,,,,,,,,,,,,,,,,,,,,,,,,,,,,,,,,,,,,,,
,,,,,,6128cecf0227785e527007c6,62c53a83cfff8ef2daef82de,2022-07-06_09h32.40.461,Colour_Asymmetry_Pilot,2022.1.3,Win32,61.61049843,62c50e9c1127f2cd403a315f,0,48,48,46,1,fourtwo,,,,,,,,,,,,,,,,,,,,,,,,,,,,,,,,,,,,,,,,,,,,,,,,,,,,,,,,,,,,,,,,,,,,,,,,,,,,,,,,,,,,,,,,,,,,,,,,,,,,,,,,,,,,,,,,,,,,,,,,,,,,,,,,,,,,,,,,,,,,,,,,,,,,,,,,,,,,
,,,,,,6128cecf0227785e527007c6,62c53a83cfff8ef2daef82de,2022-07-06_09h32.40.461,Colour_Asymmetry_Pilot,2022.1.3,Win32,61.61049843,62c50e9c1127f2cd403a315f,0,49,49,59,1,twofour,,,,,,,,,,,,,,,,,,,,,,,,,,,,,,,,,,,,,,,,,,,,,,,,,,,,,,,,,,,,,,,,,,,,,,,,,,,,,,,,,,,,,,,,,,,,,,,,,,,,,,,,,,,,,,,,,,,,,,,,,,,,,,,,,,,,,,,,,,,,,,,,,,,,,,,,,,,,
,,,,,,6128cecf0227785e527007c6,62c53a83cfff8ef2daef82de,2022-07-06_09h32.40.461,Colour_Asymmetry_Pilot,2022.1.3,Win32,61.61049843,62c50e9c1127f2cd403a315f,0,50,50,114,1,twoone,,,,,,,,,,,,,,,,,,,,,,,,,,,,,,,,,,,,,,,,,,,,,,,,,,,,,,,,,,,,,,,,,,,,,,,,,,,,,,,,,,,,,,,,,,,,,,,,,,,,,,,,,,,,,,,,,,,,,,,,,,,,,,,,,,,,,,,,,,,,,,,,,,,,,,,,,,,,
,,,,,,6128cecf0227785e527007c6,62c53a83cfff8ef2daef82de,2022-07-06_09h32.40.461,Colour_Asymmetry_Pilot,2022.1.3,Win32,61.61049843,62c50e9c1127f2cd403a315f,0,51,51,73,1,onethree,,,,,,,,,,,,,,,,,,,,,,,,,,,,,,,,,,,,,,,,,,,,,,,,,,,,,,,,,,,,,,,,,,,,,,,,,,,,,,,,,,,,,,,,,,,,,,,,,,,,,,,,,,,,,,,,,,,,,,,,,,,,,,,,,,,,,,,,,,,,,,,,,,,,,,,,,,,,
,,,,,,6128cecf0227785e527007c6,62c53a83cfff8ef2daef82de,2022-07-06_09h32.40.461,Colour_Asymmetry_Pilot,2022.1.3,Win32,61.61049843,62c50e9c1127f2cd403a315f,0,52,52,120,1,onetwo,,,,,,,,,,,,,,,,,,,,,,,,,,,,,,,,,,,,,,,,,,,,,,,,,,,,,,,,,,,,,,,,,,,,,,,,,,,,,,,,,,,,,,,,,,,,,,,,,,,,,,,,,,,,,,,,,,,,,,,,,,,,,,,,,,,,,,,,,,,,,,,,,,,,,,,,,,,,
,,,,,,6128cecf0227785e527007c6,62c53a83cfff8ef2daef82de,2022-07-06_09h32.40.461,Colour_Asymmetry_Pilot,2022.1.3,Win32,61.61049843,62c50e9c1127f2cd403a315f,0,53,53,129,1,onethree,,,,,,,,,,,,,,,,,,,,,,,,,,,,,,,,,,,,,,,,,,,,,,,,,,,,,,,,,,,,,,,,,,,,,,,,,,,,,,,,,,,,,,,,,,,,,,,,,,,,,,,,,,,,,,,,,,,,,,,,,,,,,,,,,,,,,,,,,,,,,,,,,,,,,,,,,,,,
,,,,,,6128cecf0227785e527007c6,62c53a83cfff8ef2daef82de,2022-07-06_09h32.40.461,Colour_Asymmetry_Pilot,2022.1.3,Win32,61.61049843,62c50e9c1127f2cd403a315f,0,54,54,106,1,twoone,,,,,,,,,,,,,,,,,,,,,,,,,,,,,,,,,,,,,,,,,,,,,,,,,,,,,,,,,,,,,,,,,,,,,,,,,,,,,,,,,,,,,,,,,,,,,,,,,,,,,,,,,,,,,,,,,,,,,,,,,,,,,,,,,,,,,,,,,,,,,,,,,,,,,,,,,,,,
,,,,,,6128cecf0227785e527007c6,62c53a83cfff8ef2daef82de,2022-07-06_09h32.40.461,Colour_Asymmetry_Pilot,2022.1.3,Win32,61.61049843,62c50e9c1127f2cd403a315f,0,55,55,6,1,fourtwo,,,,,,,,,,,,,,,,,,,,,,,,,,,,,,,,,,,,,,,,,,,,,,,,,,,,,,,,,,,,,,,,,,,,,,,,,,,,,,,,,,,,,,,,,,,,,,,,,,,,,,,,,,,,,,,,,,,,,,,,,,,,,,,,,,,,,,,,,,,,,,,,,,,,,,,,,,,,
,,,,,,6128cecf0227785e527007c6,62c53a83cfff8ef2daef82de,2022-07-06_09h32.40.461,Colour_Asymmetry_Pilot,2022.1.3,Win32,61.61049843,62c50e9c1127f2cd403a315f,0,56,56,160,1,onetwo,,,,,,,,,,,,,,,,,,,,,,,,,,,,,,,,,,,,,,,,,,,,,,,,,,,,,,,,,,,,,,,,,,,,,,,,,,,,,,,,,,,,,,,,,,,,,,,,,,,,,,,,,,,,,,,,,,,,,,,,,,,,,,,,,,,,,,,,,,,,,,,,,,,,,,,,,,,,
,,,,,,6128cecf0227785e527007c6,62c53a83cfff8ef2daef82de,2022-07-06_09h32.40.461,Colour_Asymmetry_Pilot,2022.1.3,Win32,61.61049843,62c50e9c1127f2cd403a315f,0,57,57,141,1,threefour,,,,,,,,,,,,,,,,,,,,,,,,,,,,,,,,,,,,,,,,,,,,,,,,,,,,,,,,,,,,,,,,,,,,,,,,,,,,,,,,,,,,,,,,,,,,,,,,,,,,,,,,,,,,,,,,,,,,,,,,,,,,,,,,,,,,,,,,,,,,,,,,,,,,,,,,,,,,
,,,,,,6128cecf0227785e527007c6,62c53a83cfff8ef2daef82de,2022-07-06_09h32.40.461,Colour_Asymmetry_Pilot,2022.1.3,Win32,61.61049843,62c50e9c1127f2cd403a315f,0,58,58,143,1,fourthree,,,,,,,,,,,,,,,,,,,,,,,,,,,,,,,,,,,,,,,,,,,,,,,,,,,,,,,,,,,,,,,,,,,,,,,,,,,,,,,,,,,,,,,,,,,,,,,,,,,,,,,,,,,,,,,,,,,,,,,,,,,,,,,,,,,,,,,,,,,,,,,,,,,,,,,,,,,,
,,,,,,6128cecf0227785e527007c6,62c53a83cfff8ef2daef82de,2022-07-06_09h32.40.461,Colour_Asymmetry_Pilot,2022.1.3,Win32,61.61049843,62c50e9c1127f2cd403a315f,0,59,59,24,1,onetwo,,,,,,,,,,,,,,,,,,,,,,,,,,,,,,,,,,,,,,,,,,,,,,,,,,,,,,,,,,,,,,,,,,,,,,,,,,,,,,,,,,,,,,,,,,,,,,,,,,,,,,,,,,,,,,,,,,,,,,,,,,,,,,,,,,,,,,,,,,,,,,,,,,,,,,,,,,,,
,,,,,,6128cecf0227785e527007c6,62c53a83cfff8ef2daef82de,2022-07-06_09h32.40.461,Colour_Asymmetry_Pilot,2022.1.3,Win32,61.61049843,62c50e9c1127f2cd403a315f,0,60,60,110,1,fourtwo,,,,,,,,,,,,,,,,,,,,,,,,,,,,,,,,,,,,,,,,,,,,,,,,,,,,,,,,,,,,,,,,,,,,,,,,,,,,,,,,,,,,,,,,,,,,,,,,,,,,,,,,,,,,,,,,,,,,,,,,,,,,,,,,,,,,,,,,,,,,,,,,,,,,,,,,,,,,
,,,,,,6128cecf0227785e527007c6,62c53a83cfff8ef2daef82de,2022-07-06_09h32.40.461,Colour_Asymmetry_Pilot,2022.1.3,Win32,61.61049843,62c50e9c1127f2cd403a315f,0,61,61,1,1,onethree,,,,,,,,,,,,,,,,,,,,,,,,,,,,,,,,,,,,,,,,,,,,,,,,,,,,,,,,,,,,,,,,,,,,,,,,,,,,,,,,,,,,,,,,,,,,,,,,,,,,,,,,,,,,,,,,,,,,,,,,,,,,,,,,,,,,,,,,,,,,,,,,,,,,,,,,,,,,
,,,,,,6128cecf0227785e527007c6,62c53a83cfff8ef2daef82de,2022-07-06_09h32.40.461,Colour_Asymmetry_Pilot,2022.1.3,Win32,61.61049843,62c50e9c1127f2cd403a315f,0,62,62,26,1,twoone,,,,,,,,,,,,,,,,,,,,,,,,,,,,,,,,,,,,,,,,,,,,,,,,,,,,,,,,,,,,,,,,,,,,,,,,,,,,,,,,,,,,,,,,,,,,,,,,,,,,,,,,,,,,,,,,,,,,,,,,,,,,,,,,,,,,,,,,,,,,,,,,,,,,,,,,,,,,
,,,,,,6128cecf0227785e527007c6,62c53a83cfff8ef2daef82de,2022-07-06_09h32.40.461,Colour_Asymmetry_Pilot,2022.1.3,Win32,61.61049843,62c50e9c1127f2cd403a315f,0,63,63,117,1,threefour,,,,,,,,,,,,,,,,,,,,,,,,,,,,,,,,,,,,,,,,,,,,,,,,,,,,,,,,,,,,,,,,,,,,,,,,,,,,,,,,,,,,,,,,,,,,,,,,,,,,,,,,,,,,,,,,,,,,,,,,,,,,,,,,,,,,,,,,,,,,,,,,,,,,,,,,,,,,
,,,,,,6128cecf0227785e527007c6,62c53a83cfff8ef2daef82de,2022-07-06_09h32.40.461,Colour_Asymmetry_Pilot,2022.1.3,Win32,61.61049843,62c50e9c1127f2cd403a315f,0,64,64,153,1,onethree,,,,,,,,,,,,,,,,,,,,,,,,,,,,,,,,,,,,,,,,,,,,,,,,,,,,,,,,,,,,,,,,,,,,,,,,,,,,,,,,,,,,,,,,,,,,,,,,,,,,,,,,,,,,,,,,,,,,,,,,,,,,,,,,,,,,,,,,,,,,,,,,,,,,,,,,,,,,
,,,,,,6128cecf0227785e527007c6,62c53a83cfff8ef2daef82de,2022-07-06_09h32.40.461,Colour_Asymmetry_Pilot,2022.1.3,Win32,61.61049843,62c50e9c1127f2cd403a315f,0,65,65,95,1,fourthree,,,,,,,,,,,,,,,,,,,,,,,,,,,,,,,,,,,,,,,,,,,,,,,,,,,,,,,,,,,,,,,,,,,,,,,,,,,,,,,,,,,,,,,,,,,,,,,,,,,,,,,,,,,,,,,,,,,,,,,,,,,,,,,,,,,,,,,,,,,,,,,,,,,,,,,,,,,,
,,,,,,6128cecf0227785e527007c6,62c53a83cfff8ef2daef82de,2022-07-06_09h32.40.461,Colour_Asymmetry_Pilot,2022.1.3,Win32,61.61049843,62c50e9c1127f2cd403a315f,0,66,66,21,1,threefour,,,,,,,,,,,,,,,,,,,,,,,,,,,,,,,,,,,,,,,,,,,,,,,,,,,,,,,,,,,,,,,,,,,,,,,,,,,,,,,,,,,,,,,,,,,,,,,,,,,,,,,,,,,,,,,,,,,,,,,,,,,,,,,,,,,,,,,,,,,,,,,,,,,,,,,,,,,,
,,,,,,6128cecf0227785e527007c6,62c53a83cfff8ef2daef82de,2022-07-06_09h32.40.461,Colour_Asymmetry_Pilot,2022.1.3,Win32,61.61049843,62c50e9c1127f2cd403a315f,0,67,67,19,1,twofour,,,,,,,,,,,,,,,,,,,,,,,,,,,,,,,,,,,,,,,,,,,,,,,,,,,,,,,,,,,,,,,,,,,,,,,,,,,,,,,,,,,,,,,,,,,,,,,,,,,,,,,,,,,,,,,,,,,,,,,,,,,,,,,,,,,,,,,,,,,,,,,,,,,,,,,,,,,,
,,,,,,6128cecf0227785e527007c6,62c53a83cfff8ef2daef82de,2022-07-06_09h32.40.461,Colour_Asymmetry_Pilot,2022.1.3,Win32,61.61049843,62c50e9c1127f2cd403a315f,0,68,68,132,1,threeone,,,,,,,,,,,,,,,,,,,,,,,,,,,,,,,,,,,,,,,,,,,,,,,,,,,,,,,,,,,,,,,,,,,,,,,,,,,,,,,,,,,,,,,,,,,,,,,,,,,,,,,,,,,,,,,,,,,,,,,,,,,,,,,,,,,,,,,,,,,,,,,,,,,,,,,,,,,,
,,,,,,6128cecf0227785e527007c6,62c53a83cfff8ef2daef82de,2022-07-06_09h32.40.461,Colour_Asymmetry_Pilot,2022.1.3,Win32,61.61049843,62c50e9c1127f2cd403a315f,0,69,69,37,1,threefour,,,,,,,,,,,,,,,,,,,,,,,,,,,,,,,,,,,,,,,,,,,,,,,,,,,,,,,,,,,,,,,,,,,,,,,,,,,,,,,,,,,,,,,,,,,,,,,,,,,,,,,,,,,,,,,,,,,,,,,,,,,,,,,,,,,,,,,,,,,,,,,,,,,,,,,,,,,,
,,,,,,6128cecf0227785e527007c6,62c53a83cfff8ef2daef82de,2022-07-06_09h32.40.461,Colour_Asymmetry_Pilot,2022.1.3,Win32,61.61049843,62c50e9c1127f2cd403a315f,0,70,70,49,1,onethree,,,,,,,,,,,,,,,,,,,,,,,,,,,,,,,,,,,,,,,,,,,,,,,,,,,,,,,,,,,,,,,,,,,,,,,,,,,,,,,,,,,,,,,,,,,,,,,,,,,,,,,,,,,,,,,,,,,,,,,,,,,,,,,,,,,,,,,,,,,,,,,,,,,,,,,,,,,,
,,,,,,6128cecf0227785e527007c6,62c53a83cfff8ef2daef82de,2022-07-06_09h32.40.461,Colour_Asymmetry_Pilot,2022.1.3,Win32,61.61049843,62c50e9c1127f2cd403a315f,0,71,71,4,1,threeone,,,,,,,,,,,,,,,,,,,,,,,,,,,,,,,,,,,,,,,,,,,,,,,,,,,,,,,,,,,,,,,,,,,,,,,,,,,,,,,,,,,,,,,,,,,,,,,,,,,,,,,,,,,,,,,,,,,,,,,,,,,,,,,,,,,,,,,,,,,,,,,,,,,,,,,,,,,,
,,,,,,6128cecf0227785e527007c6,62c53a83cfff8ef2daef82de,2022-07-06_09h32.40.461,Colour_Asymmetry_Pilot,2022.1.3,Win32,61.61049843,62c50e9c1127f2cd403a315f,0,72,72,53,1,threefour,,,,,,,,,,,,,,,,,,,,,,,,,,,,,,,,,,,,,,,,,,,,,,,,,,,,,,,,,,,,,,,,,,,,,,,,,,,,,,,,,,,,,,,,,,,,,,,,,,,,,,,,,,,,,,,,,,,,,,,,,,,,,,,,,,,,,,,,,,,,,,,,,,,,,,,,,,,,
,,,,,,6128cecf0227785e527007c6,62c53a83cfff8ef2daef82de,2022-07-06_09h32.40.461,Colour_Asymmetry_Pilot,2022.1.3,Win32,61.61049843,62c50e9c1127f2cd403a315f,0,73,73,20,1,threeone,,,,,,,,,,,,,,,,,,,,,,,,,,,,,,,,,,,,,,,,,,,,,,,,,,,,,,,,,,,,,,,,,,,,,,,,,,,,,,,,,,,,,,,,,,,,,,,,,,,,,,,,,,,,,,,,,,,,,,,,,,,,,,,,,,,,,,,,,,,,,,,,,,,,,,,,,,,,
,,,,,,6128cecf0227785e527007c6,62c53a83cfff8ef2daef82de,2022-07-06_09h32.40.461,Colour_Asymmetry_Pilot,2022.1.3,Win32,61.61049843,62c50e9c1127f2cd403a315f,0,74,74,14,1,fourtwo,,,,,,,,,,,,,,,,,,,,,,,,,,,,,,,,,,,,,,,,,,,,,,,,,,,,,,,,,,,,,,,,,,,,,,,,,,,,,,,,,,,,,,,,,,,,,,,,,,,,,,,,,,,,,,,,,,,,,,,,,,,,,,,,,,,,,,,,,,,,,,,,,,,,,,,,,,,,
,,,,,,6128cecf0227785e527007c6,62c53a83cfff8ef2daef82de,2022-07-06_09h32.40.461,Colour_Asymmetry_Pilot,2022.1.3,Win32,61.61049843,62c50e9c1127f2cd403a315f,0,75,75,82,1,twoone,,,,,,,,,,,,,,,,,,,,,,,,,,,,,,,,,,,,,,,,,,,,,,,,,,,,,,,,,,,,,,,,,,,,,,,,,,,,,,,,,,,,,,,,,,,,,,,,,,,,,,,,,,,,,,,,,,,,,,,,,,,,,,,,,,,,,,,,,,,,,,,,,,,,,,,,,,,,
,,,,,,6128cecf0227785e527007c6,62c53a83cfff8ef2daef82de,2022-07-06_09h32.40.461,Colour_Asymmetry_Pilot,2022.1.3,Win32,61.61049843,62c50e9c1127f2cd403a315f,0,76,76,88,1,onetwo,,,,,,,,,,,,,,,,,,,,,,,,,,,,,,,,,,,,,,,,,,,,,,,,,,,,,,,,,,,,,,,,,,,,,,,,,,,,,,,,,,,,,,,,,,,,,,,,,,,,,,,,,,,,,,,,,,,,,,,,,,,,,,,,,,,,,,,,,,,,,,,,,,,,,,,,,,,,
,,,,,,6128cecf0227785e527007c6,62c53a83cfff8ef2daef82de,2022-07-06_09h32.40.461,Colour_Asymmetry_Pilot,2022.1.3,Win32,61.61049843,62c50e9c1127f2cd403a315f,0,77,77,78,1,fourtwo,,,,,,,,,,,,,,,,,,,,,,,,,,,,,,,,,,,,,,,,,,,,,,,,,,,,,,,,,,,,,,,,,,,,,,,,,,,,,,,,,,,,,,,,,,,,,,,,,,,,,,,,,,,,,,,,,,,,,,,,,,,,,,,,,,,,,,,,,,,,,,,,,,,,,,,,,,,,
,,,,,,6128cecf0227785e527007c6,62c53a83cfff8ef2daef82de,2022-07-06_09h32.40.461,Colour_Asymmetry_Pilot,2022.1.3,Win32,61.61049843,62c50e9c1127f2cd403a315f,0,78,78,87,1,fourthree,,,,,,,,,,,,,,,,,,,,,,,,,,,,,,,,,,,,,,,,,,,,,,,,,,,,,,,,,,,,,,,,,,,,,,,,,,,,,,,,,,,,,,,,,,,,,,,,,,,,,,,,,,,,,,,,,,,,,,,,,,,,,,,,,,,,,,,,,,,,,,,,,,,,,,,,,,,,
,,,,,,6128cecf0227785e527007c6,62c53a83cfff8ef2daef82de,2022-07-06_09h32.40.461,Colour_Asymmetry_Pilot,2022.1.3,Win32,61.61049843,62c50e9c1127f2cd403a315f,0,79,79,152,1,onetwo,,,,,,,,,,,,,,,,,,,,,,,,,,,,,,,,,,,,,,,,,,,,,,,,,,,,,,,,,,,,,,,,,,,,,,,,,,,,,,,,,,,,,,,,,,,,,,,,,,,,,,,,,,,,,,,,,,,,,,,,,,,,,,,,,,,,,,,,,,,,,,,,,,,,,,,,,,,,
,,,,,,6128cecf0227785e527007c6,62c53a83cfff8ef2daef82de,2022-07-06_09h32.40.461,Colour_Asymmetry_Pilot,2022.1.3,Win32,61.61049843,62c50e9c1127f2cd403a315f,0,80,80,15,1,fourthree,,,,,,,,,,,,,,,,,,,,,,,,,,,,,,,,,,,,,,,,,,,,,,,,,,,,,,,,,,,,,,,,,,,,,,,,,,,,,,,,,,,,,,,,,,,,,,,,,,,,,,,,,,,,,,,,,,,,,,,,,,,,,,,,,,,,,,,,,,,,,,,,,,,,,,,,,,,,
,,,,,,6128cecf0227785e527007c6,62c53a83cfff8ef2daef82de,2022-07-06_09h32.40.461,Colour_Asymmetry_Pilot,2022.1.3,Win32,61.61049843,62c50e9c1127f2cd403a315f,0,81,81,103,1,fourthree,,,,,,,,,,,,,,,,,,,,,,,,,,,,,,,,,,,,,,,,,,,,,,,,,,,,,,,,,,,,,,,,,,,,,,,,,,,,,,,,,,,,,,,,,,,,,,,,,,,,,,,,,,,,,,,,,,,,,,,,,,,,,,,,,,,,,,,,,,,,,,,,,,,,,,,,,,,,
,,,,,,6128cecf0227785e527007c6,62c53a83cfff8ef2daef82de,2022-07-06_09h32.40.461,Colour_Asymmetry_Pilot,2022.1.3,Win32,61.61049843,62c50e9c1127f2cd403a315f,0,82,82,126,1,fourtwo,,,,,,,,,,,,,,,,,,,,,,,,,,,,,,,,,,,,,,,,,,,,,,,,,,,,,,,,,,,,,,,,,,,,,,,,,,,,,,,,,,,,,,,,,,,,,,,,,,,,,,,,,,,,,,,,,,,,,,,,,,,,,,,,,,,,,,,,,,,,,,,,,,,,,,,,,,,,
,,,,,,6128cecf0227785e527007c6,62c53a83cfff8ef2daef82de,2022-07-06_09h32.40.461,Colour_Asymmetry_Pilot,2022.1.3,Win32,61.61049843,62c50e9c1127f2cd403a315f,0,83,83,125,1,threefour,,,,,,,,,,,,,,,,,,,,,,,,,,,,,,,,,,,,,,,,,,,,,,,,,,,,,,,,,,,,,,,,,,,,,,,,,,,,,,,,,,,,,,,,,,,,,,,,,,,,,,,,,,,,,,,,,,,,,,,,,,,,,,,,,,,,,,,,,,,,,,,,,,,,,,,,,,,,
,,,,,,6128cecf0227785e527007c6,62c53a83cfff8ef2daef82de,2022-07-06_09h32.40.461,Colour_Asymmetry_Pilot,2022.1.3,Win32,61.61049843,62c50e9c1127f2cd403a315f,0,84,84,40,1,onetwo,,,,,,,,,,,,,,,,,,,,,,,,,,,,,,,,,,,,,,,,,,,,,,,,,,,,,,,,,,,,,,,,,,,,,,,,,,,,,,,,,,,,,,,,,,,,,,,,,,,,,,,,,,,,,,,,,,,,,,,,,,,,,,,,,,,,,,,,,,,,,,,,,,,,,,,,,,,,
,,,,,,6128cecf0227785e527007c6,62c53a83cfff8ef2daef82de,2022-07-06_09h32.40.461,Colour_Asymmetry_Pilot,2022.1.3,Win32,61.61049843,62c50e9c1127f2cd403a315f,0,85,85,18,1,twoone,,,,,,,,,,,,,,,,,,,,,,,,,,,,,,,,,,,,,,,,,,,,,,,,,,,,,,,,,,,,,,,,,,,,,,,,,,,,,,,,,,,,,,,,,,,,,,,,,,,,,,,,,,,,,,,,,,,,,,,,,,,,,,,,,,,,,,,,,,,,,,,,,,,,,,,,,,,,
,,,,,,6128cecf0227785e527007c6,62c53a83cfff8ef2daef82de,2022-07-06_09h32.40.461,Colour_Asymmetry_Pilot,2022.1.3,Win32,61.61049843,62c50e9c1127f2cd403a315f,0,86,86,99,1,twofour,,,,,,,,,,,,,,,,,,,,,,,,,,,,,,,,,,,,,,,,,,,,,,,,,,,,,,,,,,,,,,,,,,,,,,,,,,,,,,,,,,,,,,,,,,,,,,,,,,,,,,,,,,,,,,,,,,,,,,,,,,,,,,,,,,,,,,,,,,,,,,,,,,,,,,,,,,,,
,,,,,,6128cecf0227785e527007c6,62c53a83cfff8ef2daef82de,2022-07-06_09h32.40.461,Colour_Asymmetry_Pilot,2022.1.3,Win32,61.61049843,62c50e9c1127f2cd403a315f,0,87,87,50,1,twoone,,,,,,,,,,,,,,,,,,,,,,,,,,,,,,,,,,,,,,,,,,,,,,,,,,,,,,,,,,,,,,,,,,,,,,,,,,,,,,,,,,,,,,,,,,,,,,,,,,,,,,,,,,,,,,,,,,,,,,,,,,,,,,,,,,,,,,,,,,,,,,,,,,,,,,,,,,,,
,,,,,,6128cecf0227785e527007c6,62c53a83cfff8ef2daef82de,2022-07-06_09h32.40.461,Colour_Asymmetry_Pilot,2022.1.3,Win32,61.61049843,62c50e9c1127f2cd403a315f,0,88,88,32,1,onetwo,,,,,,,,,,,,,,,,,,,,,,,,,,,,,,,,,,,,,,,,,,,,,,,,,,,,,,,,,,,,,,,,,,,,,,,,,,,,,,,,,,,,,,,,,,,,,,,,,,,,,,,,,,,,,,,,,,,,,,,,,,,,,,,,,,,,,,,,,,,,,,,,,,,,,,,,,,,,
,,,,,,6128cecf0227785e527007c6,62c53a83cfff8ef2daef82de,2022-07-06_09h32.40.461,Colour_Asymmetry_Pilot,2022.1.3,Win32,61.61049843,62c50e9c1127f2cd403a315f,0,89,89,161,1,onethree,,,,,,,,,,,,,,,,,,,,,,,,,,,,,,,,,,,,,,,,,,,,,,,,,,,,,,,,,,,,,,,,,,,,,,,,,,,,,,,,,,,,,,,,,,,,,,,,,,,,,,,,,,,,,,,,,,,,,,,,,,,,,,,,,,,,,,,,,,,,,,,,,,,,,,,,,,,,
,,,,,,6128cecf0227785e527007c6,62c53a83cfff8ef2daef82de,2022-07-06_09h32.40.461,Colour_Asymmetry_Pilot,2022.1.3,Win32,61.61049843,62c50e9c1127f2cd403a315f,0,90,90,22,1,fourtwo,,,,,,,,,,,,,,,,,,,,,,,,,,,,,,,,,,,,,,,,,,,,,,,,,,,,,,,,,,,,,,,,,,,,,,,,,,,,,,,,,,,,,,,,,,,,,,,,,,,,,,,,,,,,,,,,,,,,,,,,,,,,,,,,,,,,,,,,,,,,,,,,,,,,,,,,,,,,
,,,,,,6128cecf0227785e527007c6,62c53a83cfff8ef2daef82de,2022-07-06_09h32.40.461,Colour_Asymmetry_Pilot,2022.1.3,Win32,61.61049843,62c50e9c1127f2cd403a315f,0,91,91,47,1,fourthree,,,,,,,,,,,,,,,,,,,,,,,,,,,,,,,,,,,,,,,,,,,,,,,,,,,,,,,,,,,,,,,,,,,,,,,,,,,,,,,,,,,,,,,,,,,,,,,,,,,,,,,,,,,,,,,,,,,,,,,,,,,,,,,,,,,,,,,,,,,,,,,,,,,,,,,,,,,,
,,,,,,6128cecf0227785e527007c6,62c53a83cfff8ef2daef82de,2022-07-06_09h32.40.461,Colour_Asymmetry_Pilot,2022.1.3,Win32,61.61049843,62c50e9c1127f2cd403a315f,0,92,92,68,1,threeone,,,,,,,,,,,,,,,,,,,,,,,,,,,,,,,,,,,,,,,,,,,,,,,,,,,,,,,,,,,,,,,,,,,,,,,,,,,,,,,,,,,,,,,,,,,,,,,,,,,,,,,,,,,,,,,,,,,,,,,,,,,,,,,,,,,,,,,,,,,,,,,,,,,,,,,,,,,,
,,,,,,6128cecf0227785e527007c6,62c53a83cfff8ef2daef82de,2022-07-06_09h32.40.461,Colour_Asymmetry_Pilot,2022.1.3,Win32,61.61049843,62c50e9c1127f2cd403a315f,0,93,93,0,1,onetwo,,,,,,,,,,,,,,,,,,,,,,,,,,,,,,,,,,,,,,,,,,,,,,,,,,,,,,,,,,,,,,,,,,,,,,,,,,,,,,,,,,,,,,,,,,,,,,,,,,,,,,,,,,,,,,,,,,,,,,,,,,,,,,,,,,,,,,,,,,,,,,,,,,,,,,,,,,,,
,,,,,,6128cecf0227785e527007c6,62c53a83cfff8ef2daef82de,2022-07-06_09h32.40.461,Colour_Asymmetry_Pilot,2022.1.3,Win32,61.61049843,62c50e9c1127f2cd403a315f,0,94,94,67,1,twofour,,,,,,,,,,,,,,,,,,,,,,,,,,,,,,,,,,,,,,,,,,,,,,,,,,,,,,,,,,,,,,,,,,,,,,,,,,,,,,,,,,,,,,,,,,,,,,,,,,,,,,,,,,,,,,,,,,,,,,,,,,,,,,,,,,,,,,,,,,,,,,,,,,,,,,,,,,,,
,,,,,,6128cecf0227785e527007c6,62c53a83cfff8ef2daef82de,2022-07-06_09h32.40.461,Colour_Asymmetry_Pilot,2022.1.3,Win32,61.61049843,62c50e9c1127f2cd403a315f,0,95,95,93,1,threefour,,,,,,,,,,,,,,,,,,,,,,,,,,,,,,,,,,,,,,,,,,,,,,,,,,,,,,,,,,,,,,,,,,,,,,,,,,,,,,,,,,,,,,,,,,,,,,,,,,,,,,,,,,,,,,,,,,,,,,,,,,,,,,,,,,,,,,,,,,,,,,,,,,,,,,,,,,,,
,,,,,,6128cecf0227785e527007c6,62c53a83cfff8ef2daef82de,2022-07-06_09h32.40.461,Colour_Asymmetry_Pilot,2022.1.3,Win32,61.61049843,62c50e9c1127f2cd403a315f,0,96,96,149,1,threefour,,,,,,,,,,,,,,,,,,,,,,,,,,,,,,,,,,,,,,,,,,,,,,,,,,,,,,,,,,,,,,,,,,,,,,,,,,,,,,,,,,,,,,,,,,,,,,,,,,,,,,,,,,,,,,,,,,,,,,,,,,,,,,,,,,,,,,,,,,,,,,,,,,,,,,,,,,,,
,,,,,,6128cecf0227785e527007c6,62c53a83cfff8ef2daef82de,2022-07-06_09h32.40.461,Colour_Asymmetry_Pilot,2022.1.3,Win32,61.61049843,62c50e9c1127f2cd403a315f,0,97,97,31,1,fourthree,,,,,,,,,,,,,,,,,,,,,,,,,,,,,,,,,,,,,,,,,,,,,,,,,,,,,,,,,,,,,,,,,,,,,,,,,,,,,,,,,,,,,,,,,,,,,,,,,,,,,,,,,,,,,,,,,,,,,,,,,,,,,,,,,,,,,,,,,,,,,,,,,,,,,,,,,,,,
,,,,,,6128cecf0227785e527007c6,62c53a83cfff8ef2daef82de,2022-07-06_09h32.40.461,Colour_Asymmetry_Pilot,2022.1.3,Win32,61.61049843,62c50e9c1127f2cd403a315f,0,98,98,98,1,twoone,,,,,,,,,,,,,,,,,,,,,,,,,,,,,,,,,,,,,,,,,,,,,,,,,,,,,,,,,,,,,,,,,,,,,,,,,,,,,,,,,,,,,,,,,,,,,,,,,,,,,,,,,,,,,,,,,,,,,,,,,,,,,,,,,,,,,,,,,,,,,,,,,,,,,,,,,,,,
,,,,,,6128cecf0227785e527007c6,62c53a83cfff8ef2daef82de,2022-07-06_09h32.40.461,Colour_Asymmetry_Pilot,2022.1.3,Win32,61.61049843,62c50e9c1127f2cd403a315f,0,99,99,77,1,threefour,,,,,,,,,,,,,,,,,,,,,,,,,,,,,,,,,,,,,,,,,,,,,,,,,,,,,,,,,,,,,,,,,,,,,,,,,,,,,,,,,,,,,,,,,,,,,,,,,,,,,,,,,,,,,,,,,,,,,,,,,,,,,,,,,,,,,,,,,,,,,,,,,,,,,,,,,,,,
,,,,,,6128cecf0227785e527007c6,62c53a83cfff8ef2daef82de,2022-07-06_09h32.40.461,Colour_Asymmetry_Pilot,2022.1.3,Win32,61.61049843,62c50e9c1127f2cd403a315f,0,100,100,11,1,twofour,,,,,,,,,,,,,,,,,,,,,,,,,,,,,,,,,,,,,,,,,,,,,,,,,,,,,,,,,,,,,,,,,,,,,,,,,,,,,,,,,,,,,,,,,,,,,,,,,,,,,,,,,,,,,,,,,,,,,,,,,,,,,,,,,,,,,,,,,,,,,,,,,,,,,,,,,,,,
,,,,,,6128cecf0227785e527007c6,62c53a83cfff8ef2daef82de,2022-07-06_09h32.40.461,Colour_Asymmetry_Pilot,2022.1.3,Win32,61.61049843,62c50e9c1127f2cd403a315f,0,101,101,105,1,onethree,,,,,,,,,,,,,,,,,,,,,,,,,,,,,,,,,,,,,,,,,,,,,,,,,,,,,,,,,,,,,,,,,,,,,,,,,,,,,,,,,,,,,,,,,,,,,,,,,,,,,,,,,,,,,,,,,,,,,,,,,,,,,,,,,,,,,,,,,,,,,,,,,,,,,,,,,,,,
,,,,,,6128cecf0227785e527007c6,62c53a83cfff8ef2daef82de,2022-07-06_09h32.40.461,Colour_Asymmetry_Pilot,2022.1.3,Win32,61.61049843,62c50e9c1127f2cd403a315f,0,102,102,72,1,onetwo,,,,,,,,,,,,,,,,,,,,,,,,,,,,,,,,,,,,,,,,,,,,,,,,,,,,,,,,,,,,,,,,,,,,,,,,,,,,,,,,,,,,,,,,,,,,,,,,,,,,,,,,,,,,,,,,,,,,,,,,,,,,,,,,,,,,,,,,,,,,,,,,,,,,,,,,,,,,
,,,,,,6128cecf0227785e527007c6,62c53a83cfff8ef2daef82de,2022-07-06_09h32.40.461,Colour_Asymmetry_Pilot,2022.1.3,Win32,61.61049843,62c50e9c1127f2cd403a315f,0,103,103,12,1,threeone,,,,,,,,,,,,,,,,,,,,,,,,,,,,,,,,,,,,,,,,,,,,,,,,,,,,,,,,,,,,,,,,,,,,,,,,,,,,,,,,,,,,,,,,,,,,,,,,,,,,,,,,,,,,,,,,,,,,,,,,,,,,,,,,,,,,,,,,,,,,,,,,,,,,,,,,,,,,
,,,,,,6128cecf0227785e527007c6,62c53a83cfff8ef2daef82de,2022-07-06_09h32.40.461,Colour_Asymmetry_Pilot,2022.1.3,Win32,61.61049843,62c50e9c1127f2cd403a315f,0,104,104,121,1,onethree,,,,,,,,,,,,,,,,,,,,,,,,,,,,,,,,,,,,,,,,,,,,,,,,,,,,,,,,,,,,,,,,,,,,,,,,,,,,,,,,,,,,,,,,,,,,,,,,,,,,,,,,,,,,,,,,,,,,,,,,,,,,,,,,,,,,,,,,,,,,,,,,,,,,,,,,,,,,
,,,,,,6128cecf0227785e527007c6,62c53a83cfff8ef2daef82de,2022-07-06_09h32.40.461,Colour_Asymmetry_Pilot,2022.1.3,Win32,61.61049843,62c50e9c1127f2cd403a315f,0,105,105,28,1,threeone,,,,,,,,,,,,,,,,,,,,,,,,,,,,,,,,,,,,,,,,,,,,,,,,,,,,,,,,,,,,,,,,,,,,,,,,,,,,,,,,,,,,,,,,,,,,,,,,,,,,,,,,,,,,,,,,,,,,,,,,,,,,,,,,,,,,,,,,,,,,,,,,,,,,,,,,,,,,
,,,,,,6128cecf0227785e527007c6,62c53a83cfff8ef2daef82de,2022-07-06_09h32.40.461,Colour_Asymmetry_Pilot,2022.1.3,Win32,61.61049843,62c50e9c1127f2cd403a315f,0,106,106,9,1,onethree,,,,,,,,,,,,,,,,,,,,,,,,,,,,,,,,,,,,,,,,,,,,,,,,,,,,,,,,,,,,,,,,,,,,,,,,,,,,,,,,,,,,,,,,,,,,,,,,,,,,,,,,,,,,,,,,,,,,,,,,,,,,,,,,,,,,,,,,,,,,,,,,,,,,,,,,,,,,
,,,,,,6128cecf0227785e527007c6,62c53a83cfff8ef2daef82de,2022-07-06_09h32.40.461,Colour_Asymmetry_Pilot,2022.1.3,Win32,61.61049843,62c50e9c1127f2cd403a315f,0,107,107,43,1,twofour,,,,,,,,,,,,,,,,,,,,,,,,,,,,,,,,,,,,,,,,,,,,,,,,,,,,,,,,,,,,,,,,,,,,,,,,,,,,,,,,,,,,,,,,,,,,,,,,,,,,,,,,,,,,,,,,,,,,,,,,,,,,,,,,,,,,,,,,,,,,,,,,,,,,,,,,,,,,
,,,,,,6128cecf0227785e527007c6,62c53a83cfff8ef2daef82de,2022-07-06_09h32.40.461,Colour_Asymmetry_Pilot,2022.1.3,Win32,61.61049843,62c50e9c1127f2cd403a315f,0,108,108,7,1,fourthree,,,,,,,,,,,,,,,,,,,,,,,,,,,,,,,,,,,,,,,,,,,,,,,,,,,,,,,,,,,,,,,,,,,,,,,,,,,,,,,,,,,,,,,,,,,,,,,,,,,,,,,,,,,,,,,,,,,,,,,,,,,,,,,,,,,,,,,,,,,,,,,,,,,,,,,,,,,,
,,,,,,6128cecf0227785e527007c6,62c53a83cfff8ef2daef82de,2022-07-06_09h32.40.461,Colour_Asymmetry_Pilot,2022.1.3,Win32,61.61049843,62c50e9c1127f2cd403a315f,0,109,109,63,1,fourthree,,,,,,,,,,,,,,,,,,,,,,,,,,,,,,,,,,,,,,,,,,,,,,,,,,,,,,,,,,,,,,,,,,,,,,,,,,,,,,,,,,,,,,,,,,,,,,,,,,,,,,,,,,,,,,,,,,,,,,,,,,,,,,,,,,,,,,,,,,,,,,,,,,,,,,,,,,,,
,,,,,,6128cecf0227785e527007c6,62c53a83cfff8ef2daef82de,2022-07-06_09h32.40.461,Colour_Asymmetry_Pilot,2022.1.3,Win32,61.61049843,62c50e9c1127f2cd403a315f,0,110,110,128,1,onetwo,,,,,,,,,,,,,,,,,,,,,,,,,,,,,,,,,,,,,,,,,,,,,,,,,,,,,,,,,,,,,,,,,,,,,,,,,,,,,,,,,,,,,,,,,,,,,,,,,,,,,,,,,,,,,,,,,,,,,,,,,,,,,,,,,,,,,,,,,,,,,,,,,,,,,,,,,,,,
,,,,,,6128cecf0227785e527007c6,62c53a83cfff8ef2daef82de,2022-07-06_09h32.40.461,Colour_Asymmetry_Pilot,2022.1.3,Win32,61.61049843,62c50e9c1127f2cd403a315f,0,111,111,158,1,fourtwo,,,,,,,,,,,,,,,,,,,,,,,,,,,,,,,,,,,,,,,,,,,,,,,,,,,,,,,,,,,,,,,,,,,,,,,,,,,,,,,,,,,,,,,,,,,,,,,,,,,,,,,,,,,,,,,,,,,,,,,,,,,,,,,,,,,,,,,,,,,,,,,,,,,,,,,,,,,,
,,,,,,6128cecf0227785e527007c6,62c53a83cfff8ef2daef82de,2022-07-06_09h32.40.461,Colour_Asymmetry_Pilot,2022.1.3,Win32,61.61049843,62c50e9c1127f2cd403a315f,0,112,112,130,1,twoone,,,,,,,,,,,,,,,,,,,,,,,,,,,,,,,,,,,,,,,,,,,,,,,,,,,,,,,,,,,,,,,,,,,,,,,,,,,,,,,,,,,,,,,,,,,,,,,,,,,,,,,,,,,,,,,,,,,,,,,,,,,,,,,,,,,,,,,,,,,,,,,,,,,,,,,,,,,,
,,,,,,6128cecf0227785e527007c6,62c53a83cfff8ef2daef82de,2022-07-06_09h32.40.461,Colour_Asymmetry_Pilot,2022.1.3,Win32,61.61049843,62c50e9c1127f2cd403a315f,0,113,113,10,1,twoone,,,,,,,,,,,,,,,,,,,,,,,,,,,,,,,,,,,,,,,,,,,,,,,,,,,,,,,,,,,,,,,,,,,,,,,,,,,,,,,,,,,,,,,,,,,,,,,,,,,,,,,,,,,,,,,,,,,,,,,,,,,,,,,,,,,,,,,,,,,,,,,,,,,,,,,,,,,,
,,,,,,6128cecf0227785e527007c6,62c53a83cfff8ef2daef82de,2022-07-06_09h32.40.461,Colour_Asymmetry_Pilot,2022.1.3,Win32,61.61049843,62c50e9c1127f2cd403a315f,0,114,114,111,1,fourthree,,,,,,,,,,,,,,,,,,,,,,,,,,,,,,,,,,,,,,,,,,,,,,,,,,,,,,,,,,,,,,,,,,,,,,,,,,,,,,,,,,,,,,,,,,,,,,,,,,,,,,,,,,,,,,,,,,,,,,,,,,,,,,,,,,,,,,,,,,,,,,,,,,,,,,,,,,,,
,,,,,,6128cecf0227785e527007c6,62c53a83cfff8ef2daef82de,2022-07-06_09h32.40.461,Colour_Asymmetry_Pilot,2022.1.3,Win32,61.61049843,62c50e9c1127f2cd403a315f,0,115,115,62,1,fourtwo,,,,,,,,,,,,,,,,,,,,,,,,,,,,,,,,,,,,,,,,,,,,,,,,,,,,,,,,,,,,,,,,,,,,,,,,,,,,,,,,,,,,,,,,,,,,,,,,,,,,,,,,,,,,,,,,,,,,,,,,,,,,,,,,,,,,,,,,,,,,,,,,,,,,,,,,,,,,
,,,,,,6128cecf0227785e527007c6,62c53a83cfff8ef2daef82de,2022-07-06_09h32.40.461,Colour_Asymmetry_Pilot,2022.1.3,Win32,61.61049843,62c50e9c1127f2cd403a315f,0,116,116,115,1,twofour,,,,,,,,,,,,,,,,,,,,,,,,,,,,,,,,,,,,,,,,,,,,,,,,,,,,,,,,,,,,,,,,,,,,,,,,,,,,,,,,,,,,,,,,,,,,,,,,,,,,,,,,,,,,,,,,,,,,,,,,,,,,,,,,,,,,,,,,,,,,,,,,,,,,,,,,,,,,
,,,,,,6128cecf0227785e527007c6,62c53a83cfff8ef2daef82de,2022-07-06_09h32.40.461,Colour_Asymmetry_Pilot,2022.1.3,Win32,61.61049843,62c50e9c1127f2cd403a315f,0,117,117,17,1,onethree,,,,,,,,,,,,,,,,,,,,,,,,,,,,,,,,,,,,,,,,,,,,,,,,,,,,,,,,,,,,,,,,,,,,,,,,,,,,,,,,,,,,,,,,,,,,,,,,,,,,,,,,,,,,,,,,,,,,,,,,,,,,,,,,,,,,,,,,,,,,,,,,,,,,,,,,,,,,
,,,,,,6128cecf0227785e527007c6,62c53a83cfff8ef2daef82de,2022-07-06_09h32.40.461,Colour_Asymmetry_Pilot,2022.1.3,Win32,61.61049843,62c50e9c1127f2cd403a315f,0,118,118,112,1,onetwo,,,,,,,,,,,,,,,,,,,,,,,,,,,,,,,,,,,,,,,,,,,,,,,,,,,,,,,,,,,,,,,,,,,,,,,,,,,,,,,,,,,,,,,,,,,,,,,,,,,,,,,,,,,,,,,,,,,,,,,,,,,,,,,,,,,,,,,,,,,,,,,,,,,,,,,,,,,,
,,,,,,6128cecf0227785e527007c6,62c53a83cfff8ef2daef82de,2022-07-06_09h32.40.461,Colour_Asymmetry_Pilot,2022.1.3,Win32,61.61049843,62c50e9c1127f2cd403a315f,0,119,119,8,1,onetwo,,,,,,,,,,,,,,,,,,,,,,,,,,,,,,,,,,,,,,,,,,,,,,,,,,,,,,,,,,,,,,,,,,,,,,,,,,,,,,,,,,,,,,,,,,,,,,,,,,,,,,,,,,,,,,,,,,,,,,,,,,,,,,,,,,,,,,,,,,,,,,,,,,,,,,,,,,,,
,,,,,,6128cecf0227785e527007c6,62c53a83cfff8ef2daef82de,2022-07-06_09h32.40.461,Colour_Asymmetry_Pilot,2022.1.3,Win32,61.61049843,62c50e9c1127f2cd403a315f,0,120,120,159,1,fourthree,,,,,,,,,,,,,,,,,,,,,,,,,,,,,,,,,,,,,,,,,,,,,,,,,,,,,,,,,,,,,,,,,,,,,,,,,,,,,,,,,,,,,,,,,,,,,,,,,,,,,,,,,,,,,,,,,,,,,,,,,,,,,,,,,,,,,,,,,,,,,,,,,,,,,,,,,,,,
,,,,,,6128cecf0227785e527007c6,62c53a83cfff8ef2daef82de,2022-07-06_09h32.40.461,Colour_Asymmetry_Pilot,2022.1.3,Win32,61.61049843,62c50e9c1127f2cd403a315f,0,121,121,108,1,threeone,,,,,,,,,,,,,,,,,,,,,,,,,,,,,,,,,,,,,,,,,,,,,,,,,,,,,,,,,,,,,,,,,,,,,,,,,,,,,,,,,,,,,,,,,,,,,,,,,,,,,,,,,,,,,,,,,,,,,,,,,,,,,,,,,,,,,,,,,,,,,,,,,,,,,,,,,,,,
,,,,,,6128cecf0227785e527007c6,62c53a83cfff8ef2daef82de,2022-07-06_09h32.40.461,Colour_Asymmetry_Pilot,2022.1.3,Win32,61.61049843,62c50e9c1127f2cd403a315f,0,122,122,107,1,twofour,,,,,,,,,,,,,,,,,,,,,,,,,,,,,,,,,,,,,,,,,,,,,,,,,,,,,,,,,,,,,,,,,,,,,,,,,,,,,,,,,,,,,,,,,,,,,,,,,,,,,,,,,,,,,,,,,,,,,,,,,,,,,,,,,,,,,,,,,,,,,,,,,,,,,,,,,,,,
,,,,,,6128cecf0227785e527007c6,62c53a83cfff8ef2daef82de,2022-07-06_09h32.40.461,Colour_Asymmetry_Pilot,2022.1.3,Win32,61.61049843,62c50e9c1127f2cd403a315f,0,123,123,116,1,threeone,,,,,,,,,,,,,,,,,,,,,,,,,,,,,,,,,,,,,,,,,,,,,,,,,,,,,,,,,,,,,,,,,,,,,,,,,,,,,,,,,,,,,,,,,,,,,,,,,,,,,,,,,,,,,,,,,,,,,,,,,,,,,,,,,,,,,,,,,,,,,,,,,,,,,,,,,,,,
,,,,,,6128cecf0227785e527007c6,62c53a83cfff8ef2daef82de,2022-07-06_09h32.40.461,Colour_Asymmetry_Pilot,2022.1.3,Win32,61.61049843,62c50e9c1127f2cd403a315f,0,124,124,86,1,fourtwo,,,,,,,,,,,,,,,,,,,,,,,,,,,,,,,,,,,,,,,,,,,,,,,,,,,,,,,,,,,,,,,,,,,,,,,,,,,,,,,,,,,,,,,,,,,,,,,,,,,,,,,,,,,,,,,,,,,,,,,,,,,,,,,,,,,,,,,,,,,,,,,,,,,,,,,,,,,,
,,,,,,6128cecf0227785e527007c6,62c53a83cfff8ef2daef82de,2022-07-06_09h32.40.461,Colour_Asymmetry_Pilot,2022.1.3,Win32,61.61049843,62c50e9c1127f2cd403a315f,0,125,125,139,1,twofour,,,,,,,,,,,,,,,,,,,,,,,,,,,,,,,,,,,,,,,,,,,,,,,,,,,,,,,,,,,,,,,,,,,,,,,,,,,,,,,,,,,,,,,,,,,,,,,,,,,,,,,,,,,,,,,,,,,,,,,,,,,,,,,,,,,,,,,,,,,,,,,,,,,,,,,,,,,,
,,,,,,6128cecf0227785e527007c6,62c53a83cfff8ef2daef82de,2022-07-06_09h32.40.461,Colour_Asymmetry_Pilot,2022.1.3,Win32,61.61049843,62c50e9c1127f2cd403a315f,0,126,126,94,1,fourtwo,,,,,,,,,,,,,,,,,,,,,,,,,,,,,,,,,,,,,,,,,,,,,,,,,,,,,,,,,,,,,,,,,,,,,,,,,,,,,,,,,,,,,,,,,,,,,,,,,,,,,,,,,,,,,,,,,,,,,,,,,,,,,,,,,,,,,,,,,,,,,,,,,,,,,,,,,,,,
,,,,,,6128cecf0227785e527007c6,62c53a83cfff8ef2daef82de,2022-07-06_09h32.40.461,Colour_Asymmetry_Pilot,2022.1.3,Win32,61.61049843,62c50e9c1127f2cd403a315f,0,127,127,33,1,onethree,,,,,,,,,,,,,,,,,,,,,,,,,,,,,,,,,,,,,,,,,,,,,,,,,,,,,,,,,,,,,,,,,,,,,,,,,,,,,,,,,,,,,,,,,,,,,,,,,,,,,,,,,,,,,,,,,,,,,,,,,,,,,,,,,,,,,,,,,,,,,,,,,,,,,,,,,,,,
,,,,,,6128cecf0227785e527007c6,62c53a83cfff8ef2daef82de,2022-07-06_09h32.40.461,Colour_Asymmetry_Pilot,2022.1.3,Win32,61.61049843,62c50e9c1127f2cd403a315f,0,128,128,66,1,twoone,,,,,,,,,,,,,,,,,,,,,,,,,,,,,,,,,,,,,,,,,,,,,,,,,,,,,,,,,,,,,,,,,,,,,,,,,,,,,,,,,,,,,,,,,,,,,,,,,,,,,,,,,,,,,,,,,,,,,,,,,,,,,,,,,,,,,,,,,,,,,,,,,,,,,,,,,,,,
,,,,,,6128cecf0227785e527007c6,62c53a83cfff8ef2daef82de,2022-07-06_09h32.40.461,Colour_Asymmetry_Pilot,2022.1.3,Win32,61.61049843,62c50e9c1127f2cd403a315f,0,129,129,35,1,twofour,,,,,,,,,,,,,,,,,,,,,,,,,,,,,,,,,,,,,,,,,,,,,,,,,,,,,,,,,,,,,,,,,,,,,,,,,,,,,,,,,,,,,,,,,,,,,,,,,,,,,,,,,,,,,,,,,,,,,,,,,,,,,,,,,,,,,,,,,,,,,,,,,,,,,,,,,,,,
,,,,,,6128cecf0227785e527007c6,62c53a83cfff8ef2daef82de,2022-07-06_09h32.40.461,Colour_Asymmetry_Pilot,2022.1.3,Win32,61.61049843,62c50e9c1127f2cd403a315f,0,130,130,64,1,onetwo,,,,,,,,,,,,,,,,,,,,,,,,,,,,,,,,,,,,,,,,,,,,,,,,,,,,,,,,,,,,,,,,,,,,,,,,,,,,,,,,,,,,,,,,,,,,,,,,,,,,,,,,,,,,,,,,,,,,,,,,,,,,,,,,,,,,,,,,,,,,,,,,,,,,,,,,,,,,
,,,,,,6128cecf0227785e527007c6,62c53a83cfff8ef2daef82de,2022-07-06_09h32.40.461,Colour_Asymmetry_Pilot,2022.1.3,Win32,61.61049843,62c50e9c1127f2cd403a315f,0,131,131,83,1,twofour,,,,,,,,,,,,,,,,,,,,,,,,,,,,,,,,,,,,,,,,,,,,,,,,,,,,,,,,,,,,,,,,,,,,,,,,,,,,,,,,,,,,,,,,,,,,,,,,,,,,,,,,,,,,,,,,,,,,,,,,,,,,,,,,,,,,,,,,,,,,,,,,,,,,,,,,,,,,
,,,,,,6128cecf0227785e527007c6,62c53a83cfff8ef2daef82de,2022-07-06_09h32.40.461,Colour_Asymmetry_Pilot,2022.1.3,Win32,61.61049843,62c50e9c1127f2cd403a315f,0,132,132,127,1,fourthree,,,,,,,,,,,,,,,,,,,,,,,,,,,,,,,,,,,,,,,,,,,,,,,,,,,,,,,,,,,,,,,,,,,,,,,,,,,,,,,,,,,,,,,,,,,,,,,,,,,,,,,,,,,,,,,,,,,,,,,,,,,,,,,,,,,,,,,,,,,,,,,,,,,,,,,,,,,,
,,,,,,6128cecf0227785e527007c6,62c53a83cfff8ef2daef82de,2022-07-06_09h32.40.461,Colour_Asymmetry_Pilot,2022.1.3,Win32,61.61049843,62c50e9c1127f2cd403a315f,0,133,133,60,1,threeone,,,,,,,,,,,,,,,,,,,,,,,,,,,,,,,,,,,,,,,,,,,,,,,,,,,,,,,,,,,,,,,,,,,,,,,,,,,,,,,,,,,,,,,,,,,,,,,,,,,,,,,,,,,,,,,,,,,,,,,,,,,,,,,,,,,,,,,,,,,,,,,,,,,,,,,,,,,,
,,,,,,6128cecf0227785e527007c6,62c53a83cfff8ef2daef82de,2022-07-06_09h32.40.461,Colour_Asymmetry_Pilot,2022.1.3,Win32,61.61049843,62c50e9c1127f2cd403a315f,0,134,134,52,1,threeone,,,,,,,,,,,,,,,,,,,,,,,,,,,,,,,,,,,,,,,,,,,,,,,,,,,,,,,,,,,,,,,,,,,,,,,,,,,,,,,,,,,,,,,,,,,,,,,,,,,,,,,,,,,,,,,,,,,,,,,,,,,,,,,,,,,,,,,,,,,,,,,,,,,,,,,,,,,,
,,,,,,6128cecf0227785e527007c6,62c53a83cfff8ef2daef82de,2022-07-06_09h32.40.461,Colour_Asymmetry_Pilot,2022.1.3,Win32,61.61049843,62c50e9c1127f2cd403a315f,0,135,135,84,1,threeone,,,,,,,,,,,,,,,,,,,,,,,,,,,,,,,,,,,,,,,,,,,,,,,,,,,,,,,,,,,,,,,,,,,,,,,,,,,,,,,,,,,,,,,,,,,,,,,,,,,,,,,,,,,,,,,,,,,,,,,,,,,,,,,,,,,,,,,,,,,,,,,,,,,,,,,,,,,,
,,,,,,6128cecf0227785e527007c6,62c53a83cfff8ef2daef82de,2022-07-06_09h32.40.461,Colour_Asymmetry_Pilot,2022.1.3,Win32,61.61049843,62c50e9c1127f2cd403a315f,0,136,136,42,1,twoone,,,,,,,,,,,,,,,,,,,,,,,,,,,,,,,,,,,,,,,,,,,,,,,,,,,,,,,,,,,,,,,,,,,,,,,,,,,,,,,,,,,,,,,,,,,,,,,,,,,,,,,,,,,,,,,,,,,,,,,,,,,,,,,,,,,,,,,,,,,,,,,,,,,,,,,,,,,,
,,,,,,6128cecf0227785e527007c6,62c53a83cfff8ef2daef82de,2022-07-06_09h32.40.461,Colour_Asymmetry_Pilot,2022.1.3,Win32,61.61049843,62c50e9c1127f2cd403a315f,0,137,137,45,1,threefour,,,,,,,,,,,,,,,,,,,,,,,,,,,,,,,,,,,,,,,,,,,,,,,,,,,,,,,,,,,,,,,,,,,,,,,,,,,,,,,,,,,,,,,,,,,,,,,,,,,,,,,,,,,,,,,,,,,,,,,,,,,,,,,,,,,,,,,,,,,,,,,,,,,,,,,,,,,,
,,,,,,6128cecf0227785e527007c6,62c53a83cfff8ef2daef82de,2022-07-06_09h32.40.461,Colour_Asymmetry_Pilot,2022.1.3,Win32,61.61049843,62c50e9c1127f2cd403a315f,0,138,138,151,1,fourthree,,,,,,,,,,,,,,,,,,,,,,,,,,,,,,,,,,,,,,,,,,,,,,,,,,,,,,,,,,,,,,,,,,,,,,,,,,,,,,,,,,,,,,,,,,,,,,,,,,,,,,,,,,,,,,,,,,,,,,,,,,,,,,,,,,,,,,,,,,,,,,,,,,,,,,,,,,,,
,,,,,,6128cecf0227785e527007c6,62c53a83cfff8ef2daef82de,2022-07-06_09h32.40.461,Colour_Asymmetry_Pilot,2022.1.3,Win32,61.61049843,62c50e9c1127f2cd403a315f,0,139,139,145,1,onethree,,,,,,,,,,,,,,,,,,,,,,,,,,,,,,,,,,,,,,,,,,,,,,,,,,,,,,,,,,,,,,,,,,,,,,,,,,,,,,,,,,,,,,,,,,,,,,,,,,,,,,,,,,,,,,,,,,,,,,,,,,,,,,,,,,,,,,,,,,,,,,,,,,,,,,,,,,,,
,,,,,,6128cecf0227785e527007c6,62c53a83cfff8ef2daef82de,2022-07-06_09h32.40.461,Colour_Asymmetry_Pilot,2022.1.3,Win32,61.61049843,62c50e9c1127f2cd403a315f,0,140,140,61,1,threefour,,,,,,,,,,,,,,,,,,,,,,,,,,,,,,,,,,,,,,,,,,,,,,,,,,,,,,,,,,,,,,,,,,,,,,,,,,,,,,,,,,,,,,,,,,,,,,,,,,,,,,,,,,,,,,,,,,,,,,,,,,,,,,,,,,,,,,,,,,,,,,,,,,,,,,,,,,,,
,,,,,,6128cecf0227785e527007c6,62c53a83cfff8ef2daef82de,2022-07-06_09h32.40.461,Colour_Asymmetry_Pilot,2022.1.3,Win32,61.61049843,62c50e9c1127f2cd403a315f,0,141,141,65,1,onethree,,,,,,,,,,,,,,,,,,,,,,,,,,,,,,,,,,,,,,,,,,,,,,,,,,,,,,,,,,,,,,,,,,,,,,,,,,,,,,,,,,,,,,,,,,,,,,,,,,,,,,,,,,,,,,,,,,,,,,,,,,,,,,,,,,,,,,,,,,,,,,,,,,,,,,,,,,,,
,,,,,,6128cecf0227785e527007c6,62c53a83cfff8ef2daef82de,2022-07-06_09h32.40.461,Colour_Asymmetry_Pilot,2022.1.3,Win32,61.61049843,62c50e9c1127f2cd403a315f,0,142,142,135,1,fourthree,,,,,,,,,,,,,,,,,,,,,,,,,,,,,,,,,,,,,,,,,,,,,,,,,,,,,,,,,,,,,,,,,,,,,,,,,,,,,,,,,,,,,,,,,,,,,,,,,,,,,,,,,,,,,,,,,,,,,,,,,,,,,,,,,,,,,,,,,,,,,,,,,,,,,,,,,,,,
,,,,,,6128cecf0227785e527007c6,62c53a83cfff8ef2daef82de,2022-07-06_09h32.40.461,Colour_Asymmetry_Pilot,2022.1.3,Win32,61.61049843,62c50e9c1127f2cd403a315f,0,143,143,148,1,threeone,,,,,,,,,,,,,,,,,,,,,,,,,,,,,,,,,,,,,,,,,,,,,,,,,,,,,,,,,,,,,,,,,,,,,,,,,,,,,,,,,,,,,,,,,,,,,,,,,,,,,,,,,,,,,,,,,,,,,,,,,,,,,,,,,,,,,,,,,,,,,,,,,,,,,,,,,,,,
,,,,,,6128cecf0227785e527007c6,62c53a83cfff8ef2daef82de,2022-07-06_09h32.40.461,Colour_Asymmetry_Pilot,2022.1.3,Win32,61.61049843,62c50e9c1127f2cd403a315f,0,144,144,85,1,threefour,,,,,,,,,,,,,,,,,,,,,,,,,,,,,,,,,,,,,,,,,,,,,,,,,,,,,,,,,,,,,,,,,,,,,,,,,,,,,,,,,,,,,,,,,,,,,,,,,,,,,,,,,,,,,,,,,,,,,,,,,,,,,,,,,,,,,,,,,,,,,,,,,,,,,,,,,,,,
,,,,,,6128cecf0227785e527007c6,62c53a83cfff8ef2daef82de,2022-07-06_09h32.40.461,Colour_Asymmetry_Pilot,2022.1.3,Win32,61.61049843,62c50e9c1127f2cd403a315f,0,145,145,38,1,fourtwo,,,,,,,,,,,,,,,,,,,,,,,,,,,,,,,,,,,,,,,,,,,,,,,,,,,,,,,,,,,,,,,,,,,,,,,,,,,,,,,,,,,,,,,,,,,,,,,,,,,,,,,,,,,,,,,,,,,,,,,,,,,,,,,,,,,,,,,,,,,,,,,,,,,,,,,,,,,,
,,,,,,6128cecf0227785e527007c6,62c53a83cfff8ef2daef82de,2022-07-06_09h32.40.461,Colour_Asymmetry_Pilot,2022.1.3,Win32,61.61049843,62c50e9c1127f2cd403a315f,0,146,146,131,1,twofour,,,,,,,,,,,,,,,,,,,,,,,,,,,,,,,,,,,,,,,,,,,,,,,,,,,,,,,,,,,,,,,,,,,,,,,,,,,,,,,,,,,,,,,,,,,,,,,,,,,,,,,,,,,,,,,,,,,,,,,,,,,,,,,,,,,,,,,,,,,,,,,,,,,,,,,,,,,,
,,,,,,6128cecf0227785e527007c6,62c53a83cfff8ef2daef82de,2022-07-06_09h32.40.461,Colour_Asymmetry_Pilot,2022.1.3,Win32,61.61049843,62c50e9c1127f2cd403a315f,0,147,147,136,1,onetwo,,,,,,,,,,,,,,,,,,,,,,,,,,,,,,,,,,,,,,,,,,,,,,,,,,,,,,,,,,,,,,,,,,,,,,,,,,,,,,,,,,,,,,,,,,,,,,,,,,,,,,,,,,,,,,,,,,,,,,,,,,,,,,,,,,,,,,,,,,,,,,,,,,,,,,,,,,,,
,,,,,,6128cecf0227785e527007c6,62c53a83cfff8ef2daef82de,2022-07-06_09h32.40.461,Colour_Asymmetry_Pilot,2022.1.3,Win32,61.61049843,62c50e9c1127f2cd403a315f,0,148,148,134,1,fourtwo,,,,,,,,,,,,,,,,,,,,,,,,,,,,,,,,,,,,,,,,,,,,,,,,,,,,,,,,,,,,,,,,,,,,,,,,,,,,,,,,,,,,,,,,,,,,,,,,,,,,,,,,,,,,,,,,,,,,,,,,,,,,,,,,,,,,,,,,,,,,,,,,,,,,,,,,,,,,
,,,,,,6128cecf0227785e527007c6,62c53a83cfff8ef2daef82de,2022-07-06_09h32.40.461,Colour_Asymmetry_Pilot,2022.1.3,Win32,61.61049843,62c50e9c1127f2cd403a315f,0,149,149,150,1,fourtwo,,,,,,,,,,,,,,,,,,,,,,,,,,,,,,,,,,,,,,,,,,,,,,,,,,,,,,,,,,,,,,,,,,,,,,,,,,,,,,,,,,,,,,,,,,,,,,,,,,,,,,,,,,,,,,,,,,,,,,,,,,,,,,,,,,,,,,,,,,,,,,,,,,,,,,,,,,,,
,,,,,,6128cecf0227785e527007c6,62c53a83cfff8ef2daef82de,2022-07-06_09h32.40.461,Colour_Asymmetry_Pilot,2022.1.3,Win32,61.61049843,62c50e9c1127f2cd403a315f,0,150,150,55,1,fourthree,,,,,,,,,,,,,,,,,,,,,,,,,,,,,,,,,,,,,,,,,,,,,,,,,,,,,,,,,,,,,,,,,,,,,,,,,,,,,,,,,,,,,,,,,,,,,,,,,,,,,,,,,,,,,,,,,,,,,,,,,,,,,,,,,,,,,,,,,,,,,,,,,,,,,,,,,,,,
,,,,,,6128cecf0227785e527007c6,62c53a83cfff8ef2daef82de,2022-07-06_09h32.40.461,Colour_Asymmetry_Pilot,2022.1.3,Win32,61.61049843,62c50e9c1127f2cd403a315f,0,151,151,25,1,onethree,,,,,,,,,,,,,,,,,,,,,,,,,,,,,,,,,,,,,,,,,,,,,,,,,,,,,,,,,,,,,,,,,,,,,,,,,,,,,,,,,,,,,,,,,,,,,,,,,,,,,,,,,,,,,,,,,,,,,,,,,,,,,,,,,,,,,,,,,,,,,,,,,,,,,,,,,,,,
,,,,,,6128cecf0227785e527007c6,62c53a83cfff8ef2daef82de,2022-07-06_09h32.40.461,Colour_Asymmetry_Pilot,2022.1.3,Win32,61.61049843,62c50e9c1127f2cd403a315f,0,152,152,133,1,threefour,,,,,,,,,,,,,,,,,,,,,,,,,,,,,,,,,,,,,,,,,,,,,,,,,,,,,,,,,,,,,,,,,,,,,,,,,,,,,,,,,,,,,,,,,,,,,,,,,,,,,,,,,,,,,,,,,,,,,,,,,,,,,,,,,,,,,,,,,,,,,,,,,,,,,,,,,,,,
,,,,,,6128cecf0227785e527007c6,62c53a83cfff8ef2daef82de,2022-07-06_09h32.40.461,Colour_Asymmetry_Pilot,2022.1.3,Win32,61.61049843,62c50e9c1127f2cd403a315f,0,153,153,146,1,twoone,,,,,,,,,,,,,,,,,,,,,,,,,,,,,,,,,,,,,,,,,,,,,,,,,,,,,,,,,,,,,,,,,,,,,,,,,,,,,,,,,,,,,,,,,,,,,,,,,,,,,,,,,,,,,,,,,,,,,,,,,,,,,,,,,,,,,,,,,,,,,,,,,,,,,,,,,,,,
,,,,,,6128cecf0227785e527007c6,62c53a83cfff8ef2daef82de,2022-07-06_09h32.40.461,Colour_Asymmetry_Pilot,2022.1.3,Win32,61.61049843,62c50e9c1127f2cd403a315f,0,154,154,154,1,twoone,,,,,,,,,,,,,,,,,,,,,,,,,,,,,,,,,,,,,,,,,,,,,,,,,,,,,,,,,,,,,,,,,,,,,,,,,,,,,,,,,,,,,,,,,,,,,,,,,,,,,,,,,,,,,,,,,,,,,,,,,,,,,,,,,,,,,,,,,,,,,,,,,,,,,,,,,,,,
,,,,,,6128cecf0227785e527007c6,62c53a83cfff8ef2daef82de,2022-07-06_09h32.40.461,Colour_Asymmetry_Pilot,2022.1.3,Win32,61.61049843,62c50e9c1127f2cd403a315f,0,155,155,118,1,fourtwo,,,,,,,,,,,,,,,,,,,,,,,,,,,,,,,,,,,,,,,,,,,,,,,,,,,,,,,,,,,,,,,,,,,,,,,,,,,,,,,,,,,,,,,,,,,,,,,,,,,,,,,,,,,,,,,,,,,,,,,,,,,,,,,,,,,,,,,,,,,,,,,,,,,,,,,,,,,,
,,,,,,6128cecf0227785e527007c6,62c53a83cfff8ef2daef82de,2022-07-06_09h32.40.461,Colour_Asymmetry_Pilot,2022.1.3,Win32,61.61049843,62c50e9c1127f2cd403a315f,0,156,156,155,1,twofour,,,,,,,,,,,,,,,,,,,,,,,,,,,,,,,,,,,,,,,,,,,,,,,,,,,,,,,,,,,,,,,,,,,,,,,,,,,,,,,,,,,,,,,,,,,,,,,,,,,,,,,,,,,,,,,,,,,,,,,,,,,,,,,,,,,,,,,,,,,,,,,,,,,,,,,,,,,,
,,,,,,6128cecf0227785e527007c6,62c53a83cfff8ef2daef82de,2022-07-06_09h32.40.461,Colour_Asymmetry_Pilot,2022.1.3,Win32,61.61049843,62c50e9c1127f2cd403a315f,0,157,157,144,1,onetwo,,,,,,,,,,,,,,,,,,,,,,,,,,,,,,,,,,,,,,,,,,,,,,,,,,,,,,,,,,,,,,,,,,,,,,,,,,,,,,,,,,,,,,,,,,,,,,,,,,,,,,,,,,,,,,,,,,,,,,,,,,,,,,,,,,,,,,,,,,,,,,,,,,,,,,,,,,,,
,,,,,,6128cecf0227785e527007c6,62c53a83cfff8ef2daef82de,2022-07-06_09h32.40.461,Colour_Asymmetry_Pilot,2022.1.3,Win32,61.61049843,62c50e9c1127f2cd403a315f,0,158,158,41,1,onethree,,,,,,,,,,,,,,,,,,,,,,,,,,,,,,,,,,,,,,,,,,,,,,,,,,,,,,,,,,,,,,,,,,,,,,,,,,,,,,,,,,,,,,,,,,,,,,,,,,,,,,,,,,,,,,,,,,,,,,,,,,,,,,,,,,,,,,,,,,,,,,,,,,,,,,,,,,,,
,,,,,,6128cecf0227785e527007c6,62c53a83cfff8ef2daef82de,2022-07-06_09h32.40.461,Colour_Asymmetry_Pilot,2022.1.3,Win32,61.61049843,62c50e9c1127f2cd403a315f,0,159,159,16,1,onetwo,,,,,,,,,,,,,,,,,,,,,,,,,,,,,,,,,,,,,,,,,,,,,,,,,,,,,,,,,,,,,,,,,,,,,,,,,,,,,,,,,,,,,,,,,,,,,,,,,,,,,,,,,,,,,,,,,,,,,,,,,,,,,,,,,,,,,,,,,,,,,,,,,,,,,,,,,,,,
,,,,,,6128cecf0227785e527007c6,62c53a83cfff8ef2daef82de,2022-07-06_09h32.40.461,Colour_Asymmetry_Pilot,2022.1.3,Win32,61.61049843,62c50e9c1127f2cd403a315f,0,160,160,56,1,onetwo,,,,,,,,,,,,,,,,,,,,,,,,,,,,,,,,,,,,,,,,,,,,,,,,,,,,,,,,,,,,,,,,,,,,,,,,,,,,,,,,,,,,,,,,,,,,,,,,,,,,,,,,,,,,,,,,,,,,,,,,,,,,,,,,,,,,,,,,,,,,,,,,,,,,,,,,,,,,
,,,,,,6128cecf0227785e527007c6,62c53a83cfff8ef2daef82de,2022-07-06_09h32.40.461,Colour_Asymmetry_Pilot,2022.1.3,Win32,61.61049843,62c50e9c1127f2cd403a315f,0,161,161,48,1,onetwo,,,,,,,,,,,,,,,,,,,,,,,,,,,,,,,,,,,,,,,,,,,,,,,,,,,,,,,,,,,,,,,,,,,,,,,,,,,,,,,,,,,,,,,,,,,,,,,,,,,,,,,,,,,,,,,,,,,,,,,,,,,,,,,,,,,,,,,,,,,,,,,,,,,,,,,,,,,,
,,,,,,6128cecf0227785e527007c6,62c53a83cfff8ef2daef82de,2022-07-06_09h32.40.461,Colour_Asymmetry_Pilot,2022.1.3,Win32,61.61049843,62c50e9c1127f2cd403a315f,,,,,,,space,32.0333,space,29.5989,space,27.065,space,13.0582,space,1.3544,space,4.2477,"[0.12939999999999996,-0.2864,0.3253999999999999]",twoone,"[0.18419999999999992,-0.4276,-0.404]",-4,2.1153,-63,87,1,0,0,response7disk_5,11,-2,1,0,0,rectangle_8,11,-2,1,0,0,2,11,-2,1,0,0,0,0,0,0,1,,,,,,,,,,,,,,,,,,,,,,,,,,,,,,,,,,,,,,,,,,,,,,,,,,,,,,,,,,,,,,,,,,,,,,,,,,,,,,,,,,,,,,,,,,,,,,,,,,,,,,,,,,,,,,,
,,,,,,6128cecf0227785e527007c6,62c53a83cfff8ef2daef82de,2022-07-06_09h32.40.461,Colour_Asymmetry_Pilot,2022.1.3,Win32,61.61049843,62c50e9c1127f2cd403a315f,,,,,,,,,,,,,,,,,,,"[-0.20799999999999996,-0.655,-0.01980000000000004]",onetwo,"[-0.10599999999999998,-0.15300000000000002,0.15280000000000005]",4,2.2835,32,86,1,0,0,response1disk_5,-7,0,1,0,0,rectangle_8,-7,0,1,0,0,2,-7,0,1,0,0,1,0,1,0,1,,,,,,,,,,,,,,,,,,,,,,,,,,,,,,,,,,,,,,,,,,,,,,,,,,,,,,,,,,,,,,,,,,,,,,,,,,,,,,,,,,,,,,,,,,,,,,,,,,,,,,,,,,,,,,,
,,,,,,6128cecf0227785e527007c6,62c53a83cfff8ef2daef82de,2022-07-06_09h32.40.461,Colour_Asymmetry_Pilot,2022.1.3,Win32,61.61049843,62c50e9c1127f2cd403a315f,,,,,,,,,,,,,,,,,,,"[-0.24719999999999998,0.5213999999999999,-0.12959999999999994]",fourtwo,"[0.9763999999999999,0.8588,-0.05900000000000005]",1,4.7671,40,-80,1,0,0,response3disk_5,-1,3,1,0,0,rectangle_8,-1,3,1,0,0,2,-1,3,1,0,0,2,0,2,0,1,,,,,,,,,,,,,,,,,,,,,,,,,,,,,,,,,,,,,,,,,,,,,,,,,,,,,,,,,,,,,,,,,,,,,,,,,,,,,,,,,,,,,,,,,,,,,,,,,,,,,,,,,,,,,,,
,,,,,,6128cecf0227785e527007c6,62c53a83cfff8ef2daef82de,2022-07-06_09h32.40.461,Colour_Asymmetry_Pilot,2022.1.3,Win32,61.61049843,62c50e9c1127f2cd403a315f,,,,,,,,,,,,,,,,,,,"[-0.2942,-0.24719999999999998,-0.357]",twoone,"[0.6625999999999999,0.4980000000000002,-0.357]",-3,8.4165,-85,36,1,0,0,response7disk_5,0,0,1,0,0,rectangle_8,0,0,1,0,0,2,0,0,1,0,0,3,0,3,0,1,,,,,,,,,,,,,,,,,,,,,,,,,,,,,,,,,,,,,,,,,,,,,,,,,,,,,,,,,,,,,,,,,,,,,,,,,,,,,,,,,,,,,,,,,,,,,,,,,,,,,,,,,,,,,,,
,,,,,,6128cecf0227785e527007c6,62c53a83cfff8ef2daef82de,2022-07-06_09h32.40.461,Colour_Asymmetry_Pilot,2022.1.3,Win32,61.61049843,62c50e9c1127f2cd403a315f,,,,,,,,,,,,,,,,,,,"[-0.38039999999999996,-0.4276,-0.1452]",threefour,"[-0.4746,-0.0354000000000001,0.5449999999999999]",2,1.9663,92,-68,1,0,0,response3disk_5,-1,1,1,0,0,rectangle_8,85,-46,1,0,0,2,-2,-2,1,0,0,4,0,4,0,1,response3disk_7,5,rectangle_4,,,,,,,,,,,,,,,,,,,,,,,,,,,,,,,,,,,,,,,,,,,,,,,,,,,,,,,,,,,,,,,,,,,,,,,,,,,,,,,,,,,,,,,,,,,,,,,,,,,,,,,,,,,,
,,,,,,6128cecf0227785e527007c6,62c53a83cfff8ef2daef82de,2022-07-06_09h32.40.461,Colour_Asymmetry_Pilot,2022.1.3,Win32,61.61049843,62c50e9c1127f2cd403a315f,,,,,,,,,,,,,,,,,,,"[0.09799999999999986,-0.24719999999999998,0.15280000000000005]",threefour,"[-0.2942,-0.24719999999999998,-0.357]",-2,2.4783,-80,-42,1,0,0,response5disk_5,0,0,1,0,0,rectangle_8,0,0,1,0,0,2,0,0,1,0,0,5,0,5,0,1,,,,,,,,,,,,,,,,,,,,,,,,,,,,,,,,,,,,,,,,,,,,,,,,,,,,,,,,,,,,,,,,,,,,,,,,,,,,,,,,,,,,,,,,,,,,,,,,,,,,,,,,,,,,,,,
,,,,,,6128cecf0227785e527007c6,62c53a83cfff8ef2daef82de,2022-07-06_09h32.40.461,Colour_Asymmetry_Pilot,2022.1.3,Win32,61.61049843,62c50e9c1127f2cd403a315f,,,,,,,,,,,,,,,,,,,"[-0.06680000000000008,-0.45100000000000007,-0.906]",onetwo,"[-0.6942,-0.7648,-0.12959999999999994]",-2,3.3207,-83,-45,1,0,0,response5disk_5,-2,-1,1,0,0,rectangle_8,-2,-1,1,0,0,2,-2,-1,1,0,0,6,0,6,0,1,,,,,,,,,,,,,,,,,,,,,,,,,,,,,,,,,,,,,,,,,,,,,,,,,,,,,,,,,,,,,,,,,,,,,,,,,,,,,,,,,,,,,,,,,,,,,,,,,,,,,,,,,,,,,,,
,,,,,,6128cecf0227785e527007c6,62c53a83cfff8ef2daef82de,2022-07-06_09h32.40.461,Colour_Asymmetry_Pilot,2022.1.3,Win32,61.61049843,62c50e9c1127f2cd403a315f,,,,,,,,,,,,,,,,,,,,threeone,,-4,2.3165,,,,,,,,,,,,,,,,,,,,,,,,,,,,,,,,space,38.0912,"[0.09799999999999986,-0.24719999999999998,0.15280000000000005]","[0.9686000000000001,0.3802000000000001,0.19999999999999996]",-31,82,1,0,0,response7disk,4,3,1,0,0,rectangle,4,3,1,0,0,,3,0.0016,0,4,3,1,0,0,0,0,0,113,1,32,second,,,,,,,,,,,,,,,,,,,,,,,,,,,,,,,,,,,,,,,,,,,,,,,,,,,,,,,,,,,,,,,,,,,,,,,
,,,,,,6128cecf0227785e527007c6,62c53a83cfff8ef2daef82de,2022-07-06_09h32.40.461,Colour_Asymmetry_Pilot,2022.1.3,Win32,61.61049843,62c50e9c1127f2cd403a315f,,,,,,,,,,,,,,,,,,,,fourthree,,4,1.5835,,,,,,,,,,,,,,,,,,,,,,,,,,,,,,,,,,"[-0.20799999999999996,-0.655,-0.01980000000000004]","[-0.6235999999999999,-0.6786,-0.08239999999999992]",47,98,1,0,0,response1disk,1,1,1,0,0,rectangle,1,1,1,0,0,,1,0.002,0,1,1,1,0,0,0,1,1,126,1,45,second,,,,,,,,,,,,,,,,,,,,,,,,,,,,,,,,,,,,,,,,,,,,,,,,,,,,,,,,,,,,,,,,,,,,,,,
,,,,,,6128cecf0227785e527007c6,62c53a83cfff8ef2daef82de,2022-07-06_09h32.40.461,Colour_Asymmetry_Pilot,2022.1.3,Win32,61.61049843,62c50e9c1127f2cd403a315f,,,,,,,,,,,,,,,,,,,,threefour,,1,3.4499,,,,,,,,,,,,,,,,,,,,,,,,,,,,,,,,,,"[-0.9296,-0.12959999999999994,-0.043199999999999905]","[0.0351999999999999,0.41159999999999997,0.0038000000000000256]",38,-66,1,0,0,response3disk,-2,2,1,0,0,rectangle,-2,2,1,0,0,,3,0.0018,0,-2,2,1,0,0,0,2,2,144,1,63,second,,,,,,,,,,,,,,,,,,,,,,,,,,,,,,,,,,,,,,,,,,,,,,,,,,,,,,,,,,,,,,,,,,,,,,,
,,,,,,6128cecf0227785e527007c6,62c53a83cfff8ef2daef82de,2022-07-06_09h32.40.461,Colour_Asymmetry_Pilot,2022.1.3,Win32,61.61049843,62c50e9c1127f2cd403a315f,,,,,,,,,,,,,,,,,,,,twofour,,-4,2.1169,,,,,,,,,,,,,,,,,,,,,,,,,,,,,,,,,,"[0.22340000000000004,-0.9296,-0.7884]","[-0.4902000000000001,0.2704,-0.45899999999999996]",-34,87,1,0,0,response7disk,-3,0,1,0,0,rectangle,-3,0,1,0,0,,1,0.0016,0,-3,0,1,0,0,0,3,3,44,1,44,first,,,,,,,,,,,,,,,,,,,,,,,,,,,,,,,,,,,,,,,,,,,,,,,,,,,,,,,,,,,,,,,,,,,,,,,
,,,,,,6128cecf0227785e527007c6,62c53a83cfff8ef2daef82de,2022-07-06_09h32.40.461,Colour_Asymmetry_Pilot,2022.1.3,Win32,61.61049843,62c50e9c1127f2cd403a315f,,,,,,,,,,,,,,,,,,,,fourtwo,,-3,2.9328,,,,,,,,,,,,,,,,,,,,,,,,,,,,,,,,,,"[-0.5688,-0.08239999999999992,-0.1844]","[0.19199999999999995,0.18419999999999992,0.5136000000000001]",-80,47,1,0,0,response7disk,3,-7,1,0,0,rectangle,3,-7,1,0,0,,2,0.0012,0,3,-7,1,0,0,0,4,4,22,1,22,first,,,,,,,,,,,,,,,,,,,,,,,,,,,,,,,,,,,,,,,,,,,,,,,,,,,,,,,,,,,,,,,,,,,,,,,
,,,,,,6128cecf0227785e527007c6,62c53a83cfff8ef2daef82de,2022-07-06_09h32.40.461,Colour_Asymmetry_Pilot,2022.1.3,Win32,61.61049843,62c50e9c1127f2cd403a315f,,,,,,,,,,,,,,,,,,,,twoone,,-4,2.8166,,,,,,,,,,,,,,,,,,,,,,,,,,,,,,,,,,"[0.22340000000000004,-0.9296,-0.7884]","[-0.09019999999999995,0.44300000000000006,0.5371999999999999]",-34,93,1,0,0,response7disk,3,4,1,0,0,rectangle,3,4,1,0,0,,2,0.0006,0,3,4,1,0,0,0,5,5,92,1,11,second,,,,,,,,,,,,,,,,,,,,,,,,,,,,,,,,,,,,,,,,,,,,,,,,,,,,,,,,,,,,,,,,,,,,,,,
,,,,,,6128cecf0227785e527007c6,62c53a83cfff8ef2daef82de,2022-07-06_09h32.40.461,Colour_Asymmetry_Pilot,2022.1.3,Win32,61.61049843,62c50e9c1127f2cd403a315f,,,,,,,,,,,,,,,,,,,,onetwo,,-3,1.0501,,,,,,,,,,,,,,,,,,,,,,,,,,,,,,,,,,"[-0.24719999999999998,-0.0354000000000001,0.3175999999999999]","[0.9372,0.20779999999999998,0.2704]",-71,28,1,0,0,response7disk,-1,-1,1,0,0,rectangle,-1,-1,1,0,0,,3,0.0023,0,-1,-1,1,0,0,0,6,6,9,1,9,first,,,,,,,,,,,,,,,,,,,,,,,,,,,,,,,,,,,,,,,,,,,,,,,,,,,,,,,,,,,,,,,,,,,,,,,
,,,,,,6128cecf0227785e527007c6,62c53a83cfff8ef2daef82de,2022-07-06_09h32.40.461,Colour_Asymmetry_Pilot,2022.1.3,Win32,61.61049843,62c50e9c1127f2cd403a315f,,,,,,,,,,,,,,,,,,,,twoone,,2,1.1668,,,,,,,,,,,,,,,,,,,,,,,,,,,,,,,,,,"[-0.10599999999999998,-0.10599999999999998,0.5841999999999998]","[-0.30200000000000005,0.14500000000000002,0.2784]",94,-52,1,0,0,response3disk,-2,1,1,0,0,rectangle,-2,1,1,0,0,,3,0.0005,0,-2,1,1,0,0,0,7,7,54,1,54,first,,,,,,,,,,,,,,,,,,,,,,,,,,,,,,,,,,,,,,,,,,,,,,,,,,,,,,,,,,,,,,,,,,,,,,,
,,,,,,6128cecf0227785e527007c6,62c53a83cfff8ef2daef82de,2022-07-06_09h32.40.461,Colour_Asymmetry_Pilot,2022.1.3,Win32,61.61049843,62c50e9c1127f2cd403a315f,,,,,,,,,,,,,,,,,,,,threeone,,-4,1.3,,,,,,,,,,,,,,,,,,,,,,,,,,,,,,,,,,"[-0.34920000000000007,-0.702,-0.5216]","[0.9686000000000001,0.3802000000000001,0.19999999999999996]",-41,89,1,0,0,response7disk,2,-2,1,0,0,rectangle,2,-2,1,0,0,,1,0.0019,0,2,-2,1,0,0,0,8,8,28,1,28,first,,,,,,,,,,,,,,,,,,,,,,,,,,,,,,,,,,,,,,,,,,,,,,,,,,,,,,,,,,,,,,,,,,,,,,,
,,,,,,6128cecf0227785e527007c6,62c53a83cfff8ef2daef82de,2022-07-06_09h32.40.461,Colour_Asymmetry_Pilot,2022.1.3,Win32,61.61049843,62c50e9c1127f2cd403a315f,,,,,,,,,,,,,,,,,,,,twoone,,3,0.7334,,,,,,,,,,,,,,,,,,,,,,,,,,,,,,,,,,"[-0.4982,-0.2942,-0.0354000000000001]","[-0.5452,-0.608,0.2470000000000001]",93,41,1,0,0,response1disk,8,-2,1,0,0,rectangle,8,-2,1,0,0,,3,0.0019,0,8,-2,1,0,0,0,9,9,137,1,56,second,,,,,,,,,,,,,,,,,,,,,,,,,,,,,,,,,,,,,,,,,,,,,,,,,,,,,,,,,,,,,,,,,,,,,,,
,,,,,,6128cecf0227785e527007c6,62c53a83cfff8ef2daef82de,2022-07-06_09h32.40.461,Colour_Asymmetry_Pilot,2022.1.3,Win32,61.61049843,62c50e9c1127f2cd403a315f,,,,,,,,,,,,,,,,,,,,twoone,,2,1.1005,,,,,,,,,,,,,,,,,,,,,,,,,,,,,,,,,,"[-0.9138,-0.5296000000000001,-0.5529999999999999]","[-0.45899999999999996,-0.3256,-0.9374]",68,-52,1,0,0,response3disk,-4,2,1,0,0,rectangle,-4,2,1,0,0,,2,0.0019,0,-4,2,1,0,0,0,10,10,8,1,8,first,,,,,,,,,,,,,,,,,,,,,,,,,,,,,,,,,,,,,,,,,,,,,,,,,,,,,,,,,,,,,,,,,,,,,,,
,,,,,,6128cecf0227785e527007c6,62c53a83cfff8ef2daef82de,2022-07-06_09h32.40.461,Colour_Asymmetry_Pilot,2022.1.3,Win32,61.61049843,62c50e9c1127f2cd403a315f,,,,,,,,,,,,,,,,,,,,twofour,,3,0.5823,,,,,,,,,,,,,,,,,,,,,,,,,,,,,,,,,,"[-0.6235999999999999,-0.6786,-0.08239999999999992]","[-0.20799999999999996,-0.655,-0.01980000000000004]",79,53,1,0,0,response1disk,-4,-1,1,0,0,rectangle,-4,-1,1,0,0,,1,0.0015,0,-4,-1,1,0,0,0,11,11,45,1,45,first,,,,,,,,,,,,,,,,,,,,,,,,,,,,,,,,,,,,,,,,,,,,,,,,,,,,,,,,,,,,,,,,,,,,,,,
,,,,,,6128cecf0227785e527007c6,62c53a83cfff8ef2daef82de,2022-07-06_09h32.40.461,Colour_Asymmetry_Pilot,2022.1.3,Win32,61.61049843,62c50e9c1127f2cd403a315f,,,,,,,,,,,,,,,,,,,,threeone,,-4,0.6664,,,,,,,,,,,,,,,,,,,,,,,,,,,,,,,,,,"[-0.6235999999999999,-0.6786,-0.08239999999999992]","[0.34099999999999997,0.5841999999999998,-0.9844]",-32,100,1,0,0,response7disk,-3,-4,1,0,0,rectangle,-3,-4,1,0,0,,2,0.0021,0,-3,-4,1,0,0,0,12,12,27,1,27,first,,,,,,,,,,,,,,,,,,,,,,,,,,,,,,,,,,,,,,,,,,,,,,,,,,,,,,,,,,,,,,,,,,,,,,,
,,,,,,6128cecf0227785e527007c6,62c53a83cfff8ef2daef82de,2022-07-06_09h32.40.461,Colour_Asymmetry_Pilot,2022.1.3,Win32,61.61049843,62c50e9c1127f2cd403a315f,,,,,,,,,,,,,,,,,,,,onethree,,-4,0.8334,,,,,,,,,,,,,,,,,,,,,,,,,,,,,,,,,,"[-0.9766,-0.34920000000000007,0.2156]","[0.9763999999999999,-0.1137999999999999,-0.6314]",-43,100,1,0,0,response7disk,6,-1,1,0,0,rectangle,6,-1,1,0,0,,3,0.0024,0,6,-1,1,0,0,0,13,13,59,1,59,first,,,,,,,,,,,,,,,,,,,,,,,,,,,,,,,,,,,,,,,,,,,,,,,,,,,,,,,,,,,,,,,,,,,,,,,
,,,,,,6128cecf0227785e527007c6,62c53a83cfff8ef2daef82de,2022-07-06_09h32.40.461,Colour_Asymmetry_Pilot,2022.1.3,Win32,61.61049843,62c50e9c1127f2cd403a315f,,,,,,,,,,,,,,,,,,,,twofour,,-4,0.7335,,,,,,,,,,,,,,,,,,,,,,,,,,,,,,,,,,"[-0.06680000000000008,-0.45100000000000007,-0.906]","[-0.0040000000000000036,0.02739999999999987,-0.08239999999999992]",-51,76,1,0,0,response7disk,-6,1,1,0,0,rectangle,-6,1,1,0,0,,1,0.0025,0,-6,1,1,0,0,0,14,14,65,1,65,first,,,,,,,,,,,,,,,,,,,,,,,,,,,,,,,,,,,,,,,,,,,,,,,,,,,,,,,,,,,,,,,,,,,,,,,
,,,,,,6128cecf0227785e527007c6,62c53a83cfff8ef2daef82de,2022-07-06_09h32.40.461,Colour_Asymmetry_Pilot,2022.1.3,Win32,61.61049843,62c50e9c1127f2cd403a315f,,,,,,,,,,,,,,,,,,,,threeone,,-4,1.0165,,,,,,,,,,,,,,,,,,,,,,,,,,,,,,,,,,"[1,0.12939999999999996,-1]","[-0.0040000000000000036,0.02739999999999987,-0.08239999999999992]",-36,87,1,0,0,response7disk,3,-6,1,0,0,rectangle,3,-6,1,0,0,,1,0.0001,0,3,-6,1,0,0,0,15,15,153,1,72,second,,,,,,,,,,,,,,,,,,,,,,,,,,,,,,,,,,,,,,,,,,,,,,,,,,,,,,,,,,,,,,,,,,,,,,,
,,,,,,6128cecf0227785e527007c6,62c53a83cfff8ef2daef82de,2022-07-06_09h32.40.461,Colour_Asymmetry_Pilot,2022.1.3,Win32,61.61049843,62c50e9c1127f2cd403a315f,,,,,,,,,,,,,,,,,,,,onethree,,-1,2.2329,,,,,,,,,,,,,,,,,,,,,,,,,,,,,,,,,,"[-0.7412000000000001,-0.08239999999999992,-0.6864]","[0.5528,0.7409999999999999,-0.71]",-40,-92,1,0,0,response5disk,3,2,1,0,0,rectangle,3,2,1,0,0,,3,0.0017,0,3,2,1,0,0,0,16,16,43,1,43,first,,,,,,,,,,,,,,,,,,,,,,,,,,,,,,,,,,,,,,,,,,,,,,,,,,,,,,,,,,,,,,,,,,,,,,,
,,,,,,6128cecf0227785e527007c6,62c53a83cfff8ef2daef82de,2022-07-06_09h32.40.461,Colour_Asymmetry_Pilot,2022.1.3,Win32,61.61049843,62c50e9c1127f2cd403a315f,,,,,,,,,,,,,,,,,,,,threefour,,1,2.65,,,,,,,,,,,,,,,,,,,,,,,,,,,,,,,,,,"[-0.9296,-0.12959999999999994,-0.043199999999999905]","[-0.9688,-0.38039999999999996,-0.41979999999999995]",41,-89,1,0,0,response3disk,2,5,1,0,0,rectangle,2,5,1,0,0,,2,0.0019,0,2,5,1,0,0,0,17,17,106,1,25,second,,,,,,,,,,,,,,,,,,,,,,,,,,,,,,,,,,,,,,,,,,,,,,,,,,,,,,,,,,,,,,,,,,,,,,,
