trials.thisRepN,trials.thisTrialN,trials.thisN,trials.thisIndex,trials.ran,Colourcodes,participant,session,date,expName,psychopyVersion,OS,frameRate,study_id,trials_4.thisRepN,trials_4.thisTrialN,trials_4.thisN,trials_4.thisIndex,trials_4.ran,StimulusPos,key_resp.keys,key_resp.rt,key_resp_2.keys,key_resp_2.rt,key_resp_15.keys,key_resp_15.rt,key_resp_17.keys,key_resp_17.rt,key_resp_9.keys,key_resp_9.rt,key_resp_10.keys,key_resp_10.rt,Circle1_col,Ecc,Circle2_col,similarity,response_time,mouse_5.x,mouse_5.y,mouse_5.leftButton,mouse_5.midButton,mouse_5.rightButton,mouse_5.clicked_name,mouse_10.x,mouse_10.y,mouse_10.leftButton,mouse_10.midButton,mouse_10.rightButton,mouse_10.clicked_name,mouse_7.x,mouse_7.y,mouse_7.leftButton,mouse_7.midButton,mouse_7.rightButton,catchnumberprac,mouse_6.x,mouse_6.y,mouse_6.leftButton,mouse_6.midButton,mouse_6.rightButton,duringprac.thisRepN,duringprac.thisTrialN,duringprac.thisN,duringprac.thisIndex,duringprac.ran,mouse_7.clicked_name,catchprac,mouse_6.clicked_name,key_resp_22.keys,key_resp_22.rt,Circle1_colour,Circle2_colour,mouse.x,mouse.y,mouse.leftButton,mouse.midButton,mouse.rightButton,mouse.clicked_name,mouse_2.x,mouse_2.y,mouse_2.leftButton,mouse_2.midButton,mouse_2.rightButton,mouse_2.clicked_name,mouse_3.x,mouse_3.y,mouse_3.leftButton,mouse_3.midButton,mouse_3.rightButton,catchresponse,catchnumber,response_time_catch,Catch,mouse_11.x,mouse_11.y,mouse_11.leftButton,mouse_11.midButton,mouse_11.rightButton,trials_2.thisRepN,trials_2.thisTrialN,trials_2.thisN,trials_2.thisIndex,trials_2.ran,Colourpair,Temporder,mouse_3.clicked_name,mouse_11.clicked_name,trials_3.thisRepN,trials_3.thisTrialN,trials_3.thisN,trials_3.thisIndex,trials_3.ran,key_resp_instr_Ishi.keys,key_resp_instr_Ishi.rt,Ishi_trial_keyresp.keys,Ishi_textbox.text,Ishi_mouse.x,Ishi_mouse.y,Ishi_mouse.leftButton,Ishi_mouse.midButton,Ishi_mouse.rightButton,Ishi_mouse.clicked_name,Ishi_loop.thisRepN,Ishi_loop.thisTrialN,Ishi_loop.thisN,Ishi_loop.thisIndex,Ishi_loop.ran,imageaddress,textbox.text,mouse_4.x,mouse_4.y,mouse_4.leftButton,mouse_4.midButton,mouse_4.rightButton,mouse_4.clicked_name,textbox_2.text,mouse_8.x,mouse_8.y,mouse_8.leftButton,mouse_8.midButton,mouse_8.rightButton,mouse_8.clicked_name,textbox_3.text,mouse_9.x,mouse_9.y,mouse_9.leftButton,mouse_9.midButton,mouse_9.rightButton,mouse_9.clicked_name,textbox_4.text,mouse_12.x,mouse_12.y,mouse_12.leftButton,mouse_12.midButton,mouse_12.rightButton,mouse_12.clicked_name,textbox_5.text,mouse_13.x,mouse_13.y,mouse_13.leftButton,mouse_13.midButton,mouse_13.rightButton,mouse_13.clicked_name,textbox_6.text,mouse_14.x,mouse_14.y,mouse_14.leftButton,mouse_14.midButton,mouse_14.rightButton,mouse_14.clicked_name,textbox_7.text,mouse_15.x,mouse_15.y,mouse_15.leftButton,mouse_15.midButton,mouse_15.rightButton,mouse_15.clicked_name
0,0,0,75,1,,615046c5dc8d53b5ddf25d56,62c53a525cbfb4ed3c74f596,2022-07-06_09h32.32.486,Colour_Asymmetry_Pilot,2022.1.3,Win32,59.83366242,62c50e9c1127f2cd403a315f,,,,,,,,,,,,,,,,,,,,,,,,,,,,,,,,,,,,,,,,,,,,,,,,,,,,,,,,,,,,,,,,,,,,,,,,,,,,,,,,,,,,,,,,,,,,,,,,,,,,,,,,,,,,,,,,,,,,,,,,,,,,,,,,,,,,,,,,,,,,,,,,,,,,,,,,,,,,,,,,,,,
0,1,1,29,1,,615046c5dc8d53b5ddf25d56,62c53a525cbfb4ed3c74f596,2022-07-06_09h32.32.486,Colour_Asymmetry_Pilot,2022.1.3,Win32,59.83366242,62c50e9c1127f2cd403a315f,,,,,,,,,,,,,,,,,,,,,,,,,,,,,,,,,,,,,,,,,,,,,,,,,,,,,,,,,,,,,,,,,,,,,,,,,,,,,,,,,,,,,,,,,,,,,,,,,,,,,,,,,,,,,,,,,,,,,,,,,,,,,,,,,,,,,,,,,,,,,,,,,,,,,,,,,,,,,,,,,,,
0,2,2,86,1,,615046c5dc8d53b5ddf25d56,62c53a525cbfb4ed3c74f596,2022-07-06_09h32.32.486,Colour_Asymmetry_Pilot,2022.1.3,Win32,59.83366242,62c50e9c1127f2cd403a315f,,,,,,,,,,,,,,,,,,,,,,,,,,,,,,,,,,,,,,,,,,,,,,,,,,,,,,,,,,,,,,,,,,,,,,,,,,,,,,,,,,,,,,,,,,,,,,,,,,,,,,,,,,,,,,,,,,,,,,,,,,,,,,,,,,,,,,,,,,,,,,,,,,,,,,,,,,,,,,,,,,,
0,3,3,83,1,,615046c5dc8d53b5ddf25d56,62c53a525cbfb4ed3c74f596,2022-07-06_09h32.32.486,Colour_Asymmetry_Pilot,2022.1.3,Win32,59.83366242,62c50e9c1127f2cd403a315f,,,,,,,,,,,,,,,,,,,,,,,,,,,,,,,,,,,,,,,,,,,,,,,,,,,,,,,,,,,,,,,,,,,,,,,,,,,,,,,,,,,,,,,,,,,,,,,,,,,,,,,,,,,,,,,,,,,,,,,,,,,,,,,,,,,,,,,,,,,,,,,,,,,,,,,,,,,,,,,,,,,
0,4,4,1,1,,615046c5dc8d53b5ddf25d56,62c53a525cbfb4ed3c74f596,2022-07-06_09h32.32.486,Colour_Asymmetry_Pilot,2022.1.3,Win32,59.83366242,62c50e9c1127f2cd403a315f,,,,,,,,,,,,,,,,,,,,,,,,,,,,,,,,,,,,,,,,,,,,,,,,,,,,,,,,,,,,,,,,,,,,,,,,,,,,,,,,,,,,,,,,,,,,,,,,,,,,,,,,,,,,,,,,,,,,,,,,,,,,,,,,,,,,,,,,,,,,,,,,,,,,,,,,,,,,,,,,,,,
0,5,5,87,1,,615046c5dc8d53b5ddf25d56,62c53a525cbfb4ed3c74f596,2022-07-06_09h32.32.486,Colour_Asymmetry_Pilot,2022.1.3,Win32,59.83366242,62c50e9c1127f2cd403a315f,,,,,,,,,,,,,,,,,,,,,,,,,,,,,,,,,,,,,,,,,,,,,,,,,,,,,,,,,,,,,,,,,,,,,,,,,,,,,,,,,,,,,,,,,,,,,,,,,,,,,,,,,,,,,,,,,,,,,,,,,,,,,,,,,,,,,,,,,,,,,,,,,,,,,,,,,,,,,,,,,,,
0,6,6,7,1,,615046c5dc8d53b5ddf25d56,62c53a525cbfb4ed3c74f596,2022-07-06_09h32.32.486,Colour_Asymmetry_Pilot,2022.1.3,Win32,59.83366242,62c50e9c1127f2cd403a315f,,,,,,,,,,,,,,,,,,,,,,,,,,,,,,,,,,,,,,,,,,,,,,,,,,,,,,,,,,,,,,,,,,,,,,,,,,,,,,,,,,,,,,,,,,,,,,,,,,,,,,,,,,,,,,,,,,,,,,,,,,,,,,,,,,,,,,,,,,,,,,,,,,,,,,,,,,,,,,,,,,,
0,7,7,9,1,,615046c5dc8d53b5ddf25d56,62c53a525cbfb4ed3c74f596,2022-07-06_09h32.32.486,Colour_Asymmetry_Pilot,2022.1.3,Win32,59.83366242,62c50e9c1127f2cd403a315f,,,,,,,,,,,,,,,,,,,,,,,,,,,,,,,,,,,,,,,,,,,,,,,,,,,,,,,,,,,,,,,,,,,,,,,,,,,,,,,,,,,,,,,,,,,,,,,,,,,,,,,,,,,,,,,,,,,,,,,,,,,,,,,,,,,,,,,,,,,,,,,,,,,,,,,,,,,,,,,,,,,
0,8,8,57,1,,615046c5dc8d53b5ddf25d56,62c53a525cbfb4ed3c74f596,2022-07-06_09h32.32.486,Colour_Asymmetry_Pilot,2022.1.3,Win32,59.83366242,62c50e9c1127f2cd403a315f,,,,,,,,,,,,,,,,,,,,,,,,,,,,,,,,,,,,,,,,,,,,,,,,,,,,,,,,,,,,,,,,,,,,,,,,,,,,,,,,,,,,,,,,,,,,,,,,,,,,,,,,,,,,,,,,,,,,,,,,,,,,,,,,,,,,,,,,,,,,,,,,,,,,,,,,,,,,,,,,,,,
0,9,9,18,1,,615046c5dc8d53b5ddf25d56,62c53a525cbfb4ed3c74f596,2022-07-06_09h32.32.486,Colour_Asymmetry_Pilot,2022.1.3,Win32,59.83366242,62c50e9c1127f2cd403a315f,,,,,,,,,,,,,,,,,,,,,,,,,,,,,,,,,,,,,,,,,,,,,,,,,,,,,,,,,,,,,,,,,,,,,,,,,,,,,,,,,,,,,,,,,,,,,,,,,,,,,,,,,,,,,,,,,,,,,,,,,,,,,,,,,,,,,,,,,,,,,,,,,,,,,,,,,,,,,,,,,,,
0,10,10,90,1,,615046c5dc8d53b5ddf25d56,62c53a525cbfb4ed3c74f596,2022-07-06_09h32.32.486,Colour_Asymmetry_Pilot,2022.1.3,Win32,59.83366242,62c50e9c1127f2cd403a315f,,,,,,,,,,,,,,,,,,,,,,,,,,,,,,,,,,,,,,,,,,,,,,,,,,,,,,,,,,,,,,,,,,,,,,,,,,,,,,,,,,,,,,,,,,,,,,,,,,,,,,,,,,,,,,,,,,,,,,,,,,,,,,,,,,,,,,,,,,,,,,,,,,,,,,,,,,,,,,,,,,,
0,11,11,45,1,,615046c5dc8d53b5ddf25d56,62c53a525cbfb4ed3c74f596,2022-07-06_09h32.32.486,Colour_Asymmetry_Pilot,2022.1.3,Win32,59.83366242,62c50e9c1127f2cd403a315f,,,,,,,,,,,,,,,,,,,,,,,,,,,,,,,,,,,,,,,,,,,,,,,,,,,,,,,,,,,,,,,,,,,,,,,,,,,,,,,,,,,,,,,,,,,,,,,,,,,,,,,,,,,,,,,,,,,,,,,,,,,,,,,,,,,,,,,,,,,,,,,,,,,,,,,,,,,,,,,,,,,
0,12,12,70,1,,615046c5dc8d53b5ddf25d56,62c53a525cbfb4ed3c74f596,2022-07-06_09h32.32.486,Colour_Asymmetry_Pilot,2022.1.3,Win32,59.83366242,62c50e9c1127f2cd403a315f,,,,,,,,,,,,,,,,,,,,,,,,,,,,,,,,,,,,,,,,,,,,,,,,,,,,,,,,,,,,,,,,,,,,,,,,,,,,,,,,,,,,,,,,,,,,,,,,,,,,,,,,,,,,,,,,,,,,,,,,,,,,,,,,,,,,,,,,,,,,,,,,,,,,,,,,,,,,,,,,,,,
0,13,13,42,1,,615046c5dc8d53b5ddf25d56,62c53a525cbfb4ed3c74f596,2022-07-06_09h32.32.486,Colour_Asymmetry_Pilot,2022.1.3,Win32,59.83366242,62c50e9c1127f2cd403a315f,,,,,,,,,,,,,,,,,,,,,,,,,,,,,,,,,,,,,,,,,,,,,,,,,,,,,,,,,,,,,,,,,,,,,,,,,,,,,,,,,,,,,,,,,,,,,,,,,,,,,,,,,,,,,,,,,,,,,,,,,,,,,,,,,,,,,,,,,,,,,,,,,,,,,,,,,,,,,,,,,,,
0,14,14,37,1,,615046c5dc8d53b5ddf25d56,62c53a525cbfb4ed3c74f596,2022-07-06_09h32.32.486,Colour_Asymmetry_Pilot,2022.1.3,Win32,59.83366242,62c50e9c1127f2cd403a315f,,,,,,,,,,,,,,,,,,,,,,,,,,,,,,,,,,,,,,,,,,,,,,,,,,,,,,,,,,,,,,,,,,,,,,,,,,,,,,,,,,,,,,,,,,,,,,,,,,,,,,,,,,,,,,,,,,,,,,,,,,,,,,,,,,,,,,,,,,,,,,,,,,,,,,,,,,,,,,,,,,,
0,15,15,6,1,,615046c5dc8d53b5ddf25d56,62c53a525cbfb4ed3c74f596,2022-07-06_09h32.32.486,Colour_Asymmetry_Pilot,2022.1.3,Win32,59.83366242,62c50e9c1127f2cd403a315f,,,,,,,,,,,,,,,,,,,,,,,,,,,,,,,,,,,,,,,,,,,,,,,,,,,,,,,,,,,,,,,,,,,,,,,,,,,,,,,,,,,,,,,,,,,,,,,,,,,,,,,,,,,,,,,,,,,,,,,,,,,,,,,,,,,,,,,,,,,,,,,,,,,,,,,,,,,,,,,,,,,
0,16,16,21,1,,615046c5dc8d53b5ddf25d56,62c53a525cbfb4ed3c74f596,2022-07-06_09h32.32.486,Colour_Asymmetry_Pilot,2022.1.3,Win32,59.83366242,62c50e9c1127f2cd403a315f,,,,,,,,,,,,,,,,,,,,,,,,,,,,,,,,,,,,,,,,,,,,,,,,,,,,,,,,,,,,,,,,,,,,,,,,,,,,,,,,,,,,,,,,,,,,,,,,,,,,,,,,,,,,,,,,,,,,,,,,,,,,,,,,,,,,,,,,,,,,,,,,,,,,,,,,,,,,,,,,,,,
0,17,17,10,1,,615046c5dc8d53b5ddf25d56,62c53a525cbfb4ed3c74f596,2022-07-06_09h32.32.486,Colour_Asymmetry_Pilot,2022.1.3,Win32,59.83366242,62c50e9c1127f2cd403a315f,,,,,,,,,,,,,,,,,,,,,,,,,,,,,,,,,,,,,,,,,,,,,,,,,,,,,,,,,,,,,,,,,,,,,,,,,,,,,,,,,,,,,,,,,,,,,,,,,,,,,,,,,,,,,,,,,,,,,,,,,,,,,,,,,,,,,,,,,,,,,,,,,,,,,,,,,,,,,,,,,,,
0,18,18,22,1,,615046c5dc8d53b5ddf25d56,62c53a525cbfb4ed3c74f596,2022-07-06_09h32.32.486,Colour_Asymmetry_Pilot,2022.1.3,Win32,59.83366242,62c50e9c1127f2cd403a315f,,,,,,,,,,,,,,,,,,,,,,,,,,,,,,,,,,,,,,,,,,,,,,,,,,,,,,,,,,,,,,,,,,,,,,,,,,,,,,,,,,,,,,,,,,,,,,,,,,,,,,,,,,,,,,,,,,,,,,,,,,,,,,,,,,,,,,,,,,,,,,,,,,,,,,,,,,,,,,,,,,,
0,19,19,8,1,,615046c5dc8d53b5ddf25d56,62c53a525cbfb4ed3c74f596,2022-07-06_09h32.32.486,Colour_Asymmetry_Pilot,2022.1.3,Win32,59.83366242,62c50e9c1127f2cd403a315f,,,,,,,,,,,,,,,,,,,,,,,,,,,,,,,,,,,,,,,,,,,,,,,,,,,,,,,,,,,,,,,,,,,,,,,,,,,,,,,,,,,,,,,,,,,,,,,,,,,,,,,,,,,,,,,,,,,,,,,,,,,,,,,,,,,,,,,,,,,,,,,,,,,,,,,,,,,,,,,,,,,
0,20,20,66,1,,615046c5dc8d53b5ddf25d56,62c53a525cbfb4ed3c74f596,2022-07-06_09h32.32.486,Colour_Asymmetry_Pilot,2022.1.3,Win32,59.83366242,62c50e9c1127f2cd403a315f,,,,,,,,,,,,,,,,,,,,,,,,,,,,,,,,,,,,,,,,,,,,,,,,,,,,,,,,,,,,,,,,,,,,,,,,,,,,,,,,,,,,,,,,,,,,,,,,,,,,,,,,,,,,,,,,,,,,,,,,,,,,,,,,,,,,,,,,,,,,,,,,,,,,,,,,,,,,,,,,,,,
0,21,21,84,1,,615046c5dc8d53b5ddf25d56,62c53a525cbfb4ed3c74f596,2022-07-06_09h32.32.486,Colour_Asymmetry_Pilot,2022.1.3,Win32,59.83366242,62c50e9c1127f2cd403a315f,,,,,,,,,,,,,,,,,,,,,,,,,,,,,,,,,,,,,,,,,,,,,,,,,,,,,,,,,,,,,,,,,,,,,,,,,,,,,,,,,,,,,,,,,,,,,,,,,,,,,,,,,,,,,,,,,,,,,,,,,,,,,,,,,,,,,,,,,,,,,,,,,,,,,,,,,,,,,,,,,,,
0,22,22,55,1,,615046c5dc8d53b5ddf25d56,62c53a525cbfb4ed3c74f596,2022-07-06_09h32.32.486,Colour_Asymmetry_Pilot,2022.1.3,Win32,59.83366242,62c50e9c1127f2cd403a315f,,,,,,,,,,,,,,,,,,,,,,,,,,,,,,,,,,,,,,,,,,,,,,,,,,,,,,,,,,,,,,,,,,,,,,,,,,,,,,,,,,,,,,,,,,,,,,,,,,,,,,,,,,,,,,,,,,,,,,,,,,,,,,,,,,,,,,,,,,,,,,,,,,,,,,,,,,,,,,,,,,,
0,23,23,31,1,,615046c5dc8d53b5ddf25d56,62c53a525cbfb4ed3c74f596,2022-07-06_09h32.32.486,Colour_Asymmetry_Pilot,2022.1.3,Win32,59.83366242,62c50e9c1127f2cd403a315f,,,,,,,,,,,,,,,,,,,,,,,,,,,,,,,,,,,,,,,,,,,,,,,,,,,,,,,,,,,,,,,,,,,,,,,,,,,,,,,,,,,,,,,,,,,,,,,,,,,,,,,,,,,,,,,,,,,,,,,,,,,,,,,,,,,,,,,,,,,,,,,,,,,,,,,,,,,,,,,,,,,
0,24,24,91,1,,615046c5dc8d53b5ddf25d56,62c53a525cbfb4ed3c74f596,2022-07-06_09h32.32.486,Colour_Asymmetry_Pilot,2022.1.3,Win32,59.83366242,62c50e9c1127f2cd403a315f,,,,,,,,,,,,,,,,,,,,,,,,,,,,,,,,,,,,,,,,,,,,,,,,,,,,,,,,,,,,,,,,,,,,,,,,,,,,,,,,,,,,,,,,,,,,,,,,,,,,,,,,,,,,,,,,,,,,,,,,,,,,,,,,,,,,,,,,,,,,,,,,,,,,,,,,,,,,,,,,,,,
0,25,25,47,1,,615046c5dc8d53b5ddf25d56,62c53a525cbfb4ed3c74f596,2022-07-06_09h32.32.486,Colour_Asymmetry_Pilot,2022.1.3,Win32,59.83366242,62c50e9c1127f2cd403a315f,,,,,,,,,,,,,,,,,,,,,,,,,,,,,,,,,,,,,,,,,,,,,,,,,,,,,,,,,,,,,,,,,,,,,,,,,,,,,,,,,,,,,,,,,,,,,,,,,,,,,,,,,,,,,,,,,,,,,,,,,,,,,,,,,,,,,,,,,,,,,,,,,,,,,,,,,,,,,,,,,,,
0,26,26,15,1,,615046c5dc8d53b5ddf25d56,62c53a525cbfb4ed3c74f596,2022-07-06_09h32.32.486,Colour_Asymmetry_Pilot,2022.1.3,Win32,59.83366242,62c50e9c1127f2cd403a315f,,,,,,,,,,,,,,,,,,,,,,,,,,,,,,,,,,,,,,,,,,,,,,,,,,,,,,,,,,,,,,,,,,,,,,,,,,,,,,,,,,,,,,,,,,,,,,,,,,,,,,,,,,,,,,,,,,,,,,,,,,,,,,,,,,,,,,,,,,,,,,,,,,,,,,,,,,,,,,,,,,,
0,27,27,32,1,,615046c5dc8d53b5ddf25d56,62c53a525cbfb4ed3c74f596,2022-07-06_09h32.32.486,Colour_Asymmetry_Pilot,2022.1.3,Win32,59.83366242,62c50e9c1127f2cd403a315f,,,,,,,,,,,,,,,,,,,,,,,,,,,,,,,,,,,,,,,,,,,,,,,,,,,,,,,,,,,,,,,,,,,,,,,,,,,,,,,,,,,,,,,,,,,,,,,,,,,,,,,,,,,,,,,,,,,,,,,,,,,,,,,,,,,,,,,,,,,,,,,,,,,,,,,,,,,,,,,,,,,
0,28,28,2,1,,615046c5dc8d53b5ddf25d56,62c53a525cbfb4ed3c74f596,2022-07-06_09h32.32.486,Colour_Asymmetry_Pilot,2022.1.3,Win32,59.83366242,62c50e9c1127f2cd403a315f,,,,,,,,,,,,,,,,,,,,,,,,,,,,,,,,,,,,,,,,,,,,,,,,,,,,,,,,,,,,,,,,,,,,,,,,,,,,,,,,,,,,,,,,,,,,,,,,,,,,,,,,,,,,,,,,,,,,,,,,,,,,,,,,,,,,,,,,,,,,,,,,,,,,,,,,,,,,,,,,,,,
0,29,29,63,1,,615046c5dc8d53b5ddf25d56,62c53a525cbfb4ed3c74f596,2022-07-06_09h32.32.486,Colour_Asymmetry_Pilot,2022.1.3,Win32,59.83366242,62c50e9c1127f2cd403a315f,,,,,,,,,,,,,,,,,,,,,,,,,,,,,,,,,,,,,,,,,,,,,,,,,,,,,,,,,,,,,,,,,,,,,,,,,,,,,,,,,,,,,,,,,,,,,,,,,,,,,,,,,,,,,,,,,,,,,,,,,,,,,,,,,,,,,,,,,,,,,,,,,,,,,,,,,,,,,,,,,,,
0,30,30,72,1,,615046c5dc8d53b5ddf25d56,62c53a525cbfb4ed3c74f596,2022-07-06_09h32.32.486,Colour_Asymmetry_Pilot,2022.1.3,Win32,59.83366242,62c50e9c1127f2cd403a315f,,,,,,,,,,,,,,,,,,,,,,,,,,,,,,,,,,,,,,,,,,,,,,,,,,,,,,,,,,,,,,,,,,,,,,,,,,,,,,,,,,,,,,,,,,,,,,,,,,,,,,,,,,,,,,,,,,,,,,,,,,,,,,,,,,,,,,,,,,,,,,,,,,,,,,,,,,,,,,,,,,,
0,31,31,69,1,,615046c5dc8d53b5ddf25d56,62c53a525cbfb4ed3c74f596,2022-07-06_09h32.32.486,Colour_Asymmetry_Pilot,2022.1.3,Win32,59.83366242,62c50e9c1127f2cd403a315f,,,,,,,,,,,,,,,,,,,,,,,,,,,,,,,,,,,,,,,,,,,,,,,,,,,,,,,,,,,,,,,,,,,,,,,,,,,,,,,,,,,,,,,,,,,,,,,,,,,,,,,,,,,,,,,,,,,,,,,,,,,,,,,,,,,,,,,,,,,,,,,,,,,,,,,,,,,,,,,,,,,
0,32,32,60,1,,615046c5dc8d53b5ddf25d56,62c53a525cbfb4ed3c74f596,2022-07-06_09h32.32.486,Colour_Asymmetry_Pilot,2022.1.3,Win32,59.83366242,62c50e9c1127f2cd403a315f,,,,,,,,,,,,,,,,,,,,,,,,,,,,,,,,,,,,,,,,,,,,,,,,,,,,,,,,,,,,,,,,,,,,,,,,,,,,,,,,,,,,,,,,,,,,,,,,,,,,,,,,,,,,,,,,,,,,,,,,,,,,,,,,,,,,,,,,,,,,,,,,,,,,,,,,,,,,,,,,,,,
0,33,33,74,1,,615046c5dc8d53b5ddf25d56,62c53a525cbfb4ed3c74f596,2022-07-06_09h32.32.486,Colour_Asymmetry_Pilot,2022.1.3,Win32,59.83366242,62c50e9c1127f2cd403a315f,,,,,,,,,,,,,,,,,,,,,,,,,,,,,,,,,,,,,,,,,,,,,,,,,,,,,,,,,,,,,,,,,,,,,,,,,,,,,,,,,,,,,,,,,,,,,,,,,,,,,,,,,,,,,,,,,,,,,,,,,,,,,,,,,,,,,,,,,,,,,,,,,,,,,,,,,,,,,,,,,,,
0,34,34,58,1,,615046c5dc8d53b5ddf25d56,62c53a525cbfb4ed3c74f596,2022-07-06_09h32.32.486,Colour_Asymmetry_Pilot,2022.1.3,Win32,59.83366242,62c50e9c1127f2cd403a315f,,,,,,,,,,,,,,,,,,,,,,,,,,,,,,,,,,,,,,,,,,,,,,,,,,,,,,,,,,,,,,,,,,,,,,,,,,,,,,,,,,,,,,,,,,,,,,,,,,,,,,,,,,,,,,,,,,,,,,,,,,,,,,,,,,,,,,,,,,,,,,,,,,,,,,,,,,,,,,,,,,,
0,35,35,20,1,,615046c5dc8d53b5ddf25d56,62c53a525cbfb4ed3c74f596,2022-07-06_09h32.32.486,Colour_Asymmetry_Pilot,2022.1.3,Win32,59.83366242,62c50e9c1127f2cd403a315f,,,,,,,,,,,,,,,,,,,,,,,,,,,,,,,,,,,,,,,,,,,,,,,,,,,,,,,,,,,,,,,,,,,,,,,,,,,,,,,,,,,,,,,,,,,,,,,,,,,,,,,,,,,,,,,,,,,,,,,,,,,,,,,,,,,,,,,,,,,,,,,,,,,,,,,,,,,,,,,,,,,
0,36,36,61,1,,615046c5dc8d53b5ddf25d56,62c53a525cbfb4ed3c74f596,2022-07-06_09h32.32.486,Colour_Asymmetry_Pilot,2022.1.3,Win32,59.83366242,62c50e9c1127f2cd403a315f,,,,,,,,,,,,,,,,,,,,,,,,,,,,,,,,,,,,,,,,,,,,,,,,,,,,,,,,,,,,,,,,,,,,,,,,,,,,,,,,,,,,,,,,,,,,,,,,,,,,,,,,,,,,,,,,,,,,,,,,,,,,,,,,,,,,,,,,,,,,,,,,,,,,,,,,,,,,,,,,,,,
0,37,37,64,1,,615046c5dc8d53b5ddf25d56,62c53a525cbfb4ed3c74f596,2022-07-06_09h32.32.486,Colour_Asymmetry_Pilot,2022.1.3,Win32,59.83366242,62c50e9c1127f2cd403a315f,,,,,,,,,,,,,,,,,,,,,,,,,,,,,,,,,,,,,,,,,,,,,,,,,,,,,,,,,,,,,,,,,,,,,,,,,,,,,,,,,,,,,,,,,,,,,,,,,,,,,,,,,,,,,,,,,,,,,,,,,,,,,,,,,,,,,,,,,,,,,,,,,,,,,,,,,,,,,,,,,,,
0,38,38,26,1,,615046c5dc8d53b5ddf25d56,62c53a525cbfb4ed3c74f596,2022-07-06_09h32.32.486,Colour_Asymmetry_Pilot,2022.1.3,Win32,59.83366242,62c50e9c1127f2cd403a315f,,,,,,,,,,,,,,,,,,,,,,,,,,,,,,,,,,,,,,,,,,,,,,,,,,,,,,,,,,,,,,,,,,,,,,,,,,,,,,,,,,,,,,,,,,,,,,,,,,,,,,,,,,,,,,,,,,,,,,,,,,,,,,,,,,,,,,,,,,,,,,,,,,,,,,,,,,,,,,,,,,,
0,39,39,13,1,,615046c5dc8d53b5ddf25d56,62c53a525cbfb4ed3c74f596,2022-07-06_09h32.32.486,Colour_Asymmetry_Pilot,2022.1.3,Win32,59.83366242,62c50e9c1127f2cd403a315f,,,,,,,,,,,,,,,,,,,,,,,,,,,,,,,,,,,,,,,,,,,,,,,,,,,,,,,,,,,,,,,,,,,,,,,,,,,,,,,,,,,,,,,,,,,,,,,,,,,,,,,,,,,,,,,,,,,,,,,,,,,,,,,,,,,,,,,,,,,,,,,,,,,,,,,,,,,,,,,,,,,
0,40,40,52,1,,615046c5dc8d53b5ddf25d56,62c53a525cbfb4ed3c74f596,2022-07-06_09h32.32.486,Colour_Asymmetry_Pilot,2022.1.3,Win32,59.83366242,62c50e9c1127f2cd403a315f,,,,,,,,,,,,,,,,,,,,,,,,,,,,,,,,,,,,,,,,,,,,,,,,,,,,,,,,,,,,,,,,,,,,,,,,,,,,,,,,,,,,,,,,,,,,,,,,,,,,,,,,,,,,,,,,,,,,,,,,,,,,,,,,,,,,,,,,,,,,,,,,,,,,,,,,,,,,,,,,,,,
0,41,41,11,1,,615046c5dc8d53b5ddf25d56,62c53a525cbfb4ed3c74f596,2022-07-06_09h32.32.486,Colour_Asymmetry_Pilot,2022.1.3,Win32,59.83366242,62c50e9c1127f2cd403a315f,,,,,,,,,,,,,,,,,,,,,,,,,,,,,,,,,,,,,,,,,,,,,,,,,,,,,,,,,,,,,,,,,,,,,,,,,,,,,,,,,,,,,,,,,,,,,,,,,,,,,,,,,,,,,,,,,,,,,,,,,,,,,,,,,,,,,,,,,,,,,,,,,,,,,,,,,,,,,,,,,,,
0,42,42,14,1,,615046c5dc8d53b5ddf25d56,62c53a525cbfb4ed3c74f596,2022-07-06_09h32.32.486,Colour_Asymmetry_Pilot,2022.1.3,Win32,59.83366242,62c50e9c1127f2cd403a315f,,,,,,,,,,,,,,,,,,,,,,,,,,,,,,,,,,,,,,,,,,,,,,,,,,,,,,,,,,,,,,,,,,,,,,,,,,,,,,,,,,,,,,,,,,,,,,,,,,,,,,,,,,,,,,,,,,,,,,,,,,,,,,,,,,,,,,,,,,,,,,,,,,,,,,,,,,,,,,,,,,,
0,43,43,0,1,,615046c5dc8d53b5ddf25d56,62c53a525cbfb4ed3c74f596,2022-07-06_09h32.32.486,Colour_Asymmetry_Pilot,2022.1.3,Win32,59.83366242,62c50e9c1127f2cd403a315f,,,,,,,,,,,,,,,,,,,,,,,,,,,,,,,,,,,,,,,,,,,,,,,,,,,,,,,,,,,,,,,,,,,,,,,,,,,,,,,,,,,,,,,,,,,,,,,,,,,,,,,,,,,,,,,,,,,,,,,,,,,,,,,,,,,,,,,,,,,,,,,,,,,,,,,,,,,,,,,,,,,
0,44,44,24,1,,615046c5dc8d53b5ddf25d56,62c53a525cbfb4ed3c74f596,2022-07-06_09h32.32.486,Colour_Asymmetry_Pilot,2022.1.3,Win32,59.83366242,62c50e9c1127f2cd403a315f,,,,,,,,,,,,,,,,,,,,,,,,,,,,,,,,,,,,,,,,,,,,,,,,,,,,,,,,,,,,,,,,,,,,,,,,,,,,,,,,,,,,,,,,,,,,,,,,,,,,,,,,,,,,,,,,,,,,,,,,,,,,,,,,,,,,,,,,,,,,,,,,,,,,,,,,,,,,,,,,,,,
0,45,45,35,1,,615046c5dc8d53b5ddf25d56,62c53a525cbfb4ed3c74f596,2022-07-06_09h32.32.486,Colour_Asymmetry_Pilot,2022.1.3,Win32,59.83366242,62c50e9c1127f2cd403a315f,,,,,,,,,,,,,,,,,,,,,,,,,,,,,,,,,,,,,,,,,,,,,,,,,,,,,,,,,,,,,,,,,,,,,,,,,,,,,,,,,,,,,,,,,,,,,,,,,,,,,,,,,,,,,,,,,,,,,,,,,,,,,,,,,,,,,,,,,,,,,,,,,,,,,,,,,,,,,,,,,,,
0,46,46,41,1,,615046c5dc8d53b5ddf25d56,62c53a525cbfb4ed3c74f596,2022-07-06_09h32.32.486,Colour_Asymmetry_Pilot,2022.1.3,Win32,59.83366242,62c50e9c1127f2cd403a315f,,,,,,,,,,,,,,,,,,,,,,,,,,,,,,,,,,,,,,,,,,,,,,,,,,,,,,,,,,,,,,,,,,,,,,,,,,,,,,,,,,,,,,,,,,,,,,,,,,,,,,,,,,,,,,,,,,,,,,,,,,,,,,,,,,,,,,,,,,,,,,,,,,,,,,,,,,,,,,,,,,,
0,47,47,17,1,,615046c5dc8d53b5ddf25d56,62c53a525cbfb4ed3c74f596,2022-07-06_09h32.32.486,Colour_Asymmetry_Pilot,2022.1.3,Win32,59.83366242,62c50e9c1127f2cd403a315f,,,,,,,,,,,,,,,,,,,,,,,,,,,,,,,,,,,,,,,,,,,,,,,,,,,,,,,,,,,,,,,,,,,,,,,,,,,,,,,,,,,,,,,,,,,,,,,,,,,,,,,,,,,,,,,,,,,,,,,,,,,,,,,,,,,,,,,,,,,,,,,,,,,,,,,,,,,,,,,,,,,
0,48,48,23,1,,615046c5dc8d53b5ddf25d56,62c53a525cbfb4ed3c74f596,2022-07-06_09h32.32.486,Colour_Asymmetry_Pilot,2022.1.3,Win32,59.83366242,62c50e9c1127f2cd403a315f,,,,,,,,,,,,,,,,,,,,,,,,,,,,,,,,,,,,,,,,,,,,,,,,,,,,,,,,,,,,,,,,,,,,,,,,,,,,,,,,,,,,,,,,,,,,,,,,,,,,,,,,,,,,,,,,,,,,,,,,,,,,,,,,,,,,,,,,,,,,,,,,,,,,,,,,,,,,,,,,,,,
0,49,49,43,1,,615046c5dc8d53b5ddf25d56,62c53a525cbfb4ed3c74f596,2022-07-06_09h32.32.486,Colour_Asymmetry_Pilot,2022.1.3,Win32,59.83366242,62c50e9c1127f2cd403a315f,,,,,,,,,,,,,,,,,,,,,,,,,,,,,,,,,,,,,,,,,,,,,,,,,,,,,,,,,,,,,,,,,,,,,,,,,,,,,,,,,,,,,,,,,,,,,,,,,,,,,,,,,,,,,,,,,,,,,,,,,,,,,,,,,,,,,,,,,,,,,,,,,,,,,,,,,,,,,,,,,,,
0,50,50,73,1,,615046c5dc8d53b5ddf25d56,62c53a525cbfb4ed3c74f596,2022-07-06_09h32.32.486,Colour_Asymmetry_Pilot,2022.1.3,Win32,59.83366242,62c50e9c1127f2cd403a315f,,,,,,,,,,,,,,,,,,,,,,,,,,,,,,,,,,,,,,,,,,,,,,,,,,,,,,,,,,,,,,,,,,,,,,,,,,,,,,,,,,,,,,,,,,,,,,,,,,,,,,,,,,,,,,,,,,,,,,,,,,,,,,,,,,,,,,,,,,,,,,,,,,,,,,,,,,,,,,,,,,,
0,51,51,89,1,,615046c5dc8d53b5ddf25d56,62c53a525cbfb4ed3c74f596,2022-07-06_09h32.32.486,Colour_Asymmetry_Pilot,2022.1.3,Win32,59.83366242,62c50e9c1127f2cd403a315f,,,,,,,,,,,,,,,,,,,,,,,,,,,,,,,,,,,,,,,,,,,,,,,,,,,,,,,,,,,,,,,,,,,,,,,,,,,,,,,,,,,,,,,,,,,,,,,,,,,,,,,,,,,,,,,,,,,,,,,,,,,,,,,,,,,,,,,,,,,,,,,,,,,,,,,,,,,,,,,,,,,
0,52,52,76,1,,615046c5dc8d53b5ddf25d56,62c53a525cbfb4ed3c74f596,2022-07-06_09h32.32.486,Colour_Asymmetry_Pilot,2022.1.3,Win32,59.83366242,62c50e9c1127f2cd403a315f,,,,,,,,,,,,,,,,,,,,,,,,,,,,,,,,,,,,,,,,,,,,,,,,,,,,,,,,,,,,,,,,,,,,,,,,,,,,,,,,,,,,,,,,,,,,,,,,,,,,,,,,,,,,,,,,,,,,,,,,,,,,,,,,,,,,,,,,,,,,,,,,,,,,,,,,,,,,,,,,,,,
0,53,53,80,1,,615046c5dc8d53b5ddf25d56,62c53a525cbfb4ed3c74f596,2022-07-06_09h32.32.486,Colour_Asymmetry_Pilot,2022.1.3,Win32,59.83366242,62c50e9c1127f2cd403a315f,,,,,,,,,,,,,,,,,,,,,,,,,,,,,,,,,,,,,,,,,,,,,,,,,,,,,,,,,,,,,,,,,,,,,,,,,,,,,,,,,,,,,,,,,,,,,,,,,,,,,,,,,,,,,,,,,,,,,,,,,,,,,,,,,,,,,,,,,,,,,,,,,,,,,,,,,,,,,,,,,,,
0,54,54,25,1,,615046c5dc8d53b5ddf25d56,62c53a525cbfb4ed3c74f596,2022-07-06_09h32.32.486,Colour_Asymmetry_Pilot,2022.1.3,Win32,59.83366242,62c50e9c1127f2cd403a315f,,,,,,,,,,,,,,,,,,,,,,,,,,,,,,,,,,,,,,,,,,,,,,,,,,,,,,,,,,,,,,,,,,,,,,,,,,,,,,,,,,,,,,,,,,,,,,,,,,,,,,,,,,,,,,,,,,,,,,,,,,,,,,,,,,,,,,,,,,,,,,,,,,,,,,,,,,,,,,,,,,,
0,55,55,71,1,,615046c5dc8d53b5ddf25d56,62c53a525cbfb4ed3c74f596,2022-07-06_09h32.32.486,Colour_Asymmetry_Pilot,2022.1.3,Win32,59.83366242,62c50e9c1127f2cd403a315f,,,,,,,,,,,,,,,,,,,,,,,,,,,,,,,,,,,,,,,,,,,,,,,,,,,,,,,,,,,,,,,,,,,,,,,,,,,,,,,,,,,,,,,,,,,,,,,,,,,,,,,,,,,,,,,,,,,,,,,,,,,,,,,,,,,,,,,,,,,,,,,,,,,,,,,,,,,,,,,,,,,
0,56,56,19,1,,615046c5dc8d53b5ddf25d56,62c53a525cbfb4ed3c74f596,2022-07-06_09h32.32.486,Colour_Asymmetry_Pilot,2022.1.3,Win32,59.83366242,62c50e9c1127f2cd403a315f,,,,,,,,,,,,,,,,,,,,,,,,,,,,,,,,,,,,,,,,,,,,,,,,,,,,,,,,,,,,,,,,,,,,,,,,,,,,,,,,,,,,,,,,,,,,,,,,,,,,,,,,,,,,,,,,,,,,,,,,,,,,,,,,,,,,,,,,,,,,,,,,,,,,,,,,,,,,,,,,,,,
0,57,57,49,1,,615046c5dc8d53b5ddf25d56,62c53a525cbfb4ed3c74f596,2022-07-06_09h32.32.486,Colour_Asymmetry_Pilot,2022.1.3,Win32,59.83366242,62c50e9c1127f2cd403a315f,,,,,,,,,,,,,,,,,,,,,,,,,,,,,,,,,,,,,,,,,,,,,,,,,,,,,,,,,,,,,,,,,,,,,,,,,,,,,,,,,,,,,,,,,,,,,,,,,,,,,,,,,,,,,,,,,,,,,,,,,,,,,,,,,,,,,,,,,,,,,,,,,,,,,,,,,,,,,,,,,,,
0,58,58,27,1,,615046c5dc8d53b5ddf25d56,62c53a525cbfb4ed3c74f596,2022-07-06_09h32.32.486,Colour_Asymmetry_Pilot,2022.1.3,Win32,59.83366242,62c50e9c1127f2cd403a315f,,,,,,,,,,,,,,,,,,,,,,,,,,,,,,,,,,,,,,,,,,,,,,,,,,,,,,,,,,,,,,,,,,,,,,,,,,,,,,,,,,,,,,,,,,,,,,,,,,,,,,,,,,,,,,,,,,,,,,,,,,,,,,,,,,,,,,,,,,,,,,,,,,,,,,,,,,,,,,,,,,,
0,59,59,3,1,,615046c5dc8d53b5ddf25d56,62c53a525cbfb4ed3c74f596,2022-07-06_09h32.32.486,Colour_Asymmetry_Pilot,2022.1.3,Win32,59.83366242,62c50e9c1127f2cd403a315f,,,,,,,,,,,,,,,,,,,,,,,,,,,,,,,,,,,,,,,,,,,,,,,,,,,,,,,,,,,,,,,,,,,,,,,,,,,,,,,,,,,,,,,,,,,,,,,,,,,,,,,,,,,,,,,,,,,,,,,,,,,,,,,,,,,,,,,,,,,,,,,,,,,,,,,,,,,,,,,,,,,
0,60,60,50,1,,615046c5dc8d53b5ddf25d56,62c53a525cbfb4ed3c74f596,2022-07-06_09h32.32.486,Colour_Asymmetry_Pilot,2022.1.3,Win32,59.83366242,62c50e9c1127f2cd403a315f,,,,,,,,,,,,,,,,,,,,,,,,,,,,,,,,,,,,,,,,,,,,,,,,,,,,,,,,,,,,,,,,,,,,,,,,,,,,,,,,,,,,,,,,,,,,,,,,,,,,,,,,,,,,,,,,,,,,,,,,,,,,,,,,,,,,,,,,,,,,,,,,,,,,,,,,,,,,,,,,,,,
0,61,61,36,1,,615046c5dc8d53b5ddf25d56,62c53a525cbfb4ed3c74f596,2022-07-06_09h32.32.486,Colour_Asymmetry_Pilot,2022.1.3,Win32,59.83366242,62c50e9c1127f2cd403a315f,,,,,,,,,,,,,,,,,,,,,,,,,,,,,,,,,,,,,,,,,,,,,,,,,,,,,,,,,,,,,,,,,,,,,,,,,,,,,,,,,,,,,,,,,,,,,,,,,,,,,,,,,,,,,,,,,,,,,,,,,,,,,,,,,,,,,,,,,,,,,,,,,,,,,,,,,,,,,,,,,,,
0,62,62,67,1,,615046c5dc8d53b5ddf25d56,62c53a525cbfb4ed3c74f596,2022-07-06_09h32.32.486,Colour_Asymmetry_Pilot,2022.1.3,Win32,59.83366242,62c50e9c1127f2cd403a315f,,,,,,,,,,,,,,,,,,,,,,,,,,,,,,,,,,,,,,,,,,,,,,,,,,,,,,,,,,,,,,,,,,,,,,,,,,,,,,,,,,,,,,,,,,,,,,,,,,,,,,,,,,,,,,,,,,,,,,,,,,,,,,,,,,,,,,,,,,,,,,,,,,,,,,,,,,,,,,,,,,,
0,63,63,54,1,,615046c5dc8d53b5ddf25d56,62c53a525cbfb4ed3c74f596,2022-07-06_09h32.32.486,Colour_Asymmetry_Pilot,2022.1.3,Win32,59.83366242,62c50e9c1127f2cd403a315f,,,,,,,,,,,,,,,,,,,,,,,,,,,,,,,,,,,,,,,,,,,,,,,,,,,,,,,,,,,,,,,,,,,,,,,,,,,,,,,,,,,,,,,,,,,,,,,,,,,,,,,,,,,,,,,,,,,,,,,,,,,,,,,,,,,,,,,,,,,,,,,,,,,,,,,,,,,,,,,,,,,
0,64,64,81,1,,615046c5dc8d53b5ddf25d56,62c53a525cbfb4ed3c74f596,2022-07-06_09h32.32.486,Colour_Asymmetry_Pilot,2022.1.3,Win32,59.83366242,62c50e9c1127f2cd403a315f,,,,,,,,,,,,,,,,,,,,,,,,,,,,,,,,,,,,,,,,,,,,,,,,,,,,,,,,,,,,,,,,,,,,,,,,,,,,,,,,,,,,,,,,,,,,,,,,,,,,,,,,,,,,,,,,,,,,,,,,,,,,,,,,,,,,,,,,,,,,,,,,,,,,,,,,,,,,,,,,,,,
0,65,65,62,1,,615046c5dc8d53b5ddf25d56,62c53a525cbfb4ed3c74f596,2022-07-06_09h32.32.486,Colour_Asymmetry_Pilot,2022.1.3,Win32,59.83366242,62c50e9c1127f2cd403a315f,,,,,,,,,,,,,,,,,,,,,,,,,,,,,,,,,,,,,,,,,,,,,,,,,,,,,,,,,,,,,,,,,,,,,,,,,,,,,,,,,,,,,,,,,,,,,,,,,,,,,,,,,,,,,,,,,,,,,,,,,,,,,,,,,,,,,,,,,,,,,,,,,,,,,,,,,,,,,,,,,,,
0,66,66,68,1,,615046c5dc8d53b5ddf25d56,62c53a525cbfb4ed3c74f596,2022-07-06_09h32.32.486,Colour_Asymmetry_Pilot,2022.1.3,Win32,59.83366242,62c50e9c1127f2cd403a315f,,,,,,,,,,,,,,,,,,,,,,,,,,,,,,,,,,,,,,,,,,,,,,,,,,,,,,,,,,,,,,,,,,,,,,,,,,,,,,,,,,,,,,,,,,,,,,,,,,,,,,,,,,,,,,,,,,,,,,,,,,,,,,,,,,,,,,,,,,,,,,,,,,,,,,,,,,,,,,,,,,,
0,67,67,33,1,,615046c5dc8d53b5ddf25d56,62c53a525cbfb4ed3c74f596,2022-07-06_09h32.32.486,Colour_Asymmetry_Pilot,2022.1.3,Win32,59.83366242,62c50e9c1127f2cd403a315f,,,,,,,,,,,,,,,,,,,,,,,,,,,,,,,,,,,,,,,,,,,,,,,,,,,,,,,,,,,,,,,,,,,,,,,,,,,,,,,,,,,,,,,,,,,,,,,,,,,,,,,,,,,,,,,,,,,,,,,,,,,,,,,,,,,,,,,,,,,,,,,,,,,,,,,,,,,,,,,,,,,
0,68,68,65,1,,615046c5dc8d53b5ddf25d56,62c53a525cbfb4ed3c74f596,2022-07-06_09h32.32.486,Colour_Asymmetry_Pilot,2022.1.3,Win32,59.83366242,62c50e9c1127f2cd403a315f,,,,,,,,,,,,,,,,,,,,,,,,,,,,,,,,,,,,,,,,,,,,,,,,,,,,,,,,,,,,,,,,,,,,,,,,,,,,,,,,,,,,,,,,,,,,,,,,,,,,,,,,,,,,,,,,,,,,,,,,,,,,,,,,,,,,,,,,,,,,,,,,,,,,,,,,,,,,,,,,,,,
0,69,69,56,1,,615046c5dc8d53b5ddf25d56,62c53a525cbfb4ed3c74f596,2022-07-06_09h32.32.486,Colour_Asymmetry_Pilot,2022.1.3,Win32,59.83366242,62c50e9c1127f2cd403a315f,,,,,,,,,,,,,,,,,,,,,,,,,,,,,,,,,,,,,,,,,,,,,,,,,,,,,,,,,,,,,,,,,,,,,,,,,,,,,,,,,,,,,,,,,,,,,,,,,,,,,,,,,,,,,,,,,,,,,,,,,,,,,,,,,,,,,,,,,,,,,,,,,,,,,,,,,,,,,,,,,,,
0,70,70,38,1,,615046c5dc8d53b5ddf25d56,62c53a525cbfb4ed3c74f596,2022-07-06_09h32.32.486,Colour_Asymmetry_Pilot,2022.1.3,Win32,59.83366242,62c50e9c1127f2cd403a315f,,,,,,,,,,,,,,,,,,,,,,,,,,,,,,,,,,,,,,,,,,,,,,,,,,,,,,,,,,,,,,,,,,,,,,,,,,,,,,,,,,,,,,,,,,,,,,,,,,,,,,,,,,,,,,,,,,,,,,,,,,,,,,,,,,,,,,,,,,,,,,,,,,,,,,,,,,,,,,,,,,,
0,71,71,48,1,,615046c5dc8d53b5ddf25d56,62c53a525cbfb4ed3c74f596,2022-07-06_09h32.32.486,Colour_Asymmetry_Pilot,2022.1.3,Win32,59.83366242,62c50e9c1127f2cd403a315f,,,,,,,,,,,,,,,,,,,,,,,,,,,,,,,,,,,,,,,,,,,,,,,,,,,,,,,,,,,,,,,,,,,,,,,,,,,,,,,,,,,,,,,,,,,,,,,,,,,,,,,,,,,,,,,,,,,,,,,,,,,,,,,,,,,,,,,,,,,,,,,,,,,,,,,,,,,,,,,,,,,
0,72,72,40,1,,615046c5dc8d53b5ddf25d56,62c53a525cbfb4ed3c74f596,2022-07-06_09h32.32.486,Colour_Asymmetry_Pilot,2022.1.3,Win32,59.83366242,62c50e9c1127f2cd403a315f,,,,,,,,,,,,,,,,,,,,,,,,,,,,,,,,,,,,,,,,,,,,,,,,,,,,,,,,,,,,,,,,,,,,,,,,,,,,,,,,,,,,,,,,,,,,,,,,,,,,,,,,,,,,,,,,,,,,,,,,,,,,,,,,,,,,,,,,,,,,,,,,,,,,,,,,,,,,,,,,,,,
0,73,73,30,1,,615046c5dc8d53b5ddf25d56,62c53a525cbfb4ed3c74f596,2022-07-06_09h32.32.486,Colour_Asymmetry_Pilot,2022.1.3,Win32,59.83366242,62c50e9c1127f2cd403a315f,,,,,,,,,,,,,,,,,,,,,,,,,,,,,,,,,,,,,,,,,,,,,,,,,,,,,,,,,,,,,,,,,,,,,,,,,,,,,,,,,,,,,,,,,,,,,,,,,,,,,,,,,,,,,,,,,,,,,,,,,,,,,,,,,,,,,,,,,,,,,,,,,,,,,,,,,,,,,,,,,,,
0,74,74,53,1,,615046c5dc8d53b5ddf25d56,62c53a525cbfb4ed3c74f596,2022-07-06_09h32.32.486,Colour_Asymmetry_Pilot,2022.1.3,Win32,59.83366242,62c50e9c1127f2cd403a315f,,,,,,,,,,,,,,,,,,,,,,,,,,,,,,,,,,,,,,,,,,,,,,,,,,,,,,,,,,,,,,,,,,,,,,,,,,,,,,,,,,,,,,,,,,,,,,,,,,,,,,,,,,,,,,,,,,,,,,,,,,,,,,,,,,,,,,,,,,,,,,,,,,,,,,,,,,,,,,,,,,,
0,75,75,28,1,,615046c5dc8d53b5ddf25d56,62c53a525cbfb4ed3c74f596,2022-07-06_09h32.32.486,Colour_Asymmetry_Pilot,2022.1.3,Win32,59.83366242,62c50e9c1127f2cd403a315f,,,,,,,,,,,,,,,,,,,,,,,,,,,,,,,,,,,,,,,,,,,,,,,,,,,,,,,,,,,,,,,,,,,,,,,,,,,,,,,,,,,,,,,,,,,,,,,,,,,,,,,,,,,,,,,,,,,,,,,,,,,,,,,,,,,,,,,,,,,,,,,,,,,,,,,,,,,,,,,,,,,
0,76,76,82,1,,615046c5dc8d53b5ddf25d56,62c53a525cbfb4ed3c74f596,2022-07-06_09h32.32.486,Colour_Asymmetry_Pilot,2022.1.3,Win32,59.83366242,62c50e9c1127f2cd403a315f,,,,,,,,,,,,,,,,,,,,,,,,,,,,,,,,,,,,,,,,,,,,,,,,,,,,,,,,,,,,,,,,,,,,,,,,,,,,,,,,,,,,,,,,,,,,,,,,,,,,,,,,,,,,,,,,,,,,,,,,,,,,,,,,,,,,,,,,,,,,,,,,,,,,,,,,,,,,,,,,,,,
0,77,77,77,1,,615046c5dc8d53b5ddf25d56,62c53a525cbfb4ed3c74f596,2022-07-06_09h32.32.486,Colour_Asymmetry_Pilot,2022.1.3,Win32,59.83366242,62c50e9c1127f2cd403a315f,,,,,,,,,,,,,,,,,,,,,,,,,,,,,,,,,,,,,,,,,,,,,,,,,,,,,,,,,,,,,,,,,,,,,,,,,,,,,,,,,,,,,,,,,,,,,,,,,,,,,,,,,,,,,,,,,,,,,,,,,,,,,,,,,,,,,,,,,,,,,,,,,,,,,,,,,,,,,,,,,,,
0,78,78,88,1,,615046c5dc8d53b5ddf25d56,62c53a525cbfb4ed3c74f596,2022-07-06_09h32.32.486,Colour_Asymmetry_Pilot,2022.1.3,Win32,59.83366242,62c50e9c1127f2cd403a315f,,,,,,,,,,,,,,,,,,,,,,,,,,,,,,,,,,,,,,,,,,,,,,,,,,,,,,,,,,,,,,,,,,,,,,,,,,,,,,,,,,,,,,,,,,,,,,,,,,,,,,,,,,,,,,,,,,,,,,,,,,,,,,,,,,,,,,,,,,,,,,,,,,,,,,,,,,,,,,,,,,,
0,79,79,79,1,,615046c5dc8d53b5ddf25d56,62c53a525cbfb4ed3c74f596,2022-07-06_09h32.32.486,Colour_Asymmetry_Pilot,2022.1.3,Win32,59.83366242,62c50e9c1127f2cd403a315f,,,,,,,,,,,,,,,,,,,,,,,,,,,,,,,,,,,,,,,,,,,,,,,,,,,,,,,,,,,,,,,,,,,,,,,,,,,,,,,,,,,,,,,,,,,,,,,,,,,,,,,,,,,,,,,,,,,,,,,,,,,,,,,,,,,,,,,,,,,,,,,,,,,,,,,,,,,,,,,,,,,
0,80,80,16,1,,615046c5dc8d53b5ddf25d56,62c53a525cbfb4ed3c74f596,2022-07-06_09h32.32.486,Colour_Asymmetry_Pilot,2022.1.3,Win32,59.83366242,62c50e9c1127f2cd403a315f,,,,,,,,,,,,,,,,,,,,,,,,,,,,,,,,,,,,,,,,,,,,,,,,,,,,,,,,,,,,,,,,,,,,,,,,,,,,,,,,,,,,,,,,,,,,,,,,,,,,,,,,,,,,,,,,,,,,,,,,,,,,,,,,,,,,,,,,,,,,,,,,,,,,,,,,,,,,,,,,,,,
0,81,81,39,1,,615046c5dc8d53b5ddf25d56,62c53a525cbfb4ed3c74f596,2022-07-06_09h32.32.486,Colour_Asymmetry_Pilot,2022.1.3,Win32,59.83366242,62c50e9c1127f2cd403a315f,,,,,,,,,,,,,,,,,,,,,,,,,,,,,,,,,,,,,,,,,,,,,,,,,,,,,,,,,,,,,,,,,,,,,,,,,,,,,,,,,,,,,,,,,,,,,,,,,,,,,,,,,,,,,,,,,,,,,,,,,,,,,,,,,,,,,,,,,,,,,,,,,,,,,,,,,,,,,,,,,,,
0,82,82,59,1,,615046c5dc8d53b5ddf25d56,62c53a525cbfb4ed3c74f596,2022-07-06_09h32.32.486,Colour_Asymmetry_Pilot,2022.1.3,Win32,59.83366242,62c50e9c1127f2cd403a315f,,,,,,,,,,,,,,,,,,,,,,,,,,,,,,,,,,,,,,,,,,,,,,,,,,,,,,,,,,,,,,,,,,,,,,,,,,,,,,,,,,,,,,,,,,,,,,,,,,,,,,,,,,,,,,,,,,,,,,,,,,,,,,,,,,,,,,,,,,,,,,,,,,,,,,,,,,,,,,,,,,,
0,83,83,85,1,,615046c5dc8d53b5ddf25d56,62c53a525cbfb4ed3c74f596,2022-07-06_09h32.32.486,Colour_Asymmetry_Pilot,2022.1.3,Win32,59.83366242,62c50e9c1127f2cd403a315f,,,,,,,,,,,,,,,,,,,,,,,,,,,,,,,,,,,,,,,,,,,,,,,,,,,,,,,,,,,,,,,,,,,,,,,,,,,,,,,,,,,,,,,,,,,,,,,,,,,,,,,,,,,,,,,,,,,,,,,,,,,,,,,,,,,,,,,,,,,,,,,,,,,,,,,,,,,,,,,,,,,
0,84,84,44,1,,615046c5dc8d53b5ddf25d56,62c53a525cbfb4ed3c74f596,2022-07-06_09h32.32.486,Colour_Asymmetry_Pilot,2022.1.3,Win32,59.83366242,62c50e9c1127f2cd403a315f,,,,,,,,,,,,,,,,,,,,,,,,,,,,,,,,,,,,,,,,,,,,,,,,,,,,,,,,,,,,,,,,,,,,,,,,,,,,,,,,,,,,,,,,,,,,,,,,,,,,,,,,,,,,,,,,,,,,,,,,,,,,,,,,,,,,,,,,,,,,,,,,,,,,,,,,,,,,,,,,,,,
0,85,85,78,1,,615046c5dc8d53b5ddf25d56,62c53a525cbfb4ed3c74f596,2022-07-06_09h32.32.486,Colour_Asymmetry_Pilot,2022.1.3,Win32,59.83366242,62c50e9c1127f2cd403a315f,,,,,,,,,,,,,,,,,,,,,,,,,,,,,,,,,,,,,,,,,,,,,,,,,,,,,,,,,,,,,,,,,,,,,,,,,,,,,,,,,,,,,,,,,,,,,,,,,,,,,,,,,,,,,,,,,,,,,,,,,,,,,,,,,,,,,,,,,,,,,,,,,,,,,,,,,,,,,,,,,,,
0,86,86,46,1,,615046c5dc8d53b5ddf25d56,62c53a525cbfb4ed3c74f596,2022-07-06_09h32.32.486,Colour_Asymmetry_Pilot,2022.1.3,Win32,59.83366242,62c50e9c1127f2cd403a315f,,,,,,,,,,,,,,,,,,,,,,,,,,,,,,,,,,,,,,,,,,,,,,,,,,,,,,,,,,,,,,,,,,,,,,,,,,,,,,,,,,,,,,,,,,,,,,,,,,,,,,,,,,,,,,,,,,,,,,,,,,,,,,,,,,,,,,,,,,,,,,,,,,,,,,,,,,,,,,,,,,,
0,87,87,92,1,,615046c5dc8d53b5ddf25d56,62c53a525cbfb4ed3c74f596,2022-07-06_09h32.32.486,Colour_Asymmetry_Pilot,2022.1.3,Win32,59.83366242,62c50e9c1127f2cd403a315f,,,,,,,,,,,,,,,,,,,,,,,,,,,,,,,,,,,,,,,,,,,,,,,,,,,,,,,,,,,,,,,,,,,,,,,,,,,,,,,,,,,,,,,,,,,,,,,,,,,,,,,,,,,,,,,,,,,,,,,,,,,,,,,,,,,,,,,,,,,,,,,,,,,,,,,,,,,,,,,,,,,
0,88,88,4,1,,615046c5dc8d53b5ddf25d56,62c53a525cbfb4ed3c74f596,2022-07-06_09h32.32.486,Colour_Asymmetry_Pilot,2022.1.3,Win32,59.83366242,62c50e9c1127f2cd403a315f,,,,,,,,,,,,,,,,,,,,,,,,,,,,,,,,,,,,,,,,,,,,,,,,,,,,,,,,,,,,,,,,,,,,,,,,,,,,,,,,,,,,,,,,,,,,,,,,,,,,,,,,,,,,,,,,,,,,,,,,,,,,,,,,,,,,,,,,,,,,,,,,,,,,,,,,,,,,,,,,,,,
0,89,89,51,1,,615046c5dc8d53b5ddf25d56,62c53a525cbfb4ed3c74f596,2022-07-06_09h32.32.486,Colour_Asymmetry_Pilot,2022.1.3,Win32,59.83366242,62c50e9c1127f2cd403a315f,,,,,,,,,,,,,,,,,,,,,,,,,,,,,,,,,,,,,,,,,,,,,,,,,,,,,,,,,,,,,,,,,,,,,,,,,,,,,,,,,,,,,,,,,,,,,,,,,,,,,,,,,,,,,,,,,,,,,,,,,,,,,,,,,,,,,,,,,,,,,,,,,,,,,,,,,,,,,,,,,,,
0,90,90,34,1,,615046c5dc8d53b5ddf25d56,62c53a525cbfb4ed3c74f596,2022-07-06_09h32.32.486,Colour_Asymmetry_Pilot,2022.1.3,Win32,59.83366242,62c50e9c1127f2cd403a315f,,,,,,,,,,,,,,,,,,,,,,,,,,,,,,,,,,,,,,,,,,,,,,,,,,,,,,,,,,,,,,,,,,,,,,,,,,,,,,,,,,,,,,,,,,,,,,,,,,,,,,,,,,,,,,,,,,,,,,,,,,,,,,,,,,,,,,,,,,,,,,,,,,,,,,,,,,,,,,,,,,,
0,91,91,12,1,,615046c5dc8d53b5ddf25d56,62c53a525cbfb4ed3c74f596,2022-07-06_09h32.32.486,Colour_Asymmetry_Pilot,2022.1.3,Win32,59.83366242,62c50e9c1127f2cd403a315f,,,,,,,,,,,,,,,,,,,,,,,,,,,,,,,,,,,,,,,,,,,,,,,,,,,,,,,,,,,,,,,,,,,,,,,,,,,,,,,,,,,,,,,,,,,,,,,,,,,,,,,,,,,,,,,,,,,,,,,,,,,,,,,,,,,,,,,,,,,,,,,,,,,,,,,,,,,,,,,,,,,
0,92,92,5,1,,615046c5dc8d53b5ddf25d56,62c53a525cbfb4ed3c74f596,2022-07-06_09h32.32.486,Colour_Asymmetry_Pilot,2022.1.3,Win32,59.83366242,62c50e9c1127f2cd403a315f,,,,,,,,,,,,,,,,,,,,,,,,,,,,,,,,,,,,,,,,,,,,,,,,,,,,,,,,,,,,,,,,,,,,,,,,,,,,,,,,,,,,,,,,,,,,,,,,,,,,,,,,,,,,,,,,,,,,,,,,,,,,,,,,,,,,,,,,,,,,,,,,,,,,,,,,,,,,,,,,,,,
,,,,,,615046c5dc8d53b5ddf25d56,62c53a525cbfb4ed3c74f596,2022-07-06_09h32.32.486,Colour_Asymmetry_Pilot,2022.1.3,Win32,59.83366242,62c50e9c1127f2cd403a315f,0,0,0,55,1,fourthree,,,,,,,,,,,,,,,,,,,,,,,,,,,,,,,,,,,,,,,,,,,,,,,,,,,,,,,,,,,,,,,,,,,,,,,,,,,,,,,,,,,,,,,,,,,,,,,,,,,,,,,,,,,,,,,,,,,,,,,,,,,,,,,,,,,,,,,,,,,,,,,,,,,,,,,,,,,,,
,,,,,,615046c5dc8d53b5ddf25d56,62c53a525cbfb4ed3c74f596,2022-07-06_09h32.32.486,Colour_Asymmetry_Pilot,2022.1.3,Win32,59.83366242,62c50e9c1127f2cd403a315f,0,1,1,109,1,threefour,,,,,,,,,,,,,,,,,,,,,,,,,,,,,,,,,,,,,,,,,,,,,,,,,,,,,,,,,,,,,,,,,,,,,,,,,,,,,,,,,,,,,,,,,,,,,,,,,,,,,,,,,,,,,,,,,,,,,,,,,,,,,,,,,,,,,,,,,,,,,,,,,,,,,,,,,,,,,
,,,,,,615046c5dc8d53b5ddf25d56,62c53a525cbfb4ed3c74f596,2022-07-06_09h32.32.486,Colour_Asymmetry_Pilot,2022.1.3,Win32,59.83366242,62c50e9c1127f2cd403a315f,0,2,2,121,1,onethree,,,,,,,,,,,,,,,,,,,,,,,,,,,,,,,,,,,,,,,,,,,,,,,,,,,,,,,,,,,,,,,,,,,,,,,,,,,,,,,,,,,,,,,,,,,,,,,,,,,,,,,,,,,,,,,,,,,,,,,,,,,,,,,,,,,,,,,,,,,,,,,,,,,,,,,,,,,,,
,,,,,,615046c5dc8d53b5ddf25d56,62c53a525cbfb4ed3c74f596,2022-07-06_09h32.32.486,Colour_Asymmetry_Pilot,2022.1.3,Win32,59.83366242,62c50e9c1127f2cd403a315f,0,3,3,152,1,onetwo,,,,,,,,,,,,,,,,,,,,,,,,,,,,,,,,,,,,,,,,,,,,,,,,,,,,,,,,,,,,,,,,,,,,,,,,,,,,,,,,,,,,,,,,,,,,,,,,,,,,,,,,,,,,,,,,,,,,,,,,,,,,,,,,,,,,,,,,,,,,,,,,,,,,,,,,,,,,,
,,,,,,615046c5dc8d53b5ddf25d56,62c53a525cbfb4ed3c74f596,2022-07-06_09h32.32.486,Colour_Asymmetry_Pilot,2022.1.3,Win32,59.83366242,62c50e9c1127f2cd403a315f,0,4,4,52,1,threeone,,,,,,,,,,,,,,,,,,,,,,,,,,,,,,,,,,,,,,,,,,,,,,,,,,,,,,,,,,,,,,,,,,,,,,,,,,,,,,,,,,,,,,,,,,,,,,,,,,,,,,,,,,,,,,,,,,,,,,,,,,,,,,,,,,,,,,,,,,,,,,,,,,,,,,,,,,,,,
,,,,,,615046c5dc8d53b5ddf25d56,62c53a525cbfb4ed3c74f596,2022-07-06_09h32.32.486,Colour_Asymmetry_Pilot,2022.1.3,Win32,59.83366242,62c50e9c1127f2cd403a315f,0,5,5,17,1,onethree,,,,,,,,,,,,,,,,,,,,,,,,,,,,,,,,,,,,,,,,,,,,,,,,,,,,,,,,,,,,,,,,,,,,,,,,,,,,,,,,,,,,,,,,,,,,,,,,,,,,,,,,,,,,,,,,,,,,,,,,,,,,,,,,,,,,,,,,,,,,,,,,,,,,,,,,,,,,,
,,,,,,615046c5dc8d53b5ddf25d56,62c53a525cbfb4ed3c74f596,2022-07-06_09h32.32.486,Colour_Asymmetry_Pilot,2022.1.3,Win32,59.83366242,62c50e9c1127f2cd403a315f,0,6,6,126,1,fourtwo,,,,,,,,,,,,,,,,,,,,,,,,,,,,,,,,,,,,,,,,,,,,,,,,,,,,,,,,,,,,,,,,,,,,,,,,,,,,,,,,,,,,,,,,,,,,,,,,,,,,,,,,,,,,,,,,,,,,,,,,,,,,,,,,,,,,,,,,,,,,,,,,,,,,,,,,,,,,,
,,,,,,615046c5dc8d53b5ddf25d56,62c53a525cbfb4ed3c74f596,2022-07-06_09h32.32.486,Colour_Asymmetry_Pilot,2022.1.3,Win32,59.83366242,62c50e9c1127f2cd403a315f,0,7,7,49,1,onethree,,,,,,,,,,,,,,,,,,,,,,,,,,,,,,,,,,,,,,,,,,,,,,,,,,,,,,,,,,,,,,,,,,,,,,,,,,,,,,,,,,,,,,,,,,,,,,,,,,,,,,,,,,,,,,,,,,,,,,,,,,,,,,,,,,,,,,,,,,,,,,,,,,,,,,,,,,,,,
,,,,,,615046c5dc8d53b5ddf25d56,62c53a525cbfb4ed3c74f596,2022-07-06_09h32.32.486,Colour_Asymmetry_Pilot,2022.1.3,Win32,59.83366242,62c50e9c1127f2cd403a315f,0,8,8,31,1,fourthree,,,,,,,,,,,,,,,,,,,,,,,,,,,,,,,,,,,,,,,,,,,,,,,,,,,,,,,,,,,,,,,,,,,,,,,,,,,,,,,,,,,,,,,,,,,,,,,,,,,,,,,,,,,,,,,,,,,,,,,,,,,,,,,,,,,,,,,,,,,,,,,,,,,,,,,,,,,,,
,,,,,,615046c5dc8d53b5ddf25d56,62c53a525cbfb4ed3c74f596,2022-07-06_09h32.32.486,Colour_Asymmetry_Pilot,2022.1.3,Win32,59.83366242,62c50e9c1127f2cd403a315f,0,9,9,30,1,fourtwo,,,,,,,,,,,,,,,,,,,,,,,,,,,,,,,,,,,,,,,,,,,,,,,,,,,,,,,,,,,,,,,,,,,,,,,,,,,,,,,,,,,,,,,,,,,,,,,,,,,,,,,,,,,,,,,,,,,,,,,,,,,,,,,,,,,,,,,,,,,,,,,,,,,,,,,,,,,,,
,,,,,,615046c5dc8d53b5ddf25d56,62c53a525cbfb4ed3c74f596,2022-07-06_09h32.32.486,Colour_Asymmetry_Pilot,2022.1.3,Win32,59.83366242,62c50e9c1127f2cd403a315f,0,10,10,44,1,threeone,,,,,,,,,,,,,,,,,,,,,,,,,,,,,,,,,,,,,,,,,,,,,,,,,,,,,,,,,,,,,,,,,,,,,,,,,,,,,,,,,,,,,,,,,,,,,,,,,,,,,,,,,,,,,,,,,,,,,,,,,,,,,,,,,,,,,,,,,,,,,,,,,,,,,,,,,,,,,
,,,,,,615046c5dc8d53b5ddf25d56,62c53a525cbfb4ed3c74f596,2022-07-06_09h32.32.486,Colour_Asymmetry_Pilot,2022.1.3,Win32,59.83366242,62c50e9c1127f2cd403a315f,0,11,11,112,1,onetwo,,,,,,,,,,,,,,,,,,,,,,,,,,,,,,,,,,,,,,,,,,,,,,,,,,,,,,,,,,,,,,,,,,,,,,,,,,,,,,,,,,,,,,,,,,,,,,,,,,,,,,,,,,,,,,,,,,,,,,,,,,,,,,,,,,,,,,,,,,,,,,,,,,,,,,,,,,,,,
,,,,,,615046c5dc8d53b5ddf25d56,62c53a525cbfb4ed3c74f596,2022-07-06_09h32.32.486,Colour_Asymmetry_Pilot,2022.1.3,Win32,59.83366242,62c50e9c1127f2cd403a315f,0,12,12,10,1,twoone,,,,,,,,,,,,,,,,,,,,,,,,,,,,,,,,,,,,,,,,,,,,,,,,,,,,,,,,,,,,,,,,,,,,,,,,,,,,,,,,,,,,,,,,,,,,,,,,,,,,,,,,,,,,,,,,,,,,,,,,,,,,,,,,,,,,,,,,,,,,,,,,,,,,,,,,,,,,,
,,,,,,615046c5dc8d53b5ddf25d56,62c53a525cbfb4ed3c74f596,2022-07-06_09h32.32.486,Colour_Asymmetry_Pilot,2022.1.3,Win32,59.83366242,62c50e9c1127f2cd403a315f,0,13,13,95,1,fourthree,,,,,,,,,,,,,,,,,,,,,,,,,,,,,,,,,,,,,,,,,,,,,,,,,,,,,,,,,,,,,,,,,,,,,,,,,,,,,,,,,,,,,,,,,,,,,,,,,,,,,,,,,,,,,,,,,,,,,,,,,,,,,,,,,,,,,,,,,,,,,,,,,,,,,,,,,,,,,
,,,,,,615046c5dc8d53b5ddf25d56,62c53a525cbfb4ed3c74f596,2022-07-06_09h32.32.486,Colour_Asymmetry_Pilot,2022.1.3,Win32,59.83366242,62c50e9c1127f2cd403a315f,0,14,14,23,1,fourthree,,,,,,,,,,,,,,,,,,,,,,,,,,,,,,,,,,,,,,,,,,,,,,,,,,,,,,,,,,,,,,,,,,,,,,,,,,,,,,,,,,,,,,,,,,,,,,,,,,,,,,,,,,,,,,,,,,,,,,,,,,,,,,,,,,,,,,,,,,,,,,,,,,,,,,,,,,,,,
,,,,,,615046c5dc8d53b5ddf25d56,62c53a525cbfb4ed3c74f596,2022-07-06_09h32.32.486,Colour_Asymmetry_Pilot,2022.1.3,Win32,59.83366242,62c50e9c1127f2cd403a315f,0,15,15,116,1,threeone,,,,,,,,,,,,,,,,,,,,,,,,,,,,,,,,,,,,,,,,,,,,,,,,,,,,,,,,,,,,,,,,,,,,,,,,,,,,,,,,,,,,,,,,,,,,,,,,,,,,,,,,,,,,,,,,,,,,,,,,,,,,,,,,,,,,,,,,,,,,,,,,,,,,,,,,,,,,,
,,,,,,615046c5dc8d53b5ddf25d56,62c53a525cbfb4ed3c74f596,2022-07-06_09h32.32.486,Colour_Asymmetry_Pilot,2022.1.3,Win32,59.83366242,62c50e9c1127f2cd403a315f,0,16,16,8,1,onetwo,,,,,,,,,,,,,,,,,,,,,,,,,,,,,,,,,,,,,,,,,,,,,,,,,,,,,,,,,,,,,,,,,,,,,,,,,,,,,,,,,,,,,,,,,,,,,,,,,,,,,,,,,,,,,,,,,,,,,,,,,,,,,,,,,,,,,,,,,,,,,,,,,,,,,,,,,,,,,
,,,,,,615046c5dc8d53b5ddf25d56,62c53a525cbfb4ed3c74f596,2022-07-06_09h32.32.486,Colour_Asymmetry_Pilot,2022.1.3,Win32,59.83366242,62c50e9c1127f2cd403a315f,0,17,17,148,1,threeone,,,,,,,,,,,,,,,,,,,,,,,,,,,,,,,,,,,,,,,,,,,,,,,,,,,,,,,,,,,,,,,,,,,,,,,,,,,,,,,,,,,,,,,,,,,,,,,,,,,,,,,,,,,,,,,,,,,,,,,,,,,,,,,,,,,,,,,,,,,,,,,,,,,,,,,,,,,,,
,,,,,,615046c5dc8d53b5ddf25d56,62c53a525cbfb4ed3c74f596,2022-07-06_09h32.32.486,Colour_Asymmetry_Pilot,2022.1.3,Win32,59.83366242,62c50e9c1127f2cd403a315f,0,18,18,21,1,threefour,,,,,,,,,,,,,,,,,,,,,,,,,,,,,,,,,,,,,,,,,,,,,,,,,,,,,,,,,,,,,,,,,,,,,,,,,,,,,,,,,,,,,,,,,,,,,,,,,,,,,,,,,,,,,,,,,,,,,,,,,,,,,,,,,,,,,,,,,,,,,,,,,,,,,,,,,,,,,
,,,,,,615046c5dc8d53b5ddf25d56,62c53a525cbfb4ed3c74f596,2022-07-06_09h32.32.486,Colour_Asymmetry_Pilot,2022.1.3,Win32,59.83366242,62c50e9c1127f2cd403a315f,0,19,19,134,1,fourtwo,,,,,,,,,,,,,,,,,,,,,,,,,,,,,,,,,,,,,,,,,,,,,,,,,,,,,,,,,,,,,,,,,,,,,,,,,,,,,,,,,,,,,,,,,,,,,,,,,,,,,,,,,,,,,,,,,,,,,,,,,,,,,,,,,,,,,,,,,,,,,,,,,,,,,,,,,,,,,
,,,,,,615046c5dc8d53b5ddf25d56,62c53a525cbfb4ed3c74f596,2022-07-06_09h32.32.486,Colour_Asymmetry_Pilot,2022.1.3,Win32,59.83366242,62c50e9c1127f2cd403a315f,0,20,20,86,1,fourtwo,,,,,,,,,,,,,,,,,,,,,,,,,,,,,,,,,,,,,,,,,,,,,,,,,,,,,,,,,,,,,,,,,,,,,,,,,,,,,,,,,,,,,,,,,,,,,,,,,,,,,,,,,,,,,,,,,,,,,,,,,,,,,,,,,,,,,,,,,,,,,,,,,,,,,,,,,,,,,
,,,,,,615046c5dc8d53b5ddf25d56,62c53a525cbfb4ed3c74f596,2022-07-06_09h32.32.486,Colour_Asymmetry_Pilot,2022.1.3,Win32,59.83366242,62c50e9c1127f2cd403a315f,0,21,21,16,1,onetwo,,,,,,,,,,,,,,,,,,,,,,,,,,,,,,,,,,,,,,,,,,,,,,,,,,,,,,,,,,,,,,,,,,,,,,,,,,,,,,,,,,,,,,,,,,,,,,,,,,,,,,,,,,,,,,,,,,,,,,,,,,,,,,,,,,,,,,,,,,,,,,,,,,,,,,,,,,,,,
,,,,,,615046c5dc8d53b5ddf25d56,62c53a525cbfb4ed3c74f596,2022-07-06_09h32.32.486,Colour_Asymmetry_Pilot,2022.1.3,Win32,59.83366242,62c50e9c1127f2cd403a315f,0,22,22,135,1,fourthree,,,,,,,,,,,,,,,,,,,,,,,,,,,,,,,,,,,,,,,,,,,,,,,,,,,,,,,,,,,,,,,,,,,,,,,,,,,,,,,,,,,,,,,,,,,,,,,,,,,,,,,,,,,,,,,,,,,,,,,,,,,,,,,,,,,,,,,,,,,,,,,,,,,,,,,,,,,,,
,,,,,,615046c5dc8d53b5ddf25d56,62c53a525cbfb4ed3c74f596,2022-07-06_09h32.32.486,Colour_Asymmetry_Pilot,2022.1.3,Win32,59.83366242,62c50e9c1127f2cd403a315f,0,23,23,155,1,twofour,,,,,,,,,,,,,,,,,,,,,,,,,,,,,,,,,,,,,,,,,,,,,,,,,,,,,,,,,,,,,,,,,,,,,,,,,,,,,,,,,,,,,,,,,,,,,,,,,,,,,,,,,,,,,,,,,,,,,,,,,,,,,,,,,,,,,,,,,,,,,,,,,,,,,,,,,,,,,
,,,,,,615046c5dc8d53b5ddf25d56,62c53a525cbfb4ed3c74f596,2022-07-06_09h32.32.486,Colour_Asymmetry_Pilot,2022.1.3,Win32,59.83366242,62c50e9c1127f2cd403a315f,0,24,24,115,1,twofour,,,,,,,,,,,,,,,,,,,,,,,,,,,,,,,,,,,,,,,,,,,,,,,,,,,,,,,,,,,,,,,,,,,,,,,,,,,,,,,,,,,,,,,,,,,,,,,,,,,,,,,,,,,,,,,,,,,,,,,,,,,,,,,,,,,,,,,,,,,,,,,,,,,,,,,,,,,,,
,,,,,,615046c5dc8d53b5ddf25d56,62c53a525cbfb4ed3c74f596,2022-07-06_09h32.32.486,Colour_Asymmetry_Pilot,2022.1.3,Win32,59.83366242,62c50e9c1127f2cd403a315f,0,25,25,51,1,twofour,,,,,,,,,,,,,,,,,,,,,,,,,,,,,,,,,,,,,,,,,,,,,,,,,,,,,,,,,,,,,,,,,,,,,,,,,,,,,,,,,,,,,,,,,,,,,,,,,,,,,,,,,,,,,,,,,,,,,,,,,,,,,,,,,,,,,,,,,,,,,,,,,,,,,,,,,,,,,
,,,,,,615046c5dc8d53b5ddf25d56,62c53a525cbfb4ed3c74f596,2022-07-06_09h32.32.486,Colour_Asymmetry_Pilot,2022.1.3,Win32,59.83366242,62c50e9c1127f2cd403a315f,0,26,26,160,1,onetwo,,,,,,,,,,,,,,,,,,,,,,,,,,,,,,,,,,,,,,,,,,,,,,,,,,,,,,,,,,,,,,,,,,,,,,,,,,,,,,,,,,,,,,,,,,,,,,,,,,,,,,,,,,,,,,,,,,,,,,,,,,,,,,,,,,,,,,,,,,,,,,,,,,,,,,,,,,,,,
,,,,,,615046c5dc8d53b5ddf25d56,62c53a525cbfb4ed3c74f596,2022-07-06_09h32.32.486,Colour_Asymmetry_Pilot,2022.1.3,Win32,59.83366242,62c50e9c1127f2cd403a315f,0,27,27,100,1,threeone,,,,,,,,,,,,,,,,,,,,,,,,,,,,,,,,,,,,,,,,,,,,,,,,,,,,,,,,,,,,,,,,,,,,,,,,,,,,,,,,,,,,,,,,,,,,,,,,,,,,,,,,,,,,,,,,,,,,,,,,,,,,,,,,,,,,,,,,,,,,,,,,,,,,,,,,,,,,,
,,,,,,615046c5dc8d53b5ddf25d56,62c53a525cbfb4ed3c74f596,2022-07-06_09h32.32.486,Colour_Asymmetry_Pilot,2022.1.3,Win32,59.83366242,62c50e9c1127f2cd403a315f,0,28,28,37,1,threefour,,,,,,,,,,,,,,,,,,,,,,,,,,,,,,,,,,,,,,,,,,,,,,,,,,,,,,,,,,,,,,,,,,,,,,,,,,,,,,,,,,,,,,,,,,,,,,,,,,,,,,,,,,,,,,,,,,,,,,,,,,,,,,,,,,,,,,,,,,,,,,,,,,,,,,,,,,,,,
,,,,,,615046c5dc8d53b5ddf25d56,62c53a525cbfb4ed3c74f596,2022-07-06_09h32.32.486,Colour_Asymmetry_Pilot,2022.1.3,Win32,59.83366242,62c50e9c1127f2cd403a315f,0,29,29,91,1,twofour,,,,,,,,,,,,,,,,,,,,,,,,,,,,,,,,,,,,,,,,,,,,,,,,,,,,,,,,,,,,,,,,,,,,,,,,,,,,,,,,,,,,,,,,,,,,,,,,,,,,,,,,,,,,,,,,,,,,,,,,,,,,,,,,,,,,,,,,,,,,,,,,,,,,,,,,,,,,,
,,,,,,615046c5dc8d53b5ddf25d56,62c53a525cbfb4ed3c74f596,2022-07-06_09h32.32.486,Colour_Asymmetry_Pilot,2022.1.3,Win32,59.83366242,62c50e9c1127f2cd403a315f,0,30,30,111,1,fourthree,,,,,,,,,,,,,,,,,,,,,,,,,,,,,,,,,,,,,,,,,,,,,,,,,,,,,,,,,,,,,,,,,,,,,,,,,,,,,,,,,,,,,,,,,,,,,,,,,,,,,,,,,,,,,,,,,,,,,,,,,,,,,,,,,,,,,,,,,,,,,,,,,,,,,,,,,,,,,
,,,,,,615046c5dc8d53b5ddf25d56,62c53a525cbfb4ed3c74f596,2022-07-06_09h32.32.486,Colour_Asymmetry_Pilot,2022.1.3,Win32,59.83366242,62c50e9c1127f2cd403a315f,0,31,31,140,1,threeone,,,,,,,,,,,,,,,,,,,,,,,,,,,,,,,,,,,,,,,,,,,,,,,,,,,,,,,,,,,,,,,,,,,,,,,,,,,,,,,,,,,,,,,,,,,,,,,,,,,,,,,,,,,,,,,,,,,,,,,,,,,,,,,,,,,,,,,,,,,,,,,,,,,,,,,,,,,,,
,,,,,,615046c5dc8d53b5ddf25d56,62c53a525cbfb4ed3c74f596,2022-07-06_09h32.32.486,Colour_Asymmetry_Pilot,2022.1.3,Win32,59.83366242,62c50e9c1127f2cd403a315f,0,32,32,147,1,twofour,,,,,,,,,,,,,,,,,,,,,,,,,,,,,,,,,,,,,,,,,,,,,,,,,,,,,,,,,,,,,,,,,,,,,,,,,,,,,,,,,,,,,,,,,,,,,,,,,,,,,,,,,,,,,,,,,,,,,,,,,,,,,,,,,,,,,,,,,,,,,,,,,,,,,,,,,,,,,
,,,,,,615046c5dc8d53b5ddf25d56,62c53a525cbfb4ed3c74f596,2022-07-06_09h32.32.486,Colour_Asymmetry_Pilot,2022.1.3,Win32,59.83366242,62c50e9c1127f2cd403a315f,0,33,33,43,1,twofour,,,,,,,,,,,,,,,,,,,,,,,,,,,,,,,,,,,,,,,,,,,,,,,,,,,,,,,,,,,,,,,,,,,,,,,,,,,,,,,,,,,,,,,,,,,,,,,,,,,,,,,,,,,,,,,,,,,,,,,,,,,,,,,,,,,,,,,,,,,,,,,,,,,,,,,,,,,,,
,,,,,,615046c5dc8d53b5ddf25d56,62c53a525cbfb4ed3c74f596,2022-07-06_09h32.32.486,Colour_Asymmetry_Pilot,2022.1.3,Win32,59.83366242,62c50e9c1127f2cd403a315f,0,34,34,117,1,threefour,,,,,,,,,,,,,,,,,,,,,,,,,,,,,,,,,,,,,,,,,,,,,,,,,,,,,,,,,,,,,,,,,,,,,,,,,,,,,,,,,,,,,,,,,,,,,,,,,,,,,,,,,,,,,,,,,,,,,,,,,,,,,,,,,,,,,,,,,,,,,,,,,,,,,,,,,,,,,
,,,,,,615046c5dc8d53b5ddf25d56,62c53a525cbfb4ed3c74f596,2022-07-06_09h32.32.486,Colour_Asymmetry_Pilot,2022.1.3,Win32,59.83366242,62c50e9c1127f2cd403a315f,0,35,35,1,1,onethree,,,,,,,,,,,,,,,,,,,,,,,,,,,,,,,,,,,,,,,,,,,,,,,,,,,,,,,,,,,,,,,,,,,,,,,,,,,,,,,,,,,,,,,,,,,,,,,,,,,,,,,,,,,,,,,,,,,,,,,,,,,,,,,,,,,,,,,,,,,,,,,,,,,,,,,,,,,,,
,,,,,,615046c5dc8d53b5ddf25d56,62c53a525cbfb4ed3c74f596,2022-07-06_09h32.32.486,Colour_Asymmetry_Pilot,2022.1.3,Win32,59.83366242,62c50e9c1127f2cd403a315f,0,36,36,143,1,fourthree,,,,,,,,,,,,,,,,,,,,,,,,,,,,,,,,,,,,,,,,,,,,,,,,,,,,,,,,,,,,,,,,,,,,,,,,,,,,,,,,,,,,,,,,,,,,,,,,,,,,,,,,,,,,,,,,,,,,,,,,,,,,,,,,,,,,,,,,,,,,,,,,,,,,,,,,,,,,,
,,,,,,615046c5dc8d53b5ddf25d56,62c53a525cbfb4ed3c74f596,2022-07-06_09h32.32.486,Colour_Asymmetry_Pilot,2022.1.3,Win32,59.83366242,62c50e9c1127f2cd403a315f,0,37,37,83,1,twofour,,,,,,,,,,,,,,,,,,,,,,,,,,,,,,,,,,,,,,,,,,,,,,,,,,,,,,,,,,,,,,,,,,,,,,,,,,,,,,,,,,,,,,,,,,,,,,,,,,,,,,,,,,,,,,,,,,,,,,,,,,,,,,,,,,,,,,,,,,,,,,,,,,,,,,,,,,,,,
,,,,,,615046c5dc8d53b5ddf25d56,62c53a525cbfb4ed3c74f596,2022-07-06_09h32.32.486,Colour_Asymmetry_Pilot,2022.1.3,Win32,59.83366242,62c50e9c1127f2cd403a315f,0,38,38,80,1,onetwo,,,,,,,,,,,,,,,,,,,,,,,,,,,,,,,,,,,,,,,,,,,,,,,,,,,,,,,,,,,,,,,,,,,,,,,,,,,,,,,,,,,,,,,,,,,,,,,,,,,,,,,,,,,,,,,,,,,,,,,,,,,,,,,,,,,,,,,,,,,,,,,,,,,,,,,,,,,,,
,,,,,,615046c5dc8d53b5ddf25d56,62c53a525cbfb4ed3c74f596,2022-07-06_09h32.32.486,Colour_Asymmetry_Pilot,2022.1.3,Win32,59.83366242,62c50e9c1127f2cd403a315f,0,39,39,120,1,onetwo,,,,,,,,,,,,,,,,,,,,,,,,,,,,,,,,,,,,,,,,,,,,,,,,,,,,,,,,,,,,,,,,,,,,,,,,,,,,,,,,,,,,,,,,,,,,,,,,,,,,,,,,,,,,,,,,,,,,,,,,,,,,,,,,,,,,,,,,,,,,,,,,,,,,,,,,,,,,,
,,,,,,615046c5dc8d53b5ddf25d56,62c53a525cbfb4ed3c74f596,2022-07-06_09h32.32.486,Colour_Asymmetry_Pilot,2022.1.3,Win32,59.83366242,62c50e9c1127f2cd403a315f,0,40,40,154,1,twoone,,,,,,,,,,,,,,,,,,,,,,,,,,,,,,,,,,,,,,,,,,,,,,,,,,,,,,,,,,,,,,,,,,,,,,,,,,,,,,,,,,,,,,,,,,,,,,,,,,,,,,,,,,,,,,,,,,,,,,,,,,,,,,,,,,,,,,,,,,,,,,,,,,,,,,,,,,,,,
,,,,,,615046c5dc8d53b5ddf25d56,62c53a525cbfb4ed3c74f596,2022-07-06_09h32.32.486,Colour_Asymmetry_Pilot,2022.1.3,Win32,59.83366242,62c50e9c1127f2cd403a315f,0,41,41,69,1,threefour,,,,,,,,,,,,,,,,,,,,,,,,,,,,,,,,,,,,,,,,,,,,,,,,,,,,,,,,,,,,,,,,,,,,,,,,,,,,,,,,,,,,,,,,,,,,,,,,,,,,,,,,,,,,,,,,,,,,,,,,,,,,,,,,,,,,,,,,,,,,,,,,,,,,,,,,,,,,,
,,,,,,615046c5dc8d53b5ddf25d56,62c53a525cbfb4ed3c74f596,2022-07-06_09h32.32.486,Colour_Asymmetry_Pilot,2022.1.3,Win32,59.83366242,62c50e9c1127f2cd403a315f,0,42,42,110,1,fourtwo,,,,,,,,,,,,,,,,,,,,,,,,,,,,,,,,,,,,,,,,,,,,,,,,,,,,,,,,,,,,,,,,,,,,,,,,,,,,,,,,,,,,,,,,,,,,,,,,,,,,,,,,,,,,,,,,,,,,,,,,,,,,,,,,,,,,,,,,,,,,,,,,,,,,,,,,,,,,,
,,,,,,615046c5dc8d53b5ddf25d56,62c53a525cbfb4ed3c74f596,2022-07-06_09h32.32.486,Colour_Asymmetry_Pilot,2022.1.3,Win32,59.83366242,62c50e9c1127f2cd403a315f,0,43,43,87,1,fourthree,,,,,,,,,,,,,,,,,,,,,,,,,,,,,,,,,,,,,,,,,,,,,,,,,,,,,,,,,,,,,,,,,,,,,,,,,,,,,,,,,,,,,,,,,,,,,,,,,,,,,,,,,,,,,,,,,,,,,,,,,,,,,,,,,,,,,,,,,,,,,,,,,,,,,,,,,,,,,
,,,,,,615046c5dc8d53b5ddf25d56,62c53a525cbfb4ed3c74f596,2022-07-06_09h32.32.486,Colour_Asymmetry_Pilot,2022.1.3,Win32,59.83366242,62c50e9c1127f2cd403a315f,0,44,44,74,1,twoone,,,,,,,,,,,,,,,,,,,,,,,,,,,,,,,,,,,,,,,,,,,,,,,,,,,,,,,,,,,,,,,,,,,,,,,,,,,,,,,,,,,,,,,,,,,,,,,,,,,,,,,,,,,,,,,,,,,,,,,,,,,,,,,,,,,,,,,,,,,,,,,,,,,,,,,,,,,,,
,,,,,,615046c5dc8d53b5ddf25d56,62c53a525cbfb4ed3c74f596,2022-07-06_09h32.32.486,Colour_Asymmetry_Pilot,2022.1.3,Win32,59.83366242,62c50e9c1127f2cd403a315f,0,45,45,59,1,twofour,,,,,,,,,,,,,,,,,,,,,,,,,,,,,,,,,,,,,,,,,,,,,,,,,,,,,,,,,,,,,,,,,,,,,,,,,,,,,,,,,,,,,,,,,,,,,,,,,,,,,,,,,,,,,,,,,,,,,,,,,,,,,,,,,,,,,,,,,,,,,,,,,,,,,,,,,,,,,
,,,,,,615046c5dc8d53b5ddf25d56,62c53a525cbfb4ed3c74f596,2022-07-06_09h32.32.486,Colour_Asymmetry_Pilot,2022.1.3,Win32,59.83366242,62c50e9c1127f2cd403a315f,0,46,46,75,1,twofour,,,,,,,,,,,,,,,,,,,,,,,,,,,,,,,,,,,,,,,,,,,,,,,,,,,,,,,,,,,,,,,,,,,,,,,,,,,,,,,,,,,,,,,,,,,,,,,,,,,,,,,,,,,,,,,,,,,,,,,,,,,,,,,,,,,,,,,,,,,,,,,,,,,,,,,,,,,,,
,,,,,,615046c5dc8d53b5ddf25d56,62c53a525cbfb4ed3c74f596,2022-07-06_09h32.32.486,Colour_Asymmetry_Pilot,2022.1.3,Win32,59.83366242,62c50e9c1127f2cd403a315f,0,47,47,161,1,onethree,,,,,,,,,,,,,,,,,,,,,,,,,,,,,,,,,,,,,,,,,,,,,,,,,,,,,,,,,,,,,,,,,,,,,,,,,,,,,,,,,,,,,,,,,,,,,,,,,,,,,,,,,,,,,,,,,,,,,,,,,,,,,,,,,,,,,,,,,,,,,,,,,,,,,,,,,,,,,
,,,,,,615046c5dc8d53b5ddf25d56,62c53a525cbfb4ed3c74f596,2022-07-06_09h32.32.486,Colour_Asymmetry_Pilot,2022.1.3,Win32,59.83366242,62c50e9c1127f2cd403a315f,0,48,48,79,1,fourthree,,,,,,,,,,,,,,,,,,,,,,,,,,,,,,,,,,,,,,,,,,,,,,,,,,,,,,,,,,,,,,,,,,,,,,,,,,,,,,,,,,,,,,,,,,,,,,,,,,,,,,,,,,,,,,,,,,,,,,,,,,,,,,,,,,,,,,,,,,,,,,,,,,,,,,,,,,,,,
,,,,,,615046c5dc8d53b5ddf25d56,62c53a525cbfb4ed3c74f596,2022-07-06_09h32.32.486,Colour_Asymmetry_Pilot,2022.1.3,Win32,59.83366242,62c50e9c1127f2cd403a315f,0,49,49,24,1,onetwo,,,,,,,,,,,,,,,,,,,,,,,,,,,,,,,,,,,,,,,,,,,,,,,,,,,,,,,,,,,,,,,,,,,,,,,,,,,,,,,,,,,,,,,,,,,,,,,,,,,,,,,,,,,,,,,,,,,,,,,,,,,,,,,,,,,,,,,,,,,,,,,,,,,,,,,,,,,,,
,,,,,,615046c5dc8d53b5ddf25d56,62c53a525cbfb4ed3c74f596,2022-07-06_09h32.32.486,Colour_Asymmetry_Pilot,2022.1.3,Win32,59.83366242,62c50e9c1127f2cd403a315f,0,50,50,142,1,fourtwo,,,,,,,,,,,,,,,,,,,,,,,,,,,,,,,,,,,,,,,,,,,,,,,,,,,,,,,,,,,,,,,,,,,,,,,,,,,,,,,,,,,,,,,,,,,,,,,,,,,,,,,,,,,,,,,,,,,,,,,,,,,,,,,,,,,,,,,,,,,,,,,,,,,,,,,,,,,,,
,,,,,,615046c5dc8d53b5ddf25d56,62c53a525cbfb4ed3c74f596,2022-07-06_09h32.32.486,Colour_Asymmetry_Pilot,2022.1.3,Win32,59.83366242,62c50e9c1127f2cd403a315f,0,51,51,96,1,onetwo,,,,,,,,,,,,,,,,,,,,,,,,,,,,,,,,,,,,,,,,,,,,,,,,,,,,,,,,,,,,,,,,,,,,,,,,,,,,,,,,,,,,,,,,,,,,,,,,,,,,,,,,,,,,,,,,,,,,,,,,,,,,,,,,,,,,,,,,,,,,,,,,,,,,,,,,,,,,,
,,,,,,615046c5dc8d53b5ddf25d56,62c53a525cbfb4ed3c74f596,2022-07-06_09h32.32.486,Colour_Asymmetry_Pilot,2022.1.3,Win32,59.83366242,62c50e9c1127f2cd403a315f,0,52,52,131,1,twofour,,,,,,,,,,,,,,,,,,,,,,,,,,,,,,,,,,,,,,,,,,,,,,,,,,,,,,,,,,,,,,,,,,,,,,,,,,,,,,,,,,,,,,,,,,,,,,,,,,,,,,,,,,,,,,,,,,,,,,,,,,,,,,,,,,,,,,,,,,,,,,,,,,,,,,,,,,,,,
,,,,,,615046c5dc8d53b5ddf25d56,62c53a525cbfb4ed3c74f596,2022-07-06_09h32.32.486,Colour_Asymmetry_Pilot,2022.1.3,Win32,59.83366242,62c50e9c1127f2cd403a315f,0,53,53,27,1,twofour,,,,,,,,,,,,,,,,,,,,,,,,,,,,,,,,,,,,,,,,,,,,,,,,,,,,,,,,,,,,,,,,,,,,,,,,,,,,,,,,,,,,,,,,,,,,,,,,,,,,,,,,,,,,,,,,,,,,,,,,,,,,,,,,,,,,,,,,,,,,,,,,,,,,,,,,,,,,,
,,,,,,615046c5dc8d53b5ddf25d56,62c53a525cbfb4ed3c74f596,2022-07-06_09h32.32.486,Colour_Asymmetry_Pilot,2022.1.3,Win32,59.83366242,62c50e9c1127f2cd403a315f,0,54,54,104,1,onetwo,,,,,,,,,,,,,,,,,,,,,,,,,,,,,,,,,,,,,,,,,,,,,,,,,,,,,,,,,,,,,,,,,,,,,,,,,,,,,,,,,,,,,,,,,,,,,,,,,,,,,,,,,,,,,,,,,,,,,,,,,,,,,,,,,,,,,,,,,,,,,,,,,,,,,,,,,,,,,
,,,,,,615046c5dc8d53b5ddf25d56,62c53a525cbfb4ed3c74f596,2022-07-06_09h32.32.486,Colour_Asymmetry_Pilot,2022.1.3,Win32,59.83366242,62c50e9c1127f2cd403a315f,0,55,55,92,1,threeone,,,,,,,,,,,,,,,,,,,,,,,,,,,,,,,,,,,,,,,,,,,,,,,,,,,,,,,,,,,,,,,,,,,,,,,,,,,,,,,,,,,,,,,,,,,,,,,,,,,,,,,,,,,,,,,,,,,,,,,,,,,,,,,,,,,,,,,,,,,,,,,,,,,,,,,,,,,,,
,,,,,,615046c5dc8d53b5ddf25d56,62c53a525cbfb4ed3c74f596,2022-07-06_09h32.32.486,Colour_Asymmetry_Pilot,2022.1.3,Win32,59.83366242,62c50e9c1127f2cd403a315f,0,56,56,46,1,fourtwo,,,,,,,,,,,,,,,,,,,,,,,,,,,,,,,,,,,,,,,,,,,,,,,,,,,,,,,,,,,,,,,,,,,,,,,,,,,,,,,,,,,,,,,,,,,,,,,,,,,,,,,,,,,,,,,,,,,,,,,,,,,,,,,,,,,,,,,,,,,,,,,,,,,,,,,,,,,,,
,,,,,,615046c5dc8d53b5ddf25d56,62c53a525cbfb4ed3c74f596,2022-07-06_09h32.32.486,Colour_Asymmetry_Pilot,2022.1.3,Win32,59.83366242,62c50e9c1127f2cd403a315f,0,57,57,149,1,threefour,,,,,,,,,,,,,,,,,,,,,,,,,,,,,,,,,,,,,,,,,,,,,,,,,,,,,,,,,,,,,,,,,,,,,,,,,,,,,,,,,,,,,,,,,,,,,,,,,,,,,,,,,,,,,,,,,,,,,,,,,,,,,,,,,,,,,,,,,,,,,,,,,,,,,,,,,,,,,
,,,,,,615046c5dc8d53b5ddf25d56,62c53a525cbfb4ed3c74f596,2022-07-06_09h32.32.486,Colour_Asymmetry_Pilot,2022.1.3,Win32,59.83366242,62c50e9c1127f2cd403a315f,0,58,58,53,1,threefour,,,,,,,,,,,,,,,,,,,,,,,,,,,,,,,,,,,,,,,,,,,,,,,,,,,,,,,,,,,,,,,,,,,,,,,,,,,,,,,,,,,,,,,,,,,,,,,,,,,,,,,,,,,,,,,,,,,,,,,,,,,,,,,,,,,,,,,,,,,,,,,,,,,,,,,,,,,,,
,,,,,,615046c5dc8d53b5ddf25d56,62c53a525cbfb4ed3c74f596,2022-07-06_09h32.32.486,Colour_Asymmetry_Pilot,2022.1.3,Win32,59.83366242,62c50e9c1127f2cd403a315f,0,59,59,41,1,onethree,,,,,,,,,,,,,,,,,,,,,,,,,,,,,,,,,,,,,,,,,,,,,,,,,,,,,,,,,,,,,,,,,,,,,,,,,,,,,,,,,,,,,,,,,,,,,,,,,,,,,,,,,,,,,,,,,,,,,,,,,,,,,,,,,,,,,,,,,,,,,,,,,,,,,,,,,,,,,
,,,,,,615046c5dc8d53b5ddf25d56,62c53a525cbfb4ed3c74f596,2022-07-06_09h32.32.486,Colour_Asymmetry_Pilot,2022.1.3,Win32,59.83366242,62c50e9c1127f2cd403a315f,0,60,60,11,1,twofour,,,,,,,,,,,,,,,,,,,,,,,,,,,,,,,,,,,,,,,,,,,,,,,,,,,,,,,,,,,,,,,,,,,,,,,,,,,,,,,,,,,,,,,,,,,,,,,,,,,,,,,,,,,,,,,,,,,,,,,,,,,,,,,,,,,,,,,,,,,,,,,,,,,,,,,,,,,,,
,,,,,,615046c5dc8d53b5ddf25d56,62c53a525cbfb4ed3c74f596,2022-07-06_09h32.32.486,Colour_Asymmetry_Pilot,2022.1.3,Win32,59.83366242,62c50e9c1127f2cd403a315f,0,61,61,99,1,twofour,,,,,,,,,,,,,,,,,,,,,,,,,,,,,,,,,,,,,,,,,,,,,,,,,,,,,,,,,,,,,,,,,,,,,,,,,,,,,,,,,,,,,,,,,,,,,,,,,,,,,,,,,,,,,,,,,,,,,,,,,,,,,,,,,,,,,,,,,,,,,,,,,,,,,,,,,,,,,
,,,,,,615046c5dc8d53b5ddf25d56,62c53a525cbfb4ed3c74f596,2022-07-06_09h32.32.486,Colour_Asymmetry_Pilot,2022.1.3,Win32,59.83366242,62c50e9c1127f2cd403a315f,0,62,62,34,1,twoone,,,,,,,,,,,,,,,,,,,,,,,,,,,,,,,,,,,,,,,,,,,,,,,,,,,,,,,,,,,,,,,,,,,,,,,,,,,,,,,,,,,,,,,,,,,,,,,,,,,,,,,,,,,,,,,,,,,,,,,,,,,,,,,,,,,,,,,,,,,,,,,,,,,,,,,,,,,,,
,,,,,,615046c5dc8d53b5ddf25d56,62c53a525cbfb4ed3c74f596,2022-07-06_09h32.32.486,Colour_Asymmetry_Pilot,2022.1.3,Win32,59.83366242,62c50e9c1127f2cd403a315f,0,63,63,105,1,onethree,,,,,,,,,,,,,,,,,,,,,,,,,,,,,,,,,,,,,,,,,,,,,,,,,,,,,,,,,,,,,,,,,,,,,,,,,,,,,,,,,,,,,,,,,,,,,,,,,,,,,,,,,,,,,,,,,,,,,,,,,,,,,,,,,,,,,,,,,,,,,,,,,,,,,,,,,,,,,
,,,,,,615046c5dc8d53b5ddf25d56,62c53a525cbfb4ed3c74f596,2022-07-06_09h32.32.486,Colour_Asymmetry_Pilot,2022.1.3,Win32,59.83366242,62c50e9c1127f2cd403a315f,0,64,64,144,1,onetwo,,,,,,,,,,,,,,,,,,,,,,,,,,,,,,,,,,,,,,,,,,,,,,,,,,,,,,,,,,,,,,,,,,,,,,,,,,,,,,,,,,,,,,,,,,,,,,,,,,,,,,,,,,,,,,,,,,,,,,,,,,,,,,,,,,,,,,,,,,,,,,,,,,,,,,,,,,,,,
,,,,,,615046c5dc8d53b5ddf25d56,62c53a525cbfb4ed3c74f596,2022-07-06_09h32.32.486,Colour_Asymmetry_Pilot,2022.1.3,Win32,59.83366242,62c50e9c1127f2cd403a315f,0,65,65,156,1,threeone,,,,,,,,,,,,,,,,,,,,,,,,,,,,,,,,,,,,,,,,,,,,,,,,,,,,,,,,,,,,,,,,,,,,,,,,,,,,,,,,,,,,,,,,,,,,,,,,,,,,,,,,,,,,,,,,,,,,,,,,,,,,,,,,,,,,,,,,,,,,,,,,,,,,,,,,,,,,,
,,,,,,615046c5dc8d53b5ddf25d56,62c53a525cbfb4ed3c74f596,2022-07-06_09h32.32.486,Colour_Asymmetry_Pilot,2022.1.3,Win32,59.83366242,62c50e9c1127f2cd403a315f,0,66,66,124,1,threeone,,,,,,,,,,,,,,,,,,,,,,,,,,,,,,,,,,,,,,,,,,,,,,,,,,,,,,,,,,,,,,,,,,,,,,,,,,,,,,,,,,,,,,,,,,,,,,,,,,,,,,,,,,,,,,,,,,,,,,,,,,,,,,,,,,,,,,,,,,,,,,,,,,,,,,,,,,,,,
,,,,,,615046c5dc8d53b5ddf25d56,62c53a525cbfb4ed3c74f596,2022-07-06_09h32.32.486,Colour_Asymmetry_Pilot,2022.1.3,Win32,59.83366242,62c50e9c1127f2cd403a315f,0,67,67,123,1,twofour,,,,,,,,,,,,,,,,,,,,,,,,,,,,,,,,,,,,,,,,,,,,,,,,,,,,,,,,,,,,,,,,,,,,,,,,,,,,,,,,,,,,,,,,,,,,,,,,,,,,,,,,,,,,,,,,,,,,,,,,,,,,,,,,,,,,,,,,,,,,,,,,,,,,,,,,,,,,,
,,,,,,615046c5dc8d53b5ddf25d56,62c53a525cbfb4ed3c74f596,2022-07-06_09h32.32.486,Colour_Asymmetry_Pilot,2022.1.3,Win32,59.83366242,62c50e9c1127f2cd403a315f,0,68,68,35,1,twofour,,,,,,,,,,,,,,,,,,,,,,,,,,,,,,,,,,,,,,,,,,,,,,,,,,,,,,,,,,,,,,,,,,,,,,,,,,,,,,,,,,,,,,,,,,,,,,,,,,,,,,,,,,,,,,,,,,,,,,,,,,,,,,,,,,,,,,,,,,,,,,,,,,,,,,,,,,,,,
,,,,,,615046c5dc8d53b5ddf25d56,62c53a525cbfb4ed3c74f596,2022-07-06_09h32.32.486,Colour_Asymmetry_Pilot,2022.1.3,Win32,59.83366242,62c50e9c1127f2cd403a315f,0,69,69,153,1,onethree,,,,,,,,,,,,,,,,,,,,,,,,,,,,,,,,,,,,,,,,,,,,,,,,,,,,,,,,,,,,,,,,,,,,,,,,,,,,,,,,,,,,,,,,,,,,,,,,,,,,,,,,,,,,,,,,,,,,,,,,,,,,,,,,,,,,,,,,,,,,,,,,,,,,,,,,,,,,,
,,,,,,615046c5dc8d53b5ddf25d56,62c53a525cbfb4ed3c74f596,2022-07-06_09h32.32.486,Colour_Asymmetry_Pilot,2022.1.3,Win32,59.83366242,62c50e9c1127f2cd403a315f,0,70,70,4,1,threeone,,,,,,,,,,,,,,,,,,,,,,,,,,,,,,,,,,,,,,,,,,,,,,,,,,,,,,,,,,,,,,,,,,,,,,,,,,,,,,,,,,,,,,,,,,,,,,,,,,,,,,,,,,,,,,,,,,,,,,,,,,,,,,,,,,,,,,,,,,,,,,,,,,,,,,,,,,,,,
,,,,,,615046c5dc8d53b5ddf25d56,62c53a525cbfb4ed3c74f596,2022-07-06_09h32.32.486,Colour_Asymmetry_Pilot,2022.1.3,Win32,59.83366242,62c50e9c1127f2cd403a315f,0,71,71,14,1,fourtwo,,,,,,,,,,,,,,,,,,,,,,,,,,,,,,,,,,,,,,,,,,,,,,,,,,,,,,,,,,,,,,,,,,,,,,,,,,,,,,,,,,,,,,,,,,,,,,,,,,,,,,,,,,,,,,,,,,,,,,,,,,,,,,,,,,,,,,,,,,,,,,,,,,,,,,,,,,,,,
,,,,,,615046c5dc8d53b5ddf25d56,62c53a525cbfb4ed3c74f596,2022-07-06_09h32.32.486,Colour_Asymmetry_Pilot,2022.1.3,Win32,59.83366242,62c50e9c1127f2cd403a315f,0,72,72,12,1,threeone,,,,,,,,,,,,,,,,,,,,,,,,,,,,,,,,,,,,,,,,,,,,,,,,,,,,,,,,,,,,,,,,,,,,,,,,,,,,,,,,,,,,,,,,,,,,,,,,,,,,,,,,,,,,,,,,,,,,,,,,,,,,,,,,,,,,,,,,,,,,,,,,,,,,,,,,,,,,,
,,,,,,615046c5dc8d53b5ddf25d56,62c53a525cbfb4ed3c74f596,2022-07-06_09h32.32.486,Colour_Asymmetry_Pilot,2022.1.3,Win32,59.83366242,62c50e9c1127f2cd403a315f,0,73,73,101,1,threefour,,,,,,,,,,,,,,,,,,,,,,,,,,,,,,,,,,,,,,,,,,,,,,,,,,,,,,,,,,,,,,,,,,,,,,,,,,,,,,,,,,,,,,,,,,,,,,,,,,,,,,,,,,,,,,,,,,,,,,,,,,,,,,,,,,,,,,,,,,,,,,,,,,,,,,,,,,,,,
,,,,,,615046c5dc8d53b5ddf25d56,62c53a525cbfb4ed3c74f596,2022-07-06_09h32.32.486,Colour_Asymmetry_Pilot,2022.1.3,Win32,59.83366242,62c50e9c1127f2cd403a315f,0,74,74,68,1,threeone,,,,,,,,,,,,,,,,,,,,,,,,,,,,,,,,,,,,,,,,,,,,,,,,,,,,,,,,,,,,,,,,,,,,,,,,,,,,,,,,,,,,,,,,,,,,,,,,,,,,,,,,,,,,,,,,,,,,,,,,,,,,,,,,,,,,,,,,,,,,,,,,,,,,,,,,,,,,,
,,,,,,615046c5dc8d53b5ddf25d56,62c53a525cbfb4ed3c74f596,2022-07-06_09h32.32.486,Colour_Asymmetry_Pilot,2022.1.3,Win32,59.83366242,62c50e9c1127f2cd403a315f,0,75,75,57,1,onethree,,,,,,,,,,,,,,,,,,,,,,,,,,,,,,,,,,,,,,,,,,,,,,,,,,,,,,,,,,,,,,,,,,,,,,,,,,,,,,,,,,,,,,,,,,,,,,,,,,,,,,,,,,,,,,,,,,,,,,,,,,,,,,,,,,,,,,,,,,,,,,,,,,,,,,,,,,,,,
,,,,,,615046c5dc8d53b5ddf25d56,62c53a525cbfb4ed3c74f596,2022-07-06_09h32.32.486,Colour_Asymmetry_Pilot,2022.1.3,Win32,59.83366242,62c50e9c1127f2cd403a315f,0,76,76,151,1,fourthree,,,,,,,,,,,,,,,,,,,,,,,,,,,,,,,,,,,,,,,,,,,,,,,,,,,,,,,,,,,,,,,,,,,,,,,,,,,,,,,,,,,,,,,,,,,,,,,,,,,,,,,,,,,,,,,,,,,,,,,,,,,,,,,,,,,,,,,,,,,,,,,,,,,,,,,,,,,,,
,,,,,,615046c5dc8d53b5ddf25d56,62c53a525cbfb4ed3c74f596,2022-07-06_09h32.32.486,Colour_Asymmetry_Pilot,2022.1.3,Win32,59.83366242,62c50e9c1127f2cd403a315f,0,77,77,72,1,onetwo,,,,,,,,,,,,,,,,,,,,,,,,,,,,,,,,,,,,,,,,,,,,,,,,,,,,,,,,,,,,,,,,,,,,,,,,,,,,,,,,,,,,,,,,,,,,,,,,,,,,,,,,,,,,,,,,,,,,,,,,,,,,,,,,,,,,,,,,,,,,,,,,,,,,,,,,,,,,,
,,,,,,615046c5dc8d53b5ddf25d56,62c53a525cbfb4ed3c74f596,2022-07-06_09h32.32.486,Colour_Asymmetry_Pilot,2022.1.3,Win32,59.83366242,62c50e9c1127f2cd403a315f,0,78,78,76,1,threeone,,,,,,,,,,,,,,,,,,,,,,,,,,,,,,,,,,,,,,,,,,,,,,,,,,,,,,,,,,,,,,,,,,,,,,,,,,,,,,,,,,,,,,,,,,,,,,,,,,,,,,,,,,,,,,,,,,,,,,,,,,,,,,,,,,,,,,,,,,,,,,,,,,,,,,,,,,,,,
,,,,,,615046c5dc8d53b5ddf25d56,62c53a525cbfb4ed3c74f596,2022-07-06_09h32.32.486,Colour_Asymmetry_Pilot,2022.1.3,Win32,59.83366242,62c50e9c1127f2cd403a315f,0,79,79,2,1,twoone,,,,,,,,,,,,,,,,,,,,,,,,,,,,,,,,,,,,,,,,,,,,,,,,,,,,,,,,,,,,,,,,,,,,,,,,,,,,,,,,,,,,,,,,,,,,,,,,,,,,,,,,,,,,,,,,,,,,,,,,,,,,,,,,,,,,,,,,,,,,,,,,,,,,,,,,,,,,,
,,,,,,615046c5dc8d53b5ddf25d56,62c53a525cbfb4ed3c74f596,2022-07-06_09h32.32.486,Colour_Asymmetry_Pilot,2022.1.3,Win32,59.83366242,62c50e9c1127f2cd403a315f,0,80,80,26,1,twoone,,,,,,,,,,,,,,,,,,,,,,,,,,,,,,,,,,,,,,,,,,,,,,,,,,,,,,,,,,,,,,,,,,,,,,,,,,,,,,,,,,,,,,,,,,,,,,,,,,,,,,,,,,,,,,,,,,,,,,,,,,,,,,,,,,,,,,,,,,,,,,,,,,,,,,,,,,,,,
,,,,,,615046c5dc8d53b5ddf25d56,62c53a525cbfb4ed3c74f596,2022-07-06_09h32.32.486,Colour_Asymmetry_Pilot,2022.1.3,Win32,59.83366242,62c50e9c1127f2cd403a315f,0,81,81,0,1,onetwo,,,,,,,,,,,,,,,,,,,,,,,,,,,,,,,,,,,,,,,,,,,,,,,,,,,,,,,,,,,,,,,,,,,,,,,,,,,,,,,,,,,,,,,,,,,,,,,,,,,,,,,,,,,,,,,,,,,,,,,,,,,,,,,,,,,,,,,,,,,,,,,,,,,,,,,,,,,,,
,,,,,,615046c5dc8d53b5ddf25d56,62c53a525cbfb4ed3c74f596,2022-07-06_09h32.32.486,Colour_Asymmetry_Pilot,2022.1.3,Win32,59.83366242,62c50e9c1127f2cd403a315f,0,82,82,85,1,threefour,,,,,,,,,,,,,,,,,,,,,,,,,,,,,,,,,,,,,,,,,,,,,,,,,,,,,,,,,,,,,,,,,,,,,,,,,,,,,,,,,,,,,,,,,,,,,,,,,,,,,,,,,,,,,,,,,,,,,,,,,,,,,,,,,,,,,,,,,,,,,,,,,,,,,,,,,,,,,
,,,,,,615046c5dc8d53b5ddf25d56,62c53a525cbfb4ed3c74f596,2022-07-06_09h32.32.486,Colour_Asymmetry_Pilot,2022.1.3,Win32,59.83366242,62c50e9c1127f2cd403a315f,0,83,83,48,1,onetwo,,,,,,,,,,,,,,,,,,,,,,,,,,,,,,,,,,,,,,,,,,,,,,,,,,,,,,,,,,,,,,,,,,,,,,,,,,,,,,,,,,,,,,,,,,,,,,,,,,,,,,,,,,,,,,,,,,,,,,,,,,,,,,,,,,,,,,,,,,,,,,,,,,,,,,,,,,,,,
,,,,,,615046c5dc8d53b5ddf25d56,62c53a525cbfb4ed3c74f596,2022-07-06_09h32.32.486,Colour_Asymmetry_Pilot,2022.1.3,Win32,59.83366242,62c50e9c1127f2cd403a315f,0,84,84,54,1,fourtwo,,,,,,,,,,,,,,,,,,,,,,,,,,,,,,,,,,,,,,,,,,,,,,,,,,,,,,,,,,,,,,,,,,,,,,,,,,,,,,,,,,,,,,,,,,,,,,,,,,,,,,,,,,,,,,,,,,,,,,,,,,,,,,,,,,,,,,,,,,,,,,,,,,,,,,,,,,,,,
,,,,,,615046c5dc8d53b5ddf25d56,62c53a525cbfb4ed3c74f596,2022-07-06_09h32.32.486,Colour_Asymmetry_Pilot,2022.1.3,Win32,59.83366242,62c50e9c1127f2cd403a315f,0,85,85,108,1,threeone,,,,,,,,,,,,,,,,,,,,,,,,,,,,,,,,,,,,,,,,,,,,,,,,,,,,,,,,,,,,,,,,,,,,,,,,,,,,,,,,,,,,,,,,,,,,,,,,,,,,,,,,,,,,,,,,,,,,,,,,,,,,,,,,,,,,,,,,,,,,,,,,,,,,,,,,,,,,,
,,,,,,615046c5dc8d53b5ddf25d56,62c53a525cbfb4ed3c74f596,2022-07-06_09h32.32.486,Colour_Asymmetry_Pilot,2022.1.3,Win32,59.83366242,62c50e9c1127f2cd403a315f,0,86,86,33,1,onethree,,,,,,,,,,,,,,,,,,,,,,,,,,,,,,,,,,,,,,,,,,,,,,,,,,,,,,,,,,,,,,,,,,,,,,,,,,,,,,,,,,,,,,,,,,,,,,,,,,,,,,,,,,,,,,,,,,,,,,,,,,,,,,,,,,,,,,,,,,,,,,,,,,,,,,,,,,,,,
,,,,,,615046c5dc8d53b5ddf25d56,62c53a525cbfb4ed3c74f596,2022-07-06_09h32.32.486,Colour_Asymmetry_Pilot,2022.1.3,Win32,59.83366242,62c50e9c1127f2cd403a315f,0,87,87,106,1,twoone,,,,,,,,,,,,,,,,,,,,,,,,,,,,,,,,,,,,,,,,,,,,,,,,,,,,,,,,,,,,,,,,,,,,,,,,,,,,,,,,,,,,,,,,,,,,,,,,,,,,,,,,,,,,,,,,,,,,,,,,,,,,,,,,,,,,,,,,,,,,,,,,,,,,,,,,,,,,,
,,,,,,615046c5dc8d53b5ddf25d56,62c53a525cbfb4ed3c74f596,2022-07-06_09h32.32.486,Colour_Asymmetry_Pilot,2022.1.3,Win32,59.83366242,62c50e9c1127f2cd403a315f,0,88,88,13,1,threefour,,,,,,,,,,,,,,,,,,,,,,,,,,,,,,,,,,,,,,,,,,,,,,,,,,,,,,,,,,,,,,,,,,,,,,,,,,,,,,,,,,,,,,,,,,,,,,,,,,,,,,,,,,,,,,,,,,,,,,,,,,,,,,,,,,,,,,,,,,,,,,,,,,,,,,,,,,,,,
,,,,,,615046c5dc8d53b5ddf25d56,62c53a525cbfb4ed3c74f596,2022-07-06_09h32.32.486,Colour_Asymmetry_Pilot,2022.1.3,Win32,59.83366242,62c50e9c1127f2cd403a315f,0,89,89,7,1,fourthree,,,,,,,,,,,,,,,,,,,,,,,,,,,,,,,,,,,,,,,,,,,,,,,,,,,,,,,,,,,,,,,,,,,,,,,,,,,,,,,,,,,,,,,,,,,,,,,,,,,,,,,,,,,,,,,,,,,,,,,,,,,,,,,,,,,,,,,,,,,,,,,,,,,,,,,,,,,,,
,,,,,,615046c5dc8d53b5ddf25d56,62c53a525cbfb4ed3c74f596,2022-07-06_09h32.32.486,Colour_Asymmetry_Pilot,2022.1.3,Win32,59.83366242,62c50e9c1127f2cd403a315f,0,90,90,9,1,onethree,,,,,,,,,,,,,,,,,,,,,,,,,,,,,,,,,,,,,,,,,,,,,,,,,,,,,,,,,,,,,,,,,,,,,,,,,,,,,,,,,,,,,,,,,,,,,,,,,,,,,,,,,,,,,,,,,,,,,,,,,,,,,,,,,,,,,,,,,,,,,,,,,,,,,,,,,,,,,
,,,,,,615046c5dc8d53b5ddf25d56,62c53a525cbfb4ed3c74f596,2022-07-06_09h32.32.486,Colour_Asymmetry_Pilot,2022.1.3,Win32,59.83366242,62c50e9c1127f2cd403a315f,0,91,91,97,1,onethree,,,,,,,,,,,,,,,,,,,,,,,,,,,,,,,,,,,,,,,,,,,,,,,,,,,,,,,,,,,,,,,,,,,,,,,,,,,,,,,,,,,,,,,,,,,,,,,,,,,,,,,,,,,,,,,,,,,,,,,,,,,,,,,,,,,,,,,,,,,,,,,,,,,,,,,,,,,,,
,,,,,,615046c5dc8d53b5ddf25d56,62c53a525cbfb4ed3c74f596,2022-07-06_09h32.32.486,Colour_Asymmetry_Pilot,2022.1.3,Win32,59.83366242,62c50e9c1127f2cd403a315f,0,92,92,56,1,onetwo,,,,,,,,,,,,,,,,,,,,,,,,,,,,,,,,,,,,,,,,,,,,,,,,,,,,,,,,,,,,,,,,,,,,,,,,,,,,,,,,,,,,,,,,,,,,,,,,,,,,,,,,,,,,,,,,,,,,,,,,,,,,,,,,,,,,,,,,,,,,,,,,,,,,,,,,,,,,,
,,,,,,615046c5dc8d53b5ddf25d56,62c53a525cbfb4ed3c74f596,2022-07-06_09h32.32.486,Colour_Asymmetry_Pilot,2022.1.3,Win32,59.83366242,62c50e9c1127f2cd403a315f,0,93,93,136,1,onetwo,,,,,,,,,,,,,,,,,,,,,,,,,,,,,,,,,,,,,,,,,,,,,,,,,,,,,,,,,,,,,,,,,,,,,,,,,,,,,,,,,,,,,,,,,,,,,,,,,,,,,,,,,,,,,,,,,,,,,,,,,,,,,,,,,,,,,,,,,,,,,,,,,,,,,,,,,,,,,
,,,,,,615046c5dc8d53b5ddf25d56,62c53a525cbfb4ed3c74f596,2022-07-06_09h32.32.486,Colour_Asymmetry_Pilot,2022.1.3,Win32,59.83366242,62c50e9c1127f2cd403a315f,0,94,94,150,1,fourtwo,,,,,,,,,,,,,,,,,,,,,,,,,,,,,,,,,,,,,,,,,,,,,,,,,,,,,,,,,,,,,,,,,,,,,,,,,,,,,,,,,,,,,,,,,,,,,,,,,,,,,,,,,,,,,,,,,,,,,,,,,,,,,,,,,,,,,,,,,,,,,,,,,,,,,,,,,,,,,
,,,,,,615046c5dc8d53b5ddf25d56,62c53a525cbfb4ed3c74f596,2022-07-06_09h32.32.486,Colour_Asymmetry_Pilot,2022.1.3,Win32,59.83366242,62c50e9c1127f2cd403a315f,0,95,95,22,1,fourtwo,,,,,,,,,,,,,,,,,,,,,,,,,,,,,,,,,,,,,,,,,,,,,,,,,,,,,,,,,,,,,,,,,,,,,,,,,,,,,,,,,,,,,,,,,,,,,,,,,,,,,,,,,,,,,,,,,,,,,,,,,,,,,,,,,,,,,,,,,,,,,,,,,,,,,,,,,,,,,
,,,,,,615046c5dc8d53b5ddf25d56,62c53a525cbfb4ed3c74f596,2022-07-06_09h32.32.486,Colour_Asymmetry_Pilot,2022.1.3,Win32,59.83366242,62c50e9c1127f2cd403a315f,0,96,96,90,1,twoone,,,,,,,,,,,,,,,,,,,,,,,,,,,,,,,,,,,,,,,,,,,,,,,,,,,,,,,,,,,,,,,,,,,,,,,,,,,,,,,,,,,,,,,,,,,,,,,,,,,,,,,,,,,,,,,,,,,,,,,,,,,,,,,,,,,,,,,,,,,,,,,,,,,,,,,,,,,,,
,,,,,,615046c5dc8d53b5ddf25d56,62c53a525cbfb4ed3c74f596,2022-07-06_09h32.32.486,Colour_Asymmetry_Pilot,2022.1.3,Win32,59.83366242,62c50e9c1127f2cd403a315f,0,97,97,118,1,fourtwo,,,,,,,,,,,,,,,,,,,,,,,,,,,,,,,,,,,,,,,,,,,,,,,,,,,,,,,,,,,,,,,,,,,,,,,,,,,,,,,,,,,,,,,,,,,,,,,,,,,,,,,,,,,,,,,,,,,,,,,,,,,,,,,,,,,,,,,,,,,,,,,,,,,,,,,,,,,,,
,,,,,,615046c5dc8d53b5ddf25d56,62c53a525cbfb4ed3c74f596,2022-07-06_09h32.32.486,Colour_Asymmetry_Pilot,2022.1.3,Win32,59.83366242,62c50e9c1127f2cd403a315f,0,98,98,107,1,twofour,,,,,,,,,,,,,,,,,,,,,,,,,,,,,,,,,,,,,,,,,,,,,,,,,,,,,,,,,,,,,,,,,,,,,,,,,,,,,,,,,,,,,,,,,,,,,,,,,,,,,,,,,,,,,,,,,,,,,,,,,,,,,,,,,,,,,,,,,,,,,,,,,,,,,,,,,,,,,
,,,,,,615046c5dc8d53b5ddf25d56,62c53a525cbfb4ed3c74f596,2022-07-06_09h32.32.486,Colour_Asymmetry_Pilot,2022.1.3,Win32,59.83366242,62c50e9c1127f2cd403a315f,0,99,99,39,1,fourthree,,,,,,,,,,,,,,,,,,,,,,,,,,,,,,,,,,,,,,,,,,,,,,,,,,,,,,,,,,,,,,,,,,,,,,,,,,,,,,,,,,,,,,,,,,,,,,,,,,,,,,,,,,,,,,,,,,,,,,,,,,,,,,,,,,,,,,,,,,,,,,,,,,,,,,,,,,,,,
,,,,,,615046c5dc8d53b5ddf25d56,62c53a525cbfb4ed3c74f596,2022-07-06_09h32.32.486,Colour_Asymmetry_Pilot,2022.1.3,Win32,59.83366242,62c50e9c1127f2cd403a315f,0,100,100,38,1,fourtwo,,,,,,,,,,,,,,,,,,,,,,,,,,,,,,,,,,,,,,,,,,,,,,,,,,,,,,,,,,,,,,,,,,,,,,,,,,,,,,,,,,,,,,,,,,,,,,,,,,,,,,,,,,,,,,,,,,,,,,,,,,,,,,,,,,,,,,,,,,,,,,,,,,,,,,,,,,,,,
,,,,,,615046c5dc8d53b5ddf25d56,62c53a525cbfb4ed3c74f596,2022-07-06_09h32.32.486,Colour_Asymmetry_Pilot,2022.1.3,Win32,59.83366242,62c50e9c1127f2cd403a315f,0,101,101,88,1,onetwo,,,,,,,,,,,,,,,,,,,,,,,,,,,,,,,,,,,,,,,,,,,,,,,,,,,,,,,,,,,,,,,,,,,,,,,,,,,,,,,,,,,,,,,,,,,,,,,,,,,,,,,,,,,,,,,,,,,,,,,,,,,,,,,,,,,,,,,,,,,,,,,,,,,,,,,,,,,,,
,,,,,,615046c5dc8d53b5ddf25d56,62c53a525cbfb4ed3c74f596,2022-07-06_09h32.32.486,Colour_Asymmetry_Pilot,2022.1.3,Win32,59.83366242,62c50e9c1127f2cd403a315f,0,102,102,65,1,onethree,,,,,,,,,,,,,,,,,,,,,,,,,,,,,,,,,,,,,,,,,,,,,,,,,,,,,,,,,,,,,,,,,,,,,,,,,,,,,,,,,,,,,,,,,,,,,,,,,,,,,,,,,,,,,,,,,,,,,,,,,,,,,,,,,,,,,,,,,,,,,,,,,,,,,,,,,,,,,
,,,,,,615046c5dc8d53b5ddf25d56,62c53a525cbfb4ed3c74f596,2022-07-06_09h32.32.486,Colour_Asymmetry_Pilot,2022.1.3,Win32,59.83366242,62c50e9c1127f2cd403a315f,0,103,103,20,1,threeone,,,,,,,,,,,,,,,,,,,,,,,,,,,,,,,,,,,,,,,,,,,,,,,,,,,,,,,,,,,,,,,,,,,,,,,,,,,,,,,,,,,,,,,,,,,,,,,,,,,,,,,,,,,,,,,,,,,,,,,,,,,,,,,,,,,,,,,,,,,,,,,,,,,,,,,,,,,,,
,,,,,,615046c5dc8d53b5ddf25d56,62c53a525cbfb4ed3c74f596,2022-07-06_09h32.32.486,Colour_Asymmetry_Pilot,2022.1.3,Win32,59.83366242,62c50e9c1127f2cd403a315f,0,104,104,60,1,threeone,,,,,,,,,,,,,,,,,,,,,,,,,,,,,,,,,,,,,,,,,,,,,,,,,,,,,,,,,,,,,,,,,,,,,,,,,,,,,,,,,,,,,,,,,,,,,,,,,,,,,,,,,,,,,,,,,,,,,,,,,,,,,,,,,,,,,,,,,,,,,,,,,,,,,,,,,,,,,
,,,,,,615046c5dc8d53b5ddf25d56,62c53a525cbfb4ed3c74f596,2022-07-06_09h32.32.486,Colour_Asymmetry_Pilot,2022.1.3,Win32,59.83366242,62c50e9c1127f2cd403a315f,0,105,105,67,1,twofour,,,,,,,,,,,,,,,,,,,,,,,,,,,,,,,,,,,,,,,,,,,,,,,,,,,,,,,,,,,,,,,,,,,,,,,,,,,,,,,,,,,,,,,,,,,,,,,,,,,,,,,,,,,,,,,,,,,,,,,,,,,,,,,,,,,,,,,,,,,,,,,,,,,,,,,,,,,,,
,,,,,,615046c5dc8d53b5ddf25d56,62c53a525cbfb4ed3c74f596,2022-07-06_09h32.32.486,Colour_Asymmetry_Pilot,2022.1.3,Win32,59.83366242,62c50e9c1127f2cd403a315f,0,106,106,113,1,onethree,,,,,,,,,,,,,,,,,,,,,,,,,,,,,,,,,,,,,,,,,,,,,,,,,,,,,,,,,,,,,,,,,,,,,,,,,,,,,,,,,,,,,,,,,,,,,,,,,,,,,,,,,,,,,,,,,,,,,,,,,,,,,,,,,,,,,,,,,,,,,,,,,,,,,,,,,,,,,
,,,,,,615046c5dc8d53b5ddf25d56,62c53a525cbfb4ed3c74f596,2022-07-06_09h32.32.486,Colour_Asymmetry_Pilot,2022.1.3,Win32,59.83366242,62c50e9c1127f2cd403a315f,0,107,107,28,1,threeone,,,,,,,,,,,,,,,,,,,,,,,,,,,,,,,,,,,,,,,,,,,,,,,,,,,,,,,,,,,,,,,,,,,,,,,,,,,,,,,,,,,,,,,,,,,,,,,,,,,,,,,,,,,,,,,,,,,,,,,,,,,,,,,,,,,,,,,,,,,,,,,,,,,,,,,,,,,,,
,,,,,,615046c5dc8d53b5ddf25d56,62c53a525cbfb4ed3c74f596,2022-07-06_09h32.32.486,Colour_Asymmetry_Pilot,2022.1.3,Win32,59.83366242,62c50e9c1127f2cd403a315f,0,108,108,137,1,onethree,,,,,,,,,,,,,,,,,,,,,,,,,,,,,,,,,,,,,,,,,,,,,,,,,,,,,,,,,,,,,,,,,,,,,,,,,,,,,,,,,,,,,,,,,,,,,,,,,,,,,,,,,,,,,,,,,,,,,,,,,,,,,,,,,,,,,,,,,,,,,,,,,,,,,,,,,,,,,
,,,,,,615046c5dc8d53b5ddf25d56,62c53a525cbfb4ed3c74f596,2022-07-06_09h32.32.486,Colour_Asymmetry_Pilot,2022.1.3,Win32,59.83366242,62c50e9c1127f2cd403a315f,0,109,109,15,1,fourthree,,,,,,,,,,,,,,,,,,,,,,,,,,,,,,,,,,,,,,,,,,,,,,,,,,,,,,,,,,,,,,,,,,,,,,,,,,,,,,,,,,,,,,,,,,,,,,,,,,,,,,,,,,,,,,,,,,,,,,,,,,,,,,,,,,,,,,,,,,,,,,,,,,,,,,,,,,,,,
,,,,,,615046c5dc8d53b5ddf25d56,62c53a525cbfb4ed3c74f596,2022-07-06_09h32.32.486,Colour_Asymmetry_Pilot,2022.1.3,Win32,59.83366242,62c50e9c1127f2cd403a315f,0,110,110,82,1,twoone,,,,,,,,,,,,,,,,,,,,,,,,,,,,,,,,,,,,,,,,,,,,,,,,,,,,,,,,,,,,,,,,,,,,,,,,,,,,,,,,,,,,,,,,,,,,,,,,,,,,,,,,,,,,,,,,,,,,,,,,,,,,,,,,,,,,,,,,,,,,,,,,,,,,,,,,,,,,,
,,,,,,615046c5dc8d53b5ddf25d56,62c53a525cbfb4ed3c74f596,2022-07-06_09h32.32.486,Colour_Asymmetry_Pilot,2022.1.3,Win32,59.83366242,62c50e9c1127f2cd403a315f,0,111,111,139,1,twofour,,,,,,,,,,,,,,,,,,,,,,,,,,,,,,,,,,,,,,,,,,,,,,,,,,,,,,,,,,,,,,,,,,,,,,,,,,,,,,,,,,,,,,,,,,,,,,,,,,,,,,,,,,,,,,,,,,,,,,,,,,,,,,,,,,,,,,,,,,,,,,,,,,,,,,,,,,,,,
,,,,,,615046c5dc8d53b5ddf25d56,62c53a525cbfb4ed3c74f596,2022-07-06_09h32.32.486,Colour_Asymmetry_Pilot,2022.1.3,Win32,59.83366242,62c50e9c1127f2cd403a315f,0,112,112,159,1,fourthree,,,,,,,,,,,,,,,,,,,,,,,,,,,,,,,,,,,,,,,,,,,,,,,,,,,,,,,,,,,,,,,,,,,,,,,,,,,,,,,,,,,,,,,,,,,,,,,,,,,,,,,,,,,,,,,,,,,,,,,,,,,,,,,,,,,,,,,,,,,,,,,,,,,,,,,,,,,,,
,,,,,,615046c5dc8d53b5ddf25d56,62c53a525cbfb4ed3c74f596,2022-07-06_09h32.32.486,Colour_Asymmetry_Pilot,2022.1.3,Win32,59.83366242,62c50e9c1127f2cd403a315f,0,113,113,84,1,threeone,,,,,,,,,,,,,,,,,,,,,,,,,,,,,,,,,,,,,,,,,,,,,,,,,,,,,,,,,,,,,,,,,,,,,,,,,,,,,,,,,,,,,,,,,,,,,,,,,,,,,,,,,,,,,,,,,,,,,,,,,,,,,,,,,,,,,,,,,,,,,,,,,,,,,,,,,,,,,
,,,,,,615046c5dc8d53b5ddf25d56,62c53a525cbfb4ed3c74f596,2022-07-06_09h32.32.486,Colour_Asymmetry_Pilot,2022.1.3,Win32,59.83366242,62c50e9c1127f2cd403a315f,0,114,114,64,1,onetwo,,,,,,,,,,,,,,,,,,,,,,,,,,,,,,,,,,,,,,,,,,,,,,,,,,,,,,,,,,,,,,,,,,,,,,,,,,,,,,,,,,,,,,,,,,,,,,,,,,,,,,,,,,,,,,,,,,,,,,,,,,,,,,,,,,,,,,,,,,,,,,,,,,,,,,,,,,,,,
,,,,,,615046c5dc8d53b5ddf25d56,62c53a525cbfb4ed3c74f596,2022-07-06_09h32.32.486,Colour_Asymmetry_Pilot,2022.1.3,Win32,59.83366242,62c50e9c1127f2cd403a315f,0,115,115,94,1,fourtwo,,,,,,,,,,,,,,,,,,,,,,,,,,,,,,,,,,,,,,,,,,,,,,,,,,,,,,,,,,,,,,,,,,,,,,,,,,,,,,,,,,,,,,,,,,,,,,,,,,,,,,,,,,,,,,,,,,,,,,,,,,,,,,,,,,,,,,,,,,,,,,,,,,,,,,,,,,,,,
,,,,,,615046c5dc8d53b5ddf25d56,62c53a525cbfb4ed3c74f596,2022-07-06_09h32.32.486,Colour_Asymmetry_Pilot,2022.1.3,Win32,59.83366242,62c50e9c1127f2cd403a315f,0,116,116,125,1,threefour,,,,,,,,,,,,,,,,,,,,,,,,,,,,,,,,,,,,,,,,,,,,,,,,,,,,,,,,,,,,,,,,,,,,,,,,,,,,,,,,,,,,,,,,,,,,,,,,,,,,,,,,,,,,,,,,,,,,,,,,,,,,,,,,,,,,,,,,,,,,,,,,,,,,,,,,,,,,,
,,,,,,615046c5dc8d53b5ddf25d56,62c53a525cbfb4ed3c74f596,2022-07-06_09h32.32.486,Colour_Asymmetry_Pilot,2022.1.3,Win32,59.83366242,62c50e9c1127f2cd403a315f,0,117,117,119,1,fourthree,,,,,,,,,,,,,,,,,,,,,,,,,,,,,,,,,,,,,,,,,,,,,,,,,,,,,,,,,,,,,,,,,,,,,,,,,,,,,,,,,,,,,,,,,,,,,,,,,,,,,,,,,,,,,,,,,,,,,,,,,,,,,,,,,,,,,,,,,,,,,,,,,,,,,,,,,,,,,
,,,,,,615046c5dc8d53b5ddf25d56,62c53a525cbfb4ed3c74f596,2022-07-06_09h32.32.486,Colour_Asymmetry_Pilot,2022.1.3,Win32,59.83366242,62c50e9c1127f2cd403a315f,0,118,118,66,1,twoone,,,,,,,,,,,,,,,,,,,,,,,,,,,,,,,,,,,,,,,,,,,,,,,,,,,,,,,,,,,,,,,,,,,,,,,,,,,,,,,,,,,,,,,,,,,,,,,,,,,,,,,,,,,,,,,,,,,,,,,,,,,,,,,,,,,,,,,,,,,,,,,,,,,,,,,,,,,,,
,,,,,,615046c5dc8d53b5ddf25d56,62c53a525cbfb4ed3c74f596,2022-07-06_09h32.32.486,Colour_Asymmetry_Pilot,2022.1.3,Win32,59.83366242,62c50e9c1127f2cd403a315f,0,119,119,61,1,threefour,,,,,,,,,,,,,,,,,,,,,,,,,,,,,,,,,,,,,,,,,,,,,,,,,,,,,,,,,,,,,,,,,,,,,,,,,,,,,,,,,,,,,,,,,,,,,,,,,,,,,,,,,,,,,,,,,,,,,,,,,,,,,,,,,,,,,,,,,,,,,,,,,,,,,,,,,,,,,
,,,,,,615046c5dc8d53b5ddf25d56,62c53a525cbfb4ed3c74f596,2022-07-06_09h32.32.486,Colour_Asymmetry_Pilot,2022.1.3,Win32,59.83366242,62c50e9c1127f2cd403a315f,0,120,120,128,1,onetwo,,,,,,,,,,,,,,,,,,,,,,,,,,,,,,,,,,,,,,,,,,,,,,,,,,,,,,,,,,,,,,,,,,,,,,,,,,,,,,,,,,,,,,,,,,,,,,,,,,,,,,,,,,,,,,,,,,,,,,,,,,,,,,,,,,,,,,,,,,,,,,,,,,,,,,,,,,,,,
,,,,,,615046c5dc8d53b5ddf25d56,62c53a525cbfb4ed3c74f596,2022-07-06_09h32.32.486,Colour_Asymmetry_Pilot,2022.1.3,Win32,59.83366242,62c50e9c1127f2cd403a315f,0,121,121,3,1,twofour,,,,,,,,,,,,,,,,,,,,,,,,,,,,,,,,,,,,,,,,,,,,,,,,,,,,,,,,,,,,,,,,,,,,,,,,,,,,,,,,,,,,,,,,,,,,,,,,,,,,,,,,,,,,,,,,,,,,,,,,,,,,,,,,,,,,,,,,,,,,,,,,,,,,,,,,,,,,,
,,,,,,615046c5dc8d53b5ddf25d56,62c53a525cbfb4ed3c74f596,2022-07-06_09h32.32.486,Colour_Asymmetry_Pilot,2022.1.3,Win32,59.83366242,62c50e9c1127f2cd403a315f,0,122,122,157,1,threefour,,,,,,,,,,,,,,,,,,,,,,,,,,,,,,,,,,,,,,,,,,,,,,,,,,,,,,,,,,,,,,,,,,,,,,,,,,,,,,,,,,,,,,,,,,,,,,,,,,,,,,,,,,,,,,,,,,,,,,,,,,,,,,,,,,,,,,,,,,,,,,,,,,,,,,,,,,,,,
,,,,,,615046c5dc8d53b5ddf25d56,62c53a525cbfb4ed3c74f596,2022-07-06_09h32.32.486,Colour_Asymmetry_Pilot,2022.1.3,Win32,59.83366242,62c50e9c1127f2cd403a315f,0,123,123,141,1,threefour,,,,,,,,,,,,,,,,,,,,,,,,,,,,,,,,,,,,,,,,,,,,,,,,,,,,,,,,,,,,,,,,,,,,,,,,,,,,,,,,,,,,,,,,,,,,,,,,,,,,,,,,,,,,,,,,,,,,,,,,,,,,,,,,,,,,,,,,,,,,,,,,,,,,,,,,,,,,,
,,,,,,615046c5dc8d53b5ddf25d56,62c53a525cbfb4ed3c74f596,2022-07-06_09h32.32.486,Colour_Asymmetry_Pilot,2022.1.3,Win32,59.83366242,62c50e9c1127f2cd403a315f,0,124,124,19,1,twofour,,,,,,,,,,,,,,,,,,,,,,,,,,,,,,,,,,,,,,,,,,,,,,,,,,,,,,,,,,,,,,,,,,,,,,,,,,,,,,,,,,,,,,,,,,,,,,,,,,,,,,,,,,,,,,,,,,,,,,,,,,,,,,,,,,,,,,,,,,,,,,,,,,,,,,,,,,,,,
,,,,,,615046c5dc8d53b5ddf25d56,62c53a525cbfb4ed3c74f596,2022-07-06_09h32.32.486,Colour_Asymmetry_Pilot,2022.1.3,Win32,59.83366242,62c50e9c1127f2cd403a315f,0,125,125,122,1,twoone,,,,,,,,,,,,,,,,,,,,,,,,,,,,,,,,,,,,,,,,,,,,,,,,,,,,,,,,,,,,,,,,,,,,,,,,,,,,,,,,,,,,,,,,,,,,,,,,,,,,,,,,,,,,,,,,,,,,,,,,,,,,,,,,,,,,,,,,,,,,,,,,,,,,,,,,,,,,,
,,,,,,615046c5dc8d53b5ddf25d56,62c53a525cbfb4ed3c74f596,2022-07-06_09h32.32.486,Colour_Asymmetry_Pilot,2022.1.3,Win32,59.83366242,62c50e9c1127f2cd403a315f,0,126,126,114,1,twoone,,,,,,,,,,,,,,,,,,,,,,,,,,,,,,,,,,,,,,,,,,,,,,,,,,,,,,,,,,,,,,,,,,,,,,,,,,,,,,,,,,,,,,,,,,,,,,,,,,,,,,,,,,,,,,,,,,,,,,,,,,,,,,,,,,,,,,,,,,,,,,,,,,,,,,,,,,,,,
,,,,,,615046c5dc8d53b5ddf25d56,62c53a525cbfb4ed3c74f596,2022-07-06_09h32.32.486,Colour_Asymmetry_Pilot,2022.1.3,Win32,59.83366242,62c50e9c1127f2cd403a315f,0,127,127,50,1,twoone,,,,,,,,,,,,,,,,,,,,,,,,,,,,,,,,,,,,,,,,,,,,,,,,,,,,,,,,,,,,,,,,,,,,,,,,,,,,,,,,,,,,,,,,,,,,,,,,,,,,,,,,,,,,,,,,,,,,,,,,,,,,,,,,,,,,,,,,,,,,,,,,,,,,,,,,,,,,,
,,,,,,615046c5dc8d53b5ddf25d56,62c53a525cbfb4ed3c74f596,2022-07-06_09h32.32.486,Colour_Asymmetry_Pilot,2022.1.3,Win32,59.83366242,62c50e9c1127f2cd403a315f,0,128,128,62,1,fourtwo,,,,,,,,,,,,,,,,,,,,,,,,,,,,,,,,,,,,,,,,,,,,,,,,,,,,,,,,,,,,,,,,,,,,,,,,,,,,,,,,,,,,,,,,,,,,,,,,,,,,,,,,,,,,,,,,,,,,,,,,,,,,,,,,,,,,,,,,,,,,,,,,,,,,,,,,,,,,,
,,,,,,615046c5dc8d53b5ddf25d56,62c53a525cbfb4ed3c74f596,2022-07-06_09h32.32.486,Colour_Asymmetry_Pilot,2022.1.3,Win32,59.83366242,62c50e9c1127f2cd403a315f,0,129,129,129,1,onethree,,,,,,,,,,,,,,,,,,,,,,,,,,,,,,,,,,,,,,,,,,,,,,,,,,,,,,,,,,,,,,,,,,,,,,,,,,,,,,,,,,,,,,,,,,,,,,,,,,,,,,,,,,,,,,,,,,,,,,,,,,,,,,,,,,,,,,,,,,,,,,,,,,,,,,,,,,,,,
,,,,,,615046c5dc8d53b5ddf25d56,62c53a525cbfb4ed3c74f596,2022-07-06_09h32.32.486,Colour_Asymmetry_Pilot,2022.1.3,Win32,59.83366242,62c50e9c1127f2cd403a315f,0,130,130,103,1,fourthree,,,,,,,,,,,,,,,,,,,,,,,,,,,,,,,,,,,,,,,,,,,,,,,,,,,,,,,,,,,,,,,,,,,,,,,,,,,,,,,,,,,,,,,,,,,,,,,,,,,,,,,,,,,,,,,,,,,,,,,,,,,,,,,,,,,,,,,,,,,,,,,,,,,,,,,,,,,,,
,,,,,,615046c5dc8d53b5ddf25d56,62c53a525cbfb4ed3c74f596,2022-07-06_09h32.32.486,Colour_Asymmetry_Pilot,2022.1.3,Win32,59.83366242,62c50e9c1127f2cd403a315f,0,131,131,25,1,onethree,,,,,,,,,,,,,,,,,,,,,,,,,,,,,,,,,,,,,,,,,,,,,,,,,,,,,,,,,,,,,,,,,,,,,,,,,,,,,,,,,,,,,,,,,,,,,,,,,,,,,,,,,,,,,,,,,,,,,,,,,,,,,,,,,,,,,,,,,,,,,,,,,,,,,,,,,,,,,
,,,,,,615046c5dc8d53b5ddf25d56,62c53a525cbfb4ed3c74f596,2022-07-06_09h32.32.486,Colour_Asymmetry_Pilot,2022.1.3,Win32,59.83366242,62c50e9c1127f2cd403a315f,0,132,132,58,1,twoone,,,,,,,,,,,,,,,,,,,,,,,,,,,,,,,,,,,,,,,,,,,,,,,,,,,,,,,,,,,,,,,,,,,,,,,,,,,,,,,,,,,,,,,,,,,,,,,,,,,,,,,,,,,,,,,,,,,,,,,,,,,,,,,,,,,,,,,,,,,,,,,,,,,,,,,,,,,,,
,,,,,,615046c5dc8d53b5ddf25d56,62c53a525cbfb4ed3c74f596,2022-07-06_09h32.32.486,Colour_Asymmetry_Pilot,2022.1.3,Win32,59.83366242,62c50e9c1127f2cd403a315f,0,133,133,73,1,onethree,,,,,,,,,,,,,,,,,,,,,,,,,,,,,,,,,,,,,,,,,,,,,,,,,,,,,,,,,,,,,,,,,,,,,,,,,,,,,,,,,,,,,,,,,,,,,,,,,,,,,,,,,,,,,,,,,,,,,,,,,,,,,,,,,,,,,,,,,,,,,,,,,,,,,,,,,,,,,
,,,,,,615046c5dc8d53b5ddf25d56,62c53a525cbfb4ed3c74f596,2022-07-06_09h32.32.486,Colour_Asymmetry_Pilot,2022.1.3,Win32,59.83366242,62c50e9c1127f2cd403a315f,0,134,134,42,1,twoone,,,,,,,,,,,,,,,,,,,,,,,,,,,,,,,,,,,,,,,,,,,,,,,,,,,,,,,,,,,,,,,,,,,,,,,,,,,,,,,,,,,,,,,,,,,,,,,,,,,,,,,,,,,,,,,,,,,,,,,,,,,,,,,,,,,,,,,,,,,,,,,,,,,,,,,,,,,,,
,,,,,,615046c5dc8d53b5ddf25d56,62c53a525cbfb4ed3c74f596,2022-07-06_09h32.32.486,Colour_Asymmetry_Pilot,2022.1.3,Win32,59.83366242,62c50e9c1127f2cd403a315f,0,135,135,77,1,threefour,,,,,,,,,,,,,,,,,,,,,,,,,,,,,,,,,,,,,,,,,,,,,,,,,,,,,,,,,,,,,,,,,,,,,,,,,,,,,,,,,,,,,,,,,,,,,,,,,,,,,,,,,,,,,,,,,,,,,,,,,,,,,,,,,,,,,,,,,,,,,,,,,,,,,,,,,,,,,
,,,,,,615046c5dc8d53b5ddf25d56,62c53a525cbfb4ed3c74f596,2022-07-06_09h32.32.486,Colour_Asymmetry_Pilot,2022.1.3,Win32,59.83366242,62c50e9c1127f2cd403a315f,0,136,136,32,1,onetwo,,,,,,,,,,,,,,,,,,,,,,,,,,,,,,,,,,,,,,,,,,,,,,,,,,,,,,,,,,,,,,,,,,,,,,,,,,,,,,,,,,,,,,,,,,,,,,,,,,,,,,,,,,,,,,,,,,,,,,,,,,,,,,,,,,,,,,,,,,,,,,,,,,,,,,,,,,,,,
,,,,,,615046c5dc8d53b5ddf25d56,62c53a525cbfb4ed3c74f596,2022-07-06_09h32.32.486,Colour_Asymmetry_Pilot,2022.1.3,Win32,59.83366242,62c50e9c1127f2cd403a315f,0,137,137,70,1,fourtwo,,,,,,,,,,,,,,,,,,,,,,,,,,,,,,,,,,,,,,,,,,,,,,,,,,,,,,,,,,,,,,,,,,,,,,,,,,,,,,,,,,,,,,,,,,,,,,,,,,,,,,,,,,,,,,,,,,,,,,,,,,,,,,,,,,,,,,,,,,,,,,,,,,,,,,,,,,,,,
,,,,,,615046c5dc8d53b5ddf25d56,62c53a525cbfb4ed3c74f596,2022-07-06_09h32.32.486,Colour_Asymmetry_Pilot,2022.1.3,Win32,59.83366242,62c50e9c1127f2cd403a315f,0,138,138,78,1,fourtwo,,,,,,,,,,,,,,,,,,,,,,,,,,,,,,,,,,,,,,,,,,,,,,,,,,,,,,,,,,,,,,,,,,,,,,,,,,,,,,,,,,,,,,,,,,,,,,,,,,,,,,,,,,,,,,,,,,,,,,,,,,,,,,,,,,,,,,,,,,,,,,,,,,,,,,,,,,,,,
,,,,,,615046c5dc8d53b5ddf25d56,62c53a525cbfb4ed3c74f596,2022-07-06_09h32.32.486,Colour_Asymmetry_Pilot,2022.1.3,Win32,59.83366242,62c50e9c1127f2cd403a315f,0,139,139,36,1,threeone,,,,,,,,,,,,,,,,,,,,,,,,,,,,,,,,,,,,,,,,,,,,,,,,,,,,,,,,,,,,,,,,,,,,,,,,,,,,,,,,,,,,,,,,,,,,,,,,,,,,,,,,,,,,,,,,,,,,,,,,,,,,,,,,,,,,,,,,,,,,,,,,,,,,,,,,,,,,,
,,,,,,615046c5dc8d53b5ddf25d56,62c53a525cbfb4ed3c74f596,2022-07-06_09h32.32.486,Colour_Asymmetry_Pilot,2022.1.3,Win32,59.83366242,62c50e9c1127f2cd403a315f,0,140,140,146,1,twoone,,,,,,,,,,,,,,,,,,,,,,,,,,,,,,,,,,,,,,,,,,,,,,,,,,,,,,,,,,,,,,,,,,,,,,,,,,,,,,,,,,,,,,,,,,,,,,,,,,,,,,,,,,,,,,,,,,,,,,,,,,,,,,,,,,,,,,,,,,,,,,,,,,,,,,,,,,,,,
,,,,,,615046c5dc8d53b5ddf25d56,62c53a525cbfb4ed3c74f596,2022-07-06_09h32.32.486,Colour_Asymmetry_Pilot,2022.1.3,Win32,59.83366242,62c50e9c1127f2cd403a315f,0,141,141,63,1,fourthree,,,,,,,,,,,,,,,,,,,,,,,,,,,,,,,,,,,,,,,,,,,,,,,,,,,,,,,,,,,,,,,,,,,,,,,,,,,,,,,,,,,,,,,,,,,,,,,,,,,,,,,,,,,,,,,,,,,,,,,,,,,,,,,,,,,,,,,,,,,,,,,,,,,,,,,,,,,,,
,,,,,,615046c5dc8d53b5ddf25d56,62c53a525cbfb4ed3c74f596,2022-07-06_09h32.32.486,Colour_Asymmetry_Pilot,2022.1.3,Win32,59.83366242,62c50e9c1127f2cd403a315f,0,142,142,81,1,onethree,,,,,,,,,,,,,,,,,,,,,,,,,,,,,,,,,,,,,,,,,,,,,,,,,,,,,,,,,,,,,,,,,,,,,,,,,,,,,,,,,,,,,,,,,,,,,,,,,,,,,,,,,,,,,,,,,,,,,,,,,,,,,,,,,,,,,,,,,,,,,,,,,,,,,,,,,,,,,
,,,,,,615046c5dc8d53b5ddf25d56,62c53a525cbfb4ed3c74f596,2022-07-06_09h32.32.486,Colour_Asymmetry_Pilot,2022.1.3,Win32,59.83366242,62c50e9c1127f2cd403a315f,0,143,143,29,1,threefour,,,,,,,,,,,,,,,,,,,,,,,,,,,,,,,,,,,,,,,,,,,,,,,,,,,,,,,,,,,,,,,,,,,,,,,,,,,,,,,,,,,,,,,,,,,,,,,,,,,,,,,,,,,,,,,,,,,,,,,,,,,,,,,,,,,,,,,,,,,,,,,,,,,,,,,,,,,,,
,,,,,,615046c5dc8d53b5ddf25d56,62c53a525cbfb4ed3c74f596,2022-07-06_09h32.32.486,Colour_Asymmetry_Pilot,2022.1.3,Win32,59.83366242,62c50e9c1127f2cd403a315f,0,144,144,6,1,fourtwo,,,,,,,,,,,,,,,,,,,,,,,,,,,,,,,,,,,,,,,,,,,,,,,,,,,,,,,,,,,,,,,,,,,,,,,,,,,,,,,,,,,,,,,,,,,,,,,,,,,,,,,,,,,,,,,,,,,,,,,,,,,,,,,,,,,,,,,,,,,,,,,,,,,,,,,,,,,,,
,,,,,,615046c5dc8d53b5ddf25d56,62c53a525cbfb4ed3c74f596,2022-07-06_09h32.32.486,Colour_Asymmetry_Pilot,2022.1.3,Win32,59.83366242,62c50e9c1127f2cd403a315f,0,145,145,127,1,fourthree,,,,,,,,,,,,,,,,,,,,,,,,,,,,,,,,,,,,,,,,,,,,,,,,,,,,,,,,,,,,,,,,,,,,,,,,,,,,,,,,,,,,,,,,,,,,,,,,,,,,,,,,,,,,,,,,,,,,,,,,,,,,,,,,,,,,,,,,,,,,,,,,,,,,,,,,,,,,,
,,,,,,615046c5dc8d53b5ddf25d56,62c53a525cbfb4ed3c74f596,2022-07-06_09h32.32.486,Colour_Asymmetry_Pilot,2022.1.3,Win32,59.83366242,62c50e9c1127f2cd403a315f,0,146,146,145,1,onethree,,,,,,,,,,,,,,,,,,,,,,,,,,,,,,,,,,,,,,,,,,,,,,,,,,,,,,,,,,,,,,,,,,,,,,,,,,,,,,,,,,,,,,,,,,,,,,,,,,,,,,,,,,,,,,,,,,,,,,,,,,,,,,,,,,,,,,,,,,,,,,,,,,,,,,,,,,,,,
,,,,,,615046c5dc8d53b5ddf25d56,62c53a525cbfb4ed3c74f596,2022-07-06_09h32.32.486,Colour_Asymmetry_Pilot,2022.1.3,Win32,59.83366242,62c50e9c1127f2cd403a315f,0,147,147,71,1,fourthree,,,,,,,,,,,,,,,,,,,,,,,,,,,,,,,,,,,,,,,,,,,,,,,,,,,,,,,,,,,,,,,,,,,,,,,,,,,,,,,,,,,,,,,,,,,,,,,,,,,,,,,,,,,,,,,,,,,,,,,,,,,,,,,,,,,,,,,,,,,,,,,,,,,,,,,,,,,,,
,,,,,,615046c5dc8d53b5ddf25d56,62c53a525cbfb4ed3c74f596,2022-07-06_09h32.32.486,Colour_Asymmetry_Pilot,2022.1.3,Win32,59.83366242,62c50e9c1127f2cd403a315f,0,148,148,133,1,threefour,,,,,,,,,,,,,,,,,,,,,,,,,,,,,,,,,,,,,,,,,,,,,,,,,,,,,,,,,,,,,,,,,,,,,,,,,,,,,,,,,,,,,,,,,,,,,,,,,,,,,,,,,,,,,,,,,,,,,,,,,,,,,,,,,,,,,,,,,,,,,,,,,,,,,,,,,,,,,
,,,,,,615046c5dc8d53b5ddf25d56,62c53a525cbfb4ed3c74f596,2022-07-06_09h32.32.486,Colour_Asymmetry_Pilot,2022.1.3,Win32,59.83366242,62c50e9c1127f2cd403a315f,0,149,149,102,1,fourtwo,,,,,,,,,,,,,,,,,,,,,,,,,,,,,,,,,,,,,,,,,,,,,,,,,,,,,,,,,,,,,,,,,,,,,,,,,,,,,,,,,,,,,,,,,,,,,,,,,,,,,,,,,,,,,,,,,,,,,,,,,,,,,,,,,,,,,,,,,,,,,,,,,,,,,,,,,,,,,
,,,,,,615046c5dc8d53b5ddf25d56,62c53a525cbfb4ed3c74f596,2022-07-06_09h32.32.486,Colour_Asymmetry_Pilot,2022.1.3,Win32,59.83366242,62c50e9c1127f2cd403a315f,0,150,150,138,1,twoone,,,,,,,,,,,,,,,,,,,,,,,,,,,,,,,,,,,,,,,,,,,,,,,,,,,,,,,,,,,,,,,,,,,,,,,,,,,,,,,,,,,,,,,,,,,,,,,,,,,,,,,,,,,,,,,,,,,,,,,,,,,,,,,,,,,,,,,,,,,,,,,,,,,,,,,,,,,,,
,,,,,,615046c5dc8d53b5ddf25d56,62c53a525cbfb4ed3c74f596,2022-07-06_09h32.32.486,Colour_Asymmetry_Pilot,2022.1.3,Win32,59.83366242,62c50e9c1127f2cd403a315f,0,151,151,93,1,threefour,,,,,,,,,,,,,,,,,,,,,,,,,,,,,,,,,,,,,,,,,,,,,,,,,,,,,,,,,,,,,,,,,,,,,,,,,,,,,,,,,,,,,,,,,,,,,,,,,,,,,,,,,,,,,,,,,,,,,,,,,,,,,,,,,,,,,,,,,,,,,,,,,,,,,,,,,,,,,
,,,,,,615046c5dc8d53b5ddf25d56,62c53a525cbfb4ed3c74f596,2022-07-06_09h32.32.486,Colour_Asymmetry_Pilot,2022.1.3,Win32,59.83366242,62c50e9c1127f2cd403a315f,0,152,152,18,1,twoone,,,,,,,,,,,,,,,,,,,,,,,,,,,,,,,,,,,,,,,,,,,,,,,,,,,,,,,,,,,,,,,,,,,,,,,,,,,,,,,,,,,,,,,,,,,,,,,,,,,,,,,,,,,,,,,,,,,,,,,,,,,,,,,,,,,,,,,,,,,,,,,,,,,,,,,,,,,,,
,,,,,,615046c5dc8d53b5ddf25d56,62c53a525cbfb4ed3c74f596,2022-07-06_09h32.32.486,Colour_Asymmetry_Pilot,2022.1.3,Win32,59.83366242,62c50e9c1127f2cd403a315f,0,153,153,45,1,threefour,,,,,,,,,,,,,,,,,,,,,,,,,,,,,,,,,,,,,,,,,,,,,,,,,,,,,,,,,,,,,,,,,,,,,,,,,,,,,,,,,,,,,,,,,,,,,,,,,,,,,,,,,,,,,,,,,,,,,,,,,,,,,,,,,,,,,,,,,,,,,,,,,,,,,,,,,,,,,
,,,,,,615046c5dc8d53b5ddf25d56,62c53a525cbfb4ed3c74f596,2022-07-06_09h32.32.486,Colour_Asymmetry_Pilot,2022.1.3,Win32,59.83366242,62c50e9c1127f2cd403a315f,0,154,154,40,1,onetwo,,,,,,,,,,,,,,,,,,,,,,,,,,,,,,,,,,,,,,,,,,,,,,,,,,,,,,,,,,,,,,,,,,,,,,,,,,,,,,,,,,,,,,,,,,,,,,,,,,,,,,,,,,,,,,,,,,,,,,,,,,,,,,,,,,,,,,,,,,,,,,,,,,,,,,,,,,,,,
,,,,,,615046c5dc8d53b5ddf25d56,62c53a525cbfb4ed3c74f596,2022-07-06_09h32.32.486,Colour_Asymmetry_Pilot,2022.1.3,Win32,59.83366242,62c50e9c1127f2cd403a315f,0,155,155,5,1,threefour,,,,,,,,,,,,,,,,,,,,,,,,,,,,,,,,,,,,,,,,,,,,,,,,,,,,,,,,,,,,,,,,,,,,,,,,,,,,,,,,,,,,,,,,,,,,,,,,,,,,,,,,,,,,,,,,,,,,,,,,,,,,,,,,,,,,,,,,,,,,,,,,,,,,,,,,,,,,,
,,,,,,615046c5dc8d53b5ddf25d56,62c53a525cbfb4ed3c74f596,2022-07-06_09h32.32.486,Colour_Asymmetry_Pilot,2022.1.3,Win32,59.83366242,62c50e9c1127f2cd403a315f,0,156,156,130,1,twoone,,,,,,,,,,,,,,,,,,,,,,,,,,,,,,,,,,,,,,,,,,,,,,,,,,,,,,,,,,,,,,,,,,,,,,,,,,,,,,,,,,,,,,,,,,,,,,,,,,,,,,,,,,,,,,,,,,,,,,,,,,,,,,,,,,,,,,,,,,,,,,,,,,,,,,,,,,,,,
,,,,,,615046c5dc8d53b5ddf25d56,62c53a525cbfb4ed3c74f596,2022-07-06_09h32.32.486,Colour_Asymmetry_Pilot,2022.1.3,Win32,59.83366242,62c50e9c1127f2cd403a315f,0,157,157,47,1,fourthree,,,,,,,,,,,,,,,,,,,,,,,,,,,,,,,,,,,,,,,,,,,,,,,,,,,,,,,,,,,,,,,,,,,,,,,,,,,,,,,,,,,,,,,,,,,,,,,,,,,,,,,,,,,,,,,,,,,,,,,,,,,,,,,,,,,,,,,,,,,,,,,,,,,,,,,,,,,,,
,,,,,,615046c5dc8d53b5ddf25d56,62c53a525cbfb4ed3c74f596,2022-07-06_09h32.32.486,Colour_Asymmetry_Pilot,2022.1.3,Win32,59.83366242,62c50e9c1127f2cd403a315f,0,158,158,98,1,twoone,,,,,,,,,,,,,,,,,,,,,,,,,,,,,,,,,,,,,,,,,,,,,,,,,,,,,,,,,,,,,,,,,,,,,,,,,,,,,,,,,,,,,,,,,,,,,,,,,,,,,,,,,,,,,,,,,,,,,,,,,,,,,,,,,,,,,,,,,,,,,,,,,,,,,,,,,,,,,
,,,,,,615046c5dc8d53b5ddf25d56,62c53a525cbfb4ed3c74f596,2022-07-06_09h32.32.486,Colour_Asymmetry_Pilot,2022.1.3,Win32,59.83366242,62c50e9c1127f2cd403a315f,0,159,159,158,1,fourtwo,,,,,,,,,,,,,,,,,,,,,,,,,,,,,,,,,,,,,,,,,,,,,,,,,,,,,,,,,,,,,,,,,,,,,,,,,,,,,,,,,,,,,,,,,,,,,,,,,,,,,,,,,,,,,,,,,,,,,,,,,,,,,,,,,,,,,,,,,,,,,,,,,,,,,,,,,,,,,
,,,,,,615046c5dc8d53b5ddf25d56,62c53a525cbfb4ed3c74f596,2022-07-06_09h32.32.486,Colour_Asymmetry_Pilot,2022.1.3,Win32,59.83366242,62c50e9c1127f2cd403a315f,0,160,160,89,1,onethree,,,,,,,,,,,,,,,,,,,,,,,,,,,,,,,,,,,,,,,,,,,,,,,,,,,,,,,,,,,,,,,,,,,,,,,,,,,,,,,,,,,,,,,,,,,,,,,,,,,,,,,,,,,,,,,,,,,,,,,,,,,,,,,,,,,,,,,,,,,,,,,,,,,,,,,,,,,,,
,,,,,,615046c5dc8d53b5ddf25d56,62c53a525cbfb4ed3c74f596,2022-07-06_09h32.32.486,Colour_Asymmetry_Pilot,2022.1.3,Win32,59.83366242,62c50e9c1127f2cd403a315f,0,161,161,132,1,threeone,,,,,,,,,,,,,,,,,,,,,,,,,,,,,,,,,,,,,,,,,,,,,,,,,,,,,,,,,,,,,,,,,,,,,,,,,,,,,,,,,,,,,,,,,,,,,,,,,,,,,,,,,,,,,,,,,,,,,,,,,,,,,,,,,,,,,,,,,,,,,,,,,,,,,,,,,,,,,
,,,,,,615046c5dc8d53b5ddf25d56,62c53a525cbfb4ed3c74f596,2022-07-06_09h32.32.486,Colour_Asymmetry_Pilot,2022.1.3,Win32,59.83366242,62c50e9c1127f2cd403a315f,,,,,,,space,4.3918,space,14.6628,space,51.1071,space,5.8966,space,1.6514,space,3.1888,"[0.18419999999999992,-0.4276,-0.404]",twofour,"[-0.4982,-0.2942,-0.0354000000000001]",-2,8.1328,-82,-59,1,0,0,response5disk_5,12,1,1,0,0,rectangle_8,12,1,1,0,0,2,12,1,1,0,0,0,0,0,0,1,,,,,,,,,,,,,,,,,,,,,,,,,,,,,,,,,,,,,,,,,,,,,,,,,,,,,,,,,,,,,,,,,,,,,,,,,,,,,,,,,,,,,,,,,,,,,,,,,,,,,,,,,,,,,,,,
,,,,,,615046c5dc8d53b5ddf25d56,62c53a525cbfb4ed3c74f596,2022-07-06_09h32.32.486,Colour_Asymmetry_Pilot,2022.1.3,Win32,59.83366242,62c50e9c1127f2cd403a315f,,,,,,,,,,,,,,,,,,,"[-0.24719999999999998,0.5213999999999999,-0.12959999999999994]",twofour,"[0.9372,0.20779999999999998,0.2704]",-3,4.9637,-85,65,1,0,0,response7disk_5,-12,8,1,0,0,rectangle_8,-12,8,1,0,0,2,-12,8,1,0,0,1,0,1,0,1,,,,,,,,,,,,,,,,,,,,,,,,,,,,,,,,,,,,,,,,,,,,,,,,,,,,,,,,,,,,,,,,,,,,,,,,,,,,,,,,,,,,,,,,,,,,,,,,,,,,,,,,,,,,,,,,
,,,,,,615046c5dc8d53b5ddf25d56,62c53a525cbfb4ed3c74f596,2022-07-06_09h32.32.486,Colour_Asymmetry_Pilot,2022.1.3,Win32,59.83366242,62c50e9c1127f2cd403a315f,,,,,,,,,,,,,,,,,,,"[0.5449999999999999,-0.31000000000000005,-0.0354000000000001]",twoone,"[-0.07459999999999989,0.12139999999999995,-0.9922]",-3,5.5983,-89,84,1,0,0,response7disk_5,26,3,1,0,0,rectangle_8,26,3,1,0,0,2,26,3,1,0,0,2,0,2,0,1,,,,,,,,,,,,,,,,,,,,,,,,,,,,,,,,,,,,,,,,,,,,,,,,,,,,,,,,,,,,,,,,,,,,,,,,,,,,,,,,,,,,,,,,,,,,,,,,,,,,,,,,,,,,,,,,
,,,,,,615046c5dc8d53b5ddf25d56,62c53a525cbfb4ed3c74f596,2022-07-06_09h32.32.486,Colour_Asymmetry_Pilot,2022.1.3,Win32,59.83366242,62c50e9c1127f2cd403a315f,,,,,,,,,,,,,,,,,,,"[0.04299999999999993,0.16060000000000008,-0.6628000000000001]",fourtwo,"[0.37240000000000006,0.4980000000000002,-0.2864]",3,2.5324,97,77,1,0,0,response1disk_5,13,3,1,0,0,rectangle_8,13,3,1,0,0,2,13,3,1,0,0,3,0,3,0,1,,,,,,,,,,,,,,,,,,,,,,,,,,,,,,,,,,,,,,,,,,,,,,,,,,,,,,,,,,,,,,,,,,,,,,,,,,,,,,,,,,,,,,,,,,,,,,,,,,,,,,,,,,,,,,,,
,,,,,,615046c5dc8d53b5ddf25d56,62c53a525cbfb4ed3c74f596,2022-07-06_09h32.32.486,Colour_Asymmetry_Pilot,2022.1.3,Win32,59.83366242,62c50e9c1127f2cd403a315f,,,,,,,,,,,,,,,,,,,"[-0.9766,-0.34920000000000007,0.2156]",onethree,"[-0.9138,-0.5296000000000001,-0.5529999999999999]",1,2.8654,99,-126,1,0,0,response3disk_5,-3,0,1,0,0,rectangle_8,-3,0,1,0,0,2,-3,0,1,0,0,4,0,4,0,1,,,,,,,,,,,,,,,,,,,,,,,,,,,,,,,,,,,,,,,,,,,,,,,,,,,,,,,,,,,,,,,,,,,,,,,,,,,,,,,,,,,,,,,,,,,,,,,,,,,,,,,,,,,,,,,,
,,,,,,615046c5dc8d53b5ddf25d56,62c53a525cbfb4ed3c74f596,2022-07-06_09h32.32.486,Colour_Asymmetry_Pilot,2022.1.3,Win32,59.83366242,62c50e9c1127f2cd403a315f,,,,,,,,,,,,,,,,,,,"[0.7018,0.7176,0.6155999999999999]",fourthree,"[-0.6235999999999999,-0.6786,-0.08239999999999992]",4,2.6818,67,101,1,0,0,response1disk_5,5,-10,1,0,0,rectangle_8,110,-61,1,0,0,2,-14,-4,1,0,0,5,0,5,0,1,response3disk_7,5,rectangle_4,,,,,,,,,,,,,,,,,,,,,,,,,,,,,,,,,,,,,,,,,,,,,,,,,,,,,,,,,,,,,,,,,,,,,,,,,,,,,,,,,,,,,,,,,,,,,,,,,,,,,,,,,,,,,
,,,,,,615046c5dc8d53b5ddf25d56,62c53a525cbfb4ed3c74f596,2022-07-06_09h32.32.486,Colour_Asymmetry_Pilot,2022.1.3,Win32,59.83366242,62c50e9c1127f2cd403a315f,,,,,,,,,,,,,,,,,,,"[0.9842,0.7409999999999999,-0.6628000000000001]",threeone,"[0.37240000000000006,-0.050999999999999934,-0.5216]",2,5.3295,120,-100,1,0,0,response3disk_5,3,5,1,0,0,rectangle_8,3,5,1,0,0,2,3,5,1,0,0,6,0,6,0,1,,,,,,,,,,,,,,,,,,,,,,,,,,,,,,,,,,,,,,,,,,,,,,,,,,,,,,,,,,,,,,,,,,,,,,,,,,,,,,,,,,,,,,,,,,,,,,,,,,,,,,,,,,,,,,,,
,,,,,,615046c5dc8d53b5ddf25d56,62c53a525cbfb4ed3c74f596,2022-07-06_09h32.32.486,Colour_Asymmetry_Pilot,2022.1.3,Win32,59.83366242,62c50e9c1127f2cd403a315f,,,,,,,,,,,,,,,,,,,,fourthree,,1,7.2496,,,,,,,,,,,,,,,,,,,,,,,,,,,,,,,,space,3.8384,"[0.9763999999999999,0.8588,-0.05900000000000005]","[0.18419999999999992,-0.4276,-0.404]",99,-100,1,0,0,response3disk,5,-9,1,0,0,rectangle,5,-9,1,0,0,,2,0.0039,0,5,-9,1,0,0,0,0,0,35,1,35,first,,,,,,,,,,,,,,,,,,,,,,,,,,,,,,,,,,,,,,,,,,,,,,,,,,,,,,,,,,,,,,,,,,,,,,,,
,,,,,,615046c5dc8d53b5ddf25d56,62c53a525cbfb4ed3c74f596,2022-07-06_09h32.32.486,Colour_Asymmetry_Pilot,2022.1.3,Win32,59.83366242,62c50e9c1127f2cd403a315f,,,,,,,,,,,,,,,,,,,,threefour,,-4,1.9322,,,,,,,,,,,,,,,,,,,,,,,,,,,,,,,,,,"[-0.45899999999999996,-0.3256,-0.9374]","[0.796,0.2156,-0.27859999999999996]",-65,72,1,0,0,response7disk,-11,-12,1,0,0,rectangle,-11,-12,1,0,0,,3,0.0015,0,-11,-12,1,0,0,0,1,1,2,1,2,first,,,,,,,,,,,,,,,,,,,,,,,,,,,,,,,,,,,,,,,,,,,,,,,,,,,,,,,,,,,,,,,,,,,,,,,,
,,,,,,615046c5dc8d53b5ddf25d56,62c53a525cbfb4ed3c74f596,2022-07-06_09h32.32.486,Colour_Asymmetry_Pilot,2022.1.3,Win32,59.83366242,62c50e9c1127f2cd403a315f,,,,,,,,,,,,,,,,,,,,onethree,,-4,3.3853,,,,,,,,,,,,,,,,,,,,,,,,,,,,,,,,,,"[-0.9216,-0.5529999999999999,-0.3962]","[-0.4668,-0.8746,-0.2942]",-62,80,1,0,0,response7disk,-2,7,1,0,0,rectangle,-2,7,1,0,0,,1,0.0025,0,-2,7,1,0,0,0,2,2,103,1,22,second,,,,,,,,,,,,,,,,,,,,,,,,,,,,,,,,,,,,,,,,,,,,,,,,,,,,,,,,,,,,,,,,,,,,,,,,
,,,,,,615046c5dc8d53b5ddf25d56,62c53a525cbfb4ed3c74f596,2022-07-06_09h32.32.486,Colour_Asymmetry_Pilot,2022.1.3,Win32,59.83366242,62c50e9c1127f2cd403a315f,,,,,,,,,,,,,,,,,,,,onetwo,,3,1.1,,,,,,,,,,,,,,,,,,,,,,,,,,,,,,,,,,"[0.796,0.2156,-0.27859999999999996]","[0.37240000000000006,-0.050999999999999934,-0.5216]",69,46,1,0,0,response1disk,-6,-9,1,0,0,rectangle,-6,-9,1,0,0,,1,0.0005,0,-6,-9,1,0,0,0,3,3,91,1,10,second,,,,,,,,,,,,,,,,,,,,,,,,,,,,,,,,,,,,,,,,,,,,,,,,,,,,,,,,,,,,,,,,,,,,,,,,
,,,,,,615046c5dc8d53b5ddf25d56,62c53a525cbfb4ed3c74f596,2022-07-06_09h32.32.486,Colour_Asymmetry_Pilot,2022.1.3,Win32,59.83366242,62c50e9c1127f2cd403a315f,,,,,,,,,,,,,,,,,,,,threeone,,-4,3.6553,,,,,,,,,,,,,,,,,,,,,,,,,,,,,,,,,,"[-0.9766,-0.6472,0.07440000000000002]","[0.7018,0.7802,-0.16079999999999994]",-75,99,1,0,0,response7disk,-12,5,1,0,0,rectangle,68,-148,1,0,0,1,1,4.1814,1,-16,-8,1,0,0,0,4,4,36,1,36,first,response3disk_3,rectangle,,,,,,,,,,,,,,,,,,,,,,,,,,,,,,,,,,,,,,,,,,,,,,,,,,,,,,,,,,,,,,,,,,,,,,
,,,,,,615046c5dc8d53b5ddf25d56,62c53a525cbfb4ed3c74f596,2022-07-06_09h32.32.486,Colour_Asymmetry_Pilot,2022.1.3,Win32,59.83366242,62c50e9c1127f2cd403a315f,,,,,,,,,,,,,,,,,,,,onethree,,-4,3.0317,,,,,,,,,,,,,,,,,,,,,,,,,,,,,,,,,,"[-0.8982,-0.37259999999999993,0.2784]","[0.22340000000000004,-0.9296,-0.7884]",-49,125,1,0,0,response7disk,1,4,1,0,0,rectangle,1,4,1,0,0,1,2,0.001,0,1,4,1,0,0,0,5,5,0,1,0,first,,,,,,,,,,,,,,,,,,,,,,,,,,,,,,,,,,,,,,,,,,,,,,,,,,,,,,,,,,,,,,,,,,,,,,,,
,,,,,,615046c5dc8d53b5ddf25d56,62c53a525cbfb4ed3c74f596,2022-07-06_09h32.32.486,Colour_Asymmetry_Pilot,2022.1.3,Win32,59.83366242,62c50e9c1127f2cd403a315f,,,,,,,,,,,,,,,,,,,,fourtwo,,2,4.4496,,,,,,,,,,,,,,,,,,,,,,,,,,,,,,,,,,"[0.9763999999999999,0.8588,-0.05900000000000005]","[0.34099999999999997,0.12939999999999996,-0.9766]",133,-70,1,0,0,response3disk,13,-5,1,0,0,rectangle,13,-5,1,0,0,1,3,0.0038,0,13,-5,1,0,0,0,6,6,148,1,67,second,,,,,,,,,,,,,,,,,,,,,,,,,,,,,,,,,,,,,,,,,,,,,,,,,,,,,,,,,,,,,,,,,,,,,,,,
,,,,,,615046c5dc8d53b5ddf25d56,62c53a525cbfb4ed3c74f596,2022-07-06_09h32.32.486,Colour_Asymmetry_Pilot,2022.1.3,Win32,59.83366242,62c50e9c1127f2cd403a315f,,,,,,,,,,,,,,,,,,,,onethree,,4,1.2664,,,,,,,,,,,,,,,,,,,,,,,,,,,,,,,,,,"[-0.6,0.16860000000000008,0.44300000000000006]","[-0.09019999999999995,0.44300000000000006,0.5371999999999999]",71,136,1,0,0,response1disk,16,-5,1,0,0,rectangle,16,-5,1,0,0,1,1,0.0049,0,16,-5,1,0,0,0,7,7,32,1,32,first,,,,,,,,,,,,,,,,,,,,,,,,,,,,,,,,,,,,,,,,,,,,,,,,,,,,,,,,,,,,,,,,,,,,,,,,
,,,,,,615046c5dc8d53b5ddf25d56,62c53a525cbfb4ed3c74f596,2022-07-06_09h32.32.486,Colour_Asymmetry_Pilot,2022.1.3,Win32,59.83366242,62c50e9c1127f2cd403a315f,,,,,,,,,,,,,,,,,,,,fourthree,,2,7.18,,,,,,,,,,,,,,,,,,,,,,,,,,,,,,,,,,"[0.7646000000000002,0.07440000000000002,0.2704]","[-0.2942,-0.7648,-0.7492000000000001]",104,-72,1,0,0,response3disk,14,-12,1,0,0,rectangle,14,-12,1,0,0,1,2,0.0043,0,14,-12,1,0,0,0,8,8,95,1,14,second,,,,,,,,,,,,,,,,,,,,,,,,,,,,,,,,,,,,,,,,,,,,,,,,,,,,,,,,,,,,,,,,,,,,,,,,
,,,,,,615046c5dc8d53b5ddf25d56,62c53a525cbfb4ed3c74f596,2022-07-06_09h32.32.486,Colour_Asymmetry_Pilot,2022.1.3,Win32,59.83366242,62c50e9c1127f2cd403a315f,,,,,,,,,,,,,,,,,,,,fourtwo,,4,1.0668,,,,,,,,,,,,,,,,,,,,,,,,,,,,,,,,,,"[-0.24719999999999998,0.5213999999999999,-0.12959999999999994]","[0.6547999999999998,-0.043199999999999905,-0.011800000000000033]",81,122,1,0,0,response1disk,-4,-8,1,0,0,rectangle,-4,-8,1,0,0,1,3,0.0033,0,-4,-8,1,0,0,0,9,9,63,1,63,first,,,,,,,,,,,,,,,,,,,,,,,,,,,,,,,,,,,,,,,,,,,,,,,,,,,,,,,,,,,,,,,,,,,,,,,,
,,,,,,615046c5dc8d53b5ddf25d56,62c53a525cbfb4ed3c74f596,2022-07-06_09h32.32.486,Colour_Asymmetry_Pilot,2022.1.3,Win32,59.83366242,62c50e9c1127f2cd403a315f,,,,,,,,,,,,,,,,,,,,threeone,,-4,3.1818,,,,,,,,,,,,,,,,,,,,,,,,,,,,,,,,,,"[0.3802000000000001,0.19199999999999995,-0.6394]","[-0.09019999999999995,0.44300000000000006,0.5371999999999999]",-50,95,1,0,0,response7disk,-11,-1,1,0,0,rectangle,-11,-1,1,0,0,1,1,0.0026,0,-11,-1,1,0,0,0,10,10,115,1,34,second,,,,,,,,,,,,,,,,,,,,,,,,,,,,,,,,,,,,,,,,,,,,,,,,,,,,,,,,,,,,,,,,,,,,,,,,
,,,,,,615046c5dc8d53b5ddf25d56,62c53a525cbfb4ed3c74f596,2022-07-06_09h32.32.486,Colour_Asymmetry_Pilot,2022.1.3,Win32,59.83366242,62c50e9c1127f2cd403a315f,,,,,,,,,,,,,,,,,,,,onetwo,,-4,1.7327,,,,,,,,,,,,,,,,,,,,,,,,,,,,,,,,,,"[-0.011800000000000033,-0.906,-0.45100000000000007]","[-0.5688,-0.08239999999999992,-0.1844]",-51,110,1,0,0,response7disk,-6,-9,1,0,0,rectangle,-6,-9,1,0,0,1,1,0.0007,0,-6,-9,1,0,0,0,11,11,17,1,17,first,,,,,,,,,,,,,,,,,,,,,,,,,,,,,,,,,,,,,,,,,,,,,,,,,,,,,,,,,,,,,,,,,,,,,,,,
,,,,,,615046c5dc8d53b5ddf25d56,62c53a525cbfb4ed3c74f596,2022-07-06_09h32.32.486,Colour_Asymmetry_Pilot,2022.1.3,Win32,59.83366242,62c50e9c1127f2cd403a315f,,,,,,,,,,,,,,,,,,,,twoone,,-4,0.8594,,,,,,,,,,,,,,,,,,,,,,,,,,,,,,,,,,"[-0.011800000000000033,-0.906,-0.45100000000000007]","[-0.8982,-0.37259999999999993,0.2784]",-58,115,1,0,0,response7disk,-8,-6,1,0,0,rectangle,-8,-6,1,0,0,1,2,0.0037,0,-8,-6,1,0,0,0,12,12,46,1,46,first,,,,,,,,,,,,,,,,,,,,,,,,,,,,,,,,,,,,,,,,,,,,,,,,,,,,,,,,,,,,,,,,,,,,,,,,
,,,,,,615046c5dc8d53b5ddf25d56,62c53a525cbfb4ed3c74f596,2022-07-06_09h32.32.486,Colour_Asymmetry_Pilot,2022.1.3,Win32,59.83366242,62c50e9c1127f2cd403a315f,,,,,,,,,,,,,,,,,,,,fourthree,,-4,2.5808,,,,,,,,,,,,,,,,,,,,,,,,,,,,,,,,,,"[-0.2942,-0.24719999999999998,-0.357]","[0.5449999999999999,-0.31000000000000005,-0.0354000000000001]",-60,114,1,0,0,response7disk,-9,-15,1,0,0,rectangle,-9,-15,1,0,0,1,3,0.0009,0,-9,-15,1,0,0,0,13,13,137,1,56,second,,,,,,,,,,,,,,,,,,,,,,,,,,,,,,,,,,,,,,,,,,,,,,,,,,,,,,,,,,,,,,,,,,,,,,,,
,,,,,,615046c5dc8d53b5ddf25d56,62c53a525cbfb4ed3c74f596,2022-07-06_09h32.32.486,Colour_Asymmetry_Pilot,2022.1.3,Win32,59.83366242,62c50e9c1127f2cd403a315f,,,,,,,,,,,,,,,,,,,,fourthree,,-4,1.1498,,,,,,,,,,,,,,,,,,,,,,,,,,,,,,,,,,"[-0.01980000000000004,-0.5138,-0.38039999999999996]","[-0.8198,-0.5138,-0.7492000000000001]",-36,89,1,0,0,response7disk,5,-11,1,0,0,rectangle,5,-11,1,0,0,1,2,0.0035,0,5,-11,1,0,0,0,14,14,40,1,40,first,,,,,,,,,,,,,,,,,,,,,,,,,,,,,,,,,,,,,,,,,,,,,,,,,,,,,,,,,,,,,,,,,,,,,,,,
,,,,,,615046c5dc8d53b5ddf25d56,62c53a525cbfb4ed3c74f596,2022-07-06_09h32.32.486,Colour_Asymmetry_Pilot,2022.1.3,Win32,59.83366242,62c50e9c1127f2cd403a315f,,,,,,,,,,,,,,,,,,,,threeone,,-4,0.6927,,,,,,,,,,,,,,,,,,,,,,,,,,,,,,,,,,"[-0.4902000000000001,0.2704,-0.45899999999999996]","[-0.09019999999999995,0.44300000000000006,0.5371999999999999]",-41,100,1,0,0,response7disk,-11,-4,1,0,0,rectangle,-11,-4,1,0,0,1,1,0.0032,0,-11,-4,1,0,0,0,15,15,21,1,21,first,,,,,,,,,,,,,,,,,,,,,,,,,,,,,,,,,,,,,,,,,,,,,,,,,,,,,,,,,,,,,,,,,,,,,,,,
,,,,,,615046c5dc8d53b5ddf25d56,62c53a525cbfb4ed3c74f596,2022-07-06_09h32.32.486,Colour_Asymmetry_Pilot,2022.1.3,Win32,59.83366242,62c50e9c1127f2cd403a315f,,,,,,,,,,,,,,,,,,,,onetwo,,-4,0.9501,,,,,,,,,,,,,,,,,,,,,,,,,,,,,,,,,,"[0.9763999999999999,-0.1137999999999999,-0.6314]","[0.37240000000000006,0.4980000000000002,-0.2864]",-63,96,1,0,0,response7disk,-20,-12,1,0,0,rectangle,114,-72,1,0,0,2,2,2.8124,1,1,-3,1,0,0,0,16,16,159,1,78,second,response3disk_3,rectangle,,,,,,,,,,,,,,,,,,,,,,,,,,,,,,,,,,,,,,,,,,,,,,,,,,,,,,,,,,,,,,,,,,,,,,
,,,,,,615046c5dc8d53b5ddf25d56,62c53a525cbfb4ed3c74f596,2022-07-06_09h32.32.486,Colour_Asymmetry_Pilot,2022.1.3,Win32,59.83366242,62c50e9c1127f2cd403a315f,,,,,,,,,,,,,,,,,,,,threeone,,4,1.4658,,,,,,,,,,,,,,,,,,,,,,,,,,,,,,,,,,"[0.7018,0.7802,-0.16079999999999994]","[0.5528,0.7409999999999999,-0.71]",70,125,1,0,0,response1disk,11,-7,1,0,0,rectangle,11,-7,1,0,0,2,2,0.0004,0,11,-7,1,0,0,0,17,17,96,1,15,second,,,,,,,,,,,,,,,,,,,,,,,,,,,,,,,,,,,,,,,,,,,,,,,,,,,,,,,,,,,,,,,,,,,,,,,,
