trials.thisRepN,trials.thisTrialN,trials.thisN,trials.thisIndex,trials.ran,Colourcodes,participant,session,date,expName,psychopyVersion,OS,frameRate,study_id,trials_4.thisRepN,trials_4.thisTrialN,trials_4.thisN,trials_4.thisIndex,trials_4.ran,StimulusPos,key_resp.keys,key_resp.rt,key_resp_2.keys,key_resp_2.rt,key_resp_15.keys,key_resp_15.rt,key_resp_17.keys,key_resp_17.rt,key_resp_9.keys,key_resp_9.rt,key_resp_10.keys,key_resp_10.rt,Circle1_col,Ecc,Circle2_col,similarity,response_time,mouse_5.x,mouse_5.y,mouse_5.leftButton,mouse_5.midButton,mouse_5.rightButton,mouse_5.clicked_name,mouse_10.x,mouse_10.y,mouse_10.leftButton,mouse_10.midButton,mouse_10.rightButton,mouse_10.clicked_name,mouse_7.x,mouse_7.y,mouse_7.leftButton,mouse_7.midButton,mouse_7.rightButton,mouse_7.clicked_name,catchprac,catchnumberprac,mouse_6.x,mouse_6.y,mouse_6.leftButton,mouse_6.midButton,mouse_6.rightButton,mouse_6.clicked_name,duringprac.thisRepN,duringprac.thisTrialN,duringprac.thisN,duringprac.thisIndex,duringprac.ran,key_resp_22.keys,key_resp_22.rt,Circle1_colour,Circle2_colour,mouse.x,mouse.y,mouse.leftButton,mouse.midButton,mouse.rightButton,mouse.clicked_name,mouse_2.x,mouse_2.y,mouse_2.leftButton,mouse_2.midButton,mouse_2.rightButton,mouse_2.clicked_name,mouse_3.x,mouse_3.y,mouse_3.leftButton,mouse_3.midButton,mouse_3.rightButton,catchresponse,catchnumber,response_time_catch,Catch,mouse_11.x,mouse_11.y,mouse_11.leftButton,mouse_11.midButton,mouse_11.rightButton,trials_2.thisRepN,trials_2.thisTrialN,trials_2.thisN,trials_2.thisIndex,trials_2.ran,Colourpair,Temporder,mouse_3.clicked_name,mouse_11.clicked_name,trials_3.thisRepN,trials_3.thisTrialN,trials_3.thisN,trials_3.thisIndex,trials_3.ran,key_resp_instr_Ishi.keys,key_resp_instr_Ishi.rt,Ishi_trial_keyresp.keys,Ishi_textbox.text,Ishi_mouse.x,Ishi_mouse.y,Ishi_mouse.leftButton,Ishi_mouse.midButton,Ishi_mouse.rightButton,Ishi_mouse.clicked_name,Ishi_loop.thisRepN,Ishi_loop.thisTrialN,Ishi_loop.thisN,Ishi_loop.thisIndex,Ishi_loop.ran,imageaddress,textbox.text,mouse_4.x,mouse_4.y,mouse_4.leftButton,mouse_4.midButton,mouse_4.rightButton,mouse_4.clicked_name,textbox_2.text,mouse_8.x,mouse_8.y,mouse_8.leftButton,mouse_8.midButton,mouse_8.rightButton,mouse_8.clicked_name,textbox_3.text,mouse_9.x,mouse_9.y,mouse_9.leftButton,mouse_9.midButton,mouse_9.rightButton,mouse_9.clicked_name,textbox_4.text,mouse_12.x,mouse_12.y,mouse_12.leftButton,mouse_12.midButton,mouse_12.rightButton,mouse_12.clicked_name,textbox_5.text,mouse_13.x,mouse_13.y,mouse_13.leftButton,mouse_13.midButton,mouse_13.rightButton,mouse_13.clicked_name,textbox_6.text,mouse_14.x,mouse_14.y,mouse_14.leftButton,mouse_14.midButton,mouse_14.rightButton,mouse_14.clicked_name,textbox_7.text,mouse_15.x,mouse_15.y,mouse_15.leftButton,mouse_15.midButton,mouse_15.rightButton,mouse_15.clicked_name
0,0,0,46,1,,5e9f36a7e7a8f307cbd64a65,62c5385b1d4b666352f10f14,2022-07-06_08h23.37.711,Colour_Asymmetry_Pilot,2022.1.3,Win32,59.94485074,62c50e9c1127f2cd403a315f,,,,,,,,,,,,,,,,,,,,,,,,,,,,,,,,,,,,,,,,,,,,,,,,,,,,,,,,,,,,,,,,,,,,,,,,,,,,,,,,,,,,,,,,,,,,,,,,,,,,,,,,,,,,,,,,,,,,,,,,,,,,,,,,,,,,,,,,,,,,,,,,,,,,,,,,,,,,,,,,,,,
0,1,1,31,1,,5e9f36a7e7a8f307cbd64a65,62c5385b1d4b666352f10f14,2022-07-06_08h23.37.711,Colour_Asymmetry_Pilot,2022.1.3,Win32,59.94485074,62c50e9c1127f2cd403a315f,,,,,,,,,,,,,,,,,,,,,,,,,,,,,,,,,,,,,,,,,,,,,,,,,,,,,,,,,,,,,,,,,,,,,,,,,,,,,,,,,,,,,,,,,,,,,,,,,,,,,,,,,,,,,,,,,,,,,,,,,,,,,,,,,,,,,,,,,,,,,,,,,,,,,,,,,,,,,,,,,,,
0,2,2,27,1,,5e9f36a7e7a8f307cbd64a65,62c5385b1d4b666352f10f14,2022-07-06_08h23.37.711,Colour_Asymmetry_Pilot,2022.1.3,Win32,59.94485074,62c50e9c1127f2cd403a315f,,,,,,,,,,,,,,,,,,,,,,,,,,,,,,,,,,,,,,,,,,,,,,,,,,,,,,,,,,,,,,,,,,,,,,,,,,,,,,,,,,,,,,,,,,,,,,,,,,,,,,,,,,,,,,,,,,,,,,,,,,,,,,,,,,,,,,,,,,,,,,,,,,,,,,,,,,,,,,,,,,,
0,3,3,33,1,,5e9f36a7e7a8f307cbd64a65,62c5385b1d4b666352f10f14,2022-07-06_08h23.37.711,Colour_Asymmetry_Pilot,2022.1.3,Win32,59.94485074,62c50e9c1127f2cd403a315f,,,,,,,,,,,,,,,,,,,,,,,,,,,,,,,,,,,,,,,,,,,,,,,,,,,,,,,,,,,,,,,,,,,,,,,,,,,,,,,,,,,,,,,,,,,,,,,,,,,,,,,,,,,,,,,,,,,,,,,,,,,,,,,,,,,,,,,,,,,,,,,,,,,,,,,,,,,,,,,,,,,
0,4,4,8,1,,5e9f36a7e7a8f307cbd64a65,62c5385b1d4b666352f10f14,2022-07-06_08h23.37.711,Colour_Asymmetry_Pilot,2022.1.3,Win32,59.94485074,62c50e9c1127f2cd403a315f,,,,,,,,,,,,,,,,,,,,,,,,,,,,,,,,,,,,,,,,,,,,,,,,,,,,,,,,,,,,,,,,,,,,,,,,,,,,,,,,,,,,,,,,,,,,,,,,,,,,,,,,,,,,,,,,,,,,,,,,,,,,,,,,,,,,,,,,,,,,,,,,,,,,,,,,,,,,,,,,,,,
0,5,5,57,1,,5e9f36a7e7a8f307cbd64a65,62c5385b1d4b666352f10f14,2022-07-06_08h23.37.711,Colour_Asymmetry_Pilot,2022.1.3,Win32,59.94485074,62c50e9c1127f2cd403a315f,,,,,,,,,,,,,,,,,,,,,,,,,,,,,,,,,,,,,,,,,,,,,,,,,,,,,,,,,,,,,,,,,,,,,,,,,,,,,,,,,,,,,,,,,,,,,,,,,,,,,,,,,,,,,,,,,,,,,,,,,,,,,,,,,,,,,,,,,,,,,,,,,,,,,,,,,,,,,,,,,,,
0,6,6,22,1,,5e9f36a7e7a8f307cbd64a65,62c5385b1d4b666352f10f14,2022-07-06_08h23.37.711,Colour_Asymmetry_Pilot,2022.1.3,Win32,59.94485074,62c50e9c1127f2cd403a315f,,,,,,,,,,,,,,,,,,,,,,,,,,,,,,,,,,,,,,,,,,,,,,,,,,,,,,,,,,,,,,,,,,,,,,,,,,,,,,,,,,,,,,,,,,,,,,,,,,,,,,,,,,,,,,,,,,,,,,,,,,,,,,,,,,,,,,,,,,,,,,,,,,,,,,,,,,,,,,,,,,,
0,7,7,74,1,,5e9f36a7e7a8f307cbd64a65,62c5385b1d4b666352f10f14,2022-07-06_08h23.37.711,Colour_Asymmetry_Pilot,2022.1.3,Win32,59.94485074,62c50e9c1127f2cd403a315f,,,,,,,,,,,,,,,,,,,,,,,,,,,,,,,,,,,,,,,,,,,,,,,,,,,,,,,,,,,,,,,,,,,,,,,,,,,,,,,,,,,,,,,,,,,,,,,,,,,,,,,,,,,,,,,,,,,,,,,,,,,,,,,,,,,,,,,,,,,,,,,,,,,,,,,,,,,,,,,,,,,
0,8,8,37,1,,5e9f36a7e7a8f307cbd64a65,62c5385b1d4b666352f10f14,2022-07-06_08h23.37.711,Colour_Asymmetry_Pilot,2022.1.3,Win32,59.94485074,62c50e9c1127f2cd403a315f,,,,,,,,,,,,,,,,,,,,,,,,,,,,,,,,,,,,,,,,,,,,,,,,,,,,,,,,,,,,,,,,,,,,,,,,,,,,,,,,,,,,,,,,,,,,,,,,,,,,,,,,,,,,,,,,,,,,,,,,,,,,,,,,,,,,,,,,,,,,,,,,,,,,,,,,,,,,,,,,,,,
0,9,9,21,1,,5e9f36a7e7a8f307cbd64a65,62c5385b1d4b666352f10f14,2022-07-06_08h23.37.711,Colour_Asymmetry_Pilot,2022.1.3,Win32,59.94485074,62c50e9c1127f2cd403a315f,,,,,,,,,,,,,,,,,,,,,,,,,,,,,,,,,,,,,,,,,,,,,,,,,,,,,,,,,,,,,,,,,,,,,,,,,,,,,,,,,,,,,,,,,,,,,,,,,,,,,,,,,,,,,,,,,,,,,,,,,,,,,,,,,,,,,,,,,,,,,,,,,,,,,,,,,,,,,,,,,,,
0,10,10,79,1,,5e9f36a7e7a8f307cbd64a65,62c5385b1d4b666352f10f14,2022-07-06_08h23.37.711,Colour_Asymmetry_Pilot,2022.1.3,Win32,59.94485074,62c50e9c1127f2cd403a315f,,,,,,,,,,,,,,,,,,,,,,,,,,,,,,,,,,,,,,,,,,,,,,,,,,,,,,,,,,,,,,,,,,,,,,,,,,,,,,,,,,,,,,,,,,,,,,,,,,,,,,,,,,,,,,,,,,,,,,,,,,,,,,,,,,,,,,,,,,,,,,,,,,,,,,,,,,,,,,,,,,,
0,11,11,52,1,,5e9f36a7e7a8f307cbd64a65,62c5385b1d4b666352f10f14,2022-07-06_08h23.37.711,Colour_Asymmetry_Pilot,2022.1.3,Win32,59.94485074,62c50e9c1127f2cd403a315f,,,,,,,,,,,,,,,,,,,,,,,,,,,,,,,,,,,,,,,,,,,,,,,,,,,,,,,,,,,,,,,,,,,,,,,,,,,,,,,,,,,,,,,,,,,,,,,,,,,,,,,,,,,,,,,,,,,,,,,,,,,,,,,,,,,,,,,,,,,,,,,,,,,,,,,,,,,,,,,,,,,
0,12,12,34,1,,5e9f36a7e7a8f307cbd64a65,62c5385b1d4b666352f10f14,2022-07-06_08h23.37.711,Colour_Asymmetry_Pilot,2022.1.3,Win32,59.94485074,62c50e9c1127f2cd403a315f,,,,,,,,,,,,,,,,,,,,,,,,,,,,,,,,,,,,,,,,,,,,,,,,,,,,,,,,,,,,,,,,,,,,,,,,,,,,,,,,,,,,,,,,,,,,,,,,,,,,,,,,,,,,,,,,,,,,,,,,,,,,,,,,,,,,,,,,,,,,,,,,,,,,,,,,,,,,,,,,,,,
0,13,13,82,1,,5e9f36a7e7a8f307cbd64a65,62c5385b1d4b666352f10f14,2022-07-06_08h23.37.711,Colour_Asymmetry_Pilot,2022.1.3,Win32,59.94485074,62c50e9c1127f2cd403a315f,,,,,,,,,,,,,,,,,,,,,,,,,,,,,,,,,,,,,,,,,,,,,,,,,,,,,,,,,,,,,,,,,,,,,,,,,,,,,,,,,,,,,,,,,,,,,,,,,,,,,,,,,,,,,,,,,,,,,,,,,,,,,,,,,,,,,,,,,,,,,,,,,,,,,,,,,,,,,,,,,,,
0,14,14,7,1,,5e9f36a7e7a8f307cbd64a65,62c5385b1d4b666352f10f14,2022-07-06_08h23.37.711,Colour_Asymmetry_Pilot,2022.1.3,Win32,59.94485074,62c50e9c1127f2cd403a315f,,,,,,,,,,,,,,,,,,,,,,,,,,,,,,,,,,,,,,,,,,,,,,,,,,,,,,,,,,,,,,,,,,,,,,,,,,,,,,,,,,,,,,,,,,,,,,,,,,,,,,,,,,,,,,,,,,,,,,,,,,,,,,,,,,,,,,,,,,,,,,,,,,,,,,,,,,,,,,,,,,,
0,15,15,66,1,,5e9f36a7e7a8f307cbd64a65,62c5385b1d4b666352f10f14,2022-07-06_08h23.37.711,Colour_Asymmetry_Pilot,2022.1.3,Win32,59.94485074,62c50e9c1127f2cd403a315f,,,,,,,,,,,,,,,,,,,,,,,,,,,,,,,,,,,,,,,,,,,,,,,,,,,,,,,,,,,,,,,,,,,,,,,,,,,,,,,,,,,,,,,,,,,,,,,,,,,,,,,,,,,,,,,,,,,,,,,,,,,,,,,,,,,,,,,,,,,,,,,,,,,,,,,,,,,,,,,,,,,
0,16,16,40,1,,5e9f36a7e7a8f307cbd64a65,62c5385b1d4b666352f10f14,2022-07-06_08h23.37.711,Colour_Asymmetry_Pilot,2022.1.3,Win32,59.94485074,62c50e9c1127f2cd403a315f,,,,,,,,,,,,,,,,,,,,,,,,,,,,,,,,,,,,,,,,,,,,,,,,,,,,,,,,,,,,,,,,,,,,,,,,,,,,,,,,,,,,,,,,,,,,,,,,,,,,,,,,,,,,,,,,,,,,,,,,,,,,,,,,,,,,,,,,,,,,,,,,,,,,,,,,,,,,,,,,,,,
0,17,17,39,1,,5e9f36a7e7a8f307cbd64a65,62c5385b1d4b666352f10f14,2022-07-06_08h23.37.711,Colour_Asymmetry_Pilot,2022.1.3,Win32,59.94485074,62c50e9c1127f2cd403a315f,,,,,,,,,,,,,,,,,,,,,,,,,,,,,,,,,,,,,,,,,,,,,,,,,,,,,,,,,,,,,,,,,,,,,,,,,,,,,,,,,,,,,,,,,,,,,,,,,,,,,,,,,,,,,,,,,,,,,,,,,,,,,,,,,,,,,,,,,,,,,,,,,,,,,,,,,,,,,,,,,,,
0,18,18,43,1,,5e9f36a7e7a8f307cbd64a65,62c5385b1d4b666352f10f14,2022-07-06_08h23.37.711,Colour_Asymmetry_Pilot,2022.1.3,Win32,59.94485074,62c50e9c1127f2cd403a315f,,,,,,,,,,,,,,,,,,,,,,,,,,,,,,,,,,,,,,,,,,,,,,,,,,,,,,,,,,,,,,,,,,,,,,,,,,,,,,,,,,,,,,,,,,,,,,,,,,,,,,,,,,,,,,,,,,,,,,,,,,,,,,,,,,,,,,,,,,,,,,,,,,,,,,,,,,,,,,,,,,,
0,19,19,0,1,,5e9f36a7e7a8f307cbd64a65,62c5385b1d4b666352f10f14,2022-07-06_08h23.37.711,Colour_Asymmetry_Pilot,2022.1.3,Win32,59.94485074,62c50e9c1127f2cd403a315f,,,,,,,,,,,,,,,,,,,,,,,,,,,,,,,,,,,,,,,,,,,,,,,,,,,,,,,,,,,,,,,,,,,,,,,,,,,,,,,,,,,,,,,,,,,,,,,,,,,,,,,,,,,,,,,,,,,,,,,,,,,,,,,,,,,,,,,,,,,,,,,,,,,,,,,,,,,,,,,,,,,
0,20,20,59,1,,5e9f36a7e7a8f307cbd64a65,62c5385b1d4b666352f10f14,2022-07-06_08h23.37.711,Colour_Asymmetry_Pilot,2022.1.3,Win32,59.94485074,62c50e9c1127f2cd403a315f,,,,,,,,,,,,,,,,,,,,,,,,,,,,,,,,,,,,,,,,,,,,,,,,,,,,,,,,,,,,,,,,,,,,,,,,,,,,,,,,,,,,,,,,,,,,,,,,,,,,,,,,,,,,,,,,,,,,,,,,,,,,,,,,,,,,,,,,,,,,,,,,,,,,,,,,,,,,,,,,,,,
0,21,21,1,1,,5e9f36a7e7a8f307cbd64a65,62c5385b1d4b666352f10f14,2022-07-06_08h23.37.711,Colour_Asymmetry_Pilot,2022.1.3,Win32,59.94485074,62c50e9c1127f2cd403a315f,,,,,,,,,,,,,,,,,,,,,,,,,,,,,,,,,,,,,,,,,,,,,,,,,,,,,,,,,,,,,,,,,,,,,,,,,,,,,,,,,,,,,,,,,,,,,,,,,,,,,,,,,,,,,,,,,,,,,,,,,,,,,,,,,,,,,,,,,,,,,,,,,,,,,,,,,,,,,,,,,,,
0,22,22,2,1,,5e9f36a7e7a8f307cbd64a65,62c5385b1d4b666352f10f14,2022-07-06_08h23.37.711,Colour_Asymmetry_Pilot,2022.1.3,Win32,59.94485074,62c50e9c1127f2cd403a315f,,,,,,,,,,,,,,,,,,,,,,,,,,,,,,,,,,,,,,,,,,,,,,,,,,,,,,,,,,,,,,,,,,,,,,,,,,,,,,,,,,,,,,,,,,,,,,,,,,,,,,,,,,,,,,,,,,,,,,,,,,,,,,,,,,,,,,,,,,,,,,,,,,,,,,,,,,,,,,,,,,,
0,23,23,10,1,,5e9f36a7e7a8f307cbd64a65,62c5385b1d4b666352f10f14,2022-07-06_08h23.37.711,Colour_Asymmetry_Pilot,2022.1.3,Win32,59.94485074,62c50e9c1127f2cd403a315f,,,,,,,,,,,,,,,,,,,,,,,,,,,,,,,,,,,,,,,,,,,,,,,,,,,,,,,,,,,,,,,,,,,,,,,,,,,,,,,,,,,,,,,,,,,,,,,,,,,,,,,,,,,,,,,,,,,,,,,,,,,,,,,,,,,,,,,,,,,,,,,,,,,,,,,,,,,,,,,,,,,
0,24,24,28,1,,5e9f36a7e7a8f307cbd64a65,62c5385b1d4b666352f10f14,2022-07-06_08h23.37.711,Colour_Asymmetry_Pilot,2022.1.3,Win32,59.94485074,62c50e9c1127f2cd403a315f,,,,,,,,,,,,,,,,,,,,,,,,,,,,,,,,,,,,,,,,,,,,,,,,,,,,,,,,,,,,,,,,,,,,,,,,,,,,,,,,,,,,,,,,,,,,,,,,,,,,,,,,,,,,,,,,,,,,,,,,,,,,,,,,,,,,,,,,,,,,,,,,,,,,,,,,,,,,,,,,,,,
0,25,25,56,1,,5e9f36a7e7a8f307cbd64a65,62c5385b1d4b666352f10f14,2022-07-06_08h23.37.711,Colour_Asymmetry_Pilot,2022.1.3,Win32,59.94485074,62c50e9c1127f2cd403a315f,,,,,,,,,,,,,,,,,,,,,,,,,,,,,,,,,,,,,,,,,,,,,,,,,,,,,,,,,,,,,,,,,,,,,,,,,,,,,,,,,,,,,,,,,,,,,,,,,,,,,,,,,,,,,,,,,,,,,,,,,,,,,,,,,,,,,,,,,,,,,,,,,,,,,,,,,,,,,,,,,,,
0,26,26,29,1,,5e9f36a7e7a8f307cbd64a65,62c5385b1d4b666352f10f14,2022-07-06_08h23.37.711,Colour_Asymmetry_Pilot,2022.1.3,Win32,59.94485074,62c50e9c1127f2cd403a315f,,,,,,,,,,,,,,,,,,,,,,,,,,,,,,,,,,,,,,,,,,,,,,,,,,,,,,,,,,,,,,,,,,,,,,,,,,,,,,,,,,,,,,,,,,,,,,,,,,,,,,,,,,,,,,,,,,,,,,,,,,,,,,,,,,,,,,,,,,,,,,,,,,,,,,,,,,,,,,,,,,,
0,27,27,12,1,,5e9f36a7e7a8f307cbd64a65,62c5385b1d4b666352f10f14,2022-07-06_08h23.37.711,Colour_Asymmetry_Pilot,2022.1.3,Win32,59.94485074,62c50e9c1127f2cd403a315f,,,,,,,,,,,,,,,,,,,,,,,,,,,,,,,,,,,,,,,,,,,,,,,,,,,,,,,,,,,,,,,,,,,,,,,,,,,,,,,,,,,,,,,,,,,,,,,,,,,,,,,,,,,,,,,,,,,,,,,,,,,,,,,,,,,,,,,,,,,,,,,,,,,,,,,,,,,,,,,,,,,
0,28,28,26,1,,5e9f36a7e7a8f307cbd64a65,62c5385b1d4b666352f10f14,2022-07-06_08h23.37.711,Colour_Asymmetry_Pilot,2022.1.3,Win32,59.94485074,62c50e9c1127f2cd403a315f,,,,,,,,,,,,,,,,,,,,,,,,,,,,,,,,,,,,,,,,,,,,,,,,,,,,,,,,,,,,,,,,,,,,,,,,,,,,,,,,,,,,,,,,,,,,,,,,,,,,,,,,,,,,,,,,,,,,,,,,,,,,,,,,,,,,,,,,,,,,,,,,,,,,,,,,,,,,,,,,,,,
0,29,29,68,1,,5e9f36a7e7a8f307cbd64a65,62c5385b1d4b666352f10f14,2022-07-06_08h23.37.711,Colour_Asymmetry_Pilot,2022.1.3,Win32,59.94485074,62c50e9c1127f2cd403a315f,,,,,,,,,,,,,,,,,,,,,,,,,,,,,,,,,,,,,,,,,,,,,,,,,,,,,,,,,,,,,,,,,,,,,,,,,,,,,,,,,,,,,,,,,,,,,,,,,,,,,,,,,,,,,,,,,,,,,,,,,,,,,,,,,,,,,,,,,,,,,,,,,,,,,,,,,,,,,,,,,,,
0,30,30,73,1,,5e9f36a7e7a8f307cbd64a65,62c5385b1d4b666352f10f14,2022-07-06_08h23.37.711,Colour_Asymmetry_Pilot,2022.1.3,Win32,59.94485074,62c50e9c1127f2cd403a315f,,,,,,,,,,,,,,,,,,,,,,,,,,,,,,,,,,,,,,,,,,,,,,,,,,,,,,,,,,,,,,,,,,,,,,,,,,,,,,,,,,,,,,,,,,,,,,,,,,,,,,,,,,,,,,,,,,,,,,,,,,,,,,,,,,,,,,,,,,,,,,,,,,,,,,,,,,,,,,,,,,,
0,31,31,23,1,,5e9f36a7e7a8f307cbd64a65,62c5385b1d4b666352f10f14,2022-07-06_08h23.37.711,Colour_Asymmetry_Pilot,2022.1.3,Win32,59.94485074,62c50e9c1127f2cd403a315f,,,,,,,,,,,,,,,,,,,,,,,,,,,,,,,,,,,,,,,,,,,,,,,,,,,,,,,,,,,,,,,,,,,,,,,,,,,,,,,,,,,,,,,,,,,,,,,,,,,,,,,,,,,,,,,,,,,,,,,,,,,,,,,,,,,,,,,,,,,,,,,,,,,,,,,,,,,,,,,,,,,
0,32,32,18,1,,5e9f36a7e7a8f307cbd64a65,62c5385b1d4b666352f10f14,2022-07-06_08h23.37.711,Colour_Asymmetry_Pilot,2022.1.3,Win32,59.94485074,62c50e9c1127f2cd403a315f,,,,,,,,,,,,,,,,,,,,,,,,,,,,,,,,,,,,,,,,,,,,,,,,,,,,,,,,,,,,,,,,,,,,,,,,,,,,,,,,,,,,,,,,,,,,,,,,,,,,,,,,,,,,,,,,,,,,,,,,,,,,,,,,,,,,,,,,,,,,,,,,,,,,,,,,,,,,,,,,,,,
0,33,33,30,1,,5e9f36a7e7a8f307cbd64a65,62c5385b1d4b666352f10f14,2022-07-06_08h23.37.711,Colour_Asymmetry_Pilot,2022.1.3,Win32,59.94485074,62c50e9c1127f2cd403a315f,,,,,,,,,,,,,,,,,,,,,,,,,,,,,,,,,,,,,,,,,,,,,,,,,,,,,,,,,,,,,,,,,,,,,,,,,,,,,,,,,,,,,,,,,,,,,,,,,,,,,,,,,,,,,,,,,,,,,,,,,,,,,,,,,,,,,,,,,,,,,,,,,,,,,,,,,,,,,,,,,,,
0,34,34,77,1,,5e9f36a7e7a8f307cbd64a65,62c5385b1d4b666352f10f14,2022-07-06_08h23.37.711,Colour_Asymmetry_Pilot,2022.1.3,Win32,59.94485074,62c50e9c1127f2cd403a315f,,,,,,,,,,,,,,,,,,,,,,,,,,,,,,,,,,,,,,,,,,,,,,,,,,,,,,,,,,,,,,,,,,,,,,,,,,,,,,,,,,,,,,,,,,,,,,,,,,,,,,,,,,,,,,,,,,,,,,,,,,,,,,,,,,,,,,,,,,,,,,,,,,,,,,,,,,,,,,,,,,,
0,35,35,14,1,,5e9f36a7e7a8f307cbd64a65,62c5385b1d4b666352f10f14,2022-07-06_08h23.37.711,Colour_Asymmetry_Pilot,2022.1.3,Win32,59.94485074,62c50e9c1127f2cd403a315f,,,,,,,,,,,,,,,,,,,,,,,,,,,,,,,,,,,,,,,,,,,,,,,,,,,,,,,,,,,,,,,,,,,,,,,,,,,,,,,,,,,,,,,,,,,,,,,,,,,,,,,,,,,,,,,,,,,,,,,,,,,,,,,,,,,,,,,,,,,,,,,,,,,,,,,,,,,,,,,,,,,
0,36,36,69,1,,5e9f36a7e7a8f307cbd64a65,62c5385b1d4b666352f10f14,2022-07-06_08h23.37.711,Colour_Asymmetry_Pilot,2022.1.3,Win32,59.94485074,62c50e9c1127f2cd403a315f,,,,,,,,,,,,,,,,,,,,,,,,,,,,,,,,,,,,,,,,,,,,,,,,,,,,,,,,,,,,,,,,,,,,,,,,,,,,,,,,,,,,,,,,,,,,,,,,,,,,,,,,,,,,,,,,,,,,,,,,,,,,,,,,,,,,,,,,,,,,,,,,,,,,,,,,,,,,,,,,,,,
0,37,37,42,1,,5e9f36a7e7a8f307cbd64a65,62c5385b1d4b666352f10f14,2022-07-06_08h23.37.711,Colour_Asymmetry_Pilot,2022.1.3,Win32,59.94485074,62c50e9c1127f2cd403a315f,,,,,,,,,,,,,,,,,,,,,,,,,,,,,,,,,,,,,,,,,,,,,,,,,,,,,,,,,,,,,,,,,,,,,,,,,,,,,,,,,,,,,,,,,,,,,,,,,,,,,,,,,,,,,,,,,,,,,,,,,,,,,,,,,,,,,,,,,,,,,,,,,,,,,,,,,,,,,,,,,,,
0,38,38,38,1,,5e9f36a7e7a8f307cbd64a65,62c5385b1d4b666352f10f14,2022-07-06_08h23.37.711,Colour_Asymmetry_Pilot,2022.1.3,Win32,59.94485074,62c50e9c1127f2cd403a315f,,,,,,,,,,,,,,,,,,,,,,,,,,,,,,,,,,,,,,,,,,,,,,,,,,,,,,,,,,,,,,,,,,,,,,,,,,,,,,,,,,,,,,,,,,,,,,,,,,,,,,,,,,,,,,,,,,,,,,,,,,,,,,,,,,,,,,,,,,,,,,,,,,,,,,,,,,,,,,,,,,,
0,39,39,36,1,,5e9f36a7e7a8f307cbd64a65,62c5385b1d4b666352f10f14,2022-07-06_08h23.37.711,Colour_Asymmetry_Pilot,2022.1.3,Win32,59.94485074,62c50e9c1127f2cd403a315f,,,,,,,,,,,,,,,,,,,,,,,,,,,,,,,,,,,,,,,,,,,,,,,,,,,,,,,,,,,,,,,,,,,,,,,,,,,,,,,,,,,,,,,,,,,,,,,,,,,,,,,,,,,,,,,,,,,,,,,,,,,,,,,,,,,,,,,,,,,,,,,,,,,,,,,,,,,,,,,,,,,
0,40,40,72,1,,5e9f36a7e7a8f307cbd64a65,62c5385b1d4b666352f10f14,2022-07-06_08h23.37.711,Colour_Asymmetry_Pilot,2022.1.3,Win32,59.94485074,62c50e9c1127f2cd403a315f,,,,,,,,,,,,,,,,,,,,,,,,,,,,,,,,,,,,,,,,,,,,,,,,,,,,,,,,,,,,,,,,,,,,,,,,,,,,,,,,,,,,,,,,,,,,,,,,,,,,,,,,,,,,,,,,,,,,,,,,,,,,,,,,,,,,,,,,,,,,,,,,,,,,,,,,,,,,,,,,,,,
0,41,41,58,1,,5e9f36a7e7a8f307cbd64a65,62c5385b1d4b666352f10f14,2022-07-06_08h23.37.711,Colour_Asymmetry_Pilot,2022.1.3,Win32,59.94485074,62c50e9c1127f2cd403a315f,,,,,,,,,,,,,,,,,,,,,,,,,,,,,,,,,,,,,,,,,,,,,,,,,,,,,,,,,,,,,,,,,,,,,,,,,,,,,,,,,,,,,,,,,,,,,,,,,,,,,,,,,,,,,,,,,,,,,,,,,,,,,,,,,,,,,,,,,,,,,,,,,,,,,,,,,,,,,,,,,,,
0,42,42,48,1,,5e9f36a7e7a8f307cbd64a65,62c5385b1d4b666352f10f14,2022-07-06_08h23.37.711,Colour_Asymmetry_Pilot,2022.1.3,Win32,59.94485074,62c50e9c1127f2cd403a315f,,,,,,,,,,,,,,,,,,,,,,,,,,,,,,,,,,,,,,,,,,,,,,,,,,,,,,,,,,,,,,,,,,,,,,,,,,,,,,,,,,,,,,,,,,,,,,,,,,,,,,,,,,,,,,,,,,,,,,,,,,,,,,,,,,,,,,,,,,,,,,,,,,,,,,,,,,,,,,,,,,,
0,43,43,65,1,,5e9f36a7e7a8f307cbd64a65,62c5385b1d4b666352f10f14,2022-07-06_08h23.37.711,Colour_Asymmetry_Pilot,2022.1.3,Win32,59.94485074,62c50e9c1127f2cd403a315f,,,,,,,,,,,,,,,,,,,,,,,,,,,,,,,,,,,,,,,,,,,,,,,,,,,,,,,,,,,,,,,,,,,,,,,,,,,,,,,,,,,,,,,,,,,,,,,,,,,,,,,,,,,,,,,,,,,,,,,,,,,,,,,,,,,,,,,,,,,,,,,,,,,,,,,,,,,,,,,,,,,
0,44,44,44,1,,5e9f36a7e7a8f307cbd64a65,62c5385b1d4b666352f10f14,2022-07-06_08h23.37.711,Colour_Asymmetry_Pilot,2022.1.3,Win32,59.94485074,62c50e9c1127f2cd403a315f,,,,,,,,,,,,,,,,,,,,,,,,,,,,,,,,,,,,,,,,,,,,,,,,,,,,,,,,,,,,,,,,,,,,,,,,,,,,,,,,,,,,,,,,,,,,,,,,,,,,,,,,,,,,,,,,,,,,,,,,,,,,,,,,,,,,,,,,,,,,,,,,,,,,,,,,,,,,,,,,,,,
0,45,45,3,1,,5e9f36a7e7a8f307cbd64a65,62c5385b1d4b666352f10f14,2022-07-06_08h23.37.711,Colour_Asymmetry_Pilot,2022.1.3,Win32,59.94485074,62c50e9c1127f2cd403a315f,,,,,,,,,,,,,,,,,,,,,,,,,,,,,,,,,,,,,,,,,,,,,,,,,,,,,,,,,,,,,,,,,,,,,,,,,,,,,,,,,,,,,,,,,,,,,,,,,,,,,,,,,,,,,,,,,,,,,,,,,,,,,,,,,,,,,,,,,,,,,,,,,,,,,,,,,,,,,,,,,,,
0,46,46,83,1,,5e9f36a7e7a8f307cbd64a65,62c5385b1d4b666352f10f14,2022-07-06_08h23.37.711,Colour_Asymmetry_Pilot,2022.1.3,Win32,59.94485074,62c50e9c1127f2cd403a315f,,,,,,,,,,,,,,,,,,,,,,,,,,,,,,,,,,,,,,,,,,,,,,,,,,,,,,,,,,,,,,,,,,,,,,,,,,,,,,,,,,,,,,,,,,,,,,,,,,,,,,,,,,,,,,,,,,,,,,,,,,,,,,,,,,,,,,,,,,,,,,,,,,,,,,,,,,,,,,,,,,,
0,47,47,62,1,,5e9f36a7e7a8f307cbd64a65,62c5385b1d4b666352f10f14,2022-07-06_08h23.37.711,Colour_Asymmetry_Pilot,2022.1.3,Win32,59.94485074,62c50e9c1127f2cd403a315f,,,,,,,,,,,,,,,,,,,,,,,,,,,,,,,,,,,,,,,,,,,,,,,,,,,,,,,,,,,,,,,,,,,,,,,,,,,,,,,,,,,,,,,,,,,,,,,,,,,,,,,,,,,,,,,,,,,,,,,,,,,,,,,,,,,,,,,,,,,,,,,,,,,,,,,,,,,,,,,,,,,
0,48,48,75,1,,5e9f36a7e7a8f307cbd64a65,62c5385b1d4b666352f10f14,2022-07-06_08h23.37.711,Colour_Asymmetry_Pilot,2022.1.3,Win32,59.94485074,62c50e9c1127f2cd403a315f,,,,,,,,,,,,,,,,,,,,,,,,,,,,,,,,,,,,,,,,,,,,,,,,,,,,,,,,,,,,,,,,,,,,,,,,,,,,,,,,,,,,,,,,,,,,,,,,,,,,,,,,,,,,,,,,,,,,,,,,,,,,,,,,,,,,,,,,,,,,,,,,,,,,,,,,,,,,,,,,,,,
0,49,49,5,1,,5e9f36a7e7a8f307cbd64a65,62c5385b1d4b666352f10f14,2022-07-06_08h23.37.711,Colour_Asymmetry_Pilot,2022.1.3,Win32,59.94485074,62c50e9c1127f2cd403a315f,,,,,,,,,,,,,,,,,,,,,,,,,,,,,,,,,,,,,,,,,,,,,,,,,,,,,,,,,,,,,,,,,,,,,,,,,,,,,,,,,,,,,,,,,,,,,,,,,,,,,,,,,,,,,,,,,,,,,,,,,,,,,,,,,,,,,,,,,,,,,,,,,,,,,,,,,,,,,,,,,,,
0,50,50,81,1,,5e9f36a7e7a8f307cbd64a65,62c5385b1d4b666352f10f14,2022-07-06_08h23.37.711,Colour_Asymmetry_Pilot,2022.1.3,Win32,59.94485074,62c50e9c1127f2cd403a315f,,,,,,,,,,,,,,,,,,,,,,,,,,,,,,,,,,,,,,,,,,,,,,,,,,,,,,,,,,,,,,,,,,,,,,,,,,,,,,,,,,,,,,,,,,,,,,,,,,,,,,,,,,,,,,,,,,,,,,,,,,,,,,,,,,,,,,,,,,,,,,,,,,,,,,,,,,,,,,,,,,,
0,51,51,71,1,,5e9f36a7e7a8f307cbd64a65,62c5385b1d4b666352f10f14,2022-07-06_08h23.37.711,Colour_Asymmetry_Pilot,2022.1.3,Win32,59.94485074,62c50e9c1127f2cd403a315f,,,,,,,,,,,,,,,,,,,,,,,,,,,,,,,,,,,,,,,,,,,,,,,,,,,,,,,,,,,,,,,,,,,,,,,,,,,,,,,,,,,,,,,,,,,,,,,,,,,,,,,,,,,,,,,,,,,,,,,,,,,,,,,,,,,,,,,,,,,,,,,,,,,,,,,,,,,,,,,,,,,
0,52,52,60,1,,5e9f36a7e7a8f307cbd64a65,62c5385b1d4b666352f10f14,2022-07-06_08h23.37.711,Colour_Asymmetry_Pilot,2022.1.3,Win32,59.94485074,62c50e9c1127f2cd403a315f,,,,,,,,,,,,,,,,,,,,,,,,,,,,,,,,,,,,,,,,,,,,,,,,,,,,,,,,,,,,,,,,,,,,,,,,,,,,,,,,,,,,,,,,,,,,,,,,,,,,,,,,,,,,,,,,,,,,,,,,,,,,,,,,,,,,,,,,,,,,,,,,,,,,,,,,,,,,,,,,,,,
0,53,53,13,1,,5e9f36a7e7a8f307cbd64a65,62c5385b1d4b666352f10f14,2022-07-06_08h23.37.711,Colour_Asymmetry_Pilot,2022.1.3,Win32,59.94485074,62c50e9c1127f2cd403a315f,,,,,,,,,,,,,,,,,,,,,,,,,,,,,,,,,,,,,,,,,,,,,,,,,,,,,,,,,,,,,,,,,,,,,,,,,,,,,,,,,,,,,,,,,,,,,,,,,,,,,,,,,,,,,,,,,,,,,,,,,,,,,,,,,,,,,,,,,,,,,,,,,,,,,,,,,,,,,,,,,,,
0,54,54,78,1,,5e9f36a7e7a8f307cbd64a65,62c5385b1d4b666352f10f14,2022-07-06_08h23.37.711,Colour_Asymmetry_Pilot,2022.1.3,Win32,59.94485074,62c50e9c1127f2cd403a315f,,,,,,,,,,,,,,,,,,,,,,,,,,,,,,,,,,,,,,,,,,,,,,,,,,,,,,,,,,,,,,,,,,,,,,,,,,,,,,,,,,,,,,,,,,,,,,,,,,,,,,,,,,,,,,,,,,,,,,,,,,,,,,,,,,,,,,,,,,,,,,,,,,,,,,,,,,,,,,,,,,,
0,55,55,85,1,,5e9f36a7e7a8f307cbd64a65,62c5385b1d4b666352f10f14,2022-07-06_08h23.37.711,Colour_Asymmetry_Pilot,2022.1.3,Win32,59.94485074,62c50e9c1127f2cd403a315f,,,,,,,,,,,,,,,,,,,,,,,,,,,,,,,,,,,,,,,,,,,,,,,,,,,,,,,,,,,,,,,,,,,,,,,,,,,,,,,,,,,,,,,,,,,,,,,,,,,,,,,,,,,,,,,,,,,,,,,,,,,,,,,,,,,,,,,,,,,,,,,,,,,,,,,,,,,,,,,,,,,
0,56,56,20,1,,5e9f36a7e7a8f307cbd64a65,62c5385b1d4b666352f10f14,2022-07-06_08h23.37.711,Colour_Asymmetry_Pilot,2022.1.3,Win32,59.94485074,62c50e9c1127f2cd403a315f,,,,,,,,,,,,,,,,,,,,,,,,,,,,,,,,,,,,,,,,,,,,,,,,,,,,,,,,,,,,,,,,,,,,,,,,,,,,,,,,,,,,,,,,,,,,,,,,,,,,,,,,,,,,,,,,,,,,,,,,,,,,,,,,,,,,,,,,,,,,,,,,,,,,,,,,,,,,,,,,,,,
0,57,57,90,1,,5e9f36a7e7a8f307cbd64a65,62c5385b1d4b666352f10f14,2022-07-06_08h23.37.711,Colour_Asymmetry_Pilot,2022.1.3,Win32,59.94485074,62c50e9c1127f2cd403a315f,,,,,,,,,,,,,,,,,,,,,,,,,,,,,,,,,,,,,,,,,,,,,,,,,,,,,,,,,,,,,,,,,,,,,,,,,,,,,,,,,,,,,,,,,,,,,,,,,,,,,,,,,,,,,,,,,,,,,,,,,,,,,,,,,,,,,,,,,,,,,,,,,,,,,,,,,,,,,,,,,,,
0,58,58,19,1,,5e9f36a7e7a8f307cbd64a65,62c5385b1d4b666352f10f14,2022-07-06_08h23.37.711,Colour_Asymmetry_Pilot,2022.1.3,Win32,59.94485074,62c50e9c1127f2cd403a315f,,,,,,,,,,,,,,,,,,,,,,,,,,,,,,,,,,,,,,,,,,,,,,,,,,,,,,,,,,,,,,,,,,,,,,,,,,,,,,,,,,,,,,,,,,,,,,,,,,,,,,,,,,,,,,,,,,,,,,,,,,,,,,,,,,,,,,,,,,,,,,,,,,,,,,,,,,,,,,,,,,,
0,59,59,61,1,,5e9f36a7e7a8f307cbd64a65,62c5385b1d4b666352f10f14,2022-07-06_08h23.37.711,Colour_Asymmetry_Pilot,2022.1.3,Win32,59.94485074,62c50e9c1127f2cd403a315f,,,,,,,,,,,,,,,,,,,,,,,,,,,,,,,,,,,,,,,,,,,,,,,,,,,,,,,,,,,,,,,,,,,,,,,,,,,,,,,,,,,,,,,,,,,,,,,,,,,,,,,,,,,,,,,,,,,,,,,,,,,,,,,,,,,,,,,,,,,,,,,,,,,,,,,,,,,,,,,,,,,
0,60,60,51,1,,5e9f36a7e7a8f307cbd64a65,62c5385b1d4b666352f10f14,2022-07-06_08h23.37.711,Colour_Asymmetry_Pilot,2022.1.3,Win32,59.94485074,62c50e9c1127f2cd403a315f,,,,,,,,,,,,,,,,,,,,,,,,,,,,,,,,,,,,,,,,,,,,,,,,,,,,,,,,,,,,,,,,,,,,,,,,,,,,,,,,,,,,,,,,,,,,,,,,,,,,,,,,,,,,,,,,,,,,,,,,,,,,,,,,,,,,,,,,,,,,,,,,,,,,,,,,,,,,,,,,,,,
0,61,61,15,1,,5e9f36a7e7a8f307cbd64a65,62c5385b1d4b666352f10f14,2022-07-06_08h23.37.711,Colour_Asymmetry_Pilot,2022.1.3,Win32,59.94485074,62c50e9c1127f2cd403a315f,,,,,,,,,,,,,,,,,,,,,,,,,,,,,,,,,,,,,,,,,,,,,,,,,,,,,,,,,,,,,,,,,,,,,,,,,,,,,,,,,,,,,,,,,,,,,,,,,,,,,,,,,,,,,,,,,,,,,,,,,,,,,,,,,,,,,,,,,,,,,,,,,,,,,,,,,,,,,,,,,,,
0,62,62,41,1,,5e9f36a7e7a8f307cbd64a65,62c5385b1d4b666352f10f14,2022-07-06_08h23.37.711,Colour_Asymmetry_Pilot,2022.1.3,Win32,59.94485074,62c50e9c1127f2cd403a315f,,,,,,,,,,,,,,,,,,,,,,,,,,,,,,,,,,,,,,,,,,,,,,,,,,,,,,,,,,,,,,,,,,,,,,,,,,,,,,,,,,,,,,,,,,,,,,,,,,,,,,,,,,,,,,,,,,,,,,,,,,,,,,,,,,,,,,,,,,,,,,,,,,,,,,,,,,,,,,,,,,,
0,63,63,92,1,,5e9f36a7e7a8f307cbd64a65,62c5385b1d4b666352f10f14,2022-07-06_08h23.37.711,Colour_Asymmetry_Pilot,2022.1.3,Win32,59.94485074,62c50e9c1127f2cd403a315f,,,,,,,,,,,,,,,,,,,,,,,,,,,,,,,,,,,,,,,,,,,,,,,,,,,,,,,,,,,,,,,,,,,,,,,,,,,,,,,,,,,,,,,,,,,,,,,,,,,,,,,,,,,,,,,,,,,,,,,,,,,,,,,,,,,,,,,,,,,,,,,,,,,,,,,,,,,,,,,,,,,
0,64,64,76,1,,5e9f36a7e7a8f307cbd64a65,62c5385b1d4b666352f10f14,2022-07-06_08h23.37.711,Colour_Asymmetry_Pilot,2022.1.3,Win32,59.94485074,62c50e9c1127f2cd403a315f,,,,,,,,,,,,,,,,,,,,,,,,,,,,,,,,,,,,,,,,,,,,,,,,,,,,,,,,,,,,,,,,,,,,,,,,,,,,,,,,,,,,,,,,,,,,,,,,,,,,,,,,,,,,,,,,,,,,,,,,,,,,,,,,,,,,,,,,,,,,,,,,,,,,,,,,,,,,,,,,,,,
0,65,65,86,1,,5e9f36a7e7a8f307cbd64a65,62c5385b1d4b666352f10f14,2022-07-06_08h23.37.711,Colour_Asymmetry_Pilot,2022.1.3,Win32,59.94485074,62c50e9c1127f2cd403a315f,,,,,,,,,,,,,,,,,,,,,,,,,,,,,,,,,,,,,,,,,,,,,,,,,,,,,,,,,,,,,,,,,,,,,,,,,,,,,,,,,,,,,,,,,,,,,,,,,,,,,,,,,,,,,,,,,,,,,,,,,,,,,,,,,,,,,,,,,,,,,,,,,,,,,,,,,,,,,,,,,,,
0,66,66,89,1,,5e9f36a7e7a8f307cbd64a65,62c5385b1d4b666352f10f14,2022-07-06_08h23.37.711,Colour_Asymmetry_Pilot,2022.1.3,Win32,59.94485074,62c50e9c1127f2cd403a315f,,,,,,,,,,,,,,,,,,,,,,,,,,,,,,,,,,,,,,,,,,,,,,,,,,,,,,,,,,,,,,,,,,,,,,,,,,,,,,,,,,,,,,,,,,,,,,,,,,,,,,,,,,,,,,,,,,,,,,,,,,,,,,,,,,,,,,,,,,,,,,,,,,,,,,,,,,,,,,,,,,,
0,67,67,64,1,,5e9f36a7e7a8f307cbd64a65,62c5385b1d4b666352f10f14,2022-07-06_08h23.37.711,Colour_Asymmetry_Pilot,2022.1.3,Win32,59.94485074,62c50e9c1127f2cd403a315f,,,,,,,,,,,,,,,,,,,,,,,,,,,,,,,,,,,,,,,,,,,,,,,,,,,,,,,,,,,,,,,,,,,,,,,,,,,,,,,,,,,,,,,,,,,,,,,,,,,,,,,,,,,,,,,,,,,,,,,,,,,,,,,,,,,,,,,,,,,,,,,,,,,,,,,,,,,,,,,,,,,
0,68,68,47,1,,5e9f36a7e7a8f307cbd64a65,62c5385b1d4b666352f10f14,2022-07-06_08h23.37.711,Colour_Asymmetry_Pilot,2022.1.3,Win32,59.94485074,62c50e9c1127f2cd403a315f,,,,,,,,,,,,,,,,,,,,,,,,,,,,,,,,,,,,,,,,,,,,,,,,,,,,,,,,,,,,,,,,,,,,,,,,,,,,,,,,,,,,,,,,,,,,,,,,,,,,,,,,,,,,,,,,,,,,,,,,,,,,,,,,,,,,,,,,,,,,,,,,,,,,,,,,,,,,,,,,,,,
0,69,69,53,1,,5e9f36a7e7a8f307cbd64a65,62c5385b1d4b666352f10f14,2022-07-06_08h23.37.711,Colour_Asymmetry_Pilot,2022.1.3,Win32,59.94485074,62c50e9c1127f2cd403a315f,,,,,,,,,,,,,,,,,,,,,,,,,,,,,,,,,,,,,,,,,,,,,,,,,,,,,,,,,,,,,,,,,,,,,,,,,,,,,,,,,,,,,,,,,,,,,,,,,,,,,,,,,,,,,,,,,,,,,,,,,,,,,,,,,,,,,,,,,,,,,,,,,,,,,,,,,,,,,,,,,,,
0,70,70,45,1,,5e9f36a7e7a8f307cbd64a65,62c5385b1d4b666352f10f14,2022-07-06_08h23.37.711,Colour_Asymmetry_Pilot,2022.1.3,Win32,59.94485074,62c50e9c1127f2cd403a315f,,,,,,,,,,,,,,,,,,,,,,,,,,,,,,,,,,,,,,,,,,,,,,,,,,,,,,,,,,,,,,,,,,,,,,,,,,,,,,,,,,,,,,,,,,,,,,,,,,,,,,,,,,,,,,,,,,,,,,,,,,,,,,,,,,,,,,,,,,,,,,,,,,,,,,,,,,,,,,,,,,,
0,71,71,70,1,,5e9f36a7e7a8f307cbd64a65,62c5385b1d4b666352f10f14,2022-07-06_08h23.37.711,Colour_Asymmetry_Pilot,2022.1.3,Win32,59.94485074,62c50e9c1127f2cd403a315f,,,,,,,,,,,,,,,,,,,,,,,,,,,,,,,,,,,,,,,,,,,,,,,,,,,,,,,,,,,,,,,,,,,,,,,,,,,,,,,,,,,,,,,,,,,,,,,,,,,,,,,,,,,,,,,,,,,,,,,,,,,,,,,,,,,,,,,,,,,,,,,,,,,,,,,,,,,,,,,,,,,
0,72,72,80,1,,5e9f36a7e7a8f307cbd64a65,62c5385b1d4b666352f10f14,2022-07-06_08h23.37.711,Colour_Asymmetry_Pilot,2022.1.3,Win32,59.94485074,62c50e9c1127f2cd403a315f,,,,,,,,,,,,,,,,,,,,,,,,,,,,,,,,,,,,,,,,,,,,,,,,,,,,,,,,,,,,,,,,,,,,,,,,,,,,,,,,,,,,,,,,,,,,,,,,,,,,,,,,,,,,,,,,,,,,,,,,,,,,,,,,,,,,,,,,,,,,,,,,,,,,,,,,,,,,,,,,,,,
0,73,73,67,1,,5e9f36a7e7a8f307cbd64a65,62c5385b1d4b666352f10f14,2022-07-06_08h23.37.711,Colour_Asymmetry_Pilot,2022.1.3,Win32,59.94485074,62c50e9c1127f2cd403a315f,,,,,,,,,,,,,,,,,,,,,,,,,,,,,,,,,,,,,,,,,,,,,,,,,,,,,,,,,,,,,,,,,,,,,,,,,,,,,,,,,,,,,,,,,,,,,,,,,,,,,,,,,,,,,,,,,,,,,,,,,,,,,,,,,,,,,,,,,,,,,,,,,,,,,,,,,,,,,,,,,,,
0,74,74,24,1,,5e9f36a7e7a8f307cbd64a65,62c5385b1d4b666352f10f14,2022-07-06_08h23.37.711,Colour_Asymmetry_Pilot,2022.1.3,Win32,59.94485074,62c50e9c1127f2cd403a315f,,,,,,,,,,,,,,,,,,,,,,,,,,,,,,,,,,,,,,,,,,,,,,,,,,,,,,,,,,,,,,,,,,,,,,,,,,,,,,,,,,,,,,,,,,,,,,,,,,,,,,,,,,,,,,,,,,,,,,,,,,,,,,,,,,,,,,,,,,,,,,,,,,,,,,,,,,,,,,,,,,,
0,75,75,35,1,,5e9f36a7e7a8f307cbd64a65,62c5385b1d4b666352f10f14,2022-07-06_08h23.37.711,Colour_Asymmetry_Pilot,2022.1.3,Win32,59.94485074,62c50e9c1127f2cd403a315f,,,,,,,,,,,,,,,,,,,,,,,,,,,,,,,,,,,,,,,,,,,,,,,,,,,,,,,,,,,,,,,,,,,,,,,,,,,,,,,,,,,,,,,,,,,,,,,,,,,,,,,,,,,,,,,,,,,,,,,,,,,,,,,,,,,,,,,,,,,,,,,,,,,,,,,,,,,,,,,,,,,
0,76,76,6,1,,5e9f36a7e7a8f307cbd64a65,62c5385b1d4b666352f10f14,2022-07-06_08h23.37.711,Colour_Asymmetry_Pilot,2022.1.3,Win32,59.94485074,62c50e9c1127f2cd403a315f,,,,,,,,,,,,,,,,,,,,,,,,,,,,,,,,,,,,,,,,,,,,,,,,,,,,,,,,,,,,,,,,,,,,,,,,,,,,,,,,,,,,,,,,,,,,,,,,,,,,,,,,,,,,,,,,,,,,,,,,,,,,,,,,,,,,,,,,,,,,,,,,,,,,,,,,,,,,,,,,,,,
0,77,77,88,1,,5e9f36a7e7a8f307cbd64a65,62c5385b1d4b666352f10f14,2022-07-06_08h23.37.711,Colour_Asymmetry_Pilot,2022.1.3,Win32,59.94485074,62c50e9c1127f2cd403a315f,,,,,,,,,,,,,,,,,,,,,,,,,,,,,,,,,,,,,,,,,,,,,,,,,,,,,,,,,,,,,,,,,,,,,,,,,,,,,,,,,,,,,,,,,,,,,,,,,,,,,,,,,,,,,,,,,,,,,,,,,,,,,,,,,,,,,,,,,,,,,,,,,,,,,,,,,,,,,,,,,,,
0,78,78,11,1,,5e9f36a7e7a8f307cbd64a65,62c5385b1d4b666352f10f14,2022-07-06_08h23.37.711,Colour_Asymmetry_Pilot,2022.1.3,Win32,59.94485074,62c50e9c1127f2cd403a315f,,,,,,,,,,,,,,,,,,,,,,,,,,,,,,,,,,,,,,,,,,,,,,,,,,,,,,,,,,,,,,,,,,,,,,,,,,,,,,,,,,,,,,,,,,,,,,,,,,,,,,,,,,,,,,,,,,,,,,,,,,,,,,,,,,,,,,,,,,,,,,,,,,,,,,,,,,,,,,,,,,,
0,79,79,91,1,,5e9f36a7e7a8f307cbd64a65,62c5385b1d4b666352f10f14,2022-07-06_08h23.37.711,Colour_Asymmetry_Pilot,2022.1.3,Win32,59.94485074,62c50e9c1127f2cd403a315f,,,,,,,,,,,,,,,,,,,,,,,,,,,,,,,,,,,,,,,,,,,,,,,,,,,,,,,,,,,,,,,,,,,,,,,,,,,,,,,,,,,,,,,,,,,,,,,,,,,,,,,,,,,,,,,,,,,,,,,,,,,,,,,,,,,,,,,,,,,,,,,,,,,,,,,,,,,,,,,,,,,
0,80,80,25,1,,5e9f36a7e7a8f307cbd64a65,62c5385b1d4b666352f10f14,2022-07-06_08h23.37.711,Colour_Asymmetry_Pilot,2022.1.3,Win32,59.94485074,62c50e9c1127f2cd403a315f,,,,,,,,,,,,,,,,,,,,,,,,,,,,,,,,,,,,,,,,,,,,,,,,,,,,,,,,,,,,,,,,,,,,,,,,,,,,,,,,,,,,,,,,,,,,,,,,,,,,,,,,,,,,,,,,,,,,,,,,,,,,,,,,,,,,,,,,,,,,,,,,,,,,,,,,,,,,,,,,,,,
0,81,81,32,1,,5e9f36a7e7a8f307cbd64a65,62c5385b1d4b666352f10f14,2022-07-06_08h23.37.711,Colour_Asymmetry_Pilot,2022.1.3,Win32,59.94485074,62c50e9c1127f2cd403a315f,,,,,,,,,,,,,,,,,,,,,,,,,,,,,,,,,,,,,,,,,,,,,,,,,,,,,,,,,,,,,,,,,,,,,,,,,,,,,,,,,,,,,,,,,,,,,,,,,,,,,,,,,,,,,,,,,,,,,,,,,,,,,,,,,,,,,,,,,,,,,,,,,,,,,,,,,,,,,,,,,,,
0,82,82,17,1,,5e9f36a7e7a8f307cbd64a65,62c5385b1d4b666352f10f14,2022-07-06_08h23.37.711,Colour_Asymmetry_Pilot,2022.1.3,Win32,59.94485074,62c50e9c1127f2cd403a315f,,,,,,,,,,,,,,,,,,,,,,,,,,,,,,,,,,,,,,,,,,,,,,,,,,,,,,,,,,,,,,,,,,,,,,,,,,,,,,,,,,,,,,,,,,,,,,,,,,,,,,,,,,,,,,,,,,,,,,,,,,,,,,,,,,,,,,,,,,,,,,,,,,,,,,,,,,,,,,,,,,,
0,83,83,50,1,,5e9f36a7e7a8f307cbd64a65,62c5385b1d4b666352f10f14,2022-07-06_08h23.37.711,Colour_Asymmetry_Pilot,2022.1.3,Win32,59.94485074,62c50e9c1127f2cd403a315f,,,,,,,,,,,,,,,,,,,,,,,,,,,,,,,,,,,,,,,,,,,,,,,,,,,,,,,,,,,,,,,,,,,,,,,,,,,,,,,,,,,,,,,,,,,,,,,,,,,,,,,,,,,,,,,,,,,,,,,,,,,,,,,,,,,,,,,,,,,,,,,,,,,,,,,,,,,,,,,,,,,
0,84,84,4,1,,5e9f36a7e7a8f307cbd64a65,62c5385b1d4b666352f10f14,2022-07-06_08h23.37.711,Colour_Asymmetry_Pilot,2022.1.3,Win32,59.94485074,62c50e9c1127f2cd403a315f,,,,,,,,,,,,,,,,,,,,,,,,,,,,,,,,,,,,,,,,,,,,,,,,,,,,,,,,,,,,,,,,,,,,,,,,,,,,,,,,,,,,,,,,,,,,,,,,,,,,,,,,,,,,,,,,,,,,,,,,,,,,,,,,,,,,,,,,,,,,,,,,,,,,,,,,,,,,,,,,,,,
0,85,85,54,1,,5e9f36a7e7a8f307cbd64a65,62c5385b1d4b666352f10f14,2022-07-06_08h23.37.711,Colour_Asymmetry_Pilot,2022.1.3,Win32,59.94485074,62c50e9c1127f2cd403a315f,,,,,,,,,,,,,,,,,,,,,,,,,,,,,,,,,,,,,,,,,,,,,,,,,,,,,,,,,,,,,,,,,,,,,,,,,,,,,,,,,,,,,,,,,,,,,,,,,,,,,,,,,,,,,,,,,,,,,,,,,,,,,,,,,,,,,,,,,,,,,,,,,,,,,,,,,,,,,,,,,,,
0,86,86,84,1,,5e9f36a7e7a8f307cbd64a65,62c5385b1d4b666352f10f14,2022-07-06_08h23.37.711,Colour_Asymmetry_Pilot,2022.1.3,Win32,59.94485074,62c50e9c1127f2cd403a315f,,,,,,,,,,,,,,,,,,,,,,,,,,,,,,,,,,,,,,,,,,,,,,,,,,,,,,,,,,,,,,,,,,,,,,,,,,,,,,,,,,,,,,,,,,,,,,,,,,,,,,,,,,,,,,,,,,,,,,,,,,,,,,,,,,,,,,,,,,,,,,,,,,,,,,,,,,,,,,,,,,,
0,87,87,63,1,,5e9f36a7e7a8f307cbd64a65,62c5385b1d4b666352f10f14,2022-07-06_08h23.37.711,Colour_Asymmetry_Pilot,2022.1.3,Win32,59.94485074,62c50e9c1127f2cd403a315f,,,,,,,,,,,,,,,,,,,,,,,,,,,,,,,,,,,,,,,,,,,,,,,,,,,,,,,,,,,,,,,,,,,,,,,,,,,,,,,,,,,,,,,,,,,,,,,,,,,,,,,,,,,,,,,,,,,,,,,,,,,,,,,,,,,,,,,,,,,,,,,,,,,,,,,,,,,,,,,,,,,
0,88,88,49,1,,5e9f36a7e7a8f307cbd64a65,62c5385b1d4b666352f10f14,2022-07-06_08h23.37.711,Colour_Asymmetry_Pilot,2022.1.3,Win32,59.94485074,62c50e9c1127f2cd403a315f,,,,,,,,,,,,,,,,,,,,,,,,,,,,,,,,,,,,,,,,,,,,,,,,,,,,,,,,,,,,,,,,,,,,,,,,,,,,,,,,,,,,,,,,,,,,,,,,,,,,,,,,,,,,,,,,,,,,,,,,,,,,,,,,,,,,,,,,,,,,,,,,,,,,,,,,,,,,,,,,,,,
0,89,89,16,1,,5e9f36a7e7a8f307cbd64a65,62c5385b1d4b666352f10f14,2022-07-06_08h23.37.711,Colour_Asymmetry_Pilot,2022.1.3,Win32,59.94485074,62c50e9c1127f2cd403a315f,,,,,,,,,,,,,,,,,,,,,,,,,,,,,,,,,,,,,,,,,,,,,,,,,,,,,,,,,,,,,,,,,,,,,,,,,,,,,,,,,,,,,,,,,,,,,,,,,,,,,,,,,,,,,,,,,,,,,,,,,,,,,,,,,,,,,,,,,,,,,,,,,,,,,,,,,,,,,,,,,,,
0,90,90,55,1,,5e9f36a7e7a8f307cbd64a65,62c5385b1d4b666352f10f14,2022-07-06_08h23.37.711,Colour_Asymmetry_Pilot,2022.1.3,Win32,59.94485074,62c50e9c1127f2cd403a315f,,,,,,,,,,,,,,,,,,,,,,,,,,,,,,,,,,,,,,,,,,,,,,,,,,,,,,,,,,,,,,,,,,,,,,,,,,,,,,,,,,,,,,,,,,,,,,,,,,,,,,,,,,,,,,,,,,,,,,,,,,,,,,,,,,,,,,,,,,,,,,,,,,,,,,,,,,,,,,,,,,,
0,91,91,87,1,,5e9f36a7e7a8f307cbd64a65,62c5385b1d4b666352f10f14,2022-07-06_08h23.37.711,Colour_Asymmetry_Pilot,2022.1.3,Win32,59.94485074,62c50e9c1127f2cd403a315f,,,,,,,,,,,,,,,,,,,,,,,,,,,,,,,,,,,,,,,,,,,,,,,,,,,,,,,,,,,,,,,,,,,,,,,,,,,,,,,,,,,,,,,,,,,,,,,,,,,,,,,,,,,,,,,,,,,,,,,,,,,,,,,,,,,,,,,,,,,,,,,,,,,,,,,,,,,,,,,,,,,
0,92,92,9,1,,5e9f36a7e7a8f307cbd64a65,62c5385b1d4b666352f10f14,2022-07-06_08h23.37.711,Colour_Asymmetry_Pilot,2022.1.3,Win32,59.94485074,62c50e9c1127f2cd403a315f,,,,,,,,,,,,,,,,,,,,,,,,,,,,,,,,,,,,,,,,,,,,,,,,,,,,,,,,,,,,,,,,,,,,,,,,,,,,,,,,,,,,,,,,,,,,,,,,,,,,,,,,,,,,,,,,,,,,,,,,,,,,,,,,,,,,,,,,,,,,,,,,,,,,,,,,,,,,,,,,,,,
,,,,,,5e9f36a7e7a8f307cbd64a65,62c5385b1d4b666352f10f14,2022-07-06_08h23.37.711,Colour_Asymmetry_Pilot,2022.1.3,Win32,59.94485074,62c50e9c1127f2cd403a315f,0,0,0,53,1,threefour,,,,,,,,,,,,,,,,,,,,,,,,,,,,,,,,,,,,,,,,,,,,,,,,,,,,,,,,,,,,,,,,,,,,,,,,,,,,,,,,,,,,,,,,,,,,,,,,,,,,,,,,,,,,,,,,,,,,,,,,,,,,,,,,,,,,,,,,,,,,,,,,,,,,,,,,,,,,,
,,,,,,5e9f36a7e7a8f307cbd64a65,62c5385b1d4b666352f10f14,2022-07-06_08h23.37.711,Colour_Asymmetry_Pilot,2022.1.3,Win32,59.94485074,62c50e9c1127f2cd403a315f,0,1,1,56,1,onetwo,,,,,,,,,,,,,,,,,,,,,,,,,,,,,,,,,,,,,,,,,,,,,,,,,,,,,,,,,,,,,,,,,,,,,,,,,,,,,,,,,,,,,,,,,,,,,,,,,,,,,,,,,,,,,,,,,,,,,,,,,,,,,,,,,,,,,,,,,,,,,,,,,,,,,,,,,,,,,
,,,,,,5e9f36a7e7a8f307cbd64a65,62c5385b1d4b666352f10f14,2022-07-06_08h23.37.711,Colour_Asymmetry_Pilot,2022.1.3,Win32,59.94485074,62c50e9c1127f2cd403a315f,0,2,2,148,1,threeone,,,,,,,,,,,,,,,,,,,,,,,,,,,,,,,,,,,,,,,,,,,,,,,,,,,,,,,,,,,,,,,,,,,,,,,,,,,,,,,,,,,,,,,,,,,,,,,,,,,,,,,,,,,,,,,,,,,,,,,,,,,,,,,,,,,,,,,,,,,,,,,,,,,,,,,,,,,,,
,,,,,,5e9f36a7e7a8f307cbd64a65,62c5385b1d4b666352f10f14,2022-07-06_08h23.37.711,Colour_Asymmetry_Pilot,2022.1.3,Win32,59.94485074,62c50e9c1127f2cd403a315f,0,3,3,31,1,fourthree,,,,,,,,,,,,,,,,,,,,,,,,,,,,,,,,,,,,,,,,,,,,,,,,,,,,,,,,,,,,,,,,,,,,,,,,,,,,,,,,,,,,,,,,,,,,,,,,,,,,,,,,,,,,,,,,,,,,,,,,,,,,,,,,,,,,,,,,,,,,,,,,,,,,,,,,,,,,,
,,,,,,5e9f36a7e7a8f307cbd64a65,62c5385b1d4b666352f10f14,2022-07-06_08h23.37.711,Colour_Asymmetry_Pilot,2022.1.3,Win32,59.94485074,62c50e9c1127f2cd403a315f,0,4,4,35,1,twofour,,,,,,,,,,,,,,,,,,,,,,,,,,,,,,,,,,,,,,,,,,,,,,,,,,,,,,,,,,,,,,,,,,,,,,,,,,,,,,,,,,,,,,,,,,,,,,,,,,,,,,,,,,,,,,,,,,,,,,,,,,,,,,,,,,,,,,,,,,,,,,,,,,,,,,,,,,,,,
,,,,,,5e9f36a7e7a8f307cbd64a65,62c5385b1d4b666352f10f14,2022-07-06_08h23.37.711,Colour_Asymmetry_Pilot,2022.1.3,Win32,59.94485074,62c50e9c1127f2cd403a315f,0,5,5,16,1,onetwo,,,,,,,,,,,,,,,,,,,,,,,,,,,,,,,,,,,,,,,,,,,,,,,,,,,,,,,,,,,,,,,,,,,,,,,,,,,,,,,,,,,,,,,,,,,,,,,,,,,,,,,,,,,,,,,,,,,,,,,,,,,,,,,,,,,,,,,,,,,,,,,,,,,,,,,,,,,,,
,,,,,,5e9f36a7e7a8f307cbd64a65,62c5385b1d4b666352f10f14,2022-07-06_08h23.37.711,Colour_Asymmetry_Pilot,2022.1.3,Win32,59.94485074,62c50e9c1127f2cd403a315f,0,6,6,52,1,threeone,,,,,,,,,,,,,,,,,,,,,,,,,,,,,,,,,,,,,,,,,,,,,,,,,,,,,,,,,,,,,,,,,,,,,,,,,,,,,,,,,,,,,,,,,,,,,,,,,,,,,,,,,,,,,,,,,,,,,,,,,,,,,,,,,,,,,,,,,,,,,,,,,,,,,,,,,,,,,
,,,,,,5e9f36a7e7a8f307cbd64a65,62c5385b1d4b666352f10f14,2022-07-06_08h23.37.711,Colour_Asymmetry_Pilot,2022.1.3,Win32,59.94485074,62c50e9c1127f2cd403a315f,0,7,7,138,1,twoone,,,,,,,,,,,,,,,,,,,,,,,,,,,,,,,,,,,,,,,,,,,,,,,,,,,,,,,,,,,,,,,,,,,,,,,,,,,,,,,,,,,,,,,,,,,,,,,,,,,,,,,,,,,,,,,,,,,,,,,,,,,,,,,,,,,,,,,,,,,,,,,,,,,,,,,,,,,,,
,,,,,,5e9f36a7e7a8f307cbd64a65,62c5385b1d4b666352f10f14,2022-07-06_08h23.37.711,Colour_Asymmetry_Pilot,2022.1.3,Win32,59.94485074,62c50e9c1127f2cd403a315f,0,8,8,66,1,twoone,,,,,,,,,,,,,,,,,,,,,,,,,,,,,,,,,,,,,,,,,,,,,,,,,,,,,,,,,,,,,,,,,,,,,,,,,,,,,,,,,,,,,,,,,,,,,,,,,,,,,,,,,,,,,,,,,,,,,,,,,,,,,,,,,,,,,,,,,,,,,,,,,,,,,,,,,,,,,
,,,,,,5e9f36a7e7a8f307cbd64a65,62c5385b1d4b666352f10f14,2022-07-06_08h23.37.711,Colour_Asymmetry_Pilot,2022.1.3,Win32,59.94485074,62c50e9c1127f2cd403a315f,0,9,9,18,1,twoone,,,,,,,,,,,,,,,,,,,,,,,,,,,,,,,,,,,,,,,,,,,,,,,,,,,,,,,,,,,,,,,,,,,,,,,,,,,,,,,,,,,,,,,,,,,,,,,,,,,,,,,,,,,,,,,,,,,,,,,,,,,,,,,,,,,,,,,,,,,,,,,,,,,,,,,,,,,,,
,,,,,,5e9f36a7e7a8f307cbd64a65,62c5385b1d4b666352f10f14,2022-07-06_08h23.37.711,Colour_Asymmetry_Pilot,2022.1.3,Win32,59.94485074,62c50e9c1127f2cd403a315f,0,10,10,145,1,onethree,,,,,,,,,,,,,,,,,,,,,,,,,,,,,,,,,,,,,,,,,,,,,,,,,,,,,,,,,,,,,,,,,,,,,,,,,,,,,,,,,,,,,,,,,,,,,,,,,,,,,,,,,,,,,,,,,,,,,,,,,,,,,,,,,,,,,,,,,,,,,,,,,,,,,,,,,,,,,
,,,,,,5e9f36a7e7a8f307cbd64a65,62c5385b1d4b666352f10f14,2022-07-06_08h23.37.711,Colour_Asymmetry_Pilot,2022.1.3,Win32,59.94485074,62c50e9c1127f2cd403a315f,0,11,11,70,1,fourtwo,,,,,,,,,,,,,,,,,,,,,,,,,,,,,,,,,,,,,,,,,,,,,,,,,,,,,,,,,,,,,,,,,,,,,,,,,,,,,,,,,,,,,,,,,,,,,,,,,,,,,,,,,,,,,,,,,,,,,,,,,,,,,,,,,,,,,,,,,,,,,,,,,,,,,,,,,,,,,
,,,,,,5e9f36a7e7a8f307cbd64a65,62c5385b1d4b666352f10f14,2022-07-06_08h23.37.711,Colour_Asymmetry_Pilot,2022.1.3,Win32,59.94485074,62c50e9c1127f2cd403a315f,0,12,12,84,1,threeone,,,,,,,,,,,,,,,,,,,,,,,,,,,,,,,,,,,,,,,,,,,,,,,,,,,,,,,,,,,,,,,,,,,,,,,,,,,,,,,,,,,,,,,,,,,,,,,,,,,,,,,,,,,,,,,,,,,,,,,,,,,,,,,,,,,,,,,,,,,,,,,,,,,,,,,,,,,,,
,,,,,,5e9f36a7e7a8f307cbd64a65,62c5385b1d4b666352f10f14,2022-07-06_08h23.37.711,Colour_Asymmetry_Pilot,2022.1.3,Win32,59.94485074,62c50e9c1127f2cd403a315f,0,13,13,3,1,twofour,,,,,,,,,,,,,,,,,,,,,,,,,,,,,,,,,,,,,,,,,,,,,,,,,,,,,,,,,,,,,,,,,,,,,,,,,,,,,,,,,,,,,,,,,,,,,,,,,,,,,,,,,,,,,,,,,,,,,,,,,,,,,,,,,,,,,,,,,,,,,,,,,,,,,,,,,,,,,
,,,,,,5e9f36a7e7a8f307cbd64a65,62c5385b1d4b666352f10f14,2022-07-06_08h23.37.711,Colour_Asymmetry_Pilot,2022.1.3,Win32,59.94485074,62c50e9c1127f2cd403a315f,0,14,14,125,1,threefour,,,,,,,,,,,,,,,,,,,,,,,,,,,,,,,,,,,,,,,,,,,,,,,,,,,,,,,,,,,,,,,,,,,,,,,,,,,,,,,,,,,,,,,,,,,,,,,,,,,,,,,,,,,,,,,,,,,,,,,,,,,,,,,,,,,,,,,,,,,,,,,,,,,,,,,,,,,,,
,,,,,,5e9f36a7e7a8f307cbd64a65,62c5385b1d4b666352f10f14,2022-07-06_08h23.37.711,Colour_Asymmetry_Pilot,2022.1.3,Win32,59.94485074,62c50e9c1127f2cd403a315f,0,15,15,134,1,fourtwo,,,,,,,,,,,,,,,,,,,,,,,,,,,,,,,,,,,,,,,,,,,,,,,,,,,,,,,,,,,,,,,,,,,,,,,,,,,,,,,,,,,,,,,,,,,,,,,,,,,,,,,,,,,,,,,,,,,,,,,,,,,,,,,,,,,,,,,,,,,,,,,,,,,,,,,,,,,,,
,,,,,,5e9f36a7e7a8f307cbd64a65,62c5385b1d4b666352f10f14,2022-07-06_08h23.37.711,Colour_Asymmetry_Pilot,2022.1.3,Win32,59.94485074,62c50e9c1127f2cd403a315f,0,16,16,39,1,fourthree,,,,,,,,,,,,,,,,,,,,,,,,,,,,,,,,,,,,,,,,,,,,,,,,,,,,,,,,,,,,,,,,,,,,,,,,,,,,,,,,,,,,,,,,,,,,,,,,,,,,,,,,,,,,,,,,,,,,,,,,,,,,,,,,,,,,,,,,,,,,,,,,,,,,,,,,,,,,,
,,,,,,5e9f36a7e7a8f307cbd64a65,62c5385b1d4b666352f10f14,2022-07-06_08h23.37.711,Colour_Asymmetry_Pilot,2022.1.3,Win32,59.94485074,62c50e9c1127f2cd403a315f,0,17,17,73,1,onethree,,,,,,,,,,,,,,,,,,,,,,,,,,,,,,,,,,,,,,,,,,,,,,,,,,,,,,,,,,,,,,,,,,,,,,,,,,,,,,,,,,,,,,,,,,,,,,,,,,,,,,,,,,,,,,,,,,,,,,,,,,,,,,,,,,,,,,,,,,,,,,,,,,,,,,,,,,,,,
,,,,,,5e9f36a7e7a8f307cbd64a65,62c5385b1d4b666352f10f14,2022-07-06_08h23.37.711,Colour_Asymmetry_Pilot,2022.1.3,Win32,59.94485074,62c50e9c1127f2cd403a315f,0,18,18,135,1,fourthree,,,,,,,,,,,,,,,,,,,,,,,,,,,,,,,,,,,,,,,,,,,,,,,,,,,,,,,,,,,,,,,,,,,,,,,,,,,,,,,,,,,,,,,,,,,,,,,,,,,,,,,,,,,,,,,,,,,,,,,,,,,,,,,,,,,,,,,,,,,,,,,,,,,,,,,,,,,,,
,,,,,,5e9f36a7e7a8f307cbd64a65,62c5385b1d4b666352f10f14,2022-07-06_08h23.37.711,Colour_Asymmetry_Pilot,2022.1.3,Win32,59.94485074,62c50e9c1127f2cd403a315f,0,19,19,4,1,threeone,,,,,,,,,,,,,,,,,,,,,,,,,,,,,,,,,,,,,,,,,,,,,,,,,,,,,,,,,,,,,,,,,,,,,,,,,,,,,,,,,,,,,,,,,,,,,,,,,,,,,,,,,,,,,,,,,,,,,,,,,,,,,,,,,,,,,,,,,,,,,,,,,,,,,,,,,,,,,
,,,,,,5e9f36a7e7a8f307cbd64a65,62c5385b1d4b666352f10f14,2022-07-06_08h23.37.711,Colour_Asymmetry_Pilot,2022.1.3,Win32,59.94485074,62c50e9c1127f2cd403a315f,0,20,20,51,1,twofour,,,,,,,,,,,,,,,,,,,,,,,,,,,,,,,,,,,,,,,,,,,,,,,,,,,,,,,,,,,,,,,,,,,,,,,,,,,,,,,,,,,,,,,,,,,,,,,,,,,,,,,,,,,,,,,,,,,,,,,,,,,,,,,,,,,,,,,,,,,,,,,,,,,,,,,,,,,,,
,,,,,,5e9f36a7e7a8f307cbd64a65,62c5385b1d4b666352f10f14,2022-07-06_08h23.37.711,Colour_Asymmetry_Pilot,2022.1.3,Win32,59.94485074,62c50e9c1127f2cd403a315f,0,21,21,75,1,twofour,,,,,,,,,,,,,,,,,,,,,,,,,,,,,,,,,,,,,,,,,,,,,,,,,,,,,,,,,,,,,,,,,,,,,,,,,,,,,,,,,,,,,,,,,,,,,,,,,,,,,,,,,,,,,,,,,,,,,,,,,,,,,,,,,,,,,,,,,,,,,,,,,,,,,,,,,,,,,
,,,,,,5e9f36a7e7a8f307cbd64a65,62c5385b1d4b666352f10f14,2022-07-06_08h23.37.711,Colour_Asymmetry_Pilot,2022.1.3,Win32,59.94485074,62c50e9c1127f2cd403a315f,0,22,22,123,1,twofour,,,,,,,,,,,,,,,,,,,,,,,,,,,,,,,,,,,,,,,,,,,,,,,,,,,,,,,,,,,,,,,,,,,,,,,,,,,,,,,,,,,,,,,,,,,,,,,,,,,,,,,,,,,,,,,,,,,,,,,,,,,,,,,,,,,,,,,,,,,,,,,,,,,,,,,,,,,,,
,,,,,,5e9f36a7e7a8f307cbd64a65,62c5385b1d4b666352f10f14,2022-07-06_08h23.37.711,Colour_Asymmetry_Pilot,2022.1.3,Win32,59.94485074,62c50e9c1127f2cd403a315f,0,23,23,102,1,fourtwo,,,,,,,,,,,,,,,,,,,,,,,,,,,,,,,,,,,,,,,,,,,,,,,,,,,,,,,,,,,,,,,,,,,,,,,,,,,,,,,,,,,,,,,,,,,,,,,,,,,,,,,,,,,,,,,,,,,,,,,,,,,,,,,,,,,,,,,,,,,,,,,,,,,,,,,,,,,,,
,,,,,,5e9f36a7e7a8f307cbd64a65,62c5385b1d4b666352f10f14,2022-07-06_08h23.37.711,Colour_Asymmetry_Pilot,2022.1.3,Win32,59.94485074,62c50e9c1127f2cd403a315f,0,24,24,144,1,onetwo,,,,,,,,,,,,,,,,,,,,,,,,,,,,,,,,,,,,,,,,,,,,,,,,,,,,,,,,,,,,,,,,,,,,,,,,,,,,,,,,,,,,,,,,,,,,,,,,,,,,,,,,,,,,,,,,,,,,,,,,,,,,,,,,,,,,,,,,,,,,,,,,,,,,,,,,,,,,,
,,,,,,5e9f36a7e7a8f307cbd64a65,62c5385b1d4b666352f10f14,2022-07-06_08h23.37.711,Colour_Asymmetry_Pilot,2022.1.3,Win32,59.94485074,62c50e9c1127f2cd403a315f,0,25,25,92,1,threeone,,,,,,,,,,,,,,,,,,,,,,,,,,,,,,,,,,,,,,,,,,,,,,,,,,,,,,,,,,,,,,,,,,,,,,,,,,,,,,,,,,,,,,,,,,,,,,,,,,,,,,,,,,,,,,,,,,,,,,,,,,,,,,,,,,,,,,,,,,,,,,,,,,,,,,,,,,,,,
,,,,,,5e9f36a7e7a8f307cbd64a65,62c5385b1d4b666352f10f14,2022-07-06_08h23.37.711,Colour_Asymmetry_Pilot,2022.1.3,Win32,59.94485074,62c50e9c1127f2cd403a315f,0,26,26,91,1,twofour,,,,,,,,,,,,,,,,,,,,,,,,,,,,,,,,,,,,,,,,,,,,,,,,,,,,,,,,,,,,,,,,,,,,,,,,,,,,,,,,,,,,,,,,,,,,,,,,,,,,,,,,,,,,,,,,,,,,,,,,,,,,,,,,,,,,,,,,,,,,,,,,,,,,,,,,,,,,,
,,,,,,5e9f36a7e7a8f307cbd64a65,62c5385b1d4b666352f10f14,2022-07-06_08h23.37.711,Colour_Asymmetry_Pilot,2022.1.3,Win32,59.94485074,62c50e9c1127f2cd403a315f,0,27,27,98,1,twoone,,,,,,,,,,,,,,,,,,,,,,,,,,,,,,,,,,,,,,,,,,,,,,,,,,,,,,,,,,,,,,,,,,,,,,,,,,,,,,,,,,,,,,,,,,,,,,,,,,,,,,,,,,,,,,,,,,,,,,,,,,,,,,,,,,,,,,,,,,,,,,,,,,,,,,,,,,,,,
,,,,,,5e9f36a7e7a8f307cbd64a65,62c5385b1d4b666352f10f14,2022-07-06_08h23.37.711,Colour_Asymmetry_Pilot,2022.1.3,Win32,59.94485074,62c50e9c1127f2cd403a315f,0,28,28,57,1,onethree,,,,,,,,,,,,,,,,,,,,,,,,,,,,,,,,,,,,,,,,,,,,,,,,,,,,,,,,,,,,,,,,,,,,,,,,,,,,,,,,,,,,,,,,,,,,,,,,,,,,,,,,,,,,,,,,,,,,,,,,,,,,,,,,,,,,,,,,,,,,,,,,,,,,,,,,,,,,,
,,,,,,5e9f36a7e7a8f307cbd64a65,62c5385b1d4b666352f10f14,2022-07-06_08h23.37.711,Colour_Asymmetry_Pilot,2022.1.3,Win32,59.94485074,62c50e9c1127f2cd403a315f,0,29,29,34,1,twoone,,,,,,,,,,,,,,,,,,,,,,,,,,,,,,,,,,,,,,,,,,,,,,,,,,,,,,,,,,,,,,,,,,,,,,,,,,,,,,,,,,,,,,,,,,,,,,,,,,,,,,,,,,,,,,,,,,,,,,,,,,,,,,,,,,,,,,,,,,,,,,,,,,,,,,,,,,,,,
,,,,,,5e9f36a7e7a8f307cbd64a65,62c5385b1d4b666352f10f14,2022-07-06_08h23.37.711,Colour_Asymmetry_Pilot,2022.1.3,Win32,59.94485074,62c50e9c1127f2cd403a315f,0,30,30,133,1,threefour,,,,,,,,,,,,,,,,,,,,,,,,,,,,,,,,,,,,,,,,,,,,,,,,,,,,,,,,,,,,,,,,,,,,,,,,,,,,,,,,,,,,,,,,,,,,,,,,,,,,,,,,,,,,,,,,,,,,,,,,,,,,,,,,,,,,,,,,,,,,,,,,,,,,,,,,,,,,,
,,,,,,5e9f36a7e7a8f307cbd64a65,62c5385b1d4b666352f10f14,2022-07-06_08h23.37.711,Colour_Asymmetry_Pilot,2022.1.3,Win32,59.94485074,62c50e9c1127f2cd403a315f,0,31,31,64,1,onetwo,,,,,,,,,,,,,,,,,,,,,,,,,,,,,,,,,,,,,,,,,,,,,,,,,,,,,,,,,,,,,,,,,,,,,,,,,,,,,,,,,,,,,,,,,,,,,,,,,,,,,,,,,,,,,,,,,,,,,,,,,,,,,,,,,,,,,,,,,,,,,,,,,,,,,,,,,,,,,
,,,,,,5e9f36a7e7a8f307cbd64a65,62c5385b1d4b666352f10f14,2022-07-06_08h23.37.711,Colour_Asymmetry_Pilot,2022.1.3,Win32,59.94485074,62c50e9c1127f2cd403a315f,0,32,32,128,1,onetwo,,,,,,,,,,,,,,,,,,,,,,,,,,,,,,,,,,,,,,,,,,,,,,,,,,,,,,,,,,,,,,,,,,,,,,,,,,,,,,,,,,,,,,,,,,,,,,,,,,,,,,,,,,,,,,,,,,,,,,,,,,,,,,,,,,,,,,,,,,,,,,,,,,,,,,,,,,,,,
,,,,,,5e9f36a7e7a8f307cbd64a65,62c5385b1d4b666352f10f14,2022-07-06_08h23.37.711,Colour_Asymmetry_Pilot,2022.1.3,Win32,59.94485074,62c50e9c1127f2cd403a315f,0,33,33,77,1,threefour,,,,,,,,,,,,,,,,,,,,,,,,,,,,,,,,,,,,,,,,,,,,,,,,,,,,,,,,,,,,,,,,,,,,,,,,,,,,,,,,,,,,,,,,,,,,,,,,,,,,,,,,,,,,,,,,,,,,,,,,,,,,,,,,,,,,,,,,,,,,,,,,,,,,,,,,,,,,,
,,,,,,5e9f36a7e7a8f307cbd64a65,62c5385b1d4b666352f10f14,2022-07-06_08h23.37.711,Colour_Asymmetry_Pilot,2022.1.3,Win32,59.94485074,62c50e9c1127f2cd403a315f,0,34,34,100,1,threeone,,,,,,,,,,,,,,,,,,,,,,,,,,,,,,,,,,,,,,,,,,,,,,,,,,,,,,,,,,,,,,,,,,,,,,,,,,,,,,,,,,,,,,,,,,,,,,,,,,,,,,,,,,,,,,,,,,,,,,,,,,,,,,,,,,,,,,,,,,,,,,,,,,,,,,,,,,,,,
,,,,,,5e9f36a7e7a8f307cbd64a65,62c5385b1d4b666352f10f14,2022-07-06_08h23.37.711,Colour_Asymmetry_Pilot,2022.1.3,Win32,59.94485074,62c50e9c1127f2cd403a315f,0,35,35,89,1,onethree,,,,,,,,,,,,,,,,,,,,,,,,,,,,,,,,,,,,,,,,,,,,,,,,,,,,,,,,,,,,,,,,,,,,,,,,,,,,,,,,,,,,,,,,,,,,,,,,,,,,,,,,,,,,,,,,,,,,,,,,,,,,,,,,,,,,,,,,,,,,,,,,,,,,,,,,,,,,,
,,,,,,5e9f36a7e7a8f307cbd64a65,62c5385b1d4b666352f10f14,2022-07-06_08h23.37.711,Colour_Asymmetry_Pilot,2022.1.3,Win32,59.94485074,62c50e9c1127f2cd403a315f,0,36,36,55,1,fourthree,,,,,,,,,,,,,,,,,,,,,,,,,,,,,,,,,,,,,,,,,,,,,,,,,,,,,,,,,,,,,,,,,,,,,,,,,,,,,,,,,,,,,,,,,,,,,,,,,,,,,,,,,,,,,,,,,,,,,,,,,,,,,,,,,,,,,,,,,,,,,,,,,,,,,,,,,,,,,
,,,,,,5e9f36a7e7a8f307cbd64a65,62c5385b1d4b666352f10f14,2022-07-06_08h23.37.711,Colour_Asymmetry_Pilot,2022.1.3,Win32,59.94485074,62c50e9c1127f2cd403a315f,0,37,37,111,1,fourthree,,,,,,,,,,,,,,,,,,,,,,,,,,,,,,,,,,,,,,,,,,,,,,,,,,,,,,,,,,,,,,,,,,,,,,,,,,,,,,,,,,,,,,,,,,,,,,,,,,,,,,,,,,,,,,,,,,,,,,,,,,,,,,,,,,,,,,,,,,,,,,,,,,,,,,,,,,,,,
,,,,,,5e9f36a7e7a8f307cbd64a65,62c5385b1d4b666352f10f14,2022-07-06_08h23.37.711,Colour_Asymmetry_Pilot,2022.1.3,Win32,59.94485074,62c50e9c1127f2cd403a315f,0,38,38,65,1,onethree,,,,,,,,,,,,,,,,,,,,,,,,,,,,,,,,,,,,,,,,,,,,,,,,,,,,,,,,,,,,,,,,,,,,,,,,,,,,,,,,,,,,,,,,,,,,,,,,,,,,,,,,,,,,,,,,,,,,,,,,,,,,,,,,,,,,,,,,,,,,,,,,,,,,,,,,,,,,,
,,,,,,5e9f36a7e7a8f307cbd64a65,62c5385b1d4b666352f10f14,2022-07-06_08h23.37.711,Colour_Asymmetry_Pilot,2022.1.3,Win32,59.94485074,62c50e9c1127f2cd403a315f,0,39,39,87,1,fourthree,,,,,,,,,,,,,,,,,,,,,,,,,,,,,,,,,,,,,,,,,,,,,,,,,,,,,,,,,,,,,,,,,,,,,,,,,,,,,,,,,,,,,,,,,,,,,,,,,,,,,,,,,,,,,,,,,,,,,,,,,,,,,,,,,,,,,,,,,,,,,,,,,,,,,,,,,,,,,
,,,,,,5e9f36a7e7a8f307cbd64a65,62c5385b1d4b666352f10f14,2022-07-06_08h23.37.711,Colour_Asymmetry_Pilot,2022.1.3,Win32,59.94485074,62c50e9c1127f2cd403a315f,0,40,40,160,1,onetwo,,,,,,,,,,,,,,,,,,,,,,,,,,,,,,,,,,,,,,,,,,,,,,,,,,,,,,,,,,,,,,,,,,,,,,,,,,,,,,,,,,,,,,,,,,,,,,,,,,,,,,,,,,,,,,,,,,,,,,,,,,,,,,,,,,,,,,,,,,,,,,,,,,,,,,,,,,,,,
,,,,,,5e9f36a7e7a8f307cbd64a65,62c5385b1d4b666352f10f14,2022-07-06_08h23.37.711,Colour_Asymmetry_Pilot,2022.1.3,Win32,59.94485074,62c50e9c1127f2cd403a315f,0,41,41,127,1,fourthree,,,,,,,,,,,,,,,,,,,,,,,,,,,,,,,,,,,,,,,,,,,,,,,,,,,,,,,,,,,,,,,,,,,,,,,,,,,,,,,,,,,,,,,,,,,,,,,,,,,,,,,,,,,,,,,,,,,,,,,,,,,,,,,,,,,,,,,,,,,,,,,,,,,,,,,,,,,,,
,,,,,,5e9f36a7e7a8f307cbd64a65,62c5385b1d4b666352f10f14,2022-07-06_08h23.37.711,Colour_Asymmetry_Pilot,2022.1.3,Win32,59.94485074,62c50e9c1127f2cd403a315f,0,42,42,71,1,fourthree,,,,,,,,,,,,,,,,,,,,,,,,,,,,,,,,,,,,,,,,,,,,,,,,,,,,,,,,,,,,,,,,,,,,,,,,,,,,,,,,,,,,,,,,,,,,,,,,,,,,,,,,,,,,,,,,,,,,,,,,,,,,,,,,,,,,,,,,,,,,,,,,,,,,,,,,,,,,,
,,,,,,5e9f36a7e7a8f307cbd64a65,62c5385b1d4b666352f10f14,2022-07-06_08h23.37.711,Colour_Asymmetry_Pilot,2022.1.3,Win32,59.94485074,62c50e9c1127f2cd403a315f,0,43,43,139,1,twofour,,,,,,,,,,,,,,,,,,,,,,,,,,,,,,,,,,,,,,,,,,,,,,,,,,,,,,,,,,,,,,,,,,,,,,,,,,,,,,,,,,,,,,,,,,,,,,,,,,,,,,,,,,,,,,,,,,,,,,,,,,,,,,,,,,,,,,,,,,,,,,,,,,,,,,,,,,,,,
,,,,,,5e9f36a7e7a8f307cbd64a65,62c5385b1d4b666352f10f14,2022-07-06_08h23.37.711,Colour_Asymmetry_Pilot,2022.1.3,Win32,59.94485074,62c50e9c1127f2cd403a315f,0,44,44,72,1,onetwo,,,,,,,,,,,,,,,,,,,,,,,,,,,,,,,,,,,,,,,,,,,,,,,,,,,,,,,,,,,,,,,,,,,,,,,,,,,,,,,,,,,,,,,,,,,,,,,,,,,,,,,,,,,,,,,,,,,,,,,,,,,,,,,,,,,,,,,,,,,,,,,,,,,,,,,,,,,,,
,,,,,,5e9f36a7e7a8f307cbd64a65,62c5385b1d4b666352f10f14,2022-07-06_08h23.37.711,Colour_Asymmetry_Pilot,2022.1.3,Win32,59.94485074,62c50e9c1127f2cd403a315f,0,45,45,50,1,twoone,,,,,,,,,,,,,,,,,,,,,,,,,,,,,,,,,,,,,,,,,,,,,,,,,,,,,,,,,,,,,,,,,,,,,,,,,,,,,,,,,,,,,,,,,,,,,,,,,,,,,,,,,,,,,,,,,,,,,,,,,,,,,,,,,,,,,,,,,,,,,,,,,,,,,,,,,,,,,
,,,,,,5e9f36a7e7a8f307cbd64a65,62c5385b1d4b666352f10f14,2022-07-06_08h23.37.711,Colour_Asymmetry_Pilot,2022.1.3,Win32,59.94485074,62c50e9c1127f2cd403a315f,0,46,46,153,1,onethree,,,,,,,,,,,,,,,,,,,,,,,,,,,,,,,,,,,,,,,,,,,,,,,,,,,,,,,,,,,,,,,,,,,,,,,,,,,,,,,,,,,,,,,,,,,,,,,,,,,,,,,,,,,,,,,,,,,,,,,,,,,,,,,,,,,,,,,,,,,,,,,,,,,,,,,,,,,,,
,,,,,,5e9f36a7e7a8f307cbd64a65,62c5385b1d4b666352f10f14,2022-07-06_08h23.37.711,Colour_Asymmetry_Pilot,2022.1.3,Win32,59.94485074,62c50e9c1127f2cd403a315f,0,47,47,93,1,threefour,,,,,,,,,,,,,,,,,,,,,,,,,,,,,,,,,,,,,,,,,,,,,,,,,,,,,,,,,,,,,,,,,,,,,,,,,,,,,,,,,,,,,,,,,,,,,,,,,,,,,,,,,,,,,,,,,,,,,,,,,,,,,,,,,,,,,,,,,,,,,,,,,,,,,,,,,,,,,
,,,,,,5e9f36a7e7a8f307cbd64a65,62c5385b1d4b666352f10f14,2022-07-06_08h23.37.711,Colour_Asymmetry_Pilot,2022.1.3,Win32,59.94485074,62c50e9c1127f2cd403a315f,0,48,48,132,1,threeone,,,,,,,,,,,,,,,,,,,,,,,,,,,,,,,,,,,,,,,,,,,,,,,,,,,,,,,,,,,,,,,,,,,,,,,,,,,,,,,,,,,,,,,,,,,,,,,,,,,,,,,,,,,,,,,,,,,,,,,,,,,,,,,,,,,,,,,,,,,,,,,,,,,,,,,,,,,,,
,,,,,,5e9f36a7e7a8f307cbd64a65,62c5385b1d4b666352f10f14,2022-07-06_08h23.37.711,Colour_Asymmetry_Pilot,2022.1.3,Win32,59.94485074,62c50e9c1127f2cd403a315f,0,49,49,13,1,threefour,,,,,,,,,,,,,,,,,,,,,,,,,,,,,,,,,,,,,,,,,,,,,,,,,,,,,,,,,,,,,,,,,,,,,,,,,,,,,,,,,,,,,,,,,,,,,,,,,,,,,,,,,,,,,,,,,,,,,,,,,,,,,,,,,,,,,,,,,,,,,,,,,,,,,,,,,,,,,
,,,,,,5e9f36a7e7a8f307cbd64a65,62c5385b1d4b666352f10f14,2022-07-06_08h23.37.711,Colour_Asymmetry_Pilot,2022.1.3,Win32,59.94485074,62c50e9c1127f2cd403a315f,0,50,50,58,1,twoone,,,,,,,,,,,,,,,,,,,,,,,,,,,,,,,,,,,,,,,,,,,,,,,,,,,,,,,,,,,,,,,,,,,,,,,,,,,,,,,,,,,,,,,,,,,,,,,,,,,,,,,,,,,,,,,,,,,,,,,,,,,,,,,,,,,,,,,,,,,,,,,,,,,,,,,,,,,,,
,,,,,,5e9f36a7e7a8f307cbd64a65,62c5385b1d4b666352f10f14,2022-07-06_08h23.37.711,Colour_Asymmetry_Pilot,2022.1.3,Win32,59.94485074,62c50e9c1127f2cd403a315f,0,51,51,0,1,onetwo,,,,,,,,,,,,,,,,,,,,,,,,,,,,,,,,,,,,,,,,,,,,,,,,,,,,,,,,,,,,,,,,,,,,,,,,,,,,,,,,,,,,,,,,,,,,,,,,,,,,,,,,,,,,,,,,,,,,,,,,,,,,,,,,,,,,,,,,,,,,,,,,,,,,,,,,,,,,,
,,,,,,5e9f36a7e7a8f307cbd64a65,62c5385b1d4b666352f10f14,2022-07-06_08h23.37.711,Colour_Asymmetry_Pilot,2022.1.3,Win32,59.94485074,62c50e9c1127f2cd403a315f,0,52,52,43,1,twofour,,,,,,,,,,,,,,,,,,,,,,,,,,,,,,,,,,,,,,,,,,,,,,,,,,,,,,,,,,,,,,,,,,,,,,,,,,,,,,,,,,,,,,,,,,,,,,,,,,,,,,,,,,,,,,,,,,,,,,,,,,,,,,,,,,,,,,,,,,,,,,,,,,,,,,,,,,,,,
,,,,,,5e9f36a7e7a8f307cbd64a65,62c5385b1d4b666352f10f14,2022-07-06_08h23.37.711,Colour_Asymmetry_Pilot,2022.1.3,Win32,59.94485074,62c50e9c1127f2cd403a315f,0,53,53,140,1,threeone,,,,,,,,,,,,,,,,,,,,,,,,,,,,,,,,,,,,,,,,,,,,,,,,,,,,,,,,,,,,,,,,,,,,,,,,,,,,,,,,,,,,,,,,,,,,,,,,,,,,,,,,,,,,,,,,,,,,,,,,,,,,,,,,,,,,,,,,,,,,,,,,,,,,,,,,,,,,,
,,,,,,5e9f36a7e7a8f307cbd64a65,62c5385b1d4b666352f10f14,2022-07-06_08h23.37.711,Colour_Asymmetry_Pilot,2022.1.3,Win32,59.94485074,62c50e9c1127f2cd403a315f,0,54,54,80,1,onetwo,,,,,,,,,,,,,,,,,,,,,,,,,,,,,,,,,,,,,,,,,,,,,,,,,,,,,,,,,,,,,,,,,,,,,,,,,,,,,,,,,,,,,,,,,,,,,,,,,,,,,,,,,,,,,,,,,,,,,,,,,,,,,,,,,,,,,,,,,,,,,,,,,,,,,,,,,,,,,
,,,,,,5e9f36a7e7a8f307cbd64a65,62c5385b1d4b666352f10f14,2022-07-06_08h23.37.711,Colour_Asymmetry_Pilot,2022.1.3,Win32,59.94485074,62c50e9c1127f2cd403a315f,0,55,55,76,1,threeone,,,,,,,,,,,,,,,,,,,,,,,,,,,,,,,,,,,,,,,,,,,,,,,,,,,,,,,,,,,,,,,,,,,,,,,,,,,,,,,,,,,,,,,,,,,,,,,,,,,,,,,,,,,,,,,,,,,,,,,,,,,,,,,,,,,,,,,,,,,,,,,,,,,,,,,,,,,,,
,,,,,,5e9f36a7e7a8f307cbd64a65,62c5385b1d4b666352f10f14,2022-07-06_08h23.37.711,Colour_Asymmetry_Pilot,2022.1.3,Win32,59.94485074,62c50e9c1127f2cd403a315f,0,56,56,37,1,threefour,,,,,,,,,,,,,,,,,,,,,,,,,,,,,,,,,,,,,,,,,,,,,,,,,,,,,,,,,,,,,,,,,,,,,,,,,,,,,,,,,,,,,,,,,,,,,,,,,,,,,,,,,,,,,,,,,,,,,,,,,,,,,,,,,,,,,,,,,,,,,,,,,,,,,,,,,,,,,
,,,,,,5e9f36a7e7a8f307cbd64a65,62c5385b1d4b666352f10f14,2022-07-06_08h23.37.711,Colour_Asymmetry_Pilot,2022.1.3,Win32,59.94485074,62c50e9c1127f2cd403a315f,0,57,57,122,1,twoone,,,,,,,,,,,,,,,,,,,,,,,,,,,,,,,,,,,,,,,,,,,,,,,,,,,,,,,,,,,,,,,,,,,,,,,,,,,,,,,,,,,,,,,,,,,,,,,,,,,,,,,,,,,,,,,,,,,,,,,,,,,,,,,,,,,,,,,,,,,,,,,,,,,,,,,,,,,,,
,,,,,,5e9f36a7e7a8f307cbd64a65,62c5385b1d4b666352f10f14,2022-07-06_08h23.37.711,Colour_Asymmetry_Pilot,2022.1.3,Win32,59.94485074,62c50e9c1127f2cd403a315f,0,58,58,68,1,threeone,,,,,,,,,,,,,,,,,,,,,,,,,,,,,,,,,,,,,,,,,,,,,,,,,,,,,,,,,,,,,,,,,,,,,,,,,,,,,,,,,,,,,,,,,,,,,,,,,,,,,,,,,,,,,,,,,,,,,,,,,,,,,,,,,,,,,,,,,,,,,,,,,,,,,,,,,,,,,
,,,,,,5e9f36a7e7a8f307cbd64a65,62c5385b1d4b666352f10f14,2022-07-06_08h23.37.711,Colour_Asymmetry_Pilot,2022.1.3,Win32,59.94485074,62c50e9c1127f2cd403a315f,0,59,59,116,1,threeone,,,,,,,,,,,,,,,,,,,,,,,,,,,,,,,,,,,,,,,,,,,,,,,,,,,,,,,,,,,,,,,,,,,,,,,,,,,,,,,,,,,,,,,,,,,,,,,,,,,,,,,,,,,,,,,,,,,,,,,,,,,,,,,,,,,,,,,,,,,,,,,,,,,,,,,,,,,,,
,,,,,,5e9f36a7e7a8f307cbd64a65,62c5385b1d4b666352f10f14,2022-07-06_08h23.37.711,Colour_Asymmetry_Pilot,2022.1.3,Win32,59.94485074,62c50e9c1127f2cd403a315f,0,60,60,114,1,twoone,,,,,,,,,,,,,,,,,,,,,,,,,,,,,,,,,,,,,,,,,,,,,,,,,,,,,,,,,,,,,,,,,,,,,,,,,,,,,,,,,,,,,,,,,,,,,,,,,,,,,,,,,,,,,,,,,,,,,,,,,,,,,,,,,,,,,,,,,,,,,,,,,,,,,,,,,,,,,
,,,,,,5e9f36a7e7a8f307cbd64a65,62c5385b1d4b666352f10f14,2022-07-06_08h23.37.711,Colour_Asymmetry_Pilot,2022.1.3,Win32,59.94485074,62c50e9c1127f2cd403a315f,0,61,61,28,1,threeone,,,,,,,,,,,,,,,,,,,,,,,,,,,,,,,,,,,,,,,,,,,,,,,,,,,,,,,,,,,,,,,,,,,,,,,,,,,,,,,,,,,,,,,,,,,,,,,,,,,,,,,,,,,,,,,,,,,,,,,,,,,,,,,,,,,,,,,,,,,,,,,,,,,,,,,,,,,,,
,,,,,,5e9f36a7e7a8f307cbd64a65,62c5385b1d4b666352f10f14,2022-07-06_08h23.37.711,Colour_Asymmetry_Pilot,2022.1.3,Win32,59.94485074,62c50e9c1127f2cd403a315f,0,62,62,118,1,fourtwo,,,,,,,,,,,,,,,,,,,,,,,,,,,,,,,,,,,,,,,,,,,,,,,,,,,,,,,,,,,,,,,,,,,,,,,,,,,,,,,,,,,,,,,,,,,,,,,,,,,,,,,,,,,,,,,,,,,,,,,,,,,,,,,,,,,,,,,,,,,,,,,,,,,,,,,,,,,,,
,,,,,,5e9f36a7e7a8f307cbd64a65,62c5385b1d4b666352f10f14,2022-07-06_08h23.37.711,Colour_Asymmetry_Pilot,2022.1.3,Win32,59.94485074,62c50e9c1127f2cd403a315f,0,63,63,156,1,threeone,,,,,,,,,,,,,,,,,,,,,,,,,,,,,,,,,,,,,,,,,,,,,,,,,,,,,,,,,,,,,,,,,,,,,,,,,,,,,,,,,,,,,,,,,,,,,,,,,,,,,,,,,,,,,,,,,,,,,,,,,,,,,,,,,,,,,,,,,,,,,,,,,,,,,,,,,,,,,
,,,,,,5e9f36a7e7a8f307cbd64a65,62c5385b1d4b666352f10f14,2022-07-06_08h23.37.711,Colour_Asymmetry_Pilot,2022.1.3,Win32,59.94485074,62c50e9c1127f2cd403a315f,0,64,64,5,1,threefour,,,,,,,,,,,,,,,,,,,,,,,,,,,,,,,,,,,,,,,,,,,,,,,,,,,,,,,,,,,,,,,,,,,,,,,,,,,,,,,,,,,,,,,,,,,,,,,,,,,,,,,,,,,,,,,,,,,,,,,,,,,,,,,,,,,,,,,,,,,,,,,,,,,,,,,,,,,,,
,,,,,,5e9f36a7e7a8f307cbd64a65,62c5385b1d4b666352f10f14,2022-07-06_08h23.37.711,Colour_Asymmetry_Pilot,2022.1.3,Win32,59.94485074,62c50e9c1127f2cd403a315f,0,65,65,15,1,fourthree,,,,,,,,,,,,,,,,,,,,,,,,,,,,,,,,,,,,,,,,,,,,,,,,,,,,,,,,,,,,,,,,,,,,,,,,,,,,,,,,,,,,,,,,,,,,,,,,,,,,,,,,,,,,,,,,,,,,,,,,,,,,,,,,,,,,,,,,,,,,,,,,,,,,,,,,,,,,,
,,,,,,5e9f36a7e7a8f307cbd64a65,62c5385b1d4b666352f10f14,2022-07-06_08h23.37.711,Colour_Asymmetry_Pilot,2022.1.3,Win32,59.94485074,62c50e9c1127f2cd403a315f,0,66,66,155,1,twofour,,,,,,,,,,,,,,,,,,,,,,,,,,,,,,,,,,,,,,,,,,,,,,,,,,,,,,,,,,,,,,,,,,,,,,,,,,,,,,,,,,,,,,,,,,,,,,,,,,,,,,,,,,,,,,,,,,,,,,,,,,,,,,,,,,,,,,,,,,,,,,,,,,,,,,,,,,,,,
,,,,,,5e9f36a7e7a8f307cbd64a65,62c5385b1d4b666352f10f14,2022-07-06_08h23.37.711,Colour_Asymmetry_Pilot,2022.1.3,Win32,59.94485074,62c50e9c1127f2cd403a315f,0,67,67,119,1,fourthree,,,,,,,,,,,,,,,,,,,,,,,,,,,,,,,,,,,,,,,,,,,,,,,,,,,,,,,,,,,,,,,,,,,,,,,,,,,,,,,,,,,,,,,,,,,,,,,,,,,,,,,,,,,,,,,,,,,,,,,,,,,,,,,,,,,,,,,,,,,,,,,,,,,,,,,,,,,,,
,,,,,,5e9f36a7e7a8f307cbd64a65,62c5385b1d4b666352f10f14,2022-07-06_08h23.37.711,Colour_Asymmetry_Pilot,2022.1.3,Win32,59.94485074,62c50e9c1127f2cd403a315f,0,68,68,60,1,threeone,,,,,,,,,,,,,,,,,,,,,,,,,,,,,,,,,,,,,,,,,,,,,,,,,,,,,,,,,,,,,,,,,,,,,,,,,,,,,,,,,,,,,,,,,,,,,,,,,,,,,,,,,,,,,,,,,,,,,,,,,,,,,,,,,,,,,,,,,,,,,,,,,,,,,,,,,,,,,
,,,,,,5e9f36a7e7a8f307cbd64a65,62c5385b1d4b666352f10f14,2022-07-06_08h23.37.711,Colour_Asymmetry_Pilot,2022.1.3,Win32,59.94485074,62c50e9c1127f2cd403a315f,0,69,69,143,1,fourthree,,,,,,,,,,,,,,,,,,,,,,,,,,,,,,,,,,,,,,,,,,,,,,,,,,,,,,,,,,,,,,,,,,,,,,,,,,,,,,,,,,,,,,,,,,,,,,,,,,,,,,,,,,,,,,,,,,,,,,,,,,,,,,,,,,,,,,,,,,,,,,,,,,,,,,,,,,,,,
,,,,,,5e9f36a7e7a8f307cbd64a65,62c5385b1d4b666352f10f14,2022-07-06_08h23.37.711,Colour_Asymmetry_Pilot,2022.1.3,Win32,59.94485074,62c50e9c1127f2cd403a315f,0,70,70,24,1,onetwo,,,,,,,,,,,,,,,,,,,,,,,,,,,,,,,,,,,,,,,,,,,,,,,,,,,,,,,,,,,,,,,,,,,,,,,,,,,,,,,,,,,,,,,,,,,,,,,,,,,,,,,,,,,,,,,,,,,,,,,,,,,,,,,,,,,,,,,,,,,,,,,,,,,,,,,,,,,,,
,,,,,,5e9f36a7e7a8f307cbd64a65,62c5385b1d4b666352f10f14,2022-07-06_08h23.37.711,Colour_Asymmetry_Pilot,2022.1.3,Win32,59.94485074,62c50e9c1127f2cd403a315f,0,71,71,110,1,fourtwo,,,,,,,,,,,,,,,,,,,,,,,,,,,,,,,,,,,,,,,,,,,,,,,,,,,,,,,,,,,,,,,,,,,,,,,,,,,,,,,,,,,,,,,,,,,,,,,,,,,,,,,,,,,,,,,,,,,,,,,,,,,,,,,,,,,,,,,,,,,,,,,,,,,,,,,,,,,,,
,,,,,,5e9f36a7e7a8f307cbd64a65,62c5385b1d4b666352f10f14,2022-07-06_08h23.37.711,Colour_Asymmetry_Pilot,2022.1.3,Win32,59.94485074,62c50e9c1127f2cd403a315f,0,72,72,44,1,threeone,,,,,,,,,,,,,,,,,,,,,,,,,,,,,,,,,,,,,,,,,,,,,,,,,,,,,,,,,,,,,,,,,,,,,,,,,,,,,,,,,,,,,,,,,,,,,,,,,,,,,,,,,,,,,,,,,,,,,,,,,,,,,,,,,,,,,,,,,,,,,,,,,,,,,,,,,,,,,
,,,,,,5e9f36a7e7a8f307cbd64a65,62c5385b1d4b666352f10f14,2022-07-06_08h23.37.711,Colour_Asymmetry_Pilot,2022.1.3,Win32,59.94485074,62c50e9c1127f2cd403a315f,0,73,73,131,1,twofour,,,,,,,,,,,,,,,,,,,,,,,,,,,,,,,,,,,,,,,,,,,,,,,,,,,,,,,,,,,,,,,,,,,,,,,,,,,,,,,,,,,,,,,,,,,,,,,,,,,,,,,,,,,,,,,,,,,,,,,,,,,,,,,,,,,,,,,,,,,,,,,,,,,,,,,,,,,,,
,,,,,,5e9f36a7e7a8f307cbd64a65,62c5385b1d4b666352f10f14,2022-07-06_08h23.37.711,Colour_Asymmetry_Pilot,2022.1.3,Win32,59.94485074,62c50e9c1127f2cd403a315f,0,74,74,97,1,onethree,,,,,,,,,,,,,,,,,,,,,,,,,,,,,,,,,,,,,,,,,,,,,,,,,,,,,,,,,,,,,,,,,,,,,,,,,,,,,,,,,,,,,,,,,,,,,,,,,,,,,,,,,,,,,,,,,,,,,,,,,,,,,,,,,,,,,,,,,,,,,,,,,,,,,,,,,,,,,
,,,,,,5e9f36a7e7a8f307cbd64a65,62c5385b1d4b666352f10f14,2022-07-06_08h23.37.711,Colour_Asymmetry_Pilot,2022.1.3,Win32,59.94485074,62c50e9c1127f2cd403a315f,0,75,75,21,1,threefour,,,,,,,,,,,,,,,,,,,,,,,,,,,,,,,,,,,,,,,,,,,,,,,,,,,,,,,,,,,,,,,,,,,,,,,,,,,,,,,,,,,,,,,,,,,,,,,,,,,,,,,,,,,,,,,,,,,,,,,,,,,,,,,,,,,,,,,,,,,,,,,,,,,,,,,,,,,,,
,,,,,,5e9f36a7e7a8f307cbd64a65,62c5385b1d4b666352f10f14,2022-07-06_08h23.37.711,Colour_Asymmetry_Pilot,2022.1.3,Win32,59.94485074,62c50e9c1127f2cd403a315f,0,76,76,14,1,fourtwo,,,,,,,,,,,,,,,,,,,,,,,,,,,,,,,,,,,,,,,,,,,,,,,,,,,,,,,,,,,,,,,,,,,,,,,,,,,,,,,,,,,,,,,,,,,,,,,,,,,,,,,,,,,,,,,,,,,,,,,,,,,,,,,,,,,,,,,,,,,,,,,,,,,,,,,,,,,,,
,,,,,,5e9f36a7e7a8f307cbd64a65,62c5385b1d4b666352f10f14,2022-07-06_08h23.37.711,Colour_Asymmetry_Pilot,2022.1.3,Win32,59.94485074,62c50e9c1127f2cd403a315f,0,77,77,9,1,onethree,,,,,,,,,,,,,,,,,,,,,,,,,,,,,,,,,,,,,,,,,,,,,,,,,,,,,,,,,,,,,,,,,,,,,,,,,,,,,,,,,,,,,,,,,,,,,,,,,,,,,,,,,,,,,,,,,,,,,,,,,,,,,,,,,,,,,,,,,,,,,,,,,,,,,,,,,,,,,
,,,,,,5e9f36a7e7a8f307cbd64a65,62c5385b1d4b666352f10f14,2022-07-06_08h23.37.711,Colour_Asymmetry_Pilot,2022.1.3,Win32,59.94485074,62c50e9c1127f2cd403a315f,0,78,78,154,1,twoone,,,,,,,,,,,,,,,,,,,,,,,,,,,,,,,,,,,,,,,,,,,,,,,,,,,,,,,,,,,,,,,,,,,,,,,,,,,,,,,,,,,,,,,,,,,,,,,,,,,,,,,,,,,,,,,,,,,,,,,,,,,,,,,,,,,,,,,,,,,,,,,,,,,,,,,,,,,,,
,,,,,,5e9f36a7e7a8f307cbd64a65,62c5385b1d4b666352f10f14,2022-07-06_08h23.37.711,Colour_Asymmetry_Pilot,2022.1.3,Win32,59.94485074,62c50e9c1127f2cd403a315f,0,79,79,2,1,twoone,,,,,,,,,,,,,,,,,,,,,,,,,,,,,,,,,,,,,,,,,,,,,,,,,,,,,,,,,,,,,,,,,,,,,,,,,,,,,,,,,,,,,,,,,,,,,,,,,,,,,,,,,,,,,,,,,,,,,,,,,,,,,,,,,,,,,,,,,,,,,,,,,,,,,,,,,,,,,
,,,,,,5e9f36a7e7a8f307cbd64a65,62c5385b1d4b666352f10f14,2022-07-06_08h23.37.711,Colour_Asymmetry_Pilot,2022.1.3,Win32,59.94485074,62c50e9c1127f2cd403a315f,0,80,80,32,1,onetwo,,,,,,,,,,,,,,,,,,,,,,,,,,,,,,,,,,,,,,,,,,,,,,,,,,,,,,,,,,,,,,,,,,,,,,,,,,,,,,,,,,,,,,,,,,,,,,,,,,,,,,,,,,,,,,,,,,,,,,,,,,,,,,,,,,,,,,,,,,,,,,,,,,,,,,,,,,,,,
,,,,,,5e9f36a7e7a8f307cbd64a65,62c5385b1d4b666352f10f14,2022-07-06_08h23.37.711,Colour_Asymmetry_Pilot,2022.1.3,Win32,59.94485074,62c50e9c1127f2cd403a315f,0,81,81,104,1,onetwo,,,,,,,,,,,,,,,,,,,,,,,,,,,,,,,,,,,,,,,,,,,,,,,,,,,,,,,,,,,,,,,,,,,,,,,,,,,,,,,,,,,,,,,,,,,,,,,,,,,,,,,,,,,,,,,,,,,,,,,,,,,,,,,,,,,,,,,,,,,,,,,,,,,,,,,,,,,,,
,,,,,,5e9f36a7e7a8f307cbd64a65,62c5385b1d4b666352f10f14,2022-07-06_08h23.37.711,Colour_Asymmetry_Pilot,2022.1.3,Win32,59.94485074,62c50e9c1127f2cd403a315f,0,82,82,105,1,onethree,,,,,,,,,,,,,,,,,,,,,,,,,,,,,,,,,,,,,,,,,,,,,,,,,,,,,,,,,,,,,,,,,,,,,,,,,,,,,,,,,,,,,,,,,,,,,,,,,,,,,,,,,,,,,,,,,,,,,,,,,,,,,,,,,,,,,,,,,,,,,,,,,,,,,,,,,,,,,
,,,,,,5e9f36a7e7a8f307cbd64a65,62c5385b1d4b666352f10f14,2022-07-06_08h23.37.711,Colour_Asymmetry_Pilot,2022.1.3,Win32,59.94485074,62c50e9c1127f2cd403a315f,0,83,83,106,1,twoone,,,,,,,,,,,,,,,,,,,,,,,,,,,,,,,,,,,,,,,,,,,,,,,,,,,,,,,,,,,,,,,,,,,,,,,,,,,,,,,,,,,,,,,,,,,,,,,,,,,,,,,,,,,,,,,,,,,,,,,,,,,,,,,,,,,,,,,,,,,,,,,,,,,,,,,,,,,,,
,,,,,,5e9f36a7e7a8f307cbd64a65,62c5385b1d4b666352f10f14,2022-07-06_08h23.37.711,Colour_Asymmetry_Pilot,2022.1.3,Win32,59.94485074,62c50e9c1127f2cd403a315f,0,84,84,1,1,onethree,,,,,,,,,,,,,,,,,,,,,,,,,,,,,,,,,,,,,,,,,,,,,,,,,,,,,,,,,,,,,,,,,,,,,,,,,,,,,,,,,,,,,,,,,,,,,,,,,,,,,,,,,,,,,,,,,,,,,,,,,,,,,,,,,,,,,,,,,,,,,,,,,,,,,,,,,,,,,
,,,,,,5e9f36a7e7a8f307cbd64a65,62c5385b1d4b666352f10f14,2022-07-06_08h23.37.711,Colour_Asymmetry_Pilot,2022.1.3,Win32,59.94485074,62c50e9c1127f2cd403a315f,0,85,85,107,1,twofour,,,,,,,,,,,,,,,,,,,,,,,,,,,,,,,,,,,,,,,,,,,,,,,,,,,,,,,,,,,,,,,,,,,,,,,,,,,,,,,,,,,,,,,,,,,,,,,,,,,,,,,,,,,,,,,,,,,,,,,,,,,,,,,,,,,,,,,,,,,,,,,,,,,,,,,,,,,,,
,,,,,,5e9f36a7e7a8f307cbd64a65,62c5385b1d4b666352f10f14,2022-07-06_08h23.37.711,Colour_Asymmetry_Pilot,2022.1.3,Win32,59.94485074,62c50e9c1127f2cd403a315f,0,86,86,130,1,twoone,,,,,,,,,,,,,,,,,,,,,,,,,,,,,,,,,,,,,,,,,,,,,,,,,,,,,,,,,,,,,,,,,,,,,,,,,,,,,,,,,,,,,,,,,,,,,,,,,,,,,,,,,,,,,,,,,,,,,,,,,,,,,,,,,,,,,,,,,,,,,,,,,,,,,,,,,,,,,
,,,,,,5e9f36a7e7a8f307cbd64a65,62c5385b1d4b666352f10f14,2022-07-06_08h23.37.711,Colour_Asymmetry_Pilot,2022.1.3,Win32,59.94485074,62c50e9c1127f2cd403a315f,0,87,87,99,1,twofour,,,,,,,,,,,,,,,,,,,,,,,,,,,,,,,,,,,,,,,,,,,,,,,,,,,,,,,,,,,,,,,,,,,,,,,,,,,,,,,,,,,,,,,,,,,,,,,,,,,,,,,,,,,,,,,,,,,,,,,,,,,,,,,,,,,,,,,,,,,,,,,,,,,,,,,,,,,,,
,,,,,,5e9f36a7e7a8f307cbd64a65,62c5385b1d4b666352f10f14,2022-07-06_08h23.37.711,Colour_Asymmetry_Pilot,2022.1.3,Win32,59.94485074,62c50e9c1127f2cd403a315f,0,88,88,36,1,threeone,,,,,,,,,,,,,,,,,,,,,,,,,,,,,,,,,,,,,,,,,,,,,,,,,,,,,,,,,,,,,,,,,,,,,,,,,,,,,,,,,,,,,,,,,,,,,,,,,,,,,,,,,,,,,,,,,,,,,,,,,,,,,,,,,,,,,,,,,,,,,,,,,,,,,,,,,,,,,
,,,,,,5e9f36a7e7a8f307cbd64a65,62c5385b1d4b666352f10f14,2022-07-06_08h23.37.711,Colour_Asymmetry_Pilot,2022.1.3,Win32,59.94485074,62c50e9c1127f2cd403a315f,0,89,89,101,1,threefour,,,,,,,,,,,,,,,,,,,,,,,,,,,,,,,,,,,,,,,,,,,,,,,,,,,,,,,,,,,,,,,,,,,,,,,,,,,,,,,,,,,,,,,,,,,,,,,,,,,,,,,,,,,,,,,,,,,,,,,,,,,,,,,,,,,,,,,,,,,,,,,,,,,,,,,,,,,,,
,,,,,,5e9f36a7e7a8f307cbd64a65,62c5385b1d4b666352f10f14,2022-07-06_08h23.37.711,Colour_Asymmetry_Pilot,2022.1.3,Win32,59.94485074,62c50e9c1127f2cd403a315f,0,90,90,17,1,onethree,,,,,,,,,,,,,,,,,,,,,,,,,,,,,,,,,,,,,,,,,,,,,,,,,,,,,,,,,,,,,,,,,,,,,,,,,,,,,,,,,,,,,,,,,,,,,,,,,,,,,,,,,,,,,,,,,,,,,,,,,,,,,,,,,,,,,,,,,,,,,,,,,,,,,,,,,,,,,
,,,,,,5e9f36a7e7a8f307cbd64a65,62c5385b1d4b666352f10f14,2022-07-06_08h23.37.711,Colour_Asymmetry_Pilot,2022.1.3,Win32,59.94485074,62c50e9c1127f2cd403a315f,0,91,91,74,1,twoone,,,,,,,,,,,,,,,,,,,,,,,,,,,,,,,,,,,,,,,,,,,,,,,,,,,,,,,,,,,,,,,,,,,,,,,,,,,,,,,,,,,,,,,,,,,,,,,,,,,,,,,,,,,,,,,,,,,,,,,,,,,,,,,,,,,,,,,,,,,,,,,,,,,,,,,,,,,,,
,,,,,,5e9f36a7e7a8f307cbd64a65,62c5385b1d4b666352f10f14,2022-07-06_08h23.37.711,Colour_Asymmetry_Pilot,2022.1.3,Win32,59.94485074,62c50e9c1127f2cd403a315f,0,92,92,142,1,fourtwo,,,,,,,,,,,,,,,,,,,,,,,,,,,,,,,,,,,,,,,,,,,,,,,,,,,,,,,,,,,,,,,,,,,,,,,,,,,,,,,,,,,,,,,,,,,,,,,,,,,,,,,,,,,,,,,,,,,,,,,,,,,,,,,,,,,,,,,,,,,,,,,,,,,,,,,,,,,,,
,,,,,,5e9f36a7e7a8f307cbd64a65,62c5385b1d4b666352f10f14,2022-07-06_08h23.37.711,Colour_Asymmetry_Pilot,2022.1.3,Win32,59.94485074,62c50e9c1127f2cd403a315f,0,93,93,161,1,onethree,,,,,,,,,,,,,,,,,,,,,,,,,,,,,,,,,,,,,,,,,,,,,,,,,,,,,,,,,,,,,,,,,,,,,,,,,,,,,,,,,,,,,,,,,,,,,,,,,,,,,,,,,,,,,,,,,,,,,,,,,,,,,,,,,,,,,,,,,,,,,,,,,,,,,,,,,,,,,
,,,,,,5e9f36a7e7a8f307cbd64a65,62c5385b1d4b666352f10f14,2022-07-06_08h23.37.711,Colour_Asymmetry_Pilot,2022.1.3,Win32,59.94485074,62c50e9c1127f2cd403a315f,0,94,94,83,1,twofour,,,,,,,,,,,,,,,,,,,,,,,,,,,,,,,,,,,,,,,,,,,,,,,,,,,,,,,,,,,,,,,,,,,,,,,,,,,,,,,,,,,,,,,,,,,,,,,,,,,,,,,,,,,,,,,,,,,,,,,,,,,,,,,,,,,,,,,,,,,,,,,,,,,,,,,,,,,,,
,,,,,,5e9f36a7e7a8f307cbd64a65,62c5385b1d4b666352f10f14,2022-07-06_08h23.37.711,Colour_Asymmetry_Pilot,2022.1.3,Win32,59.94485074,62c50e9c1127f2cd403a315f,0,95,95,96,1,onetwo,,,,,,,,,,,,,,,,,,,,,,,,,,,,,,,,,,,,,,,,,,,,,,,,,,,,,,,,,,,,,,,,,,,,,,,,,,,,,,,,,,,,,,,,,,,,,,,,,,,,,,,,,,,,,,,,,,,,,,,,,,,,,,,,,,,,,,,,,,,,,,,,,,,,,,,,,,,,,
,,,,,,5e9f36a7e7a8f307cbd64a65,62c5385b1d4b666352f10f14,2022-07-06_08h23.37.711,Colour_Asymmetry_Pilot,2022.1.3,Win32,59.94485074,62c50e9c1127f2cd403a315f,0,96,96,20,1,threeone,,,,,,,,,,,,,,,,,,,,,,,,,,,,,,,,,,,,,,,,,,,,,,,,,,,,,,,,,,,,,,,,,,,,,,,,,,,,,,,,,,,,,,,,,,,,,,,,,,,,,,,,,,,,,,,,,,,,,,,,,,,,,,,,,,,,,,,,,,,,,,,,,,,,,,,,,,,,,
,,,,,,5e9f36a7e7a8f307cbd64a65,62c5385b1d4b666352f10f14,2022-07-06_08h23.37.711,Colour_Asymmetry_Pilot,2022.1.3,Win32,59.94485074,62c50e9c1127f2cd403a315f,0,97,97,42,1,twoone,,,,,,,,,,,,,,,,,,,,,,,,,,,,,,,,,,,,,,,,,,,,,,,,,,,,,,,,,,,,,,,,,,,,,,,,,,,,,,,,,,,,,,,,,,,,,,,,,,,,,,,,,,,,,,,,,,,,,,,,,,,,,,,,,,,,,,,,,,,,,,,,,,,,,,,,,,,,,
,,,,,,5e9f36a7e7a8f307cbd64a65,62c5385b1d4b666352f10f14,2022-07-06_08h23.37.711,Colour_Asymmetry_Pilot,2022.1.3,Win32,59.94485074,62c50e9c1127f2cd403a315f,0,98,98,22,1,fourtwo,,,,,,,,,,,,,,,,,,,,,,,,,,,,,,,,,,,,,,,,,,,,,,,,,,,,,,,,,,,,,,,,,,,,,,,,,,,,,,,,,,,,,,,,,,,,,,,,,,,,,,,,,,,,,,,,,,,,,,,,,,,,,,,,,,,,,,,,,,,,,,,,,,,,,,,,,,,,,
,,,,,,5e9f36a7e7a8f307cbd64a65,62c5385b1d4b666352f10f14,2022-07-06_08h23.37.711,Colour_Asymmetry_Pilot,2022.1.3,Win32,59.94485074,62c50e9c1127f2cd403a315f,0,99,99,10,1,twoone,,,,,,,,,,,,,,,,,,,,,,,,,,,,,,,,,,,,,,,,,,,,,,,,,,,,,,,,,,,,,,,,,,,,,,,,,,,,,,,,,,,,,,,,,,,,,,,,,,,,,,,,,,,,,,,,,,,,,,,,,,,,,,,,,,,,,,,,,,,,,,,,,,,,,,,,,,,,,
,,,,,,5e9f36a7e7a8f307cbd64a65,62c5385b1d4b666352f10f14,2022-07-06_08h23.37.711,Colour_Asymmetry_Pilot,2022.1.3,Win32,59.94485074,62c50e9c1127f2cd403a315f,0,100,100,47,1,fourthree,,,,,,,,,,,,,,,,,,,,,,,,,,,,,,,,,,,,,,,,,,,,,,,,,,,,,,,,,,,,,,,,,,,,,,,,,,,,,,,,,,,,,,,,,,,,,,,,,,,,,,,,,,,,,,,,,,,,,,,,,,,,,,,,,,,,,,,,,,,,,,,,,,,,,,,,,,,,,
,,,,,,5e9f36a7e7a8f307cbd64a65,62c5385b1d4b666352f10f14,2022-07-06_08h23.37.711,Colour_Asymmetry_Pilot,2022.1.3,Win32,59.94485074,62c50e9c1127f2cd403a315f,0,101,101,59,1,twofour,,,,,,,,,,,,,,,,,,,,,,,,,,,,,,,,,,,,,,,,,,,,,,,,,,,,,,,,,,,,,,,,,,,,,,,,,,,,,,,,,,,,,,,,,,,,,,,,,,,,,,,,,,,,,,,,,,,,,,,,,,,,,,,,,,,,,,,,,,,,,,,,,,,,,,,,,,,,,
,,,,,,5e9f36a7e7a8f307cbd64a65,62c5385b1d4b666352f10f14,2022-07-06_08h23.37.711,Colour_Asymmetry_Pilot,2022.1.3,Win32,59.94485074,62c50e9c1127f2cd403a315f,0,102,102,86,1,fourtwo,,,,,,,,,,,,,,,,,,,,,,,,,,,,,,,,,,,,,,,,,,,,,,,,,,,,,,,,,,,,,,,,,,,,,,,,,,,,,,,,,,,,,,,,,,,,,,,,,,,,,,,,,,,,,,,,,,,,,,,,,,,,,,,,,,,,,,,,,,,,,,,,,,,,,,,,,,,,,
,,,,,,5e9f36a7e7a8f307cbd64a65,62c5385b1d4b666352f10f14,2022-07-06_08h23.37.711,Colour_Asymmetry_Pilot,2022.1.3,Win32,59.94485074,62c50e9c1127f2cd403a315f,0,103,103,157,1,threefour,,,,,,,,,,,,,,,,,,,,,,,,,,,,,,,,,,,,,,,,,,,,,,,,,,,,,,,,,,,,,,,,,,,,,,,,,,,,,,,,,,,,,,,,,,,,,,,,,,,,,,,,,,,,,,,,,,,,,,,,,,,,,,,,,,,,,,,,,,,,,,,,,,,,,,,,,,,,,
,,,,,,5e9f36a7e7a8f307cbd64a65,62c5385b1d4b666352f10f14,2022-07-06_08h23.37.711,Colour_Asymmetry_Pilot,2022.1.3,Win32,59.94485074,62c50e9c1127f2cd403a315f,0,104,104,152,1,onetwo,,,,,,,,,,,,,,,,,,,,,,,,,,,,,,,,,,,,,,,,,,,,,,,,,,,,,,,,,,,,,,,,,,,,,,,,,,,,,,,,,,,,,,,,,,,,,,,,,,,,,,,,,,,,,,,,,,,,,,,,,,,,,,,,,,,,,,,,,,,,,,,,,,,,,,,,,,,,,
,,,,,,5e9f36a7e7a8f307cbd64a65,62c5385b1d4b666352f10f14,2022-07-06_08h23.37.711,Colour_Asymmetry_Pilot,2022.1.3,Win32,59.94485074,62c50e9c1127f2cd403a315f,0,105,105,120,1,onetwo,,,,,,,,,,,,,,,,,,,,,,,,,,,,,,,,,,,,,,,,,,,,,,,,,,,,,,,,,,,,,,,,,,,,,,,,,,,,,,,,,,,,,,,,,,,,,,,,,,,,,,,,,,,,,,,,,,,,,,,,,,,,,,,,,,,,,,,,,,,,,,,,,,,,,,,,,,,,,
,,,,,,5e9f36a7e7a8f307cbd64a65,62c5385b1d4b666352f10f14,2022-07-06_08h23.37.711,Colour_Asymmetry_Pilot,2022.1.3,Win32,59.94485074,62c50e9c1127f2cd403a315f,0,106,106,158,1,fourtwo,,,,,,,,,,,,,,,,,,,,,,,,,,,,,,,,,,,,,,,,,,,,,,,,,,,,,,,,,,,,,,,,,,,,,,,,,,,,,,,,,,,,,,,,,,,,,,,,,,,,,,,,,,,,,,,,,,,,,,,,,,,,,,,,,,,,,,,,,,,,,,,,,,,,,,,,,,,,,
,,,,,,5e9f36a7e7a8f307cbd64a65,62c5385b1d4b666352f10f14,2022-07-06_08h23.37.711,Colour_Asymmetry_Pilot,2022.1.3,Win32,59.94485074,62c50e9c1127f2cd403a315f,0,107,107,117,1,threefour,,,,,,,,,,,,,,,,,,,,,,,,,,,,,,,,,,,,,,,,,,,,,,,,,,,,,,,,,,,,,,,,,,,,,,,,,,,,,,,,,,,,,,,,,,,,,,,,,,,,,,,,,,,,,,,,,,,,,,,,,,,,,,,,,,,,,,,,,,,,,,,,,,,,,,,,,,,,,
,,,,,,5e9f36a7e7a8f307cbd64a65,62c5385b1d4b666352f10f14,2022-07-06_08h23.37.711,Colour_Asymmetry_Pilot,2022.1.3,Win32,59.94485074,62c50e9c1127f2cd403a315f,0,108,108,159,1,fourthree,,,,,,,,,,,,,,,,,,,,,,,,,,,,,,,,,,,,,,,,,,,,,,,,,,,,,,,,,,,,,,,,,,,,,,,,,,,,,,,,,,,,,,,,,,,,,,,,,,,,,,,,,,,,,,,,,,,,,,,,,,,,,,,,,,,,,,,,,,,,,,,,,,,,,,,,,,,,,
,,,,,,5e9f36a7e7a8f307cbd64a65,62c5385b1d4b666352f10f14,2022-07-06_08h23.37.711,Colour_Asymmetry_Pilot,2022.1.3,Win32,59.94485074,62c50e9c1127f2cd403a315f,0,109,109,61,1,threefour,,,,,,,,,,,,,,,,,,,,,,,,,,,,,,,,,,,,,,,,,,,,,,,,,,,,,,,,,,,,,,,,,,,,,,,,,,,,,,,,,,,,,,,,,,,,,,,,,,,,,,,,,,,,,,,,,,,,,,,,,,,,,,,,,,,,,,,,,,,,,,,,,,,,,,,,,,,,,
,,,,,,5e9f36a7e7a8f307cbd64a65,62c5385b1d4b666352f10f14,2022-07-06_08h23.37.711,Colour_Asymmetry_Pilot,2022.1.3,Win32,59.94485074,62c50e9c1127f2cd403a315f,0,110,110,109,1,threefour,,,,,,,,,,,,,,,,,,,,,,,,,,,,,,,,,,,,,,,,,,,,,,,,,,,,,,,,,,,,,,,,,,,,,,,,,,,,,,,,,,,,,,,,,,,,,,,,,,,,,,,,,,,,,,,,,,,,,,,,,,,,,,,,,,,,,,,,,,,,,,,,,,,,,,,,,,,,,
,,,,,,5e9f36a7e7a8f307cbd64a65,62c5385b1d4b666352f10f14,2022-07-06_08h23.37.711,Colour_Asymmetry_Pilot,2022.1.3,Win32,59.94485074,62c50e9c1127f2cd403a315f,0,111,111,49,1,onethree,,,,,,,,,,,,,,,,,,,,,,,,,,,,,,,,,,,,,,,,,,,,,,,,,,,,,,,,,,,,,,,,,,,,,,,,,,,,,,,,,,,,,,,,,,,,,,,,,,,,,,,,,,,,,,,,,,,,,,,,,,,,,,,,,,,,,,,,,,,,,,,,,,,,,,,,,,,,,
,,,,,,5e9f36a7e7a8f307cbd64a65,62c5385b1d4b666352f10f14,2022-07-06_08h23.37.711,Colour_Asymmetry_Pilot,2022.1.3,Win32,59.94485074,62c50e9c1127f2cd403a315f,0,112,112,149,1,threefour,,,,,,,,,,,,,,,,,,,,,,,,,,,,,,,,,,,,,,,,,,,,,,,,,,,,,,,,,,,,,,,,,,,,,,,,,,,,,,,,,,,,,,,,,,,,,,,,,,,,,,,,,,,,,,,,,,,,,,,,,,,,,,,,,,,,,,,,,,,,,,,,,,,,,,,,,,,,,
,,,,,,5e9f36a7e7a8f307cbd64a65,62c5385b1d4b666352f10f14,2022-07-06_08h23.37.711,Colour_Asymmetry_Pilot,2022.1.3,Win32,59.94485074,62c50e9c1127f2cd403a315f,0,113,113,103,1,fourthree,,,,,,,,,,,,,,,,,,,,,,,,,,,,,,,,,,,,,,,,,,,,,,,,,,,,,,,,,,,,,,,,,,,,,,,,,,,,,,,,,,,,,,,,,,,,,,,,,,,,,,,,,,,,,,,,,,,,,,,,,,,,,,,,,,,,,,,,,,,,,,,,,,,,,,,,,,,,,
,,,,,,5e9f36a7e7a8f307cbd64a65,62c5385b1d4b666352f10f14,2022-07-06_08h23.37.711,Colour_Asymmetry_Pilot,2022.1.3,Win32,59.94485074,62c50e9c1127f2cd403a315f,0,114,114,45,1,threefour,,,,,,,,,,,,,,,,,,,,,,,,,,,,,,,,,,,,,,,,,,,,,,,,,,,,,,,,,,,,,,,,,,,,,,,,,,,,,,,,,,,,,,,,,,,,,,,,,,,,,,,,,,,,,,,,,,,,,,,,,,,,,,,,,,,,,,,,,,,,,,,,,,,,,,,,,,,,,
,,,,,,5e9f36a7e7a8f307cbd64a65,62c5385b1d4b666352f10f14,2022-07-06_08h23.37.711,Colour_Asymmetry_Pilot,2022.1.3,Win32,59.94485074,62c50e9c1127f2cd403a315f,0,115,115,46,1,fourtwo,,,,,,,,,,,,,,,,,,,,,,,,,,,,,,,,,,,,,,,,,,,,,,,,,,,,,,,,,,,,,,,,,,,,,,,,,,,,,,,,,,,,,,,,,,,,,,,,,,,,,,,,,,,,,,,,,,,,,,,,,,,,,,,,,,,,,,,,,,,,,,,,,,,,,,,,,,,,,
,,,,,,5e9f36a7e7a8f307cbd64a65,62c5385b1d4b666352f10f14,2022-07-06_08h23.37.711,Colour_Asymmetry_Pilot,2022.1.3,Win32,59.94485074,62c50e9c1127f2cd403a315f,0,116,116,88,1,onetwo,,,,,,,,,,,,,,,,,,,,,,,,,,,,,,,,,,,,,,,,,,,,,,,,,,,,,,,,,,,,,,,,,,,,,,,,,,,,,,,,,,,,,,,,,,,,,,,,,,,,,,,,,,,,,,,,,,,,,,,,,,,,,,,,,,,,,,,,,,,,,,,,,,,,,,,,,,,,,
,,,,,,5e9f36a7e7a8f307cbd64a65,62c5385b1d4b666352f10f14,2022-07-06_08h23.37.711,Colour_Asymmetry_Pilot,2022.1.3,Win32,59.94485074,62c50e9c1127f2cd403a315f,0,117,117,8,1,onetwo,,,,,,,,,,,,,,,,,,,,,,,,,,,,,,,,,,,,,,,,,,,,,,,,,,,,,,,,,,,,,,,,,,,,,,,,,,,,,,,,,,,,,,,,,,,,,,,,,,,,,,,,,,,,,,,,,,,,,,,,,,,,,,,,,,,,,,,,,,,,,,,,,,,,,,,,,,,,,
,,,,,,5e9f36a7e7a8f307cbd64a65,62c5385b1d4b666352f10f14,2022-07-06_08h23.37.711,Colour_Asymmetry_Pilot,2022.1.3,Win32,59.94485074,62c50e9c1127f2cd403a315f,0,118,118,78,1,fourtwo,,,,,,,,,,,,,,,,,,,,,,,,,,,,,,,,,,,,,,,,,,,,,,,,,,,,,,,,,,,,,,,,,,,,,,,,,,,,,,,,,,,,,,,,,,,,,,,,,,,,,,,,,,,,,,,,,,,,,,,,,,,,,,,,,,,,,,,,,,,,,,,,,,,,,,,,,,,,,
,,,,,,5e9f36a7e7a8f307cbd64a65,62c5385b1d4b666352f10f14,2022-07-06_08h23.37.711,Colour_Asymmetry_Pilot,2022.1.3,Win32,59.94485074,62c50e9c1127f2cd403a315f,0,119,119,113,1,onethree,,,,,,,,,,,,,,,,,,,,,,,,,,,,,,,,,,,,,,,,,,,,,,,,,,,,,,,,,,,,,,,,,,,,,,,,,,,,,,,,,,,,,,,,,,,,,,,,,,,,,,,,,,,,,,,,,,,,,,,,,,,,,,,,,,,,,,,,,,,,,,,,,,,,,,,,,,,,,
,,,,,,5e9f36a7e7a8f307cbd64a65,62c5385b1d4b666352f10f14,2022-07-06_08h23.37.711,Colour_Asymmetry_Pilot,2022.1.3,Win32,59.94485074,62c50e9c1127f2cd403a315f,0,120,120,141,1,threefour,,,,,,,,,,,,,,,,,,,,,,,,,,,,,,,,,,,,,,,,,,,,,,,,,,,,,,,,,,,,,,,,,,,,,,,,,,,,,,,,,,,,,,,,,,,,,,,,,,,,,,,,,,,,,,,,,,,,,,,,,,,,,,,,,,,,,,,,,,,,,,,,,,,,,,,,,,,,,
,,,,,,5e9f36a7e7a8f307cbd64a65,62c5385b1d4b666352f10f14,2022-07-06_08h23.37.711,Colour_Asymmetry_Pilot,2022.1.3,Win32,59.94485074,62c50e9c1127f2cd403a315f,0,121,121,48,1,onetwo,,,,,,,,,,,,,,,,,,,,,,,,,,,,,,,,,,,,,,,,,,,,,,,,,,,,,,,,,,,,,,,,,,,,,,,,,,,,,,,,,,,,,,,,,,,,,,,,,,,,,,,,,,,,,,,,,,,,,,,,,,,,,,,,,,,,,,,,,,,,,,,,,,,,,,,,,,,,,
,,,,,,5e9f36a7e7a8f307cbd64a65,62c5385b1d4b666352f10f14,2022-07-06_08h23.37.711,Colour_Asymmetry_Pilot,2022.1.3,Win32,59.94485074,62c50e9c1127f2cd403a315f,0,122,122,26,1,twoone,,,,,,,,,,,,,,,,,,,,,,,,,,,,,,,,,,,,,,,,,,,,,,,,,,,,,,,,,,,,,,,,,,,,,,,,,,,,,,,,,,,,,,,,,,,,,,,,,,,,,,,,,,,,,,,,,,,,,,,,,,,,,,,,,,,,,,,,,,,,,,,,,,,,,,,,,,,,,
,,,,,,5e9f36a7e7a8f307cbd64a65,62c5385b1d4b666352f10f14,2022-07-06_08h23.37.711,Colour_Asymmetry_Pilot,2022.1.3,Win32,59.94485074,62c50e9c1127f2cd403a315f,0,123,123,115,1,twofour,,,,,,,,,,,,,,,,,,,,,,,,,,,,,,,,,,,,,,,,,,,,,,,,,,,,,,,,,,,,,,,,,,,,,,,,,,,,,,,,,,,,,,,,,,,,,,,,,,,,,,,,,,,,,,,,,,,,,,,,,,,,,,,,,,,,,,,,,,,,,,,,,,,,,,,,,,,,,
,,,,,,5e9f36a7e7a8f307cbd64a65,62c5385b1d4b666352f10f14,2022-07-06_08h23.37.711,Colour_Asymmetry_Pilot,2022.1.3,Win32,59.94485074,62c50e9c1127f2cd403a315f,0,124,124,147,1,twofour,,,,,,,,,,,,,,,,,,,,,,,,,,,,,,,,,,,,,,,,,,,,,,,,,,,,,,,,,,,,,,,,,,,,,,,,,,,,,,,,,,,,,,,,,,,,,,,,,,,,,,,,,,,,,,,,,,,,,,,,,,,,,,,,,,,,,,,,,,,,,,,,,,,,,,,,,,,,,
,,,,,,5e9f36a7e7a8f307cbd64a65,62c5385b1d4b666352f10f14,2022-07-06_08h23.37.711,Colour_Asymmetry_Pilot,2022.1.3,Win32,59.94485074,62c50e9c1127f2cd403a315f,0,125,125,54,1,fourtwo,,,,,,,,,,,,,,,,,,,,,,,,,,,,,,,,,,,,,,,,,,,,,,,,,,,,,,,,,,,,,,,,,,,,,,,,,,,,,,,,,,,,,,,,,,,,,,,,,,,,,,,,,,,,,,,,,,,,,,,,,,,,,,,,,,,,,,,,,,,,,,,,,,,,,,,,,,,,,
,,,,,,5e9f36a7e7a8f307cbd64a65,62c5385b1d4b666352f10f14,2022-07-06_08h23.37.711,Colour_Asymmetry_Pilot,2022.1.3,Win32,59.94485074,62c50e9c1127f2cd403a315f,0,126,126,41,1,onethree,,,,,,,,,,,,,,,,,,,,,,,,,,,,,,,,,,,,,,,,,,,,,,,,,,,,,,,,,,,,,,,,,,,,,,,,,,,,,,,,,,,,,,,,,,,,,,,,,,,,,,,,,,,,,,,,,,,,,,,,,,,,,,,,,,,,,,,,,,,,,,,,,,,,,,,,,,,,,
,,,,,,5e9f36a7e7a8f307cbd64a65,62c5385b1d4b666352f10f14,2022-07-06_08h23.37.711,Colour_Asymmetry_Pilot,2022.1.3,Win32,59.94485074,62c50e9c1127f2cd403a315f,0,127,127,90,1,twoone,,,,,,,,,,,,,,,,,,,,,,,,,,,,,,,,,,,,,,,,,,,,,,,,,,,,,,,,,,,,,,,,,,,,,,,,,,,,,,,,,,,,,,,,,,,,,,,,,,,,,,,,,,,,,,,,,,,,,,,,,,,,,,,,,,,,,,,,,,,,,,,,,,,,,,,,,,,,,
,,,,,,5e9f36a7e7a8f307cbd64a65,62c5385b1d4b666352f10f14,2022-07-06_08h23.37.711,Colour_Asymmetry_Pilot,2022.1.3,Win32,59.94485074,62c50e9c1127f2cd403a315f,0,128,128,112,1,onetwo,,,,,,,,,,,,,,,,,,,,,,,,,,,,,,,,,,,,,,,,,,,,,,,,,,,,,,,,,,,,,,,,,,,,,,,,,,,,,,,,,,,,,,,,,,,,,,,,,,,,,,,,,,,,,,,,,,,,,,,,,,,,,,,,,,,,,,,,,,,,,,,,,,,,,,,,,,,,,
,,,,,,5e9f36a7e7a8f307cbd64a65,62c5385b1d4b666352f10f14,2022-07-06_08h23.37.711,Colour_Asymmetry_Pilot,2022.1.3,Win32,59.94485074,62c50e9c1127f2cd403a315f,0,129,129,146,1,twoone,,,,,,,,,,,,,,,,,,,,,,,,,,,,,,,,,,,,,,,,,,,,,,,,,,,,,,,,,,,,,,,,,,,,,,,,,,,,,,,,,,,,,,,,,,,,,,,,,,,,,,,,,,,,,,,,,,,,,,,,,,,,,,,,,,,,,,,,,,,,,,,,,,,,,,,,,,,,,
,,,,,,5e9f36a7e7a8f307cbd64a65,62c5385b1d4b666352f10f14,2022-07-06_08h23.37.711,Colour_Asymmetry_Pilot,2022.1.3,Win32,59.94485074,62c50e9c1127f2cd403a315f,0,130,130,19,1,twofour,,,,,,,,,,,,,,,,,,,,,,,,,,,,,,,,,,,,,,,,,,,,,,,,,,,,,,,,,,,,,,,,,,,,,,,,,,,,,,,,,,,,,,,,,,,,,,,,,,,,,,,,,,,,,,,,,,,,,,,,,,,,,,,,,,,,,,,,,,,,,,,,,,,,,,,,,,,,,
,,,,,,5e9f36a7e7a8f307cbd64a65,62c5385b1d4b666352f10f14,2022-07-06_08h23.37.711,Colour_Asymmetry_Pilot,2022.1.3,Win32,59.94485074,62c50e9c1127f2cd403a315f,0,131,131,63,1,fourthree,,,,,,,,,,,,,,,,,,,,,,,,,,,,,,,,,,,,,,,,,,,,,,,,,,,,,,,,,,,,,,,,,,,,,,,,,,,,,,,,,,,,,,,,,,,,,,,,,,,,,,,,,,,,,,,,,,,,,,,,,,,,,,,,,,,,,,,,,,,,,,,,,,,,,,,,,,,,,
,,,,,,5e9f36a7e7a8f307cbd64a65,62c5385b1d4b666352f10f14,2022-07-06_08h23.37.711,Colour_Asymmetry_Pilot,2022.1.3,Win32,59.94485074,62c50e9c1127f2cd403a315f,0,132,132,136,1,onetwo,,,,,,,,,,,,,,,,,,,,,,,,,,,,,,,,,,,,,,,,,,,,,,,,,,,,,,,,,,,,,,,,,,,,,,,,,,,,,,,,,,,,,,,,,,,,,,,,,,,,,,,,,,,,,,,,,,,,,,,,,,,,,,,,,,,,,,,,,,,,,,,,,,,,,,,,,,,,,
,,,,,,5e9f36a7e7a8f307cbd64a65,62c5385b1d4b666352f10f14,2022-07-06_08h23.37.711,Colour_Asymmetry_Pilot,2022.1.3,Win32,59.94485074,62c50e9c1127f2cd403a315f,0,133,133,23,1,fourthree,,,,,,,,,,,,,,,,,,,,,,,,,,,,,,,,,,,,,,,,,,,,,,,,,,,,,,,,,,,,,,,,,,,,,,,,,,,,,,,,,,,,,,,,,,,,,,,,,,,,,,,,,,,,,,,,,,,,,,,,,,,,,,,,,,,,,,,,,,,,,,,,,,,,,,,,,,,,,
,,,,,,5e9f36a7e7a8f307cbd64a65,62c5385b1d4b666352f10f14,2022-07-06_08h23.37.711,Colour_Asymmetry_Pilot,2022.1.3,Win32,59.94485074,62c50e9c1127f2cd403a315f,0,134,134,85,1,threefour,,,,,,,,,,,,,,,,,,,,,,,,,,,,,,,,,,,,,,,,,,,,,,,,,,,,,,,,,,,,,,,,,,,,,,,,,,,,,,,,,,,,,,,,,,,,,,,,,,,,,,,,,,,,,,,,,,,,,,,,,,,,,,,,,,,,,,,,,,,,,,,,,,,,,,,,,,,,,
,,,,,,5e9f36a7e7a8f307cbd64a65,62c5385b1d4b666352f10f14,2022-07-06_08h23.37.711,Colour_Asymmetry_Pilot,2022.1.3,Win32,59.94485074,62c50e9c1127f2cd403a315f,0,135,135,126,1,fourtwo,,,,,,,,,,,,,,,,,,,,,,,,,,,,,,,,,,,,,,,,,,,,,,,,,,,,,,,,,,,,,,,,,,,,,,,,,,,,,,,,,,,,,,,,,,,,,,,,,,,,,,,,,,,,,,,,,,,,,,,,,,,,,,,,,,,,,,,,,,,,,,,,,,,,,,,,,,,,,
,,,,,,5e9f36a7e7a8f307cbd64a65,62c5385b1d4b666352f10f14,2022-07-06_08h23.37.711,Colour_Asymmetry_Pilot,2022.1.3,Win32,59.94485074,62c50e9c1127f2cd403a315f,0,136,136,25,1,onethree,,,,,,,,,,,,,,,,,,,,,,,,,,,,,,,,,,,,,,,,,,,,,,,,,,,,,,,,,,,,,,,,,,,,,,,,,,,,,,,,,,,,,,,,,,,,,,,,,,,,,,,,,,,,,,,,,,,,,,,,,,,,,,,,,,,,,,,,,,,,,,,,,,,,,,,,,,,,,
,,,,,,5e9f36a7e7a8f307cbd64a65,62c5385b1d4b666352f10f14,2022-07-06_08h23.37.711,Colour_Asymmetry_Pilot,2022.1.3,Win32,59.94485074,62c50e9c1127f2cd403a315f,0,137,137,12,1,threeone,,,,,,,,,,,,,,,,,,,,,,,,,,,,,,,,,,,,,,,,,,,,,,,,,,,,,,,,,,,,,,,,,,,,,,,,,,,,,,,,,,,,,,,,,,,,,,,,,,,,,,,,,,,,,,,,,,,,,,,,,,,,,,,,,,,,,,,,,,,,,,,,,,,,,,,,,,,,,
,,,,,,5e9f36a7e7a8f307cbd64a65,62c5385b1d4b666352f10f14,2022-07-06_08h23.37.711,Colour_Asymmetry_Pilot,2022.1.3,Win32,59.94485074,62c50e9c1127f2cd403a315f,0,138,138,81,1,onethree,,,,,,,,,,,,,,,,,,,,,,,,,,,,,,,,,,,,,,,,,,,,,,,,,,,,,,,,,,,,,,,,,,,,,,,,,,,,,,,,,,,,,,,,,,,,,,,,,,,,,,,,,,,,,,,,,,,,,,,,,,,,,,,,,,,,,,,,,,,,,,,,,,,,,,,,,,,,,
,,,,,,5e9f36a7e7a8f307cbd64a65,62c5385b1d4b666352f10f14,2022-07-06_08h23.37.711,Colour_Asymmetry_Pilot,2022.1.3,Win32,59.94485074,62c50e9c1127f2cd403a315f,0,139,139,69,1,threefour,,,,,,,,,,,,,,,,,,,,,,,,,,,,,,,,,,,,,,,,,,,,,,,,,,,,,,,,,,,,,,,,,,,,,,,,,,,,,,,,,,,,,,,,,,,,,,,,,,,,,,,,,,,,,,,,,,,,,,,,,,,,,,,,,,,,,,,,,,,,,,,,,,,,,,,,,,,,,
,,,,,,5e9f36a7e7a8f307cbd64a65,62c5385b1d4b666352f10f14,2022-07-06_08h23.37.711,Colour_Asymmetry_Pilot,2022.1.3,Win32,59.94485074,62c50e9c1127f2cd403a315f,0,140,140,108,1,threeone,,,,,,,,,,,,,,,,,,,,,,,,,,,,,,,,,,,,,,,,,,,,,,,,,,,,,,,,,,,,,,,,,,,,,,,,,,,,,,,,,,,,,,,,,,,,,,,,,,,,,,,,,,,,,,,,,,,,,,,,,,,,,,,,,,,,,,,,,,,,,,,,,,,,,,,,,,,,,
,,,,,,5e9f36a7e7a8f307cbd64a65,62c5385b1d4b666352f10f14,2022-07-06_08h23.37.711,Colour_Asymmetry_Pilot,2022.1.3,Win32,59.94485074,62c50e9c1127f2cd403a315f,0,141,141,33,1,onethree,,,,,,,,,,,,,,,,,,,,,,,,,,,,,,,,,,,,,,,,,,,,,,,,,,,,,,,,,,,,,,,,,,,,,,,,,,,,,,,,,,,,,,,,,,,,,,,,,,,,,,,,,,,,,,,,,,,,,,,,,,,,,,,,,,,,,,,,,,,,,,,,,,,,,,,,,,,,,
,,,,,,5e9f36a7e7a8f307cbd64a65,62c5385b1d4b666352f10f14,2022-07-06_08h23.37.711,Colour_Asymmetry_Pilot,2022.1.3,Win32,59.94485074,62c50e9c1127f2cd403a315f,0,142,142,27,1,twofour,,,,,,,,,,,,,,,,,,,,,,,,,,,,,,,,,,,,,,,,,,,,,,,,,,,,,,,,,,,,,,,,,,,,,,,,,,,,,,,,,,,,,,,,,,,,,,,,,,,,,,,,,,,,,,,,,,,,,,,,,,,,,,,,,,,,,,,,,,,,,,,,,,,,,,,,,,,,,
,,,,,,5e9f36a7e7a8f307cbd64a65,62c5385b1d4b666352f10f14,2022-07-06_08h23.37.711,Colour_Asymmetry_Pilot,2022.1.3,Win32,59.94485074,62c50e9c1127f2cd403a315f,0,143,143,82,1,twoone,,,,,,,,,,,,,,,,,,,,,,,,,,,,,,,,,,,,,,,,,,,,,,,,,,,,,,,,,,,,,,,,,,,,,,,,,,,,,,,,,,,,,,,,,,,,,,,,,,,,,,,,,,,,,,,,,,,,,,,,,,,,,,,,,,,,,,,,,,,,,,,,,,,,,,,,,,,,,
,,,,,,5e9f36a7e7a8f307cbd64a65,62c5385b1d4b666352f10f14,2022-07-06_08h23.37.711,Colour_Asymmetry_Pilot,2022.1.3,Win32,59.94485074,62c50e9c1127f2cd403a315f,0,144,144,151,1,fourthree,,,,,,,,,,,,,,,,,,,,,,,,,,,,,,,,,,,,,,,,,,,,,,,,,,,,,,,,,,,,,,,,,,,,,,,,,,,,,,,,,,,,,,,,,,,,,,,,,,,,,,,,,,,,,,,,,,,,,,,,,,,,,,,,,,,,,,,,,,,,,,,,,,,,,,,,,,,,,
,,,,,,5e9f36a7e7a8f307cbd64a65,62c5385b1d4b666352f10f14,2022-07-06_08h23.37.711,Colour_Asymmetry_Pilot,2022.1.3,Win32,59.94485074,62c50e9c1127f2cd403a315f,0,145,145,150,1,fourtwo,,,,,,,,,,,,,,,,,,,,,,,,,,,,,,,,,,,,,,,,,,,,,,,,,,,,,,,,,,,,,,,,,,,,,,,,,,,,,,,,,,,,,,,,,,,,,,,,,,,,,,,,,,,,,,,,,,,,,,,,,,,,,,,,,,,,,,,,,,,,,,,,,,,,,,,,,,,,,
,,,,,,5e9f36a7e7a8f307cbd64a65,62c5385b1d4b666352f10f14,2022-07-06_08h23.37.711,Colour_Asymmetry_Pilot,2022.1.3,Win32,59.94485074,62c50e9c1127f2cd403a315f,0,146,146,121,1,onethree,,,,,,,,,,,,,,,,,,,,,,,,,,,,,,,,,,,,,,,,,,,,,,,,,,,,,,,,,,,,,,,,,,,,,,,,,,,,,,,,,,,,,,,,,,,,,,,,,,,,,,,,,,,,,,,,,,,,,,,,,,,,,,,,,,,,,,,,,,,,,,,,,,,,,,,,,,,,,
,,,,,,5e9f36a7e7a8f307cbd64a65,62c5385b1d4b666352f10f14,2022-07-06_08h23.37.711,Colour_Asymmetry_Pilot,2022.1.3,Win32,59.94485074,62c50e9c1127f2cd403a315f,0,147,147,79,1,fourthree,,,,,,,,,,,,,,,,,,,,,,,,,,,,,,,,,,,,,,,,,,,,,,,,,,,,,,,,,,,,,,,,,,,,,,,,,,,,,,,,,,,,,,,,,,,,,,,,,,,,,,,,,,,,,,,,,,,,,,,,,,,,,,,,,,,,,,,,,,,,,,,,,,,,,,,,,,,,,
,,,,,,5e9f36a7e7a8f307cbd64a65,62c5385b1d4b666352f10f14,2022-07-06_08h23.37.711,Colour_Asymmetry_Pilot,2022.1.3,Win32,59.94485074,62c50e9c1127f2cd403a315f,0,148,148,30,1,fourtwo,,,,,,,,,,,,,,,,,,,,,,,,,,,,,,,,,,,,,,,,,,,,,,,,,,,,,,,,,,,,,,,,,,,,,,,,,,,,,,,,,,,,,,,,,,,,,,,,,,,,,,,,,,,,,,,,,,,,,,,,,,,,,,,,,,,,,,,,,,,,,,,,,,,,,,,,,,,,,
,,,,,,5e9f36a7e7a8f307cbd64a65,62c5385b1d4b666352f10f14,2022-07-06_08h23.37.711,Colour_Asymmetry_Pilot,2022.1.3,Win32,59.94485074,62c50e9c1127f2cd403a315f,0,149,149,67,1,twofour,,,,,,,,,,,,,,,,,,,,,,,,,,,,,,,,,,,,,,,,,,,,,,,,,,,,,,,,,,,,,,,,,,,,,,,,,,,,,,,,,,,,,,,,,,,,,,,,,,,,,,,,,,,,,,,,,,,,,,,,,,,,,,,,,,,,,,,,,,,,,,,,,,,,,,,,,,,,,
,,,,,,5e9f36a7e7a8f307cbd64a65,62c5385b1d4b666352f10f14,2022-07-06_08h23.37.711,Colour_Asymmetry_Pilot,2022.1.3,Win32,59.94485074,62c50e9c1127f2cd403a315f,0,150,150,7,1,fourthree,,,,,,,,,,,,,,,,,,,,,,,,,,,,,,,,,,,,,,,,,,,,,,,,,,,,,,,,,,,,,,,,,,,,,,,,,,,,,,,,,,,,,,,,,,,,,,,,,,,,,,,,,,,,,,,,,,,,,,,,,,,,,,,,,,,,,,,,,,,,,,,,,,,,,,,,,,,,,
,,,,,,5e9f36a7e7a8f307cbd64a65,62c5385b1d4b666352f10f14,2022-07-06_08h23.37.711,Colour_Asymmetry_Pilot,2022.1.3,Win32,59.94485074,62c50e9c1127f2cd403a315f,0,151,151,124,1,threeone,,,,,,,,,,,,,,,,,,,,,,,,,,,,,,,,,,,,,,,,,,,,,,,,,,,,,,,,,,,,,,,,,,,,,,,,,,,,,,,,,,,,,,,,,,,,,,,,,,,,,,,,,,,,,,,,,,,,,,,,,,,,,,,,,,,,,,,,,,,,,,,,,,,,,,,,,,,,,
,,,,,,5e9f36a7e7a8f307cbd64a65,62c5385b1d4b666352f10f14,2022-07-06_08h23.37.711,Colour_Asymmetry_Pilot,2022.1.3,Win32,59.94485074,62c50e9c1127f2cd403a315f,0,152,152,137,1,onethree,,,,,,,,,,,,,,,,,,,,,,,,,,,,,,,,,,,,,,,,,,,,,,,,,,,,,,,,,,,,,,,,,,,,,,,,,,,,,,,,,,,,,,,,,,,,,,,,,,,,,,,,,,,,,,,,,,,,,,,,,,,,,,,,,,,,,,,,,,,,,,,,,,,,,,,,,,,,,
,,,,,,5e9f36a7e7a8f307cbd64a65,62c5385b1d4b666352f10f14,2022-07-06_08h23.37.711,Colour_Asymmetry_Pilot,2022.1.3,Win32,59.94485074,62c50e9c1127f2cd403a315f,0,153,153,95,1,fourthree,,,,,,,,,,,,,,,,,,,,,,,,,,,,,,,,,,,,,,,,,,,,,,,,,,,,,,,,,,,,,,,,,,,,,,,,,,,,,,,,,,,,,,,,,,,,,,,,,,,,,,,,,,,,,,,,,,,,,,,,,,,,,,,,,,,,,,,,,,,,,,,,,,,,,,,,,,,,,
,,,,,,5e9f36a7e7a8f307cbd64a65,62c5385b1d4b666352f10f14,2022-07-06_08h23.37.711,Colour_Asymmetry_Pilot,2022.1.3,Win32,59.94485074,62c50e9c1127f2cd403a315f,0,154,154,11,1,twofour,,,,,,,,,,,,,,,,,,,,,,,,,,,,,,,,,,,,,,,,,,,,,,,,,,,,,,,,,,,,,,,,,,,,,,,,,,,,,,,,,,,,,,,,,,,,,,,,,,,,,,,,,,,,,,,,,,,,,,,,,,,,,,,,,,,,,,,,,,,,,,,,,,,,,,,,,,,,,
,,,,,,5e9f36a7e7a8f307cbd64a65,62c5385b1d4b666352f10f14,2022-07-06_08h23.37.711,Colour_Asymmetry_Pilot,2022.1.3,Win32,59.94485074,62c50e9c1127f2cd403a315f,0,155,155,129,1,onethree,,,,,,,,,,,,,,,,,,,,,,,,,,,,,,,,,,,,,,,,,,,,,,,,,,,,,,,,,,,,,,,,,,,,,,,,,,,,,,,,,,,,,,,,,,,,,,,,,,,,,,,,,,,,,,,,,,,,,,,,,,,,,,,,,,,,,,,,,,,,,,,,,,,,,,,,,,,,,
,,,,,,5e9f36a7e7a8f307cbd64a65,62c5385b1d4b666352f10f14,2022-07-06_08h23.37.711,Colour_Asymmetry_Pilot,2022.1.3,Win32,59.94485074,62c50e9c1127f2cd403a315f,0,156,156,40,1,onetwo,,,,,,,,,,,,,,,,,,,,,,,,,,,,,,,,,,,,,,,,,,,,,,,,,,,,,,,,,,,,,,,,,,,,,,,,,,,,,,,,,,,,,,,,,,,,,,,,,,,,,,,,,,,,,,,,,,,,,,,,,,,,,,,,,,,,,,,,,,,,,,,,,,,,,,,,,,,,,
,,,,,,5e9f36a7e7a8f307cbd64a65,62c5385b1d4b666352f10f14,2022-07-06_08h23.37.711,Colour_Asymmetry_Pilot,2022.1.3,Win32,59.94485074,62c50e9c1127f2cd403a315f,0,157,157,6,1,fourtwo,,,,,,,,,,,,,,,,,,,,,,,,,,,,,,,,,,,,,,,,,,,,,,,,,,,,,,,,,,,,,,,,,,,,,,,,,,,,,,,,,,,,,,,,,,,,,,,,,,,,,,,,,,,,,,,,,,,,,,,,,,,,,,,,,,,,,,,,,,,,,,,,,,,,,,,,,,,,,
,,,,,,5e9f36a7e7a8f307cbd64a65,62c5385b1d4b666352f10f14,2022-07-06_08h23.37.711,Colour_Asymmetry_Pilot,2022.1.3,Win32,59.94485074,62c50e9c1127f2cd403a315f,0,158,158,29,1,threefour,,,,,,,,,,,,,,,,,,,,,,,,,,,,,,,,,,,,,,,,,,,,,,,,,,,,,,,,,,,,,,,,,,,,,,,,,,,,,,,,,,,,,,,,,,,,,,,,,,,,,,,,,,,,,,,,,,,,,,,,,,,,,,,,,,,,,,,,,,,,,,,,,,,,,,,,,,,,,
,,,,,,5e9f36a7e7a8f307cbd64a65,62c5385b1d4b666352f10f14,2022-07-06_08h23.37.711,Colour_Asymmetry_Pilot,2022.1.3,Win32,59.94485074,62c50e9c1127f2cd403a315f,0,159,159,38,1,fourtwo,,,,,,,,,,,,,,,,,,,,,,,,,,,,,,,,,,,,,,,,,,,,,,,,,,,,,,,,,,,,,,,,,,,,,,,,,,,,,,,,,,,,,,,,,,,,,,,,,,,,,,,,,,,,,,,,,,,,,,,,,,,,,,,,,,,,,,,,,,,,,,,,,,,,,,,,,,,,,
,,,,,,5e9f36a7e7a8f307cbd64a65,62c5385b1d4b666352f10f14,2022-07-06_08h23.37.711,Colour_Asymmetry_Pilot,2022.1.3,Win32,59.94485074,62c50e9c1127f2cd403a315f,0,160,160,62,1,fourtwo,,,,,,,,,,,,,,,,,,,,,,,,,,,,,,,,,,,,,,,,,,,,,,,,,,,,,,,,,,,,,,,,,,,,,,,,,,,,,,,,,,,,,,,,,,,,,,,,,,,,,,,,,,,,,,,,,,,,,,,,,,,,,,,,,,,,,,,,,,,,,,,,,,,,,,,,,,,,,
,,,,,,5e9f36a7e7a8f307cbd64a65,62c5385b1d4b666352f10f14,2022-07-06_08h23.37.711,Colour_Asymmetry_Pilot,2022.1.3,Win32,59.94485074,62c50e9c1127f2cd403a315f,0,161,161,94,1,fourtwo,,,,,,,,,,,,,,,,,,,,,,,,,,,,,,,,,,,,,,,,,,,,,,,,,,,,,,,,,,,,,,,,,,,,,,,,,,,,,,,,,,,,,,,,,,,,,,,,,,,,,,,,,,,,,,,,,,,,,,,,,,,,,,,,,,,,,,,,,,,,,,,,,,,,,,,,,,,,,
,,,,,,5e9f36a7e7a8f307cbd64a65,62c5385b1d4b666352f10f14,2022-07-06_08h23.37.711,Colour_Asymmetry_Pilot,2022.1.3,Win32,59.94485074,62c50e9c1127f2cd403a315f,,,,,,,space,1.6837,space,11.5355,space,10.4025,space,2.8048,space,1.2026,space,2.9488,"[-0.10599999999999998,-0.15300000000000002,0.15280000000000005]",threeone,"[-0.10599999999999998,-0.15300000000000002,0.15280000000000005]",4,2.8051,49,56,1,0,0,response1disk_5,-10,2,1,0,0,rectangle_8,86,-38,1,0,0,response3disk_7,5,2,10,4,1,0,0,rectangle_4,0,0,0,0,1,,,,,,,,,,,,,,,,,,,,,,,,,,,,,,,,,,,,,,,,,,,,,,,,,,,,,,,,,,,,,,,,,,,,,,,,,,,,,,,,,,,,,,,,,,,,,,,,,,,,,,,,,,,,,
,,,,,,5e9f36a7e7a8f307cbd64a65,62c5385b1d4b666352f10f14,2022-07-06_08h23.37.711,Colour_Asymmetry_Pilot,2022.1.3,Win32,59.94485074,62c50e9c1127f2cd403a315f,,,,,,,,,,,,,,,,,,,"[-0.6,0.16860000000000008,0.44300000000000006]",threefour,"[-0.17659999999999998,0.3253999999999999,0.19999999999999996]",4,3.6906,35,44,1,0,0,response1disk_5,13,7,1,0,0,rectangle_8,13,7,1,0,0,,,2,13,7,1,0,0,,1,0,1,0,1,,,,,,,,,,,,,,,,,,,,,,,,,,,,,,,,,,,,,,,,,,,,,,,,,,,,,,,,,,,,,,,,,,,,,,,,,,,,,,,,,,,,,,,,,,,,,,,,,,,,,,,,,,,,,
,,,,,,5e9f36a7e7a8f307cbd64a65,62c5385b1d4b666352f10f14,2022-07-06_08h23.37.711,Colour_Asymmetry_Pilot,2022.1.3,Win32,59.94485074,62c50e9c1127f2cd403a315f,,,,,,,,,,,,,,,,,,,"[-0.5688,-0.08239999999999992,-0.1844]",threeone,"[0.2784,-0.31000000000000005,-0.5452]",-1,2.1374,-43,-85,1,0,0,response5disk_5,-3,2,1,0,0,rectangle_8,-3,2,1,0,0,,,2,-3,2,1,0,0,,2,0,2,0,1,,,,,,,,,,,,,,,,,,,,,,,,,,,,,,,,,,,,,,,,,,,,,,,,,,,,,,,,,,,,,,,,,,,,,,,,,,,,,,,,,,,,,,,,,,,,,,,,,,,,,,,,,,,,,
,,,,,,5e9f36a7e7a8f307cbd64a65,62c5385b1d4b666352f10f14,2022-07-06_08h23.37.711,Colour_Asymmetry_Pilot,2022.1.3,Win32,59.94485074,62c50e9c1127f2cd403a315f,,,,,,,,,,,,,,,,,,,"[0.3881999999999999,-0.23939999999999995,-0.05040000000000011]",fourtwo,"[0.05879999999999996,0.2784,0.5841999999999998]",-2,4.6097,-77,-30,1,0,0,response5disk_5,-8,3,1,0,0,rectangle_8,100,-45,1,0,0,response3disk_7,5,2,3,-7,1,0,0,rectangle_4,3,0,3,0,1,,,,,,,,,,,,,,,,,,,,,,,,,,,,,,,,,,,,,,,,,,,,,,,,,,,,,,,,,,,,,,,,,,,,,,,,,,,,,,,,,,,,,,,,,,,,,,,,,,,,,,,,,,,,,
,,,,,,5e9f36a7e7a8f307cbd64a65,62c5385b1d4b666352f10f14,2022-07-06_08h23.37.711,Colour_Asymmetry_Pilot,2022.1.3,Win32,59.94485074,62c50e9c1127f2cd403a315f,,,,,,,,,,,,,,,,,,,"[0.8115999999999999,-0.0040000000000000036,-0.09819999999999995]",fourthree,"[0.9763999999999999,-0.1137999999999999,-0.6314]",3,1.3194,53,26,1,0,0,response1disk_5,-1,-4,1,0,0,rectangle_8,-1,-4,1,0,0,,,2,-1,-4,1,0,0,,4,0,4,0,1,,,,,,,,,,,,,,,,,,,,,,,,,,,,,,,,,,,,,,,,,,,,,,,,,,,,,,,,,,,,,,,,,,,,,,,,,,,,,,,,,,,,,,,,,,,,,,,,,,,,,,,,,,,,,
,,,,,,5e9f36a7e7a8f307cbd64a65,62c5385b1d4b666352f10f14,2022-07-06_08h23.37.711,Colour_Asymmetry_Pilot,2022.1.3,Win32,59.94485074,62c50e9c1127f2cd403a315f,,,,,,,,,,,,,,,,,,,"[0.3881999999999999,-0.23939999999999995,-0.05040000000000011]",twoone,"[-0.9138,-0.5296000000000001,-0.5529999999999999]",-3,1.7705,-70,28,1,0,0,response7disk_5,-4,-3,1,0,0,rectangle_8,-4,-3,1,0,0,,,2,-4,-3,1,0,0,,5,0,5,0,1,,,,,,,,,,,,,,,,,,,,,,,,,,,,,,,,,,,,,,,,,,,,,,,,,,,,,,,,,,,,,,,,,,,,,,,,,,,,,,,,,,,,,,,,,,,,,,,,,,,,,,,,,,,,,
,,,,,,5e9f36a7e7a8f307cbd64a65,62c5385b1d4b666352f10f14,2022-07-06_08h23.37.711,Colour_Asymmetry_Pilot,2022.1.3,Win32,59.94485074,62c50e9c1127f2cd403a315f,,,,,,,,,,,,,,,,,,,"[0.18419999999999992,-0.4276,-0.404]",onetwo,"[0.9372,0.20779999999999998,0.2704]",2,1.2353,56,-37,1,0,0,response3disk_5,-9,-4,1,0,0,rectangle_8,-9,-4,1,0,0,,,2,-9,-4,1,0,0,,6,0,6,0,1,,,,,,,,,,,,,,,,,,,,,,,,,,,,,,,,,,,,,,,,,,,,,,,,,,,,,,,,,,,,,,,,,,,,,,,,,,,,,,,,,,,,,,,,,,,,,,,,,,,,,,,,,,,,,
,,,,,,5e9f36a7e7a8f307cbd64a65,62c5385b1d4b666352f10f14,2022-07-06_08h23.37.711,Colour_Asymmetry_Pilot,2022.1.3,Win32,59.94485074,62c50e9c1127f2cd403a315f,,,,,,,,,,,,,,,,,,,,threefour,,-2,0.8177,,,,,,,,,,,,,,,,,,,,,,,,,,,,,,,,space,2.6351,"[-0.050999999999999934,-0.6706000000000001,-0.804]","[0.2862,0.7802,0.3568]",-74,-37,1,0,0,response5disk,11,2,1,0,0,rectangle,11,2,1,0,0,,1,0.0013,0,11,2,1,0,0,0,0,0,90,1,9,second,,,,,,,,,,,,,,,,,,,,,,,,,,,,,,,,,,,,,,,,,,,,,,,,,,,,,,,,,,,,,,,,,,,,,,,,
,,,,,,5e9f36a7e7a8f307cbd64a65,62c5385b1d4b666352f10f14,2022-07-06_08h23.37.711,Colour_Asymmetry_Pilot,2022.1.3,Win32,59.94485074,62c50e9c1127f2cd403a315f,,,,,,,,,,,,,,,,,,,,onetwo,,1,1.8371,,,,,,,,,,,,,,,,,,,,,,,,,,,,,,,,,,"[-0.9844,-0.9688,-0.9922]","[0.09799999999999986,-0.24719999999999998,0.15280000000000005]",45,-82,1,0,0,response3disk,3,-4,1,0,0,rectangle,3,-4,1,0,0,,2,0.0008,0,3,-4,1,0,0,0,1,1,101,1,20,second,,,,,,,,,,,,,,,,,,,,,,,,,,,,,,,,,,,,,,,,,,,,,,,,,,,,,,,,,,,,,,,,,,,,,,,,
,,,,,,5e9f36a7e7a8f307cbd64a65,62c5385b1d4b666352f10f14,2022-07-06_08h23.37.711,Colour_Asymmetry_Pilot,2022.1.3,Win32,59.94485074,62c50e9c1127f2cd403a315f,,,,,,,,,,,,,,,,,,,,threeone,,1,0.7012,,,,,,,,,,,,,,,,,,,,,,,,,,,,,,,,,,"[1,0.12939999999999996,-1]","[0.7176,-0.906,-0.6864]",39,-58,1,0,0,response3disk,-5,-4,1,0,0,rectangle,-5,-4,1,0,0,,1,0.0009,0,-5,-4,1,0,0,0,2,2,17,1,17,first,,,,,,,,,,,,,,,,,,,,,,,,,,,,,,,,,,,,,,,,,,,,,,,,,,,,,,,,,,,,,,,,,,,,,,,,
,,,,,,5e9f36a7e7a8f307cbd64a65,62c5385b1d4b666352f10f14,2022-07-06_08h23.37.711,Colour_Asymmetry_Pilot,2022.1.3,Win32,59.94485074,62c50e9c1127f2cd403a315f,,,,,,,,,,,,,,,,,,,,fourthree,,4,0.6509,,,,,,,,,,,,,,,,,,,,,,,,,,,,,,,,,,"[0.2862,0.7802,0.3568]","[-0.17659999999999998,0.3253999999999999,0.19999999999999996]",40,51,1,0,0,response1disk,-9,-9,1,0,0,rectangle,-9,-9,1,0,0,,1,0.0003,0,-9,-9,1,0,0,0,3,3,60,1,60,first,,,,,,,,,,,,,,,,,,,,,,,,,,,,,,,,,,,,,,,,,,,,,,,,,,,,,,,,,,,,,,,,,,,,,,,,
,,,,,,5e9f36a7e7a8f307cbd64a65,62c5385b1d4b666352f10f14,2022-07-06_08h23.37.711,Colour_Asymmetry_Pilot,2022.1.3,Win32,59.94485074,62c50e9c1127f2cd403a315f,,,,,,,,,,,,,,,,,,,,twofour,,2,0.4836,,,,,,,,,,,,,,,,,,,,,,,,,,,,,,,,,,"[-0.9688,-0.4902000000000001,-0.12159999999999993]","[0.12939999999999996,-0.2864,0.3253999999999999]",37,-34,1,0,0,response3disk,-4,-8,1,0,0,rectangle,-4,-8,1,0,0,,1,0.0002,0,-4,-8,1,0,0,0,4,4,41,1,41,first,,,,,,,,,,,,,,,,,,,,,,,,,,,,,,,,,,,,,,,,,,,,,,,,,,,,,,,,,,,,,,,,,,,,,,,,
,,,,,,5e9f36a7e7a8f307cbd64a65,62c5385b1d4b666352f10f14,2022-07-06_08h23.37.711,Colour_Asymmetry_Pilot,2022.1.3,Win32,59.94485074,62c50e9c1127f2cd403a315f,,,,,,,,,,,,,,,,,,,,onetwo,,-2,0.4839,,,,,,,,,,,,,,,,,,,,,,,,,,,,,,,,,,"[0.4196,0.4665999999999999,0.3568]","[-0.01980000000000004,-0.5138,-0.38039999999999996]",-55,-31,1,0,0,response5disk,0,-8,1,0,0,rectangle,0,-8,1,0,0,,2,0.0007,0,0,-8,1,0,0,0,5,5,4,1,4,first,,,,,,,,,,,,,,,,,,,,,,,,,,,,,,,,,,,,,,,,,,,,,,,,,,,,,,,,,,,,,,,,,,,,,,,,
,,,,,,5e9f36a7e7a8f307cbd64a65,62c5385b1d4b666352f10f14,2022-07-06_08h23.37.711,Colour_Asymmetry_Pilot,2022.1.3,Win32,59.94485074,62c50e9c1127f2cd403a315f,,,,,,,,,,,,,,,,,,,,threeone,,-1,1.3692,,,,,,,,,,,,,,,,,,,,,,,,,,,,,,,,,,"[0.9372,0.9450000000000001,0.8980000000000001]","[0.11359999999999992,0.6312,0.5213999999999999]",-55,-72,1,0,0,response5disk,-17,4,1,0,0,rectangle,-17,4,1,0,0,,3,0.0007,0,-17,4,1,0,0,0,6,6,151,1,70,second,,,,,,,,,,,,,,,,,,,,,,,,,,,,,,,,,,,,,,,,,,,,,,,,,,,,,,,,,,,,,,,,,,,,,,,,
,,,,,,5e9f36a7e7a8f307cbd64a65,62c5385b1d4b666352f10f14,2022-07-06_08h23.37.711,Colour_Asymmetry_Pilot,2022.1.3,Win32,59.94485074,62c50e9c1127f2cd403a315f,,,,,,,,,,,,,,,,,,,,twoone,,1,1.3529,,,,,,,,,,,,,,,,,,,,,,,,,,,,,,,,,,"[0.40379999999999994,0.09000000000000008,0.44300000000000006]","[0.23920000000000008,0.2704,0.16060000000000008]",47,-89,1,0,0,response3disk,-9,1,1,0,0,rectangle,-9,1,1,0,0,,1,0.001,0,-9,1,1,0,0,0,7,7,125,1,44,second,,,,,,,,,,,,,,,,,,,,,,,,,,,,,,,,,,,,,,,,,,,,,,,,,,,,,,,,,,,,,,,,,,,,,,,,
,,,,,,5e9f36a7e7a8f307cbd64a65,62c5385b1d4b666352f10f14,2022-07-06_08h23.37.711,Colour_Asymmetry_Pilot,2022.1.3,Win32,59.94485074,62c50e9c1127f2cd403a315f,,,,,,,,,,,,,,,,,,,,twoone,,-1,0.8518,,,,,,,,,,,,,,,,,,,,,,,,,,,,,,,,,,"[-0.9844,-0.9688,-0.9922]","[-0.9688,-0.38039999999999996,-0.41979999999999995]",-31,-86,1,0,0,response5disk,-11,-4,1,0,0,rectangle,38,-88,1,0,0,1,1,3.2562,1,-6,-14,1,0,0,0,8,8,104,1,23,second,response3disk_3,rectangle,,,,,,,,,,,,,,,,,,,,,,,,,,,,,,,,,,,,,,,,,,,,,,,,,,,,,,,,,,,,,,,,,,,,,,
,,,,,,5e9f36a7e7a8f307cbd64a65,62c5385b1d4b666352f10f14,2022-07-06_08h23.37.711,Colour_Asymmetry_Pilot,2022.1.3,Win32,59.94485074,62c50e9c1127f2cd403a315f,,,,,,,,,,,,,,,,,,,,twoone,,-1,0.6512,,,,,,,,,,,,,,,,,,,,,,,,,,,,,,,,,,"[-0.17659999999999998,-0.2864,-0.8354]","[0.9763999999999999,0.30979999999999985,-0.6786]",-45,-82,1,0,0,response5disk,6,0,1,0,0,rectangle,6,0,1,0,0,1,1,0.0005,0,6,0,1,0,0,0,9,9,0,1,0,first,,,,,,,,,,,,,,,,,,,,,,,,,,,,,,,,,,,,,,,,,,,,,,,,,,,,,,,,,,,,,,,,,,,,,,,,
,,,,,,5e9f36a7e7a8f307cbd64a65,62c5385b1d4b666352f10f14,2022-07-06_08h23.37.711,Colour_Asymmetry_Pilot,2022.1.3,Win32,59.94485074,62c50e9c1127f2cd403a315f,,,,,,,,,,,,,,,,,,,,onethree,,4,0.6174,,,,,,,,,,,,,,,,,,,,,,,,,,,,,,,,,,"[-0.01980000000000004,-0.5138,-0.38039999999999996]","[0.40379999999999994,0.09000000000000008,0.44300000000000006]",33,50,1,0,0,response1disk,-1,-12,1,0,0,rectangle,-1,-12,1,0,0,1,2,0.0008,0,-1,-12,1,0,0,0,10,10,114,1,33,second,,,,,,,,,,,,,,,,,,,,,,,,,,,,,,,,,,,,,,,,,,,,,,,,,,,,,,,,,,,,,,,,,,,,,,,,
,,,,,,5e9f36a7e7a8f307cbd64a65,62c5385b1d4b666352f10f14,2022-07-06_08h23.37.711,Colour_Asymmetry_Pilot,2022.1.3,Win32,59.94485074,62c50e9c1127f2cd403a315f,,,,,,,,,,,,,,,,,,,,fourtwo,,1,0.634,,,,,,,,,,,,,,,,,,,,,,,,,,,,,,,,,,"[0.23120000000000007,-0.7726,-0.34120000000000006]","[-0.07459999999999989,0.12139999999999995,-0.9922]",40,-64,1,0,0,response3disk,-8,13,1,0,0,rectangle,-8,13,1,0,0,1,3,0.0008,0,-8,13,1,0,0,0,11,11,94,1,13,second,,,,,,,,,,,,,,,,,,,,,,,,,,,,,,,,,,,,,,,,,,,,,,,,,,,,,,,,,,,,,,,,,,,,,,,,
,,,,,,5e9f36a7e7a8f307cbd64a65,62c5385b1d4b666352f10f14,2022-07-06_08h23.37.711,Colour_Asymmetry_Pilot,2022.1.3,Win32,59.94485074,62c50e9c1127f2cd403a315f,,,,,,,,,,,,,,,,,,,,threeone,,-1,0.7016,,,,,,,,,,,,,,,,,,,,,,,,,,,,,,,,,,"[0.37240000000000006,0.4980000000000002,-0.2864]","[-0.2942,-0.24719999999999998,-0.357]",-50,-82,1,0,0,response5disk,-1,10,1,0,0,rectangle,-1,10,1,0,0,1,3,0.0002,0,-1,10,1,0,0,0,12,12,129,1,48,second,,,,,,,,,,,,,,,,,,,,,,,,,,,,,,,,,,,,,,,,,,,,,,,,,,,,,,,,,,,,,,,,,,,,,,,,
,,,,,,5e9f36a7e7a8f307cbd64a65,62c5385b1d4b666352f10f14,2022-07-06_08h23.37.711,Colour_Asymmetry_Pilot,2022.1.3,Win32,59.94485074,62c50e9c1127f2cd403a315f,,,,,,,,,,,,,,,,,,,,twofour,,-2,1.1521,,,,,,,,,,,,,,,,,,,,,,,,,,,,,,,,,,"[0.37240000000000006,-0.050999999999999934,-0.5216]","[-0.34920000000000007,-0.702,-0.5216]",-53,-37,1,0,0,response5disk,-4,-12,1,0,0,rectangle,-4,-12,1,0,0,1,1,0.0009,0,-4,-12,1,0,0,0,13,13,59,1,59,first,,,,,,,,,,,,,,,,,,,,,,,,,,,,,,,,,,,,,,,,,,,,,,,,,,,,,,,,,,,,,,,,,,,,,,,,
,,,,,,5e9f36a7e7a8f307cbd64a65,62c5385b1d4b666352f10f14,2022-07-06_08h23.37.711,Colour_Asymmetry_Pilot,2022.1.3,Win32,59.94485074,62c50e9c1127f2cd403a315f,,,,,,,,,,,,,,,,,,,,threefour,,-2,0.4025,,,,,,,,,,,,,,,,,,,,,,,,,,,,,,,,,,"[0.9842,0.7409999999999999,-0.6628000000000001]","[-0.26280000000000003,-0.2158,-0.3256]",-64,-34,1,0,0,response5disk,-9,-1,1,0,0,rectangle,-9,-1,1,0,0,1,3,0.001,0,-9,-1,1,0,0,0,14,14,51,1,51,first,,,,,,,,,,,,,,,,,,,,,,,,,,,,,,,,,,,,,,,,,,,,,,,,,,,,,,,,,,,,,,,,,,,,,,,,
,,,,,,5e9f36a7e7a8f307cbd64a65,62c5385b1d4b666352f10f14,2022-07-06_08h23.37.711,Colour_Asymmetry_Pilot,2022.1.3,Win32,59.94485074,62c50e9c1127f2cd403a315f,,,,,,,,,,,,,,,,,,,,fourtwo,,1,0.3675,,,,,,,,,,,,,,,,,,,,,,,,,,,,,,,,,,"[0.7176,-0.906,-0.6864]","[1,0.12939999999999996,-1]",30,-63,1,0,0,response3disk,-8,5,1,0,0,rectangle,-8,5,1,0,0,1,1,0.0008,0,-8,5,1,0,0,0,15,15,98,1,17,second,,,,,,,,,,,,,,,,,,,,,,,,,,,,,,,,,,,,,,,,,,,,,,,,,,,,,,,,,,,,,,,,,,,,,,,,
,,,,,,5e9f36a7e7a8f307cbd64a65,62c5385b1d4b666352f10f14,2022-07-06_08h23.37.711,Colour_Asymmetry_Pilot,2022.1.3,Win32,59.94485074,62c50e9c1127f2cd403a315f,,,,,,,,,,,,,,,,,,,,fourthree,,-1,0.8834,,,,,,,,,,,,,,,,,,,,,,,,,,,,,,,,,,"[0.9763999999999999,0.8588,-0.05900000000000005]","[0.7176,-0.906,-0.6864]",-37,-57,1,0,0,response5disk,-10,1,1,0,0,rectangle,36,-65,1,0,0,1,1,1.7205,1,-15,-6,1,0,0,0,16,16,55,1,55,first,response3disk_3,rectangle,,,,,,,,,,,,,,,,,,,,,,,,,,,,,,,,,,,,,,,,,,,,,,,,,,,,,,,,,,,,,,,,,,,,,,
,,,,,,5e9f36a7e7a8f307cbd64a65,62c5385b1d4b666352f10f14,2022-07-06_08h23.37.711,Colour_Asymmetry_Pilot,2022.1.3,Win32,59.94485074,62c50e9c1127f2cd403a315f,,,,,,,,,,,,,,,,,,,,onethree,,-2,0.4844,,,,,,,,,,,,,,,,,,,,,,,,,,,,,,,,,,"[-0.30200000000000005,0.14500000000000002,0.2784]","[0.9686000000000001,0.5763999999999998,0.11359999999999992]",-58,-42,1,0,0,response5disk,9,-1,1,0,0,rectangle,9,-1,1,0,0,1,3,0.0009,0,9,-1,1,0,0,0,17,17,74,1,74,first,,,,,,,,,,,,,,,,,,,,,,,,,,,,,,,,,,,,,,,,,,,,,,,,,,,,,,,,,,,,,,,,,,,,,,,,
