trials.thisRepN,trials.thisTrialN,trials.thisN,trials.thisIndex,trials.ran,Colourcodes,participant,session,date,expName,psychopyVersion,OS,frameRate,study_id,trials_4.thisRepN,trials_4.thisTrialN,trials_4.thisN,trials_4.thisIndex,trials_4.ran,StimulusPos,key_resp.keys,key_resp.rt,key_resp_2.keys,key_resp_2.rt,key_resp_15.keys,key_resp_15.rt,key_resp_17.keys,key_resp_17.rt,key_resp_9.keys,key_resp_9.rt,key_resp_10.keys,key_resp_10.rt,Circle1_col,Ecc,Circle2_col,similarity,response_time,mouse_5.x,mouse_5.y,mouse_5.leftButton,mouse_5.midButton,mouse_5.rightButton,mouse_5.clicked_name,mouse_10.x,mouse_10.y,mouse_10.leftButton,mouse_10.midButton,mouse_10.rightButton,mouse_10.clicked_name,mouse_7.x,mouse_7.y,mouse_7.leftButton,mouse_7.midButton,mouse_7.rightButton,catchnumberprac,mouse_6.x,mouse_6.y,mouse_6.leftButton,mouse_6.midButton,mouse_6.rightButton,duringprac.thisRepN,duringprac.thisTrialN,duringprac.thisN,duringprac.thisIndex,duringprac.ran,mouse_7.clicked_name,catchprac,mouse_6.clicked_name,key_resp_22.keys,key_resp_22.rt,Circle1_colour,Circle2_colour,mouse.x,mouse.y,mouse.leftButton,mouse.midButton,mouse.rightButton,mouse.clicked_name,mouse_2.x,mouse_2.y,mouse_2.leftButton,mouse_2.midButton,mouse_2.rightButton,mouse_2.clicked_name,mouse_3.x,mouse_3.y,mouse_3.leftButton,mouse_3.midButton,mouse_3.rightButton,catchresponse,catchnumber,response_time_catch,Catch,mouse_11.x,mouse_11.y,mouse_11.leftButton,mouse_11.midButton,mouse_11.rightButton,trials_2.thisRepN,trials_2.thisTrialN,trials_2.thisN,trials_2.thisIndex,trials_2.ran,Colourpair,Temporder,mouse_3.clicked_name,mouse_11.clicked_name,trials_3.thisRepN,trials_3.thisTrialN,trials_3.thisN,trials_3.thisIndex,trials_3.ran,key_resp_instr_Ishi.keys,key_resp_instr_Ishi.rt,Ishi_trial_keyresp.keys,Ishi_textbox.text,Ishi_mouse.x,Ishi_mouse.y,Ishi_mouse.leftButton,Ishi_mouse.midButton,Ishi_mouse.rightButton,Ishi_mouse.clicked_name,Ishi_loop.thisRepN,Ishi_loop.thisTrialN,Ishi_loop.thisN,Ishi_loop.thisIndex,Ishi_loop.ran,imageaddress,textbox.text,mouse_4.x,mouse_4.y,mouse_4.leftButton,mouse_4.midButton,mouse_4.rightButton,mouse_4.clicked_name,textbox_2.text,mouse_8.x,mouse_8.y,mouse_8.leftButton,mouse_8.midButton,mouse_8.rightButton,mouse_8.clicked_name,textbox_3.text,mouse_9.x,mouse_9.y,mouse_9.leftButton,mouse_9.midButton,mouse_9.rightButton,mouse_9.clicked_name,textbox_4.text,mouse_12.x,mouse_12.y,mouse_12.leftButton,mouse_12.midButton,mouse_12.rightButton,mouse_12.clicked_name,textbox_5.text,mouse_13.x,mouse_13.y,mouse_13.leftButton,mouse_13.midButton,mouse_13.rightButton,mouse_13.clicked_name,textbox_6.text,mouse_14.x,mouse_14.y,mouse_14.leftButton,mouse_14.midButton,mouse_14.rightButton,mouse_14.clicked_name,textbox_7.text,mouse_15.x,mouse_15.y,mouse_15.leftButton,mouse_15.midButton,mouse_15.rightButton,mouse_15.clicked_name
0,0,0,42,1,,60bf58fdf814d2c749a35458,62c53a4a07160c13dfb487d6,2022-07-06_09h35.27.043,Colour_Asymmetry_Pilot,2022.1.3,Win32,30.00120005,62c50e9c1127f2cd403a315f,,,,,,,,,,,,,,,,,,,,,,,,,,,,,,,,,,,,,,,,,,,,,,,,,,,,,,,,,,,,,,,,,,,,,,,,,,,,,,,,,,,,,,,,,,,,,,,,,,,,,,,,,,,,,,,,,,,,,,,,,,,,,,,,,,,,,,,,,,,,,,,,,,,,,,,,,,,,,,,,,,,
0,1,1,52,1,,60bf58fdf814d2c749a35458,62c53a4a07160c13dfb487d6,2022-07-06_09h35.27.043,Colour_Asymmetry_Pilot,2022.1.3,Win32,30.00120005,62c50e9c1127f2cd403a315f,,,,,,,,,,,,,,,,,,,,,,,,,,,,,,,,,,,,,,,,,,,,,,,,,,,,,,,,,,,,,,,,,,,,,,,,,,,,,,,,,,,,,,,,,,,,,,,,,,,,,,,,,,,,,,,,,,,,,,,,,,,,,,,,,,,,,,,,,,,,,,,,,,,,,,,,,,,,,,,,,,,
0,2,2,85,1,,60bf58fdf814d2c749a35458,62c53a4a07160c13dfb487d6,2022-07-06_09h35.27.043,Colour_Asymmetry_Pilot,2022.1.3,Win32,30.00120005,62c50e9c1127f2cd403a315f,,,,,,,,,,,,,,,,,,,,,,,,,,,,,,,,,,,,,,,,,,,,,,,,,,,,,,,,,,,,,,,,,,,,,,,,,,,,,,,,,,,,,,,,,,,,,,,,,,,,,,,,,,,,,,,,,,,,,,,,,,,,,,,,,,,,,,,,,,,,,,,,,,,,,,,,,,,,,,,,,,,
0,3,3,75,1,,60bf58fdf814d2c749a35458,62c53a4a07160c13dfb487d6,2022-07-06_09h35.27.043,Colour_Asymmetry_Pilot,2022.1.3,Win32,30.00120005,62c50e9c1127f2cd403a315f,,,,,,,,,,,,,,,,,,,,,,,,,,,,,,,,,,,,,,,,,,,,,,,,,,,,,,,,,,,,,,,,,,,,,,,,,,,,,,,,,,,,,,,,,,,,,,,,,,,,,,,,,,,,,,,,,,,,,,,,,,,,,,,,,,,,,,,,,,,,,,,,,,,,,,,,,,,,,,,,,,,
0,4,4,46,1,,60bf58fdf814d2c749a35458,62c53a4a07160c13dfb487d6,2022-07-06_09h35.27.043,Colour_Asymmetry_Pilot,2022.1.3,Win32,30.00120005,62c50e9c1127f2cd403a315f,,,,,,,,,,,,,,,,,,,,,,,,,,,,,,,,,,,,,,,,,,,,,,,,,,,,,,,,,,,,,,,,,,,,,,,,,,,,,,,,,,,,,,,,,,,,,,,,,,,,,,,,,,,,,,,,,,,,,,,,,,,,,,,,,,,,,,,,,,,,,,,,,,,,,,,,,,,,,,,,,,,
0,5,5,33,1,,60bf58fdf814d2c749a35458,62c53a4a07160c13dfb487d6,2022-07-06_09h35.27.043,Colour_Asymmetry_Pilot,2022.1.3,Win32,30.00120005,62c50e9c1127f2cd403a315f,,,,,,,,,,,,,,,,,,,,,,,,,,,,,,,,,,,,,,,,,,,,,,,,,,,,,,,,,,,,,,,,,,,,,,,,,,,,,,,,,,,,,,,,,,,,,,,,,,,,,,,,,,,,,,,,,,,,,,,,,,,,,,,,,,,,,,,,,,,,,,,,,,,,,,,,,,,,,,,,,,,
0,6,6,47,1,,60bf58fdf814d2c749a35458,62c53a4a07160c13dfb487d6,2022-07-06_09h35.27.043,Colour_Asymmetry_Pilot,2022.1.3,Win32,30.00120005,62c50e9c1127f2cd403a315f,,,,,,,,,,,,,,,,,,,,,,,,,,,,,,,,,,,,,,,,,,,,,,,,,,,,,,,,,,,,,,,,,,,,,,,,,,,,,,,,,,,,,,,,,,,,,,,,,,,,,,,,,,,,,,,,,,,,,,,,,,,,,,,,,,,,,,,,,,,,,,,,,,,,,,,,,,,,,,,,,,,
0,7,7,2,1,,60bf58fdf814d2c749a35458,62c53a4a07160c13dfb487d6,2022-07-06_09h35.27.043,Colour_Asymmetry_Pilot,2022.1.3,Win32,30.00120005,62c50e9c1127f2cd403a315f,,,,,,,,,,,,,,,,,,,,,,,,,,,,,,,,,,,,,,,,,,,,,,,,,,,,,,,,,,,,,,,,,,,,,,,,,,,,,,,,,,,,,,,,,,,,,,,,,,,,,,,,,,,,,,,,,,,,,,,,,,,,,,,,,,,,,,,,,,,,,,,,,,,,,,,,,,,,,,,,,,,
0,8,8,3,1,,60bf58fdf814d2c749a35458,62c53a4a07160c13dfb487d6,2022-07-06_09h35.27.043,Colour_Asymmetry_Pilot,2022.1.3,Win32,30.00120005,62c50e9c1127f2cd403a315f,,,,,,,,,,,,,,,,,,,,,,,,,,,,,,,,,,,,,,,,,,,,,,,,,,,,,,,,,,,,,,,,,,,,,,,,,,,,,,,,,,,,,,,,,,,,,,,,,,,,,,,,,,,,,,,,,,,,,,,,,,,,,,,,,,,,,,,,,,,,,,,,,,,,,,,,,,,,,,,,,,,
0,9,9,9,1,,60bf58fdf814d2c749a35458,62c53a4a07160c13dfb487d6,2022-07-06_09h35.27.043,Colour_Asymmetry_Pilot,2022.1.3,Win32,30.00120005,62c50e9c1127f2cd403a315f,,,,,,,,,,,,,,,,,,,,,,,,,,,,,,,,,,,,,,,,,,,,,,,,,,,,,,,,,,,,,,,,,,,,,,,,,,,,,,,,,,,,,,,,,,,,,,,,,,,,,,,,,,,,,,,,,,,,,,,,,,,,,,,,,,,,,,,,,,,,,,,,,,,,,,,,,,,,,,,,,,,
0,10,10,43,1,,60bf58fdf814d2c749a35458,62c53a4a07160c13dfb487d6,2022-07-06_09h35.27.043,Colour_Asymmetry_Pilot,2022.1.3,Win32,30.00120005,62c50e9c1127f2cd403a315f,,,,,,,,,,,,,,,,,,,,,,,,,,,,,,,,,,,,,,,,,,,,,,,,,,,,,,,,,,,,,,,,,,,,,,,,,,,,,,,,,,,,,,,,,,,,,,,,,,,,,,,,,,,,,,,,,,,,,,,,,,,,,,,,,,,,,,,,,,,,,,,,,,,,,,,,,,,,,,,,,,,
0,11,11,77,1,,60bf58fdf814d2c749a35458,62c53a4a07160c13dfb487d6,2022-07-06_09h35.27.043,Colour_Asymmetry_Pilot,2022.1.3,Win32,30.00120005,62c50e9c1127f2cd403a315f,,,,,,,,,,,,,,,,,,,,,,,,,,,,,,,,,,,,,,,,,,,,,,,,,,,,,,,,,,,,,,,,,,,,,,,,,,,,,,,,,,,,,,,,,,,,,,,,,,,,,,,,,,,,,,,,,,,,,,,,,,,,,,,,,,,,,,,,,,,,,,,,,,,,,,,,,,,,,,,,,,,
0,12,12,92,1,,60bf58fdf814d2c749a35458,62c53a4a07160c13dfb487d6,2022-07-06_09h35.27.043,Colour_Asymmetry_Pilot,2022.1.3,Win32,30.00120005,62c50e9c1127f2cd403a315f,,,,,,,,,,,,,,,,,,,,,,,,,,,,,,,,,,,,,,,,,,,,,,,,,,,,,,,,,,,,,,,,,,,,,,,,,,,,,,,,,,,,,,,,,,,,,,,,,,,,,,,,,,,,,,,,,,,,,,,,,,,,,,,,,,,,,,,,,,,,,,,,,,,,,,,,,,,,,,,,,,,
0,13,13,84,1,,60bf58fdf814d2c749a35458,62c53a4a07160c13dfb487d6,2022-07-06_09h35.27.043,Colour_Asymmetry_Pilot,2022.1.3,Win32,30.00120005,62c50e9c1127f2cd403a315f,,,,,,,,,,,,,,,,,,,,,,,,,,,,,,,,,,,,,,,,,,,,,,,,,,,,,,,,,,,,,,,,,,,,,,,,,,,,,,,,,,,,,,,,,,,,,,,,,,,,,,,,,,,,,,,,,,,,,,,,,,,,,,,,,,,,,,,,,,,,,,,,,,,,,,,,,,,,,,,,,,,
0,14,14,51,1,,60bf58fdf814d2c749a35458,62c53a4a07160c13dfb487d6,2022-07-06_09h35.27.043,Colour_Asymmetry_Pilot,2022.1.3,Win32,30.00120005,62c50e9c1127f2cd403a315f,,,,,,,,,,,,,,,,,,,,,,,,,,,,,,,,,,,,,,,,,,,,,,,,,,,,,,,,,,,,,,,,,,,,,,,,,,,,,,,,,,,,,,,,,,,,,,,,,,,,,,,,,,,,,,,,,,,,,,,,,,,,,,,,,,,,,,,,,,,,,,,,,,,,,,,,,,,,,,,,,,,
0,15,15,88,1,,60bf58fdf814d2c749a35458,62c53a4a07160c13dfb487d6,2022-07-06_09h35.27.043,Colour_Asymmetry_Pilot,2022.1.3,Win32,30.00120005,62c50e9c1127f2cd403a315f,,,,,,,,,,,,,,,,,,,,,,,,,,,,,,,,,,,,,,,,,,,,,,,,,,,,,,,,,,,,,,,,,,,,,,,,,,,,,,,,,,,,,,,,,,,,,,,,,,,,,,,,,,,,,,,,,,,,,,,,,,,,,,,,,,,,,,,,,,,,,,,,,,,,,,,,,,,,,,,,,,,
0,16,16,61,1,,60bf58fdf814d2c749a35458,62c53a4a07160c13dfb487d6,2022-07-06_09h35.27.043,Colour_Asymmetry_Pilot,2022.1.3,Win32,30.00120005,62c50e9c1127f2cd403a315f,,,,,,,,,,,,,,,,,,,,,,,,,,,,,,,,,,,,,,,,,,,,,,,,,,,,,,,,,,,,,,,,,,,,,,,,,,,,,,,,,,,,,,,,,,,,,,,,,,,,,,,,,,,,,,,,,,,,,,,,,,,,,,,,,,,,,,,,,,,,,,,,,,,,,,,,,,,,,,,,,,,
0,17,17,14,1,,60bf58fdf814d2c749a35458,62c53a4a07160c13dfb487d6,2022-07-06_09h35.27.043,Colour_Asymmetry_Pilot,2022.1.3,Win32,30.00120005,62c50e9c1127f2cd403a315f,,,,,,,,,,,,,,,,,,,,,,,,,,,,,,,,,,,,,,,,,,,,,,,,,,,,,,,,,,,,,,,,,,,,,,,,,,,,,,,,,,,,,,,,,,,,,,,,,,,,,,,,,,,,,,,,,,,,,,,,,,,,,,,,,,,,,,,,,,,,,,,,,,,,,,,,,,,,,,,,,,,
0,18,18,68,1,,60bf58fdf814d2c749a35458,62c53a4a07160c13dfb487d6,2022-07-06_09h35.27.043,Colour_Asymmetry_Pilot,2022.1.3,Win32,30.00120005,62c50e9c1127f2cd403a315f,,,,,,,,,,,,,,,,,,,,,,,,,,,,,,,,,,,,,,,,,,,,,,,,,,,,,,,,,,,,,,,,,,,,,,,,,,,,,,,,,,,,,,,,,,,,,,,,,,,,,,,,,,,,,,,,,,,,,,,,,,,,,,,,,,,,,,,,,,,,,,,,,,,,,,,,,,,,,,,,,,,
0,19,19,34,1,,60bf58fdf814d2c749a35458,62c53a4a07160c13dfb487d6,2022-07-06_09h35.27.043,Colour_Asymmetry_Pilot,2022.1.3,Win32,30.00120005,62c50e9c1127f2cd403a315f,,,,,,,,,,,,,,,,,,,,,,,,,,,,,,,,,,,,,,,,,,,,,,,,,,,,,,,,,,,,,,,,,,,,,,,,,,,,,,,,,,,,,,,,,,,,,,,,,,,,,,,,,,,,,,,,,,,,,,,,,,,,,,,,,,,,,,,,,,,,,,,,,,,,,,,,,,,,,,,,,,,
0,20,20,48,1,,60bf58fdf814d2c749a35458,62c53a4a07160c13dfb487d6,2022-07-06_09h35.27.043,Colour_Asymmetry_Pilot,2022.1.3,Win32,30.00120005,62c50e9c1127f2cd403a315f,,,,,,,,,,,,,,,,,,,,,,,,,,,,,,,,,,,,,,,,,,,,,,,,,,,,,,,,,,,,,,,,,,,,,,,,,,,,,,,,,,,,,,,,,,,,,,,,,,,,,,,,,,,,,,,,,,,,,,,,,,,,,,,,,,,,,,,,,,,,,,,,,,,,,,,,,,,,,,,,,,,
0,21,21,32,1,,60bf58fdf814d2c749a35458,62c53a4a07160c13dfb487d6,2022-07-06_09h35.27.043,Colour_Asymmetry_Pilot,2022.1.3,Win32,30.00120005,62c50e9c1127f2cd403a315f,,,,,,,,,,,,,,,,,,,,,,,,,,,,,,,,,,,,,,,,,,,,,,,,,,,,,,,,,,,,,,,,,,,,,,,,,,,,,,,,,,,,,,,,,,,,,,,,,,,,,,,,,,,,,,,,,,,,,,,,,,,,,,,,,,,,,,,,,,,,,,,,,,,,,,,,,,,,,,,,,,,
0,22,22,78,1,,60bf58fdf814d2c749a35458,62c53a4a07160c13dfb487d6,2022-07-06_09h35.27.043,Colour_Asymmetry_Pilot,2022.1.3,Win32,30.00120005,62c50e9c1127f2cd403a315f,,,,,,,,,,,,,,,,,,,,,,,,,,,,,,,,,,,,,,,,,,,,,,,,,,,,,,,,,,,,,,,,,,,,,,,,,,,,,,,,,,,,,,,,,,,,,,,,,,,,,,,,,,,,,,,,,,,,,,,,,,,,,,,,,,,,,,,,,,,,,,,,,,,,,,,,,,,,,,,,,,,
0,23,23,31,1,,60bf58fdf814d2c749a35458,62c53a4a07160c13dfb487d6,2022-07-06_09h35.27.043,Colour_Asymmetry_Pilot,2022.1.3,Win32,30.00120005,62c50e9c1127f2cd403a315f,,,,,,,,,,,,,,,,,,,,,,,,,,,,,,,,,,,,,,,,,,,,,,,,,,,,,,,,,,,,,,,,,,,,,,,,,,,,,,,,,,,,,,,,,,,,,,,,,,,,,,,,,,,,,,,,,,,,,,,,,,,,,,,,,,,,,,,,,,,,,,,,,,,,,,,,,,,,,,,,,,,
0,24,24,63,1,,60bf58fdf814d2c749a35458,62c53a4a07160c13dfb487d6,2022-07-06_09h35.27.043,Colour_Asymmetry_Pilot,2022.1.3,Win32,30.00120005,62c50e9c1127f2cd403a315f,,,,,,,,,,,,,,,,,,,,,,,,,,,,,,,,,,,,,,,,,,,,,,,,,,,,,,,,,,,,,,,,,,,,,,,,,,,,,,,,,,,,,,,,,,,,,,,,,,,,,,,,,,,,,,,,,,,,,,,,,,,,,,,,,,,,,,,,,,,,,,,,,,,,,,,,,,,,,,,,,,,
0,25,25,62,1,,60bf58fdf814d2c749a35458,62c53a4a07160c13dfb487d6,2022-07-06_09h35.27.043,Colour_Asymmetry_Pilot,2022.1.3,Win32,30.00120005,62c50e9c1127f2cd403a315f,,,,,,,,,,,,,,,,,,,,,,,,,,,,,,,,,,,,,,,,,,,,,,,,,,,,,,,,,,,,,,,,,,,,,,,,,,,,,,,,,,,,,,,,,,,,,,,,,,,,,,,,,,,,,,,,,,,,,,,,,,,,,,,,,,,,,,,,,,,,,,,,,,,,,,,,,,,,,,,,,,,
0,26,26,80,1,,60bf58fdf814d2c749a35458,62c53a4a07160c13dfb487d6,2022-07-06_09h35.27.043,Colour_Asymmetry_Pilot,2022.1.3,Win32,30.00120005,62c50e9c1127f2cd403a315f,,,,,,,,,,,,,,,,,,,,,,,,,,,,,,,,,,,,,,,,,,,,,,,,,,,,,,,,,,,,,,,,,,,,,,,,,,,,,,,,,,,,,,,,,,,,,,,,,,,,,,,,,,,,,,,,,,,,,,,,,,,,,,,,,,,,,,,,,,,,,,,,,,,,,,,,,,,,,,,,,,,
0,27,27,1,1,,60bf58fdf814d2c749a35458,62c53a4a07160c13dfb487d6,2022-07-06_09h35.27.043,Colour_Asymmetry_Pilot,2022.1.3,Win32,30.00120005,62c50e9c1127f2cd403a315f,,,,,,,,,,,,,,,,,,,,,,,,,,,,,,,,,,,,,,,,,,,,,,,,,,,,,,,,,,,,,,,,,,,,,,,,,,,,,,,,,,,,,,,,,,,,,,,,,,,,,,,,,,,,,,,,,,,,,,,,,,,,,,,,,,,,,,,,,,,,,,,,,,,,,,,,,,,,,,,,,,,
0,28,28,60,1,,60bf58fdf814d2c749a35458,62c53a4a07160c13dfb487d6,2022-07-06_09h35.27.043,Colour_Asymmetry_Pilot,2022.1.3,Win32,30.00120005,62c50e9c1127f2cd403a315f,,,,,,,,,,,,,,,,,,,,,,,,,,,,,,,,,,,,,,,,,,,,,,,,,,,,,,,,,,,,,,,,,,,,,,,,,,,,,,,,,,,,,,,,,,,,,,,,,,,,,,,,,,,,,,,,,,,,,,,,,,,,,,,,,,,,,,,,,,,,,,,,,,,,,,,,,,,,,,,,,,,
0,29,29,24,1,,60bf58fdf814d2c749a35458,62c53a4a07160c13dfb487d6,2022-07-06_09h35.27.043,Colour_Asymmetry_Pilot,2022.1.3,Win32,30.00120005,62c50e9c1127f2cd403a315f,,,,,,,,,,,,,,,,,,,,,,,,,,,,,,,,,,,,,,,,,,,,,,,,,,,,,,,,,,,,,,,,,,,,,,,,,,,,,,,,,,,,,,,,,,,,,,,,,,,,,,,,,,,,,,,,,,,,,,,,,,,,,,,,,,,,,,,,,,,,,,,,,,,,,,,,,,,,,,,,,,,
0,30,30,40,1,,60bf58fdf814d2c749a35458,62c53a4a07160c13dfb487d6,2022-07-06_09h35.27.043,Colour_Asymmetry_Pilot,2022.1.3,Win32,30.00120005,62c50e9c1127f2cd403a315f,,,,,,,,,,,,,,,,,,,,,,,,,,,,,,,,,,,,,,,,,,,,,,,,,,,,,,,,,,,,,,,,,,,,,,,,,,,,,,,,,,,,,,,,,,,,,,,,,,,,,,,,,,,,,,,,,,,,,,,,,,,,,,,,,,,,,,,,,,,,,,,,,,,,,,,,,,,,,,,,,,,
0,31,31,29,1,,60bf58fdf814d2c749a35458,62c53a4a07160c13dfb487d6,2022-07-06_09h35.27.043,Colour_Asymmetry_Pilot,2022.1.3,Win32,30.00120005,62c50e9c1127f2cd403a315f,,,,,,,,,,,,,,,,,,,,,,,,,,,,,,,,,,,,,,,,,,,,,,,,,,,,,,,,,,,,,,,,,,,,,,,,,,,,,,,,,,,,,,,,,,,,,,,,,,,,,,,,,,,,,,,,,,,,,,,,,,,,,,,,,,,,,,,,,,,,,,,,,,,,,,,,,,,,,,,,,,,
0,32,32,5,1,,60bf58fdf814d2c749a35458,62c53a4a07160c13dfb487d6,2022-07-06_09h35.27.043,Colour_Asymmetry_Pilot,2022.1.3,Win32,30.00120005,62c50e9c1127f2cd403a315f,,,,,,,,,,,,,,,,,,,,,,,,,,,,,,,,,,,,,,,,,,,,,,,,,,,,,,,,,,,,,,,,,,,,,,,,,,,,,,,,,,,,,,,,,,,,,,,,,,,,,,,,,,,,,,,,,,,,,,,,,,,,,,,,,,,,,,,,,,,,,,,,,,,,,,,,,,,,,,,,,,,
0,33,33,37,1,,60bf58fdf814d2c749a35458,62c53a4a07160c13dfb487d6,2022-07-06_09h35.27.043,Colour_Asymmetry_Pilot,2022.1.3,Win32,30.00120005,62c50e9c1127f2cd403a315f,,,,,,,,,,,,,,,,,,,,,,,,,,,,,,,,,,,,,,,,,,,,,,,,,,,,,,,,,,,,,,,,,,,,,,,,,,,,,,,,,,,,,,,,,,,,,,,,,,,,,,,,,,,,,,,,,,,,,,,,,,,,,,,,,,,,,,,,,,,,,,,,,,,,,,,,,,,,,,,,,,,
0,34,34,74,1,,60bf58fdf814d2c749a35458,62c53a4a07160c13dfb487d6,2022-07-06_09h35.27.043,Colour_Asymmetry_Pilot,2022.1.3,Win32,30.00120005,62c50e9c1127f2cd403a315f,,,,,,,,,,,,,,,,,,,,,,,,,,,,,,,,,,,,,,,,,,,,,,,,,,,,,,,,,,,,,,,,,,,,,,,,,,,,,,,,,,,,,,,,,,,,,,,,,,,,,,,,,,,,,,,,,,,,,,,,,,,,,,,,,,,,,,,,,,,,,,,,,,,,,,,,,,,,,,,,,,,
0,35,35,35,1,,60bf58fdf814d2c749a35458,62c53a4a07160c13dfb487d6,2022-07-06_09h35.27.043,Colour_Asymmetry_Pilot,2022.1.3,Win32,30.00120005,62c50e9c1127f2cd403a315f,,,,,,,,,,,,,,,,,,,,,,,,,,,,,,,,,,,,,,,,,,,,,,,,,,,,,,,,,,,,,,,,,,,,,,,,,,,,,,,,,,,,,,,,,,,,,,,,,,,,,,,,,,,,,,,,,,,,,,,,,,,,,,,,,,,,,,,,,,,,,,,,,,,,,,,,,,,,,,,,,,,
0,36,36,22,1,,60bf58fdf814d2c749a35458,62c53a4a07160c13dfb487d6,2022-07-06_09h35.27.043,Colour_Asymmetry_Pilot,2022.1.3,Win32,30.00120005,62c50e9c1127f2cd403a315f,,,,,,,,,,,,,,,,,,,,,,,,,,,,,,,,,,,,,,,,,,,,,,,,,,,,,,,,,,,,,,,,,,,,,,,,,,,,,,,,,,,,,,,,,,,,,,,,,,,,,,,,,,,,,,,,,,,,,,,,,,,,,,,,,,,,,,,,,,,,,,,,,,,,,,,,,,,,,,,,,,,
0,37,37,17,1,,60bf58fdf814d2c749a35458,62c53a4a07160c13dfb487d6,2022-07-06_09h35.27.043,Colour_Asymmetry_Pilot,2022.1.3,Win32,30.00120005,62c50e9c1127f2cd403a315f,,,,,,,,,,,,,,,,,,,,,,,,,,,,,,,,,,,,,,,,,,,,,,,,,,,,,,,,,,,,,,,,,,,,,,,,,,,,,,,,,,,,,,,,,,,,,,,,,,,,,,,,,,,,,,,,,,,,,,,,,,,,,,,,,,,,,,,,,,,,,,,,,,,,,,,,,,,,,,,,,,,
0,38,38,87,1,,60bf58fdf814d2c749a35458,62c53a4a07160c13dfb487d6,2022-07-06_09h35.27.043,Colour_Asymmetry_Pilot,2022.1.3,Win32,30.00120005,62c50e9c1127f2cd403a315f,,,,,,,,,,,,,,,,,,,,,,,,,,,,,,,,,,,,,,,,,,,,,,,,,,,,,,,,,,,,,,,,,,,,,,,,,,,,,,,,,,,,,,,,,,,,,,,,,,,,,,,,,,,,,,,,,,,,,,,,,,,,,,,,,,,,,,,,,,,,,,,,,,,,,,,,,,,,,,,,,,,
0,39,39,81,1,,60bf58fdf814d2c749a35458,62c53a4a07160c13dfb487d6,2022-07-06_09h35.27.043,Colour_Asymmetry_Pilot,2022.1.3,Win32,30.00120005,62c50e9c1127f2cd403a315f,,,,,,,,,,,,,,,,,,,,,,,,,,,,,,,,,,,,,,,,,,,,,,,,,,,,,,,,,,,,,,,,,,,,,,,,,,,,,,,,,,,,,,,,,,,,,,,,,,,,,,,,,,,,,,,,,,,,,,,,,,,,,,,,,,,,,,,,,,,,,,,,,,,,,,,,,,,,,,,,,,,
0,40,40,6,1,,60bf58fdf814d2c749a35458,62c53a4a07160c13dfb487d6,2022-07-06_09h35.27.043,Colour_Asymmetry_Pilot,2022.1.3,Win32,30.00120005,62c50e9c1127f2cd403a315f,,,,,,,,,,,,,,,,,,,,,,,,,,,,,,,,,,,,,,,,,,,,,,,,,,,,,,,,,,,,,,,,,,,,,,,,,,,,,,,,,,,,,,,,,,,,,,,,,,,,,,,,,,,,,,,,,,,,,,,,,,,,,,,,,,,,,,,,,,,,,,,,,,,,,,,,,,,,,,,,,,,
0,41,41,70,1,,60bf58fdf814d2c749a35458,62c53a4a07160c13dfb487d6,2022-07-06_09h35.27.043,Colour_Asymmetry_Pilot,2022.1.3,Win32,30.00120005,62c50e9c1127f2cd403a315f,,,,,,,,,,,,,,,,,,,,,,,,,,,,,,,,,,,,,,,,,,,,,,,,,,,,,,,,,,,,,,,,,,,,,,,,,,,,,,,,,,,,,,,,,,,,,,,,,,,,,,,,,,,,,,,,,,,,,,,,,,,,,,,,,,,,,,,,,,,,,,,,,,,,,,,,,,,,,,,,,,,
0,42,42,55,1,,60bf58fdf814d2c749a35458,62c53a4a07160c13dfb487d6,2022-07-06_09h35.27.043,Colour_Asymmetry_Pilot,2022.1.3,Win32,30.00120005,62c50e9c1127f2cd403a315f,,,,,,,,,,,,,,,,,,,,,,,,,,,,,,,,,,,,,,,,,,,,,,,,,,,,,,,,,,,,,,,,,,,,,,,,,,,,,,,,,,,,,,,,,,,,,,,,,,,,,,,,,,,,,,,,,,,,,,,,,,,,,,,,,,,,,,,,,,,,,,,,,,,,,,,,,,,,,,,,,,,
0,43,43,49,1,,60bf58fdf814d2c749a35458,62c53a4a07160c13dfb487d6,2022-07-06_09h35.27.043,Colour_Asymmetry_Pilot,2022.1.3,Win32,30.00120005,62c50e9c1127f2cd403a315f,,,,,,,,,,,,,,,,,,,,,,,,,,,,,,,,,,,,,,,,,,,,,,,,,,,,,,,,,,,,,,,,,,,,,,,,,,,,,,,,,,,,,,,,,,,,,,,,,,,,,,,,,,,,,,,,,,,,,,,,,,,,,,,,,,,,,,,,,,,,,,,,,,,,,,,,,,,,,,,,,,,
0,44,44,71,1,,60bf58fdf814d2c749a35458,62c53a4a07160c13dfb487d6,2022-07-06_09h35.27.043,Colour_Asymmetry_Pilot,2022.1.3,Win32,30.00120005,62c50e9c1127f2cd403a315f,,,,,,,,,,,,,,,,,,,,,,,,,,,,,,,,,,,,,,,,,,,,,,,,,,,,,,,,,,,,,,,,,,,,,,,,,,,,,,,,,,,,,,,,,,,,,,,,,,,,,,,,,,,,,,,,,,,,,,,,,,,,,,,,,,,,,,,,,,,,,,,,,,,,,,,,,,,,,,,,,,,
0,45,45,27,1,,60bf58fdf814d2c749a35458,62c53a4a07160c13dfb487d6,2022-07-06_09h35.27.043,Colour_Asymmetry_Pilot,2022.1.3,Win32,30.00120005,62c50e9c1127f2cd403a315f,,,,,,,,,,,,,,,,,,,,,,,,,,,,,,,,,,,,,,,,,,,,,,,,,,,,,,,,,,,,,,,,,,,,,,,,,,,,,,,,,,,,,,,,,,,,,,,,,,,,,,,,,,,,,,,,,,,,,,,,,,,,,,,,,,,,,,,,,,,,,,,,,,,,,,,,,,,,,,,,,,,
0,46,46,25,1,,60bf58fdf814d2c749a35458,62c53a4a07160c13dfb487d6,2022-07-06_09h35.27.043,Colour_Asymmetry_Pilot,2022.1.3,Win32,30.00120005,62c50e9c1127f2cd403a315f,,,,,,,,,,,,,,,,,,,,,,,,,,,,,,,,,,,,,,,,,,,,,,,,,,,,,,,,,,,,,,,,,,,,,,,,,,,,,,,,,,,,,,,,,,,,,,,,,,,,,,,,,,,,,,,,,,,,,,,,,,,,,,,,,,,,,,,,,,,,,,,,,,,,,,,,,,,,,,,,,,,
0,47,47,38,1,,60bf58fdf814d2c749a35458,62c53a4a07160c13dfb487d6,2022-07-06_09h35.27.043,Colour_Asymmetry_Pilot,2022.1.3,Win32,30.00120005,62c50e9c1127f2cd403a315f,,,,,,,,,,,,,,,,,,,,,,,,,,,,,,,,,,,,,,,,,,,,,,,,,,,,,,,,,,,,,,,,,,,,,,,,,,,,,,,,,,,,,,,,,,,,,,,,,,,,,,,,,,,,,,,,,,,,,,,,,,,,,,,,,,,,,,,,,,,,,,,,,,,,,,,,,,,,,,,,,,,
0,48,48,56,1,,60bf58fdf814d2c749a35458,62c53a4a07160c13dfb487d6,2022-07-06_09h35.27.043,Colour_Asymmetry_Pilot,2022.1.3,Win32,30.00120005,62c50e9c1127f2cd403a315f,,,,,,,,,,,,,,,,,,,,,,,,,,,,,,,,,,,,,,,,,,,,,,,,,,,,,,,,,,,,,,,,,,,,,,,,,,,,,,,,,,,,,,,,,,,,,,,,,,,,,,,,,,,,,,,,,,,,,,,,,,,,,,,,,,,,,,,,,,,,,,,,,,,,,,,,,,,,,,,,,,,
0,49,49,86,1,,60bf58fdf814d2c749a35458,62c53a4a07160c13dfb487d6,2022-07-06_09h35.27.043,Colour_Asymmetry_Pilot,2022.1.3,Win32,30.00120005,62c50e9c1127f2cd403a315f,,,,,,,,,,,,,,,,,,,,,,,,,,,,,,,,,,,,,,,,,,,,,,,,,,,,,,,,,,,,,,,,,,,,,,,,,,,,,,,,,,,,,,,,,,,,,,,,,,,,,,,,,,,,,,,,,,,,,,,,,,,,,,,,,,,,,,,,,,,,,,,,,,,,,,,,,,,,,,,,,,,
0,50,50,26,1,,60bf58fdf814d2c749a35458,62c53a4a07160c13dfb487d6,2022-07-06_09h35.27.043,Colour_Asymmetry_Pilot,2022.1.3,Win32,30.00120005,62c50e9c1127f2cd403a315f,,,,,,,,,,,,,,,,,,,,,,,,,,,,,,,,,,,,,,,,,,,,,,,,,,,,,,,,,,,,,,,,,,,,,,,,,,,,,,,,,,,,,,,,,,,,,,,,,,,,,,,,,,,,,,,,,,,,,,,,,,,,,,,,,,,,,,,,,,,,,,,,,,,,,,,,,,,,,,,,,,,
0,51,51,39,1,,60bf58fdf814d2c749a35458,62c53a4a07160c13dfb487d6,2022-07-06_09h35.27.043,Colour_Asymmetry_Pilot,2022.1.3,Win32,30.00120005,62c50e9c1127f2cd403a315f,,,,,,,,,,,,,,,,,,,,,,,,,,,,,,,,,,,,,,,,,,,,,,,,,,,,,,,,,,,,,,,,,,,,,,,,,,,,,,,,,,,,,,,,,,,,,,,,,,,,,,,,,,,,,,,,,,,,,,,,,,,,,,,,,,,,,,,,,,,,,,,,,,,,,,,,,,,,,,,,,,,
0,52,52,21,1,,60bf58fdf814d2c749a35458,62c53a4a07160c13dfb487d6,2022-07-06_09h35.27.043,Colour_Asymmetry_Pilot,2022.1.3,Win32,30.00120005,62c50e9c1127f2cd403a315f,,,,,,,,,,,,,,,,,,,,,,,,,,,,,,,,,,,,,,,,,,,,,,,,,,,,,,,,,,,,,,,,,,,,,,,,,,,,,,,,,,,,,,,,,,,,,,,,,,,,,,,,,,,,,,,,,,,,,,,,,,,,,,,,,,,,,,,,,,,,,,,,,,,,,,,,,,,,,,,,,,,
0,53,53,83,1,,60bf58fdf814d2c749a35458,62c53a4a07160c13dfb487d6,2022-07-06_09h35.27.043,Colour_Asymmetry_Pilot,2022.1.3,Win32,30.00120005,62c50e9c1127f2cd403a315f,,,,,,,,,,,,,,,,,,,,,,,,,,,,,,,,,,,,,,,,,,,,,,,,,,,,,,,,,,,,,,,,,,,,,,,,,,,,,,,,,,,,,,,,,,,,,,,,,,,,,,,,,,,,,,,,,,,,,,,,,,,,,,,,,,,,,,,,,,,,,,,,,,,,,,,,,,,,,,,,,,,
0,54,54,82,1,,60bf58fdf814d2c749a35458,62c53a4a07160c13dfb487d6,2022-07-06_09h35.27.043,Colour_Asymmetry_Pilot,2022.1.3,Win32,30.00120005,62c50e9c1127f2cd403a315f,,,,,,,,,,,,,,,,,,,,,,,,,,,,,,,,,,,,,,,,,,,,,,,,,,,,,,,,,,,,,,,,,,,,,,,,,,,,,,,,,,,,,,,,,,,,,,,,,,,,,,,,,,,,,,,,,,,,,,,,,,,,,,,,,,,,,,,,,,,,,,,,,,,,,,,,,,,,,,,,,,,
0,55,55,30,1,,60bf58fdf814d2c749a35458,62c53a4a07160c13dfb487d6,2022-07-06_09h35.27.043,Colour_Asymmetry_Pilot,2022.1.3,Win32,30.00120005,62c50e9c1127f2cd403a315f,,,,,,,,,,,,,,,,,,,,,,,,,,,,,,,,,,,,,,,,,,,,,,,,,,,,,,,,,,,,,,,,,,,,,,,,,,,,,,,,,,,,,,,,,,,,,,,,,,,,,,,,,,,,,,,,,,,,,,,,,,,,,,,,,,,,,,,,,,,,,,,,,,,,,,,,,,,,,,,,,,,
0,56,56,4,1,,60bf58fdf814d2c749a35458,62c53a4a07160c13dfb487d6,2022-07-06_09h35.27.043,Colour_Asymmetry_Pilot,2022.1.3,Win32,30.00120005,62c50e9c1127f2cd403a315f,,,,,,,,,,,,,,,,,,,,,,,,,,,,,,,,,,,,,,,,,,,,,,,,,,,,,,,,,,,,,,,,,,,,,,,,,,,,,,,,,,,,,,,,,,,,,,,,,,,,,,,,,,,,,,,,,,,,,,,,,,,,,,,,,,,,,,,,,,,,,,,,,,,,,,,,,,,,,,,,,,,
0,57,57,16,1,,60bf58fdf814d2c749a35458,62c53a4a07160c13dfb487d6,2022-07-06_09h35.27.043,Colour_Asymmetry_Pilot,2022.1.3,Win32,30.00120005,62c50e9c1127f2cd403a315f,,,,,,,,,,,,,,,,,,,,,,,,,,,,,,,,,,,,,,,,,,,,,,,,,,,,,,,,,,,,,,,,,,,,,,,,,,,,,,,,,,,,,,,,,,,,,,,,,,,,,,,,,,,,,,,,,,,,,,,,,,,,,,,,,,,,,,,,,,,,,,,,,,,,,,,,,,,,,,,,,,,
0,58,58,66,1,,60bf58fdf814d2c749a35458,62c53a4a07160c13dfb487d6,2022-07-06_09h35.27.043,Colour_Asymmetry_Pilot,2022.1.3,Win32,30.00120005,62c50e9c1127f2cd403a315f,,,,,,,,,,,,,,,,,,,,,,,,,,,,,,,,,,,,,,,,,,,,,,,,,,,,,,,,,,,,,,,,,,,,,,,,,,,,,,,,,,,,,,,,,,,,,,,,,,,,,,,,,,,,,,,,,,,,,,,,,,,,,,,,,,,,,,,,,,,,,,,,,,,,,,,,,,,,,,,,,,,
0,59,59,89,1,,60bf58fdf814d2c749a35458,62c53a4a07160c13dfb487d6,2022-07-06_09h35.27.043,Colour_Asymmetry_Pilot,2022.1.3,Win32,30.00120005,62c50e9c1127f2cd403a315f,,,,,,,,,,,,,,,,,,,,,,,,,,,,,,,,,,,,,,,,,,,,,,,,,,,,,,,,,,,,,,,,,,,,,,,,,,,,,,,,,,,,,,,,,,,,,,,,,,,,,,,,,,,,,,,,,,,,,,,,,,,,,,,,,,,,,,,,,,,,,,,,,,,,,,,,,,,,,,,,,,,
0,60,60,65,1,,60bf58fdf814d2c749a35458,62c53a4a07160c13dfb487d6,2022-07-06_09h35.27.043,Colour_Asymmetry_Pilot,2022.1.3,Win32,30.00120005,62c50e9c1127f2cd403a315f,,,,,,,,,,,,,,,,,,,,,,,,,,,,,,,,,,,,,,,,,,,,,,,,,,,,,,,,,,,,,,,,,,,,,,,,,,,,,,,,,,,,,,,,,,,,,,,,,,,,,,,,,,,,,,,,,,,,,,,,,,,,,,,,,,,,,,,,,,,,,,,,,,,,,,,,,,,,,,,,,,,
0,61,61,28,1,,60bf58fdf814d2c749a35458,62c53a4a07160c13dfb487d6,2022-07-06_09h35.27.043,Colour_Asymmetry_Pilot,2022.1.3,Win32,30.00120005,62c50e9c1127f2cd403a315f,,,,,,,,,,,,,,,,,,,,,,,,,,,,,,,,,,,,,,,,,,,,,,,,,,,,,,,,,,,,,,,,,,,,,,,,,,,,,,,,,,,,,,,,,,,,,,,,,,,,,,,,,,,,,,,,,,,,,,,,,,,,,,,,,,,,,,,,,,,,,,,,,,,,,,,,,,,,,,,,,,,
0,62,62,53,1,,60bf58fdf814d2c749a35458,62c53a4a07160c13dfb487d6,2022-07-06_09h35.27.043,Colour_Asymmetry_Pilot,2022.1.3,Win32,30.00120005,62c50e9c1127f2cd403a315f,,,,,,,,,,,,,,,,,,,,,,,,,,,,,,,,,,,,,,,,,,,,,,,,,,,,,,,,,,,,,,,,,,,,,,,,,,,,,,,,,,,,,,,,,,,,,,,,,,,,,,,,,,,,,,,,,,,,,,,,,,,,,,,,,,,,,,,,,,,,,,,,,,,,,,,,,,,,,,,,,,,
0,63,63,64,1,,60bf58fdf814d2c749a35458,62c53a4a07160c13dfb487d6,2022-07-06_09h35.27.043,Colour_Asymmetry_Pilot,2022.1.3,Win32,30.00120005,62c50e9c1127f2cd403a315f,,,,,,,,,,,,,,,,,,,,,,,,,,,,,,,,,,,,,,,,,,,,,,,,,,,,,,,,,,,,,,,,,,,,,,,,,,,,,,,,,,,,,,,,,,,,,,,,,,,,,,,,,,,,,,,,,,,,,,,,,,,,,,,,,,,,,,,,,,,,,,,,,,,,,,,,,,,,,,,,,,,
0,64,64,69,1,,60bf58fdf814d2c749a35458,62c53a4a07160c13dfb487d6,2022-07-06_09h35.27.043,Colour_Asymmetry_Pilot,2022.1.3,Win32,30.00120005,62c50e9c1127f2cd403a315f,,,,,,,,,,,,,,,,,,,,,,,,,,,,,,,,,,,,,,,,,,,,,,,,,,,,,,,,,,,,,,,,,,,,,,,,,,,,,,,,,,,,,,,,,,,,,,,,,,,,,,,,,,,,,,,,,,,,,,,,,,,,,,,,,,,,,,,,,,,,,,,,,,,,,,,,,,,,,,,,,,,
0,65,65,72,1,,60bf58fdf814d2c749a35458,62c53a4a07160c13dfb487d6,2022-07-06_09h35.27.043,Colour_Asymmetry_Pilot,2022.1.3,Win32,30.00120005,62c50e9c1127f2cd403a315f,,,,,,,,,,,,,,,,,,,,,,,,,,,,,,,,,,,,,,,,,,,,,,,,,,,,,,,,,,,,,,,,,,,,,,,,,,,,,,,,,,,,,,,,,,,,,,,,,,,,,,,,,,,,,,,,,,,,,,,,,,,,,,,,,,,,,,,,,,,,,,,,,,,,,,,,,,,,,,,,,,,
0,66,66,76,1,,60bf58fdf814d2c749a35458,62c53a4a07160c13dfb487d6,2022-07-06_09h35.27.043,Colour_Asymmetry_Pilot,2022.1.3,Win32,30.00120005,62c50e9c1127f2cd403a315f,,,,,,,,,,,,,,,,,,,,,,,,,,,,,,,,,,,,,,,,,,,,,,,,,,,,,,,,,,,,,,,,,,,,,,,,,,,,,,,,,,,,,,,,,,,,,,,,,,,,,,,,,,,,,,,,,,,,,,,,,,,,,,,,,,,,,,,,,,,,,,,,,,,,,,,,,,,,,,,,,,,
0,67,67,54,1,,60bf58fdf814d2c749a35458,62c53a4a07160c13dfb487d6,2022-07-06_09h35.27.043,Colour_Asymmetry_Pilot,2022.1.3,Win32,30.00120005,62c50e9c1127f2cd403a315f,,,,,,,,,,,,,,,,,,,,,,,,,,,,,,,,,,,,,,,,,,,,,,,,,,,,,,,,,,,,,,,,,,,,,,,,,,,,,,,,,,,,,,,,,,,,,,,,,,,,,,,,,,,,,,,,,,,,,,,,,,,,,,,,,,,,,,,,,,,,,,,,,,,,,,,,,,,,,,,,,,,
0,68,68,59,1,,60bf58fdf814d2c749a35458,62c53a4a07160c13dfb487d6,2022-07-06_09h35.27.043,Colour_Asymmetry_Pilot,2022.1.3,Win32,30.00120005,62c50e9c1127f2cd403a315f,,,,,,,,,,,,,,,,,,,,,,,,,,,,,,,,,,,,,,,,,,,,,,,,,,,,,,,,,,,,,,,,,,,,,,,,,,,,,,,,,,,,,,,,,,,,,,,,,,,,,,,,,,,,,,,,,,,,,,,,,,,,,,,,,,,,,,,,,,,,,,,,,,,,,,,,,,,,,,,,,,,
0,69,69,15,1,,60bf58fdf814d2c749a35458,62c53a4a07160c13dfb487d6,2022-07-06_09h35.27.043,Colour_Asymmetry_Pilot,2022.1.3,Win32,30.00120005,62c50e9c1127f2cd403a315f,,,,,,,,,,,,,,,,,,,,,,,,,,,,,,,,,,,,,,,,,,,,,,,,,,,,,,,,,,,,,,,,,,,,,,,,,,,,,,,,,,,,,,,,,,,,,,,,,,,,,,,,,,,,,,,,,,,,,,,,,,,,,,,,,,,,,,,,,,,,,,,,,,,,,,,,,,,,,,,,,,,
0,70,70,0,1,,60bf58fdf814d2c749a35458,62c53a4a07160c13dfb487d6,2022-07-06_09h35.27.043,Colour_Asymmetry_Pilot,2022.1.3,Win32,30.00120005,62c50e9c1127f2cd403a315f,,,,,,,,,,,,,,,,,,,,,,,,,,,,,,,,,,,,,,,,,,,,,,,,,,,,,,,,,,,,,,,,,,,,,,,,,,,,,,,,,,,,,,,,,,,,,,,,,,,,,,,,,,,,,,,,,,,,,,,,,,,,,,,,,,,,,,,,,,,,,,,,,,,,,,,,,,,,,,,,,,,
0,71,71,73,1,,60bf58fdf814d2c749a35458,62c53a4a07160c13dfb487d6,2022-07-06_09h35.27.043,Colour_Asymmetry_Pilot,2022.1.3,Win32,30.00120005,62c50e9c1127f2cd403a315f,,,,,,,,,,,,,,,,,,,,,,,,,,,,,,,,,,,,,,,,,,,,,,,,,,,,,,,,,,,,,,,,,,,,,,,,,,,,,,,,,,,,,,,,,,,,,,,,,,,,,,,,,,,,,,,,,,,,,,,,,,,,,,,,,,,,,,,,,,,,,,,,,,,,,,,,,,,,,,,,,,,
0,72,72,10,1,,60bf58fdf814d2c749a35458,62c53a4a07160c13dfb487d6,2022-07-06_09h35.27.043,Colour_Asymmetry_Pilot,2022.1.3,Win32,30.00120005,62c50e9c1127f2cd403a315f,,,,,,,,,,,,,,,,,,,,,,,,,,,,,,,,,,,,,,,,,,,,,,,,,,,,,,,,,,,,,,,,,,,,,,,,,,,,,,,,,,,,,,,,,,,,,,,,,,,,,,,,,,,,,,,,,,,,,,,,,,,,,,,,,,,,,,,,,,,,,,,,,,,,,,,,,,,,,,,,,,,
0,73,73,50,1,,60bf58fdf814d2c749a35458,62c53a4a07160c13dfb487d6,2022-07-06_09h35.27.043,Colour_Asymmetry_Pilot,2022.1.3,Win32,30.00120005,62c50e9c1127f2cd403a315f,,,,,,,,,,,,,,,,,,,,,,,,,,,,,,,,,,,,,,,,,,,,,,,,,,,,,,,,,,,,,,,,,,,,,,,,,,,,,,,,,,,,,,,,,,,,,,,,,,,,,,,,,,,,,,,,,,,,,,,,,,,,,,,,,,,,,,,,,,,,,,,,,,,,,,,,,,,,,,,,,,,
0,74,74,79,1,,60bf58fdf814d2c749a35458,62c53a4a07160c13dfb487d6,2022-07-06_09h35.27.043,Colour_Asymmetry_Pilot,2022.1.3,Win32,30.00120005,62c50e9c1127f2cd403a315f,,,,,,,,,,,,,,,,,,,,,,,,,,,,,,,,,,,,,,,,,,,,,,,,,,,,,,,,,,,,,,,,,,,,,,,,,,,,,,,,,,,,,,,,,,,,,,,,,,,,,,,,,,,,,,,,,,,,,,,,,,,,,,,,,,,,,,,,,,,,,,,,,,,,,,,,,,,,,,,,,,,
0,75,75,18,1,,60bf58fdf814d2c749a35458,62c53a4a07160c13dfb487d6,2022-07-06_09h35.27.043,Colour_Asymmetry_Pilot,2022.1.3,Win32,30.00120005,62c50e9c1127f2cd403a315f,,,,,,,,,,,,,,,,,,,,,,,,,,,,,,,,,,,,,,,,,,,,,,,,,,,,,,,,,,,,,,,,,,,,,,,,,,,,,,,,,,,,,,,,,,,,,,,,,,,,,,,,,,,,,,,,,,,,,,,,,,,,,,,,,,,,,,,,,,,,,,,,,,,,,,,,,,,,,,,,,,,
0,76,76,45,1,,60bf58fdf814d2c749a35458,62c53a4a07160c13dfb487d6,2022-07-06_09h35.27.043,Colour_Asymmetry_Pilot,2022.1.3,Win32,30.00120005,62c50e9c1127f2cd403a315f,,,,,,,,,,,,,,,,,,,,,,,,,,,,,,,,,,,,,,,,,,,,,,,,,,,,,,,,,,,,,,,,,,,,,,,,,,,,,,,,,,,,,,,,,,,,,,,,,,,,,,,,,,,,,,,,,,,,,,,,,,,,,,,,,,,,,,,,,,,,,,,,,,,,,,,,,,,,,,,,,,,
0,77,77,44,1,,60bf58fdf814d2c749a35458,62c53a4a07160c13dfb487d6,2022-07-06_09h35.27.043,Colour_Asymmetry_Pilot,2022.1.3,Win32,30.00120005,62c50e9c1127f2cd403a315f,,,,,,,,,,,,,,,,,,,,,,,,,,,,,,,,,,,,,,,,,,,,,,,,,,,,,,,,,,,,,,,,,,,,,,,,,,,,,,,,,,,,,,,,,,,,,,,,,,,,,,,,,,,,,,,,,,,,,,,,,,,,,,,,,,,,,,,,,,,,,,,,,,,,,,,,,,,,,,,,,,,
0,78,78,12,1,,60bf58fdf814d2c749a35458,62c53a4a07160c13dfb487d6,2022-07-06_09h35.27.043,Colour_Asymmetry_Pilot,2022.1.3,Win32,30.00120005,62c50e9c1127f2cd403a315f,,,,,,,,,,,,,,,,,,,,,,,,,,,,,,,,,,,,,,,,,,,,,,,,,,,,,,,,,,,,,,,,,,,,,,,,,,,,,,,,,,,,,,,,,,,,,,,,,,,,,,,,,,,,,,,,,,,,,,,,,,,,,,,,,,,,,,,,,,,,,,,,,,,,,,,,,,,,,,,,,,,
0,79,79,58,1,,60bf58fdf814d2c749a35458,62c53a4a07160c13dfb487d6,2022-07-06_09h35.27.043,Colour_Asymmetry_Pilot,2022.1.3,Win32,30.00120005,62c50e9c1127f2cd403a315f,,,,,,,,,,,,,,,,,,,,,,,,,,,,,,,,,,,,,,,,,,,,,,,,,,,,,,,,,,,,,,,,,,,,,,,,,,,,,,,,,,,,,,,,,,,,,,,,,,,,,,,,,,,,,,,,,,,,,,,,,,,,,,,,,,,,,,,,,,,,,,,,,,,,,,,,,,,,,,,,,,,
0,80,80,67,1,,60bf58fdf814d2c749a35458,62c53a4a07160c13dfb487d6,2022-07-06_09h35.27.043,Colour_Asymmetry_Pilot,2022.1.3,Win32,30.00120005,62c50e9c1127f2cd403a315f,,,,,,,,,,,,,,,,,,,,,,,,,,,,,,,,,,,,,,,,,,,,,,,,,,,,,,,,,,,,,,,,,,,,,,,,,,,,,,,,,,,,,,,,,,,,,,,,,,,,,,,,,,,,,,,,,,,,,,,,,,,,,,,,,,,,,,,,,,,,,,,,,,,,,,,,,,,,,,,,,,,
0,81,81,11,1,,60bf58fdf814d2c749a35458,62c53a4a07160c13dfb487d6,2022-07-06_09h35.27.043,Colour_Asymmetry_Pilot,2022.1.3,Win32,30.00120005,62c50e9c1127f2cd403a315f,,,,,,,,,,,,,,,,,,,,,,,,,,,,,,,,,,,,,,,,,,,,,,,,,,,,,,,,,,,,,,,,,,,,,,,,,,,,,,,,,,,,,,,,,,,,,,,,,,,,,,,,,,,,,,,,,,,,,,,,,,,,,,,,,,,,,,,,,,,,,,,,,,,,,,,,,,,,,,,,,,,
0,82,82,19,1,,60bf58fdf814d2c749a35458,62c53a4a07160c13dfb487d6,2022-07-06_09h35.27.043,Colour_Asymmetry_Pilot,2022.1.3,Win32,30.00120005,62c50e9c1127f2cd403a315f,,,,,,,,,,,,,,,,,,,,,,,,,,,,,,,,,,,,,,,,,,,,,,,,,,,,,,,,,,,,,,,,,,,,,,,,,,,,,,,,,,,,,,,,,,,,,,,,,,,,,,,,,,,,,,,,,,,,,,,,,,,,,,,,,,,,,,,,,,,,,,,,,,,,,,,,,,,,,,,,,,,
0,83,83,7,1,,60bf58fdf814d2c749a35458,62c53a4a07160c13dfb487d6,2022-07-06_09h35.27.043,Colour_Asymmetry_Pilot,2022.1.3,Win32,30.00120005,62c50e9c1127f2cd403a315f,,,,,,,,,,,,,,,,,,,,,,,,,,,,,,,,,,,,,,,,,,,,,,,,,,,,,,,,,,,,,,,,,,,,,,,,,,,,,,,,,,,,,,,,,,,,,,,,,,,,,,,,,,,,,,,,,,,,,,,,,,,,,,,,,,,,,,,,,,,,,,,,,,,,,,,,,,,,,,,,,,,
0,84,84,41,1,,60bf58fdf814d2c749a35458,62c53a4a07160c13dfb487d6,2022-07-06_09h35.27.043,Colour_Asymmetry_Pilot,2022.1.3,Win32,30.00120005,62c50e9c1127f2cd403a315f,,,,,,,,,,,,,,,,,,,,,,,,,,,,,,,,,,,,,,,,,,,,,,,,,,,,,,,,,,,,,,,,,,,,,,,,,,,,,,,,,,,,,,,,,,,,,,,,,,,,,,,,,,,,,,,,,,,,,,,,,,,,,,,,,,,,,,,,,,,,,,,,,,,,,,,,,,,,,,,,,,,
0,85,85,23,1,,60bf58fdf814d2c749a35458,62c53a4a07160c13dfb487d6,2022-07-06_09h35.27.043,Colour_Asymmetry_Pilot,2022.1.3,Win32,30.00120005,62c50e9c1127f2cd403a315f,,,,,,,,,,,,,,,,,,,,,,,,,,,,,,,,,,,,,,,,,,,,,,,,,,,,,,,,,,,,,,,,,,,,,,,,,,,,,,,,,,,,,,,,,,,,,,,,,,,,,,,,,,,,,,,,,,,,,,,,,,,,,,,,,,,,,,,,,,,,,,,,,,,,,,,,,,,,,,,,,,,
0,86,86,13,1,,60bf58fdf814d2c749a35458,62c53a4a07160c13dfb487d6,2022-07-06_09h35.27.043,Colour_Asymmetry_Pilot,2022.1.3,Win32,30.00120005,62c50e9c1127f2cd403a315f,,,,,,,,,,,,,,,,,,,,,,,,,,,,,,,,,,,,,,,,,,,,,,,,,,,,,,,,,,,,,,,,,,,,,,,,,,,,,,,,,,,,,,,,,,,,,,,,,,,,,,,,,,,,,,,,,,,,,,,,,,,,,,,,,,,,,,,,,,,,,,,,,,,,,,,,,,,,,,,,,,,
0,87,87,36,1,,60bf58fdf814d2c749a35458,62c53a4a07160c13dfb487d6,2022-07-06_09h35.27.043,Colour_Asymmetry_Pilot,2022.1.3,Win32,30.00120005,62c50e9c1127f2cd403a315f,,,,,,,,,,,,,,,,,,,,,,,,,,,,,,,,,,,,,,,,,,,,,,,,,,,,,,,,,,,,,,,,,,,,,,,,,,,,,,,,,,,,,,,,,,,,,,,,,,,,,,,,,,,,,,,,,,,,,,,,,,,,,,,,,,,,,,,,,,,,,,,,,,,,,,,,,,,,,,,,,,,
0,88,88,8,1,,60bf58fdf814d2c749a35458,62c53a4a07160c13dfb487d6,2022-07-06_09h35.27.043,Colour_Asymmetry_Pilot,2022.1.3,Win32,30.00120005,62c50e9c1127f2cd403a315f,,,,,,,,,,,,,,,,,,,,,,,,,,,,,,,,,,,,,,,,,,,,,,,,,,,,,,,,,,,,,,,,,,,,,,,,,,,,,,,,,,,,,,,,,,,,,,,,,,,,,,,,,,,,,,,,,,,,,,,,,,,,,,,,,,,,,,,,,,,,,,,,,,,,,,,,,,,,,,,,,,,
0,89,89,57,1,,60bf58fdf814d2c749a35458,62c53a4a07160c13dfb487d6,2022-07-06_09h35.27.043,Colour_Asymmetry_Pilot,2022.1.3,Win32,30.00120005,62c50e9c1127f2cd403a315f,,,,,,,,,,,,,,,,,,,,,,,,,,,,,,,,,,,,,,,,,,,,,,,,,,,,,,,,,,,,,,,,,,,,,,,,,,,,,,,,,,,,,,,,,,,,,,,,,,,,,,,,,,,,,,,,,,,,,,,,,,,,,,,,,,,,,,,,,,,,,,,,,,,,,,,,,,,,,,,,,,,
0,90,90,90,1,,60bf58fdf814d2c749a35458,62c53a4a07160c13dfb487d6,2022-07-06_09h35.27.043,Colour_Asymmetry_Pilot,2022.1.3,Win32,30.00120005,62c50e9c1127f2cd403a315f,,,,,,,,,,,,,,,,,,,,,,,,,,,,,,,,,,,,,,,,,,,,,,,,,,,,,,,,,,,,,,,,,,,,,,,,,,,,,,,,,,,,,,,,,,,,,,,,,,,,,,,,,,,,,,,,,,,,,,,,,,,,,,,,,,,,,,,,,,,,,,,,,,,,,,,,,,,,,,,,,,,
0,91,91,91,1,,60bf58fdf814d2c749a35458,62c53a4a07160c13dfb487d6,2022-07-06_09h35.27.043,Colour_Asymmetry_Pilot,2022.1.3,Win32,30.00120005,62c50e9c1127f2cd403a315f,,,,,,,,,,,,,,,,,,,,,,,,,,,,,,,,,,,,,,,,,,,,,,,,,,,,,,,,,,,,,,,,,,,,,,,,,,,,,,,,,,,,,,,,,,,,,,,,,,,,,,,,,,,,,,,,,,,,,,,,,,,,,,,,,,,,,,,,,,,,,,,,,,,,,,,,,,,,,,,,,,,
0,92,92,20,1,,60bf58fdf814d2c749a35458,62c53a4a07160c13dfb487d6,2022-07-06_09h35.27.043,Colour_Asymmetry_Pilot,2022.1.3,Win32,30.00120005,62c50e9c1127f2cd403a315f,,,,,,,,,,,,,,,,,,,,,,,,,,,,,,,,,,,,,,,,,,,,,,,,,,,,,,,,,,,,,,,,,,,,,,,,,,,,,,,,,,,,,,,,,,,,,,,,,,,,,,,,,,,,,,,,,,,,,,,,,,,,,,,,,,,,,,,,,,,,,,,,,,,,,,,,,,,,,,,,,,,
,,,,,,60bf58fdf814d2c749a35458,62c53a4a07160c13dfb487d6,2022-07-06_09h35.27.043,Colour_Asymmetry_Pilot,2022.1.3,Win32,30.00120005,62c50e9c1127f2cd403a315f,0,0,0,48,1,onetwo,,,,,,,,,,,,,,,,,,,,,,,,,,,,,,,,,,,,,,,,,,,,,,,,,,,,,,,,,,,,,,,,,,,,,,,,,,,,,,,,,,,,,,,,,,,,,,,,,,,,,,,,,,,,,,,,,,,,,,,,,,,,,,,,,,,,,,,,,,,,,,,,,,,,,,,,,,,,,
,,,,,,60bf58fdf814d2c749a35458,62c53a4a07160c13dfb487d6,2022-07-06_09h35.27.043,Colour_Asymmetry_Pilot,2022.1.3,Win32,30.00120005,62c50e9c1127f2cd403a315f,0,1,1,7,1,fourthree,,,,,,,,,,,,,,,,,,,,,,,,,,,,,,,,,,,,,,,,,,,,,,,,,,,,,,,,,,,,,,,,,,,,,,,,,,,,,,,,,,,,,,,,,,,,,,,,,,,,,,,,,,,,,,,,,,,,,,,,,,,,,,,,,,,,,,,,,,,,,,,,,,,,,,,,,,,,,
,,,,,,60bf58fdf814d2c749a35458,62c53a4a07160c13dfb487d6,2022-07-06_09h35.27.043,Colour_Asymmetry_Pilot,2022.1.3,Win32,30.00120005,62c50e9c1127f2cd403a315f,0,2,2,86,1,fourtwo,,,,,,,,,,,,,,,,,,,,,,,,,,,,,,,,,,,,,,,,,,,,,,,,,,,,,,,,,,,,,,,,,,,,,,,,,,,,,,,,,,,,,,,,,,,,,,,,,,,,,,,,,,,,,,,,,,,,,,,,,,,,,,,,,,,,,,,,,,,,,,,,,,,,,,,,,,,,,
,,,,,,60bf58fdf814d2c749a35458,62c53a4a07160c13dfb487d6,2022-07-06_09h35.27.043,Colour_Asymmetry_Pilot,2022.1.3,Win32,30.00120005,62c50e9c1127f2cd403a315f,0,3,3,51,1,twofour,,,,,,,,,,,,,,,,,,,,,,,,,,,,,,,,,,,,,,,,,,,,,,,,,,,,,,,,,,,,,,,,,,,,,,,,,,,,,,,,,,,,,,,,,,,,,,,,,,,,,,,,,,,,,,,,,,,,,,,,,,,,,,,,,,,,,,,,,,,,,,,,,,,,,,,,,,,,,
,,,,,,60bf58fdf814d2c749a35458,62c53a4a07160c13dfb487d6,2022-07-06_09h35.27.043,Colour_Asymmetry_Pilot,2022.1.3,Win32,30.00120005,62c50e9c1127f2cd403a315f,0,4,4,125,1,threefour,,,,,,,,,,,,,,,,,,,,,,,,,,,,,,,,,,,,,,,,,,,,,,,,,,,,,,,,,,,,,,,,,,,,,,,,,,,,,,,,,,,,,,,,,,,,,,,,,,,,,,,,,,,,,,,,,,,,,,,,,,,,,,,,,,,,,,,,,,,,,,,,,,,,,,,,,,,,,
,,,,,,60bf58fdf814d2c749a35458,62c53a4a07160c13dfb487d6,2022-07-06_09h35.27.043,Colour_Asymmetry_Pilot,2022.1.3,Win32,30.00120005,62c50e9c1127f2cd403a315f,0,5,5,75,1,twofour,,,,,,,,,,,,,,,,,,,,,,,,,,,,,,,,,,,,,,,,,,,,,,,,,,,,,,,,,,,,,,,,,,,,,,,,,,,,,,,,,,,,,,,,,,,,,,,,,,,,,,,,,,,,,,,,,,,,,,,,,,,,,,,,,,,,,,,,,,,,,,,,,,,,,,,,,,,,,
,,,,,,60bf58fdf814d2c749a35458,62c53a4a07160c13dfb487d6,2022-07-06_09h35.27.043,Colour_Asymmetry_Pilot,2022.1.3,Win32,30.00120005,62c50e9c1127f2cd403a315f,0,6,6,74,1,twoone,,,,,,,,,,,,,,,,,,,,,,,,,,,,,,,,,,,,,,,,,,,,,,,,,,,,,,,,,,,,,,,,,,,,,,,,,,,,,,,,,,,,,,,,,,,,,,,,,,,,,,,,,,,,,,,,,,,,,,,,,,,,,,,,,,,,,,,,,,,,,,,,,,,,,,,,,,,,,
,,,,,,60bf58fdf814d2c749a35458,62c53a4a07160c13dfb487d6,2022-07-06_09h35.27.043,Colour_Asymmetry_Pilot,2022.1.3,Win32,30.00120005,62c50e9c1127f2cd403a315f,0,7,7,130,1,twoone,,,,,,,,,,,,,,,,,,,,,,,,,,,,,,,,,,,,,,,,,,,,,,,,,,,,,,,,,,,,,,,,,,,,,,,,,,,,,,,,,,,,,,,,,,,,,,,,,,,,,,,,,,,,,,,,,,,,,,,,,,,,,,,,,,,,,,,,,,,,,,,,,,,,,,,,,,,,,
,,,,,,60bf58fdf814d2c749a35458,62c53a4a07160c13dfb487d6,2022-07-06_09h35.27.043,Colour_Asymmetry_Pilot,2022.1.3,Win32,30.00120005,62c50e9c1127f2cd403a315f,0,8,8,139,1,twofour,,,,,,,,,,,,,,,,,,,,,,,,,,,,,,,,,,,,,,,,,,,,,,,,,,,,,,,,,,,,,,,,,,,,,,,,,,,,,,,,,,,,,,,,,,,,,,,,,,,,,,,,,,,,,,,,,,,,,,,,,,,,,,,,,,,,,,,,,,,,,,,,,,,,,,,,,,,,,
,,,,,,60bf58fdf814d2c749a35458,62c53a4a07160c13dfb487d6,2022-07-06_09h35.27.043,Colour_Asymmetry_Pilot,2022.1.3,Win32,30.00120005,62c50e9c1127f2cd403a315f,0,9,9,159,1,fourthree,,,,,,,,,,,,,,,,,,,,,,,,,,,,,,,,,,,,,,,,,,,,,,,,,,,,,,,,,,,,,,,,,,,,,,,,,,,,,,,,,,,,,,,,,,,,,,,,,,,,,,,,,,,,,,,,,,,,,,,,,,,,,,,,,,,,,,,,,,,,,,,,,,,,,,,,,,,,,
,,,,,,60bf58fdf814d2c749a35458,62c53a4a07160c13dfb487d6,2022-07-06_09h35.27.043,Colour_Asymmetry_Pilot,2022.1.3,Win32,30.00120005,62c50e9c1127f2cd403a315f,0,10,10,63,1,fourthree,,,,,,,,,,,,,,,,,,,,,,,,,,,,,,,,,,,,,,,,,,,,,,,,,,,,,,,,,,,,,,,,,,,,,,,,,,,,,,,,,,,,,,,,,,,,,,,,,,,,,,,,,,,,,,,,,,,,,,,,,,,,,,,,,,,,,,,,,,,,,,,,,,,,,,,,,,,,,
,,,,,,60bf58fdf814d2c749a35458,62c53a4a07160c13dfb487d6,2022-07-06_09h35.27.043,Colour_Asymmetry_Pilot,2022.1.3,Win32,30.00120005,62c50e9c1127f2cd403a315f,0,11,11,96,1,onetwo,,,,,,,,,,,,,,,,,,,,,,,,,,,,,,,,,,,,,,,,,,,,,,,,,,,,,,,,,,,,,,,,,,,,,,,,,,,,,,,,,,,,,,,,,,,,,,,,,,,,,,,,,,,,,,,,,,,,,,,,,,,,,,,,,,,,,,,,,,,,,,,,,,,,,,,,,,,,,
,,,,,,60bf58fdf814d2c749a35458,62c53a4a07160c13dfb487d6,2022-07-06_09h35.27.043,Colour_Asymmetry_Pilot,2022.1.3,Win32,30.00120005,62c50e9c1127f2cd403a315f,0,12,12,38,1,fourtwo,,,,,,,,,,,,,,,,,,,,,,,,,,,,,,,,,,,,,,,,,,,,,,,,,,,,,,,,,,,,,,,,,,,,,,,,,,,,,,,,,,,,,,,,,,,,,,,,,,,,,,,,,,,,,,,,,,,,,,,,,,,,,,,,,,,,,,,,,,,,,,,,,,,,,,,,,,,,,
,,,,,,60bf58fdf814d2c749a35458,62c53a4a07160c13dfb487d6,2022-07-06_09h35.27.043,Colour_Asymmetry_Pilot,2022.1.3,Win32,30.00120005,62c50e9c1127f2cd403a315f,0,13,13,11,1,twofour,,,,,,,,,,,,,,,,,,,,,,,,,,,,,,,,,,,,,,,,,,,,,,,,,,,,,,,,,,,,,,,,,,,,,,,,,,,,,,,,,,,,,,,,,,,,,,,,,,,,,,,,,,,,,,,,,,,,,,,,,,,,,,,,,,,,,,,,,,,,,,,,,,,,,,,,,,,,,
,,,,,,60bf58fdf814d2c749a35458,62c53a4a07160c13dfb487d6,2022-07-06_09h35.27.043,Colour_Asymmetry_Pilot,2022.1.3,Win32,30.00120005,62c50e9c1127f2cd403a315f,0,14,14,83,1,twofour,,,,,,,,,,,,,,,,,,,,,,,,,,,,,,,,,,,,,,,,,,,,,,,,,,,,,,,,,,,,,,,,,,,,,,,,,,,,,,,,,,,,,,,,,,,,,,,,,,,,,,,,,,,,,,,,,,,,,,,,,,,,,,,,,,,,,,,,,,,,,,,,,,,,,,,,,,,,,
,,,,,,60bf58fdf814d2c749a35458,62c53a4a07160c13dfb487d6,2022-07-06_09h35.27.043,Colour_Asymmetry_Pilot,2022.1.3,Win32,30.00120005,62c50e9c1127f2cd403a315f,0,15,15,158,1,fourtwo,,,,,,,,,,,,,,,,,,,,,,,,,,,,,,,,,,,,,,,,,,,,,,,,,,,,,,,,,,,,,,,,,,,,,,,,,,,,,,,,,,,,,,,,,,,,,,,,,,,,,,,,,,,,,,,,,,,,,,,,,,,,,,,,,,,,,,,,,,,,,,,,,,,,,,,,,,,,,
,,,,,,60bf58fdf814d2c749a35458,62c53a4a07160c13dfb487d6,2022-07-06_09h35.27.043,Colour_Asymmetry_Pilot,2022.1.3,Win32,30.00120005,62c50e9c1127f2cd403a315f,0,16,16,61,1,threefour,,,,,,,,,,,,,,,,,,,,,,,,,,,,,,,,,,,,,,,,,,,,,,,,,,,,,,,,,,,,,,,,,,,,,,,,,,,,,,,,,,,,,,,,,,,,,,,,,,,,,,,,,,,,,,,,,,,,,,,,,,,,,,,,,,,,,,,,,,,,,,,,,,,,,,,,,,,,,
,,,,,,60bf58fdf814d2c749a35458,62c53a4a07160c13dfb487d6,2022-07-06_09h35.27.043,Colour_Asymmetry_Pilot,2022.1.3,Win32,30.00120005,62c50e9c1127f2cd403a315f,0,17,17,64,1,onetwo,,,,,,,,,,,,,,,,,,,,,,,,,,,,,,,,,,,,,,,,,,,,,,,,,,,,,,,,,,,,,,,,,,,,,,,,,,,,,,,,,,,,,,,,,,,,,,,,,,,,,,,,,,,,,,,,,,,,,,,,,,,,,,,,,,,,,,,,,,,,,,,,,,,,,,,,,,,,,
,,,,,,60bf58fdf814d2c749a35458,62c53a4a07160c13dfb487d6,2022-07-06_09h35.27.043,Colour_Asymmetry_Pilot,2022.1.3,Win32,30.00120005,62c50e9c1127f2cd403a315f,0,18,18,101,1,threefour,,,,,,,,,,,,,,,,,,,,,,,,,,,,,,,,,,,,,,,,,,,,,,,,,,,,,,,,,,,,,,,,,,,,,,,,,,,,,,,,,,,,,,,,,,,,,,,,,,,,,,,,,,,,,,,,,,,,,,,,,,,,,,,,,,,,,,,,,,,,,,,,,,,,,,,,,,,,,
,,,,,,60bf58fdf814d2c749a35458,62c53a4a07160c13dfb487d6,2022-07-06_09h35.27.043,Colour_Asymmetry_Pilot,2022.1.3,Win32,30.00120005,62c50e9c1127f2cd403a315f,0,19,19,70,1,fourtwo,,,,,,,,,,,,,,,,,,,,,,,,,,,,,,,,,,,,,,,,,,,,,,,,,,,,,,,,,,,,,,,,,,,,,,,,,,,,,,,,,,,,,,,,,,,,,,,,,,,,,,,,,,,,,,,,,,,,,,,,,,,,,,,,,,,,,,,,,,,,,,,,,,,,,,,,,,,,,
,,,,,,60bf58fdf814d2c749a35458,62c53a4a07160c13dfb487d6,2022-07-06_09h35.27.043,Colour_Asymmetry_Pilot,2022.1.3,Win32,30.00120005,62c50e9c1127f2cd403a315f,0,20,20,138,1,twoone,,,,,,,,,,,,,,,,,,,,,,,,,,,,,,,,,,,,,,,,,,,,,,,,,,,,,,,,,,,,,,,,,,,,,,,,,,,,,,,,,,,,,,,,,,,,,,,,,,,,,,,,,,,,,,,,,,,,,,,,,,,,,,,,,,,,,,,,,,,,,,,,,,,,,,,,,,,,,
,,,,,,60bf58fdf814d2c749a35458,62c53a4a07160c13dfb487d6,2022-07-06_09h35.27.043,Colour_Asymmetry_Pilot,2022.1.3,Win32,30.00120005,62c50e9c1127f2cd403a315f,0,21,21,136,1,onetwo,,,,,,,,,,,,,,,,,,,,,,,,,,,,,,,,,,,,,,,,,,,,,,,,,,,,,,,,,,,,,,,,,,,,,,,,,,,,,,,,,,,,,,,,,,,,,,,,,,,,,,,,,,,,,,,,,,,,,,,,,,,,,,,,,,,,,,,,,,,,,,,,,,,,,,,,,,,,,
,,,,,,60bf58fdf814d2c749a35458,62c53a4a07160c13dfb487d6,2022-07-06_09h35.27.043,Colour_Asymmetry_Pilot,2022.1.3,Win32,30.00120005,62c50e9c1127f2cd403a315f,0,22,22,99,1,twofour,,,,,,,,,,,,,,,,,,,,,,,,,,,,,,,,,,,,,,,,,,,,,,,,,,,,,,,,,,,,,,,,,,,,,,,,,,,,,,,,,,,,,,,,,,,,,,,,,,,,,,,,,,,,,,,,,,,,,,,,,,,,,,,,,,,,,,,,,,,,,,,,,,,,,,,,,,,,,
,,,,,,60bf58fdf814d2c749a35458,62c53a4a07160c13dfb487d6,2022-07-06_09h35.27.043,Colour_Asymmetry_Pilot,2022.1.3,Win32,30.00120005,62c50e9c1127f2cd403a315f,0,23,23,145,1,onethree,,,,,,,,,,,,,,,,,,,,,,,,,,,,,,,,,,,,,,,,,,,,,,,,,,,,,,,,,,,,,,,,,,,,,,,,,,,,,,,,,,,,,,,,,,,,,,,,,,,,,,,,,,,,,,,,,,,,,,,,,,,,,,,,,,,,,,,,,,,,,,,,,,,,,,,,,,,,,
,,,,,,60bf58fdf814d2c749a35458,62c53a4a07160c13dfb487d6,2022-07-06_09h35.27.043,Colour_Asymmetry_Pilot,2022.1.3,Win32,30.00120005,62c50e9c1127f2cd403a315f,0,24,24,110,1,fourtwo,,,,,,,,,,,,,,,,,,,,,,,,,,,,,,,,,,,,,,,,,,,,,,,,,,,,,,,,,,,,,,,,,,,,,,,,,,,,,,,,,,,,,,,,,,,,,,,,,,,,,,,,,,,,,,,,,,,,,,,,,,,,,,,,,,,,,,,,,,,,,,,,,,,,,,,,,,,,,
,,,,,,60bf58fdf814d2c749a35458,62c53a4a07160c13dfb487d6,2022-07-06_09h35.27.043,Colour_Asymmetry_Pilot,2022.1.3,Win32,30.00120005,62c50e9c1127f2cd403a315f,0,25,25,100,1,threeone,,,,,,,,,,,,,,,,,,,,,,,,,,,,,,,,,,,,,,,,,,,,,,,,,,,,,,,,,,,,,,,,,,,,,,,,,,,,,,,,,,,,,,,,,,,,,,,,,,,,,,,,,,,,,,,,,,,,,,,,,,,,,,,,,,,,,,,,,,,,,,,,,,,,,,,,,,,,,
,,,,,,60bf58fdf814d2c749a35458,62c53a4a07160c13dfb487d6,2022-07-06_09h35.27.043,Colour_Asymmetry_Pilot,2022.1.3,Win32,30.00120005,62c50e9c1127f2cd403a315f,0,26,26,66,1,twoone,,,,,,,,,,,,,,,,,,,,,,,,,,,,,,,,,,,,,,,,,,,,,,,,,,,,,,,,,,,,,,,,,,,,,,,,,,,,,,,,,,,,,,,,,,,,,,,,,,,,,,,,,,,,,,,,,,,,,,,,,,,,,,,,,,,,,,,,,,,,,,,,,,,,,,,,,,,,,
,,,,,,60bf58fdf814d2c749a35458,62c53a4a07160c13dfb487d6,2022-07-06_09h35.27.043,Colour_Asymmetry_Pilot,2022.1.3,Win32,30.00120005,62c50e9c1127f2cd403a315f,0,27,27,5,1,threefour,,,,,,,,,,,,,,,,,,,,,,,,,,,,,,,,,,,,,,,,,,,,,,,,,,,,,,,,,,,,,,,,,,,,,,,,,,,,,,,,,,,,,,,,,,,,,,,,,,,,,,,,,,,,,,,,,,,,,,,,,,,,,,,,,,,,,,,,,,,,,,,,,,,,,,,,,,,,,
,,,,,,60bf58fdf814d2c749a35458,62c53a4a07160c13dfb487d6,2022-07-06_09h35.27.043,Colour_Asymmetry_Pilot,2022.1.3,Win32,30.00120005,62c50e9c1127f2cd403a315f,0,28,28,95,1,fourthree,,,,,,,,,,,,,,,,,,,,,,,,,,,,,,,,,,,,,,,,,,,,,,,,,,,,,,,,,,,,,,,,,,,,,,,,,,,,,,,,,,,,,,,,,,,,,,,,,,,,,,,,,,,,,,,,,,,,,,,,,,,,,,,,,,,,,,,,,,,,,,,,,,,,,,,,,,,,,
,,,,,,60bf58fdf814d2c749a35458,62c53a4a07160c13dfb487d6,2022-07-06_09h35.27.043,Colour_Asymmetry_Pilot,2022.1.3,Win32,30.00120005,62c50e9c1127f2cd403a315f,0,29,29,153,1,onethree,,,,,,,,,,,,,,,,,,,,,,,,,,,,,,,,,,,,,,,,,,,,,,,,,,,,,,,,,,,,,,,,,,,,,,,,,,,,,,,,,,,,,,,,,,,,,,,,,,,,,,,,,,,,,,,,,,,,,,,,,,,,,,,,,,,,,,,,,,,,,,,,,,,,,,,,,,,,,
,,,,,,60bf58fdf814d2c749a35458,62c53a4a07160c13dfb487d6,2022-07-06_09h35.27.043,Colour_Asymmetry_Pilot,2022.1.3,Win32,30.00120005,62c50e9c1127f2cd403a315f,0,30,30,104,1,onetwo,,,,,,,,,,,,,,,,,,,,,,,,,,,,,,,,,,,,,,,,,,,,,,,,,,,,,,,,,,,,,,,,,,,,,,,,,,,,,,,,,,,,,,,,,,,,,,,,,,,,,,,,,,,,,,,,,,,,,,,,,,,,,,,,,,,,,,,,,,,,,,,,,,,,,,,,,,,,,
,,,,,,60bf58fdf814d2c749a35458,62c53a4a07160c13dfb487d6,2022-07-06_09h35.27.043,Colour_Asymmetry_Pilot,2022.1.3,Win32,30.00120005,62c50e9c1127f2cd403a315f,0,31,31,90,1,twoone,,,,,,,,,,,,,,,,,,,,,,,,,,,,,,,,,,,,,,,,,,,,,,,,,,,,,,,,,,,,,,,,,,,,,,,,,,,,,,,,,,,,,,,,,,,,,,,,,,,,,,,,,,,,,,,,,,,,,,,,,,,,,,,,,,,,,,,,,,,,,,,,,,,,,,,,,,,,,
,,,,,,60bf58fdf814d2c749a35458,62c53a4a07160c13dfb487d6,2022-07-06_09h35.27.043,Colour_Asymmetry_Pilot,2022.1.3,Win32,30.00120005,62c50e9c1127f2cd403a315f,0,32,32,10,1,twoone,,,,,,,,,,,,,,,,,,,,,,,,,,,,,,,,,,,,,,,,,,,,,,,,,,,,,,,,,,,,,,,,,,,,,,,,,,,,,,,,,,,,,,,,,,,,,,,,,,,,,,,,,,,,,,,,,,,,,,,,,,,,,,,,,,,,,,,,,,,,,,,,,,,,,,,,,,,,,
,,,,,,60bf58fdf814d2c749a35458,62c53a4a07160c13dfb487d6,2022-07-06_09h35.27.043,Colour_Asymmetry_Pilot,2022.1.3,Win32,30.00120005,62c50e9c1127f2cd403a315f,0,33,33,97,1,onethree,,,,,,,,,,,,,,,,,,,,,,,,,,,,,,,,,,,,,,,,,,,,,,,,,,,,,,,,,,,,,,,,,,,,,,,,,,,,,,,,,,,,,,,,,,,,,,,,,,,,,,,,,,,,,,,,,,,,,,,,,,,,,,,,,,,,,,,,,,,,,,,,,,,,,,,,,,,,,
,,,,,,60bf58fdf814d2c749a35458,62c53a4a07160c13dfb487d6,2022-07-06_09h35.27.043,Colour_Asymmetry_Pilot,2022.1.3,Win32,30.00120005,62c50e9c1127f2cd403a315f,0,34,34,81,1,onethree,,,,,,,,,,,,,,,,,,,,,,,,,,,,,,,,,,,,,,,,,,,,,,,,,,,,,,,,,,,,,,,,,,,,,,,,,,,,,,,,,,,,,,,,,,,,,,,,,,,,,,,,,,,,,,,,,,,,,,,,,,,,,,,,,,,,,,,,,,,,,,,,,,,,,,,,,,,,,
,,,,,,60bf58fdf814d2c749a35458,62c53a4a07160c13dfb487d6,2022-07-06_09h35.27.043,Colour_Asymmetry_Pilot,2022.1.3,Win32,30.00120005,62c50e9c1127f2cd403a315f,0,35,35,16,1,onetwo,,,,,,,,,,,,,,,,,,,,,,,,,,,,,,,,,,,,,,,,,,,,,,,,,,,,,,,,,,,,,,,,,,,,,,,,,,,,,,,,,,,,,,,,,,,,,,,,,,,,,,,,,,,,,,,,,,,,,,,,,,,,,,,,,,,,,,,,,,,,,,,,,,,,,,,,,,,,,
,,,,,,60bf58fdf814d2c749a35458,62c53a4a07160c13dfb487d6,2022-07-06_09h35.27.043,Colour_Asymmetry_Pilot,2022.1.3,Win32,30.00120005,62c50e9c1127f2cd403a315f,0,36,36,43,1,twofour,,,,,,,,,,,,,,,,,,,,,,,,,,,,,,,,,,,,,,,,,,,,,,,,,,,,,,,,,,,,,,,,,,,,,,,,,,,,,,,,,,,,,,,,,,,,,,,,,,,,,,,,,,,,,,,,,,,,,,,,,,,,,,,,,,,,,,,,,,,,,,,,,,,,,,,,,,,,,
,,,,,,60bf58fdf814d2c749a35458,62c53a4a07160c13dfb487d6,2022-07-06_09h35.27.043,Colour_Asymmetry_Pilot,2022.1.3,Win32,30.00120005,62c50e9c1127f2cd403a315f,0,37,37,80,1,onetwo,,,,,,,,,,,,,,,,,,,,,,,,,,,,,,,,,,,,,,,,,,,,,,,,,,,,,,,,,,,,,,,,,,,,,,,,,,,,,,,,,,,,,,,,,,,,,,,,,,,,,,,,,,,,,,,,,,,,,,,,,,,,,,,,,,,,,,,,,,,,,,,,,,,,,,,,,,,,,
,,,,,,60bf58fdf814d2c749a35458,62c53a4a07160c13dfb487d6,2022-07-06_09h35.27.043,Colour_Asymmetry_Pilot,2022.1.3,Win32,30.00120005,62c50e9c1127f2cd403a315f,0,38,38,107,1,twofour,,,,,,,,,,,,,,,,,,,,,,,,,,,,,,,,,,,,,,,,,,,,,,,,,,,,,,,,,,,,,,,,,,,,,,,,,,,,,,,,,,,,,,,,,,,,,,,,,,,,,,,,,,,,,,,,,,,,,,,,,,,,,,,,,,,,,,,,,,,,,,,,,,,,,,,,,,,,,
,,,,,,60bf58fdf814d2c749a35458,62c53a4a07160c13dfb487d6,2022-07-06_09h35.27.043,Colour_Asymmetry_Pilot,2022.1.3,Win32,30.00120005,62c50e9c1127f2cd403a315f,0,39,39,131,1,twofour,,,,,,,,,,,,,,,,,,,,,,,,,,,,,,,,,,,,,,,,,,,,,,,,,,,,,,,,,,,,,,,,,,,,,,,,,,,,,,,,,,,,,,,,,,,,,,,,,,,,,,,,,,,,,,,,,,,,,,,,,,,,,,,,,,,,,,,,,,,,,,,,,,,,,,,,,,,,,
,,,,,,60bf58fdf814d2c749a35458,62c53a4a07160c13dfb487d6,2022-07-06_09h35.27.043,Colour_Asymmetry_Pilot,2022.1.3,Win32,30.00120005,62c50e9c1127f2cd403a315f,0,40,40,148,1,threeone,,,,,,,,,,,,,,,,,,,,,,,,,,,,,,,,,,,,,,,,,,,,,,,,,,,,,,,,,,,,,,,,,,,,,,,,,,,,,,,,,,,,,,,,,,,,,,,,,,,,,,,,,,,,,,,,,,,,,,,,,,,,,,,,,,,,,,,,,,,,,,,,,,,,,,,,,,,,,
,,,,,,60bf58fdf814d2c749a35458,62c53a4a07160c13dfb487d6,2022-07-06_09h35.27.043,Colour_Asymmetry_Pilot,2022.1.3,Win32,30.00120005,62c50e9c1127f2cd403a315f,0,41,41,92,1,threeone,,,,,,,,,,,,,,,,,,,,,,,,,,,,,,,,,,,,,,,,,,,,,,,,,,,,,,,,,,,,,,,,,,,,,,,,,,,,,,,,,,,,,,,,,,,,,,,,,,,,,,,,,,,,,,,,,,,,,,,,,,,,,,,,,,,,,,,,,,,,,,,,,,,,,,,,,,,,,
,,,,,,60bf58fdf814d2c749a35458,62c53a4a07160c13dfb487d6,2022-07-06_09h35.27.043,Colour_Asymmetry_Pilot,2022.1.3,Win32,30.00120005,62c50e9c1127f2cd403a315f,0,42,42,60,1,threeone,,,,,,,,,,,,,,,,,,,,,,,,,,,,,,,,,,,,,,,,,,,,,,,,,,,,,,,,,,,,,,,,,,,,,,,,,,,,,,,,,,,,,,,,,,,,,,,,,,,,,,,,,,,,,,,,,,,,,,,,,,,,,,,,,,,,,,,,,,,,,,,,,,,,,,,,,,,,,
,,,,,,60bf58fdf814d2c749a35458,62c53a4a07160c13dfb487d6,2022-07-06_09h35.27.043,Colour_Asymmetry_Pilot,2022.1.3,Win32,30.00120005,62c50e9c1127f2cd403a315f,0,43,43,135,1,fourthree,,,,,,,,,,,,,,,,,,,,,,,,,,,,,,,,,,,,,,,,,,,,,,,,,,,,,,,,,,,,,,,,,,,,,,,,,,,,,,,,,,,,,,,,,,,,,,,,,,,,,,,,,,,,,,,,,,,,,,,,,,,,,,,,,,,,,,,,,,,,,,,,,,,,,,,,,,,,,
,,,,,,60bf58fdf814d2c749a35458,62c53a4a07160c13dfb487d6,2022-07-06_09h35.27.043,Colour_Asymmetry_Pilot,2022.1.3,Win32,30.00120005,62c50e9c1127f2cd403a315f,0,44,44,54,1,fourtwo,,,,,,,,,,,,,,,,,,,,,,,,,,,,,,,,,,,,,,,,,,,,,,,,,,,,,,,,,,,,,,,,,,,,,,,,,,,,,,,,,,,,,,,,,,,,,,,,,,,,,,,,,,,,,,,,,,,,,,,,,,,,,,,,,,,,,,,,,,,,,,,,,,,,,,,,,,,,,
,,,,,,60bf58fdf814d2c749a35458,62c53a4a07160c13dfb487d6,2022-07-06_09h35.27.043,Colour_Asymmetry_Pilot,2022.1.3,Win32,30.00120005,62c50e9c1127f2cd403a315f,0,45,45,114,1,twoone,,,,,,,,,,,,,,,,,,,,,,,,,,,,,,,,,,,,,,,,,,,,,,,,,,,,,,,,,,,,,,,,,,,,,,,,,,,,,,,,,,,,,,,,,,,,,,,,,,,,,,,,,,,,,,,,,,,,,,,,,,,,,,,,,,,,,,,,,,,,,,,,,,,,,,,,,,,,,
,,,,,,60bf58fdf814d2c749a35458,62c53a4a07160c13dfb487d6,2022-07-06_09h35.27.043,Colour_Asymmetry_Pilot,2022.1.3,Win32,30.00120005,62c50e9c1127f2cd403a315f,0,46,46,129,1,onethree,,,,,,,,,,,,,,,,,,,,,,,,,,,,,,,,,,,,,,,,,,,,,,,,,,,,,,,,,,,,,,,,,,,,,,,,,,,,,,,,,,,,,,,,,,,,,,,,,,,,,,,,,,,,,,,,,,,,,,,,,,,,,,,,,,,,,,,,,,,,,,,,,,,,,,,,,,,,,
,,,,,,60bf58fdf814d2c749a35458,62c53a4a07160c13dfb487d6,2022-07-06_09h35.27.043,Colour_Asymmetry_Pilot,2022.1.3,Win32,30.00120005,62c50e9c1127f2cd403a315f,0,47,47,76,1,threeone,,,,,,,,,,,,,,,,,,,,,,,,,,,,,,,,,,,,,,,,,,,,,,,,,,,,,,,,,,,,,,,,,,,,,,,,,,,,,,,,,,,,,,,,,,,,,,,,,,,,,,,,,,,,,,,,,,,,,,,,,,,,,,,,,,,,,,,,,,,,,,,,,,,,,,,,,,,,,
,,,,,,60bf58fdf814d2c749a35458,62c53a4a07160c13dfb487d6,2022-07-06_09h35.27.043,Colour_Asymmetry_Pilot,2022.1.3,Win32,30.00120005,62c50e9c1127f2cd403a315f,0,48,48,56,1,onetwo,,,,,,,,,,,,,,,,,,,,,,,,,,,,,,,,,,,,,,,,,,,,,,,,,,,,,,,,,,,,,,,,,,,,,,,,,,,,,,,,,,,,,,,,,,,,,,,,,,,,,,,,,,,,,,,,,,,,,,,,,,,,,,,,,,,,,,,,,,,,,,,,,,,,,,,,,,,,,
,,,,,,60bf58fdf814d2c749a35458,62c53a4a07160c13dfb487d6,2022-07-06_09h35.27.043,Colour_Asymmetry_Pilot,2022.1.3,Win32,30.00120005,62c50e9c1127f2cd403a315f,0,49,49,50,1,twoone,,,,,,,,,,,,,,,,,,,,,,,,,,,,,,,,,,,,,,,,,,,,,,,,,,,,,,,,,,,,,,,,,,,,,,,,,,,,,,,,,,,,,,,,,,,,,,,,,,,,,,,,,,,,,,,,,,,,,,,,,,,,,,,,,,,,,,,,,,,,,,,,,,,,,,,,,,,,,
,,,,,,60bf58fdf814d2c749a35458,62c53a4a07160c13dfb487d6,2022-07-06_09h35.27.043,Colour_Asymmetry_Pilot,2022.1.3,Win32,30.00120005,62c50e9c1127f2cd403a315f,0,50,50,62,1,fourtwo,,,,,,,,,,,,,,,,,,,,,,,,,,,,,,,,,,,,,,,,,,,,,,,,,,,,,,,,,,,,,,,,,,,,,,,,,,,,,,,,,,,,,,,,,,,,,,,,,,,,,,,,,,,,,,,,,,,,,,,,,,,,,,,,,,,,,,,,,,,,,,,,,,,,,,,,,,,,,
,,,,,,60bf58fdf814d2c749a35458,62c53a4a07160c13dfb487d6,2022-07-06_09h35.27.043,Colour_Asymmetry_Pilot,2022.1.3,Win32,30.00120005,62c50e9c1127f2cd403a315f,0,51,51,154,1,twoone,,,,,,,,,,,,,,,,,,,,,,,,,,,,,,,,,,,,,,,,,,,,,,,,,,,,,,,,,,,,,,,,,,,,,,,,,,,,,,,,,,,,,,,,,,,,,,,,,,,,,,,,,,,,,,,,,,,,,,,,,,,,,,,,,,,,,,,,,,,,,,,,,,,,,,,,,,,,,
,,,,,,60bf58fdf814d2c749a35458,62c53a4a07160c13dfb487d6,2022-07-06_09h35.27.043,Colour_Asymmetry_Pilot,2022.1.3,Win32,30.00120005,62c50e9c1127f2cd403a315f,0,52,52,9,1,onethree,,,,,,,,,,,,,,,,,,,,,,,,,,,,,,,,,,,,,,,,,,,,,,,,,,,,,,,,,,,,,,,,,,,,,,,,,,,,,,,,,,,,,,,,,,,,,,,,,,,,,,,,,,,,,,,,,,,,,,,,,,,,,,,,,,,,,,,,,,,,,,,,,,,,,,,,,,,,,
,,,,,,60bf58fdf814d2c749a35458,62c53a4a07160c13dfb487d6,2022-07-06_09h35.27.043,Colour_Asymmetry_Pilot,2022.1.3,Win32,30.00120005,62c50e9c1127f2cd403a315f,0,53,53,120,1,onetwo,,,,,,,,,,,,,,,,,,,,,,,,,,,,,,,,,,,,,,,,,,,,,,,,,,,,,,,,,,,,,,,,,,,,,,,,,,,,,,,,,,,,,,,,,,,,,,,,,,,,,,,,,,,,,,,,,,,,,,,,,,,,,,,,,,,,,,,,,,,,,,,,,,,,,,,,,,,,,
,,,,,,60bf58fdf814d2c749a35458,62c53a4a07160c13dfb487d6,2022-07-06_09h35.27.043,Colour_Asymmetry_Pilot,2022.1.3,Win32,30.00120005,62c50e9c1127f2cd403a315f,0,54,54,15,1,fourthree,,,,,,,,,,,,,,,,,,,,,,,,,,,,,,,,,,,,,,,,,,,,,,,,,,,,,,,,,,,,,,,,,,,,,,,,,,,,,,,,,,,,,,,,,,,,,,,,,,,,,,,,,,,,,,,,,,,,,,,,,,,,,,,,,,,,,,,,,,,,,,,,,,,,,,,,,,,,,
,,,,,,60bf58fdf814d2c749a35458,62c53a4a07160c13dfb487d6,2022-07-06_09h35.27.043,Colour_Asymmetry_Pilot,2022.1.3,Win32,30.00120005,62c50e9c1127f2cd403a315f,0,55,55,32,1,onetwo,,,,,,,,,,,,,,,,,,,,,,,,,,,,,,,,,,,,,,,,,,,,,,,,,,,,,,,,,,,,,,,,,,,,,,,,,,,,,,,,,,,,,,,,,,,,,,,,,,,,,,,,,,,,,,,,,,,,,,,,,,,,,,,,,,,,,,,,,,,,,,,,,,,,,,,,,,,,,
,,,,,,60bf58fdf814d2c749a35458,62c53a4a07160c13dfb487d6,2022-07-06_09h35.27.043,Colour_Asymmetry_Pilot,2022.1.3,Win32,30.00120005,62c50e9c1127f2cd403a315f,0,56,56,113,1,onethree,,,,,,,,,,,,,,,,,,,,,,,,,,,,,,,,,,,,,,,,,,,,,,,,,,,,,,,,,,,,,,,,,,,,,,,,,,,,,,,,,,,,,,,,,,,,,,,,,,,,,,,,,,,,,,,,,,,,,,,,,,,,,,,,,,,,,,,,,,,,,,,,,,,,,,,,,,,,,
,,,,,,60bf58fdf814d2c749a35458,62c53a4a07160c13dfb487d6,2022-07-06_09h35.27.043,Colour_Asymmetry_Pilot,2022.1.3,Win32,30.00120005,62c50e9c1127f2cd403a315f,0,57,57,88,1,onetwo,,,,,,,,,,,,,,,,,,,,,,,,,,,,,,,,,,,,,,,,,,,,,,,,,,,,,,,,,,,,,,,,,,,,,,,,,,,,,,,,,,,,,,,,,,,,,,,,,,,,,,,,,,,,,,,,,,,,,,,,,,,,,,,,,,,,,,,,,,,,,,,,,,,,,,,,,,,,,
,,,,,,60bf58fdf814d2c749a35458,62c53a4a07160c13dfb487d6,2022-07-06_09h35.27.043,Colour_Asymmetry_Pilot,2022.1.3,Win32,30.00120005,62c50e9c1127f2cd403a315f,0,58,58,149,1,threefour,,,,,,,,,,,,,,,,,,,,,,,,,,,,,,,,,,,,,,,,,,,,,,,,,,,,,,,,,,,,,,,,,,,,,,,,,,,,,,,,,,,,,,,,,,,,,,,,,,,,,,,,,,,,,,,,,,,,,,,,,,,,,,,,,,,,,,,,,,,,,,,,,,,,,,,,,,,,,
,,,,,,60bf58fdf814d2c749a35458,62c53a4a07160c13dfb487d6,2022-07-06_09h35.27.043,Colour_Asymmetry_Pilot,2022.1.3,Win32,30.00120005,62c50e9c1127f2cd403a315f,0,59,59,65,1,onethree,,,,,,,,,,,,,,,,,,,,,,,,,,,,,,,,,,,,,,,,,,,,,,,,,,,,,,,,,,,,,,,,,,,,,,,,,,,,,,,,,,,,,,,,,,,,,,,,,,,,,,,,,,,,,,,,,,,,,,,,,,,,,,,,,,,,,,,,,,,,,,,,,,,,,,,,,,,,,
,,,,,,60bf58fdf814d2c749a35458,62c53a4a07160c13dfb487d6,2022-07-06_09h35.27.043,Colour_Asymmetry_Pilot,2022.1.3,Win32,30.00120005,62c50e9c1127f2cd403a315f,0,60,60,12,1,threeone,,,,,,,,,,,,,,,,,,,,,,,,,,,,,,,,,,,,,,,,,,,,,,,,,,,,,,,,,,,,,,,,,,,,,,,,,,,,,,,,,,,,,,,,,,,,,,,,,,,,,,,,,,,,,,,,,,,,,,,,,,,,,,,,,,,,,,,,,,,,,,,,,,,,,,,,,,,,,
,,,,,,60bf58fdf814d2c749a35458,62c53a4a07160c13dfb487d6,2022-07-06_09h35.27.043,Colour_Asymmetry_Pilot,2022.1.3,Win32,30.00120005,62c50e9c1127f2cd403a315f,0,61,61,73,1,onethree,,,,,,,,,,,,,,,,,,,,,,,,,,,,,,,,,,,,,,,,,,,,,,,,,,,,,,,,,,,,,,,,,,,,,,,,,,,,,,,,,,,,,,,,,,,,,,,,,,,,,,,,,,,,,,,,,,,,,,,,,,,,,,,,,,,,,,,,,,,,,,,,,,,,,,,,,,,,,
,,,,,,60bf58fdf814d2c749a35458,62c53a4a07160c13dfb487d6,2022-07-06_09h35.27.043,Colour_Asymmetry_Pilot,2022.1.3,Win32,30.00120005,62c50e9c1127f2cd403a315f,0,62,62,0,1,onetwo,,,,,,,,,,,,,,,,,,,,,,,,,,,,,,,,,,,,,,,,,,,,,,,,,,,,,,,,,,,,,,,,,,,,,,,,,,,,,,,,,,,,,,,,,,,,,,,,,,,,,,,,,,,,,,,,,,,,,,,,,,,,,,,,,,,,,,,,,,,,,,,,,,,,,,,,,,,,,
,,,,,,60bf58fdf814d2c749a35458,62c53a4a07160c13dfb487d6,2022-07-06_09h35.27.043,Colour_Asymmetry_Pilot,2022.1.3,Win32,30.00120005,62c50e9c1127f2cd403a315f,0,63,63,141,1,threefour,,,,,,,,,,,,,,,,,,,,,,,,,,,,,,,,,,,,,,,,,,,,,,,,,,,,,,,,,,,,,,,,,,,,,,,,,,,,,,,,,,,,,,,,,,,,,,,,,,,,,,,,,,,,,,,,,,,,,,,,,,,,,,,,,,,,,,,,,,,,,,,,,,,,,,,,,,,,,
,,,,,,60bf58fdf814d2c749a35458,62c53a4a07160c13dfb487d6,2022-07-06_09h35.27.043,Colour_Asymmetry_Pilot,2022.1.3,Win32,30.00120005,62c50e9c1127f2cd403a315f,0,64,64,53,1,threefour,,,,,,,,,,,,,,,,,,,,,,,,,,,,,,,,,,,,,,,,,,,,,,,,,,,,,,,,,,,,,,,,,,,,,,,,,,,,,,,,,,,,,,,,,,,,,,,,,,,,,,,,,,,,,,,,,,,,,,,,,,,,,,,,,,,,,,,,,,,,,,,,,,,,,,,,,,,,,
,,,,,,60bf58fdf814d2c749a35458,62c53a4a07160c13dfb487d6,2022-07-06_09h35.27.043,Colour_Asymmetry_Pilot,2022.1.3,Win32,30.00120005,62c50e9c1127f2cd403a315f,0,65,65,133,1,threefour,,,,,,,,,,,,,,,,,,,,,,,,,,,,,,,,,,,,,,,,,,,,,,,,,,,,,,,,,,,,,,,,,,,,,,,,,,,,,,,,,,,,,,,,,,,,,,,,,,,,,,,,,,,,,,,,,,,,,,,,,,,,,,,,,,,,,,,,,,,,,,,,,,,,,,,,,,,,,
,,,,,,60bf58fdf814d2c749a35458,62c53a4a07160c13dfb487d6,2022-07-06_09h35.27.043,Colour_Asymmetry_Pilot,2022.1.3,Win32,30.00120005,62c50e9c1127f2cd403a315f,0,66,66,144,1,onetwo,,,,,,,,,,,,,,,,,,,,,,,,,,,,,,,,,,,,,,,,,,,,,,,,,,,,,,,,,,,,,,,,,,,,,,,,,,,,,,,,,,,,,,,,,,,,,,,,,,,,,,,,,,,,,,,,,,,,,,,,,,,,,,,,,,,,,,,,,,,,,,,,,,,,,,,,,,,,,
,,,,,,60bf58fdf814d2c749a35458,62c53a4a07160c13dfb487d6,2022-07-06_09h35.27.043,Colour_Asymmetry_Pilot,2022.1.3,Win32,30.00120005,62c50e9c1127f2cd403a315f,0,67,67,78,1,fourtwo,,,,,,,,,,,,,,,,,,,,,,,,,,,,,,,,,,,,,,,,,,,,,,,,,,,,,,,,,,,,,,,,,,,,,,,,,,,,,,,,,,,,,,,,,,,,,,,,,,,,,,,,,,,,,,,,,,,,,,,,,,,,,,,,,,,,,,,,,,,,,,,,,,,,,,,,,,,,,
,,,,,,60bf58fdf814d2c749a35458,62c53a4a07160c13dfb487d6,2022-07-06_09h35.27.043,Colour_Asymmetry_Pilot,2022.1.3,Win32,30.00120005,62c50e9c1127f2cd403a315f,0,68,68,39,1,fourthree,,,,,,,,,,,,,,,,,,,,,,,,,,,,,,,,,,,,,,,,,,,,,,,,,,,,,,,,,,,,,,,,,,,,,,,,,,,,,,,,,,,,,,,,,,,,,,,,,,,,,,,,,,,,,,,,,,,,,,,,,,,,,,,,,,,,,,,,,,,,,,,,,,,,,,,,,,,,,
,,,,,,60bf58fdf814d2c749a35458,62c53a4a07160c13dfb487d6,2022-07-06_09h35.27.043,Colour_Asymmetry_Pilot,2022.1.3,Win32,30.00120005,62c50e9c1127f2cd403a315f,0,69,69,84,1,threeone,,,,,,,,,,,,,,,,,,,,,,,,,,,,,,,,,,,,,,,,,,,,,,,,,,,,,,,,,,,,,,,,,,,,,,,,,,,,,,,,,,,,,,,,,,,,,,,,,,,,,,,,,,,,,,,,,,,,,,,,,,,,,,,,,,,,,,,,,,,,,,,,,,,,,,,,,,,,,
,,,,,,60bf58fdf814d2c749a35458,62c53a4a07160c13dfb487d6,2022-07-06_09h35.27.043,Colour_Asymmetry_Pilot,2022.1.3,Win32,30.00120005,62c50e9c1127f2cd403a315f,0,70,70,102,1,fourtwo,,,,,,,,,,,,,,,,,,,,,,,,,,,,,,,,,,,,,,,,,,,,,,,,,,,,,,,,,,,,,,,,,,,,,,,,,,,,,,,,,,,,,,,,,,,,,,,,,,,,,,,,,,,,,,,,,,,,,,,,,,,,,,,,,,,,,,,,,,,,,,,,,,,,,,,,,,,,,
,,,,,,60bf58fdf814d2c749a35458,62c53a4a07160c13dfb487d6,2022-07-06_09h35.27.043,Colour_Asymmetry_Pilot,2022.1.3,Win32,30.00120005,62c50e9c1127f2cd403a315f,0,71,71,17,1,onethree,,,,,,,,,,,,,,,,,,,,,,,,,,,,,,,,,,,,,,,,,,,,,,,,,,,,,,,,,,,,,,,,,,,,,,,,,,,,,,,,,,,,,,,,,,,,,,,,,,,,,,,,,,,,,,,,,,,,,,,,,,,,,,,,,,,,,,,,,,,,,,,,,,,,,,,,,,,,,
,,,,,,60bf58fdf814d2c749a35458,62c53a4a07160c13dfb487d6,2022-07-06_09h35.27.043,Colour_Asymmetry_Pilot,2022.1.3,Win32,30.00120005,62c50e9c1127f2cd403a315f,0,72,72,137,1,onethree,,,,,,,,,,,,,,,,,,,,,,,,,,,,,,,,,,,,,,,,,,,,,,,,,,,,,,,,,,,,,,,,,,,,,,,,,,,,,,,,,,,,,,,,,,,,,,,,,,,,,,,,,,,,,,,,,,,,,,,,,,,,,,,,,,,,,,,,,,,,,,,,,,,,,,,,,,,,,
,,,,,,60bf58fdf814d2c749a35458,62c53a4a07160c13dfb487d6,2022-07-06_09h35.27.043,Colour_Asymmetry_Pilot,2022.1.3,Win32,30.00120005,62c50e9c1127f2cd403a315f,0,73,73,49,1,onethree,,,,,,,,,,,,,,,,,,,,,,,,,,,,,,,,,,,,,,,,,,,,,,,,,,,,,,,,,,,,,,,,,,,,,,,,,,,,,,,,,,,,,,,,,,,,,,,,,,,,,,,,,,,,,,,,,,,,,,,,,,,,,,,,,,,,,,,,,,,,,,,,,,,,,,,,,,,,,
,,,,,,60bf58fdf814d2c749a35458,62c53a4a07160c13dfb487d6,2022-07-06_09h35.27.043,Colour_Asymmetry_Pilot,2022.1.3,Win32,30.00120005,62c50e9c1127f2cd403a315f,0,74,74,87,1,fourthree,,,,,,,,,,,,,,,,,,,,,,,,,,,,,,,,,,,,,,,,,,,,,,,,,,,,,,,,,,,,,,,,,,,,,,,,,,,,,,,,,,,,,,,,,,,,,,,,,,,,,,,,,,,,,,,,,,,,,,,,,,,,,,,,,,,,,,,,,,,,,,,,,,,,,,,,,,,,,
,,,,,,60bf58fdf814d2c749a35458,62c53a4a07160c13dfb487d6,2022-07-06_09h35.27.043,Colour_Asymmetry_Pilot,2022.1.3,Win32,30.00120005,62c50e9c1127f2cd403a315f,0,75,75,161,1,onethree,,,,,,,,,,,,,,,,,,,,,,,,,,,,,,,,,,,,,,,,,,,,,,,,,,,,,,,,,,,,,,,,,,,,,,,,,,,,,,,,,,,,,,,,,,,,,,,,,,,,,,,,,,,,,,,,,,,,,,,,,,,,,,,,,,,,,,,,,,,,,,,,,,,,,,,,,,,,,
,,,,,,60bf58fdf814d2c749a35458,62c53a4a07160c13dfb487d6,2022-07-06_09h35.27.043,Colour_Asymmetry_Pilot,2022.1.3,Win32,30.00120005,62c50e9c1127f2cd403a315f,0,76,76,108,1,threeone,,,,,,,,,,,,,,,,,,,,,,,,,,,,,,,,,,,,,,,,,,,,,,,,,,,,,,,,,,,,,,,,,,,,,,,,,,,,,,,,,,,,,,,,,,,,,,,,,,,,,,,,,,,,,,,,,,,,,,,,,,,,,,,,,,,,,,,,,,,,,,,,,,,,,,,,,,,,,
,,,,,,60bf58fdf814d2c749a35458,62c53a4a07160c13dfb487d6,2022-07-06_09h35.27.043,Colour_Asymmetry_Pilot,2022.1.3,Win32,30.00120005,62c50e9c1127f2cd403a315f,0,77,77,26,1,twoone,,,,,,,,,,,,,,,,,,,,,,,,,,,,,,,,,,,,,,,,,,,,,,,,,,,,,,,,,,,,,,,,,,,,,,,,,,,,,,,,,,,,,,,,,,,,,,,,,,,,,,,,,,,,,,,,,,,,,,,,,,,,,,,,,,,,,,,,,,,,,,,,,,,,,,,,,,,,,
,,,,,,60bf58fdf814d2c749a35458,62c53a4a07160c13dfb487d6,2022-07-06_09h35.27.043,Colour_Asymmetry_Pilot,2022.1.3,Win32,30.00120005,62c50e9c1127f2cd403a315f,0,78,78,134,1,fourtwo,,,,,,,,,,,,,,,,,,,,,,,,,,,,,,,,,,,,,,,,,,,,,,,,,,,,,,,,,,,,,,,,,,,,,,,,,,,,,,,,,,,,,,,,,,,,,,,,,,,,,,,,,,,,,,,,,,,,,,,,,,,,,,,,,,,,,,,,,,,,,,,,,,,,,,,,,,,,,
,,,,,,60bf58fdf814d2c749a35458,62c53a4a07160c13dfb487d6,2022-07-06_09h35.27.043,Colour_Asymmetry_Pilot,2022.1.3,Win32,30.00120005,62c50e9c1127f2cd403a315f,0,79,79,142,1,fourtwo,,,,,,,,,,,,,,,,,,,,,,,,,,,,,,,,,,,,,,,,,,,,,,,,,,,,,,,,,,,,,,,,,,,,,,,,,,,,,,,,,,,,,,,,,,,,,,,,,,,,,,,,,,,,,,,,,,,,,,,,,,,,,,,,,,,,,,,,,,,,,,,,,,,,,,,,,,,,,
,,,,,,60bf58fdf814d2c749a35458,62c53a4a07160c13dfb487d6,2022-07-06_09h35.27.043,Colour_Asymmetry_Pilot,2022.1.3,Win32,30.00120005,62c50e9c1127f2cd403a315f,0,80,80,57,1,onethree,,,,,,,,,,,,,,,,,,,,,,,,,,,,,,,,,,,,,,,,,,,,,,,,,,,,,,,,,,,,,,,,,,,,,,,,,,,,,,,,,,,,,,,,,,,,,,,,,,,,,,,,,,,,,,,,,,,,,,,,,,,,,,,,,,,,,,,,,,,,,,,,,,,,,,,,,,,,,
,,,,,,60bf58fdf814d2c749a35458,62c53a4a07160c13dfb487d6,2022-07-06_09h35.27.043,Colour_Asymmetry_Pilot,2022.1.3,Win32,30.00120005,62c50e9c1127f2cd403a315f,0,81,81,46,1,fourtwo,,,,,,,,,,,,,,,,,,,,,,,,,,,,,,,,,,,,,,,,,,,,,,,,,,,,,,,,,,,,,,,,,,,,,,,,,,,,,,,,,,,,,,,,,,,,,,,,,,,,,,,,,,,,,,,,,,,,,,,,,,,,,,,,,,,,,,,,,,,,,,,,,,,,,,,,,,,,,
,,,,,,60bf58fdf814d2c749a35458,62c53a4a07160c13dfb487d6,2022-07-06_09h35.27.043,Colour_Asymmetry_Pilot,2022.1.3,Win32,30.00120005,62c50e9c1127f2cd403a315f,0,82,82,151,1,fourthree,,,,,,,,,,,,,,,,,,,,,,,,,,,,,,,,,,,,,,,,,,,,,,,,,,,,,,,,,,,,,,,,,,,,,,,,,,,,,,,,,,,,,,,,,,,,,,,,,,,,,,,,,,,,,,,,,,,,,,,,,,,,,,,,,,,,,,,,,,,,,,,,,,,,,,,,,,,,,
,,,,,,60bf58fdf814d2c749a35458,62c53a4a07160c13dfb487d6,2022-07-06_09h35.27.043,Colour_Asymmetry_Pilot,2022.1.3,Win32,30.00120005,62c50e9c1127f2cd403a315f,0,83,83,21,1,threefour,,,,,,,,,,,,,,,,,,,,,,,,,,,,,,,,,,,,,,,,,,,,,,,,,,,,,,,,,,,,,,,,,,,,,,,,,,,,,,,,,,,,,,,,,,,,,,,,,,,,,,,,,,,,,,,,,,,,,,,,,,,,,,,,,,,,,,,,,,,,,,,,,,,,,,,,,,,,,
,,,,,,60bf58fdf814d2c749a35458,62c53a4a07160c13dfb487d6,2022-07-06_09h35.27.043,Colour_Asymmetry_Pilot,2022.1.3,Win32,30.00120005,62c50e9c1127f2cd403a315f,0,84,84,69,1,threefour,,,,,,,,,,,,,,,,,,,,,,,,,,,,,,,,,,,,,,,,,,,,,,,,,,,,,,,,,,,,,,,,,,,,,,,,,,,,,,,,,,,,,,,,,,,,,,,,,,,,,,,,,,,,,,,,,,,,,,,,,,,,,,,,,,,,,,,,,,,,,,,,,,,,,,,,,,,,,
,,,,,,60bf58fdf814d2c749a35458,62c53a4a07160c13dfb487d6,2022-07-06_09h35.27.043,Colour_Asymmetry_Pilot,2022.1.3,Win32,30.00120005,62c50e9c1127f2cd403a315f,0,85,85,85,1,threefour,,,,,,,,,,,,,,,,,,,,,,,,,,,,,,,,,,,,,,,,,,,,,,,,,,,,,,,,,,,,,,,,,,,,,,,,,,,,,,,,,,,,,,,,,,,,,,,,,,,,,,,,,,,,,,,,,,,,,,,,,,,,,,,,,,,,,,,,,,,,,,,,,,,,,,,,,,,,,
,,,,,,60bf58fdf814d2c749a35458,62c53a4a07160c13dfb487d6,2022-07-06_09h35.27.043,Colour_Asymmetry_Pilot,2022.1.3,Win32,30.00120005,62c50e9c1127f2cd403a315f,0,86,86,14,1,fourtwo,,,,,,,,,,,,,,,,,,,,,,,,,,,,,,,,,,,,,,,,,,,,,,,,,,,,,,,,,,,,,,,,,,,,,,,,,,,,,,,,,,,,,,,,,,,,,,,,,,,,,,,,,,,,,,,,,,,,,,,,,,,,,,,,,,,,,,,,,,,,,,,,,,,,,,,,,,,,,
,,,,,,60bf58fdf814d2c749a35458,62c53a4a07160c13dfb487d6,2022-07-06_09h35.27.043,Colour_Asymmetry_Pilot,2022.1.3,Win32,30.00120005,62c50e9c1127f2cd403a315f,0,87,87,6,1,fourtwo,,,,,,,,,,,,,,,,,,,,,,,,,,,,,,,,,,,,,,,,,,,,,,,,,,,,,,,,,,,,,,,,,,,,,,,,,,,,,,,,,,,,,,,,,,,,,,,,,,,,,,,,,,,,,,,,,,,,,,,,,,,,,,,,,,,,,,,,,,,,,,,,,,,,,,,,,,,,,
,,,,,,60bf58fdf814d2c749a35458,62c53a4a07160c13dfb487d6,2022-07-06_09h35.27.043,Colour_Asymmetry_Pilot,2022.1.3,Win32,30.00120005,62c50e9c1127f2cd403a315f,0,88,88,34,1,twoone,,,,,,,,,,,,,,,,,,,,,,,,,,,,,,,,,,,,,,,,,,,,,,,,,,,,,,,,,,,,,,,,,,,,,,,,,,,,,,,,,,,,,,,,,,,,,,,,,,,,,,,,,,,,,,,,,,,,,,,,,,,,,,,,,,,,,,,,,,,,,,,,,,,,,,,,,,,,,
,,,,,,60bf58fdf814d2c749a35458,62c53a4a07160c13dfb487d6,2022-07-06_09h35.27.043,Colour_Asymmetry_Pilot,2022.1.3,Win32,30.00120005,62c50e9c1127f2cd403a315f,0,89,89,8,1,onetwo,,,,,,,,,,,,,,,,,,,,,,,,,,,,,,,,,,,,,,,,,,,,,,,,,,,,,,,,,,,,,,,,,,,,,,,,,,,,,,,,,,,,,,,,,,,,,,,,,,,,,,,,,,,,,,,,,,,,,,,,,,,,,,,,,,,,,,,,,,,,,,,,,,,,,,,,,,,,,
,,,,,,60bf58fdf814d2c749a35458,62c53a4a07160c13dfb487d6,2022-07-06_09h35.27.043,Colour_Asymmetry_Pilot,2022.1.3,Win32,30.00120005,62c50e9c1127f2cd403a315f,0,90,90,35,1,twofour,,,,,,,,,,,,,,,,,,,,,,,,,,,,,,,,,,,,,,,,,,,,,,,,,,,,,,,,,,,,,,,,,,,,,,,,,,,,,,,,,,,,,,,,,,,,,,,,,,,,,,,,,,,,,,,,,,,,,,,,,,,,,,,,,,,,,,,,,,,,,,,,,,,,,,,,,,,,,
,,,,,,60bf58fdf814d2c749a35458,62c53a4a07160c13dfb487d6,2022-07-06_09h35.27.043,Colour_Asymmetry_Pilot,2022.1.3,Win32,30.00120005,62c50e9c1127f2cd403a315f,0,91,91,155,1,twofour,,,,,,,,,,,,,,,,,,,,,,,,,,,,,,,,,,,,,,,,,,,,,,,,,,,,,,,,,,,,,,,,,,,,,,,,,,,,,,,,,,,,,,,,,,,,,,,,,,,,,,,,,,,,,,,,,,,,,,,,,,,,,,,,,,,,,,,,,,,,,,,,,,,,,,,,,,,,,
,,,,,,60bf58fdf814d2c749a35458,62c53a4a07160c13dfb487d6,2022-07-06_09h35.27.043,Colour_Asymmetry_Pilot,2022.1.3,Win32,30.00120005,62c50e9c1127f2cd403a315f,0,92,92,30,1,fourtwo,,,,,,,,,,,,,,,,,,,,,,,,,,,,,,,,,,,,,,,,,,,,,,,,,,,,,,,,,,,,,,,,,,,,,,,,,,,,,,,,,,,,,,,,,,,,,,,,,,,,,,,,,,,,,,,,,,,,,,,,,,,,,,,,,,,,,,,,,,,,,,,,,,,,,,,,,,,,,
,,,,,,60bf58fdf814d2c749a35458,62c53a4a07160c13dfb487d6,2022-07-06_09h35.27.043,Colour_Asymmetry_Pilot,2022.1.3,Win32,30.00120005,62c50e9c1127f2cd403a315f,0,93,93,109,1,threefour,,,,,,,,,,,,,,,,,,,,,,,,,,,,,,,,,,,,,,,,,,,,,,,,,,,,,,,,,,,,,,,,,,,,,,,,,,,,,,,,,,,,,,,,,,,,,,,,,,,,,,,,,,,,,,,,,,,,,,,,,,,,,,,,,,,,,,,,,,,,,,,,,,,,,,,,,,,,,
,,,,,,60bf58fdf814d2c749a35458,62c53a4a07160c13dfb487d6,2022-07-06_09h35.27.043,Colour_Asymmetry_Pilot,2022.1.3,Win32,30.00120005,62c50e9c1127f2cd403a315f,0,94,94,143,1,fourthree,,,,,,,,,,,,,,,,,,,,,,,,,,,,,,,,,,,,,,,,,,,,,,,,,,,,,,,,,,,,,,,,,,,,,,,,,,,,,,,,,,,,,,,,,,,,,,,,,,,,,,,,,,,,,,,,,,,,,,,,,,,,,,,,,,,,,,,,,,,,,,,,,,,,,,,,,,,,,
,,,,,,60bf58fdf814d2c749a35458,62c53a4a07160c13dfb487d6,2022-07-06_09h35.27.043,Colour_Asymmetry_Pilot,2022.1.3,Win32,30.00120005,62c50e9c1127f2cd403a315f,0,95,95,3,1,twofour,,,,,,,,,,,,,,,,,,,,,,,,,,,,,,,,,,,,,,,,,,,,,,,,,,,,,,,,,,,,,,,,,,,,,,,,,,,,,,,,,,,,,,,,,,,,,,,,,,,,,,,,,,,,,,,,,,,,,,,,,,,,,,,,,,,,,,,,,,,,,,,,,,,,,,,,,,,,,
,,,,,,60bf58fdf814d2c749a35458,62c53a4a07160c13dfb487d6,2022-07-06_09h35.27.043,Colour_Asymmetry_Pilot,2022.1.3,Win32,30.00120005,62c50e9c1127f2cd403a315f,0,96,96,105,1,onethree,,,,,,,,,,,,,,,,,,,,,,,,,,,,,,,,,,,,,,,,,,,,,,,,,,,,,,,,,,,,,,,,,,,,,,,,,,,,,,,,,,,,,,,,,,,,,,,,,,,,,,,,,,,,,,,,,,,,,,,,,,,,,,,,,,,,,,,,,,,,,,,,,,,,,,,,,,,,,
,,,,,,60bf58fdf814d2c749a35458,62c53a4a07160c13dfb487d6,2022-07-06_09h35.27.043,Colour_Asymmetry_Pilot,2022.1.3,Win32,30.00120005,62c50e9c1127f2cd403a315f,0,97,97,25,1,onethree,,,,,,,,,,,,,,,,,,,,,,,,,,,,,,,,,,,,,,,,,,,,,,,,,,,,,,,,,,,,,,,,,,,,,,,,,,,,,,,,,,,,,,,,,,,,,,,,,,,,,,,,,,,,,,,,,,,,,,,,,,,,,,,,,,,,,,,,,,,,,,,,,,,,,,,,,,,,,
,,,,,,60bf58fdf814d2c749a35458,62c53a4a07160c13dfb487d6,2022-07-06_09h35.27.043,Colour_Asymmetry_Pilot,2022.1.3,Win32,30.00120005,62c50e9c1127f2cd403a315f,0,98,98,22,1,fourtwo,,,,,,,,,,,,,,,,,,,,,,,,,,,,,,,,,,,,,,,,,,,,,,,,,,,,,,,,,,,,,,,,,,,,,,,,,,,,,,,,,,,,,,,,,,,,,,,,,,,,,,,,,,,,,,,,,,,,,,,,,,,,,,,,,,,,,,,,,,,,,,,,,,,,,,,,,,,,,
,,,,,,60bf58fdf814d2c749a35458,62c53a4a07160c13dfb487d6,2022-07-06_09h35.27.043,Colour_Asymmetry_Pilot,2022.1.3,Win32,30.00120005,62c50e9c1127f2cd403a315f,0,99,99,59,1,twofour,,,,,,,,,,,,,,,,,,,,,,,,,,,,,,,,,,,,,,,,,,,,,,,,,,,,,,,,,,,,,,,,,,,,,,,,,,,,,,,,,,,,,,,,,,,,,,,,,,,,,,,,,,,,,,,,,,,,,,,,,,,,,,,,,,,,,,,,,,,,,,,,,,,,,,,,,,,,,
,,,,,,60bf58fdf814d2c749a35458,62c53a4a07160c13dfb487d6,2022-07-06_09h35.27.043,Colour_Asymmetry_Pilot,2022.1.3,Win32,30.00120005,62c50e9c1127f2cd403a315f,0,100,100,24,1,onetwo,,,,,,,,,,,,,,,,,,,,,,,,,,,,,,,,,,,,,,,,,,,,,,,,,,,,,,,,,,,,,,,,,,,,,,,,,,,,,,,,,,,,,,,,,,,,,,,,,,,,,,,,,,,,,,,,,,,,,,,,,,,,,,,,,,,,,,,,,,,,,,,,,,,,,,,,,,,,,
,,,,,,60bf58fdf814d2c749a35458,62c53a4a07160c13dfb487d6,2022-07-06_09h35.27.043,Colour_Asymmetry_Pilot,2022.1.3,Win32,30.00120005,62c50e9c1127f2cd403a315f,0,101,101,124,1,threeone,,,,,,,,,,,,,,,,,,,,,,,,,,,,,,,,,,,,,,,,,,,,,,,,,,,,,,,,,,,,,,,,,,,,,,,,,,,,,,,,,,,,,,,,,,,,,,,,,,,,,,,,,,,,,,,,,,,,,,,,,,,,,,,,,,,,,,,,,,,,,,,,,,,,,,,,,,,,,
,,,,,,60bf58fdf814d2c749a35458,62c53a4a07160c13dfb487d6,2022-07-06_09h35.27.043,Colour_Asymmetry_Pilot,2022.1.3,Win32,30.00120005,62c50e9c1127f2cd403a315f,0,102,102,4,1,threeone,,,,,,,,,,,,,,,,,,,,,,,,,,,,,,,,,,,,,,,,,,,,,,,,,,,,,,,,,,,,,,,,,,,,,,,,,,,,,,,,,,,,,,,,,,,,,,,,,,,,,,,,,,,,,,,,,,,,,,,,,,,,,,,,,,,,,,,,,,,,,,,,,,,,,,,,,,,,,
,,,,,,60bf58fdf814d2c749a35458,62c53a4a07160c13dfb487d6,2022-07-06_09h35.27.043,Colour_Asymmetry_Pilot,2022.1.3,Win32,30.00120005,62c50e9c1127f2cd403a315f,0,103,103,41,1,onethree,,,,,,,,,,,,,,,,,,,,,,,,,,,,,,,,,,,,,,,,,,,,,,,,,,,,,,,,,,,,,,,,,,,,,,,,,,,,,,,,,,,,,,,,,,,,,,,,,,,,,,,,,,,,,,,,,,,,,,,,,,,,,,,,,,,,,,,,,,,,,,,,,,,,,,,,,,,,,
,,,,,,60bf58fdf814d2c749a35458,62c53a4a07160c13dfb487d6,2022-07-06_09h35.27.043,Colour_Asymmetry_Pilot,2022.1.3,Win32,30.00120005,62c50e9c1127f2cd403a315f,0,104,104,127,1,fourthree,,,,,,,,,,,,,,,,,,,,,,,,,,,,,,,,,,,,,,,,,,,,,,,,,,,,,,,,,,,,,,,,,,,,,,,,,,,,,,,,,,,,,,,,,,,,,,,,,,,,,,,,,,,,,,,,,,,,,,,,,,,,,,,,,,,,,,,,,,,,,,,,,,,,,,,,,,,,,
,,,,,,60bf58fdf814d2c749a35458,62c53a4a07160c13dfb487d6,2022-07-06_09h35.27.043,Colour_Asymmetry_Pilot,2022.1.3,Win32,30.00120005,62c50e9c1127f2cd403a315f,0,105,105,36,1,threeone,,,,,,,,,,,,,,,,,,,,,,,,,,,,,,,,,,,,,,,,,,,,,,,,,,,,,,,,,,,,,,,,,,,,,,,,,,,,,,,,,,,,,,,,,,,,,,,,,,,,,,,,,,,,,,,,,,,,,,,,,,,,,,,,,,,,,,,,,,,,,,,,,,,,,,,,,,,,,
,,,,,,60bf58fdf814d2c749a35458,62c53a4a07160c13dfb487d6,2022-07-06_09h35.27.043,Colour_Asymmetry_Pilot,2022.1.3,Win32,30.00120005,62c50e9c1127f2cd403a315f,0,106,106,67,1,twofour,,,,,,,,,,,,,,,,,,,,,,,,,,,,,,,,,,,,,,,,,,,,,,,,,,,,,,,,,,,,,,,,,,,,,,,,,,,,,,,,,,,,,,,,,,,,,,,,,,,,,,,,,,,,,,,,,,,,,,,,,,,,,,,,,,,,,,,,,,,,,,,,,,,,,,,,,,,,,
,,,,,,60bf58fdf814d2c749a35458,62c53a4a07160c13dfb487d6,2022-07-06_09h35.27.043,Colour_Asymmetry_Pilot,2022.1.3,Win32,30.00120005,62c50e9c1127f2cd403a315f,0,107,107,111,1,fourthree,,,,,,,,,,,,,,,,,,,,,,,,,,,,,,,,,,,,,,,,,,,,,,,,,,,,,,,,,,,,,,,,,,,,,,,,,,,,,,,,,,,,,,,,,,,,,,,,,,,,,,,,,,,,,,,,,,,,,,,,,,,,,,,,,,,,,,,,,,,,,,,,,,,,,,,,,,,,,
,,,,,,60bf58fdf814d2c749a35458,62c53a4a07160c13dfb487d6,2022-07-06_09h35.27.043,Colour_Asymmetry_Pilot,2022.1.3,Win32,30.00120005,62c50e9c1127f2cd403a315f,0,108,108,13,1,threefour,,,,,,,,,,,,,,,,,,,,,,,,,,,,,,,,,,,,,,,,,,,,,,,,,,,,,,,,,,,,,,,,,,,,,,,,,,,,,,,,,,,,,,,,,,,,,,,,,,,,,,,,,,,,,,,,,,,,,,,,,,,,,,,,,,,,,,,,,,,,,,,,,,,,,,,,,,,,,
,,,,,,60bf58fdf814d2c749a35458,62c53a4a07160c13dfb487d6,2022-07-06_09h35.27.043,Colour_Asymmetry_Pilot,2022.1.3,Win32,30.00120005,62c50e9c1127f2cd403a315f,0,109,109,71,1,fourthree,,,,,,,,,,,,,,,,,,,,,,,,,,,,,,,,,,,,,,,,,,,,,,,,,,,,,,,,,,,,,,,,,,,,,,,,,,,,,,,,,,,,,,,,,,,,,,,,,,,,,,,,,,,,,,,,,,,,,,,,,,,,,,,,,,,,,,,,,,,,,,,,,,,,,,,,,,,,,
,,,,,,60bf58fdf814d2c749a35458,62c53a4a07160c13dfb487d6,2022-07-06_09h35.27.043,Colour_Asymmetry_Pilot,2022.1.3,Win32,30.00120005,62c50e9c1127f2cd403a315f,0,110,110,147,1,twofour,,,,,,,,,,,,,,,,,,,,,,,,,,,,,,,,,,,,,,,,,,,,,,,,,,,,,,,,,,,,,,,,,,,,,,,,,,,,,,,,,,,,,,,,,,,,,,,,,,,,,,,,,,,,,,,,,,,,,,,,,,,,,,,,,,,,,,,,,,,,,,,,,,,,,,,,,,,,,
,,,,,,60bf58fdf814d2c749a35458,62c53a4a07160c13dfb487d6,2022-07-06_09h35.27.043,Colour_Asymmetry_Pilot,2022.1.3,Win32,30.00120005,62c50e9c1127f2cd403a315f,0,111,111,156,1,threeone,,,,,,,,,,,,,,,,,,,,,,,,,,,,,,,,,,,,,,,,,,,,,,,,,,,,,,,,,,,,,,,,,,,,,,,,,,,,,,,,,,,,,,,,,,,,,,,,,,,,,,,,,,,,,,,,,,,,,,,,,,,,,,,,,,,,,,,,,,,,,,,,,,,,,,,,,,,,,
,,,,,,60bf58fdf814d2c749a35458,62c53a4a07160c13dfb487d6,2022-07-06_09h35.27.043,Colour_Asymmetry_Pilot,2022.1.3,Win32,30.00120005,62c50e9c1127f2cd403a315f,0,112,112,28,1,threeone,,,,,,,,,,,,,,,,,,,,,,,,,,,,,,,,,,,,,,,,,,,,,,,,,,,,,,,,,,,,,,,,,,,,,,,,,,,,,,,,,,,,,,,,,,,,,,,,,,,,,,,,,,,,,,,,,,,,,,,,,,,,,,,,,,,,,,,,,,,,,,,,,,,,,,,,,,,,,
,,,,,,60bf58fdf814d2c749a35458,62c53a4a07160c13dfb487d6,2022-07-06_09h35.27.043,Colour_Asymmetry_Pilot,2022.1.3,Win32,30.00120005,62c50e9c1127f2cd403a315f,0,113,113,52,1,threeone,,,,,,,,,,,,,,,,,,,,,,,,,,,,,,,,,,,,,,,,,,,,,,,,,,,,,,,,,,,,,,,,,,,,,,,,,,,,,,,,,,,,,,,,,,,,,,,,,,,,,,,,,,,,,,,,,,,,,,,,,,,,,,,,,,,,,,,,,,,,,,,,,,,,,,,,,,,,,
,,,,,,60bf58fdf814d2c749a35458,62c53a4a07160c13dfb487d6,2022-07-06_09h35.27.043,Colour_Asymmetry_Pilot,2022.1.3,Win32,30.00120005,62c50e9c1127f2cd403a315f,0,114,114,68,1,threeone,,,,,,,,,,,,,,,,,,,,,,,,,,,,,,,,,,,,,,,,,,,,,,,,,,,,,,,,,,,,,,,,,,,,,,,,,,,,,,,,,,,,,,,,,,,,,,,,,,,,,,,,,,,,,,,,,,,,,,,,,,,,,,,,,,,,,,,,,,,,,,,,,,,,,,,,,,,,,
,,,,,,60bf58fdf814d2c749a35458,62c53a4a07160c13dfb487d6,2022-07-06_09h35.27.043,Colour_Asymmetry_Pilot,2022.1.3,Win32,30.00120005,62c50e9c1127f2cd403a315f,0,115,115,119,1,fourthree,,,,,,,,,,,,,,,,,,,,,,,,,,,,,,,,,,,,,,,,,,,,,,,,,,,,,,,,,,,,,,,,,,,,,,,,,,,,,,,,,,,,,,,,,,,,,,,,,,,,,,,,,,,,,,,,,,,,,,,,,,,,,,,,,,,,,,,,,,,,,,,,,,,,,,,,,,,,,
,,,,,,60bf58fdf814d2c749a35458,62c53a4a07160c13dfb487d6,2022-07-06_09h35.27.043,Colour_Asymmetry_Pilot,2022.1.3,Win32,30.00120005,62c50e9c1127f2cd403a315f,0,116,116,157,1,threefour,,,,,,,,,,,,,,,,,,,,,,,,,,,,,,,,,,,,,,,,,,,,,,,,,,,,,,,,,,,,,,,,,,,,,,,,,,,,,,,,,,,,,,,,,,,,,,,,,,,,,,,,,,,,,,,,,,,,,,,,,,,,,,,,,,,,,,,,,,,,,,,,,,,,,,,,,,,,,
,,,,,,60bf58fdf814d2c749a35458,62c53a4a07160c13dfb487d6,2022-07-06_09h35.27.043,Colour_Asymmetry_Pilot,2022.1.3,Win32,30.00120005,62c50e9c1127f2cd403a315f,0,117,117,94,1,fourtwo,,,,,,,,,,,,,,,,,,,,,,,,,,,,,,,,,,,,,,,,,,,,,,,,,,,,,,,,,,,,,,,,,,,,,,,,,,,,,,,,,,,,,,,,,,,,,,,,,,,,,,,,,,,,,,,,,,,,,,,,,,,,,,,,,,,,,,,,,,,,,,,,,,,,,,,,,,,,,
,,,,,,60bf58fdf814d2c749a35458,62c53a4a07160c13dfb487d6,2022-07-06_09h35.27.043,Colour_Asymmetry_Pilot,2022.1.3,Win32,30.00120005,62c50e9c1127f2cd403a315f,0,118,118,160,1,onetwo,,,,,,,,,,,,,,,,,,,,,,,,,,,,,,,,,,,,,,,,,,,,,,,,,,,,,,,,,,,,,,,,,,,,,,,,,,,,,,,,,,,,,,,,,,,,,,,,,,,,,,,,,,,,,,,,,,,,,,,,,,,,,,,,,,,,,,,,,,,,,,,,,,,,,,,,,,,,,
,,,,,,60bf58fdf814d2c749a35458,62c53a4a07160c13dfb487d6,2022-07-06_09h35.27.043,Colour_Asymmetry_Pilot,2022.1.3,Win32,30.00120005,62c50e9c1127f2cd403a315f,0,119,119,47,1,fourthree,,,,,,,,,,,,,,,,,,,,,,,,,,,,,,,,,,,,,,,,,,,,,,,,,,,,,,,,,,,,,,,,,,,,,,,,,,,,,,,,,,,,,,,,,,,,,,,,,,,,,,,,,,,,,,,,,,,,,,,,,,,,,,,,,,,,,,,,,,,,,,,,,,,,,,,,,,,,,
,,,,,,60bf58fdf814d2c749a35458,62c53a4a07160c13dfb487d6,2022-07-06_09h35.27.043,Colour_Asymmetry_Pilot,2022.1.3,Win32,30.00120005,62c50e9c1127f2cd403a315f,0,120,120,42,1,twoone,,,,,,,,,,,,,,,,,,,,,,,,,,,,,,,,,,,,,,,,,,,,,,,,,,,,,,,,,,,,,,,,,,,,,,,,,,,,,,,,,,,,,,,,,,,,,,,,,,,,,,,,,,,,,,,,,,,,,,,,,,,,,,,,,,,,,,,,,,,,,,,,,,,,,,,,,,,,,
,,,,,,60bf58fdf814d2c749a35458,62c53a4a07160c13dfb487d6,2022-07-06_09h35.27.043,Colour_Asymmetry_Pilot,2022.1.3,Win32,30.00120005,62c50e9c1127f2cd403a315f,0,121,121,116,1,threeone,,,,,,,,,,,,,,,,,,,,,,,,,,,,,,,,,,,,,,,,,,,,,,,,,,,,,,,,,,,,,,,,,,,,,,,,,,,,,,,,,,,,,,,,,,,,,,,,,,,,,,,,,,,,,,,,,,,,,,,,,,,,,,,,,,,,,,,,,,,,,,,,,,,,,,,,,,,,,
,,,,,,60bf58fdf814d2c749a35458,62c53a4a07160c13dfb487d6,2022-07-06_09h35.27.043,Colour_Asymmetry_Pilot,2022.1.3,Win32,30.00120005,62c50e9c1127f2cd403a315f,0,122,122,31,1,fourthree,,,,,,,,,,,,,,,,,,,,,,,,,,,,,,,,,,,,,,,,,,,,,,,,,,,,,,,,,,,,,,,,,,,,,,,,,,,,,,,,,,,,,,,,,,,,,,,,,,,,,,,,,,,,,,,,,,,,,,,,,,,,,,,,,,,,,,,,,,,,,,,,,,,,,,,,,,,,,
,,,,,,60bf58fdf814d2c749a35458,62c53a4a07160c13dfb487d6,2022-07-06_09h35.27.043,Colour_Asymmetry_Pilot,2022.1.3,Win32,30.00120005,62c50e9c1127f2cd403a315f,0,123,123,152,1,onetwo,,,,,,,,,,,,,,,,,,,,,,,,,,,,,,,,,,,,,,,,,,,,,,,,,,,,,,,,,,,,,,,,,,,,,,,,,,,,,,,,,,,,,,,,,,,,,,,,,,,,,,,,,,,,,,,,,,,,,,,,,,,,,,,,,,,,,,,,,,,,,,,,,,,,,,,,,,,,,
,,,,,,60bf58fdf814d2c749a35458,62c53a4a07160c13dfb487d6,2022-07-06_09h35.27.043,Colour_Asymmetry_Pilot,2022.1.3,Win32,30.00120005,62c50e9c1127f2cd403a315f,0,124,124,117,1,threefour,,,,,,,,,,,,,,,,,,,,,,,,,,,,,,,,,,,,,,,,,,,,,,,,,,,,,,,,,,,,,,,,,,,,,,,,,,,,,,,,,,,,,,,,,,,,,,,,,,,,,,,,,,,,,,,,,,,,,,,,,,,,,,,,,,,,,,,,,,,,,,,,,,,,,,,,,,,,,
,,,,,,60bf58fdf814d2c749a35458,62c53a4a07160c13dfb487d6,2022-07-06_09h35.27.043,Colour_Asymmetry_Pilot,2022.1.3,Win32,30.00120005,62c50e9c1127f2cd403a315f,0,125,125,29,1,threefour,,,,,,,,,,,,,,,,,,,,,,,,,,,,,,,,,,,,,,,,,,,,,,,,,,,,,,,,,,,,,,,,,,,,,,,,,,,,,,,,,,,,,,,,,,,,,,,,,,,,,,,,,,,,,,,,,,,,,,,,,,,,,,,,,,,,,,,,,,,,,,,,,,,,,,,,,,,,,
,,,,,,60bf58fdf814d2c749a35458,62c53a4a07160c13dfb487d6,2022-07-06_09h35.27.043,Colour_Asymmetry_Pilot,2022.1.3,Win32,30.00120005,62c50e9c1127f2cd403a315f,0,126,126,89,1,onethree,,,,,,,,,,,,,,,,,,,,,,,,,,,,,,,,,,,,,,,,,,,,,,,,,,,,,,,,,,,,,,,,,,,,,,,,,,,,,,,,,,,,,,,,,,,,,,,,,,,,,,,,,,,,,,,,,,,,,,,,,,,,,,,,,,,,,,,,,,,,,,,,,,,,,,,,,,,,,
,,,,,,60bf58fdf814d2c749a35458,62c53a4a07160c13dfb487d6,2022-07-06_09h35.27.043,Colour_Asymmetry_Pilot,2022.1.3,Win32,30.00120005,62c50e9c1127f2cd403a315f,0,127,127,58,1,twoone,,,,,,,,,,,,,,,,,,,,,,,,,,,,,,,,,,,,,,,,,,,,,,,,,,,,,,,,,,,,,,,,,,,,,,,,,,,,,,,,,,,,,,,,,,,,,,,,,,,,,,,,,,,,,,,,,,,,,,,,,,,,,,,,,,,,,,,,,,,,,,,,,,,,,,,,,,,,,
,,,,,,60bf58fdf814d2c749a35458,62c53a4a07160c13dfb487d6,2022-07-06_09h35.27.043,Colour_Asymmetry_Pilot,2022.1.3,Win32,30.00120005,62c50e9c1127f2cd403a315f,0,128,128,140,1,threeone,,,,,,,,,,,,,,,,,,,,,,,,,,,,,,,,,,,,,,,,,,,,,,,,,,,,,,,,,,,,,,,,,,,,,,,,,,,,,,,,,,,,,,,,,,,,,,,,,,,,,,,,,,,,,,,,,,,,,,,,,,,,,,,,,,,,,,,,,,,,,,,,,,,,,,,,,,,,,
,,,,,,60bf58fdf814d2c749a35458,62c53a4a07160c13dfb487d6,2022-07-06_09h35.27.043,Colour_Asymmetry_Pilot,2022.1.3,Win32,30.00120005,62c50e9c1127f2cd403a315f,0,129,129,27,1,twofour,,,,,,,,,,,,,,,,,,,,,,,,,,,,,,,,,,,,,,,,,,,,,,,,,,,,,,,,,,,,,,,,,,,,,,,,,,,,,,,,,,,,,,,,,,,,,,,,,,,,,,,,,,,,,,,,,,,,,,,,,,,,,,,,,,,,,,,,,,,,,,,,,,,,,,,,,,,,,
,,,,,,60bf58fdf814d2c749a35458,62c53a4a07160c13dfb487d6,2022-07-06_09h35.27.043,Colour_Asymmetry_Pilot,2022.1.3,Win32,30.00120005,62c50e9c1127f2cd403a315f,0,130,130,126,1,fourtwo,,,,,,,,,,,,,,,,,,,,,,,,,,,,,,,,,,,,,,,,,,,,,,,,,,,,,,,,,,,,,,,,,,,,,,,,,,,,,,,,,,,,,,,,,,,,,,,,,,,,,,,,,,,,,,,,,,,,,,,,,,,,,,,,,,,,,,,,,,,,,,,,,,,,,,,,,,,,,
,,,,,,60bf58fdf814d2c749a35458,62c53a4a07160c13dfb487d6,2022-07-06_09h35.27.043,Colour_Asymmetry_Pilot,2022.1.3,Win32,30.00120005,62c50e9c1127f2cd403a315f,0,131,131,122,1,twoone,,,,,,,,,,,,,,,,,,,,,,,,,,,,,,,,,,,,,,,,,,,,,,,,,,,,,,,,,,,,,,,,,,,,,,,,,,,,,,,,,,,,,,,,,,,,,,,,,,,,,,,,,,,,,,,,,,,,,,,,,,,,,,,,,,,,,,,,,,,,,,,,,,,,,,,,,,,,,
,,,,,,60bf58fdf814d2c749a35458,62c53a4a07160c13dfb487d6,2022-07-06_09h35.27.043,Colour_Asymmetry_Pilot,2022.1.3,Win32,30.00120005,62c50e9c1127f2cd403a315f,0,132,132,98,1,twoone,,,,,,,,,,,,,,,,,,,,,,,,,,,,,,,,,,,,,,,,,,,,,,,,,,,,,,,,,,,,,,,,,,,,,,,,,,,,,,,,,,,,,,,,,,,,,,,,,,,,,,,,,,,,,,,,,,,,,,,,,,,,,,,,,,,,,,,,,,,,,,,,,,,,,,,,,,,,,
,,,,,,60bf58fdf814d2c749a35458,62c53a4a07160c13dfb487d6,2022-07-06_09h35.27.043,Colour_Asymmetry_Pilot,2022.1.3,Win32,30.00120005,62c50e9c1127f2cd403a315f,0,133,133,72,1,onetwo,,,,,,,,,,,,,,,,,,,,,,,,,,,,,,,,,,,,,,,,,,,,,,,,,,,,,,,,,,,,,,,,,,,,,,,,,,,,,,,,,,,,,,,,,,,,,,,,,,,,,,,,,,,,,,,,,,,,,,,,,,,,,,,,,,,,,,,,,,,,,,,,,,,,,,,,,,,,,
,,,,,,60bf58fdf814d2c749a35458,62c53a4a07160c13dfb487d6,2022-07-06_09h35.27.043,Colour_Asymmetry_Pilot,2022.1.3,Win32,30.00120005,62c50e9c1127f2cd403a315f,0,134,134,23,1,fourthree,,,,,,,,,,,,,,,,,,,,,,,,,,,,,,,,,,,,,,,,,,,,,,,,,,,,,,,,,,,,,,,,,,,,,,,,,,,,,,,,,,,,,,,,,,,,,,,,,,,,,,,,,,,,,,,,,,,,,,,,,,,,,,,,,,,,,,,,,,,,,,,,,,,,,,,,,,,,,
,,,,,,60bf58fdf814d2c749a35458,62c53a4a07160c13dfb487d6,2022-07-06_09h35.27.043,Colour_Asymmetry_Pilot,2022.1.3,Win32,30.00120005,62c50e9c1127f2cd403a315f,0,135,135,82,1,twoone,,,,,,,,,,,,,,,,,,,,,,,,,,,,,,,,,,,,,,,,,,,,,,,,,,,,,,,,,,,,,,,,,,,,,,,,,,,,,,,,,,,,,,,,,,,,,,,,,,,,,,,,,,,,,,,,,,,,,,,,,,,,,,,,,,,,,,,,,,,,,,,,,,,,,,,,,,,,,
,,,,,,60bf58fdf814d2c749a35458,62c53a4a07160c13dfb487d6,2022-07-06_09h35.27.043,Colour_Asymmetry_Pilot,2022.1.3,Win32,30.00120005,62c50e9c1127f2cd403a315f,0,136,136,77,1,threefour,,,,,,,,,,,,,,,,,,,,,,,,,,,,,,,,,,,,,,,,,,,,,,,,,,,,,,,,,,,,,,,,,,,,,,,,,,,,,,,,,,,,,,,,,,,,,,,,,,,,,,,,,,,,,,,,,,,,,,,,,,,,,,,,,,,,,,,,,,,,,,,,,,,,,,,,,,,,,
,,,,,,60bf58fdf814d2c749a35458,62c53a4a07160c13dfb487d6,2022-07-06_09h35.27.043,Colour_Asymmetry_Pilot,2022.1.3,Win32,30.00120005,62c50e9c1127f2cd403a315f,0,137,137,37,1,threefour,,,,,,,,,,,,,,,,,,,,,,,,,,,,,,,,,,,,,,,,,,,,,,,,,,,,,,,,,,,,,,,,,,,,,,,,,,,,,,,,,,,,,,,,,,,,,,,,,,,,,,,,,,,,,,,,,,,,,,,,,,,,,,,,,,,,,,,,,,,,,,,,,,,,,,,,,,,,,
,,,,,,60bf58fdf814d2c749a35458,62c53a4a07160c13dfb487d6,2022-07-06_09h35.27.043,Colour_Asymmetry_Pilot,2022.1.3,Win32,30.00120005,62c50e9c1127f2cd403a315f,0,138,138,20,1,threeone,,,,,,,,,,,,,,,,,,,,,,,,,,,,,,,,,,,,,,,,,,,,,,,,,,,,,,,,,,,,,,,,,,,,,,,,,,,,,,,,,,,,,,,,,,,,,,,,,,,,,,,,,,,,,,,,,,,,,,,,,,,,,,,,,,,,,,,,,,,,,,,,,,,,,,,,,,,,,
,,,,,,60bf58fdf814d2c749a35458,62c53a4a07160c13dfb487d6,2022-07-06_09h35.27.043,Colour_Asymmetry_Pilot,2022.1.3,Win32,30.00120005,62c50e9c1127f2cd403a315f,0,139,139,91,1,twofour,,,,,,,,,,,,,,,,,,,,,,,,,,,,,,,,,,,,,,,,,,,,,,,,,,,,,,,,,,,,,,,,,,,,,,,,,,,,,,,,,,,,,,,,,,,,,,,,,,,,,,,,,,,,,,,,,,,,,,,,,,,,,,,,,,,,,,,,,,,,,,,,,,,,,,,,,,,,,
,,,,,,60bf58fdf814d2c749a35458,62c53a4a07160c13dfb487d6,2022-07-06_09h35.27.043,Colour_Asymmetry_Pilot,2022.1.3,Win32,30.00120005,62c50e9c1127f2cd403a315f,0,140,140,150,1,fourtwo,,,,,,,,,,,,,,,,,,,,,,,,,,,,,,,,,,,,,,,,,,,,,,,,,,,,,,,,,,,,,,,,,,,,,,,,,,,,,,,,,,,,,,,,,,,,,,,,,,,,,,,,,,,,,,,,,,,,,,,,,,,,,,,,,,,,,,,,,,,,,,,,,,,,,,,,,,,,,
,,,,,,60bf58fdf814d2c749a35458,62c53a4a07160c13dfb487d6,2022-07-06_09h35.27.043,Colour_Asymmetry_Pilot,2022.1.3,Win32,30.00120005,62c50e9c1127f2cd403a315f,0,141,141,121,1,onethree,,,,,,,,,,,,,,,,,,,,,,,,,,,,,,,,,,,,,,,,,,,,,,,,,,,,,,,,,,,,,,,,,,,,,,,,,,,,,,,,,,,,,,,,,,,,,,,,,,,,,,,,,,,,,,,,,,,,,,,,,,,,,,,,,,,,,,,,,,,,,,,,,,,,,,,,,,,,,
,,,,,,60bf58fdf814d2c749a35458,62c53a4a07160c13dfb487d6,2022-07-06_09h35.27.043,Colour_Asymmetry_Pilot,2022.1.3,Win32,30.00120005,62c50e9c1127f2cd403a315f,0,142,142,45,1,threefour,,,,,,,,,,,,,,,,,,,,,,,,,,,,,,,,,,,,,,,,,,,,,,,,,,,,,,,,,,,,,,,,,,,,,,,,,,,,,,,,,,,,,,,,,,,,,,,,,,,,,,,,,,,,,,,,,,,,,,,,,,,,,,,,,,,,,,,,,,,,,,,,,,,,,,,,,,,,,
,,,,,,60bf58fdf814d2c749a35458,62c53a4a07160c13dfb487d6,2022-07-06_09h35.27.043,Colour_Asymmetry_Pilot,2022.1.3,Win32,30.00120005,62c50e9c1127f2cd403a315f,0,143,143,18,1,twoone,,,,,,,,,,,,,,,,,,,,,,,,,,,,,,,,,,,,,,,,,,,,,,,,,,,,,,,,,,,,,,,,,,,,,,,,,,,,,,,,,,,,,,,,,,,,,,,,,,,,,,,,,,,,,,,,,,,,,,,,,,,,,,,,,,,,,,,,,,,,,,,,,,,,,,,,,,,,,
,,,,,,60bf58fdf814d2c749a35458,62c53a4a07160c13dfb487d6,2022-07-06_09h35.27.043,Colour_Asymmetry_Pilot,2022.1.3,Win32,30.00120005,62c50e9c1127f2cd403a315f,0,144,144,40,1,onetwo,,,,,,,,,,,,,,,,,,,,,,,,,,,,,,,,,,,,,,,,,,,,,,,,,,,,,,,,,,,,,,,,,,,,,,,,,,,,,,,,,,,,,,,,,,,,,,,,,,,,,,,,,,,,,,,,,,,,,,,,,,,,,,,,,,,,,,,,,,,,,,,,,,,,,,,,,,,,,
,,,,,,60bf58fdf814d2c749a35458,62c53a4a07160c13dfb487d6,2022-07-06_09h35.27.043,Colour_Asymmetry_Pilot,2022.1.3,Win32,30.00120005,62c50e9c1127f2cd403a315f,0,145,145,103,1,fourthree,,,,,,,,,,,,,,,,,,,,,,,,,,,,,,,,,,,,,,,,,,,,,,,,,,,,,,,,,,,,,,,,,,,,,,,,,,,,,,,,,,,,,,,,,,,,,,,,,,,,,,,,,,,,,,,,,,,,,,,,,,,,,,,,,,,,,,,,,,,,,,,,,,,,,,,,,,,,,
,,,,,,60bf58fdf814d2c749a35458,62c53a4a07160c13dfb487d6,2022-07-06_09h35.27.043,Colour_Asymmetry_Pilot,2022.1.3,Win32,30.00120005,62c50e9c1127f2cd403a315f,0,146,146,2,1,twoone,,,,,,,,,,,,,,,,,,,,,,,,,,,,,,,,,,,,,,,,,,,,,,,,,,,,,,,,,,,,,,,,,,,,,,,,,,,,,,,,,,,,,,,,,,,,,,,,,,,,,,,,,,,,,,,,,,,,,,,,,,,,,,,,,,,,,,,,,,,,,,,,,,,,,,,,,,,,,
,,,,,,60bf58fdf814d2c749a35458,62c53a4a07160c13dfb487d6,2022-07-06_09h35.27.043,Colour_Asymmetry_Pilot,2022.1.3,Win32,30.00120005,62c50e9c1127f2cd403a315f,0,147,147,93,1,threefour,,,,,,,,,,,,,,,,,,,,,,,,,,,,,,,,,,,,,,,,,,,,,,,,,,,,,,,,,,,,,,,,,,,,,,,,,,,,,,,,,,,,,,,,,,,,,,,,,,,,,,,,,,,,,,,,,,,,,,,,,,,,,,,,,,,,,,,,,,,,,,,,,,,,,,,,,,,,,
,,,,,,60bf58fdf814d2c749a35458,62c53a4a07160c13dfb487d6,2022-07-06_09h35.27.043,Colour_Asymmetry_Pilot,2022.1.3,Win32,30.00120005,62c50e9c1127f2cd403a315f,0,148,148,106,1,twoone,,,,,,,,,,,,,,,,,,,,,,,,,,,,,,,,,,,,,,,,,,,,,,,,,,,,,,,,,,,,,,,,,,,,,,,,,,,,,,,,,,,,,,,,,,,,,,,,,,,,,,,,,,,,,,,,,,,,,,,,,,,,,,,,,,,,,,,,,,,,,,,,,,,,,,,,,,,,,
,,,,,,60bf58fdf814d2c749a35458,62c53a4a07160c13dfb487d6,2022-07-06_09h35.27.043,Colour_Asymmetry_Pilot,2022.1.3,Win32,30.00120005,62c50e9c1127f2cd403a315f,0,149,149,118,1,fourtwo,,,,,,,,,,,,,,,,,,,,,,,,,,,,,,,,,,,,,,,,,,,,,,,,,,,,,,,,,,,,,,,,,,,,,,,,,,,,,,,,,,,,,,,,,,,,,,,,,,,,,,,,,,,,,,,,,,,,,,,,,,,,,,,,,,,,,,,,,,,,,,,,,,,,,,,,,,,,,
,,,,,,60bf58fdf814d2c749a35458,62c53a4a07160c13dfb487d6,2022-07-06_09h35.27.043,Colour_Asymmetry_Pilot,2022.1.3,Win32,30.00120005,62c50e9c1127f2cd403a315f,0,150,150,19,1,twofour,,,,,,,,,,,,,,,,,,,,,,,,,,,,,,,,,,,,,,,,,,,,,,,,,,,,,,,,,,,,,,,,,,,,,,,,,,,,,,,,,,,,,,,,,,,,,,,,,,,,,,,,,,,,,,,,,,,,,,,,,,,,,,,,,,,,,,,,,,,,,,,,,,,,,,,,,,,,,
,,,,,,60bf58fdf814d2c749a35458,62c53a4a07160c13dfb487d6,2022-07-06_09h35.27.043,Colour_Asymmetry_Pilot,2022.1.3,Win32,30.00120005,62c50e9c1127f2cd403a315f,0,151,151,44,1,threeone,,,,,,,,,,,,,,,,,,,,,,,,,,,,,,,,,,,,,,,,,,,,,,,,,,,,,,,,,,,,,,,,,,,,,,,,,,,,,,,,,,,,,,,,,,,,,,,,,,,,,,,,,,,,,,,,,,,,,,,,,,,,,,,,,,,,,,,,,,,,,,,,,,,,,,,,,,,,,
,,,,,,60bf58fdf814d2c749a35458,62c53a4a07160c13dfb487d6,2022-07-06_09h35.27.043,Colour_Asymmetry_Pilot,2022.1.3,Win32,30.00120005,62c50e9c1127f2cd403a315f,0,152,152,33,1,onethree,,,,,,,,,,,,,,,,,,,,,,,,,,,,,,,,,,,,,,,,,,,,,,,,,,,,,,,,,,,,,,,,,,,,,,,,,,,,,,,,,,,,,,,,,,,,,,,,,,,,,,,,,,,,,,,,,,,,,,,,,,,,,,,,,,,,,,,,,,,,,,,,,,,,,,,,,,,,,
,,,,,,60bf58fdf814d2c749a35458,62c53a4a07160c13dfb487d6,2022-07-06_09h35.27.043,Colour_Asymmetry_Pilot,2022.1.3,Win32,30.00120005,62c50e9c1127f2cd403a315f,0,153,153,79,1,fourthree,,,,,,,,,,,,,,,,,,,,,,,,,,,,,,,,,,,,,,,,,,,,,,,,,,,,,,,,,,,,,,,,,,,,,,,,,,,,,,,,,,,,,,,,,,,,,,,,,,,,,,,,,,,,,,,,,,,,,,,,,,,,,,,,,,,,,,,,,,,,,,,,,,,,,,,,,,,,,
,,,,,,60bf58fdf814d2c749a35458,62c53a4a07160c13dfb487d6,2022-07-06_09h35.27.043,Colour_Asymmetry_Pilot,2022.1.3,Win32,30.00120005,62c50e9c1127f2cd403a315f,0,154,154,112,1,onetwo,,,,,,,,,,,,,,,,,,,,,,,,,,,,,,,,,,,,,,,,,,,,,,,,,,,,,,,,,,,,,,,,,,,,,,,,,,,,,,,,,,,,,,,,,,,,,,,,,,,,,,,,,,,,,,,,,,,,,,,,,,,,,,,,,,,,,,,,,,,,,,,,,,,,,,,,,,,,,
,,,,,,60bf58fdf814d2c749a35458,62c53a4a07160c13dfb487d6,2022-07-06_09h35.27.043,Colour_Asymmetry_Pilot,2022.1.3,Win32,30.00120005,62c50e9c1127f2cd403a315f,0,155,155,115,1,twofour,,,,,,,,,,,,,,,,,,,,,,,,,,,,,,,,,,,,,,,,,,,,,,,,,,,,,,,,,,,,,,,,,,,,,,,,,,,,,,,,,,,,,,,,,,,,,,,,,,,,,,,,,,,,,,,,,,,,,,,,,,,,,,,,,,,,,,,,,,,,,,,,,,,,,,,,,,,,,
,,,,,,60bf58fdf814d2c749a35458,62c53a4a07160c13dfb487d6,2022-07-06_09h35.27.043,Colour_Asymmetry_Pilot,2022.1.3,Win32,30.00120005,62c50e9c1127f2cd403a315f,0,156,156,123,1,twofour,,,,,,,,,,,,,,,,,,,,,,,,,,,,,,,,,,,,,,,,,,,,,,,,,,,,,,,,,,,,,,,,,,,,,,,,,,,,,,,,,,,,,,,,,,,,,,,,,,,,,,,,,,,,,,,,,,,,,,,,,,,,,,,,,,,,,,,,,,,,,,,,,,,,,,,,,,,,,
,,,,,,60bf58fdf814d2c749a35458,62c53a4a07160c13dfb487d6,2022-07-06_09h35.27.043,Colour_Asymmetry_Pilot,2022.1.3,Win32,30.00120005,62c50e9c1127f2cd403a315f,0,157,157,146,1,twoone,,,,,,,,,,,,,,,,,,,,,,,,,,,,,,,,,,,,,,,,,,,,,,,,,,,,,,,,,,,,,,,,,,,,,,,,,,,,,,,,,,,,,,,,,,,,,,,,,,,,,,,,,,,,,,,,,,,,,,,,,,,,,,,,,,,,,,,,,,,,,,,,,,,,,,,,,,,,,
,,,,,,60bf58fdf814d2c749a35458,62c53a4a07160c13dfb487d6,2022-07-06_09h35.27.043,Colour_Asymmetry_Pilot,2022.1.3,Win32,30.00120005,62c50e9c1127f2cd403a315f,0,158,158,132,1,threeone,,,,,,,,,,,,,,,,,,,,,,,,,,,,,,,,,,,,,,,,,,,,,,,,,,,,,,,,,,,,,,,,,,,,,,,,,,,,,,,,,,,,,,,,,,,,,,,,,,,,,,,,,,,,,,,,,,,,,,,,,,,,,,,,,,,,,,,,,,,,,,,,,,,,,,,,,,,,,
,,,,,,60bf58fdf814d2c749a35458,62c53a4a07160c13dfb487d6,2022-07-06_09h35.27.043,Colour_Asymmetry_Pilot,2022.1.3,Win32,30.00120005,62c50e9c1127f2cd403a315f,0,159,159,128,1,onetwo,,,,,,,,,,,,,,,,,,,,,,,,,,,,,,,,,,,,,,,,,,,,,,,,,,,,,,,,,,,,,,,,,,,,,,,,,,,,,,,,,,,,,,,,,,,,,,,,,,,,,,,,,,,,,,,,,,,,,,,,,,,,,,,,,,,,,,,,,,,,,,,,,,,,,,,,,,,,,
,,,,,,60bf58fdf814d2c749a35458,62c53a4a07160c13dfb487d6,2022-07-06_09h35.27.043,Colour_Asymmetry_Pilot,2022.1.3,Win32,30.00120005,62c50e9c1127f2cd403a315f,0,160,160,55,1,fourthree,,,,,,,,,,,,,,,,,,,,,,,,,,,,,,,,,,,,,,,,,,,,,,,,,,,,,,,,,,,,,,,,,,,,,,,,,,,,,,,,,,,,,,,,,,,,,,,,,,,,,,,,,,,,,,,,,,,,,,,,,,,,,,,,,,,,,,,,,,,,,,,,,,,,,,,,,,,,,
,,,,,,60bf58fdf814d2c749a35458,62c53a4a07160c13dfb487d6,2022-07-06_09h35.27.043,Colour_Asymmetry_Pilot,2022.1.3,Win32,30.00120005,62c50e9c1127f2cd403a315f,0,161,161,1,1,onethree,,,,,,,,,,,,,,,,,,,,,,,,,,,,,,,,,,,,,,,,,,,,,,,,,,,,,,,,,,,,,,,,,,,,,,,,,,,,,,,,,,,,,,,,,,,,,,,,,,,,,,,,,,,,,,,,,,,,,,,,,,,,,,,,,,,,,,,,,,,,,,,,,,,,,,,,,,,,,
,,,,,,60bf58fdf814d2c749a35458,62c53a4a07160c13dfb487d6,2022-07-06_09h35.27.043,Colour_Asymmetry_Pilot,2022.1.3,Win32,30.00120005,62c50e9c1127f2cd403a315f,,,,,,,space,8.117,space,9.857,space,37.337,space,20.415,space,7.582,space,8.616,"[-0.4982,-0.2942,-0.0354000000000001]",fourtwo,"[0.5528,0.7409999999999999,-0.71]",4,30.486,29,68,1,0,0,response1disk_5,-10,3,1,0,0,rectangle_8,-10,3,1,0,0,1,-10,3,1,0,0,0,0,0,0,1,,,,,,,,,,,,,,,,,,,,,,,,,,,,,,,,,,,,,,,,,,,,,,,,,,,,,,,,,,,,,,,,,,,,,,,,,,,,,,,,,,,,,,,,,,,,,,,,,,,,,,,,,,,,,,,,
,,,,,,60bf58fdf814d2c749a35458,62c53a4a07160c13dfb487d6,2022-07-06_09h35.27.043,Colour_Asymmetry_Pilot,2022.1.3,Win32,30.00120005,62c50e9c1127f2cd403a315f,,,,,,,,,,,,,,,,,,,"[0.0351999999999999,0.41159999999999997,0.0038000000000000256]",twoone,"[0.3881999999999999,-0.23939999999999995,-0.05040000000000011]",-4,4.516,-37,91,1,0,0,response7disk_5,-4,-7,1,0,0,rectangle_8,-4,-7,1,0,0,1,-4,-7,1,0,0,1,0,1,0,1,,,,,,,,,,,,,,,,,,,,,,,,,,,,,,,,,,,,,,,,,,,,,,,,,,,,,,,,,,,,,,,,,,,,,,,,,,,,,,,,,,,,,,,,,,,,,,,,,,,,,,,,,,,,,,,,
,,,,,,60bf58fdf814d2c749a35458,62c53a4a07160c13dfb487d6,2022-07-06_09h35.27.043,Colour_Asymmetry_Pilot,2022.1.3,Win32,30.00120005,62c50e9c1127f2cd403a315f,,,,,,,,,,,,,,,,,,,"[-0.6235999999999999,-0.6786,-0.08239999999999992]",fourthree,"[-0.26280000000000003,-0.4746,-0.2158]",-3,5.351,-66,30,1,0,0,response7disk_5,2,3,1,0,0,rectangle_8,31,-87,1,0,0,1,1,-2,1,0,0,2,0,2,0,1,response3disk_7,4,rectangle_4,,,,,,,,,,,,,,,,,,,,,,,,,,,,,,,,,,,,,,,,,,,,,,,,,,,,,,,,,,,,,,,,,,,,,,,,,,,,,,,,,,,,,,,,,,,,,,,,,,,,,,,,,,,,,
,,,,,,60bf58fdf814d2c749a35458,62c53a4a07160c13dfb487d6,2022-07-06_09h35.27.043,Colour_Asymmetry_Pilot,2022.1.3,Win32,30.00120005,62c50e9c1127f2cd403a315f,,,,,,,,,,,,,,,,,,,"[0.8115999999999999,-0.0040000000000000036,-0.09819999999999995]",twoone,"[1,0.12939999999999996,-1]",-3,3.597,-62,36,1,0,0,response7disk_5,19,7,1,0,0,rectangle_8,19,7,1,0,0,1,19,7,1,0,0,3,0,3,0,1,,,,,,,,,,,,,,,,,,,,,,,,,,,,,,,,,,,,,,,,,,,,,,,,,,,,,,,,,,,,,,,,,,,,,,,,,,,,,,,,,,,,,,,,,,,,,,,,,,,,,,,,,,,,,,,,
,,,,,,60bf58fdf814d2c749a35458,62c53a4a07160c13dfb487d6,2022-07-06_09h35.27.043,Colour_Asymmetry_Pilot,2022.1.3,Win32,30.00120005,62c50e9c1127f2cd403a315f,,,,,,,,,,,,,,,,,,,"[0.9686000000000001,0.3802000000000001,0.19999999999999996]",onetwo,"[0.0351999999999999,0.41159999999999997,0.0038000000000000256]",-4,2.072,-31,50,1,0,0,response7disk_5,21,1,1,0,0,rectangle_8,68,-88,1,0,0,1,-20,-3,1,0,0,4,0,4,0,1,response3disk_7,4,rectangle_4,,,,,,,,,,,,,,,,,,,,,,,,,,,,,,,,,,,,,,,,,,,,,,,,,,,,,,,,,,,,,,,,,,,,,,,,,,,,,,,,,,,,,,,,,,,,,,,,,,,,,,,,,,,,,
,,,,,,60bf58fdf814d2c749a35458,62c53a4a07160c13dfb487d6,2022-07-06_09h35.27.043,Colour_Asymmetry_Pilot,2022.1.3,Win32,30.00120005,62c50e9c1127f2cd403a315f,,,,,,,,,,,,,,,,,,,"[0.9686000000000001,0.3802000000000001,0.19999999999999996]",fourtwo,"[-0.26280000000000003,-0.4746,-0.2158]",-4,1.721,-40,80,1,0,0,response7disk_5,1,-3,1,0,0,rectangle_8,1,-3,1,0,0,1,1,-3,1,0,0,5,0,5,0,1,,,,,,,,,,,,,,,,,,,,,,,,,,,,,,,,,,,,,,,,,,,,,,,,,,,,,,,,,,,,,,,,,,,,,,,,,,,,,,,,,,,,,,,,,,,,,,,,,,,,,,,,,,,,,,,,
,,,,,,60bf58fdf814d2c749a35458,62c53a4a07160c13dfb487d6,2022-07-06_09h35.27.043,Colour_Asymmetry_Pilot,2022.1.3,Win32,30.00120005,62c50e9c1127f2cd403a315f,,,,,,,,,,,,,,,,,,,"[-0.01980000000000004,-0.5138,-0.38039999999999996]",threeone,"[-0.38039999999999996,-0.4276,-0.1452]",-2,4.074,-89,-35,1,0,0,response5disk_5,14,-6,1,0,0,rectangle_8,14,-6,1,0,0,1,14,-6,1,0,0,6,0,6,0,1,,,,,,,,,,,,,,,,,,,,,,,,,,,,,,,,,,,,,,,,,,,,,,,,,,,,,,,,,,,,,,,,,,,,,,,,,,,,,,,,,,,,,,,,,,,,,,,,,,,,,,,,,,,,,,,,
,,,,,,60bf58fdf814d2c749a35458,62c53a4a07160c13dfb487d6,2022-07-06_09h35.27.043,Colour_Asymmetry_Pilot,2022.1.3,Win32,30.00120005,62c50e9c1127f2cd403a315f,,,,,,,,,,,,,,,,,,,,onetwo,,-4,1.064,,,,,,,,,,,,,,,,,,,,,,,,,,,,,,,,space,6.39,"[0.34099999999999997,0.5841999999999998,-0.9844]","[0.8274000000000001,-0.5844,-0.9452]",-38,64,1,0,0,response7disk,-4,2,1,0,0,rectangle,-4,2,1,0,0,,3,0.004,0,-4,2,1,0,0,0,0,0,18,1,18,first,,,,,,,,,,,,,,,,,,,,,,,,,,,,,,,,,,,,,,,,,,,,,,,,,,,,,,,,,,,,,,,,,,,,,,,,
,,,,,,60bf58fdf814d2c749a35458,62c53a4a07160c13dfb487d6,2022-07-06_09h35.27.043,Colour_Asymmetry_Pilot,2022.1.3,Win32,30.00120005,62c50e9c1127f2cd403a315f,,,,,,,,,,,,,,,,,,,,fourthree,,-4,3.286,,,,,,,,,,,,,,,,,,,,,,,,,,,,,,,,,,"[-0.4276,0.0038000000000000256,-0.3256]","[0.7176,-0.906,-0.6864]",-39,54,1,0,0,response7disk,-4,2,1,0,0,rectangle,-4,2,1,0,0,,3,0,0,-4,2,1,0,0,0,1,1,100,1,19,second,,,,,,,,,,,,,,,,,,,,,,,,,,,,,,,,,,,,,,,,,,,,,,,,,,,,,,,,,,,,,,,,,,,,,,,,
,,,,,,60bf58fdf814d2c749a35458,62c53a4a07160c13dfb487d6,2022-07-06_09h35.27.043,Colour_Asymmetry_Pilot,2022.1.3,Win32,30.00120005,62c50e9c1127f2cd403a315f,,,,,,,,,,,,,,,,,,,,fourtwo,,-4,2.244,,,,,,,,,,,,,,,,,,,,,,,,,,,,,,,,,,"[0.34099999999999997,0.12939999999999996,-0.9766]","[-0.5688,-0.08239999999999992,-0.1844]",-55,64,1,0,0,response7disk,-2,-5,1,0,0,rectangle,-2,-5,1,0,0,,2,0.003,0,-2,-5,1,0,0,0,2,2,33,1,33,first,,,,,,,,,,,,,,,,,,,,,,,,,,,,,,,,,,,,,,,,,,,,,,,,,,,,,,,,,,,,,,,,,,,,,,,,
,,,,,,60bf58fdf814d2c749a35458,62c53a4a07160c13dfb487d6,2022-07-06_09h35.27.043,Colour_Asymmetry_Pilot,2022.1.3,Win32,30.00120005,62c50e9c1127f2cd403a315f,,,,,,,,,,,,,,,,,,,,twofour,,-4,1.848,,,,,,,,,,,,,,,,,,,,,,,,,,,,,,,,,,"[-0.6235999999999999,-0.6786,-0.08239999999999992]","[-0.07459999999999989,0.12139999999999995,-0.9922]",-36,58,1,0,0,response7disk,-7,7,1,0,0,rectangle,-7,7,1,0,0,,2,0,0,-7,7,1,0,0,0,3,3,82,1,1,second,,,,,,,,,,,,,,,,,,,,,,,,,,,,,,,,,,,,,,,,,,,,,,,,,,,,,,,,,,,,,,,,,,,,,,,,
,,,,,,60bf58fdf814d2c749a35458,62c53a4a07160c13dfb487d6,2022-07-06_09h35.27.043,Colour_Asymmetry_Pilot,2022.1.3,Win32,30.00120005,62c50e9c1127f2cd403a315f,,,,,,,,,,,,,,,,,,,,threefour,,-4,1.423,,,,,,,,,,,,,,,,,,,,,,,,,,,,,,,,,,"[0.7802,-0.23140000000000005,-0.20799999999999996]","[0.9213999999999998,0.6391999999999998,-0.9922]",-42,81,1,0,0,response7disk,-2,-3,1,0,0,rectangle,-2,-3,1,0,0,,1,0.001,0,-2,-3,1,0,0,0,4,4,47,1,47,first,,,,,,,,,,,,,,,,,,,,,,,,,,,,,,,,,,,,,,,,,,,,,,,,,,,,,,,,,,,,,,,,,,,,,,,,
,,,,,,60bf58fdf814d2c749a35458,62c53a4a07160c13dfb487d6,2022-07-06_09h35.27.043,Colour_Asymmetry_Pilot,2022.1.3,Win32,30.00120005,62c50e9c1127f2cd403a315f,,,,,,,,,,,,,,,,,,,,twofour,,-4,2.072,,,,,,,,,,,,,,,,,,,,,,,,,,,,,,,,,,"[0.6547999999999998,-0.043199999999999905,-0.011800000000000033]","[-0.48240000000000005,0.3175999999999999,0.2156]",-37,41,1,0,0,response7disk,-3,-7,1,0,0,rectangle,-3,-7,1,0,0,,3,0.002,0,-3,-7,1,0,0,0,5,5,14,1,14,first,,,,,,,,,,,,,,,,,,,,,,,,,,,,,,,,,,,,,,,,,,,,,,,,,,,,,,,,,,,,,,,,,,,,,,,,
,,,,,,60bf58fdf814d2c749a35458,62c53a4a07160c13dfb487d6,2022-07-06_09h35.27.043,Colour_Asymmetry_Pilot,2022.1.3,Win32,30.00120005,62c50e9c1127f2cd403a315f,,,,,,,,,,,,,,,,,,,,twoone,,-3,1.544,,,,,,,,,,,,,,,,,,,,,,,,,,,,,,,,,,"[-0.9688,-0.7412000000000001,-0.4902000000000001]","[-0.5688,-0.08239999999999992,-0.1844]",-67,47,1,0,0,response7disk,-4,6,1,0,0,rectangle,-4,6,1,0,0,,1,0.001,0,-4,6,1,0,0,0,6,6,59,1,59,first,,,,,,,,,,,,,,,,,,,,,,,,,,,,,,,,,,,,,,,,,,,,,,,,,,,,,,,,,,,,,,,,,,,,,,,,
,,,,,,60bf58fdf814d2c749a35458,62c53a4a07160c13dfb487d6,2022-07-06_09h35.27.043,Colour_Asymmetry_Pilot,2022.1.3,Win32,30.00120005,62c50e9c1127f2cd403a315f,,,,,,,,,,,,,,,,,,,,twoone,,-4,1.142,,,,,,,,,,,,,,,,,,,,,,,,,,,,,,,,,,"[0.9763999999999999,0.30979999999999985,-0.6786]","[0.9372,0.9450000000000001,0.8980000000000001]",-38,72,1,0,0,response7disk,4,-2,1,0,0,rectangle,4,-2,1,0,0,,3,0.002,0,4,-2,1,0,0,0,7,7,68,1,68,first,,,,,,,,,,,,,,,,,,,,,,,,,,,,,,,,,,,,,,,,,,,,,,,,,,,,,,,,,,,,,,,,,,,,,,,,
,,,,,,60bf58fdf814d2c749a35458,62c53a4a07160c13dfb487d6,2022-07-06_09h35.27.043,Colour_Asymmetry_Pilot,2022.1.3,Win32,30.00120005,62c50e9c1127f2cd403a315f,,,,,,,,,,,,,,,,,,,,twofour,,-3,1.214,,,,,,,,,,,,,,,,,,,,,,,,,,,,,,,,,,"[0.3568,-0.20799999999999996,-0.9844]","[0.9686000000000001,0.5763999999999998,0.11359999999999992]",-80,26,1,0,0,response7disk,-2,-4,1,0,0,rectangle,-2,-4,1,0,0,,1,0.001,0,-2,-4,1,0,0,0,8,8,32,1,32,first,,,,,,,,,,,,,,,,,,,,,,,,,,,,,,,,,,,,,,,,,,,,,,,,,,,,,,,,,,,,,,,,,,,,,,,,
,,,,,,60bf58fdf814d2c749a35458,62c53a4a07160c13dfb487d6,2022-07-06_09h35.27.043,Colour_Asymmetry_Pilot,2022.1.3,Win32,30.00120005,62c50e9c1127f2cd403a315f,,,,,,,,,,,,,,,,,,,,fourthree,,-4,2.059,,,,,,,,,,,,,,,,,,,,,,,,,,,,,,,,,,"[0.7646000000000002,0.07440000000000002,0.2704]","[0.9686000000000001,0.5763999999999998,0.11359999999999992]",-46,65,1,0,0,response7disk,1,14,1,0,0,rectangle,1,14,1,0,0,,1,0,0,1,14,1,0,0,0,9,9,37,1,37,first,,,,,,,,,,,,,,,,,,,,,,,,,,,,,,,,,,,,,,,,,,,,,,,,,,,,,,,,,,,,,,,,,,,,,,,,
,,,,,,60bf58fdf814d2c749a35458,62c53a4a07160c13dfb487d6,2022-07-06_09h35.27.043,Colour_Asymmetry_Pilot,2022.1.3,Win32,30.00120005,62c50e9c1127f2cd403a315f,,,,,,,,,,,,,,,,,,,,fourthree,,-4,1.463,,,,,,,,,,,,,,,,,,,,,,,,,,,,,,,,,,"[0.19199999999999995,0.18419999999999992,0.5136000000000001]","[0.3881999999999999,-0.23939999999999995,-0.05040000000000011]",-35,75,1,0,0,response7disk,0,-2,1,0,0,rectangle,0,-2,1,0,0,,3,0.003,0,0,-2,1,0,0,0,10,10,53,1,53,first,,,,,,,,,,,,,,,,,,,,,,,,,,,,,,,,,,,,,,,,,,,,,,,,,,,,,,,,,,,,,,,,,,,,,,,,
,,,,,,60bf58fdf814d2c749a35458,62c53a4a07160c13dfb487d6,2022-07-06_09h35.27.043,Colour_Asymmetry_Pilot,2022.1.3,Win32,30.00120005,62c50e9c1127f2cd403a315f,,,,,,,,,,,,,,,,,,,,onetwo,,-4,0.946,,,,,,,,,,,,,,,,,,,,,,,,,,,,,,,,,,"[0.9686000000000001,0.5763999999999998,0.11359999999999992]","[-0.20799999999999996,-0.655,-0.01980000000000004]",-32,44,1,0,0,response7disk,-8,-4,1,0,0,rectangle,-8,-4,1,0,0,,2,0.002,0,-8,-4,1,0,0,0,11,11,24,1,24,first,,,,,,,,,,,,,,,,,,,,,,,,,,,,,,,,,,,,,,,,,,,,,,,,,,,,,,,,,,,,,,,,,,,,,,,,
,,,,,,60bf58fdf814d2c749a35458,62c53a4a07160c13dfb487d6,2022-07-06_09h35.27.043,Colour_Asymmetry_Pilot,2022.1.3,Win32,30.00120005,62c50e9c1127f2cd403a315f,,,,,,,,,,,,,,,,,,,,fourtwo,,4,4.709,,,,,,,,,,,,,,,,,,,,,,,,,,,,,,,,,,"[-0.6235999999999999,-0.6786,-0.08239999999999992]","[-0.6235999999999999,-0.6786,-0.08239999999999992]",30,71,1,0,0,response1disk,11,-5,1,0,0,rectangle,54,-109,1,0,0,1,1,5.106,1,-9,-11,1,0,0,0,12,12,161,1,80,second,response3disk_3,rectangle,,,,,,,,,,,,,,,,,,,,,,,,,,,,,,,,,,,,,,,,,,,,,,,,,,,,,,,,,,,,,,,,,,,,,,
,,,,,,60bf58fdf814d2c749a35458,62c53a4a07160c13dfb487d6,2022-07-06_09h35.27.043,Colour_Asymmetry_Pilot,2022.1.3,Win32,30.00120005,62c50e9c1127f2cd403a315f,,,,,,,,,,,,,,,,,,,,twofour,,-4,1.538,,,,,,,,,,,,,,,,,,,,,,,,,,,,,,,,,,"[0.9372,0.9450000000000001,0.8980000000000001]","[-0.17659999999999998,0.3253999999999999,0.19999999999999996]",-50,58,1,0,0,response7disk,-13,3,1,0,0,rectangle,-13,3,1,0,0,1,3,0.001,0,-13,3,1,0,0,0,13,13,137,1,56,second,,,,,,,,,,,,,,,,,,,,,,,,,,,,,,,,,,,,,,,,,,,,,,,,,,,,,,,,,,,,,,,,,,,,,,,,
,,,,,,60bf58fdf814d2c749a35458,62c53a4a07160c13dfb487d6,2022-07-06_09h35.27.043,Colour_Asymmetry_Pilot,2022.1.3,Win32,30.00120005,62c50e9c1127f2cd403a315f,,,,,,,,,,,,,,,,,,,,twofour,,-3,1.015,,,,,,,,,,,,,,,,,,,,,,,,,,,,,,,,,,"[-0.6942,-0.7648,-0.12959999999999994]","[-0.2942,-0.24719999999999998,-0.357]",-57,45,1,0,0,response7disk,-12,11,1,0,0,rectangle,-12,11,1,0,0,1,3,0.001,0,-12,11,1,0,0,0,14,14,62,1,62,first,,,,,,,,,,,,,,,,,,,,,,,,,,,,,,,,,,,,,,,,,,,,,,,,,,,,,,,,,,,,,,,,,,,,,,,,
,,,,,,60bf58fdf814d2c749a35458,62c53a4a07160c13dfb487d6,2022-07-06_09h35.27.043,Colour_Asymmetry_Pilot,2022.1.3,Win32,30.00120005,62c50e9c1127f2cd403a315f,,,,,,,,,,,,,,,,,,,,fourtwo,,-4,1.628,,,,,,,,,,,,,,,,,,,,,,,,,,,,,,,,,,"[-0.4276,0.0038000000000000256,-0.3256]","[0.3881999999999999,-0.23939999999999995,-0.05040000000000011]",-39,71,1,0,0,response7disk,-9,7,1,0,0,rectangle,-9,7,1,0,0,1,3,0,0,-9,7,1,0,0,0,15,15,81,1,0,second,,,,,,,,,,,,,,,,,,,,,,,,,,,,,,,,,,,,,,,,,,,,,,,,,,,,,,,,,,,,,,,,,,,,,,,,
,,,,,,60bf58fdf814d2c749a35458,62c53a4a07160c13dfb487d6,2022-07-06_09h35.27.043,Colour_Asymmetry_Pilot,2022.1.3,Win32,30.00120005,62c50e9c1127f2cd403a315f,,,,,,,,,,,,,,,,,,,,threefour,,-3,1.151,,,,,,,,,,,,,,,,,,,,,,,,,,,,,,,,,,"[0.9763999999999999,-0.1137999999999999,-0.6314]","[0.9686000000000001,0.3802000000000001,0.19999999999999996]",-64,24,1,0,0,response7disk,-27,7,1,0,0,rectangle,-27,7,1,0,0,1,2,0.001,0,-27,7,1,0,0,0,16,16,8,1,8,first,,,,,,,,,,,,,,,,,,,,,,,,,,,,,,,,,,,,,,,,,,,,,,,,,,,,,,,,,,,,,,,,,,,,,,,,
,,,,,,60bf58fdf814d2c749a35458,62c53a4a07160c13dfb487d6,2022-07-06_09h35.27.043,Colour_Asymmetry_Pilot,2022.1.3,Win32,30.00120005,62c50e9c1127f2cd403a315f,,,,,,,,,,,,,,,,,,,,onetwo,,3,1.885,,,,,,,,,,,,,,,,,,,,,,,,,,,,,,,,,,"[0.2784,-0.31000000000000005,-0.5452]","[0.3568,-0.20799999999999996,-0.9844]",73,26,1,0,0,response1disk,-9,4,1,0,0,rectangle,-9,4,1,0,0,1,1,0.001,0,-9,4,1,0,0,0,17,17,139,1,58,second,,,,,,,,,,,,,,,,,,,,,,,,,,,,,,,,,,,,,,,,,,,,,,,,,,,,,,,,,,,,,,,,,,,,,,,,
