trials.thisRepN,trials.thisTrialN,trials.thisN,trials.thisIndex,trials.ran,Colourcodes,participant,session,date,expName,psychopyVersion,OS,frameRate,study_id,trials_4.thisRepN,trials_4.thisTrialN,trials_4.thisN,trials_4.thisIndex,trials_4.ran,StimulusPos
0,0,0,43,1,,5cd7e678df739100011b1839,62bbfb3cd49be600f97778db,2022-06-29_09h22.23.080,Colour_Asymmetry_Pilot,2022.1.3,Win32,15.02133029,62bbe60bf3d75ef465d3e404,,,,,,
0,1,1,17,1,,5cd7e678df739100011b1839,62bbfb3cd49be600f97778db,2022-06-29_09h22.23.080,Colour_Asymmetry_Pilot,2022.1.3,Win32,15.02133029,62bbe60bf3d75ef465d3e404,,,,,,
0,2,2,38,1,,5cd7e678df739100011b1839,62bbfb3cd49be600f97778db,2022-06-29_09h22.23.080,Colour_Asymmetry_Pilot,2022.1.3,Win32,15.02133029,62bbe60bf3d75ef465d3e404,,,,,,
0,3,3,41,1,,5cd7e678df739100011b1839,62bbfb3cd49be600f97778db,2022-06-29_09h22.23.080,Colour_Asymmetry_Pilot,2022.1.3,Win32,15.02133029,62bbe60bf3d75ef465d3e404,,,,,,
0,4,4,87,1,,5cd7e678df739100011b1839,62bbfb3cd49be600f97778db,2022-06-29_09h22.23.080,Colour_Asymmetry_Pilot,2022.1.3,Win32,15.02133029,62bbe60bf3d75ef465d3e404,,,,,,
0,5,5,54,1,,5cd7e678df739100011b1839,62bbfb3cd49be600f97778db,2022-06-29_09h22.23.080,Colour_Asymmetry_Pilot,2022.1.3,Win32,15.02133029,62bbe60bf3d75ef465d3e404,,,,,,
0,6,6,45,1,,5cd7e678df739100011b1839,62bbfb3cd49be600f97778db,2022-06-29_09h22.23.080,Colour_Asymmetry_Pilot,2022.1.3,Win32,15.02133029,62bbe60bf3d75ef465d3e404,,,,,,
0,7,7,69,1,,5cd7e678df739100011b1839,62bbfb3cd49be600f97778db,2022-06-29_09h22.23.080,Colour_Asymmetry_Pilot,2022.1.3,Win32,15.02133029,62bbe60bf3d75ef465d3e404,,,,,,
0,8,8,90,1,,5cd7e678df739100011b1839,62bbfb3cd49be600f97778db,2022-06-29_09h22.23.080,Colour_Asymmetry_Pilot,2022.1.3,Win32,15.02133029,62bbe60bf3d75ef465d3e404,,,,,,
0,9,9,8,1,,5cd7e678df739100011b1839,62bbfb3cd49be600f97778db,2022-06-29_09h22.23.080,Colour_Asymmetry_Pilot,2022.1.3,Win32,15.02133029,62bbe60bf3d75ef465d3e404,,,,,,
0,10,10,86,1,,5cd7e678df739100011b1839,62bbfb3cd49be600f97778db,2022-06-29_09h22.23.080,Colour_Asymmetry_Pilot,2022.1.3,Win32,15.02133029,62bbe60bf3d75ef465d3e404,,,,,,
0,11,11,13,1,,5cd7e678df739100011b1839,62bbfb3cd49be600f97778db,2022-06-29_09h22.23.080,Colour_Asymmetry_Pilot,2022.1.3,Win32,15.02133029,62bbe60bf3d75ef465d3e404,,,,,,
0,12,12,3,1,,5cd7e678df739100011b1839,62bbfb3cd49be600f97778db,2022-06-29_09h22.23.080,Colour_Asymmetry_Pilot,2022.1.3,Win32,15.02133029,62bbe60bf3d75ef465d3e404,,,,,,
0,13,13,85,1,,5cd7e678df739100011b1839,62bbfb3cd49be600f97778db,2022-06-29_09h22.23.080,Colour_Asymmetry_Pilot,2022.1.3,Win32,15.02133029,62bbe60bf3d75ef465d3e404,,,,,,
0,14,14,79,1,,5cd7e678df739100011b1839,62bbfb3cd49be600f97778db,2022-06-29_09h22.23.080,Colour_Asymmetry_Pilot,2022.1.3,Win32,15.02133029,62bbe60bf3d75ef465d3e404,,,,,,
0,15,15,40,1,,5cd7e678df739100011b1839,62bbfb3cd49be600f97778db,2022-06-29_09h22.23.080,Colour_Asymmetry_Pilot,2022.1.3,Win32,15.02133029,62bbe60bf3d75ef465d3e404,,,,,,
0,16,16,92,1,,5cd7e678df739100011b1839,62bbfb3cd49be600f97778db,2022-06-29_09h22.23.080,Colour_Asymmetry_Pilot,2022.1.3,Win32,15.02133029,62bbe60bf3d75ef465d3e404,,,,,,
0,17,17,27,1,,5cd7e678df739100011b1839,62bbfb3cd49be600f97778db,2022-06-29_09h22.23.080,Colour_Asymmetry_Pilot,2022.1.3,Win32,15.02133029,62bbe60bf3d75ef465d3e404,,,,,,
0,18,18,70,1,,5cd7e678df739100011b1839,62bbfb3cd49be600f97778db,2022-06-29_09h22.23.080,Colour_Asymmetry_Pilot,2022.1.3,Win32,15.02133029,62bbe60bf3d75ef465d3e404,,,,,,
0,19,19,20,1,,5cd7e678df739100011b1839,62bbfb3cd49be600f97778db,2022-06-29_09h22.23.080,Colour_Asymmetry_Pilot,2022.1.3,Win32,15.02133029,62bbe60bf3d75ef465d3e404,,,,,,
0,20,20,30,1,,5cd7e678df739100011b1839,62bbfb3cd49be600f97778db,2022-06-29_09h22.23.080,Colour_Asymmetry_Pilot,2022.1.3,Win32,15.02133029,62bbe60bf3d75ef465d3e404,,,,,,
0,21,21,73,1,,5cd7e678df739100011b1839,62bbfb3cd49be600f97778db,2022-06-29_09h22.23.080,Colour_Asymmetry_Pilot,2022.1.3,Win32,15.02133029,62bbe60bf3d75ef465d3e404,,,,,,
0,22,22,2,1,,5cd7e678df739100011b1839,62bbfb3cd49be600f97778db,2022-06-29_09h22.23.080,Colour_Asymmetry_Pilot,2022.1.3,Win32,15.02133029,62bbe60bf3d75ef465d3e404,,,,,,
0,23,23,84,1,,5cd7e678df739100011b1839,62bbfb3cd49be600f97778db,2022-06-29_09h22.23.080,Colour_Asymmetry_Pilot,2022.1.3,Win32,15.02133029,62bbe60bf3d75ef465d3e404,,,,,,
0,24,24,28,1,,5cd7e678df739100011b1839,62bbfb3cd49be600f97778db,2022-06-29_09h22.23.080,Colour_Asymmetry_Pilot,2022.1.3,Win32,15.02133029,62bbe60bf3d75ef465d3e404,,,,,,
0,25,25,14,1,,5cd7e678df739100011b1839,62bbfb3cd49be600f97778db,2022-06-29_09h22.23.080,Colour_Asymmetry_Pilot,2022.1.3,Win32,15.02133029,62bbe60bf3d75ef465d3e404,,,,,,
0,26,26,61,1,,5cd7e678df739100011b1839,62bbfb3cd49be600f97778db,2022-06-29_09h22.23.080,Colour_Asymmetry_Pilot,2022.1.3,Win32,15.02133029,62bbe60bf3d75ef465d3e404,,,,,,
0,27,27,55,1,,5cd7e678df739100011b1839,62bbfb3cd49be600f97778db,2022-06-29_09h22.23.080,Colour_Asymmetry_Pilot,2022.1.3,Win32,15.02133029,62bbe60bf3d75ef465d3e404,,,,,,
0,28,28,78,1,,5cd7e678df739100011b1839,62bbfb3cd49be600f97778db,2022-06-29_09h22.23.080,Colour_Asymmetry_Pilot,2022.1.3,Win32,15.02133029,62bbe60bf3d75ef465d3e404,,,,,,
0,29,29,56,1,,5cd7e678df739100011b1839,62bbfb3cd49be600f97778db,2022-06-29_09h22.23.080,Colour_Asymmetry_Pilot,2022.1.3,Win32,15.02133029,62bbe60bf3d75ef465d3e404,,,,,,
0,30,30,11,1,,5cd7e678df739100011b1839,62bbfb3cd49be600f97778db,2022-06-29_09h22.23.080,Colour_Asymmetry_Pilot,2022.1.3,Win32,15.02133029,62bbe60bf3d75ef465d3e404,,,,,,
0,31,31,47,1,,5cd7e678df739100011b1839,62bbfb3cd49be600f97778db,2022-06-29_09h22.23.080,Colour_Asymmetry_Pilot,2022.1.3,Win32,15.02133029,62bbe60bf3d75ef465d3e404,,,,,,
0,32,32,1,1,,5cd7e678df739100011b1839,62bbfb3cd49be600f97778db,2022-06-29_09h22.23.080,Colour_Asymmetry_Pilot,2022.1.3,Win32,15.02133029,62bbe60bf3d75ef465d3e404,,,,,,
0,33,33,42,1,,5cd7e678df739100011b1839,62bbfb3cd49be600f97778db,2022-06-29_09h22.23.080,Colour_Asymmetry_Pilot,2022.1.3,Win32,15.02133029,62bbe60bf3d75ef465d3e404,,,,,,
0,34,34,32,1,,5cd7e678df739100011b1839,62bbfb3cd49be600f97778db,2022-06-29_09h22.23.080,Colour_Asymmetry_Pilot,2022.1.3,Win32,15.02133029,62bbe60bf3d75ef465d3e404,,,,,,
0,35,35,68,1,,5cd7e678df739100011b1839,62bbfb3cd49be600f97778db,2022-06-29_09h22.23.080,Colour_Asymmetry_Pilot,2022.1.3,Win32,15.02133029,62bbe60bf3d75ef465d3e404,,,,,,
0,36,36,58,1,,5cd7e678df739100011b1839,62bbfb3cd49be600f97778db,2022-06-29_09h22.23.080,Colour_Asymmetry_Pilot,2022.1.3,Win32,15.02133029,62bbe60bf3d75ef465d3e404,,,,,,
0,37,37,49,1,,5cd7e678df739100011b1839,62bbfb3cd49be600f97778db,2022-06-29_09h22.23.080,Colour_Asymmetry_Pilot,2022.1.3,Win32,15.02133029,62bbe60bf3d75ef465d3e404,,,,,,
0,38,38,74,1,,5cd7e678df739100011b1839,62bbfb3cd49be600f97778db,2022-06-29_09h22.23.080,Colour_Asymmetry_Pilot,2022.1.3,Win32,15.02133029,62bbe60bf3d75ef465d3e404,,,,,,
0,39,39,9,1,,5cd7e678df739100011b1839,62bbfb3cd49be600f97778db,2022-06-29_09h22.23.080,Colour_Asymmetry_Pilot,2022.1.3,Win32,15.02133029,62bbe60bf3d75ef465d3e404,,,,,,
0,40,40,83,1,,5cd7e678df739100011b1839,62bbfb3cd49be600f97778db,2022-06-29_09h22.23.080,Colour_Asymmetry_Pilot,2022.1.3,Win32,15.02133029,62bbe60bf3d75ef465d3e404,,,,,,
0,41,41,59,1,,5cd7e678df739100011b1839,62bbfb3cd49be600f97778db,2022-06-29_09h22.23.080,Colour_Asymmetry_Pilot,2022.1.3,Win32,15.02133029,62bbe60bf3d75ef465d3e404,,,,,,
0,42,42,60,1,,5cd7e678df739100011b1839,62bbfb3cd49be600f97778db,2022-06-29_09h22.23.080,Colour_Asymmetry_Pilot,2022.1.3,Win32,15.02133029,62bbe60bf3d75ef465d3e404,,,,,,
0,43,43,12,1,,5cd7e678df739100011b1839,62bbfb3cd49be600f97778db,2022-06-29_09h22.23.080,Colour_Asymmetry_Pilot,2022.1.3,Win32,15.02133029,62bbe60bf3d75ef465d3e404,,,,,,
0,44,44,34,1,,5cd7e678df739100011b1839,62bbfb3cd49be600f97778db,2022-06-29_09h22.23.080,Colour_Asymmetry_Pilot,2022.1.3,Win32,15.02133029,62bbe60bf3d75ef465d3e404,,,,,,
0,45,45,21,1,,5cd7e678df739100011b1839,62bbfb3cd49be600f97778db,2022-06-29_09h22.23.080,Colour_Asymmetry_Pilot,2022.1.3,Win32,15.02133029,62bbe60bf3d75ef465d3e404,,,,,,
0,46,46,67,1,,5cd7e678df739100011b1839,62bbfb3cd49be600f97778db,2022-06-29_09h22.23.080,Colour_Asymmetry_Pilot,2022.1.3,Win32,15.02133029,62bbe60bf3d75ef465d3e404,,,,,,
0,47,47,77,1,,5cd7e678df739100011b1839,62bbfb3cd49be600f97778db,2022-06-29_09h22.23.080,Colour_Asymmetry_Pilot,2022.1.3,Win32,15.02133029,62bbe60bf3d75ef465d3e404,,,,,,
0,48,48,80,1,,5cd7e678df739100011b1839,62bbfb3cd49be600f97778db,2022-06-29_09h22.23.080,Colour_Asymmetry_Pilot,2022.1.3,Win32,15.02133029,62bbe60bf3d75ef465d3e404,,,,,,
0,49,49,57,1,,5cd7e678df739100011b1839,62bbfb3cd49be600f97778db,2022-06-29_09h22.23.080,Colour_Asymmetry_Pilot,2022.1.3,Win32,15.02133029,62bbe60bf3d75ef465d3e404,,,,,,
0,50,50,50,1,,5cd7e678df739100011b1839,62bbfb3cd49be600f97778db,2022-06-29_09h22.23.080,Colour_Asymmetry_Pilot,2022.1.3,Win32,15.02133029,62bbe60bf3d75ef465d3e404,,,,,,
0,51,51,62,1,,5cd7e678df739100011b1839,62bbfb3cd49be600f97778db,2022-06-29_09h22.23.080,Colour_Asymmetry_Pilot,2022.1.3,Win32,15.02133029,62bbe60bf3d75ef465d3e404,,,,,,
0,52,52,23,1,,5cd7e678df739100011b1839,62bbfb3cd49be600f97778db,2022-06-29_09h22.23.080,Colour_Asymmetry_Pilot,2022.1.3,Win32,15.02133029,62bbe60bf3d75ef465d3e404,,,,,,
0,53,53,44,1,,5cd7e678df739100011b1839,62bbfb3cd49be600f97778db,2022-06-29_09h22.23.080,Colour_Asymmetry_Pilot,2022.1.3,Win32,15.02133029,62bbe60bf3d75ef465d3e404,,,,,,
0,54,54,81,1,,5cd7e678df739100011b1839,62bbfb3cd49be600f97778db,2022-06-29_09h22.23.080,Colour_Asymmetry_Pilot,2022.1.3,Win32,15.02133029,62bbe60bf3d75ef465d3e404,,,,,,
0,55,55,7,1,,5cd7e678df739100011b1839,62bbfb3cd49be600f97778db,2022-06-29_09h22.23.080,Colour_Asymmetry_Pilot,2022.1.3,Win32,15.02133029,62bbe60bf3d75ef465d3e404,,,,,,
0,56,56,37,1,,5cd7e678df739100011b1839,62bbfb3cd49be600f97778db,2022-06-29_09h22.23.080,Colour_Asymmetry_Pilot,2022.1.3,Win32,15.02133029,62bbe60bf3d75ef465d3e404,,,,,,
0,57,57,36,1,,5cd7e678df739100011b1839,62bbfb3cd49be600f97778db,2022-06-29_09h22.23.080,Colour_Asymmetry_Pilot,2022.1.3,Win32,15.02133029,62bbe60bf3d75ef465d3e404,,,,,,
0,58,58,22,1,,5cd7e678df739100011b1839,62bbfb3cd49be600f97778db,2022-06-29_09h22.23.080,Colour_Asymmetry_Pilot,2022.1.3,Win32,15.02133029,62bbe60bf3d75ef465d3e404,,,,,,
0,59,59,6,1,,5cd7e678df739100011b1839,62bbfb3cd49be600f97778db,2022-06-29_09h22.23.080,Colour_Asymmetry_Pilot,2022.1.3,Win32,15.02133029,62bbe60bf3d75ef465d3e404,,,,,,
0,60,60,29,1,,5cd7e678df739100011b1839,62bbfb3cd49be600f97778db,2022-06-29_09h22.23.080,Colour_Asymmetry_Pilot,2022.1.3,Win32,15.02133029,62bbe60bf3d75ef465d3e404,,,,,,
0,61,61,71,1,,5cd7e678df739100011b1839,62bbfb3cd49be600f97778db,2022-06-29_09h22.23.080,Colour_Asymmetry_Pilot,2022.1.3,Win32,15.02133029,62bbe60bf3d75ef465d3e404,,,,,,
0,62,62,24,1,,5cd7e678df739100011b1839,62bbfb3cd49be600f97778db,2022-06-29_09h22.23.080,Colour_Asymmetry_Pilot,2022.1.3,Win32,15.02133029,62bbe60bf3d75ef465d3e404,,,,,,
0,63,63,76,1,,5cd7e678df739100011b1839,62bbfb3cd49be600f97778db,2022-06-29_09h22.23.080,Colour_Asymmetry_Pilot,2022.1.3,Win32,15.02133029,62bbe60bf3d75ef465d3e404,,,,,,
0,64,64,19,1,,5cd7e678df739100011b1839,62bbfb3cd49be600f97778db,2022-06-29_09h22.23.080,Colour_Asymmetry_Pilot,2022.1.3,Win32,15.02133029,62bbe60bf3d75ef465d3e404,,,,,,
0,65,65,64,1,,5cd7e678df739100011b1839,62bbfb3cd49be600f97778db,2022-06-29_09h22.23.080,Colour_Asymmetry_Pilot,2022.1.3,Win32,15.02133029,62bbe60bf3d75ef465d3e404,,,,,,
0,66,66,48,1,,5cd7e678df739100011b1839,62bbfb3cd49be600f97778db,2022-06-29_09h22.23.080,Colour_Asymmetry_Pilot,2022.1.3,Win32,15.02133029,62bbe60bf3d75ef465d3e404,,,,,,
0,67,67,82,1,,5cd7e678df739100011b1839,62bbfb3cd49be600f97778db,2022-06-29_09h22.23.080,Colour_Asymmetry_Pilot,2022.1.3,Win32,15.02133029,62bbe60bf3d75ef465d3e404,,,,,,
0,68,68,75,1,,5cd7e678df739100011b1839,62bbfb3cd49be600f97778db,2022-06-29_09h22.23.080,Colour_Asymmetry_Pilot,2022.1.3,Win32,15.02133029,62bbe60bf3d75ef465d3e404,,,,,,
0,69,69,26,1,,5cd7e678df739100011b1839,62bbfb3cd49be600f97778db,2022-06-29_09h22.23.080,Colour_Asymmetry_Pilot,2022.1.3,Win32,15.02133029,62bbe60bf3d75ef465d3e404,,,,,,
0,70,70,0,1,,5cd7e678df739100011b1839,62bbfb3cd49be600f97778db,2022-06-29_09h22.23.080,Colour_Asymmetry_Pilot,2022.1.3,Win32,15.02133029,62bbe60bf3d75ef465d3e404,,,,,,
0,71,71,10,1,,5cd7e678df739100011b1839,62bbfb3cd49be600f97778db,2022-06-29_09h22.23.080,Colour_Asymmetry_Pilot,2022.1.3,Win32,15.02133029,62bbe60bf3d75ef465d3e404,,,,,,
0,72,72,33,1,,5cd7e678df739100011b1839,62bbfb3cd49be600f97778db,2022-06-29_09h22.23.080,Colour_Asymmetry_Pilot,2022.1.3,Win32,15.02133029,62bbe60bf3d75ef465d3e404,,,,,,
0,73,73,52,1,,5cd7e678df739100011b1839,62bbfb3cd49be600f97778db,2022-06-29_09h22.23.080,Colour_Asymmetry_Pilot,2022.1.3,Win32,15.02133029,62bbe60bf3d75ef465d3e404,,,,,,
0,74,74,18,1,,5cd7e678df739100011b1839,62bbfb3cd49be600f97778db,2022-06-29_09h22.23.080,Colour_Asymmetry_Pilot,2022.1.3,Win32,15.02133029,62bbe60bf3d75ef465d3e404,,,,,,
0,75,75,51,1,,5cd7e678df739100011b1839,62bbfb3cd49be600f97778db,2022-06-29_09h22.23.080,Colour_Asymmetry_Pilot,2022.1.3,Win32,15.02133029,62bbe60bf3d75ef465d3e404,,,,,,
0,76,76,72,1,,5cd7e678df739100011b1839,62bbfb3cd49be600f97778db,2022-06-29_09h22.23.080,Colour_Asymmetry_Pilot,2022.1.3,Win32,15.02133029,62bbe60bf3d75ef465d3e404,,,,,,
0,77,77,65,1,,5cd7e678df739100011b1839,62bbfb3cd49be600f97778db,2022-06-29_09h22.23.080,Colour_Asymmetry_Pilot,2022.1.3,Win32,15.02133029,62bbe60bf3d75ef465d3e404,,,,,,
0,78,78,16,1,,5cd7e678df739100011b1839,62bbfb3cd49be600f97778db,2022-06-29_09h22.23.080,Colour_Asymmetry_Pilot,2022.1.3,Win32,15.02133029,62bbe60bf3d75ef465d3e404,,,,,,
0,79,79,63,1,,5cd7e678df739100011b1839,62bbfb3cd49be600f97778db,2022-06-29_09h22.23.080,Colour_Asymmetry_Pilot,2022.1.3,Win32,15.02133029,62bbe60bf3d75ef465d3e404,,,,,,
0,80,80,5,1,,5cd7e678df739100011b1839,62bbfb3cd49be600f97778db,2022-06-29_09h22.23.080,Colour_Asymmetry_Pilot,2022.1.3,Win32,15.02133029,62bbe60bf3d75ef465d3e404,,,,,,
0,81,81,35,1,,5cd7e678df739100011b1839,62bbfb3cd49be600f97778db,2022-06-29_09h22.23.080,Colour_Asymmetry_Pilot,2022.1.3,Win32,15.02133029,62bbe60bf3d75ef465d3e404,,,,,,
0,82,82,66,1,,5cd7e678df739100011b1839,62bbfb3cd49be600f97778db,2022-06-29_09h22.23.080,Colour_Asymmetry_Pilot,2022.1.3,Win32,15.02133029,62bbe60bf3d75ef465d3e404,,,,,,
0,83,83,4,1,,5cd7e678df739100011b1839,62bbfb3cd49be600f97778db,2022-06-29_09h22.23.080,Colour_Asymmetry_Pilot,2022.1.3,Win32,15.02133029,62bbe60bf3d75ef465d3e404,,,,,,
0,84,84,39,1,,5cd7e678df739100011b1839,62bbfb3cd49be600f97778db,2022-06-29_09h22.23.080,Colour_Asymmetry_Pilot,2022.1.3,Win32,15.02133029,62bbe60bf3d75ef465d3e404,,,,,,
0,85,85,15,1,,5cd7e678df739100011b1839,62bbfb3cd49be600f97778db,2022-06-29_09h22.23.080,Colour_Asymmetry_Pilot,2022.1.3,Win32,15.02133029,62bbe60bf3d75ef465d3e404,,,,,,
0,86,86,88,1,,5cd7e678df739100011b1839,62bbfb3cd49be600f97778db,2022-06-29_09h22.23.080,Colour_Asymmetry_Pilot,2022.1.3,Win32,15.02133029,62bbe60bf3d75ef465d3e404,,,,,,
0,87,87,89,1,,5cd7e678df739100011b1839,62bbfb3cd49be600f97778db,2022-06-29_09h22.23.080,Colour_Asymmetry_Pilot,2022.1.3,Win32,15.02133029,62bbe60bf3d75ef465d3e404,,,,,,
0,88,88,53,1,,5cd7e678df739100011b1839,62bbfb3cd49be600f97778db,2022-06-29_09h22.23.080,Colour_Asymmetry_Pilot,2022.1.3,Win32,15.02133029,62bbe60bf3d75ef465d3e404,,,,,,
0,89,89,31,1,,5cd7e678df739100011b1839,62bbfb3cd49be600f97778db,2022-06-29_09h22.23.080,Colour_Asymmetry_Pilot,2022.1.3,Win32,15.02133029,62bbe60bf3d75ef465d3e404,,,,,,
0,90,90,25,1,,5cd7e678df739100011b1839,62bbfb3cd49be600f97778db,2022-06-29_09h22.23.080,Colour_Asymmetry_Pilot,2022.1.3,Win32,15.02133029,62bbe60bf3d75ef465d3e404,,,,,,
0,91,91,46,1,,5cd7e678df739100011b1839,62bbfb3cd49be600f97778db,2022-06-29_09h22.23.080,Colour_Asymmetry_Pilot,2022.1.3,Win32,15.02133029,62bbe60bf3d75ef465d3e404,,,,,,
0,92,92,91,1,,5cd7e678df739100011b1839,62bbfb3cd49be600f97778db,2022-06-29_09h22.23.080,Colour_Asymmetry_Pilot,2022.1.3,Win32,15.02133029,62bbe60bf3d75ef465d3e404,,,,,,
,,,,,,5cd7e678df739100011b1839,62bbfb3cd49be600f97778db,2022-06-29_09h22.23.080,Colour_Asymmetry_Pilot,2022.1.3,Win32,15.02133029,62bbe60bf3d75ef465d3e404,0,0,0,124,1,threeone
,,,,,,5cd7e678df739100011b1839,62bbfb3cd49be600f97778db,2022-06-29_09h22.23.080,Colour_Asymmetry_Pilot,2022.1.3,Win32,15.02133029,62bbe60bf3d75ef465d3e404,0,1,1,161,1,onethree
,,,,,,5cd7e678df739100011b1839,62bbfb3cd49be600f97778db,2022-06-29_09h22.23.080,Colour_Asymmetry_Pilot,2022.1.3,Win32,15.02133029,62bbe60bf3d75ef465d3e404,0,2,2,101,1,threefour
,,,,,,5cd7e678df739100011b1839,62bbfb3cd49be600f97778db,2022-06-29_09h22.23.080,Colour_Asymmetry_Pilot,2022.1.3,Win32,15.02133029,62bbe60bf3d75ef465d3e404,0,3,3,152,1,onetwo
,,,,,,5cd7e678df739100011b1839,62bbfb3cd49be600f97778db,2022-06-29_09h22.23.080,Colour_Asymmetry_Pilot,2022.1.3,Win32,15.02133029,62bbe60bf3d75ef465d3e404,0,4,4,35,1,twofour
,,,,,,5cd7e678df739100011b1839,62bbfb3cd49be600f97778db,2022-06-29_09h22.23.080,Colour_Asymmetry_Pilot,2022.1.3,Win32,15.02133029,62bbe60bf3d75ef465d3e404,0,5,5,157,1,threefour
,,,,,,5cd7e678df739100011b1839,62bbfb3cd49be600f97778db,2022-06-29_09h22.23.080,Colour_Asymmetry_Pilot,2022.1.3,Win32,15.02133029,62bbe60bf3d75ef465d3e404,0,6,6,110,1,fourtwo
,,,,,,5cd7e678df739100011b1839,62bbfb3cd49be600f97778db,2022-06-29_09h22.23.080,Colour_Asymmetry_Pilot,2022.1.3,Win32,15.02133029,62bbe60bf3d75ef465d3e404,0,7,7,126,1,fourtwo
,,,,,,5cd7e678df739100011b1839,62bbfb3cd49be600f97778db,2022-06-29_09h22.23.080,Colour_Asymmetry_Pilot,2022.1.3,Win32,15.02133029,62bbe60bf3d75ef465d3e404,0,8,8,155,1,twofour
,,,,,,5cd7e678df739100011b1839,62bbfb3cd49be600f97778db,2022-06-29_09h22.23.080,Colour_Asymmetry_Pilot,2022.1.3,Win32,15.02133029,62bbe60bf3d75ef465d3e404,0,9,9,121,1,onethree
,,,,,,5cd7e678df739100011b1839,62bbfb3cd49be600f97778db,2022-06-29_09h22.23.080,Colour_Asymmetry_Pilot,2022.1.3,Win32,15.02133029,62bbe60bf3d75ef465d3e404,0,10,10,53,1,threefour
,,,,,,5cd7e678df739100011b1839,62bbfb3cd49be600f97778db,2022-06-29_09h22.23.080,Colour_Asymmetry_Pilot,2022.1.3,Win32,15.02133029,62bbe60bf3d75ef465d3e404,0,11,11,33,1,onethree
,,,,,,5cd7e678df739100011b1839,62bbfb3cd49be600f97778db,2022-06-29_09h22.23.080,Colour_Asymmetry_Pilot,2022.1.3,Win32,15.02133029,62bbe60bf3d75ef465d3e404,0,12,12,10,1,twoone
,,,,,,5cd7e678df739100011b1839,62bbfb3cd49be600f97778db,2022-06-29_09h22.23.080,Colour_Asymmetry_Pilot,2022.1.3,Win32,15.02133029,62bbe60bf3d75ef465d3e404,0,13,13,147,1,twofour
,,,,,,5cd7e678df739100011b1839,62bbfb3cd49be600f97778db,2022-06-29_09h22.23.080,Colour_Asymmetry_Pilot,2022.1.3,Win32,15.02133029,62bbe60bf3d75ef465d3e404,0,14,14,104,1,onetwo
,,,,,,5cd7e678df739100011b1839,62bbfb3cd49be600f97778db,2022-06-29_09h22.23.080,Colour_Asymmetry_Pilot,2022.1.3,Win32,15.02133029,62bbe60bf3d75ef465d3e404,0,15,15,119,1,fourthree
,,,,,,5cd7e678df739100011b1839,62bbfb3cd49be600f97778db,2022-06-29_09h22.23.080,Colour_Asymmetry_Pilot,2022.1.3,Win32,15.02133029,62bbe60bf3d75ef465d3e404,0,16,16,79,1,fourthree
,,,,,,5cd7e678df739100011b1839,62bbfb3cd49be600f97778db,2022-06-29_09h22.23.080,Colour_Asymmetry_Pilot,2022.1.3,Win32,15.02133029,62bbe60bf3d75ef465d3e404,0,17,17,90,1,twoone
,,,,,,5cd7e678df739100011b1839,62bbfb3cd49be600f97778db,2022-06-29_09h22.23.080,Colour_Asymmetry_Pilot,2022.1.3,Win32,15.02133029,62bbe60bf3d75ef465d3e404,0,18,18,62,1,fourtwo
,,,,,,5cd7e678df739100011b1839,62bbfb3cd49be600f97778db,2022-06-29_09h22.23.080,Colour_Asymmetry_Pilot,2022.1.3,Win32,15.02133029,62bbe60bf3d75ef465d3e404,0,19,19,98,1,twoone
,,,,,,5cd7e678df739100011b1839,62bbfb3cd49be600f97778db,2022-06-29_09h22.23.080,Colour_Asymmetry_Pilot,2022.1.3,Win32,15.02133029,62bbe60bf3d75ef465d3e404,0,20,20,28,1,threeone
,,,,,,5cd7e678df739100011b1839,62bbfb3cd49be600f97778db,2022-06-29_09h22.23.080,Colour_Asymmetry_Pilot,2022.1.3,Win32,15.02133029,62bbe60bf3d75ef465d3e404,0,21,21,111,1,fourthree
,,,,,,5cd7e678df739100011b1839,62bbfb3cd49be600f97778db,2022-06-29_09h22.23.080,Colour_Asymmetry_Pilot,2022.1.3,Win32,15.02133029,62bbe60bf3d75ef465d3e404,0,22,22,74,1,twoone
,,,,,,5cd7e678df739100011b1839,62bbfb3cd49be600f97778db,2022-06-29_09h22.23.080,Colour_Asymmetry_Pilot,2022.1.3,Win32,15.02133029,62bbe60bf3d75ef465d3e404,0,23,23,73,1,onethree
,,,,,,5cd7e678df739100011b1839,62bbfb3cd49be600f97778db,2022-06-29_09h22.23.080,Colour_Asymmetry_Pilot,2022.1.3,Win32,15.02133029,62bbe60bf3d75ef465d3e404,0,24,24,92,1,threeone
,,,,,,5cd7e678df739100011b1839,62bbfb3cd49be600f97778db,2022-06-29_09h22.23.080,Colour_Asymmetry_Pilot,2022.1.3,Win32,15.02133029,62bbe60bf3d75ef465d3e404,0,25,25,15,1,fourthree
,,,,,,5cd7e678df739100011b1839,62bbfb3cd49be600f97778db,2022-06-29_09h22.23.080,Colour_Asymmetry_Pilot,2022.1.3,Win32,15.02133029,62bbe60bf3d75ef465d3e404,0,26,26,141,1,threefour
,,,,,,5cd7e678df739100011b1839,62bbfb3cd49be600f97778db,2022-06-29_09h22.23.080,Colour_Asymmetry_Pilot,2022.1.3,Win32,15.02133029,62bbe60bf3d75ef465d3e404,0,27,27,136,1,onetwo
,,,,,,5cd7e678df739100011b1839,62bbfb3cd49be600f97778db,2022-06-29_09h22.23.080,Colour_Asymmetry_Pilot,2022.1.3,Win32,15.02133029,62bbe60bf3d75ef465d3e404,0,28,28,45,1,threefour
,,,,,,5cd7e678df739100011b1839,62bbfb3cd49be600f97778db,2022-06-29_09h22.23.080,Colour_Asymmetry_Pilot,2022.1.3,Win32,15.02133029,62bbe60bf3d75ef465d3e404,0,29,29,125,1,threefour
,,,,,,5cd7e678df739100011b1839,62bbfb3cd49be600f97778db,2022-06-29_09h22.23.080,Colour_Asymmetry_Pilot,2022.1.3,Win32,15.02133029,62bbe60bf3d75ef465d3e404,0,30,30,81,1,onethree
,,,,,,5cd7e678df739100011b1839,62bbfb3cd49be600f97778db,2022-06-29_09h22.23.080,Colour_Asymmetry_Pilot,2022.1.3,Win32,15.02133029,62bbe60bf3d75ef465d3e404,0,31,31,66,1,twoone
,,,,,,5cd7e678df739100011b1839,62bbfb3cd49be600f97778db,2022-06-29_09h22.23.080,Colour_Asymmetry_Pilot,2022.1.3,Win32,15.02133029,62bbe60bf3d75ef465d3e404,0,32,32,3,1,twofour
,,,,,,5cd7e678df739100011b1839,62bbfb3cd49be600f97778db,2022-06-29_09h22.23.080,Colour_Asymmetry_Pilot,2022.1.3,Win32,15.02133029,62bbe60bf3d75ef465d3e404,0,33,33,109,1,threefour
,,,,,,5cd7e678df739100011b1839,62bbfb3cd49be600f97778db,2022-06-29_09h22.23.080,Colour_Asymmetry_Pilot,2022.1.3,Win32,15.02133029,62bbe60bf3d75ef465d3e404,0,34,34,54,1,fourtwo
,,,,,,5cd7e678df739100011b1839,62bbfb3cd49be600f97778db,2022-06-29_09h22.23.080,Colour_Asymmetry_Pilot,2022.1.3,Win32,15.02133029,62bbe60bf3d75ef465d3e404,0,35,35,38,1,fourtwo
,,,,,,5cd7e678df739100011b1839,62bbfb3cd49be600f97778db,2022-06-29_09h22.23.080,Colour_Asymmetry_Pilot,2022.1.3,Win32,15.02133029,62bbe60bf3d75ef465d3e404,0,36,36,132,1,threeone
,,,,,,5cd7e678df739100011b1839,62bbfb3cd49be600f97778db,2022-06-29_09h22.23.080,Colour_Asymmetry_Pilot,2022.1.3,Win32,15.02133029,62bbe60bf3d75ef465d3e404,0,37,37,133,1,threefour
,,,,,,5cd7e678df739100011b1839,62bbfb3cd49be600f97778db,2022-06-29_09h22.23.080,Colour_Asymmetry_Pilot,2022.1.3,Win32,15.02133029,62bbe60bf3d75ef465d3e404,0,38,38,70,1,fourtwo
,,,,,,5cd7e678df739100011b1839,62bbfb3cd49be600f97778db,2022-06-29_09h22.23.080,Colour_Asymmetry_Pilot,2022.1.3,Win32,15.02133029,62bbe60bf3d75ef465d3e404,0,39,39,142,1,fourtwo
,,,,,,5cd7e678df739100011b1839,62bbfb3cd49be600f97778db,2022-06-29_09h22.23.080,Colour_Asymmetry_Pilot,2022.1.3,Win32,15.02133029,62bbe60bf3d75ef465d3e404,0,40,40,83,1,twofour
,,,,,,5cd7e678df739100011b1839,62bbfb3cd49be600f97778db,2022-06-29_09h22.23.080,Colour_Asymmetry_Pilot,2022.1.3,Win32,15.02133029,62bbe60bf3d75ef465d3e404,0,41,41,156,1,threeone
,,,,,,5cd7e678df739100011b1839,62bbfb3cd49be600f97778db,2022-06-29_09h22.23.080,Colour_Asymmetry_Pilot,2022.1.3,Win32,15.02133029,62bbe60bf3d75ef465d3e404,0,42,42,89,1,onethree
,,,,,,5cd7e678df739100011b1839,62bbfb3cd49be600f97778db,2022-06-29_09h22.23.080,Colour_Asymmetry_Pilot,2022.1.3,Win32,15.02133029,62bbe60bf3d75ef465d3e404,0,43,43,160,1,onetwo
,,,,,,5cd7e678df739100011b1839,62bbfb3cd49be600f97778db,2022-06-29_09h22.23.080,Colour_Asymmetry_Pilot,2022.1.3,Win32,15.02133029,62bbe60bf3d75ef465d3e404,0,44,44,108,1,threeone
,,,,,,5cd7e678df739100011b1839,62bbfb3cd49be600f97778db,2022-06-29_09h22.23.080,Colour_Asymmetry_Pilot,2022.1.3,Win32,15.02133029,62bbe60bf3d75ef465d3e404,0,45,45,127,1,fourthree
,,,,,,5cd7e678df739100011b1839,62bbfb3cd49be600f97778db,2022-06-29_09h22.23.080,Colour_Asymmetry_Pilot,2022.1.3,Win32,15.02133029,62bbe60bf3d75ef465d3e404,0,46,46,43,1,twofour
,,,,,,5cd7e678df739100011b1839,62bbfb3cd49be600f97778db,2022-06-29_09h22.23.080,Colour_Asymmetry_Pilot,2022.1.3,Win32,15.02133029,62bbe60bf3d75ef465d3e404,0,47,47,65,1,onethree
,,,,,,5cd7e678df739100011b1839,62bbfb3cd49be600f97778db,2022-06-29_09h22.23.080,Colour_Asymmetry_Pilot,2022.1.3,Win32,15.02133029,62bbe60bf3d75ef465d3e404,0,48,48,58,1,twoone
,,,,,,5cd7e678df739100011b1839,62bbfb3cd49be600f97778db,2022-06-29_09h22.23.080,Colour_Asymmetry_Pilot,2022.1.3,Win32,15.02133029,62bbe60bf3d75ef465d3e404,0,49,49,63,1,fourthree
,,,,,,5cd7e678df739100011b1839,62bbfb3cd49be600f97778db,2022-06-29_09h22.23.080,Colour_Asymmetry_Pilot,2022.1.3,Win32,15.02133029,62bbe60bf3d75ef465d3e404,0,50,50,128,1,onetwo
,,,,,,5cd7e678df739100011b1839,62bbfb3cd49be600f97778db,2022-06-29_09h22.23.080,Colour_Asymmetry_Pilot,2022.1.3,Win32,15.02133029,62bbe60bf3d75ef465d3e404,0,51,51,44,1,threeone
,,,,,,5cd7e678df739100011b1839,62bbfb3cd49be600f97778db,2022-06-29_09h22.23.080,Colour_Asymmetry_Pilot,2022.1.3,Win32,15.02133029,62bbe60bf3d75ef465d3e404,0,52,52,88,1,onetwo
,,,,,,5cd7e678df739100011b1839,62bbfb3cd49be600f97778db,2022-06-29_09h22.23.080,Colour_Asymmetry_Pilot,2022.1.3,Win32,15.02133029,62bbe60bf3d75ef465d3e404,0,53,53,100,1,threeone
,,,,,,5cd7e678df739100011b1839,62bbfb3cd49be600f97778db,2022-06-29_09h22.23.080,Colour_Asymmetry_Pilot,2022.1.3,Win32,15.02133029,62bbe60bf3d75ef465d3e404,0,54,54,151,1,fourthree
,,,,,,5cd7e678df739100011b1839,62bbfb3cd49be600f97778db,2022-06-29_09h22.23.080,Colour_Asymmetry_Pilot,2022.1.3,Win32,15.02133029,62bbe60bf3d75ef465d3e404,0,55,55,72,1,onetwo
,,,,,,5cd7e678df739100011b1839,62bbfb3cd49be600f97778db,2022-06-29_09h22.23.080,Colour_Asymmetry_Pilot,2022.1.3,Win32,15.02133029,62bbe60bf3d75ef465d3e404,0,56,56,56,1,onetwo
,,,,,,5cd7e678df739100011b1839,62bbfb3cd49be600f97778db,2022-06-29_09h22.23.080,Colour_Asymmetry_Pilot,2022.1.3,Win32,15.02133029,62bbe60bf3d75ef465d3e404,0,57,57,137,1,onethree
,,,,,,5cd7e678df739100011b1839,62bbfb3cd49be600f97778db,2022-06-29_09h22.23.080,Colour_Asymmetry_Pilot,2022.1.3,Win32,15.02133029,62bbe60bf3d75ef465d3e404,0,58,58,116,1,threeone
,,,,,,5cd7e678df739100011b1839,62bbfb3cd49be600f97778db,2022-06-29_09h22.23.080,Colour_Asymmetry_Pilot,2022.1.3,Win32,15.02133029,62bbe60bf3d75ef465d3e404,0,59,59,11,1,twofour
,,,,,,5cd7e678df739100011b1839,62bbfb3cd49be600f97778db,2022-06-29_09h22.23.080,Colour_Asymmetry_Pilot,2022.1.3,Win32,15.02133029,62bbe60bf3d75ef465d3e404,0,60,60,117,1,threefour
,,,,,,5cd7e678df739100011b1839,62bbfb3cd49be600f97778db,2022-06-29_09h22.23.080,Colour_Asymmetry_Pilot,2022.1.3,Win32,15.02133029,62bbe60bf3d75ef465d3e404,0,61,61,130,1,twoone
,,,,,,5cd7e678df739100011b1839,62bbfb3cd49be600f97778db,2022-06-29_09h22.23.080,Colour_Asymmetry_Pilot,2022.1.3,Win32,15.02133029,62bbe60bf3d75ef465d3e404,0,62,62,134,1,fourtwo
,,,,,,5cd7e678df739100011b1839,62bbfb3cd49be600f97778db,2022-06-29_09h22.23.080,Colour_Asymmetry_Pilot,2022.1.3,Win32,15.02133029,62bbe60bf3d75ef465d3e404,0,63,63,52,1,threeone
,,,,,,5cd7e678df739100011b1839,62bbfb3cd49be600f97778db,2022-06-29_09h22.23.080,Colour_Asymmetry_Pilot,2022.1.3,Win32,15.02133029,62bbe60bf3d75ef465d3e404,0,64,64,153,1,onethree
,,,,,,5cd7e678df739100011b1839,62bbfb3cd49be600f97778db,2022-06-29_09h22.23.080,Colour_Asymmetry_Pilot,2022.1.3,Win32,15.02133029,62bbe60bf3d75ef465d3e404,0,65,65,77,1,threefour
,,,,,,5cd7e678df739100011b1839,62bbfb3cd49be600f97778db,2022-06-29_09h22.23.080,Colour_Asymmetry_Pilot,2022.1.3,Win32,15.02133029,62bbe60bf3d75ef465d3e404,0,66,66,1,1,onethree
,,,,,,5cd7e678df739100011b1839,62bbfb3cd49be600f97778db,2022-06-29_09h22.23.080,Colour_Asymmetry_Pilot,2022.1.3,Win32,15.02133029,62bbe60bf3d75ef465d3e404,0,67,67,2,1,twoone
,,,,,,5cd7e678df739100011b1839,62bbfb3cd49be600f97778db,2022-06-29_09h22.23.080,Colour_Asymmetry_Pilot,2022.1.3,Win32,15.02133029,62bbe60bf3d75ef465d3e404,0,68,68,64,1,onetwo
,,,,,,5cd7e678df739100011b1839,62bbfb3cd49be600f97778db,2022-06-29_09h22.23.080,Colour_Asymmetry_Pilot,2022.1.3,Win32,15.02133029,62bbe60bf3d75ef465d3e404,0,69,69,17,1,onethree
,,,,,,5cd7e678df739100011b1839,62bbfb3cd49be600f97778db,2022-06-29_09h22.23.080,Colour_Asymmetry_Pilot,2022.1.3,Win32,15.02133029,62bbe60bf3d75ef465d3e404,0,70,70,51,1,twofour
,,,,,,5cd7e678df739100011b1839,62bbfb3cd49be600f97778db,2022-06-29_09h22.23.080,Colour_Asymmetry_Pilot,2022.1.3,Win32,15.02133029,62bbe60bf3d75ef465d3e404,0,71,71,49,1,onethree
,,,,,,5cd7e678df739100011b1839,62bbfb3cd49be600f97778db,2022-06-29_09h22.23.080,Colour_Asymmetry_Pilot,2022.1.3,Win32,15.02133029,62bbe60bf3d75ef465d3e404,0,72,72,140,1,threeone
,,,,,,5cd7e678df739100011b1839,62bbfb3cd49be600f97778db,2022-06-29_09h22.23.080,Colour_Asymmetry_Pilot,2022.1.3,Win32,15.02133029,62bbe60bf3d75ef465d3e404,0,73,73,71,1,fourthree
,,,,,,5cd7e678df739100011b1839,62bbfb3cd49be600f97778db,2022-06-29_09h22.23.080,Colour_Asymmetry_Pilot,2022.1.3,Win32,15.02133029,62bbe60bf3d75ef465d3e404,0,74,74,158,1,fourtwo
,,,,,,5cd7e678df739100011b1839,62bbfb3cd49be600f97778db,2022-06-29_09h22.23.080,Colour_Asymmetry_Pilot,2022.1.3,Win32,15.02133029,62bbe60bf3d75ef465d3e404,0,75,75,57,1,onethree
,,,,,,5cd7e678df739100011b1839,62bbfb3cd49be600f97778db,2022-06-29_09h22.23.080,Colour_Asymmetry_Pilot,2022.1.3,Win32,15.02133029,62bbe60bf3d75ef465d3e404,0,76,76,59,1,twofour
,,,,,,5cd7e678df739100011b1839,62bbfb3cd49be600f97778db,2022-06-29_09h22.23.080,Colour_Asymmetry_Pilot,2022.1.3,Win32,15.02133029,62bbe60bf3d75ef465d3e404,0,77,77,21,1,threefour
,,,,,,5cd7e678df739100011b1839,62bbfb3cd49be600f97778db,2022-06-29_09h22.23.080,Colour_Asymmetry_Pilot,2022.1.3,Win32,15.02133029,62bbe60bf3d75ef465d3e404,0,78,78,47,1,fourthree
,,,,,,5cd7e678df739100011b1839,62bbfb3cd49be600f97778db,2022-06-29_09h22.23.080,Colour_Asymmetry_Pilot,2022.1.3,Win32,15.02133029,62bbe60bf3d75ef465d3e404,0,79,79,69,1,threefour
,,,,,,5cd7e678df739100011b1839,62bbfb3cd49be600f97778db,2022-06-29_09h22.23.080,Colour_Asymmetry_Pilot,2022.1.3,Win32,15.02133029,62bbe60bf3d75ef465d3e404,0,80,80,139,1,twofour
,,,,,,5cd7e678df739100011b1839,62bbfb3cd49be600f97778db,2022-06-29_09h22.23.080,Colour_Asymmetry_Pilot,2022.1.3,Win32,15.02133029,62bbe60bf3d75ef465d3e404,0,81,81,5,1,threefour
,,,,,,5cd7e678df739100011b1839,62bbfb3cd49be600f97778db,2022-06-29_09h22.23.080,Colour_Asymmetry_Pilot,2022.1.3,Win32,15.02133029,62bbe60bf3d75ef465d3e404,0,82,82,55,1,fourthree
,,,,,,5cd7e678df739100011b1839,62bbfb3cd49be600f97778db,2022-06-29_09h22.23.080,Colour_Asymmetry_Pilot,2022.1.3,Win32,15.02133029,62bbe60bf3d75ef465d3e404,0,83,83,159,1,fourthree
,,,,,,5cd7e678df739100011b1839,62bbfb3cd49be600f97778db,2022-06-29_09h22.23.080,Colour_Asymmetry_Pilot,2022.1.3,Win32,15.02133029,62bbe60bf3d75ef465d3e404,0,84,84,61,1,threefour
,,,,,,5cd7e678df739100011b1839,62bbfb3cd49be600f97778db,2022-06-29_09h22.23.080,Colour_Asymmetry_Pilot,2022.1.3,Win32,15.02133029,62bbe60bf3d75ef465d3e404,0,85,85,122,1,twoone
,,,,,,5cd7e678df739100011b1839,62bbfb3cd49be600f97778db,2022-06-29_09h22.23.080,Colour_Asymmetry_Pilot,2022.1.3,Win32,15.02133029,62bbe60bf3d75ef465d3e404,0,86,86,31,1,fourthree
,,,,,,5cd7e678df739100011b1839,62bbfb3cd49be600f97778db,2022-06-29_09h22.23.080,Colour_Asymmetry_Pilot,2022.1.3,Win32,15.02133029,62bbe60bf3d75ef465d3e404,0,87,87,120,1,onetwo
,,,,,,5cd7e678df739100011b1839,62bbfb3cd49be600f97778db,2022-06-29_09h22.23.080,Colour_Asymmetry_Pilot,2022.1.3,Win32,15.02133029,62bbe60bf3d75ef465d3e404,0,88,88,41,1,onethree
,,,,,,5cd7e678df739100011b1839,62bbfb3cd49be600f97778db,2022-06-29_09h22.23.080,Colour_Asymmetry_Pilot,2022.1.3,Win32,15.02133029,62bbe60bf3d75ef465d3e404,0,89,89,24,1,onetwo
,,,,,,5cd7e678df739100011b1839,62bbfb3cd49be600f97778db,2022-06-29_09h22.23.080,Colour_Asymmetry_Pilot,2022.1.3,Win32,15.02133029,62bbe60bf3d75ef465d3e404,0,90,90,131,1,twofour
,,,,,,5cd7e678df739100011b1839,62bbfb3cd49be600f97778db,2022-06-29_09h22.23.080,Colour_Asymmetry_Pilot,2022.1.3,Win32,15.02133029,62bbe60bf3d75ef465d3e404,0,91,91,27,1,twofour
,,,,,,5cd7e678df739100011b1839,62bbfb3cd49be600f97778db,2022-06-29_09h22.23.080,Colour_Asymmetry_Pilot,2022.1.3,Win32,15.02133029,62bbe60bf3d75ef465d3e404,0,92,92,85,1,threefour
,,,,,,5cd7e678df739100011b1839,62bbfb3cd49be600f97778db,2022-06-29_09h22.23.080,Colour_Asymmetry_Pilot,2022.1.3,Win32,15.02133029,62bbe60bf3d75ef465d3e404,0,93,93,143,1,fourthree
,,,,,,5cd7e678df739100011b1839,62bbfb3cd49be600f97778db,2022-06-29_09h22.23.080,Colour_Asymmetry_Pilot,2022.1.3,Win32,15.02133029,62bbe60bf3d75ef465d3e404,0,94,94,154,1,twoone
,,,,,,5cd7e678df739100011b1839,62bbfb3cd49be600f97778db,2022-06-29_09h22.23.080,Colour_Asymmetry_Pilot,2022.1.3,Win32,15.02133029,62bbe60bf3d75ef465d3e404,0,95,95,102,1,fourtwo
,,,,,,5cd7e678df739100011b1839,62bbfb3cd49be600f97778db,2022-06-29_09h22.23.080,Colour_Asymmetry_Pilot,2022.1.3,Win32,15.02133029,62bbe60bf3d75ef465d3e404,0,96,96,16,1,onetwo
,,,,,,5cd7e678df739100011b1839,62bbfb3cd49be600f97778db,2022-06-29_09h22.23.080,Colour_Asymmetry_Pilot,2022.1.3,Win32,15.02133029,62bbe60bf3d75ef465d3e404,0,97,97,0,1,onetwo
,,,,,,5cd7e678df739100011b1839,62bbfb3cd49be600f97778db,2022-06-29_09h22.23.080,Colour_Asymmetry_Pilot,2022.1.3,Win32,15.02133029,62bbe60bf3d75ef465d3e404,0,98,98,78,1,fourtwo
,,,,,,5cd7e678df739100011b1839,62bbfb3cd49be600f97778db,2022-06-29_09h22.23.080,Colour_Asymmetry_Pilot,2022.1.3,Win32,15.02133029,62bbe60bf3d75ef465d3e404,0,99,99,14,1,fourtwo
,,,,,,5cd7e678df739100011b1839,62bbfb3cd49be600f97778db,2022-06-29_09h22.23.080,Colour_Asymmetry_Pilot,2022.1.3,Win32,15.02133029,62bbe60bf3d75ef465d3e404,0,100,100,36,1,threeone
,,,,,,5cd7e678df739100011b1839,62bbfb3cd49be600f97778db,2022-06-29_09h22.23.080,Colour_Asymmetry_Pilot,2022.1.3,Win32,15.02133029,62bbe60bf3d75ef465d3e404,0,101,101,75,1,twofour
,,,,,,5cd7e678df739100011b1839,62bbfb3cd49be600f97778db,2022-06-29_09h22.23.080,Colour_Asymmetry_Pilot,2022.1.3,Win32,15.02133029,62bbe60bf3d75ef465d3e404,0,102,102,123,1,twofour
,,,,,,5cd7e678df739100011b1839,62bbfb3cd49be600f97778db,2022-06-29_09h22.23.080,Colour_Asymmetry_Pilot,2022.1.3,Win32,15.02133029,62bbe60bf3d75ef465d3e404,0,103,103,106,1,twoone
,,,,,,5cd7e678df739100011b1839,62bbfb3cd49be600f97778db,2022-06-29_09h22.23.080,Colour_Asymmetry_Pilot,2022.1.3,Win32,15.02133029,62bbe60bf3d75ef465d3e404,0,104,104,7,1,fourthree
,,,,,,5cd7e678df739100011b1839,62bbfb3cd49be600f97778db,2022-06-29_09h22.23.080,Colour_Asymmetry_Pilot,2022.1.3,Win32,15.02133029,62bbe60bf3d75ef465d3e404,0,105,105,13,1,threefour
,,,,,,5cd7e678df739100011b1839,62bbfb3cd49be600f97778db,2022-06-29_09h22.23.080,Colour_Asymmetry_Pilot,2022.1.3,Win32,15.02133029,62bbe60bf3d75ef465d3e404,0,106,106,19,1,twofour
,,,,,,5cd7e678df739100011b1839,62bbfb3cd49be600f97778db,2022-06-29_09h22.23.080,Colour_Asymmetry_Pilot,2022.1.3,Win32,15.02133029,62bbe60bf3d75ef465d3e404,0,107,107,146,1,twoone
,,,,,,5cd7e678df739100011b1839,62bbfb3cd49be600f97778db,2022-06-29_09h22.23.080,Colour_Asymmetry_Pilot,2022.1.3,Win32,15.02133029,62bbe60bf3d75ef465d3e404,0,108,108,34,1,twoone
,,,,,,5cd7e678df739100011b1839,62bbfb3cd49be600f97778db,2022-06-29_09h22.23.080,Colour_Asymmetry_Pilot,2022.1.3,Win32,15.02133029,62bbe60bf3d75ef465d3e404,0,109,109,18,1,twoone
,,,,,,5cd7e678df739100011b1839,62bbfb3cd49be600f97778db,2022-06-29_09h22.23.080,Colour_Asymmetry_Pilot,2022.1.3,Win32,15.02133029,62bbe60bf3d75ef465d3e404,0,110,110,46,1,fourtwo
,,,,,,5cd7e678df739100011b1839,62bbfb3cd49be600f97778db,2022-06-29_09h22.23.080,Colour_Asymmetry_Pilot,2022.1.3,Win32,15.02133029,62bbe60bf3d75ef465d3e404,0,111,111,12,1,threeone
,,,,,,5cd7e678df739100011b1839,62bbfb3cd49be600f97778db,2022-06-29_09h22.23.080,Colour_Asymmetry_Pilot,2022.1.3,Win32,15.02133029,62bbe60bf3d75ef465d3e404,0,112,112,112,1,onetwo
,,,,,,5cd7e678df739100011b1839,62bbfb3cd49be600f97778db,2022-06-29_09h22.23.080,Colour_Asymmetry_Pilot,2022.1.3,Win32,15.02133029,62bbe60bf3d75ef465d3e404,0,113,113,107,1,twofour
,,,,,,5cd7e678df739100011b1839,62bbfb3cd49be600f97778db,2022-06-29_09h22.23.080,Colour_Asymmetry_Pilot,2022.1.3,Win32,15.02133029,62bbe60bf3d75ef465d3e404,0,114,114,60,1,threeone
,,,,,,5cd7e678df739100011b1839,62bbfb3cd49be600f97778db,2022-06-29_09h22.23.080,Colour_Asymmetry_Pilot,2022.1.3,Win32,15.02133029,62bbe60bf3d75ef465d3e404,0,115,115,87,1,fourthree
,,,,,,5cd7e678df739100011b1839,62bbfb3cd49be600f97778db,2022-06-29_09h22.23.080,Colour_Asymmetry_Pilot,2022.1.3,Win32,15.02133029,62bbe60bf3d75ef465d3e404,0,116,116,40,1,onetwo
,,,,,,5cd7e678df739100011b1839,62bbfb3cd49be600f97778db,2022-06-29_09h22.23.080,Colour_Asymmetry_Pilot,2022.1.3,Win32,15.02133029,62bbe60bf3d75ef465d3e404,0,117,117,118,1,fourtwo
,,,,,,5cd7e678df739100011b1839,62bbfb3cd49be600f97778db,2022-06-29_09h22.23.080,Colour_Asymmetry_Pilot,2022.1.3,Win32,15.02133029,62bbe60bf3d75ef465d3e404,0,118,118,80,1,onetwo
,,,,,,5cd7e678df739100011b1839,62bbfb3cd49be600f97778db,2022-06-29_09h22.23.080,Colour_Asymmetry_Pilot,2022.1.3,Win32,15.02133029,62bbe60bf3d75ef465d3e404,0,119,119,25,1,onethree
,,,,,,5cd7e678df739100011b1839,62bbfb3cd49be600f97778db,2022-06-29_09h22.23.080,Colour_Asymmetry_Pilot,2022.1.3,Win32,15.02133029,62bbe60bf3d75ef465d3e404,0,120,120,145,1,onethree
,,,,,,5cd7e678df739100011b1839,62bbfb3cd49be600f97778db,2022-06-29_09h22.23.080,Colour_Asymmetry_Pilot,2022.1.3,Win32,15.02133029,62bbe60bf3d75ef465d3e404,0,121,121,115,1,twofour
,,,,,,5cd7e678df739100011b1839,62bbfb3cd49be600f97778db,2022-06-29_09h22.23.080,Colour_Asymmetry_Pilot,2022.1.3,Win32,15.02133029,62bbe60bf3d75ef465d3e404,0,122,122,6,1,fourtwo
,,,,,,5cd7e678df739100011b1839,62bbfb3cd49be600f97778db,2022-06-29_09h22.23.080,Colour_Asymmetry_Pilot,2022.1.3,Win32,15.02133029,62bbe60bf3d75ef465d3e404,0,123,123,9,1,onethree
,,,,,,5cd7e678df739100011b1839,62bbfb3cd49be600f97778db,2022-06-29_09h22.23.080,Colour_Asymmetry_Pilot,2022.1.3,Win32,15.02133029,62bbe60bf3d75ef465d3e404,0,124,124,68,1,threeone
,,,,,,5cd7e678df739100011b1839,62bbfb3cd49be600f97778db,2022-06-29_09h22.23.080,Colour_Asymmetry_Pilot,2022.1.3,Win32,15.02133029,62bbe60bf3d75ef465d3e404,0,125,125,84,1,threeone
,,,,,,5cd7e678df739100011b1839,62bbfb3cd49be600f97778db,2022-06-29_09h22.23.080,Colour_Asymmetry_Pilot,2022.1.3,Win32,15.02133029,62bbe60bf3d75ef465d3e404,0,126,126,148,1,threeone
,,,,,,5cd7e678df739100011b1839,62bbfb3cd49be600f97778db,2022-06-29_09h22.23.080,Colour_Asymmetry_Pilot,2022.1.3,Win32,15.02133029,62bbe60bf3d75ef465d3e404,0,127,127,105,1,onethree
,,,,,,5cd7e678df739100011b1839,62bbfb3cd49be600f97778db,2022-06-29_09h22.23.080,Colour_Asymmetry_Pilot,2022.1.3,Win32,15.02133029,62bbe60bf3d75ef465d3e404,0,128,128,97,1,onethree
,,,,,,5cd7e678df739100011b1839,62bbfb3cd49be600f97778db,2022-06-29_09h22.23.080,Colour_Asymmetry_Pilot,2022.1.3,Win32,15.02133029,62bbe60bf3d75ef465d3e404,0,129,129,20,1,threeone
,,,,,,5cd7e678df739100011b1839,62bbfb3cd49be600f97778db,2022-06-29_09h22.23.080,Colour_Asymmetry_Pilot,2022.1.3,Win32,15.02133029,62bbe60bf3d75ef465d3e404,0,130,130,82,1,twoone
,,,,,,5cd7e678df739100011b1839,62bbfb3cd49be600f97778db,2022-06-29_09h22.23.080,Colour_Asymmetry_Pilot,2022.1.3,Win32,15.02133029,62bbe60bf3d75ef465d3e404,0,131,131,149,1,threefour
,,,,,,5cd7e678df739100011b1839,62bbfb3cd49be600f97778db,2022-06-29_09h22.23.080,Colour_Asymmetry_Pilot,2022.1.3,Win32,15.02133029,62bbe60bf3d75ef465d3e404,0,132,132,29,1,threefour
,,,,,,5cd7e678df739100011b1839,62bbfb3cd49be600f97778db,2022-06-29_09h22.23.080,Colour_Asymmetry_Pilot,2022.1.3,Win32,15.02133029,62bbe60bf3d75ef465d3e404,0,133,133,48,1,onetwo
,,,,,,5cd7e678df739100011b1839,62bbfb3cd49be600f97778db,2022-06-29_09h22.23.080,Colour_Asymmetry_Pilot,2022.1.3,Win32,15.02133029,62bbe60bf3d75ef465d3e404,0,134,134,138,1,twoone
,,,,,,5cd7e678df739100011b1839,62bbfb3cd49be600f97778db,2022-06-29_09h22.23.080,Colour_Asymmetry_Pilot,2022.1.3,Win32,15.02133029,62bbe60bf3d75ef465d3e404,0,135,135,129,1,onethree
,,,,,,5cd7e678df739100011b1839,62bbfb3cd49be600f97778db,2022-06-29_09h22.23.080,Colour_Asymmetry_Pilot,2022.1.3,Win32,15.02133029,62bbe60bf3d75ef465d3e404,0,136,136,114,1,twoone
,,,,,,5cd7e678df739100011b1839,62bbfb3cd49be600f97778db,2022-06-29_09h22.23.080,Colour_Asymmetry_Pilot,2022.1.3,Win32,15.02133029,62bbe60bf3d75ef465d3e404,0,137,137,93,1,threefour
,,,,,,5cd7e678df739100011b1839,62bbfb3cd49be600f97778db,2022-06-29_09h22.23.080,Colour_Asymmetry_Pilot,2022.1.3,Win32,15.02133029,62bbe60bf3d75ef465d3e404,0,138,138,23,1,fourthree
,,,,,,5cd7e678df739100011b1839,62bbfb3cd49be600f97778db,2022-06-29_09h22.23.080,Colour_Asymmetry_Pilot,2022.1.3,Win32,15.02133029,62bbe60bf3d75ef465d3e404,0,139,139,95,1,fourthree
,,,,,,5cd7e678df739100011b1839,62bbfb3cd49be600f97778db,2022-06-29_09h22.23.080,Colour_Asymmetry_Pilot,2022.1.3,Win32,15.02133029,62bbe60bf3d75ef465d3e404,0,140,140,94,1,fourtwo
,,,,,,5cd7e678df739100011b1839,62bbfb3cd49be600f97778db,2022-06-29_09h22.23.080,Colour_Asymmetry_Pilot,2022.1.3,Win32,15.02133029,62bbe60bf3d75ef465d3e404,0,141,141,76,1,threeone
,,,,,,5cd7e678df739100011b1839,62bbfb3cd49be600f97778db,2022-06-29_09h22.23.080,Colour_Asymmetry_Pilot,2022.1.3,Win32,15.02133029,62bbe60bf3d75ef465d3e404,0,142,142,144,1,onetwo
,,,,,,5cd7e678df739100011b1839,62bbfb3cd49be600f97778db,2022-06-29_09h22.23.080,Colour_Asymmetry_Pilot,2022.1.3,Win32,15.02133029,62bbe60bf3d75ef465d3e404,0,143,143,99,1,twofour
,,,,,,5cd7e678df739100011b1839,62bbfb3cd49be600f97778db,2022-06-29_09h22.23.080,Colour_Asymmetry_Pilot,2022.1.3,Win32,15.02133029,62bbe60bf3d75ef465d3e404,0,144,144,67,1,twofour
,,,,,,5cd7e678df739100011b1839,62bbfb3cd49be600f97778db,2022-06-29_09h22.23.080,Colour_Asymmetry_Pilot,2022.1.3,Win32,15.02133029,62bbe60bf3d75ef465d3e404,0,145,145,22,1,fourtwo
,,,,,,5cd7e678df739100011b1839,62bbfb3cd49be600f97778db,2022-06-29_09h22.23.080,Colour_Asymmetry_Pilot,2022.1.3,Win32,15.02133029,62bbe60bf3d75ef465d3e404,0,146,146,37,1,threefour
,,,,,,5cd7e678df739100011b1839,62bbfb3cd49be600f97778db,2022-06-29_09h22.23.080,Colour_Asymmetry_Pilot,2022.1.3,Win32,15.02133029,62bbe60bf3d75ef465d3e404,0,147,147,50,1,twoone
,,,,,,5cd7e678df739100011b1839,62bbfb3cd49be600f97778db,2022-06-29_09h22.23.080,Colour_Asymmetry_Pilot,2022.1.3,Win32,15.02133029,62bbe60bf3d75ef465d3e404,0,148,148,96,1,onetwo
,,,,,,5cd7e678df739100011b1839,62bbfb3cd49be600f97778db,2022-06-29_09h22.23.080,Colour_Asymmetry_Pilot,2022.1.3,Win32,15.02133029,62bbe60bf3d75ef465d3e404,0,149,149,86,1,fourtwo
,,,,,,5cd7e678df739100011b1839,62bbfb3cd49be600f97778db,2022-06-29_09h22.23.080,Colour_Asymmetry_Pilot,2022.1.3,Win32,15.02133029,62bbe60bf3d75ef465d3e404,0,150,150,32,1,onetwo
,,,,,,5cd7e678df739100011b1839,62bbfb3cd49be600f97778db,2022-06-29_09h22.23.080,Colour_Asymmetry_Pilot,2022.1.3,Win32,15.02133029,62bbe60bf3d75ef465d3e404,0,151,151,113,1,onethree
,,,,,,5cd7e678df739100011b1839,62bbfb3cd49be600f97778db,2022-06-29_09h22.23.080,Colour_Asymmetry_Pilot,2022.1.3,Win32,15.02133029,62bbe60bf3d75ef465d3e404,0,152,152,150,1,fourtwo
,,,,,,5cd7e678df739100011b1839,62bbfb3cd49be600f97778db,2022-06-29_09h22.23.080,Colour_Asymmetry_Pilot,2022.1.3,Win32,15.02133029,62bbe60bf3d75ef465d3e404,0,153,153,91,1,twofour
,,,,,,5cd7e678df739100011b1839,62bbfb3cd49be600f97778db,2022-06-29_09h22.23.080,Colour_Asymmetry_Pilot,2022.1.3,Win32,15.02133029,62bbe60bf3d75ef465d3e404,0,154,154,30,1,fourtwo
,,,,,,5cd7e678df739100011b1839,62bbfb3cd49be600f97778db,2022-06-29_09h22.23.080,Colour_Asymmetry_Pilot,2022.1.3,Win32,15.02133029,62bbe60bf3d75ef465d3e404,0,155,155,4,1,threeone
,,,,,,5cd7e678df739100011b1839,62bbfb3cd49be600f97778db,2022-06-29_09h22.23.080,Colour_Asymmetry_Pilot,2022.1.3,Win32,15.02133029,62bbe60bf3d75ef465d3e404,0,156,156,8,1,onetwo
,,,,,,5cd7e678df739100011b1839,62bbfb3cd49be600f97778db,2022-06-29_09h22.23.080,Colour_Asymmetry_Pilot,2022.1.3,Win32,15.02133029,62bbe60bf3d75ef465d3e404,0,157,157,103,1,fourthree
,,,,,,5cd7e678df739100011b1839,62bbfb3cd49be600f97778db,2022-06-29_09h22.23.080,Colour_Asymmetry_Pilot,2022.1.3,Win32,15.02133029,62bbe60bf3d75ef465d3e404,0,158,158,26,1,twoone
,,,,,,5cd7e678df739100011b1839,62bbfb3cd49be600f97778db,2022-06-29_09h22.23.080,Colour_Asymmetry_Pilot,2022.1.3,Win32,15.02133029,62bbe60bf3d75ef465d3e404,0,159,159,135,1,fourthree
,,,,,,5cd7e678df739100011b1839,62bbfb3cd49be600f97778db,2022-06-29_09h22.23.080,Colour_Asymmetry_Pilot,2022.1.3,Win32,15.02133029,62bbe60bf3d75ef465d3e404,0,160,160,39,1,fourthree
,,,,,,5cd7e678df739100011b1839,62bbfb3cd49be600f97778db,2022-06-29_09h22.23.080,Colour_Asymmetry_Pilot,2022.1.3,Win32,15.02133029,62bbe60bf3d75ef465d3e404,0,161,161,42,1,twoone
