trials.thisRepN,trials.thisTrialN,trials.thisN,trials.thisIndex,trials.ran,Colourcodes,participant,session,date,expName,psychopyVersion,OS,frameRate,study_id,trials_4.thisRepN,trials_4.thisTrialN,trials_4.thisN,trials_4.thisIndex,trials_4.ran,StimulusPos,key_resp.keys,key_resp.rt,key_resp_2.keys,key_resp_2.rt
0,0,0,37,1,,6138bd1ef0be33edbefe6cd1,62bbfadda516c33221066962,2022-06-29_09h10.35.226,Colour_Asymmetry_Pilot,2022.1.3,Win32,60.16485169,62bbe60bf3d75ef465d3e404,,,,,,,,,,
0,1,1,57,1,,6138bd1ef0be33edbefe6cd1,62bbfadda516c33221066962,2022-06-29_09h10.35.226,Colour_Asymmetry_Pilot,2022.1.3,Win32,60.16485169,62bbe60bf3d75ef465d3e404,,,,,,,,,,
0,2,2,29,1,,6138bd1ef0be33edbefe6cd1,62bbfadda516c33221066962,2022-06-29_09h10.35.226,Colour_Asymmetry_Pilot,2022.1.3,Win32,60.16485169,62bbe60bf3d75ef465d3e404,,,,,,,,,,
0,3,3,88,1,,6138bd1ef0be33edbefe6cd1,62bbfadda516c33221066962,2022-06-29_09h10.35.226,Colour_Asymmetry_Pilot,2022.1.3,Win32,60.16485169,62bbe60bf3d75ef465d3e404,,,,,,,,,,
0,4,4,19,1,,6138bd1ef0be33edbefe6cd1,62bbfadda516c33221066962,2022-06-29_09h10.35.226,Colour_Asymmetry_Pilot,2022.1.3,Win32,60.16485169,62bbe60bf3d75ef465d3e404,,,,,,,,,,
0,5,5,45,1,,6138bd1ef0be33edbefe6cd1,62bbfadda516c33221066962,2022-06-29_09h10.35.226,Colour_Asymmetry_Pilot,2022.1.3,Win32,60.16485169,62bbe60bf3d75ef465d3e404,,,,,,,,,,
0,6,6,91,1,,6138bd1ef0be33edbefe6cd1,62bbfadda516c33221066962,2022-06-29_09h10.35.226,Colour_Asymmetry_Pilot,2022.1.3,Win32,60.16485169,62bbe60bf3d75ef465d3e404,,,,,,,,,,
0,7,7,72,1,,6138bd1ef0be33edbefe6cd1,62bbfadda516c33221066962,2022-06-29_09h10.35.226,Colour_Asymmetry_Pilot,2022.1.3,Win32,60.16485169,62bbe60bf3d75ef465d3e404,,,,,,,,,,
0,8,8,76,1,,6138bd1ef0be33edbefe6cd1,62bbfadda516c33221066962,2022-06-29_09h10.35.226,Colour_Asymmetry_Pilot,2022.1.3,Win32,60.16485169,62bbe60bf3d75ef465d3e404,,,,,,,,,,
0,9,9,62,1,,6138bd1ef0be33edbefe6cd1,62bbfadda516c33221066962,2022-06-29_09h10.35.226,Colour_Asymmetry_Pilot,2022.1.3,Win32,60.16485169,62bbe60bf3d75ef465d3e404,,,,,,,,,,
0,10,10,78,1,,6138bd1ef0be33edbefe6cd1,62bbfadda516c33221066962,2022-06-29_09h10.35.226,Colour_Asymmetry_Pilot,2022.1.3,Win32,60.16485169,62bbe60bf3d75ef465d3e404,,,,,,,,,,
0,11,11,33,1,,6138bd1ef0be33edbefe6cd1,62bbfadda516c33221066962,2022-06-29_09h10.35.226,Colour_Asymmetry_Pilot,2022.1.3,Win32,60.16485169,62bbe60bf3d75ef465d3e404,,,,,,,,,,
0,12,12,0,1,,6138bd1ef0be33edbefe6cd1,62bbfadda516c33221066962,2022-06-29_09h10.35.226,Colour_Asymmetry_Pilot,2022.1.3,Win32,60.16485169,62bbe60bf3d75ef465d3e404,,,,,,,,,,
0,13,13,24,1,,6138bd1ef0be33edbefe6cd1,62bbfadda516c33221066962,2022-06-29_09h10.35.226,Colour_Asymmetry_Pilot,2022.1.3,Win32,60.16485169,62bbe60bf3d75ef465d3e404,,,,,,,,,,
0,14,14,42,1,,6138bd1ef0be33edbefe6cd1,62bbfadda516c33221066962,2022-06-29_09h10.35.226,Colour_Asymmetry_Pilot,2022.1.3,Win32,60.16485169,62bbe60bf3d75ef465d3e404,,,,,,,,,,
0,15,15,89,1,,6138bd1ef0be33edbefe6cd1,62bbfadda516c33221066962,2022-06-29_09h10.35.226,Colour_Asymmetry_Pilot,2022.1.3,Win32,60.16485169,62bbe60bf3d75ef465d3e404,,,,,,,,,,
0,16,16,54,1,,6138bd1ef0be33edbefe6cd1,62bbfadda516c33221066962,2022-06-29_09h10.35.226,Colour_Asymmetry_Pilot,2022.1.3,Win32,60.16485169,62bbe60bf3d75ef465d3e404,,,,,,,,,,
0,17,17,6,1,,6138bd1ef0be33edbefe6cd1,62bbfadda516c33221066962,2022-06-29_09h10.35.226,Colour_Asymmetry_Pilot,2022.1.3,Win32,60.16485169,62bbe60bf3d75ef465d3e404,,,,,,,,,,
0,18,18,79,1,,6138bd1ef0be33edbefe6cd1,62bbfadda516c33221066962,2022-06-29_09h10.35.226,Colour_Asymmetry_Pilot,2022.1.3,Win32,60.16485169,62bbe60bf3d75ef465d3e404,,,,,,,,,,
0,19,19,7,1,,6138bd1ef0be33edbefe6cd1,62bbfadda516c33221066962,2022-06-29_09h10.35.226,Colour_Asymmetry_Pilot,2022.1.3,Win32,60.16485169,62bbe60bf3d75ef465d3e404,,,,,,,,,,
0,20,20,35,1,,6138bd1ef0be33edbefe6cd1,62bbfadda516c33221066962,2022-06-29_09h10.35.226,Colour_Asymmetry_Pilot,2022.1.3,Win32,60.16485169,62bbe60bf3d75ef465d3e404,,,,,,,,,,
0,21,21,12,1,,6138bd1ef0be33edbefe6cd1,62bbfadda516c33221066962,2022-06-29_09h10.35.226,Colour_Asymmetry_Pilot,2022.1.3,Win32,60.16485169,62bbe60bf3d75ef465d3e404,,,,,,,,,,
0,22,22,90,1,,6138bd1ef0be33edbefe6cd1,62bbfadda516c33221066962,2022-06-29_09h10.35.226,Colour_Asymmetry_Pilot,2022.1.3,Win32,60.16485169,62bbe60bf3d75ef465d3e404,,,,,,,,,,
0,23,23,16,1,,6138bd1ef0be33edbefe6cd1,62bbfadda516c33221066962,2022-06-29_09h10.35.226,Colour_Asymmetry_Pilot,2022.1.3,Win32,60.16485169,62bbe60bf3d75ef465d3e404,,,,,,,,,,
0,24,24,31,1,,6138bd1ef0be33edbefe6cd1,62bbfadda516c33221066962,2022-06-29_09h10.35.226,Colour_Asymmetry_Pilot,2022.1.3,Win32,60.16485169,62bbe60bf3d75ef465d3e404,,,,,,,,,,
0,25,25,82,1,,6138bd1ef0be33edbefe6cd1,62bbfadda516c33221066962,2022-06-29_09h10.35.226,Colour_Asymmetry_Pilot,2022.1.3,Win32,60.16485169,62bbe60bf3d75ef465d3e404,,,,,,,,,,
0,26,26,39,1,,6138bd1ef0be33edbefe6cd1,62bbfadda516c33221066962,2022-06-29_09h10.35.226,Colour_Asymmetry_Pilot,2022.1.3,Win32,60.16485169,62bbe60bf3d75ef465d3e404,,,,,,,,,,
0,27,27,9,1,,6138bd1ef0be33edbefe6cd1,62bbfadda516c33221066962,2022-06-29_09h10.35.226,Colour_Asymmetry_Pilot,2022.1.3,Win32,60.16485169,62bbe60bf3d75ef465d3e404,,,,,,,,,,
0,28,28,25,1,,6138bd1ef0be33edbefe6cd1,62bbfadda516c33221066962,2022-06-29_09h10.35.226,Colour_Asymmetry_Pilot,2022.1.3,Win32,60.16485169,62bbe60bf3d75ef465d3e404,,,,,,,,,,
0,29,29,51,1,,6138bd1ef0be33edbefe6cd1,62bbfadda516c33221066962,2022-06-29_09h10.35.226,Colour_Asymmetry_Pilot,2022.1.3,Win32,60.16485169,62bbe60bf3d75ef465d3e404,,,,,,,,,,
0,30,30,87,1,,6138bd1ef0be33edbefe6cd1,62bbfadda516c33221066962,2022-06-29_09h10.35.226,Colour_Asymmetry_Pilot,2022.1.3,Win32,60.16485169,62bbe60bf3d75ef465d3e404,,,,,,,,,,
0,31,31,32,1,,6138bd1ef0be33edbefe6cd1,62bbfadda516c33221066962,2022-06-29_09h10.35.226,Colour_Asymmetry_Pilot,2022.1.3,Win32,60.16485169,62bbe60bf3d75ef465d3e404,,,,,,,,,,
0,32,32,67,1,,6138bd1ef0be33edbefe6cd1,62bbfadda516c33221066962,2022-06-29_09h10.35.226,Colour_Asymmetry_Pilot,2022.1.3,Win32,60.16485169,62bbe60bf3d75ef465d3e404,,,,,,,,,,
0,33,33,30,1,,6138bd1ef0be33edbefe6cd1,62bbfadda516c33221066962,2022-06-29_09h10.35.226,Colour_Asymmetry_Pilot,2022.1.3,Win32,60.16485169,62bbe60bf3d75ef465d3e404,,,,,,,,,,
0,34,34,36,1,,6138bd1ef0be33edbefe6cd1,62bbfadda516c33221066962,2022-06-29_09h10.35.226,Colour_Asymmetry_Pilot,2022.1.3,Win32,60.16485169,62bbe60bf3d75ef465d3e404,,,,,,,,,,
0,35,35,8,1,,6138bd1ef0be33edbefe6cd1,62bbfadda516c33221066962,2022-06-29_09h10.35.226,Colour_Asymmetry_Pilot,2022.1.3,Win32,60.16485169,62bbe60bf3d75ef465d3e404,,,,,,,,,,
0,36,36,77,1,,6138bd1ef0be33edbefe6cd1,62bbfadda516c33221066962,2022-06-29_09h10.35.226,Colour_Asymmetry_Pilot,2022.1.3,Win32,60.16485169,62bbe60bf3d75ef465d3e404,,,,,,,,,,
0,37,37,53,1,,6138bd1ef0be33edbefe6cd1,62bbfadda516c33221066962,2022-06-29_09h10.35.226,Colour_Asymmetry_Pilot,2022.1.3,Win32,60.16485169,62bbe60bf3d75ef465d3e404,,,,,,,,,,
0,38,38,50,1,,6138bd1ef0be33edbefe6cd1,62bbfadda516c33221066962,2022-06-29_09h10.35.226,Colour_Asymmetry_Pilot,2022.1.3,Win32,60.16485169,62bbe60bf3d75ef465d3e404,,,,,,,,,,
0,39,39,61,1,,6138bd1ef0be33edbefe6cd1,62bbfadda516c33221066962,2022-06-29_09h10.35.226,Colour_Asymmetry_Pilot,2022.1.3,Win32,60.16485169,62bbe60bf3d75ef465d3e404,,,,,,,,,,
0,40,40,70,1,,6138bd1ef0be33edbefe6cd1,62bbfadda516c33221066962,2022-06-29_09h10.35.226,Colour_Asymmetry_Pilot,2022.1.3,Win32,60.16485169,62bbe60bf3d75ef465d3e404,,,,,,,,,,
0,41,41,10,1,,6138bd1ef0be33edbefe6cd1,62bbfadda516c33221066962,2022-06-29_09h10.35.226,Colour_Asymmetry_Pilot,2022.1.3,Win32,60.16485169,62bbe60bf3d75ef465d3e404,,,,,,,,,,
0,42,42,2,1,,6138bd1ef0be33edbefe6cd1,62bbfadda516c33221066962,2022-06-29_09h10.35.226,Colour_Asymmetry_Pilot,2022.1.3,Win32,60.16485169,62bbe60bf3d75ef465d3e404,,,,,,,,,,
0,43,43,60,1,,6138bd1ef0be33edbefe6cd1,62bbfadda516c33221066962,2022-06-29_09h10.35.226,Colour_Asymmetry_Pilot,2022.1.3,Win32,60.16485169,62bbe60bf3d75ef465d3e404,,,,,,,,,,
0,44,44,49,1,,6138bd1ef0be33edbefe6cd1,62bbfadda516c33221066962,2022-06-29_09h10.35.226,Colour_Asymmetry_Pilot,2022.1.3,Win32,60.16485169,62bbe60bf3d75ef465d3e404,,,,,,,,,,
0,45,45,52,1,,6138bd1ef0be33edbefe6cd1,62bbfadda516c33221066962,2022-06-29_09h10.35.226,Colour_Asymmetry_Pilot,2022.1.3,Win32,60.16485169,62bbe60bf3d75ef465d3e404,,,,,,,,,,
0,46,46,86,1,,6138bd1ef0be33edbefe6cd1,62bbfadda516c33221066962,2022-06-29_09h10.35.226,Colour_Asymmetry_Pilot,2022.1.3,Win32,60.16485169,62bbe60bf3d75ef465d3e404,,,,,,,,,,
0,47,47,84,1,,6138bd1ef0be33edbefe6cd1,62bbfadda516c33221066962,2022-06-29_09h10.35.226,Colour_Asymmetry_Pilot,2022.1.3,Win32,60.16485169,62bbe60bf3d75ef465d3e404,,,,,,,,,,
0,48,48,28,1,,6138bd1ef0be33edbefe6cd1,62bbfadda516c33221066962,2022-06-29_09h10.35.226,Colour_Asymmetry_Pilot,2022.1.3,Win32,60.16485169,62bbe60bf3d75ef465d3e404,,,,,,,,,,
0,49,49,41,1,,6138bd1ef0be33edbefe6cd1,62bbfadda516c33221066962,2022-06-29_09h10.35.226,Colour_Asymmetry_Pilot,2022.1.3,Win32,60.16485169,62bbe60bf3d75ef465d3e404,,,,,,,,,,
0,50,50,81,1,,6138bd1ef0be33edbefe6cd1,62bbfadda516c33221066962,2022-06-29_09h10.35.226,Colour_Asymmetry_Pilot,2022.1.3,Win32,60.16485169,62bbe60bf3d75ef465d3e404,,,,,,,,,,
0,51,51,17,1,,6138bd1ef0be33edbefe6cd1,62bbfadda516c33221066962,2022-06-29_09h10.35.226,Colour_Asymmetry_Pilot,2022.1.3,Win32,60.16485169,62bbe60bf3d75ef465d3e404,,,,,,,,,,
0,52,52,56,1,,6138bd1ef0be33edbefe6cd1,62bbfadda516c33221066962,2022-06-29_09h10.35.226,Colour_Asymmetry_Pilot,2022.1.3,Win32,60.16485169,62bbe60bf3d75ef465d3e404,,,,,,,,,,
0,53,53,65,1,,6138bd1ef0be33edbefe6cd1,62bbfadda516c33221066962,2022-06-29_09h10.35.226,Colour_Asymmetry_Pilot,2022.1.3,Win32,60.16485169,62bbe60bf3d75ef465d3e404,,,,,,,,,,
0,54,54,63,1,,6138bd1ef0be33edbefe6cd1,62bbfadda516c33221066962,2022-06-29_09h10.35.226,Colour_Asymmetry_Pilot,2022.1.3,Win32,60.16485169,62bbe60bf3d75ef465d3e404,,,,,,,,,,
0,55,55,80,1,,6138bd1ef0be33edbefe6cd1,62bbfadda516c33221066962,2022-06-29_09h10.35.226,Colour_Asymmetry_Pilot,2022.1.3,Win32,60.16485169,62bbe60bf3d75ef465d3e404,,,,,,,,,,
0,56,56,26,1,,6138bd1ef0be33edbefe6cd1,62bbfadda516c33221066962,2022-06-29_09h10.35.226,Colour_Asymmetry_Pilot,2022.1.3,Win32,60.16485169,62bbe60bf3d75ef465d3e404,,,,,,,,,,
0,57,57,18,1,,6138bd1ef0be33edbefe6cd1,62bbfadda516c33221066962,2022-06-29_09h10.35.226,Colour_Asymmetry_Pilot,2022.1.3,Win32,60.16485169,62bbe60bf3d75ef465d3e404,,,,,,,,,,
0,58,58,23,1,,6138bd1ef0be33edbefe6cd1,62bbfadda516c33221066962,2022-06-29_09h10.35.226,Colour_Asymmetry_Pilot,2022.1.3,Win32,60.16485169,62bbe60bf3d75ef465d3e404,,,,,,,,,,
0,59,59,21,1,,6138bd1ef0be33edbefe6cd1,62bbfadda516c33221066962,2022-06-29_09h10.35.226,Colour_Asymmetry_Pilot,2022.1.3,Win32,60.16485169,62bbe60bf3d75ef465d3e404,,,,,,,,,,
0,60,60,85,1,,6138bd1ef0be33edbefe6cd1,62bbfadda516c33221066962,2022-06-29_09h10.35.226,Colour_Asymmetry_Pilot,2022.1.3,Win32,60.16485169,62bbe60bf3d75ef465d3e404,,,,,,,,,,
0,61,61,66,1,,6138bd1ef0be33edbefe6cd1,62bbfadda516c33221066962,2022-06-29_09h10.35.226,Colour_Asymmetry_Pilot,2022.1.3,Win32,60.16485169,62bbe60bf3d75ef465d3e404,,,,,,,,,,
0,62,62,27,1,,6138bd1ef0be33edbefe6cd1,62bbfadda516c33221066962,2022-06-29_09h10.35.226,Colour_Asymmetry_Pilot,2022.1.3,Win32,60.16485169,62bbe60bf3d75ef465d3e404,,,,,,,,,,
0,63,63,44,1,,6138bd1ef0be33edbefe6cd1,62bbfadda516c33221066962,2022-06-29_09h10.35.226,Colour_Asymmetry_Pilot,2022.1.3,Win32,60.16485169,62bbe60bf3d75ef465d3e404,,,,,,,,,,
0,64,64,46,1,,6138bd1ef0be33edbefe6cd1,62bbfadda516c33221066962,2022-06-29_09h10.35.226,Colour_Asymmetry_Pilot,2022.1.3,Win32,60.16485169,62bbe60bf3d75ef465d3e404,,,,,,,,,,
0,65,65,40,1,,6138bd1ef0be33edbefe6cd1,62bbfadda516c33221066962,2022-06-29_09h10.35.226,Colour_Asymmetry_Pilot,2022.1.3,Win32,60.16485169,62bbe60bf3d75ef465d3e404,,,,,,,,,,
0,66,66,64,1,,6138bd1ef0be33edbefe6cd1,62bbfadda516c33221066962,2022-06-29_09h10.35.226,Colour_Asymmetry_Pilot,2022.1.3,Win32,60.16485169,62bbe60bf3d75ef465d3e404,,,,,,,,,,
0,67,67,47,1,,6138bd1ef0be33edbefe6cd1,62bbfadda516c33221066962,2022-06-29_09h10.35.226,Colour_Asymmetry_Pilot,2022.1.3,Win32,60.16485169,62bbe60bf3d75ef465d3e404,,,,,,,,,,
0,68,68,1,1,,6138bd1ef0be33edbefe6cd1,62bbfadda516c33221066962,2022-06-29_09h10.35.226,Colour_Asymmetry_Pilot,2022.1.3,Win32,60.16485169,62bbe60bf3d75ef465d3e404,,,,,,,,,,
0,69,69,15,1,,6138bd1ef0be33edbefe6cd1,62bbfadda516c33221066962,2022-06-29_09h10.35.226,Colour_Asymmetry_Pilot,2022.1.3,Win32,60.16485169,62bbe60bf3d75ef465d3e404,,,,,,,,,,
0,70,70,69,1,,6138bd1ef0be33edbefe6cd1,62bbfadda516c33221066962,2022-06-29_09h10.35.226,Colour_Asymmetry_Pilot,2022.1.3,Win32,60.16485169,62bbe60bf3d75ef465d3e404,,,,,,,,,,
0,71,71,75,1,,6138bd1ef0be33edbefe6cd1,62bbfadda516c33221066962,2022-06-29_09h10.35.226,Colour_Asymmetry_Pilot,2022.1.3,Win32,60.16485169,62bbe60bf3d75ef465d3e404,,,,,,,,,,
0,72,72,83,1,,6138bd1ef0be33edbefe6cd1,62bbfadda516c33221066962,2022-06-29_09h10.35.226,Colour_Asymmetry_Pilot,2022.1.3,Win32,60.16485169,62bbe60bf3d75ef465d3e404,,,,,,,,,,
0,73,73,58,1,,6138bd1ef0be33edbefe6cd1,62bbfadda516c33221066962,2022-06-29_09h10.35.226,Colour_Asymmetry_Pilot,2022.1.3,Win32,60.16485169,62bbe60bf3d75ef465d3e404,,,,,,,,,,
0,74,74,43,1,,6138bd1ef0be33edbefe6cd1,62bbfadda516c33221066962,2022-06-29_09h10.35.226,Colour_Asymmetry_Pilot,2022.1.3,Win32,60.16485169,62bbe60bf3d75ef465d3e404,,,,,,,,,,
0,75,75,48,1,,6138bd1ef0be33edbefe6cd1,62bbfadda516c33221066962,2022-06-29_09h10.35.226,Colour_Asymmetry_Pilot,2022.1.3,Win32,60.16485169,62bbe60bf3d75ef465d3e404,,,,,,,,,,
0,76,76,74,1,,6138bd1ef0be33edbefe6cd1,62bbfadda516c33221066962,2022-06-29_09h10.35.226,Colour_Asymmetry_Pilot,2022.1.3,Win32,60.16485169,62bbe60bf3d75ef465d3e404,,,,,,,,,,
0,77,77,13,1,,6138bd1ef0be33edbefe6cd1,62bbfadda516c33221066962,2022-06-29_09h10.35.226,Colour_Asymmetry_Pilot,2022.1.3,Win32,60.16485169,62bbe60bf3d75ef465d3e404,,,,,,,,,,
0,78,78,38,1,,6138bd1ef0be33edbefe6cd1,62bbfadda516c33221066962,2022-06-29_09h10.35.226,Colour_Asymmetry_Pilot,2022.1.3,Win32,60.16485169,62bbe60bf3d75ef465d3e404,,,,,,,,,,
0,79,79,4,1,,6138bd1ef0be33edbefe6cd1,62bbfadda516c33221066962,2022-06-29_09h10.35.226,Colour_Asymmetry_Pilot,2022.1.3,Win32,60.16485169,62bbe60bf3d75ef465d3e404,,,,,,,,,,
0,80,80,11,1,,6138bd1ef0be33edbefe6cd1,62bbfadda516c33221066962,2022-06-29_09h10.35.226,Colour_Asymmetry_Pilot,2022.1.3,Win32,60.16485169,62bbe60bf3d75ef465d3e404,,,,,,,,,,
0,81,81,34,1,,6138bd1ef0be33edbefe6cd1,62bbfadda516c33221066962,2022-06-29_09h10.35.226,Colour_Asymmetry_Pilot,2022.1.3,Win32,60.16485169,62bbe60bf3d75ef465d3e404,,,,,,,,,,
0,82,82,5,1,,6138bd1ef0be33edbefe6cd1,62bbfadda516c33221066962,2022-06-29_09h10.35.226,Colour_Asymmetry_Pilot,2022.1.3,Win32,60.16485169,62bbe60bf3d75ef465d3e404,,,,,,,,,,
0,83,83,73,1,,6138bd1ef0be33edbefe6cd1,62bbfadda516c33221066962,2022-06-29_09h10.35.226,Colour_Asymmetry_Pilot,2022.1.3,Win32,60.16485169,62bbe60bf3d75ef465d3e404,,,,,,,,,,
0,84,84,68,1,,6138bd1ef0be33edbefe6cd1,62bbfadda516c33221066962,2022-06-29_09h10.35.226,Colour_Asymmetry_Pilot,2022.1.3,Win32,60.16485169,62bbe60bf3d75ef465d3e404,,,,,,,,,,
0,85,85,22,1,,6138bd1ef0be33edbefe6cd1,62bbfadda516c33221066962,2022-06-29_09h10.35.226,Colour_Asymmetry_Pilot,2022.1.3,Win32,60.16485169,62bbe60bf3d75ef465d3e404,,,,,,,,,,
0,86,86,59,1,,6138bd1ef0be33edbefe6cd1,62bbfadda516c33221066962,2022-06-29_09h10.35.226,Colour_Asymmetry_Pilot,2022.1.3,Win32,60.16485169,62bbe60bf3d75ef465d3e404,,,,,,,,,,
0,87,87,3,1,,6138bd1ef0be33edbefe6cd1,62bbfadda516c33221066962,2022-06-29_09h10.35.226,Colour_Asymmetry_Pilot,2022.1.3,Win32,60.16485169,62bbe60bf3d75ef465d3e404,,,,,,,,,,
0,88,88,92,1,,6138bd1ef0be33edbefe6cd1,62bbfadda516c33221066962,2022-06-29_09h10.35.226,Colour_Asymmetry_Pilot,2022.1.3,Win32,60.16485169,62bbe60bf3d75ef465d3e404,,,,,,,,,,
0,89,89,14,1,,6138bd1ef0be33edbefe6cd1,62bbfadda516c33221066962,2022-06-29_09h10.35.226,Colour_Asymmetry_Pilot,2022.1.3,Win32,60.16485169,62bbe60bf3d75ef465d3e404,,,,,,,,,,
0,90,90,20,1,,6138bd1ef0be33edbefe6cd1,62bbfadda516c33221066962,2022-06-29_09h10.35.226,Colour_Asymmetry_Pilot,2022.1.3,Win32,60.16485169,62bbe60bf3d75ef465d3e404,,,,,,,,,,
0,91,91,71,1,,6138bd1ef0be33edbefe6cd1,62bbfadda516c33221066962,2022-06-29_09h10.35.226,Colour_Asymmetry_Pilot,2022.1.3,Win32,60.16485169,62bbe60bf3d75ef465d3e404,,,,,,,,,,
0,92,92,55,1,,6138bd1ef0be33edbefe6cd1,62bbfadda516c33221066962,2022-06-29_09h10.35.226,Colour_Asymmetry_Pilot,2022.1.3,Win32,60.16485169,62bbe60bf3d75ef465d3e404,,,,,,,,,,
,,,,,,6138bd1ef0be33edbefe6cd1,62bbfadda516c33221066962,2022-06-29_09h10.35.226,Colour_Asymmetry_Pilot,2022.1.3,Win32,60.16485169,62bbe60bf3d75ef465d3e404,0,0,0,143,1,fourthree,,,,
,,,,,,6138bd1ef0be33edbefe6cd1,62bbfadda516c33221066962,2022-06-29_09h10.35.226,Colour_Asymmetry_Pilot,2022.1.3,Win32,60.16485169,62bbe60bf3d75ef465d3e404,0,1,1,18,1,twoone,,,,
,,,,,,6138bd1ef0be33edbefe6cd1,62bbfadda516c33221066962,2022-06-29_09h10.35.226,Colour_Asymmetry_Pilot,2022.1.3,Win32,60.16485169,62bbe60bf3d75ef465d3e404,0,2,2,2,1,twoone,,,,
,,,,,,6138bd1ef0be33edbefe6cd1,62bbfadda516c33221066962,2022-06-29_09h10.35.226,Colour_Asymmetry_Pilot,2022.1.3,Win32,60.16485169,62bbe60bf3d75ef465d3e404,0,3,3,76,1,threeone,,,,
,,,,,,6138bd1ef0be33edbefe6cd1,62bbfadda516c33221066962,2022-06-29_09h10.35.226,Colour_Asymmetry_Pilot,2022.1.3,Win32,60.16485169,62bbe60bf3d75ef465d3e404,0,4,4,22,1,fourtwo,,,,
,,,,,,6138bd1ef0be33edbefe6cd1,62bbfadda516c33221066962,2022-06-29_09h10.35.226,Colour_Asymmetry_Pilot,2022.1.3,Win32,60.16485169,62bbe60bf3d75ef465d3e404,0,5,5,97,1,onethree,,,,
,,,,,,6138bd1ef0be33edbefe6cd1,62bbfadda516c33221066962,2022-06-29_09h10.35.226,Colour_Asymmetry_Pilot,2022.1.3,Win32,60.16485169,62bbe60bf3d75ef465d3e404,0,6,6,83,1,twofour,,,,
,,,,,,6138bd1ef0be33edbefe6cd1,62bbfadda516c33221066962,2022-06-29_09h10.35.226,Colour_Asymmetry_Pilot,2022.1.3,Win32,60.16485169,62bbe60bf3d75ef465d3e404,0,7,7,129,1,onethree,,,,
,,,,,,6138bd1ef0be33edbefe6cd1,62bbfadda516c33221066962,2022-06-29_09h10.35.226,Colour_Asymmetry_Pilot,2022.1.3,Win32,60.16485169,62bbe60bf3d75ef465d3e404,0,8,8,131,1,twofour,,,,
,,,,,,6138bd1ef0be33edbefe6cd1,62bbfadda516c33221066962,2022-06-29_09h10.35.226,Colour_Asymmetry_Pilot,2022.1.3,Win32,60.16485169,62bbe60bf3d75ef465d3e404,0,9,9,5,1,threefour,,,,
,,,,,,6138bd1ef0be33edbefe6cd1,62bbfadda516c33221066962,2022-06-29_09h10.35.226,Colour_Asymmetry_Pilot,2022.1.3,Win32,60.16485169,62bbe60bf3d75ef465d3e404,0,10,10,126,1,fourtwo,,,,
,,,,,,6138bd1ef0be33edbefe6cd1,62bbfadda516c33221066962,2022-06-29_09h10.35.226,Colour_Asymmetry_Pilot,2022.1.3,Win32,60.16485169,62bbe60bf3d75ef465d3e404,0,11,11,148,1,threeone,,,,
,,,,,,6138bd1ef0be33edbefe6cd1,62bbfadda516c33221066962,2022-06-29_09h10.35.226,Colour_Asymmetry_Pilot,2022.1.3,Win32,60.16485169,62bbe60bf3d75ef465d3e404,0,12,12,125,1,threefour,,,,
,,,,,,6138bd1ef0be33edbefe6cd1,62bbfadda516c33221066962,2022-06-29_09h10.35.226,Colour_Asymmetry_Pilot,2022.1.3,Win32,60.16485169,62bbe60bf3d75ef465d3e404,0,13,13,11,1,twofour,,,,
,,,,,,6138bd1ef0be33edbefe6cd1,62bbfadda516c33221066962,2022-06-29_09h10.35.226,Colour_Asymmetry_Pilot,2022.1.3,Win32,60.16485169,62bbe60bf3d75ef465d3e404,0,14,14,115,1,twofour,,,,
,,,,,,6138bd1ef0be33edbefe6cd1,62bbfadda516c33221066962,2022-06-29_09h10.35.226,Colour_Asymmetry_Pilot,2022.1.3,Win32,60.16485169,62bbe60bf3d75ef465d3e404,0,15,15,85,1,threefour,,,,
,,,,,,6138bd1ef0be33edbefe6cd1,62bbfadda516c33221066962,2022-06-29_09h10.35.226,Colour_Asymmetry_Pilot,2022.1.3,Win32,60.16485169,62bbe60bf3d75ef465d3e404,0,16,16,127,1,fourthree,,,,
,,,,,,6138bd1ef0be33edbefe6cd1,62bbfadda516c33221066962,2022-06-29_09h10.35.226,Colour_Asymmetry_Pilot,2022.1.3,Win32,60.16485169,62bbe60bf3d75ef465d3e404,0,17,17,103,1,fourthree,,,,
,,,,,,6138bd1ef0be33edbefe6cd1,62bbfadda516c33221066962,2022-06-29_09h10.35.226,Colour_Asymmetry_Pilot,2022.1.3,Win32,60.16485169,62bbe60bf3d75ef465d3e404,0,18,18,8,1,onetwo,,,,
,,,,,,6138bd1ef0be33edbefe6cd1,62bbfadda516c33221066962,2022-06-29_09h10.35.226,Colour_Asymmetry_Pilot,2022.1.3,Win32,60.16485169,62bbe60bf3d75ef465d3e404,0,19,19,24,1,onetwo,,,,
,,,,,,6138bd1ef0be33edbefe6cd1,62bbfadda516c33221066962,2022-06-29_09h10.35.226,Colour_Asymmetry_Pilot,2022.1.3,Win32,60.16485169,62bbe60bf3d75ef465d3e404,0,20,20,110,1,fourtwo,,,,
,,,,,,6138bd1ef0be33edbefe6cd1,62bbfadda516c33221066962,2022-06-29_09h10.35.226,Colour_Asymmetry_Pilot,2022.1.3,Win32,60.16485169,62bbe60bf3d75ef465d3e404,0,21,21,142,1,fourtwo,,,,
,,,,,,6138bd1ef0be33edbefe6cd1,62bbfadda516c33221066962,2022-06-29_09h10.35.226,Colour_Asymmetry_Pilot,2022.1.3,Win32,60.16485169,62bbe60bf3d75ef465d3e404,0,22,22,122,1,twoone,,,,
,,,,,,6138bd1ef0be33edbefe6cd1,62bbfadda516c33221066962,2022-06-29_09h10.35.226,Colour_Asymmetry_Pilot,2022.1.3,Win32,60.16485169,62bbe60bf3d75ef465d3e404,0,23,23,124,1,threeone,,,,
,,,,,,6138bd1ef0be33edbefe6cd1,62bbfadda516c33221066962,2022-06-29_09h10.35.226,Colour_Asymmetry_Pilot,2022.1.3,Win32,60.16485169,62bbe60bf3d75ef465d3e404,0,24,24,61,1,threefour,,,,
,,,,,,6138bd1ef0be33edbefe6cd1,62bbfadda516c33221066962,2022-06-29_09h10.35.226,Colour_Asymmetry_Pilot,2022.1.3,Win32,60.16485169,62bbe60bf3d75ef465d3e404,0,25,25,116,1,threeone,,,,
,,,,,,6138bd1ef0be33edbefe6cd1,62bbfadda516c33221066962,2022-06-29_09h10.35.226,Colour_Asymmetry_Pilot,2022.1.3,Win32,60.16485169,62bbe60bf3d75ef465d3e404,0,26,26,140,1,threeone,,,,
,,,,,,6138bd1ef0be33edbefe6cd1,62bbfadda516c33221066962,2022-06-29_09h10.35.226,Colour_Asymmetry_Pilot,2022.1.3,Win32,60.16485169,62bbe60bf3d75ef465d3e404,0,27,27,6,1,fourtwo,,,,
,,,,,,6138bd1ef0be33edbefe6cd1,62bbfadda516c33221066962,2022-06-29_09h10.35.226,Colour_Asymmetry_Pilot,2022.1.3,Win32,60.16485169,62bbe60bf3d75ef465d3e404,0,28,28,67,1,twofour,,,,
,,,,,,6138bd1ef0be33edbefe6cd1,62bbfadda516c33221066962,2022-06-29_09h10.35.226,Colour_Asymmetry_Pilot,2022.1.3,Win32,60.16485169,62bbe60bf3d75ef465d3e404,0,29,29,151,1,fourthree,,,,
,,,,,,6138bd1ef0be33edbefe6cd1,62bbfadda516c33221066962,2022-06-29_09h10.35.226,Colour_Asymmetry_Pilot,2022.1.3,Win32,60.16485169,62bbe60bf3d75ef465d3e404,0,30,30,51,1,twofour,,,,
,,,,,,6138bd1ef0be33edbefe6cd1,62bbfadda516c33221066962,2022-06-29_09h10.35.226,Colour_Asymmetry_Pilot,2022.1.3,Win32,60.16485169,62bbe60bf3d75ef465d3e404,0,31,31,156,1,threeone,,,,
,,,,,,6138bd1ef0be33edbefe6cd1,62bbfadda516c33221066962,2022-06-29_09h10.35.226,Colour_Asymmetry_Pilot,2022.1.3,Win32,60.16485169,62bbe60bf3d75ef465d3e404,0,32,32,155,1,twofour,,,,
,,,,,,6138bd1ef0be33edbefe6cd1,62bbfadda516c33221066962,2022-06-29_09h10.35.226,Colour_Asymmetry_Pilot,2022.1.3,Win32,60.16485169,62bbe60bf3d75ef465d3e404,0,33,33,121,1,onethree,,,,
,,,,,,6138bd1ef0be33edbefe6cd1,62bbfadda516c33221066962,2022-06-29_09h10.35.226,Colour_Asymmetry_Pilot,2022.1.3,Win32,60.16485169,62bbe60bf3d75ef465d3e404,0,34,34,31,1,fourthree,,,,
,,,,,,6138bd1ef0be33edbefe6cd1,62bbfadda516c33221066962,2022-06-29_09h10.35.226,Colour_Asymmetry_Pilot,2022.1.3,Win32,60.16485169,62bbe60bf3d75ef465d3e404,0,35,35,77,1,threefour,,,,
,,,,,,6138bd1ef0be33edbefe6cd1,62bbfadda516c33221066962,2022-06-29_09h10.35.226,Colour_Asymmetry_Pilot,2022.1.3,Win32,60.16485169,62bbe60bf3d75ef465d3e404,0,36,36,50,1,twoone,,,,
,,,,,,6138bd1ef0be33edbefe6cd1,62bbfadda516c33221066962,2022-06-29_09h10.35.226,Colour_Asymmetry_Pilot,2022.1.3,Win32,60.16485169,62bbe60bf3d75ef465d3e404,0,37,37,53,1,threefour,,,,
,,,,,,6138bd1ef0be33edbefe6cd1,62bbfadda516c33221066962,2022-06-29_09h10.35.226,Colour_Asymmetry_Pilot,2022.1.3,Win32,60.16485169,62bbe60bf3d75ef465d3e404,0,38,38,119,1,fourthree,,,,
,,,,,,6138bd1ef0be33edbefe6cd1,62bbfadda516c33221066962,2022-06-29_09h10.35.226,Colour_Asymmetry_Pilot,2022.1.3,Win32,60.16485169,62bbe60bf3d75ef465d3e404,0,39,39,135,1,fourthree,,,,
,,,,,,6138bd1ef0be33edbefe6cd1,62bbfadda516c33221066962,2022-06-29_09h10.35.226,Colour_Asymmetry_Pilot,2022.1.3,Win32,60.16485169,62bbe60bf3d75ef465d3e404,0,40,40,109,1,threefour,,,,
,,,,,,6138bd1ef0be33edbefe6cd1,62bbfadda516c33221066962,2022-06-29_09h10.35.226,Colour_Asymmetry_Pilot,2022.1.3,Win32,60.16485169,62bbe60bf3d75ef465d3e404,0,41,41,58,1,twoone,,,,
,,,,,,6138bd1ef0be33edbefe6cd1,62bbfadda516c33221066962,2022-06-29_09h10.35.226,Colour_Asymmetry_Pilot,2022.1.3,Win32,60.16485169,62bbe60bf3d75ef465d3e404,0,42,42,13,1,threefour,,,,
,,,,,,6138bd1ef0be33edbefe6cd1,62bbfadda516c33221066962,2022-06-29_09h10.35.226,Colour_Asymmetry_Pilot,2022.1.3,Win32,60.16485169,62bbe60bf3d75ef465d3e404,0,43,43,133,1,threefour,,,,
,,,,,,6138bd1ef0be33edbefe6cd1,62bbfadda516c33221066962,2022-06-29_09h10.35.226,Colour_Asymmetry_Pilot,2022.1.3,Win32,60.16485169,62bbe60bf3d75ef465d3e404,0,44,44,89,1,onethree,,,,
,,,,,,6138bd1ef0be33edbefe6cd1,62bbfadda516c33221066962,2022-06-29_09h10.35.226,Colour_Asymmetry_Pilot,2022.1.3,Win32,60.16485169,62bbe60bf3d75ef465d3e404,0,45,45,139,1,twofour,,,,
,,,,,,6138bd1ef0be33edbefe6cd1,62bbfadda516c33221066962,2022-06-29_09h10.35.226,Colour_Asymmetry_Pilot,2022.1.3,Win32,60.16485169,62bbe60bf3d75ef465d3e404,0,46,46,144,1,onetwo,,,,
,,,,,,6138bd1ef0be33edbefe6cd1,62bbfadda516c33221066962,2022-06-29_09h10.35.226,Colour_Asymmetry_Pilot,2022.1.3,Win32,60.16485169,62bbe60bf3d75ef465d3e404,0,47,47,95,1,fourthree,,,,
,,,,,,6138bd1ef0be33edbefe6cd1,62bbfadda516c33221066962,2022-06-29_09h10.35.226,Colour_Asymmetry_Pilot,2022.1.3,Win32,60.16485169,62bbe60bf3d75ef465d3e404,0,48,48,21,1,threefour,,,,
,,,,,,6138bd1ef0be33edbefe6cd1,62bbfadda516c33221066962,2022-06-29_09h10.35.226,Colour_Asymmetry_Pilot,2022.1.3,Win32,60.16485169,62bbe60bf3d75ef465d3e404,0,49,49,54,1,fourtwo,,,,
,,,,,,6138bd1ef0be33edbefe6cd1,62bbfadda516c33221066962,2022-06-29_09h10.35.226,Colour_Asymmetry_Pilot,2022.1.3,Win32,60.16485169,62bbe60bf3d75ef465d3e404,0,50,50,64,1,onetwo,,,,
,,,,,,6138bd1ef0be33edbefe6cd1,62bbfadda516c33221066962,2022-06-29_09h10.35.226,Colour_Asymmetry_Pilot,2022.1.3,Win32,60.16485169,62bbe60bf3d75ef465d3e404,0,51,51,29,1,threefour,,,,
,,,,,,6138bd1ef0be33edbefe6cd1,62bbfadda516c33221066962,2022-06-29_09h10.35.226,Colour_Asymmetry_Pilot,2022.1.3,Win32,60.16485169,62bbe60bf3d75ef465d3e404,0,52,52,130,1,twoone,,,,
,,,,,,6138bd1ef0be33edbefe6cd1,62bbfadda516c33221066962,2022-06-29_09h10.35.226,Colour_Asymmetry_Pilot,2022.1.3,Win32,60.16485169,62bbe60bf3d75ef465d3e404,0,53,53,57,1,onethree,,,,
,,,,,,6138bd1ef0be33edbefe6cd1,62bbfadda516c33221066962,2022-06-29_09h10.35.226,Colour_Asymmetry_Pilot,2022.1.3,Win32,60.16485169,62bbe60bf3d75ef465d3e404,0,54,54,63,1,fourthree,,,,
,,,,,,6138bd1ef0be33edbefe6cd1,62bbfadda516c33221066962,2022-06-29_09h10.35.226,Colour_Asymmetry_Pilot,2022.1.3,Win32,60.16485169,62bbe60bf3d75ef465d3e404,0,55,55,10,1,twoone,,,,
,,,,,,6138bd1ef0be33edbefe6cd1,62bbfadda516c33221066962,2022-06-29_09h10.35.226,Colour_Asymmetry_Pilot,2022.1.3,Win32,60.16485169,62bbe60bf3d75ef465d3e404,0,56,56,81,1,onethree,,,,
,,,,,,6138bd1ef0be33edbefe6cd1,62bbfadda516c33221066962,2022-06-29_09h10.35.226,Colour_Asymmetry_Pilot,2022.1.3,Win32,60.16485169,62bbe60bf3d75ef465d3e404,0,57,57,84,1,threeone,,,,
,,,,,,6138bd1ef0be33edbefe6cd1,62bbfadda516c33221066962,2022-06-29_09h10.35.226,Colour_Asymmetry_Pilot,2022.1.3,Win32,60.16485169,62bbe60bf3d75ef465d3e404,0,58,58,62,1,fourtwo,,,,
,,,,,,6138bd1ef0be33edbefe6cd1,62bbfadda516c33221066962,2022-06-29_09h10.35.226,Colour_Asymmetry_Pilot,2022.1.3,Win32,60.16485169,62bbe60bf3d75ef465d3e404,0,59,59,43,1,twofour,,,,
,,,,,,6138bd1ef0be33edbefe6cd1,62bbfadda516c33221066962,2022-06-29_09h10.35.226,Colour_Asymmetry_Pilot,2022.1.3,Win32,60.16485169,62bbe60bf3d75ef465d3e404,0,60,60,117,1,threefour,,,,
,,,,,,6138bd1ef0be33edbefe6cd1,62bbfadda516c33221066962,2022-06-29_09h10.35.226,Colour_Asymmetry_Pilot,2022.1.3,Win32,60.16485169,62bbe60bf3d75ef465d3e404,0,61,61,145,1,onethree,,,,
,,,,,,6138bd1ef0be33edbefe6cd1,62bbfadda516c33221066962,2022-06-29_09h10.35.226,Colour_Asymmetry_Pilot,2022.1.3,Win32,60.16485169,62bbe60bf3d75ef465d3e404,0,62,62,146,1,twoone,,,,
,,,,,,6138bd1ef0be33edbefe6cd1,62bbfadda516c33221066962,2022-06-29_09h10.35.226,Colour_Asymmetry_Pilot,2022.1.3,Win32,60.16485169,62bbe60bf3d75ef465d3e404,0,63,63,92,1,threeone,,,,
,,,,,,6138bd1ef0be33edbefe6cd1,62bbfadda516c33221066962,2022-06-29_09h10.35.226,Colour_Asymmetry_Pilot,2022.1.3,Win32,60.16485169,62bbe60bf3d75ef465d3e404,0,64,64,0,1,onetwo,,,,
,,,,,,6138bd1ef0be33edbefe6cd1,62bbfadda516c33221066962,2022-06-29_09h10.35.226,Colour_Asymmetry_Pilot,2022.1.3,Win32,60.16485169,62bbe60bf3d75ef465d3e404,0,65,65,161,1,onethree,,,,
,,,,,,6138bd1ef0be33edbefe6cd1,62bbfadda516c33221066962,2022-06-29_09h10.35.226,Colour_Asymmetry_Pilot,2022.1.3,Win32,60.16485169,62bbe60bf3d75ef465d3e404,0,66,66,137,1,onethree,,,,
,,,,,,6138bd1ef0be33edbefe6cd1,62bbfadda516c33221066962,2022-06-29_09h10.35.226,Colour_Asymmetry_Pilot,2022.1.3,Win32,60.16485169,62bbe60bf3d75ef465d3e404,0,67,67,106,1,twoone,,,,
,,,,,,6138bd1ef0be33edbefe6cd1,62bbfadda516c33221066962,2022-06-29_09h10.35.226,Colour_Asymmetry_Pilot,2022.1.3,Win32,60.16485169,62bbe60bf3d75ef465d3e404,0,68,68,23,1,fourthree,,,,
,,,,,,6138bd1ef0be33edbefe6cd1,62bbfadda516c33221066962,2022-06-29_09h10.35.226,Colour_Asymmetry_Pilot,2022.1.3,Win32,60.16485169,62bbe60bf3d75ef465d3e404,0,69,69,55,1,fourthree,,,,
,,,,,,6138bd1ef0be33edbefe6cd1,62bbfadda516c33221066962,2022-06-29_09h10.35.226,Colour_Asymmetry_Pilot,2022.1.3,Win32,60.16485169,62bbe60bf3d75ef465d3e404,0,70,70,158,1,fourtwo,,,,
,,,,,,6138bd1ef0be33edbefe6cd1,62bbfadda516c33221066962,2022-06-29_09h10.35.226,Colour_Asymmetry_Pilot,2022.1.3,Win32,60.16485169,62bbe60bf3d75ef465d3e404,0,71,71,78,1,fourtwo,,,,
,,,,,,6138bd1ef0be33edbefe6cd1,62bbfadda516c33221066962,2022-06-29_09h10.35.226,Colour_Asymmetry_Pilot,2022.1.3,Win32,60.16485169,62bbe60bf3d75ef465d3e404,0,72,72,30,1,fourtwo,,,,
,,,,,,6138bd1ef0be33edbefe6cd1,62bbfadda516c33221066962,2022-06-29_09h10.35.226,Colour_Asymmetry_Pilot,2022.1.3,Win32,60.16485169,62bbe60bf3d75ef465d3e404,0,73,73,160,1,onetwo,,,,
,,,,,,6138bd1ef0be33edbefe6cd1,62bbfadda516c33221066962,2022-06-29_09h10.35.226,Colour_Asymmetry_Pilot,2022.1.3,Win32,60.16485169,62bbe60bf3d75ef465d3e404,0,74,74,14,1,fourtwo,,,,
,,,,,,6138bd1ef0be33edbefe6cd1,62bbfadda516c33221066962,2022-06-29_09h10.35.226,Colour_Asymmetry_Pilot,2022.1.3,Win32,60.16485169,62bbe60bf3d75ef465d3e404,0,75,75,128,1,onetwo,,,,
,,,,,,6138bd1ef0be33edbefe6cd1,62bbfadda516c33221066962,2022-06-29_09h10.35.226,Colour_Asymmetry_Pilot,2022.1.3,Win32,60.16485169,62bbe60bf3d75ef465d3e404,0,76,76,90,1,twoone,,,,
,,,,,,6138bd1ef0be33edbefe6cd1,62bbfadda516c33221066962,2022-06-29_09h10.35.226,Colour_Asymmetry_Pilot,2022.1.3,Win32,60.16485169,62bbe60bf3d75ef465d3e404,0,77,77,69,1,threefour,,,,
,,,,,,6138bd1ef0be33edbefe6cd1,62bbfadda516c33221066962,2022-06-29_09h10.35.226,Colour_Asymmetry_Pilot,2022.1.3,Win32,60.16485169,62bbe60bf3d75ef465d3e404,0,78,78,36,1,threeone,,,,
,,,,,,6138bd1ef0be33edbefe6cd1,62bbfadda516c33221066962,2022-06-29_09h10.35.226,Colour_Asymmetry_Pilot,2022.1.3,Win32,60.16485169,62bbe60bf3d75ef465d3e404,0,79,79,100,1,threeone,,,,
,,,,,,6138bd1ef0be33edbefe6cd1,62bbfadda516c33221066962,2022-06-29_09h10.35.226,Colour_Asymmetry_Pilot,2022.1.3,Win32,60.16485169,62bbe60bf3d75ef465d3e404,0,80,80,52,1,threeone,,,,
,,,,,,6138bd1ef0be33edbefe6cd1,62bbfadda516c33221066962,2022-06-29_09h10.35.226,Colour_Asymmetry_Pilot,2022.1.3,Win32,60.16485169,62bbe60bf3d75ef465d3e404,0,81,81,105,1,onethree,,,,
,,,,,,6138bd1ef0be33edbefe6cd1,62bbfadda516c33221066962,2022-06-29_09h10.35.226,Colour_Asymmetry_Pilot,2022.1.3,Win32,60.16485169,62bbe60bf3d75ef465d3e404,0,82,82,35,1,twofour,,,,
,,,,,,6138bd1ef0be33edbefe6cd1,62bbfadda516c33221066962,2022-06-29_09h10.35.226,Colour_Asymmetry_Pilot,2022.1.3,Win32,60.16485169,62bbe60bf3d75ef465d3e404,0,83,83,99,1,twofour,,,,
,,,,,,6138bd1ef0be33edbefe6cd1,62bbfadda516c33221066962,2022-06-29_09h10.35.226,Colour_Asymmetry_Pilot,2022.1.3,Win32,60.16485169,62bbe60bf3d75ef465d3e404,0,84,84,48,1,onetwo,,,,
,,,,,,6138bd1ef0be33edbefe6cd1,62bbfadda516c33221066962,2022-06-29_09h10.35.226,Colour_Asymmetry_Pilot,2022.1.3,Win32,60.16485169,62bbe60bf3d75ef465d3e404,0,85,85,33,1,onethree,,,,
,,,,,,6138bd1ef0be33edbefe6cd1,62bbfadda516c33221066962,2022-06-29_09h10.35.226,Colour_Asymmetry_Pilot,2022.1.3,Win32,60.16485169,62bbe60bf3d75ef465d3e404,0,86,86,93,1,threefour,,,,
,,,,,,6138bd1ef0be33edbefe6cd1,62bbfadda516c33221066962,2022-06-29_09h10.35.226,Colour_Asymmetry_Pilot,2022.1.3,Win32,60.16485169,62bbe60bf3d75ef465d3e404,0,87,87,113,1,onethree,,,,
,,,,,,6138bd1ef0be33edbefe6cd1,62bbfadda516c33221066962,2022-06-29_09h10.35.226,Colour_Asymmetry_Pilot,2022.1.3,Win32,60.16485169,62bbe60bf3d75ef465d3e404,0,88,88,59,1,twofour,,,,
,,,,,,6138bd1ef0be33edbefe6cd1,62bbfadda516c33221066962,2022-06-29_09h10.35.226,Colour_Asymmetry_Pilot,2022.1.3,Win32,60.16485169,62bbe60bf3d75ef465d3e404,0,89,89,37,1,threefour,,,,
,,,,,,6138bd1ef0be33edbefe6cd1,62bbfadda516c33221066962,2022-06-29_09h10.35.226,Colour_Asymmetry_Pilot,2022.1.3,Win32,60.16485169,62bbe60bf3d75ef465d3e404,0,90,90,45,1,threefour,,,,
,,,,,,6138bd1ef0be33edbefe6cd1,62bbfadda516c33221066962,2022-06-29_09h10.35.226,Colour_Asymmetry_Pilot,2022.1.3,Win32,60.16485169,62bbe60bf3d75ef465d3e404,0,91,91,66,1,twoone,,,,
,,,,,,6138bd1ef0be33edbefe6cd1,62bbfadda516c33221066962,2022-06-29_09h10.35.226,Colour_Asymmetry_Pilot,2022.1.3,Win32,60.16485169,62bbe60bf3d75ef465d3e404,0,92,92,138,1,twoone,,,,
,,,,,,6138bd1ef0be33edbefe6cd1,62bbfadda516c33221066962,2022-06-29_09h10.35.226,Colour_Asymmetry_Pilot,2022.1.3,Win32,60.16485169,62bbe60bf3d75ef465d3e404,0,93,93,65,1,onethree,,,,
,,,,,,6138bd1ef0be33edbefe6cd1,62bbfadda516c33221066962,2022-06-29_09h10.35.226,Colour_Asymmetry_Pilot,2022.1.3,Win32,60.16485169,62bbe60bf3d75ef465d3e404,0,94,94,71,1,fourthree,,,,
,,,,,,6138bd1ef0be33edbefe6cd1,62bbfadda516c33221066962,2022-06-29_09h10.35.226,Colour_Asymmetry_Pilot,2022.1.3,Win32,60.16485169,62bbe60bf3d75ef465d3e404,0,95,95,40,1,onetwo,,,,
,,,,,,6138bd1ef0be33edbefe6cd1,62bbfadda516c33221066962,2022-06-29_09h10.35.226,Colour_Asymmetry_Pilot,2022.1.3,Win32,60.16485169,62bbe60bf3d75ef465d3e404,0,96,96,32,1,onetwo,,,,
,,,,,,6138bd1ef0be33edbefe6cd1,62bbfadda516c33221066962,2022-06-29_09h10.35.226,Colour_Asymmetry_Pilot,2022.1.3,Win32,60.16485169,62bbe60bf3d75ef465d3e404,0,97,97,147,1,twofour,,,,
,,,,,,6138bd1ef0be33edbefe6cd1,62bbfadda516c33221066962,2022-06-29_09h10.35.226,Colour_Asymmetry_Pilot,2022.1.3,Win32,60.16485169,62bbe60bf3d75ef465d3e404,0,98,98,73,1,onethree,,,,
,,,,,,6138bd1ef0be33edbefe6cd1,62bbfadda516c33221066962,2022-06-29_09h10.35.226,Colour_Asymmetry_Pilot,2022.1.3,Win32,60.16485169,62bbe60bf3d75ef465d3e404,0,99,99,41,1,onethree,,,,
,,,,,,6138bd1ef0be33edbefe6cd1,62bbfadda516c33221066962,2022-06-29_09h10.35.226,Colour_Asymmetry_Pilot,2022.1.3,Win32,60.16485169,62bbe60bf3d75ef465d3e404,0,100,100,96,1,onetwo,,,,
,,,,,,6138bd1ef0be33edbefe6cd1,62bbfadda516c33221066962,2022-06-29_09h10.35.226,Colour_Asymmetry_Pilot,2022.1.3,Win32,60.16485169,62bbe60bf3d75ef465d3e404,0,101,101,9,1,onethree,,,,
,,,,,,6138bd1ef0be33edbefe6cd1,62bbfadda516c33221066962,2022-06-29_09h10.35.226,Colour_Asymmetry_Pilot,2022.1.3,Win32,60.16485169,62bbe60bf3d75ef465d3e404,0,102,102,91,1,twofour,,,,
,,,,,,6138bd1ef0be33edbefe6cd1,62bbfadda516c33221066962,2022-06-29_09h10.35.226,Colour_Asymmetry_Pilot,2022.1.3,Win32,60.16485169,62bbe60bf3d75ef465d3e404,0,103,103,153,1,onethree,,,,
,,,,,,6138bd1ef0be33edbefe6cd1,62bbfadda516c33221066962,2022-06-29_09h10.35.226,Colour_Asymmetry_Pilot,2022.1.3,Win32,60.16485169,62bbe60bf3d75ef465d3e404,0,104,104,107,1,twofour,,,,
,,,,,,6138bd1ef0be33edbefe6cd1,62bbfadda516c33221066962,2022-06-29_09h10.35.226,Colour_Asymmetry_Pilot,2022.1.3,Win32,60.16485169,62bbe60bf3d75ef465d3e404,0,105,105,3,1,twofour,,,,
,,,,,,6138bd1ef0be33edbefe6cd1,62bbfadda516c33221066962,2022-06-29_09h10.35.226,Colour_Asymmetry_Pilot,2022.1.3,Win32,60.16485169,62bbe60bf3d75ef465d3e404,0,106,106,87,1,fourthree,,,,
,,,,,,6138bd1ef0be33edbefe6cd1,62bbfadda516c33221066962,2022-06-29_09h10.35.226,Colour_Asymmetry_Pilot,2022.1.3,Win32,60.16485169,62bbe60bf3d75ef465d3e404,0,107,107,108,1,threeone,,,,
,,,,,,6138bd1ef0be33edbefe6cd1,62bbfadda516c33221066962,2022-06-29_09h10.35.226,Colour_Asymmetry_Pilot,2022.1.3,Win32,60.16485169,62bbe60bf3d75ef465d3e404,0,108,108,149,1,threefour,,,,
,,,,,,6138bd1ef0be33edbefe6cd1,62bbfadda516c33221066962,2022-06-29_09h10.35.226,Colour_Asymmetry_Pilot,2022.1.3,Win32,60.16485169,62bbe60bf3d75ef465d3e404,0,109,109,111,1,fourthree,,,,
,,,,,,6138bd1ef0be33edbefe6cd1,62bbfadda516c33221066962,2022-06-29_09h10.35.226,Colour_Asymmetry_Pilot,2022.1.3,Win32,60.16485169,62bbe60bf3d75ef465d3e404,0,110,110,79,1,fourthree,,,,
,,,,,,6138bd1ef0be33edbefe6cd1,62bbfadda516c33221066962,2022-06-29_09h10.35.226,Colour_Asymmetry_Pilot,2022.1.3,Win32,60.16485169,62bbe60bf3d75ef465d3e404,0,111,111,88,1,onetwo,,,,
,,,,,,6138bd1ef0be33edbefe6cd1,62bbfadda516c33221066962,2022-06-29_09h10.35.226,Colour_Asymmetry_Pilot,2022.1.3,Win32,60.16485169,62bbe60bf3d75ef465d3e404,0,112,112,123,1,twofour,,,,
,,,,,,6138bd1ef0be33edbefe6cd1,62bbfadda516c33221066962,2022-06-29_09h10.35.226,Colour_Asymmetry_Pilot,2022.1.3,Win32,60.16485169,62bbe60bf3d75ef465d3e404,0,113,113,86,1,fourtwo,,,,
,,,,,,6138bd1ef0be33edbefe6cd1,62bbfadda516c33221066962,2022-06-29_09h10.35.226,Colour_Asymmetry_Pilot,2022.1.3,Win32,60.16485169,62bbe60bf3d75ef465d3e404,0,114,114,134,1,fourtwo,,,,
,,,,,,6138bd1ef0be33edbefe6cd1,62bbfadda516c33221066962,2022-06-29_09h10.35.226,Colour_Asymmetry_Pilot,2022.1.3,Win32,60.16485169,62bbe60bf3d75ef465d3e404,0,115,115,120,1,onetwo,,,,
,,,,,,6138bd1ef0be33edbefe6cd1,62bbfadda516c33221066962,2022-06-29_09h10.35.226,Colour_Asymmetry_Pilot,2022.1.3,Win32,60.16485169,62bbe60bf3d75ef465d3e404,0,116,116,136,1,onetwo,,,,
,,,,,,6138bd1ef0be33edbefe6cd1,62bbfadda516c33221066962,2022-06-29_09h10.35.226,Colour_Asymmetry_Pilot,2022.1.3,Win32,60.16485169,62bbe60bf3d75ef465d3e404,0,117,117,16,1,onetwo,,,,
,,,,,,6138bd1ef0be33edbefe6cd1,62bbfadda516c33221066962,2022-06-29_09h10.35.226,Colour_Asymmetry_Pilot,2022.1.3,Win32,60.16485169,62bbe60bf3d75ef465d3e404,0,118,118,12,1,threeone,,,,
,,,,,,6138bd1ef0be33edbefe6cd1,62bbfadda516c33221066962,2022-06-29_09h10.35.226,Colour_Asymmetry_Pilot,2022.1.3,Win32,60.16485169,62bbe60bf3d75ef465d3e404,0,119,119,114,1,twoone,,,,
,,,,,,6138bd1ef0be33edbefe6cd1,62bbfadda516c33221066962,2022-06-29_09h10.35.226,Colour_Asymmetry_Pilot,2022.1.3,Win32,60.16485169,62bbe60bf3d75ef465d3e404,0,120,120,68,1,threeone,,,,
,,,,,,6138bd1ef0be33edbefe6cd1,62bbfadda516c33221066962,2022-06-29_09h10.35.226,Colour_Asymmetry_Pilot,2022.1.3,Win32,60.16485169,62bbe60bf3d75ef465d3e404,0,121,121,80,1,onetwo,,,,
,,,,,,6138bd1ef0be33edbefe6cd1,62bbfadda516c33221066962,2022-06-29_09h10.35.226,Colour_Asymmetry_Pilot,2022.1.3,Win32,60.16485169,62bbe60bf3d75ef465d3e404,0,122,122,47,1,fourthree,,,,
,,,,,,6138bd1ef0be33edbefe6cd1,62bbfadda516c33221066962,2022-06-29_09h10.35.226,Colour_Asymmetry_Pilot,2022.1.3,Win32,60.16485169,62bbe60bf3d75ef465d3e404,0,123,123,75,1,twofour,,,,
,,,,,,6138bd1ef0be33edbefe6cd1,62bbfadda516c33221066962,2022-06-29_09h10.35.226,Colour_Asymmetry_Pilot,2022.1.3,Win32,60.16485169,62bbe60bf3d75ef465d3e404,0,124,124,7,1,fourthree,,,,
,,,,,,6138bd1ef0be33edbefe6cd1,62bbfadda516c33221066962,2022-06-29_09h10.35.226,Colour_Asymmetry_Pilot,2022.1.3,Win32,60.16485169,62bbe60bf3d75ef465d3e404,0,125,125,94,1,fourtwo,,,,
,,,,,,6138bd1ef0be33edbefe6cd1,62bbfadda516c33221066962,2022-06-29_09h10.35.226,Colour_Asymmetry_Pilot,2022.1.3,Win32,60.16485169,62bbe60bf3d75ef465d3e404,0,126,126,15,1,fourthree,,,,
,,,,,,6138bd1ef0be33edbefe6cd1,62bbfadda516c33221066962,2022-06-29_09h10.35.226,Colour_Asymmetry_Pilot,2022.1.3,Win32,60.16485169,62bbe60bf3d75ef465d3e404,0,127,127,72,1,onetwo,,,,
,,,,,,6138bd1ef0be33edbefe6cd1,62bbfadda516c33221066962,2022-06-29_09h10.35.226,Colour_Asymmetry_Pilot,2022.1.3,Win32,60.16485169,62bbe60bf3d75ef465d3e404,0,128,128,82,1,twoone,,,,
,,,,,,6138bd1ef0be33edbefe6cd1,62bbfadda516c33221066962,2022-06-29_09h10.35.226,Colour_Asymmetry_Pilot,2022.1.3,Win32,60.16485169,62bbe60bf3d75ef465d3e404,0,129,129,132,1,threeone,,,,
,,,,,,6138bd1ef0be33edbefe6cd1,62bbfadda516c33221066962,2022-06-29_09h10.35.226,Colour_Asymmetry_Pilot,2022.1.3,Win32,60.16485169,62bbe60bf3d75ef465d3e404,0,130,130,112,1,onetwo,,,,
,,,,,,6138bd1ef0be33edbefe6cd1,62bbfadda516c33221066962,2022-06-29_09h10.35.226,Colour_Asymmetry_Pilot,2022.1.3,Win32,60.16485169,62bbe60bf3d75ef465d3e404,0,131,131,4,1,threeone,,,,
,,,,,,6138bd1ef0be33edbefe6cd1,62bbfadda516c33221066962,2022-06-29_09h10.35.226,Colour_Asymmetry_Pilot,2022.1.3,Win32,60.16485169,62bbe60bf3d75ef465d3e404,0,132,132,101,1,threefour,,,,
,,,,,,6138bd1ef0be33edbefe6cd1,62bbfadda516c33221066962,2022-06-29_09h10.35.226,Colour_Asymmetry_Pilot,2022.1.3,Win32,60.16485169,62bbe60bf3d75ef465d3e404,0,133,133,39,1,fourthree,,,,
,,,,,,6138bd1ef0be33edbefe6cd1,62bbfadda516c33221066962,2022-06-29_09h10.35.226,Colour_Asymmetry_Pilot,2022.1.3,Win32,60.16485169,62bbe60bf3d75ef465d3e404,0,134,134,60,1,threeone,,,,
,,,,,,6138bd1ef0be33edbefe6cd1,62bbfadda516c33221066962,2022-06-29_09h10.35.226,Colour_Asymmetry_Pilot,2022.1.3,Win32,60.16485169,62bbe60bf3d75ef465d3e404,0,135,135,157,1,threefour,,,,
,,,,,,6138bd1ef0be33edbefe6cd1,62bbfadda516c33221066962,2022-06-29_09h10.35.226,Colour_Asymmetry_Pilot,2022.1.3,Win32,60.16485169,62bbe60bf3d75ef465d3e404,0,136,136,104,1,onetwo,,,,
,,,,,,6138bd1ef0be33edbefe6cd1,62bbfadda516c33221066962,2022-06-29_09h10.35.226,Colour_Asymmetry_Pilot,2022.1.3,Win32,60.16485169,62bbe60bf3d75ef465d3e404,0,137,137,150,1,fourtwo,,,,
,,,,,,6138bd1ef0be33edbefe6cd1,62bbfadda516c33221066962,2022-06-29_09h10.35.226,Colour_Asymmetry_Pilot,2022.1.3,Win32,60.16485169,62bbe60bf3d75ef465d3e404,0,138,138,19,1,twofour,,,,
,,,,,,6138bd1ef0be33edbefe6cd1,62bbfadda516c33221066962,2022-06-29_09h10.35.226,Colour_Asymmetry_Pilot,2022.1.3,Win32,60.16485169,62bbe60bf3d75ef465d3e404,0,139,139,44,1,threeone,,,,
,,,,,,6138bd1ef0be33edbefe6cd1,62bbfadda516c33221066962,2022-06-29_09h10.35.226,Colour_Asymmetry_Pilot,2022.1.3,Win32,60.16485169,62bbe60bf3d75ef465d3e404,0,140,140,56,1,onetwo,,,,
,,,,,,6138bd1ef0be33edbefe6cd1,62bbfadda516c33221066962,2022-06-29_09h10.35.226,Colour_Asymmetry_Pilot,2022.1.3,Win32,60.16485169,62bbe60bf3d75ef465d3e404,0,141,141,152,1,onetwo,,,,
,,,,,,6138bd1ef0be33edbefe6cd1,62bbfadda516c33221066962,2022-06-29_09h10.35.226,Colour_Asymmetry_Pilot,2022.1.3,Win32,60.16485169,62bbe60bf3d75ef465d3e404,0,142,142,26,1,twoone,,,,
,,,,,,6138bd1ef0be33edbefe6cd1,62bbfadda516c33221066962,2022-06-29_09h10.35.226,Colour_Asymmetry_Pilot,2022.1.3,Win32,60.16485169,62bbe60bf3d75ef465d3e404,0,143,143,34,1,twoone,,,,
,,,,,,6138bd1ef0be33edbefe6cd1,62bbfadda516c33221066962,2022-06-29_09h10.35.226,Colour_Asymmetry_Pilot,2022.1.3,Win32,60.16485169,62bbe60bf3d75ef465d3e404,0,144,144,25,1,onethree,,,,
,,,,,,6138bd1ef0be33edbefe6cd1,62bbfadda516c33221066962,2022-06-29_09h10.35.226,Colour_Asymmetry_Pilot,2022.1.3,Win32,60.16485169,62bbe60bf3d75ef465d3e404,0,145,145,154,1,twoone,,,,
,,,,,,6138bd1ef0be33edbefe6cd1,62bbfadda516c33221066962,2022-06-29_09h10.35.226,Colour_Asymmetry_Pilot,2022.1.3,Win32,60.16485169,62bbe60bf3d75ef465d3e404,0,146,146,20,1,threeone,,,,
,,,,,,6138bd1ef0be33edbefe6cd1,62bbfadda516c33221066962,2022-06-29_09h10.35.226,Colour_Asymmetry_Pilot,2022.1.3,Win32,60.16485169,62bbe60bf3d75ef465d3e404,0,147,147,49,1,onethree,,,,
,,,,,,6138bd1ef0be33edbefe6cd1,62bbfadda516c33221066962,2022-06-29_09h10.35.226,Colour_Asymmetry_Pilot,2022.1.3,Win32,60.16485169,62bbe60bf3d75ef465d3e404,0,148,148,102,1,fourtwo,,,,
,,,,,,6138bd1ef0be33edbefe6cd1,62bbfadda516c33221066962,2022-06-29_09h10.35.226,Colour_Asymmetry_Pilot,2022.1.3,Win32,60.16485169,62bbe60bf3d75ef465d3e404,0,149,149,38,1,fourtwo,,,,
,,,,,,6138bd1ef0be33edbefe6cd1,62bbfadda516c33221066962,2022-06-29_09h10.35.226,Colour_Asymmetry_Pilot,2022.1.3,Win32,60.16485169,62bbe60bf3d75ef465d3e404,0,150,150,70,1,fourtwo,,,,
,,,,,,6138bd1ef0be33edbefe6cd1,62bbfadda516c33221066962,2022-06-29_09h10.35.226,Colour_Asymmetry_Pilot,2022.1.3,Win32,60.16485169,62bbe60bf3d75ef465d3e404,0,151,151,74,1,twoone,,,,
,,,,,,6138bd1ef0be33edbefe6cd1,62bbfadda516c33221066962,2022-06-29_09h10.35.226,Colour_Asymmetry_Pilot,2022.1.3,Win32,60.16485169,62bbe60bf3d75ef465d3e404,0,152,152,141,1,threefour,,,,
,,,,,,6138bd1ef0be33edbefe6cd1,62bbfadda516c33221066962,2022-06-29_09h10.35.226,Colour_Asymmetry_Pilot,2022.1.3,Win32,60.16485169,62bbe60bf3d75ef465d3e404,0,153,153,17,1,onethree,,,,
,,,,,,6138bd1ef0be33edbefe6cd1,62bbfadda516c33221066962,2022-06-29_09h10.35.226,Colour_Asymmetry_Pilot,2022.1.3,Win32,60.16485169,62bbe60bf3d75ef465d3e404,0,154,154,27,1,twofour,,,,
,,,,,,6138bd1ef0be33edbefe6cd1,62bbfadda516c33221066962,2022-06-29_09h10.35.226,Colour_Asymmetry_Pilot,2022.1.3,Win32,60.16485169,62bbe60bf3d75ef465d3e404,0,155,155,46,1,fourtwo,,,,
,,,,,,6138bd1ef0be33edbefe6cd1,62bbfadda516c33221066962,2022-06-29_09h10.35.226,Colour_Asymmetry_Pilot,2022.1.3,Win32,60.16485169,62bbe60bf3d75ef465d3e404,0,156,156,42,1,twoone,,,,
,,,,,,6138bd1ef0be33edbefe6cd1,62bbfadda516c33221066962,2022-06-29_09h10.35.226,Colour_Asymmetry_Pilot,2022.1.3,Win32,60.16485169,62bbe60bf3d75ef465d3e404,0,157,157,28,1,threeone,,,,
,,,,,,6138bd1ef0be33edbefe6cd1,62bbfadda516c33221066962,2022-06-29_09h10.35.226,Colour_Asymmetry_Pilot,2022.1.3,Win32,60.16485169,62bbe60bf3d75ef465d3e404,0,158,158,118,1,fourtwo,,,,
,,,,,,6138bd1ef0be33edbefe6cd1,62bbfadda516c33221066962,2022-06-29_09h10.35.226,Colour_Asymmetry_Pilot,2022.1.3,Win32,60.16485169,62bbe60bf3d75ef465d3e404,0,159,159,1,1,onethree,,,,
,,,,,,6138bd1ef0be33edbefe6cd1,62bbfadda516c33221066962,2022-06-29_09h10.35.226,Colour_Asymmetry_Pilot,2022.1.3,Win32,60.16485169,62bbe60bf3d75ef465d3e404,0,160,160,98,1,twoone,,,,
,,,,,,6138bd1ef0be33edbefe6cd1,62bbfadda516c33221066962,2022-06-29_09h10.35.226,Colour_Asymmetry_Pilot,2022.1.3,Win32,60.16485169,62bbe60bf3d75ef465d3e404,0,161,161,159,1,fourthree,,,,
,,,,,,6138bd1ef0be33edbefe6cd1,62bbfadda516c33221066962,2022-06-29_09h10.35.226,Colour_Asymmetry_Pilot,2022.1.3,Win32,60.16485169,62bbe60bf3d75ef465d3e404,,,,,,,space,2.0224,space,1.1355
