trials.thisRepN,trials.thisTrialN,trials.thisN,trials.thisIndex,trials.ran,Colourcodes,participant,session,date,expName,psychopyVersion,OS,frameRate,study_id,trials_4.thisRepN,trials_4.thisTrialN,trials_4.thisN,trials_4.thisIndex,trials_4.ran,StimulusPos
0,0,0,14,1,,6106692c478cb3f1603657ed,62bbfad4447d54b1ac67c6f5,2022-06-29_10h22.03.178,Colour_Asymmetry_Pilot,2022.1.3,Win32,59.95922773,62bbe60bf3d75ef465d3e404,,,,,,
0,1,1,82,1,,6106692c478cb3f1603657ed,62bbfad4447d54b1ac67c6f5,2022-06-29_10h22.03.178,Colour_Asymmetry_Pilot,2022.1.3,Win32,59.95922773,62bbe60bf3d75ef465d3e404,,,,,,
0,2,2,6,1,,6106692c478cb3f1603657ed,62bbfad4447d54b1ac67c6f5,2022-06-29_10h22.03.178,Colour_Asymmetry_Pilot,2022.1.3,Win32,59.95922773,62bbe60bf3d75ef465d3e404,,,,,,
0,3,3,0,1,,6106692c478cb3f1603657ed,62bbfad4447d54b1ac67c6f5,2022-06-29_10h22.03.178,Colour_Asymmetry_Pilot,2022.1.3,Win32,59.95922773,62bbe60bf3d75ef465d3e404,,,,,,
0,4,4,42,1,,6106692c478cb3f1603657ed,62bbfad4447d54b1ac67c6f5,2022-06-29_10h22.03.178,Colour_Asymmetry_Pilot,2022.1.3,Win32,59.95922773,62bbe60bf3d75ef465d3e404,,,,,,
0,5,5,5,1,,6106692c478cb3f1603657ed,62bbfad4447d54b1ac67c6f5,2022-06-29_10h22.03.178,Colour_Asymmetry_Pilot,2022.1.3,Win32,59.95922773,62bbe60bf3d75ef465d3e404,,,,,,
0,6,6,25,1,,6106692c478cb3f1603657ed,62bbfad4447d54b1ac67c6f5,2022-06-29_10h22.03.178,Colour_Asymmetry_Pilot,2022.1.3,Win32,59.95922773,62bbe60bf3d75ef465d3e404,,,,,,
0,7,7,75,1,,6106692c478cb3f1603657ed,62bbfad4447d54b1ac67c6f5,2022-06-29_10h22.03.178,Colour_Asymmetry_Pilot,2022.1.3,Win32,59.95922773,62bbe60bf3d75ef465d3e404,,,,,,
0,8,8,81,1,,6106692c478cb3f1603657ed,62bbfad4447d54b1ac67c6f5,2022-06-29_10h22.03.178,Colour_Asymmetry_Pilot,2022.1.3,Win32,59.95922773,62bbe60bf3d75ef465d3e404,,,,,,
0,9,9,84,1,,6106692c478cb3f1603657ed,62bbfad4447d54b1ac67c6f5,2022-06-29_10h22.03.178,Colour_Asymmetry_Pilot,2022.1.3,Win32,59.95922773,62bbe60bf3d75ef465d3e404,,,,,,
0,10,10,35,1,,6106692c478cb3f1603657ed,62bbfad4447d54b1ac67c6f5,2022-06-29_10h22.03.178,Colour_Asymmetry_Pilot,2022.1.3,Win32,59.95922773,62bbe60bf3d75ef465d3e404,,,,,,
0,11,11,36,1,,6106692c478cb3f1603657ed,62bbfad4447d54b1ac67c6f5,2022-06-29_10h22.03.178,Colour_Asymmetry_Pilot,2022.1.3,Win32,59.95922773,62bbe60bf3d75ef465d3e404,,,,,,
0,12,12,49,1,,6106692c478cb3f1603657ed,62bbfad4447d54b1ac67c6f5,2022-06-29_10h22.03.178,Colour_Asymmetry_Pilot,2022.1.3,Win32,59.95922773,62bbe60bf3d75ef465d3e404,,,,,,
0,13,13,40,1,,6106692c478cb3f1603657ed,62bbfad4447d54b1ac67c6f5,2022-06-29_10h22.03.178,Colour_Asymmetry_Pilot,2022.1.3,Win32,59.95922773,62bbe60bf3d75ef465d3e404,,,,,,
0,14,14,51,1,,6106692c478cb3f1603657ed,62bbfad4447d54b1ac67c6f5,2022-06-29_10h22.03.178,Colour_Asymmetry_Pilot,2022.1.3,Win32,59.95922773,62bbe60bf3d75ef465d3e404,,,,,,
0,15,15,3,1,,6106692c478cb3f1603657ed,62bbfad4447d54b1ac67c6f5,2022-06-29_10h22.03.178,Colour_Asymmetry_Pilot,2022.1.3,Win32,59.95922773,62bbe60bf3d75ef465d3e404,,,,,,
0,16,16,17,1,,6106692c478cb3f1603657ed,62bbfad4447d54b1ac67c6f5,2022-06-29_10h22.03.178,Colour_Asymmetry_Pilot,2022.1.3,Win32,59.95922773,62bbe60bf3d75ef465d3e404,,,,,,
0,17,17,13,1,,6106692c478cb3f1603657ed,62bbfad4447d54b1ac67c6f5,2022-06-29_10h22.03.178,Colour_Asymmetry_Pilot,2022.1.3,Win32,59.95922773,62bbe60bf3d75ef465d3e404,,,,,,
0,18,18,19,1,,6106692c478cb3f1603657ed,62bbfad4447d54b1ac67c6f5,2022-06-29_10h22.03.178,Colour_Asymmetry_Pilot,2022.1.3,Win32,59.95922773,62bbe60bf3d75ef465d3e404,,,,,,
0,19,19,70,1,,6106692c478cb3f1603657ed,62bbfad4447d54b1ac67c6f5,2022-06-29_10h22.03.178,Colour_Asymmetry_Pilot,2022.1.3,Win32,59.95922773,62bbe60bf3d75ef465d3e404,,,,,,
0,20,20,7,1,,6106692c478cb3f1603657ed,62bbfad4447d54b1ac67c6f5,2022-06-29_10h22.03.178,Colour_Asymmetry_Pilot,2022.1.3,Win32,59.95922773,62bbe60bf3d75ef465d3e404,,,,,,
0,21,21,85,1,,6106692c478cb3f1603657ed,62bbfad4447d54b1ac67c6f5,2022-06-29_10h22.03.178,Colour_Asymmetry_Pilot,2022.1.3,Win32,59.95922773,62bbe60bf3d75ef465d3e404,,,,,,
0,22,22,22,1,,6106692c478cb3f1603657ed,62bbfad4447d54b1ac67c6f5,2022-06-29_10h22.03.178,Colour_Asymmetry_Pilot,2022.1.3,Win32,59.95922773,62bbe60bf3d75ef465d3e404,,,,,,
0,23,23,90,1,,6106692c478cb3f1603657ed,62bbfad4447d54b1ac67c6f5,2022-06-29_10h22.03.178,Colour_Asymmetry_Pilot,2022.1.3,Win32,59.95922773,62bbe60bf3d75ef465d3e404,,,,,,
0,24,24,56,1,,6106692c478cb3f1603657ed,62bbfad4447d54b1ac67c6f5,2022-06-29_10h22.03.178,Colour_Asymmetry_Pilot,2022.1.3,Win32,59.95922773,62bbe60bf3d75ef465d3e404,,,,,,
0,25,25,15,1,,6106692c478cb3f1603657ed,62bbfad4447d54b1ac67c6f5,2022-06-29_10h22.03.178,Colour_Asymmetry_Pilot,2022.1.3,Win32,59.95922773,62bbe60bf3d75ef465d3e404,,,,,,
0,26,26,44,1,,6106692c478cb3f1603657ed,62bbfad4447d54b1ac67c6f5,2022-06-29_10h22.03.178,Colour_Asymmetry_Pilot,2022.1.3,Win32,59.95922773,62bbe60bf3d75ef465d3e404,,,,,,
0,27,27,37,1,,6106692c478cb3f1603657ed,62bbfad4447d54b1ac67c6f5,2022-06-29_10h22.03.178,Colour_Asymmetry_Pilot,2022.1.3,Win32,59.95922773,62bbe60bf3d75ef465d3e404,,,,,,
0,28,28,65,1,,6106692c478cb3f1603657ed,62bbfad4447d54b1ac67c6f5,2022-06-29_10h22.03.178,Colour_Asymmetry_Pilot,2022.1.3,Win32,59.95922773,62bbe60bf3d75ef465d3e404,,,,,,
0,29,29,92,1,,6106692c478cb3f1603657ed,62bbfad4447d54b1ac67c6f5,2022-06-29_10h22.03.178,Colour_Asymmetry_Pilot,2022.1.3,Win32,59.95922773,62bbe60bf3d75ef465d3e404,,,,,,
0,30,30,48,1,,6106692c478cb3f1603657ed,62bbfad4447d54b1ac67c6f5,2022-06-29_10h22.03.178,Colour_Asymmetry_Pilot,2022.1.3,Win32,59.95922773,62bbe60bf3d75ef465d3e404,,,,,,
0,31,31,58,1,,6106692c478cb3f1603657ed,62bbfad4447d54b1ac67c6f5,2022-06-29_10h22.03.178,Colour_Asymmetry_Pilot,2022.1.3,Win32,59.95922773,62bbe60bf3d75ef465d3e404,,,,,,
0,32,32,53,1,,6106692c478cb3f1603657ed,62bbfad4447d54b1ac67c6f5,2022-06-29_10h22.03.178,Colour_Asymmetry_Pilot,2022.1.3,Win32,59.95922773,62bbe60bf3d75ef465d3e404,,,,,,
0,33,33,89,1,,6106692c478cb3f1603657ed,62bbfad4447d54b1ac67c6f5,2022-06-29_10h22.03.178,Colour_Asymmetry_Pilot,2022.1.3,Win32,59.95922773,62bbe60bf3d75ef465d3e404,,,,,,
0,34,34,4,1,,6106692c478cb3f1603657ed,62bbfad4447d54b1ac67c6f5,2022-06-29_10h22.03.178,Colour_Asymmetry_Pilot,2022.1.3,Win32,59.95922773,62bbe60bf3d75ef465d3e404,,,,,,
0,35,35,88,1,,6106692c478cb3f1603657ed,62bbfad4447d54b1ac67c6f5,2022-06-29_10h22.03.178,Colour_Asymmetry_Pilot,2022.1.3,Win32,59.95922773,62bbe60bf3d75ef465d3e404,,,,,,
0,36,36,30,1,,6106692c478cb3f1603657ed,62bbfad4447d54b1ac67c6f5,2022-06-29_10h22.03.178,Colour_Asymmetry_Pilot,2022.1.3,Win32,59.95922773,62bbe60bf3d75ef465d3e404,,,,,,
0,37,37,67,1,,6106692c478cb3f1603657ed,62bbfad4447d54b1ac67c6f5,2022-06-29_10h22.03.178,Colour_Asymmetry_Pilot,2022.1.3,Win32,59.95922773,62bbe60bf3d75ef465d3e404,,,,,,
0,38,38,29,1,,6106692c478cb3f1603657ed,62bbfad4447d54b1ac67c6f5,2022-06-29_10h22.03.178,Colour_Asymmetry_Pilot,2022.1.3,Win32,59.95922773,62bbe60bf3d75ef465d3e404,,,,,,
0,39,39,60,1,,6106692c478cb3f1603657ed,62bbfad4447d54b1ac67c6f5,2022-06-29_10h22.03.178,Colour_Asymmetry_Pilot,2022.1.3,Win32,59.95922773,62bbe60bf3d75ef465d3e404,,,,,,
0,40,40,47,1,,6106692c478cb3f1603657ed,62bbfad4447d54b1ac67c6f5,2022-06-29_10h22.03.178,Colour_Asymmetry_Pilot,2022.1.3,Win32,59.95922773,62bbe60bf3d75ef465d3e404,,,,,,
0,41,41,55,1,,6106692c478cb3f1603657ed,62bbfad4447d54b1ac67c6f5,2022-06-29_10h22.03.178,Colour_Asymmetry_Pilot,2022.1.3,Win32,59.95922773,62bbe60bf3d75ef465d3e404,,,,,,
0,42,42,69,1,,6106692c478cb3f1603657ed,62bbfad4447d54b1ac67c6f5,2022-06-29_10h22.03.178,Colour_Asymmetry_Pilot,2022.1.3,Win32,59.95922773,62bbe60bf3d75ef465d3e404,,,,,,
0,43,43,28,1,,6106692c478cb3f1603657ed,62bbfad4447d54b1ac67c6f5,2022-06-29_10h22.03.178,Colour_Asymmetry_Pilot,2022.1.3,Win32,59.95922773,62bbe60bf3d75ef465d3e404,,,,,,
0,44,44,54,1,,6106692c478cb3f1603657ed,62bbfad4447d54b1ac67c6f5,2022-06-29_10h22.03.178,Colour_Asymmetry_Pilot,2022.1.3,Win32,59.95922773,62bbe60bf3d75ef465d3e404,,,,,,
0,45,45,79,1,,6106692c478cb3f1603657ed,62bbfad4447d54b1ac67c6f5,2022-06-29_10h22.03.178,Colour_Asymmetry_Pilot,2022.1.3,Win32,59.95922773,62bbe60bf3d75ef465d3e404,,,,,,
0,46,46,21,1,,6106692c478cb3f1603657ed,62bbfad4447d54b1ac67c6f5,2022-06-29_10h22.03.178,Colour_Asymmetry_Pilot,2022.1.3,Win32,59.95922773,62bbe60bf3d75ef465d3e404,,,,,,
0,47,47,76,1,,6106692c478cb3f1603657ed,62bbfad4447d54b1ac67c6f5,2022-06-29_10h22.03.178,Colour_Asymmetry_Pilot,2022.1.3,Win32,59.95922773,62bbe60bf3d75ef465d3e404,,,,,,
0,48,48,63,1,,6106692c478cb3f1603657ed,62bbfad4447d54b1ac67c6f5,2022-06-29_10h22.03.178,Colour_Asymmetry_Pilot,2022.1.3,Win32,59.95922773,62bbe60bf3d75ef465d3e404,,,,,,
0,49,49,80,1,,6106692c478cb3f1603657ed,62bbfad4447d54b1ac67c6f5,2022-06-29_10h22.03.178,Colour_Asymmetry_Pilot,2022.1.3,Win32,59.95922773,62bbe60bf3d75ef465d3e404,,,,,,
0,50,50,87,1,,6106692c478cb3f1603657ed,62bbfad4447d54b1ac67c6f5,2022-06-29_10h22.03.178,Colour_Asymmetry_Pilot,2022.1.3,Win32,59.95922773,62bbe60bf3d75ef465d3e404,,,,,,
0,51,51,38,1,,6106692c478cb3f1603657ed,62bbfad4447d54b1ac67c6f5,2022-06-29_10h22.03.178,Colour_Asymmetry_Pilot,2022.1.3,Win32,59.95922773,62bbe60bf3d75ef465d3e404,,,,,,
0,52,52,66,1,,6106692c478cb3f1603657ed,62bbfad4447d54b1ac67c6f5,2022-06-29_10h22.03.178,Colour_Asymmetry_Pilot,2022.1.3,Win32,59.95922773,62bbe60bf3d75ef465d3e404,,,,,,
0,53,53,24,1,,6106692c478cb3f1603657ed,62bbfad4447d54b1ac67c6f5,2022-06-29_10h22.03.178,Colour_Asymmetry_Pilot,2022.1.3,Win32,59.95922773,62bbe60bf3d75ef465d3e404,,,,,,
0,54,54,77,1,,6106692c478cb3f1603657ed,62bbfad4447d54b1ac67c6f5,2022-06-29_10h22.03.178,Colour_Asymmetry_Pilot,2022.1.3,Win32,59.95922773,62bbe60bf3d75ef465d3e404,,,,,,
0,55,55,86,1,,6106692c478cb3f1603657ed,62bbfad4447d54b1ac67c6f5,2022-06-29_10h22.03.178,Colour_Asymmetry_Pilot,2022.1.3,Win32,59.95922773,62bbe60bf3d75ef465d3e404,,,,,,
0,56,56,57,1,,6106692c478cb3f1603657ed,62bbfad4447d54b1ac67c6f5,2022-06-29_10h22.03.178,Colour_Asymmetry_Pilot,2022.1.3,Win32,59.95922773,62bbe60bf3d75ef465d3e404,,,,,,
0,57,57,72,1,,6106692c478cb3f1603657ed,62bbfad4447d54b1ac67c6f5,2022-06-29_10h22.03.178,Colour_Asymmetry_Pilot,2022.1.3,Win32,59.95922773,62bbe60bf3d75ef465d3e404,,,,,,
0,58,58,39,1,,6106692c478cb3f1603657ed,62bbfad4447d54b1ac67c6f5,2022-06-29_10h22.03.178,Colour_Asymmetry_Pilot,2022.1.3,Win32,59.95922773,62bbe60bf3d75ef465d3e404,,,,,,
0,59,59,10,1,,6106692c478cb3f1603657ed,62bbfad4447d54b1ac67c6f5,2022-06-29_10h22.03.178,Colour_Asymmetry_Pilot,2022.1.3,Win32,59.95922773,62bbe60bf3d75ef465d3e404,,,,,,
0,60,60,62,1,,6106692c478cb3f1603657ed,62bbfad4447d54b1ac67c6f5,2022-06-29_10h22.03.178,Colour_Asymmetry_Pilot,2022.1.3,Win32,59.95922773,62bbe60bf3d75ef465d3e404,,,,,,
0,61,61,73,1,,6106692c478cb3f1603657ed,62bbfad4447d54b1ac67c6f5,2022-06-29_10h22.03.178,Colour_Asymmetry_Pilot,2022.1.3,Win32,59.95922773,62bbe60bf3d75ef465d3e404,,,,,,
0,62,62,1,1,,6106692c478cb3f1603657ed,62bbfad4447d54b1ac67c6f5,2022-06-29_10h22.03.178,Colour_Asymmetry_Pilot,2022.1.3,Win32,59.95922773,62bbe60bf3d75ef465d3e404,,,,,,
0,63,63,50,1,,6106692c478cb3f1603657ed,62bbfad4447d54b1ac67c6f5,2022-06-29_10h22.03.178,Colour_Asymmetry_Pilot,2022.1.3,Win32,59.95922773,62bbe60bf3d75ef465d3e404,,,,,,
0,64,64,74,1,,6106692c478cb3f1603657ed,62bbfad4447d54b1ac67c6f5,2022-06-29_10h22.03.178,Colour_Asymmetry_Pilot,2022.1.3,Win32,59.95922773,62bbe60bf3d75ef465d3e404,,,,,,
0,65,65,68,1,,6106692c478cb3f1603657ed,62bbfad4447d54b1ac67c6f5,2022-06-29_10h22.03.178,Colour_Asymmetry_Pilot,2022.1.3,Win32,59.95922773,62bbe60bf3d75ef465d3e404,,,,,,
0,66,66,23,1,,6106692c478cb3f1603657ed,62bbfad4447d54b1ac67c6f5,2022-06-29_10h22.03.178,Colour_Asymmetry_Pilot,2022.1.3,Win32,59.95922773,62bbe60bf3d75ef465d3e404,,,,,,
0,67,67,16,1,,6106692c478cb3f1603657ed,62bbfad4447d54b1ac67c6f5,2022-06-29_10h22.03.178,Colour_Asymmetry_Pilot,2022.1.3,Win32,59.95922773,62bbe60bf3d75ef465d3e404,,,,,,
0,68,68,32,1,,6106692c478cb3f1603657ed,62bbfad4447d54b1ac67c6f5,2022-06-29_10h22.03.178,Colour_Asymmetry_Pilot,2022.1.3,Win32,59.95922773,62bbe60bf3d75ef465d3e404,,,,,,
0,69,69,61,1,,6106692c478cb3f1603657ed,62bbfad4447d54b1ac67c6f5,2022-06-29_10h22.03.178,Colour_Asymmetry_Pilot,2022.1.3,Win32,59.95922773,62bbe60bf3d75ef465d3e404,,,,,,
0,70,70,34,1,,6106692c478cb3f1603657ed,62bbfad4447d54b1ac67c6f5,2022-06-29_10h22.03.178,Colour_Asymmetry_Pilot,2022.1.3,Win32,59.95922773,62bbe60bf3d75ef465d3e404,,,,,,
0,71,71,8,1,,6106692c478cb3f1603657ed,62bbfad4447d54b1ac67c6f5,2022-06-29_10h22.03.178,Colour_Asymmetry_Pilot,2022.1.3,Win32,59.95922773,62bbe60bf3d75ef465d3e404,,,,,,
0,72,72,20,1,,6106692c478cb3f1603657ed,62bbfad4447d54b1ac67c6f5,2022-06-29_10h22.03.178,Colour_Asymmetry_Pilot,2022.1.3,Win32,59.95922773,62bbe60bf3d75ef465d3e404,,,,,,
0,73,73,45,1,,6106692c478cb3f1603657ed,62bbfad4447d54b1ac67c6f5,2022-06-29_10h22.03.178,Colour_Asymmetry_Pilot,2022.1.3,Win32,59.95922773,62bbe60bf3d75ef465d3e404,,,,,,
0,74,74,18,1,,6106692c478cb3f1603657ed,62bbfad4447d54b1ac67c6f5,2022-06-29_10h22.03.178,Colour_Asymmetry_Pilot,2022.1.3,Win32,59.95922773,62bbe60bf3d75ef465d3e404,,,,,,
0,75,75,31,1,,6106692c478cb3f1603657ed,62bbfad4447d54b1ac67c6f5,2022-06-29_10h22.03.178,Colour_Asymmetry_Pilot,2022.1.3,Win32,59.95922773,62bbe60bf3d75ef465d3e404,,,,,,
0,76,76,83,1,,6106692c478cb3f1603657ed,62bbfad4447d54b1ac67c6f5,2022-06-29_10h22.03.178,Colour_Asymmetry_Pilot,2022.1.3,Win32,59.95922773,62bbe60bf3d75ef465d3e404,,,,,,
0,77,77,27,1,,6106692c478cb3f1603657ed,62bbfad4447d54b1ac67c6f5,2022-06-29_10h22.03.178,Colour_Asymmetry_Pilot,2022.1.3,Win32,59.95922773,62bbe60bf3d75ef465d3e404,,,,,,
0,78,78,41,1,,6106692c478cb3f1603657ed,62bbfad4447d54b1ac67c6f5,2022-06-29_10h22.03.178,Colour_Asymmetry_Pilot,2022.1.3,Win32,59.95922773,62bbe60bf3d75ef465d3e404,,,,,,
0,79,79,71,1,,6106692c478cb3f1603657ed,62bbfad4447d54b1ac67c6f5,2022-06-29_10h22.03.178,Colour_Asymmetry_Pilot,2022.1.3,Win32,59.95922773,62bbe60bf3d75ef465d3e404,,,,,,
0,80,80,46,1,,6106692c478cb3f1603657ed,62bbfad4447d54b1ac67c6f5,2022-06-29_10h22.03.178,Colour_Asymmetry_Pilot,2022.1.3,Win32,59.95922773,62bbe60bf3d75ef465d3e404,,,,,,
0,81,81,33,1,,6106692c478cb3f1603657ed,62bbfad4447d54b1ac67c6f5,2022-06-29_10h22.03.178,Colour_Asymmetry_Pilot,2022.1.3,Win32,59.95922773,62bbe60bf3d75ef465d3e404,,,,,,
0,82,82,9,1,,6106692c478cb3f1603657ed,62bbfad4447d54b1ac67c6f5,2022-06-29_10h22.03.178,Colour_Asymmetry_Pilot,2022.1.3,Win32,59.95922773,62bbe60bf3d75ef465d3e404,,,,,,
0,83,83,11,1,,6106692c478cb3f1603657ed,62bbfad4447d54b1ac67c6f5,2022-06-29_10h22.03.178,Colour_Asymmetry_Pilot,2022.1.3,Win32,59.95922773,62bbe60bf3d75ef465d3e404,,,,,,
0,84,84,12,1,,6106692c478cb3f1603657ed,62bbfad4447d54b1ac67c6f5,2022-06-29_10h22.03.178,Colour_Asymmetry_Pilot,2022.1.3,Win32,59.95922773,62bbe60bf3d75ef465d3e404,,,,,,
0,85,85,64,1,,6106692c478cb3f1603657ed,62bbfad4447d54b1ac67c6f5,2022-06-29_10h22.03.178,Colour_Asymmetry_Pilot,2022.1.3,Win32,59.95922773,62bbe60bf3d75ef465d3e404,,,,,,
0,86,86,78,1,,6106692c478cb3f1603657ed,62bbfad4447d54b1ac67c6f5,2022-06-29_10h22.03.178,Colour_Asymmetry_Pilot,2022.1.3,Win32,59.95922773,62bbe60bf3d75ef465d3e404,,,,,,
0,87,87,91,1,,6106692c478cb3f1603657ed,62bbfad4447d54b1ac67c6f5,2022-06-29_10h22.03.178,Colour_Asymmetry_Pilot,2022.1.3,Win32,59.95922773,62bbe60bf3d75ef465d3e404,,,,,,
0,88,88,52,1,,6106692c478cb3f1603657ed,62bbfad4447d54b1ac67c6f5,2022-06-29_10h22.03.178,Colour_Asymmetry_Pilot,2022.1.3,Win32,59.95922773,62bbe60bf3d75ef465d3e404,,,,,,
0,89,89,59,1,,6106692c478cb3f1603657ed,62bbfad4447d54b1ac67c6f5,2022-06-29_10h22.03.178,Colour_Asymmetry_Pilot,2022.1.3,Win32,59.95922773,62bbe60bf3d75ef465d3e404,,,,,,
0,90,90,2,1,,6106692c478cb3f1603657ed,62bbfad4447d54b1ac67c6f5,2022-06-29_10h22.03.178,Colour_Asymmetry_Pilot,2022.1.3,Win32,59.95922773,62bbe60bf3d75ef465d3e404,,,,,,
0,91,91,26,1,,6106692c478cb3f1603657ed,62bbfad4447d54b1ac67c6f5,2022-06-29_10h22.03.178,Colour_Asymmetry_Pilot,2022.1.3,Win32,59.95922773,62bbe60bf3d75ef465d3e404,,,,,,
0,92,92,43,1,,6106692c478cb3f1603657ed,62bbfad4447d54b1ac67c6f5,2022-06-29_10h22.03.178,Colour_Asymmetry_Pilot,2022.1.3,Win32,59.95922773,62bbe60bf3d75ef465d3e404,,,,,,
,,,,,,6106692c478cb3f1603657ed,62bbfad4447d54b1ac67c6f5,2022-06-29_10h22.03.178,Colour_Asymmetry_Pilot,2022.1.3,Win32,59.95922773,62bbe60bf3d75ef465d3e404,0,0,0,30,1,fourtwo
,,,,,,6106692c478cb3f1603657ed,62bbfad4447d54b1ac67c6f5,2022-06-29_10h22.03.178,Colour_Asymmetry_Pilot,2022.1.3,Win32,59.95922773,62bbe60bf3d75ef465d3e404,0,1,1,152,1,onetwo
,,,,,,6106692c478cb3f1603657ed,62bbfad4447d54b1ac67c6f5,2022-06-29_10h22.03.178,Colour_Asymmetry_Pilot,2022.1.3,Win32,59.95922773,62bbe60bf3d75ef465d3e404,0,2,2,43,1,twofour
,,,,,,6106692c478cb3f1603657ed,62bbfad4447d54b1ac67c6f5,2022-06-29_10h22.03.178,Colour_Asymmetry_Pilot,2022.1.3,Win32,59.95922773,62bbe60bf3d75ef465d3e404,0,3,3,22,1,fourtwo
,,,,,,6106692c478cb3f1603657ed,62bbfad4447d54b1ac67c6f5,2022-06-29_10h22.03.178,Colour_Asymmetry_Pilot,2022.1.3,Win32,59.95922773,62bbe60bf3d75ef465d3e404,0,4,4,45,1,threefour
,,,,,,6106692c478cb3f1603657ed,62bbfad4447d54b1ac67c6f5,2022-06-29_10h22.03.178,Colour_Asymmetry_Pilot,2022.1.3,Win32,59.95922773,62bbe60bf3d75ef465d3e404,0,5,5,49,1,onethree
,,,,,,6106692c478cb3f1603657ed,62bbfad4447d54b1ac67c6f5,2022-06-29_10h22.03.178,Colour_Asymmetry_Pilot,2022.1.3,Win32,59.95922773,62bbe60bf3d75ef465d3e404,0,6,6,11,1,twofour
,,,,,,6106692c478cb3f1603657ed,62bbfad4447d54b1ac67c6f5,2022-06-29_10h22.03.178,Colour_Asymmetry_Pilot,2022.1.3,Win32,59.95922773,62bbe60bf3d75ef465d3e404,0,7,7,148,1,threeone
,,,,,,6106692c478cb3f1603657ed,62bbfad4447d54b1ac67c6f5,2022-06-29_10h22.03.178,Colour_Asymmetry_Pilot,2022.1.3,Win32,59.95922773,62bbe60bf3d75ef465d3e404,0,8,8,20,1,threeone
,,,,,,6106692c478cb3f1603657ed,62bbfad4447d54b1ac67c6f5,2022-06-29_10h22.03.178,Colour_Asymmetry_Pilot,2022.1.3,Win32,59.95922773,62bbe60bf3d75ef465d3e404,0,9,9,149,1,threefour
,,,,,,6106692c478cb3f1603657ed,62bbfad4447d54b1ac67c6f5,2022-06-29_10h22.03.178,Colour_Asymmetry_Pilot,2022.1.3,Win32,59.95922773,62bbe60bf3d75ef465d3e404,0,10,10,80,1,onetwo
,,,,,,6106692c478cb3f1603657ed,62bbfad4447d54b1ac67c6f5,2022-06-29_10h22.03.178,Colour_Asymmetry_Pilot,2022.1.3,Win32,59.95922773,62bbe60bf3d75ef465d3e404,0,11,11,64,1,onetwo
,,,,,,6106692c478cb3f1603657ed,62bbfad4447d54b1ac67c6f5,2022-06-29_10h22.03.178,Colour_Asymmetry_Pilot,2022.1.3,Win32,59.95922773,62bbe60bf3d75ef465d3e404,0,12,12,120,1,onetwo
,,,,,,6106692c478cb3f1603657ed,62bbfad4447d54b1ac67c6f5,2022-06-29_10h22.03.178,Colour_Asymmetry_Pilot,2022.1.3,Win32,59.95922773,62bbe60bf3d75ef465d3e404,0,13,13,7,1,fourthree
,,,,,,6106692c478cb3f1603657ed,62bbfad4447d54b1ac67c6f5,2022-06-29_10h22.03.178,Colour_Asymmetry_Pilot,2022.1.3,Win32,59.95922773,62bbe60bf3d75ef465d3e404,0,14,14,12,1,threeone
,,,,,,6106692c478cb3f1603657ed,62bbfad4447d54b1ac67c6f5,2022-06-29_10h22.03.178,Colour_Asymmetry_Pilot,2022.1.3,Win32,59.95922773,62bbe60bf3d75ef465d3e404,0,15,15,129,1,onethree
,,,,,,6106692c478cb3f1603657ed,62bbfad4447d54b1ac67c6f5,2022-06-29_10h22.03.178,Colour_Asymmetry_Pilot,2022.1.3,Win32,59.95922773,62bbe60bf3d75ef465d3e404,0,16,16,161,1,onethree
,,,,,,6106692c478cb3f1603657ed,62bbfad4447d54b1ac67c6f5,2022-06-29_10h22.03.178,Colour_Asymmetry_Pilot,2022.1.3,Win32,59.95922773,62bbe60bf3d75ef465d3e404,0,17,17,142,1,fourtwo
,,,,,,6106692c478cb3f1603657ed,62bbfad4447d54b1ac67c6f5,2022-06-29_10h22.03.178,Colour_Asymmetry_Pilot,2022.1.3,Win32,59.95922773,62bbe60bf3d75ef465d3e404,0,18,18,37,1,threefour
,,,,,,6106692c478cb3f1603657ed,62bbfad4447d54b1ac67c6f5,2022-06-29_10h22.03.178,Colour_Asymmetry_Pilot,2022.1.3,Win32,59.95922773,62bbe60bf3d75ef465d3e404,0,19,19,113,1,onethree
,,,,,,6106692c478cb3f1603657ed,62bbfad4447d54b1ac67c6f5,2022-06-29_10h22.03.178,Colour_Asymmetry_Pilot,2022.1.3,Win32,59.95922773,62bbe60bf3d75ef465d3e404,0,20,20,122,1,twoone
,,,,,,6106692c478cb3f1603657ed,62bbfad4447d54b1ac67c6f5,2022-06-29_10h22.03.178,Colour_Asymmetry_Pilot,2022.1.3,Win32,59.95922773,62bbe60bf3d75ef465d3e404,0,21,21,112,1,onetwo
,,,,,,6106692c478cb3f1603657ed,62bbfad4447d54b1ac67c6f5,2022-06-29_10h22.03.178,Colour_Asymmetry_Pilot,2022.1.3,Win32,59.95922773,62bbe60bf3d75ef465d3e404,0,22,22,67,1,twofour
,,,,,,6106692c478cb3f1603657ed,62bbfad4447d54b1ac67c6f5,2022-06-29_10h22.03.178,Colour_Asymmetry_Pilot,2022.1.3,Win32,59.95922773,62bbe60bf3d75ef465d3e404,0,23,23,137,1,onethree
,,,,,,6106692c478cb3f1603657ed,62bbfad4447d54b1ac67c6f5,2022-06-29_10h22.03.178,Colour_Asymmetry_Pilot,2022.1.3,Win32,59.95922773,62bbe60bf3d75ef465d3e404,0,24,24,92,1,threeone
,,,,,,6106692c478cb3f1603657ed,62bbfad4447d54b1ac67c6f5,2022-06-29_10h22.03.178,Colour_Asymmetry_Pilot,2022.1.3,Win32,59.95922773,62bbe60bf3d75ef465d3e404,0,25,25,0,1,onetwo
,,,,,,6106692c478cb3f1603657ed,62bbfad4447d54b1ac67c6f5,2022-06-29_10h22.03.178,Colour_Asymmetry_Pilot,2022.1.3,Win32,59.95922773,62bbe60bf3d75ef465d3e404,0,26,26,70,1,fourtwo
,,,,,,6106692c478cb3f1603657ed,62bbfad4447d54b1ac67c6f5,2022-06-29_10h22.03.178,Colour_Asymmetry_Pilot,2022.1.3,Win32,59.95922773,62bbe60bf3d75ef465d3e404,0,27,27,47,1,fourthree
,,,,,,6106692c478cb3f1603657ed,62bbfad4447d54b1ac67c6f5,2022-06-29_10h22.03.178,Colour_Asymmetry_Pilot,2022.1.3,Win32,59.95922773,62bbe60bf3d75ef465d3e404,0,28,28,118,1,fourtwo
,,,,,,6106692c478cb3f1603657ed,62bbfad4447d54b1ac67c6f5,2022-06-29_10h22.03.178,Colour_Asymmetry_Pilot,2022.1.3,Win32,59.95922773,62bbe60bf3d75ef465d3e404,0,29,29,74,1,twoone
,,,,,,6106692c478cb3f1603657ed,62bbfad4447d54b1ac67c6f5,2022-06-29_10h22.03.178,Colour_Asymmetry_Pilot,2022.1.3,Win32,59.95922773,62bbe60bf3d75ef465d3e404,0,30,30,56,1,onetwo
,,,,,,6106692c478cb3f1603657ed,62bbfad4447d54b1ac67c6f5,2022-06-29_10h22.03.178,Colour_Asymmetry_Pilot,2022.1.3,Win32,59.95922773,62bbe60bf3d75ef465d3e404,0,31,31,128,1,onetwo
,,,,,,6106692c478cb3f1603657ed,62bbfad4447d54b1ac67c6f5,2022-06-29_10h22.03.178,Colour_Asymmetry_Pilot,2022.1.3,Win32,59.95922773,62bbe60bf3d75ef465d3e404,0,32,32,101,1,threefour
,,,,,,6106692c478cb3f1603657ed,62bbfad4447d54b1ac67c6f5,2022-06-29_10h22.03.178,Colour_Asymmetry_Pilot,2022.1.3,Win32,59.95922773,62bbe60bf3d75ef465d3e404,0,33,33,135,1,fourthree
,,,,,,6106692c478cb3f1603657ed,62bbfad4447d54b1ac67c6f5,2022-06-29_10h22.03.178,Colour_Asymmetry_Pilot,2022.1.3,Win32,59.95922773,62bbe60bf3d75ef465d3e404,0,34,34,36,1,threeone
,,,,,,6106692c478cb3f1603657ed,62bbfad4447d54b1ac67c6f5,2022-06-29_10h22.03.178,Colour_Asymmetry_Pilot,2022.1.3,Win32,59.95922773,62bbe60bf3d75ef465d3e404,0,35,35,106,1,twoone
,,,,,,6106692c478cb3f1603657ed,62bbfad4447d54b1ac67c6f5,2022-06-29_10h22.03.178,Colour_Asymmetry_Pilot,2022.1.3,Win32,59.95922773,62bbe60bf3d75ef465d3e404,0,36,36,51,1,twofour
,,,,,,6106692c478cb3f1603657ed,62bbfad4447d54b1ac67c6f5,2022-06-29_10h22.03.178,Colour_Asymmetry_Pilot,2022.1.3,Win32,59.95922773,62bbe60bf3d75ef465d3e404,0,37,37,94,1,fourtwo
,,,,,,6106692c478cb3f1603657ed,62bbfad4447d54b1ac67c6f5,2022-06-29_10h22.03.178,Colour_Asymmetry_Pilot,2022.1.3,Win32,59.95922773,62bbe60bf3d75ef465d3e404,0,38,38,136,1,onetwo
,,,,,,6106692c478cb3f1603657ed,62bbfad4447d54b1ac67c6f5,2022-06-29_10h22.03.178,Colour_Asymmetry_Pilot,2022.1.3,Win32,59.95922773,62bbe60bf3d75ef465d3e404,0,39,39,100,1,threeone
,,,,,,6106692c478cb3f1603657ed,62bbfad4447d54b1ac67c6f5,2022-06-29_10h22.03.178,Colour_Asymmetry_Pilot,2022.1.3,Win32,59.95922773,62bbe60bf3d75ef465d3e404,0,40,40,117,1,threefour
,,,,,,6106692c478cb3f1603657ed,62bbfad4447d54b1ac67c6f5,2022-06-29_10h22.03.178,Colour_Asymmetry_Pilot,2022.1.3,Win32,59.95922773,62bbe60bf3d75ef465d3e404,0,41,41,95,1,fourthree
,,,,,,6106692c478cb3f1603657ed,62bbfad4447d54b1ac67c6f5,2022-06-29_10h22.03.178,Colour_Asymmetry_Pilot,2022.1.3,Win32,59.95922773,62bbe60bf3d75ef465d3e404,0,42,42,121,1,onethree
,,,,,,6106692c478cb3f1603657ed,62bbfad4447d54b1ac67c6f5,2022-06-29_10h22.03.178,Colour_Asymmetry_Pilot,2022.1.3,Win32,59.95922773,62bbe60bf3d75ef465d3e404,0,43,43,97,1,onethree
,,,,,,6106692c478cb3f1603657ed,62bbfad4447d54b1ac67c6f5,2022-06-29_10h22.03.178,Colour_Asymmetry_Pilot,2022.1.3,Win32,59.95922773,62bbe60bf3d75ef465d3e404,0,44,44,134,1,fourtwo
,,,,,,6106692c478cb3f1603657ed,62bbfad4447d54b1ac67c6f5,2022-06-29_10h22.03.178,Colour_Asymmetry_Pilot,2022.1.3,Win32,59.95922773,62bbe60bf3d75ef465d3e404,0,45,45,38,1,fourtwo
,,,,,,6106692c478cb3f1603657ed,62bbfad4447d54b1ac67c6f5,2022-06-29_10h22.03.178,Colour_Asymmetry_Pilot,2022.1.3,Win32,59.95922773,62bbe60bf3d75ef465d3e404,0,46,46,66,1,twoone
,,,,,,6106692c478cb3f1603657ed,62bbfad4447d54b1ac67c6f5,2022-06-29_10h22.03.178,Colour_Asymmetry_Pilot,2022.1.3,Win32,59.95922773,62bbe60bf3d75ef465d3e404,0,47,47,71,1,fourthree
,,,,,,6106692c478cb3f1603657ed,62bbfad4447d54b1ac67c6f5,2022-06-29_10h22.03.178,Colour_Asymmetry_Pilot,2022.1.3,Win32,59.95922773,62bbe60bf3d75ef465d3e404,0,48,48,111,1,fourthree
,,,,,,6106692c478cb3f1603657ed,62bbfad4447d54b1ac67c6f5,2022-06-29_10h22.03.178,Colour_Asymmetry_Pilot,2022.1.3,Win32,59.95922773,62bbe60bf3d75ef465d3e404,0,49,49,119,1,fourthree
,,,,,,6106692c478cb3f1603657ed,62bbfad4447d54b1ac67c6f5,2022-06-29_10h22.03.178,Colour_Asymmetry_Pilot,2022.1.3,Win32,59.95922773,62bbe60bf3d75ef465d3e404,0,50,50,151,1,fourthree
,,,,,,6106692c478cb3f1603657ed,62bbfad4447d54b1ac67c6f5,2022-06-29_10h22.03.178,Colour_Asymmetry_Pilot,2022.1.3,Win32,59.95922773,62bbe60bf3d75ef465d3e404,0,51,51,125,1,threefour
,,,,,,6106692c478cb3f1603657ed,62bbfad4447d54b1ac67c6f5,2022-06-29_10h22.03.178,Colour_Asymmetry_Pilot,2022.1.3,Win32,59.95922773,62bbe60bf3d75ef465d3e404,0,52,52,144,1,onetwo
,,,,,,6106692c478cb3f1603657ed,62bbfad4447d54b1ac67c6f5,2022-06-29_10h22.03.178,Colour_Asymmetry_Pilot,2022.1.3,Win32,59.95922773,62bbe60bf3d75ef465d3e404,0,53,53,1,1,onethree
,,,,,,6106692c478cb3f1603657ed,62bbfad4447d54b1ac67c6f5,2022-06-29_10h22.03.178,Colour_Asymmetry_Pilot,2022.1.3,Win32,59.95922773,62bbe60bf3d75ef465d3e404,0,54,54,52,1,threeone
,,,,,,6106692c478cb3f1603657ed,62bbfad4447d54b1ac67c6f5,2022-06-29_10h22.03.178,Colour_Asymmetry_Pilot,2022.1.3,Win32,59.95922773,62bbe60bf3d75ef465d3e404,0,55,55,143,1,fourthree
,,,,,,6106692c478cb3f1603657ed,62bbfad4447d54b1ac67c6f5,2022-06-29_10h22.03.178,Colour_Asymmetry_Pilot,2022.1.3,Win32,59.95922773,62bbe60bf3d75ef465d3e404,0,56,56,145,1,onethree
,,,,,,6106692c478cb3f1603657ed,62bbfad4447d54b1ac67c6f5,2022-06-29_10h22.03.178,Colour_Asymmetry_Pilot,2022.1.3,Win32,59.95922773,62bbe60bf3d75ef465d3e404,0,57,57,86,1,fourtwo
,,,,,,6106692c478cb3f1603657ed,62bbfad4447d54b1ac67c6f5,2022-06-29_10h22.03.178,Colour_Asymmetry_Pilot,2022.1.3,Win32,59.95922773,62bbe60bf3d75ef465d3e404,0,58,58,35,1,twofour
,,,,,,6106692c478cb3f1603657ed,62bbfad4447d54b1ac67c6f5,2022-06-29_10h22.03.178,Colour_Asymmetry_Pilot,2022.1.3,Win32,59.95922773,62bbe60bf3d75ef465d3e404,0,59,59,155,1,twofour
,,,,,,6106692c478cb3f1603657ed,62bbfad4447d54b1ac67c6f5,2022-06-29_10h22.03.178,Colour_Asymmetry_Pilot,2022.1.3,Win32,59.95922773,62bbe60bf3d75ef465d3e404,0,60,60,5,1,threefour
,,,,,,6106692c478cb3f1603657ed,62bbfad4447d54b1ac67c6f5,2022-06-29_10h22.03.178,Colour_Asymmetry_Pilot,2022.1.3,Win32,59.95922773,62bbe60bf3d75ef465d3e404,0,61,61,85,1,threefour
,,,,,,6106692c478cb3f1603657ed,62bbfad4447d54b1ac67c6f5,2022-06-29_10h22.03.178,Colour_Asymmetry_Pilot,2022.1.3,Win32,59.95922773,62bbe60bf3d75ef465d3e404,0,62,62,28,1,threeone
,,,,,,6106692c478cb3f1603657ed,62bbfad4447d54b1ac67c6f5,2022-06-29_10h22.03.178,Colour_Asymmetry_Pilot,2022.1.3,Win32,59.95922773,62bbe60bf3d75ef465d3e404,0,63,63,82,1,twoone
,,,,,,6106692c478cb3f1603657ed,62bbfad4447d54b1ac67c6f5,2022-06-29_10h22.03.178,Colour_Asymmetry_Pilot,2022.1.3,Win32,59.95922773,62bbe60bf3d75ef465d3e404,0,64,64,79,1,fourthree
,,,,,,6106692c478cb3f1603657ed,62bbfad4447d54b1ac67c6f5,2022-06-29_10h22.03.178,Colour_Asymmetry_Pilot,2022.1.3,Win32,59.95922773,62bbe60bf3d75ef465d3e404,0,65,65,8,1,onetwo
,,,,,,6106692c478cb3f1603657ed,62bbfad4447d54b1ac67c6f5,2022-06-29_10h22.03.178,Colour_Asymmetry_Pilot,2022.1.3,Win32,59.95922773,62bbe60bf3d75ef465d3e404,0,66,66,62,1,fourtwo
,,,,,,6106692c478cb3f1603657ed,62bbfad4447d54b1ac67c6f5,2022-06-29_10h22.03.178,Colour_Asymmetry_Pilot,2022.1.3,Win32,59.95922773,62bbe60bf3d75ef465d3e404,0,67,67,109,1,threefour
,,,,,,6106692c478cb3f1603657ed,62bbfad4447d54b1ac67c6f5,2022-06-29_10h22.03.178,Colour_Asymmetry_Pilot,2022.1.3,Win32,59.95922773,62bbe60bf3d75ef465d3e404,0,68,68,102,1,fourtwo
,,,,,,6106692c478cb3f1603657ed,62bbfad4447d54b1ac67c6f5,2022-06-29_10h22.03.178,Colour_Asymmetry_Pilot,2022.1.3,Win32,59.95922773,62bbe60bf3d75ef465d3e404,0,69,69,126,1,fourtwo
,,,,,,6106692c478cb3f1603657ed,62bbfad4447d54b1ac67c6f5,2022-06-29_10h22.03.178,Colour_Asymmetry_Pilot,2022.1.3,Win32,59.95922773,62bbe60bf3d75ef465d3e404,0,70,70,98,1,twoone
,,,,,,6106692c478cb3f1603657ed,62bbfad4447d54b1ac67c6f5,2022-06-29_10h22.03.178,Colour_Asymmetry_Pilot,2022.1.3,Win32,59.95922773,62bbe60bf3d75ef465d3e404,0,71,71,88,1,onetwo
,,,,,,6106692c478cb3f1603657ed,62bbfad4447d54b1ac67c6f5,2022-06-29_10h22.03.178,Colour_Asymmetry_Pilot,2022.1.3,Win32,59.95922773,62bbe60bf3d75ef465d3e404,0,72,72,53,1,threefour
,,,,,,6106692c478cb3f1603657ed,62bbfad4447d54b1ac67c6f5,2022-06-29_10h22.03.178,Colour_Asymmetry_Pilot,2022.1.3,Win32,59.95922773,62bbe60bf3d75ef465d3e404,0,73,73,89,1,onethree
,,,,,,6106692c478cb3f1603657ed,62bbfad4447d54b1ac67c6f5,2022-06-29_10h22.03.178,Colour_Asymmetry_Pilot,2022.1.3,Win32,59.95922773,62bbe60bf3d75ef465d3e404,0,74,74,116,1,threeone
,,,,,,6106692c478cb3f1603657ed,62bbfad4447d54b1ac67c6f5,2022-06-29_10h22.03.178,Colour_Asymmetry_Pilot,2022.1.3,Win32,59.95922773,62bbe60bf3d75ef465d3e404,0,75,75,107,1,twofour
,,,,,,6106692c478cb3f1603657ed,62bbfad4447d54b1ac67c6f5,2022-06-29_10h22.03.178,Colour_Asymmetry_Pilot,2022.1.3,Win32,59.95922773,62bbe60bf3d75ef465d3e404,0,76,76,63,1,fourthree
,,,,,,6106692c478cb3f1603657ed,62bbfad4447d54b1ac67c6f5,2022-06-29_10h22.03.178,Colour_Asymmetry_Pilot,2022.1.3,Win32,59.95922773,62bbe60bf3d75ef465d3e404,0,77,77,31,1,fourthree
,,,,,,6106692c478cb3f1603657ed,62bbfad4447d54b1ac67c6f5,2022-06-29_10h22.03.178,Colour_Asymmetry_Pilot,2022.1.3,Win32,59.95922773,62bbe60bf3d75ef465d3e404,0,78,78,18,1,twoone
,,,,,,6106692c478cb3f1603657ed,62bbfad4447d54b1ac67c6f5,2022-06-29_10h22.03.178,Colour_Asymmetry_Pilot,2022.1.3,Win32,59.95922773,62bbe60bf3d75ef465d3e404,0,79,79,133,1,threefour
,,,,,,6106692c478cb3f1603657ed,62bbfad4447d54b1ac67c6f5,2022-06-29_10h22.03.178,Colour_Asymmetry_Pilot,2022.1.3,Win32,59.95922773,62bbe60bf3d75ef465d3e404,0,80,80,58,1,twoone
,,,,,,6106692c478cb3f1603657ed,62bbfad4447d54b1ac67c6f5,2022-06-29_10h22.03.178,Colour_Asymmetry_Pilot,2022.1.3,Win32,59.95922773,62bbe60bf3d75ef465d3e404,0,81,81,99,1,twofour
,,,,,,6106692c478cb3f1603657ed,62bbfad4447d54b1ac67c6f5,2022-06-29_10h22.03.178,Colour_Asymmetry_Pilot,2022.1.3,Win32,59.95922773,62bbe60bf3d75ef465d3e404,0,82,82,44,1,threeone
,,,,,,6106692c478cb3f1603657ed,62bbfad4447d54b1ac67c6f5,2022-06-29_10h22.03.178,Colour_Asymmetry_Pilot,2022.1.3,Win32,59.95922773,62bbe60bf3d75ef465d3e404,0,83,83,15,1,fourthree
,,,,,,6106692c478cb3f1603657ed,62bbfad4447d54b1ac67c6f5,2022-06-29_10h22.03.178,Colour_Asymmetry_Pilot,2022.1.3,Win32,59.95922773,62bbe60bf3d75ef465d3e404,0,84,84,69,1,threefour
,,,,,,6106692c478cb3f1603657ed,62bbfad4447d54b1ac67c6f5,2022-06-29_10h22.03.178,Colour_Asymmetry_Pilot,2022.1.3,Win32,59.95922773,62bbe60bf3d75ef465d3e404,0,85,85,13,1,threefour
,,,,,,6106692c478cb3f1603657ed,62bbfad4447d54b1ac67c6f5,2022-06-29_10h22.03.178,Colour_Asymmetry_Pilot,2022.1.3,Win32,59.95922773,62bbe60bf3d75ef465d3e404,0,86,86,146,1,twoone
,,,,,,6106692c478cb3f1603657ed,62bbfad4447d54b1ac67c6f5,2022-06-29_10h22.03.178,Colour_Asymmetry_Pilot,2022.1.3,Win32,59.95922773,62bbe60bf3d75ef465d3e404,0,87,87,114,1,twoone
,,,,,,6106692c478cb3f1603657ed,62bbfad4447d54b1ac67c6f5,2022-06-29_10h22.03.178,Colour_Asymmetry_Pilot,2022.1.3,Win32,59.95922773,62bbe60bf3d75ef465d3e404,0,88,88,42,1,twoone
,,,,,,6106692c478cb3f1603657ed,62bbfad4447d54b1ac67c6f5,2022-06-29_10h22.03.178,Colour_Asymmetry_Pilot,2022.1.3,Win32,59.95922773,62bbe60bf3d75ef465d3e404,0,89,89,76,1,threeone
,,,,,,6106692c478cb3f1603657ed,62bbfad4447d54b1ac67c6f5,2022-06-29_10h22.03.178,Colour_Asymmetry_Pilot,2022.1.3,Win32,59.95922773,62bbe60bf3d75ef465d3e404,0,90,90,48,1,onetwo
,,,,,,6106692c478cb3f1603657ed,62bbfad4447d54b1ac67c6f5,2022-06-29_10h22.03.178,Colour_Asymmetry_Pilot,2022.1.3,Win32,59.95922773,62bbe60bf3d75ef465d3e404,0,91,91,75,1,twofour
,,,,,,6106692c478cb3f1603657ed,62bbfad4447d54b1ac67c6f5,2022-06-29_10h22.03.178,Colour_Asymmetry_Pilot,2022.1.3,Win32,59.95922773,62bbe60bf3d75ef465d3e404,0,92,92,124,1,threeone
,,,,,,6106692c478cb3f1603657ed,62bbfad4447d54b1ac67c6f5,2022-06-29_10h22.03.178,Colour_Asymmetry_Pilot,2022.1.3,Win32,59.95922773,62bbe60bf3d75ef465d3e404,0,93,93,2,1,twoone
,,,,,,6106692c478cb3f1603657ed,62bbfad4447d54b1ac67c6f5,2022-06-29_10h22.03.178,Colour_Asymmetry_Pilot,2022.1.3,Win32,59.95922773,62bbe60bf3d75ef465d3e404,0,94,94,132,1,threeone
,,,,,,6106692c478cb3f1603657ed,62bbfad4447d54b1ac67c6f5,2022-06-29_10h22.03.178,Colour_Asymmetry_Pilot,2022.1.3,Win32,59.95922773,62bbe60bf3d75ef465d3e404,0,95,95,16,1,onetwo
,,,,,,6106692c478cb3f1603657ed,62bbfad4447d54b1ac67c6f5,2022-06-29_10h22.03.178,Colour_Asymmetry_Pilot,2022.1.3,Win32,59.95922773,62bbe60bf3d75ef465d3e404,0,96,96,160,1,onetwo
,,,,,,6106692c478cb3f1603657ed,62bbfad4447d54b1ac67c6f5,2022-06-29_10h22.03.178,Colour_Asymmetry_Pilot,2022.1.3,Win32,59.95922773,62bbe60bf3d75ef465d3e404,0,97,97,87,1,fourthree
,,,,,,6106692c478cb3f1603657ed,62bbfad4447d54b1ac67c6f5,2022-06-29_10h22.03.178,Colour_Asymmetry_Pilot,2022.1.3,Win32,59.95922773,62bbe60bf3d75ef465d3e404,0,98,98,72,1,onetwo
,,,,,,6106692c478cb3f1603657ed,62bbfad4447d54b1ac67c6f5,2022-06-29_10h22.03.178,Colour_Asymmetry_Pilot,2022.1.3,Win32,59.95922773,62bbe60bf3d75ef465d3e404,0,99,99,156,1,threeone
,,,,,,6106692c478cb3f1603657ed,62bbfad4447d54b1ac67c6f5,2022-06-29_10h22.03.178,Colour_Asymmetry_Pilot,2022.1.3,Win32,59.95922773,62bbe60bf3d75ef465d3e404,0,100,100,150,1,fourtwo
,,,,,,6106692c478cb3f1603657ed,62bbfad4447d54b1ac67c6f5,2022-06-29_10h22.03.178,Colour_Asymmetry_Pilot,2022.1.3,Win32,59.95922773,62bbe60bf3d75ef465d3e404,0,101,101,41,1,onethree
,,,,,,6106692c478cb3f1603657ed,62bbfad4447d54b1ac67c6f5,2022-06-29_10h22.03.178,Colour_Asymmetry_Pilot,2022.1.3,Win32,59.95922773,62bbe60bf3d75ef465d3e404,0,102,102,139,1,twofour
,,,,,,6106692c478cb3f1603657ed,62bbfad4447d54b1ac67c6f5,2022-06-29_10h22.03.178,Colour_Asymmetry_Pilot,2022.1.3,Win32,59.95922773,62bbe60bf3d75ef465d3e404,0,103,103,68,1,threeone
,,,,,,6106692c478cb3f1603657ed,62bbfad4447d54b1ac67c6f5,2022-06-29_10h22.03.178,Colour_Asymmetry_Pilot,2022.1.3,Win32,59.95922773,62bbe60bf3d75ef465d3e404,0,104,104,138,1,twoone
,,,,,,6106692c478cb3f1603657ed,62bbfad4447d54b1ac67c6f5,2022-06-29_10h22.03.178,Colour_Asymmetry_Pilot,2022.1.3,Win32,59.95922773,62bbe60bf3d75ef465d3e404,0,105,105,60,1,threeone
,,,,,,6106692c478cb3f1603657ed,62bbfad4447d54b1ac67c6f5,2022-06-29_10h22.03.178,Colour_Asymmetry_Pilot,2022.1.3,Win32,59.95922773,62bbe60bf3d75ef465d3e404,0,106,106,33,1,onethree
,,,,,,6106692c478cb3f1603657ed,62bbfad4447d54b1ac67c6f5,2022-06-29_10h22.03.178,Colour_Asymmetry_Pilot,2022.1.3,Win32,59.95922773,62bbe60bf3d75ef465d3e404,0,107,107,158,1,fourtwo
,,,,,,6106692c478cb3f1603657ed,62bbfad4447d54b1ac67c6f5,2022-06-29_10h22.03.178,Colour_Asymmetry_Pilot,2022.1.3,Win32,59.95922773,62bbe60bf3d75ef465d3e404,0,108,108,141,1,threefour
,,,,,,6106692c478cb3f1603657ed,62bbfad4447d54b1ac67c6f5,2022-06-29_10h22.03.178,Colour_Asymmetry_Pilot,2022.1.3,Win32,59.95922773,62bbe60bf3d75ef465d3e404,0,109,109,93,1,threefour
,,,,,,6106692c478cb3f1603657ed,62bbfad4447d54b1ac67c6f5,2022-06-29_10h22.03.178,Colour_Asymmetry_Pilot,2022.1.3,Win32,59.95922773,62bbe60bf3d75ef465d3e404,0,110,110,6,1,fourtwo
,,,,,,6106692c478cb3f1603657ed,62bbfad4447d54b1ac67c6f5,2022-06-29_10h22.03.178,Colour_Asymmetry_Pilot,2022.1.3,Win32,59.95922773,62bbe60bf3d75ef465d3e404,0,111,111,84,1,threeone
,,,,,,6106692c478cb3f1603657ed,62bbfad4447d54b1ac67c6f5,2022-06-29_10h22.03.178,Colour_Asymmetry_Pilot,2022.1.3,Win32,59.95922773,62bbe60bf3d75ef465d3e404,0,112,112,105,1,onethree
,,,,,,6106692c478cb3f1603657ed,62bbfad4447d54b1ac67c6f5,2022-06-29_10h22.03.178,Colour_Asymmetry_Pilot,2022.1.3,Win32,59.95922773,62bbe60bf3d75ef465d3e404,0,113,113,17,1,onethree
,,,,,,6106692c478cb3f1603657ed,62bbfad4447d54b1ac67c6f5,2022-06-29_10h22.03.178,Colour_Asymmetry_Pilot,2022.1.3,Win32,59.95922773,62bbe60bf3d75ef465d3e404,0,114,114,110,1,fourtwo
,,,,,,6106692c478cb3f1603657ed,62bbfad4447d54b1ac67c6f5,2022-06-29_10h22.03.178,Colour_Asymmetry_Pilot,2022.1.3,Win32,59.95922773,62bbe60bf3d75ef465d3e404,0,115,115,91,1,twofour
,,,,,,6106692c478cb3f1603657ed,62bbfad4447d54b1ac67c6f5,2022-06-29_10h22.03.178,Colour_Asymmetry_Pilot,2022.1.3,Win32,59.95922773,62bbe60bf3d75ef465d3e404,0,116,116,54,1,fourtwo
,,,,,,6106692c478cb3f1603657ed,62bbfad4447d54b1ac67c6f5,2022-06-29_10h22.03.178,Colour_Asymmetry_Pilot,2022.1.3,Win32,59.95922773,62bbe60bf3d75ef465d3e404,0,117,117,24,1,onetwo
,,,,,,6106692c478cb3f1603657ed,62bbfad4447d54b1ac67c6f5,2022-06-29_10h22.03.178,Colour_Asymmetry_Pilot,2022.1.3,Win32,59.95922773,62bbe60bf3d75ef465d3e404,0,118,118,159,1,fourthree
,,,,,,6106692c478cb3f1603657ed,62bbfad4447d54b1ac67c6f5,2022-06-29_10h22.03.178,Colour_Asymmetry_Pilot,2022.1.3,Win32,59.95922773,62bbe60bf3d75ef465d3e404,0,119,119,27,1,twofour
,,,,,,6106692c478cb3f1603657ed,62bbfad4447d54b1ac67c6f5,2022-06-29_10h22.03.178,Colour_Asymmetry_Pilot,2022.1.3,Win32,59.95922773,62bbe60bf3d75ef465d3e404,0,120,120,9,1,onethree
,,,,,,6106692c478cb3f1603657ed,62bbfad4447d54b1ac67c6f5,2022-06-29_10h22.03.178,Colour_Asymmetry_Pilot,2022.1.3,Win32,59.95922773,62bbe60bf3d75ef465d3e404,0,121,121,115,1,twofour
,,,,,,6106692c478cb3f1603657ed,62bbfad4447d54b1ac67c6f5,2022-06-29_10h22.03.178,Colour_Asymmetry_Pilot,2022.1.3,Win32,59.95922773,62bbe60bf3d75ef465d3e404,0,122,122,46,1,fourtwo
,,,,,,6106692c478cb3f1603657ed,62bbfad4447d54b1ac67c6f5,2022-06-29_10h22.03.178,Colour_Asymmetry_Pilot,2022.1.3,Win32,59.95922773,62bbe60bf3d75ef465d3e404,0,123,123,34,1,twoone
,,,,,,6106692c478cb3f1603657ed,62bbfad4447d54b1ac67c6f5,2022-06-29_10h22.03.178,Colour_Asymmetry_Pilot,2022.1.3,Win32,59.95922773,62bbe60bf3d75ef465d3e404,0,124,124,81,1,onethree
,,,,,,6106692c478cb3f1603657ed,62bbfad4447d54b1ac67c6f5,2022-06-29_10h22.03.178,Colour_Asymmetry_Pilot,2022.1.3,Win32,59.95922773,62bbe60bf3d75ef465d3e404,0,125,125,25,1,onethree
,,,,,,6106692c478cb3f1603657ed,62bbfad4447d54b1ac67c6f5,2022-06-29_10h22.03.178,Colour_Asymmetry_Pilot,2022.1.3,Win32,59.95922773,62bbe60bf3d75ef465d3e404,0,126,126,108,1,threeone
,,,,,,6106692c478cb3f1603657ed,62bbfad4447d54b1ac67c6f5,2022-06-29_10h22.03.178,Colour_Asymmetry_Pilot,2022.1.3,Win32,59.95922773,62bbe60bf3d75ef465d3e404,0,127,127,39,1,fourthree
,,,,,,6106692c478cb3f1603657ed,62bbfad4447d54b1ac67c6f5,2022-06-29_10h22.03.178,Colour_Asymmetry_Pilot,2022.1.3,Win32,59.95922773,62bbe60bf3d75ef465d3e404,0,128,128,65,1,onethree
,,,,,,6106692c478cb3f1603657ed,62bbfad4447d54b1ac67c6f5,2022-06-29_10h22.03.178,Colour_Asymmetry_Pilot,2022.1.3,Win32,59.95922773,62bbe60bf3d75ef465d3e404,0,129,129,61,1,threefour
,,,,,,6106692c478cb3f1603657ed,62bbfad4447d54b1ac67c6f5,2022-06-29_10h22.03.178,Colour_Asymmetry_Pilot,2022.1.3,Win32,59.95922773,62bbe60bf3d75ef465d3e404,0,130,130,10,1,twoone
,,,,,,6106692c478cb3f1603657ed,62bbfad4447d54b1ac67c6f5,2022-06-29_10h22.03.178,Colour_Asymmetry_Pilot,2022.1.3,Win32,59.95922773,62bbe60bf3d75ef465d3e404,0,131,131,21,1,threefour
,,,,,,6106692c478cb3f1603657ed,62bbfad4447d54b1ac67c6f5,2022-06-29_10h22.03.178,Colour_Asymmetry_Pilot,2022.1.3,Win32,59.95922773,62bbe60bf3d75ef465d3e404,0,132,132,96,1,onetwo
,,,,,,6106692c478cb3f1603657ed,62bbfad4447d54b1ac67c6f5,2022-06-29_10h22.03.178,Colour_Asymmetry_Pilot,2022.1.3,Win32,59.95922773,62bbe60bf3d75ef465d3e404,0,133,133,157,1,threefour
,,,,,,6106692c478cb3f1603657ed,62bbfad4447d54b1ac67c6f5,2022-06-29_10h22.03.178,Colour_Asymmetry_Pilot,2022.1.3,Win32,59.95922773,62bbe60bf3d75ef465d3e404,0,134,134,4,1,threeone
,,,,,,6106692c478cb3f1603657ed,62bbfad4447d54b1ac67c6f5,2022-06-29_10h22.03.178,Colour_Asymmetry_Pilot,2022.1.3,Win32,59.95922773,62bbe60bf3d75ef465d3e404,0,135,135,78,1,fourtwo
,,,,,,6106692c478cb3f1603657ed,62bbfad4447d54b1ac67c6f5,2022-06-29_10h22.03.178,Colour_Asymmetry_Pilot,2022.1.3,Win32,59.95922773,62bbe60bf3d75ef465d3e404,0,136,136,123,1,twofour
,,,,,,6106692c478cb3f1603657ed,62bbfad4447d54b1ac67c6f5,2022-06-29_10h22.03.178,Colour_Asymmetry_Pilot,2022.1.3,Win32,59.95922773,62bbe60bf3d75ef465d3e404,0,137,137,3,1,twofour
,,,,,,6106692c478cb3f1603657ed,62bbfad4447d54b1ac67c6f5,2022-06-29_10h22.03.178,Colour_Asymmetry_Pilot,2022.1.3,Win32,59.95922773,62bbe60bf3d75ef465d3e404,0,138,138,131,1,twofour
,,,,,,6106692c478cb3f1603657ed,62bbfad4447d54b1ac67c6f5,2022-06-29_10h22.03.178,Colour_Asymmetry_Pilot,2022.1.3,Win32,59.95922773,62bbe60bf3d75ef465d3e404,0,139,139,19,1,twofour
,,,,,,6106692c478cb3f1603657ed,62bbfad4447d54b1ac67c6f5,2022-06-29_10h22.03.178,Colour_Asymmetry_Pilot,2022.1.3,Win32,59.95922773,62bbe60bf3d75ef465d3e404,0,140,140,130,1,twoone
,,,,,,6106692c478cb3f1603657ed,62bbfad4447d54b1ac67c6f5,2022-06-29_10h22.03.178,Colour_Asymmetry_Pilot,2022.1.3,Win32,59.95922773,62bbe60bf3d75ef465d3e404,0,141,141,55,1,fourthree
,,,,,,6106692c478cb3f1603657ed,62bbfad4447d54b1ac67c6f5,2022-06-29_10h22.03.178,Colour_Asymmetry_Pilot,2022.1.3,Win32,59.95922773,62bbe60bf3d75ef465d3e404,0,142,142,29,1,threefour
,,,,,,6106692c478cb3f1603657ed,62bbfad4447d54b1ac67c6f5,2022-06-29_10h22.03.178,Colour_Asymmetry_Pilot,2022.1.3,Win32,59.95922773,62bbe60bf3d75ef465d3e404,0,143,143,147,1,twofour
,,,,,,6106692c478cb3f1603657ed,62bbfad4447d54b1ac67c6f5,2022-06-29_10h22.03.178,Colour_Asymmetry_Pilot,2022.1.3,Win32,59.95922773,62bbe60bf3d75ef465d3e404,0,144,144,73,1,onethree
,,,,,,6106692c478cb3f1603657ed,62bbfad4447d54b1ac67c6f5,2022-06-29_10h22.03.178,Colour_Asymmetry_Pilot,2022.1.3,Win32,59.95922773,62bbe60bf3d75ef465d3e404,0,145,145,90,1,twoone
,,,,,,6106692c478cb3f1603657ed,62bbfad4447d54b1ac67c6f5,2022-06-29_10h22.03.178,Colour_Asymmetry_Pilot,2022.1.3,Win32,59.95922773,62bbe60bf3d75ef465d3e404,0,146,146,26,1,twoone
,,,,,,6106692c478cb3f1603657ed,62bbfad4447d54b1ac67c6f5,2022-06-29_10h22.03.178,Colour_Asymmetry_Pilot,2022.1.3,Win32,59.95922773,62bbe60bf3d75ef465d3e404,0,147,147,77,1,threefour
,,,,,,6106692c478cb3f1603657ed,62bbfad4447d54b1ac67c6f5,2022-06-29_10h22.03.178,Colour_Asymmetry_Pilot,2022.1.3,Win32,59.95922773,62bbe60bf3d75ef465d3e404,0,148,148,57,1,onethree
,,,,,,6106692c478cb3f1603657ed,62bbfad4447d54b1ac67c6f5,2022-06-29_10h22.03.178,Colour_Asymmetry_Pilot,2022.1.3,Win32,59.95922773,62bbe60bf3d75ef465d3e404,0,149,149,23,1,fourthree
,,,,,,6106692c478cb3f1603657ed,62bbfad4447d54b1ac67c6f5,2022-06-29_10h22.03.178,Colour_Asymmetry_Pilot,2022.1.3,Win32,59.95922773,62bbe60bf3d75ef465d3e404,0,150,150,14,1,fourtwo
,,,,,,6106692c478cb3f1603657ed,62bbfad4447d54b1ac67c6f5,2022-06-29_10h22.03.178,Colour_Asymmetry_Pilot,2022.1.3,Win32,59.95922773,62bbe60bf3d75ef465d3e404,0,151,151,140,1,threeone
,,,,,,6106692c478cb3f1603657ed,62bbfad4447d54b1ac67c6f5,2022-06-29_10h22.03.178,Colour_Asymmetry_Pilot,2022.1.3,Win32,59.95922773,62bbe60bf3d75ef465d3e404,0,152,152,50,1,twoone
,,,,,,6106692c478cb3f1603657ed,62bbfad4447d54b1ac67c6f5,2022-06-29_10h22.03.178,Colour_Asymmetry_Pilot,2022.1.3,Win32,59.95922773,62bbe60bf3d75ef465d3e404,0,153,153,83,1,twofour
,,,,,,6106692c478cb3f1603657ed,62bbfad4447d54b1ac67c6f5,2022-06-29_10h22.03.178,Colour_Asymmetry_Pilot,2022.1.3,Win32,59.95922773,62bbe60bf3d75ef465d3e404,0,154,154,104,1,onetwo
,,,,,,6106692c478cb3f1603657ed,62bbfad4447d54b1ac67c6f5,2022-06-29_10h22.03.178,Colour_Asymmetry_Pilot,2022.1.3,Win32,59.95922773,62bbe60bf3d75ef465d3e404,0,155,155,32,1,onetwo
,,,,,,6106692c478cb3f1603657ed,62bbfad4447d54b1ac67c6f5,2022-06-29_10h22.03.178,Colour_Asymmetry_Pilot,2022.1.3,Win32,59.95922773,62bbe60bf3d75ef465d3e404,0,156,156,127,1,fourthree
,,,,,,6106692c478cb3f1603657ed,62bbfad4447d54b1ac67c6f5,2022-06-29_10h22.03.178,Colour_Asymmetry_Pilot,2022.1.3,Win32,59.95922773,62bbe60bf3d75ef465d3e404,0,157,157,40,1,onetwo
,,,,,,6106692c478cb3f1603657ed,62bbfad4447d54b1ac67c6f5,2022-06-29_10h22.03.178,Colour_Asymmetry_Pilot,2022.1.3,Win32,59.95922773,62bbe60bf3d75ef465d3e404,0,158,158,153,1,onethree
,,,,,,6106692c478cb3f1603657ed,62bbfad4447d54b1ac67c6f5,2022-06-29_10h22.03.178,Colour_Asymmetry_Pilot,2022.1.3,Win32,59.95922773,62bbe60bf3d75ef465d3e404,0,159,159,59,1,twofour
,,,,,,6106692c478cb3f1603657ed,62bbfad4447d54b1ac67c6f5,2022-06-29_10h22.03.178,Colour_Asymmetry_Pilot,2022.1.3,Win32,59.95922773,62bbe60bf3d75ef465d3e404,0,160,160,154,1,twoone
,,,,,,6106692c478cb3f1603657ed,62bbfad4447d54b1ac67c6f5,2022-06-29_10h22.03.178,Colour_Asymmetry_Pilot,2022.1.3,Win32,59.95922773,62bbe60bf3d75ef465d3e404,0,161,161,103,1,fourthree
