trials.thisRepN,trials.thisTrialN,trials.thisN,trials.thisIndex,trials.ran,Colourcodes,participant,session,date,expName,psychopyVersion,OS,frameRate,study_id,trials_4.thisRepN,trials_4.thisTrialN,trials_4.thisN,trials_4.thisIndex,trials_4.ran,StimulusPos,key_resp.keys,key_resp.rt,key_resp_2.keys,key_resp_2.rt
0,0,0,73,1,,6162c4df5e32a5416e76cc43,62bbfa8820e38978bb48e94c,2022-06-29_09h09.44.450,Colour_Asymmetry_Pilot,2022.1.3,Win32,60.09615385,62bbe60bf3d75ef465d3e404,,,,,,,,,,
0,1,1,48,1,,6162c4df5e32a5416e76cc43,62bbfa8820e38978bb48e94c,2022-06-29_09h09.44.450,Colour_Asymmetry_Pilot,2022.1.3,Win32,60.09615385,62bbe60bf3d75ef465d3e404,,,,,,,,,,
0,2,2,86,1,,6162c4df5e32a5416e76cc43,62bbfa8820e38978bb48e94c,2022-06-29_09h09.44.450,Colour_Asymmetry_Pilot,2022.1.3,Win32,60.09615385,62bbe60bf3d75ef465d3e404,,,,,,,,,,
0,3,3,3,1,,6162c4df5e32a5416e76cc43,62bbfa8820e38978bb48e94c,2022-06-29_09h09.44.450,Colour_Asymmetry_Pilot,2022.1.3,Win32,60.09615385,62bbe60bf3d75ef465d3e404,,,,,,,,,,
0,4,4,66,1,,6162c4df5e32a5416e76cc43,62bbfa8820e38978bb48e94c,2022-06-29_09h09.44.450,Colour_Asymmetry_Pilot,2022.1.3,Win32,60.09615385,62bbe60bf3d75ef465d3e404,,,,,,,,,,
0,5,5,17,1,,6162c4df5e32a5416e76cc43,62bbfa8820e38978bb48e94c,2022-06-29_09h09.44.450,Colour_Asymmetry_Pilot,2022.1.3,Win32,60.09615385,62bbe60bf3d75ef465d3e404,,,,,,,,,,
0,6,6,80,1,,6162c4df5e32a5416e76cc43,62bbfa8820e38978bb48e94c,2022-06-29_09h09.44.450,Colour_Asymmetry_Pilot,2022.1.3,Win32,60.09615385,62bbe60bf3d75ef465d3e404,,,,,,,,,,
0,7,7,42,1,,6162c4df5e32a5416e76cc43,62bbfa8820e38978bb48e94c,2022-06-29_09h09.44.450,Colour_Asymmetry_Pilot,2022.1.3,Win32,60.09615385,62bbe60bf3d75ef465d3e404,,,,,,,,,,
0,8,8,26,1,,6162c4df5e32a5416e76cc43,62bbfa8820e38978bb48e94c,2022-06-29_09h09.44.450,Colour_Asymmetry_Pilot,2022.1.3,Win32,60.09615385,62bbe60bf3d75ef465d3e404,,,,,,,,,,
0,9,9,8,1,,6162c4df5e32a5416e76cc43,62bbfa8820e38978bb48e94c,2022-06-29_09h09.44.450,Colour_Asymmetry_Pilot,2022.1.3,Win32,60.09615385,62bbe60bf3d75ef465d3e404,,,,,,,,,,
0,10,10,90,1,,6162c4df5e32a5416e76cc43,62bbfa8820e38978bb48e94c,2022-06-29_09h09.44.450,Colour_Asymmetry_Pilot,2022.1.3,Win32,60.09615385,62bbe60bf3d75ef465d3e404,,,,,,,,,,
0,11,11,31,1,,6162c4df5e32a5416e76cc43,62bbfa8820e38978bb48e94c,2022-06-29_09h09.44.450,Colour_Asymmetry_Pilot,2022.1.3,Win32,60.09615385,62bbe60bf3d75ef465d3e404,,,,,,,,,,
0,12,12,36,1,,6162c4df5e32a5416e76cc43,62bbfa8820e38978bb48e94c,2022-06-29_09h09.44.450,Colour_Asymmetry_Pilot,2022.1.3,Win32,60.09615385,62bbe60bf3d75ef465d3e404,,,,,,,,,,
0,13,13,46,1,,6162c4df5e32a5416e76cc43,62bbfa8820e38978bb48e94c,2022-06-29_09h09.44.450,Colour_Asymmetry_Pilot,2022.1.3,Win32,60.09615385,62bbe60bf3d75ef465d3e404,,,,,,,,,,
0,14,14,77,1,,6162c4df5e32a5416e76cc43,62bbfa8820e38978bb48e94c,2022-06-29_09h09.44.450,Colour_Asymmetry_Pilot,2022.1.3,Win32,60.09615385,62bbe60bf3d75ef465d3e404,,,,,,,,,,
0,15,15,70,1,,6162c4df5e32a5416e76cc43,62bbfa8820e38978bb48e94c,2022-06-29_09h09.44.450,Colour_Asymmetry_Pilot,2022.1.3,Win32,60.09615385,62bbe60bf3d75ef465d3e404,,,,,,,,,,
0,16,16,20,1,,6162c4df5e32a5416e76cc43,62bbfa8820e38978bb48e94c,2022-06-29_09h09.44.450,Colour_Asymmetry_Pilot,2022.1.3,Win32,60.09615385,62bbe60bf3d75ef465d3e404,,,,,,,,,,
0,17,17,43,1,,6162c4df5e32a5416e76cc43,62bbfa8820e38978bb48e94c,2022-06-29_09h09.44.450,Colour_Asymmetry_Pilot,2022.1.3,Win32,60.09615385,62bbe60bf3d75ef465d3e404,,,,,,,,,,
0,18,18,34,1,,6162c4df5e32a5416e76cc43,62bbfa8820e38978bb48e94c,2022-06-29_09h09.44.450,Colour_Asymmetry_Pilot,2022.1.3,Win32,60.09615385,62bbe60bf3d75ef465d3e404,,,,,,,,,,
0,19,19,53,1,,6162c4df5e32a5416e76cc43,62bbfa8820e38978bb48e94c,2022-06-29_09h09.44.450,Colour_Asymmetry_Pilot,2022.1.3,Win32,60.09615385,62bbe60bf3d75ef465d3e404,,,,,,,,,,
0,20,20,85,1,,6162c4df5e32a5416e76cc43,62bbfa8820e38978bb48e94c,2022-06-29_09h09.44.450,Colour_Asymmetry_Pilot,2022.1.3,Win32,60.09615385,62bbe60bf3d75ef465d3e404,,,,,,,,,,
0,21,21,82,1,,6162c4df5e32a5416e76cc43,62bbfa8820e38978bb48e94c,2022-06-29_09h09.44.450,Colour_Asymmetry_Pilot,2022.1.3,Win32,60.09615385,62bbe60bf3d75ef465d3e404,,,,,,,,,,
0,22,22,30,1,,6162c4df5e32a5416e76cc43,62bbfa8820e38978bb48e94c,2022-06-29_09h09.44.450,Colour_Asymmetry_Pilot,2022.1.3,Win32,60.09615385,62bbe60bf3d75ef465d3e404,,,,,,,,,,
0,23,23,27,1,,6162c4df5e32a5416e76cc43,62bbfa8820e38978bb48e94c,2022-06-29_09h09.44.450,Colour_Asymmetry_Pilot,2022.1.3,Win32,60.09615385,62bbe60bf3d75ef465d3e404,,,,,,,,,,
0,24,24,5,1,,6162c4df5e32a5416e76cc43,62bbfa8820e38978bb48e94c,2022-06-29_09h09.44.450,Colour_Asymmetry_Pilot,2022.1.3,Win32,60.09615385,62bbe60bf3d75ef465d3e404,,,,,,,,,,
0,25,25,89,1,,6162c4df5e32a5416e76cc43,62bbfa8820e38978bb48e94c,2022-06-29_09h09.44.450,Colour_Asymmetry_Pilot,2022.1.3,Win32,60.09615385,62bbe60bf3d75ef465d3e404,,,,,,,,,,
0,26,26,78,1,,6162c4df5e32a5416e76cc43,62bbfa8820e38978bb48e94c,2022-06-29_09h09.44.450,Colour_Asymmetry_Pilot,2022.1.3,Win32,60.09615385,62bbe60bf3d75ef465d3e404,,,,,,,,,,
0,27,27,88,1,,6162c4df5e32a5416e76cc43,62bbfa8820e38978bb48e94c,2022-06-29_09h09.44.450,Colour_Asymmetry_Pilot,2022.1.3,Win32,60.09615385,62bbe60bf3d75ef465d3e404,,,,,,,,,,
0,28,28,2,1,,6162c4df5e32a5416e76cc43,62bbfa8820e38978bb48e94c,2022-06-29_09h09.44.450,Colour_Asymmetry_Pilot,2022.1.3,Win32,60.09615385,62bbe60bf3d75ef465d3e404,,,,,,,,,,
0,29,29,21,1,,6162c4df5e32a5416e76cc43,62bbfa8820e38978bb48e94c,2022-06-29_09h09.44.450,Colour_Asymmetry_Pilot,2022.1.3,Win32,60.09615385,62bbe60bf3d75ef465d3e404,,,,,,,,,,
0,30,30,56,1,,6162c4df5e32a5416e76cc43,62bbfa8820e38978bb48e94c,2022-06-29_09h09.44.450,Colour_Asymmetry_Pilot,2022.1.3,Win32,60.09615385,62bbe60bf3d75ef465d3e404,,,,,,,,,,
0,31,31,0,1,,6162c4df5e32a5416e76cc43,62bbfa8820e38978bb48e94c,2022-06-29_09h09.44.450,Colour_Asymmetry_Pilot,2022.1.3,Win32,60.09615385,62bbe60bf3d75ef465d3e404,,,,,,,,,,
0,32,32,41,1,,6162c4df5e32a5416e76cc43,62bbfa8820e38978bb48e94c,2022-06-29_09h09.44.450,Colour_Asymmetry_Pilot,2022.1.3,Win32,60.09615385,62bbe60bf3d75ef465d3e404,,,,,,,,,,
0,33,33,33,1,,6162c4df5e32a5416e76cc43,62bbfa8820e38978bb48e94c,2022-06-29_09h09.44.450,Colour_Asymmetry_Pilot,2022.1.3,Win32,60.09615385,62bbe60bf3d75ef465d3e404,,,,,,,,,,
0,34,34,60,1,,6162c4df5e32a5416e76cc43,62bbfa8820e38978bb48e94c,2022-06-29_09h09.44.450,Colour_Asymmetry_Pilot,2022.1.3,Win32,60.09615385,62bbe60bf3d75ef465d3e404,,,,,,,,,,
0,35,35,72,1,,6162c4df5e32a5416e76cc43,62bbfa8820e38978bb48e94c,2022-06-29_09h09.44.450,Colour_Asymmetry_Pilot,2022.1.3,Win32,60.09615385,62bbe60bf3d75ef465d3e404,,,,,,,,,,
0,36,36,84,1,,6162c4df5e32a5416e76cc43,62bbfa8820e38978bb48e94c,2022-06-29_09h09.44.450,Colour_Asymmetry_Pilot,2022.1.3,Win32,60.09615385,62bbe60bf3d75ef465d3e404,,,,,,,,,,
0,37,37,59,1,,6162c4df5e32a5416e76cc43,62bbfa8820e38978bb48e94c,2022-06-29_09h09.44.450,Colour_Asymmetry_Pilot,2022.1.3,Win32,60.09615385,62bbe60bf3d75ef465d3e404,,,,,,,,,,
0,38,38,58,1,,6162c4df5e32a5416e76cc43,62bbfa8820e38978bb48e94c,2022-06-29_09h09.44.450,Colour_Asymmetry_Pilot,2022.1.3,Win32,60.09615385,62bbe60bf3d75ef465d3e404,,,,,,,,,,
0,39,39,23,1,,6162c4df5e32a5416e76cc43,62bbfa8820e38978bb48e94c,2022-06-29_09h09.44.450,Colour_Asymmetry_Pilot,2022.1.3,Win32,60.09615385,62bbe60bf3d75ef465d3e404,,,,,,,,,,
0,40,40,12,1,,6162c4df5e32a5416e76cc43,62bbfa8820e38978bb48e94c,2022-06-29_09h09.44.450,Colour_Asymmetry_Pilot,2022.1.3,Win32,60.09615385,62bbe60bf3d75ef465d3e404,,,,,,,,,,
0,41,41,49,1,,6162c4df5e32a5416e76cc43,62bbfa8820e38978bb48e94c,2022-06-29_09h09.44.450,Colour_Asymmetry_Pilot,2022.1.3,Win32,60.09615385,62bbe60bf3d75ef465d3e404,,,,,,,,,,
0,42,42,29,1,,6162c4df5e32a5416e76cc43,62bbfa8820e38978bb48e94c,2022-06-29_09h09.44.450,Colour_Asymmetry_Pilot,2022.1.3,Win32,60.09615385,62bbe60bf3d75ef465d3e404,,,,,,,,,,
0,43,43,38,1,,6162c4df5e32a5416e76cc43,62bbfa8820e38978bb48e94c,2022-06-29_09h09.44.450,Colour_Asymmetry_Pilot,2022.1.3,Win32,60.09615385,62bbe60bf3d75ef465d3e404,,,,,,,,,,
0,44,44,63,1,,6162c4df5e32a5416e76cc43,62bbfa8820e38978bb48e94c,2022-06-29_09h09.44.450,Colour_Asymmetry_Pilot,2022.1.3,Win32,60.09615385,62bbe60bf3d75ef465d3e404,,,,,,,,,,
0,45,45,83,1,,6162c4df5e32a5416e76cc43,62bbfa8820e38978bb48e94c,2022-06-29_09h09.44.450,Colour_Asymmetry_Pilot,2022.1.3,Win32,60.09615385,62bbe60bf3d75ef465d3e404,,,,,,,,,,
0,46,46,24,1,,6162c4df5e32a5416e76cc43,62bbfa8820e38978bb48e94c,2022-06-29_09h09.44.450,Colour_Asymmetry_Pilot,2022.1.3,Win32,60.09615385,62bbe60bf3d75ef465d3e404,,,,,,,,,,
0,47,47,13,1,,6162c4df5e32a5416e76cc43,62bbfa8820e38978bb48e94c,2022-06-29_09h09.44.450,Colour_Asymmetry_Pilot,2022.1.3,Win32,60.09615385,62bbe60bf3d75ef465d3e404,,,,,,,,,,
0,48,48,67,1,,6162c4df5e32a5416e76cc43,62bbfa8820e38978bb48e94c,2022-06-29_09h09.44.450,Colour_Asymmetry_Pilot,2022.1.3,Win32,60.09615385,62bbe60bf3d75ef465d3e404,,,,,,,,,,
0,49,49,54,1,,6162c4df5e32a5416e76cc43,62bbfa8820e38978bb48e94c,2022-06-29_09h09.44.450,Colour_Asymmetry_Pilot,2022.1.3,Win32,60.09615385,62bbe60bf3d75ef465d3e404,,,,,,,,,,
0,50,50,16,1,,6162c4df5e32a5416e76cc43,62bbfa8820e38978bb48e94c,2022-06-29_09h09.44.450,Colour_Asymmetry_Pilot,2022.1.3,Win32,60.09615385,62bbe60bf3d75ef465d3e404,,,,,,,,,,
0,51,51,62,1,,6162c4df5e32a5416e76cc43,62bbfa8820e38978bb48e94c,2022-06-29_09h09.44.450,Colour_Asymmetry_Pilot,2022.1.3,Win32,60.09615385,62bbe60bf3d75ef465d3e404,,,,,,,,,,
0,52,52,55,1,,6162c4df5e32a5416e76cc43,62bbfa8820e38978bb48e94c,2022-06-29_09h09.44.450,Colour_Asymmetry_Pilot,2022.1.3,Win32,60.09615385,62bbe60bf3d75ef465d3e404,,,,,,,,,,
0,53,53,61,1,,6162c4df5e32a5416e76cc43,62bbfa8820e38978bb48e94c,2022-06-29_09h09.44.450,Colour_Asymmetry_Pilot,2022.1.3,Win32,60.09615385,62bbe60bf3d75ef465d3e404,,,,,,,,,,
0,54,54,39,1,,6162c4df5e32a5416e76cc43,62bbfa8820e38978bb48e94c,2022-06-29_09h09.44.450,Colour_Asymmetry_Pilot,2022.1.3,Win32,60.09615385,62bbe60bf3d75ef465d3e404,,,,,,,,,,
0,55,55,10,1,,6162c4df5e32a5416e76cc43,62bbfa8820e38978bb48e94c,2022-06-29_09h09.44.450,Colour_Asymmetry_Pilot,2022.1.3,Win32,60.09615385,62bbe60bf3d75ef465d3e404,,,,,,,,,,
0,56,56,68,1,,6162c4df5e32a5416e76cc43,62bbfa8820e38978bb48e94c,2022-06-29_09h09.44.450,Colour_Asymmetry_Pilot,2022.1.3,Win32,60.09615385,62bbe60bf3d75ef465d3e404,,,,,,,,,,
0,57,57,75,1,,6162c4df5e32a5416e76cc43,62bbfa8820e38978bb48e94c,2022-06-29_09h09.44.450,Colour_Asymmetry_Pilot,2022.1.3,Win32,60.09615385,62bbe60bf3d75ef465d3e404,,,,,,,,,,
0,58,58,50,1,,6162c4df5e32a5416e76cc43,62bbfa8820e38978bb48e94c,2022-06-29_09h09.44.450,Colour_Asymmetry_Pilot,2022.1.3,Win32,60.09615385,62bbe60bf3d75ef465d3e404,,,,,,,,,,
0,59,59,11,1,,6162c4df5e32a5416e76cc43,62bbfa8820e38978bb48e94c,2022-06-29_09h09.44.450,Colour_Asymmetry_Pilot,2022.1.3,Win32,60.09615385,62bbe60bf3d75ef465d3e404,,,,,,,,,,
0,60,60,4,1,,6162c4df5e32a5416e76cc43,62bbfa8820e38978bb48e94c,2022-06-29_09h09.44.450,Colour_Asymmetry_Pilot,2022.1.3,Win32,60.09615385,62bbe60bf3d75ef465d3e404,,,,,,,,,,
0,61,61,35,1,,6162c4df5e32a5416e76cc43,62bbfa8820e38978bb48e94c,2022-06-29_09h09.44.450,Colour_Asymmetry_Pilot,2022.1.3,Win32,60.09615385,62bbe60bf3d75ef465d3e404,,,,,,,,,,
0,62,62,18,1,,6162c4df5e32a5416e76cc43,62bbfa8820e38978bb48e94c,2022-06-29_09h09.44.450,Colour_Asymmetry_Pilot,2022.1.3,Win32,60.09615385,62bbe60bf3d75ef465d3e404,,,,,,,,,,
0,63,63,19,1,,6162c4df5e32a5416e76cc43,62bbfa8820e38978bb48e94c,2022-06-29_09h09.44.450,Colour_Asymmetry_Pilot,2022.1.3,Win32,60.09615385,62bbe60bf3d75ef465d3e404,,,,,,,,,,
0,64,64,44,1,,6162c4df5e32a5416e76cc43,62bbfa8820e38978bb48e94c,2022-06-29_09h09.44.450,Colour_Asymmetry_Pilot,2022.1.3,Win32,60.09615385,62bbe60bf3d75ef465d3e404,,,,,,,,,,
0,65,65,1,1,,6162c4df5e32a5416e76cc43,62bbfa8820e38978bb48e94c,2022-06-29_09h09.44.450,Colour_Asymmetry_Pilot,2022.1.3,Win32,60.09615385,62bbe60bf3d75ef465d3e404,,,,,,,,,,
0,66,66,79,1,,6162c4df5e32a5416e76cc43,62bbfa8820e38978bb48e94c,2022-06-29_09h09.44.450,Colour_Asymmetry_Pilot,2022.1.3,Win32,60.09615385,62bbe60bf3d75ef465d3e404,,,,,,,,,,
0,67,67,15,1,,6162c4df5e32a5416e76cc43,62bbfa8820e38978bb48e94c,2022-06-29_09h09.44.450,Colour_Asymmetry_Pilot,2022.1.3,Win32,60.09615385,62bbe60bf3d75ef465d3e404,,,,,,,,,,
0,68,68,6,1,,6162c4df5e32a5416e76cc43,62bbfa8820e38978bb48e94c,2022-06-29_09h09.44.450,Colour_Asymmetry_Pilot,2022.1.3,Win32,60.09615385,62bbe60bf3d75ef465d3e404,,,,,,,,,,
0,69,69,22,1,,6162c4df5e32a5416e76cc43,62bbfa8820e38978bb48e94c,2022-06-29_09h09.44.450,Colour_Asymmetry_Pilot,2022.1.3,Win32,60.09615385,62bbe60bf3d75ef465d3e404,,,,,,,,,,
0,70,70,7,1,,6162c4df5e32a5416e76cc43,62bbfa8820e38978bb48e94c,2022-06-29_09h09.44.450,Colour_Asymmetry_Pilot,2022.1.3,Win32,60.09615385,62bbe60bf3d75ef465d3e404,,,,,,,,,,
0,71,71,57,1,,6162c4df5e32a5416e76cc43,62bbfa8820e38978bb48e94c,2022-06-29_09h09.44.450,Colour_Asymmetry_Pilot,2022.1.3,Win32,60.09615385,62bbe60bf3d75ef465d3e404,,,,,,,,,,
0,72,72,74,1,,6162c4df5e32a5416e76cc43,62bbfa8820e38978bb48e94c,2022-06-29_09h09.44.450,Colour_Asymmetry_Pilot,2022.1.3,Win32,60.09615385,62bbe60bf3d75ef465d3e404,,,,,,,,,,
0,73,73,87,1,,6162c4df5e32a5416e76cc43,62bbfa8820e38978bb48e94c,2022-06-29_09h09.44.450,Colour_Asymmetry_Pilot,2022.1.3,Win32,60.09615385,62bbe60bf3d75ef465d3e404,,,,,,,,,,
0,74,74,81,1,,6162c4df5e32a5416e76cc43,62bbfa8820e38978bb48e94c,2022-06-29_09h09.44.450,Colour_Asymmetry_Pilot,2022.1.3,Win32,60.09615385,62bbe60bf3d75ef465d3e404,,,,,,,,,,
0,75,75,45,1,,6162c4df5e32a5416e76cc43,62bbfa8820e38978bb48e94c,2022-06-29_09h09.44.450,Colour_Asymmetry_Pilot,2022.1.3,Win32,60.09615385,62bbe60bf3d75ef465d3e404,,,,,,,,,,
0,76,76,9,1,,6162c4df5e32a5416e76cc43,62bbfa8820e38978bb48e94c,2022-06-29_09h09.44.450,Colour_Asymmetry_Pilot,2022.1.3,Win32,60.09615385,62bbe60bf3d75ef465d3e404,,,,,,,,,,
0,77,77,71,1,,6162c4df5e32a5416e76cc43,62bbfa8820e38978bb48e94c,2022-06-29_09h09.44.450,Colour_Asymmetry_Pilot,2022.1.3,Win32,60.09615385,62bbe60bf3d75ef465d3e404,,,,,,,,,,
0,78,78,51,1,,6162c4df5e32a5416e76cc43,62bbfa8820e38978bb48e94c,2022-06-29_09h09.44.450,Colour_Asymmetry_Pilot,2022.1.3,Win32,60.09615385,62bbe60bf3d75ef465d3e404,,,,,,,,,,
0,79,79,65,1,,6162c4df5e32a5416e76cc43,62bbfa8820e38978bb48e94c,2022-06-29_09h09.44.450,Colour_Asymmetry_Pilot,2022.1.3,Win32,60.09615385,62bbe60bf3d75ef465d3e404,,,,,,,,,,
0,80,80,47,1,,6162c4df5e32a5416e76cc43,62bbfa8820e38978bb48e94c,2022-06-29_09h09.44.450,Colour_Asymmetry_Pilot,2022.1.3,Win32,60.09615385,62bbe60bf3d75ef465d3e404,,,,,,,,,,
0,81,81,91,1,,6162c4df5e32a5416e76cc43,62bbfa8820e38978bb48e94c,2022-06-29_09h09.44.450,Colour_Asymmetry_Pilot,2022.1.3,Win32,60.09615385,62bbe60bf3d75ef465d3e404,,,,,,,,,,
0,82,82,37,1,,6162c4df5e32a5416e76cc43,62bbfa8820e38978bb48e94c,2022-06-29_09h09.44.450,Colour_Asymmetry_Pilot,2022.1.3,Win32,60.09615385,62bbe60bf3d75ef465d3e404,,,,,,,,,,
0,83,83,40,1,,6162c4df5e32a5416e76cc43,62bbfa8820e38978bb48e94c,2022-06-29_09h09.44.450,Colour_Asymmetry_Pilot,2022.1.3,Win32,60.09615385,62bbe60bf3d75ef465d3e404,,,,,,,,,,
0,84,84,69,1,,6162c4df5e32a5416e76cc43,62bbfa8820e38978bb48e94c,2022-06-29_09h09.44.450,Colour_Asymmetry_Pilot,2022.1.3,Win32,60.09615385,62bbe60bf3d75ef465d3e404,,,,,,,,,,
0,85,85,92,1,,6162c4df5e32a5416e76cc43,62bbfa8820e38978bb48e94c,2022-06-29_09h09.44.450,Colour_Asymmetry_Pilot,2022.1.3,Win32,60.09615385,62bbe60bf3d75ef465d3e404,,,,,,,,,,
0,86,86,32,1,,6162c4df5e32a5416e76cc43,62bbfa8820e38978bb48e94c,2022-06-29_09h09.44.450,Colour_Asymmetry_Pilot,2022.1.3,Win32,60.09615385,62bbe60bf3d75ef465d3e404,,,,,,,,,,
0,87,87,52,1,,6162c4df5e32a5416e76cc43,62bbfa8820e38978bb48e94c,2022-06-29_09h09.44.450,Colour_Asymmetry_Pilot,2022.1.3,Win32,60.09615385,62bbe60bf3d75ef465d3e404,,,,,,,,,,
0,88,88,76,1,,6162c4df5e32a5416e76cc43,62bbfa8820e38978bb48e94c,2022-06-29_09h09.44.450,Colour_Asymmetry_Pilot,2022.1.3,Win32,60.09615385,62bbe60bf3d75ef465d3e404,,,,,,,,,,
0,89,89,64,1,,6162c4df5e32a5416e76cc43,62bbfa8820e38978bb48e94c,2022-06-29_09h09.44.450,Colour_Asymmetry_Pilot,2022.1.3,Win32,60.09615385,62bbe60bf3d75ef465d3e404,,,,,,,,,,
0,90,90,28,1,,6162c4df5e32a5416e76cc43,62bbfa8820e38978bb48e94c,2022-06-29_09h09.44.450,Colour_Asymmetry_Pilot,2022.1.3,Win32,60.09615385,62bbe60bf3d75ef465d3e404,,,,,,,,,,
0,91,91,14,1,,6162c4df5e32a5416e76cc43,62bbfa8820e38978bb48e94c,2022-06-29_09h09.44.450,Colour_Asymmetry_Pilot,2022.1.3,Win32,60.09615385,62bbe60bf3d75ef465d3e404,,,,,,,,,,
0,92,92,25,1,,6162c4df5e32a5416e76cc43,62bbfa8820e38978bb48e94c,2022-06-29_09h09.44.450,Colour_Asymmetry_Pilot,2022.1.3,Win32,60.09615385,62bbe60bf3d75ef465d3e404,,,,,,,,,,
,,,,,,6162c4df5e32a5416e76cc43,62bbfa8820e38978bb48e94c,2022-06-29_09h09.44.450,Colour_Asymmetry_Pilot,2022.1.3,Win32,60.09615385,62bbe60bf3d75ef465d3e404,0,0,0,19,1,twofour,,,,
,,,,,,6162c4df5e32a5416e76cc43,62bbfa8820e38978bb48e94c,2022-06-29_09h09.44.450,Colour_Asymmetry_Pilot,2022.1.3,Win32,60.09615385,62bbe60bf3d75ef465d3e404,0,1,1,84,1,threeone,,,,
,,,,,,6162c4df5e32a5416e76cc43,62bbfa8820e38978bb48e94c,2022-06-29_09h09.44.450,Colour_Asymmetry_Pilot,2022.1.3,Win32,60.09615385,62bbe60bf3d75ef465d3e404,0,2,2,35,1,twofour,,,,
,,,,,,6162c4df5e32a5416e76cc43,62bbfa8820e38978bb48e94c,2022-06-29_09h09.44.450,Colour_Asymmetry_Pilot,2022.1.3,Win32,60.09615385,62bbe60bf3d75ef465d3e404,0,3,3,2,1,twoone,,,,
,,,,,,6162c4df5e32a5416e76cc43,62bbfa8820e38978bb48e94c,2022-06-29_09h09.44.450,Colour_Asymmetry_Pilot,2022.1.3,Win32,60.09615385,62bbe60bf3d75ef465d3e404,0,4,4,108,1,threeone,,,,
,,,,,,6162c4df5e32a5416e76cc43,62bbfa8820e38978bb48e94c,2022-06-29_09h09.44.450,Colour_Asymmetry_Pilot,2022.1.3,Win32,60.09615385,62bbe60bf3d75ef465d3e404,0,5,5,6,1,fourtwo,,,,
,,,,,,6162c4df5e32a5416e76cc43,62bbfa8820e38978bb48e94c,2022-06-29_09h09.44.450,Colour_Asymmetry_Pilot,2022.1.3,Win32,60.09615385,62bbe60bf3d75ef465d3e404,0,6,6,66,1,twoone,,,,
,,,,,,6162c4df5e32a5416e76cc43,62bbfa8820e38978bb48e94c,2022-06-29_09h09.44.450,Colour_Asymmetry_Pilot,2022.1.3,Win32,60.09615385,62bbe60bf3d75ef465d3e404,0,7,7,54,1,fourtwo,,,,
,,,,,,6162c4df5e32a5416e76cc43,62bbfa8820e38978bb48e94c,2022-06-29_09h09.44.450,Colour_Asymmetry_Pilot,2022.1.3,Win32,60.09615385,62bbe60bf3d75ef465d3e404,0,8,8,53,1,threefour,,,,
,,,,,,6162c4df5e32a5416e76cc43,62bbfa8820e38978bb48e94c,2022-06-29_09h09.44.450,Colour_Asymmetry_Pilot,2022.1.3,Win32,60.09615385,62bbe60bf3d75ef465d3e404,0,9,9,73,1,onethree,,,,
,,,,,,6162c4df5e32a5416e76cc43,62bbfa8820e38978bb48e94c,2022-06-29_09h09.44.450,Colour_Asymmetry_Pilot,2022.1.3,Win32,60.09615385,62bbe60bf3d75ef465d3e404,0,10,10,47,1,fourthree,,,,
,,,,,,6162c4df5e32a5416e76cc43,62bbfa8820e38978bb48e94c,2022-06-29_09h09.44.450,Colour_Asymmetry_Pilot,2022.1.3,Win32,60.09615385,62bbe60bf3d75ef465d3e404,0,11,11,8,1,onetwo,,,,
,,,,,,6162c4df5e32a5416e76cc43,62bbfa8820e38978bb48e94c,2022-06-29_09h09.44.450,Colour_Asymmetry_Pilot,2022.1.3,Win32,60.09615385,62bbe60bf3d75ef465d3e404,0,12,12,154,1,twoone,,,,
,,,,,,6162c4df5e32a5416e76cc43,62bbfa8820e38978bb48e94c,2022-06-29_09h09.44.450,Colour_Asymmetry_Pilot,2022.1.3,Win32,60.09615385,62bbe60bf3d75ef465d3e404,0,13,13,117,1,threefour,,,,
,,,,,,6162c4df5e32a5416e76cc43,62bbfa8820e38978bb48e94c,2022-06-29_09h09.44.450,Colour_Asymmetry_Pilot,2022.1.3,Win32,60.09615385,62bbe60bf3d75ef465d3e404,0,14,14,91,1,twofour,,,,
,,,,,,6162c4df5e32a5416e76cc43,62bbfa8820e38978bb48e94c,2022-06-29_09h09.44.450,Colour_Asymmetry_Pilot,2022.1.3,Win32,60.09615385,62bbe60bf3d75ef465d3e404,0,15,15,79,1,fourthree,,,,
,,,,,,6162c4df5e32a5416e76cc43,62bbfa8820e38978bb48e94c,2022-06-29_09h09.44.450,Colour_Asymmetry_Pilot,2022.1.3,Win32,60.09615385,62bbe60bf3d75ef465d3e404,0,16,16,130,1,twoone,,,,
,,,,,,6162c4df5e32a5416e76cc43,62bbfa8820e38978bb48e94c,2022-06-29_09h09.44.450,Colour_Asymmetry_Pilot,2022.1.3,Win32,60.09615385,62bbe60bf3d75ef465d3e404,0,17,17,159,1,fourthree,,,,
,,,,,,6162c4df5e32a5416e76cc43,62bbfa8820e38978bb48e94c,2022-06-29_09h09.44.450,Colour_Asymmetry_Pilot,2022.1.3,Win32,60.09615385,62bbe60bf3d75ef465d3e404,0,18,18,7,1,fourthree,,,,
,,,,,,6162c4df5e32a5416e76cc43,62bbfa8820e38978bb48e94c,2022-06-29_09h09.44.450,Colour_Asymmetry_Pilot,2022.1.3,Win32,60.09615385,62bbe60bf3d75ef465d3e404,0,19,19,141,1,threefour,,,,
,,,,,,6162c4df5e32a5416e76cc43,62bbfa8820e38978bb48e94c,2022-06-29_09h09.44.450,Colour_Asymmetry_Pilot,2022.1.3,Win32,60.09615385,62bbe60bf3d75ef465d3e404,0,20,20,65,1,onethree,,,,
,,,,,,6162c4df5e32a5416e76cc43,62bbfa8820e38978bb48e94c,2022-06-29_09h09.44.450,Colour_Asymmetry_Pilot,2022.1.3,Win32,60.09615385,62bbe60bf3d75ef465d3e404,0,21,21,120,1,onetwo,,,,
,,,,,,6162c4df5e32a5416e76cc43,62bbfa8820e38978bb48e94c,2022-06-29_09h09.44.450,Colour_Asymmetry_Pilot,2022.1.3,Win32,60.09615385,62bbe60bf3d75ef465d3e404,0,22,22,22,1,fourtwo,,,,
,,,,,,6162c4df5e32a5416e76cc43,62bbfa8820e38978bb48e94c,2022-06-29_09h09.44.450,Colour_Asymmetry_Pilot,2022.1.3,Win32,60.09615385,62bbe60bf3d75ef465d3e404,0,23,23,14,1,fourtwo,,,,
,,,,,,6162c4df5e32a5416e76cc43,62bbfa8820e38978bb48e94c,2022-06-29_09h09.44.450,Colour_Asymmetry_Pilot,2022.1.3,Win32,60.09615385,62bbe60bf3d75ef465d3e404,0,24,24,74,1,twoone,,,,
,,,,,,6162c4df5e32a5416e76cc43,62bbfa8820e38978bb48e94c,2022-06-29_09h09.44.450,Colour_Asymmetry_Pilot,2022.1.3,Win32,60.09615385,62bbe60bf3d75ef465d3e404,0,25,25,63,1,fourthree,,,,
,,,,,,6162c4df5e32a5416e76cc43,62bbfa8820e38978bb48e94c,2022-06-29_09h09.44.450,Colour_Asymmetry_Pilot,2022.1.3,Win32,60.09615385,62bbe60bf3d75ef465d3e404,0,26,26,67,1,twofour,,,,
,,,,,,6162c4df5e32a5416e76cc43,62bbfa8820e38978bb48e94c,2022-06-29_09h09.44.450,Colour_Asymmetry_Pilot,2022.1.3,Win32,60.09615385,62bbe60bf3d75ef465d3e404,0,27,27,46,1,fourtwo,,,,
,,,,,,6162c4df5e32a5416e76cc43,62bbfa8820e38978bb48e94c,2022-06-29_09h09.44.450,Colour_Asymmetry_Pilot,2022.1.3,Win32,60.09615385,62bbe60bf3d75ef465d3e404,0,28,28,127,1,fourthree,,,,
,,,,,,6162c4df5e32a5416e76cc43,62bbfa8820e38978bb48e94c,2022-06-29_09h09.44.450,Colour_Asymmetry_Pilot,2022.1.3,Win32,60.09615385,62bbe60bf3d75ef465d3e404,0,29,29,12,1,threeone,,,,
,,,,,,6162c4df5e32a5416e76cc43,62bbfa8820e38978bb48e94c,2022-06-29_09h09.44.450,Colour_Asymmetry_Pilot,2022.1.3,Win32,60.09615385,62bbe60bf3d75ef465d3e404,0,30,30,95,1,fourthree,,,,
,,,,,,6162c4df5e32a5416e76cc43,62bbfa8820e38978bb48e94c,2022-06-29_09h09.44.450,Colour_Asymmetry_Pilot,2022.1.3,Win32,60.09615385,62bbe60bf3d75ef465d3e404,0,31,31,82,1,twoone,,,,
,,,,,,6162c4df5e32a5416e76cc43,62bbfa8820e38978bb48e94c,2022-06-29_09h09.44.450,Colour_Asymmetry_Pilot,2022.1.3,Win32,60.09615385,62bbe60bf3d75ef465d3e404,0,32,32,138,1,twoone,,,,
,,,,,,6162c4df5e32a5416e76cc43,62bbfa8820e38978bb48e94c,2022-06-29_09h09.44.450,Colour_Asymmetry_Pilot,2022.1.3,Win32,60.09615385,62bbe60bf3d75ef465d3e404,0,33,33,148,1,threeone,,,,
,,,,,,6162c4df5e32a5416e76cc43,62bbfa8820e38978bb48e94c,2022-06-29_09h09.44.450,Colour_Asymmetry_Pilot,2022.1.3,Win32,60.09615385,62bbe60bf3d75ef465d3e404,0,34,34,106,1,twoone,,,,
,,,,,,6162c4df5e32a5416e76cc43,62bbfa8820e38978bb48e94c,2022-06-29_09h09.44.450,Colour_Asymmetry_Pilot,2022.1.3,Win32,60.09615385,62bbe60bf3d75ef465d3e404,0,35,35,128,1,onetwo,,,,
,,,,,,6162c4df5e32a5416e76cc43,62bbfa8820e38978bb48e94c,2022-06-29_09h09.44.450,Colour_Asymmetry_Pilot,2022.1.3,Win32,60.09615385,62bbe60bf3d75ef465d3e404,0,36,36,146,1,twoone,,,,
,,,,,,6162c4df5e32a5416e76cc43,62bbfa8820e38978bb48e94c,2022-06-29_09h09.44.450,Colour_Asymmetry_Pilot,2022.1.3,Win32,60.09615385,62bbe60bf3d75ef465d3e404,0,37,37,29,1,threefour,,,,
,,,,,,6162c4df5e32a5416e76cc43,62bbfa8820e38978bb48e94c,2022-06-29_09h09.44.450,Colour_Asymmetry_Pilot,2022.1.3,Win32,60.09615385,62bbe60bf3d75ef465d3e404,0,38,38,86,1,fourtwo,,,,
,,,,,,6162c4df5e32a5416e76cc43,62bbfa8820e38978bb48e94c,2022-06-29_09h09.44.450,Colour_Asymmetry_Pilot,2022.1.3,Win32,60.09615385,62bbe60bf3d75ef465d3e404,0,39,39,140,1,threeone,,,,
,,,,,,6162c4df5e32a5416e76cc43,62bbfa8820e38978bb48e94c,2022-06-29_09h09.44.450,Colour_Asymmetry_Pilot,2022.1.3,Win32,60.09615385,62bbe60bf3d75ef465d3e404,0,40,40,114,1,twoone,,,,
,,,,,,6162c4df5e32a5416e76cc43,62bbfa8820e38978bb48e94c,2022-06-29_09h09.44.450,Colour_Asymmetry_Pilot,2022.1.3,Win32,60.09615385,62bbe60bf3d75ef465d3e404,0,41,41,90,1,twoone,,,,
,,,,,,6162c4df5e32a5416e76cc43,62bbfa8820e38978bb48e94c,2022-06-29_09h09.44.450,Colour_Asymmetry_Pilot,2022.1.3,Win32,60.09615385,62bbe60bf3d75ef465d3e404,0,42,42,133,1,threefour,,,,
,,,,,,6162c4df5e32a5416e76cc43,62bbfa8820e38978bb48e94c,2022-06-29_09h09.44.450,Colour_Asymmetry_Pilot,2022.1.3,Win32,60.09615385,62bbe60bf3d75ef465d3e404,0,43,43,125,1,threefour,,,,
,,,,,,6162c4df5e32a5416e76cc43,62bbfa8820e38978bb48e94c,2022-06-29_09h09.44.450,Colour_Asymmetry_Pilot,2022.1.3,Win32,60.09615385,62bbe60bf3d75ef465d3e404,0,44,44,70,1,fourtwo,,,,
,,,,,,6162c4df5e32a5416e76cc43,62bbfa8820e38978bb48e94c,2022-06-29_09h09.44.450,Colour_Asymmetry_Pilot,2022.1.3,Win32,60.09615385,62bbe60bf3d75ef465d3e404,0,45,45,151,1,fourthree,,,,
,,,,,,6162c4df5e32a5416e76cc43,62bbfa8820e38978bb48e94c,2022-06-29_09h09.44.450,Colour_Asymmetry_Pilot,2022.1.3,Win32,60.09615385,62bbe60bf3d75ef465d3e404,0,46,46,88,1,onetwo,,,,
,,,,,,6162c4df5e32a5416e76cc43,62bbfa8820e38978bb48e94c,2022-06-29_09h09.44.450,Colour_Asymmetry_Pilot,2022.1.3,Win32,60.09615385,62bbe60bf3d75ef465d3e404,0,47,47,5,1,threefour,,,,
,,,,,,6162c4df5e32a5416e76cc43,62bbfa8820e38978bb48e94c,2022-06-29_09h09.44.450,Colour_Asymmetry_Pilot,2022.1.3,Win32,60.09615385,62bbe60bf3d75ef465d3e404,0,48,48,115,1,twofour,,,,
,,,,,,6162c4df5e32a5416e76cc43,62bbfa8820e38978bb48e94c,2022-06-29_09h09.44.450,Colour_Asymmetry_Pilot,2022.1.3,Win32,60.09615385,62bbe60bf3d75ef465d3e404,0,49,49,75,1,twofour,,,,
,,,,,,6162c4df5e32a5416e76cc43,62bbfa8820e38978bb48e94c,2022-06-29_09h09.44.450,Colour_Asymmetry_Pilot,2022.1.3,Win32,60.09615385,62bbe60bf3d75ef465d3e404,0,50,50,100,1,threeone,,,,
,,,,,,6162c4df5e32a5416e76cc43,62bbfa8820e38978bb48e94c,2022-06-29_09h09.44.450,Colour_Asymmetry_Pilot,2022.1.3,Win32,60.09615385,62bbe60bf3d75ef465d3e404,0,51,51,18,1,twoone,,,,
,,,,,,6162c4df5e32a5416e76cc43,62bbfa8820e38978bb48e94c,2022-06-29_09h09.44.450,Colour_Asymmetry_Pilot,2022.1.3,Win32,60.09615385,62bbe60bf3d75ef465d3e404,0,52,52,119,1,fourthree,,,,
,,,,,,6162c4df5e32a5416e76cc43,62bbfa8820e38978bb48e94c,2022-06-29_09h09.44.450,Colour_Asymmetry_Pilot,2022.1.3,Win32,60.09615385,62bbe60bf3d75ef465d3e404,0,53,53,107,1,twofour,,,,
,,,,,,6162c4df5e32a5416e76cc43,62bbfa8820e38978bb48e94c,2022-06-29_09h09.44.450,Colour_Asymmetry_Pilot,2022.1.3,Win32,60.09615385,62bbe60bf3d75ef465d3e404,0,54,54,104,1,onetwo,,,,
,,,,,,6162c4df5e32a5416e76cc43,62bbfa8820e38978bb48e94c,2022-06-29_09h09.44.450,Colour_Asymmetry_Pilot,2022.1.3,Win32,60.09615385,62bbe60bf3d75ef465d3e404,0,55,55,97,1,onethree,,,,
,,,,,,6162c4df5e32a5416e76cc43,62bbfa8820e38978bb48e94c,2022-06-29_09h09.44.450,Colour_Asymmetry_Pilot,2022.1.3,Win32,60.09615385,62bbe60bf3d75ef465d3e404,0,56,56,156,1,threeone,,,,
,,,,,,6162c4df5e32a5416e76cc43,62bbfa8820e38978bb48e94c,2022-06-29_09h09.44.450,Colour_Asymmetry_Pilot,2022.1.3,Win32,60.09615385,62bbe60bf3d75ef465d3e404,0,57,57,103,1,fourthree,,,,
,,,,,,6162c4df5e32a5416e76cc43,62bbfa8820e38978bb48e94c,2022-06-29_09h09.44.450,Colour_Asymmetry_Pilot,2022.1.3,Win32,60.09615385,62bbe60bf3d75ef465d3e404,0,58,58,101,1,threefour,,,,
,,,,,,6162c4df5e32a5416e76cc43,62bbfa8820e38978bb48e94c,2022-06-29_09h09.44.450,Colour_Asymmetry_Pilot,2022.1.3,Win32,60.09615385,62bbe60bf3d75ef465d3e404,0,59,59,56,1,onetwo,,,,
,,,,,,6162c4df5e32a5416e76cc43,62bbfa8820e38978bb48e94c,2022-06-29_09h09.44.450,Colour_Asymmetry_Pilot,2022.1.3,Win32,60.09615385,62bbe60bf3d75ef465d3e404,0,60,60,87,1,fourthree,,,,
,,,,,,6162c4df5e32a5416e76cc43,62bbfa8820e38978bb48e94c,2022-06-29_09h09.44.450,Colour_Asymmetry_Pilot,2022.1.3,Win32,60.09615385,62bbe60bf3d75ef465d3e404,0,61,61,10,1,twoone,,,,
,,,,,,6162c4df5e32a5416e76cc43,62bbfa8820e38978bb48e94c,2022-06-29_09h09.44.450,Colour_Asymmetry_Pilot,2022.1.3,Win32,60.09615385,62bbe60bf3d75ef465d3e404,0,62,62,145,1,onethree,,,,
,,,,,,6162c4df5e32a5416e76cc43,62bbfa8820e38978bb48e94c,2022-06-29_09h09.44.450,Colour_Asymmetry_Pilot,2022.1.3,Win32,60.09615385,62bbe60bf3d75ef465d3e404,0,63,63,134,1,fourtwo,,,,
,,,,,,6162c4df5e32a5416e76cc43,62bbfa8820e38978bb48e94c,2022-06-29_09h09.44.450,Colour_Asymmetry_Pilot,2022.1.3,Win32,60.09615385,62bbe60bf3d75ef465d3e404,0,64,64,149,1,threefour,,,,
,,,,,,6162c4df5e32a5416e76cc43,62bbfa8820e38978bb48e94c,2022-06-29_09h09.44.450,Colour_Asymmetry_Pilot,2022.1.3,Win32,60.09615385,62bbe60bf3d75ef465d3e404,0,65,65,160,1,onetwo,,,,
,,,,,,6162c4df5e32a5416e76cc43,62bbfa8820e38978bb48e94c,2022-06-29_09h09.44.450,Colour_Asymmetry_Pilot,2022.1.3,Win32,60.09615385,62bbe60bf3d75ef465d3e404,0,66,66,52,1,threeone,,,,
,,,,,,6162c4df5e32a5416e76cc43,62bbfa8820e38978bb48e94c,2022-06-29_09h09.44.450,Colour_Asymmetry_Pilot,2022.1.3,Win32,60.09615385,62bbe60bf3d75ef465d3e404,0,67,67,126,1,fourtwo,,,,
,,,,,,6162c4df5e32a5416e76cc43,62bbfa8820e38978bb48e94c,2022-06-29_09h09.44.450,Colour_Asymmetry_Pilot,2022.1.3,Win32,60.09615385,62bbe60bf3d75ef465d3e404,0,68,68,4,1,threeone,,,,
,,,,,,6162c4df5e32a5416e76cc43,62bbfa8820e38978bb48e94c,2022-06-29_09h09.44.450,Colour_Asymmetry_Pilot,2022.1.3,Win32,60.09615385,62bbe60bf3d75ef465d3e404,0,69,69,1,1,onethree,,,,
,,,,,,6162c4df5e32a5416e76cc43,62bbfa8820e38978bb48e94c,2022-06-29_09h09.44.450,Colour_Asymmetry_Pilot,2022.1.3,Win32,60.09615385,62bbe60bf3d75ef465d3e404,0,70,70,42,1,twoone,,,,
,,,,,,6162c4df5e32a5416e76cc43,62bbfa8820e38978bb48e94c,2022-06-29_09h09.44.450,Colour_Asymmetry_Pilot,2022.1.3,Win32,60.09615385,62bbe60bf3d75ef465d3e404,0,71,71,49,1,onethree,,,,
,,,,,,6162c4df5e32a5416e76cc43,62bbfa8820e38978bb48e94c,2022-06-29_09h09.44.450,Colour_Asymmetry_Pilot,2022.1.3,Win32,60.09615385,62bbe60bf3d75ef465d3e404,0,72,72,109,1,threefour,,,,
,,,,,,6162c4df5e32a5416e76cc43,62bbfa8820e38978bb48e94c,2022-06-29_09h09.44.450,Colour_Asymmetry_Pilot,2022.1.3,Win32,60.09615385,62bbe60bf3d75ef465d3e404,0,73,73,131,1,twofour,,,,
,,,,,,6162c4df5e32a5416e76cc43,62bbfa8820e38978bb48e94c,2022-06-29_09h09.44.450,Colour_Asymmetry_Pilot,2022.1.3,Win32,60.09615385,62bbe60bf3d75ef465d3e404,0,74,74,111,1,fourthree,,,,
,,,,,,6162c4df5e32a5416e76cc43,62bbfa8820e38978bb48e94c,2022-06-29_09h09.44.450,Colour_Asymmetry_Pilot,2022.1.3,Win32,60.09615385,62bbe60bf3d75ef465d3e404,0,75,75,40,1,onetwo,,,,
,,,,,,6162c4df5e32a5416e76cc43,62bbfa8820e38978bb48e94c,2022-06-29_09h09.44.450,Colour_Asymmetry_Pilot,2022.1.3,Win32,60.09615385,62bbe60bf3d75ef465d3e404,0,76,76,21,1,threefour,,,,
,,,,,,6162c4df5e32a5416e76cc43,62bbfa8820e38978bb48e94c,2022-06-29_09h09.44.450,Colour_Asymmetry_Pilot,2022.1.3,Win32,60.09615385,62bbe60bf3d75ef465d3e404,0,77,77,20,1,threeone,,,,
,,,,,,6162c4df5e32a5416e76cc43,62bbfa8820e38978bb48e94c,2022-06-29_09h09.44.450,Colour_Asymmetry_Pilot,2022.1.3,Win32,60.09615385,62bbe60bf3d75ef465d3e404,0,78,78,58,1,twoone,,,,
,,,,,,6162c4df5e32a5416e76cc43,62bbfa8820e38978bb48e94c,2022-06-29_09h09.44.450,Colour_Asymmetry_Pilot,2022.1.3,Win32,60.09615385,62bbe60bf3d75ef465d3e404,0,79,79,161,1,onethree,,,,
,,,,,,6162c4df5e32a5416e76cc43,62bbfa8820e38978bb48e94c,2022-06-29_09h09.44.450,Colour_Asymmetry_Pilot,2022.1.3,Win32,60.09615385,62bbe60bf3d75ef465d3e404,0,80,80,17,1,onethree,,,,
,,,,,,6162c4df5e32a5416e76cc43,62bbfa8820e38978bb48e94c,2022-06-29_09h09.44.450,Colour_Asymmetry_Pilot,2022.1.3,Win32,60.09615385,62bbe60bf3d75ef465d3e404,0,81,81,59,1,twofour,,,,
,,,,,,6162c4df5e32a5416e76cc43,62bbfa8820e38978bb48e94c,2022-06-29_09h09.44.450,Colour_Asymmetry_Pilot,2022.1.3,Win32,60.09615385,62bbe60bf3d75ef465d3e404,0,82,82,129,1,onethree,,,,
,,,,,,6162c4df5e32a5416e76cc43,62bbfa8820e38978bb48e94c,2022-06-29_09h09.44.450,Colour_Asymmetry_Pilot,2022.1.3,Win32,60.09615385,62bbe60bf3d75ef465d3e404,0,83,83,124,1,threeone,,,,
,,,,,,6162c4df5e32a5416e76cc43,62bbfa8820e38978bb48e94c,2022-06-29_09h09.44.450,Colour_Asymmetry_Pilot,2022.1.3,Win32,60.09615385,62bbe60bf3d75ef465d3e404,0,84,84,33,1,onethree,,,,
,,,,,,6162c4df5e32a5416e76cc43,62bbfa8820e38978bb48e94c,2022-06-29_09h09.44.450,Colour_Asymmetry_Pilot,2022.1.3,Win32,60.09615385,62bbe60bf3d75ef465d3e404,0,85,85,32,1,onetwo,,,,
,,,,,,6162c4df5e32a5416e76cc43,62bbfa8820e38978bb48e94c,2022-06-29_09h09.44.450,Colour_Asymmetry_Pilot,2022.1.3,Win32,60.09615385,62bbe60bf3d75ef465d3e404,0,86,86,39,1,fourthree,,,,
,,,,,,6162c4df5e32a5416e76cc43,62bbfa8820e38978bb48e94c,2022-06-29_09h09.44.450,Colour_Asymmetry_Pilot,2022.1.3,Win32,60.09615385,62bbe60bf3d75ef465d3e404,0,87,87,68,1,threeone,,,,
,,,,,,6162c4df5e32a5416e76cc43,62bbfa8820e38978bb48e94c,2022-06-29_09h09.44.450,Colour_Asymmetry_Pilot,2022.1.3,Win32,60.09615385,62bbe60bf3d75ef465d3e404,0,88,88,9,1,onethree,,,,
,,,,,,6162c4df5e32a5416e76cc43,62bbfa8820e38978bb48e94c,2022-06-29_09h09.44.450,Colour_Asymmetry_Pilot,2022.1.3,Win32,60.09615385,62bbe60bf3d75ef465d3e404,0,89,89,144,1,onetwo,,,,
,,,,,,6162c4df5e32a5416e76cc43,62bbfa8820e38978bb48e94c,2022-06-29_09h09.44.450,Colour_Asymmetry_Pilot,2022.1.3,Win32,60.09615385,62bbe60bf3d75ef465d3e404,0,90,90,105,1,onethree,,,,
,,,,,,6162c4df5e32a5416e76cc43,62bbfa8820e38978bb48e94c,2022-06-29_09h09.44.450,Colour_Asymmetry_Pilot,2022.1.3,Win32,60.09615385,62bbe60bf3d75ef465d3e404,0,91,91,57,1,onethree,,,,
,,,,,,6162c4df5e32a5416e76cc43,62bbfa8820e38978bb48e94c,2022-06-29_09h09.44.450,Colour_Asymmetry_Pilot,2022.1.3,Win32,60.09615385,62bbe60bf3d75ef465d3e404,0,92,92,98,1,twoone,,,,
,,,,,,6162c4df5e32a5416e76cc43,62bbfa8820e38978bb48e94c,2022-06-29_09h09.44.450,Colour_Asymmetry_Pilot,2022.1.3,Win32,60.09615385,62bbe60bf3d75ef465d3e404,0,93,93,78,1,fourtwo,,,,
,,,,,,6162c4df5e32a5416e76cc43,62bbfa8820e38978bb48e94c,2022-06-29_09h09.44.450,Colour_Asymmetry_Pilot,2022.1.3,Win32,60.09615385,62bbe60bf3d75ef465d3e404,0,94,94,89,1,onethree,,,,
,,,,,,6162c4df5e32a5416e76cc43,62bbfa8820e38978bb48e94c,2022-06-29_09h09.44.450,Colour_Asymmetry_Pilot,2022.1.3,Win32,60.09615385,62bbe60bf3d75ef465d3e404,0,95,95,26,1,twoone,,,,
,,,,,,6162c4df5e32a5416e76cc43,62bbfa8820e38978bb48e94c,2022-06-29_09h09.44.450,Colour_Asymmetry_Pilot,2022.1.3,Win32,60.09615385,62bbe60bf3d75ef465d3e404,0,96,96,62,1,fourtwo,,,,
,,,,,,6162c4df5e32a5416e76cc43,62bbfa8820e38978bb48e94c,2022-06-29_09h09.44.450,Colour_Asymmetry_Pilot,2022.1.3,Win32,60.09615385,62bbe60bf3d75ef465d3e404,0,97,97,132,1,threeone,,,,
,,,,,,6162c4df5e32a5416e76cc43,62bbfa8820e38978bb48e94c,2022-06-29_09h09.44.450,Colour_Asymmetry_Pilot,2022.1.3,Win32,60.09615385,62bbe60bf3d75ef465d3e404,0,98,98,15,1,fourthree,,,,
,,,,,,6162c4df5e32a5416e76cc43,62bbfa8820e38978bb48e94c,2022-06-29_09h09.44.450,Colour_Asymmetry_Pilot,2022.1.3,Win32,60.09615385,62bbe60bf3d75ef465d3e404,0,99,99,136,1,onetwo,,,,
,,,,,,6162c4df5e32a5416e76cc43,62bbfa8820e38978bb48e94c,2022-06-29_09h09.44.450,Colour_Asymmetry_Pilot,2022.1.3,Win32,60.09615385,62bbe60bf3d75ef465d3e404,0,100,100,45,1,threefour,,,,
,,,,,,6162c4df5e32a5416e76cc43,62bbfa8820e38978bb48e94c,2022-06-29_09h09.44.450,Colour_Asymmetry_Pilot,2022.1.3,Win32,60.09615385,62bbe60bf3d75ef465d3e404,0,101,101,150,1,fourtwo,,,,
,,,,,,6162c4df5e32a5416e76cc43,62bbfa8820e38978bb48e94c,2022-06-29_09h09.44.450,Colour_Asymmetry_Pilot,2022.1.3,Win32,60.09615385,62bbe60bf3d75ef465d3e404,0,102,102,123,1,twofour,,,,
,,,,,,6162c4df5e32a5416e76cc43,62bbfa8820e38978bb48e94c,2022-06-29_09h09.44.450,Colour_Asymmetry_Pilot,2022.1.3,Win32,60.09615385,62bbe60bf3d75ef465d3e404,0,103,103,122,1,twoone,,,,
,,,,,,6162c4df5e32a5416e76cc43,62bbfa8820e38978bb48e94c,2022-06-29_09h09.44.450,Colour_Asymmetry_Pilot,2022.1.3,Win32,60.09615385,62bbe60bf3d75ef465d3e404,0,104,104,34,1,twoone,,,,
,,,,,,6162c4df5e32a5416e76cc43,62bbfa8820e38978bb48e94c,2022-06-29_09h09.44.450,Colour_Asymmetry_Pilot,2022.1.3,Win32,60.09615385,62bbe60bf3d75ef465d3e404,0,105,105,13,1,threefour,,,,
,,,,,,6162c4df5e32a5416e76cc43,62bbfa8820e38978bb48e94c,2022-06-29_09h09.44.450,Colour_Asymmetry_Pilot,2022.1.3,Win32,60.09615385,62bbe60bf3d75ef465d3e404,0,106,106,55,1,fourthree,,,,
,,,,,,6162c4df5e32a5416e76cc43,62bbfa8820e38978bb48e94c,2022-06-29_09h09.44.450,Colour_Asymmetry_Pilot,2022.1.3,Win32,60.09615385,62bbe60bf3d75ef465d3e404,0,107,107,44,1,threeone,,,,
,,,,,,6162c4df5e32a5416e76cc43,62bbfa8820e38978bb48e94c,2022-06-29_09h09.44.450,Colour_Asymmetry_Pilot,2022.1.3,Win32,60.09615385,62bbe60bf3d75ef465d3e404,0,108,108,28,1,threeone,,,,
,,,,,,6162c4df5e32a5416e76cc43,62bbfa8820e38978bb48e94c,2022-06-29_09h09.44.450,Colour_Asymmetry_Pilot,2022.1.3,Win32,60.09615385,62bbe60bf3d75ef465d3e404,0,109,109,31,1,fourthree,,,,
,,,,,,6162c4df5e32a5416e76cc43,62bbfa8820e38978bb48e94c,2022-06-29_09h09.44.450,Colour_Asymmetry_Pilot,2022.1.3,Win32,60.09615385,62bbe60bf3d75ef465d3e404,0,110,110,16,1,onetwo,,,,
,,,,,,6162c4df5e32a5416e76cc43,62bbfa8820e38978bb48e94c,2022-06-29_09h09.44.450,Colour_Asymmetry_Pilot,2022.1.3,Win32,60.09615385,62bbe60bf3d75ef465d3e404,0,111,111,24,1,onetwo,,,,
,,,,,,6162c4df5e32a5416e76cc43,62bbfa8820e38978bb48e94c,2022-06-29_09h09.44.450,Colour_Asymmetry_Pilot,2022.1.3,Win32,60.09615385,62bbe60bf3d75ef465d3e404,0,112,112,116,1,threeone,,,,
,,,,,,6162c4df5e32a5416e76cc43,62bbfa8820e38978bb48e94c,2022-06-29_09h09.44.450,Colour_Asymmetry_Pilot,2022.1.3,Win32,60.09615385,62bbe60bf3d75ef465d3e404,0,113,113,139,1,twofour,,,,
,,,,,,6162c4df5e32a5416e76cc43,62bbfa8820e38978bb48e94c,2022-06-29_09h09.44.450,Colour_Asymmetry_Pilot,2022.1.3,Win32,60.09615385,62bbe60bf3d75ef465d3e404,0,114,114,71,1,fourthree,,,,
,,,,,,6162c4df5e32a5416e76cc43,62bbfa8820e38978bb48e94c,2022-06-29_09h09.44.450,Colour_Asymmetry_Pilot,2022.1.3,Win32,60.09615385,62bbe60bf3d75ef465d3e404,0,115,115,157,1,threefour,,,,
,,,,,,6162c4df5e32a5416e76cc43,62bbfa8820e38978bb48e94c,2022-06-29_09h09.44.450,Colour_Asymmetry_Pilot,2022.1.3,Win32,60.09615385,62bbe60bf3d75ef465d3e404,0,116,116,142,1,fourtwo,,,,
,,,,,,6162c4df5e32a5416e76cc43,62bbfa8820e38978bb48e94c,2022-06-29_09h09.44.450,Colour_Asymmetry_Pilot,2022.1.3,Win32,60.09615385,62bbe60bf3d75ef465d3e404,0,117,117,85,1,threefour,,,,
,,,,,,6162c4df5e32a5416e76cc43,62bbfa8820e38978bb48e94c,2022-06-29_09h09.44.450,Colour_Asymmetry_Pilot,2022.1.3,Win32,60.09615385,62bbe60bf3d75ef465d3e404,0,118,118,51,1,twofour,,,,
,,,,,,6162c4df5e32a5416e76cc43,62bbfa8820e38978bb48e94c,2022-06-29_09h09.44.450,Colour_Asymmetry_Pilot,2022.1.3,Win32,60.09615385,62bbe60bf3d75ef465d3e404,0,119,119,25,1,onethree,,,,
,,,,,,6162c4df5e32a5416e76cc43,62bbfa8820e38978bb48e94c,2022-06-29_09h09.44.450,Colour_Asymmetry_Pilot,2022.1.3,Win32,60.09615385,62bbe60bf3d75ef465d3e404,0,120,120,92,1,threeone,,,,
,,,,,,6162c4df5e32a5416e76cc43,62bbfa8820e38978bb48e94c,2022-06-29_09h09.44.450,Colour_Asymmetry_Pilot,2022.1.3,Win32,60.09615385,62bbe60bf3d75ef465d3e404,0,121,121,76,1,threeone,,,,
,,,,,,6162c4df5e32a5416e76cc43,62bbfa8820e38978bb48e94c,2022-06-29_09h09.44.450,Colour_Asymmetry_Pilot,2022.1.3,Win32,60.09615385,62bbe60bf3d75ef465d3e404,0,122,122,102,1,fourtwo,,,,
,,,,,,6162c4df5e32a5416e76cc43,62bbfa8820e38978bb48e94c,2022-06-29_09h09.44.450,Colour_Asymmetry_Pilot,2022.1.3,Win32,60.09615385,62bbe60bf3d75ef465d3e404,0,123,123,30,1,fourtwo,,,,
,,,,,,6162c4df5e32a5416e76cc43,62bbfa8820e38978bb48e94c,2022-06-29_09h09.44.450,Colour_Asymmetry_Pilot,2022.1.3,Win32,60.09615385,62bbe60bf3d75ef465d3e404,0,124,124,83,1,twofour,,,,
,,,,,,6162c4df5e32a5416e76cc43,62bbfa8820e38978bb48e94c,2022-06-29_09h09.44.450,Colour_Asymmetry_Pilot,2022.1.3,Win32,60.09615385,62bbe60bf3d75ef465d3e404,0,125,125,77,1,threefour,,,,
,,,,,,6162c4df5e32a5416e76cc43,62bbfa8820e38978bb48e94c,2022-06-29_09h09.44.450,Colour_Asymmetry_Pilot,2022.1.3,Win32,60.09615385,62bbe60bf3d75ef465d3e404,0,126,126,37,1,threefour,,,,
,,,,,,6162c4df5e32a5416e76cc43,62bbfa8820e38978bb48e94c,2022-06-29_09h09.44.450,Colour_Asymmetry_Pilot,2022.1.3,Win32,60.09615385,62bbe60bf3d75ef465d3e404,0,127,127,48,1,onetwo,,,,
,,,,,,6162c4df5e32a5416e76cc43,62bbfa8820e38978bb48e94c,2022-06-29_09h09.44.450,Colour_Asymmetry_Pilot,2022.1.3,Win32,60.09615385,62bbe60bf3d75ef465d3e404,0,128,128,152,1,onetwo,,,,
,,,,,,6162c4df5e32a5416e76cc43,62bbfa8820e38978bb48e94c,2022-06-29_09h09.44.450,Colour_Asymmetry_Pilot,2022.1.3,Win32,60.09615385,62bbe60bf3d75ef465d3e404,0,129,129,38,1,fourtwo,,,,
,,,,,,6162c4df5e32a5416e76cc43,62bbfa8820e38978bb48e94c,2022-06-29_09h09.44.450,Colour_Asymmetry_Pilot,2022.1.3,Win32,60.09615385,62bbe60bf3d75ef465d3e404,0,130,130,69,1,threefour,,,,
,,,,,,6162c4df5e32a5416e76cc43,62bbfa8820e38978bb48e94c,2022-06-29_09h09.44.450,Colour_Asymmetry_Pilot,2022.1.3,Win32,60.09615385,62bbe60bf3d75ef465d3e404,0,131,131,41,1,onethree,,,,
,,,,,,6162c4df5e32a5416e76cc43,62bbfa8820e38978bb48e94c,2022-06-29_09h09.44.450,Colour_Asymmetry_Pilot,2022.1.3,Win32,60.09615385,62bbe60bf3d75ef465d3e404,0,132,132,147,1,twofour,,,,
,,,,,,6162c4df5e32a5416e76cc43,62bbfa8820e38978bb48e94c,2022-06-29_09h09.44.450,Colour_Asymmetry_Pilot,2022.1.3,Win32,60.09615385,62bbe60bf3d75ef465d3e404,0,133,133,110,1,fourtwo,,,,
,,,,,,6162c4df5e32a5416e76cc43,62bbfa8820e38978bb48e94c,2022-06-29_09h09.44.450,Colour_Asymmetry_Pilot,2022.1.3,Win32,60.09615385,62bbe60bf3d75ef465d3e404,0,134,134,143,1,fourthree,,,,
,,,,,,6162c4df5e32a5416e76cc43,62bbfa8820e38978bb48e94c,2022-06-29_09h09.44.450,Colour_Asymmetry_Pilot,2022.1.3,Win32,60.09615385,62bbe60bf3d75ef465d3e404,0,135,135,23,1,fourthree,,,,
,,,,,,6162c4df5e32a5416e76cc43,62bbfa8820e38978bb48e94c,2022-06-29_09h09.44.450,Colour_Asymmetry_Pilot,2022.1.3,Win32,60.09615385,62bbe60bf3d75ef465d3e404,0,136,136,43,1,twofour,,,,
,,,,,,6162c4df5e32a5416e76cc43,62bbfa8820e38978bb48e94c,2022-06-29_09h09.44.450,Colour_Asymmetry_Pilot,2022.1.3,Win32,60.09615385,62bbe60bf3d75ef465d3e404,0,137,137,135,1,fourthree,,,,
,,,,,,6162c4df5e32a5416e76cc43,62bbfa8820e38978bb48e94c,2022-06-29_09h09.44.450,Colour_Asymmetry_Pilot,2022.1.3,Win32,60.09615385,62bbe60bf3d75ef465d3e404,0,138,138,93,1,threefour,,,,
,,,,,,6162c4df5e32a5416e76cc43,62bbfa8820e38978bb48e94c,2022-06-29_09h09.44.450,Colour_Asymmetry_Pilot,2022.1.3,Win32,60.09615385,62bbe60bf3d75ef465d3e404,0,139,139,121,1,onethree,,,,
,,,,,,6162c4df5e32a5416e76cc43,62bbfa8820e38978bb48e94c,2022-06-29_09h09.44.450,Colour_Asymmetry_Pilot,2022.1.3,Win32,60.09615385,62bbe60bf3d75ef465d3e404,0,140,140,112,1,onetwo,,,,
,,,,,,6162c4df5e32a5416e76cc43,62bbfa8820e38978bb48e94c,2022-06-29_09h09.44.450,Colour_Asymmetry_Pilot,2022.1.3,Win32,60.09615385,62bbe60bf3d75ef465d3e404,0,141,141,50,1,twoone,,,,
,,,,,,6162c4df5e32a5416e76cc43,62bbfa8820e38978bb48e94c,2022-06-29_09h09.44.450,Colour_Asymmetry_Pilot,2022.1.3,Win32,60.09615385,62bbe60bf3d75ef465d3e404,0,142,142,72,1,onetwo,,,,
,,,,,,6162c4df5e32a5416e76cc43,62bbfa8820e38978bb48e94c,2022-06-29_09h09.44.450,Colour_Asymmetry_Pilot,2022.1.3,Win32,60.09615385,62bbe60bf3d75ef465d3e404,0,143,143,118,1,fourtwo,,,,
,,,,,,6162c4df5e32a5416e76cc43,62bbfa8820e38978bb48e94c,2022-06-29_09h09.44.450,Colour_Asymmetry_Pilot,2022.1.3,Win32,60.09615385,62bbe60bf3d75ef465d3e404,0,144,144,81,1,onethree,,,,
,,,,,,6162c4df5e32a5416e76cc43,62bbfa8820e38978bb48e94c,2022-06-29_09h09.44.450,Colour_Asymmetry_Pilot,2022.1.3,Win32,60.09615385,62bbe60bf3d75ef465d3e404,0,145,145,158,1,fourtwo,,,,
,,,,,,6162c4df5e32a5416e76cc43,62bbfa8820e38978bb48e94c,2022-06-29_09h09.44.450,Colour_Asymmetry_Pilot,2022.1.3,Win32,60.09615385,62bbe60bf3d75ef465d3e404,0,146,146,0,1,onetwo,,,,
,,,,,,6162c4df5e32a5416e76cc43,62bbfa8820e38978bb48e94c,2022-06-29_09h09.44.450,Colour_Asymmetry_Pilot,2022.1.3,Win32,60.09615385,62bbe60bf3d75ef465d3e404,0,147,147,155,1,twofour,,,,
,,,,,,6162c4df5e32a5416e76cc43,62bbfa8820e38978bb48e94c,2022-06-29_09h09.44.450,Colour_Asymmetry_Pilot,2022.1.3,Win32,60.09615385,62bbe60bf3d75ef465d3e404,0,148,148,61,1,threefour,,,,
,,,,,,6162c4df5e32a5416e76cc43,62bbfa8820e38978bb48e94c,2022-06-29_09h09.44.450,Colour_Asymmetry_Pilot,2022.1.3,Win32,60.09615385,62bbe60bf3d75ef465d3e404,0,149,149,3,1,twofour,,,,
,,,,,,6162c4df5e32a5416e76cc43,62bbfa8820e38978bb48e94c,2022-06-29_09h09.44.450,Colour_Asymmetry_Pilot,2022.1.3,Win32,60.09615385,62bbe60bf3d75ef465d3e404,0,150,150,80,1,onetwo,,,,
,,,,,,6162c4df5e32a5416e76cc43,62bbfa8820e38978bb48e94c,2022-06-29_09h09.44.450,Colour_Asymmetry_Pilot,2022.1.3,Win32,60.09615385,62bbe60bf3d75ef465d3e404,0,151,151,96,1,onetwo,,,,
,,,,,,6162c4df5e32a5416e76cc43,62bbfa8820e38978bb48e94c,2022-06-29_09h09.44.450,Colour_Asymmetry_Pilot,2022.1.3,Win32,60.09615385,62bbe60bf3d75ef465d3e404,0,152,152,27,1,twofour,,,,
,,,,,,6162c4df5e32a5416e76cc43,62bbfa8820e38978bb48e94c,2022-06-29_09h09.44.450,Colour_Asymmetry_Pilot,2022.1.3,Win32,60.09615385,62bbe60bf3d75ef465d3e404,0,153,153,137,1,onethree,,,,
,,,,,,6162c4df5e32a5416e76cc43,62bbfa8820e38978bb48e94c,2022-06-29_09h09.44.450,Colour_Asymmetry_Pilot,2022.1.3,Win32,60.09615385,62bbe60bf3d75ef465d3e404,0,154,154,113,1,onethree,,,,
,,,,,,6162c4df5e32a5416e76cc43,62bbfa8820e38978bb48e94c,2022-06-29_09h09.44.450,Colour_Asymmetry_Pilot,2022.1.3,Win32,60.09615385,62bbe60bf3d75ef465d3e404,0,155,155,64,1,onetwo,,,,
,,,,,,6162c4df5e32a5416e76cc43,62bbfa8820e38978bb48e94c,2022-06-29_09h09.44.450,Colour_Asymmetry_Pilot,2022.1.3,Win32,60.09615385,62bbe60bf3d75ef465d3e404,0,156,156,60,1,threeone,,,,
,,,,,,6162c4df5e32a5416e76cc43,62bbfa8820e38978bb48e94c,2022-06-29_09h09.44.450,Colour_Asymmetry_Pilot,2022.1.3,Win32,60.09615385,62bbe60bf3d75ef465d3e404,0,157,157,94,1,fourtwo,,,,
,,,,,,6162c4df5e32a5416e76cc43,62bbfa8820e38978bb48e94c,2022-06-29_09h09.44.450,Colour_Asymmetry_Pilot,2022.1.3,Win32,60.09615385,62bbe60bf3d75ef465d3e404,0,158,158,11,1,twofour,,,,
,,,,,,6162c4df5e32a5416e76cc43,62bbfa8820e38978bb48e94c,2022-06-29_09h09.44.450,Colour_Asymmetry_Pilot,2022.1.3,Win32,60.09615385,62bbe60bf3d75ef465d3e404,0,159,159,36,1,threeone,,,,
,,,,,,6162c4df5e32a5416e76cc43,62bbfa8820e38978bb48e94c,2022-06-29_09h09.44.450,Colour_Asymmetry_Pilot,2022.1.3,Win32,60.09615385,62bbe60bf3d75ef465d3e404,0,160,160,99,1,twofour,,,,
,,,,,,6162c4df5e32a5416e76cc43,62bbfa8820e38978bb48e94c,2022-06-29_09h09.44.450,Colour_Asymmetry_Pilot,2022.1.3,Win32,60.09615385,62bbe60bf3d75ef465d3e404,0,161,161,153,1,onethree,,,,
,,,,,,6162c4df5e32a5416e76cc43,62bbfa8820e38978bb48e94c,2022-06-29_09h09.44.450,Colour_Asymmetry_Pilot,2022.1.3,Win32,60.09615385,62bbe60bf3d75ef465d3e404,,,,,,,space,21.4282,space,90.8215
