trials.thisRepN,trials.thisTrialN,trials.thisN,trials.thisIndex,trials.ran,Colourcodes,participant,session,date,expName,psychopyVersion,OS,frameRate,study_id,trials_4.thisRepN,trials_4.thisTrialN,trials_4.thisN,trials_4.thisIndex,trials_4.ran,StimulusPos
0,0,0,74,1,,61541943a163573208338fd8,62bbf9706f52e7cb967379fe,2022-06-29_09h30.31.018,Colour_Asymmetry_Pilot,2022.1.3,Win32,59.85515054,62bbe60bf3d75ef465d3e404,,,,,,
0,1,1,35,1,,61541943a163573208338fd8,62bbf9706f52e7cb967379fe,2022-06-29_09h30.31.018,Colour_Asymmetry_Pilot,2022.1.3,Win32,59.85515054,62bbe60bf3d75ef465d3e404,,,,,,
0,2,2,17,1,,61541943a163573208338fd8,62bbf9706f52e7cb967379fe,2022-06-29_09h30.31.018,Colour_Asymmetry_Pilot,2022.1.3,Win32,59.85515054,62bbe60bf3d75ef465d3e404,,,,,,
0,3,3,65,1,,61541943a163573208338fd8,62bbf9706f52e7cb967379fe,2022-06-29_09h30.31.018,Colour_Asymmetry_Pilot,2022.1.3,Win32,59.85515054,62bbe60bf3d75ef465d3e404,,,,,,
0,4,4,77,1,,61541943a163573208338fd8,62bbf9706f52e7cb967379fe,2022-06-29_09h30.31.018,Colour_Asymmetry_Pilot,2022.1.3,Win32,59.85515054,62bbe60bf3d75ef465d3e404,,,,,,
0,5,5,1,1,,61541943a163573208338fd8,62bbf9706f52e7cb967379fe,2022-06-29_09h30.31.018,Colour_Asymmetry_Pilot,2022.1.3,Win32,59.85515054,62bbe60bf3d75ef465d3e404,,,,,,
0,6,6,48,1,,61541943a163573208338fd8,62bbf9706f52e7cb967379fe,2022-06-29_09h30.31.018,Colour_Asymmetry_Pilot,2022.1.3,Win32,59.85515054,62bbe60bf3d75ef465d3e404,,,,,,
0,7,7,7,1,,61541943a163573208338fd8,62bbf9706f52e7cb967379fe,2022-06-29_09h30.31.018,Colour_Asymmetry_Pilot,2022.1.3,Win32,59.85515054,62bbe60bf3d75ef465d3e404,,,,,,
0,8,8,89,1,,61541943a163573208338fd8,62bbf9706f52e7cb967379fe,2022-06-29_09h30.31.018,Colour_Asymmetry_Pilot,2022.1.3,Win32,59.85515054,62bbe60bf3d75ef465d3e404,,,,,,
0,9,9,68,1,,61541943a163573208338fd8,62bbf9706f52e7cb967379fe,2022-06-29_09h30.31.018,Colour_Asymmetry_Pilot,2022.1.3,Win32,59.85515054,62bbe60bf3d75ef465d3e404,,,,,,
0,10,10,45,1,,61541943a163573208338fd8,62bbf9706f52e7cb967379fe,2022-06-29_09h30.31.018,Colour_Asymmetry_Pilot,2022.1.3,Win32,59.85515054,62bbe60bf3d75ef465d3e404,,,,,,
0,11,11,63,1,,61541943a163573208338fd8,62bbf9706f52e7cb967379fe,2022-06-29_09h30.31.018,Colour_Asymmetry_Pilot,2022.1.3,Win32,59.85515054,62bbe60bf3d75ef465d3e404,,,,,,
0,12,12,58,1,,61541943a163573208338fd8,62bbf9706f52e7cb967379fe,2022-06-29_09h30.31.018,Colour_Asymmetry_Pilot,2022.1.3,Win32,59.85515054,62bbe60bf3d75ef465d3e404,,,,,,
0,13,13,52,1,,61541943a163573208338fd8,62bbf9706f52e7cb967379fe,2022-06-29_09h30.31.018,Colour_Asymmetry_Pilot,2022.1.3,Win32,59.85515054,62bbe60bf3d75ef465d3e404,,,,,,
0,14,14,20,1,,61541943a163573208338fd8,62bbf9706f52e7cb967379fe,2022-06-29_09h30.31.018,Colour_Asymmetry_Pilot,2022.1.3,Win32,59.85515054,62bbe60bf3d75ef465d3e404,,,,,,
0,15,15,72,1,,61541943a163573208338fd8,62bbf9706f52e7cb967379fe,2022-06-29_09h30.31.018,Colour_Asymmetry_Pilot,2022.1.3,Win32,59.85515054,62bbe60bf3d75ef465d3e404,,,,,,
0,16,16,47,1,,61541943a163573208338fd8,62bbf9706f52e7cb967379fe,2022-06-29_09h30.31.018,Colour_Asymmetry_Pilot,2022.1.3,Win32,59.85515054,62bbe60bf3d75ef465d3e404,,,,,,
0,17,17,21,1,,61541943a163573208338fd8,62bbf9706f52e7cb967379fe,2022-06-29_09h30.31.018,Colour_Asymmetry_Pilot,2022.1.3,Win32,59.85515054,62bbe60bf3d75ef465d3e404,,,,,,
0,18,18,76,1,,61541943a163573208338fd8,62bbf9706f52e7cb967379fe,2022-06-29_09h30.31.018,Colour_Asymmetry_Pilot,2022.1.3,Win32,59.85515054,62bbe60bf3d75ef465d3e404,,,,,,
0,19,19,37,1,,61541943a163573208338fd8,62bbf9706f52e7cb967379fe,2022-06-29_09h30.31.018,Colour_Asymmetry_Pilot,2022.1.3,Win32,59.85515054,62bbe60bf3d75ef465d3e404,,,,,,
0,20,20,41,1,,61541943a163573208338fd8,62bbf9706f52e7cb967379fe,2022-06-29_09h30.31.018,Colour_Asymmetry_Pilot,2022.1.3,Win32,59.85515054,62bbe60bf3d75ef465d3e404,,,,,,
0,21,21,10,1,,61541943a163573208338fd8,62bbf9706f52e7cb967379fe,2022-06-29_09h30.31.018,Colour_Asymmetry_Pilot,2022.1.3,Win32,59.85515054,62bbe60bf3d75ef465d3e404,,,,,,
0,22,22,2,1,,61541943a163573208338fd8,62bbf9706f52e7cb967379fe,2022-06-29_09h30.31.018,Colour_Asymmetry_Pilot,2022.1.3,Win32,59.85515054,62bbe60bf3d75ef465d3e404,,,,,,
0,23,23,16,1,,61541943a163573208338fd8,62bbf9706f52e7cb967379fe,2022-06-29_09h30.31.018,Colour_Asymmetry_Pilot,2022.1.3,Win32,59.85515054,62bbe60bf3d75ef465d3e404,,,,,,
0,24,24,71,1,,61541943a163573208338fd8,62bbf9706f52e7cb967379fe,2022-06-29_09h30.31.018,Colour_Asymmetry_Pilot,2022.1.3,Win32,59.85515054,62bbe60bf3d75ef465d3e404,,,,,,
0,25,25,22,1,,61541943a163573208338fd8,62bbf9706f52e7cb967379fe,2022-06-29_09h30.31.018,Colour_Asymmetry_Pilot,2022.1.3,Win32,59.85515054,62bbe60bf3d75ef465d3e404,,,,,,
0,26,26,62,1,,61541943a163573208338fd8,62bbf9706f52e7cb967379fe,2022-06-29_09h30.31.018,Colour_Asymmetry_Pilot,2022.1.3,Win32,59.85515054,62bbe60bf3d75ef465d3e404,,,,,,
0,27,27,67,1,,61541943a163573208338fd8,62bbf9706f52e7cb967379fe,2022-06-29_09h30.31.018,Colour_Asymmetry_Pilot,2022.1.3,Win32,59.85515054,62bbe60bf3d75ef465d3e404,,,,,,
0,28,28,49,1,,61541943a163573208338fd8,62bbf9706f52e7cb967379fe,2022-06-29_09h30.31.018,Colour_Asymmetry_Pilot,2022.1.3,Win32,59.85515054,62bbe60bf3d75ef465d3e404,,,,,,
0,29,29,82,1,,61541943a163573208338fd8,62bbf9706f52e7cb967379fe,2022-06-29_09h30.31.018,Colour_Asymmetry_Pilot,2022.1.3,Win32,59.85515054,62bbe60bf3d75ef465d3e404,,,,,,
0,30,30,61,1,,61541943a163573208338fd8,62bbf9706f52e7cb967379fe,2022-06-29_09h30.31.018,Colour_Asymmetry_Pilot,2022.1.3,Win32,59.85515054,62bbe60bf3d75ef465d3e404,,,,,,
0,31,31,29,1,,61541943a163573208338fd8,62bbf9706f52e7cb967379fe,2022-06-29_09h30.31.018,Colour_Asymmetry_Pilot,2022.1.3,Win32,59.85515054,62bbe60bf3d75ef465d3e404,,,,,,
0,32,32,15,1,,61541943a163573208338fd8,62bbf9706f52e7cb967379fe,2022-06-29_09h30.31.018,Colour_Asymmetry_Pilot,2022.1.3,Win32,59.85515054,62bbe60bf3d75ef465d3e404,,,,,,
0,33,33,23,1,,61541943a163573208338fd8,62bbf9706f52e7cb967379fe,2022-06-29_09h30.31.018,Colour_Asymmetry_Pilot,2022.1.3,Win32,59.85515054,62bbe60bf3d75ef465d3e404,,,,,,
0,34,34,87,1,,61541943a163573208338fd8,62bbf9706f52e7cb967379fe,2022-06-29_09h30.31.018,Colour_Asymmetry_Pilot,2022.1.3,Win32,59.85515054,62bbe60bf3d75ef465d3e404,,,,,,
0,35,35,5,1,,61541943a163573208338fd8,62bbf9706f52e7cb967379fe,2022-06-29_09h30.31.018,Colour_Asymmetry_Pilot,2022.1.3,Win32,59.85515054,62bbe60bf3d75ef465d3e404,,,,,,
0,36,36,66,1,,61541943a163573208338fd8,62bbf9706f52e7cb967379fe,2022-06-29_09h30.31.018,Colour_Asymmetry_Pilot,2022.1.3,Win32,59.85515054,62bbe60bf3d75ef465d3e404,,,,,,
0,37,37,28,1,,61541943a163573208338fd8,62bbf9706f52e7cb967379fe,2022-06-29_09h30.31.018,Colour_Asymmetry_Pilot,2022.1.3,Win32,59.85515054,62bbe60bf3d75ef465d3e404,,,,,,
0,38,38,0,1,,61541943a163573208338fd8,62bbf9706f52e7cb967379fe,2022-06-29_09h30.31.018,Colour_Asymmetry_Pilot,2022.1.3,Win32,59.85515054,62bbe60bf3d75ef465d3e404,,,,,,
0,39,39,86,1,,61541943a163573208338fd8,62bbf9706f52e7cb967379fe,2022-06-29_09h30.31.018,Colour_Asymmetry_Pilot,2022.1.3,Win32,59.85515054,62bbe60bf3d75ef465d3e404,,,,,,
0,40,40,83,1,,61541943a163573208338fd8,62bbf9706f52e7cb967379fe,2022-06-29_09h30.31.018,Colour_Asymmetry_Pilot,2022.1.3,Win32,59.85515054,62bbe60bf3d75ef465d3e404,,,,,,
0,41,41,30,1,,61541943a163573208338fd8,62bbf9706f52e7cb967379fe,2022-06-29_09h30.31.018,Colour_Asymmetry_Pilot,2022.1.3,Win32,59.85515054,62bbe60bf3d75ef465d3e404,,,,,,
0,42,42,44,1,,61541943a163573208338fd8,62bbf9706f52e7cb967379fe,2022-06-29_09h30.31.018,Colour_Asymmetry_Pilot,2022.1.3,Win32,59.85515054,62bbe60bf3d75ef465d3e404,,,,,,
0,43,43,39,1,,61541943a163573208338fd8,62bbf9706f52e7cb967379fe,2022-06-29_09h30.31.018,Colour_Asymmetry_Pilot,2022.1.3,Win32,59.85515054,62bbe60bf3d75ef465d3e404,,,,,,
0,44,44,24,1,,61541943a163573208338fd8,62bbf9706f52e7cb967379fe,2022-06-29_09h30.31.018,Colour_Asymmetry_Pilot,2022.1.3,Win32,59.85515054,62bbe60bf3d75ef465d3e404,,,,,,
0,45,45,85,1,,61541943a163573208338fd8,62bbf9706f52e7cb967379fe,2022-06-29_09h30.31.018,Colour_Asymmetry_Pilot,2022.1.3,Win32,59.85515054,62bbe60bf3d75ef465d3e404,,,,,,
0,46,46,88,1,,61541943a163573208338fd8,62bbf9706f52e7cb967379fe,2022-06-29_09h30.31.018,Colour_Asymmetry_Pilot,2022.1.3,Win32,59.85515054,62bbe60bf3d75ef465d3e404,,,,,,
0,47,47,59,1,,61541943a163573208338fd8,62bbf9706f52e7cb967379fe,2022-06-29_09h30.31.018,Colour_Asymmetry_Pilot,2022.1.3,Win32,59.85515054,62bbe60bf3d75ef465d3e404,,,,,,
0,48,48,73,1,,61541943a163573208338fd8,62bbf9706f52e7cb967379fe,2022-06-29_09h30.31.018,Colour_Asymmetry_Pilot,2022.1.3,Win32,59.85515054,62bbe60bf3d75ef465d3e404,,,,,,
0,49,49,14,1,,61541943a163573208338fd8,62bbf9706f52e7cb967379fe,2022-06-29_09h30.31.018,Colour_Asymmetry_Pilot,2022.1.3,Win32,59.85515054,62bbe60bf3d75ef465d3e404,,,,,,
0,50,50,40,1,,61541943a163573208338fd8,62bbf9706f52e7cb967379fe,2022-06-29_09h30.31.018,Colour_Asymmetry_Pilot,2022.1.3,Win32,59.85515054,62bbe60bf3d75ef465d3e404,,,,,,
0,51,51,64,1,,61541943a163573208338fd8,62bbf9706f52e7cb967379fe,2022-06-29_09h30.31.018,Colour_Asymmetry_Pilot,2022.1.3,Win32,59.85515054,62bbe60bf3d75ef465d3e404,,,,,,
0,52,52,50,1,,61541943a163573208338fd8,62bbf9706f52e7cb967379fe,2022-06-29_09h30.31.018,Colour_Asymmetry_Pilot,2022.1.3,Win32,59.85515054,62bbe60bf3d75ef465d3e404,,,,,,
0,53,53,13,1,,61541943a163573208338fd8,62bbf9706f52e7cb967379fe,2022-06-29_09h30.31.018,Colour_Asymmetry_Pilot,2022.1.3,Win32,59.85515054,62bbe60bf3d75ef465d3e404,,,,,,
0,54,54,56,1,,61541943a163573208338fd8,62bbf9706f52e7cb967379fe,2022-06-29_09h30.31.018,Colour_Asymmetry_Pilot,2022.1.3,Win32,59.85515054,62bbe60bf3d75ef465d3e404,,,,,,
0,55,55,75,1,,61541943a163573208338fd8,62bbf9706f52e7cb967379fe,2022-06-29_09h30.31.018,Colour_Asymmetry_Pilot,2022.1.3,Win32,59.85515054,62bbe60bf3d75ef465d3e404,,,,,,
0,56,56,55,1,,61541943a163573208338fd8,62bbf9706f52e7cb967379fe,2022-06-29_09h30.31.018,Colour_Asymmetry_Pilot,2022.1.3,Win32,59.85515054,62bbe60bf3d75ef465d3e404,,,,,,
0,57,57,46,1,,61541943a163573208338fd8,62bbf9706f52e7cb967379fe,2022-06-29_09h30.31.018,Colour_Asymmetry_Pilot,2022.1.3,Win32,59.85515054,62bbe60bf3d75ef465d3e404,,,,,,
0,58,58,53,1,,61541943a163573208338fd8,62bbf9706f52e7cb967379fe,2022-06-29_09h30.31.018,Colour_Asymmetry_Pilot,2022.1.3,Win32,59.85515054,62bbe60bf3d75ef465d3e404,,,,,,
0,59,59,12,1,,61541943a163573208338fd8,62bbf9706f52e7cb967379fe,2022-06-29_09h30.31.018,Colour_Asymmetry_Pilot,2022.1.3,Win32,59.85515054,62bbe60bf3d75ef465d3e404,,,,,,
0,60,60,25,1,,61541943a163573208338fd8,62bbf9706f52e7cb967379fe,2022-06-29_09h30.31.018,Colour_Asymmetry_Pilot,2022.1.3,Win32,59.85515054,62bbe60bf3d75ef465d3e404,,,,,,
0,61,61,38,1,,61541943a163573208338fd8,62bbf9706f52e7cb967379fe,2022-06-29_09h30.31.018,Colour_Asymmetry_Pilot,2022.1.3,Win32,59.85515054,62bbe60bf3d75ef465d3e404,,,,,,
0,62,62,43,1,,61541943a163573208338fd8,62bbf9706f52e7cb967379fe,2022-06-29_09h30.31.018,Colour_Asymmetry_Pilot,2022.1.3,Win32,59.85515054,62bbe60bf3d75ef465d3e404,,,,,,
0,63,63,36,1,,61541943a163573208338fd8,62bbf9706f52e7cb967379fe,2022-06-29_09h30.31.018,Colour_Asymmetry_Pilot,2022.1.3,Win32,59.85515054,62bbe60bf3d75ef465d3e404,,,,,,
0,64,64,92,1,,61541943a163573208338fd8,62bbf9706f52e7cb967379fe,2022-06-29_09h30.31.018,Colour_Asymmetry_Pilot,2022.1.3,Win32,59.85515054,62bbe60bf3d75ef465d3e404,,,,,,
0,65,65,32,1,,61541943a163573208338fd8,62bbf9706f52e7cb967379fe,2022-06-29_09h30.31.018,Colour_Asymmetry_Pilot,2022.1.3,Win32,59.85515054,62bbe60bf3d75ef465d3e404,,,,,,
0,66,66,79,1,,61541943a163573208338fd8,62bbf9706f52e7cb967379fe,2022-06-29_09h30.31.018,Colour_Asymmetry_Pilot,2022.1.3,Win32,59.85515054,62bbe60bf3d75ef465d3e404,,,,,,
0,67,67,42,1,,61541943a163573208338fd8,62bbf9706f52e7cb967379fe,2022-06-29_09h30.31.018,Colour_Asymmetry_Pilot,2022.1.3,Win32,59.85515054,62bbe60bf3d75ef465d3e404,,,,,,
0,68,68,91,1,,61541943a163573208338fd8,62bbf9706f52e7cb967379fe,2022-06-29_09h30.31.018,Colour_Asymmetry_Pilot,2022.1.3,Win32,59.85515054,62bbe60bf3d75ef465d3e404,,,,,,
0,69,69,78,1,,61541943a163573208338fd8,62bbf9706f52e7cb967379fe,2022-06-29_09h30.31.018,Colour_Asymmetry_Pilot,2022.1.3,Win32,59.85515054,62bbe60bf3d75ef465d3e404,,,,,,
0,70,70,90,1,,61541943a163573208338fd8,62bbf9706f52e7cb967379fe,2022-06-29_09h30.31.018,Colour_Asymmetry_Pilot,2022.1.3,Win32,59.85515054,62bbe60bf3d75ef465d3e404,,,,,,
0,71,71,11,1,,61541943a163573208338fd8,62bbf9706f52e7cb967379fe,2022-06-29_09h30.31.018,Colour_Asymmetry_Pilot,2022.1.3,Win32,59.85515054,62bbe60bf3d75ef465d3e404,,,,,,
0,72,72,4,1,,61541943a163573208338fd8,62bbf9706f52e7cb967379fe,2022-06-29_09h30.31.018,Colour_Asymmetry_Pilot,2022.1.3,Win32,59.85515054,62bbe60bf3d75ef465d3e404,,,,,,
0,73,73,8,1,,61541943a163573208338fd8,62bbf9706f52e7cb967379fe,2022-06-29_09h30.31.018,Colour_Asymmetry_Pilot,2022.1.3,Win32,59.85515054,62bbe60bf3d75ef465d3e404,,,,,,
0,74,74,6,1,,61541943a163573208338fd8,62bbf9706f52e7cb967379fe,2022-06-29_09h30.31.018,Colour_Asymmetry_Pilot,2022.1.3,Win32,59.85515054,62bbe60bf3d75ef465d3e404,,,,,,
0,75,75,9,1,,61541943a163573208338fd8,62bbf9706f52e7cb967379fe,2022-06-29_09h30.31.018,Colour_Asymmetry_Pilot,2022.1.3,Win32,59.85515054,62bbe60bf3d75ef465d3e404,,,,,,
0,76,76,27,1,,61541943a163573208338fd8,62bbf9706f52e7cb967379fe,2022-06-29_09h30.31.018,Colour_Asymmetry_Pilot,2022.1.3,Win32,59.85515054,62bbe60bf3d75ef465d3e404,,,,,,
0,77,77,69,1,,61541943a163573208338fd8,62bbf9706f52e7cb967379fe,2022-06-29_09h30.31.018,Colour_Asymmetry_Pilot,2022.1.3,Win32,59.85515054,62bbe60bf3d75ef465d3e404,,,,,,
0,78,78,51,1,,61541943a163573208338fd8,62bbf9706f52e7cb967379fe,2022-06-29_09h30.31.018,Colour_Asymmetry_Pilot,2022.1.3,Win32,59.85515054,62bbe60bf3d75ef465d3e404,,,,,,
0,79,79,57,1,,61541943a163573208338fd8,62bbf9706f52e7cb967379fe,2022-06-29_09h30.31.018,Colour_Asymmetry_Pilot,2022.1.3,Win32,59.85515054,62bbe60bf3d75ef465d3e404,,,,,,
0,80,80,33,1,,61541943a163573208338fd8,62bbf9706f52e7cb967379fe,2022-06-29_09h30.31.018,Colour_Asymmetry_Pilot,2022.1.3,Win32,59.85515054,62bbe60bf3d75ef465d3e404,,,,,,
0,81,81,80,1,,61541943a163573208338fd8,62bbf9706f52e7cb967379fe,2022-06-29_09h30.31.018,Colour_Asymmetry_Pilot,2022.1.3,Win32,59.85515054,62bbe60bf3d75ef465d3e404,,,,,,
0,82,82,54,1,,61541943a163573208338fd8,62bbf9706f52e7cb967379fe,2022-06-29_09h30.31.018,Colour_Asymmetry_Pilot,2022.1.3,Win32,59.85515054,62bbe60bf3d75ef465d3e404,,,,,,
0,83,83,19,1,,61541943a163573208338fd8,62bbf9706f52e7cb967379fe,2022-06-29_09h30.31.018,Colour_Asymmetry_Pilot,2022.1.3,Win32,59.85515054,62bbe60bf3d75ef465d3e404,,,,,,
0,84,84,70,1,,61541943a163573208338fd8,62bbf9706f52e7cb967379fe,2022-06-29_09h30.31.018,Colour_Asymmetry_Pilot,2022.1.3,Win32,59.85515054,62bbe60bf3d75ef465d3e404,,,,,,
0,85,85,34,1,,61541943a163573208338fd8,62bbf9706f52e7cb967379fe,2022-06-29_09h30.31.018,Colour_Asymmetry_Pilot,2022.1.3,Win32,59.85515054,62bbe60bf3d75ef465d3e404,,,,,,
0,86,86,84,1,,61541943a163573208338fd8,62bbf9706f52e7cb967379fe,2022-06-29_09h30.31.018,Colour_Asymmetry_Pilot,2022.1.3,Win32,59.85515054,62bbe60bf3d75ef465d3e404,,,,,,
0,87,87,31,1,,61541943a163573208338fd8,62bbf9706f52e7cb967379fe,2022-06-29_09h30.31.018,Colour_Asymmetry_Pilot,2022.1.3,Win32,59.85515054,62bbe60bf3d75ef465d3e404,,,,,,
0,88,88,60,1,,61541943a163573208338fd8,62bbf9706f52e7cb967379fe,2022-06-29_09h30.31.018,Colour_Asymmetry_Pilot,2022.1.3,Win32,59.85515054,62bbe60bf3d75ef465d3e404,,,,,,
0,89,89,3,1,,61541943a163573208338fd8,62bbf9706f52e7cb967379fe,2022-06-29_09h30.31.018,Colour_Asymmetry_Pilot,2022.1.3,Win32,59.85515054,62bbe60bf3d75ef465d3e404,,,,,,
0,90,90,18,1,,61541943a163573208338fd8,62bbf9706f52e7cb967379fe,2022-06-29_09h30.31.018,Colour_Asymmetry_Pilot,2022.1.3,Win32,59.85515054,62bbe60bf3d75ef465d3e404,,,,,,
0,91,91,26,1,,61541943a163573208338fd8,62bbf9706f52e7cb967379fe,2022-06-29_09h30.31.018,Colour_Asymmetry_Pilot,2022.1.3,Win32,59.85515054,62bbe60bf3d75ef465d3e404,,,,,,
0,92,92,81,1,,61541943a163573208338fd8,62bbf9706f52e7cb967379fe,2022-06-29_09h30.31.018,Colour_Asymmetry_Pilot,2022.1.3,Win32,59.85515054,62bbe60bf3d75ef465d3e404,,,,,,
,,,,,,61541943a163573208338fd8,62bbf9706f52e7cb967379fe,2022-06-29_09h30.31.018,Colour_Asymmetry_Pilot,2022.1.3,Win32,59.85515054,62bbe60bf3d75ef465d3e404,0,0,0,64,1,onetwo
,,,,,,61541943a163573208338fd8,62bbf9706f52e7cb967379fe,2022-06-29_09h30.31.018,Colour_Asymmetry_Pilot,2022.1.3,Win32,59.85515054,62bbe60bf3d75ef465d3e404,0,1,1,79,1,fourthree
,,,,,,61541943a163573208338fd8,62bbf9706f52e7cb967379fe,2022-06-29_09h30.31.018,Colour_Asymmetry_Pilot,2022.1.3,Win32,59.85515054,62bbe60bf3d75ef465d3e404,0,2,2,0,1,onetwo
,,,,,,61541943a163573208338fd8,62bbf9706f52e7cb967379fe,2022-06-29_09h30.31.018,Colour_Asymmetry_Pilot,2022.1.3,Win32,59.85515054,62bbe60bf3d75ef465d3e404,0,3,3,12,1,threeone
,,,,,,61541943a163573208338fd8,62bbf9706f52e7cb967379fe,2022-06-29_09h30.31.018,Colour_Asymmetry_Pilot,2022.1.3,Win32,59.85515054,62bbe60bf3d75ef465d3e404,0,4,4,78,1,fourtwo
,,,,,,61541943a163573208338fd8,62bbf9706f52e7cb967379fe,2022-06-29_09h30.31.018,Colour_Asymmetry_Pilot,2022.1.3,Win32,59.85515054,62bbe60bf3d75ef465d3e404,0,5,5,77,1,threefour
,,,,,,61541943a163573208338fd8,62bbf9706f52e7cb967379fe,2022-06-29_09h30.31.018,Colour_Asymmetry_Pilot,2022.1.3,Win32,59.85515054,62bbe60bf3d75ef465d3e404,0,6,6,31,1,fourthree
,,,,,,61541943a163573208338fd8,62bbf9706f52e7cb967379fe,2022-06-29_09h30.31.018,Colour_Asymmetry_Pilot,2022.1.3,Win32,59.85515054,62bbe60bf3d75ef465d3e404,0,7,7,20,1,threeone
,,,,,,61541943a163573208338fd8,62bbf9706f52e7cb967379fe,2022-06-29_09h30.31.018,Colour_Asymmetry_Pilot,2022.1.3,Win32,59.85515054,62bbe60bf3d75ef465d3e404,0,8,8,46,1,fourtwo
,,,,,,61541943a163573208338fd8,62bbf9706f52e7cb967379fe,2022-06-29_09h30.31.018,Colour_Asymmetry_Pilot,2022.1.3,Win32,59.85515054,62bbe60bf3d75ef465d3e404,0,9,9,160,1,onetwo
,,,,,,61541943a163573208338fd8,62bbf9706f52e7cb967379fe,2022-06-29_09h30.31.018,Colour_Asymmetry_Pilot,2022.1.3,Win32,59.85515054,62bbe60bf3d75ef465d3e404,0,10,10,139,1,twofour
,,,,,,61541943a163573208338fd8,62bbf9706f52e7cb967379fe,2022-06-29_09h30.31.018,Colour_Asymmetry_Pilot,2022.1.3,Win32,59.85515054,62bbe60bf3d75ef465d3e404,0,11,11,91,1,twofour
,,,,,,61541943a163573208338fd8,62bbf9706f52e7cb967379fe,2022-06-29_09h30.31.018,Colour_Asymmetry_Pilot,2022.1.3,Win32,59.85515054,62bbe60bf3d75ef465d3e404,0,12,12,108,1,threeone
,,,,,,61541943a163573208338fd8,62bbf9706f52e7cb967379fe,2022-06-29_09h30.31.018,Colour_Asymmetry_Pilot,2022.1.3,Win32,59.85515054,62bbe60bf3d75ef465d3e404,0,13,13,137,1,onethree
,,,,,,61541943a163573208338fd8,62bbf9706f52e7cb967379fe,2022-06-29_09h30.31.018,Colour_Asymmetry_Pilot,2022.1.3,Win32,59.85515054,62bbe60bf3d75ef465d3e404,0,14,14,145,1,onethree
,,,,,,61541943a163573208338fd8,62bbf9706f52e7cb967379fe,2022-06-29_09h30.31.018,Colour_Asymmetry_Pilot,2022.1.3,Win32,59.85515054,62bbe60bf3d75ef465d3e404,0,15,15,7,1,fourthree
,,,,,,61541943a163573208338fd8,62bbf9706f52e7cb967379fe,2022-06-29_09h30.31.018,Colour_Asymmetry_Pilot,2022.1.3,Win32,59.85515054,62bbe60bf3d75ef465d3e404,0,16,16,49,1,onethree
,,,,,,61541943a163573208338fd8,62bbf9706f52e7cb967379fe,2022-06-29_09h30.31.018,Colour_Asymmetry_Pilot,2022.1.3,Win32,59.85515054,62bbe60bf3d75ef465d3e404,0,17,17,129,1,onethree
,,,,,,61541943a163573208338fd8,62bbf9706f52e7cb967379fe,2022-06-29_09h30.31.018,Colour_Asymmetry_Pilot,2022.1.3,Win32,59.85515054,62bbe60bf3d75ef465d3e404,0,18,18,71,1,fourthree
,,,,,,61541943a163573208338fd8,62bbf9706f52e7cb967379fe,2022-06-29_09h30.31.018,Colour_Asymmetry_Pilot,2022.1.3,Win32,59.85515054,62bbe60bf3d75ef465d3e404,0,19,19,67,1,twofour
,,,,,,61541943a163573208338fd8,62bbf9706f52e7cb967379fe,2022-06-29_09h30.31.018,Colour_Asymmetry_Pilot,2022.1.3,Win32,59.85515054,62bbe60bf3d75ef465d3e404,0,20,20,21,1,threefour
,,,,,,61541943a163573208338fd8,62bbf9706f52e7cb967379fe,2022-06-29_09h30.31.018,Colour_Asymmetry_Pilot,2022.1.3,Win32,59.85515054,62bbe60bf3d75ef465d3e404,0,21,21,28,1,threeone
,,,,,,61541943a163573208338fd8,62bbf9706f52e7cb967379fe,2022-06-29_09h30.31.018,Colour_Asymmetry_Pilot,2022.1.3,Win32,59.85515054,62bbe60bf3d75ef465d3e404,0,22,22,44,1,threeone
,,,,,,61541943a163573208338fd8,62bbf9706f52e7cb967379fe,2022-06-29_09h30.31.018,Colour_Asymmetry_Pilot,2022.1.3,Win32,59.85515054,62bbe60bf3d75ef465d3e404,0,23,23,97,1,onethree
,,,,,,61541943a163573208338fd8,62bbf9706f52e7cb967379fe,2022-06-29_09h30.31.018,Colour_Asymmetry_Pilot,2022.1.3,Win32,59.85515054,62bbe60bf3d75ef465d3e404,0,24,24,153,1,onethree
,,,,,,61541943a163573208338fd8,62bbf9706f52e7cb967379fe,2022-06-29_09h30.31.018,Colour_Asymmetry_Pilot,2022.1.3,Win32,59.85515054,62bbe60bf3d75ef465d3e404,0,25,25,155,1,twofour
,,,,,,61541943a163573208338fd8,62bbf9706f52e7cb967379fe,2022-06-29_09h30.31.018,Colour_Asymmetry_Pilot,2022.1.3,Win32,59.85515054,62bbe60bf3d75ef465d3e404,0,26,26,69,1,threefour
,,,,,,61541943a163573208338fd8,62bbf9706f52e7cb967379fe,2022-06-29_09h30.31.018,Colour_Asymmetry_Pilot,2022.1.3,Win32,59.85515054,62bbe60bf3d75ef465d3e404,0,27,27,90,1,twoone
,,,,,,61541943a163573208338fd8,62bbf9706f52e7cb967379fe,2022-06-29_09h30.31.018,Colour_Asymmetry_Pilot,2022.1.3,Win32,59.85515054,62bbe60bf3d75ef465d3e404,0,28,28,133,1,threefour
,,,,,,61541943a163573208338fd8,62bbf9706f52e7cb967379fe,2022-06-29_09h30.31.018,Colour_Asymmetry_Pilot,2022.1.3,Win32,59.85515054,62bbe60bf3d75ef465d3e404,0,29,29,58,1,twoone
,,,,,,61541943a163573208338fd8,62bbf9706f52e7cb967379fe,2022-06-29_09h30.31.018,Colour_Asymmetry_Pilot,2022.1.3,Win32,59.85515054,62bbe60bf3d75ef465d3e404,0,30,30,84,1,threeone
,,,,,,61541943a163573208338fd8,62bbf9706f52e7cb967379fe,2022-06-29_09h30.31.018,Colour_Asymmetry_Pilot,2022.1.3,Win32,59.85515054,62bbe60bf3d75ef465d3e404,0,31,31,149,1,threefour
,,,,,,61541943a163573208338fd8,62bbf9706f52e7cb967379fe,2022-06-29_09h30.31.018,Colour_Asymmetry_Pilot,2022.1.3,Win32,59.85515054,62bbe60bf3d75ef465d3e404,0,32,32,157,1,threefour
,,,,,,61541943a163573208338fd8,62bbf9706f52e7cb967379fe,2022-06-29_09h30.31.018,Colour_Asymmetry_Pilot,2022.1.3,Win32,59.85515054,62bbe60bf3d75ef465d3e404,0,33,33,120,1,onetwo
,,,,,,61541943a163573208338fd8,62bbf9706f52e7cb967379fe,2022-06-29_09h30.31.018,Colour_Asymmetry_Pilot,2022.1.3,Win32,59.85515054,62bbe60bf3d75ef465d3e404,0,34,34,94,1,fourtwo
,,,,,,61541943a163573208338fd8,62bbf9706f52e7cb967379fe,2022-06-29_09h30.31.018,Colour_Asymmetry_Pilot,2022.1.3,Win32,59.85515054,62bbe60bf3d75ef465d3e404,0,35,35,73,1,onethree
,,,,,,61541943a163573208338fd8,62bbf9706f52e7cb967379fe,2022-06-29_09h30.31.018,Colour_Asymmetry_Pilot,2022.1.3,Win32,59.85515054,62bbe60bf3d75ef465d3e404,0,36,36,63,1,fourthree
,,,,,,61541943a163573208338fd8,62bbf9706f52e7cb967379fe,2022-06-29_09h30.31.018,Colour_Asymmetry_Pilot,2022.1.3,Win32,59.85515054,62bbe60bf3d75ef465d3e404,0,37,37,61,1,threefour
,,,,,,61541943a163573208338fd8,62bbf9706f52e7cb967379fe,2022-06-29_09h30.31.018,Colour_Asymmetry_Pilot,2022.1.3,Win32,59.85515054,62bbe60bf3d75ef465d3e404,0,38,38,102,1,fourtwo
,,,,,,61541943a163573208338fd8,62bbf9706f52e7cb967379fe,2022-06-29_09h30.31.018,Colour_Asymmetry_Pilot,2022.1.3,Win32,59.85515054,62bbe60bf3d75ef465d3e404,0,39,39,70,1,fourtwo
,,,,,,61541943a163573208338fd8,62bbf9706f52e7cb967379fe,2022-06-29_09h30.31.018,Colour_Asymmetry_Pilot,2022.1.3,Win32,59.85515054,62bbe60bf3d75ef465d3e404,0,40,40,18,1,twoone
,,,,,,61541943a163573208338fd8,62bbf9706f52e7cb967379fe,2022-06-29_09h30.31.018,Colour_Asymmetry_Pilot,2022.1.3,Win32,59.85515054,62bbe60bf3d75ef465d3e404,0,41,41,148,1,threeone
,,,,,,61541943a163573208338fd8,62bbf9706f52e7cb967379fe,2022-06-29_09h30.31.018,Colour_Asymmetry_Pilot,2022.1.3,Win32,59.85515054,62bbe60bf3d75ef465d3e404,0,42,42,3,1,twofour
,,,,,,61541943a163573208338fd8,62bbf9706f52e7cb967379fe,2022-06-29_09h30.31.018,Colour_Asymmetry_Pilot,2022.1.3,Win32,59.85515054,62bbe60bf3d75ef465d3e404,0,43,43,154,1,twoone
,,,,,,61541943a163573208338fd8,62bbf9706f52e7cb967379fe,2022-06-29_09h30.31.018,Colour_Asymmetry_Pilot,2022.1.3,Win32,59.85515054,62bbe60bf3d75ef465d3e404,0,44,44,2,1,twoone
,,,,,,61541943a163573208338fd8,62bbf9706f52e7cb967379fe,2022-06-29_09h30.31.018,Colour_Asymmetry_Pilot,2022.1.3,Win32,59.85515054,62bbe60bf3d75ef465d3e404,0,45,45,25,1,onethree
,,,,,,61541943a163573208338fd8,62bbf9706f52e7cb967379fe,2022-06-29_09h30.31.018,Colour_Asymmetry_Pilot,2022.1.3,Win32,59.85515054,62bbe60bf3d75ef465d3e404,0,46,46,118,1,fourtwo
,,,,,,61541943a163573208338fd8,62bbf9706f52e7cb967379fe,2022-06-29_09h30.31.018,Colour_Asymmetry_Pilot,2022.1.3,Win32,59.85515054,62bbe60bf3d75ef465d3e404,0,47,47,114,1,twoone
,,,,,,61541943a163573208338fd8,62bbf9706f52e7cb967379fe,2022-06-29_09h30.31.018,Colour_Asymmetry_Pilot,2022.1.3,Win32,59.85515054,62bbe60bf3d75ef465d3e404,0,48,48,29,1,threefour
,,,,,,61541943a163573208338fd8,62bbf9706f52e7cb967379fe,2022-06-29_09h30.31.018,Colour_Asymmetry_Pilot,2022.1.3,Win32,59.85515054,62bbe60bf3d75ef465d3e404,0,49,49,131,1,twofour
,,,,,,61541943a163573208338fd8,62bbf9706f52e7cb967379fe,2022-06-29_09h30.31.018,Colour_Asymmetry_Pilot,2022.1.3,Win32,59.85515054,62bbe60bf3d75ef465d3e404,0,50,50,1,1,onethree
,,,,,,61541943a163573208338fd8,62bbf9706f52e7cb967379fe,2022-06-29_09h30.31.018,Colour_Asymmetry_Pilot,2022.1.3,Win32,59.85515054,62bbe60bf3d75ef465d3e404,0,51,51,13,1,threefour
,,,,,,61541943a163573208338fd8,62bbf9706f52e7cb967379fe,2022-06-29_09h30.31.018,Colour_Asymmetry_Pilot,2022.1.3,Win32,59.85515054,62bbe60bf3d75ef465d3e404,0,52,52,5,1,threefour
,,,,,,61541943a163573208338fd8,62bbf9706f52e7cb967379fe,2022-06-29_09h30.31.018,Colour_Asymmetry_Pilot,2022.1.3,Win32,59.85515054,62bbe60bf3d75ef465d3e404,0,53,53,24,1,onetwo
,,,,,,61541943a163573208338fd8,62bbf9706f52e7cb967379fe,2022-06-29_09h30.31.018,Colour_Asymmetry_Pilot,2022.1.3,Win32,59.85515054,62bbe60bf3d75ef465d3e404,0,54,54,80,1,onetwo
,,,,,,61541943a163573208338fd8,62bbf9706f52e7cb967379fe,2022-06-29_09h30.31.018,Colour_Asymmetry_Pilot,2022.1.3,Win32,59.85515054,62bbe60bf3d75ef465d3e404,0,55,55,47,1,fourthree
,,,,,,61541943a163573208338fd8,62bbf9706f52e7cb967379fe,2022-06-29_09h30.31.018,Colour_Asymmetry_Pilot,2022.1.3,Win32,59.85515054,62bbe60bf3d75ef465d3e404,0,56,56,104,1,onetwo
,,,,,,61541943a163573208338fd8,62bbf9706f52e7cb967379fe,2022-06-29_09h30.31.018,Colour_Asymmetry_Pilot,2022.1.3,Win32,59.85515054,62bbe60bf3d75ef465d3e404,0,57,57,126,1,fourtwo
,,,,,,61541943a163573208338fd8,62bbf9706f52e7cb967379fe,2022-06-29_09h30.31.018,Colour_Asymmetry_Pilot,2022.1.3,Win32,59.85515054,62bbe60bf3d75ef465d3e404,0,58,58,15,1,fourthree
,,,,,,61541943a163573208338fd8,62bbf9706f52e7cb967379fe,2022-06-29_09h30.31.018,Colour_Asymmetry_Pilot,2022.1.3,Win32,59.85515054,62bbe60bf3d75ef465d3e404,0,59,59,82,1,twoone
,,,,,,61541943a163573208338fd8,62bbf9706f52e7cb967379fe,2022-06-29_09h30.31.018,Colour_Asymmetry_Pilot,2022.1.3,Win32,59.85515054,62bbe60bf3d75ef465d3e404,0,60,60,52,1,threeone
,,,,,,61541943a163573208338fd8,62bbf9706f52e7cb967379fe,2022-06-29_09h30.31.018,Colour_Asymmetry_Pilot,2022.1.3,Win32,59.85515054,62bbe60bf3d75ef465d3e404,0,61,61,27,1,twofour
,,,,,,61541943a163573208338fd8,62bbf9706f52e7cb967379fe,2022-06-29_09h30.31.018,Colour_Asymmetry_Pilot,2022.1.3,Win32,59.85515054,62bbe60bf3d75ef465d3e404,0,62,62,136,1,onetwo
,,,,,,61541943a163573208338fd8,62bbf9706f52e7cb967379fe,2022-06-29_09h30.31.018,Colour_Asymmetry_Pilot,2022.1.3,Win32,59.85515054,62bbe60bf3d75ef465d3e404,0,63,63,98,1,twoone
,,,,,,61541943a163573208338fd8,62bbf9706f52e7cb967379fe,2022-06-29_09h30.31.018,Colour_Asymmetry_Pilot,2022.1.3,Win32,59.85515054,62bbe60bf3d75ef465d3e404,0,64,64,122,1,twoone
,,,,,,61541943a163573208338fd8,62bbf9706f52e7cb967379fe,2022-06-29_09h30.31.018,Colour_Asymmetry_Pilot,2022.1.3,Win32,59.85515054,62bbe60bf3d75ef465d3e404,0,65,65,34,1,twoone
,,,,,,61541943a163573208338fd8,62bbf9706f52e7cb967379fe,2022-06-29_09h30.31.018,Colour_Asymmetry_Pilot,2022.1.3,Win32,59.85515054,62bbe60bf3d75ef465d3e404,0,66,66,100,1,threeone
,,,,,,61541943a163573208338fd8,62bbf9706f52e7cb967379fe,2022-06-29_09h30.31.018,Colour_Asymmetry_Pilot,2022.1.3,Win32,59.85515054,62bbe60bf3d75ef465d3e404,0,67,67,123,1,twofour
,,,,,,61541943a163573208338fd8,62bbf9706f52e7cb967379fe,2022-06-29_09h30.31.018,Colour_Asymmetry_Pilot,2022.1.3,Win32,59.85515054,62bbe60bf3d75ef465d3e404,0,68,68,32,1,onetwo
,,,,,,61541943a163573208338fd8,62bbf9706f52e7cb967379fe,2022-06-29_09h30.31.018,Colour_Asymmetry_Pilot,2022.1.3,Win32,59.85515054,62bbe60bf3d75ef465d3e404,0,69,69,30,1,fourtwo
,,,,,,61541943a163573208338fd8,62bbf9706f52e7cb967379fe,2022-06-29_09h30.31.018,Colour_Asymmetry_Pilot,2022.1.3,Win32,59.85515054,62bbe60bf3d75ef465d3e404,0,70,70,89,1,onethree
,,,,,,61541943a163573208338fd8,62bbf9706f52e7cb967379fe,2022-06-29_09h30.31.018,Colour_Asymmetry_Pilot,2022.1.3,Win32,59.85515054,62bbe60bf3d75ef465d3e404,0,71,71,110,1,fourtwo
,,,,,,61541943a163573208338fd8,62bbf9706f52e7cb967379fe,2022-06-29_09h30.31.018,Colour_Asymmetry_Pilot,2022.1.3,Win32,59.85515054,62bbe60bf3d75ef465d3e404,0,72,72,59,1,twofour
,,,,,,61541943a163573208338fd8,62bbf9706f52e7cb967379fe,2022-06-29_09h30.31.018,Colour_Asymmetry_Pilot,2022.1.3,Win32,59.85515054,62bbe60bf3d75ef465d3e404,0,73,73,9,1,onethree
,,,,,,61541943a163573208338fd8,62bbf9706f52e7cb967379fe,2022-06-29_09h30.31.018,Colour_Asymmetry_Pilot,2022.1.3,Win32,59.85515054,62bbe60bf3d75ef465d3e404,0,74,74,36,1,threeone
,,,,,,61541943a163573208338fd8,62bbf9706f52e7cb967379fe,2022-06-29_09h30.31.018,Colour_Asymmetry_Pilot,2022.1.3,Win32,59.85515054,62bbe60bf3d75ef465d3e404,0,75,75,112,1,onetwo
,,,,,,61541943a163573208338fd8,62bbf9706f52e7cb967379fe,2022-06-29_09h30.31.018,Colour_Asymmetry_Pilot,2022.1.3,Win32,59.85515054,62bbe60bf3d75ef465d3e404,0,76,76,93,1,threefour
,,,,,,61541943a163573208338fd8,62bbf9706f52e7cb967379fe,2022-06-29_09h30.31.018,Colour_Asymmetry_Pilot,2022.1.3,Win32,59.85515054,62bbe60bf3d75ef465d3e404,0,77,77,111,1,fourthree
,,,,,,61541943a163573208338fd8,62bbf9706f52e7cb967379fe,2022-06-29_09h30.31.018,Colour_Asymmetry_Pilot,2022.1.3,Win32,59.85515054,62bbe60bf3d75ef465d3e404,0,78,78,135,1,fourthree
,,,,,,61541943a163573208338fd8,62bbf9706f52e7cb967379fe,2022-06-29_09h30.31.018,Colour_Asymmetry_Pilot,2022.1.3,Win32,59.85515054,62bbe60bf3d75ef465d3e404,0,79,79,109,1,threefour
,,,,,,61541943a163573208338fd8,62bbf9706f52e7cb967379fe,2022-06-29_09h30.31.018,Colour_Asymmetry_Pilot,2022.1.3,Win32,59.85515054,62bbe60bf3d75ef465d3e404,0,80,80,65,1,onethree
,,,,,,61541943a163573208338fd8,62bbf9706f52e7cb967379fe,2022-06-29_09h30.31.018,Colour_Asymmetry_Pilot,2022.1.3,Win32,59.85515054,62bbe60bf3d75ef465d3e404,0,81,81,57,1,onethree
,,,,,,61541943a163573208338fd8,62bbf9706f52e7cb967379fe,2022-06-29_09h30.31.018,Colour_Asymmetry_Pilot,2022.1.3,Win32,59.85515054,62bbe60bf3d75ef465d3e404,0,82,82,48,1,onetwo
,,,,,,61541943a163573208338fd8,62bbf9706f52e7cb967379fe,2022-06-29_09h30.31.018,Colour_Asymmetry_Pilot,2022.1.3,Win32,59.85515054,62bbe60bf3d75ef465d3e404,0,83,83,143,1,fourthree
,,,,,,61541943a163573208338fd8,62bbf9706f52e7cb967379fe,2022-06-29_09h30.31.018,Colour_Asymmetry_Pilot,2022.1.3,Win32,59.85515054,62bbe60bf3d75ef465d3e404,0,84,84,17,1,onethree
,,,,,,61541943a163573208338fd8,62bbf9706f52e7cb967379fe,2022-06-29_09h30.31.018,Colour_Asymmetry_Pilot,2022.1.3,Win32,59.85515054,62bbe60bf3d75ef465d3e404,0,85,85,16,1,onetwo
,,,,,,61541943a163573208338fd8,62bbf9706f52e7cb967379fe,2022-06-29_09h30.31.018,Colour_Asymmetry_Pilot,2022.1.3,Win32,59.85515054,62bbe60bf3d75ef465d3e404,0,86,86,76,1,threeone
,,,,,,61541943a163573208338fd8,62bbf9706f52e7cb967379fe,2022-06-29_09h30.31.018,Colour_Asymmetry_Pilot,2022.1.3,Win32,59.85515054,62bbe60bf3d75ef465d3e404,0,87,87,146,1,twoone
,,,,,,61541943a163573208338fd8,62bbf9706f52e7cb967379fe,2022-06-29_09h30.31.018,Colour_Asymmetry_Pilot,2022.1.3,Win32,59.85515054,62bbe60bf3d75ef465d3e404,0,88,88,158,1,fourtwo
,,,,,,61541943a163573208338fd8,62bbf9706f52e7cb967379fe,2022-06-29_09h30.31.018,Colour_Asymmetry_Pilot,2022.1.3,Win32,59.85515054,62bbe60bf3d75ef465d3e404,0,89,89,92,1,threeone
,,,,,,61541943a163573208338fd8,62bbf9706f52e7cb967379fe,2022-06-29_09h30.31.018,Colour_Asymmetry_Pilot,2022.1.3,Win32,59.85515054,62bbe60bf3d75ef465d3e404,0,90,90,103,1,fourthree
,,,,,,61541943a163573208338fd8,62bbf9706f52e7cb967379fe,2022-06-29_09h30.31.018,Colour_Asymmetry_Pilot,2022.1.3,Win32,59.85515054,62bbe60bf3d75ef465d3e404,0,91,91,144,1,onetwo
,,,,,,61541943a163573208338fd8,62bbf9706f52e7cb967379fe,2022-06-29_09h30.31.018,Colour_Asymmetry_Pilot,2022.1.3,Win32,59.85515054,62bbe60bf3d75ef465d3e404,0,92,92,125,1,threefour
,,,,,,61541943a163573208338fd8,62bbf9706f52e7cb967379fe,2022-06-29_09h30.31.018,Colour_Asymmetry_Pilot,2022.1.3,Win32,59.85515054,62bbe60bf3d75ef465d3e404,0,93,93,35,1,twofour
,,,,,,61541943a163573208338fd8,62bbf9706f52e7cb967379fe,2022-06-29_09h30.31.018,Colour_Asymmetry_Pilot,2022.1.3,Win32,59.85515054,62bbe60bf3d75ef465d3e404,0,94,94,62,1,fourtwo
,,,,,,61541943a163573208338fd8,62bbf9706f52e7cb967379fe,2022-06-29_09h30.31.018,Colour_Asymmetry_Pilot,2022.1.3,Win32,59.85515054,62bbe60bf3d75ef465d3e404,0,95,95,81,1,onethree
,,,,,,61541943a163573208338fd8,62bbf9706f52e7cb967379fe,2022-06-29_09h30.31.018,Colour_Asymmetry_Pilot,2022.1.3,Win32,59.85515054,62bbe60bf3d75ef465d3e404,0,96,96,140,1,threeone
,,,,,,61541943a163573208338fd8,62bbf9706f52e7cb967379fe,2022-06-29_09h30.31.018,Colour_Asymmetry_Pilot,2022.1.3,Win32,59.85515054,62bbe60bf3d75ef465d3e404,0,97,97,72,1,onetwo
,,,,,,61541943a163573208338fd8,62bbf9706f52e7cb967379fe,2022-06-29_09h30.31.018,Colour_Asymmetry_Pilot,2022.1.3,Win32,59.85515054,62bbe60bf3d75ef465d3e404,0,98,98,66,1,twoone
,,,,,,61541943a163573208338fd8,62bbf9706f52e7cb967379fe,2022-06-29_09h30.31.018,Colour_Asymmetry_Pilot,2022.1.3,Win32,59.85515054,62bbe60bf3d75ef465d3e404,0,99,99,11,1,twofour
,,,,,,61541943a163573208338fd8,62bbf9706f52e7cb967379fe,2022-06-29_09h30.31.018,Colour_Asymmetry_Pilot,2022.1.3,Win32,59.85515054,62bbe60bf3d75ef465d3e404,0,100,100,134,1,fourtwo
,,,,,,61541943a163573208338fd8,62bbf9706f52e7cb967379fe,2022-06-29_09h30.31.018,Colour_Asymmetry_Pilot,2022.1.3,Win32,59.85515054,62bbe60bf3d75ef465d3e404,0,101,101,101,1,threefour
,,,,,,61541943a163573208338fd8,62bbf9706f52e7cb967379fe,2022-06-29_09h30.31.018,Colour_Asymmetry_Pilot,2022.1.3,Win32,59.85515054,62bbe60bf3d75ef465d3e404,0,102,102,56,1,onetwo
,,,,,,61541943a163573208338fd8,62bbf9706f52e7cb967379fe,2022-06-29_09h30.31.018,Colour_Asymmetry_Pilot,2022.1.3,Win32,59.85515054,62bbe60bf3d75ef465d3e404,0,103,103,121,1,onethree
,,,,,,61541943a163573208338fd8,62bbf9706f52e7cb967379fe,2022-06-29_09h30.31.018,Colour_Asymmetry_Pilot,2022.1.3,Win32,59.85515054,62bbe60bf3d75ef465d3e404,0,104,104,105,1,onethree
,,,,,,61541943a163573208338fd8,62bbf9706f52e7cb967379fe,2022-06-29_09h30.31.018,Colour_Asymmetry_Pilot,2022.1.3,Win32,59.85515054,62bbe60bf3d75ef465d3e404,0,105,105,38,1,fourtwo
,,,,,,61541943a163573208338fd8,62bbf9706f52e7cb967379fe,2022-06-29_09h30.31.018,Colour_Asymmetry_Pilot,2022.1.3,Win32,59.85515054,62bbe60bf3d75ef465d3e404,0,106,106,96,1,onetwo
,,,,,,61541943a163573208338fd8,62bbf9706f52e7cb967379fe,2022-06-29_09h30.31.018,Colour_Asymmetry_Pilot,2022.1.3,Win32,59.85515054,62bbe60bf3d75ef465d3e404,0,107,107,55,1,fourthree
,,,,,,61541943a163573208338fd8,62bbf9706f52e7cb967379fe,2022-06-29_09h30.31.018,Colour_Asymmetry_Pilot,2022.1.3,Win32,59.85515054,62bbe60bf3d75ef465d3e404,0,108,108,14,1,fourtwo
,,,,,,61541943a163573208338fd8,62bbf9706f52e7cb967379fe,2022-06-29_09h30.31.018,Colour_Asymmetry_Pilot,2022.1.3,Win32,59.85515054,62bbe60bf3d75ef465d3e404,0,109,109,19,1,twofour
,,,,,,61541943a163573208338fd8,62bbf9706f52e7cb967379fe,2022-06-29_09h30.31.018,Colour_Asymmetry_Pilot,2022.1.3,Win32,59.85515054,62bbe60bf3d75ef465d3e404,0,110,110,95,1,fourthree
,,,,,,61541943a163573208338fd8,62bbf9706f52e7cb967379fe,2022-06-29_09h30.31.018,Colour_Asymmetry_Pilot,2022.1.3,Win32,59.85515054,62bbe60bf3d75ef465d3e404,0,111,111,132,1,threeone
,,,,,,61541943a163573208338fd8,62bbf9706f52e7cb967379fe,2022-06-29_09h30.31.018,Colour_Asymmetry_Pilot,2022.1.3,Win32,59.85515054,62bbe60bf3d75ef465d3e404,0,112,112,74,1,twoone
,,,,,,61541943a163573208338fd8,62bbf9706f52e7cb967379fe,2022-06-29_09h30.31.018,Colour_Asymmetry_Pilot,2022.1.3,Win32,59.85515054,62bbe60bf3d75ef465d3e404,0,113,113,60,1,threeone
,,,,,,61541943a163573208338fd8,62bbf9706f52e7cb967379fe,2022-06-29_09h30.31.018,Colour_Asymmetry_Pilot,2022.1.3,Win32,59.85515054,62bbe60bf3d75ef465d3e404,0,114,114,152,1,onetwo
,,,,,,61541943a163573208338fd8,62bbf9706f52e7cb967379fe,2022-06-29_09h30.31.018,Colour_Asymmetry_Pilot,2022.1.3,Win32,59.85515054,62bbe60bf3d75ef465d3e404,0,115,115,85,1,threefour
,,,,,,61541943a163573208338fd8,62bbf9706f52e7cb967379fe,2022-06-29_09h30.31.018,Colour_Asymmetry_Pilot,2022.1.3,Win32,59.85515054,62bbe60bf3d75ef465d3e404,0,116,116,116,1,threeone
,,,,,,61541943a163573208338fd8,62bbf9706f52e7cb967379fe,2022-06-29_09h30.31.018,Colour_Asymmetry_Pilot,2022.1.3,Win32,59.85515054,62bbe60bf3d75ef465d3e404,0,117,117,151,1,fourthree
,,,,,,61541943a163573208338fd8,62bbf9706f52e7cb967379fe,2022-06-29_09h30.31.018,Colour_Asymmetry_Pilot,2022.1.3,Win32,59.85515054,62bbe60bf3d75ef465d3e404,0,118,118,4,1,threeone
,,,,,,61541943a163573208338fd8,62bbf9706f52e7cb967379fe,2022-06-29_09h30.31.018,Colour_Asymmetry_Pilot,2022.1.3,Win32,59.85515054,62bbe60bf3d75ef465d3e404,0,119,119,23,1,fourthree
,,,,,,61541943a163573208338fd8,62bbf9706f52e7cb967379fe,2022-06-29_09h30.31.018,Colour_Asymmetry_Pilot,2022.1.3,Win32,59.85515054,62bbe60bf3d75ef465d3e404,0,120,120,50,1,twoone
,,,,,,61541943a163573208338fd8,62bbf9706f52e7cb967379fe,2022-06-29_09h30.31.018,Colour_Asymmetry_Pilot,2022.1.3,Win32,59.85515054,62bbe60bf3d75ef465d3e404,0,121,121,107,1,twofour
,,,,,,61541943a163573208338fd8,62bbf9706f52e7cb967379fe,2022-06-29_09h30.31.018,Colour_Asymmetry_Pilot,2022.1.3,Win32,59.85515054,62bbe60bf3d75ef465d3e404,0,122,122,87,1,fourthree
,,,,,,61541943a163573208338fd8,62bbf9706f52e7cb967379fe,2022-06-29_09h30.31.018,Colour_Asymmetry_Pilot,2022.1.3,Win32,59.85515054,62bbe60bf3d75ef465d3e404,0,123,123,127,1,fourthree
,,,,,,61541943a163573208338fd8,62bbf9706f52e7cb967379fe,2022-06-29_09h30.31.018,Colour_Asymmetry_Pilot,2022.1.3,Win32,59.85515054,62bbe60bf3d75ef465d3e404,0,124,124,83,1,twofour
,,,,,,61541943a163573208338fd8,62bbf9706f52e7cb967379fe,2022-06-29_09h30.31.018,Colour_Asymmetry_Pilot,2022.1.3,Win32,59.85515054,62bbe60bf3d75ef465d3e404,0,125,125,6,1,fourtwo
,,,,,,61541943a163573208338fd8,62bbf9706f52e7cb967379fe,2022-06-29_09h30.31.018,Colour_Asymmetry_Pilot,2022.1.3,Win32,59.85515054,62bbe60bf3d75ef465d3e404,0,126,126,39,1,fourthree
,,,,,,61541943a163573208338fd8,62bbf9706f52e7cb967379fe,2022-06-29_09h30.31.018,Colour_Asymmetry_Pilot,2022.1.3,Win32,59.85515054,62bbe60bf3d75ef465d3e404,0,127,127,141,1,threefour
,,,,,,61541943a163573208338fd8,62bbf9706f52e7cb967379fe,2022-06-29_09h30.31.018,Colour_Asymmetry_Pilot,2022.1.3,Win32,59.85515054,62bbe60bf3d75ef465d3e404,0,128,128,51,1,twofour
,,,,,,61541943a163573208338fd8,62bbf9706f52e7cb967379fe,2022-06-29_09h30.31.018,Colour_Asymmetry_Pilot,2022.1.3,Win32,59.85515054,62bbe60bf3d75ef465d3e404,0,129,129,113,1,onethree
,,,,,,61541943a163573208338fd8,62bbf9706f52e7cb967379fe,2022-06-29_09h30.31.018,Colour_Asymmetry_Pilot,2022.1.3,Win32,59.85515054,62bbe60bf3d75ef465d3e404,0,130,130,119,1,fourthree
,,,,,,61541943a163573208338fd8,62bbf9706f52e7cb967379fe,2022-06-29_09h30.31.018,Colour_Asymmetry_Pilot,2022.1.3,Win32,59.85515054,62bbe60bf3d75ef465d3e404,0,131,131,147,1,twofour
,,,,,,61541943a163573208338fd8,62bbf9706f52e7cb967379fe,2022-06-29_09h30.31.018,Colour_Asymmetry_Pilot,2022.1.3,Win32,59.85515054,62bbe60bf3d75ef465d3e404,0,132,132,159,1,fourthree
,,,,,,61541943a163573208338fd8,62bbf9706f52e7cb967379fe,2022-06-29_09h30.31.018,Colour_Asymmetry_Pilot,2022.1.3,Win32,59.85515054,62bbe60bf3d75ef465d3e404,0,133,133,10,1,twoone
,,,,,,61541943a163573208338fd8,62bbf9706f52e7cb967379fe,2022-06-29_09h30.31.018,Colour_Asymmetry_Pilot,2022.1.3,Win32,59.85515054,62bbe60bf3d75ef465d3e404,0,134,134,115,1,twofour
,,,,,,61541943a163573208338fd8,62bbf9706f52e7cb967379fe,2022-06-29_09h30.31.018,Colour_Asymmetry_Pilot,2022.1.3,Win32,59.85515054,62bbe60bf3d75ef465d3e404,0,135,135,130,1,twoone
,,,,,,61541943a163573208338fd8,62bbf9706f52e7cb967379fe,2022-06-29_09h30.31.018,Colour_Asymmetry_Pilot,2022.1.3,Win32,59.85515054,62bbe60bf3d75ef465d3e404,0,136,136,142,1,fourtwo
,,,,,,61541943a163573208338fd8,62bbf9706f52e7cb967379fe,2022-06-29_09h30.31.018,Colour_Asymmetry_Pilot,2022.1.3,Win32,59.85515054,62bbe60bf3d75ef465d3e404,0,137,137,26,1,twoone
,,,,,,61541943a163573208338fd8,62bbf9706f52e7cb967379fe,2022-06-29_09h30.31.018,Colour_Asymmetry_Pilot,2022.1.3,Win32,59.85515054,62bbe60bf3d75ef465d3e404,0,138,138,99,1,twofour
,,,,,,61541943a163573208338fd8,62bbf9706f52e7cb967379fe,2022-06-29_09h30.31.018,Colour_Asymmetry_Pilot,2022.1.3,Win32,59.85515054,62bbe60bf3d75ef465d3e404,0,139,139,45,1,threefour
,,,,,,61541943a163573208338fd8,62bbf9706f52e7cb967379fe,2022-06-29_09h30.31.018,Colour_Asymmetry_Pilot,2022.1.3,Win32,59.85515054,62bbe60bf3d75ef465d3e404,0,140,140,54,1,fourtwo
,,,,,,61541943a163573208338fd8,62bbf9706f52e7cb967379fe,2022-06-29_09h30.31.018,Colour_Asymmetry_Pilot,2022.1.3,Win32,59.85515054,62bbe60bf3d75ef465d3e404,0,141,141,22,1,fourtwo
,,,,,,61541943a163573208338fd8,62bbf9706f52e7cb967379fe,2022-06-29_09h30.31.018,Colour_Asymmetry_Pilot,2022.1.3,Win32,59.85515054,62bbe60bf3d75ef465d3e404,0,142,142,117,1,threefour
,,,,,,61541943a163573208338fd8,62bbf9706f52e7cb967379fe,2022-06-29_09h30.31.018,Colour_Asymmetry_Pilot,2022.1.3,Win32,59.85515054,62bbe60bf3d75ef465d3e404,0,143,143,68,1,threeone
,,,,,,61541943a163573208338fd8,62bbf9706f52e7cb967379fe,2022-06-29_09h30.31.018,Colour_Asymmetry_Pilot,2022.1.3,Win32,59.85515054,62bbe60bf3d75ef465d3e404,0,144,144,128,1,onetwo
,,,,,,61541943a163573208338fd8,62bbf9706f52e7cb967379fe,2022-06-29_09h30.31.018,Colour_Asymmetry_Pilot,2022.1.3,Win32,59.85515054,62bbe60bf3d75ef465d3e404,0,145,145,75,1,twofour
,,,,,,61541943a163573208338fd8,62bbf9706f52e7cb967379fe,2022-06-29_09h30.31.018,Colour_Asymmetry_Pilot,2022.1.3,Win32,59.85515054,62bbe60bf3d75ef465d3e404,0,146,146,138,1,twoone
,,,,,,61541943a163573208338fd8,62bbf9706f52e7cb967379fe,2022-06-29_09h30.31.018,Colour_Asymmetry_Pilot,2022.1.3,Win32,59.85515054,62bbe60bf3d75ef465d3e404,0,147,147,161,1,onethree
,,,,,,61541943a163573208338fd8,62bbf9706f52e7cb967379fe,2022-06-29_09h30.31.018,Colour_Asymmetry_Pilot,2022.1.3,Win32,59.85515054,62bbe60bf3d75ef465d3e404,0,148,148,88,1,onetwo
,,,,,,61541943a163573208338fd8,62bbf9706f52e7cb967379fe,2022-06-29_09h30.31.018,Colour_Asymmetry_Pilot,2022.1.3,Win32,59.85515054,62bbe60bf3d75ef465d3e404,0,149,149,42,1,twoone
,,,,,,61541943a163573208338fd8,62bbf9706f52e7cb967379fe,2022-06-29_09h30.31.018,Colour_Asymmetry_Pilot,2022.1.3,Win32,59.85515054,62bbe60bf3d75ef465d3e404,0,150,150,41,1,onethree
,,,,,,61541943a163573208338fd8,62bbf9706f52e7cb967379fe,2022-06-29_09h30.31.018,Colour_Asymmetry_Pilot,2022.1.3,Win32,59.85515054,62bbe60bf3d75ef465d3e404,0,151,151,124,1,threeone
,,,,,,61541943a163573208338fd8,62bbf9706f52e7cb967379fe,2022-06-29_09h30.31.018,Colour_Asymmetry_Pilot,2022.1.3,Win32,59.85515054,62bbe60bf3d75ef465d3e404,0,152,152,43,1,twofour
,,,,,,61541943a163573208338fd8,62bbf9706f52e7cb967379fe,2022-06-29_09h30.31.018,Colour_Asymmetry_Pilot,2022.1.3,Win32,59.85515054,62bbe60bf3d75ef465d3e404,0,153,153,8,1,onetwo
,,,,,,61541943a163573208338fd8,62bbf9706f52e7cb967379fe,2022-06-29_09h30.31.018,Colour_Asymmetry_Pilot,2022.1.3,Win32,59.85515054,62bbe60bf3d75ef465d3e404,0,154,154,156,1,threeone
,,,,,,61541943a163573208338fd8,62bbf9706f52e7cb967379fe,2022-06-29_09h30.31.018,Colour_Asymmetry_Pilot,2022.1.3,Win32,59.85515054,62bbe60bf3d75ef465d3e404,0,155,155,86,1,fourtwo
,,,,,,61541943a163573208338fd8,62bbf9706f52e7cb967379fe,2022-06-29_09h30.31.018,Colour_Asymmetry_Pilot,2022.1.3,Win32,59.85515054,62bbe60bf3d75ef465d3e404,0,156,156,106,1,twoone
,,,,,,61541943a163573208338fd8,62bbf9706f52e7cb967379fe,2022-06-29_09h30.31.018,Colour_Asymmetry_Pilot,2022.1.3,Win32,59.85515054,62bbe60bf3d75ef465d3e404,0,157,157,40,1,onetwo
,,,,,,61541943a163573208338fd8,62bbf9706f52e7cb967379fe,2022-06-29_09h30.31.018,Colour_Asymmetry_Pilot,2022.1.3,Win32,59.85515054,62bbe60bf3d75ef465d3e404,0,158,158,150,1,fourtwo
,,,,,,61541943a163573208338fd8,62bbf9706f52e7cb967379fe,2022-06-29_09h30.31.018,Colour_Asymmetry_Pilot,2022.1.3,Win32,59.85515054,62bbe60bf3d75ef465d3e404,0,159,159,53,1,threefour
,,,,,,61541943a163573208338fd8,62bbf9706f52e7cb967379fe,2022-06-29_09h30.31.018,Colour_Asymmetry_Pilot,2022.1.3,Win32,59.85515054,62bbe60bf3d75ef465d3e404,0,160,160,37,1,threefour
,,,,,,61541943a163573208338fd8,62bbf9706f52e7cb967379fe,2022-06-29_09h30.31.018,Colour_Asymmetry_Pilot,2022.1.3,Win32,59.85515054,62bbe60bf3d75ef465d3e404,0,161,161,33,1,onethree
