trials.thisRepN,trials.thisTrialN,trials.thisN,trials.thisIndex,trials.ran,Colourcodes,participant,session,date,expName,psychopyVersion,OS,frameRate,study_id,trials_4.thisRepN,trials_4.thisTrialN,trials_4.thisN,trials_4.thisIndex,trials_4.ran,StimulusPos
0,0,0,78,1,,6070b67d921b68125705efd6,62bbfb8a6e16f86e54766a03,2022-06-29_09h14.52.812,Colour_Asymmetry_Pilot,2022.1.3,Win32,60.04924038,62bbe60bf3d75ef465d3e404,,,,,,
0,1,1,56,1,,6070b67d921b68125705efd6,62bbfb8a6e16f86e54766a03,2022-06-29_09h14.52.812,Colour_Asymmetry_Pilot,2022.1.3,Win32,60.04924038,62bbe60bf3d75ef465d3e404,,,,,,
0,2,2,30,1,,6070b67d921b68125705efd6,62bbfb8a6e16f86e54766a03,2022-06-29_09h14.52.812,Colour_Asymmetry_Pilot,2022.1.3,Win32,60.04924038,62bbe60bf3d75ef465d3e404,,,,,,
0,3,3,32,1,,6070b67d921b68125705efd6,62bbfb8a6e16f86e54766a03,2022-06-29_09h14.52.812,Colour_Asymmetry_Pilot,2022.1.3,Win32,60.04924038,62bbe60bf3d75ef465d3e404,,,,,,
0,4,4,72,1,,6070b67d921b68125705efd6,62bbfb8a6e16f86e54766a03,2022-06-29_09h14.52.812,Colour_Asymmetry_Pilot,2022.1.3,Win32,60.04924038,62bbe60bf3d75ef465d3e404,,,,,,
0,5,5,35,1,,6070b67d921b68125705efd6,62bbfb8a6e16f86e54766a03,2022-06-29_09h14.52.812,Colour_Asymmetry_Pilot,2022.1.3,Win32,60.04924038,62bbe60bf3d75ef465d3e404,,,,,,
0,6,6,71,1,,6070b67d921b68125705efd6,62bbfb8a6e16f86e54766a03,2022-06-29_09h14.52.812,Colour_Asymmetry_Pilot,2022.1.3,Win32,60.04924038,62bbe60bf3d75ef465d3e404,,,,,,
0,7,7,16,1,,6070b67d921b68125705efd6,62bbfb8a6e16f86e54766a03,2022-06-29_09h14.52.812,Colour_Asymmetry_Pilot,2022.1.3,Win32,60.04924038,62bbe60bf3d75ef465d3e404,,,,,,
0,8,8,28,1,,6070b67d921b68125705efd6,62bbfb8a6e16f86e54766a03,2022-06-29_09h14.52.812,Colour_Asymmetry_Pilot,2022.1.3,Win32,60.04924038,62bbe60bf3d75ef465d3e404,,,,,,
0,9,9,4,1,,6070b67d921b68125705efd6,62bbfb8a6e16f86e54766a03,2022-06-29_09h14.52.812,Colour_Asymmetry_Pilot,2022.1.3,Win32,60.04924038,62bbe60bf3d75ef465d3e404,,,,,,
0,10,10,49,1,,6070b67d921b68125705efd6,62bbfb8a6e16f86e54766a03,2022-06-29_09h14.52.812,Colour_Asymmetry_Pilot,2022.1.3,Win32,60.04924038,62bbe60bf3d75ef465d3e404,,,,,,
0,11,11,59,1,,6070b67d921b68125705efd6,62bbfb8a6e16f86e54766a03,2022-06-29_09h14.52.812,Colour_Asymmetry_Pilot,2022.1.3,Win32,60.04924038,62bbe60bf3d75ef465d3e404,,,,,,
0,12,12,52,1,,6070b67d921b68125705efd6,62bbfb8a6e16f86e54766a03,2022-06-29_09h14.52.812,Colour_Asymmetry_Pilot,2022.1.3,Win32,60.04924038,62bbe60bf3d75ef465d3e404,,,,,,
0,13,13,21,1,,6070b67d921b68125705efd6,62bbfb8a6e16f86e54766a03,2022-06-29_09h14.52.812,Colour_Asymmetry_Pilot,2022.1.3,Win32,60.04924038,62bbe60bf3d75ef465d3e404,,,,,,
0,14,14,42,1,,6070b67d921b68125705efd6,62bbfb8a6e16f86e54766a03,2022-06-29_09h14.52.812,Colour_Asymmetry_Pilot,2022.1.3,Win32,60.04924038,62bbe60bf3d75ef465d3e404,,,,,,
0,15,15,53,1,,6070b67d921b68125705efd6,62bbfb8a6e16f86e54766a03,2022-06-29_09h14.52.812,Colour_Asymmetry_Pilot,2022.1.3,Win32,60.04924038,62bbe60bf3d75ef465d3e404,,,,,,
0,16,16,37,1,,6070b67d921b68125705efd6,62bbfb8a6e16f86e54766a03,2022-06-29_09h14.52.812,Colour_Asymmetry_Pilot,2022.1.3,Win32,60.04924038,62bbe60bf3d75ef465d3e404,,,,,,
0,17,17,6,1,,6070b67d921b68125705efd6,62bbfb8a6e16f86e54766a03,2022-06-29_09h14.52.812,Colour_Asymmetry_Pilot,2022.1.3,Win32,60.04924038,62bbe60bf3d75ef465d3e404,,,,,,
0,18,18,62,1,,6070b67d921b68125705efd6,62bbfb8a6e16f86e54766a03,2022-06-29_09h14.52.812,Colour_Asymmetry_Pilot,2022.1.3,Win32,60.04924038,62bbe60bf3d75ef465d3e404,,,,,,
0,19,19,69,1,,6070b67d921b68125705efd6,62bbfb8a6e16f86e54766a03,2022-06-29_09h14.52.812,Colour_Asymmetry_Pilot,2022.1.3,Win32,60.04924038,62bbe60bf3d75ef465d3e404,,,,,,
0,20,20,77,1,,6070b67d921b68125705efd6,62bbfb8a6e16f86e54766a03,2022-06-29_09h14.52.812,Colour_Asymmetry_Pilot,2022.1.3,Win32,60.04924038,62bbe60bf3d75ef465d3e404,,,,,,
0,21,21,14,1,,6070b67d921b68125705efd6,62bbfb8a6e16f86e54766a03,2022-06-29_09h14.52.812,Colour_Asymmetry_Pilot,2022.1.3,Win32,60.04924038,62bbe60bf3d75ef465d3e404,,,,,,
0,22,22,81,1,,6070b67d921b68125705efd6,62bbfb8a6e16f86e54766a03,2022-06-29_09h14.52.812,Colour_Asymmetry_Pilot,2022.1.3,Win32,60.04924038,62bbe60bf3d75ef465d3e404,,,,,,
0,23,23,15,1,,6070b67d921b68125705efd6,62bbfb8a6e16f86e54766a03,2022-06-29_09h14.52.812,Colour_Asymmetry_Pilot,2022.1.3,Win32,60.04924038,62bbe60bf3d75ef465d3e404,,,,,,
0,24,24,55,1,,6070b67d921b68125705efd6,62bbfb8a6e16f86e54766a03,2022-06-29_09h14.52.812,Colour_Asymmetry_Pilot,2022.1.3,Win32,60.04924038,62bbe60bf3d75ef465d3e404,,,,,,
0,25,25,44,1,,6070b67d921b68125705efd6,62bbfb8a6e16f86e54766a03,2022-06-29_09h14.52.812,Colour_Asymmetry_Pilot,2022.1.3,Win32,60.04924038,62bbe60bf3d75ef465d3e404,,,,,,
0,26,26,60,1,,6070b67d921b68125705efd6,62bbfb8a6e16f86e54766a03,2022-06-29_09h14.52.812,Colour_Asymmetry_Pilot,2022.1.3,Win32,60.04924038,62bbe60bf3d75ef465d3e404,,,,,,
0,27,27,73,1,,6070b67d921b68125705efd6,62bbfb8a6e16f86e54766a03,2022-06-29_09h14.52.812,Colour_Asymmetry_Pilot,2022.1.3,Win32,60.04924038,62bbe60bf3d75ef465d3e404,,,,,,
0,28,28,57,1,,6070b67d921b68125705efd6,62bbfb8a6e16f86e54766a03,2022-06-29_09h14.52.812,Colour_Asymmetry_Pilot,2022.1.3,Win32,60.04924038,62bbe60bf3d75ef465d3e404,,,,,,
0,29,29,5,1,,6070b67d921b68125705efd6,62bbfb8a6e16f86e54766a03,2022-06-29_09h14.52.812,Colour_Asymmetry_Pilot,2022.1.3,Win32,60.04924038,62bbe60bf3d75ef465d3e404,,,,,,
0,30,30,33,1,,6070b67d921b68125705efd6,62bbfb8a6e16f86e54766a03,2022-06-29_09h14.52.812,Colour_Asymmetry_Pilot,2022.1.3,Win32,60.04924038,62bbe60bf3d75ef465d3e404,,,,,,
0,31,31,34,1,,6070b67d921b68125705efd6,62bbfb8a6e16f86e54766a03,2022-06-29_09h14.52.812,Colour_Asymmetry_Pilot,2022.1.3,Win32,60.04924038,62bbe60bf3d75ef465d3e404,,,,,,
0,32,32,74,1,,6070b67d921b68125705efd6,62bbfb8a6e16f86e54766a03,2022-06-29_09h14.52.812,Colour_Asymmetry_Pilot,2022.1.3,Win32,60.04924038,62bbe60bf3d75ef465d3e404,,,,,,
0,33,33,22,1,,6070b67d921b68125705efd6,62bbfb8a6e16f86e54766a03,2022-06-29_09h14.52.812,Colour_Asymmetry_Pilot,2022.1.3,Win32,60.04924038,62bbe60bf3d75ef465d3e404,,,,,,
0,34,34,63,1,,6070b67d921b68125705efd6,62bbfb8a6e16f86e54766a03,2022-06-29_09h14.52.812,Colour_Asymmetry_Pilot,2022.1.3,Win32,60.04924038,62bbe60bf3d75ef465d3e404,,,,,,
0,35,35,23,1,,6070b67d921b68125705efd6,62bbfb8a6e16f86e54766a03,2022-06-29_09h14.52.812,Colour_Asymmetry_Pilot,2022.1.3,Win32,60.04924038,62bbe60bf3d75ef465d3e404,,,,,,
0,36,36,10,1,,6070b67d921b68125705efd6,62bbfb8a6e16f86e54766a03,2022-06-29_09h14.52.812,Colour_Asymmetry_Pilot,2022.1.3,Win32,60.04924038,62bbe60bf3d75ef465d3e404,,,,,,
0,37,37,26,1,,6070b67d921b68125705efd6,62bbfb8a6e16f86e54766a03,2022-06-29_09h14.52.812,Colour_Asymmetry_Pilot,2022.1.3,Win32,60.04924038,62bbe60bf3d75ef465d3e404,,,,,,
0,38,38,88,1,,6070b67d921b68125705efd6,62bbfb8a6e16f86e54766a03,2022-06-29_09h14.52.812,Colour_Asymmetry_Pilot,2022.1.3,Win32,60.04924038,62bbe60bf3d75ef465d3e404,,,,,,
0,39,39,38,1,,6070b67d921b68125705efd6,62bbfb8a6e16f86e54766a03,2022-06-29_09h14.52.812,Colour_Asymmetry_Pilot,2022.1.3,Win32,60.04924038,62bbe60bf3d75ef465d3e404,,,,,,
0,40,40,61,1,,6070b67d921b68125705efd6,62bbfb8a6e16f86e54766a03,2022-06-29_09h14.52.812,Colour_Asymmetry_Pilot,2022.1.3,Win32,60.04924038,62bbe60bf3d75ef465d3e404,,,,,,
0,41,41,29,1,,6070b67d921b68125705efd6,62bbfb8a6e16f86e54766a03,2022-06-29_09h14.52.812,Colour_Asymmetry_Pilot,2022.1.3,Win32,60.04924038,62bbe60bf3d75ef465d3e404,,,,,,
0,42,42,36,1,,6070b67d921b68125705efd6,62bbfb8a6e16f86e54766a03,2022-06-29_09h14.52.812,Colour_Asymmetry_Pilot,2022.1.3,Win32,60.04924038,62bbe60bf3d75ef465d3e404,,,,,,
0,43,43,11,1,,6070b67d921b68125705efd6,62bbfb8a6e16f86e54766a03,2022-06-29_09h14.52.812,Colour_Asymmetry_Pilot,2022.1.3,Win32,60.04924038,62bbe60bf3d75ef465d3e404,,,,,,
0,44,44,70,1,,6070b67d921b68125705efd6,62bbfb8a6e16f86e54766a03,2022-06-29_09h14.52.812,Colour_Asymmetry_Pilot,2022.1.3,Win32,60.04924038,62bbe60bf3d75ef465d3e404,,,,,,
0,45,45,25,1,,6070b67d921b68125705efd6,62bbfb8a6e16f86e54766a03,2022-06-29_09h14.52.812,Colour_Asymmetry_Pilot,2022.1.3,Win32,60.04924038,62bbe60bf3d75ef465d3e404,,,,,,
0,46,46,85,1,,6070b67d921b68125705efd6,62bbfb8a6e16f86e54766a03,2022-06-29_09h14.52.812,Colour_Asymmetry_Pilot,2022.1.3,Win32,60.04924038,62bbe60bf3d75ef465d3e404,,,,,,
0,47,47,31,1,,6070b67d921b68125705efd6,62bbfb8a6e16f86e54766a03,2022-06-29_09h14.52.812,Colour_Asymmetry_Pilot,2022.1.3,Win32,60.04924038,62bbe60bf3d75ef465d3e404,,,,,,
0,48,48,50,1,,6070b67d921b68125705efd6,62bbfb8a6e16f86e54766a03,2022-06-29_09h14.52.812,Colour_Asymmetry_Pilot,2022.1.3,Win32,60.04924038,62bbe60bf3d75ef465d3e404,,,,,,
0,49,49,17,1,,6070b67d921b68125705efd6,62bbfb8a6e16f86e54766a03,2022-06-29_09h14.52.812,Colour_Asymmetry_Pilot,2022.1.3,Win32,60.04924038,62bbe60bf3d75ef465d3e404,,,,,,
0,50,50,76,1,,6070b67d921b68125705efd6,62bbfb8a6e16f86e54766a03,2022-06-29_09h14.52.812,Colour_Asymmetry_Pilot,2022.1.3,Win32,60.04924038,62bbe60bf3d75ef465d3e404,,,,,,
0,51,51,45,1,,6070b67d921b68125705efd6,62bbfb8a6e16f86e54766a03,2022-06-29_09h14.52.812,Colour_Asymmetry_Pilot,2022.1.3,Win32,60.04924038,62bbe60bf3d75ef465d3e404,,,,,,
0,52,52,84,1,,6070b67d921b68125705efd6,62bbfb8a6e16f86e54766a03,2022-06-29_09h14.52.812,Colour_Asymmetry_Pilot,2022.1.3,Win32,60.04924038,62bbe60bf3d75ef465d3e404,,,,,,
0,53,53,68,1,,6070b67d921b68125705efd6,62bbfb8a6e16f86e54766a03,2022-06-29_09h14.52.812,Colour_Asymmetry_Pilot,2022.1.3,Win32,60.04924038,62bbe60bf3d75ef465d3e404,,,,,,
0,54,54,64,1,,6070b67d921b68125705efd6,62bbfb8a6e16f86e54766a03,2022-06-29_09h14.52.812,Colour_Asymmetry_Pilot,2022.1.3,Win32,60.04924038,62bbe60bf3d75ef465d3e404,,,,,,
0,55,55,46,1,,6070b67d921b68125705efd6,62bbfb8a6e16f86e54766a03,2022-06-29_09h14.52.812,Colour_Asymmetry_Pilot,2022.1.3,Win32,60.04924038,62bbe60bf3d75ef465d3e404,,,,,,
0,56,56,58,1,,6070b67d921b68125705efd6,62bbfb8a6e16f86e54766a03,2022-06-29_09h14.52.812,Colour_Asymmetry_Pilot,2022.1.3,Win32,60.04924038,62bbe60bf3d75ef465d3e404,,,,,,
0,57,57,65,1,,6070b67d921b68125705efd6,62bbfb8a6e16f86e54766a03,2022-06-29_09h14.52.812,Colour_Asymmetry_Pilot,2022.1.3,Win32,60.04924038,62bbe60bf3d75ef465d3e404,,,,,,
0,58,58,12,1,,6070b67d921b68125705efd6,62bbfb8a6e16f86e54766a03,2022-06-29_09h14.52.812,Colour_Asymmetry_Pilot,2022.1.3,Win32,60.04924038,62bbe60bf3d75ef465d3e404,,,,,,
0,59,59,75,1,,6070b67d921b68125705efd6,62bbfb8a6e16f86e54766a03,2022-06-29_09h14.52.812,Colour_Asymmetry_Pilot,2022.1.3,Win32,60.04924038,62bbe60bf3d75ef465d3e404,,,,,,
0,60,60,19,1,,6070b67d921b68125705efd6,62bbfb8a6e16f86e54766a03,2022-06-29_09h14.52.812,Colour_Asymmetry_Pilot,2022.1.3,Win32,60.04924038,62bbe60bf3d75ef465d3e404,,,,,,
0,61,61,87,1,,6070b67d921b68125705efd6,62bbfb8a6e16f86e54766a03,2022-06-29_09h14.52.812,Colour_Asymmetry_Pilot,2022.1.3,Win32,60.04924038,62bbe60bf3d75ef465d3e404,,,,,,
0,62,62,1,1,,6070b67d921b68125705efd6,62bbfb8a6e16f86e54766a03,2022-06-29_09h14.52.812,Colour_Asymmetry_Pilot,2022.1.3,Win32,60.04924038,62bbe60bf3d75ef465d3e404,,,,,,
0,63,63,40,1,,6070b67d921b68125705efd6,62bbfb8a6e16f86e54766a03,2022-06-29_09h14.52.812,Colour_Asymmetry_Pilot,2022.1.3,Win32,60.04924038,62bbe60bf3d75ef465d3e404,,,,,,
0,64,64,13,1,,6070b67d921b68125705efd6,62bbfb8a6e16f86e54766a03,2022-06-29_09h14.52.812,Colour_Asymmetry_Pilot,2022.1.3,Win32,60.04924038,62bbe60bf3d75ef465d3e404,,,,,,
0,65,65,79,1,,6070b67d921b68125705efd6,62bbfb8a6e16f86e54766a03,2022-06-29_09h14.52.812,Colour_Asymmetry_Pilot,2022.1.3,Win32,60.04924038,62bbe60bf3d75ef465d3e404,,,,,,
0,66,66,18,1,,6070b67d921b68125705efd6,62bbfb8a6e16f86e54766a03,2022-06-29_09h14.52.812,Colour_Asymmetry_Pilot,2022.1.3,Win32,60.04924038,62bbe60bf3d75ef465d3e404,,,,,,
0,67,67,8,1,,6070b67d921b68125705efd6,62bbfb8a6e16f86e54766a03,2022-06-29_09h14.52.812,Colour_Asymmetry_Pilot,2022.1.3,Win32,60.04924038,62bbe60bf3d75ef465d3e404,,,,,,
0,68,68,90,1,,6070b67d921b68125705efd6,62bbfb8a6e16f86e54766a03,2022-06-29_09h14.52.812,Colour_Asymmetry_Pilot,2022.1.3,Win32,60.04924038,62bbe60bf3d75ef465d3e404,,,,,,
0,69,69,3,1,,6070b67d921b68125705efd6,62bbfb8a6e16f86e54766a03,2022-06-29_09h14.52.812,Colour_Asymmetry_Pilot,2022.1.3,Win32,60.04924038,62bbe60bf3d75ef465d3e404,,,,,,
0,70,70,43,1,,6070b67d921b68125705efd6,62bbfb8a6e16f86e54766a03,2022-06-29_09h14.52.812,Colour_Asymmetry_Pilot,2022.1.3,Win32,60.04924038,62bbe60bf3d75ef465d3e404,,,,,,
0,71,71,24,1,,6070b67d921b68125705efd6,62bbfb8a6e16f86e54766a03,2022-06-29_09h14.52.812,Colour_Asymmetry_Pilot,2022.1.3,Win32,60.04924038,62bbe60bf3d75ef465d3e404,,,,,,
0,72,72,27,1,,6070b67d921b68125705efd6,62bbfb8a6e16f86e54766a03,2022-06-29_09h14.52.812,Colour_Asymmetry_Pilot,2022.1.3,Win32,60.04924038,62bbe60bf3d75ef465d3e404,,,,,,
0,73,73,67,1,,6070b67d921b68125705efd6,62bbfb8a6e16f86e54766a03,2022-06-29_09h14.52.812,Colour_Asymmetry_Pilot,2022.1.3,Win32,60.04924038,62bbe60bf3d75ef465d3e404,,,,,,
0,74,74,9,1,,6070b67d921b68125705efd6,62bbfb8a6e16f86e54766a03,2022-06-29_09h14.52.812,Colour_Asymmetry_Pilot,2022.1.3,Win32,60.04924038,62bbe60bf3d75ef465d3e404,,,,,,
0,75,75,80,1,,6070b67d921b68125705efd6,62bbfb8a6e16f86e54766a03,2022-06-29_09h14.52.812,Colour_Asymmetry_Pilot,2022.1.3,Win32,60.04924038,62bbe60bf3d75ef465d3e404,,,,,,
0,76,76,2,1,,6070b67d921b68125705efd6,62bbfb8a6e16f86e54766a03,2022-06-29_09h14.52.812,Colour_Asymmetry_Pilot,2022.1.3,Win32,60.04924038,62bbe60bf3d75ef465d3e404,,,,,,
0,77,77,48,1,,6070b67d921b68125705efd6,62bbfb8a6e16f86e54766a03,2022-06-29_09h14.52.812,Colour_Asymmetry_Pilot,2022.1.3,Win32,60.04924038,62bbe60bf3d75ef465d3e404,,,,,,
0,78,78,20,1,,6070b67d921b68125705efd6,62bbfb8a6e16f86e54766a03,2022-06-29_09h14.52.812,Colour_Asymmetry_Pilot,2022.1.3,Win32,60.04924038,62bbe60bf3d75ef465d3e404,,,,,,
0,79,79,39,1,,6070b67d921b68125705efd6,62bbfb8a6e16f86e54766a03,2022-06-29_09h14.52.812,Colour_Asymmetry_Pilot,2022.1.3,Win32,60.04924038,62bbe60bf3d75ef465d3e404,,,,,,
0,80,80,89,1,,6070b67d921b68125705efd6,62bbfb8a6e16f86e54766a03,2022-06-29_09h14.52.812,Colour_Asymmetry_Pilot,2022.1.3,Win32,60.04924038,62bbe60bf3d75ef465d3e404,,,,,,
0,81,81,51,1,,6070b67d921b68125705efd6,62bbfb8a6e16f86e54766a03,2022-06-29_09h14.52.812,Colour_Asymmetry_Pilot,2022.1.3,Win32,60.04924038,62bbe60bf3d75ef465d3e404,,,,,,
0,82,82,66,1,,6070b67d921b68125705efd6,62bbfb8a6e16f86e54766a03,2022-06-29_09h14.52.812,Colour_Asymmetry_Pilot,2022.1.3,Win32,60.04924038,62bbe60bf3d75ef465d3e404,,,,,,
0,83,83,82,1,,6070b67d921b68125705efd6,62bbfb8a6e16f86e54766a03,2022-06-29_09h14.52.812,Colour_Asymmetry_Pilot,2022.1.3,Win32,60.04924038,62bbe60bf3d75ef465d3e404,,,,,,
0,84,84,83,1,,6070b67d921b68125705efd6,62bbfb8a6e16f86e54766a03,2022-06-29_09h14.52.812,Colour_Asymmetry_Pilot,2022.1.3,Win32,60.04924038,62bbe60bf3d75ef465d3e404,,,,,,
0,85,85,0,1,,6070b67d921b68125705efd6,62bbfb8a6e16f86e54766a03,2022-06-29_09h14.52.812,Colour_Asymmetry_Pilot,2022.1.3,Win32,60.04924038,62bbe60bf3d75ef465d3e404,,,,,,
0,86,86,54,1,,6070b67d921b68125705efd6,62bbfb8a6e16f86e54766a03,2022-06-29_09h14.52.812,Colour_Asymmetry_Pilot,2022.1.3,Win32,60.04924038,62bbe60bf3d75ef465d3e404,,,,,,
0,87,87,47,1,,6070b67d921b68125705efd6,62bbfb8a6e16f86e54766a03,2022-06-29_09h14.52.812,Colour_Asymmetry_Pilot,2022.1.3,Win32,60.04924038,62bbe60bf3d75ef465d3e404,,,,,,
0,88,88,91,1,,6070b67d921b68125705efd6,62bbfb8a6e16f86e54766a03,2022-06-29_09h14.52.812,Colour_Asymmetry_Pilot,2022.1.3,Win32,60.04924038,62bbe60bf3d75ef465d3e404,,,,,,
0,89,89,41,1,,6070b67d921b68125705efd6,62bbfb8a6e16f86e54766a03,2022-06-29_09h14.52.812,Colour_Asymmetry_Pilot,2022.1.3,Win32,60.04924038,62bbe60bf3d75ef465d3e404,,,,,,
0,90,90,86,1,,6070b67d921b68125705efd6,62bbfb8a6e16f86e54766a03,2022-06-29_09h14.52.812,Colour_Asymmetry_Pilot,2022.1.3,Win32,60.04924038,62bbe60bf3d75ef465d3e404,,,,,,
0,91,91,92,1,,6070b67d921b68125705efd6,62bbfb8a6e16f86e54766a03,2022-06-29_09h14.52.812,Colour_Asymmetry_Pilot,2022.1.3,Win32,60.04924038,62bbe60bf3d75ef465d3e404,,,,,,
0,92,92,7,1,,6070b67d921b68125705efd6,62bbfb8a6e16f86e54766a03,2022-06-29_09h14.52.812,Colour_Asymmetry_Pilot,2022.1.3,Win32,60.04924038,62bbe60bf3d75ef465d3e404,,,,,,
,,,,,,6070b67d921b68125705efd6,62bbfb8a6e16f86e54766a03,2022-06-29_09h14.52.812,Colour_Asymmetry_Pilot,2022.1.3,Win32,60.04924038,62bbe60bf3d75ef465d3e404,0,0,0,63,1,fourthree
,,,,,,6070b67d921b68125705efd6,62bbfb8a6e16f86e54766a03,2022-06-29_09h14.52.812,Colour_Asymmetry_Pilot,2022.1.3,Win32,60.04924038,62bbe60bf3d75ef465d3e404,0,1,1,0,1,onetwo
,,,,,,6070b67d921b68125705efd6,62bbfb8a6e16f86e54766a03,2022-06-29_09h14.52.812,Colour_Asymmetry_Pilot,2022.1.3,Win32,60.04924038,62bbe60bf3d75ef465d3e404,0,2,2,84,1,threeone
,,,,,,6070b67d921b68125705efd6,62bbfb8a6e16f86e54766a03,2022-06-29_09h14.52.812,Colour_Asymmetry_Pilot,2022.1.3,Win32,60.04924038,62bbe60bf3d75ef465d3e404,0,3,3,112,1,onetwo
,,,,,,6070b67d921b68125705efd6,62bbfb8a6e16f86e54766a03,2022-06-29_09h14.52.812,Colour_Asymmetry_Pilot,2022.1.3,Win32,60.04924038,62bbe60bf3d75ef465d3e404,0,4,4,54,1,fourtwo
,,,,,,6070b67d921b68125705efd6,62bbfb8a6e16f86e54766a03,2022-06-29_09h14.52.812,Colour_Asymmetry_Pilot,2022.1.3,Win32,60.04924038,62bbe60bf3d75ef465d3e404,0,5,5,128,1,onetwo
,,,,,,6070b67d921b68125705efd6,62bbfb8a6e16f86e54766a03,2022-06-29_09h14.52.812,Colour_Asymmetry_Pilot,2022.1.3,Win32,60.04924038,62bbe60bf3d75ef465d3e404,0,6,6,9,1,onethree
,,,,,,6070b67d921b68125705efd6,62bbfb8a6e16f86e54766a03,2022-06-29_09h14.52.812,Colour_Asymmetry_Pilot,2022.1.3,Win32,60.04924038,62bbe60bf3d75ef465d3e404,0,7,7,153,1,onethree
,,,,,,6070b67d921b68125705efd6,62bbfb8a6e16f86e54766a03,2022-06-29_09h14.52.812,Colour_Asymmetry_Pilot,2022.1.3,Win32,60.04924038,62bbe60bf3d75ef465d3e404,0,8,8,74,1,twoone
,,,,,,6070b67d921b68125705efd6,62bbfb8a6e16f86e54766a03,2022-06-29_09h14.52.812,Colour_Asymmetry_Pilot,2022.1.3,Win32,60.04924038,62bbe60bf3d75ef465d3e404,0,9,9,154,1,twoone
,,,,,,6070b67d921b68125705efd6,62bbfb8a6e16f86e54766a03,2022-06-29_09h14.52.812,Colour_Asymmetry_Pilot,2022.1.3,Win32,60.04924038,62bbe60bf3d75ef465d3e404,0,10,10,91,1,twofour
,,,,,,6070b67d921b68125705efd6,62bbfb8a6e16f86e54766a03,2022-06-29_09h14.52.812,Colour_Asymmetry_Pilot,2022.1.3,Win32,60.04924038,62bbe60bf3d75ef465d3e404,0,11,11,102,1,fourtwo
,,,,,,6070b67d921b68125705efd6,62bbfb8a6e16f86e54766a03,2022-06-29_09h14.52.812,Colour_Asymmetry_Pilot,2022.1.3,Win32,60.04924038,62bbe60bf3d75ef465d3e404,0,12,12,139,1,twofour
,,,,,,6070b67d921b68125705efd6,62bbfb8a6e16f86e54766a03,2022-06-29_09h14.52.812,Colour_Asymmetry_Pilot,2022.1.3,Win32,60.04924038,62bbe60bf3d75ef465d3e404,0,13,13,104,1,onetwo
,,,,,,6070b67d921b68125705efd6,62bbfb8a6e16f86e54766a03,2022-06-29_09h14.52.812,Colour_Asymmetry_Pilot,2022.1.3,Win32,60.04924038,62bbe60bf3d75ef465d3e404,0,14,14,21,1,threefour
,,,,,,6070b67d921b68125705efd6,62bbfb8a6e16f86e54766a03,2022-06-29_09h14.52.812,Colour_Asymmetry_Pilot,2022.1.3,Win32,60.04924038,62bbe60bf3d75ef465d3e404,0,15,15,136,1,onetwo
,,,,,,6070b67d921b68125705efd6,62bbfb8a6e16f86e54766a03,2022-06-29_09h14.52.812,Colour_Asymmetry_Pilot,2022.1.3,Win32,60.04924038,62bbe60bf3d75ef465d3e404,0,16,16,159,1,fourthree
,,,,,,6070b67d921b68125705efd6,62bbfb8a6e16f86e54766a03,2022-06-29_09h14.52.812,Colour_Asymmetry_Pilot,2022.1.3,Win32,60.04924038,62bbe60bf3d75ef465d3e404,0,17,17,140,1,threeone
,,,,,,6070b67d921b68125705efd6,62bbfb8a6e16f86e54766a03,2022-06-29_09h14.52.812,Colour_Asymmetry_Pilot,2022.1.3,Win32,60.04924038,62bbe60bf3d75ef465d3e404,0,18,18,93,1,threefour
,,,,,,6070b67d921b68125705efd6,62bbfb8a6e16f86e54766a03,2022-06-29_09h14.52.812,Colour_Asymmetry_Pilot,2022.1.3,Win32,60.04924038,62bbe60bf3d75ef465d3e404,0,19,19,127,1,fourthree
,,,,,,6070b67d921b68125705efd6,62bbfb8a6e16f86e54766a03,2022-06-29_09h14.52.812,Colour_Asymmetry_Pilot,2022.1.3,Win32,60.04924038,62bbe60bf3d75ef465d3e404,0,20,20,124,1,threeone
,,,,,,6070b67d921b68125705efd6,62bbfb8a6e16f86e54766a03,2022-06-29_09h14.52.812,Colour_Asymmetry_Pilot,2022.1.3,Win32,60.04924038,62bbe60bf3d75ef465d3e404,0,21,21,59,1,twofour
,,,,,,6070b67d921b68125705efd6,62bbfb8a6e16f86e54766a03,2022-06-29_09h14.52.812,Colour_Asymmetry_Pilot,2022.1.3,Win32,60.04924038,62bbe60bf3d75ef465d3e404,0,22,22,151,1,fourthree
,,,,,,6070b67d921b68125705efd6,62bbfb8a6e16f86e54766a03,2022-06-29_09h14.52.812,Colour_Asymmetry_Pilot,2022.1.3,Win32,60.04924038,62bbe60bf3d75ef465d3e404,0,23,23,121,1,onethree
,,,,,,6070b67d921b68125705efd6,62bbfb8a6e16f86e54766a03,2022-06-29_09h14.52.812,Colour_Asymmetry_Pilot,2022.1.3,Win32,60.04924038,62bbe60bf3d75ef465d3e404,0,24,24,120,1,onetwo
,,,,,,6070b67d921b68125705efd6,62bbfb8a6e16f86e54766a03,2022-06-29_09h14.52.812,Colour_Asymmetry_Pilot,2022.1.3,Win32,60.04924038,62bbe60bf3d75ef465d3e404,0,25,25,129,1,onethree
,,,,,,6070b67d921b68125705efd6,62bbfb8a6e16f86e54766a03,2022-06-29_09h14.52.812,Colour_Asymmetry_Pilot,2022.1.3,Win32,60.04924038,62bbe60bf3d75ef465d3e404,0,26,26,97,1,onethree
,,,,,,6070b67d921b68125705efd6,62bbfb8a6e16f86e54766a03,2022-06-29_09h14.52.812,Colour_Asymmetry_Pilot,2022.1.3,Win32,60.04924038,62bbe60bf3d75ef465d3e404,0,27,27,148,1,threeone
,,,,,,6070b67d921b68125705efd6,62bbfb8a6e16f86e54766a03,2022-06-29_09h14.52.812,Colour_Asymmetry_Pilot,2022.1.3,Win32,60.04924038,62bbe60bf3d75ef465d3e404,0,28,28,52,1,threeone
,,,,,,6070b67d921b68125705efd6,62bbfb8a6e16f86e54766a03,2022-06-29_09h14.52.812,Colour_Asymmetry_Pilot,2022.1.3,Win32,60.04924038,62bbe60bf3d75ef465d3e404,0,29,29,145,1,onethree
,,,,,,6070b67d921b68125705efd6,62bbfb8a6e16f86e54766a03,2022-06-29_09h14.52.812,Colour_Asymmetry_Pilot,2022.1.3,Win32,60.04924038,62bbe60bf3d75ef465d3e404,0,30,30,51,1,twofour
,,,,,,6070b67d921b68125705efd6,62bbfb8a6e16f86e54766a03,2022-06-29_09h14.52.812,Colour_Asymmetry_Pilot,2022.1.3,Win32,60.04924038,62bbe60bf3d75ef465d3e404,0,31,31,45,1,threefour
,,,,,,6070b67d921b68125705efd6,62bbfb8a6e16f86e54766a03,2022-06-29_09h14.52.812,Colour_Asymmetry_Pilot,2022.1.3,Win32,60.04924038,62bbe60bf3d75ef465d3e404,0,32,32,134,1,fourtwo
,,,,,,6070b67d921b68125705efd6,62bbfb8a6e16f86e54766a03,2022-06-29_09h14.52.812,Colour_Asymmetry_Pilot,2022.1.3,Win32,60.04924038,62bbe60bf3d75ef465d3e404,0,33,33,73,1,onethree
,,,,,,6070b67d921b68125705efd6,62bbfb8a6e16f86e54766a03,2022-06-29_09h14.52.812,Colour_Asymmetry_Pilot,2022.1.3,Win32,60.04924038,62bbe60bf3d75ef465d3e404,0,34,34,31,1,fourthree
,,,,,,6070b67d921b68125705efd6,62bbfb8a6e16f86e54766a03,2022-06-29_09h14.52.812,Colour_Asymmetry_Pilot,2022.1.3,Win32,60.04924038,62bbe60bf3d75ef465d3e404,0,35,35,7,1,fourthree
,,,,,,6070b67d921b68125705efd6,62bbfb8a6e16f86e54766a03,2022-06-29_09h14.52.812,Colour_Asymmetry_Pilot,2022.1.3,Win32,60.04924038,62bbe60bf3d75ef465d3e404,0,36,36,44,1,threeone
,,,,,,6070b67d921b68125705efd6,62bbfb8a6e16f86e54766a03,2022-06-29_09h14.52.812,Colour_Asymmetry_Pilot,2022.1.3,Win32,60.04924038,62bbe60bf3d75ef465d3e404,0,37,37,161,1,onethree
,,,,,,6070b67d921b68125705efd6,62bbfb8a6e16f86e54766a03,2022-06-29_09h14.52.812,Colour_Asymmetry_Pilot,2022.1.3,Win32,60.04924038,62bbe60bf3d75ef465d3e404,0,38,38,29,1,threefour
,,,,,,6070b67d921b68125705efd6,62bbfb8a6e16f86e54766a03,2022-06-29_09h14.52.812,Colour_Asymmetry_Pilot,2022.1.3,Win32,60.04924038,62bbe60bf3d75ef465d3e404,0,39,39,146,1,twoone
,,,,,,6070b67d921b68125705efd6,62bbfb8a6e16f86e54766a03,2022-06-29_09h14.52.812,Colour_Asymmetry_Pilot,2022.1.3,Win32,60.04924038,62bbe60bf3d75ef465d3e404,0,40,40,77,1,threefour
,,,,,,6070b67d921b68125705efd6,62bbfb8a6e16f86e54766a03,2022-06-29_09h14.52.812,Colour_Asymmetry_Pilot,2022.1.3,Win32,60.04924038,62bbe60bf3d75ef465d3e404,0,41,41,56,1,onetwo
,,,,,,6070b67d921b68125705efd6,62bbfb8a6e16f86e54766a03,2022-06-29_09h14.52.812,Colour_Asymmetry_Pilot,2022.1.3,Win32,60.04924038,62bbe60bf3d75ef465d3e404,0,42,42,14,1,fourtwo
,,,,,,6070b67d921b68125705efd6,62bbfb8a6e16f86e54766a03,2022-06-29_09h14.52.812,Colour_Asymmetry_Pilot,2022.1.3,Win32,60.04924038,62bbe60bf3d75ef465d3e404,0,43,43,98,1,twoone
,,,,,,6070b67d921b68125705efd6,62bbfb8a6e16f86e54766a03,2022-06-29_09h14.52.812,Colour_Asymmetry_Pilot,2022.1.3,Win32,60.04924038,62bbe60bf3d75ef465d3e404,0,44,44,114,1,twoone
,,,,,,6070b67d921b68125705efd6,62bbfb8a6e16f86e54766a03,2022-06-29_09h14.52.812,Colour_Asymmetry_Pilot,2022.1.3,Win32,60.04924038,62bbe60bf3d75ef465d3e404,0,45,45,23,1,fourthree
,,,,,,6070b67d921b68125705efd6,62bbfb8a6e16f86e54766a03,2022-06-29_09h14.52.812,Colour_Asymmetry_Pilot,2022.1.3,Win32,60.04924038,62bbe60bf3d75ef465d3e404,0,46,46,79,1,fourthree
,,,,,,6070b67d921b68125705efd6,62bbfb8a6e16f86e54766a03,2022-06-29_09h14.52.812,Colour_Asymmetry_Pilot,2022.1.3,Win32,60.04924038,62bbe60bf3d75ef465d3e404,0,47,47,49,1,onethree
,,,,,,6070b67d921b68125705efd6,62bbfb8a6e16f86e54766a03,2022-06-29_09h14.52.812,Colour_Asymmetry_Pilot,2022.1.3,Win32,60.04924038,62bbe60bf3d75ef465d3e404,0,48,48,118,1,fourtwo
,,,,,,6070b67d921b68125705efd6,62bbfb8a6e16f86e54766a03,2022-06-29_09h14.52.812,Colour_Asymmetry_Pilot,2022.1.3,Win32,60.04924038,62bbe60bf3d75ef465d3e404,0,49,49,109,1,threefour
,,,,,,6070b67d921b68125705efd6,62bbfb8a6e16f86e54766a03,2022-06-29_09h14.52.812,Colour_Asymmetry_Pilot,2022.1.3,Win32,60.04924038,62bbe60bf3d75ef465d3e404,0,50,50,106,1,twoone
,,,,,,6070b67d921b68125705efd6,62bbfb8a6e16f86e54766a03,2022-06-29_09h14.52.812,Colour_Asymmetry_Pilot,2022.1.3,Win32,60.04924038,62bbe60bf3d75ef465d3e404,0,51,51,30,1,fourtwo
,,,,,,6070b67d921b68125705efd6,62bbfb8a6e16f86e54766a03,2022-06-29_09h14.52.812,Colour_Asymmetry_Pilot,2022.1.3,Win32,60.04924038,62bbe60bf3d75ef465d3e404,0,52,52,3,1,twofour
,,,,,,6070b67d921b68125705efd6,62bbfb8a6e16f86e54766a03,2022-06-29_09h14.52.812,Colour_Asymmetry_Pilot,2022.1.3,Win32,60.04924038,62bbe60bf3d75ef465d3e404,0,53,53,71,1,fourthree
,,,,,,6070b67d921b68125705efd6,62bbfb8a6e16f86e54766a03,2022-06-29_09h14.52.812,Colour_Asymmetry_Pilot,2022.1.3,Win32,60.04924038,62bbe60bf3d75ef465d3e404,0,54,54,152,1,onetwo
,,,,,,6070b67d921b68125705efd6,62bbfb8a6e16f86e54766a03,2022-06-29_09h14.52.812,Colour_Asymmetry_Pilot,2022.1.3,Win32,60.04924038,62bbe60bf3d75ef465d3e404,0,55,55,25,1,onethree
,,,,,,6070b67d921b68125705efd6,62bbfb8a6e16f86e54766a03,2022-06-29_09h14.52.812,Colour_Asymmetry_Pilot,2022.1.3,Win32,60.04924038,62bbe60bf3d75ef465d3e404,0,56,56,147,1,twofour
,,,,,,6070b67d921b68125705efd6,62bbfb8a6e16f86e54766a03,2022-06-29_09h14.52.812,Colour_Asymmetry_Pilot,2022.1.3,Win32,60.04924038,62bbe60bf3d75ef465d3e404,0,57,57,33,1,onethree
,,,,,,6070b67d921b68125705efd6,62bbfb8a6e16f86e54766a03,2022-06-29_09h14.52.812,Colour_Asymmetry_Pilot,2022.1.3,Win32,60.04924038,62bbe60bf3d75ef465d3e404,0,58,58,46,1,fourtwo
,,,,,,6070b67d921b68125705efd6,62bbfb8a6e16f86e54766a03,2022-06-29_09h14.52.812,Colour_Asymmetry_Pilot,2022.1.3,Win32,60.04924038,62bbe60bf3d75ef465d3e404,0,59,59,125,1,threefour
,,,,,,6070b67d921b68125705efd6,62bbfb8a6e16f86e54766a03,2022-06-29_09h14.52.812,Colour_Asymmetry_Pilot,2022.1.3,Win32,60.04924038,62bbe60bf3d75ef465d3e404,0,60,60,65,1,onethree
,,,,,,6070b67d921b68125705efd6,62bbfb8a6e16f86e54766a03,2022-06-29_09h14.52.812,Colour_Asymmetry_Pilot,2022.1.3,Win32,60.04924038,62bbe60bf3d75ef465d3e404,0,61,61,155,1,twofour
,,,,,,6070b67d921b68125705efd6,62bbfb8a6e16f86e54766a03,2022-06-29_09h14.52.812,Colour_Asymmetry_Pilot,2022.1.3,Win32,60.04924038,62bbe60bf3d75ef465d3e404,0,62,62,92,1,threeone
,,,,,,6070b67d921b68125705efd6,62bbfb8a6e16f86e54766a03,2022-06-29_09h14.52.812,Colour_Asymmetry_Pilot,2022.1.3,Win32,60.04924038,62bbe60bf3d75ef465d3e404,0,63,63,144,1,onetwo
,,,,,,6070b67d921b68125705efd6,62bbfb8a6e16f86e54766a03,2022-06-29_09h14.52.812,Colour_Asymmetry_Pilot,2022.1.3,Win32,60.04924038,62bbe60bf3d75ef465d3e404,0,64,64,123,1,twofour
,,,,,,6070b67d921b68125705efd6,62bbfb8a6e16f86e54766a03,2022-06-29_09h14.52.812,Colour_Asymmetry_Pilot,2022.1.3,Win32,60.04924038,62bbe60bf3d75ef465d3e404,0,65,65,16,1,onetwo
,,,,,,6070b67d921b68125705efd6,62bbfb8a6e16f86e54766a03,2022-06-29_09h14.52.812,Colour_Asymmetry_Pilot,2022.1.3,Win32,60.04924038,62bbe60bf3d75ef465d3e404,0,66,66,126,1,fourtwo
,,,,,,6070b67d921b68125705efd6,62bbfb8a6e16f86e54766a03,2022-06-29_09h14.52.812,Colour_Asymmetry_Pilot,2022.1.3,Win32,60.04924038,62bbe60bf3d75ef465d3e404,0,67,67,12,1,threeone
,,,,,,6070b67d921b68125705efd6,62bbfb8a6e16f86e54766a03,2022-06-29_09h14.52.812,Colour_Asymmetry_Pilot,2022.1.3,Win32,60.04924038,62bbe60bf3d75ef465d3e404,0,68,68,96,1,onetwo
,,,,,,6070b67d921b68125705efd6,62bbfb8a6e16f86e54766a03,2022-06-29_09h14.52.812,Colour_Asymmetry_Pilot,2022.1.3,Win32,60.04924038,62bbe60bf3d75ef465d3e404,0,69,69,108,1,threeone
,,,,,,6070b67d921b68125705efd6,62bbfb8a6e16f86e54766a03,2022-06-29_09h14.52.812,Colour_Asymmetry_Pilot,2022.1.3,Win32,60.04924038,62bbe60bf3d75ef465d3e404,0,70,70,110,1,fourtwo
,,,,,,6070b67d921b68125705efd6,62bbfb8a6e16f86e54766a03,2022-06-29_09h14.52.812,Colour_Asymmetry_Pilot,2022.1.3,Win32,60.04924038,62bbe60bf3d75ef465d3e404,0,71,71,37,1,threefour
,,,,,,6070b67d921b68125705efd6,62bbfb8a6e16f86e54766a03,2022-06-29_09h14.52.812,Colour_Asymmetry_Pilot,2022.1.3,Win32,60.04924038,62bbe60bf3d75ef465d3e404,0,72,72,83,1,twofour
,,,,,,6070b67d921b68125705efd6,62bbfb8a6e16f86e54766a03,2022-06-29_09h14.52.812,Colour_Asymmetry_Pilot,2022.1.3,Win32,60.04924038,62bbe60bf3d75ef465d3e404,0,73,73,20,1,threeone
,,,,,,6070b67d921b68125705efd6,62bbfb8a6e16f86e54766a03,2022-06-29_09h14.52.812,Colour_Asymmetry_Pilot,2022.1.3,Win32,60.04924038,62bbe60bf3d75ef465d3e404,0,74,74,103,1,fourthree
,,,,,,6070b67d921b68125705efd6,62bbfb8a6e16f86e54766a03,2022-06-29_09h14.52.812,Colour_Asymmetry_Pilot,2022.1.3,Win32,60.04924038,62bbe60bf3d75ef465d3e404,0,75,75,35,1,twofour
,,,,,,6070b67d921b68125705efd6,62bbfb8a6e16f86e54766a03,2022-06-29_09h14.52.812,Colour_Asymmetry_Pilot,2022.1.3,Win32,60.04924038,62bbe60bf3d75ef465d3e404,0,76,76,158,1,fourtwo
,,,,,,6070b67d921b68125705efd6,62bbfb8a6e16f86e54766a03,2022-06-29_09h14.52.812,Colour_Asymmetry_Pilot,2022.1.3,Win32,60.04924038,62bbe60bf3d75ef465d3e404,0,77,77,132,1,threeone
,,,,,,6070b67d921b68125705efd6,62bbfb8a6e16f86e54766a03,2022-06-29_09h14.52.812,Colour_Asymmetry_Pilot,2022.1.3,Win32,60.04924038,62bbe60bf3d75ef465d3e404,0,78,78,100,1,threeone
,,,,,,6070b67d921b68125705efd6,62bbfb8a6e16f86e54766a03,2022-06-29_09h14.52.812,Colour_Asymmetry_Pilot,2022.1.3,Win32,60.04924038,62bbe60bf3d75ef465d3e404,0,79,79,64,1,onetwo
,,,,,,6070b67d921b68125705efd6,62bbfb8a6e16f86e54766a03,2022-06-29_09h14.52.812,Colour_Asymmetry_Pilot,2022.1.3,Win32,60.04924038,62bbe60bf3d75ef465d3e404,0,80,80,113,1,onethree
,,,,,,6070b67d921b68125705efd6,62bbfb8a6e16f86e54766a03,2022-06-29_09h14.52.812,Colour_Asymmetry_Pilot,2022.1.3,Win32,60.04924038,62bbe60bf3d75ef465d3e404,0,81,81,81,1,onethree
,,,,,,6070b67d921b68125705efd6,62bbfb8a6e16f86e54766a03,2022-06-29_09h14.52.812,Colour_Asymmetry_Pilot,2022.1.3,Win32,60.04924038,62bbe60bf3d75ef465d3e404,0,82,82,68,1,threeone
,,,,,,6070b67d921b68125705efd6,62bbfb8a6e16f86e54766a03,2022-06-29_09h14.52.812,Colour_Asymmetry_Pilot,2022.1.3,Win32,60.04924038,62bbe60bf3d75ef465d3e404,0,83,83,99,1,twofour
,,,,,,6070b67d921b68125705efd6,62bbfb8a6e16f86e54766a03,2022-06-29_09h14.52.812,Colour_Asymmetry_Pilot,2022.1.3,Win32,60.04924038,62bbe60bf3d75ef465d3e404,0,84,84,85,1,threefour
,,,,,,6070b67d921b68125705efd6,62bbfb8a6e16f86e54766a03,2022-06-29_09h14.52.812,Colour_Asymmetry_Pilot,2022.1.3,Win32,60.04924038,62bbe60bf3d75ef465d3e404,0,85,85,5,1,threefour
,,,,,,6070b67d921b68125705efd6,62bbfb8a6e16f86e54766a03,2022-06-29_09h14.52.812,Colour_Asymmetry_Pilot,2022.1.3,Win32,60.04924038,62bbe60bf3d75ef465d3e404,0,86,86,6,1,fourtwo
,,,,,,6070b67d921b68125705efd6,62bbfb8a6e16f86e54766a03,2022-06-29_09h14.52.812,Colour_Asymmetry_Pilot,2022.1.3,Win32,60.04924038,62bbe60bf3d75ef465d3e404,0,87,87,42,1,twoone
,,,,,,6070b67d921b68125705efd6,62bbfb8a6e16f86e54766a03,2022-06-29_09h14.52.812,Colour_Asymmetry_Pilot,2022.1.3,Win32,60.04924038,62bbe60bf3d75ef465d3e404,0,88,88,133,1,threefour
,,,,,,6070b67d921b68125705efd6,62bbfb8a6e16f86e54766a03,2022-06-29_09h14.52.812,Colour_Asymmetry_Pilot,2022.1.3,Win32,60.04924038,62bbe60bf3d75ef465d3e404,0,89,89,69,1,threefour
,,,,,,6070b67d921b68125705efd6,62bbfb8a6e16f86e54766a03,2022-06-29_09h14.52.812,Colour_Asymmetry_Pilot,2022.1.3,Win32,60.04924038,62bbe60bf3d75ef465d3e404,0,90,90,36,1,threeone
,,,,,,6070b67d921b68125705efd6,62bbfb8a6e16f86e54766a03,2022-06-29_09h14.52.812,Colour_Asymmetry_Pilot,2022.1.3,Win32,60.04924038,62bbe60bf3d75ef465d3e404,0,91,91,22,1,fourtwo
,,,,,,6070b67d921b68125705efd6,62bbfb8a6e16f86e54766a03,2022-06-29_09h14.52.812,Colour_Asymmetry_Pilot,2022.1.3,Win32,60.04924038,62bbe60bf3d75ef465d3e404,0,92,92,86,1,fourtwo
,,,,,,6070b67d921b68125705efd6,62bbfb8a6e16f86e54766a03,2022-06-29_09h14.52.812,Colour_Asymmetry_Pilot,2022.1.3,Win32,60.04924038,62bbe60bf3d75ef465d3e404,0,93,93,137,1,onethree
,,,,,,6070b67d921b68125705efd6,62bbfb8a6e16f86e54766a03,2022-06-29_09h14.52.812,Colour_Asymmetry_Pilot,2022.1.3,Win32,60.04924038,62bbe60bf3d75ef465d3e404,0,94,94,27,1,twofour
,,,,,,6070b67d921b68125705efd6,62bbfb8a6e16f86e54766a03,2022-06-29_09h14.52.812,Colour_Asymmetry_Pilot,2022.1.3,Win32,60.04924038,62bbe60bf3d75ef465d3e404,0,95,95,135,1,fourthree
,,,,,,6070b67d921b68125705efd6,62bbfb8a6e16f86e54766a03,2022-06-29_09h14.52.812,Colour_Asymmetry_Pilot,2022.1.3,Win32,60.04924038,62bbe60bf3d75ef465d3e404,0,96,96,11,1,twofour
,,,,,,6070b67d921b68125705efd6,62bbfb8a6e16f86e54766a03,2022-06-29_09h14.52.812,Colour_Asymmetry_Pilot,2022.1.3,Win32,60.04924038,62bbe60bf3d75ef465d3e404,0,97,97,89,1,onethree
,,,,,,6070b67d921b68125705efd6,62bbfb8a6e16f86e54766a03,2022-06-29_09h14.52.812,Colour_Asymmetry_Pilot,2022.1.3,Win32,60.04924038,62bbe60bf3d75ef465d3e404,0,98,98,10,1,twoone
,,,,,,6070b67d921b68125705efd6,62bbfb8a6e16f86e54766a03,2022-06-29_09h14.52.812,Colour_Asymmetry_Pilot,2022.1.3,Win32,60.04924038,62bbe60bf3d75ef465d3e404,0,99,99,57,1,onethree
,,,,,,6070b67d921b68125705efd6,62bbfb8a6e16f86e54766a03,2022-06-29_09h14.52.812,Colour_Asymmetry_Pilot,2022.1.3,Win32,60.04924038,62bbe60bf3d75ef465d3e404,0,100,100,50,1,twoone
,,,,,,6070b67d921b68125705efd6,62bbfb8a6e16f86e54766a03,2022-06-29_09h14.52.812,Colour_Asymmetry_Pilot,2022.1.3,Win32,60.04924038,62bbe60bf3d75ef465d3e404,0,101,101,75,1,twofour
,,,,,,6070b67d921b68125705efd6,62bbfb8a6e16f86e54766a03,2022-06-29_09h14.52.812,Colour_Asymmetry_Pilot,2022.1.3,Win32,60.04924038,62bbe60bf3d75ef465d3e404,0,102,102,78,1,fourtwo
,,,,,,6070b67d921b68125705efd6,62bbfb8a6e16f86e54766a03,2022-06-29_09h14.52.812,Colour_Asymmetry_Pilot,2022.1.3,Win32,60.04924038,62bbe60bf3d75ef465d3e404,0,103,103,32,1,onetwo
,,,,,,6070b67d921b68125705efd6,62bbfb8a6e16f86e54766a03,2022-06-29_09h14.52.812,Colour_Asymmetry_Pilot,2022.1.3,Win32,60.04924038,62bbe60bf3d75ef465d3e404,0,104,104,82,1,twoone
,,,,,,6070b67d921b68125705efd6,62bbfb8a6e16f86e54766a03,2022-06-29_09h14.52.812,Colour_Asymmetry_Pilot,2022.1.3,Win32,60.04924038,62bbe60bf3d75ef465d3e404,0,105,105,24,1,onetwo
,,,,,,6070b67d921b68125705efd6,62bbfb8a6e16f86e54766a03,2022-06-29_09h14.52.812,Colour_Asymmetry_Pilot,2022.1.3,Win32,60.04924038,62bbe60bf3d75ef465d3e404,0,106,106,48,1,onetwo
,,,,,,6070b67d921b68125705efd6,62bbfb8a6e16f86e54766a03,2022-06-29_09h14.52.812,Colour_Asymmetry_Pilot,2022.1.3,Win32,60.04924038,62bbe60bf3d75ef465d3e404,0,107,107,80,1,onetwo
,,,,,,6070b67d921b68125705efd6,62bbfb8a6e16f86e54766a03,2022-06-29_09h14.52.812,Colour_Asymmetry_Pilot,2022.1.3,Win32,60.04924038,62bbe60bf3d75ef465d3e404,0,108,108,40,1,onetwo
,,,,,,6070b67d921b68125705efd6,62bbfb8a6e16f86e54766a03,2022-06-29_09h14.52.812,Colour_Asymmetry_Pilot,2022.1.3,Win32,60.04924038,62bbe60bf3d75ef465d3e404,0,109,109,47,1,fourthree
,,,,,,6070b67d921b68125705efd6,62bbfb8a6e16f86e54766a03,2022-06-29_09h14.52.812,Colour_Asymmetry_Pilot,2022.1.3,Win32,60.04924038,62bbe60bf3d75ef465d3e404,0,110,110,70,1,fourtwo
,,,,,,6070b67d921b68125705efd6,62bbfb8a6e16f86e54766a03,2022-06-29_09h14.52.812,Colour_Asymmetry_Pilot,2022.1.3,Win32,60.04924038,62bbe60bf3d75ef465d3e404,0,111,111,1,1,onethree
,,,,,,6070b67d921b68125705efd6,62bbfb8a6e16f86e54766a03,2022-06-29_09h14.52.812,Colour_Asymmetry_Pilot,2022.1.3,Win32,60.04924038,62bbe60bf3d75ef465d3e404,0,112,112,67,1,twofour
,,,,,,6070b67d921b68125705efd6,62bbfb8a6e16f86e54766a03,2022-06-29_09h14.52.812,Colour_Asymmetry_Pilot,2022.1.3,Win32,60.04924038,62bbe60bf3d75ef465d3e404,0,113,113,116,1,threeone
,,,,,,6070b67d921b68125705efd6,62bbfb8a6e16f86e54766a03,2022-06-29_09h14.52.812,Colour_Asymmetry_Pilot,2022.1.3,Win32,60.04924038,62bbe60bf3d75ef465d3e404,0,114,114,88,1,onetwo
,,,,,,6070b67d921b68125705efd6,62bbfb8a6e16f86e54766a03,2022-06-29_09h14.52.812,Colour_Asymmetry_Pilot,2022.1.3,Win32,60.04924038,62bbe60bf3d75ef465d3e404,0,115,115,18,1,twoone
,,,,,,6070b67d921b68125705efd6,62bbfb8a6e16f86e54766a03,2022-06-29_09h14.52.812,Colour_Asymmetry_Pilot,2022.1.3,Win32,60.04924038,62bbe60bf3d75ef465d3e404,0,116,116,111,1,fourthree
,,,,,,6070b67d921b68125705efd6,62bbfb8a6e16f86e54766a03,2022-06-29_09h14.52.812,Colour_Asymmetry_Pilot,2022.1.3,Win32,60.04924038,62bbe60bf3d75ef465d3e404,0,117,117,107,1,twofour
,,,,,,6070b67d921b68125705efd6,62bbfb8a6e16f86e54766a03,2022-06-29_09h14.52.812,Colour_Asymmetry_Pilot,2022.1.3,Win32,60.04924038,62bbe60bf3d75ef465d3e404,0,118,118,87,1,fourthree
,,,,,,6070b67d921b68125705efd6,62bbfb8a6e16f86e54766a03,2022-06-29_09h14.52.812,Colour_Asymmetry_Pilot,2022.1.3,Win32,60.04924038,62bbe60bf3d75ef465d3e404,0,119,119,131,1,twofour
,,,,,,6070b67d921b68125705efd6,62bbfb8a6e16f86e54766a03,2022-06-29_09h14.52.812,Colour_Asymmetry_Pilot,2022.1.3,Win32,60.04924038,62bbe60bf3d75ef465d3e404,0,120,120,60,1,threeone
,,,,,,6070b67d921b68125705efd6,62bbfb8a6e16f86e54766a03,2022-06-29_09h14.52.812,Colour_Asymmetry_Pilot,2022.1.3,Win32,60.04924038,62bbe60bf3d75ef465d3e404,0,121,121,143,1,fourthree
,,,,,,6070b67d921b68125705efd6,62bbfb8a6e16f86e54766a03,2022-06-29_09h14.52.812,Colour_Asymmetry_Pilot,2022.1.3,Win32,60.04924038,62bbe60bf3d75ef465d3e404,0,122,122,95,1,fourthree
,,,,,,6070b67d921b68125705efd6,62bbfb8a6e16f86e54766a03,2022-06-29_09h14.52.812,Colour_Asymmetry_Pilot,2022.1.3,Win32,60.04924038,62bbe60bf3d75ef465d3e404,0,123,123,138,1,twoone
,,,,,,6070b67d921b68125705efd6,62bbfb8a6e16f86e54766a03,2022-06-29_09h14.52.812,Colour_Asymmetry_Pilot,2022.1.3,Win32,60.04924038,62bbe60bf3d75ef465d3e404,0,124,124,39,1,fourthree
,,,,,,6070b67d921b68125705efd6,62bbfb8a6e16f86e54766a03,2022-06-29_09h14.52.812,Colour_Asymmetry_Pilot,2022.1.3,Win32,60.04924038,62bbe60bf3d75ef465d3e404,0,125,125,119,1,fourthree
,,,,,,6070b67d921b68125705efd6,62bbfb8a6e16f86e54766a03,2022-06-29_09h14.52.812,Colour_Asymmetry_Pilot,2022.1.3,Win32,60.04924038,62bbe60bf3d75ef465d3e404,0,126,126,76,1,threeone
,,,,,,6070b67d921b68125705efd6,62bbfb8a6e16f86e54766a03,2022-06-29_09h14.52.812,Colour_Asymmetry_Pilot,2022.1.3,Win32,60.04924038,62bbe60bf3d75ef465d3e404,0,127,127,66,1,twoone
,,,,,,6070b67d921b68125705efd6,62bbfb8a6e16f86e54766a03,2022-06-29_09h14.52.812,Colour_Asymmetry_Pilot,2022.1.3,Win32,60.04924038,62bbe60bf3d75ef465d3e404,0,128,128,53,1,threefour
,,,,,,6070b67d921b68125705efd6,62bbfb8a6e16f86e54766a03,2022-06-29_09h14.52.812,Colour_Asymmetry_Pilot,2022.1.3,Win32,60.04924038,62bbe60bf3d75ef465d3e404,0,129,129,142,1,fourtwo
,,,,,,6070b67d921b68125705efd6,62bbfb8a6e16f86e54766a03,2022-06-29_09h14.52.812,Colour_Asymmetry_Pilot,2022.1.3,Win32,60.04924038,62bbe60bf3d75ef465d3e404,0,130,130,72,1,onetwo
,,,,,,6070b67d921b68125705efd6,62bbfb8a6e16f86e54766a03,2022-06-29_09h14.52.812,Colour_Asymmetry_Pilot,2022.1.3,Win32,60.04924038,62bbe60bf3d75ef465d3e404,0,131,131,8,1,onetwo
,,,,,,6070b67d921b68125705efd6,62bbfb8a6e16f86e54766a03,2022-06-29_09h14.52.812,Colour_Asymmetry_Pilot,2022.1.3,Win32,60.04924038,62bbe60bf3d75ef465d3e404,0,132,132,4,1,threeone
,,,,,,6070b67d921b68125705efd6,62bbfb8a6e16f86e54766a03,2022-06-29_09h14.52.812,Colour_Asymmetry_Pilot,2022.1.3,Win32,60.04924038,62bbe60bf3d75ef465d3e404,0,133,133,160,1,onetwo
,,,,,,6070b67d921b68125705efd6,62bbfb8a6e16f86e54766a03,2022-06-29_09h14.52.812,Colour_Asymmetry_Pilot,2022.1.3,Win32,60.04924038,62bbe60bf3d75ef465d3e404,0,134,134,157,1,threefour
,,,,,,6070b67d921b68125705efd6,62bbfb8a6e16f86e54766a03,2022-06-29_09h14.52.812,Colour_Asymmetry_Pilot,2022.1.3,Win32,60.04924038,62bbe60bf3d75ef465d3e404,0,135,135,122,1,twoone
,,,,,,6070b67d921b68125705efd6,62bbfb8a6e16f86e54766a03,2022-06-29_09h14.52.812,Colour_Asymmetry_Pilot,2022.1.3,Win32,60.04924038,62bbe60bf3d75ef465d3e404,0,136,136,130,1,twoone
,,,,,,6070b67d921b68125705efd6,62bbfb8a6e16f86e54766a03,2022-06-29_09h14.52.812,Colour_Asymmetry_Pilot,2022.1.3,Win32,60.04924038,62bbe60bf3d75ef465d3e404,0,137,137,141,1,threefour
,,,,,,6070b67d921b68125705efd6,62bbfb8a6e16f86e54766a03,2022-06-29_09h14.52.812,Colour_Asymmetry_Pilot,2022.1.3,Win32,60.04924038,62bbe60bf3d75ef465d3e404,0,138,138,2,1,twoone
,,,,,,6070b67d921b68125705efd6,62bbfb8a6e16f86e54766a03,2022-06-29_09h14.52.812,Colour_Asymmetry_Pilot,2022.1.3,Win32,60.04924038,62bbe60bf3d75ef465d3e404,0,139,139,26,1,twoone
,,,,,,6070b67d921b68125705efd6,62bbfb8a6e16f86e54766a03,2022-06-29_09h14.52.812,Colour_Asymmetry_Pilot,2022.1.3,Win32,60.04924038,62bbe60bf3d75ef465d3e404,0,140,140,94,1,fourtwo
,,,,,,6070b67d921b68125705efd6,62bbfb8a6e16f86e54766a03,2022-06-29_09h14.52.812,Colour_Asymmetry_Pilot,2022.1.3,Win32,60.04924038,62bbe60bf3d75ef465d3e404,0,141,141,156,1,threeone
,,,,,,6070b67d921b68125705efd6,62bbfb8a6e16f86e54766a03,2022-06-29_09h14.52.812,Colour_Asymmetry_Pilot,2022.1.3,Win32,60.04924038,62bbe60bf3d75ef465d3e404,0,142,142,13,1,threefour
,,,,,,6070b67d921b68125705efd6,62bbfb8a6e16f86e54766a03,2022-06-29_09h14.52.812,Colour_Asymmetry_Pilot,2022.1.3,Win32,60.04924038,62bbe60bf3d75ef465d3e404,0,143,143,43,1,twofour
,,,,,,6070b67d921b68125705efd6,62bbfb8a6e16f86e54766a03,2022-06-29_09h14.52.812,Colour_Asymmetry_Pilot,2022.1.3,Win32,60.04924038,62bbe60bf3d75ef465d3e404,0,144,144,105,1,onethree
,,,,,,6070b67d921b68125705efd6,62bbfb8a6e16f86e54766a03,2022-06-29_09h14.52.812,Colour_Asymmetry_Pilot,2022.1.3,Win32,60.04924038,62bbe60bf3d75ef465d3e404,0,145,145,149,1,threefour
,,,,,,6070b67d921b68125705efd6,62bbfb8a6e16f86e54766a03,2022-06-29_09h14.52.812,Colour_Asymmetry_Pilot,2022.1.3,Win32,60.04924038,62bbe60bf3d75ef465d3e404,0,146,146,28,1,threeone
,,,,,,6070b67d921b68125705efd6,62bbfb8a6e16f86e54766a03,2022-06-29_09h14.52.812,Colour_Asymmetry_Pilot,2022.1.3,Win32,60.04924038,62bbe60bf3d75ef465d3e404,0,147,147,117,1,threefour
,,,,,,6070b67d921b68125705efd6,62bbfb8a6e16f86e54766a03,2022-06-29_09h14.52.812,Colour_Asymmetry_Pilot,2022.1.3,Win32,60.04924038,62bbe60bf3d75ef465d3e404,0,148,148,150,1,fourtwo
,,,,,,6070b67d921b68125705efd6,62bbfb8a6e16f86e54766a03,2022-06-29_09h14.52.812,Colour_Asymmetry_Pilot,2022.1.3,Win32,60.04924038,62bbe60bf3d75ef465d3e404,0,149,149,90,1,twoone
,,,,,,6070b67d921b68125705efd6,62bbfb8a6e16f86e54766a03,2022-06-29_09h14.52.812,Colour_Asymmetry_Pilot,2022.1.3,Win32,60.04924038,62bbe60bf3d75ef465d3e404,0,150,150,61,1,threefour
,,,,,,6070b67d921b68125705efd6,62bbfb8a6e16f86e54766a03,2022-06-29_09h14.52.812,Colour_Asymmetry_Pilot,2022.1.3,Win32,60.04924038,62bbe60bf3d75ef465d3e404,0,151,151,101,1,threefour
,,,,,,6070b67d921b68125705efd6,62bbfb8a6e16f86e54766a03,2022-06-29_09h14.52.812,Colour_Asymmetry_Pilot,2022.1.3,Win32,60.04924038,62bbe60bf3d75ef465d3e404,0,152,152,34,1,twoone
,,,,,,6070b67d921b68125705efd6,62bbfb8a6e16f86e54766a03,2022-06-29_09h14.52.812,Colour_Asymmetry_Pilot,2022.1.3,Win32,60.04924038,62bbe60bf3d75ef465d3e404,0,153,153,19,1,twofour
,,,,,,6070b67d921b68125705efd6,62bbfb8a6e16f86e54766a03,2022-06-29_09h14.52.812,Colour_Asymmetry_Pilot,2022.1.3,Win32,60.04924038,62bbe60bf3d75ef465d3e404,0,154,154,17,1,onethree
,,,,,,6070b67d921b68125705efd6,62bbfb8a6e16f86e54766a03,2022-06-29_09h14.52.812,Colour_Asymmetry_Pilot,2022.1.3,Win32,60.04924038,62bbe60bf3d75ef465d3e404,0,155,155,62,1,fourtwo
,,,,,,6070b67d921b68125705efd6,62bbfb8a6e16f86e54766a03,2022-06-29_09h14.52.812,Colour_Asymmetry_Pilot,2022.1.3,Win32,60.04924038,62bbe60bf3d75ef465d3e404,0,156,156,115,1,twofour
,,,,,,6070b67d921b68125705efd6,62bbfb8a6e16f86e54766a03,2022-06-29_09h14.52.812,Colour_Asymmetry_Pilot,2022.1.3,Win32,60.04924038,62bbe60bf3d75ef465d3e404,0,157,157,55,1,fourthree
,,,,,,6070b67d921b68125705efd6,62bbfb8a6e16f86e54766a03,2022-06-29_09h14.52.812,Colour_Asymmetry_Pilot,2022.1.3,Win32,60.04924038,62bbe60bf3d75ef465d3e404,0,158,158,41,1,onethree
,,,,,,6070b67d921b68125705efd6,62bbfb8a6e16f86e54766a03,2022-06-29_09h14.52.812,Colour_Asymmetry_Pilot,2022.1.3,Win32,60.04924038,62bbe60bf3d75ef465d3e404,0,159,159,58,1,twoone
,,,,,,6070b67d921b68125705efd6,62bbfb8a6e16f86e54766a03,2022-06-29_09h14.52.812,Colour_Asymmetry_Pilot,2022.1.3,Win32,60.04924038,62bbe60bf3d75ef465d3e404,0,160,160,15,1,fourthree
,,,,,,6070b67d921b68125705efd6,62bbfb8a6e16f86e54766a03,2022-06-29_09h14.52.812,Colour_Asymmetry_Pilot,2022.1.3,Win32,60.04924038,62bbe60bf3d75ef465d3e404,0,161,161,38,1,fourtwo
