trials.thisRepN,trials.thisTrialN,trials.thisN,trials.thisIndex,trials.ran,Colourcodes,participant,session,date,expName,psychopyVersion,OS,frameRate,study_id,trials_4.thisRepN,trials_4.thisTrialN,trials_4.thisN,trials_4.thisIndex,trials_4.ran,StimulusPos,key_resp.keys,key_resp.rt,key_resp_2.keys,key_resp_2.rt,key_resp_15.keys,key_resp_15.rt,key_resp_17.keys,key_resp_17.rt,key_resp_9.keys,key_resp_9.rt
0,0,0,14,1,,5f91976a948f570115a30933,62bbfa2fd1527db7dc8c9419,2022-06-29_09h09.40.907,Colour_Asymmetry_Pilot,2022.1.3,Win32,60.0240096,62bbe60bf3d75ef465d3e404,,,,,,,,,,,,,,,,
0,1,1,36,1,,5f91976a948f570115a30933,62bbfa2fd1527db7dc8c9419,2022-06-29_09h09.40.907,Colour_Asymmetry_Pilot,2022.1.3,Win32,60.0240096,62bbe60bf3d75ef465d3e404,,,,,,,,,,,,,,,,
0,2,2,18,1,,5f91976a948f570115a30933,62bbfa2fd1527db7dc8c9419,2022-06-29_09h09.40.907,Colour_Asymmetry_Pilot,2022.1.3,Win32,60.0240096,62bbe60bf3d75ef465d3e404,,,,,,,,,,,,,,,,
0,3,3,10,1,,5f91976a948f570115a30933,62bbfa2fd1527db7dc8c9419,2022-06-29_09h09.40.907,Colour_Asymmetry_Pilot,2022.1.3,Win32,60.0240096,62bbe60bf3d75ef465d3e404,,,,,,,,,,,,,,,,
0,4,4,64,1,,5f91976a948f570115a30933,62bbfa2fd1527db7dc8c9419,2022-06-29_09h09.40.907,Colour_Asymmetry_Pilot,2022.1.3,Win32,60.0240096,62bbe60bf3d75ef465d3e404,,,,,,,,,,,,,,,,
0,5,5,58,1,,5f91976a948f570115a30933,62bbfa2fd1527db7dc8c9419,2022-06-29_09h09.40.907,Colour_Asymmetry_Pilot,2022.1.3,Win32,60.0240096,62bbe60bf3d75ef465d3e404,,,,,,,,,,,,,,,,
0,6,6,55,1,,5f91976a948f570115a30933,62bbfa2fd1527db7dc8c9419,2022-06-29_09h09.40.907,Colour_Asymmetry_Pilot,2022.1.3,Win32,60.0240096,62bbe60bf3d75ef465d3e404,,,,,,,,,,,,,,,,
0,7,7,44,1,,5f91976a948f570115a30933,62bbfa2fd1527db7dc8c9419,2022-06-29_09h09.40.907,Colour_Asymmetry_Pilot,2022.1.3,Win32,60.0240096,62bbe60bf3d75ef465d3e404,,,,,,,,,,,,,,,,
0,8,8,19,1,,5f91976a948f570115a30933,62bbfa2fd1527db7dc8c9419,2022-06-29_09h09.40.907,Colour_Asymmetry_Pilot,2022.1.3,Win32,60.0240096,62bbe60bf3d75ef465d3e404,,,,,,,,,,,,,,,,
0,9,9,81,1,,5f91976a948f570115a30933,62bbfa2fd1527db7dc8c9419,2022-06-29_09h09.40.907,Colour_Asymmetry_Pilot,2022.1.3,Win32,60.0240096,62bbe60bf3d75ef465d3e404,,,,,,,,,,,,,,,,
0,10,10,40,1,,5f91976a948f570115a30933,62bbfa2fd1527db7dc8c9419,2022-06-29_09h09.40.907,Colour_Asymmetry_Pilot,2022.1.3,Win32,60.0240096,62bbe60bf3d75ef465d3e404,,,,,,,,,,,,,,,,
0,11,11,60,1,,5f91976a948f570115a30933,62bbfa2fd1527db7dc8c9419,2022-06-29_09h09.40.907,Colour_Asymmetry_Pilot,2022.1.3,Win32,60.0240096,62bbe60bf3d75ef465d3e404,,,,,,,,,,,,,,,,
0,12,12,9,1,,5f91976a948f570115a30933,62bbfa2fd1527db7dc8c9419,2022-06-29_09h09.40.907,Colour_Asymmetry_Pilot,2022.1.3,Win32,60.0240096,62bbe60bf3d75ef465d3e404,,,,,,,,,,,,,,,,
0,13,13,83,1,,5f91976a948f570115a30933,62bbfa2fd1527db7dc8c9419,2022-06-29_09h09.40.907,Colour_Asymmetry_Pilot,2022.1.3,Win32,60.0240096,62bbe60bf3d75ef465d3e404,,,,,,,,,,,,,,,,
0,14,14,50,1,,5f91976a948f570115a30933,62bbfa2fd1527db7dc8c9419,2022-06-29_09h09.40.907,Colour_Asymmetry_Pilot,2022.1.3,Win32,60.0240096,62bbe60bf3d75ef465d3e404,,,,,,,,,,,,,,,,
0,15,15,42,1,,5f91976a948f570115a30933,62bbfa2fd1527db7dc8c9419,2022-06-29_09h09.40.907,Colour_Asymmetry_Pilot,2022.1.3,Win32,60.0240096,62bbe60bf3d75ef465d3e404,,,,,,,,,,,,,,,,
0,16,16,4,1,,5f91976a948f570115a30933,62bbfa2fd1527db7dc8c9419,2022-06-29_09h09.40.907,Colour_Asymmetry_Pilot,2022.1.3,Win32,60.0240096,62bbe60bf3d75ef465d3e404,,,,,,,,,,,,,,,,
0,17,17,52,1,,5f91976a948f570115a30933,62bbfa2fd1527db7dc8c9419,2022-06-29_09h09.40.907,Colour_Asymmetry_Pilot,2022.1.3,Win32,60.0240096,62bbe60bf3d75ef465d3e404,,,,,,,,,,,,,,,,
0,18,18,1,1,,5f91976a948f570115a30933,62bbfa2fd1527db7dc8c9419,2022-06-29_09h09.40.907,Colour_Asymmetry_Pilot,2022.1.3,Win32,60.0240096,62bbe60bf3d75ef465d3e404,,,,,,,,,,,,,,,,
0,19,19,35,1,,5f91976a948f570115a30933,62bbfa2fd1527db7dc8c9419,2022-06-29_09h09.40.907,Colour_Asymmetry_Pilot,2022.1.3,Win32,60.0240096,62bbe60bf3d75ef465d3e404,,,,,,,,,,,,,,,,
0,20,20,77,1,,5f91976a948f570115a30933,62bbfa2fd1527db7dc8c9419,2022-06-29_09h09.40.907,Colour_Asymmetry_Pilot,2022.1.3,Win32,60.0240096,62bbe60bf3d75ef465d3e404,,,,,,,,,,,,,,,,
0,21,21,17,1,,5f91976a948f570115a30933,62bbfa2fd1527db7dc8c9419,2022-06-29_09h09.40.907,Colour_Asymmetry_Pilot,2022.1.3,Win32,60.0240096,62bbe60bf3d75ef465d3e404,,,,,,,,,,,,,,,,
0,22,22,71,1,,5f91976a948f570115a30933,62bbfa2fd1527db7dc8c9419,2022-06-29_09h09.40.907,Colour_Asymmetry_Pilot,2022.1.3,Win32,60.0240096,62bbe60bf3d75ef465d3e404,,,,,,,,,,,,,,,,
0,23,23,56,1,,5f91976a948f570115a30933,62bbfa2fd1527db7dc8c9419,2022-06-29_09h09.40.907,Colour_Asymmetry_Pilot,2022.1.3,Win32,60.0240096,62bbe60bf3d75ef465d3e404,,,,,,,,,,,,,,,,
0,24,24,49,1,,5f91976a948f570115a30933,62bbfa2fd1527db7dc8c9419,2022-06-29_09h09.40.907,Colour_Asymmetry_Pilot,2022.1.3,Win32,60.0240096,62bbe60bf3d75ef465d3e404,,,,,,,,,,,,,,,,
0,25,25,74,1,,5f91976a948f570115a30933,62bbfa2fd1527db7dc8c9419,2022-06-29_09h09.40.907,Colour_Asymmetry_Pilot,2022.1.3,Win32,60.0240096,62bbe60bf3d75ef465d3e404,,,,,,,,,,,,,,,,
0,26,26,15,1,,5f91976a948f570115a30933,62bbfa2fd1527db7dc8c9419,2022-06-29_09h09.40.907,Colour_Asymmetry_Pilot,2022.1.3,Win32,60.0240096,62bbe60bf3d75ef465d3e404,,,,,,,,,,,,,,,,
0,27,27,86,1,,5f91976a948f570115a30933,62bbfa2fd1527db7dc8c9419,2022-06-29_09h09.40.907,Colour_Asymmetry_Pilot,2022.1.3,Win32,60.0240096,62bbe60bf3d75ef465d3e404,,,,,,,,,,,,,,,,
0,28,28,57,1,,5f91976a948f570115a30933,62bbfa2fd1527db7dc8c9419,2022-06-29_09h09.40.907,Colour_Asymmetry_Pilot,2022.1.3,Win32,60.0240096,62bbe60bf3d75ef465d3e404,,,,,,,,,,,,,,,,
0,29,29,37,1,,5f91976a948f570115a30933,62bbfa2fd1527db7dc8c9419,2022-06-29_09h09.40.907,Colour_Asymmetry_Pilot,2022.1.3,Win32,60.0240096,62bbe60bf3d75ef465d3e404,,,,,,,,,,,,,,,,
0,30,30,68,1,,5f91976a948f570115a30933,62bbfa2fd1527db7dc8c9419,2022-06-29_09h09.40.907,Colour_Asymmetry_Pilot,2022.1.3,Win32,60.0240096,62bbe60bf3d75ef465d3e404,,,,,,,,,,,,,,,,
0,31,31,63,1,,5f91976a948f570115a30933,62bbfa2fd1527db7dc8c9419,2022-06-29_09h09.40.907,Colour_Asymmetry_Pilot,2022.1.3,Win32,60.0240096,62bbe60bf3d75ef465d3e404,,,,,,,,,,,,,,,,
0,32,32,29,1,,5f91976a948f570115a30933,62bbfa2fd1527db7dc8c9419,2022-06-29_09h09.40.907,Colour_Asymmetry_Pilot,2022.1.3,Win32,60.0240096,62bbe60bf3d75ef465d3e404,,,,,,,,,,,,,,,,
0,33,33,5,1,,5f91976a948f570115a30933,62bbfa2fd1527db7dc8c9419,2022-06-29_09h09.40.907,Colour_Asymmetry_Pilot,2022.1.3,Win32,60.0240096,62bbe60bf3d75ef465d3e404,,,,,,,,,,,,,,,,
0,34,34,31,1,,5f91976a948f570115a30933,62bbfa2fd1527db7dc8c9419,2022-06-29_09h09.40.907,Colour_Asymmetry_Pilot,2022.1.3,Win32,60.0240096,62bbe60bf3d75ef465d3e404,,,,,,,,,,,,,,,,
0,35,35,70,1,,5f91976a948f570115a30933,62bbfa2fd1527db7dc8c9419,2022-06-29_09h09.40.907,Colour_Asymmetry_Pilot,2022.1.3,Win32,60.0240096,62bbe60bf3d75ef465d3e404,,,,,,,,,,,,,,,,
0,36,36,61,1,,5f91976a948f570115a30933,62bbfa2fd1527db7dc8c9419,2022-06-29_09h09.40.907,Colour_Asymmetry_Pilot,2022.1.3,Win32,60.0240096,62bbe60bf3d75ef465d3e404,,,,,,,,,,,,,,,,
0,37,37,32,1,,5f91976a948f570115a30933,62bbfa2fd1527db7dc8c9419,2022-06-29_09h09.40.907,Colour_Asymmetry_Pilot,2022.1.3,Win32,60.0240096,62bbe60bf3d75ef465d3e404,,,,,,,,,,,,,,,,
0,38,38,92,1,,5f91976a948f570115a30933,62bbfa2fd1527db7dc8c9419,2022-06-29_09h09.40.907,Colour_Asymmetry_Pilot,2022.1.3,Win32,60.0240096,62bbe60bf3d75ef465d3e404,,,,,,,,,,,,,,,,
0,39,39,47,1,,5f91976a948f570115a30933,62bbfa2fd1527db7dc8c9419,2022-06-29_09h09.40.907,Colour_Asymmetry_Pilot,2022.1.3,Win32,60.0240096,62bbe60bf3d75ef465d3e404,,,,,,,,,,,,,,,,
0,40,40,38,1,,5f91976a948f570115a30933,62bbfa2fd1527db7dc8c9419,2022-06-29_09h09.40.907,Colour_Asymmetry_Pilot,2022.1.3,Win32,60.0240096,62bbe60bf3d75ef465d3e404,,,,,,,,,,,,,,,,
0,41,41,0,1,,5f91976a948f570115a30933,62bbfa2fd1527db7dc8c9419,2022-06-29_09h09.40.907,Colour_Asymmetry_Pilot,2022.1.3,Win32,60.0240096,62bbe60bf3d75ef465d3e404,,,,,,,,,,,,,,,,
0,42,42,26,1,,5f91976a948f570115a30933,62bbfa2fd1527db7dc8c9419,2022-06-29_09h09.40.907,Colour_Asymmetry_Pilot,2022.1.3,Win32,60.0240096,62bbe60bf3d75ef465d3e404,,,,,,,,,,,,,,,,
0,43,43,80,1,,5f91976a948f570115a30933,62bbfa2fd1527db7dc8c9419,2022-06-29_09h09.40.907,Colour_Asymmetry_Pilot,2022.1.3,Win32,60.0240096,62bbe60bf3d75ef465d3e404,,,,,,,,,,,,,,,,
0,44,44,25,1,,5f91976a948f570115a30933,62bbfa2fd1527db7dc8c9419,2022-06-29_09h09.40.907,Colour_Asymmetry_Pilot,2022.1.3,Win32,60.0240096,62bbe60bf3d75ef465d3e404,,,,,,,,,,,,,,,,
0,45,45,23,1,,5f91976a948f570115a30933,62bbfa2fd1527db7dc8c9419,2022-06-29_09h09.40.907,Colour_Asymmetry_Pilot,2022.1.3,Win32,60.0240096,62bbe60bf3d75ef465d3e404,,,,,,,,,,,,,,,,
0,46,46,24,1,,5f91976a948f570115a30933,62bbfa2fd1527db7dc8c9419,2022-06-29_09h09.40.907,Colour_Asymmetry_Pilot,2022.1.3,Win32,60.0240096,62bbe60bf3d75ef465d3e404,,,,,,,,,,,,,,,,
0,47,47,7,1,,5f91976a948f570115a30933,62bbfa2fd1527db7dc8c9419,2022-06-29_09h09.40.907,Colour_Asymmetry_Pilot,2022.1.3,Win32,60.0240096,62bbe60bf3d75ef465d3e404,,,,,,,,,,,,,,,,
0,48,48,20,1,,5f91976a948f570115a30933,62bbfa2fd1527db7dc8c9419,2022-06-29_09h09.40.907,Colour_Asymmetry_Pilot,2022.1.3,Win32,60.0240096,62bbe60bf3d75ef465d3e404,,,,,,,,,,,,,,,,
0,49,49,75,1,,5f91976a948f570115a30933,62bbfa2fd1527db7dc8c9419,2022-06-29_09h09.40.907,Colour_Asymmetry_Pilot,2022.1.3,Win32,60.0240096,62bbe60bf3d75ef465d3e404,,,,,,,,,,,,,,,,
0,50,50,88,1,,5f91976a948f570115a30933,62bbfa2fd1527db7dc8c9419,2022-06-29_09h09.40.907,Colour_Asymmetry_Pilot,2022.1.3,Win32,60.0240096,62bbe60bf3d75ef465d3e404,,,,,,,,,,,,,,,,
0,51,51,54,1,,5f91976a948f570115a30933,62bbfa2fd1527db7dc8c9419,2022-06-29_09h09.40.907,Colour_Asymmetry_Pilot,2022.1.3,Win32,60.0240096,62bbe60bf3d75ef465d3e404,,,,,,,,,,,,,,,,
0,52,52,39,1,,5f91976a948f570115a30933,62bbfa2fd1527db7dc8c9419,2022-06-29_09h09.40.907,Colour_Asymmetry_Pilot,2022.1.3,Win32,60.0240096,62bbe60bf3d75ef465d3e404,,,,,,,,,,,,,,,,
0,53,53,16,1,,5f91976a948f570115a30933,62bbfa2fd1527db7dc8c9419,2022-06-29_09h09.40.907,Colour_Asymmetry_Pilot,2022.1.3,Win32,60.0240096,62bbe60bf3d75ef465d3e404,,,,,,,,,,,,,,,,
0,54,54,66,1,,5f91976a948f570115a30933,62bbfa2fd1527db7dc8c9419,2022-06-29_09h09.40.907,Colour_Asymmetry_Pilot,2022.1.3,Win32,60.0240096,62bbe60bf3d75ef465d3e404,,,,,,,,,,,,,,,,
0,55,55,45,1,,5f91976a948f570115a30933,62bbfa2fd1527db7dc8c9419,2022-06-29_09h09.40.907,Colour_Asymmetry_Pilot,2022.1.3,Win32,60.0240096,62bbe60bf3d75ef465d3e404,,,,,,,,,,,,,,,,
0,56,56,73,1,,5f91976a948f570115a30933,62bbfa2fd1527db7dc8c9419,2022-06-29_09h09.40.907,Colour_Asymmetry_Pilot,2022.1.3,Win32,60.0240096,62bbe60bf3d75ef465d3e404,,,,,,,,,,,,,,,,
0,57,57,76,1,,5f91976a948f570115a30933,62bbfa2fd1527db7dc8c9419,2022-06-29_09h09.40.907,Colour_Asymmetry_Pilot,2022.1.3,Win32,60.0240096,62bbe60bf3d75ef465d3e404,,,,,,,,,,,,,,,,
0,58,58,91,1,,5f91976a948f570115a30933,62bbfa2fd1527db7dc8c9419,2022-06-29_09h09.40.907,Colour_Asymmetry_Pilot,2022.1.3,Win32,60.0240096,62bbe60bf3d75ef465d3e404,,,,,,,,,,,,,,,,
0,59,59,48,1,,5f91976a948f570115a30933,62bbfa2fd1527db7dc8c9419,2022-06-29_09h09.40.907,Colour_Asymmetry_Pilot,2022.1.3,Win32,60.0240096,62bbe60bf3d75ef465d3e404,,,,,,,,,,,,,,,,
0,60,60,21,1,,5f91976a948f570115a30933,62bbfa2fd1527db7dc8c9419,2022-06-29_09h09.40.907,Colour_Asymmetry_Pilot,2022.1.3,Win32,60.0240096,62bbe60bf3d75ef465d3e404,,,,,,,,,,,,,,,,
0,61,61,51,1,,5f91976a948f570115a30933,62bbfa2fd1527db7dc8c9419,2022-06-29_09h09.40.907,Colour_Asymmetry_Pilot,2022.1.3,Win32,60.0240096,62bbe60bf3d75ef465d3e404,,,,,,,,,,,,,,,,
0,62,62,3,1,,5f91976a948f570115a30933,62bbfa2fd1527db7dc8c9419,2022-06-29_09h09.40.907,Colour_Asymmetry_Pilot,2022.1.3,Win32,60.0240096,62bbe60bf3d75ef465d3e404,,,,,,,,,,,,,,,,
0,63,63,33,1,,5f91976a948f570115a30933,62bbfa2fd1527db7dc8c9419,2022-06-29_09h09.40.907,Colour_Asymmetry_Pilot,2022.1.3,Win32,60.0240096,62bbe60bf3d75ef465d3e404,,,,,,,,,,,,,,,,
0,64,64,62,1,,5f91976a948f570115a30933,62bbfa2fd1527db7dc8c9419,2022-06-29_09h09.40.907,Colour_Asymmetry_Pilot,2022.1.3,Win32,60.0240096,62bbe60bf3d75ef465d3e404,,,,,,,,,,,,,,,,
0,65,65,22,1,,5f91976a948f570115a30933,62bbfa2fd1527db7dc8c9419,2022-06-29_09h09.40.907,Colour_Asymmetry_Pilot,2022.1.3,Win32,60.0240096,62bbe60bf3d75ef465d3e404,,,,,,,,,,,,,,,,
0,66,66,2,1,,5f91976a948f570115a30933,62bbfa2fd1527db7dc8c9419,2022-06-29_09h09.40.907,Colour_Asymmetry_Pilot,2022.1.3,Win32,60.0240096,62bbe60bf3d75ef465d3e404,,,,,,,,,,,,,,,,
0,67,67,72,1,,5f91976a948f570115a30933,62bbfa2fd1527db7dc8c9419,2022-06-29_09h09.40.907,Colour_Asymmetry_Pilot,2022.1.3,Win32,60.0240096,62bbe60bf3d75ef465d3e404,,,,,,,,,,,,,,,,
0,68,68,12,1,,5f91976a948f570115a30933,62bbfa2fd1527db7dc8c9419,2022-06-29_09h09.40.907,Colour_Asymmetry_Pilot,2022.1.3,Win32,60.0240096,62bbe60bf3d75ef465d3e404,,,,,,,,,,,,,,,,
0,69,69,89,1,,5f91976a948f570115a30933,62bbfa2fd1527db7dc8c9419,2022-06-29_09h09.40.907,Colour_Asymmetry_Pilot,2022.1.3,Win32,60.0240096,62bbe60bf3d75ef465d3e404,,,,,,,,,,,,,,,,
0,70,70,79,1,,5f91976a948f570115a30933,62bbfa2fd1527db7dc8c9419,2022-06-29_09h09.40.907,Colour_Asymmetry_Pilot,2022.1.3,Win32,60.0240096,62bbe60bf3d75ef465d3e404,,,,,,,,,,,,,,,,
0,71,71,27,1,,5f91976a948f570115a30933,62bbfa2fd1527db7dc8c9419,2022-06-29_09h09.40.907,Colour_Asymmetry_Pilot,2022.1.3,Win32,60.0240096,62bbe60bf3d75ef465d3e404,,,,,,,,,,,,,,,,
0,72,72,85,1,,5f91976a948f570115a30933,62bbfa2fd1527db7dc8c9419,2022-06-29_09h09.40.907,Colour_Asymmetry_Pilot,2022.1.3,Win32,60.0240096,62bbe60bf3d75ef465d3e404,,,,,,,,,,,,,,,,
0,73,73,87,1,,5f91976a948f570115a30933,62bbfa2fd1527db7dc8c9419,2022-06-29_09h09.40.907,Colour_Asymmetry_Pilot,2022.1.3,Win32,60.0240096,62bbe60bf3d75ef465d3e404,,,,,,,,,,,,,,,,
0,74,74,84,1,,5f91976a948f570115a30933,62bbfa2fd1527db7dc8c9419,2022-06-29_09h09.40.907,Colour_Asymmetry_Pilot,2022.1.3,Win32,60.0240096,62bbe60bf3d75ef465d3e404,,,,,,,,,,,,,,,,
0,75,75,46,1,,5f91976a948f570115a30933,62bbfa2fd1527db7dc8c9419,2022-06-29_09h09.40.907,Colour_Asymmetry_Pilot,2022.1.3,Win32,60.0240096,62bbe60bf3d75ef465d3e404,,,,,,,,,,,,,,,,
0,76,76,69,1,,5f91976a948f570115a30933,62bbfa2fd1527db7dc8c9419,2022-06-29_09h09.40.907,Colour_Asymmetry_Pilot,2022.1.3,Win32,60.0240096,62bbe60bf3d75ef465d3e404,,,,,,,,,,,,,,,,
0,77,77,90,1,,5f91976a948f570115a30933,62bbfa2fd1527db7dc8c9419,2022-06-29_09h09.40.907,Colour_Asymmetry_Pilot,2022.1.3,Win32,60.0240096,62bbe60bf3d75ef465d3e404,,,,,,,,,,,,,,,,
0,78,78,78,1,,5f91976a948f570115a30933,62bbfa2fd1527db7dc8c9419,2022-06-29_09h09.40.907,Colour_Asymmetry_Pilot,2022.1.3,Win32,60.0240096,62bbe60bf3d75ef465d3e404,,,,,,,,,,,,,,,,
0,79,79,34,1,,5f91976a948f570115a30933,62bbfa2fd1527db7dc8c9419,2022-06-29_09h09.40.907,Colour_Asymmetry_Pilot,2022.1.3,Win32,60.0240096,62bbe60bf3d75ef465d3e404,,,,,,,,,,,,,,,,
0,80,80,8,1,,5f91976a948f570115a30933,62bbfa2fd1527db7dc8c9419,2022-06-29_09h09.40.907,Colour_Asymmetry_Pilot,2022.1.3,Win32,60.0240096,62bbe60bf3d75ef465d3e404,,,,,,,,,,,,,,,,
0,81,81,28,1,,5f91976a948f570115a30933,62bbfa2fd1527db7dc8c9419,2022-06-29_09h09.40.907,Colour_Asymmetry_Pilot,2022.1.3,Win32,60.0240096,62bbe60bf3d75ef465d3e404,,,,,,,,,,,,,,,,
0,82,82,43,1,,5f91976a948f570115a30933,62bbfa2fd1527db7dc8c9419,2022-06-29_09h09.40.907,Colour_Asymmetry_Pilot,2022.1.3,Win32,60.0240096,62bbe60bf3d75ef465d3e404,,,,,,,,,,,,,,,,
0,83,83,30,1,,5f91976a948f570115a30933,62bbfa2fd1527db7dc8c9419,2022-06-29_09h09.40.907,Colour_Asymmetry_Pilot,2022.1.3,Win32,60.0240096,62bbe60bf3d75ef465d3e404,,,,,,,,,,,,,,,,
0,84,84,82,1,,5f91976a948f570115a30933,62bbfa2fd1527db7dc8c9419,2022-06-29_09h09.40.907,Colour_Asymmetry_Pilot,2022.1.3,Win32,60.0240096,62bbe60bf3d75ef465d3e404,,,,,,,,,,,,,,,,
0,85,85,67,1,,5f91976a948f570115a30933,62bbfa2fd1527db7dc8c9419,2022-06-29_09h09.40.907,Colour_Asymmetry_Pilot,2022.1.3,Win32,60.0240096,62bbe60bf3d75ef465d3e404,,,,,,,,,,,,,,,,
0,86,86,59,1,,5f91976a948f570115a30933,62bbfa2fd1527db7dc8c9419,2022-06-29_09h09.40.907,Colour_Asymmetry_Pilot,2022.1.3,Win32,60.0240096,62bbe60bf3d75ef465d3e404,,,,,,,,,,,,,,,,
0,87,87,6,1,,5f91976a948f570115a30933,62bbfa2fd1527db7dc8c9419,2022-06-29_09h09.40.907,Colour_Asymmetry_Pilot,2022.1.3,Win32,60.0240096,62bbe60bf3d75ef465d3e404,,,,,,,,,,,,,,,,
0,88,88,65,1,,5f91976a948f570115a30933,62bbfa2fd1527db7dc8c9419,2022-06-29_09h09.40.907,Colour_Asymmetry_Pilot,2022.1.3,Win32,60.0240096,62bbe60bf3d75ef465d3e404,,,,,,,,,,,,,,,,
0,89,89,13,1,,5f91976a948f570115a30933,62bbfa2fd1527db7dc8c9419,2022-06-29_09h09.40.907,Colour_Asymmetry_Pilot,2022.1.3,Win32,60.0240096,62bbe60bf3d75ef465d3e404,,,,,,,,,,,,,,,,
0,90,90,41,1,,5f91976a948f570115a30933,62bbfa2fd1527db7dc8c9419,2022-06-29_09h09.40.907,Colour_Asymmetry_Pilot,2022.1.3,Win32,60.0240096,62bbe60bf3d75ef465d3e404,,,,,,,,,,,,,,,,
0,91,91,11,1,,5f91976a948f570115a30933,62bbfa2fd1527db7dc8c9419,2022-06-29_09h09.40.907,Colour_Asymmetry_Pilot,2022.1.3,Win32,60.0240096,62bbe60bf3d75ef465d3e404,,,,,,,,,,,,,,,,
0,92,92,53,1,,5f91976a948f570115a30933,62bbfa2fd1527db7dc8c9419,2022-06-29_09h09.40.907,Colour_Asymmetry_Pilot,2022.1.3,Win32,60.0240096,62bbe60bf3d75ef465d3e404,,,,,,,,,,,,,,,,
,,,,,,5f91976a948f570115a30933,62bbfa2fd1527db7dc8c9419,2022-06-29_09h09.40.907,Colour_Asymmetry_Pilot,2022.1.3,Win32,60.0240096,62bbe60bf3d75ef465d3e404,0,0,0,143,1,fourthree,,,,,,,,,,
,,,,,,5f91976a948f570115a30933,62bbfa2fd1527db7dc8c9419,2022-06-29_09h09.40.907,Colour_Asymmetry_Pilot,2022.1.3,Win32,60.0240096,62bbe60bf3d75ef465d3e404,0,1,1,109,1,threefour,,,,,,,,,,
,,,,,,5f91976a948f570115a30933,62bbfa2fd1527db7dc8c9419,2022-06-29_09h09.40.907,Colour_Asymmetry_Pilot,2022.1.3,Win32,60.0240096,62bbe60bf3d75ef465d3e404,0,2,2,40,1,onetwo,,,,,,,,,,
,,,,,,5f91976a948f570115a30933,62bbfa2fd1527db7dc8c9419,2022-06-29_09h09.40.907,Colour_Asymmetry_Pilot,2022.1.3,Win32,60.0240096,62bbe60bf3d75ef465d3e404,0,3,3,99,1,twofour,,,,,,,,,,
,,,,,,5f91976a948f570115a30933,62bbfa2fd1527db7dc8c9419,2022-06-29_09h09.40.907,Colour_Asymmetry_Pilot,2022.1.3,Win32,60.0240096,62bbe60bf3d75ef465d3e404,0,4,4,66,1,twoone,,,,,,,,,,
,,,,,,5f91976a948f570115a30933,62bbfa2fd1527db7dc8c9419,2022-06-29_09h09.40.907,Colour_Asymmetry_Pilot,2022.1.3,Win32,60.0240096,62bbe60bf3d75ef465d3e404,0,5,5,53,1,threefour,,,,,,,,,,
,,,,,,5f91976a948f570115a30933,62bbfa2fd1527db7dc8c9419,2022-06-29_09h09.40.907,Colour_Asymmetry_Pilot,2022.1.3,Win32,60.0240096,62bbe60bf3d75ef465d3e404,0,6,6,49,1,onethree,,,,,,,,,,
,,,,,,5f91976a948f570115a30933,62bbfa2fd1527db7dc8c9419,2022-06-29_09h09.40.907,Colour_Asymmetry_Pilot,2022.1.3,Win32,60.0240096,62bbe60bf3d75ef465d3e404,0,7,7,101,1,threefour,,,,,,,,,,
,,,,,,5f91976a948f570115a30933,62bbfa2fd1527db7dc8c9419,2022-06-29_09h09.40.907,Colour_Asymmetry_Pilot,2022.1.3,Win32,60.0240096,62bbe60bf3d75ef465d3e404,0,8,8,155,1,twofour,,,,,,,,,,
,,,,,,5f91976a948f570115a30933,62bbfa2fd1527db7dc8c9419,2022-06-29_09h09.40.907,Colour_Asymmetry_Pilot,2022.1.3,Win32,60.0240096,62bbe60bf3d75ef465d3e404,0,9,9,72,1,onetwo,,,,,,,,,,
,,,,,,5f91976a948f570115a30933,62bbfa2fd1527db7dc8c9419,2022-06-29_09h09.40.907,Colour_Asymmetry_Pilot,2022.1.3,Win32,60.0240096,62bbe60bf3d75ef465d3e404,0,10,10,41,1,onethree,,,,,,,,,,
,,,,,,5f91976a948f570115a30933,62bbfa2fd1527db7dc8c9419,2022-06-29_09h09.40.907,Colour_Asymmetry_Pilot,2022.1.3,Win32,60.0240096,62bbe60bf3d75ef465d3e404,0,11,11,37,1,threefour,,,,,,,,,,
,,,,,,5f91976a948f570115a30933,62bbfa2fd1527db7dc8c9419,2022-06-29_09h09.40.907,Colour_Asymmetry_Pilot,2022.1.3,Win32,60.0240096,62bbe60bf3d75ef465d3e404,0,12,12,58,1,twoone,,,,,,,,,,
,,,,,,5f91976a948f570115a30933,62bbfa2fd1527db7dc8c9419,2022-06-29_09h09.40.907,Colour_Asymmetry_Pilot,2022.1.3,Win32,60.0240096,62bbe60bf3d75ef465d3e404,0,13,13,24,1,onetwo,,,,,,,,,,
,,,,,,5f91976a948f570115a30933,62bbfa2fd1527db7dc8c9419,2022-06-29_09h09.40.907,Colour_Asymmetry_Pilot,2022.1.3,Win32,60.0240096,62bbe60bf3d75ef465d3e404,0,14,14,2,1,twoone,,,,,,,,,,
,,,,,,5f91976a948f570115a30933,62bbfa2fd1527db7dc8c9419,2022-06-29_09h09.40.907,Colour_Asymmetry_Pilot,2022.1.3,Win32,60.0240096,62bbe60bf3d75ef465d3e404,0,15,15,142,1,fourtwo,,,,,,,,,,
,,,,,,5f91976a948f570115a30933,62bbfa2fd1527db7dc8c9419,2022-06-29_09h09.40.907,Colour_Asymmetry_Pilot,2022.1.3,Win32,60.0240096,62bbe60bf3d75ef465d3e404,0,16,16,159,1,fourthree,,,,,,,,,,
,,,,,,5f91976a948f570115a30933,62bbfa2fd1527db7dc8c9419,2022-06-29_09h09.40.907,Colour_Asymmetry_Pilot,2022.1.3,Win32,60.0240096,62bbe60bf3d75ef465d3e404,0,17,17,30,1,fourtwo,,,,,,,,,,
,,,,,,5f91976a948f570115a30933,62bbfa2fd1527db7dc8c9419,2022-06-29_09h09.40.907,Colour_Asymmetry_Pilot,2022.1.3,Win32,60.0240096,62bbe60bf3d75ef465d3e404,0,18,18,132,1,threeone,,,,,,,,,,
,,,,,,5f91976a948f570115a30933,62bbfa2fd1527db7dc8c9419,2022-06-29_09h09.40.907,Colour_Asymmetry_Pilot,2022.1.3,Win32,60.0240096,62bbe60bf3d75ef465d3e404,0,19,19,123,1,twofour,,,,,,,,,,
,,,,,,5f91976a948f570115a30933,62bbfa2fd1527db7dc8c9419,2022-06-29_09h09.40.907,Colour_Asymmetry_Pilot,2022.1.3,Win32,60.0240096,62bbe60bf3d75ef465d3e404,0,20,20,151,1,fourthree,,,,,,,,,,
,,,,,,5f91976a948f570115a30933,62bbfa2fd1527db7dc8c9419,2022-06-29_09h09.40.907,Colour_Asymmetry_Pilot,2022.1.3,Win32,60.0240096,62bbe60bf3d75ef465d3e404,0,21,21,114,1,twoone,,,,,,,,,,
,,,,,,5f91976a948f570115a30933,62bbfa2fd1527db7dc8c9419,2022-06-29_09h09.40.907,Colour_Asymmetry_Pilot,2022.1.3,Win32,60.0240096,62bbe60bf3d75ef465d3e404,0,22,22,65,1,onethree,,,,,,,,,,
,,,,,,5f91976a948f570115a30933,62bbfa2fd1527db7dc8c9419,2022-06-29_09h09.40.907,Colour_Asymmetry_Pilot,2022.1.3,Win32,60.0240096,62bbe60bf3d75ef465d3e404,0,23,23,119,1,fourthree,,,,,,,,,,
,,,,,,5f91976a948f570115a30933,62bbfa2fd1527db7dc8c9419,2022-06-29_09h09.40.907,Colour_Asymmetry_Pilot,2022.1.3,Win32,60.0240096,62bbe60bf3d75ef465d3e404,0,24,24,62,1,fourtwo,,,,,,,,,,
,,,,,,5f91976a948f570115a30933,62bbfa2fd1527db7dc8c9419,2022-06-29_09h09.40.907,Colour_Asymmetry_Pilot,2022.1.3,Win32,60.0240096,62bbe60bf3d75ef465d3e404,0,25,25,6,1,fourtwo,,,,,,,,,,
,,,,,,5f91976a948f570115a30933,62bbfa2fd1527db7dc8c9419,2022-06-29_09h09.40.907,Colour_Asymmetry_Pilot,2022.1.3,Win32,60.0240096,62bbe60bf3d75ef465d3e404,0,26,26,57,1,onethree,,,,,,,,,,
,,,,,,5f91976a948f570115a30933,62bbfa2fd1527db7dc8c9419,2022-06-29_09h09.40.907,Colour_Asymmetry_Pilot,2022.1.3,Win32,60.0240096,62bbe60bf3d75ef465d3e404,0,27,27,90,1,twoone,,,,,,,,,,
,,,,,,5f91976a948f570115a30933,62bbfa2fd1527db7dc8c9419,2022-06-29_09h09.40.907,Colour_Asymmetry_Pilot,2022.1.3,Win32,60.0240096,62bbe60bf3d75ef465d3e404,0,28,28,26,1,twoone,,,,,,,,,,
,,,,,,5f91976a948f570115a30933,62bbfa2fd1527db7dc8c9419,2022-06-29_09h09.40.907,Colour_Asymmetry_Pilot,2022.1.3,Win32,60.0240096,62bbe60bf3d75ef465d3e404,0,29,29,138,1,twoone,,,,,,,,,,
,,,,,,5f91976a948f570115a30933,62bbfa2fd1527db7dc8c9419,2022-06-29_09h09.40.907,Colour_Asymmetry_Pilot,2022.1.3,Win32,60.0240096,62bbe60bf3d75ef465d3e404,0,30,30,13,1,threefour,,,,,,,,,,
,,,,,,5f91976a948f570115a30933,62bbfa2fd1527db7dc8c9419,2022-06-29_09h09.40.907,Colour_Asymmetry_Pilot,2022.1.3,Win32,60.0240096,62bbe60bf3d75ef465d3e404,0,31,31,88,1,onetwo,,,,,,,,,,
,,,,,,5f91976a948f570115a30933,62bbfa2fd1527db7dc8c9419,2022-06-29_09h09.40.907,Colour_Asymmetry_Pilot,2022.1.3,Win32,60.0240096,62bbe60bf3d75ef465d3e404,0,32,32,23,1,fourthree,,,,,,,,,,
,,,,,,5f91976a948f570115a30933,62bbfa2fd1527db7dc8c9419,2022-06-29_09h09.40.907,Colour_Asymmetry_Pilot,2022.1.3,Win32,60.0240096,62bbe60bf3d75ef465d3e404,0,33,33,3,1,twofour,,,,,,,,,,
,,,,,,5f91976a948f570115a30933,62bbfa2fd1527db7dc8c9419,2022-06-29_09h09.40.907,Colour_Asymmetry_Pilot,2022.1.3,Win32,60.0240096,62bbe60bf3d75ef465d3e404,0,34,34,12,1,threeone,,,,,,,,,,
,,,,,,5f91976a948f570115a30933,62bbfa2fd1527db7dc8c9419,2022-06-29_09h09.40.907,Colour_Asymmetry_Pilot,2022.1.3,Win32,60.0240096,62bbe60bf3d75ef465d3e404,0,35,35,115,1,twofour,,,,,,,,,,
,,,,,,5f91976a948f570115a30933,62bbfa2fd1527db7dc8c9419,2022-06-29_09h09.40.907,Colour_Asymmetry_Pilot,2022.1.3,Win32,60.0240096,62bbe60bf3d75ef465d3e404,0,36,36,80,1,onetwo,,,,,,,,,,
,,,,,,5f91976a948f570115a30933,62bbfa2fd1527db7dc8c9419,2022-06-29_09h09.40.907,Colour_Asymmetry_Pilot,2022.1.3,Win32,60.0240096,62bbe60bf3d75ef465d3e404,0,37,37,44,1,threeone,,,,,,,,,,
,,,,,,5f91976a948f570115a30933,62bbfa2fd1527db7dc8c9419,2022-06-29_09h09.40.907,Colour_Asymmetry_Pilot,2022.1.3,Win32,60.0240096,62bbe60bf3d75ef465d3e404,0,38,38,160,1,onetwo,,,,,,,,,,
,,,,,,5f91976a948f570115a30933,62bbfa2fd1527db7dc8c9419,2022-06-29_09h09.40.907,Colour_Asymmetry_Pilot,2022.1.3,Win32,60.0240096,62bbe60bf3d75ef465d3e404,0,39,39,69,1,threefour,,,,,,,,,,
,,,,,,5f91976a948f570115a30933,62bbfa2fd1527db7dc8c9419,2022-06-29_09h09.40.907,Colour_Asymmetry_Pilot,2022.1.3,Win32,60.0240096,62bbe60bf3d75ef465d3e404,0,40,40,9,1,onethree,,,,,,,,,,
,,,,,,5f91976a948f570115a30933,62bbfa2fd1527db7dc8c9419,2022-06-29_09h09.40.907,Colour_Asymmetry_Pilot,2022.1.3,Win32,60.0240096,62bbe60bf3d75ef465d3e404,0,41,41,128,1,onetwo,,,,,,,,,,
,,,,,,5f91976a948f570115a30933,62bbfa2fd1527db7dc8c9419,2022-06-29_09h09.40.907,Colour_Asymmetry_Pilot,2022.1.3,Win32,60.0240096,62bbe60bf3d75ef465d3e404,0,42,42,108,1,threeone,,,,,,,,,,
,,,,,,5f91976a948f570115a30933,62bbfa2fd1527db7dc8c9419,2022-06-29_09h09.40.907,Colour_Asymmetry_Pilot,2022.1.3,Win32,60.0240096,62bbe60bf3d75ef465d3e404,0,43,43,95,1,fourthree,,,,,,,,,,
,,,,,,5f91976a948f570115a30933,62bbfa2fd1527db7dc8c9419,2022-06-29_09h09.40.907,Colour_Asymmetry_Pilot,2022.1.3,Win32,60.0240096,62bbe60bf3d75ef465d3e404,0,44,44,67,1,twofour,,,,,,,,,,
,,,,,,5f91976a948f570115a30933,62bbfa2fd1527db7dc8c9419,2022-06-29_09h09.40.907,Colour_Asymmetry_Pilot,2022.1.3,Win32,60.0240096,62bbe60bf3d75ef465d3e404,0,45,45,100,1,threeone,,,,,,,,,,
,,,,,,5f91976a948f570115a30933,62bbfa2fd1527db7dc8c9419,2022-06-29_09h09.40.907,Colour_Asymmetry_Pilot,2022.1.3,Win32,60.0240096,62bbe60bf3d75ef465d3e404,0,46,46,70,1,fourtwo,,,,,,,,,,
,,,,,,5f91976a948f570115a30933,62bbfa2fd1527db7dc8c9419,2022-06-29_09h09.40.907,Colour_Asymmetry_Pilot,2022.1.3,Win32,60.0240096,62bbe60bf3d75ef465d3e404,0,47,47,73,1,onethree,,,,,,,,,,
,,,,,,5f91976a948f570115a30933,62bbfa2fd1527db7dc8c9419,2022-06-29_09h09.40.907,Colour_Asymmetry_Pilot,2022.1.3,Win32,60.0240096,62bbe60bf3d75ef465d3e404,0,48,48,21,1,threefour,,,,,,,,,,
,,,,,,5f91976a948f570115a30933,62bbfa2fd1527db7dc8c9419,2022-06-29_09h09.40.907,Colour_Asymmetry_Pilot,2022.1.3,Win32,60.0240096,62bbe60bf3d75ef465d3e404,0,49,49,85,1,threefour,,,,,,,,,,
,,,,,,5f91976a948f570115a30933,62bbfa2fd1527db7dc8c9419,2022-06-29_09h09.40.907,Colour_Asymmetry_Pilot,2022.1.3,Win32,60.0240096,62bbe60bf3d75ef465d3e404,0,50,50,46,1,fourtwo,,,,,,,,,,
,,,,,,5f91976a948f570115a30933,62bbfa2fd1527db7dc8c9419,2022-06-29_09h09.40.907,Colour_Asymmetry_Pilot,2022.1.3,Win32,60.0240096,62bbe60bf3d75ef465d3e404,0,51,51,157,1,threefour,,,,,,,,,,
,,,,,,5f91976a948f570115a30933,62bbfa2fd1527db7dc8c9419,2022-06-29_09h09.40.907,Colour_Asymmetry_Pilot,2022.1.3,Win32,60.0240096,62bbe60bf3d75ef465d3e404,0,52,52,14,1,fourtwo,,,,,,,,,,
,,,,,,5f91976a948f570115a30933,62bbfa2fd1527db7dc8c9419,2022-06-29_09h09.40.907,Colour_Asymmetry_Pilot,2022.1.3,Win32,60.0240096,62bbe60bf3d75ef465d3e404,0,53,53,86,1,fourtwo,,,,,,,,,,
,,,,,,5f91976a948f570115a30933,62bbfa2fd1527db7dc8c9419,2022-06-29_09h09.40.907,Colour_Asymmetry_Pilot,2022.1.3,Win32,60.0240096,62bbe60bf3d75ef465d3e404,0,54,54,63,1,fourthree,,,,,,,,,,
,,,,,,5f91976a948f570115a30933,62bbfa2fd1527db7dc8c9419,2022-06-29_09h09.40.907,Colour_Asymmetry_Pilot,2022.1.3,Win32,60.0240096,62bbe60bf3d75ef465d3e404,0,55,55,91,1,twofour,,,,,,,,,,
,,,,,,5f91976a948f570115a30933,62bbfa2fd1527db7dc8c9419,2022-06-29_09h09.40.907,Colour_Asymmetry_Pilot,2022.1.3,Win32,60.0240096,62bbe60bf3d75ef465d3e404,0,56,56,54,1,fourtwo,,,,,,,,,,
,,,,,,5f91976a948f570115a30933,62bbfa2fd1527db7dc8c9419,2022-06-29_09h09.40.907,Colour_Asymmetry_Pilot,2022.1.3,Win32,60.0240096,62bbe60bf3d75ef465d3e404,0,57,57,150,1,fourtwo,,,,,,,,,,
,,,,,,5f91976a948f570115a30933,62bbfa2fd1527db7dc8c9419,2022-06-29_09h09.40.907,Colour_Asymmetry_Pilot,2022.1.3,Win32,60.0240096,62bbe60bf3d75ef465d3e404,0,58,58,60,1,threeone,,,,,,,,,,
,,,,,,5f91976a948f570115a30933,62bbfa2fd1527db7dc8c9419,2022-06-29_09h09.40.907,Colour_Asymmetry_Pilot,2022.1.3,Win32,60.0240096,62bbe60bf3d75ef465d3e404,0,59,59,83,1,twofour,,,,,,,,,,
,,,,,,5f91976a948f570115a30933,62bbfa2fd1527db7dc8c9419,2022-06-29_09h09.40.907,Colour_Asymmetry_Pilot,2022.1.3,Win32,60.0240096,62bbe60bf3d75ef465d3e404,0,60,60,148,1,threeone,,,,,,,,,,
,,,,,,5f91976a948f570115a30933,62bbfa2fd1527db7dc8c9419,2022-06-29_09h09.40.907,Colour_Asymmetry_Pilot,2022.1.3,Win32,60.0240096,62bbe60bf3d75ef465d3e404,0,61,61,78,1,fourtwo,,,,,,,,,,
,,,,,,5f91976a948f570115a30933,62bbfa2fd1527db7dc8c9419,2022-06-29_09h09.40.907,Colour_Asymmetry_Pilot,2022.1.3,Win32,60.0240096,62bbe60bf3d75ef465d3e404,0,62,62,76,1,threeone,,,,,,,,,,
,,,,,,5f91976a948f570115a30933,62bbfa2fd1527db7dc8c9419,2022-06-29_09h09.40.907,Colour_Asymmetry_Pilot,2022.1.3,Win32,60.0240096,62bbe60bf3d75ef465d3e404,0,63,63,117,1,threefour,,,,,,,,,,
,,,,,,5f91976a948f570115a30933,62bbfa2fd1527db7dc8c9419,2022-06-29_09h09.40.907,Colour_Asymmetry_Pilot,2022.1.3,Win32,60.0240096,62bbe60bf3d75ef465d3e404,0,64,64,51,1,twofour,,,,,,,,,,
,,,,,,5f91976a948f570115a30933,62bbfa2fd1527db7dc8c9419,2022-06-29_09h09.40.907,Colour_Asymmetry_Pilot,2022.1.3,Win32,60.0240096,62bbe60bf3d75ef465d3e404,0,65,65,102,1,fourtwo,,,,,,,,,,
,,,,,,5f91976a948f570115a30933,62bbfa2fd1527db7dc8c9419,2022-06-29_09h09.40.907,Colour_Asymmetry_Pilot,2022.1.3,Win32,60.0240096,62bbe60bf3d75ef465d3e404,0,66,66,104,1,onetwo,,,,,,,,,,
,,,,,,5f91976a948f570115a30933,62bbfa2fd1527db7dc8c9419,2022-06-29_09h09.40.907,Colour_Asymmetry_Pilot,2022.1.3,Win32,60.0240096,62bbe60bf3d75ef465d3e404,0,67,67,89,1,onethree,,,,,,,,,,
,,,,,,5f91976a948f570115a30933,62bbfa2fd1527db7dc8c9419,2022-06-29_09h09.40.907,Colour_Asymmetry_Pilot,2022.1.3,Win32,60.0240096,62bbe60bf3d75ef465d3e404,0,68,68,122,1,twoone,,,,,,,,,,
,,,,,,5f91976a948f570115a30933,62bbfa2fd1527db7dc8c9419,2022-06-29_09h09.40.907,Colour_Asymmetry_Pilot,2022.1.3,Win32,60.0240096,62bbe60bf3d75ef465d3e404,0,69,69,118,1,fourtwo,,,,,,,,,,
,,,,,,5f91976a948f570115a30933,62bbfa2fd1527db7dc8c9419,2022-06-29_09h09.40.907,Colour_Asymmetry_Pilot,2022.1.3,Win32,60.0240096,62bbe60bf3d75ef465d3e404,0,70,70,141,1,threefour,,,,,,,,,,
,,,,,,5f91976a948f570115a30933,62bbfa2fd1527db7dc8c9419,2022-06-29_09h09.40.907,Colour_Asymmetry_Pilot,2022.1.3,Win32,60.0240096,62bbe60bf3d75ef465d3e404,0,71,71,16,1,onetwo,,,,,,,,,,
,,,,,,5f91976a948f570115a30933,62bbfa2fd1527db7dc8c9419,2022-06-29_09h09.40.907,Colour_Asymmetry_Pilot,2022.1.3,Win32,60.0240096,62bbe60bf3d75ef465d3e404,0,72,72,0,1,onetwo,,,,,,,,,,
,,,,,,5f91976a948f570115a30933,62bbfa2fd1527db7dc8c9419,2022-06-29_09h09.40.907,Colour_Asymmetry_Pilot,2022.1.3,Win32,60.0240096,62bbe60bf3d75ef465d3e404,0,73,73,161,1,onethree,,,,,,,,,,
,,,,,,5f91976a948f570115a30933,62bbfa2fd1527db7dc8c9419,2022-06-29_09h09.40.907,Colour_Asymmetry_Pilot,2022.1.3,Win32,60.0240096,62bbe60bf3d75ef465d3e404,0,74,74,11,1,twofour,,,,,,,,,,
,,,,,,5f91976a948f570115a30933,62bbfa2fd1527db7dc8c9419,2022-06-29_09h09.40.907,Colour_Asymmetry_Pilot,2022.1.3,Win32,60.0240096,62bbe60bf3d75ef465d3e404,0,75,75,50,1,twoone,,,,,,,,,,
,,,,,,5f91976a948f570115a30933,62bbfa2fd1527db7dc8c9419,2022-06-29_09h09.40.907,Colour_Asymmetry_Pilot,2022.1.3,Win32,60.0240096,62bbe60bf3d75ef465d3e404,0,76,76,71,1,fourthree,,,,,,,,,,
,,,,,,5f91976a948f570115a30933,62bbfa2fd1527db7dc8c9419,2022-06-29_09h09.40.907,Colour_Asymmetry_Pilot,2022.1.3,Win32,60.0240096,62bbe60bf3d75ef465d3e404,0,77,77,126,1,fourtwo,,,,,,,,,,
,,,,,,5f91976a948f570115a30933,62bbfa2fd1527db7dc8c9419,2022-06-29_09h09.40.907,Colour_Asymmetry_Pilot,2022.1.3,Win32,60.0240096,62bbe60bf3d75ef465d3e404,0,78,78,158,1,fourtwo,,,,,,,,,,
,,,,,,5f91976a948f570115a30933,62bbfa2fd1527db7dc8c9419,2022-06-29_09h09.40.907,Colour_Asymmetry_Pilot,2022.1.3,Win32,60.0240096,62bbe60bf3d75ef465d3e404,0,79,79,48,1,onetwo,,,,,,,,,,
,,,,,,5f91976a948f570115a30933,62bbfa2fd1527db7dc8c9419,2022-06-29_09h09.40.907,Colour_Asymmetry_Pilot,2022.1.3,Win32,60.0240096,62bbe60bf3d75ef465d3e404,0,80,80,96,1,onetwo,,,,,,,,,,
,,,,,,5f91976a948f570115a30933,62bbfa2fd1527db7dc8c9419,2022-06-29_09h09.40.907,Colour_Asymmetry_Pilot,2022.1.3,Win32,60.0240096,62bbe60bf3d75ef465d3e404,0,81,81,103,1,fourthree,,,,,,,,,,
,,,,,,5f91976a948f570115a30933,62bbfa2fd1527db7dc8c9419,2022-06-29_09h09.40.907,Colour_Asymmetry_Pilot,2022.1.3,Win32,60.0240096,62bbe60bf3d75ef465d3e404,0,82,82,38,1,fourtwo,,,,,,,,,,
,,,,,,5f91976a948f570115a30933,62bbfa2fd1527db7dc8c9419,2022-06-29_09h09.40.907,Colour_Asymmetry_Pilot,2022.1.3,Win32,60.0240096,62bbe60bf3d75ef465d3e404,0,83,83,75,1,twofour,,,,,,,,,,
,,,,,,5f91976a948f570115a30933,62bbfa2fd1527db7dc8c9419,2022-06-29_09h09.40.907,Colour_Asymmetry_Pilot,2022.1.3,Win32,60.0240096,62bbe60bf3d75ef465d3e404,0,84,84,140,1,threeone,,,,,,,,,,
,,,,,,5f91976a948f570115a30933,62bbfa2fd1527db7dc8c9419,2022-06-29_09h09.40.907,Colour_Asymmetry_Pilot,2022.1.3,Win32,60.0240096,62bbe60bf3d75ef465d3e404,0,85,85,4,1,threeone,,,,,,,,,,
,,,,,,5f91976a948f570115a30933,62bbfa2fd1527db7dc8c9419,2022-06-29_09h09.40.907,Colour_Asymmetry_Pilot,2022.1.3,Win32,60.0240096,62bbe60bf3d75ef465d3e404,0,86,86,152,1,onetwo,,,,,,,,,,
,,,,,,5f91976a948f570115a30933,62bbfa2fd1527db7dc8c9419,2022-06-29_09h09.40.907,Colour_Asymmetry_Pilot,2022.1.3,Win32,60.0240096,62bbe60bf3d75ef465d3e404,0,87,87,32,1,onetwo,,,,,,,,,,
,,,,,,5f91976a948f570115a30933,62bbfa2fd1527db7dc8c9419,2022-06-29_09h09.40.907,Colour_Asymmetry_Pilot,2022.1.3,Win32,60.0240096,62bbe60bf3d75ef465d3e404,0,88,88,147,1,twofour,,,,,,,,,,
,,,,,,5f91976a948f570115a30933,62bbfa2fd1527db7dc8c9419,2022-06-29_09h09.40.907,Colour_Asymmetry_Pilot,2022.1.3,Win32,60.0240096,62bbe60bf3d75ef465d3e404,0,89,89,84,1,threeone,,,,,,,,,,
,,,,,,5f91976a948f570115a30933,62bbfa2fd1527db7dc8c9419,2022-06-29_09h09.40.907,Colour_Asymmetry_Pilot,2022.1.3,Win32,60.0240096,62bbe60bf3d75ef465d3e404,0,90,90,64,1,onetwo,,,,,,,,,,
,,,,,,5f91976a948f570115a30933,62bbfa2fd1527db7dc8c9419,2022-06-29_09h09.40.907,Colour_Asymmetry_Pilot,2022.1.3,Win32,60.0240096,62bbe60bf3d75ef465d3e404,0,91,91,154,1,twoone,,,,,,,,,,
,,,,,,5f91976a948f570115a30933,62bbfa2fd1527db7dc8c9419,2022-06-29_09h09.40.907,Colour_Asymmetry_Pilot,2022.1.3,Win32,60.0240096,62bbe60bf3d75ef465d3e404,0,92,92,19,1,twofour,,,,,,,,,,
,,,,,,5f91976a948f570115a30933,62bbfa2fd1527db7dc8c9419,2022-06-29_09h09.40.907,Colour_Asymmetry_Pilot,2022.1.3,Win32,60.0240096,62bbe60bf3d75ef465d3e404,0,93,93,105,1,onethree,,,,,,,,,,
,,,,,,5f91976a948f570115a30933,62bbfa2fd1527db7dc8c9419,2022-06-29_09h09.40.907,Colour_Asymmetry_Pilot,2022.1.3,Win32,60.0240096,62bbe60bf3d75ef465d3e404,0,94,94,107,1,twofour,,,,,,,,,,
,,,,,,5f91976a948f570115a30933,62bbfa2fd1527db7dc8c9419,2022-06-29_09h09.40.907,Colour_Asymmetry_Pilot,2022.1.3,Win32,60.0240096,62bbe60bf3d75ef465d3e404,0,95,95,156,1,threeone,,,,,,,,,,
,,,,,,5f91976a948f570115a30933,62bbfa2fd1527db7dc8c9419,2022-06-29_09h09.40.907,Colour_Asymmetry_Pilot,2022.1.3,Win32,60.0240096,62bbe60bf3d75ef465d3e404,0,96,96,127,1,fourthree,,,,,,,,,,
,,,,,,5f91976a948f570115a30933,62bbfa2fd1527db7dc8c9419,2022-06-29_09h09.40.907,Colour_Asymmetry_Pilot,2022.1.3,Win32,60.0240096,62bbe60bf3d75ef465d3e404,0,97,97,42,1,twoone,,,,,,,,,,
,,,,,,5f91976a948f570115a30933,62bbfa2fd1527db7dc8c9419,2022-06-29_09h09.40.907,Colour_Asymmetry_Pilot,2022.1.3,Win32,60.0240096,62bbe60bf3d75ef465d3e404,0,98,98,39,1,fourthree,,,,,,,,,,
,,,,,,5f91976a948f570115a30933,62bbfa2fd1527db7dc8c9419,2022-06-29_09h09.40.907,Colour_Asymmetry_Pilot,2022.1.3,Win32,60.0240096,62bbe60bf3d75ef465d3e404,0,99,99,94,1,fourtwo,,,,,,,,,,
,,,,,,5f91976a948f570115a30933,62bbfa2fd1527db7dc8c9419,2022-06-29_09h09.40.907,Colour_Asymmetry_Pilot,2022.1.3,Win32,60.0240096,62bbe60bf3d75ef465d3e404,0,100,100,43,1,twofour,,,,,,,,,,
,,,,,,5f91976a948f570115a30933,62bbfa2fd1527db7dc8c9419,2022-06-29_09h09.40.907,Colour_Asymmetry_Pilot,2022.1.3,Win32,60.0240096,62bbe60bf3d75ef465d3e404,0,101,101,125,1,threefour,,,,,,,,,,
,,,,,,5f91976a948f570115a30933,62bbfa2fd1527db7dc8c9419,2022-06-29_09h09.40.907,Colour_Asymmetry_Pilot,2022.1.3,Win32,60.0240096,62bbe60bf3d75ef465d3e404,0,102,102,79,1,fourthree,,,,,,,,,,
,,,,,,5f91976a948f570115a30933,62bbfa2fd1527db7dc8c9419,2022-06-29_09h09.40.907,Colour_Asymmetry_Pilot,2022.1.3,Win32,60.0240096,62bbe60bf3d75ef465d3e404,0,103,103,74,1,twoone,,,,,,,,,,
,,,,,,5f91976a948f570115a30933,62bbfa2fd1527db7dc8c9419,2022-06-29_09h09.40.907,Colour_Asymmetry_Pilot,2022.1.3,Win32,60.0240096,62bbe60bf3d75ef465d3e404,0,104,104,113,1,onethree,,,,,,,,,,
,,,,,,5f91976a948f570115a30933,62bbfa2fd1527db7dc8c9419,2022-06-29_09h09.40.907,Colour_Asymmetry_Pilot,2022.1.3,Win32,60.0240096,62bbe60bf3d75ef465d3e404,0,105,105,34,1,twoone,,,,,,,,,,
,,,,,,5f91976a948f570115a30933,62bbfa2fd1527db7dc8c9419,2022-06-29_09h09.40.907,Colour_Asymmetry_Pilot,2022.1.3,Win32,60.0240096,62bbe60bf3d75ef465d3e404,0,106,106,98,1,twoone,,,,,,,,,,
,,,,,,5f91976a948f570115a30933,62bbfa2fd1527db7dc8c9419,2022-06-29_09h09.40.907,Colour_Asymmetry_Pilot,2022.1.3,Win32,60.0240096,62bbe60bf3d75ef465d3e404,0,107,107,45,1,threefour,,,,,,,,,,
,,,,,,5f91976a948f570115a30933,62bbfa2fd1527db7dc8c9419,2022-06-29_09h09.40.907,Colour_Asymmetry_Pilot,2022.1.3,Win32,60.0240096,62bbe60bf3d75ef465d3e404,0,108,108,47,1,fourthree,,,,,,,,,,
,,,,,,5f91976a948f570115a30933,62bbfa2fd1527db7dc8c9419,2022-06-29_09h09.40.907,Colour_Asymmetry_Pilot,2022.1.3,Win32,60.0240096,62bbe60bf3d75ef465d3e404,0,109,109,59,1,twofour,,,,,,,,,,
,,,,,,5f91976a948f570115a30933,62bbfa2fd1527db7dc8c9419,2022-06-29_09h09.40.907,Colour_Asymmetry_Pilot,2022.1.3,Win32,60.0240096,62bbe60bf3d75ef465d3e404,0,110,110,112,1,onetwo,,,,,,,,,,
,,,,,,5f91976a948f570115a30933,62bbfa2fd1527db7dc8c9419,2022-06-29_09h09.40.907,Colour_Asymmetry_Pilot,2022.1.3,Win32,60.0240096,62bbe60bf3d75ef465d3e404,0,111,111,15,1,fourthree,,,,,,,,,,
,,,,,,5f91976a948f570115a30933,62bbfa2fd1527db7dc8c9419,2022-06-29_09h09.40.907,Colour_Asymmetry_Pilot,2022.1.3,Win32,60.0240096,62bbe60bf3d75ef465d3e404,0,112,112,25,1,onethree,,,,,,,,,,
,,,,,,5f91976a948f570115a30933,62bbfa2fd1527db7dc8c9419,2022-06-29_09h09.40.907,Colour_Asymmetry_Pilot,2022.1.3,Win32,60.0240096,62bbe60bf3d75ef465d3e404,0,113,113,144,1,onetwo,,,,,,,,,,
,,,,,,5f91976a948f570115a30933,62bbfa2fd1527db7dc8c9419,2022-06-29_09h09.40.907,Colour_Asymmetry_Pilot,2022.1.3,Win32,60.0240096,62bbe60bf3d75ef465d3e404,0,114,114,10,1,twoone,,,,,,,,,,
,,,,,,5f91976a948f570115a30933,62bbfa2fd1527db7dc8c9419,2022-06-29_09h09.40.907,Colour_Asymmetry_Pilot,2022.1.3,Win32,60.0240096,62bbe60bf3d75ef465d3e404,0,115,115,68,1,threeone,,,,,,,,,,
,,,,,,5f91976a948f570115a30933,62bbfa2fd1527db7dc8c9419,2022-06-29_09h09.40.907,Colour_Asymmetry_Pilot,2022.1.3,Win32,60.0240096,62bbe60bf3d75ef465d3e404,0,116,116,92,1,threeone,,,,,,,,,,
,,,,,,5f91976a948f570115a30933,62bbfa2fd1527db7dc8c9419,2022-06-29_09h09.40.907,Colour_Asymmetry_Pilot,2022.1.3,Win32,60.0240096,62bbe60bf3d75ef465d3e404,0,117,117,31,1,fourthree,,,,,,,,,,
,,,,,,5f91976a948f570115a30933,62bbfa2fd1527db7dc8c9419,2022-06-29_09h09.40.907,Colour_Asymmetry_Pilot,2022.1.3,Win32,60.0240096,62bbe60bf3d75ef465d3e404,0,118,118,87,1,fourthree,,,,,,,,,,
,,,,,,5f91976a948f570115a30933,62bbfa2fd1527db7dc8c9419,2022-06-29_09h09.40.907,Colour_Asymmetry_Pilot,2022.1.3,Win32,60.0240096,62bbe60bf3d75ef465d3e404,0,119,119,35,1,twofour,,,,,,,,,,
,,,,,,5f91976a948f570115a30933,62bbfa2fd1527db7dc8c9419,2022-06-29_09h09.40.907,Colour_Asymmetry_Pilot,2022.1.3,Win32,60.0240096,62bbe60bf3d75ef465d3e404,0,120,120,135,1,fourthree,,,,,,,,,,
,,,,,,5f91976a948f570115a30933,62bbfa2fd1527db7dc8c9419,2022-06-29_09h09.40.907,Colour_Asymmetry_Pilot,2022.1.3,Win32,60.0240096,62bbe60bf3d75ef465d3e404,0,121,121,146,1,twoone,,,,,,,,,,
,,,,,,5f91976a948f570115a30933,62bbfa2fd1527db7dc8c9419,2022-06-29_09h09.40.907,Colour_Asymmetry_Pilot,2022.1.3,Win32,60.0240096,62bbe60bf3d75ef465d3e404,0,122,122,93,1,threefour,,,,,,,,,,
,,,,,,5f91976a948f570115a30933,62bbfa2fd1527db7dc8c9419,2022-06-29_09h09.40.907,Colour_Asymmetry_Pilot,2022.1.3,Win32,60.0240096,62bbe60bf3d75ef465d3e404,0,123,123,131,1,twofour,,,,,,,,,,
,,,,,,5f91976a948f570115a30933,62bbfa2fd1527db7dc8c9419,2022-06-29_09h09.40.907,Colour_Asymmetry_Pilot,2022.1.3,Win32,60.0240096,62bbe60bf3d75ef465d3e404,0,124,124,134,1,fourtwo,,,,,,,,,,
,,,,,,5f91976a948f570115a30933,62bbfa2fd1527db7dc8c9419,2022-06-29_09h09.40.907,Colour_Asymmetry_Pilot,2022.1.3,Win32,60.0240096,62bbe60bf3d75ef465d3e404,0,125,125,106,1,twoone,,,,,,,,,,
,,,,,,5f91976a948f570115a30933,62bbfa2fd1527db7dc8c9419,2022-06-29_09h09.40.907,Colour_Asymmetry_Pilot,2022.1.3,Win32,60.0240096,62bbe60bf3d75ef465d3e404,0,126,126,27,1,twofour,,,,,,,,,,
,,,,,,5f91976a948f570115a30933,62bbfa2fd1527db7dc8c9419,2022-06-29_09h09.40.907,Colour_Asymmetry_Pilot,2022.1.3,Win32,60.0240096,62bbe60bf3d75ef465d3e404,0,127,127,20,1,threeone,,,,,,,,,,
,,,,,,5f91976a948f570115a30933,62bbfa2fd1527db7dc8c9419,2022-06-29_09h09.40.907,Colour_Asymmetry_Pilot,2022.1.3,Win32,60.0240096,62bbe60bf3d75ef465d3e404,0,128,128,116,1,threeone,,,,,,,,,,
,,,,,,5f91976a948f570115a30933,62bbfa2fd1527db7dc8c9419,2022-06-29_09h09.40.907,Colour_Asymmetry_Pilot,2022.1.3,Win32,60.0240096,62bbe60bf3d75ef465d3e404,0,129,129,61,1,threefour,,,,,,,,,,
,,,,,,5f91976a948f570115a30933,62bbfa2fd1527db7dc8c9419,2022-06-29_09h09.40.907,Colour_Asymmetry_Pilot,2022.1.3,Win32,60.0240096,62bbe60bf3d75ef465d3e404,0,130,130,124,1,threeone,,,,,,,,,,
,,,,,,5f91976a948f570115a30933,62bbfa2fd1527db7dc8c9419,2022-06-29_09h09.40.907,Colour_Asymmetry_Pilot,2022.1.3,Win32,60.0240096,62bbe60bf3d75ef465d3e404,0,131,131,149,1,threefour,,,,,,,,,,
,,,,,,5f91976a948f570115a30933,62bbfa2fd1527db7dc8c9419,2022-06-29_09h09.40.907,Colour_Asymmetry_Pilot,2022.1.3,Win32,60.0240096,62bbe60bf3d75ef465d3e404,0,132,132,17,1,onethree,,,,,,,,,,
,,,,,,5f91976a948f570115a30933,62bbfa2fd1527db7dc8c9419,2022-06-29_09h09.40.907,Colour_Asymmetry_Pilot,2022.1.3,Win32,60.0240096,62bbe60bf3d75ef465d3e404,0,133,133,110,1,fourtwo,,,,,,,,,,
,,,,,,5f91976a948f570115a30933,62bbfa2fd1527db7dc8c9419,2022-06-29_09h09.40.907,Colour_Asymmetry_Pilot,2022.1.3,Win32,60.0240096,62bbe60bf3d75ef465d3e404,0,134,134,121,1,onethree,,,,,,,,,,
,,,,,,5f91976a948f570115a30933,62bbfa2fd1527db7dc8c9419,2022-06-29_09h09.40.907,Colour_Asymmetry_Pilot,2022.1.3,Win32,60.0240096,62bbe60bf3d75ef465d3e404,0,135,135,136,1,onetwo,,,,,,,,,,
,,,,,,5f91976a948f570115a30933,62bbfa2fd1527db7dc8c9419,2022-06-29_09h09.40.907,Colour_Asymmetry_Pilot,2022.1.3,Win32,60.0240096,62bbe60bf3d75ef465d3e404,0,136,136,130,1,twoone,,,,,,,,,,
,,,,,,5f91976a948f570115a30933,62bbfa2fd1527db7dc8c9419,2022-06-29_09h09.40.907,Colour_Asymmetry_Pilot,2022.1.3,Win32,60.0240096,62bbe60bf3d75ef465d3e404,0,137,137,18,1,twoone,,,,,,,,,,
,,,,,,5f91976a948f570115a30933,62bbfa2fd1527db7dc8c9419,2022-06-29_09h09.40.907,Colour_Asymmetry_Pilot,2022.1.3,Win32,60.0240096,62bbe60bf3d75ef465d3e404,0,138,138,29,1,threefour,,,,,,,,,,
,,,,,,5f91976a948f570115a30933,62bbfa2fd1527db7dc8c9419,2022-06-29_09h09.40.907,Colour_Asymmetry_Pilot,2022.1.3,Win32,60.0240096,62bbe60bf3d75ef465d3e404,0,139,139,97,1,onethree,,,,,,,,,,
,,,,,,5f91976a948f570115a30933,62bbfa2fd1527db7dc8c9419,2022-06-29_09h09.40.907,Colour_Asymmetry_Pilot,2022.1.3,Win32,60.0240096,62bbe60bf3d75ef465d3e404,0,140,140,129,1,onethree,,,,,,,,,,
,,,,,,5f91976a948f570115a30933,62bbfa2fd1527db7dc8c9419,2022-06-29_09h09.40.907,Colour_Asymmetry_Pilot,2022.1.3,Win32,60.0240096,62bbe60bf3d75ef465d3e404,0,141,141,7,1,fourthree,,,,,,,,,,
,,,,,,5f91976a948f570115a30933,62bbfa2fd1527db7dc8c9419,2022-06-29_09h09.40.907,Colour_Asymmetry_Pilot,2022.1.3,Win32,60.0240096,62bbe60bf3d75ef465d3e404,0,142,142,52,1,threeone,,,,,,,,,,
,,,,,,5f91976a948f570115a30933,62bbfa2fd1527db7dc8c9419,2022-06-29_09h09.40.907,Colour_Asymmetry_Pilot,2022.1.3,Win32,60.0240096,62bbe60bf3d75ef465d3e404,0,143,143,111,1,fourthree,,,,,,,,,,
,,,,,,5f91976a948f570115a30933,62bbfa2fd1527db7dc8c9419,2022-06-29_09h09.40.907,Colour_Asymmetry_Pilot,2022.1.3,Win32,60.0240096,62bbe60bf3d75ef465d3e404,0,144,144,133,1,threefour,,,,,,,,,,
,,,,,,5f91976a948f570115a30933,62bbfa2fd1527db7dc8c9419,2022-06-29_09h09.40.907,Colour_Asymmetry_Pilot,2022.1.3,Win32,60.0240096,62bbe60bf3d75ef465d3e404,0,145,145,120,1,onetwo,,,,,,,,,,
,,,,,,5f91976a948f570115a30933,62bbfa2fd1527db7dc8c9419,2022-06-29_09h09.40.907,Colour_Asymmetry_Pilot,2022.1.3,Win32,60.0240096,62bbe60bf3d75ef465d3e404,0,146,146,22,1,fourtwo,,,,,,,,,,
,,,,,,5f91976a948f570115a30933,62bbfa2fd1527db7dc8c9419,2022-06-29_09h09.40.907,Colour_Asymmetry_Pilot,2022.1.3,Win32,60.0240096,62bbe60bf3d75ef465d3e404,0,147,147,153,1,onethree,,,,,,,,,,
,,,,,,5f91976a948f570115a30933,62bbfa2fd1527db7dc8c9419,2022-06-29_09h09.40.907,Colour_Asymmetry_Pilot,2022.1.3,Win32,60.0240096,62bbe60bf3d75ef465d3e404,0,148,148,137,1,onethree,,,,,,,,,,
,,,,,,5f91976a948f570115a30933,62bbfa2fd1527db7dc8c9419,2022-06-29_09h09.40.907,Colour_Asymmetry_Pilot,2022.1.3,Win32,60.0240096,62bbe60bf3d75ef465d3e404,0,149,149,81,1,onethree,,,,,,,,,,
,,,,,,5f91976a948f570115a30933,62bbfa2fd1527db7dc8c9419,2022-06-29_09h09.40.907,Colour_Asymmetry_Pilot,2022.1.3,Win32,60.0240096,62bbe60bf3d75ef465d3e404,0,150,150,36,1,threeone,,,,,,,,,,
,,,,,,5f91976a948f570115a30933,62bbfa2fd1527db7dc8c9419,2022-06-29_09h09.40.907,Colour_Asymmetry_Pilot,2022.1.3,Win32,60.0240096,62bbe60bf3d75ef465d3e404,0,151,151,28,1,threeone,,,,,,,,,,
,,,,,,5f91976a948f570115a30933,62bbfa2fd1527db7dc8c9419,2022-06-29_09h09.40.907,Colour_Asymmetry_Pilot,2022.1.3,Win32,60.0240096,62bbe60bf3d75ef465d3e404,0,152,152,1,1,onethree,,,,,,,,,,
,,,,,,5f91976a948f570115a30933,62bbfa2fd1527db7dc8c9419,2022-06-29_09h09.40.907,Colour_Asymmetry_Pilot,2022.1.3,Win32,60.0240096,62bbe60bf3d75ef465d3e404,0,153,153,33,1,onethree,,,,,,,,,,
,,,,,,5f91976a948f570115a30933,62bbfa2fd1527db7dc8c9419,2022-06-29_09h09.40.907,Colour_Asymmetry_Pilot,2022.1.3,Win32,60.0240096,62bbe60bf3d75ef465d3e404,0,154,154,82,1,twoone,,,,,,,,,,
,,,,,,5f91976a948f570115a30933,62bbfa2fd1527db7dc8c9419,2022-06-29_09h09.40.907,Colour_Asymmetry_Pilot,2022.1.3,Win32,60.0240096,62bbe60bf3d75ef465d3e404,0,155,155,5,1,threefour,,,,,,,,,,
,,,,,,5f91976a948f570115a30933,62bbfa2fd1527db7dc8c9419,2022-06-29_09h09.40.907,Colour_Asymmetry_Pilot,2022.1.3,Win32,60.0240096,62bbe60bf3d75ef465d3e404,0,156,156,139,1,twofour,,,,,,,,,,
,,,,,,5f91976a948f570115a30933,62bbfa2fd1527db7dc8c9419,2022-06-29_09h09.40.907,Colour_Asymmetry_Pilot,2022.1.3,Win32,60.0240096,62bbe60bf3d75ef465d3e404,0,157,157,145,1,onethree,,,,,,,,,,
,,,,,,5f91976a948f570115a30933,62bbfa2fd1527db7dc8c9419,2022-06-29_09h09.40.907,Colour_Asymmetry_Pilot,2022.1.3,Win32,60.0240096,62bbe60bf3d75ef465d3e404,0,158,158,55,1,fourthree,,,,,,,,,,
,,,,,,5f91976a948f570115a30933,62bbfa2fd1527db7dc8c9419,2022-06-29_09h09.40.907,Colour_Asymmetry_Pilot,2022.1.3,Win32,60.0240096,62bbe60bf3d75ef465d3e404,0,159,159,56,1,onetwo,,,,,,,,,,
,,,,,,5f91976a948f570115a30933,62bbfa2fd1527db7dc8c9419,2022-06-29_09h09.40.907,Colour_Asymmetry_Pilot,2022.1.3,Win32,60.0240096,62bbe60bf3d75ef465d3e404,0,160,160,77,1,threefour,,,,,,,,,,
,,,,,,5f91976a948f570115a30933,62bbfa2fd1527db7dc8c9419,2022-06-29_09h09.40.907,Colour_Asymmetry_Pilot,2022.1.3,Win32,60.0240096,62bbe60bf3d75ef465d3e404,0,161,161,8,1,onetwo,,,,,,,,,,
,,,,,,5f91976a948f570115a30933,62bbfa2fd1527db7dc8c9419,2022-06-29_09h09.40.907,Colour_Asymmetry_Pilot,2022.1.3,Win32,60.0240096,62bbe60bf3d75ef465d3e404,,,,,,,space,15.532,space,3.061,space,58.95,space,18.243,space,6.238
