trials.thisRepN,trials.thisTrialN,trials.thisN,trials.thisIndex,trials.ran,Colourcodes,participant,session,date,expName,psychopyVersion,OS,frameRate,study_id,trials_4.thisRepN,trials_4.thisTrialN,trials_4.thisN,trials_4.thisIndex,trials_4.ran,StimulusPos
0,0,0,79,1,,61633b443e445822fb1f24c9,62c53cd057ad50af44d9d107,2022-07-06_09h53.47.235,Colour_Asymmetry_Pilot,2022.1.3,Win32,20.02402883,62c50e9c1127f2cd403a315f,,,,,,
0,1,1,28,1,,61633b443e445822fb1f24c9,62c53cd057ad50af44d9d107,2022-07-06_09h53.47.235,Colour_Asymmetry_Pilot,2022.1.3,Win32,20.02402883,62c50e9c1127f2cd403a315f,,,,,,
0,2,2,33,1,,61633b443e445822fb1f24c9,62c53cd057ad50af44d9d107,2022-07-06_09h53.47.235,Colour_Asymmetry_Pilot,2022.1.3,Win32,20.02402883,62c50e9c1127f2cd403a315f,,,,,,
0,3,3,32,1,,61633b443e445822fb1f24c9,62c53cd057ad50af44d9d107,2022-07-06_09h53.47.235,Colour_Asymmetry_Pilot,2022.1.3,Win32,20.02402883,62c50e9c1127f2cd403a315f,,,,,,
0,4,4,66,1,,61633b443e445822fb1f24c9,62c53cd057ad50af44d9d107,2022-07-06_09h53.47.235,Colour_Asymmetry_Pilot,2022.1.3,Win32,20.02402883,62c50e9c1127f2cd403a315f,,,,,,
0,5,5,13,1,,61633b443e445822fb1f24c9,62c53cd057ad50af44d9d107,2022-07-06_09h53.47.235,Colour_Asymmetry_Pilot,2022.1.3,Win32,20.02402883,62c50e9c1127f2cd403a315f,,,,,,
0,6,6,63,1,,61633b443e445822fb1f24c9,62c53cd057ad50af44d9d107,2022-07-06_09h53.47.235,Colour_Asymmetry_Pilot,2022.1.3,Win32,20.02402883,62c50e9c1127f2cd403a315f,,,,,,
0,7,7,19,1,,61633b443e445822fb1f24c9,62c53cd057ad50af44d9d107,2022-07-06_09h53.47.235,Colour_Asymmetry_Pilot,2022.1.3,Win32,20.02402883,62c50e9c1127f2cd403a315f,,,,,,
0,8,8,84,1,,61633b443e445822fb1f24c9,62c53cd057ad50af44d9d107,2022-07-06_09h53.47.235,Colour_Asymmetry_Pilot,2022.1.3,Win32,20.02402883,62c50e9c1127f2cd403a315f,,,,,,
0,9,9,14,1,,61633b443e445822fb1f24c9,62c53cd057ad50af44d9d107,2022-07-06_09h53.47.235,Colour_Asymmetry_Pilot,2022.1.3,Win32,20.02402883,62c50e9c1127f2cd403a315f,,,,,,
0,10,10,83,1,,61633b443e445822fb1f24c9,62c53cd057ad50af44d9d107,2022-07-06_09h53.47.235,Colour_Asymmetry_Pilot,2022.1.3,Win32,20.02402883,62c50e9c1127f2cd403a315f,,,,,,
0,11,11,31,1,,61633b443e445822fb1f24c9,62c53cd057ad50af44d9d107,2022-07-06_09h53.47.235,Colour_Asymmetry_Pilot,2022.1.3,Win32,20.02402883,62c50e9c1127f2cd403a315f,,,,,,
0,12,12,20,1,,61633b443e445822fb1f24c9,62c53cd057ad50af44d9d107,2022-07-06_09h53.47.235,Colour_Asymmetry_Pilot,2022.1.3,Win32,20.02402883,62c50e9c1127f2cd403a315f,,,,,,
0,13,13,56,1,,61633b443e445822fb1f24c9,62c53cd057ad50af44d9d107,2022-07-06_09h53.47.235,Colour_Asymmetry_Pilot,2022.1.3,Win32,20.02402883,62c50e9c1127f2cd403a315f,,,,,,
0,14,14,21,1,,61633b443e445822fb1f24c9,62c53cd057ad50af44d9d107,2022-07-06_09h53.47.235,Colour_Asymmetry_Pilot,2022.1.3,Win32,20.02402883,62c50e9c1127f2cd403a315f,,,,,,
0,15,15,43,1,,61633b443e445822fb1f24c9,62c53cd057ad50af44d9d107,2022-07-06_09h53.47.235,Colour_Asymmetry_Pilot,2022.1.3,Win32,20.02402883,62c50e9c1127f2cd403a315f,,,,,,
0,16,16,59,1,,61633b443e445822fb1f24c9,62c53cd057ad50af44d9d107,2022-07-06_09h53.47.235,Colour_Asymmetry_Pilot,2022.1.3,Win32,20.02402883,62c50e9c1127f2cd403a315f,,,,,,
0,17,17,58,1,,61633b443e445822fb1f24c9,62c53cd057ad50af44d9d107,2022-07-06_09h53.47.235,Colour_Asymmetry_Pilot,2022.1.3,Win32,20.02402883,62c50e9c1127f2cd403a315f,,,,,,
0,18,18,3,1,,61633b443e445822fb1f24c9,62c53cd057ad50af44d9d107,2022-07-06_09h53.47.235,Colour_Asymmetry_Pilot,2022.1.3,Win32,20.02402883,62c50e9c1127f2cd403a315f,,,,,,
0,19,19,60,1,,61633b443e445822fb1f24c9,62c53cd057ad50af44d9d107,2022-07-06_09h53.47.235,Colour_Asymmetry_Pilot,2022.1.3,Win32,20.02402883,62c50e9c1127f2cd403a315f,,,,,,
0,20,20,42,1,,61633b443e445822fb1f24c9,62c53cd057ad50af44d9d107,2022-07-06_09h53.47.235,Colour_Asymmetry_Pilot,2022.1.3,Win32,20.02402883,62c50e9c1127f2cd403a315f,,,,,,
0,21,21,76,1,,61633b443e445822fb1f24c9,62c53cd057ad50af44d9d107,2022-07-06_09h53.47.235,Colour_Asymmetry_Pilot,2022.1.3,Win32,20.02402883,62c50e9c1127f2cd403a315f,,,,,,
0,22,22,81,1,,61633b443e445822fb1f24c9,62c53cd057ad50af44d9d107,2022-07-06_09h53.47.235,Colour_Asymmetry_Pilot,2022.1.3,Win32,20.02402883,62c50e9c1127f2cd403a315f,,,,,,
0,23,23,57,1,,61633b443e445822fb1f24c9,62c53cd057ad50af44d9d107,2022-07-06_09h53.47.235,Colour_Asymmetry_Pilot,2022.1.3,Win32,20.02402883,62c50e9c1127f2cd403a315f,,,,,,
0,24,24,74,1,,61633b443e445822fb1f24c9,62c53cd057ad50af44d9d107,2022-07-06_09h53.47.235,Colour_Asymmetry_Pilot,2022.1.3,Win32,20.02402883,62c50e9c1127f2cd403a315f,,,,,,
0,25,25,53,1,,61633b443e445822fb1f24c9,62c53cd057ad50af44d9d107,2022-07-06_09h53.47.235,Colour_Asymmetry_Pilot,2022.1.3,Win32,20.02402883,62c50e9c1127f2cd403a315f,,,,,,
0,26,26,2,1,,61633b443e445822fb1f24c9,62c53cd057ad50af44d9d107,2022-07-06_09h53.47.235,Colour_Asymmetry_Pilot,2022.1.3,Win32,20.02402883,62c50e9c1127f2cd403a315f,,,,,,
0,27,27,10,1,,61633b443e445822fb1f24c9,62c53cd057ad50af44d9d107,2022-07-06_09h53.47.235,Colour_Asymmetry_Pilot,2022.1.3,Win32,20.02402883,62c50e9c1127f2cd403a315f,,,,,,
0,28,28,88,1,,61633b443e445822fb1f24c9,62c53cd057ad50af44d9d107,2022-07-06_09h53.47.235,Colour_Asymmetry_Pilot,2022.1.3,Win32,20.02402883,62c50e9c1127f2cd403a315f,,,,,,
0,29,29,36,1,,61633b443e445822fb1f24c9,62c53cd057ad50af44d9d107,2022-07-06_09h53.47.235,Colour_Asymmetry_Pilot,2022.1.3,Win32,20.02402883,62c50e9c1127f2cd403a315f,,,,,,
0,30,30,37,1,,61633b443e445822fb1f24c9,62c53cd057ad50af44d9d107,2022-07-06_09h53.47.235,Colour_Asymmetry_Pilot,2022.1.3,Win32,20.02402883,62c50e9c1127f2cd403a315f,,,,,,
0,31,31,46,1,,61633b443e445822fb1f24c9,62c53cd057ad50af44d9d107,2022-07-06_09h53.47.235,Colour_Asymmetry_Pilot,2022.1.3,Win32,20.02402883,62c50e9c1127f2cd403a315f,,,,,,
0,32,32,15,1,,61633b443e445822fb1f24c9,62c53cd057ad50af44d9d107,2022-07-06_09h53.47.235,Colour_Asymmetry_Pilot,2022.1.3,Win32,20.02402883,62c50e9c1127f2cd403a315f,,,,,,
0,33,33,25,1,,61633b443e445822fb1f24c9,62c53cd057ad50af44d9d107,2022-07-06_09h53.47.235,Colour_Asymmetry_Pilot,2022.1.3,Win32,20.02402883,62c50e9c1127f2cd403a315f,,,,,,
0,34,34,85,1,,61633b443e445822fb1f24c9,62c53cd057ad50af44d9d107,2022-07-06_09h53.47.235,Colour_Asymmetry_Pilot,2022.1.3,Win32,20.02402883,62c50e9c1127f2cd403a315f,,,,,,
0,35,35,61,1,,61633b443e445822fb1f24c9,62c53cd057ad50af44d9d107,2022-07-06_09h53.47.235,Colour_Asymmetry_Pilot,2022.1.3,Win32,20.02402883,62c50e9c1127f2cd403a315f,,,,,,
0,36,36,18,1,,61633b443e445822fb1f24c9,62c53cd057ad50af44d9d107,2022-07-06_09h53.47.235,Colour_Asymmetry_Pilot,2022.1.3,Win32,20.02402883,62c50e9c1127f2cd403a315f,,,,,,
0,37,37,29,1,,61633b443e445822fb1f24c9,62c53cd057ad50af44d9d107,2022-07-06_09h53.47.235,Colour_Asymmetry_Pilot,2022.1.3,Win32,20.02402883,62c50e9c1127f2cd403a315f,,,,,,
0,38,38,0,1,,61633b443e445822fb1f24c9,62c53cd057ad50af44d9d107,2022-07-06_09h53.47.235,Colour_Asymmetry_Pilot,2022.1.3,Win32,20.02402883,62c50e9c1127f2cd403a315f,,,,,,
0,39,39,9,1,,61633b443e445822fb1f24c9,62c53cd057ad50af44d9d107,2022-07-06_09h53.47.235,Colour_Asymmetry_Pilot,2022.1.3,Win32,20.02402883,62c50e9c1127f2cd403a315f,,,,,,
0,40,40,65,1,,61633b443e445822fb1f24c9,62c53cd057ad50af44d9d107,2022-07-06_09h53.47.235,Colour_Asymmetry_Pilot,2022.1.3,Win32,20.02402883,62c50e9c1127f2cd403a315f,,,,,,
0,41,41,55,1,,61633b443e445822fb1f24c9,62c53cd057ad50af44d9d107,2022-07-06_09h53.47.235,Colour_Asymmetry_Pilot,2022.1.3,Win32,20.02402883,62c50e9c1127f2cd403a315f,,,,,,
0,42,42,38,1,,61633b443e445822fb1f24c9,62c53cd057ad50af44d9d107,2022-07-06_09h53.47.235,Colour_Asymmetry_Pilot,2022.1.3,Win32,20.02402883,62c50e9c1127f2cd403a315f,,,,,,
0,43,43,8,1,,61633b443e445822fb1f24c9,62c53cd057ad50af44d9d107,2022-07-06_09h53.47.235,Colour_Asymmetry_Pilot,2022.1.3,Win32,20.02402883,62c50e9c1127f2cd403a315f,,,,,,
0,44,44,62,1,,61633b443e445822fb1f24c9,62c53cd057ad50af44d9d107,2022-07-06_09h53.47.235,Colour_Asymmetry_Pilot,2022.1.3,Win32,20.02402883,62c50e9c1127f2cd403a315f,,,,,,
0,45,45,87,1,,61633b443e445822fb1f24c9,62c53cd057ad50af44d9d107,2022-07-06_09h53.47.235,Colour_Asymmetry_Pilot,2022.1.3,Win32,20.02402883,62c50e9c1127f2cd403a315f,,,,,,
0,46,46,86,1,,61633b443e445822fb1f24c9,62c53cd057ad50af44d9d107,2022-07-06_09h53.47.235,Colour_Asymmetry_Pilot,2022.1.3,Win32,20.02402883,62c50e9c1127f2cd403a315f,,,,,,
0,47,47,22,1,,61633b443e445822fb1f24c9,62c53cd057ad50af44d9d107,2022-07-06_09h53.47.235,Colour_Asymmetry_Pilot,2022.1.3,Win32,20.02402883,62c50e9c1127f2cd403a315f,,,,,,
0,48,48,12,1,,61633b443e445822fb1f24c9,62c53cd057ad50af44d9d107,2022-07-06_09h53.47.235,Colour_Asymmetry_Pilot,2022.1.3,Win32,20.02402883,62c50e9c1127f2cd403a315f,,,,,,
0,49,49,64,1,,61633b443e445822fb1f24c9,62c53cd057ad50af44d9d107,2022-07-06_09h53.47.235,Colour_Asymmetry_Pilot,2022.1.3,Win32,20.02402883,62c50e9c1127f2cd403a315f,,,,,,
0,50,50,90,1,,61633b443e445822fb1f24c9,62c53cd057ad50af44d9d107,2022-07-06_09h53.47.235,Colour_Asymmetry_Pilot,2022.1.3,Win32,20.02402883,62c50e9c1127f2cd403a315f,,,,,,
0,51,51,70,1,,61633b443e445822fb1f24c9,62c53cd057ad50af44d9d107,2022-07-06_09h53.47.235,Colour_Asymmetry_Pilot,2022.1.3,Win32,20.02402883,62c50e9c1127f2cd403a315f,,,,,,
0,52,52,24,1,,61633b443e445822fb1f24c9,62c53cd057ad50af44d9d107,2022-07-06_09h53.47.235,Colour_Asymmetry_Pilot,2022.1.3,Win32,20.02402883,62c50e9c1127f2cd403a315f,,,,,,
0,53,53,72,1,,61633b443e445822fb1f24c9,62c53cd057ad50af44d9d107,2022-07-06_09h53.47.235,Colour_Asymmetry_Pilot,2022.1.3,Win32,20.02402883,62c50e9c1127f2cd403a315f,,,,,,
0,54,54,30,1,,61633b443e445822fb1f24c9,62c53cd057ad50af44d9d107,2022-07-06_09h53.47.235,Colour_Asymmetry_Pilot,2022.1.3,Win32,20.02402883,62c50e9c1127f2cd403a315f,,,,,,
0,55,55,71,1,,61633b443e445822fb1f24c9,62c53cd057ad50af44d9d107,2022-07-06_09h53.47.235,Colour_Asymmetry_Pilot,2022.1.3,Win32,20.02402883,62c50e9c1127f2cd403a315f,,,,,,
0,56,56,52,1,,61633b443e445822fb1f24c9,62c53cd057ad50af44d9d107,2022-07-06_09h53.47.235,Colour_Asymmetry_Pilot,2022.1.3,Win32,20.02402883,62c50e9c1127f2cd403a315f,,,,,,
0,57,57,39,1,,61633b443e445822fb1f24c9,62c53cd057ad50af44d9d107,2022-07-06_09h53.47.235,Colour_Asymmetry_Pilot,2022.1.3,Win32,20.02402883,62c50e9c1127f2cd403a315f,,,,,,
0,58,58,11,1,,61633b443e445822fb1f24c9,62c53cd057ad50af44d9d107,2022-07-06_09h53.47.235,Colour_Asymmetry_Pilot,2022.1.3,Win32,20.02402883,62c50e9c1127f2cd403a315f,,,,,,
0,59,59,50,1,,61633b443e445822fb1f24c9,62c53cd057ad50af44d9d107,2022-07-06_09h53.47.235,Colour_Asymmetry_Pilot,2022.1.3,Win32,20.02402883,62c50e9c1127f2cd403a315f,,,,,,
0,60,60,7,1,,61633b443e445822fb1f24c9,62c53cd057ad50af44d9d107,2022-07-06_09h53.47.235,Colour_Asymmetry_Pilot,2022.1.3,Win32,20.02402883,62c50e9c1127f2cd403a315f,,,,,,
0,61,61,75,1,,61633b443e445822fb1f24c9,62c53cd057ad50af44d9d107,2022-07-06_09h53.47.235,Colour_Asymmetry_Pilot,2022.1.3,Win32,20.02402883,62c50e9c1127f2cd403a315f,,,,,,
0,62,62,45,1,,61633b443e445822fb1f24c9,62c53cd057ad50af44d9d107,2022-07-06_09h53.47.235,Colour_Asymmetry_Pilot,2022.1.3,Win32,20.02402883,62c50e9c1127f2cd403a315f,,,,,,
0,63,63,41,1,,61633b443e445822fb1f24c9,62c53cd057ad50af44d9d107,2022-07-06_09h53.47.235,Colour_Asymmetry_Pilot,2022.1.3,Win32,20.02402883,62c50e9c1127f2cd403a315f,,,,,,
0,64,64,77,1,,61633b443e445822fb1f24c9,62c53cd057ad50af44d9d107,2022-07-06_09h53.47.235,Colour_Asymmetry_Pilot,2022.1.3,Win32,20.02402883,62c50e9c1127f2cd403a315f,,,,,,
0,65,65,40,1,,61633b443e445822fb1f24c9,62c53cd057ad50af44d9d107,2022-07-06_09h53.47.235,Colour_Asymmetry_Pilot,2022.1.3,Win32,20.02402883,62c50e9c1127f2cd403a315f,,,,,,
0,66,66,68,1,,61633b443e445822fb1f24c9,62c53cd057ad50af44d9d107,2022-07-06_09h53.47.235,Colour_Asymmetry_Pilot,2022.1.3,Win32,20.02402883,62c50e9c1127f2cd403a315f,,,,,,
0,67,67,4,1,,61633b443e445822fb1f24c9,62c53cd057ad50af44d9d107,2022-07-06_09h53.47.235,Colour_Asymmetry_Pilot,2022.1.3,Win32,20.02402883,62c50e9c1127f2cd403a315f,,,,,,
0,68,68,73,1,,61633b443e445822fb1f24c9,62c53cd057ad50af44d9d107,2022-07-06_09h53.47.235,Colour_Asymmetry_Pilot,2022.1.3,Win32,20.02402883,62c50e9c1127f2cd403a315f,,,,,,
0,69,69,35,1,,61633b443e445822fb1f24c9,62c53cd057ad50af44d9d107,2022-07-06_09h53.47.235,Colour_Asymmetry_Pilot,2022.1.3,Win32,20.02402883,62c50e9c1127f2cd403a315f,,,,,,
0,70,70,80,1,,61633b443e445822fb1f24c9,62c53cd057ad50af44d9d107,2022-07-06_09h53.47.235,Colour_Asymmetry_Pilot,2022.1.3,Win32,20.02402883,62c50e9c1127f2cd403a315f,,,,,,
0,71,71,89,1,,61633b443e445822fb1f24c9,62c53cd057ad50af44d9d107,2022-07-06_09h53.47.235,Colour_Asymmetry_Pilot,2022.1.3,Win32,20.02402883,62c50e9c1127f2cd403a315f,,,,,,
0,72,72,91,1,,61633b443e445822fb1f24c9,62c53cd057ad50af44d9d107,2022-07-06_09h53.47.235,Colour_Asymmetry_Pilot,2022.1.3,Win32,20.02402883,62c50e9c1127f2cd403a315f,,,,,,
0,73,73,82,1,,61633b443e445822fb1f24c9,62c53cd057ad50af44d9d107,2022-07-06_09h53.47.235,Colour_Asymmetry_Pilot,2022.1.3,Win32,20.02402883,62c50e9c1127f2cd403a315f,,,,,,
0,74,74,69,1,,61633b443e445822fb1f24c9,62c53cd057ad50af44d9d107,2022-07-06_09h53.47.235,Colour_Asymmetry_Pilot,2022.1.3,Win32,20.02402883,62c50e9c1127f2cd403a315f,,,,,,
0,75,75,23,1,,61633b443e445822fb1f24c9,62c53cd057ad50af44d9d107,2022-07-06_09h53.47.235,Colour_Asymmetry_Pilot,2022.1.3,Win32,20.02402883,62c50e9c1127f2cd403a315f,,,,,,
0,76,76,48,1,,61633b443e445822fb1f24c9,62c53cd057ad50af44d9d107,2022-07-06_09h53.47.235,Colour_Asymmetry_Pilot,2022.1.3,Win32,20.02402883,62c50e9c1127f2cd403a315f,,,,,,
0,77,77,5,1,,61633b443e445822fb1f24c9,62c53cd057ad50af44d9d107,2022-07-06_09h53.47.235,Colour_Asymmetry_Pilot,2022.1.3,Win32,20.02402883,62c50e9c1127f2cd403a315f,,,,,,
0,78,78,47,1,,61633b443e445822fb1f24c9,62c53cd057ad50af44d9d107,2022-07-06_09h53.47.235,Colour_Asymmetry_Pilot,2022.1.3,Win32,20.02402883,62c50e9c1127f2cd403a315f,,,,,,
0,79,79,6,1,,61633b443e445822fb1f24c9,62c53cd057ad50af44d9d107,2022-07-06_09h53.47.235,Colour_Asymmetry_Pilot,2022.1.3,Win32,20.02402883,62c50e9c1127f2cd403a315f,,,,,,
0,80,80,34,1,,61633b443e445822fb1f24c9,62c53cd057ad50af44d9d107,2022-07-06_09h53.47.235,Colour_Asymmetry_Pilot,2022.1.3,Win32,20.02402883,62c50e9c1127f2cd403a315f,,,,,,
0,81,81,92,1,,61633b443e445822fb1f24c9,62c53cd057ad50af44d9d107,2022-07-06_09h53.47.235,Colour_Asymmetry_Pilot,2022.1.3,Win32,20.02402883,62c50e9c1127f2cd403a315f,,,,,,
0,82,82,17,1,,61633b443e445822fb1f24c9,62c53cd057ad50af44d9d107,2022-07-06_09h53.47.235,Colour_Asymmetry_Pilot,2022.1.3,Win32,20.02402883,62c50e9c1127f2cd403a315f,,,,,,
0,83,83,49,1,,61633b443e445822fb1f24c9,62c53cd057ad50af44d9d107,2022-07-06_09h53.47.235,Colour_Asymmetry_Pilot,2022.1.3,Win32,20.02402883,62c50e9c1127f2cd403a315f,,,,,,
0,84,84,16,1,,61633b443e445822fb1f24c9,62c53cd057ad50af44d9d107,2022-07-06_09h53.47.235,Colour_Asymmetry_Pilot,2022.1.3,Win32,20.02402883,62c50e9c1127f2cd403a315f,,,,,,
0,85,85,26,1,,61633b443e445822fb1f24c9,62c53cd057ad50af44d9d107,2022-07-06_09h53.47.235,Colour_Asymmetry_Pilot,2022.1.3,Win32,20.02402883,62c50e9c1127f2cd403a315f,,,,,,
0,86,86,78,1,,61633b443e445822fb1f24c9,62c53cd057ad50af44d9d107,2022-07-06_09h53.47.235,Colour_Asymmetry_Pilot,2022.1.3,Win32,20.02402883,62c50e9c1127f2cd403a315f,,,,,,
0,87,87,54,1,,61633b443e445822fb1f24c9,62c53cd057ad50af44d9d107,2022-07-06_09h53.47.235,Colour_Asymmetry_Pilot,2022.1.3,Win32,20.02402883,62c50e9c1127f2cd403a315f,,,,,,
0,88,88,1,1,,61633b443e445822fb1f24c9,62c53cd057ad50af44d9d107,2022-07-06_09h53.47.235,Colour_Asymmetry_Pilot,2022.1.3,Win32,20.02402883,62c50e9c1127f2cd403a315f,,,,,,
0,89,89,27,1,,61633b443e445822fb1f24c9,62c53cd057ad50af44d9d107,2022-07-06_09h53.47.235,Colour_Asymmetry_Pilot,2022.1.3,Win32,20.02402883,62c50e9c1127f2cd403a315f,,,,,,
0,90,90,51,1,,61633b443e445822fb1f24c9,62c53cd057ad50af44d9d107,2022-07-06_09h53.47.235,Colour_Asymmetry_Pilot,2022.1.3,Win32,20.02402883,62c50e9c1127f2cd403a315f,,,,,,
0,91,91,44,1,,61633b443e445822fb1f24c9,62c53cd057ad50af44d9d107,2022-07-06_09h53.47.235,Colour_Asymmetry_Pilot,2022.1.3,Win32,20.02402883,62c50e9c1127f2cd403a315f,,,,,,
0,92,92,67,1,,61633b443e445822fb1f24c9,62c53cd057ad50af44d9d107,2022-07-06_09h53.47.235,Colour_Asymmetry_Pilot,2022.1.3,Win32,20.02402883,62c50e9c1127f2cd403a315f,,,,,,
,,,,,,61633b443e445822fb1f24c9,62c53cd057ad50af44d9d107,2022-07-06_09h53.47.235,Colour_Asymmetry_Pilot,2022.1.3,Win32,20.02402883,62c50e9c1127f2cd403a315f,0,0,0,154,1,twoone
,,,,,,61633b443e445822fb1f24c9,62c53cd057ad50af44d9d107,2022-07-06_09h53.47.235,Colour_Asymmetry_Pilot,2022.1.3,Win32,20.02402883,62c50e9c1127f2cd403a315f,0,1,1,3,1,twofour
,,,,,,61633b443e445822fb1f24c9,62c53cd057ad50af44d9d107,2022-07-06_09h53.47.235,Colour_Asymmetry_Pilot,2022.1.3,Win32,20.02402883,62c50e9c1127f2cd403a315f,0,2,2,49,1,onethree
,,,,,,61633b443e445822fb1f24c9,62c53cd057ad50af44d9d107,2022-07-06_09h53.47.235,Colour_Asymmetry_Pilot,2022.1.3,Win32,20.02402883,62c50e9c1127f2cd403a315f,0,3,3,94,1,fourtwo
,,,,,,61633b443e445822fb1f24c9,62c53cd057ad50af44d9d107,2022-07-06_09h53.47.235,Colour_Asymmetry_Pilot,2022.1.3,Win32,20.02402883,62c50e9c1127f2cd403a315f,0,4,4,34,1,twoone
,,,,,,61633b443e445822fb1f24c9,62c53cd057ad50af44d9d107,2022-07-06_09h53.47.235,Colour_Asymmetry_Pilot,2022.1.3,Win32,20.02402883,62c50e9c1127f2cd403a315f,0,5,5,113,1,onethree
,,,,,,61633b443e445822fb1f24c9,62c53cd057ad50af44d9d107,2022-07-06_09h53.47.235,Colour_Asymmetry_Pilot,2022.1.3,Win32,20.02402883,62c50e9c1127f2cd403a315f,0,6,6,13,1,threefour
,,,,,,61633b443e445822fb1f24c9,62c53cd057ad50af44d9d107,2022-07-06_09h53.47.235,Colour_Asymmetry_Pilot,2022.1.3,Win32,20.02402883,62c50e9c1127f2cd403a315f,0,7,7,109,1,threefour
,,,,,,61633b443e445822fb1f24c9,62c53cd057ad50af44d9d107,2022-07-06_09h53.47.235,Colour_Asymmetry_Pilot,2022.1.3,Win32,20.02402883,62c50e9c1127f2cd403a315f,0,8,8,158,1,fourtwo
,,,,,,61633b443e445822fb1f24c9,62c53cd057ad50af44d9d107,2022-07-06_09h53.47.235,Colour_Asymmetry_Pilot,2022.1.3,Win32,20.02402883,62c50e9c1127f2cd403a315f,0,9,9,129,1,onethree
,,,,,,61633b443e445822fb1f24c9,62c53cd057ad50af44d9d107,2022-07-06_09h53.47.235,Colour_Asymmetry_Pilot,2022.1.3,Win32,20.02402883,62c50e9c1127f2cd403a315f,0,10,10,155,1,twofour
,,,,,,61633b443e445822fb1f24c9,62c53cd057ad50af44d9d107,2022-07-06_09h53.47.235,Colour_Asymmetry_Pilot,2022.1.3,Win32,20.02402883,62c50e9c1127f2cd403a315f,0,11,11,36,1,threeone
,,,,,,61633b443e445822fb1f24c9,62c53cd057ad50af44d9d107,2022-07-06_09h53.47.235,Colour_Asymmetry_Pilot,2022.1.3,Win32,20.02402883,62c50e9c1127f2cd403a315f,0,12,12,130,1,twoone
,,,,,,61633b443e445822fb1f24c9,62c53cd057ad50af44d9d107,2022-07-06_09h53.47.235,Colour_Asymmetry_Pilot,2022.1.3,Win32,20.02402883,62c50e9c1127f2cd403a315f,0,13,13,32,1,onetwo
,,,,,,61633b443e445822fb1f24c9,62c53cd057ad50af44d9d107,2022-07-06_09h53.47.235,Colour_Asymmetry_Pilot,2022.1.3,Win32,20.02402883,62c50e9c1127f2cd403a315f,0,14,14,59,1,twofour
,,,,,,61633b443e445822fb1f24c9,62c53cd057ad50af44d9d107,2022-07-06_09h53.47.235,Colour_Asymmetry_Pilot,2022.1.3,Win32,20.02402883,62c50e9c1127f2cd403a315f,0,15,15,127,1,fourthree
,,,,,,61633b443e445822fb1f24c9,62c53cd057ad50af44d9d107,2022-07-06_09h53.47.235,Colour_Asymmetry_Pilot,2022.1.3,Win32,20.02402883,62c50e9c1127f2cd403a315f,0,16,16,86,1,fourtwo
,,,,,,61633b443e445822fb1f24c9,62c53cd057ad50af44d9d107,2022-07-06_09h53.47.235,Colour_Asymmetry_Pilot,2022.1.3,Win32,20.02402883,62c50e9c1127f2cd403a315f,0,17,17,108,1,threeone
,,,,,,61633b443e445822fb1f24c9,62c53cd057ad50af44d9d107,2022-07-06_09h53.47.235,Colour_Asymmetry_Pilot,2022.1.3,Win32,20.02402883,62c50e9c1127f2cd403a315f,0,18,18,159,1,fourthree
,,,,,,61633b443e445822fb1f24c9,62c53cd057ad50af44d9d107,2022-07-06_09h53.47.235,Colour_Asymmetry_Pilot,2022.1.3,Win32,20.02402883,62c50e9c1127f2cd403a315f,0,19,19,81,1,onethree
,,,,,,61633b443e445822fb1f24c9,62c53cd057ad50af44d9d107,2022-07-06_09h53.47.235,Colour_Asymmetry_Pilot,2022.1.3,Win32,20.02402883,62c50e9c1127f2cd403a315f,0,20,20,31,1,fourthree
,,,,,,61633b443e445822fb1f24c9,62c53cd057ad50af44d9d107,2022-07-06_09h53.47.235,Colour_Asymmetry_Pilot,2022.1.3,Win32,20.02402883,62c50e9c1127f2cd403a315f,0,21,21,115,1,twofour
,,,,,,61633b443e445822fb1f24c9,62c53cd057ad50af44d9d107,2022-07-06_09h53.47.235,Colour_Asymmetry_Pilot,2022.1.3,Win32,20.02402883,62c50e9c1127f2cd403a315f,0,22,22,14,1,fourtwo
,,,,,,61633b443e445822fb1f24c9,62c53cd057ad50af44d9d107,2022-07-06_09h53.47.235,Colour_Asymmetry_Pilot,2022.1.3,Win32,20.02402883,62c50e9c1127f2cd403a315f,0,23,23,104,1,onetwo
,,,,,,61633b443e445822fb1f24c9,62c53cd057ad50af44d9d107,2022-07-06_09h53.47.235,Colour_Asymmetry_Pilot,2022.1.3,Win32,20.02402883,62c50e9c1127f2cd403a315f,0,24,24,33,1,onethree
,,,,,,61633b443e445822fb1f24c9,62c53cd057ad50af44d9d107,2022-07-06_09h53.47.235,Colour_Asymmetry_Pilot,2022.1.3,Win32,20.02402883,62c50e9c1127f2cd403a315f,0,25,25,140,1,threeone
,,,,,,61633b443e445822fb1f24c9,62c53cd057ad50af44d9d107,2022-07-06_09h53.47.235,Colour_Asymmetry_Pilot,2022.1.3,Win32,20.02402883,62c50e9c1127f2cd403a315f,0,26,26,106,1,twoone
,,,,,,61633b443e445822fb1f24c9,62c53cd057ad50af44d9d107,2022-07-06_09h53.47.235,Colour_Asymmetry_Pilot,2022.1.3,Win32,20.02402883,62c50e9c1127f2cd403a315f,0,27,27,93,1,threefour
,,,,,,61633b443e445822fb1f24c9,62c53cd057ad50af44d9d107,2022-07-06_09h53.47.235,Colour_Asymmetry_Pilot,2022.1.3,Win32,20.02402883,62c50e9c1127f2cd403a315f,0,28,28,90,1,twoone
,,,,,,61633b443e445822fb1f24c9,62c53cd057ad50af44d9d107,2022-07-06_09h53.47.235,Colour_Asymmetry_Pilot,2022.1.3,Win32,20.02402883,62c50e9c1127f2cd403a315f,0,29,29,153,1,onethree
,,,,,,61633b443e445822fb1f24c9,62c53cd057ad50af44d9d107,2022-07-06_09h53.47.235,Colour_Asymmetry_Pilot,2022.1.3,Win32,20.02402883,62c50e9c1127f2cd403a315f,0,30,30,84,1,threeone
,,,,,,61633b443e445822fb1f24c9,62c53cd057ad50af44d9d107,2022-07-06_09h53.47.235,Colour_Asymmetry_Pilot,2022.1.3,Win32,20.02402883,62c50e9c1127f2cd403a315f,0,31,31,145,1,onethree
,,,,,,61633b443e445822fb1f24c9,62c53cd057ad50af44d9d107,2022-07-06_09h53.47.235,Colour_Asymmetry_Pilot,2022.1.3,Win32,20.02402883,62c50e9c1127f2cd403a315f,0,32,32,128,1,onetwo
,,,,,,61633b443e445822fb1f24c9,62c53cd057ad50af44d9d107,2022-07-06_09h53.47.235,Colour_Asymmetry_Pilot,2022.1.3,Win32,20.02402883,62c50e9c1127f2cd403a315f,0,33,33,51,1,twofour
,,,,,,61633b443e445822fb1f24c9,62c53cd057ad50af44d9d107,2022-07-06_09h53.47.235,Colour_Asymmetry_Pilot,2022.1.3,Win32,20.02402883,62c50e9c1127f2cd403a315f,0,34,34,46,1,fourtwo
,,,,,,61633b443e445822fb1f24c9,62c53cd057ad50af44d9d107,2022-07-06_09h53.47.235,Colour_Asymmetry_Pilot,2022.1.3,Win32,20.02402883,62c50e9c1127f2cd403a315f,0,35,35,87,1,fourthree
,,,,,,61633b443e445822fb1f24c9,62c53cd057ad50af44d9d107,2022-07-06_09h53.47.235,Colour_Asymmetry_Pilot,2022.1.3,Win32,20.02402883,62c50e9c1127f2cd403a315f,0,36,36,100,1,threeone
,,,,,,61633b443e445822fb1f24c9,62c53cd057ad50af44d9d107,2022-07-06_09h53.47.235,Colour_Asymmetry_Pilot,2022.1.3,Win32,20.02402883,62c50e9c1127f2cd403a315f,0,37,37,69,1,threefour
,,,,,,61633b443e445822fb1f24c9,62c53cd057ad50af44d9d107,2022-07-06_09h53.47.235,Colour_Asymmetry_Pilot,2022.1.3,Win32,20.02402883,62c50e9c1127f2cd403a315f,0,38,38,47,1,fourthree
,,,,,,61633b443e445822fb1f24c9,62c53cd057ad50af44d9d107,2022-07-06_09h53.47.235,Colour_Asymmetry_Pilot,2022.1.3,Win32,20.02402883,62c50e9c1127f2cd403a315f,0,39,39,157,1,threefour
,,,,,,61633b443e445822fb1f24c9,62c53cd057ad50af44d9d107,2022-07-06_09h53.47.235,Colour_Asymmetry_Pilot,2022.1.3,Win32,20.02402883,62c50e9c1127f2cd403a315f,0,40,40,99,1,twofour
,,,,,,61633b443e445822fb1f24c9,62c53cd057ad50af44d9d107,2022-07-06_09h53.47.235,Colour_Asymmetry_Pilot,2022.1.3,Win32,20.02402883,62c50e9c1127f2cd403a315f,0,41,41,55,1,fourthree
,,,,,,61633b443e445822fb1f24c9,62c53cd057ad50af44d9d107,2022-07-06_09h53.47.235,Colour_Asymmetry_Pilot,2022.1.3,Win32,20.02402883,62c50e9c1127f2cd403a315f,0,42,42,23,1,fourthree
,,,,,,61633b443e445822fb1f24c9,62c53cd057ad50af44d9d107,2022-07-06_09h53.47.235,Colour_Asymmetry_Pilot,2022.1.3,Win32,20.02402883,62c50e9c1127f2cd403a315f,0,43,43,12,1,threeone
,,,,,,61633b443e445822fb1f24c9,62c53cd057ad50af44d9d107,2022-07-06_09h53.47.235,Colour_Asymmetry_Pilot,2022.1.3,Win32,20.02402883,62c50e9c1127f2cd403a315f,0,44,44,80,1,onetwo
,,,,,,61633b443e445822fb1f24c9,62c53cd057ad50af44d9d107,2022-07-06_09h53.47.235,Colour_Asymmetry_Pilot,2022.1.3,Win32,20.02402883,62c50e9c1127f2cd403a315f,0,45,45,151,1,fourthree
,,,,,,61633b443e445822fb1f24c9,62c53cd057ad50af44d9d107,2022-07-06_09h53.47.235,Colour_Asymmetry_Pilot,2022.1.3,Win32,20.02402883,62c50e9c1127f2cd403a315f,0,46,46,21,1,threefour
,,,,,,61633b443e445822fb1f24c9,62c53cd057ad50af44d9d107,2022-07-06_09h53.47.235,Colour_Asymmetry_Pilot,2022.1.3,Win32,20.02402883,62c50e9c1127f2cd403a315f,0,47,47,5,1,threefour
,,,,,,61633b443e445822fb1f24c9,62c53cd057ad50af44d9d107,2022-07-06_09h53.47.235,Colour_Asymmetry_Pilot,2022.1.3,Win32,20.02402883,62c50e9c1127f2cd403a315f,0,48,48,61,1,threefour
,,,,,,61633b443e445822fb1f24c9,62c53cd057ad50af44d9d107,2022-07-06_09h53.47.235,Colour_Asymmetry_Pilot,2022.1.3,Win32,20.02402883,62c50e9c1127f2cd403a315f,0,49,49,56,1,onetwo
,,,,,,61633b443e445822fb1f24c9,62c53cd057ad50af44d9d107,2022-07-06_09h53.47.235,Colour_Asymmetry_Pilot,2022.1.3,Win32,20.02402883,62c50e9c1127f2cd403a315f,0,50,50,125,1,threefour
,,,,,,61633b443e445822fb1f24c9,62c53cd057ad50af44d9d107,2022-07-06_09h53.47.235,Colour_Asymmetry_Pilot,2022.1.3,Win32,20.02402883,62c50e9c1127f2cd403a315f,0,51,51,78,1,fourtwo
,,,,,,61633b443e445822fb1f24c9,62c53cd057ad50af44d9d107,2022-07-06_09h53.47.235,Colour_Asymmetry_Pilot,2022.1.3,Win32,20.02402883,62c50e9c1127f2cd403a315f,0,52,52,139,1,twofour
,,,,,,61633b443e445822fb1f24c9,62c53cd057ad50af44d9d107,2022-07-06_09h53.47.235,Colour_Asymmetry_Pilot,2022.1.3,Win32,20.02402883,62c50e9c1127f2cd403a315f,0,53,53,53,1,threefour
,,,,,,61633b443e445822fb1f24c9,62c53cd057ad50af44d9d107,2022-07-06_09h53.47.235,Colour_Asymmetry_Pilot,2022.1.3,Win32,20.02402883,62c50e9c1127f2cd403a315f,0,54,54,101,1,threefour
,,,,,,61633b443e445822fb1f24c9,62c53cd057ad50af44d9d107,2022-07-06_09h53.47.235,Colour_Asymmetry_Pilot,2022.1.3,Win32,20.02402883,62c50e9c1127f2cd403a315f,0,55,55,89,1,onethree
,,,,,,61633b443e445822fb1f24c9,62c53cd057ad50af44d9d107,2022-07-06_09h53.47.235,Colour_Asymmetry_Pilot,2022.1.3,Win32,20.02402883,62c50e9c1127f2cd403a315f,0,56,56,26,1,twoone
,,,,,,61633b443e445822fb1f24c9,62c53cd057ad50af44d9d107,2022-07-06_09h53.47.235,Colour_Asymmetry_Pilot,2022.1.3,Win32,20.02402883,62c50e9c1127f2cd403a315f,0,57,57,105,1,onethree
,,,,,,61633b443e445822fb1f24c9,62c53cd057ad50af44d9d107,2022-07-06_09h53.47.235,Colour_Asymmetry_Pilot,2022.1.3,Win32,20.02402883,62c50e9c1127f2cd403a315f,0,58,58,102,1,fourtwo
,,,,,,61633b443e445822fb1f24c9,62c53cd057ad50af44d9d107,2022-07-06_09h53.47.235,Colour_Asymmetry_Pilot,2022.1.3,Win32,20.02402883,62c50e9c1127f2cd403a315f,0,59,59,20,1,threeone
,,,,,,61633b443e445822fb1f24c9,62c53cd057ad50af44d9d107,2022-07-06_09h53.47.235,Colour_Asymmetry_Pilot,2022.1.3,Win32,20.02402883,62c50e9c1127f2cd403a315f,0,60,60,114,1,twoone
,,,,,,61633b443e445822fb1f24c9,62c53cd057ad50af44d9d107,2022-07-06_09h53.47.235,Colour_Asymmetry_Pilot,2022.1.3,Win32,20.02402883,62c50e9c1127f2cd403a315f,0,61,61,79,1,fourthree
,,,,,,61633b443e445822fb1f24c9,62c53cd057ad50af44d9d107,2022-07-06_09h53.47.235,Colour_Asymmetry_Pilot,2022.1.3,Win32,20.02402883,62c50e9c1127f2cd403a315f,0,62,62,74,1,twoone
,,,,,,61633b443e445822fb1f24c9,62c53cd057ad50af44d9d107,2022-07-06_09h53.47.235,Colour_Asymmetry_Pilot,2022.1.3,Win32,20.02402883,62c50e9c1127f2cd403a315f,0,63,63,39,1,fourthree
,,,,,,61633b443e445822fb1f24c9,62c53cd057ad50af44d9d107,2022-07-06_09h53.47.235,Colour_Asymmetry_Pilot,2022.1.3,Win32,20.02402883,62c50e9c1127f2cd403a315f,0,64,64,35,1,twofour
,,,,,,61633b443e445822fb1f24c9,62c53cd057ad50af44d9d107,2022-07-06_09h53.47.235,Colour_Asymmetry_Pilot,2022.1.3,Win32,20.02402883,62c50e9c1127f2cd403a315f,0,65,65,133,1,threefour
,,,,,,61633b443e445822fb1f24c9,62c53cd057ad50af44d9d107,2022-07-06_09h53.47.235,Colour_Asymmetry_Pilot,2022.1.3,Win32,20.02402883,62c50e9c1127f2cd403a315f,0,66,66,10,1,twoone
,,,,,,61633b443e445822fb1f24c9,62c53cd057ad50af44d9d107,2022-07-06_09h53.47.235,Colour_Asymmetry_Pilot,2022.1.3,Win32,20.02402883,62c50e9c1127f2cd403a315f,0,67,67,19,1,twofour
,,,,,,61633b443e445822fb1f24c9,62c53cd057ad50af44d9d107,2022-07-06_09h53.47.235,Colour_Asymmetry_Pilot,2022.1.3,Win32,20.02402883,62c50e9c1127f2cd403a315f,0,68,68,116,1,threeone
,,,,,,61633b443e445822fb1f24c9,62c53cd057ad50af44d9d107,2022-07-06_09h53.47.235,Colour_Asymmetry_Pilot,2022.1.3,Win32,20.02402883,62c50e9c1127f2cd403a315f,0,69,69,137,1,onethree
,,,,,,61633b443e445822fb1f24c9,62c53cd057ad50af44d9d107,2022-07-06_09h53.47.235,Colour_Asymmetry_Pilot,2022.1.3,Win32,20.02402883,62c50e9c1127f2cd403a315f,0,70,70,11,1,twofour
,,,,,,61633b443e445822fb1f24c9,62c53cd057ad50af44d9d107,2022-07-06_09h53.47.235,Colour_Asymmetry_Pilot,2022.1.3,Win32,20.02402883,62c50e9c1127f2cd403a315f,0,71,71,42,1,twoone
,,,,,,61633b443e445822fb1f24c9,62c53cd057ad50af44d9d107,2022-07-06_09h53.47.235,Colour_Asymmetry_Pilot,2022.1.3,Win32,20.02402883,62c50e9c1127f2cd403a315f,0,72,72,22,1,fourtwo
,,,,,,61633b443e445822fb1f24c9,62c53cd057ad50af44d9d107,2022-07-06_09h53.47.235,Colour_Asymmetry_Pilot,2022.1.3,Win32,20.02402883,62c50e9c1127f2cd403a315f,0,73,73,60,1,threeone
,,,,,,61633b443e445822fb1f24c9,62c53cd057ad50af44d9d107,2022-07-06_09h53.47.235,Colour_Asymmetry_Pilot,2022.1.3,Win32,20.02402883,62c50e9c1127f2cd403a315f,0,74,74,136,1,onetwo
,,,,,,61633b443e445822fb1f24c9,62c53cd057ad50af44d9d107,2022-07-06_09h53.47.235,Colour_Asymmetry_Pilot,2022.1.3,Win32,20.02402883,62c50e9c1127f2cd403a315f,0,75,75,16,1,onetwo
,,,,,,61633b443e445822fb1f24c9,62c53cd057ad50af44d9d107,2022-07-06_09h53.47.235,Colour_Asymmetry_Pilot,2022.1.3,Win32,20.02402883,62c50e9c1127f2cd403a315f,0,76,76,17,1,onethree
,,,,,,61633b443e445822fb1f24c9,62c53cd057ad50af44d9d107,2022-07-06_09h53.47.235,Colour_Asymmetry_Pilot,2022.1.3,Win32,20.02402883,62c50e9c1127f2cd403a315f,0,77,77,142,1,fourtwo
,,,,,,61633b443e445822fb1f24c9,62c53cd057ad50af44d9d107,2022-07-06_09h53.47.235,Colour_Asymmetry_Pilot,2022.1.3,Win32,20.02402883,62c50e9c1127f2cd403a315f,0,78,78,103,1,fourthree
,,,,,,61633b443e445822fb1f24c9,62c53cd057ad50af44d9d107,2022-07-06_09h53.47.235,Colour_Asymmetry_Pilot,2022.1.3,Win32,20.02402883,62c50e9c1127f2cd403a315f,0,79,79,43,1,twofour
,,,,,,61633b443e445822fb1f24c9,62c53cd057ad50af44d9d107,2022-07-06_09h53.47.235,Colour_Asymmetry_Pilot,2022.1.3,Win32,20.02402883,62c50e9c1127f2cd403a315f,0,80,80,96,1,onetwo
,,,,,,61633b443e445822fb1f24c9,62c53cd057ad50af44d9d107,2022-07-06_09h53.47.235,Colour_Asymmetry_Pilot,2022.1.3,Win32,20.02402883,62c50e9c1127f2cd403a315f,0,81,81,122,1,twoone
,,,,,,61633b443e445822fb1f24c9,62c53cd057ad50af44d9d107,2022-07-06_09h53.47.235,Colour_Asymmetry_Pilot,2022.1.3,Win32,20.02402883,62c50e9c1127f2cd403a315f,0,82,82,67,1,twofour
,,,,,,61633b443e445822fb1f24c9,62c53cd057ad50af44d9d107,2022-07-06_09h53.47.235,Colour_Asymmetry_Pilot,2022.1.3,Win32,20.02402883,62c50e9c1127f2cd403a315f,0,83,83,119,1,fourthree
,,,,,,61633b443e445822fb1f24c9,62c53cd057ad50af44d9d107,2022-07-06_09h53.47.235,Colour_Asymmetry_Pilot,2022.1.3,Win32,20.02402883,62c50e9c1127f2cd403a315f,0,84,84,161,1,onethree
,,,,,,61633b443e445822fb1f24c9,62c53cd057ad50af44d9d107,2022-07-06_09h53.47.235,Colour_Asymmetry_Pilot,2022.1.3,Win32,20.02402883,62c50e9c1127f2cd403a315f,0,85,85,149,1,threefour
,,,,,,61633b443e445822fb1f24c9,62c53cd057ad50af44d9d107,2022-07-06_09h53.47.235,Colour_Asymmetry_Pilot,2022.1.3,Win32,20.02402883,62c50e9c1127f2cd403a315f,0,86,86,120,1,onetwo
,,,,,,61633b443e445822fb1f24c9,62c53cd057ad50af44d9d107,2022-07-06_09h53.47.235,Colour_Asymmetry_Pilot,2022.1.3,Win32,20.02402883,62c50e9c1127f2cd403a315f,0,87,87,7,1,fourthree
,,,,,,61633b443e445822fb1f24c9,62c53cd057ad50af44d9d107,2022-07-06_09h53.47.235,Colour_Asymmetry_Pilot,2022.1.3,Win32,20.02402883,62c50e9c1127f2cd403a315f,0,88,88,97,1,onethree
,,,,,,61633b443e445822fb1f24c9,62c53cd057ad50af44d9d107,2022-07-06_09h53.47.235,Colour_Asymmetry_Pilot,2022.1.3,Win32,20.02402883,62c50e9c1127f2cd403a315f,0,89,89,68,1,threeone
,,,,,,61633b443e445822fb1f24c9,62c53cd057ad50af44d9d107,2022-07-06_09h53.47.235,Colour_Asymmetry_Pilot,2022.1.3,Win32,20.02402883,62c50e9c1127f2cd403a315f,0,90,90,52,1,threeone
,,,,,,61633b443e445822fb1f24c9,62c53cd057ad50af44d9d107,2022-07-06_09h53.47.235,Colour_Asymmetry_Pilot,2022.1.3,Win32,20.02402883,62c50e9c1127f2cd403a315f,0,91,91,112,1,onetwo
,,,,,,61633b443e445822fb1f24c9,62c53cd057ad50af44d9d107,2022-07-06_09h53.47.235,Colour_Asymmetry_Pilot,2022.1.3,Win32,20.02402883,62c50e9c1127f2cd403a315f,0,92,92,147,1,twofour
,,,,,,61633b443e445822fb1f24c9,62c53cd057ad50af44d9d107,2022-07-06_09h53.47.235,Colour_Asymmetry_Pilot,2022.1.3,Win32,20.02402883,62c50e9c1127f2cd403a315f,0,93,93,8,1,onetwo
,,,,,,61633b443e445822fb1f24c9,62c53cd057ad50af44d9d107,2022-07-06_09h53.47.235,Colour_Asymmetry_Pilot,2022.1.3,Win32,20.02402883,62c50e9c1127f2cd403a315f,0,94,94,76,1,threeone
,,,,,,61633b443e445822fb1f24c9,62c53cd057ad50af44d9d107,2022-07-06_09h53.47.235,Colour_Asymmetry_Pilot,2022.1.3,Win32,20.02402883,62c50e9c1127f2cd403a315f,0,95,95,156,1,threeone
,,,,,,61633b443e445822fb1f24c9,62c53cd057ad50af44d9d107,2022-07-06_09h53.47.235,Colour_Asymmetry_Pilot,2022.1.3,Win32,20.02402883,62c50e9c1127f2cd403a315f,0,96,96,54,1,fourtwo
,,,,,,61633b443e445822fb1f24c9,62c53cd057ad50af44d9d107,2022-07-06_09h53.47.235,Colour_Asymmetry_Pilot,2022.1.3,Win32,20.02402883,62c50e9c1127f2cd403a315f,0,97,97,57,1,onethree
,,,,,,61633b443e445822fb1f24c9,62c53cd057ad50af44d9d107,2022-07-06_09h53.47.235,Colour_Asymmetry_Pilot,2022.1.3,Win32,20.02402883,62c50e9c1127f2cd403a315f,0,98,98,118,1,fourtwo
,,,,,,61633b443e445822fb1f24c9,62c53cd057ad50af44d9d107,2022-07-06_09h53.47.235,Colour_Asymmetry_Pilot,2022.1.3,Win32,20.02402883,62c50e9c1127f2cd403a315f,0,99,99,63,1,fourthree
,,,,,,61633b443e445822fb1f24c9,62c53cd057ad50af44d9d107,2022-07-06_09h53.47.235,Colour_Asymmetry_Pilot,2022.1.3,Win32,20.02402883,62c50e9c1127f2cd403a315f,0,100,100,134,1,fourtwo
,,,,,,61633b443e445822fb1f24c9,62c53cd057ad50af44d9d107,2022-07-06_09h53.47.235,Colour_Asymmetry_Pilot,2022.1.3,Win32,20.02402883,62c50e9c1127f2cd403a315f,0,101,101,126,1,fourtwo
,,,,,,61633b443e445822fb1f24c9,62c53cd057ad50af44d9d107,2022-07-06_09h53.47.235,Colour_Asymmetry_Pilot,2022.1.3,Win32,20.02402883,62c50e9c1127f2cd403a315f,0,102,102,75,1,twofour
,,,,,,61633b443e445822fb1f24c9,62c53cd057ad50af44d9d107,2022-07-06_09h53.47.235,Colour_Asymmetry_Pilot,2022.1.3,Win32,20.02402883,62c50e9c1127f2cd403a315f,0,103,103,40,1,onetwo
,,,,,,61633b443e445822fb1f24c9,62c53cd057ad50af44d9d107,2022-07-06_09h53.47.235,Colour_Asymmetry_Pilot,2022.1.3,Win32,20.02402883,62c50e9c1127f2cd403a315f,0,104,104,77,1,threefour
,,,,,,61633b443e445822fb1f24c9,62c53cd057ad50af44d9d107,2022-07-06_09h53.47.235,Colour_Asymmetry_Pilot,2022.1.3,Win32,20.02402883,62c50e9c1127f2cd403a315f,0,105,105,28,1,threeone
,,,,,,61633b443e445822fb1f24c9,62c53cd057ad50af44d9d107,2022-07-06_09h53.47.235,Colour_Asymmetry_Pilot,2022.1.3,Win32,20.02402883,62c50e9c1127f2cd403a315f,0,106,106,83,1,twofour
,,,,,,61633b443e445822fb1f24c9,62c53cd057ad50af44d9d107,2022-07-06_09h53.47.235,Colour_Asymmetry_Pilot,2022.1.3,Win32,20.02402883,62c50e9c1127f2cd403a315f,0,107,107,132,1,threeone
,,,,,,61633b443e445822fb1f24c9,62c53cd057ad50af44d9d107,2022-07-06_09h53.47.235,Colour_Asymmetry_Pilot,2022.1.3,Win32,20.02402883,62c50e9c1127f2cd403a315f,0,108,108,4,1,threeone
,,,,,,61633b443e445822fb1f24c9,62c53cd057ad50af44d9d107,2022-07-06_09h53.47.235,Colour_Asymmetry_Pilot,2022.1.3,Win32,20.02402883,62c50e9c1127f2cd403a315f,0,109,109,71,1,fourthree
,,,,,,61633b443e445822fb1f24c9,62c53cd057ad50af44d9d107,2022-07-06_09h53.47.235,Colour_Asymmetry_Pilot,2022.1.3,Win32,20.02402883,62c50e9c1127f2cd403a315f,0,110,110,50,1,twoone
,,,,,,61633b443e445822fb1f24c9,62c53cd057ad50af44d9d107,2022-07-06_09h53.47.235,Colour_Asymmetry_Pilot,2022.1.3,Win32,20.02402883,62c50e9c1127f2cd403a315f,0,111,111,0,1,onetwo
,,,,,,61633b443e445822fb1f24c9,62c53cd057ad50af44d9d107,2022-07-06_09h53.47.235,Colour_Asymmetry_Pilot,2022.1.3,Win32,20.02402883,62c50e9c1127f2cd403a315f,0,112,112,15,1,fourthree
,,,,,,61633b443e445822fb1f24c9,62c53cd057ad50af44d9d107,2022-07-06_09h53.47.235,Colour_Asymmetry_Pilot,2022.1.3,Win32,20.02402883,62c50e9c1127f2cd403a315f,0,113,113,24,1,onetwo
,,,,,,61633b443e445822fb1f24c9,62c53cd057ad50af44d9d107,2022-07-06_09h53.47.235,Colour_Asymmetry_Pilot,2022.1.3,Win32,20.02402883,62c50e9c1127f2cd403a315f,0,114,114,107,1,twofour
,,,,,,61633b443e445822fb1f24c9,62c53cd057ad50af44d9d107,2022-07-06_09h53.47.235,Colour_Asymmetry_Pilot,2022.1.3,Win32,20.02402883,62c50e9c1127f2cd403a315f,0,115,115,131,1,twofour
,,,,,,61633b443e445822fb1f24c9,62c53cd057ad50af44d9d107,2022-07-06_09h53.47.235,Colour_Asymmetry_Pilot,2022.1.3,Win32,20.02402883,62c50e9c1127f2cd403a315f,0,116,116,66,1,twoone
,,,,,,61633b443e445822fb1f24c9,62c53cd057ad50af44d9d107,2022-07-06_09h53.47.235,Colour_Asymmetry_Pilot,2022.1.3,Win32,20.02402883,62c50e9c1127f2cd403a315f,0,117,117,88,1,onetwo
,,,,,,61633b443e445822fb1f24c9,62c53cd057ad50af44d9d107,2022-07-06_09h53.47.235,Colour_Asymmetry_Pilot,2022.1.3,Win32,20.02402883,62c50e9c1127f2cd403a315f,0,118,118,92,1,threeone
,,,,,,61633b443e445822fb1f24c9,62c53cd057ad50af44d9d107,2022-07-06_09h53.47.235,Colour_Asymmetry_Pilot,2022.1.3,Win32,20.02402883,62c50e9c1127f2cd403a315f,0,119,119,62,1,fourtwo
,,,,,,61633b443e445822fb1f24c9,62c53cd057ad50af44d9d107,2022-07-06_09h53.47.235,Colour_Asymmetry_Pilot,2022.1.3,Win32,20.02402883,62c50e9c1127f2cd403a315f,0,120,120,48,1,onetwo
,,,,,,61633b443e445822fb1f24c9,62c53cd057ad50af44d9d107,2022-07-06_09h53.47.235,Colour_Asymmetry_Pilot,2022.1.3,Win32,20.02402883,62c50e9c1127f2cd403a315f,0,121,121,111,1,fourthree
,,,,,,61633b443e445822fb1f24c9,62c53cd057ad50af44d9d107,2022-07-06_09h53.47.235,Colour_Asymmetry_Pilot,2022.1.3,Win32,20.02402883,62c50e9c1127f2cd403a315f,0,122,122,135,1,fourthree
,,,,,,61633b443e445822fb1f24c9,62c53cd057ad50af44d9d107,2022-07-06_09h53.47.235,Colour_Asymmetry_Pilot,2022.1.3,Win32,20.02402883,62c50e9c1127f2cd403a315f,0,123,123,95,1,fourthree
,,,,,,61633b443e445822fb1f24c9,62c53cd057ad50af44d9d107,2022-07-06_09h53.47.235,Colour_Asymmetry_Pilot,2022.1.3,Win32,20.02402883,62c50e9c1127f2cd403a315f,0,124,124,44,1,threeone
,,,,,,61633b443e445822fb1f24c9,62c53cd057ad50af44d9d107,2022-07-06_09h53.47.235,Colour_Asymmetry_Pilot,2022.1.3,Win32,20.02402883,62c50e9c1127f2cd403a315f,0,125,125,121,1,onethree
,,,,,,61633b443e445822fb1f24c9,62c53cd057ad50af44d9d107,2022-07-06_09h53.47.235,Colour_Asymmetry_Pilot,2022.1.3,Win32,20.02402883,62c50e9c1127f2cd403a315f,0,126,126,18,1,twoone
,,,,,,61633b443e445822fb1f24c9,62c53cd057ad50af44d9d107,2022-07-06_09h53.47.235,Colour_Asymmetry_Pilot,2022.1.3,Win32,20.02402883,62c50e9c1127f2cd403a315f,0,127,127,70,1,fourtwo
,,,,,,61633b443e445822fb1f24c9,62c53cd057ad50af44d9d107,2022-07-06_09h53.47.235,Colour_Asymmetry_Pilot,2022.1.3,Win32,20.02402883,62c50e9c1127f2cd403a315f,0,128,128,85,1,threefour
,,,,,,61633b443e445822fb1f24c9,62c53cd057ad50af44d9d107,2022-07-06_09h53.47.235,Colour_Asymmetry_Pilot,2022.1.3,Win32,20.02402883,62c50e9c1127f2cd403a315f,0,129,129,146,1,twoone
,,,,,,61633b443e445822fb1f24c9,62c53cd057ad50af44d9d107,2022-07-06_09h53.47.235,Colour_Asymmetry_Pilot,2022.1.3,Win32,20.02402883,62c50e9c1127f2cd403a315f,0,130,130,98,1,twoone
,,,,,,61633b443e445822fb1f24c9,62c53cd057ad50af44d9d107,2022-07-06_09h53.47.235,Colour_Asymmetry_Pilot,2022.1.3,Win32,20.02402883,62c50e9c1127f2cd403a315f,0,131,131,117,1,threefour
,,,,,,61633b443e445822fb1f24c9,62c53cd057ad50af44d9d107,2022-07-06_09h53.47.235,Colour_Asymmetry_Pilot,2022.1.3,Win32,20.02402883,62c50e9c1127f2cd403a315f,0,132,132,124,1,threeone
,,,,,,61633b443e445822fb1f24c9,62c53cd057ad50af44d9d107,2022-07-06_09h53.47.235,Colour_Asymmetry_Pilot,2022.1.3,Win32,20.02402883,62c50e9c1127f2cd403a315f,0,133,133,144,1,onetwo
,,,,,,61633b443e445822fb1f24c9,62c53cd057ad50af44d9d107,2022-07-06_09h53.47.235,Colour_Asymmetry_Pilot,2022.1.3,Win32,20.02402883,62c50e9c1127f2cd403a315f,0,134,134,150,1,fourtwo
,,,,,,61633b443e445822fb1f24c9,62c53cd057ad50af44d9d107,2022-07-06_09h53.47.235,Colour_Asymmetry_Pilot,2022.1.3,Win32,20.02402883,62c50e9c1127f2cd403a315f,0,135,135,65,1,onethree
,,,,,,61633b443e445822fb1f24c9,62c53cd057ad50af44d9d107,2022-07-06_09h53.47.235,Colour_Asymmetry_Pilot,2022.1.3,Win32,20.02402883,62c50e9c1127f2cd403a315f,0,136,136,58,1,twoone
,,,,,,61633b443e445822fb1f24c9,62c53cd057ad50af44d9d107,2022-07-06_09h53.47.235,Colour_Asymmetry_Pilot,2022.1.3,Win32,20.02402883,62c50e9c1127f2cd403a315f,0,137,137,73,1,onethree
,,,,,,61633b443e445822fb1f24c9,62c53cd057ad50af44d9d107,2022-07-06_09h53.47.235,Colour_Asymmetry_Pilot,2022.1.3,Win32,20.02402883,62c50e9c1127f2cd403a315f,0,138,138,138,1,twoone
,,,,,,61633b443e445822fb1f24c9,62c53cd057ad50af44d9d107,2022-07-06_09h53.47.235,Colour_Asymmetry_Pilot,2022.1.3,Win32,20.02402883,62c50e9c1127f2cd403a315f,0,139,139,148,1,threeone
,,,,,,61633b443e445822fb1f24c9,62c53cd057ad50af44d9d107,2022-07-06_09h53.47.235,Colour_Asymmetry_Pilot,2022.1.3,Win32,20.02402883,62c50e9c1127f2cd403a315f,0,140,140,123,1,twofour
,,,,,,61633b443e445822fb1f24c9,62c53cd057ad50af44d9d107,2022-07-06_09h53.47.235,Colour_Asymmetry_Pilot,2022.1.3,Win32,20.02402883,62c50e9c1127f2cd403a315f,0,141,141,2,1,twoone
,,,,,,61633b443e445822fb1f24c9,62c53cd057ad50af44d9d107,2022-07-06_09h53.47.235,Colour_Asymmetry_Pilot,2022.1.3,Win32,20.02402883,62c50e9c1127f2cd403a315f,0,142,142,152,1,onetwo
,,,,,,61633b443e445822fb1f24c9,62c53cd057ad50af44d9d107,2022-07-06_09h53.47.235,Colour_Asymmetry_Pilot,2022.1.3,Win32,20.02402883,62c50e9c1127f2cd403a315f,0,143,143,30,1,fourtwo
,,,,,,61633b443e445822fb1f24c9,62c53cd057ad50af44d9d107,2022-07-06_09h53.47.235,Colour_Asymmetry_Pilot,2022.1.3,Win32,20.02402883,62c50e9c1127f2cd403a315f,0,144,144,29,1,threefour
,,,,,,61633b443e445822fb1f24c9,62c53cd057ad50af44d9d107,2022-07-06_09h53.47.235,Colour_Asymmetry_Pilot,2022.1.3,Win32,20.02402883,62c50e9c1127f2cd403a315f,0,145,145,141,1,threefour
,,,,,,61633b443e445822fb1f24c9,62c53cd057ad50af44d9d107,2022-07-06_09h53.47.235,Colour_Asymmetry_Pilot,2022.1.3,Win32,20.02402883,62c50e9c1127f2cd403a315f,0,146,146,27,1,twofour
,,,,,,61633b443e445822fb1f24c9,62c53cd057ad50af44d9d107,2022-07-06_09h53.47.235,Colour_Asymmetry_Pilot,2022.1.3,Win32,20.02402883,62c50e9c1127f2cd403a315f,0,147,147,64,1,onetwo
,,,,,,61633b443e445822fb1f24c9,62c53cd057ad50af44d9d107,2022-07-06_09h53.47.235,Colour_Asymmetry_Pilot,2022.1.3,Win32,20.02402883,62c50e9c1127f2cd403a315f,0,148,148,72,1,onetwo
,,,,,,61633b443e445822fb1f24c9,62c53cd057ad50af44d9d107,2022-07-06_09h53.47.235,Colour_Asymmetry_Pilot,2022.1.3,Win32,20.02402883,62c50e9c1127f2cd403a315f,0,149,149,25,1,onethree
,,,,,,61633b443e445822fb1f24c9,62c53cd057ad50af44d9d107,2022-07-06_09h53.47.235,Colour_Asymmetry_Pilot,2022.1.3,Win32,20.02402883,62c50e9c1127f2cd403a315f,0,150,150,91,1,twofour
,,,,,,61633b443e445822fb1f24c9,62c53cd057ad50af44d9d107,2022-07-06_09h53.47.235,Colour_Asymmetry_Pilot,2022.1.3,Win32,20.02402883,62c50e9c1127f2cd403a315f,0,151,151,38,1,fourtwo
,,,,,,61633b443e445822fb1f24c9,62c53cd057ad50af44d9d107,2022-07-06_09h53.47.235,Colour_Asymmetry_Pilot,2022.1.3,Win32,20.02402883,62c50e9c1127f2cd403a315f,0,152,152,82,1,twoone
,,,,,,61633b443e445822fb1f24c9,62c53cd057ad50af44d9d107,2022-07-06_09h53.47.235,Colour_Asymmetry_Pilot,2022.1.3,Win32,20.02402883,62c50e9c1127f2cd403a315f,0,153,153,9,1,onethree
,,,,,,61633b443e445822fb1f24c9,62c53cd057ad50af44d9d107,2022-07-06_09h53.47.235,Colour_Asymmetry_Pilot,2022.1.3,Win32,20.02402883,62c50e9c1127f2cd403a315f,0,154,154,1,1,onethree
,,,,,,61633b443e445822fb1f24c9,62c53cd057ad50af44d9d107,2022-07-06_09h53.47.235,Colour_Asymmetry_Pilot,2022.1.3,Win32,20.02402883,62c50e9c1127f2cd403a315f,0,155,155,37,1,threefour
,,,,,,61633b443e445822fb1f24c9,62c53cd057ad50af44d9d107,2022-07-06_09h53.47.235,Colour_Asymmetry_Pilot,2022.1.3,Win32,20.02402883,62c50e9c1127f2cd403a315f,0,156,156,41,1,onethree
,,,,,,61633b443e445822fb1f24c9,62c53cd057ad50af44d9d107,2022-07-06_09h53.47.235,Colour_Asymmetry_Pilot,2022.1.3,Win32,20.02402883,62c50e9c1127f2cd403a315f,0,157,157,45,1,threefour
,,,,,,61633b443e445822fb1f24c9,62c53cd057ad50af44d9d107,2022-07-06_09h53.47.235,Colour_Asymmetry_Pilot,2022.1.3,Win32,20.02402883,62c50e9c1127f2cd403a315f,0,158,158,6,1,fourtwo
,,,,,,61633b443e445822fb1f24c9,62c53cd057ad50af44d9d107,2022-07-06_09h53.47.235,Colour_Asymmetry_Pilot,2022.1.3,Win32,20.02402883,62c50e9c1127f2cd403a315f,0,159,159,110,1,fourtwo
,,,,,,61633b443e445822fb1f24c9,62c53cd057ad50af44d9d107,2022-07-06_09h53.47.235,Colour_Asymmetry_Pilot,2022.1.3,Win32,20.02402883,62c50e9c1127f2cd403a315f,0,160,160,143,1,fourthree
,,,,,,61633b443e445822fb1f24c9,62c53cd057ad50af44d9d107,2022-07-06_09h53.47.235,Colour_Asymmetry_Pilot,2022.1.3,Win32,20.02402883,62c50e9c1127f2cd403a315f,0,161,161,160,1,onetwo
