trials.thisRepN,trials.thisTrialN,trials.thisN,trials.thisIndex,trials.ran,Colourcodes,participant,session,date,expName,psychopyVersion,OS,frameRate,study_id,trials_4.thisRepN,trials_4.thisTrialN,trials_4.thisN,trials_4.thisIndex,trials_4.ran,StimulusPos
0,0,0,44,1,,6171165b0a955ac648f01d30,62c539f23c3942f0dbd9d0ed,2022-07-06_09h33.29.050,Colour_Asymmetry_Pilot,2022.1.3,Linux armv7l,58.71645822,62c50e9c1127f2cd403a315f,,,,,,
0,1,1,23,1,,6171165b0a955ac648f01d30,62c539f23c3942f0dbd9d0ed,2022-07-06_09h33.29.050,Colour_Asymmetry_Pilot,2022.1.3,Linux armv7l,58.71645822,62c50e9c1127f2cd403a315f,,,,,,
0,2,2,32,1,,6171165b0a955ac648f01d30,62c539f23c3942f0dbd9d0ed,2022-07-06_09h33.29.050,Colour_Asymmetry_Pilot,2022.1.3,Linux armv7l,58.71645822,62c50e9c1127f2cd403a315f,,,,,,
0,3,3,90,1,,6171165b0a955ac648f01d30,62c539f23c3942f0dbd9d0ed,2022-07-06_09h33.29.050,Colour_Asymmetry_Pilot,2022.1.3,Linux armv7l,58.71645822,62c50e9c1127f2cd403a315f,,,,,,
0,4,4,51,1,,6171165b0a955ac648f01d30,62c539f23c3942f0dbd9d0ed,2022-07-06_09h33.29.050,Colour_Asymmetry_Pilot,2022.1.3,Linux armv7l,58.71645822,62c50e9c1127f2cd403a315f,,,,,,
0,5,5,31,1,,6171165b0a955ac648f01d30,62c539f23c3942f0dbd9d0ed,2022-07-06_09h33.29.050,Colour_Asymmetry_Pilot,2022.1.3,Linux armv7l,58.71645822,62c50e9c1127f2cd403a315f,,,,,,
0,6,6,77,1,,6171165b0a955ac648f01d30,62c539f23c3942f0dbd9d0ed,2022-07-06_09h33.29.050,Colour_Asymmetry_Pilot,2022.1.3,Linux armv7l,58.71645822,62c50e9c1127f2cd403a315f,,,,,,
0,7,7,14,1,,6171165b0a955ac648f01d30,62c539f23c3942f0dbd9d0ed,2022-07-06_09h33.29.050,Colour_Asymmetry_Pilot,2022.1.3,Linux armv7l,58.71645822,62c50e9c1127f2cd403a315f,,,,,,
0,8,8,68,1,,6171165b0a955ac648f01d30,62c539f23c3942f0dbd9d0ed,2022-07-06_09h33.29.050,Colour_Asymmetry_Pilot,2022.1.3,Linux armv7l,58.71645822,62c50e9c1127f2cd403a315f,,,,,,
0,9,9,8,1,,6171165b0a955ac648f01d30,62c539f23c3942f0dbd9d0ed,2022-07-06_09h33.29.050,Colour_Asymmetry_Pilot,2022.1.3,Linux armv7l,58.71645822,62c50e9c1127f2cd403a315f,,,,,,
0,10,10,36,1,,6171165b0a955ac648f01d30,62c539f23c3942f0dbd9d0ed,2022-07-06_09h33.29.050,Colour_Asymmetry_Pilot,2022.1.3,Linux armv7l,58.71645822,62c50e9c1127f2cd403a315f,,,,,,
0,11,11,34,1,,6171165b0a955ac648f01d30,62c539f23c3942f0dbd9d0ed,2022-07-06_09h33.29.050,Colour_Asymmetry_Pilot,2022.1.3,Linux armv7l,58.71645822,62c50e9c1127f2cd403a315f,,,,,,
0,12,12,24,1,,6171165b0a955ac648f01d30,62c539f23c3942f0dbd9d0ed,2022-07-06_09h33.29.050,Colour_Asymmetry_Pilot,2022.1.3,Linux armv7l,58.71645822,62c50e9c1127f2cd403a315f,,,,,,
0,13,13,20,1,,6171165b0a955ac648f01d30,62c539f23c3942f0dbd9d0ed,2022-07-06_09h33.29.050,Colour_Asymmetry_Pilot,2022.1.3,Linux armv7l,58.71645822,62c50e9c1127f2cd403a315f,,,,,,
0,14,14,47,1,,6171165b0a955ac648f01d30,62c539f23c3942f0dbd9d0ed,2022-07-06_09h33.29.050,Colour_Asymmetry_Pilot,2022.1.3,Linux armv7l,58.71645822,62c50e9c1127f2cd403a315f,,,,,,
0,15,15,35,1,,6171165b0a955ac648f01d30,62c539f23c3942f0dbd9d0ed,2022-07-06_09h33.29.050,Colour_Asymmetry_Pilot,2022.1.3,Linux armv7l,58.71645822,62c50e9c1127f2cd403a315f,,,,,,
0,16,16,12,1,,6171165b0a955ac648f01d30,62c539f23c3942f0dbd9d0ed,2022-07-06_09h33.29.050,Colour_Asymmetry_Pilot,2022.1.3,Linux armv7l,58.71645822,62c50e9c1127f2cd403a315f,,,,,,
0,17,17,7,1,,6171165b0a955ac648f01d30,62c539f23c3942f0dbd9d0ed,2022-07-06_09h33.29.050,Colour_Asymmetry_Pilot,2022.1.3,Linux armv7l,58.71645822,62c50e9c1127f2cd403a315f,,,,,,
0,18,18,50,1,,6171165b0a955ac648f01d30,62c539f23c3942f0dbd9d0ed,2022-07-06_09h33.29.050,Colour_Asymmetry_Pilot,2022.1.3,Linux armv7l,58.71645822,62c50e9c1127f2cd403a315f,,,,,,
0,19,19,40,1,,6171165b0a955ac648f01d30,62c539f23c3942f0dbd9d0ed,2022-07-06_09h33.29.050,Colour_Asymmetry_Pilot,2022.1.3,Linux armv7l,58.71645822,62c50e9c1127f2cd403a315f,,,,,,
0,20,20,19,1,,6171165b0a955ac648f01d30,62c539f23c3942f0dbd9d0ed,2022-07-06_09h33.29.050,Colour_Asymmetry_Pilot,2022.1.3,Linux armv7l,58.71645822,62c50e9c1127f2cd403a315f,,,,,,
0,21,21,58,1,,6171165b0a955ac648f01d30,62c539f23c3942f0dbd9d0ed,2022-07-06_09h33.29.050,Colour_Asymmetry_Pilot,2022.1.3,Linux armv7l,58.71645822,62c50e9c1127f2cd403a315f,,,,,,
0,22,22,84,1,,6171165b0a955ac648f01d30,62c539f23c3942f0dbd9d0ed,2022-07-06_09h33.29.050,Colour_Asymmetry_Pilot,2022.1.3,Linux armv7l,58.71645822,62c50e9c1127f2cd403a315f,,,,,,
0,23,23,0,1,,6171165b0a955ac648f01d30,62c539f23c3942f0dbd9d0ed,2022-07-06_09h33.29.050,Colour_Asymmetry_Pilot,2022.1.3,Linux armv7l,58.71645822,62c50e9c1127f2cd403a315f,,,,,,
0,24,24,89,1,,6171165b0a955ac648f01d30,62c539f23c3942f0dbd9d0ed,2022-07-06_09h33.29.050,Colour_Asymmetry_Pilot,2022.1.3,Linux armv7l,58.71645822,62c50e9c1127f2cd403a315f,,,,,,
0,25,25,82,1,,6171165b0a955ac648f01d30,62c539f23c3942f0dbd9d0ed,2022-07-06_09h33.29.050,Colour_Asymmetry_Pilot,2022.1.3,Linux armv7l,58.71645822,62c50e9c1127f2cd403a315f,,,,,,
0,26,26,61,1,,6171165b0a955ac648f01d30,62c539f23c3942f0dbd9d0ed,2022-07-06_09h33.29.050,Colour_Asymmetry_Pilot,2022.1.3,Linux armv7l,58.71645822,62c50e9c1127f2cd403a315f,,,,,,
0,27,27,3,1,,6171165b0a955ac648f01d30,62c539f23c3942f0dbd9d0ed,2022-07-06_09h33.29.050,Colour_Asymmetry_Pilot,2022.1.3,Linux armv7l,58.71645822,62c50e9c1127f2cd403a315f,,,,,,
0,28,28,43,1,,6171165b0a955ac648f01d30,62c539f23c3942f0dbd9d0ed,2022-07-06_09h33.29.050,Colour_Asymmetry_Pilot,2022.1.3,Linux armv7l,58.71645822,62c50e9c1127f2cd403a315f,,,,,,
0,29,29,86,1,,6171165b0a955ac648f01d30,62c539f23c3942f0dbd9d0ed,2022-07-06_09h33.29.050,Colour_Asymmetry_Pilot,2022.1.3,Linux armv7l,58.71645822,62c50e9c1127f2cd403a315f,,,,,,
0,30,30,16,1,,6171165b0a955ac648f01d30,62c539f23c3942f0dbd9d0ed,2022-07-06_09h33.29.050,Colour_Asymmetry_Pilot,2022.1.3,Linux armv7l,58.71645822,62c50e9c1127f2cd403a315f,,,,,,
0,31,31,63,1,,6171165b0a955ac648f01d30,62c539f23c3942f0dbd9d0ed,2022-07-06_09h33.29.050,Colour_Asymmetry_Pilot,2022.1.3,Linux armv7l,58.71645822,62c50e9c1127f2cd403a315f,,,,,,
0,32,32,10,1,,6171165b0a955ac648f01d30,62c539f23c3942f0dbd9d0ed,2022-07-06_09h33.29.050,Colour_Asymmetry_Pilot,2022.1.3,Linux armv7l,58.71645822,62c50e9c1127f2cd403a315f,,,,,,
0,33,33,55,1,,6171165b0a955ac648f01d30,62c539f23c3942f0dbd9d0ed,2022-07-06_09h33.29.050,Colour_Asymmetry_Pilot,2022.1.3,Linux armv7l,58.71645822,62c50e9c1127f2cd403a315f,,,,,,
0,34,34,59,1,,6171165b0a955ac648f01d30,62c539f23c3942f0dbd9d0ed,2022-07-06_09h33.29.050,Colour_Asymmetry_Pilot,2022.1.3,Linux armv7l,58.71645822,62c50e9c1127f2cd403a315f,,,,,,
0,35,35,42,1,,6171165b0a955ac648f01d30,62c539f23c3942f0dbd9d0ed,2022-07-06_09h33.29.050,Colour_Asymmetry_Pilot,2022.1.3,Linux armv7l,58.71645822,62c50e9c1127f2cd403a315f,,,,,,
0,36,36,38,1,,6171165b0a955ac648f01d30,62c539f23c3942f0dbd9d0ed,2022-07-06_09h33.29.050,Colour_Asymmetry_Pilot,2022.1.3,Linux armv7l,58.71645822,62c50e9c1127f2cd403a315f,,,,,,
0,37,37,87,1,,6171165b0a955ac648f01d30,62c539f23c3942f0dbd9d0ed,2022-07-06_09h33.29.050,Colour_Asymmetry_Pilot,2022.1.3,Linux armv7l,58.71645822,62c50e9c1127f2cd403a315f,,,,,,
0,38,38,66,1,,6171165b0a955ac648f01d30,62c539f23c3942f0dbd9d0ed,2022-07-06_09h33.29.050,Colour_Asymmetry_Pilot,2022.1.3,Linux armv7l,58.71645822,62c50e9c1127f2cd403a315f,,,,,,
0,39,39,54,1,,6171165b0a955ac648f01d30,62c539f23c3942f0dbd9d0ed,2022-07-06_09h33.29.050,Colour_Asymmetry_Pilot,2022.1.3,Linux armv7l,58.71645822,62c50e9c1127f2cd403a315f,,,,,,
0,40,40,83,1,,6171165b0a955ac648f01d30,62c539f23c3942f0dbd9d0ed,2022-07-06_09h33.29.050,Colour_Asymmetry_Pilot,2022.1.3,Linux armv7l,58.71645822,62c50e9c1127f2cd403a315f,,,,,,
0,41,41,79,1,,6171165b0a955ac648f01d30,62c539f23c3942f0dbd9d0ed,2022-07-06_09h33.29.050,Colour_Asymmetry_Pilot,2022.1.3,Linux armv7l,58.71645822,62c50e9c1127f2cd403a315f,,,,,,
0,42,42,70,1,,6171165b0a955ac648f01d30,62c539f23c3942f0dbd9d0ed,2022-07-06_09h33.29.050,Colour_Asymmetry_Pilot,2022.1.3,Linux armv7l,58.71645822,62c50e9c1127f2cd403a315f,,,,,,
0,43,43,56,1,,6171165b0a955ac648f01d30,62c539f23c3942f0dbd9d0ed,2022-07-06_09h33.29.050,Colour_Asymmetry_Pilot,2022.1.3,Linux armv7l,58.71645822,62c50e9c1127f2cd403a315f,,,,,,
0,44,44,88,1,,6171165b0a955ac648f01d30,62c539f23c3942f0dbd9d0ed,2022-07-06_09h33.29.050,Colour_Asymmetry_Pilot,2022.1.3,Linux armv7l,58.71645822,62c50e9c1127f2cd403a315f,,,,,,
0,45,45,73,1,,6171165b0a955ac648f01d30,62c539f23c3942f0dbd9d0ed,2022-07-06_09h33.29.050,Colour_Asymmetry_Pilot,2022.1.3,Linux armv7l,58.71645822,62c50e9c1127f2cd403a315f,,,,,,
0,46,46,6,1,,6171165b0a955ac648f01d30,62c539f23c3942f0dbd9d0ed,2022-07-06_09h33.29.050,Colour_Asymmetry_Pilot,2022.1.3,Linux armv7l,58.71645822,62c50e9c1127f2cd403a315f,,,,,,
0,47,47,9,1,,6171165b0a955ac648f01d30,62c539f23c3942f0dbd9d0ed,2022-07-06_09h33.29.050,Colour_Asymmetry_Pilot,2022.1.3,Linux armv7l,58.71645822,62c50e9c1127f2cd403a315f,,,,,,
0,48,48,15,1,,6171165b0a955ac648f01d30,62c539f23c3942f0dbd9d0ed,2022-07-06_09h33.29.050,Colour_Asymmetry_Pilot,2022.1.3,Linux armv7l,58.71645822,62c50e9c1127f2cd403a315f,,,,,,
0,49,49,72,1,,6171165b0a955ac648f01d30,62c539f23c3942f0dbd9d0ed,2022-07-06_09h33.29.050,Colour_Asymmetry_Pilot,2022.1.3,Linux armv7l,58.71645822,62c50e9c1127f2cd403a315f,,,,,,
0,50,50,22,1,,6171165b0a955ac648f01d30,62c539f23c3942f0dbd9d0ed,2022-07-06_09h33.29.050,Colour_Asymmetry_Pilot,2022.1.3,Linux armv7l,58.71645822,62c50e9c1127f2cd403a315f,,,,,,
0,51,51,33,1,,6171165b0a955ac648f01d30,62c539f23c3942f0dbd9d0ed,2022-07-06_09h33.29.050,Colour_Asymmetry_Pilot,2022.1.3,Linux armv7l,58.71645822,62c50e9c1127f2cd403a315f,,,,,,
0,52,52,26,1,,6171165b0a955ac648f01d30,62c539f23c3942f0dbd9d0ed,2022-07-06_09h33.29.050,Colour_Asymmetry_Pilot,2022.1.3,Linux armv7l,58.71645822,62c50e9c1127f2cd403a315f,,,,,,
0,53,53,57,1,,6171165b0a955ac648f01d30,62c539f23c3942f0dbd9d0ed,2022-07-06_09h33.29.050,Colour_Asymmetry_Pilot,2022.1.3,Linux armv7l,58.71645822,62c50e9c1127f2cd403a315f,,,,,,
0,54,54,65,1,,6171165b0a955ac648f01d30,62c539f23c3942f0dbd9d0ed,2022-07-06_09h33.29.050,Colour_Asymmetry_Pilot,2022.1.3,Linux armv7l,58.71645822,62c50e9c1127f2cd403a315f,,,,,,
0,55,55,67,1,,6171165b0a955ac648f01d30,62c539f23c3942f0dbd9d0ed,2022-07-06_09h33.29.050,Colour_Asymmetry_Pilot,2022.1.3,Linux armv7l,58.71645822,62c50e9c1127f2cd403a315f,,,,,,
0,56,56,29,1,,6171165b0a955ac648f01d30,62c539f23c3942f0dbd9d0ed,2022-07-06_09h33.29.050,Colour_Asymmetry_Pilot,2022.1.3,Linux armv7l,58.71645822,62c50e9c1127f2cd403a315f,,,,,,
0,57,57,53,1,,6171165b0a955ac648f01d30,62c539f23c3942f0dbd9d0ed,2022-07-06_09h33.29.050,Colour_Asymmetry_Pilot,2022.1.3,Linux armv7l,58.71645822,62c50e9c1127f2cd403a315f,,,,,,
0,58,58,27,1,,6171165b0a955ac648f01d30,62c539f23c3942f0dbd9d0ed,2022-07-06_09h33.29.050,Colour_Asymmetry_Pilot,2022.1.3,Linux armv7l,58.71645822,62c50e9c1127f2cd403a315f,,,,,,
0,59,59,28,1,,6171165b0a955ac648f01d30,62c539f23c3942f0dbd9d0ed,2022-07-06_09h33.29.050,Colour_Asymmetry_Pilot,2022.1.3,Linux armv7l,58.71645822,62c50e9c1127f2cd403a315f,,,,,,
0,60,60,1,1,,6171165b0a955ac648f01d30,62c539f23c3942f0dbd9d0ed,2022-07-06_09h33.29.050,Colour_Asymmetry_Pilot,2022.1.3,Linux armv7l,58.71645822,62c50e9c1127f2cd403a315f,,,,,,
0,61,61,69,1,,6171165b0a955ac648f01d30,62c539f23c3942f0dbd9d0ed,2022-07-06_09h33.29.050,Colour_Asymmetry_Pilot,2022.1.3,Linux armv7l,58.71645822,62c50e9c1127f2cd403a315f,,,,,,
0,62,62,13,1,,6171165b0a955ac648f01d30,62c539f23c3942f0dbd9d0ed,2022-07-06_09h33.29.050,Colour_Asymmetry_Pilot,2022.1.3,Linux armv7l,58.71645822,62c50e9c1127f2cd403a315f,,,,,,
0,63,63,75,1,,6171165b0a955ac648f01d30,62c539f23c3942f0dbd9d0ed,2022-07-06_09h33.29.050,Colour_Asymmetry_Pilot,2022.1.3,Linux armv7l,58.71645822,62c50e9c1127f2cd403a315f,,,,,,
0,64,64,45,1,,6171165b0a955ac648f01d30,62c539f23c3942f0dbd9d0ed,2022-07-06_09h33.29.050,Colour_Asymmetry_Pilot,2022.1.3,Linux armv7l,58.71645822,62c50e9c1127f2cd403a315f,,,,,,
0,65,65,62,1,,6171165b0a955ac648f01d30,62c539f23c3942f0dbd9d0ed,2022-07-06_09h33.29.050,Colour_Asymmetry_Pilot,2022.1.3,Linux armv7l,58.71645822,62c50e9c1127f2cd403a315f,,,,,,
0,66,66,39,1,,6171165b0a955ac648f01d30,62c539f23c3942f0dbd9d0ed,2022-07-06_09h33.29.050,Colour_Asymmetry_Pilot,2022.1.3,Linux armv7l,58.71645822,62c50e9c1127f2cd403a315f,,,,,,
0,67,67,49,1,,6171165b0a955ac648f01d30,62c539f23c3942f0dbd9d0ed,2022-07-06_09h33.29.050,Colour_Asymmetry_Pilot,2022.1.3,Linux armv7l,58.71645822,62c50e9c1127f2cd403a315f,,,,,,
0,68,68,41,1,,6171165b0a955ac648f01d30,62c539f23c3942f0dbd9d0ed,2022-07-06_09h33.29.050,Colour_Asymmetry_Pilot,2022.1.3,Linux armv7l,58.71645822,62c50e9c1127f2cd403a315f,,,,,,
0,69,69,60,1,,6171165b0a955ac648f01d30,62c539f23c3942f0dbd9d0ed,2022-07-06_09h33.29.050,Colour_Asymmetry_Pilot,2022.1.3,Linux armv7l,58.71645822,62c50e9c1127f2cd403a315f,,,,,,
0,70,70,18,1,,6171165b0a955ac648f01d30,62c539f23c3942f0dbd9d0ed,2022-07-06_09h33.29.050,Colour_Asymmetry_Pilot,2022.1.3,Linux armv7l,58.71645822,62c50e9c1127f2cd403a315f,,,,,,
0,71,71,4,1,,6171165b0a955ac648f01d30,62c539f23c3942f0dbd9d0ed,2022-07-06_09h33.29.050,Colour_Asymmetry_Pilot,2022.1.3,Linux armv7l,58.71645822,62c50e9c1127f2cd403a315f,,,,,,
0,72,72,74,1,,6171165b0a955ac648f01d30,62c539f23c3942f0dbd9d0ed,2022-07-06_09h33.29.050,Colour_Asymmetry_Pilot,2022.1.3,Linux armv7l,58.71645822,62c50e9c1127f2cd403a315f,,,,,,
0,73,73,64,1,,6171165b0a955ac648f01d30,62c539f23c3942f0dbd9d0ed,2022-07-06_09h33.29.050,Colour_Asymmetry_Pilot,2022.1.3,Linux armv7l,58.71645822,62c50e9c1127f2cd403a315f,,,,,,
0,74,74,92,1,,6171165b0a955ac648f01d30,62c539f23c3942f0dbd9d0ed,2022-07-06_09h33.29.050,Colour_Asymmetry_Pilot,2022.1.3,Linux armv7l,58.71645822,62c50e9c1127f2cd403a315f,,,,,,
0,75,75,76,1,,6171165b0a955ac648f01d30,62c539f23c3942f0dbd9d0ed,2022-07-06_09h33.29.050,Colour_Asymmetry_Pilot,2022.1.3,Linux armv7l,58.71645822,62c50e9c1127f2cd403a315f,,,,,,
0,76,76,25,1,,6171165b0a955ac648f01d30,62c539f23c3942f0dbd9d0ed,2022-07-06_09h33.29.050,Colour_Asymmetry_Pilot,2022.1.3,Linux armv7l,58.71645822,62c50e9c1127f2cd403a315f,,,,,,
0,77,77,52,1,,6171165b0a955ac648f01d30,62c539f23c3942f0dbd9d0ed,2022-07-06_09h33.29.050,Colour_Asymmetry_Pilot,2022.1.3,Linux armv7l,58.71645822,62c50e9c1127f2cd403a315f,,,,,,
0,78,78,48,1,,6171165b0a955ac648f01d30,62c539f23c3942f0dbd9d0ed,2022-07-06_09h33.29.050,Colour_Asymmetry_Pilot,2022.1.3,Linux armv7l,58.71645822,62c50e9c1127f2cd403a315f,,,,,,
0,79,79,85,1,,6171165b0a955ac648f01d30,62c539f23c3942f0dbd9d0ed,2022-07-06_09h33.29.050,Colour_Asymmetry_Pilot,2022.1.3,Linux armv7l,58.71645822,62c50e9c1127f2cd403a315f,,,,,,
0,80,80,80,1,,6171165b0a955ac648f01d30,62c539f23c3942f0dbd9d0ed,2022-07-06_09h33.29.050,Colour_Asymmetry_Pilot,2022.1.3,Linux armv7l,58.71645822,62c50e9c1127f2cd403a315f,,,,,,
0,81,81,91,1,,6171165b0a955ac648f01d30,62c539f23c3942f0dbd9d0ed,2022-07-06_09h33.29.050,Colour_Asymmetry_Pilot,2022.1.3,Linux armv7l,58.71645822,62c50e9c1127f2cd403a315f,,,,,,
0,82,82,81,1,,6171165b0a955ac648f01d30,62c539f23c3942f0dbd9d0ed,2022-07-06_09h33.29.050,Colour_Asymmetry_Pilot,2022.1.3,Linux armv7l,58.71645822,62c50e9c1127f2cd403a315f,,,,,,
0,83,83,11,1,,6171165b0a955ac648f01d30,62c539f23c3942f0dbd9d0ed,2022-07-06_09h33.29.050,Colour_Asymmetry_Pilot,2022.1.3,Linux armv7l,58.71645822,62c50e9c1127f2cd403a315f,,,,,,
0,84,84,21,1,,6171165b0a955ac648f01d30,62c539f23c3942f0dbd9d0ed,2022-07-06_09h33.29.050,Colour_Asymmetry_Pilot,2022.1.3,Linux armv7l,58.71645822,62c50e9c1127f2cd403a315f,,,,,,
0,85,85,46,1,,6171165b0a955ac648f01d30,62c539f23c3942f0dbd9d0ed,2022-07-06_09h33.29.050,Colour_Asymmetry_Pilot,2022.1.3,Linux armv7l,58.71645822,62c50e9c1127f2cd403a315f,,,,,,
0,86,86,78,1,,6171165b0a955ac648f01d30,62c539f23c3942f0dbd9d0ed,2022-07-06_09h33.29.050,Colour_Asymmetry_Pilot,2022.1.3,Linux armv7l,58.71645822,62c50e9c1127f2cd403a315f,,,,,,
0,87,87,71,1,,6171165b0a955ac648f01d30,62c539f23c3942f0dbd9d0ed,2022-07-06_09h33.29.050,Colour_Asymmetry_Pilot,2022.1.3,Linux armv7l,58.71645822,62c50e9c1127f2cd403a315f,,,,,,
0,88,88,2,1,,6171165b0a955ac648f01d30,62c539f23c3942f0dbd9d0ed,2022-07-06_09h33.29.050,Colour_Asymmetry_Pilot,2022.1.3,Linux armv7l,58.71645822,62c50e9c1127f2cd403a315f,,,,,,
0,89,89,30,1,,6171165b0a955ac648f01d30,62c539f23c3942f0dbd9d0ed,2022-07-06_09h33.29.050,Colour_Asymmetry_Pilot,2022.1.3,Linux armv7l,58.71645822,62c50e9c1127f2cd403a315f,,,,,,
0,90,90,17,1,,6171165b0a955ac648f01d30,62c539f23c3942f0dbd9d0ed,2022-07-06_09h33.29.050,Colour_Asymmetry_Pilot,2022.1.3,Linux armv7l,58.71645822,62c50e9c1127f2cd403a315f,,,,,,
0,91,91,37,1,,6171165b0a955ac648f01d30,62c539f23c3942f0dbd9d0ed,2022-07-06_09h33.29.050,Colour_Asymmetry_Pilot,2022.1.3,Linux armv7l,58.71645822,62c50e9c1127f2cd403a315f,,,,,,
0,92,92,5,1,,6171165b0a955ac648f01d30,62c539f23c3942f0dbd9d0ed,2022-07-06_09h33.29.050,Colour_Asymmetry_Pilot,2022.1.3,Linux armv7l,58.71645822,62c50e9c1127f2cd403a315f,,,,,,
,,,,,,6171165b0a955ac648f01d30,62c539f23c3942f0dbd9d0ed,2022-07-06_09h33.29.050,Colour_Asymmetry_Pilot,2022.1.3,Linux armv7l,58.71645822,62c50e9c1127f2cd403a315f,0,0,0,28,1,threeone
,,,,,,6171165b0a955ac648f01d30,62c539f23c3942f0dbd9d0ed,2022-07-06_09h33.29.050,Colour_Asymmetry_Pilot,2022.1.3,Linux armv7l,58.71645822,62c50e9c1127f2cd403a315f,0,1,1,97,1,onethree
,,,,,,6171165b0a955ac648f01d30,62c539f23c3942f0dbd9d0ed,2022-07-06_09h33.29.050,Colour_Asymmetry_Pilot,2022.1.3,Linux armv7l,58.71645822,62c50e9c1127f2cd403a315f,0,2,2,119,1,fourthree
,,,,,,6171165b0a955ac648f01d30,62c539f23c3942f0dbd9d0ed,2022-07-06_09h33.29.050,Colour_Asymmetry_Pilot,2022.1.3,Linux armv7l,58.71645822,62c50e9c1127f2cd403a315f,0,3,3,69,1,threefour
,,,,,,6171165b0a955ac648f01d30,62c539f23c3942f0dbd9d0ed,2022-07-06_09h33.29.050,Colour_Asymmetry_Pilot,2022.1.3,Linux armv7l,58.71645822,62c50e9c1127f2cd403a315f,0,4,4,63,1,fourthree
,,,,,,6171165b0a955ac648f01d30,62c539f23c3942f0dbd9d0ed,2022-07-06_09h33.29.050,Colour_Asymmetry_Pilot,2022.1.3,Linux armv7l,58.71645822,62c50e9c1127f2cd403a315f,0,5,5,133,1,threefour
,,,,,,6171165b0a955ac648f01d30,62c539f23c3942f0dbd9d0ed,2022-07-06_09h33.29.050,Colour_Asymmetry_Pilot,2022.1.3,Linux armv7l,58.71645822,62c50e9c1127f2cd403a315f,0,6,6,24,1,onetwo
,,,,,,6171165b0a955ac648f01d30,62c539f23c3942f0dbd9d0ed,2022-07-06_09h33.29.050,Colour_Asymmetry_Pilot,2022.1.3,Linux armv7l,58.71645822,62c50e9c1127f2cd403a315f,0,7,7,138,1,twoone
,,,,,,6171165b0a955ac648f01d30,62c539f23c3942f0dbd9d0ed,2022-07-06_09h33.29.050,Colour_Asymmetry_Pilot,2022.1.3,Linux armv7l,58.71645822,62c50e9c1127f2cd403a315f,0,8,8,91,1,twofour
,,,,,,6171165b0a955ac648f01d30,62c539f23c3942f0dbd9d0ed,2022-07-06_09h33.29.050,Colour_Asymmetry_Pilot,2022.1.3,Linux armv7l,58.71645822,62c50e9c1127f2cd403a315f,0,9,9,37,1,threefour
,,,,,,6171165b0a955ac648f01d30,62c539f23c3942f0dbd9d0ed,2022-07-06_09h33.29.050,Colour_Asymmetry_Pilot,2022.1.3,Linux armv7l,58.71645822,62c50e9c1127f2cd403a315f,0,10,10,65,1,onethree
,,,,,,6171165b0a955ac648f01d30,62c539f23c3942f0dbd9d0ed,2022-07-06_09h33.29.050,Colour_Asymmetry_Pilot,2022.1.3,Linux armv7l,58.71645822,62c50e9c1127f2cd403a315f,0,11,11,143,1,fourthree
,,,,,,6171165b0a955ac648f01d30,62c539f23c3942f0dbd9d0ed,2022-07-06_09h33.29.050,Colour_Asymmetry_Pilot,2022.1.3,Linux armv7l,58.71645822,62c50e9c1127f2cd403a315f,0,12,12,30,1,fourtwo
,,,,,,6171165b0a955ac648f01d30,62c539f23c3942f0dbd9d0ed,2022-07-06_09h33.29.050,Colour_Asymmetry_Pilot,2022.1.3,Linux armv7l,58.71645822,62c50e9c1127f2cd403a315f,0,13,13,61,1,threefour
,,,,,,6171165b0a955ac648f01d30,62c539f23c3942f0dbd9d0ed,2022-07-06_09h33.29.050,Colour_Asymmetry_Pilot,2022.1.3,Linux armv7l,58.71645822,62c50e9c1127f2cd403a315f,0,14,14,9,1,onethree
,,,,,,6171165b0a955ac648f01d30,62c539f23c3942f0dbd9d0ed,2022-07-06_09h33.29.050,Colour_Asymmetry_Pilot,2022.1.3,Linux armv7l,58.71645822,62c50e9c1127f2cd403a315f,0,15,15,150,1,fourtwo
,,,,,,6171165b0a955ac648f01d30,62c539f23c3942f0dbd9d0ed,2022-07-06_09h33.29.050,Colour_Asymmetry_Pilot,2022.1.3,Linux armv7l,58.71645822,62c50e9c1127f2cd403a315f,0,16,16,159,1,fourthree
,,,,,,6171165b0a955ac648f01d30,62c539f23c3942f0dbd9d0ed,2022-07-06_09h33.29.050,Colour_Asymmetry_Pilot,2022.1.3,Linux armv7l,58.71645822,62c50e9c1127f2cd403a315f,0,17,17,106,1,twoone
,,,,,,6171165b0a955ac648f01d30,62c539f23c3942f0dbd9d0ed,2022-07-06_09h33.29.050,Colour_Asymmetry_Pilot,2022.1.3,Linux armv7l,58.71645822,62c50e9c1127f2cd403a315f,0,18,18,49,1,onethree
,,,,,,6171165b0a955ac648f01d30,62c539f23c3942f0dbd9d0ed,2022-07-06_09h33.29.050,Colour_Asymmetry_Pilot,2022.1.3,Linux armv7l,58.71645822,62c50e9c1127f2cd403a315f,0,19,19,68,1,threeone
,,,,,,6171165b0a955ac648f01d30,62c539f23c3942f0dbd9d0ed,2022-07-06_09h33.29.050,Colour_Asymmetry_Pilot,2022.1.3,Linux armv7l,58.71645822,62c50e9c1127f2cd403a315f,0,20,20,160,1,onetwo
,,,,,,6171165b0a955ac648f01d30,62c539f23c3942f0dbd9d0ed,2022-07-06_09h33.29.050,Colour_Asymmetry_Pilot,2022.1.3,Linux armv7l,58.71645822,62c50e9c1127f2cd403a315f,0,21,21,45,1,threefour
,,,,,,6171165b0a955ac648f01d30,62c539f23c3942f0dbd9d0ed,2022-07-06_09h33.29.050,Colour_Asymmetry_Pilot,2022.1.3,Linux armv7l,58.71645822,62c50e9c1127f2cd403a315f,0,22,22,64,1,onetwo
,,,,,,6171165b0a955ac648f01d30,62c539f23c3942f0dbd9d0ed,2022-07-06_09h33.29.050,Colour_Asymmetry_Pilot,2022.1.3,Linux armv7l,58.71645822,62c50e9c1127f2cd403a315f,0,23,23,5,1,threefour
,,,,,,6171165b0a955ac648f01d30,62c539f23c3942f0dbd9d0ed,2022-07-06_09h33.29.050,Colour_Asymmetry_Pilot,2022.1.3,Linux armv7l,58.71645822,62c50e9c1127f2cd403a315f,0,24,24,90,1,twoone
,,,,,,6171165b0a955ac648f01d30,62c539f23c3942f0dbd9d0ed,2022-07-06_09h33.29.050,Colour_Asymmetry_Pilot,2022.1.3,Linux armv7l,58.71645822,62c50e9c1127f2cd403a315f,0,25,25,96,1,onetwo
,,,,,,6171165b0a955ac648f01d30,62c539f23c3942f0dbd9d0ed,2022-07-06_09h33.29.050,Colour_Asymmetry_Pilot,2022.1.3,Linux armv7l,58.71645822,62c50e9c1127f2cd403a315f,0,26,26,34,1,twoone
,,,,,,6171165b0a955ac648f01d30,62c539f23c3942f0dbd9d0ed,2022-07-06_09h33.29.050,Colour_Asymmetry_Pilot,2022.1.3,Linux armv7l,58.71645822,62c50e9c1127f2cd403a315f,0,27,27,83,1,twofour
,,,,,,6171165b0a955ac648f01d30,62c539f23c3942f0dbd9d0ed,2022-07-06_09h33.29.050,Colour_Asymmetry_Pilot,2022.1.3,Linux armv7l,58.71645822,62c50e9c1127f2cd403a315f,0,28,28,66,1,twoone
,,,,,,6171165b0a955ac648f01d30,62c539f23c3942f0dbd9d0ed,2022-07-06_09h33.29.050,Colour_Asymmetry_Pilot,2022.1.3,Linux armv7l,58.71645822,62c50e9c1127f2cd403a315f,0,29,29,84,1,threeone
,,,,,,6171165b0a955ac648f01d30,62c539f23c3942f0dbd9d0ed,2022-07-06_09h33.29.050,Colour_Asymmetry_Pilot,2022.1.3,Linux armv7l,58.71645822,62c50e9c1127f2cd403a315f,0,30,30,36,1,threeone
,,,,,,6171165b0a955ac648f01d30,62c539f23c3942f0dbd9d0ed,2022-07-06_09h33.29.050,Colour_Asymmetry_Pilot,2022.1.3,Linux armv7l,58.71645822,62c50e9c1127f2cd403a315f,0,31,31,31,1,fourthree
,,,,,,6171165b0a955ac648f01d30,62c539f23c3942f0dbd9d0ed,2022-07-06_09h33.29.050,Colour_Asymmetry_Pilot,2022.1.3,Linux armv7l,58.71645822,62c50e9c1127f2cd403a315f,0,32,32,47,1,fourthree
,,,,,,6171165b0a955ac648f01d30,62c539f23c3942f0dbd9d0ed,2022-07-06_09h33.29.050,Colour_Asymmetry_Pilot,2022.1.3,Linux armv7l,58.71645822,62c50e9c1127f2cd403a315f,0,33,33,2,1,twoone
,,,,,,6171165b0a955ac648f01d30,62c539f23c3942f0dbd9d0ed,2022-07-06_09h33.29.050,Colour_Asymmetry_Pilot,2022.1.3,Linux armv7l,58.71645822,62c50e9c1127f2cd403a315f,0,34,34,129,1,onethree
,,,,,,6171165b0a955ac648f01d30,62c539f23c3942f0dbd9d0ed,2022-07-06_09h33.29.050,Colour_Asymmetry_Pilot,2022.1.3,Linux armv7l,58.71645822,62c50e9c1127f2cd403a315f,0,35,35,58,1,twoone
,,,,,,6171165b0a955ac648f01d30,62c539f23c3942f0dbd9d0ed,2022-07-06_09h33.29.050,Colour_Asymmetry_Pilot,2022.1.3,Linux armv7l,58.71645822,62c50e9c1127f2cd403a315f,0,36,36,82,1,twoone
,,,,,,6171165b0a955ac648f01d30,62c539f23c3942f0dbd9d0ed,2022-07-06_09h33.29.050,Colour_Asymmetry_Pilot,2022.1.3,Linux armv7l,58.71645822,62c50e9c1127f2cd403a315f,0,37,37,72,1,onetwo
,,,,,,6171165b0a955ac648f01d30,62c539f23c3942f0dbd9d0ed,2022-07-06_09h33.29.050,Colour_Asymmetry_Pilot,2022.1.3,Linux armv7l,58.71645822,62c50e9c1127f2cd403a315f,0,38,38,116,1,threeone
,,,,,,6171165b0a955ac648f01d30,62c539f23c3942f0dbd9d0ed,2022-07-06_09h33.29.050,Colour_Asymmetry_Pilot,2022.1.3,Linux armv7l,58.71645822,62c50e9c1127f2cd403a315f,0,39,39,157,1,threefour
,,,,,,6171165b0a955ac648f01d30,62c539f23c3942f0dbd9d0ed,2022-07-06_09h33.29.050,Colour_Asymmetry_Pilot,2022.1.3,Linux armv7l,58.71645822,62c50e9c1127f2cd403a315f,0,40,40,74,1,twoone
,,,,,,6171165b0a955ac648f01d30,62c539f23c3942f0dbd9d0ed,2022-07-06_09h33.29.050,Colour_Asymmetry_Pilot,2022.1.3,Linux armv7l,58.71645822,62c50e9c1127f2cd403a315f,0,41,41,140,1,threeone
,,,,,,6171165b0a955ac648f01d30,62c539f23c3942f0dbd9d0ed,2022-07-06_09h33.29.050,Colour_Asymmetry_Pilot,2022.1.3,Linux armv7l,58.71645822,62c50e9c1127f2cd403a315f,0,42,42,12,1,threeone
,,,,,,6171165b0a955ac648f01d30,62c539f23c3942f0dbd9d0ed,2022-07-06_09h33.29.050,Colour_Asymmetry_Pilot,2022.1.3,Linux armv7l,58.71645822,62c50e9c1127f2cd403a315f,0,43,43,80,1,onetwo
,,,,,,6171165b0a955ac648f01d30,62c539f23c3942f0dbd9d0ed,2022-07-06_09h33.29.050,Colour_Asymmetry_Pilot,2022.1.3,Linux armv7l,58.71645822,62c50e9c1127f2cd403a315f,0,44,44,109,1,threefour
,,,,,,6171165b0a955ac648f01d30,62c539f23c3942f0dbd9d0ed,2022-07-06_09h33.29.050,Colour_Asymmetry_Pilot,2022.1.3,Linux armv7l,58.71645822,62c50e9c1127f2cd403a315f,0,45,45,153,1,onethree
,,,,,,6171165b0a955ac648f01d30,62c539f23c3942f0dbd9d0ed,2022-07-06_09h33.29.050,Colour_Asymmetry_Pilot,2022.1.3,Linux armv7l,58.71645822,62c50e9c1127f2cd403a315f,0,46,46,39,1,fourthree
,,,,,,6171165b0a955ac648f01d30,62c539f23c3942f0dbd9d0ed,2022-07-06_09h33.29.050,Colour_Asymmetry_Pilot,2022.1.3,Linux armv7l,58.71645822,62c50e9c1127f2cd403a315f,0,47,47,104,1,onetwo
,,,,,,6171165b0a955ac648f01d30,62c539f23c3942f0dbd9d0ed,2022-07-06_09h33.29.050,Colour_Asymmetry_Pilot,2022.1.3,Linux armv7l,58.71645822,62c50e9c1127f2cd403a315f,0,48,48,108,1,threeone
,,,,,,6171165b0a955ac648f01d30,62c539f23c3942f0dbd9d0ed,2022-07-06_09h33.29.050,Colour_Asymmetry_Pilot,2022.1.3,Linux armv7l,58.71645822,62c50e9c1127f2cd403a315f,0,49,49,17,1,onethree
,,,,,,6171165b0a955ac648f01d30,62c539f23c3942f0dbd9d0ed,2022-07-06_09h33.29.050,Colour_Asymmetry_Pilot,2022.1.3,Linux armv7l,58.71645822,62c50e9c1127f2cd403a315f,0,50,50,67,1,twofour
,,,,,,6171165b0a955ac648f01d30,62c539f23c3942f0dbd9d0ed,2022-07-06_09h33.29.050,Colour_Asymmetry_Pilot,2022.1.3,Linux armv7l,58.71645822,62c50e9c1127f2cd403a315f,0,51,51,98,1,twoone
,,,,,,6171165b0a955ac648f01d30,62c539f23c3942f0dbd9d0ed,2022-07-06_09h33.29.050,Colour_Asymmetry_Pilot,2022.1.3,Linux armv7l,58.71645822,62c50e9c1127f2cd403a315f,0,52,52,125,1,threefour
,,,,,,6171165b0a955ac648f01d30,62c539f23c3942f0dbd9d0ed,2022-07-06_09h33.29.050,Colour_Asymmetry_Pilot,2022.1.3,Linux armv7l,58.71645822,62c50e9c1127f2cd403a315f,0,53,53,54,1,fourtwo
,,,,,,6171165b0a955ac648f01d30,62c539f23c3942f0dbd9d0ed,2022-07-06_09h33.29.050,Colour_Asymmetry_Pilot,2022.1.3,Linux armv7l,58.71645822,62c50e9c1127f2cd403a315f,0,54,54,88,1,onetwo
,,,,,,6171165b0a955ac648f01d30,62c539f23c3942f0dbd9d0ed,2022-07-06_09h33.29.050,Colour_Asymmetry_Pilot,2022.1.3,Linux armv7l,58.71645822,62c50e9c1127f2cd403a315f,0,55,55,79,1,fourthree
,,,,,,6171165b0a955ac648f01d30,62c539f23c3942f0dbd9d0ed,2022-07-06_09h33.29.050,Colour_Asymmetry_Pilot,2022.1.3,Linux armv7l,58.71645822,62c50e9c1127f2cd403a315f,0,56,56,94,1,fourtwo
,,,,,,6171165b0a955ac648f01d30,62c539f23c3942f0dbd9d0ed,2022-07-06_09h33.29.050,Colour_Asymmetry_Pilot,2022.1.3,Linux armv7l,58.71645822,62c50e9c1127f2cd403a315f,0,57,57,21,1,threefour
,,,,,,6171165b0a955ac648f01d30,62c539f23c3942f0dbd9d0ed,2022-07-06_09h33.29.050,Colour_Asymmetry_Pilot,2022.1.3,Linux armv7l,58.71645822,62c50e9c1127f2cd403a315f,0,58,58,18,1,twoone
,,,,,,6171165b0a955ac648f01d30,62c539f23c3942f0dbd9d0ed,2022-07-06_09h33.29.050,Colour_Asymmetry_Pilot,2022.1.3,Linux armv7l,58.71645822,62c50e9c1127f2cd403a315f,0,59,59,8,1,onetwo
,,,,,,6171165b0a955ac648f01d30,62c539f23c3942f0dbd9d0ed,2022-07-06_09h33.29.050,Colour_Asymmetry_Pilot,2022.1.3,Linux armv7l,58.71645822,62c50e9c1127f2cd403a315f,0,60,60,141,1,threefour
,,,,,,6171165b0a955ac648f01d30,62c539f23c3942f0dbd9d0ed,2022-07-06_09h33.29.050,Colour_Asymmetry_Pilot,2022.1.3,Linux armv7l,58.71645822,62c50e9c1127f2cd403a315f,0,61,61,158,1,fourtwo
,,,,,,6171165b0a955ac648f01d30,62c539f23c3942f0dbd9d0ed,2022-07-06_09h33.29.050,Colour_Asymmetry_Pilot,2022.1.3,Linux armv7l,58.71645822,62c50e9c1127f2cd403a315f,0,62,62,115,1,twofour
,,,,,,6171165b0a955ac648f01d30,62c539f23c3942f0dbd9d0ed,2022-07-06_09h33.29.050,Colour_Asymmetry_Pilot,2022.1.3,Linux armv7l,58.71645822,62c50e9c1127f2cd403a315f,0,63,63,75,1,twofour
,,,,,,6171165b0a955ac648f01d30,62c539f23c3942f0dbd9d0ed,2022-07-06_09h33.29.050,Colour_Asymmetry_Pilot,2022.1.3,Linux armv7l,58.71645822,62c50e9c1127f2cd403a315f,0,64,64,16,1,onetwo
,,,,,,6171165b0a955ac648f01d30,62c539f23c3942f0dbd9d0ed,2022-07-06_09h33.29.050,Colour_Asymmetry_Pilot,2022.1.3,Linux armv7l,58.71645822,62c50e9c1127f2cd403a315f,0,65,65,43,1,twofour
,,,,,,6171165b0a955ac648f01d30,62c539f23c3942f0dbd9d0ed,2022-07-06_09h33.29.050,Colour_Asymmetry_Pilot,2022.1.3,Linux armv7l,58.71645822,62c50e9c1127f2cd403a315f,0,66,66,19,1,twofour
,,,,,,6171165b0a955ac648f01d30,62c539f23c3942f0dbd9d0ed,2022-07-06_09h33.29.050,Colour_Asymmetry_Pilot,2022.1.3,Linux armv7l,58.71645822,62c50e9c1127f2cd403a315f,0,67,67,154,1,twoone
,,,,,,6171165b0a955ac648f01d30,62c539f23c3942f0dbd9d0ed,2022-07-06_09h33.29.050,Colour_Asymmetry_Pilot,2022.1.3,Linux armv7l,58.71645822,62c50e9c1127f2cd403a315f,0,68,68,110,1,fourtwo
,,,,,,6171165b0a955ac648f01d30,62c539f23c3942f0dbd9d0ed,2022-07-06_09h33.29.050,Colour_Asymmetry_Pilot,2022.1.3,Linux armv7l,58.71645822,62c50e9c1127f2cd403a315f,0,69,69,134,1,fourtwo
,,,,,,6171165b0a955ac648f01d30,62c539f23c3942f0dbd9d0ed,2022-07-06_09h33.29.050,Colour_Asymmetry_Pilot,2022.1.3,Linux armv7l,58.71645822,62c50e9c1127f2cd403a315f,0,70,70,60,1,threeone
,,,,,,6171165b0a955ac648f01d30,62c539f23c3942f0dbd9d0ed,2022-07-06_09h33.29.050,Colour_Asymmetry_Pilot,2022.1.3,Linux armv7l,58.71645822,62c50e9c1127f2cd403a315f,0,71,71,38,1,fourtwo
,,,,,,6171165b0a955ac648f01d30,62c539f23c3942f0dbd9d0ed,2022-07-06_09h33.29.050,Colour_Asymmetry_Pilot,2022.1.3,Linux armv7l,58.71645822,62c50e9c1127f2cd403a315f,0,72,72,132,1,threeone
,,,,,,6171165b0a955ac648f01d30,62c539f23c3942f0dbd9d0ed,2022-07-06_09h33.29.050,Colour_Asymmetry_Pilot,2022.1.3,Linux armv7l,58.71645822,62c50e9c1127f2cd403a315f,0,73,73,117,1,threefour
,,,,,,6171165b0a955ac648f01d30,62c539f23c3942f0dbd9d0ed,2022-07-06_09h33.29.050,Colour_Asymmetry_Pilot,2022.1.3,Linux armv7l,58.71645822,62c50e9c1127f2cd403a315f,0,74,74,114,1,twoone
,,,,,,6171165b0a955ac648f01d30,62c539f23c3942f0dbd9d0ed,2022-07-06_09h33.29.050,Colour_Asymmetry_Pilot,2022.1.3,Linux armv7l,58.71645822,62c50e9c1127f2cd403a315f,0,75,75,7,1,fourthree
,,,,,,6171165b0a955ac648f01d30,62c539f23c3942f0dbd9d0ed,2022-07-06_09h33.29.050,Colour_Asymmetry_Pilot,2022.1.3,Linux armv7l,58.71645822,62c50e9c1127f2cd403a315f,0,76,76,57,1,onethree
,,,,,,6171165b0a955ac648f01d30,62c539f23c3942f0dbd9d0ed,2022-07-06_09h33.29.050,Colour_Asymmetry_Pilot,2022.1.3,Linux armv7l,58.71645822,62c50e9c1127f2cd403a315f,0,77,77,118,1,fourtwo
,,,,,,6171165b0a955ac648f01d30,62c539f23c3942f0dbd9d0ed,2022-07-06_09h33.29.050,Colour_Asymmetry_Pilot,2022.1.3,Linux armv7l,58.71645822,62c50e9c1127f2cd403a315f,0,78,78,93,1,threefour
,,,,,,6171165b0a955ac648f01d30,62c539f23c3942f0dbd9d0ed,2022-07-06_09h33.29.050,Colour_Asymmetry_Pilot,2022.1.3,Linux armv7l,58.71645822,62c50e9c1127f2cd403a315f,0,79,79,155,1,twofour
,,,,,,6171165b0a955ac648f01d30,62c539f23c3942f0dbd9d0ed,2022-07-06_09h33.29.050,Colour_Asymmetry_Pilot,2022.1.3,Linux armv7l,58.71645822,62c50e9c1127f2cd403a315f,0,80,80,92,1,threeone
,,,,,,6171165b0a955ac648f01d30,62c539f23c3942f0dbd9d0ed,2022-07-06_09h33.29.050,Colour_Asymmetry_Pilot,2022.1.3,Linux armv7l,58.71645822,62c50e9c1127f2cd403a315f,0,81,81,105,1,onethree
,,,,,,6171165b0a955ac648f01d30,62c539f23c3942f0dbd9d0ed,2022-07-06_09h33.29.050,Colour_Asymmetry_Pilot,2022.1.3,Linux armv7l,58.71645822,62c50e9c1127f2cd403a315f,0,82,82,76,1,threeone
,,,,,,6171165b0a955ac648f01d30,62c539f23c3942f0dbd9d0ed,2022-07-06_09h33.29.050,Colour_Asymmetry_Pilot,2022.1.3,Linux armv7l,58.71645822,62c50e9c1127f2cd403a315f,0,83,83,139,1,twofour
,,,,,,6171165b0a955ac648f01d30,62c539f23c3942f0dbd9d0ed,2022-07-06_09h33.29.050,Colour_Asymmetry_Pilot,2022.1.3,Linux armv7l,58.71645822,62c50e9c1127f2cd403a315f,0,84,84,86,1,fourtwo
,,,,,,6171165b0a955ac648f01d30,62c539f23c3942f0dbd9d0ed,2022-07-06_09h33.29.050,Colour_Asymmetry_Pilot,2022.1.3,Linux armv7l,58.71645822,62c50e9c1127f2cd403a315f,0,85,85,44,1,threeone
,,,,,,6171165b0a955ac648f01d30,62c539f23c3942f0dbd9d0ed,2022-07-06_09h33.29.050,Colour_Asymmetry_Pilot,2022.1.3,Linux armv7l,58.71645822,62c50e9c1127f2cd403a315f,0,86,86,152,1,onetwo
,,,,,,6171165b0a955ac648f01d30,62c539f23c3942f0dbd9d0ed,2022-07-06_09h33.29.050,Colour_Asymmetry_Pilot,2022.1.3,Linux armv7l,58.71645822,62c50e9c1127f2cd403a315f,0,87,87,25,1,onethree
,,,,,,6171165b0a955ac648f01d30,62c539f23c3942f0dbd9d0ed,2022-07-06_09h33.29.050,Colour_Asymmetry_Pilot,2022.1.3,Linux armv7l,58.71645822,62c50e9c1127f2cd403a315f,0,88,88,4,1,threeone
,,,,,,6171165b0a955ac648f01d30,62c539f23c3942f0dbd9d0ed,2022-07-06_09h33.29.050,Colour_Asymmetry_Pilot,2022.1.3,Linux armv7l,58.71645822,62c50e9c1127f2cd403a315f,0,89,89,100,1,threeone
,,,,,,6171165b0a955ac648f01d30,62c539f23c3942f0dbd9d0ed,2022-07-06_09h33.29.050,Colour_Asymmetry_Pilot,2022.1.3,Linux armv7l,58.71645822,62c50e9c1127f2cd403a315f,0,90,90,120,1,onetwo
,,,,,,6171165b0a955ac648f01d30,62c539f23c3942f0dbd9d0ed,2022-07-06_09h33.29.050,Colour_Asymmetry_Pilot,2022.1.3,Linux armv7l,58.71645822,62c50e9c1127f2cd403a315f,0,91,91,22,1,fourtwo
,,,,,,6171165b0a955ac648f01d30,62c539f23c3942f0dbd9d0ed,2022-07-06_09h33.29.050,Colour_Asymmetry_Pilot,2022.1.3,Linux armv7l,58.71645822,62c50e9c1127f2cd403a315f,0,92,92,131,1,twofour
,,,,,,6171165b0a955ac648f01d30,62c539f23c3942f0dbd9d0ed,2022-07-06_09h33.29.050,Colour_Asymmetry_Pilot,2022.1.3,Linux armv7l,58.71645822,62c50e9c1127f2cd403a315f,0,93,93,112,1,onetwo
,,,,,,6171165b0a955ac648f01d30,62c539f23c3942f0dbd9d0ed,2022-07-06_09h33.29.050,Colour_Asymmetry_Pilot,2022.1.3,Linux armv7l,58.71645822,62c50e9c1127f2cd403a315f,0,94,94,99,1,twofour
,,,,,,6171165b0a955ac648f01d30,62c539f23c3942f0dbd9d0ed,2022-07-06_09h33.29.050,Colour_Asymmetry_Pilot,2022.1.3,Linux armv7l,58.71645822,62c50e9c1127f2cd403a315f,0,95,95,73,1,onethree
,,,,,,6171165b0a955ac648f01d30,62c539f23c3942f0dbd9d0ed,2022-07-06_09h33.29.050,Colour_Asymmetry_Pilot,2022.1.3,Linux armv7l,58.71645822,62c50e9c1127f2cd403a315f,0,96,96,59,1,twofour
,,,,,,6171165b0a955ac648f01d30,62c539f23c3942f0dbd9d0ed,2022-07-06_09h33.29.050,Colour_Asymmetry_Pilot,2022.1.3,Linux armv7l,58.71645822,62c50e9c1127f2cd403a315f,0,97,97,148,1,threeone
,,,,,,6171165b0a955ac648f01d30,62c539f23c3942f0dbd9d0ed,2022-07-06_09h33.29.050,Colour_Asymmetry_Pilot,2022.1.3,Linux armv7l,58.71645822,62c50e9c1127f2cd403a315f,0,98,98,77,1,threefour
,,,,,,6171165b0a955ac648f01d30,62c539f23c3942f0dbd9d0ed,2022-07-06_09h33.29.050,Colour_Asymmetry_Pilot,2022.1.3,Linux armv7l,58.71645822,62c50e9c1127f2cd403a315f,0,99,99,149,1,threefour
,,,,,,6171165b0a955ac648f01d30,62c539f23c3942f0dbd9d0ed,2022-07-06_09h33.29.050,Colour_Asymmetry_Pilot,2022.1.3,Linux armv7l,58.71645822,62c50e9c1127f2cd403a315f,0,100,100,122,1,twoone
,,,,,,6171165b0a955ac648f01d30,62c539f23c3942f0dbd9d0ed,2022-07-06_09h33.29.050,Colour_Asymmetry_Pilot,2022.1.3,Linux armv7l,58.71645822,62c50e9c1127f2cd403a315f,0,101,101,48,1,onetwo
,,,,,,6171165b0a955ac648f01d30,62c539f23c3942f0dbd9d0ed,2022-07-06_09h33.29.050,Colour_Asymmetry_Pilot,2022.1.3,Linux armv7l,58.71645822,62c50e9c1127f2cd403a315f,0,102,102,20,1,threeone
,,,,,,6171165b0a955ac648f01d30,62c539f23c3942f0dbd9d0ed,2022-07-06_09h33.29.050,Colour_Asymmetry_Pilot,2022.1.3,Linux armv7l,58.71645822,62c50e9c1127f2cd403a315f,0,103,103,71,1,fourthree
,,,,,,6171165b0a955ac648f01d30,62c539f23c3942f0dbd9d0ed,2022-07-06_09h33.29.050,Colour_Asymmetry_Pilot,2022.1.3,Linux armv7l,58.71645822,62c50e9c1127f2cd403a315f,0,104,104,121,1,onethree
,,,,,,6171165b0a955ac648f01d30,62c539f23c3942f0dbd9d0ed,2022-07-06_09h33.29.050,Colour_Asymmetry_Pilot,2022.1.3,Linux armv7l,58.71645822,62c50e9c1127f2cd403a315f,0,105,105,50,1,twoone
,,,,,,6171165b0a955ac648f01d30,62c539f23c3942f0dbd9d0ed,2022-07-06_09h33.29.050,Colour_Asymmetry_Pilot,2022.1.3,Linux armv7l,58.71645822,62c50e9c1127f2cd403a315f,0,106,106,23,1,fourthree
,,,,,,6171165b0a955ac648f01d30,62c539f23c3942f0dbd9d0ed,2022-07-06_09h33.29.050,Colour_Asymmetry_Pilot,2022.1.3,Linux armv7l,58.71645822,62c50e9c1127f2cd403a315f,0,107,107,27,1,twofour
,,,,,,6171165b0a955ac648f01d30,62c539f23c3942f0dbd9d0ed,2022-07-06_09h33.29.050,Colour_Asymmetry_Pilot,2022.1.3,Linux armv7l,58.71645822,62c50e9c1127f2cd403a315f,0,108,108,52,1,threeone
,,,,,,6171165b0a955ac648f01d30,62c539f23c3942f0dbd9d0ed,2022-07-06_09h33.29.050,Colour_Asymmetry_Pilot,2022.1.3,Linux armv7l,58.71645822,62c50e9c1127f2cd403a315f,0,109,109,103,1,fourthree
,,,,,,6171165b0a955ac648f01d30,62c539f23c3942f0dbd9d0ed,2022-07-06_09h33.29.050,Colour_Asymmetry_Pilot,2022.1.3,Linux armv7l,58.71645822,62c50e9c1127f2cd403a315f,0,110,110,113,1,onethree
,,,,,,6171165b0a955ac648f01d30,62c539f23c3942f0dbd9d0ed,2022-07-06_09h33.29.050,Colour_Asymmetry_Pilot,2022.1.3,Linux armv7l,58.71645822,62c50e9c1127f2cd403a315f,0,111,111,95,1,fourthree
,,,,,,6171165b0a955ac648f01d30,62c539f23c3942f0dbd9d0ed,2022-07-06_09h33.29.050,Colour_Asymmetry_Pilot,2022.1.3,Linux armv7l,58.71645822,62c50e9c1127f2cd403a315f,0,112,112,89,1,onethree
,,,,,,6171165b0a955ac648f01d30,62c539f23c3942f0dbd9d0ed,2022-07-06_09h33.29.050,Colour_Asymmetry_Pilot,2022.1.3,Linux armv7l,58.71645822,62c50e9c1127f2cd403a315f,0,113,113,51,1,twofour
,,,,,,6171165b0a955ac648f01d30,62c539f23c3942f0dbd9d0ed,2022-07-06_09h33.29.050,Colour_Asymmetry_Pilot,2022.1.3,Linux armv7l,58.71645822,62c50e9c1127f2cd403a315f,0,114,114,142,1,fourtwo
,,,,,,6171165b0a955ac648f01d30,62c539f23c3942f0dbd9d0ed,2022-07-06_09h33.29.050,Colour_Asymmetry_Pilot,2022.1.3,Linux armv7l,58.71645822,62c50e9c1127f2cd403a315f,0,115,115,6,1,fourtwo
,,,,,,6171165b0a955ac648f01d30,62c539f23c3942f0dbd9d0ed,2022-07-06_09h33.29.050,Colour_Asymmetry_Pilot,2022.1.3,Linux armv7l,58.71645822,62c50e9c1127f2cd403a315f,0,116,116,101,1,threefour
,,,,,,6171165b0a955ac648f01d30,62c539f23c3942f0dbd9d0ed,2022-07-06_09h33.29.050,Colour_Asymmetry_Pilot,2022.1.3,Linux armv7l,58.71645822,62c50e9c1127f2cd403a315f,0,117,117,35,1,twofour
,,,,,,6171165b0a955ac648f01d30,62c539f23c3942f0dbd9d0ed,2022-07-06_09h33.29.050,Colour_Asymmetry_Pilot,2022.1.3,Linux armv7l,58.71645822,62c50e9c1127f2cd403a315f,0,118,118,102,1,fourtwo
,,,,,,6171165b0a955ac648f01d30,62c539f23c3942f0dbd9d0ed,2022-07-06_09h33.29.050,Colour_Asymmetry_Pilot,2022.1.3,Linux armv7l,58.71645822,62c50e9c1127f2cd403a315f,0,119,119,127,1,fourthree
,,,,,,6171165b0a955ac648f01d30,62c539f23c3942f0dbd9d0ed,2022-07-06_09h33.29.050,Colour_Asymmetry_Pilot,2022.1.3,Linux armv7l,58.71645822,62c50e9c1127f2cd403a315f,0,120,120,1,1,onethree
,,,,,,6171165b0a955ac648f01d30,62c539f23c3942f0dbd9d0ed,2022-07-06_09h33.29.050,Colour_Asymmetry_Pilot,2022.1.3,Linux armv7l,58.71645822,62c50e9c1127f2cd403a315f,0,121,121,123,1,twofour
,,,,,,6171165b0a955ac648f01d30,62c539f23c3942f0dbd9d0ed,2022-07-06_09h33.29.050,Colour_Asymmetry_Pilot,2022.1.3,Linux armv7l,58.71645822,62c50e9c1127f2cd403a315f,0,122,122,136,1,onetwo
,,,,,,6171165b0a955ac648f01d30,62c539f23c3942f0dbd9d0ed,2022-07-06_09h33.29.050,Colour_Asymmetry_Pilot,2022.1.3,Linux armv7l,58.71645822,62c50e9c1127f2cd403a315f,0,123,123,126,1,fourtwo
,,,,,,6171165b0a955ac648f01d30,62c539f23c3942f0dbd9d0ed,2022-07-06_09h33.29.050,Colour_Asymmetry_Pilot,2022.1.3,Linux armv7l,58.71645822,62c50e9c1127f2cd403a315f,0,124,124,26,1,twoone
,,,,,,6171165b0a955ac648f01d30,62c539f23c3942f0dbd9d0ed,2022-07-06_09h33.29.050,Colour_Asymmetry_Pilot,2022.1.3,Linux armv7l,58.71645822,62c50e9c1127f2cd403a315f,0,125,125,41,1,onethree
,,,,,,6171165b0a955ac648f01d30,62c539f23c3942f0dbd9d0ed,2022-07-06_09h33.29.050,Colour_Asymmetry_Pilot,2022.1.3,Linux armv7l,58.71645822,62c50e9c1127f2cd403a315f,0,126,126,55,1,fourthree
,,,,,,6171165b0a955ac648f01d30,62c539f23c3942f0dbd9d0ed,2022-07-06_09h33.29.050,Colour_Asymmetry_Pilot,2022.1.3,Linux armv7l,58.71645822,62c50e9c1127f2cd403a315f,0,127,127,151,1,fourthree
,,,,,,6171165b0a955ac648f01d30,62c539f23c3942f0dbd9d0ed,2022-07-06_09h33.29.050,Colour_Asymmetry_Pilot,2022.1.3,Linux armv7l,58.71645822,62c50e9c1127f2cd403a315f,0,128,128,147,1,twofour
,,,,,,6171165b0a955ac648f01d30,62c539f23c3942f0dbd9d0ed,2022-07-06_09h33.29.050,Colour_Asymmetry_Pilot,2022.1.3,Linux armv7l,58.71645822,62c50e9c1127f2cd403a315f,0,129,129,46,1,fourtwo
,,,,,,6171165b0a955ac648f01d30,62c539f23c3942f0dbd9d0ed,2022-07-06_09h33.29.050,Colour_Asymmetry_Pilot,2022.1.3,Linux armv7l,58.71645822,62c50e9c1127f2cd403a315f,0,130,130,15,1,fourthree
,,,,,,6171165b0a955ac648f01d30,62c539f23c3942f0dbd9d0ed,2022-07-06_09h33.29.050,Colour_Asymmetry_Pilot,2022.1.3,Linux armv7l,58.71645822,62c50e9c1127f2cd403a315f,0,131,131,85,1,threefour
,,,,,,6171165b0a955ac648f01d30,62c539f23c3942f0dbd9d0ed,2022-07-06_09h33.29.050,Colour_Asymmetry_Pilot,2022.1.3,Linux armv7l,58.71645822,62c50e9c1127f2cd403a315f,0,132,132,40,1,onetwo
,,,,,,6171165b0a955ac648f01d30,62c539f23c3942f0dbd9d0ed,2022-07-06_09h33.29.050,Colour_Asymmetry_Pilot,2022.1.3,Linux armv7l,58.71645822,62c50e9c1127f2cd403a315f,0,133,133,14,1,fourtwo
,,,,,,6171165b0a955ac648f01d30,62c539f23c3942f0dbd9d0ed,2022-07-06_09h33.29.050,Colour_Asymmetry_Pilot,2022.1.3,Linux armv7l,58.71645822,62c50e9c1127f2cd403a315f,0,134,134,107,1,twofour
,,,,,,6171165b0a955ac648f01d30,62c539f23c3942f0dbd9d0ed,2022-07-06_09h33.29.050,Colour_Asymmetry_Pilot,2022.1.3,Linux armv7l,58.71645822,62c50e9c1127f2cd403a315f,0,135,135,111,1,fourthree
,,,,,,6171165b0a955ac648f01d30,62c539f23c3942f0dbd9d0ed,2022-07-06_09h33.29.050,Colour_Asymmetry_Pilot,2022.1.3,Linux armv7l,58.71645822,62c50e9c1127f2cd403a315f,0,136,136,81,1,onethree
,,,,,,6171165b0a955ac648f01d30,62c539f23c3942f0dbd9d0ed,2022-07-06_09h33.29.050,Colour_Asymmetry_Pilot,2022.1.3,Linux armv7l,58.71645822,62c50e9c1127f2cd403a315f,0,137,137,87,1,fourthree
,,,,,,6171165b0a955ac648f01d30,62c539f23c3942f0dbd9d0ed,2022-07-06_09h33.29.050,Colour_Asymmetry_Pilot,2022.1.3,Linux armv7l,58.71645822,62c50e9c1127f2cd403a315f,0,138,138,146,1,twoone
,,,,,,6171165b0a955ac648f01d30,62c539f23c3942f0dbd9d0ed,2022-07-06_09h33.29.050,Colour_Asymmetry_Pilot,2022.1.3,Linux armv7l,58.71645822,62c50e9c1127f2cd403a315f,0,139,139,161,1,onethree
,,,,,,6171165b0a955ac648f01d30,62c539f23c3942f0dbd9d0ed,2022-07-06_09h33.29.050,Colour_Asymmetry_Pilot,2022.1.3,Linux armv7l,58.71645822,62c50e9c1127f2cd403a315f,0,140,140,10,1,twoone
,,,,,,6171165b0a955ac648f01d30,62c539f23c3942f0dbd9d0ed,2022-07-06_09h33.29.050,Colour_Asymmetry_Pilot,2022.1.3,Linux armv7l,58.71645822,62c50e9c1127f2cd403a315f,0,141,141,130,1,twoone
,,,,,,6171165b0a955ac648f01d30,62c539f23c3942f0dbd9d0ed,2022-07-06_09h33.29.050,Colour_Asymmetry_Pilot,2022.1.3,Linux armv7l,58.71645822,62c50e9c1127f2cd403a315f,0,142,142,0,1,onetwo
,,,,,,6171165b0a955ac648f01d30,62c539f23c3942f0dbd9d0ed,2022-07-06_09h33.29.050,Colour_Asymmetry_Pilot,2022.1.3,Linux armv7l,58.71645822,62c50e9c1127f2cd403a315f,0,143,143,124,1,threeone
,,,,,,6171165b0a955ac648f01d30,62c539f23c3942f0dbd9d0ed,2022-07-06_09h33.29.050,Colour_Asymmetry_Pilot,2022.1.3,Linux armv7l,58.71645822,62c50e9c1127f2cd403a315f,0,144,144,13,1,threefour
,,,,,,6171165b0a955ac648f01d30,62c539f23c3942f0dbd9d0ed,2022-07-06_09h33.29.050,Colour_Asymmetry_Pilot,2022.1.3,Linux armv7l,58.71645822,62c50e9c1127f2cd403a315f,0,145,145,42,1,twoone
,,,,,,6171165b0a955ac648f01d30,62c539f23c3942f0dbd9d0ed,2022-07-06_09h33.29.050,Colour_Asymmetry_Pilot,2022.1.3,Linux armv7l,58.71645822,62c50e9c1127f2cd403a315f,0,146,146,156,1,threeone
,,,,,,6171165b0a955ac648f01d30,62c539f23c3942f0dbd9d0ed,2022-07-06_09h33.29.050,Colour_Asymmetry_Pilot,2022.1.3,Linux armv7l,58.71645822,62c50e9c1127f2cd403a315f,0,147,147,56,1,onetwo
,,,,,,6171165b0a955ac648f01d30,62c539f23c3942f0dbd9d0ed,2022-07-06_09h33.29.050,Colour_Asymmetry_Pilot,2022.1.3,Linux armv7l,58.71645822,62c50e9c1127f2cd403a315f,0,148,148,32,1,onetwo
,,,,,,6171165b0a955ac648f01d30,62c539f23c3942f0dbd9d0ed,2022-07-06_09h33.29.050,Colour_Asymmetry_Pilot,2022.1.3,Linux armv7l,58.71645822,62c50e9c1127f2cd403a315f,0,149,149,144,1,onetwo
,,,,,,6171165b0a955ac648f01d30,62c539f23c3942f0dbd9d0ed,2022-07-06_09h33.29.050,Colour_Asymmetry_Pilot,2022.1.3,Linux armv7l,58.71645822,62c50e9c1127f2cd403a315f,0,150,150,3,1,twofour
,,,,,,6171165b0a955ac648f01d30,62c539f23c3942f0dbd9d0ed,2022-07-06_09h33.29.050,Colour_Asymmetry_Pilot,2022.1.3,Linux armv7l,58.71645822,62c50e9c1127f2cd403a315f,0,151,151,135,1,fourthree
,,,,,,6171165b0a955ac648f01d30,62c539f23c3942f0dbd9d0ed,2022-07-06_09h33.29.050,Colour_Asymmetry_Pilot,2022.1.3,Linux armv7l,58.71645822,62c50e9c1127f2cd403a315f,0,152,152,137,1,onethree
,,,,,,6171165b0a955ac648f01d30,62c539f23c3942f0dbd9d0ed,2022-07-06_09h33.29.050,Colour_Asymmetry_Pilot,2022.1.3,Linux armv7l,58.71645822,62c50e9c1127f2cd403a315f,0,153,153,78,1,fourtwo
,,,,,,6171165b0a955ac648f01d30,62c539f23c3942f0dbd9d0ed,2022-07-06_09h33.29.050,Colour_Asymmetry_Pilot,2022.1.3,Linux armv7l,58.71645822,62c50e9c1127f2cd403a315f,0,154,154,145,1,onethree
,,,,,,6171165b0a955ac648f01d30,62c539f23c3942f0dbd9d0ed,2022-07-06_09h33.29.050,Colour_Asymmetry_Pilot,2022.1.3,Linux armv7l,58.71645822,62c50e9c1127f2cd403a315f,0,155,155,128,1,onetwo
,,,,,,6171165b0a955ac648f01d30,62c539f23c3942f0dbd9d0ed,2022-07-06_09h33.29.050,Colour_Asymmetry_Pilot,2022.1.3,Linux armv7l,58.71645822,62c50e9c1127f2cd403a315f,0,156,156,53,1,threefour
,,,,,,6171165b0a955ac648f01d30,62c539f23c3942f0dbd9d0ed,2022-07-06_09h33.29.050,Colour_Asymmetry_Pilot,2022.1.3,Linux armv7l,58.71645822,62c50e9c1127f2cd403a315f,0,157,157,11,1,twofour
,,,,,,6171165b0a955ac648f01d30,62c539f23c3942f0dbd9d0ed,2022-07-06_09h33.29.050,Colour_Asymmetry_Pilot,2022.1.3,Linux armv7l,58.71645822,62c50e9c1127f2cd403a315f,0,158,158,33,1,onethree
,,,,,,6171165b0a955ac648f01d30,62c539f23c3942f0dbd9d0ed,2022-07-06_09h33.29.050,Colour_Asymmetry_Pilot,2022.1.3,Linux armv7l,58.71645822,62c50e9c1127f2cd403a315f,0,159,159,70,1,fourtwo
,,,,,,6171165b0a955ac648f01d30,62c539f23c3942f0dbd9d0ed,2022-07-06_09h33.29.050,Colour_Asymmetry_Pilot,2022.1.3,Linux armv7l,58.71645822,62c50e9c1127f2cd403a315f,0,160,160,62,1,fourtwo
,,,,,,6171165b0a955ac648f01d30,62c539f23c3942f0dbd9d0ed,2022-07-06_09h33.29.050,Colour_Asymmetry_Pilot,2022.1.3,Linux armv7l,58.71645822,62c50e9c1127f2cd403a315f,0,161,161,29,1,threefour
