trials.thisRepN,trials.thisTrialN,trials.thisN,trials.thisIndex,trials.ran,Colourcodes,participant,session,date,expName,psychopyVersion,OS,frameRate,study_id,trials_4.thisRepN,trials_4.thisTrialN,trials_4.thisN,trials_4.thisIndex,trials_4.ran,StimulusPos
0,0,0,47,1,,5f5235b79cd77749d6051ce6,62c53a50ecd659bb0b2aae8c,2022-07-06_09h31.48.626,Colour_Asymmetry_Pilot,2022.1.3,Win32,143.9677512,62c50e9c1127f2cd403a315f,,,,,,
0,1,1,6,1,,5f5235b79cd77749d6051ce6,62c53a50ecd659bb0b2aae8c,2022-07-06_09h31.48.626,Colour_Asymmetry_Pilot,2022.1.3,Win32,143.9677512,62c50e9c1127f2cd403a315f,,,,,,
0,2,2,30,1,,5f5235b79cd77749d6051ce6,62c53a50ecd659bb0b2aae8c,2022-07-06_09h31.48.626,Colour_Asymmetry_Pilot,2022.1.3,Win32,143.9677512,62c50e9c1127f2cd403a315f,,,,,,
0,3,3,67,1,,5f5235b79cd77749d6051ce6,62c53a50ecd659bb0b2aae8c,2022-07-06_09h31.48.626,Colour_Asymmetry_Pilot,2022.1.3,Win32,143.9677512,62c50e9c1127f2cd403a315f,,,,,,
0,4,4,48,1,,5f5235b79cd77749d6051ce6,62c53a50ecd659bb0b2aae8c,2022-07-06_09h31.48.626,Colour_Asymmetry_Pilot,2022.1.3,Win32,143.9677512,62c50e9c1127f2cd403a315f,,,,,,
0,5,5,87,1,,5f5235b79cd77749d6051ce6,62c53a50ecd659bb0b2aae8c,2022-07-06_09h31.48.626,Colour_Asymmetry_Pilot,2022.1.3,Win32,143.9677512,62c50e9c1127f2cd403a315f,,,,,,
0,6,6,7,1,,5f5235b79cd77749d6051ce6,62c53a50ecd659bb0b2aae8c,2022-07-06_09h31.48.626,Colour_Asymmetry_Pilot,2022.1.3,Win32,143.9677512,62c50e9c1127f2cd403a315f,,,,,,
0,7,7,4,1,,5f5235b79cd77749d6051ce6,62c53a50ecd659bb0b2aae8c,2022-07-06_09h31.48.626,Colour_Asymmetry_Pilot,2022.1.3,Win32,143.9677512,62c50e9c1127f2cd403a315f,,,,,,
0,8,8,76,1,,5f5235b79cd77749d6051ce6,62c53a50ecd659bb0b2aae8c,2022-07-06_09h31.48.626,Colour_Asymmetry_Pilot,2022.1.3,Win32,143.9677512,62c50e9c1127f2cd403a315f,,,,,,
0,9,9,11,1,,5f5235b79cd77749d6051ce6,62c53a50ecd659bb0b2aae8c,2022-07-06_09h31.48.626,Colour_Asymmetry_Pilot,2022.1.3,Win32,143.9677512,62c50e9c1127f2cd403a315f,,,,,,
0,10,10,17,1,,5f5235b79cd77749d6051ce6,62c53a50ecd659bb0b2aae8c,2022-07-06_09h31.48.626,Colour_Asymmetry_Pilot,2022.1.3,Win32,143.9677512,62c50e9c1127f2cd403a315f,,,,,,
0,11,11,82,1,,5f5235b79cd77749d6051ce6,62c53a50ecd659bb0b2aae8c,2022-07-06_09h31.48.626,Colour_Asymmetry_Pilot,2022.1.3,Win32,143.9677512,62c50e9c1127f2cd403a315f,,,,,,
0,12,12,15,1,,5f5235b79cd77749d6051ce6,62c53a50ecd659bb0b2aae8c,2022-07-06_09h31.48.626,Colour_Asymmetry_Pilot,2022.1.3,Win32,143.9677512,62c50e9c1127f2cd403a315f,,,,,,
0,13,13,29,1,,5f5235b79cd77749d6051ce6,62c53a50ecd659bb0b2aae8c,2022-07-06_09h31.48.626,Colour_Asymmetry_Pilot,2022.1.3,Win32,143.9677512,62c50e9c1127f2cd403a315f,,,,,,
0,14,14,12,1,,5f5235b79cd77749d6051ce6,62c53a50ecd659bb0b2aae8c,2022-07-06_09h31.48.626,Colour_Asymmetry_Pilot,2022.1.3,Win32,143.9677512,62c50e9c1127f2cd403a315f,,,,,,
0,15,15,13,1,,5f5235b79cd77749d6051ce6,62c53a50ecd659bb0b2aae8c,2022-07-06_09h31.48.626,Colour_Asymmetry_Pilot,2022.1.3,Win32,143.9677512,62c50e9c1127f2cd403a315f,,,,,,
0,16,16,19,1,,5f5235b79cd77749d6051ce6,62c53a50ecd659bb0b2aae8c,2022-07-06_09h31.48.626,Colour_Asymmetry_Pilot,2022.1.3,Win32,143.9677512,62c50e9c1127f2cd403a315f,,,,,,
0,17,17,51,1,,5f5235b79cd77749d6051ce6,62c53a50ecd659bb0b2aae8c,2022-07-06_09h31.48.626,Colour_Asymmetry_Pilot,2022.1.3,Win32,143.9677512,62c50e9c1127f2cd403a315f,,,,,,
0,18,18,50,1,,5f5235b79cd77749d6051ce6,62c53a50ecd659bb0b2aae8c,2022-07-06_09h31.48.626,Colour_Asymmetry_Pilot,2022.1.3,Win32,143.9677512,62c50e9c1127f2cd403a315f,,,,,,
0,19,19,8,1,,5f5235b79cd77749d6051ce6,62c53a50ecd659bb0b2aae8c,2022-07-06_09h31.48.626,Colour_Asymmetry_Pilot,2022.1.3,Win32,143.9677512,62c50e9c1127f2cd403a315f,,,,,,
0,20,20,64,1,,5f5235b79cd77749d6051ce6,62c53a50ecd659bb0b2aae8c,2022-07-06_09h31.48.626,Colour_Asymmetry_Pilot,2022.1.3,Win32,143.9677512,62c50e9c1127f2cd403a315f,,,,,,
0,21,21,68,1,,5f5235b79cd77749d6051ce6,62c53a50ecd659bb0b2aae8c,2022-07-06_09h31.48.626,Colour_Asymmetry_Pilot,2022.1.3,Win32,143.9677512,62c50e9c1127f2cd403a315f,,,,,,
0,22,22,44,1,,5f5235b79cd77749d6051ce6,62c53a50ecd659bb0b2aae8c,2022-07-06_09h31.48.626,Colour_Asymmetry_Pilot,2022.1.3,Win32,143.9677512,62c50e9c1127f2cd403a315f,,,,,,
0,23,23,91,1,,5f5235b79cd77749d6051ce6,62c53a50ecd659bb0b2aae8c,2022-07-06_09h31.48.626,Colour_Asymmetry_Pilot,2022.1.3,Win32,143.9677512,62c50e9c1127f2cd403a315f,,,,,,
0,24,24,26,1,,5f5235b79cd77749d6051ce6,62c53a50ecd659bb0b2aae8c,2022-07-06_09h31.48.626,Colour_Asymmetry_Pilot,2022.1.3,Win32,143.9677512,62c50e9c1127f2cd403a315f,,,,,,
0,25,25,84,1,,5f5235b79cd77749d6051ce6,62c53a50ecd659bb0b2aae8c,2022-07-06_09h31.48.626,Colour_Asymmetry_Pilot,2022.1.3,Win32,143.9677512,62c50e9c1127f2cd403a315f,,,,,,
0,26,26,74,1,,5f5235b79cd77749d6051ce6,62c53a50ecd659bb0b2aae8c,2022-07-06_09h31.48.626,Colour_Asymmetry_Pilot,2022.1.3,Win32,143.9677512,62c50e9c1127f2cd403a315f,,,,,,
0,27,27,39,1,,5f5235b79cd77749d6051ce6,62c53a50ecd659bb0b2aae8c,2022-07-06_09h31.48.626,Colour_Asymmetry_Pilot,2022.1.3,Win32,143.9677512,62c50e9c1127f2cd403a315f,,,,,,
0,28,28,69,1,,5f5235b79cd77749d6051ce6,62c53a50ecd659bb0b2aae8c,2022-07-06_09h31.48.626,Colour_Asymmetry_Pilot,2022.1.3,Win32,143.9677512,62c50e9c1127f2cd403a315f,,,,,,
0,29,29,25,1,,5f5235b79cd77749d6051ce6,62c53a50ecd659bb0b2aae8c,2022-07-06_09h31.48.626,Colour_Asymmetry_Pilot,2022.1.3,Win32,143.9677512,62c50e9c1127f2cd403a315f,,,,,,
0,30,30,41,1,,5f5235b79cd77749d6051ce6,62c53a50ecd659bb0b2aae8c,2022-07-06_09h31.48.626,Colour_Asymmetry_Pilot,2022.1.3,Win32,143.9677512,62c50e9c1127f2cd403a315f,,,,,,
0,31,31,20,1,,5f5235b79cd77749d6051ce6,62c53a50ecd659bb0b2aae8c,2022-07-06_09h31.48.626,Colour_Asymmetry_Pilot,2022.1.3,Win32,143.9677512,62c50e9c1127f2cd403a315f,,,,,,
0,32,32,31,1,,5f5235b79cd77749d6051ce6,62c53a50ecd659bb0b2aae8c,2022-07-06_09h31.48.626,Colour_Asymmetry_Pilot,2022.1.3,Win32,143.9677512,62c50e9c1127f2cd403a315f,,,,,,
0,33,33,24,1,,5f5235b79cd77749d6051ce6,62c53a50ecd659bb0b2aae8c,2022-07-06_09h31.48.626,Colour_Asymmetry_Pilot,2022.1.3,Win32,143.9677512,62c50e9c1127f2cd403a315f,,,,,,
0,34,34,34,1,,5f5235b79cd77749d6051ce6,62c53a50ecd659bb0b2aae8c,2022-07-06_09h31.48.626,Colour_Asymmetry_Pilot,2022.1.3,Win32,143.9677512,62c50e9c1127f2cd403a315f,,,,,,
0,35,35,55,1,,5f5235b79cd77749d6051ce6,62c53a50ecd659bb0b2aae8c,2022-07-06_09h31.48.626,Colour_Asymmetry_Pilot,2022.1.3,Win32,143.9677512,62c50e9c1127f2cd403a315f,,,,,,
0,36,36,16,1,,5f5235b79cd77749d6051ce6,62c53a50ecd659bb0b2aae8c,2022-07-06_09h31.48.626,Colour_Asymmetry_Pilot,2022.1.3,Win32,143.9677512,62c50e9c1127f2cd403a315f,,,,,,
0,37,37,63,1,,5f5235b79cd77749d6051ce6,62c53a50ecd659bb0b2aae8c,2022-07-06_09h31.48.626,Colour_Asymmetry_Pilot,2022.1.3,Win32,143.9677512,62c50e9c1127f2cd403a315f,,,,,,
0,38,38,32,1,,5f5235b79cd77749d6051ce6,62c53a50ecd659bb0b2aae8c,2022-07-06_09h31.48.626,Colour_Asymmetry_Pilot,2022.1.3,Win32,143.9677512,62c50e9c1127f2cd403a315f,,,,,,
0,39,39,88,1,,5f5235b79cd77749d6051ce6,62c53a50ecd659bb0b2aae8c,2022-07-06_09h31.48.626,Colour_Asymmetry_Pilot,2022.1.3,Win32,143.9677512,62c50e9c1127f2cd403a315f,,,,,,
0,40,40,90,1,,5f5235b79cd77749d6051ce6,62c53a50ecd659bb0b2aae8c,2022-07-06_09h31.48.626,Colour_Asymmetry_Pilot,2022.1.3,Win32,143.9677512,62c50e9c1127f2cd403a315f,,,,,,
0,41,41,70,1,,5f5235b79cd77749d6051ce6,62c53a50ecd659bb0b2aae8c,2022-07-06_09h31.48.626,Colour_Asymmetry_Pilot,2022.1.3,Win32,143.9677512,62c50e9c1127f2cd403a315f,,,,,,
0,42,42,54,1,,5f5235b79cd77749d6051ce6,62c53a50ecd659bb0b2aae8c,2022-07-06_09h31.48.626,Colour_Asymmetry_Pilot,2022.1.3,Win32,143.9677512,62c50e9c1127f2cd403a315f,,,,,,
0,43,43,43,1,,5f5235b79cd77749d6051ce6,62c53a50ecd659bb0b2aae8c,2022-07-06_09h31.48.626,Colour_Asymmetry_Pilot,2022.1.3,Win32,143.9677512,62c50e9c1127f2cd403a315f,,,,,,
0,44,44,2,1,,5f5235b79cd77749d6051ce6,62c53a50ecd659bb0b2aae8c,2022-07-06_09h31.48.626,Colour_Asymmetry_Pilot,2022.1.3,Win32,143.9677512,62c50e9c1127f2cd403a315f,,,,,,
0,45,45,78,1,,5f5235b79cd77749d6051ce6,62c53a50ecd659bb0b2aae8c,2022-07-06_09h31.48.626,Colour_Asymmetry_Pilot,2022.1.3,Win32,143.9677512,62c50e9c1127f2cd403a315f,,,,,,
0,46,46,85,1,,5f5235b79cd77749d6051ce6,62c53a50ecd659bb0b2aae8c,2022-07-06_09h31.48.626,Colour_Asymmetry_Pilot,2022.1.3,Win32,143.9677512,62c50e9c1127f2cd403a315f,,,,,,
0,47,47,18,1,,5f5235b79cd77749d6051ce6,62c53a50ecd659bb0b2aae8c,2022-07-06_09h31.48.626,Colour_Asymmetry_Pilot,2022.1.3,Win32,143.9677512,62c50e9c1127f2cd403a315f,,,,,,
0,48,48,33,1,,5f5235b79cd77749d6051ce6,62c53a50ecd659bb0b2aae8c,2022-07-06_09h31.48.626,Colour_Asymmetry_Pilot,2022.1.3,Win32,143.9677512,62c50e9c1127f2cd403a315f,,,,,,
0,49,49,23,1,,5f5235b79cd77749d6051ce6,62c53a50ecd659bb0b2aae8c,2022-07-06_09h31.48.626,Colour_Asymmetry_Pilot,2022.1.3,Win32,143.9677512,62c50e9c1127f2cd403a315f,,,,,,
0,50,50,38,1,,5f5235b79cd77749d6051ce6,62c53a50ecd659bb0b2aae8c,2022-07-06_09h31.48.626,Colour_Asymmetry_Pilot,2022.1.3,Win32,143.9677512,62c50e9c1127f2cd403a315f,,,,,,
0,51,51,45,1,,5f5235b79cd77749d6051ce6,62c53a50ecd659bb0b2aae8c,2022-07-06_09h31.48.626,Colour_Asymmetry_Pilot,2022.1.3,Win32,143.9677512,62c50e9c1127f2cd403a315f,,,,,,
0,52,52,71,1,,5f5235b79cd77749d6051ce6,62c53a50ecd659bb0b2aae8c,2022-07-06_09h31.48.626,Colour_Asymmetry_Pilot,2022.1.3,Win32,143.9677512,62c50e9c1127f2cd403a315f,,,,,,
0,53,53,75,1,,5f5235b79cd77749d6051ce6,62c53a50ecd659bb0b2aae8c,2022-07-06_09h31.48.626,Colour_Asymmetry_Pilot,2022.1.3,Win32,143.9677512,62c50e9c1127f2cd403a315f,,,,,,
0,54,54,60,1,,5f5235b79cd77749d6051ce6,62c53a50ecd659bb0b2aae8c,2022-07-06_09h31.48.626,Colour_Asymmetry_Pilot,2022.1.3,Win32,143.9677512,62c50e9c1127f2cd403a315f,,,,,,
0,55,55,61,1,,5f5235b79cd77749d6051ce6,62c53a50ecd659bb0b2aae8c,2022-07-06_09h31.48.626,Colour_Asymmetry_Pilot,2022.1.3,Win32,143.9677512,62c50e9c1127f2cd403a315f,,,,,,
0,56,56,62,1,,5f5235b79cd77749d6051ce6,62c53a50ecd659bb0b2aae8c,2022-07-06_09h31.48.626,Colour_Asymmetry_Pilot,2022.1.3,Win32,143.9677512,62c50e9c1127f2cd403a315f,,,,,,
0,57,57,56,1,,5f5235b79cd77749d6051ce6,62c53a50ecd659bb0b2aae8c,2022-07-06_09h31.48.626,Colour_Asymmetry_Pilot,2022.1.3,Win32,143.9677512,62c50e9c1127f2cd403a315f,,,,,,
0,58,58,35,1,,5f5235b79cd77749d6051ce6,62c53a50ecd659bb0b2aae8c,2022-07-06_09h31.48.626,Colour_Asymmetry_Pilot,2022.1.3,Win32,143.9677512,62c50e9c1127f2cd403a315f,,,,,,
0,59,59,52,1,,5f5235b79cd77749d6051ce6,62c53a50ecd659bb0b2aae8c,2022-07-06_09h31.48.626,Colour_Asymmetry_Pilot,2022.1.3,Win32,143.9677512,62c50e9c1127f2cd403a315f,,,,,,
0,60,60,66,1,,5f5235b79cd77749d6051ce6,62c53a50ecd659bb0b2aae8c,2022-07-06_09h31.48.626,Colour_Asymmetry_Pilot,2022.1.3,Win32,143.9677512,62c50e9c1127f2cd403a315f,,,,,,
0,61,61,27,1,,5f5235b79cd77749d6051ce6,62c53a50ecd659bb0b2aae8c,2022-07-06_09h31.48.626,Colour_Asymmetry_Pilot,2022.1.3,Win32,143.9677512,62c50e9c1127f2cd403a315f,,,,,,
0,62,62,86,1,,5f5235b79cd77749d6051ce6,62c53a50ecd659bb0b2aae8c,2022-07-06_09h31.48.626,Colour_Asymmetry_Pilot,2022.1.3,Win32,143.9677512,62c50e9c1127f2cd403a315f,,,,,,
0,63,63,81,1,,5f5235b79cd77749d6051ce6,62c53a50ecd659bb0b2aae8c,2022-07-06_09h31.48.626,Colour_Asymmetry_Pilot,2022.1.3,Win32,143.9677512,62c50e9c1127f2cd403a315f,,,,,,
0,64,64,92,1,,5f5235b79cd77749d6051ce6,62c53a50ecd659bb0b2aae8c,2022-07-06_09h31.48.626,Colour_Asymmetry_Pilot,2022.1.3,Win32,143.9677512,62c50e9c1127f2cd403a315f,,,,,,
0,65,65,65,1,,5f5235b79cd77749d6051ce6,62c53a50ecd659bb0b2aae8c,2022-07-06_09h31.48.626,Colour_Asymmetry_Pilot,2022.1.3,Win32,143.9677512,62c50e9c1127f2cd403a315f,,,,,,
0,66,66,10,1,,5f5235b79cd77749d6051ce6,62c53a50ecd659bb0b2aae8c,2022-07-06_09h31.48.626,Colour_Asymmetry_Pilot,2022.1.3,Win32,143.9677512,62c50e9c1127f2cd403a315f,,,,,,
0,67,67,57,1,,5f5235b79cd77749d6051ce6,62c53a50ecd659bb0b2aae8c,2022-07-06_09h31.48.626,Colour_Asymmetry_Pilot,2022.1.3,Win32,143.9677512,62c50e9c1127f2cd403a315f,,,,,,
0,68,68,80,1,,5f5235b79cd77749d6051ce6,62c53a50ecd659bb0b2aae8c,2022-07-06_09h31.48.626,Colour_Asymmetry_Pilot,2022.1.3,Win32,143.9677512,62c50e9c1127f2cd403a315f,,,,,,
0,69,69,46,1,,5f5235b79cd77749d6051ce6,62c53a50ecd659bb0b2aae8c,2022-07-06_09h31.48.626,Colour_Asymmetry_Pilot,2022.1.3,Win32,143.9677512,62c50e9c1127f2cd403a315f,,,,,,
0,70,70,1,1,,5f5235b79cd77749d6051ce6,62c53a50ecd659bb0b2aae8c,2022-07-06_09h31.48.626,Colour_Asymmetry_Pilot,2022.1.3,Win32,143.9677512,62c50e9c1127f2cd403a315f,,,,,,
0,71,71,73,1,,5f5235b79cd77749d6051ce6,62c53a50ecd659bb0b2aae8c,2022-07-06_09h31.48.626,Colour_Asymmetry_Pilot,2022.1.3,Win32,143.9677512,62c50e9c1127f2cd403a315f,,,,,,
0,72,72,9,1,,5f5235b79cd77749d6051ce6,62c53a50ecd659bb0b2aae8c,2022-07-06_09h31.48.626,Colour_Asymmetry_Pilot,2022.1.3,Win32,143.9677512,62c50e9c1127f2cd403a315f,,,,,,
0,73,73,22,1,,5f5235b79cd77749d6051ce6,62c53a50ecd659bb0b2aae8c,2022-07-06_09h31.48.626,Colour_Asymmetry_Pilot,2022.1.3,Win32,143.9677512,62c50e9c1127f2cd403a315f,,,,,,
0,74,74,89,1,,5f5235b79cd77749d6051ce6,62c53a50ecd659bb0b2aae8c,2022-07-06_09h31.48.626,Colour_Asymmetry_Pilot,2022.1.3,Win32,143.9677512,62c50e9c1127f2cd403a315f,,,,,,
0,75,75,28,1,,5f5235b79cd77749d6051ce6,62c53a50ecd659bb0b2aae8c,2022-07-06_09h31.48.626,Colour_Asymmetry_Pilot,2022.1.3,Win32,143.9677512,62c50e9c1127f2cd403a315f,,,,,,
0,76,76,53,1,,5f5235b79cd77749d6051ce6,62c53a50ecd659bb0b2aae8c,2022-07-06_09h31.48.626,Colour_Asymmetry_Pilot,2022.1.3,Win32,143.9677512,62c50e9c1127f2cd403a315f,,,,,,
0,77,77,49,1,,5f5235b79cd77749d6051ce6,62c53a50ecd659bb0b2aae8c,2022-07-06_09h31.48.626,Colour_Asymmetry_Pilot,2022.1.3,Win32,143.9677512,62c50e9c1127f2cd403a315f,,,,,,
0,78,78,42,1,,5f5235b79cd77749d6051ce6,62c53a50ecd659bb0b2aae8c,2022-07-06_09h31.48.626,Colour_Asymmetry_Pilot,2022.1.3,Win32,143.9677512,62c50e9c1127f2cd403a315f,,,,,,
0,79,79,83,1,,5f5235b79cd77749d6051ce6,62c53a50ecd659bb0b2aae8c,2022-07-06_09h31.48.626,Colour_Asymmetry_Pilot,2022.1.3,Win32,143.9677512,62c50e9c1127f2cd403a315f,,,,,,
0,80,80,40,1,,5f5235b79cd77749d6051ce6,62c53a50ecd659bb0b2aae8c,2022-07-06_09h31.48.626,Colour_Asymmetry_Pilot,2022.1.3,Win32,143.9677512,62c50e9c1127f2cd403a315f,,,,,,
0,81,81,77,1,,5f5235b79cd77749d6051ce6,62c53a50ecd659bb0b2aae8c,2022-07-06_09h31.48.626,Colour_Asymmetry_Pilot,2022.1.3,Win32,143.9677512,62c50e9c1127f2cd403a315f,,,,,,
0,82,82,21,1,,5f5235b79cd77749d6051ce6,62c53a50ecd659bb0b2aae8c,2022-07-06_09h31.48.626,Colour_Asymmetry_Pilot,2022.1.3,Win32,143.9677512,62c50e9c1127f2cd403a315f,,,,,,
0,83,83,79,1,,5f5235b79cd77749d6051ce6,62c53a50ecd659bb0b2aae8c,2022-07-06_09h31.48.626,Colour_Asymmetry_Pilot,2022.1.3,Win32,143.9677512,62c50e9c1127f2cd403a315f,,,,,,
0,84,84,5,1,,5f5235b79cd77749d6051ce6,62c53a50ecd659bb0b2aae8c,2022-07-06_09h31.48.626,Colour_Asymmetry_Pilot,2022.1.3,Win32,143.9677512,62c50e9c1127f2cd403a315f,,,,,,
0,85,85,14,1,,5f5235b79cd77749d6051ce6,62c53a50ecd659bb0b2aae8c,2022-07-06_09h31.48.626,Colour_Asymmetry_Pilot,2022.1.3,Win32,143.9677512,62c50e9c1127f2cd403a315f,,,,,,
0,86,86,72,1,,5f5235b79cd77749d6051ce6,62c53a50ecd659bb0b2aae8c,2022-07-06_09h31.48.626,Colour_Asymmetry_Pilot,2022.1.3,Win32,143.9677512,62c50e9c1127f2cd403a315f,,,,,,
0,87,87,59,1,,5f5235b79cd77749d6051ce6,62c53a50ecd659bb0b2aae8c,2022-07-06_09h31.48.626,Colour_Asymmetry_Pilot,2022.1.3,Win32,143.9677512,62c50e9c1127f2cd403a315f,,,,,,
0,88,88,36,1,,5f5235b79cd77749d6051ce6,62c53a50ecd659bb0b2aae8c,2022-07-06_09h31.48.626,Colour_Asymmetry_Pilot,2022.1.3,Win32,143.9677512,62c50e9c1127f2cd403a315f,,,,,,
0,89,89,37,1,,5f5235b79cd77749d6051ce6,62c53a50ecd659bb0b2aae8c,2022-07-06_09h31.48.626,Colour_Asymmetry_Pilot,2022.1.3,Win32,143.9677512,62c50e9c1127f2cd403a315f,,,,,,
0,90,90,0,1,,5f5235b79cd77749d6051ce6,62c53a50ecd659bb0b2aae8c,2022-07-06_09h31.48.626,Colour_Asymmetry_Pilot,2022.1.3,Win32,143.9677512,62c50e9c1127f2cd403a315f,,,,,,
0,91,91,3,1,,5f5235b79cd77749d6051ce6,62c53a50ecd659bb0b2aae8c,2022-07-06_09h31.48.626,Colour_Asymmetry_Pilot,2022.1.3,Win32,143.9677512,62c50e9c1127f2cd403a315f,,,,,,
0,92,92,58,1,,5f5235b79cd77749d6051ce6,62c53a50ecd659bb0b2aae8c,2022-07-06_09h31.48.626,Colour_Asymmetry_Pilot,2022.1.3,Win32,143.9677512,62c50e9c1127f2cd403a315f,,,,,,
,,,,,,5f5235b79cd77749d6051ce6,62c53a50ecd659bb0b2aae8c,2022-07-06_09h31.48.626,Colour_Asymmetry_Pilot,2022.1.3,Win32,143.9677512,62c50e9c1127f2cd403a315f,0,0,0,153,1,onethree
,,,,,,5f5235b79cd77749d6051ce6,62c53a50ecd659bb0b2aae8c,2022-07-06_09h31.48.626,Colour_Asymmetry_Pilot,2022.1.3,Win32,143.9677512,62c50e9c1127f2cd403a315f,0,1,1,127,1,fourthree
,,,,,,5f5235b79cd77749d6051ce6,62c53a50ecd659bb0b2aae8c,2022-07-06_09h31.48.626,Colour_Asymmetry_Pilot,2022.1.3,Win32,143.9677512,62c50e9c1127f2cd403a315f,0,2,2,96,1,onetwo
,,,,,,5f5235b79cd77749d6051ce6,62c53a50ecd659bb0b2aae8c,2022-07-06_09h31.48.626,Colour_Asymmetry_Pilot,2022.1.3,Win32,143.9677512,62c50e9c1127f2cd403a315f,0,3,3,16,1,onetwo
,,,,,,5f5235b79cd77749d6051ce6,62c53a50ecd659bb0b2aae8c,2022-07-06_09h31.48.626,Colour_Asymmetry_Pilot,2022.1.3,Win32,143.9677512,62c50e9c1127f2cd403a315f,0,4,4,48,1,onetwo
,,,,,,5f5235b79cd77749d6051ce6,62c53a50ecd659bb0b2aae8c,2022-07-06_09h31.48.626,Colour_Asymmetry_Pilot,2022.1.3,Win32,143.9677512,62c50e9c1127f2cd403a315f,0,5,5,4,1,threeone
,,,,,,5f5235b79cd77749d6051ce6,62c53a50ecd659bb0b2aae8c,2022-07-06_09h31.48.626,Colour_Asymmetry_Pilot,2022.1.3,Win32,143.9677512,62c50e9c1127f2cd403a315f,0,6,6,37,1,threefour
,,,,,,5f5235b79cd77749d6051ce6,62c53a50ecd659bb0b2aae8c,2022-07-06_09h31.48.626,Colour_Asymmetry_Pilot,2022.1.3,Win32,143.9677512,62c50e9c1127f2cd403a315f,0,7,7,157,1,threefour
,,,,,,5f5235b79cd77749d6051ce6,62c53a50ecd659bb0b2aae8c,2022-07-06_09h31.48.626,Colour_Asymmetry_Pilot,2022.1.3,Win32,143.9677512,62c50e9c1127f2cd403a315f,0,8,8,115,1,twofour
,,,,,,5f5235b79cd77749d6051ce6,62c53a50ecd659bb0b2aae8c,2022-07-06_09h31.48.626,Colour_Asymmetry_Pilot,2022.1.3,Win32,143.9677512,62c50e9c1127f2cd403a315f,0,9,9,118,1,fourtwo
,,,,,,5f5235b79cd77749d6051ce6,62c53a50ecd659bb0b2aae8c,2022-07-06_09h31.48.626,Colour_Asymmetry_Pilot,2022.1.3,Win32,143.9677512,62c50e9c1127f2cd403a315f,0,10,10,117,1,threefour
,,,,,,5f5235b79cd77749d6051ce6,62c53a50ecd659bb0b2aae8c,2022-07-06_09h31.48.626,Colour_Asymmetry_Pilot,2022.1.3,Win32,143.9677512,62c50e9c1127f2cd403a315f,0,11,11,25,1,onethree
,,,,,,5f5235b79cd77749d6051ce6,62c53a50ecd659bb0b2aae8c,2022-07-06_09h31.48.626,Colour_Asymmetry_Pilot,2022.1.3,Win32,143.9677512,62c50e9c1127f2cd403a315f,0,12,12,133,1,threefour
,,,,,,5f5235b79cd77749d6051ce6,62c53a50ecd659bb0b2aae8c,2022-07-06_09h31.48.626,Colour_Asymmetry_Pilot,2022.1.3,Win32,143.9677512,62c50e9c1127f2cd403a315f,0,13,13,130,1,twoone
,,,,,,5f5235b79cd77749d6051ce6,62c53a50ecd659bb0b2aae8c,2022-07-06_09h31.48.626,Colour_Asymmetry_Pilot,2022.1.3,Win32,143.9677512,62c50e9c1127f2cd403a315f,0,14,14,159,1,fourthree
,,,,,,5f5235b79cd77749d6051ce6,62c53a50ecd659bb0b2aae8c,2022-07-06_09h31.48.626,Colour_Asymmetry_Pilot,2022.1.3,Win32,143.9677512,62c50e9c1127f2cd403a315f,0,15,15,44,1,threeone
,,,,,,5f5235b79cd77749d6051ce6,62c53a50ecd659bb0b2aae8c,2022-07-06_09h31.48.626,Colour_Asymmetry_Pilot,2022.1.3,Win32,143.9677512,62c50e9c1127f2cd403a315f,0,16,16,32,1,onetwo
,,,,,,5f5235b79cd77749d6051ce6,62c53a50ecd659bb0b2aae8c,2022-07-06_09h31.48.626,Colour_Asymmetry_Pilot,2022.1.3,Win32,143.9677512,62c50e9c1127f2cd403a315f,0,17,17,24,1,onetwo
,,,,,,5f5235b79cd77749d6051ce6,62c53a50ecd659bb0b2aae8c,2022-07-06_09h31.48.626,Colour_Asymmetry_Pilot,2022.1.3,Win32,143.9677512,62c50e9c1127f2cd403a315f,0,18,18,116,1,threeone
,,,,,,5f5235b79cd77749d6051ce6,62c53a50ecd659bb0b2aae8c,2022-07-06_09h31.48.626,Colour_Asymmetry_Pilot,2022.1.3,Win32,143.9677512,62c50e9c1127f2cd403a315f,0,19,19,131,1,twofour
,,,,,,5f5235b79cd77749d6051ce6,62c53a50ecd659bb0b2aae8c,2022-07-06_09h31.48.626,Colour_Asymmetry_Pilot,2022.1.3,Win32,143.9677512,62c50e9c1127f2cd403a315f,0,20,20,86,1,fourtwo
,,,,,,5f5235b79cd77749d6051ce6,62c53a50ecd659bb0b2aae8c,2022-07-06_09h31.48.626,Colour_Asymmetry_Pilot,2022.1.3,Win32,143.9677512,62c50e9c1127f2cd403a315f,0,21,21,81,1,onethree
,,,,,,5f5235b79cd77749d6051ce6,62c53a50ecd659bb0b2aae8c,2022-07-06_09h31.48.626,Colour_Asymmetry_Pilot,2022.1.3,Win32,143.9677512,62c50e9c1127f2cd403a315f,0,22,22,66,1,twoone
,,,,,,5f5235b79cd77749d6051ce6,62c53a50ecd659bb0b2aae8c,2022-07-06_09h31.48.626,Colour_Asymmetry_Pilot,2022.1.3,Win32,143.9677512,62c50e9c1127f2cd403a315f,0,23,23,112,1,onetwo
,,,,,,5f5235b79cd77749d6051ce6,62c53a50ecd659bb0b2aae8c,2022-07-06_09h31.48.626,Colour_Asymmetry_Pilot,2022.1.3,Win32,143.9677512,62c50e9c1127f2cd403a315f,0,24,24,147,1,twofour
,,,,,,5f5235b79cd77749d6051ce6,62c53a50ecd659bb0b2aae8c,2022-07-06_09h31.48.626,Colour_Asymmetry_Pilot,2022.1.3,Win32,143.9677512,62c50e9c1127f2cd403a315f,0,25,25,43,1,twofour
,,,,,,5f5235b79cd77749d6051ce6,62c53a50ecd659bb0b2aae8c,2022-07-06_09h31.48.626,Colour_Asymmetry_Pilot,2022.1.3,Win32,143.9677512,62c50e9c1127f2cd403a315f,0,26,26,31,1,fourthree
,,,,,,5f5235b79cd77749d6051ce6,62c53a50ecd659bb0b2aae8c,2022-07-06_09h31.48.626,Colour_Asymmetry_Pilot,2022.1.3,Win32,143.9677512,62c50e9c1127f2cd403a315f,0,27,27,97,1,onethree
,,,,,,5f5235b79cd77749d6051ce6,62c53a50ecd659bb0b2aae8c,2022-07-06_09h31.48.626,Colour_Asymmetry_Pilot,2022.1.3,Win32,143.9677512,62c50e9c1127f2cd403a315f,0,28,28,0,1,onetwo
,,,,,,5f5235b79cd77749d6051ce6,62c53a50ecd659bb0b2aae8c,2022-07-06_09h31.48.626,Colour_Asymmetry_Pilot,2022.1.3,Win32,143.9677512,62c50e9c1127f2cd403a315f,0,29,29,8,1,onetwo
,,,,,,5f5235b79cd77749d6051ce6,62c53a50ecd659bb0b2aae8c,2022-07-06_09h31.48.626,Colour_Asymmetry_Pilot,2022.1.3,Win32,143.9677512,62c50e9c1127f2cd403a315f,0,30,30,83,1,twofour
,,,,,,5f5235b79cd77749d6051ce6,62c53a50ecd659bb0b2aae8c,2022-07-06_09h31.48.626,Colour_Asymmetry_Pilot,2022.1.3,Win32,143.9677512,62c50e9c1127f2cd403a315f,0,31,31,42,1,twoone
,,,,,,5f5235b79cd77749d6051ce6,62c53a50ecd659bb0b2aae8c,2022-07-06_09h31.48.626,Colour_Asymmetry_Pilot,2022.1.3,Win32,143.9677512,62c50e9c1127f2cd403a315f,0,32,32,101,1,threefour
,,,,,,5f5235b79cd77749d6051ce6,62c53a50ecd659bb0b2aae8c,2022-07-06_09h31.48.626,Colour_Asymmetry_Pilot,2022.1.3,Win32,143.9677512,62c50e9c1127f2cd403a315f,0,33,33,39,1,fourthree
,,,,,,5f5235b79cd77749d6051ce6,62c53a50ecd659bb0b2aae8c,2022-07-06_09h31.48.626,Colour_Asymmetry_Pilot,2022.1.3,Win32,143.9677512,62c50e9c1127f2cd403a315f,0,34,34,30,1,fourtwo
,,,,,,5f5235b79cd77749d6051ce6,62c53a50ecd659bb0b2aae8c,2022-07-06_09h31.48.626,Colour_Asymmetry_Pilot,2022.1.3,Win32,143.9677512,62c50e9c1127f2cd403a315f,0,35,35,102,1,fourtwo
,,,,,,5f5235b79cd77749d6051ce6,62c53a50ecd659bb0b2aae8c,2022-07-06_09h31.48.626,Colour_Asymmetry_Pilot,2022.1.3,Win32,143.9677512,62c50e9c1127f2cd403a315f,0,36,36,75,1,twofour
,,,,,,5f5235b79cd77749d6051ce6,62c53a50ecd659bb0b2aae8c,2022-07-06_09h31.48.626,Colour_Asymmetry_Pilot,2022.1.3,Win32,143.9677512,62c50e9c1127f2cd403a315f,0,37,37,99,1,twofour
,,,,,,5f5235b79cd77749d6051ce6,62c53a50ecd659bb0b2aae8c,2022-07-06_09h31.48.626,Colour_Asymmetry_Pilot,2022.1.3,Win32,143.9677512,62c50e9c1127f2cd403a315f,0,38,38,124,1,threeone
,,,,,,5f5235b79cd77749d6051ce6,62c53a50ecd659bb0b2aae8c,2022-07-06_09h31.48.626,Colour_Asymmetry_Pilot,2022.1.3,Win32,143.9677512,62c50e9c1127f2cd403a315f,0,39,39,103,1,fourthree
,,,,,,5f5235b79cd77749d6051ce6,62c53a50ecd659bb0b2aae8c,2022-07-06_09h31.48.626,Colour_Asymmetry_Pilot,2022.1.3,Win32,143.9677512,62c50e9c1127f2cd403a315f,0,40,40,72,1,onetwo
,,,,,,5f5235b79cd77749d6051ce6,62c53a50ecd659bb0b2aae8c,2022-07-06_09h31.48.626,Colour_Asymmetry_Pilot,2022.1.3,Win32,143.9677512,62c50e9c1127f2cd403a315f,0,41,41,128,1,onetwo
,,,,,,5f5235b79cd77749d6051ce6,62c53a50ecd659bb0b2aae8c,2022-07-06_09h31.48.626,Colour_Asymmetry_Pilot,2022.1.3,Win32,143.9677512,62c50e9c1127f2cd403a315f,0,42,42,19,1,twofour
,,,,,,5f5235b79cd77749d6051ce6,62c53a50ecd659bb0b2aae8c,2022-07-06_09h31.48.626,Colour_Asymmetry_Pilot,2022.1.3,Win32,143.9677512,62c50e9c1127f2cd403a315f,0,43,43,6,1,fourtwo
,,,,,,5f5235b79cd77749d6051ce6,62c53a50ecd659bb0b2aae8c,2022-07-06_09h31.48.626,Colour_Asymmetry_Pilot,2022.1.3,Win32,143.9677512,62c50e9c1127f2cd403a315f,0,44,44,28,1,threeone
,,,,,,5f5235b79cd77749d6051ce6,62c53a50ecd659bb0b2aae8c,2022-07-06_09h31.48.626,Colour_Asymmetry_Pilot,2022.1.3,Win32,143.9677512,62c50e9c1127f2cd403a315f,0,45,45,154,1,twoone
,,,,,,5f5235b79cd77749d6051ce6,62c53a50ecd659bb0b2aae8c,2022-07-06_09h31.48.626,Colour_Asymmetry_Pilot,2022.1.3,Win32,143.9677512,62c50e9c1127f2cd403a315f,0,46,46,11,1,twofour
,,,,,,5f5235b79cd77749d6051ce6,62c53a50ecd659bb0b2aae8c,2022-07-06_09h31.48.626,Colour_Asymmetry_Pilot,2022.1.3,Win32,143.9677512,62c50e9c1127f2cd403a315f,0,47,47,9,1,onethree
,,,,,,5f5235b79cd77749d6051ce6,62c53a50ecd659bb0b2aae8c,2022-07-06_09h31.48.626,Colour_Asymmetry_Pilot,2022.1.3,Win32,143.9677512,62c50e9c1127f2cd403a315f,0,48,48,68,1,threeone
,,,,,,5f5235b79cd77749d6051ce6,62c53a50ecd659bb0b2aae8c,2022-07-06_09h31.48.626,Colour_Asymmetry_Pilot,2022.1.3,Win32,143.9677512,62c50e9c1127f2cd403a315f,0,49,49,13,1,threefour
,,,,,,5f5235b79cd77749d6051ce6,62c53a50ecd659bb0b2aae8c,2022-07-06_09h31.48.626,Colour_Asymmetry_Pilot,2022.1.3,Win32,143.9677512,62c50e9c1127f2cd403a315f,0,50,50,71,1,fourthree
,,,,,,5f5235b79cd77749d6051ce6,62c53a50ecd659bb0b2aae8c,2022-07-06_09h31.48.626,Colour_Asymmetry_Pilot,2022.1.3,Win32,143.9677512,62c50e9c1127f2cd403a315f,0,51,51,49,1,onethree
,,,,,,5f5235b79cd77749d6051ce6,62c53a50ecd659bb0b2aae8c,2022-07-06_09h31.48.626,Colour_Asymmetry_Pilot,2022.1.3,Win32,143.9677512,62c50e9c1127f2cd403a315f,0,52,52,51,1,twofour
,,,,,,5f5235b79cd77749d6051ce6,62c53a50ecd659bb0b2aae8c,2022-07-06_09h31.48.626,Colour_Asymmetry_Pilot,2022.1.3,Win32,143.9677512,62c50e9c1127f2cd403a315f,0,53,53,106,1,twoone
,,,,,,5f5235b79cd77749d6051ce6,62c53a50ecd659bb0b2aae8c,2022-07-06_09h31.48.626,Colour_Asymmetry_Pilot,2022.1.3,Win32,143.9677512,62c50e9c1127f2cd403a315f,0,54,54,12,1,threeone
,,,,,,5f5235b79cd77749d6051ce6,62c53a50ecd659bb0b2aae8c,2022-07-06_09h31.48.626,Colour_Asymmetry_Pilot,2022.1.3,Win32,143.9677512,62c50e9c1127f2cd403a315f,0,55,55,5,1,threefour
,,,,,,5f5235b79cd77749d6051ce6,62c53a50ecd659bb0b2aae8c,2022-07-06_09h31.48.626,Colour_Asymmetry_Pilot,2022.1.3,Win32,143.9677512,62c50e9c1127f2cd403a315f,0,56,56,62,1,fourtwo
,,,,,,5f5235b79cd77749d6051ce6,62c53a50ecd659bb0b2aae8c,2022-07-06_09h31.48.626,Colour_Asymmetry_Pilot,2022.1.3,Win32,143.9677512,62c50e9c1127f2cd403a315f,0,57,57,152,1,onetwo
,,,,,,5f5235b79cd77749d6051ce6,62c53a50ecd659bb0b2aae8c,2022-07-06_09h31.48.626,Colour_Asymmetry_Pilot,2022.1.3,Win32,143.9677512,62c50e9c1127f2cd403a315f,0,58,58,109,1,threefour
,,,,,,5f5235b79cd77749d6051ce6,62c53a50ecd659bb0b2aae8c,2022-07-06_09h31.48.626,Colour_Asymmetry_Pilot,2022.1.3,Win32,143.9677512,62c50e9c1127f2cd403a315f,0,59,59,23,1,fourthree
,,,,,,5f5235b79cd77749d6051ce6,62c53a50ecd659bb0b2aae8c,2022-07-06_09h31.48.626,Colour_Asymmetry_Pilot,2022.1.3,Win32,143.9677512,62c50e9c1127f2cd403a315f,0,60,60,7,1,fourthree
,,,,,,5f5235b79cd77749d6051ce6,62c53a50ecd659bb0b2aae8c,2022-07-06_09h31.48.626,Colour_Asymmetry_Pilot,2022.1.3,Win32,143.9677512,62c50e9c1127f2cd403a315f,0,61,61,14,1,fourtwo
,,,,,,5f5235b79cd77749d6051ce6,62c53a50ecd659bb0b2aae8c,2022-07-06_09h31.48.626,Colour_Asymmetry_Pilot,2022.1.3,Win32,143.9677512,62c50e9c1127f2cd403a315f,0,62,62,95,1,fourthree
,,,,,,5f5235b79cd77749d6051ce6,62c53a50ecd659bb0b2aae8c,2022-07-06_09h31.48.626,Colour_Asymmetry_Pilot,2022.1.3,Win32,143.9677512,62c50e9c1127f2cd403a315f,0,63,63,108,1,threeone
,,,,,,5f5235b79cd77749d6051ce6,62c53a50ecd659bb0b2aae8c,2022-07-06_09h31.48.626,Colour_Asymmetry_Pilot,2022.1.3,Win32,143.9677512,62c50e9c1127f2cd403a315f,0,64,64,105,1,onethree
,,,,,,5f5235b79cd77749d6051ce6,62c53a50ecd659bb0b2aae8c,2022-07-06_09h31.48.626,Colour_Asymmetry_Pilot,2022.1.3,Win32,143.9677512,62c50e9c1127f2cd403a315f,0,65,65,82,1,twoone
,,,,,,5f5235b79cd77749d6051ce6,62c53a50ecd659bb0b2aae8c,2022-07-06_09h31.48.626,Colour_Asymmetry_Pilot,2022.1.3,Win32,143.9677512,62c50e9c1127f2cd403a315f,0,66,66,38,1,fourtwo
,,,,,,5f5235b79cd77749d6051ce6,62c53a50ecd659bb0b2aae8c,2022-07-06_09h31.48.626,Colour_Asymmetry_Pilot,2022.1.3,Win32,143.9677512,62c50e9c1127f2cd403a315f,0,67,67,85,1,threefour
,,,,,,5f5235b79cd77749d6051ce6,62c53a50ecd659bb0b2aae8c,2022-07-06_09h31.48.626,Colour_Asymmetry_Pilot,2022.1.3,Win32,143.9677512,62c50e9c1127f2cd403a315f,0,68,68,150,1,fourtwo
,,,,,,5f5235b79cd77749d6051ce6,62c53a50ecd659bb0b2aae8c,2022-07-06_09h31.48.626,Colour_Asymmetry_Pilot,2022.1.3,Win32,143.9677512,62c50e9c1127f2cd403a315f,0,69,69,58,1,twoone
,,,,,,5f5235b79cd77749d6051ce6,62c53a50ecd659bb0b2aae8c,2022-07-06_09h31.48.626,Colour_Asymmetry_Pilot,2022.1.3,Win32,143.9677512,62c50e9c1127f2cd403a315f,0,70,70,53,1,threefour
,,,,,,5f5235b79cd77749d6051ce6,62c53a50ecd659bb0b2aae8c,2022-07-06_09h31.48.626,Colour_Asymmetry_Pilot,2022.1.3,Win32,143.9677512,62c50e9c1127f2cd403a315f,0,71,71,18,1,twoone
,,,,,,5f5235b79cd77749d6051ce6,62c53a50ecd659bb0b2aae8c,2022-07-06_09h31.48.626,Colour_Asymmetry_Pilot,2022.1.3,Win32,143.9677512,62c50e9c1127f2cd403a315f,0,72,72,126,1,fourtwo
,,,,,,5f5235b79cd77749d6051ce6,62c53a50ecd659bb0b2aae8c,2022-07-06_09h31.48.626,Colour_Asymmetry_Pilot,2022.1.3,Win32,143.9677512,62c50e9c1127f2cd403a315f,0,73,73,59,1,twofour
,,,,,,5f5235b79cd77749d6051ce6,62c53a50ecd659bb0b2aae8c,2022-07-06_09h31.48.626,Colour_Asymmetry_Pilot,2022.1.3,Win32,143.9677512,62c50e9c1127f2cd403a315f,0,74,74,60,1,threeone
,,,,,,5f5235b79cd77749d6051ce6,62c53a50ecd659bb0b2aae8c,2022-07-06_09h31.48.626,Colour_Asymmetry_Pilot,2022.1.3,Win32,143.9677512,62c50e9c1127f2cd403a315f,0,75,75,104,1,onetwo
,,,,,,5f5235b79cd77749d6051ce6,62c53a50ecd659bb0b2aae8c,2022-07-06_09h31.48.626,Colour_Asymmetry_Pilot,2022.1.3,Win32,143.9677512,62c50e9c1127f2cd403a315f,0,76,76,113,1,onethree
,,,,,,5f5235b79cd77749d6051ce6,62c53a50ecd659bb0b2aae8c,2022-07-06_09h31.48.626,Colour_Asymmetry_Pilot,2022.1.3,Win32,143.9677512,62c50e9c1127f2cd403a315f,0,77,77,50,1,twoone
,,,,,,5f5235b79cd77749d6051ce6,62c53a50ecd659bb0b2aae8c,2022-07-06_09h31.48.626,Colour_Asymmetry_Pilot,2022.1.3,Win32,143.9677512,62c50e9c1127f2cd403a315f,0,78,78,10,1,twoone
,,,,,,5f5235b79cd77749d6051ce6,62c53a50ecd659bb0b2aae8c,2022-07-06_09h31.48.626,Colour_Asymmetry_Pilot,2022.1.3,Win32,143.9677512,62c50e9c1127f2cd403a315f,0,79,79,89,1,onethree
,,,,,,5f5235b79cd77749d6051ce6,62c53a50ecd659bb0b2aae8c,2022-07-06_09h31.48.626,Colour_Asymmetry_Pilot,2022.1.3,Win32,143.9677512,62c50e9c1127f2cd403a315f,0,80,80,119,1,fourthree
,,,,,,5f5235b79cd77749d6051ce6,62c53a50ecd659bb0b2aae8c,2022-07-06_09h31.48.626,Colour_Asymmetry_Pilot,2022.1.3,Win32,143.9677512,62c50e9c1127f2cd403a315f,0,81,81,69,1,threefour
,,,,,,5f5235b79cd77749d6051ce6,62c53a50ecd659bb0b2aae8c,2022-07-06_09h31.48.626,Colour_Asymmetry_Pilot,2022.1.3,Win32,143.9677512,62c50e9c1127f2cd403a315f,0,82,82,148,1,threeone
,,,,,,5f5235b79cd77749d6051ce6,62c53a50ecd659bb0b2aae8c,2022-07-06_09h31.48.626,Colour_Asymmetry_Pilot,2022.1.3,Win32,143.9677512,62c50e9c1127f2cd403a315f,0,83,83,87,1,fourthree
,,,,,,5f5235b79cd77749d6051ce6,62c53a50ecd659bb0b2aae8c,2022-07-06_09h31.48.626,Colour_Asymmetry_Pilot,2022.1.3,Win32,143.9677512,62c50e9c1127f2cd403a315f,0,84,84,158,1,fourtwo
,,,,,,5f5235b79cd77749d6051ce6,62c53a50ecd659bb0b2aae8c,2022-07-06_09h31.48.626,Colour_Asymmetry_Pilot,2022.1.3,Win32,143.9677512,62c50e9c1127f2cd403a315f,0,85,85,137,1,onethree
,,,,,,5f5235b79cd77749d6051ce6,62c53a50ecd659bb0b2aae8c,2022-07-06_09h31.48.626,Colour_Asymmetry_Pilot,2022.1.3,Win32,143.9677512,62c50e9c1127f2cd403a315f,0,86,86,78,1,fourtwo
,,,,,,5f5235b79cd77749d6051ce6,62c53a50ecd659bb0b2aae8c,2022-07-06_09h31.48.626,Colour_Asymmetry_Pilot,2022.1.3,Win32,143.9677512,62c50e9c1127f2cd403a315f,0,87,87,107,1,twofour
,,,,,,5f5235b79cd77749d6051ce6,62c53a50ecd659bb0b2aae8c,2022-07-06_09h31.48.626,Colour_Asymmetry_Pilot,2022.1.3,Win32,143.9677512,62c50e9c1127f2cd403a315f,0,88,88,145,1,onethree
,,,,,,5f5235b79cd77749d6051ce6,62c53a50ecd659bb0b2aae8c,2022-07-06_09h31.48.626,Colour_Asymmetry_Pilot,2022.1.3,Win32,143.9677512,62c50e9c1127f2cd403a315f,0,89,89,80,1,onetwo
,,,,,,5f5235b79cd77749d6051ce6,62c53a50ecd659bb0b2aae8c,2022-07-06_09h31.48.626,Colour_Asymmetry_Pilot,2022.1.3,Win32,143.9677512,62c50e9c1127f2cd403a315f,0,90,90,64,1,onetwo
,,,,,,5f5235b79cd77749d6051ce6,62c53a50ecd659bb0b2aae8c,2022-07-06_09h31.48.626,Colour_Asymmetry_Pilot,2022.1.3,Win32,143.9677512,62c50e9c1127f2cd403a315f,0,91,91,141,1,threefour
,,,,,,5f5235b79cd77749d6051ce6,62c53a50ecd659bb0b2aae8c,2022-07-06_09h31.48.626,Colour_Asymmetry_Pilot,2022.1.3,Win32,143.9677512,62c50e9c1127f2cd403a315f,0,92,92,40,1,onetwo
,,,,,,5f5235b79cd77749d6051ce6,62c53a50ecd659bb0b2aae8c,2022-07-06_09h31.48.626,Colour_Asymmetry_Pilot,2022.1.3,Win32,143.9677512,62c50e9c1127f2cd403a315f,0,93,93,129,1,onethree
,,,,,,5f5235b79cd77749d6051ce6,62c53a50ecd659bb0b2aae8c,2022-07-06_09h31.48.626,Colour_Asymmetry_Pilot,2022.1.3,Win32,143.9677512,62c50e9c1127f2cd403a315f,0,94,94,149,1,threefour
,,,,,,5f5235b79cd77749d6051ce6,62c53a50ecd659bb0b2aae8c,2022-07-06_09h31.48.626,Colour_Asymmetry_Pilot,2022.1.3,Win32,143.9677512,62c50e9c1127f2cd403a315f,0,95,95,57,1,onethree
,,,,,,5f5235b79cd77749d6051ce6,62c53a50ecd659bb0b2aae8c,2022-07-06_09h31.48.626,Colour_Asymmetry_Pilot,2022.1.3,Win32,143.9677512,62c50e9c1127f2cd403a315f,0,96,96,160,1,onetwo
,,,,,,5f5235b79cd77749d6051ce6,62c53a50ecd659bb0b2aae8c,2022-07-06_09h31.48.626,Colour_Asymmetry_Pilot,2022.1.3,Win32,143.9677512,62c50e9c1127f2cd403a315f,0,97,97,54,1,fourtwo
,,,,,,5f5235b79cd77749d6051ce6,62c53a50ecd659bb0b2aae8c,2022-07-06_09h31.48.626,Colour_Asymmetry_Pilot,2022.1.3,Win32,143.9677512,62c50e9c1127f2cd403a315f,0,98,98,138,1,twoone
,,,,,,5f5235b79cd77749d6051ce6,62c53a50ecd659bb0b2aae8c,2022-07-06_09h31.48.626,Colour_Asymmetry_Pilot,2022.1.3,Win32,143.9677512,62c50e9c1127f2cd403a315f,0,99,99,52,1,threeone
,,,,,,5f5235b79cd77749d6051ce6,62c53a50ecd659bb0b2aae8c,2022-07-06_09h31.48.626,Colour_Asymmetry_Pilot,2022.1.3,Win32,143.9677512,62c50e9c1127f2cd403a315f,0,100,100,26,1,twoone
,,,,,,5f5235b79cd77749d6051ce6,62c53a50ecd659bb0b2aae8c,2022-07-06_09h31.48.626,Colour_Asymmetry_Pilot,2022.1.3,Win32,143.9677512,62c50e9c1127f2cd403a315f,0,101,101,74,1,twoone
,,,,,,5f5235b79cd77749d6051ce6,62c53a50ecd659bb0b2aae8c,2022-07-06_09h31.48.626,Colour_Asymmetry_Pilot,2022.1.3,Win32,143.9677512,62c50e9c1127f2cd403a315f,0,102,102,73,1,onethree
,,,,,,5f5235b79cd77749d6051ce6,62c53a50ecd659bb0b2aae8c,2022-07-06_09h31.48.626,Colour_Asymmetry_Pilot,2022.1.3,Win32,143.9677512,62c50e9c1127f2cd403a315f,0,103,103,110,1,fourtwo
,,,,,,5f5235b79cd77749d6051ce6,62c53a50ecd659bb0b2aae8c,2022-07-06_09h31.48.626,Colour_Asymmetry_Pilot,2022.1.3,Win32,143.9677512,62c50e9c1127f2cd403a315f,0,104,104,3,1,twofour
,,,,,,5f5235b79cd77749d6051ce6,62c53a50ecd659bb0b2aae8c,2022-07-06_09h31.48.626,Colour_Asymmetry_Pilot,2022.1.3,Win32,143.9677512,62c50e9c1127f2cd403a315f,0,105,105,136,1,onetwo
,,,,,,5f5235b79cd77749d6051ce6,62c53a50ecd659bb0b2aae8c,2022-07-06_09h31.48.626,Colour_Asymmetry_Pilot,2022.1.3,Win32,143.9677512,62c50e9c1127f2cd403a315f,0,106,106,100,1,threeone
,,,,,,5f5235b79cd77749d6051ce6,62c53a50ecd659bb0b2aae8c,2022-07-06_09h31.48.626,Colour_Asymmetry_Pilot,2022.1.3,Win32,143.9677512,62c50e9c1127f2cd403a315f,0,107,107,46,1,fourtwo
,,,,,,5f5235b79cd77749d6051ce6,62c53a50ecd659bb0b2aae8c,2022-07-06_09h31.48.626,Colour_Asymmetry_Pilot,2022.1.3,Win32,143.9677512,62c50e9c1127f2cd403a315f,0,108,108,151,1,fourthree
,,,,,,5f5235b79cd77749d6051ce6,62c53a50ecd659bb0b2aae8c,2022-07-06_09h31.48.626,Colour_Asymmetry_Pilot,2022.1.3,Win32,143.9677512,62c50e9c1127f2cd403a315f,0,109,109,114,1,twoone
,,,,,,5f5235b79cd77749d6051ce6,62c53a50ecd659bb0b2aae8c,2022-07-06_09h31.48.626,Colour_Asymmetry_Pilot,2022.1.3,Win32,143.9677512,62c50e9c1127f2cd403a315f,0,110,110,123,1,twofour
,,,,,,5f5235b79cd77749d6051ce6,62c53a50ecd659bb0b2aae8c,2022-07-06_09h31.48.626,Colour_Asymmetry_Pilot,2022.1.3,Win32,143.9677512,62c50e9c1127f2cd403a315f,0,111,111,17,1,onethree
,,,,,,5f5235b79cd77749d6051ce6,62c53a50ecd659bb0b2aae8c,2022-07-06_09h31.48.626,Colour_Asymmetry_Pilot,2022.1.3,Win32,143.9677512,62c50e9c1127f2cd403a315f,0,112,112,21,1,threefour
,,,,,,5f5235b79cd77749d6051ce6,62c53a50ecd659bb0b2aae8c,2022-07-06_09h31.48.626,Colour_Asymmetry_Pilot,2022.1.3,Win32,143.9677512,62c50e9c1127f2cd403a315f,0,113,113,139,1,twofour
,,,,,,5f5235b79cd77749d6051ce6,62c53a50ecd659bb0b2aae8c,2022-07-06_09h31.48.626,Colour_Asymmetry_Pilot,2022.1.3,Win32,143.9677512,62c50e9c1127f2cd403a315f,0,114,114,55,1,fourthree
,,,,,,5f5235b79cd77749d6051ce6,62c53a50ecd659bb0b2aae8c,2022-07-06_09h31.48.626,Colour_Asymmetry_Pilot,2022.1.3,Win32,143.9677512,62c50e9c1127f2cd403a315f,0,115,115,98,1,twoone
,,,,,,5f5235b79cd77749d6051ce6,62c53a50ecd659bb0b2aae8c,2022-07-06_09h31.48.626,Colour_Asymmetry_Pilot,2022.1.3,Win32,143.9677512,62c50e9c1127f2cd403a315f,0,116,116,56,1,onetwo
,,,,,,5f5235b79cd77749d6051ce6,62c53a50ecd659bb0b2aae8c,2022-07-06_09h31.48.626,Colour_Asymmetry_Pilot,2022.1.3,Win32,143.9677512,62c50e9c1127f2cd403a315f,0,117,117,70,1,fourtwo
,,,,,,5f5235b79cd77749d6051ce6,62c53a50ecd659bb0b2aae8c,2022-07-06_09h31.48.626,Colour_Asymmetry_Pilot,2022.1.3,Win32,143.9677512,62c50e9c1127f2cd403a315f,0,118,118,134,1,fourtwo
,,,,,,5f5235b79cd77749d6051ce6,62c53a50ecd659bb0b2aae8c,2022-07-06_09h31.48.626,Colour_Asymmetry_Pilot,2022.1.3,Win32,143.9677512,62c50e9c1127f2cd403a315f,0,119,119,135,1,fourthree
,,,,,,5f5235b79cd77749d6051ce6,62c53a50ecd659bb0b2aae8c,2022-07-06_09h31.48.626,Colour_Asymmetry_Pilot,2022.1.3,Win32,143.9677512,62c50e9c1127f2cd403a315f,0,120,120,156,1,threeone
,,,,,,5f5235b79cd77749d6051ce6,62c53a50ecd659bb0b2aae8c,2022-07-06_09h31.48.626,Colour_Asymmetry_Pilot,2022.1.3,Win32,143.9677512,62c50e9c1127f2cd403a315f,0,121,121,61,1,threefour
,,,,,,5f5235b79cd77749d6051ce6,62c53a50ecd659bb0b2aae8c,2022-07-06_09h31.48.626,Colour_Asymmetry_Pilot,2022.1.3,Win32,143.9677512,62c50e9c1127f2cd403a315f,0,122,122,92,1,threeone
,,,,,,5f5235b79cd77749d6051ce6,62c53a50ecd659bb0b2aae8c,2022-07-06_09h31.48.626,Colour_Asymmetry_Pilot,2022.1.3,Win32,143.9677512,62c50e9c1127f2cd403a315f,0,123,123,45,1,threefour
,,,,,,5f5235b79cd77749d6051ce6,62c53a50ecd659bb0b2aae8c,2022-07-06_09h31.48.626,Colour_Asymmetry_Pilot,2022.1.3,Win32,143.9677512,62c50e9c1127f2cd403a315f,0,124,124,111,1,fourthree
,,,,,,5f5235b79cd77749d6051ce6,62c53a50ecd659bb0b2aae8c,2022-07-06_09h31.48.626,Colour_Asymmetry_Pilot,2022.1.3,Win32,143.9677512,62c50e9c1127f2cd403a315f,0,125,125,90,1,twoone
,,,,,,5f5235b79cd77749d6051ce6,62c53a50ecd659bb0b2aae8c,2022-07-06_09h31.48.626,Colour_Asymmetry_Pilot,2022.1.3,Win32,143.9677512,62c50e9c1127f2cd403a315f,0,126,126,41,1,onethree
,,,,,,5f5235b79cd77749d6051ce6,62c53a50ecd659bb0b2aae8c,2022-07-06_09h31.48.626,Colour_Asymmetry_Pilot,2022.1.3,Win32,143.9677512,62c50e9c1127f2cd403a315f,0,127,127,132,1,threeone
,,,,,,5f5235b79cd77749d6051ce6,62c53a50ecd659bb0b2aae8c,2022-07-06_09h31.48.626,Colour_Asymmetry_Pilot,2022.1.3,Win32,143.9677512,62c50e9c1127f2cd403a315f,0,128,128,84,1,threeone
,,,,,,5f5235b79cd77749d6051ce6,62c53a50ecd659bb0b2aae8c,2022-07-06_09h31.48.626,Colour_Asymmetry_Pilot,2022.1.3,Win32,143.9677512,62c50e9c1127f2cd403a315f,0,129,129,77,1,threefour
,,,,,,5f5235b79cd77749d6051ce6,62c53a50ecd659bb0b2aae8c,2022-07-06_09h31.48.626,Colour_Asymmetry_Pilot,2022.1.3,Win32,143.9677512,62c50e9c1127f2cd403a315f,0,130,130,15,1,fourthree
,,,,,,5f5235b79cd77749d6051ce6,62c53a50ecd659bb0b2aae8c,2022-07-06_09h31.48.626,Colour_Asymmetry_Pilot,2022.1.3,Win32,143.9677512,62c50e9c1127f2cd403a315f,0,131,131,20,1,threeone
,,,,,,5f5235b79cd77749d6051ce6,62c53a50ecd659bb0b2aae8c,2022-07-06_09h31.48.626,Colour_Asymmetry_Pilot,2022.1.3,Win32,143.9677512,62c50e9c1127f2cd403a315f,0,132,132,22,1,fourtwo
,,,,,,5f5235b79cd77749d6051ce6,62c53a50ecd659bb0b2aae8c,2022-07-06_09h31.48.626,Colour_Asymmetry_Pilot,2022.1.3,Win32,143.9677512,62c50e9c1127f2cd403a315f,0,133,133,161,1,onethree
,,,,,,5f5235b79cd77749d6051ce6,62c53a50ecd659bb0b2aae8c,2022-07-06_09h31.48.626,Colour_Asymmetry_Pilot,2022.1.3,Win32,143.9677512,62c50e9c1127f2cd403a315f,0,134,134,93,1,threefour
,,,,,,5f5235b79cd77749d6051ce6,62c53a50ecd659bb0b2aae8c,2022-07-06_09h31.48.626,Colour_Asymmetry_Pilot,2022.1.3,Win32,143.9677512,62c50e9c1127f2cd403a315f,0,135,135,125,1,threefour
,,,,,,5f5235b79cd77749d6051ce6,62c53a50ecd659bb0b2aae8c,2022-07-06_09h31.48.626,Colour_Asymmetry_Pilot,2022.1.3,Win32,143.9677512,62c50e9c1127f2cd403a315f,0,136,136,29,1,threefour
,,,,,,5f5235b79cd77749d6051ce6,62c53a50ecd659bb0b2aae8c,2022-07-06_09h31.48.626,Colour_Asymmetry_Pilot,2022.1.3,Win32,143.9677512,62c50e9c1127f2cd403a315f,0,137,137,143,1,fourthree
,,,,,,5f5235b79cd77749d6051ce6,62c53a50ecd659bb0b2aae8c,2022-07-06_09h31.48.626,Colour_Asymmetry_Pilot,2022.1.3,Win32,143.9677512,62c50e9c1127f2cd403a315f,0,138,138,76,1,threeone
,,,,,,5f5235b79cd77749d6051ce6,62c53a50ecd659bb0b2aae8c,2022-07-06_09h31.48.626,Colour_Asymmetry_Pilot,2022.1.3,Win32,143.9677512,62c50e9c1127f2cd403a315f,0,139,139,91,1,twofour
,,,,,,5f5235b79cd77749d6051ce6,62c53a50ecd659bb0b2aae8c,2022-07-06_09h31.48.626,Colour_Asymmetry_Pilot,2022.1.3,Win32,143.9677512,62c50e9c1127f2cd403a315f,0,140,140,35,1,twofour
,,,,,,5f5235b79cd77749d6051ce6,62c53a50ecd659bb0b2aae8c,2022-07-06_09h31.48.626,Colour_Asymmetry_Pilot,2022.1.3,Win32,143.9677512,62c50e9c1127f2cd403a315f,0,141,141,122,1,twoone
,,,,,,5f5235b79cd77749d6051ce6,62c53a50ecd659bb0b2aae8c,2022-07-06_09h31.48.626,Colour_Asymmetry_Pilot,2022.1.3,Win32,143.9677512,62c50e9c1127f2cd403a315f,0,142,142,2,1,twoone
,,,,,,5f5235b79cd77749d6051ce6,62c53a50ecd659bb0b2aae8c,2022-07-06_09h31.48.626,Colour_Asymmetry_Pilot,2022.1.3,Win32,143.9677512,62c50e9c1127f2cd403a315f,0,143,143,120,1,onetwo
,,,,,,5f5235b79cd77749d6051ce6,62c53a50ecd659bb0b2aae8c,2022-07-06_09h31.48.626,Colour_Asymmetry_Pilot,2022.1.3,Win32,143.9677512,62c50e9c1127f2cd403a315f,0,144,144,63,1,fourthree
,,,,,,5f5235b79cd77749d6051ce6,62c53a50ecd659bb0b2aae8c,2022-07-06_09h31.48.626,Colour_Asymmetry_Pilot,2022.1.3,Win32,143.9677512,62c50e9c1127f2cd403a315f,0,145,145,121,1,onethree
,,,,,,5f5235b79cd77749d6051ce6,62c53a50ecd659bb0b2aae8c,2022-07-06_09h31.48.626,Colour_Asymmetry_Pilot,2022.1.3,Win32,143.9677512,62c50e9c1127f2cd403a315f,0,146,146,36,1,threeone
,,,,,,5f5235b79cd77749d6051ce6,62c53a50ecd659bb0b2aae8c,2022-07-06_09h31.48.626,Colour_Asymmetry_Pilot,2022.1.3,Win32,143.9677512,62c50e9c1127f2cd403a315f,0,147,147,94,1,fourtwo
,,,,,,5f5235b79cd77749d6051ce6,62c53a50ecd659bb0b2aae8c,2022-07-06_09h31.48.626,Colour_Asymmetry_Pilot,2022.1.3,Win32,143.9677512,62c50e9c1127f2cd403a315f,0,148,148,34,1,twoone
,,,,,,5f5235b79cd77749d6051ce6,62c53a50ecd659bb0b2aae8c,2022-07-06_09h31.48.626,Colour_Asymmetry_Pilot,2022.1.3,Win32,143.9677512,62c50e9c1127f2cd403a315f,0,149,149,155,1,twofour
,,,,,,5f5235b79cd77749d6051ce6,62c53a50ecd659bb0b2aae8c,2022-07-06_09h31.48.626,Colour_Asymmetry_Pilot,2022.1.3,Win32,143.9677512,62c50e9c1127f2cd403a315f,0,150,150,1,1,onethree
,,,,,,5f5235b79cd77749d6051ce6,62c53a50ecd659bb0b2aae8c,2022-07-06_09h31.48.626,Colour_Asymmetry_Pilot,2022.1.3,Win32,143.9677512,62c50e9c1127f2cd403a315f,0,151,151,33,1,onethree
,,,,,,5f5235b79cd77749d6051ce6,62c53a50ecd659bb0b2aae8c,2022-07-06_09h31.48.626,Colour_Asymmetry_Pilot,2022.1.3,Win32,143.9677512,62c50e9c1127f2cd403a315f,0,152,152,140,1,threeone
,,,,,,5f5235b79cd77749d6051ce6,62c53a50ecd659bb0b2aae8c,2022-07-06_09h31.48.626,Colour_Asymmetry_Pilot,2022.1.3,Win32,143.9677512,62c50e9c1127f2cd403a315f,0,153,153,65,1,onethree
,,,,,,5f5235b79cd77749d6051ce6,62c53a50ecd659bb0b2aae8c,2022-07-06_09h31.48.626,Colour_Asymmetry_Pilot,2022.1.3,Win32,143.9677512,62c50e9c1127f2cd403a315f,0,154,154,27,1,twofour
,,,,,,5f5235b79cd77749d6051ce6,62c53a50ecd659bb0b2aae8c,2022-07-06_09h31.48.626,Colour_Asymmetry_Pilot,2022.1.3,Win32,143.9677512,62c50e9c1127f2cd403a315f,0,155,155,142,1,fourtwo
,,,,,,5f5235b79cd77749d6051ce6,62c53a50ecd659bb0b2aae8c,2022-07-06_09h31.48.626,Colour_Asymmetry_Pilot,2022.1.3,Win32,143.9677512,62c50e9c1127f2cd403a315f,0,156,156,144,1,onetwo
,,,,,,5f5235b79cd77749d6051ce6,62c53a50ecd659bb0b2aae8c,2022-07-06_09h31.48.626,Colour_Asymmetry_Pilot,2022.1.3,Win32,143.9677512,62c50e9c1127f2cd403a315f,0,157,157,88,1,onetwo
,,,,,,5f5235b79cd77749d6051ce6,62c53a50ecd659bb0b2aae8c,2022-07-06_09h31.48.626,Colour_Asymmetry_Pilot,2022.1.3,Win32,143.9677512,62c50e9c1127f2cd403a315f,0,158,158,67,1,twofour
,,,,,,5f5235b79cd77749d6051ce6,62c53a50ecd659bb0b2aae8c,2022-07-06_09h31.48.626,Colour_Asymmetry_Pilot,2022.1.3,Win32,143.9677512,62c50e9c1127f2cd403a315f,0,159,159,47,1,fourthree
,,,,,,5f5235b79cd77749d6051ce6,62c53a50ecd659bb0b2aae8c,2022-07-06_09h31.48.626,Colour_Asymmetry_Pilot,2022.1.3,Win32,143.9677512,62c50e9c1127f2cd403a315f,0,160,160,146,1,twoone
,,,,,,5f5235b79cd77749d6051ce6,62c53a50ecd659bb0b2aae8c,2022-07-06_09h31.48.626,Colour_Asymmetry_Pilot,2022.1.3,Win32,143.9677512,62c50e9c1127f2cd403a315f,0,161,161,79,1,fourthree
