trials.thisRepN,trials.thisTrialN,trials.thisN,trials.thisIndex,trials.ran,Colourcodes,participant,session,date,expName,psychopyVersion,OS,frameRate,study_id,trials_4.thisRepN,trials_4.thisTrialN,trials_4.thisN,trials_4.thisIndex,trials_4.ran,StimulusPos
0,0,0,4,1,,604676dbcf412f053df7d365,62c53a275c86ebf78e75a7cb,2022-07-06_08h31.07.824,Colour_Asymmetry_Pilot,2022.1.3,Win32,30.00120005,62c50e9c1127f2cd403a315f,,,,,,
0,1,1,41,1,,604676dbcf412f053df7d365,62c53a275c86ebf78e75a7cb,2022-07-06_08h31.07.824,Colour_Asymmetry_Pilot,2022.1.3,Win32,30.00120005,62c50e9c1127f2cd403a315f,,,,,,
0,2,2,33,1,,604676dbcf412f053df7d365,62c53a275c86ebf78e75a7cb,2022-07-06_08h31.07.824,Colour_Asymmetry_Pilot,2022.1.3,Win32,30.00120005,62c50e9c1127f2cd403a315f,,,,,,
0,3,3,27,1,,604676dbcf412f053df7d365,62c53a275c86ebf78e75a7cb,2022-07-06_08h31.07.824,Colour_Asymmetry_Pilot,2022.1.3,Win32,30.00120005,62c50e9c1127f2cd403a315f,,,,,,
0,4,4,51,1,,604676dbcf412f053df7d365,62c53a275c86ebf78e75a7cb,2022-07-06_08h31.07.824,Colour_Asymmetry_Pilot,2022.1.3,Win32,30.00120005,62c50e9c1127f2cd403a315f,,,,,,
0,5,5,34,1,,604676dbcf412f053df7d365,62c53a275c86ebf78e75a7cb,2022-07-06_08h31.07.824,Colour_Asymmetry_Pilot,2022.1.3,Win32,30.00120005,62c50e9c1127f2cd403a315f,,,,,,
0,6,6,45,1,,604676dbcf412f053df7d365,62c53a275c86ebf78e75a7cb,2022-07-06_08h31.07.824,Colour_Asymmetry_Pilot,2022.1.3,Win32,30.00120005,62c50e9c1127f2cd403a315f,,,,,,
0,7,7,70,1,,604676dbcf412f053df7d365,62c53a275c86ebf78e75a7cb,2022-07-06_08h31.07.824,Colour_Asymmetry_Pilot,2022.1.3,Win32,30.00120005,62c50e9c1127f2cd403a315f,,,,,,
0,8,8,72,1,,604676dbcf412f053df7d365,62c53a275c86ebf78e75a7cb,2022-07-06_08h31.07.824,Colour_Asymmetry_Pilot,2022.1.3,Win32,30.00120005,62c50e9c1127f2cd403a315f,,,,,,
0,9,9,42,1,,604676dbcf412f053df7d365,62c53a275c86ebf78e75a7cb,2022-07-06_08h31.07.824,Colour_Asymmetry_Pilot,2022.1.3,Win32,30.00120005,62c50e9c1127f2cd403a315f,,,,,,
0,10,10,26,1,,604676dbcf412f053df7d365,62c53a275c86ebf78e75a7cb,2022-07-06_08h31.07.824,Colour_Asymmetry_Pilot,2022.1.3,Win32,30.00120005,62c50e9c1127f2cd403a315f,,,,,,
0,11,11,1,1,,604676dbcf412f053df7d365,62c53a275c86ebf78e75a7cb,2022-07-06_08h31.07.824,Colour_Asymmetry_Pilot,2022.1.3,Win32,30.00120005,62c50e9c1127f2cd403a315f,,,,,,
0,12,12,9,1,,604676dbcf412f053df7d365,62c53a275c86ebf78e75a7cb,2022-07-06_08h31.07.824,Colour_Asymmetry_Pilot,2022.1.3,Win32,30.00120005,62c50e9c1127f2cd403a315f,,,,,,
0,13,13,69,1,,604676dbcf412f053df7d365,62c53a275c86ebf78e75a7cb,2022-07-06_08h31.07.824,Colour_Asymmetry_Pilot,2022.1.3,Win32,30.00120005,62c50e9c1127f2cd403a315f,,,,,,
0,14,14,66,1,,604676dbcf412f053df7d365,62c53a275c86ebf78e75a7cb,2022-07-06_08h31.07.824,Colour_Asymmetry_Pilot,2022.1.3,Win32,30.00120005,62c50e9c1127f2cd403a315f,,,,,,
0,15,15,55,1,,604676dbcf412f053df7d365,62c53a275c86ebf78e75a7cb,2022-07-06_08h31.07.824,Colour_Asymmetry_Pilot,2022.1.3,Win32,30.00120005,62c50e9c1127f2cd403a315f,,,,,,
0,16,16,15,1,,604676dbcf412f053df7d365,62c53a275c86ebf78e75a7cb,2022-07-06_08h31.07.824,Colour_Asymmetry_Pilot,2022.1.3,Win32,30.00120005,62c50e9c1127f2cd403a315f,,,,,,
0,17,17,62,1,,604676dbcf412f053df7d365,62c53a275c86ebf78e75a7cb,2022-07-06_08h31.07.824,Colour_Asymmetry_Pilot,2022.1.3,Win32,30.00120005,62c50e9c1127f2cd403a315f,,,,,,
0,18,18,31,1,,604676dbcf412f053df7d365,62c53a275c86ebf78e75a7cb,2022-07-06_08h31.07.824,Colour_Asymmetry_Pilot,2022.1.3,Win32,30.00120005,62c50e9c1127f2cd403a315f,,,,,,
0,19,19,39,1,,604676dbcf412f053df7d365,62c53a275c86ebf78e75a7cb,2022-07-06_08h31.07.824,Colour_Asymmetry_Pilot,2022.1.3,Win32,30.00120005,62c50e9c1127f2cd403a315f,,,,,,
0,20,20,13,1,,604676dbcf412f053df7d365,62c53a275c86ebf78e75a7cb,2022-07-06_08h31.07.824,Colour_Asymmetry_Pilot,2022.1.3,Win32,30.00120005,62c50e9c1127f2cd403a315f,,,,,,
0,21,21,64,1,,604676dbcf412f053df7d365,62c53a275c86ebf78e75a7cb,2022-07-06_08h31.07.824,Colour_Asymmetry_Pilot,2022.1.3,Win32,30.00120005,62c50e9c1127f2cd403a315f,,,,,,
0,22,22,83,1,,604676dbcf412f053df7d365,62c53a275c86ebf78e75a7cb,2022-07-06_08h31.07.824,Colour_Asymmetry_Pilot,2022.1.3,Win32,30.00120005,62c50e9c1127f2cd403a315f,,,,,,
0,23,23,32,1,,604676dbcf412f053df7d365,62c53a275c86ebf78e75a7cb,2022-07-06_08h31.07.824,Colour_Asymmetry_Pilot,2022.1.3,Win32,30.00120005,62c50e9c1127f2cd403a315f,,,,,,
0,24,24,88,1,,604676dbcf412f053df7d365,62c53a275c86ebf78e75a7cb,2022-07-06_08h31.07.824,Colour_Asymmetry_Pilot,2022.1.3,Win32,30.00120005,62c50e9c1127f2cd403a315f,,,,,,
0,25,25,81,1,,604676dbcf412f053df7d365,62c53a275c86ebf78e75a7cb,2022-07-06_08h31.07.824,Colour_Asymmetry_Pilot,2022.1.3,Win32,30.00120005,62c50e9c1127f2cd403a315f,,,,,,
0,26,26,58,1,,604676dbcf412f053df7d365,62c53a275c86ebf78e75a7cb,2022-07-06_08h31.07.824,Colour_Asymmetry_Pilot,2022.1.3,Win32,30.00120005,62c50e9c1127f2cd403a315f,,,,,,
0,27,27,74,1,,604676dbcf412f053df7d365,62c53a275c86ebf78e75a7cb,2022-07-06_08h31.07.824,Colour_Asymmetry_Pilot,2022.1.3,Win32,30.00120005,62c50e9c1127f2cd403a315f,,,,,,
0,28,28,90,1,,604676dbcf412f053df7d365,62c53a275c86ebf78e75a7cb,2022-07-06_08h31.07.824,Colour_Asymmetry_Pilot,2022.1.3,Win32,30.00120005,62c50e9c1127f2cd403a315f,,,,,,
0,29,29,82,1,,604676dbcf412f053df7d365,62c53a275c86ebf78e75a7cb,2022-07-06_08h31.07.824,Colour_Asymmetry_Pilot,2022.1.3,Win32,30.00120005,62c50e9c1127f2cd403a315f,,,,,,
0,30,30,91,1,,604676dbcf412f053df7d365,62c53a275c86ebf78e75a7cb,2022-07-06_08h31.07.824,Colour_Asymmetry_Pilot,2022.1.3,Win32,30.00120005,62c50e9c1127f2cd403a315f,,,,,,
0,31,31,60,1,,604676dbcf412f053df7d365,62c53a275c86ebf78e75a7cb,2022-07-06_08h31.07.824,Colour_Asymmetry_Pilot,2022.1.3,Win32,30.00120005,62c50e9c1127f2cd403a315f,,,,,,
0,32,32,35,1,,604676dbcf412f053df7d365,62c53a275c86ebf78e75a7cb,2022-07-06_08h31.07.824,Colour_Asymmetry_Pilot,2022.1.3,Win32,30.00120005,62c50e9c1127f2cd403a315f,,,,,,
0,33,33,16,1,,604676dbcf412f053df7d365,62c53a275c86ebf78e75a7cb,2022-07-06_08h31.07.824,Colour_Asymmetry_Pilot,2022.1.3,Win32,30.00120005,62c50e9c1127f2cd403a315f,,,,,,
0,34,34,17,1,,604676dbcf412f053df7d365,62c53a275c86ebf78e75a7cb,2022-07-06_08h31.07.824,Colour_Asymmetry_Pilot,2022.1.3,Win32,30.00120005,62c50e9c1127f2cd403a315f,,,,,,
0,35,35,86,1,,604676dbcf412f053df7d365,62c53a275c86ebf78e75a7cb,2022-07-06_08h31.07.824,Colour_Asymmetry_Pilot,2022.1.3,Win32,30.00120005,62c50e9c1127f2cd403a315f,,,,,,
0,36,36,59,1,,604676dbcf412f053df7d365,62c53a275c86ebf78e75a7cb,2022-07-06_08h31.07.824,Colour_Asymmetry_Pilot,2022.1.3,Win32,30.00120005,62c50e9c1127f2cd403a315f,,,,,,
0,37,37,40,1,,604676dbcf412f053df7d365,62c53a275c86ebf78e75a7cb,2022-07-06_08h31.07.824,Colour_Asymmetry_Pilot,2022.1.3,Win32,30.00120005,62c50e9c1127f2cd403a315f,,,,,,
0,38,38,87,1,,604676dbcf412f053df7d365,62c53a275c86ebf78e75a7cb,2022-07-06_08h31.07.824,Colour_Asymmetry_Pilot,2022.1.3,Win32,30.00120005,62c50e9c1127f2cd403a315f,,,,,,
0,39,39,23,1,,604676dbcf412f053df7d365,62c53a275c86ebf78e75a7cb,2022-07-06_08h31.07.824,Colour_Asymmetry_Pilot,2022.1.3,Win32,30.00120005,62c50e9c1127f2cd403a315f,,,,,,
0,40,40,78,1,,604676dbcf412f053df7d365,62c53a275c86ebf78e75a7cb,2022-07-06_08h31.07.824,Colour_Asymmetry_Pilot,2022.1.3,Win32,30.00120005,62c50e9c1127f2cd403a315f,,,,,,
0,41,41,63,1,,604676dbcf412f053df7d365,62c53a275c86ebf78e75a7cb,2022-07-06_08h31.07.824,Colour_Asymmetry_Pilot,2022.1.3,Win32,30.00120005,62c50e9c1127f2cd403a315f,,,,,,
0,42,42,47,1,,604676dbcf412f053df7d365,62c53a275c86ebf78e75a7cb,2022-07-06_08h31.07.824,Colour_Asymmetry_Pilot,2022.1.3,Win32,30.00120005,62c50e9c1127f2cd403a315f,,,,,,
0,43,43,14,1,,604676dbcf412f053df7d365,62c53a275c86ebf78e75a7cb,2022-07-06_08h31.07.824,Colour_Asymmetry_Pilot,2022.1.3,Win32,30.00120005,62c50e9c1127f2cd403a315f,,,,,,
0,44,44,56,1,,604676dbcf412f053df7d365,62c53a275c86ebf78e75a7cb,2022-07-06_08h31.07.824,Colour_Asymmetry_Pilot,2022.1.3,Win32,30.00120005,62c50e9c1127f2cd403a315f,,,,,,
0,45,45,75,1,,604676dbcf412f053df7d365,62c53a275c86ebf78e75a7cb,2022-07-06_08h31.07.824,Colour_Asymmetry_Pilot,2022.1.3,Win32,30.00120005,62c50e9c1127f2cd403a315f,,,,,,
0,46,46,2,1,,604676dbcf412f053df7d365,62c53a275c86ebf78e75a7cb,2022-07-06_08h31.07.824,Colour_Asymmetry_Pilot,2022.1.3,Win32,30.00120005,62c50e9c1127f2cd403a315f,,,,,,
0,47,47,18,1,,604676dbcf412f053df7d365,62c53a275c86ebf78e75a7cb,2022-07-06_08h31.07.824,Colour_Asymmetry_Pilot,2022.1.3,Win32,30.00120005,62c50e9c1127f2cd403a315f,,,,,,
0,48,48,48,1,,604676dbcf412f053df7d365,62c53a275c86ebf78e75a7cb,2022-07-06_08h31.07.824,Colour_Asymmetry_Pilot,2022.1.3,Win32,30.00120005,62c50e9c1127f2cd403a315f,,,,,,
0,49,49,5,1,,604676dbcf412f053df7d365,62c53a275c86ebf78e75a7cb,2022-07-06_08h31.07.824,Colour_Asymmetry_Pilot,2022.1.3,Win32,30.00120005,62c50e9c1127f2cd403a315f,,,,,,
0,50,50,7,1,,604676dbcf412f053df7d365,62c53a275c86ebf78e75a7cb,2022-07-06_08h31.07.824,Colour_Asymmetry_Pilot,2022.1.3,Win32,30.00120005,62c50e9c1127f2cd403a315f,,,,,,
0,51,51,24,1,,604676dbcf412f053df7d365,62c53a275c86ebf78e75a7cb,2022-07-06_08h31.07.824,Colour_Asymmetry_Pilot,2022.1.3,Win32,30.00120005,62c50e9c1127f2cd403a315f,,,,,,
0,52,52,6,1,,604676dbcf412f053df7d365,62c53a275c86ebf78e75a7cb,2022-07-06_08h31.07.824,Colour_Asymmetry_Pilot,2022.1.3,Win32,30.00120005,62c50e9c1127f2cd403a315f,,,,,,
0,53,53,71,1,,604676dbcf412f053df7d365,62c53a275c86ebf78e75a7cb,2022-07-06_08h31.07.824,Colour_Asymmetry_Pilot,2022.1.3,Win32,30.00120005,62c50e9c1127f2cd403a315f,,,,,,
0,54,54,20,1,,604676dbcf412f053df7d365,62c53a275c86ebf78e75a7cb,2022-07-06_08h31.07.824,Colour_Asymmetry_Pilot,2022.1.3,Win32,30.00120005,62c50e9c1127f2cd403a315f,,,,,,
0,55,55,19,1,,604676dbcf412f053df7d365,62c53a275c86ebf78e75a7cb,2022-07-06_08h31.07.824,Colour_Asymmetry_Pilot,2022.1.3,Win32,30.00120005,62c50e9c1127f2cd403a315f,,,,,,
0,56,56,46,1,,604676dbcf412f053df7d365,62c53a275c86ebf78e75a7cb,2022-07-06_08h31.07.824,Colour_Asymmetry_Pilot,2022.1.3,Win32,30.00120005,62c50e9c1127f2cd403a315f,,,,,,
0,57,57,0,1,,604676dbcf412f053df7d365,62c53a275c86ebf78e75a7cb,2022-07-06_08h31.07.824,Colour_Asymmetry_Pilot,2022.1.3,Win32,30.00120005,62c50e9c1127f2cd403a315f,,,,,,
0,58,58,73,1,,604676dbcf412f053df7d365,62c53a275c86ebf78e75a7cb,2022-07-06_08h31.07.824,Colour_Asymmetry_Pilot,2022.1.3,Win32,30.00120005,62c50e9c1127f2cd403a315f,,,,,,
0,59,59,84,1,,604676dbcf412f053df7d365,62c53a275c86ebf78e75a7cb,2022-07-06_08h31.07.824,Colour_Asymmetry_Pilot,2022.1.3,Win32,30.00120005,62c50e9c1127f2cd403a315f,,,,,,
0,60,60,8,1,,604676dbcf412f053df7d365,62c53a275c86ebf78e75a7cb,2022-07-06_08h31.07.824,Colour_Asymmetry_Pilot,2022.1.3,Win32,30.00120005,62c50e9c1127f2cd403a315f,,,,,,
0,61,61,49,1,,604676dbcf412f053df7d365,62c53a275c86ebf78e75a7cb,2022-07-06_08h31.07.824,Colour_Asymmetry_Pilot,2022.1.3,Win32,30.00120005,62c50e9c1127f2cd403a315f,,,,,,
0,62,62,77,1,,604676dbcf412f053df7d365,62c53a275c86ebf78e75a7cb,2022-07-06_08h31.07.824,Colour_Asymmetry_Pilot,2022.1.3,Win32,30.00120005,62c50e9c1127f2cd403a315f,,,,,,
0,63,63,21,1,,604676dbcf412f053df7d365,62c53a275c86ebf78e75a7cb,2022-07-06_08h31.07.824,Colour_Asymmetry_Pilot,2022.1.3,Win32,30.00120005,62c50e9c1127f2cd403a315f,,,,,,
0,64,64,54,1,,604676dbcf412f053df7d365,62c53a275c86ebf78e75a7cb,2022-07-06_08h31.07.824,Colour_Asymmetry_Pilot,2022.1.3,Win32,30.00120005,62c50e9c1127f2cd403a315f,,,,,,
0,65,65,50,1,,604676dbcf412f053df7d365,62c53a275c86ebf78e75a7cb,2022-07-06_08h31.07.824,Colour_Asymmetry_Pilot,2022.1.3,Win32,30.00120005,62c50e9c1127f2cd403a315f,,,,,,
0,66,66,22,1,,604676dbcf412f053df7d365,62c53a275c86ebf78e75a7cb,2022-07-06_08h31.07.824,Colour_Asymmetry_Pilot,2022.1.3,Win32,30.00120005,62c50e9c1127f2cd403a315f,,,,,,
0,67,67,25,1,,604676dbcf412f053df7d365,62c53a275c86ebf78e75a7cb,2022-07-06_08h31.07.824,Colour_Asymmetry_Pilot,2022.1.3,Win32,30.00120005,62c50e9c1127f2cd403a315f,,,,,,
0,68,68,53,1,,604676dbcf412f053df7d365,62c53a275c86ebf78e75a7cb,2022-07-06_08h31.07.824,Colour_Asymmetry_Pilot,2022.1.3,Win32,30.00120005,62c50e9c1127f2cd403a315f,,,,,,
0,69,69,89,1,,604676dbcf412f053df7d365,62c53a275c86ebf78e75a7cb,2022-07-06_08h31.07.824,Colour_Asymmetry_Pilot,2022.1.3,Win32,30.00120005,62c50e9c1127f2cd403a315f,,,,,,
0,70,70,38,1,,604676dbcf412f053df7d365,62c53a275c86ebf78e75a7cb,2022-07-06_08h31.07.824,Colour_Asymmetry_Pilot,2022.1.3,Win32,30.00120005,62c50e9c1127f2cd403a315f,,,,,,
0,71,71,65,1,,604676dbcf412f053df7d365,62c53a275c86ebf78e75a7cb,2022-07-06_08h31.07.824,Colour_Asymmetry_Pilot,2022.1.3,Win32,30.00120005,62c50e9c1127f2cd403a315f,,,,,,
0,72,72,57,1,,604676dbcf412f053df7d365,62c53a275c86ebf78e75a7cb,2022-07-06_08h31.07.824,Colour_Asymmetry_Pilot,2022.1.3,Win32,30.00120005,62c50e9c1127f2cd403a315f,,,,,,
0,73,73,76,1,,604676dbcf412f053df7d365,62c53a275c86ebf78e75a7cb,2022-07-06_08h31.07.824,Colour_Asymmetry_Pilot,2022.1.3,Win32,30.00120005,62c50e9c1127f2cd403a315f,,,,,,
0,74,74,11,1,,604676dbcf412f053df7d365,62c53a275c86ebf78e75a7cb,2022-07-06_08h31.07.824,Colour_Asymmetry_Pilot,2022.1.3,Win32,30.00120005,62c50e9c1127f2cd403a315f,,,,,,
0,75,75,10,1,,604676dbcf412f053df7d365,62c53a275c86ebf78e75a7cb,2022-07-06_08h31.07.824,Colour_Asymmetry_Pilot,2022.1.3,Win32,30.00120005,62c50e9c1127f2cd403a315f,,,,,,
0,76,76,3,1,,604676dbcf412f053df7d365,62c53a275c86ebf78e75a7cb,2022-07-06_08h31.07.824,Colour_Asymmetry_Pilot,2022.1.3,Win32,30.00120005,62c50e9c1127f2cd403a315f,,,,,,
0,77,77,67,1,,604676dbcf412f053df7d365,62c53a275c86ebf78e75a7cb,2022-07-06_08h31.07.824,Colour_Asymmetry_Pilot,2022.1.3,Win32,30.00120005,62c50e9c1127f2cd403a315f,,,,,,
0,78,78,30,1,,604676dbcf412f053df7d365,62c53a275c86ebf78e75a7cb,2022-07-06_08h31.07.824,Colour_Asymmetry_Pilot,2022.1.3,Win32,30.00120005,62c50e9c1127f2cd403a315f,,,,,,
0,79,79,44,1,,604676dbcf412f053df7d365,62c53a275c86ebf78e75a7cb,2022-07-06_08h31.07.824,Colour_Asymmetry_Pilot,2022.1.3,Win32,30.00120005,62c50e9c1127f2cd403a315f,,,,,,
0,80,80,12,1,,604676dbcf412f053df7d365,62c53a275c86ebf78e75a7cb,2022-07-06_08h31.07.824,Colour_Asymmetry_Pilot,2022.1.3,Win32,30.00120005,62c50e9c1127f2cd403a315f,,,,,,
0,81,81,52,1,,604676dbcf412f053df7d365,62c53a275c86ebf78e75a7cb,2022-07-06_08h31.07.824,Colour_Asymmetry_Pilot,2022.1.3,Win32,30.00120005,62c50e9c1127f2cd403a315f,,,,,,
0,82,82,43,1,,604676dbcf412f053df7d365,62c53a275c86ebf78e75a7cb,2022-07-06_08h31.07.824,Colour_Asymmetry_Pilot,2022.1.3,Win32,30.00120005,62c50e9c1127f2cd403a315f,,,,,,
0,83,83,79,1,,604676dbcf412f053df7d365,62c53a275c86ebf78e75a7cb,2022-07-06_08h31.07.824,Colour_Asymmetry_Pilot,2022.1.3,Win32,30.00120005,62c50e9c1127f2cd403a315f,,,,,,
0,84,84,36,1,,604676dbcf412f053df7d365,62c53a275c86ebf78e75a7cb,2022-07-06_08h31.07.824,Colour_Asymmetry_Pilot,2022.1.3,Win32,30.00120005,62c50e9c1127f2cd403a315f,,,,,,
0,85,85,85,1,,604676dbcf412f053df7d365,62c53a275c86ebf78e75a7cb,2022-07-06_08h31.07.824,Colour_Asymmetry_Pilot,2022.1.3,Win32,30.00120005,62c50e9c1127f2cd403a315f,,,,,,
0,86,86,29,1,,604676dbcf412f053df7d365,62c53a275c86ebf78e75a7cb,2022-07-06_08h31.07.824,Colour_Asymmetry_Pilot,2022.1.3,Win32,30.00120005,62c50e9c1127f2cd403a315f,,,,,,
0,87,87,92,1,,604676dbcf412f053df7d365,62c53a275c86ebf78e75a7cb,2022-07-06_08h31.07.824,Colour_Asymmetry_Pilot,2022.1.3,Win32,30.00120005,62c50e9c1127f2cd403a315f,,,,,,
0,88,88,80,1,,604676dbcf412f053df7d365,62c53a275c86ebf78e75a7cb,2022-07-06_08h31.07.824,Colour_Asymmetry_Pilot,2022.1.3,Win32,30.00120005,62c50e9c1127f2cd403a315f,,,,,,
0,89,89,37,1,,604676dbcf412f053df7d365,62c53a275c86ebf78e75a7cb,2022-07-06_08h31.07.824,Colour_Asymmetry_Pilot,2022.1.3,Win32,30.00120005,62c50e9c1127f2cd403a315f,,,,,,
0,90,90,61,1,,604676dbcf412f053df7d365,62c53a275c86ebf78e75a7cb,2022-07-06_08h31.07.824,Colour_Asymmetry_Pilot,2022.1.3,Win32,30.00120005,62c50e9c1127f2cd403a315f,,,,,,
0,91,91,68,1,,604676dbcf412f053df7d365,62c53a275c86ebf78e75a7cb,2022-07-06_08h31.07.824,Colour_Asymmetry_Pilot,2022.1.3,Win32,30.00120005,62c50e9c1127f2cd403a315f,,,,,,
0,92,92,28,1,,604676dbcf412f053df7d365,62c53a275c86ebf78e75a7cb,2022-07-06_08h31.07.824,Colour_Asymmetry_Pilot,2022.1.3,Win32,30.00120005,62c50e9c1127f2cd403a315f,,,,,,
,,,,,,604676dbcf412f053df7d365,62c53a275c86ebf78e75a7cb,2022-07-06_08h31.07.824,Colour_Asymmetry_Pilot,2022.1.3,Win32,30.00120005,62c50e9c1127f2cd403a315f,0,0,0,108,1,threeone
,,,,,,604676dbcf412f053df7d365,62c53a275c86ebf78e75a7cb,2022-07-06_08h31.07.824,Colour_Asymmetry_Pilot,2022.1.3,Win32,30.00120005,62c50e9c1127f2cd403a315f,0,1,1,34,1,twoone
,,,,,,604676dbcf412f053df7d365,62c53a275c86ebf78e75a7cb,2022-07-06_08h31.07.824,Colour_Asymmetry_Pilot,2022.1.3,Win32,30.00120005,62c50e9c1127f2cd403a315f,0,2,2,93,1,threefour
,,,,,,604676dbcf412f053df7d365,62c53a275c86ebf78e75a7cb,2022-07-06_08h31.07.824,Colour_Asymmetry_Pilot,2022.1.3,Win32,30.00120005,62c50e9c1127f2cd403a315f,0,3,3,62,1,fourtwo
,,,,,,604676dbcf412f053df7d365,62c53a275c86ebf78e75a7cb,2022-07-06_08h31.07.824,Colour_Asymmetry_Pilot,2022.1.3,Win32,30.00120005,62c50e9c1127f2cd403a315f,0,4,4,16,1,onetwo
,,,,,,604676dbcf412f053df7d365,62c53a275c86ebf78e75a7cb,2022-07-06_08h31.07.824,Colour_Asymmetry_Pilot,2022.1.3,Win32,30.00120005,62c50e9c1127f2cd403a315f,0,5,5,144,1,onetwo
,,,,,,604676dbcf412f053df7d365,62c53a275c86ebf78e75a7cb,2022-07-06_08h31.07.824,Colour_Asymmetry_Pilot,2022.1.3,Win32,30.00120005,62c50e9c1127f2cd403a315f,0,6,6,28,1,threeone
,,,,,,604676dbcf412f053df7d365,62c53a275c86ebf78e75a7cb,2022-07-06_08h31.07.824,Colour_Asymmetry_Pilot,2022.1.3,Win32,30.00120005,62c50e9c1127f2cd403a315f,0,7,7,124,1,threeone
,,,,,,604676dbcf412f053df7d365,62c53a275c86ebf78e75a7cb,2022-07-06_08h31.07.824,Colour_Asymmetry_Pilot,2022.1.3,Win32,30.00120005,62c50e9c1127f2cd403a315f,0,8,8,103,1,fourthree
,,,,,,604676dbcf412f053df7d365,62c53a275c86ebf78e75a7cb,2022-07-06_08h31.07.824,Colour_Asymmetry_Pilot,2022.1.3,Win32,30.00120005,62c50e9c1127f2cd403a315f,0,9,9,107,1,twofour
,,,,,,604676dbcf412f053df7d365,62c53a275c86ebf78e75a7cb,2022-07-06_08h31.07.824,Colour_Asymmetry_Pilot,2022.1.3,Win32,30.00120005,62c50e9c1127f2cd403a315f,0,10,10,39,1,fourthree
,,,,,,604676dbcf412f053df7d365,62c53a275c86ebf78e75a7cb,2022-07-06_08h31.07.824,Colour_Asymmetry_Pilot,2022.1.3,Win32,30.00120005,62c50e9c1127f2cd403a315f,0,11,11,77,1,threefour
,,,,,,604676dbcf412f053df7d365,62c53a275c86ebf78e75a7cb,2022-07-06_08h31.07.824,Colour_Asymmetry_Pilot,2022.1.3,Win32,30.00120005,62c50e9c1127f2cd403a315f,0,12,12,84,1,threeone
,,,,,,604676dbcf412f053df7d365,62c53a275c86ebf78e75a7cb,2022-07-06_08h31.07.824,Colour_Asymmetry_Pilot,2022.1.3,Win32,30.00120005,62c50e9c1127f2cd403a315f,0,13,13,38,1,fourtwo
,,,,,,604676dbcf412f053df7d365,62c53a275c86ebf78e75a7cb,2022-07-06_08h31.07.824,Colour_Asymmetry_Pilot,2022.1.3,Win32,30.00120005,62c50e9c1127f2cd403a315f,0,14,14,68,1,threeone
,,,,,,604676dbcf412f053df7d365,62c53a275c86ebf78e75a7cb,2022-07-06_08h31.07.824,Colour_Asymmetry_Pilot,2022.1.3,Win32,30.00120005,62c50e9c1127f2cd403a315f,0,15,15,71,1,fourthree
,,,,,,604676dbcf412f053df7d365,62c53a275c86ebf78e75a7cb,2022-07-06_08h31.07.824,Colour_Asymmetry_Pilot,2022.1.3,Win32,30.00120005,62c50e9c1127f2cd403a315f,0,16,16,31,1,fourthree
,,,,,,604676dbcf412f053df7d365,62c53a275c86ebf78e75a7cb,2022-07-06_08h31.07.824,Colour_Asymmetry_Pilot,2022.1.3,Win32,30.00120005,62c50e9c1127f2cd403a315f,0,17,17,82,1,twoone
,,,,,,604676dbcf412f053df7d365,62c53a275c86ebf78e75a7cb,2022-07-06_08h31.07.824,Colour_Asymmetry_Pilot,2022.1.3,Win32,30.00120005,62c50e9c1127f2cd403a315f,0,18,18,132,1,threeone
,,,,,,604676dbcf412f053df7d365,62c53a275c86ebf78e75a7cb,2022-07-06_08h31.07.824,Colour_Asymmetry_Pilot,2022.1.3,Win32,30.00120005,62c50e9c1127f2cd403a315f,0,19,19,94,1,fourtwo
,,,,,,604676dbcf412f053df7d365,62c53a275c86ebf78e75a7cb,2022-07-06_08h31.07.824,Colour_Asymmetry_Pilot,2022.1.3,Win32,30.00120005,62c50e9c1127f2cd403a315f,0,20,20,161,1,onethree
,,,,,,604676dbcf412f053df7d365,62c53a275c86ebf78e75a7cb,2022-07-06_08h31.07.824,Colour_Asymmetry_Pilot,2022.1.3,Win32,30.00120005,62c50e9c1127f2cd403a315f,0,21,21,139,1,twofour
,,,,,,604676dbcf412f053df7d365,62c53a275c86ebf78e75a7cb,2022-07-06_08h31.07.824,Colour_Asymmetry_Pilot,2022.1.3,Win32,30.00120005,62c50e9c1127f2cd403a315f,0,22,22,76,1,threeone
,,,,,,604676dbcf412f053df7d365,62c53a275c86ebf78e75a7cb,2022-07-06_08h31.07.824,Colour_Asymmetry_Pilot,2022.1.3,Win32,30.00120005,62c50e9c1127f2cd403a315f,0,23,23,14,1,fourtwo
,,,,,,604676dbcf412f053df7d365,62c53a275c86ebf78e75a7cb,2022-07-06_08h31.07.824,Colour_Asymmetry_Pilot,2022.1.3,Win32,30.00120005,62c50e9c1127f2cd403a315f,0,24,24,98,1,twoone
,,,,,,604676dbcf412f053df7d365,62c53a275c86ebf78e75a7cb,2022-07-06_08h31.07.824,Colour_Asymmetry_Pilot,2022.1.3,Win32,30.00120005,62c50e9c1127f2cd403a315f,0,25,25,105,1,onethree
,,,,,,604676dbcf412f053df7d365,62c53a275c86ebf78e75a7cb,2022-07-06_08h31.07.824,Colour_Asymmetry_Pilot,2022.1.3,Win32,30.00120005,62c50e9c1127f2cd403a315f,0,26,26,152,1,onetwo
,,,,,,604676dbcf412f053df7d365,62c53a275c86ebf78e75a7cb,2022-07-06_08h31.07.824,Colour_Asymmetry_Pilot,2022.1.3,Win32,30.00120005,62c50e9c1127f2cd403a315f,0,27,27,9,1,onethree
,,,,,,604676dbcf412f053df7d365,62c53a275c86ebf78e75a7cb,2022-07-06_08h31.07.824,Colour_Asymmetry_Pilot,2022.1.3,Win32,30.00120005,62c50e9c1127f2cd403a315f,0,28,28,134,1,fourtwo
,,,,,,604676dbcf412f053df7d365,62c53a275c86ebf78e75a7cb,2022-07-06_08h31.07.824,Colour_Asymmetry_Pilot,2022.1.3,Win32,30.00120005,62c50e9c1127f2cd403a315f,0,29,29,137,1,onethree
,,,,,,604676dbcf412f053df7d365,62c53a275c86ebf78e75a7cb,2022-07-06_08h31.07.824,Colour_Asymmetry_Pilot,2022.1.3,Win32,30.00120005,62c50e9c1127f2cd403a315f,0,30,30,158,1,fourtwo
,,,,,,604676dbcf412f053df7d365,62c53a275c86ebf78e75a7cb,2022-07-06_08h31.07.824,Colour_Asymmetry_Pilot,2022.1.3,Win32,30.00120005,62c50e9c1127f2cd403a315f,0,31,31,160,1,onetwo
,,,,,,604676dbcf412f053df7d365,62c53a275c86ebf78e75a7cb,2022-07-06_08h31.07.824,Colour_Asymmetry_Pilot,2022.1.3,Win32,30.00120005,62c50e9c1127f2cd403a315f,0,32,32,61,1,threefour
,,,,,,604676dbcf412f053df7d365,62c53a275c86ebf78e75a7cb,2022-07-06_08h31.07.824,Colour_Asymmetry_Pilot,2022.1.3,Win32,30.00120005,62c50e9c1127f2cd403a315f,0,33,33,145,1,onethree
,,,,,,604676dbcf412f053df7d365,62c53a275c86ebf78e75a7cb,2022-07-06_08h31.07.824,Colour_Asymmetry_Pilot,2022.1.3,Win32,30.00120005,62c50e9c1127f2cd403a315f,0,34,34,55,1,fourthree
,,,,,,604676dbcf412f053df7d365,62c53a275c86ebf78e75a7cb,2022-07-06_08h31.07.824,Colour_Asymmetry_Pilot,2022.1.3,Win32,30.00120005,62c50e9c1127f2cd403a315f,0,35,35,19,1,twofour
,,,,,,604676dbcf412f053df7d365,62c53a275c86ebf78e75a7cb,2022-07-06_08h31.07.824,Colour_Asymmetry_Pilot,2022.1.3,Win32,30.00120005,62c50e9c1127f2cd403a315f,0,36,36,80,1,onetwo
,,,,,,604676dbcf412f053df7d365,62c53a275c86ebf78e75a7cb,2022-07-06_08h31.07.824,Colour_Asymmetry_Pilot,2022.1.3,Win32,30.00120005,62c50e9c1127f2cd403a315f,0,37,37,141,1,threefour
,,,,,,604676dbcf412f053df7d365,62c53a275c86ebf78e75a7cb,2022-07-06_08h31.07.824,Colour_Asymmetry_Pilot,2022.1.3,Win32,30.00120005,62c50e9c1127f2cd403a315f,0,38,38,4,1,threeone
,,,,,,604676dbcf412f053df7d365,62c53a275c86ebf78e75a7cb,2022-07-06_08h31.07.824,Colour_Asymmetry_Pilot,2022.1.3,Win32,30.00120005,62c50e9c1127f2cd403a315f,0,39,39,11,1,twofour
,,,,,,604676dbcf412f053df7d365,62c53a275c86ebf78e75a7cb,2022-07-06_08h31.07.824,Colour_Asymmetry_Pilot,2022.1.3,Win32,30.00120005,62c50e9c1127f2cd403a315f,0,40,40,2,1,twoone
,,,,,,604676dbcf412f053df7d365,62c53a275c86ebf78e75a7cb,2022-07-06_08h31.07.824,Colour_Asymmetry_Pilot,2022.1.3,Win32,30.00120005,62c50e9c1127f2cd403a315f,0,41,41,96,1,onetwo
,,,,,,604676dbcf412f053df7d365,62c53a275c86ebf78e75a7cb,2022-07-06_08h31.07.824,Colour_Asymmetry_Pilot,2022.1.3,Win32,30.00120005,62c50e9c1127f2cd403a315f,0,42,42,117,1,threefour
,,,,,,604676dbcf412f053df7d365,62c53a275c86ebf78e75a7cb,2022-07-06_08h31.07.824,Colour_Asymmetry_Pilot,2022.1.3,Win32,30.00120005,62c50e9c1127f2cd403a315f,0,43,43,49,1,onethree
,,,,,,604676dbcf412f053df7d365,62c53a275c86ebf78e75a7cb,2022-07-06_08h31.07.824,Colour_Asymmetry_Pilot,2022.1.3,Win32,30.00120005,62c50e9c1127f2cd403a315f,0,44,44,142,1,fourtwo
,,,,,,604676dbcf412f053df7d365,62c53a275c86ebf78e75a7cb,2022-07-06_08h31.07.824,Colour_Asymmetry_Pilot,2022.1.3,Win32,30.00120005,62c50e9c1127f2cd403a315f,0,45,45,109,1,threefour
,,,,,,604676dbcf412f053df7d365,62c53a275c86ebf78e75a7cb,2022-07-06_08h31.07.824,Colour_Asymmetry_Pilot,2022.1.3,Win32,30.00120005,62c50e9c1127f2cd403a315f,0,46,46,133,1,threefour
,,,,,,604676dbcf412f053df7d365,62c53a275c86ebf78e75a7cb,2022-07-06_08h31.07.824,Colour_Asymmetry_Pilot,2022.1.3,Win32,30.00120005,62c50e9c1127f2cd403a315f,0,47,47,27,1,twofour
,,,,,,604676dbcf412f053df7d365,62c53a275c86ebf78e75a7cb,2022-07-06_08h31.07.824,Colour_Asymmetry_Pilot,2022.1.3,Win32,30.00120005,62c50e9c1127f2cd403a315f,0,48,48,153,1,onethree
,,,,,,604676dbcf412f053df7d365,62c53a275c86ebf78e75a7cb,2022-07-06_08h31.07.824,Colour_Asymmetry_Pilot,2022.1.3,Win32,30.00120005,62c50e9c1127f2cd403a315f,0,49,49,102,1,fourtwo
,,,,,,604676dbcf412f053df7d365,62c53a275c86ebf78e75a7cb,2022-07-06_08h31.07.824,Colour_Asymmetry_Pilot,2022.1.3,Win32,30.00120005,62c50e9c1127f2cd403a315f,0,50,50,3,1,twofour
,,,,,,604676dbcf412f053df7d365,62c53a275c86ebf78e75a7cb,2022-07-06_08h31.07.824,Colour_Asymmetry_Pilot,2022.1.3,Win32,30.00120005,62c50e9c1127f2cd403a315f,0,51,51,58,1,twoone
,,,,,,604676dbcf412f053df7d365,62c53a275c86ebf78e75a7cb,2022-07-06_08h31.07.824,Colour_Asymmetry_Pilot,2022.1.3,Win32,30.00120005,62c50e9c1127f2cd403a315f,0,52,52,154,1,twoone
,,,,,,604676dbcf412f053df7d365,62c53a275c86ebf78e75a7cb,2022-07-06_08h31.07.824,Colour_Asymmetry_Pilot,2022.1.3,Win32,30.00120005,62c50e9c1127f2cd403a315f,0,53,53,41,1,onethree
,,,,,,604676dbcf412f053df7d365,62c53a275c86ebf78e75a7cb,2022-07-06_08h31.07.824,Colour_Asymmetry_Pilot,2022.1.3,Win32,30.00120005,62c50e9c1127f2cd403a315f,0,54,54,110,1,fourtwo
,,,,,,604676dbcf412f053df7d365,62c53a275c86ebf78e75a7cb,2022-07-06_08h31.07.824,Colour_Asymmetry_Pilot,2022.1.3,Win32,30.00120005,62c50e9c1127f2cd403a315f,0,55,55,91,1,twofour
,,,,,,604676dbcf412f053df7d365,62c53a275c86ebf78e75a7cb,2022-07-06_08h31.07.824,Colour_Asymmetry_Pilot,2022.1.3,Win32,30.00120005,62c50e9c1127f2cd403a315f,0,56,56,32,1,onetwo
,,,,,,604676dbcf412f053df7d365,62c53a275c86ebf78e75a7cb,2022-07-06_08h31.07.824,Colour_Asymmetry_Pilot,2022.1.3,Win32,30.00120005,62c50e9c1127f2cd403a315f,0,57,57,67,1,twofour
,,,,,,604676dbcf412f053df7d365,62c53a275c86ebf78e75a7cb,2022-07-06_08h31.07.824,Colour_Asymmetry_Pilot,2022.1.3,Win32,30.00120005,62c50e9c1127f2cd403a315f,0,58,58,26,1,twoone
,,,,,,604676dbcf412f053df7d365,62c53a275c86ebf78e75a7cb,2022-07-06_08h31.07.824,Colour_Asymmetry_Pilot,2022.1.3,Win32,30.00120005,62c50e9c1127f2cd403a315f,0,59,59,25,1,onethree
,,,,,,604676dbcf412f053df7d365,62c53a275c86ebf78e75a7cb,2022-07-06_08h31.07.824,Colour_Asymmetry_Pilot,2022.1.3,Win32,30.00120005,62c50e9c1127f2cd403a315f,0,60,60,90,1,twoone
,,,,,,604676dbcf412f053df7d365,62c53a275c86ebf78e75a7cb,2022-07-06_08h31.07.824,Colour_Asymmetry_Pilot,2022.1.3,Win32,30.00120005,62c50e9c1127f2cd403a315f,0,61,61,127,1,fourthree
,,,,,,604676dbcf412f053df7d365,62c53a275c86ebf78e75a7cb,2022-07-06_08h31.07.824,Colour_Asymmetry_Pilot,2022.1.3,Win32,30.00120005,62c50e9c1127f2cd403a315f,0,62,62,15,1,fourthree
,,,,,,604676dbcf412f053df7d365,62c53a275c86ebf78e75a7cb,2022-07-06_08h31.07.824,Colour_Asymmetry_Pilot,2022.1.3,Win32,30.00120005,62c50e9c1127f2cd403a315f,0,63,63,122,1,twoone
,,,,,,604676dbcf412f053df7d365,62c53a275c86ebf78e75a7cb,2022-07-06_08h31.07.824,Colour_Asymmetry_Pilot,2022.1.3,Win32,30.00120005,62c50e9c1127f2cd403a315f,0,64,64,128,1,onetwo
,,,,,,604676dbcf412f053df7d365,62c53a275c86ebf78e75a7cb,2022-07-06_08h31.07.824,Colour_Asymmetry_Pilot,2022.1.3,Win32,30.00120005,62c50e9c1127f2cd403a315f,0,65,65,157,1,threefour
,,,,,,604676dbcf412f053df7d365,62c53a275c86ebf78e75a7cb,2022-07-06_08h31.07.824,Colour_Asymmetry_Pilot,2022.1.3,Win32,30.00120005,62c50e9c1127f2cd403a315f,0,66,66,24,1,onetwo
,,,,,,604676dbcf412f053df7d365,62c53a275c86ebf78e75a7cb,2022-07-06_08h31.07.824,Colour_Asymmetry_Pilot,2022.1.3,Win32,30.00120005,62c50e9c1127f2cd403a315f,0,67,67,136,1,onetwo
,,,,,,604676dbcf412f053df7d365,62c53a275c86ebf78e75a7cb,2022-07-06_08h31.07.824,Colour_Asymmetry_Pilot,2022.1.3,Win32,30.00120005,62c50e9c1127f2cd403a315f,0,68,68,147,1,twofour
,,,,,,604676dbcf412f053df7d365,62c53a275c86ebf78e75a7cb,2022-07-06_08h31.07.824,Colour_Asymmetry_Pilot,2022.1.3,Win32,30.00120005,62c50e9c1127f2cd403a315f,0,69,69,29,1,threefour
,,,,,,604676dbcf412f053df7d365,62c53a275c86ebf78e75a7cb,2022-07-06_08h31.07.824,Colour_Asymmetry_Pilot,2022.1.3,Win32,30.00120005,62c50e9c1127f2cd403a315f,0,70,70,37,1,threefour
,,,,,,604676dbcf412f053df7d365,62c53a275c86ebf78e75a7cb,2022-07-06_08h31.07.824,Colour_Asymmetry_Pilot,2022.1.3,Win32,30.00120005,62c50e9c1127f2cd403a315f,0,71,71,12,1,threeone
,,,,,,604676dbcf412f053df7d365,62c53a275c86ebf78e75a7cb,2022-07-06_08h31.07.824,Colour_Asymmetry_Pilot,2022.1.3,Win32,30.00120005,62c50e9c1127f2cd403a315f,0,72,72,116,1,threeone
,,,,,,604676dbcf412f053df7d365,62c53a275c86ebf78e75a7cb,2022-07-06_08h31.07.824,Colour_Asymmetry_Pilot,2022.1.3,Win32,30.00120005,62c50e9c1127f2cd403a315f,0,73,73,60,1,threeone
,,,,,,604676dbcf412f053df7d365,62c53a275c86ebf78e75a7cb,2022-07-06_08h31.07.824,Colour_Asymmetry_Pilot,2022.1.3,Win32,30.00120005,62c50e9c1127f2cd403a315f,0,74,74,7,1,fourthree
,,,,,,604676dbcf412f053df7d365,62c53a275c86ebf78e75a7cb,2022-07-06_08h31.07.824,Colour_Asymmetry_Pilot,2022.1.3,Win32,30.00120005,62c50e9c1127f2cd403a315f,0,75,75,87,1,fourthree
,,,,,,604676dbcf412f053df7d365,62c53a275c86ebf78e75a7cb,2022-07-06_08h31.07.824,Colour_Asymmetry_Pilot,2022.1.3,Win32,30.00120005,62c50e9c1127f2cd403a315f,0,76,76,65,1,onethree
,,,,,,604676dbcf412f053df7d365,62c53a275c86ebf78e75a7cb,2022-07-06_08h31.07.824,Colour_Asymmetry_Pilot,2022.1.3,Win32,30.00120005,62c50e9c1127f2cd403a315f,0,77,77,149,1,threefour
,,,,,,604676dbcf412f053df7d365,62c53a275c86ebf78e75a7cb,2022-07-06_08h31.07.824,Colour_Asymmetry_Pilot,2022.1.3,Win32,30.00120005,62c50e9c1127f2cd403a315f,0,78,78,100,1,threeone
,,,,,,604676dbcf412f053df7d365,62c53a275c86ebf78e75a7cb,2022-07-06_08h31.07.824,Colour_Asymmetry_Pilot,2022.1.3,Win32,30.00120005,62c50e9c1127f2cd403a315f,0,79,79,63,1,fourthree
,,,,,,604676dbcf412f053df7d365,62c53a275c86ebf78e75a7cb,2022-07-06_08h31.07.824,Colour_Asymmetry_Pilot,2022.1.3,Win32,30.00120005,62c50e9c1127f2cd403a315f,0,80,80,70,1,fourtwo
,,,,,,604676dbcf412f053df7d365,62c53a275c86ebf78e75a7cb,2022-07-06_08h31.07.824,Colour_Asymmetry_Pilot,2022.1.3,Win32,30.00120005,62c50e9c1127f2cd403a315f,0,81,81,72,1,onetwo
,,,,,,604676dbcf412f053df7d365,62c53a275c86ebf78e75a7cb,2022-07-06_08h31.07.824,Colour_Asymmetry_Pilot,2022.1.3,Win32,30.00120005,62c50e9c1127f2cd403a315f,0,82,82,21,1,threefour
,,,,,,604676dbcf412f053df7d365,62c53a275c86ebf78e75a7cb,2022-07-06_08h31.07.824,Colour_Asymmetry_Pilot,2022.1.3,Win32,30.00120005,62c50e9c1127f2cd403a315f,0,83,83,146,1,twoone
,,,,,,604676dbcf412f053df7d365,62c53a275c86ebf78e75a7cb,2022-07-06_08h31.07.824,Colour_Asymmetry_Pilot,2022.1.3,Win32,30.00120005,62c50e9c1127f2cd403a315f,0,84,84,129,1,onethree
,,,,,,604676dbcf412f053df7d365,62c53a275c86ebf78e75a7cb,2022-07-06_08h31.07.824,Colour_Asymmetry_Pilot,2022.1.3,Win32,30.00120005,62c50e9c1127f2cd403a315f,0,85,85,140,1,threeone
,,,,,,604676dbcf412f053df7d365,62c53a275c86ebf78e75a7cb,2022-07-06_08h31.07.824,Colour_Asymmetry_Pilot,2022.1.3,Win32,30.00120005,62c50e9c1127f2cd403a315f,0,86,86,30,1,fourtwo
,,,,,,604676dbcf412f053df7d365,62c53a275c86ebf78e75a7cb,2022-07-06_08h31.07.824,Colour_Asymmetry_Pilot,2022.1.3,Win32,30.00120005,62c50e9c1127f2cd403a315f,0,87,87,88,1,onetwo
,,,,,,604676dbcf412f053df7d365,62c53a275c86ebf78e75a7cb,2022-07-06_08h31.07.824,Colour_Asymmetry_Pilot,2022.1.3,Win32,30.00120005,62c50e9c1127f2cd403a315f,0,88,88,57,1,onethree
,,,,,,604676dbcf412f053df7d365,62c53a275c86ebf78e75a7cb,2022-07-06_08h31.07.824,Colour_Asymmetry_Pilot,2022.1.3,Win32,30.00120005,62c50e9c1127f2cd403a315f,0,89,89,53,1,threefour
,,,,,,604676dbcf412f053df7d365,62c53a275c86ebf78e75a7cb,2022-07-06_08h31.07.824,Colour_Asymmetry_Pilot,2022.1.3,Win32,30.00120005,62c50e9c1127f2cd403a315f,0,90,90,95,1,fourthree
,,,,,,604676dbcf412f053df7d365,62c53a275c86ebf78e75a7cb,2022-07-06_08h31.07.824,Colour_Asymmetry_Pilot,2022.1.3,Win32,30.00120005,62c50e9c1127f2cd403a315f,0,91,91,36,1,threeone
,,,,,,604676dbcf412f053df7d365,62c53a275c86ebf78e75a7cb,2022-07-06_08h31.07.824,Colour_Asymmetry_Pilot,2022.1.3,Win32,30.00120005,62c50e9c1127f2cd403a315f,0,92,92,13,1,threefour
,,,,,,604676dbcf412f053df7d365,62c53a275c86ebf78e75a7cb,2022-07-06_08h31.07.824,Colour_Asymmetry_Pilot,2022.1.3,Win32,30.00120005,62c50e9c1127f2cd403a315f,0,93,93,46,1,fourtwo
,,,,,,604676dbcf412f053df7d365,62c53a275c86ebf78e75a7cb,2022-07-06_08h31.07.824,Colour_Asymmetry_Pilot,2022.1.3,Win32,30.00120005,62c50e9c1127f2cd403a315f,0,94,94,131,1,twofour
,,,,,,604676dbcf412f053df7d365,62c53a275c86ebf78e75a7cb,2022-07-06_08h31.07.824,Colour_Asymmetry_Pilot,2022.1.3,Win32,30.00120005,62c50e9c1127f2cd403a315f,0,95,95,78,1,fourtwo
,,,,,,604676dbcf412f053df7d365,62c53a275c86ebf78e75a7cb,2022-07-06_08h31.07.824,Colour_Asymmetry_Pilot,2022.1.3,Win32,30.00120005,62c50e9c1127f2cd403a315f,0,96,96,104,1,onetwo
,,,,,,604676dbcf412f053df7d365,62c53a275c86ebf78e75a7cb,2022-07-06_08h31.07.824,Colour_Asymmetry_Pilot,2022.1.3,Win32,30.00120005,62c50e9c1127f2cd403a315f,0,97,97,85,1,threefour
,,,,,,604676dbcf412f053df7d365,62c53a275c86ebf78e75a7cb,2022-07-06_08h31.07.824,Colour_Asymmetry_Pilot,2022.1.3,Win32,30.00120005,62c50e9c1127f2cd403a315f,0,98,98,118,1,fourtwo
,,,,,,604676dbcf412f053df7d365,62c53a275c86ebf78e75a7cb,2022-07-06_08h31.07.824,Colour_Asymmetry_Pilot,2022.1.3,Win32,30.00120005,62c50e9c1127f2cd403a315f,0,99,99,50,1,twoone
,,,,,,604676dbcf412f053df7d365,62c53a275c86ebf78e75a7cb,2022-07-06_08h31.07.824,Colour_Asymmetry_Pilot,2022.1.3,Win32,30.00120005,62c50e9c1127f2cd403a315f,0,100,100,6,1,fourtwo
,,,,,,604676dbcf412f053df7d365,62c53a275c86ebf78e75a7cb,2022-07-06_08h31.07.824,Colour_Asymmetry_Pilot,2022.1.3,Win32,30.00120005,62c50e9c1127f2cd403a315f,0,101,101,113,1,onethree
,,,,,,604676dbcf412f053df7d365,62c53a275c86ebf78e75a7cb,2022-07-06_08h31.07.824,Colour_Asymmetry_Pilot,2022.1.3,Win32,30.00120005,62c50e9c1127f2cd403a315f,0,102,102,54,1,fourtwo
,,,,,,604676dbcf412f053df7d365,62c53a275c86ebf78e75a7cb,2022-07-06_08h31.07.824,Colour_Asymmetry_Pilot,2022.1.3,Win32,30.00120005,62c50e9c1127f2cd403a315f,0,103,103,125,1,threefour
,,,,,,604676dbcf412f053df7d365,62c53a275c86ebf78e75a7cb,2022-07-06_08h31.07.824,Colour_Asymmetry_Pilot,2022.1.3,Win32,30.00120005,62c50e9c1127f2cd403a315f,0,104,104,20,1,threeone
,,,,,,604676dbcf412f053df7d365,62c53a275c86ebf78e75a7cb,2022-07-06_08h31.07.824,Colour_Asymmetry_Pilot,2022.1.3,Win32,30.00120005,62c50e9c1127f2cd403a315f,0,105,105,64,1,onetwo
,,,,,,604676dbcf412f053df7d365,62c53a275c86ebf78e75a7cb,2022-07-06_08h31.07.824,Colour_Asymmetry_Pilot,2022.1.3,Win32,30.00120005,62c50e9c1127f2cd403a315f,0,106,106,66,1,twoone
,,,,,,604676dbcf412f053df7d365,62c53a275c86ebf78e75a7cb,2022-07-06_08h31.07.824,Colour_Asymmetry_Pilot,2022.1.3,Win32,30.00120005,62c50e9c1127f2cd403a315f,0,107,107,106,1,twoone
,,,,,,604676dbcf412f053df7d365,62c53a275c86ebf78e75a7cb,2022-07-06_08h31.07.824,Colour_Asymmetry_Pilot,2022.1.3,Win32,30.00120005,62c50e9c1127f2cd403a315f,0,108,108,120,1,onetwo
,,,,,,604676dbcf412f053df7d365,62c53a275c86ebf78e75a7cb,2022-07-06_08h31.07.824,Colour_Asymmetry_Pilot,2022.1.3,Win32,30.00120005,62c50e9c1127f2cd403a315f,0,109,109,121,1,onethree
,,,,,,604676dbcf412f053df7d365,62c53a275c86ebf78e75a7cb,2022-07-06_08h31.07.824,Colour_Asymmetry_Pilot,2022.1.3,Win32,30.00120005,62c50e9c1127f2cd403a315f,0,110,110,5,1,threefour
,,,,,,604676dbcf412f053df7d365,62c53a275c86ebf78e75a7cb,2022-07-06_08h31.07.824,Colour_Asymmetry_Pilot,2022.1.3,Win32,30.00120005,62c50e9c1127f2cd403a315f,0,111,111,33,1,onethree
,,,,,,604676dbcf412f053df7d365,62c53a275c86ebf78e75a7cb,2022-07-06_08h31.07.824,Colour_Asymmetry_Pilot,2022.1.3,Win32,30.00120005,62c50e9c1127f2cd403a315f,0,112,112,43,1,twofour
,,,,,,604676dbcf412f053df7d365,62c53a275c86ebf78e75a7cb,2022-07-06_08h31.07.824,Colour_Asymmetry_Pilot,2022.1.3,Win32,30.00120005,62c50e9c1127f2cd403a315f,0,113,113,75,1,twofour
,,,,,,604676dbcf412f053df7d365,62c53a275c86ebf78e75a7cb,2022-07-06_08h31.07.824,Colour_Asymmetry_Pilot,2022.1.3,Win32,30.00120005,62c50e9c1127f2cd403a315f,0,114,114,89,1,onethree
,,,,,,604676dbcf412f053df7d365,62c53a275c86ebf78e75a7cb,2022-07-06_08h31.07.824,Colour_Asymmetry_Pilot,2022.1.3,Win32,30.00120005,62c50e9c1127f2cd403a315f,0,115,115,126,1,fourtwo
,,,,,,604676dbcf412f053df7d365,62c53a275c86ebf78e75a7cb,2022-07-06_08h31.07.824,Colour_Asymmetry_Pilot,2022.1.3,Win32,30.00120005,62c50e9c1127f2cd403a315f,0,116,116,86,1,fourtwo
,,,,,,604676dbcf412f053df7d365,62c53a275c86ebf78e75a7cb,2022-07-06_08h31.07.824,Colour_Asymmetry_Pilot,2022.1.3,Win32,30.00120005,62c50e9c1127f2cd403a315f,0,117,117,40,1,onetwo
,,,,,,604676dbcf412f053df7d365,62c53a275c86ebf78e75a7cb,2022-07-06_08h31.07.824,Colour_Asymmetry_Pilot,2022.1.3,Win32,30.00120005,62c50e9c1127f2cd403a315f,0,118,118,81,1,onethree
,,,,,,604676dbcf412f053df7d365,62c53a275c86ebf78e75a7cb,2022-07-06_08h31.07.824,Colour_Asymmetry_Pilot,2022.1.3,Win32,30.00120005,62c50e9c1127f2cd403a315f,0,119,119,10,1,twoone
,,,,,,604676dbcf412f053df7d365,62c53a275c86ebf78e75a7cb,2022-07-06_08h31.07.824,Colour_Asymmetry_Pilot,2022.1.3,Win32,30.00120005,62c50e9c1127f2cd403a315f,0,120,120,79,1,fourthree
,,,,,,604676dbcf412f053df7d365,62c53a275c86ebf78e75a7cb,2022-07-06_08h31.07.824,Colour_Asymmetry_Pilot,2022.1.3,Win32,30.00120005,62c50e9c1127f2cd403a315f,0,121,121,150,1,fourtwo
,,,,,,604676dbcf412f053df7d365,62c53a275c86ebf78e75a7cb,2022-07-06_08h31.07.824,Colour_Asymmetry_Pilot,2022.1.3,Win32,30.00120005,62c50e9c1127f2cd403a315f,0,122,122,17,1,onethree
,,,,,,604676dbcf412f053df7d365,62c53a275c86ebf78e75a7cb,2022-07-06_08h31.07.824,Colour_Asymmetry_Pilot,2022.1.3,Win32,30.00120005,62c50e9c1127f2cd403a315f,0,123,123,1,1,onethree
,,,,,,604676dbcf412f053df7d365,62c53a275c86ebf78e75a7cb,2022-07-06_08h31.07.824,Colour_Asymmetry_Pilot,2022.1.3,Win32,30.00120005,62c50e9c1127f2cd403a315f,0,124,124,111,1,fourthree
,,,,,,604676dbcf412f053df7d365,62c53a275c86ebf78e75a7cb,2022-07-06_08h31.07.824,Colour_Asymmetry_Pilot,2022.1.3,Win32,30.00120005,62c50e9c1127f2cd403a315f,0,125,125,23,1,fourthree
,,,,,,604676dbcf412f053df7d365,62c53a275c86ebf78e75a7cb,2022-07-06_08h31.07.824,Colour_Asymmetry_Pilot,2022.1.3,Win32,30.00120005,62c50e9c1127f2cd403a315f,0,126,126,97,1,onethree
,,,,,,604676dbcf412f053df7d365,62c53a275c86ebf78e75a7cb,2022-07-06_08h31.07.824,Colour_Asymmetry_Pilot,2022.1.3,Win32,30.00120005,62c50e9c1127f2cd403a315f,0,127,127,115,1,twofour
,,,,,,604676dbcf412f053df7d365,62c53a275c86ebf78e75a7cb,2022-07-06_08h31.07.824,Colour_Asymmetry_Pilot,2022.1.3,Win32,30.00120005,62c50e9c1127f2cd403a315f,0,128,128,114,1,twoone
,,,,,,604676dbcf412f053df7d365,62c53a275c86ebf78e75a7cb,2022-07-06_08h31.07.824,Colour_Asymmetry_Pilot,2022.1.3,Win32,30.00120005,62c50e9c1127f2cd403a315f,0,129,129,69,1,threefour
,,,,,,604676dbcf412f053df7d365,62c53a275c86ebf78e75a7cb,2022-07-06_08h31.07.824,Colour_Asymmetry_Pilot,2022.1.3,Win32,30.00120005,62c50e9c1127f2cd403a315f,0,130,130,56,1,onetwo
,,,,,,604676dbcf412f053df7d365,62c53a275c86ebf78e75a7cb,2022-07-06_08h31.07.824,Colour_Asymmetry_Pilot,2022.1.3,Win32,30.00120005,62c50e9c1127f2cd403a315f,0,131,131,47,1,fourthree
,,,,,,604676dbcf412f053df7d365,62c53a275c86ebf78e75a7cb,2022-07-06_08h31.07.824,Colour_Asymmetry_Pilot,2022.1.3,Win32,30.00120005,62c50e9c1127f2cd403a315f,0,132,132,130,1,twoone
,,,,,,604676dbcf412f053df7d365,62c53a275c86ebf78e75a7cb,2022-07-06_08h31.07.824,Colour_Asymmetry_Pilot,2022.1.3,Win32,30.00120005,62c50e9c1127f2cd403a315f,0,133,133,151,1,fourthree
,,,,,,604676dbcf412f053df7d365,62c53a275c86ebf78e75a7cb,2022-07-06_08h31.07.824,Colour_Asymmetry_Pilot,2022.1.3,Win32,30.00120005,62c50e9c1127f2cd403a315f,0,134,134,112,1,onetwo
,,,,,,604676dbcf412f053df7d365,62c53a275c86ebf78e75a7cb,2022-07-06_08h31.07.824,Colour_Asymmetry_Pilot,2022.1.3,Win32,30.00120005,62c50e9c1127f2cd403a315f,0,135,135,59,1,twofour
,,,,,,604676dbcf412f053df7d365,62c53a275c86ebf78e75a7cb,2022-07-06_08h31.07.824,Colour_Asymmetry_Pilot,2022.1.3,Win32,30.00120005,62c50e9c1127f2cd403a315f,0,136,136,73,1,onethree
,,,,,,604676dbcf412f053df7d365,62c53a275c86ebf78e75a7cb,2022-07-06_08h31.07.824,Colour_Asymmetry_Pilot,2022.1.3,Win32,30.00120005,62c50e9c1127f2cd403a315f,0,137,137,101,1,threefour
,,,,,,604676dbcf412f053df7d365,62c53a275c86ebf78e75a7cb,2022-07-06_08h31.07.824,Colour_Asymmetry_Pilot,2022.1.3,Win32,30.00120005,62c50e9c1127f2cd403a315f,0,138,138,135,1,fourthree
,,,,,,604676dbcf412f053df7d365,62c53a275c86ebf78e75a7cb,2022-07-06_08h31.07.824,Colour_Asymmetry_Pilot,2022.1.3,Win32,30.00120005,62c50e9c1127f2cd403a315f,0,139,139,138,1,twoone
,,,,,,604676dbcf412f053df7d365,62c53a275c86ebf78e75a7cb,2022-07-06_08h31.07.824,Colour_Asymmetry_Pilot,2022.1.3,Win32,30.00120005,62c50e9c1127f2cd403a315f,0,140,140,45,1,threefour
,,,,,,604676dbcf412f053df7d365,62c53a275c86ebf78e75a7cb,2022-07-06_08h31.07.824,Colour_Asymmetry_Pilot,2022.1.3,Win32,30.00120005,62c50e9c1127f2cd403a315f,0,141,141,123,1,twofour
,,,,,,604676dbcf412f053df7d365,62c53a275c86ebf78e75a7cb,2022-07-06_08h31.07.824,Colour_Asymmetry_Pilot,2022.1.3,Win32,30.00120005,62c50e9c1127f2cd403a315f,0,142,142,35,1,twofour
,,,,,,604676dbcf412f053df7d365,62c53a275c86ebf78e75a7cb,2022-07-06_08h31.07.824,Colour_Asymmetry_Pilot,2022.1.3,Win32,30.00120005,62c50e9c1127f2cd403a315f,0,143,143,159,1,fourthree
,,,,,,604676dbcf412f053df7d365,62c53a275c86ebf78e75a7cb,2022-07-06_08h31.07.824,Colour_Asymmetry_Pilot,2022.1.3,Win32,30.00120005,62c50e9c1127f2cd403a315f,0,144,144,51,1,twofour
,,,,,,604676dbcf412f053df7d365,62c53a275c86ebf78e75a7cb,2022-07-06_08h31.07.824,Colour_Asymmetry_Pilot,2022.1.3,Win32,30.00120005,62c50e9c1127f2cd403a315f,0,145,145,52,1,threeone
,,,,,,604676dbcf412f053df7d365,62c53a275c86ebf78e75a7cb,2022-07-06_08h31.07.824,Colour_Asymmetry_Pilot,2022.1.3,Win32,30.00120005,62c50e9c1127f2cd403a315f,0,146,146,99,1,twofour
,,,,,,604676dbcf412f053df7d365,62c53a275c86ebf78e75a7cb,2022-07-06_08h31.07.824,Colour_Asymmetry_Pilot,2022.1.3,Win32,30.00120005,62c50e9c1127f2cd403a315f,0,147,147,8,1,onetwo
,,,,,,604676dbcf412f053df7d365,62c53a275c86ebf78e75a7cb,2022-07-06_08h31.07.824,Colour_Asymmetry_Pilot,2022.1.3,Win32,30.00120005,62c50e9c1127f2cd403a315f,0,148,148,83,1,twofour
,,,,,,604676dbcf412f053df7d365,62c53a275c86ebf78e75a7cb,2022-07-06_08h31.07.824,Colour_Asymmetry_Pilot,2022.1.3,Win32,30.00120005,62c50e9c1127f2cd403a315f,0,149,149,74,1,twoone
,,,,,,604676dbcf412f053df7d365,62c53a275c86ebf78e75a7cb,2022-07-06_08h31.07.824,Colour_Asymmetry_Pilot,2022.1.3,Win32,30.00120005,62c50e9c1127f2cd403a315f,0,150,150,22,1,fourtwo
,,,,,,604676dbcf412f053df7d365,62c53a275c86ebf78e75a7cb,2022-07-06_08h31.07.824,Colour_Asymmetry_Pilot,2022.1.3,Win32,30.00120005,62c50e9c1127f2cd403a315f,0,151,151,44,1,threeone
,,,,,,604676dbcf412f053df7d365,62c53a275c86ebf78e75a7cb,2022-07-06_08h31.07.824,Colour_Asymmetry_Pilot,2022.1.3,Win32,30.00120005,62c50e9c1127f2cd403a315f,0,152,152,156,1,threeone
,,,,,,604676dbcf412f053df7d365,62c53a275c86ebf78e75a7cb,2022-07-06_08h31.07.824,Colour_Asymmetry_Pilot,2022.1.3,Win32,30.00120005,62c50e9c1127f2cd403a315f,0,153,153,155,1,twofour
,,,,,,604676dbcf412f053df7d365,62c53a275c86ebf78e75a7cb,2022-07-06_08h31.07.824,Colour_Asymmetry_Pilot,2022.1.3,Win32,30.00120005,62c50e9c1127f2cd403a315f,0,154,154,143,1,fourthree
,,,,,,604676dbcf412f053df7d365,62c53a275c86ebf78e75a7cb,2022-07-06_08h31.07.824,Colour_Asymmetry_Pilot,2022.1.3,Win32,30.00120005,62c50e9c1127f2cd403a315f,0,155,155,48,1,onetwo
,,,,,,604676dbcf412f053df7d365,62c53a275c86ebf78e75a7cb,2022-07-06_08h31.07.824,Colour_Asymmetry_Pilot,2022.1.3,Win32,30.00120005,62c50e9c1127f2cd403a315f,0,156,156,148,1,threeone
,,,,,,604676dbcf412f053df7d365,62c53a275c86ebf78e75a7cb,2022-07-06_08h31.07.824,Colour_Asymmetry_Pilot,2022.1.3,Win32,30.00120005,62c50e9c1127f2cd403a315f,0,157,157,92,1,threeone
,,,,,,604676dbcf412f053df7d365,62c53a275c86ebf78e75a7cb,2022-07-06_08h31.07.824,Colour_Asymmetry_Pilot,2022.1.3,Win32,30.00120005,62c50e9c1127f2cd403a315f,0,158,158,18,1,twoone
,,,,,,604676dbcf412f053df7d365,62c53a275c86ebf78e75a7cb,2022-07-06_08h31.07.824,Colour_Asymmetry_Pilot,2022.1.3,Win32,30.00120005,62c50e9c1127f2cd403a315f,0,159,159,119,1,fourthree
,,,,,,604676dbcf412f053df7d365,62c53a275c86ebf78e75a7cb,2022-07-06_08h31.07.824,Colour_Asymmetry_Pilot,2022.1.3,Win32,30.00120005,62c50e9c1127f2cd403a315f,0,160,160,0,1,onetwo
,,,,,,604676dbcf412f053df7d365,62c53a275c86ebf78e75a7cb,2022-07-06_08h31.07.824,Colour_Asymmetry_Pilot,2022.1.3,Win32,30.00120005,62c50e9c1127f2cd403a315f,0,161,161,42,1,twoone
