trials.thisRepN,trials.thisTrialN,trials.thisN,trials.thisIndex,trials.ran,Colourcodes,participant,session,date,expName,psychopyVersion,OS,frameRate,study_id,trials_4.thisRepN,trials_4.thisTrialN,trials_4.thisN,trials_4.thisIndex,trials_4.ran,StimulusPos,key_resp.keys,key_resp.rt,key_resp_2.keys,key_resp_2.rt,key_resp_15.keys,key_resp_15.rt,key_resp_17.keys,key_resp_17.rt,key_resp_9.keys,key_resp_9.rt,key_resp_10.keys,key_resp_10.rt,Circle1_col,Ecc,Circle2_col,similarity,response_time,mouse_5.x,mouse_5.y,mouse_5.leftButton,mouse_5.midButton,mouse_5.rightButton,mouse_5.clicked_name,mouse_10.x,mouse_10.y,mouse_10.leftButton,mouse_10.midButton,mouse_10.rightButton,mouse_10.clicked_name,mouse_7.x,mouse_7.y,mouse_7.leftButton,mouse_7.midButton,mouse_7.rightButton,catchnumberprac,mouse_6.x,mouse_6.y,mouse_6.leftButton,mouse_6.midButton,mouse_6.rightButton,duringprac.thisRepN,duringprac.thisTrialN,duringprac.thisN,duringprac.thisIndex,duringprac.ran
0,0,0,60,1,,5ec24766fd704d00089a80af,62c53a2e15d6bf4157b6b512,2022-07-06_10h35.24.056,Colour_Asymmetry_Pilot,2022.1.3,Win32,60.03121623,62c50e9c1127f2cd403a315f,,,,,,,,,,,,,,,,,,,,,,,,,,,,,,,,,,,,,,,,,,,,,,,,,,,
0,1,1,52,1,,5ec24766fd704d00089a80af,62c53a2e15d6bf4157b6b512,2022-07-06_10h35.24.056,Colour_Asymmetry_Pilot,2022.1.3,Win32,60.03121623,62c50e9c1127f2cd403a315f,,,,,,,,,,,,,,,,,,,,,,,,,,,,,,,,,,,,,,,,,,,,,,,,,,,
0,2,2,7,1,,5ec24766fd704d00089a80af,62c53a2e15d6bf4157b6b512,2022-07-06_10h35.24.056,Colour_Asymmetry_Pilot,2022.1.3,Win32,60.03121623,62c50e9c1127f2cd403a315f,,,,,,,,,,,,,,,,,,,,,,,,,,,,,,,,,,,,,,,,,,,,,,,,,,,
0,3,3,27,1,,5ec24766fd704d00089a80af,62c53a2e15d6bf4157b6b512,2022-07-06_10h35.24.056,Colour_Asymmetry_Pilot,2022.1.3,Win32,60.03121623,62c50e9c1127f2cd403a315f,,,,,,,,,,,,,,,,,,,,,,,,,,,,,,,,,,,,,,,,,,,,,,,,,,,
0,4,4,36,1,,5ec24766fd704d00089a80af,62c53a2e15d6bf4157b6b512,2022-07-06_10h35.24.056,Colour_Asymmetry_Pilot,2022.1.3,Win32,60.03121623,62c50e9c1127f2cd403a315f,,,,,,,,,,,,,,,,,,,,,,,,,,,,,,,,,,,,,,,,,,,,,,,,,,,
0,5,5,40,1,,5ec24766fd704d00089a80af,62c53a2e15d6bf4157b6b512,2022-07-06_10h35.24.056,Colour_Asymmetry_Pilot,2022.1.3,Win32,60.03121623,62c50e9c1127f2cd403a315f,,,,,,,,,,,,,,,,,,,,,,,,,,,,,,,,,,,,,,,,,,,,,,,,,,,
0,6,6,87,1,,5ec24766fd704d00089a80af,62c53a2e15d6bf4157b6b512,2022-07-06_10h35.24.056,Colour_Asymmetry_Pilot,2022.1.3,Win32,60.03121623,62c50e9c1127f2cd403a315f,,,,,,,,,,,,,,,,,,,,,,,,,,,,,,,,,,,,,,,,,,,,,,,,,,,
0,7,7,38,1,,5ec24766fd704d00089a80af,62c53a2e15d6bf4157b6b512,2022-07-06_10h35.24.056,Colour_Asymmetry_Pilot,2022.1.3,Win32,60.03121623,62c50e9c1127f2cd403a315f,,,,,,,,,,,,,,,,,,,,,,,,,,,,,,,,,,,,,,,,,,,,,,,,,,,
0,8,8,47,1,,5ec24766fd704d00089a80af,62c53a2e15d6bf4157b6b512,2022-07-06_10h35.24.056,Colour_Asymmetry_Pilot,2022.1.3,Win32,60.03121623,62c50e9c1127f2cd403a315f,,,,,,,,,,,,,,,,,,,,,,,,,,,,,,,,,,,,,,,,,,,,,,,,,,,
0,9,9,5,1,,5ec24766fd704d00089a80af,62c53a2e15d6bf4157b6b512,2022-07-06_10h35.24.056,Colour_Asymmetry_Pilot,2022.1.3,Win32,60.03121623,62c50e9c1127f2cd403a315f,,,,,,,,,,,,,,,,,,,,,,,,,,,,,,,,,,,,,,,,,,,,,,,,,,,
0,10,10,42,1,,5ec24766fd704d00089a80af,62c53a2e15d6bf4157b6b512,2022-07-06_10h35.24.056,Colour_Asymmetry_Pilot,2022.1.3,Win32,60.03121623,62c50e9c1127f2cd403a315f,,,,,,,,,,,,,,,,,,,,,,,,,,,,,,,,,,,,,,,,,,,,,,,,,,,
0,11,11,49,1,,5ec24766fd704d00089a80af,62c53a2e15d6bf4157b6b512,2022-07-06_10h35.24.056,Colour_Asymmetry_Pilot,2022.1.3,Win32,60.03121623,62c50e9c1127f2cd403a315f,,,,,,,,,,,,,,,,,,,,,,,,,,,,,,,,,,,,,,,,,,,,,,,,,,,
0,12,12,74,1,,5ec24766fd704d00089a80af,62c53a2e15d6bf4157b6b512,2022-07-06_10h35.24.056,Colour_Asymmetry_Pilot,2022.1.3,Win32,60.03121623,62c50e9c1127f2cd403a315f,,,,,,,,,,,,,,,,,,,,,,,,,,,,,,,,,,,,,,,,,,,,,,,,,,,
0,13,13,14,1,,5ec24766fd704d00089a80af,62c53a2e15d6bf4157b6b512,2022-07-06_10h35.24.056,Colour_Asymmetry_Pilot,2022.1.3,Win32,60.03121623,62c50e9c1127f2cd403a315f,,,,,,,,,,,,,,,,,,,,,,,,,,,,,,,,,,,,,,,,,,,,,,,,,,,
0,14,14,33,1,,5ec24766fd704d00089a80af,62c53a2e15d6bf4157b6b512,2022-07-06_10h35.24.056,Colour_Asymmetry_Pilot,2022.1.3,Win32,60.03121623,62c50e9c1127f2cd403a315f,,,,,,,,,,,,,,,,,,,,,,,,,,,,,,,,,,,,,,,,,,,,,,,,,,,
0,15,15,4,1,,5ec24766fd704d00089a80af,62c53a2e15d6bf4157b6b512,2022-07-06_10h35.24.056,Colour_Asymmetry_Pilot,2022.1.3,Win32,60.03121623,62c50e9c1127f2cd403a315f,,,,,,,,,,,,,,,,,,,,,,,,,,,,,,,,,,,,,,,,,,,,,,,,,,,
0,16,16,11,1,,5ec24766fd704d00089a80af,62c53a2e15d6bf4157b6b512,2022-07-06_10h35.24.056,Colour_Asymmetry_Pilot,2022.1.3,Win32,60.03121623,62c50e9c1127f2cd403a315f,,,,,,,,,,,,,,,,,,,,,,,,,,,,,,,,,,,,,,,,,,,,,,,,,,,
0,17,17,28,1,,5ec24766fd704d00089a80af,62c53a2e15d6bf4157b6b512,2022-07-06_10h35.24.056,Colour_Asymmetry_Pilot,2022.1.3,Win32,60.03121623,62c50e9c1127f2cd403a315f,,,,,,,,,,,,,,,,,,,,,,,,,,,,,,,,,,,,,,,,,,,,,,,,,,,
0,18,18,37,1,,5ec24766fd704d00089a80af,62c53a2e15d6bf4157b6b512,2022-07-06_10h35.24.056,Colour_Asymmetry_Pilot,2022.1.3,Win32,60.03121623,62c50e9c1127f2cd403a315f,,,,,,,,,,,,,,,,,,,,,,,,,,,,,,,,,,,,,,,,,,,,,,,,,,,
0,19,19,91,1,,5ec24766fd704d00089a80af,62c53a2e15d6bf4157b6b512,2022-07-06_10h35.24.056,Colour_Asymmetry_Pilot,2022.1.3,Win32,60.03121623,62c50e9c1127f2cd403a315f,,,,,,,,,,,,,,,,,,,,,,,,,,,,,,,,,,,,,,,,,,,,,,,,,,,
0,20,20,61,1,,5ec24766fd704d00089a80af,62c53a2e15d6bf4157b6b512,2022-07-06_10h35.24.056,Colour_Asymmetry_Pilot,2022.1.3,Win32,60.03121623,62c50e9c1127f2cd403a315f,,,,,,,,,,,,,,,,,,,,,,,,,,,,,,,,,,,,,,,,,,,,,,,,,,,
0,21,21,68,1,,5ec24766fd704d00089a80af,62c53a2e15d6bf4157b6b512,2022-07-06_10h35.24.056,Colour_Asymmetry_Pilot,2022.1.3,Win32,60.03121623,62c50e9c1127f2cd403a315f,,,,,,,,,,,,,,,,,,,,,,,,,,,,,,,,,,,,,,,,,,,,,,,,,,,
0,22,22,3,1,,5ec24766fd704d00089a80af,62c53a2e15d6bf4157b6b512,2022-07-06_10h35.24.056,Colour_Asymmetry_Pilot,2022.1.3,Win32,60.03121623,62c50e9c1127f2cd403a315f,,,,,,,,,,,,,,,,,,,,,,,,,,,,,,,,,,,,,,,,,,,,,,,,,,,
0,23,23,32,1,,5ec24766fd704d00089a80af,62c53a2e15d6bf4157b6b512,2022-07-06_10h35.24.056,Colour_Asymmetry_Pilot,2022.1.3,Win32,60.03121623,62c50e9c1127f2cd403a315f,,,,,,,,,,,,,,,,,,,,,,,,,,,,,,,,,,,,,,,,,,,,,,,,,,,
0,24,24,18,1,,5ec24766fd704d00089a80af,62c53a2e15d6bf4157b6b512,2022-07-06_10h35.24.056,Colour_Asymmetry_Pilot,2022.1.3,Win32,60.03121623,62c50e9c1127f2cd403a315f,,,,,,,,,,,,,,,,,,,,,,,,,,,,,,,,,,,,,,,,,,,,,,,,,,,
0,25,25,6,1,,5ec24766fd704d00089a80af,62c53a2e15d6bf4157b6b512,2022-07-06_10h35.24.056,Colour_Asymmetry_Pilot,2022.1.3,Win32,60.03121623,62c50e9c1127f2cd403a315f,,,,,,,,,,,,,,,,,,,,,,,,,,,,,,,,,,,,,,,,,,,,,,,,,,,
0,26,26,78,1,,5ec24766fd704d00089a80af,62c53a2e15d6bf4157b6b512,2022-07-06_10h35.24.056,Colour_Asymmetry_Pilot,2022.1.3,Win32,60.03121623,62c50e9c1127f2cd403a315f,,,,,,,,,,,,,,,,,,,,,,,,,,,,,,,,,,,,,,,,,,,,,,,,,,,
0,27,27,72,1,,5ec24766fd704d00089a80af,62c53a2e15d6bf4157b6b512,2022-07-06_10h35.24.056,Colour_Asymmetry_Pilot,2022.1.3,Win32,60.03121623,62c50e9c1127f2cd403a315f,,,,,,,,,,,,,,,,,,,,,,,,,,,,,,,,,,,,,,,,,,,,,,,,,,,
0,28,28,9,1,,5ec24766fd704d00089a80af,62c53a2e15d6bf4157b6b512,2022-07-06_10h35.24.056,Colour_Asymmetry_Pilot,2022.1.3,Win32,60.03121623,62c50e9c1127f2cd403a315f,,,,,,,,,,,,,,,,,,,,,,,,,,,,,,,,,,,,,,,,,,,,,,,,,,,
0,29,29,59,1,,5ec24766fd704d00089a80af,62c53a2e15d6bf4157b6b512,2022-07-06_10h35.24.056,Colour_Asymmetry_Pilot,2022.1.3,Win32,60.03121623,62c50e9c1127f2cd403a315f,,,,,,,,,,,,,,,,,,,,,,,,,,,,,,,,,,,,,,,,,,,,,,,,,,,
0,30,30,31,1,,5ec24766fd704d00089a80af,62c53a2e15d6bf4157b6b512,2022-07-06_10h35.24.056,Colour_Asymmetry_Pilot,2022.1.3,Win32,60.03121623,62c50e9c1127f2cd403a315f,,,,,,,,,,,,,,,,,,,,,,,,,,,,,,,,,,,,,,,,,,,,,,,,,,,
0,31,31,83,1,,5ec24766fd704d00089a80af,62c53a2e15d6bf4157b6b512,2022-07-06_10h35.24.056,Colour_Asymmetry_Pilot,2022.1.3,Win32,60.03121623,62c50e9c1127f2cd403a315f,,,,,,,,,,,,,,,,,,,,,,,,,,,,,,,,,,,,,,,,,,,,,,,,,,,
0,32,32,57,1,,5ec24766fd704d00089a80af,62c53a2e15d6bf4157b6b512,2022-07-06_10h35.24.056,Colour_Asymmetry_Pilot,2022.1.3,Win32,60.03121623,62c50e9c1127f2cd403a315f,,,,,,,,,,,,,,,,,,,,,,,,,,,,,,,,,,,,,,,,,,,,,,,,,,,
0,33,33,84,1,,5ec24766fd704d00089a80af,62c53a2e15d6bf4157b6b512,2022-07-06_10h35.24.056,Colour_Asymmetry_Pilot,2022.1.3,Win32,60.03121623,62c50e9c1127f2cd403a315f,,,,,,,,,,,,,,,,,,,,,,,,,,,,,,,,,,,,,,,,,,,,,,,,,,,
0,34,34,45,1,,5ec24766fd704d00089a80af,62c53a2e15d6bf4157b6b512,2022-07-06_10h35.24.056,Colour_Asymmetry_Pilot,2022.1.3,Win32,60.03121623,62c50e9c1127f2cd403a315f,,,,,,,,,,,,,,,,,,,,,,,,,,,,,,,,,,,,,,,,,,,,,,,,,,,
0,35,35,75,1,,5ec24766fd704d00089a80af,62c53a2e15d6bf4157b6b512,2022-07-06_10h35.24.056,Colour_Asymmetry_Pilot,2022.1.3,Win32,60.03121623,62c50e9c1127f2cd403a315f,,,,,,,,,,,,,,,,,,,,,,,,,,,,,,,,,,,,,,,,,,,,,,,,,,,
0,36,36,56,1,,5ec24766fd704d00089a80af,62c53a2e15d6bf4157b6b512,2022-07-06_10h35.24.056,Colour_Asymmetry_Pilot,2022.1.3,Win32,60.03121623,62c50e9c1127f2cd403a315f,,,,,,,,,,,,,,,,,,,,,,,,,,,,,,,,,,,,,,,,,,,,,,,,,,,
0,37,37,44,1,,5ec24766fd704d00089a80af,62c53a2e15d6bf4157b6b512,2022-07-06_10h35.24.056,Colour_Asymmetry_Pilot,2022.1.3,Win32,60.03121623,62c50e9c1127f2cd403a315f,,,,,,,,,,,,,,,,,,,,,,,,,,,,,,,,,,,,,,,,,,,,,,,,,,,
0,38,38,51,1,,5ec24766fd704d00089a80af,62c53a2e15d6bf4157b6b512,2022-07-06_10h35.24.056,Colour_Asymmetry_Pilot,2022.1.3,Win32,60.03121623,62c50e9c1127f2cd403a315f,,,,,,,,,,,,,,,,,,,,,,,,,,,,,,,,,,,,,,,,,,,,,,,,,,,
0,39,39,8,1,,5ec24766fd704d00089a80af,62c53a2e15d6bf4157b6b512,2022-07-06_10h35.24.056,Colour_Asymmetry_Pilot,2022.1.3,Win32,60.03121623,62c50e9c1127f2cd403a315f,,,,,,,,,,,,,,,,,,,,,,,,,,,,,,,,,,,,,,,,,,,,,,,,,,,
0,40,40,81,1,,5ec24766fd704d00089a80af,62c53a2e15d6bf4157b6b512,2022-07-06_10h35.24.056,Colour_Asymmetry_Pilot,2022.1.3,Win32,60.03121623,62c50e9c1127f2cd403a315f,,,,,,,,,,,,,,,,,,,,,,,,,,,,,,,,,,,,,,,,,,,,,,,,,,,
0,41,41,46,1,,5ec24766fd704d00089a80af,62c53a2e15d6bf4157b6b512,2022-07-06_10h35.24.056,Colour_Asymmetry_Pilot,2022.1.3,Win32,60.03121623,62c50e9c1127f2cd403a315f,,,,,,,,,,,,,,,,,,,,,,,,,,,,,,,,,,,,,,,,,,,,,,,,,,,
0,42,42,16,1,,5ec24766fd704d00089a80af,62c53a2e15d6bf4157b6b512,2022-07-06_10h35.24.056,Colour_Asymmetry_Pilot,2022.1.3,Win32,60.03121623,62c50e9c1127f2cd403a315f,,,,,,,,,,,,,,,,,,,,,,,,,,,,,,,,,,,,,,,,,,,,,,,,,,,
0,43,43,34,1,,5ec24766fd704d00089a80af,62c53a2e15d6bf4157b6b512,2022-07-06_10h35.24.056,Colour_Asymmetry_Pilot,2022.1.3,Win32,60.03121623,62c50e9c1127f2cd403a315f,,,,,,,,,,,,,,,,,,,,,,,,,,,,,,,,,,,,,,,,,,,,,,,,,,,
0,44,44,82,1,,5ec24766fd704d00089a80af,62c53a2e15d6bf4157b6b512,2022-07-06_10h35.24.056,Colour_Asymmetry_Pilot,2022.1.3,Win32,60.03121623,62c50e9c1127f2cd403a315f,,,,,,,,,,,,,,,,,,,,,,,,,,,,,,,,,,,,,,,,,,,,,,,,,,,
0,45,45,64,1,,5ec24766fd704d00089a80af,62c53a2e15d6bf4157b6b512,2022-07-06_10h35.24.056,Colour_Asymmetry_Pilot,2022.1.3,Win32,60.03121623,62c50e9c1127f2cd403a315f,,,,,,,,,,,,,,,,,,,,,,,,,,,,,,,,,,,,,,,,,,,,,,,,,,,
0,46,46,29,1,,5ec24766fd704d00089a80af,62c53a2e15d6bf4157b6b512,2022-07-06_10h35.24.056,Colour_Asymmetry_Pilot,2022.1.3,Win32,60.03121623,62c50e9c1127f2cd403a315f,,,,,,,,,,,,,,,,,,,,,,,,,,,,,,,,,,,,,,,,,,,,,,,,,,,
0,47,47,55,1,,5ec24766fd704d00089a80af,62c53a2e15d6bf4157b6b512,2022-07-06_10h35.24.056,Colour_Asymmetry_Pilot,2022.1.3,Win32,60.03121623,62c50e9c1127f2cd403a315f,,,,,,,,,,,,,,,,,,,,,,,,,,,,,,,,,,,,,,,,,,,,,,,,,,,
0,48,48,70,1,,5ec24766fd704d00089a80af,62c53a2e15d6bf4157b6b512,2022-07-06_10h35.24.056,Colour_Asymmetry_Pilot,2022.1.3,Win32,60.03121623,62c50e9c1127f2cd403a315f,,,,,,,,,,,,,,,,,,,,,,,,,,,,,,,,,,,,,,,,,,,,,,,,,,,
0,49,49,76,1,,5ec24766fd704d00089a80af,62c53a2e15d6bf4157b6b512,2022-07-06_10h35.24.056,Colour_Asymmetry_Pilot,2022.1.3,Win32,60.03121623,62c50e9c1127f2cd403a315f,,,,,,,,,,,,,,,,,,,,,,,,,,,,,,,,,,,,,,,,,,,,,,,,,,,
0,50,50,17,1,,5ec24766fd704d00089a80af,62c53a2e15d6bf4157b6b512,2022-07-06_10h35.24.056,Colour_Asymmetry_Pilot,2022.1.3,Win32,60.03121623,62c50e9c1127f2cd403a315f,,,,,,,,,,,,,,,,,,,,,,,,,,,,,,,,,,,,,,,,,,,,,,,,,,,
0,51,51,22,1,,5ec24766fd704d00089a80af,62c53a2e15d6bf4157b6b512,2022-07-06_10h35.24.056,Colour_Asymmetry_Pilot,2022.1.3,Win32,60.03121623,62c50e9c1127f2cd403a315f,,,,,,,,,,,,,,,,,,,,,,,,,,,,,,,,,,,,,,,,,,,,,,,,,,,
0,52,52,53,1,,5ec24766fd704d00089a80af,62c53a2e15d6bf4157b6b512,2022-07-06_10h35.24.056,Colour_Asymmetry_Pilot,2022.1.3,Win32,60.03121623,62c50e9c1127f2cd403a315f,,,,,,,,,,,,,,,,,,,,,,,,,,,,,,,,,,,,,,,,,,,,,,,,,,,
0,53,53,67,1,,5ec24766fd704d00089a80af,62c53a2e15d6bf4157b6b512,2022-07-06_10h35.24.056,Colour_Asymmetry_Pilot,2022.1.3,Win32,60.03121623,62c50e9c1127f2cd403a315f,,,,,,,,,,,,,,,,,,,,,,,,,,,,,,,,,,,,,,,,,,,,,,,,,,,
0,54,54,12,1,,5ec24766fd704d00089a80af,62c53a2e15d6bf4157b6b512,2022-07-06_10h35.24.056,Colour_Asymmetry_Pilot,2022.1.3,Win32,60.03121623,62c50e9c1127f2cd403a315f,,,,,,,,,,,,,,,,,,,,,,,,,,,,,,,,,,,,,,,,,,,,,,,,,,,
0,55,55,39,1,,5ec24766fd704d00089a80af,62c53a2e15d6bf4157b6b512,2022-07-06_10h35.24.056,Colour_Asymmetry_Pilot,2022.1.3,Win32,60.03121623,62c50e9c1127f2cd403a315f,,,,,,,,,,,,,,,,,,,,,,,,,,,,,,,,,,,,,,,,,,,,,,,,,,,
0,56,56,2,1,,5ec24766fd704d00089a80af,62c53a2e15d6bf4157b6b512,2022-07-06_10h35.24.056,Colour_Asymmetry_Pilot,2022.1.3,Win32,60.03121623,62c50e9c1127f2cd403a315f,,,,,,,,,,,,,,,,,,,,,,,,,,,,,,,,,,,,,,,,,,,,,,,,,,,
0,57,57,23,1,,5ec24766fd704d00089a80af,62c53a2e15d6bf4157b6b512,2022-07-06_10h35.24.056,Colour_Asymmetry_Pilot,2022.1.3,Win32,60.03121623,62c50e9c1127f2cd403a315f,,,,,,,,,,,,,,,,,,,,,,,,,,,,,,,,,,,,,,,,,,,,,,,,,,,
0,58,58,30,1,,5ec24766fd704d00089a80af,62c53a2e15d6bf4157b6b512,2022-07-06_10h35.24.056,Colour_Asymmetry_Pilot,2022.1.3,Win32,60.03121623,62c50e9c1127f2cd403a315f,,,,,,,,,,,,,,,,,,,,,,,,,,,,,,,,,,,,,,,,,,,,,,,,,,,
0,59,59,73,1,,5ec24766fd704d00089a80af,62c53a2e15d6bf4157b6b512,2022-07-06_10h35.24.056,Colour_Asymmetry_Pilot,2022.1.3,Win32,60.03121623,62c50e9c1127f2cd403a315f,,,,,,,,,,,,,,,,,,,,,,,,,,,,,,,,,,,,,,,,,,,,,,,,,,,
0,60,60,79,1,,5ec24766fd704d00089a80af,62c53a2e15d6bf4157b6b512,2022-07-06_10h35.24.056,Colour_Asymmetry_Pilot,2022.1.3,Win32,60.03121623,62c50e9c1127f2cd403a315f,,,,,,,,,,,,,,,,,,,,,,,,,,,,,,,,,,,,,,,,,,,,,,,,,,,
0,61,61,77,1,,5ec24766fd704d00089a80af,62c53a2e15d6bf4157b6b512,2022-07-06_10h35.24.056,Colour_Asymmetry_Pilot,2022.1.3,Win32,60.03121623,62c50e9c1127f2cd403a315f,,,,,,,,,,,,,,,,,,,,,,,,,,,,,,,,,,,,,,,,,,,,,,,,,,,
0,62,62,88,1,,5ec24766fd704d00089a80af,62c53a2e15d6bf4157b6b512,2022-07-06_10h35.24.056,Colour_Asymmetry_Pilot,2022.1.3,Win32,60.03121623,62c50e9c1127f2cd403a315f,,,,,,,,,,,,,,,,,,,,,,,,,,,,,,,,,,,,,,,,,,,,,,,,,,,
0,63,63,69,1,,5ec24766fd704d00089a80af,62c53a2e15d6bf4157b6b512,2022-07-06_10h35.24.056,Colour_Asymmetry_Pilot,2022.1.3,Win32,60.03121623,62c50e9c1127f2cd403a315f,,,,,,,,,,,,,,,,,,,,,,,,,,,,,,,,,,,,,,,,,,,,,,,,,,,
0,64,64,80,1,,5ec24766fd704d00089a80af,62c53a2e15d6bf4157b6b512,2022-07-06_10h35.24.056,Colour_Asymmetry_Pilot,2022.1.3,Win32,60.03121623,62c50e9c1127f2cd403a315f,,,,,,,,,,,,,,,,,,,,,,,,,,,,,,,,,,,,,,,,,,,,,,,,,,,
0,65,65,54,1,,5ec24766fd704d00089a80af,62c53a2e15d6bf4157b6b512,2022-07-06_10h35.24.056,Colour_Asymmetry_Pilot,2022.1.3,Win32,60.03121623,62c50e9c1127f2cd403a315f,,,,,,,,,,,,,,,,,,,,,,,,,,,,,,,,,,,,,,,,,,,,,,,,,,,
0,66,66,71,1,,5ec24766fd704d00089a80af,62c53a2e15d6bf4157b6b512,2022-07-06_10h35.24.056,Colour_Asymmetry_Pilot,2022.1.3,Win32,60.03121623,62c50e9c1127f2cd403a315f,,,,,,,,,,,,,,,,,,,,,,,,,,,,,,,,,,,,,,,,,,,,,,,,,,,
0,67,67,41,1,,5ec24766fd704d00089a80af,62c53a2e15d6bf4157b6b512,2022-07-06_10h35.24.056,Colour_Asymmetry_Pilot,2022.1.3,Win32,60.03121623,62c50e9c1127f2cd403a315f,,,,,,,,,,,,,,,,,,,,,,,,,,,,,,,,,,,,,,,,,,,,,,,,,,,
0,68,68,1,1,,5ec24766fd704d00089a80af,62c53a2e15d6bf4157b6b512,2022-07-06_10h35.24.056,Colour_Asymmetry_Pilot,2022.1.3,Win32,60.03121623,62c50e9c1127f2cd403a315f,,,,,,,,,,,,,,,,,,,,,,,,,,,,,,,,,,,,,,,,,,,,,,,,,,,
0,69,69,25,1,,5ec24766fd704d00089a80af,62c53a2e15d6bf4157b6b512,2022-07-06_10h35.24.056,Colour_Asymmetry_Pilot,2022.1.3,Win32,60.03121623,62c50e9c1127f2cd403a315f,,,,,,,,,,,,,,,,,,,,,,,,,,,,,,,,,,,,,,,,,,,,,,,,,,,
0,70,70,90,1,,5ec24766fd704d00089a80af,62c53a2e15d6bf4157b6b512,2022-07-06_10h35.24.056,Colour_Asymmetry_Pilot,2022.1.3,Win32,60.03121623,62c50e9c1127f2cd403a315f,,,,,,,,,,,,,,,,,,,,,,,,,,,,,,,,,,,,,,,,,,,,,,,,,,,
0,71,71,26,1,,5ec24766fd704d00089a80af,62c53a2e15d6bf4157b6b512,2022-07-06_10h35.24.056,Colour_Asymmetry_Pilot,2022.1.3,Win32,60.03121623,62c50e9c1127f2cd403a315f,,,,,,,,,,,,,,,,,,,,,,,,,,,,,,,,,,,,,,,,,,,,,,,,,,,
0,72,72,20,1,,5ec24766fd704d00089a80af,62c53a2e15d6bf4157b6b512,2022-07-06_10h35.24.056,Colour_Asymmetry_Pilot,2022.1.3,Win32,60.03121623,62c50e9c1127f2cd403a315f,,,,,,,,,,,,,,,,,,,,,,,,,,,,,,,,,,,,,,,,,,,,,,,,,,,
0,73,73,85,1,,5ec24766fd704d00089a80af,62c53a2e15d6bf4157b6b512,2022-07-06_10h35.24.056,Colour_Asymmetry_Pilot,2022.1.3,Win32,60.03121623,62c50e9c1127f2cd403a315f,,,,,,,,,,,,,,,,,,,,,,,,,,,,,,,,,,,,,,,,,,,,,,,,,,,
0,74,74,62,1,,5ec24766fd704d00089a80af,62c53a2e15d6bf4157b6b512,2022-07-06_10h35.24.056,Colour_Asymmetry_Pilot,2022.1.3,Win32,60.03121623,62c50e9c1127f2cd403a315f,,,,,,,,,,,,,,,,,,,,,,,,,,,,,,,,,,,,,,,,,,,,,,,,,,,
0,75,75,50,1,,5ec24766fd704d00089a80af,62c53a2e15d6bf4157b6b512,2022-07-06_10h35.24.056,Colour_Asymmetry_Pilot,2022.1.3,Win32,60.03121623,62c50e9c1127f2cd403a315f,,,,,,,,,,,,,,,,,,,,,,,,,,,,,,,,,,,,,,,,,,,,,,,,,,,
0,76,76,48,1,,5ec24766fd704d00089a80af,62c53a2e15d6bf4157b6b512,2022-07-06_10h35.24.056,Colour_Asymmetry_Pilot,2022.1.3,Win32,60.03121623,62c50e9c1127f2cd403a315f,,,,,,,,,,,,,,,,,,,,,,,,,,,,,,,,,,,,,,,,,,,,,,,,,,,
0,77,77,86,1,,5ec24766fd704d00089a80af,62c53a2e15d6bf4157b6b512,2022-07-06_10h35.24.056,Colour_Asymmetry_Pilot,2022.1.3,Win32,60.03121623,62c50e9c1127f2cd403a315f,,,,,,,,,,,,,,,,,,,,,,,,,,,,,,,,,,,,,,,,,,,,,,,,,,,
0,78,78,92,1,,5ec24766fd704d00089a80af,62c53a2e15d6bf4157b6b512,2022-07-06_10h35.24.056,Colour_Asymmetry_Pilot,2022.1.3,Win32,60.03121623,62c50e9c1127f2cd403a315f,,,,,,,,,,,,,,,,,,,,,,,,,,,,,,,,,,,,,,,,,,,,,,,,,,,
0,79,79,58,1,,5ec24766fd704d00089a80af,62c53a2e15d6bf4157b6b512,2022-07-06_10h35.24.056,Colour_Asymmetry_Pilot,2022.1.3,Win32,60.03121623,62c50e9c1127f2cd403a315f,,,,,,,,,,,,,,,,,,,,,,,,,,,,,,,,,,,,,,,,,,,,,,,,,,,
0,80,80,89,1,,5ec24766fd704d00089a80af,62c53a2e15d6bf4157b6b512,2022-07-06_10h35.24.056,Colour_Asymmetry_Pilot,2022.1.3,Win32,60.03121623,62c50e9c1127f2cd403a315f,,,,,,,,,,,,,,,,,,,,,,,,,,,,,,,,,,,,,,,,,,,,,,,,,,,
0,81,81,63,1,,5ec24766fd704d00089a80af,62c53a2e15d6bf4157b6b512,2022-07-06_10h35.24.056,Colour_Asymmetry_Pilot,2022.1.3,Win32,60.03121623,62c50e9c1127f2cd403a315f,,,,,,,,,,,,,,,,,,,,,,,,,,,,,,,,,,,,,,,,,,,,,,,,,,,
0,82,82,0,1,,5ec24766fd704d00089a80af,62c53a2e15d6bf4157b6b512,2022-07-06_10h35.24.056,Colour_Asymmetry_Pilot,2022.1.3,Win32,60.03121623,62c50e9c1127f2cd403a315f,,,,,,,,,,,,,,,,,,,,,,,,,,,,,,,,,,,,,,,,,,,,,,,,,,,
0,83,83,10,1,,5ec24766fd704d00089a80af,62c53a2e15d6bf4157b6b512,2022-07-06_10h35.24.056,Colour_Asymmetry_Pilot,2022.1.3,Win32,60.03121623,62c50e9c1127f2cd403a315f,,,,,,,,,,,,,,,,,,,,,,,,,,,,,,,,,,,,,,,,,,,,,,,,,,,
0,84,84,13,1,,5ec24766fd704d00089a80af,62c53a2e15d6bf4157b6b512,2022-07-06_10h35.24.056,Colour_Asymmetry_Pilot,2022.1.3,Win32,60.03121623,62c50e9c1127f2cd403a315f,,,,,,,,,,,,,,,,,,,,,,,,,,,,,,,,,,,,,,,,,,,,,,,,,,,
0,85,85,24,1,,5ec24766fd704d00089a80af,62c53a2e15d6bf4157b6b512,2022-07-06_10h35.24.056,Colour_Asymmetry_Pilot,2022.1.3,Win32,60.03121623,62c50e9c1127f2cd403a315f,,,,,,,,,,,,,,,,,,,,,,,,,,,,,,,,,,,,,,,,,,,,,,,,,,,
0,86,86,65,1,,5ec24766fd704d00089a80af,62c53a2e15d6bf4157b6b512,2022-07-06_10h35.24.056,Colour_Asymmetry_Pilot,2022.1.3,Win32,60.03121623,62c50e9c1127f2cd403a315f,,,,,,,,,,,,,,,,,,,,,,,,,,,,,,,,,,,,,,,,,,,,,,,,,,,
0,87,87,19,1,,5ec24766fd704d00089a80af,62c53a2e15d6bf4157b6b512,2022-07-06_10h35.24.056,Colour_Asymmetry_Pilot,2022.1.3,Win32,60.03121623,62c50e9c1127f2cd403a315f,,,,,,,,,,,,,,,,,,,,,,,,,,,,,,,,,,,,,,,,,,,,,,,,,,,
0,88,88,15,1,,5ec24766fd704d00089a80af,62c53a2e15d6bf4157b6b512,2022-07-06_10h35.24.056,Colour_Asymmetry_Pilot,2022.1.3,Win32,60.03121623,62c50e9c1127f2cd403a315f,,,,,,,,,,,,,,,,,,,,,,,,,,,,,,,,,,,,,,,,,,,,,,,,,,,
0,89,89,43,1,,5ec24766fd704d00089a80af,62c53a2e15d6bf4157b6b512,2022-07-06_10h35.24.056,Colour_Asymmetry_Pilot,2022.1.3,Win32,60.03121623,62c50e9c1127f2cd403a315f,,,,,,,,,,,,,,,,,,,,,,,,,,,,,,,,,,,,,,,,,,,,,,,,,,,
0,90,90,21,1,,5ec24766fd704d00089a80af,62c53a2e15d6bf4157b6b512,2022-07-06_10h35.24.056,Colour_Asymmetry_Pilot,2022.1.3,Win32,60.03121623,62c50e9c1127f2cd403a315f,,,,,,,,,,,,,,,,,,,,,,,,,,,,,,,,,,,,,,,,,,,,,,,,,,,
0,91,91,35,1,,5ec24766fd704d00089a80af,62c53a2e15d6bf4157b6b512,2022-07-06_10h35.24.056,Colour_Asymmetry_Pilot,2022.1.3,Win32,60.03121623,62c50e9c1127f2cd403a315f,,,,,,,,,,,,,,,,,,,,,,,,,,,,,,,,,,,,,,,,,,,,,,,,,,,
0,92,92,66,1,,5ec24766fd704d00089a80af,62c53a2e15d6bf4157b6b512,2022-07-06_10h35.24.056,Colour_Asymmetry_Pilot,2022.1.3,Win32,60.03121623,62c50e9c1127f2cd403a315f,,,,,,,,,,,,,,,,,,,,,,,,,,,,,,,,,,,,,,,,,,,,,,,,,,,
,,,,,,5ec24766fd704d00089a80af,62c53a2e15d6bf4157b6b512,2022-07-06_10h35.24.056,Colour_Asymmetry_Pilot,2022.1.3,Win32,60.03121623,62c50e9c1127f2cd403a315f,0,0,0,134,1,fourtwo,,,,,,,,,,,,,,,,,,,,,,,,,,,,,,,,,,,,,,,,,,,,,
,,,,,,5ec24766fd704d00089a80af,62c53a2e15d6bf4157b6b512,2022-07-06_10h35.24.056,Colour_Asymmetry_Pilot,2022.1.3,Win32,60.03121623,62c50e9c1127f2cd403a315f,0,1,1,100,1,threeone,,,,,,,,,,,,,,,,,,,,,,,,,,,,,,,,,,,,,,,,,,,,,
,,,,,,5ec24766fd704d00089a80af,62c53a2e15d6bf4157b6b512,2022-07-06_10h35.24.056,Colour_Asymmetry_Pilot,2022.1.3,Win32,60.03121623,62c50e9c1127f2cd403a315f,0,2,2,41,1,onethree,,,,,,,,,,,,,,,,,,,,,,,,,,,,,,,,,,,,,,,,,,,,,
,,,,,,5ec24766fd704d00089a80af,62c53a2e15d6bf4157b6b512,2022-07-06_10h35.24.056,Colour_Asymmetry_Pilot,2022.1.3,Win32,60.03121623,62c50e9c1127f2cd403a315f,0,3,3,79,1,fourthree,,,,,,,,,,,,,,,,,,,,,,,,,,,,,,,,,,,,,,,,,,,,,
,,,,,,5ec24766fd704d00089a80af,62c53a2e15d6bf4157b6b512,2022-07-06_10h35.24.056,Colour_Asymmetry_Pilot,2022.1.3,Win32,60.03121623,62c50e9c1127f2cd403a315f,0,4,4,139,1,twofour,,,,,,,,,,,,,,,,,,,,,,,,,,,,,,,,,,,,,,,,,,,,,
,,,,,,5ec24766fd704d00089a80af,62c53a2e15d6bf4157b6b512,2022-07-06_10h35.24.056,Colour_Asymmetry_Pilot,2022.1.3,Win32,60.03121623,62c50e9c1127f2cd403a315f,0,5,5,96,1,onetwo,,,,,,,,,,,,,,,,,,,,,,,,,,,,,,,,,,,,,,,,,,,,,
,,,,,,5ec24766fd704d00089a80af,62c53a2e15d6bf4157b6b512,2022-07-06_10h35.24.056,Colour_Asymmetry_Pilot,2022.1.3,Win32,60.03121623,62c50e9c1127f2cd403a315f,0,6,6,90,1,twoone,,,,,,,,,,,,,,,,,,,,,,,,,,,,,,,,,,,,,,,,,,,,,
,,,,,,5ec24766fd704d00089a80af,62c53a2e15d6bf4157b6b512,2022-07-06_10h35.24.056,Colour_Asymmetry_Pilot,2022.1.3,Win32,60.03121623,62c50e9c1127f2cd403a315f,0,7,7,35,1,twofour,,,,,,,,,,,,,,,,,,,,,,,,,,,,,,,,,,,,,,,,,,,,,
,,,,,,5ec24766fd704d00089a80af,62c53a2e15d6bf4157b6b512,2022-07-06_10h35.24.056,Colour_Asymmetry_Pilot,2022.1.3,Win32,60.03121623,62c50e9c1127f2cd403a315f,0,8,8,55,1,fourthree,,,,,,,,,,,,,,,,,,,,,,,,,,,,,,,,,,,,,,,,,,,,,
,,,,,,5ec24766fd704d00089a80af,62c53a2e15d6bf4157b6b512,2022-07-06_10h35.24.056,Colour_Asymmetry_Pilot,2022.1.3,Win32,60.03121623,62c50e9c1127f2cd403a315f,0,9,9,126,1,fourtwo,,,,,,,,,,,,,,,,,,,,,,,,,,,,,,,,,,,,,,,,,,,,,
,,,,,,5ec24766fd704d00089a80af,62c53a2e15d6bf4157b6b512,2022-07-06_10h35.24.056,Colour_Asymmetry_Pilot,2022.1.3,Win32,60.03121623,62c50e9c1127f2cd403a315f,0,10,10,130,1,twoone,,,,,,,,,,,,,,,,,,,,,,,,,,,,,,,,,,,,,,,,,,,,,
,,,,,,5ec24766fd704d00089a80af,62c53a2e15d6bf4157b6b512,2022-07-06_10h35.24.056,Colour_Asymmetry_Pilot,2022.1.3,Win32,60.03121623,62c50e9c1127f2cd403a315f,0,11,11,158,1,fourtwo,,,,,,,,,,,,,,,,,,,,,,,,,,,,,,,,,,,,,,,,,,,,,
,,,,,,5ec24766fd704d00089a80af,62c53a2e15d6bf4157b6b512,2022-07-06_10h35.24.056,Colour_Asymmetry_Pilot,2022.1.3,Win32,60.03121623,62c50e9c1127f2cd403a315f,0,12,12,48,1,onetwo,,,,,,,,,,,,,,,,,,,,,,,,,,,,,,,,,,,,,,,,,,,,,
,,,,,,5ec24766fd704d00089a80af,62c53a2e15d6bf4157b6b512,2022-07-06_10h35.24.056,Colour_Asymmetry_Pilot,2022.1.3,Win32,60.03121623,62c50e9c1127f2cd403a315f,0,13,13,104,1,onetwo,,,,,,,,,,,,,,,,,,,,,,,,,,,,,,,,,,,,,,,,,,,,,
,,,,,,5ec24766fd704d00089a80af,62c53a2e15d6bf4157b6b512,2022-07-06_10h35.24.056,Colour_Asymmetry_Pilot,2022.1.3,Win32,60.03121623,62c50e9c1127f2cd403a315f,0,14,14,98,1,twoone,,,,,,,,,,,,,,,,,,,,,,,,,,,,,,,,,,,,,,,,,,,,,
,,,,,,5ec24766fd704d00089a80af,62c53a2e15d6bf4157b6b512,2022-07-06_10h35.24.056,Colour_Asymmetry_Pilot,2022.1.3,Win32,60.03121623,62c50e9c1127f2cd403a315f,0,15,15,127,1,fourthree,,,,,,,,,,,,,,,,,,,,,,,,,,,,,,,,,,,,,,,,,,,,,
,,,,,,5ec24766fd704d00089a80af,62c53a2e15d6bf4157b6b512,2022-07-06_10h35.24.056,Colour_Asymmetry_Pilot,2022.1.3,Win32,60.03121623,62c50e9c1127f2cd403a315f,0,16,16,105,1,onethree,,,,,,,,,,,,,,,,,,,,,,,,,,,,,,,,,,,,,,,,,,,,,
,,,,,,5ec24766fd704d00089a80af,62c53a2e15d6bf4157b6b512,2022-07-06_10h35.24.056,Colour_Asymmetry_Pilot,2022.1.3,Win32,60.03121623,62c50e9c1127f2cd403a315f,0,17,17,73,1,onethree,,,,,,,,,,,,,,,,,,,,,,,,,,,,,,,,,,,,,,,,,,,,,
,,,,,,5ec24766fd704d00089a80af,62c53a2e15d6bf4157b6b512,2022-07-06_10h35.24.056,Colour_Asymmetry_Pilot,2022.1.3,Win32,60.03121623,62c50e9c1127f2cd403a315f,0,18,18,27,1,twofour,,,,,,,,,,,,,,,,,,,,,,,,,,,,,,,,,,,,,,,,,,,,,
,,,,,,5ec24766fd704d00089a80af,62c53a2e15d6bf4157b6b512,2022-07-06_10h35.24.056,Colour_Asymmetry_Pilot,2022.1.3,Win32,60.03121623,62c50e9c1127f2cd403a315f,0,19,19,75,1,twofour,,,,,,,,,,,,,,,,,,,,,,,,,,,,,,,,,,,,,,,,,,,,,
,,,,,,5ec24766fd704d00089a80af,62c53a2e15d6bf4157b6b512,2022-07-06_10h35.24.056,Colour_Asymmetry_Pilot,2022.1.3,Win32,60.03121623,62c50e9c1127f2cd403a315f,0,20,20,19,1,twofour,,,,,,,,,,,,,,,,,,,,,,,,,,,,,,,,,,,,,,,,,,,,,
,,,,,,5ec24766fd704d00089a80af,62c53a2e15d6bf4157b6b512,2022-07-06_10h35.24.056,Colour_Asymmetry_Pilot,2022.1.3,Win32,60.03121623,62c50e9c1127f2cd403a315f,0,21,21,64,1,onetwo,,,,,,,,,,,,,,,,,,,,,,,,,,,,,,,,,,,,,,,,,,,,,
,,,,,,5ec24766fd704d00089a80af,62c53a2e15d6bf4157b6b512,2022-07-06_10h35.24.056,Colour_Asymmetry_Pilot,2022.1.3,Win32,60.03121623,62c50e9c1127f2cd403a315f,0,22,22,141,1,threefour,,,,,,,,,,,,,,,,,,,,,,,,,,,,,,,,,,,,,,,,,,,,,
,,,,,,5ec24766fd704d00089a80af,62c53a2e15d6bf4157b6b512,2022-07-06_10h35.24.056,Colour_Asymmetry_Pilot,2022.1.3,Win32,60.03121623,62c50e9c1127f2cd403a315f,0,23,23,1,1,onethree,,,,,,,,,,,,,,,,,,,,,,,,,,,,,,,,,,,,,,,,,,,,,
,,,,,,5ec24766fd704d00089a80af,62c53a2e15d6bf4157b6b512,2022-07-06_10h35.24.056,Colour_Asymmetry_Pilot,2022.1.3,Win32,60.03121623,62c50e9c1127f2cd403a315f,0,24,24,114,1,twoone,,,,,,,,,,,,,,,,,,,,,,,,,,,,,,,,,,,,,,,,,,,,,
,,,,,,5ec24766fd704d00089a80af,62c53a2e15d6bf4157b6b512,2022-07-06_10h35.24.056,Colour_Asymmetry_Pilot,2022.1.3,Win32,60.03121623,62c50e9c1127f2cd403a315f,0,25,25,108,1,threeone,,,,,,,,,,,,,,,,,,,,,,,,,,,,,,,,,,,,,,,,,,,,,
,,,,,,5ec24766fd704d00089a80af,62c53a2e15d6bf4157b6b512,2022-07-06_10h35.24.056,Colour_Asymmetry_Pilot,2022.1.3,Win32,60.03121623,62c50e9c1127f2cd403a315f,0,26,26,149,1,threefour,,,,,,,,,,,,,,,,,,,,,,,,,,,,,,,,,,,,,,,,,,,,,
,,,,,,5ec24766fd704d00089a80af,62c53a2e15d6bf4157b6b512,2022-07-06_10h35.24.056,Colour_Asymmetry_Pilot,2022.1.3,Win32,60.03121623,62c50e9c1127f2cd403a315f,0,27,27,121,1,onethree,,,,,,,,,,,,,,,,,,,,,,,,,,,,,,,,,,,,,,,,,,,,,
,,,,,,5ec24766fd704d00089a80af,62c53a2e15d6bf4157b6b512,2022-07-06_10h35.24.056,Colour_Asymmetry_Pilot,2022.1.3,Win32,60.03121623,62c50e9c1127f2cd403a315f,0,28,28,45,1,threefour,,,,,,,,,,,,,,,,,,,,,,,,,,,,,,,,,,,,,,,,,,,,,
,,,,,,5ec24766fd704d00089a80af,62c53a2e15d6bf4157b6b512,2022-07-06_10h35.24.056,Colour_Asymmetry_Pilot,2022.1.3,Win32,60.03121623,62c50e9c1127f2cd403a315f,0,29,29,61,1,threefour,,,,,,,,,,,,,,,,,,,,,,,,,,,,,,,,,,,,,,,,,,,,,
,,,,,,5ec24766fd704d00089a80af,62c53a2e15d6bf4157b6b512,2022-07-06_10h35.24.056,Colour_Asymmetry_Pilot,2022.1.3,Win32,60.03121623,62c50e9c1127f2cd403a315f,0,30,30,5,1,threefour,,,,,,,,,,,,,,,,,,,,,,,,,,,,,,,,,,,,,,,,,,,,,
,,,,,,5ec24766fd704d00089a80af,62c53a2e15d6bf4157b6b512,2022-07-06_10h35.24.056,Colour_Asymmetry_Pilot,2022.1.3,Win32,60.03121623,62c50e9c1127f2cd403a315f,0,31,31,37,1,threefour,,,,,,,,,,,,,,,,,,,,,,,,,,,,,,,,,,,,,,,,,,,,,
,,,,,,5ec24766fd704d00089a80af,62c53a2e15d6bf4157b6b512,2022-07-06_10h35.24.056,Colour_Asymmetry_Pilot,2022.1.3,Win32,60.03121623,62c50e9c1127f2cd403a315f,0,32,32,146,1,twoone,,,,,,,,,,,,,,,,,,,,,,,,,,,,,,,,,,,,,,,,,,,,,
,,,,,,5ec24766fd704d00089a80af,62c53a2e15d6bf4157b6b512,2022-07-06_10h35.24.056,Colour_Asymmetry_Pilot,2022.1.3,Win32,60.03121623,62c50e9c1127f2cd403a315f,0,33,33,47,1,fourthree,,,,,,,,,,,,,,,,,,,,,,,,,,,,,,,,,,,,,,,,,,,,,
,,,,,,5ec24766fd704d00089a80af,62c53a2e15d6bf4157b6b512,2022-07-06_10h35.24.056,Colour_Asymmetry_Pilot,2022.1.3,Win32,60.03121623,62c50e9c1127f2cd403a315f,0,34,34,102,1,fourtwo,,,,,,,,,,,,,,,,,,,,,,,,,,,,,,,,,,,,,,,,,,,,,
,,,,,,5ec24766fd704d00089a80af,62c53a2e15d6bf4157b6b512,2022-07-06_10h35.24.056,Colour_Asymmetry_Pilot,2022.1.3,Win32,60.03121623,62c50e9c1127f2cd403a315f,0,35,35,135,1,fourthree,,,,,,,,,,,,,,,,,,,,,,,,,,,,,,,,,,,,,,,,,,,,,
,,,,,,5ec24766fd704d00089a80af,62c53a2e15d6bf4157b6b512,2022-07-06_10h35.24.056,Colour_Asymmetry_Pilot,2022.1.3,Win32,60.03121623,62c50e9c1127f2cd403a315f,0,36,36,53,1,threefour,,,,,,,,,,,,,,,,,,,,,,,,,,,,,,,,,,,,,,,,,,,,,
,,,,,,5ec24766fd704d00089a80af,62c53a2e15d6bf4157b6b512,2022-07-06_10h35.24.056,Colour_Asymmetry_Pilot,2022.1.3,Win32,60.03121623,62c50e9c1127f2cd403a315f,0,37,37,63,1,fourthree,,,,,,,,,,,,,,,,,,,,,,,,,,,,,,,,,,,,,,,,,,,,,
,,,,,,5ec24766fd704d00089a80af,62c53a2e15d6bf4157b6b512,2022-07-06_10h35.24.056,Colour_Asymmetry_Pilot,2022.1.3,Win32,60.03121623,62c50e9c1127f2cd403a315f,0,38,38,32,1,onetwo,,,,,,,,,,,,,,,,,,,,,,,,,,,,,,,,,,,,,,,,,,,,,
,,,,,,5ec24766fd704d00089a80af,62c53a2e15d6bf4157b6b512,2022-07-06_10h35.24.056,Colour_Asymmetry_Pilot,2022.1.3,Win32,60.03121623,62c50e9c1127f2cd403a315f,0,39,39,24,1,onetwo,,,,,,,,,,,,,,,,,,,,,,,,,,,,,,,,,,,,,,,,,,,,,
,,,,,,5ec24766fd704d00089a80af,62c53a2e15d6bf4157b6b512,2022-07-06_10h35.24.056,Colour_Asymmetry_Pilot,2022.1.3,Win32,60.03121623,62c50e9c1127f2cd403a315f,0,40,40,147,1,twofour,,,,,,,,,,,,,,,,,,,,,,,,,,,,,,,,,,,,,,,,,,,,,
,,,,,,5ec24766fd704d00089a80af,62c53a2e15d6bf4157b6b512,2022-07-06_10h35.24.056,Colour_Asymmetry_Pilot,2022.1.3,Win32,60.03121623,62c50e9c1127f2cd403a315f,0,41,41,93,1,threefour,,,,,,,,,,,,,,,,,,,,,,,,,,,,,,,,,,,,,,,,,,,,,
,,,,,,5ec24766fd704d00089a80af,62c53a2e15d6bf4157b6b512,2022-07-06_10h35.24.056,Colour_Asymmetry_Pilot,2022.1.3,Win32,60.03121623,62c50e9c1127f2cd403a315f,0,42,42,2,1,twoone,,,,,,,,,,,,,,,,,,,,,,,,,,,,,,,,,,,,,,,,,,,,,
,,,,,,5ec24766fd704d00089a80af,62c53a2e15d6bf4157b6b512,2022-07-06_10h35.24.056,Colour_Asymmetry_Pilot,2022.1.3,Win32,60.03121623,62c50e9c1127f2cd403a315f,0,43,43,89,1,onethree,,,,,,,,,,,,,,,,,,,,,,,,,,,,,,,,,,,,,,,,,,,,,
,,,,,,5ec24766fd704d00089a80af,62c53a2e15d6bf4157b6b512,2022-07-06_10h35.24.056,Colour_Asymmetry_Pilot,2022.1.3,Win32,60.03121623,62c50e9c1127f2cd403a315f,0,44,44,145,1,onethree,,,,,,,,,,,,,,,,,,,,,,,,,,,,,,,,,,,,,,,,,,,,,
,,,,,,5ec24766fd704d00089a80af,62c53a2e15d6bf4157b6b512,2022-07-06_10h35.24.056,Colour_Asymmetry_Pilot,2022.1.3,Win32,60.03121623,62c50e9c1127f2cd403a315f,0,45,45,20,1,threeone,,,,,,,,,,,,,,,,,,,,,,,,,,,,,,,,,,,,,,,,,,,,,
,,,,,,5ec24766fd704d00089a80af,62c53a2e15d6bf4157b6b512,2022-07-06_10h35.24.056,Colour_Asymmetry_Pilot,2022.1.3,Win32,60.03121623,62c50e9c1127f2cd403a315f,0,46,46,124,1,threeone,,,,,,,,,,,,,,,,,,,,,,,,,,,,,,,,,,,,,,,,,,,,,
,,,,,,5ec24766fd704d00089a80af,62c53a2e15d6bf4157b6b512,2022-07-06_10h35.24.056,Colour_Asymmetry_Pilot,2022.1.3,Win32,60.03121623,62c50e9c1127f2cd403a315f,0,47,47,18,1,twoone,,,,,,,,,,,,,,,,,,,,,,,,,,,,,,,,,,,,,,,,,,,,,
,,,,,,5ec24766fd704d00089a80af,62c53a2e15d6bf4157b6b512,2022-07-06_10h35.24.056,Colour_Asymmetry_Pilot,2022.1.3,Win32,60.03121623,62c50e9c1127f2cd403a315f,0,48,48,142,1,fourtwo,,,,,,,,,,,,,,,,,,,,,,,,,,,,,,,,,,,,,,,,,,,,,
,,,,,,5ec24766fd704d00089a80af,62c53a2e15d6bf4157b6b512,2022-07-06_10h35.24.056,Colour_Asymmetry_Pilot,2022.1.3,Win32,60.03121623,62c50e9c1127f2cd403a315f,0,49,49,29,1,threefour,,,,,,,,,,,,,,,,,,,,,,,,,,,,,,,,,,,,,,,,,,,,,
,,,,,,5ec24766fd704d00089a80af,62c53a2e15d6bf4157b6b512,2022-07-06_10h35.24.056,Colour_Asymmetry_Pilot,2022.1.3,Win32,60.03121623,62c50e9c1127f2cd403a315f,0,50,50,109,1,threefour,,,,,,,,,,,,,,,,,,,,,,,,,,,,,,,,,,,,,,,,,,,,,
,,,,,,5ec24766fd704d00089a80af,62c53a2e15d6bf4157b6b512,2022-07-06_10h35.24.056,Colour_Asymmetry_Pilot,2022.1.3,Win32,60.03121623,62c50e9c1127f2cd403a315f,0,51,51,31,1,fourthree,,,,,,,,,,,,,,,,,,,,,,,,,,,,,,,,,,,,,,,,,,,,,
,,,,,,5ec24766fd704d00089a80af,62c53a2e15d6bf4157b6b512,2022-07-06_10h35.24.056,Colour_Asymmetry_Pilot,2022.1.3,Win32,60.03121623,62c50e9c1127f2cd403a315f,0,52,52,15,1,fourthree,,,,,,,,,,,,,,,,,,,,,,,,,,,,,,,,,,,,,,,,,,,,,
,,,,,,5ec24766fd704d00089a80af,62c53a2e15d6bf4157b6b512,2022-07-06_10h35.24.056,Colour_Asymmetry_Pilot,2022.1.3,Win32,60.03121623,62c50e9c1127f2cd403a315f,0,53,53,42,1,twoone,,,,,,,,,,,,,,,,,,,,,,,,,,,,,,,,,,,,,,,,,,,,,
,,,,,,5ec24766fd704d00089a80af,62c53a2e15d6bf4157b6b512,2022-07-06_10h35.24.056,Colour_Asymmetry_Pilot,2022.1.3,Win32,60.03121623,62c50e9c1127f2cd403a315f,0,54,54,95,1,fourthree,,,,,,,,,,,,,,,,,,,,,,,,,,,,,,,,,,,,,,,,,,,,,
,,,,,,5ec24766fd704d00089a80af,62c53a2e15d6bf4157b6b512,2022-07-06_10h35.24.056,Colour_Asymmetry_Pilot,2022.1.3,Win32,60.03121623,62c50e9c1127f2cd403a315f,0,55,55,58,1,twoone,,,,,,,,,,,,,,,,,,,,,,,,,,,,,,,,,,,,,,,,,,,,,
,,,,,,5ec24766fd704d00089a80af,62c53a2e15d6bf4157b6b512,2022-07-06_10h35.24.056,Colour_Asymmetry_Pilot,2022.1.3,Win32,60.03121623,62c50e9c1127f2cd403a315f,0,56,56,125,1,threefour,,,,,,,,,,,,,,,,,,,,,,,,,,,,,,,,,,,,,,,,,,,,,
,,,,,,5ec24766fd704d00089a80af,62c53a2e15d6bf4157b6b512,2022-07-06_10h35.24.056,Colour_Asymmetry_Pilot,2022.1.3,Win32,60.03121623,62c50e9c1127f2cd403a315f,0,57,57,154,1,twoone,,,,,,,,,,,,,,,,,,,,,,,,,,,,,,,,,,,,,,,,,,,,,
,,,,,,5ec24766fd704d00089a80af,62c53a2e15d6bf4157b6b512,2022-07-06_10h35.24.056,Colour_Asymmetry_Pilot,2022.1.3,Win32,60.03121623,62c50e9c1127f2cd403a315f,0,58,58,122,1,twoone,,,,,,,,,,,,,,,,,,,,,,,,,,,,,,,,,,,,,,,,,,,,,
,,,,,,5ec24766fd704d00089a80af,62c53a2e15d6bf4157b6b512,2022-07-06_10h35.24.056,Colour_Asymmetry_Pilot,2022.1.3,Win32,60.03121623,62c50e9c1127f2cd403a315f,0,59,59,54,1,fourtwo,,,,,,,,,,,,,,,,,,,,,,,,,,,,,,,,,,,,,,,,,,,,,
,,,,,,5ec24766fd704d00089a80af,62c53a2e15d6bf4157b6b512,2022-07-06_10h35.24.056,Colour_Asymmetry_Pilot,2022.1.3,Win32,60.03121623,62c50e9c1127f2cd403a315f,0,60,60,6,1,fourtwo,,,,,,,,,,,,,,,,,,,,,,,,,,,,,,,,,,,,,,,,,,,,,
,,,,,,5ec24766fd704d00089a80af,62c53a2e15d6bf4157b6b512,2022-07-06_10h35.24.056,Colour_Asymmetry_Pilot,2022.1.3,Win32,60.03121623,62c50e9c1127f2cd403a315f,0,61,61,84,1,threeone,,,,,,,,,,,,,,,,,,,,,,,,,,,,,,,,,,,,,,,,,,,,,
,,,,,,5ec24766fd704d00089a80af,62c53a2e15d6bf4157b6b512,2022-07-06_10h35.24.056,Colour_Asymmetry_Pilot,2022.1.3,Win32,60.03121623,62c50e9c1127f2cd403a315f,0,62,62,160,1,onetwo,,,,,,,,,,,,,,,,,,,,,,,,,,,,,,,,,,,,,,,,,,,,,
,,,,,,5ec24766fd704d00089a80af,62c53a2e15d6bf4157b6b512,2022-07-06_10h35.24.056,Colour_Asymmetry_Pilot,2022.1.3,Win32,60.03121623,62c50e9c1127f2cd403a315f,0,63,63,103,1,fourthree,,,,,,,,,,,,,,,,,,,,,,,,,,,,,,,,,,,,,,,,,,,,,
,,,,,,5ec24766fd704d00089a80af,62c53a2e15d6bf4157b6b512,2022-07-06_10h35.24.056,Colour_Asymmetry_Pilot,2022.1.3,Win32,60.03121623,62c50e9c1127f2cd403a315f,0,64,64,65,1,onethree,,,,,,,,,,,,,,,,,,,,,,,,,,,,,,,,,,,,,,,,,,,,,
,,,,,,5ec24766fd704d00089a80af,62c53a2e15d6bf4157b6b512,2022-07-06_10h35.24.056,Colour_Asymmetry_Pilot,2022.1.3,Win32,60.03121623,62c50e9c1127f2cd403a315f,0,65,65,101,1,threefour,,,,,,,,,,,,,,,,,,,,,,,,,,,,,,,,,,,,,,,,,,,,,
,,,,,,5ec24766fd704d00089a80af,62c53a2e15d6bf4157b6b512,2022-07-06_10h35.24.056,Colour_Asymmetry_Pilot,2022.1.3,Win32,60.03121623,62c50e9c1127f2cd403a315f,0,66,66,78,1,fourtwo,,,,,,,,,,,,,,,,,,,,,,,,,,,,,,,,,,,,,,,,,,,,,
,,,,,,5ec24766fd704d00089a80af,62c53a2e15d6bf4157b6b512,2022-07-06_10h35.24.056,Colour_Asymmetry_Pilot,2022.1.3,Win32,60.03121623,62c50e9c1127f2cd403a315f,0,67,67,144,1,onetwo,,,,,,,,,,,,,,,,,,,,,,,,,,,,,,,,,,,,,,,,,,,,,
,,,,,,5ec24766fd704d00089a80af,62c53a2e15d6bf4157b6b512,2022-07-06_10h35.24.056,Colour_Asymmetry_Pilot,2022.1.3,Win32,60.03121623,62c50e9c1127f2cd403a315f,0,68,68,72,1,onetwo,,,,,,,,,,,,,,,,,,,,,,,,,,,,,,,,,,,,,,,,,,,,,
,,,,,,5ec24766fd704d00089a80af,62c53a2e15d6bf4157b6b512,2022-07-06_10h35.24.056,Colour_Asymmetry_Pilot,2022.1.3,Win32,60.03121623,62c50e9c1127f2cd403a315f,0,69,69,150,1,fourtwo,,,,,,,,,,,,,,,,,,,,,,,,,,,,,,,,,,,,,,,,,,,,,
,,,,,,5ec24766fd704d00089a80af,62c53a2e15d6bf4157b6b512,2022-07-06_10h35.24.056,Colour_Asymmetry_Pilot,2022.1.3,Win32,60.03121623,62c50e9c1127f2cd403a315f,0,70,70,133,1,threefour,,,,,,,,,,,,,,,,,,,,,,,,,,,,,,,,,,,,,,,,,,,,,
,,,,,,5ec24766fd704d00089a80af,62c53a2e15d6bf4157b6b512,2022-07-06_10h35.24.056,Colour_Asymmetry_Pilot,2022.1.3,Win32,60.03121623,62c50e9c1127f2cd403a315f,0,71,71,52,1,threeone,,,,,,,,,,,,,,,,,,,,,,,,,,,,,,,,,,,,,,,,,,,,,
,,,,,,5ec24766fd704d00089a80af,62c53a2e15d6bf4157b6b512,2022-07-06_10h35.24.056,Colour_Asymmetry_Pilot,2022.1.3,Win32,60.03121623,62c50e9c1127f2cd403a315f,0,72,72,51,1,twofour,,,,,,,,,,,,,,,,,,,,,,,,,,,,,,,,,,,,,,,,,,,,,
,,,,,,5ec24766fd704d00089a80af,62c53a2e15d6bf4157b6b512,2022-07-06_10h35.24.056,Colour_Asymmetry_Pilot,2022.1.3,Win32,60.03121623,62c50e9c1127f2cd403a315f,0,73,73,106,1,twoone,,,,,,,,,,,,,,,,,,,,,,,,,,,,,,,,,,,,,,,,,,,,,
,,,,,,5ec24766fd704d00089a80af,62c53a2e15d6bf4157b6b512,2022-07-06_10h35.24.056,Colour_Asymmetry_Pilot,2022.1.3,Win32,60.03121623,62c50e9c1127f2cd403a315f,0,74,74,59,1,twofour,,,,,,,,,,,,,,,,,,,,,,,,,,,,,,,,,,,,,,,,,,,,,
,,,,,,5ec24766fd704d00089a80af,62c53a2e15d6bf4157b6b512,2022-07-06_10h35.24.056,Colour_Asymmetry_Pilot,2022.1.3,Win32,60.03121623,62c50e9c1127f2cd403a315f,0,75,75,23,1,fourthree,,,,,,,,,,,,,,,,,,,,,,,,,,,,,,,,,,,,,,,,,,,,,
,,,,,,5ec24766fd704d00089a80af,62c53a2e15d6bf4157b6b512,2022-07-06_10h35.24.056,Colour_Asymmetry_Pilot,2022.1.3,Win32,60.03121623,62c50e9c1127f2cd403a315f,0,76,76,13,1,threefour,,,,,,,,,,,,,,,,,,,,,,,,,,,,,,,,,,,,,,,,,,,,,
,,,,,,5ec24766fd704d00089a80af,62c53a2e15d6bf4157b6b512,2022-07-06_10h35.24.056,Colour_Asymmetry_Pilot,2022.1.3,Win32,60.03121623,62c50e9c1127f2cd403a315f,0,77,77,60,1,threeone,,,,,,,,,,,,,,,,,,,,,,,,,,,,,,,,,,,,,,,,,,,,,
,,,,,,5ec24766fd704d00089a80af,62c53a2e15d6bf4157b6b512,2022-07-06_10h35.24.056,Colour_Asymmetry_Pilot,2022.1.3,Win32,60.03121623,62c50e9c1127f2cd403a315f,0,78,78,148,1,threeone,,,,,,,,,,,,,,,,,,,,,,,,,,,,,,,,,,,,,,,,,,,,,
,,,,,,5ec24766fd704d00089a80af,62c53a2e15d6bf4157b6b512,2022-07-06_10h35.24.056,Colour_Asymmetry_Pilot,2022.1.3,Win32,60.03121623,62c50e9c1127f2cd403a315f,0,79,79,43,1,twofour,,,,,,,,,,,,,,,,,,,,,,,,,,,,,,,,,,,,,,,,,,,,,
,,,,,,5ec24766fd704d00089a80af,62c53a2e15d6bf4157b6b512,2022-07-06_10h35.24.056,Colour_Asymmetry_Pilot,2022.1.3,Win32,60.03121623,62c50e9c1127f2cd403a315f,0,80,80,88,1,onetwo,,,,,,,,,,,,,,,,,,,,,,,,,,,,,,,,,,,,,,,,,,,,,
,,,,,,5ec24766fd704d00089a80af,62c53a2e15d6bf4157b6b512,2022-07-06_10h35.24.056,Colour_Asymmetry_Pilot,2022.1.3,Win32,60.03121623,62c50e9c1127f2cd403a315f,0,81,81,17,1,onethree,,,,,,,,,,,,,,,,,,,,,,,,,,,,,,,,,,,,,,,,,,,,,
,,,,,,5ec24766fd704d00089a80af,62c53a2e15d6bf4157b6b512,2022-07-06_10h35.24.056,Colour_Asymmetry_Pilot,2022.1.3,Win32,60.03121623,62c50e9c1127f2cd403a315f,0,82,82,119,1,fourthree,,,,,,,,,,,,,,,,,,,,,,,,,,,,,,,,,,,,,,,,,,,,,
,,,,,,5ec24766fd704d00089a80af,62c53a2e15d6bf4157b6b512,2022-07-06_10h35.24.056,Colour_Asymmetry_Pilot,2022.1.3,Win32,60.03121623,62c50e9c1127f2cd403a315f,0,83,83,85,1,threefour,,,,,,,,,,,,,,,,,,,,,,,,,,,,,,,,,,,,,,,,,,,,,
,,,,,,5ec24766fd704d00089a80af,62c53a2e15d6bf4157b6b512,2022-07-06_10h35.24.056,Colour_Asymmetry_Pilot,2022.1.3,Win32,60.03121623,62c50e9c1127f2cd403a315f,0,84,84,4,1,threeone,,,,,,,,,,,,,,,,,,,,,,,,,,,,,,,,,,,,,,,,,,,,,
,,,,,,5ec24766fd704d00089a80af,62c53a2e15d6bf4157b6b512,2022-07-06_10h35.24.056,Colour_Asymmetry_Pilot,2022.1.3,Win32,60.03121623,62c50e9c1127f2cd403a315f,0,85,85,69,1,threefour,,,,,,,,,,,,,,,,,,,,,,,,,,,,,,,,,,,,,,,,,,,,,
,,,,,,5ec24766fd704d00089a80af,62c53a2e15d6bf4157b6b512,2022-07-06_10h35.24.056,Colour_Asymmetry_Pilot,2022.1.3,Win32,60.03121623,62c50e9c1127f2cd403a315f,0,86,86,70,1,fourtwo,,,,,,,,,,,,,,,,,,,,,,,,,,,,,,,,,,,,,,,,,,,,,
,,,,,,5ec24766fd704d00089a80af,62c53a2e15d6bf4157b6b512,2022-07-06_10h35.24.056,Colour_Asymmetry_Pilot,2022.1.3,Win32,60.03121623,62c50e9c1127f2cd403a315f,0,87,87,80,1,onetwo,,,,,,,,,,,,,,,,,,,,,,,,,,,,,,,,,,,,,,,,,,,,,
,,,,,,5ec24766fd704d00089a80af,62c53a2e15d6bf4157b6b512,2022-07-06_10h35.24.056,Colour_Asymmetry_Pilot,2022.1.3,Win32,60.03121623,62c50e9c1127f2cd403a315f,0,88,88,157,1,threefour,,,,,,,,,,,,,,,,,,,,,,,,,,,,,,,,,,,,,,,,,,,,,
,,,,,,5ec24766fd704d00089a80af,62c53a2e15d6bf4157b6b512,2022-07-06_10h35.24.056,Colour_Asymmetry_Pilot,2022.1.3,Win32,60.03121623,62c50e9c1127f2cd403a315f,0,89,89,111,1,fourthree,,,,,,,,,,,,,,,,,,,,,,,,,,,,,,,,,,,,,,,,,,,,,
,,,,,,5ec24766fd704d00089a80af,62c53a2e15d6bf4157b6b512,2022-07-06_10h35.24.056,Colour_Asymmetry_Pilot,2022.1.3,Win32,60.03121623,62c50e9c1127f2cd403a315f,0,90,90,83,1,twofour,,,,,,,,,,,,,,,,,,,,,,,,,,,,,,,,,,,,,,,,,,,,,
,,,,,,5ec24766fd704d00089a80af,62c53a2e15d6bf4157b6b512,2022-07-06_10h35.24.056,Colour_Asymmetry_Pilot,2022.1.3,Win32,60.03121623,62c50e9c1127f2cd403a315f,0,91,91,44,1,threeone,,,,,,,,,,,,,,,,,,,,,,,,,,,,,,,,,,,,,,,,,,,,,
,,,,,,5ec24766fd704d00089a80af,62c53a2e15d6bf4157b6b512,2022-07-06_10h35.24.056,Colour_Asymmetry_Pilot,2022.1.3,Win32,60.03121623,62c50e9c1127f2cd403a315f,0,92,92,143,1,fourthree,,,,,,,,,,,,,,,,,,,,,,,,,,,,,,,,,,,,,,,,,,,,,
,,,,,,5ec24766fd704d00089a80af,62c53a2e15d6bf4157b6b512,2022-07-06_10h35.24.056,Colour_Asymmetry_Pilot,2022.1.3,Win32,60.03121623,62c50e9c1127f2cd403a315f,0,93,93,161,1,onethree,,,,,,,,,,,,,,,,,,,,,,,,,,,,,,,,,,,,,,,,,,,,,
,,,,,,5ec24766fd704d00089a80af,62c53a2e15d6bf4157b6b512,2022-07-06_10h35.24.056,Colour_Asymmetry_Pilot,2022.1.3,Win32,60.03121623,62c50e9c1127f2cd403a315f,0,94,94,129,1,onethree,,,,,,,,,,,,,,,,,,,,,,,,,,,,,,,,,,,,,,,,,,,,,
,,,,,,5ec24766fd704d00089a80af,62c53a2e15d6bf4157b6b512,2022-07-06_10h35.24.056,Colour_Asymmetry_Pilot,2022.1.3,Win32,60.03121623,62c50e9c1127f2cd403a315f,0,95,95,50,1,twoone,,,,,,,,,,,,,,,,,,,,,,,,,,,,,,,,,,,,,,,,,,,,,
,,,,,,5ec24766fd704d00089a80af,62c53a2e15d6bf4157b6b512,2022-07-06_10h35.24.056,Colour_Asymmetry_Pilot,2022.1.3,Win32,60.03121623,62c50e9c1127f2cd403a315f,0,96,96,14,1,fourtwo,,,,,,,,,,,,,,,,,,,,,,,,,,,,,,,,,,,,,,,,,,,,,
,,,,,,5ec24766fd704d00089a80af,62c53a2e15d6bf4157b6b512,2022-07-06_10h35.24.056,Colour_Asymmetry_Pilot,2022.1.3,Win32,60.03121623,62c50e9c1127f2cd403a315f,0,97,97,137,1,onethree,,,,,,,,,,,,,,,,,,,,,,,,,,,,,,,,,,,,,,,,,,,,,
,,,,,,5ec24766fd704d00089a80af,62c53a2e15d6bf4157b6b512,2022-07-06_10h35.24.056,Colour_Asymmetry_Pilot,2022.1.3,Win32,60.03121623,62c50e9c1127f2cd403a315f,0,98,98,97,1,onethree,,,,,,,,,,,,,,,,,,,,,,,,,,,,,,,,,,,,,,,,,,,,,
,,,,,,5ec24766fd704d00089a80af,62c53a2e15d6bf4157b6b512,2022-07-06_10h35.24.056,Colour_Asymmetry_Pilot,2022.1.3,Win32,60.03121623,62c50e9c1127f2cd403a315f,0,99,99,28,1,threeone,,,,,,,,,,,,,,,,,,,,,,,,,,,,,,,,,,,,,,,,,,,,,
,,,,,,5ec24766fd704d00089a80af,62c53a2e15d6bf4157b6b512,2022-07-06_10h35.24.056,Colour_Asymmetry_Pilot,2022.1.3,Win32,60.03121623,62c50e9c1127f2cd403a315f,0,100,100,81,1,onethree,,,,,,,,,,,,,,,,,,,,,,,,,,,,,,,,,,,,,,,,,,,,,
,,,,,,5ec24766fd704d00089a80af,62c53a2e15d6bf4157b6b512,2022-07-06_10h35.24.056,Colour_Asymmetry_Pilot,2022.1.3,Win32,60.03121623,62c50e9c1127f2cd403a315f,0,101,101,82,1,twoone,,,,,,,,,,,,,,,,,,,,,,,,,,,,,,,,,,,,,,,,,,,,,
,,,,,,5ec24766fd704d00089a80af,62c53a2e15d6bf4157b6b512,2022-07-06_10h35.24.056,Colour_Asymmetry_Pilot,2022.1.3,Win32,60.03121623,62c50e9c1127f2cd403a315f,0,102,102,16,1,onetwo,,,,,,,,,,,,,,,,,,,,,,,,,,,,,,,,,,,,,,,,,,,,,
,,,,,,5ec24766fd704d00089a80af,62c53a2e15d6bf4157b6b512,2022-07-06_10h35.24.056,Colour_Asymmetry_Pilot,2022.1.3,Win32,60.03121623,62c50e9c1127f2cd403a315f,0,103,103,8,1,onetwo,,,,,,,,,,,,,,,,,,,,,,,,,,,,,,,,,,,,,,,,,,,,,
,,,,,,5ec24766fd704d00089a80af,62c53a2e15d6bf4157b6b512,2022-07-06_10h35.24.056,Colour_Asymmetry_Pilot,2022.1.3,Win32,60.03121623,62c50e9c1127f2cd403a315f,0,104,104,128,1,onetwo,,,,,,,,,,,,,,,,,,,,,,,,,,,,,,,,,,,,,,,,,,,,,
,,,,,,5ec24766fd704d00089a80af,62c53a2e15d6bf4157b6b512,2022-07-06_10h35.24.056,Colour_Asymmetry_Pilot,2022.1.3,Win32,60.03121623,62c50e9c1127f2cd403a315f,0,105,105,7,1,fourthree,,,,,,,,,,,,,,,,,,,,,,,,,,,,,,,,,,,,,,,,,,,,,
,,,,,,5ec24766fd704d00089a80af,62c53a2e15d6bf4157b6b512,2022-07-06_10h35.24.056,Colour_Asymmetry_Pilot,2022.1.3,Win32,60.03121623,62c50e9c1127f2cd403a315f,0,106,106,123,1,twofour,,,,,,,,,,,,,,,,,,,,,,,,,,,,,,,,,,,,,,,,,,,,,
,,,,,,5ec24766fd704d00089a80af,62c53a2e15d6bf4157b6b512,2022-07-06_10h35.24.056,Colour_Asymmetry_Pilot,2022.1.3,Win32,60.03121623,62c50e9c1127f2cd403a315f,0,107,107,40,1,onetwo,,,,,,,,,,,,,,,,,,,,,,,,,,,,,,,,,,,,,,,,,,,,,
,,,,,,5ec24766fd704d00089a80af,62c53a2e15d6bf4157b6b512,2022-07-06_10h35.24.056,Colour_Asymmetry_Pilot,2022.1.3,Win32,60.03121623,62c50e9c1127f2cd403a315f,0,108,108,156,1,threeone,,,,,,,,,,,,,,,,,,,,,,,,,,,,,,,,,,,,,,,,,,,,,
,,,,,,5ec24766fd704d00089a80af,62c53a2e15d6bf4157b6b512,2022-07-06_10h35.24.056,Colour_Asymmetry_Pilot,2022.1.3,Win32,60.03121623,62c50e9c1127f2cd403a315f,0,109,109,33,1,onethree,,,,,,,,,,,,,,,,,,,,,,,,,,,,,,,,,,,,,,,,,,,,,
,,,,,,5ec24766fd704d00089a80af,62c53a2e15d6bf4157b6b512,2022-07-06_10h35.24.056,Colour_Asymmetry_Pilot,2022.1.3,Win32,60.03121623,62c50e9c1127f2cd403a315f,0,110,110,94,1,fourtwo,,,,,,,,,,,,,,,,,,,,,,,,,,,,,,,,,,,,,,,,,,,,,
,,,,,,5ec24766fd704d00089a80af,62c53a2e15d6bf4157b6b512,2022-07-06_10h35.24.056,Colour_Asymmetry_Pilot,2022.1.3,Win32,60.03121623,62c50e9c1127f2cd403a315f,0,111,111,10,1,twoone,,,,,,,,,,,,,,,,,,,,,,,,,,,,,,,,,,,,,,,,,,,,,
,,,,,,5ec24766fd704d00089a80af,62c53a2e15d6bf4157b6b512,2022-07-06_10h35.24.056,Colour_Asymmetry_Pilot,2022.1.3,Win32,60.03121623,62c50e9c1127f2cd403a315f,0,112,112,30,1,fourtwo,,,,,,,,,,,,,,,,,,,,,,,,,,,,,,,,,,,,,,,,,,,,,
,,,,,,5ec24766fd704d00089a80af,62c53a2e15d6bf4157b6b512,2022-07-06_10h35.24.056,Colour_Asymmetry_Pilot,2022.1.3,Win32,60.03121623,62c50e9c1127f2cd403a315f,0,113,113,34,1,twoone,,,,,,,,,,,,,,,,,,,,,,,,,,,,,,,,,,,,,,,,,,,,,
,,,,,,5ec24766fd704d00089a80af,62c53a2e15d6bf4157b6b512,2022-07-06_10h35.24.056,Colour_Asymmetry_Pilot,2022.1.3,Win32,60.03121623,62c50e9c1127f2cd403a315f,0,114,114,140,1,threeone,,,,,,,,,,,,,,,,,,,,,,,,,,,,,,,,,,,,,,,,,,,,,
,,,,,,5ec24766fd704d00089a80af,62c53a2e15d6bf4157b6b512,2022-07-06_10h35.24.056,Colour_Asymmetry_Pilot,2022.1.3,Win32,60.03121623,62c50e9c1127f2cd403a315f,0,115,115,39,1,fourthree,,,,,,,,,,,,,,,,,,,,,,,,,,,,,,,,,,,,,,,,,,,,,
,,,,,,5ec24766fd704d00089a80af,62c53a2e15d6bf4157b6b512,2022-07-06_10h35.24.056,Colour_Asymmetry_Pilot,2022.1.3,Win32,60.03121623,62c50e9c1127f2cd403a315f,0,116,116,62,1,fourtwo,,,,,,,,,,,,,,,,,,,,,,,,,,,,,,,,,,,,,,,,,,,,,
,,,,,,5ec24766fd704d00089a80af,62c53a2e15d6bf4157b6b512,2022-07-06_10h35.24.056,Colour_Asymmetry_Pilot,2022.1.3,Win32,60.03121623,62c50e9c1127f2cd403a315f,0,117,117,71,1,fourthree,,,,,,,,,,,,,,,,,,,,,,,,,,,,,,,,,,,,,,,,,,,,,
,,,,,,5ec24766fd704d00089a80af,62c53a2e15d6bf4157b6b512,2022-07-06_10h35.24.056,Colour_Asymmetry_Pilot,2022.1.3,Win32,60.03121623,62c50e9c1127f2cd403a315f,0,118,118,138,1,twoone,,,,,,,,,,,,,,,,,,,,,,,,,,,,,,,,,,,,,,,,,,,,,
,,,,,,5ec24766fd704d00089a80af,62c53a2e15d6bf4157b6b512,2022-07-06_10h35.24.056,Colour_Asymmetry_Pilot,2022.1.3,Win32,60.03121623,62c50e9c1127f2cd403a315f,0,119,119,99,1,twofour,,,,,,,,,,,,,,,,,,,,,,,,,,,,,,,,,,,,,,,,,,,,,
,,,,,,5ec24766fd704d00089a80af,62c53a2e15d6bf4157b6b512,2022-07-06_10h35.24.056,Colour_Asymmetry_Pilot,2022.1.3,Win32,60.03121623,62c50e9c1127f2cd403a315f,0,120,120,22,1,fourtwo,,,,,,,,,,,,,,,,,,,,,,,,,,,,,,,,,,,,,,,,,,,,,
,,,,,,5ec24766fd704d00089a80af,62c53a2e15d6bf4157b6b512,2022-07-06_10h35.24.056,Colour_Asymmetry_Pilot,2022.1.3,Win32,60.03121623,62c50e9c1127f2cd403a315f,0,121,121,159,1,fourthree,,,,,,,,,,,,,,,,,,,,,,,,,,,,,,,,,,,,,,,,,,,,,
,,,,,,5ec24766fd704d00089a80af,62c53a2e15d6bf4157b6b512,2022-07-06_10h35.24.056,Colour_Asymmetry_Pilot,2022.1.3,Win32,60.03121623,62c50e9c1127f2cd403a315f,0,122,122,49,1,onethree,,,,,,,,,,,,,,,,,,,,,,,,,,,,,,,,,,,,,,,,,,,,,
,,,,,,5ec24766fd704d00089a80af,62c53a2e15d6bf4157b6b512,2022-07-06_10h35.24.056,Colour_Asymmetry_Pilot,2022.1.3,Win32,60.03121623,62c50e9c1127f2cd403a315f,0,123,123,46,1,fourtwo,,,,,,,,,,,,,,,,,,,,,,,,,,,,,,,,,,,,,,,,,,,,,
,,,,,,5ec24766fd704d00089a80af,62c53a2e15d6bf4157b6b512,2022-07-06_10h35.24.056,Colour_Asymmetry_Pilot,2022.1.3,Win32,60.03121623,62c50e9c1127f2cd403a315f,0,124,124,77,1,threefour,,,,,,,,,,,,,,,,,,,,,,,,,,,,,,,,,,,,,,,,,,,,,
,,,,,,5ec24766fd704d00089a80af,62c53a2e15d6bf4157b6b512,2022-07-06_10h35.24.056,Colour_Asymmetry_Pilot,2022.1.3,Win32,60.03121623,62c50e9c1127f2cd403a315f,0,125,125,131,1,twofour,,,,,,,,,,,,,,,,,,,,,,,,,,,,,,,,,,,,,,,,,,,,,
,,,,,,5ec24766fd704d00089a80af,62c53a2e15d6bf4157b6b512,2022-07-06_10h35.24.056,Colour_Asymmetry_Pilot,2022.1.3,Win32,60.03121623,62c50e9c1127f2cd403a315f,0,126,126,21,1,threefour,,,,,,,,,,,,,,,,,,,,,,,,,,,,,,,,,,,,,,,,,,,,,
,,,,,,5ec24766fd704d00089a80af,62c53a2e15d6bf4157b6b512,2022-07-06_10h35.24.056,Colour_Asymmetry_Pilot,2022.1.3,Win32,60.03121623,62c50e9c1127f2cd403a315f,0,127,127,0,1,onetwo,,,,,,,,,,,,,,,,,,,,,,,,,,,,,,,,,,,,,,,,,,,,,
,,,,,,5ec24766fd704d00089a80af,62c53a2e15d6bf4157b6b512,2022-07-06_10h35.24.056,Colour_Asymmetry_Pilot,2022.1.3,Win32,60.03121623,62c50e9c1127f2cd403a315f,0,128,128,107,1,twofour,,,,,,,,,,,,,,,,,,,,,,,,,,,,,,,,,,,,,,,,,,,,,
,,,,,,5ec24766fd704d00089a80af,62c53a2e15d6bf4157b6b512,2022-07-06_10h35.24.056,Colour_Asymmetry_Pilot,2022.1.3,Win32,60.03121623,62c50e9c1127f2cd403a315f,0,129,129,118,1,fourtwo,,,,,,,,,,,,,,,,,,,,,,,,,,,,,,,,,,,,,,,,,,,,,
,,,,,,5ec24766fd704d00089a80af,62c53a2e15d6bf4157b6b512,2022-07-06_10h35.24.056,Colour_Asymmetry_Pilot,2022.1.3,Win32,60.03121623,62c50e9c1127f2cd403a315f,0,130,130,67,1,twofour,,,,,,,,,,,,,,,,,,,,,,,,,,,,,,,,,,,,,,,,,,,,,
,,,,,,5ec24766fd704d00089a80af,62c53a2e15d6bf4157b6b512,2022-07-06_10h35.24.056,Colour_Asymmetry_Pilot,2022.1.3,Win32,60.03121623,62c50e9c1127f2cd403a315f,0,131,131,116,1,threeone,,,,,,,,,,,,,,,,,,,,,,,,,,,,,,,,,,,,,,,,,,,,,
,,,,,,5ec24766fd704d00089a80af,62c53a2e15d6bf4157b6b512,2022-07-06_10h35.24.056,Colour_Asymmetry_Pilot,2022.1.3,Win32,60.03121623,62c50e9c1127f2cd403a315f,0,132,132,56,1,onetwo,,,,,,,,,,,,,,,,,,,,,,,,,,,,,,,,,,,,,,,,,,,,,
,,,,,,5ec24766fd704d00089a80af,62c53a2e15d6bf4157b6b512,2022-07-06_10h35.24.056,Colour_Asymmetry_Pilot,2022.1.3,Win32,60.03121623,62c50e9c1127f2cd403a315f,0,133,133,87,1,fourthree,,,,,,,,,,,,,,,,,,,,,,,,,,,,,,,,,,,,,,,,,,,,,
,,,,,,5ec24766fd704d00089a80af,62c53a2e15d6bf4157b6b512,2022-07-06_10h35.24.056,Colour_Asymmetry_Pilot,2022.1.3,Win32,60.03121623,62c50e9c1127f2cd403a315f,0,134,134,68,1,threeone,,,,,,,,,,,,,,,,,,,,,,,,,,,,,,,,,,,,,,,,,,,,,
,,,,,,5ec24766fd704d00089a80af,62c53a2e15d6bf4157b6b512,2022-07-06_10h35.24.056,Colour_Asymmetry_Pilot,2022.1.3,Win32,60.03121623,62c50e9c1127f2cd403a315f,0,135,135,115,1,twofour,,,,,,,,,,,,,,,,,,,,,,,,,,,,,,,,,,,,,,,,,,,,,
,,,,,,5ec24766fd704d00089a80af,62c53a2e15d6bf4157b6b512,2022-07-06_10h35.24.056,Colour_Asymmetry_Pilot,2022.1.3,Win32,60.03121623,62c50e9c1127f2cd403a315f,0,136,136,86,1,fourtwo,,,,,,,,,,,,,,,,,,,,,,,,,,,,,,,,,,,,,,,,,,,,,
,,,,,,5ec24766fd704d00089a80af,62c53a2e15d6bf4157b6b512,2022-07-06_10h35.24.056,Colour_Asymmetry_Pilot,2022.1.3,Win32,60.03121623,62c50e9c1127f2cd403a315f,0,137,137,36,1,threeone,,,,,,,,,,,,,,,,,,,,,,,,,,,,,,,,,,,,,,,,,,,,,
,,,,,,5ec24766fd704d00089a80af,62c53a2e15d6bf4157b6b512,2022-07-06_10h35.24.056,Colour_Asymmetry_Pilot,2022.1.3,Win32,60.03121623,62c50e9c1127f2cd403a315f,0,138,138,57,1,onethree,,,,,,,,,,,,,,,,,,,,,,,,,,,,,,,,,,,,,,,,,,,,,
,,,,,,5ec24766fd704d00089a80af,62c53a2e15d6bf4157b6b512,2022-07-06_10h35.24.056,Colour_Asymmetry_Pilot,2022.1.3,Win32,60.03121623,62c50e9c1127f2cd403a315f,0,139,139,3,1,twofour,,,,,,,,,,,,,,,,,,,,,,,,,,,,,,,,,,,,,,,,,,,,,
,,,,,,5ec24766fd704d00089a80af,62c53a2e15d6bf4157b6b512,2022-07-06_10h35.24.056,Colour_Asymmetry_Pilot,2022.1.3,Win32,60.03121623,62c50e9c1127f2cd403a315f,0,140,140,136,1,onetwo,,,,,,,,,,,,,,,,,,,,,,,,,,,,,,,,,,,,,,,,,,,,,
,,,,,,5ec24766fd704d00089a80af,62c53a2e15d6bf4157b6b512,2022-07-06_10h35.24.056,Colour_Asymmetry_Pilot,2022.1.3,Win32,60.03121623,62c50e9c1127f2cd403a315f,0,141,141,38,1,fourtwo,,,,,,,,,,,,,,,,,,,,,,,,,,,,,,,,,,,,,,,,,,,,,
,,,,,,5ec24766fd704d00089a80af,62c53a2e15d6bf4157b6b512,2022-07-06_10h35.24.056,Colour_Asymmetry_Pilot,2022.1.3,Win32,60.03121623,62c50e9c1127f2cd403a315f,0,142,142,132,1,threeone,,,,,,,,,,,,,,,,,,,,,,,,,,,,,,,,,,,,,,,,,,,,,
,,,,,,5ec24766fd704d00089a80af,62c53a2e15d6bf4157b6b512,2022-07-06_10h35.24.056,Colour_Asymmetry_Pilot,2022.1.3,Win32,60.03121623,62c50e9c1127f2cd403a315f,0,143,143,74,1,twoone,,,,,,,,,,,,,,,,,,,,,,,,,,,,,,,,,,,,,,,,,,,,,
,,,,,,5ec24766fd704d00089a80af,62c53a2e15d6bf4157b6b512,2022-07-06_10h35.24.056,Colour_Asymmetry_Pilot,2022.1.3,Win32,60.03121623,62c50e9c1127f2cd403a315f,0,144,144,91,1,twofour,,,,,,,,,,,,,,,,,,,,,,,,,,,,,,,,,,,,,,,,,,,,,
,,,,,,5ec24766fd704d00089a80af,62c53a2e15d6bf4157b6b512,2022-07-06_10h35.24.056,Colour_Asymmetry_Pilot,2022.1.3,Win32,60.03121623,62c50e9c1127f2cd403a315f,0,145,145,152,1,onetwo,,,,,,,,,,,,,,,,,,,,,,,,,,,,,,,,,,,,,,,,,,,,,
,,,,,,5ec24766fd704d00089a80af,62c53a2e15d6bf4157b6b512,2022-07-06_10h35.24.056,Colour_Asymmetry_Pilot,2022.1.3,Win32,60.03121623,62c50e9c1127f2cd403a315f,0,146,146,66,1,twoone,,,,,,,,,,,,,,,,,,,,,,,,,,,,,,,,,,,,,,,,,,,,,
,,,,,,5ec24766fd704d00089a80af,62c53a2e15d6bf4157b6b512,2022-07-06_10h35.24.056,Colour_Asymmetry_Pilot,2022.1.3,Win32,60.03121623,62c50e9c1127f2cd403a315f,0,147,147,153,1,onethree,,,,,,,,,,,,,,,,,,,,,,,,,,,,,,,,,,,,,,,,,,,,,
,,,,,,5ec24766fd704d00089a80af,62c53a2e15d6bf4157b6b512,2022-07-06_10h35.24.056,Colour_Asymmetry_Pilot,2022.1.3,Win32,60.03121623,62c50e9c1127f2cd403a315f,0,148,148,120,1,onetwo,,,,,,,,,,,,,,,,,,,,,,,,,,,,,,,,,,,,,,,,,,,,,
,,,,,,5ec24766fd704d00089a80af,62c53a2e15d6bf4157b6b512,2022-07-06_10h35.24.056,Colour_Asymmetry_Pilot,2022.1.3,Win32,60.03121623,62c50e9c1127f2cd403a315f,0,149,149,9,1,onethree,,,,,,,,,,,,,,,,,,,,,,,,,,,,,,,,,,,,,,,,,,,,,
,,,,,,5ec24766fd704d00089a80af,62c53a2e15d6bf4157b6b512,2022-07-06_10h35.24.056,Colour_Asymmetry_Pilot,2022.1.3,Win32,60.03121623,62c50e9c1127f2cd403a315f,0,150,150,76,1,threeone,,,,,,,,,,,,,,,,,,,,,,,,,,,,,,,,,,,,,,,,,,,,,
,,,,,,5ec24766fd704d00089a80af,62c53a2e15d6bf4157b6b512,2022-07-06_10h35.24.056,Colour_Asymmetry_Pilot,2022.1.3,Win32,60.03121623,62c50e9c1127f2cd403a315f,0,151,151,113,1,onethree,,,,,,,,,,,,,,,,,,,,,,,,,,,,,,,,,,,,,,,,,,,,,
,,,,,,5ec24766fd704d00089a80af,62c53a2e15d6bf4157b6b512,2022-07-06_10h35.24.056,Colour_Asymmetry_Pilot,2022.1.3,Win32,60.03121623,62c50e9c1127f2cd403a315f,0,152,152,155,1,twofour,,,,,,,,,,,,,,,,,,,,,,,,,,,,,,,,,,,,,,,,,,,,,
,,,,,,5ec24766fd704d00089a80af,62c53a2e15d6bf4157b6b512,2022-07-06_10h35.24.056,Colour_Asymmetry_Pilot,2022.1.3,Win32,60.03121623,62c50e9c1127f2cd403a315f,0,153,153,112,1,onetwo,,,,,,,,,,,,,,,,,,,,,,,,,,,,,,,,,,,,,,,,,,,,,
,,,,,,5ec24766fd704d00089a80af,62c53a2e15d6bf4157b6b512,2022-07-06_10h35.24.056,Colour_Asymmetry_Pilot,2022.1.3,Win32,60.03121623,62c50e9c1127f2cd403a315f,0,154,154,151,1,fourthree,,,,,,,,,,,,,,,,,,,,,,,,,,,,,,,,,,,,,,,,,,,,,
,,,,,,5ec24766fd704d00089a80af,62c53a2e15d6bf4157b6b512,2022-07-06_10h35.24.056,Colour_Asymmetry_Pilot,2022.1.3,Win32,60.03121623,62c50e9c1127f2cd403a315f,0,155,155,110,1,fourtwo,,,,,,,,,,,,,,,,,,,,,,,,,,,,,,,,,,,,,,,,,,,,,
,,,,,,5ec24766fd704d00089a80af,62c53a2e15d6bf4157b6b512,2022-07-06_10h35.24.056,Colour_Asymmetry_Pilot,2022.1.3,Win32,60.03121623,62c50e9c1127f2cd403a315f,0,156,156,26,1,twoone,,,,,,,,,,,,,,,,,,,,,,,,,,,,,,,,,,,,,,,,,,,,,
,,,,,,5ec24766fd704d00089a80af,62c53a2e15d6bf4157b6b512,2022-07-06_10h35.24.056,Colour_Asymmetry_Pilot,2022.1.3,Win32,60.03121623,62c50e9c1127f2cd403a315f,0,157,157,12,1,threeone,,,,,,,,,,,,,,,,,,,,,,,,,,,,,,,,,,,,,,,,,,,,,
,,,,,,5ec24766fd704d00089a80af,62c53a2e15d6bf4157b6b512,2022-07-06_10h35.24.056,Colour_Asymmetry_Pilot,2022.1.3,Win32,60.03121623,62c50e9c1127f2cd403a315f,0,158,158,92,1,threeone,,,,,,,,,,,,,,,,,,,,,,,,,,,,,,,,,,,,,,,,,,,,,
,,,,,,5ec24766fd704d00089a80af,62c53a2e15d6bf4157b6b512,2022-07-06_10h35.24.056,Colour_Asymmetry_Pilot,2022.1.3,Win32,60.03121623,62c50e9c1127f2cd403a315f,0,159,159,11,1,twofour,,,,,,,,,,,,,,,,,,,,,,,,,,,,,,,,,,,,,,,,,,,,,
,,,,,,5ec24766fd704d00089a80af,62c53a2e15d6bf4157b6b512,2022-07-06_10h35.24.056,Colour_Asymmetry_Pilot,2022.1.3,Win32,60.03121623,62c50e9c1127f2cd403a315f,0,160,160,25,1,onethree,,,,,,,,,,,,,,,,,,,,,,,,,,,,,,,,,,,,,,,,,,,,,
,,,,,,5ec24766fd704d00089a80af,62c53a2e15d6bf4157b6b512,2022-07-06_10h35.24.056,Colour_Asymmetry_Pilot,2022.1.3,Win32,60.03121623,62c50e9c1127f2cd403a315f,0,161,161,117,1,threefour,,,,,,,,,,,,,,,,,,,,,,,,,,,,,,,,,,,,,,,,,,,,,
,,,,,,5ec24766fd704d00089a80af,62c53a2e15d6bf4157b6b512,2022-07-06_10h35.24.056,Colour_Asymmetry_Pilot,2022.1.3,Win32,60.03121623,62c50e9c1127f2cd403a315f,,,,,,,space,0.8087,space,3.0296,space,0.5207,space,1.1893,space,0.4312,space,0.5516,"[-0.01980000000000004,-0.5138,-0.38039999999999996]",onetwo,"[-0.5922000000000001,-0.7492000000000001,-0.5296000000000001]",3,1.9056,121,54.5,1,0,0,response1disk_5,31,3.5,1,0,0,rectangle_8,31,3.5,1,0,0,1,31,3.5,1,0,0,0,0,0,0,1
