trials.thisRepN,trials.thisTrialN,trials.thisN,trials.thisIndex,trials.ran,Colourcodes,participant,session,date,expName,psychopyVersion,OS,frameRate,study_id,trials_4.thisRepN,trials_4.thisTrialN,trials_4.thisN,trials_4.thisIndex,trials_4.ran,StimulusPos,key_resp.keys,key_resp.rt,key_resp_2.keys,key_resp_2.rt,key_resp_15.keys,key_resp_15.rt,key_resp_17.keys,key_resp_17.rt,key_resp_9.keys,key_resp_9.rt,key_resp_10.keys,key_resp_10.rt,Circle1_col,Ecc,Circle2_col,similarity,response_time,mouse_5.x,mouse_5.y,mouse_5.leftButton,mouse_5.midButton,mouse_5.rightButton,mouse_5.clicked_name,mouse_10.x,mouse_10.y,mouse_10.leftButton,mouse_10.midButton,mouse_10.rightButton,mouse_10.clicked_name,mouse_7.x,mouse_7.y,mouse_7.leftButton,mouse_7.midButton,mouse_7.rightButton,catchnumberprac,mouse_6.x,mouse_6.y,mouse_6.leftButton,mouse_6.midButton,mouse_6.rightButton,duringprac.thisRepN,duringprac.thisTrialN,duringprac.thisN,duringprac.thisIndex,duringprac.ran,mouse_7.clicked_name,catchprac,mouse_6.clicked_name
0,0,0,75,1,,5fc3db936640b163a09d49b8,62c53a731525d49b87c7923a,2022-07-06_10h34.07.091,Colour_Asymmetry_Pilot,2022.1.3,MacIntel,60.0024001,62c50e9c1127f2cd403a315f,,,,,,,,,,,,,,,,,,,,,,,,,,,,,,,,,,,,,,,,,,,,,,,,,,,,,,
0,1,1,61,1,,5fc3db936640b163a09d49b8,62c53a731525d49b87c7923a,2022-07-06_10h34.07.091,Colour_Asymmetry_Pilot,2022.1.3,MacIntel,60.0024001,62c50e9c1127f2cd403a315f,,,,,,,,,,,,,,,,,,,,,,,,,,,,,,,,,,,,,,,,,,,,,,,,,,,,,,
0,2,2,73,1,,5fc3db936640b163a09d49b8,62c53a731525d49b87c7923a,2022-07-06_10h34.07.091,Colour_Asymmetry_Pilot,2022.1.3,MacIntel,60.0024001,62c50e9c1127f2cd403a315f,,,,,,,,,,,,,,,,,,,,,,,,,,,,,,,,,,,,,,,,,,,,,,,,,,,,,,
0,3,3,29,1,,5fc3db936640b163a09d49b8,62c53a731525d49b87c7923a,2022-07-06_10h34.07.091,Colour_Asymmetry_Pilot,2022.1.3,MacIntel,60.0024001,62c50e9c1127f2cd403a315f,,,,,,,,,,,,,,,,,,,,,,,,,,,,,,,,,,,,,,,,,,,,,,,,,,,,,,
0,4,4,22,1,,5fc3db936640b163a09d49b8,62c53a731525d49b87c7923a,2022-07-06_10h34.07.091,Colour_Asymmetry_Pilot,2022.1.3,MacIntel,60.0024001,62c50e9c1127f2cd403a315f,,,,,,,,,,,,,,,,,,,,,,,,,,,,,,,,,,,,,,,,,,,,,,,,,,,,,,
0,5,5,54,1,,5fc3db936640b163a09d49b8,62c53a731525d49b87c7923a,2022-07-06_10h34.07.091,Colour_Asymmetry_Pilot,2022.1.3,MacIntel,60.0024001,62c50e9c1127f2cd403a315f,,,,,,,,,,,,,,,,,,,,,,,,,,,,,,,,,,,,,,,,,,,,,,,,,,,,,,
0,6,6,56,1,,5fc3db936640b163a09d49b8,62c53a731525d49b87c7923a,2022-07-06_10h34.07.091,Colour_Asymmetry_Pilot,2022.1.3,MacIntel,60.0024001,62c50e9c1127f2cd403a315f,,,,,,,,,,,,,,,,,,,,,,,,,,,,,,,,,,,,,,,,,,,,,,,,,,,,,,
0,7,7,40,1,,5fc3db936640b163a09d49b8,62c53a731525d49b87c7923a,2022-07-06_10h34.07.091,Colour_Asymmetry_Pilot,2022.1.3,MacIntel,60.0024001,62c50e9c1127f2cd403a315f,,,,,,,,,,,,,,,,,,,,,,,,,,,,,,,,,,,,,,,,,,,,,,,,,,,,,,
0,8,8,5,1,,5fc3db936640b163a09d49b8,62c53a731525d49b87c7923a,2022-07-06_10h34.07.091,Colour_Asymmetry_Pilot,2022.1.3,MacIntel,60.0024001,62c50e9c1127f2cd403a315f,,,,,,,,,,,,,,,,,,,,,,,,,,,,,,,,,,,,,,,,,,,,,,,,,,,,,,
0,9,9,33,1,,5fc3db936640b163a09d49b8,62c53a731525d49b87c7923a,2022-07-06_10h34.07.091,Colour_Asymmetry_Pilot,2022.1.3,MacIntel,60.0024001,62c50e9c1127f2cd403a315f,,,,,,,,,,,,,,,,,,,,,,,,,,,,,,,,,,,,,,,,,,,,,,,,,,,,,,
0,10,10,13,1,,5fc3db936640b163a09d49b8,62c53a731525d49b87c7923a,2022-07-06_10h34.07.091,Colour_Asymmetry_Pilot,2022.1.3,MacIntel,60.0024001,62c50e9c1127f2cd403a315f,,,,,,,,,,,,,,,,,,,,,,,,,,,,,,,,,,,,,,,,,,,,,,,,,,,,,,
0,11,11,88,1,,5fc3db936640b163a09d49b8,62c53a731525d49b87c7923a,2022-07-06_10h34.07.091,Colour_Asymmetry_Pilot,2022.1.3,MacIntel,60.0024001,62c50e9c1127f2cd403a315f,,,,,,,,,,,,,,,,,,,,,,,,,,,,,,,,,,,,,,,,,,,,,,,,,,,,,,
0,12,12,0,1,,5fc3db936640b163a09d49b8,62c53a731525d49b87c7923a,2022-07-06_10h34.07.091,Colour_Asymmetry_Pilot,2022.1.3,MacIntel,60.0024001,62c50e9c1127f2cd403a315f,,,,,,,,,,,,,,,,,,,,,,,,,,,,,,,,,,,,,,,,,,,,,,,,,,,,,,
0,13,13,67,1,,5fc3db936640b163a09d49b8,62c53a731525d49b87c7923a,2022-07-06_10h34.07.091,Colour_Asymmetry_Pilot,2022.1.3,MacIntel,60.0024001,62c50e9c1127f2cd403a315f,,,,,,,,,,,,,,,,,,,,,,,,,,,,,,,,,,,,,,,,,,,,,,,,,,,,,,
0,14,14,71,1,,5fc3db936640b163a09d49b8,62c53a731525d49b87c7923a,2022-07-06_10h34.07.091,Colour_Asymmetry_Pilot,2022.1.3,MacIntel,60.0024001,62c50e9c1127f2cd403a315f,,,,,,,,,,,,,,,,,,,,,,,,,,,,,,,,,,,,,,,,,,,,,,,,,,,,,,
0,15,15,85,1,,5fc3db936640b163a09d49b8,62c53a731525d49b87c7923a,2022-07-06_10h34.07.091,Colour_Asymmetry_Pilot,2022.1.3,MacIntel,60.0024001,62c50e9c1127f2cd403a315f,,,,,,,,,,,,,,,,,,,,,,,,,,,,,,,,,,,,,,,,,,,,,,,,,,,,,,
0,16,16,50,1,,5fc3db936640b163a09d49b8,62c53a731525d49b87c7923a,2022-07-06_10h34.07.091,Colour_Asymmetry_Pilot,2022.1.3,MacIntel,60.0024001,62c50e9c1127f2cd403a315f,,,,,,,,,,,,,,,,,,,,,,,,,,,,,,,,,,,,,,,,,,,,,,,,,,,,,,
0,17,17,20,1,,5fc3db936640b163a09d49b8,62c53a731525d49b87c7923a,2022-07-06_10h34.07.091,Colour_Asymmetry_Pilot,2022.1.3,MacIntel,60.0024001,62c50e9c1127f2cd403a315f,,,,,,,,,,,,,,,,,,,,,,,,,,,,,,,,,,,,,,,,,,,,,,,,,,,,,,
0,18,18,78,1,,5fc3db936640b163a09d49b8,62c53a731525d49b87c7923a,2022-07-06_10h34.07.091,Colour_Asymmetry_Pilot,2022.1.3,MacIntel,60.0024001,62c50e9c1127f2cd403a315f,,,,,,,,,,,,,,,,,,,,,,,,,,,,,,,,,,,,,,,,,,,,,,,,,,,,,,
0,19,19,66,1,,5fc3db936640b163a09d49b8,62c53a731525d49b87c7923a,2022-07-06_10h34.07.091,Colour_Asymmetry_Pilot,2022.1.3,MacIntel,60.0024001,62c50e9c1127f2cd403a315f,,,,,,,,,,,,,,,,,,,,,,,,,,,,,,,,,,,,,,,,,,,,,,,,,,,,,,
0,20,20,42,1,,5fc3db936640b163a09d49b8,62c53a731525d49b87c7923a,2022-07-06_10h34.07.091,Colour_Asymmetry_Pilot,2022.1.3,MacIntel,60.0024001,62c50e9c1127f2cd403a315f,,,,,,,,,,,,,,,,,,,,,,,,,,,,,,,,,,,,,,,,,,,,,,,,,,,,,,
0,21,21,37,1,,5fc3db936640b163a09d49b8,62c53a731525d49b87c7923a,2022-07-06_10h34.07.091,Colour_Asymmetry_Pilot,2022.1.3,MacIntel,60.0024001,62c50e9c1127f2cd403a315f,,,,,,,,,,,,,,,,,,,,,,,,,,,,,,,,,,,,,,,,,,,,,,,,,,,,,,
0,22,22,7,1,,5fc3db936640b163a09d49b8,62c53a731525d49b87c7923a,2022-07-06_10h34.07.091,Colour_Asymmetry_Pilot,2022.1.3,MacIntel,60.0024001,62c50e9c1127f2cd403a315f,,,,,,,,,,,,,,,,,,,,,,,,,,,,,,,,,,,,,,,,,,,,,,,,,,,,,,
0,23,23,72,1,,5fc3db936640b163a09d49b8,62c53a731525d49b87c7923a,2022-07-06_10h34.07.091,Colour_Asymmetry_Pilot,2022.1.3,MacIntel,60.0024001,62c50e9c1127f2cd403a315f,,,,,,,,,,,,,,,,,,,,,,,,,,,,,,,,,,,,,,,,,,,,,,,,,,,,,,
0,24,24,28,1,,5fc3db936640b163a09d49b8,62c53a731525d49b87c7923a,2022-07-06_10h34.07.091,Colour_Asymmetry_Pilot,2022.1.3,MacIntel,60.0024001,62c50e9c1127f2cd403a315f,,,,,,,,,,,,,,,,,,,,,,,,,,,,,,,,,,,,,,,,,,,,,,,,,,,,,,
0,25,25,44,1,,5fc3db936640b163a09d49b8,62c53a731525d49b87c7923a,2022-07-06_10h34.07.091,Colour_Asymmetry_Pilot,2022.1.3,MacIntel,60.0024001,62c50e9c1127f2cd403a315f,,,,,,,,,,,,,,,,,,,,,,,,,,,,,,,,,,,,,,,,,,,,,,,,,,,,,,
0,26,26,9,1,,5fc3db936640b163a09d49b8,62c53a731525d49b87c7923a,2022-07-06_10h34.07.091,Colour_Asymmetry_Pilot,2022.1.3,MacIntel,60.0024001,62c50e9c1127f2cd403a315f,,,,,,,,,,,,,,,,,,,,,,,,,,,,,,,,,,,,,,,,,,,,,,,,,,,,,,
0,27,27,14,1,,5fc3db936640b163a09d49b8,62c53a731525d49b87c7923a,2022-07-06_10h34.07.091,Colour_Asymmetry_Pilot,2022.1.3,MacIntel,60.0024001,62c50e9c1127f2cd403a315f,,,,,,,,,,,,,,,,,,,,,,,,,,,,,,,,,,,,,,,,,,,,,,,,,,,,,,
0,28,28,47,1,,5fc3db936640b163a09d49b8,62c53a731525d49b87c7923a,2022-07-06_10h34.07.091,Colour_Asymmetry_Pilot,2022.1.3,MacIntel,60.0024001,62c50e9c1127f2cd403a315f,,,,,,,,,,,,,,,,,,,,,,,,,,,,,,,,,,,,,,,,,,,,,,,,,,,,,,
0,29,29,46,1,,5fc3db936640b163a09d49b8,62c53a731525d49b87c7923a,2022-07-06_10h34.07.091,Colour_Asymmetry_Pilot,2022.1.3,MacIntel,60.0024001,62c50e9c1127f2cd403a315f,,,,,,,,,,,,,,,,,,,,,,,,,,,,,,,,,,,,,,,,,,,,,,,,,,,,,,
0,30,30,74,1,,5fc3db936640b163a09d49b8,62c53a731525d49b87c7923a,2022-07-06_10h34.07.091,Colour_Asymmetry_Pilot,2022.1.3,MacIntel,60.0024001,62c50e9c1127f2cd403a315f,,,,,,,,,,,,,,,,,,,,,,,,,,,,,,,,,,,,,,,,,,,,,,,,,,,,,,
0,31,31,45,1,,5fc3db936640b163a09d49b8,62c53a731525d49b87c7923a,2022-07-06_10h34.07.091,Colour_Asymmetry_Pilot,2022.1.3,MacIntel,60.0024001,62c50e9c1127f2cd403a315f,,,,,,,,,,,,,,,,,,,,,,,,,,,,,,,,,,,,,,,,,,,,,,,,,,,,,,
0,32,32,69,1,,5fc3db936640b163a09d49b8,62c53a731525d49b87c7923a,2022-07-06_10h34.07.091,Colour_Asymmetry_Pilot,2022.1.3,MacIntel,60.0024001,62c50e9c1127f2cd403a315f,,,,,,,,,,,,,,,,,,,,,,,,,,,,,,,,,,,,,,,,,,,,,,,,,,,,,,
0,33,33,12,1,,5fc3db936640b163a09d49b8,62c53a731525d49b87c7923a,2022-07-06_10h34.07.091,Colour_Asymmetry_Pilot,2022.1.3,MacIntel,60.0024001,62c50e9c1127f2cd403a315f,,,,,,,,,,,,,,,,,,,,,,,,,,,,,,,,,,,,,,,,,,,,,,,,,,,,,,
0,34,34,58,1,,5fc3db936640b163a09d49b8,62c53a731525d49b87c7923a,2022-07-06_10h34.07.091,Colour_Asymmetry_Pilot,2022.1.3,MacIntel,60.0024001,62c50e9c1127f2cd403a315f,,,,,,,,,,,,,,,,,,,,,,,,,,,,,,,,,,,,,,,,,,,,,,,,,,,,,,
0,35,35,32,1,,5fc3db936640b163a09d49b8,62c53a731525d49b87c7923a,2022-07-06_10h34.07.091,Colour_Asymmetry_Pilot,2022.1.3,MacIntel,60.0024001,62c50e9c1127f2cd403a315f,,,,,,,,,,,,,,,,,,,,,,,,,,,,,,,,,,,,,,,,,,,,,,,,,,,,,,
0,36,36,41,1,,5fc3db936640b163a09d49b8,62c53a731525d49b87c7923a,2022-07-06_10h34.07.091,Colour_Asymmetry_Pilot,2022.1.3,MacIntel,60.0024001,62c50e9c1127f2cd403a315f,,,,,,,,,,,,,,,,,,,,,,,,,,,,,,,,,,,,,,,,,,,,,,,,,,,,,,
0,37,37,39,1,,5fc3db936640b163a09d49b8,62c53a731525d49b87c7923a,2022-07-06_10h34.07.091,Colour_Asymmetry_Pilot,2022.1.3,MacIntel,60.0024001,62c50e9c1127f2cd403a315f,,,,,,,,,,,,,,,,,,,,,,,,,,,,,,,,,,,,,,,,,,,,,,,,,,,,,,
0,38,38,89,1,,5fc3db936640b163a09d49b8,62c53a731525d49b87c7923a,2022-07-06_10h34.07.091,Colour_Asymmetry_Pilot,2022.1.3,MacIntel,60.0024001,62c50e9c1127f2cd403a315f,,,,,,,,,,,,,,,,,,,,,,,,,,,,,,,,,,,,,,,,,,,,,,,,,,,,,,
0,39,39,6,1,,5fc3db936640b163a09d49b8,62c53a731525d49b87c7923a,2022-07-06_10h34.07.091,Colour_Asymmetry_Pilot,2022.1.3,MacIntel,60.0024001,62c50e9c1127f2cd403a315f,,,,,,,,,,,,,,,,,,,,,,,,,,,,,,,,,,,,,,,,,,,,,,,,,,,,,,
0,40,40,84,1,,5fc3db936640b163a09d49b8,62c53a731525d49b87c7923a,2022-07-06_10h34.07.091,Colour_Asymmetry_Pilot,2022.1.3,MacIntel,60.0024001,62c50e9c1127f2cd403a315f,,,,,,,,,,,,,,,,,,,,,,,,,,,,,,,,,,,,,,,,,,,,,,,,,,,,,,
0,41,41,57,1,,5fc3db936640b163a09d49b8,62c53a731525d49b87c7923a,2022-07-06_10h34.07.091,Colour_Asymmetry_Pilot,2022.1.3,MacIntel,60.0024001,62c50e9c1127f2cd403a315f,,,,,,,,,,,,,,,,,,,,,,,,,,,,,,,,,,,,,,,,,,,,,,,,,,,,,,
0,42,42,34,1,,5fc3db936640b163a09d49b8,62c53a731525d49b87c7923a,2022-07-06_10h34.07.091,Colour_Asymmetry_Pilot,2022.1.3,MacIntel,60.0024001,62c50e9c1127f2cd403a315f,,,,,,,,,,,,,,,,,,,,,,,,,,,,,,,,,,,,,,,,,,,,,,,,,,,,,,
0,43,43,38,1,,5fc3db936640b163a09d49b8,62c53a731525d49b87c7923a,2022-07-06_10h34.07.091,Colour_Asymmetry_Pilot,2022.1.3,MacIntel,60.0024001,62c50e9c1127f2cd403a315f,,,,,,,,,,,,,,,,,,,,,,,,,,,,,,,,,,,,,,,,,,,,,,,,,,,,,,
0,44,44,81,1,,5fc3db936640b163a09d49b8,62c53a731525d49b87c7923a,2022-07-06_10h34.07.091,Colour_Asymmetry_Pilot,2022.1.3,MacIntel,60.0024001,62c50e9c1127f2cd403a315f,,,,,,,,,,,,,,,,,,,,,,,,,,,,,,,,,,,,,,,,,,,,,,,,,,,,,,
0,45,45,91,1,,5fc3db936640b163a09d49b8,62c53a731525d49b87c7923a,2022-07-06_10h34.07.091,Colour_Asymmetry_Pilot,2022.1.3,MacIntel,60.0024001,62c50e9c1127f2cd403a315f,,,,,,,,,,,,,,,,,,,,,,,,,,,,,,,,,,,,,,,,,,,,,,,,,,,,,,
0,46,46,35,1,,5fc3db936640b163a09d49b8,62c53a731525d49b87c7923a,2022-07-06_10h34.07.091,Colour_Asymmetry_Pilot,2022.1.3,MacIntel,60.0024001,62c50e9c1127f2cd403a315f,,,,,,,,,,,,,,,,,,,,,,,,,,,,,,,,,,,,,,,,,,,,,,,,,,,,,,
0,47,47,36,1,,5fc3db936640b163a09d49b8,62c53a731525d49b87c7923a,2022-07-06_10h34.07.091,Colour_Asymmetry_Pilot,2022.1.3,MacIntel,60.0024001,62c50e9c1127f2cd403a315f,,,,,,,,,,,,,,,,,,,,,,,,,,,,,,,,,,,,,,,,,,,,,,,,,,,,,,
0,48,48,30,1,,5fc3db936640b163a09d49b8,62c53a731525d49b87c7923a,2022-07-06_10h34.07.091,Colour_Asymmetry_Pilot,2022.1.3,MacIntel,60.0024001,62c50e9c1127f2cd403a315f,,,,,,,,,,,,,,,,,,,,,,,,,,,,,,,,,,,,,,,,,,,,,,,,,,,,,,
0,49,49,31,1,,5fc3db936640b163a09d49b8,62c53a731525d49b87c7923a,2022-07-06_10h34.07.091,Colour_Asymmetry_Pilot,2022.1.3,MacIntel,60.0024001,62c50e9c1127f2cd403a315f,,,,,,,,,,,,,,,,,,,,,,,,,,,,,,,,,,,,,,,,,,,,,,,,,,,,,,
0,50,50,64,1,,5fc3db936640b163a09d49b8,62c53a731525d49b87c7923a,2022-07-06_10h34.07.091,Colour_Asymmetry_Pilot,2022.1.3,MacIntel,60.0024001,62c50e9c1127f2cd403a315f,,,,,,,,,,,,,,,,,,,,,,,,,,,,,,,,,,,,,,,,,,,,,,,,,,,,,,
0,51,51,10,1,,5fc3db936640b163a09d49b8,62c53a731525d49b87c7923a,2022-07-06_10h34.07.091,Colour_Asymmetry_Pilot,2022.1.3,MacIntel,60.0024001,62c50e9c1127f2cd403a315f,,,,,,,,,,,,,,,,,,,,,,,,,,,,,,,,,,,,,,,,,,,,,,,,,,,,,,
0,52,52,49,1,,5fc3db936640b163a09d49b8,62c53a731525d49b87c7923a,2022-07-06_10h34.07.091,Colour_Asymmetry_Pilot,2022.1.3,MacIntel,60.0024001,62c50e9c1127f2cd403a315f,,,,,,,,,,,,,,,,,,,,,,,,,,,,,,,,,,,,,,,,,,,,,,,,,,,,,,
0,53,53,24,1,,5fc3db936640b163a09d49b8,62c53a731525d49b87c7923a,2022-07-06_10h34.07.091,Colour_Asymmetry_Pilot,2022.1.3,MacIntel,60.0024001,62c50e9c1127f2cd403a315f,,,,,,,,,,,,,,,,,,,,,,,,,,,,,,,,,,,,,,,,,,,,,,,,,,,,,,
0,54,54,52,1,,5fc3db936640b163a09d49b8,62c53a731525d49b87c7923a,2022-07-06_10h34.07.091,Colour_Asymmetry_Pilot,2022.1.3,MacIntel,60.0024001,62c50e9c1127f2cd403a315f,,,,,,,,,,,,,,,,,,,,,,,,,,,,,,,,,,,,,,,,,,,,,,,,,,,,,,
0,55,55,18,1,,5fc3db936640b163a09d49b8,62c53a731525d49b87c7923a,2022-07-06_10h34.07.091,Colour_Asymmetry_Pilot,2022.1.3,MacIntel,60.0024001,62c50e9c1127f2cd403a315f,,,,,,,,,,,,,,,,,,,,,,,,,,,,,,,,,,,,,,,,,,,,,,,,,,,,,,
0,56,56,59,1,,5fc3db936640b163a09d49b8,62c53a731525d49b87c7923a,2022-07-06_10h34.07.091,Colour_Asymmetry_Pilot,2022.1.3,MacIntel,60.0024001,62c50e9c1127f2cd403a315f,,,,,,,,,,,,,,,,,,,,,,,,,,,,,,,,,,,,,,,,,,,,,,,,,,,,,,
0,57,57,51,1,,5fc3db936640b163a09d49b8,62c53a731525d49b87c7923a,2022-07-06_10h34.07.091,Colour_Asymmetry_Pilot,2022.1.3,MacIntel,60.0024001,62c50e9c1127f2cd403a315f,,,,,,,,,,,,,,,,,,,,,,,,,,,,,,,,,,,,,,,,,,,,,,,,,,,,,,
0,58,58,79,1,,5fc3db936640b163a09d49b8,62c53a731525d49b87c7923a,2022-07-06_10h34.07.091,Colour_Asymmetry_Pilot,2022.1.3,MacIntel,60.0024001,62c50e9c1127f2cd403a315f,,,,,,,,,,,,,,,,,,,,,,,,,,,,,,,,,,,,,,,,,,,,,,,,,,,,,,
0,59,59,4,1,,5fc3db936640b163a09d49b8,62c53a731525d49b87c7923a,2022-07-06_10h34.07.091,Colour_Asymmetry_Pilot,2022.1.3,MacIntel,60.0024001,62c50e9c1127f2cd403a315f,,,,,,,,,,,,,,,,,,,,,,,,,,,,,,,,,,,,,,,,,,,,,,,,,,,,,,
0,60,60,25,1,,5fc3db936640b163a09d49b8,62c53a731525d49b87c7923a,2022-07-06_10h34.07.091,Colour_Asymmetry_Pilot,2022.1.3,MacIntel,60.0024001,62c50e9c1127f2cd403a315f,,,,,,,,,,,,,,,,,,,,,,,,,,,,,,,,,,,,,,,,,,,,,,,,,,,,,,
0,61,61,76,1,,5fc3db936640b163a09d49b8,62c53a731525d49b87c7923a,2022-07-06_10h34.07.091,Colour_Asymmetry_Pilot,2022.1.3,MacIntel,60.0024001,62c50e9c1127f2cd403a315f,,,,,,,,,,,,,,,,,,,,,,,,,,,,,,,,,,,,,,,,,,,,,,,,,,,,,,
0,62,62,3,1,,5fc3db936640b163a09d49b8,62c53a731525d49b87c7923a,2022-07-06_10h34.07.091,Colour_Asymmetry_Pilot,2022.1.3,MacIntel,60.0024001,62c50e9c1127f2cd403a315f,,,,,,,,,,,,,,,,,,,,,,,,,,,,,,,,,,,,,,,,,,,,,,,,,,,,,,
0,63,63,23,1,,5fc3db936640b163a09d49b8,62c53a731525d49b87c7923a,2022-07-06_10h34.07.091,Colour_Asymmetry_Pilot,2022.1.3,MacIntel,60.0024001,62c50e9c1127f2cd403a315f,,,,,,,,,,,,,,,,,,,,,,,,,,,,,,,,,,,,,,,,,,,,,,,,,,,,,,
0,64,64,53,1,,5fc3db936640b163a09d49b8,62c53a731525d49b87c7923a,2022-07-06_10h34.07.091,Colour_Asymmetry_Pilot,2022.1.3,MacIntel,60.0024001,62c50e9c1127f2cd403a315f,,,,,,,,,,,,,,,,,,,,,,,,,,,,,,,,,,,,,,,,,,,,,,,,,,,,,,
0,65,65,68,1,,5fc3db936640b163a09d49b8,62c53a731525d49b87c7923a,2022-07-06_10h34.07.091,Colour_Asymmetry_Pilot,2022.1.3,MacIntel,60.0024001,62c50e9c1127f2cd403a315f,,,,,,,,,,,,,,,,,,,,,,,,,,,,,,,,,,,,,,,,,,,,,,,,,,,,,,
0,66,66,83,1,,5fc3db936640b163a09d49b8,62c53a731525d49b87c7923a,2022-07-06_10h34.07.091,Colour_Asymmetry_Pilot,2022.1.3,MacIntel,60.0024001,62c50e9c1127f2cd403a315f,,,,,,,,,,,,,,,,,,,,,,,,,,,,,,,,,,,,,,,,,,,,,,,,,,,,,,
0,67,67,19,1,,5fc3db936640b163a09d49b8,62c53a731525d49b87c7923a,2022-07-06_10h34.07.091,Colour_Asymmetry_Pilot,2022.1.3,MacIntel,60.0024001,62c50e9c1127f2cd403a315f,,,,,,,,,,,,,,,,,,,,,,,,,,,,,,,,,,,,,,,,,,,,,,,,,,,,,,
0,68,68,26,1,,5fc3db936640b163a09d49b8,62c53a731525d49b87c7923a,2022-07-06_10h34.07.091,Colour_Asymmetry_Pilot,2022.1.3,MacIntel,60.0024001,62c50e9c1127f2cd403a315f,,,,,,,,,,,,,,,,,,,,,,,,,,,,,,,,,,,,,,,,,,,,,,,,,,,,,,
0,69,69,17,1,,5fc3db936640b163a09d49b8,62c53a731525d49b87c7923a,2022-07-06_10h34.07.091,Colour_Asymmetry_Pilot,2022.1.3,MacIntel,60.0024001,62c50e9c1127f2cd403a315f,,,,,,,,,,,,,,,,,,,,,,,,,,,,,,,,,,,,,,,,,,,,,,,,,,,,,,
0,70,70,80,1,,5fc3db936640b163a09d49b8,62c53a731525d49b87c7923a,2022-07-06_10h34.07.091,Colour_Asymmetry_Pilot,2022.1.3,MacIntel,60.0024001,62c50e9c1127f2cd403a315f,,,,,,,,,,,,,,,,,,,,,,,,,,,,,,,,,,,,,,,,,,,,,,,,,,,,,,
0,71,71,86,1,,5fc3db936640b163a09d49b8,62c53a731525d49b87c7923a,2022-07-06_10h34.07.091,Colour_Asymmetry_Pilot,2022.1.3,MacIntel,60.0024001,62c50e9c1127f2cd403a315f,,,,,,,,,,,,,,,,,,,,,,,,,,,,,,,,,,,,,,,,,,,,,,,,,,,,,,
0,72,72,62,1,,5fc3db936640b163a09d49b8,62c53a731525d49b87c7923a,2022-07-06_10h34.07.091,Colour_Asymmetry_Pilot,2022.1.3,MacIntel,60.0024001,62c50e9c1127f2cd403a315f,,,,,,,,,,,,,,,,,,,,,,,,,,,,,,,,,,,,,,,,,,,,,,,,,,,,,,
0,73,73,55,1,,5fc3db936640b163a09d49b8,62c53a731525d49b87c7923a,2022-07-06_10h34.07.091,Colour_Asymmetry_Pilot,2022.1.3,MacIntel,60.0024001,62c50e9c1127f2cd403a315f,,,,,,,,,,,,,,,,,,,,,,,,,,,,,,,,,,,,,,,,,,,,,,,,,,,,,,
0,74,74,43,1,,5fc3db936640b163a09d49b8,62c53a731525d49b87c7923a,2022-07-06_10h34.07.091,Colour_Asymmetry_Pilot,2022.1.3,MacIntel,60.0024001,62c50e9c1127f2cd403a315f,,,,,,,,,,,,,,,,,,,,,,,,,,,,,,,,,,,,,,,,,,,,,,,,,,,,,,
0,75,75,11,1,,5fc3db936640b163a09d49b8,62c53a731525d49b87c7923a,2022-07-06_10h34.07.091,Colour_Asymmetry_Pilot,2022.1.3,MacIntel,60.0024001,62c50e9c1127f2cd403a315f,,,,,,,,,,,,,,,,,,,,,,,,,,,,,,,,,,,,,,,,,,,,,,,,,,,,,,
0,76,76,16,1,,5fc3db936640b163a09d49b8,62c53a731525d49b87c7923a,2022-07-06_10h34.07.091,Colour_Asymmetry_Pilot,2022.1.3,MacIntel,60.0024001,62c50e9c1127f2cd403a315f,,,,,,,,,,,,,,,,,,,,,,,,,,,,,,,,,,,,,,,,,,,,,,,,,,,,,,
0,77,77,1,1,,5fc3db936640b163a09d49b8,62c53a731525d49b87c7923a,2022-07-06_10h34.07.091,Colour_Asymmetry_Pilot,2022.1.3,MacIntel,60.0024001,62c50e9c1127f2cd403a315f,,,,,,,,,,,,,,,,,,,,,,,,,,,,,,,,,,,,,,,,,,,,,,,,,,,,,,
0,78,78,87,1,,5fc3db936640b163a09d49b8,62c53a731525d49b87c7923a,2022-07-06_10h34.07.091,Colour_Asymmetry_Pilot,2022.1.3,MacIntel,60.0024001,62c50e9c1127f2cd403a315f,,,,,,,,,,,,,,,,,,,,,,,,,,,,,,,,,,,,,,,,,,,,,,,,,,,,,,
0,79,79,2,1,,5fc3db936640b163a09d49b8,62c53a731525d49b87c7923a,2022-07-06_10h34.07.091,Colour_Asymmetry_Pilot,2022.1.3,MacIntel,60.0024001,62c50e9c1127f2cd403a315f,,,,,,,,,,,,,,,,,,,,,,,,,,,,,,,,,,,,,,,,,,,,,,,,,,,,,,
0,80,80,77,1,,5fc3db936640b163a09d49b8,62c53a731525d49b87c7923a,2022-07-06_10h34.07.091,Colour_Asymmetry_Pilot,2022.1.3,MacIntel,60.0024001,62c50e9c1127f2cd403a315f,,,,,,,,,,,,,,,,,,,,,,,,,,,,,,,,,,,,,,,,,,,,,,,,,,,,,,
0,81,81,65,1,,5fc3db936640b163a09d49b8,62c53a731525d49b87c7923a,2022-07-06_10h34.07.091,Colour_Asymmetry_Pilot,2022.1.3,MacIntel,60.0024001,62c50e9c1127f2cd403a315f,,,,,,,,,,,,,,,,,,,,,,,,,,,,,,,,,,,,,,,,,,,,,,,,,,,,,,
0,82,82,8,1,,5fc3db936640b163a09d49b8,62c53a731525d49b87c7923a,2022-07-06_10h34.07.091,Colour_Asymmetry_Pilot,2022.1.3,MacIntel,60.0024001,62c50e9c1127f2cd403a315f,,,,,,,,,,,,,,,,,,,,,,,,,,,,,,,,,,,,,,,,,,,,,,,,,,,,,,
0,83,83,60,1,,5fc3db936640b163a09d49b8,62c53a731525d49b87c7923a,2022-07-06_10h34.07.091,Colour_Asymmetry_Pilot,2022.1.3,MacIntel,60.0024001,62c50e9c1127f2cd403a315f,,,,,,,,,,,,,,,,,,,,,,,,,,,,,,,,,,,,,,,,,,,,,,,,,,,,,,
0,84,84,90,1,,5fc3db936640b163a09d49b8,62c53a731525d49b87c7923a,2022-07-06_10h34.07.091,Colour_Asymmetry_Pilot,2022.1.3,MacIntel,60.0024001,62c50e9c1127f2cd403a315f,,,,,,,,,,,,,,,,,,,,,,,,,,,,,,,,,,,,,,,,,,,,,,,,,,,,,,
0,85,85,70,1,,5fc3db936640b163a09d49b8,62c53a731525d49b87c7923a,2022-07-06_10h34.07.091,Colour_Asymmetry_Pilot,2022.1.3,MacIntel,60.0024001,62c50e9c1127f2cd403a315f,,,,,,,,,,,,,,,,,,,,,,,,,,,,,,,,,,,,,,,,,,,,,,,,,,,,,,
0,86,86,15,1,,5fc3db936640b163a09d49b8,62c53a731525d49b87c7923a,2022-07-06_10h34.07.091,Colour_Asymmetry_Pilot,2022.1.3,MacIntel,60.0024001,62c50e9c1127f2cd403a315f,,,,,,,,,,,,,,,,,,,,,,,,,,,,,,,,,,,,,,,,,,,,,,,,,,,,,,
0,87,87,21,1,,5fc3db936640b163a09d49b8,62c53a731525d49b87c7923a,2022-07-06_10h34.07.091,Colour_Asymmetry_Pilot,2022.1.3,MacIntel,60.0024001,62c50e9c1127f2cd403a315f,,,,,,,,,,,,,,,,,,,,,,,,,,,,,,,,,,,,,,,,,,,,,,,,,,,,,,
0,88,88,92,1,,5fc3db936640b163a09d49b8,62c53a731525d49b87c7923a,2022-07-06_10h34.07.091,Colour_Asymmetry_Pilot,2022.1.3,MacIntel,60.0024001,62c50e9c1127f2cd403a315f,,,,,,,,,,,,,,,,,,,,,,,,,,,,,,,,,,,,,,,,,,,,,,,,,,,,,,
0,89,89,48,1,,5fc3db936640b163a09d49b8,62c53a731525d49b87c7923a,2022-07-06_10h34.07.091,Colour_Asymmetry_Pilot,2022.1.3,MacIntel,60.0024001,62c50e9c1127f2cd403a315f,,,,,,,,,,,,,,,,,,,,,,,,,,,,,,,,,,,,,,,,,,,,,,,,,,,,,,
0,90,90,27,1,,5fc3db936640b163a09d49b8,62c53a731525d49b87c7923a,2022-07-06_10h34.07.091,Colour_Asymmetry_Pilot,2022.1.3,MacIntel,60.0024001,62c50e9c1127f2cd403a315f,,,,,,,,,,,,,,,,,,,,,,,,,,,,,,,,,,,,,,,,,,,,,,,,,,,,,,
0,91,91,63,1,,5fc3db936640b163a09d49b8,62c53a731525d49b87c7923a,2022-07-06_10h34.07.091,Colour_Asymmetry_Pilot,2022.1.3,MacIntel,60.0024001,62c50e9c1127f2cd403a315f,,,,,,,,,,,,,,,,,,,,,,,,,,,,,,,,,,,,,,,,,,,,,,,,,,,,,,
0,92,92,82,1,,5fc3db936640b163a09d49b8,62c53a731525d49b87c7923a,2022-07-06_10h34.07.091,Colour_Asymmetry_Pilot,2022.1.3,MacIntel,60.0024001,62c50e9c1127f2cd403a315f,,,,,,,,,,,,,,,,,,,,,,,,,,,,,,,,,,,,,,,,,,,,,,,,,,,,,,
,,,,,,5fc3db936640b163a09d49b8,62c53a731525d49b87c7923a,2022-07-06_10h34.07.091,Colour_Asymmetry_Pilot,2022.1.3,MacIntel,60.0024001,62c50e9c1127f2cd403a315f,0,0,0,141,1,threefour,,,,,,,,,,,,,,,,,,,,,,,,,,,,,,,,,,,,,,,,,,,,,,,,
,,,,,,5fc3db936640b163a09d49b8,62c53a731525d49b87c7923a,2022-07-06_10h34.07.091,Colour_Asymmetry_Pilot,2022.1.3,MacIntel,60.0024001,62c50e9c1127f2cd403a315f,0,1,1,123,1,twofour,,,,,,,,,,,,,,,,,,,,,,,,,,,,,,,,,,,,,,,,,,,,,,,,
,,,,,,5fc3db936640b163a09d49b8,62c53a731525d49b87c7923a,2022-07-06_10h34.07.091,Colour_Asymmetry_Pilot,2022.1.3,MacIntel,60.0024001,62c50e9c1127f2cd403a315f,0,2,2,133,1,threefour,,,,,,,,,,,,,,,,,,,,,,,,,,,,,,,,,,,,,,,,,,,,,,,,
,,,,,,5fc3db936640b163a09d49b8,62c53a731525d49b87c7923a,2022-07-06_10h34.07.091,Colour_Asymmetry_Pilot,2022.1.3,MacIntel,60.0024001,62c50e9c1127f2cd403a315f,0,3,3,151,1,fourthree,,,,,,,,,,,,,,,,,,,,,,,,,,,,,,,,,,,,,,,,,,,,,,,,
,,,,,,5fc3db936640b163a09d49b8,62c53a731525d49b87c7923a,2022-07-06_10h34.07.091,Colour_Asymmetry_Pilot,2022.1.3,MacIntel,60.0024001,62c50e9c1127f2cd403a315f,0,4,4,130,1,twoone,,,,,,,,,,,,,,,,,,,,,,,,,,,,,,,,,,,,,,,,,,,,,,,,
,,,,,,5fc3db936640b163a09d49b8,62c53a731525d49b87c7923a,2022-07-06_10h34.07.091,Colour_Asymmetry_Pilot,2022.1.3,MacIntel,60.0024001,62c50e9c1127f2cd403a315f,0,5,5,11,1,twofour,,,,,,,,,,,,,,,,,,,,,,,,,,,,,,,,,,,,,,,,,,,,,,,,
,,,,,,5fc3db936640b163a09d49b8,62c53a731525d49b87c7923a,2022-07-06_10h34.07.091,Colour_Asymmetry_Pilot,2022.1.3,MacIntel,60.0024001,62c50e9c1127f2cd403a315f,0,6,6,71,1,fourthree,,,,,,,,,,,,,,,,,,,,,,,,,,,,,,,,,,,,,,,,,,,,,,,,
,,,,,,5fc3db936640b163a09d49b8,62c53a731525d49b87c7923a,2022-07-06_10h34.07.091,Colour_Asymmetry_Pilot,2022.1.3,MacIntel,60.0024001,62c50e9c1127f2cd403a315f,0,7,7,76,1,threeone,,,,,,,,,,,,,,,,,,,,,,,,,,,,,,,,,,,,,,,,,,,,,,,,
,,,,,,5fc3db936640b163a09d49b8,62c53a731525d49b87c7923a,2022-07-06_10h34.07.091,Colour_Asymmetry_Pilot,2022.1.3,MacIntel,60.0024001,62c50e9c1127f2cd403a315f,0,8,8,96,1,onetwo,,,,,,,,,,,,,,,,,,,,,,,,,,,,,,,,,,,,,,,,,,,,,,,,
,,,,,,5fc3db936640b163a09d49b8,62c53a731525d49b87c7923a,2022-07-06_10h34.07.091,Colour_Asymmetry_Pilot,2022.1.3,MacIntel,60.0024001,62c50e9c1127f2cd403a315f,0,9,9,73,1,onethree,,,,,,,,,,,,,,,,,,,,,,,,,,,,,,,,,,,,,,,,,,,,,,,,
,,,,,,5fc3db936640b163a09d49b8,62c53a731525d49b87c7923a,2022-07-06_10h34.07.091,Colour_Asymmetry_Pilot,2022.1.3,MacIntel,60.0024001,62c50e9c1127f2cd403a315f,0,10,10,34,1,twoone,,,,,,,,,,,,,,,,,,,,,,,,,,,,,,,,,,,,,,,,,,,,,,,,
,,,,,,5fc3db936640b163a09d49b8,62c53a731525d49b87c7923a,2022-07-06_10h34.07.091,Colour_Asymmetry_Pilot,2022.1.3,MacIntel,60.0024001,62c50e9c1127f2cd403a315f,0,11,11,41,1,onethree,,,,,,,,,,,,,,,,,,,,,,,,,,,,,,,,,,,,,,,,,,,,,,,,
,,,,,,5fc3db936640b163a09d49b8,62c53a731525d49b87c7923a,2022-07-06_10h34.07.091,Colour_Asymmetry_Pilot,2022.1.3,MacIntel,60.0024001,62c50e9c1127f2cd403a315f,0,12,12,57,1,onethree,,,,,,,,,,,,,,,,,,,,,,,,,,,,,,,,,,,,,,,,,,,,,,,,
,,,,,,5fc3db936640b163a09d49b8,62c53a731525d49b87c7923a,2022-07-06_10h34.07.091,Colour_Asymmetry_Pilot,2022.1.3,MacIntel,60.0024001,62c50e9c1127f2cd403a315f,0,13,13,23,1,fourthree,,,,,,,,,,,,,,,,,,,,,,,,,,,,,,,,,,,,,,,,,,,,,,,,
,,,,,,5fc3db936640b163a09d49b8,62c53a731525d49b87c7923a,2022-07-06_10h34.07.091,Colour_Asymmetry_Pilot,2022.1.3,MacIntel,60.0024001,62c50e9c1127f2cd403a315f,0,14,14,38,1,fourtwo,,,,,,,,,,,,,,,,,,,,,,,,,,,,,,,,,,,,,,,,,,,,,,,,
,,,,,,5fc3db936640b163a09d49b8,62c53a731525d49b87c7923a,2022-07-06_10h34.07.091,Colour_Asymmetry_Pilot,2022.1.3,MacIntel,60.0024001,62c50e9c1127f2cd403a315f,0,15,15,61,1,threefour,,,,,,,,,,,,,,,,,,,,,,,,,,,,,,,,,,,,,,,,,,,,,,,,
,,,,,,5fc3db936640b163a09d49b8,62c53a731525d49b87c7923a,2022-07-06_10h34.07.091,Colour_Asymmetry_Pilot,2022.1.3,MacIntel,60.0024001,62c50e9c1127f2cd403a315f,0,16,16,136,1,onetwo,,,,,,,,,,,,,,,,,,,,,,,,,,,,,,,,,,,,,,,,,,,,,,,,
,,,,,,5fc3db936640b163a09d49b8,62c53a731525d49b87c7923a,2022-07-06_10h34.07.091,Colour_Asymmetry_Pilot,2022.1.3,MacIntel,60.0024001,62c50e9c1127f2cd403a315f,0,17,17,59,1,twofour,,,,,,,,,,,,,,,,,,,,,,,,,,,,,,,,,,,,,,,,,,,,,,,,
,,,,,,5fc3db936640b163a09d49b8,62c53a731525d49b87c7923a,2022-07-06_10h34.07.091,Colour_Asymmetry_Pilot,2022.1.3,MacIntel,60.0024001,62c50e9c1127f2cd403a315f,0,18,18,148,1,threeone,,,,,,,,,,,,,,,,,,,,,,,,,,,,,,,,,,,,,,,,,,,,,,,,
,,,,,,5fc3db936640b163a09d49b8,62c53a731525d49b87c7923a,2022-07-06_10h34.07.091,Colour_Asymmetry_Pilot,2022.1.3,MacIntel,60.0024001,62c50e9c1127f2cd403a315f,0,19,19,144,1,onetwo,,,,,,,,,,,,,,,,,,,,,,,,,,,,,,,,,,,,,,,,,,,,,,,,
,,,,,,5fc3db936640b163a09d49b8,62c53a731525d49b87c7923a,2022-07-06_10h34.07.091,Colour_Asymmetry_Pilot,2022.1.3,MacIntel,60.0024001,62c50e9c1127f2cd403a315f,0,20,20,125,1,threefour,,,,,,,,,,,,,,,,,,,,,,,,,,,,,,,,,,,,,,,,,,,,,,,,
,,,,,,5fc3db936640b163a09d49b8,62c53a731525d49b87c7923a,2022-07-06_10h34.07.091,Colour_Asymmetry_Pilot,2022.1.3,MacIntel,60.0024001,62c50e9c1127f2cd403a315f,0,21,21,154,1,twoone,,,,,,,,,,,,,,,,,,,,,,,,,,,,,,,,,,,,,,,,,,,,,,,,
,,,,,,5fc3db936640b163a09d49b8,62c53a731525d49b87c7923a,2022-07-06_10h34.07.091,Colour_Asymmetry_Pilot,2022.1.3,MacIntel,60.0024001,62c50e9c1127f2cd403a315f,0,22,22,47,1,fourthree,,,,,,,,,,,,,,,,,,,,,,,,,,,,,,,,,,,,,,,,,,,,,,,,
,,,,,,5fc3db936640b163a09d49b8,62c53a731525d49b87c7923a,2022-07-06_10h34.07.091,Colour_Asymmetry_Pilot,2022.1.3,MacIntel,60.0024001,62c50e9c1127f2cd403a315f,0,23,23,63,1,fourthree,,,,,,,,,,,,,,,,,,,,,,,,,,,,,,,,,,,,,,,,,,,,,,,,
,,,,,,5fc3db936640b163a09d49b8,62c53a731525d49b87c7923a,2022-07-06_10h34.07.091,Colour_Asymmetry_Pilot,2022.1.3,MacIntel,60.0024001,62c50e9c1127f2cd403a315f,0,24,24,102,1,fourtwo,,,,,,,,,,,,,,,,,,,,,,,,,,,,,,,,,,,,,,,,,,,,,,,,
,,,,,,5fc3db936640b163a09d49b8,62c53a731525d49b87c7923a,2022-07-06_10h34.07.091,Colour_Asymmetry_Pilot,2022.1.3,MacIntel,60.0024001,62c50e9c1127f2cd403a315f,0,25,25,128,1,onetwo,,,,,,,,,,,,,,,,,,,,,,,,,,,,,,,,,,,,,,,,,,,,,,,,
,,,,,,5fc3db936640b163a09d49b8,62c53a731525d49b87c7923a,2022-07-06_10h34.07.091,Colour_Asymmetry_Pilot,2022.1.3,MacIntel,60.0024001,62c50e9c1127f2cd403a315f,0,26,26,105,1,onethree,,,,,,,,,,,,,,,,,,,,,,,,,,,,,,,,,,,,,,,,,,,,,,,,
,,,,,,5fc3db936640b163a09d49b8,62c53a731525d49b87c7923a,2022-07-06_10h34.07.091,Colour_Asymmetry_Pilot,2022.1.3,MacIntel,60.0024001,62c50e9c1127f2cd403a315f,0,27,27,7,1,fourthree,,,,,,,,,,,,,,,,,,,,,,,,,,,,,,,,,,,,,,,,,,,,,,,,
,,,,,,5fc3db936640b163a09d49b8,62c53a731525d49b87c7923a,2022-07-06_10h34.07.091,Colour_Asymmetry_Pilot,2022.1.3,MacIntel,60.0024001,62c50e9c1127f2cd403a315f,0,28,28,139,1,twofour,,,,,,,,,,,,,,,,,,,,,,,,,,,,,,,,,,,,,,,,,,,,,,,,
,,,,,,5fc3db936640b163a09d49b8,62c53a731525d49b87c7923a,2022-07-06_10h34.07.091,Colour_Asymmetry_Pilot,2022.1.3,MacIntel,60.0024001,62c50e9c1127f2cd403a315f,0,29,29,103,1,fourthree,,,,,,,,,,,,,,,,,,,,,,,,,,,,,,,,,,,,,,,,,,,,,,,,
,,,,,,5fc3db936640b163a09d49b8,62c53a731525d49b87c7923a,2022-07-06_10h34.07.091,Colour_Asymmetry_Pilot,2022.1.3,MacIntel,60.0024001,62c50e9c1127f2cd403a315f,0,30,30,110,1,fourtwo,,,,,,,,,,,,,,,,,,,,,,,,,,,,,,,,,,,,,,,,,,,,,,,,
,,,,,,5fc3db936640b163a09d49b8,62c53a731525d49b87c7923a,2022-07-06_10h34.07.091,Colour_Asymmetry_Pilot,2022.1.3,MacIntel,60.0024001,62c50e9c1127f2cd403a315f,0,31,31,36,1,threeone,,,,,,,,,,,,,,,,,,,,,,,,,,,,,,,,,,,,,,,,,,,,,,,,
,,,,,,5fc3db936640b163a09d49b8,62c53a731525d49b87c7923a,2022-07-06_10h34.07.091,Colour_Asymmetry_Pilot,2022.1.3,MacIntel,60.0024001,62c50e9c1127f2cd403a315f,0,32,32,40,1,onetwo,,,,,,,,,,,,,,,,,,,,,,,,,,,,,,,,,,,,,,,,,,,,,,,,
,,,,,,5fc3db936640b163a09d49b8,62c53a731525d49b87c7923a,2022-07-06_10h34.07.091,Colour_Asymmetry_Pilot,2022.1.3,MacIntel,60.0024001,62c50e9c1127f2cd403a315f,0,33,33,13,1,threefour,,,,,,,,,,,,,,,,,,,,,,,,,,,,,,,,,,,,,,,,,,,,,,,,
,,,,,,5fc3db936640b163a09d49b8,62c53a731525d49b87c7923a,2022-07-06_10h34.07.091,Colour_Asymmetry_Pilot,2022.1.3,MacIntel,60.0024001,62c50e9c1127f2cd403a315f,0,34,34,55,1,fourthree,,,,,,,,,,,,,,,,,,,,,,,,,,,,,,,,,,,,,,,,,,,,,,,,
,,,,,,5fc3db936640b163a09d49b8,62c53a731525d49b87c7923a,2022-07-06_10h34.07.091,Colour_Asymmetry_Pilot,2022.1.3,MacIntel,60.0024001,62c50e9c1127f2cd403a315f,0,35,35,39,1,fourthree,,,,,,,,,,,,,,,,,,,,,,,,,,,,,,,,,,,,,,,,,,,,,,,,
,,,,,,5fc3db936640b163a09d49b8,62c53a731525d49b87c7923a,2022-07-06_10h34.07.091,Colour_Asymmetry_Pilot,2022.1.3,MacIntel,60.0024001,62c50e9c1127f2cd403a315f,0,36,36,99,1,twofour,,,,,,,,,,,,,,,,,,,,,,,,,,,,,,,,,,,,,,,,,,,,,,,,
,,,,,,5fc3db936640b163a09d49b8,62c53a731525d49b87c7923a,2022-07-06_10h34.07.091,Colour_Asymmetry_Pilot,2022.1.3,MacIntel,60.0024001,62c50e9c1127f2cd403a315f,0,37,37,146,1,twoone,,,,,,,,,,,,,,,,,,,,,,,,,,,,,,,,,,,,,,,,,,,,,,,,
,,,,,,5fc3db936640b163a09d49b8,62c53a731525d49b87c7923a,2022-07-06_10h34.07.091,Colour_Asymmetry_Pilot,2022.1.3,MacIntel,60.0024001,62c50e9c1127f2cd403a315f,0,38,38,122,1,twoone,,,,,,,,,,,,,,,,,,,,,,,,,,,,,,,,,,,,,,,,,,,,,,,,
,,,,,,5fc3db936640b163a09d49b8,62c53a731525d49b87c7923a,2022-07-06_10h34.07.091,Colour_Asymmetry_Pilot,2022.1.3,MacIntel,60.0024001,62c50e9c1127f2cd403a315f,0,39,39,153,1,onethree,,,,,,,,,,,,,,,,,,,,,,,,,,,,,,,,,,,,,,,,,,,,,,,,
,,,,,,5fc3db936640b163a09d49b8,62c53a731525d49b87c7923a,2022-07-06_10h34.07.091,Colour_Asymmetry_Pilot,2022.1.3,MacIntel,60.0024001,62c50e9c1127f2cd403a315f,0,40,40,26,1,twoone,,,,,,,,,,,,,,,,,,,,,,,,,,,,,,,,,,,,,,,,,,,,,,,,
,,,,,,5fc3db936640b163a09d49b8,62c53a731525d49b87c7923a,2022-07-06_10h34.07.091,Colour_Asymmetry_Pilot,2022.1.3,MacIntel,60.0024001,62c50e9c1127f2cd403a315f,0,41,41,131,1,twofour,,,,,,,,,,,,,,,,,,,,,,,,,,,,,,,,,,,,,,,,,,,,,,,,
,,,,,,5fc3db936640b163a09d49b8,62c53a731525d49b87c7923a,2022-07-06_10h34.07.091,Colour_Asymmetry_Pilot,2022.1.3,MacIntel,60.0024001,62c50e9c1127f2cd403a315f,0,42,42,5,1,threefour,,,,,,,,,,,,,,,,,,,,,,,,,,,,,,,,,,,,,,,,,,,,,,,,
,,,,,,5fc3db936640b163a09d49b8,62c53a731525d49b87c7923a,2022-07-06_10h34.07.091,Colour_Asymmetry_Pilot,2022.1.3,MacIntel,60.0024001,62c50e9c1127f2cd403a315f,0,43,43,46,1,fourtwo,,,,,,,,,,,,,,,,,,,,,,,,,,,,,,,,,,,,,,,,,,,,,,,,
,,,,,,5fc3db936640b163a09d49b8,62c53a731525d49b87c7923a,2022-07-06_10h34.07.091,Colour_Asymmetry_Pilot,2022.1.3,MacIntel,60.0024001,62c50e9c1127f2cd403a315f,0,44,44,152,1,onetwo,,,,,,,,,,,,,,,,,,,,,,,,,,,,,,,,,,,,,,,,,,,,,,,,
,,,,,,5fc3db936640b163a09d49b8,62c53a731525d49b87c7923a,2022-07-06_10h34.07.091,Colour_Asymmetry_Pilot,2022.1.3,MacIntel,60.0024001,62c50e9c1127f2cd403a315f,0,45,45,134,1,fourtwo,,,,,,,,,,,,,,,,,,,,,,,,,,,,,,,,,,,,,,,,,,,,,,,,
,,,,,,5fc3db936640b163a09d49b8,62c53a731525d49b87c7923a,2022-07-06_10h34.07.091,Colour_Asymmetry_Pilot,2022.1.3,MacIntel,60.0024001,62c50e9c1127f2cd403a315f,0,46,46,119,1,fourthree,,,,,,,,,,,,,,,,,,,,,,,,,,,,,,,,,,,,,,,,,,,,,,,,
,,,,,,5fc3db936640b163a09d49b8,62c53a731525d49b87c7923a,2022-07-06_10h34.07.091,Colour_Asymmetry_Pilot,2022.1.3,MacIntel,60.0024001,62c50e9c1127f2cd403a315f,0,47,47,21,1,threefour,,,,,,,,,,,,,,,,,,,,,,,,,,,,,,,,,,,,,,,,,,,,,,,,
,,,,,,5fc3db936640b163a09d49b8,62c53a731525d49b87c7923a,2022-07-06_10h34.07.091,Colour_Asymmetry_Pilot,2022.1.3,MacIntel,60.0024001,62c50e9c1127f2cd403a315f,0,48,48,97,1,onethree,,,,,,,,,,,,,,,,,,,,,,,,,,,,,,,,,,,,,,,,,,,,,,,,
,,,,,,5fc3db936640b163a09d49b8,62c53a731525d49b87c7923a,2022-07-06_10h34.07.091,Colour_Asymmetry_Pilot,2022.1.3,MacIntel,60.0024001,62c50e9c1127f2cd403a315f,0,49,49,33,1,onethree,,,,,,,,,,,,,,,,,,,,,,,,,,,,,,,,,,,,,,,,,,,,,,,,
,,,,,,5fc3db936640b163a09d49b8,62c53a731525d49b87c7923a,2022-07-06_10h34.07.091,Colour_Asymmetry_Pilot,2022.1.3,MacIntel,60.0024001,62c50e9c1127f2cd403a315f,0,50,50,6,1,fourtwo,,,,,,,,,,,,,,,,,,,,,,,,,,,,,,,,,,,,,,,,,,,,,,,,
,,,,,,5fc3db936640b163a09d49b8,62c53a731525d49b87c7923a,2022-07-06_10h34.07.091,Colour_Asymmetry_Pilot,2022.1.3,MacIntel,60.0024001,62c50e9c1127f2cd403a315f,0,51,51,2,1,twoone,,,,,,,,,,,,,,,,,,,,,,,,,,,,,,,,,,,,,,,,,,,,,,,,
,,,,,,5fc3db936640b163a09d49b8,62c53a731525d49b87c7923a,2022-07-06_10h34.07.091,Colour_Asymmetry_Pilot,2022.1.3,MacIntel,60.0024001,62c50e9c1127f2cd403a315f,0,52,52,112,1,onetwo,,,,,,,,,,,,,,,,,,,,,,,,,,,,,,,,,,,,,,,,,,,,,,,,
,,,,,,5fc3db936640b163a09d49b8,62c53a731525d49b87c7923a,2022-07-06_10h34.07.091,Colour_Asymmetry_Pilot,2022.1.3,MacIntel,60.0024001,62c50e9c1127f2cd403a315f,0,53,53,142,1,fourtwo,,,,,,,,,,,,,,,,,,,,,,,,,,,,,,,,,,,,,,,,,,,,,,,,
,,,,,,5fc3db936640b163a09d49b8,62c53a731525d49b87c7923a,2022-07-06_10h34.07.091,Colour_Asymmetry_Pilot,2022.1.3,MacIntel,60.0024001,62c50e9c1127f2cd403a315f,0,54,54,114,1,twoone,,,,,,,,,,,,,,,,,,,,,,,,,,,,,,,,,,,,,,,,,,,,,,,,
,,,,,,5fc3db936640b163a09d49b8,62c53a731525d49b87c7923a,2022-07-06_10h34.07.091,Colour_Asymmetry_Pilot,2022.1.3,MacIntel,60.0024001,62c50e9c1127f2cd403a315f,0,55,55,135,1,fourthree,,,,,,,,,,,,,,,,,,,,,,,,,,,,,,,,,,,,,,,,,,,,,,,,
,,,,,,5fc3db936640b163a09d49b8,62c53a731525d49b87c7923a,2022-07-06_10h34.07.091,Colour_Asymmetry_Pilot,2022.1.3,MacIntel,60.0024001,62c50e9c1127f2cd403a315f,0,56,56,25,1,onethree,,,,,,,,,,,,,,,,,,,,,,,,,,,,,,,,,,,,,,,,,,,,,,,,
,,,,,,5fc3db936640b163a09d49b8,62c53a731525d49b87c7923a,2022-07-06_10h34.07.091,Colour_Asymmetry_Pilot,2022.1.3,MacIntel,60.0024001,62c50e9c1127f2cd403a315f,0,57,57,28,1,threeone,,,,,,,,,,,,,,,,,,,,,,,,,,,,,,,,,,,,,,,,,,,,,,,,
,,,,,,5fc3db936640b163a09d49b8,62c53a731525d49b87c7923a,2022-07-06_10h34.07.091,Colour_Asymmetry_Pilot,2022.1.3,MacIntel,60.0024001,62c50e9c1127f2cd403a315f,0,58,58,81,1,onethree,,,,,,,,,,,,,,,,,,,,,,,,,,,,,,,,,,,,,,,,,,,,,,,,
,,,,,,5fc3db936640b163a09d49b8,62c53a731525d49b87c7923a,2022-07-06_10h34.07.091,Colour_Asymmetry_Pilot,2022.1.3,MacIntel,60.0024001,62c50e9c1127f2cd403a315f,0,59,59,52,1,threeone,,,,,,,,,,,,,,,,,,,,,,,,,,,,,,,,,,,,,,,,,,,,,,,,
,,,,,,5fc3db936640b163a09d49b8,62c53a731525d49b87c7923a,2022-07-06_10h34.07.091,Colour_Asymmetry_Pilot,2022.1.3,MacIntel,60.0024001,62c50e9c1127f2cd403a315f,0,60,60,161,1,onethree,,,,,,,,,,,,,,,,,,,,,,,,,,,,,,,,,,,,,,,,,,,,,,,,
,,,,,,5fc3db936640b163a09d49b8,62c53a731525d49b87c7923a,2022-07-06_10h34.07.091,Colour_Asymmetry_Pilot,2022.1.3,MacIntel,60.0024001,62c50e9c1127f2cd403a315f,0,61,61,149,1,threefour,,,,,,,,,,,,,,,,,,,,,,,,,,,,,,,,,,,,,,,,,,,,,,,,
,,,,,,5fc3db936640b163a09d49b8,62c53a731525d49b87c7923a,2022-07-06_10h34.07.091,Colour_Asymmetry_Pilot,2022.1.3,MacIntel,60.0024001,62c50e9c1127f2cd403a315f,0,62,62,155,1,twofour,,,,,,,,,,,,,,,,,,,,,,,,,,,,,,,,,,,,,,,,,,,,,,,,
,,,,,,5fc3db936640b163a09d49b8,62c53a731525d49b87c7923a,2022-07-06_10h34.07.091,Colour_Asymmetry_Pilot,2022.1.3,MacIntel,60.0024001,62c50e9c1127f2cd403a315f,0,63,63,132,1,threeone,,,,,,,,,,,,,,,,,,,,,,,,,,,,,,,,,,,,,,,,,,,,,,,,
,,,,,,5fc3db936640b163a09d49b8,62c53a731525d49b87c7923a,2022-07-06_10h34.07.091,Colour_Asymmetry_Pilot,2022.1.3,MacIntel,60.0024001,62c50e9c1127f2cd403a315f,0,64,64,90,1,twoone,,,,,,,,,,,,,,,,,,,,,,,,,,,,,,,,,,,,,,,,,,,,,,,,
,,,,,,5fc3db936640b163a09d49b8,62c53a731525d49b87c7923a,2022-07-06_10h34.07.091,Colour_Asymmetry_Pilot,2022.1.3,MacIntel,60.0024001,62c50e9c1127f2cd403a315f,0,65,65,127,1,fourthree,,,,,,,,,,,,,,,,,,,,,,,,,,,,,,,,,,,,,,,,,,,,,,,,
,,,,,,5fc3db936640b163a09d49b8,62c53a731525d49b87c7923a,2022-07-06_10h34.07.091,Colour_Asymmetry_Pilot,2022.1.3,MacIntel,60.0024001,62c50e9c1127f2cd403a315f,0,66,66,24,1,onetwo,,,,,,,,,,,,,,,,,,,,,,,,,,,,,,,,,,,,,,,,,,,,,,,,
,,,,,,5fc3db936640b163a09d49b8,62c53a731525d49b87c7923a,2022-07-06_10h34.07.091,Colour_Asymmetry_Pilot,2022.1.3,MacIntel,60.0024001,62c50e9c1127f2cd403a315f,0,67,67,106,1,twoone,,,,,,,,,,,,,,,,,,,,,,,,,,,,,,,,,,,,,,,,,,,,,,,,
,,,,,,5fc3db936640b163a09d49b8,62c53a731525d49b87c7923a,2022-07-06_10h34.07.091,Colour_Asymmetry_Pilot,2022.1.3,MacIntel,60.0024001,62c50e9c1127f2cd403a315f,0,68,68,156,1,threeone,,,,,,,,,,,,,,,,,,,,,,,,,,,,,,,,,,,,,,,,,,,,,,,,
,,,,,,5fc3db936640b163a09d49b8,62c53a731525d49b87c7923a,2022-07-06_10h34.07.091,Colour_Asymmetry_Pilot,2022.1.3,MacIntel,60.0024001,62c50e9c1127f2cd403a315f,0,69,69,108,1,threeone,,,,,,,,,,,,,,,,,,,,,,,,,,,,,,,,,,,,,,,,,,,,,,,,
,,,,,,5fc3db936640b163a09d49b8,62c53a731525d49b87c7923a,2022-07-06_10h34.07.091,Colour_Asymmetry_Pilot,2022.1.3,MacIntel,60.0024001,62c50e9c1127f2cd403a315f,0,70,70,68,1,threeone,,,,,,,,,,,,,,,,,,,,,,,,,,,,,,,,,,,,,,,,,,,,,,,,
,,,,,,5fc3db936640b163a09d49b8,62c53a731525d49b87c7923a,2022-07-06_10h34.07.091,Colour_Asymmetry_Pilot,2022.1.3,MacIntel,60.0024001,62c50e9c1127f2cd403a315f,0,71,71,10,1,twoone,,,,,,,,,,,,,,,,,,,,,,,,,,,,,,,,,,,,,,,,,,,,,,,,
,,,,,,5fc3db936640b163a09d49b8,62c53a731525d49b87c7923a,2022-07-06_10h34.07.091,Colour_Asymmetry_Pilot,2022.1.3,MacIntel,60.0024001,62c50e9c1127f2cd403a315f,0,72,72,145,1,onethree,,,,,,,,,,,,,,,,,,,,,,,,,,,,,,,,,,,,,,,,,,,,,,,,
,,,,,,5fc3db936640b163a09d49b8,62c53a731525d49b87c7923a,2022-07-06_10h34.07.091,Colour_Asymmetry_Pilot,2022.1.3,MacIntel,60.0024001,62c50e9c1127f2cd403a315f,0,73,73,43,1,twofour,,,,,,,,,,,,,,,,,,,,,,,,,,,,,,,,,,,,,,,,,,,,,,,,
,,,,,,5fc3db936640b163a09d49b8,62c53a731525d49b87c7923a,2022-07-06_10h34.07.091,Colour_Asymmetry_Pilot,2022.1.3,MacIntel,60.0024001,62c50e9c1127f2cd403a315f,0,74,74,126,1,fourtwo,,,,,,,,,,,,,,,,,,,,,,,,,,,,,,,,,,,,,,,,,,,,,,,,
,,,,,,5fc3db936640b163a09d49b8,62c53a731525d49b87c7923a,2022-07-06_10h34.07.091,Colour_Asymmetry_Pilot,2022.1.3,MacIntel,60.0024001,62c50e9c1127f2cd403a315f,0,75,75,14,1,fourtwo,,,,,,,,,,,,,,,,,,,,,,,,,,,,,,,,,,,,,,,,,,,,,,,,
,,,,,,5fc3db936640b163a09d49b8,62c53a731525d49b87c7923a,2022-07-06_10h34.07.091,Colour_Asymmetry_Pilot,2022.1.3,MacIntel,60.0024001,62c50e9c1127f2cd403a315f,0,76,76,60,1,threeone,,,,,,,,,,,,,,,,,,,,,,,,,,,,,,,,,,,,,,,,,,,,,,,,
,,,,,,5fc3db936640b163a09d49b8,62c53a731525d49b87c7923a,2022-07-06_10h34.07.091,Colour_Asymmetry_Pilot,2022.1.3,MacIntel,60.0024001,62c50e9c1127f2cd403a315f,0,77,77,45,1,threefour,,,,,,,,,,,,,,,,,,,,,,,,,,,,,,,,,,,,,,,,,,,,,,,,
,,,,,,5fc3db936640b163a09d49b8,62c53a731525d49b87c7923a,2022-07-06_10h34.07.091,Colour_Asymmetry_Pilot,2022.1.3,MacIntel,60.0024001,62c50e9c1127f2cd403a315f,0,78,78,95,1,fourthree,,,,,,,,,,,,,,,,,,,,,,,,,,,,,,,,,,,,,,,,,,,,,,,,
,,,,,,5fc3db936640b163a09d49b8,62c53a731525d49b87c7923a,2022-07-06_10h34.07.091,Colour_Asymmetry_Pilot,2022.1.3,MacIntel,60.0024001,62c50e9c1127f2cd403a315f,0,79,79,78,1,fourtwo,,,,,,,,,,,,,,,,,,,,,,,,,,,,,,,,,,,,,,,,,,,,,,,,
,,,,,,5fc3db936640b163a09d49b8,62c53a731525d49b87c7923a,2022-07-06_10h34.07.091,Colour_Asymmetry_Pilot,2022.1.3,MacIntel,60.0024001,62c50e9c1127f2cd403a315f,0,80,80,53,1,threefour,,,,,,,,,,,,,,,,,,,,,,,,,,,,,,,,,,,,,,,,,,,,,,,,
,,,,,,5fc3db936640b163a09d49b8,62c53a731525d49b87c7923a,2022-07-06_10h34.07.091,Colour_Asymmetry_Pilot,2022.1.3,MacIntel,60.0024001,62c50e9c1127f2cd403a315f,0,81,81,9,1,onethree,,,,,,,,,,,,,,,,,,,,,,,,,,,,,,,,,,,,,,,,,,,,,,,,
,,,,,,5fc3db936640b163a09d49b8,62c53a731525d49b87c7923a,2022-07-06_10h34.07.091,Colour_Asymmetry_Pilot,2022.1.3,MacIntel,60.0024001,62c50e9c1127f2cd403a315f,0,82,82,65,1,onethree,,,,,,,,,,,,,,,,,,,,,,,,,,,,,,,,,,,,,,,,,,,,,,,,
,,,,,,5fc3db936640b163a09d49b8,62c53a731525d49b87c7923a,2022-07-06_10h34.07.091,Colour_Asymmetry_Pilot,2022.1.3,MacIntel,60.0024001,62c50e9c1127f2cd403a315f,0,83,83,101,1,threefour,,,,,,,,,,,,,,,,,,,,,,,,,,,,,,,,,,,,,,,,,,,,,,,,
,,,,,,5fc3db936640b163a09d49b8,62c53a731525d49b87c7923a,2022-07-06_10h34.07.091,Colour_Asymmetry_Pilot,2022.1.3,MacIntel,60.0024001,62c50e9c1127f2cd403a315f,0,84,84,31,1,fourthree,,,,,,,,,,,,,,,,,,,,,,,,,,,,,,,,,,,,,,,,,,,,,,,,
,,,,,,5fc3db936640b163a09d49b8,62c53a731525d49b87c7923a,2022-07-06_10h34.07.091,Colour_Asymmetry_Pilot,2022.1.3,MacIntel,60.0024001,62c50e9c1127f2cd403a315f,0,85,85,58,1,twoone,,,,,,,,,,,,,,,,,,,,,,,,,,,,,,,,,,,,,,,,,,,,,,,,
,,,,,,5fc3db936640b163a09d49b8,62c53a731525d49b87c7923a,2022-07-06_10h34.07.091,Colour_Asymmetry_Pilot,2022.1.3,MacIntel,60.0024001,62c50e9c1127f2cd403a315f,0,86,86,37,1,threefour,,,,,,,,,,,,,,,,,,,,,,,,,,,,,,,,,,,,,,,,,,,,,,,,
,,,,,,5fc3db936640b163a09d49b8,62c53a731525d49b87c7923a,2022-07-06_10h34.07.091,Colour_Asymmetry_Pilot,2022.1.3,MacIntel,60.0024001,62c50e9c1127f2cd403a315f,0,87,87,8,1,onetwo,,,,,,,,,,,,,,,,,,,,,,,,,,,,,,,,,,,,,,,,,,,,,,,,
,,,,,,5fc3db936640b163a09d49b8,62c53a731525d49b87c7923a,2022-07-06_10h34.07.091,Colour_Asymmetry_Pilot,2022.1.3,MacIntel,60.0024001,62c50e9c1127f2cd403a315f,0,88,88,109,1,threefour,,,,,,,,,,,,,,,,,,,,,,,,,,,,,,,,,,,,,,,,,,,,,,,,
,,,,,,5fc3db936640b163a09d49b8,62c53a731525d49b87c7923a,2022-07-06_10h34.07.091,Colour_Asymmetry_Pilot,2022.1.3,MacIntel,60.0024001,62c50e9c1127f2cd403a315f,0,89,89,16,1,onetwo,,,,,,,,,,,,,,,,,,,,,,,,,,,,,,,,,,,,,,,,,,,,,,,,
,,,,,,5fc3db936640b163a09d49b8,62c53a731525d49b87c7923a,2022-07-06_10h34.07.091,Colour_Asymmetry_Pilot,2022.1.3,MacIntel,60.0024001,62c50e9c1127f2cd403a315f,0,90,90,111,1,fourthree,,,,,,,,,,,,,,,,,,,,,,,,,,,,,,,,,,,,,,,,,,,,,,,,
,,,,,,5fc3db936640b163a09d49b8,62c53a731525d49b87c7923a,2022-07-06_10h34.07.091,Colour_Asymmetry_Pilot,2022.1.3,MacIntel,60.0024001,62c50e9c1127f2cd403a315f,0,91,91,82,1,twoone,,,,,,,,,,,,,,,,,,,,,,,,,,,,,,,,,,,,,,,,,,,,,,,,
,,,,,,5fc3db936640b163a09d49b8,62c53a731525d49b87c7923a,2022-07-06_10h34.07.091,Colour_Asymmetry_Pilot,2022.1.3,MacIntel,60.0024001,62c50e9c1127f2cd403a315f,0,92,92,100,1,threeone,,,,,,,,,,,,,,,,,,,,,,,,,,,,,,,,,,,,,,,,,,,,,,,,
,,,,,,5fc3db936640b163a09d49b8,62c53a731525d49b87c7923a,2022-07-06_10h34.07.091,Colour_Asymmetry_Pilot,2022.1.3,MacIntel,60.0024001,62c50e9c1127f2cd403a315f,0,93,93,32,1,onetwo,,,,,,,,,,,,,,,,,,,,,,,,,,,,,,,,,,,,,,,,,,,,,,,,
,,,,,,5fc3db936640b163a09d49b8,62c53a731525d49b87c7923a,2022-07-06_10h34.07.091,Colour_Asymmetry_Pilot,2022.1.3,MacIntel,60.0024001,62c50e9c1127f2cd403a315f,0,94,94,124,1,threeone,,,,,,,,,,,,,,,,,,,,,,,,,,,,,,,,,,,,,,,,,,,,,,,,
,,,,,,5fc3db936640b163a09d49b8,62c53a731525d49b87c7923a,2022-07-06_10h34.07.091,Colour_Asymmetry_Pilot,2022.1.3,MacIntel,60.0024001,62c50e9c1127f2cd403a315f,0,95,95,80,1,onetwo,,,,,,,,,,,,,,,,,,,,,,,,,,,,,,,,,,,,,,,,,,,,,,,,
,,,,,,5fc3db936640b163a09d49b8,62c53a731525d49b87c7923a,2022-07-06_10h34.07.091,Colour_Asymmetry_Pilot,2022.1.3,MacIntel,60.0024001,62c50e9c1127f2cd403a315f,0,96,96,72,1,onetwo,,,,,,,,,,,,,,,,,,,,,,,,,,,,,,,,,,,,,,,,,,,,,,,,
,,,,,,5fc3db936640b163a09d49b8,62c53a731525d49b87c7923a,2022-07-06_10h34.07.091,Colour_Asymmetry_Pilot,2022.1.3,MacIntel,60.0024001,62c50e9c1127f2cd403a315f,0,97,97,3,1,twofour,,,,,,,,,,,,,,,,,,,,,,,,,,,,,,,,,,,,,,,,,,,,,,,,
,,,,,,5fc3db936640b163a09d49b8,62c53a731525d49b87c7923a,2022-07-06_10h34.07.091,Colour_Asymmetry_Pilot,2022.1.3,MacIntel,60.0024001,62c50e9c1127f2cd403a315f,0,98,98,30,1,fourtwo,,,,,,,,,,,,,,,,,,,,,,,,,,,,,,,,,,,,,,,,,,,,,,,,
,,,,,,5fc3db936640b163a09d49b8,62c53a731525d49b87c7923a,2022-07-06_10h34.07.091,Colour_Asymmetry_Pilot,2022.1.3,MacIntel,60.0024001,62c50e9c1127f2cd403a315f,0,99,99,107,1,twofour,,,,,,,,,,,,,,,,,,,,,,,,,,,,,,,,,,,,,,,,,,,,,,,,
,,,,,,5fc3db936640b163a09d49b8,62c53a731525d49b87c7923a,2022-07-06_10h34.07.091,Colour_Asymmetry_Pilot,2022.1.3,MacIntel,60.0024001,62c50e9c1127f2cd403a315f,0,100,100,67,1,twofour,,,,,,,,,,,,,,,,,,,,,,,,,,,,,,,,,,,,,,,,,,,,,,,,
,,,,,,5fc3db936640b163a09d49b8,62c53a731525d49b87c7923a,2022-07-06_10h34.07.091,Colour_Asymmetry_Pilot,2022.1.3,MacIntel,60.0024001,62c50e9c1127f2cd403a315f,0,101,101,56,1,onetwo,,,,,,,,,,,,,,,,,,,,,,,,,,,,,,,,,,,,,,,,,,,,,,,,
,,,,,,5fc3db936640b163a09d49b8,62c53a731525d49b87c7923a,2022-07-06_10h34.07.091,Colour_Asymmetry_Pilot,2022.1.3,MacIntel,60.0024001,62c50e9c1127f2cd403a315f,0,102,102,93,1,threefour,,,,,,,,,,,,,,,,,,,,,,,,,,,,,,,,,,,,,,,,,,,,,,,,
,,,,,,5fc3db936640b163a09d49b8,62c53a731525d49b87c7923a,2022-07-06_10h34.07.091,Colour_Asymmetry_Pilot,2022.1.3,MacIntel,60.0024001,62c50e9c1127f2cd403a315f,0,103,103,48,1,onetwo,,,,,,,,,,,,,,,,,,,,,,,,,,,,,,,,,,,,,,,,,,,,,,,,
,,,,,,5fc3db936640b163a09d49b8,62c53a731525d49b87c7923a,2022-07-06_10h34.07.091,Colour_Asymmetry_Pilot,2022.1.3,MacIntel,60.0024001,62c50e9c1127f2cd403a315f,0,104,104,87,1,fourthree,,,,,,,,,,,,,,,,,,,,,,,,,,,,,,,,,,,,,,,,,,,,,,,,
,,,,,,5fc3db936640b163a09d49b8,62c53a731525d49b87c7923a,2022-07-06_10h34.07.091,Colour_Asymmetry_Pilot,2022.1.3,MacIntel,60.0024001,62c50e9c1127f2cd403a315f,0,105,105,150,1,fourtwo,,,,,,,,,,,,,,,,,,,,,,,,,,,,,,,,,,,,,,,,,,,,,,,,
,,,,,,5fc3db936640b163a09d49b8,62c53a731525d49b87c7923a,2022-07-06_10h34.07.091,Colour_Asymmetry_Pilot,2022.1.3,MacIntel,60.0024001,62c50e9c1127f2cd403a315f,0,106,106,120,1,onetwo,,,,,,,,,,,,,,,,,,,,,,,,,,,,,,,,,,,,,,,,,,,,,,,,
,,,,,,5fc3db936640b163a09d49b8,62c53a731525d49b87c7923a,2022-07-06_10h34.07.091,Colour_Asymmetry_Pilot,2022.1.3,MacIntel,60.0024001,62c50e9c1127f2cd403a315f,0,107,107,137,1,onethree,,,,,,,,,,,,,,,,,,,,,,,,,,,,,,,,,,,,,,,,,,,,,,,,
,,,,,,5fc3db936640b163a09d49b8,62c53a731525d49b87c7923a,2022-07-06_10h34.07.091,Colour_Asymmetry_Pilot,2022.1.3,MacIntel,60.0024001,62c50e9c1127f2cd403a315f,0,108,108,129,1,onethree,,,,,,,,,,,,,,,,,,,,,,,,,,,,,,,,,,,,,,,,,,,,,,,,
,,,,,,5fc3db936640b163a09d49b8,62c53a731525d49b87c7923a,2022-07-06_10h34.07.091,Colour_Asymmetry_Pilot,2022.1.3,MacIntel,60.0024001,62c50e9c1127f2cd403a315f,0,109,109,89,1,onethree,,,,,,,,,,,,,,,,,,,,,,,,,,,,,,,,,,,,,,,,,,,,,,,,
,,,,,,5fc3db936640b163a09d49b8,62c53a731525d49b87c7923a,2022-07-06_10h34.07.091,Colour_Asymmetry_Pilot,2022.1.3,MacIntel,60.0024001,62c50e9c1127f2cd403a315f,0,110,110,20,1,threeone,,,,,,,,,,,,,,,,,,,,,,,,,,,,,,,,,,,,,,,,,,,,,,,,
,,,,,,5fc3db936640b163a09d49b8,62c53a731525d49b87c7923a,2022-07-06_10h34.07.091,Colour_Asymmetry_Pilot,2022.1.3,MacIntel,60.0024001,62c50e9c1127f2cd403a315f,0,111,111,29,1,threefour,,,,,,,,,,,,,,,,,,,,,,,,,,,,,,,,,,,,,,,,,,,,,,,,
,,,,,,5fc3db936640b163a09d49b8,62c53a731525d49b87c7923a,2022-07-06_10h34.07.091,Colour_Asymmetry_Pilot,2022.1.3,MacIntel,60.0024001,62c50e9c1127f2cd403a315f,0,112,112,115,1,twofour,,,,,,,,,,,,,,,,,,,,,,,,,,,,,,,,,,,,,,,,,,,,,,,,
,,,,,,5fc3db936640b163a09d49b8,62c53a731525d49b87c7923a,2022-07-06_10h34.07.091,Colour_Asymmetry_Pilot,2022.1.3,MacIntel,60.0024001,62c50e9c1127f2cd403a315f,0,113,113,51,1,twofour,,,,,,,,,,,,,,,,,,,,,,,,,,,,,,,,,,,,,,,,,,,,,,,,
,,,,,,5fc3db936640b163a09d49b8,62c53a731525d49b87c7923a,2022-07-06_10h34.07.091,Colour_Asymmetry_Pilot,2022.1.3,MacIntel,60.0024001,62c50e9c1127f2cd403a315f,0,114,114,15,1,fourthree,,,,,,,,,,,,,,,,,,,,,,,,,,,,,,,,,,,,,,,,,,,,,,,,
,,,,,,5fc3db936640b163a09d49b8,62c53a731525d49b87c7923a,2022-07-06_10h34.07.091,Colour_Asymmetry_Pilot,2022.1.3,MacIntel,60.0024001,62c50e9c1127f2cd403a315f,0,115,115,22,1,fourtwo,,,,,,,,,,,,,,,,,,,,,,,,,,,,,,,,,,,,,,,,,,,,,,,,
,,,,,,5fc3db936640b163a09d49b8,62c53a731525d49b87c7923a,2022-07-06_10h34.07.091,Colour_Asymmetry_Pilot,2022.1.3,MacIntel,60.0024001,62c50e9c1127f2cd403a315f,0,116,116,84,1,threeone,,,,,,,,,,,,,,,,,,,,,,,,,,,,,,,,,,,,,,,,,,,,,,,,
,,,,,,5fc3db936640b163a09d49b8,62c53a731525d49b87c7923a,2022-07-06_10h34.07.091,Colour_Asymmetry_Pilot,2022.1.3,MacIntel,60.0024001,62c50e9c1127f2cd403a315f,0,117,117,85,1,threefour,,,,,,,,,,,,,,,,,,,,,,,,,,,,,,,,,,,,,,,,,,,,,,,,
,,,,,,5fc3db936640b163a09d49b8,62c53a731525d49b87c7923a,2022-07-06_10h34.07.091,Colour_Asymmetry_Pilot,2022.1.3,MacIntel,60.0024001,62c50e9c1127f2cd403a315f,0,118,118,79,1,fourthree,,,,,,,,,,,,,,,,,,,,,,,,,,,,,,,,,,,,,,,,,,,,,,,,
,,,,,,5fc3db936640b163a09d49b8,62c53a731525d49b87c7923a,2022-07-06_10h34.07.091,Colour_Asymmetry_Pilot,2022.1.3,MacIntel,60.0024001,62c50e9c1127f2cd403a315f,0,119,119,94,1,fourtwo,,,,,,,,,,,,,,,,,,,,,,,,,,,,,,,,,,,,,,,,,,,,,,,,
,,,,,,5fc3db936640b163a09d49b8,62c53a731525d49b87c7923a,2022-07-06_10h34.07.091,Colour_Asymmetry_Pilot,2022.1.3,MacIntel,60.0024001,62c50e9c1127f2cd403a315f,0,120,120,157,1,threefour,,,,,,,,,,,,,,,,,,,,,,,,,,,,,,,,,,,,,,,,,,,,,,,,
,,,,,,5fc3db936640b163a09d49b8,62c53a731525d49b87c7923a,2022-07-06_10h34.07.091,Colour_Asymmetry_Pilot,2022.1.3,MacIntel,60.0024001,62c50e9c1127f2cd403a315f,0,121,121,54,1,fourtwo,,,,,,,,,,,,,,,,,,,,,,,,,,,,,,,,,,,,,,,,,,,,,,,,
,,,,,,5fc3db936640b163a09d49b8,62c53a731525d49b87c7923a,2022-07-06_10h34.07.091,Colour_Asymmetry_Pilot,2022.1.3,MacIntel,60.0024001,62c50e9c1127f2cd403a315f,0,122,122,49,1,onethree,,,,,,,,,,,,,,,,,,,,,,,,,,,,,,,,,,,,,,,,,,,,,,,,
,,,,,,5fc3db936640b163a09d49b8,62c53a731525d49b87c7923a,2022-07-06_10h34.07.091,Colour_Asymmetry_Pilot,2022.1.3,MacIntel,60.0024001,62c50e9c1127f2cd403a315f,0,123,123,86,1,fourtwo,,,,,,,,,,,,,,,,,,,,,,,,,,,,,,,,,,,,,,,,,,,,,,,,
,,,,,,5fc3db936640b163a09d49b8,62c53a731525d49b87c7923a,2022-07-06_10h34.07.091,Colour_Asymmetry_Pilot,2022.1.3,MacIntel,60.0024001,62c50e9c1127f2cd403a315f,0,124,124,4,1,threeone,,,,,,,,,,,,,,,,,,,,,,,,,,,,,,,,,,,,,,,,,,,,,,,,
,,,,,,5fc3db936640b163a09d49b8,62c53a731525d49b87c7923a,2022-07-06_10h34.07.091,Colour_Asymmetry_Pilot,2022.1.3,MacIntel,60.0024001,62c50e9c1127f2cd403a315f,0,125,125,70,1,fourtwo,,,,,,,,,,,,,,,,,,,,,,,,,,,,,,,,,,,,,,,,,,,,,,,,
,,,,,,5fc3db936640b163a09d49b8,62c53a731525d49b87c7923a,2022-07-06_10h34.07.091,Colour_Asymmetry_Pilot,2022.1.3,MacIntel,60.0024001,62c50e9c1127f2cd403a315f,0,126,126,138,1,twoone,,,,,,,,,,,,,,,,,,,,,,,,,,,,,,,,,,,,,,,,,,,,,,,,
,,,,,,5fc3db936640b163a09d49b8,62c53a731525d49b87c7923a,2022-07-06_10h34.07.091,Colour_Asymmetry_Pilot,2022.1.3,MacIntel,60.0024001,62c50e9c1127f2cd403a315f,0,127,127,159,1,fourthree,,,,,,,,,,,,,,,,,,,,,,,,,,,,,,,,,,,,,,,,,,,,,,,,
,,,,,,5fc3db936640b163a09d49b8,62c53a731525d49b87c7923a,2022-07-06_10h34.07.091,Colour_Asymmetry_Pilot,2022.1.3,MacIntel,60.0024001,62c50e9c1127f2cd403a315f,0,128,128,69,1,threefour,,,,,,,,,,,,,,,,,,,,,,,,,,,,,,,,,,,,,,,,,,,,,,,,
,,,,,,5fc3db936640b163a09d49b8,62c53a731525d49b87c7923a,2022-07-06_10h34.07.091,Colour_Asymmetry_Pilot,2022.1.3,MacIntel,60.0024001,62c50e9c1127f2cd403a315f,0,129,129,1,1,onethree,,,,,,,,,,,,,,,,,,,,,,,,,,,,,,,,,,,,,,,,,,,,,,,,
,,,,,,5fc3db936640b163a09d49b8,62c53a731525d49b87c7923a,2022-07-06_10h34.07.091,Colour_Asymmetry_Pilot,2022.1.3,MacIntel,60.0024001,62c50e9c1127f2cd403a315f,0,130,130,88,1,onetwo,,,,,,,,,,,,,,,,,,,,,,,,,,,,,,,,,,,,,,,,,,,,,,,,
,,,,,,5fc3db936640b163a09d49b8,62c53a731525d49b87c7923a,2022-07-06_10h34.07.091,Colour_Asymmetry_Pilot,2022.1.3,MacIntel,60.0024001,62c50e9c1127f2cd403a315f,0,131,131,42,1,twoone,,,,,,,,,,,,,,,,,,,,,,,,,,,,,,,,,,,,,,,,,,,,,,,,
,,,,,,5fc3db936640b163a09d49b8,62c53a731525d49b87c7923a,2022-07-06_10h34.07.091,Colour_Asymmetry_Pilot,2022.1.3,MacIntel,60.0024001,62c50e9c1127f2cd403a315f,0,132,132,92,1,threeone,,,,,,,,,,,,,,,,,,,,,,,,,,,,,,,,,,,,,,,,,,,,,,,,
,,,,,,5fc3db936640b163a09d49b8,62c53a731525d49b87c7923a,2022-07-06_10h34.07.091,Colour_Asymmetry_Pilot,2022.1.3,MacIntel,60.0024001,62c50e9c1127f2cd403a315f,0,133,133,64,1,onetwo,,,,,,,,,,,,,,,,,,,,,,,,,,,,,,,,,,,,,,,,,,,,,,,,
,,,,,,5fc3db936640b163a09d49b8,62c53a731525d49b87c7923a,2022-07-06_10h34.07.091,Colour_Asymmetry_Pilot,2022.1.3,MacIntel,60.0024001,62c50e9c1127f2cd403a315f,0,134,134,62,1,fourtwo,,,,,,,,,,,,,,,,,,,,,,,,,,,,,,,,,,,,,,,,,,,,,,,,
,,,,,,5fc3db936640b163a09d49b8,62c53a731525d49b87c7923a,2022-07-06_10h34.07.091,Colour_Asymmetry_Pilot,2022.1.3,MacIntel,60.0024001,62c50e9c1127f2cd403a315f,0,135,135,118,1,fourtwo,,,,,,,,,,,,,,,,,,,,,,,,,,,,,,,,,,,,,,,,,,,,,,,,
,,,,,,5fc3db936640b163a09d49b8,62c53a731525d49b87c7923a,2022-07-06_10h34.07.091,Colour_Asymmetry_Pilot,2022.1.3,MacIntel,60.0024001,62c50e9c1127f2cd403a315f,0,136,136,50,1,twoone,,,,,,,,,,,,,,,,,,,,,,,,,,,,,,,,,,,,,,,,,,,,,,,,
,,,,,,5fc3db936640b163a09d49b8,62c53a731525d49b87c7923a,2022-07-06_10h34.07.091,Colour_Asymmetry_Pilot,2022.1.3,MacIntel,60.0024001,62c50e9c1127f2cd403a315f,0,137,137,140,1,threeone,,,,,,,,,,,,,,,,,,,,,,,,,,,,,,,,,,,,,,,,,,,,,,,,
,,,,,,5fc3db936640b163a09d49b8,62c53a731525d49b87c7923a,2022-07-06_10h34.07.091,Colour_Asymmetry_Pilot,2022.1.3,MacIntel,60.0024001,62c50e9c1127f2cd403a315f,0,138,138,17,1,onethree,,,,,,,,,,,,,,,,,,,,,,,,,,,,,,,,,,,,,,,,,,,,,,,,
,,,,,,5fc3db936640b163a09d49b8,62c53a731525d49b87c7923a,2022-07-06_10h34.07.091,Colour_Asymmetry_Pilot,2022.1.3,MacIntel,60.0024001,62c50e9c1127f2cd403a315f,0,139,139,35,1,twofour,,,,,,,,,,,,,,,,,,,,,,,,,,,,,,,,,,,,,,,,,,,,,,,,
,,,,,,5fc3db936640b163a09d49b8,62c53a731525d49b87c7923a,2022-07-06_10h34.07.091,Colour_Asymmetry_Pilot,2022.1.3,MacIntel,60.0024001,62c50e9c1127f2cd403a315f,0,140,140,143,1,fourthree,,,,,,,,,,,,,,,,,,,,,,,,,,,,,,,,,,,,,,,,,,,,,,,,
,,,,,,5fc3db936640b163a09d49b8,62c53a731525d49b87c7923a,2022-07-06_10h34.07.091,Colour_Asymmetry_Pilot,2022.1.3,MacIntel,60.0024001,62c50e9c1127f2cd403a315f,0,141,141,116,1,threeone,,,,,,,,,,,,,,,,,,,,,,,,,,,,,,,,,,,,,,,,,,,,,,,,
,,,,,,5fc3db936640b163a09d49b8,62c53a731525d49b87c7923a,2022-07-06_10h34.07.091,Colour_Asymmetry_Pilot,2022.1.3,MacIntel,60.0024001,62c50e9c1127f2cd403a315f,0,142,142,147,1,twofour,,,,,,,,,,,,,,,,,,,,,,,,,,,,,,,,,,,,,,,,,,,,,,,,
,,,,,,5fc3db936640b163a09d49b8,62c53a731525d49b87c7923a,2022-07-06_10h34.07.091,Colour_Asymmetry_Pilot,2022.1.3,MacIntel,60.0024001,62c50e9c1127f2cd403a315f,0,143,143,121,1,onethree,,,,,,,,,,,,,,,,,,,,,,,,,,,,,,,,,,,,,,,,,,,,,,,,
,,,,,,5fc3db936640b163a09d49b8,62c53a731525d49b87c7923a,2022-07-06_10h34.07.091,Colour_Asymmetry_Pilot,2022.1.3,MacIntel,60.0024001,62c50e9c1127f2cd403a315f,0,144,144,160,1,onetwo,,,,,,,,,,,,,,,,,,,,,,,,,,,,,,,,,,,,,,,,,,,,,,,,
,,,,,,5fc3db936640b163a09d49b8,62c53a731525d49b87c7923a,2022-07-06_10h34.07.091,Colour_Asymmetry_Pilot,2022.1.3,MacIntel,60.0024001,62c50e9c1127f2cd403a315f,0,145,145,113,1,onethree,,,,,,,,,,,,,,,,,,,,,,,,,,,,,,,,,,,,,,,,,,,,,,,,
,,,,,,5fc3db936640b163a09d49b8,62c53a731525d49b87c7923a,2022-07-06_10h34.07.091,Colour_Asymmetry_Pilot,2022.1.3,MacIntel,60.0024001,62c50e9c1127f2cd403a315f,0,146,146,0,1,onetwo,,,,,,,,,,,,,,,,,,,,,,,,,,,,,,,,,,,,,,,,,,,,,,,,
,,,,,,5fc3db936640b163a09d49b8,62c53a731525d49b87c7923a,2022-07-06_10h34.07.091,Colour_Asymmetry_Pilot,2022.1.3,MacIntel,60.0024001,62c50e9c1127f2cd403a315f,0,147,147,91,1,twofour,,,,,,,,,,,,,,,,,,,,,,,,,,,,,,,,,,,,,,,,,,,,,,,,
,,,,,,5fc3db936640b163a09d49b8,62c53a731525d49b87c7923a,2022-07-06_10h34.07.091,Colour_Asymmetry_Pilot,2022.1.3,MacIntel,60.0024001,62c50e9c1127f2cd403a315f,0,148,148,12,1,threeone,,,,,,,,,,,,,,,,,,,,,,,,,,,,,,,,,,,,,,,,,,,,,,,,
,,,,,,5fc3db936640b163a09d49b8,62c53a731525d49b87c7923a,2022-07-06_10h34.07.091,Colour_Asymmetry_Pilot,2022.1.3,MacIntel,60.0024001,62c50e9c1127f2cd403a315f,0,149,149,18,1,twoone,,,,,,,,,,,,,,,,,,,,,,,,,,,,,,,,,,,,,,,,,,,,,,,,
,,,,,,5fc3db936640b163a09d49b8,62c53a731525d49b87c7923a,2022-07-06_10h34.07.091,Colour_Asymmetry_Pilot,2022.1.3,MacIntel,60.0024001,62c50e9c1127f2cd403a315f,0,150,150,66,1,twoone,,,,,,,,,,,,,,,,,,,,,,,,,,,,,,,,,,,,,,,,,,,,,,,,
,,,,,,5fc3db936640b163a09d49b8,62c53a731525d49b87c7923a,2022-07-06_10h34.07.091,Colour_Asymmetry_Pilot,2022.1.3,MacIntel,60.0024001,62c50e9c1127f2cd403a315f,0,151,151,19,1,twofour,,,,,,,,,,,,,,,,,,,,,,,,,,,,,,,,,,,,,,,,,,,,,,,,
,,,,,,5fc3db936640b163a09d49b8,62c53a731525d49b87c7923a,2022-07-06_10h34.07.091,Colour_Asymmetry_Pilot,2022.1.3,MacIntel,60.0024001,62c50e9c1127f2cd403a315f,0,152,152,44,1,threeone,,,,,,,,,,,,,,,,,,,,,,,,,,,,,,,,,,,,,,,,,,,,,,,,
,,,,,,5fc3db936640b163a09d49b8,62c53a731525d49b87c7923a,2022-07-06_10h34.07.091,Colour_Asymmetry_Pilot,2022.1.3,MacIntel,60.0024001,62c50e9c1127f2cd403a315f,0,153,153,83,1,twofour,,,,,,,,,,,,,,,,,,,,,,,,,,,,,,,,,,,,,,,,,,,,,,,,
,,,,,,5fc3db936640b163a09d49b8,62c53a731525d49b87c7923a,2022-07-06_10h34.07.091,Colour_Asymmetry_Pilot,2022.1.3,MacIntel,60.0024001,62c50e9c1127f2cd403a315f,0,154,154,27,1,twofour,,,,,,,,,,,,,,,,,,,,,,,,,,,,,,,,,,,,,,,,,,,,,,,,
,,,,,,5fc3db936640b163a09d49b8,62c53a731525d49b87c7923a,2022-07-06_10h34.07.091,Colour_Asymmetry_Pilot,2022.1.3,MacIntel,60.0024001,62c50e9c1127f2cd403a315f,0,155,155,74,1,twoone,,,,,,,,,,,,,,,,,,,,,,,,,,,,,,,,,,,,,,,,,,,,,,,,
,,,,,,5fc3db936640b163a09d49b8,62c53a731525d49b87c7923a,2022-07-06_10h34.07.091,Colour_Asymmetry_Pilot,2022.1.3,MacIntel,60.0024001,62c50e9c1127f2cd403a315f,0,156,156,75,1,twofour,,,,,,,,,,,,,,,,,,,,,,,,,,,,,,,,,,,,,,,,,,,,,,,,
,,,,,,5fc3db936640b163a09d49b8,62c53a731525d49b87c7923a,2022-07-06_10h34.07.091,Colour_Asymmetry_Pilot,2022.1.3,MacIntel,60.0024001,62c50e9c1127f2cd403a315f,0,157,157,77,1,threefour,,,,,,,,,,,,,,,,,,,,,,,,,,,,,,,,,,,,,,,,,,,,,,,,
,,,,,,5fc3db936640b163a09d49b8,62c53a731525d49b87c7923a,2022-07-06_10h34.07.091,Colour_Asymmetry_Pilot,2022.1.3,MacIntel,60.0024001,62c50e9c1127f2cd403a315f,0,158,158,104,1,onetwo,,,,,,,,,,,,,,,,,,,,,,,,,,,,,,,,,,,,,,,,,,,,,,,,
,,,,,,5fc3db936640b163a09d49b8,62c53a731525d49b87c7923a,2022-07-06_10h34.07.091,Colour_Asymmetry_Pilot,2022.1.3,MacIntel,60.0024001,62c50e9c1127f2cd403a315f,0,159,159,117,1,threefour,,,,,,,,,,,,,,,,,,,,,,,,,,,,,,,,,,,,,,,,,,,,,,,,
,,,,,,5fc3db936640b163a09d49b8,62c53a731525d49b87c7923a,2022-07-06_10h34.07.091,Colour_Asymmetry_Pilot,2022.1.3,MacIntel,60.0024001,62c50e9c1127f2cd403a315f,0,160,160,98,1,twoone,,,,,,,,,,,,,,,,,,,,,,,,,,,,,,,,,,,,,,,,,,,,,,,,
,,,,,,5fc3db936640b163a09d49b8,62c53a731525d49b87c7923a,2022-07-06_10h34.07.091,Colour_Asymmetry_Pilot,2022.1.3,MacIntel,60.0024001,62c50e9c1127f2cd403a315f,0,161,161,158,1,fourtwo,,,,,,,,,,,,,,,,,,,,,,,,,,,,,,,,,,,,,,,,,,,,,,,,
,,,,,,5fc3db936640b163a09d49b8,62c53a731525d49b87c7923a,2022-07-06_10h34.07.091,Colour_Asymmetry_Pilot,2022.1.3,MacIntel,60.0024001,62c50e9c1127f2cd403a315f,,,,,,,space,2.6028,space,4.1472,space,25.1488,space,45.3494,space,1.5179,space,4.4449,"[-0.06680000000000008,-0.45100000000000007,-0.906]",twoone,"[-0.4668,-0.8746,-0.2942]",-3,1.7488,-85.65484619,37.07495117,1,0,0,response7disk_5,17.96942139,-0.888366699,1,0,0,rectangle_8,17.96942139,-0.888366699,1,0,0,3,17.96942139,-0.888366699,1,0,0,0,0,0,0,1,,,
,,,,,,5fc3db936640b163a09d49b8,62c53a731525d49b87c7923a,2022-07-06_10h34.07.091,Colour_Asymmetry_Pilot,2022.1.3,MacIntel,60.0024001,62c50e9c1127f2cd403a315f,,,,,,,,,,,,,,,,,,,"[0.34099999999999997,0.12939999999999996,-0.9766]",onethree,"[-0.34920000000000007,-0.702,-0.5216]",-3,6.3002,-55.24298096,45.19232178,1,0,0,response7disk_5,8.521850586,1.620483398,1,0,0,rectangle_8,8.521850586,1.620483398,1,0,0,3,8.521850586,1.620483398,1,0,0,1,0,1,0,1,,,
,,,,,,5fc3db936640b163a09d49b8,62c53a731525d49b87c7923a,2022-07-06_10h34.07.091,Colour_Asymmetry_Pilot,2022.1.3,MacIntel,60.0024001,62c50e9c1127f2cd403a315f,,,,,,,,,,,,,,,,,,,"[0.23120000000000007,-0.7726,-0.34120000000000006]",onethree,"[0.11359999999999992,0.6312,0.5213999999999999]",-4,2.4348,-30.17095947,53.75537109,1,0,0,response7disk_5,15.42425537,-4.099914551,1,0,0,rectangle_8,87.87255859,65.65783691,1,0,0,3,6.606506348,-0.034179688,1,0,0,2,0,2,0,1,response1disk_7,6,rectangle_4
,,,,,,5fc3db936640b163a09d49b8,62c53a731525d49b87c7923a,2022-07-06_10h34.07.091,Colour_Asymmetry_Pilot,2022.1.3,MacIntel,60.0024001,62c50e9c1127f2cd403a315f,,,,,,,,,,,,,,,,,,,"[-0.2942,-0.24719999999999998,-0.357]",twoone,"[-0.9688,-0.38039999999999996,-0.41979999999999995]",-3,1.6993,-81.15759277,49.08166504,1,0,0,response7disk_5,20.83843994,-7.196105957,1,0,0,rectangle_8,20.83843994,-7.196105957,1,0,0,3,20.83843994,-7.196105957,1,0,0,3,0,3,0,1,,,
,,,,,,5fc3db936640b163a09d49b8,62c53a731525d49b87c7923a,2022-07-06_10h34.07.091,Colour_Asymmetry_Pilot,2022.1.3,MacIntel,60.0024001,62c50e9c1127f2cd403a315f,,,,,,,,,,,,,,,,,,,"[-0.4276,0.0038000000000000256,-0.3256]",fourtwo,"[-0.24719999999999998,-0.0354000000000001,0.3175999999999999]",-4,1.816,-40.90716553,53.23370361,1,0,0,response7disk_5,4.360717773,-6.427124023,1,0,0,rectangle_8,82.66949463,69.99102783,1,0,0,3,17.23944092,-3.378356934,1,0,0,4,0,4,0,1,response1disk_7,6,rectangle_4
