trials.thisRepN,trials.thisTrialN,trials.thisN,trials.thisIndex,trials.ran,Colourcodes,participant,session,date,expName,psychopyVersion,OS,frameRate,study_id,trials_4.thisRepN,trials_4.thisTrialN,trials_4.thisN,trials_4.thisIndex,trials_4.ran,StimulusPos
0,0,0,72,1,,61633b443e445822fb1f24c9,62c53cd057ad50af44d9d107,2022-07-06_09h50.22.820,Colour_Asymmetry_Pilot,2022.1.3,Win32,60.0240096,62c50e9c1127f2cd403a315f,,,,,,
0,1,1,86,1,,61633b443e445822fb1f24c9,62c53cd057ad50af44d9d107,2022-07-06_09h50.22.820,Colour_Asymmetry_Pilot,2022.1.3,Win32,60.0240096,62c50e9c1127f2cd403a315f,,,,,,
0,2,2,26,1,,61633b443e445822fb1f24c9,62c53cd057ad50af44d9d107,2022-07-06_09h50.22.820,Colour_Asymmetry_Pilot,2022.1.3,Win32,60.0240096,62c50e9c1127f2cd403a315f,,,,,,
0,3,3,41,1,,61633b443e445822fb1f24c9,62c53cd057ad50af44d9d107,2022-07-06_09h50.22.820,Colour_Asymmetry_Pilot,2022.1.3,Win32,60.0240096,62c50e9c1127f2cd403a315f,,,,,,
0,4,4,55,1,,61633b443e445822fb1f24c9,62c53cd057ad50af44d9d107,2022-07-06_09h50.22.820,Colour_Asymmetry_Pilot,2022.1.3,Win32,60.0240096,62c50e9c1127f2cd403a315f,,,,,,
0,5,5,81,1,,61633b443e445822fb1f24c9,62c53cd057ad50af44d9d107,2022-07-06_09h50.22.820,Colour_Asymmetry_Pilot,2022.1.3,Win32,60.0240096,62c50e9c1127f2cd403a315f,,,,,,
0,6,6,39,1,,61633b443e445822fb1f24c9,62c53cd057ad50af44d9d107,2022-07-06_09h50.22.820,Colour_Asymmetry_Pilot,2022.1.3,Win32,60.0240096,62c50e9c1127f2cd403a315f,,,,,,
0,7,7,38,1,,61633b443e445822fb1f24c9,62c53cd057ad50af44d9d107,2022-07-06_09h50.22.820,Colour_Asymmetry_Pilot,2022.1.3,Win32,60.0240096,62c50e9c1127f2cd403a315f,,,,,,
0,8,8,65,1,,61633b443e445822fb1f24c9,62c53cd057ad50af44d9d107,2022-07-06_09h50.22.820,Colour_Asymmetry_Pilot,2022.1.3,Win32,60.0240096,62c50e9c1127f2cd403a315f,,,,,,
0,9,9,27,1,,61633b443e445822fb1f24c9,62c53cd057ad50af44d9d107,2022-07-06_09h50.22.820,Colour_Asymmetry_Pilot,2022.1.3,Win32,60.0240096,62c50e9c1127f2cd403a315f,,,,,,
0,10,10,15,1,,61633b443e445822fb1f24c9,62c53cd057ad50af44d9d107,2022-07-06_09h50.22.820,Colour_Asymmetry_Pilot,2022.1.3,Win32,60.0240096,62c50e9c1127f2cd403a315f,,,,,,
0,11,11,2,1,,61633b443e445822fb1f24c9,62c53cd057ad50af44d9d107,2022-07-06_09h50.22.820,Colour_Asymmetry_Pilot,2022.1.3,Win32,60.0240096,62c50e9c1127f2cd403a315f,,,,,,
0,12,12,22,1,,61633b443e445822fb1f24c9,62c53cd057ad50af44d9d107,2022-07-06_09h50.22.820,Colour_Asymmetry_Pilot,2022.1.3,Win32,60.0240096,62c50e9c1127f2cd403a315f,,,,,,
0,13,13,58,1,,61633b443e445822fb1f24c9,62c53cd057ad50af44d9d107,2022-07-06_09h50.22.820,Colour_Asymmetry_Pilot,2022.1.3,Win32,60.0240096,62c50e9c1127f2cd403a315f,,,,,,
0,14,14,40,1,,61633b443e445822fb1f24c9,62c53cd057ad50af44d9d107,2022-07-06_09h50.22.820,Colour_Asymmetry_Pilot,2022.1.3,Win32,60.0240096,62c50e9c1127f2cd403a315f,,,,,,
0,15,15,10,1,,61633b443e445822fb1f24c9,62c53cd057ad50af44d9d107,2022-07-06_09h50.22.820,Colour_Asymmetry_Pilot,2022.1.3,Win32,60.0240096,62c50e9c1127f2cd403a315f,,,,,,
0,16,16,92,1,,61633b443e445822fb1f24c9,62c53cd057ad50af44d9d107,2022-07-06_09h50.22.820,Colour_Asymmetry_Pilot,2022.1.3,Win32,60.0240096,62c50e9c1127f2cd403a315f,,,,,,
0,17,17,5,1,,61633b443e445822fb1f24c9,62c53cd057ad50af44d9d107,2022-07-06_09h50.22.820,Colour_Asymmetry_Pilot,2022.1.3,Win32,60.0240096,62c50e9c1127f2cd403a315f,,,,,,
0,18,18,78,1,,61633b443e445822fb1f24c9,62c53cd057ad50af44d9d107,2022-07-06_09h50.22.820,Colour_Asymmetry_Pilot,2022.1.3,Win32,60.0240096,62c50e9c1127f2cd403a315f,,,,,,
0,19,19,31,1,,61633b443e445822fb1f24c9,62c53cd057ad50af44d9d107,2022-07-06_09h50.22.820,Colour_Asymmetry_Pilot,2022.1.3,Win32,60.0240096,62c50e9c1127f2cd403a315f,,,,,,
0,20,20,52,1,,61633b443e445822fb1f24c9,62c53cd057ad50af44d9d107,2022-07-06_09h50.22.820,Colour_Asymmetry_Pilot,2022.1.3,Win32,60.0240096,62c50e9c1127f2cd403a315f,,,,,,
0,21,21,21,1,,61633b443e445822fb1f24c9,62c53cd057ad50af44d9d107,2022-07-06_09h50.22.820,Colour_Asymmetry_Pilot,2022.1.3,Win32,60.0240096,62c50e9c1127f2cd403a315f,,,,,,
0,22,22,12,1,,61633b443e445822fb1f24c9,62c53cd057ad50af44d9d107,2022-07-06_09h50.22.820,Colour_Asymmetry_Pilot,2022.1.3,Win32,60.0240096,62c50e9c1127f2cd403a315f,,,,,,
0,23,23,3,1,,61633b443e445822fb1f24c9,62c53cd057ad50af44d9d107,2022-07-06_09h50.22.820,Colour_Asymmetry_Pilot,2022.1.3,Win32,60.0240096,62c50e9c1127f2cd403a315f,,,,,,
0,24,24,46,1,,61633b443e445822fb1f24c9,62c53cd057ad50af44d9d107,2022-07-06_09h50.22.820,Colour_Asymmetry_Pilot,2022.1.3,Win32,60.0240096,62c50e9c1127f2cd403a315f,,,,,,
0,25,25,62,1,,61633b443e445822fb1f24c9,62c53cd057ad50af44d9d107,2022-07-06_09h50.22.820,Colour_Asymmetry_Pilot,2022.1.3,Win32,60.0240096,62c50e9c1127f2cd403a315f,,,,,,
0,26,26,23,1,,61633b443e445822fb1f24c9,62c53cd057ad50af44d9d107,2022-07-06_09h50.22.820,Colour_Asymmetry_Pilot,2022.1.3,Win32,60.0240096,62c50e9c1127f2cd403a315f,,,,,,
0,27,27,74,1,,61633b443e445822fb1f24c9,62c53cd057ad50af44d9d107,2022-07-06_09h50.22.820,Colour_Asymmetry_Pilot,2022.1.3,Win32,60.0240096,62c50e9c1127f2cd403a315f,,,,,,
0,28,28,71,1,,61633b443e445822fb1f24c9,62c53cd057ad50af44d9d107,2022-07-06_09h50.22.820,Colour_Asymmetry_Pilot,2022.1.3,Win32,60.0240096,62c50e9c1127f2cd403a315f,,,,,,
0,29,29,90,1,,61633b443e445822fb1f24c9,62c53cd057ad50af44d9d107,2022-07-06_09h50.22.820,Colour_Asymmetry_Pilot,2022.1.3,Win32,60.0240096,62c50e9c1127f2cd403a315f,,,,,,
0,30,30,48,1,,61633b443e445822fb1f24c9,62c53cd057ad50af44d9d107,2022-07-06_09h50.22.820,Colour_Asymmetry_Pilot,2022.1.3,Win32,60.0240096,62c50e9c1127f2cd403a315f,,,,,,
0,31,31,14,1,,61633b443e445822fb1f24c9,62c53cd057ad50af44d9d107,2022-07-06_09h50.22.820,Colour_Asymmetry_Pilot,2022.1.3,Win32,60.0240096,62c50e9c1127f2cd403a315f,,,,,,
0,32,32,7,1,,61633b443e445822fb1f24c9,62c53cd057ad50af44d9d107,2022-07-06_09h50.22.820,Colour_Asymmetry_Pilot,2022.1.3,Win32,60.0240096,62c50e9c1127f2cd403a315f,,,,,,
0,33,33,49,1,,61633b443e445822fb1f24c9,62c53cd057ad50af44d9d107,2022-07-06_09h50.22.820,Colour_Asymmetry_Pilot,2022.1.3,Win32,60.0240096,62c50e9c1127f2cd403a315f,,,,,,
0,34,34,17,1,,61633b443e445822fb1f24c9,62c53cd057ad50af44d9d107,2022-07-06_09h50.22.820,Colour_Asymmetry_Pilot,2022.1.3,Win32,60.0240096,62c50e9c1127f2cd403a315f,,,,,,
0,35,35,54,1,,61633b443e445822fb1f24c9,62c53cd057ad50af44d9d107,2022-07-06_09h50.22.820,Colour_Asymmetry_Pilot,2022.1.3,Win32,60.0240096,62c50e9c1127f2cd403a315f,,,,,,
0,36,36,30,1,,61633b443e445822fb1f24c9,62c53cd057ad50af44d9d107,2022-07-06_09h50.22.820,Colour_Asymmetry_Pilot,2022.1.3,Win32,60.0240096,62c50e9c1127f2cd403a315f,,,,,,
0,37,37,45,1,,61633b443e445822fb1f24c9,62c53cd057ad50af44d9d107,2022-07-06_09h50.22.820,Colour_Asymmetry_Pilot,2022.1.3,Win32,60.0240096,62c50e9c1127f2cd403a315f,,,,,,
0,38,38,56,1,,61633b443e445822fb1f24c9,62c53cd057ad50af44d9d107,2022-07-06_09h50.22.820,Colour_Asymmetry_Pilot,2022.1.3,Win32,60.0240096,62c50e9c1127f2cd403a315f,,,,,,
0,39,39,79,1,,61633b443e445822fb1f24c9,62c53cd057ad50af44d9d107,2022-07-06_09h50.22.820,Colour_Asymmetry_Pilot,2022.1.3,Win32,60.0240096,62c50e9c1127f2cd403a315f,,,,,,
0,40,40,89,1,,61633b443e445822fb1f24c9,62c53cd057ad50af44d9d107,2022-07-06_09h50.22.820,Colour_Asymmetry_Pilot,2022.1.3,Win32,60.0240096,62c50e9c1127f2cd403a315f,,,,,,
0,41,41,42,1,,61633b443e445822fb1f24c9,62c53cd057ad50af44d9d107,2022-07-06_09h50.22.820,Colour_Asymmetry_Pilot,2022.1.3,Win32,60.0240096,62c50e9c1127f2cd403a315f,,,,,,
0,42,42,34,1,,61633b443e445822fb1f24c9,62c53cd057ad50af44d9d107,2022-07-06_09h50.22.820,Colour_Asymmetry_Pilot,2022.1.3,Win32,60.0240096,62c50e9c1127f2cd403a315f,,,,,,
0,43,43,77,1,,61633b443e445822fb1f24c9,62c53cd057ad50af44d9d107,2022-07-06_09h50.22.820,Colour_Asymmetry_Pilot,2022.1.3,Win32,60.0240096,62c50e9c1127f2cd403a315f,,,,,,
0,44,44,85,1,,61633b443e445822fb1f24c9,62c53cd057ad50af44d9d107,2022-07-06_09h50.22.820,Colour_Asymmetry_Pilot,2022.1.3,Win32,60.0240096,62c50e9c1127f2cd403a315f,,,,,,
0,45,45,9,1,,61633b443e445822fb1f24c9,62c53cd057ad50af44d9d107,2022-07-06_09h50.22.820,Colour_Asymmetry_Pilot,2022.1.3,Win32,60.0240096,62c50e9c1127f2cd403a315f,,,,,,
0,46,46,6,1,,61633b443e445822fb1f24c9,62c53cd057ad50af44d9d107,2022-07-06_09h50.22.820,Colour_Asymmetry_Pilot,2022.1.3,Win32,60.0240096,62c50e9c1127f2cd403a315f,,,,,,
0,47,47,28,1,,61633b443e445822fb1f24c9,62c53cd057ad50af44d9d107,2022-07-06_09h50.22.820,Colour_Asymmetry_Pilot,2022.1.3,Win32,60.0240096,62c50e9c1127f2cd403a315f,,,,,,
0,48,48,33,1,,61633b443e445822fb1f24c9,62c53cd057ad50af44d9d107,2022-07-06_09h50.22.820,Colour_Asymmetry_Pilot,2022.1.3,Win32,60.0240096,62c50e9c1127f2cd403a315f,,,,,,
0,49,49,69,1,,61633b443e445822fb1f24c9,62c53cd057ad50af44d9d107,2022-07-06_09h50.22.820,Colour_Asymmetry_Pilot,2022.1.3,Win32,60.0240096,62c50e9c1127f2cd403a315f,,,,,,
0,50,50,1,1,,61633b443e445822fb1f24c9,62c53cd057ad50af44d9d107,2022-07-06_09h50.22.820,Colour_Asymmetry_Pilot,2022.1.3,Win32,60.0240096,62c50e9c1127f2cd403a315f,,,,,,
0,51,51,59,1,,61633b443e445822fb1f24c9,62c53cd057ad50af44d9d107,2022-07-06_09h50.22.820,Colour_Asymmetry_Pilot,2022.1.3,Win32,60.0240096,62c50e9c1127f2cd403a315f,,,,,,
0,52,52,84,1,,61633b443e445822fb1f24c9,62c53cd057ad50af44d9d107,2022-07-06_09h50.22.820,Colour_Asymmetry_Pilot,2022.1.3,Win32,60.0240096,62c50e9c1127f2cd403a315f,,,,,,
0,53,53,67,1,,61633b443e445822fb1f24c9,62c53cd057ad50af44d9d107,2022-07-06_09h50.22.820,Colour_Asymmetry_Pilot,2022.1.3,Win32,60.0240096,62c50e9c1127f2cd403a315f,,,,,,
0,54,54,37,1,,61633b443e445822fb1f24c9,62c53cd057ad50af44d9d107,2022-07-06_09h50.22.820,Colour_Asymmetry_Pilot,2022.1.3,Win32,60.0240096,62c50e9c1127f2cd403a315f,,,,,,
0,55,55,8,1,,61633b443e445822fb1f24c9,62c53cd057ad50af44d9d107,2022-07-06_09h50.22.820,Colour_Asymmetry_Pilot,2022.1.3,Win32,60.0240096,62c50e9c1127f2cd403a315f,,,,,,
0,56,56,61,1,,61633b443e445822fb1f24c9,62c53cd057ad50af44d9d107,2022-07-06_09h50.22.820,Colour_Asymmetry_Pilot,2022.1.3,Win32,60.0240096,62c50e9c1127f2cd403a315f,,,,,,
0,57,57,83,1,,61633b443e445822fb1f24c9,62c53cd057ad50af44d9d107,2022-07-06_09h50.22.820,Colour_Asymmetry_Pilot,2022.1.3,Win32,60.0240096,62c50e9c1127f2cd403a315f,,,,,,
0,58,58,20,1,,61633b443e445822fb1f24c9,62c53cd057ad50af44d9d107,2022-07-06_09h50.22.820,Colour_Asymmetry_Pilot,2022.1.3,Win32,60.0240096,62c50e9c1127f2cd403a315f,,,,,,
0,59,59,4,1,,61633b443e445822fb1f24c9,62c53cd057ad50af44d9d107,2022-07-06_09h50.22.820,Colour_Asymmetry_Pilot,2022.1.3,Win32,60.0240096,62c50e9c1127f2cd403a315f,,,,,,
0,60,60,68,1,,61633b443e445822fb1f24c9,62c53cd057ad50af44d9d107,2022-07-06_09h50.22.820,Colour_Asymmetry_Pilot,2022.1.3,Win32,60.0240096,62c50e9c1127f2cd403a315f,,,,,,
0,61,61,80,1,,61633b443e445822fb1f24c9,62c53cd057ad50af44d9d107,2022-07-06_09h50.22.820,Colour_Asymmetry_Pilot,2022.1.3,Win32,60.0240096,62c50e9c1127f2cd403a315f,,,,,,
0,62,62,25,1,,61633b443e445822fb1f24c9,62c53cd057ad50af44d9d107,2022-07-06_09h50.22.820,Colour_Asymmetry_Pilot,2022.1.3,Win32,60.0240096,62c50e9c1127f2cd403a315f,,,,,,
0,63,63,91,1,,61633b443e445822fb1f24c9,62c53cd057ad50af44d9d107,2022-07-06_09h50.22.820,Colour_Asymmetry_Pilot,2022.1.3,Win32,60.0240096,62c50e9c1127f2cd403a315f,,,,,,
0,64,64,88,1,,61633b443e445822fb1f24c9,62c53cd057ad50af44d9d107,2022-07-06_09h50.22.820,Colour_Asymmetry_Pilot,2022.1.3,Win32,60.0240096,62c50e9c1127f2cd403a315f,,,,,,
0,65,65,44,1,,61633b443e445822fb1f24c9,62c53cd057ad50af44d9d107,2022-07-06_09h50.22.820,Colour_Asymmetry_Pilot,2022.1.3,Win32,60.0240096,62c50e9c1127f2cd403a315f,,,,,,
0,66,66,24,1,,61633b443e445822fb1f24c9,62c53cd057ad50af44d9d107,2022-07-06_09h50.22.820,Colour_Asymmetry_Pilot,2022.1.3,Win32,60.0240096,62c50e9c1127f2cd403a315f,,,,,,
0,67,67,11,1,,61633b443e445822fb1f24c9,62c53cd057ad50af44d9d107,2022-07-06_09h50.22.820,Colour_Asymmetry_Pilot,2022.1.3,Win32,60.0240096,62c50e9c1127f2cd403a315f,,,,,,
0,68,68,64,1,,61633b443e445822fb1f24c9,62c53cd057ad50af44d9d107,2022-07-06_09h50.22.820,Colour_Asymmetry_Pilot,2022.1.3,Win32,60.0240096,62c50e9c1127f2cd403a315f,,,,,,
0,69,69,53,1,,61633b443e445822fb1f24c9,62c53cd057ad50af44d9d107,2022-07-06_09h50.22.820,Colour_Asymmetry_Pilot,2022.1.3,Win32,60.0240096,62c50e9c1127f2cd403a315f,,,,,,
0,70,70,29,1,,61633b443e445822fb1f24c9,62c53cd057ad50af44d9d107,2022-07-06_09h50.22.820,Colour_Asymmetry_Pilot,2022.1.3,Win32,60.0240096,62c50e9c1127f2cd403a315f,,,,,,
0,71,71,57,1,,61633b443e445822fb1f24c9,62c53cd057ad50af44d9d107,2022-07-06_09h50.22.820,Colour_Asymmetry_Pilot,2022.1.3,Win32,60.0240096,62c50e9c1127f2cd403a315f,,,,,,
0,72,72,70,1,,61633b443e445822fb1f24c9,62c53cd057ad50af44d9d107,2022-07-06_09h50.22.820,Colour_Asymmetry_Pilot,2022.1.3,Win32,60.0240096,62c50e9c1127f2cd403a315f,,,,,,
0,73,73,19,1,,61633b443e445822fb1f24c9,62c53cd057ad50af44d9d107,2022-07-06_09h50.22.820,Colour_Asymmetry_Pilot,2022.1.3,Win32,60.0240096,62c50e9c1127f2cd403a315f,,,,,,
0,74,74,13,1,,61633b443e445822fb1f24c9,62c53cd057ad50af44d9d107,2022-07-06_09h50.22.820,Colour_Asymmetry_Pilot,2022.1.3,Win32,60.0240096,62c50e9c1127f2cd403a315f,,,,,,
0,75,75,82,1,,61633b443e445822fb1f24c9,62c53cd057ad50af44d9d107,2022-07-06_09h50.22.820,Colour_Asymmetry_Pilot,2022.1.3,Win32,60.0240096,62c50e9c1127f2cd403a315f,,,,,,
0,76,76,73,1,,61633b443e445822fb1f24c9,62c53cd057ad50af44d9d107,2022-07-06_09h50.22.820,Colour_Asymmetry_Pilot,2022.1.3,Win32,60.0240096,62c50e9c1127f2cd403a315f,,,,,,
0,77,77,63,1,,61633b443e445822fb1f24c9,62c53cd057ad50af44d9d107,2022-07-06_09h50.22.820,Colour_Asymmetry_Pilot,2022.1.3,Win32,60.0240096,62c50e9c1127f2cd403a315f,,,,,,
0,78,78,76,1,,61633b443e445822fb1f24c9,62c53cd057ad50af44d9d107,2022-07-06_09h50.22.820,Colour_Asymmetry_Pilot,2022.1.3,Win32,60.0240096,62c50e9c1127f2cd403a315f,,,,,,
0,79,79,51,1,,61633b443e445822fb1f24c9,62c53cd057ad50af44d9d107,2022-07-06_09h50.22.820,Colour_Asymmetry_Pilot,2022.1.3,Win32,60.0240096,62c50e9c1127f2cd403a315f,,,,,,
0,80,80,87,1,,61633b443e445822fb1f24c9,62c53cd057ad50af44d9d107,2022-07-06_09h50.22.820,Colour_Asymmetry_Pilot,2022.1.3,Win32,60.0240096,62c50e9c1127f2cd403a315f,,,,,,
0,81,81,18,1,,61633b443e445822fb1f24c9,62c53cd057ad50af44d9d107,2022-07-06_09h50.22.820,Colour_Asymmetry_Pilot,2022.1.3,Win32,60.0240096,62c50e9c1127f2cd403a315f,,,,,,
0,82,82,50,1,,61633b443e445822fb1f24c9,62c53cd057ad50af44d9d107,2022-07-06_09h50.22.820,Colour_Asymmetry_Pilot,2022.1.3,Win32,60.0240096,62c50e9c1127f2cd403a315f,,,,,,
0,83,83,36,1,,61633b443e445822fb1f24c9,62c53cd057ad50af44d9d107,2022-07-06_09h50.22.820,Colour_Asymmetry_Pilot,2022.1.3,Win32,60.0240096,62c50e9c1127f2cd403a315f,,,,,,
0,84,84,47,1,,61633b443e445822fb1f24c9,62c53cd057ad50af44d9d107,2022-07-06_09h50.22.820,Colour_Asymmetry_Pilot,2022.1.3,Win32,60.0240096,62c50e9c1127f2cd403a315f,,,,,,
0,85,85,35,1,,61633b443e445822fb1f24c9,62c53cd057ad50af44d9d107,2022-07-06_09h50.22.820,Colour_Asymmetry_Pilot,2022.1.3,Win32,60.0240096,62c50e9c1127f2cd403a315f,,,,,,
0,86,86,32,1,,61633b443e445822fb1f24c9,62c53cd057ad50af44d9d107,2022-07-06_09h50.22.820,Colour_Asymmetry_Pilot,2022.1.3,Win32,60.0240096,62c50e9c1127f2cd403a315f,,,,,,
0,87,87,16,1,,61633b443e445822fb1f24c9,62c53cd057ad50af44d9d107,2022-07-06_09h50.22.820,Colour_Asymmetry_Pilot,2022.1.3,Win32,60.0240096,62c50e9c1127f2cd403a315f,,,,,,
0,88,88,66,1,,61633b443e445822fb1f24c9,62c53cd057ad50af44d9d107,2022-07-06_09h50.22.820,Colour_Asymmetry_Pilot,2022.1.3,Win32,60.0240096,62c50e9c1127f2cd403a315f,,,,,,
0,89,89,43,1,,61633b443e445822fb1f24c9,62c53cd057ad50af44d9d107,2022-07-06_09h50.22.820,Colour_Asymmetry_Pilot,2022.1.3,Win32,60.0240096,62c50e9c1127f2cd403a315f,,,,,,
0,90,90,60,1,,61633b443e445822fb1f24c9,62c53cd057ad50af44d9d107,2022-07-06_09h50.22.820,Colour_Asymmetry_Pilot,2022.1.3,Win32,60.0240096,62c50e9c1127f2cd403a315f,,,,,,
0,91,91,0,1,,61633b443e445822fb1f24c9,62c53cd057ad50af44d9d107,2022-07-06_09h50.22.820,Colour_Asymmetry_Pilot,2022.1.3,Win32,60.0240096,62c50e9c1127f2cd403a315f,,,,,,
0,92,92,75,1,,61633b443e445822fb1f24c9,62c53cd057ad50af44d9d107,2022-07-06_09h50.22.820,Colour_Asymmetry_Pilot,2022.1.3,Win32,60.0240096,62c50e9c1127f2cd403a315f,,,,,,
,,,,,,61633b443e445822fb1f24c9,62c53cd057ad50af44d9d107,2022-07-06_09h50.22.820,Colour_Asymmetry_Pilot,2022.1.3,Win32,60.0240096,62c50e9c1127f2cd403a315f,0,0,0,53,1,threefour
,,,,,,61633b443e445822fb1f24c9,62c53cd057ad50af44d9d107,2022-07-06_09h50.22.820,Colour_Asymmetry_Pilot,2022.1.3,Win32,60.0240096,62c50e9c1127f2cd403a315f,0,1,1,41,1,onethree
,,,,,,61633b443e445822fb1f24c9,62c53cd057ad50af44d9d107,2022-07-06_09h50.22.820,Colour_Asymmetry_Pilot,2022.1.3,Win32,60.0240096,62c50e9c1127f2cd403a315f,0,2,2,42,1,twoone
,,,,,,61633b443e445822fb1f24c9,62c53cd057ad50af44d9d107,2022-07-06_09h50.22.820,Colour_Asymmetry_Pilot,2022.1.3,Win32,60.0240096,62c50e9c1127f2cd403a315f,0,3,3,31,1,fourthree
,,,,,,61633b443e445822fb1f24c9,62c53cd057ad50af44d9d107,2022-07-06_09h50.22.820,Colour_Asymmetry_Pilot,2022.1.3,Win32,60.0240096,62c50e9c1127f2cd403a315f,0,4,4,104,1,onetwo
,,,,,,61633b443e445822fb1f24c9,62c53cd057ad50af44d9d107,2022-07-06_09h50.22.820,Colour_Asymmetry_Pilot,2022.1.3,Win32,60.0240096,62c50e9c1127f2cd403a315f,0,5,5,67,1,twofour
,,,,,,61633b443e445822fb1f24c9,62c53cd057ad50af44d9d107,2022-07-06_09h50.22.820,Colour_Asymmetry_Pilot,2022.1.3,Win32,60.0240096,62c50e9c1127f2cd403a315f,0,6,6,23,1,fourthree
,,,,,,61633b443e445822fb1f24c9,62c53cd057ad50af44d9d107,2022-07-06_09h50.22.820,Colour_Asymmetry_Pilot,2022.1.3,Win32,60.0240096,62c50e9c1127f2cd403a315f,0,7,7,62,1,fourtwo
,,,,,,61633b443e445822fb1f24c9,62c53cd057ad50af44d9d107,2022-07-06_09h50.22.820,Colour_Asymmetry_Pilot,2022.1.3,Win32,60.0240096,62c50e9c1127f2cd403a315f,0,8,8,77,1,threefour
,,,,,,61633b443e445822fb1f24c9,62c53cd057ad50af44d9d107,2022-07-06_09h50.22.820,Colour_Asymmetry_Pilot,2022.1.3,Win32,60.0240096,62c50e9c1127f2cd403a315f,0,9,9,146,1,twoone
,,,,,,61633b443e445822fb1f24c9,62c53cd057ad50af44d9d107,2022-07-06_09h50.22.820,Colour_Asymmetry_Pilot,2022.1.3,Win32,60.0240096,62c50e9c1127f2cd403a315f,0,10,10,30,1,fourtwo
,,,,,,61633b443e445822fb1f24c9,62c53cd057ad50af44d9d107,2022-07-06_09h50.22.820,Colour_Asymmetry_Pilot,2022.1.3,Win32,60.0240096,62c50e9c1127f2cd403a315f,0,11,11,47,1,fourthree
,,,,,,61633b443e445822fb1f24c9,62c53cd057ad50af44d9d107,2022-07-06_09h50.22.820,Colour_Asymmetry_Pilot,2022.1.3,Win32,60.0240096,62c50e9c1127f2cd403a315f,0,12,12,108,1,threeone
,,,,,,61633b443e445822fb1f24c9,62c53cd057ad50af44d9d107,2022-07-06_09h50.22.820,Colour_Asymmetry_Pilot,2022.1.3,Win32,60.0240096,62c50e9c1127f2cd403a315f,0,13,13,129,1,onethree
,,,,,,61633b443e445822fb1f24c9,62c53cd057ad50af44d9d107,2022-07-06_09h50.22.820,Colour_Asymmetry_Pilot,2022.1.3,Win32,60.0240096,62c50e9c1127f2cd403a315f,0,14,14,160,1,onetwo
,,,,,,61633b443e445822fb1f24c9,62c53cd057ad50af44d9d107,2022-07-06_09h50.22.820,Colour_Asymmetry_Pilot,2022.1.3,Win32,60.0240096,62c50e9c1127f2cd403a315f,0,15,15,15,1,fourthree
,,,,,,61633b443e445822fb1f24c9,62c53cd057ad50af44d9d107,2022-07-06_09h50.22.820,Colour_Asymmetry_Pilot,2022.1.3,Win32,60.0240096,62c50e9c1127f2cd403a315f,0,16,16,98,1,twoone
,,,,,,61633b443e445822fb1f24c9,62c53cd057ad50af44d9d107,2022-07-06_09h50.22.820,Colour_Asymmetry_Pilot,2022.1.3,Win32,60.0240096,62c50e9c1127f2cd403a315f,0,17,17,11,1,twofour
,,,,,,61633b443e445822fb1f24c9,62c53cd057ad50af44d9d107,2022-07-06_09h50.22.820,Colour_Asymmetry_Pilot,2022.1.3,Win32,60.0240096,62c50e9c1127f2cd403a315f,0,18,18,80,1,onetwo
,,,,,,61633b443e445822fb1f24c9,62c53cd057ad50af44d9d107,2022-07-06_09h50.22.820,Colour_Asymmetry_Pilot,2022.1.3,Win32,60.0240096,62c50e9c1127f2cd403a315f,0,19,19,50,1,twoone
,,,,,,61633b443e445822fb1f24c9,62c53cd057ad50af44d9d107,2022-07-06_09h50.22.820,Colour_Asymmetry_Pilot,2022.1.3,Win32,60.0240096,62c50e9c1127f2cd403a315f,0,20,20,74,1,twoone
,,,,,,61633b443e445822fb1f24c9,62c53cd057ad50af44d9d107,2022-07-06_09h50.22.820,Colour_Asymmetry_Pilot,2022.1.3,Win32,60.0240096,62c50e9c1127f2cd403a315f,0,21,21,63,1,fourthree
,,,,,,61633b443e445822fb1f24c9,62c53cd057ad50af44d9d107,2022-07-06_09h50.22.820,Colour_Asymmetry_Pilot,2022.1.3,Win32,60.0240096,62c50e9c1127f2cd403a315f,0,22,22,49,1,onethree
,,,,,,61633b443e445822fb1f24c9,62c53cd057ad50af44d9d107,2022-07-06_09h50.22.820,Colour_Asymmetry_Pilot,2022.1.3,Win32,60.0240096,62c50e9c1127f2cd403a315f,0,23,23,54,1,fourtwo
,,,,,,61633b443e445822fb1f24c9,62c53cd057ad50af44d9d107,2022-07-06_09h50.22.820,Colour_Asymmetry_Pilot,2022.1.3,Win32,60.0240096,62c50e9c1127f2cd403a315f,0,24,24,71,1,fourthree
,,,,,,61633b443e445822fb1f24c9,62c53cd057ad50af44d9d107,2022-07-06_09h50.22.820,Colour_Asymmetry_Pilot,2022.1.3,Win32,60.0240096,62c50e9c1127f2cd403a315f,0,25,25,109,1,threefour
,,,,,,61633b443e445822fb1f24c9,62c53cd057ad50af44d9d107,2022-07-06_09h50.22.820,Colour_Asymmetry_Pilot,2022.1.3,Win32,60.0240096,62c50e9c1127f2cd403a315f,0,26,26,34,1,twoone
,,,,,,61633b443e445822fb1f24c9,62c53cd057ad50af44d9d107,2022-07-06_09h50.22.820,Colour_Asymmetry_Pilot,2022.1.3,Win32,60.0240096,62c50e9c1127f2cd403a315f,0,27,27,5,1,threefour
,,,,,,61633b443e445822fb1f24c9,62c53cd057ad50af44d9d107,2022-07-06_09h50.22.820,Colour_Asymmetry_Pilot,2022.1.3,Win32,60.0240096,62c50e9c1127f2cd403a315f,0,28,28,3,1,twofour
,,,,,,61633b443e445822fb1f24c9,62c53cd057ad50af44d9d107,2022-07-06_09h50.22.820,Colour_Asymmetry_Pilot,2022.1.3,Win32,60.0240096,62c50e9c1127f2cd403a315f,0,29,29,103,1,fourthree
,,,,,,61633b443e445822fb1f24c9,62c53cd057ad50af44d9d107,2022-07-06_09h50.22.820,Colour_Asymmetry_Pilot,2022.1.3,Win32,60.0240096,62c50e9c1127f2cd403a315f,0,30,30,121,1,onethree
,,,,,,61633b443e445822fb1f24c9,62c53cd057ad50af44d9d107,2022-07-06_09h50.22.820,Colour_Asymmetry_Pilot,2022.1.3,Win32,60.0240096,62c50e9c1127f2cd403a315f,0,31,31,145,1,onethree
,,,,,,61633b443e445822fb1f24c9,62c53cd057ad50af44d9d107,2022-07-06_09h50.22.820,Colour_Asymmetry_Pilot,2022.1.3,Win32,60.0240096,62c50e9c1127f2cd403a315f,0,32,32,57,1,onethree
,,,,,,61633b443e445822fb1f24c9,62c53cd057ad50af44d9d107,2022-07-06_09h50.22.820,Colour_Asymmetry_Pilot,2022.1.3,Win32,60.0240096,62c50e9c1127f2cd403a315f,0,33,33,139,1,twofour
,,,,,,61633b443e445822fb1f24c9,62c53cd057ad50af44d9d107,2022-07-06_09h50.22.820,Colour_Asymmetry_Pilot,2022.1.3,Win32,60.0240096,62c50e9c1127f2cd403a315f,0,34,34,123,1,twofour
,,,,,,61633b443e445822fb1f24c9,62c53cd057ad50af44d9d107,2022-07-06_09h50.22.820,Colour_Asymmetry_Pilot,2022.1.3,Win32,60.0240096,62c50e9c1127f2cd403a315f,0,35,35,93,1,threefour
,,,,,,61633b443e445822fb1f24c9,62c53cd057ad50af44d9d107,2022-07-06_09h50.22.820,Colour_Asymmetry_Pilot,2022.1.3,Win32,60.0240096,62c50e9c1127f2cd403a315f,0,36,36,96,1,onetwo
,,,,,,61633b443e445822fb1f24c9,62c53cd057ad50af44d9d107,2022-07-06_09h50.22.820,Colour_Asymmetry_Pilot,2022.1.3,Win32,60.0240096,62c50e9c1127f2cd403a315f,0,37,37,17,1,onethree
,,,,,,61633b443e445822fb1f24c9,62c53cd057ad50af44d9d107,2022-07-06_09h50.22.820,Colour_Asymmetry_Pilot,2022.1.3,Win32,60.0240096,62c50e9c1127f2cd403a315f,0,38,38,149,1,threefour
,,,,,,61633b443e445822fb1f24c9,62c53cd057ad50af44d9d107,2022-07-06_09h50.22.820,Colour_Asymmetry_Pilot,2022.1.3,Win32,60.0240096,62c50e9c1127f2cd403a315f,0,39,39,134,1,fourtwo
,,,,,,61633b443e445822fb1f24c9,62c53cd057ad50af44d9d107,2022-07-06_09h50.22.820,Colour_Asymmetry_Pilot,2022.1.3,Win32,60.0240096,62c50e9c1127f2cd403a315f,0,40,40,68,1,threeone
,,,,,,61633b443e445822fb1f24c9,62c53cd057ad50af44d9d107,2022-07-06_09h50.22.820,Colour_Asymmetry_Pilot,2022.1.3,Win32,60.0240096,62c50e9c1127f2cd403a315f,0,41,41,155,1,twofour
,,,,,,61633b443e445822fb1f24c9,62c53cd057ad50af44d9d107,2022-07-06_09h50.22.820,Colour_Asymmetry_Pilot,2022.1.3,Win32,60.0240096,62c50e9c1127f2cd403a315f,0,42,42,132,1,threeone
,,,,,,61633b443e445822fb1f24c9,62c53cd057ad50af44d9d107,2022-07-06_09h50.22.820,Colour_Asymmetry_Pilot,2022.1.3,Win32,60.0240096,62c50e9c1127f2cd403a315f,0,43,43,0,1,onetwo
,,,,,,61633b443e445822fb1f24c9,62c53cd057ad50af44d9d107,2022-07-06_09h50.22.820,Colour_Asymmetry_Pilot,2022.1.3,Win32,60.0240096,62c50e9c1127f2cd403a315f,0,44,44,36,1,threeone
,,,,,,61633b443e445822fb1f24c9,62c53cd057ad50af44d9d107,2022-07-06_09h50.22.820,Colour_Asymmetry_Pilot,2022.1.3,Win32,60.0240096,62c50e9c1127f2cd403a315f,0,45,45,48,1,onetwo
,,,,,,61633b443e445822fb1f24c9,62c53cd057ad50af44d9d107,2022-07-06_09h50.22.820,Colour_Asymmetry_Pilot,2022.1.3,Win32,60.0240096,62c50e9c1127f2cd403a315f,0,46,46,125,1,threefour
,,,,,,61633b443e445822fb1f24c9,62c53cd057ad50af44d9d107,2022-07-06_09h50.22.820,Colour_Asymmetry_Pilot,2022.1.3,Win32,60.0240096,62c50e9c1127f2cd403a315f,0,47,47,25,1,onethree
,,,,,,61633b443e445822fb1f24c9,62c53cd057ad50af44d9d107,2022-07-06_09h50.22.820,Colour_Asymmetry_Pilot,2022.1.3,Win32,60.0240096,62c50e9c1127f2cd403a315f,0,48,48,76,1,threeone
,,,,,,61633b443e445822fb1f24c9,62c53cd057ad50af44d9d107,2022-07-06_09h50.22.820,Colour_Asymmetry_Pilot,2022.1.3,Win32,60.0240096,62c50e9c1127f2cd403a315f,0,49,49,105,1,onethree
,,,,,,61633b443e445822fb1f24c9,62c53cd057ad50af44d9d107,2022-07-06_09h50.22.820,Colour_Asymmetry_Pilot,2022.1.3,Win32,60.0240096,62c50e9c1127f2cd403a315f,0,50,50,159,1,fourthree
,,,,,,61633b443e445822fb1f24c9,62c53cd057ad50af44d9d107,2022-07-06_09h50.22.820,Colour_Asymmetry_Pilot,2022.1.3,Win32,60.0240096,62c50e9c1127f2cd403a315f,0,51,51,114,1,twoone
,,,,,,61633b443e445822fb1f24c9,62c53cd057ad50af44d9d107,2022-07-06_09h50.22.820,Colour_Asymmetry_Pilot,2022.1.3,Win32,60.0240096,62c50e9c1127f2cd403a315f,0,52,52,90,1,twoone
,,,,,,61633b443e445822fb1f24c9,62c53cd057ad50af44d9d107,2022-07-06_09h50.22.820,Colour_Asymmetry_Pilot,2022.1.3,Win32,60.0240096,62c50e9c1127f2cd403a315f,0,53,53,52,1,threeone
,,,,,,61633b443e445822fb1f24c9,62c53cd057ad50af44d9d107,2022-07-06_09h50.22.820,Colour_Asymmetry_Pilot,2022.1.3,Win32,60.0240096,62c50e9c1127f2cd403a315f,0,54,54,35,1,twofour
,,,,,,61633b443e445822fb1f24c9,62c53cd057ad50af44d9d107,2022-07-06_09h50.22.820,Colour_Asymmetry_Pilot,2022.1.3,Win32,60.0240096,62c50e9c1127f2cd403a315f,0,55,55,6,1,fourtwo
,,,,,,61633b443e445822fb1f24c9,62c53cd057ad50af44d9d107,2022-07-06_09h50.22.820,Colour_Asymmetry_Pilot,2022.1.3,Win32,60.0240096,62c50e9c1127f2cd403a315f,0,56,56,140,1,threeone
,,,,,,61633b443e445822fb1f24c9,62c53cd057ad50af44d9d107,2022-07-06_09h50.22.820,Colour_Asymmetry_Pilot,2022.1.3,Win32,60.0240096,62c50e9c1127f2cd403a315f,0,57,57,144,1,onetwo
,,,,,,61633b443e445822fb1f24c9,62c53cd057ad50af44d9d107,2022-07-06_09h50.22.820,Colour_Asymmetry_Pilot,2022.1.3,Win32,60.0240096,62c50e9c1127f2cd403a315f,0,58,58,38,1,fourtwo
,,,,,,61633b443e445822fb1f24c9,62c53cd057ad50af44d9d107,2022-07-06_09h50.22.820,Colour_Asymmetry_Pilot,2022.1.3,Win32,60.0240096,62c50e9c1127f2cd403a315f,0,59,59,18,1,twoone
,,,,,,61633b443e445822fb1f24c9,62c53cd057ad50af44d9d107,2022-07-06_09h50.22.820,Colour_Asymmetry_Pilot,2022.1.3,Win32,60.0240096,62c50e9c1127f2cd403a315f,0,60,60,95,1,fourthree
,,,,,,61633b443e445822fb1f24c9,62c53cd057ad50af44d9d107,2022-07-06_09h50.22.820,Colour_Asymmetry_Pilot,2022.1.3,Win32,60.0240096,62c50e9c1127f2cd403a315f,0,61,61,4,1,threeone
,,,,,,61633b443e445822fb1f24c9,62c53cd057ad50af44d9d107,2022-07-06_09h50.22.820,Colour_Asymmetry_Pilot,2022.1.3,Win32,60.0240096,62c50e9c1127f2cd403a315f,0,62,62,110,1,fourtwo
,,,,,,61633b443e445822fb1f24c9,62c53cd057ad50af44d9d107,2022-07-06_09h50.22.820,Colour_Asymmetry_Pilot,2022.1.3,Win32,60.0240096,62c50e9c1127f2cd403a315f,0,63,63,150,1,fourtwo
,,,,,,61633b443e445822fb1f24c9,62c53cd057ad50af44d9d107,2022-07-06_09h50.22.820,Colour_Asymmetry_Pilot,2022.1.3,Win32,60.0240096,62c50e9c1127f2cd403a315f,0,64,64,156,1,threeone
,,,,,,61633b443e445822fb1f24c9,62c53cd057ad50af44d9d107,2022-07-06_09h50.22.820,Colour_Asymmetry_Pilot,2022.1.3,Win32,60.0240096,62c50e9c1127f2cd403a315f,0,65,65,22,1,fourtwo
,,,,,,61633b443e445822fb1f24c9,62c53cd057ad50af44d9d107,2022-07-06_09h50.22.820,Colour_Asymmetry_Pilot,2022.1.3,Win32,60.0240096,62c50e9c1127f2cd403a315f,0,66,66,91,1,twofour
,,,,,,61633b443e445822fb1f24c9,62c53cd057ad50af44d9d107,2022-07-06_09h50.22.820,Colour_Asymmetry_Pilot,2022.1.3,Win32,60.0240096,62c50e9c1127f2cd403a315f,0,67,67,136,1,onetwo
,,,,,,61633b443e445822fb1f24c9,62c53cd057ad50af44d9d107,2022-07-06_09h50.22.820,Colour_Asymmetry_Pilot,2022.1.3,Win32,60.0240096,62c50e9c1127f2cd403a315f,0,68,68,115,1,twofour
,,,,,,61633b443e445822fb1f24c9,62c53cd057ad50af44d9d107,2022-07-06_09h50.22.820,Colour_Asymmetry_Pilot,2022.1.3,Win32,60.0240096,62c50e9c1127f2cd403a315f,0,69,69,26,1,twoone
,,,,,,61633b443e445822fb1f24c9,62c53cd057ad50af44d9d107,2022-07-06_09h50.22.820,Colour_Asymmetry_Pilot,2022.1.3,Win32,60.0240096,62c50e9c1127f2cd403a315f,0,70,70,1,1,onethree
,,,,,,61633b443e445822fb1f24c9,62c53cd057ad50af44d9d107,2022-07-06_09h50.22.820,Colour_Asymmetry_Pilot,2022.1.3,Win32,60.0240096,62c50e9c1127f2cd403a315f,0,71,71,59,1,twofour
,,,,,,61633b443e445822fb1f24c9,62c53cd057ad50af44d9d107,2022-07-06_09h50.22.820,Colour_Asymmetry_Pilot,2022.1.3,Win32,60.0240096,62c50e9c1127f2cd403a315f,0,72,72,64,1,onetwo
,,,,,,61633b443e445822fb1f24c9,62c53cd057ad50af44d9d107,2022-07-06_09h50.22.820,Colour_Asymmetry_Pilot,2022.1.3,Win32,60.0240096,62c50e9c1127f2cd403a315f,0,73,73,65,1,onethree
,,,,,,61633b443e445822fb1f24c9,62c53cd057ad50af44d9d107,2022-07-06_09h50.22.820,Colour_Asymmetry_Pilot,2022.1.3,Win32,60.0240096,62c50e9c1127f2cd403a315f,0,74,74,147,1,twofour
,,,,,,61633b443e445822fb1f24c9,62c53cd057ad50af44d9d107,2022-07-06_09h50.22.820,Colour_Asymmetry_Pilot,2022.1.3,Win32,60.0240096,62c50e9c1127f2cd403a315f,0,75,75,133,1,threefour
,,,,,,61633b443e445822fb1f24c9,62c53cd057ad50af44d9d107,2022-07-06_09h50.22.820,Colour_Asymmetry_Pilot,2022.1.3,Win32,60.0240096,62c50e9c1127f2cd403a315f,0,76,76,111,1,fourthree
,,,,,,61633b443e445822fb1f24c9,62c53cd057ad50af44d9d107,2022-07-06_09h50.22.820,Colour_Asymmetry_Pilot,2022.1.3,Win32,60.0240096,62c50e9c1127f2cd403a315f,0,77,77,131,1,twofour
,,,,,,61633b443e445822fb1f24c9,62c53cd057ad50af44d9d107,2022-07-06_09h50.22.820,Colour_Asymmetry_Pilot,2022.1.3,Win32,60.0240096,62c50e9c1127f2cd403a315f,0,78,78,92,1,threeone
,,,,,,61633b443e445822fb1f24c9,62c53cd057ad50af44d9d107,2022-07-06_09h50.22.820,Colour_Asymmetry_Pilot,2022.1.3,Win32,60.0240096,62c50e9c1127f2cd403a315f,0,79,79,141,1,threefour
,,,,,,61633b443e445822fb1f24c9,62c53cd057ad50af44d9d107,2022-07-06_09h50.22.820,Colour_Asymmetry_Pilot,2022.1.3,Win32,60.0240096,62c50e9c1127f2cd403a315f,0,80,80,19,1,twofour
,,,,,,61633b443e445822fb1f24c9,62c53cd057ad50af44d9d107,2022-07-06_09h50.22.820,Colour_Asymmetry_Pilot,2022.1.3,Win32,60.0240096,62c50e9c1127f2cd403a315f,0,81,81,161,1,onethree
,,,,,,61633b443e445822fb1f24c9,62c53cd057ad50af44d9d107,2022-07-06_09h50.22.820,Colour_Asymmetry_Pilot,2022.1.3,Win32,60.0240096,62c50e9c1127f2cd403a315f,0,82,82,58,1,twoone
,,,,,,61633b443e445822fb1f24c9,62c53cd057ad50af44d9d107,2022-07-06_09h50.22.820,Colour_Asymmetry_Pilot,2022.1.3,Win32,60.0240096,62c50e9c1127f2cd403a315f,0,83,83,116,1,threeone
,,,,,,61633b443e445822fb1f24c9,62c53cd057ad50af44d9d107,2022-07-06_09h50.22.820,Colour_Asymmetry_Pilot,2022.1.3,Win32,60.0240096,62c50e9c1127f2cd403a315f,0,84,84,56,1,onetwo
,,,,,,61633b443e445822fb1f24c9,62c53cd057ad50af44d9d107,2022-07-06_09h50.22.820,Colour_Asymmetry_Pilot,2022.1.3,Win32,60.0240096,62c50e9c1127f2cd403a315f,0,85,85,128,1,onetwo
,,,,,,61633b443e445822fb1f24c9,62c53cd057ad50af44d9d107,2022-07-06_09h50.22.820,Colour_Asymmetry_Pilot,2022.1.3,Win32,60.0240096,62c50e9c1127f2cd403a315f,0,86,86,10,1,twoone
,,,,,,61633b443e445822fb1f24c9,62c53cd057ad50af44d9d107,2022-07-06_09h50.22.820,Colour_Asymmetry_Pilot,2022.1.3,Win32,60.0240096,62c50e9c1127f2cd403a315f,0,87,87,148,1,threeone
,,,,,,61633b443e445822fb1f24c9,62c53cd057ad50af44d9d107,2022-07-06_09h50.22.820,Colour_Asymmetry_Pilot,2022.1.3,Win32,60.0240096,62c50e9c1127f2cd403a315f,0,88,88,83,1,twofour
,,,,,,61633b443e445822fb1f24c9,62c53cd057ad50af44d9d107,2022-07-06_09h50.22.820,Colour_Asymmetry_Pilot,2022.1.3,Win32,60.0240096,62c50e9c1127f2cd403a315f,0,89,89,12,1,threeone
,,,,,,61633b443e445822fb1f24c9,62c53cd057ad50af44d9d107,2022-07-06_09h50.22.820,Colour_Asymmetry_Pilot,2022.1.3,Win32,60.0240096,62c50e9c1127f2cd403a315f,0,90,90,112,1,onetwo
,,,,,,61633b443e445822fb1f24c9,62c53cd057ad50af44d9d107,2022-07-06_09h50.22.820,Colour_Asymmetry_Pilot,2022.1.3,Win32,60.0240096,62c50e9c1127f2cd403a315f,0,91,91,120,1,onetwo
,,,,,,61633b443e445822fb1f24c9,62c53cd057ad50af44d9d107,2022-07-06_09h50.22.820,Colour_Asymmetry_Pilot,2022.1.3,Win32,60.0240096,62c50e9c1127f2cd403a315f,0,92,92,87,1,fourthree
,,,,,,61633b443e445822fb1f24c9,62c53cd057ad50af44d9d107,2022-07-06_09h50.22.820,Colour_Asymmetry_Pilot,2022.1.3,Win32,60.0240096,62c50e9c1127f2cd403a315f,0,93,93,55,1,fourthree
,,,,,,61633b443e445822fb1f24c9,62c53cd057ad50af44d9d107,2022-07-06_09h50.22.820,Colour_Asymmetry_Pilot,2022.1.3,Win32,60.0240096,62c50e9c1127f2cd403a315f,0,94,94,122,1,twoone
,,,,,,61633b443e445822fb1f24c9,62c53cd057ad50af44d9d107,2022-07-06_09h50.22.820,Colour_Asymmetry_Pilot,2022.1.3,Win32,60.0240096,62c50e9c1127f2cd403a315f,0,95,95,27,1,twofour
,,,,,,61633b443e445822fb1f24c9,62c53cd057ad50af44d9d107,2022-07-06_09h50.22.820,Colour_Asymmetry_Pilot,2022.1.3,Win32,60.0240096,62c50e9c1127f2cd403a315f,0,96,96,82,1,twoone
,,,,,,61633b443e445822fb1f24c9,62c53cd057ad50af44d9d107,2022-07-06_09h50.22.820,Colour_Asymmetry_Pilot,2022.1.3,Win32,60.0240096,62c50e9c1127f2cd403a315f,0,97,97,70,1,fourtwo
,,,,,,61633b443e445822fb1f24c9,62c53cd057ad50af44d9d107,2022-07-06_09h50.22.820,Colour_Asymmetry_Pilot,2022.1.3,Win32,60.0240096,62c50e9c1127f2cd403a315f,0,98,98,100,1,threeone
,,,,,,61633b443e445822fb1f24c9,62c53cd057ad50af44d9d107,2022-07-06_09h50.22.820,Colour_Asymmetry_Pilot,2022.1.3,Win32,60.0240096,62c50e9c1127f2cd403a315f,0,99,99,33,1,onethree
,,,,,,61633b443e445822fb1f24c9,62c53cd057ad50af44d9d107,2022-07-06_09h50.22.820,Colour_Asymmetry_Pilot,2022.1.3,Win32,60.0240096,62c50e9c1127f2cd403a315f,0,100,100,130,1,twoone
,,,,,,61633b443e445822fb1f24c9,62c53cd057ad50af44d9d107,2022-07-06_09h50.22.820,Colour_Asymmetry_Pilot,2022.1.3,Win32,60.0240096,62c50e9c1127f2cd403a315f,0,101,101,7,1,fourthree
,,,,,,61633b443e445822fb1f24c9,62c53cd057ad50af44d9d107,2022-07-06_09h50.22.820,Colour_Asymmetry_Pilot,2022.1.3,Win32,60.0240096,62c50e9c1127f2cd403a315f,0,102,102,113,1,onethree
,,,,,,61633b443e445822fb1f24c9,62c53cd057ad50af44d9d107,2022-07-06_09h50.22.820,Colour_Asymmetry_Pilot,2022.1.3,Win32,60.0240096,62c50e9c1127f2cd403a315f,0,103,103,72,1,onetwo
,,,,,,61633b443e445822fb1f24c9,62c53cd057ad50af44d9d107,2022-07-06_09h50.22.820,Colour_Asymmetry_Pilot,2022.1.3,Win32,60.0240096,62c50e9c1127f2cd403a315f,0,104,104,46,1,fourtwo
,,,,,,61633b443e445822fb1f24c9,62c53cd057ad50af44d9d107,2022-07-06_09h50.22.820,Colour_Asymmetry_Pilot,2022.1.3,Win32,60.0240096,62c50e9c1127f2cd403a315f,0,105,105,124,1,threeone
,,,,,,61633b443e445822fb1f24c9,62c53cd057ad50af44d9d107,2022-07-06_09h50.22.820,Colour_Asymmetry_Pilot,2022.1.3,Win32,60.0240096,62c50e9c1127f2cd403a315f,0,106,106,85,1,threefour
,,,,,,61633b443e445822fb1f24c9,62c53cd057ad50af44d9d107,2022-07-06_09h50.22.820,Colour_Asymmetry_Pilot,2022.1.3,Win32,60.0240096,62c50e9c1127f2cd403a315f,0,107,107,142,1,fourtwo
,,,,,,61633b443e445822fb1f24c9,62c53cd057ad50af44d9d107,2022-07-06_09h50.22.820,Colour_Asymmetry_Pilot,2022.1.3,Win32,60.0240096,62c50e9c1127f2cd403a315f,0,108,108,32,1,onetwo
,,,,,,61633b443e445822fb1f24c9,62c53cd057ad50af44d9d107,2022-07-06_09h50.22.820,Colour_Asymmetry_Pilot,2022.1.3,Win32,60.0240096,62c50e9c1127f2cd403a315f,0,109,109,61,1,threefour
,,,,,,61633b443e445822fb1f24c9,62c53cd057ad50af44d9d107,2022-07-06_09h50.22.820,Colour_Asymmetry_Pilot,2022.1.3,Win32,60.0240096,62c50e9c1127f2cd403a315f,0,110,110,79,1,fourthree
,,,,,,61633b443e445822fb1f24c9,62c53cd057ad50af44d9d107,2022-07-06_09h50.22.820,Colour_Asymmetry_Pilot,2022.1.3,Win32,60.0240096,62c50e9c1127f2cd403a315f,0,111,111,9,1,onethree
,,,,,,61633b443e445822fb1f24c9,62c53cd057ad50af44d9d107,2022-07-06_09h50.22.820,Colour_Asymmetry_Pilot,2022.1.3,Win32,60.0240096,62c50e9c1127f2cd403a315f,0,112,112,51,1,twofour
,,,,,,61633b443e445822fb1f24c9,62c53cd057ad50af44d9d107,2022-07-06_09h50.22.820,Colour_Asymmetry_Pilot,2022.1.3,Win32,60.0240096,62c50e9c1127f2cd403a315f,0,113,113,135,1,fourthree
,,,,,,61633b443e445822fb1f24c9,62c53cd057ad50af44d9d107,2022-07-06_09h50.22.820,Colour_Asymmetry_Pilot,2022.1.3,Win32,60.0240096,62c50e9c1127f2cd403a315f,0,114,114,29,1,threefour
,,,,,,61633b443e445822fb1f24c9,62c53cd057ad50af44d9d107,2022-07-06_09h50.22.820,Colour_Asymmetry_Pilot,2022.1.3,Win32,60.0240096,62c50e9c1127f2cd403a315f,0,115,115,118,1,fourtwo
,,,,,,61633b443e445822fb1f24c9,62c53cd057ad50af44d9d107,2022-07-06_09h50.22.820,Colour_Asymmetry_Pilot,2022.1.3,Win32,60.0240096,62c50e9c1127f2cd403a315f,0,116,116,88,1,onetwo
,,,,,,61633b443e445822fb1f24c9,62c53cd057ad50af44d9d107,2022-07-06_09h50.22.820,Colour_Asymmetry_Pilot,2022.1.3,Win32,60.0240096,62c50e9c1127f2cd403a315f,0,117,117,151,1,fourthree
,,,,,,61633b443e445822fb1f24c9,62c53cd057ad50af44d9d107,2022-07-06_09h50.22.820,Colour_Asymmetry_Pilot,2022.1.3,Win32,60.0240096,62c50e9c1127f2cd403a315f,0,118,118,117,1,threefour
,,,,,,61633b443e445822fb1f24c9,62c53cd057ad50af44d9d107,2022-07-06_09h50.22.820,Colour_Asymmetry_Pilot,2022.1.3,Win32,60.0240096,62c50e9c1127f2cd403a315f,0,119,119,75,1,twofour
,,,,,,61633b443e445822fb1f24c9,62c53cd057ad50af44d9d107,2022-07-06_09h50.22.820,Colour_Asymmetry_Pilot,2022.1.3,Win32,60.0240096,62c50e9c1127f2cd403a315f,0,120,120,60,1,threeone
,,,,,,61633b443e445822fb1f24c9,62c53cd057ad50af44d9d107,2022-07-06_09h50.22.820,Colour_Asymmetry_Pilot,2022.1.3,Win32,60.0240096,62c50e9c1127f2cd403a315f,0,121,121,13,1,threefour
,,,,,,61633b443e445822fb1f24c9,62c53cd057ad50af44d9d107,2022-07-06_09h50.22.820,Colour_Asymmetry_Pilot,2022.1.3,Win32,60.0240096,62c50e9c1127f2cd403a315f,0,122,122,86,1,fourtwo
,,,,,,61633b443e445822fb1f24c9,62c53cd057ad50af44d9d107,2022-07-06_09h50.22.820,Colour_Asymmetry_Pilot,2022.1.3,Win32,60.0240096,62c50e9c1127f2cd403a315f,0,123,123,28,1,threeone
,,,,,,61633b443e445822fb1f24c9,62c53cd057ad50af44d9d107,2022-07-06_09h50.22.820,Colour_Asymmetry_Pilot,2022.1.3,Win32,60.0240096,62c50e9c1127f2cd403a315f,0,124,124,94,1,fourtwo
,,,,,,61633b443e445822fb1f24c9,62c53cd057ad50af44d9d107,2022-07-06_09h50.22.820,Colour_Asymmetry_Pilot,2022.1.3,Win32,60.0240096,62c50e9c1127f2cd403a315f,0,125,125,84,1,threeone
,,,,,,61633b443e445822fb1f24c9,62c53cd057ad50af44d9d107,2022-07-06_09h50.22.820,Colour_Asymmetry_Pilot,2022.1.3,Win32,60.0240096,62c50e9c1127f2cd403a315f,0,126,126,119,1,fourthree
,,,,,,61633b443e445822fb1f24c9,62c53cd057ad50af44d9d107,2022-07-06_09h50.22.820,Colour_Asymmetry_Pilot,2022.1.3,Win32,60.0240096,62c50e9c1127f2cd403a315f,0,127,127,153,1,onethree
,,,,,,61633b443e445822fb1f24c9,62c53cd057ad50af44d9d107,2022-07-06_09h50.22.820,Colour_Asymmetry_Pilot,2022.1.3,Win32,60.0240096,62c50e9c1127f2cd403a315f,0,128,128,69,1,threefour
,,,,,,61633b443e445822fb1f24c9,62c53cd057ad50af44d9d107,2022-07-06_09h50.22.820,Colour_Asymmetry_Pilot,2022.1.3,Win32,60.0240096,62c50e9c1127f2cd403a315f,0,129,129,102,1,fourtwo
,,,,,,61633b443e445822fb1f24c9,62c53cd057ad50af44d9d107,2022-07-06_09h50.22.820,Colour_Asymmetry_Pilot,2022.1.3,Win32,60.0240096,62c50e9c1127f2cd403a315f,0,130,130,2,1,twoone
,,,,,,61633b443e445822fb1f24c9,62c53cd057ad50af44d9d107,2022-07-06_09h50.22.820,Colour_Asymmetry_Pilot,2022.1.3,Win32,60.0240096,62c50e9c1127f2cd403a315f,0,131,131,158,1,fourtwo
,,,,,,61633b443e445822fb1f24c9,62c53cd057ad50af44d9d107,2022-07-06_09h50.22.820,Colour_Asymmetry_Pilot,2022.1.3,Win32,60.0240096,62c50e9c1127f2cd403a315f,0,132,132,16,1,onetwo
,,,,,,61633b443e445822fb1f24c9,62c53cd057ad50af44d9d107,2022-07-06_09h50.22.820,Colour_Asymmetry_Pilot,2022.1.3,Win32,60.0240096,62c50e9c1127f2cd403a315f,0,133,133,154,1,twoone
,,,,,,61633b443e445822fb1f24c9,62c53cd057ad50af44d9d107,2022-07-06_09h50.22.820,Colour_Asymmetry_Pilot,2022.1.3,Win32,60.0240096,62c50e9c1127f2cd403a315f,0,134,134,20,1,threeone
,,,,,,61633b443e445822fb1f24c9,62c53cd057ad50af44d9d107,2022-07-06_09h50.22.820,Colour_Asymmetry_Pilot,2022.1.3,Win32,60.0240096,62c50e9c1127f2cd403a315f,0,135,135,66,1,twoone
,,,,,,61633b443e445822fb1f24c9,62c53cd057ad50af44d9d107,2022-07-06_09h50.22.820,Colour_Asymmetry_Pilot,2022.1.3,Win32,60.0240096,62c50e9c1127f2cd403a315f,0,136,136,45,1,threefour
,,,,,,61633b443e445822fb1f24c9,62c53cd057ad50af44d9d107,2022-07-06_09h50.22.820,Colour_Asymmetry_Pilot,2022.1.3,Win32,60.0240096,62c50e9c1127f2cd403a315f,0,137,137,78,1,fourtwo
,,,,,,61633b443e445822fb1f24c9,62c53cd057ad50af44d9d107,2022-07-06_09h50.22.820,Colour_Asymmetry_Pilot,2022.1.3,Win32,60.0240096,62c50e9c1127f2cd403a315f,0,138,138,97,1,onethree
,,,,,,61633b443e445822fb1f24c9,62c53cd057ad50af44d9d107,2022-07-06_09h50.22.820,Colour_Asymmetry_Pilot,2022.1.3,Win32,60.0240096,62c50e9c1127f2cd403a315f,0,139,139,43,1,twofour
,,,,,,61633b443e445822fb1f24c9,62c53cd057ad50af44d9d107,2022-07-06_09h50.22.820,Colour_Asymmetry_Pilot,2022.1.3,Win32,60.0240096,62c50e9c1127f2cd403a315f,0,140,140,39,1,fourthree
,,,,,,61633b443e445822fb1f24c9,62c53cd057ad50af44d9d107,2022-07-06_09h50.22.820,Colour_Asymmetry_Pilot,2022.1.3,Win32,60.0240096,62c50e9c1127f2cd403a315f,0,141,141,143,1,fourthree
,,,,,,61633b443e445822fb1f24c9,62c53cd057ad50af44d9d107,2022-07-06_09h50.22.820,Colour_Asymmetry_Pilot,2022.1.3,Win32,60.0240096,62c50e9c1127f2cd403a315f,0,142,142,89,1,onethree
,,,,,,61633b443e445822fb1f24c9,62c53cd057ad50af44d9d107,2022-07-06_09h50.22.820,Colour_Asymmetry_Pilot,2022.1.3,Win32,60.0240096,62c50e9c1127f2cd403a315f,0,143,143,137,1,onethree
,,,,,,61633b443e445822fb1f24c9,62c53cd057ad50af44d9d107,2022-07-06_09h50.22.820,Colour_Asymmetry_Pilot,2022.1.3,Win32,60.0240096,62c50e9c1127f2cd403a315f,0,144,144,126,1,fourtwo
,,,,,,61633b443e445822fb1f24c9,62c53cd057ad50af44d9d107,2022-07-06_09h50.22.820,Colour_Asymmetry_Pilot,2022.1.3,Win32,60.0240096,62c50e9c1127f2cd403a315f,0,145,145,14,1,fourtwo
,,,,,,61633b443e445822fb1f24c9,62c53cd057ad50af44d9d107,2022-07-06_09h50.22.820,Colour_Asymmetry_Pilot,2022.1.3,Win32,60.0240096,62c50e9c1127f2cd403a315f,0,146,146,107,1,twofour
,,,,,,61633b443e445822fb1f24c9,62c53cd057ad50af44d9d107,2022-07-06_09h50.22.820,Colour_Asymmetry_Pilot,2022.1.3,Win32,60.0240096,62c50e9c1127f2cd403a315f,0,147,147,138,1,twoone
,,,,,,61633b443e445822fb1f24c9,62c53cd057ad50af44d9d107,2022-07-06_09h50.22.820,Colour_Asymmetry_Pilot,2022.1.3,Win32,60.0240096,62c50e9c1127f2cd403a315f,0,148,148,37,1,threefour
,,,,,,61633b443e445822fb1f24c9,62c53cd057ad50af44d9d107,2022-07-06_09h50.22.820,Colour_Asymmetry_Pilot,2022.1.3,Win32,60.0240096,62c50e9c1127f2cd403a315f,0,149,149,152,1,onetwo
,,,,,,61633b443e445822fb1f24c9,62c53cd057ad50af44d9d107,2022-07-06_09h50.22.820,Colour_Asymmetry_Pilot,2022.1.3,Win32,60.0240096,62c50e9c1127f2cd403a315f,0,150,150,24,1,onetwo
,,,,,,61633b443e445822fb1f24c9,62c53cd057ad50af44d9d107,2022-07-06_09h50.22.820,Colour_Asymmetry_Pilot,2022.1.3,Win32,60.0240096,62c50e9c1127f2cd403a315f,0,151,151,21,1,threefour
,,,,,,61633b443e445822fb1f24c9,62c53cd057ad50af44d9d107,2022-07-06_09h50.22.820,Colour_Asymmetry_Pilot,2022.1.3,Win32,60.0240096,62c50e9c1127f2cd403a315f,0,152,152,40,1,onetwo
,,,,,,61633b443e445822fb1f24c9,62c53cd057ad50af44d9d107,2022-07-06_09h50.22.820,Colour_Asymmetry_Pilot,2022.1.3,Win32,60.0240096,62c50e9c1127f2cd403a315f,0,153,153,44,1,threeone
,,,,,,61633b443e445822fb1f24c9,62c53cd057ad50af44d9d107,2022-07-06_09h50.22.820,Colour_Asymmetry_Pilot,2022.1.3,Win32,60.0240096,62c50e9c1127f2cd403a315f,0,154,154,157,1,threefour
,,,,,,61633b443e445822fb1f24c9,62c53cd057ad50af44d9d107,2022-07-06_09h50.22.820,Colour_Asymmetry_Pilot,2022.1.3,Win32,60.0240096,62c50e9c1127f2cd403a315f,0,155,155,106,1,twoone
,,,,,,61633b443e445822fb1f24c9,62c53cd057ad50af44d9d107,2022-07-06_09h50.22.820,Colour_Asymmetry_Pilot,2022.1.3,Win32,60.0240096,62c50e9c1127f2cd403a315f,0,156,156,81,1,onethree
,,,,,,61633b443e445822fb1f24c9,62c53cd057ad50af44d9d107,2022-07-06_09h50.22.820,Colour_Asymmetry_Pilot,2022.1.3,Win32,60.0240096,62c50e9c1127f2cd403a315f,0,157,157,8,1,onetwo
,,,,,,61633b443e445822fb1f24c9,62c53cd057ad50af44d9d107,2022-07-06_09h50.22.820,Colour_Asymmetry_Pilot,2022.1.3,Win32,60.0240096,62c50e9c1127f2cd403a315f,0,158,158,73,1,onethree
,,,,,,61633b443e445822fb1f24c9,62c53cd057ad50af44d9d107,2022-07-06_09h50.22.820,Colour_Asymmetry_Pilot,2022.1.3,Win32,60.0240096,62c50e9c1127f2cd403a315f,0,159,159,101,1,threefour
,,,,,,61633b443e445822fb1f24c9,62c53cd057ad50af44d9d107,2022-07-06_09h50.22.820,Colour_Asymmetry_Pilot,2022.1.3,Win32,60.0240096,62c50e9c1127f2cd403a315f,0,160,160,127,1,fourthree
,,,,,,61633b443e445822fb1f24c9,62c53cd057ad50af44d9d107,2022-07-06_09h50.22.820,Colour_Asymmetry_Pilot,2022.1.3,Win32,60.0240096,62c50e9c1127f2cd403a315f,0,161,161,99,1,twofour
