trials.thisRepN,trials.thisTrialN,trials.thisN,trials.thisIndex,trials.ran,Colourcodes,participant,session,date,expName,psychopyVersion,OS,frameRate,study_id,trials_4.thisRepN,trials_4.thisTrialN,trials_4.thisN,trials_4.thisIndex,trials_4.ran,StimulusPos
0,0,0,72,1,,5eb331bc1f70081249e6fb7a,62c539b4a9a7a237c3f6d3fa,2022-07-06_08h29.23.516,Colour_Asymmetry_Pilot,2022.1.3,Win32,59.95203837,62c50e9c1127f2cd403a315f,,,,,,
0,1,1,57,1,,5eb331bc1f70081249e6fb7a,62c539b4a9a7a237c3f6d3fa,2022-07-06_08h29.23.516,Colour_Asymmetry_Pilot,2022.1.3,Win32,59.95203837,62c50e9c1127f2cd403a315f,,,,,,
0,2,2,65,1,,5eb331bc1f70081249e6fb7a,62c539b4a9a7a237c3f6d3fa,2022-07-06_08h29.23.516,Colour_Asymmetry_Pilot,2022.1.3,Win32,59.95203837,62c50e9c1127f2cd403a315f,,,,,,
0,3,3,13,1,,5eb331bc1f70081249e6fb7a,62c539b4a9a7a237c3f6d3fa,2022-07-06_08h29.23.516,Colour_Asymmetry_Pilot,2022.1.3,Win32,59.95203837,62c50e9c1127f2cd403a315f,,,,,,
0,4,4,35,1,,5eb331bc1f70081249e6fb7a,62c539b4a9a7a237c3f6d3fa,2022-07-06_08h29.23.516,Colour_Asymmetry_Pilot,2022.1.3,Win32,59.95203837,62c50e9c1127f2cd403a315f,,,,,,
0,5,5,83,1,,5eb331bc1f70081249e6fb7a,62c539b4a9a7a237c3f6d3fa,2022-07-06_08h29.23.516,Colour_Asymmetry_Pilot,2022.1.3,Win32,59.95203837,62c50e9c1127f2cd403a315f,,,,,,
0,6,6,82,1,,5eb331bc1f70081249e6fb7a,62c539b4a9a7a237c3f6d3fa,2022-07-06_08h29.23.516,Colour_Asymmetry_Pilot,2022.1.3,Win32,59.95203837,62c50e9c1127f2cd403a315f,,,,,,
0,7,7,62,1,,5eb331bc1f70081249e6fb7a,62c539b4a9a7a237c3f6d3fa,2022-07-06_08h29.23.516,Colour_Asymmetry_Pilot,2022.1.3,Win32,59.95203837,62c50e9c1127f2cd403a315f,,,,,,
0,8,8,70,1,,5eb331bc1f70081249e6fb7a,62c539b4a9a7a237c3f6d3fa,2022-07-06_08h29.23.516,Colour_Asymmetry_Pilot,2022.1.3,Win32,59.95203837,62c50e9c1127f2cd403a315f,,,,,,
0,9,9,92,1,,5eb331bc1f70081249e6fb7a,62c539b4a9a7a237c3f6d3fa,2022-07-06_08h29.23.516,Colour_Asymmetry_Pilot,2022.1.3,Win32,59.95203837,62c50e9c1127f2cd403a315f,,,,,,
0,10,10,20,1,,5eb331bc1f70081249e6fb7a,62c539b4a9a7a237c3f6d3fa,2022-07-06_08h29.23.516,Colour_Asymmetry_Pilot,2022.1.3,Win32,59.95203837,62c50e9c1127f2cd403a315f,,,,,,
0,11,11,44,1,,5eb331bc1f70081249e6fb7a,62c539b4a9a7a237c3f6d3fa,2022-07-06_08h29.23.516,Colour_Asymmetry_Pilot,2022.1.3,Win32,59.95203837,62c50e9c1127f2cd403a315f,,,,,,
0,12,12,60,1,,5eb331bc1f70081249e6fb7a,62c539b4a9a7a237c3f6d3fa,2022-07-06_08h29.23.516,Colour_Asymmetry_Pilot,2022.1.3,Win32,59.95203837,62c50e9c1127f2cd403a315f,,,,,,
0,13,13,56,1,,5eb331bc1f70081249e6fb7a,62c539b4a9a7a237c3f6d3fa,2022-07-06_08h29.23.516,Colour_Asymmetry_Pilot,2022.1.3,Win32,59.95203837,62c50e9c1127f2cd403a315f,,,,,,
0,14,14,75,1,,5eb331bc1f70081249e6fb7a,62c539b4a9a7a237c3f6d3fa,2022-07-06_08h29.23.516,Colour_Asymmetry_Pilot,2022.1.3,Win32,59.95203837,62c50e9c1127f2cd403a315f,,,,,,
0,15,15,11,1,,5eb331bc1f70081249e6fb7a,62c539b4a9a7a237c3f6d3fa,2022-07-06_08h29.23.516,Colour_Asymmetry_Pilot,2022.1.3,Win32,59.95203837,62c50e9c1127f2cd403a315f,,,,,,
0,16,16,81,1,,5eb331bc1f70081249e6fb7a,62c539b4a9a7a237c3f6d3fa,2022-07-06_08h29.23.516,Colour_Asymmetry_Pilot,2022.1.3,Win32,59.95203837,62c50e9c1127f2cd403a315f,,,,,,
0,17,17,46,1,,5eb331bc1f70081249e6fb7a,62c539b4a9a7a237c3f6d3fa,2022-07-06_08h29.23.516,Colour_Asymmetry_Pilot,2022.1.3,Win32,59.95203837,62c50e9c1127f2cd403a315f,,,,,,
0,18,18,26,1,,5eb331bc1f70081249e6fb7a,62c539b4a9a7a237c3f6d3fa,2022-07-06_08h29.23.516,Colour_Asymmetry_Pilot,2022.1.3,Win32,59.95203837,62c50e9c1127f2cd403a315f,,,,,,
0,19,19,68,1,,5eb331bc1f70081249e6fb7a,62c539b4a9a7a237c3f6d3fa,2022-07-06_08h29.23.516,Colour_Asymmetry_Pilot,2022.1.3,Win32,59.95203837,62c50e9c1127f2cd403a315f,,,,,,
0,20,20,40,1,,5eb331bc1f70081249e6fb7a,62c539b4a9a7a237c3f6d3fa,2022-07-06_08h29.23.516,Colour_Asymmetry_Pilot,2022.1.3,Win32,59.95203837,62c50e9c1127f2cd403a315f,,,,,,
0,21,21,2,1,,5eb331bc1f70081249e6fb7a,62c539b4a9a7a237c3f6d3fa,2022-07-06_08h29.23.516,Colour_Asymmetry_Pilot,2022.1.3,Win32,59.95203837,62c50e9c1127f2cd403a315f,,,,,,
0,22,22,5,1,,5eb331bc1f70081249e6fb7a,62c539b4a9a7a237c3f6d3fa,2022-07-06_08h29.23.516,Colour_Asymmetry_Pilot,2022.1.3,Win32,59.95203837,62c50e9c1127f2cd403a315f,,,,,,
0,23,23,85,1,,5eb331bc1f70081249e6fb7a,62c539b4a9a7a237c3f6d3fa,2022-07-06_08h29.23.516,Colour_Asymmetry_Pilot,2022.1.3,Win32,59.95203837,62c50e9c1127f2cd403a315f,,,,,,
0,24,24,41,1,,5eb331bc1f70081249e6fb7a,62c539b4a9a7a237c3f6d3fa,2022-07-06_08h29.23.516,Colour_Asymmetry_Pilot,2022.1.3,Win32,59.95203837,62c50e9c1127f2cd403a315f,,,,,,
0,25,25,25,1,,5eb331bc1f70081249e6fb7a,62c539b4a9a7a237c3f6d3fa,2022-07-06_08h29.23.516,Colour_Asymmetry_Pilot,2022.1.3,Win32,59.95203837,62c50e9c1127f2cd403a315f,,,,,,
0,26,26,43,1,,5eb331bc1f70081249e6fb7a,62c539b4a9a7a237c3f6d3fa,2022-07-06_08h29.23.516,Colour_Asymmetry_Pilot,2022.1.3,Win32,59.95203837,62c50e9c1127f2cd403a315f,,,,,,
0,27,27,45,1,,5eb331bc1f70081249e6fb7a,62c539b4a9a7a237c3f6d3fa,2022-07-06_08h29.23.516,Colour_Asymmetry_Pilot,2022.1.3,Win32,59.95203837,62c50e9c1127f2cd403a315f,,,,,,
0,28,28,12,1,,5eb331bc1f70081249e6fb7a,62c539b4a9a7a237c3f6d3fa,2022-07-06_08h29.23.516,Colour_Asymmetry_Pilot,2022.1.3,Win32,59.95203837,62c50e9c1127f2cd403a315f,,,,,,
0,29,29,21,1,,5eb331bc1f70081249e6fb7a,62c539b4a9a7a237c3f6d3fa,2022-07-06_08h29.23.516,Colour_Asymmetry_Pilot,2022.1.3,Win32,59.95203837,62c50e9c1127f2cd403a315f,,,,,,
0,30,30,52,1,,5eb331bc1f70081249e6fb7a,62c539b4a9a7a237c3f6d3fa,2022-07-06_08h29.23.516,Colour_Asymmetry_Pilot,2022.1.3,Win32,59.95203837,62c50e9c1127f2cd403a315f,,,,,,
0,31,31,16,1,,5eb331bc1f70081249e6fb7a,62c539b4a9a7a237c3f6d3fa,2022-07-06_08h29.23.516,Colour_Asymmetry_Pilot,2022.1.3,Win32,59.95203837,62c50e9c1127f2cd403a315f,,,,,,
0,32,32,51,1,,5eb331bc1f70081249e6fb7a,62c539b4a9a7a237c3f6d3fa,2022-07-06_08h29.23.516,Colour_Asymmetry_Pilot,2022.1.3,Win32,59.95203837,62c50e9c1127f2cd403a315f,,,,,,
0,33,33,67,1,,5eb331bc1f70081249e6fb7a,62c539b4a9a7a237c3f6d3fa,2022-07-06_08h29.23.516,Colour_Asymmetry_Pilot,2022.1.3,Win32,59.95203837,62c50e9c1127f2cd403a315f,,,,,,
0,34,34,53,1,,5eb331bc1f70081249e6fb7a,62c539b4a9a7a237c3f6d3fa,2022-07-06_08h29.23.516,Colour_Asymmetry_Pilot,2022.1.3,Win32,59.95203837,62c50e9c1127f2cd403a315f,,,,,,
0,35,35,15,1,,5eb331bc1f70081249e6fb7a,62c539b4a9a7a237c3f6d3fa,2022-07-06_08h29.23.516,Colour_Asymmetry_Pilot,2022.1.3,Win32,59.95203837,62c50e9c1127f2cd403a315f,,,,,,
0,36,36,18,1,,5eb331bc1f70081249e6fb7a,62c539b4a9a7a237c3f6d3fa,2022-07-06_08h29.23.516,Colour_Asymmetry_Pilot,2022.1.3,Win32,59.95203837,62c50e9c1127f2cd403a315f,,,,,,
0,37,37,66,1,,5eb331bc1f70081249e6fb7a,62c539b4a9a7a237c3f6d3fa,2022-07-06_08h29.23.516,Colour_Asymmetry_Pilot,2022.1.3,Win32,59.95203837,62c50e9c1127f2cd403a315f,,,,,,
0,38,38,14,1,,5eb331bc1f70081249e6fb7a,62c539b4a9a7a237c3f6d3fa,2022-07-06_08h29.23.516,Colour_Asymmetry_Pilot,2022.1.3,Win32,59.95203837,62c50e9c1127f2cd403a315f,,,,,,
0,39,39,24,1,,5eb331bc1f70081249e6fb7a,62c539b4a9a7a237c3f6d3fa,2022-07-06_08h29.23.516,Colour_Asymmetry_Pilot,2022.1.3,Win32,59.95203837,62c50e9c1127f2cd403a315f,,,,,,
0,40,40,38,1,,5eb331bc1f70081249e6fb7a,62c539b4a9a7a237c3f6d3fa,2022-07-06_08h29.23.516,Colour_Asymmetry_Pilot,2022.1.3,Win32,59.95203837,62c50e9c1127f2cd403a315f,,,,,,
0,41,41,76,1,,5eb331bc1f70081249e6fb7a,62c539b4a9a7a237c3f6d3fa,2022-07-06_08h29.23.516,Colour_Asymmetry_Pilot,2022.1.3,Win32,59.95203837,62c50e9c1127f2cd403a315f,,,,,,
0,42,42,84,1,,5eb331bc1f70081249e6fb7a,62c539b4a9a7a237c3f6d3fa,2022-07-06_08h29.23.516,Colour_Asymmetry_Pilot,2022.1.3,Win32,59.95203837,62c50e9c1127f2cd403a315f,,,,,,
0,43,43,4,1,,5eb331bc1f70081249e6fb7a,62c539b4a9a7a237c3f6d3fa,2022-07-06_08h29.23.516,Colour_Asymmetry_Pilot,2022.1.3,Win32,59.95203837,62c50e9c1127f2cd403a315f,,,,,,
0,44,44,39,1,,5eb331bc1f70081249e6fb7a,62c539b4a9a7a237c3f6d3fa,2022-07-06_08h29.23.516,Colour_Asymmetry_Pilot,2022.1.3,Win32,59.95203837,62c50e9c1127f2cd403a315f,,,,,,
0,45,45,19,1,,5eb331bc1f70081249e6fb7a,62c539b4a9a7a237c3f6d3fa,2022-07-06_08h29.23.516,Colour_Asymmetry_Pilot,2022.1.3,Win32,59.95203837,62c50e9c1127f2cd403a315f,,,,,,
0,46,46,6,1,,5eb331bc1f70081249e6fb7a,62c539b4a9a7a237c3f6d3fa,2022-07-06_08h29.23.516,Colour_Asymmetry_Pilot,2022.1.3,Win32,59.95203837,62c50e9c1127f2cd403a315f,,,,,,
0,47,47,63,1,,5eb331bc1f70081249e6fb7a,62c539b4a9a7a237c3f6d3fa,2022-07-06_08h29.23.516,Colour_Asymmetry_Pilot,2022.1.3,Win32,59.95203837,62c50e9c1127f2cd403a315f,,,,,,
0,48,48,33,1,,5eb331bc1f70081249e6fb7a,62c539b4a9a7a237c3f6d3fa,2022-07-06_08h29.23.516,Colour_Asymmetry_Pilot,2022.1.3,Win32,59.95203837,62c50e9c1127f2cd403a315f,,,,,,
0,49,49,77,1,,5eb331bc1f70081249e6fb7a,62c539b4a9a7a237c3f6d3fa,2022-07-06_08h29.23.516,Colour_Asymmetry_Pilot,2022.1.3,Win32,59.95203837,62c50e9c1127f2cd403a315f,,,,,,
0,50,50,32,1,,5eb331bc1f70081249e6fb7a,62c539b4a9a7a237c3f6d3fa,2022-07-06_08h29.23.516,Colour_Asymmetry_Pilot,2022.1.3,Win32,59.95203837,62c50e9c1127f2cd403a315f,,,,,,
0,51,51,90,1,,5eb331bc1f70081249e6fb7a,62c539b4a9a7a237c3f6d3fa,2022-07-06_08h29.23.516,Colour_Asymmetry_Pilot,2022.1.3,Win32,59.95203837,62c50e9c1127f2cd403a315f,,,,,,
0,52,52,87,1,,5eb331bc1f70081249e6fb7a,62c539b4a9a7a237c3f6d3fa,2022-07-06_08h29.23.516,Colour_Asymmetry_Pilot,2022.1.3,Win32,59.95203837,62c50e9c1127f2cd403a315f,,,,,,
0,53,53,8,1,,5eb331bc1f70081249e6fb7a,62c539b4a9a7a237c3f6d3fa,2022-07-06_08h29.23.516,Colour_Asymmetry_Pilot,2022.1.3,Win32,59.95203837,62c50e9c1127f2cd403a315f,,,,,,
0,54,54,73,1,,5eb331bc1f70081249e6fb7a,62c539b4a9a7a237c3f6d3fa,2022-07-06_08h29.23.516,Colour_Asymmetry_Pilot,2022.1.3,Win32,59.95203837,62c50e9c1127f2cd403a315f,,,,,,
0,55,55,50,1,,5eb331bc1f70081249e6fb7a,62c539b4a9a7a237c3f6d3fa,2022-07-06_08h29.23.516,Colour_Asymmetry_Pilot,2022.1.3,Win32,59.95203837,62c50e9c1127f2cd403a315f,,,,,,
0,56,56,55,1,,5eb331bc1f70081249e6fb7a,62c539b4a9a7a237c3f6d3fa,2022-07-06_08h29.23.516,Colour_Asymmetry_Pilot,2022.1.3,Win32,59.95203837,62c50e9c1127f2cd403a315f,,,,,,
0,57,57,47,1,,5eb331bc1f70081249e6fb7a,62c539b4a9a7a237c3f6d3fa,2022-07-06_08h29.23.516,Colour_Asymmetry_Pilot,2022.1.3,Win32,59.95203837,62c50e9c1127f2cd403a315f,,,,,,
0,58,58,0,1,,5eb331bc1f70081249e6fb7a,62c539b4a9a7a237c3f6d3fa,2022-07-06_08h29.23.516,Colour_Asymmetry_Pilot,2022.1.3,Win32,59.95203837,62c50e9c1127f2cd403a315f,,,,,,
0,59,59,58,1,,5eb331bc1f70081249e6fb7a,62c539b4a9a7a237c3f6d3fa,2022-07-06_08h29.23.516,Colour_Asymmetry_Pilot,2022.1.3,Win32,59.95203837,62c50e9c1127f2cd403a315f,,,,,,
0,60,60,49,1,,5eb331bc1f70081249e6fb7a,62c539b4a9a7a237c3f6d3fa,2022-07-06_08h29.23.516,Colour_Asymmetry_Pilot,2022.1.3,Win32,59.95203837,62c50e9c1127f2cd403a315f,,,,,,
0,61,61,31,1,,5eb331bc1f70081249e6fb7a,62c539b4a9a7a237c3f6d3fa,2022-07-06_08h29.23.516,Colour_Asymmetry_Pilot,2022.1.3,Win32,59.95203837,62c50e9c1127f2cd403a315f,,,,,,
0,62,62,74,1,,5eb331bc1f70081249e6fb7a,62c539b4a9a7a237c3f6d3fa,2022-07-06_08h29.23.516,Colour_Asymmetry_Pilot,2022.1.3,Win32,59.95203837,62c50e9c1127f2cd403a315f,,,,,,
0,63,63,59,1,,5eb331bc1f70081249e6fb7a,62c539b4a9a7a237c3f6d3fa,2022-07-06_08h29.23.516,Colour_Asymmetry_Pilot,2022.1.3,Win32,59.95203837,62c50e9c1127f2cd403a315f,,,,,,
0,64,64,71,1,,5eb331bc1f70081249e6fb7a,62c539b4a9a7a237c3f6d3fa,2022-07-06_08h29.23.516,Colour_Asymmetry_Pilot,2022.1.3,Win32,59.95203837,62c50e9c1127f2cd403a315f,,,,,,
0,65,65,86,1,,5eb331bc1f70081249e6fb7a,62c539b4a9a7a237c3f6d3fa,2022-07-06_08h29.23.516,Colour_Asymmetry_Pilot,2022.1.3,Win32,59.95203837,62c50e9c1127f2cd403a315f,,,,,,
0,66,66,36,1,,5eb331bc1f70081249e6fb7a,62c539b4a9a7a237c3f6d3fa,2022-07-06_08h29.23.516,Colour_Asymmetry_Pilot,2022.1.3,Win32,59.95203837,62c50e9c1127f2cd403a315f,,,,,,
0,67,67,89,1,,5eb331bc1f70081249e6fb7a,62c539b4a9a7a237c3f6d3fa,2022-07-06_08h29.23.516,Colour_Asymmetry_Pilot,2022.1.3,Win32,59.95203837,62c50e9c1127f2cd403a315f,,,,,,
0,68,68,22,1,,5eb331bc1f70081249e6fb7a,62c539b4a9a7a237c3f6d3fa,2022-07-06_08h29.23.516,Colour_Asymmetry_Pilot,2022.1.3,Win32,59.95203837,62c50e9c1127f2cd403a315f,,,,,,
0,69,69,54,1,,5eb331bc1f70081249e6fb7a,62c539b4a9a7a237c3f6d3fa,2022-07-06_08h29.23.516,Colour_Asymmetry_Pilot,2022.1.3,Win32,59.95203837,62c50e9c1127f2cd403a315f,,,,,,
0,70,70,88,1,,5eb331bc1f70081249e6fb7a,62c539b4a9a7a237c3f6d3fa,2022-07-06_08h29.23.516,Colour_Asymmetry_Pilot,2022.1.3,Win32,59.95203837,62c50e9c1127f2cd403a315f,,,,,,
0,71,71,27,1,,5eb331bc1f70081249e6fb7a,62c539b4a9a7a237c3f6d3fa,2022-07-06_08h29.23.516,Colour_Asymmetry_Pilot,2022.1.3,Win32,59.95203837,62c50e9c1127f2cd403a315f,,,,,,
0,72,72,61,1,,5eb331bc1f70081249e6fb7a,62c539b4a9a7a237c3f6d3fa,2022-07-06_08h29.23.516,Colour_Asymmetry_Pilot,2022.1.3,Win32,59.95203837,62c50e9c1127f2cd403a315f,,,,,,
0,73,73,79,1,,5eb331bc1f70081249e6fb7a,62c539b4a9a7a237c3f6d3fa,2022-07-06_08h29.23.516,Colour_Asymmetry_Pilot,2022.1.3,Win32,59.95203837,62c50e9c1127f2cd403a315f,,,,,,
0,74,74,3,1,,5eb331bc1f70081249e6fb7a,62c539b4a9a7a237c3f6d3fa,2022-07-06_08h29.23.516,Colour_Asymmetry_Pilot,2022.1.3,Win32,59.95203837,62c50e9c1127f2cd403a315f,,,,,,
0,75,75,91,1,,5eb331bc1f70081249e6fb7a,62c539b4a9a7a237c3f6d3fa,2022-07-06_08h29.23.516,Colour_Asymmetry_Pilot,2022.1.3,Win32,59.95203837,62c50e9c1127f2cd403a315f,,,,,,
0,76,76,17,1,,5eb331bc1f70081249e6fb7a,62c539b4a9a7a237c3f6d3fa,2022-07-06_08h29.23.516,Colour_Asymmetry_Pilot,2022.1.3,Win32,59.95203837,62c50e9c1127f2cd403a315f,,,,,,
0,77,77,42,1,,5eb331bc1f70081249e6fb7a,62c539b4a9a7a237c3f6d3fa,2022-07-06_08h29.23.516,Colour_Asymmetry_Pilot,2022.1.3,Win32,59.95203837,62c50e9c1127f2cd403a315f,,,,,,
0,78,78,9,1,,5eb331bc1f70081249e6fb7a,62c539b4a9a7a237c3f6d3fa,2022-07-06_08h29.23.516,Colour_Asymmetry_Pilot,2022.1.3,Win32,59.95203837,62c50e9c1127f2cd403a315f,,,,,,
0,79,79,37,1,,5eb331bc1f70081249e6fb7a,62c539b4a9a7a237c3f6d3fa,2022-07-06_08h29.23.516,Colour_Asymmetry_Pilot,2022.1.3,Win32,59.95203837,62c50e9c1127f2cd403a315f,,,,,,
0,80,80,1,1,,5eb331bc1f70081249e6fb7a,62c539b4a9a7a237c3f6d3fa,2022-07-06_08h29.23.516,Colour_Asymmetry_Pilot,2022.1.3,Win32,59.95203837,62c50e9c1127f2cd403a315f,,,,,,
0,81,81,23,1,,5eb331bc1f70081249e6fb7a,62c539b4a9a7a237c3f6d3fa,2022-07-06_08h29.23.516,Colour_Asymmetry_Pilot,2022.1.3,Win32,59.95203837,62c50e9c1127f2cd403a315f,,,,,,
0,82,82,78,1,,5eb331bc1f70081249e6fb7a,62c539b4a9a7a237c3f6d3fa,2022-07-06_08h29.23.516,Colour_Asymmetry_Pilot,2022.1.3,Win32,59.95203837,62c50e9c1127f2cd403a315f,,,,,,
0,83,83,29,1,,5eb331bc1f70081249e6fb7a,62c539b4a9a7a237c3f6d3fa,2022-07-06_08h29.23.516,Colour_Asymmetry_Pilot,2022.1.3,Win32,59.95203837,62c50e9c1127f2cd403a315f,,,,,,
0,84,84,64,1,,5eb331bc1f70081249e6fb7a,62c539b4a9a7a237c3f6d3fa,2022-07-06_08h29.23.516,Colour_Asymmetry_Pilot,2022.1.3,Win32,59.95203837,62c50e9c1127f2cd403a315f,,,,,,
0,85,85,7,1,,5eb331bc1f70081249e6fb7a,62c539b4a9a7a237c3f6d3fa,2022-07-06_08h29.23.516,Colour_Asymmetry_Pilot,2022.1.3,Win32,59.95203837,62c50e9c1127f2cd403a315f,,,,,,
0,86,86,80,1,,5eb331bc1f70081249e6fb7a,62c539b4a9a7a237c3f6d3fa,2022-07-06_08h29.23.516,Colour_Asymmetry_Pilot,2022.1.3,Win32,59.95203837,62c50e9c1127f2cd403a315f,,,,,,
0,87,87,28,1,,5eb331bc1f70081249e6fb7a,62c539b4a9a7a237c3f6d3fa,2022-07-06_08h29.23.516,Colour_Asymmetry_Pilot,2022.1.3,Win32,59.95203837,62c50e9c1127f2cd403a315f,,,,,,
0,88,88,30,1,,5eb331bc1f70081249e6fb7a,62c539b4a9a7a237c3f6d3fa,2022-07-06_08h29.23.516,Colour_Asymmetry_Pilot,2022.1.3,Win32,59.95203837,62c50e9c1127f2cd403a315f,,,,,,
0,89,89,34,1,,5eb331bc1f70081249e6fb7a,62c539b4a9a7a237c3f6d3fa,2022-07-06_08h29.23.516,Colour_Asymmetry_Pilot,2022.1.3,Win32,59.95203837,62c50e9c1127f2cd403a315f,,,,,,
0,90,90,48,1,,5eb331bc1f70081249e6fb7a,62c539b4a9a7a237c3f6d3fa,2022-07-06_08h29.23.516,Colour_Asymmetry_Pilot,2022.1.3,Win32,59.95203837,62c50e9c1127f2cd403a315f,,,,,,
0,91,91,10,1,,5eb331bc1f70081249e6fb7a,62c539b4a9a7a237c3f6d3fa,2022-07-06_08h29.23.516,Colour_Asymmetry_Pilot,2022.1.3,Win32,59.95203837,62c50e9c1127f2cd403a315f,,,,,,
0,92,92,69,1,,5eb331bc1f70081249e6fb7a,62c539b4a9a7a237c3f6d3fa,2022-07-06_08h29.23.516,Colour_Asymmetry_Pilot,2022.1.3,Win32,59.95203837,62c50e9c1127f2cd403a315f,,,,,,
,,,,,,5eb331bc1f70081249e6fb7a,62c539b4a9a7a237c3f6d3fa,2022-07-06_08h29.23.516,Colour_Asymmetry_Pilot,2022.1.3,Win32,59.95203837,62c50e9c1127f2cd403a315f,0,0,0,141,1,threefour
,,,,,,5eb331bc1f70081249e6fb7a,62c539b4a9a7a237c3f6d3fa,2022-07-06_08h29.23.516,Colour_Asymmetry_Pilot,2022.1.3,Win32,59.95203837,62c50e9c1127f2cd403a315f,0,1,1,107,1,twofour
,,,,,,5eb331bc1f70081249e6fb7a,62c539b4a9a7a237c3f6d3fa,2022-07-06_08h29.23.516,Colour_Asymmetry_Pilot,2022.1.3,Win32,59.95203837,62c50e9c1127f2cd403a315f,0,2,2,60,1,threeone
,,,,,,5eb331bc1f70081249e6fb7a,62c539b4a9a7a237c3f6d3fa,2022-07-06_08h29.23.516,Colour_Asymmetry_Pilot,2022.1.3,Win32,59.95203837,62c50e9c1127f2cd403a315f,0,3,3,18,1,twoone
,,,,,,5eb331bc1f70081249e6fb7a,62c539b4a9a7a237c3f6d3fa,2022-07-06_08h29.23.516,Colour_Asymmetry_Pilot,2022.1.3,Win32,59.95203837,62c50e9c1127f2cd403a315f,0,4,4,49,1,onethree
,,,,,,5eb331bc1f70081249e6fb7a,62c539b4a9a7a237c3f6d3fa,2022-07-06_08h29.23.516,Colour_Asymmetry_Pilot,2022.1.3,Win32,59.95203837,62c50e9c1127f2cd403a315f,0,5,5,94,1,fourtwo
,,,,,,5eb331bc1f70081249e6fb7a,62c539b4a9a7a237c3f6d3fa,2022-07-06_08h29.23.516,Colour_Asymmetry_Pilot,2022.1.3,Win32,59.95203837,62c50e9c1127f2cd403a315f,0,6,6,20,1,threeone
,,,,,,5eb331bc1f70081249e6fb7a,62c539b4a9a7a237c3f6d3fa,2022-07-06_08h29.23.516,Colour_Asymmetry_Pilot,2022.1.3,Win32,59.95203837,62c50e9c1127f2cd403a315f,0,7,7,140,1,threeone
,,,,,,5eb331bc1f70081249e6fb7a,62c539b4a9a7a237c3f6d3fa,2022-07-06_08h29.23.516,Colour_Asymmetry_Pilot,2022.1.3,Win32,59.95203837,62c50e9c1127f2cd403a315f,0,8,8,147,1,twofour
,,,,,,5eb331bc1f70081249e6fb7a,62c539b4a9a7a237c3f6d3fa,2022-07-06_08h29.23.516,Colour_Asymmetry_Pilot,2022.1.3,Win32,59.95203837,62c50e9c1127f2cd403a315f,0,9,9,82,1,twoone
,,,,,,5eb331bc1f70081249e6fb7a,62c539b4a9a7a237c3f6d3fa,2022-07-06_08h29.23.516,Colour_Asymmetry_Pilot,2022.1.3,Win32,59.95203837,62c50e9c1127f2cd403a315f,0,10,10,1,1,onethree
,,,,,,5eb331bc1f70081249e6fb7a,62c539b4a9a7a237c3f6d3fa,2022-07-06_08h29.23.516,Colour_Asymmetry_Pilot,2022.1.3,Win32,59.95203837,62c50e9c1127f2cd403a315f,0,11,11,28,1,threeone
,,,,,,5eb331bc1f70081249e6fb7a,62c539b4a9a7a237c3f6d3fa,2022-07-06_08h29.23.516,Colour_Asymmetry_Pilot,2022.1.3,Win32,59.95203837,62c50e9c1127f2cd403a315f,0,12,12,61,1,threefour
,,,,,,5eb331bc1f70081249e6fb7a,62c539b4a9a7a237c3f6d3fa,2022-07-06_08h29.23.516,Colour_Asymmetry_Pilot,2022.1.3,Win32,59.95203837,62c50e9c1127f2cd403a315f,0,13,13,131,1,twofour
,,,,,,5eb331bc1f70081249e6fb7a,62c539b4a9a7a237c3f6d3fa,2022-07-06_08h29.23.516,Colour_Asymmetry_Pilot,2022.1.3,Win32,59.95203837,62c50e9c1127f2cd403a315f,0,14,14,151,1,fourthree
,,,,,,5eb331bc1f70081249e6fb7a,62c539b4a9a7a237c3f6d3fa,2022-07-06_08h29.23.516,Colour_Asymmetry_Pilot,2022.1.3,Win32,59.95203837,62c50e9c1127f2cd403a315f,0,15,15,13,1,threefour
,,,,,,5eb331bc1f70081249e6fb7a,62c539b4a9a7a237c3f6d3fa,2022-07-06_08h29.23.516,Colour_Asymmetry_Pilot,2022.1.3,Win32,59.95203837,62c50e9c1127f2cd403a315f,0,16,16,44,1,threeone
,,,,,,5eb331bc1f70081249e6fb7a,62c539b4a9a7a237c3f6d3fa,2022-07-06_08h29.23.516,Colour_Asymmetry_Pilot,2022.1.3,Win32,59.95203837,62c50e9c1127f2cd403a315f,0,17,17,116,1,threeone
,,,,,,5eb331bc1f70081249e6fb7a,62c539b4a9a7a237c3f6d3fa,2022-07-06_08h29.23.516,Colour_Asymmetry_Pilot,2022.1.3,Win32,59.95203837,62c50e9c1127f2cd403a315f,0,18,18,74,1,twoone
,,,,,,5eb331bc1f70081249e6fb7a,62c539b4a9a7a237c3f6d3fa,2022-07-06_08h29.23.516,Colour_Asymmetry_Pilot,2022.1.3,Win32,59.95203837,62c50e9c1127f2cd403a315f,0,19,19,124,1,threeone
,,,,,,5eb331bc1f70081249e6fb7a,62c539b4a9a7a237c3f6d3fa,2022-07-06_08h29.23.516,Colour_Asymmetry_Pilot,2022.1.3,Win32,59.95203837,62c50e9c1127f2cd403a315f,0,20,20,26,1,twoone
,,,,,,5eb331bc1f70081249e6fb7a,62c539b4a9a7a237c3f6d3fa,2022-07-06_08h29.23.516,Colour_Asymmetry_Pilot,2022.1.3,Win32,59.95203837,62c50e9c1127f2cd403a315f,0,21,21,21,1,threefour
,,,,,,5eb331bc1f70081249e6fb7a,62c539b4a9a7a237c3f6d3fa,2022-07-06_08h29.23.516,Colour_Asymmetry_Pilot,2022.1.3,Win32,59.95203837,62c50e9c1127f2cd403a315f,0,22,22,122,1,twoone
,,,,,,5eb331bc1f70081249e6fb7a,62c539b4a9a7a237c3f6d3fa,2022-07-06_08h29.23.516,Colour_Asymmetry_Pilot,2022.1.3,Win32,59.95203837,62c50e9c1127f2cd403a315f,0,23,23,99,1,twofour
,,,,,,5eb331bc1f70081249e6fb7a,62c539b4a9a7a237c3f6d3fa,2022-07-06_08h29.23.516,Colour_Asymmetry_Pilot,2022.1.3,Win32,59.95203837,62c50e9c1127f2cd403a315f,0,24,24,41,1,onethree
,,,,,,5eb331bc1f70081249e6fb7a,62c539b4a9a7a237c3f6d3fa,2022-07-06_08h29.23.516,Colour_Asymmetry_Pilot,2022.1.3,Win32,59.95203837,62c50e9c1127f2cd403a315f,0,25,25,25,1,onethree
,,,,,,5eb331bc1f70081249e6fb7a,62c539b4a9a7a237c3f6d3fa,2022-07-06_08h29.23.516,Colour_Asymmetry_Pilot,2022.1.3,Win32,59.95203837,62c50e9c1127f2cd403a315f,0,26,26,126,1,fourtwo
,,,,,,5eb331bc1f70081249e6fb7a,62c539b4a9a7a237c3f6d3fa,2022-07-06_08h29.23.516,Colour_Asymmetry_Pilot,2022.1.3,Win32,59.95203837,62c50e9c1127f2cd403a315f,0,27,27,24,1,onetwo
,,,,,,5eb331bc1f70081249e6fb7a,62c539b4a9a7a237c3f6d3fa,2022-07-06_08h29.23.516,Colour_Asymmetry_Pilot,2022.1.3,Win32,59.95203837,62c50e9c1127f2cd403a315f,0,28,28,8,1,onetwo
,,,,,,5eb331bc1f70081249e6fb7a,62c539b4a9a7a237c3f6d3fa,2022-07-06_08h29.23.516,Colour_Asymmetry_Pilot,2022.1.3,Win32,59.95203837,62c50e9c1127f2cd403a315f,0,29,29,11,1,twofour
,,,,,,5eb331bc1f70081249e6fb7a,62c539b4a9a7a237c3f6d3fa,2022-07-06_08h29.23.516,Colour_Asymmetry_Pilot,2022.1.3,Win32,59.95203837,62c50e9c1127f2cd403a315f,0,30,30,150,1,fourtwo
,,,,,,5eb331bc1f70081249e6fb7a,62c539b4a9a7a237c3f6d3fa,2022-07-06_08h29.23.516,Colour_Asymmetry_Pilot,2022.1.3,Win32,59.95203837,62c50e9c1127f2cd403a315f,0,31,31,146,1,twoone
,,,,,,5eb331bc1f70081249e6fb7a,62c539b4a9a7a237c3f6d3fa,2022-07-06_08h29.23.516,Colour_Asymmetry_Pilot,2022.1.3,Win32,59.95203837,62c50e9c1127f2cd403a315f,0,32,32,110,1,fourtwo
,,,,,,5eb331bc1f70081249e6fb7a,62c539b4a9a7a237c3f6d3fa,2022-07-06_08h29.23.516,Colour_Asymmetry_Pilot,2022.1.3,Win32,59.95203837,62c50e9c1127f2cd403a315f,0,33,33,154,1,twoone
,,,,,,5eb331bc1f70081249e6fb7a,62c539b4a9a7a237c3f6d3fa,2022-07-06_08h29.23.516,Colour_Asymmetry_Pilot,2022.1.3,Win32,59.95203837,62c50e9c1127f2cd403a315f,0,34,34,134,1,fourtwo
,,,,,,5eb331bc1f70081249e6fb7a,62c539b4a9a7a237c3f6d3fa,2022-07-06_08h29.23.516,Colour_Asymmetry_Pilot,2022.1.3,Win32,59.95203837,62c50e9c1127f2cd403a315f,0,35,35,45,1,threefour
,,,,,,5eb331bc1f70081249e6fb7a,62c539b4a9a7a237c3f6d3fa,2022-07-06_08h29.23.516,Colour_Asymmetry_Pilot,2022.1.3,Win32,59.95203837,62c50e9c1127f2cd403a315f,0,36,36,137,1,onethree
,,,,,,5eb331bc1f70081249e6fb7a,62c539b4a9a7a237c3f6d3fa,2022-07-06_08h29.23.516,Colour_Asymmetry_Pilot,2022.1.3,Win32,59.95203837,62c50e9c1127f2cd403a315f,0,37,37,75,1,twofour
,,,,,,5eb331bc1f70081249e6fb7a,62c539b4a9a7a237c3f6d3fa,2022-07-06_08h29.23.516,Colour_Asymmetry_Pilot,2022.1.3,Win32,59.95203837,62c50e9c1127f2cd403a315f,0,38,38,128,1,onetwo
,,,,,,5eb331bc1f70081249e6fb7a,62c539b4a9a7a237c3f6d3fa,2022-07-06_08h29.23.516,Colour_Asymmetry_Pilot,2022.1.3,Win32,59.95203837,62c50e9c1127f2cd403a315f,0,39,39,136,1,onetwo
,,,,,,5eb331bc1f70081249e6fb7a,62c539b4a9a7a237c3f6d3fa,2022-07-06_08h29.23.516,Colour_Asymmetry_Pilot,2022.1.3,Win32,59.95203837,62c50e9c1127f2cd403a315f,0,40,40,70,1,fourtwo
,,,,,,5eb331bc1f70081249e6fb7a,62c539b4a9a7a237c3f6d3fa,2022-07-06_08h29.23.516,Colour_Asymmetry_Pilot,2022.1.3,Win32,59.95203837,62c50e9c1127f2cd403a315f,0,41,41,96,1,onetwo
,,,,,,5eb331bc1f70081249e6fb7a,62c539b4a9a7a237c3f6d3fa,2022-07-06_08h29.23.516,Colour_Asymmetry_Pilot,2022.1.3,Win32,59.95203837,62c50e9c1127f2cd403a315f,0,42,42,86,1,fourtwo
,,,,,,5eb331bc1f70081249e6fb7a,62c539b4a9a7a237c3f6d3fa,2022-07-06_08h29.23.516,Colour_Asymmetry_Pilot,2022.1.3,Win32,59.95203837,62c50e9c1127f2cd403a315f,0,43,43,89,1,onethree
,,,,,,5eb331bc1f70081249e6fb7a,62c539b4a9a7a237c3f6d3fa,2022-07-06_08h29.23.516,Colour_Asymmetry_Pilot,2022.1.3,Win32,59.95203837,62c50e9c1127f2cd403a315f,0,44,44,53,1,threefour
,,,,,,5eb331bc1f70081249e6fb7a,62c539b4a9a7a237c3f6d3fa,2022-07-06_08h29.23.516,Colour_Asymmetry_Pilot,2022.1.3,Win32,59.95203837,62c50e9c1127f2cd403a315f,0,45,45,63,1,fourthree
,,,,,,5eb331bc1f70081249e6fb7a,62c539b4a9a7a237c3f6d3fa,2022-07-06_08h29.23.516,Colour_Asymmetry_Pilot,2022.1.3,Win32,59.95203837,62c50e9c1127f2cd403a315f,0,46,46,93,1,threefour
,,,,,,5eb331bc1f70081249e6fb7a,62c539b4a9a7a237c3f6d3fa,2022-07-06_08h29.23.516,Colour_Asymmetry_Pilot,2022.1.3,Win32,59.95203837,62c50e9c1127f2cd403a315f,0,47,47,155,1,twofour
,,,,,,5eb331bc1f70081249e6fb7a,62c539b4a9a7a237c3f6d3fa,2022-07-06_08h29.23.516,Colour_Asymmetry_Pilot,2022.1.3,Win32,59.95203837,62c50e9c1127f2cd403a315f,0,48,48,139,1,twofour
,,,,,,5eb331bc1f70081249e6fb7a,62c539b4a9a7a237c3f6d3fa,2022-07-06_08h29.23.516,Colour_Asymmetry_Pilot,2022.1.3,Win32,59.95203837,62c50e9c1127f2cd403a315f,0,49,49,47,1,fourthree
,,,,,,5eb331bc1f70081249e6fb7a,62c539b4a9a7a237c3f6d3fa,2022-07-06_08h29.23.516,Colour_Asymmetry_Pilot,2022.1.3,Win32,59.95203837,62c50e9c1127f2cd403a315f,0,50,50,92,1,threeone
,,,,,,5eb331bc1f70081249e6fb7a,62c539b4a9a7a237c3f6d3fa,2022-07-06_08h29.23.516,Colour_Asymmetry_Pilot,2022.1.3,Win32,59.95203837,62c50e9c1127f2cd403a315f,0,51,51,6,1,fourtwo
,,,,,,5eb331bc1f70081249e6fb7a,62c539b4a9a7a237c3f6d3fa,2022-07-06_08h29.23.516,Colour_Asymmetry_Pilot,2022.1.3,Win32,59.95203837,62c50e9c1127f2cd403a315f,0,52,52,51,1,twofour
,,,,,,5eb331bc1f70081249e6fb7a,62c539b4a9a7a237c3f6d3fa,2022-07-06_08h29.23.516,Colour_Asymmetry_Pilot,2022.1.3,Win32,59.95203837,62c50e9c1127f2cd403a315f,0,53,53,105,1,onethree
,,,,,,5eb331bc1f70081249e6fb7a,62c539b4a9a7a237c3f6d3fa,2022-07-06_08h29.23.516,Colour_Asymmetry_Pilot,2022.1.3,Win32,59.95203837,62c50e9c1127f2cd403a315f,0,54,54,55,1,fourthree
,,,,,,5eb331bc1f70081249e6fb7a,62c539b4a9a7a237c3f6d3fa,2022-07-06_08h29.23.516,Colour_Asymmetry_Pilot,2022.1.3,Win32,59.95203837,62c50e9c1127f2cd403a315f,0,55,55,138,1,twoone
,,,,,,5eb331bc1f70081249e6fb7a,62c539b4a9a7a237c3f6d3fa,2022-07-06_08h29.23.516,Colour_Asymmetry_Pilot,2022.1.3,Win32,59.95203837,62c50e9c1127f2cd403a315f,0,56,56,33,1,onethree
,,,,,,5eb331bc1f70081249e6fb7a,62c539b4a9a7a237c3f6d3fa,2022-07-06_08h29.23.516,Colour_Asymmetry_Pilot,2022.1.3,Win32,59.95203837,62c50e9c1127f2cd403a315f,0,57,57,108,1,threeone
,,,,,,5eb331bc1f70081249e6fb7a,62c539b4a9a7a237c3f6d3fa,2022-07-06_08h29.23.516,Colour_Asymmetry_Pilot,2022.1.3,Win32,59.95203837,62c50e9c1127f2cd403a315f,0,58,58,95,1,fourthree
,,,,,,5eb331bc1f70081249e6fb7a,62c539b4a9a7a237c3f6d3fa,2022-07-06_08h29.23.516,Colour_Asymmetry_Pilot,2022.1.3,Win32,59.95203837,62c50e9c1127f2cd403a315f,0,59,59,34,1,twoone
,,,,,,5eb331bc1f70081249e6fb7a,62c539b4a9a7a237c3f6d3fa,2022-07-06_08h29.23.516,Colour_Asymmetry_Pilot,2022.1.3,Win32,59.95203837,62c50e9c1127f2cd403a315f,0,60,60,10,1,twoone
,,,,,,5eb331bc1f70081249e6fb7a,62c539b4a9a7a237c3f6d3fa,2022-07-06_08h29.23.516,Colour_Asymmetry_Pilot,2022.1.3,Win32,59.95203837,62c50e9c1127f2cd403a315f,0,61,61,37,1,threefour
,,,,,,5eb331bc1f70081249e6fb7a,62c539b4a9a7a237c3f6d3fa,2022-07-06_08h29.23.516,Colour_Asymmetry_Pilot,2022.1.3,Win32,59.95203837,62c50e9c1127f2cd403a315f,0,62,62,17,1,onethree
,,,,,,5eb331bc1f70081249e6fb7a,62c539b4a9a7a237c3f6d3fa,2022-07-06_08h29.23.516,Colour_Asymmetry_Pilot,2022.1.3,Win32,59.95203837,62c50e9c1127f2cd403a315f,0,63,63,152,1,onetwo
,,,,,,5eb331bc1f70081249e6fb7a,62c539b4a9a7a237c3f6d3fa,2022-07-06_08h29.23.516,Colour_Asymmetry_Pilot,2022.1.3,Win32,59.95203837,62c50e9c1127f2cd403a315f,0,64,64,113,1,onethree
,,,,,,5eb331bc1f70081249e6fb7a,62c539b4a9a7a237c3f6d3fa,2022-07-06_08h29.23.516,Colour_Asymmetry_Pilot,2022.1.3,Win32,59.95203837,62c50e9c1127f2cd403a315f,0,65,65,4,1,threeone
,,,,,,5eb331bc1f70081249e6fb7a,62c539b4a9a7a237c3f6d3fa,2022-07-06_08h29.23.516,Colour_Asymmetry_Pilot,2022.1.3,Win32,59.95203837,62c50e9c1127f2cd403a315f,0,66,66,58,1,twoone
,,,,,,5eb331bc1f70081249e6fb7a,62c539b4a9a7a237c3f6d3fa,2022-07-06_08h29.23.516,Colour_Asymmetry_Pilot,2022.1.3,Win32,59.95203837,62c50e9c1127f2cd403a315f,0,67,67,90,1,twoone
,,,,,,5eb331bc1f70081249e6fb7a,62c539b4a9a7a237c3f6d3fa,2022-07-06_08h29.23.516,Colour_Asymmetry_Pilot,2022.1.3,Win32,59.95203837,62c50e9c1127f2cd403a315f,0,68,68,39,1,fourthree
,,,,,,5eb331bc1f70081249e6fb7a,62c539b4a9a7a237c3f6d3fa,2022-07-06_08h29.23.516,Colour_Asymmetry_Pilot,2022.1.3,Win32,59.95203837,62c50e9c1127f2cd403a315f,0,69,69,48,1,onetwo
,,,,,,5eb331bc1f70081249e6fb7a,62c539b4a9a7a237c3f6d3fa,2022-07-06_08h29.23.516,Colour_Asymmetry_Pilot,2022.1.3,Win32,59.95203837,62c50e9c1127f2cd403a315f,0,70,70,31,1,fourthree
,,,,,,5eb331bc1f70081249e6fb7a,62c539b4a9a7a237c3f6d3fa,2022-07-06_08h29.23.516,Colour_Asymmetry_Pilot,2022.1.3,Win32,59.95203837,62c50e9c1127f2cd403a315f,0,71,71,85,1,threefour
,,,,,,5eb331bc1f70081249e6fb7a,62c539b4a9a7a237c3f6d3fa,2022-07-06_08h29.23.516,Colour_Asymmetry_Pilot,2022.1.3,Win32,59.95203837,62c50e9c1127f2cd403a315f,0,72,72,29,1,threefour
,,,,,,5eb331bc1f70081249e6fb7a,62c539b4a9a7a237c3f6d3fa,2022-07-06_08h29.23.516,Colour_Asymmetry_Pilot,2022.1.3,Win32,59.95203837,62c50e9c1127f2cd403a315f,0,73,73,23,1,fourthree
,,,,,,5eb331bc1f70081249e6fb7a,62c539b4a9a7a237c3f6d3fa,2022-07-06_08h29.23.516,Colour_Asymmetry_Pilot,2022.1.3,Win32,59.95203837,62c50e9c1127f2cd403a315f,0,74,74,97,1,onethree
,,,,,,5eb331bc1f70081249e6fb7a,62c539b4a9a7a237c3f6d3fa,2022-07-06_08h29.23.516,Colour_Asymmetry_Pilot,2022.1.3,Win32,59.95203837,62c50e9c1127f2cd403a315f,0,75,75,32,1,onetwo
,,,,,,5eb331bc1f70081249e6fb7a,62c539b4a9a7a237c3f6d3fa,2022-07-06_08h29.23.516,Colour_Asymmetry_Pilot,2022.1.3,Win32,59.95203837,62c50e9c1127f2cd403a315f,0,76,76,16,1,onetwo
,,,,,,5eb331bc1f70081249e6fb7a,62c539b4a9a7a237c3f6d3fa,2022-07-06_08h29.23.516,Colour_Asymmetry_Pilot,2022.1.3,Win32,59.95203837,62c50e9c1127f2cd403a315f,0,77,77,160,1,onetwo
,,,,,,5eb331bc1f70081249e6fb7a,62c539b4a9a7a237c3f6d3fa,2022-07-06_08h29.23.516,Colour_Asymmetry_Pilot,2022.1.3,Win32,59.95203837,62c50e9c1127f2cd403a315f,0,78,78,123,1,twofour
,,,,,,5eb331bc1f70081249e6fb7a,62c539b4a9a7a237c3f6d3fa,2022-07-06_08h29.23.516,Colour_Asymmetry_Pilot,2022.1.3,Win32,59.95203837,62c50e9c1127f2cd403a315f,0,79,79,71,1,fourthree
,,,,,,5eb331bc1f70081249e6fb7a,62c539b4a9a7a237c3f6d3fa,2022-07-06_08h29.23.516,Colour_Asymmetry_Pilot,2022.1.3,Win32,59.95203837,62c50e9c1127f2cd403a315f,0,80,80,69,1,threefour
,,,,,,5eb331bc1f70081249e6fb7a,62c539b4a9a7a237c3f6d3fa,2022-07-06_08h29.23.516,Colour_Asymmetry_Pilot,2022.1.3,Win32,59.95203837,62c50e9c1127f2cd403a315f,0,81,81,84,1,threeone
,,,,,,5eb331bc1f70081249e6fb7a,62c539b4a9a7a237c3f6d3fa,2022-07-06_08h29.23.516,Colour_Asymmetry_Pilot,2022.1.3,Win32,59.95203837,62c50e9c1127f2cd403a315f,0,82,82,3,1,twofour
,,,,,,5eb331bc1f70081249e6fb7a,62c539b4a9a7a237c3f6d3fa,2022-07-06_08h29.23.516,Colour_Asymmetry_Pilot,2022.1.3,Win32,59.95203837,62c50e9c1127f2cd403a315f,0,83,83,87,1,fourthree
,,,,,,5eb331bc1f70081249e6fb7a,62c539b4a9a7a237c3f6d3fa,2022-07-06_08h29.23.516,Colour_Asymmetry_Pilot,2022.1.3,Win32,59.95203837,62c50e9c1127f2cd403a315f,0,84,84,7,1,fourthree
,,,,,,5eb331bc1f70081249e6fb7a,62c539b4a9a7a237c3f6d3fa,2022-07-06_08h29.23.516,Colour_Asymmetry_Pilot,2022.1.3,Win32,59.95203837,62c50e9c1127f2cd403a315f,0,85,85,104,1,onetwo
,,,,,,5eb331bc1f70081249e6fb7a,62c539b4a9a7a237c3f6d3fa,2022-07-06_08h29.23.516,Colour_Asymmetry_Pilot,2022.1.3,Win32,59.95203837,62c50e9c1127f2cd403a315f,0,86,86,158,1,fourtwo
,,,,,,5eb331bc1f70081249e6fb7a,62c539b4a9a7a237c3f6d3fa,2022-07-06_08h29.23.516,Colour_Asymmetry_Pilot,2022.1.3,Win32,59.95203837,62c50e9c1127f2cd403a315f,0,87,87,43,1,twofour
,,,,,,5eb331bc1f70081249e6fb7a,62c539b4a9a7a237c3f6d3fa,2022-07-06_08h29.23.516,Colour_Asymmetry_Pilot,2022.1.3,Win32,59.95203837,62c50e9c1127f2cd403a315f,0,88,88,46,1,fourtwo
,,,,,,5eb331bc1f70081249e6fb7a,62c539b4a9a7a237c3f6d3fa,2022-07-06_08h29.23.516,Colour_Asymmetry_Pilot,2022.1.3,Win32,59.95203837,62c50e9c1127f2cd403a315f,0,89,89,157,1,threefour
,,,,,,5eb331bc1f70081249e6fb7a,62c539b4a9a7a237c3f6d3fa,2022-07-06_08h29.23.516,Colour_Asymmetry_Pilot,2022.1.3,Win32,59.95203837,62c50e9c1127f2cd403a315f,0,90,90,125,1,threefour
,,,,,,5eb331bc1f70081249e6fb7a,62c539b4a9a7a237c3f6d3fa,2022-07-06_08h29.23.516,Colour_Asymmetry_Pilot,2022.1.3,Win32,59.95203837,62c50e9c1127f2cd403a315f,0,91,91,52,1,threeone
,,,,,,5eb331bc1f70081249e6fb7a,62c539b4a9a7a237c3f6d3fa,2022-07-06_08h29.23.516,Colour_Asymmetry_Pilot,2022.1.3,Win32,59.95203837,62c50e9c1127f2cd403a315f,0,92,92,59,1,twofour
,,,,,,5eb331bc1f70081249e6fb7a,62c539b4a9a7a237c3f6d3fa,2022-07-06_08h29.23.516,Colour_Asymmetry_Pilot,2022.1.3,Win32,59.95203837,62c50e9c1127f2cd403a315f,0,93,93,133,1,threefour
,,,,,,5eb331bc1f70081249e6fb7a,62c539b4a9a7a237c3f6d3fa,2022-07-06_08h29.23.516,Colour_Asymmetry_Pilot,2022.1.3,Win32,59.95203837,62c50e9c1127f2cd403a315f,0,94,94,12,1,threeone
,,,,,,5eb331bc1f70081249e6fb7a,62c539b4a9a7a237c3f6d3fa,2022-07-06_08h29.23.516,Colour_Asymmetry_Pilot,2022.1.3,Win32,59.95203837,62c50e9c1127f2cd403a315f,0,95,95,156,1,threeone
,,,,,,5eb331bc1f70081249e6fb7a,62c539b4a9a7a237c3f6d3fa,2022-07-06_08h29.23.516,Colour_Asymmetry_Pilot,2022.1.3,Win32,59.95203837,62c50e9c1127f2cd403a315f,0,96,96,145,1,onethree
,,,,,,5eb331bc1f70081249e6fb7a,62c539b4a9a7a237c3f6d3fa,2022-07-06_08h29.23.516,Colour_Asymmetry_Pilot,2022.1.3,Win32,59.95203837,62c50e9c1127f2cd403a315f,0,97,97,115,1,twofour
,,,,,,5eb331bc1f70081249e6fb7a,62c539b4a9a7a237c3f6d3fa,2022-07-06_08h29.23.516,Colour_Asymmetry_Pilot,2022.1.3,Win32,59.95203837,62c50e9c1127f2cd403a315f,0,98,98,112,1,onetwo
,,,,,,5eb331bc1f70081249e6fb7a,62c539b4a9a7a237c3f6d3fa,2022-07-06_08h29.23.516,Colour_Asymmetry_Pilot,2022.1.3,Win32,59.95203837,62c50e9c1127f2cd403a315f,0,99,99,50,1,twoone
,,,,,,5eb331bc1f70081249e6fb7a,62c539b4a9a7a237c3f6d3fa,2022-07-06_08h29.23.516,Colour_Asymmetry_Pilot,2022.1.3,Win32,59.95203837,62c50e9c1127f2cd403a315f,0,100,100,111,1,fourthree
,,,,,,5eb331bc1f70081249e6fb7a,62c539b4a9a7a237c3f6d3fa,2022-07-06_08h29.23.516,Colour_Asymmetry_Pilot,2022.1.3,Win32,59.95203837,62c50e9c1127f2cd403a315f,0,101,101,100,1,threeone
,,,,,,5eb331bc1f70081249e6fb7a,62c539b4a9a7a237c3f6d3fa,2022-07-06_08h29.23.516,Colour_Asymmetry_Pilot,2022.1.3,Win32,59.95203837,62c50e9c1127f2cd403a315f,0,102,102,42,1,twoone
,,,,,,5eb331bc1f70081249e6fb7a,62c539b4a9a7a237c3f6d3fa,2022-07-06_08h29.23.516,Colour_Asymmetry_Pilot,2022.1.3,Win32,59.95203837,62c50e9c1127f2cd403a315f,0,103,103,109,1,threefour
,,,,,,5eb331bc1f70081249e6fb7a,62c539b4a9a7a237c3f6d3fa,2022-07-06_08h29.23.516,Colour_Asymmetry_Pilot,2022.1.3,Win32,59.95203837,62c50e9c1127f2cd403a315f,0,104,104,142,1,fourtwo
,,,,,,5eb331bc1f70081249e6fb7a,62c539b4a9a7a237c3f6d3fa,2022-07-06_08h29.23.516,Colour_Asymmetry_Pilot,2022.1.3,Win32,59.95203837,62c50e9c1127f2cd403a315f,0,105,105,72,1,onetwo
,,,,,,5eb331bc1f70081249e6fb7a,62c539b4a9a7a237c3f6d3fa,2022-07-06_08h29.23.516,Colour_Asymmetry_Pilot,2022.1.3,Win32,59.95203837,62c50e9c1127f2cd403a315f,0,106,106,14,1,fourtwo
,,,,,,5eb331bc1f70081249e6fb7a,62c539b4a9a7a237c3f6d3fa,2022-07-06_08h29.23.516,Colour_Asymmetry_Pilot,2022.1.3,Win32,59.95203837,62c50e9c1127f2cd403a315f,0,107,107,27,1,twofour
,,,,,,5eb331bc1f70081249e6fb7a,62c539b4a9a7a237c3f6d3fa,2022-07-06_08h29.23.516,Colour_Asymmetry_Pilot,2022.1.3,Win32,59.95203837,62c50e9c1127f2cd403a315f,0,108,108,127,1,fourthree
,,,,,,5eb331bc1f70081249e6fb7a,62c539b4a9a7a237c3f6d3fa,2022-07-06_08h29.23.516,Colour_Asymmetry_Pilot,2022.1.3,Win32,59.95203837,62c50e9c1127f2cd403a315f,0,109,109,76,1,threeone
,,,,,,5eb331bc1f70081249e6fb7a,62c539b4a9a7a237c3f6d3fa,2022-07-06_08h29.23.516,Colour_Asymmetry_Pilot,2022.1.3,Win32,59.95203837,62c50e9c1127f2cd403a315f,0,110,110,81,1,onethree
,,,,,,5eb331bc1f70081249e6fb7a,62c539b4a9a7a237c3f6d3fa,2022-07-06_08h29.23.516,Colour_Asymmetry_Pilot,2022.1.3,Win32,59.95203837,62c50e9c1127f2cd403a315f,0,111,111,149,1,threefour
,,,,,,5eb331bc1f70081249e6fb7a,62c539b4a9a7a237c3f6d3fa,2022-07-06_08h29.23.516,Colour_Asymmetry_Pilot,2022.1.3,Win32,59.95203837,62c50e9c1127f2cd403a315f,0,112,112,19,1,twofour
,,,,,,5eb331bc1f70081249e6fb7a,62c539b4a9a7a237c3f6d3fa,2022-07-06_08h29.23.516,Colour_Asymmetry_Pilot,2022.1.3,Win32,59.95203837,62c50e9c1127f2cd403a315f,0,113,113,30,1,fourtwo
,,,,,,5eb331bc1f70081249e6fb7a,62c539b4a9a7a237c3f6d3fa,2022-07-06_08h29.23.516,Colour_Asymmetry_Pilot,2022.1.3,Win32,59.95203837,62c50e9c1127f2cd403a315f,0,114,114,144,1,onetwo
,,,,,,5eb331bc1f70081249e6fb7a,62c539b4a9a7a237c3f6d3fa,2022-07-06_08h29.23.516,Colour_Asymmetry_Pilot,2022.1.3,Win32,59.95203837,62c50e9c1127f2cd403a315f,0,115,115,132,1,threeone
,,,,,,5eb331bc1f70081249e6fb7a,62c539b4a9a7a237c3f6d3fa,2022-07-06_08h29.23.516,Colour_Asymmetry_Pilot,2022.1.3,Win32,59.95203837,62c50e9c1127f2cd403a315f,0,116,116,9,1,onethree
,,,,,,5eb331bc1f70081249e6fb7a,62c539b4a9a7a237c3f6d3fa,2022-07-06_08h29.23.516,Colour_Asymmetry_Pilot,2022.1.3,Win32,59.95203837,62c50e9c1127f2cd403a315f,0,117,117,91,1,twofour
,,,,,,5eb331bc1f70081249e6fb7a,62c539b4a9a7a237c3f6d3fa,2022-07-06_08h29.23.516,Colour_Asymmetry_Pilot,2022.1.3,Win32,59.95203837,62c50e9c1127f2cd403a315f,0,118,118,38,1,fourtwo
,,,,,,5eb331bc1f70081249e6fb7a,62c539b4a9a7a237c3f6d3fa,2022-07-06_08h29.23.516,Colour_Asymmetry_Pilot,2022.1.3,Win32,59.95203837,62c50e9c1127f2cd403a315f,0,119,119,129,1,onethree
,,,,,,5eb331bc1f70081249e6fb7a,62c539b4a9a7a237c3f6d3fa,2022-07-06_08h29.23.516,Colour_Asymmetry_Pilot,2022.1.3,Win32,59.95203837,62c50e9c1127f2cd403a315f,0,120,120,88,1,onetwo
,,,,,,5eb331bc1f70081249e6fb7a,62c539b4a9a7a237c3f6d3fa,2022-07-06_08h29.23.516,Colour_Asymmetry_Pilot,2022.1.3,Win32,59.95203837,62c50e9c1127f2cd403a315f,0,121,121,114,1,twoone
,,,,,,5eb331bc1f70081249e6fb7a,62c539b4a9a7a237c3f6d3fa,2022-07-06_08h29.23.516,Colour_Asymmetry_Pilot,2022.1.3,Win32,59.95203837,62c50e9c1127f2cd403a315f,0,122,122,73,1,onethree
,,,,,,5eb331bc1f70081249e6fb7a,62c539b4a9a7a237c3f6d3fa,2022-07-06_08h29.23.516,Colour_Asymmetry_Pilot,2022.1.3,Win32,59.95203837,62c50e9c1127f2cd403a315f,0,123,123,106,1,twoone
,,,,,,5eb331bc1f70081249e6fb7a,62c539b4a9a7a237c3f6d3fa,2022-07-06_08h29.23.516,Colour_Asymmetry_Pilot,2022.1.3,Win32,59.95203837,62c50e9c1127f2cd403a315f,0,124,124,143,1,fourthree
,,,,,,5eb331bc1f70081249e6fb7a,62c539b4a9a7a237c3f6d3fa,2022-07-06_08h29.23.516,Colour_Asymmetry_Pilot,2022.1.3,Win32,59.95203837,62c50e9c1127f2cd403a315f,0,125,125,2,1,twoone
,,,,,,5eb331bc1f70081249e6fb7a,62c539b4a9a7a237c3f6d3fa,2022-07-06_08h29.23.516,Colour_Asymmetry_Pilot,2022.1.3,Win32,59.95203837,62c50e9c1127f2cd403a315f,0,126,126,64,1,onetwo
,,,,,,5eb331bc1f70081249e6fb7a,62c539b4a9a7a237c3f6d3fa,2022-07-06_08h29.23.516,Colour_Asymmetry_Pilot,2022.1.3,Win32,59.95203837,62c50e9c1127f2cd403a315f,0,127,127,135,1,fourthree
,,,,,,5eb331bc1f70081249e6fb7a,62c539b4a9a7a237c3f6d3fa,2022-07-06_08h29.23.516,Colour_Asymmetry_Pilot,2022.1.3,Win32,59.95203837,62c50e9c1127f2cd403a315f,0,128,128,54,1,fourtwo
,,,,,,5eb331bc1f70081249e6fb7a,62c539b4a9a7a237c3f6d3fa,2022-07-06_08h29.23.516,Colour_Asymmetry_Pilot,2022.1.3,Win32,59.95203837,62c50e9c1127f2cd403a315f,0,129,129,148,1,threeone
,,,,,,5eb331bc1f70081249e6fb7a,62c539b4a9a7a237c3f6d3fa,2022-07-06_08h29.23.516,Colour_Asymmetry_Pilot,2022.1.3,Win32,59.95203837,62c50e9c1127f2cd403a315f,0,130,130,68,1,threeone
,,,,,,5eb331bc1f70081249e6fb7a,62c539b4a9a7a237c3f6d3fa,2022-07-06_08h29.23.516,Colour_Asymmetry_Pilot,2022.1.3,Win32,59.95203837,62c50e9c1127f2cd403a315f,0,131,131,78,1,fourtwo
,,,,,,5eb331bc1f70081249e6fb7a,62c539b4a9a7a237c3f6d3fa,2022-07-06_08h29.23.516,Colour_Asymmetry_Pilot,2022.1.3,Win32,59.95203837,62c50e9c1127f2cd403a315f,0,132,132,65,1,onethree
,,,,,,5eb331bc1f70081249e6fb7a,62c539b4a9a7a237c3f6d3fa,2022-07-06_08h29.23.516,Colour_Asymmetry_Pilot,2022.1.3,Win32,59.95203837,62c50e9c1127f2cd403a315f,0,133,133,153,1,onethree
,,,,,,5eb331bc1f70081249e6fb7a,62c539b4a9a7a237c3f6d3fa,2022-07-06_08h29.23.516,Colour_Asymmetry_Pilot,2022.1.3,Win32,59.95203837,62c50e9c1127f2cd403a315f,0,134,134,0,1,onetwo
,,,,,,5eb331bc1f70081249e6fb7a,62c539b4a9a7a237c3f6d3fa,2022-07-06_08h29.23.516,Colour_Asymmetry_Pilot,2022.1.3,Win32,59.95203837,62c50e9c1127f2cd403a315f,0,135,135,121,1,onethree
,,,,,,5eb331bc1f70081249e6fb7a,62c539b4a9a7a237c3f6d3fa,2022-07-06_08h29.23.516,Colour_Asymmetry_Pilot,2022.1.3,Win32,59.95203837,62c50e9c1127f2cd403a315f,0,136,136,57,1,onethree
,,,,,,5eb331bc1f70081249e6fb7a,62c539b4a9a7a237c3f6d3fa,2022-07-06_08h29.23.516,Colour_Asymmetry_Pilot,2022.1.3,Win32,59.95203837,62c50e9c1127f2cd403a315f,0,137,137,102,1,fourtwo
,,,,,,5eb331bc1f70081249e6fb7a,62c539b4a9a7a237c3f6d3fa,2022-07-06_08h29.23.516,Colour_Asymmetry_Pilot,2022.1.3,Win32,59.95203837,62c50e9c1127f2cd403a315f,0,138,138,98,1,twoone
,,,,,,5eb331bc1f70081249e6fb7a,62c539b4a9a7a237c3f6d3fa,2022-07-06_08h29.23.516,Colour_Asymmetry_Pilot,2022.1.3,Win32,59.95203837,62c50e9c1127f2cd403a315f,0,139,139,119,1,fourthree
,,,,,,5eb331bc1f70081249e6fb7a,62c539b4a9a7a237c3f6d3fa,2022-07-06_08h29.23.516,Colour_Asymmetry_Pilot,2022.1.3,Win32,59.95203837,62c50e9c1127f2cd403a315f,0,140,140,15,1,fourthree
,,,,,,5eb331bc1f70081249e6fb7a,62c539b4a9a7a237c3f6d3fa,2022-07-06_08h29.23.516,Colour_Asymmetry_Pilot,2022.1.3,Win32,59.95203837,62c50e9c1127f2cd403a315f,0,141,141,79,1,fourthree
,,,,,,5eb331bc1f70081249e6fb7a,62c539b4a9a7a237c3f6d3fa,2022-07-06_08h29.23.516,Colour_Asymmetry_Pilot,2022.1.3,Win32,59.95203837,62c50e9c1127f2cd403a315f,0,142,142,120,1,onetwo
,,,,,,5eb331bc1f70081249e6fb7a,62c539b4a9a7a237c3f6d3fa,2022-07-06_08h29.23.516,Colour_Asymmetry_Pilot,2022.1.3,Win32,59.95203837,62c50e9c1127f2cd403a315f,0,143,143,80,1,onetwo
,,,,,,5eb331bc1f70081249e6fb7a,62c539b4a9a7a237c3f6d3fa,2022-07-06_08h29.23.516,Colour_Asymmetry_Pilot,2022.1.3,Win32,59.95203837,62c50e9c1127f2cd403a315f,0,144,144,161,1,onethree
,,,,,,5eb331bc1f70081249e6fb7a,62c539b4a9a7a237c3f6d3fa,2022-07-06_08h29.23.516,Colour_Asymmetry_Pilot,2022.1.3,Win32,59.95203837,62c50e9c1127f2cd403a315f,0,145,145,130,1,twoone
,,,,,,5eb331bc1f70081249e6fb7a,62c539b4a9a7a237c3f6d3fa,2022-07-06_08h29.23.516,Colour_Asymmetry_Pilot,2022.1.3,Win32,59.95203837,62c50e9c1127f2cd403a315f,0,146,146,103,1,fourthree
,,,,,,5eb331bc1f70081249e6fb7a,62c539b4a9a7a237c3f6d3fa,2022-07-06_08h29.23.516,Colour_Asymmetry_Pilot,2022.1.3,Win32,59.95203837,62c50e9c1127f2cd403a315f,0,147,147,118,1,fourtwo
,,,,,,5eb331bc1f70081249e6fb7a,62c539b4a9a7a237c3f6d3fa,2022-07-06_08h29.23.516,Colour_Asymmetry_Pilot,2022.1.3,Win32,59.95203837,62c50e9c1127f2cd403a315f,0,148,148,77,1,threefour
,,,,,,5eb331bc1f70081249e6fb7a,62c539b4a9a7a237c3f6d3fa,2022-07-06_08h29.23.516,Colour_Asymmetry_Pilot,2022.1.3,Win32,59.95203837,62c50e9c1127f2cd403a315f,0,149,149,56,1,onetwo
,,,,,,5eb331bc1f70081249e6fb7a,62c539b4a9a7a237c3f6d3fa,2022-07-06_08h29.23.516,Colour_Asymmetry_Pilot,2022.1.3,Win32,59.95203837,62c50e9c1127f2cd403a315f,0,150,150,36,1,threeone
,,,,,,5eb331bc1f70081249e6fb7a,62c539b4a9a7a237c3f6d3fa,2022-07-06_08h29.23.516,Colour_Asymmetry_Pilot,2022.1.3,Win32,59.95203837,62c50e9c1127f2cd403a315f,0,151,151,67,1,twofour
,,,,,,5eb331bc1f70081249e6fb7a,62c539b4a9a7a237c3f6d3fa,2022-07-06_08h29.23.516,Colour_Asymmetry_Pilot,2022.1.3,Win32,59.95203837,62c50e9c1127f2cd403a315f,0,152,152,22,1,fourtwo
,,,,,,5eb331bc1f70081249e6fb7a,62c539b4a9a7a237c3f6d3fa,2022-07-06_08h29.23.516,Colour_Asymmetry_Pilot,2022.1.3,Win32,59.95203837,62c50e9c1127f2cd403a315f,0,153,153,66,1,twoone
,,,,,,5eb331bc1f70081249e6fb7a,62c539b4a9a7a237c3f6d3fa,2022-07-06_08h29.23.516,Colour_Asymmetry_Pilot,2022.1.3,Win32,59.95203837,62c50e9c1127f2cd403a315f,0,154,154,40,1,onetwo
,,,,,,5eb331bc1f70081249e6fb7a,62c539b4a9a7a237c3f6d3fa,2022-07-06_08h29.23.516,Colour_Asymmetry_Pilot,2022.1.3,Win32,59.95203837,62c50e9c1127f2cd403a315f,0,155,155,159,1,fourthree
,,,,,,5eb331bc1f70081249e6fb7a,62c539b4a9a7a237c3f6d3fa,2022-07-06_08h29.23.516,Colour_Asymmetry_Pilot,2022.1.3,Win32,59.95203837,62c50e9c1127f2cd403a315f,0,156,156,62,1,fourtwo
,,,,,,5eb331bc1f70081249e6fb7a,62c539b4a9a7a237c3f6d3fa,2022-07-06_08h29.23.516,Colour_Asymmetry_Pilot,2022.1.3,Win32,59.95203837,62c50e9c1127f2cd403a315f,0,157,157,83,1,twofour
,,,,,,5eb331bc1f70081249e6fb7a,62c539b4a9a7a237c3f6d3fa,2022-07-06_08h29.23.516,Colour_Asymmetry_Pilot,2022.1.3,Win32,59.95203837,62c50e9c1127f2cd403a315f,0,158,158,101,1,threefour
,,,,,,5eb331bc1f70081249e6fb7a,62c539b4a9a7a237c3f6d3fa,2022-07-06_08h29.23.516,Colour_Asymmetry_Pilot,2022.1.3,Win32,59.95203837,62c50e9c1127f2cd403a315f,0,159,159,35,1,twofour
,,,,,,5eb331bc1f70081249e6fb7a,62c539b4a9a7a237c3f6d3fa,2022-07-06_08h29.23.516,Colour_Asymmetry_Pilot,2022.1.3,Win32,59.95203837,62c50e9c1127f2cd403a315f,0,160,160,117,1,threefour
,,,,,,5eb331bc1f70081249e6fb7a,62c539b4a9a7a237c3f6d3fa,2022-07-06_08h29.23.516,Colour_Asymmetry_Pilot,2022.1.3,Win32,59.95203837,62c50e9c1127f2cd403a315f,0,161,161,5,1,threefour
