trials.thisRepN,trials.thisTrialN,trials.thisN,trials.thisIndex,trials.ran,Colourcodes,participant,session,date,expName,psychopyVersion,OS,frameRate,study_id,trials_4.thisRepN,trials_4.thisTrialN,trials_4.thisN,trials_4.thisIndex,trials_4.ran,StimulusPos,key_resp.keys,key_resp.rt,key_resp_2.keys,key_resp_2.rt,key_resp_15.keys,key_resp_15.rt,key_resp_17.keys,key_resp_17.rt,key_resp_9.keys,key_resp_9.rt,key_resp_10.keys,key_resp_10.rt,Circle1_col,Ecc,Circle2_col,similarity,response_time,mouse_5.x,mouse_5.y,mouse_5.leftButton,mouse_5.midButton,mouse_5.rightButton,mouse_5.clicked_name,mouse_10.x,mouse_10.y,mouse_10.leftButton,mouse_10.midButton,mouse_10.rightButton,mouse_10.clicked_name,mouse_7.x,mouse_7.y,mouse_7.leftButton,mouse_7.midButton,mouse_7.rightButton,catchnumberprac,mouse_6.x,mouse_6.y,mouse_6.leftButton,mouse_6.midButton,mouse_6.rightButton,duringprac.thisRepN,duringprac.thisTrialN,duringprac.thisN,duringprac.thisIndex,duringprac.ran
0,0,0,92,1,,5f04a16afdd4f90d36b2bee5,62c538d1e433860fd3c36666,2022-07-06_09h25.39.075,Colour_Asymmetry_Pilot,2022.1.3,Win32,58.79931793,62c50e9c1127f2cd403a315f,,,,,,,,,,,,,,,,,,,,,,,,,,,,,,,,,,,,,,,,,,,,,,,,,,,
0,1,1,14,1,,5f04a16afdd4f90d36b2bee5,62c538d1e433860fd3c36666,2022-07-06_09h25.39.075,Colour_Asymmetry_Pilot,2022.1.3,Win32,58.79931793,62c50e9c1127f2cd403a315f,,,,,,,,,,,,,,,,,,,,,,,,,,,,,,,,,,,,,,,,,,,,,,,,,,,
0,2,2,39,1,,5f04a16afdd4f90d36b2bee5,62c538d1e433860fd3c36666,2022-07-06_09h25.39.075,Colour_Asymmetry_Pilot,2022.1.3,Win32,58.79931793,62c50e9c1127f2cd403a315f,,,,,,,,,,,,,,,,,,,,,,,,,,,,,,,,,,,,,,,,,,,,,,,,,,,
0,3,3,55,1,,5f04a16afdd4f90d36b2bee5,62c538d1e433860fd3c36666,2022-07-06_09h25.39.075,Colour_Asymmetry_Pilot,2022.1.3,Win32,58.79931793,62c50e9c1127f2cd403a315f,,,,,,,,,,,,,,,,,,,,,,,,,,,,,,,,,,,,,,,,,,,,,,,,,,,
0,4,4,86,1,,5f04a16afdd4f90d36b2bee5,62c538d1e433860fd3c36666,2022-07-06_09h25.39.075,Colour_Asymmetry_Pilot,2022.1.3,Win32,58.79931793,62c50e9c1127f2cd403a315f,,,,,,,,,,,,,,,,,,,,,,,,,,,,,,,,,,,,,,,,,,,,,,,,,,,
0,5,5,17,1,,5f04a16afdd4f90d36b2bee5,62c538d1e433860fd3c36666,2022-07-06_09h25.39.075,Colour_Asymmetry_Pilot,2022.1.3,Win32,58.79931793,62c50e9c1127f2cd403a315f,,,,,,,,,,,,,,,,,,,,,,,,,,,,,,,,,,,,,,,,,,,,,,,,,,,
0,6,6,57,1,,5f04a16afdd4f90d36b2bee5,62c538d1e433860fd3c36666,2022-07-06_09h25.39.075,Colour_Asymmetry_Pilot,2022.1.3,Win32,58.79931793,62c50e9c1127f2cd403a315f,,,,,,,,,,,,,,,,,,,,,,,,,,,,,,,,,,,,,,,,,,,,,,,,,,,
0,7,7,54,1,,5f04a16afdd4f90d36b2bee5,62c538d1e433860fd3c36666,2022-07-06_09h25.39.075,Colour_Asymmetry_Pilot,2022.1.3,Win32,58.79931793,62c50e9c1127f2cd403a315f,,,,,,,,,,,,,,,,,,,,,,,,,,,,,,,,,,,,,,,,,,,,,,,,,,,
0,8,8,82,1,,5f04a16afdd4f90d36b2bee5,62c538d1e433860fd3c36666,2022-07-06_09h25.39.075,Colour_Asymmetry_Pilot,2022.1.3,Win32,58.79931793,62c50e9c1127f2cd403a315f,,,,,,,,,,,,,,,,,,,,,,,,,,,,,,,,,,,,,,,,,,,,,,,,,,,
0,9,9,65,1,,5f04a16afdd4f90d36b2bee5,62c538d1e433860fd3c36666,2022-07-06_09h25.39.075,Colour_Asymmetry_Pilot,2022.1.3,Win32,58.79931793,62c50e9c1127f2cd403a315f,,,,,,,,,,,,,,,,,,,,,,,,,,,,,,,,,,,,,,,,,,,,,,,,,,,
0,10,10,3,1,,5f04a16afdd4f90d36b2bee5,62c538d1e433860fd3c36666,2022-07-06_09h25.39.075,Colour_Asymmetry_Pilot,2022.1.3,Win32,58.79931793,62c50e9c1127f2cd403a315f,,,,,,,,,,,,,,,,,,,,,,,,,,,,,,,,,,,,,,,,,,,,,,,,,,,
0,11,11,77,1,,5f04a16afdd4f90d36b2bee5,62c538d1e433860fd3c36666,2022-07-06_09h25.39.075,Colour_Asymmetry_Pilot,2022.1.3,Win32,58.79931793,62c50e9c1127f2cd403a315f,,,,,,,,,,,,,,,,,,,,,,,,,,,,,,,,,,,,,,,,,,,,,,,,,,,
0,12,12,8,1,,5f04a16afdd4f90d36b2bee5,62c538d1e433860fd3c36666,2022-07-06_09h25.39.075,Colour_Asymmetry_Pilot,2022.1.3,Win32,58.79931793,62c50e9c1127f2cd403a315f,,,,,,,,,,,,,,,,,,,,,,,,,,,,,,,,,,,,,,,,,,,,,,,,,,,
0,13,13,69,1,,5f04a16afdd4f90d36b2bee5,62c538d1e433860fd3c36666,2022-07-06_09h25.39.075,Colour_Asymmetry_Pilot,2022.1.3,Win32,58.79931793,62c50e9c1127f2cd403a315f,,,,,,,,,,,,,,,,,,,,,,,,,,,,,,,,,,,,,,,,,,,,,,,,,,,
0,14,14,59,1,,5f04a16afdd4f90d36b2bee5,62c538d1e433860fd3c36666,2022-07-06_09h25.39.075,Colour_Asymmetry_Pilot,2022.1.3,Win32,58.79931793,62c50e9c1127f2cd403a315f,,,,,,,,,,,,,,,,,,,,,,,,,,,,,,,,,,,,,,,,,,,,,,,,,,,
0,15,15,27,1,,5f04a16afdd4f90d36b2bee5,62c538d1e433860fd3c36666,2022-07-06_09h25.39.075,Colour_Asymmetry_Pilot,2022.1.3,Win32,58.79931793,62c50e9c1127f2cd403a315f,,,,,,,,,,,,,,,,,,,,,,,,,,,,,,,,,,,,,,,,,,,,,,,,,,,
0,16,16,23,1,,5f04a16afdd4f90d36b2bee5,62c538d1e433860fd3c36666,2022-07-06_09h25.39.075,Colour_Asymmetry_Pilot,2022.1.3,Win32,58.79931793,62c50e9c1127f2cd403a315f,,,,,,,,,,,,,,,,,,,,,,,,,,,,,,,,,,,,,,,,,,,,,,,,,,,
0,17,17,21,1,,5f04a16afdd4f90d36b2bee5,62c538d1e433860fd3c36666,2022-07-06_09h25.39.075,Colour_Asymmetry_Pilot,2022.1.3,Win32,58.79931793,62c50e9c1127f2cd403a315f,,,,,,,,,,,,,,,,,,,,,,,,,,,,,,,,,,,,,,,,,,,,,,,,,,,
0,18,18,25,1,,5f04a16afdd4f90d36b2bee5,62c538d1e433860fd3c36666,2022-07-06_09h25.39.075,Colour_Asymmetry_Pilot,2022.1.3,Win32,58.79931793,62c50e9c1127f2cd403a315f,,,,,,,,,,,,,,,,,,,,,,,,,,,,,,,,,,,,,,,,,,,,,,,,,,,
0,19,19,32,1,,5f04a16afdd4f90d36b2bee5,62c538d1e433860fd3c36666,2022-07-06_09h25.39.075,Colour_Asymmetry_Pilot,2022.1.3,Win32,58.79931793,62c50e9c1127f2cd403a315f,,,,,,,,,,,,,,,,,,,,,,,,,,,,,,,,,,,,,,,,,,,,,,,,,,,
0,20,20,63,1,,5f04a16afdd4f90d36b2bee5,62c538d1e433860fd3c36666,2022-07-06_09h25.39.075,Colour_Asymmetry_Pilot,2022.1.3,Win32,58.79931793,62c50e9c1127f2cd403a315f,,,,,,,,,,,,,,,,,,,,,,,,,,,,,,,,,,,,,,,,,,,,,,,,,,,
0,21,21,46,1,,5f04a16afdd4f90d36b2bee5,62c538d1e433860fd3c36666,2022-07-06_09h25.39.075,Colour_Asymmetry_Pilot,2022.1.3,Win32,58.79931793,62c50e9c1127f2cd403a315f,,,,,,,,,,,,,,,,,,,,,,,,,,,,,,,,,,,,,,,,,,,,,,,,,,,
0,22,22,79,1,,5f04a16afdd4f90d36b2bee5,62c538d1e433860fd3c36666,2022-07-06_09h25.39.075,Colour_Asymmetry_Pilot,2022.1.3,Win32,58.79931793,62c50e9c1127f2cd403a315f,,,,,,,,,,,,,,,,,,,,,,,,,,,,,,,,,,,,,,,,,,,,,,,,,,,
0,23,23,29,1,,5f04a16afdd4f90d36b2bee5,62c538d1e433860fd3c36666,2022-07-06_09h25.39.075,Colour_Asymmetry_Pilot,2022.1.3,Win32,58.79931793,62c50e9c1127f2cd403a315f,,,,,,,,,,,,,,,,,,,,,,,,,,,,,,,,,,,,,,,,,,,,,,,,,,,
0,24,24,36,1,,5f04a16afdd4f90d36b2bee5,62c538d1e433860fd3c36666,2022-07-06_09h25.39.075,Colour_Asymmetry_Pilot,2022.1.3,Win32,58.79931793,62c50e9c1127f2cd403a315f,,,,,,,,,,,,,,,,,,,,,,,,,,,,,,,,,,,,,,,,,,,,,,,,,,,
0,25,25,74,1,,5f04a16afdd4f90d36b2bee5,62c538d1e433860fd3c36666,2022-07-06_09h25.39.075,Colour_Asymmetry_Pilot,2022.1.3,Win32,58.79931793,62c50e9c1127f2cd403a315f,,,,,,,,,,,,,,,,,,,,,,,,,,,,,,,,,,,,,,,,,,,,,,,,,,,
0,26,26,84,1,,5f04a16afdd4f90d36b2bee5,62c538d1e433860fd3c36666,2022-07-06_09h25.39.075,Colour_Asymmetry_Pilot,2022.1.3,Win32,58.79931793,62c50e9c1127f2cd403a315f,,,,,,,,,,,,,,,,,,,,,,,,,,,,,,,,,,,,,,,,,,,,,,,,,,,
0,27,27,49,1,,5f04a16afdd4f90d36b2bee5,62c538d1e433860fd3c36666,2022-07-06_09h25.39.075,Colour_Asymmetry_Pilot,2022.1.3,Win32,58.79931793,62c50e9c1127f2cd403a315f,,,,,,,,,,,,,,,,,,,,,,,,,,,,,,,,,,,,,,,,,,,,,,,,,,,
0,28,28,68,1,,5f04a16afdd4f90d36b2bee5,62c538d1e433860fd3c36666,2022-07-06_09h25.39.075,Colour_Asymmetry_Pilot,2022.1.3,Win32,58.79931793,62c50e9c1127f2cd403a315f,,,,,,,,,,,,,,,,,,,,,,,,,,,,,,,,,,,,,,,,,,,,,,,,,,,
0,29,29,91,1,,5f04a16afdd4f90d36b2bee5,62c538d1e433860fd3c36666,2022-07-06_09h25.39.075,Colour_Asymmetry_Pilot,2022.1.3,Win32,58.79931793,62c50e9c1127f2cd403a315f,,,,,,,,,,,,,,,,,,,,,,,,,,,,,,,,,,,,,,,,,,,,,,,,,,,
0,30,30,88,1,,5f04a16afdd4f90d36b2bee5,62c538d1e433860fd3c36666,2022-07-06_09h25.39.075,Colour_Asymmetry_Pilot,2022.1.3,Win32,58.79931793,62c50e9c1127f2cd403a315f,,,,,,,,,,,,,,,,,,,,,,,,,,,,,,,,,,,,,,,,,,,,,,,,,,,
0,31,31,80,1,,5f04a16afdd4f90d36b2bee5,62c538d1e433860fd3c36666,2022-07-06_09h25.39.075,Colour_Asymmetry_Pilot,2022.1.3,Win32,58.79931793,62c50e9c1127f2cd403a315f,,,,,,,,,,,,,,,,,,,,,,,,,,,,,,,,,,,,,,,,,,,,,,,,,,,
0,32,32,51,1,,5f04a16afdd4f90d36b2bee5,62c538d1e433860fd3c36666,2022-07-06_09h25.39.075,Colour_Asymmetry_Pilot,2022.1.3,Win32,58.79931793,62c50e9c1127f2cd403a315f,,,,,,,,,,,,,,,,,,,,,,,,,,,,,,,,,,,,,,,,,,,,,,,,,,,
0,33,33,75,1,,5f04a16afdd4f90d36b2bee5,62c538d1e433860fd3c36666,2022-07-06_09h25.39.075,Colour_Asymmetry_Pilot,2022.1.3,Win32,58.79931793,62c50e9c1127f2cd403a315f,,,,,,,,,,,,,,,,,,,,,,,,,,,,,,,,,,,,,,,,,,,,,,,,,,,
0,34,34,42,1,,5f04a16afdd4f90d36b2bee5,62c538d1e433860fd3c36666,2022-07-06_09h25.39.075,Colour_Asymmetry_Pilot,2022.1.3,Win32,58.79931793,62c50e9c1127f2cd403a315f,,,,,,,,,,,,,,,,,,,,,,,,,,,,,,,,,,,,,,,,,,,,,,,,,,,
0,35,35,73,1,,5f04a16afdd4f90d36b2bee5,62c538d1e433860fd3c36666,2022-07-06_09h25.39.075,Colour_Asymmetry_Pilot,2022.1.3,Win32,58.79931793,62c50e9c1127f2cd403a315f,,,,,,,,,,,,,,,,,,,,,,,,,,,,,,,,,,,,,,,,,,,,,,,,,,,
0,36,36,0,1,,5f04a16afdd4f90d36b2bee5,62c538d1e433860fd3c36666,2022-07-06_09h25.39.075,Colour_Asymmetry_Pilot,2022.1.3,Win32,58.79931793,62c50e9c1127f2cd403a315f,,,,,,,,,,,,,,,,,,,,,,,,,,,,,,,,,,,,,,,,,,,,,,,,,,,
0,37,37,35,1,,5f04a16afdd4f90d36b2bee5,62c538d1e433860fd3c36666,2022-07-06_09h25.39.075,Colour_Asymmetry_Pilot,2022.1.3,Win32,58.79931793,62c50e9c1127f2cd403a315f,,,,,,,,,,,,,,,,,,,,,,,,,,,,,,,,,,,,,,,,,,,,,,,,,,,
0,38,38,71,1,,5f04a16afdd4f90d36b2bee5,62c538d1e433860fd3c36666,2022-07-06_09h25.39.075,Colour_Asymmetry_Pilot,2022.1.3,Win32,58.79931793,62c50e9c1127f2cd403a315f,,,,,,,,,,,,,,,,,,,,,,,,,,,,,,,,,,,,,,,,,,,,,,,,,,,
0,39,39,13,1,,5f04a16afdd4f90d36b2bee5,62c538d1e433860fd3c36666,2022-07-06_09h25.39.075,Colour_Asymmetry_Pilot,2022.1.3,Win32,58.79931793,62c50e9c1127f2cd403a315f,,,,,,,,,,,,,,,,,,,,,,,,,,,,,,,,,,,,,,,,,,,,,,,,,,,
0,40,40,18,1,,5f04a16afdd4f90d36b2bee5,62c538d1e433860fd3c36666,2022-07-06_09h25.39.075,Colour_Asymmetry_Pilot,2022.1.3,Win32,58.79931793,62c50e9c1127f2cd403a315f,,,,,,,,,,,,,,,,,,,,,,,,,,,,,,,,,,,,,,,,,,,,,,,,,,,
0,41,41,50,1,,5f04a16afdd4f90d36b2bee5,62c538d1e433860fd3c36666,2022-07-06_09h25.39.075,Colour_Asymmetry_Pilot,2022.1.3,Win32,58.79931793,62c50e9c1127f2cd403a315f,,,,,,,,,,,,,,,,,,,,,,,,,,,,,,,,,,,,,,,,,,,,,,,,,,,
0,42,42,5,1,,5f04a16afdd4f90d36b2bee5,62c538d1e433860fd3c36666,2022-07-06_09h25.39.075,Colour_Asymmetry_Pilot,2022.1.3,Win32,58.79931793,62c50e9c1127f2cd403a315f,,,,,,,,,,,,,,,,,,,,,,,,,,,,,,,,,,,,,,,,,,,,,,,,,,,
0,43,43,1,1,,5f04a16afdd4f90d36b2bee5,62c538d1e433860fd3c36666,2022-07-06_09h25.39.075,Colour_Asymmetry_Pilot,2022.1.3,Win32,58.79931793,62c50e9c1127f2cd403a315f,,,,,,,,,,,,,,,,,,,,,,,,,,,,,,,,,,,,,,,,,,,,,,,,,,,
0,44,44,70,1,,5f04a16afdd4f90d36b2bee5,62c538d1e433860fd3c36666,2022-07-06_09h25.39.075,Colour_Asymmetry_Pilot,2022.1.3,Win32,58.79931793,62c50e9c1127f2cd403a315f,,,,,,,,,,,,,,,,,,,,,,,,,,,,,,,,,,,,,,,,,,,,,,,,,,,
0,45,45,62,1,,5f04a16afdd4f90d36b2bee5,62c538d1e433860fd3c36666,2022-07-06_09h25.39.075,Colour_Asymmetry_Pilot,2022.1.3,Win32,58.79931793,62c50e9c1127f2cd403a315f,,,,,,,,,,,,,,,,,,,,,,,,,,,,,,,,,,,,,,,,,,,,,,,,,,,
0,46,46,10,1,,5f04a16afdd4f90d36b2bee5,62c538d1e433860fd3c36666,2022-07-06_09h25.39.075,Colour_Asymmetry_Pilot,2022.1.3,Win32,58.79931793,62c50e9c1127f2cd403a315f,,,,,,,,,,,,,,,,,,,,,,,,,,,,,,,,,,,,,,,,,,,,,,,,,,,
0,47,47,22,1,,5f04a16afdd4f90d36b2bee5,62c538d1e433860fd3c36666,2022-07-06_09h25.39.075,Colour_Asymmetry_Pilot,2022.1.3,Win32,58.79931793,62c50e9c1127f2cd403a315f,,,,,,,,,,,,,,,,,,,,,,,,,,,,,,,,,,,,,,,,,,,,,,,,,,,
0,48,48,30,1,,5f04a16afdd4f90d36b2bee5,62c538d1e433860fd3c36666,2022-07-06_09h25.39.075,Colour_Asymmetry_Pilot,2022.1.3,Win32,58.79931793,62c50e9c1127f2cd403a315f,,,,,,,,,,,,,,,,,,,,,,,,,,,,,,,,,,,,,,,,,,,,,,,,,,,
0,49,49,60,1,,5f04a16afdd4f90d36b2bee5,62c538d1e433860fd3c36666,2022-07-06_09h25.39.075,Colour_Asymmetry_Pilot,2022.1.3,Win32,58.79931793,62c50e9c1127f2cd403a315f,,,,,,,,,,,,,,,,,,,,,,,,,,,,,,,,,,,,,,,,,,,,,,,,,,,
0,50,50,31,1,,5f04a16afdd4f90d36b2bee5,62c538d1e433860fd3c36666,2022-07-06_09h25.39.075,Colour_Asymmetry_Pilot,2022.1.3,Win32,58.79931793,62c50e9c1127f2cd403a315f,,,,,,,,,,,,,,,,,,,,,,,,,,,,,,,,,,,,,,,,,,,,,,,,,,,
0,51,51,61,1,,5f04a16afdd4f90d36b2bee5,62c538d1e433860fd3c36666,2022-07-06_09h25.39.075,Colour_Asymmetry_Pilot,2022.1.3,Win32,58.79931793,62c50e9c1127f2cd403a315f,,,,,,,,,,,,,,,,,,,,,,,,,,,,,,,,,,,,,,,,,,,,,,,,,,,
0,52,52,34,1,,5f04a16afdd4f90d36b2bee5,62c538d1e433860fd3c36666,2022-07-06_09h25.39.075,Colour_Asymmetry_Pilot,2022.1.3,Win32,58.79931793,62c50e9c1127f2cd403a315f,,,,,,,,,,,,,,,,,,,,,,,,,,,,,,,,,,,,,,,,,,,,,,,,,,,
0,53,53,47,1,,5f04a16afdd4f90d36b2bee5,62c538d1e433860fd3c36666,2022-07-06_09h25.39.075,Colour_Asymmetry_Pilot,2022.1.3,Win32,58.79931793,62c50e9c1127f2cd403a315f,,,,,,,,,,,,,,,,,,,,,,,,,,,,,,,,,,,,,,,,,,,,,,,,,,,
0,54,54,87,1,,5f04a16afdd4f90d36b2bee5,62c538d1e433860fd3c36666,2022-07-06_09h25.39.075,Colour_Asymmetry_Pilot,2022.1.3,Win32,58.79931793,62c50e9c1127f2cd403a315f,,,,,,,,,,,,,,,,,,,,,,,,,,,,,,,,,,,,,,,,,,,,,,,,,,,
0,55,55,16,1,,5f04a16afdd4f90d36b2bee5,62c538d1e433860fd3c36666,2022-07-06_09h25.39.075,Colour_Asymmetry_Pilot,2022.1.3,Win32,58.79931793,62c50e9c1127f2cd403a315f,,,,,,,,,,,,,,,,,,,,,,,,,,,,,,,,,,,,,,,,,,,,,,,,,,,
0,56,56,19,1,,5f04a16afdd4f90d36b2bee5,62c538d1e433860fd3c36666,2022-07-06_09h25.39.075,Colour_Asymmetry_Pilot,2022.1.3,Win32,58.79931793,62c50e9c1127f2cd403a315f,,,,,,,,,,,,,,,,,,,,,,,,,,,,,,,,,,,,,,,,,,,,,,,,,,,
0,57,57,15,1,,5f04a16afdd4f90d36b2bee5,62c538d1e433860fd3c36666,2022-07-06_09h25.39.075,Colour_Asymmetry_Pilot,2022.1.3,Win32,58.79931793,62c50e9c1127f2cd403a315f,,,,,,,,,,,,,,,,,,,,,,,,,,,,,,,,,,,,,,,,,,,,,,,,,,,
0,58,58,6,1,,5f04a16afdd4f90d36b2bee5,62c538d1e433860fd3c36666,2022-07-06_09h25.39.075,Colour_Asymmetry_Pilot,2022.1.3,Win32,58.79931793,62c50e9c1127f2cd403a315f,,,,,,,,,,,,,,,,,,,,,,,,,,,,,,,,,,,,,,,,,,,,,,,,,,,
0,59,59,40,1,,5f04a16afdd4f90d36b2bee5,62c538d1e433860fd3c36666,2022-07-06_09h25.39.075,Colour_Asymmetry_Pilot,2022.1.3,Win32,58.79931793,62c50e9c1127f2cd403a315f,,,,,,,,,,,,,,,,,,,,,,,,,,,,,,,,,,,,,,,,,,,,,,,,,,,
0,60,60,90,1,,5f04a16afdd4f90d36b2bee5,62c538d1e433860fd3c36666,2022-07-06_09h25.39.075,Colour_Asymmetry_Pilot,2022.1.3,Win32,58.79931793,62c50e9c1127f2cd403a315f,,,,,,,,,,,,,,,,,,,,,,,,,,,,,,,,,,,,,,,,,,,,,,,,,,,
0,61,61,81,1,,5f04a16afdd4f90d36b2bee5,62c538d1e433860fd3c36666,2022-07-06_09h25.39.075,Colour_Asymmetry_Pilot,2022.1.3,Win32,58.79931793,62c50e9c1127f2cd403a315f,,,,,,,,,,,,,,,,,,,,,,,,,,,,,,,,,,,,,,,,,,,,,,,,,,,
0,62,62,11,1,,5f04a16afdd4f90d36b2bee5,62c538d1e433860fd3c36666,2022-07-06_09h25.39.075,Colour_Asymmetry_Pilot,2022.1.3,Win32,58.79931793,62c50e9c1127f2cd403a315f,,,,,,,,,,,,,,,,,,,,,,,,,,,,,,,,,,,,,,,,,,,,,,,,,,,
0,63,63,41,1,,5f04a16afdd4f90d36b2bee5,62c538d1e433860fd3c36666,2022-07-06_09h25.39.075,Colour_Asymmetry_Pilot,2022.1.3,Win32,58.79931793,62c50e9c1127f2cd403a315f,,,,,,,,,,,,,,,,,,,,,,,,,,,,,,,,,,,,,,,,,,,,,,,,,,,
0,64,64,72,1,,5f04a16afdd4f90d36b2bee5,62c538d1e433860fd3c36666,2022-07-06_09h25.39.075,Colour_Asymmetry_Pilot,2022.1.3,Win32,58.79931793,62c50e9c1127f2cd403a315f,,,,,,,,,,,,,,,,,,,,,,,,,,,,,,,,,,,,,,,,,,,,,,,,,,,
0,65,65,37,1,,5f04a16afdd4f90d36b2bee5,62c538d1e433860fd3c36666,2022-07-06_09h25.39.075,Colour_Asymmetry_Pilot,2022.1.3,Win32,58.79931793,62c50e9c1127f2cd403a315f,,,,,,,,,,,,,,,,,,,,,,,,,,,,,,,,,,,,,,,,,,,,,,,,,,,
0,66,66,4,1,,5f04a16afdd4f90d36b2bee5,62c538d1e433860fd3c36666,2022-07-06_09h25.39.075,Colour_Asymmetry_Pilot,2022.1.3,Win32,58.79931793,62c50e9c1127f2cd403a315f,,,,,,,,,,,,,,,,,,,,,,,,,,,,,,,,,,,,,,,,,,,,,,,,,,,
0,67,67,58,1,,5f04a16afdd4f90d36b2bee5,62c538d1e433860fd3c36666,2022-07-06_09h25.39.075,Colour_Asymmetry_Pilot,2022.1.3,Win32,58.79931793,62c50e9c1127f2cd403a315f,,,,,,,,,,,,,,,,,,,,,,,,,,,,,,,,,,,,,,,,,,,,,,,,,,,
0,68,68,20,1,,5f04a16afdd4f90d36b2bee5,62c538d1e433860fd3c36666,2022-07-06_09h25.39.075,Colour_Asymmetry_Pilot,2022.1.3,Win32,58.79931793,62c50e9c1127f2cd403a315f,,,,,,,,,,,,,,,,,,,,,,,,,,,,,,,,,,,,,,,,,,,,,,,,,,,
0,69,69,33,1,,5f04a16afdd4f90d36b2bee5,62c538d1e433860fd3c36666,2022-07-06_09h25.39.075,Colour_Asymmetry_Pilot,2022.1.3,Win32,58.79931793,62c50e9c1127f2cd403a315f,,,,,,,,,,,,,,,,,,,,,,,,,,,,,,,,,,,,,,,,,,,,,,,,,,,
0,70,70,48,1,,5f04a16afdd4f90d36b2bee5,62c538d1e433860fd3c36666,2022-07-06_09h25.39.075,Colour_Asymmetry_Pilot,2022.1.3,Win32,58.79931793,62c50e9c1127f2cd403a315f,,,,,,,,,,,,,,,,,,,,,,,,,,,,,,,,,,,,,,,,,,,,,,,,,,,
0,71,71,66,1,,5f04a16afdd4f90d36b2bee5,62c538d1e433860fd3c36666,2022-07-06_09h25.39.075,Colour_Asymmetry_Pilot,2022.1.3,Win32,58.79931793,62c50e9c1127f2cd403a315f,,,,,,,,,,,,,,,,,,,,,,,,,,,,,,,,,,,,,,,,,,,,,,,,,,,
0,72,72,38,1,,5f04a16afdd4f90d36b2bee5,62c538d1e433860fd3c36666,2022-07-06_09h25.39.075,Colour_Asymmetry_Pilot,2022.1.3,Win32,58.79931793,62c50e9c1127f2cd403a315f,,,,,,,,,,,,,,,,,,,,,,,,,,,,,,,,,,,,,,,,,,,,,,,,,,,
0,73,73,24,1,,5f04a16afdd4f90d36b2bee5,62c538d1e433860fd3c36666,2022-07-06_09h25.39.075,Colour_Asymmetry_Pilot,2022.1.3,Win32,58.79931793,62c50e9c1127f2cd403a315f,,,,,,,,,,,,,,,,,,,,,,,,,,,,,,,,,,,,,,,,,,,,,,,,,,,
0,74,74,9,1,,5f04a16afdd4f90d36b2bee5,62c538d1e433860fd3c36666,2022-07-06_09h25.39.075,Colour_Asymmetry_Pilot,2022.1.3,Win32,58.79931793,62c50e9c1127f2cd403a315f,,,,,,,,,,,,,,,,,,,,,,,,,,,,,,,,,,,,,,,,,,,,,,,,,,,
0,75,75,43,1,,5f04a16afdd4f90d36b2bee5,62c538d1e433860fd3c36666,2022-07-06_09h25.39.075,Colour_Asymmetry_Pilot,2022.1.3,Win32,58.79931793,62c50e9c1127f2cd403a315f,,,,,,,,,,,,,,,,,,,,,,,,,,,,,,,,,,,,,,,,,,,,,,,,,,,
0,76,76,56,1,,5f04a16afdd4f90d36b2bee5,62c538d1e433860fd3c36666,2022-07-06_09h25.39.075,Colour_Asymmetry_Pilot,2022.1.3,Win32,58.79931793,62c50e9c1127f2cd403a315f,,,,,,,,,,,,,,,,,,,,,,,,,,,,,,,,,,,,,,,,,,,,,,,,,,,
0,77,77,52,1,,5f04a16afdd4f90d36b2bee5,62c538d1e433860fd3c36666,2022-07-06_09h25.39.075,Colour_Asymmetry_Pilot,2022.1.3,Win32,58.79931793,62c50e9c1127f2cd403a315f,,,,,,,,,,,,,,,,,,,,,,,,,,,,,,,,,,,,,,,,,,,,,,,,,,,
0,78,78,76,1,,5f04a16afdd4f90d36b2bee5,62c538d1e433860fd3c36666,2022-07-06_09h25.39.075,Colour_Asymmetry_Pilot,2022.1.3,Win32,58.79931793,62c50e9c1127f2cd403a315f,,,,,,,,,,,,,,,,,,,,,,,,,,,,,,,,,,,,,,,,,,,,,,,,,,,
0,79,79,53,1,,5f04a16afdd4f90d36b2bee5,62c538d1e433860fd3c36666,2022-07-06_09h25.39.075,Colour_Asymmetry_Pilot,2022.1.3,Win32,58.79931793,62c50e9c1127f2cd403a315f,,,,,,,,,,,,,,,,,,,,,,,,,,,,,,,,,,,,,,,,,,,,,,,,,,,
0,80,80,89,1,,5f04a16afdd4f90d36b2bee5,62c538d1e433860fd3c36666,2022-07-06_09h25.39.075,Colour_Asymmetry_Pilot,2022.1.3,Win32,58.79931793,62c50e9c1127f2cd403a315f,,,,,,,,,,,,,,,,,,,,,,,,,,,,,,,,,,,,,,,,,,,,,,,,,,,
0,81,81,28,1,,5f04a16afdd4f90d36b2bee5,62c538d1e433860fd3c36666,2022-07-06_09h25.39.075,Colour_Asymmetry_Pilot,2022.1.3,Win32,58.79931793,62c50e9c1127f2cd403a315f,,,,,,,,,,,,,,,,,,,,,,,,,,,,,,,,,,,,,,,,,,,,,,,,,,,
0,82,82,2,1,,5f04a16afdd4f90d36b2bee5,62c538d1e433860fd3c36666,2022-07-06_09h25.39.075,Colour_Asymmetry_Pilot,2022.1.3,Win32,58.79931793,62c50e9c1127f2cd403a315f,,,,,,,,,,,,,,,,,,,,,,,,,,,,,,,,,,,,,,,,,,,,,,,,,,,
0,83,83,83,1,,5f04a16afdd4f90d36b2bee5,62c538d1e433860fd3c36666,2022-07-06_09h25.39.075,Colour_Asymmetry_Pilot,2022.1.3,Win32,58.79931793,62c50e9c1127f2cd403a315f,,,,,,,,,,,,,,,,,,,,,,,,,,,,,,,,,,,,,,,,,,,,,,,,,,,
0,84,84,26,1,,5f04a16afdd4f90d36b2bee5,62c538d1e433860fd3c36666,2022-07-06_09h25.39.075,Colour_Asymmetry_Pilot,2022.1.3,Win32,58.79931793,62c50e9c1127f2cd403a315f,,,,,,,,,,,,,,,,,,,,,,,,,,,,,,,,,,,,,,,,,,,,,,,,,,,
0,85,85,7,1,,5f04a16afdd4f90d36b2bee5,62c538d1e433860fd3c36666,2022-07-06_09h25.39.075,Colour_Asymmetry_Pilot,2022.1.3,Win32,58.79931793,62c50e9c1127f2cd403a315f,,,,,,,,,,,,,,,,,,,,,,,,,,,,,,,,,,,,,,,,,,,,,,,,,,,
0,86,86,44,1,,5f04a16afdd4f90d36b2bee5,62c538d1e433860fd3c36666,2022-07-06_09h25.39.075,Colour_Asymmetry_Pilot,2022.1.3,Win32,58.79931793,62c50e9c1127f2cd403a315f,,,,,,,,,,,,,,,,,,,,,,,,,,,,,,,,,,,,,,,,,,,,,,,,,,,
0,87,87,12,1,,5f04a16afdd4f90d36b2bee5,62c538d1e433860fd3c36666,2022-07-06_09h25.39.075,Colour_Asymmetry_Pilot,2022.1.3,Win32,58.79931793,62c50e9c1127f2cd403a315f,,,,,,,,,,,,,,,,,,,,,,,,,,,,,,,,,,,,,,,,,,,,,,,,,,,
0,88,88,78,1,,5f04a16afdd4f90d36b2bee5,62c538d1e433860fd3c36666,2022-07-06_09h25.39.075,Colour_Asymmetry_Pilot,2022.1.3,Win32,58.79931793,62c50e9c1127f2cd403a315f,,,,,,,,,,,,,,,,,,,,,,,,,,,,,,,,,,,,,,,,,,,,,,,,,,,
0,89,89,45,1,,5f04a16afdd4f90d36b2bee5,62c538d1e433860fd3c36666,2022-07-06_09h25.39.075,Colour_Asymmetry_Pilot,2022.1.3,Win32,58.79931793,62c50e9c1127f2cd403a315f,,,,,,,,,,,,,,,,,,,,,,,,,,,,,,,,,,,,,,,,,,,,,,,,,,,
0,90,90,64,1,,5f04a16afdd4f90d36b2bee5,62c538d1e433860fd3c36666,2022-07-06_09h25.39.075,Colour_Asymmetry_Pilot,2022.1.3,Win32,58.79931793,62c50e9c1127f2cd403a315f,,,,,,,,,,,,,,,,,,,,,,,,,,,,,,,,,,,,,,,,,,,,,,,,,,,
0,91,91,85,1,,5f04a16afdd4f90d36b2bee5,62c538d1e433860fd3c36666,2022-07-06_09h25.39.075,Colour_Asymmetry_Pilot,2022.1.3,Win32,58.79931793,62c50e9c1127f2cd403a315f,,,,,,,,,,,,,,,,,,,,,,,,,,,,,,,,,,,,,,,,,,,,,,,,,,,
0,92,92,67,1,,5f04a16afdd4f90d36b2bee5,62c538d1e433860fd3c36666,2022-07-06_09h25.39.075,Colour_Asymmetry_Pilot,2022.1.3,Win32,58.79931793,62c50e9c1127f2cd403a315f,,,,,,,,,,,,,,,,,,,,,,,,,,,,,,,,,,,,,,,,,,,,,,,,,,,
,,,,,,5f04a16afdd4f90d36b2bee5,62c538d1e433860fd3c36666,2022-07-06_09h25.39.075,Colour_Asymmetry_Pilot,2022.1.3,Win32,58.79931793,62c50e9c1127f2cd403a315f,0,0,0,19,1,twofour,,,,,,,,,,,,,,,,,,,,,,,,,,,,,,,,,,,,,,,,,,,,,
,,,,,,5f04a16afdd4f90d36b2bee5,62c538d1e433860fd3c36666,2022-07-06_09h25.39.075,Colour_Asymmetry_Pilot,2022.1.3,Win32,58.79931793,62c50e9c1127f2cd403a315f,0,1,1,131,1,twofour,,,,,,,,,,,,,,,,,,,,,,,,,,,,,,,,,,,,,,,,,,,,,
,,,,,,5f04a16afdd4f90d36b2bee5,62c538d1e433860fd3c36666,2022-07-06_09h25.39.075,Colour_Asymmetry_Pilot,2022.1.3,Win32,58.79931793,62c50e9c1127f2cd403a315f,0,2,2,81,1,onethree,,,,,,,,,,,,,,,,,,,,,,,,,,,,,,,,,,,,,,,,,,,,,
,,,,,,5f04a16afdd4f90d36b2bee5,62c538d1e433860fd3c36666,2022-07-06_09h25.39.075,Colour_Asymmetry_Pilot,2022.1.3,Win32,58.79931793,62c50e9c1127f2cd403a315f,0,3,3,143,1,fourthree,,,,,,,,,,,,,,,,,,,,,,,,,,,,,,,,,,,,,,,,,,,,,
,,,,,,5f04a16afdd4f90d36b2bee5,62c538d1e433860fd3c36666,2022-07-06_09h25.39.075,Colour_Asymmetry_Pilot,2022.1.3,Win32,58.79931793,62c50e9c1127f2cd403a315f,0,4,4,135,1,fourthree,,,,,,,,,,,,,,,,,,,,,,,,,,,,,,,,,,,,,,,,,,,,,
,,,,,,5f04a16afdd4f90d36b2bee5,62c538d1e433860fd3c36666,2022-07-06_09h25.39.075,Colour_Asymmetry_Pilot,2022.1.3,Win32,58.79931793,62c50e9c1127f2cd403a315f,0,5,5,37,1,threefour,,,,,,,,,,,,,,,,,,,,,,,,,,,,,,,,,,,,,,,,,,,,,
,,,,,,5f04a16afdd4f90d36b2bee5,62c538d1e433860fd3c36666,2022-07-06_09h25.39.075,Colour_Asymmetry_Pilot,2022.1.3,Win32,58.79931793,62c50e9c1127f2cd403a315f,0,6,6,73,1,onethree,,,,,,,,,,,,,,,,,,,,,,,,,,,,,,,,,,,,,,,,,,,,,
,,,,,,5f04a16afdd4f90d36b2bee5,62c538d1e433860fd3c36666,2022-07-06_09h25.39.075,Colour_Asymmetry_Pilot,2022.1.3,Win32,58.79931793,62c50e9c1127f2cd403a315f,0,7,7,29,1,threefour,,,,,,,,,,,,,,,,,,,,,,,,,,,,,,,,,,,,,,,,,,,,,
,,,,,,5f04a16afdd4f90d36b2bee5,62c538d1e433860fd3c36666,2022-07-06_09h25.39.075,Colour_Asymmetry_Pilot,2022.1.3,Win32,58.79931793,62c50e9c1127f2cd403a315f,0,8,8,23,1,fourthree,,,,,,,,,,,,,,,,,,,,,,,,,,,,,,,,,,,,,,,,,,,,,
,,,,,,5f04a16afdd4f90d36b2bee5,62c538d1e433860fd3c36666,2022-07-06_09h25.39.075,Colour_Asymmetry_Pilot,2022.1.3,Win32,58.79931793,62c50e9c1127f2cd403a315f,0,9,9,115,1,twofour,,,,,,,,,,,,,,,,,,,,,,,,,,,,,,,,,,,,,,,,,,,,,
,,,,,,5f04a16afdd4f90d36b2bee5,62c538d1e433860fd3c36666,2022-07-06_09h25.39.075,Colour_Asymmetry_Pilot,2022.1.3,Win32,58.79931793,62c50e9c1127f2cd403a315f,0,10,10,91,1,twofour,,,,,,,,,,,,,,,,,,,,,,,,,,,,,,,,,,,,,,,,,,,,,
,,,,,,5f04a16afdd4f90d36b2bee5,62c538d1e433860fd3c36666,2022-07-06_09h25.39.075,Colour_Asymmetry_Pilot,2022.1.3,Win32,58.79931793,62c50e9c1127f2cd403a315f,0,11,11,94,1,fourtwo,,,,,,,,,,,,,,,,,,,,,,,,,,,,,,,,,,,,,,,,,,,,,
,,,,,,5f04a16afdd4f90d36b2bee5,62c538d1e433860fd3c36666,2022-07-06_09h25.39.075,Colour_Asymmetry_Pilot,2022.1.3,Win32,58.79931793,62c50e9c1127f2cd403a315f,0,12,12,68,1,threeone,,,,,,,,,,,,,,,,,,,,,,,,,,,,,,,,,,,,,,,,,,,,,
,,,,,,5f04a16afdd4f90d36b2bee5,62c538d1e433860fd3c36666,2022-07-06_09h25.39.075,Colour_Asymmetry_Pilot,2022.1.3,Win32,58.79931793,62c50e9c1127f2cd403a315f,0,13,13,129,1,onethree,,,,,,,,,,,,,,,,,,,,,,,,,,,,,,,,,,,,,,,,,,,,,
,,,,,,5f04a16afdd4f90d36b2bee5,62c538d1e433860fd3c36666,2022-07-06_09h25.39.075,Colour_Asymmetry_Pilot,2022.1.3,Win32,58.79931793,62c50e9c1127f2cd403a315f,0,14,14,33,1,onethree,,,,,,,,,,,,,,,,,,,,,,,,,,,,,,,,,,,,,,,,,,,,,
,,,,,,5f04a16afdd4f90d36b2bee5,62c538d1e433860fd3c36666,2022-07-06_09h25.39.075,Colour_Asymmetry_Pilot,2022.1.3,Win32,58.79931793,62c50e9c1127f2cd403a315f,0,15,15,21,1,threefour,,,,,,,,,,,,,,,,,,,,,,,,,,,,,,,,,,,,,,,,,,,,,
,,,,,,5f04a16afdd4f90d36b2bee5,62c538d1e433860fd3c36666,2022-07-06_09h25.39.075,Colour_Asymmetry_Pilot,2022.1.3,Win32,58.79931793,62c50e9c1127f2cd403a315f,0,16,16,56,1,onetwo,,,,,,,,,,,,,,,,,,,,,,,,,,,,,,,,,,,,,,,,,,,,,
,,,,,,5f04a16afdd4f90d36b2bee5,62c538d1e433860fd3c36666,2022-07-06_09h25.39.075,Colour_Asymmetry_Pilot,2022.1.3,Win32,58.79931793,62c50e9c1127f2cd403a315f,0,17,17,31,1,fourthree,,,,,,,,,,,,,,,,,,,,,,,,,,,,,,,,,,,,,,,,,,,,,
,,,,,,5f04a16afdd4f90d36b2bee5,62c538d1e433860fd3c36666,2022-07-06_09h25.39.075,Colour_Asymmetry_Pilot,2022.1.3,Win32,58.79931793,62c50e9c1127f2cd403a315f,0,18,18,75,1,twofour,,,,,,,,,,,,,,,,,,,,,,,,,,,,,,,,,,,,,,,,,,,,,
,,,,,,5f04a16afdd4f90d36b2bee5,62c538d1e433860fd3c36666,2022-07-06_09h25.39.075,Colour_Asymmetry_Pilot,2022.1.3,Win32,58.79931793,62c50e9c1127f2cd403a315f,0,19,19,86,1,fourtwo,,,,,,,,,,,,,,,,,,,,,,,,,,,,,,,,,,,,,,,,,,,,,
,,,,,,5f04a16afdd4f90d36b2bee5,62c538d1e433860fd3c36666,2022-07-06_09h25.39.075,Colour_Asymmetry_Pilot,2022.1.3,Win32,58.79931793,62c50e9c1127f2cd403a315f,0,20,20,138,1,twoone,,,,,,,,,,,,,,,,,,,,,,,,,,,,,,,,,,,,,,,,,,,,,
,,,,,,5f04a16afdd4f90d36b2bee5,62c538d1e433860fd3c36666,2022-07-06_09h25.39.075,Colour_Asymmetry_Pilot,2022.1.3,Win32,58.79931793,62c50e9c1127f2cd403a315f,0,21,21,160,1,onetwo,,,,,,,,,,,,,,,,,,,,,,,,,,,,,,,,,,,,,,,,,,,,,
,,,,,,5f04a16afdd4f90d36b2bee5,62c538d1e433860fd3c36666,2022-07-06_09h25.39.075,Colour_Asymmetry_Pilot,2022.1.3,Win32,58.79931793,62c50e9c1127f2cd403a315f,0,22,22,77,1,threefour,,,,,,,,,,,,,,,,,,,,,,,,,,,,,,,,,,,,,,,,,,,,,
,,,,,,5f04a16afdd4f90d36b2bee5,62c538d1e433860fd3c36666,2022-07-06_09h25.39.075,Colour_Asymmetry_Pilot,2022.1.3,Win32,58.79931793,62c50e9c1127f2cd403a315f,0,23,23,150,1,fourtwo,,,,,,,,,,,,,,,,,,,,,,,,,,,,,,,,,,,,,,,,,,,,,
,,,,,,5f04a16afdd4f90d36b2bee5,62c538d1e433860fd3c36666,2022-07-06_09h25.39.075,Colour_Asymmetry_Pilot,2022.1.3,Win32,58.79931793,62c50e9c1127f2cd403a315f,0,24,24,65,1,onethree,,,,,,,,,,,,,,,,,,,,,,,,,,,,,,,,,,,,,,,,,,,,,
,,,,,,5f04a16afdd4f90d36b2bee5,62c538d1e433860fd3c36666,2022-07-06_09h25.39.075,Colour_Asymmetry_Pilot,2022.1.3,Win32,58.79931793,62c50e9c1127f2cd403a315f,0,25,25,83,1,twofour,,,,,,,,,,,,,,,,,,,,,,,,,,,,,,,,,,,,,,,,,,,,,
,,,,,,5f04a16afdd4f90d36b2bee5,62c538d1e433860fd3c36666,2022-07-06_09h25.39.075,Colour_Asymmetry_Pilot,2022.1.3,Win32,58.79931793,62c50e9c1127f2cd403a315f,0,26,26,84,1,threeone,,,,,,,,,,,,,,,,,,,,,,,,,,,,,,,,,,,,,,,,,,,,,
,,,,,,5f04a16afdd4f90d36b2bee5,62c538d1e433860fd3c36666,2022-07-06_09h25.39.075,Colour_Asymmetry_Pilot,2022.1.3,Win32,58.79931793,62c50e9c1127f2cd403a315f,0,27,27,139,1,twofour,,,,,,,,,,,,,,,,,,,,,,,,,,,,,,,,,,,,,,,,,,,,,
,,,,,,5f04a16afdd4f90d36b2bee5,62c538d1e433860fd3c36666,2022-07-06_09h25.39.075,Colour_Asymmetry_Pilot,2022.1.3,Win32,58.79931793,62c50e9c1127f2cd403a315f,0,28,28,102,1,fourtwo,,,,,,,,,,,,,,,,,,,,,,,,,,,,,,,,,,,,,,,,,,,,,
,,,,,,5f04a16afdd4f90d36b2bee5,62c538d1e433860fd3c36666,2022-07-06_09h25.39.075,Colour_Asymmetry_Pilot,2022.1.3,Win32,58.79931793,62c50e9c1127f2cd403a315f,0,29,29,134,1,fourtwo,,,,,,,,,,,,,,,,,,,,,,,,,,,,,,,,,,,,,,,,,,,,,
,,,,,,5f04a16afdd4f90d36b2bee5,62c538d1e433860fd3c36666,2022-07-06_09h25.39.075,Colour_Asymmetry_Pilot,2022.1.3,Win32,58.79931793,62c50e9c1127f2cd403a315f,0,30,30,119,1,fourthree,,,,,,,,,,,,,,,,,,,,,,,,,,,,,,,,,,,,,,,,,,,,,
,,,,,,5f04a16afdd4f90d36b2bee5,62c538d1e433860fd3c36666,2022-07-06_09h25.39.075,Colour_Asymmetry_Pilot,2022.1.3,Win32,58.79931793,62c50e9c1127f2cd403a315f,0,31,31,156,1,threeone,,,,,,,,,,,,,,,,,,,,,,,,,,,,,,,,,,,,,,,,,,,,,
,,,,,,5f04a16afdd4f90d36b2bee5,62c538d1e433860fd3c36666,2022-07-06_09h25.39.075,Colour_Asymmetry_Pilot,2022.1.3,Win32,58.79931793,62c50e9c1127f2cd403a315f,0,32,32,148,1,threeone,,,,,,,,,,,,,,,,,,,,,,,,,,,,,,,,,,,,,,,,,,,,,
,,,,,,5f04a16afdd4f90d36b2bee5,62c538d1e433860fd3c36666,2022-07-06_09h25.39.075,Colour_Asymmetry_Pilot,2022.1.3,Win32,58.79931793,62c50e9c1127f2cd403a315f,0,33,33,52,1,threeone,,,,,,,,,,,,,,,,,,,,,,,,,,,,,,,,,,,,,,,,,,,,,
,,,,,,5f04a16afdd4f90d36b2bee5,62c538d1e433860fd3c36666,2022-07-06_09h25.39.075,Colour_Asymmetry_Pilot,2022.1.3,Win32,58.79931793,62c50e9c1127f2cd403a315f,0,34,34,2,1,twoone,,,,,,,,,,,,,,,,,,,,,,,,,,,,,,,,,,,,,,,,,,,,,
,,,,,,5f04a16afdd4f90d36b2bee5,62c538d1e433860fd3c36666,2022-07-06_09h25.39.075,Colour_Asymmetry_Pilot,2022.1.3,Win32,58.79931793,62c50e9c1127f2cd403a315f,0,35,35,130,1,twoone,,,,,,,,,,,,,,,,,,,,,,,,,,,,,,,,,,,,,,,,,,,,,
,,,,,,5f04a16afdd4f90d36b2bee5,62c538d1e433860fd3c36666,2022-07-06_09h25.39.075,Colour_Asymmetry_Pilot,2022.1.3,Win32,58.79931793,62c50e9c1127f2cd403a315f,0,36,36,12,1,threeone,,,,,,,,,,,,,,,,,,,,,,,,,,,,,,,,,,,,,,,,,,,,,
,,,,,,5f04a16afdd4f90d36b2bee5,62c538d1e433860fd3c36666,2022-07-06_09h25.39.075,Colour_Asymmetry_Pilot,2022.1.3,Win32,58.79931793,62c50e9c1127f2cd403a315f,0,37,37,112,1,onetwo,,,,,,,,,,,,,,,,,,,,,,,,,,,,,,,,,,,,,,,,,,,,,
,,,,,,5f04a16afdd4f90d36b2bee5,62c538d1e433860fd3c36666,2022-07-06_09h25.39.075,Colour_Asymmetry_Pilot,2022.1.3,Win32,58.79931793,62c50e9c1127f2cd403a315f,0,38,38,58,1,twoone,,,,,,,,,,,,,,,,,,,,,,,,,,,,,,,,,,,,,,,,,,,,,
,,,,,,5f04a16afdd4f90d36b2bee5,62c538d1e433860fd3c36666,2022-07-06_09h25.39.075,Colour_Asymmetry_Pilot,2022.1.3,Win32,58.79931793,62c50e9c1127f2cd403a315f,0,39,39,92,1,threeone,,,,,,,,,,,,,,,,,,,,,,,,,,,,,,,,,,,,,,,,,,,,,
,,,,,,5f04a16afdd4f90d36b2bee5,62c538d1e433860fd3c36666,2022-07-06_09h25.39.075,Colour_Asymmetry_Pilot,2022.1.3,Win32,58.79931793,62c50e9c1127f2cd403a315f,0,40,40,39,1,fourthree,,,,,,,,,,,,,,,,,,,,,,,,,,,,,,,,,,,,,,,,,,,,,
,,,,,,5f04a16afdd4f90d36b2bee5,62c538d1e433860fd3c36666,2022-07-06_09h25.39.075,Colour_Asymmetry_Pilot,2022.1.3,Win32,58.79931793,62c50e9c1127f2cd403a315f,0,41,41,141,1,threefour,,,,,,,,,,,,,,,,,,,,,,,,,,,,,,,,,,,,,,,,,,,,,
,,,,,,5f04a16afdd4f90d36b2bee5,62c538d1e433860fd3c36666,2022-07-06_09h25.39.075,Colour_Asymmetry_Pilot,2022.1.3,Win32,58.79931793,62c50e9c1127f2cd403a315f,0,42,42,41,1,onethree,,,,,,,,,,,,,,,,,,,,,,,,,,,,,,,,,,,,,,,,,,,,,
,,,,,,5f04a16afdd4f90d36b2bee5,62c538d1e433860fd3c36666,2022-07-06_09h25.39.075,Colour_Asymmetry_Pilot,2022.1.3,Win32,58.79931793,62c50e9c1127f2cd403a315f,0,43,43,49,1,onethree,,,,,,,,,,,,,,,,,,,,,,,,,,,,,,,,,,,,,,,,,,,,,
,,,,,,5f04a16afdd4f90d36b2bee5,62c538d1e433860fd3c36666,2022-07-06_09h25.39.075,Colour_Asymmetry_Pilot,2022.1.3,Win32,58.79931793,62c50e9c1127f2cd403a315f,0,44,44,145,1,onethree,,,,,,,,,,,,,,,,,,,,,,,,,,,,,,,,,,,,,,,,,,,,,
,,,,,,5f04a16afdd4f90d36b2bee5,62c538d1e433860fd3c36666,2022-07-06_09h25.39.075,Colour_Asymmetry_Pilot,2022.1.3,Win32,58.79931793,62c50e9c1127f2cd403a315f,0,45,45,157,1,threefour,,,,,,,,,,,,,,,,,,,,,,,,,,,,,,,,,,,,,,,,,,,,,
,,,,,,5f04a16afdd4f90d36b2bee5,62c538d1e433860fd3c36666,2022-07-06_09h25.39.075,Colour_Asymmetry_Pilot,2022.1.3,Win32,58.79931793,62c50e9c1127f2cd403a315f,0,46,46,62,1,fourtwo,,,,,,,,,,,,,,,,,,,,,,,,,,,,,,,,,,,,,,,,,,,,,
,,,,,,5f04a16afdd4f90d36b2bee5,62c538d1e433860fd3c36666,2022-07-06_09h25.39.075,Colour_Asymmetry_Pilot,2022.1.3,Win32,58.79931793,62c50e9c1127f2cd403a315f,0,47,47,66,1,twoone,,,,,,,,,,,,,,,,,,,,,,,,,,,,,,,,,,,,,,,,,,,,,
,,,,,,5f04a16afdd4f90d36b2bee5,62c538d1e433860fd3c36666,2022-07-06_09h25.39.075,Colour_Asymmetry_Pilot,2022.1.3,Win32,58.79931793,62c50e9c1127f2cd403a315f,0,48,48,59,1,twofour,,,,,,,,,,,,,,,,,,,,,,,,,,,,,,,,,,,,,,,,,,,,,
,,,,,,5f04a16afdd4f90d36b2bee5,62c538d1e433860fd3c36666,2022-07-06_09h25.39.075,Colour_Asymmetry_Pilot,2022.1.3,Win32,58.79931793,62c50e9c1127f2cd403a315f,0,49,49,122,1,twoone,,,,,,,,,,,,,,,,,,,,,,,,,,,,,,,,,,,,,,,,,,,,,
,,,,,,5f04a16afdd4f90d36b2bee5,62c538d1e433860fd3c36666,2022-07-06_09h25.39.075,Colour_Asymmetry_Pilot,2022.1.3,Win32,58.79931793,62c50e9c1127f2cd403a315f,0,50,50,51,1,twofour,,,,,,,,,,,,,,,,,,,,,,,,,,,,,,,,,,,,,,,,,,,,,
,,,,,,5f04a16afdd4f90d36b2bee5,62c538d1e433860fd3c36666,2022-07-06_09h25.39.075,Colour_Asymmetry_Pilot,2022.1.3,Win32,58.79931793,62c50e9c1127f2cd403a315f,0,51,51,158,1,fourtwo,,,,,,,,,,,,,,,,,,,,,,,,,,,,,,,,,,,,,,,,,,,,,
,,,,,,5f04a16afdd4f90d36b2bee5,62c538d1e433860fd3c36666,2022-07-06_09h25.39.075,Colour_Asymmetry_Pilot,2022.1.3,Win32,58.79931793,62c50e9c1127f2cd403a315f,0,52,52,111,1,fourthree,,,,,,,,,,,,,,,,,,,,,,,,,,,,,,,,,,,,,,,,,,,,,
,,,,,,5f04a16afdd4f90d36b2bee5,62c538d1e433860fd3c36666,2022-07-06_09h25.39.075,Colour_Asymmetry_Pilot,2022.1.3,Win32,58.79931793,62c50e9c1127f2cd403a315f,0,53,53,26,1,twoone,,,,,,,,,,,,,,,,,,,,,,,,,,,,,,,,,,,,,,,,,,,,,
,,,,,,5f04a16afdd4f90d36b2bee5,62c538d1e433860fd3c36666,2022-07-06_09h25.39.075,Colour_Asymmetry_Pilot,2022.1.3,Win32,58.79931793,62c50e9c1127f2cd403a315f,0,54,54,136,1,onetwo,,,,,,,,,,,,,,,,,,,,,,,,,,,,,,,,,,,,,,,,,,,,,
,,,,,,5f04a16afdd4f90d36b2bee5,62c538d1e433860fd3c36666,2022-07-06_09h25.39.075,Colour_Asymmetry_Pilot,2022.1.3,Win32,58.79931793,62c50e9c1127f2cd403a315f,0,55,55,35,1,twofour,,,,,,,,,,,,,,,,,,,,,,,,,,,,,,,,,,,,,,,,,,,,,
,,,,,,5f04a16afdd4f90d36b2bee5,62c538d1e433860fd3c36666,2022-07-06_09h25.39.075,Colour_Asymmetry_Pilot,2022.1.3,Win32,58.79931793,62c50e9c1127f2cd403a315f,0,56,56,159,1,fourthree,,,,,,,,,,,,,,,,,,,,,,,,,,,,,,,,,,,,,,,,,,,,,
,,,,,,5f04a16afdd4f90d36b2bee5,62c538d1e433860fd3c36666,2022-07-06_09h25.39.075,Colour_Asymmetry_Pilot,2022.1.3,Win32,58.79931793,62c50e9c1127f2cd403a315f,0,57,57,152,1,onetwo,,,,,,,,,,,,,,,,,,,,,,,,,,,,,,,,,,,,,,,,,,,,,
,,,,,,5f04a16afdd4f90d36b2bee5,62c538d1e433860fd3c36666,2022-07-06_09h25.39.075,Colour_Asymmetry_Pilot,2022.1.3,Win32,58.79931793,62c50e9c1127f2cd403a315f,0,58,58,13,1,threefour,,,,,,,,,,,,,,,,,,,,,,,,,,,,,,,,,,,,,,,,,,,,,
,,,,,,5f04a16afdd4f90d36b2bee5,62c538d1e433860fd3c36666,2022-07-06_09h25.39.075,Colour_Asymmetry_Pilot,2022.1.3,Win32,58.79931793,62c50e9c1127f2cd403a315f,0,59,59,140,1,threeone,,,,,,,,,,,,,,,,,,,,,,,,,,,,,,,,,,,,,,,,,,,,,
,,,,,,5f04a16afdd4f90d36b2bee5,62c538d1e433860fd3c36666,2022-07-06_09h25.39.075,Colour_Asymmetry_Pilot,2022.1.3,Win32,58.79931793,62c50e9c1127f2cd403a315f,0,60,60,82,1,twoone,,,,,,,,,,,,,,,,,,,,,,,,,,,,,,,,,,,,,,,,,,,,,
,,,,,,5f04a16afdd4f90d36b2bee5,62c538d1e433860fd3c36666,2022-07-06_09h25.39.075,Colour_Asymmetry_Pilot,2022.1.3,Win32,58.79931793,62c50e9c1127f2cd403a315f,0,61,61,42,1,twoone,,,,,,,,,,,,,,,,,,,,,,,,,,,,,,,,,,,,,,,,,,,,,
,,,,,,5f04a16afdd4f90d36b2bee5,62c538d1e433860fd3c36666,2022-07-06_09h25.39.075,Colour_Asymmetry_Pilot,2022.1.3,Win32,58.79931793,62c50e9c1127f2cd403a315f,0,62,62,104,1,onetwo,,,,,,,,,,,,,,,,,,,,,,,,,,,,,,,,,,,,,,,,,,,,,
,,,,,,5f04a16afdd4f90d36b2bee5,62c538d1e433860fd3c36666,2022-07-06_09h25.39.075,Colour_Asymmetry_Pilot,2022.1.3,Win32,58.79931793,62c50e9c1127f2cd403a315f,0,63,63,144,1,onetwo,,,,,,,,,,,,,,,,,,,,,,,,,,,,,,,,,,,,,,,,,,,,,
,,,,,,5f04a16afdd4f90d36b2bee5,62c538d1e433860fd3c36666,2022-07-06_09h25.39.075,Colour_Asymmetry_Pilot,2022.1.3,Win32,58.79931793,62c50e9c1127f2cd403a315f,0,64,64,6,1,fourtwo,,,,,,,,,,,,,,,,,,,,,,,,,,,,,,,,,,,,,,,,,,,,,
,,,,,,5f04a16afdd4f90d36b2bee5,62c538d1e433860fd3c36666,2022-07-06_09h25.39.075,Colour_Asymmetry_Pilot,2022.1.3,Win32,58.79931793,62c50e9c1127f2cd403a315f,0,65,65,53,1,threefour,,,,,,,,,,,,,,,,,,,,,,,,,,,,,,,,,,,,,,,,,,,,,
,,,,,,5f04a16afdd4f90d36b2bee5,62c538d1e433860fd3c36666,2022-07-06_09h25.39.075,Colour_Asymmetry_Pilot,2022.1.3,Win32,58.79931793,62c50e9c1127f2cd403a315f,0,66,66,87,1,fourthree,,,,,,,,,,,,,,,,,,,,,,,,,,,,,,,,,,,,,,,,,,,,,
,,,,,,5f04a16afdd4f90d36b2bee5,62c538d1e433860fd3c36666,2022-07-06_09h25.39.075,Colour_Asymmetry_Pilot,2022.1.3,Win32,58.79931793,62c50e9c1127f2cd403a315f,0,67,67,17,1,onethree,,,,,,,,,,,,,,,,,,,,,,,,,,,,,,,,,,,,,,,,,,,,,
,,,,,,5f04a16afdd4f90d36b2bee5,62c538d1e433860fd3c36666,2022-07-06_09h25.39.075,Colour_Asymmetry_Pilot,2022.1.3,Win32,58.79931793,62c50e9c1127f2cd403a315f,0,68,68,57,1,onethree,,,,,,,,,,,,,,,,,,,,,,,,,,,,,,,,,,,,,,,,,,,,,
,,,,,,5f04a16afdd4f90d36b2bee5,62c538d1e433860fd3c36666,2022-07-06_09h25.39.075,Colour_Asymmetry_Pilot,2022.1.3,Win32,58.79931793,62c50e9c1127f2cd403a315f,0,69,69,90,1,twoone,,,,,,,,,,,,,,,,,,,,,,,,,,,,,,,,,,,,,,,,,,,,,
,,,,,,5f04a16afdd4f90d36b2bee5,62c538d1e433860fd3c36666,2022-07-06_09h25.39.075,Colour_Asymmetry_Pilot,2022.1.3,Win32,58.79931793,62c50e9c1127f2cd403a315f,0,70,70,5,1,threefour,,,,,,,,,,,,,,,,,,,,,,,,,,,,,,,,,,,,,,,,,,,,,
,,,,,,5f04a16afdd4f90d36b2bee5,62c538d1e433860fd3c36666,2022-07-06_09h25.39.075,Colour_Asymmetry_Pilot,2022.1.3,Win32,58.79931793,62c50e9c1127f2cd403a315f,0,71,71,107,1,twofour,,,,,,,,,,,,,,,,,,,,,,,,,,,,,,,,,,,,,,,,,,,,,
,,,,,,5f04a16afdd4f90d36b2bee5,62c538d1e433860fd3c36666,2022-07-06_09h25.39.075,Colour_Asymmetry_Pilot,2022.1.3,Win32,58.79931793,62c50e9c1127f2cd403a315f,0,72,72,110,1,fourtwo,,,,,,,,,,,,,,,,,,,,,,,,,,,,,,,,,,,,,,,,,,,,,
,,,,,,5f04a16afdd4f90d36b2bee5,62c538d1e433860fd3c36666,2022-07-06_09h25.39.075,Colour_Asymmetry_Pilot,2022.1.3,Win32,58.79931793,62c50e9c1127f2cd403a315f,0,73,73,85,1,threefour,,,,,,,,,,,,,,,,,,,,,,,,,,,,,,,,,,,,,,,,,,,,,
,,,,,,5f04a16afdd4f90d36b2bee5,62c538d1e433860fd3c36666,2022-07-06_09h25.39.075,Colour_Asymmetry_Pilot,2022.1.3,Win32,58.79931793,62c50e9c1127f2cd403a315f,0,74,74,146,1,twoone,,,,,,,,,,,,,,,,,,,,,,,,,,,,,,,,,,,,,,,,,,,,,
,,,,,,5f04a16afdd4f90d36b2bee5,62c538d1e433860fd3c36666,2022-07-06_09h25.39.075,Colour_Asymmetry_Pilot,2022.1.3,Win32,58.79931793,62c50e9c1127f2cd403a315f,0,75,75,46,1,fourtwo,,,,,,,,,,,,,,,,,,,,,,,,,,,,,,,,,,,,,,,,,,,,,
,,,,,,5f04a16afdd4f90d36b2bee5,62c538d1e433860fd3c36666,2022-07-06_09h25.39.075,Colour_Asymmetry_Pilot,2022.1.3,Win32,58.79931793,62c50e9c1127f2cd403a315f,0,76,76,137,1,onethree,,,,,,,,,,,,,,,,,,,,,,,,,,,,,,,,,,,,,,,,,,,,,
,,,,,,5f04a16afdd4f90d36b2bee5,62c538d1e433860fd3c36666,2022-07-06_09h25.39.075,Colour_Asymmetry_Pilot,2022.1.3,Win32,58.79931793,62c50e9c1127f2cd403a315f,0,77,77,9,1,onethree,,,,,,,,,,,,,,,,,,,,,,,,,,,,,,,,,,,,,,,,,,,,,
,,,,,,5f04a16afdd4f90d36b2bee5,62c538d1e433860fd3c36666,2022-07-06_09h25.39.075,Colour_Asymmetry_Pilot,2022.1.3,Win32,58.79931793,62c50e9c1127f2cd403a315f,0,78,78,142,1,fourtwo,,,,,,,,,,,,,,,,,,,,,,,,,,,,,,,,,,,,,,,,,,,,,
,,,,,,5f04a16afdd4f90d36b2bee5,62c538d1e433860fd3c36666,2022-07-06_09h25.39.075,Colour_Asymmetry_Pilot,2022.1.3,Win32,58.79931793,62c50e9c1127f2cd403a315f,0,79,79,67,1,twofour,,,,,,,,,,,,,,,,,,,,,,,,,,,,,,,,,,,,,,,,,,,,,
,,,,,,5f04a16afdd4f90d36b2bee5,62c538d1e433860fd3c36666,2022-07-06_09h25.39.075,Colour_Asymmetry_Pilot,2022.1.3,Win32,58.79931793,62c50e9c1127f2cd403a315f,0,80,80,3,1,twofour,,,,,,,,,,,,,,,,,,,,,,,,,,,,,,,,,,,,,,,,,,,,,
,,,,,,5f04a16afdd4f90d36b2bee5,62c538d1e433860fd3c36666,2022-07-06_09h25.39.075,Colour_Asymmetry_Pilot,2022.1.3,Win32,58.79931793,62c50e9c1127f2cd403a315f,0,81,81,24,1,onetwo,,,,,,,,,,,,,,,,,,,,,,,,,,,,,,,,,,,,,,,,,,,,,
,,,,,,5f04a16afdd4f90d36b2bee5,62c538d1e433860fd3c36666,2022-07-06_09h25.39.075,Colour_Asymmetry_Pilot,2022.1.3,Win32,58.79931793,62c50e9c1127f2cd403a315f,0,82,82,103,1,fourthree,,,,,,,,,,,,,,,,,,,,,,,,,,,,,,,,,,,,,,,,,,,,,
,,,,,,5f04a16afdd4f90d36b2bee5,62c538d1e433860fd3c36666,2022-07-06_09h25.39.075,Colour_Asymmetry_Pilot,2022.1.3,Win32,58.79931793,62c50e9c1127f2cd403a315f,0,83,83,149,1,threefour,,,,,,,,,,,,,,,,,,,,,,,,,,,,,,,,,,,,,,,,,,,,,
,,,,,,5f04a16afdd4f90d36b2bee5,62c538d1e433860fd3c36666,2022-07-06_09h25.39.075,Colour_Asymmetry_Pilot,2022.1.3,Win32,58.79931793,62c50e9c1127f2cd403a315f,0,84,84,4,1,threeone,,,,,,,,,,,,,,,,,,,,,,,,,,,,,,,,,,,,,,,,,,,,,
,,,,,,5f04a16afdd4f90d36b2bee5,62c538d1e433860fd3c36666,2022-07-06_09h25.39.075,Colour_Asymmetry_Pilot,2022.1.3,Win32,58.79931793,62c50e9c1127f2cd403a315f,0,85,85,95,1,fourthree,,,,,,,,,,,,,,,,,,,,,,,,,,,,,,,,,,,,,,,,,,,,,
,,,,,,5f04a16afdd4f90d36b2bee5,62c538d1e433860fd3c36666,2022-07-06_09h25.39.075,Colour_Asymmetry_Pilot,2022.1.3,Win32,58.79931793,62c50e9c1127f2cd403a315f,0,86,86,161,1,onethree,,,,,,,,,,,,,,,,,,,,,,,,,,,,,,,,,,,,,,,,,,,,,
,,,,,,5f04a16afdd4f90d36b2bee5,62c538d1e433860fd3c36666,2022-07-06_09h25.39.075,Colour_Asymmetry_Pilot,2022.1.3,Win32,58.79931793,62c50e9c1127f2cd403a315f,0,87,87,15,1,fourthree,,,,,,,,,,,,,,,,,,,,,,,,,,,,,,,,,,,,,,,,,,,,,
,,,,,,5f04a16afdd4f90d36b2bee5,62c538d1e433860fd3c36666,2022-07-06_09h25.39.075,Colour_Asymmetry_Pilot,2022.1.3,Win32,58.79931793,62c50e9c1127f2cd403a315f,0,88,88,40,1,onetwo,,,,,,,,,,,,,,,,,,,,,,,,,,,,,,,,,,,,,,,,,,,,,
,,,,,,5f04a16afdd4f90d36b2bee5,62c538d1e433860fd3c36666,2022-07-06_09h25.39.075,Colour_Asymmetry_Pilot,2022.1.3,Win32,58.79931793,62c50e9c1127f2cd403a315f,0,89,89,16,1,onetwo,,,,,,,,,,,,,,,,,,,,,,,,,,,,,,,,,,,,,,,,,,,,,
,,,,,,5f04a16afdd4f90d36b2bee5,62c538d1e433860fd3c36666,2022-07-06_09h25.39.075,Colour_Asymmetry_Pilot,2022.1.3,Win32,58.79931793,62c50e9c1127f2cd403a315f,0,90,90,74,1,twoone,,,,,,,,,,,,,,,,,,,,,,,,,,,,,,,,,,,,,,,,,,,,,
,,,,,,5f04a16afdd4f90d36b2bee5,62c538d1e433860fd3c36666,2022-07-06_09h25.39.075,Colour_Asymmetry_Pilot,2022.1.3,Win32,58.79931793,62c50e9c1127f2cd403a315f,0,91,91,106,1,twoone,,,,,,,,,,,,,,,,,,,,,,,,,,,,,,,,,,,,,,,,,,,,,
,,,,,,5f04a16afdd4f90d36b2bee5,62c538d1e433860fd3c36666,2022-07-06_09h25.39.075,Colour_Asymmetry_Pilot,2022.1.3,Win32,58.79931793,62c50e9c1127f2cd403a315f,0,92,92,69,1,threefour,,,,,,,,,,,,,,,,,,,,,,,,,,,,,,,,,,,,,,,,,,,,,
,,,,,,5f04a16afdd4f90d36b2bee5,62c538d1e433860fd3c36666,2022-07-06_09h25.39.075,Colour_Asymmetry_Pilot,2022.1.3,Win32,58.79931793,62c50e9c1127f2cd403a315f,0,93,93,54,1,fourtwo,,,,,,,,,,,,,,,,,,,,,,,,,,,,,,,,,,,,,,,,,,,,,
,,,,,,5f04a16afdd4f90d36b2bee5,62c538d1e433860fd3c36666,2022-07-06_09h25.39.075,Colour_Asymmetry_Pilot,2022.1.3,Win32,58.79931793,62c50e9c1127f2cd403a315f,0,94,94,48,1,onetwo,,,,,,,,,,,,,,,,,,,,,,,,,,,,,,,,,,,,,,,,,,,,,
,,,,,,5f04a16afdd4f90d36b2bee5,62c538d1e433860fd3c36666,2022-07-06_09h25.39.075,Colour_Asymmetry_Pilot,2022.1.3,Win32,58.79931793,62c50e9c1127f2cd403a315f,0,95,95,43,1,twofour,,,,,,,,,,,,,,,,,,,,,,,,,,,,,,,,,,,,,,,,,,,,,
,,,,,,5f04a16afdd4f90d36b2bee5,62c538d1e433860fd3c36666,2022-07-06_09h25.39.075,Colour_Asymmetry_Pilot,2022.1.3,Win32,58.79931793,62c50e9c1127f2cd403a315f,0,96,96,93,1,threefour,,,,,,,,,,,,,,,,,,,,,,,,,,,,,,,,,,,,,,,,,,,,,
,,,,,,5f04a16afdd4f90d36b2bee5,62c538d1e433860fd3c36666,2022-07-06_09h25.39.075,Colour_Asymmetry_Pilot,2022.1.3,Win32,58.79931793,62c50e9c1127f2cd403a315f,0,97,97,1,1,onethree,,,,,,,,,,,,,,,,,,,,,,,,,,,,,,,,,,,,,,,,,,,,,
,,,,,,5f04a16afdd4f90d36b2bee5,62c538d1e433860fd3c36666,2022-07-06_09h25.39.075,Colour_Asymmetry_Pilot,2022.1.3,Win32,58.79931793,62c50e9c1127f2cd403a315f,0,98,98,120,1,onetwo,,,,,,,,,,,,,,,,,,,,,,,,,,,,,,,,,,,,,,,,,,,,,
,,,,,,5f04a16afdd4f90d36b2bee5,62c538d1e433860fd3c36666,2022-07-06_09h25.39.075,Colour_Asymmetry_Pilot,2022.1.3,Win32,58.79931793,62c50e9c1127f2cd403a315f,0,99,99,30,1,fourtwo,,,,,,,,,,,,,,,,,,,,,,,,,,,,,,,,,,,,,,,,,,,,,
,,,,,,5f04a16afdd4f90d36b2bee5,62c538d1e433860fd3c36666,2022-07-06_09h25.39.075,Colour_Asymmetry_Pilot,2022.1.3,Win32,58.79931793,62c50e9c1127f2cd403a315f,0,100,100,60,1,threeone,,,,,,,,,,,,,,,,,,,,,,,,,,,,,,,,,,,,,,,,,,,,,
,,,,,,5f04a16afdd4f90d36b2bee5,62c538d1e433860fd3c36666,2022-07-06_09h25.39.075,Colour_Asymmetry_Pilot,2022.1.3,Win32,58.79931793,62c50e9c1127f2cd403a315f,0,101,101,123,1,twofour,,,,,,,,,,,,,,,,,,,,,,,,,,,,,,,,,,,,,,,,,,,,,
,,,,,,5f04a16afdd4f90d36b2bee5,62c538d1e433860fd3c36666,2022-07-06_09h25.39.075,Colour_Asymmetry_Pilot,2022.1.3,Win32,58.79931793,62c50e9c1127f2cd403a315f,0,102,102,124,1,threeone,,,,,,,,,,,,,,,,,,,,,,,,,,,,,,,,,,,,,,,,,,,,,
,,,,,,5f04a16afdd4f90d36b2bee5,62c538d1e433860fd3c36666,2022-07-06_09h25.39.075,Colour_Asymmetry_Pilot,2022.1.3,Win32,58.79931793,62c50e9c1127f2cd403a315f,0,103,103,64,1,onetwo,,,,,,,,,,,,,,,,,,,,,,,,,,,,,,,,,,,,,,,,,,,,,
,,,,,,5f04a16afdd4f90d36b2bee5,62c538d1e433860fd3c36666,2022-07-06_09h25.39.075,Colour_Asymmetry_Pilot,2022.1.3,Win32,58.79931793,62c50e9c1127f2cd403a315f,0,104,104,89,1,onethree,,,,,,,,,,,,,,,,,,,,,,,,,,,,,,,,,,,,,,,,,,,,,
,,,,,,5f04a16afdd4f90d36b2bee5,62c538d1e433860fd3c36666,2022-07-06_09h25.39.075,Colour_Asymmetry_Pilot,2022.1.3,Win32,58.79931793,62c50e9c1127f2cd403a315f,0,105,105,126,1,fourtwo,,,,,,,,,,,,,,,,,,,,,,,,,,,,,,,,,,,,,,,,,,,,,
,,,,,,5f04a16afdd4f90d36b2bee5,62c538d1e433860fd3c36666,2022-07-06_09h25.39.075,Colour_Asymmetry_Pilot,2022.1.3,Win32,58.79931793,62c50e9c1127f2cd403a315f,0,106,106,109,1,threefour,,,,,,,,,,,,,,,,,,,,,,,,,,,,,,,,,,,,,,,,,,,,,
,,,,,,5f04a16afdd4f90d36b2bee5,62c538d1e433860fd3c36666,2022-07-06_09h25.39.075,Colour_Asymmetry_Pilot,2022.1.3,Win32,58.79931793,62c50e9c1127f2cd403a315f,0,107,107,55,1,fourthree,,,,,,,,,,,,,,,,,,,,,,,,,,,,,,,,,,,,,,,,,,,,,
,,,,,,5f04a16afdd4f90d36b2bee5,62c538d1e433860fd3c36666,2022-07-06_09h25.39.075,Colour_Asymmetry_Pilot,2022.1.3,Win32,58.79931793,62c50e9c1127f2cd403a315f,0,108,108,127,1,fourthree,,,,,,,,,,,,,,,,,,,,,,,,,,,,,,,,,,,,,,,,,,,,,
,,,,,,5f04a16afdd4f90d36b2bee5,62c538d1e433860fd3c36666,2022-07-06_09h25.39.075,Colour_Asymmetry_Pilot,2022.1.3,Win32,58.79931793,62c50e9c1127f2cd403a315f,0,109,109,10,1,twoone,,,,,,,,,,,,,,,,,,,,,,,,,,,,,,,,,,,,,,,,,,,,,
,,,,,,5f04a16afdd4f90d36b2bee5,62c538d1e433860fd3c36666,2022-07-06_09h25.39.075,Colour_Asymmetry_Pilot,2022.1.3,Win32,58.79931793,62c50e9c1127f2cd403a315f,0,110,110,88,1,onetwo,,,,,,,,,,,,,,,,,,,,,,,,,,,,,,,,,,,,,,,,,,,,,
,,,,,,5f04a16afdd4f90d36b2bee5,62c538d1e433860fd3c36666,2022-07-06_09h25.39.075,Colour_Asymmetry_Pilot,2022.1.3,Win32,58.79931793,62c50e9c1127f2cd403a315f,0,111,111,14,1,fourtwo,,,,,,,,,,,,,,,,,,,,,,,,,,,,,,,,,,,,,,,,,,,,,
,,,,,,5f04a16afdd4f90d36b2bee5,62c538d1e433860fd3c36666,2022-07-06_09h25.39.075,Colour_Asymmetry_Pilot,2022.1.3,Win32,58.79931793,62c50e9c1127f2cd403a315f,0,112,112,101,1,threefour,,,,,,,,,,,,,,,,,,,,,,,,,,,,,,,,,,,,,,,,,,,,,
,,,,,,5f04a16afdd4f90d36b2bee5,62c538d1e433860fd3c36666,2022-07-06_09h25.39.075,Colour_Asymmetry_Pilot,2022.1.3,Win32,58.79931793,62c50e9c1127f2cd403a315f,0,113,113,116,1,threeone,,,,,,,,,,,,,,,,,,,,,,,,,,,,,,,,,,,,,,,,,,,,,
,,,,,,5f04a16afdd4f90d36b2bee5,62c538d1e433860fd3c36666,2022-07-06_09h25.39.075,Colour_Asymmetry_Pilot,2022.1.3,Win32,58.79931793,62c50e9c1127f2cd403a315f,0,114,114,50,1,twoone,,,,,,,,,,,,,,,,,,,,,,,,,,,,,,,,,,,,,,,,,,,,,
,,,,,,5f04a16afdd4f90d36b2bee5,62c538d1e433860fd3c36666,2022-07-06_09h25.39.075,Colour_Asymmetry_Pilot,2022.1.3,Win32,58.79931793,62c50e9c1127f2cd403a315f,0,115,115,154,1,twoone,,,,,,,,,,,,,,,,,,,,,,,,,,,,,,,,,,,,,,,,,,,,,
,,,,,,5f04a16afdd4f90d36b2bee5,62c538d1e433860fd3c36666,2022-07-06_09h25.39.075,Colour_Asymmetry_Pilot,2022.1.3,Win32,58.79931793,62c50e9c1127f2cd403a315f,0,116,116,61,1,threefour,,,,,,,,,,,,,,,,,,,,,,,,,,,,,,,,,,,,,,,,,,,,,
,,,,,,5f04a16afdd4f90d36b2bee5,62c538d1e433860fd3c36666,2022-07-06_09h25.39.075,Colour_Asymmetry_Pilot,2022.1.3,Win32,58.79931793,62c50e9c1127f2cd403a315f,0,117,117,125,1,threefour,,,,,,,,,,,,,,,,,,,,,,,,,,,,,,,,,,,,,,,,,,,,,
,,,,,,5f04a16afdd4f90d36b2bee5,62c538d1e433860fd3c36666,2022-07-06_09h25.39.075,Colour_Asymmetry_Pilot,2022.1.3,Win32,58.79931793,62c50e9c1127f2cd403a315f,0,118,118,117,1,threefour,,,,,,,,,,,,,,,,,,,,,,,,,,,,,,,,,,,,,,,,,,,,,
,,,,,,5f04a16afdd4f90d36b2bee5,62c538d1e433860fd3c36666,2022-07-06_09h25.39.075,Colour_Asymmetry_Pilot,2022.1.3,Win32,58.79931793,62c50e9c1127f2cd403a315f,0,119,119,133,1,threefour,,,,,,,,,,,,,,,,,,,,,,,,,,,,,,,,,,,,,,,,,,,,,
,,,,,,5f04a16afdd4f90d36b2bee5,62c538d1e433860fd3c36666,2022-07-06_09h25.39.075,Colour_Asymmetry_Pilot,2022.1.3,Win32,58.79931793,62c50e9c1127f2cd403a315f,0,120,120,96,1,onetwo,,,,,,,,,,,,,,,,,,,,,,,,,,,,,,,,,,,,,,,,,,,,,
,,,,,,5f04a16afdd4f90d36b2bee5,62c538d1e433860fd3c36666,2022-07-06_09h25.39.075,Colour_Asymmetry_Pilot,2022.1.3,Win32,58.79931793,62c50e9c1127f2cd403a315f,0,121,121,80,1,onetwo,,,,,,,,,,,,,,,,,,,,,,,,,,,,,,,,,,,,,,,,,,,,,
,,,,,,5f04a16afdd4f90d36b2bee5,62c538d1e433860fd3c36666,2022-07-06_09h25.39.075,Colour_Asymmetry_Pilot,2022.1.3,Win32,58.79931793,62c50e9c1127f2cd403a315f,0,122,122,25,1,onethree,,,,,,,,,,,,,,,,,,,,,,,,,,,,,,,,,,,,,,,,,,,,,
,,,,,,5f04a16afdd4f90d36b2bee5,62c538d1e433860fd3c36666,2022-07-06_09h25.39.075,Colour_Asymmetry_Pilot,2022.1.3,Win32,58.79931793,62c50e9c1127f2cd403a315f,0,123,123,38,1,fourtwo,,,,,,,,,,,,,,,,,,,,,,,,,,,,,,,,,,,,,,,,,,,,,
,,,,,,5f04a16afdd4f90d36b2bee5,62c538d1e433860fd3c36666,2022-07-06_09h25.39.075,Colour_Asymmetry_Pilot,2022.1.3,Win32,58.79931793,62c50e9c1127f2cd403a315f,0,124,124,155,1,twofour,,,,,,,,,,,,,,,,,,,,,,,,,,,,,,,,,,,,,,,,,,,,,
,,,,,,5f04a16afdd4f90d36b2bee5,62c538d1e433860fd3c36666,2022-07-06_09h25.39.075,Colour_Asymmetry_Pilot,2022.1.3,Win32,58.79931793,62c50e9c1127f2cd403a315f,0,125,125,27,1,twofour,,,,,,,,,,,,,,,,,,,,,,,,,,,,,,,,,,,,,,,,,,,,,
,,,,,,5f04a16afdd4f90d36b2bee5,62c538d1e433860fd3c36666,2022-07-06_09h25.39.075,Colour_Asymmetry_Pilot,2022.1.3,Win32,58.79931793,62c50e9c1127f2cd403a315f,0,126,126,71,1,fourthree,,,,,,,,,,,,,,,,,,,,,,,,,,,,,,,,,,,,,,,,,,,,,
,,,,,,5f04a16afdd4f90d36b2bee5,62c538d1e433860fd3c36666,2022-07-06_09h25.39.075,Colour_Asymmetry_Pilot,2022.1.3,Win32,58.79931793,62c50e9c1127f2cd403a315f,0,127,127,7,1,fourthree,,,,,,,,,,,,,,,,,,,,,,,,,,,,,,,,,,,,,,,,,,,,,
,,,,,,5f04a16afdd4f90d36b2bee5,62c538d1e433860fd3c36666,2022-07-06_09h25.39.075,Colour_Asymmetry_Pilot,2022.1.3,Win32,58.79931793,62c50e9c1127f2cd403a315f,0,128,128,44,1,threeone,,,,,,,,,,,,,,,,,,,,,,,,,,,,,,,,,,,,,,,,,,,,,
,,,,,,5f04a16afdd4f90d36b2bee5,62c538d1e433860fd3c36666,2022-07-06_09h25.39.075,Colour_Asymmetry_Pilot,2022.1.3,Win32,58.79931793,62c50e9c1127f2cd403a315f,0,129,129,100,1,threeone,,,,,,,,,,,,,,,,,,,,,,,,,,,,,,,,,,,,,,,,,,,,,
,,,,,,5f04a16afdd4f90d36b2bee5,62c538d1e433860fd3c36666,2022-07-06_09h25.39.075,Colour_Asymmetry_Pilot,2022.1.3,Win32,58.79931793,62c50e9c1127f2cd403a315f,0,130,130,114,1,twoone,,,,,,,,,,,,,,,,,,,,,,,,,,,,,,,,,,,,,,,,,,,,,
,,,,,,5f04a16afdd4f90d36b2bee5,62c538d1e433860fd3c36666,2022-07-06_09h25.39.075,Colour_Asymmetry_Pilot,2022.1.3,Win32,58.79931793,62c50e9c1127f2cd403a315f,0,131,131,70,1,fourtwo,,,,,,,,,,,,,,,,,,,,,,,,,,,,,,,,,,,,,,,,,,,,,
,,,,,,5f04a16afdd4f90d36b2bee5,62c538d1e433860fd3c36666,2022-07-06_09h25.39.075,Colour_Asymmetry_Pilot,2022.1.3,Win32,58.79931793,62c50e9c1127f2cd403a315f,0,132,132,121,1,onethree,,,,,,,,,,,,,,,,,,,,,,,,,,,,,,,,,,,,,,,,,,,,,
,,,,,,5f04a16afdd4f90d36b2bee5,62c538d1e433860fd3c36666,2022-07-06_09h25.39.075,Colour_Asymmetry_Pilot,2022.1.3,Win32,58.79931793,62c50e9c1127f2cd403a315f,0,133,133,63,1,fourthree,,,,,,,,,,,,,,,,,,,,,,,,,,,,,,,,,,,,,,,,,,,,,
,,,,,,5f04a16afdd4f90d36b2bee5,62c538d1e433860fd3c36666,2022-07-06_09h25.39.075,Colour_Asymmetry_Pilot,2022.1.3,Win32,58.79931793,62c50e9c1127f2cd403a315f,0,134,134,79,1,fourthree,,,,,,,,,,,,,,,,,,,,,,,,,,,,,,,,,,,,,,,,,,,,,
,,,,,,5f04a16afdd4f90d36b2bee5,62c538d1e433860fd3c36666,2022-07-06_09h25.39.075,Colour_Asymmetry_Pilot,2022.1.3,Win32,58.79931793,62c50e9c1127f2cd403a315f,0,135,135,153,1,onethree,,,,,,,,,,,,,,,,,,,,,,,,,,,,,,,,,,,,,,,,,,,,,
,,,,,,5f04a16afdd4f90d36b2bee5,62c538d1e433860fd3c36666,2022-07-06_09h25.39.075,Colour_Asymmetry_Pilot,2022.1.3,Win32,58.79931793,62c50e9c1127f2cd403a315f,0,136,136,113,1,onethree,,,,,,,,,,,,,,,,,,,,,,,,,,,,,,,,,,,,,,,,,,,,,
,,,,,,5f04a16afdd4f90d36b2bee5,62c538d1e433860fd3c36666,2022-07-06_09h25.39.075,Colour_Asymmetry_Pilot,2022.1.3,Win32,58.79931793,62c50e9c1127f2cd403a315f,0,137,137,97,1,onethree,,,,,,,,,,,,,,,,,,,,,,,,,,,,,,,,,,,,,,,,,,,,,
,,,,,,5f04a16afdd4f90d36b2bee5,62c538d1e433860fd3c36666,2022-07-06_09h25.39.075,Colour_Asymmetry_Pilot,2022.1.3,Win32,58.79931793,62c50e9c1127f2cd403a315f,0,138,138,99,1,twofour,,,,,,,,,,,,,,,,,,,,,,,,,,,,,,,,,,,,,,,,,,,,,
,,,,,,5f04a16afdd4f90d36b2bee5,62c538d1e433860fd3c36666,2022-07-06_09h25.39.075,Colour_Asymmetry_Pilot,2022.1.3,Win32,58.79931793,62c50e9c1127f2cd403a315f,0,139,139,98,1,twoone,,,,,,,,,,,,,,,,,,,,,,,,,,,,,,,,,,,,,,,,,,,,,
,,,,,,5f04a16afdd4f90d36b2bee5,62c538d1e433860fd3c36666,2022-07-06_09h25.39.075,Colour_Asymmetry_Pilot,2022.1.3,Win32,58.79931793,62c50e9c1127f2cd403a315f,0,140,140,132,1,threeone,,,,,,,,,,,,,,,,,,,,,,,,,,,,,,,,,,,,,,,,,,,,,
,,,,,,5f04a16afdd4f90d36b2bee5,62c538d1e433860fd3c36666,2022-07-06_09h25.39.075,Colour_Asymmetry_Pilot,2022.1.3,Win32,58.79931793,62c50e9c1127f2cd403a315f,0,141,141,76,1,threeone,,,,,,,,,,,,,,,,,,,,,,,,,,,,,,,,,,,,,,,,,,,,,
,,,,,,5f04a16afdd4f90d36b2bee5,62c538d1e433860fd3c36666,2022-07-06_09h25.39.075,Colour_Asymmetry_Pilot,2022.1.3,Win32,58.79931793,62c50e9c1127f2cd403a315f,0,142,142,32,1,onetwo,,,,,,,,,,,,,,,,,,,,,,,,,,,,,,,,,,,,,,,,,,,,,
,,,,,,5f04a16afdd4f90d36b2bee5,62c538d1e433860fd3c36666,2022-07-06_09h25.39.075,Colour_Asymmetry_Pilot,2022.1.3,Win32,58.79931793,62c50e9c1127f2cd403a315f,0,143,143,0,1,onetwo,,,,,,,,,,,,,,,,,,,,,,,,,,,,,,,,,,,,,,,,,,,,,
,,,,,,5f04a16afdd4f90d36b2bee5,62c538d1e433860fd3c36666,2022-07-06_09h25.39.075,Colour_Asymmetry_Pilot,2022.1.3,Win32,58.79931793,62c50e9c1127f2cd403a315f,0,144,144,45,1,threefour,,,,,,,,,,,,,,,,,,,,,,,,,,,,,,,,,,,,,,,,,,,,,
,,,,,,5f04a16afdd4f90d36b2bee5,62c538d1e433860fd3c36666,2022-07-06_09h25.39.075,Colour_Asymmetry_Pilot,2022.1.3,Win32,58.79931793,62c50e9c1127f2cd403a315f,0,145,145,11,1,twofour,,,,,,,,,,,,,,,,,,,,,,,,,,,,,,,,,,,,,,,,,,,,,
,,,,,,5f04a16afdd4f90d36b2bee5,62c538d1e433860fd3c36666,2022-07-06_09h25.39.075,Colour_Asymmetry_Pilot,2022.1.3,Win32,58.79931793,62c50e9c1127f2cd403a315f,0,146,146,108,1,threeone,,,,,,,,,,,,,,,,,,,,,,,,,,,,,,,,,,,,,,,,,,,,,
,,,,,,5f04a16afdd4f90d36b2bee5,62c538d1e433860fd3c36666,2022-07-06_09h25.39.075,Colour_Asymmetry_Pilot,2022.1.3,Win32,58.79931793,62c50e9c1127f2cd403a315f,0,147,147,8,1,onetwo,,,,,,,,,,,,,,,,,,,,,,,,,,,,,,,,,,,,,,,,,,,,,
,,,,,,5f04a16afdd4f90d36b2bee5,62c538d1e433860fd3c36666,2022-07-06_09h25.39.075,Colour_Asymmetry_Pilot,2022.1.3,Win32,58.79931793,62c50e9c1127f2cd403a315f,0,148,148,20,1,threeone,,,,,,,,,,,,,,,,,,,,,,,,,,,,,,,,,,,,,,,,,,,,,
,,,,,,5f04a16afdd4f90d36b2bee5,62c538d1e433860fd3c36666,2022-07-06_09h25.39.075,Colour_Asymmetry_Pilot,2022.1.3,Win32,58.79931793,62c50e9c1127f2cd403a315f,0,149,149,118,1,fourtwo,,,,,,,,,,,,,,,,,,,,,,,,,,,,,,,,,,,,,,,,,,,,,
,,,,,,5f04a16afdd4f90d36b2bee5,62c538d1e433860fd3c36666,2022-07-06_09h25.39.075,Colour_Asymmetry_Pilot,2022.1.3,Win32,58.79931793,62c50e9c1127f2cd403a315f,0,150,150,28,1,threeone,,,,,,,,,,,,,,,,,,,,,,,,,,,,,,,,,,,,,,,,,,,,,
,,,,,,5f04a16afdd4f90d36b2bee5,62c538d1e433860fd3c36666,2022-07-06_09h25.39.075,Colour_Asymmetry_Pilot,2022.1.3,Win32,58.79931793,62c50e9c1127f2cd403a315f,0,151,151,105,1,onethree,,,,,,,,,,,,,,,,,,,,,,,,,,,,,,,,,,,,,,,,,,,,,
,,,,,,5f04a16afdd4f90d36b2bee5,62c538d1e433860fd3c36666,2022-07-06_09h25.39.075,Colour_Asymmetry_Pilot,2022.1.3,Win32,58.79931793,62c50e9c1127f2cd403a315f,0,152,152,34,1,twoone,,,,,,,,,,,,,,,,,,,,,,,,,,,,,,,,,,,,,,,,,,,,,
,,,,,,5f04a16afdd4f90d36b2bee5,62c538d1e433860fd3c36666,2022-07-06_09h25.39.075,Colour_Asymmetry_Pilot,2022.1.3,Win32,58.79931793,62c50e9c1127f2cd403a315f,0,153,153,147,1,twofour,,,,,,,,,,,,,,,,,,,,,,,,,,,,,,,,,,,,,,,,,,,,,
,,,,,,5f04a16afdd4f90d36b2bee5,62c538d1e433860fd3c36666,2022-07-06_09h25.39.075,Colour_Asymmetry_Pilot,2022.1.3,Win32,58.79931793,62c50e9c1127f2cd403a315f,0,154,154,47,1,fourthree,,,,,,,,,,,,,,,,,,,,,,,,,,,,,,,,,,,,,,,,,,,,,
,,,,,,5f04a16afdd4f90d36b2bee5,62c538d1e433860fd3c36666,2022-07-06_09h25.39.075,Colour_Asymmetry_Pilot,2022.1.3,Win32,58.79931793,62c50e9c1127f2cd403a315f,0,155,155,128,1,onetwo,,,,,,,,,,,,,,,,,,,,,,,,,,,,,,,,,,,,,,,,,,,,,
,,,,,,5f04a16afdd4f90d36b2bee5,62c538d1e433860fd3c36666,2022-07-06_09h25.39.075,Colour_Asymmetry_Pilot,2022.1.3,Win32,58.79931793,62c50e9c1127f2cd403a315f,0,156,156,36,1,threeone,,,,,,,,,,,,,,,,,,,,,,,,,,,,,,,,,,,,,,,,,,,,,
,,,,,,5f04a16afdd4f90d36b2bee5,62c538d1e433860fd3c36666,2022-07-06_09h25.39.075,Colour_Asymmetry_Pilot,2022.1.3,Win32,58.79931793,62c50e9c1127f2cd403a315f,0,157,157,78,1,fourtwo,,,,,,,,,,,,,,,,,,,,,,,,,,,,,,,,,,,,,,,,,,,,,
,,,,,,5f04a16afdd4f90d36b2bee5,62c538d1e433860fd3c36666,2022-07-06_09h25.39.075,Colour_Asymmetry_Pilot,2022.1.3,Win32,58.79931793,62c50e9c1127f2cd403a315f,0,158,158,22,1,fourtwo,,,,,,,,,,,,,,,,,,,,,,,,,,,,,,,,,,,,,,,,,,,,,
,,,,,,5f04a16afdd4f90d36b2bee5,62c538d1e433860fd3c36666,2022-07-06_09h25.39.075,Colour_Asymmetry_Pilot,2022.1.3,Win32,58.79931793,62c50e9c1127f2cd403a315f,0,159,159,151,1,fourthree,,,,,,,,,,,,,,,,,,,,,,,,,,,,,,,,,,,,,,,,,,,,,
,,,,,,5f04a16afdd4f90d36b2bee5,62c538d1e433860fd3c36666,2022-07-06_09h25.39.075,Colour_Asymmetry_Pilot,2022.1.3,Win32,58.79931793,62c50e9c1127f2cd403a315f,0,160,160,72,1,onetwo,,,,,,,,,,,,,,,,,,,,,,,,,,,,,,,,,,,,,,,,,,,,,
,,,,,,5f04a16afdd4f90d36b2bee5,62c538d1e433860fd3c36666,2022-07-06_09h25.39.075,Colour_Asymmetry_Pilot,2022.1.3,Win32,58.79931793,62c50e9c1127f2cd403a315f,0,161,161,18,1,twoone,,,,,,,,,,,,,,,,,,,,,,,,,,,,,,,,,,,,,,,,,,,,,
,,,,,,5f04a16afdd4f90d36b2bee5,62c538d1e433860fd3c36666,2022-07-06_09h25.39.075,Colour_Asymmetry_Pilot,2022.1.3,Win32,58.79931793,62c50e9c1127f2cd403a315f,,,,,,,space,2.665945,space,4.85886,space,35.20918,space,6.169575,space,1.55411,space,3.45979,"[0.7018,0.7176,0.6155999999999999]",fourtwo,"[-0.4746,-0.0354000000000001,0.5449999999999999]",-4,7.241415,-62,112.5,1,0,0,response7disk_5,13,-2.5,1,0,0,rectangle_8,13,-2.5,1,0,0,2,13,-2.5,1,0,0,0,0,0,0,1
