trials.thisRepN,trials.thisTrialN,trials.thisN,trials.thisIndex,trials.ran,Colourcodes,participant,session,date,expName,psychopyVersion,OS,frameRate,study_id,trials_4.thisRepN,trials_4.thisTrialN,trials_4.thisN,trials_4.thisIndex,trials_4.ran,StimulusPos
0,0,0,84,1,,611d02e1074f8ebf85ea0ac8,62c539f0cfff8ef2daef82d5,2022-07-06_09h30.57.225,Colour_Asymmetry_Pilot,2022.1.3,Linux armv7l,20.02282602,62c50e9c1127f2cd403a315f,,,,,,
0,1,1,24,1,,611d02e1074f8ebf85ea0ac8,62c539f0cfff8ef2daef82d5,2022-07-06_09h30.57.225,Colour_Asymmetry_Pilot,2022.1.3,Linux armv7l,20.02282602,62c50e9c1127f2cd403a315f,,,,,,
0,2,2,46,1,,611d02e1074f8ebf85ea0ac8,62c539f0cfff8ef2daef82d5,2022-07-06_09h30.57.225,Colour_Asymmetry_Pilot,2022.1.3,Linux armv7l,20.02282602,62c50e9c1127f2cd403a315f,,,,,,
0,3,3,77,1,,611d02e1074f8ebf85ea0ac8,62c539f0cfff8ef2daef82d5,2022-07-06_09h30.57.225,Colour_Asymmetry_Pilot,2022.1.3,Linux armv7l,20.02282602,62c50e9c1127f2cd403a315f,,,,,,
0,4,4,59,1,,611d02e1074f8ebf85ea0ac8,62c539f0cfff8ef2daef82d5,2022-07-06_09h30.57.225,Colour_Asymmetry_Pilot,2022.1.3,Linux armv7l,20.02282602,62c50e9c1127f2cd403a315f,,,,,,
0,5,5,91,1,,611d02e1074f8ebf85ea0ac8,62c539f0cfff8ef2daef82d5,2022-07-06_09h30.57.225,Colour_Asymmetry_Pilot,2022.1.3,Linux armv7l,20.02282602,62c50e9c1127f2cd403a315f,,,,,,
0,6,6,12,1,,611d02e1074f8ebf85ea0ac8,62c539f0cfff8ef2daef82d5,2022-07-06_09h30.57.225,Colour_Asymmetry_Pilot,2022.1.3,Linux armv7l,20.02282602,62c50e9c1127f2cd403a315f,,,,,,
0,7,7,41,1,,611d02e1074f8ebf85ea0ac8,62c539f0cfff8ef2daef82d5,2022-07-06_09h30.57.225,Colour_Asymmetry_Pilot,2022.1.3,Linux armv7l,20.02282602,62c50e9c1127f2cd403a315f,,,,,,
0,8,8,23,1,,611d02e1074f8ebf85ea0ac8,62c539f0cfff8ef2daef82d5,2022-07-06_09h30.57.225,Colour_Asymmetry_Pilot,2022.1.3,Linux armv7l,20.02282602,62c50e9c1127f2cd403a315f,,,,,,
0,9,9,63,1,,611d02e1074f8ebf85ea0ac8,62c539f0cfff8ef2daef82d5,2022-07-06_09h30.57.225,Colour_Asymmetry_Pilot,2022.1.3,Linux armv7l,20.02282602,62c50e9c1127f2cd403a315f,,,,,,
0,10,10,40,1,,611d02e1074f8ebf85ea0ac8,62c539f0cfff8ef2daef82d5,2022-07-06_09h30.57.225,Colour_Asymmetry_Pilot,2022.1.3,Linux armv7l,20.02282602,62c50e9c1127f2cd403a315f,,,,,,
0,11,11,34,1,,611d02e1074f8ebf85ea0ac8,62c539f0cfff8ef2daef82d5,2022-07-06_09h30.57.225,Colour_Asymmetry_Pilot,2022.1.3,Linux armv7l,20.02282602,62c50e9c1127f2cd403a315f,,,,,,
0,12,12,3,1,,611d02e1074f8ebf85ea0ac8,62c539f0cfff8ef2daef82d5,2022-07-06_09h30.57.225,Colour_Asymmetry_Pilot,2022.1.3,Linux armv7l,20.02282602,62c50e9c1127f2cd403a315f,,,,,,
0,13,13,39,1,,611d02e1074f8ebf85ea0ac8,62c539f0cfff8ef2daef82d5,2022-07-06_09h30.57.225,Colour_Asymmetry_Pilot,2022.1.3,Linux armv7l,20.02282602,62c50e9c1127f2cd403a315f,,,,,,
0,14,14,7,1,,611d02e1074f8ebf85ea0ac8,62c539f0cfff8ef2daef82d5,2022-07-06_09h30.57.225,Colour_Asymmetry_Pilot,2022.1.3,Linux armv7l,20.02282602,62c50e9c1127f2cd403a315f,,,,,,
0,15,15,13,1,,611d02e1074f8ebf85ea0ac8,62c539f0cfff8ef2daef82d5,2022-07-06_09h30.57.225,Colour_Asymmetry_Pilot,2022.1.3,Linux armv7l,20.02282602,62c50e9c1127f2cd403a315f,,,,,,
0,16,16,79,1,,611d02e1074f8ebf85ea0ac8,62c539f0cfff8ef2daef82d5,2022-07-06_09h30.57.225,Colour_Asymmetry_Pilot,2022.1.3,Linux armv7l,20.02282602,62c50e9c1127f2cd403a315f,,,,,,
0,17,17,47,1,,611d02e1074f8ebf85ea0ac8,62c539f0cfff8ef2daef82d5,2022-07-06_09h30.57.225,Colour_Asymmetry_Pilot,2022.1.3,Linux armv7l,20.02282602,62c50e9c1127f2cd403a315f,,,,,,
0,18,18,92,1,,611d02e1074f8ebf85ea0ac8,62c539f0cfff8ef2daef82d5,2022-07-06_09h30.57.225,Colour_Asymmetry_Pilot,2022.1.3,Linux armv7l,20.02282602,62c50e9c1127f2cd403a315f,,,,,,
0,19,19,90,1,,611d02e1074f8ebf85ea0ac8,62c539f0cfff8ef2daef82d5,2022-07-06_09h30.57.225,Colour_Asymmetry_Pilot,2022.1.3,Linux armv7l,20.02282602,62c50e9c1127f2cd403a315f,,,,,,
0,20,20,83,1,,611d02e1074f8ebf85ea0ac8,62c539f0cfff8ef2daef82d5,2022-07-06_09h30.57.225,Colour_Asymmetry_Pilot,2022.1.3,Linux armv7l,20.02282602,62c50e9c1127f2cd403a315f,,,,,,
0,21,21,44,1,,611d02e1074f8ebf85ea0ac8,62c539f0cfff8ef2daef82d5,2022-07-06_09h30.57.225,Colour_Asymmetry_Pilot,2022.1.3,Linux armv7l,20.02282602,62c50e9c1127f2cd403a315f,,,,,,
0,22,22,82,1,,611d02e1074f8ebf85ea0ac8,62c539f0cfff8ef2daef82d5,2022-07-06_09h30.57.225,Colour_Asymmetry_Pilot,2022.1.3,Linux armv7l,20.02282602,62c50e9c1127f2cd403a315f,,,,,,
0,23,23,56,1,,611d02e1074f8ebf85ea0ac8,62c539f0cfff8ef2daef82d5,2022-07-06_09h30.57.225,Colour_Asymmetry_Pilot,2022.1.3,Linux armv7l,20.02282602,62c50e9c1127f2cd403a315f,,,,,,
0,24,24,17,1,,611d02e1074f8ebf85ea0ac8,62c539f0cfff8ef2daef82d5,2022-07-06_09h30.57.225,Colour_Asymmetry_Pilot,2022.1.3,Linux armv7l,20.02282602,62c50e9c1127f2cd403a315f,,,,,,
0,25,25,37,1,,611d02e1074f8ebf85ea0ac8,62c539f0cfff8ef2daef82d5,2022-07-06_09h30.57.225,Colour_Asymmetry_Pilot,2022.1.3,Linux armv7l,20.02282602,62c50e9c1127f2cd403a315f,,,,,,
0,26,26,22,1,,611d02e1074f8ebf85ea0ac8,62c539f0cfff8ef2daef82d5,2022-07-06_09h30.57.225,Colour_Asymmetry_Pilot,2022.1.3,Linux armv7l,20.02282602,62c50e9c1127f2cd403a315f,,,,,,
0,27,27,71,1,,611d02e1074f8ebf85ea0ac8,62c539f0cfff8ef2daef82d5,2022-07-06_09h30.57.225,Colour_Asymmetry_Pilot,2022.1.3,Linux armv7l,20.02282602,62c50e9c1127f2cd403a315f,,,,,,
0,28,28,32,1,,611d02e1074f8ebf85ea0ac8,62c539f0cfff8ef2daef82d5,2022-07-06_09h30.57.225,Colour_Asymmetry_Pilot,2022.1.3,Linux armv7l,20.02282602,62c50e9c1127f2cd403a315f,,,,,,
0,29,29,50,1,,611d02e1074f8ebf85ea0ac8,62c539f0cfff8ef2daef82d5,2022-07-06_09h30.57.225,Colour_Asymmetry_Pilot,2022.1.3,Linux armv7l,20.02282602,62c50e9c1127f2cd403a315f,,,,,,
0,30,30,35,1,,611d02e1074f8ebf85ea0ac8,62c539f0cfff8ef2daef82d5,2022-07-06_09h30.57.225,Colour_Asymmetry_Pilot,2022.1.3,Linux armv7l,20.02282602,62c50e9c1127f2cd403a315f,,,,,,
0,31,31,8,1,,611d02e1074f8ebf85ea0ac8,62c539f0cfff8ef2daef82d5,2022-07-06_09h30.57.225,Colour_Asymmetry_Pilot,2022.1.3,Linux armv7l,20.02282602,62c50e9c1127f2cd403a315f,,,,,,
0,32,32,81,1,,611d02e1074f8ebf85ea0ac8,62c539f0cfff8ef2daef82d5,2022-07-06_09h30.57.225,Colour_Asymmetry_Pilot,2022.1.3,Linux armv7l,20.02282602,62c50e9c1127f2cd403a315f,,,,,,
0,33,33,31,1,,611d02e1074f8ebf85ea0ac8,62c539f0cfff8ef2daef82d5,2022-07-06_09h30.57.225,Colour_Asymmetry_Pilot,2022.1.3,Linux armv7l,20.02282602,62c50e9c1127f2cd403a315f,,,,,,
0,34,34,9,1,,611d02e1074f8ebf85ea0ac8,62c539f0cfff8ef2daef82d5,2022-07-06_09h30.57.225,Colour_Asymmetry_Pilot,2022.1.3,Linux armv7l,20.02282602,62c50e9c1127f2cd403a315f,,,,,,
0,35,35,20,1,,611d02e1074f8ebf85ea0ac8,62c539f0cfff8ef2daef82d5,2022-07-06_09h30.57.225,Colour_Asymmetry_Pilot,2022.1.3,Linux armv7l,20.02282602,62c50e9c1127f2cd403a315f,,,,,,
0,36,36,4,1,,611d02e1074f8ebf85ea0ac8,62c539f0cfff8ef2daef82d5,2022-07-06_09h30.57.225,Colour_Asymmetry_Pilot,2022.1.3,Linux armv7l,20.02282602,62c50e9c1127f2cd403a315f,,,,,,
0,37,37,64,1,,611d02e1074f8ebf85ea0ac8,62c539f0cfff8ef2daef82d5,2022-07-06_09h30.57.225,Colour_Asymmetry_Pilot,2022.1.3,Linux armv7l,20.02282602,62c50e9c1127f2cd403a315f,,,,,,
0,38,38,28,1,,611d02e1074f8ebf85ea0ac8,62c539f0cfff8ef2daef82d5,2022-07-06_09h30.57.225,Colour_Asymmetry_Pilot,2022.1.3,Linux armv7l,20.02282602,62c50e9c1127f2cd403a315f,,,,,,
0,39,39,70,1,,611d02e1074f8ebf85ea0ac8,62c539f0cfff8ef2daef82d5,2022-07-06_09h30.57.225,Colour_Asymmetry_Pilot,2022.1.3,Linux armv7l,20.02282602,62c50e9c1127f2cd403a315f,,,,,,
0,40,40,21,1,,611d02e1074f8ebf85ea0ac8,62c539f0cfff8ef2daef82d5,2022-07-06_09h30.57.225,Colour_Asymmetry_Pilot,2022.1.3,Linux armv7l,20.02282602,62c50e9c1127f2cd403a315f,,,,,,
0,41,41,75,1,,611d02e1074f8ebf85ea0ac8,62c539f0cfff8ef2daef82d5,2022-07-06_09h30.57.225,Colour_Asymmetry_Pilot,2022.1.3,Linux armv7l,20.02282602,62c50e9c1127f2cd403a315f,,,,,,
0,42,42,61,1,,611d02e1074f8ebf85ea0ac8,62c539f0cfff8ef2daef82d5,2022-07-06_09h30.57.225,Colour_Asymmetry_Pilot,2022.1.3,Linux armv7l,20.02282602,62c50e9c1127f2cd403a315f,,,,,,
0,43,43,53,1,,611d02e1074f8ebf85ea0ac8,62c539f0cfff8ef2daef82d5,2022-07-06_09h30.57.225,Colour_Asymmetry_Pilot,2022.1.3,Linux armv7l,20.02282602,62c50e9c1127f2cd403a315f,,,,,,
0,44,44,43,1,,611d02e1074f8ebf85ea0ac8,62c539f0cfff8ef2daef82d5,2022-07-06_09h30.57.225,Colour_Asymmetry_Pilot,2022.1.3,Linux armv7l,20.02282602,62c50e9c1127f2cd403a315f,,,,,,
0,45,45,80,1,,611d02e1074f8ebf85ea0ac8,62c539f0cfff8ef2daef82d5,2022-07-06_09h30.57.225,Colour_Asymmetry_Pilot,2022.1.3,Linux armv7l,20.02282602,62c50e9c1127f2cd403a315f,,,,,,
0,46,46,72,1,,611d02e1074f8ebf85ea0ac8,62c539f0cfff8ef2daef82d5,2022-07-06_09h30.57.225,Colour_Asymmetry_Pilot,2022.1.3,Linux armv7l,20.02282602,62c50e9c1127f2cd403a315f,,,,,,
0,47,47,1,1,,611d02e1074f8ebf85ea0ac8,62c539f0cfff8ef2daef82d5,2022-07-06_09h30.57.225,Colour_Asymmetry_Pilot,2022.1.3,Linux armv7l,20.02282602,62c50e9c1127f2cd403a315f,,,,,,
0,48,48,62,1,,611d02e1074f8ebf85ea0ac8,62c539f0cfff8ef2daef82d5,2022-07-06_09h30.57.225,Colour_Asymmetry_Pilot,2022.1.3,Linux armv7l,20.02282602,62c50e9c1127f2cd403a315f,,,,,,
0,49,49,15,1,,611d02e1074f8ebf85ea0ac8,62c539f0cfff8ef2daef82d5,2022-07-06_09h30.57.225,Colour_Asymmetry_Pilot,2022.1.3,Linux armv7l,20.02282602,62c50e9c1127f2cd403a315f,,,,,,
0,50,50,57,1,,611d02e1074f8ebf85ea0ac8,62c539f0cfff8ef2daef82d5,2022-07-06_09h30.57.225,Colour_Asymmetry_Pilot,2022.1.3,Linux armv7l,20.02282602,62c50e9c1127f2cd403a315f,,,,,,
0,51,51,42,1,,611d02e1074f8ebf85ea0ac8,62c539f0cfff8ef2daef82d5,2022-07-06_09h30.57.225,Colour_Asymmetry_Pilot,2022.1.3,Linux armv7l,20.02282602,62c50e9c1127f2cd403a315f,,,,,,
0,52,52,74,1,,611d02e1074f8ebf85ea0ac8,62c539f0cfff8ef2daef82d5,2022-07-06_09h30.57.225,Colour_Asymmetry_Pilot,2022.1.3,Linux armv7l,20.02282602,62c50e9c1127f2cd403a315f,,,,,,
0,53,53,73,1,,611d02e1074f8ebf85ea0ac8,62c539f0cfff8ef2daef82d5,2022-07-06_09h30.57.225,Colour_Asymmetry_Pilot,2022.1.3,Linux armv7l,20.02282602,62c50e9c1127f2cd403a315f,,,,,,
0,54,54,68,1,,611d02e1074f8ebf85ea0ac8,62c539f0cfff8ef2daef82d5,2022-07-06_09h30.57.225,Colour_Asymmetry_Pilot,2022.1.3,Linux armv7l,20.02282602,62c50e9c1127f2cd403a315f,,,,,,
0,55,55,6,1,,611d02e1074f8ebf85ea0ac8,62c539f0cfff8ef2daef82d5,2022-07-06_09h30.57.225,Colour_Asymmetry_Pilot,2022.1.3,Linux armv7l,20.02282602,62c50e9c1127f2cd403a315f,,,,,,
0,56,56,65,1,,611d02e1074f8ebf85ea0ac8,62c539f0cfff8ef2daef82d5,2022-07-06_09h30.57.225,Colour_Asymmetry_Pilot,2022.1.3,Linux armv7l,20.02282602,62c50e9c1127f2cd403a315f,,,,,,
0,57,57,85,1,,611d02e1074f8ebf85ea0ac8,62c539f0cfff8ef2daef82d5,2022-07-06_09h30.57.225,Colour_Asymmetry_Pilot,2022.1.3,Linux armv7l,20.02282602,62c50e9c1127f2cd403a315f,,,,,,
0,58,58,38,1,,611d02e1074f8ebf85ea0ac8,62c539f0cfff8ef2daef82d5,2022-07-06_09h30.57.225,Colour_Asymmetry_Pilot,2022.1.3,Linux armv7l,20.02282602,62c50e9c1127f2cd403a315f,,,,,,
0,59,59,36,1,,611d02e1074f8ebf85ea0ac8,62c539f0cfff8ef2daef82d5,2022-07-06_09h30.57.225,Colour_Asymmetry_Pilot,2022.1.3,Linux armv7l,20.02282602,62c50e9c1127f2cd403a315f,,,,,,
0,60,60,49,1,,611d02e1074f8ebf85ea0ac8,62c539f0cfff8ef2daef82d5,2022-07-06_09h30.57.225,Colour_Asymmetry_Pilot,2022.1.3,Linux armv7l,20.02282602,62c50e9c1127f2cd403a315f,,,,,,
0,61,61,52,1,,611d02e1074f8ebf85ea0ac8,62c539f0cfff8ef2daef82d5,2022-07-06_09h30.57.225,Colour_Asymmetry_Pilot,2022.1.3,Linux armv7l,20.02282602,62c50e9c1127f2cd403a315f,,,,,,
0,62,62,76,1,,611d02e1074f8ebf85ea0ac8,62c539f0cfff8ef2daef82d5,2022-07-06_09h30.57.225,Colour_Asymmetry_Pilot,2022.1.3,Linux armv7l,20.02282602,62c50e9c1127f2cd403a315f,,,,,,
0,63,63,2,1,,611d02e1074f8ebf85ea0ac8,62c539f0cfff8ef2daef82d5,2022-07-06_09h30.57.225,Colour_Asymmetry_Pilot,2022.1.3,Linux armv7l,20.02282602,62c50e9c1127f2cd403a315f,,,,,,
0,64,64,5,1,,611d02e1074f8ebf85ea0ac8,62c539f0cfff8ef2daef82d5,2022-07-06_09h30.57.225,Colour_Asymmetry_Pilot,2022.1.3,Linux armv7l,20.02282602,62c50e9c1127f2cd403a315f,,,,,,
0,65,65,60,1,,611d02e1074f8ebf85ea0ac8,62c539f0cfff8ef2daef82d5,2022-07-06_09h30.57.225,Colour_Asymmetry_Pilot,2022.1.3,Linux armv7l,20.02282602,62c50e9c1127f2cd403a315f,,,,,,
0,66,66,26,1,,611d02e1074f8ebf85ea0ac8,62c539f0cfff8ef2daef82d5,2022-07-06_09h30.57.225,Colour_Asymmetry_Pilot,2022.1.3,Linux armv7l,20.02282602,62c50e9c1127f2cd403a315f,,,,,,
0,67,67,19,1,,611d02e1074f8ebf85ea0ac8,62c539f0cfff8ef2daef82d5,2022-07-06_09h30.57.225,Colour_Asymmetry_Pilot,2022.1.3,Linux armv7l,20.02282602,62c50e9c1127f2cd403a315f,,,,,,
0,68,68,0,1,,611d02e1074f8ebf85ea0ac8,62c539f0cfff8ef2daef82d5,2022-07-06_09h30.57.225,Colour_Asymmetry_Pilot,2022.1.3,Linux armv7l,20.02282602,62c50e9c1127f2cd403a315f,,,,,,
0,69,69,10,1,,611d02e1074f8ebf85ea0ac8,62c539f0cfff8ef2daef82d5,2022-07-06_09h30.57.225,Colour_Asymmetry_Pilot,2022.1.3,Linux armv7l,20.02282602,62c50e9c1127f2cd403a315f,,,,,,
0,70,70,27,1,,611d02e1074f8ebf85ea0ac8,62c539f0cfff8ef2daef82d5,2022-07-06_09h30.57.225,Colour_Asymmetry_Pilot,2022.1.3,Linux armv7l,20.02282602,62c50e9c1127f2cd403a315f,,,,,,
0,71,71,67,1,,611d02e1074f8ebf85ea0ac8,62c539f0cfff8ef2daef82d5,2022-07-06_09h30.57.225,Colour_Asymmetry_Pilot,2022.1.3,Linux armv7l,20.02282602,62c50e9c1127f2cd403a315f,,,,,,
0,72,72,29,1,,611d02e1074f8ebf85ea0ac8,62c539f0cfff8ef2daef82d5,2022-07-06_09h30.57.225,Colour_Asymmetry_Pilot,2022.1.3,Linux armv7l,20.02282602,62c50e9c1127f2cd403a315f,,,,,,
0,73,73,14,1,,611d02e1074f8ebf85ea0ac8,62c539f0cfff8ef2daef82d5,2022-07-06_09h30.57.225,Colour_Asymmetry_Pilot,2022.1.3,Linux armv7l,20.02282602,62c50e9c1127f2cd403a315f,,,,,,
0,74,74,16,1,,611d02e1074f8ebf85ea0ac8,62c539f0cfff8ef2daef82d5,2022-07-06_09h30.57.225,Colour_Asymmetry_Pilot,2022.1.3,Linux armv7l,20.02282602,62c50e9c1127f2cd403a315f,,,,,,
0,75,75,87,1,,611d02e1074f8ebf85ea0ac8,62c539f0cfff8ef2daef82d5,2022-07-06_09h30.57.225,Colour_Asymmetry_Pilot,2022.1.3,Linux armv7l,20.02282602,62c50e9c1127f2cd403a315f,,,,,,
0,76,76,54,1,,611d02e1074f8ebf85ea0ac8,62c539f0cfff8ef2daef82d5,2022-07-06_09h30.57.225,Colour_Asymmetry_Pilot,2022.1.3,Linux armv7l,20.02282602,62c50e9c1127f2cd403a315f,,,,,,
0,77,77,66,1,,611d02e1074f8ebf85ea0ac8,62c539f0cfff8ef2daef82d5,2022-07-06_09h30.57.225,Colour_Asymmetry_Pilot,2022.1.3,Linux armv7l,20.02282602,62c50e9c1127f2cd403a315f,,,,,,
0,78,78,55,1,,611d02e1074f8ebf85ea0ac8,62c539f0cfff8ef2daef82d5,2022-07-06_09h30.57.225,Colour_Asymmetry_Pilot,2022.1.3,Linux armv7l,20.02282602,62c50e9c1127f2cd403a315f,,,,,,
0,79,79,45,1,,611d02e1074f8ebf85ea0ac8,62c539f0cfff8ef2daef82d5,2022-07-06_09h30.57.225,Colour_Asymmetry_Pilot,2022.1.3,Linux armv7l,20.02282602,62c50e9c1127f2cd403a315f,,,,,,
0,80,80,88,1,,611d02e1074f8ebf85ea0ac8,62c539f0cfff8ef2daef82d5,2022-07-06_09h30.57.225,Colour_Asymmetry_Pilot,2022.1.3,Linux armv7l,20.02282602,62c50e9c1127f2cd403a315f,,,,,,
0,81,81,30,1,,611d02e1074f8ebf85ea0ac8,62c539f0cfff8ef2daef82d5,2022-07-06_09h30.57.225,Colour_Asymmetry_Pilot,2022.1.3,Linux armv7l,20.02282602,62c50e9c1127f2cd403a315f,,,,,,
0,82,82,69,1,,611d02e1074f8ebf85ea0ac8,62c539f0cfff8ef2daef82d5,2022-07-06_09h30.57.225,Colour_Asymmetry_Pilot,2022.1.3,Linux armv7l,20.02282602,62c50e9c1127f2cd403a315f,,,,,,
0,83,83,58,1,,611d02e1074f8ebf85ea0ac8,62c539f0cfff8ef2daef82d5,2022-07-06_09h30.57.225,Colour_Asymmetry_Pilot,2022.1.3,Linux armv7l,20.02282602,62c50e9c1127f2cd403a315f,,,,,,
0,84,84,18,1,,611d02e1074f8ebf85ea0ac8,62c539f0cfff8ef2daef82d5,2022-07-06_09h30.57.225,Colour_Asymmetry_Pilot,2022.1.3,Linux armv7l,20.02282602,62c50e9c1127f2cd403a315f,,,,,,
0,85,85,48,1,,611d02e1074f8ebf85ea0ac8,62c539f0cfff8ef2daef82d5,2022-07-06_09h30.57.225,Colour_Asymmetry_Pilot,2022.1.3,Linux armv7l,20.02282602,62c50e9c1127f2cd403a315f,,,,,,
0,86,86,86,1,,611d02e1074f8ebf85ea0ac8,62c539f0cfff8ef2daef82d5,2022-07-06_09h30.57.225,Colour_Asymmetry_Pilot,2022.1.3,Linux armv7l,20.02282602,62c50e9c1127f2cd403a315f,,,,,,
0,87,87,25,1,,611d02e1074f8ebf85ea0ac8,62c539f0cfff8ef2daef82d5,2022-07-06_09h30.57.225,Colour_Asymmetry_Pilot,2022.1.3,Linux armv7l,20.02282602,62c50e9c1127f2cd403a315f,,,,,,
0,88,88,33,1,,611d02e1074f8ebf85ea0ac8,62c539f0cfff8ef2daef82d5,2022-07-06_09h30.57.225,Colour_Asymmetry_Pilot,2022.1.3,Linux armv7l,20.02282602,62c50e9c1127f2cd403a315f,,,,,,
0,89,89,51,1,,611d02e1074f8ebf85ea0ac8,62c539f0cfff8ef2daef82d5,2022-07-06_09h30.57.225,Colour_Asymmetry_Pilot,2022.1.3,Linux armv7l,20.02282602,62c50e9c1127f2cd403a315f,,,,,,
0,90,90,11,1,,611d02e1074f8ebf85ea0ac8,62c539f0cfff8ef2daef82d5,2022-07-06_09h30.57.225,Colour_Asymmetry_Pilot,2022.1.3,Linux armv7l,20.02282602,62c50e9c1127f2cd403a315f,,,,,,
0,91,91,78,1,,611d02e1074f8ebf85ea0ac8,62c539f0cfff8ef2daef82d5,2022-07-06_09h30.57.225,Colour_Asymmetry_Pilot,2022.1.3,Linux armv7l,20.02282602,62c50e9c1127f2cd403a315f,,,,,,
0,92,92,89,1,,611d02e1074f8ebf85ea0ac8,62c539f0cfff8ef2daef82d5,2022-07-06_09h30.57.225,Colour_Asymmetry_Pilot,2022.1.3,Linux armv7l,20.02282602,62c50e9c1127f2cd403a315f,,,,,,
,,,,,,611d02e1074f8ebf85ea0ac8,62c539f0cfff8ef2daef82d5,2022-07-06_09h30.57.225,Colour_Asymmetry_Pilot,2022.1.3,Linux armv7l,20.02282602,62c50e9c1127f2cd403a315f,0,0,0,147,1,twofour
,,,,,,611d02e1074f8ebf85ea0ac8,62c539f0cfff8ef2daef82d5,2022-07-06_09h30.57.225,Colour_Asymmetry_Pilot,2022.1.3,Linux armv7l,20.02282602,62c50e9c1127f2cd403a315f,0,1,1,148,1,threeone
,,,,,,611d02e1074f8ebf85ea0ac8,62c539f0cfff8ef2daef82d5,2022-07-06_09h30.57.225,Colour_Asymmetry_Pilot,2022.1.3,Linux armv7l,20.02282602,62c50e9c1127f2cd403a315f,0,2,2,116,1,threeone
,,,,,,611d02e1074f8ebf85ea0ac8,62c539f0cfff8ef2daef82d5,2022-07-06_09h30.57.225,Colour_Asymmetry_Pilot,2022.1.3,Linux armv7l,20.02282602,62c50e9c1127f2cd403a315f,0,3,3,31,1,fourthree
,,,,,,611d02e1074f8ebf85ea0ac8,62c539f0cfff8ef2daef82d5,2022-07-06_09h30.57.225,Colour_Asymmetry_Pilot,2022.1.3,Linux armv7l,20.02282602,62c50e9c1127f2cd403a315f,0,4,4,15,1,fourthree
,,,,,,611d02e1074f8ebf85ea0ac8,62c539f0cfff8ef2daef82d5,2022-07-06_09h30.57.225,Colour_Asymmetry_Pilot,2022.1.3,Linux armv7l,20.02282602,62c50e9c1127f2cd403a315f,0,5,5,12,1,threeone
,,,,,,611d02e1074f8ebf85ea0ac8,62c539f0cfff8ef2daef82d5,2022-07-06_09h30.57.225,Colour_Asymmetry_Pilot,2022.1.3,Linux armv7l,20.02282602,62c50e9c1127f2cd403a315f,0,6,6,130,1,twoone
,,,,,,611d02e1074f8ebf85ea0ac8,62c539f0cfff8ef2daef82d5,2022-07-06_09h30.57.225,Colour_Asymmetry_Pilot,2022.1.3,Linux armv7l,20.02282602,62c50e9c1127f2cd403a315f,0,7,7,25,1,onethree
,,,,,,611d02e1074f8ebf85ea0ac8,62c539f0cfff8ef2daef82d5,2022-07-06_09h30.57.225,Colour_Asymmetry_Pilot,2022.1.3,Linux armv7l,20.02282602,62c50e9c1127f2cd403a315f,0,8,8,20,1,threeone
,,,,,,611d02e1074f8ebf85ea0ac8,62c539f0cfff8ef2daef82d5,2022-07-06_09h30.57.225,Colour_Asymmetry_Pilot,2022.1.3,Linux armv7l,20.02282602,62c50e9c1127f2cd403a315f,0,9,9,123,1,twofour
,,,,,,611d02e1074f8ebf85ea0ac8,62c539f0cfff8ef2daef82d5,2022-07-06_09h30.57.225,Colour_Asymmetry_Pilot,2022.1.3,Linux armv7l,20.02282602,62c50e9c1127f2cd403a315f,0,10,10,109,1,threefour
,,,,,,611d02e1074f8ebf85ea0ac8,62c539f0cfff8ef2daef82d5,2022-07-06_09h30.57.225,Colour_Asymmetry_Pilot,2022.1.3,Linux armv7l,20.02282602,62c50e9c1127f2cd403a315f,0,11,11,141,1,threefour
,,,,,,611d02e1074f8ebf85ea0ac8,62c539f0cfff8ef2daef82d5,2022-07-06_09h30.57.225,Colour_Asymmetry_Pilot,2022.1.3,Linux armv7l,20.02282602,62c50e9c1127f2cd403a315f,0,12,12,40,1,onetwo
,,,,,,611d02e1074f8ebf85ea0ac8,62c539f0cfff8ef2daef82d5,2022-07-06_09h30.57.225,Colour_Asymmetry_Pilot,2022.1.3,Linux armv7l,20.02282602,62c50e9c1127f2cd403a315f,0,13,13,72,1,onetwo
,,,,,,611d02e1074f8ebf85ea0ac8,62c539f0cfff8ef2daef82d5,2022-07-06_09h30.57.225,Colour_Asymmetry_Pilot,2022.1.3,Linux armv7l,20.02282602,62c50e9c1127f2cd403a315f,0,14,14,128,1,onetwo
,,,,,,611d02e1074f8ebf85ea0ac8,62c539f0cfff8ef2daef82d5,2022-07-06_09h30.57.225,Colour_Asymmetry_Pilot,2022.1.3,Linux armv7l,20.02282602,62c50e9c1127f2cd403a315f,0,15,15,73,1,onethree
,,,,,,611d02e1074f8ebf85ea0ac8,62c539f0cfff8ef2daef82d5,2022-07-06_09h30.57.225,Colour_Asymmetry_Pilot,2022.1.3,Linux armv7l,20.02282602,62c50e9c1127f2cd403a315f,0,16,16,62,1,fourtwo
,,,,,,611d02e1074f8ebf85ea0ac8,62c539f0cfff8ef2daef82d5,2022-07-06_09h30.57.225,Colour_Asymmetry_Pilot,2022.1.3,Linux armv7l,20.02282602,62c50e9c1127f2cd403a315f,0,17,17,60,1,threeone
,,,,,,611d02e1074f8ebf85ea0ac8,62c539f0cfff8ef2daef82d5,2022-07-06_09h30.57.225,Colour_Asymmetry_Pilot,2022.1.3,Linux armv7l,20.02282602,62c50e9c1127f2cd403a315f,0,18,18,95,1,fourthree
,,,,,,611d02e1074f8ebf85ea0ac8,62c539f0cfff8ef2daef82d5,2022-07-06_09h30.57.225,Colour_Asymmetry_Pilot,2022.1.3,Linux armv7l,20.02282602,62c50e9c1127f2cd403a315f,0,19,19,81,1,onethree
,,,,,,611d02e1074f8ebf85ea0ac8,62c539f0cfff8ef2daef82d5,2022-07-06_09h30.57.225,Colour_Asymmetry_Pilot,2022.1.3,Linux armv7l,20.02282602,62c50e9c1127f2cd403a315f,0,20,20,157,1,threefour
,,,,,,611d02e1074f8ebf85ea0ac8,62c539f0cfff8ef2daef82d5,2022-07-06_09h30.57.225,Colour_Asymmetry_Pilot,2022.1.3,Linux armv7l,20.02282602,62c50e9c1127f2cd403a315f,0,21,21,98,1,twoone
,,,,,,611d02e1074f8ebf85ea0ac8,62c539f0cfff8ef2daef82d5,2022-07-06_09h30.57.225,Colour_Asymmetry_Pilot,2022.1.3,Linux armv7l,20.02282602,62c50e9c1127f2cd403a315f,0,22,22,69,1,threefour
,,,,,,611d02e1074f8ebf85ea0ac8,62c539f0cfff8ef2daef82d5,2022-07-06_09h30.57.225,Colour_Asymmetry_Pilot,2022.1.3,Linux armv7l,20.02282602,62c50e9c1127f2cd403a315f,0,23,23,14,1,fourtwo
,,,,,,611d02e1074f8ebf85ea0ac8,62c539f0cfff8ef2daef82d5,2022-07-06_09h30.57.225,Colour_Asymmetry_Pilot,2022.1.3,Linux armv7l,20.02282602,62c50e9c1127f2cd403a315f,0,24,24,153,1,onethree
,,,,,,611d02e1074f8ebf85ea0ac8,62c539f0cfff8ef2daef82d5,2022-07-06_09h30.57.225,Colour_Asymmetry_Pilot,2022.1.3,Linux armv7l,20.02282602,62c50e9c1127f2cd403a315f,0,25,25,151,1,fourthree
,,,,,,611d02e1074f8ebf85ea0ac8,62c539f0cfff8ef2daef82d5,2022-07-06_09h30.57.225,Colour_Asymmetry_Pilot,2022.1.3,Linux armv7l,20.02282602,62c50e9c1127f2cd403a315f,0,26,26,0,1,onetwo
,,,,,,611d02e1074f8ebf85ea0ac8,62c539f0cfff8ef2daef82d5,2022-07-06_09h30.57.225,Colour_Asymmetry_Pilot,2022.1.3,Linux armv7l,20.02282602,62c50e9c1127f2cd403a315f,0,27,27,156,1,threeone
,,,,,,611d02e1074f8ebf85ea0ac8,62c539f0cfff8ef2daef82d5,2022-07-06_09h30.57.225,Colour_Asymmetry_Pilot,2022.1.3,Linux armv7l,20.02282602,62c50e9c1127f2cd403a315f,0,28,28,88,1,onetwo
,,,,,,611d02e1074f8ebf85ea0ac8,62c539f0cfff8ef2daef82d5,2022-07-06_09h30.57.225,Colour_Asymmetry_Pilot,2022.1.3,Linux armv7l,20.02282602,62c50e9c1127f2cd403a315f,0,29,29,82,1,twoone
,,,,,,611d02e1074f8ebf85ea0ac8,62c539f0cfff8ef2daef82d5,2022-07-06_09h30.57.225,Colour_Asymmetry_Pilot,2022.1.3,Linux armv7l,20.02282602,62c50e9c1127f2cd403a315f,0,30,30,118,1,fourtwo
,,,,,,611d02e1074f8ebf85ea0ac8,62c539f0cfff8ef2daef82d5,2022-07-06_09h30.57.225,Colour_Asymmetry_Pilot,2022.1.3,Linux armv7l,20.02282602,62c50e9c1127f2cd403a315f,0,31,31,57,1,onethree
,,,,,,611d02e1074f8ebf85ea0ac8,62c539f0cfff8ef2daef82d5,2022-07-06_09h30.57.225,Colour_Asymmetry_Pilot,2022.1.3,Linux armv7l,20.02282602,62c50e9c1127f2cd403a315f,0,32,32,75,1,twofour
,,,,,,611d02e1074f8ebf85ea0ac8,62c539f0cfff8ef2daef82d5,2022-07-06_09h30.57.225,Colour_Asymmetry_Pilot,2022.1.3,Linux armv7l,20.02282602,62c50e9c1127f2cd403a315f,0,33,33,42,1,twoone
,,,,,,611d02e1074f8ebf85ea0ac8,62c539f0cfff8ef2daef82d5,2022-07-06_09h30.57.225,Colour_Asymmetry_Pilot,2022.1.3,Linux armv7l,20.02282602,62c50e9c1127f2cd403a315f,0,34,34,119,1,fourthree
,,,,,,611d02e1074f8ebf85ea0ac8,62c539f0cfff8ef2daef82d5,2022-07-06_09h30.57.225,Colour_Asymmetry_Pilot,2022.1.3,Linux armv7l,20.02282602,62c50e9c1127f2cd403a315f,0,35,35,44,1,threeone
,,,,,,611d02e1074f8ebf85ea0ac8,62c539f0cfff8ef2daef82d5,2022-07-06_09h30.57.225,Colour_Asymmetry_Pilot,2022.1.3,Linux armv7l,20.02282602,62c50e9c1127f2cd403a315f,0,36,36,152,1,onetwo
,,,,,,611d02e1074f8ebf85ea0ac8,62c539f0cfff8ef2daef82d5,2022-07-06_09h30.57.225,Colour_Asymmetry_Pilot,2022.1.3,Linux armv7l,20.02282602,62c50e9c1127f2cd403a315f,0,37,37,111,1,fourthree
,,,,,,611d02e1074f8ebf85ea0ac8,62c539f0cfff8ef2daef82d5,2022-07-06_09h30.57.225,Colour_Asymmetry_Pilot,2022.1.3,Linux armv7l,20.02282602,62c50e9c1127f2cd403a315f,0,38,38,32,1,onetwo
,,,,,,611d02e1074f8ebf85ea0ac8,62c539f0cfff8ef2daef82d5,2022-07-06_09h30.57.225,Colour_Asymmetry_Pilot,2022.1.3,Linux armv7l,20.02282602,62c50e9c1127f2cd403a315f,0,39,39,140,1,threeone
,,,,,,611d02e1074f8ebf85ea0ac8,62c539f0cfff8ef2daef82d5,2022-07-06_09h30.57.225,Colour_Asymmetry_Pilot,2022.1.3,Linux armv7l,20.02282602,62c50e9c1127f2cd403a315f,0,40,40,4,1,threeone
,,,,,,611d02e1074f8ebf85ea0ac8,62c539f0cfff8ef2daef82d5,2022-07-06_09h30.57.225,Colour_Asymmetry_Pilot,2022.1.3,Linux armv7l,20.02282602,62c50e9c1127f2cd403a315f,0,41,41,97,1,onethree
,,,,,,611d02e1074f8ebf85ea0ac8,62c539f0cfff8ef2daef82d5,2022-07-06_09h30.57.225,Colour_Asymmetry_Pilot,2022.1.3,Linux armv7l,20.02282602,62c50e9c1127f2cd403a315f,0,42,42,117,1,threefour
,,,,,,611d02e1074f8ebf85ea0ac8,62c539f0cfff8ef2daef82d5,2022-07-06_09h30.57.225,Colour_Asymmetry_Pilot,2022.1.3,Linux armv7l,20.02282602,62c50e9c1127f2cd403a315f,0,43,43,160,1,onetwo
,,,,,,611d02e1074f8ebf85ea0ac8,62c539f0cfff8ef2daef82d5,2022-07-06_09h30.57.225,Colour_Asymmetry_Pilot,2022.1.3,Linux armv7l,20.02282602,62c50e9c1127f2cd403a315f,0,44,44,144,1,onetwo
,,,,,,611d02e1074f8ebf85ea0ac8,62c539f0cfff8ef2daef82d5,2022-07-06_09h30.57.225,Colour_Asymmetry_Pilot,2022.1.3,Linux armv7l,20.02282602,62c50e9c1127f2cd403a315f,0,45,45,64,1,onetwo
,,,,,,611d02e1074f8ebf85ea0ac8,62c539f0cfff8ef2daef82d5,2022-07-06_09h30.57.225,Colour_Asymmetry_Pilot,2022.1.3,Linux armv7l,20.02282602,62c50e9c1127f2cd403a315f,0,46,46,13,1,threefour
,,,,,,611d02e1074f8ebf85ea0ac8,62c539f0cfff8ef2daef82d5,2022-07-06_09h30.57.225,Colour_Asymmetry_Pilot,2022.1.3,Linux armv7l,20.02282602,62c50e9c1127f2cd403a315f,0,47,47,99,1,twofour
,,,,,,611d02e1074f8ebf85ea0ac8,62c539f0cfff8ef2daef82d5,2022-07-06_09h30.57.225,Colour_Asymmetry_Pilot,2022.1.3,Linux armv7l,20.02282602,62c50e9c1127f2cd403a315f,0,48,48,94,1,fourtwo
,,,,,,611d02e1074f8ebf85ea0ac8,62c539f0cfff8ef2daef82d5,2022-07-06_09h30.57.225,Colour_Asymmetry_Pilot,2022.1.3,Linux armv7l,20.02282602,62c50e9c1127f2cd403a315f,0,49,49,78,1,fourtwo
,,,,,,611d02e1074f8ebf85ea0ac8,62c539f0cfff8ef2daef82d5,2022-07-06_09h30.57.225,Colour_Asymmetry_Pilot,2022.1.3,Linux armv7l,20.02282602,62c50e9c1127f2cd403a315f,0,50,50,66,1,twoone
,,,,,,611d02e1074f8ebf85ea0ac8,62c539f0cfff8ef2daef82d5,2022-07-06_09h30.57.225,Colour_Asymmetry_Pilot,2022.1.3,Linux armv7l,20.02282602,62c50e9c1127f2cd403a315f,0,51,51,36,1,threeone
,,,,,,611d02e1074f8ebf85ea0ac8,62c539f0cfff8ef2daef82d5,2022-07-06_09h30.57.225,Colour_Asymmetry_Pilot,2022.1.3,Linux armv7l,20.02282602,62c50e9c1127f2cd403a315f,0,52,52,56,1,onetwo
,,,,,,611d02e1074f8ebf85ea0ac8,62c539f0cfff8ef2daef82d5,2022-07-06_09h30.57.225,Colour_Asymmetry_Pilot,2022.1.3,Linux armv7l,20.02282602,62c50e9c1127f2cd403a315f,0,53,53,50,1,twoone
,,,,,,611d02e1074f8ebf85ea0ac8,62c539f0cfff8ef2daef82d5,2022-07-06_09h30.57.225,Colour_Asymmetry_Pilot,2022.1.3,Linux armv7l,20.02282602,62c50e9c1127f2cd403a315f,0,54,54,131,1,twofour
,,,,,,611d02e1074f8ebf85ea0ac8,62c539f0cfff8ef2daef82d5,2022-07-06_09h30.57.225,Colour_Asymmetry_Pilot,2022.1.3,Linux armv7l,20.02282602,62c50e9c1127f2cd403a315f,0,55,55,150,1,fourtwo
,,,,,,611d02e1074f8ebf85ea0ac8,62c539f0cfff8ef2daef82d5,2022-07-06_09h30.57.225,Colour_Asymmetry_Pilot,2022.1.3,Linux armv7l,20.02282602,62c50e9c1127f2cd403a315f,0,56,56,126,1,fourtwo
,,,,,,611d02e1074f8ebf85ea0ac8,62c539f0cfff8ef2daef82d5,2022-07-06_09h30.57.225,Colour_Asymmetry_Pilot,2022.1.3,Linux armv7l,20.02282602,62c50e9c1127f2cd403a315f,0,57,57,133,1,threefour
,,,,,,611d02e1074f8ebf85ea0ac8,62c539f0cfff8ef2daef82d5,2022-07-06_09h30.57.225,Colour_Asymmetry_Pilot,2022.1.3,Linux armv7l,20.02282602,62c50e9c1127f2cd403a315f,0,58,58,159,1,fourthree
,,,,,,611d02e1074f8ebf85ea0ac8,62c539f0cfff8ef2daef82d5,2022-07-06_09h30.57.225,Colour_Asymmetry_Pilot,2022.1.3,Linux armv7l,20.02282602,62c50e9c1127f2cd403a315f,0,59,59,45,1,threefour
,,,,,,611d02e1074f8ebf85ea0ac8,62c539f0cfff8ef2daef82d5,2022-07-06_09h30.57.225,Colour_Asymmetry_Pilot,2022.1.3,Linux armv7l,20.02282602,62c50e9c1127f2cd403a315f,0,60,60,70,1,fourtwo
,,,,,,611d02e1074f8ebf85ea0ac8,62c539f0cfff8ef2daef82d5,2022-07-06_09h30.57.225,Colour_Asymmetry_Pilot,2022.1.3,Linux armv7l,20.02282602,62c50e9c1127f2cd403a315f,0,61,61,68,1,threeone
,,,,,,611d02e1074f8ebf85ea0ac8,62c539f0cfff8ef2daef82d5,2022-07-06_09h30.57.225,Colour_Asymmetry_Pilot,2022.1.3,Linux armv7l,20.02282602,62c50e9c1127f2cd403a315f,0,62,62,21,1,threefour
,,,,,,611d02e1074f8ebf85ea0ac8,62c539f0cfff8ef2daef82d5,2022-07-06_09h30.57.225,Colour_Asymmetry_Pilot,2022.1.3,Linux armv7l,20.02282602,62c50e9c1127f2cd403a315f,0,63,63,76,1,threeone
,,,,,,611d02e1074f8ebf85ea0ac8,62c539f0cfff8ef2daef82d5,2022-07-06_09h30.57.225,Colour_Asymmetry_Pilot,2022.1.3,Linux armv7l,20.02282602,62c50e9c1127f2cd403a315f,0,64,64,61,1,threefour
,,,,,,611d02e1074f8ebf85ea0ac8,62c539f0cfff8ef2daef82d5,2022-07-06_09h30.57.225,Colour_Asymmetry_Pilot,2022.1.3,Linux armv7l,20.02282602,62c50e9c1127f2cd403a315f,0,65,65,63,1,fourthree
,,,,,,611d02e1074f8ebf85ea0ac8,62c539f0cfff8ef2daef82d5,2022-07-06_09h30.57.225,Colour_Asymmetry_Pilot,2022.1.3,Linux armv7l,20.02282602,62c50e9c1127f2cd403a315f,0,66,66,19,1,twofour
,,,,,,611d02e1074f8ebf85ea0ac8,62c539f0cfff8ef2daef82d5,2022-07-06_09h30.57.225,Colour_Asymmetry_Pilot,2022.1.3,Linux armv7l,20.02282602,62c50e9c1127f2cd403a315f,0,67,67,134,1,fourtwo
,,,,,,611d02e1074f8ebf85ea0ac8,62c539f0cfff8ef2daef82d5,2022-07-06_09h30.57.225,Colour_Asymmetry_Pilot,2022.1.3,Linux armv7l,20.02282602,62c50e9c1127f2cd403a315f,0,68,68,22,1,fourtwo
,,,,,,611d02e1074f8ebf85ea0ac8,62c539f0cfff8ef2daef82d5,2022-07-06_09h30.57.225,Colour_Asymmetry_Pilot,2022.1.3,Linux armv7l,20.02282602,62c50e9c1127f2cd403a315f,0,69,69,86,1,fourtwo
,,,,,,611d02e1074f8ebf85ea0ac8,62c539f0cfff8ef2daef82d5,2022-07-06_09h30.57.225,Colour_Asymmetry_Pilot,2022.1.3,Linux armv7l,20.02282602,62c50e9c1127f2cd403a315f,0,70,70,38,1,fourtwo
,,,,,,611d02e1074f8ebf85ea0ac8,62c539f0cfff8ef2daef82d5,2022-07-06_09h30.57.225,Colour_Asymmetry_Pilot,2022.1.3,Linux armv7l,20.02282602,62c50e9c1127f2cd403a315f,0,71,71,46,1,fourtwo
,,,,,,611d02e1074f8ebf85ea0ac8,62c539f0cfff8ef2daef82d5,2022-07-06_09h30.57.225,Colour_Asymmetry_Pilot,2022.1.3,Linux armv7l,20.02282602,62c50e9c1127f2cd403a315f,0,72,72,122,1,twoone
,,,,,,611d02e1074f8ebf85ea0ac8,62c539f0cfff8ef2daef82d5,2022-07-06_09h30.57.225,Colour_Asymmetry_Pilot,2022.1.3,Linux armv7l,20.02282602,62c50e9c1127f2cd403a315f,0,73,73,105,1,onethree
,,,,,,611d02e1074f8ebf85ea0ac8,62c539f0cfff8ef2daef82d5,2022-07-06_09h30.57.225,Colour_Asymmetry_Pilot,2022.1.3,Linux armv7l,20.02282602,62c50e9c1127f2cd403a315f,0,74,74,27,1,twofour
,,,,,,611d02e1074f8ebf85ea0ac8,62c539f0cfff8ef2daef82d5,2022-07-06_09h30.57.225,Colour_Asymmetry_Pilot,2022.1.3,Linux armv7l,20.02282602,62c50e9c1127f2cd403a315f,0,75,75,65,1,onethree
,,,,,,611d02e1074f8ebf85ea0ac8,62c539f0cfff8ef2daef82d5,2022-07-06_09h30.57.225,Colour_Asymmetry_Pilot,2022.1.3,Linux armv7l,20.02282602,62c50e9c1127f2cd403a315f,0,76,76,35,1,twofour
,,,,,,611d02e1074f8ebf85ea0ac8,62c539f0cfff8ef2daef82d5,2022-07-06_09h30.57.225,Colour_Asymmetry_Pilot,2022.1.3,Linux armv7l,20.02282602,62c50e9c1127f2cd403a315f,0,77,77,102,1,fourtwo
,,,,,,611d02e1074f8ebf85ea0ac8,62c539f0cfff8ef2daef82d5,2022-07-06_09h30.57.225,Colour_Asymmetry_Pilot,2022.1.3,Linux armv7l,20.02282602,62c50e9c1127f2cd403a315f,0,78,78,10,1,twoone
,,,,,,611d02e1074f8ebf85ea0ac8,62c539f0cfff8ef2daef82d5,2022-07-06_09h30.57.225,Colour_Asymmetry_Pilot,2022.1.3,Linux armv7l,20.02282602,62c50e9c1127f2cd403a315f,0,79,79,91,1,twofour
,,,,,,611d02e1074f8ebf85ea0ac8,62c539f0cfff8ef2daef82d5,2022-07-06_09h30.57.225,Colour_Asymmetry_Pilot,2022.1.3,Linux armv7l,20.02282602,62c50e9c1127f2cd403a315f,0,80,80,136,1,onetwo
,,,,,,611d02e1074f8ebf85ea0ac8,62c539f0cfff8ef2daef82d5,2022-07-06_09h30.57.225,Colour_Asymmetry_Pilot,2022.1.3,Linux armv7l,20.02282602,62c50e9c1127f2cd403a315f,0,81,81,158,1,fourtwo
,,,,,,611d02e1074f8ebf85ea0ac8,62c539f0cfff8ef2daef82d5,2022-07-06_09h30.57.225,Colour_Asymmetry_Pilot,2022.1.3,Linux armv7l,20.02282602,62c50e9c1127f2cd403a315f,0,82,82,154,1,twoone
,,,,,,611d02e1074f8ebf85ea0ac8,62c539f0cfff8ef2daef82d5,2022-07-06_09h30.57.225,Colour_Asymmetry_Pilot,2022.1.3,Linux armv7l,20.02282602,62c50e9c1127f2cd403a315f,0,83,83,7,1,fourthree
,,,,,,611d02e1074f8ebf85ea0ac8,62c539f0cfff8ef2daef82d5,2022-07-06_09h30.57.225,Colour_Asymmetry_Pilot,2022.1.3,Linux armv7l,20.02282602,62c50e9c1127f2cd403a315f,0,84,84,138,1,twoone
,,,,,,611d02e1074f8ebf85ea0ac8,62c539f0cfff8ef2daef82d5,2022-07-06_09h30.57.225,Colour_Asymmetry_Pilot,2022.1.3,Linux armv7l,20.02282602,62c50e9c1127f2cd403a315f,0,85,85,107,1,twofour
,,,,,,611d02e1074f8ebf85ea0ac8,62c539f0cfff8ef2daef82d5,2022-07-06_09h30.57.225,Colour_Asymmetry_Pilot,2022.1.3,Linux armv7l,20.02282602,62c50e9c1127f2cd403a315f,0,86,86,124,1,threeone
,,,,,,611d02e1074f8ebf85ea0ac8,62c539f0cfff8ef2daef82d5,2022-07-06_09h30.57.225,Colour_Asymmetry_Pilot,2022.1.3,Linux armv7l,20.02282602,62c50e9c1127f2cd403a315f,0,87,87,33,1,onethree
,,,,,,611d02e1074f8ebf85ea0ac8,62c539f0cfff8ef2daef82d5,2022-07-06_09h30.57.225,Colour_Asymmetry_Pilot,2022.1.3,Linux armv7l,20.02282602,62c50e9c1127f2cd403a315f,0,88,88,58,1,twoone
,,,,,,611d02e1074f8ebf85ea0ac8,62c539f0cfff8ef2daef82d5,2022-07-06_09h30.57.225,Colour_Asymmetry_Pilot,2022.1.3,Linux armv7l,20.02282602,62c50e9c1127f2cd403a315f,0,89,89,127,1,fourthree
,,,,,,611d02e1074f8ebf85ea0ac8,62c539f0cfff8ef2daef82d5,2022-07-06_09h30.57.225,Colour_Asymmetry_Pilot,2022.1.3,Linux armv7l,20.02282602,62c50e9c1127f2cd403a315f,0,90,90,23,1,fourthree
,,,,,,611d02e1074f8ebf85ea0ac8,62c539f0cfff8ef2daef82d5,2022-07-06_09h30.57.225,Colour_Asymmetry_Pilot,2022.1.3,Linux armv7l,20.02282602,62c50e9c1127f2cd403a315f,0,91,91,139,1,twofour
,,,,,,611d02e1074f8ebf85ea0ac8,62c539f0cfff8ef2daef82d5,2022-07-06_09h30.57.225,Colour_Asymmetry_Pilot,2022.1.3,Linux armv7l,20.02282602,62c50e9c1127f2cd403a315f,0,92,92,11,1,twofour
,,,,,,611d02e1074f8ebf85ea0ac8,62c539f0cfff8ef2daef82d5,2022-07-06_09h30.57.225,Colour_Asymmetry_Pilot,2022.1.3,Linux armv7l,20.02282602,62c50e9c1127f2cd403a315f,0,93,93,90,1,twoone
,,,,,,611d02e1074f8ebf85ea0ac8,62c539f0cfff8ef2daef82d5,2022-07-06_09h30.57.225,Colour_Asymmetry_Pilot,2022.1.3,Linux armv7l,20.02282602,62c50e9c1127f2cd403a315f,0,94,94,71,1,fourthree
,,,,,,611d02e1074f8ebf85ea0ac8,62c539f0cfff8ef2daef82d5,2022-07-06_09h30.57.225,Colour_Asymmetry_Pilot,2022.1.3,Linux armv7l,20.02282602,62c50e9c1127f2cd403a315f,0,95,95,48,1,onetwo
,,,,,,611d02e1074f8ebf85ea0ac8,62c539f0cfff8ef2daef82d5,2022-07-06_09h30.57.225,Colour_Asymmetry_Pilot,2022.1.3,Linux armv7l,20.02282602,62c50e9c1127f2cd403a315f,0,96,96,155,1,twofour
,,,,,,611d02e1074f8ebf85ea0ac8,62c539f0cfff8ef2daef82d5,2022-07-06_09h30.57.225,Colour_Asymmetry_Pilot,2022.1.3,Linux armv7l,20.02282602,62c50e9c1127f2cd403a315f,0,97,97,67,1,twofour
,,,,,,611d02e1074f8ebf85ea0ac8,62c539f0cfff8ef2daef82d5,2022-07-06_09h30.57.225,Colour_Asymmetry_Pilot,2022.1.3,Linux armv7l,20.02282602,62c50e9c1127f2cd403a315f,0,98,98,92,1,threeone
,,,,,,611d02e1074f8ebf85ea0ac8,62c539f0cfff8ef2daef82d5,2022-07-06_09h30.57.225,Colour_Asymmetry_Pilot,2022.1.3,Linux armv7l,20.02282602,62c50e9c1127f2cd403a315f,0,99,99,100,1,threeone
,,,,,,611d02e1074f8ebf85ea0ac8,62c539f0cfff8ef2daef82d5,2022-07-06_09h30.57.225,Colour_Asymmetry_Pilot,2022.1.3,Linux armv7l,20.02282602,62c50e9c1127f2cd403a315f,0,100,100,39,1,fourthree
,,,,,,611d02e1074f8ebf85ea0ac8,62c539f0cfff8ef2daef82d5,2022-07-06_09h30.57.225,Colour_Asymmetry_Pilot,2022.1.3,Linux armv7l,20.02282602,62c50e9c1127f2cd403a315f,0,101,101,125,1,threefour
,,,,,,611d02e1074f8ebf85ea0ac8,62c539f0cfff8ef2daef82d5,2022-07-06_09h30.57.225,Colour_Asymmetry_Pilot,2022.1.3,Linux armv7l,20.02282602,62c50e9c1127f2cd403a315f,0,102,102,16,1,onetwo
,,,,,,611d02e1074f8ebf85ea0ac8,62c539f0cfff8ef2daef82d5,2022-07-06_09h30.57.225,Colour_Asymmetry_Pilot,2022.1.3,Linux armv7l,20.02282602,62c50e9c1127f2cd403a315f,0,103,103,77,1,threefour
,,,,,,611d02e1074f8ebf85ea0ac8,62c539f0cfff8ef2daef82d5,2022-07-06_09h30.57.225,Colour_Asymmetry_Pilot,2022.1.3,Linux armv7l,20.02282602,62c50e9c1127f2cd403a315f,0,104,104,79,1,fourthree
,,,,,,611d02e1074f8ebf85ea0ac8,62c539f0cfff8ef2daef82d5,2022-07-06_09h30.57.225,Colour_Asymmetry_Pilot,2022.1.3,Linux armv7l,20.02282602,62c50e9c1127f2cd403a315f,0,105,105,145,1,onethree
,,,,,,611d02e1074f8ebf85ea0ac8,62c539f0cfff8ef2daef82d5,2022-07-06_09h30.57.225,Colour_Asymmetry_Pilot,2022.1.3,Linux armv7l,20.02282602,62c50e9c1127f2cd403a315f,0,106,106,24,1,onetwo
,,,,,,611d02e1074f8ebf85ea0ac8,62c539f0cfff8ef2daef82d5,2022-07-06_09h30.57.225,Colour_Asymmetry_Pilot,2022.1.3,Linux armv7l,20.02282602,62c50e9c1127f2cd403a315f,0,107,107,89,1,onethree
,,,,,,611d02e1074f8ebf85ea0ac8,62c539f0cfff8ef2daef82d5,2022-07-06_09h30.57.225,Colour_Asymmetry_Pilot,2022.1.3,Linux armv7l,20.02282602,62c50e9c1127f2cd403a315f,0,108,108,18,1,twoone
,,,,,,611d02e1074f8ebf85ea0ac8,62c539f0cfff8ef2daef82d5,2022-07-06_09h30.57.225,Colour_Asymmetry_Pilot,2022.1.3,Linux armv7l,20.02282602,62c50e9c1127f2cd403a315f,0,109,109,52,1,threeone
,,,,,,611d02e1074f8ebf85ea0ac8,62c539f0cfff8ef2daef82d5,2022-07-06_09h30.57.225,Colour_Asymmetry_Pilot,2022.1.3,Linux armv7l,20.02282602,62c50e9c1127f2cd403a315f,0,110,110,137,1,onethree
,,,,,,611d02e1074f8ebf85ea0ac8,62c539f0cfff8ef2daef82d5,2022-07-06_09h30.57.225,Colour_Asymmetry_Pilot,2022.1.3,Linux armv7l,20.02282602,62c50e9c1127f2cd403a315f,0,111,111,59,1,twofour
,,,,,,611d02e1074f8ebf85ea0ac8,62c539f0cfff8ef2daef82d5,2022-07-06_09h30.57.225,Colour_Asymmetry_Pilot,2022.1.3,Linux armv7l,20.02282602,62c50e9c1127f2cd403a315f,0,112,112,110,1,fourtwo
,,,,,,611d02e1074f8ebf85ea0ac8,62c539f0cfff8ef2daef82d5,2022-07-06_09h30.57.225,Colour_Asymmetry_Pilot,2022.1.3,Linux armv7l,20.02282602,62c50e9c1127f2cd403a315f,0,113,113,93,1,threefour
,,,,,,611d02e1074f8ebf85ea0ac8,62c539f0cfff8ef2daef82d5,2022-07-06_09h30.57.225,Colour_Asymmetry_Pilot,2022.1.3,Linux armv7l,20.02282602,62c50e9c1127f2cd403a315f,0,114,114,30,1,fourtwo
,,,,,,611d02e1074f8ebf85ea0ac8,62c539f0cfff8ef2daef82d5,2022-07-06_09h30.57.225,Colour_Asymmetry_Pilot,2022.1.3,Linux armv7l,20.02282602,62c50e9c1127f2cd403a315f,0,115,115,29,1,threefour
,,,,,,611d02e1074f8ebf85ea0ac8,62c539f0cfff8ef2daef82d5,2022-07-06_09h30.57.225,Colour_Asymmetry_Pilot,2022.1.3,Linux armv7l,20.02282602,62c50e9c1127f2cd403a315f,0,116,116,54,1,fourtwo
,,,,,,611d02e1074f8ebf85ea0ac8,62c539f0cfff8ef2daef82d5,2022-07-06_09h30.57.225,Colour_Asymmetry_Pilot,2022.1.3,Linux armv7l,20.02282602,62c50e9c1127f2cd403a315f,0,117,117,53,1,threefour
,,,,,,611d02e1074f8ebf85ea0ac8,62c539f0cfff8ef2daef82d5,2022-07-06_09h30.57.225,Colour_Asymmetry_Pilot,2022.1.3,Linux armv7l,20.02282602,62c50e9c1127f2cd403a315f,0,118,118,83,1,twofour
,,,,,,611d02e1074f8ebf85ea0ac8,62c539f0cfff8ef2daef82d5,2022-07-06_09h30.57.225,Colour_Asymmetry_Pilot,2022.1.3,Linux armv7l,20.02282602,62c50e9c1127f2cd403a315f,0,119,119,5,1,threefour
,,,,,,611d02e1074f8ebf85ea0ac8,62c539f0cfff8ef2daef82d5,2022-07-06_09h30.57.225,Colour_Asymmetry_Pilot,2022.1.3,Linux armv7l,20.02282602,62c50e9c1127f2cd403a315f,0,120,120,87,1,fourthree
,,,,,,611d02e1074f8ebf85ea0ac8,62c539f0cfff8ef2daef82d5,2022-07-06_09h30.57.225,Colour_Asymmetry_Pilot,2022.1.3,Linux armv7l,20.02282602,62c50e9c1127f2cd403a315f,0,121,121,2,1,twoone
,,,,,,611d02e1074f8ebf85ea0ac8,62c539f0cfff8ef2daef82d5,2022-07-06_09h30.57.225,Colour_Asymmetry_Pilot,2022.1.3,Linux armv7l,20.02282602,62c50e9c1127f2cd403a315f,0,122,122,74,1,twoone
,,,,,,611d02e1074f8ebf85ea0ac8,62c539f0cfff8ef2daef82d5,2022-07-06_09h30.57.225,Colour_Asymmetry_Pilot,2022.1.3,Linux armv7l,20.02282602,62c50e9c1127f2cd403a315f,0,123,123,37,1,threefour
,,,,,,611d02e1074f8ebf85ea0ac8,62c539f0cfff8ef2daef82d5,2022-07-06_09h30.57.225,Colour_Asymmetry_Pilot,2022.1.3,Linux armv7l,20.02282602,62c50e9c1127f2cd403a315f,0,124,124,47,1,fourthree
,,,,,,611d02e1074f8ebf85ea0ac8,62c539f0cfff8ef2daef82d5,2022-07-06_09h30.57.225,Colour_Asymmetry_Pilot,2022.1.3,Linux armv7l,20.02282602,62c50e9c1127f2cd403a315f,0,125,125,1,1,onethree
,,,,,,611d02e1074f8ebf85ea0ac8,62c539f0cfff8ef2daef82d5,2022-07-06_09h30.57.225,Colour_Asymmetry_Pilot,2022.1.3,Linux armv7l,20.02282602,62c50e9c1127f2cd403a315f,0,126,126,106,1,twoone
,,,,,,611d02e1074f8ebf85ea0ac8,62c539f0cfff8ef2daef82d5,2022-07-06_09h30.57.225,Colour_Asymmetry_Pilot,2022.1.3,Linux armv7l,20.02282602,62c50e9c1127f2cd403a315f,0,127,127,43,1,twofour
,,,,,,611d02e1074f8ebf85ea0ac8,62c539f0cfff8ef2daef82d5,2022-07-06_09h30.57.225,Colour_Asymmetry_Pilot,2022.1.3,Linux armv7l,20.02282602,62c50e9c1127f2cd403a315f,0,128,128,113,1,onethree
,,,,,,611d02e1074f8ebf85ea0ac8,62c539f0cfff8ef2daef82d5,2022-07-06_09h30.57.225,Colour_Asymmetry_Pilot,2022.1.3,Linux armv7l,20.02282602,62c50e9c1127f2cd403a315f,0,129,129,101,1,threefour
,,,,,,611d02e1074f8ebf85ea0ac8,62c539f0cfff8ef2daef82d5,2022-07-06_09h30.57.225,Colour_Asymmetry_Pilot,2022.1.3,Linux armv7l,20.02282602,62c50e9c1127f2cd403a315f,0,130,130,112,1,onetwo
,,,,,,611d02e1074f8ebf85ea0ac8,62c539f0cfff8ef2daef82d5,2022-07-06_09h30.57.225,Colour_Asymmetry_Pilot,2022.1.3,Linux armv7l,20.02282602,62c50e9c1127f2cd403a315f,0,131,131,3,1,twofour
,,,,,,611d02e1074f8ebf85ea0ac8,62c539f0cfff8ef2daef82d5,2022-07-06_09h30.57.225,Colour_Asymmetry_Pilot,2022.1.3,Linux armv7l,20.02282602,62c50e9c1127f2cd403a315f,0,132,132,8,1,onetwo
,,,,,,611d02e1074f8ebf85ea0ac8,62c539f0cfff8ef2daef82d5,2022-07-06_09h30.57.225,Colour_Asymmetry_Pilot,2022.1.3,Linux armv7l,20.02282602,62c50e9c1127f2cd403a315f,0,133,133,120,1,onetwo
,,,,,,611d02e1074f8ebf85ea0ac8,62c539f0cfff8ef2daef82d5,2022-07-06_09h30.57.225,Colour_Asymmetry_Pilot,2022.1.3,Linux armv7l,20.02282602,62c50e9c1127f2cd403a315f,0,134,134,114,1,twoone
,,,,,,611d02e1074f8ebf85ea0ac8,62c539f0cfff8ef2daef82d5,2022-07-06_09h30.57.225,Colour_Asymmetry_Pilot,2022.1.3,Linux armv7l,20.02282602,62c50e9c1127f2cd403a315f,0,135,135,142,1,fourtwo
,,,,,,611d02e1074f8ebf85ea0ac8,62c539f0cfff8ef2daef82d5,2022-07-06_09h30.57.225,Colour_Asymmetry_Pilot,2022.1.3,Linux armv7l,20.02282602,62c50e9c1127f2cd403a315f,0,136,136,115,1,twofour
,,,,,,611d02e1074f8ebf85ea0ac8,62c539f0cfff8ef2daef82d5,2022-07-06_09h30.57.225,Colour_Asymmetry_Pilot,2022.1.3,Linux armv7l,20.02282602,62c50e9c1127f2cd403a315f,0,137,137,41,1,onethree
,,,,,,611d02e1074f8ebf85ea0ac8,62c539f0cfff8ef2daef82d5,2022-07-06_09h30.57.225,Colour_Asymmetry_Pilot,2022.1.3,Linux armv7l,20.02282602,62c50e9c1127f2cd403a315f,0,138,138,85,1,threefour
,,,,,,611d02e1074f8ebf85ea0ac8,62c539f0cfff8ef2daef82d5,2022-07-06_09h30.57.225,Colour_Asymmetry_Pilot,2022.1.3,Linux armv7l,20.02282602,62c50e9c1127f2cd403a315f,0,139,139,55,1,fourthree
,,,,,,611d02e1074f8ebf85ea0ac8,62c539f0cfff8ef2daef82d5,2022-07-06_09h30.57.225,Colour_Asymmetry_Pilot,2022.1.3,Linux armv7l,20.02282602,62c50e9c1127f2cd403a315f,0,140,140,9,1,onethree
,,,,,,611d02e1074f8ebf85ea0ac8,62c539f0cfff8ef2daef82d5,2022-07-06_09h30.57.225,Colour_Asymmetry_Pilot,2022.1.3,Linux armv7l,20.02282602,62c50e9c1127f2cd403a315f,0,141,141,143,1,fourthree
,,,,,,611d02e1074f8ebf85ea0ac8,62c539f0cfff8ef2daef82d5,2022-07-06_09h30.57.225,Colour_Asymmetry_Pilot,2022.1.3,Linux armv7l,20.02282602,62c50e9c1127f2cd403a315f,0,142,142,146,1,twoone
,,,,,,611d02e1074f8ebf85ea0ac8,62c539f0cfff8ef2daef82d5,2022-07-06_09h30.57.225,Colour_Asymmetry_Pilot,2022.1.3,Linux armv7l,20.02282602,62c50e9c1127f2cd403a315f,0,143,143,49,1,onethree
,,,,,,611d02e1074f8ebf85ea0ac8,62c539f0cfff8ef2daef82d5,2022-07-06_09h30.57.225,Colour_Asymmetry_Pilot,2022.1.3,Linux armv7l,20.02282602,62c50e9c1127f2cd403a315f,0,144,144,6,1,fourtwo
,,,,,,611d02e1074f8ebf85ea0ac8,62c539f0cfff8ef2daef82d5,2022-07-06_09h30.57.225,Colour_Asymmetry_Pilot,2022.1.3,Linux armv7l,20.02282602,62c50e9c1127f2cd403a315f,0,145,145,80,1,onetwo
,,,,,,611d02e1074f8ebf85ea0ac8,62c539f0cfff8ef2daef82d5,2022-07-06_09h30.57.225,Colour_Asymmetry_Pilot,2022.1.3,Linux armv7l,20.02282602,62c50e9c1127f2cd403a315f,0,146,146,26,1,twoone
,,,,,,611d02e1074f8ebf85ea0ac8,62c539f0cfff8ef2daef82d5,2022-07-06_09h30.57.225,Colour_Asymmetry_Pilot,2022.1.3,Linux armv7l,20.02282602,62c50e9c1127f2cd403a315f,0,147,147,34,1,twoone
,,,,,,611d02e1074f8ebf85ea0ac8,62c539f0cfff8ef2daef82d5,2022-07-06_09h30.57.225,Colour_Asymmetry_Pilot,2022.1.3,Linux armv7l,20.02282602,62c50e9c1127f2cd403a315f,0,148,148,149,1,threefour
,,,,,,611d02e1074f8ebf85ea0ac8,62c539f0cfff8ef2daef82d5,2022-07-06_09h30.57.225,Colour_Asymmetry_Pilot,2022.1.3,Linux armv7l,20.02282602,62c50e9c1127f2cd403a315f,0,149,149,84,1,threeone
,,,,,,611d02e1074f8ebf85ea0ac8,62c539f0cfff8ef2daef82d5,2022-07-06_09h30.57.225,Colour_Asymmetry_Pilot,2022.1.3,Linux armv7l,20.02282602,62c50e9c1127f2cd403a315f,0,150,150,132,1,threeone
,,,,,,611d02e1074f8ebf85ea0ac8,62c539f0cfff8ef2daef82d5,2022-07-06_09h30.57.225,Colour_Asymmetry_Pilot,2022.1.3,Linux armv7l,20.02282602,62c50e9c1127f2cd403a315f,0,151,151,108,1,threeone
,,,,,,611d02e1074f8ebf85ea0ac8,62c539f0cfff8ef2daef82d5,2022-07-06_09h30.57.225,Colour_Asymmetry_Pilot,2022.1.3,Linux armv7l,20.02282602,62c50e9c1127f2cd403a315f,0,152,152,28,1,threeone
,,,,,,611d02e1074f8ebf85ea0ac8,62c539f0cfff8ef2daef82d5,2022-07-06_09h30.57.225,Colour_Asymmetry_Pilot,2022.1.3,Linux armv7l,20.02282602,62c50e9c1127f2cd403a315f,0,153,153,17,1,onethree
,,,,,,611d02e1074f8ebf85ea0ac8,62c539f0cfff8ef2daef82d5,2022-07-06_09h30.57.225,Colour_Asymmetry_Pilot,2022.1.3,Linux armv7l,20.02282602,62c50e9c1127f2cd403a315f,0,154,154,104,1,onetwo
,,,,,,611d02e1074f8ebf85ea0ac8,62c539f0cfff8ef2daef82d5,2022-07-06_09h30.57.225,Colour_Asymmetry_Pilot,2022.1.3,Linux armv7l,20.02282602,62c50e9c1127f2cd403a315f,0,155,155,121,1,onethree
,,,,,,611d02e1074f8ebf85ea0ac8,62c539f0cfff8ef2daef82d5,2022-07-06_09h30.57.225,Colour_Asymmetry_Pilot,2022.1.3,Linux armv7l,20.02282602,62c50e9c1127f2cd403a315f,0,156,156,96,1,onetwo
,,,,,,611d02e1074f8ebf85ea0ac8,62c539f0cfff8ef2daef82d5,2022-07-06_09h30.57.225,Colour_Asymmetry_Pilot,2022.1.3,Linux armv7l,20.02282602,62c50e9c1127f2cd403a315f,0,157,157,51,1,twofour
,,,,,,611d02e1074f8ebf85ea0ac8,62c539f0cfff8ef2daef82d5,2022-07-06_09h30.57.225,Colour_Asymmetry_Pilot,2022.1.3,Linux armv7l,20.02282602,62c50e9c1127f2cd403a315f,0,158,158,161,1,onethree
,,,,,,611d02e1074f8ebf85ea0ac8,62c539f0cfff8ef2daef82d5,2022-07-06_09h30.57.225,Colour_Asymmetry_Pilot,2022.1.3,Linux armv7l,20.02282602,62c50e9c1127f2cd403a315f,0,159,159,129,1,onethree
,,,,,,611d02e1074f8ebf85ea0ac8,62c539f0cfff8ef2daef82d5,2022-07-06_09h30.57.225,Colour_Asymmetry_Pilot,2022.1.3,Linux armv7l,20.02282602,62c50e9c1127f2cd403a315f,0,160,160,135,1,fourthree
,,,,,,611d02e1074f8ebf85ea0ac8,62c539f0cfff8ef2daef82d5,2022-07-06_09h30.57.225,Colour_Asymmetry_Pilot,2022.1.3,Linux armv7l,20.02282602,62c50e9c1127f2cd403a315f,0,161,161,103,1,fourthree
