trials.thisRepN,trials.thisTrialN,trials.thisN,trials.thisIndex,trials.ran,Colourcodes,participant,session,date,expName,psychopyVersion,OS,frameRate,study_id,trials_4.thisRepN,trials_4.thisTrialN,trials_4.thisN,trials_4.thisIndex,trials_4.ran,StimulusPos
0,0,0,78,1,,5f9a98ffdc3cd11ab49e32f2,62c53a643b716069deedd1f7,2022-07-06_09h31.56.351,Colour_Asymmetry_Pilot,2022.1.3,Win32,60.24096386,62c50e9c1127f2cd403a315f,,,,,,
0,1,1,31,1,,5f9a98ffdc3cd11ab49e32f2,62c53a643b716069deedd1f7,2022-07-06_09h31.56.351,Colour_Asymmetry_Pilot,2022.1.3,Win32,60.24096386,62c50e9c1127f2cd403a315f,,,,,,
0,2,2,37,1,,5f9a98ffdc3cd11ab49e32f2,62c53a643b716069deedd1f7,2022-07-06_09h31.56.351,Colour_Asymmetry_Pilot,2022.1.3,Win32,60.24096386,62c50e9c1127f2cd403a315f,,,,,,
0,3,3,32,1,,5f9a98ffdc3cd11ab49e32f2,62c53a643b716069deedd1f7,2022-07-06_09h31.56.351,Colour_Asymmetry_Pilot,2022.1.3,Win32,60.24096386,62c50e9c1127f2cd403a315f,,,,,,
0,4,4,59,1,,5f9a98ffdc3cd11ab49e32f2,62c53a643b716069deedd1f7,2022-07-06_09h31.56.351,Colour_Asymmetry_Pilot,2022.1.3,Win32,60.24096386,62c50e9c1127f2cd403a315f,,,,,,
0,5,5,56,1,,5f9a98ffdc3cd11ab49e32f2,62c53a643b716069deedd1f7,2022-07-06_09h31.56.351,Colour_Asymmetry_Pilot,2022.1.3,Win32,60.24096386,62c50e9c1127f2cd403a315f,,,,,,
0,6,6,51,1,,5f9a98ffdc3cd11ab49e32f2,62c53a643b716069deedd1f7,2022-07-06_09h31.56.351,Colour_Asymmetry_Pilot,2022.1.3,Win32,60.24096386,62c50e9c1127f2cd403a315f,,,,,,
0,7,7,13,1,,5f9a98ffdc3cd11ab49e32f2,62c53a643b716069deedd1f7,2022-07-06_09h31.56.351,Colour_Asymmetry_Pilot,2022.1.3,Win32,60.24096386,62c50e9c1127f2cd403a315f,,,,,,
0,8,8,5,1,,5f9a98ffdc3cd11ab49e32f2,62c53a643b716069deedd1f7,2022-07-06_09h31.56.351,Colour_Asymmetry_Pilot,2022.1.3,Win32,60.24096386,62c50e9c1127f2cd403a315f,,,,,,
0,9,9,42,1,,5f9a98ffdc3cd11ab49e32f2,62c53a643b716069deedd1f7,2022-07-06_09h31.56.351,Colour_Asymmetry_Pilot,2022.1.3,Win32,60.24096386,62c50e9c1127f2cd403a315f,,,,,,
0,10,10,50,1,,5f9a98ffdc3cd11ab49e32f2,62c53a643b716069deedd1f7,2022-07-06_09h31.56.351,Colour_Asymmetry_Pilot,2022.1.3,Win32,60.24096386,62c50e9c1127f2cd403a315f,,,,,,
0,11,11,8,1,,5f9a98ffdc3cd11ab49e32f2,62c53a643b716069deedd1f7,2022-07-06_09h31.56.351,Colour_Asymmetry_Pilot,2022.1.3,Win32,60.24096386,62c50e9c1127f2cd403a315f,,,,,,
0,12,12,65,1,,5f9a98ffdc3cd11ab49e32f2,62c53a643b716069deedd1f7,2022-07-06_09h31.56.351,Colour_Asymmetry_Pilot,2022.1.3,Win32,60.24096386,62c50e9c1127f2cd403a315f,,,,,,
0,13,13,14,1,,5f9a98ffdc3cd11ab49e32f2,62c53a643b716069deedd1f7,2022-07-06_09h31.56.351,Colour_Asymmetry_Pilot,2022.1.3,Win32,60.24096386,62c50e9c1127f2cd403a315f,,,,,,
0,14,14,11,1,,5f9a98ffdc3cd11ab49e32f2,62c53a643b716069deedd1f7,2022-07-06_09h31.56.351,Colour_Asymmetry_Pilot,2022.1.3,Win32,60.24096386,62c50e9c1127f2cd403a315f,,,,,,
0,15,15,12,1,,5f9a98ffdc3cd11ab49e32f2,62c53a643b716069deedd1f7,2022-07-06_09h31.56.351,Colour_Asymmetry_Pilot,2022.1.3,Win32,60.24096386,62c50e9c1127f2cd403a315f,,,,,,
0,16,16,43,1,,5f9a98ffdc3cd11ab49e32f2,62c53a643b716069deedd1f7,2022-07-06_09h31.56.351,Colour_Asymmetry_Pilot,2022.1.3,Win32,60.24096386,62c50e9c1127f2cd403a315f,,,,,,
0,17,17,33,1,,5f9a98ffdc3cd11ab49e32f2,62c53a643b716069deedd1f7,2022-07-06_09h31.56.351,Colour_Asymmetry_Pilot,2022.1.3,Win32,60.24096386,62c50e9c1127f2cd403a315f,,,,,,
0,18,18,69,1,,5f9a98ffdc3cd11ab49e32f2,62c53a643b716069deedd1f7,2022-07-06_09h31.56.351,Colour_Asymmetry_Pilot,2022.1.3,Win32,60.24096386,62c50e9c1127f2cd403a315f,,,,,,
0,19,19,16,1,,5f9a98ffdc3cd11ab49e32f2,62c53a643b716069deedd1f7,2022-07-06_09h31.56.351,Colour_Asymmetry_Pilot,2022.1.3,Win32,60.24096386,62c50e9c1127f2cd403a315f,,,,,,
0,20,20,48,1,,5f9a98ffdc3cd11ab49e32f2,62c53a643b716069deedd1f7,2022-07-06_09h31.56.351,Colour_Asymmetry_Pilot,2022.1.3,Win32,60.24096386,62c50e9c1127f2cd403a315f,,,,,,
0,21,21,71,1,,5f9a98ffdc3cd11ab49e32f2,62c53a643b716069deedd1f7,2022-07-06_09h31.56.351,Colour_Asymmetry_Pilot,2022.1.3,Win32,60.24096386,62c50e9c1127f2cd403a315f,,,,,,
0,22,22,70,1,,5f9a98ffdc3cd11ab49e32f2,62c53a643b716069deedd1f7,2022-07-06_09h31.56.351,Colour_Asymmetry_Pilot,2022.1.3,Win32,60.24096386,62c50e9c1127f2cd403a315f,,,,,,
0,23,23,90,1,,5f9a98ffdc3cd11ab49e32f2,62c53a643b716069deedd1f7,2022-07-06_09h31.56.351,Colour_Asymmetry_Pilot,2022.1.3,Win32,60.24096386,62c50e9c1127f2cd403a315f,,,,,,
0,24,24,87,1,,5f9a98ffdc3cd11ab49e32f2,62c53a643b716069deedd1f7,2022-07-06_09h31.56.351,Colour_Asymmetry_Pilot,2022.1.3,Win32,60.24096386,62c50e9c1127f2cd403a315f,,,,,,
0,25,25,88,1,,5f9a98ffdc3cd11ab49e32f2,62c53a643b716069deedd1f7,2022-07-06_09h31.56.351,Colour_Asymmetry_Pilot,2022.1.3,Win32,60.24096386,62c50e9c1127f2cd403a315f,,,,,,
0,26,26,53,1,,5f9a98ffdc3cd11ab49e32f2,62c53a643b716069deedd1f7,2022-07-06_09h31.56.351,Colour_Asymmetry_Pilot,2022.1.3,Win32,60.24096386,62c50e9c1127f2cd403a315f,,,,,,
0,27,27,26,1,,5f9a98ffdc3cd11ab49e32f2,62c53a643b716069deedd1f7,2022-07-06_09h31.56.351,Colour_Asymmetry_Pilot,2022.1.3,Win32,60.24096386,62c50e9c1127f2cd403a315f,,,,,,
0,28,28,62,1,,5f9a98ffdc3cd11ab49e32f2,62c53a643b716069deedd1f7,2022-07-06_09h31.56.351,Colour_Asymmetry_Pilot,2022.1.3,Win32,60.24096386,62c50e9c1127f2cd403a315f,,,,,,
0,29,29,89,1,,5f9a98ffdc3cd11ab49e32f2,62c53a643b716069deedd1f7,2022-07-06_09h31.56.351,Colour_Asymmetry_Pilot,2022.1.3,Win32,60.24096386,62c50e9c1127f2cd403a315f,,,,,,
0,30,30,46,1,,5f9a98ffdc3cd11ab49e32f2,62c53a643b716069deedd1f7,2022-07-06_09h31.56.351,Colour_Asymmetry_Pilot,2022.1.3,Win32,60.24096386,62c50e9c1127f2cd403a315f,,,,,,
0,31,31,10,1,,5f9a98ffdc3cd11ab49e32f2,62c53a643b716069deedd1f7,2022-07-06_09h31.56.351,Colour_Asymmetry_Pilot,2022.1.3,Win32,60.24096386,62c50e9c1127f2cd403a315f,,,,,,
0,32,32,3,1,,5f9a98ffdc3cd11ab49e32f2,62c53a643b716069deedd1f7,2022-07-06_09h31.56.351,Colour_Asymmetry_Pilot,2022.1.3,Win32,60.24096386,62c50e9c1127f2cd403a315f,,,,,,
0,33,33,57,1,,5f9a98ffdc3cd11ab49e32f2,62c53a643b716069deedd1f7,2022-07-06_09h31.56.351,Colour_Asymmetry_Pilot,2022.1.3,Win32,60.24096386,62c50e9c1127f2cd403a315f,,,,,,
0,34,34,61,1,,5f9a98ffdc3cd11ab49e32f2,62c53a643b716069deedd1f7,2022-07-06_09h31.56.351,Colour_Asymmetry_Pilot,2022.1.3,Win32,60.24096386,62c50e9c1127f2cd403a315f,,,,,,
0,35,35,4,1,,5f9a98ffdc3cd11ab49e32f2,62c53a643b716069deedd1f7,2022-07-06_09h31.56.351,Colour_Asymmetry_Pilot,2022.1.3,Win32,60.24096386,62c50e9c1127f2cd403a315f,,,,,,
0,36,36,60,1,,5f9a98ffdc3cd11ab49e32f2,62c53a643b716069deedd1f7,2022-07-06_09h31.56.351,Colour_Asymmetry_Pilot,2022.1.3,Win32,60.24096386,62c50e9c1127f2cd403a315f,,,,,,
0,37,37,63,1,,5f9a98ffdc3cd11ab49e32f2,62c53a643b716069deedd1f7,2022-07-06_09h31.56.351,Colour_Asymmetry_Pilot,2022.1.3,Win32,60.24096386,62c50e9c1127f2cd403a315f,,,,,,
0,38,38,2,1,,5f9a98ffdc3cd11ab49e32f2,62c53a643b716069deedd1f7,2022-07-06_09h31.56.351,Colour_Asymmetry_Pilot,2022.1.3,Win32,60.24096386,62c50e9c1127f2cd403a315f,,,,,,
0,39,39,49,1,,5f9a98ffdc3cd11ab49e32f2,62c53a643b716069deedd1f7,2022-07-06_09h31.56.351,Colour_Asymmetry_Pilot,2022.1.3,Win32,60.24096386,62c50e9c1127f2cd403a315f,,,,,,
0,40,40,21,1,,5f9a98ffdc3cd11ab49e32f2,62c53a643b716069deedd1f7,2022-07-06_09h31.56.351,Colour_Asymmetry_Pilot,2022.1.3,Win32,60.24096386,62c50e9c1127f2cd403a315f,,,,,,
0,41,41,52,1,,5f9a98ffdc3cd11ab49e32f2,62c53a643b716069deedd1f7,2022-07-06_09h31.56.351,Colour_Asymmetry_Pilot,2022.1.3,Win32,60.24096386,62c50e9c1127f2cd403a315f,,,,,,
0,42,42,1,1,,5f9a98ffdc3cd11ab49e32f2,62c53a643b716069deedd1f7,2022-07-06_09h31.56.351,Colour_Asymmetry_Pilot,2022.1.3,Win32,60.24096386,62c50e9c1127f2cd403a315f,,,,,,
0,43,43,20,1,,5f9a98ffdc3cd11ab49e32f2,62c53a643b716069deedd1f7,2022-07-06_09h31.56.351,Colour_Asymmetry_Pilot,2022.1.3,Win32,60.24096386,62c50e9c1127f2cd403a315f,,,,,,
0,44,44,23,1,,5f9a98ffdc3cd11ab49e32f2,62c53a643b716069deedd1f7,2022-07-06_09h31.56.351,Colour_Asymmetry_Pilot,2022.1.3,Win32,60.24096386,62c50e9c1127f2cd403a315f,,,,,,
0,45,45,47,1,,5f9a98ffdc3cd11ab49e32f2,62c53a643b716069deedd1f7,2022-07-06_09h31.56.351,Colour_Asymmetry_Pilot,2022.1.3,Win32,60.24096386,62c50e9c1127f2cd403a315f,,,,,,
0,46,46,24,1,,5f9a98ffdc3cd11ab49e32f2,62c53a643b716069deedd1f7,2022-07-06_09h31.56.351,Colour_Asymmetry_Pilot,2022.1.3,Win32,60.24096386,62c50e9c1127f2cd403a315f,,,,,,
0,47,47,80,1,,5f9a98ffdc3cd11ab49e32f2,62c53a643b716069deedd1f7,2022-07-06_09h31.56.351,Colour_Asymmetry_Pilot,2022.1.3,Win32,60.24096386,62c50e9c1127f2cd403a315f,,,,,,
0,48,48,72,1,,5f9a98ffdc3cd11ab49e32f2,62c53a643b716069deedd1f7,2022-07-06_09h31.56.351,Colour_Asymmetry_Pilot,2022.1.3,Win32,60.24096386,62c50e9c1127f2cd403a315f,,,,,,
0,49,49,91,1,,5f9a98ffdc3cd11ab49e32f2,62c53a643b716069deedd1f7,2022-07-06_09h31.56.351,Colour_Asymmetry_Pilot,2022.1.3,Win32,60.24096386,62c50e9c1127f2cd403a315f,,,,,,
0,50,50,39,1,,5f9a98ffdc3cd11ab49e32f2,62c53a643b716069deedd1f7,2022-07-06_09h31.56.351,Colour_Asymmetry_Pilot,2022.1.3,Win32,60.24096386,62c50e9c1127f2cd403a315f,,,,,,
0,51,51,25,1,,5f9a98ffdc3cd11ab49e32f2,62c53a643b716069deedd1f7,2022-07-06_09h31.56.351,Colour_Asymmetry_Pilot,2022.1.3,Win32,60.24096386,62c50e9c1127f2cd403a315f,,,,,,
0,52,52,86,1,,5f9a98ffdc3cd11ab49e32f2,62c53a643b716069deedd1f7,2022-07-06_09h31.56.351,Colour_Asymmetry_Pilot,2022.1.3,Win32,60.24096386,62c50e9c1127f2cd403a315f,,,,,,
0,53,53,22,1,,5f9a98ffdc3cd11ab49e32f2,62c53a643b716069deedd1f7,2022-07-06_09h31.56.351,Colour_Asymmetry_Pilot,2022.1.3,Win32,60.24096386,62c50e9c1127f2cd403a315f,,,,,,
0,54,54,41,1,,5f9a98ffdc3cd11ab49e32f2,62c53a643b716069deedd1f7,2022-07-06_09h31.56.351,Colour_Asymmetry_Pilot,2022.1.3,Win32,60.24096386,62c50e9c1127f2cd403a315f,,,,,,
0,55,55,82,1,,5f9a98ffdc3cd11ab49e32f2,62c53a643b716069deedd1f7,2022-07-06_09h31.56.351,Colour_Asymmetry_Pilot,2022.1.3,Win32,60.24096386,62c50e9c1127f2cd403a315f,,,,,,
0,56,56,19,1,,5f9a98ffdc3cd11ab49e32f2,62c53a643b716069deedd1f7,2022-07-06_09h31.56.351,Colour_Asymmetry_Pilot,2022.1.3,Win32,60.24096386,62c50e9c1127f2cd403a315f,,,,,,
0,57,57,28,1,,5f9a98ffdc3cd11ab49e32f2,62c53a643b716069deedd1f7,2022-07-06_09h31.56.351,Colour_Asymmetry_Pilot,2022.1.3,Win32,60.24096386,62c50e9c1127f2cd403a315f,,,,,,
0,58,58,29,1,,5f9a98ffdc3cd11ab49e32f2,62c53a643b716069deedd1f7,2022-07-06_09h31.56.351,Colour_Asymmetry_Pilot,2022.1.3,Win32,60.24096386,62c50e9c1127f2cd403a315f,,,,,,
0,59,59,73,1,,5f9a98ffdc3cd11ab49e32f2,62c53a643b716069deedd1f7,2022-07-06_09h31.56.351,Colour_Asymmetry_Pilot,2022.1.3,Win32,60.24096386,62c50e9c1127f2cd403a315f,,,,,,
0,60,60,58,1,,5f9a98ffdc3cd11ab49e32f2,62c53a643b716069deedd1f7,2022-07-06_09h31.56.351,Colour_Asymmetry_Pilot,2022.1.3,Win32,60.24096386,62c50e9c1127f2cd403a315f,,,,,,
0,61,61,35,1,,5f9a98ffdc3cd11ab49e32f2,62c53a643b716069deedd1f7,2022-07-06_09h31.56.351,Colour_Asymmetry_Pilot,2022.1.3,Win32,60.24096386,62c50e9c1127f2cd403a315f,,,,,,
0,62,62,77,1,,5f9a98ffdc3cd11ab49e32f2,62c53a643b716069deedd1f7,2022-07-06_09h31.56.351,Colour_Asymmetry_Pilot,2022.1.3,Win32,60.24096386,62c50e9c1127f2cd403a315f,,,,,,
0,63,63,40,1,,5f9a98ffdc3cd11ab49e32f2,62c53a643b716069deedd1f7,2022-07-06_09h31.56.351,Colour_Asymmetry_Pilot,2022.1.3,Win32,60.24096386,62c50e9c1127f2cd403a315f,,,,,,
0,64,64,9,1,,5f9a98ffdc3cd11ab49e32f2,62c53a643b716069deedd1f7,2022-07-06_09h31.56.351,Colour_Asymmetry_Pilot,2022.1.3,Win32,60.24096386,62c50e9c1127f2cd403a315f,,,,,,
0,65,65,79,1,,5f9a98ffdc3cd11ab49e32f2,62c53a643b716069deedd1f7,2022-07-06_09h31.56.351,Colour_Asymmetry_Pilot,2022.1.3,Win32,60.24096386,62c50e9c1127f2cd403a315f,,,,,,
0,66,66,34,1,,5f9a98ffdc3cd11ab49e32f2,62c53a643b716069deedd1f7,2022-07-06_09h31.56.351,Colour_Asymmetry_Pilot,2022.1.3,Win32,60.24096386,62c50e9c1127f2cd403a315f,,,,,,
0,67,67,83,1,,5f9a98ffdc3cd11ab49e32f2,62c53a643b716069deedd1f7,2022-07-06_09h31.56.351,Colour_Asymmetry_Pilot,2022.1.3,Win32,60.24096386,62c50e9c1127f2cd403a315f,,,,,,
0,68,68,18,1,,5f9a98ffdc3cd11ab49e32f2,62c53a643b716069deedd1f7,2022-07-06_09h31.56.351,Colour_Asymmetry_Pilot,2022.1.3,Win32,60.24096386,62c50e9c1127f2cd403a315f,,,,,,
0,69,69,17,1,,5f9a98ffdc3cd11ab49e32f2,62c53a643b716069deedd1f7,2022-07-06_09h31.56.351,Colour_Asymmetry_Pilot,2022.1.3,Win32,60.24096386,62c50e9c1127f2cd403a315f,,,,,,
0,70,70,54,1,,5f9a98ffdc3cd11ab49e32f2,62c53a643b716069deedd1f7,2022-07-06_09h31.56.351,Colour_Asymmetry_Pilot,2022.1.3,Win32,60.24096386,62c50e9c1127f2cd403a315f,,,,,,
0,71,71,85,1,,5f9a98ffdc3cd11ab49e32f2,62c53a643b716069deedd1f7,2022-07-06_09h31.56.351,Colour_Asymmetry_Pilot,2022.1.3,Win32,60.24096386,62c50e9c1127f2cd403a315f,,,,,,
0,72,72,64,1,,5f9a98ffdc3cd11ab49e32f2,62c53a643b716069deedd1f7,2022-07-06_09h31.56.351,Colour_Asymmetry_Pilot,2022.1.3,Win32,60.24096386,62c50e9c1127f2cd403a315f,,,,,,
0,73,73,55,1,,5f9a98ffdc3cd11ab49e32f2,62c53a643b716069deedd1f7,2022-07-06_09h31.56.351,Colour_Asymmetry_Pilot,2022.1.3,Win32,60.24096386,62c50e9c1127f2cd403a315f,,,,,,
0,74,74,6,1,,5f9a98ffdc3cd11ab49e32f2,62c53a643b716069deedd1f7,2022-07-06_09h31.56.351,Colour_Asymmetry_Pilot,2022.1.3,Win32,60.24096386,62c50e9c1127f2cd403a315f,,,,,,
0,75,75,0,1,,5f9a98ffdc3cd11ab49e32f2,62c53a643b716069deedd1f7,2022-07-06_09h31.56.351,Colour_Asymmetry_Pilot,2022.1.3,Win32,60.24096386,62c50e9c1127f2cd403a315f,,,,,,
0,76,76,36,1,,5f9a98ffdc3cd11ab49e32f2,62c53a643b716069deedd1f7,2022-07-06_09h31.56.351,Colour_Asymmetry_Pilot,2022.1.3,Win32,60.24096386,62c50e9c1127f2cd403a315f,,,,,,
0,77,77,81,1,,5f9a98ffdc3cd11ab49e32f2,62c53a643b716069deedd1f7,2022-07-06_09h31.56.351,Colour_Asymmetry_Pilot,2022.1.3,Win32,60.24096386,62c50e9c1127f2cd403a315f,,,,,,
0,78,78,67,1,,5f9a98ffdc3cd11ab49e32f2,62c53a643b716069deedd1f7,2022-07-06_09h31.56.351,Colour_Asymmetry_Pilot,2022.1.3,Win32,60.24096386,62c50e9c1127f2cd403a315f,,,,,,
0,79,79,7,1,,5f9a98ffdc3cd11ab49e32f2,62c53a643b716069deedd1f7,2022-07-06_09h31.56.351,Colour_Asymmetry_Pilot,2022.1.3,Win32,60.24096386,62c50e9c1127f2cd403a315f,,,,,,
0,80,80,74,1,,5f9a98ffdc3cd11ab49e32f2,62c53a643b716069deedd1f7,2022-07-06_09h31.56.351,Colour_Asymmetry_Pilot,2022.1.3,Win32,60.24096386,62c50e9c1127f2cd403a315f,,,,,,
0,81,81,92,1,,5f9a98ffdc3cd11ab49e32f2,62c53a643b716069deedd1f7,2022-07-06_09h31.56.351,Colour_Asymmetry_Pilot,2022.1.3,Win32,60.24096386,62c50e9c1127f2cd403a315f,,,,,,
0,82,82,68,1,,5f9a98ffdc3cd11ab49e32f2,62c53a643b716069deedd1f7,2022-07-06_09h31.56.351,Colour_Asymmetry_Pilot,2022.1.3,Win32,60.24096386,62c50e9c1127f2cd403a315f,,,,,,
0,83,83,27,1,,5f9a98ffdc3cd11ab49e32f2,62c53a643b716069deedd1f7,2022-07-06_09h31.56.351,Colour_Asymmetry_Pilot,2022.1.3,Win32,60.24096386,62c50e9c1127f2cd403a315f,,,,,,
0,84,84,15,1,,5f9a98ffdc3cd11ab49e32f2,62c53a643b716069deedd1f7,2022-07-06_09h31.56.351,Colour_Asymmetry_Pilot,2022.1.3,Win32,60.24096386,62c50e9c1127f2cd403a315f,,,,,,
0,85,85,45,1,,5f9a98ffdc3cd11ab49e32f2,62c53a643b716069deedd1f7,2022-07-06_09h31.56.351,Colour_Asymmetry_Pilot,2022.1.3,Win32,60.24096386,62c50e9c1127f2cd403a315f,,,,,,
0,86,86,75,1,,5f9a98ffdc3cd11ab49e32f2,62c53a643b716069deedd1f7,2022-07-06_09h31.56.351,Colour_Asymmetry_Pilot,2022.1.3,Win32,60.24096386,62c50e9c1127f2cd403a315f,,,,,,
0,87,87,30,1,,5f9a98ffdc3cd11ab49e32f2,62c53a643b716069deedd1f7,2022-07-06_09h31.56.351,Colour_Asymmetry_Pilot,2022.1.3,Win32,60.24096386,62c50e9c1127f2cd403a315f,,,,,,
0,88,88,76,1,,5f9a98ffdc3cd11ab49e32f2,62c53a643b716069deedd1f7,2022-07-06_09h31.56.351,Colour_Asymmetry_Pilot,2022.1.3,Win32,60.24096386,62c50e9c1127f2cd403a315f,,,,,,
0,89,89,66,1,,5f9a98ffdc3cd11ab49e32f2,62c53a643b716069deedd1f7,2022-07-06_09h31.56.351,Colour_Asymmetry_Pilot,2022.1.3,Win32,60.24096386,62c50e9c1127f2cd403a315f,,,,,,
0,90,90,38,1,,5f9a98ffdc3cd11ab49e32f2,62c53a643b716069deedd1f7,2022-07-06_09h31.56.351,Colour_Asymmetry_Pilot,2022.1.3,Win32,60.24096386,62c50e9c1127f2cd403a315f,,,,,,
0,91,91,44,1,,5f9a98ffdc3cd11ab49e32f2,62c53a643b716069deedd1f7,2022-07-06_09h31.56.351,Colour_Asymmetry_Pilot,2022.1.3,Win32,60.24096386,62c50e9c1127f2cd403a315f,,,,,,
0,92,92,84,1,,5f9a98ffdc3cd11ab49e32f2,62c53a643b716069deedd1f7,2022-07-06_09h31.56.351,Colour_Asymmetry_Pilot,2022.1.3,Win32,60.24096386,62c50e9c1127f2cd403a315f,,,,,,
,,,,,,5f9a98ffdc3cd11ab49e32f2,62c53a643b716069deedd1f7,2022-07-06_09h31.56.351,Colour_Asymmetry_Pilot,2022.1.3,Win32,60.24096386,62c50e9c1127f2cd403a315f,0,0,0,93,1,threefour
,,,,,,5f9a98ffdc3cd11ab49e32f2,62c53a643b716069deedd1f7,2022-07-06_09h31.56.351,Colour_Asymmetry_Pilot,2022.1.3,Win32,60.24096386,62c50e9c1127f2cd403a315f,0,1,1,30,1,fourtwo
,,,,,,5f9a98ffdc3cd11ab49e32f2,62c53a643b716069deedd1f7,2022-07-06_09h31.56.351,Colour_Asymmetry_Pilot,2022.1.3,Win32,60.24096386,62c50e9c1127f2cd403a315f,0,2,2,70,1,fourtwo
,,,,,,5f9a98ffdc3cd11ab49e32f2,62c53a643b716069deedd1f7,2022-07-06_09h31.56.351,Colour_Asymmetry_Pilot,2022.1.3,Win32,60.24096386,62c50e9c1127f2cd403a315f,0,3,3,47,1,fourthree
,,,,,,5f9a98ffdc3cd11ab49e32f2,62c53a643b716069deedd1f7,2022-07-06_09h31.56.351,Colour_Asymmetry_Pilot,2022.1.3,Win32,60.24096386,62c50e9c1127f2cd403a315f,0,4,4,147,1,twofour
,,,,,,5f9a98ffdc3cd11ab49e32f2,62c53a643b716069deedd1f7,2022-07-06_09h31.56.351,Colour_Asymmetry_Pilot,2022.1.3,Win32,60.24096386,62c50e9c1127f2cd403a315f,0,5,5,25,1,onethree
,,,,,,5f9a98ffdc3cd11ab49e32f2,62c53a643b716069deedd1f7,2022-07-06_09h31.56.351,Colour_Asymmetry_Pilot,2022.1.3,Win32,60.24096386,62c50e9c1127f2cd403a315f,0,6,6,87,1,fourthree
,,,,,,5f9a98ffdc3cd11ab49e32f2,62c53a643b716069deedd1f7,2022-07-06_09h31.56.351,Colour_Asymmetry_Pilot,2022.1.3,Win32,60.24096386,62c50e9c1127f2cd403a315f,0,7,7,1,1,onethree
,,,,,,5f9a98ffdc3cd11ab49e32f2,62c53a643b716069deedd1f7,2022-07-06_09h31.56.351,Colour_Asymmetry_Pilot,2022.1.3,Win32,60.24096386,62c50e9c1127f2cd403a315f,0,8,8,13,1,threefour
,,,,,,5f9a98ffdc3cd11ab49e32f2,62c53a643b716069deedd1f7,2022-07-06_09h31.56.351,Colour_Asymmetry_Pilot,2022.1.3,Win32,60.24096386,62c50e9c1127f2cd403a315f,0,9,9,104,1,onetwo
,,,,,,5f9a98ffdc3cd11ab49e32f2,62c53a643b716069deedd1f7,2022-07-06_09h31.56.351,Colour_Asymmetry_Pilot,2022.1.3,Win32,60.24096386,62c50e9c1127f2cd403a315f,0,10,10,31,1,fourthree
,,,,,,5f9a98ffdc3cd11ab49e32f2,62c53a643b716069deedd1f7,2022-07-06_09h31.56.351,Colour_Asymmetry_Pilot,2022.1.3,Win32,60.24096386,62c50e9c1127f2cd403a315f,0,11,11,135,1,fourthree
,,,,,,5f9a98ffdc3cd11ab49e32f2,62c53a643b716069deedd1f7,2022-07-06_09h31.56.351,Colour_Asymmetry_Pilot,2022.1.3,Win32,60.24096386,62c50e9c1127f2cd403a315f,0,12,12,112,1,onetwo
,,,,,,5f9a98ffdc3cd11ab49e32f2,62c53a643b716069deedd1f7,2022-07-06_09h31.56.351,Colour_Asymmetry_Pilot,2022.1.3,Win32,60.24096386,62c50e9c1127f2cd403a315f,0,13,13,89,1,onethree
,,,,,,5f9a98ffdc3cd11ab49e32f2,62c53a643b716069deedd1f7,2022-07-06_09h31.56.351,Colour_Asymmetry_Pilot,2022.1.3,Win32,60.24096386,62c50e9c1127f2cd403a315f,0,14,14,141,1,threefour
,,,,,,5f9a98ffdc3cd11ab49e32f2,62c53a643b716069deedd1f7,2022-07-06_09h31.56.351,Colour_Asymmetry_Pilot,2022.1.3,Win32,60.24096386,62c50e9c1127f2cd403a315f,0,15,15,53,1,threefour
,,,,,,5f9a98ffdc3cd11ab49e32f2,62c53a643b716069deedd1f7,2022-07-06_09h31.56.351,Colour_Asymmetry_Pilot,2022.1.3,Win32,60.24096386,62c50e9c1127f2cd403a315f,0,16,16,128,1,onetwo
,,,,,,5f9a98ffdc3cd11ab49e32f2,62c53a643b716069deedd1f7,2022-07-06_09h31.56.351,Colour_Asymmetry_Pilot,2022.1.3,Win32,60.24096386,62c50e9c1127f2cd403a315f,0,17,17,75,1,twofour
,,,,,,5f9a98ffdc3cd11ab49e32f2,62c53a643b716069deedd1f7,2022-07-06_09h31.56.351,Colour_Asymmetry_Pilot,2022.1.3,Win32,60.24096386,62c50e9c1127f2cd403a315f,0,18,18,56,1,onetwo
,,,,,,5f9a98ffdc3cd11ab49e32f2,62c53a643b716069deedd1f7,2022-07-06_09h31.56.351,Colour_Asymmetry_Pilot,2022.1.3,Win32,60.24096386,62c50e9c1127f2cd403a315f,0,19,19,120,1,onetwo
,,,,,,5f9a98ffdc3cd11ab49e32f2,62c53a643b716069deedd1f7,2022-07-06_09h31.56.351,Colour_Asymmetry_Pilot,2022.1.3,Win32,60.24096386,62c50e9c1127f2cd403a315f,0,20,20,131,1,twofour
,,,,,,5f9a98ffdc3cd11ab49e32f2,62c53a643b716069deedd1f7,2022-07-06_09h31.56.351,Colour_Asymmetry_Pilot,2022.1.3,Win32,60.24096386,62c50e9c1127f2cd403a315f,0,21,21,76,1,threeone
,,,,,,5f9a98ffdc3cd11ab49e32f2,62c53a643b716069deedd1f7,2022-07-06_09h31.56.351,Colour_Asymmetry_Pilot,2022.1.3,Win32,60.24096386,62c50e9c1127f2cd403a315f,0,22,22,49,1,onethree
,,,,,,5f9a98ffdc3cd11ab49e32f2,62c53a643b716069deedd1f7,2022-07-06_09h31.56.351,Colour_Asymmetry_Pilot,2022.1.3,Win32,60.24096386,62c50e9c1127f2cd403a315f,0,23,23,9,1,onethree
,,,,,,5f9a98ffdc3cd11ab49e32f2,62c53a643b716069deedd1f7,2022-07-06_09h31.56.351,Colour_Asymmetry_Pilot,2022.1.3,Win32,60.24096386,62c50e9c1127f2cd403a315f,0,24,24,74,1,twoone
,,,,,,5f9a98ffdc3cd11ab49e32f2,62c53a643b716069deedd1f7,2022-07-06_09h31.56.351,Colour_Asymmetry_Pilot,2022.1.3,Win32,60.24096386,62c50e9c1127f2cd403a315f,0,25,25,90,1,twoone
,,,,,,5f9a98ffdc3cd11ab49e32f2,62c53a643b716069deedd1f7,2022-07-06_09h31.56.351,Colour_Asymmetry_Pilot,2022.1.3,Win32,60.24096386,62c50e9c1127f2cd403a315f,0,26,26,14,1,fourtwo
,,,,,,5f9a98ffdc3cd11ab49e32f2,62c53a643b716069deedd1f7,2022-07-06_09h31.56.351,Colour_Asymmetry_Pilot,2022.1.3,Win32,60.24096386,62c50e9c1127f2cd403a315f,0,27,27,102,1,fourtwo
,,,,,,5f9a98ffdc3cd11ab49e32f2,62c53a643b716069deedd1f7,2022-07-06_09h31.56.351,Colour_Asymmetry_Pilot,2022.1.3,Win32,60.24096386,62c50e9c1127f2cd403a315f,0,28,28,77,1,threefour
,,,,,,5f9a98ffdc3cd11ab49e32f2,62c53a643b716069deedd1f7,2022-07-06_09h31.56.351,Colour_Asymmetry_Pilot,2022.1.3,Win32,60.24096386,62c50e9c1127f2cd403a315f,0,29,29,81,1,onethree
,,,,,,5f9a98ffdc3cd11ab49e32f2,62c53a643b716069deedd1f7,2022-07-06_09h31.56.351,Colour_Asymmetry_Pilot,2022.1.3,Win32,60.24096386,62c50e9c1127f2cd403a315f,0,30,30,132,1,threeone
,,,,,,5f9a98ffdc3cd11ab49e32f2,62c53a643b716069deedd1f7,2022-07-06_09h31.56.351,Colour_Asymmetry_Pilot,2022.1.3,Win32,60.24096386,62c50e9c1127f2cd403a315f,0,31,31,142,1,fourtwo
,,,,,,5f9a98ffdc3cd11ab49e32f2,62c53a643b716069deedd1f7,2022-07-06_09h31.56.351,Colour_Asymmetry_Pilot,2022.1.3,Win32,60.24096386,62c50e9c1127f2cd403a315f,0,32,32,145,1,onethree
,,,,,,5f9a98ffdc3cd11ab49e32f2,62c53a643b716069deedd1f7,2022-07-06_09h31.56.351,Colour_Asymmetry_Pilot,2022.1.3,Win32,60.24096386,62c50e9c1127f2cd403a315f,0,33,33,85,1,threefour
,,,,,,5f9a98ffdc3cd11ab49e32f2,62c53a643b716069deedd1f7,2022-07-06_09h31.56.351,Colour_Asymmetry_Pilot,2022.1.3,Win32,60.24096386,62c50e9c1127f2cd403a315f,0,34,34,50,1,twoone
,,,,,,5f9a98ffdc3cd11ab49e32f2,62c53a643b716069deedd1f7,2022-07-06_09h31.56.351,Colour_Asymmetry_Pilot,2022.1.3,Win32,60.24096386,62c50e9c1127f2cd403a315f,0,35,35,83,1,twofour
,,,,,,5f9a98ffdc3cd11ab49e32f2,62c53a643b716069deedd1f7,2022-07-06_09h31.56.351,Colour_Asymmetry_Pilot,2022.1.3,Win32,60.24096386,62c50e9c1127f2cd403a315f,0,36,36,19,1,twofour
,,,,,,5f9a98ffdc3cd11ab49e32f2,62c53a643b716069deedd1f7,2022-07-06_09h31.56.351,Colour_Asymmetry_Pilot,2022.1.3,Win32,60.24096386,62c50e9c1127f2cd403a315f,0,37,37,121,1,onethree
,,,,,,5f9a98ffdc3cd11ab49e32f2,62c53a643b716069deedd1f7,2022-07-06_09h31.56.351,Colour_Asymmetry_Pilot,2022.1.3,Win32,60.24096386,62c50e9c1127f2cd403a315f,0,38,38,71,1,fourthree
,,,,,,5f9a98ffdc3cd11ab49e32f2,62c53a643b716069deedd1f7,2022-07-06_09h31.56.351,Colour_Asymmetry_Pilot,2022.1.3,Win32,60.24096386,62c50e9c1127f2cd403a315f,0,39,39,114,1,twoone
,,,,,,5f9a98ffdc3cd11ab49e32f2,62c53a643b716069deedd1f7,2022-07-06_09h31.56.351,Colour_Asymmetry_Pilot,2022.1.3,Win32,60.24096386,62c50e9c1127f2cd403a315f,0,40,40,105,1,onethree
,,,,,,5f9a98ffdc3cd11ab49e32f2,62c53a643b716069deedd1f7,2022-07-06_09h31.56.351,Colour_Asymmetry_Pilot,2022.1.3,Win32,60.24096386,62c50e9c1127f2cd403a315f,0,41,41,8,1,onetwo
,,,,,,5f9a98ffdc3cd11ab49e32f2,62c53a643b716069deedd1f7,2022-07-06_09h31.56.351,Colour_Asymmetry_Pilot,2022.1.3,Win32,60.24096386,62c50e9c1127f2cd403a315f,0,42,42,144,1,onetwo
,,,,,,5f9a98ffdc3cd11ab49e32f2,62c53a643b716069deedd1f7,2022-07-06_09h31.56.351,Colour_Asymmetry_Pilot,2022.1.3,Win32,60.24096386,62c50e9c1127f2cd403a315f,0,43,43,43,1,twofour
,,,,,,5f9a98ffdc3cd11ab49e32f2,62c53a643b716069deedd1f7,2022-07-06_09h31.56.351,Colour_Asymmetry_Pilot,2022.1.3,Win32,60.24096386,62c50e9c1127f2cd403a315f,0,44,44,68,1,threeone
,,,,,,5f9a98ffdc3cd11ab49e32f2,62c53a643b716069deedd1f7,2022-07-06_09h31.56.351,Colour_Asymmetry_Pilot,2022.1.3,Win32,60.24096386,62c50e9c1127f2cd403a315f,0,45,45,6,1,fourtwo
,,,,,,5f9a98ffdc3cd11ab49e32f2,62c53a643b716069deedd1f7,2022-07-06_09h31.56.351,Colour_Asymmetry_Pilot,2022.1.3,Win32,60.24096386,62c50e9c1127f2cd403a315f,0,46,46,122,1,twoone
,,,,,,5f9a98ffdc3cd11ab49e32f2,62c53a643b716069deedd1f7,2022-07-06_09h31.56.351,Colour_Asymmetry_Pilot,2022.1.3,Win32,60.24096386,62c50e9c1127f2cd403a315f,0,47,47,52,1,threeone
,,,,,,5f9a98ffdc3cd11ab49e32f2,62c53a643b716069deedd1f7,2022-07-06_09h31.56.351,Colour_Asymmetry_Pilot,2022.1.3,Win32,60.24096386,62c50e9c1127f2cd403a315f,0,48,48,65,1,onethree
,,,,,,5f9a98ffdc3cd11ab49e32f2,62c53a643b716069deedd1f7,2022-07-06_09h31.56.351,Colour_Asymmetry_Pilot,2022.1.3,Win32,60.24096386,62c50e9c1127f2cd403a315f,0,49,49,46,1,fourtwo
,,,,,,5f9a98ffdc3cd11ab49e32f2,62c53a643b716069deedd1f7,2022-07-06_09h31.56.351,Colour_Asymmetry_Pilot,2022.1.3,Win32,60.24096386,62c50e9c1127f2cd403a315f,0,50,50,151,1,fourthree
,,,,,,5f9a98ffdc3cd11ab49e32f2,62c53a643b716069deedd1f7,2022-07-06_09h31.56.351,Colour_Asymmetry_Pilot,2022.1.3,Win32,60.24096386,62c50e9c1127f2cd403a315f,0,51,51,92,1,threeone
,,,,,,5f9a98ffdc3cd11ab49e32f2,62c53a643b716069deedd1f7,2022-07-06_09h31.56.351,Colour_Asymmetry_Pilot,2022.1.3,Win32,60.24096386,62c50e9c1127f2cd403a315f,0,52,52,61,1,threefour
,,,,,,5f9a98ffdc3cd11ab49e32f2,62c53a643b716069deedd1f7,2022-07-06_09h31.56.351,Colour_Asymmetry_Pilot,2022.1.3,Win32,60.24096386,62c50e9c1127f2cd403a315f,0,53,53,79,1,fourthree
,,,,,,5f9a98ffdc3cd11ab49e32f2,62c53a643b716069deedd1f7,2022-07-06_09h31.56.351,Colour_Asymmetry_Pilot,2022.1.3,Win32,60.24096386,62c50e9c1127f2cd403a315f,0,54,54,7,1,fourthree
,,,,,,5f9a98ffdc3cd11ab49e32f2,62c53a643b716069deedd1f7,2022-07-06_09h31.56.351,Colour_Asymmetry_Pilot,2022.1.3,Win32,60.24096386,62c50e9c1127f2cd403a315f,0,55,55,111,1,fourthree
,,,,,,5f9a98ffdc3cd11ab49e32f2,62c53a643b716069deedd1f7,2022-07-06_09h31.56.351,Colour_Asymmetry_Pilot,2022.1.3,Win32,60.24096386,62c50e9c1127f2cd403a315f,0,56,56,107,1,twofour
,,,,,,5f9a98ffdc3cd11ab49e32f2,62c53a643b716069deedd1f7,2022-07-06_09h31.56.351,Colour_Asymmetry_Pilot,2022.1.3,Win32,60.24096386,62c50e9c1127f2cd403a315f,0,57,57,54,1,fourtwo
,,,,,,5f9a98ffdc3cd11ab49e32f2,62c53a643b716069deedd1f7,2022-07-06_09h31.56.351,Colour_Asymmetry_Pilot,2022.1.3,Win32,60.24096386,62c50e9c1127f2cd403a315f,0,58,58,113,1,onethree
,,,,,,5f9a98ffdc3cd11ab49e32f2,62c53a643b716069deedd1f7,2022-07-06_09h31.56.351,Colour_Asymmetry_Pilot,2022.1.3,Win32,60.24096386,62c50e9c1127f2cd403a315f,0,59,59,158,1,fourtwo
,,,,,,5f9a98ffdc3cd11ab49e32f2,62c53a643b716069deedd1f7,2022-07-06_09h31.56.351,Colour_Asymmetry_Pilot,2022.1.3,Win32,60.24096386,62c50e9c1127f2cd403a315f,0,60,60,149,1,threefour
,,,,,,5f9a98ffdc3cd11ab49e32f2,62c53a643b716069deedd1f7,2022-07-06_09h31.56.351,Colour_Asymmetry_Pilot,2022.1.3,Win32,60.24096386,62c50e9c1127f2cd403a315f,0,61,61,110,1,fourtwo
,,,,,,5f9a98ffdc3cd11ab49e32f2,62c53a643b716069deedd1f7,2022-07-06_09h31.56.351,Colour_Asymmetry_Pilot,2022.1.3,Win32,60.24096386,62c50e9c1127f2cd403a315f,0,62,62,98,1,twoone
,,,,,,5f9a98ffdc3cd11ab49e32f2,62c53a643b716069deedd1f7,2022-07-06_09h31.56.351,Colour_Asymmetry_Pilot,2022.1.3,Win32,60.24096386,62c50e9c1127f2cd403a315f,0,63,63,108,1,threeone
,,,,,,5f9a98ffdc3cd11ab49e32f2,62c53a643b716069deedd1f7,2022-07-06_09h31.56.351,Colour_Asymmetry_Pilot,2022.1.3,Win32,60.24096386,62c50e9c1127f2cd403a315f,0,64,64,124,1,threeone
,,,,,,5f9a98ffdc3cd11ab49e32f2,62c53a643b716069deedd1f7,2022-07-06_09h31.56.351,Colour_Asymmetry_Pilot,2022.1.3,Win32,60.24096386,62c50e9c1127f2cd403a315f,0,65,65,32,1,onetwo
,,,,,,5f9a98ffdc3cd11ab49e32f2,62c53a643b716069deedd1f7,2022-07-06_09h31.56.351,Colour_Asymmetry_Pilot,2022.1.3,Win32,60.24096386,62c50e9c1127f2cd403a315f,0,66,66,20,1,threeone
,,,,,,5f9a98ffdc3cd11ab49e32f2,62c53a643b716069deedd1f7,2022-07-06_09h31.56.351,Colour_Asymmetry_Pilot,2022.1.3,Win32,60.24096386,62c50e9c1127f2cd403a315f,0,67,67,157,1,threefour
,,,,,,5f9a98ffdc3cd11ab49e32f2,62c53a643b716069deedd1f7,2022-07-06_09h31.56.351,Colour_Asymmetry_Pilot,2022.1.3,Win32,60.24096386,62c50e9c1127f2cd403a315f,0,68,68,78,1,fourtwo
,,,,,,5f9a98ffdc3cd11ab49e32f2,62c53a643b716069deedd1f7,2022-07-06_09h31.56.351,Colour_Asymmetry_Pilot,2022.1.3,Win32,60.24096386,62c50e9c1127f2cd403a315f,0,69,69,86,1,fourtwo
,,,,,,5f9a98ffdc3cd11ab49e32f2,62c53a643b716069deedd1f7,2022-07-06_09h31.56.351,Colour_Asymmetry_Pilot,2022.1.3,Win32,60.24096386,62c50e9c1127f2cd403a315f,0,70,70,152,1,onetwo
,,,,,,5f9a98ffdc3cd11ab49e32f2,62c53a643b716069deedd1f7,2022-07-06_09h31.56.351,Colour_Asymmetry_Pilot,2022.1.3,Win32,60.24096386,62c50e9c1127f2cd403a315f,0,71,71,103,1,fourthree
,,,,,,5f9a98ffdc3cd11ab49e32f2,62c53a643b716069deedd1f7,2022-07-06_09h31.56.351,Colour_Asymmetry_Pilot,2022.1.3,Win32,60.24096386,62c50e9c1127f2cd403a315f,0,72,72,69,1,threefour
,,,,,,5f9a98ffdc3cd11ab49e32f2,62c53a643b716069deedd1f7,2022-07-06_09h31.56.351,Colour_Asymmetry_Pilot,2022.1.3,Win32,60.24096386,62c50e9c1127f2cd403a315f,0,73,73,4,1,threeone
,,,,,,5f9a98ffdc3cd11ab49e32f2,62c53a643b716069deedd1f7,2022-07-06_09h31.56.351,Colour_Asymmetry_Pilot,2022.1.3,Win32,60.24096386,62c50e9c1127f2cd403a315f,0,74,74,66,1,twoone
,,,,,,5f9a98ffdc3cd11ab49e32f2,62c53a643b716069deedd1f7,2022-07-06_09h31.56.351,Colour_Asymmetry_Pilot,2022.1.3,Win32,60.24096386,62c50e9c1127f2cd403a315f,0,75,75,80,1,onetwo
,,,,,,5f9a98ffdc3cd11ab49e32f2,62c53a643b716069deedd1f7,2022-07-06_09h31.56.351,Colour_Asymmetry_Pilot,2022.1.3,Win32,60.24096386,62c50e9c1127f2cd403a315f,0,76,76,63,1,fourthree
,,,,,,5f9a98ffdc3cd11ab49e32f2,62c53a643b716069deedd1f7,2022-07-06_09h31.56.351,Colour_Asymmetry_Pilot,2022.1.3,Win32,60.24096386,62c50e9c1127f2cd403a315f,0,77,77,91,1,twofour
,,,,,,5f9a98ffdc3cd11ab49e32f2,62c53a643b716069deedd1f7,2022-07-06_09h31.56.351,Colour_Asymmetry_Pilot,2022.1.3,Win32,60.24096386,62c50e9c1127f2cd403a315f,0,78,78,41,1,onethree
,,,,,,5f9a98ffdc3cd11ab49e32f2,62c53a643b716069deedd1f7,2022-07-06_09h31.56.351,Colour_Asymmetry_Pilot,2022.1.3,Win32,60.24096386,62c50e9c1127f2cd403a315f,0,79,79,15,1,fourthree
,,,,,,5f9a98ffdc3cd11ab49e32f2,62c53a643b716069deedd1f7,2022-07-06_09h31.56.351,Colour_Asymmetry_Pilot,2022.1.3,Win32,60.24096386,62c50e9c1127f2cd403a315f,0,80,80,38,1,fourtwo
,,,,,,5f9a98ffdc3cd11ab49e32f2,62c53a643b716069deedd1f7,2022-07-06_09h31.56.351,Colour_Asymmetry_Pilot,2022.1.3,Win32,60.24096386,62c50e9c1127f2cd403a315f,0,81,81,156,1,threeone
,,,,,,5f9a98ffdc3cd11ab49e32f2,62c53a643b716069deedd1f7,2022-07-06_09h31.56.351,Colour_Asymmetry_Pilot,2022.1.3,Win32,60.24096386,62c50e9c1127f2cd403a315f,0,82,82,12,1,threeone
,,,,,,5f9a98ffdc3cd11ab49e32f2,62c53a643b716069deedd1f7,2022-07-06_09h31.56.351,Colour_Asymmetry_Pilot,2022.1.3,Win32,60.24096386,62c50e9c1127f2cd403a315f,0,83,83,36,1,threeone
,,,,,,5f9a98ffdc3cd11ab49e32f2,62c53a643b716069deedd1f7,2022-07-06_09h31.56.351,Colour_Asymmetry_Pilot,2022.1.3,Win32,60.24096386,62c50e9c1127f2cd403a315f,0,84,84,59,1,twofour
,,,,,,5f9a98ffdc3cd11ab49e32f2,62c53a643b716069deedd1f7,2022-07-06_09h31.56.351,Colour_Asymmetry_Pilot,2022.1.3,Win32,60.24096386,62c50e9c1127f2cd403a315f,0,85,85,118,1,fourtwo
,,,,,,5f9a98ffdc3cd11ab49e32f2,62c53a643b716069deedd1f7,2022-07-06_09h31.56.351,Colour_Asymmetry_Pilot,2022.1.3,Win32,60.24096386,62c50e9c1127f2cd403a315f,0,86,86,99,1,twofour
,,,,,,5f9a98ffdc3cd11ab49e32f2,62c53a643b716069deedd1f7,2022-07-06_09h31.56.351,Colour_Asymmetry_Pilot,2022.1.3,Win32,60.24096386,62c50e9c1127f2cd403a315f,0,87,87,34,1,twoone
,,,,,,5f9a98ffdc3cd11ab49e32f2,62c53a643b716069deedd1f7,2022-07-06_09h31.56.351,Colour_Asymmetry_Pilot,2022.1.3,Win32,60.24096386,62c50e9c1127f2cd403a315f,0,88,88,140,1,threeone
,,,,,,5f9a98ffdc3cd11ab49e32f2,62c53a643b716069deedd1f7,2022-07-06_09h31.56.351,Colour_Asymmetry_Pilot,2022.1.3,Win32,60.24096386,62c50e9c1127f2cd403a315f,0,89,89,139,1,twofour
,,,,,,5f9a98ffdc3cd11ab49e32f2,62c53a643b716069deedd1f7,2022-07-06_09h31.56.351,Colour_Asymmetry_Pilot,2022.1.3,Win32,60.24096386,62c50e9c1127f2cd403a315f,0,90,90,29,1,threefour
,,,,,,5f9a98ffdc3cd11ab49e32f2,62c53a643b716069deedd1f7,2022-07-06_09h31.56.351,Colour_Asymmetry_Pilot,2022.1.3,Win32,60.24096386,62c50e9c1127f2cd403a315f,0,91,91,155,1,twofour
,,,,,,5f9a98ffdc3cd11ab49e32f2,62c53a643b716069deedd1f7,2022-07-06_09h31.56.351,Colour_Asymmetry_Pilot,2022.1.3,Win32,60.24096386,62c50e9c1127f2cd403a315f,0,92,92,95,1,fourthree
,,,,,,5f9a98ffdc3cd11ab49e32f2,62c53a643b716069deedd1f7,2022-07-06_09h31.56.351,Colour_Asymmetry_Pilot,2022.1.3,Win32,60.24096386,62c50e9c1127f2cd403a315f,0,93,93,134,1,fourtwo
,,,,,,5f9a98ffdc3cd11ab49e32f2,62c53a643b716069deedd1f7,2022-07-06_09h31.56.351,Colour_Asymmetry_Pilot,2022.1.3,Win32,60.24096386,62c50e9c1127f2cd403a315f,0,94,94,33,1,onethree
,,,,,,5f9a98ffdc3cd11ab49e32f2,62c53a643b716069deedd1f7,2022-07-06_09h31.56.351,Colour_Asymmetry_Pilot,2022.1.3,Win32,60.24096386,62c50e9c1127f2cd403a315f,0,95,95,94,1,fourtwo
,,,,,,5f9a98ffdc3cd11ab49e32f2,62c53a643b716069deedd1f7,2022-07-06_09h31.56.351,Colour_Asymmetry_Pilot,2022.1.3,Win32,60.24096386,62c50e9c1127f2cd403a315f,0,96,96,101,1,threefour
,,,,,,5f9a98ffdc3cd11ab49e32f2,62c53a643b716069deedd1f7,2022-07-06_09h31.56.351,Colour_Asymmetry_Pilot,2022.1.3,Win32,60.24096386,62c50e9c1127f2cd403a315f,0,97,97,26,1,twoone
,,,,,,5f9a98ffdc3cd11ab49e32f2,62c53a643b716069deedd1f7,2022-07-06_09h31.56.351,Colour_Asymmetry_Pilot,2022.1.3,Win32,60.24096386,62c50e9c1127f2cd403a315f,0,98,98,88,1,onetwo
,,,,,,5f9a98ffdc3cd11ab49e32f2,62c53a643b716069deedd1f7,2022-07-06_09h31.56.351,Colour_Asymmetry_Pilot,2022.1.3,Win32,60.24096386,62c50e9c1127f2cd403a315f,0,99,99,72,1,onetwo
,,,,,,5f9a98ffdc3cd11ab49e32f2,62c53a643b716069deedd1f7,2022-07-06_09h31.56.351,Colour_Asymmetry_Pilot,2022.1.3,Win32,60.24096386,62c50e9c1127f2cd403a315f,0,100,100,17,1,onethree
,,,,,,5f9a98ffdc3cd11ab49e32f2,62c53a643b716069deedd1f7,2022-07-06_09h31.56.351,Colour_Asymmetry_Pilot,2022.1.3,Win32,60.24096386,62c50e9c1127f2cd403a315f,0,101,101,125,1,threefour
,,,,,,5f9a98ffdc3cd11ab49e32f2,62c53a643b716069deedd1f7,2022-07-06_09h31.56.351,Colour_Asymmetry_Pilot,2022.1.3,Win32,60.24096386,62c50e9c1127f2cd403a315f,0,102,102,42,1,twoone
,,,,,,5f9a98ffdc3cd11ab49e32f2,62c53a643b716069deedd1f7,2022-07-06_09h31.56.351,Colour_Asymmetry_Pilot,2022.1.3,Win32,60.24096386,62c50e9c1127f2cd403a315f,0,103,103,143,1,fourthree
,,,,,,5f9a98ffdc3cd11ab49e32f2,62c53a643b716069deedd1f7,2022-07-06_09h31.56.351,Colour_Asymmetry_Pilot,2022.1.3,Win32,60.24096386,62c50e9c1127f2cd403a315f,0,104,104,51,1,twofour
,,,,,,5f9a98ffdc3cd11ab49e32f2,62c53a643b716069deedd1f7,2022-07-06_09h31.56.351,Colour_Asymmetry_Pilot,2022.1.3,Win32,60.24096386,62c50e9c1127f2cd403a315f,0,105,105,18,1,twoone
,,,,,,5f9a98ffdc3cd11ab49e32f2,62c53a643b716069deedd1f7,2022-07-06_09h31.56.351,Colour_Asymmetry_Pilot,2022.1.3,Win32,60.24096386,62c50e9c1127f2cd403a315f,0,106,106,82,1,twoone
,,,,,,5f9a98ffdc3cd11ab49e32f2,62c53a643b716069deedd1f7,2022-07-06_09h31.56.351,Colour_Asymmetry_Pilot,2022.1.3,Win32,60.24096386,62c50e9c1127f2cd403a315f,0,107,107,136,1,onetwo
,,,,,,5f9a98ffdc3cd11ab49e32f2,62c53a643b716069deedd1f7,2022-07-06_09h31.56.351,Colour_Asymmetry_Pilot,2022.1.3,Win32,60.24096386,62c50e9c1127f2cd403a315f,0,108,108,117,1,threefour
,,,,,,5f9a98ffdc3cd11ab49e32f2,62c53a643b716069deedd1f7,2022-07-06_09h31.56.351,Colour_Asymmetry_Pilot,2022.1.3,Win32,60.24096386,62c50e9c1127f2cd403a315f,0,109,109,16,1,onetwo
,,,,,,5f9a98ffdc3cd11ab49e32f2,62c53a643b716069deedd1f7,2022-07-06_09h31.56.351,Colour_Asymmetry_Pilot,2022.1.3,Win32,60.24096386,62c50e9c1127f2cd403a315f,0,110,110,137,1,onethree
,,,,,,5f9a98ffdc3cd11ab49e32f2,62c53a643b716069deedd1f7,2022-07-06_09h31.56.351,Colour_Asymmetry_Pilot,2022.1.3,Win32,60.24096386,62c50e9c1127f2cd403a315f,0,111,111,159,1,fourthree
,,,,,,5f9a98ffdc3cd11ab49e32f2,62c53a643b716069deedd1f7,2022-07-06_09h31.56.351,Colour_Asymmetry_Pilot,2022.1.3,Win32,60.24096386,62c50e9c1127f2cd403a315f,0,112,112,138,1,twoone
,,,,,,5f9a98ffdc3cd11ab49e32f2,62c53a643b716069deedd1f7,2022-07-06_09h31.56.351,Colour_Asymmetry_Pilot,2022.1.3,Win32,60.24096386,62c50e9c1127f2cd403a315f,0,113,113,161,1,onethree
,,,,,,5f9a98ffdc3cd11ab49e32f2,62c53a643b716069deedd1f7,2022-07-06_09h31.56.351,Colour_Asymmetry_Pilot,2022.1.3,Win32,60.24096386,62c50e9c1127f2cd403a315f,0,114,114,39,1,fourthree
,,,,,,5f9a98ffdc3cd11ab49e32f2,62c53a643b716069deedd1f7,2022-07-06_09h31.56.351,Colour_Asymmetry_Pilot,2022.1.3,Win32,60.24096386,62c50e9c1127f2cd403a315f,0,115,115,97,1,onethree
,,,,,,5f9a98ffdc3cd11ab49e32f2,62c53a643b716069deedd1f7,2022-07-06_09h31.56.351,Colour_Asymmetry_Pilot,2022.1.3,Win32,60.24096386,62c50e9c1127f2cd403a315f,0,116,116,44,1,threeone
,,,,,,5f9a98ffdc3cd11ab49e32f2,62c53a643b716069deedd1f7,2022-07-06_09h31.56.351,Colour_Asymmetry_Pilot,2022.1.3,Win32,60.24096386,62c50e9c1127f2cd403a315f,0,117,117,24,1,onetwo
,,,,,,5f9a98ffdc3cd11ab49e32f2,62c53a643b716069deedd1f7,2022-07-06_09h31.56.351,Colour_Asymmetry_Pilot,2022.1.3,Win32,60.24096386,62c50e9c1127f2cd403a315f,0,118,118,11,1,twofour
,,,,,,5f9a98ffdc3cd11ab49e32f2,62c53a643b716069deedd1f7,2022-07-06_09h31.56.351,Colour_Asymmetry_Pilot,2022.1.3,Win32,60.24096386,62c50e9c1127f2cd403a315f,0,119,119,23,1,fourthree
,,,,,,5f9a98ffdc3cd11ab49e32f2,62c53a643b716069deedd1f7,2022-07-06_09h31.56.351,Colour_Asymmetry_Pilot,2022.1.3,Win32,60.24096386,62c50e9c1127f2cd403a315f,0,120,120,2,1,twoone
,,,,,,5f9a98ffdc3cd11ab49e32f2,62c53a643b716069deedd1f7,2022-07-06_09h31.56.351,Colour_Asymmetry_Pilot,2022.1.3,Win32,60.24096386,62c50e9c1127f2cd403a315f,0,121,121,64,1,onetwo
,,,,,,5f9a98ffdc3cd11ab49e32f2,62c53a643b716069deedd1f7,2022-07-06_09h31.56.351,Colour_Asymmetry_Pilot,2022.1.3,Win32,60.24096386,62c50e9c1127f2cd403a315f,0,122,122,55,1,fourthree
,,,,,,5f9a98ffdc3cd11ab49e32f2,62c53a643b716069deedd1f7,2022-07-06_09h31.56.351,Colour_Asymmetry_Pilot,2022.1.3,Win32,60.24096386,62c50e9c1127f2cd403a315f,0,123,123,27,1,twofour
,,,,,,5f9a98ffdc3cd11ab49e32f2,62c53a643b716069deedd1f7,2022-07-06_09h31.56.351,Colour_Asymmetry_Pilot,2022.1.3,Win32,60.24096386,62c50e9c1127f2cd403a315f,0,124,124,28,1,threeone
,,,,,,5f9a98ffdc3cd11ab49e32f2,62c53a643b716069deedd1f7,2022-07-06_09h31.56.351,Colour_Asymmetry_Pilot,2022.1.3,Win32,60.24096386,62c50e9c1127f2cd403a315f,0,125,125,115,1,twofour
,,,,,,5f9a98ffdc3cd11ab49e32f2,62c53a643b716069deedd1f7,2022-07-06_09h31.56.351,Colour_Asymmetry_Pilot,2022.1.3,Win32,60.24096386,62c50e9c1127f2cd403a315f,0,126,126,119,1,fourthree
,,,,,,5f9a98ffdc3cd11ab49e32f2,62c53a643b716069deedd1f7,2022-07-06_09h31.56.351,Colour_Asymmetry_Pilot,2022.1.3,Win32,60.24096386,62c50e9c1127f2cd403a315f,0,127,127,146,1,twoone
,,,,,,5f9a98ffdc3cd11ab49e32f2,62c53a643b716069deedd1f7,2022-07-06_09h31.56.351,Colour_Asymmetry_Pilot,2022.1.3,Win32,60.24096386,62c50e9c1127f2cd403a315f,0,128,128,73,1,onethree
,,,,,,5f9a98ffdc3cd11ab49e32f2,62c53a643b716069deedd1f7,2022-07-06_09h31.56.351,Colour_Asymmetry_Pilot,2022.1.3,Win32,60.24096386,62c50e9c1127f2cd403a315f,0,129,129,130,1,twoone
,,,,,,5f9a98ffdc3cd11ab49e32f2,62c53a643b716069deedd1f7,2022-07-06_09h31.56.351,Colour_Asymmetry_Pilot,2022.1.3,Win32,60.24096386,62c50e9c1127f2cd403a315f,0,130,130,62,1,fourtwo
,,,,,,5f9a98ffdc3cd11ab49e32f2,62c53a643b716069deedd1f7,2022-07-06_09h31.56.351,Colour_Asymmetry_Pilot,2022.1.3,Win32,60.24096386,62c50e9c1127f2cd403a315f,0,131,131,60,1,threeone
,,,,,,5f9a98ffdc3cd11ab49e32f2,62c53a643b716069deedd1f7,2022-07-06_09h31.56.351,Colour_Asymmetry_Pilot,2022.1.3,Win32,60.24096386,62c50e9c1127f2cd403a315f,0,132,132,22,1,fourtwo
,,,,,,5f9a98ffdc3cd11ab49e32f2,62c53a643b716069deedd1f7,2022-07-06_09h31.56.351,Colour_Asymmetry_Pilot,2022.1.3,Win32,60.24096386,62c50e9c1127f2cd403a315f,0,133,133,0,1,onetwo
,,,,,,5f9a98ffdc3cd11ab49e32f2,62c53a643b716069deedd1f7,2022-07-06_09h31.56.351,Colour_Asymmetry_Pilot,2022.1.3,Win32,60.24096386,62c50e9c1127f2cd403a315f,0,134,134,67,1,twofour
,,,,,,5f9a98ffdc3cd11ab49e32f2,62c53a643b716069deedd1f7,2022-07-06_09h31.56.351,Colour_Asymmetry_Pilot,2022.1.3,Win32,60.24096386,62c50e9c1127f2cd403a315f,0,135,135,40,1,onetwo
,,,,,,5f9a98ffdc3cd11ab49e32f2,62c53a643b716069deedd1f7,2022-07-06_09h31.56.351,Colour_Asymmetry_Pilot,2022.1.3,Win32,60.24096386,62c50e9c1127f2cd403a315f,0,136,136,84,1,threeone
,,,,,,5f9a98ffdc3cd11ab49e32f2,62c53a643b716069deedd1f7,2022-07-06_09h31.56.351,Colour_Asymmetry_Pilot,2022.1.3,Win32,60.24096386,62c50e9c1127f2cd403a315f,0,137,137,35,1,twofour
,,,,,,5f9a98ffdc3cd11ab49e32f2,62c53a643b716069deedd1f7,2022-07-06_09h31.56.351,Colour_Asymmetry_Pilot,2022.1.3,Win32,60.24096386,62c50e9c1127f2cd403a315f,0,138,138,160,1,onetwo
,,,,,,5f9a98ffdc3cd11ab49e32f2,62c53a643b716069deedd1f7,2022-07-06_09h31.56.351,Colour_Asymmetry_Pilot,2022.1.3,Win32,60.24096386,62c50e9c1127f2cd403a315f,0,139,139,106,1,twoone
,,,,,,5f9a98ffdc3cd11ab49e32f2,62c53a643b716069deedd1f7,2022-07-06_09h31.56.351,Colour_Asymmetry_Pilot,2022.1.3,Win32,60.24096386,62c50e9c1127f2cd403a315f,0,140,140,5,1,threefour
,,,,,,5f9a98ffdc3cd11ab49e32f2,62c53a643b716069deedd1f7,2022-07-06_09h31.56.351,Colour_Asymmetry_Pilot,2022.1.3,Win32,60.24096386,62c50e9c1127f2cd403a315f,0,141,141,3,1,twofour
,,,,,,5f9a98ffdc3cd11ab49e32f2,62c53a643b716069deedd1f7,2022-07-06_09h31.56.351,Colour_Asymmetry_Pilot,2022.1.3,Win32,60.24096386,62c50e9c1127f2cd403a315f,0,142,142,123,1,twofour
,,,,,,5f9a98ffdc3cd11ab49e32f2,62c53a643b716069deedd1f7,2022-07-06_09h31.56.351,Colour_Asymmetry_Pilot,2022.1.3,Win32,60.24096386,62c50e9c1127f2cd403a315f,0,143,143,148,1,threeone
,,,,,,5f9a98ffdc3cd11ab49e32f2,62c53a643b716069deedd1f7,2022-07-06_09h31.56.351,Colour_Asymmetry_Pilot,2022.1.3,Win32,60.24096386,62c50e9c1127f2cd403a315f,0,144,144,153,1,onethree
,,,,,,5f9a98ffdc3cd11ab49e32f2,62c53a643b716069deedd1f7,2022-07-06_09h31.56.351,Colour_Asymmetry_Pilot,2022.1.3,Win32,60.24096386,62c50e9c1127f2cd403a315f,0,145,145,10,1,twoone
,,,,,,5f9a98ffdc3cd11ab49e32f2,62c53a643b716069deedd1f7,2022-07-06_09h31.56.351,Colour_Asymmetry_Pilot,2022.1.3,Win32,60.24096386,62c50e9c1127f2cd403a315f,0,146,146,126,1,fourtwo
,,,,,,5f9a98ffdc3cd11ab49e32f2,62c53a643b716069deedd1f7,2022-07-06_09h31.56.351,Colour_Asymmetry_Pilot,2022.1.3,Win32,60.24096386,62c50e9c1127f2cd403a315f,0,147,147,154,1,twoone
,,,,,,5f9a98ffdc3cd11ab49e32f2,62c53a643b716069deedd1f7,2022-07-06_09h31.56.351,Colour_Asymmetry_Pilot,2022.1.3,Win32,60.24096386,62c50e9c1127f2cd403a315f,0,148,148,37,1,threefour
,,,,,,5f9a98ffdc3cd11ab49e32f2,62c53a643b716069deedd1f7,2022-07-06_09h31.56.351,Colour_Asymmetry_Pilot,2022.1.3,Win32,60.24096386,62c50e9c1127f2cd403a315f,0,149,149,48,1,onetwo
,,,,,,5f9a98ffdc3cd11ab49e32f2,62c53a643b716069deedd1f7,2022-07-06_09h31.56.351,Colour_Asymmetry_Pilot,2022.1.3,Win32,60.24096386,62c50e9c1127f2cd403a315f,0,150,150,21,1,threefour
,,,,,,5f9a98ffdc3cd11ab49e32f2,62c53a643b716069deedd1f7,2022-07-06_09h31.56.351,Colour_Asymmetry_Pilot,2022.1.3,Win32,60.24096386,62c50e9c1127f2cd403a315f,0,151,151,58,1,twoone
,,,,,,5f9a98ffdc3cd11ab49e32f2,62c53a643b716069deedd1f7,2022-07-06_09h31.56.351,Colour_Asymmetry_Pilot,2022.1.3,Win32,60.24096386,62c50e9c1127f2cd403a315f,0,152,152,45,1,threefour
,,,,,,5f9a98ffdc3cd11ab49e32f2,62c53a643b716069deedd1f7,2022-07-06_09h31.56.351,Colour_Asymmetry_Pilot,2022.1.3,Win32,60.24096386,62c50e9c1127f2cd403a315f,0,153,153,116,1,threeone
,,,,,,5f9a98ffdc3cd11ab49e32f2,62c53a643b716069deedd1f7,2022-07-06_09h31.56.351,Colour_Asymmetry_Pilot,2022.1.3,Win32,60.24096386,62c50e9c1127f2cd403a315f,0,154,154,96,1,onetwo
,,,,,,5f9a98ffdc3cd11ab49e32f2,62c53a643b716069deedd1f7,2022-07-06_09h31.56.351,Colour_Asymmetry_Pilot,2022.1.3,Win32,60.24096386,62c50e9c1127f2cd403a315f,0,155,155,150,1,fourtwo
,,,,,,5f9a98ffdc3cd11ab49e32f2,62c53a643b716069deedd1f7,2022-07-06_09h31.56.351,Colour_Asymmetry_Pilot,2022.1.3,Win32,60.24096386,62c50e9c1127f2cd403a315f,0,156,156,57,1,onethree
,,,,,,5f9a98ffdc3cd11ab49e32f2,62c53a643b716069deedd1f7,2022-07-06_09h31.56.351,Colour_Asymmetry_Pilot,2022.1.3,Win32,60.24096386,62c50e9c1127f2cd403a315f,0,157,157,133,1,threefour
,,,,,,5f9a98ffdc3cd11ab49e32f2,62c53a643b716069deedd1f7,2022-07-06_09h31.56.351,Colour_Asymmetry_Pilot,2022.1.3,Win32,60.24096386,62c50e9c1127f2cd403a315f,0,158,158,100,1,threeone
,,,,,,5f9a98ffdc3cd11ab49e32f2,62c53a643b716069deedd1f7,2022-07-06_09h31.56.351,Colour_Asymmetry_Pilot,2022.1.3,Win32,60.24096386,62c50e9c1127f2cd403a315f,0,159,159,129,1,onethree
,,,,,,5f9a98ffdc3cd11ab49e32f2,62c53a643b716069deedd1f7,2022-07-06_09h31.56.351,Colour_Asymmetry_Pilot,2022.1.3,Win32,60.24096386,62c50e9c1127f2cd403a315f,0,160,160,109,1,threefour
,,,,,,5f9a98ffdc3cd11ab49e32f2,62c53a643b716069deedd1f7,2022-07-06_09h31.56.351,Colour_Asymmetry_Pilot,2022.1.3,Win32,60.24096386,62c50e9c1127f2cd403a315f,0,161,161,127,1,fourthree
