trials.thisRepN,trials.thisTrialN,trials.thisN,trials.thisIndex,trials.ran,Colourcodes,participant,session,date,expName,psychopyVersion,OS,frameRate,study_id,trials_4.thisRepN,trials_4.thisTrialN,trials_4.thisN,trials_4.thisIndex,trials_4.ran,StimulusPos
0,0,0,20,1,,60fbef4bd5562c92050fd1f8,62c539bced2dd29f8174f5af,2022-07-06_09h29.44.969,Colour_Asymmetry_Pilot,2022.1.3,Win32,60.47411708,62c50e9c1127f2cd403a315f,,,,,,
0,1,1,12,1,,60fbef4bd5562c92050fd1f8,62c539bced2dd29f8174f5af,2022-07-06_09h29.44.969,Colour_Asymmetry_Pilot,2022.1.3,Win32,60.47411708,62c50e9c1127f2cd403a315f,,,,,,
0,2,2,68,1,,60fbef4bd5562c92050fd1f8,62c539bced2dd29f8174f5af,2022-07-06_09h29.44.969,Colour_Asymmetry_Pilot,2022.1.3,Win32,60.47411708,62c50e9c1127f2cd403a315f,,,,,,
0,3,3,77,1,,60fbef4bd5562c92050fd1f8,62c539bced2dd29f8174f5af,2022-07-06_09h29.44.969,Colour_Asymmetry_Pilot,2022.1.3,Win32,60.47411708,62c50e9c1127f2cd403a315f,,,,,,
0,4,4,87,1,,60fbef4bd5562c92050fd1f8,62c539bced2dd29f8174f5af,2022-07-06_09h29.44.969,Colour_Asymmetry_Pilot,2022.1.3,Win32,60.47411708,62c50e9c1127f2cd403a315f,,,,,,
0,5,5,24,1,,60fbef4bd5562c92050fd1f8,62c539bced2dd29f8174f5af,2022-07-06_09h29.44.969,Colour_Asymmetry_Pilot,2022.1.3,Win32,60.47411708,62c50e9c1127f2cd403a315f,,,,,,
0,6,6,65,1,,60fbef4bd5562c92050fd1f8,62c539bced2dd29f8174f5af,2022-07-06_09h29.44.969,Colour_Asymmetry_Pilot,2022.1.3,Win32,60.47411708,62c50e9c1127f2cd403a315f,,,,,,
0,7,7,78,1,,60fbef4bd5562c92050fd1f8,62c539bced2dd29f8174f5af,2022-07-06_09h29.44.969,Colour_Asymmetry_Pilot,2022.1.3,Win32,60.47411708,62c50e9c1127f2cd403a315f,,,,,,
0,8,8,64,1,,60fbef4bd5562c92050fd1f8,62c539bced2dd29f8174f5af,2022-07-06_09h29.44.969,Colour_Asymmetry_Pilot,2022.1.3,Win32,60.47411708,62c50e9c1127f2cd403a315f,,,,,,
0,9,9,82,1,,60fbef4bd5562c92050fd1f8,62c539bced2dd29f8174f5af,2022-07-06_09h29.44.969,Colour_Asymmetry_Pilot,2022.1.3,Win32,60.47411708,62c50e9c1127f2cd403a315f,,,,,,
0,10,10,80,1,,60fbef4bd5562c92050fd1f8,62c539bced2dd29f8174f5af,2022-07-06_09h29.44.969,Colour_Asymmetry_Pilot,2022.1.3,Win32,60.47411708,62c50e9c1127f2cd403a315f,,,,,,
0,11,11,52,1,,60fbef4bd5562c92050fd1f8,62c539bced2dd29f8174f5af,2022-07-06_09h29.44.969,Colour_Asymmetry_Pilot,2022.1.3,Win32,60.47411708,62c50e9c1127f2cd403a315f,,,,,,
0,12,12,15,1,,60fbef4bd5562c92050fd1f8,62c539bced2dd29f8174f5af,2022-07-06_09h29.44.969,Colour_Asymmetry_Pilot,2022.1.3,Win32,60.47411708,62c50e9c1127f2cd403a315f,,,,,,
0,13,13,30,1,,60fbef4bd5562c92050fd1f8,62c539bced2dd29f8174f5af,2022-07-06_09h29.44.969,Colour_Asymmetry_Pilot,2022.1.3,Win32,60.47411708,62c50e9c1127f2cd403a315f,,,,,,
0,14,14,19,1,,60fbef4bd5562c92050fd1f8,62c539bced2dd29f8174f5af,2022-07-06_09h29.44.969,Colour_Asymmetry_Pilot,2022.1.3,Win32,60.47411708,62c50e9c1127f2cd403a315f,,,,,,
0,15,15,48,1,,60fbef4bd5562c92050fd1f8,62c539bced2dd29f8174f5af,2022-07-06_09h29.44.969,Colour_Asymmetry_Pilot,2022.1.3,Win32,60.47411708,62c50e9c1127f2cd403a315f,,,,,,
0,16,16,61,1,,60fbef4bd5562c92050fd1f8,62c539bced2dd29f8174f5af,2022-07-06_09h29.44.969,Colour_Asymmetry_Pilot,2022.1.3,Win32,60.47411708,62c50e9c1127f2cd403a315f,,,,,,
0,17,17,72,1,,60fbef4bd5562c92050fd1f8,62c539bced2dd29f8174f5af,2022-07-06_09h29.44.969,Colour_Asymmetry_Pilot,2022.1.3,Win32,60.47411708,62c50e9c1127f2cd403a315f,,,,,,
0,18,18,55,1,,60fbef4bd5562c92050fd1f8,62c539bced2dd29f8174f5af,2022-07-06_09h29.44.969,Colour_Asymmetry_Pilot,2022.1.3,Win32,60.47411708,62c50e9c1127f2cd403a315f,,,,,,
0,19,19,69,1,,60fbef4bd5562c92050fd1f8,62c539bced2dd29f8174f5af,2022-07-06_09h29.44.969,Colour_Asymmetry_Pilot,2022.1.3,Win32,60.47411708,62c50e9c1127f2cd403a315f,,,,,,
0,20,20,56,1,,60fbef4bd5562c92050fd1f8,62c539bced2dd29f8174f5af,2022-07-06_09h29.44.969,Colour_Asymmetry_Pilot,2022.1.3,Win32,60.47411708,62c50e9c1127f2cd403a315f,,,,,,
0,21,21,43,1,,60fbef4bd5562c92050fd1f8,62c539bced2dd29f8174f5af,2022-07-06_09h29.44.969,Colour_Asymmetry_Pilot,2022.1.3,Win32,60.47411708,62c50e9c1127f2cd403a315f,,,,,,
0,22,22,25,1,,60fbef4bd5562c92050fd1f8,62c539bced2dd29f8174f5af,2022-07-06_09h29.44.969,Colour_Asymmetry_Pilot,2022.1.3,Win32,60.47411708,62c50e9c1127f2cd403a315f,,,,,,
0,23,23,83,1,,60fbef4bd5562c92050fd1f8,62c539bced2dd29f8174f5af,2022-07-06_09h29.44.969,Colour_Asymmetry_Pilot,2022.1.3,Win32,60.47411708,62c50e9c1127f2cd403a315f,,,,,,
0,24,24,60,1,,60fbef4bd5562c92050fd1f8,62c539bced2dd29f8174f5af,2022-07-06_09h29.44.969,Colour_Asymmetry_Pilot,2022.1.3,Win32,60.47411708,62c50e9c1127f2cd403a315f,,,,,,
0,25,25,0,1,,60fbef4bd5562c92050fd1f8,62c539bced2dd29f8174f5af,2022-07-06_09h29.44.969,Colour_Asymmetry_Pilot,2022.1.3,Win32,60.47411708,62c50e9c1127f2cd403a315f,,,,,,
0,26,26,17,1,,60fbef4bd5562c92050fd1f8,62c539bced2dd29f8174f5af,2022-07-06_09h29.44.969,Colour_Asymmetry_Pilot,2022.1.3,Win32,60.47411708,62c50e9c1127f2cd403a315f,,,,,,
0,27,27,36,1,,60fbef4bd5562c92050fd1f8,62c539bced2dd29f8174f5af,2022-07-06_09h29.44.969,Colour_Asymmetry_Pilot,2022.1.3,Win32,60.47411708,62c50e9c1127f2cd403a315f,,,,,,
0,28,28,51,1,,60fbef4bd5562c92050fd1f8,62c539bced2dd29f8174f5af,2022-07-06_09h29.44.969,Colour_Asymmetry_Pilot,2022.1.3,Win32,60.47411708,62c50e9c1127f2cd403a315f,,,,,,
0,29,29,37,1,,60fbef4bd5562c92050fd1f8,62c539bced2dd29f8174f5af,2022-07-06_09h29.44.969,Colour_Asymmetry_Pilot,2022.1.3,Win32,60.47411708,62c50e9c1127f2cd403a315f,,,,,,
0,30,30,39,1,,60fbef4bd5562c92050fd1f8,62c539bced2dd29f8174f5af,2022-07-06_09h29.44.969,Colour_Asymmetry_Pilot,2022.1.3,Win32,60.47411708,62c50e9c1127f2cd403a315f,,,,,,
0,31,31,47,1,,60fbef4bd5562c92050fd1f8,62c539bced2dd29f8174f5af,2022-07-06_09h29.44.969,Colour_Asymmetry_Pilot,2022.1.3,Win32,60.47411708,62c50e9c1127f2cd403a315f,,,,,,
0,32,32,71,1,,60fbef4bd5562c92050fd1f8,62c539bced2dd29f8174f5af,2022-07-06_09h29.44.969,Colour_Asymmetry_Pilot,2022.1.3,Win32,60.47411708,62c50e9c1127f2cd403a315f,,,,,,
0,33,33,23,1,,60fbef4bd5562c92050fd1f8,62c539bced2dd29f8174f5af,2022-07-06_09h29.44.969,Colour_Asymmetry_Pilot,2022.1.3,Win32,60.47411708,62c50e9c1127f2cd403a315f,,,,,,
0,34,34,35,1,,60fbef4bd5562c92050fd1f8,62c539bced2dd29f8174f5af,2022-07-06_09h29.44.969,Colour_Asymmetry_Pilot,2022.1.3,Win32,60.47411708,62c50e9c1127f2cd403a315f,,,,,,
0,35,35,22,1,,60fbef4bd5562c92050fd1f8,62c539bced2dd29f8174f5af,2022-07-06_09h29.44.969,Colour_Asymmetry_Pilot,2022.1.3,Win32,60.47411708,62c50e9c1127f2cd403a315f,,,,,,
0,36,36,2,1,,60fbef4bd5562c92050fd1f8,62c539bced2dd29f8174f5af,2022-07-06_09h29.44.969,Colour_Asymmetry_Pilot,2022.1.3,Win32,60.47411708,62c50e9c1127f2cd403a315f,,,,,,
0,37,37,79,1,,60fbef4bd5562c92050fd1f8,62c539bced2dd29f8174f5af,2022-07-06_09h29.44.969,Colour_Asymmetry_Pilot,2022.1.3,Win32,60.47411708,62c50e9c1127f2cd403a315f,,,,,,
0,38,38,41,1,,60fbef4bd5562c92050fd1f8,62c539bced2dd29f8174f5af,2022-07-06_09h29.44.969,Colour_Asymmetry_Pilot,2022.1.3,Win32,60.47411708,62c50e9c1127f2cd403a315f,,,,,,
0,39,39,59,1,,60fbef4bd5562c92050fd1f8,62c539bced2dd29f8174f5af,2022-07-06_09h29.44.969,Colour_Asymmetry_Pilot,2022.1.3,Win32,60.47411708,62c50e9c1127f2cd403a315f,,,,,,
0,40,40,32,1,,60fbef4bd5562c92050fd1f8,62c539bced2dd29f8174f5af,2022-07-06_09h29.44.969,Colour_Asymmetry_Pilot,2022.1.3,Win32,60.47411708,62c50e9c1127f2cd403a315f,,,,,,
0,41,41,46,1,,60fbef4bd5562c92050fd1f8,62c539bced2dd29f8174f5af,2022-07-06_09h29.44.969,Colour_Asymmetry_Pilot,2022.1.3,Win32,60.47411708,62c50e9c1127f2cd403a315f,,,,,,
0,42,42,85,1,,60fbef4bd5562c92050fd1f8,62c539bced2dd29f8174f5af,2022-07-06_09h29.44.969,Colour_Asymmetry_Pilot,2022.1.3,Win32,60.47411708,62c50e9c1127f2cd403a315f,,,,,,
0,43,43,91,1,,60fbef4bd5562c92050fd1f8,62c539bced2dd29f8174f5af,2022-07-06_09h29.44.969,Colour_Asymmetry_Pilot,2022.1.3,Win32,60.47411708,62c50e9c1127f2cd403a315f,,,,,,
0,44,44,57,1,,60fbef4bd5562c92050fd1f8,62c539bced2dd29f8174f5af,2022-07-06_09h29.44.969,Colour_Asymmetry_Pilot,2022.1.3,Win32,60.47411708,62c50e9c1127f2cd403a315f,,,,,,
0,45,45,88,1,,60fbef4bd5562c92050fd1f8,62c539bced2dd29f8174f5af,2022-07-06_09h29.44.969,Colour_Asymmetry_Pilot,2022.1.3,Win32,60.47411708,62c50e9c1127f2cd403a315f,,,,,,
0,46,46,16,1,,60fbef4bd5562c92050fd1f8,62c539bced2dd29f8174f5af,2022-07-06_09h29.44.969,Colour_Asymmetry_Pilot,2022.1.3,Win32,60.47411708,62c50e9c1127f2cd403a315f,,,,,,
0,47,47,44,1,,60fbef4bd5562c92050fd1f8,62c539bced2dd29f8174f5af,2022-07-06_09h29.44.969,Colour_Asymmetry_Pilot,2022.1.3,Win32,60.47411708,62c50e9c1127f2cd403a315f,,,,,,
0,48,48,66,1,,60fbef4bd5562c92050fd1f8,62c539bced2dd29f8174f5af,2022-07-06_09h29.44.969,Colour_Asymmetry_Pilot,2022.1.3,Win32,60.47411708,62c50e9c1127f2cd403a315f,,,,,,
0,49,49,63,1,,60fbef4bd5562c92050fd1f8,62c539bced2dd29f8174f5af,2022-07-06_09h29.44.969,Colour_Asymmetry_Pilot,2022.1.3,Win32,60.47411708,62c50e9c1127f2cd403a315f,,,,,,
0,50,50,75,1,,60fbef4bd5562c92050fd1f8,62c539bced2dd29f8174f5af,2022-07-06_09h29.44.969,Colour_Asymmetry_Pilot,2022.1.3,Win32,60.47411708,62c50e9c1127f2cd403a315f,,,,,,
0,51,51,86,1,,60fbef4bd5562c92050fd1f8,62c539bced2dd29f8174f5af,2022-07-06_09h29.44.969,Colour_Asymmetry_Pilot,2022.1.3,Win32,60.47411708,62c50e9c1127f2cd403a315f,,,,,,
0,52,52,92,1,,60fbef4bd5562c92050fd1f8,62c539bced2dd29f8174f5af,2022-07-06_09h29.44.969,Colour_Asymmetry_Pilot,2022.1.3,Win32,60.47411708,62c50e9c1127f2cd403a315f,,,,,,
0,53,53,8,1,,60fbef4bd5562c92050fd1f8,62c539bced2dd29f8174f5af,2022-07-06_09h29.44.969,Colour_Asymmetry_Pilot,2022.1.3,Win32,60.47411708,62c50e9c1127f2cd403a315f,,,,,,
0,54,54,67,1,,60fbef4bd5562c92050fd1f8,62c539bced2dd29f8174f5af,2022-07-06_09h29.44.969,Colour_Asymmetry_Pilot,2022.1.3,Win32,60.47411708,62c50e9c1127f2cd403a315f,,,,,,
0,55,55,38,1,,60fbef4bd5562c92050fd1f8,62c539bced2dd29f8174f5af,2022-07-06_09h29.44.969,Colour_Asymmetry_Pilot,2022.1.3,Win32,60.47411708,62c50e9c1127f2cd403a315f,,,,,,
0,56,56,62,1,,60fbef4bd5562c92050fd1f8,62c539bced2dd29f8174f5af,2022-07-06_09h29.44.969,Colour_Asymmetry_Pilot,2022.1.3,Win32,60.47411708,62c50e9c1127f2cd403a315f,,,,,,
0,57,57,29,1,,60fbef4bd5562c92050fd1f8,62c539bced2dd29f8174f5af,2022-07-06_09h29.44.969,Colour_Asymmetry_Pilot,2022.1.3,Win32,60.47411708,62c50e9c1127f2cd403a315f,,,,,,
0,58,58,53,1,,60fbef4bd5562c92050fd1f8,62c539bced2dd29f8174f5af,2022-07-06_09h29.44.969,Colour_Asymmetry_Pilot,2022.1.3,Win32,60.47411708,62c50e9c1127f2cd403a315f,,,,,,
0,59,59,9,1,,60fbef4bd5562c92050fd1f8,62c539bced2dd29f8174f5af,2022-07-06_09h29.44.969,Colour_Asymmetry_Pilot,2022.1.3,Win32,60.47411708,62c50e9c1127f2cd403a315f,,,,,,
0,60,60,49,1,,60fbef4bd5562c92050fd1f8,62c539bced2dd29f8174f5af,2022-07-06_09h29.44.969,Colour_Asymmetry_Pilot,2022.1.3,Win32,60.47411708,62c50e9c1127f2cd403a315f,,,,,,
0,61,61,58,1,,60fbef4bd5562c92050fd1f8,62c539bced2dd29f8174f5af,2022-07-06_09h29.44.969,Colour_Asymmetry_Pilot,2022.1.3,Win32,60.47411708,62c50e9c1127f2cd403a315f,,,,,,
0,62,62,5,1,,60fbef4bd5562c92050fd1f8,62c539bced2dd29f8174f5af,2022-07-06_09h29.44.969,Colour_Asymmetry_Pilot,2022.1.3,Win32,60.47411708,62c50e9c1127f2cd403a315f,,,,,,
0,63,63,6,1,,60fbef4bd5562c92050fd1f8,62c539bced2dd29f8174f5af,2022-07-06_09h29.44.969,Colour_Asymmetry_Pilot,2022.1.3,Win32,60.47411708,62c50e9c1127f2cd403a315f,,,,,,
0,64,64,40,1,,60fbef4bd5562c92050fd1f8,62c539bced2dd29f8174f5af,2022-07-06_09h29.44.969,Colour_Asymmetry_Pilot,2022.1.3,Win32,60.47411708,62c50e9c1127f2cd403a315f,,,,,,
0,65,65,27,1,,60fbef4bd5562c92050fd1f8,62c539bced2dd29f8174f5af,2022-07-06_09h29.44.969,Colour_Asymmetry_Pilot,2022.1.3,Win32,60.47411708,62c50e9c1127f2cd403a315f,,,,,,
0,66,66,45,1,,60fbef4bd5562c92050fd1f8,62c539bced2dd29f8174f5af,2022-07-06_09h29.44.969,Colour_Asymmetry_Pilot,2022.1.3,Win32,60.47411708,62c50e9c1127f2cd403a315f,,,,,,
0,67,67,1,1,,60fbef4bd5562c92050fd1f8,62c539bced2dd29f8174f5af,2022-07-06_09h29.44.969,Colour_Asymmetry_Pilot,2022.1.3,Win32,60.47411708,62c50e9c1127f2cd403a315f,,,,,,
0,68,68,26,1,,60fbef4bd5562c92050fd1f8,62c539bced2dd29f8174f5af,2022-07-06_09h29.44.969,Colour_Asymmetry_Pilot,2022.1.3,Win32,60.47411708,62c50e9c1127f2cd403a315f,,,,,,
0,69,69,73,1,,60fbef4bd5562c92050fd1f8,62c539bced2dd29f8174f5af,2022-07-06_09h29.44.969,Colour_Asymmetry_Pilot,2022.1.3,Win32,60.47411708,62c50e9c1127f2cd403a315f,,,,,,
0,70,70,89,1,,60fbef4bd5562c92050fd1f8,62c539bced2dd29f8174f5af,2022-07-06_09h29.44.969,Colour_Asymmetry_Pilot,2022.1.3,Win32,60.47411708,62c50e9c1127f2cd403a315f,,,,,,
0,71,71,90,1,,60fbef4bd5562c92050fd1f8,62c539bced2dd29f8174f5af,2022-07-06_09h29.44.969,Colour_Asymmetry_Pilot,2022.1.3,Win32,60.47411708,62c50e9c1127f2cd403a315f,,,,,,
0,72,72,4,1,,60fbef4bd5562c92050fd1f8,62c539bced2dd29f8174f5af,2022-07-06_09h29.44.969,Colour_Asymmetry_Pilot,2022.1.3,Win32,60.47411708,62c50e9c1127f2cd403a315f,,,,,,
0,73,73,54,1,,60fbef4bd5562c92050fd1f8,62c539bced2dd29f8174f5af,2022-07-06_09h29.44.969,Colour_Asymmetry_Pilot,2022.1.3,Win32,60.47411708,62c50e9c1127f2cd403a315f,,,,,,
0,74,74,42,1,,60fbef4bd5562c92050fd1f8,62c539bced2dd29f8174f5af,2022-07-06_09h29.44.969,Colour_Asymmetry_Pilot,2022.1.3,Win32,60.47411708,62c50e9c1127f2cd403a315f,,,,,,
0,75,75,18,1,,60fbef4bd5562c92050fd1f8,62c539bced2dd29f8174f5af,2022-07-06_09h29.44.969,Colour_Asymmetry_Pilot,2022.1.3,Win32,60.47411708,62c50e9c1127f2cd403a315f,,,,,,
0,76,76,31,1,,60fbef4bd5562c92050fd1f8,62c539bced2dd29f8174f5af,2022-07-06_09h29.44.969,Colour_Asymmetry_Pilot,2022.1.3,Win32,60.47411708,62c50e9c1127f2cd403a315f,,,,,,
0,77,77,14,1,,60fbef4bd5562c92050fd1f8,62c539bced2dd29f8174f5af,2022-07-06_09h29.44.969,Colour_Asymmetry_Pilot,2022.1.3,Win32,60.47411708,62c50e9c1127f2cd403a315f,,,,,,
0,78,78,11,1,,60fbef4bd5562c92050fd1f8,62c539bced2dd29f8174f5af,2022-07-06_09h29.44.969,Colour_Asymmetry_Pilot,2022.1.3,Win32,60.47411708,62c50e9c1127f2cd403a315f,,,,,,
0,79,79,21,1,,60fbef4bd5562c92050fd1f8,62c539bced2dd29f8174f5af,2022-07-06_09h29.44.969,Colour_Asymmetry_Pilot,2022.1.3,Win32,60.47411708,62c50e9c1127f2cd403a315f,,,,,,
0,80,80,7,1,,60fbef4bd5562c92050fd1f8,62c539bced2dd29f8174f5af,2022-07-06_09h29.44.969,Colour_Asymmetry_Pilot,2022.1.3,Win32,60.47411708,62c50e9c1127f2cd403a315f,,,,,,
0,81,81,13,1,,60fbef4bd5562c92050fd1f8,62c539bced2dd29f8174f5af,2022-07-06_09h29.44.969,Colour_Asymmetry_Pilot,2022.1.3,Win32,60.47411708,62c50e9c1127f2cd403a315f,,,,,,
0,82,82,28,1,,60fbef4bd5562c92050fd1f8,62c539bced2dd29f8174f5af,2022-07-06_09h29.44.969,Colour_Asymmetry_Pilot,2022.1.3,Win32,60.47411708,62c50e9c1127f2cd403a315f,,,,,,
0,83,83,33,1,,60fbef4bd5562c92050fd1f8,62c539bced2dd29f8174f5af,2022-07-06_09h29.44.969,Colour_Asymmetry_Pilot,2022.1.3,Win32,60.47411708,62c50e9c1127f2cd403a315f,,,,,,
0,84,84,76,1,,60fbef4bd5562c92050fd1f8,62c539bced2dd29f8174f5af,2022-07-06_09h29.44.969,Colour_Asymmetry_Pilot,2022.1.3,Win32,60.47411708,62c50e9c1127f2cd403a315f,,,,,,
0,85,85,34,1,,60fbef4bd5562c92050fd1f8,62c539bced2dd29f8174f5af,2022-07-06_09h29.44.969,Colour_Asymmetry_Pilot,2022.1.3,Win32,60.47411708,62c50e9c1127f2cd403a315f,,,,,,
0,86,86,70,1,,60fbef4bd5562c92050fd1f8,62c539bced2dd29f8174f5af,2022-07-06_09h29.44.969,Colour_Asymmetry_Pilot,2022.1.3,Win32,60.47411708,62c50e9c1127f2cd403a315f,,,,,,
0,87,87,81,1,,60fbef4bd5562c92050fd1f8,62c539bced2dd29f8174f5af,2022-07-06_09h29.44.969,Colour_Asymmetry_Pilot,2022.1.3,Win32,60.47411708,62c50e9c1127f2cd403a315f,,,,,,
0,88,88,10,1,,60fbef4bd5562c92050fd1f8,62c539bced2dd29f8174f5af,2022-07-06_09h29.44.969,Colour_Asymmetry_Pilot,2022.1.3,Win32,60.47411708,62c50e9c1127f2cd403a315f,,,,,,
0,89,89,3,1,,60fbef4bd5562c92050fd1f8,62c539bced2dd29f8174f5af,2022-07-06_09h29.44.969,Colour_Asymmetry_Pilot,2022.1.3,Win32,60.47411708,62c50e9c1127f2cd403a315f,,,,,,
0,90,90,74,1,,60fbef4bd5562c92050fd1f8,62c539bced2dd29f8174f5af,2022-07-06_09h29.44.969,Colour_Asymmetry_Pilot,2022.1.3,Win32,60.47411708,62c50e9c1127f2cd403a315f,,,,,,
0,91,91,84,1,,60fbef4bd5562c92050fd1f8,62c539bced2dd29f8174f5af,2022-07-06_09h29.44.969,Colour_Asymmetry_Pilot,2022.1.3,Win32,60.47411708,62c50e9c1127f2cd403a315f,,,,,,
0,92,92,50,1,,60fbef4bd5562c92050fd1f8,62c539bced2dd29f8174f5af,2022-07-06_09h29.44.969,Colour_Asymmetry_Pilot,2022.1.3,Win32,60.47411708,62c50e9c1127f2cd403a315f,,,,,,
,,,,,,60fbef4bd5562c92050fd1f8,62c539bced2dd29f8174f5af,2022-07-06_09h29.44.969,Colour_Asymmetry_Pilot,2022.1.3,Win32,60.47411708,62c50e9c1127f2cd403a315f,0,0,0,87,1,fourthree
,,,,,,60fbef4bd5562c92050fd1f8,62c539bced2dd29f8174f5af,2022-07-06_09h29.44.969,Colour_Asymmetry_Pilot,2022.1.3,Win32,60.47411708,62c50e9c1127f2cd403a315f,0,1,1,31,1,fourthree
,,,,,,60fbef4bd5562c92050fd1f8,62c539bced2dd29f8174f5af,2022-07-06_09h29.44.969,Colour_Asymmetry_Pilot,2022.1.3,Win32,60.47411708,62c50e9c1127f2cd403a315f,0,2,2,32,1,onetwo
,,,,,,60fbef4bd5562c92050fd1f8,62c539bced2dd29f8174f5af,2022-07-06_09h29.44.969,Colour_Asymmetry_Pilot,2022.1.3,Win32,60.47411708,62c50e9c1127f2cd403a315f,0,3,3,144,1,onetwo
,,,,,,60fbef4bd5562c92050fd1f8,62c539bced2dd29f8174f5af,2022-07-06_09h29.44.969,Colour_Asymmetry_Pilot,2022.1.3,Win32,60.47411708,62c50e9c1127f2cd403a315f,0,4,4,75,1,twofour
,,,,,,60fbef4bd5562c92050fd1f8,62c539bced2dd29f8174f5af,2022-07-06_09h29.44.969,Colour_Asymmetry_Pilot,2022.1.3,Win32,60.47411708,62c50e9c1127f2cd403a315f,0,5,5,19,1,twofour
,,,,,,60fbef4bd5562c92050fd1f8,62c539bced2dd29f8174f5af,2022-07-06_09h29.44.969,Colour_Asymmetry_Pilot,2022.1.3,Win32,60.47411708,62c50e9c1127f2cd403a315f,0,6,6,112,1,onetwo
,,,,,,60fbef4bd5562c92050fd1f8,62c539bced2dd29f8174f5af,2022-07-06_09h29.44.969,Colour_Asymmetry_Pilot,2022.1.3,Win32,60.47411708,62c50e9c1127f2cd403a315f,0,7,7,108,1,threeone
,,,,,,60fbef4bd5562c92050fd1f8,62c539bced2dd29f8174f5af,2022-07-06_09h29.44.969,Colour_Asymmetry_Pilot,2022.1.3,Win32,60.47411708,62c50e9c1127f2cd403a315f,0,8,8,57,1,onethree
,,,,,,60fbef4bd5562c92050fd1f8,62c539bced2dd29f8174f5af,2022-07-06_09h29.44.969,Colour_Asymmetry_Pilot,2022.1.3,Win32,60.47411708,62c50e9c1127f2cd403a315f,0,9,9,44,1,threeone
,,,,,,60fbef4bd5562c92050fd1f8,62c539bced2dd29f8174f5af,2022-07-06_09h29.44.969,Colour_Asymmetry_Pilot,2022.1.3,Win32,60.47411708,62c50e9c1127f2cd403a315f,0,10,10,39,1,fourthree
,,,,,,60fbef4bd5562c92050fd1f8,62c539bced2dd29f8174f5af,2022-07-06_09h29.44.969,Colour_Asymmetry_Pilot,2022.1.3,Win32,60.47411708,62c50e9c1127f2cd403a315f,0,11,11,127,1,fourthree
,,,,,,60fbef4bd5562c92050fd1f8,62c539bced2dd29f8174f5af,2022-07-06_09h29.44.969,Colour_Asymmetry_Pilot,2022.1.3,Win32,60.47411708,62c50e9c1127f2cd403a315f,0,12,12,101,1,threefour
,,,,,,60fbef4bd5562c92050fd1f8,62c539bced2dd29f8174f5af,2022-07-06_09h29.44.969,Colour_Asymmetry_Pilot,2022.1.3,Win32,60.47411708,62c50e9c1127f2cd403a315f,0,13,13,136,1,onetwo
,,,,,,60fbef4bd5562c92050fd1f8,62c539bced2dd29f8174f5af,2022-07-06_09h29.44.969,Colour_Asymmetry_Pilot,2022.1.3,Win32,60.47411708,62c50e9c1127f2cd403a315f,0,14,14,116,1,threeone
,,,,,,60fbef4bd5562c92050fd1f8,62c539bced2dd29f8174f5af,2022-07-06_09h29.44.969,Colour_Asymmetry_Pilot,2022.1.3,Win32,60.47411708,62c50e9c1127f2cd403a315f,0,15,15,7,1,fourthree
,,,,,,60fbef4bd5562c92050fd1f8,62c539bced2dd29f8174f5af,2022-07-06_09h29.44.969,Colour_Asymmetry_Pilot,2022.1.3,Win32,60.47411708,62c50e9c1127f2cd403a315f,0,16,16,81,1,onethree
,,,,,,60fbef4bd5562c92050fd1f8,62c539bced2dd29f8174f5af,2022-07-06_09h29.44.969,Colour_Asymmetry_Pilot,2022.1.3,Win32,60.47411708,62c50e9c1127f2cd403a315f,0,17,17,40,1,onetwo
,,,,,,60fbef4bd5562c92050fd1f8,62c539bced2dd29f8174f5af,2022-07-06_09h29.44.969,Colour_Asymmetry_Pilot,2022.1.3,Win32,60.47411708,62c50e9c1127f2cd403a315f,0,18,18,2,1,twoone
,,,,,,60fbef4bd5562c92050fd1f8,62c539bced2dd29f8174f5af,2022-07-06_09h29.44.969,Colour_Asymmetry_Pilot,2022.1.3,Win32,60.47411708,62c50e9c1127f2cd403a315f,0,19,19,58,1,twoone
,,,,,,60fbef4bd5562c92050fd1f8,62c539bced2dd29f8174f5af,2022-07-06_09h29.44.969,Colour_Asymmetry_Pilot,2022.1.3,Win32,60.47411708,62c50e9c1127f2cd403a315f,0,20,20,157,1,threefour
,,,,,,60fbef4bd5562c92050fd1f8,62c539bced2dd29f8174f5af,2022-07-06_09h29.44.969,Colour_Asymmetry_Pilot,2022.1.3,Win32,60.47411708,62c50e9c1127f2cd403a315f,0,21,21,73,1,onethree
,,,,,,60fbef4bd5562c92050fd1f8,62c539bced2dd29f8174f5af,2022-07-06_09h29.44.969,Colour_Asymmetry_Pilot,2022.1.3,Win32,60.47411708,62c50e9c1127f2cd403a315f,0,22,22,141,1,threefour
,,,,,,60fbef4bd5562c92050fd1f8,62c539bced2dd29f8174f5af,2022-07-06_09h29.44.969,Colour_Asymmetry_Pilot,2022.1.3,Win32,60.47411708,62c50e9c1127f2cd403a315f,0,23,23,80,1,onetwo
,,,,,,60fbef4bd5562c92050fd1f8,62c539bced2dd29f8174f5af,2022-07-06_09h29.44.969,Colour_Asymmetry_Pilot,2022.1.3,Win32,60.47411708,62c50e9c1127f2cd403a315f,0,24,24,4,1,threeone
,,,,,,60fbef4bd5562c92050fd1f8,62c539bced2dd29f8174f5af,2022-07-06_09h29.44.969,Colour_Asymmetry_Pilot,2022.1.3,Win32,60.47411708,62c50e9c1127f2cd403a315f,0,25,25,155,1,twofour
,,,,,,60fbef4bd5562c92050fd1f8,62c539bced2dd29f8174f5af,2022-07-06_09h29.44.969,Colour_Asymmetry_Pilot,2022.1.3,Win32,60.47411708,62c50e9c1127f2cd403a315f,0,26,26,107,1,twofour
,,,,,,60fbef4bd5562c92050fd1f8,62c539bced2dd29f8174f5af,2022-07-06_09h29.44.969,Colour_Asymmetry_Pilot,2022.1.3,Win32,60.47411708,62c50e9c1127f2cd403a315f,0,27,27,84,1,threeone
,,,,,,60fbef4bd5562c92050fd1f8,62c539bced2dd29f8174f5af,2022-07-06_09h29.44.969,Colour_Asymmetry_Pilot,2022.1.3,Win32,60.47411708,62c50e9c1127f2cd403a315f,0,28,28,61,1,threefour
,,,,,,60fbef4bd5562c92050fd1f8,62c539bced2dd29f8174f5af,2022-07-06_09h29.44.969,Colour_Asymmetry_Pilot,2022.1.3,Win32,60.47411708,62c50e9c1127f2cd403a315f,0,29,29,78,1,fourtwo
,,,,,,60fbef4bd5562c92050fd1f8,62c539bced2dd29f8174f5af,2022-07-06_09h29.44.969,Colour_Asymmetry_Pilot,2022.1.3,Win32,60.47411708,62c50e9c1127f2cd403a315f,0,30,30,35,1,twofour
,,,,,,60fbef4bd5562c92050fd1f8,62c539bced2dd29f8174f5af,2022-07-06_09h29.44.969,Colour_Asymmetry_Pilot,2022.1.3,Win32,60.47411708,62c50e9c1127f2cd403a315f,0,31,31,99,1,twofour
,,,,,,60fbef4bd5562c92050fd1f8,62c539bced2dd29f8174f5af,2022-07-06_09h29.44.969,Colour_Asymmetry_Pilot,2022.1.3,Win32,60.47411708,62c50e9c1127f2cd403a315f,0,32,32,109,1,threefour
,,,,,,60fbef4bd5562c92050fd1f8,62c539bced2dd29f8174f5af,2022-07-06_09h29.44.969,Colour_Asymmetry_Pilot,2022.1.3,Win32,60.47411708,62c50e9c1127f2cd403a315f,0,33,33,106,1,twoone
,,,,,,60fbef4bd5562c92050fd1f8,62c539bced2dd29f8174f5af,2022-07-06_09h29.44.969,Colour_Asymmetry_Pilot,2022.1.3,Win32,60.47411708,62c50e9c1127f2cd403a315f,0,34,34,97,1,onethree
,,,,,,60fbef4bd5562c92050fd1f8,62c539bced2dd29f8174f5af,2022-07-06_09h29.44.969,Colour_Asymmetry_Pilot,2022.1.3,Win32,60.47411708,62c50e9c1127f2cd403a315f,0,35,35,91,1,twofour
,,,,,,60fbef4bd5562c92050fd1f8,62c539bced2dd29f8174f5af,2022-07-06_09h29.44.969,Colour_Asymmetry_Pilot,2022.1.3,Win32,60.47411708,62c50e9c1127f2cd403a315f,0,36,36,76,1,threeone
,,,,,,60fbef4bd5562c92050fd1f8,62c539bced2dd29f8174f5af,2022-07-06_09h29.44.969,Colour_Asymmetry_Pilot,2022.1.3,Win32,60.47411708,62c50e9c1127f2cd403a315f,0,37,37,37,1,threefour
,,,,,,60fbef4bd5562c92050fd1f8,62c539bced2dd29f8174f5af,2022-07-06_09h29.44.969,Colour_Asymmetry_Pilot,2022.1.3,Win32,60.47411708,62c50e9c1127f2cd403a315f,0,38,38,48,1,onetwo
,,,,,,60fbef4bd5562c92050fd1f8,62c539bced2dd29f8174f5af,2022-07-06_09h29.44.969,Colour_Asymmetry_Pilot,2022.1.3,Win32,60.47411708,62c50e9c1127f2cd403a315f,0,39,39,59,1,twofour
,,,,,,60fbef4bd5562c92050fd1f8,62c539bced2dd29f8174f5af,2022-07-06_09h29.44.969,Colour_Asymmetry_Pilot,2022.1.3,Win32,60.47411708,62c50e9c1127f2cd403a315f,0,40,40,69,1,threefour
,,,,,,60fbef4bd5562c92050fd1f8,62c539bced2dd29f8174f5af,2022-07-06_09h29.44.969,Colour_Asymmetry_Pilot,2022.1.3,Win32,60.47411708,62c50e9c1127f2cd403a315f,0,41,41,65,1,onethree
,,,,,,60fbef4bd5562c92050fd1f8,62c539bced2dd29f8174f5af,2022-07-06_09h29.44.969,Colour_Asymmetry_Pilot,2022.1.3,Win32,60.47411708,62c50e9c1127f2cd403a315f,0,42,42,10,1,twoone
,,,,,,60fbef4bd5562c92050fd1f8,62c539bced2dd29f8174f5af,2022-07-06_09h29.44.969,Colour_Asymmetry_Pilot,2022.1.3,Win32,60.47411708,62c50e9c1127f2cd403a315f,0,43,43,103,1,fourthree
,,,,,,60fbef4bd5562c92050fd1f8,62c539bced2dd29f8174f5af,2022-07-06_09h29.44.969,Colour_Asymmetry_Pilot,2022.1.3,Win32,60.47411708,62c50e9c1127f2cd403a315f,0,44,44,60,1,threeone
,,,,,,60fbef4bd5562c92050fd1f8,62c539bced2dd29f8174f5af,2022-07-06_09h29.44.969,Colour_Asymmetry_Pilot,2022.1.3,Win32,60.47411708,62c50e9c1127f2cd403a315f,0,45,45,146,1,twoone
,,,,,,60fbef4bd5562c92050fd1f8,62c539bced2dd29f8174f5af,2022-07-06_09h29.44.969,Colour_Asymmetry_Pilot,2022.1.3,Win32,60.47411708,62c50e9c1127f2cd403a315f,0,46,46,151,1,fourthree
,,,,,,60fbef4bd5562c92050fd1f8,62c539bced2dd29f8174f5af,2022-07-06_09h29.44.969,Colour_Asymmetry_Pilot,2022.1.3,Win32,60.47411708,62c50e9c1127f2cd403a315f,0,47,47,85,1,threefour
,,,,,,60fbef4bd5562c92050fd1f8,62c539bced2dd29f8174f5af,2022-07-06_09h29.44.969,Colour_Asymmetry_Pilot,2022.1.3,Win32,60.47411708,62c50e9c1127f2cd403a315f,0,48,48,70,1,fourtwo
,,,,,,60fbef4bd5562c92050fd1f8,62c539bced2dd29f8174f5af,2022-07-06_09h29.44.969,Colour_Asymmetry_Pilot,2022.1.3,Win32,60.47411708,62c50e9c1127f2cd403a315f,0,49,49,14,1,fourtwo
,,,,,,60fbef4bd5562c92050fd1f8,62c539bced2dd29f8174f5af,2022-07-06_09h29.44.969,Colour_Asymmetry_Pilot,2022.1.3,Win32,60.47411708,62c50e9c1127f2cd403a315f,0,50,50,92,1,threeone
,,,,,,60fbef4bd5562c92050fd1f8,62c539bced2dd29f8174f5af,2022-07-06_09h29.44.969,Colour_Asymmetry_Pilot,2022.1.3,Win32,60.47411708,62c50e9c1127f2cd403a315f,0,51,51,43,1,twofour
,,,,,,60fbef4bd5562c92050fd1f8,62c539bced2dd29f8174f5af,2022-07-06_09h29.44.969,Colour_Asymmetry_Pilot,2022.1.3,Win32,60.47411708,62c50e9c1127f2cd403a315f,0,52,52,6,1,fourtwo
,,,,,,60fbef4bd5562c92050fd1f8,62c539bced2dd29f8174f5af,2022-07-06_09h29.44.969,Colour_Asymmetry_Pilot,2022.1.3,Win32,60.47411708,62c50e9c1127f2cd403a315f,0,53,53,120,1,onetwo
,,,,,,60fbef4bd5562c92050fd1f8,62c539bced2dd29f8174f5af,2022-07-06_09h29.44.969,Colour_Asymmetry_Pilot,2022.1.3,Win32,60.47411708,62c50e9c1127f2cd403a315f,0,54,54,159,1,fourthree
,,,,,,60fbef4bd5562c92050fd1f8,62c539bced2dd29f8174f5af,2022-07-06_09h29.44.969,Colour_Asymmetry_Pilot,2022.1.3,Win32,60.47411708,62c50e9c1127f2cd403a315f,0,55,55,49,1,onethree
,,,,,,60fbef4bd5562c92050fd1f8,62c539bced2dd29f8174f5af,2022-07-06_09h29.44.969,Colour_Asymmetry_Pilot,2022.1.3,Win32,60.47411708,62c50e9c1127f2cd403a315f,0,56,56,72,1,onetwo
,,,,,,60fbef4bd5562c92050fd1f8,62c539bced2dd29f8174f5af,2022-07-06_09h29.44.969,Colour_Asymmetry_Pilot,2022.1.3,Win32,60.47411708,62c50e9c1127f2cd403a315f,0,57,57,12,1,threeone
,,,,,,60fbef4bd5562c92050fd1f8,62c539bced2dd29f8174f5af,2022-07-06_09h29.44.969,Colour_Asymmetry_Pilot,2022.1.3,Win32,60.47411708,62c50e9c1127f2cd403a315f,0,58,58,132,1,threeone
,,,,,,60fbef4bd5562c92050fd1f8,62c539bced2dd29f8174f5af,2022-07-06_09h29.44.969,Colour_Asymmetry_Pilot,2022.1.3,Win32,60.47411708,62c50e9c1127f2cd403a315f,0,59,59,121,1,onethree
,,,,,,60fbef4bd5562c92050fd1f8,62c539bced2dd29f8174f5af,2022-07-06_09h29.44.969,Colour_Asymmetry_Pilot,2022.1.3,Win32,60.47411708,62c50e9c1127f2cd403a315f,0,60,60,64,1,onetwo
,,,,,,60fbef4bd5562c92050fd1f8,62c539bced2dd29f8174f5af,2022-07-06_09h29.44.969,Colour_Asymmetry_Pilot,2022.1.3,Win32,60.47411708,62c50e9c1127f2cd403a315f,0,61,61,8,1,onetwo
,,,,,,60fbef4bd5562c92050fd1f8,62c539bced2dd29f8174f5af,2022-07-06_09h29.44.969,Colour_Asymmetry_Pilot,2022.1.3,Win32,60.47411708,62c50e9c1127f2cd403a315f,0,62,62,16,1,onetwo
,,,,,,60fbef4bd5562c92050fd1f8,62c539bced2dd29f8174f5af,2022-07-06_09h29.44.969,Colour_Asymmetry_Pilot,2022.1.3,Win32,60.47411708,62c50e9c1127f2cd403a315f,0,63,63,135,1,fourthree
,,,,,,60fbef4bd5562c92050fd1f8,62c539bced2dd29f8174f5af,2022-07-06_09h29.44.969,Colour_Asymmetry_Pilot,2022.1.3,Win32,60.47411708,62c50e9c1127f2cd403a315f,0,64,64,74,1,twoone
,,,,,,60fbef4bd5562c92050fd1f8,62c539bced2dd29f8174f5af,2022-07-06_09h29.44.969,Colour_Asymmetry_Pilot,2022.1.3,Win32,60.47411708,62c50e9c1127f2cd403a315f,0,65,65,114,1,twoone
,,,,,,60fbef4bd5562c92050fd1f8,62c539bced2dd29f8174f5af,2022-07-06_09h29.44.969,Colour_Asymmetry_Pilot,2022.1.3,Win32,60.47411708,62c50e9c1127f2cd403a315f,0,66,66,27,1,twofour
,,,,,,60fbef4bd5562c92050fd1f8,62c539bced2dd29f8174f5af,2022-07-06_09h29.44.969,Colour_Asymmetry_Pilot,2022.1.3,Win32,60.47411708,62c50e9c1127f2cd403a315f,0,67,67,149,1,threefour
,,,,,,60fbef4bd5562c92050fd1f8,62c539bced2dd29f8174f5af,2022-07-06_09h29.44.969,Colour_Asymmetry_Pilot,2022.1.3,Win32,60.47411708,62c50e9c1127f2cd403a315f,0,68,68,125,1,threefour
,,,,,,60fbef4bd5562c92050fd1f8,62c539bced2dd29f8174f5af,2022-07-06_09h29.44.969,Colour_Asymmetry_Pilot,2022.1.3,Win32,60.47411708,62c50e9c1127f2cd403a315f,0,69,69,138,1,twoone
,,,,,,60fbef4bd5562c92050fd1f8,62c539bced2dd29f8174f5af,2022-07-06_09h29.44.969,Colour_Asymmetry_Pilot,2022.1.3,Win32,60.47411708,62c50e9c1127f2cd403a315f,0,70,70,150,1,fourtwo
,,,,,,60fbef4bd5562c92050fd1f8,62c539bced2dd29f8174f5af,2022-07-06_09h29.44.969,Colour_Asymmetry_Pilot,2022.1.3,Win32,60.47411708,62c50e9c1127f2cd403a315f,0,71,71,1,1,onethree
,,,,,,60fbef4bd5562c92050fd1f8,62c539bced2dd29f8174f5af,2022-07-06_09h29.44.969,Colour_Asymmetry_Pilot,2022.1.3,Win32,60.47411708,62c50e9c1127f2cd403a315f,0,72,72,130,1,twoone
,,,,,,60fbef4bd5562c92050fd1f8,62c539bced2dd29f8174f5af,2022-07-06_09h29.44.969,Colour_Asymmetry_Pilot,2022.1.3,Win32,60.47411708,62c50e9c1127f2cd403a315f,0,73,73,9,1,onethree
,,,,,,60fbef4bd5562c92050fd1f8,62c539bced2dd29f8174f5af,2022-07-06_09h29.44.969,Colour_Asymmetry_Pilot,2022.1.3,Win32,60.47411708,62c50e9c1127f2cd403a315f,0,74,74,20,1,threeone
,,,,,,60fbef4bd5562c92050fd1f8,62c539bced2dd29f8174f5af,2022-07-06_09h29.44.969,Colour_Asymmetry_Pilot,2022.1.3,Win32,60.47411708,62c50e9c1127f2cd403a315f,0,75,75,126,1,fourtwo
,,,,,,60fbef4bd5562c92050fd1f8,62c539bced2dd29f8174f5af,2022-07-06_09h29.44.969,Colour_Asymmetry_Pilot,2022.1.3,Win32,60.47411708,62c50e9c1127f2cd403a315f,0,76,76,156,1,threeone
,,,,,,60fbef4bd5562c92050fd1f8,62c539bced2dd29f8174f5af,2022-07-06_09h29.44.969,Colour_Asymmetry_Pilot,2022.1.3,Win32,60.47411708,62c50e9c1127f2cd403a315f,0,77,77,68,1,threeone
,,,,,,60fbef4bd5562c92050fd1f8,62c539bced2dd29f8174f5af,2022-07-06_09h29.44.969,Colour_Asymmetry_Pilot,2022.1.3,Win32,60.47411708,62c50e9c1127f2cd403a315f,0,78,78,115,1,twofour
,,,,,,60fbef4bd5562c92050fd1f8,62c539bced2dd29f8174f5af,2022-07-06_09h29.44.969,Colour_Asymmetry_Pilot,2022.1.3,Win32,60.47411708,62c50e9c1127f2cd403a315f,0,79,79,63,1,fourthree
,,,,,,60fbef4bd5562c92050fd1f8,62c539bced2dd29f8174f5af,2022-07-06_09h29.44.969,Colour_Asymmetry_Pilot,2022.1.3,Win32,60.47411708,62c50e9c1127f2cd403a315f,0,80,80,53,1,threefour
,,,,,,60fbef4bd5562c92050fd1f8,62c539bced2dd29f8174f5af,2022-07-06_09h29.44.969,Colour_Asymmetry_Pilot,2022.1.3,Win32,60.47411708,62c50e9c1127f2cd403a315f,0,81,81,140,1,threeone
,,,,,,60fbef4bd5562c92050fd1f8,62c539bced2dd29f8174f5af,2022-07-06_09h29.44.969,Colour_Asymmetry_Pilot,2022.1.3,Win32,60.47411708,62c50e9c1127f2cd403a315f,0,82,82,100,1,threeone
,,,,,,60fbef4bd5562c92050fd1f8,62c539bced2dd29f8174f5af,2022-07-06_09h29.44.969,Colour_Asymmetry_Pilot,2022.1.3,Win32,60.47411708,62c50e9c1127f2cd403a315f,0,83,83,111,1,fourthree
,,,,,,60fbef4bd5562c92050fd1f8,62c539bced2dd29f8174f5af,2022-07-06_09h29.44.969,Colour_Asymmetry_Pilot,2022.1.3,Win32,60.47411708,62c50e9c1127f2cd403a315f,0,84,84,22,1,fourtwo
,,,,,,60fbef4bd5562c92050fd1f8,62c539bced2dd29f8174f5af,2022-07-06_09h29.44.969,Colour_Asymmetry_Pilot,2022.1.3,Win32,60.47411708,62c50e9c1127f2cd403a315f,0,85,85,88,1,onetwo
,,,,,,60fbef4bd5562c92050fd1f8,62c539bced2dd29f8174f5af,2022-07-06_09h29.44.969,Colour_Asymmetry_Pilot,2022.1.3,Win32,60.47411708,62c50e9c1127f2cd403a315f,0,86,86,153,1,onethree
,,,,,,60fbef4bd5562c92050fd1f8,62c539bced2dd29f8174f5af,2022-07-06_09h29.44.969,Colour_Asymmetry_Pilot,2022.1.3,Win32,60.47411708,62c50e9c1127f2cd403a315f,0,87,87,95,1,fourthree
,,,,,,60fbef4bd5562c92050fd1f8,62c539bced2dd29f8174f5af,2022-07-06_09h29.44.969,Colour_Asymmetry_Pilot,2022.1.3,Win32,60.47411708,62c50e9c1127f2cd403a315f,0,88,88,28,1,threeone
,,,,,,60fbef4bd5562c92050fd1f8,62c539bced2dd29f8174f5af,2022-07-06_09h29.44.969,Colour_Asymmetry_Pilot,2022.1.3,Win32,60.47411708,62c50e9c1127f2cd403a315f,0,89,89,25,1,onethree
,,,,,,60fbef4bd5562c92050fd1f8,62c539bced2dd29f8174f5af,2022-07-06_09h29.44.969,Colour_Asymmetry_Pilot,2022.1.3,Win32,60.47411708,62c50e9c1127f2cd403a315f,0,90,90,26,1,twoone
,,,,,,60fbef4bd5562c92050fd1f8,62c539bced2dd29f8174f5af,2022-07-06_09h29.44.969,Colour_Asymmetry_Pilot,2022.1.3,Win32,60.47411708,62c50e9c1127f2cd403a315f,0,91,91,128,1,onetwo
,,,,,,60fbef4bd5562c92050fd1f8,62c539bced2dd29f8174f5af,2022-07-06_09h29.44.969,Colour_Asymmetry_Pilot,2022.1.3,Win32,60.47411708,62c50e9c1127f2cd403a315f,0,92,92,139,1,twofour
,,,,,,60fbef4bd5562c92050fd1f8,62c539bced2dd29f8174f5af,2022-07-06_09h29.44.969,Colour_Asymmetry_Pilot,2022.1.3,Win32,60.47411708,62c50e9c1127f2cd403a315f,0,93,93,29,1,threefour
,,,,,,60fbef4bd5562c92050fd1f8,62c539bced2dd29f8174f5af,2022-07-06_09h29.44.969,Colour_Asymmetry_Pilot,2022.1.3,Win32,60.47411708,62c50e9c1127f2cd403a315f,0,94,94,17,1,onethree
,,,,,,60fbef4bd5562c92050fd1f8,62c539bced2dd29f8174f5af,2022-07-06_09h29.44.969,Colour_Asymmetry_Pilot,2022.1.3,Win32,60.47411708,62c50e9c1127f2cd403a315f,0,95,95,38,1,fourtwo
,,,,,,60fbef4bd5562c92050fd1f8,62c539bced2dd29f8174f5af,2022-07-06_09h29.44.969,Colour_Asymmetry_Pilot,2022.1.3,Win32,60.47411708,62c50e9c1127f2cd403a315f,0,96,96,123,1,twofour
,,,,,,60fbef4bd5562c92050fd1f8,62c539bced2dd29f8174f5af,2022-07-06_09h29.44.969,Colour_Asymmetry_Pilot,2022.1.3,Win32,60.47411708,62c50e9c1127f2cd403a315f,0,97,97,154,1,twoone
,,,,,,60fbef4bd5562c92050fd1f8,62c539bced2dd29f8174f5af,2022-07-06_09h29.44.969,Colour_Asymmetry_Pilot,2022.1.3,Win32,60.47411708,62c50e9c1127f2cd403a315f,0,98,98,56,1,onetwo
,,,,,,60fbef4bd5562c92050fd1f8,62c539bced2dd29f8174f5af,2022-07-06_09h29.44.969,Colour_Asymmetry_Pilot,2022.1.3,Win32,60.47411708,62c50e9c1127f2cd403a315f,0,99,99,161,1,onethree
,,,,,,60fbef4bd5562c92050fd1f8,62c539bced2dd29f8174f5af,2022-07-06_09h29.44.969,Colour_Asymmetry_Pilot,2022.1.3,Win32,60.47411708,62c50e9c1127f2cd403a315f,0,100,100,96,1,onetwo
,,,,,,60fbef4bd5562c92050fd1f8,62c539bced2dd29f8174f5af,2022-07-06_09h29.44.969,Colour_Asymmetry_Pilot,2022.1.3,Win32,60.47411708,62c50e9c1127f2cd403a315f,0,101,101,104,1,onetwo
,,,,,,60fbef4bd5562c92050fd1f8,62c539bced2dd29f8174f5af,2022-07-06_09h29.44.969,Colour_Asymmetry_Pilot,2022.1.3,Win32,60.47411708,62c50e9c1127f2cd403a315f,0,102,102,152,1,onetwo
,,,,,,60fbef4bd5562c92050fd1f8,62c539bced2dd29f8174f5af,2022-07-06_09h29.44.969,Colour_Asymmetry_Pilot,2022.1.3,Win32,60.47411708,62c50e9c1127f2cd403a315f,0,103,103,102,1,fourtwo
,,,,,,60fbef4bd5562c92050fd1f8,62c539bced2dd29f8174f5af,2022-07-06_09h29.44.969,Colour_Asymmetry_Pilot,2022.1.3,Win32,60.47411708,62c50e9c1127f2cd403a315f,0,104,104,143,1,fourthree
,,,,,,60fbef4bd5562c92050fd1f8,62c539bced2dd29f8174f5af,2022-07-06_09h29.44.969,Colour_Asymmetry_Pilot,2022.1.3,Win32,60.47411708,62c50e9c1127f2cd403a315f,0,105,105,52,1,threeone
,,,,,,60fbef4bd5562c92050fd1f8,62c539bced2dd29f8174f5af,2022-07-06_09h29.44.969,Colour_Asymmetry_Pilot,2022.1.3,Win32,60.47411708,62c50e9c1127f2cd403a315f,0,106,106,50,1,twoone
,,,,,,60fbef4bd5562c92050fd1f8,62c539bced2dd29f8174f5af,2022-07-06_09h29.44.969,Colour_Asymmetry_Pilot,2022.1.3,Win32,60.47411708,62c50e9c1127f2cd403a315f,0,107,107,83,1,twofour
,,,,,,60fbef4bd5562c92050fd1f8,62c539bced2dd29f8174f5af,2022-07-06_09h29.44.969,Colour_Asymmetry_Pilot,2022.1.3,Win32,60.47411708,62c50e9c1127f2cd403a315f,0,108,108,24,1,onetwo
,,,,,,60fbef4bd5562c92050fd1f8,62c539bced2dd29f8174f5af,2022-07-06_09h29.44.969,Colour_Asymmetry_Pilot,2022.1.3,Win32,60.47411708,62c50e9c1127f2cd403a315f,0,109,109,147,1,twofour
,,,,,,60fbef4bd5562c92050fd1f8,62c539bced2dd29f8174f5af,2022-07-06_09h29.44.969,Colour_Asymmetry_Pilot,2022.1.3,Win32,60.47411708,62c50e9c1127f2cd403a315f,0,110,110,119,1,fourthree
,,,,,,60fbef4bd5562c92050fd1f8,62c539bced2dd29f8174f5af,2022-07-06_09h29.44.969,Colour_Asymmetry_Pilot,2022.1.3,Win32,60.47411708,62c50e9c1127f2cd403a315f,0,111,111,134,1,fourtwo
,,,,,,60fbef4bd5562c92050fd1f8,62c539bced2dd29f8174f5af,2022-07-06_09h29.44.969,Colour_Asymmetry_Pilot,2022.1.3,Win32,60.47411708,62c50e9c1127f2cd403a315f,0,112,112,46,1,fourtwo
,,,,,,60fbef4bd5562c92050fd1f8,62c539bced2dd29f8174f5af,2022-07-06_09h29.44.969,Colour_Asymmetry_Pilot,2022.1.3,Win32,60.47411708,62c50e9c1127f2cd403a315f,0,113,113,131,1,twofour
,,,,,,60fbef4bd5562c92050fd1f8,62c539bced2dd29f8174f5af,2022-07-06_09h29.44.969,Colour_Asymmetry_Pilot,2022.1.3,Win32,60.47411708,62c50e9c1127f2cd403a315f,0,114,114,158,1,fourtwo
,,,,,,60fbef4bd5562c92050fd1f8,62c539bced2dd29f8174f5af,2022-07-06_09h29.44.969,Colour_Asymmetry_Pilot,2022.1.3,Win32,60.47411708,62c50e9c1127f2cd403a315f,0,115,115,90,1,twoone
,,,,,,60fbef4bd5562c92050fd1f8,62c539bced2dd29f8174f5af,2022-07-06_09h29.44.969,Colour_Asymmetry_Pilot,2022.1.3,Win32,60.47411708,62c50e9c1127f2cd403a315f,0,116,116,45,1,threefour
,,,,,,60fbef4bd5562c92050fd1f8,62c539bced2dd29f8174f5af,2022-07-06_09h29.44.969,Colour_Asymmetry_Pilot,2022.1.3,Win32,60.47411708,62c50e9c1127f2cd403a315f,0,117,117,93,1,threefour
,,,,,,60fbef4bd5562c92050fd1f8,62c539bced2dd29f8174f5af,2022-07-06_09h29.44.969,Colour_Asymmetry_Pilot,2022.1.3,Win32,60.47411708,62c50e9c1127f2cd403a315f,0,118,118,18,1,twoone
,,,,,,60fbef4bd5562c92050fd1f8,62c539bced2dd29f8174f5af,2022-07-06_09h29.44.969,Colour_Asymmetry_Pilot,2022.1.3,Win32,60.47411708,62c50e9c1127f2cd403a315f,0,119,119,98,1,twoone
,,,,,,60fbef4bd5562c92050fd1f8,62c539bced2dd29f8174f5af,2022-07-06_09h29.44.969,Colour_Asymmetry_Pilot,2022.1.3,Win32,60.47411708,62c50e9c1127f2cd403a315f,0,120,120,42,1,twoone
,,,,,,60fbef4bd5562c92050fd1f8,62c539bced2dd29f8174f5af,2022-07-06_09h29.44.969,Colour_Asymmetry_Pilot,2022.1.3,Win32,60.47411708,62c50e9c1127f2cd403a315f,0,121,121,105,1,onethree
,,,,,,60fbef4bd5562c92050fd1f8,62c539bced2dd29f8174f5af,2022-07-06_09h29.44.969,Colour_Asymmetry_Pilot,2022.1.3,Win32,60.47411708,62c50e9c1127f2cd403a315f,0,122,122,30,1,fourtwo
,,,,,,60fbef4bd5562c92050fd1f8,62c539bced2dd29f8174f5af,2022-07-06_09h29.44.969,Colour_Asymmetry_Pilot,2022.1.3,Win32,60.47411708,62c50e9c1127f2cd403a315f,0,123,123,5,1,threefour
,,,,,,60fbef4bd5562c92050fd1f8,62c539bced2dd29f8174f5af,2022-07-06_09h29.44.969,Colour_Asymmetry_Pilot,2022.1.3,Win32,60.47411708,62c50e9c1127f2cd403a315f,0,124,124,94,1,fourtwo
,,,,,,60fbef4bd5562c92050fd1f8,62c539bced2dd29f8174f5af,2022-07-06_09h29.44.969,Colour_Asymmetry_Pilot,2022.1.3,Win32,60.47411708,62c50e9c1127f2cd403a315f,0,125,125,133,1,threefour
,,,,,,60fbef4bd5562c92050fd1f8,62c539bced2dd29f8174f5af,2022-07-06_09h29.44.969,Colour_Asymmetry_Pilot,2022.1.3,Win32,60.47411708,62c50e9c1127f2cd403a315f,0,126,126,33,1,onethree
,,,,,,60fbef4bd5562c92050fd1f8,62c539bced2dd29f8174f5af,2022-07-06_09h29.44.969,Colour_Asymmetry_Pilot,2022.1.3,Win32,60.47411708,62c50e9c1127f2cd403a315f,0,127,127,54,1,fourtwo
,,,,,,60fbef4bd5562c92050fd1f8,62c539bced2dd29f8174f5af,2022-07-06_09h29.44.969,Colour_Asymmetry_Pilot,2022.1.3,Win32,60.47411708,62c50e9c1127f2cd403a315f,0,128,128,129,1,onethree
,,,,,,60fbef4bd5562c92050fd1f8,62c539bced2dd29f8174f5af,2022-07-06_09h29.44.969,Colour_Asymmetry_Pilot,2022.1.3,Win32,60.47411708,62c50e9c1127f2cd403a315f,0,129,129,118,1,fourtwo
,,,,,,60fbef4bd5562c92050fd1f8,62c539bced2dd29f8174f5af,2022-07-06_09h29.44.969,Colour_Asymmetry_Pilot,2022.1.3,Win32,60.47411708,62c50e9c1127f2cd403a315f,0,130,130,110,1,fourtwo
,,,,,,60fbef4bd5562c92050fd1f8,62c539bced2dd29f8174f5af,2022-07-06_09h29.44.969,Colour_Asymmetry_Pilot,2022.1.3,Win32,60.47411708,62c50e9c1127f2cd403a315f,0,131,131,142,1,fourtwo
,,,,,,60fbef4bd5562c92050fd1f8,62c539bced2dd29f8174f5af,2022-07-06_09h29.44.969,Colour_Asymmetry_Pilot,2022.1.3,Win32,60.47411708,62c50e9c1127f2cd403a315f,0,132,132,77,1,threefour
,,,,,,60fbef4bd5562c92050fd1f8,62c539bced2dd29f8174f5af,2022-07-06_09h29.44.969,Colour_Asymmetry_Pilot,2022.1.3,Win32,60.47411708,62c50e9c1127f2cd403a315f,0,133,133,23,1,fourthree
,,,,,,60fbef4bd5562c92050fd1f8,62c539bced2dd29f8174f5af,2022-07-06_09h29.44.969,Colour_Asymmetry_Pilot,2022.1.3,Win32,60.47411708,62c50e9c1127f2cd403a315f,0,134,134,3,1,twofour
,,,,,,60fbef4bd5562c92050fd1f8,62c539bced2dd29f8174f5af,2022-07-06_09h29.44.969,Colour_Asymmetry_Pilot,2022.1.3,Win32,60.47411708,62c50e9c1127f2cd403a315f,0,135,135,21,1,threefour
,,,,,,60fbef4bd5562c92050fd1f8,62c539bced2dd29f8174f5af,2022-07-06_09h29.44.969,Colour_Asymmetry_Pilot,2022.1.3,Win32,60.47411708,62c50e9c1127f2cd403a315f,0,136,136,41,1,onethree
,,,,,,60fbef4bd5562c92050fd1f8,62c539bced2dd29f8174f5af,2022-07-06_09h29.44.969,Colour_Asymmetry_Pilot,2022.1.3,Win32,60.47411708,62c50e9c1127f2cd403a315f,0,137,137,71,1,fourthree
,,,,,,60fbef4bd5562c92050fd1f8,62c539bced2dd29f8174f5af,2022-07-06_09h29.44.969,Colour_Asymmetry_Pilot,2022.1.3,Win32,60.47411708,62c50e9c1127f2cd403a315f,0,138,138,145,1,onethree
,,,,,,60fbef4bd5562c92050fd1f8,62c539bced2dd29f8174f5af,2022-07-06_09h29.44.969,Colour_Asymmetry_Pilot,2022.1.3,Win32,60.47411708,62c50e9c1127f2cd403a315f,0,139,139,15,1,fourthree
,,,,,,60fbef4bd5562c92050fd1f8,62c539bced2dd29f8174f5af,2022-07-06_09h29.44.969,Colour_Asymmetry_Pilot,2022.1.3,Win32,60.47411708,62c50e9c1127f2cd403a315f,0,140,140,148,1,threeone
,,,,,,60fbef4bd5562c92050fd1f8,62c539bced2dd29f8174f5af,2022-07-06_09h29.44.969,Colour_Asymmetry_Pilot,2022.1.3,Win32,60.47411708,62c50e9c1127f2cd403a315f,0,141,141,137,1,onethree
,,,,,,60fbef4bd5562c92050fd1f8,62c539bced2dd29f8174f5af,2022-07-06_09h29.44.969,Colour_Asymmetry_Pilot,2022.1.3,Win32,60.47411708,62c50e9c1127f2cd403a315f,0,142,142,0,1,onetwo
,,,,,,60fbef4bd5562c92050fd1f8,62c539bced2dd29f8174f5af,2022-07-06_09h29.44.969,Colour_Asymmetry_Pilot,2022.1.3,Win32,60.47411708,62c50e9c1127f2cd403a315f,0,143,143,82,1,twoone
,,,,,,60fbef4bd5562c92050fd1f8,62c539bced2dd29f8174f5af,2022-07-06_09h29.44.969,Colour_Asymmetry_Pilot,2022.1.3,Win32,60.47411708,62c50e9c1127f2cd403a315f,0,144,144,11,1,twofour
,,,,,,60fbef4bd5562c92050fd1f8,62c539bced2dd29f8174f5af,2022-07-06_09h29.44.969,Colour_Asymmetry_Pilot,2022.1.3,Win32,60.47411708,62c50e9c1127f2cd403a315f,0,145,145,122,1,twoone
,,,,,,60fbef4bd5562c92050fd1f8,62c539bced2dd29f8174f5af,2022-07-06_09h29.44.969,Colour_Asymmetry_Pilot,2022.1.3,Win32,60.47411708,62c50e9c1127f2cd403a315f,0,146,146,13,1,threefour
,,,,,,60fbef4bd5562c92050fd1f8,62c539bced2dd29f8174f5af,2022-07-06_09h29.44.969,Colour_Asymmetry_Pilot,2022.1.3,Win32,60.47411708,62c50e9c1127f2cd403a315f,0,147,147,51,1,twofour
,,,,,,60fbef4bd5562c92050fd1f8,62c539bced2dd29f8174f5af,2022-07-06_09h29.44.969,Colour_Asymmetry_Pilot,2022.1.3,Win32,60.47411708,62c50e9c1127f2cd403a315f,0,148,148,47,1,fourthree
,,,,,,60fbef4bd5562c92050fd1f8,62c539bced2dd29f8174f5af,2022-07-06_09h29.44.969,Colour_Asymmetry_Pilot,2022.1.3,Win32,60.47411708,62c50e9c1127f2cd403a315f,0,149,149,62,1,fourtwo
,,,,,,60fbef4bd5562c92050fd1f8,62c539bced2dd29f8174f5af,2022-07-06_09h29.44.969,Colour_Asymmetry_Pilot,2022.1.3,Win32,60.47411708,62c50e9c1127f2cd403a315f,0,150,150,86,1,fourtwo
,,,,,,60fbef4bd5562c92050fd1f8,62c539bced2dd29f8174f5af,2022-07-06_09h29.44.969,Colour_Asymmetry_Pilot,2022.1.3,Win32,60.47411708,62c50e9c1127f2cd403a315f,0,151,151,124,1,threeone
,,,,,,60fbef4bd5562c92050fd1f8,62c539bced2dd29f8174f5af,2022-07-06_09h29.44.969,Colour_Asymmetry_Pilot,2022.1.3,Win32,60.47411708,62c50e9c1127f2cd403a315f,0,152,152,160,1,onetwo
,,,,,,60fbef4bd5562c92050fd1f8,62c539bced2dd29f8174f5af,2022-07-06_09h29.44.969,Colour_Asymmetry_Pilot,2022.1.3,Win32,60.47411708,62c50e9c1127f2cd403a315f,0,153,153,34,1,twoone
,,,,,,60fbef4bd5562c92050fd1f8,62c539bced2dd29f8174f5af,2022-07-06_09h29.44.969,Colour_Asymmetry_Pilot,2022.1.3,Win32,60.47411708,62c50e9c1127f2cd403a315f,0,154,154,36,1,threeone
,,,,,,60fbef4bd5562c92050fd1f8,62c539bced2dd29f8174f5af,2022-07-06_09h29.44.969,Colour_Asymmetry_Pilot,2022.1.3,Win32,60.47411708,62c50e9c1127f2cd403a315f,0,155,155,79,1,fourthree
,,,,,,60fbef4bd5562c92050fd1f8,62c539bced2dd29f8174f5af,2022-07-06_09h29.44.969,Colour_Asymmetry_Pilot,2022.1.3,Win32,60.47411708,62c50e9c1127f2cd403a315f,0,156,156,113,1,onethree
,,,,,,60fbef4bd5562c92050fd1f8,62c539bced2dd29f8174f5af,2022-07-06_09h29.44.969,Colour_Asymmetry_Pilot,2022.1.3,Win32,60.47411708,62c50e9c1127f2cd403a315f,0,157,157,117,1,threefour
,,,,,,60fbef4bd5562c92050fd1f8,62c539bced2dd29f8174f5af,2022-07-06_09h29.44.969,Colour_Asymmetry_Pilot,2022.1.3,Win32,60.47411708,62c50e9c1127f2cd403a315f,0,158,158,67,1,twofour
,,,,,,60fbef4bd5562c92050fd1f8,62c539bced2dd29f8174f5af,2022-07-06_09h29.44.969,Colour_Asymmetry_Pilot,2022.1.3,Win32,60.47411708,62c50e9c1127f2cd403a315f,0,159,159,66,1,twoone
,,,,,,60fbef4bd5562c92050fd1f8,62c539bced2dd29f8174f5af,2022-07-06_09h29.44.969,Colour_Asymmetry_Pilot,2022.1.3,Win32,60.47411708,62c50e9c1127f2cd403a315f,0,160,160,89,1,onethree
,,,,,,60fbef4bd5562c92050fd1f8,62c539bced2dd29f8174f5af,2022-07-06_09h29.44.969,Colour_Asymmetry_Pilot,2022.1.3,Win32,60.47411708,62c50e9c1127f2cd403a315f,0,161,161,55,1,fourthree
