trials.thisRepN,trials.thisTrialN,trials.thisN,trials.thisIndex,trials.ran,Colourcodes,participant,session,date,expName,psychopyVersion,OS,frameRate,study_id,trials_4.thisRepN,trials_4.thisTrialN,trials_4.thisN,trials_4.thisIndex,trials_4.ran,StimulusPos
0,0,0,5,1,,615046c5dc8d53b5ddf25d56,62c53a525cbfb4ed3c74f596,2022-07-06_10h01.09.669,Colour_Asymmetry_Pilot,2022.1.3,Win32,60.07088364,62c50e9c1127f2cd403a315f,,,,,,
0,1,1,31,1,,615046c5dc8d53b5ddf25d56,62c53a525cbfb4ed3c74f596,2022-07-06_10h01.09.669,Colour_Asymmetry_Pilot,2022.1.3,Win32,60.07088364,62c50e9c1127f2cd403a315f,,,,,,
0,2,2,62,1,,615046c5dc8d53b5ddf25d56,62c53a525cbfb4ed3c74f596,2022-07-06_10h01.09.669,Colour_Asymmetry_Pilot,2022.1.3,Win32,60.07088364,62c50e9c1127f2cd403a315f,,,,,,
0,3,3,3,1,,615046c5dc8d53b5ddf25d56,62c53a525cbfb4ed3c74f596,2022-07-06_10h01.09.669,Colour_Asymmetry_Pilot,2022.1.3,Win32,60.07088364,62c50e9c1127f2cd403a315f,,,,,,
0,4,4,72,1,,615046c5dc8d53b5ddf25d56,62c53a525cbfb4ed3c74f596,2022-07-06_10h01.09.669,Colour_Asymmetry_Pilot,2022.1.3,Win32,60.07088364,62c50e9c1127f2cd403a315f,,,,,,
0,5,5,57,1,,615046c5dc8d53b5ddf25d56,62c53a525cbfb4ed3c74f596,2022-07-06_10h01.09.669,Colour_Asymmetry_Pilot,2022.1.3,Win32,60.07088364,62c50e9c1127f2cd403a315f,,,,,,
0,6,6,60,1,,615046c5dc8d53b5ddf25d56,62c53a525cbfb4ed3c74f596,2022-07-06_10h01.09.669,Colour_Asymmetry_Pilot,2022.1.3,Win32,60.07088364,62c50e9c1127f2cd403a315f,,,,,,
0,7,7,16,1,,615046c5dc8d53b5ddf25d56,62c53a525cbfb4ed3c74f596,2022-07-06_10h01.09.669,Colour_Asymmetry_Pilot,2022.1.3,Win32,60.07088364,62c50e9c1127f2cd403a315f,,,,,,
0,8,8,75,1,,615046c5dc8d53b5ddf25d56,62c53a525cbfb4ed3c74f596,2022-07-06_10h01.09.669,Colour_Asymmetry_Pilot,2022.1.3,Win32,60.07088364,62c50e9c1127f2cd403a315f,,,,,,
0,9,9,56,1,,615046c5dc8d53b5ddf25d56,62c53a525cbfb4ed3c74f596,2022-07-06_10h01.09.669,Colour_Asymmetry_Pilot,2022.1.3,Win32,60.07088364,62c50e9c1127f2cd403a315f,,,,,,
0,10,10,64,1,,615046c5dc8d53b5ddf25d56,62c53a525cbfb4ed3c74f596,2022-07-06_10h01.09.669,Colour_Asymmetry_Pilot,2022.1.3,Win32,60.07088364,62c50e9c1127f2cd403a315f,,,,,,
0,11,11,24,1,,615046c5dc8d53b5ddf25d56,62c53a525cbfb4ed3c74f596,2022-07-06_10h01.09.669,Colour_Asymmetry_Pilot,2022.1.3,Win32,60.07088364,62c50e9c1127f2cd403a315f,,,,,,
0,12,12,55,1,,615046c5dc8d53b5ddf25d56,62c53a525cbfb4ed3c74f596,2022-07-06_10h01.09.669,Colour_Asymmetry_Pilot,2022.1.3,Win32,60.07088364,62c50e9c1127f2cd403a315f,,,,,,
0,13,13,83,1,,615046c5dc8d53b5ddf25d56,62c53a525cbfb4ed3c74f596,2022-07-06_10h01.09.669,Colour_Asymmetry_Pilot,2022.1.3,Win32,60.07088364,62c50e9c1127f2cd403a315f,,,,,,
0,14,14,69,1,,615046c5dc8d53b5ddf25d56,62c53a525cbfb4ed3c74f596,2022-07-06_10h01.09.669,Colour_Asymmetry_Pilot,2022.1.3,Win32,60.07088364,62c50e9c1127f2cd403a315f,,,,,,
0,15,15,11,1,,615046c5dc8d53b5ddf25d56,62c53a525cbfb4ed3c74f596,2022-07-06_10h01.09.669,Colour_Asymmetry_Pilot,2022.1.3,Win32,60.07088364,62c50e9c1127f2cd403a315f,,,,,,
0,16,16,84,1,,615046c5dc8d53b5ddf25d56,62c53a525cbfb4ed3c74f596,2022-07-06_10h01.09.669,Colour_Asymmetry_Pilot,2022.1.3,Win32,60.07088364,62c50e9c1127f2cd403a315f,,,,,,
0,17,17,15,1,,615046c5dc8d53b5ddf25d56,62c53a525cbfb4ed3c74f596,2022-07-06_10h01.09.669,Colour_Asymmetry_Pilot,2022.1.3,Win32,60.07088364,62c50e9c1127f2cd403a315f,,,,,,
0,18,18,1,1,,615046c5dc8d53b5ddf25d56,62c53a525cbfb4ed3c74f596,2022-07-06_10h01.09.669,Colour_Asymmetry_Pilot,2022.1.3,Win32,60.07088364,62c50e9c1127f2cd403a315f,,,,,,
0,19,19,59,1,,615046c5dc8d53b5ddf25d56,62c53a525cbfb4ed3c74f596,2022-07-06_10h01.09.669,Colour_Asymmetry_Pilot,2022.1.3,Win32,60.07088364,62c50e9c1127f2cd403a315f,,,,,,
0,20,20,29,1,,615046c5dc8d53b5ddf25d56,62c53a525cbfb4ed3c74f596,2022-07-06_10h01.09.669,Colour_Asymmetry_Pilot,2022.1.3,Win32,60.07088364,62c50e9c1127f2cd403a315f,,,,,,
0,21,21,68,1,,615046c5dc8d53b5ddf25d56,62c53a525cbfb4ed3c74f596,2022-07-06_10h01.09.669,Colour_Asymmetry_Pilot,2022.1.3,Win32,60.07088364,62c50e9c1127f2cd403a315f,,,,,,
0,22,22,28,1,,615046c5dc8d53b5ddf25d56,62c53a525cbfb4ed3c74f596,2022-07-06_10h01.09.669,Colour_Asymmetry_Pilot,2022.1.3,Win32,60.07088364,62c50e9c1127f2cd403a315f,,,,,,
0,23,23,38,1,,615046c5dc8d53b5ddf25d56,62c53a525cbfb4ed3c74f596,2022-07-06_10h01.09.669,Colour_Asymmetry_Pilot,2022.1.3,Win32,60.07088364,62c50e9c1127f2cd403a315f,,,,,,
0,24,24,27,1,,615046c5dc8d53b5ddf25d56,62c53a525cbfb4ed3c74f596,2022-07-06_10h01.09.669,Colour_Asymmetry_Pilot,2022.1.3,Win32,60.07088364,62c50e9c1127f2cd403a315f,,,,,,
0,25,25,42,1,,615046c5dc8d53b5ddf25d56,62c53a525cbfb4ed3c74f596,2022-07-06_10h01.09.669,Colour_Asymmetry_Pilot,2022.1.3,Win32,60.07088364,62c50e9c1127f2cd403a315f,,,,,,
0,26,26,47,1,,615046c5dc8d53b5ddf25d56,62c53a525cbfb4ed3c74f596,2022-07-06_10h01.09.669,Colour_Asymmetry_Pilot,2022.1.3,Win32,60.07088364,62c50e9c1127f2cd403a315f,,,,,,
0,27,27,18,1,,615046c5dc8d53b5ddf25d56,62c53a525cbfb4ed3c74f596,2022-07-06_10h01.09.669,Colour_Asymmetry_Pilot,2022.1.3,Win32,60.07088364,62c50e9c1127f2cd403a315f,,,,,,
0,28,28,22,1,,615046c5dc8d53b5ddf25d56,62c53a525cbfb4ed3c74f596,2022-07-06_10h01.09.669,Colour_Asymmetry_Pilot,2022.1.3,Win32,60.07088364,62c50e9c1127f2cd403a315f,,,,,,
0,29,29,30,1,,615046c5dc8d53b5ddf25d56,62c53a525cbfb4ed3c74f596,2022-07-06_10h01.09.669,Colour_Asymmetry_Pilot,2022.1.3,Win32,60.07088364,62c50e9c1127f2cd403a315f,,,,,,
0,30,30,70,1,,615046c5dc8d53b5ddf25d56,62c53a525cbfb4ed3c74f596,2022-07-06_10h01.09.669,Colour_Asymmetry_Pilot,2022.1.3,Win32,60.07088364,62c50e9c1127f2cd403a315f,,,,,,
0,31,31,50,1,,615046c5dc8d53b5ddf25d56,62c53a525cbfb4ed3c74f596,2022-07-06_10h01.09.669,Colour_Asymmetry_Pilot,2022.1.3,Win32,60.07088364,62c50e9c1127f2cd403a315f,,,,,,
0,32,32,52,1,,615046c5dc8d53b5ddf25d56,62c53a525cbfb4ed3c74f596,2022-07-06_10h01.09.669,Colour_Asymmetry_Pilot,2022.1.3,Win32,60.07088364,62c50e9c1127f2cd403a315f,,,,,,
0,33,33,2,1,,615046c5dc8d53b5ddf25d56,62c53a525cbfb4ed3c74f596,2022-07-06_10h01.09.669,Colour_Asymmetry_Pilot,2022.1.3,Win32,60.07088364,62c50e9c1127f2cd403a315f,,,,,,
0,34,34,19,1,,615046c5dc8d53b5ddf25d56,62c53a525cbfb4ed3c74f596,2022-07-06_10h01.09.669,Colour_Asymmetry_Pilot,2022.1.3,Win32,60.07088364,62c50e9c1127f2cd403a315f,,,,,,
0,35,35,79,1,,615046c5dc8d53b5ddf25d56,62c53a525cbfb4ed3c74f596,2022-07-06_10h01.09.669,Colour_Asymmetry_Pilot,2022.1.3,Win32,60.07088364,62c50e9c1127f2cd403a315f,,,,,,
0,36,36,87,1,,615046c5dc8d53b5ddf25d56,62c53a525cbfb4ed3c74f596,2022-07-06_10h01.09.669,Colour_Asymmetry_Pilot,2022.1.3,Win32,60.07088364,62c50e9c1127f2cd403a315f,,,,,,
0,37,37,43,1,,615046c5dc8d53b5ddf25d56,62c53a525cbfb4ed3c74f596,2022-07-06_10h01.09.669,Colour_Asymmetry_Pilot,2022.1.3,Win32,60.07088364,62c50e9c1127f2cd403a315f,,,,,,
0,38,38,44,1,,615046c5dc8d53b5ddf25d56,62c53a525cbfb4ed3c74f596,2022-07-06_10h01.09.669,Colour_Asymmetry_Pilot,2022.1.3,Win32,60.07088364,62c50e9c1127f2cd403a315f,,,,,,
0,39,39,25,1,,615046c5dc8d53b5ddf25d56,62c53a525cbfb4ed3c74f596,2022-07-06_10h01.09.669,Colour_Asymmetry_Pilot,2022.1.3,Win32,60.07088364,62c50e9c1127f2cd403a315f,,,,,,
0,40,40,46,1,,615046c5dc8d53b5ddf25d56,62c53a525cbfb4ed3c74f596,2022-07-06_10h01.09.669,Colour_Asymmetry_Pilot,2022.1.3,Win32,60.07088364,62c50e9c1127f2cd403a315f,,,,,,
0,41,41,49,1,,615046c5dc8d53b5ddf25d56,62c53a525cbfb4ed3c74f596,2022-07-06_10h01.09.669,Colour_Asymmetry_Pilot,2022.1.3,Win32,60.07088364,62c50e9c1127f2cd403a315f,,,,,,
0,42,42,85,1,,615046c5dc8d53b5ddf25d56,62c53a525cbfb4ed3c74f596,2022-07-06_10h01.09.669,Colour_Asymmetry_Pilot,2022.1.3,Win32,60.07088364,62c50e9c1127f2cd403a315f,,,,,,
0,43,43,34,1,,615046c5dc8d53b5ddf25d56,62c53a525cbfb4ed3c74f596,2022-07-06_10h01.09.669,Colour_Asymmetry_Pilot,2022.1.3,Win32,60.07088364,62c50e9c1127f2cd403a315f,,,,,,
0,44,44,81,1,,615046c5dc8d53b5ddf25d56,62c53a525cbfb4ed3c74f596,2022-07-06_10h01.09.669,Colour_Asymmetry_Pilot,2022.1.3,Win32,60.07088364,62c50e9c1127f2cd403a315f,,,,,,
0,45,45,67,1,,615046c5dc8d53b5ddf25d56,62c53a525cbfb4ed3c74f596,2022-07-06_10h01.09.669,Colour_Asymmetry_Pilot,2022.1.3,Win32,60.07088364,62c50e9c1127f2cd403a315f,,,,,,
0,46,46,65,1,,615046c5dc8d53b5ddf25d56,62c53a525cbfb4ed3c74f596,2022-07-06_10h01.09.669,Colour_Asymmetry_Pilot,2022.1.3,Win32,60.07088364,62c50e9c1127f2cd403a315f,,,,,,
0,47,47,9,1,,615046c5dc8d53b5ddf25d56,62c53a525cbfb4ed3c74f596,2022-07-06_10h01.09.669,Colour_Asymmetry_Pilot,2022.1.3,Win32,60.07088364,62c50e9c1127f2cd403a315f,,,,,,
0,48,48,61,1,,615046c5dc8d53b5ddf25d56,62c53a525cbfb4ed3c74f596,2022-07-06_10h01.09.669,Colour_Asymmetry_Pilot,2022.1.3,Win32,60.07088364,62c50e9c1127f2cd403a315f,,,,,,
0,49,49,8,1,,615046c5dc8d53b5ddf25d56,62c53a525cbfb4ed3c74f596,2022-07-06_10h01.09.669,Colour_Asymmetry_Pilot,2022.1.3,Win32,60.07088364,62c50e9c1127f2cd403a315f,,,,,,
0,50,50,4,1,,615046c5dc8d53b5ddf25d56,62c53a525cbfb4ed3c74f596,2022-07-06_10h01.09.669,Colour_Asymmetry_Pilot,2022.1.3,Win32,60.07088364,62c50e9c1127f2cd403a315f,,,,,,
0,51,51,37,1,,615046c5dc8d53b5ddf25d56,62c53a525cbfb4ed3c74f596,2022-07-06_10h01.09.669,Colour_Asymmetry_Pilot,2022.1.3,Win32,60.07088364,62c50e9c1127f2cd403a315f,,,,,,
0,52,52,13,1,,615046c5dc8d53b5ddf25d56,62c53a525cbfb4ed3c74f596,2022-07-06_10h01.09.669,Colour_Asymmetry_Pilot,2022.1.3,Win32,60.07088364,62c50e9c1127f2cd403a315f,,,,,,
0,53,53,32,1,,615046c5dc8d53b5ddf25d56,62c53a525cbfb4ed3c74f596,2022-07-06_10h01.09.669,Colour_Asymmetry_Pilot,2022.1.3,Win32,60.07088364,62c50e9c1127f2cd403a315f,,,,,,
0,54,54,88,1,,615046c5dc8d53b5ddf25d56,62c53a525cbfb4ed3c74f596,2022-07-06_10h01.09.669,Colour_Asymmetry_Pilot,2022.1.3,Win32,60.07088364,62c50e9c1127f2cd403a315f,,,,,,
0,55,55,12,1,,615046c5dc8d53b5ddf25d56,62c53a525cbfb4ed3c74f596,2022-07-06_10h01.09.669,Colour_Asymmetry_Pilot,2022.1.3,Win32,60.07088364,62c50e9c1127f2cd403a315f,,,,,,
0,56,56,36,1,,615046c5dc8d53b5ddf25d56,62c53a525cbfb4ed3c74f596,2022-07-06_10h01.09.669,Colour_Asymmetry_Pilot,2022.1.3,Win32,60.07088364,62c50e9c1127f2cd403a315f,,,,,,
0,57,57,21,1,,615046c5dc8d53b5ddf25d56,62c53a525cbfb4ed3c74f596,2022-07-06_10h01.09.669,Colour_Asymmetry_Pilot,2022.1.3,Win32,60.07088364,62c50e9c1127f2cd403a315f,,,,,,
0,58,58,14,1,,615046c5dc8d53b5ddf25d56,62c53a525cbfb4ed3c74f596,2022-07-06_10h01.09.669,Colour_Asymmetry_Pilot,2022.1.3,Win32,60.07088364,62c50e9c1127f2cd403a315f,,,,,,
0,59,59,89,1,,615046c5dc8d53b5ddf25d56,62c53a525cbfb4ed3c74f596,2022-07-06_10h01.09.669,Colour_Asymmetry_Pilot,2022.1.3,Win32,60.07088364,62c50e9c1127f2cd403a315f,,,,,,
0,60,60,73,1,,615046c5dc8d53b5ddf25d56,62c53a525cbfb4ed3c74f596,2022-07-06_10h01.09.669,Colour_Asymmetry_Pilot,2022.1.3,Win32,60.07088364,62c50e9c1127f2cd403a315f,,,,,,
0,61,61,58,1,,615046c5dc8d53b5ddf25d56,62c53a525cbfb4ed3c74f596,2022-07-06_10h01.09.669,Colour_Asymmetry_Pilot,2022.1.3,Win32,60.07088364,62c50e9c1127f2cd403a315f,,,,,,
0,62,62,20,1,,615046c5dc8d53b5ddf25d56,62c53a525cbfb4ed3c74f596,2022-07-06_10h01.09.669,Colour_Asymmetry_Pilot,2022.1.3,Win32,60.07088364,62c50e9c1127f2cd403a315f,,,,,,
0,63,63,63,1,,615046c5dc8d53b5ddf25d56,62c53a525cbfb4ed3c74f596,2022-07-06_10h01.09.669,Colour_Asymmetry_Pilot,2022.1.3,Win32,60.07088364,62c50e9c1127f2cd403a315f,,,,,,
0,64,64,53,1,,615046c5dc8d53b5ddf25d56,62c53a525cbfb4ed3c74f596,2022-07-06_10h01.09.669,Colour_Asymmetry_Pilot,2022.1.3,Win32,60.07088364,62c50e9c1127f2cd403a315f,,,,,,
0,65,65,35,1,,615046c5dc8d53b5ddf25d56,62c53a525cbfb4ed3c74f596,2022-07-06_10h01.09.669,Colour_Asymmetry_Pilot,2022.1.3,Win32,60.07088364,62c50e9c1127f2cd403a315f,,,,,,
0,66,66,10,1,,615046c5dc8d53b5ddf25d56,62c53a525cbfb4ed3c74f596,2022-07-06_10h01.09.669,Colour_Asymmetry_Pilot,2022.1.3,Win32,60.07088364,62c50e9c1127f2cd403a315f,,,,,,
0,67,67,33,1,,615046c5dc8d53b5ddf25d56,62c53a525cbfb4ed3c74f596,2022-07-06_10h01.09.669,Colour_Asymmetry_Pilot,2022.1.3,Win32,60.07088364,62c50e9c1127f2cd403a315f,,,,,,
0,68,68,48,1,,615046c5dc8d53b5ddf25d56,62c53a525cbfb4ed3c74f596,2022-07-06_10h01.09.669,Colour_Asymmetry_Pilot,2022.1.3,Win32,60.07088364,62c50e9c1127f2cd403a315f,,,,,,
0,69,69,76,1,,615046c5dc8d53b5ddf25d56,62c53a525cbfb4ed3c74f596,2022-07-06_10h01.09.669,Colour_Asymmetry_Pilot,2022.1.3,Win32,60.07088364,62c50e9c1127f2cd403a315f,,,,,,
0,70,70,77,1,,615046c5dc8d53b5ddf25d56,62c53a525cbfb4ed3c74f596,2022-07-06_10h01.09.669,Colour_Asymmetry_Pilot,2022.1.3,Win32,60.07088364,62c50e9c1127f2cd403a315f,,,,,,
0,71,71,40,1,,615046c5dc8d53b5ddf25d56,62c53a525cbfb4ed3c74f596,2022-07-06_10h01.09.669,Colour_Asymmetry_Pilot,2022.1.3,Win32,60.07088364,62c50e9c1127f2cd403a315f,,,,,,
0,72,72,54,1,,615046c5dc8d53b5ddf25d56,62c53a525cbfb4ed3c74f596,2022-07-06_10h01.09.669,Colour_Asymmetry_Pilot,2022.1.3,Win32,60.07088364,62c50e9c1127f2cd403a315f,,,,,,
0,73,73,17,1,,615046c5dc8d53b5ddf25d56,62c53a525cbfb4ed3c74f596,2022-07-06_10h01.09.669,Colour_Asymmetry_Pilot,2022.1.3,Win32,60.07088364,62c50e9c1127f2cd403a315f,,,,,,
0,74,74,90,1,,615046c5dc8d53b5ddf25d56,62c53a525cbfb4ed3c74f596,2022-07-06_10h01.09.669,Colour_Asymmetry_Pilot,2022.1.3,Win32,60.07088364,62c50e9c1127f2cd403a315f,,,,,,
0,75,75,41,1,,615046c5dc8d53b5ddf25d56,62c53a525cbfb4ed3c74f596,2022-07-06_10h01.09.669,Colour_Asymmetry_Pilot,2022.1.3,Win32,60.07088364,62c50e9c1127f2cd403a315f,,,,,,
0,76,76,23,1,,615046c5dc8d53b5ddf25d56,62c53a525cbfb4ed3c74f596,2022-07-06_10h01.09.669,Colour_Asymmetry_Pilot,2022.1.3,Win32,60.07088364,62c50e9c1127f2cd403a315f,,,,,,
0,77,77,91,1,,615046c5dc8d53b5ddf25d56,62c53a525cbfb4ed3c74f596,2022-07-06_10h01.09.669,Colour_Asymmetry_Pilot,2022.1.3,Win32,60.07088364,62c50e9c1127f2cd403a315f,,,,,,
0,78,78,66,1,,615046c5dc8d53b5ddf25d56,62c53a525cbfb4ed3c74f596,2022-07-06_10h01.09.669,Colour_Asymmetry_Pilot,2022.1.3,Win32,60.07088364,62c50e9c1127f2cd403a315f,,,,,,
0,79,79,78,1,,615046c5dc8d53b5ddf25d56,62c53a525cbfb4ed3c74f596,2022-07-06_10h01.09.669,Colour_Asymmetry_Pilot,2022.1.3,Win32,60.07088364,62c50e9c1127f2cd403a315f,,,,,,
0,80,80,7,1,,615046c5dc8d53b5ddf25d56,62c53a525cbfb4ed3c74f596,2022-07-06_10h01.09.669,Colour_Asymmetry_Pilot,2022.1.3,Win32,60.07088364,62c50e9c1127f2cd403a315f,,,,,,
0,81,81,26,1,,615046c5dc8d53b5ddf25d56,62c53a525cbfb4ed3c74f596,2022-07-06_10h01.09.669,Colour_Asymmetry_Pilot,2022.1.3,Win32,60.07088364,62c50e9c1127f2cd403a315f,,,,,,
0,82,82,82,1,,615046c5dc8d53b5ddf25d56,62c53a525cbfb4ed3c74f596,2022-07-06_10h01.09.669,Colour_Asymmetry_Pilot,2022.1.3,Win32,60.07088364,62c50e9c1127f2cd403a315f,,,,,,
0,83,83,39,1,,615046c5dc8d53b5ddf25d56,62c53a525cbfb4ed3c74f596,2022-07-06_10h01.09.669,Colour_Asymmetry_Pilot,2022.1.3,Win32,60.07088364,62c50e9c1127f2cd403a315f,,,,,,
0,84,84,80,1,,615046c5dc8d53b5ddf25d56,62c53a525cbfb4ed3c74f596,2022-07-06_10h01.09.669,Colour_Asymmetry_Pilot,2022.1.3,Win32,60.07088364,62c50e9c1127f2cd403a315f,,,,,,
0,85,85,92,1,,615046c5dc8d53b5ddf25d56,62c53a525cbfb4ed3c74f596,2022-07-06_10h01.09.669,Colour_Asymmetry_Pilot,2022.1.3,Win32,60.07088364,62c50e9c1127f2cd403a315f,,,,,,
0,86,86,71,1,,615046c5dc8d53b5ddf25d56,62c53a525cbfb4ed3c74f596,2022-07-06_10h01.09.669,Colour_Asymmetry_Pilot,2022.1.3,Win32,60.07088364,62c50e9c1127f2cd403a315f,,,,,,
0,87,87,45,1,,615046c5dc8d53b5ddf25d56,62c53a525cbfb4ed3c74f596,2022-07-06_10h01.09.669,Colour_Asymmetry_Pilot,2022.1.3,Win32,60.07088364,62c50e9c1127f2cd403a315f,,,,,,
0,88,88,6,1,,615046c5dc8d53b5ddf25d56,62c53a525cbfb4ed3c74f596,2022-07-06_10h01.09.669,Colour_Asymmetry_Pilot,2022.1.3,Win32,60.07088364,62c50e9c1127f2cd403a315f,,,,,,
0,89,89,86,1,,615046c5dc8d53b5ddf25d56,62c53a525cbfb4ed3c74f596,2022-07-06_10h01.09.669,Colour_Asymmetry_Pilot,2022.1.3,Win32,60.07088364,62c50e9c1127f2cd403a315f,,,,,,
0,90,90,0,1,,615046c5dc8d53b5ddf25d56,62c53a525cbfb4ed3c74f596,2022-07-06_10h01.09.669,Colour_Asymmetry_Pilot,2022.1.3,Win32,60.07088364,62c50e9c1127f2cd403a315f,,,,,,
0,91,91,74,1,,615046c5dc8d53b5ddf25d56,62c53a525cbfb4ed3c74f596,2022-07-06_10h01.09.669,Colour_Asymmetry_Pilot,2022.1.3,Win32,60.07088364,62c50e9c1127f2cd403a315f,,,,,,
0,92,92,51,1,,615046c5dc8d53b5ddf25d56,62c53a525cbfb4ed3c74f596,2022-07-06_10h01.09.669,Colour_Asymmetry_Pilot,2022.1.3,Win32,60.07088364,62c50e9c1127f2cd403a315f,,,,,,
,,,,,,615046c5dc8d53b5ddf25d56,62c53a525cbfb4ed3c74f596,2022-07-06_10h01.09.669,Colour_Asymmetry_Pilot,2022.1.3,Win32,60.07088364,62c50e9c1127f2cd403a315f,0,0,0,68,1,threeone
,,,,,,615046c5dc8d53b5ddf25d56,62c53a525cbfb4ed3c74f596,2022-07-06_10h01.09.669,Colour_Asymmetry_Pilot,2022.1.3,Win32,60.07088364,62c50e9c1127f2cd403a315f,0,1,1,33,1,onethree
,,,,,,615046c5dc8d53b5ddf25d56,62c53a525cbfb4ed3c74f596,2022-07-06_10h01.09.669,Colour_Asymmetry_Pilot,2022.1.3,Win32,60.07088364,62c50e9c1127f2cd403a315f,0,2,2,2,1,twoone
,,,,,,615046c5dc8d53b5ddf25d56,62c53a525cbfb4ed3c74f596,2022-07-06_10h01.09.669,Colour_Asymmetry_Pilot,2022.1.3,Win32,60.07088364,62c50e9c1127f2cd403a315f,0,3,3,123,1,twofour
,,,,,,615046c5dc8d53b5ddf25d56,62c53a525cbfb4ed3c74f596,2022-07-06_10h01.09.669,Colour_Asymmetry_Pilot,2022.1.3,Win32,60.07088364,62c50e9c1127f2cd403a315f,0,4,4,126,1,fourtwo
,,,,,,615046c5dc8d53b5ddf25d56,62c53a525cbfb4ed3c74f596,2022-07-06_10h01.09.669,Colour_Asymmetry_Pilot,2022.1.3,Win32,60.07088364,62c50e9c1127f2cd403a315f,0,5,5,129,1,onethree
,,,,,,615046c5dc8d53b5ddf25d56,62c53a525cbfb4ed3c74f596,2022-07-06_10h01.09.669,Colour_Asymmetry_Pilot,2022.1.3,Win32,60.07088364,62c50e9c1127f2cd403a315f,0,6,6,92,1,threeone
,,,,,,615046c5dc8d53b5ddf25d56,62c53a525cbfb4ed3c74f596,2022-07-06_10h01.09.669,Colour_Asymmetry_Pilot,2022.1.3,Win32,60.07088364,62c50e9c1127f2cd403a315f,0,7,7,91,1,twofour
,,,,,,615046c5dc8d53b5ddf25d56,62c53a525cbfb4ed3c74f596,2022-07-06_10h01.09.669,Colour_Asymmetry_Pilot,2022.1.3,Win32,60.07088364,62c50e9c1127f2cd403a315f,0,8,8,109,1,threefour
,,,,,,615046c5dc8d53b5ddf25d56,62c53a525cbfb4ed3c74f596,2022-07-06_10h01.09.669,Colour_Asymmetry_Pilot,2022.1.3,Win32,60.07088364,62c50e9c1127f2cd403a315f,0,9,9,61,1,threefour
,,,,,,615046c5dc8d53b5ddf25d56,62c53a525cbfb4ed3c74f596,2022-07-06_10h01.09.669,Colour_Asymmetry_Pilot,2022.1.3,Win32,60.07088364,62c50e9c1127f2cd403a315f,0,10,10,143,1,fourthree
,,,,,,615046c5dc8d53b5ddf25d56,62c53a525cbfb4ed3c74f596,2022-07-06_10h01.09.669,Colour_Asymmetry_Pilot,2022.1.3,Win32,60.07088364,62c50e9c1127f2cd403a315f,0,11,11,59,1,twofour
,,,,,,615046c5dc8d53b5ddf25d56,62c53a525cbfb4ed3c74f596,2022-07-06_10h01.09.669,Colour_Asymmetry_Pilot,2022.1.3,Win32,60.07088364,62c50e9c1127f2cd403a315f,0,12,12,31,1,fourthree
,,,,,,615046c5dc8d53b5ddf25d56,62c53a525cbfb4ed3c74f596,2022-07-06_10h01.09.669,Colour_Asymmetry_Pilot,2022.1.3,Win32,60.07088364,62c50e9c1127f2cd403a315f,0,13,13,155,1,twofour
,,,,,,615046c5dc8d53b5ddf25d56,62c53a525cbfb4ed3c74f596,2022-07-06_10h01.09.669,Colour_Asymmetry_Pilot,2022.1.3,Win32,60.07088364,62c50e9c1127f2cd403a315f,0,14,14,86,1,fourtwo
,,,,,,615046c5dc8d53b5ddf25d56,62c53a525cbfb4ed3c74f596,2022-07-06_10h01.09.669,Colour_Asymmetry_Pilot,2022.1.3,Win32,60.07088364,62c50e9c1127f2cd403a315f,0,15,15,62,1,fourtwo
,,,,,,615046c5dc8d53b5ddf25d56,62c53a525cbfb4ed3c74f596,2022-07-06_10h01.09.669,Colour_Asymmetry_Pilot,2022.1.3,Win32,60.07088364,62c50e9c1127f2cd403a315f,0,16,16,83,1,twofour
,,,,,,615046c5dc8d53b5ddf25d56,62c53a525cbfb4ed3c74f596,2022-07-06_10h01.09.669,Colour_Asymmetry_Pilot,2022.1.3,Win32,60.07088364,62c50e9c1127f2cd403a315f,0,17,17,0,1,onetwo
,,,,,,615046c5dc8d53b5ddf25d56,62c53a525cbfb4ed3c74f596,2022-07-06_10h01.09.669,Colour_Asymmetry_Pilot,2022.1.3,Win32,60.07088364,62c50e9c1127f2cd403a315f,0,18,18,5,1,threefour
,,,,,,615046c5dc8d53b5ddf25d56,62c53a525cbfb4ed3c74f596,2022-07-06_10h01.09.669,Colour_Asymmetry_Pilot,2022.1.3,Win32,60.07088364,62c50e9c1127f2cd403a315f,0,19,19,149,1,threefour
,,,,,,615046c5dc8d53b5ddf25d56,62c53a525cbfb4ed3c74f596,2022-07-06_10h01.09.669,Colour_Asymmetry_Pilot,2022.1.3,Win32,60.07088364,62c50e9c1127f2cd403a315f,0,20,20,89,1,onethree
,,,,,,615046c5dc8d53b5ddf25d56,62c53a525cbfb4ed3c74f596,2022-07-06_10h01.09.669,Colour_Asymmetry_Pilot,2022.1.3,Win32,60.07088364,62c50e9c1127f2cd403a315f,0,21,21,43,1,twofour
,,,,,,615046c5dc8d53b5ddf25d56,62c53a525cbfb4ed3c74f596,2022-07-06_10h01.09.669,Colour_Asymmetry_Pilot,2022.1.3,Win32,60.07088364,62c50e9c1127f2cd403a315f,0,22,22,35,1,twofour
,,,,,,615046c5dc8d53b5ddf25d56,62c53a525cbfb4ed3c74f596,2022-07-06_10h01.09.669,Colour_Asymmetry_Pilot,2022.1.3,Win32,60.07088364,62c50e9c1127f2cd403a315f,0,23,23,57,1,onethree
,,,,,,615046c5dc8d53b5ddf25d56,62c53a525cbfb4ed3c74f596,2022-07-06_10h01.09.669,Colour_Asymmetry_Pilot,2022.1.3,Win32,60.07088364,62c50e9c1127f2cd403a315f,0,24,24,130,1,twoone
,,,,,,615046c5dc8d53b5ddf25d56,62c53a525cbfb4ed3c74f596,2022-07-06_10h01.09.669,Colour_Asymmetry_Pilot,2022.1.3,Win32,60.07088364,62c50e9c1127f2cd403a315f,0,25,25,94,1,fourtwo
,,,,,,615046c5dc8d53b5ddf25d56,62c53a525cbfb4ed3c74f596,2022-07-06_10h01.09.669,Colour_Asymmetry_Pilot,2022.1.3,Win32,60.07088364,62c50e9c1127f2cd403a315f,0,26,26,50,1,twoone
,,,,,,615046c5dc8d53b5ddf25d56,62c53a525cbfb4ed3c74f596,2022-07-06_10h01.09.669,Colour_Asymmetry_Pilot,2022.1.3,Win32,60.07088364,62c50e9c1127f2cd403a315f,0,27,27,111,1,fourthree
,,,,,,615046c5dc8d53b5ddf25d56,62c53a525cbfb4ed3c74f596,2022-07-06_10h01.09.669,Colour_Asymmetry_Pilot,2022.1.3,Win32,60.07088364,62c50e9c1127f2cd403a315f,0,28,28,36,1,threeone
,,,,,,615046c5dc8d53b5ddf25d56,62c53a525cbfb4ed3c74f596,2022-07-06_10h01.09.669,Colour_Asymmetry_Pilot,2022.1.3,Win32,60.07088364,62c50e9c1127f2cd403a315f,0,29,29,70,1,fourtwo
,,,,,,615046c5dc8d53b5ddf25d56,62c53a525cbfb4ed3c74f596,2022-07-06_10h01.09.669,Colour_Asymmetry_Pilot,2022.1.3,Win32,60.07088364,62c50e9c1127f2cd403a315f,0,30,30,52,1,threeone
,,,,,,615046c5dc8d53b5ddf25d56,62c53a525cbfb4ed3c74f596,2022-07-06_10h01.09.669,Colour_Asymmetry_Pilot,2022.1.3,Win32,60.07088364,62c50e9c1127f2cd403a315f,0,31,31,142,1,fourtwo
,,,,,,615046c5dc8d53b5ddf25d56,62c53a525cbfb4ed3c74f596,2022-07-06_10h01.09.669,Colour_Asymmetry_Pilot,2022.1.3,Win32,60.07088364,62c50e9c1127f2cd403a315f,0,32,32,114,1,twoone
,,,,,,615046c5dc8d53b5ddf25d56,62c53a525cbfb4ed3c74f596,2022-07-06_10h01.09.669,Colour_Asymmetry_Pilot,2022.1.3,Win32,60.07088364,62c50e9c1127f2cd403a315f,0,33,33,23,1,fourthree
,,,,,,615046c5dc8d53b5ddf25d56,62c53a525cbfb4ed3c74f596,2022-07-06_10h01.09.669,Colour_Asymmetry_Pilot,2022.1.3,Win32,60.07088364,62c50e9c1127f2cd403a315f,0,34,34,4,1,threeone
,,,,,,615046c5dc8d53b5ddf25d56,62c53a525cbfb4ed3c74f596,2022-07-06_10h01.09.669,Colour_Asymmetry_Pilot,2022.1.3,Win32,60.07088364,62c50e9c1127f2cd403a315f,0,35,35,98,1,twoone
,,,,,,615046c5dc8d53b5ddf25d56,62c53a525cbfb4ed3c74f596,2022-07-06_10h01.09.669,Colour_Asymmetry_Pilot,2022.1.3,Win32,60.07088364,62c50e9c1127f2cd403a315f,0,36,36,15,1,fourthree
,,,,,,615046c5dc8d53b5ddf25d56,62c53a525cbfb4ed3c74f596,2022-07-06_10h01.09.669,Colour_Asymmetry_Pilot,2022.1.3,Win32,60.07088364,62c50e9c1127f2cd403a315f,0,37,37,60,1,threeone
,,,,,,615046c5dc8d53b5ddf25d56,62c53a525cbfb4ed3c74f596,2022-07-06_10h01.09.669,Colour_Asymmetry_Pilot,2022.1.3,Win32,60.07088364,62c50e9c1127f2cd403a315f,0,38,38,44,1,threeone
,,,,,,615046c5dc8d53b5ddf25d56,62c53a525cbfb4ed3c74f596,2022-07-06_10h01.09.669,Colour_Asymmetry_Pilot,2022.1.3,Win32,60.07088364,62c50e9c1127f2cd403a315f,0,39,39,76,1,threeone
,,,,,,615046c5dc8d53b5ddf25d56,62c53a525cbfb4ed3c74f596,2022-07-06_10h01.09.669,Colour_Asymmetry_Pilot,2022.1.3,Win32,60.07088364,62c50e9c1127f2cd403a315f,0,40,40,48,1,onetwo
,,,,,,615046c5dc8d53b5ddf25d56,62c53a525cbfb4ed3c74f596,2022-07-06_10h01.09.669,Colour_Asymmetry_Pilot,2022.1.3,Win32,60.07088364,62c50e9c1127f2cd403a315f,0,41,41,93,1,threefour
,,,,,,615046c5dc8d53b5ddf25d56,62c53a525cbfb4ed3c74f596,2022-07-06_10h01.09.669,Colour_Asymmetry_Pilot,2022.1.3,Win32,60.07088364,62c50e9c1127f2cd403a315f,0,42,42,138,1,twoone
,,,,,,615046c5dc8d53b5ddf25d56,62c53a525cbfb4ed3c74f596,2022-07-06_10h01.09.669,Colour_Asymmetry_Pilot,2022.1.3,Win32,60.07088364,62c50e9c1127f2cd403a315f,0,43,43,16,1,onetwo
,,,,,,615046c5dc8d53b5ddf25d56,62c53a525cbfb4ed3c74f596,2022-07-06_10h01.09.669,Colour_Asymmetry_Pilot,2022.1.3,Win32,60.07088364,62c50e9c1127f2cd403a315f,0,44,44,147,1,twofour
,,,,,,615046c5dc8d53b5ddf25d56,62c53a525cbfb4ed3c74f596,2022-07-06_10h01.09.669,Colour_Asymmetry_Pilot,2022.1.3,Win32,60.07088364,62c50e9c1127f2cd403a315f,0,45,45,90,1,twoone
,,,,,,615046c5dc8d53b5ddf25d56,62c53a525cbfb4ed3c74f596,2022-07-06_10h01.09.669,Colour_Asymmetry_Pilot,2022.1.3,Win32,60.07088364,62c50e9c1127f2cd403a315f,0,46,46,84,1,threeone
,,,,,,615046c5dc8d53b5ddf25d56,62c53a525cbfb4ed3c74f596,2022-07-06_10h01.09.669,Colour_Asymmetry_Pilot,2022.1.3,Win32,60.07088364,62c50e9c1127f2cd403a315f,0,47,47,22,1,fourtwo
,,,,,,615046c5dc8d53b5ddf25d56,62c53a525cbfb4ed3c74f596,2022-07-06_10h01.09.669,Colour_Asymmetry_Pilot,2022.1.3,Win32,60.07088364,62c50e9c1127f2cd403a315f,0,48,48,157,1,threefour
,,,,,,615046c5dc8d53b5ddf25d56,62c53a525cbfb4ed3c74f596,2022-07-06_10h01.09.669,Colour_Asymmetry_Pilot,2022.1.3,Win32,60.07088364,62c50e9c1127f2cd403a315f,0,49,49,7,1,fourthree
,,,,,,615046c5dc8d53b5ddf25d56,62c53a525cbfb4ed3c74f596,2022-07-06_10h01.09.669,Colour_Asymmetry_Pilot,2022.1.3,Win32,60.07088364,62c50e9c1127f2cd403a315f,0,50,50,152,1,onetwo
,,,,,,615046c5dc8d53b5ddf25d56,62c53a525cbfb4ed3c74f596,2022-07-06_10h01.09.669,Colour_Asymmetry_Pilot,2022.1.3,Win32,60.07088364,62c50e9c1127f2cd403a315f,0,51,51,104,1,onetwo
,,,,,,615046c5dc8d53b5ddf25d56,62c53a525cbfb4ed3c74f596,2022-07-06_10h01.09.669,Colour_Asymmetry_Pilot,2022.1.3,Win32,60.07088364,62c50e9c1127f2cd403a315f,0,52,52,12,1,threeone
,,,,,,615046c5dc8d53b5ddf25d56,62c53a525cbfb4ed3c74f596,2022-07-06_10h01.09.669,Colour_Asymmetry_Pilot,2022.1.3,Win32,60.07088364,62c50e9c1127f2cd403a315f,0,53,53,133,1,threefour
,,,,,,615046c5dc8d53b5ddf25d56,62c53a525cbfb4ed3c74f596,2022-07-06_10h01.09.669,Colour_Asymmetry_Pilot,2022.1.3,Win32,60.07088364,62c50e9c1127f2cd403a315f,0,54,54,102,1,fourtwo
,,,,,,615046c5dc8d53b5ddf25d56,62c53a525cbfb4ed3c74f596,2022-07-06_10h01.09.669,Colour_Asymmetry_Pilot,2022.1.3,Win32,60.07088364,62c50e9c1127f2cd403a315f,0,55,55,146,1,twoone
,,,,,,615046c5dc8d53b5ddf25d56,62c53a525cbfb4ed3c74f596,2022-07-06_10h01.09.669,Colour_Asymmetry_Pilot,2022.1.3,Win32,60.07088364,62c50e9c1127f2cd403a315f,0,56,56,63,1,fourthree
,,,,,,615046c5dc8d53b5ddf25d56,62c53a525cbfb4ed3c74f596,2022-07-06_10h01.09.669,Colour_Asymmetry_Pilot,2022.1.3,Win32,60.07088364,62c50e9c1127f2cd403a315f,0,57,57,141,1,threefour
,,,,,,615046c5dc8d53b5ddf25d56,62c53a525cbfb4ed3c74f596,2022-07-06_10h01.09.669,Colour_Asymmetry_Pilot,2022.1.3,Win32,60.07088364,62c50e9c1127f2cd403a315f,0,58,58,40,1,onetwo
,,,,,,615046c5dc8d53b5ddf25d56,62c53a525cbfb4ed3c74f596,2022-07-06_10h01.09.669,Colour_Asymmetry_Pilot,2022.1.3,Win32,60.07088364,62c50e9c1127f2cd403a315f,0,59,59,72,1,onetwo
,,,,,,615046c5dc8d53b5ddf25d56,62c53a525cbfb4ed3c74f596,2022-07-06_10h01.09.669,Colour_Asymmetry_Pilot,2022.1.3,Win32,60.07088364,62c50e9c1127f2cd403a315f,0,60,60,151,1,fourthree
,,,,,,615046c5dc8d53b5ddf25d56,62c53a525cbfb4ed3c74f596,2022-07-06_10h01.09.669,Colour_Asymmetry_Pilot,2022.1.3,Win32,60.07088364,62c50e9c1127f2cd403a315f,0,61,61,158,1,fourtwo
,,,,,,615046c5dc8d53b5ddf25d56,62c53a525cbfb4ed3c74f596,2022-07-06_10h01.09.669,Colour_Asymmetry_Pilot,2022.1.3,Win32,60.07088364,62c50e9c1127f2cd403a315f,0,62,62,137,1,onethree
,,,,,,615046c5dc8d53b5ddf25d56,62c53a525cbfb4ed3c74f596,2022-07-06_10h01.09.669,Colour_Asymmetry_Pilot,2022.1.3,Win32,60.07088364,62c50e9c1127f2cd403a315f,0,63,63,34,1,twoone
,,,,,,615046c5dc8d53b5ddf25d56,62c53a525cbfb4ed3c74f596,2022-07-06_10h01.09.669,Colour_Asymmetry_Pilot,2022.1.3,Win32,60.07088364,62c50e9c1127f2cd403a315f,0,64,64,101,1,threefour
,,,,,,615046c5dc8d53b5ddf25d56,62c53a525cbfb4ed3c74f596,2022-07-06_10h01.09.669,Colour_Asymmetry_Pilot,2022.1.3,Win32,60.07088364,62c50e9c1127f2cd403a315f,0,65,65,8,1,onetwo
,,,,,,615046c5dc8d53b5ddf25d56,62c53a525cbfb4ed3c74f596,2022-07-06_10h01.09.669,Colour_Asymmetry_Pilot,2022.1.3,Win32,60.07088364,62c50e9c1127f2cd403a315f,0,66,66,159,1,fourthree
,,,,,,615046c5dc8d53b5ddf25d56,62c53a525cbfb4ed3c74f596,2022-07-06_10h01.09.669,Colour_Asymmetry_Pilot,2022.1.3,Win32,60.07088364,62c50e9c1127f2cd403a315f,0,67,67,26,1,twoone
,,,,,,615046c5dc8d53b5ddf25d56,62c53a525cbfb4ed3c74f596,2022-07-06_10h01.09.669,Colour_Asymmetry_Pilot,2022.1.3,Win32,60.07088364,62c50e9c1127f2cd403a315f,0,68,68,156,1,threeone
,,,,,,615046c5dc8d53b5ddf25d56,62c53a525cbfb4ed3c74f596,2022-07-06_10h01.09.669,Colour_Asymmetry_Pilot,2022.1.3,Win32,60.07088364,62c50e9c1127f2cd403a315f,0,69,69,103,1,fourthree
,,,,,,615046c5dc8d53b5ddf25d56,62c53a525cbfb4ed3c74f596,2022-07-06_10h01.09.669,Colour_Asymmetry_Pilot,2022.1.3,Win32,60.07088364,62c50e9c1127f2cd403a315f,0,70,70,29,1,threefour
,,,,,,615046c5dc8d53b5ddf25d56,62c53a525cbfb4ed3c74f596,2022-07-06_10h01.09.669,Colour_Asymmetry_Pilot,2022.1.3,Win32,60.07088364,62c50e9c1127f2cd403a315f,0,71,71,117,1,threefour
,,,,,,615046c5dc8d53b5ddf25d56,62c53a525cbfb4ed3c74f596,2022-07-06_10h01.09.669,Colour_Asymmetry_Pilot,2022.1.3,Win32,60.07088364,62c50e9c1127f2cd403a315f,0,72,72,38,1,fourtwo
,,,,,,615046c5dc8d53b5ddf25d56,62c53a525cbfb4ed3c74f596,2022-07-06_10h01.09.669,Colour_Asymmetry_Pilot,2022.1.3,Win32,60.07088364,62c50e9c1127f2cd403a315f,0,73,73,80,1,onetwo
,,,,,,615046c5dc8d53b5ddf25d56,62c53a525cbfb4ed3c74f596,2022-07-06_10h01.09.669,Colour_Asymmetry_Pilot,2022.1.3,Win32,60.07088364,62c50e9c1127f2cd403a315f,0,74,74,78,1,fourtwo
,,,,,,615046c5dc8d53b5ddf25d56,62c53a525cbfb4ed3c74f596,2022-07-06_10h01.09.669,Colour_Asymmetry_Pilot,2022.1.3,Win32,60.07088364,62c50e9c1127f2cd403a315f,0,75,75,87,1,fourthree
,,,,,,615046c5dc8d53b5ddf25d56,62c53a525cbfb4ed3c74f596,2022-07-06_10h01.09.669,Colour_Asymmetry_Pilot,2022.1.3,Win32,60.07088364,62c50e9c1127f2cd403a315f,0,76,76,160,1,onetwo
,,,,,,615046c5dc8d53b5ddf25d56,62c53a525cbfb4ed3c74f596,2022-07-06_10h01.09.669,Colour_Asymmetry_Pilot,2022.1.3,Win32,60.07088364,62c50e9c1127f2cd403a315f,0,77,77,127,1,fourthree
,,,,,,615046c5dc8d53b5ddf25d56,62c53a525cbfb4ed3c74f596,2022-07-06_10h01.09.669,Colour_Asymmetry_Pilot,2022.1.3,Win32,60.07088364,62c50e9c1127f2cd403a315f,0,78,78,74,1,twoone
,,,,,,615046c5dc8d53b5ddf25d56,62c53a525cbfb4ed3c74f596,2022-07-06_10h01.09.669,Colour_Asymmetry_Pilot,2022.1.3,Win32,60.07088364,62c50e9c1127f2cd403a315f,0,79,79,135,1,fourthree
,,,,,,615046c5dc8d53b5ddf25d56,62c53a525cbfb4ed3c74f596,2022-07-06_10h01.09.669,Colour_Asymmetry_Pilot,2022.1.3,Win32,60.07088364,62c50e9c1127f2cd403a315f,0,80,80,64,1,onetwo
,,,,,,615046c5dc8d53b5ddf25d56,62c53a525cbfb4ed3c74f596,2022-07-06_10h01.09.669,Colour_Asymmetry_Pilot,2022.1.3,Win32,60.07088364,62c50e9c1127f2cd403a315f,0,81,81,116,1,threeone
,,,,,,615046c5dc8d53b5ddf25d56,62c53a525cbfb4ed3c74f596,2022-07-06_10h01.09.669,Colour_Asymmetry_Pilot,2022.1.3,Win32,60.07088364,62c50e9c1127f2cd403a315f,0,82,82,25,1,onethree
,,,,,,615046c5dc8d53b5ddf25d56,62c53a525cbfb4ed3c74f596,2022-07-06_10h01.09.669,Colour_Asymmetry_Pilot,2022.1.3,Win32,60.07088364,62c50e9c1127f2cd403a315f,0,83,83,161,1,onethree
,,,,,,615046c5dc8d53b5ddf25d56,62c53a525cbfb4ed3c74f596,2022-07-06_10h01.09.669,Colour_Asymmetry_Pilot,2022.1.3,Win32,60.07088364,62c50e9c1127f2cd403a315f,0,84,84,113,1,onethree
,,,,,,615046c5dc8d53b5ddf25d56,62c53a525cbfb4ed3c74f596,2022-07-06_10h01.09.669,Colour_Asymmetry_Pilot,2022.1.3,Win32,60.07088364,62c50e9c1127f2cd403a315f,0,85,85,39,1,fourthree
,,,,,,615046c5dc8d53b5ddf25d56,62c53a525cbfb4ed3c74f596,2022-07-06_10h01.09.669,Colour_Asymmetry_Pilot,2022.1.3,Win32,60.07088364,62c50e9c1127f2cd403a315f,0,86,86,53,1,threefour
,,,,,,615046c5dc8d53b5ddf25d56,62c53a525cbfb4ed3c74f596,2022-07-06_10h01.09.669,Colour_Asymmetry_Pilot,2022.1.3,Win32,60.07088364,62c50e9c1127f2cd403a315f,0,87,87,95,1,fourthree
,,,,,,615046c5dc8d53b5ddf25d56,62c53a525cbfb4ed3c74f596,2022-07-06_10h01.09.669,Colour_Asymmetry_Pilot,2022.1.3,Win32,60.07088364,62c50e9c1127f2cd403a315f,0,88,88,55,1,fourthree
,,,,,,615046c5dc8d53b5ddf25d56,62c53a525cbfb4ed3c74f596,2022-07-06_10h01.09.669,Colour_Asymmetry_Pilot,2022.1.3,Win32,60.07088364,62c50e9c1127f2cd403a315f,0,89,89,108,1,threeone
,,,,,,615046c5dc8d53b5ddf25d56,62c53a525cbfb4ed3c74f596,2022-07-06_10h01.09.669,Colour_Asymmetry_Pilot,2022.1.3,Win32,60.07088364,62c50e9c1127f2cd403a315f,0,90,90,42,1,twoone
,,,,,,615046c5dc8d53b5ddf25d56,62c53a525cbfb4ed3c74f596,2022-07-06_10h01.09.669,Colour_Asymmetry_Pilot,2022.1.3,Win32,60.07088364,62c50e9c1127f2cd403a315f,0,91,91,134,1,fourtwo
,,,,,,615046c5dc8d53b5ddf25d56,62c53a525cbfb4ed3c74f596,2022-07-06_10h01.09.669,Colour_Asymmetry_Pilot,2022.1.3,Win32,60.07088364,62c50e9c1127f2cd403a315f,0,92,92,144,1,onetwo
,,,,,,615046c5dc8d53b5ddf25d56,62c53a525cbfb4ed3c74f596,2022-07-06_10h01.09.669,Colour_Asymmetry_Pilot,2022.1.3,Win32,60.07088364,62c50e9c1127f2cd403a315f,0,93,93,27,1,twofour
,,,,,,615046c5dc8d53b5ddf25d56,62c53a525cbfb4ed3c74f596,2022-07-06_10h01.09.669,Colour_Asymmetry_Pilot,2022.1.3,Win32,60.07088364,62c50e9c1127f2cd403a315f,0,94,94,73,1,onethree
,,,,,,615046c5dc8d53b5ddf25d56,62c53a525cbfb4ed3c74f596,2022-07-06_10h01.09.669,Colour_Asymmetry_Pilot,2022.1.3,Win32,60.07088364,62c50e9c1127f2cd403a315f,0,95,95,81,1,onethree
,,,,,,615046c5dc8d53b5ddf25d56,62c53a525cbfb4ed3c74f596,2022-07-06_10h01.09.669,Colour_Asymmetry_Pilot,2022.1.3,Win32,60.07088364,62c50e9c1127f2cd403a315f,0,96,96,110,1,fourtwo
,,,,,,615046c5dc8d53b5ddf25d56,62c53a525cbfb4ed3c74f596,2022-07-06_10h01.09.669,Colour_Asymmetry_Pilot,2022.1.3,Win32,60.07088364,62c50e9c1127f2cd403a315f,0,97,97,140,1,threeone
,,,,,,615046c5dc8d53b5ddf25d56,62c53a525cbfb4ed3c74f596,2022-07-06_10h01.09.669,Colour_Asymmetry_Pilot,2022.1.3,Win32,60.07088364,62c50e9c1127f2cd403a315f,0,98,98,19,1,twofour
,,,,,,615046c5dc8d53b5ddf25d56,62c53a525cbfb4ed3c74f596,2022-07-06_10h01.09.669,Colour_Asymmetry_Pilot,2022.1.3,Win32,60.07088364,62c50e9c1127f2cd403a315f,0,99,99,1,1,onethree
,,,,,,615046c5dc8d53b5ddf25d56,62c53a525cbfb4ed3c74f596,2022-07-06_10h01.09.669,Colour_Asymmetry_Pilot,2022.1.3,Win32,60.07088364,62c50e9c1127f2cd403a315f,0,100,100,69,1,threefour
,,,,,,615046c5dc8d53b5ddf25d56,62c53a525cbfb4ed3c74f596,2022-07-06_10h01.09.669,Colour_Asymmetry_Pilot,2022.1.3,Win32,60.07088364,62c50e9c1127f2cd403a315f,0,101,101,17,1,onethree
,,,,,,615046c5dc8d53b5ddf25d56,62c53a525cbfb4ed3c74f596,2022-07-06_10h01.09.669,Colour_Asymmetry_Pilot,2022.1.3,Win32,60.07088364,62c50e9c1127f2cd403a315f,0,102,102,97,1,onethree
,,,,,,615046c5dc8d53b5ddf25d56,62c53a525cbfb4ed3c74f596,2022-07-06_10h01.09.669,Colour_Asymmetry_Pilot,2022.1.3,Win32,60.07088364,62c50e9c1127f2cd403a315f,0,103,103,112,1,onetwo
,,,,,,615046c5dc8d53b5ddf25d56,62c53a525cbfb4ed3c74f596,2022-07-06_10h01.09.669,Colour_Asymmetry_Pilot,2022.1.3,Win32,60.07088364,62c50e9c1127f2cd403a315f,0,104,104,13,1,threefour
,,,,,,615046c5dc8d53b5ddf25d56,62c53a525cbfb4ed3c74f596,2022-07-06_10h01.09.669,Colour_Asymmetry_Pilot,2022.1.3,Win32,60.07088364,62c50e9c1127f2cd403a315f,0,105,105,139,1,twofour
,,,,,,615046c5dc8d53b5ddf25d56,62c53a525cbfb4ed3c74f596,2022-07-06_10h01.09.669,Colour_Asymmetry_Pilot,2022.1.3,Win32,60.07088364,62c50e9c1127f2cd403a315f,0,106,106,154,1,twoone
,,,,,,615046c5dc8d53b5ddf25d56,62c53a525cbfb4ed3c74f596,2022-07-06_10h01.09.669,Colour_Asymmetry_Pilot,2022.1.3,Win32,60.07088364,62c50e9c1127f2cd403a315f,0,107,107,121,1,onethree
,,,,,,615046c5dc8d53b5ddf25d56,62c53a525cbfb4ed3c74f596,2022-07-06_10h01.09.669,Colour_Asymmetry_Pilot,2022.1.3,Win32,60.07088364,62c50e9c1127f2cd403a315f,0,108,108,24,1,onetwo
,,,,,,615046c5dc8d53b5ddf25d56,62c53a525cbfb4ed3c74f596,2022-07-06_10h01.09.669,Colour_Asymmetry_Pilot,2022.1.3,Win32,60.07088364,62c50e9c1127f2cd403a315f,0,109,109,131,1,twofour
,,,,,,615046c5dc8d53b5ddf25d56,62c53a525cbfb4ed3c74f596,2022-07-06_10h01.09.669,Colour_Asymmetry_Pilot,2022.1.3,Win32,60.07088364,62c50e9c1127f2cd403a315f,0,110,110,49,1,onethree
,,,,,,615046c5dc8d53b5ddf25d56,62c53a525cbfb4ed3c74f596,2022-07-06_10h01.09.669,Colour_Asymmetry_Pilot,2022.1.3,Win32,60.07088364,62c50e9c1127f2cd403a315f,0,111,111,30,1,fourtwo
,,,,,,615046c5dc8d53b5ddf25d56,62c53a525cbfb4ed3c74f596,2022-07-06_10h01.09.669,Colour_Asymmetry_Pilot,2022.1.3,Win32,60.07088364,62c50e9c1127f2cd403a315f,0,112,112,122,1,twoone
,,,,,,615046c5dc8d53b5ddf25d56,62c53a525cbfb4ed3c74f596,2022-07-06_10h01.09.669,Colour_Asymmetry_Pilot,2022.1.3,Win32,60.07088364,62c50e9c1127f2cd403a315f,0,113,113,115,1,twofour
,,,,,,615046c5dc8d53b5ddf25d56,62c53a525cbfb4ed3c74f596,2022-07-06_10h01.09.669,Colour_Asymmetry_Pilot,2022.1.3,Win32,60.07088364,62c50e9c1127f2cd403a315f,0,114,114,82,1,twoone
,,,,,,615046c5dc8d53b5ddf25d56,62c53a525cbfb4ed3c74f596,2022-07-06_10h01.09.669,Colour_Asymmetry_Pilot,2022.1.3,Win32,60.07088364,62c50e9c1127f2cd403a315f,0,115,115,88,1,onetwo
,,,,,,615046c5dc8d53b5ddf25d56,62c53a525cbfb4ed3c74f596,2022-07-06_10h01.09.669,Colour_Asymmetry_Pilot,2022.1.3,Win32,60.07088364,62c50e9c1127f2cd403a315f,0,116,116,18,1,twoone
,,,,,,615046c5dc8d53b5ddf25d56,62c53a525cbfb4ed3c74f596,2022-07-06_10h01.09.669,Colour_Asymmetry_Pilot,2022.1.3,Win32,60.07088364,62c50e9c1127f2cd403a315f,0,117,117,145,1,onethree
,,,,,,615046c5dc8d53b5ddf25d56,62c53a525cbfb4ed3c74f596,2022-07-06_10h01.09.669,Colour_Asymmetry_Pilot,2022.1.3,Win32,60.07088364,62c50e9c1127f2cd403a315f,0,118,118,125,1,threefour
,,,,,,615046c5dc8d53b5ddf25d56,62c53a525cbfb4ed3c74f596,2022-07-06_10h01.09.669,Colour_Asymmetry_Pilot,2022.1.3,Win32,60.07088364,62c50e9c1127f2cd403a315f,0,119,119,56,1,onetwo
,,,,,,615046c5dc8d53b5ddf25d56,62c53a525cbfb4ed3c74f596,2022-07-06_10h01.09.669,Colour_Asymmetry_Pilot,2022.1.3,Win32,60.07088364,62c50e9c1127f2cd403a315f,0,120,120,32,1,onetwo
,,,,,,615046c5dc8d53b5ddf25d56,62c53a525cbfb4ed3c74f596,2022-07-06_10h01.09.669,Colour_Asymmetry_Pilot,2022.1.3,Win32,60.07088364,62c50e9c1127f2cd403a315f,0,121,121,58,1,twoone
,,,,,,615046c5dc8d53b5ddf25d56,62c53a525cbfb4ed3c74f596,2022-07-06_10h01.09.669,Colour_Asymmetry_Pilot,2022.1.3,Win32,60.07088364,62c50e9c1127f2cd403a315f,0,122,122,37,1,threefour
,,,,,,615046c5dc8d53b5ddf25d56,62c53a525cbfb4ed3c74f596,2022-07-06_10h01.09.669,Colour_Asymmetry_Pilot,2022.1.3,Win32,60.07088364,62c50e9c1127f2cd403a315f,0,123,123,10,1,twoone
,,,,,,615046c5dc8d53b5ddf25d56,62c53a525cbfb4ed3c74f596,2022-07-06_10h01.09.669,Colour_Asymmetry_Pilot,2022.1.3,Win32,60.07088364,62c50e9c1127f2cd403a315f,0,124,124,14,1,fourtwo
,,,,,,615046c5dc8d53b5ddf25d56,62c53a525cbfb4ed3c74f596,2022-07-06_10h01.09.669,Colour_Asymmetry_Pilot,2022.1.3,Win32,60.07088364,62c50e9c1127f2cd403a315f,0,125,125,67,1,twofour
,,,,,,615046c5dc8d53b5ddf25d56,62c53a525cbfb4ed3c74f596,2022-07-06_10h01.09.669,Colour_Asymmetry_Pilot,2022.1.3,Win32,60.07088364,62c50e9c1127f2cd403a315f,0,126,126,21,1,threefour
,,,,,,615046c5dc8d53b5ddf25d56,62c53a525cbfb4ed3c74f596,2022-07-06_10h01.09.669,Colour_Asymmetry_Pilot,2022.1.3,Win32,60.07088364,62c50e9c1127f2cd403a315f,0,127,127,77,1,threefour
,,,,,,615046c5dc8d53b5ddf25d56,62c53a525cbfb4ed3c74f596,2022-07-06_10h01.09.669,Colour_Asymmetry_Pilot,2022.1.3,Win32,60.07088364,62c50e9c1127f2cd403a315f,0,128,128,136,1,onetwo
,,,,,,615046c5dc8d53b5ddf25d56,62c53a525cbfb4ed3c74f596,2022-07-06_10h01.09.669,Colour_Asymmetry_Pilot,2022.1.3,Win32,60.07088364,62c50e9c1127f2cd403a315f,0,129,129,148,1,threeone
,,,,,,615046c5dc8d53b5ddf25d56,62c53a525cbfb4ed3c74f596,2022-07-06_10h01.09.669,Colour_Asymmetry_Pilot,2022.1.3,Win32,60.07088364,62c50e9c1127f2cd403a315f,0,130,130,41,1,onethree
,,,,,,615046c5dc8d53b5ddf25d56,62c53a525cbfb4ed3c74f596,2022-07-06_10h01.09.669,Colour_Asymmetry_Pilot,2022.1.3,Win32,60.07088364,62c50e9c1127f2cd403a315f,0,131,131,9,1,onethree
,,,,,,615046c5dc8d53b5ddf25d56,62c53a525cbfb4ed3c74f596,2022-07-06_10h01.09.669,Colour_Asymmetry_Pilot,2022.1.3,Win32,60.07088364,62c50e9c1127f2cd403a315f,0,132,132,118,1,fourtwo
,,,,,,615046c5dc8d53b5ddf25d56,62c53a525cbfb4ed3c74f596,2022-07-06_10h01.09.669,Colour_Asymmetry_Pilot,2022.1.3,Win32,60.07088364,62c50e9c1127f2cd403a315f,0,133,133,54,1,fourtwo
,,,,,,615046c5dc8d53b5ddf25d56,62c53a525cbfb4ed3c74f596,2022-07-06_10h01.09.669,Colour_Asymmetry_Pilot,2022.1.3,Win32,60.07088364,62c50e9c1127f2cd403a315f,0,134,134,107,1,twofour
,,,,,,615046c5dc8d53b5ddf25d56,62c53a525cbfb4ed3c74f596,2022-07-06_10h01.09.669,Colour_Asymmetry_Pilot,2022.1.3,Win32,60.07088364,62c50e9c1127f2cd403a315f,0,135,135,47,1,fourthree
,,,,,,615046c5dc8d53b5ddf25d56,62c53a525cbfb4ed3c74f596,2022-07-06_10h01.09.669,Colour_Asymmetry_Pilot,2022.1.3,Win32,60.07088364,62c50e9c1127f2cd403a315f,0,136,136,128,1,onetwo
,,,,,,615046c5dc8d53b5ddf25d56,62c53a525cbfb4ed3c74f596,2022-07-06_10h01.09.669,Colour_Asymmetry_Pilot,2022.1.3,Win32,60.07088364,62c50e9c1127f2cd403a315f,0,137,137,6,1,fourtwo
,,,,,,615046c5dc8d53b5ddf25d56,62c53a525cbfb4ed3c74f596,2022-07-06_10h01.09.669,Colour_Asymmetry_Pilot,2022.1.3,Win32,60.07088364,62c50e9c1127f2cd403a315f,0,138,138,85,1,threefour
,,,,,,615046c5dc8d53b5ddf25d56,62c53a525cbfb4ed3c74f596,2022-07-06_10h01.09.669,Colour_Asymmetry_Pilot,2022.1.3,Win32,60.07088364,62c50e9c1127f2cd403a315f,0,139,139,75,1,twofour
,,,,,,615046c5dc8d53b5ddf25d56,62c53a525cbfb4ed3c74f596,2022-07-06_10h01.09.669,Colour_Asymmetry_Pilot,2022.1.3,Win32,60.07088364,62c50e9c1127f2cd403a315f,0,140,140,3,1,twofour
,,,,,,615046c5dc8d53b5ddf25d56,62c53a525cbfb4ed3c74f596,2022-07-06_10h01.09.669,Colour_Asymmetry_Pilot,2022.1.3,Win32,60.07088364,62c50e9c1127f2cd403a315f,0,141,141,45,1,threefour
,,,,,,615046c5dc8d53b5ddf25d56,62c53a525cbfb4ed3c74f596,2022-07-06_10h01.09.669,Colour_Asymmetry_Pilot,2022.1.3,Win32,60.07088364,62c50e9c1127f2cd403a315f,0,142,142,105,1,onethree
,,,,,,615046c5dc8d53b5ddf25d56,62c53a525cbfb4ed3c74f596,2022-07-06_10h01.09.669,Colour_Asymmetry_Pilot,2022.1.3,Win32,60.07088364,62c50e9c1127f2cd403a315f,0,143,143,124,1,threeone
,,,,,,615046c5dc8d53b5ddf25d56,62c53a525cbfb4ed3c74f596,2022-07-06_10h01.09.669,Colour_Asymmetry_Pilot,2022.1.3,Win32,60.07088364,62c50e9c1127f2cd403a315f,0,144,144,99,1,twofour
,,,,,,615046c5dc8d53b5ddf25d56,62c53a525cbfb4ed3c74f596,2022-07-06_10h01.09.669,Colour_Asymmetry_Pilot,2022.1.3,Win32,60.07088364,62c50e9c1127f2cd403a315f,0,145,145,66,1,twoone
,,,,,,615046c5dc8d53b5ddf25d56,62c53a525cbfb4ed3c74f596,2022-07-06_10h01.09.669,Colour_Asymmetry_Pilot,2022.1.3,Win32,60.07088364,62c50e9c1127f2cd403a315f,0,146,146,46,1,fourtwo
,,,,,,615046c5dc8d53b5ddf25d56,62c53a525cbfb4ed3c74f596,2022-07-06_10h01.09.669,Colour_Asymmetry_Pilot,2022.1.3,Win32,60.07088364,62c50e9c1127f2cd403a315f,0,147,147,71,1,fourthree
,,,,,,615046c5dc8d53b5ddf25d56,62c53a525cbfb4ed3c74f596,2022-07-06_10h01.09.669,Colour_Asymmetry_Pilot,2022.1.3,Win32,60.07088364,62c50e9c1127f2cd403a315f,0,148,148,96,1,onetwo
,,,,,,615046c5dc8d53b5ddf25d56,62c53a525cbfb4ed3c74f596,2022-07-06_10h01.09.669,Colour_Asymmetry_Pilot,2022.1.3,Win32,60.07088364,62c50e9c1127f2cd403a315f,0,149,149,120,1,onetwo
,,,,,,615046c5dc8d53b5ddf25d56,62c53a525cbfb4ed3c74f596,2022-07-06_10h01.09.669,Colour_Asymmetry_Pilot,2022.1.3,Win32,60.07088364,62c50e9c1127f2cd403a315f,0,150,150,153,1,onethree
,,,,,,615046c5dc8d53b5ddf25d56,62c53a525cbfb4ed3c74f596,2022-07-06_10h01.09.669,Colour_Asymmetry_Pilot,2022.1.3,Win32,60.07088364,62c50e9c1127f2cd403a315f,0,151,151,11,1,twofour
,,,,,,615046c5dc8d53b5ddf25d56,62c53a525cbfb4ed3c74f596,2022-07-06_10h01.09.669,Colour_Asymmetry_Pilot,2022.1.3,Win32,60.07088364,62c50e9c1127f2cd403a315f,0,152,152,79,1,fourthree
,,,,,,615046c5dc8d53b5ddf25d56,62c53a525cbfb4ed3c74f596,2022-07-06_10h01.09.669,Colour_Asymmetry_Pilot,2022.1.3,Win32,60.07088364,62c50e9c1127f2cd403a315f,0,153,153,28,1,threeone
,,,,,,615046c5dc8d53b5ddf25d56,62c53a525cbfb4ed3c74f596,2022-07-06_10h01.09.669,Colour_Asymmetry_Pilot,2022.1.3,Win32,60.07088364,62c50e9c1127f2cd403a315f,0,154,154,132,1,threeone
,,,,,,615046c5dc8d53b5ddf25d56,62c53a525cbfb4ed3c74f596,2022-07-06_10h01.09.669,Colour_Asymmetry_Pilot,2022.1.3,Win32,60.07088364,62c50e9c1127f2cd403a315f,0,155,155,51,1,twofour
,,,,,,615046c5dc8d53b5ddf25d56,62c53a525cbfb4ed3c74f596,2022-07-06_10h01.09.669,Colour_Asymmetry_Pilot,2022.1.3,Win32,60.07088364,62c50e9c1127f2cd403a315f,0,156,156,65,1,onethree
,,,,,,615046c5dc8d53b5ddf25d56,62c53a525cbfb4ed3c74f596,2022-07-06_10h01.09.669,Colour_Asymmetry_Pilot,2022.1.3,Win32,60.07088364,62c50e9c1127f2cd403a315f,0,157,157,106,1,twoone
,,,,,,615046c5dc8d53b5ddf25d56,62c53a525cbfb4ed3c74f596,2022-07-06_10h01.09.669,Colour_Asymmetry_Pilot,2022.1.3,Win32,60.07088364,62c50e9c1127f2cd403a315f,0,158,158,20,1,threeone
,,,,,,615046c5dc8d53b5ddf25d56,62c53a525cbfb4ed3c74f596,2022-07-06_10h01.09.669,Colour_Asymmetry_Pilot,2022.1.3,Win32,60.07088364,62c50e9c1127f2cd403a315f,0,159,159,100,1,threeone
,,,,,,615046c5dc8d53b5ddf25d56,62c53a525cbfb4ed3c74f596,2022-07-06_10h01.09.669,Colour_Asymmetry_Pilot,2022.1.3,Win32,60.07088364,62c50e9c1127f2cd403a315f,0,160,160,150,1,fourtwo
,,,,,,615046c5dc8d53b5ddf25d56,62c53a525cbfb4ed3c74f596,2022-07-06_10h01.09.669,Colour_Asymmetry_Pilot,2022.1.3,Win32,60.07088364,62c50e9c1127f2cd403a315f,0,161,161,119,1,fourthree
