trials.thisRepN,trials.thisTrialN,trials.thisN,trials.thisIndex,trials.ran,Colourcodes,participant,session,date,expName,psychopyVersion,OS,frameRate,study_id,trials_4.thisRepN,trials_4.thisTrialN,trials_4.thisN,trials_4.thisIndex,trials_4.ran,StimulusPos,key_resp.keys,key_resp.rt,key_resp_2.keys,key_resp_2.rt,key_resp_15.keys,key_resp_15.rt,key_resp_17.keys,key_resp_17.rt,key_resp_9.keys,key_resp_9.rt,key_resp_10.keys,key_resp_10.rt,Circle1_col,Ecc,Circle2_col,similarity,response_time,mouse_5.x,mouse_5.y,mouse_5.leftButton,mouse_5.midButton,mouse_5.rightButton,mouse_5.clicked_name,mouse_10.x,mouse_10.y,mouse_10.leftButton,mouse_10.midButton,mouse_10.rightButton,mouse_10.clicked_name,mouse_7.x,mouse_7.y,mouse_7.leftButton,mouse_7.midButton,mouse_7.rightButton,catchnumberprac,mouse_6.x,mouse_6.y,mouse_6.leftButton,mouse_6.midButton,mouse_6.rightButton,duringprac.thisRepN,duringprac.thisTrialN,duringprac.thisN,duringprac.thisIndex,duringprac.ran,mouse_7.clicked_name,catchprac,mouse_6.clicked_name,key_resp_22.keys,key_resp_22.rt,Circle1_colour,Circle2_colour,mouse.x,mouse.y,mouse.leftButton,mouse.midButton,mouse.rightButton,mouse.clicked_name,mouse_2.x,mouse_2.y,mouse_2.leftButton,mouse_2.midButton,mouse_2.rightButton,mouse_2.clicked_name,mouse_3.x,mouse_3.y,mouse_3.leftButton,mouse_3.midButton,mouse_3.rightButton,catchresponse,catchnumber,response_time_catch,Catch,mouse_11.x,mouse_11.y,mouse_11.leftButton,mouse_11.midButton,mouse_11.rightButton,trials_2.thisRepN,trials_2.thisTrialN,trials_2.thisN,trials_2.thisIndex,trials_2.ran,Colourpair,Temporder,mouse_3.clicked_name,mouse_11.clicked_name,trials_3.thisRepN,trials_3.thisTrialN,trials_3.thisN,trials_3.thisIndex,trials_3.ran,textbox.text,mouse_4.x,mouse_4.y,mouse_4.leftButton,mouse_4.midButton,mouse_4.rightButton,mouse_4.clicked_name,textbox_2.text,mouse_8.x,mouse_8.y,mouse_8.leftButton,mouse_8.midButton,mouse_8.rightButton,mouse_8.clicked_name,textbox_3.text,mouse_9.x,mouse_9.y,mouse_9.leftButton,mouse_9.midButton,mouse_9.rightButton,mouse_9.clicked_name,textbox_4.text,mouse_12.x,mouse_12.y,mouse_12.leftButton,mouse_12.midButton,mouse_12.rightButton,mouse_12.clicked_name,textbox_5.text,mouse_13.x,mouse_13.y,mouse_13.leftButton,mouse_13.midButton,mouse_13.rightButton,mouse_13.clicked_name,textbox_6.text,mouse_14.x,mouse_14.y,mouse_14.leftButton,mouse_14.midButton,mouse_14.rightButton,textbox_7.text,mouse_15.x,mouse_15.y,mouse_15.leftButton,mouse_15.midButton,mouse_15.rightButton,mouse_15.clicked_name
0,0,0,47,1,,60fef59b4d85390bc0357a7d,629c51df14f378d4999ad6e7,2022-06-05_09h41.05.533,Colour_Asymmetry_Pilot,2022.1.3,Win32,59.94125757,629c4b6caf241d5e6e00bfc0,,,,,,,,,,,,,,,,,,,,,,,,,,,,,,,,,,,,,,,,,,,,,,,,,,,,,,,,,,,,,,,,,,,,,,,,,,,,,,,,,,,,,,,,,,,,,,,,,,,,,,,,,,,,,,,,,,,,,,,,,,,,,,,,,,,,,,,,,,,,,,,,,,
0,1,1,78,1,,60fef59b4d85390bc0357a7d,629c51df14f378d4999ad6e7,2022-06-05_09h41.05.533,Colour_Asymmetry_Pilot,2022.1.3,Win32,59.94125757,629c4b6caf241d5e6e00bfc0,,,,,,,,,,,,,,,,,,,,,,,,,,,,,,,,,,,,,,,,,,,,,,,,,,,,,,,,,,,,,,,,,,,,,,,,,,,,,,,,,,,,,,,,,,,,,,,,,,,,,,,,,,,,,,,,,,,,,,,,,,,,,,,,,,,,,,,,,,,,,,,,,,
0,2,2,61,1,,60fef59b4d85390bc0357a7d,629c51df14f378d4999ad6e7,2022-06-05_09h41.05.533,Colour_Asymmetry_Pilot,2022.1.3,Win32,59.94125757,629c4b6caf241d5e6e00bfc0,,,,,,,,,,,,,,,,,,,,,,,,,,,,,,,,,,,,,,,,,,,,,,,,,,,,,,,,,,,,,,,,,,,,,,,,,,,,,,,,,,,,,,,,,,,,,,,,,,,,,,,,,,,,,,,,,,,,,,,,,,,,,,,,,,,,,,,,,,,,,,,,,,
0,3,3,2,1,,60fef59b4d85390bc0357a7d,629c51df14f378d4999ad6e7,2022-06-05_09h41.05.533,Colour_Asymmetry_Pilot,2022.1.3,Win32,59.94125757,629c4b6caf241d5e6e00bfc0,,,,,,,,,,,,,,,,,,,,,,,,,,,,,,,,,,,,,,,,,,,,,,,,,,,,,,,,,,,,,,,,,,,,,,,,,,,,,,,,,,,,,,,,,,,,,,,,,,,,,,,,,,,,,,,,,,,,,,,,,,,,,,,,,,,,,,,,,,,,,,,,,,
0,4,4,69,1,,60fef59b4d85390bc0357a7d,629c51df14f378d4999ad6e7,2022-06-05_09h41.05.533,Colour_Asymmetry_Pilot,2022.1.3,Win32,59.94125757,629c4b6caf241d5e6e00bfc0,,,,,,,,,,,,,,,,,,,,,,,,,,,,,,,,,,,,,,,,,,,,,,,,,,,,,,,,,,,,,,,,,,,,,,,,,,,,,,,,,,,,,,,,,,,,,,,,,,,,,,,,,,,,,,,,,,,,,,,,,,,,,,,,,,,,,,,,,,,,,,,,,,
0,5,5,18,1,,60fef59b4d85390bc0357a7d,629c51df14f378d4999ad6e7,2022-06-05_09h41.05.533,Colour_Asymmetry_Pilot,2022.1.3,Win32,59.94125757,629c4b6caf241d5e6e00bfc0,,,,,,,,,,,,,,,,,,,,,,,,,,,,,,,,,,,,,,,,,,,,,,,,,,,,,,,,,,,,,,,,,,,,,,,,,,,,,,,,,,,,,,,,,,,,,,,,,,,,,,,,,,,,,,,,,,,,,,,,,,,,,,,,,,,,,,,,,,,,,,,,,,
0,6,6,87,1,,60fef59b4d85390bc0357a7d,629c51df14f378d4999ad6e7,2022-06-05_09h41.05.533,Colour_Asymmetry_Pilot,2022.1.3,Win32,59.94125757,629c4b6caf241d5e6e00bfc0,,,,,,,,,,,,,,,,,,,,,,,,,,,,,,,,,,,,,,,,,,,,,,,,,,,,,,,,,,,,,,,,,,,,,,,,,,,,,,,,,,,,,,,,,,,,,,,,,,,,,,,,,,,,,,,,,,,,,,,,,,,,,,,,,,,,,,,,,,,,,,,,,,
0,7,7,32,1,,60fef59b4d85390bc0357a7d,629c51df14f378d4999ad6e7,2022-06-05_09h41.05.533,Colour_Asymmetry_Pilot,2022.1.3,Win32,59.94125757,629c4b6caf241d5e6e00bfc0,,,,,,,,,,,,,,,,,,,,,,,,,,,,,,,,,,,,,,,,,,,,,,,,,,,,,,,,,,,,,,,,,,,,,,,,,,,,,,,,,,,,,,,,,,,,,,,,,,,,,,,,,,,,,,,,,,,,,,,,,,,,,,,,,,,,,,,,,,,,,,,,,,
0,8,8,63,1,,60fef59b4d85390bc0357a7d,629c51df14f378d4999ad6e7,2022-06-05_09h41.05.533,Colour_Asymmetry_Pilot,2022.1.3,Win32,59.94125757,629c4b6caf241d5e6e00bfc0,,,,,,,,,,,,,,,,,,,,,,,,,,,,,,,,,,,,,,,,,,,,,,,,,,,,,,,,,,,,,,,,,,,,,,,,,,,,,,,,,,,,,,,,,,,,,,,,,,,,,,,,,,,,,,,,,,,,,,,,,,,,,,,,,,,,,,,,,,,,,,,,,,
0,9,9,30,1,,60fef59b4d85390bc0357a7d,629c51df14f378d4999ad6e7,2022-06-05_09h41.05.533,Colour_Asymmetry_Pilot,2022.1.3,Win32,59.94125757,629c4b6caf241d5e6e00bfc0,,,,,,,,,,,,,,,,,,,,,,,,,,,,,,,,,,,,,,,,,,,,,,,,,,,,,,,,,,,,,,,,,,,,,,,,,,,,,,,,,,,,,,,,,,,,,,,,,,,,,,,,,,,,,,,,,,,,,,,,,,,,,,,,,,,,,,,,,,,,,,,,,,
0,10,10,31,1,,60fef59b4d85390bc0357a7d,629c51df14f378d4999ad6e7,2022-06-05_09h41.05.533,Colour_Asymmetry_Pilot,2022.1.3,Win32,59.94125757,629c4b6caf241d5e6e00bfc0,,,,,,,,,,,,,,,,,,,,,,,,,,,,,,,,,,,,,,,,,,,,,,,,,,,,,,,,,,,,,,,,,,,,,,,,,,,,,,,,,,,,,,,,,,,,,,,,,,,,,,,,,,,,,,,,,,,,,,,,,,,,,,,,,,,,,,,,,,,,,,,,,,
0,11,11,14,1,,60fef59b4d85390bc0357a7d,629c51df14f378d4999ad6e7,2022-06-05_09h41.05.533,Colour_Asymmetry_Pilot,2022.1.3,Win32,59.94125757,629c4b6caf241d5e6e00bfc0,,,,,,,,,,,,,,,,,,,,,,,,,,,,,,,,,,,,,,,,,,,,,,,,,,,,,,,,,,,,,,,,,,,,,,,,,,,,,,,,,,,,,,,,,,,,,,,,,,,,,,,,,,,,,,,,,,,,,,,,,,,,,,,,,,,,,,,,,,,,,,,,,,
0,12,12,17,1,,60fef59b4d85390bc0357a7d,629c51df14f378d4999ad6e7,2022-06-05_09h41.05.533,Colour_Asymmetry_Pilot,2022.1.3,Win32,59.94125757,629c4b6caf241d5e6e00bfc0,,,,,,,,,,,,,,,,,,,,,,,,,,,,,,,,,,,,,,,,,,,,,,,,,,,,,,,,,,,,,,,,,,,,,,,,,,,,,,,,,,,,,,,,,,,,,,,,,,,,,,,,,,,,,,,,,,,,,,,,,,,,,,,,,,,,,,,,,,,,,,,,,,
0,13,13,13,1,,60fef59b4d85390bc0357a7d,629c51df14f378d4999ad6e7,2022-06-05_09h41.05.533,Colour_Asymmetry_Pilot,2022.1.3,Win32,59.94125757,629c4b6caf241d5e6e00bfc0,,,,,,,,,,,,,,,,,,,,,,,,,,,,,,,,,,,,,,,,,,,,,,,,,,,,,,,,,,,,,,,,,,,,,,,,,,,,,,,,,,,,,,,,,,,,,,,,,,,,,,,,,,,,,,,,,,,,,,,,,,,,,,,,,,,,,,,,,,,,,,,,,,
0,14,14,77,1,,60fef59b4d85390bc0357a7d,629c51df14f378d4999ad6e7,2022-06-05_09h41.05.533,Colour_Asymmetry_Pilot,2022.1.3,Win32,59.94125757,629c4b6caf241d5e6e00bfc0,,,,,,,,,,,,,,,,,,,,,,,,,,,,,,,,,,,,,,,,,,,,,,,,,,,,,,,,,,,,,,,,,,,,,,,,,,,,,,,,,,,,,,,,,,,,,,,,,,,,,,,,,,,,,,,,,,,,,,,,,,,,,,,,,,,,,,,,,,,,,,,,,,
0,15,15,67,1,,60fef59b4d85390bc0357a7d,629c51df14f378d4999ad6e7,2022-06-05_09h41.05.533,Colour_Asymmetry_Pilot,2022.1.3,Win32,59.94125757,629c4b6caf241d5e6e00bfc0,,,,,,,,,,,,,,,,,,,,,,,,,,,,,,,,,,,,,,,,,,,,,,,,,,,,,,,,,,,,,,,,,,,,,,,,,,,,,,,,,,,,,,,,,,,,,,,,,,,,,,,,,,,,,,,,,,,,,,,,,,,,,,,,,,,,,,,,,,,,,,,,,,
0,16,16,71,1,,60fef59b4d85390bc0357a7d,629c51df14f378d4999ad6e7,2022-06-05_09h41.05.533,Colour_Asymmetry_Pilot,2022.1.3,Win32,59.94125757,629c4b6caf241d5e6e00bfc0,,,,,,,,,,,,,,,,,,,,,,,,,,,,,,,,,,,,,,,,,,,,,,,,,,,,,,,,,,,,,,,,,,,,,,,,,,,,,,,,,,,,,,,,,,,,,,,,,,,,,,,,,,,,,,,,,,,,,,,,,,,,,,,,,,,,,,,,,,,,,,,,,,
0,17,17,19,1,,60fef59b4d85390bc0357a7d,629c51df14f378d4999ad6e7,2022-06-05_09h41.05.533,Colour_Asymmetry_Pilot,2022.1.3,Win32,59.94125757,629c4b6caf241d5e6e00bfc0,,,,,,,,,,,,,,,,,,,,,,,,,,,,,,,,,,,,,,,,,,,,,,,,,,,,,,,,,,,,,,,,,,,,,,,,,,,,,,,,,,,,,,,,,,,,,,,,,,,,,,,,,,,,,,,,,,,,,,,,,,,,,,,,,,,,,,,,,,,,,,,,,,
0,18,18,21,1,,60fef59b4d85390bc0357a7d,629c51df14f378d4999ad6e7,2022-06-05_09h41.05.533,Colour_Asymmetry_Pilot,2022.1.3,Win32,59.94125757,629c4b6caf241d5e6e00bfc0,,,,,,,,,,,,,,,,,,,,,,,,,,,,,,,,,,,,,,,,,,,,,,,,,,,,,,,,,,,,,,,,,,,,,,,,,,,,,,,,,,,,,,,,,,,,,,,,,,,,,,,,,,,,,,,,,,,,,,,,,,,,,,,,,,,,,,,,,,,,,,,,,,
0,19,19,4,1,,60fef59b4d85390bc0357a7d,629c51df14f378d4999ad6e7,2022-06-05_09h41.05.533,Colour_Asymmetry_Pilot,2022.1.3,Win32,59.94125757,629c4b6caf241d5e6e00bfc0,,,,,,,,,,,,,,,,,,,,,,,,,,,,,,,,,,,,,,,,,,,,,,,,,,,,,,,,,,,,,,,,,,,,,,,,,,,,,,,,,,,,,,,,,,,,,,,,,,,,,,,,,,,,,,,,,,,,,,,,,,,,,,,,,,,,,,,,,,,,,,,,,,
0,20,20,72,1,,60fef59b4d85390bc0357a7d,629c51df14f378d4999ad6e7,2022-06-05_09h41.05.533,Colour_Asymmetry_Pilot,2022.1.3,Win32,59.94125757,629c4b6caf241d5e6e00bfc0,,,,,,,,,,,,,,,,,,,,,,,,,,,,,,,,,,,,,,,,,,,,,,,,,,,,,,,,,,,,,,,,,,,,,,,,,,,,,,,,,,,,,,,,,,,,,,,,,,,,,,,,,,,,,,,,,,,,,,,,,,,,,,,,,,,,,,,,,,,,,,,,,,
0,21,21,5,1,,60fef59b4d85390bc0357a7d,629c51df14f378d4999ad6e7,2022-06-05_09h41.05.533,Colour_Asymmetry_Pilot,2022.1.3,Win32,59.94125757,629c4b6caf241d5e6e00bfc0,,,,,,,,,,,,,,,,,,,,,,,,,,,,,,,,,,,,,,,,,,,,,,,,,,,,,,,,,,,,,,,,,,,,,,,,,,,,,,,,,,,,,,,,,,,,,,,,,,,,,,,,,,,,,,,,,,,,,,,,,,,,,,,,,,,,,,,,,,,,,,,,,,
0,22,22,27,1,,60fef59b4d85390bc0357a7d,629c51df14f378d4999ad6e7,2022-06-05_09h41.05.533,Colour_Asymmetry_Pilot,2022.1.3,Win32,59.94125757,629c4b6caf241d5e6e00bfc0,,,,,,,,,,,,,,,,,,,,,,,,,,,,,,,,,,,,,,,,,,,,,,,,,,,,,,,,,,,,,,,,,,,,,,,,,,,,,,,,,,,,,,,,,,,,,,,,,,,,,,,,,,,,,,,,,,,,,,,,,,,,,,,,,,,,,,,,,,,,,,,,,,
0,23,23,23,1,,60fef59b4d85390bc0357a7d,629c51df14f378d4999ad6e7,2022-06-05_09h41.05.533,Colour_Asymmetry_Pilot,2022.1.3,Win32,59.94125757,629c4b6caf241d5e6e00bfc0,,,,,,,,,,,,,,,,,,,,,,,,,,,,,,,,,,,,,,,,,,,,,,,,,,,,,,,,,,,,,,,,,,,,,,,,,,,,,,,,,,,,,,,,,,,,,,,,,,,,,,,,,,,,,,,,,,,,,,,,,,,,,,,,,,,,,,,,,,,,,,,,,,
0,24,24,38,1,,60fef59b4d85390bc0357a7d,629c51df14f378d4999ad6e7,2022-06-05_09h41.05.533,Colour_Asymmetry_Pilot,2022.1.3,Win32,59.94125757,629c4b6caf241d5e6e00bfc0,,,,,,,,,,,,,,,,,,,,,,,,,,,,,,,,,,,,,,,,,,,,,,,,,,,,,,,,,,,,,,,,,,,,,,,,,,,,,,,,,,,,,,,,,,,,,,,,,,,,,,,,,,,,,,,,,,,,,,,,,,,,,,,,,,,,,,,,,,,,,,,,,,
0,25,25,10,1,,60fef59b4d85390bc0357a7d,629c51df14f378d4999ad6e7,2022-06-05_09h41.05.533,Colour_Asymmetry_Pilot,2022.1.3,Win32,59.94125757,629c4b6caf241d5e6e00bfc0,,,,,,,,,,,,,,,,,,,,,,,,,,,,,,,,,,,,,,,,,,,,,,,,,,,,,,,,,,,,,,,,,,,,,,,,,,,,,,,,,,,,,,,,,,,,,,,,,,,,,,,,,,,,,,,,,,,,,,,,,,,,,,,,,,,,,,,,,,,,,,,,,,
0,26,26,8,1,,60fef59b4d85390bc0357a7d,629c51df14f378d4999ad6e7,2022-06-05_09h41.05.533,Colour_Asymmetry_Pilot,2022.1.3,Win32,59.94125757,629c4b6caf241d5e6e00bfc0,,,,,,,,,,,,,,,,,,,,,,,,,,,,,,,,,,,,,,,,,,,,,,,,,,,,,,,,,,,,,,,,,,,,,,,,,,,,,,,,,,,,,,,,,,,,,,,,,,,,,,,,,,,,,,,,,,,,,,,,,,,,,,,,,,,,,,,,,,,,,,,,,,
0,27,27,0,1,,60fef59b4d85390bc0357a7d,629c51df14f378d4999ad6e7,2022-06-05_09h41.05.533,Colour_Asymmetry_Pilot,2022.1.3,Win32,59.94125757,629c4b6caf241d5e6e00bfc0,,,,,,,,,,,,,,,,,,,,,,,,,,,,,,,,,,,,,,,,,,,,,,,,,,,,,,,,,,,,,,,,,,,,,,,,,,,,,,,,,,,,,,,,,,,,,,,,,,,,,,,,,,,,,,,,,,,,,,,,,,,,,,,,,,,,,,,,,,,,,,,,,,
0,28,28,57,1,,60fef59b4d85390bc0357a7d,629c51df14f378d4999ad6e7,2022-06-05_09h41.05.533,Colour_Asymmetry_Pilot,2022.1.3,Win32,59.94125757,629c4b6caf241d5e6e00bfc0,,,,,,,,,,,,,,,,,,,,,,,,,,,,,,,,,,,,,,,,,,,,,,,,,,,,,,,,,,,,,,,,,,,,,,,,,,,,,,,,,,,,,,,,,,,,,,,,,,,,,,,,,,,,,,,,,,,,,,,,,,,,,,,,,,,,,,,,,,,,,,,,,,
0,29,29,1,1,,60fef59b4d85390bc0357a7d,629c51df14f378d4999ad6e7,2022-06-05_09h41.05.533,Colour_Asymmetry_Pilot,2022.1.3,Win32,59.94125757,629c4b6caf241d5e6e00bfc0,,,,,,,,,,,,,,,,,,,,,,,,,,,,,,,,,,,,,,,,,,,,,,,,,,,,,,,,,,,,,,,,,,,,,,,,,,,,,,,,,,,,,,,,,,,,,,,,,,,,,,,,,,,,,,,,,,,,,,,,,,,,,,,,,,,,,,,,,,,,,,,,,,
0,30,30,51,1,,60fef59b4d85390bc0357a7d,629c51df14f378d4999ad6e7,2022-06-05_09h41.05.533,Colour_Asymmetry_Pilot,2022.1.3,Win32,59.94125757,629c4b6caf241d5e6e00bfc0,,,,,,,,,,,,,,,,,,,,,,,,,,,,,,,,,,,,,,,,,,,,,,,,,,,,,,,,,,,,,,,,,,,,,,,,,,,,,,,,,,,,,,,,,,,,,,,,,,,,,,,,,,,,,,,,,,,,,,,,,,,,,,,,,,,,,,,,,,,,,,,,,,
0,31,31,52,1,,60fef59b4d85390bc0357a7d,629c51df14f378d4999ad6e7,2022-06-05_09h41.05.533,Colour_Asymmetry_Pilot,2022.1.3,Win32,59.94125757,629c4b6caf241d5e6e00bfc0,,,,,,,,,,,,,,,,,,,,,,,,,,,,,,,,,,,,,,,,,,,,,,,,,,,,,,,,,,,,,,,,,,,,,,,,,,,,,,,,,,,,,,,,,,,,,,,,,,,,,,,,,,,,,,,,,,,,,,,,,,,,,,,,,,,,,,,,,,,,,,,,,,
0,32,32,41,1,,60fef59b4d85390bc0357a7d,629c51df14f378d4999ad6e7,2022-06-05_09h41.05.533,Colour_Asymmetry_Pilot,2022.1.3,Win32,59.94125757,629c4b6caf241d5e6e00bfc0,,,,,,,,,,,,,,,,,,,,,,,,,,,,,,,,,,,,,,,,,,,,,,,,,,,,,,,,,,,,,,,,,,,,,,,,,,,,,,,,,,,,,,,,,,,,,,,,,,,,,,,,,,,,,,,,,,,,,,,,,,,,,,,,,,,,,,,,,,,,,,,,,,
0,33,33,84,1,,60fef59b4d85390bc0357a7d,629c51df14f378d4999ad6e7,2022-06-05_09h41.05.533,Colour_Asymmetry_Pilot,2022.1.3,Win32,59.94125757,629c4b6caf241d5e6e00bfc0,,,,,,,,,,,,,,,,,,,,,,,,,,,,,,,,,,,,,,,,,,,,,,,,,,,,,,,,,,,,,,,,,,,,,,,,,,,,,,,,,,,,,,,,,,,,,,,,,,,,,,,,,,,,,,,,,,,,,,,,,,,,,,,,,,,,,,,,,,,,,,,,,,
0,34,34,3,1,,60fef59b4d85390bc0357a7d,629c51df14f378d4999ad6e7,2022-06-05_09h41.05.533,Colour_Asymmetry_Pilot,2022.1.3,Win32,59.94125757,629c4b6caf241d5e6e00bfc0,,,,,,,,,,,,,,,,,,,,,,,,,,,,,,,,,,,,,,,,,,,,,,,,,,,,,,,,,,,,,,,,,,,,,,,,,,,,,,,,,,,,,,,,,,,,,,,,,,,,,,,,,,,,,,,,,,,,,,,,,,,,,,,,,,,,,,,,,,,,,,,,,,
0,35,35,22,1,,60fef59b4d85390bc0357a7d,629c51df14f378d4999ad6e7,2022-06-05_09h41.05.533,Colour_Asymmetry_Pilot,2022.1.3,Win32,59.94125757,629c4b6caf241d5e6e00bfc0,,,,,,,,,,,,,,,,,,,,,,,,,,,,,,,,,,,,,,,,,,,,,,,,,,,,,,,,,,,,,,,,,,,,,,,,,,,,,,,,,,,,,,,,,,,,,,,,,,,,,,,,,,,,,,,,,,,,,,,,,,,,,,,,,,,,,,,,,,,,,,,,,,
0,36,36,33,1,,60fef59b4d85390bc0357a7d,629c51df14f378d4999ad6e7,2022-06-05_09h41.05.533,Colour_Asymmetry_Pilot,2022.1.3,Win32,59.94125757,629c4b6caf241d5e6e00bfc0,,,,,,,,,,,,,,,,,,,,,,,,,,,,,,,,,,,,,,,,,,,,,,,,,,,,,,,,,,,,,,,,,,,,,,,,,,,,,,,,,,,,,,,,,,,,,,,,,,,,,,,,,,,,,,,,,,,,,,,,,,,,,,,,,,,,,,,,,,,,,,,,,,
0,37,37,36,1,,60fef59b4d85390bc0357a7d,629c51df14f378d4999ad6e7,2022-06-05_09h41.05.533,Colour_Asymmetry_Pilot,2022.1.3,Win32,59.94125757,629c4b6caf241d5e6e00bfc0,,,,,,,,,,,,,,,,,,,,,,,,,,,,,,,,,,,,,,,,,,,,,,,,,,,,,,,,,,,,,,,,,,,,,,,,,,,,,,,,,,,,,,,,,,,,,,,,,,,,,,,,,,,,,,,,,,,,,,,,,,,,,,,,,,,,,,,,,,,,,,,,,,
0,38,38,9,1,,60fef59b4d85390bc0357a7d,629c51df14f378d4999ad6e7,2022-06-05_09h41.05.533,Colour_Asymmetry_Pilot,2022.1.3,Win32,59.94125757,629c4b6caf241d5e6e00bfc0,,,,,,,,,,,,,,,,,,,,,,,,,,,,,,,,,,,,,,,,,,,,,,,,,,,,,,,,,,,,,,,,,,,,,,,,,,,,,,,,,,,,,,,,,,,,,,,,,,,,,,,,,,,,,,,,,,,,,,,,,,,,,,,,,,,,,,,,,,,,,,,,,,
0,39,39,44,1,,60fef59b4d85390bc0357a7d,629c51df14f378d4999ad6e7,2022-06-05_09h41.05.533,Colour_Asymmetry_Pilot,2022.1.3,Win32,59.94125757,629c4b6caf241d5e6e00bfc0,,,,,,,,,,,,,,,,,,,,,,,,,,,,,,,,,,,,,,,,,,,,,,,,,,,,,,,,,,,,,,,,,,,,,,,,,,,,,,,,,,,,,,,,,,,,,,,,,,,,,,,,,,,,,,,,,,,,,,,,,,,,,,,,,,,,,,,,,,,,,,,,,,
0,40,40,45,1,,60fef59b4d85390bc0357a7d,629c51df14f378d4999ad6e7,2022-06-05_09h41.05.533,Colour_Asymmetry_Pilot,2022.1.3,Win32,59.94125757,629c4b6caf241d5e6e00bfc0,,,,,,,,,,,,,,,,,,,,,,,,,,,,,,,,,,,,,,,,,,,,,,,,,,,,,,,,,,,,,,,,,,,,,,,,,,,,,,,,,,,,,,,,,,,,,,,,,,,,,,,,,,,,,,,,,,,,,,,,,,,,,,,,,,,,,,,,,,,,,,,,,,
0,41,41,68,1,,60fef59b4d85390bc0357a7d,629c51df14f378d4999ad6e7,2022-06-05_09h41.05.533,Colour_Asymmetry_Pilot,2022.1.3,Win32,59.94125757,629c4b6caf241d5e6e00bfc0,,,,,,,,,,,,,,,,,,,,,,,,,,,,,,,,,,,,,,,,,,,,,,,,,,,,,,,,,,,,,,,,,,,,,,,,,,,,,,,,,,,,,,,,,,,,,,,,,,,,,,,,,,,,,,,,,,,,,,,,,,,,,,,,,,,,,,,,,,,,,,,,,,
0,42,42,20,1,,60fef59b4d85390bc0357a7d,629c51df14f378d4999ad6e7,2022-06-05_09h41.05.533,Colour_Asymmetry_Pilot,2022.1.3,Win32,59.94125757,629c4b6caf241d5e6e00bfc0,,,,,,,,,,,,,,,,,,,,,,,,,,,,,,,,,,,,,,,,,,,,,,,,,,,,,,,,,,,,,,,,,,,,,,,,,,,,,,,,,,,,,,,,,,,,,,,,,,,,,,,,,,,,,,,,,,,,,,,,,,,,,,,,,,,,,,,,,,,,,,,,,,
0,43,43,26,1,,60fef59b4d85390bc0357a7d,629c51df14f378d4999ad6e7,2022-06-05_09h41.05.533,Colour_Asymmetry_Pilot,2022.1.3,Win32,59.94125757,629c4b6caf241d5e6e00bfc0,,,,,,,,,,,,,,,,,,,,,,,,,,,,,,,,,,,,,,,,,,,,,,,,,,,,,,,,,,,,,,,,,,,,,,,,,,,,,,,,,,,,,,,,,,,,,,,,,,,,,,,,,,,,,,,,,,,,,,,,,,,,,,,,,,,,,,,,,,,,,,,,,,
0,44,44,15,1,,60fef59b4d85390bc0357a7d,629c51df14f378d4999ad6e7,2022-06-05_09h41.05.533,Colour_Asymmetry_Pilot,2022.1.3,Win32,59.94125757,629c4b6caf241d5e6e00bfc0,,,,,,,,,,,,,,,,,,,,,,,,,,,,,,,,,,,,,,,,,,,,,,,,,,,,,,,,,,,,,,,,,,,,,,,,,,,,,,,,,,,,,,,,,,,,,,,,,,,,,,,,,,,,,,,,,,,,,,,,,,,,,,,,,,,,,,,,,,,,,,,,,,
0,45,45,92,1,,60fef59b4d85390bc0357a7d,629c51df14f378d4999ad6e7,2022-06-05_09h41.05.533,Colour_Asymmetry_Pilot,2022.1.3,Win32,59.94125757,629c4b6caf241d5e6e00bfc0,,,,,,,,,,,,,,,,,,,,,,,,,,,,,,,,,,,,,,,,,,,,,,,,,,,,,,,,,,,,,,,,,,,,,,,,,,,,,,,,,,,,,,,,,,,,,,,,,,,,,,,,,,,,,,,,,,,,,,,,,,,,,,,,,,,,,,,,,,,,,,,,,,
0,46,46,58,1,,60fef59b4d85390bc0357a7d,629c51df14f378d4999ad6e7,2022-06-05_09h41.05.533,Colour_Asymmetry_Pilot,2022.1.3,Win32,59.94125757,629c4b6caf241d5e6e00bfc0,,,,,,,,,,,,,,,,,,,,,,,,,,,,,,,,,,,,,,,,,,,,,,,,,,,,,,,,,,,,,,,,,,,,,,,,,,,,,,,,,,,,,,,,,,,,,,,,,,,,,,,,,,,,,,,,,,,,,,,,,,,,,,,,,,,,,,,,,,,,,,,,,,
0,47,47,90,1,,60fef59b4d85390bc0357a7d,629c51df14f378d4999ad6e7,2022-06-05_09h41.05.533,Colour_Asymmetry_Pilot,2022.1.3,Win32,59.94125757,629c4b6caf241d5e6e00bfc0,,,,,,,,,,,,,,,,,,,,,,,,,,,,,,,,,,,,,,,,,,,,,,,,,,,,,,,,,,,,,,,,,,,,,,,,,,,,,,,,,,,,,,,,,,,,,,,,,,,,,,,,,,,,,,,,,,,,,,,,,,,,,,,,,,,,,,,,,,,,,,,,,,
0,48,48,40,1,,60fef59b4d85390bc0357a7d,629c51df14f378d4999ad6e7,2022-06-05_09h41.05.533,Colour_Asymmetry_Pilot,2022.1.3,Win32,59.94125757,629c4b6caf241d5e6e00bfc0,,,,,,,,,,,,,,,,,,,,,,,,,,,,,,,,,,,,,,,,,,,,,,,,,,,,,,,,,,,,,,,,,,,,,,,,,,,,,,,,,,,,,,,,,,,,,,,,,,,,,,,,,,,,,,,,,,,,,,,,,,,,,,,,,,,,,,,,,,,,,,,,,,
0,49,49,65,1,,60fef59b4d85390bc0357a7d,629c51df14f378d4999ad6e7,2022-06-05_09h41.05.533,Colour_Asymmetry_Pilot,2022.1.3,Win32,59.94125757,629c4b6caf241d5e6e00bfc0,,,,,,,,,,,,,,,,,,,,,,,,,,,,,,,,,,,,,,,,,,,,,,,,,,,,,,,,,,,,,,,,,,,,,,,,,,,,,,,,,,,,,,,,,,,,,,,,,,,,,,,,,,,,,,,,,,,,,,,,,,,,,,,,,,,,,,,,,,,,,,,,,,
0,50,50,34,1,,60fef59b4d85390bc0357a7d,629c51df14f378d4999ad6e7,2022-06-05_09h41.05.533,Colour_Asymmetry_Pilot,2022.1.3,Win32,59.94125757,629c4b6caf241d5e6e00bfc0,,,,,,,,,,,,,,,,,,,,,,,,,,,,,,,,,,,,,,,,,,,,,,,,,,,,,,,,,,,,,,,,,,,,,,,,,,,,,,,,,,,,,,,,,,,,,,,,,,,,,,,,,,,,,,,,,,,,,,,,,,,,,,,,,,,,,,,,,,,,,,,,,,
0,51,51,82,1,,60fef59b4d85390bc0357a7d,629c51df14f378d4999ad6e7,2022-06-05_09h41.05.533,Colour_Asymmetry_Pilot,2022.1.3,Win32,59.94125757,629c4b6caf241d5e6e00bfc0,,,,,,,,,,,,,,,,,,,,,,,,,,,,,,,,,,,,,,,,,,,,,,,,,,,,,,,,,,,,,,,,,,,,,,,,,,,,,,,,,,,,,,,,,,,,,,,,,,,,,,,,,,,,,,,,,,,,,,,,,,,,,,,,,,,,,,,,,,,,,,,,,,
0,52,52,86,1,,60fef59b4d85390bc0357a7d,629c51df14f378d4999ad6e7,2022-06-05_09h41.05.533,Colour_Asymmetry_Pilot,2022.1.3,Win32,59.94125757,629c4b6caf241d5e6e00bfc0,,,,,,,,,,,,,,,,,,,,,,,,,,,,,,,,,,,,,,,,,,,,,,,,,,,,,,,,,,,,,,,,,,,,,,,,,,,,,,,,,,,,,,,,,,,,,,,,,,,,,,,,,,,,,,,,,,,,,,,,,,,,,,,,,,,,,,,,,,,,,,,,,,
0,53,53,35,1,,60fef59b4d85390bc0357a7d,629c51df14f378d4999ad6e7,2022-06-05_09h41.05.533,Colour_Asymmetry_Pilot,2022.1.3,Win32,59.94125757,629c4b6caf241d5e6e00bfc0,,,,,,,,,,,,,,,,,,,,,,,,,,,,,,,,,,,,,,,,,,,,,,,,,,,,,,,,,,,,,,,,,,,,,,,,,,,,,,,,,,,,,,,,,,,,,,,,,,,,,,,,,,,,,,,,,,,,,,,,,,,,,,,,,,,,,,,,,,,,,,,,,,
0,54,54,62,1,,60fef59b4d85390bc0357a7d,629c51df14f378d4999ad6e7,2022-06-05_09h41.05.533,Colour_Asymmetry_Pilot,2022.1.3,Win32,59.94125757,629c4b6caf241d5e6e00bfc0,,,,,,,,,,,,,,,,,,,,,,,,,,,,,,,,,,,,,,,,,,,,,,,,,,,,,,,,,,,,,,,,,,,,,,,,,,,,,,,,,,,,,,,,,,,,,,,,,,,,,,,,,,,,,,,,,,,,,,,,,,,,,,,,,,,,,,,,,,,,,,,,,,
0,55,55,70,1,,60fef59b4d85390bc0357a7d,629c51df14f378d4999ad6e7,2022-06-05_09h41.05.533,Colour_Asymmetry_Pilot,2022.1.3,Win32,59.94125757,629c4b6caf241d5e6e00bfc0,,,,,,,,,,,,,,,,,,,,,,,,,,,,,,,,,,,,,,,,,,,,,,,,,,,,,,,,,,,,,,,,,,,,,,,,,,,,,,,,,,,,,,,,,,,,,,,,,,,,,,,,,,,,,,,,,,,,,,,,,,,,,,,,,,,,,,,,,,,,,,,,,,
0,56,56,53,1,,60fef59b4d85390bc0357a7d,629c51df14f378d4999ad6e7,2022-06-05_09h41.05.533,Colour_Asymmetry_Pilot,2022.1.3,Win32,59.94125757,629c4b6caf241d5e6e00bfc0,,,,,,,,,,,,,,,,,,,,,,,,,,,,,,,,,,,,,,,,,,,,,,,,,,,,,,,,,,,,,,,,,,,,,,,,,,,,,,,,,,,,,,,,,,,,,,,,,,,,,,,,,,,,,,,,,,,,,,,,,,,,,,,,,,,,,,,,,,,,,,,,,,
0,57,57,46,1,,60fef59b4d85390bc0357a7d,629c51df14f378d4999ad6e7,2022-06-05_09h41.05.533,Colour_Asymmetry_Pilot,2022.1.3,Win32,59.94125757,629c4b6caf241d5e6e00bfc0,,,,,,,,,,,,,,,,,,,,,,,,,,,,,,,,,,,,,,,,,,,,,,,,,,,,,,,,,,,,,,,,,,,,,,,,,,,,,,,,,,,,,,,,,,,,,,,,,,,,,,,,,,,,,,,,,,,,,,,,,,,,,,,,,,,,,,,,,,,,,,,,,,
0,58,58,28,1,,60fef59b4d85390bc0357a7d,629c51df14f378d4999ad6e7,2022-06-05_09h41.05.533,Colour_Asymmetry_Pilot,2022.1.3,Win32,59.94125757,629c4b6caf241d5e6e00bfc0,,,,,,,,,,,,,,,,,,,,,,,,,,,,,,,,,,,,,,,,,,,,,,,,,,,,,,,,,,,,,,,,,,,,,,,,,,,,,,,,,,,,,,,,,,,,,,,,,,,,,,,,,,,,,,,,,,,,,,,,,,,,,,,,,,,,,,,,,,,,,,,,,,
0,59,59,73,1,,60fef59b4d85390bc0357a7d,629c51df14f378d4999ad6e7,2022-06-05_09h41.05.533,Colour_Asymmetry_Pilot,2022.1.3,Win32,59.94125757,629c4b6caf241d5e6e00bfc0,,,,,,,,,,,,,,,,,,,,,,,,,,,,,,,,,,,,,,,,,,,,,,,,,,,,,,,,,,,,,,,,,,,,,,,,,,,,,,,,,,,,,,,,,,,,,,,,,,,,,,,,,,,,,,,,,,,,,,,,,,,,,,,,,,,,,,,,,,,,,,,,,,
0,60,60,79,1,,60fef59b4d85390bc0357a7d,629c51df14f378d4999ad6e7,2022-06-05_09h41.05.533,Colour_Asymmetry_Pilot,2022.1.3,Win32,59.94125757,629c4b6caf241d5e6e00bfc0,,,,,,,,,,,,,,,,,,,,,,,,,,,,,,,,,,,,,,,,,,,,,,,,,,,,,,,,,,,,,,,,,,,,,,,,,,,,,,,,,,,,,,,,,,,,,,,,,,,,,,,,,,,,,,,,,,,,,,,,,,,,,,,,,,,,,,,,,,,,,,,,,,
0,61,61,66,1,,60fef59b4d85390bc0357a7d,629c51df14f378d4999ad6e7,2022-06-05_09h41.05.533,Colour_Asymmetry_Pilot,2022.1.3,Win32,59.94125757,629c4b6caf241d5e6e00bfc0,,,,,,,,,,,,,,,,,,,,,,,,,,,,,,,,,,,,,,,,,,,,,,,,,,,,,,,,,,,,,,,,,,,,,,,,,,,,,,,,,,,,,,,,,,,,,,,,,,,,,,,,,,,,,,,,,,,,,,,,,,,,,,,,,,,,,,,,,,,,,,,,,,
0,62,62,25,1,,60fef59b4d85390bc0357a7d,629c51df14f378d4999ad6e7,2022-06-05_09h41.05.533,Colour_Asymmetry_Pilot,2022.1.3,Win32,59.94125757,629c4b6caf241d5e6e00bfc0,,,,,,,,,,,,,,,,,,,,,,,,,,,,,,,,,,,,,,,,,,,,,,,,,,,,,,,,,,,,,,,,,,,,,,,,,,,,,,,,,,,,,,,,,,,,,,,,,,,,,,,,,,,,,,,,,,,,,,,,,,,,,,,,,,,,,,,,,,,,,,,,,,
0,63,63,39,1,,60fef59b4d85390bc0357a7d,629c51df14f378d4999ad6e7,2022-06-05_09h41.05.533,Colour_Asymmetry_Pilot,2022.1.3,Win32,59.94125757,629c4b6caf241d5e6e00bfc0,,,,,,,,,,,,,,,,,,,,,,,,,,,,,,,,,,,,,,,,,,,,,,,,,,,,,,,,,,,,,,,,,,,,,,,,,,,,,,,,,,,,,,,,,,,,,,,,,,,,,,,,,,,,,,,,,,,,,,,,,,,,,,,,,,,,,,,,,,,,,,,,,,
0,64,64,76,1,,60fef59b4d85390bc0357a7d,629c51df14f378d4999ad6e7,2022-06-05_09h41.05.533,Colour_Asymmetry_Pilot,2022.1.3,Win32,59.94125757,629c4b6caf241d5e6e00bfc0,,,,,,,,,,,,,,,,,,,,,,,,,,,,,,,,,,,,,,,,,,,,,,,,,,,,,,,,,,,,,,,,,,,,,,,,,,,,,,,,,,,,,,,,,,,,,,,,,,,,,,,,,,,,,,,,,,,,,,,,,,,,,,,,,,,,,,,,,,,,,,,,,,
0,65,65,64,1,,60fef59b4d85390bc0357a7d,629c51df14f378d4999ad6e7,2022-06-05_09h41.05.533,Colour_Asymmetry_Pilot,2022.1.3,Win32,59.94125757,629c4b6caf241d5e6e00bfc0,,,,,,,,,,,,,,,,,,,,,,,,,,,,,,,,,,,,,,,,,,,,,,,,,,,,,,,,,,,,,,,,,,,,,,,,,,,,,,,,,,,,,,,,,,,,,,,,,,,,,,,,,,,,,,,,,,,,,,,,,,,,,,,,,,,,,,,,,,,,,,,,,,
0,66,66,12,1,,60fef59b4d85390bc0357a7d,629c51df14f378d4999ad6e7,2022-06-05_09h41.05.533,Colour_Asymmetry_Pilot,2022.1.3,Win32,59.94125757,629c4b6caf241d5e6e00bfc0,,,,,,,,,,,,,,,,,,,,,,,,,,,,,,,,,,,,,,,,,,,,,,,,,,,,,,,,,,,,,,,,,,,,,,,,,,,,,,,,,,,,,,,,,,,,,,,,,,,,,,,,,,,,,,,,,,,,,,,,,,,,,,,,,,,,,,,,,,,,,,,,,,
0,67,67,50,1,,60fef59b4d85390bc0357a7d,629c51df14f378d4999ad6e7,2022-06-05_09h41.05.533,Colour_Asymmetry_Pilot,2022.1.3,Win32,59.94125757,629c4b6caf241d5e6e00bfc0,,,,,,,,,,,,,,,,,,,,,,,,,,,,,,,,,,,,,,,,,,,,,,,,,,,,,,,,,,,,,,,,,,,,,,,,,,,,,,,,,,,,,,,,,,,,,,,,,,,,,,,,,,,,,,,,,,,,,,,,,,,,,,,,,,,,,,,,,,,,,,,,,,
0,68,68,91,1,,60fef59b4d85390bc0357a7d,629c51df14f378d4999ad6e7,2022-06-05_09h41.05.533,Colour_Asymmetry_Pilot,2022.1.3,Win32,59.94125757,629c4b6caf241d5e6e00bfc0,,,,,,,,,,,,,,,,,,,,,,,,,,,,,,,,,,,,,,,,,,,,,,,,,,,,,,,,,,,,,,,,,,,,,,,,,,,,,,,,,,,,,,,,,,,,,,,,,,,,,,,,,,,,,,,,,,,,,,,,,,,,,,,,,,,,,,,,,,,,,,,,,,
0,69,69,7,1,,60fef59b4d85390bc0357a7d,629c51df14f378d4999ad6e7,2022-06-05_09h41.05.533,Colour_Asymmetry_Pilot,2022.1.3,Win32,59.94125757,629c4b6caf241d5e6e00bfc0,,,,,,,,,,,,,,,,,,,,,,,,,,,,,,,,,,,,,,,,,,,,,,,,,,,,,,,,,,,,,,,,,,,,,,,,,,,,,,,,,,,,,,,,,,,,,,,,,,,,,,,,,,,,,,,,,,,,,,,,,,,,,,,,,,,,,,,,,,,,,,,,,,
0,70,70,11,1,,60fef59b4d85390bc0357a7d,629c51df14f378d4999ad6e7,2022-06-05_09h41.05.533,Colour_Asymmetry_Pilot,2022.1.3,Win32,59.94125757,629c4b6caf241d5e6e00bfc0,,,,,,,,,,,,,,,,,,,,,,,,,,,,,,,,,,,,,,,,,,,,,,,,,,,,,,,,,,,,,,,,,,,,,,,,,,,,,,,,,,,,,,,,,,,,,,,,,,,,,,,,,,,,,,,,,,,,,,,,,,,,,,,,,,,,,,,,,,,,,,,,,,
0,71,71,24,1,,60fef59b4d85390bc0357a7d,629c51df14f378d4999ad6e7,2022-06-05_09h41.05.533,Colour_Asymmetry_Pilot,2022.1.3,Win32,59.94125757,629c4b6caf241d5e6e00bfc0,,,,,,,,,,,,,,,,,,,,,,,,,,,,,,,,,,,,,,,,,,,,,,,,,,,,,,,,,,,,,,,,,,,,,,,,,,,,,,,,,,,,,,,,,,,,,,,,,,,,,,,,,,,,,,,,,,,,,,,,,,,,,,,,,,,,,,,,,,,,,,,,,,
0,72,72,75,1,,60fef59b4d85390bc0357a7d,629c51df14f378d4999ad6e7,2022-06-05_09h41.05.533,Colour_Asymmetry_Pilot,2022.1.3,Win32,59.94125757,629c4b6caf241d5e6e00bfc0,,,,,,,,,,,,,,,,,,,,,,,,,,,,,,,,,,,,,,,,,,,,,,,,,,,,,,,,,,,,,,,,,,,,,,,,,,,,,,,,,,,,,,,,,,,,,,,,,,,,,,,,,,,,,,,,,,,,,,,,,,,,,,,,,,,,,,,,,,,,,,,,,,
0,73,73,54,1,,60fef59b4d85390bc0357a7d,629c51df14f378d4999ad6e7,2022-06-05_09h41.05.533,Colour_Asymmetry_Pilot,2022.1.3,Win32,59.94125757,629c4b6caf241d5e6e00bfc0,,,,,,,,,,,,,,,,,,,,,,,,,,,,,,,,,,,,,,,,,,,,,,,,,,,,,,,,,,,,,,,,,,,,,,,,,,,,,,,,,,,,,,,,,,,,,,,,,,,,,,,,,,,,,,,,,,,,,,,,,,,,,,,,,,,,,,,,,,,,,,,,,,
0,74,74,89,1,,60fef59b4d85390bc0357a7d,629c51df14f378d4999ad6e7,2022-06-05_09h41.05.533,Colour_Asymmetry_Pilot,2022.1.3,Win32,59.94125757,629c4b6caf241d5e6e00bfc0,,,,,,,,,,,,,,,,,,,,,,,,,,,,,,,,,,,,,,,,,,,,,,,,,,,,,,,,,,,,,,,,,,,,,,,,,,,,,,,,,,,,,,,,,,,,,,,,,,,,,,,,,,,,,,,,,,,,,,,,,,,,,,,,,,,,,,,,,,,,,,,,,,
0,75,75,29,1,,60fef59b4d85390bc0357a7d,629c51df14f378d4999ad6e7,2022-06-05_09h41.05.533,Colour_Asymmetry_Pilot,2022.1.3,Win32,59.94125757,629c4b6caf241d5e6e00bfc0,,,,,,,,,,,,,,,,,,,,,,,,,,,,,,,,,,,,,,,,,,,,,,,,,,,,,,,,,,,,,,,,,,,,,,,,,,,,,,,,,,,,,,,,,,,,,,,,,,,,,,,,,,,,,,,,,,,,,,,,,,,,,,,,,,,,,,,,,,,,,,,,,,
0,76,76,43,1,,60fef59b4d85390bc0357a7d,629c51df14f378d4999ad6e7,2022-06-05_09h41.05.533,Colour_Asymmetry_Pilot,2022.1.3,Win32,59.94125757,629c4b6caf241d5e6e00bfc0,,,,,,,,,,,,,,,,,,,,,,,,,,,,,,,,,,,,,,,,,,,,,,,,,,,,,,,,,,,,,,,,,,,,,,,,,,,,,,,,,,,,,,,,,,,,,,,,,,,,,,,,,,,,,,,,,,,,,,,,,,,,,,,,,,,,,,,,,,,,,,,,,,
0,77,77,56,1,,60fef59b4d85390bc0357a7d,629c51df14f378d4999ad6e7,2022-06-05_09h41.05.533,Colour_Asymmetry_Pilot,2022.1.3,Win32,59.94125757,629c4b6caf241d5e6e00bfc0,,,,,,,,,,,,,,,,,,,,,,,,,,,,,,,,,,,,,,,,,,,,,,,,,,,,,,,,,,,,,,,,,,,,,,,,,,,,,,,,,,,,,,,,,,,,,,,,,,,,,,,,,,,,,,,,,,,,,,,,,,,,,,,,,,,,,,,,,,,,,,,,,,
0,78,78,49,1,,60fef59b4d85390bc0357a7d,629c51df14f378d4999ad6e7,2022-06-05_09h41.05.533,Colour_Asymmetry_Pilot,2022.1.3,Win32,59.94125757,629c4b6caf241d5e6e00bfc0,,,,,,,,,,,,,,,,,,,,,,,,,,,,,,,,,,,,,,,,,,,,,,,,,,,,,,,,,,,,,,,,,,,,,,,,,,,,,,,,,,,,,,,,,,,,,,,,,,,,,,,,,,,,,,,,,,,,,,,,,,,,,,,,,,,,,,,,,,,,,,,,,,
0,79,79,37,1,,60fef59b4d85390bc0357a7d,629c51df14f378d4999ad6e7,2022-06-05_09h41.05.533,Colour_Asymmetry_Pilot,2022.1.3,Win32,59.94125757,629c4b6caf241d5e6e00bfc0,,,,,,,,,,,,,,,,,,,,,,,,,,,,,,,,,,,,,,,,,,,,,,,,,,,,,,,,,,,,,,,,,,,,,,,,,,,,,,,,,,,,,,,,,,,,,,,,,,,,,,,,,,,,,,,,,,,,,,,,,,,,,,,,,,,,,,,,,,,,,,,,,,
0,80,80,60,1,,60fef59b4d85390bc0357a7d,629c51df14f378d4999ad6e7,2022-06-05_09h41.05.533,Colour_Asymmetry_Pilot,2022.1.3,Win32,59.94125757,629c4b6caf241d5e6e00bfc0,,,,,,,,,,,,,,,,,,,,,,,,,,,,,,,,,,,,,,,,,,,,,,,,,,,,,,,,,,,,,,,,,,,,,,,,,,,,,,,,,,,,,,,,,,,,,,,,,,,,,,,,,,,,,,,,,,,,,,,,,,,,,,,,,,,,,,,,,,,,,,,,,,
0,81,81,6,1,,60fef59b4d85390bc0357a7d,629c51df14f378d4999ad6e7,2022-06-05_09h41.05.533,Colour_Asymmetry_Pilot,2022.1.3,Win32,59.94125757,629c4b6caf241d5e6e00bfc0,,,,,,,,,,,,,,,,,,,,,,,,,,,,,,,,,,,,,,,,,,,,,,,,,,,,,,,,,,,,,,,,,,,,,,,,,,,,,,,,,,,,,,,,,,,,,,,,,,,,,,,,,,,,,,,,,,,,,,,,,,,,,,,,,,,,,,,,,,,,,,,,,,
0,82,82,55,1,,60fef59b4d85390bc0357a7d,629c51df14f378d4999ad6e7,2022-06-05_09h41.05.533,Colour_Asymmetry_Pilot,2022.1.3,Win32,59.94125757,629c4b6caf241d5e6e00bfc0,,,,,,,,,,,,,,,,,,,,,,,,,,,,,,,,,,,,,,,,,,,,,,,,,,,,,,,,,,,,,,,,,,,,,,,,,,,,,,,,,,,,,,,,,,,,,,,,,,,,,,,,,,,,,,,,,,,,,,,,,,,,,,,,,,,,,,,,,,,,,,,,,,
0,83,83,85,1,,60fef59b4d85390bc0357a7d,629c51df14f378d4999ad6e7,2022-06-05_09h41.05.533,Colour_Asymmetry_Pilot,2022.1.3,Win32,59.94125757,629c4b6caf241d5e6e00bfc0,,,,,,,,,,,,,,,,,,,,,,,,,,,,,,,,,,,,,,,,,,,,,,,,,,,,,,,,,,,,,,,,,,,,,,,,,,,,,,,,,,,,,,,,,,,,,,,,,,,,,,,,,,,,,,,,,,,,,,,,,,,,,,,,,,,,,,,,,,,,,,,,,,
0,84,84,88,1,,60fef59b4d85390bc0357a7d,629c51df14f378d4999ad6e7,2022-06-05_09h41.05.533,Colour_Asymmetry_Pilot,2022.1.3,Win32,59.94125757,629c4b6caf241d5e6e00bfc0,,,,,,,,,,,,,,,,,,,,,,,,,,,,,,,,,,,,,,,,,,,,,,,,,,,,,,,,,,,,,,,,,,,,,,,,,,,,,,,,,,,,,,,,,,,,,,,,,,,,,,,,,,,,,,,,,,,,,,,,,,,,,,,,,,,,,,,,,,,,,,,,,,
0,85,85,48,1,,60fef59b4d85390bc0357a7d,629c51df14f378d4999ad6e7,2022-06-05_09h41.05.533,Colour_Asymmetry_Pilot,2022.1.3,Win32,59.94125757,629c4b6caf241d5e6e00bfc0,,,,,,,,,,,,,,,,,,,,,,,,,,,,,,,,,,,,,,,,,,,,,,,,,,,,,,,,,,,,,,,,,,,,,,,,,,,,,,,,,,,,,,,,,,,,,,,,,,,,,,,,,,,,,,,,,,,,,,,,,,,,,,,,,,,,,,,,,,,,,,,,,,
0,86,86,74,1,,60fef59b4d85390bc0357a7d,629c51df14f378d4999ad6e7,2022-06-05_09h41.05.533,Colour_Asymmetry_Pilot,2022.1.3,Win32,59.94125757,629c4b6caf241d5e6e00bfc0,,,,,,,,,,,,,,,,,,,,,,,,,,,,,,,,,,,,,,,,,,,,,,,,,,,,,,,,,,,,,,,,,,,,,,,,,,,,,,,,,,,,,,,,,,,,,,,,,,,,,,,,,,,,,,,,,,,,,,,,,,,,,,,,,,,,,,,,,,,,,,,,,,
0,87,87,83,1,,60fef59b4d85390bc0357a7d,629c51df14f378d4999ad6e7,2022-06-05_09h41.05.533,Colour_Asymmetry_Pilot,2022.1.3,Win32,59.94125757,629c4b6caf241d5e6e00bfc0,,,,,,,,,,,,,,,,,,,,,,,,,,,,,,,,,,,,,,,,,,,,,,,,,,,,,,,,,,,,,,,,,,,,,,,,,,,,,,,,,,,,,,,,,,,,,,,,,,,,,,,,,,,,,,,,,,,,,,,,,,,,,,,,,,,,,,,,,,,,,,,,,,
0,88,88,16,1,,60fef59b4d85390bc0357a7d,629c51df14f378d4999ad6e7,2022-06-05_09h41.05.533,Colour_Asymmetry_Pilot,2022.1.3,Win32,59.94125757,629c4b6caf241d5e6e00bfc0,,,,,,,,,,,,,,,,,,,,,,,,,,,,,,,,,,,,,,,,,,,,,,,,,,,,,,,,,,,,,,,,,,,,,,,,,,,,,,,,,,,,,,,,,,,,,,,,,,,,,,,,,,,,,,,,,,,,,,,,,,,,,,,,,,,,,,,,,,,,,,,,,,
0,89,89,42,1,,60fef59b4d85390bc0357a7d,629c51df14f378d4999ad6e7,2022-06-05_09h41.05.533,Colour_Asymmetry_Pilot,2022.1.3,Win32,59.94125757,629c4b6caf241d5e6e00bfc0,,,,,,,,,,,,,,,,,,,,,,,,,,,,,,,,,,,,,,,,,,,,,,,,,,,,,,,,,,,,,,,,,,,,,,,,,,,,,,,,,,,,,,,,,,,,,,,,,,,,,,,,,,,,,,,,,,,,,,,,,,,,,,,,,,,,,,,,,,,,,,,,,,
0,90,90,81,1,,60fef59b4d85390bc0357a7d,629c51df14f378d4999ad6e7,2022-06-05_09h41.05.533,Colour_Asymmetry_Pilot,2022.1.3,Win32,59.94125757,629c4b6caf241d5e6e00bfc0,,,,,,,,,,,,,,,,,,,,,,,,,,,,,,,,,,,,,,,,,,,,,,,,,,,,,,,,,,,,,,,,,,,,,,,,,,,,,,,,,,,,,,,,,,,,,,,,,,,,,,,,,,,,,,,,,,,,,,,,,,,,,,,,,,,,,,,,,,,,,,,,,,
0,91,91,80,1,,60fef59b4d85390bc0357a7d,629c51df14f378d4999ad6e7,2022-06-05_09h41.05.533,Colour_Asymmetry_Pilot,2022.1.3,Win32,59.94125757,629c4b6caf241d5e6e00bfc0,,,,,,,,,,,,,,,,,,,,,,,,,,,,,,,,,,,,,,,,,,,,,,,,,,,,,,,,,,,,,,,,,,,,,,,,,,,,,,,,,,,,,,,,,,,,,,,,,,,,,,,,,,,,,,,,,,,,,,,,,,,,,,,,,,,,,,,,,,,,,,,,,,
0,92,92,59,1,,60fef59b4d85390bc0357a7d,629c51df14f378d4999ad6e7,2022-06-05_09h41.05.533,Colour_Asymmetry_Pilot,2022.1.3,Win32,59.94125757,629c4b6caf241d5e6e00bfc0,,,,,,,,,,,,,,,,,,,,,,,,,,,,,,,,,,,,,,,,,,,,,,,,,,,,,,,,,,,,,,,,,,,,,,,,,,,,,,,,,,,,,,,,,,,,,,,,,,,,,,,,,,,,,,,,,,,,,,,,,,,,,,,,,,,,,,,,,,,,,,,,,,
,,,,,,60fef59b4d85390bc0357a7d,629c51df14f378d4999ad6e7,2022-06-05_09h41.05.533,Colour_Asymmetry_Pilot,2022.1.3,Win32,59.94125757,629c4b6caf241d5e6e00bfc0,0,0,0,19,1,twofour,,,,,,,,,,,,,,,,,,,,,,,,,,,,,,,,,,,,,,,,,,,,,,,,,,,,,,,,,,,,,,,,,,,,,,,,,,,,,,,,,,,,,,,,,,,,,,,,,,,,,,,,,,,,,,,,,,,,,,,,,,,,,,,,,,,,,,,,,,,,
,,,,,,60fef59b4d85390bc0357a7d,629c51df14f378d4999ad6e7,2022-06-05_09h41.05.533,Colour_Asymmetry_Pilot,2022.1.3,Win32,59.94125757,629c4b6caf241d5e6e00bfc0,0,1,1,66,1,twoone,,,,,,,,,,,,,,,,,,,,,,,,,,,,,,,,,,,,,,,,,,,,,,,,,,,,,,,,,,,,,,,,,,,,,,,,,,,,,,,,,,,,,,,,,,,,,,,,,,,,,,,,,,,,,,,,,,,,,,,,,,,,,,,,,,,,,,,,,,,,
,,,,,,60fef59b4d85390bc0357a7d,629c51df14f378d4999ad6e7,2022-06-05_09h41.05.533,Colour_Asymmetry_Pilot,2022.1.3,Win32,59.94125757,629c4b6caf241d5e6e00bfc0,0,2,2,145,1,onethree,,,,,,,,,,,,,,,,,,,,,,,,,,,,,,,,,,,,,,,,,,,,,,,,,,,,,,,,,,,,,,,,,,,,,,,,,,,,,,,,,,,,,,,,,,,,,,,,,,,,,,,,,,,,,,,,,,,,,,,,,,,,,,,,,,,,,,,,,,,,
,,,,,,60fef59b4d85390bc0357a7d,629c51df14f378d4999ad6e7,2022-06-05_09h41.05.533,Colour_Asymmetry_Pilot,2022.1.3,Win32,59.94125757,629c4b6caf241d5e6e00bfc0,0,3,3,56,1,onetwo,,,,,,,,,,,,,,,,,,,,,,,,,,,,,,,,,,,,,,,,,,,,,,,,,,,,,,,,,,,,,,,,,,,,,,,,,,,,,,,,,,,,,,,,,,,,,,,,,,,,,,,,,,,,,,,,,,,,,,,,,,,,,,,,,,,,,,,,,,,,
,,,,,,60fef59b4d85390bc0357a7d,629c51df14f378d4999ad6e7,2022-06-05_09h41.05.533,Colour_Asymmetry_Pilot,2022.1.3,Win32,59.94125757,629c4b6caf241d5e6e00bfc0,0,4,4,146,1,twoone,,,,,,,,,,,,,,,,,,,,,,,,,,,,,,,,,,,,,,,,,,,,,,,,,,,,,,,,,,,,,,,,,,,,,,,,,,,,,,,,,,,,,,,,,,,,,,,,,,,,,,,,,,,,,,,,,,,,,,,,,,,,,,,,,,,,,,,,,,,,
,,,,,,60fef59b4d85390bc0357a7d,629c51df14f378d4999ad6e7,2022-06-05_09h41.05.533,Colour_Asymmetry_Pilot,2022.1.3,Win32,59.94125757,629c4b6caf241d5e6e00bfc0,0,5,5,70,1,fourtwo,,,,,,,,,,,,,,,,,,,,,,,,,,,,,,,,,,,,,,,,,,,,,,,,,,,,,,,,,,,,,,,,,,,,,,,,,,,,,,,,,,,,,,,,,,,,,,,,,,,,,,,,,,,,,,,,,,,,,,,,,,,,,,,,,,,,,,,,,,,,
,,,,,,60fef59b4d85390bc0357a7d,629c51df14f378d4999ad6e7,2022-06-05_09h41.05.533,Colour_Asymmetry_Pilot,2022.1.3,Win32,59.94125757,629c4b6caf241d5e6e00bfc0,0,6,6,64,1,onetwo,,,,,,,,,,,,,,,,,,,,,,,,,,,,,,,,,,,,,,,,,,,,,,,,,,,,,,,,,,,,,,,,,,,,,,,,,,,,,,,,,,,,,,,,,,,,,,,,,,,,,,,,,,,,,,,,,,,,,,,,,,,,,,,,,,,,,,,,,,,,
,,,,,,60fef59b4d85390bc0357a7d,629c51df14f378d4999ad6e7,2022-06-05_09h41.05.533,Colour_Asymmetry_Pilot,2022.1.3,Win32,59.94125757,629c4b6caf241d5e6e00bfc0,0,7,7,65,1,onethree,,,,,,,,,,,,,,,,,,,,,,,,,,,,,,,,,,,,,,,,,,,,,,,,,,,,,,,,,,,,,,,,,,,,,,,,,,,,,,,,,,,,,,,,,,,,,,,,,,,,,,,,,,,,,,,,,,,,,,,,,,,,,,,,,,,,,,,,,,,,
,,,,,,60fef59b4d85390bc0357a7d,629c51df14f378d4999ad6e7,2022-06-05_09h41.05.533,Colour_Asymmetry_Pilot,2022.1.3,Win32,59.94125757,629c4b6caf241d5e6e00bfc0,0,8,8,131,1,twofour,,,,,,,,,,,,,,,,,,,,,,,,,,,,,,,,,,,,,,,,,,,,,,,,,,,,,,,,,,,,,,,,,,,,,,,,,,,,,,,,,,,,,,,,,,,,,,,,,,,,,,,,,,,,,,,,,,,,,,,,,,,,,,,,,,,,,,,,,,,,
,,,,,,60fef59b4d85390bc0357a7d,629c51df14f378d4999ad6e7,2022-06-05_09h41.05.533,Colour_Asymmetry_Pilot,2022.1.3,Win32,59.94125757,629c4b6caf241d5e6e00bfc0,0,9,9,139,1,twofour,,,,,,,,,,,,,,,,,,,,,,,,,,,,,,,,,,,,,,,,,,,,,,,,,,,,,,,,,,,,,,,,,,,,,,,,,,,,,,,,,,,,,,,,,,,,,,,,,,,,,,,,,,,,,,,,,,,,,,,,,,,,,,,,,,,,,,,,,,,,
,,,,,,60fef59b4d85390bc0357a7d,629c51df14f378d4999ad6e7,2022-06-05_09h41.05.533,Colour_Asymmetry_Pilot,2022.1.3,Win32,59.94125757,629c4b6caf241d5e6e00bfc0,0,10,10,84,1,threeone,,,,,,,,,,,,,,,,,,,,,,,,,,,,,,,,,,,,,,,,,,,,,,,,,,,,,,,,,,,,,,,,,,,,,,,,,,,,,,,,,,,,,,,,,,,,,,,,,,,,,,,,,,,,,,,,,,,,,,,,,,,,,,,,,,,,,,,,,,,,
,,,,,,60fef59b4d85390bc0357a7d,629c51df14f378d4999ad6e7,2022-06-05_09h41.05.533,Colour_Asymmetry_Pilot,2022.1.3,Win32,59.94125757,629c4b6caf241d5e6e00bfc0,0,11,11,156,1,threeone,,,,,,,,,,,,,,,,,,,,,,,,,,,,,,,,,,,,,,,,,,,,,,,,,,,,,,,,,,,,,,,,,,,,,,,,,,,,,,,,,,,,,,,,,,,,,,,,,,,,,,,,,,,,,,,,,,,,,,,,,,,,,,,,,,,,,,,,,,,,
,,,,,,60fef59b4d85390bc0357a7d,629c51df14f378d4999ad6e7,2022-06-05_09h41.05.533,Colour_Asymmetry_Pilot,2022.1.3,Win32,59.94125757,629c4b6caf241d5e6e00bfc0,0,12,12,149,1,threefour,,,,,,,,,,,,,,,,,,,,,,,,,,,,,,,,,,,,,,,,,,,,,,,,,,,,,,,,,,,,,,,,,,,,,,,,,,,,,,,,,,,,,,,,,,,,,,,,,,,,,,,,,,,,,,,,,,,,,,,,,,,,,,,,,,,,,,,,,,,,
,,,,,,60fef59b4d85390bc0357a7d,629c51df14f378d4999ad6e7,2022-06-05_09h41.05.533,Colour_Asymmetry_Pilot,2022.1.3,Win32,59.94125757,629c4b6caf241d5e6e00bfc0,0,13,13,160,1,onetwo,,,,,,,,,,,,,,,,,,,,,,,,,,,,,,,,,,,,,,,,,,,,,,,,,,,,,,,,,,,,,,,,,,,,,,,,,,,,,,,,,,,,,,,,,,,,,,,,,,,,,,,,,,,,,,,,,,,,,,,,,,,,,,,,,,,,,,,,,,,,
,,,,,,60fef59b4d85390bc0357a7d,629c51df14f378d4999ad6e7,2022-06-05_09h41.05.533,Colour_Asymmetry_Pilot,2022.1.3,Win32,59.94125757,629c4b6caf241d5e6e00bfc0,0,14,14,96,1,onetwo,,,,,,,,,,,,,,,,,,,,,,,,,,,,,,,,,,,,,,,,,,,,,,,,,,,,,,,,,,,,,,,,,,,,,,,,,,,,,,,,,,,,,,,,,,,,,,,,,,,,,,,,,,,,,,,,,,,,,,,,,,,,,,,,,,,,,,,,,,,,
,,,,,,60fef59b4d85390bc0357a7d,629c51df14f378d4999ad6e7,2022-06-05_09h41.05.533,Colour_Asymmetry_Pilot,2022.1.3,Win32,59.94125757,629c4b6caf241d5e6e00bfc0,0,15,15,152,1,onetwo,,,,,,,,,,,,,,,,,,,,,,,,,,,,,,,,,,,,,,,,,,,,,,,,,,,,,,,,,,,,,,,,,,,,,,,,,,,,,,,,,,,,,,,,,,,,,,,,,,,,,,,,,,,,,,,,,,,,,,,,,,,,,,,,,,,,,,,,,,,,
,,,,,,60fef59b4d85390bc0357a7d,629c51df14f378d4999ad6e7,2022-06-05_09h41.05.533,Colour_Asymmetry_Pilot,2022.1.3,Win32,59.94125757,629c4b6caf241d5e6e00bfc0,0,16,16,16,1,onetwo,,,,,,,,,,,,,,,,,,,,,,,,,,,,,,,,,,,,,,,,,,,,,,,,,,,,,,,,,,,,,,,,,,,,,,,,,,,,,,,,,,,,,,,,,,,,,,,,,,,,,,,,,,,,,,,,,,,,,,,,,,,,,,,,,,,,,,,,,,,,
,,,,,,60fef59b4d85390bc0357a7d,629c51df14f378d4999ad6e7,2022-06-05_09h41.05.533,Colour_Asymmetry_Pilot,2022.1.3,Win32,59.94125757,629c4b6caf241d5e6e00bfc0,0,17,17,29,1,threefour,,,,,,,,,,,,,,,,,,,,,,,,,,,,,,,,,,,,,,,,,,,,,,,,,,,,,,,,,,,,,,,,,,,,,,,,,,,,,,,,,,,,,,,,,,,,,,,,,,,,,,,,,,,,,,,,,,,,,,,,,,,,,,,,,,,,,,,,,,,,
,,,,,,60fef59b4d85390bc0357a7d,629c51df14f378d4999ad6e7,2022-06-05_09h41.05.533,Colour_Asymmetry_Pilot,2022.1.3,Win32,59.94125757,629c4b6caf241d5e6e00bfc0,0,18,18,8,1,onetwo,,,,,,,,,,,,,,,,,,,,,,,,,,,,,,,,,,,,,,,,,,,,,,,,,,,,,,,,,,,,,,,,,,,,,,,,,,,,,,,,,,,,,,,,,,,,,,,,,,,,,,,,,,,,,,,,,,,,,,,,,,,,,,,,,,,,,,,,,,,,
,,,,,,60fef59b4d85390bc0357a7d,629c51df14f378d4999ad6e7,2022-06-05_09h41.05.533,Colour_Asymmetry_Pilot,2022.1.3,Win32,59.94125757,629c4b6caf241d5e6e00bfc0,0,19,19,15,1,fourthree,,,,,,,,,,,,,,,,,,,,,,,,,,,,,,,,,,,,,,,,,,,,,,,,,,,,,,,,,,,,,,,,,,,,,,,,,,,,,,,,,,,,,,,,,,,,,,,,,,,,,,,,,,,,,,,,,,,,,,,,,,,,,,,,,,,,,,,,,,,,
,,,,,,60fef59b4d85390bc0357a7d,629c51df14f378d4999ad6e7,2022-06-05_09h41.05.533,Colour_Asymmetry_Pilot,2022.1.3,Win32,59.94125757,629c4b6caf241d5e6e00bfc0,0,20,20,47,1,fourthree,,,,,,,,,,,,,,,,,,,,,,,,,,,,,,,,,,,,,,,,,,,,,,,,,,,,,,,,,,,,,,,,,,,,,,,,,,,,,,,,,,,,,,,,,,,,,,,,,,,,,,,,,,,,,,,,,,,,,,,,,,,,,,,,,,,,,,,,,,,,
,,,,,,60fef59b4d85390bc0357a7d,629c51df14f378d4999ad6e7,2022-06-05_09h41.05.533,Colour_Asymmetry_Pilot,2022.1.3,Win32,59.94125757,629c4b6caf241d5e6e00bfc0,0,21,21,130,1,twoone,,,,,,,,,,,,,,,,,,,,,,,,,,,,,,,,,,,,,,,,,,,,,,,,,,,,,,,,,,,,,,,,,,,,,,,,,,,,,,,,,,,,,,,,,,,,,,,,,,,,,,,,,,,,,,,,,,,,,,,,,,,,,,,,,,,,,,,,,,,,
,,,,,,60fef59b4d85390bc0357a7d,629c51df14f378d4999ad6e7,2022-06-05_09h41.05.533,Colour_Asymmetry_Pilot,2022.1.3,Win32,59.94125757,629c4b6caf241d5e6e00bfc0,0,22,22,106,1,twoone,,,,,,,,,,,,,,,,,,,,,,,,,,,,,,,,,,,,,,,,,,,,,,,,,,,,,,,,,,,,,,,,,,,,,,,,,,,,,,,,,,,,,,,,,,,,,,,,,,,,,,,,,,,,,,,,,,,,,,,,,,,,,,,,,,,,,,,,,,,,
,,,,,,60fef59b4d85390bc0357a7d,629c51df14f378d4999ad6e7,2022-06-05_09h41.05.533,Colour_Asymmetry_Pilot,2022.1.3,Win32,59.94125757,629c4b6caf241d5e6e00bfc0,0,23,23,92,1,threeone,,,,,,,,,,,,,,,,,,,,,,,,,,,,,,,,,,,,,,,,,,,,,,,,,,,,,,,,,,,,,,,,,,,,,,,,,,,,,,,,,,,,,,,,,,,,,,,,,,,,,,,,,,,,,,,,,,,,,,,,,,,,,,,,,,,,,,,,,,,,
,,,,,,60fef59b4d85390bc0357a7d,629c51df14f378d4999ad6e7,2022-06-05_09h41.05.533,Colour_Asymmetry_Pilot,2022.1.3,Win32,59.94125757,629c4b6caf241d5e6e00bfc0,0,24,24,36,1,threeone,,,,,,,,,,,,,,,,,,,,,,,,,,,,,,,,,,,,,,,,,,,,,,,,,,,,,,,,,,,,,,,,,,,,,,,,,,,,,,,,,,,,,,,,,,,,,,,,,,,,,,,,,,,,,,,,,,,,,,,,,,,,,,,,,,,,,,,,,,,,
,,,,,,60fef59b4d85390bc0357a7d,629c51df14f378d4999ad6e7,2022-06-05_09h41.05.533,Colour_Asymmetry_Pilot,2022.1.3,Win32,59.94125757,629c4b6caf241d5e6e00bfc0,0,25,25,147,1,twofour,,,,,,,,,,,,,,,,,,,,,,,,,,,,,,,,,,,,,,,,,,,,,,,,,,,,,,,,,,,,,,,,,,,,,,,,,,,,,,,,,,,,,,,,,,,,,,,,,,,,,,,,,,,,,,,,,,,,,,,,,,,,,,,,,,,,,,,,,,,,
,,,,,,60fef59b4d85390bc0357a7d,629c51df14f378d4999ad6e7,2022-06-05_09h41.05.533,Colour_Asymmetry_Pilot,2022.1.3,Win32,59.94125757,629c4b6caf241d5e6e00bfc0,0,26,26,97,1,onethree,,,,,,,,,,,,,,,,,,,,,,,,,,,,,,,,,,,,,,,,,,,,,,,,,,,,,,,,,,,,,,,,,,,,,,,,,,,,,,,,,,,,,,,,,,,,,,,,,,,,,,,,,,,,,,,,,,,,,,,,,,,,,,,,,,,,,,,,,,,,
,,,,,,60fef59b4d85390bc0357a7d,629c51df14f378d4999ad6e7,2022-06-05_09h41.05.533,Colour_Asymmetry_Pilot,2022.1.3,Win32,59.94125757,629c4b6caf241d5e6e00bfc0,0,27,27,23,1,fourthree,,,,,,,,,,,,,,,,,,,,,,,,,,,,,,,,,,,,,,,,,,,,,,,,,,,,,,,,,,,,,,,,,,,,,,,,,,,,,,,,,,,,,,,,,,,,,,,,,,,,,,,,,,,,,,,,,,,,,,,,,,,,,,,,,,,,,,,,,,,,
,,,,,,60fef59b4d85390bc0357a7d,629c51df14f378d4999ad6e7,2022-06-05_09h41.05.533,Colour_Asymmetry_Pilot,2022.1.3,Win32,59.94125757,629c4b6caf241d5e6e00bfc0,0,28,28,112,1,onetwo,,,,,,,,,,,,,,,,,,,,,,,,,,,,,,,,,,,,,,,,,,,,,,,,,,,,,,,,,,,,,,,,,,,,,,,,,,,,,,,,,,,,,,,,,,,,,,,,,,,,,,,,,,,,,,,,,,,,,,,,,,,,,,,,,,,,,,,,,,,,
,,,,,,60fef59b4d85390bc0357a7d,629c51df14f378d4999ad6e7,2022-06-05_09h41.05.533,Colour_Asymmetry_Pilot,2022.1.3,Win32,59.94125757,629c4b6caf241d5e6e00bfc0,0,29,29,41,1,onethree,,,,,,,,,,,,,,,,,,,,,,,,,,,,,,,,,,,,,,,,,,,,,,,,,,,,,,,,,,,,,,,,,,,,,,,,,,,,,,,,,,,,,,,,,,,,,,,,,,,,,,,,,,,,,,,,,,,,,,,,,,,,,,,,,,,,,,,,,,,,
,,,,,,60fef59b4d85390bc0357a7d,629c51df14f378d4999ad6e7,2022-06-05_09h41.05.533,Colour_Asymmetry_Pilot,2022.1.3,Win32,59.94125757,629c4b6caf241d5e6e00bfc0,0,30,30,6,1,fourtwo,,,,,,,,,,,,,,,,,,,,,,,,,,,,,,,,,,,,,,,,,,,,,,,,,,,,,,,,,,,,,,,,,,,,,,,,,,,,,,,,,,,,,,,,,,,,,,,,,,,,,,,,,,,,,,,,,,,,,,,,,,,,,,,,,,,,,,,,,,,,
,,,,,,60fef59b4d85390bc0357a7d,629c51df14f378d4999ad6e7,2022-06-05_09h41.05.533,Colour_Asymmetry_Pilot,2022.1.3,Win32,59.94125757,629c4b6caf241d5e6e00bfc0,0,31,31,0,1,onetwo,,,,,,,,,,,,,,,,,,,,,,,,,,,,,,,,,,,,,,,,,,,,,,,,,,,,,,,,,,,,,,,,,,,,,,,,,,,,,,,,,,,,,,,,,,,,,,,,,,,,,,,,,,,,,,,,,,,,,,,,,,,,,,,,,,,,,,,,,,,,
,,,,,,60fef59b4d85390bc0357a7d,629c51df14f378d4999ad6e7,2022-06-05_09h41.05.533,Colour_Asymmetry_Pilot,2022.1.3,Win32,59.94125757,629c4b6caf241d5e6e00bfc0,0,32,32,124,1,threeone,,,,,,,,,,,,,,,,,,,,,,,,,,,,,,,,,,,,,,,,,,,,,,,,,,,,,,,,,,,,,,,,,,,,,,,,,,,,,,,,,,,,,,,,,,,,,,,,,,,,,,,,,,,,,,,,,,,,,,,,,,,,,,,,,,,,,,,,,,,,
,,,,,,60fef59b4d85390bc0357a7d,629c51df14f378d4999ad6e7,2022-06-05_09h41.05.533,Colour_Asymmetry_Pilot,2022.1.3,Win32,59.94125757,629c4b6caf241d5e6e00bfc0,0,33,33,1,1,onethree,,,,,,,,,,,,,,,,,,,,,,,,,,,,,,,,,,,,,,,,,,,,,,,,,,,,,,,,,,,,,,,,,,,,,,,,,,,,,,,,,,,,,,,,,,,,,,,,,,,,,,,,,,,,,,,,,,,,,,,,,,,,,,,,,,,,,,,,,,,,
,,,,,,60fef59b4d85390bc0357a7d,629c51df14f378d4999ad6e7,2022-06-05_09h41.05.533,Colour_Asymmetry_Pilot,2022.1.3,Win32,59.94125757,629c4b6caf241d5e6e00bfc0,0,34,34,31,1,fourthree,,,,,,,,,,,,,,,,,,,,,,,,,,,,,,,,,,,,,,,,,,,,,,,,,,,,,,,,,,,,,,,,,,,,,,,,,,,,,,,,,,,,,,,,,,,,,,,,,,,,,,,,,,,,,,,,,,,,,,,,,,,,,,,,,,,,,,,,,,,,
,,,,,,60fef59b4d85390bc0357a7d,629c51df14f378d4999ad6e7,2022-06-05_09h41.05.533,Colour_Asymmetry_Pilot,2022.1.3,Win32,59.94125757,629c4b6caf241d5e6e00bfc0,0,35,35,37,1,threefour,,,,,,,,,,,,,,,,,,,,,,,,,,,,,,,,,,,,,,,,,,,,,,,,,,,,,,,,,,,,,,,,,,,,,,,,,,,,,,,,,,,,,,,,,,,,,,,,,,,,,,,,,,,,,,,,,,,,,,,,,,,,,,,,,,,,,,,,,,,,
,,,,,,60fef59b4d85390bc0357a7d,629c51df14f378d4999ad6e7,2022-06-05_09h41.05.533,Colour_Asymmetry_Pilot,2022.1.3,Win32,59.94125757,629c4b6caf241d5e6e00bfc0,0,36,36,27,1,twofour,,,,,,,,,,,,,,,,,,,,,,,,,,,,,,,,,,,,,,,,,,,,,,,,,,,,,,,,,,,,,,,,,,,,,,,,,,,,,,,,,,,,,,,,,,,,,,,,,,,,,,,,,,,,,,,,,,,,,,,,,,,,,,,,,,,,,,,,,,,,
,,,,,,60fef59b4d85390bc0357a7d,629c51df14f378d4999ad6e7,2022-06-05_09h41.05.533,Colour_Asymmetry_Pilot,2022.1.3,Win32,59.94125757,629c4b6caf241d5e6e00bfc0,0,37,37,59,1,twofour,,,,,,,,,,,,,,,,,,,,,,,,,,,,,,,,,,,,,,,,,,,,,,,,,,,,,,,,,,,,,,,,,,,,,,,,,,,,,,,,,,,,,,,,,,,,,,,,,,,,,,,,,,,,,,,,,,,,,,,,,,,,,,,,,,,,,,,,,,,,
,,,,,,60fef59b4d85390bc0357a7d,629c51df14f378d4999ad6e7,2022-06-05_09h41.05.533,Colour_Asymmetry_Pilot,2022.1.3,Win32,59.94125757,629c4b6caf241d5e6e00bfc0,0,38,38,99,1,twofour,,,,,,,,,,,,,,,,,,,,,,,,,,,,,,,,,,,,,,,,,,,,,,,,,,,,,,,,,,,,,,,,,,,,,,,,,,,,,,,,,,,,,,,,,,,,,,,,,,,,,,,,,,,,,,,,,,,,,,,,,,,,,,,,,,,,,,,,,,,,
,,,,,,60fef59b4d85390bc0357a7d,629c51df14f378d4999ad6e7,2022-06-05_09h41.05.533,Colour_Asymmetry_Pilot,2022.1.3,Win32,59.94125757,629c4b6caf241d5e6e00bfc0,0,39,39,54,1,fourtwo,,,,,,,,,,,,,,,,,,,,,,,,,,,,,,,,,,,,,,,,,,,,,,,,,,,,,,,,,,,,,,,,,,,,,,,,,,,,,,,,,,,,,,,,,,,,,,,,,,,,,,,,,,,,,,,,,,,,,,,,,,,,,,,,,,,,,,,,,,,,
,,,,,,60fef59b4d85390bc0357a7d,629c51df14f378d4999ad6e7,2022-06-05_09h41.05.533,Colour_Asymmetry_Pilot,2022.1.3,Win32,59.94125757,629c4b6caf241d5e6e00bfc0,0,40,40,58,1,twoone,,,,,,,,,,,,,,,,,,,,,,,,,,,,,,,,,,,,,,,,,,,,,,,,,,,,,,,,,,,,,,,,,,,,,,,,,,,,,,,,,,,,,,,,,,,,,,,,,,,,,,,,,,,,,,,,,,,,,,,,,,,,,,,,,,,,,,,,,,,,
,,,,,,60fef59b4d85390bc0357a7d,629c51df14f378d4999ad6e7,2022-06-05_09h41.05.533,Colour_Asymmetry_Pilot,2022.1.3,Win32,59.94125757,629c4b6caf241d5e6e00bfc0,0,41,41,102,1,fourtwo,,,,,,,,,,,,,,,,,,,,,,,,,,,,,,,,,,,,,,,,,,,,,,,,,,,,,,,,,,,,,,,,,,,,,,,,,,,,,,,,,,,,,,,,,,,,,,,,,,,,,,,,,,,,,,,,,,,,,,,,,,,,,,,,,,,,,,,,,,,,
,,,,,,60fef59b4d85390bc0357a7d,629c51df14f378d4999ad6e7,2022-06-05_09h41.05.533,Colour_Asymmetry_Pilot,2022.1.3,Win32,59.94125757,629c4b6caf241d5e6e00bfc0,0,42,42,111,1,fourthree,,,,,,,,,,,,,,,,,,,,,,,,,,,,,,,,,,,,,,,,,,,,,,,,,,,,,,,,,,,,,,,,,,,,,,,,,,,,,,,,,,,,,,,,,,,,,,,,,,,,,,,,,,,,,,,,,,,,,,,,,,,,,,,,,,,,,,,,,,,,
,,,,,,60fef59b4d85390bc0357a7d,629c51df14f378d4999ad6e7,2022-06-05_09h41.05.533,Colour_Asymmetry_Pilot,2022.1.3,Win32,59.94125757,629c4b6caf241d5e6e00bfc0,0,43,43,4,1,threeone,,,,,,,,,,,,,,,,,,,,,,,,,,,,,,,,,,,,,,,,,,,,,,,,,,,,,,,,,,,,,,,,,,,,,,,,,,,,,,,,,,,,,,,,,,,,,,,,,,,,,,,,,,,,,,,,,,,,,,,,,,,,,,,,,,,,,,,,,,,,
,,,,,,60fef59b4d85390bc0357a7d,629c51df14f378d4999ad6e7,2022-06-05_09h41.05.533,Colour_Asymmetry_Pilot,2022.1.3,Win32,59.94125757,629c4b6caf241d5e6e00bfc0,0,44,44,110,1,fourtwo,,,,,,,,,,,,,,,,,,,,,,,,,,,,,,,,,,,,,,,,,,,,,,,,,,,,,,,,,,,,,,,,,,,,,,,,,,,,,,,,,,,,,,,,,,,,,,,,,,,,,,,,,,,,,,,,,,,,,,,,,,,,,,,,,,,,,,,,,,,,
,,,,,,60fef59b4d85390bc0357a7d,629c51df14f378d4999ad6e7,2022-06-05_09h41.05.533,Colour_Asymmetry_Pilot,2022.1.3,Win32,59.94125757,629c4b6caf241d5e6e00bfc0,0,45,45,105,1,onethree,,,,,,,,,,,,,,,,,,,,,,,,,,,,,,,,,,,,,,,,,,,,,,,,,,,,,,,,,,,,,,,,,,,,,,,,,,,,,,,,,,,,,,,,,,,,,,,,,,,,,,,,,,,,,,,,,,,,,,,,,,,,,,,,,,,,,,,,,,,,
,,,,,,60fef59b4d85390bc0357a7d,629c51df14f378d4999ad6e7,2022-06-05_09h41.05.533,Colour_Asymmetry_Pilot,2022.1.3,Win32,59.94125757,629c4b6caf241d5e6e00bfc0,0,46,46,22,1,fourtwo,,,,,,,,,,,,,,,,,,,,,,,,,,,,,,,,,,,,,,,,,,,,,,,,,,,,,,,,,,,,,,,,,,,,,,,,,,,,,,,,,,,,,,,,,,,,,,,,,,,,,,,,,,,,,,,,,,,,,,,,,,,,,,,,,,,,,,,,,,,,
,,,,,,60fef59b4d85390bc0357a7d,629c51df14f378d4999ad6e7,2022-06-05_09h41.05.533,Colour_Asymmetry_Pilot,2022.1.3,Win32,59.94125757,629c4b6caf241d5e6e00bfc0,0,47,47,42,1,twoone,,,,,,,,,,,,,,,,,,,,,,,,,,,,,,,,,,,,,,,,,,,,,,,,,,,,,,,,,,,,,,,,,,,,,,,,,,,,,,,,,,,,,,,,,,,,,,,,,,,,,,,,,,,,,,,,,,,,,,,,,,,,,,,,,,,,,,,,,,,,
,,,,,,60fef59b4d85390bc0357a7d,629c51df14f378d4999ad6e7,2022-06-05_09h41.05.533,Colour_Asymmetry_Pilot,2022.1.3,Win32,59.94125757,629c4b6caf241d5e6e00bfc0,0,48,48,159,1,fourthree,,,,,,,,,,,,,,,,,,,,,,,,,,,,,,,,,,,,,,,,,,,,,,,,,,,,,,,,,,,,,,,,,,,,,,,,,,,,,,,,,,,,,,,,,,,,,,,,,,,,,,,,,,,,,,,,,,,,,,,,,,,,,,,,,,,,,,,,,,,,
,,,,,,60fef59b4d85390bc0357a7d,629c51df14f378d4999ad6e7,2022-06-05_09h41.05.533,Colour_Asymmetry_Pilot,2022.1.3,Win32,59.94125757,629c4b6caf241d5e6e00bfc0,0,49,49,142,1,fourtwo,,,,,,,,,,,,,,,,,,,,,,,,,,,,,,,,,,,,,,,,,,,,,,,,,,,,,,,,,,,,,,,,,,,,,,,,,,,,,,,,,,,,,,,,,,,,,,,,,,,,,,,,,,,,,,,,,,,,,,,,,,,,,,,,,,,,,,,,,,,,
,,,,,,60fef59b4d85390bc0357a7d,629c51df14f378d4999ad6e7,2022-06-05_09h41.05.533,Colour_Asymmetry_Pilot,2022.1.3,Win32,59.94125757,629c4b6caf241d5e6e00bfc0,0,50,50,87,1,fourthree,,,,,,,,,,,,,,,,,,,,,,,,,,,,,,,,,,,,,,,,,,,,,,,,,,,,,,,,,,,,,,,,,,,,,,,,,,,,,,,,,,,,,,,,,,,,,,,,,,,,,,,,,,,,,,,,,,,,,,,,,,,,,,,,,,,,,,,,,,,,
,,,,,,60fef59b4d85390bc0357a7d,629c51df14f378d4999ad6e7,2022-06-05_09h41.05.533,Colour_Asymmetry_Pilot,2022.1.3,Win32,59.94125757,629c4b6caf241d5e6e00bfc0,0,51,51,134,1,fourtwo,,,,,,,,,,,,,,,,,,,,,,,,,,,,,,,,,,,,,,,,,,,,,,,,,,,,,,,,,,,,,,,,,,,,,,,,,,,,,,,,,,,,,,,,,,,,,,,,,,,,,,,,,,,,,,,,,,,,,,,,,,,,,,,,,,,,,,,,,,,,
,,,,,,60fef59b4d85390bc0357a7d,629c51df14f378d4999ad6e7,2022-06-05_09h41.05.533,Colour_Asymmetry_Pilot,2022.1.3,Win32,59.94125757,629c4b6caf241d5e6e00bfc0,0,52,52,128,1,onetwo,,,,,,,,,,,,,,,,,,,,,,,,,,,,,,,,,,,,,,,,,,,,,,,,,,,,,,,,,,,,,,,,,,,,,,,,,,,,,,,,,,,,,,,,,,,,,,,,,,,,,,,,,,,,,,,,,,,,,,,,,,,,,,,,,,,,,,,,,,,,
,,,,,,60fef59b4d85390bc0357a7d,629c51df14f378d4999ad6e7,2022-06-05_09h41.05.533,Colour_Asymmetry_Pilot,2022.1.3,Win32,59.94125757,629c4b6caf241d5e6e00bfc0,0,53,53,123,1,twofour,,,,,,,,,,,,,,,,,,,,,,,,,,,,,,,,,,,,,,,,,,,,,,,,,,,,,,,,,,,,,,,,,,,,,,,,,,,,,,,,,,,,,,,,,,,,,,,,,,,,,,,,,,,,,,,,,,,,,,,,,,,,,,,,,,,,,,,,,,,,
,,,,,,60fef59b4d85390bc0357a7d,629c51df14f378d4999ad6e7,2022-06-05_09h41.05.533,Colour_Asymmetry_Pilot,2022.1.3,Win32,59.94125757,629c4b6caf241d5e6e00bfc0,0,54,54,49,1,onethree,,,,,,,,,,,,,,,,,,,,,,,,,,,,,,,,,,,,,,,,,,,,,,,,,,,,,,,,,,,,,,,,,,,,,,,,,,,,,,,,,,,,,,,,,,,,,,,,,,,,,,,,,,,,,,,,,,,,,,,,,,,,,,,,,,,,,,,,,,,,
,,,,,,60fef59b4d85390bc0357a7d,629c51df14f378d4999ad6e7,2022-06-05_09h41.05.533,Colour_Asymmetry_Pilot,2022.1.3,Win32,59.94125757,629c4b6caf241d5e6e00bfc0,0,55,55,55,1,fourthree,,,,,,,,,,,,,,,,,,,,,,,,,,,,,,,,,,,,,,,,,,,,,,,,,,,,,,,,,,,,,,,,,,,,,,,,,,,,,,,,,,,,,,,,,,,,,,,,,,,,,,,,,,,,,,,,,,,,,,,,,,,,,,,,,,,,,,,,,,,,
,,,,,,60fef59b4d85390bc0357a7d,629c51df14f378d4999ad6e7,2022-06-05_09h41.05.533,Colour_Asymmetry_Pilot,2022.1.3,Win32,59.94125757,629c4b6caf241d5e6e00bfc0,0,56,56,126,1,fourtwo,,,,,,,,,,,,,,,,,,,,,,,,,,,,,,,,,,,,,,,,,,,,,,,,,,,,,,,,,,,,,,,,,,,,,,,,,,,,,,,,,,,,,,,,,,,,,,,,,,,,,,,,,,,,,,,,,,,,,,,,,,,,,,,,,,,,,,,,,,,,
,,,,,,60fef59b4d85390bc0357a7d,629c51df14f378d4999ad6e7,2022-06-05_09h41.05.533,Colour_Asymmetry_Pilot,2022.1.3,Win32,59.94125757,629c4b6caf241d5e6e00bfc0,0,57,57,5,1,threefour,,,,,,,,,,,,,,,,,,,,,,,,,,,,,,,,,,,,,,,,,,,,,,,,,,,,,,,,,,,,,,,,,,,,,,,,,,,,,,,,,,,,,,,,,,,,,,,,,,,,,,,,,,,,,,,,,,,,,,,,,,,,,,,,,,,,,,,,,,,,
,,,,,,60fef59b4d85390bc0357a7d,629c51df14f378d4999ad6e7,2022-06-05_09h41.05.533,Colour_Asymmetry_Pilot,2022.1.3,Win32,59.94125757,629c4b6caf241d5e6e00bfc0,0,58,58,51,1,twofour,,,,,,,,,,,,,,,,,,,,,,,,,,,,,,,,,,,,,,,,,,,,,,,,,,,,,,,,,,,,,,,,,,,,,,,,,,,,,,,,,,,,,,,,,,,,,,,,,,,,,,,,,,,,,,,,,,,,,,,,,,,,,,,,,,,,,,,,,,,,
,,,,,,60fef59b4d85390bc0357a7d,629c51df14f378d4999ad6e7,2022-06-05_09h41.05.533,Colour_Asymmetry_Pilot,2022.1.3,Win32,59.94125757,629c4b6caf241d5e6e00bfc0,0,59,59,133,1,threefour,,,,,,,,,,,,,,,,,,,,,,,,,,,,,,,,,,,,,,,,,,,,,,,,,,,,,,,,,,,,,,,,,,,,,,,,,,,,,,,,,,,,,,,,,,,,,,,,,,,,,,,,,,,,,,,,,,,,,,,,,,,,,,,,,,,,,,,,,,,,
,,,,,,60fef59b4d85390bc0357a7d,629c51df14f378d4999ad6e7,2022-06-05_09h41.05.533,Colour_Asymmetry_Pilot,2022.1.3,Win32,59.94125757,629c4b6caf241d5e6e00bfc0,0,60,60,82,1,twoone,,,,,,,,,,,,,,,,,,,,,,,,,,,,,,,,,,,,,,,,,,,,,,,,,,,,,,,,,,,,,,,,,,,,,,,,,,,,,,,,,,,,,,,,,,,,,,,,,,,,,,,,,,,,,,,,,,,,,,,,,,,,,,,,,,,,,,,,,,,,
,,,,,,60fef59b4d85390bc0357a7d,629c51df14f378d4999ad6e7,2022-06-05_09h41.05.533,Colour_Asymmetry_Pilot,2022.1.3,Win32,59.94125757,629c4b6caf241d5e6e00bfc0,0,61,61,63,1,fourthree,,,,,,,,,,,,,,,,,,,,,,,,,,,,,,,,,,,,,,,,,,,,,,,,,,,,,,,,,,,,,,,,,,,,,,,,,,,,,,,,,,,,,,,,,,,,,,,,,,,,,,,,,,,,,,,,,,,,,,,,,,,,,,,,,,,,,,,,,,,,
,,,,,,60fef59b4d85390bc0357a7d,629c51df14f378d4999ad6e7,2022-06-05_09h41.05.533,Colour_Asymmetry_Pilot,2022.1.3,Win32,59.94125757,629c4b6caf241d5e6e00bfc0,0,62,62,62,1,fourtwo,,,,,,,,,,,,,,,,,,,,,,,,,,,,,,,,,,,,,,,,,,,,,,,,,,,,,,,,,,,,,,,,,,,,,,,,,,,,,,,,,,,,,,,,,,,,,,,,,,,,,,,,,,,,,,,,,,,,,,,,,,,,,,,,,,,,,,,,,,,,
,,,,,,60fef59b4d85390bc0357a7d,629c51df14f378d4999ad6e7,2022-06-05_09h41.05.533,Colour_Asymmetry_Pilot,2022.1.3,Win32,59.94125757,629c4b6caf241d5e6e00bfc0,0,63,63,52,1,threeone,,,,,,,,,,,,,,,,,,,,,,,,,,,,,,,,,,,,,,,,,,,,,,,,,,,,,,,,,,,,,,,,,,,,,,,,,,,,,,,,,,,,,,,,,,,,,,,,,,,,,,,,,,,,,,,,,,,,,,,,,,,,,,,,,,,,,,,,,,,,
,,,,,,60fef59b4d85390bc0357a7d,629c51df14f378d4999ad6e7,2022-06-05_09h41.05.533,Colour_Asymmetry_Pilot,2022.1.3,Win32,59.94125757,629c4b6caf241d5e6e00bfc0,0,64,64,44,1,threeone,,,,,,,,,,,,,,,,,,,,,,,,,,,,,,,,,,,,,,,,,,,,,,,,,,,,,,,,,,,,,,,,,,,,,,,,,,,,,,,,,,,,,,,,,,,,,,,,,,,,,,,,,,,,,,,,,,,,,,,,,,,,,,,,,,,,,,,,,,,,
,,,,,,60fef59b4d85390bc0357a7d,629c51df14f378d4999ad6e7,2022-06-05_09h41.05.533,Colour_Asymmetry_Pilot,2022.1.3,Win32,59.94125757,629c4b6caf241d5e6e00bfc0,0,65,65,109,1,threefour,,,,,,,,,,,,,,,,,,,,,,,,,,,,,,,,,,,,,,,,,,,,,,,,,,,,,,,,,,,,,,,,,,,,,,,,,,,,,,,,,,,,,,,,,,,,,,,,,,,,,,,,,,,,,,,,,,,,,,,,,,,,,,,,,,,,,,,,,,,,
,,,,,,60fef59b4d85390bc0357a7d,629c51df14f378d4999ad6e7,2022-06-05_09h41.05.533,Colour_Asymmetry_Pilot,2022.1.3,Win32,59.94125757,629c4b6caf241d5e6e00bfc0,0,66,66,85,1,threefour,,,,,,,,,,,,,,,,,,,,,,,,,,,,,,,,,,,,,,,,,,,,,,,,,,,,,,,,,,,,,,,,,,,,,,,,,,,,,,,,,,,,,,,,,,,,,,,,,,,,,,,,,,,,,,,,,,,,,,,,,,,,,,,,,,,,,,,,,,,,
,,,,,,60fef59b4d85390bc0357a7d,629c51df14f378d4999ad6e7,2022-06-05_09h41.05.533,Colour_Asymmetry_Pilot,2022.1.3,Win32,59.94125757,629c4b6caf241d5e6e00bfc0,0,67,67,154,1,twoone,,,,,,,,,,,,,,,,,,,,,,,,,,,,,,,,,,,,,,,,,,,,,,,,,,,,,,,,,,,,,,,,,,,,,,,,,,,,,,,,,,,,,,,,,,,,,,,,,,,,,,,,,,,,,,,,,,,,,,,,,,,,,,,,,,,,,,,,,,,,
,,,,,,60fef59b4d85390bc0357a7d,629c51df14f378d4999ad6e7,2022-06-05_09h41.05.533,Colour_Asymmetry_Pilot,2022.1.3,Win32,59.94125757,629c4b6caf241d5e6e00bfc0,0,68,68,21,1,threefour,,,,,,,,,,,,,,,,,,,,,,,,,,,,,,,,,,,,,,,,,,,,,,,,,,,,,,,,,,,,,,,,,,,,,,,,,,,,,,,,,,,,,,,,,,,,,,,,,,,,,,,,,,,,,,,,,,,,,,,,,,,,,,,,,,,,,,,,,,,,
,,,,,,60fef59b4d85390bc0357a7d,629c51df14f378d4999ad6e7,2022-06-05_09h41.05.533,Colour_Asymmetry_Pilot,2022.1.3,Win32,59.94125757,629c4b6caf241d5e6e00bfc0,0,69,69,104,1,onetwo,,,,,,,,,,,,,,,,,,,,,,,,,,,,,,,,,,,,,,,,,,,,,,,,,,,,,,,,,,,,,,,,,,,,,,,,,,,,,,,,,,,,,,,,,,,,,,,,,,,,,,,,,,,,,,,,,,,,,,,,,,,,,,,,,,,,,,,,,,,,
,,,,,,60fef59b4d85390bc0357a7d,629c51df14f378d4999ad6e7,2022-06-05_09h41.05.533,Colour_Asymmetry_Pilot,2022.1.3,Win32,59.94125757,629c4b6caf241d5e6e00bfc0,0,70,70,101,1,threefour,,,,,,,,,,,,,,,,,,,,,,,,,,,,,,,,,,,,,,,,,,,,,,,,,,,,,,,,,,,,,,,,,,,,,,,,,,,,,,,,,,,,,,,,,,,,,,,,,,,,,,,,,,,,,,,,,,,,,,,,,,,,,,,,,,,,,,,,,,,,
,,,,,,60fef59b4d85390bc0357a7d,629c51df14f378d4999ad6e7,2022-06-05_09h41.05.533,Colour_Asymmetry_Pilot,2022.1.3,Win32,59.94125757,629c4b6caf241d5e6e00bfc0,0,71,71,125,1,threefour,,,,,,,,,,,,,,,,,,,,,,,,,,,,,,,,,,,,,,,,,,,,,,,,,,,,,,,,,,,,,,,,,,,,,,,,,,,,,,,,,,,,,,,,,,,,,,,,,,,,,,,,,,,,,,,,,,,,,,,,,,,,,,,,,,,,,,,,,,,,
,,,,,,60fef59b4d85390bc0357a7d,629c51df14f378d4999ad6e7,2022-06-05_09h41.05.533,Colour_Asymmetry_Pilot,2022.1.3,Win32,59.94125757,629c4b6caf241d5e6e00bfc0,0,72,72,53,1,threefour,,,,,,,,,,,,,,,,,,,,,,,,,,,,,,,,,,,,,,,,,,,,,,,,,,,,,,,,,,,,,,,,,,,,,,,,,,,,,,,,,,,,,,,,,,,,,,,,,,,,,,,,,,,,,,,,,,,,,,,,,,,,,,,,,,,,,,,,,,,,
,,,,,,60fef59b4d85390bc0357a7d,629c51df14f378d4999ad6e7,2022-06-05_09h41.05.533,Colour_Asymmetry_Pilot,2022.1.3,Win32,59.94125757,629c4b6caf241d5e6e00bfc0,0,73,73,108,1,threeone,,,,,,,,,,,,,,,,,,,,,,,,,,,,,,,,,,,,,,,,,,,,,,,,,,,,,,,,,,,,,,,,,,,,,,,,,,,,,,,,,,,,,,,,,,,,,,,,,,,,,,,,,,,,,,,,,,,,,,,,,,,,,,,,,,,,,,,,,,,,
,,,,,,60fef59b4d85390bc0357a7d,629c51df14f378d4999ad6e7,2022-06-05_09h41.05.533,Colour_Asymmetry_Pilot,2022.1.3,Win32,59.94125757,629c4b6caf241d5e6e00bfc0,0,74,74,135,1,fourthree,,,,,,,,,,,,,,,,,,,,,,,,,,,,,,,,,,,,,,,,,,,,,,,,,,,,,,,,,,,,,,,,,,,,,,,,,,,,,,,,,,,,,,,,,,,,,,,,,,,,,,,,,,,,,,,,,,,,,,,,,,,,,,,,,,,,,,,,,,,,
,,,,,,60fef59b4d85390bc0357a7d,629c51df14f378d4999ad6e7,2022-06-05_09h41.05.533,Colour_Asymmetry_Pilot,2022.1.3,Win32,59.94125757,629c4b6caf241d5e6e00bfc0,0,75,75,143,1,fourthree,,,,,,,,,,,,,,,,,,,,,,,,,,,,,,,,,,,,,,,,,,,,,,,,,,,,,,,,,,,,,,,,,,,,,,,,,,,,,,,,,,,,,,,,,,,,,,,,,,,,,,,,,,,,,,,,,,,,,,,,,,,,,,,,,,,,,,,,,,,,
,,,,,,60fef59b4d85390bc0357a7d,629c51df14f378d4999ad6e7,2022-06-05_09h41.05.533,Colour_Asymmetry_Pilot,2022.1.3,Win32,59.94125757,629c4b6caf241d5e6e00bfc0,0,76,76,57,1,onethree,,,,,,,,,,,,,,,,,,,,,,,,,,,,,,,,,,,,,,,,,,,,,,,,,,,,,,,,,,,,,,,,,,,,,,,,,,,,,,,,,,,,,,,,,,,,,,,,,,,,,,,,,,,,,,,,,,,,,,,,,,,,,,,,,,,,,,,,,,,,
,,,,,,60fef59b4d85390bc0357a7d,629c51df14f378d4999ad6e7,2022-06-05_09h41.05.533,Colour_Asymmetry_Pilot,2022.1.3,Win32,59.94125757,629c4b6caf241d5e6e00bfc0,0,77,77,26,1,twoone,,,,,,,,,,,,,,,,,,,,,,,,,,,,,,,,,,,,,,,,,,,,,,,,,,,,,,,,,,,,,,,,,,,,,,,,,,,,,,,,,,,,,,,,,,,,,,,,,,,,,,,,,,,,,,,,,,,,,,,,,,,,,,,,,,,,,,,,,,,,
,,,,,,60fef59b4d85390bc0357a7d,629c51df14f378d4999ad6e7,2022-06-05_09h41.05.533,Colour_Asymmetry_Pilot,2022.1.3,Win32,59.94125757,629c4b6caf241d5e6e00bfc0,0,78,78,119,1,fourthree,,,,,,,,,,,,,,,,,,,,,,,,,,,,,,,,,,,,,,,,,,,,,,,,,,,,,,,,,,,,,,,,,,,,,,,,,,,,,,,,,,,,,,,,,,,,,,,,,,,,,,,,,,,,,,,,,,,,,,,,,,,,,,,,,,,,,,,,,,,,
,,,,,,60fef59b4d85390bc0357a7d,629c51df14f378d4999ad6e7,2022-06-05_09h41.05.533,Colour_Asymmetry_Pilot,2022.1.3,Win32,59.94125757,629c4b6caf241d5e6e00bfc0,0,79,79,114,1,twoone,,,,,,,,,,,,,,,,,,,,,,,,,,,,,,,,,,,,,,,,,,,,,,,,,,,,,,,,,,,,,,,,,,,,,,,,,,,,,,,,,,,,,,,,,,,,,,,,,,,,,,,,,,,,,,,,,,,,,,,,,,,,,,,,,,,,,,,,,,,,
,,,,,,60fef59b4d85390bc0357a7d,629c51df14f378d4999ad6e7,2022-06-05_09h41.05.533,Colour_Asymmetry_Pilot,2022.1.3,Win32,59.94125757,629c4b6caf241d5e6e00bfc0,0,80,80,48,1,onetwo,,,,,,,,,,,,,,,,,,,,,,,,,,,,,,,,,,,,,,,,,,,,,,,,,,,,,,,,,,,,,,,,,,,,,,,,,,,,,,,,,,,,,,,,,,,,,,,,,,,,,,,,,,,,,,,,,,,,,,,,,,,,,,,,,,,,,,,,,,,,
,,,,,,60fef59b4d85390bc0357a7d,629c51df14f378d4999ad6e7,2022-06-05_09h41.05.533,Colour_Asymmetry_Pilot,2022.1.3,Win32,59.94125757,629c4b6caf241d5e6e00bfc0,0,81,81,121,1,onethree,,,,,,,,,,,,,,,,,,,,,,,,,,,,,,,,,,,,,,,,,,,,,,,,,,,,,,,,,,,,,,,,,,,,,,,,,,,,,,,,,,,,,,,,,,,,,,,,,,,,,,,,,,,,,,,,,,,,,,,,,,,,,,,,,,,,,,,,,,,,
,,,,,,60fef59b4d85390bc0357a7d,629c51df14f378d4999ad6e7,2022-06-05_09h41.05.533,Colour_Asymmetry_Pilot,2022.1.3,Win32,59.94125757,629c4b6caf241d5e6e00bfc0,0,82,82,132,1,threeone,,,,,,,,,,,,,,,,,,,,,,,,,,,,,,,,,,,,,,,,,,,,,,,,,,,,,,,,,,,,,,,,,,,,,,,,,,,,,,,,,,,,,,,,,,,,,,,,,,,,,,,,,,,,,,,,,,,,,,,,,,,,,,,,,,,,,,,,,,,,
,,,,,,60fef59b4d85390bc0357a7d,629c51df14f378d4999ad6e7,2022-06-05_09h41.05.533,Colour_Asymmetry_Pilot,2022.1.3,Win32,59.94125757,629c4b6caf241d5e6e00bfc0,0,83,83,90,1,twoone,,,,,,,,,,,,,,,,,,,,,,,,,,,,,,,,,,,,,,,,,,,,,,,,,,,,,,,,,,,,,,,,,,,,,,,,,,,,,,,,,,,,,,,,,,,,,,,,,,,,,,,,,,,,,,,,,,,,,,,,,,,,,,,,,,,,,,,,,,,,
,,,,,,60fef59b4d85390bc0357a7d,629c51df14f378d4999ad6e7,2022-06-05_09h41.05.533,Colour_Asymmetry_Pilot,2022.1.3,Win32,59.94125757,629c4b6caf241d5e6e00bfc0,0,84,84,141,1,threefour,,,,,,,,,,,,,,,,,,,,,,,,,,,,,,,,,,,,,,,,,,,,,,,,,,,,,,,,,,,,,,,,,,,,,,,,,,,,,,,,,,,,,,,,,,,,,,,,,,,,,,,,,,,,,,,,,,,,,,,,,,,,,,,,,,,,,,,,,,,,
,,,,,,60fef59b4d85390bc0357a7d,629c51df14f378d4999ad6e7,2022-06-05_09h41.05.533,Colour_Asymmetry_Pilot,2022.1.3,Win32,59.94125757,629c4b6caf241d5e6e00bfc0,0,85,85,28,1,threeone,,,,,,,,,,,,,,,,,,,,,,,,,,,,,,,,,,,,,,,,,,,,,,,,,,,,,,,,,,,,,,,,,,,,,,,,,,,,,,,,,,,,,,,,,,,,,,,,,,,,,,,,,,,,,,,,,,,,,,,,,,,,,,,,,,,,,,,,,,,,
,,,,,,60fef59b4d85390bc0357a7d,629c51df14f378d4999ad6e7,2022-06-05_09h41.05.533,Colour_Asymmetry_Pilot,2022.1.3,Win32,59.94125757,629c4b6caf241d5e6e00bfc0,0,86,86,120,1,onetwo,,,,,,,,,,,,,,,,,,,,,,,,,,,,,,,,,,,,,,,,,,,,,,,,,,,,,,,,,,,,,,,,,,,,,,,,,,,,,,,,,,,,,,,,,,,,,,,,,,,,,,,,,,,,,,,,,,,,,,,,,,,,,,,,,,,,,,,,,,,,
,,,,,,60fef59b4d85390bc0357a7d,629c51df14f378d4999ad6e7,2022-06-05_09h41.05.533,Colour_Asymmetry_Pilot,2022.1.3,Win32,59.94125757,629c4b6caf241d5e6e00bfc0,0,87,87,30,1,fourtwo,,,,,,,,,,,,,,,,,,,,,,,,,,,,,,,,,,,,,,,,,,,,,,,,,,,,,,,,,,,,,,,,,,,,,,,,,,,,,,,,,,,,,,,,,,,,,,,,,,,,,,,,,,,,,,,,,,,,,,,,,,,,,,,,,,,,,,,,,,,,
,,,,,,60fef59b4d85390bc0357a7d,629c51df14f378d4999ad6e7,2022-06-05_09h41.05.533,Colour_Asymmetry_Pilot,2022.1.3,Win32,59.94125757,629c4b6caf241d5e6e00bfc0,0,88,88,68,1,threeone,,,,,,,,,,,,,,,,,,,,,,,,,,,,,,,,,,,,,,,,,,,,,,,,,,,,,,,,,,,,,,,,,,,,,,,,,,,,,,,,,,,,,,,,,,,,,,,,,,,,,,,,,,,,,,,,,,,,,,,,,,,,,,,,,,,,,,,,,,,,
,,,,,,60fef59b4d85390bc0357a7d,629c51df14f378d4999ad6e7,2022-06-05_09h41.05.533,Colour_Asymmetry_Pilot,2022.1.3,Win32,59.94125757,629c4b6caf241d5e6e00bfc0,0,89,89,50,1,twoone,,,,,,,,,,,,,,,,,,,,,,,,,,,,,,,,,,,,,,,,,,,,,,,,,,,,,,,,,,,,,,,,,,,,,,,,,,,,,,,,,,,,,,,,,,,,,,,,,,,,,,,,,,,,,,,,,,,,,,,,,,,,,,,,,,,,,,,,,,,,
,,,,,,60fef59b4d85390bc0357a7d,629c51df14f378d4999ad6e7,2022-06-05_09h41.05.533,Colour_Asymmetry_Pilot,2022.1.3,Win32,59.94125757,629c4b6caf241d5e6e00bfc0,0,90,90,153,1,onethree,,,,,,,,,,,,,,,,,,,,,,,,,,,,,,,,,,,,,,,,,,,,,,,,,,,,,,,,,,,,,,,,,,,,,,,,,,,,,,,,,,,,,,,,,,,,,,,,,,,,,,,,,,,,,,,,,,,,,,,,,,,,,,,,,,,,,,,,,,,,
,,,,,,60fef59b4d85390bc0357a7d,629c51df14f378d4999ad6e7,2022-06-05_09h41.05.533,Colour_Asymmetry_Pilot,2022.1.3,Win32,59.94125757,629c4b6caf241d5e6e00bfc0,0,91,91,3,1,twofour,,,,,,,,,,,,,,,,,,,,,,,,,,,,,,,,,,,,,,,,,,,,,,,,,,,,,,,,,,,,,,,,,,,,,,,,,,,,,,,,,,,,,,,,,,,,,,,,,,,,,,,,,,,,,,,,,,,,,,,,,,,,,,,,,,,,,,,,,,,,
,,,,,,60fef59b4d85390bc0357a7d,629c51df14f378d4999ad6e7,2022-06-05_09h41.05.533,Colour_Asymmetry_Pilot,2022.1.3,Win32,59.94125757,629c4b6caf241d5e6e00bfc0,0,92,92,138,1,twoone,,,,,,,,,,,,,,,,,,,,,,,,,,,,,,,,,,,,,,,,,,,,,,,,,,,,,,,,,,,,,,,,,,,,,,,,,,,,,,,,,,,,,,,,,,,,,,,,,,,,,,,,,,,,,,,,,,,,,,,,,,,,,,,,,,,,,,,,,,,,
,,,,,,60fef59b4d85390bc0357a7d,629c51df14f378d4999ad6e7,2022-06-05_09h41.05.533,Colour_Asymmetry_Pilot,2022.1.3,Win32,59.94125757,629c4b6caf241d5e6e00bfc0,0,93,93,117,1,threefour,,,,,,,,,,,,,,,,,,,,,,,,,,,,,,,,,,,,,,,,,,,,,,,,,,,,,,,,,,,,,,,,,,,,,,,,,,,,,,,,,,,,,,,,,,,,,,,,,,,,,,,,,,,,,,,,,,,,,,,,,,,,,,,,,,,,,,,,,,,,
,,,,,,60fef59b4d85390bc0357a7d,629c51df14f378d4999ad6e7,2022-06-05_09h41.05.533,Colour_Asymmetry_Pilot,2022.1.3,Win32,59.94125757,629c4b6caf241d5e6e00bfc0,0,94,94,71,1,fourthree,,,,,,,,,,,,,,,,,,,,,,,,,,,,,,,,,,,,,,,,,,,,,,,,,,,,,,,,,,,,,,,,,,,,,,,,,,,,,,,,,,,,,,,,,,,,,,,,,,,,,,,,,,,,,,,,,,,,,,,,,,,,,,,,,,,,,,,,,,,,
,,,,,,60fef59b4d85390bc0357a7d,629c51df14f378d4999ad6e7,2022-06-05_09h41.05.533,Colour_Asymmetry_Pilot,2022.1.3,Win32,59.94125757,629c4b6caf241d5e6e00bfc0,0,95,95,91,1,twofour,,,,,,,,,,,,,,,,,,,,,,,,,,,,,,,,,,,,,,,,,,,,,,,,,,,,,,,,,,,,,,,,,,,,,,,,,,,,,,,,,,,,,,,,,,,,,,,,,,,,,,,,,,,,,,,,,,,,,,,,,,,,,,,,,,,,,,,,,,,,
,,,,,,60fef59b4d85390bc0357a7d,629c51df14f378d4999ad6e7,2022-06-05_09h41.05.533,Colour_Asymmetry_Pilot,2022.1.3,Win32,59.94125757,629c4b6caf241d5e6e00bfc0,0,96,96,122,1,twoone,,,,,,,,,,,,,,,,,,,,,,,,,,,,,,,,,,,,,,,,,,,,,,,,,,,,,,,,,,,,,,,,,,,,,,,,,,,,,,,,,,,,,,,,,,,,,,,,,,,,,,,,,,,,,,,,,,,,,,,,,,,,,,,,,,,,,,,,,,,,
,,,,,,60fef59b4d85390bc0357a7d,629c51df14f378d4999ad6e7,2022-06-05_09h41.05.533,Colour_Asymmetry_Pilot,2022.1.3,Win32,59.94125757,629c4b6caf241d5e6e00bfc0,0,97,97,9,1,onethree,,,,,,,,,,,,,,,,,,,,,,,,,,,,,,,,,,,,,,,,,,,,,,,,,,,,,,,,,,,,,,,,,,,,,,,,,,,,,,,,,,,,,,,,,,,,,,,,,,,,,,,,,,,,,,,,,,,,,,,,,,,,,,,,,,,,,,,,,,,,
,,,,,,60fef59b4d85390bc0357a7d,629c51df14f378d4999ad6e7,2022-06-05_09h41.05.533,Colour_Asymmetry_Pilot,2022.1.3,Win32,59.94125757,629c4b6caf241d5e6e00bfc0,0,98,98,25,1,onethree,,,,,,,,,,,,,,,,,,,,,,,,,,,,,,,,,,,,,,,,,,,,,,,,,,,,,,,,,,,,,,,,,,,,,,,,,,,,,,,,,,,,,,,,,,,,,,,,,,,,,,,,,,,,,,,,,,,,,,,,,,,,,,,,,,,,,,,,,,,,
,,,,,,60fef59b4d85390bc0357a7d,629c51df14f378d4999ad6e7,2022-06-05_09h41.05.533,Colour_Asymmetry_Pilot,2022.1.3,Win32,59.94125757,629c4b6caf241d5e6e00bfc0,0,99,99,7,1,fourthree,,,,,,,,,,,,,,,,,,,,,,,,,,,,,,,,,,,,,,,,,,,,,,,,,,,,,,,,,,,,,,,,,,,,,,,,,,,,,,,,,,,,,,,,,,,,,,,,,,,,,,,,,,,,,,,,,,,,,,,,,,,,,,,,,,,,,,,,,,,,
,,,,,,60fef59b4d85390bc0357a7d,629c51df14f378d4999ad6e7,2022-06-05_09h41.05.533,Colour_Asymmetry_Pilot,2022.1.3,Win32,59.94125757,629c4b6caf241d5e6e00bfc0,0,100,100,136,1,onetwo,,,,,,,,,,,,,,,,,,,,,,,,,,,,,,,,,,,,,,,,,,,,,,,,,,,,,,,,,,,,,,,,,,,,,,,,,,,,,,,,,,,,,,,,,,,,,,,,,,,,,,,,,,,,,,,,,,,,,,,,,,,,,,,,,,,,,,,,,,,,
,,,,,,60fef59b4d85390bc0357a7d,629c51df14f378d4999ad6e7,2022-06-05_09h41.05.533,Colour_Asymmetry_Pilot,2022.1.3,Win32,59.94125757,629c4b6caf241d5e6e00bfc0,0,101,101,78,1,fourtwo,,,,,,,,,,,,,,,,,,,,,,,,,,,,,,,,,,,,,,,,,,,,,,,,,,,,,,,,,,,,,,,,,,,,,,,,,,,,,,,,,,,,,,,,,,,,,,,,,,,,,,,,,,,,,,,,,,,,,,,,,,,,,,,,,,,,,,,,,,,,
,,,,,,60fef59b4d85390bc0357a7d,629c51df14f378d4999ad6e7,2022-06-05_09h41.05.533,Colour_Asymmetry_Pilot,2022.1.3,Win32,59.94125757,629c4b6caf241d5e6e00bfc0,0,102,102,95,1,fourthree,,,,,,,,,,,,,,,,,,,,,,,,,,,,,,,,,,,,,,,,,,,,,,,,,,,,,,,,,,,,,,,,,,,,,,,,,,,,,,,,,,,,,,,,,,,,,,,,,,,,,,,,,,,,,,,,,,,,,,,,,,,,,,,,,,,,,,,,,,,,
,,,,,,60fef59b4d85390bc0357a7d,629c51df14f378d4999ad6e7,2022-06-05_09h41.05.533,Colour_Asymmetry_Pilot,2022.1.3,Win32,59.94125757,629c4b6caf241d5e6e00bfc0,0,103,103,151,1,fourthree,,,,,,,,,,,,,,,,,,,,,,,,,,,,,,,,,,,,,,,,,,,,,,,,,,,,,,,,,,,,,,,,,,,,,,,,,,,,,,,,,,,,,,,,,,,,,,,,,,,,,,,,,,,,,,,,,,,,,,,,,,,,,,,,,,,,,,,,,,,,
,,,,,,60fef59b4d85390bc0357a7d,629c51df14f378d4999ad6e7,2022-06-05_09h41.05.533,Colour_Asymmetry_Pilot,2022.1.3,Win32,59.94125757,629c4b6caf241d5e6e00bfc0,0,104,104,157,1,threefour,,,,,,,,,,,,,,,,,,,,,,,,,,,,,,,,,,,,,,,,,,,,,,,,,,,,,,,,,,,,,,,,,,,,,,,,,,,,,,,,,,,,,,,,,,,,,,,,,,,,,,,,,,,,,,,,,,,,,,,,,,,,,,,,,,,,,,,,,,,,
,,,,,,60fef59b4d85390bc0357a7d,629c51df14f378d4999ad6e7,2022-06-05_09h41.05.533,Colour_Asymmetry_Pilot,2022.1.3,Win32,59.94125757,629c4b6caf241d5e6e00bfc0,0,105,105,158,1,fourtwo,,,,,,,,,,,,,,,,,,,,,,,,,,,,,,,,,,,,,,,,,,,,,,,,,,,,,,,,,,,,,,,,,,,,,,,,,,,,,,,,,,,,,,,,,,,,,,,,,,,,,,,,,,,,,,,,,,,,,,,,,,,,,,,,,,,,,,,,,,,,
,,,,,,60fef59b4d85390bc0357a7d,629c51df14f378d4999ad6e7,2022-06-05_09h41.05.533,Colour_Asymmetry_Pilot,2022.1.3,Win32,59.94125757,629c4b6caf241d5e6e00bfc0,0,106,106,115,1,twofour,,,,,,,,,,,,,,,,,,,,,,,,,,,,,,,,,,,,,,,,,,,,,,,,,,,,,,,,,,,,,,,,,,,,,,,,,,,,,,,,,,,,,,,,,,,,,,,,,,,,,,,,,,,,,,,,,,,,,,,,,,,,,,,,,,,,,,,,,,,,
,,,,,,60fef59b4d85390bc0357a7d,629c51df14f378d4999ad6e7,2022-06-05_09h41.05.533,Colour_Asymmetry_Pilot,2022.1.3,Win32,59.94125757,629c4b6caf241d5e6e00bfc0,0,107,107,98,1,twoone,,,,,,,,,,,,,,,,,,,,,,,,,,,,,,,,,,,,,,,,,,,,,,,,,,,,,,,,,,,,,,,,,,,,,,,,,,,,,,,,,,,,,,,,,,,,,,,,,,,,,,,,,,,,,,,,,,,,,,,,,,,,,,,,,,,,,,,,,,,,
,,,,,,60fef59b4d85390bc0357a7d,629c51df14f378d4999ad6e7,2022-06-05_09h41.05.533,Colour_Asymmetry_Pilot,2022.1.3,Win32,59.94125757,629c4b6caf241d5e6e00bfc0,0,108,108,127,1,fourthree,,,,,,,,,,,,,,,,,,,,,,,,,,,,,,,,,,,,,,,,,,,,,,,,,,,,,,,,,,,,,,,,,,,,,,,,,,,,,,,,,,,,,,,,,,,,,,,,,,,,,,,,,,,,,,,,,,,,,,,,,,,,,,,,,,,,,,,,,,,,
,,,,,,60fef59b4d85390bc0357a7d,629c51df14f378d4999ad6e7,2022-06-05_09h41.05.533,Colour_Asymmetry_Pilot,2022.1.3,Win32,59.94125757,629c4b6caf241d5e6e00bfc0,0,109,109,79,1,fourthree,,,,,,,,,,,,,,,,,,,,,,,,,,,,,,,,,,,,,,,,,,,,,,,,,,,,,,,,,,,,,,,,,,,,,,,,,,,,,,,,,,,,,,,,,,,,,,,,,,,,,,,,,,,,,,,,,,,,,,,,,,,,,,,,,,,,,,,,,,,,
,,,,,,60fef59b4d85390bc0357a7d,629c51df14f378d4999ad6e7,2022-06-05_09h41.05.533,Colour_Asymmetry_Pilot,2022.1.3,Win32,59.94125757,629c4b6caf241d5e6e00bfc0,0,110,110,39,1,fourthree,,,,,,,,,,,,,,,,,,,,,,,,,,,,,,,,,,,,,,,,,,,,,,,,,,,,,,,,,,,,,,,,,,,,,,,,,,,,,,,,,,,,,,,,,,,,,,,,,,,,,,,,,,,,,,,,,,,,,,,,,,,,,,,,,,,,,,,,,,,,
,,,,,,60fef59b4d85390bc0357a7d,629c51df14f378d4999ad6e7,2022-06-05_09h41.05.533,Colour_Asymmetry_Pilot,2022.1.3,Win32,59.94125757,629c4b6caf241d5e6e00bfc0,0,111,111,72,1,onetwo,,,,,,,,,,,,,,,,,,,,,,,,,,,,,,,,,,,,,,,,,,,,,,,,,,,,,,,,,,,,,,,,,,,,,,,,,,,,,,,,,,,,,,,,,,,,,,,,,,,,,,,,,,,,,,,,,,,,,,,,,,,,,,,,,,,,,,,,,,,,
,,,,,,60fef59b4d85390bc0357a7d,629c51df14f378d4999ad6e7,2022-06-05_09h41.05.533,Colour_Asymmetry_Pilot,2022.1.3,Win32,59.94125757,629c4b6caf241d5e6e00bfc0,0,112,112,11,1,twofour,,,,,,,,,,,,,,,,,,,,,,,,,,,,,,,,,,,,,,,,,,,,,,,,,,,,,,,,,,,,,,,,,,,,,,,,,,,,,,,,,,,,,,,,,,,,,,,,,,,,,,,,,,,,,,,,,,,,,,,,,,,,,,,,,,,,,,,,,,,,
,,,,,,60fef59b4d85390bc0357a7d,629c51df14f378d4999ad6e7,2022-06-05_09h41.05.533,Colour_Asymmetry_Pilot,2022.1.3,Win32,59.94125757,629c4b6caf241d5e6e00bfc0,0,113,113,129,1,onethree,,,,,,,,,,,,,,,,,,,,,,,,,,,,,,,,,,,,,,,,,,,,,,,,,,,,,,,,,,,,,,,,,,,,,,,,,,,,,,,,,,,,,,,,,,,,,,,,,,,,,,,,,,,,,,,,,,,,,,,,,,,,,,,,,,,,,,,,,,,,
,,,,,,60fef59b4d85390bc0357a7d,629c51df14f378d4999ad6e7,2022-06-05_09h41.05.533,Colour_Asymmetry_Pilot,2022.1.3,Win32,59.94125757,629c4b6caf241d5e6e00bfc0,0,114,114,86,1,fourtwo,,,,,,,,,,,,,,,,,,,,,,,,,,,,,,,,,,,,,,,,,,,,,,,,,,,,,,,,,,,,,,,,,,,,,,,,,,,,,,,,,,,,,,,,,,,,,,,,,,,,,,,,,,,,,,,,,,,,,,,,,,,,,,,,,,,,,,,,,,,,
,,,,,,60fef59b4d85390bc0357a7d,629c51df14f378d4999ad6e7,2022-06-05_09h41.05.533,Colour_Asymmetry_Pilot,2022.1.3,Win32,59.94125757,629c4b6caf241d5e6e00bfc0,0,115,115,80,1,onetwo,,,,,,,,,,,,,,,,,,,,,,,,,,,,,,,,,,,,,,,,,,,,,,,,,,,,,,,,,,,,,,,,,,,,,,,,,,,,,,,,,,,,,,,,,,,,,,,,,,,,,,,,,,,,,,,,,,,,,,,,,,,,,,,,,,,,,,,,,,,,
,,,,,,60fef59b4d85390bc0357a7d,629c51df14f378d4999ad6e7,2022-06-05_09h41.05.533,Colour_Asymmetry_Pilot,2022.1.3,Win32,59.94125757,629c4b6caf241d5e6e00bfc0,0,116,116,24,1,onetwo,,,,,,,,,,,,,,,,,,,,,,,,,,,,,,,,,,,,,,,,,,,,,,,,,,,,,,,,,,,,,,,,,,,,,,,,,,,,,,,,,,,,,,,,,,,,,,,,,,,,,,,,,,,,,,,,,,,,,,,,,,,,,,,,,,,,,,,,,,,,
,,,,,,60fef59b4d85390bc0357a7d,629c51df14f378d4999ad6e7,2022-06-05_09h41.05.533,Colour_Asymmetry_Pilot,2022.1.3,Win32,59.94125757,629c4b6caf241d5e6e00bfc0,0,117,117,38,1,fourtwo,,,,,,,,,,,,,,,,,,,,,,,,,,,,,,,,,,,,,,,,,,,,,,,,,,,,,,,,,,,,,,,,,,,,,,,,,,,,,,,,,,,,,,,,,,,,,,,,,,,,,,,,,,,,,,,,,,,,,,,,,,,,,,,,,,,,,,,,,,,,
,,,,,,60fef59b4d85390bc0357a7d,629c51df14f378d4999ad6e7,2022-06-05_09h41.05.533,Colour_Asymmetry_Pilot,2022.1.3,Win32,59.94125757,629c4b6caf241d5e6e00bfc0,0,118,118,83,1,twofour,,,,,,,,,,,,,,,,,,,,,,,,,,,,,,,,,,,,,,,,,,,,,,,,,,,,,,,,,,,,,,,,,,,,,,,,,,,,,,,,,,,,,,,,,,,,,,,,,,,,,,,,,,,,,,,,,,,,,,,,,,,,,,,,,,,,,,,,,,,,
,,,,,,60fef59b4d85390bc0357a7d,629c51df14f378d4999ad6e7,2022-06-05_09h41.05.533,Colour_Asymmetry_Pilot,2022.1.3,Win32,59.94125757,629c4b6caf241d5e6e00bfc0,0,119,119,73,1,onethree,,,,,,,,,,,,,,,,,,,,,,,,,,,,,,,,,,,,,,,,,,,,,,,,,,,,,,,,,,,,,,,,,,,,,,,,,,,,,,,,,,,,,,,,,,,,,,,,,,,,,,,,,,,,,,,,,,,,,,,,,,,,,,,,,,,,,,,,,,,,
,,,,,,60fef59b4d85390bc0357a7d,629c51df14f378d4999ad6e7,2022-06-05_09h41.05.533,Colour_Asymmetry_Pilot,2022.1.3,Win32,59.94125757,629c4b6caf241d5e6e00bfc0,0,120,120,100,1,threeone,,,,,,,,,,,,,,,,,,,,,,,,,,,,,,,,,,,,,,,,,,,,,,,,,,,,,,,,,,,,,,,,,,,,,,,,,,,,,,,,,,,,,,,,,,,,,,,,,,,,,,,,,,,,,,,,,,,,,,,,,,,,,,,,,,,,,,,,,,,,
,,,,,,60fef59b4d85390bc0357a7d,629c51df14f378d4999ad6e7,2022-06-05_09h41.05.533,Colour_Asymmetry_Pilot,2022.1.3,Win32,59.94125757,629c4b6caf241d5e6e00bfc0,0,121,121,35,1,twofour,,,,,,,,,,,,,,,,,,,,,,,,,,,,,,,,,,,,,,,,,,,,,,,,,,,,,,,,,,,,,,,,,,,,,,,,,,,,,,,,,,,,,,,,,,,,,,,,,,,,,,,,,,,,,,,,,,,,,,,,,,,,,,,,,,,,,,,,,,,,
,,,,,,60fef59b4d85390bc0357a7d,629c51df14f378d4999ad6e7,2022-06-05_09h41.05.533,Colour_Asymmetry_Pilot,2022.1.3,Win32,59.94125757,629c4b6caf241d5e6e00bfc0,0,122,122,89,1,onethree,,,,,,,,,,,,,,,,,,,,,,,,,,,,,,,,,,,,,,,,,,,,,,,,,,,,,,,,,,,,,,,,,,,,,,,,,,,,,,,,,,,,,,,,,,,,,,,,,,,,,,,,,,,,,,,,,,,,,,,,,,,,,,,,,,,,,,,,,,,,
,,,,,,60fef59b4d85390bc0357a7d,629c51df14f378d4999ad6e7,2022-06-05_09h41.05.533,Colour_Asymmetry_Pilot,2022.1.3,Win32,59.94125757,629c4b6caf241d5e6e00bfc0,0,123,123,2,1,twoone,,,,,,,,,,,,,,,,,,,,,,,,,,,,,,,,,,,,,,,,,,,,,,,,,,,,,,,,,,,,,,,,,,,,,,,,,,,,,,,,,,,,,,,,,,,,,,,,,,,,,,,,,,,,,,,,,,,,,,,,,,,,,,,,,,,,,,,,,,,,
,,,,,,60fef59b4d85390bc0357a7d,629c51df14f378d4999ad6e7,2022-06-05_09h41.05.533,Colour_Asymmetry_Pilot,2022.1.3,Win32,59.94125757,629c4b6caf241d5e6e00bfc0,0,124,124,40,1,onetwo,,,,,,,,,,,,,,,,,,,,,,,,,,,,,,,,,,,,,,,,,,,,,,,,,,,,,,,,,,,,,,,,,,,,,,,,,,,,,,,,,,,,,,,,,,,,,,,,,,,,,,,,,,,,,,,,,,,,,,,,,,,,,,,,,,,,,,,,,,,,
,,,,,,60fef59b4d85390bc0357a7d,629c51df14f378d4999ad6e7,2022-06-05_09h41.05.533,Colour_Asymmetry_Pilot,2022.1.3,Win32,59.94125757,629c4b6caf241d5e6e00bfc0,0,125,125,46,1,fourtwo,,,,,,,,,,,,,,,,,,,,,,,,,,,,,,,,,,,,,,,,,,,,,,,,,,,,,,,,,,,,,,,,,,,,,,,,,,,,,,,,,,,,,,,,,,,,,,,,,,,,,,,,,,,,,,,,,,,,,,,,,,,,,,,,,,,,,,,,,,,,
,,,,,,60fef59b4d85390bc0357a7d,629c51df14f378d4999ad6e7,2022-06-05_09h41.05.533,Colour_Asymmetry_Pilot,2022.1.3,Win32,59.94125757,629c4b6caf241d5e6e00bfc0,0,126,126,137,1,onethree,,,,,,,,,,,,,,,,,,,,,,,,,,,,,,,,,,,,,,,,,,,,,,,,,,,,,,,,,,,,,,,,,,,,,,,,,,,,,,,,,,,,,,,,,,,,,,,,,,,,,,,,,,,,,,,,,,,,,,,,,,,,,,,,,,,,,,,,,,,,
,,,,,,60fef59b4d85390bc0357a7d,629c51df14f378d4999ad6e7,2022-06-05_09h41.05.533,Colour_Asymmetry_Pilot,2022.1.3,Win32,59.94125757,629c4b6caf241d5e6e00bfc0,0,127,127,148,1,threeone,,,,,,,,,,,,,,,,,,,,,,,,,,,,,,,,,,,,,,,,,,,,,,,,,,,,,,,,,,,,,,,,,,,,,,,,,,,,,,,,,,,,,,,,,,,,,,,,,,,,,,,,,,,,,,,,,,,,,,,,,,,,,,,,,,,,,,,,,,,,
,,,,,,60fef59b4d85390bc0357a7d,629c51df14f378d4999ad6e7,2022-06-05_09h41.05.533,Colour_Asymmetry_Pilot,2022.1.3,Win32,59.94125757,629c4b6caf241d5e6e00bfc0,0,128,128,140,1,threeone,,,,,,,,,,,,,,,,,,,,,,,,,,,,,,,,,,,,,,,,,,,,,,,,,,,,,,,,,,,,,,,,,,,,,,,,,,,,,,,,,,,,,,,,,,,,,,,,,,,,,,,,,,,,,,,,,,,,,,,,,,,,,,,,,,,,,,,,,,,,
,,,,,,60fef59b4d85390bc0357a7d,629c51df14f378d4999ad6e7,2022-06-05_09h41.05.533,Colour_Asymmetry_Pilot,2022.1.3,Win32,59.94125757,629c4b6caf241d5e6e00bfc0,0,129,129,103,1,fourthree,,,,,,,,,,,,,,,,,,,,,,,,,,,,,,,,,,,,,,,,,,,,,,,,,,,,,,,,,,,,,,,,,,,,,,,,,,,,,,,,,,,,,,,,,,,,,,,,,,,,,,,,,,,,,,,,,,,,,,,,,,,,,,,,,,,,,,,,,,,,
,,,,,,60fef59b4d85390bc0357a7d,629c51df14f378d4999ad6e7,2022-06-05_09h41.05.533,Colour_Asymmetry_Pilot,2022.1.3,Win32,59.94125757,629c4b6caf241d5e6e00bfc0,0,130,130,107,1,twofour,,,,,,,,,,,,,,,,,,,,,,,,,,,,,,,,,,,,,,,,,,,,,,,,,,,,,,,,,,,,,,,,,,,,,,,,,,,,,,,,,,,,,,,,,,,,,,,,,,,,,,,,,,,,,,,,,,,,,,,,,,,,,,,,,,,,,,,,,,,,
,,,,,,60fef59b4d85390bc0357a7d,629c51df14f378d4999ad6e7,2022-06-05_09h41.05.533,Colour_Asymmetry_Pilot,2022.1.3,Win32,59.94125757,629c4b6caf241d5e6e00bfc0,0,131,131,14,1,fourtwo,,,,,,,,,,,,,,,,,,,,,,,,,,,,,,,,,,,,,,,,,,,,,,,,,,,,,,,,,,,,,,,,,,,,,,,,,,,,,,,,,,,,,,,,,,,,,,,,,,,,,,,,,,,,,,,,,,,,,,,,,,,,,,,,,,,,,,,,,,,,
,,,,,,60fef59b4d85390bc0357a7d,629c51df14f378d4999ad6e7,2022-06-05_09h41.05.533,Colour_Asymmetry_Pilot,2022.1.3,Win32,59.94125757,629c4b6caf241d5e6e00bfc0,0,132,132,144,1,onetwo,,,,,,,,,,,,,,,,,,,,,,,,,,,,,,,,,,,,,,,,,,,,,,,,,,,,,,,,,,,,,,,,,,,,,,,,,,,,,,,,,,,,,,,,,,,,,,,,,,,,,,,,,,,,,,,,,,,,,,,,,,,,,,,,,,,,,,,,,,,,
,,,,,,60fef59b4d85390bc0357a7d,629c51df14f378d4999ad6e7,2022-06-05_09h41.05.533,Colour_Asymmetry_Pilot,2022.1.3,Win32,59.94125757,629c4b6caf241d5e6e00bfc0,0,133,133,75,1,twofour,,,,,,,,,,,,,,,,,,,,,,,,,,,,,,,,,,,,,,,,,,,,,,,,,,,,,,,,,,,,,,,,,,,,,,,,,,,,,,,,,,,,,,,,,,,,,,,,,,,,,,,,,,,,,,,,,,,,,,,,,,,,,,,,,,,,,,,,,,,,
,,,,,,60fef59b4d85390bc0357a7d,629c51df14f378d4999ad6e7,2022-06-05_09h41.05.533,Colour_Asymmetry_Pilot,2022.1.3,Win32,59.94125757,629c4b6caf241d5e6e00bfc0,0,134,134,69,1,threefour,,,,,,,,,,,,,,,,,,,,,,,,,,,,,,,,,,,,,,,,,,,,,,,,,,,,,,,,,,,,,,,,,,,,,,,,,,,,,,,,,,,,,,,,,,,,,,,,,,,,,,,,,,,,,,,,,,,,,,,,,,,,,,,,,,,,,,,,,,,,
,,,,,,60fef59b4d85390bc0357a7d,629c51df14f378d4999ad6e7,2022-06-05_09h41.05.533,Colour_Asymmetry_Pilot,2022.1.3,Win32,59.94125757,629c4b6caf241d5e6e00bfc0,0,135,135,20,1,threeone,,,,,,,,,,,,,,,,,,,,,,,,,,,,,,,,,,,,,,,,,,,,,,,,,,,,,,,,,,,,,,,,,,,,,,,,,,,,,,,,,,,,,,,,,,,,,,,,,,,,,,,,,,,,,,,,,,,,,,,,,,,,,,,,,,,,,,,,,,,,
,,,,,,60fef59b4d85390bc0357a7d,629c51df14f378d4999ad6e7,2022-06-05_09h41.05.533,Colour_Asymmetry_Pilot,2022.1.3,Win32,59.94125757,629c4b6caf241d5e6e00bfc0,0,136,136,34,1,twoone,,,,,,,,,,,,,,,,,,,,,,,,,,,,,,,,,,,,,,,,,,,,,,,,,,,,,,,,,,,,,,,,,,,,,,,,,,,,,,,,,,,,,,,,,,,,,,,,,,,,,,,,,,,,,,,,,,,,,,,,,,,,,,,,,,,,,,,,,,,,
,,,,,,60fef59b4d85390bc0357a7d,629c51df14f378d4999ad6e7,2022-06-05_09h41.05.533,Colour_Asymmetry_Pilot,2022.1.3,Win32,59.94125757,629c4b6caf241d5e6e00bfc0,0,137,137,150,1,fourtwo,,,,,,,,,,,,,,,,,,,,,,,,,,,,,,,,,,,,,,,,,,,,,,,,,,,,,,,,,,,,,,,,,,,,,,,,,,,,,,,,,,,,,,,,,,,,,,,,,,,,,,,,,,,,,,,,,,,,,,,,,,,,,,,,,,,,,,,,,,,,
,,,,,,60fef59b4d85390bc0357a7d,629c51df14f378d4999ad6e7,2022-06-05_09h41.05.533,Colour_Asymmetry_Pilot,2022.1.3,Win32,59.94125757,629c4b6caf241d5e6e00bfc0,0,138,138,32,1,onetwo,,,,,,,,,,,,,,,,,,,,,,,,,,,,,,,,,,,,,,,,,,,,,,,,,,,,,,,,,,,,,,,,,,,,,,,,,,,,,,,,,,,,,,,,,,,,,,,,,,,,,,,,,,,,,,,,,,,,,,,,,,,,,,,,,,,,,,,,,,,,
,,,,,,60fef59b4d85390bc0357a7d,629c51df14f378d4999ad6e7,2022-06-05_09h41.05.533,Colour_Asymmetry_Pilot,2022.1.3,Win32,59.94125757,629c4b6caf241d5e6e00bfc0,0,139,139,76,1,threeone,,,,,,,,,,,,,,,,,,,,,,,,,,,,,,,,,,,,,,,,,,,,,,,,,,,,,,,,,,,,,,,,,,,,,,,,,,,,,,,,,,,,,,,,,,,,,,,,,,,,,,,,,,,,,,,,,,,,,,,,,,,,,,,,,,,,,,,,,,,,
,,,,,,60fef59b4d85390bc0357a7d,629c51df14f378d4999ad6e7,2022-06-05_09h41.05.533,Colour_Asymmetry_Pilot,2022.1.3,Win32,59.94125757,629c4b6caf241d5e6e00bfc0,0,140,140,93,1,threefour,,,,,,,,,,,,,,,,,,,,,,,,,,,,,,,,,,,,,,,,,,,,,,,,,,,,,,,,,,,,,,,,,,,,,,,,,,,,,,,,,,,,,,,,,,,,,,,,,,,,,,,,,,,,,,,,,,,,,,,,,,,,,,,,,,,,,,,,,,,,
,,,,,,60fef59b4d85390bc0357a7d,629c51df14f378d4999ad6e7,2022-06-05_09h41.05.533,Colour_Asymmetry_Pilot,2022.1.3,Win32,59.94125757,629c4b6caf241d5e6e00bfc0,0,141,141,18,1,twoone,,,,,,,,,,,,,,,,,,,,,,,,,,,,,,,,,,,,,,,,,,,,,,,,,,,,,,,,,,,,,,,,,,,,,,,,,,,,,,,,,,,,,,,,,,,,,,,,,,,,,,,,,,,,,,,,,,,,,,,,,,,,,,,,,,,,,,,,,,,,
,,,,,,60fef59b4d85390bc0357a7d,629c51df14f378d4999ad6e7,2022-06-05_09h41.05.533,Colour_Asymmetry_Pilot,2022.1.3,Win32,59.94125757,629c4b6caf241d5e6e00bfc0,0,142,142,74,1,twoone,,,,,,,,,,,,,,,,,,,,,,,,,,,,,,,,,,,,,,,,,,,,,,,,,,,,,,,,,,,,,,,,,,,,,,,,,,,,,,,,,,,,,,,,,,,,,,,,,,,,,,,,,,,,,,,,,,,,,,,,,,,,,,,,,,,,,,,,,,,,
,,,,,,60fef59b4d85390bc0357a7d,629c51df14f378d4999ad6e7,2022-06-05_09h41.05.533,Colour_Asymmetry_Pilot,2022.1.3,Win32,59.94125757,629c4b6caf241d5e6e00bfc0,0,143,143,12,1,threeone,,,,,,,,,,,,,,,,,,,,,,,,,,,,,,,,,,,,,,,,,,,,,,,,,,,,,,,,,,,,,,,,,,,,,,,,,,,,,,,,,,,,,,,,,,,,,,,,,,,,,,,,,,,,,,,,,,,,,,,,,,,,,,,,,,,,,,,,,,,,
,,,,,,60fef59b4d85390bc0357a7d,629c51df14f378d4999ad6e7,2022-06-05_09h41.05.533,Colour_Asymmetry_Pilot,2022.1.3,Win32,59.94125757,629c4b6caf241d5e6e00bfc0,0,144,144,81,1,onethree,,,,,,,,,,,,,,,,,,,,,,,,,,,,,,,,,,,,,,,,,,,,,,,,,,,,,,,,,,,,,,,,,,,,,,,,,,,,,,,,,,,,,,,,,,,,,,,,,,,,,,,,,,,,,,,,,,,,,,,,,,,,,,,,,,,,,,,,,,,,
,,,,,,60fef59b4d85390bc0357a7d,629c51df14f378d4999ad6e7,2022-06-05_09h41.05.533,Colour_Asymmetry_Pilot,2022.1.3,Win32,59.94125757,629c4b6caf241d5e6e00bfc0,0,145,145,94,1,fourtwo,,,,,,,,,,,,,,,,,,,,,,,,,,,,,,,,,,,,,,,,,,,,,,,,,,,,,,,,,,,,,,,,,,,,,,,,,,,,,,,,,,,,,,,,,,,,,,,,,,,,,,,,,,,,,,,,,,,,,,,,,,,,,,,,,,,,,,,,,,,,
,,,,,,60fef59b4d85390bc0357a7d,629c51df14f378d4999ad6e7,2022-06-05_09h41.05.533,Colour_Asymmetry_Pilot,2022.1.3,Win32,59.94125757,629c4b6caf241d5e6e00bfc0,0,146,146,60,1,threeone,,,,,,,,,,,,,,,,,,,,,,,,,,,,,,,,,,,,,,,,,,,,,,,,,,,,,,,,,,,,,,,,,,,,,,,,,,,,,,,,,,,,,,,,,,,,,,,,,,,,,,,,,,,,,,,,,,,,,,,,,,,,,,,,,,,,,,,,,,,,
,,,,,,60fef59b4d85390bc0357a7d,629c51df14f378d4999ad6e7,2022-06-05_09h41.05.533,Colour_Asymmetry_Pilot,2022.1.3,Win32,59.94125757,629c4b6caf241d5e6e00bfc0,0,147,147,33,1,onethree,,,,,,,,,,,,,,,,,,,,,,,,,,,,,,,,,,,,,,,,,,,,,,,,,,,,,,,,,,,,,,,,,,,,,,,,,,,,,,,,,,,,,,,,,,,,,,,,,,,,,,,,,,,,,,,,,,,,,,,,,,,,,,,,,,,,,,,,,,,,
,,,,,,60fef59b4d85390bc0357a7d,629c51df14f378d4999ad6e7,2022-06-05_09h41.05.533,Colour_Asymmetry_Pilot,2022.1.3,Win32,59.94125757,629c4b6caf241d5e6e00bfc0,0,148,148,43,1,twofour,,,,,,,,,,,,,,,,,,,,,,,,,,,,,,,,,,,,,,,,,,,,,,,,,,,,,,,,,,,,,,,,,,,,,,,,,,,,,,,,,,,,,,,,,,,,,,,,,,,,,,,,,,,,,,,,,,,,,,,,,,,,,,,,,,,,,,,,,,,,
,,,,,,60fef59b4d85390bc0357a7d,629c51df14f378d4999ad6e7,2022-06-05_09h41.05.533,Colour_Asymmetry_Pilot,2022.1.3,Win32,59.94125757,629c4b6caf241d5e6e00bfc0,0,149,149,10,1,twoone,,,,,,,,,,,,,,,,,,,,,,,,,,,,,,,,,,,,,,,,,,,,,,,,,,,,,,,,,,,,,,,,,,,,,,,,,,,,,,,,,,,,,,,,,,,,,,,,,,,,,,,,,,,,,,,,,,,,,,,,,,,,,,,,,,,,,,,,,,,,
,,,,,,60fef59b4d85390bc0357a7d,629c51df14f378d4999ad6e7,2022-06-05_09h41.05.533,Colour_Asymmetry_Pilot,2022.1.3,Win32,59.94125757,629c4b6caf241d5e6e00bfc0,0,150,150,45,1,threefour,,,,,,,,,,,,,,,,,,,,,,,,,,,,,,,,,,,,,,,,,,,,,,,,,,,,,,,,,,,,,,,,,,,,,,,,,,,,,,,,,,,,,,,,,,,,,,,,,,,,,,,,,,,,,,,,,,,,,,,,,,,,,,,,,,,,,,,,,,,,
,,,,,,60fef59b4d85390bc0357a7d,629c51df14f378d4999ad6e7,2022-06-05_09h41.05.533,Colour_Asymmetry_Pilot,2022.1.3,Win32,59.94125757,629c4b6caf241d5e6e00bfc0,0,151,151,113,1,onethree,,,,,,,,,,,,,,,,,,,,,,,,,,,,,,,,,,,,,,,,,,,,,,,,,,,,,,,,,,,,,,,,,,,,,,,,,,,,,,,,,,,,,,,,,,,,,,,,,,,,,,,,,,,,,,,,,,,,,,,,,,,,,,,,,,,,,,,,,,,,
,,,,,,60fef59b4d85390bc0357a7d,629c51df14f378d4999ad6e7,2022-06-05_09h41.05.533,Colour_Asymmetry_Pilot,2022.1.3,Win32,59.94125757,629c4b6caf241d5e6e00bfc0,0,152,152,118,1,fourtwo,,,,,,,,,,,,,,,,,,,,,,,,,,,,,,,,,,,,,,,,,,,,,,,,,,,,,,,,,,,,,,,,,,,,,,,,,,,,,,,,,,,,,,,,,,,,,,,,,,,,,,,,,,,,,,,,,,,,,,,,,,,,,,,,,,,,,,,,,,,,
,,,,,,60fef59b4d85390bc0357a7d,629c51df14f378d4999ad6e7,2022-06-05_09h41.05.533,Colour_Asymmetry_Pilot,2022.1.3,Win32,59.94125757,629c4b6caf241d5e6e00bfc0,0,153,153,161,1,onethree,,,,,,,,,,,,,,,,,,,,,,,,,,,,,,,,,,,,,,,,,,,,,,,,,,,,,,,,,,,,,,,,,,,,,,,,,,,,,,,,,,,,,,,,,,,,,,,,,,,,,,,,,,,,,,,,,,,,,,,,,,,,,,,,,,,,,,,,,,,,
,,,,,,60fef59b4d85390bc0357a7d,629c51df14f378d4999ad6e7,2022-06-05_09h41.05.533,Colour_Asymmetry_Pilot,2022.1.3,Win32,59.94125757,629c4b6caf241d5e6e00bfc0,0,154,154,155,1,twofour,,,,,,,,,,,,,,,,,,,,,,,,,,,,,,,,,,,,,,,,,,,,,,,,,,,,,,,,,,,,,,,,,,,,,,,,,,,,,,,,,,,,,,,,,,,,,,,,,,,,,,,,,,,,,,,,,,,,,,,,,,,,,,,,,,,,,,,,,,,,
,,,,,,60fef59b4d85390bc0357a7d,629c51df14f378d4999ad6e7,2022-06-05_09h41.05.533,Colour_Asymmetry_Pilot,2022.1.3,Win32,59.94125757,629c4b6caf241d5e6e00bfc0,0,155,155,77,1,threefour,,,,,,,,,,,,,,,,,,,,,,,,,,,,,,,,,,,,,,,,,,,,,,,,,,,,,,,,,,,,,,,,,,,,,,,,,,,,,,,,,,,,,,,,,,,,,,,,,,,,,,,,,,,,,,,,,,,,,,,,,,,,,,,,,,,,,,,,,,,,
,,,,,,60fef59b4d85390bc0357a7d,629c51df14f378d4999ad6e7,2022-06-05_09h41.05.533,Colour_Asymmetry_Pilot,2022.1.3,Win32,59.94125757,629c4b6caf241d5e6e00bfc0,0,156,156,13,1,threefour,,,,,,,,,,,,,,,,,,,,,,,,,,,,,,,,,,,,,,,,,,,,,,,,,,,,,,,,,,,,,,,,,,,,,,,,,,,,,,,,,,,,,,,,,,,,,,,,,,,,,,,,,,,,,,,,,,,,,,,,,,,,,,,,,,,,,,,,,,,,
,,,,,,60fef59b4d85390bc0357a7d,629c51df14f378d4999ad6e7,2022-06-05_09h41.05.533,Colour_Asymmetry_Pilot,2022.1.3,Win32,59.94125757,629c4b6caf241d5e6e00bfc0,0,157,157,61,1,threefour,,,,,,,,,,,,,,,,,,,,,,,,,,,,,,,,,,,,,,,,,,,,,,,,,,,,,,,,,,,,,,,,,,,,,,,,,,,,,,,,,,,,,,,,,,,,,,,,,,,,,,,,,,,,,,,,,,,,,,,,,,,,,,,,,,,,,,,,,,,,
,,,,,,60fef59b4d85390bc0357a7d,629c51df14f378d4999ad6e7,2022-06-05_09h41.05.533,Colour_Asymmetry_Pilot,2022.1.3,Win32,59.94125757,629c4b6caf241d5e6e00bfc0,0,158,158,116,1,threeone,,,,,,,,,,,,,,,,,,,,,,,,,,,,,,,,,,,,,,,,,,,,,,,,,,,,,,,,,,,,,,,,,,,,,,,,,,,,,,,,,,,,,,,,,,,,,,,,,,,,,,,,,,,,,,,,,,,,,,,,,,,,,,,,,,,,,,,,,,,,
,,,,,,60fef59b4d85390bc0357a7d,629c51df14f378d4999ad6e7,2022-06-05_09h41.05.533,Colour_Asymmetry_Pilot,2022.1.3,Win32,59.94125757,629c4b6caf241d5e6e00bfc0,0,159,159,67,1,twofour,,,,,,,,,,,,,,,,,,,,,,,,,,,,,,,,,,,,,,,,,,,,,,,,,,,,,,,,,,,,,,,,,,,,,,,,,,,,,,,,,,,,,,,,,,,,,,,,,,,,,,,,,,,,,,,,,,,,,,,,,,,,,,,,,,,,,,,,,,,,
,,,,,,60fef59b4d85390bc0357a7d,629c51df14f378d4999ad6e7,2022-06-05_09h41.05.533,Colour_Asymmetry_Pilot,2022.1.3,Win32,59.94125757,629c4b6caf241d5e6e00bfc0,0,160,160,88,1,onetwo,,,,,,,,,,,,,,,,,,,,,,,,,,,,,,,,,,,,,,,,,,,,,,,,,,,,,,,,,,,,,,,,,,,,,,,,,,,,,,,,,,,,,,,,,,,,,,,,,,,,,,,,,,,,,,,,,,,,,,,,,,,,,,,,,,,,,,,,,,,,
,,,,,,60fef59b4d85390bc0357a7d,629c51df14f378d4999ad6e7,2022-06-05_09h41.05.533,Colour_Asymmetry_Pilot,2022.1.3,Win32,59.94125757,629c4b6caf241d5e6e00bfc0,0,161,161,17,1,onethree,,,,,,,,,,,,,,,,,,,,,,,,,,,,,,,,,,,,,,,,,,,,,,,,,,,,,,,,,,,,,,,,,,,,,,,,,,,,,,,,,,,,,,,,,,,,,,,,,,,,,,,,,,,,,,,,,,,,,,,,,,,,,,,,,,,,,,,,,,,,
,,,,,,60fef59b4d85390bc0357a7d,629c51df14f378d4999ad6e7,2022-06-05_09h41.05.533,Colour_Asymmetry_Pilot,2022.1.3,Win32,59.94125757,629c4b6caf241d5e6e00bfc0,,,,,,,space,1.7371,space,5.3735,space,32.3446,space,37.2608,space,7.3975,space,4.1254,"[-0.26280000000000003,-0.4746,-0.2158]",onetwo,"[0.34099999999999997,0.5841999999999998,-0.9844]",-4,5.0698,-22,76,1,0,0,response7disk_5,-8,6,1,0,0,rectangle_8,-8,6,1,0,0,4,-8,6,1,0,0,0,0,0,0,1,,,,,,,,,,,,,,,,,,,,,,,,,,,,,,,,,,,,,,,,,,,,,,,,,,,,,,,,,,,,,,,,,,,,,,,,,,,,,,,,,,,,,,,,,,,,,,,
,,,,,,60fef59b4d85390bc0357a7d,629c51df14f378d4999ad6e7,2022-06-05_09h41.05.533,Colour_Asymmetry_Pilot,2022.1.3,Win32,59.94125757,629c4b6caf241d5e6e00bfc0,,,,,,,,,,,,,,,,,,,"[0.3568,-0.20799999999999996,-0.9844]",twoone,"[0.34099999999999997,0.5841999999999998,-0.9844]",-2,4.8464,-60,-28,1,0,0,response5disk_5,0,3,1,0,0,rectangle_8,0,3,1,0,0,4,0,3,1,0,0,1,0,1,0,1,,,,,,,,,,,,,,,,,,,,,,,,,,,,,,,,,,,,,,,,,,,,,,,,,,,,,,,,,,,,,,,,,,,,,,,,,,,,,,,,,,,,,,,,,,,,,,,
,,,,,,60fef59b4d85390bc0357a7d,629c51df14f378d4999ad6e7,2022-06-05_09h41.05.533,Colour_Asymmetry_Pilot,2022.1.3,Win32,59.94125757,629c4b6caf241d5e6e00bfc0,,,,,,,,,,,,,,,,,,,"[-0.6235999999999999,-0.6786,-0.08239999999999992]",fourtwo,"[-0.9766,-0.6472,0.07440000000000002]",4,2.251,25,82,1,0,0,response1disk_5,-4,-6,1,0,0,rectangle_8,-4,-6,1,0,0,4,-4,-6,1,0,0,2,0,2,0,1,,,,,,,,,,,,,,,,,,,,,,,,,,,,,,,,,,,,,,,,,,,,,,,,,,,,,,,,,,,,,,,,,,,,,,,,,,,,,,,,,,,,,,,,,,,,,,,
,,,,,,60fef59b4d85390bc0357a7d,629c51df14f378d4999ad6e7,2022-06-05_09h41.05.533,Colour_Asymmetry_Pilot,2022.1.3,Win32,59.94125757,629c4b6caf241d5e6e00bfc0,,,,,,,,,,,,,,,,,,,"[0.6625999999999999,0.4980000000000002,-0.357]",fourthree,"[0.05879999999999996,0.2784,0.5841999999999998]",-2,2.0639,-46,-24,1,0,0,response5disk_5,-5,0,1,0,0,rectangle_8,-32,101,1,0,0,4,-21,5,1,0,0,3,0,3,0,1,response7disk_7,0,rectangle_4,,,,,,,,,,,,,,,,,,,,,,,,,,,,,,,,,,,,,,,,,,,,,,,,,,,,,,,,,,,,,,,,,,,,,,,,,,,,,,,,,,,,,,,,,,,,
,,,,,,60fef59b4d85390bc0357a7d,629c51df14f378d4999ad6e7,2022-06-05_09h41.05.533,Colour_Asymmetry_Pilot,2022.1.3,Win32,59.94125757,629c4b6caf241d5e6e00bfc0,,,,,,,,,,,,,,,,,,,"[0.11359999999999992,0.6312,0.5213999999999999]",onethree,"[-0.8198,-0.5138,-0.7492000000000001]",-3,2.5649,-59,24,1,0,0,response7disk_5,-10,-2,1,0,0,rectangle_8,-10,-2,1,0,0,4,-10,-2,1,0,0,4,0,4,0,1,,,,,,,,,,,,,,,,,,,,,,,,,,,,,,,,,,,,,,,,,,,,,,,,,,,,,,,,,,,,,,,,,,,,,,,,,,,,,,,,,,,,,,,,,,,,,,,
,,,,,,60fef59b4d85390bc0357a7d,629c51df14f378d4999ad6e7,2022-06-05_09h41.05.533,Colour_Asymmetry_Pilot,2022.1.3,Win32,59.94125757,629c4b6caf241d5e6e00bfc0,,,,,,,,,,,,,,,,,,,"[1,0.12939999999999996,-1]",twoone,"[-0.17659999999999998,0.3253999999999999,0.19999999999999996]",-4,1.8006,-25,81,1,0,0,response7disk_5,-9,-4,1,0,0,rectangle_8,17,69,1,0,0,4,-1,-10,1,0,0,5,0,5,0,1,response1disk_7,7,rectangle_4,,,,,,,,,,,,,,,,,,,,,,,,,,,,,,,,,,,,,,,,,,,,,,,,,,,,,,,,,,,,,,,,,,,,,,,,,,,,,,,,,,,,,,,,,,,,
,,,,,,60fef59b4d85390bc0357a7d,629c51df14f378d4999ad6e7,2022-06-05_09h41.05.533,Colour_Asymmetry_Pilot,2022.1.3,Win32,59.94125757,629c4b6caf241d5e6e00bfc0,,,,,,,,,,,,,,,,,,,"[-0.20799999999999996,-0.655,-0.01980000000000004]",threefour,"[-0.24719999999999998,0.5213999999999999,-0.12959999999999994]",-4,1.4489,-28,52,1,0,0,response7disk_5,1,-1,1,0,0,rectangle_8,1,-1,1,0,0,4,1,-1,1,0,0,6,0,6,0,1,,,,,,,,,,,,,,,,,,,,,,,,,,,,,,,,,,,,,,,,,,,,,,,,,,,,,,,,,,,,,,,,,,,,,,,,,,,,,,,,,,,,,,,,,,,,,,,
,,,,,,60fef59b4d85390bc0357a7d,629c51df14f378d4999ad6e7,2022-06-05_09h41.05.533,Colour_Asymmetry_Pilot,2022.1.3,Win32,59.94125757,629c4b6caf241d5e6e00bfc0,,,,,,,,,,,,,,,,,,,,twofour,,-4,1.5829,,,,,,,,,,,,,,,,,,,,,,,,,,,,,,,,space,3.4928,"[0.8274000000000001,-0.5844,-0.9452]","[-0.9688,-0.7412000000000001,-0.4902000000000001]",-29,64,1,0,0,response7disk,-19,0,1,0,0,rectangle,-19,0,1,0,0,,2,0.0023,0,-19,0,1,0,0,0,0,0,153,1,72,second,,,,,,,,,,,,,,,,,,,,,,,,,,,,,,,,,,,,,,,,,,,,,,,,,,,,,,,
,,,,,,60fef59b4d85390bc0357a7d,629c51df14f378d4999ad6e7,2022-06-05_09h41.05.533,Colour_Asymmetry_Pilot,2022.1.3,Win32,59.94125757,629c4b6caf241d5e6e00bfc0,,,,,,,,,,,,,,,,,,,,twoone,,-4,0.7754,,,,,,,,,,,,,,,,,,,,,,,,,,,,,,,,,,"[0.8274000000000001,-0.5844,-0.9452]","[0.23920000000000008,0.2704,0.16060000000000008]",-41,74,1,0,0,response7disk,-2,-5,1,0,0,rectangle,-2,-5,1,0,0,,1,0.0013,0,-2,-5,1,0,0,0,1,1,114,1,33,second,,,,,,,,,,,,,,,,,,,,,,,,,,,,,,,,,,,,,,,,,,,,,,,,,,,,,,,
,,,,,,60fef59b4d85390bc0357a7d,629c51df14f378d4999ad6e7,2022-06-05_09h41.05.533,Colour_Asymmetry_Pilot,2022.1.3,Win32,59.94125757,629c4b6caf241d5e6e00bfc0,,,,,,,,,,,,,,,,,,,,onethree,,-2,2.6324,,,,,,,,,,,,,,,,,,,,,,,,,,,,,,,,,,"[0.6547999999999998,-0.043199999999999905,-0.011800000000000033]","[-0.4276,0.0038000000000000256,-0.3256]",-77,-32,1,0,0,response5disk,-11,-2,1,0,0,rectangle,-11,-2,1,0,0,,2,0.0016,0,-11,-2,1,0,0,0,2,2,46,1,46,first,,,,,,,,,,,,,,,,,,,,,,,,,,,,,,,,,,,,,,,,,,,,,,,,,,,,,,,
,,,,,,60fef59b4d85390bc0357a7d,629c51df14f378d4999ad6e7,2022-06-05_09h41.05.533,Colour_Asymmetry_Pilot,2022.1.3,Win32,59.94125757,629c4b6caf241d5e6e00bfc0,,,,,,,,,,,,,,,,,,,,onetwo,,1,4.7299,,,,,,,,,,,,,,,,,,,,,,,,,,,,,,,,,,"[0.22340000000000004,-0.9296,-0.7884]","[0.37240000000000006,-0.050999999999999934,-0.5216]",37,-76,1,0,0,response3disk,6,-1,1,0,0,rectangle,6,-1,1,0,0,,2,0.0005,0,6,-1,1,0,0,0,3,3,150,1,69,second,,,,,,,,,,,,,,,,,,,,,,,,,,,,,,,,,,,,,,,,,,,,,,,,,,,,,,,
,,,,,,60fef59b4d85390bc0357a7d,629c51df14f378d4999ad6e7,2022-06-05_09h41.05.533,Colour_Asymmetry_Pilot,2022.1.3,Win32,59.94125757,629c4b6caf241d5e6e00bfc0,,,,,,,,,,,,,,,,,,,,twoone,,-1,2.1652,,,,,,,,,,,,,,,,,,,,,,,,,,,,,,,,,,"[0.04299999999999993,0.16060000000000008,-0.6628000000000001]","[-0.10599999999999998,-0.10599999999999998,0.5841999999999998]",-42,-61,1,0,0,response5disk,-5,11,1,0,0,rectangle,-5,11,1,0,0,,3,0.0014,0,-5,11,1,0,0,0,4,4,17,1,17,first,,,,,,,,,,,,,,,,,,,,,,,,,,,,,,,,,,,,,,,,,,,,,,,,,,,,,,,
,,,,,,60fef59b4d85390bc0357a7d,629c51df14f378d4999ad6e7,2022-06-05_09h41.05.533,Colour_Asymmetry_Pilot,2022.1.3,Win32,59.94125757,629c4b6caf241d5e6e00bfc0,,,,,,,,,,,,,,,,,,,,fourtwo,,-1,5.5295,,,,,,,,,,,,,,,,,,,,,,,,,,,,,,,,,,"[-0.011800000000000033,-0.906,-0.45100000000000007]","[0.23920000000000008,0.2704,0.16060000000000008]",-39,-70,1,0,0,response5disk,-3,8,1,0,0,rectangle,-3,8,1,0,0,,2,0.0014,0,-3,8,1,0,0,0,5,5,8,1,8,first,,,,,,,,,,,,,,,,,,,,,,,,,,,,,,,,,,,,,,,,,,,,,,,,,,,,,,,
,,,,,,60fef59b4d85390bc0357a7d,629c51df14f378d4999ad6e7,2022-06-05_09h41.05.533,Colour_Asymmetry_Pilot,2022.1.3,Win32,59.94125757,629c4b6caf241d5e6e00bfc0,,,,,,,,,,,,,,,,,,,,onetwo,,-4,1.1662,,,,,,,,,,,,,,,,,,,,,,,,,,,,,,,,,,"[0.9686000000000001,0.5763999999999998,0.11359999999999992]","[-0.8198,-0.5138,-0.7492000000000001]",-50,94,1,0,0,response7disk,-12,1,1,0,0,rectangle,-12,1,1,0,0,,3,0.0014,0,-12,1,1,0,0,0,6,6,28,1,28,first,,,,,,,,,,,,,,,,,,,,,,,,,,,,,,,,,,,,,,,,,,,,,,,,,,,,,,,
,,,,,,60fef59b4d85390bc0357a7d,629c51df14f378d4999ad6e7,2022-06-05_09h41.05.533,Colour_Asymmetry_Pilot,2022.1.3,Win32,59.94125757,629c4b6caf241d5e6e00bfc0,,,,,,,,,,,,,,,,,,,,onethree,,-2,2.4494,,,,,,,,,,,,,,,,,,,,,,,,,,,,,,,,,,"[-0.6,0.16860000000000008,0.44300000000000006]","[0.5528,0.7409999999999999,-0.71]",-59,-35,1,0,0,response5disk,-13,-7,1,0,0,rectangle,-13,-7,1,0,0,,2,0.0015,0,-13,-7,1,0,0,0,7,7,12,1,12,first,,,,,,,,,,,,,,,,,,,,,,,,,,,,,,,,,,,,,,,,,,,,,,,,,,,,,,,
,,,,,,60fef59b4d85390bc0357a7d,629c51df14f378d4999ad6e7,2022-06-05_09h41.05.533,Colour_Asymmetry_Pilot,2022.1.3,Win32,59.94125757,629c4b6caf241d5e6e00bfc0,,,,,,,,,,,,,,,,,,,,twofour,,1,1.982,,,,,,,,,,,,,,,,,,,,,,,,,,,,,,,,,,"[-0.17659999999999998,-0.2864,-0.8354]","[-0.4746,-0.0354000000000001,0.5449999999999999]",21,-42,1,0,0,response3disk,0,-6,1,0,0,rectangle,0,-6,1,0,0,,3,0.0015,0,0,-6,1,0,0,0,8,8,108,1,27,second,,,,,,,,,,,,,,,,,,,,,,,,,,,,,,,,,,,,,,,,,,,,,,,,,,,,,,,
,,,,,,60fef59b4d85390bc0357a7d,629c51df14f378d4999ad6e7,2022-06-05_09h41.05.533,Colour_Asymmetry_Pilot,2022.1.3,Win32,59.94125757,629c4b6caf241d5e6e00bfc0,,,,,,,,,,,,,,,,,,,,twofour,,-1,4.2472,,,,,,,,,,,,,,,,,,,,,,,,,,,,,,,,,,"[-0.0040000000000000036,0.02739999999999987,-0.08239999999999992]","[0.05879999999999996,0.2784,0.5841999999999998]",-23,-66,1,0,0,response5disk,-10,2,1,0,0,rectangle,-10,2,1,0,0,,1,0.0014,0,-10,2,1,0,0,0,9,9,44,1,44,first,,,,,,,,,,,,,,,,,,,,,,,,,,,,,,,,,,,,,,,,,,,,,,,,,,,,,,,
,,,,,,60fef59b4d85390bc0357a7d,629c51df14f378d4999ad6e7,2022-06-05_09h41.05.533,Colour_Asymmetry_Pilot,2022.1.3,Win32,59.94125757,629c4b6caf241d5e6e00bfc0,,,,,,,,,,,,,,,,,,,,threeone,,3,2.4997,,,,,,,,,,,,,,,,,,,,,,,,,,,,,,,,,,"[-0.9688,-0.38039999999999996,-0.41979999999999995]","[0.2784,-0.31000000000000005,-0.5452]",82,28,1,0,0,response1disk,7,6,1,0,0,rectangle,7,6,1,0,0,,3,0.0014,0,7,6,1,0,0,0,10,10,59,1,59,first,,,,,,,,,,,,,,,,,,,,,,,,,,,,,,,,,,,,,,,,,,,,,,,,,,,,,,,
,,,,,,60fef59b4d85390bc0357a7d,629c51df14f378d4999ad6e7,2022-06-05_09h41.05.533,Colour_Asymmetry_Pilot,2022.1.3,Win32,59.94125757,629c4b6caf241d5e6e00bfc0,,,,,,,,,,,,,,,,,,,,threeone,,-4,0.7167,,,,,,,,,,,,,,,,,,,,,,,,,,,,,,,,,,"[0.9686000000000001,0.3802000000000001,0.19999999999999996]","[-0.9688,-0.7412000000000001,-0.4902000000000001]",-32,47,1,0,0,response7disk,-21,10,1,0,0,rectangle,-21,10,1,0,0,,1,0.0013,0,-21,10,1,0,0,0,11,11,106,1,25,second,,,,,,,,,,,,,,,,,,,,,,,,,,,,,,,,,,,,,,,,,,,,,,,,,,,,,,,
,,,,,,60fef59b4d85390bc0357a7d,629c51df14f378d4999ad6e7,2022-06-05_09h41.05.533,Colour_Asymmetry_Pilot,2022.1.3,Win32,59.94125757,629c4b6caf241d5e6e00bfc0,,,,,,,,,,,,,,,,,,,,threefour,,1,1.9986,,,,,,,,,,,,,,,,,,,,,,,,,,,,,,,,,,"[0.37240000000000006,-0.050999999999999934,-0.5216]","[0.22340000000000004,-0.9296,-0.7884]",18,-64,1,0,0,response3disk,5,-12,1,0,0,rectangle,5,-12,1,0,0,,3,0.0015,0,5,-12,1,0,0,0,12,12,69,1,69,first,,,,,,,,,,,,,,,,,,,,,,,,,,,,,,,,,,,,,,,,,,,,,,,,,,,,,,,
,,,,,,60fef59b4d85390bc0357a7d,629c51df14f378d4999ad6e7,2022-06-05_09h41.05.533,Colour_Asymmetry_Pilot,2022.1.3,Win32,59.94125757,629c4b6caf241d5e6e00bfc0,,,,,,,,,,,,,,,,,,,,onetwo,,3,0.958,,,,,,,,,,,,,,,,,,,,,,,,,,,,,,,,,,"[-0.24719999999999998,-0.0354000000000001,0.3175999999999999]","[0.04299999999999993,0.16060000000000008,-0.6628000000000001]",86,43,1,0,0,response1disk,18,4,1,0,0,rectangle,18,4,1,0,0,,1,0.0016,0,18,4,1,0,0,0,13,13,39,1,39,first,,,,,,,,,,,,,,,,,,,,,,,,,,,,,,,,,,,,,,,,,,,,,,,,,,,,,,,
,,,,,,60fef59b4d85390bc0357a7d,629c51df14f378d4999ad6e7,2022-06-05_09h41.05.533,Colour_Asymmetry_Pilot,2022.1.3,Win32,59.94125757,629c4b6caf241d5e6e00bfc0,,,,,,,,,,,,,,,,,,,,onetwo,,-3,2.3149,,,,,,,,,,,,,,,,,,,,,,,,,,,,,,,,,,"[0.34099999999999997,0.12939999999999996,-0.9766]","[0.09799999999999986,-0.24719999999999998,0.15280000000000005]",-61,36,1,0,0,response7disk,19,-7,1,0,0,rectangle,19,-7,1,0,0,,3,0.0013,0,19,-7,1,0,0,0,14,14,3,1,3,first,,,,,,,,,,,,,,,,,,,,,,,,,,,,,,,,,,,,,,,,,,,,,,,,,,,,,,,
,,,,,,60fef59b4d85390bc0357a7d,629c51df14f378d4999ad6e7,2022-06-05_09h41.05.533,Colour_Asymmetry_Pilot,2022.1.3,Win32,59.94125757,629c4b6caf241d5e6e00bfc0,,,,,,,,,,,,,,,,,,,,onetwo,,2,1.8662,,,,,,,,,,,,,,,,,,,,,,,,,,,,,,,,,,"[0.30180000000000007,-0.7884,-0.9844]","[-0.9688,-0.4902000000000001,-0.12159999999999993]",39,-33,1,0,0,response3disk,1,-2,1,0,0,rectangle,1,-2,1,0,0,,2,0.0013,0,1,-2,1,0,0,0,15,15,0,1,0,first,,,,,,,,,,,,,,,,,,,,,,,,,,,,,,,,,,,,,,,,,,,,,,,,,,,,,,,
,,,,,,60fef59b4d85390bc0357a7d,629c51df14f378d4999ad6e7,2022-06-05_09h41.05.533,Colour_Asymmetry_Pilot,2022.1.3,Win32,59.94125757,629c4b6caf241d5e6e00bfc0,,,,,,,,,,,,,,,,,,,,onetwo,,-2,1.9656,,,,,,,,,,,,,,,,,,,,,,,,,,,,,,,,,,"[-0.9688,-0.7412000000000001,-0.4902000000000001]","[0.8274000000000001,-0.5844,-0.9452]",-41,-34,1,0,0,response5disk,-7,-1,1,0,0,rectangle,-7,-1,1,0,0,,2,0.0006,0,-7,-1,1,0,0,0,16,16,72,1,72,first,,,,,,,,,,,,,,,,,,,,,,,,,,,,,,,,,,,,,,,,,,,,,,,,,,,,,,,
,,,,,,60fef59b4d85390bc0357a7d,629c51df14f378d4999ad6e7,2022-06-05_09h41.05.533,Colour_Asymmetry_Pilot,2022.1.3,Win32,59.94125757,629c4b6caf241d5e6e00bfc0,,,,,,,,,,,,,,,,,,,,threefour,,3,2.4481,,,,,,,,,,,,,,,,,,,,,,,,,,,,,,,,,,"[-0.6706000000000001,-0.6157999999999999,-0.6786]","[-0.5452,-0.608,0.2470000000000001]",68,55,1,0,0,response1disk,6,-4,1,0,0,rectangle,6,-4,1,0,0,,1,0.0014,0,6,-4,1,0,0,0,17,17,77,1,77,first,,,,,,,,,,,,,,,,,,,,,,,,,,,,,,,,,,,,,,,,,,,,,,,,,,,,,,,
,,,,,,60fef59b4d85390bc0357a7d,629c51df14f378d4999ad6e7,2022-06-05_09h41.05.533,Colour_Asymmetry_Pilot,2022.1.3,Win32,59.94125757,629c4b6caf241d5e6e00bfc0,,,,,,,,,,,,,,,,,,,,onetwo,,1,1.4659,,,,,,,,,,,,,,,,,,,,,,,,,,,,,,,,,,"[0.7176,-0.906,-0.6864]","[-0.5688,-0.08239999999999992,-0.1844]",21,-77,1,0,0,response3disk,-1,12,1,0,0,rectangle,-1,12,1,0,0,,2,0.0016,0,-1,12,1,0,0,0,18,18,152,1,71,second,,,,,,,,,,,,,,,,,,,,,,,,,,,,,,,,,,,,,,,,,,,,,,,,,,,,,,,
,,,,,,60fef59b4d85390bc0357a7d,629c51df14f378d4999ad6e7,2022-06-05_09h41.05.533,Colour_Asymmetry_Pilot,2022.1.3,Win32,59.94125757,629c4b6caf241d5e6e00bfc0,,,,,,,,,,,,,,,,,,,,fourthree,,4,0.8662,,,,,,,,,,,,,,,,,,,,,,,,,,,,,,,,,,"[-0.9688,-0.7412000000000001,-0.4902000000000001]","[-0.24719999999999998,-0.0354000000000001,0.3175999999999999]",25,49,1,0,0,response1disk,9,1,1,0,0,rectangle,9,1,1,0,0,,3,0.0012,0,9,1,1,0,0,0,19,19,80,1,80,first,,,,,,,,,,,,,,,,,,,,,,,,,,,,,,,,,,,,,,,,,,,,,,,,,,,,,,,
,,,,,,60fef59b4d85390bc0357a7d,629c51df14f378d4999ad6e7,2022-06-05_09h41.05.533,Colour_Asymmetry_Pilot,2022.1.3,Win32,59.94125757,629c4b6caf241d5e6e00bfc0,,,,,,,,,,,,,,,,,,,,fourthree,,2,1.1824,,,,,,,,,,,,,,,,,,,,,,,,,,,,,,,,,,"[-0.5688,-0.08239999999999992,-0.1844]","[-0.011800000000000033,-0.906,-0.45100000000000007]",105,-33,1,0,0,response3disk,-11,3,1,0,0,rectangle,-11,3,1,0,0,,1,0.0013,0,-11,3,1,0,0,0,20,20,15,1,15,first,,,,,,,,,,,,,,,,,,,,,,,,,,,,,,,,,,,,,,,,,,,,,,,,,,,,,,,
,,,,,,60fef59b4d85390bc0357a7d,629c51df14f378d4999ad6e7,2022-06-05_09h41.05.533,Colour_Asymmetry_Pilot,2022.1.3,Win32,59.94125757,629c4b6caf241d5e6e00bfc0,,,,,,,,,,,,,,,,,,,,twoone,,1,1.732,,,,,,,,,,,,,,,,,,,,,,,,,,,,,,,,,,"[-0.10599999999999998,-0.10599999999999998,0.5841999999999998]","[0.4196,0.4665999999999999,0.3568]",58,-87,1,0,0,response3disk,8,2,1,0,0,rectangle,-31,-86,1,0,0,-1,1,3.4737,1,-4,0,1,0,0,0,21,21,159,1,78,second,response5disk_3,rectangle,,,,,,,,,,,,,,,,,,,,,,,,,,,,,,,,,,,,,,,,,,,,,,,,,,,,,
,,,,,,60fef59b4d85390bc0357a7d,629c51df14f378d4999ad6e7,2022-06-05_09h41.05.533,Colour_Asymmetry_Pilot,2022.1.3,Win32,59.94125757,629c4b6caf241d5e6e00bfc0,,,,,,,,,,,,,,,,,,,,twoone,,2,1.0675,,,,,,,,,,,,,,,,,,,,,,,,,,,,,,,,,,"[-0.10599999999999998,-0.10599999999999998,0.5841999999999998]","[0.04299999999999993,0.16060000000000008,-0.6628000000000001]",61,-39,1,0,0,response3disk,12,-2,1,0,0,rectangle,12,-2,1,0,0,-1,2,0.0013,0,12,-2,1,0,0,0,22,22,98,1,17,second,,,,,,,,,,,,,,,,,,,,,,,,,,,,,,,,,,,,,,,,,,,,,,,,,,,,,,,
,,,,,,60fef59b4d85390bc0357a7d,629c51df14f378d4999ad6e7,2022-06-05_09h41.05.533,Colour_Asymmetry_Pilot,2022.1.3,Win32,59.94125757,629c4b6caf241d5e6e00bfc0,,,,,,,,,,,,,,,,,,,,threeone,,-2,0.8239,,,,,,,,,,,,,,,,,,,,,,,,,,,,,,,,,,"[0.23920000000000008,0.2704,0.16060000000000008]","[1,0.12939999999999996,-1]",-48,-28,1,0,0,response5disk,12,1,1,0,0,rectangle,12,1,1,0,0,-1,1,0.0013,0,12,1,1,0,0,0,23,23,7,1,7,first,,,,,,,,,,,,,,,,,,,,,,,,,,,,,,,,,,,,,,,,,,,,,,,,,,,,,,,
,,,,,,60fef59b4d85390bc0357a7d,629c51df14f378d4999ad6e7,2022-06-05_09h41.05.533,Colour_Asymmetry_Pilot,2022.1.3,Win32,59.94125757,629c4b6caf241d5e6e00bfc0,,,,,,,,,,,,,,,,,,,,threeone,,2,1.434,,,,,,,,,,,,,,,,,,,,,,,,,,,,,,,,,,"[-0.9138,-0.5296000000000001,-0.5529999999999999]","[0.3881999999999999,-0.23939999999999995,-0.05040000000000011]",60,-38,1,0,0,response3disk,-12,-7,1,0,0,rectangle,-12,-7,1,0,0,-1,3,0.0013,0,-12,-7,1,0,0,0,24,24,119,1,38,second,,,,,,,,,,,,,,,,,,,,,,,,,,,,,,,,,,,,,,,,,,,,,,,,,,,,,,,
,,,,,,60fef59b4d85390bc0357a7d,629c51df14f378d4999ad6e7,2022-06-05_09h41.05.533,Colour_Asymmetry_Pilot,2022.1.3,Win32,59.94125757,629c4b6caf241d5e6e00bfc0,,,,,,,,,,,,,,,,,,,,twofour,,3,0.8002,,,,,,,,,,,,,,,,,,,,,,,,,,,,,,,,,,"[-0.5922000000000001,-0.7492000000000001,-0.5296000000000001]","[-0.26280000000000003,-0.2158,-0.3256]",71,42,1,0,0,response1disk,15,2,1,0,0,rectangle,15,2,1,0,0,-1,2,0.0014,0,15,2,1,0,0,0,25,25,134,1,53,second,,,,,,,,,,,,,,,,,,,,,,,,,,,,,,,,,,,,,,,,,,,,,,,,,,,,,,,
,,,,,,60fef59b4d85390bc0357a7d,629c51df14f378d4999ad6e7,2022-06-05_09h41.05.533,Colour_Asymmetry_Pilot,2022.1.3,Win32,59.94125757,629c4b6caf241d5e6e00bfc0,,,,,,,,,,,,,,,,,,,,onethree,,4,0.8828,,,,,,,,,,,,,,,,,,,,,,,,,,,,,,,,,,"[-0.01980000000000004,-0.5138,-0.38039999999999996]","[-0.4668,-0.8746,-0.2942]",27,77,1,0,0,response1disk,0,-4,1,0,0,rectangle,33,-63,1,0,0,1,1,1.5975,1,3,-5,1,0,0,0,26,26,104,1,23,second,response3disk_3,rectangle,,,,,,,,,,,,,,,,,,,,,,,,,,,,,,,,,,,,,,,,,,,,,,,,,,,,,
,,,,,,60fef59b4d85390bc0357a7d,629c51df14f378d4999ad6e7,2022-06-05_09h41.05.533,Colour_Asymmetry_Pilot,2022.1.3,Win32,59.94125757,629c4b6caf241d5e6e00bfc0,,,,,,,,,,,,,,,,,,,,fourthree,,3,0.8993,,,,,,,,,,,,,,,,,,,,,,,,,,,,,,,,,,"[0.11359999999999992,0.6312,0.5213999999999999]","[0.4196,0.4665999999999999,0.3568]",68,29,1,0,0,response1disk,6,1,1,0,0,rectangle,6,1,1,0,0,1,1,0.0003,0,6,1,1,0,0,0,27,27,51,1,51,first,,,,,,,,,,,,,,,,,,,,,,,,,,,,,,,,,,,,,,,,,,,,,,,,,,,,,,,
