trials.thisRepN,trials.thisTrialN,trials.thisN,trials.thisIndex,trials.ran,Colourcodes,participant,session,date,expName,psychopyVersion,OS,frameRate,study_id,trials_4.thisRepN,trials_4.thisTrialN,trials_4.thisN,trials_4.thisIndex,trials_4.ran,StimulusPos,key_resp.keys,key_resp.rt,key_resp_2.keys,key_resp_2.rt,key_resp_15.keys,key_resp_15.rt,key_resp_17.keys,key_resp_17.rt,key_resp_9.keys,key_resp_9.rt,key_resp_10.keys,key_resp_10.rt,Circle1_col,Ecc,Circle2_col,similarity,response_time,mouse_5.x,mouse_5.y,mouse_5.leftButton,mouse_5.midButton,mouse_5.rightButton,mouse_5.clicked_name,mouse_10.x,mouse_10.y,mouse_10.leftButton,mouse_10.midButton,mouse_10.rightButton,mouse_10.clicked_name,mouse_7.x,mouse_7.y,mouse_7.leftButton,mouse_7.midButton,mouse_7.rightButton,mouse_7.clicked_name,catchprac,catchnumberprac,mouse_6.x,mouse_6.y,mouse_6.leftButton,mouse_6.midButton,mouse_6.rightButton,mouse_6.clicked_name,duringprac.thisRepN,duringprac.thisTrialN,duringprac.thisN,duringprac.thisIndex,duringprac.ran,key_resp_22.keys,key_resp_22.rt,Circle1_colour,Circle2_colour,mouse.x,mouse.y,mouse.leftButton,mouse.midButton,mouse.rightButton,mouse.clicked_name,mouse_2.x,mouse_2.y,mouse_2.leftButton,mouse_2.midButton,mouse_2.rightButton,mouse_2.clicked_name,mouse_3.x,mouse_3.y,mouse_3.leftButton,mouse_3.midButton,mouse_3.rightButton,catchresponse,catchnumber,response_time_catch,Catch,mouse_11.x,mouse_11.y,mouse_11.leftButton,mouse_11.midButton,mouse_11.rightButton,trials_2.thisRepN,trials_2.thisTrialN,trials_2.thisN,trials_2.thisIndex,trials_2.ran,Colourpair,Temporder,mouse_3.clicked_name,mouse_11.clicked_name,trials_3.thisRepN,trials_3.thisTrialN,trials_3.thisN,trials_3.thisIndex,trials_3.ran,textbox.text,mouse_4.x,mouse_4.y,mouse_4.leftButton,mouse_4.midButton,mouse_4.rightButton,mouse_4.clicked_name,textbox_2.text,mouse_8.x,mouse_8.y,mouse_8.leftButton,mouse_8.midButton,mouse_8.rightButton,mouse_8.clicked_name,textbox_3.text,mouse_9.x,mouse_9.y,mouse_9.leftButton,mouse_9.midButton,mouse_9.rightButton,mouse_9.clicked_name,textbox_4.text,mouse_12.x,mouse_12.y,mouse_12.leftButton,mouse_12.midButton,mouse_12.rightButton,mouse_12.clicked_name,textbox_5.text,mouse_13.x,mouse_13.y,mouse_13.leftButton,mouse_13.midButton,mouse_13.rightButton,mouse_13.clicked_name,textbox_6.text,mouse_14.x,mouse_14.y,mouse_14.leftButton,mouse_14.midButton,mouse_14.rightButton,mouse_14.clicked_name,textbox_7.text,mouse_15.x,mouse_15.y,mouse_15.leftButton,mouse_15.midButton,mouse_15.rightButton,mouse_15.clicked_name
0,0,0,9,1,,602ea981977e11a989ff5d72,629c522d85062e9f89d27da7,2022-06-05_08h53.51.291,Colour_Asymmetry_Pilot,2022.1.3,MacIntel,58.82352941,629c4b6caf241d5e6e00bfc0,,,,,,,,,,,,,,,,,,,,,,,,,,,,,,,,,,,,,,,,,,,,,,,,,,,,,,,,,,,,,,,,,,,,,,,,,,,,,,,,,,,,,,,,,,,,,,,,,,,,,,,,,,,,,,,,,,,,,,,,,,,,,,,,,,,,,,,,,,,,,,,,,,,
0,1,1,38,1,,602ea981977e11a989ff5d72,629c522d85062e9f89d27da7,2022-06-05_08h53.51.291,Colour_Asymmetry_Pilot,2022.1.3,MacIntel,58.82352941,629c4b6caf241d5e6e00bfc0,,,,,,,,,,,,,,,,,,,,,,,,,,,,,,,,,,,,,,,,,,,,,,,,,,,,,,,,,,,,,,,,,,,,,,,,,,,,,,,,,,,,,,,,,,,,,,,,,,,,,,,,,,,,,,,,,,,,,,,,,,,,,,,,,,,,,,,,,,,,,,,,,,,
0,2,2,13,1,,602ea981977e11a989ff5d72,629c522d85062e9f89d27da7,2022-06-05_08h53.51.291,Colour_Asymmetry_Pilot,2022.1.3,MacIntel,58.82352941,629c4b6caf241d5e6e00bfc0,,,,,,,,,,,,,,,,,,,,,,,,,,,,,,,,,,,,,,,,,,,,,,,,,,,,,,,,,,,,,,,,,,,,,,,,,,,,,,,,,,,,,,,,,,,,,,,,,,,,,,,,,,,,,,,,,,,,,,,,,,,,,,,,,,,,,,,,,,,,,,,,,,,
0,3,3,71,1,,602ea981977e11a989ff5d72,629c522d85062e9f89d27da7,2022-06-05_08h53.51.291,Colour_Asymmetry_Pilot,2022.1.3,MacIntel,58.82352941,629c4b6caf241d5e6e00bfc0,,,,,,,,,,,,,,,,,,,,,,,,,,,,,,,,,,,,,,,,,,,,,,,,,,,,,,,,,,,,,,,,,,,,,,,,,,,,,,,,,,,,,,,,,,,,,,,,,,,,,,,,,,,,,,,,,,,,,,,,,,,,,,,,,,,,,,,,,,,,,,,,,,,
0,4,4,45,1,,602ea981977e11a989ff5d72,629c522d85062e9f89d27da7,2022-06-05_08h53.51.291,Colour_Asymmetry_Pilot,2022.1.3,MacIntel,58.82352941,629c4b6caf241d5e6e00bfc0,,,,,,,,,,,,,,,,,,,,,,,,,,,,,,,,,,,,,,,,,,,,,,,,,,,,,,,,,,,,,,,,,,,,,,,,,,,,,,,,,,,,,,,,,,,,,,,,,,,,,,,,,,,,,,,,,,,,,,,,,,,,,,,,,,,,,,,,,,,,,,,,,,,
0,5,5,65,1,,602ea981977e11a989ff5d72,629c522d85062e9f89d27da7,2022-06-05_08h53.51.291,Colour_Asymmetry_Pilot,2022.1.3,MacIntel,58.82352941,629c4b6caf241d5e6e00bfc0,,,,,,,,,,,,,,,,,,,,,,,,,,,,,,,,,,,,,,,,,,,,,,,,,,,,,,,,,,,,,,,,,,,,,,,,,,,,,,,,,,,,,,,,,,,,,,,,,,,,,,,,,,,,,,,,,,,,,,,,,,,,,,,,,,,,,,,,,,,,,,,,,,,
0,6,6,12,1,,602ea981977e11a989ff5d72,629c522d85062e9f89d27da7,2022-06-05_08h53.51.291,Colour_Asymmetry_Pilot,2022.1.3,MacIntel,58.82352941,629c4b6caf241d5e6e00bfc0,,,,,,,,,,,,,,,,,,,,,,,,,,,,,,,,,,,,,,,,,,,,,,,,,,,,,,,,,,,,,,,,,,,,,,,,,,,,,,,,,,,,,,,,,,,,,,,,,,,,,,,,,,,,,,,,,,,,,,,,,,,,,,,,,,,,,,,,,,,,,,,,,,,
0,7,7,78,1,,602ea981977e11a989ff5d72,629c522d85062e9f89d27da7,2022-06-05_08h53.51.291,Colour_Asymmetry_Pilot,2022.1.3,MacIntel,58.82352941,629c4b6caf241d5e6e00bfc0,,,,,,,,,,,,,,,,,,,,,,,,,,,,,,,,,,,,,,,,,,,,,,,,,,,,,,,,,,,,,,,,,,,,,,,,,,,,,,,,,,,,,,,,,,,,,,,,,,,,,,,,,,,,,,,,,,,,,,,,,,,,,,,,,,,,,,,,,,,,,,,,,,,
0,8,8,59,1,,602ea981977e11a989ff5d72,629c522d85062e9f89d27da7,2022-06-05_08h53.51.291,Colour_Asymmetry_Pilot,2022.1.3,MacIntel,58.82352941,629c4b6caf241d5e6e00bfc0,,,,,,,,,,,,,,,,,,,,,,,,,,,,,,,,,,,,,,,,,,,,,,,,,,,,,,,,,,,,,,,,,,,,,,,,,,,,,,,,,,,,,,,,,,,,,,,,,,,,,,,,,,,,,,,,,,,,,,,,,,,,,,,,,,,,,,,,,,,,,,,,,,,
0,9,9,81,1,,602ea981977e11a989ff5d72,629c522d85062e9f89d27da7,2022-06-05_08h53.51.291,Colour_Asymmetry_Pilot,2022.1.3,MacIntel,58.82352941,629c4b6caf241d5e6e00bfc0,,,,,,,,,,,,,,,,,,,,,,,,,,,,,,,,,,,,,,,,,,,,,,,,,,,,,,,,,,,,,,,,,,,,,,,,,,,,,,,,,,,,,,,,,,,,,,,,,,,,,,,,,,,,,,,,,,,,,,,,,,,,,,,,,,,,,,,,,,,,,,,,,,,
0,10,10,63,1,,602ea981977e11a989ff5d72,629c522d85062e9f89d27da7,2022-06-05_08h53.51.291,Colour_Asymmetry_Pilot,2022.1.3,MacIntel,58.82352941,629c4b6caf241d5e6e00bfc0,,,,,,,,,,,,,,,,,,,,,,,,,,,,,,,,,,,,,,,,,,,,,,,,,,,,,,,,,,,,,,,,,,,,,,,,,,,,,,,,,,,,,,,,,,,,,,,,,,,,,,,,,,,,,,,,,,,,,,,,,,,,,,,,,,,,,,,,,,,,,,,,,,,
0,11,11,70,1,,602ea981977e11a989ff5d72,629c522d85062e9f89d27da7,2022-06-05_08h53.51.291,Colour_Asymmetry_Pilot,2022.1.3,MacIntel,58.82352941,629c4b6caf241d5e6e00bfc0,,,,,,,,,,,,,,,,,,,,,,,,,,,,,,,,,,,,,,,,,,,,,,,,,,,,,,,,,,,,,,,,,,,,,,,,,,,,,,,,,,,,,,,,,,,,,,,,,,,,,,,,,,,,,,,,,,,,,,,,,,,,,,,,,,,,,,,,,,,,,,,,,,,
0,12,12,79,1,,602ea981977e11a989ff5d72,629c522d85062e9f89d27da7,2022-06-05_08h53.51.291,Colour_Asymmetry_Pilot,2022.1.3,MacIntel,58.82352941,629c4b6caf241d5e6e00bfc0,,,,,,,,,,,,,,,,,,,,,,,,,,,,,,,,,,,,,,,,,,,,,,,,,,,,,,,,,,,,,,,,,,,,,,,,,,,,,,,,,,,,,,,,,,,,,,,,,,,,,,,,,,,,,,,,,,,,,,,,,,,,,,,,,,,,,,,,,,,,,,,,,,,
0,13,13,0,1,,602ea981977e11a989ff5d72,629c522d85062e9f89d27da7,2022-06-05_08h53.51.291,Colour_Asymmetry_Pilot,2022.1.3,MacIntel,58.82352941,629c4b6caf241d5e6e00bfc0,,,,,,,,,,,,,,,,,,,,,,,,,,,,,,,,,,,,,,,,,,,,,,,,,,,,,,,,,,,,,,,,,,,,,,,,,,,,,,,,,,,,,,,,,,,,,,,,,,,,,,,,,,,,,,,,,,,,,,,,,,,,,,,,,,,,,,,,,,,,,,,,,,,
0,14,14,41,1,,602ea981977e11a989ff5d72,629c522d85062e9f89d27da7,2022-06-05_08h53.51.291,Colour_Asymmetry_Pilot,2022.1.3,MacIntel,58.82352941,629c4b6caf241d5e6e00bfc0,,,,,,,,,,,,,,,,,,,,,,,,,,,,,,,,,,,,,,,,,,,,,,,,,,,,,,,,,,,,,,,,,,,,,,,,,,,,,,,,,,,,,,,,,,,,,,,,,,,,,,,,,,,,,,,,,,,,,,,,,,,,,,,,,,,,,,,,,,,,,,,,,,,
0,15,15,39,1,,602ea981977e11a989ff5d72,629c522d85062e9f89d27da7,2022-06-05_08h53.51.291,Colour_Asymmetry_Pilot,2022.1.3,MacIntel,58.82352941,629c4b6caf241d5e6e00bfc0,,,,,,,,,,,,,,,,,,,,,,,,,,,,,,,,,,,,,,,,,,,,,,,,,,,,,,,,,,,,,,,,,,,,,,,,,,,,,,,,,,,,,,,,,,,,,,,,,,,,,,,,,,,,,,,,,,,,,,,,,,,,,,,,,,,,,,,,,,,,,,,,,,,
0,16,16,44,1,,602ea981977e11a989ff5d72,629c522d85062e9f89d27da7,2022-06-05_08h53.51.291,Colour_Asymmetry_Pilot,2022.1.3,MacIntel,58.82352941,629c4b6caf241d5e6e00bfc0,,,,,,,,,,,,,,,,,,,,,,,,,,,,,,,,,,,,,,,,,,,,,,,,,,,,,,,,,,,,,,,,,,,,,,,,,,,,,,,,,,,,,,,,,,,,,,,,,,,,,,,,,,,,,,,,,,,,,,,,,,,,,,,,,,,,,,,,,,,,,,,,,,,
0,17,17,1,1,,602ea981977e11a989ff5d72,629c522d85062e9f89d27da7,2022-06-05_08h53.51.291,Colour_Asymmetry_Pilot,2022.1.3,MacIntel,58.82352941,629c4b6caf241d5e6e00bfc0,,,,,,,,,,,,,,,,,,,,,,,,,,,,,,,,,,,,,,,,,,,,,,,,,,,,,,,,,,,,,,,,,,,,,,,,,,,,,,,,,,,,,,,,,,,,,,,,,,,,,,,,,,,,,,,,,,,,,,,,,,,,,,,,,,,,,,,,,,,,,,,,,,,
0,18,18,21,1,,602ea981977e11a989ff5d72,629c522d85062e9f89d27da7,2022-06-05_08h53.51.291,Colour_Asymmetry_Pilot,2022.1.3,MacIntel,58.82352941,629c4b6caf241d5e6e00bfc0,,,,,,,,,,,,,,,,,,,,,,,,,,,,,,,,,,,,,,,,,,,,,,,,,,,,,,,,,,,,,,,,,,,,,,,,,,,,,,,,,,,,,,,,,,,,,,,,,,,,,,,,,,,,,,,,,,,,,,,,,,,,,,,,,,,,,,,,,,,,,,,,,,,
0,19,19,11,1,,602ea981977e11a989ff5d72,629c522d85062e9f89d27da7,2022-06-05_08h53.51.291,Colour_Asymmetry_Pilot,2022.1.3,MacIntel,58.82352941,629c4b6caf241d5e6e00bfc0,,,,,,,,,,,,,,,,,,,,,,,,,,,,,,,,,,,,,,,,,,,,,,,,,,,,,,,,,,,,,,,,,,,,,,,,,,,,,,,,,,,,,,,,,,,,,,,,,,,,,,,,,,,,,,,,,,,,,,,,,,,,,,,,,,,,,,,,,,,,,,,,,,,
0,20,20,48,1,,602ea981977e11a989ff5d72,629c522d85062e9f89d27da7,2022-06-05_08h53.51.291,Colour_Asymmetry_Pilot,2022.1.3,MacIntel,58.82352941,629c4b6caf241d5e6e00bfc0,,,,,,,,,,,,,,,,,,,,,,,,,,,,,,,,,,,,,,,,,,,,,,,,,,,,,,,,,,,,,,,,,,,,,,,,,,,,,,,,,,,,,,,,,,,,,,,,,,,,,,,,,,,,,,,,,,,,,,,,,,,,,,,,,,,,,,,,,,,,,,,,,,,
0,21,21,69,1,,602ea981977e11a989ff5d72,629c522d85062e9f89d27da7,2022-06-05_08h53.51.291,Colour_Asymmetry_Pilot,2022.1.3,MacIntel,58.82352941,629c4b6caf241d5e6e00bfc0,,,,,,,,,,,,,,,,,,,,,,,,,,,,,,,,,,,,,,,,,,,,,,,,,,,,,,,,,,,,,,,,,,,,,,,,,,,,,,,,,,,,,,,,,,,,,,,,,,,,,,,,,,,,,,,,,,,,,,,,,,,,,,,,,,,,,,,,,,,,,,,,,,,
0,22,22,74,1,,602ea981977e11a989ff5d72,629c522d85062e9f89d27da7,2022-06-05_08h53.51.291,Colour_Asymmetry_Pilot,2022.1.3,MacIntel,58.82352941,629c4b6caf241d5e6e00bfc0,,,,,,,,,,,,,,,,,,,,,,,,,,,,,,,,,,,,,,,,,,,,,,,,,,,,,,,,,,,,,,,,,,,,,,,,,,,,,,,,,,,,,,,,,,,,,,,,,,,,,,,,,,,,,,,,,,,,,,,,,,,,,,,,,,,,,,,,,,,,,,,,,,,
0,23,23,5,1,,602ea981977e11a989ff5d72,629c522d85062e9f89d27da7,2022-06-05_08h53.51.291,Colour_Asymmetry_Pilot,2022.1.3,MacIntel,58.82352941,629c4b6caf241d5e6e00bfc0,,,,,,,,,,,,,,,,,,,,,,,,,,,,,,,,,,,,,,,,,,,,,,,,,,,,,,,,,,,,,,,,,,,,,,,,,,,,,,,,,,,,,,,,,,,,,,,,,,,,,,,,,,,,,,,,,,,,,,,,,,,,,,,,,,,,,,,,,,,,,,,,,,,
0,24,24,17,1,,602ea981977e11a989ff5d72,629c522d85062e9f89d27da7,2022-06-05_08h53.51.291,Colour_Asymmetry_Pilot,2022.1.3,MacIntel,58.82352941,629c4b6caf241d5e6e00bfc0,,,,,,,,,,,,,,,,,,,,,,,,,,,,,,,,,,,,,,,,,,,,,,,,,,,,,,,,,,,,,,,,,,,,,,,,,,,,,,,,,,,,,,,,,,,,,,,,,,,,,,,,,,,,,,,,,,,,,,,,,,,,,,,,,,,,,,,,,,,,,,,,,,,
0,25,25,73,1,,602ea981977e11a989ff5d72,629c522d85062e9f89d27da7,2022-06-05_08h53.51.291,Colour_Asymmetry_Pilot,2022.1.3,MacIntel,58.82352941,629c4b6caf241d5e6e00bfc0,,,,,,,,,,,,,,,,,,,,,,,,,,,,,,,,,,,,,,,,,,,,,,,,,,,,,,,,,,,,,,,,,,,,,,,,,,,,,,,,,,,,,,,,,,,,,,,,,,,,,,,,,,,,,,,,,,,,,,,,,,,,,,,,,,,,,,,,,,,,,,,,,,,
0,26,26,53,1,,602ea981977e11a989ff5d72,629c522d85062e9f89d27da7,2022-06-05_08h53.51.291,Colour_Asymmetry_Pilot,2022.1.3,MacIntel,58.82352941,629c4b6caf241d5e6e00bfc0,,,,,,,,,,,,,,,,,,,,,,,,,,,,,,,,,,,,,,,,,,,,,,,,,,,,,,,,,,,,,,,,,,,,,,,,,,,,,,,,,,,,,,,,,,,,,,,,,,,,,,,,,,,,,,,,,,,,,,,,,,,,,,,,,,,,,,,,,,,,,,,,,,,
0,27,27,14,1,,602ea981977e11a989ff5d72,629c522d85062e9f89d27da7,2022-06-05_08h53.51.291,Colour_Asymmetry_Pilot,2022.1.3,MacIntel,58.82352941,629c4b6caf241d5e6e00bfc0,,,,,,,,,,,,,,,,,,,,,,,,,,,,,,,,,,,,,,,,,,,,,,,,,,,,,,,,,,,,,,,,,,,,,,,,,,,,,,,,,,,,,,,,,,,,,,,,,,,,,,,,,,,,,,,,,,,,,,,,,,,,,,,,,,,,,,,,,,,,,,,,,,,
0,28,28,55,1,,602ea981977e11a989ff5d72,629c522d85062e9f89d27da7,2022-06-05_08h53.51.291,Colour_Asymmetry_Pilot,2022.1.3,MacIntel,58.82352941,629c4b6caf241d5e6e00bfc0,,,,,,,,,,,,,,,,,,,,,,,,,,,,,,,,,,,,,,,,,,,,,,,,,,,,,,,,,,,,,,,,,,,,,,,,,,,,,,,,,,,,,,,,,,,,,,,,,,,,,,,,,,,,,,,,,,,,,,,,,,,,,,,,,,,,,,,,,,,,,,,,,,,
0,29,29,10,1,,602ea981977e11a989ff5d72,629c522d85062e9f89d27da7,2022-06-05_08h53.51.291,Colour_Asymmetry_Pilot,2022.1.3,MacIntel,58.82352941,629c4b6caf241d5e6e00bfc0,,,,,,,,,,,,,,,,,,,,,,,,,,,,,,,,,,,,,,,,,,,,,,,,,,,,,,,,,,,,,,,,,,,,,,,,,,,,,,,,,,,,,,,,,,,,,,,,,,,,,,,,,,,,,,,,,,,,,,,,,,,,,,,,,,,,,,,,,,,,,,,,,,,
0,30,30,46,1,,602ea981977e11a989ff5d72,629c522d85062e9f89d27da7,2022-06-05_08h53.51.291,Colour_Asymmetry_Pilot,2022.1.3,MacIntel,58.82352941,629c4b6caf241d5e6e00bfc0,,,,,,,,,,,,,,,,,,,,,,,,,,,,,,,,,,,,,,,,,,,,,,,,,,,,,,,,,,,,,,,,,,,,,,,,,,,,,,,,,,,,,,,,,,,,,,,,,,,,,,,,,,,,,,,,,,,,,,,,,,,,,,,,,,,,,,,,,,,,,,,,,,,
0,31,31,37,1,,602ea981977e11a989ff5d72,629c522d85062e9f89d27da7,2022-06-05_08h53.51.291,Colour_Asymmetry_Pilot,2022.1.3,MacIntel,58.82352941,629c4b6caf241d5e6e00bfc0,,,,,,,,,,,,,,,,,,,,,,,,,,,,,,,,,,,,,,,,,,,,,,,,,,,,,,,,,,,,,,,,,,,,,,,,,,,,,,,,,,,,,,,,,,,,,,,,,,,,,,,,,,,,,,,,,,,,,,,,,,,,,,,,,,,,,,,,,,,,,,,,,,,
0,32,32,34,1,,602ea981977e11a989ff5d72,629c522d85062e9f89d27da7,2022-06-05_08h53.51.291,Colour_Asymmetry_Pilot,2022.1.3,MacIntel,58.82352941,629c4b6caf241d5e6e00bfc0,,,,,,,,,,,,,,,,,,,,,,,,,,,,,,,,,,,,,,,,,,,,,,,,,,,,,,,,,,,,,,,,,,,,,,,,,,,,,,,,,,,,,,,,,,,,,,,,,,,,,,,,,,,,,,,,,,,,,,,,,,,,,,,,,,,,,,,,,,,,,,,,,,,
0,33,33,80,1,,602ea981977e11a989ff5d72,629c522d85062e9f89d27da7,2022-06-05_08h53.51.291,Colour_Asymmetry_Pilot,2022.1.3,MacIntel,58.82352941,629c4b6caf241d5e6e00bfc0,,,,,,,,,,,,,,,,,,,,,,,,,,,,,,,,,,,,,,,,,,,,,,,,,,,,,,,,,,,,,,,,,,,,,,,,,,,,,,,,,,,,,,,,,,,,,,,,,,,,,,,,,,,,,,,,,,,,,,,,,,,,,,,,,,,,,,,,,,,,,,,,,,,
0,34,34,66,1,,602ea981977e11a989ff5d72,629c522d85062e9f89d27da7,2022-06-05_08h53.51.291,Colour_Asymmetry_Pilot,2022.1.3,MacIntel,58.82352941,629c4b6caf241d5e6e00bfc0,,,,,,,,,,,,,,,,,,,,,,,,,,,,,,,,,,,,,,,,,,,,,,,,,,,,,,,,,,,,,,,,,,,,,,,,,,,,,,,,,,,,,,,,,,,,,,,,,,,,,,,,,,,,,,,,,,,,,,,,,,,,,,,,,,,,,,,,,,,,,,,,,,,
0,35,35,49,1,,602ea981977e11a989ff5d72,629c522d85062e9f89d27da7,2022-06-05_08h53.51.291,Colour_Asymmetry_Pilot,2022.1.3,MacIntel,58.82352941,629c4b6caf241d5e6e00bfc0,,,,,,,,,,,,,,,,,,,,,,,,,,,,,,,,,,,,,,,,,,,,,,,,,,,,,,,,,,,,,,,,,,,,,,,,,,,,,,,,,,,,,,,,,,,,,,,,,,,,,,,,,,,,,,,,,,,,,,,,,,,,,,,,,,,,,,,,,,,,,,,,,,,
0,36,36,25,1,,602ea981977e11a989ff5d72,629c522d85062e9f89d27da7,2022-06-05_08h53.51.291,Colour_Asymmetry_Pilot,2022.1.3,MacIntel,58.82352941,629c4b6caf241d5e6e00bfc0,,,,,,,,,,,,,,,,,,,,,,,,,,,,,,,,,,,,,,,,,,,,,,,,,,,,,,,,,,,,,,,,,,,,,,,,,,,,,,,,,,,,,,,,,,,,,,,,,,,,,,,,,,,,,,,,,,,,,,,,,,,,,,,,,,,,,,,,,,,,,,,,,,,
0,37,37,72,1,,602ea981977e11a989ff5d72,629c522d85062e9f89d27da7,2022-06-05_08h53.51.291,Colour_Asymmetry_Pilot,2022.1.3,MacIntel,58.82352941,629c4b6caf241d5e6e00bfc0,,,,,,,,,,,,,,,,,,,,,,,,,,,,,,,,,,,,,,,,,,,,,,,,,,,,,,,,,,,,,,,,,,,,,,,,,,,,,,,,,,,,,,,,,,,,,,,,,,,,,,,,,,,,,,,,,,,,,,,,,,,,,,,,,,,,,,,,,,,,,,,,,,,
0,38,38,88,1,,602ea981977e11a989ff5d72,629c522d85062e9f89d27da7,2022-06-05_08h53.51.291,Colour_Asymmetry_Pilot,2022.1.3,MacIntel,58.82352941,629c4b6caf241d5e6e00bfc0,,,,,,,,,,,,,,,,,,,,,,,,,,,,,,,,,,,,,,,,,,,,,,,,,,,,,,,,,,,,,,,,,,,,,,,,,,,,,,,,,,,,,,,,,,,,,,,,,,,,,,,,,,,,,,,,,,,,,,,,,,,,,,,,,,,,,,,,,,,,,,,,,,,
0,39,39,16,1,,602ea981977e11a989ff5d72,629c522d85062e9f89d27da7,2022-06-05_08h53.51.291,Colour_Asymmetry_Pilot,2022.1.3,MacIntel,58.82352941,629c4b6caf241d5e6e00bfc0,,,,,,,,,,,,,,,,,,,,,,,,,,,,,,,,,,,,,,,,,,,,,,,,,,,,,,,,,,,,,,,,,,,,,,,,,,,,,,,,,,,,,,,,,,,,,,,,,,,,,,,,,,,,,,,,,,,,,,,,,,,,,,,,,,,,,,,,,,,,,,,,,,,
0,40,40,20,1,,602ea981977e11a989ff5d72,629c522d85062e9f89d27da7,2022-06-05_08h53.51.291,Colour_Asymmetry_Pilot,2022.1.3,MacIntel,58.82352941,629c4b6caf241d5e6e00bfc0,,,,,,,,,,,,,,,,,,,,,,,,,,,,,,,,,,,,,,,,,,,,,,,,,,,,,,,,,,,,,,,,,,,,,,,,,,,,,,,,,,,,,,,,,,,,,,,,,,,,,,,,,,,,,,,,,,,,,,,,,,,,,,,,,,,,,,,,,,,,,,,,,,,
0,41,41,54,1,,602ea981977e11a989ff5d72,629c522d85062e9f89d27da7,2022-06-05_08h53.51.291,Colour_Asymmetry_Pilot,2022.1.3,MacIntel,58.82352941,629c4b6caf241d5e6e00bfc0,,,,,,,,,,,,,,,,,,,,,,,,,,,,,,,,,,,,,,,,,,,,,,,,,,,,,,,,,,,,,,,,,,,,,,,,,,,,,,,,,,,,,,,,,,,,,,,,,,,,,,,,,,,,,,,,,,,,,,,,,,,,,,,,,,,,,,,,,,,,,,,,,,,
0,42,42,28,1,,602ea981977e11a989ff5d72,629c522d85062e9f89d27da7,2022-06-05_08h53.51.291,Colour_Asymmetry_Pilot,2022.1.3,MacIntel,58.82352941,629c4b6caf241d5e6e00bfc0,,,,,,,,,,,,,,,,,,,,,,,,,,,,,,,,,,,,,,,,,,,,,,,,,,,,,,,,,,,,,,,,,,,,,,,,,,,,,,,,,,,,,,,,,,,,,,,,,,,,,,,,,,,,,,,,,,,,,,,,,,,,,,,,,,,,,,,,,,,,,,,,,,,
0,43,43,86,1,,602ea981977e11a989ff5d72,629c522d85062e9f89d27da7,2022-06-05_08h53.51.291,Colour_Asymmetry_Pilot,2022.1.3,MacIntel,58.82352941,629c4b6caf241d5e6e00bfc0,,,,,,,,,,,,,,,,,,,,,,,,,,,,,,,,,,,,,,,,,,,,,,,,,,,,,,,,,,,,,,,,,,,,,,,,,,,,,,,,,,,,,,,,,,,,,,,,,,,,,,,,,,,,,,,,,,,,,,,,,,,,,,,,,,,,,,,,,,,,,,,,,,,
0,44,44,30,1,,602ea981977e11a989ff5d72,629c522d85062e9f89d27da7,2022-06-05_08h53.51.291,Colour_Asymmetry_Pilot,2022.1.3,MacIntel,58.82352941,629c4b6caf241d5e6e00bfc0,,,,,,,,,,,,,,,,,,,,,,,,,,,,,,,,,,,,,,,,,,,,,,,,,,,,,,,,,,,,,,,,,,,,,,,,,,,,,,,,,,,,,,,,,,,,,,,,,,,,,,,,,,,,,,,,,,,,,,,,,,,,,,,,,,,,,,,,,,,,,,,,,,,
0,45,45,84,1,,602ea981977e11a989ff5d72,629c522d85062e9f89d27da7,2022-06-05_08h53.51.291,Colour_Asymmetry_Pilot,2022.1.3,MacIntel,58.82352941,629c4b6caf241d5e6e00bfc0,,,,,,,,,,,,,,,,,,,,,,,,,,,,,,,,,,,,,,,,,,,,,,,,,,,,,,,,,,,,,,,,,,,,,,,,,,,,,,,,,,,,,,,,,,,,,,,,,,,,,,,,,,,,,,,,,,,,,,,,,,,,,,,,,,,,,,,,,,,,,,,,,,,
0,46,46,19,1,,602ea981977e11a989ff5d72,629c522d85062e9f89d27da7,2022-06-05_08h53.51.291,Colour_Asymmetry_Pilot,2022.1.3,MacIntel,58.82352941,629c4b6caf241d5e6e00bfc0,,,,,,,,,,,,,,,,,,,,,,,,,,,,,,,,,,,,,,,,,,,,,,,,,,,,,,,,,,,,,,,,,,,,,,,,,,,,,,,,,,,,,,,,,,,,,,,,,,,,,,,,,,,,,,,,,,,,,,,,,,,,,,,,,,,,,,,,,,,,,,,,,,,
0,47,47,35,1,,602ea981977e11a989ff5d72,629c522d85062e9f89d27da7,2022-06-05_08h53.51.291,Colour_Asymmetry_Pilot,2022.1.3,MacIntel,58.82352941,629c4b6caf241d5e6e00bfc0,,,,,,,,,,,,,,,,,,,,,,,,,,,,,,,,,,,,,,,,,,,,,,,,,,,,,,,,,,,,,,,,,,,,,,,,,,,,,,,,,,,,,,,,,,,,,,,,,,,,,,,,,,,,,,,,,,,,,,,,,,,,,,,,,,,,,,,,,,,,,,,,,,,
0,48,48,91,1,,602ea981977e11a989ff5d72,629c522d85062e9f89d27da7,2022-06-05_08h53.51.291,Colour_Asymmetry_Pilot,2022.1.3,MacIntel,58.82352941,629c4b6caf241d5e6e00bfc0,,,,,,,,,,,,,,,,,,,,,,,,,,,,,,,,,,,,,,,,,,,,,,,,,,,,,,,,,,,,,,,,,,,,,,,,,,,,,,,,,,,,,,,,,,,,,,,,,,,,,,,,,,,,,,,,,,,,,,,,,,,,,,,,,,,,,,,,,,,,,,,,,,,
0,49,49,47,1,,602ea981977e11a989ff5d72,629c522d85062e9f89d27da7,2022-06-05_08h53.51.291,Colour_Asymmetry_Pilot,2022.1.3,MacIntel,58.82352941,629c4b6caf241d5e6e00bfc0,,,,,,,,,,,,,,,,,,,,,,,,,,,,,,,,,,,,,,,,,,,,,,,,,,,,,,,,,,,,,,,,,,,,,,,,,,,,,,,,,,,,,,,,,,,,,,,,,,,,,,,,,,,,,,,,,,,,,,,,,,,,,,,,,,,,,,,,,,,,,,,,,,,
0,50,50,60,1,,602ea981977e11a989ff5d72,629c522d85062e9f89d27da7,2022-06-05_08h53.51.291,Colour_Asymmetry_Pilot,2022.1.3,MacIntel,58.82352941,629c4b6caf241d5e6e00bfc0,,,,,,,,,,,,,,,,,,,,,,,,,,,,,,,,,,,,,,,,,,,,,,,,,,,,,,,,,,,,,,,,,,,,,,,,,,,,,,,,,,,,,,,,,,,,,,,,,,,,,,,,,,,,,,,,,,,,,,,,,,,,,,,,,,,,,,,,,,,,,,,,,,,
0,51,51,42,1,,602ea981977e11a989ff5d72,629c522d85062e9f89d27da7,2022-06-05_08h53.51.291,Colour_Asymmetry_Pilot,2022.1.3,MacIntel,58.82352941,629c4b6caf241d5e6e00bfc0,,,,,,,,,,,,,,,,,,,,,,,,,,,,,,,,,,,,,,,,,,,,,,,,,,,,,,,,,,,,,,,,,,,,,,,,,,,,,,,,,,,,,,,,,,,,,,,,,,,,,,,,,,,,,,,,,,,,,,,,,,,,,,,,,,,,,,,,,,,,,,,,,,,
0,52,52,68,1,,602ea981977e11a989ff5d72,629c522d85062e9f89d27da7,2022-06-05_08h53.51.291,Colour_Asymmetry_Pilot,2022.1.3,MacIntel,58.82352941,629c4b6caf241d5e6e00bfc0,,,,,,,,,,,,,,,,,,,,,,,,,,,,,,,,,,,,,,,,,,,,,,,,,,,,,,,,,,,,,,,,,,,,,,,,,,,,,,,,,,,,,,,,,,,,,,,,,,,,,,,,,,,,,,,,,,,,,,,,,,,,,,,,,,,,,,,,,,,,,,,,,,,
0,53,53,43,1,,602ea981977e11a989ff5d72,629c522d85062e9f89d27da7,2022-06-05_08h53.51.291,Colour_Asymmetry_Pilot,2022.1.3,MacIntel,58.82352941,629c4b6caf241d5e6e00bfc0,,,,,,,,,,,,,,,,,,,,,,,,,,,,,,,,,,,,,,,,,,,,,,,,,,,,,,,,,,,,,,,,,,,,,,,,,,,,,,,,,,,,,,,,,,,,,,,,,,,,,,,,,,,,,,,,,,,,,,,,,,,,,,,,,,,,,,,,,,,,,,,,,,,
0,54,54,56,1,,602ea981977e11a989ff5d72,629c522d85062e9f89d27da7,2022-06-05_08h53.51.291,Colour_Asymmetry_Pilot,2022.1.3,MacIntel,58.82352941,629c4b6caf241d5e6e00bfc0,,,,,,,,,,,,,,,,,,,,,,,,,,,,,,,,,,,,,,,,,,,,,,,,,,,,,,,,,,,,,,,,,,,,,,,,,,,,,,,,,,,,,,,,,,,,,,,,,,,,,,,,,,,,,,,,,,,,,,,,,,,,,,,,,,,,,,,,,,,,,,,,,,,
0,55,55,64,1,,602ea981977e11a989ff5d72,629c522d85062e9f89d27da7,2022-06-05_08h53.51.291,Colour_Asymmetry_Pilot,2022.1.3,MacIntel,58.82352941,629c4b6caf241d5e6e00bfc0,,,,,,,,,,,,,,,,,,,,,,,,,,,,,,,,,,,,,,,,,,,,,,,,,,,,,,,,,,,,,,,,,,,,,,,,,,,,,,,,,,,,,,,,,,,,,,,,,,,,,,,,,,,,,,,,,,,,,,,,,,,,,,,,,,,,,,,,,,,,,,,,,,,
0,56,56,31,1,,602ea981977e11a989ff5d72,629c522d85062e9f89d27da7,2022-06-05_08h53.51.291,Colour_Asymmetry_Pilot,2022.1.3,MacIntel,58.82352941,629c4b6caf241d5e6e00bfc0,,,,,,,,,,,,,,,,,,,,,,,,,,,,,,,,,,,,,,,,,,,,,,,,,,,,,,,,,,,,,,,,,,,,,,,,,,,,,,,,,,,,,,,,,,,,,,,,,,,,,,,,,,,,,,,,,,,,,,,,,,,,,,,,,,,,,,,,,,,,,,,,,,,
0,57,57,50,1,,602ea981977e11a989ff5d72,629c522d85062e9f89d27da7,2022-06-05_08h53.51.291,Colour_Asymmetry_Pilot,2022.1.3,MacIntel,58.82352941,629c4b6caf241d5e6e00bfc0,,,,,,,,,,,,,,,,,,,,,,,,,,,,,,,,,,,,,,,,,,,,,,,,,,,,,,,,,,,,,,,,,,,,,,,,,,,,,,,,,,,,,,,,,,,,,,,,,,,,,,,,,,,,,,,,,,,,,,,,,,,,,,,,,,,,,,,,,,,,,,,,,,,
0,58,58,82,1,,602ea981977e11a989ff5d72,629c522d85062e9f89d27da7,2022-06-05_08h53.51.291,Colour_Asymmetry_Pilot,2022.1.3,MacIntel,58.82352941,629c4b6caf241d5e6e00bfc0,,,,,,,,,,,,,,,,,,,,,,,,,,,,,,,,,,,,,,,,,,,,,,,,,,,,,,,,,,,,,,,,,,,,,,,,,,,,,,,,,,,,,,,,,,,,,,,,,,,,,,,,,,,,,,,,,,,,,,,,,,,,,,,,,,,,,,,,,,,,,,,,,,,
0,59,59,77,1,,602ea981977e11a989ff5d72,629c522d85062e9f89d27da7,2022-06-05_08h53.51.291,Colour_Asymmetry_Pilot,2022.1.3,MacIntel,58.82352941,629c4b6caf241d5e6e00bfc0,,,,,,,,,,,,,,,,,,,,,,,,,,,,,,,,,,,,,,,,,,,,,,,,,,,,,,,,,,,,,,,,,,,,,,,,,,,,,,,,,,,,,,,,,,,,,,,,,,,,,,,,,,,,,,,,,,,,,,,,,,,,,,,,,,,,,,,,,,,,,,,,,,,
0,60,60,24,1,,602ea981977e11a989ff5d72,629c522d85062e9f89d27da7,2022-06-05_08h53.51.291,Colour_Asymmetry_Pilot,2022.1.3,MacIntel,58.82352941,629c4b6caf241d5e6e00bfc0,,,,,,,,,,,,,,,,,,,,,,,,,,,,,,,,,,,,,,,,,,,,,,,,,,,,,,,,,,,,,,,,,,,,,,,,,,,,,,,,,,,,,,,,,,,,,,,,,,,,,,,,,,,,,,,,,,,,,,,,,,,,,,,,,,,,,,,,,,,,,,,,,,,
0,61,61,32,1,,602ea981977e11a989ff5d72,629c522d85062e9f89d27da7,2022-06-05_08h53.51.291,Colour_Asymmetry_Pilot,2022.1.3,MacIntel,58.82352941,629c4b6caf241d5e6e00bfc0,,,,,,,,,,,,,,,,,,,,,,,,,,,,,,,,,,,,,,,,,,,,,,,,,,,,,,,,,,,,,,,,,,,,,,,,,,,,,,,,,,,,,,,,,,,,,,,,,,,,,,,,,,,,,,,,,,,,,,,,,,,,,,,,,,,,,,,,,,,,,,,,,,,
0,62,62,83,1,,602ea981977e11a989ff5d72,629c522d85062e9f89d27da7,2022-06-05_08h53.51.291,Colour_Asymmetry_Pilot,2022.1.3,MacIntel,58.82352941,629c4b6caf241d5e6e00bfc0,,,,,,,,,,,,,,,,,,,,,,,,,,,,,,,,,,,,,,,,,,,,,,,,,,,,,,,,,,,,,,,,,,,,,,,,,,,,,,,,,,,,,,,,,,,,,,,,,,,,,,,,,,,,,,,,,,,,,,,,,,,,,,,,,,,,,,,,,,,,,,,,,,,
0,63,63,36,1,,602ea981977e11a989ff5d72,629c522d85062e9f89d27da7,2022-06-05_08h53.51.291,Colour_Asymmetry_Pilot,2022.1.3,MacIntel,58.82352941,629c4b6caf241d5e6e00bfc0,,,,,,,,,,,,,,,,,,,,,,,,,,,,,,,,,,,,,,,,,,,,,,,,,,,,,,,,,,,,,,,,,,,,,,,,,,,,,,,,,,,,,,,,,,,,,,,,,,,,,,,,,,,,,,,,,,,,,,,,,,,,,,,,,,,,,,,,,,,,,,,,,,,
0,64,64,62,1,,602ea981977e11a989ff5d72,629c522d85062e9f89d27da7,2022-06-05_08h53.51.291,Colour_Asymmetry_Pilot,2022.1.3,MacIntel,58.82352941,629c4b6caf241d5e6e00bfc0,,,,,,,,,,,,,,,,,,,,,,,,,,,,,,,,,,,,,,,,,,,,,,,,,,,,,,,,,,,,,,,,,,,,,,,,,,,,,,,,,,,,,,,,,,,,,,,,,,,,,,,,,,,,,,,,,,,,,,,,,,,,,,,,,,,,,,,,,,,,,,,,,,,
0,65,65,7,1,,602ea981977e11a989ff5d72,629c522d85062e9f89d27da7,2022-06-05_08h53.51.291,Colour_Asymmetry_Pilot,2022.1.3,MacIntel,58.82352941,629c4b6caf241d5e6e00bfc0,,,,,,,,,,,,,,,,,,,,,,,,,,,,,,,,,,,,,,,,,,,,,,,,,,,,,,,,,,,,,,,,,,,,,,,,,,,,,,,,,,,,,,,,,,,,,,,,,,,,,,,,,,,,,,,,,,,,,,,,,,,,,,,,,,,,,,,,,,,,,,,,,,,
0,66,66,58,1,,602ea981977e11a989ff5d72,629c522d85062e9f89d27da7,2022-06-05_08h53.51.291,Colour_Asymmetry_Pilot,2022.1.3,MacIntel,58.82352941,629c4b6caf241d5e6e00bfc0,,,,,,,,,,,,,,,,,,,,,,,,,,,,,,,,,,,,,,,,,,,,,,,,,,,,,,,,,,,,,,,,,,,,,,,,,,,,,,,,,,,,,,,,,,,,,,,,,,,,,,,,,,,,,,,,,,,,,,,,,,,,,,,,,,,,,,,,,,,,,,,,,,,
0,67,67,92,1,,602ea981977e11a989ff5d72,629c522d85062e9f89d27da7,2022-06-05_08h53.51.291,Colour_Asymmetry_Pilot,2022.1.3,MacIntel,58.82352941,629c4b6caf241d5e6e00bfc0,,,,,,,,,,,,,,,,,,,,,,,,,,,,,,,,,,,,,,,,,,,,,,,,,,,,,,,,,,,,,,,,,,,,,,,,,,,,,,,,,,,,,,,,,,,,,,,,,,,,,,,,,,,,,,,,,,,,,,,,,,,,,,,,,,,,,,,,,,,,,,,,,,,
0,68,68,15,1,,602ea981977e11a989ff5d72,629c522d85062e9f89d27da7,2022-06-05_08h53.51.291,Colour_Asymmetry_Pilot,2022.1.3,MacIntel,58.82352941,629c4b6caf241d5e6e00bfc0,,,,,,,,,,,,,,,,,,,,,,,,,,,,,,,,,,,,,,,,,,,,,,,,,,,,,,,,,,,,,,,,,,,,,,,,,,,,,,,,,,,,,,,,,,,,,,,,,,,,,,,,,,,,,,,,,,,,,,,,,,,,,,,,,,,,,,,,,,,,,,,,,,,
0,69,69,51,1,,602ea981977e11a989ff5d72,629c522d85062e9f89d27da7,2022-06-05_08h53.51.291,Colour_Asymmetry_Pilot,2022.1.3,MacIntel,58.82352941,629c4b6caf241d5e6e00bfc0,,,,,,,,,,,,,,,,,,,,,,,,,,,,,,,,,,,,,,,,,,,,,,,,,,,,,,,,,,,,,,,,,,,,,,,,,,,,,,,,,,,,,,,,,,,,,,,,,,,,,,,,,,,,,,,,,,,,,,,,,,,,,,,,,,,,,,,,,,,,,,,,,,,
0,70,70,87,1,,602ea981977e11a989ff5d72,629c522d85062e9f89d27da7,2022-06-05_08h53.51.291,Colour_Asymmetry_Pilot,2022.1.3,MacIntel,58.82352941,629c4b6caf241d5e6e00bfc0,,,,,,,,,,,,,,,,,,,,,,,,,,,,,,,,,,,,,,,,,,,,,,,,,,,,,,,,,,,,,,,,,,,,,,,,,,,,,,,,,,,,,,,,,,,,,,,,,,,,,,,,,,,,,,,,,,,,,,,,,,,,,,,,,,,,,,,,,,,,,,,,,,,
0,71,71,33,1,,602ea981977e11a989ff5d72,629c522d85062e9f89d27da7,2022-06-05_08h53.51.291,Colour_Asymmetry_Pilot,2022.1.3,MacIntel,58.82352941,629c4b6caf241d5e6e00bfc0,,,,,,,,,,,,,,,,,,,,,,,,,,,,,,,,,,,,,,,,,,,,,,,,,,,,,,,,,,,,,,,,,,,,,,,,,,,,,,,,,,,,,,,,,,,,,,,,,,,,,,,,,,,,,,,,,,,,,,,,,,,,,,,,,,,,,,,,,,,,,,,,,,,
0,72,72,27,1,,602ea981977e11a989ff5d72,629c522d85062e9f89d27da7,2022-06-05_08h53.51.291,Colour_Asymmetry_Pilot,2022.1.3,MacIntel,58.82352941,629c4b6caf241d5e6e00bfc0,,,,,,,,,,,,,,,,,,,,,,,,,,,,,,,,,,,,,,,,,,,,,,,,,,,,,,,,,,,,,,,,,,,,,,,,,,,,,,,,,,,,,,,,,,,,,,,,,,,,,,,,,,,,,,,,,,,,,,,,,,,,,,,,,,,,,,,,,,,,,,,,,,,
0,73,73,8,1,,602ea981977e11a989ff5d72,629c522d85062e9f89d27da7,2022-06-05_08h53.51.291,Colour_Asymmetry_Pilot,2022.1.3,MacIntel,58.82352941,629c4b6caf241d5e6e00bfc0,,,,,,,,,,,,,,,,,,,,,,,,,,,,,,,,,,,,,,,,,,,,,,,,,,,,,,,,,,,,,,,,,,,,,,,,,,,,,,,,,,,,,,,,,,,,,,,,,,,,,,,,,,,,,,,,,,,,,,,,,,,,,,,,,,,,,,,,,,,,,,,,,,,
0,74,74,40,1,,602ea981977e11a989ff5d72,629c522d85062e9f89d27da7,2022-06-05_08h53.51.291,Colour_Asymmetry_Pilot,2022.1.3,MacIntel,58.82352941,629c4b6caf241d5e6e00bfc0,,,,,,,,,,,,,,,,,,,,,,,,,,,,,,,,,,,,,,,,,,,,,,,,,,,,,,,,,,,,,,,,,,,,,,,,,,,,,,,,,,,,,,,,,,,,,,,,,,,,,,,,,,,,,,,,,,,,,,,,,,,,,,,,,,,,,,,,,,,,,,,,,,,
0,75,75,4,1,,602ea981977e11a989ff5d72,629c522d85062e9f89d27da7,2022-06-05_08h53.51.291,Colour_Asymmetry_Pilot,2022.1.3,MacIntel,58.82352941,629c4b6caf241d5e6e00bfc0,,,,,,,,,,,,,,,,,,,,,,,,,,,,,,,,,,,,,,,,,,,,,,,,,,,,,,,,,,,,,,,,,,,,,,,,,,,,,,,,,,,,,,,,,,,,,,,,,,,,,,,,,,,,,,,,,,,,,,,,,,,,,,,,,,,,,,,,,,,,,,,,,,,
0,76,76,52,1,,602ea981977e11a989ff5d72,629c522d85062e9f89d27da7,2022-06-05_08h53.51.291,Colour_Asymmetry_Pilot,2022.1.3,MacIntel,58.82352941,629c4b6caf241d5e6e00bfc0,,,,,,,,,,,,,,,,,,,,,,,,,,,,,,,,,,,,,,,,,,,,,,,,,,,,,,,,,,,,,,,,,,,,,,,,,,,,,,,,,,,,,,,,,,,,,,,,,,,,,,,,,,,,,,,,,,,,,,,,,,,,,,,,,,,,,,,,,,,,,,,,,,,
0,77,77,76,1,,602ea981977e11a989ff5d72,629c522d85062e9f89d27da7,2022-06-05_08h53.51.291,Colour_Asymmetry_Pilot,2022.1.3,MacIntel,58.82352941,629c4b6caf241d5e6e00bfc0,,,,,,,,,,,,,,,,,,,,,,,,,,,,,,,,,,,,,,,,,,,,,,,,,,,,,,,,,,,,,,,,,,,,,,,,,,,,,,,,,,,,,,,,,,,,,,,,,,,,,,,,,,,,,,,,,,,,,,,,,,,,,,,,,,,,,,,,,,,,,,,,,,,
0,78,78,3,1,,602ea981977e11a989ff5d72,629c522d85062e9f89d27da7,2022-06-05_08h53.51.291,Colour_Asymmetry_Pilot,2022.1.3,MacIntel,58.82352941,629c4b6caf241d5e6e00bfc0,,,,,,,,,,,,,,,,,,,,,,,,,,,,,,,,,,,,,,,,,,,,,,,,,,,,,,,,,,,,,,,,,,,,,,,,,,,,,,,,,,,,,,,,,,,,,,,,,,,,,,,,,,,,,,,,,,,,,,,,,,,,,,,,,,,,,,,,,,,,,,,,,,,
0,79,79,90,1,,602ea981977e11a989ff5d72,629c522d85062e9f89d27da7,2022-06-05_08h53.51.291,Colour_Asymmetry_Pilot,2022.1.3,MacIntel,58.82352941,629c4b6caf241d5e6e00bfc0,,,,,,,,,,,,,,,,,,,,,,,,,,,,,,,,,,,,,,,,,,,,,,,,,,,,,,,,,,,,,,,,,,,,,,,,,,,,,,,,,,,,,,,,,,,,,,,,,,,,,,,,,,,,,,,,,,,,,,,,,,,,,,,,,,,,,,,,,,,,,,,,,,,
0,80,80,29,1,,602ea981977e11a989ff5d72,629c522d85062e9f89d27da7,2022-06-05_08h53.51.291,Colour_Asymmetry_Pilot,2022.1.3,MacIntel,58.82352941,629c4b6caf241d5e6e00bfc0,,,,,,,,,,,,,,,,,,,,,,,,,,,,,,,,,,,,,,,,,,,,,,,,,,,,,,,,,,,,,,,,,,,,,,,,,,,,,,,,,,,,,,,,,,,,,,,,,,,,,,,,,,,,,,,,,,,,,,,,,,,,,,,,,,,,,,,,,,,,,,,,,,,
0,81,81,26,1,,602ea981977e11a989ff5d72,629c522d85062e9f89d27da7,2022-06-05_08h53.51.291,Colour_Asymmetry_Pilot,2022.1.3,MacIntel,58.82352941,629c4b6caf241d5e6e00bfc0,,,,,,,,,,,,,,,,,,,,,,,,,,,,,,,,,,,,,,,,,,,,,,,,,,,,,,,,,,,,,,,,,,,,,,,,,,,,,,,,,,,,,,,,,,,,,,,,,,,,,,,,,,,,,,,,,,,,,,,,,,,,,,,,,,,,,,,,,,,,,,,,,,,
0,82,82,89,1,,602ea981977e11a989ff5d72,629c522d85062e9f89d27da7,2022-06-05_08h53.51.291,Colour_Asymmetry_Pilot,2022.1.3,MacIntel,58.82352941,629c4b6caf241d5e6e00bfc0,,,,,,,,,,,,,,,,,,,,,,,,,,,,,,,,,,,,,,,,,,,,,,,,,,,,,,,,,,,,,,,,,,,,,,,,,,,,,,,,,,,,,,,,,,,,,,,,,,,,,,,,,,,,,,,,,,,,,,,,,,,,,,,,,,,,,,,,,,,,,,,,,,,
0,83,83,6,1,,602ea981977e11a989ff5d72,629c522d85062e9f89d27da7,2022-06-05_08h53.51.291,Colour_Asymmetry_Pilot,2022.1.3,MacIntel,58.82352941,629c4b6caf241d5e6e00bfc0,,,,,,,,,,,,,,,,,,,,,,,,,,,,,,,,,,,,,,,,,,,,,,,,,,,,,,,,,,,,,,,,,,,,,,,,,,,,,,,,,,,,,,,,,,,,,,,,,,,,,,,,,,,,,,,,,,,,,,,,,,,,,,,,,,,,,,,,,,,,,,,,,,,
0,84,84,85,1,,602ea981977e11a989ff5d72,629c522d85062e9f89d27da7,2022-06-05_08h53.51.291,Colour_Asymmetry_Pilot,2022.1.3,MacIntel,58.82352941,629c4b6caf241d5e6e00bfc0,,,,,,,,,,,,,,,,,,,,,,,,,,,,,,,,,,,,,,,,,,,,,,,,,,,,,,,,,,,,,,,,,,,,,,,,,,,,,,,,,,,,,,,,,,,,,,,,,,,,,,,,,,,,,,,,,,,,,,,,,,,,,,,,,,,,,,,,,,,,,,,,,,,
0,85,85,67,1,,602ea981977e11a989ff5d72,629c522d85062e9f89d27da7,2022-06-05_08h53.51.291,Colour_Asymmetry_Pilot,2022.1.3,MacIntel,58.82352941,629c4b6caf241d5e6e00bfc0,,,,,,,,,,,,,,,,,,,,,,,,,,,,,,,,,,,,,,,,,,,,,,,,,,,,,,,,,,,,,,,,,,,,,,,,,,,,,,,,,,,,,,,,,,,,,,,,,,,,,,,,,,,,,,,,,,,,,,,,,,,,,,,,,,,,,,,,,,,,,,,,,,,
0,86,86,2,1,,602ea981977e11a989ff5d72,629c522d85062e9f89d27da7,2022-06-05_08h53.51.291,Colour_Asymmetry_Pilot,2022.1.3,MacIntel,58.82352941,629c4b6caf241d5e6e00bfc0,,,,,,,,,,,,,,,,,,,,,,,,,,,,,,,,,,,,,,,,,,,,,,,,,,,,,,,,,,,,,,,,,,,,,,,,,,,,,,,,,,,,,,,,,,,,,,,,,,,,,,,,,,,,,,,,,,,,,,,,,,,,,,,,,,,,,,,,,,,,,,,,,,,
0,87,87,57,1,,602ea981977e11a989ff5d72,629c522d85062e9f89d27da7,2022-06-05_08h53.51.291,Colour_Asymmetry_Pilot,2022.1.3,MacIntel,58.82352941,629c4b6caf241d5e6e00bfc0,,,,,,,,,,,,,,,,,,,,,,,,,,,,,,,,,,,,,,,,,,,,,,,,,,,,,,,,,,,,,,,,,,,,,,,,,,,,,,,,,,,,,,,,,,,,,,,,,,,,,,,,,,,,,,,,,,,,,,,,,,,,,,,,,,,,,,,,,,,,,,,,,,,
0,88,88,18,1,,602ea981977e11a989ff5d72,629c522d85062e9f89d27da7,2022-06-05_08h53.51.291,Colour_Asymmetry_Pilot,2022.1.3,MacIntel,58.82352941,629c4b6caf241d5e6e00bfc0,,,,,,,,,,,,,,,,,,,,,,,,,,,,,,,,,,,,,,,,,,,,,,,,,,,,,,,,,,,,,,,,,,,,,,,,,,,,,,,,,,,,,,,,,,,,,,,,,,,,,,,,,,,,,,,,,,,,,,,,,,,,,,,,,,,,,,,,,,,,,,,,,,,
0,89,89,75,1,,602ea981977e11a989ff5d72,629c522d85062e9f89d27da7,2022-06-05_08h53.51.291,Colour_Asymmetry_Pilot,2022.1.3,MacIntel,58.82352941,629c4b6caf241d5e6e00bfc0,,,,,,,,,,,,,,,,,,,,,,,,,,,,,,,,,,,,,,,,,,,,,,,,,,,,,,,,,,,,,,,,,,,,,,,,,,,,,,,,,,,,,,,,,,,,,,,,,,,,,,,,,,,,,,,,,,,,,,,,,,,,,,,,,,,,,,,,,,,,,,,,,,,
0,90,90,61,1,,602ea981977e11a989ff5d72,629c522d85062e9f89d27da7,2022-06-05_08h53.51.291,Colour_Asymmetry_Pilot,2022.1.3,MacIntel,58.82352941,629c4b6caf241d5e6e00bfc0,,,,,,,,,,,,,,,,,,,,,,,,,,,,,,,,,,,,,,,,,,,,,,,,,,,,,,,,,,,,,,,,,,,,,,,,,,,,,,,,,,,,,,,,,,,,,,,,,,,,,,,,,,,,,,,,,,,,,,,,,,,,,,,,,,,,,,,,,,,,,,,,,,,
0,91,91,22,1,,602ea981977e11a989ff5d72,629c522d85062e9f89d27da7,2022-06-05_08h53.51.291,Colour_Asymmetry_Pilot,2022.1.3,MacIntel,58.82352941,629c4b6caf241d5e6e00bfc0,,,,,,,,,,,,,,,,,,,,,,,,,,,,,,,,,,,,,,,,,,,,,,,,,,,,,,,,,,,,,,,,,,,,,,,,,,,,,,,,,,,,,,,,,,,,,,,,,,,,,,,,,,,,,,,,,,,,,,,,,,,,,,,,,,,,,,,,,,,,,,,,,,,
0,92,92,23,1,,602ea981977e11a989ff5d72,629c522d85062e9f89d27da7,2022-06-05_08h53.51.291,Colour_Asymmetry_Pilot,2022.1.3,MacIntel,58.82352941,629c4b6caf241d5e6e00bfc0,,,,,,,,,,,,,,,,,,,,,,,,,,,,,,,,,,,,,,,,,,,,,,,,,,,,,,,,,,,,,,,,,,,,,,,,,,,,,,,,,,,,,,,,,,,,,,,,,,,,,,,,,,,,,,,,,,,,,,,,,,,,,,,,,,,,,,,,,,,,,,,,,,,
,,,,,,602ea981977e11a989ff5d72,629c522d85062e9f89d27da7,2022-06-05_08h53.51.291,Colour_Asymmetry_Pilot,2022.1.3,MacIntel,58.82352941,629c4b6caf241d5e6e00bfc0,0,0,0,50,1,twoone,,,,,,,,,,,,,,,,,,,,,,,,,,,,,,,,,,,,,,,,,,,,,,,,,,,,,,,,,,,,,,,,,,,,,,,,,,,,,,,,,,,,,,,,,,,,,,,,,,,,,,,,,,,,,,,,,,,,,,,,,,,,,,,,,,,,,,,,,,,,,
,,,,,,602ea981977e11a989ff5d72,629c522d85062e9f89d27da7,2022-06-05_08h53.51.291,Colour_Asymmetry_Pilot,2022.1.3,MacIntel,58.82352941,629c4b6caf241d5e6e00bfc0,0,1,1,67,1,twofour,,,,,,,,,,,,,,,,,,,,,,,,,,,,,,,,,,,,,,,,,,,,,,,,,,,,,,,,,,,,,,,,,,,,,,,,,,,,,,,,,,,,,,,,,,,,,,,,,,,,,,,,,,,,,,,,,,,,,,,,,,,,,,,,,,,,,,,,,,,,,
,,,,,,602ea981977e11a989ff5d72,629c522d85062e9f89d27da7,2022-06-05_08h53.51.291,Colour_Asymmetry_Pilot,2022.1.3,MacIntel,58.82352941,629c4b6caf241d5e6e00bfc0,0,2,2,72,1,onetwo,,,,,,,,,,,,,,,,,,,,,,,,,,,,,,,,,,,,,,,,,,,,,,,,,,,,,,,,,,,,,,,,,,,,,,,,,,,,,,,,,,,,,,,,,,,,,,,,,,,,,,,,,,,,,,,,,,,,,,,,,,,,,,,,,,,,,,,,,,,,,
,,,,,,602ea981977e11a989ff5d72,629c522d85062e9f89d27da7,2022-06-05_08h53.51.291,Colour_Asymmetry_Pilot,2022.1.3,MacIntel,58.82352941,629c4b6caf241d5e6e00bfc0,0,3,3,130,1,twoone,,,,,,,,,,,,,,,,,,,,,,,,,,,,,,,,,,,,,,,,,,,,,,,,,,,,,,,,,,,,,,,,,,,,,,,,,,,,,,,,,,,,,,,,,,,,,,,,,,,,,,,,,,,,,,,,,,,,,,,,,,,,,,,,,,,,,,,,,,,,,
,,,,,,602ea981977e11a989ff5d72,629c522d85062e9f89d27da7,2022-06-05_08h53.51.291,Colour_Asymmetry_Pilot,2022.1.3,MacIntel,58.82352941,629c4b6caf241d5e6e00bfc0,0,4,4,133,1,threefour,,,,,,,,,,,,,,,,,,,,,,,,,,,,,,,,,,,,,,,,,,,,,,,,,,,,,,,,,,,,,,,,,,,,,,,,,,,,,,,,,,,,,,,,,,,,,,,,,,,,,,,,,,,,,,,,,,,,,,,,,,,,,,,,,,,,,,,,,,,,,
,,,,,,602ea981977e11a989ff5d72,629c522d85062e9f89d27da7,2022-06-05_08h53.51.291,Colour_Asymmetry_Pilot,2022.1.3,MacIntel,58.82352941,629c4b6caf241d5e6e00bfc0,0,5,5,33,1,onethree,,,,,,,,,,,,,,,,,,,,,,,,,,,,,,,,,,,,,,,,,,,,,,,,,,,,,,,,,,,,,,,,,,,,,,,,,,,,,,,,,,,,,,,,,,,,,,,,,,,,,,,,,,,,,,,,,,,,,,,,,,,,,,,,,,,,,,,,,,,,,
,,,,,,602ea981977e11a989ff5d72,629c522d85062e9f89d27da7,2022-06-05_08h53.51.291,Colour_Asymmetry_Pilot,2022.1.3,MacIntel,58.82352941,629c4b6caf241d5e6e00bfc0,0,6,6,141,1,threefour,,,,,,,,,,,,,,,,,,,,,,,,,,,,,,,,,,,,,,,,,,,,,,,,,,,,,,,,,,,,,,,,,,,,,,,,,,,,,,,,,,,,,,,,,,,,,,,,,,,,,,,,,,,,,,,,,,,,,,,,,,,,,,,,,,,,,,,,,,,,,
,,,,,,602ea981977e11a989ff5d72,629c522d85062e9f89d27da7,2022-06-05_08h53.51.291,Colour_Asymmetry_Pilot,2022.1.3,MacIntel,58.82352941,629c4b6caf241d5e6e00bfc0,0,7,7,160,1,onetwo,,,,,,,,,,,,,,,,,,,,,,,,,,,,,,,,,,,,,,,,,,,,,,,,,,,,,,,,,,,,,,,,,,,,,,,,,,,,,,,,,,,,,,,,,,,,,,,,,,,,,,,,,,,,,,,,,,,,,,,,,,,,,,,,,,,,,,,,,,,,,
,,,,,,602ea981977e11a989ff5d72,629c522d85062e9f89d27da7,2022-06-05_08h53.51.291,Colour_Asymmetry_Pilot,2022.1.3,MacIntel,58.82352941,629c4b6caf241d5e6e00bfc0,0,8,8,48,1,onetwo,,,,,,,,,,,,,,,,,,,,,,,,,,,,,,,,,,,,,,,,,,,,,,,,,,,,,,,,,,,,,,,,,,,,,,,,,,,,,,,,,,,,,,,,,,,,,,,,,,,,,,,,,,,,,,,,,,,,,,,,,,,,,,,,,,,,,,,,,,,,,
,,,,,,602ea981977e11a989ff5d72,629c522d85062e9f89d27da7,2022-06-05_08h53.51.291,Colour_Asymmetry_Pilot,2022.1.3,MacIntel,58.82352941,629c4b6caf241d5e6e00bfc0,0,9,9,68,1,threeone,,,,,,,,,,,,,,,,,,,,,,,,,,,,,,,,,,,,,,,,,,,,,,,,,,,,,,,,,,,,,,,,,,,,,,,,,,,,,,,,,,,,,,,,,,,,,,,,,,,,,,,,,,,,,,,,,,,,,,,,,,,,,,,,,,,,,,,,,,,,,
,,,,,,602ea981977e11a989ff5d72,629c522d85062e9f89d27da7,2022-06-05_08h53.51.291,Colour_Asymmetry_Pilot,2022.1.3,MacIntel,58.82352941,629c4b6caf241d5e6e00bfc0,0,10,10,95,1,fourthree,,,,,,,,,,,,,,,,,,,,,,,,,,,,,,,,,,,,,,,,,,,,,,,,,,,,,,,,,,,,,,,,,,,,,,,,,,,,,,,,,,,,,,,,,,,,,,,,,,,,,,,,,,,,,,,,,,,,,,,,,,,,,,,,,,,,,,,,,,,,,
,,,,,,602ea981977e11a989ff5d72,629c522d85062e9f89d27da7,2022-06-05_08h53.51.291,Colour_Asymmetry_Pilot,2022.1.3,MacIntel,58.82352941,629c4b6caf241d5e6e00bfc0,0,11,11,143,1,fourthree,,,,,,,,,,,,,,,,,,,,,,,,,,,,,,,,,,,,,,,,,,,,,,,,,,,,,,,,,,,,,,,,,,,,,,,,,,,,,,,,,,,,,,,,,,,,,,,,,,,,,,,,,,,,,,,,,,,,,,,,,,,,,,,,,,,,,,,,,,,,,
,,,,,,602ea981977e11a989ff5d72,629c522d85062e9f89d27da7,2022-06-05_08h53.51.291,Colour_Asymmetry_Pilot,2022.1.3,MacIntel,58.82352941,629c4b6caf241d5e6e00bfc0,0,12,12,61,1,threefour,,,,,,,,,,,,,,,,,,,,,,,,,,,,,,,,,,,,,,,,,,,,,,,,,,,,,,,,,,,,,,,,,,,,,,,,,,,,,,,,,,,,,,,,,,,,,,,,,,,,,,,,,,,,,,,,,,,,,,,,,,,,,,,,,,,,,,,,,,,,,
,,,,,,602ea981977e11a989ff5d72,629c522d85062e9f89d27da7,2022-06-05_08h53.51.291,Colour_Asymmetry_Pilot,2022.1.3,MacIntel,58.82352941,629c4b6caf241d5e6e00bfc0,0,13,13,62,1,fourtwo,,,,,,,,,,,,,,,,,,,,,,,,,,,,,,,,,,,,,,,,,,,,,,,,,,,,,,,,,,,,,,,,,,,,,,,,,,,,,,,,,,,,,,,,,,,,,,,,,,,,,,,,,,,,,,,,,,,,,,,,,,,,,,,,,,,,,,,,,,,,,
,,,,,,602ea981977e11a989ff5d72,629c522d85062e9f89d27da7,2022-06-05_08h53.51.291,Colour_Asymmetry_Pilot,2022.1.3,MacIntel,58.82352941,629c4b6caf241d5e6e00bfc0,0,14,14,56,1,onetwo,,,,,,,,,,,,,,,,,,,,,,,,,,,,,,,,,,,,,,,,,,,,,,,,,,,,,,,,,,,,,,,,,,,,,,,,,,,,,,,,,,,,,,,,,,,,,,,,,,,,,,,,,,,,,,,,,,,,,,,,,,,,,,,,,,,,,,,,,,,,,
,,,,,,602ea981977e11a989ff5d72,629c522d85062e9f89d27da7,2022-06-05_08h53.51.291,Colour_Asymmetry_Pilot,2022.1.3,MacIntel,58.82352941,629c4b6caf241d5e6e00bfc0,0,15,15,107,1,twofour,,,,,,,,,,,,,,,,,,,,,,,,,,,,,,,,,,,,,,,,,,,,,,,,,,,,,,,,,,,,,,,,,,,,,,,,,,,,,,,,,,,,,,,,,,,,,,,,,,,,,,,,,,,,,,,,,,,,,,,,,,,,,,,,,,,,,,,,,,,,,
,,,,,,602ea981977e11a989ff5d72,629c522d85062e9f89d27da7,2022-06-05_08h53.51.291,Colour_Asymmetry_Pilot,2022.1.3,MacIntel,58.82352941,629c4b6caf241d5e6e00bfc0,0,16,16,6,1,fourtwo,,,,,,,,,,,,,,,,,,,,,,,,,,,,,,,,,,,,,,,,,,,,,,,,,,,,,,,,,,,,,,,,,,,,,,,,,,,,,,,,,,,,,,,,,,,,,,,,,,,,,,,,,,,,,,,,,,,,,,,,,,,,,,,,,,,,,,,,,,,,,
,,,,,,602ea981977e11a989ff5d72,629c522d85062e9f89d27da7,2022-06-05_08h53.51.291,Colour_Asymmetry_Pilot,2022.1.3,MacIntel,58.82352941,629c4b6caf241d5e6e00bfc0,0,17,17,120,1,onetwo,,,,,,,,,,,,,,,,,,,,,,,,,,,,,,,,,,,,,,,,,,,,,,,,,,,,,,,,,,,,,,,,,,,,,,,,,,,,,,,,,,,,,,,,,,,,,,,,,,,,,,,,,,,,,,,,,,,,,,,,,,,,,,,,,,,,,,,,,,,,,
,,,,,,602ea981977e11a989ff5d72,629c522d85062e9f89d27da7,2022-06-05_08h53.51.291,Colour_Asymmetry_Pilot,2022.1.3,MacIntel,58.82352941,629c4b6caf241d5e6e00bfc0,0,18,18,63,1,fourthree,,,,,,,,,,,,,,,,,,,,,,,,,,,,,,,,,,,,,,,,,,,,,,,,,,,,,,,,,,,,,,,,,,,,,,,,,,,,,,,,,,,,,,,,,,,,,,,,,,,,,,,,,,,,,,,,,,,,,,,,,,,,,,,,,,,,,,,,,,,,,
,,,,,,602ea981977e11a989ff5d72,629c522d85062e9f89d27da7,2022-06-05_08h53.51.291,Colour_Asymmetry_Pilot,2022.1.3,MacIntel,58.82352941,629c4b6caf241d5e6e00bfc0,0,19,19,121,1,onethree,,,,,,,,,,,,,,,,,,,,,,,,,,,,,,,,,,,,,,,,,,,,,,,,,,,,,,,,,,,,,,,,,,,,,,,,,,,,,,,,,,,,,,,,,,,,,,,,,,,,,,,,,,,,,,,,,,,,,,,,,,,,,,,,,,,,,,,,,,,,,
,,,,,,602ea981977e11a989ff5d72,629c522d85062e9f89d27da7,2022-06-05_08h53.51.291,Colour_Asymmetry_Pilot,2022.1.3,MacIntel,58.82352941,629c4b6caf241d5e6e00bfc0,0,20,20,132,1,threeone,,,,,,,,,,,,,,,,,,,,,,,,,,,,,,,,,,,,,,,,,,,,,,,,,,,,,,,,,,,,,,,,,,,,,,,,,,,,,,,,,,,,,,,,,,,,,,,,,,,,,,,,,,,,,,,,,,,,,,,,,,,,,,,,,,,,,,,,,,,,,
,,,,,,602ea981977e11a989ff5d72,629c522d85062e9f89d27da7,2022-06-05_08h53.51.291,Colour_Asymmetry_Pilot,2022.1.3,MacIntel,58.82352941,629c4b6caf241d5e6e00bfc0,0,21,21,20,1,threeone,,,,,,,,,,,,,,,,,,,,,,,,,,,,,,,,,,,,,,,,,,,,,,,,,,,,,,,,,,,,,,,,,,,,,,,,,,,,,,,,,,,,,,,,,,,,,,,,,,,,,,,,,,,,,,,,,,,,,,,,,,,,,,,,,,,,,,,,,,,,,
,,,,,,602ea981977e11a989ff5d72,629c522d85062e9f89d27da7,2022-06-05_08h53.51.291,Colour_Asymmetry_Pilot,2022.1.3,MacIntel,58.82352941,629c4b6caf241d5e6e00bfc0,0,22,22,124,1,threeone,,,,,,,,,,,,,,,,,,,,,,,,,,,,,,,,,,,,,,,,,,,,,,,,,,,,,,,,,,,,,,,,,,,,,,,,,,,,,,,,,,,,,,,,,,,,,,,,,,,,,,,,,,,,,,,,,,,,,,,,,,,,,,,,,,,,,,,,,,,,,
,,,,,,602ea981977e11a989ff5d72,629c522d85062e9f89d27da7,2022-06-05_08h53.51.291,Colour_Asymmetry_Pilot,2022.1.3,MacIntel,58.82352941,629c4b6caf241d5e6e00bfc0,0,23,23,148,1,threeone,,,,,,,,,,,,,,,,,,,,,,,,,,,,,,,,,,,,,,,,,,,,,,,,,,,,,,,,,,,,,,,,,,,,,,,,,,,,,,,,,,,,,,,,,,,,,,,,,,,,,,,,,,,,,,,,,,,,,,,,,,,,,,,,,,,,,,,,,,,,,
,,,,,,602ea981977e11a989ff5d72,629c522d85062e9f89d27da7,2022-06-05_08h53.51.291,Colour_Asymmetry_Pilot,2022.1.3,MacIntel,58.82352941,629c4b6caf241d5e6e00bfc0,0,24,24,59,1,twofour,,,,,,,,,,,,,,,,,,,,,,,,,,,,,,,,,,,,,,,,,,,,,,,,,,,,,,,,,,,,,,,,,,,,,,,,,,,,,,,,,,,,,,,,,,,,,,,,,,,,,,,,,,,,,,,,,,,,,,,,,,,,,,,,,,,,,,,,,,,,,
,,,,,,602ea981977e11a989ff5d72,629c522d85062e9f89d27da7,2022-06-05_08h53.51.291,Colour_Asymmetry_Pilot,2022.1.3,MacIntel,58.82352941,629c4b6caf241d5e6e00bfc0,0,25,25,125,1,threefour,,,,,,,,,,,,,,,,,,,,,,,,,,,,,,,,,,,,,,,,,,,,,,,,,,,,,,,,,,,,,,,,,,,,,,,,,,,,,,,,,,,,,,,,,,,,,,,,,,,,,,,,,,,,,,,,,,,,,,,,,,,,,,,,,,,,,,,,,,,,,
,,,,,,602ea981977e11a989ff5d72,629c522d85062e9f89d27da7,2022-06-05_08h53.51.291,Colour_Asymmetry_Pilot,2022.1.3,MacIntel,58.82352941,629c4b6caf241d5e6e00bfc0,0,26,26,76,1,threeone,,,,,,,,,,,,,,,,,,,,,,,,,,,,,,,,,,,,,,,,,,,,,,,,,,,,,,,,,,,,,,,,,,,,,,,,,,,,,,,,,,,,,,,,,,,,,,,,,,,,,,,,,,,,,,,,,,,,,,,,,,,,,,,,,,,,,,,,,,,,,
,,,,,,602ea981977e11a989ff5d72,629c522d85062e9f89d27da7,2022-06-05_08h53.51.291,Colour_Asymmetry_Pilot,2022.1.3,MacIntel,58.82352941,629c4b6caf241d5e6e00bfc0,0,27,27,123,1,twofour,,,,,,,,,,,,,,,,,,,,,,,,,,,,,,,,,,,,,,,,,,,,,,,,,,,,,,,,,,,,,,,,,,,,,,,,,,,,,,,,,,,,,,,,,,,,,,,,,,,,,,,,,,,,,,,,,,,,,,,,,,,,,,,,,,,,,,,,,,,,,
,,,,,,602ea981977e11a989ff5d72,629c522d85062e9f89d27da7,2022-06-05_08h53.51.291,Colour_Asymmetry_Pilot,2022.1.3,MacIntel,58.82352941,629c4b6caf241d5e6e00bfc0,0,28,28,71,1,fourthree,,,,,,,,,,,,,,,,,,,,,,,,,,,,,,,,,,,,,,,,,,,,,,,,,,,,,,,,,,,,,,,,,,,,,,,,,,,,,,,,,,,,,,,,,,,,,,,,,,,,,,,,,,,,,,,,,,,,,,,,,,,,,,,,,,,,,,,,,,,,,
,,,,,,602ea981977e11a989ff5d72,629c522d85062e9f89d27da7,2022-06-05_08h53.51.291,Colour_Asymmetry_Pilot,2022.1.3,MacIntel,58.82352941,629c4b6caf241d5e6e00bfc0,0,29,29,88,1,onetwo,,,,,,,,,,,,,,,,,,,,,,,,,,,,,,,,,,,,,,,,,,,,,,,,,,,,,,,,,,,,,,,,,,,,,,,,,,,,,,,,,,,,,,,,,,,,,,,,,,,,,,,,,,,,,,,,,,,,,,,,,,,,,,,,,,,,,,,,,,,,,
,,,,,,602ea981977e11a989ff5d72,629c522d85062e9f89d27da7,2022-06-05_08h53.51.291,Colour_Asymmetry_Pilot,2022.1.3,MacIntel,58.82352941,629c4b6caf241d5e6e00bfc0,0,30,30,110,1,fourtwo,,,,,,,,,,,,,,,,,,,,,,,,,,,,,,,,,,,,,,,,,,,,,,,,,,,,,,,,,,,,,,,,,,,,,,,,,,,,,,,,,,,,,,,,,,,,,,,,,,,,,,,,,,,,,,,,,,,,,,,,,,,,,,,,,,,,,,,,,,,,,
,,,,,,602ea981977e11a989ff5d72,629c522d85062e9f89d27da7,2022-06-05_08h53.51.291,Colour_Asymmetry_Pilot,2022.1.3,MacIntel,58.82352941,629c4b6caf241d5e6e00bfc0,0,31,31,137,1,onethree,,,,,,,,,,,,,,,,,,,,,,,,,,,,,,,,,,,,,,,,,,,,,,,,,,,,,,,,,,,,,,,,,,,,,,,,,,,,,,,,,,,,,,,,,,,,,,,,,,,,,,,,,,,,,,,,,,,,,,,,,,,,,,,,,,,,,,,,,,,,,
,,,,,,602ea981977e11a989ff5d72,629c522d85062e9f89d27da7,2022-06-05_08h53.51.291,Colour_Asymmetry_Pilot,2022.1.3,MacIntel,58.82352941,629c4b6caf241d5e6e00bfc0,0,32,32,4,1,threeone,,,,,,,,,,,,,,,,,,,,,,,,,,,,,,,,,,,,,,,,,,,,,,,,,,,,,,,,,,,,,,,,,,,,,,,,,,,,,,,,,,,,,,,,,,,,,,,,,,,,,,,,,,,,,,,,,,,,,,,,,,,,,,,,,,,,,,,,,,,,,
,,,,,,602ea981977e11a989ff5d72,629c522d85062e9f89d27da7,2022-06-05_08h53.51.291,Colour_Asymmetry_Pilot,2022.1.3,MacIntel,58.82352941,629c4b6caf241d5e6e00bfc0,0,33,33,92,1,threeone,,,,,,,,,,,,,,,,,,,,,,,,,,,,,,,,,,,,,,,,,,,,,,,,,,,,,,,,,,,,,,,,,,,,,,,,,,,,,,,,,,,,,,,,,,,,,,,,,,,,,,,,,,,,,,,,,,,,,,,,,,,,,,,,,,,,,,,,,,,,,
,,,,,,602ea981977e11a989ff5d72,629c522d85062e9f89d27da7,2022-06-05_08h53.51.291,Colour_Asymmetry_Pilot,2022.1.3,MacIntel,58.82352941,629c4b6caf241d5e6e00bfc0,0,34,34,159,1,fourthree,,,,,,,,,,,,,,,,,,,,,,,,,,,,,,,,,,,,,,,,,,,,,,,,,,,,,,,,,,,,,,,,,,,,,,,,,,,,,,,,,,,,,,,,,,,,,,,,,,,,,,,,,,,,,,,,,,,,,,,,,,,,,,,,,,,,,,,,,,,,,
,,,,,,602ea981977e11a989ff5d72,629c522d85062e9f89d27da7,2022-06-05_08h53.51.291,Colour_Asymmetry_Pilot,2022.1.3,MacIntel,58.82352941,629c4b6caf241d5e6e00bfc0,0,35,35,80,1,onetwo,,,,,,,,,,,,,,,,,,,,,,,,,,,,,,,,,,,,,,,,,,,,,,,,,,,,,,,,,,,,,,,,,,,,,,,,,,,,,,,,,,,,,,,,,,,,,,,,,,,,,,,,,,,,,,,,,,,,,,,,,,,,,,,,,,,,,,,,,,,,,
,,,,,,602ea981977e11a989ff5d72,629c522d85062e9f89d27da7,2022-06-05_08h53.51.291,Colour_Asymmetry_Pilot,2022.1.3,MacIntel,58.82352941,629c4b6caf241d5e6e00bfc0,0,36,36,144,1,onetwo,,,,,,,,,,,,,,,,,,,,,,,,,,,,,,,,,,,,,,,,,,,,,,,,,,,,,,,,,,,,,,,,,,,,,,,,,,,,,,,,,,,,,,,,,,,,,,,,,,,,,,,,,,,,,,,,,,,,,,,,,,,,,,,,,,,,,,,,,,,,,
,,,,,,602ea981977e11a989ff5d72,629c522d85062e9f89d27da7,2022-06-05_08h53.51.291,Colour_Asymmetry_Pilot,2022.1.3,MacIntel,58.82352941,629c4b6caf241d5e6e00bfc0,0,37,37,142,1,fourtwo,,,,,,,,,,,,,,,,,,,,,,,,,,,,,,,,,,,,,,,,,,,,,,,,,,,,,,,,,,,,,,,,,,,,,,,,,,,,,,,,,,,,,,,,,,,,,,,,,,,,,,,,,,,,,,,,,,,,,,,,,,,,,,,,,,,,,,,,,,,,,
,,,,,,602ea981977e11a989ff5d72,629c522d85062e9f89d27da7,2022-06-05_08h53.51.291,Colour_Asymmetry_Pilot,2022.1.3,MacIntel,58.82352941,629c4b6caf241d5e6e00bfc0,0,38,38,89,1,onethree,,,,,,,,,,,,,,,,,,,,,,,,,,,,,,,,,,,,,,,,,,,,,,,,,,,,,,,,,,,,,,,,,,,,,,,,,,,,,,,,,,,,,,,,,,,,,,,,,,,,,,,,,,,,,,,,,,,,,,,,,,,,,,,,,,,,,,,,,,,,,
,,,,,,602ea981977e11a989ff5d72,629c522d85062e9f89d27da7,2022-06-05_08h53.51.291,Colour_Asymmetry_Pilot,2022.1.3,MacIntel,58.82352941,629c4b6caf241d5e6e00bfc0,0,39,39,138,1,twoone,,,,,,,,,,,,,,,,,,,,,,,,,,,,,,,,,,,,,,,,,,,,,,,,,,,,,,,,,,,,,,,,,,,,,,,,,,,,,,,,,,,,,,,,,,,,,,,,,,,,,,,,,,,,,,,,,,,,,,,,,,,,,,,,,,,,,,,,,,,,,
,,,,,,602ea981977e11a989ff5d72,629c522d85062e9f89d27da7,2022-06-05_08h53.51.291,Colour_Asymmetry_Pilot,2022.1.3,MacIntel,58.82352941,629c4b6caf241d5e6e00bfc0,0,40,40,45,1,threefour,,,,,,,,,,,,,,,,,,,,,,,,,,,,,,,,,,,,,,,,,,,,,,,,,,,,,,,,,,,,,,,,,,,,,,,,,,,,,,,,,,,,,,,,,,,,,,,,,,,,,,,,,,,,,,,,,,,,,,,,,,,,,,,,,,,,,,,,,,,,,
,,,,,,602ea981977e11a989ff5d72,629c522d85062e9f89d27da7,2022-06-05_08h53.51.291,Colour_Asymmetry_Pilot,2022.1.3,MacIntel,58.82352941,629c4b6caf241d5e6e00bfc0,0,41,41,54,1,fourtwo,,,,,,,,,,,,,,,,,,,,,,,,,,,,,,,,,,,,,,,,,,,,,,,,,,,,,,,,,,,,,,,,,,,,,,,,,,,,,,,,,,,,,,,,,,,,,,,,,,,,,,,,,,,,,,,,,,,,,,,,,,,,,,,,,,,,,,,,,,,,,
,,,,,,602ea981977e11a989ff5d72,629c522d85062e9f89d27da7,2022-06-05_08h53.51.291,Colour_Asymmetry_Pilot,2022.1.3,MacIntel,58.82352941,629c4b6caf241d5e6e00bfc0,0,42,42,57,1,onethree,,,,,,,,,,,,,,,,,,,,,,,,,,,,,,,,,,,,,,,,,,,,,,,,,,,,,,,,,,,,,,,,,,,,,,,,,,,,,,,,,,,,,,,,,,,,,,,,,,,,,,,,,,,,,,,,,,,,,,,,,,,,,,,,,,,,,,,,,,,,,
,,,,,,602ea981977e11a989ff5d72,629c522d85062e9f89d27da7,2022-06-05_08h53.51.291,Colour_Asymmetry_Pilot,2022.1.3,MacIntel,58.82352941,629c4b6caf241d5e6e00bfc0,0,43,43,145,1,onethree,,,,,,,,,,,,,,,,,,,,,,,,,,,,,,,,,,,,,,,,,,,,,,,,,,,,,,,,,,,,,,,,,,,,,,,,,,,,,,,,,,,,,,,,,,,,,,,,,,,,,,,,,,,,,,,,,,,,,,,,,,,,,,,,,,,,,,,,,,,,,
,,,,,,602ea981977e11a989ff5d72,629c522d85062e9f89d27da7,2022-06-05_08h53.51.291,Colour_Asymmetry_Pilot,2022.1.3,MacIntel,58.82352941,629c4b6caf241d5e6e00bfc0,0,44,44,91,1,twofour,,,,,,,,,,,,,,,,,,,,,,,,,,,,,,,,,,,,,,,,,,,,,,,,,,,,,,,,,,,,,,,,,,,,,,,,,,,,,,,,,,,,,,,,,,,,,,,,,,,,,,,,,,,,,,,,,,,,,,,,,,,,,,,,,,,,,,,,,,,,,
,,,,,,602ea981977e11a989ff5d72,629c522d85062e9f89d27da7,2022-06-05_08h53.51.291,Colour_Asymmetry_Pilot,2022.1.3,MacIntel,58.82352941,629c4b6caf241d5e6e00bfc0,0,45,45,25,1,onethree,,,,,,,,,,,,,,,,,,,,,,,,,,,,,,,,,,,,,,,,,,,,,,,,,,,,,,,,,,,,,,,,,,,,,,,,,,,,,,,,,,,,,,,,,,,,,,,,,,,,,,,,,,,,,,,,,,,,,,,,,,,,,,,,,,,,,,,,,,,,,
,,,,,,602ea981977e11a989ff5d72,629c522d85062e9f89d27da7,2022-06-05_08h53.51.291,Colour_Asymmetry_Pilot,2022.1.3,MacIntel,58.82352941,629c4b6caf241d5e6e00bfc0,0,46,46,136,1,onetwo,,,,,,,,,,,,,,,,,,,,,,,,,,,,,,,,,,,,,,,,,,,,,,,,,,,,,,,,,,,,,,,,,,,,,,,,,,,,,,,,,,,,,,,,,,,,,,,,,,,,,,,,,,,,,,,,,,,,,,,,,,,,,,,,,,,,,,,,,,,,,
,,,,,,602ea981977e11a989ff5d72,629c522d85062e9f89d27da7,2022-06-05_08h53.51.291,Colour_Asymmetry_Pilot,2022.1.3,MacIntel,58.82352941,629c4b6caf241d5e6e00bfc0,0,47,47,152,1,onetwo,,,,,,,,,,,,,,,,,,,,,,,,,,,,,,,,,,,,,,,,,,,,,,,,,,,,,,,,,,,,,,,,,,,,,,,,,,,,,,,,,,,,,,,,,,,,,,,,,,,,,,,,,,,,,,,,,,,,,,,,,,,,,,,,,,,,,,,,,,,,,
,,,,,,602ea981977e11a989ff5d72,629c522d85062e9f89d27da7,2022-06-05_08h53.51.291,Colour_Asymmetry_Pilot,2022.1.3,MacIntel,58.82352941,629c4b6caf241d5e6e00bfc0,0,48,48,128,1,onetwo,,,,,,,,,,,,,,,,,,,,,,,,,,,,,,,,,,,,,,,,,,,,,,,,,,,,,,,,,,,,,,,,,,,,,,,,,,,,,,,,,,,,,,,,,,,,,,,,,,,,,,,,,,,,,,,,,,,,,,,,,,,,,,,,,,,,,,,,,,,,,
,,,,,,602ea981977e11a989ff5d72,629c522d85062e9f89d27da7,2022-06-05_08h53.51.291,Colour_Asymmetry_Pilot,2022.1.3,MacIntel,58.82352941,629c4b6caf241d5e6e00bfc0,0,49,49,51,1,twofour,,,,,,,,,,,,,,,,,,,,,,,,,,,,,,,,,,,,,,,,,,,,,,,,,,,,,,,,,,,,,,,,,,,,,,,,,,,,,,,,,,,,,,,,,,,,,,,,,,,,,,,,,,,,,,,,,,,,,,,,,,,,,,,,,,,,,,,,,,,,,
,,,,,,602ea981977e11a989ff5d72,629c522d85062e9f89d27da7,2022-06-05_08h53.51.291,Colour_Asymmetry_Pilot,2022.1.3,MacIntel,58.82352941,629c4b6caf241d5e6e00bfc0,0,50,50,43,1,twofour,,,,,,,,,,,,,,,,,,,,,,,,,,,,,,,,,,,,,,,,,,,,,,,,,,,,,,,,,,,,,,,,,,,,,,,,,,,,,,,,,,,,,,,,,,,,,,,,,,,,,,,,,,,,,,,,,,,,,,,,,,,,,,,,,,,,,,,,,,,,,
,,,,,,602ea981977e11a989ff5d72,629c522d85062e9f89d27da7,2022-06-05_08h53.51.291,Colour_Asymmetry_Pilot,2022.1.3,MacIntel,58.82352941,629c4b6caf241d5e6e00bfc0,0,51,51,42,1,twoone,,,,,,,,,,,,,,,,,,,,,,,,,,,,,,,,,,,,,,,,,,,,,,,,,,,,,,,,,,,,,,,,,,,,,,,,,,,,,,,,,,,,,,,,,,,,,,,,,,,,,,,,,,,,,,,,,,,,,,,,,,,,,,,,,,,,,,,,,,,,,
,,,,,,602ea981977e11a989ff5d72,629c522d85062e9f89d27da7,2022-06-05_08h53.51.291,Colour_Asymmetry_Pilot,2022.1.3,MacIntel,58.82352941,629c4b6caf241d5e6e00bfc0,0,52,52,18,1,twoone,,,,,,,,,,,,,,,,,,,,,,,,,,,,,,,,,,,,,,,,,,,,,,,,,,,,,,,,,,,,,,,,,,,,,,,,,,,,,,,,,,,,,,,,,,,,,,,,,,,,,,,,,,,,,,,,,,,,,,,,,,,,,,,,,,,,,,,,,,,,,
,,,,,,602ea981977e11a989ff5d72,629c522d85062e9f89d27da7,2022-06-05_08h53.51.291,Colour_Asymmetry_Pilot,2022.1.3,MacIntel,58.82352941,629c4b6caf241d5e6e00bfc0,0,53,53,58,1,twoone,,,,,,,,,,,,,,,,,,,,,,,,,,,,,,,,,,,,,,,,,,,,,,,,,,,,,,,,,,,,,,,,,,,,,,,,,,,,,,,,,,,,,,,,,,,,,,,,,,,,,,,,,,,,,,,,,,,,,,,,,,,,,,,,,,,,,,,,,,,,,
,,,,,,602ea981977e11a989ff5d72,629c522d85062e9f89d27da7,2022-06-05_08h53.51.291,Colour_Asymmetry_Pilot,2022.1.3,MacIntel,58.82352941,629c4b6caf241d5e6e00bfc0,0,54,54,154,1,twoone,,,,,,,,,,,,,,,,,,,,,,,,,,,,,,,,,,,,,,,,,,,,,,,,,,,,,,,,,,,,,,,,,,,,,,,,,,,,,,,,,,,,,,,,,,,,,,,,,,,,,,,,,,,,,,,,,,,,,,,,,,,,,,,,,,,,,,,,,,,,,
,,,,,,602ea981977e11a989ff5d72,629c522d85062e9f89d27da7,2022-06-05_08h53.51.291,Colour_Asymmetry_Pilot,2022.1.3,MacIntel,58.82352941,629c4b6caf241d5e6e00bfc0,0,55,55,38,1,fourtwo,,,,,,,,,,,,,,,,,,,,,,,,,,,,,,,,,,,,,,,,,,,,,,,,,,,,,,,,,,,,,,,,,,,,,,,,,,,,,,,,,,,,,,,,,,,,,,,,,,,,,,,,,,,,,,,,,,,,,,,,,,,,,,,,,,,,,,,,,,,,,
,,,,,,602ea981977e11a989ff5d72,629c522d85062e9f89d27da7,2022-06-05_08h53.51.291,Colour_Asymmetry_Pilot,2022.1.3,MacIntel,58.82352941,629c4b6caf241d5e6e00bfc0,0,56,56,0,1,onetwo,,,,,,,,,,,,,,,,,,,,,,,,,,,,,,,,,,,,,,,,,,,,,,,,,,,,,,,,,,,,,,,,,,,,,,,,,,,,,,,,,,,,,,,,,,,,,,,,,,,,,,,,,,,,,,,,,,,,,,,,,,,,,,,,,,,,,,,,,,,,,
,,,,,,602ea981977e11a989ff5d72,629c522d85062e9f89d27da7,2022-06-05_08h53.51.291,Colour_Asymmetry_Pilot,2022.1.3,MacIntel,58.82352941,629c4b6caf241d5e6e00bfc0,0,57,57,140,1,threeone,,,,,,,,,,,,,,,,,,,,,,,,,,,,,,,,,,,,,,,,,,,,,,,,,,,,,,,,,,,,,,,,,,,,,,,,,,,,,,,,,,,,,,,,,,,,,,,,,,,,,,,,,,,,,,,,,,,,,,,,,,,,,,,,,,,,,,,,,,,,,
,,,,,,602ea981977e11a989ff5d72,629c522d85062e9f89d27da7,2022-06-05_08h53.51.291,Colour_Asymmetry_Pilot,2022.1.3,MacIntel,58.82352941,629c4b6caf241d5e6e00bfc0,0,58,58,37,1,threefour,,,,,,,,,,,,,,,,,,,,,,,,,,,,,,,,,,,,,,,,,,,,,,,,,,,,,,,,,,,,,,,,,,,,,,,,,,,,,,,,,,,,,,,,,,,,,,,,,,,,,,,,,,,,,,,,,,,,,,,,,,,,,,,,,,,,,,,,,,,,,
,,,,,,602ea981977e11a989ff5d72,629c522d85062e9f89d27da7,2022-06-05_08h53.51.291,Colour_Asymmetry_Pilot,2022.1.3,MacIntel,58.82352941,629c4b6caf241d5e6e00bfc0,0,59,59,122,1,twoone,,,,,,,,,,,,,,,,,,,,,,,,,,,,,,,,,,,,,,,,,,,,,,,,,,,,,,,,,,,,,,,,,,,,,,,,,,,,,,,,,,,,,,,,,,,,,,,,,,,,,,,,,,,,,,,,,,,,,,,,,,,,,,,,,,,,,,,,,,,,,
,,,,,,602ea981977e11a989ff5d72,629c522d85062e9f89d27da7,2022-06-05_08h53.51.291,Colour_Asymmetry_Pilot,2022.1.3,MacIntel,58.82352941,629c4b6caf241d5e6e00bfc0,0,60,60,13,1,threefour,,,,,,,,,,,,,,,,,,,,,,,,,,,,,,,,,,,,,,,,,,,,,,,,,,,,,,,,,,,,,,,,,,,,,,,,,,,,,,,,,,,,,,,,,,,,,,,,,,,,,,,,,,,,,,,,,,,,,,,,,,,,,,,,,,,,,,,,,,,,,
,,,,,,602ea981977e11a989ff5d72,629c522d85062e9f89d27da7,2022-06-05_08h53.51.291,Colour_Asymmetry_Pilot,2022.1.3,MacIntel,58.82352941,629c4b6caf241d5e6e00bfc0,0,61,61,77,1,threefour,,,,,,,,,,,,,,,,,,,,,,,,,,,,,,,,,,,,,,,,,,,,,,,,,,,,,,,,,,,,,,,,,,,,,,,,,,,,,,,,,,,,,,,,,,,,,,,,,,,,,,,,,,,,,,,,,,,,,,,,,,,,,,,,,,,,,,,,,,,,,
,,,,,,602ea981977e11a989ff5d72,629c522d85062e9f89d27da7,2022-06-05_08h53.51.291,Colour_Asymmetry_Pilot,2022.1.3,MacIntel,58.82352941,629c4b6caf241d5e6e00bfc0,0,62,62,17,1,onethree,,,,,,,,,,,,,,,,,,,,,,,,,,,,,,,,,,,,,,,,,,,,,,,,,,,,,,,,,,,,,,,,,,,,,,,,,,,,,,,,,,,,,,,,,,,,,,,,,,,,,,,,,,,,,,,,,,,,,,,,,,,,,,,,,,,,,,,,,,,,,
,,,,,,602ea981977e11a989ff5d72,629c522d85062e9f89d27da7,2022-06-05_08h53.51.291,Colour_Asymmetry_Pilot,2022.1.3,MacIntel,58.82352941,629c4b6caf241d5e6e00bfc0,0,63,63,97,1,onethree,,,,,,,,,,,,,,,,,,,,,,,,,,,,,,,,,,,,,,,,,,,,,,,,,,,,,,,,,,,,,,,,,,,,,,,,,,,,,,,,,,,,,,,,,,,,,,,,,,,,,,,,,,,,,,,,,,,,,,,,,,,,,,,,,,,,,,,,,,,,,
,,,,,,602ea981977e11a989ff5d72,629c522d85062e9f89d27da7,2022-06-05_08h53.51.291,Colour_Asymmetry_Pilot,2022.1.3,MacIntel,58.82352941,629c4b6caf241d5e6e00bfc0,0,64,64,98,1,twoone,,,,,,,,,,,,,,,,,,,,,,,,,,,,,,,,,,,,,,,,,,,,,,,,,,,,,,,,,,,,,,,,,,,,,,,,,,,,,,,,,,,,,,,,,,,,,,,,,,,,,,,,,,,,,,,,,,,,,,,,,,,,,,,,,,,,,,,,,,,,,
,,,,,,602ea981977e11a989ff5d72,629c522d85062e9f89d27da7,2022-06-05_08h53.51.291,Colour_Asymmetry_Pilot,2022.1.3,MacIntel,58.82352941,629c4b6caf241d5e6e00bfc0,0,65,65,35,1,twofour,,,,,,,,,,,,,,,,,,,,,,,,,,,,,,,,,,,,,,,,,,,,,,,,,,,,,,,,,,,,,,,,,,,,,,,,,,,,,,,,,,,,,,,,,,,,,,,,,,,,,,,,,,,,,,,,,,,,,,,,,,,,,,,,,,,,,,,,,,,,,
,,,,,,602ea981977e11a989ff5d72,629c522d85062e9f89d27da7,2022-06-05_08h53.51.291,Colour_Asymmetry_Pilot,2022.1.3,MacIntel,58.82352941,629c4b6caf241d5e6e00bfc0,0,66,66,75,1,twofour,,,,,,,,,,,,,,,,,,,,,,,,,,,,,,,,,,,,,,,,,,,,,,,,,,,,,,,,,,,,,,,,,,,,,,,,,,,,,,,,,,,,,,,,,,,,,,,,,,,,,,,,,,,,,,,,,,,,,,,,,,,,,,,,,,,,,,,,,,,,,
,,,,,,602ea981977e11a989ff5d72,629c522d85062e9f89d27da7,2022-06-05_08h53.51.291,Colour_Asymmetry_Pilot,2022.1.3,MacIntel,58.82352941,629c4b6caf241d5e6e00bfc0,0,67,67,82,1,twoone,,,,,,,,,,,,,,,,,,,,,,,,,,,,,,,,,,,,,,,,,,,,,,,,,,,,,,,,,,,,,,,,,,,,,,,,,,,,,,,,,,,,,,,,,,,,,,,,,,,,,,,,,,,,,,,,,,,,,,,,,,,,,,,,,,,,,,,,,,,,,
,,,,,,602ea981977e11a989ff5d72,629c522d85062e9f89d27da7,2022-06-05_08h53.51.291,Colour_Asymmetry_Pilot,2022.1.3,MacIntel,58.82352941,629c4b6caf241d5e6e00bfc0,0,68,68,108,1,threeone,,,,,,,,,,,,,,,,,,,,,,,,,,,,,,,,,,,,,,,,,,,,,,,,,,,,,,,,,,,,,,,,,,,,,,,,,,,,,,,,,,,,,,,,,,,,,,,,,,,,,,,,,,,,,,,,,,,,,,,,,,,,,,,,,,,,,,,,,,,,,
,,,,,,602ea981977e11a989ff5d72,629c522d85062e9f89d27da7,2022-06-05_08h53.51.291,Colour_Asymmetry_Pilot,2022.1.3,MacIntel,58.82352941,629c4b6caf241d5e6e00bfc0,0,69,69,23,1,fourthree,,,,,,,,,,,,,,,,,,,,,,,,,,,,,,,,,,,,,,,,,,,,,,,,,,,,,,,,,,,,,,,,,,,,,,,,,,,,,,,,,,,,,,,,,,,,,,,,,,,,,,,,,,,,,,,,,,,,,,,,,,,,,,,,,,,,,,,,,,,,,
,,,,,,602ea981977e11a989ff5d72,629c522d85062e9f89d27da7,2022-06-05_08h53.51.291,Colour_Asymmetry_Pilot,2022.1.3,MacIntel,58.82352941,629c4b6caf241d5e6e00bfc0,0,70,70,100,1,threeone,,,,,,,,,,,,,,,,,,,,,,,,,,,,,,,,,,,,,,,,,,,,,,,,,,,,,,,,,,,,,,,,,,,,,,,,,,,,,,,,,,,,,,,,,,,,,,,,,,,,,,,,,,,,,,,,,,,,,,,,,,,,,,,,,,,,,,,,,,,,,
,,,,,,602ea981977e11a989ff5d72,629c522d85062e9f89d27da7,2022-06-05_08h53.51.291,Colour_Asymmetry_Pilot,2022.1.3,MacIntel,58.82352941,629c4b6caf241d5e6e00bfc0,0,71,71,16,1,onetwo,,,,,,,,,,,,,,,,,,,,,,,,,,,,,,,,,,,,,,,,,,,,,,,,,,,,,,,,,,,,,,,,,,,,,,,,,,,,,,,,,,,,,,,,,,,,,,,,,,,,,,,,,,,,,,,,,,,,,,,,,,,,,,,,,,,,,,,,,,,,,
,,,,,,602ea981977e11a989ff5d72,629c522d85062e9f89d27da7,2022-06-05_08h53.51.291,Colour_Asymmetry_Pilot,2022.1.3,MacIntel,58.82352941,629c4b6caf241d5e6e00bfc0,0,72,72,19,1,twofour,,,,,,,,,,,,,,,,,,,,,,,,,,,,,,,,,,,,,,,,,,,,,,,,,,,,,,,,,,,,,,,,,,,,,,,,,,,,,,,,,,,,,,,,,,,,,,,,,,,,,,,,,,,,,,,,,,,,,,,,,,,,,,,,,,,,,,,,,,,,,
,,,,,,602ea981977e11a989ff5d72,629c522d85062e9f89d27da7,2022-06-05_08h53.51.291,Colour_Asymmetry_Pilot,2022.1.3,MacIntel,58.82352941,629c4b6caf241d5e6e00bfc0,0,73,73,150,1,fourtwo,,,,,,,,,,,,,,,,,,,,,,,,,,,,,,,,,,,,,,,,,,,,,,,,,,,,,,,,,,,,,,,,,,,,,,,,,,,,,,,,,,,,,,,,,,,,,,,,,,,,,,,,,,,,,,,,,,,,,,,,,,,,,,,,,,,,,,,,,,,,,
,,,,,,602ea981977e11a989ff5d72,629c522d85062e9f89d27da7,2022-06-05_08h53.51.291,Colour_Asymmetry_Pilot,2022.1.3,MacIntel,58.82352941,629c4b6caf241d5e6e00bfc0,0,74,74,26,1,twoone,,,,,,,,,,,,,,,,,,,,,,,,,,,,,,,,,,,,,,,,,,,,,,,,,,,,,,,,,,,,,,,,,,,,,,,,,,,,,,,,,,,,,,,,,,,,,,,,,,,,,,,,,,,,,,,,,,,,,,,,,,,,,,,,,,,,,,,,,,,,,
,,,,,,602ea981977e11a989ff5d72,629c522d85062e9f89d27da7,2022-06-05_08h53.51.291,Colour_Asymmetry_Pilot,2022.1.3,MacIntel,58.82352941,629c4b6caf241d5e6e00bfc0,0,75,75,79,1,fourthree,,,,,,,,,,,,,,,,,,,,,,,,,,,,,,,,,,,,,,,,,,,,,,,,,,,,,,,,,,,,,,,,,,,,,,,,,,,,,,,,,,,,,,,,,,,,,,,,,,,,,,,,,,,,,,,,,,,,,,,,,,,,,,,,,,,,,,,,,,,,,
,,,,,,602ea981977e11a989ff5d72,629c522d85062e9f89d27da7,2022-06-05_08h53.51.291,Colour_Asymmetry_Pilot,2022.1.3,MacIntel,58.82352941,629c4b6caf241d5e6e00bfc0,0,76,76,155,1,twofour,,,,,,,,,,,,,,,,,,,,,,,,,,,,,,,,,,,,,,,,,,,,,,,,,,,,,,,,,,,,,,,,,,,,,,,,,,,,,,,,,,,,,,,,,,,,,,,,,,,,,,,,,,,,,,,,,,,,,,,,,,,,,,,,,,,,,,,,,,,,,
,,,,,,602ea981977e11a989ff5d72,629c522d85062e9f89d27da7,2022-06-05_08h53.51.291,Colour_Asymmetry_Pilot,2022.1.3,MacIntel,58.82352941,629c4b6caf241d5e6e00bfc0,0,77,77,103,1,fourthree,,,,,,,,,,,,,,,,,,,,,,,,,,,,,,,,,,,,,,,,,,,,,,,,,,,,,,,,,,,,,,,,,,,,,,,,,,,,,,,,,,,,,,,,,,,,,,,,,,,,,,,,,,,,,,,,,,,,,,,,,,,,,,,,,,,,,,,,,,,,,
,,,,,,602ea981977e11a989ff5d72,629c522d85062e9f89d27da7,2022-06-05_08h53.51.291,Colour_Asymmetry_Pilot,2022.1.3,MacIntel,58.82352941,629c4b6caf241d5e6e00bfc0,0,78,78,52,1,threeone,,,,,,,,,,,,,,,,,,,,,,,,,,,,,,,,,,,,,,,,,,,,,,,,,,,,,,,,,,,,,,,,,,,,,,,,,,,,,,,,,,,,,,,,,,,,,,,,,,,,,,,,,,,,,,,,,,,,,,,,,,,,,,,,,,,,,,,,,,,,,
,,,,,,602ea981977e11a989ff5d72,629c522d85062e9f89d27da7,2022-06-05_08h53.51.291,Colour_Asymmetry_Pilot,2022.1.3,MacIntel,58.82352941,629c4b6caf241d5e6e00bfc0,0,79,79,101,1,threefour,,,,,,,,,,,,,,,,,,,,,,,,,,,,,,,,,,,,,,,,,,,,,,,,,,,,,,,,,,,,,,,,,,,,,,,,,,,,,,,,,,,,,,,,,,,,,,,,,,,,,,,,,,,,,,,,,,,,,,,,,,,,,,,,,,,,,,,,,,,,,
,,,,,,602ea981977e11a989ff5d72,629c522d85062e9f89d27da7,2022-06-05_08h53.51.291,Colour_Asymmetry_Pilot,2022.1.3,MacIntel,58.82352941,629c4b6caf241d5e6e00bfc0,0,80,80,81,1,onethree,,,,,,,,,,,,,,,,,,,,,,,,,,,,,,,,,,,,,,,,,,,,,,,,,,,,,,,,,,,,,,,,,,,,,,,,,,,,,,,,,,,,,,,,,,,,,,,,,,,,,,,,,,,,,,,,,,,,,,,,,,,,,,,,,,,,,,,,,,,,,
,,,,,,602ea981977e11a989ff5d72,629c522d85062e9f89d27da7,2022-06-05_08h53.51.291,Colour_Asymmetry_Pilot,2022.1.3,MacIntel,58.82352941,629c4b6caf241d5e6e00bfc0,0,81,81,83,1,twofour,,,,,,,,,,,,,,,,,,,,,,,,,,,,,,,,,,,,,,,,,,,,,,,,,,,,,,,,,,,,,,,,,,,,,,,,,,,,,,,,,,,,,,,,,,,,,,,,,,,,,,,,,,,,,,,,,,,,,,,,,,,,,,,,,,,,,,,,,,,,,
,,,,,,602ea981977e11a989ff5d72,629c522d85062e9f89d27da7,2022-06-05_08h53.51.291,Colour_Asymmetry_Pilot,2022.1.3,MacIntel,58.82352941,629c4b6caf241d5e6e00bfc0,0,82,82,31,1,fourthree,,,,,,,,,,,,,,,,,,,,,,,,,,,,,,,,,,,,,,,,,,,,,,,,,,,,,,,,,,,,,,,,,,,,,,,,,,,,,,,,,,,,,,,,,,,,,,,,,,,,,,,,,,,,,,,,,,,,,,,,,,,,,,,,,,,,,,,,,,,,,
,,,,,,602ea981977e11a989ff5d72,629c522d85062e9f89d27da7,2022-06-05_08h53.51.291,Colour_Asymmetry_Pilot,2022.1.3,MacIntel,58.82352941,629c4b6caf241d5e6e00bfc0,0,83,83,27,1,twofour,,,,,,,,,,,,,,,,,,,,,,,,,,,,,,,,,,,,,,,,,,,,,,,,,,,,,,,,,,,,,,,,,,,,,,,,,,,,,,,,,,,,,,,,,,,,,,,,,,,,,,,,,,,,,,,,,,,,,,,,,,,,,,,,,,,,,,,,,,,,,
,,,,,,602ea981977e11a989ff5d72,629c522d85062e9f89d27da7,2022-06-05_08h53.51.291,Colour_Asymmetry_Pilot,2022.1.3,MacIntel,58.82352941,629c4b6caf241d5e6e00bfc0,0,84,84,161,1,onethree,,,,,,,,,,,,,,,,,,,,,,,,,,,,,,,,,,,,,,,,,,,,,,,,,,,,,,,,,,,,,,,,,,,,,,,,,,,,,,,,,,,,,,,,,,,,,,,,,,,,,,,,,,,,,,,,,,,,,,,,,,,,,,,,,,,,,,,,,,,,,
,,,,,,602ea981977e11a989ff5d72,629c522d85062e9f89d27da7,2022-06-05_08h53.51.291,Colour_Asymmetry_Pilot,2022.1.3,MacIntel,58.82352941,629c4b6caf241d5e6e00bfc0,0,85,85,73,1,onethree,,,,,,,,,,,,,,,,,,,,,,,,,,,,,,,,,,,,,,,,,,,,,,,,,,,,,,,,,,,,,,,,,,,,,,,,,,,,,,,,,,,,,,,,,,,,,,,,,,,,,,,,,,,,,,,,,,,,,,,,,,,,,,,,,,,,,,,,,,,,,
,,,,,,602ea981977e11a989ff5d72,629c522d85062e9f89d27da7,2022-06-05_08h53.51.291,Colour_Asymmetry_Pilot,2022.1.3,MacIntel,58.82352941,629c4b6caf241d5e6e00bfc0,0,86,86,65,1,onethree,,,,,,,,,,,,,,,,,,,,,,,,,,,,,,,,,,,,,,,,,,,,,,,,,,,,,,,,,,,,,,,,,,,,,,,,,,,,,,,,,,,,,,,,,,,,,,,,,,,,,,,,,,,,,,,,,,,,,,,,,,,,,,,,,,,,,,,,,,,,,
,,,,,,602ea981977e11a989ff5d72,629c522d85062e9f89d27da7,2022-06-05_08h53.51.291,Colour_Asymmetry_Pilot,2022.1.3,MacIntel,58.82352941,629c4b6caf241d5e6e00bfc0,0,87,87,1,1,onethree,,,,,,,,,,,,,,,,,,,,,,,,,,,,,,,,,,,,,,,,,,,,,,,,,,,,,,,,,,,,,,,,,,,,,,,,,,,,,,,,,,,,,,,,,,,,,,,,,,,,,,,,,,,,,,,,,,,,,,,,,,,,,,,,,,,,,,,,,,,,,
,,,,,,602ea981977e11a989ff5d72,629c522d85062e9f89d27da7,2022-06-05_08h53.51.291,Colour_Asymmetry_Pilot,2022.1.3,MacIntel,58.82352941,629c4b6caf241d5e6e00bfc0,0,88,88,44,1,threeone,,,,,,,,,,,,,,,,,,,,,,,,,,,,,,,,,,,,,,,,,,,,,,,,,,,,,,,,,,,,,,,,,,,,,,,,,,,,,,,,,,,,,,,,,,,,,,,,,,,,,,,,,,,,,,,,,,,,,,,,,,,,,,,,,,,,,,,,,,,,,
,,,,,,602ea981977e11a989ff5d72,629c522d85062e9f89d27da7,2022-06-05_08h53.51.291,Colour_Asymmetry_Pilot,2022.1.3,MacIntel,58.82352941,629c4b6caf241d5e6e00bfc0,0,89,89,84,1,threeone,,,,,,,,,,,,,,,,,,,,,,,,,,,,,,,,,,,,,,,,,,,,,,,,,,,,,,,,,,,,,,,,,,,,,,,,,,,,,,,,,,,,,,,,,,,,,,,,,,,,,,,,,,,,,,,,,,,,,,,,,,,,,,,,,,,,,,,,,,,,,
,,,,,,602ea981977e11a989ff5d72,629c522d85062e9f89d27da7,2022-06-05_08h53.51.291,Colour_Asymmetry_Pilot,2022.1.3,MacIntel,58.82352941,629c4b6caf241d5e6e00bfc0,0,90,90,49,1,onethree,,,,,,,,,,,,,,,,,,,,,,,,,,,,,,,,,,,,,,,,,,,,,,,,,,,,,,,,,,,,,,,,,,,,,,,,,,,,,,,,,,,,,,,,,,,,,,,,,,,,,,,,,,,,,,,,,,,,,,,,,,,,,,,,,,,,,,,,,,,,,
,,,,,,602ea981977e11a989ff5d72,629c522d85062e9f89d27da7,2022-06-05_08h53.51.291,Colour_Asymmetry_Pilot,2022.1.3,MacIntel,58.82352941,629c4b6caf241d5e6e00bfc0,0,91,91,86,1,fourtwo,,,,,,,,,,,,,,,,,,,,,,,,,,,,,,,,,,,,,,,,,,,,,,,,,,,,,,,,,,,,,,,,,,,,,,,,,,,,,,,,,,,,,,,,,,,,,,,,,,,,,,,,,,,,,,,,,,,,,,,,,,,,,,,,,,,,,,,,,,,,,
,,,,,,602ea981977e11a989ff5d72,629c522d85062e9f89d27da7,2022-06-05_08h53.51.291,Colour_Asymmetry_Pilot,2022.1.3,MacIntel,58.82352941,629c4b6caf241d5e6e00bfc0,0,92,92,47,1,fourthree,,,,,,,,,,,,,,,,,,,,,,,,,,,,,,,,,,,,,,,,,,,,,,,,,,,,,,,,,,,,,,,,,,,,,,,,,,,,,,,,,,,,,,,,,,,,,,,,,,,,,,,,,,,,,,,,,,,,,,,,,,,,,,,,,,,,,,,,,,,,,
,,,,,,602ea981977e11a989ff5d72,629c522d85062e9f89d27da7,2022-06-05_08h53.51.291,Colour_Asymmetry_Pilot,2022.1.3,MacIntel,58.82352941,629c4b6caf241d5e6e00bfc0,0,93,93,139,1,twofour,,,,,,,,,,,,,,,,,,,,,,,,,,,,,,,,,,,,,,,,,,,,,,,,,,,,,,,,,,,,,,,,,,,,,,,,,,,,,,,,,,,,,,,,,,,,,,,,,,,,,,,,,,,,,,,,,,,,,,,,,,,,,,,,,,,,,,,,,,,,,
,,,,,,602ea981977e11a989ff5d72,629c522d85062e9f89d27da7,2022-06-05_08h53.51.291,Colour_Asymmetry_Pilot,2022.1.3,MacIntel,58.82352941,629c4b6caf241d5e6e00bfc0,0,94,94,153,1,onethree,,,,,,,,,,,,,,,,,,,,,,,,,,,,,,,,,,,,,,,,,,,,,,,,,,,,,,,,,,,,,,,,,,,,,,,,,,,,,,,,,,,,,,,,,,,,,,,,,,,,,,,,,,,,,,,,,,,,,,,,,,,,,,,,,,,,,,,,,,,,,
,,,,,,602ea981977e11a989ff5d72,629c522d85062e9f89d27da7,2022-06-05_08h53.51.291,Colour_Asymmetry_Pilot,2022.1.3,MacIntel,58.82352941,629c4b6caf241d5e6e00bfc0,0,95,95,119,1,fourthree,,,,,,,,,,,,,,,,,,,,,,,,,,,,,,,,,,,,,,,,,,,,,,,,,,,,,,,,,,,,,,,,,,,,,,,,,,,,,,,,,,,,,,,,,,,,,,,,,,,,,,,,,,,,,,,,,,,,,,,,,,,,,,,,,,,,,,,,,,,,,
,,,,,,602ea981977e11a989ff5d72,629c522d85062e9f89d27da7,2022-06-05_08h53.51.291,Colour_Asymmetry_Pilot,2022.1.3,MacIntel,58.82352941,629c4b6caf241d5e6e00bfc0,0,96,96,146,1,twoone,,,,,,,,,,,,,,,,,,,,,,,,,,,,,,,,,,,,,,,,,,,,,,,,,,,,,,,,,,,,,,,,,,,,,,,,,,,,,,,,,,,,,,,,,,,,,,,,,,,,,,,,,,,,,,,,,,,,,,,,,,,,,,,,,,,,,,,,,,,,,
,,,,,,602ea981977e11a989ff5d72,629c522d85062e9f89d27da7,2022-06-05_08h53.51.291,Colour_Asymmetry_Pilot,2022.1.3,MacIntel,58.82352941,629c4b6caf241d5e6e00bfc0,0,97,97,32,1,onetwo,,,,,,,,,,,,,,,,,,,,,,,,,,,,,,,,,,,,,,,,,,,,,,,,,,,,,,,,,,,,,,,,,,,,,,,,,,,,,,,,,,,,,,,,,,,,,,,,,,,,,,,,,,,,,,,,,,,,,,,,,,,,,,,,,,,,,,,,,,,,,
,,,,,,602ea981977e11a989ff5d72,629c522d85062e9f89d27da7,2022-06-05_08h53.51.291,Colour_Asymmetry_Pilot,2022.1.3,MacIntel,58.82352941,629c4b6caf241d5e6e00bfc0,0,98,98,147,1,twofour,,,,,,,,,,,,,,,,,,,,,,,,,,,,,,,,,,,,,,,,,,,,,,,,,,,,,,,,,,,,,,,,,,,,,,,,,,,,,,,,,,,,,,,,,,,,,,,,,,,,,,,,,,,,,,,,,,,,,,,,,,,,,,,,,,,,,,,,,,,,,
,,,,,,602ea981977e11a989ff5d72,629c522d85062e9f89d27da7,2022-06-05_08h53.51.291,Colour_Asymmetry_Pilot,2022.1.3,MacIntel,58.82352941,629c4b6caf241d5e6e00bfc0,0,99,99,90,1,twoone,,,,,,,,,,,,,,,,,,,,,,,,,,,,,,,,,,,,,,,,,,,,,,,,,,,,,,,,,,,,,,,,,,,,,,,,,,,,,,,,,,,,,,,,,,,,,,,,,,,,,,,,,,,,,,,,,,,,,,,,,,,,,,,,,,,,,,,,,,,,,
,,,,,,602ea981977e11a989ff5d72,629c522d85062e9f89d27da7,2022-06-05_08h53.51.291,Colour_Asymmetry_Pilot,2022.1.3,MacIntel,58.82352941,629c4b6caf241d5e6e00bfc0,0,100,100,106,1,twoone,,,,,,,,,,,,,,,,,,,,,,,,,,,,,,,,,,,,,,,,,,,,,,,,,,,,,,,,,,,,,,,,,,,,,,,,,,,,,,,,,,,,,,,,,,,,,,,,,,,,,,,,,,,,,,,,,,,,,,,,,,,,,,,,,,,,,,,,,,,,,
,,,,,,602ea981977e11a989ff5d72,629c522d85062e9f89d27da7,2022-06-05_08h53.51.291,Colour_Asymmetry_Pilot,2022.1.3,MacIntel,58.82352941,629c4b6caf241d5e6e00bfc0,0,101,101,64,1,onetwo,,,,,,,,,,,,,,,,,,,,,,,,,,,,,,,,,,,,,,,,,,,,,,,,,,,,,,,,,,,,,,,,,,,,,,,,,,,,,,,,,,,,,,,,,,,,,,,,,,,,,,,,,,,,,,,,,,,,,,,,,,,,,,,,,,,,,,,,,,,,,
,,,,,,602ea981977e11a989ff5d72,629c522d85062e9f89d27da7,2022-06-05_08h53.51.291,Colour_Asymmetry_Pilot,2022.1.3,MacIntel,58.82352941,629c4b6caf241d5e6e00bfc0,0,102,102,5,1,threefour,,,,,,,,,,,,,,,,,,,,,,,,,,,,,,,,,,,,,,,,,,,,,,,,,,,,,,,,,,,,,,,,,,,,,,,,,,,,,,,,,,,,,,,,,,,,,,,,,,,,,,,,,,,,,,,,,,,,,,,,,,,,,,,,,,,,,,,,,,,,,
,,,,,,602ea981977e11a989ff5d72,629c522d85062e9f89d27da7,2022-06-05_08h53.51.291,Colour_Asymmetry_Pilot,2022.1.3,MacIntel,58.82352941,629c4b6caf241d5e6e00bfc0,0,103,103,157,1,threefour,,,,,,,,,,,,,,,,,,,,,,,,,,,,,,,,,,,,,,,,,,,,,,,,,,,,,,,,,,,,,,,,,,,,,,,,,,,,,,,,,,,,,,,,,,,,,,,,,,,,,,,,,,,,,,,,,,,,,,,,,,,,,,,,,,,,,,,,,,,,,
,,,,,,602ea981977e11a989ff5d72,629c522d85062e9f89d27da7,2022-06-05_08h53.51.291,Colour_Asymmetry_Pilot,2022.1.3,MacIntel,58.82352941,629c4b6caf241d5e6e00bfc0,0,104,104,15,1,fourthree,,,,,,,,,,,,,,,,,,,,,,,,,,,,,,,,,,,,,,,,,,,,,,,,,,,,,,,,,,,,,,,,,,,,,,,,,,,,,,,,,,,,,,,,,,,,,,,,,,,,,,,,,,,,,,,,,,,,,,,,,,,,,,,,,,,,,,,,,,,,,
,,,,,,602ea981977e11a989ff5d72,629c522d85062e9f89d27da7,2022-06-05_08h53.51.291,Colour_Asymmetry_Pilot,2022.1.3,MacIntel,58.82352941,629c4b6caf241d5e6e00bfc0,0,105,105,39,1,fourthree,,,,,,,,,,,,,,,,,,,,,,,,,,,,,,,,,,,,,,,,,,,,,,,,,,,,,,,,,,,,,,,,,,,,,,,,,,,,,,,,,,,,,,,,,,,,,,,,,,,,,,,,,,,,,,,,,,,,,,,,,,,,,,,,,,,,,,,,,,,,,
,,,,,,602ea981977e11a989ff5d72,629c522d85062e9f89d27da7,2022-06-05_08h53.51.291,Colour_Asymmetry_Pilot,2022.1.3,MacIntel,58.82352941,629c4b6caf241d5e6e00bfc0,0,106,106,102,1,fourtwo,,,,,,,,,,,,,,,,,,,,,,,,,,,,,,,,,,,,,,,,,,,,,,,,,,,,,,,,,,,,,,,,,,,,,,,,,,,,,,,,,,,,,,,,,,,,,,,,,,,,,,,,,,,,,,,,,,,,,,,,,,,,,,,,,,,,,,,,,,,,,
,,,,,,602ea981977e11a989ff5d72,629c522d85062e9f89d27da7,2022-06-05_08h53.51.291,Colour_Asymmetry_Pilot,2022.1.3,MacIntel,58.82352941,629c4b6caf241d5e6e00bfc0,0,107,107,30,1,fourtwo,,,,,,,,,,,,,,,,,,,,,,,,,,,,,,,,,,,,,,,,,,,,,,,,,,,,,,,,,,,,,,,,,,,,,,,,,,,,,,,,,,,,,,,,,,,,,,,,,,,,,,,,,,,,,,,,,,,,,,,,,,,,,,,,,,,,,,,,,,,,,
,,,,,,602ea981977e11a989ff5d72,629c522d85062e9f89d27da7,2022-06-05_08h53.51.291,Colour_Asymmetry_Pilot,2022.1.3,MacIntel,58.82352941,629c4b6caf241d5e6e00bfc0,0,108,108,24,1,onetwo,,,,,,,,,,,,,,,,,,,,,,,,,,,,,,,,,,,,,,,,,,,,,,,,,,,,,,,,,,,,,,,,,,,,,,,,,,,,,,,,,,,,,,,,,,,,,,,,,,,,,,,,,,,,,,,,,,,,,,,,,,,,,,,,,,,,,,,,,,,,,
,,,,,,602ea981977e11a989ff5d72,629c522d85062e9f89d27da7,2022-06-05_08h53.51.291,Colour_Asymmetry_Pilot,2022.1.3,MacIntel,58.82352941,629c4b6caf241d5e6e00bfc0,0,109,109,41,1,onethree,,,,,,,,,,,,,,,,,,,,,,,,,,,,,,,,,,,,,,,,,,,,,,,,,,,,,,,,,,,,,,,,,,,,,,,,,,,,,,,,,,,,,,,,,,,,,,,,,,,,,,,,,,,,,,,,,,,,,,,,,,,,,,,,,,,,,,,,,,,,,
,,,,,,602ea981977e11a989ff5d72,629c522d85062e9f89d27da7,2022-06-05_08h53.51.291,Colour_Asymmetry_Pilot,2022.1.3,MacIntel,58.82352941,629c4b6caf241d5e6e00bfc0,0,110,110,34,1,twoone,,,,,,,,,,,,,,,,,,,,,,,,,,,,,,,,,,,,,,,,,,,,,,,,,,,,,,,,,,,,,,,,,,,,,,,,,,,,,,,,,,,,,,,,,,,,,,,,,,,,,,,,,,,,,,,,,,,,,,,,,,,,,,,,,,,,,,,,,,,,,
,,,,,,602ea981977e11a989ff5d72,629c522d85062e9f89d27da7,2022-06-05_08h53.51.291,Colour_Asymmetry_Pilot,2022.1.3,MacIntel,58.82352941,629c4b6caf241d5e6e00bfc0,0,111,111,116,1,threeone,,,,,,,,,,,,,,,,,,,,,,,,,,,,,,,,,,,,,,,,,,,,,,,,,,,,,,,,,,,,,,,,,,,,,,,,,,,,,,,,,,,,,,,,,,,,,,,,,,,,,,,,,,,,,,,,,,,,,,,,,,,,,,,,,,,,,,,,,,,,,
,,,,,,602ea981977e11a989ff5d72,629c522d85062e9f89d27da7,2022-06-05_08h53.51.291,Colour_Asymmetry_Pilot,2022.1.3,MacIntel,58.82352941,629c4b6caf241d5e6e00bfc0,0,112,112,93,1,threefour,,,,,,,,,,,,,,,,,,,,,,,,,,,,,,,,,,,,,,,,,,,,,,,,,,,,,,,,,,,,,,,,,,,,,,,,,,,,,,,,,,,,,,,,,,,,,,,,,,,,,,,,,,,,,,,,,,,,,,,,,,,,,,,,,,,,,,,,,,,,,
,,,,,,602ea981977e11a989ff5d72,629c522d85062e9f89d27da7,2022-06-05_08h53.51.291,Colour_Asymmetry_Pilot,2022.1.3,MacIntel,58.82352941,629c4b6caf241d5e6e00bfc0,0,113,113,135,1,fourthree,,,,,,,,,,,,,,,,,,,,,,,,,,,,,,,,,,,,,,,,,,,,,,,,,,,,,,,,,,,,,,,,,,,,,,,,,,,,,,,,,,,,,,,,,,,,,,,,,,,,,,,,,,,,,,,,,,,,,,,,,,,,,,,,,,,,,,,,,,,,,
,,,,,,602ea981977e11a989ff5d72,629c522d85062e9f89d27da7,2022-06-05_08h53.51.291,Colour_Asymmetry_Pilot,2022.1.3,MacIntel,58.82352941,629c4b6caf241d5e6e00bfc0,0,114,114,112,1,onetwo,,,,,,,,,,,,,,,,,,,,,,,,,,,,,,,,,,,,,,,,,,,,,,,,,,,,,,,,,,,,,,,,,,,,,,,,,,,,,,,,,,,,,,,,,,,,,,,,,,,,,,,,,,,,,,,,,,,,,,,,,,,,,,,,,,,,,,,,,,,,,
,,,,,,602ea981977e11a989ff5d72,629c522d85062e9f89d27da7,2022-06-05_08h53.51.291,Colour_Asymmetry_Pilot,2022.1.3,MacIntel,58.82352941,629c4b6caf241d5e6e00bfc0,0,115,115,66,1,twoone,,,,,,,,,,,,,,,,,,,,,,,,,,,,,,,,,,,,,,,,,,,,,,,,,,,,,,,,,,,,,,,,,,,,,,,,,,,,,,,,,,,,,,,,,,,,,,,,,,,,,,,,,,,,,,,,,,,,,,,,,,,,,,,,,,,,,,,,,,,,,
,,,,,,602ea981977e11a989ff5d72,629c522d85062e9f89d27da7,2022-06-05_08h53.51.291,Colour_Asymmetry_Pilot,2022.1.3,MacIntel,58.82352941,629c4b6caf241d5e6e00bfc0,0,116,116,14,1,fourtwo,,,,,,,,,,,,,,,,,,,,,,,,,,,,,,,,,,,,,,,,,,,,,,,,,,,,,,,,,,,,,,,,,,,,,,,,,,,,,,,,,,,,,,,,,,,,,,,,,,,,,,,,,,,,,,,,,,,,,,,,,,,,,,,,,,,,,,,,,,,,,
,,,,,,602ea981977e11a989ff5d72,629c522d85062e9f89d27da7,2022-06-05_08h53.51.291,Colour_Asymmetry_Pilot,2022.1.3,MacIntel,58.82352941,629c4b6caf241d5e6e00bfc0,0,117,117,8,1,onetwo,,,,,,,,,,,,,,,,,,,,,,,,,,,,,,,,,,,,,,,,,,,,,,,,,,,,,,,,,,,,,,,,,,,,,,,,,,,,,,,,,,,,,,,,,,,,,,,,,,,,,,,,,,,,,,,,,,,,,,,,,,,,,,,,,,,,,,,,,,,,,
,,,,,,602ea981977e11a989ff5d72,629c522d85062e9f89d27da7,2022-06-05_08h53.51.291,Colour_Asymmetry_Pilot,2022.1.3,MacIntel,58.82352941,629c4b6caf241d5e6e00bfc0,0,118,118,7,1,fourthree,,,,,,,,,,,,,,,,,,,,,,,,,,,,,,,,,,,,,,,,,,,,,,,,,,,,,,,,,,,,,,,,,,,,,,,,,,,,,,,,,,,,,,,,,,,,,,,,,,,,,,,,,,,,,,,,,,,,,,,,,,,,,,,,,,,,,,,,,,,,,
,,,,,,602ea981977e11a989ff5d72,629c522d85062e9f89d27da7,2022-06-05_08h53.51.291,Colour_Asymmetry_Pilot,2022.1.3,MacIntel,58.82352941,629c4b6caf241d5e6e00bfc0,0,119,119,129,1,onethree,,,,,,,,,,,,,,,,,,,,,,,,,,,,,,,,,,,,,,,,,,,,,,,,,,,,,,,,,,,,,,,,,,,,,,,,,,,,,,,,,,,,,,,,,,,,,,,,,,,,,,,,,,,,,,,,,,,,,,,,,,,,,,,,,,,,,,,,,,,,,
,,,,,,602ea981977e11a989ff5d72,629c522d85062e9f89d27da7,2022-06-05_08h53.51.291,Colour_Asymmetry_Pilot,2022.1.3,MacIntel,58.82352941,629c4b6caf241d5e6e00bfc0,0,120,120,55,1,fourthree,,,,,,,,,,,,,,,,,,,,,,,,,,,,,,,,,,,,,,,,,,,,,,,,,,,,,,,,,,,,,,,,,,,,,,,,,,,,,,,,,,,,,,,,,,,,,,,,,,,,,,,,,,,,,,,,,,,,,,,,,,,,,,,,,,,,,,,,,,,,,
,,,,,,602ea981977e11a989ff5d72,629c522d85062e9f89d27da7,2022-06-05_08h53.51.291,Colour_Asymmetry_Pilot,2022.1.3,MacIntel,58.82352941,629c4b6caf241d5e6e00bfc0,0,121,121,156,1,threeone,,,,,,,,,,,,,,,,,,,,,,,,,,,,,,,,,,,,,,,,,,,,,,,,,,,,,,,,,,,,,,,,,,,,,,,,,,,,,,,,,,,,,,,,,,,,,,,,,,,,,,,,,,,,,,,,,,,,,,,,,,,,,,,,,,,,,,,,,,,,,
,,,,,,602ea981977e11a989ff5d72,629c522d85062e9f89d27da7,2022-06-05_08h53.51.291,Colour_Asymmetry_Pilot,2022.1.3,MacIntel,58.82352941,629c4b6caf241d5e6e00bfc0,0,122,122,78,1,fourtwo,,,,,,,,,,,,,,,,,,,,,,,,,,,,,,,,,,,,,,,,,,,,,,,,,,,,,,,,,,,,,,,,,,,,,,,,,,,,,,,,,,,,,,,,,,,,,,,,,,,,,,,,,,,,,,,,,,,,,,,,,,,,,,,,,,,,,,,,,,,,,
,,,,,,602ea981977e11a989ff5d72,629c522d85062e9f89d27da7,2022-06-05_08h53.51.291,Colour_Asymmetry_Pilot,2022.1.3,MacIntel,58.82352941,629c4b6caf241d5e6e00bfc0,0,123,123,40,1,onetwo,,,,,,,,,,,,,,,,,,,,,,,,,,,,,,,,,,,,,,,,,,,,,,,,,,,,,,,,,,,,,,,,,,,,,,,,,,,,,,,,,,,,,,,,,,,,,,,,,,,,,,,,,,,,,,,,,,,,,,,,,,,,,,,,,,,,,,,,,,,,,
,,,,,,602ea981977e11a989ff5d72,629c522d85062e9f89d27da7,2022-06-05_08h53.51.291,Colour_Asymmetry_Pilot,2022.1.3,MacIntel,58.82352941,629c4b6caf241d5e6e00bfc0,0,124,124,70,1,fourtwo,,,,,,,,,,,,,,,,,,,,,,,,,,,,,,,,,,,,,,,,,,,,,,,,,,,,,,,,,,,,,,,,,,,,,,,,,,,,,,,,,,,,,,,,,,,,,,,,,,,,,,,,,,,,,,,,,,,,,,,,,,,,,,,,,,,,,,,,,,,,,
,,,,,,602ea981977e11a989ff5d72,629c522d85062e9f89d27da7,2022-06-05_08h53.51.291,Colour_Asymmetry_Pilot,2022.1.3,MacIntel,58.82352941,629c4b6caf241d5e6e00bfc0,0,125,125,10,1,twoone,,,,,,,,,,,,,,,,,,,,,,,,,,,,,,,,,,,,,,,,,,,,,,,,,,,,,,,,,,,,,,,,,,,,,,,,,,,,,,,,,,,,,,,,,,,,,,,,,,,,,,,,,,,,,,,,,,,,,,,,,,,,,,,,,,,,,,,,,,,,,
,,,,,,602ea981977e11a989ff5d72,629c522d85062e9f89d27da7,2022-06-05_08h53.51.291,Colour_Asymmetry_Pilot,2022.1.3,MacIntel,58.82352941,629c4b6caf241d5e6e00bfc0,0,126,126,53,1,threefour,,,,,,,,,,,,,,,,,,,,,,,,,,,,,,,,,,,,,,,,,,,,,,,,,,,,,,,,,,,,,,,,,,,,,,,,,,,,,,,,,,,,,,,,,,,,,,,,,,,,,,,,,,,,,,,,,,,,,,,,,,,,,,,,,,,,,,,,,,,,,
,,,,,,602ea981977e11a989ff5d72,629c522d85062e9f89d27da7,2022-06-05_08h53.51.291,Colour_Asymmetry_Pilot,2022.1.3,MacIntel,58.82352941,629c4b6caf241d5e6e00bfc0,0,127,127,151,1,fourthree,,,,,,,,,,,,,,,,,,,,,,,,,,,,,,,,,,,,,,,,,,,,,,,,,,,,,,,,,,,,,,,,,,,,,,,,,,,,,,,,,,,,,,,,,,,,,,,,,,,,,,,,,,,,,,,,,,,,,,,,,,,,,,,,,,,,,,,,,,,,,
,,,,,,602ea981977e11a989ff5d72,629c522d85062e9f89d27da7,2022-06-05_08h53.51.291,Colour_Asymmetry_Pilot,2022.1.3,MacIntel,58.82352941,629c4b6caf241d5e6e00bfc0,0,128,128,105,1,onethree,,,,,,,,,,,,,,,,,,,,,,,,,,,,,,,,,,,,,,,,,,,,,,,,,,,,,,,,,,,,,,,,,,,,,,,,,,,,,,,,,,,,,,,,,,,,,,,,,,,,,,,,,,,,,,,,,,,,,,,,,,,,,,,,,,,,,,,,,,,,,
,,,,,,602ea981977e11a989ff5d72,629c522d85062e9f89d27da7,2022-06-05_08h53.51.291,Colour_Asymmetry_Pilot,2022.1.3,MacIntel,58.82352941,629c4b6caf241d5e6e00bfc0,0,129,129,115,1,twofour,,,,,,,,,,,,,,,,,,,,,,,,,,,,,,,,,,,,,,,,,,,,,,,,,,,,,,,,,,,,,,,,,,,,,,,,,,,,,,,,,,,,,,,,,,,,,,,,,,,,,,,,,,,,,,,,,,,,,,,,,,,,,,,,,,,,,,,,,,,,,
,,,,,,602ea981977e11a989ff5d72,629c522d85062e9f89d27da7,2022-06-05_08h53.51.291,Colour_Asymmetry_Pilot,2022.1.3,MacIntel,58.82352941,629c4b6caf241d5e6e00bfc0,0,130,130,127,1,fourthree,,,,,,,,,,,,,,,,,,,,,,,,,,,,,,,,,,,,,,,,,,,,,,,,,,,,,,,,,,,,,,,,,,,,,,,,,,,,,,,,,,,,,,,,,,,,,,,,,,,,,,,,,,,,,,,,,,,,,,,,,,,,,,,,,,,,,,,,,,,,,
,,,,,,602ea981977e11a989ff5d72,629c522d85062e9f89d27da7,2022-06-05_08h53.51.291,Colour_Asymmetry_Pilot,2022.1.3,MacIntel,58.82352941,629c4b6caf241d5e6e00bfc0,0,131,131,118,1,fourtwo,,,,,,,,,,,,,,,,,,,,,,,,,,,,,,,,,,,,,,,,,,,,,,,,,,,,,,,,,,,,,,,,,,,,,,,,,,,,,,,,,,,,,,,,,,,,,,,,,,,,,,,,,,,,,,,,,,,,,,,,,,,,,,,,,,,,,,,,,,,,,
,,,,,,602ea981977e11a989ff5d72,629c522d85062e9f89d27da7,2022-06-05_08h53.51.291,Colour_Asymmetry_Pilot,2022.1.3,MacIntel,58.82352941,629c4b6caf241d5e6e00bfc0,0,132,132,3,1,twofour,,,,,,,,,,,,,,,,,,,,,,,,,,,,,,,,,,,,,,,,,,,,,,,,,,,,,,,,,,,,,,,,,,,,,,,,,,,,,,,,,,,,,,,,,,,,,,,,,,,,,,,,,,,,,,,,,,,,,,,,,,,,,,,,,,,,,,,,,,,,,
,,,,,,602ea981977e11a989ff5d72,629c522d85062e9f89d27da7,2022-06-05_08h53.51.291,Colour_Asymmetry_Pilot,2022.1.3,MacIntel,58.82352941,629c4b6caf241d5e6e00bfc0,0,133,133,21,1,threefour,,,,,,,,,,,,,,,,,,,,,,,,,,,,,,,,,,,,,,,,,,,,,,,,,,,,,,,,,,,,,,,,,,,,,,,,,,,,,,,,,,,,,,,,,,,,,,,,,,,,,,,,,,,,,,,,,,,,,,,,,,,,,,,,,,,,,,,,,,,,,
,,,,,,602ea981977e11a989ff5d72,629c522d85062e9f89d27da7,2022-06-05_08h53.51.291,Colour_Asymmetry_Pilot,2022.1.3,MacIntel,58.82352941,629c4b6caf241d5e6e00bfc0,0,134,134,158,1,fourtwo,,,,,,,,,,,,,,,,,,,,,,,,,,,,,,,,,,,,,,,,,,,,,,,,,,,,,,,,,,,,,,,,,,,,,,,,,,,,,,,,,,,,,,,,,,,,,,,,,,,,,,,,,,,,,,,,,,,,,,,,,,,,,,,,,,,,,,,,,,,,,
,,,,,,602ea981977e11a989ff5d72,629c522d85062e9f89d27da7,2022-06-05_08h53.51.291,Colour_Asymmetry_Pilot,2022.1.3,MacIntel,58.82352941,629c4b6caf241d5e6e00bfc0,0,135,135,12,1,threeone,,,,,,,,,,,,,,,,,,,,,,,,,,,,,,,,,,,,,,,,,,,,,,,,,,,,,,,,,,,,,,,,,,,,,,,,,,,,,,,,,,,,,,,,,,,,,,,,,,,,,,,,,,,,,,,,,,,,,,,,,,,,,,,,,,,,,,,,,,,,,
,,,,,,602ea981977e11a989ff5d72,629c522d85062e9f89d27da7,2022-06-05_08h53.51.291,Colour_Asymmetry_Pilot,2022.1.3,MacIntel,58.82352941,629c4b6caf241d5e6e00bfc0,0,136,136,85,1,threefour,,,,,,,,,,,,,,,,,,,,,,,,,,,,,,,,,,,,,,,,,,,,,,,,,,,,,,,,,,,,,,,,,,,,,,,,,,,,,,,,,,,,,,,,,,,,,,,,,,,,,,,,,,,,,,,,,,,,,,,,,,,,,,,,,,,,,,,,,,,,,
,,,,,,602ea981977e11a989ff5d72,629c522d85062e9f89d27da7,2022-06-05_08h53.51.291,Colour_Asymmetry_Pilot,2022.1.3,MacIntel,58.82352941,629c4b6caf241d5e6e00bfc0,0,137,137,111,1,fourthree,,,,,,,,,,,,,,,,,,,,,,,,,,,,,,,,,,,,,,,,,,,,,,,,,,,,,,,,,,,,,,,,,,,,,,,,,,,,,,,,,,,,,,,,,,,,,,,,,,,,,,,,,,,,,,,,,,,,,,,,,,,,,,,,,,,,,,,,,,,,,
,,,,,,602ea981977e11a989ff5d72,629c522d85062e9f89d27da7,2022-06-05_08h53.51.291,Colour_Asymmetry_Pilot,2022.1.3,MacIntel,58.82352941,629c4b6caf241d5e6e00bfc0,0,138,138,114,1,twoone,,,,,,,,,,,,,,,,,,,,,,,,,,,,,,,,,,,,,,,,,,,,,,,,,,,,,,,,,,,,,,,,,,,,,,,,,,,,,,,,,,,,,,,,,,,,,,,,,,,,,,,,,,,,,,,,,,,,,,,,,,,,,,,,,,,,,,,,,,,,,
,,,,,,602ea981977e11a989ff5d72,629c522d85062e9f89d27da7,2022-06-05_08h53.51.291,Colour_Asymmetry_Pilot,2022.1.3,MacIntel,58.82352941,629c4b6caf241d5e6e00bfc0,0,139,139,29,1,threefour,,,,,,,,,,,,,,,,,,,,,,,,,,,,,,,,,,,,,,,,,,,,,,,,,,,,,,,,,,,,,,,,,,,,,,,,,,,,,,,,,,,,,,,,,,,,,,,,,,,,,,,,,,,,,,,,,,,,,,,,,,,,,,,,,,,,,,,,,,,,,
,,,,,,602ea981977e11a989ff5d72,629c522d85062e9f89d27da7,2022-06-05_08h53.51.291,Colour_Asymmetry_Pilot,2022.1.3,MacIntel,58.82352941,629c4b6caf241d5e6e00bfc0,0,140,140,28,1,threeone,,,,,,,,,,,,,,,,,,,,,,,,,,,,,,,,,,,,,,,,,,,,,,,,,,,,,,,,,,,,,,,,,,,,,,,,,,,,,,,,,,,,,,,,,,,,,,,,,,,,,,,,,,,,,,,,,,,,,,,,,,,,,,,,,,,,,,,,,,,,,
,,,,,,602ea981977e11a989ff5d72,629c522d85062e9f89d27da7,2022-06-05_08h53.51.291,Colour_Asymmetry_Pilot,2022.1.3,MacIntel,58.82352941,629c4b6caf241d5e6e00bfc0,0,141,141,69,1,threefour,,,,,,,,,,,,,,,,,,,,,,,,,,,,,,,,,,,,,,,,,,,,,,,,,,,,,,,,,,,,,,,,,,,,,,,,,,,,,,,,,,,,,,,,,,,,,,,,,,,,,,,,,,,,,,,,,,,,,,,,,,,,,,,,,,,,,,,,,,,,,
,,,,,,602ea981977e11a989ff5d72,629c522d85062e9f89d27da7,2022-06-05_08h53.51.291,Colour_Asymmetry_Pilot,2022.1.3,MacIntel,58.82352941,629c4b6caf241d5e6e00bfc0,0,142,142,2,1,twoone,,,,,,,,,,,,,,,,,,,,,,,,,,,,,,,,,,,,,,,,,,,,,,,,,,,,,,,,,,,,,,,,,,,,,,,,,,,,,,,,,,,,,,,,,,,,,,,,,,,,,,,,,,,,,,,,,,,,,,,,,,,,,,,,,,,,,,,,,,,,,
,,,,,,602ea981977e11a989ff5d72,629c522d85062e9f89d27da7,2022-06-05_08h53.51.291,Colour_Asymmetry_Pilot,2022.1.3,MacIntel,58.82352941,629c4b6caf241d5e6e00bfc0,0,143,143,134,1,fourtwo,,,,,,,,,,,,,,,,,,,,,,,,,,,,,,,,,,,,,,,,,,,,,,,,,,,,,,,,,,,,,,,,,,,,,,,,,,,,,,,,,,,,,,,,,,,,,,,,,,,,,,,,,,,,,,,,,,,,,,,,,,,,,,,,,,,,,,,,,,,,,
,,,,,,602ea981977e11a989ff5d72,629c522d85062e9f89d27da7,2022-06-05_08h53.51.291,Colour_Asymmetry_Pilot,2022.1.3,MacIntel,58.82352941,629c4b6caf241d5e6e00bfc0,0,144,144,46,1,fourtwo,,,,,,,,,,,,,,,,,,,,,,,,,,,,,,,,,,,,,,,,,,,,,,,,,,,,,,,,,,,,,,,,,,,,,,,,,,,,,,,,,,,,,,,,,,,,,,,,,,,,,,,,,,,,,,,,,,,,,,,,,,,,,,,,,,,,,,,,,,,,,
,,,,,,602ea981977e11a989ff5d72,629c522d85062e9f89d27da7,2022-06-05_08h53.51.291,Colour_Asymmetry_Pilot,2022.1.3,MacIntel,58.82352941,629c4b6caf241d5e6e00bfc0,0,145,145,104,1,onetwo,,,,,,,,,,,,,,,,,,,,,,,,,,,,,,,,,,,,,,,,,,,,,,,,,,,,,,,,,,,,,,,,,,,,,,,,,,,,,,,,,,,,,,,,,,,,,,,,,,,,,,,,,,,,,,,,,,,,,,,,,,,,,,,,,,,,,,,,,,,,,
,,,,,,602ea981977e11a989ff5d72,629c522d85062e9f89d27da7,2022-06-05_08h53.51.291,Colour_Asymmetry_Pilot,2022.1.3,MacIntel,58.82352941,629c4b6caf241d5e6e00bfc0,0,146,146,117,1,threefour,,,,,,,,,,,,,,,,,,,,,,,,,,,,,,,,,,,,,,,,,,,,,,,,,,,,,,,,,,,,,,,,,,,,,,,,,,,,,,,,,,,,,,,,,,,,,,,,,,,,,,,,,,,,,,,,,,,,,,,,,,,,,,,,,,,,,,,,,,,,,
,,,,,,602ea981977e11a989ff5d72,629c522d85062e9f89d27da7,2022-06-05_08h53.51.291,Colour_Asymmetry_Pilot,2022.1.3,MacIntel,58.82352941,629c4b6caf241d5e6e00bfc0,0,147,147,36,1,threeone,,,,,,,,,,,,,,,,,,,,,,,,,,,,,,,,,,,,,,,,,,,,,,,,,,,,,,,,,,,,,,,,,,,,,,,,,,,,,,,,,,,,,,,,,,,,,,,,,,,,,,,,,,,,,,,,,,,,,,,,,,,,,,,,,,,,,,,,,,,,,
,,,,,,602ea981977e11a989ff5d72,629c522d85062e9f89d27da7,2022-06-05_08h53.51.291,Colour_Asymmetry_Pilot,2022.1.3,MacIntel,58.82352941,629c4b6caf241d5e6e00bfc0,0,148,148,9,1,onethree,,,,,,,,,,,,,,,,,,,,,,,,,,,,,,,,,,,,,,,,,,,,,,,,,,,,,,,,,,,,,,,,,,,,,,,,,,,,,,,,,,,,,,,,,,,,,,,,,,,,,,,,,,,,,,,,,,,,,,,,,,,,,,,,,,,,,,,,,,,,,
,,,,,,602ea981977e11a989ff5d72,629c522d85062e9f89d27da7,2022-06-05_08h53.51.291,Colour_Asymmetry_Pilot,2022.1.3,MacIntel,58.82352941,629c4b6caf241d5e6e00bfc0,0,149,149,149,1,threefour,,,,,,,,,,,,,,,,,,,,,,,,,,,,,,,,,,,,,,,,,,,,,,,,,,,,,,,,,,,,,,,,,,,,,,,,,,,,,,,,,,,,,,,,,,,,,,,,,,,,,,,,,,,,,,,,,,,,,,,,,,,,,,,,,,,,,,,,,,,,,
,,,,,,602ea981977e11a989ff5d72,629c522d85062e9f89d27da7,2022-06-05_08h53.51.291,Colour_Asymmetry_Pilot,2022.1.3,MacIntel,58.82352941,629c4b6caf241d5e6e00bfc0,0,150,150,94,1,fourtwo,,,,,,,,,,,,,,,,,,,,,,,,,,,,,,,,,,,,,,,,,,,,,,,,,,,,,,,,,,,,,,,,,,,,,,,,,,,,,,,,,,,,,,,,,,,,,,,,,,,,,,,,,,,,,,,,,,,,,,,,,,,,,,,,,,,,,,,,,,,,,
,,,,,,602ea981977e11a989ff5d72,629c522d85062e9f89d27da7,2022-06-05_08h53.51.291,Colour_Asymmetry_Pilot,2022.1.3,MacIntel,58.82352941,629c4b6caf241d5e6e00bfc0,0,151,151,99,1,twofour,,,,,,,,,,,,,,,,,,,,,,,,,,,,,,,,,,,,,,,,,,,,,,,,,,,,,,,,,,,,,,,,,,,,,,,,,,,,,,,,,,,,,,,,,,,,,,,,,,,,,,,,,,,,,,,,,,,,,,,,,,,,,,,,,,,,,,,,,,,,,
,,,,,,602ea981977e11a989ff5d72,629c522d85062e9f89d27da7,2022-06-05_08h53.51.291,Colour_Asymmetry_Pilot,2022.1.3,MacIntel,58.82352941,629c4b6caf241d5e6e00bfc0,0,152,152,74,1,twoone,,,,,,,,,,,,,,,,,,,,,,,,,,,,,,,,,,,,,,,,,,,,,,,,,,,,,,,,,,,,,,,,,,,,,,,,,,,,,,,,,,,,,,,,,,,,,,,,,,,,,,,,,,,,,,,,,,,,,,,,,,,,,,,,,,,,,,,,,,,,,
,,,,,,602ea981977e11a989ff5d72,629c522d85062e9f89d27da7,2022-06-05_08h53.51.291,Colour_Asymmetry_Pilot,2022.1.3,MacIntel,58.82352941,629c4b6caf241d5e6e00bfc0,0,153,153,11,1,twofour,,,,,,,,,,,,,,,,,,,,,,,,,,,,,,,,,,,,,,,,,,,,,,,,,,,,,,,,,,,,,,,,,,,,,,,,,,,,,,,,,,,,,,,,,,,,,,,,,,,,,,,,,,,,,,,,,,,,,,,,,,,,,,,,,,,,,,,,,,,,,
,,,,,,602ea981977e11a989ff5d72,629c522d85062e9f89d27da7,2022-06-05_08h53.51.291,Colour_Asymmetry_Pilot,2022.1.3,MacIntel,58.82352941,629c4b6caf241d5e6e00bfc0,0,154,154,22,1,fourtwo,,,,,,,,,,,,,,,,,,,,,,,,,,,,,,,,,,,,,,,,,,,,,,,,,,,,,,,,,,,,,,,,,,,,,,,,,,,,,,,,,,,,,,,,,,,,,,,,,,,,,,,,,,,,,,,,,,,,,,,,,,,,,,,,,,,,,,,,,,,,,
,,,,,,602ea981977e11a989ff5d72,629c522d85062e9f89d27da7,2022-06-05_08h53.51.291,Colour_Asymmetry_Pilot,2022.1.3,MacIntel,58.82352941,629c4b6caf241d5e6e00bfc0,0,155,155,109,1,threefour,,,,,,,,,,,,,,,,,,,,,,,,,,,,,,,,,,,,,,,,,,,,,,,,,,,,,,,,,,,,,,,,,,,,,,,,,,,,,,,,,,,,,,,,,,,,,,,,,,,,,,,,,,,,,,,,,,,,,,,,,,,,,,,,,,,,,,,,,,,,,
,,,,,,602ea981977e11a989ff5d72,629c522d85062e9f89d27da7,2022-06-05_08h53.51.291,Colour_Asymmetry_Pilot,2022.1.3,MacIntel,58.82352941,629c4b6caf241d5e6e00bfc0,0,156,156,126,1,fourtwo,,,,,,,,,,,,,,,,,,,,,,,,,,,,,,,,,,,,,,,,,,,,,,,,,,,,,,,,,,,,,,,,,,,,,,,,,,,,,,,,,,,,,,,,,,,,,,,,,,,,,,,,,,,,,,,,,,,,,,,,,,,,,,,,,,,,,,,,,,,,,
,,,,,,602ea981977e11a989ff5d72,629c522d85062e9f89d27da7,2022-06-05_08h53.51.291,Colour_Asymmetry_Pilot,2022.1.3,MacIntel,58.82352941,629c4b6caf241d5e6e00bfc0,0,157,157,60,1,threeone,,,,,,,,,,,,,,,,,,,,,,,,,,,,,,,,,,,,,,,,,,,,,,,,,,,,,,,,,,,,,,,,,,,,,,,,,,,,,,,,,,,,,,,,,,,,,,,,,,,,,,,,,,,,,,,,,,,,,,,,,,,,,,,,,,,,,,,,,,,,,
,,,,,,602ea981977e11a989ff5d72,629c522d85062e9f89d27da7,2022-06-05_08h53.51.291,Colour_Asymmetry_Pilot,2022.1.3,MacIntel,58.82352941,629c4b6caf241d5e6e00bfc0,0,158,158,87,1,fourthree,,,,,,,,,,,,,,,,,,,,,,,,,,,,,,,,,,,,,,,,,,,,,,,,,,,,,,,,,,,,,,,,,,,,,,,,,,,,,,,,,,,,,,,,,,,,,,,,,,,,,,,,,,,,,,,,,,,,,,,,,,,,,,,,,,,,,,,,,,,,,
,,,,,,602ea981977e11a989ff5d72,629c522d85062e9f89d27da7,2022-06-05_08h53.51.291,Colour_Asymmetry_Pilot,2022.1.3,MacIntel,58.82352941,629c4b6caf241d5e6e00bfc0,0,159,159,131,1,twofour,,,,,,,,,,,,,,,,,,,,,,,,,,,,,,,,,,,,,,,,,,,,,,,,,,,,,,,,,,,,,,,,,,,,,,,,,,,,,,,,,,,,,,,,,,,,,,,,,,,,,,,,,,,,,,,,,,,,,,,,,,,,,,,,,,,,,,,,,,,,,
,,,,,,602ea981977e11a989ff5d72,629c522d85062e9f89d27da7,2022-06-05_08h53.51.291,Colour_Asymmetry_Pilot,2022.1.3,MacIntel,58.82352941,629c4b6caf241d5e6e00bfc0,0,160,160,113,1,onethree,,,,,,,,,,,,,,,,,,,,,,,,,,,,,,,,,,,,,,,,,,,,,,,,,,,,,,,,,,,,,,,,,,,,,,,,,,,,,,,,,,,,,,,,,,,,,,,,,,,,,,,,,,,,,,,,,,,,,,,,,,,,,,,,,,,,,,,,,,,,,
,,,,,,602ea981977e11a989ff5d72,629c522d85062e9f89d27da7,2022-06-05_08h53.51.291,Colour_Asymmetry_Pilot,2022.1.3,MacIntel,58.82352941,629c4b6caf241d5e6e00bfc0,0,161,161,96,1,onetwo,,,,,,,,,,,,,,,,,,,,,,,,,,,,,,,,,,,,,,,,,,,,,,,,,,,,,,,,,,,,,,,,,,,,,,,,,,,,,,,,,,,,,,,,,,,,,,,,,,,,,,,,,,,,,,,,,,,,,,,,,,,,,,,,,,,,,,,,,,,,,
,,,,,,602ea981977e11a989ff5d72,629c522d85062e9f89d27da7,2022-06-05_08h53.51.291,Colour_Asymmetry_Pilot,2022.1.3,MacIntel,58.82352941,629c4b6caf241d5e6e00bfc0,,,,,,,space,1.402,space,4.554,space,36.848,space,21.282,space,1.664,space,4.924,"[0.34099999999999997,0.12939999999999996,-0.9766]",threefour,"[-0.4982,-0.2942,-0.0354000000000001]",-4,14.843,-44,110,1,0,0,response7disk_5,2,0,1,0,0,rectangle_8,42,-96,1,0,0,response3disk_7,4,1,1,0,1,0,0,rectangle_4,0,0,0,0,1,,,,,,,,,,,,,,,,,,,,,,,,,,,,,,,,,,,,,,,,,,,,,,,,,,,,,,,,,,,,,,,,,,,,,,,,,,,,,,,,,,,,,,,,,,,,,
,,,,,,602ea981977e11a989ff5d72,629c522d85062e9f89d27da7,2022-06-05_08h53.51.291,Colour_Asymmetry_Pilot,2022.1.3,MacIntel,58.82352941,629c4b6caf241d5e6e00bfc0,,,,,,,,,,,,,,,,,,,"[0.23120000000000007,-0.7726,-0.34120000000000006]",onetwo,"[-0.5688,-0.08239999999999992,-0.1844]",-3,7.916,-89,45,1,0,0,response7disk_5,-12,1,1,0,0,rectangle_8,-12,1,1,0,0,,,1,-12,1,1,0,0,,1,0,1,0,1,,,,,,,,,,,,,,,,,,,,,,,,,,,,,,,,,,,,,,,,,,,,,,,,,,,,,,,,,,,,,,,,,,,,,,,,,,,,,,,,,,,,,,,,,,,,,
,,,,,,602ea981977e11a989ff5d72,629c522d85062e9f89d27da7,2022-06-05_08h53.51.291,Colour_Asymmetry_Pilot,2022.1.3,MacIntel,58.82352941,629c4b6caf241d5e6e00bfc0,,,,,,,,,,,,,,,,,,,"[0.9842,0.7409999999999999,-0.6628000000000001]",threeone,"[-0.09019999999999995,0.44300000000000006,0.5371999999999999]",-1,5.517,-43,-83,1,0,0,response5disk_5,6,1,1,0,0,rectangle_8,6,1,1,0,0,,,1,6,1,1,0,0,,2,0,2,0,1,,,,,,,,,,,,,,,,,,,,,,,,,,,,,,,,,,,,,,,,,,,,,,,,,,,,,,,,,,,,,,,,,,,,,,,,,,,,,,,,,,,,,,,,,,,,,
,,,,,,602ea981977e11a989ff5d72,629c522d85062e9f89d27da7,2022-06-05_08h53.51.291,Colour_Asymmetry_Pilot,2022.1.3,MacIntel,58.82352941,629c4b6caf241d5e6e00bfc0,,,,,,,,,,,,,,,,,,,"[-0.4746,-0.0354000000000001,0.5449999999999999]",twofour,"[0.05879999999999996,0.2784,0.5841999999999998]",2,3.583,102,-46,1,0,0,response3disk_5,-1,-1,1,0,0,rectangle_8,-1,-1,1,0,0,,,1,-1,-1,1,0,0,,3,0,3,0,1,,,,,,,,,,,,,,,,,,,,,,,,,,,,,,,,,,,,,,,,,,,,,,,,,,,,,,,,,,,,,,,,,,,,,,,,,,,,,,,,,,,,,,,,,,,,,
,,,,,,602ea981977e11a989ff5d72,629c522d85062e9f89d27da7,2022-06-05_08h53.51.291,Colour_Asymmetry_Pilot,2022.1.3,MacIntel,58.82352941,629c4b6caf241d5e6e00bfc0,,,,,,,,,,,,,,,,,,,"[0.9763999999999999,0.30979999999999985,-0.6786]",threeone,"[-0.07459999999999989,0.12139999999999995,-0.9922]",-1,3.967,-40,-79,1,0,0,response5disk_5,1,-6,1,0,0,rectangle_8,1,-6,1,0,0,,,1,1,-6,1,0,0,,4,0,4,0,1,,,,,,,,,,,,,,,,,,,,,,,,,,,,,,,,,,,,,,,,,,,,,,,,,,,,,,,,,,,,,,,,,,,,,,,,,,,,,,,,,,,,,,,,,,,,,
,,,,,,602ea981977e11a989ff5d72,629c522d85062e9f89d27da7,2022-06-05_08h53.51.291,Colour_Asymmetry_Pilot,2022.1.3,MacIntel,58.82352941,629c4b6caf241d5e6e00bfc0,,,,,,,,,,,,,,,,,,,"[0.3881999999999999,-0.23939999999999995,-0.05040000000000011]",threeone,"[-0.8982,-0.37259999999999993,0.2784]",-1,2.8,-37,-82,1,0,0,response5disk_5,12,5,1,0,0,rectangle_8,12,5,1,0,0,,,1,12,5,1,0,0,,5,0,5,0,1,,,,,,,,,,,,,,,,,,,,,,,,,,,,,,,,,,,,,,,,,,,,,,,,,,,,,,,,,,,,,,,,,,,,,,,,,,,,,,,,,,,,,,,,,,,,,
,,,,,,602ea981977e11a989ff5d72,629c522d85062e9f89d27da7,2022-06-05_08h53.51.291,Colour_Asymmetry_Pilot,2022.1.3,MacIntel,58.82352941,629c4b6caf241d5e6e00bfc0,,,,,,,,,,,,,,,,,,,"[0.9686000000000001,0.3802000000000001,0.19999999999999996]",threeone,"[-0.5922000000000001,-0.7492000000000001,-0.5296000000000001]",-4,1.501,-32,87,1,0,0,response7disk_5,0,1,1,0,0,rectangle_8,0,1,1,0,0,,,1,0,1,1,0,0,,6,0,6,0,1,,,,,,,,,,,,,,,,,,,,,,,,,,,,,,,,,,,,,,,,,,,,,,,,,,,,,,,,,,,,,,,,,,,,,,,,,,,,,,,,,,,,,,,,,,,,,
,,,,,,602ea981977e11a989ff5d72,629c522d85062e9f89d27da7,2022-06-05_08h53.51.291,Colour_Asymmetry_Pilot,2022.1.3,MacIntel,58.82352941,629c4b6caf241d5e6e00bfc0,,,,,,,,,,,,,,,,,,,,twoone,,1,3.883,,,,,,,,,,,,,,,,,,,,,,,,,,,,,,,,space,4.015,"[-0.9766,-0.6472,0.07440000000000002]","[-0.9688,-0.38039999999999996,-0.41979999999999995]",39,-92,1,0,0,response3disk,0,4,1,0,0,rectangle,0,4,1,0,0,,2,0.004,0,0,4,1,0,0,0,0,0,142,1,61,second,,,,,,,,,,,,,,,,,,,,,,,,,,,,,,,,,,,,,,,,,,,,,,,,,,,,,,,,
,,,,,,602ea981977e11a989ff5d72,629c522d85062e9f89d27da7,2022-06-05_08h53.51.291,Colour_Asymmetry_Pilot,2022.1.3,MacIntel,58.82352941,629c4b6caf241d5e6e00bfc0,,,,,,,,,,,,,,,,,,,,twofour,,1,2.55,,,,,,,,,,,,,,,,,,,,,,,,,,,,,,,,,,"[-0.6235999999999999,-0.6786,-0.08239999999999992]","[-0.4902000000000001,0.2704,-0.45899999999999996]",35,-72,1,0,0,response3disk,2,-3,1,0,0,rectangle,2,-3,1,0,0,,2,0.001,0,2,-3,1,0,0,0,1,1,82,1,1,second,,,,,,,,,,,,,,,,,,,,,,,,,,,,,,,,,,,,,,,,,,,,,,,,,,,,,,,,
,,,,,,602ea981977e11a989ff5d72,629c522d85062e9f89d27da7,2022-06-05_08h53.51.291,Colour_Asymmetry_Pilot,2022.1.3,MacIntel,58.82352941,629c4b6caf241d5e6e00bfc0,,,,,,,,,,,,,,,,,,,,onetwo,,1,9.083,,,,,,,,,,,,,,,,,,,,,,,,,,,,,,,,,,"[-0.5688,-0.08239999999999992,-0.1844]","[0.37240000000000006,0.4980000000000002,-0.2864]",48,-92,1,0,0,response3disk,3,-5,1,0,0,rectangle,3,-5,1,0,0,,2,0,0,3,-5,1,0,0,0,2,2,73,1,73,first,,,,,,,,,,,,,,,,,,,,,,,,,,,,,,,,,,,,,,,,,,,,,,,,,,,,,,,,
,,,,,,602ea981977e11a989ff5d72,629c522d85062e9f89d27da7,2022-06-05_08h53.51.291,Colour_Asymmetry_Pilot,2022.1.3,MacIntel,58.82352941,629c4b6caf241d5e6e00bfc0,,,,,,,,,,,,,,,,,,,,twoone,,-2,1.617,,,,,,,,,,,,,,,,,,,,,,,,,,,,,,,,,,"[0.0351999999999999,0.41159999999999997,0.0038000000000000256]","[0.7646000000000002,0.07440000000000002,0.2704]",-82,-55,1,0,0,response5disk,-4,-2,1,0,0,rectangle,-4,-2,1,0,0,,3,0.002,0,-4,-2,1,0,0,0,3,3,32,1,32,first,,,,,,,,,,,,,,,,,,,,,,,,,,,,,,,,,,,,,,,,,,,,,,,,,,,,,,,,
,,,,,,602ea981977e11a989ff5d72,629c522d85062e9f89d27da7,2022-06-05_08h53.51.291,Colour_Asymmetry_Pilot,2022.1.3,MacIntel,58.82352941,629c4b6caf241d5e6e00bfc0,,,,,,,,,,,,,,,,,,,,threefour,,-1,0.933,,,,,,,,,,,,,,,,,,,,,,,,,,,,,,,,,,"[0.09799999999999986,-0.24719999999999998,0.15280000000000005]","[-0.2942,-0.7648,-0.7492000000000001]",-52,-105,1,0,0,response5disk,-1,-4,1,0,0,rectangle,-1,-4,1,0,0,,1,0.002,0,-1,-4,1,0,0,0,4,4,90,1,9,second,,,,,,,,,,,,,,,,,,,,,,,,,,,,,,,,,,,,,,,,,,,,,,,,,,,,,,,,
,,,,,,602ea981977e11a989ff5d72,629c522d85062e9f89d27da7,2022-06-05_08h53.51.291,Colour_Asymmetry_Pilot,2022.1.3,MacIntel,58.82352941,629c4b6caf241d5e6e00bfc0,,,,,,,,,,,,,,,,,,,,onethree,,-2,1.448,,,,,,,,,,,,,,,,,,,,,,,,,,,,,,,,,,"[-0.26280000000000003,-0.2158,-0.3256]","[0.40379999999999994,0.09000000000000008,0.44300000000000006]",-92,-41,1,0,0,response5disk,-12,-2,1,0,0,rectangle,-12,-2,1,0,0,,2,0.002,0,-12,-2,1,0,0,0,5,5,0,1,0,first,,,,,,,,,,,,,,,,,,,,,,,,,,,,,,,,,,,,,,,,,,,,,,,,,,,,,,,,
,,,,,,602ea981977e11a989ff5d72,629c522d85062e9f89d27da7,2022-06-05_08h53.51.291,Colour_Asymmetry_Pilot,2022.1.3,MacIntel,58.82352941,629c4b6caf241d5e6e00bfc0,,,,,,,,,,,,,,,,,,,,threefour,,-4,1.018,,,,,,,,,,,,,,,,,,,,,,,,,,,,,,,,,,"[-0.9844,-0.9688,-0.9922]","[0.04299999999999993,0.16060000000000008,-0.6628000000000001]",-40,89,1,0,0,response7disk,1,8,1,0,0,rectangle,1,8,1,0,0,,3,0.002,0,1,8,1,0,0,0,6,6,35,1,35,first,,,,,,,,,,,,,,,,,,,,,,,,,,,,,,,,,,,,,,,,,,,,,,,,,,,,,,,,
,,,,,,602ea981977e11a989ff5d72,629c522d85062e9f89d27da7,2022-06-05_08h53.51.291,Colour_Asymmetry_Pilot,2022.1.3,MacIntel,58.82352941,629c4b6caf241d5e6e00bfc0,,,,,,,,,,,,,,,,,,,,onetwo,,2,0.866,,,,,,,,,,,,,,,,,,,,,,,,,,,,,,,,,,"[-0.9688,-0.38039999999999996,-0.41979999999999995]","[-0.4276,0.0038000000000000256,-0.3256]",69,-40,1,0,0,response3disk,4,6,1,0,0,rectangle,87,43,1,0,0,3,3,4.382,1,-7,11,1,0,0,0,7,7,97,1,16,second,response1disk_3,rectangle,,,,,,,,,,,,,,,,,,,,,,,,,,,,,,,,,,,,,,,,,,,,,,,,,,,,,,
,,,,,,602ea981977e11a989ff5d72,629c522d85062e9f89d27da7,2022-06-05_08h53.51.291,Colour_Asymmetry_Pilot,2022.1.3,MacIntel,58.82352941,629c4b6caf241d5e6e00bfc0,,,,,,,,,,,,,,,,,,,,onetwo,,-4,0.8,,,,,,,,,,,,,,,,,,,,,,,,,,,,,,,,,,"[0.9372,0.9450000000000001,0.8980000000000001]","[-0.17659999999999998,-0.2864,-0.8354]",-51,71,1,0,0,response7disk,1,5,1,0,0,rectangle,1,5,1,0,0,3,1,0.003,0,1,5,1,0,0,0,8,8,19,1,19,first,,,,,,,,,,,,,,,,,,,,,,,,,,,,,,,,,,,,,,,,,,,,,,,,,,,,,,,,
,,,,,,602ea981977e11a989ff5d72,629c522d85062e9f89d27da7,2022-06-05_08h53.51.291,Colour_Asymmetry_Pilot,2022.1.3,MacIntel,58.82352941,629c4b6caf241d5e6e00bfc0,,,,,,,,,,,,,,,,,,,,threeone,,3,1.45,,,,,,,,,,,,,,,,,,,,,,,,,,,,,,,,,,"[0.3881999999999999,-0.23939999999999995,-0.05040000000000011]","[0.6547999999999998,-0.043199999999999905,-0.011800000000000033]",90,42,1,0,0,response1disk,9,6,1,0,0,rectangle,9,6,1,0,0,3,3,0.002,0,9,6,1,0,0,0,9,9,15,1,15,first,,,,,,,,,,,,,,,,,,,,,,,,,,,,,,,,,,,,,,,,,,,,,,,,,,,,,,,,
,,,,,,602ea981977e11a989ff5d72,629c522d85062e9f89d27da7,2022-06-05_08h53.51.291,Colour_Asymmetry_Pilot,2022.1.3,MacIntel,58.82352941,629c4b6caf241d5e6e00bfc0,,,,,,,,,,,,,,,,,,,,fourthree,,1,0.849,,,,,,,,,,,,,,,,,,,,,,,,,,,,,,,,,,"[0.9213999999999998,0.6391999999999998,-0.9922]","[0.4196,0.4665999999999999,0.3568]",39,-78,1,0,0,response3disk,0,-6,1,0,0,rectangle,0,-6,1,0,0,3,2,0.002,0,0,-6,1,0,0,0,10,10,22,1,22,first,,,,,,,,,,,,,,,,,,,,,,,,,,,,,,,,,,,,,,,,,,,,,,,,,,,,,,,,
,,,,,,602ea981977e11a989ff5d72,629c522d85062e9f89d27da7,2022-06-05_08h53.51.291,Colour_Asymmetry_Pilot,2022.1.3,MacIntel,58.82352941,629c4b6caf241d5e6e00bfc0,,,,,,,,,,,,,,,,,,,,fourthree,,-4,0.715,,,,,,,,,,,,,,,,,,,,,,,,,,,,,,,,,,"[-0.01980000000000004,-0.5138,-0.38039999999999996]","[0.4196,0.4665999999999999,0.3568]",-38,81,1,0,0,response7disk,11,-5,1,0,0,rectangle,11,-5,1,0,0,3,2,0,0,11,-5,1,0,0,0,11,11,132,1,51,second,,,,,,,,,,,,,,,,,,,,,,,,,,,,,,,,,,,,,,,,,,,,,,,,,,,,,,,,
,,,,,,602ea981977e11a989ff5d72,629c522d85062e9f89d27da7,2022-06-05_08h53.51.291,Colour_Asymmetry_Pilot,2022.1.3,MacIntel,58.82352941,629c4b6caf241d5e6e00bfc0,,,,,,,,,,,,,,,,,,,,threefour,,-4,0.883,,,,,,,,,,,,,,,,,,,,,,,,,,,,,,,,,,"[0.9763999999999999,-0.1137999999999999,-0.6314]","[-0.9766,-0.6472,0.07440000000000002]",-34,68,1,0,0,response7disk,2,-5,1,0,0,rectangle,2,-5,1,0,0,3,3,0.002,0,2,-5,1,0,0,0,12,12,139,1,58,second,,,,,,,,,,,,,,,,,,,,,,,,,,,,,,,,,,,,,,,,,,,,,,,,,,,,,,,,
,,,,,,602ea981977e11a989ff5d72,629c522d85062e9f89d27da7,2022-06-05_08h53.51.291,Colour_Asymmetry_Pilot,2022.1.3,MacIntel,58.82352941,629c4b6caf241d5e6e00bfc0,,,,,,,,,,,,,,,,,,,,fourtwo,,-3,0.81,,,,,,,,,,,,,,,,,,,,,,,,,,,,,,,,,,"[0.3568,-0.20799999999999996,-0.9844]","[0.7018,0.7176,0.6155999999999999]",-79,22,1,0,0,response7disk,-8,-6,1,0,0,rectangle,84,-42,1,0,0,2,2,1.517,1,3,-4,1,0,0,0,13,13,36,1,36,first,response3disk_3,rectangle,,,,,,,,,,,,,,,,,,,,,,,,,,,,,,,,,,,,,,,,,,,,,,,,,,,,,,
,,,,,,602ea981977e11a989ff5d72,629c522d85062e9f89d27da7,2022-06-05_08h53.51.291,Colour_Asymmetry_Pilot,2022.1.3,MacIntel,58.82352941,629c4b6caf241d5e6e00bfc0,,,,,,,,,,,,,,,,,,,,onetwo,,-4,0.45,,,,,,,,,,,,,,,,,,,,,,,,,,,,,,,,,,"[-0.9766,-0.6472,0.07440000000000002]","[0.9763999999999999,-0.1137999999999999,-0.6314]",-46,74,1,0,0,response7disk,-4,6,1,0,0,rectangle,-4,6,1,0,0,2,1,0.002,0,-4,6,1,0,0,0,14,14,58,1,58,first,,,,,,,,,,,,,,,,,,,,,,,,,,,,,,,,,,,,,,,,,,,,,,,,,,,,,,,,
,,,,,,602ea981977e11a989ff5d72,629c522d85062e9f89d27da7,2022-06-05_08h53.51.291,Colour_Asymmetry_Pilot,2022.1.3,MacIntel,58.82352941,629c4b6caf241d5e6e00bfc0,,,,,,,,,,,,,,,,,,,,twofour,,-4,0.566,,,,,,,,,,,,,,,,,,,,,,,,,,,,,,,,,,"[-0.2942,-0.7648,-0.7492000000000001]","[-0.4982,-0.2942,-0.0354000000000001]",-37,73,1,0,0,response7disk,-3,10,1,0,0,rectangle,-3,10,1,0,0,2,3,0.003,0,-3,10,1,0,0,0,15,15,47,1,47,first,,,,,,,,,,,,,,,,,,,,,,,,,,,,,,,,,,,,,,,,,,,,,,,,,,,,,,,,
,,,,,,602ea981977e11a989ff5d72,629c522d85062e9f89d27da7,2022-06-05_08h53.51.291,Colour_Asymmetry_Pilot,2022.1.3,MacIntel,58.82352941,629c4b6caf241d5e6e00bfc0,,,,,,,,,,,,,,,,,,,,fourtwo,,1,0.733,,,,,,,,,,,,,,,,,,,,,,,,,,,,,,,,,,"[0.23120000000000007,-0.7726,-0.34120000000000006]","[-0.2942,-0.7648,-0.7492000000000001]",42,-74,1,0,0,response3disk,2,1,1,0,0,rectangle,2,1,1,0,0,2,2,0.003,0,2,1,1,0,0,0,16,16,39,1,39,first,,,,,,,,,,,,,,,,,,,,,,,,,,,,,,,,,,,,,,,,,,,,,,,,,,,,,,,,
,,,,,,602ea981977e11a989ff5d72,629c522d85062e9f89d27da7,2022-06-05_08h53.51.291,Colour_Asymmetry_Pilot,2022.1.3,MacIntel,58.82352941,629c4b6caf241d5e6e00bfc0,,,,,,,,,,,,,,,,,,,,onetwo,,-4,0.4,,,,,,,,,,,,,,,,,,,,,,,,,,,,,,,,,,"[-0.5922000000000001,-0.7492000000000001,-0.5296000000000001]","[0.2862,0.7802,0.3568]",-37,76,1,0,0,response7disk,-8,6,1,0,0,rectangle,-8,6,1,0,0,2,1,0.003,0,-8,6,1,0,0,0,17,17,28,1,28,first,,,,,,,,,,,,,,,,,,,,,,,,,,,,,,,,,,,,,,,,,,,,,,,,,,,,,,,,
,,,,,,602ea981977e11a989ff5d72,629c522d85062e9f89d27da7,2022-06-05_08h53.51.291,Colour_Asymmetry_Pilot,2022.1.3,MacIntel,58.82352941,629c4b6caf241d5e6e00bfc0,,,,,,,,,,,,,,,,,,,,fourthree,,1,0.533,,,,,,,,,,,,,,,,,,,,,,,,,,,,,,,,,,"[0.9372,0.20779999999999998,0.2704]","[-0.26280000000000003,-0.4746,-0.2158]",47,-100,1,0,0,response3disk,-8,8,1,0,0,rectangle,-8,8,1,0,0,2,3,0.003,0,-8,8,1,0,0,0,18,18,6,1,6,first,,,,,,,,,,,,,,,,,,,,,,,,,,,,,,,,,,,,,,,,,,,,,,,,,,,,,,,,
,,,,,,602ea981977e11a989ff5d72,629c522d85062e9f89d27da7,2022-06-05_08h53.51.291,Colour_Asymmetry_Pilot,2022.1.3,MacIntel,58.82352941,629c4b6caf241d5e6e00bfc0,,,,,,,,,,,,,,,,,,,,onethree,,-1,0.716,,,,,,,,,,,,,,,,,,,,,,,,,,,,,,,,,,"[-0.4982,-0.2942,-0.0354000000000001]","[-0.2942,-0.7648,-0.7492000000000001]",-32,-82,1,0,0,response5disk,-11,-7,1,0,0,rectangle,-11,-7,1,0,0,2,2,0.007,0,-11,-7,1,0,0,0,19,19,128,1,47,second,,,,,,,,,,,,,,,,,,,,,,,,,,,,,,,,,,,,,,,,,,,,,,,,,,,,,,,,
,,,,,,602ea981977e11a989ff5d72,629c522d85062e9f89d27da7,2022-06-05_08h53.51.291,Colour_Asymmetry_Pilot,2022.1.3,MacIntel,58.82352941,629c4b6caf241d5e6e00bfc0,,,,,,,,,,,,,,,,,,,,threeone,,-1,0.75,,,,,,,,,,,,,,,,,,,,,,,,,,,,,,,,,,"[-0.9138,-0.5296000000000001,-0.5529999999999999]","[-0.24719999999999998,-0.0354000000000001,0.3175999999999999]",-38,-71,1,0,0,response5disk,14,-1,1,0,0,rectangle,14,-1,1,0,0,2,3,0.006,0,14,-1,1,0,0,0,20,20,153,1,72,second,,,,,,,,,,,,,,,,,,,,,,,,,,,,,,,,,,,,,,,,,,,,,,,,,,,,,,,,
,,,,,,602ea981977e11a989ff5d72,629c522d85062e9f89d27da7,2022-06-05_08h53.51.291,Colour_Asymmetry_Pilot,2022.1.3,MacIntel,58.82352941,629c4b6caf241d5e6e00bfc0,,,,,,,,,,,,,,,,,,,,threeone,,-2,0.501,,,,,,,,,,,,,,,,,,,,,,,,,,,,,,,,,,"[0.37240000000000006,-0.050999999999999934,-0.5216]","[0.23120000000000007,-0.7726,-0.34120000000000006]",-77,-21,1,0,0,response5disk,-9,-13,1,0,0,rectangle,39,-87,1,0,0,1,1,1.249,1,-3,-6,1,0,0,0,21,21,159,1,78,second,response3disk_3,rectangle,,,,,,,,,,,,,,,,,,,,,,,,,,,,,,,,,,,,,,,,,,,,,,,,,,,,,,
,,,,,,602ea981977e11a989ff5d72,629c522d85062e9f89d27da7,2022-06-05_08h53.51.291,Colour_Asymmetry_Pilot,2022.1.3,MacIntel,58.82352941,629c4b6caf241d5e6e00bfc0,,,,,,,,,,,,,,,,,,,,threeone,,-4,0.55,,,,,,,,,,,,,,,,,,,,,,,,,,,,,,,,,,"[-0.9688,-0.4902000000000001,-0.12159999999999993]","[0.8115999999999999,-0.0040000000000000036,-0.09819999999999995]",-56,80,1,0,0,response7disk,-8,10,1,0,0,rectangle,-8,10,1,0,0,1,2,0.003,0,-8,10,1,0,0,0,22,22,83,1,2,second,,,,,,,,,,,,,,,,,,,,,,,,,,,,,,,,,,,,,,,,,,,,,,,,,,,,,,,,
,,,,,,602ea981977e11a989ff5d72,629c522d85062e9f89d27da7,2022-06-05_08h53.51.291,Colour_Asymmetry_Pilot,2022.1.3,MacIntel,58.82352941,629c4b6caf241d5e6e00bfc0,,,,,,,,,,,,,,,,,,,,threeone,,-1,0.534,,,,,,,,,,,,,,,,,,,,,,,,,,,,,,,,,,"[-0.8118,-0.8198,-0.5452]","[-0.2942,-0.7648,-0.7492000000000001]",-50,-76,1,0,0,response5disk,-5,-6,1,0,0,rectangle,-5,-6,1,0,0,1,1,0.002,0,-5,-6,1,0,0,0,23,23,46,1,46,first,,,,,,,,,,,,,,,,,,,,,,,,,,,,,,,,,,,,,,,,,,,,,,,,,,,,,,,,
,,,,,,602ea981977e11a989ff5d72,629c522d85062e9f89d27da7,2022-06-05_08h53.51.291,Colour_Asymmetry_Pilot,2022.1.3,MacIntel,58.82352941,629c4b6caf241d5e6e00bfc0,,,,,,,,,,,,,,,,,,,,twofour,,2,0.533,,,,,,,,,,,,,,,,,,,,,,,,,,,,,,,,,,"[0.23920000000000008,0.2704,0.16060000000000008]","[-0.26280000000000003,-0.2158,-0.3256]",67,-44,1,0,0,response3disk,13,-11,1,0,0,rectangle,13,-11,1,0,0,1,2,0.002,0,13,-11,1,0,0,0,24,24,130,1,49,second,,,,,,,,,,,,,,,,,,,,,,,,,,,,,,,,,,,,,,,,,,,,,,,,,,,,,,,,
,,,,,,602ea981977e11a989ff5d72,629c522d85062e9f89d27da7,2022-06-05_08h53.51.291,Colour_Asymmetry_Pilot,2022.1.3,MacIntel,58.82352941,629c4b6caf241d5e6e00bfc0,,,,,,,,,,,,,,,,,,,,threefour,,-3,1.15,,,,,,,,,,,,,,,,,,,,,,,,,,,,,,,,,,"[0.9842,0.7409999999999999,-0.6628000000000001]","[-0.9766,-0.6472,0.07440000000000002]",-72,32,1,0,0,response7disk,1,-2,1,0,0,rectangle,1,-2,1,0,0,1,2,0,0,1,-2,1,0,0,0,25,25,138,1,57,second,,,,,,,,,,,,,,,,,,,,,,,,,,,,,,,,,,,,,,,,,,,,,,,,,,,,,,,,
