trials.thisRepN,trials.thisTrialN,trials.thisN,trials.thisIndex,trials.ran,Colourcodes,participant,session,date,expName,psychopyVersion,OS,frameRate,study_id,trials_4.thisRepN,trials_4.thisTrialN,trials_4.thisN,trials_4.thisIndex,trials_4.ran,StimulusPos,key_resp.keys,key_resp.rt,key_resp_2.keys,key_resp_2.rt,key_resp_15.keys,key_resp_15.rt,key_resp_17.keys,key_resp_17.rt,key_resp_9.keys,key_resp_9.rt,key_resp_10.keys,key_resp_10.rt,Circle1_col,Ecc,Circle2_col,similarity,response_time,mouse_5.x,mouse_5.y,mouse_5.leftButton,mouse_5.midButton,mouse_5.rightButton,mouse_5.clicked_name,mouse_10.x,mouse_10.y,mouse_10.leftButton,mouse_10.midButton,mouse_10.rightButton,mouse_10.clicked_name,mouse_7.x,mouse_7.y,mouse_7.leftButton,mouse_7.midButton,mouse_7.rightButton,mouse_7.clicked_name,catchprac,catchnumberprac,mouse_6.x,mouse_6.y,mouse_6.leftButton,mouse_6.midButton,mouse_6.rightButton,mouse_6.clicked_name,duringprac.thisRepN,duringprac.thisTrialN,duringprac.thisN,duringprac.thisIndex,duringprac.ran,key_resp_22.keys,key_resp_22.rt,Circle1_colour,Circle2_colour,mouse.x,mouse.y,mouse.leftButton,mouse.midButton,mouse.rightButton,mouse.clicked_name,mouse_2.x,mouse_2.y,mouse_2.leftButton,mouse_2.midButton,mouse_2.rightButton,mouse_2.clicked_name,mouse_3.x,mouse_3.y,mouse_3.leftButton,mouse_3.midButton,mouse_3.rightButton,catchresponse,catchnumber,response_time_catch,Catch,mouse_11.x,mouse_11.y,mouse_11.leftButton,mouse_11.midButton,mouse_11.rightButton,trials_2.thisRepN,trials_2.thisTrialN,trials_2.thisN,trials_2.thisIndex,trials_2.ran,Colourpair,Temporder,mouse_3.clicked_name,mouse_11.clicked_name,trials_3.thisRepN,trials_3.thisTrialN,trials_3.thisN,trials_3.thisIndex,trials_3.ran,textbox.text,mouse_4.x,mouse_4.y,mouse_4.leftButton,mouse_4.midButton,mouse_4.rightButton,mouse_4.clicked_name,textbox_2.text,mouse_8.x,mouse_8.y,mouse_8.leftButton,mouse_8.midButton,mouse_8.rightButton,mouse_8.clicked_name,textbox_3.text,mouse_9.x,mouse_9.y,mouse_9.leftButton,mouse_9.midButton,mouse_9.rightButton,mouse_9.clicked_name,textbox_4.text,mouse_12.x,mouse_12.y,mouse_12.leftButton,mouse_12.midButton,mouse_12.rightButton,mouse_12.clicked_name,textbox_5.text,mouse_13.x,mouse_13.y,mouse_13.leftButton,mouse_13.midButton,mouse_13.rightButton,mouse_13.clicked_name,textbox_6.text,mouse_14.x,mouse_14.y,mouse_14.leftButton,mouse_14.midButton,mouse_14.rightButton,mouse_14.clicked_name,textbox_7.text,mouse_15.x,mouse_15.y,mouse_15.leftButton,mouse_15.midButton,mouse_15.rightButton,mouse_15.clicked_name
0,0,0,11,1,,5ef0932312818b06a0abf52d,629c523ac83985c5b8e0dc5f,2022-06-05_09h00.05.796,Colour_Asymmetry_Pilot,2022.1.3,MacIntel,60.0240096,629c4b6caf241d5e6e00bfc0,,,,,,,,,,,,,,,,,,,,,,,,,,,,,,,,,,,,,,,,,,,,,,,,,,,,,,,,,,,,,,,,,,,,,,,,,,,,,,,,,,,,,,,,,,,,,,,,,,,,,,,,,,,,,,,,,,,,,,,,,,,,,,,,,,,,,,,,,,,,,,,,,,,
0,1,1,5,1,,5ef0932312818b06a0abf52d,629c523ac83985c5b8e0dc5f,2022-06-05_09h00.05.796,Colour_Asymmetry_Pilot,2022.1.3,MacIntel,60.0240096,629c4b6caf241d5e6e00bfc0,,,,,,,,,,,,,,,,,,,,,,,,,,,,,,,,,,,,,,,,,,,,,,,,,,,,,,,,,,,,,,,,,,,,,,,,,,,,,,,,,,,,,,,,,,,,,,,,,,,,,,,,,,,,,,,,,,,,,,,,,,,,,,,,,,,,,,,,,,,,,,,,,,,
0,2,2,64,1,,5ef0932312818b06a0abf52d,629c523ac83985c5b8e0dc5f,2022-06-05_09h00.05.796,Colour_Asymmetry_Pilot,2022.1.3,MacIntel,60.0240096,629c4b6caf241d5e6e00bfc0,,,,,,,,,,,,,,,,,,,,,,,,,,,,,,,,,,,,,,,,,,,,,,,,,,,,,,,,,,,,,,,,,,,,,,,,,,,,,,,,,,,,,,,,,,,,,,,,,,,,,,,,,,,,,,,,,,,,,,,,,,,,,,,,,,,,,,,,,,,,,,,,,,,
0,3,3,78,1,,5ef0932312818b06a0abf52d,629c523ac83985c5b8e0dc5f,2022-06-05_09h00.05.796,Colour_Asymmetry_Pilot,2022.1.3,MacIntel,60.0240096,629c4b6caf241d5e6e00bfc0,,,,,,,,,,,,,,,,,,,,,,,,,,,,,,,,,,,,,,,,,,,,,,,,,,,,,,,,,,,,,,,,,,,,,,,,,,,,,,,,,,,,,,,,,,,,,,,,,,,,,,,,,,,,,,,,,,,,,,,,,,,,,,,,,,,,,,,,,,,,,,,,,,,
0,4,4,32,1,,5ef0932312818b06a0abf52d,629c523ac83985c5b8e0dc5f,2022-06-05_09h00.05.796,Colour_Asymmetry_Pilot,2022.1.3,MacIntel,60.0240096,629c4b6caf241d5e6e00bfc0,,,,,,,,,,,,,,,,,,,,,,,,,,,,,,,,,,,,,,,,,,,,,,,,,,,,,,,,,,,,,,,,,,,,,,,,,,,,,,,,,,,,,,,,,,,,,,,,,,,,,,,,,,,,,,,,,,,,,,,,,,,,,,,,,,,,,,,,,,,,,,,,,,,
0,5,5,13,1,,5ef0932312818b06a0abf52d,629c523ac83985c5b8e0dc5f,2022-06-05_09h00.05.796,Colour_Asymmetry_Pilot,2022.1.3,MacIntel,60.0240096,629c4b6caf241d5e6e00bfc0,,,,,,,,,,,,,,,,,,,,,,,,,,,,,,,,,,,,,,,,,,,,,,,,,,,,,,,,,,,,,,,,,,,,,,,,,,,,,,,,,,,,,,,,,,,,,,,,,,,,,,,,,,,,,,,,,,,,,,,,,,,,,,,,,,,,,,,,,,,,,,,,,,,
0,6,6,91,1,,5ef0932312818b06a0abf52d,629c523ac83985c5b8e0dc5f,2022-06-05_09h00.05.796,Colour_Asymmetry_Pilot,2022.1.3,MacIntel,60.0240096,629c4b6caf241d5e6e00bfc0,,,,,,,,,,,,,,,,,,,,,,,,,,,,,,,,,,,,,,,,,,,,,,,,,,,,,,,,,,,,,,,,,,,,,,,,,,,,,,,,,,,,,,,,,,,,,,,,,,,,,,,,,,,,,,,,,,,,,,,,,,,,,,,,,,,,,,,,,,,,,,,,,,,
0,7,7,70,1,,5ef0932312818b06a0abf52d,629c523ac83985c5b8e0dc5f,2022-06-05_09h00.05.796,Colour_Asymmetry_Pilot,2022.1.3,MacIntel,60.0240096,629c4b6caf241d5e6e00bfc0,,,,,,,,,,,,,,,,,,,,,,,,,,,,,,,,,,,,,,,,,,,,,,,,,,,,,,,,,,,,,,,,,,,,,,,,,,,,,,,,,,,,,,,,,,,,,,,,,,,,,,,,,,,,,,,,,,,,,,,,,,,,,,,,,,,,,,,,,,,,,,,,,,,
0,8,8,35,1,,5ef0932312818b06a0abf52d,629c523ac83985c5b8e0dc5f,2022-06-05_09h00.05.796,Colour_Asymmetry_Pilot,2022.1.3,MacIntel,60.0240096,629c4b6caf241d5e6e00bfc0,,,,,,,,,,,,,,,,,,,,,,,,,,,,,,,,,,,,,,,,,,,,,,,,,,,,,,,,,,,,,,,,,,,,,,,,,,,,,,,,,,,,,,,,,,,,,,,,,,,,,,,,,,,,,,,,,,,,,,,,,,,,,,,,,,,,,,,,,,,,,,,,,,,
0,9,9,50,1,,5ef0932312818b06a0abf52d,629c523ac83985c5b8e0dc5f,2022-06-05_09h00.05.796,Colour_Asymmetry_Pilot,2022.1.3,MacIntel,60.0240096,629c4b6caf241d5e6e00bfc0,,,,,,,,,,,,,,,,,,,,,,,,,,,,,,,,,,,,,,,,,,,,,,,,,,,,,,,,,,,,,,,,,,,,,,,,,,,,,,,,,,,,,,,,,,,,,,,,,,,,,,,,,,,,,,,,,,,,,,,,,,,,,,,,,,,,,,,,,,,,,,,,,,,
0,10,10,73,1,,5ef0932312818b06a0abf52d,629c523ac83985c5b8e0dc5f,2022-06-05_09h00.05.796,Colour_Asymmetry_Pilot,2022.1.3,MacIntel,60.0240096,629c4b6caf241d5e6e00bfc0,,,,,,,,,,,,,,,,,,,,,,,,,,,,,,,,,,,,,,,,,,,,,,,,,,,,,,,,,,,,,,,,,,,,,,,,,,,,,,,,,,,,,,,,,,,,,,,,,,,,,,,,,,,,,,,,,,,,,,,,,,,,,,,,,,,,,,,,,,,,,,,,,,,
0,11,11,69,1,,5ef0932312818b06a0abf52d,629c523ac83985c5b8e0dc5f,2022-06-05_09h00.05.796,Colour_Asymmetry_Pilot,2022.1.3,MacIntel,60.0240096,629c4b6caf241d5e6e00bfc0,,,,,,,,,,,,,,,,,,,,,,,,,,,,,,,,,,,,,,,,,,,,,,,,,,,,,,,,,,,,,,,,,,,,,,,,,,,,,,,,,,,,,,,,,,,,,,,,,,,,,,,,,,,,,,,,,,,,,,,,,,,,,,,,,,,,,,,,,,,,,,,,,,,
0,12,12,31,1,,5ef0932312818b06a0abf52d,629c523ac83985c5b8e0dc5f,2022-06-05_09h00.05.796,Colour_Asymmetry_Pilot,2022.1.3,MacIntel,60.0240096,629c4b6caf241d5e6e00bfc0,,,,,,,,,,,,,,,,,,,,,,,,,,,,,,,,,,,,,,,,,,,,,,,,,,,,,,,,,,,,,,,,,,,,,,,,,,,,,,,,,,,,,,,,,,,,,,,,,,,,,,,,,,,,,,,,,,,,,,,,,,,,,,,,,,,,,,,,,,,,,,,,,,,
0,13,13,37,1,,5ef0932312818b06a0abf52d,629c523ac83985c5b8e0dc5f,2022-06-05_09h00.05.796,Colour_Asymmetry_Pilot,2022.1.3,MacIntel,60.0240096,629c4b6caf241d5e6e00bfc0,,,,,,,,,,,,,,,,,,,,,,,,,,,,,,,,,,,,,,,,,,,,,,,,,,,,,,,,,,,,,,,,,,,,,,,,,,,,,,,,,,,,,,,,,,,,,,,,,,,,,,,,,,,,,,,,,,,,,,,,,,,,,,,,,,,,,,,,,,,,,,,,,,,
0,14,14,6,1,,5ef0932312818b06a0abf52d,629c523ac83985c5b8e0dc5f,2022-06-05_09h00.05.796,Colour_Asymmetry_Pilot,2022.1.3,MacIntel,60.0240096,629c4b6caf241d5e6e00bfc0,,,,,,,,,,,,,,,,,,,,,,,,,,,,,,,,,,,,,,,,,,,,,,,,,,,,,,,,,,,,,,,,,,,,,,,,,,,,,,,,,,,,,,,,,,,,,,,,,,,,,,,,,,,,,,,,,,,,,,,,,,,,,,,,,,,,,,,,,,,,,,,,,,,
0,15,15,62,1,,5ef0932312818b06a0abf52d,629c523ac83985c5b8e0dc5f,2022-06-05_09h00.05.796,Colour_Asymmetry_Pilot,2022.1.3,MacIntel,60.0240096,629c4b6caf241d5e6e00bfc0,,,,,,,,,,,,,,,,,,,,,,,,,,,,,,,,,,,,,,,,,,,,,,,,,,,,,,,,,,,,,,,,,,,,,,,,,,,,,,,,,,,,,,,,,,,,,,,,,,,,,,,,,,,,,,,,,,,,,,,,,,,,,,,,,,,,,,,,,,,,,,,,,,,
0,16,16,8,1,,5ef0932312818b06a0abf52d,629c523ac83985c5b8e0dc5f,2022-06-05_09h00.05.796,Colour_Asymmetry_Pilot,2022.1.3,MacIntel,60.0240096,629c4b6caf241d5e6e00bfc0,,,,,,,,,,,,,,,,,,,,,,,,,,,,,,,,,,,,,,,,,,,,,,,,,,,,,,,,,,,,,,,,,,,,,,,,,,,,,,,,,,,,,,,,,,,,,,,,,,,,,,,,,,,,,,,,,,,,,,,,,,,,,,,,,,,,,,,,,,,,,,,,,,,
0,17,17,10,1,,5ef0932312818b06a0abf52d,629c523ac83985c5b8e0dc5f,2022-06-05_09h00.05.796,Colour_Asymmetry_Pilot,2022.1.3,MacIntel,60.0240096,629c4b6caf241d5e6e00bfc0,,,,,,,,,,,,,,,,,,,,,,,,,,,,,,,,,,,,,,,,,,,,,,,,,,,,,,,,,,,,,,,,,,,,,,,,,,,,,,,,,,,,,,,,,,,,,,,,,,,,,,,,,,,,,,,,,,,,,,,,,,,,,,,,,,,,,,,,,,,,,,,,,,,
0,18,18,66,1,,5ef0932312818b06a0abf52d,629c523ac83985c5b8e0dc5f,2022-06-05_09h00.05.796,Colour_Asymmetry_Pilot,2022.1.3,MacIntel,60.0240096,629c4b6caf241d5e6e00bfc0,,,,,,,,,,,,,,,,,,,,,,,,,,,,,,,,,,,,,,,,,,,,,,,,,,,,,,,,,,,,,,,,,,,,,,,,,,,,,,,,,,,,,,,,,,,,,,,,,,,,,,,,,,,,,,,,,,,,,,,,,,,,,,,,,,,,,,,,,,,,,,,,,,,
0,19,19,2,1,,5ef0932312818b06a0abf52d,629c523ac83985c5b8e0dc5f,2022-06-05_09h00.05.796,Colour_Asymmetry_Pilot,2022.1.3,MacIntel,60.0240096,629c4b6caf241d5e6e00bfc0,,,,,,,,,,,,,,,,,,,,,,,,,,,,,,,,,,,,,,,,,,,,,,,,,,,,,,,,,,,,,,,,,,,,,,,,,,,,,,,,,,,,,,,,,,,,,,,,,,,,,,,,,,,,,,,,,,,,,,,,,,,,,,,,,,,,,,,,,,,,,,,,,,,
0,20,20,28,1,,5ef0932312818b06a0abf52d,629c523ac83985c5b8e0dc5f,2022-06-05_09h00.05.796,Colour_Asymmetry_Pilot,2022.1.3,MacIntel,60.0240096,629c4b6caf241d5e6e00bfc0,,,,,,,,,,,,,,,,,,,,,,,,,,,,,,,,,,,,,,,,,,,,,,,,,,,,,,,,,,,,,,,,,,,,,,,,,,,,,,,,,,,,,,,,,,,,,,,,,,,,,,,,,,,,,,,,,,,,,,,,,,,,,,,,,,,,,,,,,,,,,,,,,,,
0,21,21,0,1,,5ef0932312818b06a0abf52d,629c523ac83985c5b8e0dc5f,2022-06-05_09h00.05.796,Colour_Asymmetry_Pilot,2022.1.3,MacIntel,60.0240096,629c4b6caf241d5e6e00bfc0,,,,,,,,,,,,,,,,,,,,,,,,,,,,,,,,,,,,,,,,,,,,,,,,,,,,,,,,,,,,,,,,,,,,,,,,,,,,,,,,,,,,,,,,,,,,,,,,,,,,,,,,,,,,,,,,,,,,,,,,,,,,,,,,,,,,,,,,,,,,,,,,,,,
0,22,22,47,1,,5ef0932312818b06a0abf52d,629c523ac83985c5b8e0dc5f,2022-06-05_09h00.05.796,Colour_Asymmetry_Pilot,2022.1.3,MacIntel,60.0240096,629c4b6caf241d5e6e00bfc0,,,,,,,,,,,,,,,,,,,,,,,,,,,,,,,,,,,,,,,,,,,,,,,,,,,,,,,,,,,,,,,,,,,,,,,,,,,,,,,,,,,,,,,,,,,,,,,,,,,,,,,,,,,,,,,,,,,,,,,,,,,,,,,,,,,,,,,,,,,,,,,,,,,
0,23,23,48,1,,5ef0932312818b06a0abf52d,629c523ac83985c5b8e0dc5f,2022-06-05_09h00.05.796,Colour_Asymmetry_Pilot,2022.1.3,MacIntel,60.0240096,629c4b6caf241d5e6e00bfc0,,,,,,,,,,,,,,,,,,,,,,,,,,,,,,,,,,,,,,,,,,,,,,,,,,,,,,,,,,,,,,,,,,,,,,,,,,,,,,,,,,,,,,,,,,,,,,,,,,,,,,,,,,,,,,,,,,,,,,,,,,,,,,,,,,,,,,,,,,,,,,,,,,,
0,24,24,24,1,,5ef0932312818b06a0abf52d,629c523ac83985c5b8e0dc5f,2022-06-05_09h00.05.796,Colour_Asymmetry_Pilot,2022.1.3,MacIntel,60.0240096,629c4b6caf241d5e6e00bfc0,,,,,,,,,,,,,,,,,,,,,,,,,,,,,,,,,,,,,,,,,,,,,,,,,,,,,,,,,,,,,,,,,,,,,,,,,,,,,,,,,,,,,,,,,,,,,,,,,,,,,,,,,,,,,,,,,,,,,,,,,,,,,,,,,,,,,,,,,,,,,,,,,,,
0,25,25,1,1,,5ef0932312818b06a0abf52d,629c523ac83985c5b8e0dc5f,2022-06-05_09h00.05.796,Colour_Asymmetry_Pilot,2022.1.3,MacIntel,60.0240096,629c4b6caf241d5e6e00bfc0,,,,,,,,,,,,,,,,,,,,,,,,,,,,,,,,,,,,,,,,,,,,,,,,,,,,,,,,,,,,,,,,,,,,,,,,,,,,,,,,,,,,,,,,,,,,,,,,,,,,,,,,,,,,,,,,,,,,,,,,,,,,,,,,,,,,,,,,,,,,,,,,,,,
0,26,26,87,1,,5ef0932312818b06a0abf52d,629c523ac83985c5b8e0dc5f,2022-06-05_09h00.05.796,Colour_Asymmetry_Pilot,2022.1.3,MacIntel,60.0240096,629c4b6caf241d5e6e00bfc0,,,,,,,,,,,,,,,,,,,,,,,,,,,,,,,,,,,,,,,,,,,,,,,,,,,,,,,,,,,,,,,,,,,,,,,,,,,,,,,,,,,,,,,,,,,,,,,,,,,,,,,,,,,,,,,,,,,,,,,,,,,,,,,,,,,,,,,,,,,,,,,,,,,
0,27,27,89,1,,5ef0932312818b06a0abf52d,629c523ac83985c5b8e0dc5f,2022-06-05_09h00.05.796,Colour_Asymmetry_Pilot,2022.1.3,MacIntel,60.0240096,629c4b6caf241d5e6e00bfc0,,,,,,,,,,,,,,,,,,,,,,,,,,,,,,,,,,,,,,,,,,,,,,,,,,,,,,,,,,,,,,,,,,,,,,,,,,,,,,,,,,,,,,,,,,,,,,,,,,,,,,,,,,,,,,,,,,,,,,,,,,,,,,,,,,,,,,,,,,,,,,,,,,,
0,28,28,72,1,,5ef0932312818b06a0abf52d,629c523ac83985c5b8e0dc5f,2022-06-05_09h00.05.796,Colour_Asymmetry_Pilot,2022.1.3,MacIntel,60.0240096,629c4b6caf241d5e6e00bfc0,,,,,,,,,,,,,,,,,,,,,,,,,,,,,,,,,,,,,,,,,,,,,,,,,,,,,,,,,,,,,,,,,,,,,,,,,,,,,,,,,,,,,,,,,,,,,,,,,,,,,,,,,,,,,,,,,,,,,,,,,,,,,,,,,,,,,,,,,,,,,,,,,,,
0,29,29,46,1,,5ef0932312818b06a0abf52d,629c523ac83985c5b8e0dc5f,2022-06-05_09h00.05.796,Colour_Asymmetry_Pilot,2022.1.3,MacIntel,60.0240096,629c4b6caf241d5e6e00bfc0,,,,,,,,,,,,,,,,,,,,,,,,,,,,,,,,,,,,,,,,,,,,,,,,,,,,,,,,,,,,,,,,,,,,,,,,,,,,,,,,,,,,,,,,,,,,,,,,,,,,,,,,,,,,,,,,,,,,,,,,,,,,,,,,,,,,,,,,,,,,,,,,,,,
0,30,30,83,1,,5ef0932312818b06a0abf52d,629c523ac83985c5b8e0dc5f,2022-06-05_09h00.05.796,Colour_Asymmetry_Pilot,2022.1.3,MacIntel,60.0240096,629c4b6caf241d5e6e00bfc0,,,,,,,,,,,,,,,,,,,,,,,,,,,,,,,,,,,,,,,,,,,,,,,,,,,,,,,,,,,,,,,,,,,,,,,,,,,,,,,,,,,,,,,,,,,,,,,,,,,,,,,,,,,,,,,,,,,,,,,,,,,,,,,,,,,,,,,,,,,,,,,,,,,
0,31,31,41,1,,5ef0932312818b06a0abf52d,629c523ac83985c5b8e0dc5f,2022-06-05_09h00.05.796,Colour_Asymmetry_Pilot,2022.1.3,MacIntel,60.0240096,629c4b6caf241d5e6e00bfc0,,,,,,,,,,,,,,,,,,,,,,,,,,,,,,,,,,,,,,,,,,,,,,,,,,,,,,,,,,,,,,,,,,,,,,,,,,,,,,,,,,,,,,,,,,,,,,,,,,,,,,,,,,,,,,,,,,,,,,,,,,,,,,,,,,,,,,,,,,,,,,,,,,,
0,32,32,17,1,,5ef0932312818b06a0abf52d,629c523ac83985c5b8e0dc5f,2022-06-05_09h00.05.796,Colour_Asymmetry_Pilot,2022.1.3,MacIntel,60.0240096,629c4b6caf241d5e6e00bfc0,,,,,,,,,,,,,,,,,,,,,,,,,,,,,,,,,,,,,,,,,,,,,,,,,,,,,,,,,,,,,,,,,,,,,,,,,,,,,,,,,,,,,,,,,,,,,,,,,,,,,,,,,,,,,,,,,,,,,,,,,,,,,,,,,,,,,,,,,,,,,,,,,,,
0,33,33,80,1,,5ef0932312818b06a0abf52d,629c523ac83985c5b8e0dc5f,2022-06-05_09h00.05.796,Colour_Asymmetry_Pilot,2022.1.3,MacIntel,60.0240096,629c4b6caf241d5e6e00bfc0,,,,,,,,,,,,,,,,,,,,,,,,,,,,,,,,,,,,,,,,,,,,,,,,,,,,,,,,,,,,,,,,,,,,,,,,,,,,,,,,,,,,,,,,,,,,,,,,,,,,,,,,,,,,,,,,,,,,,,,,,,,,,,,,,,,,,,,,,,,,,,,,,,,
0,34,34,92,1,,5ef0932312818b06a0abf52d,629c523ac83985c5b8e0dc5f,2022-06-05_09h00.05.796,Colour_Asymmetry_Pilot,2022.1.3,MacIntel,60.0240096,629c4b6caf241d5e6e00bfc0,,,,,,,,,,,,,,,,,,,,,,,,,,,,,,,,,,,,,,,,,,,,,,,,,,,,,,,,,,,,,,,,,,,,,,,,,,,,,,,,,,,,,,,,,,,,,,,,,,,,,,,,,,,,,,,,,,,,,,,,,,,,,,,,,,,,,,,,,,,,,,,,,,,
0,35,35,88,1,,5ef0932312818b06a0abf52d,629c523ac83985c5b8e0dc5f,2022-06-05_09h00.05.796,Colour_Asymmetry_Pilot,2022.1.3,MacIntel,60.0240096,629c4b6caf241d5e6e00bfc0,,,,,,,,,,,,,,,,,,,,,,,,,,,,,,,,,,,,,,,,,,,,,,,,,,,,,,,,,,,,,,,,,,,,,,,,,,,,,,,,,,,,,,,,,,,,,,,,,,,,,,,,,,,,,,,,,,,,,,,,,,,,,,,,,,,,,,,,,,,,,,,,,,,
0,36,36,57,1,,5ef0932312818b06a0abf52d,629c523ac83985c5b8e0dc5f,2022-06-05_09h00.05.796,Colour_Asymmetry_Pilot,2022.1.3,MacIntel,60.0240096,629c4b6caf241d5e6e00bfc0,,,,,,,,,,,,,,,,,,,,,,,,,,,,,,,,,,,,,,,,,,,,,,,,,,,,,,,,,,,,,,,,,,,,,,,,,,,,,,,,,,,,,,,,,,,,,,,,,,,,,,,,,,,,,,,,,,,,,,,,,,,,,,,,,,,,,,,,,,,,,,,,,,,
0,37,37,63,1,,5ef0932312818b06a0abf52d,629c523ac83985c5b8e0dc5f,2022-06-05_09h00.05.796,Colour_Asymmetry_Pilot,2022.1.3,MacIntel,60.0240096,629c4b6caf241d5e6e00bfc0,,,,,,,,,,,,,,,,,,,,,,,,,,,,,,,,,,,,,,,,,,,,,,,,,,,,,,,,,,,,,,,,,,,,,,,,,,,,,,,,,,,,,,,,,,,,,,,,,,,,,,,,,,,,,,,,,,,,,,,,,,,,,,,,,,,,,,,,,,,,,,,,,,,
0,38,38,84,1,,5ef0932312818b06a0abf52d,629c523ac83985c5b8e0dc5f,2022-06-05_09h00.05.796,Colour_Asymmetry_Pilot,2022.1.3,MacIntel,60.0240096,629c4b6caf241d5e6e00bfc0,,,,,,,,,,,,,,,,,,,,,,,,,,,,,,,,,,,,,,,,,,,,,,,,,,,,,,,,,,,,,,,,,,,,,,,,,,,,,,,,,,,,,,,,,,,,,,,,,,,,,,,,,,,,,,,,,,,,,,,,,,,,,,,,,,,,,,,,,,,,,,,,,,,
0,39,39,40,1,,5ef0932312818b06a0abf52d,629c523ac83985c5b8e0dc5f,2022-06-05_09h00.05.796,Colour_Asymmetry_Pilot,2022.1.3,MacIntel,60.0240096,629c4b6caf241d5e6e00bfc0,,,,,,,,,,,,,,,,,,,,,,,,,,,,,,,,,,,,,,,,,,,,,,,,,,,,,,,,,,,,,,,,,,,,,,,,,,,,,,,,,,,,,,,,,,,,,,,,,,,,,,,,,,,,,,,,,,,,,,,,,,,,,,,,,,,,,,,,,,,,,,,,,,,
0,40,40,27,1,,5ef0932312818b06a0abf52d,629c523ac83985c5b8e0dc5f,2022-06-05_09h00.05.796,Colour_Asymmetry_Pilot,2022.1.3,MacIntel,60.0240096,629c4b6caf241d5e6e00bfc0,,,,,,,,,,,,,,,,,,,,,,,,,,,,,,,,,,,,,,,,,,,,,,,,,,,,,,,,,,,,,,,,,,,,,,,,,,,,,,,,,,,,,,,,,,,,,,,,,,,,,,,,,,,,,,,,,,,,,,,,,,,,,,,,,,,,,,,,,,,,,,,,,,,
0,41,41,44,1,,5ef0932312818b06a0abf52d,629c523ac83985c5b8e0dc5f,2022-06-05_09h00.05.796,Colour_Asymmetry_Pilot,2022.1.3,MacIntel,60.0240096,629c4b6caf241d5e6e00bfc0,,,,,,,,,,,,,,,,,,,,,,,,,,,,,,,,,,,,,,,,,,,,,,,,,,,,,,,,,,,,,,,,,,,,,,,,,,,,,,,,,,,,,,,,,,,,,,,,,,,,,,,,,,,,,,,,,,,,,,,,,,,,,,,,,,,,,,,,,,,,,,,,,,,
0,42,42,56,1,,5ef0932312818b06a0abf52d,629c523ac83985c5b8e0dc5f,2022-06-05_09h00.05.796,Colour_Asymmetry_Pilot,2022.1.3,MacIntel,60.0240096,629c4b6caf241d5e6e00bfc0,,,,,,,,,,,,,,,,,,,,,,,,,,,,,,,,,,,,,,,,,,,,,,,,,,,,,,,,,,,,,,,,,,,,,,,,,,,,,,,,,,,,,,,,,,,,,,,,,,,,,,,,,,,,,,,,,,,,,,,,,,,,,,,,,,,,,,,,,,,,,,,,,,,
0,43,43,39,1,,5ef0932312818b06a0abf52d,629c523ac83985c5b8e0dc5f,2022-06-05_09h00.05.796,Colour_Asymmetry_Pilot,2022.1.3,MacIntel,60.0240096,629c4b6caf241d5e6e00bfc0,,,,,,,,,,,,,,,,,,,,,,,,,,,,,,,,,,,,,,,,,,,,,,,,,,,,,,,,,,,,,,,,,,,,,,,,,,,,,,,,,,,,,,,,,,,,,,,,,,,,,,,,,,,,,,,,,,,,,,,,,,,,,,,,,,,,,,,,,,,,,,,,,,,
0,44,44,33,1,,5ef0932312818b06a0abf52d,629c523ac83985c5b8e0dc5f,2022-06-05_09h00.05.796,Colour_Asymmetry_Pilot,2022.1.3,MacIntel,60.0240096,629c4b6caf241d5e6e00bfc0,,,,,,,,,,,,,,,,,,,,,,,,,,,,,,,,,,,,,,,,,,,,,,,,,,,,,,,,,,,,,,,,,,,,,,,,,,,,,,,,,,,,,,,,,,,,,,,,,,,,,,,,,,,,,,,,,,,,,,,,,,,,,,,,,,,,,,,,,,,,,,,,,,,
0,45,45,75,1,,5ef0932312818b06a0abf52d,629c523ac83985c5b8e0dc5f,2022-06-05_09h00.05.796,Colour_Asymmetry_Pilot,2022.1.3,MacIntel,60.0240096,629c4b6caf241d5e6e00bfc0,,,,,,,,,,,,,,,,,,,,,,,,,,,,,,,,,,,,,,,,,,,,,,,,,,,,,,,,,,,,,,,,,,,,,,,,,,,,,,,,,,,,,,,,,,,,,,,,,,,,,,,,,,,,,,,,,,,,,,,,,,,,,,,,,,,,,,,,,,,,,,,,,,,
0,46,46,25,1,,5ef0932312818b06a0abf52d,629c523ac83985c5b8e0dc5f,2022-06-05_09h00.05.796,Colour_Asymmetry_Pilot,2022.1.3,MacIntel,60.0240096,629c4b6caf241d5e6e00bfc0,,,,,,,,,,,,,,,,,,,,,,,,,,,,,,,,,,,,,,,,,,,,,,,,,,,,,,,,,,,,,,,,,,,,,,,,,,,,,,,,,,,,,,,,,,,,,,,,,,,,,,,,,,,,,,,,,,,,,,,,,,,,,,,,,,,,,,,,,,,,,,,,,,,
0,47,47,20,1,,5ef0932312818b06a0abf52d,629c523ac83985c5b8e0dc5f,2022-06-05_09h00.05.796,Colour_Asymmetry_Pilot,2022.1.3,MacIntel,60.0240096,629c4b6caf241d5e6e00bfc0,,,,,,,,,,,,,,,,,,,,,,,,,,,,,,,,,,,,,,,,,,,,,,,,,,,,,,,,,,,,,,,,,,,,,,,,,,,,,,,,,,,,,,,,,,,,,,,,,,,,,,,,,,,,,,,,,,,,,,,,,,,,,,,,,,,,,,,,,,,,,,,,,,,
0,48,48,79,1,,5ef0932312818b06a0abf52d,629c523ac83985c5b8e0dc5f,2022-06-05_09h00.05.796,Colour_Asymmetry_Pilot,2022.1.3,MacIntel,60.0240096,629c4b6caf241d5e6e00bfc0,,,,,,,,,,,,,,,,,,,,,,,,,,,,,,,,,,,,,,,,,,,,,,,,,,,,,,,,,,,,,,,,,,,,,,,,,,,,,,,,,,,,,,,,,,,,,,,,,,,,,,,,,,,,,,,,,,,,,,,,,,,,,,,,,,,,,,,,,,,,,,,,,,,
0,49,49,19,1,,5ef0932312818b06a0abf52d,629c523ac83985c5b8e0dc5f,2022-06-05_09h00.05.796,Colour_Asymmetry_Pilot,2022.1.3,MacIntel,60.0240096,629c4b6caf241d5e6e00bfc0,,,,,,,,,,,,,,,,,,,,,,,,,,,,,,,,,,,,,,,,,,,,,,,,,,,,,,,,,,,,,,,,,,,,,,,,,,,,,,,,,,,,,,,,,,,,,,,,,,,,,,,,,,,,,,,,,,,,,,,,,,,,,,,,,,,,,,,,,,,,,,,,,,,
0,50,50,61,1,,5ef0932312818b06a0abf52d,629c523ac83985c5b8e0dc5f,2022-06-05_09h00.05.796,Colour_Asymmetry_Pilot,2022.1.3,MacIntel,60.0240096,629c4b6caf241d5e6e00bfc0,,,,,,,,,,,,,,,,,,,,,,,,,,,,,,,,,,,,,,,,,,,,,,,,,,,,,,,,,,,,,,,,,,,,,,,,,,,,,,,,,,,,,,,,,,,,,,,,,,,,,,,,,,,,,,,,,,,,,,,,,,,,,,,,,,,,,,,,,,,,,,,,,,,
0,51,51,15,1,,5ef0932312818b06a0abf52d,629c523ac83985c5b8e0dc5f,2022-06-05_09h00.05.796,Colour_Asymmetry_Pilot,2022.1.3,MacIntel,60.0240096,629c4b6caf241d5e6e00bfc0,,,,,,,,,,,,,,,,,,,,,,,,,,,,,,,,,,,,,,,,,,,,,,,,,,,,,,,,,,,,,,,,,,,,,,,,,,,,,,,,,,,,,,,,,,,,,,,,,,,,,,,,,,,,,,,,,,,,,,,,,,,,,,,,,,,,,,,,,,,,,,,,,,,
0,52,52,45,1,,5ef0932312818b06a0abf52d,629c523ac83985c5b8e0dc5f,2022-06-05_09h00.05.796,Colour_Asymmetry_Pilot,2022.1.3,MacIntel,60.0240096,629c4b6caf241d5e6e00bfc0,,,,,,,,,,,,,,,,,,,,,,,,,,,,,,,,,,,,,,,,,,,,,,,,,,,,,,,,,,,,,,,,,,,,,,,,,,,,,,,,,,,,,,,,,,,,,,,,,,,,,,,,,,,,,,,,,,,,,,,,,,,,,,,,,,,,,,,,,,,,,,,,,,,
0,53,53,59,1,,5ef0932312818b06a0abf52d,629c523ac83985c5b8e0dc5f,2022-06-05_09h00.05.796,Colour_Asymmetry_Pilot,2022.1.3,MacIntel,60.0240096,629c4b6caf241d5e6e00bfc0,,,,,,,,,,,,,,,,,,,,,,,,,,,,,,,,,,,,,,,,,,,,,,,,,,,,,,,,,,,,,,,,,,,,,,,,,,,,,,,,,,,,,,,,,,,,,,,,,,,,,,,,,,,,,,,,,,,,,,,,,,,,,,,,,,,,,,,,,,,,,,,,,,,
0,54,54,77,1,,5ef0932312818b06a0abf52d,629c523ac83985c5b8e0dc5f,2022-06-05_09h00.05.796,Colour_Asymmetry_Pilot,2022.1.3,MacIntel,60.0240096,629c4b6caf241d5e6e00bfc0,,,,,,,,,,,,,,,,,,,,,,,,,,,,,,,,,,,,,,,,,,,,,,,,,,,,,,,,,,,,,,,,,,,,,,,,,,,,,,,,,,,,,,,,,,,,,,,,,,,,,,,,,,,,,,,,,,,,,,,,,,,,,,,,,,,,,,,,,,,,,,,,,,,
0,55,55,18,1,,5ef0932312818b06a0abf52d,629c523ac83985c5b8e0dc5f,2022-06-05_09h00.05.796,Colour_Asymmetry_Pilot,2022.1.3,MacIntel,60.0240096,629c4b6caf241d5e6e00bfc0,,,,,,,,,,,,,,,,,,,,,,,,,,,,,,,,,,,,,,,,,,,,,,,,,,,,,,,,,,,,,,,,,,,,,,,,,,,,,,,,,,,,,,,,,,,,,,,,,,,,,,,,,,,,,,,,,,,,,,,,,,,,,,,,,,,,,,,,,,,,,,,,,,,
0,56,56,7,1,,5ef0932312818b06a0abf52d,629c523ac83985c5b8e0dc5f,2022-06-05_09h00.05.796,Colour_Asymmetry_Pilot,2022.1.3,MacIntel,60.0240096,629c4b6caf241d5e6e00bfc0,,,,,,,,,,,,,,,,,,,,,,,,,,,,,,,,,,,,,,,,,,,,,,,,,,,,,,,,,,,,,,,,,,,,,,,,,,,,,,,,,,,,,,,,,,,,,,,,,,,,,,,,,,,,,,,,,,,,,,,,,,,,,,,,,,,,,,,,,,,,,,,,,,,
0,57,57,43,1,,5ef0932312818b06a0abf52d,629c523ac83985c5b8e0dc5f,2022-06-05_09h00.05.796,Colour_Asymmetry_Pilot,2022.1.3,MacIntel,60.0240096,629c4b6caf241d5e6e00bfc0,,,,,,,,,,,,,,,,,,,,,,,,,,,,,,,,,,,,,,,,,,,,,,,,,,,,,,,,,,,,,,,,,,,,,,,,,,,,,,,,,,,,,,,,,,,,,,,,,,,,,,,,,,,,,,,,,,,,,,,,,,,,,,,,,,,,,,,,,,,,,,,,,,,
0,58,58,42,1,,5ef0932312818b06a0abf52d,629c523ac83985c5b8e0dc5f,2022-06-05_09h00.05.796,Colour_Asymmetry_Pilot,2022.1.3,MacIntel,60.0240096,629c4b6caf241d5e6e00bfc0,,,,,,,,,,,,,,,,,,,,,,,,,,,,,,,,,,,,,,,,,,,,,,,,,,,,,,,,,,,,,,,,,,,,,,,,,,,,,,,,,,,,,,,,,,,,,,,,,,,,,,,,,,,,,,,,,,,,,,,,,,,,,,,,,,,,,,,,,,,,,,,,,,,
0,59,59,54,1,,5ef0932312818b06a0abf52d,629c523ac83985c5b8e0dc5f,2022-06-05_09h00.05.796,Colour_Asymmetry_Pilot,2022.1.3,MacIntel,60.0240096,629c4b6caf241d5e6e00bfc0,,,,,,,,,,,,,,,,,,,,,,,,,,,,,,,,,,,,,,,,,,,,,,,,,,,,,,,,,,,,,,,,,,,,,,,,,,,,,,,,,,,,,,,,,,,,,,,,,,,,,,,,,,,,,,,,,,,,,,,,,,,,,,,,,,,,,,,,,,,,,,,,,,,
0,60,60,81,1,,5ef0932312818b06a0abf52d,629c523ac83985c5b8e0dc5f,2022-06-05_09h00.05.796,Colour_Asymmetry_Pilot,2022.1.3,MacIntel,60.0240096,629c4b6caf241d5e6e00bfc0,,,,,,,,,,,,,,,,,,,,,,,,,,,,,,,,,,,,,,,,,,,,,,,,,,,,,,,,,,,,,,,,,,,,,,,,,,,,,,,,,,,,,,,,,,,,,,,,,,,,,,,,,,,,,,,,,,,,,,,,,,,,,,,,,,,,,,,,,,,,,,,,,,,
0,61,61,3,1,,5ef0932312818b06a0abf52d,629c523ac83985c5b8e0dc5f,2022-06-05_09h00.05.796,Colour_Asymmetry_Pilot,2022.1.3,MacIntel,60.0240096,629c4b6caf241d5e6e00bfc0,,,,,,,,,,,,,,,,,,,,,,,,,,,,,,,,,,,,,,,,,,,,,,,,,,,,,,,,,,,,,,,,,,,,,,,,,,,,,,,,,,,,,,,,,,,,,,,,,,,,,,,,,,,,,,,,,,,,,,,,,,,,,,,,,,,,,,,,,,,,,,,,,,,
0,62,62,30,1,,5ef0932312818b06a0abf52d,629c523ac83985c5b8e0dc5f,2022-06-05_09h00.05.796,Colour_Asymmetry_Pilot,2022.1.3,MacIntel,60.0240096,629c4b6caf241d5e6e00bfc0,,,,,,,,,,,,,,,,,,,,,,,,,,,,,,,,,,,,,,,,,,,,,,,,,,,,,,,,,,,,,,,,,,,,,,,,,,,,,,,,,,,,,,,,,,,,,,,,,,,,,,,,,,,,,,,,,,,,,,,,,,,,,,,,,,,,,,,,,,,,,,,,,,,
0,63,63,16,1,,5ef0932312818b06a0abf52d,629c523ac83985c5b8e0dc5f,2022-06-05_09h00.05.796,Colour_Asymmetry_Pilot,2022.1.3,MacIntel,60.0240096,629c4b6caf241d5e6e00bfc0,,,,,,,,,,,,,,,,,,,,,,,,,,,,,,,,,,,,,,,,,,,,,,,,,,,,,,,,,,,,,,,,,,,,,,,,,,,,,,,,,,,,,,,,,,,,,,,,,,,,,,,,,,,,,,,,,,,,,,,,,,,,,,,,,,,,,,,,,,,,,,,,,,,
0,64,64,23,1,,5ef0932312818b06a0abf52d,629c523ac83985c5b8e0dc5f,2022-06-05_09h00.05.796,Colour_Asymmetry_Pilot,2022.1.3,MacIntel,60.0240096,629c4b6caf241d5e6e00bfc0,,,,,,,,,,,,,,,,,,,,,,,,,,,,,,,,,,,,,,,,,,,,,,,,,,,,,,,,,,,,,,,,,,,,,,,,,,,,,,,,,,,,,,,,,,,,,,,,,,,,,,,,,,,,,,,,,,,,,,,,,,,,,,,,,,,,,,,,,,,,,,,,,,,
0,65,65,58,1,,5ef0932312818b06a0abf52d,629c523ac83985c5b8e0dc5f,2022-06-05_09h00.05.796,Colour_Asymmetry_Pilot,2022.1.3,MacIntel,60.0240096,629c4b6caf241d5e6e00bfc0,,,,,,,,,,,,,,,,,,,,,,,,,,,,,,,,,,,,,,,,,,,,,,,,,,,,,,,,,,,,,,,,,,,,,,,,,,,,,,,,,,,,,,,,,,,,,,,,,,,,,,,,,,,,,,,,,,,,,,,,,,,,,,,,,,,,,,,,,,,,,,,,,,,
0,66,66,51,1,,5ef0932312818b06a0abf52d,629c523ac83985c5b8e0dc5f,2022-06-05_09h00.05.796,Colour_Asymmetry_Pilot,2022.1.3,MacIntel,60.0240096,629c4b6caf241d5e6e00bfc0,,,,,,,,,,,,,,,,,,,,,,,,,,,,,,,,,,,,,,,,,,,,,,,,,,,,,,,,,,,,,,,,,,,,,,,,,,,,,,,,,,,,,,,,,,,,,,,,,,,,,,,,,,,,,,,,,,,,,,,,,,,,,,,,,,,,,,,,,,,,,,,,,,,
0,67,67,86,1,,5ef0932312818b06a0abf52d,629c523ac83985c5b8e0dc5f,2022-06-05_09h00.05.796,Colour_Asymmetry_Pilot,2022.1.3,MacIntel,60.0240096,629c4b6caf241d5e6e00bfc0,,,,,,,,,,,,,,,,,,,,,,,,,,,,,,,,,,,,,,,,,,,,,,,,,,,,,,,,,,,,,,,,,,,,,,,,,,,,,,,,,,,,,,,,,,,,,,,,,,,,,,,,,,,,,,,,,,,,,,,,,,,,,,,,,,,,,,,,,,,,,,,,,,,
0,68,68,60,1,,5ef0932312818b06a0abf52d,629c523ac83985c5b8e0dc5f,2022-06-05_09h00.05.796,Colour_Asymmetry_Pilot,2022.1.3,MacIntel,60.0240096,629c4b6caf241d5e6e00bfc0,,,,,,,,,,,,,,,,,,,,,,,,,,,,,,,,,,,,,,,,,,,,,,,,,,,,,,,,,,,,,,,,,,,,,,,,,,,,,,,,,,,,,,,,,,,,,,,,,,,,,,,,,,,,,,,,,,,,,,,,,,,,,,,,,,,,,,,,,,,,,,,,,,,
0,69,69,29,1,,5ef0932312818b06a0abf52d,629c523ac83985c5b8e0dc5f,2022-06-05_09h00.05.796,Colour_Asymmetry_Pilot,2022.1.3,MacIntel,60.0240096,629c4b6caf241d5e6e00bfc0,,,,,,,,,,,,,,,,,,,,,,,,,,,,,,,,,,,,,,,,,,,,,,,,,,,,,,,,,,,,,,,,,,,,,,,,,,,,,,,,,,,,,,,,,,,,,,,,,,,,,,,,,,,,,,,,,,,,,,,,,,,,,,,,,,,,,,,,,,,,,,,,,,,
0,70,70,76,1,,5ef0932312818b06a0abf52d,629c523ac83985c5b8e0dc5f,2022-06-05_09h00.05.796,Colour_Asymmetry_Pilot,2022.1.3,MacIntel,60.0240096,629c4b6caf241d5e6e00bfc0,,,,,,,,,,,,,,,,,,,,,,,,,,,,,,,,,,,,,,,,,,,,,,,,,,,,,,,,,,,,,,,,,,,,,,,,,,,,,,,,,,,,,,,,,,,,,,,,,,,,,,,,,,,,,,,,,,,,,,,,,,,,,,,,,,,,,,,,,,,,,,,,,,,
0,71,71,71,1,,5ef0932312818b06a0abf52d,629c523ac83985c5b8e0dc5f,2022-06-05_09h00.05.796,Colour_Asymmetry_Pilot,2022.1.3,MacIntel,60.0240096,629c4b6caf241d5e6e00bfc0,,,,,,,,,,,,,,,,,,,,,,,,,,,,,,,,,,,,,,,,,,,,,,,,,,,,,,,,,,,,,,,,,,,,,,,,,,,,,,,,,,,,,,,,,,,,,,,,,,,,,,,,,,,,,,,,,,,,,,,,,,,,,,,,,,,,,,,,,,,,,,,,,,,
0,72,72,67,1,,5ef0932312818b06a0abf52d,629c523ac83985c5b8e0dc5f,2022-06-05_09h00.05.796,Colour_Asymmetry_Pilot,2022.1.3,MacIntel,60.0240096,629c4b6caf241d5e6e00bfc0,,,,,,,,,,,,,,,,,,,,,,,,,,,,,,,,,,,,,,,,,,,,,,,,,,,,,,,,,,,,,,,,,,,,,,,,,,,,,,,,,,,,,,,,,,,,,,,,,,,,,,,,,,,,,,,,,,,,,,,,,,,,,,,,,,,,,,,,,,,,,,,,,,,
0,73,73,21,1,,5ef0932312818b06a0abf52d,629c523ac83985c5b8e0dc5f,2022-06-05_09h00.05.796,Colour_Asymmetry_Pilot,2022.1.3,MacIntel,60.0240096,629c4b6caf241d5e6e00bfc0,,,,,,,,,,,,,,,,,,,,,,,,,,,,,,,,,,,,,,,,,,,,,,,,,,,,,,,,,,,,,,,,,,,,,,,,,,,,,,,,,,,,,,,,,,,,,,,,,,,,,,,,,,,,,,,,,,,,,,,,,,,,,,,,,,,,,,,,,,,,,,,,,,,
0,74,74,9,1,,5ef0932312818b06a0abf52d,629c523ac83985c5b8e0dc5f,2022-06-05_09h00.05.796,Colour_Asymmetry_Pilot,2022.1.3,MacIntel,60.0240096,629c4b6caf241d5e6e00bfc0,,,,,,,,,,,,,,,,,,,,,,,,,,,,,,,,,,,,,,,,,,,,,,,,,,,,,,,,,,,,,,,,,,,,,,,,,,,,,,,,,,,,,,,,,,,,,,,,,,,,,,,,,,,,,,,,,,,,,,,,,,,,,,,,,,,,,,,,,,,,,,,,,,,
0,75,75,36,1,,5ef0932312818b06a0abf52d,629c523ac83985c5b8e0dc5f,2022-06-05_09h00.05.796,Colour_Asymmetry_Pilot,2022.1.3,MacIntel,60.0240096,629c4b6caf241d5e6e00bfc0,,,,,,,,,,,,,,,,,,,,,,,,,,,,,,,,,,,,,,,,,,,,,,,,,,,,,,,,,,,,,,,,,,,,,,,,,,,,,,,,,,,,,,,,,,,,,,,,,,,,,,,,,,,,,,,,,,,,,,,,,,,,,,,,,,,,,,,,,,,,,,,,,,,
0,76,76,22,1,,5ef0932312818b06a0abf52d,629c523ac83985c5b8e0dc5f,2022-06-05_09h00.05.796,Colour_Asymmetry_Pilot,2022.1.3,MacIntel,60.0240096,629c4b6caf241d5e6e00bfc0,,,,,,,,,,,,,,,,,,,,,,,,,,,,,,,,,,,,,,,,,,,,,,,,,,,,,,,,,,,,,,,,,,,,,,,,,,,,,,,,,,,,,,,,,,,,,,,,,,,,,,,,,,,,,,,,,,,,,,,,,,,,,,,,,,,,,,,,,,,,,,,,,,,
0,77,77,68,1,,5ef0932312818b06a0abf52d,629c523ac83985c5b8e0dc5f,2022-06-05_09h00.05.796,Colour_Asymmetry_Pilot,2022.1.3,MacIntel,60.0240096,629c4b6caf241d5e6e00bfc0,,,,,,,,,,,,,,,,,,,,,,,,,,,,,,,,,,,,,,,,,,,,,,,,,,,,,,,,,,,,,,,,,,,,,,,,,,,,,,,,,,,,,,,,,,,,,,,,,,,,,,,,,,,,,,,,,,,,,,,,,,,,,,,,,,,,,,,,,,,,,,,,,,,
0,78,78,90,1,,5ef0932312818b06a0abf52d,629c523ac83985c5b8e0dc5f,2022-06-05_09h00.05.796,Colour_Asymmetry_Pilot,2022.1.3,MacIntel,60.0240096,629c4b6caf241d5e6e00bfc0,,,,,,,,,,,,,,,,,,,,,,,,,,,,,,,,,,,,,,,,,,,,,,,,,,,,,,,,,,,,,,,,,,,,,,,,,,,,,,,,,,,,,,,,,,,,,,,,,,,,,,,,,,,,,,,,,,,,,,,,,,,,,,,,,,,,,,,,,,,,,,,,,,,
0,79,79,82,1,,5ef0932312818b06a0abf52d,629c523ac83985c5b8e0dc5f,2022-06-05_09h00.05.796,Colour_Asymmetry_Pilot,2022.1.3,MacIntel,60.0240096,629c4b6caf241d5e6e00bfc0,,,,,,,,,,,,,,,,,,,,,,,,,,,,,,,,,,,,,,,,,,,,,,,,,,,,,,,,,,,,,,,,,,,,,,,,,,,,,,,,,,,,,,,,,,,,,,,,,,,,,,,,,,,,,,,,,,,,,,,,,,,,,,,,,,,,,,,,,,,,,,,,,,,
0,80,80,38,1,,5ef0932312818b06a0abf52d,629c523ac83985c5b8e0dc5f,2022-06-05_09h00.05.796,Colour_Asymmetry_Pilot,2022.1.3,MacIntel,60.0240096,629c4b6caf241d5e6e00bfc0,,,,,,,,,,,,,,,,,,,,,,,,,,,,,,,,,,,,,,,,,,,,,,,,,,,,,,,,,,,,,,,,,,,,,,,,,,,,,,,,,,,,,,,,,,,,,,,,,,,,,,,,,,,,,,,,,,,,,,,,,,,,,,,,,,,,,,,,,,,,,,,,,,,
0,81,81,85,1,,5ef0932312818b06a0abf52d,629c523ac83985c5b8e0dc5f,2022-06-05_09h00.05.796,Colour_Asymmetry_Pilot,2022.1.3,MacIntel,60.0240096,629c4b6caf241d5e6e00bfc0,,,,,,,,,,,,,,,,,,,,,,,,,,,,,,,,,,,,,,,,,,,,,,,,,,,,,,,,,,,,,,,,,,,,,,,,,,,,,,,,,,,,,,,,,,,,,,,,,,,,,,,,,,,,,,,,,,,,,,,,,,,,,,,,,,,,,,,,,,,,,,,,,,,
0,82,82,74,1,,5ef0932312818b06a0abf52d,629c523ac83985c5b8e0dc5f,2022-06-05_09h00.05.796,Colour_Asymmetry_Pilot,2022.1.3,MacIntel,60.0240096,629c4b6caf241d5e6e00bfc0,,,,,,,,,,,,,,,,,,,,,,,,,,,,,,,,,,,,,,,,,,,,,,,,,,,,,,,,,,,,,,,,,,,,,,,,,,,,,,,,,,,,,,,,,,,,,,,,,,,,,,,,,,,,,,,,,,,,,,,,,,,,,,,,,,,,,,,,,,,,,,,,,,,
0,83,83,53,1,,5ef0932312818b06a0abf52d,629c523ac83985c5b8e0dc5f,2022-06-05_09h00.05.796,Colour_Asymmetry_Pilot,2022.1.3,MacIntel,60.0240096,629c4b6caf241d5e6e00bfc0,,,,,,,,,,,,,,,,,,,,,,,,,,,,,,,,,,,,,,,,,,,,,,,,,,,,,,,,,,,,,,,,,,,,,,,,,,,,,,,,,,,,,,,,,,,,,,,,,,,,,,,,,,,,,,,,,,,,,,,,,,,,,,,,,,,,,,,,,,,,,,,,,,,
0,84,84,65,1,,5ef0932312818b06a0abf52d,629c523ac83985c5b8e0dc5f,2022-06-05_09h00.05.796,Colour_Asymmetry_Pilot,2022.1.3,MacIntel,60.0240096,629c4b6caf241d5e6e00bfc0,,,,,,,,,,,,,,,,,,,,,,,,,,,,,,,,,,,,,,,,,,,,,,,,,,,,,,,,,,,,,,,,,,,,,,,,,,,,,,,,,,,,,,,,,,,,,,,,,,,,,,,,,,,,,,,,,,,,,,,,,,,,,,,,,,,,,,,,,,,,,,,,,,,
0,85,85,34,1,,5ef0932312818b06a0abf52d,629c523ac83985c5b8e0dc5f,2022-06-05_09h00.05.796,Colour_Asymmetry_Pilot,2022.1.3,MacIntel,60.0240096,629c4b6caf241d5e6e00bfc0,,,,,,,,,,,,,,,,,,,,,,,,,,,,,,,,,,,,,,,,,,,,,,,,,,,,,,,,,,,,,,,,,,,,,,,,,,,,,,,,,,,,,,,,,,,,,,,,,,,,,,,,,,,,,,,,,,,,,,,,,,,,,,,,,,,,,,,,,,,,,,,,,,,
0,86,86,49,1,,5ef0932312818b06a0abf52d,629c523ac83985c5b8e0dc5f,2022-06-05_09h00.05.796,Colour_Asymmetry_Pilot,2022.1.3,MacIntel,60.0240096,629c4b6caf241d5e6e00bfc0,,,,,,,,,,,,,,,,,,,,,,,,,,,,,,,,,,,,,,,,,,,,,,,,,,,,,,,,,,,,,,,,,,,,,,,,,,,,,,,,,,,,,,,,,,,,,,,,,,,,,,,,,,,,,,,,,,,,,,,,,,,,,,,,,,,,,,,,,,,,,,,,,,,
0,87,87,52,1,,5ef0932312818b06a0abf52d,629c523ac83985c5b8e0dc5f,2022-06-05_09h00.05.796,Colour_Asymmetry_Pilot,2022.1.3,MacIntel,60.0240096,629c4b6caf241d5e6e00bfc0,,,,,,,,,,,,,,,,,,,,,,,,,,,,,,,,,,,,,,,,,,,,,,,,,,,,,,,,,,,,,,,,,,,,,,,,,,,,,,,,,,,,,,,,,,,,,,,,,,,,,,,,,,,,,,,,,,,,,,,,,,,,,,,,,,,,,,,,,,,,,,,,,,,
0,88,88,14,1,,5ef0932312818b06a0abf52d,629c523ac83985c5b8e0dc5f,2022-06-05_09h00.05.796,Colour_Asymmetry_Pilot,2022.1.3,MacIntel,60.0240096,629c4b6caf241d5e6e00bfc0,,,,,,,,,,,,,,,,,,,,,,,,,,,,,,,,,,,,,,,,,,,,,,,,,,,,,,,,,,,,,,,,,,,,,,,,,,,,,,,,,,,,,,,,,,,,,,,,,,,,,,,,,,,,,,,,,,,,,,,,,,,,,,,,,,,,,,,,,,,,,,,,,,,
0,89,89,55,1,,5ef0932312818b06a0abf52d,629c523ac83985c5b8e0dc5f,2022-06-05_09h00.05.796,Colour_Asymmetry_Pilot,2022.1.3,MacIntel,60.0240096,629c4b6caf241d5e6e00bfc0,,,,,,,,,,,,,,,,,,,,,,,,,,,,,,,,,,,,,,,,,,,,,,,,,,,,,,,,,,,,,,,,,,,,,,,,,,,,,,,,,,,,,,,,,,,,,,,,,,,,,,,,,,,,,,,,,,,,,,,,,,,,,,,,,,,,,,,,,,,,,,,,,,,
0,90,90,12,1,,5ef0932312818b06a0abf52d,629c523ac83985c5b8e0dc5f,2022-06-05_09h00.05.796,Colour_Asymmetry_Pilot,2022.1.3,MacIntel,60.0240096,629c4b6caf241d5e6e00bfc0,,,,,,,,,,,,,,,,,,,,,,,,,,,,,,,,,,,,,,,,,,,,,,,,,,,,,,,,,,,,,,,,,,,,,,,,,,,,,,,,,,,,,,,,,,,,,,,,,,,,,,,,,,,,,,,,,,,,,,,,,,,,,,,,,,,,,,,,,,,,,,,,,,,
0,91,91,26,1,,5ef0932312818b06a0abf52d,629c523ac83985c5b8e0dc5f,2022-06-05_09h00.05.796,Colour_Asymmetry_Pilot,2022.1.3,MacIntel,60.0240096,629c4b6caf241d5e6e00bfc0,,,,,,,,,,,,,,,,,,,,,,,,,,,,,,,,,,,,,,,,,,,,,,,,,,,,,,,,,,,,,,,,,,,,,,,,,,,,,,,,,,,,,,,,,,,,,,,,,,,,,,,,,,,,,,,,,,,,,,,,,,,,,,,,,,,,,,,,,,,,,,,,,,,
0,92,92,4,1,,5ef0932312818b06a0abf52d,629c523ac83985c5b8e0dc5f,2022-06-05_09h00.05.796,Colour_Asymmetry_Pilot,2022.1.3,MacIntel,60.0240096,629c4b6caf241d5e6e00bfc0,,,,,,,,,,,,,,,,,,,,,,,,,,,,,,,,,,,,,,,,,,,,,,,,,,,,,,,,,,,,,,,,,,,,,,,,,,,,,,,,,,,,,,,,,,,,,,,,,,,,,,,,,,,,,,,,,,,,,,,,,,,,,,,,,,,,,,,,,,,,,,,,,,,
,,,,,,5ef0932312818b06a0abf52d,629c523ac83985c5b8e0dc5f,2022-06-05_09h00.05.796,Colour_Asymmetry_Pilot,2022.1.3,MacIntel,60.0240096,629c4b6caf241d5e6e00bfc0,0,0,0,92,1,threeone,,,,,,,,,,,,,,,,,,,,,,,,,,,,,,,,,,,,,,,,,,,,,,,,,,,,,,,,,,,,,,,,,,,,,,,,,,,,,,,,,,,,,,,,,,,,,,,,,,,,,,,,,,,,,,,,,,,,,,,,,,,,,,,,,,,,,,,,,,,,,
,,,,,,5ef0932312818b06a0abf52d,629c523ac83985c5b8e0dc5f,2022-06-05_09h00.05.796,Colour_Asymmetry_Pilot,2022.1.3,MacIntel,60.0240096,629c4b6caf241d5e6e00bfc0,0,1,1,16,1,onetwo,,,,,,,,,,,,,,,,,,,,,,,,,,,,,,,,,,,,,,,,,,,,,,,,,,,,,,,,,,,,,,,,,,,,,,,,,,,,,,,,,,,,,,,,,,,,,,,,,,,,,,,,,,,,,,,,,,,,,,,,,,,,,,,,,,,,,,,,,,,,,
,,,,,,5ef0932312818b06a0abf52d,629c523ac83985c5b8e0dc5f,2022-06-05_09h00.05.796,Colour_Asymmetry_Pilot,2022.1.3,MacIntel,60.0240096,629c4b6caf241d5e6e00bfc0,0,2,2,126,1,fourtwo,,,,,,,,,,,,,,,,,,,,,,,,,,,,,,,,,,,,,,,,,,,,,,,,,,,,,,,,,,,,,,,,,,,,,,,,,,,,,,,,,,,,,,,,,,,,,,,,,,,,,,,,,,,,,,,,,,,,,,,,,,,,,,,,,,,,,,,,,,,,,
,,,,,,5ef0932312818b06a0abf52d,629c523ac83985c5b8e0dc5f,2022-06-05_09h00.05.796,Colour_Asymmetry_Pilot,2022.1.3,MacIntel,60.0240096,629c4b6caf241d5e6e00bfc0,0,3,3,71,1,fourthree,,,,,,,,,,,,,,,,,,,,,,,,,,,,,,,,,,,,,,,,,,,,,,,,,,,,,,,,,,,,,,,,,,,,,,,,,,,,,,,,,,,,,,,,,,,,,,,,,,,,,,,,,,,,,,,,,,,,,,,,,,,,,,,,,,,,,,,,,,,,,
,,,,,,5ef0932312818b06a0abf52d,629c523ac83985c5b8e0dc5f,2022-06-05_09h00.05.796,Colour_Asymmetry_Pilot,2022.1.3,MacIntel,60.0240096,629c4b6caf241d5e6e00bfc0,0,4,4,96,1,onetwo,,,,,,,,,,,,,,,,,,,,,,,,,,,,,,,,,,,,,,,,,,,,,,,,,,,,,,,,,,,,,,,,,,,,,,,,,,,,,,,,,,,,,,,,,,,,,,,,,,,,,,,,,,,,,,,,,,,,,,,,,,,,,,,,,,,,,,,,,,,,,
,,,,,,5ef0932312818b06a0abf52d,629c523ac83985c5b8e0dc5f,2022-06-05_09h00.05.796,Colour_Asymmetry_Pilot,2022.1.3,MacIntel,60.0240096,629c4b6caf241d5e6e00bfc0,0,5,5,18,1,twoone,,,,,,,,,,,,,,,,,,,,,,,,,,,,,,,,,,,,,,,,,,,,,,,,,,,,,,,,,,,,,,,,,,,,,,,,,,,,,,,,,,,,,,,,,,,,,,,,,,,,,,,,,,,,,,,,,,,,,,,,,,,,,,,,,,,,,,,,,,,,,
,,,,,,5ef0932312818b06a0abf52d,629c523ac83985c5b8e0dc5f,2022-06-05_09h00.05.796,Colour_Asymmetry_Pilot,2022.1.3,MacIntel,60.0240096,629c4b6caf241d5e6e00bfc0,0,6,6,128,1,onetwo,,,,,,,,,,,,,,,,,,,,,,,,,,,,,,,,,,,,,,,,,,,,,,,,,,,,,,,,,,,,,,,,,,,,,,,,,,,,,,,,,,,,,,,,,,,,,,,,,,,,,,,,,,,,,,,,,,,,,,,,,,,,,,,,,,,,,,,,,,,,,
,,,,,,5ef0932312818b06a0abf52d,629c523ac83985c5b8e0dc5f,2022-06-05_09h00.05.796,Colour_Asymmetry_Pilot,2022.1.3,MacIntel,60.0240096,629c4b6caf241d5e6e00bfc0,0,7,7,36,1,threeone,,,,,,,,,,,,,,,,,,,,,,,,,,,,,,,,,,,,,,,,,,,,,,,,,,,,,,,,,,,,,,,,,,,,,,,,,,,,,,,,,,,,,,,,,,,,,,,,,,,,,,,,,,,,,,,,,,,,,,,,,,,,,,,,,,,,,,,,,,,,,
,,,,,,5ef0932312818b06a0abf52d,629c523ac83985c5b8e0dc5f,2022-06-05_09h00.05.796,Colour_Asymmetry_Pilot,2022.1.3,MacIntel,60.0240096,629c4b6caf241d5e6e00bfc0,0,8,8,117,1,threefour,,,,,,,,,,,,,,,,,,,,,,,,,,,,,,,,,,,,,,,,,,,,,,,,,,,,,,,,,,,,,,,,,,,,,,,,,,,,,,,,,,,,,,,,,,,,,,,,,,,,,,,,,,,,,,,,,,,,,,,,,,,,,,,,,,,,,,,,,,,,,
,,,,,,5ef0932312818b06a0abf52d,629c523ac83985c5b8e0dc5f,2022-06-05_09h00.05.796,Colour_Asymmetry_Pilot,2022.1.3,MacIntel,60.0240096,629c4b6caf241d5e6e00bfc0,0,9,9,142,1,fourtwo,,,,,,,,,,,,,,,,,,,,,,,,,,,,,,,,,,,,,,,,,,,,,,,,,,,,,,,,,,,,,,,,,,,,,,,,,,,,,,,,,,,,,,,,,,,,,,,,,,,,,,,,,,,,,,,,,,,,,,,,,,,,,,,,,,,,,,,,,,,,,
,,,,,,5ef0932312818b06a0abf52d,629c523ac83985c5b8e0dc5f,2022-06-05_09h00.05.796,Colour_Asymmetry_Pilot,2022.1.3,MacIntel,60.0240096,629c4b6caf241d5e6e00bfc0,0,10,10,42,1,twoone,,,,,,,,,,,,,,,,,,,,,,,,,,,,,,,,,,,,,,,,,,,,,,,,,,,,,,,,,,,,,,,,,,,,,,,,,,,,,,,,,,,,,,,,,,,,,,,,,,,,,,,,,,,,,,,,,,,,,,,,,,,,,,,,,,,,,,,,,,,,,
,,,,,,5ef0932312818b06a0abf52d,629c523ac83985c5b8e0dc5f,2022-06-05_09h00.05.796,Colour_Asymmetry_Pilot,2022.1.3,MacIntel,60.0240096,629c4b6caf241d5e6e00bfc0,0,11,11,26,1,twoone,,,,,,,,,,,,,,,,,,,,,,,,,,,,,,,,,,,,,,,,,,,,,,,,,,,,,,,,,,,,,,,,,,,,,,,,,,,,,,,,,,,,,,,,,,,,,,,,,,,,,,,,,,,,,,,,,,,,,,,,,,,,,,,,,,,,,,,,,,,,,
,,,,,,5ef0932312818b06a0abf52d,629c523ac83985c5b8e0dc5f,2022-06-05_09h00.05.796,Colour_Asymmetry_Pilot,2022.1.3,MacIntel,60.0240096,629c4b6caf241d5e6e00bfc0,0,12,12,134,1,fourtwo,,,,,,,,,,,,,,,,,,,,,,,,,,,,,,,,,,,,,,,,,,,,,,,,,,,,,,,,,,,,,,,,,,,,,,,,,,,,,,,,,,,,,,,,,,,,,,,,,,,,,,,,,,,,,,,,,,,,,,,,,,,,,,,,,,,,,,,,,,,,,
,,,,,,5ef0932312818b06a0abf52d,629c523ac83985c5b8e0dc5f,2022-06-05_09h00.05.796,Colour_Asymmetry_Pilot,2022.1.3,MacIntel,60.0240096,629c4b6caf241d5e6e00bfc0,0,13,13,81,1,onethree,,,,,,,,,,,,,,,,,,,,,,,,,,,,,,,,,,,,,,,,,,,,,,,,,,,,,,,,,,,,,,,,,,,,,,,,,,,,,,,,,,,,,,,,,,,,,,,,,,,,,,,,,,,,,,,,,,,,,,,,,,,,,,,,,,,,,,,,,,,,,
,,,,,,5ef0932312818b06a0abf52d,629c523ac83985c5b8e0dc5f,2022-06-05_09h00.05.796,Colour_Asymmetry_Pilot,2022.1.3,MacIntel,60.0240096,629c4b6caf241d5e6e00bfc0,0,14,14,1,1,onethree,,,,,,,,,,,,,,,,,,,,,,,,,,,,,,,,,,,,,,,,,,,,,,,,,,,,,,,,,,,,,,,,,,,,,,,,,,,,,,,,,,,,,,,,,,,,,,,,,,,,,,,,,,,,,,,,,,,,,,,,,,,,,,,,,,,,,,,,,,,,,
,,,,,,5ef0932312818b06a0abf52d,629c523ac83985c5b8e0dc5f,2022-06-05_09h00.05.796,Colour_Asymmetry_Pilot,2022.1.3,MacIntel,60.0240096,629c4b6caf241d5e6e00bfc0,0,15,15,87,1,fourthree,,,,,,,,,,,,,,,,,,,,,,,,,,,,,,,,,,,,,,,,,,,,,,,,,,,,,,,,,,,,,,,,,,,,,,,,,,,,,,,,,,,,,,,,,,,,,,,,,,,,,,,,,,,,,,,,,,,,,,,,,,,,,,,,,,,,,,,,,,,,,
,,,,,,5ef0932312818b06a0abf52d,629c523ac83985c5b8e0dc5f,2022-06-05_09h00.05.796,Colour_Asymmetry_Pilot,2022.1.3,MacIntel,60.0240096,629c4b6caf241d5e6e00bfc0,0,16,16,84,1,threeone,,,,,,,,,,,,,,,,,,,,,,,,,,,,,,,,,,,,,,,,,,,,,,,,,,,,,,,,,,,,,,,,,,,,,,,,,,,,,,,,,,,,,,,,,,,,,,,,,,,,,,,,,,,,,,,,,,,,,,,,,,,,,,,,,,,,,,,,,,,,,
,,,,,,5ef0932312818b06a0abf52d,629c523ac83985c5b8e0dc5f,2022-06-05_09h00.05.796,Colour_Asymmetry_Pilot,2022.1.3,MacIntel,60.0240096,629c4b6caf241d5e6e00bfc0,0,17,17,95,1,fourthree,,,,,,,,,,,,,,,,,,,,,,,,,,,,,,,,,,,,,,,,,,,,,,,,,,,,,,,,,,,,,,,,,,,,,,,,,,,,,,,,,,,,,,,,,,,,,,,,,,,,,,,,,,,,,,,,,,,,,,,,,,,,,,,,,,,,,,,,,,,,,
,,,,,,5ef0932312818b06a0abf52d,629c523ac83985c5b8e0dc5f,2022-06-05_09h00.05.796,Colour_Asymmetry_Pilot,2022.1.3,MacIntel,60.0240096,629c4b6caf241d5e6e00bfc0,0,18,18,112,1,onetwo,,,,,,,,,,,,,,,,,,,,,,,,,,,,,,,,,,,,,,,,,,,,,,,,,,,,,,,,,,,,,,,,,,,,,,,,,,,,,,,,,,,,,,,,,,,,,,,,,,,,,,,,,,,,,,,,,,,,,,,,,,,,,,,,,,,,,,,,,,,,,
,,,,,,5ef0932312818b06a0abf52d,629c523ac83985c5b8e0dc5f,2022-06-05_09h00.05.796,Colour_Asymmetry_Pilot,2022.1.3,MacIntel,60.0240096,629c4b6caf241d5e6e00bfc0,0,19,19,6,1,fourtwo,,,,,,,,,,,,,,,,,,,,,,,,,,,,,,,,,,,,,,,,,,,,,,,,,,,,,,,,,,,,,,,,,,,,,,,,,,,,,,,,,,,,,,,,,,,,,,,,,,,,,,,,,,,,,,,,,,,,,,,,,,,,,,,,,,,,,,,,,,,,,
,,,,,,5ef0932312818b06a0abf52d,629c523ac83985c5b8e0dc5f,2022-06-05_09h00.05.796,Colour_Asymmetry_Pilot,2022.1.3,MacIntel,60.0240096,629c4b6caf241d5e6e00bfc0,0,20,20,79,1,fourthree,,,,,,,,,,,,,,,,,,,,,,,,,,,,,,,,,,,,,,,,,,,,,,,,,,,,,,,,,,,,,,,,,,,,,,,,,,,,,,,,,,,,,,,,,,,,,,,,,,,,,,,,,,,,,,,,,,,,,,,,,,,,,,,,,,,,,,,,,,,,,
,,,,,,5ef0932312818b06a0abf52d,629c523ac83985c5b8e0dc5f,2022-06-05_09h00.05.796,Colour_Asymmetry_Pilot,2022.1.3,MacIntel,60.0240096,629c4b6caf241d5e6e00bfc0,0,21,21,77,1,threefour,,,,,,,,,,,,,,,,,,,,,,,,,,,,,,,,,,,,,,,,,,,,,,,,,,,,,,,,,,,,,,,,,,,,,,,,,,,,,,,,,,,,,,,,,,,,,,,,,,,,,,,,,,,,,,,,,,,,,,,,,,,,,,,,,,,,,,,,,,,,,
,,,,,,5ef0932312818b06a0abf52d,629c523ac83985c5b8e0dc5f,2022-06-05_09h00.05.796,Colour_Asymmetry_Pilot,2022.1.3,MacIntel,60.0240096,629c4b6caf241d5e6e00bfc0,0,22,22,82,1,twoone,,,,,,,,,,,,,,,,,,,,,,,,,,,,,,,,,,,,,,,,,,,,,,,,,,,,,,,,,,,,,,,,,,,,,,,,,,,,,,,,,,,,,,,,,,,,,,,,,,,,,,,,,,,,,,,,,,,,,,,,,,,,,,,,,,,,,,,,,,,,,
,,,,,,5ef0932312818b06a0abf52d,629c523ac83985c5b8e0dc5f,2022-06-05_09h00.05.796,Colour_Asymmetry_Pilot,2022.1.3,MacIntel,60.0240096,629c4b6caf241d5e6e00bfc0,0,23,23,158,1,fourtwo,,,,,,,,,,,,,,,,,,,,,,,,,,,,,,,,,,,,,,,,,,,,,,,,,,,,,,,,,,,,,,,,,,,,,,,,,,,,,,,,,,,,,,,,,,,,,,,,,,,,,,,,,,,,,,,,,,,,,,,,,,,,,,,,,,,,,,,,,,,,,
,,,,,,5ef0932312818b06a0abf52d,629c523ac83985c5b8e0dc5f,2022-06-05_09h00.05.796,Colour_Asymmetry_Pilot,2022.1.3,MacIntel,60.0240096,629c4b6caf241d5e6e00bfc0,0,24,24,80,1,onetwo,,,,,,,,,,,,,,,,,,,,,,,,,,,,,,,,,,,,,,,,,,,,,,,,,,,,,,,,,,,,,,,,,,,,,,,,,,,,,,,,,,,,,,,,,,,,,,,,,,,,,,,,,,,,,,,,,,,,,,,,,,,,,,,,,,,,,,,,,,,,,
,,,,,,5ef0932312818b06a0abf52d,629c523ac83985c5b8e0dc5f,2022-06-05_09h00.05.796,Colour_Asymmetry_Pilot,2022.1.3,MacIntel,60.0240096,629c4b6caf241d5e6e00bfc0,0,25,25,156,1,threeone,,,,,,,,,,,,,,,,,,,,,,,,,,,,,,,,,,,,,,,,,,,,,,,,,,,,,,,,,,,,,,,,,,,,,,,,,,,,,,,,,,,,,,,,,,,,,,,,,,,,,,,,,,,,,,,,,,,,,,,,,,,,,,,,,,,,,,,,,,,,,
,,,,,,5ef0932312818b06a0abf52d,629c523ac83985c5b8e0dc5f,2022-06-05_09h00.05.796,Colour_Asymmetry_Pilot,2022.1.3,MacIntel,60.0240096,629c4b6caf241d5e6e00bfc0,0,26,26,89,1,onethree,,,,,,,,,,,,,,,,,,,,,,,,,,,,,,,,,,,,,,,,,,,,,,,,,,,,,,,,,,,,,,,,,,,,,,,,,,,,,,,,,,,,,,,,,,,,,,,,,,,,,,,,,,,,,,,,,,,,,,,,,,,,,,,,,,,,,,,,,,,,,
,,,,,,5ef0932312818b06a0abf52d,629c523ac83985c5b8e0dc5f,2022-06-05_09h00.05.796,Colour_Asymmetry_Pilot,2022.1.3,MacIntel,60.0240096,629c4b6caf241d5e6e00bfc0,0,27,27,38,1,fourtwo,,,,,,,,,,,,,,,,,,,,,,,,,,,,,,,,,,,,,,,,,,,,,,,,,,,,,,,,,,,,,,,,,,,,,,,,,,,,,,,,,,,,,,,,,,,,,,,,,,,,,,,,,,,,,,,,,,,,,,,,,,,,,,,,,,,,,,,,,,,,,
,,,,,,5ef0932312818b06a0abf52d,629c523ac83985c5b8e0dc5f,2022-06-05_09h00.05.796,Colour_Asymmetry_Pilot,2022.1.3,MacIntel,60.0240096,629c4b6caf241d5e6e00bfc0,0,28,28,55,1,fourthree,,,,,,,,,,,,,,,,,,,,,,,,,,,,,,,,,,,,,,,,,,,,,,,,,,,,,,,,,,,,,,,,,,,,,,,,,,,,,,,,,,,,,,,,,,,,,,,,,,,,,,,,,,,,,,,,,,,,,,,,,,,,,,,,,,,,,,,,,,,,,
,,,,,,5ef0932312818b06a0abf52d,629c523ac83985c5b8e0dc5f,2022-06-05_09h00.05.796,Colour_Asymmetry_Pilot,2022.1.3,MacIntel,60.0240096,629c4b6caf241d5e6e00bfc0,0,29,29,57,1,onethree,,,,,,,,,,,,,,,,,,,,,,,,,,,,,,,,,,,,,,,,,,,,,,,,,,,,,,,,,,,,,,,,,,,,,,,,,,,,,,,,,,,,,,,,,,,,,,,,,,,,,,,,,,,,,,,,,,,,,,,,,,,,,,,,,,,,,,,,,,,,,
,,,,,,5ef0932312818b06a0abf52d,629c523ac83985c5b8e0dc5f,2022-06-05_09h00.05.796,Colour_Asymmetry_Pilot,2022.1.3,MacIntel,60.0240096,629c4b6caf241d5e6e00bfc0,0,30,30,15,1,fourthree,,,,,,,,,,,,,,,,,,,,,,,,,,,,,,,,,,,,,,,,,,,,,,,,,,,,,,,,,,,,,,,,,,,,,,,,,,,,,,,,,,,,,,,,,,,,,,,,,,,,,,,,,,,,,,,,,,,,,,,,,,,,,,,,,,,,,,,,,,,,,
,,,,,,5ef0932312818b06a0abf52d,629c523ac83985c5b8e0dc5f,2022-06-05_09h00.05.796,Colour_Asymmetry_Pilot,2022.1.3,MacIntel,60.0240096,629c4b6caf241d5e6e00bfc0,0,31,31,141,1,threefour,,,,,,,,,,,,,,,,,,,,,,,,,,,,,,,,,,,,,,,,,,,,,,,,,,,,,,,,,,,,,,,,,,,,,,,,,,,,,,,,,,,,,,,,,,,,,,,,,,,,,,,,,,,,,,,,,,,,,,,,,,,,,,,,,,,,,,,,,,,,,
,,,,,,5ef0932312818b06a0abf52d,629c523ac83985c5b8e0dc5f,2022-06-05_09h00.05.796,Colour_Asymmetry_Pilot,2022.1.3,MacIntel,60.0240096,629c4b6caf241d5e6e00bfc0,0,32,32,149,1,threefour,,,,,,,,,,,,,,,,,,,,,,,,,,,,,,,,,,,,,,,,,,,,,,,,,,,,,,,,,,,,,,,,,,,,,,,,,,,,,,,,,,,,,,,,,,,,,,,,,,,,,,,,,,,,,,,,,,,,,,,,,,,,,,,,,,,,,,,,,,,,,
,,,,,,5ef0932312818b06a0abf52d,629c523ac83985c5b8e0dc5f,2022-06-05_09h00.05.796,Colour_Asymmetry_Pilot,2022.1.3,MacIntel,60.0240096,629c4b6caf241d5e6e00bfc0,0,33,33,14,1,fourtwo,,,,,,,,,,,,,,,,,,,,,,,,,,,,,,,,,,,,,,,,,,,,,,,,,,,,,,,,,,,,,,,,,,,,,,,,,,,,,,,,,,,,,,,,,,,,,,,,,,,,,,,,,,,,,,,,,,,,,,,,,,,,,,,,,,,,,,,,,,,,,
,,,,,,5ef0932312818b06a0abf52d,629c523ac83985c5b8e0dc5f,2022-06-05_09h00.05.796,Colour_Asymmetry_Pilot,2022.1.3,MacIntel,60.0240096,629c4b6caf241d5e6e00bfc0,0,34,34,88,1,onetwo,,,,,,,,,,,,,,,,,,,,,,,,,,,,,,,,,,,,,,,,,,,,,,,,,,,,,,,,,,,,,,,,,,,,,,,,,,,,,,,,,,,,,,,,,,,,,,,,,,,,,,,,,,,,,,,,,,,,,,,,,,,,,,,,,,,,,,,,,,,,,
,,,,,,5ef0932312818b06a0abf52d,629c523ac83985c5b8e0dc5f,2022-06-05_09h00.05.796,Colour_Asymmetry_Pilot,2022.1.3,MacIntel,60.0240096,629c4b6caf241d5e6e00bfc0,0,35,35,22,1,fourtwo,,,,,,,,,,,,,,,,,,,,,,,,,,,,,,,,,,,,,,,,,,,,,,,,,,,,,,,,,,,,,,,,,,,,,,,,,,,,,,,,,,,,,,,,,,,,,,,,,,,,,,,,,,,,,,,,,,,,,,,,,,,,,,,,,,,,,,,,,,,,,
,,,,,,5ef0932312818b06a0abf52d,629c523ac83985c5b8e0dc5f,2022-06-05_09h00.05.796,Colour_Asymmetry_Pilot,2022.1.3,MacIntel,60.0240096,629c4b6caf241d5e6e00bfc0,0,36,36,65,1,onethree,,,,,,,,,,,,,,,,,,,,,,,,,,,,,,,,,,,,,,,,,,,,,,,,,,,,,,,,,,,,,,,,,,,,,,,,,,,,,,,,,,,,,,,,,,,,,,,,,,,,,,,,,,,,,,,,,,,,,,,,,,,,,,,,,,,,,,,,,,,,,
,,,,,,5ef0932312818b06a0abf52d,629c523ac83985c5b8e0dc5f,2022-06-05_09h00.05.796,Colour_Asymmetry_Pilot,2022.1.3,MacIntel,60.0240096,629c4b6caf241d5e6e00bfc0,0,37,37,51,1,twofour,,,,,,,,,,,,,,,,,,,,,,,,,,,,,,,,,,,,,,,,,,,,,,,,,,,,,,,,,,,,,,,,,,,,,,,,,,,,,,,,,,,,,,,,,,,,,,,,,,,,,,,,,,,,,,,,,,,,,,,,,,,,,,,,,,,,,,,,,,,,,
,,,,,,5ef0932312818b06a0abf52d,629c523ac83985c5b8e0dc5f,2022-06-05_09h00.05.796,Colour_Asymmetry_Pilot,2022.1.3,MacIntel,60.0240096,629c4b6caf241d5e6e00bfc0,0,38,38,130,1,twoone,,,,,,,,,,,,,,,,,,,,,,,,,,,,,,,,,,,,,,,,,,,,,,,,,,,,,,,,,,,,,,,,,,,,,,,,,,,,,,,,,,,,,,,,,,,,,,,,,,,,,,,,,,,,,,,,,,,,,,,,,,,,,,,,,,,,,,,,,,,,,
,,,,,,5ef0932312818b06a0abf52d,629c523ac83985c5b8e0dc5f,2022-06-05_09h00.05.796,Colour_Asymmetry_Pilot,2022.1.3,MacIntel,60.0240096,629c4b6caf241d5e6e00bfc0,0,39,39,25,1,onethree,,,,,,,,,,,,,,,,,,,,,,,,,,,,,,,,,,,,,,,,,,,,,,,,,,,,,,,,,,,,,,,,,,,,,,,,,,,,,,,,,,,,,,,,,,,,,,,,,,,,,,,,,,,,,,,,,,,,,,,,,,,,,,,,,,,,,,,,,,,,,
,,,,,,5ef0932312818b06a0abf52d,629c523ac83985c5b8e0dc5f,2022-06-05_09h00.05.796,Colour_Asymmetry_Pilot,2022.1.3,MacIntel,60.0240096,629c4b6caf241d5e6e00bfc0,0,40,40,90,1,twoone,,,,,,,,,,,,,,,,,,,,,,,,,,,,,,,,,,,,,,,,,,,,,,,,,,,,,,,,,,,,,,,,,,,,,,,,,,,,,,,,,,,,,,,,,,,,,,,,,,,,,,,,,,,,,,,,,,,,,,,,,,,,,,,,,,,,,,,,,,,,,
,,,,,,5ef0932312818b06a0abf52d,629c523ac83985c5b8e0dc5f,2022-06-05_09h00.05.796,Colour_Asymmetry_Pilot,2022.1.3,MacIntel,60.0240096,629c4b6caf241d5e6e00bfc0,0,41,41,58,1,twoone,,,,,,,,,,,,,,,,,,,,,,,,,,,,,,,,,,,,,,,,,,,,,,,,,,,,,,,,,,,,,,,,,,,,,,,,,,,,,,,,,,,,,,,,,,,,,,,,,,,,,,,,,,,,,,,,,,,,,,,,,,,,,,,,,,,,,,,,,,,,,
,,,,,,5ef0932312818b06a0abf52d,629c523ac83985c5b8e0dc5f,2022-06-05_09h00.05.796,Colour_Asymmetry_Pilot,2022.1.3,MacIntel,60.0240096,629c4b6caf241d5e6e00bfc0,0,42,42,97,1,onethree,,,,,,,,,,,,,,,,,,,,,,,,,,,,,,,,,,,,,,,,,,,,,,,,,,,,,,,,,,,,,,,,,,,,,,,,,,,,,,,,,,,,,,,,,,,,,,,,,,,,,,,,,,,,,,,,,,,,,,,,,,,,,,,,,,,,,,,,,,,,,
,,,,,,5ef0932312818b06a0abf52d,629c523ac83985c5b8e0dc5f,2022-06-05_09h00.05.796,Colour_Asymmetry_Pilot,2022.1.3,MacIntel,60.0240096,629c4b6caf241d5e6e00bfc0,0,43,43,47,1,fourthree,,,,,,,,,,,,,,,,,,,,,,,,,,,,,,,,,,,,,,,,,,,,,,,,,,,,,,,,,,,,,,,,,,,,,,,,,,,,,,,,,,,,,,,,,,,,,,,,,,,,,,,,,,,,,,,,,,,,,,,,,,,,,,,,,,,,,,,,,,,,,
,,,,,,5ef0932312818b06a0abf52d,629c523ac83985c5b8e0dc5f,2022-06-05_09h00.05.796,Colour_Asymmetry_Pilot,2022.1.3,MacIntel,60.0240096,629c4b6caf241d5e6e00bfc0,0,44,44,119,1,fourthree,,,,,,,,,,,,,,,,,,,,,,,,,,,,,,,,,,,,,,,,,,,,,,,,,,,,,,,,,,,,,,,,,,,,,,,,,,,,,,,,,,,,,,,,,,,,,,,,,,,,,,,,,,,,,,,,,,,,,,,,,,,,,,,,,,,,,,,,,,,,,
,,,,,,5ef0932312818b06a0abf52d,629c523ac83985c5b8e0dc5f,2022-06-05_09h00.05.796,Colour_Asymmetry_Pilot,2022.1.3,MacIntel,60.0240096,629c4b6caf241d5e6e00bfc0,0,45,45,75,1,twofour,,,,,,,,,,,,,,,,,,,,,,,,,,,,,,,,,,,,,,,,,,,,,,,,,,,,,,,,,,,,,,,,,,,,,,,,,,,,,,,,,,,,,,,,,,,,,,,,,,,,,,,,,,,,,,,,,,,,,,,,,,,,,,,,,,,,,,,,,,,,,
,,,,,,5ef0932312818b06a0abf52d,629c523ac83985c5b8e0dc5f,2022-06-05_09h00.05.796,Colour_Asymmetry_Pilot,2022.1.3,MacIntel,60.0240096,629c4b6caf241d5e6e00bfc0,0,46,46,110,1,fourtwo,,,,,,,,,,,,,,,,,,,,,,,,,,,,,,,,,,,,,,,,,,,,,,,,,,,,,,,,,,,,,,,,,,,,,,,,,,,,,,,,,,,,,,,,,,,,,,,,,,,,,,,,,,,,,,,,,,,,,,,,,,,,,,,,,,,,,,,,,,,,,
,,,,,,5ef0932312818b06a0abf52d,629c523ac83985c5b8e0dc5f,2022-06-05_09h00.05.796,Colour_Asymmetry_Pilot,2022.1.3,MacIntel,60.0240096,629c4b6caf241d5e6e00bfc0,0,47,47,52,1,threeone,,,,,,,,,,,,,,,,,,,,,,,,,,,,,,,,,,,,,,,,,,,,,,,,,,,,,,,,,,,,,,,,,,,,,,,,,,,,,,,,,,,,,,,,,,,,,,,,,,,,,,,,,,,,,,,,,,,,,,,,,,,,,,,,,,,,,,,,,,,,,
,,,,,,5ef0932312818b06a0abf52d,629c523ac83985c5b8e0dc5f,2022-06-05_09h00.05.796,Colour_Asymmetry_Pilot,2022.1.3,MacIntel,60.0240096,629c4b6caf241d5e6e00bfc0,0,48,48,70,1,fourtwo,,,,,,,,,,,,,,,,,,,,,,,,,,,,,,,,,,,,,,,,,,,,,,,,,,,,,,,,,,,,,,,,,,,,,,,,,,,,,,,,,,,,,,,,,,,,,,,,,,,,,,,,,,,,,,,,,,,,,,,,,,,,,,,,,,,,,,,,,,,,,
,,,,,,5ef0932312818b06a0abf52d,629c523ac83985c5b8e0dc5f,2022-06-05_09h00.05.796,Colour_Asymmetry_Pilot,2022.1.3,MacIntel,60.0240096,629c4b6caf241d5e6e00bfc0,0,49,49,99,1,twofour,,,,,,,,,,,,,,,,,,,,,,,,,,,,,,,,,,,,,,,,,,,,,,,,,,,,,,,,,,,,,,,,,,,,,,,,,,,,,,,,,,,,,,,,,,,,,,,,,,,,,,,,,,,,,,,,,,,,,,,,,,,,,,,,,,,,,,,,,,,,,
,,,,,,5ef0932312818b06a0abf52d,629c523ac83985c5b8e0dc5f,2022-06-05_09h00.05.796,Colour_Asymmetry_Pilot,2022.1.3,MacIntel,60.0240096,629c4b6caf241d5e6e00bfc0,0,50,50,94,1,fourtwo,,,,,,,,,,,,,,,,,,,,,,,,,,,,,,,,,,,,,,,,,,,,,,,,,,,,,,,,,,,,,,,,,,,,,,,,,,,,,,,,,,,,,,,,,,,,,,,,,,,,,,,,,,,,,,,,,,,,,,,,,,,,,,,,,,,,,,,,,,,,,
,,,,,,5ef0932312818b06a0abf52d,629c523ac83985c5b8e0dc5f,2022-06-05_09h00.05.796,Colour_Asymmetry_Pilot,2022.1.3,MacIntel,60.0240096,629c4b6caf241d5e6e00bfc0,0,51,51,108,1,threeone,,,,,,,,,,,,,,,,,,,,,,,,,,,,,,,,,,,,,,,,,,,,,,,,,,,,,,,,,,,,,,,,,,,,,,,,,,,,,,,,,,,,,,,,,,,,,,,,,,,,,,,,,,,,,,,,,,,,,,,,,,,,,,,,,,,,,,,,,,,,,
,,,,,,5ef0932312818b06a0abf52d,629c523ac83985c5b8e0dc5f,2022-06-05_09h00.05.796,Colour_Asymmetry_Pilot,2022.1.3,MacIntel,60.0240096,629c4b6caf241d5e6e00bfc0,0,52,52,72,1,onetwo,,,,,,,,,,,,,,,,,,,,,,,,,,,,,,,,,,,,,,,,,,,,,,,,,,,,,,,,,,,,,,,,,,,,,,,,,,,,,,,,,,,,,,,,,,,,,,,,,,,,,,,,,,,,,,,,,,,,,,,,,,,,,,,,,,,,,,,,,,,,,
,,,,,,5ef0932312818b06a0abf52d,629c523ac83985c5b8e0dc5f,2022-06-05_09h00.05.796,Colour_Asymmetry_Pilot,2022.1.3,MacIntel,60.0240096,629c4b6caf241d5e6e00bfc0,0,53,53,73,1,onethree,,,,,,,,,,,,,,,,,,,,,,,,,,,,,,,,,,,,,,,,,,,,,,,,,,,,,,,,,,,,,,,,,,,,,,,,,,,,,,,,,,,,,,,,,,,,,,,,,,,,,,,,,,,,,,,,,,,,,,,,,,,,,,,,,,,,,,,,,,,,,
,,,,,,5ef0932312818b06a0abf52d,629c523ac83985c5b8e0dc5f,2022-06-05_09h00.05.796,Colour_Asymmetry_Pilot,2022.1.3,MacIntel,60.0240096,629c4b6caf241d5e6e00bfc0,0,54,54,8,1,onetwo,,,,,,,,,,,,,,,,,,,,,,,,,,,,,,,,,,,,,,,,,,,,,,,,,,,,,,,,,,,,,,,,,,,,,,,,,,,,,,,,,,,,,,,,,,,,,,,,,,,,,,,,,,,,,,,,,,,,,,,,,,,,,,,,,,,,,,,,,,,,,
,,,,,,5ef0932312818b06a0abf52d,629c523ac83985c5b8e0dc5f,2022-06-05_09h00.05.796,Colour_Asymmetry_Pilot,2022.1.3,MacIntel,60.0240096,629c4b6caf241d5e6e00bfc0,0,55,55,101,1,threefour,,,,,,,,,,,,,,,,,,,,,,,,,,,,,,,,,,,,,,,,,,,,,,,,,,,,,,,,,,,,,,,,,,,,,,,,,,,,,,,,,,,,,,,,,,,,,,,,,,,,,,,,,,,,,,,,,,,,,,,,,,,,,,,,,,,,,,,,,,,,,
,,,,,,5ef0932312818b06a0abf52d,629c523ac83985c5b8e0dc5f,2022-06-05_09h00.05.796,Colour_Asymmetry_Pilot,2022.1.3,MacIntel,60.0240096,629c4b6caf241d5e6e00bfc0,0,56,56,50,1,twoone,,,,,,,,,,,,,,,,,,,,,,,,,,,,,,,,,,,,,,,,,,,,,,,,,,,,,,,,,,,,,,,,,,,,,,,,,,,,,,,,,,,,,,,,,,,,,,,,,,,,,,,,,,,,,,,,,,,,,,,,,,,,,,,,,,,,,,,,,,,,,
,,,,,,5ef0932312818b06a0abf52d,629c523ac83985c5b8e0dc5f,2022-06-05_09h00.05.796,Colour_Asymmetry_Pilot,2022.1.3,MacIntel,60.0240096,629c4b6caf241d5e6e00bfc0,0,57,57,157,1,threefour,,,,,,,,,,,,,,,,,,,,,,,,,,,,,,,,,,,,,,,,,,,,,,,,,,,,,,,,,,,,,,,,,,,,,,,,,,,,,,,,,,,,,,,,,,,,,,,,,,,,,,,,,,,,,,,,,,,,,,,,,,,,,,,,,,,,,,,,,,,,,
,,,,,,5ef0932312818b06a0abf52d,629c523ac83985c5b8e0dc5f,2022-06-05_09h00.05.796,Colour_Asymmetry_Pilot,2022.1.3,MacIntel,60.0240096,629c4b6caf241d5e6e00bfc0,0,58,58,100,1,threeone,,,,,,,,,,,,,,,,,,,,,,,,,,,,,,,,,,,,,,,,,,,,,,,,,,,,,,,,,,,,,,,,,,,,,,,,,,,,,,,,,,,,,,,,,,,,,,,,,,,,,,,,,,,,,,,,,,,,,,,,,,,,,,,,,,,,,,,,,,,,,
,,,,,,5ef0932312818b06a0abf52d,629c523ac83985c5b8e0dc5f,2022-06-05_09h00.05.796,Colour_Asymmetry_Pilot,2022.1.3,MacIntel,60.0240096,629c4b6caf241d5e6e00bfc0,0,59,59,146,1,twoone,,,,,,,,,,,,,,,,,,,,,,,,,,,,,,,,,,,,,,,,,,,,,,,,,,,,,,,,,,,,,,,,,,,,,,,,,,,,,,,,,,,,,,,,,,,,,,,,,,,,,,,,,,,,,,,,,,,,,,,,,,,,,,,,,,,,,,,,,,,,,
,,,,,,5ef0932312818b06a0abf52d,629c523ac83985c5b8e0dc5f,2022-06-05_09h00.05.796,Colour_Asymmetry_Pilot,2022.1.3,MacIntel,60.0240096,629c4b6caf241d5e6e00bfc0,0,60,60,161,1,onethree,,,,,,,,,,,,,,,,,,,,,,,,,,,,,,,,,,,,,,,,,,,,,,,,,,,,,,,,,,,,,,,,,,,,,,,,,,,,,,,,,,,,,,,,,,,,,,,,,,,,,,,,,,,,,,,,,,,,,,,,,,,,,,,,,,,,,,,,,,,,,
,,,,,,5ef0932312818b06a0abf52d,629c523ac83985c5b8e0dc5f,2022-06-05_09h00.05.796,Colour_Asymmetry_Pilot,2022.1.3,MacIntel,60.0240096,629c4b6caf241d5e6e00bfc0,0,61,61,111,1,fourthree,,,,,,,,,,,,,,,,,,,,,,,,,,,,,,,,,,,,,,,,,,,,,,,,,,,,,,,,,,,,,,,,,,,,,,,,,,,,,,,,,,,,,,,,,,,,,,,,,,,,,,,,,,,,,,,,,,,,,,,,,,,,,,,,,,,,,,,,,,,,,
,,,,,,5ef0932312818b06a0abf52d,629c523ac83985c5b8e0dc5f,2022-06-05_09h00.05.796,Colour_Asymmetry_Pilot,2022.1.3,MacIntel,60.0240096,629c4b6caf241d5e6e00bfc0,0,62,62,133,1,threefour,,,,,,,,,,,,,,,,,,,,,,,,,,,,,,,,,,,,,,,,,,,,,,,,,,,,,,,,,,,,,,,,,,,,,,,,,,,,,,,,,,,,,,,,,,,,,,,,,,,,,,,,,,,,,,,,,,,,,,,,,,,,,,,,,,,,,,,,,,,,,
,,,,,,5ef0932312818b06a0abf52d,629c523ac83985c5b8e0dc5f,2022-06-05_09h00.05.796,Colour_Asymmetry_Pilot,2022.1.3,MacIntel,60.0240096,629c4b6caf241d5e6e00bfc0,0,63,63,151,1,fourthree,,,,,,,,,,,,,,,,,,,,,,,,,,,,,,,,,,,,,,,,,,,,,,,,,,,,,,,,,,,,,,,,,,,,,,,,,,,,,,,,,,,,,,,,,,,,,,,,,,,,,,,,,,,,,,,,,,,,,,,,,,,,,,,,,,,,,,,,,,,,,
,,,,,,5ef0932312818b06a0abf52d,629c523ac83985c5b8e0dc5f,2022-06-05_09h00.05.796,Colour_Asymmetry_Pilot,2022.1.3,MacIntel,60.0240096,629c4b6caf241d5e6e00bfc0,0,64,64,40,1,onetwo,,,,,,,,,,,,,,,,,,,,,,,,,,,,,,,,,,,,,,,,,,,,,,,,,,,,,,,,,,,,,,,,,,,,,,,,,,,,,,,,,,,,,,,,,,,,,,,,,,,,,,,,,,,,,,,,,,,,,,,,,,,,,,,,,,,,,,,,,,,,,
,,,,,,5ef0932312818b06a0abf52d,629c523ac83985c5b8e0dc5f,2022-06-05_09h00.05.796,Colour_Asymmetry_Pilot,2022.1.3,MacIntel,60.0240096,629c4b6caf241d5e6e00bfc0,0,65,65,76,1,threeone,,,,,,,,,,,,,,,,,,,,,,,,,,,,,,,,,,,,,,,,,,,,,,,,,,,,,,,,,,,,,,,,,,,,,,,,,,,,,,,,,,,,,,,,,,,,,,,,,,,,,,,,,,,,,,,,,,,,,,,,,,,,,,,,,,,,,,,,,,,,,
,,,,,,5ef0932312818b06a0abf52d,629c523ac83985c5b8e0dc5f,2022-06-05_09h00.05.796,Colour_Asymmetry_Pilot,2022.1.3,MacIntel,60.0240096,629c4b6caf241d5e6e00bfc0,0,66,66,147,1,twofour,,,,,,,,,,,,,,,,,,,,,,,,,,,,,,,,,,,,,,,,,,,,,,,,,,,,,,,,,,,,,,,,,,,,,,,,,,,,,,,,,,,,,,,,,,,,,,,,,,,,,,,,,,,,,,,,,,,,,,,,,,,,,,,,,,,,,,,,,,,,,
,,,,,,5ef0932312818b06a0abf52d,629c523ac83985c5b8e0dc5f,2022-06-05_09h00.05.796,Colour_Asymmetry_Pilot,2022.1.3,MacIntel,60.0240096,629c4b6caf241d5e6e00bfc0,0,67,67,13,1,threefour,,,,,,,,,,,,,,,,,,,,,,,,,,,,,,,,,,,,,,,,,,,,,,,,,,,,,,,,,,,,,,,,,,,,,,,,,,,,,,,,,,,,,,,,,,,,,,,,,,,,,,,,,,,,,,,,,,,,,,,,,,,,,,,,,,,,,,,,,,,,,
,,,,,,5ef0932312818b06a0abf52d,629c523ac83985c5b8e0dc5f,2022-06-05_09h00.05.796,Colour_Asymmetry_Pilot,2022.1.3,MacIntel,60.0240096,629c4b6caf241d5e6e00bfc0,0,68,68,59,1,twofour,,,,,,,,,,,,,,,,,,,,,,,,,,,,,,,,,,,,,,,,,,,,,,,,,,,,,,,,,,,,,,,,,,,,,,,,,,,,,,,,,,,,,,,,,,,,,,,,,,,,,,,,,,,,,,,,,,,,,,,,,,,,,,,,,,,,,,,,,,,,,
,,,,,,5ef0932312818b06a0abf52d,629c523ac83985c5b8e0dc5f,2022-06-05_09h00.05.796,Colour_Asymmetry_Pilot,2022.1.3,MacIntel,60.0240096,629c4b6caf241d5e6e00bfc0,0,69,69,107,1,twofour,,,,,,,,,,,,,,,,,,,,,,,,,,,,,,,,,,,,,,,,,,,,,,,,,,,,,,,,,,,,,,,,,,,,,,,,,,,,,,,,,,,,,,,,,,,,,,,,,,,,,,,,,,,,,,,,,,,,,,,,,,,,,,,,,,,,,,,,,,,,,
,,,,,,5ef0932312818b06a0abf52d,629c523ac83985c5b8e0dc5f,2022-06-05_09h00.05.796,Colour_Asymmetry_Pilot,2022.1.3,MacIntel,60.0240096,629c4b6caf241d5e6e00bfc0,0,70,70,74,1,twoone,,,,,,,,,,,,,,,,,,,,,,,,,,,,,,,,,,,,,,,,,,,,,,,,,,,,,,,,,,,,,,,,,,,,,,,,,,,,,,,,,,,,,,,,,,,,,,,,,,,,,,,,,,,,,,,,,,,,,,,,,,,,,,,,,,,,,,,,,,,,,
,,,,,,5ef0932312818b06a0abf52d,629c523ac83985c5b8e0dc5f,2022-06-05_09h00.05.796,Colour_Asymmetry_Pilot,2022.1.3,MacIntel,60.0240096,629c4b6caf241d5e6e00bfc0,0,71,71,102,1,fourtwo,,,,,,,,,,,,,,,,,,,,,,,,,,,,,,,,,,,,,,,,,,,,,,,,,,,,,,,,,,,,,,,,,,,,,,,,,,,,,,,,,,,,,,,,,,,,,,,,,,,,,,,,,,,,,,,,,,,,,,,,,,,,,,,,,,,,,,,,,,,,,
,,,,,,5ef0932312818b06a0abf52d,629c523ac83985c5b8e0dc5f,2022-06-05_09h00.05.796,Colour_Asymmetry_Pilot,2022.1.3,MacIntel,60.0240096,629c4b6caf241d5e6e00bfc0,0,72,72,123,1,twofour,,,,,,,,,,,,,,,,,,,,,,,,,,,,,,,,,,,,,,,,,,,,,,,,,,,,,,,,,,,,,,,,,,,,,,,,,,,,,,,,,,,,,,,,,,,,,,,,,,,,,,,,,,,,,,,,,,,,,,,,,,,,,,,,,,,,,,,,,,,,,
,,,,,,5ef0932312818b06a0abf52d,629c523ac83985c5b8e0dc5f,2022-06-05_09h00.05.796,Colour_Asymmetry_Pilot,2022.1.3,MacIntel,60.0240096,629c4b6caf241d5e6e00bfc0,0,73,73,67,1,twofour,,,,,,,,,,,,,,,,,,,,,,,,,,,,,,,,,,,,,,,,,,,,,,,,,,,,,,,,,,,,,,,,,,,,,,,,,,,,,,,,,,,,,,,,,,,,,,,,,,,,,,,,,,,,,,,,,,,,,,,,,,,,,,,,,,,,,,,,,,,,,
,,,,,,5ef0932312818b06a0abf52d,629c523ac83985c5b8e0dc5f,2022-06-05_09h00.05.796,Colour_Asymmetry_Pilot,2022.1.3,MacIntel,60.0240096,629c4b6caf241d5e6e00bfc0,0,74,74,109,1,threefour,,,,,,,,,,,,,,,,,,,,,,,,,,,,,,,,,,,,,,,,,,,,,,,,,,,,,,,,,,,,,,,,,,,,,,,,,,,,,,,,,,,,,,,,,,,,,,,,,,,,,,,,,,,,,,,,,,,,,,,,,,,,,,,,,,,,,,,,,,,,,
,,,,,,5ef0932312818b06a0abf52d,629c523ac83985c5b8e0dc5f,2022-06-05_09h00.05.796,Colour_Asymmetry_Pilot,2022.1.3,MacIntel,60.0240096,629c4b6caf241d5e6e00bfc0,0,75,75,136,1,onetwo,,,,,,,,,,,,,,,,,,,,,,,,,,,,,,,,,,,,,,,,,,,,,,,,,,,,,,,,,,,,,,,,,,,,,,,,,,,,,,,,,,,,,,,,,,,,,,,,,,,,,,,,,,,,,,,,,,,,,,,,,,,,,,,,,,,,,,,,,,,,,
,,,,,,5ef0932312818b06a0abf52d,629c523ac83985c5b8e0dc5f,2022-06-05_09h00.05.796,Colour_Asymmetry_Pilot,2022.1.3,MacIntel,60.0240096,629c4b6caf241d5e6e00bfc0,0,76,76,0,1,onetwo,,,,,,,,,,,,,,,,,,,,,,,,,,,,,,,,,,,,,,,,,,,,,,,,,,,,,,,,,,,,,,,,,,,,,,,,,,,,,,,,,,,,,,,,,,,,,,,,,,,,,,,,,,,,,,,,,,,,,,,,,,,,,,,,,,,,,,,,,,,,,
,,,,,,5ef0932312818b06a0abf52d,629c523ac83985c5b8e0dc5f,2022-06-05_09h00.05.796,Colour_Asymmetry_Pilot,2022.1.3,MacIntel,60.0240096,629c4b6caf241d5e6e00bfc0,0,77,77,132,1,threeone,,,,,,,,,,,,,,,,,,,,,,,,,,,,,,,,,,,,,,,,,,,,,,,,,,,,,,,,,,,,,,,,,,,,,,,,,,,,,,,,,,,,,,,,,,,,,,,,,,,,,,,,,,,,,,,,,,,,,,,,,,,,,,,,,,,,,,,,,,,,,
,,,,,,5ef0932312818b06a0abf52d,629c523ac83985c5b8e0dc5f,2022-06-05_09h00.05.796,Colour_Asymmetry_Pilot,2022.1.3,MacIntel,60.0240096,629c4b6caf241d5e6e00bfc0,0,78,78,30,1,fourtwo,,,,,,,,,,,,,,,,,,,,,,,,,,,,,,,,,,,,,,,,,,,,,,,,,,,,,,,,,,,,,,,,,,,,,,,,,,,,,,,,,,,,,,,,,,,,,,,,,,,,,,,,,,,,,,,,,,,,,,,,,,,,,,,,,,,,,,,,,,,,,
,,,,,,5ef0932312818b06a0abf52d,629c523ac83985c5b8e0dc5f,2022-06-05_09h00.05.796,Colour_Asymmetry_Pilot,2022.1.3,MacIntel,60.0240096,629c4b6caf241d5e6e00bfc0,0,79,79,131,1,twofour,,,,,,,,,,,,,,,,,,,,,,,,,,,,,,,,,,,,,,,,,,,,,,,,,,,,,,,,,,,,,,,,,,,,,,,,,,,,,,,,,,,,,,,,,,,,,,,,,,,,,,,,,,,,,,,,,,,,,,,,,,,,,,,,,,,,,,,,,,,,,
,,,,,,5ef0932312818b06a0abf52d,629c523ac83985c5b8e0dc5f,2022-06-05_09h00.05.796,Colour_Asymmetry_Pilot,2022.1.3,MacIntel,60.0240096,629c4b6caf241d5e6e00bfc0,0,80,80,2,1,twoone,,,,,,,,,,,,,,,,,,,,,,,,,,,,,,,,,,,,,,,,,,,,,,,,,,,,,,,,,,,,,,,,,,,,,,,,,,,,,,,,,,,,,,,,,,,,,,,,,,,,,,,,,,,,,,,,,,,,,,,,,,,,,,,,,,,,,,,,,,,,,
,,,,,,5ef0932312818b06a0abf52d,629c523ac83985c5b8e0dc5f,2022-06-05_09h00.05.796,Colour_Asymmetry_Pilot,2022.1.3,MacIntel,60.0240096,629c4b6caf241d5e6e00bfc0,0,81,81,106,1,twoone,,,,,,,,,,,,,,,,,,,,,,,,,,,,,,,,,,,,,,,,,,,,,,,,,,,,,,,,,,,,,,,,,,,,,,,,,,,,,,,,,,,,,,,,,,,,,,,,,,,,,,,,,,,,,,,,,,,,,,,,,,,,,,,,,,,,,,,,,,,,,
,,,,,,5ef0932312818b06a0abf52d,629c523ac83985c5b8e0dc5f,2022-06-05_09h00.05.796,Colour_Asymmetry_Pilot,2022.1.3,MacIntel,60.0240096,629c4b6caf241d5e6e00bfc0,0,82,82,4,1,threeone,,,,,,,,,,,,,,,,,,,,,,,,,,,,,,,,,,,,,,,,,,,,,,,,,,,,,,,,,,,,,,,,,,,,,,,,,,,,,,,,,,,,,,,,,,,,,,,,,,,,,,,,,,,,,,,,,,,,,,,,,,,,,,,,,,,,,,,,,,,,,
,,,,,,5ef0932312818b06a0abf52d,629c523ac83985c5b8e0dc5f,2022-06-05_09h00.05.796,Colour_Asymmetry_Pilot,2022.1.3,MacIntel,60.0240096,629c4b6caf241d5e6e00bfc0,0,83,83,32,1,onetwo,,,,,,,,,,,,,,,,,,,,,,,,,,,,,,,,,,,,,,,,,,,,,,,,,,,,,,,,,,,,,,,,,,,,,,,,,,,,,,,,,,,,,,,,,,,,,,,,,,,,,,,,,,,,,,,,,,,,,,,,,,,,,,,,,,,,,,,,,,,,,
,,,,,,5ef0932312818b06a0abf52d,629c523ac83985c5b8e0dc5f,2022-06-05_09h00.05.796,Colour_Asymmetry_Pilot,2022.1.3,MacIntel,60.0240096,629c4b6caf241d5e6e00bfc0,0,84,84,160,1,onetwo,,,,,,,,,,,,,,,,,,,,,,,,,,,,,,,,,,,,,,,,,,,,,,,,,,,,,,,,,,,,,,,,,,,,,,,,,,,,,,,,,,,,,,,,,,,,,,,,,,,,,,,,,,,,,,,,,,,,,,,,,,,,,,,,,,,,,,,,,,,,,
,,,,,,5ef0932312818b06a0abf52d,629c523ac83985c5b8e0dc5f,2022-06-05_09h00.05.796,Colour_Asymmetry_Pilot,2022.1.3,MacIntel,60.0240096,629c4b6caf241d5e6e00bfc0,0,85,85,83,1,twofour,,,,,,,,,,,,,,,,,,,,,,,,,,,,,,,,,,,,,,,,,,,,,,,,,,,,,,,,,,,,,,,,,,,,,,,,,,,,,,,,,,,,,,,,,,,,,,,,,,,,,,,,,,,,,,,,,,,,,,,,,,,,,,,,,,,,,,,,,,,,,
,,,,,,5ef0932312818b06a0abf52d,629c523ac83985c5b8e0dc5f,2022-06-05_09h00.05.796,Colour_Asymmetry_Pilot,2022.1.3,MacIntel,60.0240096,629c4b6caf241d5e6e00bfc0,0,86,86,24,1,onetwo,,,,,,,,,,,,,,,,,,,,,,,,,,,,,,,,,,,,,,,,,,,,,,,,,,,,,,,,,,,,,,,,,,,,,,,,,,,,,,,,,,,,,,,,,,,,,,,,,,,,,,,,,,,,,,,,,,,,,,,,,,,,,,,,,,,,,,,,,,,,,
,,,,,,5ef0932312818b06a0abf52d,629c523ac83985c5b8e0dc5f,2022-06-05_09h00.05.796,Colour_Asymmetry_Pilot,2022.1.3,MacIntel,60.0240096,629c4b6caf241d5e6e00bfc0,0,87,87,12,1,threeone,,,,,,,,,,,,,,,,,,,,,,,,,,,,,,,,,,,,,,,,,,,,,,,,,,,,,,,,,,,,,,,,,,,,,,,,,,,,,,,,,,,,,,,,,,,,,,,,,,,,,,,,,,,,,,,,,,,,,,,,,,,,,,,,,,,,,,,,,,,,,
,,,,,,5ef0932312818b06a0abf52d,629c523ac83985c5b8e0dc5f,2022-06-05_09h00.05.796,Colour_Asymmetry_Pilot,2022.1.3,MacIntel,60.0240096,629c4b6caf241d5e6e00bfc0,0,88,88,66,1,twoone,,,,,,,,,,,,,,,,,,,,,,,,,,,,,,,,,,,,,,,,,,,,,,,,,,,,,,,,,,,,,,,,,,,,,,,,,,,,,,,,,,,,,,,,,,,,,,,,,,,,,,,,,,,,,,,,,,,,,,,,,,,,,,,,,,,,,,,,,,,,,
,,,,,,5ef0932312818b06a0abf52d,629c523ac83985c5b8e0dc5f,2022-06-05_09h00.05.796,Colour_Asymmetry_Pilot,2022.1.3,MacIntel,60.0240096,629c4b6caf241d5e6e00bfc0,0,89,89,138,1,twoone,,,,,,,,,,,,,,,,,,,,,,,,,,,,,,,,,,,,,,,,,,,,,,,,,,,,,,,,,,,,,,,,,,,,,,,,,,,,,,,,,,,,,,,,,,,,,,,,,,,,,,,,,,,,,,,,,,,,,,,,,,,,,,,,,,,,,,,,,,,,,
,,,,,,5ef0932312818b06a0abf52d,629c523ac83985c5b8e0dc5f,2022-06-05_09h00.05.796,Colour_Asymmetry_Pilot,2022.1.3,MacIntel,60.0240096,629c4b6caf241d5e6e00bfc0,0,90,90,127,1,fourthree,,,,,,,,,,,,,,,,,,,,,,,,,,,,,,,,,,,,,,,,,,,,,,,,,,,,,,,,,,,,,,,,,,,,,,,,,,,,,,,,,,,,,,,,,,,,,,,,,,,,,,,,,,,,,,,,,,,,,,,,,,,,,,,,,,,,,,,,,,,,,
,,,,,,5ef0932312818b06a0abf52d,629c523ac83985c5b8e0dc5f,2022-06-05_09h00.05.796,Colour_Asymmetry_Pilot,2022.1.3,MacIntel,60.0240096,629c4b6caf241d5e6e00bfc0,0,91,91,29,1,threefour,,,,,,,,,,,,,,,,,,,,,,,,,,,,,,,,,,,,,,,,,,,,,,,,,,,,,,,,,,,,,,,,,,,,,,,,,,,,,,,,,,,,,,,,,,,,,,,,,,,,,,,,,,,,,,,,,,,,,,,,,,,,,,,,,,,,,,,,,,,,,
,,,,,,5ef0932312818b06a0abf52d,629c523ac83985c5b8e0dc5f,2022-06-05_09h00.05.796,Colour_Asymmetry_Pilot,2022.1.3,MacIntel,60.0240096,629c4b6caf241d5e6e00bfc0,0,92,92,53,1,threefour,,,,,,,,,,,,,,,,,,,,,,,,,,,,,,,,,,,,,,,,,,,,,,,,,,,,,,,,,,,,,,,,,,,,,,,,,,,,,,,,,,,,,,,,,,,,,,,,,,,,,,,,,,,,,,,,,,,,,,,,,,,,,,,,,,,,,,,,,,,,,
,,,,,,5ef0932312818b06a0abf52d,629c523ac83985c5b8e0dc5f,2022-06-05_09h00.05.796,Colour_Asymmetry_Pilot,2022.1.3,MacIntel,60.0240096,629c4b6caf241d5e6e00bfc0,0,93,93,145,1,onethree,,,,,,,,,,,,,,,,,,,,,,,,,,,,,,,,,,,,,,,,,,,,,,,,,,,,,,,,,,,,,,,,,,,,,,,,,,,,,,,,,,,,,,,,,,,,,,,,,,,,,,,,,,,,,,,,,,,,,,,,,,,,,,,,,,,,,,,,,,,,,
,,,,,,5ef0932312818b06a0abf52d,629c523ac83985c5b8e0dc5f,2022-06-05_09h00.05.796,Colour_Asymmetry_Pilot,2022.1.3,MacIntel,60.0240096,629c4b6caf241d5e6e00bfc0,0,94,94,125,1,threefour,,,,,,,,,,,,,,,,,,,,,,,,,,,,,,,,,,,,,,,,,,,,,,,,,,,,,,,,,,,,,,,,,,,,,,,,,,,,,,,,,,,,,,,,,,,,,,,,,,,,,,,,,,,,,,,,,,,,,,,,,,,,,,,,,,,,,,,,,,,,,
,,,,,,5ef0932312818b06a0abf52d,629c523ac83985c5b8e0dc5f,2022-06-05_09h00.05.796,Colour_Asymmetry_Pilot,2022.1.3,MacIntel,60.0240096,629c4b6caf241d5e6e00bfc0,0,95,95,20,1,threeone,,,,,,,,,,,,,,,,,,,,,,,,,,,,,,,,,,,,,,,,,,,,,,,,,,,,,,,,,,,,,,,,,,,,,,,,,,,,,,,,,,,,,,,,,,,,,,,,,,,,,,,,,,,,,,,,,,,,,,,,,,,,,,,,,,,,,,,,,,,,,
,,,,,,5ef0932312818b06a0abf52d,629c523ac83985c5b8e0dc5f,2022-06-05_09h00.05.796,Colour_Asymmetry_Pilot,2022.1.3,MacIntel,60.0240096,629c4b6caf241d5e6e00bfc0,0,96,96,135,1,fourthree,,,,,,,,,,,,,,,,,,,,,,,,,,,,,,,,,,,,,,,,,,,,,,,,,,,,,,,,,,,,,,,,,,,,,,,,,,,,,,,,,,,,,,,,,,,,,,,,,,,,,,,,,,,,,,,,,,,,,,,,,,,,,,,,,,,,,,,,,,,,,
,,,,,,5ef0932312818b06a0abf52d,629c523ac83985c5b8e0dc5f,2022-06-05_09h00.05.796,Colour_Asymmetry_Pilot,2022.1.3,MacIntel,60.0240096,629c4b6caf241d5e6e00bfc0,0,97,97,116,1,threeone,,,,,,,,,,,,,,,,,,,,,,,,,,,,,,,,,,,,,,,,,,,,,,,,,,,,,,,,,,,,,,,,,,,,,,,,,,,,,,,,,,,,,,,,,,,,,,,,,,,,,,,,,,,,,,,,,,,,,,,,,,,,,,,,,,,,,,,,,,,,,
,,,,,,5ef0932312818b06a0abf52d,629c523ac83985c5b8e0dc5f,2022-06-05_09h00.05.796,Colour_Asymmetry_Pilot,2022.1.3,MacIntel,60.0240096,629c4b6caf241d5e6e00bfc0,0,98,98,62,1,fourtwo,,,,,,,,,,,,,,,,,,,,,,,,,,,,,,,,,,,,,,,,,,,,,,,,,,,,,,,,,,,,,,,,,,,,,,,,,,,,,,,,,,,,,,,,,,,,,,,,,,,,,,,,,,,,,,,,,,,,,,,,,,,,,,,,,,,,,,,,,,,,,
,,,,,,5ef0932312818b06a0abf52d,629c523ac83985c5b8e0dc5f,2022-06-05_09h00.05.796,Colour_Asymmetry_Pilot,2022.1.3,MacIntel,60.0240096,629c4b6caf241d5e6e00bfc0,0,99,99,61,1,threefour,,,,,,,,,,,,,,,,,,,,,,,,,,,,,,,,,,,,,,,,,,,,,,,,,,,,,,,,,,,,,,,,,,,,,,,,,,,,,,,,,,,,,,,,,,,,,,,,,,,,,,,,,,,,,,,,,,,,,,,,,,,,,,,,,,,,,,,,,,,,,
,,,,,,5ef0932312818b06a0abf52d,629c523ac83985c5b8e0dc5f,2022-06-05_09h00.05.796,Colour_Asymmetry_Pilot,2022.1.3,MacIntel,60.0240096,629c4b6caf241d5e6e00bfc0,0,100,100,33,1,onethree,,,,,,,,,,,,,,,,,,,,,,,,,,,,,,,,,,,,,,,,,,,,,,,,,,,,,,,,,,,,,,,,,,,,,,,,,,,,,,,,,,,,,,,,,,,,,,,,,,,,,,,,,,,,,,,,,,,,,,,,,,,,,,,,,,,,,,,,,,,,,
,,,,,,5ef0932312818b06a0abf52d,629c523ac83985c5b8e0dc5f,2022-06-05_09h00.05.796,Colour_Asymmetry_Pilot,2022.1.3,MacIntel,60.0240096,629c4b6caf241d5e6e00bfc0,0,101,101,10,1,twoone,,,,,,,,,,,,,,,,,,,,,,,,,,,,,,,,,,,,,,,,,,,,,,,,,,,,,,,,,,,,,,,,,,,,,,,,,,,,,,,,,,,,,,,,,,,,,,,,,,,,,,,,,,,,,,,,,,,,,,,,,,,,,,,,,,,,,,,,,,,,,
,,,,,,5ef0932312818b06a0abf52d,629c523ac83985c5b8e0dc5f,2022-06-05_09h00.05.796,Colour_Asymmetry_Pilot,2022.1.3,MacIntel,60.0240096,629c4b6caf241d5e6e00bfc0,0,102,102,121,1,onethree,,,,,,,,,,,,,,,,,,,,,,,,,,,,,,,,,,,,,,,,,,,,,,,,,,,,,,,,,,,,,,,,,,,,,,,,,,,,,,,,,,,,,,,,,,,,,,,,,,,,,,,,,,,,,,,,,,,,,,,,,,,,,,,,,,,,,,,,,,,,,
,,,,,,5ef0932312818b06a0abf52d,629c523ac83985c5b8e0dc5f,2022-06-05_09h00.05.796,Colour_Asymmetry_Pilot,2022.1.3,MacIntel,60.0240096,629c4b6caf241d5e6e00bfc0,0,103,103,78,1,fourtwo,,,,,,,,,,,,,,,,,,,,,,,,,,,,,,,,,,,,,,,,,,,,,,,,,,,,,,,,,,,,,,,,,,,,,,,,,,,,,,,,,,,,,,,,,,,,,,,,,,,,,,,,,,,,,,,,,,,,,,,,,,,,,,,,,,,,,,,,,,,,,
,,,,,,5ef0932312818b06a0abf52d,629c523ac83985c5b8e0dc5f,2022-06-05_09h00.05.796,Colour_Asymmetry_Pilot,2022.1.3,MacIntel,60.0240096,629c4b6caf241d5e6e00bfc0,0,104,104,85,1,threefour,,,,,,,,,,,,,,,,,,,,,,,,,,,,,,,,,,,,,,,,,,,,,,,,,,,,,,,,,,,,,,,,,,,,,,,,,,,,,,,,,,,,,,,,,,,,,,,,,,,,,,,,,,,,,,,,,,,,,,,,,,,,,,,,,,,,,,,,,,,,,
,,,,,,5ef0932312818b06a0abf52d,629c523ac83985c5b8e0dc5f,2022-06-05_09h00.05.796,Colour_Asymmetry_Pilot,2022.1.3,MacIntel,60.0240096,629c4b6caf241d5e6e00bfc0,0,105,105,154,1,twoone,,,,,,,,,,,,,,,,,,,,,,,,,,,,,,,,,,,,,,,,,,,,,,,,,,,,,,,,,,,,,,,,,,,,,,,,,,,,,,,,,,,,,,,,,,,,,,,,,,,,,,,,,,,,,,,,,,,,,,,,,,,,,,,,,,,,,,,,,,,,,
,,,,,,5ef0932312818b06a0abf52d,629c523ac83985c5b8e0dc5f,2022-06-05_09h00.05.796,Colour_Asymmetry_Pilot,2022.1.3,MacIntel,60.0240096,629c4b6caf241d5e6e00bfc0,0,106,106,3,1,twofour,,,,,,,,,,,,,,,,,,,,,,,,,,,,,,,,,,,,,,,,,,,,,,,,,,,,,,,,,,,,,,,,,,,,,,,,,,,,,,,,,,,,,,,,,,,,,,,,,,,,,,,,,,,,,,,,,,,,,,,,,,,,,,,,,,,,,,,,,,,,,
,,,,,,5ef0932312818b06a0abf52d,629c523ac83985c5b8e0dc5f,2022-06-05_09h00.05.796,Colour_Asymmetry_Pilot,2022.1.3,MacIntel,60.0240096,629c4b6caf241d5e6e00bfc0,0,107,107,159,1,fourthree,,,,,,,,,,,,,,,,,,,,,,,,,,,,,,,,,,,,,,,,,,,,,,,,,,,,,,,,,,,,,,,,,,,,,,,,,,,,,,,,,,,,,,,,,,,,,,,,,,,,,,,,,,,,,,,,,,,,,,,,,,,,,,,,,,,,,,,,,,,,,
,,,,,,5ef0932312818b06a0abf52d,629c523ac83985c5b8e0dc5f,2022-06-05_09h00.05.796,Colour_Asymmetry_Pilot,2022.1.3,MacIntel,60.0240096,629c4b6caf241d5e6e00bfc0,0,108,108,144,1,onetwo,,,,,,,,,,,,,,,,,,,,,,,,,,,,,,,,,,,,,,,,,,,,,,,,,,,,,,,,,,,,,,,,,,,,,,,,,,,,,,,,,,,,,,,,,,,,,,,,,,,,,,,,,,,,,,,,,,,,,,,,,,,,,,,,,,,,,,,,,,,,,
,,,,,,5ef0932312818b06a0abf52d,629c523ac83985c5b8e0dc5f,2022-06-05_09h00.05.796,Colour_Asymmetry_Pilot,2022.1.3,MacIntel,60.0240096,629c4b6caf241d5e6e00bfc0,0,109,109,27,1,twofour,,,,,,,,,,,,,,,,,,,,,,,,,,,,,,,,,,,,,,,,,,,,,,,,,,,,,,,,,,,,,,,,,,,,,,,,,,,,,,,,,,,,,,,,,,,,,,,,,,,,,,,,,,,,,,,,,,,,,,,,,,,,,,,,,,,,,,,,,,,,,
,,,,,,5ef0932312818b06a0abf52d,629c523ac83985c5b8e0dc5f,2022-06-05_09h00.05.796,Colour_Asymmetry_Pilot,2022.1.3,MacIntel,60.0240096,629c4b6caf241d5e6e00bfc0,0,110,110,120,1,onetwo,,,,,,,,,,,,,,,,,,,,,,,,,,,,,,,,,,,,,,,,,,,,,,,,,,,,,,,,,,,,,,,,,,,,,,,,,,,,,,,,,,,,,,,,,,,,,,,,,,,,,,,,,,,,,,,,,,,,,,,,,,,,,,,,,,,,,,,,,,,,,
,,,,,,5ef0932312818b06a0abf52d,629c523ac83985c5b8e0dc5f,2022-06-05_09h00.05.796,Colour_Asymmetry_Pilot,2022.1.3,MacIntel,60.0240096,629c4b6caf241d5e6e00bfc0,0,111,111,44,1,threeone,,,,,,,,,,,,,,,,,,,,,,,,,,,,,,,,,,,,,,,,,,,,,,,,,,,,,,,,,,,,,,,,,,,,,,,,,,,,,,,,,,,,,,,,,,,,,,,,,,,,,,,,,,,,,,,,,,,,,,,,,,,,,,,,,,,,,,,,,,,,,
,,,,,,5ef0932312818b06a0abf52d,629c523ac83985c5b8e0dc5f,2022-06-05_09h00.05.796,Colour_Asymmetry_Pilot,2022.1.3,MacIntel,60.0240096,629c4b6caf241d5e6e00bfc0,0,112,112,19,1,twofour,,,,,,,,,,,,,,,,,,,,,,,,,,,,,,,,,,,,,,,,,,,,,,,,,,,,,,,,,,,,,,,,,,,,,,,,,,,,,,,,,,,,,,,,,,,,,,,,,,,,,,,,,,,,,,,,,,,,,,,,,,,,,,,,,,,,,,,,,,,,,
,,,,,,5ef0932312818b06a0abf52d,629c523ac83985c5b8e0dc5f,2022-06-05_09h00.05.796,Colour_Asymmetry_Pilot,2022.1.3,MacIntel,60.0240096,629c4b6caf241d5e6e00bfc0,0,113,113,43,1,twofour,,,,,,,,,,,,,,,,,,,,,,,,,,,,,,,,,,,,,,,,,,,,,,,,,,,,,,,,,,,,,,,,,,,,,,,,,,,,,,,,,,,,,,,,,,,,,,,,,,,,,,,,,,,,,,,,,,,,,,,,,,,,,,,,,,,,,,,,,,,,,
,,,,,,5ef0932312818b06a0abf52d,629c523ac83985c5b8e0dc5f,2022-06-05_09h00.05.796,Colour_Asymmetry_Pilot,2022.1.3,MacIntel,60.0240096,629c4b6caf241d5e6e00bfc0,0,114,114,91,1,twofour,,,,,,,,,,,,,,,,,,,,,,,,,,,,,,,,,,,,,,,,,,,,,,,,,,,,,,,,,,,,,,,,,,,,,,,,,,,,,,,,,,,,,,,,,,,,,,,,,,,,,,,,,,,,,,,,,,,,,,,,,,,,,,,,,,,,,,,,,,,,,
,,,,,,5ef0932312818b06a0abf52d,629c523ac83985c5b8e0dc5f,2022-06-05_09h00.05.796,Colour_Asymmetry_Pilot,2022.1.3,MacIntel,60.0240096,629c4b6caf241d5e6e00bfc0,0,115,115,104,1,onetwo,,,,,,,,,,,,,,,,,,,,,,,,,,,,,,,,,,,,,,,,,,,,,,,,,,,,,,,,,,,,,,,,,,,,,,,,,,,,,,,,,,,,,,,,,,,,,,,,,,,,,,,,,,,,,,,,,,,,,,,,,,,,,,,,,,,,,,,,,,,,,
,,,,,,5ef0932312818b06a0abf52d,629c523ac83985c5b8e0dc5f,2022-06-05_09h00.05.796,Colour_Asymmetry_Pilot,2022.1.3,MacIntel,60.0240096,629c4b6caf241d5e6e00bfc0,0,116,116,115,1,twofour,,,,,,,,,,,,,,,,,,,,,,,,,,,,,,,,,,,,,,,,,,,,,,,,,,,,,,,,,,,,,,,,,,,,,,,,,,,,,,,,,,,,,,,,,,,,,,,,,,,,,,,,,,,,,,,,,,,,,,,,,,,,,,,,,,,,,,,,,,,,,
,,,,,,5ef0932312818b06a0abf52d,629c523ac83985c5b8e0dc5f,2022-06-05_09h00.05.796,Colour_Asymmetry_Pilot,2022.1.3,MacIntel,60.0240096,629c4b6caf241d5e6e00bfc0,0,117,117,118,1,fourtwo,,,,,,,,,,,,,,,,,,,,,,,,,,,,,,,,,,,,,,,,,,,,,,,,,,,,,,,,,,,,,,,,,,,,,,,,,,,,,,,,,,,,,,,,,,,,,,,,,,,,,,,,,,,,,,,,,,,,,,,,,,,,,,,,,,,,,,,,,,,,,
,,,,,,5ef0932312818b06a0abf52d,629c523ac83985c5b8e0dc5f,2022-06-05_09h00.05.796,Colour_Asymmetry_Pilot,2022.1.3,MacIntel,60.0240096,629c4b6caf241d5e6e00bfc0,0,118,118,69,1,threefour,,,,,,,,,,,,,,,,,,,,,,,,,,,,,,,,,,,,,,,,,,,,,,,,,,,,,,,,,,,,,,,,,,,,,,,,,,,,,,,,,,,,,,,,,,,,,,,,,,,,,,,,,,,,,,,,,,,,,,,,,,,,,,,,,,,,,,,,,,,,,
,,,,,,5ef0932312818b06a0abf52d,629c523ac83985c5b8e0dc5f,2022-06-05_09h00.05.796,Colour_Asymmetry_Pilot,2022.1.3,MacIntel,60.0240096,629c4b6caf241d5e6e00bfc0,0,119,119,64,1,onetwo,,,,,,,,,,,,,,,,,,,,,,,,,,,,,,,,,,,,,,,,,,,,,,,,,,,,,,,,,,,,,,,,,,,,,,,,,,,,,,,,,,,,,,,,,,,,,,,,,,,,,,,,,,,,,,,,,,,,,,,,,,,,,,,,,,,,,,,,,,,,,
,,,,,,5ef0932312818b06a0abf52d,629c523ac83985c5b8e0dc5f,2022-06-05_09h00.05.796,Colour_Asymmetry_Pilot,2022.1.3,MacIntel,60.0240096,629c4b6caf241d5e6e00bfc0,0,120,120,31,1,fourthree,,,,,,,,,,,,,,,,,,,,,,,,,,,,,,,,,,,,,,,,,,,,,,,,,,,,,,,,,,,,,,,,,,,,,,,,,,,,,,,,,,,,,,,,,,,,,,,,,,,,,,,,,,,,,,,,,,,,,,,,,,,,,,,,,,,,,,,,,,,,,
,,,,,,5ef0932312818b06a0abf52d,629c523ac83985c5b8e0dc5f,2022-06-05_09h00.05.796,Colour_Asymmetry_Pilot,2022.1.3,MacIntel,60.0240096,629c4b6caf241d5e6e00bfc0,0,121,121,152,1,onetwo,,,,,,,,,,,,,,,,,,,,,,,,,,,,,,,,,,,,,,,,,,,,,,,,,,,,,,,,,,,,,,,,,,,,,,,,,,,,,,,,,,,,,,,,,,,,,,,,,,,,,,,,,,,,,,,,,,,,,,,,,,,,,,,,,,,,,,,,,,,,,
,,,,,,5ef0932312818b06a0abf52d,629c523ac83985c5b8e0dc5f,2022-06-05_09h00.05.796,Colour_Asymmetry_Pilot,2022.1.3,MacIntel,60.0240096,629c4b6caf241d5e6e00bfc0,0,122,122,37,1,threefour,,,,,,,,,,,,,,,,,,,,,,,,,,,,,,,,,,,,,,,,,,,,,,,,,,,,,,,,,,,,,,,,,,,,,,,,,,,,,,,,,,,,,,,,,,,,,,,,,,,,,,,,,,,,,,,,,,,,,,,,,,,,,,,,,,,,,,,,,,,,,
,,,,,,5ef0932312818b06a0abf52d,629c523ac83985c5b8e0dc5f,2022-06-05_09h00.05.796,Colour_Asymmetry_Pilot,2022.1.3,MacIntel,60.0240096,629c4b6caf241d5e6e00bfc0,0,123,123,21,1,threefour,,,,,,,,,,,,,,,,,,,,,,,,,,,,,,,,,,,,,,,,,,,,,,,,,,,,,,,,,,,,,,,,,,,,,,,,,,,,,,,,,,,,,,,,,,,,,,,,,,,,,,,,,,,,,,,,,,,,,,,,,,,,,,,,,,,,,,,,,,,,,
,,,,,,5ef0932312818b06a0abf52d,629c523ac83985c5b8e0dc5f,2022-06-05_09h00.05.796,Colour_Asymmetry_Pilot,2022.1.3,MacIntel,60.0240096,629c4b6caf241d5e6e00bfc0,0,124,124,39,1,fourthree,,,,,,,,,,,,,,,,,,,,,,,,,,,,,,,,,,,,,,,,,,,,,,,,,,,,,,,,,,,,,,,,,,,,,,,,,,,,,,,,,,,,,,,,,,,,,,,,,,,,,,,,,,,,,,,,,,,,,,,,,,,,,,,,,,,,,,,,,,,,,
,,,,,,5ef0932312818b06a0abf52d,629c523ac83985c5b8e0dc5f,2022-06-05_09h00.05.796,Colour_Asymmetry_Pilot,2022.1.3,MacIntel,60.0240096,629c4b6caf241d5e6e00bfc0,0,125,125,9,1,onethree,,,,,,,,,,,,,,,,,,,,,,,,,,,,,,,,,,,,,,,,,,,,,,,,,,,,,,,,,,,,,,,,,,,,,,,,,,,,,,,,,,,,,,,,,,,,,,,,,,,,,,,,,,,,,,,,,,,,,,,,,,,,,,,,,,,,,,,,,,,,,
,,,,,,5ef0932312818b06a0abf52d,629c523ac83985c5b8e0dc5f,2022-06-05_09h00.05.796,Colour_Asymmetry_Pilot,2022.1.3,MacIntel,60.0240096,629c4b6caf241d5e6e00bfc0,0,126,126,155,1,twofour,,,,,,,,,,,,,,,,,,,,,,,,,,,,,,,,,,,,,,,,,,,,,,,,,,,,,,,,,,,,,,,,,,,,,,,,,,,,,,,,,,,,,,,,,,,,,,,,,,,,,,,,,,,,,,,,,,,,,,,,,,,,,,,,,,,,,,,,,,,,,
,,,,,,5ef0932312818b06a0abf52d,629c523ac83985c5b8e0dc5f,2022-06-05_09h00.05.796,Colour_Asymmetry_Pilot,2022.1.3,MacIntel,60.0240096,629c4b6caf241d5e6e00bfc0,0,127,127,63,1,fourthree,,,,,,,,,,,,,,,,,,,,,,,,,,,,,,,,,,,,,,,,,,,,,,,,,,,,,,,,,,,,,,,,,,,,,,,,,,,,,,,,,,,,,,,,,,,,,,,,,,,,,,,,,,,,,,,,,,,,,,,,,,,,,,,,,,,,,,,,,,,,,
,,,,,,5ef0932312818b06a0abf52d,629c523ac83985c5b8e0dc5f,2022-06-05_09h00.05.796,Colour_Asymmetry_Pilot,2022.1.3,MacIntel,60.0240096,629c4b6caf241d5e6e00bfc0,0,128,128,140,1,threeone,,,,,,,,,,,,,,,,,,,,,,,,,,,,,,,,,,,,,,,,,,,,,,,,,,,,,,,,,,,,,,,,,,,,,,,,,,,,,,,,,,,,,,,,,,,,,,,,,,,,,,,,,,,,,,,,,,,,,,,,,,,,,,,,,,,,,,,,,,,,,
,,,,,,5ef0932312818b06a0abf52d,629c523ac83985c5b8e0dc5f,2022-06-05_09h00.05.796,Colour_Asymmetry_Pilot,2022.1.3,MacIntel,60.0240096,629c4b6caf241d5e6e00bfc0,0,129,129,137,1,onethree,,,,,,,,,,,,,,,,,,,,,,,,,,,,,,,,,,,,,,,,,,,,,,,,,,,,,,,,,,,,,,,,,,,,,,,,,,,,,,,,,,,,,,,,,,,,,,,,,,,,,,,,,,,,,,,,,,,,,,,,,,,,,,,,,,,,,,,,,,,,,
,,,,,,5ef0932312818b06a0abf52d,629c523ac83985c5b8e0dc5f,2022-06-05_09h00.05.796,Colour_Asymmetry_Pilot,2022.1.3,MacIntel,60.0240096,629c4b6caf241d5e6e00bfc0,0,130,130,11,1,twofour,,,,,,,,,,,,,,,,,,,,,,,,,,,,,,,,,,,,,,,,,,,,,,,,,,,,,,,,,,,,,,,,,,,,,,,,,,,,,,,,,,,,,,,,,,,,,,,,,,,,,,,,,,,,,,,,,,,,,,,,,,,,,,,,,,,,,,,,,,,,,
,,,,,,5ef0932312818b06a0abf52d,629c523ac83985c5b8e0dc5f,2022-06-05_09h00.05.796,Colour_Asymmetry_Pilot,2022.1.3,MacIntel,60.0240096,629c4b6caf241d5e6e00bfc0,0,131,131,129,1,onethree,,,,,,,,,,,,,,,,,,,,,,,,,,,,,,,,,,,,,,,,,,,,,,,,,,,,,,,,,,,,,,,,,,,,,,,,,,,,,,,,,,,,,,,,,,,,,,,,,,,,,,,,,,,,,,,,,,,,,,,,,,,,,,,,,,,,,,,,,,,,,
,,,,,,5ef0932312818b06a0abf52d,629c523ac83985c5b8e0dc5f,2022-06-05_09h00.05.796,Colour_Asymmetry_Pilot,2022.1.3,MacIntel,60.0240096,629c4b6caf241d5e6e00bfc0,0,132,132,34,1,twoone,,,,,,,,,,,,,,,,,,,,,,,,,,,,,,,,,,,,,,,,,,,,,,,,,,,,,,,,,,,,,,,,,,,,,,,,,,,,,,,,,,,,,,,,,,,,,,,,,,,,,,,,,,,,,,,,,,,,,,,,,,,,,,,,,,,,,,,,,,,,,
,,,,,,5ef0932312818b06a0abf52d,629c523ac83985c5b8e0dc5f,2022-06-05_09h00.05.796,Colour_Asymmetry_Pilot,2022.1.3,MacIntel,60.0240096,629c4b6caf241d5e6e00bfc0,0,133,133,113,1,onethree,,,,,,,,,,,,,,,,,,,,,,,,,,,,,,,,,,,,,,,,,,,,,,,,,,,,,,,,,,,,,,,,,,,,,,,,,,,,,,,,,,,,,,,,,,,,,,,,,,,,,,,,,,,,,,,,,,,,,,,,,,,,,,,,,,,,,,,,,,,,,
,,,,,,5ef0932312818b06a0abf52d,629c523ac83985c5b8e0dc5f,2022-06-05_09h00.05.796,Colour_Asymmetry_Pilot,2022.1.3,MacIntel,60.0240096,629c4b6caf241d5e6e00bfc0,0,134,134,98,1,twoone,,,,,,,,,,,,,,,,,,,,,,,,,,,,,,,,,,,,,,,,,,,,,,,,,,,,,,,,,,,,,,,,,,,,,,,,,,,,,,,,,,,,,,,,,,,,,,,,,,,,,,,,,,,,,,,,,,,,,,,,,,,,,,,,,,,,,,,,,,,,,
,,,,,,5ef0932312818b06a0abf52d,629c523ac83985c5b8e0dc5f,2022-06-05_09h00.05.796,Colour_Asymmetry_Pilot,2022.1.3,MacIntel,60.0240096,629c4b6caf241d5e6e00bfc0,0,135,135,41,1,onethree,,,,,,,,,,,,,,,,,,,,,,,,,,,,,,,,,,,,,,,,,,,,,,,,,,,,,,,,,,,,,,,,,,,,,,,,,,,,,,,,,,,,,,,,,,,,,,,,,,,,,,,,,,,,,,,,,,,,,,,,,,,,,,,,,,,,,,,,,,,,,
,,,,,,5ef0932312818b06a0abf52d,629c523ac83985c5b8e0dc5f,2022-06-05_09h00.05.796,Colour_Asymmetry_Pilot,2022.1.3,MacIntel,60.0240096,629c4b6caf241d5e6e00bfc0,0,136,136,5,1,threefour,,,,,,,,,,,,,,,,,,,,,,,,,,,,,,,,,,,,,,,,,,,,,,,,,,,,,,,,,,,,,,,,,,,,,,,,,,,,,,,,,,,,,,,,,,,,,,,,,,,,,,,,,,,,,,,,,,,,,,,,,,,,,,,,,,,,,,,,,,,,,
,,,,,,5ef0932312818b06a0abf52d,629c523ac83985c5b8e0dc5f,2022-06-05_09h00.05.796,Colour_Asymmetry_Pilot,2022.1.3,MacIntel,60.0240096,629c4b6caf241d5e6e00bfc0,0,137,137,48,1,onetwo,,,,,,,,,,,,,,,,,,,,,,,,,,,,,,,,,,,,,,,,,,,,,,,,,,,,,,,,,,,,,,,,,,,,,,,,,,,,,,,,,,,,,,,,,,,,,,,,,,,,,,,,,,,,,,,,,,,,,,,,,,,,,,,,,,,,,,,,,,,,,
,,,,,,5ef0932312818b06a0abf52d,629c523ac83985c5b8e0dc5f,2022-06-05_09h00.05.796,Colour_Asymmetry_Pilot,2022.1.3,MacIntel,60.0240096,629c4b6caf241d5e6e00bfc0,0,138,138,114,1,twoone,,,,,,,,,,,,,,,,,,,,,,,,,,,,,,,,,,,,,,,,,,,,,,,,,,,,,,,,,,,,,,,,,,,,,,,,,,,,,,,,,,,,,,,,,,,,,,,,,,,,,,,,,,,,,,,,,,,,,,,,,,,,,,,,,,,,,,,,,,,,,
,,,,,,5ef0932312818b06a0abf52d,629c523ac83985c5b8e0dc5f,2022-06-05_09h00.05.796,Colour_Asymmetry_Pilot,2022.1.3,MacIntel,60.0240096,629c4b6caf241d5e6e00bfc0,0,139,139,122,1,twoone,,,,,,,,,,,,,,,,,,,,,,,,,,,,,,,,,,,,,,,,,,,,,,,,,,,,,,,,,,,,,,,,,,,,,,,,,,,,,,,,,,,,,,,,,,,,,,,,,,,,,,,,,,,,,,,,,,,,,,,,,,,,,,,,,,,,,,,,,,,,,
,,,,,,5ef0932312818b06a0abf52d,629c523ac83985c5b8e0dc5f,2022-06-05_09h00.05.796,Colour_Asymmetry_Pilot,2022.1.3,MacIntel,60.0240096,629c4b6caf241d5e6e00bfc0,0,140,140,17,1,onethree,,,,,,,,,,,,,,,,,,,,,,,,,,,,,,,,,,,,,,,,,,,,,,,,,,,,,,,,,,,,,,,,,,,,,,,,,,,,,,,,,,,,,,,,,,,,,,,,,,,,,,,,,,,,,,,,,,,,,,,,,,,,,,,,,,,,,,,,,,,,,
,,,,,,5ef0932312818b06a0abf52d,629c523ac83985c5b8e0dc5f,2022-06-05_09h00.05.796,Colour_Asymmetry_Pilot,2022.1.3,MacIntel,60.0240096,629c4b6caf241d5e6e00bfc0,0,141,141,143,1,fourthree,,,,,,,,,,,,,,,,,,,,,,,,,,,,,,,,,,,,,,,,,,,,,,,,,,,,,,,,,,,,,,,,,,,,,,,,,,,,,,,,,,,,,,,,,,,,,,,,,,,,,,,,,,,,,,,,,,,,,,,,,,,,,,,,,,,,,,,,,,,,,
,,,,,,5ef0932312818b06a0abf52d,629c523ac83985c5b8e0dc5f,2022-06-05_09h00.05.796,Colour_Asymmetry_Pilot,2022.1.3,MacIntel,60.0240096,629c4b6caf241d5e6e00bfc0,0,142,142,23,1,fourthree,,,,,,,,,,,,,,,,,,,,,,,,,,,,,,,,,,,,,,,,,,,,,,,,,,,,,,,,,,,,,,,,,,,,,,,,,,,,,,,,,,,,,,,,,,,,,,,,,,,,,,,,,,,,,,,,,,,,,,,,,,,,,,,,,,,,,,,,,,,,,
,,,,,,5ef0932312818b06a0abf52d,629c523ac83985c5b8e0dc5f,2022-06-05_09h00.05.796,Colour_Asymmetry_Pilot,2022.1.3,MacIntel,60.0240096,629c4b6caf241d5e6e00bfc0,0,143,143,153,1,onethree,,,,,,,,,,,,,,,,,,,,,,,,,,,,,,,,,,,,,,,,,,,,,,,,,,,,,,,,,,,,,,,,,,,,,,,,,,,,,,,,,,,,,,,,,,,,,,,,,,,,,,,,,,,,,,,,,,,,,,,,,,,,,,,,,,,,,,,,,,,,,
,,,,,,5ef0932312818b06a0abf52d,629c523ac83985c5b8e0dc5f,2022-06-05_09h00.05.796,Colour_Asymmetry_Pilot,2022.1.3,MacIntel,60.0240096,629c4b6caf241d5e6e00bfc0,0,144,144,60,1,threeone,,,,,,,,,,,,,,,,,,,,,,,,,,,,,,,,,,,,,,,,,,,,,,,,,,,,,,,,,,,,,,,,,,,,,,,,,,,,,,,,,,,,,,,,,,,,,,,,,,,,,,,,,,,,,,,,,,,,,,,,,,,,,,,,,,,,,,,,,,,,,
,,,,,,5ef0932312818b06a0abf52d,629c523ac83985c5b8e0dc5f,2022-06-05_09h00.05.796,Colour_Asymmetry_Pilot,2022.1.3,MacIntel,60.0240096,629c4b6caf241d5e6e00bfc0,0,145,145,148,1,threeone,,,,,,,,,,,,,,,,,,,,,,,,,,,,,,,,,,,,,,,,,,,,,,,,,,,,,,,,,,,,,,,,,,,,,,,,,,,,,,,,,,,,,,,,,,,,,,,,,,,,,,,,,,,,,,,,,,,,,,,,,,,,,,,,,,,,,,,,,,,,,
,,,,,,5ef0932312818b06a0abf52d,629c523ac83985c5b8e0dc5f,2022-06-05_09h00.05.796,Colour_Asymmetry_Pilot,2022.1.3,MacIntel,60.0240096,629c4b6caf241d5e6e00bfc0,0,146,146,93,1,threefour,,,,,,,,,,,,,,,,,,,,,,,,,,,,,,,,,,,,,,,,,,,,,,,,,,,,,,,,,,,,,,,,,,,,,,,,,,,,,,,,,,,,,,,,,,,,,,,,,,,,,,,,,,,,,,,,,,,,,,,,,,,,,,,,,,,,,,,,,,,,,
,,,,,,5ef0932312818b06a0abf52d,629c523ac83985c5b8e0dc5f,2022-06-05_09h00.05.796,Colour_Asymmetry_Pilot,2022.1.3,MacIntel,60.0240096,629c4b6caf241d5e6e00bfc0,0,147,147,105,1,onethree,,,,,,,,,,,,,,,,,,,,,,,,,,,,,,,,,,,,,,,,,,,,,,,,,,,,,,,,,,,,,,,,,,,,,,,,,,,,,,,,,,,,,,,,,,,,,,,,,,,,,,,,,,,,,,,,,,,,,,,,,,,,,,,,,,,,,,,,,,,,,
,,,,,,5ef0932312818b06a0abf52d,629c523ac83985c5b8e0dc5f,2022-06-05_09h00.05.796,Colour_Asymmetry_Pilot,2022.1.3,MacIntel,60.0240096,629c4b6caf241d5e6e00bfc0,0,148,148,28,1,threeone,,,,,,,,,,,,,,,,,,,,,,,,,,,,,,,,,,,,,,,,,,,,,,,,,,,,,,,,,,,,,,,,,,,,,,,,,,,,,,,,,,,,,,,,,,,,,,,,,,,,,,,,,,,,,,,,,,,,,,,,,,,,,,,,,,,,,,,,,,,,,
,,,,,,5ef0932312818b06a0abf52d,629c523ac83985c5b8e0dc5f,2022-06-05_09h00.05.796,Colour_Asymmetry_Pilot,2022.1.3,MacIntel,60.0240096,629c4b6caf241d5e6e00bfc0,0,149,149,54,1,fourtwo,,,,,,,,,,,,,,,,,,,,,,,,,,,,,,,,,,,,,,,,,,,,,,,,,,,,,,,,,,,,,,,,,,,,,,,,,,,,,,,,,,,,,,,,,,,,,,,,,,,,,,,,,,,,,,,,,,,,,,,,,,,,,,,,,,,,,,,,,,,,,
,,,,,,5ef0932312818b06a0abf52d,629c523ac83985c5b8e0dc5f,2022-06-05_09h00.05.796,Colour_Asymmetry_Pilot,2022.1.3,MacIntel,60.0240096,629c4b6caf241d5e6e00bfc0,0,150,150,49,1,onethree,,,,,,,,,,,,,,,,,,,,,,,,,,,,,,,,,,,,,,,,,,,,,,,,,,,,,,,,,,,,,,,,,,,,,,,,,,,,,,,,,,,,,,,,,,,,,,,,,,,,,,,,,,,,,,,,,,,,,,,,,,,,,,,,,,,,,,,,,,,,,
,,,,,,5ef0932312818b06a0abf52d,629c523ac83985c5b8e0dc5f,2022-06-05_09h00.05.796,Colour_Asymmetry_Pilot,2022.1.3,MacIntel,60.0240096,629c4b6caf241d5e6e00bfc0,0,151,151,103,1,fourthree,,,,,,,,,,,,,,,,,,,,,,,,,,,,,,,,,,,,,,,,,,,,,,,,,,,,,,,,,,,,,,,,,,,,,,,,,,,,,,,,,,,,,,,,,,,,,,,,,,,,,,,,,,,,,,,,,,,,,,,,,,,,,,,,,,,,,,,,,,,,,
,,,,,,5ef0932312818b06a0abf52d,629c523ac83985c5b8e0dc5f,2022-06-05_09h00.05.796,Colour_Asymmetry_Pilot,2022.1.3,MacIntel,60.0240096,629c4b6caf241d5e6e00bfc0,0,152,152,46,1,fourtwo,,,,,,,,,,,,,,,,,,,,,,,,,,,,,,,,,,,,,,,,,,,,,,,,,,,,,,,,,,,,,,,,,,,,,,,,,,,,,,,,,,,,,,,,,,,,,,,,,,,,,,,,,,,,,,,,,,,,,,,,,,,,,,,,,,,,,,,,,,,,,
,,,,,,5ef0932312818b06a0abf52d,629c523ac83985c5b8e0dc5f,2022-06-05_09h00.05.796,Colour_Asymmetry_Pilot,2022.1.3,MacIntel,60.0240096,629c4b6caf241d5e6e00bfc0,0,153,153,35,1,twofour,,,,,,,,,,,,,,,,,,,,,,,,,,,,,,,,,,,,,,,,,,,,,,,,,,,,,,,,,,,,,,,,,,,,,,,,,,,,,,,,,,,,,,,,,,,,,,,,,,,,,,,,,,,,,,,,,,,,,,,,,,,,,,,,,,,,,,,,,,,,,
,,,,,,5ef0932312818b06a0abf52d,629c523ac83985c5b8e0dc5f,2022-06-05_09h00.05.796,Colour_Asymmetry_Pilot,2022.1.3,MacIntel,60.0240096,629c4b6caf241d5e6e00bfc0,0,154,154,124,1,threeone,,,,,,,,,,,,,,,,,,,,,,,,,,,,,,,,,,,,,,,,,,,,,,,,,,,,,,,,,,,,,,,,,,,,,,,,,,,,,,,,,,,,,,,,,,,,,,,,,,,,,,,,,,,,,,,,,,,,,,,,,,,,,,,,,,,,,,,,,,,,,
,,,,,,5ef0932312818b06a0abf52d,629c523ac83985c5b8e0dc5f,2022-06-05_09h00.05.796,Colour_Asymmetry_Pilot,2022.1.3,MacIntel,60.0240096,629c4b6caf241d5e6e00bfc0,0,155,155,86,1,fourtwo,,,,,,,,,,,,,,,,,,,,,,,,,,,,,,,,,,,,,,,,,,,,,,,,,,,,,,,,,,,,,,,,,,,,,,,,,,,,,,,,,,,,,,,,,,,,,,,,,,,,,,,,,,,,,,,,,,,,,,,,,,,,,,,,,,,,,,,,,,,,,
,,,,,,5ef0932312818b06a0abf52d,629c523ac83985c5b8e0dc5f,2022-06-05_09h00.05.796,Colour_Asymmetry_Pilot,2022.1.3,MacIntel,60.0240096,629c4b6caf241d5e6e00bfc0,0,156,156,68,1,threeone,,,,,,,,,,,,,,,,,,,,,,,,,,,,,,,,,,,,,,,,,,,,,,,,,,,,,,,,,,,,,,,,,,,,,,,,,,,,,,,,,,,,,,,,,,,,,,,,,,,,,,,,,,,,,,,,,,,,,,,,,,,,,,,,,,,,,,,,,,,,,
,,,,,,5ef0932312818b06a0abf52d,629c523ac83985c5b8e0dc5f,2022-06-05_09h00.05.796,Colour_Asymmetry_Pilot,2022.1.3,MacIntel,60.0240096,629c4b6caf241d5e6e00bfc0,0,157,157,7,1,fourthree,,,,,,,,,,,,,,,,,,,,,,,,,,,,,,,,,,,,,,,,,,,,,,,,,,,,,,,,,,,,,,,,,,,,,,,,,,,,,,,,,,,,,,,,,,,,,,,,,,,,,,,,,,,,,,,,,,,,,,,,,,,,,,,,,,,,,,,,,,,,,
,,,,,,5ef0932312818b06a0abf52d,629c523ac83985c5b8e0dc5f,2022-06-05_09h00.05.796,Colour_Asymmetry_Pilot,2022.1.3,MacIntel,60.0240096,629c4b6caf241d5e6e00bfc0,0,158,158,139,1,twofour,,,,,,,,,,,,,,,,,,,,,,,,,,,,,,,,,,,,,,,,,,,,,,,,,,,,,,,,,,,,,,,,,,,,,,,,,,,,,,,,,,,,,,,,,,,,,,,,,,,,,,,,,,,,,,,,,,,,,,,,,,,,,,,,,,,,,,,,,,,,,
,,,,,,5ef0932312818b06a0abf52d,629c523ac83985c5b8e0dc5f,2022-06-05_09h00.05.796,Colour_Asymmetry_Pilot,2022.1.3,MacIntel,60.0240096,629c4b6caf241d5e6e00bfc0,0,159,159,150,1,fourtwo,,,,,,,,,,,,,,,,,,,,,,,,,,,,,,,,,,,,,,,,,,,,,,,,,,,,,,,,,,,,,,,,,,,,,,,,,,,,,,,,,,,,,,,,,,,,,,,,,,,,,,,,,,,,,,,,,,,,,,,,,,,,,,,,,,,,,,,,,,,,,
,,,,,,5ef0932312818b06a0abf52d,629c523ac83985c5b8e0dc5f,2022-06-05_09h00.05.796,Colour_Asymmetry_Pilot,2022.1.3,MacIntel,60.0240096,629c4b6caf241d5e6e00bfc0,0,160,160,45,1,threefour,,,,,,,,,,,,,,,,,,,,,,,,,,,,,,,,,,,,,,,,,,,,,,,,,,,,,,,,,,,,,,,,,,,,,,,,,,,,,,,,,,,,,,,,,,,,,,,,,,,,,,,,,,,,,,,,,,,,,,,,,,,,,,,,,,,,,,,,,,,,,
,,,,,,5ef0932312818b06a0abf52d,629c523ac83985c5b8e0dc5f,2022-06-05_09h00.05.796,Colour_Asymmetry_Pilot,2022.1.3,MacIntel,60.0240096,629c4b6caf241d5e6e00bfc0,0,161,161,56,1,onetwo,,,,,,,,,,,,,,,,,,,,,,,,,,,,,,,,,,,,,,,,,,,,,,,,,,,,,,,,,,,,,,,,,,,,,,,,,,,,,,,,,,,,,,,,,,,,,,,,,,,,,,,,,,,,,,,,,,,,,,,,,,,,,,,,,,,,,,,,,,,,,
,,,,,,5ef0932312818b06a0abf52d,629c523ac83985c5b8e0dc5f,2022-06-05_09h00.05.796,Colour_Asymmetry_Pilot,2022.1.3,MacIntel,60.0240096,629c4b6caf241d5e6e00bfc0,,,,,,,space,6.57,space,8.682,space,39.174,space,12.316,space,9.786,space,7.35,"[-0.9688,-0.38039999999999996,-0.41979999999999995]",onetwo,"[0.9763999999999999,0.8588,-0.05900000000000005]",-4,7.668,-37,66,1,0,0,response7disk_5,11,4,1,0,0,rectangle_8,63,25,1,0,0,response1disk_7,6,3,-1,2,1,0,0,rectangle_4,0,0,0,0,1,,,,,,,,,,,,,,,,,,,,,,,,,,,,,,,,,,,,,,,,,,,,,,,,,,,,,,,,,,,,,,,,,,,,,,,,,,,,,,,,,,,,,,,,,,,,,
,,,,,,5ef0932312818b06a0abf52d,629c523ac83985c5b8e0dc5f,2022-06-05_09h00.05.796,Colour_Asymmetry_Pilot,2022.1.3,MacIntel,60.0240096,629c4b6caf241d5e6e00bfc0,,,,,,,,,,,,,,,,,,,"[-0.9138,-0.5296000000000001,-0.5529999999999999]",threeone,"[0.9372,0.9450000000000001,0.8980000000000001]",-3,5.283,-55,34,1,0,0,response7disk_5,-8,-2,1,0,0,rectangle_8,-8,-2,1,0,0,,,3,-8,-2,1,0,0,,1,0,1,0,1,,,,,,,,,,,,,,,,,,,,,,,,,,,,,,,,,,,,,,,,,,,,,,,,,,,,,,,,,,,,,,,,,,,,,,,,,,,,,,,,,,,,,,,,,,,,,
,,,,,,5ef0932312818b06a0abf52d,629c523ac83985c5b8e0dc5f,2022-06-05_09h00.05.796,Colour_Asymmetry_Pilot,2022.1.3,MacIntel,60.0240096,629c4b6caf241d5e6e00bfc0,,,,,,,,,,,,,,,,,,,"[0.12939999999999996,-0.2864,0.3253999999999999]",fourthree,"[-0.4668,-0.8746,-0.2942]",1,3.351,31,-66,1,0,0,response3disk_5,2,-4,1,0,0,rectangle_8,2,-4,1,0,0,,,3,2,-4,1,0,0,,2,0,2,0,1,,,,,,,,,,,,,,,,,,,,,,,,,,,,,,,,,,,,,,,,,,,,,,,,,,,,,,,,,,,,,,,,,,,,,,,,,,,,,,,,,,,,,,,,,,,,,
,,,,,,5ef0932312818b06a0abf52d,629c523ac83985c5b8e0dc5f,2022-06-05_09h00.05.796,Colour_Asymmetry_Pilot,2022.1.3,MacIntel,60.0240096,629c4b6caf241d5e6e00bfc0,,,,,,,,,,,,,,,,,,,"[-0.4276,0.0038000000000000256,-0.3256]",threefour,"[-0.0040000000000000036,0.02739999999999987,-0.08239999999999992]",-1,4.652,-17,-53,1,0,0,response5disk_5,16,-12,1,0,0,rectangle_8,16,-12,1,0,0,,5,3,16,-12,1,0,0,,3,0,3,0,1,,,,,,,,,,,,,,,,,,,,,,,,,,,,,,,,,,,,,,,,,,,,,,,,,,,,,,,,,,,,,,,,,,,,,,,,,,,,,,,,,,,,,,,,,,,,,
,,,,,,5ef0932312818b06a0abf52d,629c523ac83985c5b8e0dc5f,2022-06-05_09h00.05.796,Colour_Asymmetry_Pilot,2022.1.3,MacIntel,60.0240096,629c4b6caf241d5e6e00bfc0,,,,,,,,,,,,,,,,,,,"[-0.7412000000000001,-0.08239999999999992,-0.6864]",onetwo,"[-0.5452,-0.608,0.2470000000000001]",-4,3.3,-20,63,1,0,0,response7disk_5,17,-3,1,0,0,rectangle_8,17,-3,1,0,0,,,3,17,-3,1,0,0,,4,0,4,0,1,,,,,,,,,,,,,,,,,,,,,,,,,,,,,,,,,,,,,,,,,,,,,,,,,,,,,,,,,,,,,,,,,,,,,,,,,,,,,,,,,,,,,,,,,,,,,
,,,,,,5ef0932312818b06a0abf52d,629c523ac83985c5b8e0dc5f,2022-06-05_09h00.05.796,Colour_Asymmetry_Pilot,2022.1.3,MacIntel,60.0240096,629c4b6caf241d5e6e00bfc0,,,,,,,,,,,,,,,,,,,"[0.7802,-0.23140000000000005,-0.20799999999999996]",twoone,"[-0.2942,-0.7648,-0.7492000000000001]",1,1.467,39,-61,1,0,0,response3disk_5,-14,-7,1,0,0,rectangle_8,-14,-7,1,0,0,,,3,-14,-7,1,0,0,,5,0,5,0,1,,,,,,,,,,,,,,,,,,,,,,,,,,,,,,,,,,,,,,,,,,,,,,,,,,,,,,,,,,,,,,,,,,,,,,,,,,,,,,,,,,,,,,,,,,,,,
,,,,,,5ef0932312818b06a0abf52d,629c523ac83985c5b8e0dc5f,2022-06-05_09h00.05.796,Colour_Asymmetry_Pilot,2022.1.3,MacIntel,60.0240096,629c4b6caf241d5e6e00bfc0,,,,,,,,,,,,,,,,,,,"[0.37240000000000006,0.4980000000000002,-0.2864]",threefour,"[-0.4668,-0.8746,-0.2942]",-4,2.5,-31,55,1,0,0,response7disk_5,-11,5,1,0,0,rectangle_8,-11,5,1,0,0,,,3,-11,5,1,0,0,,6,0,6,0,1,,,,,,,,,,,,,,,,,,,,,,,,,,,,,,,,,,,,,,,,,,,,,,,,,,,,,,,,,,,,,,,,,,,,,,,,,,,,,,,,,,,,,,,,,,,,,
,,,,,,5ef0932312818b06a0abf52d,629c523ac83985c5b8e0dc5f,2022-06-05_09h00.05.796,Colour_Asymmetry_Pilot,2022.1.3,MacIntel,60.0240096,629c4b6caf241d5e6e00bfc0,,,,,,,,,,,,,,,,,,,,threeone,,-1,1.383,,,,,,,,,,,,,,,,,,,,,,,,,,,,,,,,space,7.974,"[0.4196,0.4665999999999999,0.3568]","[-0.17659999999999998,0.3253999999999999,0.19999999999999996]",-22,-52,1,0,0,response5disk,7,-1,1,0,0,rectangle,7,-1,1,0,0,,2,0.003,0,7,-1,1,0,0,0,0,0,116,1,35,second,,,,,,,,,,,,,,,,,,,,,,,,,,,,,,,,,,,,,,,,,,,,,,,,,,,,,,,,
,,,,,,5ef0932312818b06a0abf52d,629c523ac83985c5b8e0dc5f,2022-06-05_09h00.05.796,Colour_Asymmetry_Pilot,2022.1.3,MacIntel,60.0240096,629c4b6caf241d5e6e00bfc0,,,,,,,,,,,,,,,,,,,,onetwo,,-3,1.917,,,,,,,,,,,,,,,,,,,,,,,,,,,,,,,,,,"[-0.45899999999999996,-0.3256,-0.9374]","[-0.9766,-0.34920000000000007,0.2156]",-46,27,1,0,0,response7disk,-2,-2,1,0,0,rectangle,-2,-2,1,0,0,,3,0.002,0,-2,-2,1,0,0,0,1,1,37,1,37,first,,,,,,,,,,,,,,,,,,,,,,,,,,,,,,,,,,,,,,,,,,,,,,,,,,,,,,,,
,,,,,,5ef0932312818b06a0abf52d,629c523ac83985c5b8e0dc5f,2022-06-05_09h00.05.796,Colour_Asymmetry_Pilot,2022.1.3,MacIntel,60.0240096,629c4b6caf241d5e6e00bfc0,,,,,,,,,,,,,,,,,,,,fourtwo,,-4,0.55,,,,,,,,,,,,,,,,,,,,,,,,,,,,,,,,,,"[0.7018,0.7802,-0.16079999999999994]","[-0.6942,-0.7648,-0.12959999999999994]",-21,64,1,0,0,response7disk,6,14,1,0,0,rectangle,6,14,1,0,0,,3,0,0,6,14,1,0,0,0,2,2,81,1,0,second,,,,,,,,,,,,,,,,,,,,,,,,,,,,,,,,,,,,,,,,,,,,,,,,,,,,,,,,
,,,,,,5ef0932312818b06a0abf52d,629c523ac83985c5b8e0dc5f,2022-06-05_09h00.05.796,Colour_Asymmetry_Pilot,2022.1.3,MacIntel,60.0240096,629c4b6caf241d5e6e00bfc0,,,,,,,,,,,,,,,,,,,,fourthree,,-4,0.634,,,,,,,,,,,,,,,,,,,,,,,,,,,,,,,,,,"[-0.050999999999999934,-0.6706000000000001,-0.804]","[-0.2942,-0.24719999999999998,-0.357]",-19,63,1,0,0,response7disk,12,12,1,0,0,rectangle,12,12,1,0,0,4,1,0.001,0,12,12,1,0,0,0,3,3,71,1,71,first,,,,,,,,,,,,,,,,,,,,,,,,,,,,,,,,,,,,,,,,,,,,,,,,,,,,,,,,
,,,,,,5ef0932312818b06a0abf52d,629c523ac83985c5b8e0dc5f,2022-06-05_09h00.05.796,Colour_Asymmetry_Pilot,2022.1.3,MacIntel,60.0240096,629c4b6caf241d5e6e00bfc0,,,,,,,,,,,,,,,,,,,,onetwo,,-4,0.533,,,,,,,,,,,,,,,,,,,,,,,,,,,,,,,,,,"[-0.6,0.16860000000000008,0.44300000000000006]","[0.9763999999999999,-0.1137999999999999,-0.6314]",-24,56,1,0,0,response7disk,11,-6,1,0,0,rectangle,11,-6,1,0,0,4,2,0.001,0,11,-6,1,0,0,0,4,4,48,1,48,first,,,,,,,,,,,,,,,,,,,,,,,,,,,,,,,,,,,,,,,,,,,,,,,,,,,,,,,,
,,,,,,5ef0932312818b06a0abf52d,629c523ac83985c5b8e0dc5f,2022-06-05_09h00.05.796,Colour_Asymmetry_Pilot,2022.1.3,MacIntel,60.0240096,629c4b6caf241d5e6e00bfc0,,,,,,,,,,,,,,,,,,,,twoone,,-4,1.234,,,,,,,,,,,,,,,,,,,,,,,,,,,,,,,,,,"[0.796,0.2156,-0.27859999999999996]","[0.05879999999999996,0.2784,0.5841999999999998]",-35,58,1,0,0,response7disk,-6,7,1,0,0,rectangle,-6,7,1,0,0,4,3,0.001,0,-6,7,1,0,0,0,5,5,30,1,30,first,,,,,,,,,,,,,,,,,,,,,,,,,,,,,,,,,,,,,,,,,,,,,,,,,,,,,,,,
,,,,,,5ef0932312818b06a0abf52d,629c523ac83985c5b8e0dc5f,2022-06-05_09h00.05.796,Colour_Asymmetry_Pilot,2022.1.3,MacIntel,60.0240096,629c4b6caf241d5e6e00bfc0,,,,,,,,,,,,,,,,,,,,onetwo,,-1,2.1,,,,,,,,,,,,,,,,,,,,,,,,,,,,,,,,,,"[-0.9138,-0.5296000000000001,-0.5529999999999999]","[0.34099999999999997,0.5841999999999998,-0.9844]",-28,-56,1,0,0,response5disk,-2,14,1,0,0,rectangle,-2,14,1,0,0,4,2,0.001,0,-2,14,1,0,0,0,6,6,24,1,24,first,,,,,,,,,,,,,,,,,,,,,,,,,,,,,,,,,,,,,,,,,,,,,,,,,,,,,,,,
,,,,,,5ef0932312818b06a0abf52d,629c523ac83985c5b8e0dc5f,2022-06-05_09h00.05.796,Colour_Asymmetry_Pilot,2022.1.3,MacIntel,60.0240096,629c4b6caf241d5e6e00bfc0,,,,,,,,,,,,,,,,,,,,threeone,,-4,0.5,,,,,,,,,,,,,,,,,,,,,,,,,,,,,,,,,,"[-0.30200000000000005,0.14500000000000002,0.2784]","[-0.06680000000000008,-0.45100000000000007,-0.906]",-23,56,1,0,0,response7disk,6,2,1,0,0,rectangle,6,2,1,0,0,4,3,0.001,0,6,2,1,0,0,0,7,7,156,1,75,second,,,,,,,,,,,,,,,,,,,,,,,,,,,,,,,,,,,,,,,,,,,,,,,,,,,,,,,,
,,,,,,5ef0932312818b06a0abf52d,629c523ac83985c5b8e0dc5f,2022-06-05_09h00.05.796,Colour_Asymmetry_Pilot,2022.1.3,MacIntel,60.0240096,629c4b6caf241d5e6e00bfc0,,,,,,,,,,,,,,,,,,,,threefour,,-4,0.517,,,,,,,,,,,,,,,,,,,,,,,,,,,,,,,,,,"[0.34099999999999997,0.5841999999999998,-0.9844]","[-0.9138,-0.5296000000000001,-0.5529999999999999]",-36,65,1,0,0,response7disk,13,3,1,0,0,rectangle,13,3,1,0,0,4,3,0,0,13,3,1,0,0,0,8,8,105,1,24,second,,,,,,,,,,,,,,,,,,,,,,,,,,,,,,,,,,,,,,,,,,,,,,,,,,,,,,,,
,,,,,,5ef0932312818b06a0abf52d,629c523ac83985c5b8e0dc5f,2022-06-05_09h00.05.796,Colour_Asymmetry_Pilot,2022.1.3,MacIntel,60.0240096,629c4b6caf241d5e6e00bfc0,,,,,,,,,,,,,,,,,,,,fourtwo,,-4,0.716,,,,,,,,,,,,,,,,,,,,,,,,,,,,,,,,,,"[-0.5922000000000001,-0.7492000000000001,-0.5296000000000001]","[0.37240000000000006,-0.050999999999999934,-0.5216]",-21,60,1,0,0,response7disk,10,4,1,0,0,rectangle,10,4,1,0,0,4,2,0.001,0,10,4,1,0,0,0,9,9,4,1,4,first,,,,,,,,,,,,,,,,,,,,,,,,,,,,,,,,,,,,,,,,,,,,,,,,,,,,,,,,
,,,,,,5ef0932312818b06a0abf52d,629c523ac83985c5b8e0dc5f,2022-06-05_09h00.05.796,Colour_Asymmetry_Pilot,2022.1.3,MacIntel,60.0240096,629c4b6caf241d5e6e00bfc0,,,,,,,,,,,,,,,,,,,,twoone,,-4,0.384,,,,,,,,,,,,,,,,,,,,,,,,,,,,,,,,,,"[0.3802000000000001,0.19199999999999995,-0.6394]","[-0.4668,-0.8746,-0.2942]",-34,59,1,0,0,response7disk,-9,5,1,0,0,rectangle,-9,5,1,0,0,4,3,0.001,0,-9,5,1,0,0,0,10,10,38,1,38,first,,,,,,,,,,,,,,,,,,,,,,,,,,,,,,,,,,,,,,,,,,,,,,,,,,,,,,,,
,,,,,,5ef0932312818b06a0abf52d,629c523ac83985c5b8e0dc5f,2022-06-05_09h00.05.796,Colour_Asymmetry_Pilot,2022.1.3,MacIntel,60.0240096,629c4b6caf241d5e6e00bfc0,,,,,,,,,,,,,,,,,,,,twoone,,-4,0.583,,,,,,,,,,,,,,,,,,,,,,,,,,,,,,,,,,"[-0.6235999999999999,-0.6786,-0.08239999999999992]","[0.37240000000000006,0.4980000000000002,-0.2864]",-35,69,1,0,0,response7disk,-12,14,1,0,0,rectangle,-12,14,1,0,0,-4,1,0.002,0,-12,14,1,0,0,0,11,11,135,1,54,second,,,,,,,,,,,,,,,,,,,,,,,,,,,,,,,,,,,,,,,,,,,,,,,,,,,,,,,,
,,,,,,5ef0932312818b06a0abf52d,629c523ac83985c5b8e0dc5f,2022-06-05_09h00.05.796,Colour_Asymmetry_Pilot,2022.1.3,MacIntel,60.0240096,629c4b6caf241d5e6e00bfc0,,,,,,,,,,,,,,,,,,,,fourtwo,,-4,0.685,,,,,,,,,,,,,,,,,,,,,,,,,,,,,,,,,,"[0.9763999999999999,0.8588,-0.05900000000000005]","[0.3881999999999999,-0.23939999999999995,-0.05040000000000011]",-29,43,1,0,0,response7disk,-13,11,1,0,0,rectangle,-13,11,1,0,0,-3,3,0.002,0,-13,11,1,0,0,0,12,12,60,1,60,first,,,,,,,,,,,,,,,,,,,,,,,,,,,,,,,,,,,,,,,,,,,,,,,,,,,,,,,,
,,,,,,5ef0932312818b06a0abf52d,629c523ac83985c5b8e0dc5f,2022-06-05_09h00.05.796,Colour_Asymmetry_Pilot,2022.1.3,MacIntel,60.0240096,629c4b6caf241d5e6e00bfc0,,,,,,,,,,,,,,,,,,,,onethree,,-4,0.415,,,,,,,,,,,,,,,,,,,,,,,,,,,,,,,,,,"[-0.4668,-0.8746,-0.2942]","[0.3802000000000001,0.19199999999999995,-0.6394]",-40,61,1,0,0,response7disk,3,-5,1,0,0,rectangle,3,-5,1,0,0,-3,3,0.001,0,3,-5,1,0,0,0,13,13,119,1,38,second,,,,,,,,,,,,,,,,,,,,,,,,,,,,,,,,,,,,,,,,,,,,,,,,,,,,,,,,
,,,,,,5ef0932312818b06a0abf52d,629c523ac83985c5b8e0dc5f,2022-06-05_09h00.05.796,Colour_Asymmetry_Pilot,2022.1.3,MacIntel,60.0240096,629c4b6caf241d5e6e00bfc0,,,,,,,,,,,,,,,,,,,,onethree,,-4,0.617,,,,,,,,,,,,,,,,,,,,,,,,,,,,,,,,,,"[0.8115999999999999,-0.0040000000000000036,-0.09819999999999995]","[-0.7412000000000001,-0.08239999999999992,-0.6864]",-20,52,1,0,0,response7disk,7,1,1,0,0,rectangle,7,1,1,0,0,-3,1,0.001,0,7,1,1,0,0,0,14,14,120,1,39,second,,,,,,,,,,,,,,,,,,,,,,,,,,,,,,,,,,,,,,,,,,,,,,,,,,,,,,,,
,,,,,,5ef0932312818b06a0abf52d,629c523ac83985c5b8e0dc5f,2022-06-05_09h00.05.796,Colour_Asymmetry_Pilot,2022.1.3,MacIntel,60.0240096,629c4b6caf241d5e6e00bfc0,,,,,,,,,,,,,,,,,,,,fourthree,,-3,0.95,,,,,,,,,,,,,,,,,,,,,,,,,,,,,,,,,,"[-0.011800000000000033,-0.906,-0.45100000000000007]","[-0.4746,-0.0354000000000001,0.5449999999999999]",-49,22,1,0,0,response7disk,-14,4,1,0,0,rectangle,-14,4,1,0,0,-3,3,0.001,0,-14,4,1,0,0,0,15,15,94,1,13,second,,,,,,,,,,,,,,,,,,,,,,,,,,,,,,,,,,,,,,,,,,,,,,,,,,,,,,,,
,,,,,,5ef0932312818b06a0abf52d,629c523ac83985c5b8e0dc5f,2022-06-05_09h00.05.796,Colour_Asymmetry_Pilot,2022.1.3,MacIntel,60.0240096,629c4b6caf241d5e6e00bfc0,,,,,,,,,,,,,,,,,,,,threeone,,1,1.134,,,,,,,,,,,,,,,,,,,,,,,,,,,,,,,,,,"[0.9372,0.20779999999999998,0.2704]","[-0.34920000000000007,-0.702,-0.5216]",26,-56,1,0,0,response3disk,0,-7,1,0,0,rectangle,0,-7,1,0,0,-3,1,0.002,0,0,-7,1,0,0,0,16,16,67,1,67,first,,,,,,,,,,,,,,,,,,,,,,,,,,,,,,,,,,,,,,,,,,,,,,,,,,,,,,,,
,,,,,,5ef0932312818b06a0abf52d,629c523ac83985c5b8e0dc5f,2022-06-05_09h00.05.796,Colour_Asymmetry_Pilot,2022.1.3,MacIntel,60.0240096,629c4b6caf241d5e6e00bfc0,,,,,,,,,,,,,,,,,,,,fourthree,,-4,0.634,,,,,,,,,,,,,,,,,,,,,,,,,,,,,,,,,,"[-0.9216,-0.5529999999999999,-0.3962]","[0.6547999999999998,-0.043199999999999905,-0.011800000000000033]",-33,63,1,0,0,response7disk,-2,6,1,0,0,rectangle,-2,6,1,0,0,-3,2,0.001,0,-2,6,1,0,0,0,17,17,114,1,33,second,,,,,,,,,,,,,,,,,,,,,,,,,,,,,,,,,,,,,,,,,,,,,,,,,,,,,,,,
,,,,,,5ef0932312818b06a0abf52d,629c523ac83985c5b8e0dc5f,2022-06-05_09h00.05.796,Colour_Asymmetry_Pilot,2022.1.3,MacIntel,60.0240096,629c4b6caf241d5e6e00bfc0,,,,,,,,,,,,,,,,,,,,onetwo,,-4,0.384,,,,,,,,,,,,,,,,,,,,,,,,,,,,,,,,,,"[0.3802000000000001,0.19199999999999995,-0.6394]","[-0.6235999999999999,-0.6786,-0.08239999999999992]",-21,46,1,0,0,response7disk,11,-3,1,0,0,rectangle,67,21,1,0,0,3,3,2.198,1,-11,-8,1,0,0,0,18,18,161,1,80,second,response1disk_3,rectangle,,,,,,,,,,,,,,,,,,,,,,,,,,,,,,,,,,,,,,,,,,,,,,,,,,,,,,
,,,,,,5ef0932312818b06a0abf52d,629c523ac83985c5b8e0dc5f,2022-06-05_09h00.05.796,Colour_Asymmetry_Pilot,2022.1.3,MacIntel,60.0240096,629c4b6caf241d5e6e00bfc0,,,,,,,,,,,,,,,,,,,,fourtwo,,-4,0.867,,,,,,,,,,,,,,,,,,,,,,,,,,,,,,,,,,"[-0.5922000000000001,-0.7492000000000001,-0.5296000000000001]","[0.3568,-0.20799999999999996,-0.9844]",-31,78,1,0,0,response7disk,12,7,1,0,0,rectangle,12,7,1,0,0,3,2,0.001,0,12,7,1,0,0,0,19,19,34,1,34,first,,,,,,,,,,,,,,,,,,,,,,,,,,,,,,,,,,,,,,,,,,,,,,,,,,,,,,,,
,,,,,,5ef0932312818b06a0abf52d,629c523ac83985c5b8e0dc5f,2022-06-05_09h00.05.796,Colour_Asymmetry_Pilot,2022.1.3,MacIntel,60.0240096,629c4b6caf241d5e6e00bfc0,,,,,,,,,,,,,,,,,,,,fourthree,,-4,0.684,,,,,,,,,,,,,,,,,,,,,,,,,,,,,,,,,,"[0.04299999999999993,0.16060000000000008,-0.6628000000000001]","[-0.01980000000000004,-0.5138,-0.38039999999999996]",-27,64,1,0,0,response7disk,4,7,1,0,0,rectangle,4,7,1,0,0,3,2,0,0,4,7,1,0,0,0,20,20,77,1,77,first,,,,,,,,,,,,,,,,,,,,,,,,,,,,,,,,,,,,,,,,,,,,,,,,,,,,,,,,
,,,,,,5ef0932312818b06a0abf52d,629c523ac83985c5b8e0dc5f,2022-06-05_09h00.05.796,Colour_Asymmetry_Pilot,2022.1.3,MacIntel,60.0240096,629c4b6caf241d5e6e00bfc0,,,,,,,,,,,,,,,,,,,,threefour,,-2,1.167,,,,,,,,,,,,,,,,,,,,,,,,,,,,,,,,,,"[0.2862,0.7802,0.3568]","[0.23920000000000008,0.2704,0.16060000000000008]",-47,-33,1,0,0,response5disk,-4,-6,1,0,0,rectangle,-4,-6,1,0,0,3,3,0.001,0,-4,-6,1,0,0,0,21,21,14,1,14,first,,,,,,,,,,,,,,,,,,,,,,,,,,,,,,,,,,,,,,,,,,,,,,,,,,,,,,,,
,,,,,,5ef0932312818b06a0abf52d,629c523ac83985c5b8e0dc5f,2022-06-05_09h00.05.796,Colour_Asymmetry_Pilot,2022.1.3,MacIntel,60.0240096,629c4b6caf241d5e6e00bfc0,,,,,,,,,,,,,,,,,,,,twoone,,3,1.25,,,,,,,,,,,,,,,,,,,,,,,,,,,,,,,,,,"[0.3802000000000001,0.19199999999999995,-0.6394]","[0.9842,0.7409999999999999,-0.6628000000000001]",54,21,1,0,0,response1disk,-13,3,1,0,0,rectangle,-13,3,1,0,0,3,3,0.001,0,-13,3,1,0,0,0,22,22,40,1,40,first,,,,,,,,,,,,,,,,,,,,,,,,,,,,,,,,,,,,,,,,,,,,,,,,,,,,,,,,
,,,,,,5ef0932312818b06a0abf52d,629c523ac83985c5b8e0dc5f,2022-06-05_09h00.05.796,Colour_Asymmetry_Pilot,2022.1.3,MacIntel,60.0240096,629c4b6caf241d5e6e00bfc0,,,,,,,,,,,,,,,,,,,,fourtwo,,-1,2.684,,,,,,,,,,,,,,,,,,,,,,,,,,,,,,,,,,"[-0.9844,-0.9688,-0.9922]","[-0.8982,-0.37259999999999993,0.2784]",-14,-65,1,0,0,response5disk,2,15,1,0,0,rectangle,2,15,1,0,0,3,2,0.001,0,2,15,1,0,0,0,23,23,109,1,28,second,,,,,,,,,,,,,,,,,,,,,,,,,,,,,,,,,,,,,,,,,,,,,,,,,,,,,,,,
,,,,,,5ef0932312818b06a0abf52d,629c523ac83985c5b8e0dc5f,2022-06-05_09h00.05.796,Colour_Asymmetry_Pilot,2022.1.3,MacIntel,60.0240096,629c4b6caf241d5e6e00bfc0,,,,,,,,,,,,,,,,,,,,onetwo,,-4,1.633,,,,,,,,,,,,,,,,,,,,,,,,,,,,,,,,,,"[-0.06680000000000008,-0.45100000000000007,-0.906]","[-0.30200000000000005,0.14500000000000002,0.2784]",-25,78,1,0,0,response7disk,6,10,1,0,0,rectangle,6,10,1,0,0,3,3,0.002,0,6,10,1,0,0,0,24,24,75,1,75,first,,,,,,,,,,,,,,,,,,,,,,,,,,,,,,,,,,,,,,,,,,,,,,,,,,,,,,,,
,,,,,,5ef0932312818b06a0abf52d,629c523ac83985c5b8e0dc5f,2022-06-05_09h00.05.796,Colour_Asymmetry_Pilot,2022.1.3,MacIntel,60.0240096,629c4b6caf241d5e6e00bfc0,,,,,,,,,,,,,,,,,,,,threeone,,-1,0.901,,,,,,,,,,,,,,,,,,,,,,,,,,,,,,,,,,"[0.7176,-0.906,-0.6864]","[-0.10599999999999998,-0.15300000000000002,0.15280000000000005]",-25,-63,1,0,0,response5disk,6,-4,1,0,0,rectangle,6,-4,1,0,0,3,1,0.001,0,6,-4,1,0,0,0,25,25,108,1,27,second,,,,,,,,,,,,,,,,,,,,,,,,,,,,,,,,,,,,,,,,,,,,,,,,,,,,,,,,
,,,,,,5ef0932312818b06a0abf52d,629c523ac83985c5b8e0dc5f,2022-06-05_09h00.05.796,Colour_Asymmetry_Pilot,2022.1.3,MacIntel,60.0240096,629c4b6caf241d5e6e00bfc0,,,,,,,,,,,,,,,,,,,,onethree,,-4,1.168,,,,,,,,,,,,,,,,,,,,,,,,,,,,,,,,,,"[-0.4276,0.0038000000000000256,-0.3256]","[0.796,0.2156,-0.27859999999999996]",-39,55,1,0,0,response7disk,-3,-11,1,0,0,rectangle,-3,-11,1,0,0,3,1,0,0,-3,-11,1,0,0,0,26,26,21,1,21,first,,,,,,,,,,,,,,,,,,,,,,,,,,,,,,,,,,,,,,,,,,,,,,,,,,,,,,,,
