trials.thisRepN,trials.thisTrialN,trials.thisN,trials.thisIndex,trials.ran,Colourcodes,participant,session,date,expName,psychopyVersion,OS,frameRate,study_id,trials_4.thisRepN,trials_4.thisTrialN,trials_4.thisN,trials_4.thisIndex,trials_4.ran,StimulusPos,key_resp.keys,key_resp.rt,key_resp_2.keys,key_resp_2.rt,key_resp_15.keys,key_resp_15.rt,key_resp_17.keys,key_resp_17.rt,key_resp_9.keys,key_resp_9.rt,key_resp_10.keys,key_resp_10.rt,Circle1_col,Ecc,Circle2_col,similarity,response_time,mouse_5.x,mouse_5.y,mouse_5.leftButton,mouse_5.midButton,mouse_5.rightButton,mouse_5.clicked_name,mouse_10.x,mouse_10.y,mouse_10.leftButton,mouse_10.midButton,mouse_10.rightButton,mouse_10.clicked_name,mouse_7.x,mouse_7.y,mouse_7.leftButton,mouse_7.midButton,mouse_7.rightButton,catchnumberprac,mouse_6.x,mouse_6.y,mouse_6.leftButton,mouse_6.midButton,mouse_6.rightButton,duringprac.thisRepN,duringprac.thisTrialN,duringprac.thisN,duringprac.thisIndex,duringprac.ran,mouse_7.clicked_name,catchprac,mouse_6.clicked_name,key_resp_22.keys,key_resp_22.rt,Circle1_colour,Circle2_colour,mouse.x,mouse.y,mouse.leftButton,mouse.midButton,mouse.rightButton,mouse.clicked_name,mouse_2.x,mouse_2.y,mouse_2.leftButton,mouse_2.midButton,mouse_2.rightButton,mouse_2.clicked_name,mouse_3.x,mouse_3.y,mouse_3.leftButton,mouse_3.midButton,mouse_3.rightButton,catchresponse,catchnumber,response_time_catch,Catch,mouse_11.x,mouse_11.y,mouse_11.leftButton,mouse_11.midButton,mouse_11.rightButton,trials_2.thisRepN,trials_2.thisTrialN,trials_2.thisN,trials_2.thisIndex,trials_2.ran,Colourpair,Temporder,mouse_3.clicked_name,mouse_11.clicked_name,trials_3.thisRepN,trials_3.thisTrialN,trials_3.thisN,trials_3.thisIndex,trials_3.ran,textbox.text,mouse_4.x,mouse_4.y,mouse_4.leftButton,mouse_4.midButton,mouse_4.rightButton,mouse_4.clicked_name,textbox_2.text,mouse_8.x,mouse_8.y,mouse_8.leftButton,mouse_8.midButton,mouse_8.rightButton,mouse_8.clicked_name,textbox_3.text,mouse_9.x,mouse_9.y,mouse_9.leftButton,mouse_9.midButton,mouse_9.rightButton,mouse_9.clicked_name,textbox_4.text,mouse_12.x,mouse_12.y,mouse_12.leftButton,mouse_12.midButton,mouse_12.rightButton,mouse_12.clicked_name,textbox_5.text,mouse_13.x,mouse_13.y,mouse_13.leftButton,mouse_13.midButton,mouse_13.rightButton,mouse_13.clicked_name,textbox_6.text,mouse_14.x,mouse_14.y,mouse_14.leftButton,mouse_14.midButton,mouse_14.rightButton,mouse_14.clicked_name,textbox_7.text,mouse_15.x,mouse_15.y,mouse_15.leftButton,mouse_15.midButton,mouse_15.rightButton,mouse_15.clicked_name
0,0,0,87,1,,612ba6c594a6d54154a88ae7,629c5a43497162f0a020fbfc,2022-06-05_09h26.24.874,Colour_Asymmetry_Pilot,2022.1.3,Win32,59.99880002,629c4b6caf241d5e6e00bfc0,,,,,,,,,,,,,,,,,,,,,,,,,,,,,,,,,,,,,,,,,,,,,,,,,,,,,,,,,,,,,,,,,,,,,,,,,,,,,,,,,,,,,,,,,,,,,,,,,,,,,,,,,,,,,,,,,,,,,,,,,,,,,,,,,,,,,,,,,,,,,,,,,,,
0,1,1,78,1,,612ba6c594a6d54154a88ae7,629c5a43497162f0a020fbfc,2022-06-05_09h26.24.874,Colour_Asymmetry_Pilot,2022.1.3,Win32,59.99880002,629c4b6caf241d5e6e00bfc0,,,,,,,,,,,,,,,,,,,,,,,,,,,,,,,,,,,,,,,,,,,,,,,,,,,,,,,,,,,,,,,,,,,,,,,,,,,,,,,,,,,,,,,,,,,,,,,,,,,,,,,,,,,,,,,,,,,,,,,,,,,,,,,,,,,,,,,,,,,,,,,,,,,
0,2,2,4,1,,612ba6c594a6d54154a88ae7,629c5a43497162f0a020fbfc,2022-06-05_09h26.24.874,Colour_Asymmetry_Pilot,2022.1.3,Win32,59.99880002,629c4b6caf241d5e6e00bfc0,,,,,,,,,,,,,,,,,,,,,,,,,,,,,,,,,,,,,,,,,,,,,,,,,,,,,,,,,,,,,,,,,,,,,,,,,,,,,,,,,,,,,,,,,,,,,,,,,,,,,,,,,,,,,,,,,,,,,,,,,,,,,,,,,,,,,,,,,,,,,,,,,,,
0,3,3,77,1,,612ba6c594a6d54154a88ae7,629c5a43497162f0a020fbfc,2022-06-05_09h26.24.874,Colour_Asymmetry_Pilot,2022.1.3,Win32,59.99880002,629c4b6caf241d5e6e00bfc0,,,,,,,,,,,,,,,,,,,,,,,,,,,,,,,,,,,,,,,,,,,,,,,,,,,,,,,,,,,,,,,,,,,,,,,,,,,,,,,,,,,,,,,,,,,,,,,,,,,,,,,,,,,,,,,,,,,,,,,,,,,,,,,,,,,,,,,,,,,,,,,,,,,
0,4,4,28,1,,612ba6c594a6d54154a88ae7,629c5a43497162f0a020fbfc,2022-06-05_09h26.24.874,Colour_Asymmetry_Pilot,2022.1.3,Win32,59.99880002,629c4b6caf241d5e6e00bfc0,,,,,,,,,,,,,,,,,,,,,,,,,,,,,,,,,,,,,,,,,,,,,,,,,,,,,,,,,,,,,,,,,,,,,,,,,,,,,,,,,,,,,,,,,,,,,,,,,,,,,,,,,,,,,,,,,,,,,,,,,,,,,,,,,,,,,,,,,,,,,,,,,,,
0,5,5,52,1,,612ba6c594a6d54154a88ae7,629c5a43497162f0a020fbfc,2022-06-05_09h26.24.874,Colour_Asymmetry_Pilot,2022.1.3,Win32,59.99880002,629c4b6caf241d5e6e00bfc0,,,,,,,,,,,,,,,,,,,,,,,,,,,,,,,,,,,,,,,,,,,,,,,,,,,,,,,,,,,,,,,,,,,,,,,,,,,,,,,,,,,,,,,,,,,,,,,,,,,,,,,,,,,,,,,,,,,,,,,,,,,,,,,,,,,,,,,,,,,,,,,,,,,
0,6,6,54,1,,612ba6c594a6d54154a88ae7,629c5a43497162f0a020fbfc,2022-06-05_09h26.24.874,Colour_Asymmetry_Pilot,2022.1.3,Win32,59.99880002,629c4b6caf241d5e6e00bfc0,,,,,,,,,,,,,,,,,,,,,,,,,,,,,,,,,,,,,,,,,,,,,,,,,,,,,,,,,,,,,,,,,,,,,,,,,,,,,,,,,,,,,,,,,,,,,,,,,,,,,,,,,,,,,,,,,,,,,,,,,,,,,,,,,,,,,,,,,,,,,,,,,,,
0,7,7,89,1,,612ba6c594a6d54154a88ae7,629c5a43497162f0a020fbfc,2022-06-05_09h26.24.874,Colour_Asymmetry_Pilot,2022.1.3,Win32,59.99880002,629c4b6caf241d5e6e00bfc0,,,,,,,,,,,,,,,,,,,,,,,,,,,,,,,,,,,,,,,,,,,,,,,,,,,,,,,,,,,,,,,,,,,,,,,,,,,,,,,,,,,,,,,,,,,,,,,,,,,,,,,,,,,,,,,,,,,,,,,,,,,,,,,,,,,,,,,,,,,,,,,,,,,
0,8,8,61,1,,612ba6c594a6d54154a88ae7,629c5a43497162f0a020fbfc,2022-06-05_09h26.24.874,Colour_Asymmetry_Pilot,2022.1.3,Win32,59.99880002,629c4b6caf241d5e6e00bfc0,,,,,,,,,,,,,,,,,,,,,,,,,,,,,,,,,,,,,,,,,,,,,,,,,,,,,,,,,,,,,,,,,,,,,,,,,,,,,,,,,,,,,,,,,,,,,,,,,,,,,,,,,,,,,,,,,,,,,,,,,,,,,,,,,,,,,,,,,,,,,,,,,,,
0,9,9,37,1,,612ba6c594a6d54154a88ae7,629c5a43497162f0a020fbfc,2022-06-05_09h26.24.874,Colour_Asymmetry_Pilot,2022.1.3,Win32,59.99880002,629c4b6caf241d5e6e00bfc0,,,,,,,,,,,,,,,,,,,,,,,,,,,,,,,,,,,,,,,,,,,,,,,,,,,,,,,,,,,,,,,,,,,,,,,,,,,,,,,,,,,,,,,,,,,,,,,,,,,,,,,,,,,,,,,,,,,,,,,,,,,,,,,,,,,,,,,,,,,,,,,,,,,
0,10,10,81,1,,612ba6c594a6d54154a88ae7,629c5a43497162f0a020fbfc,2022-06-05_09h26.24.874,Colour_Asymmetry_Pilot,2022.1.3,Win32,59.99880002,629c4b6caf241d5e6e00bfc0,,,,,,,,,,,,,,,,,,,,,,,,,,,,,,,,,,,,,,,,,,,,,,,,,,,,,,,,,,,,,,,,,,,,,,,,,,,,,,,,,,,,,,,,,,,,,,,,,,,,,,,,,,,,,,,,,,,,,,,,,,,,,,,,,,,,,,,,,,,,,,,,,,,
0,11,11,76,1,,612ba6c594a6d54154a88ae7,629c5a43497162f0a020fbfc,2022-06-05_09h26.24.874,Colour_Asymmetry_Pilot,2022.1.3,Win32,59.99880002,629c4b6caf241d5e6e00bfc0,,,,,,,,,,,,,,,,,,,,,,,,,,,,,,,,,,,,,,,,,,,,,,,,,,,,,,,,,,,,,,,,,,,,,,,,,,,,,,,,,,,,,,,,,,,,,,,,,,,,,,,,,,,,,,,,,,,,,,,,,,,,,,,,,,,,,,,,,,,,,,,,,,,
0,12,12,20,1,,612ba6c594a6d54154a88ae7,629c5a43497162f0a020fbfc,2022-06-05_09h26.24.874,Colour_Asymmetry_Pilot,2022.1.3,Win32,59.99880002,629c4b6caf241d5e6e00bfc0,,,,,,,,,,,,,,,,,,,,,,,,,,,,,,,,,,,,,,,,,,,,,,,,,,,,,,,,,,,,,,,,,,,,,,,,,,,,,,,,,,,,,,,,,,,,,,,,,,,,,,,,,,,,,,,,,,,,,,,,,,,,,,,,,,,,,,,,,,,,,,,,,,,
0,13,13,73,1,,612ba6c594a6d54154a88ae7,629c5a43497162f0a020fbfc,2022-06-05_09h26.24.874,Colour_Asymmetry_Pilot,2022.1.3,Win32,59.99880002,629c4b6caf241d5e6e00bfc0,,,,,,,,,,,,,,,,,,,,,,,,,,,,,,,,,,,,,,,,,,,,,,,,,,,,,,,,,,,,,,,,,,,,,,,,,,,,,,,,,,,,,,,,,,,,,,,,,,,,,,,,,,,,,,,,,,,,,,,,,,,,,,,,,,,,,,,,,,,,,,,,,,,
0,14,14,82,1,,612ba6c594a6d54154a88ae7,629c5a43497162f0a020fbfc,2022-06-05_09h26.24.874,Colour_Asymmetry_Pilot,2022.1.3,Win32,59.99880002,629c4b6caf241d5e6e00bfc0,,,,,,,,,,,,,,,,,,,,,,,,,,,,,,,,,,,,,,,,,,,,,,,,,,,,,,,,,,,,,,,,,,,,,,,,,,,,,,,,,,,,,,,,,,,,,,,,,,,,,,,,,,,,,,,,,,,,,,,,,,,,,,,,,,,,,,,,,,,,,,,,,,,
0,15,15,6,1,,612ba6c594a6d54154a88ae7,629c5a43497162f0a020fbfc,2022-06-05_09h26.24.874,Colour_Asymmetry_Pilot,2022.1.3,Win32,59.99880002,629c4b6caf241d5e6e00bfc0,,,,,,,,,,,,,,,,,,,,,,,,,,,,,,,,,,,,,,,,,,,,,,,,,,,,,,,,,,,,,,,,,,,,,,,,,,,,,,,,,,,,,,,,,,,,,,,,,,,,,,,,,,,,,,,,,,,,,,,,,,,,,,,,,,,,,,,,,,,,,,,,,,,
0,16,16,74,1,,612ba6c594a6d54154a88ae7,629c5a43497162f0a020fbfc,2022-06-05_09h26.24.874,Colour_Asymmetry_Pilot,2022.1.3,Win32,59.99880002,629c4b6caf241d5e6e00bfc0,,,,,,,,,,,,,,,,,,,,,,,,,,,,,,,,,,,,,,,,,,,,,,,,,,,,,,,,,,,,,,,,,,,,,,,,,,,,,,,,,,,,,,,,,,,,,,,,,,,,,,,,,,,,,,,,,,,,,,,,,,,,,,,,,,,,,,,,,,,,,,,,,,,
0,17,17,3,1,,612ba6c594a6d54154a88ae7,629c5a43497162f0a020fbfc,2022-06-05_09h26.24.874,Colour_Asymmetry_Pilot,2022.1.3,Win32,59.99880002,629c4b6caf241d5e6e00bfc0,,,,,,,,,,,,,,,,,,,,,,,,,,,,,,,,,,,,,,,,,,,,,,,,,,,,,,,,,,,,,,,,,,,,,,,,,,,,,,,,,,,,,,,,,,,,,,,,,,,,,,,,,,,,,,,,,,,,,,,,,,,,,,,,,,,,,,,,,,,,,,,,,,,
0,18,18,43,1,,612ba6c594a6d54154a88ae7,629c5a43497162f0a020fbfc,2022-06-05_09h26.24.874,Colour_Asymmetry_Pilot,2022.1.3,Win32,59.99880002,629c4b6caf241d5e6e00bfc0,,,,,,,,,,,,,,,,,,,,,,,,,,,,,,,,,,,,,,,,,,,,,,,,,,,,,,,,,,,,,,,,,,,,,,,,,,,,,,,,,,,,,,,,,,,,,,,,,,,,,,,,,,,,,,,,,,,,,,,,,,,,,,,,,,,,,,,,,,,,,,,,,,,
0,19,19,60,1,,612ba6c594a6d54154a88ae7,629c5a43497162f0a020fbfc,2022-06-05_09h26.24.874,Colour_Asymmetry_Pilot,2022.1.3,Win32,59.99880002,629c4b6caf241d5e6e00bfc0,,,,,,,,,,,,,,,,,,,,,,,,,,,,,,,,,,,,,,,,,,,,,,,,,,,,,,,,,,,,,,,,,,,,,,,,,,,,,,,,,,,,,,,,,,,,,,,,,,,,,,,,,,,,,,,,,,,,,,,,,,,,,,,,,,,,,,,,,,,,,,,,,,,
0,20,20,25,1,,612ba6c594a6d54154a88ae7,629c5a43497162f0a020fbfc,2022-06-05_09h26.24.874,Colour_Asymmetry_Pilot,2022.1.3,Win32,59.99880002,629c4b6caf241d5e6e00bfc0,,,,,,,,,,,,,,,,,,,,,,,,,,,,,,,,,,,,,,,,,,,,,,,,,,,,,,,,,,,,,,,,,,,,,,,,,,,,,,,,,,,,,,,,,,,,,,,,,,,,,,,,,,,,,,,,,,,,,,,,,,,,,,,,,,,,,,,,,,,,,,,,,,,
0,21,21,33,1,,612ba6c594a6d54154a88ae7,629c5a43497162f0a020fbfc,2022-06-05_09h26.24.874,Colour_Asymmetry_Pilot,2022.1.3,Win32,59.99880002,629c4b6caf241d5e6e00bfc0,,,,,,,,,,,,,,,,,,,,,,,,,,,,,,,,,,,,,,,,,,,,,,,,,,,,,,,,,,,,,,,,,,,,,,,,,,,,,,,,,,,,,,,,,,,,,,,,,,,,,,,,,,,,,,,,,,,,,,,,,,,,,,,,,,,,,,,,,,,,,,,,,,,
0,22,22,39,1,,612ba6c594a6d54154a88ae7,629c5a43497162f0a020fbfc,2022-06-05_09h26.24.874,Colour_Asymmetry_Pilot,2022.1.3,Win32,59.99880002,629c4b6caf241d5e6e00bfc0,,,,,,,,,,,,,,,,,,,,,,,,,,,,,,,,,,,,,,,,,,,,,,,,,,,,,,,,,,,,,,,,,,,,,,,,,,,,,,,,,,,,,,,,,,,,,,,,,,,,,,,,,,,,,,,,,,,,,,,,,,,,,,,,,,,,,,,,,,,,,,,,,,,
0,23,23,53,1,,612ba6c594a6d54154a88ae7,629c5a43497162f0a020fbfc,2022-06-05_09h26.24.874,Colour_Asymmetry_Pilot,2022.1.3,Win32,59.99880002,629c4b6caf241d5e6e00bfc0,,,,,,,,,,,,,,,,,,,,,,,,,,,,,,,,,,,,,,,,,,,,,,,,,,,,,,,,,,,,,,,,,,,,,,,,,,,,,,,,,,,,,,,,,,,,,,,,,,,,,,,,,,,,,,,,,,,,,,,,,,,,,,,,,,,,,,,,,,,,,,,,,,,
0,24,24,19,1,,612ba6c594a6d54154a88ae7,629c5a43497162f0a020fbfc,2022-06-05_09h26.24.874,Colour_Asymmetry_Pilot,2022.1.3,Win32,59.99880002,629c4b6caf241d5e6e00bfc0,,,,,,,,,,,,,,,,,,,,,,,,,,,,,,,,,,,,,,,,,,,,,,,,,,,,,,,,,,,,,,,,,,,,,,,,,,,,,,,,,,,,,,,,,,,,,,,,,,,,,,,,,,,,,,,,,,,,,,,,,,,,,,,,,,,,,,,,,,,,,,,,,,,
0,25,25,62,1,,612ba6c594a6d54154a88ae7,629c5a43497162f0a020fbfc,2022-06-05_09h26.24.874,Colour_Asymmetry_Pilot,2022.1.3,Win32,59.99880002,629c4b6caf241d5e6e00bfc0,,,,,,,,,,,,,,,,,,,,,,,,,,,,,,,,,,,,,,,,,,,,,,,,,,,,,,,,,,,,,,,,,,,,,,,,,,,,,,,,,,,,,,,,,,,,,,,,,,,,,,,,,,,,,,,,,,,,,,,,,,,,,,,,,,,,,,,,,,,,,,,,,,,
0,26,26,56,1,,612ba6c594a6d54154a88ae7,629c5a43497162f0a020fbfc,2022-06-05_09h26.24.874,Colour_Asymmetry_Pilot,2022.1.3,Win32,59.99880002,629c4b6caf241d5e6e00bfc0,,,,,,,,,,,,,,,,,,,,,,,,,,,,,,,,,,,,,,,,,,,,,,,,,,,,,,,,,,,,,,,,,,,,,,,,,,,,,,,,,,,,,,,,,,,,,,,,,,,,,,,,,,,,,,,,,,,,,,,,,,,,,,,,,,,,,,,,,,,,,,,,,,,
0,27,27,79,1,,612ba6c594a6d54154a88ae7,629c5a43497162f0a020fbfc,2022-06-05_09h26.24.874,Colour_Asymmetry_Pilot,2022.1.3,Win32,59.99880002,629c4b6caf241d5e6e00bfc0,,,,,,,,,,,,,,,,,,,,,,,,,,,,,,,,,,,,,,,,,,,,,,,,,,,,,,,,,,,,,,,,,,,,,,,,,,,,,,,,,,,,,,,,,,,,,,,,,,,,,,,,,,,,,,,,,,,,,,,,,,,,,,,,,,,,,,,,,,,,,,,,,,,
0,28,28,63,1,,612ba6c594a6d54154a88ae7,629c5a43497162f0a020fbfc,2022-06-05_09h26.24.874,Colour_Asymmetry_Pilot,2022.1.3,Win32,59.99880002,629c4b6caf241d5e6e00bfc0,,,,,,,,,,,,,,,,,,,,,,,,,,,,,,,,,,,,,,,,,,,,,,,,,,,,,,,,,,,,,,,,,,,,,,,,,,,,,,,,,,,,,,,,,,,,,,,,,,,,,,,,,,,,,,,,,,,,,,,,,,,,,,,,,,,,,,,,,,,,,,,,,,,
0,29,29,27,1,,612ba6c594a6d54154a88ae7,629c5a43497162f0a020fbfc,2022-06-05_09h26.24.874,Colour_Asymmetry_Pilot,2022.1.3,Win32,59.99880002,629c4b6caf241d5e6e00bfc0,,,,,,,,,,,,,,,,,,,,,,,,,,,,,,,,,,,,,,,,,,,,,,,,,,,,,,,,,,,,,,,,,,,,,,,,,,,,,,,,,,,,,,,,,,,,,,,,,,,,,,,,,,,,,,,,,,,,,,,,,,,,,,,,,,,,,,,,,,,,,,,,,,,
0,30,30,26,1,,612ba6c594a6d54154a88ae7,629c5a43497162f0a020fbfc,2022-06-05_09h26.24.874,Colour_Asymmetry_Pilot,2022.1.3,Win32,59.99880002,629c4b6caf241d5e6e00bfc0,,,,,,,,,,,,,,,,,,,,,,,,,,,,,,,,,,,,,,,,,,,,,,,,,,,,,,,,,,,,,,,,,,,,,,,,,,,,,,,,,,,,,,,,,,,,,,,,,,,,,,,,,,,,,,,,,,,,,,,,,,,,,,,,,,,,,,,,,,,,,,,,,,,
0,31,31,84,1,,612ba6c594a6d54154a88ae7,629c5a43497162f0a020fbfc,2022-06-05_09h26.24.874,Colour_Asymmetry_Pilot,2022.1.3,Win32,59.99880002,629c4b6caf241d5e6e00bfc0,,,,,,,,,,,,,,,,,,,,,,,,,,,,,,,,,,,,,,,,,,,,,,,,,,,,,,,,,,,,,,,,,,,,,,,,,,,,,,,,,,,,,,,,,,,,,,,,,,,,,,,,,,,,,,,,,,,,,,,,,,,,,,,,,,,,,,,,,,,,,,,,,,,
0,32,32,64,1,,612ba6c594a6d54154a88ae7,629c5a43497162f0a020fbfc,2022-06-05_09h26.24.874,Colour_Asymmetry_Pilot,2022.1.3,Win32,59.99880002,629c4b6caf241d5e6e00bfc0,,,,,,,,,,,,,,,,,,,,,,,,,,,,,,,,,,,,,,,,,,,,,,,,,,,,,,,,,,,,,,,,,,,,,,,,,,,,,,,,,,,,,,,,,,,,,,,,,,,,,,,,,,,,,,,,,,,,,,,,,,,,,,,,,,,,,,,,,,,,,,,,,,,
0,33,33,0,1,,612ba6c594a6d54154a88ae7,629c5a43497162f0a020fbfc,2022-06-05_09h26.24.874,Colour_Asymmetry_Pilot,2022.1.3,Win32,59.99880002,629c4b6caf241d5e6e00bfc0,,,,,,,,,,,,,,,,,,,,,,,,,,,,,,,,,,,,,,,,,,,,,,,,,,,,,,,,,,,,,,,,,,,,,,,,,,,,,,,,,,,,,,,,,,,,,,,,,,,,,,,,,,,,,,,,,,,,,,,,,,,,,,,,,,,,,,,,,,,,,,,,,,,
0,34,34,40,1,,612ba6c594a6d54154a88ae7,629c5a43497162f0a020fbfc,2022-06-05_09h26.24.874,Colour_Asymmetry_Pilot,2022.1.3,Win32,59.99880002,629c4b6caf241d5e6e00bfc0,,,,,,,,,,,,,,,,,,,,,,,,,,,,,,,,,,,,,,,,,,,,,,,,,,,,,,,,,,,,,,,,,,,,,,,,,,,,,,,,,,,,,,,,,,,,,,,,,,,,,,,,,,,,,,,,,,,,,,,,,,,,,,,,,,,,,,,,,,,,,,,,,,,
0,35,35,10,1,,612ba6c594a6d54154a88ae7,629c5a43497162f0a020fbfc,2022-06-05_09h26.24.874,Colour_Asymmetry_Pilot,2022.1.3,Win32,59.99880002,629c4b6caf241d5e6e00bfc0,,,,,,,,,,,,,,,,,,,,,,,,,,,,,,,,,,,,,,,,,,,,,,,,,,,,,,,,,,,,,,,,,,,,,,,,,,,,,,,,,,,,,,,,,,,,,,,,,,,,,,,,,,,,,,,,,,,,,,,,,,,,,,,,,,,,,,,,,,,,,,,,,,,
0,36,36,57,1,,612ba6c594a6d54154a88ae7,629c5a43497162f0a020fbfc,2022-06-05_09h26.24.874,Colour_Asymmetry_Pilot,2022.1.3,Win32,59.99880002,629c4b6caf241d5e6e00bfc0,,,,,,,,,,,,,,,,,,,,,,,,,,,,,,,,,,,,,,,,,,,,,,,,,,,,,,,,,,,,,,,,,,,,,,,,,,,,,,,,,,,,,,,,,,,,,,,,,,,,,,,,,,,,,,,,,,,,,,,,,,,,,,,,,,,,,,,,,,,,,,,,,,,
0,37,37,29,1,,612ba6c594a6d54154a88ae7,629c5a43497162f0a020fbfc,2022-06-05_09h26.24.874,Colour_Asymmetry_Pilot,2022.1.3,Win32,59.99880002,629c4b6caf241d5e6e00bfc0,,,,,,,,,,,,,,,,,,,,,,,,,,,,,,,,,,,,,,,,,,,,,,,,,,,,,,,,,,,,,,,,,,,,,,,,,,,,,,,,,,,,,,,,,,,,,,,,,,,,,,,,,,,,,,,,,,,,,,,,,,,,,,,,,,,,,,,,,,,,,,,,,,,
0,38,38,75,1,,612ba6c594a6d54154a88ae7,629c5a43497162f0a020fbfc,2022-06-05_09h26.24.874,Colour_Asymmetry_Pilot,2022.1.3,Win32,59.99880002,629c4b6caf241d5e6e00bfc0,,,,,,,,,,,,,,,,,,,,,,,,,,,,,,,,,,,,,,,,,,,,,,,,,,,,,,,,,,,,,,,,,,,,,,,,,,,,,,,,,,,,,,,,,,,,,,,,,,,,,,,,,,,,,,,,,,,,,,,,,,,,,,,,,,,,,,,,,,,,,,,,,,,
0,39,39,8,1,,612ba6c594a6d54154a88ae7,629c5a43497162f0a020fbfc,2022-06-05_09h26.24.874,Colour_Asymmetry_Pilot,2022.1.3,Win32,59.99880002,629c4b6caf241d5e6e00bfc0,,,,,,,,,,,,,,,,,,,,,,,,,,,,,,,,,,,,,,,,,,,,,,,,,,,,,,,,,,,,,,,,,,,,,,,,,,,,,,,,,,,,,,,,,,,,,,,,,,,,,,,,,,,,,,,,,,,,,,,,,,,,,,,,,,,,,,,,,,,,,,,,,,,
0,40,40,46,1,,612ba6c594a6d54154a88ae7,629c5a43497162f0a020fbfc,2022-06-05_09h26.24.874,Colour_Asymmetry_Pilot,2022.1.3,Win32,59.99880002,629c4b6caf241d5e6e00bfc0,,,,,,,,,,,,,,,,,,,,,,,,,,,,,,,,,,,,,,,,,,,,,,,,,,,,,,,,,,,,,,,,,,,,,,,,,,,,,,,,,,,,,,,,,,,,,,,,,,,,,,,,,,,,,,,,,,,,,,,,,,,,,,,,,,,,,,,,,,,,,,,,,,,
0,41,41,17,1,,612ba6c594a6d54154a88ae7,629c5a43497162f0a020fbfc,2022-06-05_09h26.24.874,Colour_Asymmetry_Pilot,2022.1.3,Win32,59.99880002,629c4b6caf241d5e6e00bfc0,,,,,,,,,,,,,,,,,,,,,,,,,,,,,,,,,,,,,,,,,,,,,,,,,,,,,,,,,,,,,,,,,,,,,,,,,,,,,,,,,,,,,,,,,,,,,,,,,,,,,,,,,,,,,,,,,,,,,,,,,,,,,,,,,,,,,,,,,,,,,,,,,,,
0,42,42,24,1,,612ba6c594a6d54154a88ae7,629c5a43497162f0a020fbfc,2022-06-05_09h26.24.874,Colour_Asymmetry_Pilot,2022.1.3,Win32,59.99880002,629c4b6caf241d5e6e00bfc0,,,,,,,,,,,,,,,,,,,,,,,,,,,,,,,,,,,,,,,,,,,,,,,,,,,,,,,,,,,,,,,,,,,,,,,,,,,,,,,,,,,,,,,,,,,,,,,,,,,,,,,,,,,,,,,,,,,,,,,,,,,,,,,,,,,,,,,,,,,,,,,,,,,
0,43,43,69,1,,612ba6c594a6d54154a88ae7,629c5a43497162f0a020fbfc,2022-06-05_09h26.24.874,Colour_Asymmetry_Pilot,2022.1.3,Win32,59.99880002,629c4b6caf241d5e6e00bfc0,,,,,,,,,,,,,,,,,,,,,,,,,,,,,,,,,,,,,,,,,,,,,,,,,,,,,,,,,,,,,,,,,,,,,,,,,,,,,,,,,,,,,,,,,,,,,,,,,,,,,,,,,,,,,,,,,,,,,,,,,,,,,,,,,,,,,,,,,,,,,,,,,,,
0,44,44,59,1,,612ba6c594a6d54154a88ae7,629c5a43497162f0a020fbfc,2022-06-05_09h26.24.874,Colour_Asymmetry_Pilot,2022.1.3,Win32,59.99880002,629c4b6caf241d5e6e00bfc0,,,,,,,,,,,,,,,,,,,,,,,,,,,,,,,,,,,,,,,,,,,,,,,,,,,,,,,,,,,,,,,,,,,,,,,,,,,,,,,,,,,,,,,,,,,,,,,,,,,,,,,,,,,,,,,,,,,,,,,,,,,,,,,,,,,,,,,,,,,,,,,,,,,
0,45,45,36,1,,612ba6c594a6d54154a88ae7,629c5a43497162f0a020fbfc,2022-06-05_09h26.24.874,Colour_Asymmetry_Pilot,2022.1.3,Win32,59.99880002,629c4b6caf241d5e6e00bfc0,,,,,,,,,,,,,,,,,,,,,,,,,,,,,,,,,,,,,,,,,,,,,,,,,,,,,,,,,,,,,,,,,,,,,,,,,,,,,,,,,,,,,,,,,,,,,,,,,,,,,,,,,,,,,,,,,,,,,,,,,,,,,,,,,,,,,,,,,,,,,,,,,,,
0,46,46,65,1,,612ba6c594a6d54154a88ae7,629c5a43497162f0a020fbfc,2022-06-05_09h26.24.874,Colour_Asymmetry_Pilot,2022.1.3,Win32,59.99880002,629c4b6caf241d5e6e00bfc0,,,,,,,,,,,,,,,,,,,,,,,,,,,,,,,,,,,,,,,,,,,,,,,,,,,,,,,,,,,,,,,,,,,,,,,,,,,,,,,,,,,,,,,,,,,,,,,,,,,,,,,,,,,,,,,,,,,,,,,,,,,,,,,,,,,,,,,,,,,,,,,,,,,
0,47,47,92,1,,612ba6c594a6d54154a88ae7,629c5a43497162f0a020fbfc,2022-06-05_09h26.24.874,Colour_Asymmetry_Pilot,2022.1.3,Win32,59.99880002,629c4b6caf241d5e6e00bfc0,,,,,,,,,,,,,,,,,,,,,,,,,,,,,,,,,,,,,,,,,,,,,,,,,,,,,,,,,,,,,,,,,,,,,,,,,,,,,,,,,,,,,,,,,,,,,,,,,,,,,,,,,,,,,,,,,,,,,,,,,,,,,,,,,,,,,,,,,,,,,,,,,,,
0,48,48,5,1,,612ba6c594a6d54154a88ae7,629c5a43497162f0a020fbfc,2022-06-05_09h26.24.874,Colour_Asymmetry_Pilot,2022.1.3,Win32,59.99880002,629c4b6caf241d5e6e00bfc0,,,,,,,,,,,,,,,,,,,,,,,,,,,,,,,,,,,,,,,,,,,,,,,,,,,,,,,,,,,,,,,,,,,,,,,,,,,,,,,,,,,,,,,,,,,,,,,,,,,,,,,,,,,,,,,,,,,,,,,,,,,,,,,,,,,,,,,,,,,,,,,,,,,
0,49,49,51,1,,612ba6c594a6d54154a88ae7,629c5a43497162f0a020fbfc,2022-06-05_09h26.24.874,Colour_Asymmetry_Pilot,2022.1.3,Win32,59.99880002,629c4b6caf241d5e6e00bfc0,,,,,,,,,,,,,,,,,,,,,,,,,,,,,,,,,,,,,,,,,,,,,,,,,,,,,,,,,,,,,,,,,,,,,,,,,,,,,,,,,,,,,,,,,,,,,,,,,,,,,,,,,,,,,,,,,,,,,,,,,,,,,,,,,,,,,,,,,,,,,,,,,,,
0,50,50,14,1,,612ba6c594a6d54154a88ae7,629c5a43497162f0a020fbfc,2022-06-05_09h26.24.874,Colour_Asymmetry_Pilot,2022.1.3,Win32,59.99880002,629c4b6caf241d5e6e00bfc0,,,,,,,,,,,,,,,,,,,,,,,,,,,,,,,,,,,,,,,,,,,,,,,,,,,,,,,,,,,,,,,,,,,,,,,,,,,,,,,,,,,,,,,,,,,,,,,,,,,,,,,,,,,,,,,,,,,,,,,,,,,,,,,,,,,,,,,,,,,,,,,,,,,
0,51,51,13,1,,612ba6c594a6d54154a88ae7,629c5a43497162f0a020fbfc,2022-06-05_09h26.24.874,Colour_Asymmetry_Pilot,2022.1.3,Win32,59.99880002,629c4b6caf241d5e6e00bfc0,,,,,,,,,,,,,,,,,,,,,,,,,,,,,,,,,,,,,,,,,,,,,,,,,,,,,,,,,,,,,,,,,,,,,,,,,,,,,,,,,,,,,,,,,,,,,,,,,,,,,,,,,,,,,,,,,,,,,,,,,,,,,,,,,,,,,,,,,,,,,,,,,,,
0,52,52,68,1,,612ba6c594a6d54154a88ae7,629c5a43497162f0a020fbfc,2022-06-05_09h26.24.874,Colour_Asymmetry_Pilot,2022.1.3,Win32,59.99880002,629c4b6caf241d5e6e00bfc0,,,,,,,,,,,,,,,,,,,,,,,,,,,,,,,,,,,,,,,,,,,,,,,,,,,,,,,,,,,,,,,,,,,,,,,,,,,,,,,,,,,,,,,,,,,,,,,,,,,,,,,,,,,,,,,,,,,,,,,,,,,,,,,,,,,,,,,,,,,,,,,,,,,
0,53,53,80,1,,612ba6c594a6d54154a88ae7,629c5a43497162f0a020fbfc,2022-06-05_09h26.24.874,Colour_Asymmetry_Pilot,2022.1.3,Win32,59.99880002,629c4b6caf241d5e6e00bfc0,,,,,,,,,,,,,,,,,,,,,,,,,,,,,,,,,,,,,,,,,,,,,,,,,,,,,,,,,,,,,,,,,,,,,,,,,,,,,,,,,,,,,,,,,,,,,,,,,,,,,,,,,,,,,,,,,,,,,,,,,,,,,,,,,,,,,,,,,,,,,,,,,,,
0,54,54,38,1,,612ba6c594a6d54154a88ae7,629c5a43497162f0a020fbfc,2022-06-05_09h26.24.874,Colour_Asymmetry_Pilot,2022.1.3,Win32,59.99880002,629c4b6caf241d5e6e00bfc0,,,,,,,,,,,,,,,,,,,,,,,,,,,,,,,,,,,,,,,,,,,,,,,,,,,,,,,,,,,,,,,,,,,,,,,,,,,,,,,,,,,,,,,,,,,,,,,,,,,,,,,,,,,,,,,,,,,,,,,,,,,,,,,,,,,,,,,,,,,,,,,,,,,
0,55,55,49,1,,612ba6c594a6d54154a88ae7,629c5a43497162f0a020fbfc,2022-06-05_09h26.24.874,Colour_Asymmetry_Pilot,2022.1.3,Win32,59.99880002,629c4b6caf241d5e6e00bfc0,,,,,,,,,,,,,,,,,,,,,,,,,,,,,,,,,,,,,,,,,,,,,,,,,,,,,,,,,,,,,,,,,,,,,,,,,,,,,,,,,,,,,,,,,,,,,,,,,,,,,,,,,,,,,,,,,,,,,,,,,,,,,,,,,,,,,,,,,,,,,,,,,,,
0,56,56,72,1,,612ba6c594a6d54154a88ae7,629c5a43497162f0a020fbfc,2022-06-05_09h26.24.874,Colour_Asymmetry_Pilot,2022.1.3,Win32,59.99880002,629c4b6caf241d5e6e00bfc0,,,,,,,,,,,,,,,,,,,,,,,,,,,,,,,,,,,,,,,,,,,,,,,,,,,,,,,,,,,,,,,,,,,,,,,,,,,,,,,,,,,,,,,,,,,,,,,,,,,,,,,,,,,,,,,,,,,,,,,,,,,,,,,,,,,,,,,,,,,,,,,,,,,
0,57,57,16,1,,612ba6c594a6d54154a88ae7,629c5a43497162f0a020fbfc,2022-06-05_09h26.24.874,Colour_Asymmetry_Pilot,2022.1.3,Win32,59.99880002,629c4b6caf241d5e6e00bfc0,,,,,,,,,,,,,,,,,,,,,,,,,,,,,,,,,,,,,,,,,,,,,,,,,,,,,,,,,,,,,,,,,,,,,,,,,,,,,,,,,,,,,,,,,,,,,,,,,,,,,,,,,,,,,,,,,,,,,,,,,,,,,,,,,,,,,,,,,,,,,,,,,,,
0,58,58,83,1,,612ba6c594a6d54154a88ae7,629c5a43497162f0a020fbfc,2022-06-05_09h26.24.874,Colour_Asymmetry_Pilot,2022.1.3,Win32,59.99880002,629c4b6caf241d5e6e00bfc0,,,,,,,,,,,,,,,,,,,,,,,,,,,,,,,,,,,,,,,,,,,,,,,,,,,,,,,,,,,,,,,,,,,,,,,,,,,,,,,,,,,,,,,,,,,,,,,,,,,,,,,,,,,,,,,,,,,,,,,,,,,,,,,,,,,,,,,,,,,,,,,,,,,
0,59,59,91,1,,612ba6c594a6d54154a88ae7,629c5a43497162f0a020fbfc,2022-06-05_09h26.24.874,Colour_Asymmetry_Pilot,2022.1.3,Win32,59.99880002,629c4b6caf241d5e6e00bfc0,,,,,,,,,,,,,,,,,,,,,,,,,,,,,,,,,,,,,,,,,,,,,,,,,,,,,,,,,,,,,,,,,,,,,,,,,,,,,,,,,,,,,,,,,,,,,,,,,,,,,,,,,,,,,,,,,,,,,,,,,,,,,,,,,,,,,,,,,,,,,,,,,,,
0,60,60,66,1,,612ba6c594a6d54154a88ae7,629c5a43497162f0a020fbfc,2022-06-05_09h26.24.874,Colour_Asymmetry_Pilot,2022.1.3,Win32,59.99880002,629c4b6caf241d5e6e00bfc0,,,,,,,,,,,,,,,,,,,,,,,,,,,,,,,,,,,,,,,,,,,,,,,,,,,,,,,,,,,,,,,,,,,,,,,,,,,,,,,,,,,,,,,,,,,,,,,,,,,,,,,,,,,,,,,,,,,,,,,,,,,,,,,,,,,,,,,,,,,,,,,,,,,
0,61,61,58,1,,612ba6c594a6d54154a88ae7,629c5a43497162f0a020fbfc,2022-06-05_09h26.24.874,Colour_Asymmetry_Pilot,2022.1.3,Win32,59.99880002,629c4b6caf241d5e6e00bfc0,,,,,,,,,,,,,,,,,,,,,,,,,,,,,,,,,,,,,,,,,,,,,,,,,,,,,,,,,,,,,,,,,,,,,,,,,,,,,,,,,,,,,,,,,,,,,,,,,,,,,,,,,,,,,,,,,,,,,,,,,,,,,,,,,,,,,,,,,,,,,,,,,,,
0,62,62,47,1,,612ba6c594a6d54154a88ae7,629c5a43497162f0a020fbfc,2022-06-05_09h26.24.874,Colour_Asymmetry_Pilot,2022.1.3,Win32,59.99880002,629c4b6caf241d5e6e00bfc0,,,,,,,,,,,,,,,,,,,,,,,,,,,,,,,,,,,,,,,,,,,,,,,,,,,,,,,,,,,,,,,,,,,,,,,,,,,,,,,,,,,,,,,,,,,,,,,,,,,,,,,,,,,,,,,,,,,,,,,,,,,,,,,,,,,,,,,,,,,,,,,,,,,
0,63,63,71,1,,612ba6c594a6d54154a88ae7,629c5a43497162f0a020fbfc,2022-06-05_09h26.24.874,Colour_Asymmetry_Pilot,2022.1.3,Win32,59.99880002,629c4b6caf241d5e6e00bfc0,,,,,,,,,,,,,,,,,,,,,,,,,,,,,,,,,,,,,,,,,,,,,,,,,,,,,,,,,,,,,,,,,,,,,,,,,,,,,,,,,,,,,,,,,,,,,,,,,,,,,,,,,,,,,,,,,,,,,,,,,,,,,,,,,,,,,,,,,,,,,,,,,,,
0,64,64,9,1,,612ba6c594a6d54154a88ae7,629c5a43497162f0a020fbfc,2022-06-05_09h26.24.874,Colour_Asymmetry_Pilot,2022.1.3,Win32,59.99880002,629c4b6caf241d5e6e00bfc0,,,,,,,,,,,,,,,,,,,,,,,,,,,,,,,,,,,,,,,,,,,,,,,,,,,,,,,,,,,,,,,,,,,,,,,,,,,,,,,,,,,,,,,,,,,,,,,,,,,,,,,,,,,,,,,,,,,,,,,,,,,,,,,,,,,,,,,,,,,,,,,,,,,
0,65,65,35,1,,612ba6c594a6d54154a88ae7,629c5a43497162f0a020fbfc,2022-06-05_09h26.24.874,Colour_Asymmetry_Pilot,2022.1.3,Win32,59.99880002,629c4b6caf241d5e6e00bfc0,,,,,,,,,,,,,,,,,,,,,,,,,,,,,,,,,,,,,,,,,,,,,,,,,,,,,,,,,,,,,,,,,,,,,,,,,,,,,,,,,,,,,,,,,,,,,,,,,,,,,,,,,,,,,,,,,,,,,,,,,,,,,,,,,,,,,,,,,,,,,,,,,,,
0,66,66,32,1,,612ba6c594a6d54154a88ae7,629c5a43497162f0a020fbfc,2022-06-05_09h26.24.874,Colour_Asymmetry_Pilot,2022.1.3,Win32,59.99880002,629c4b6caf241d5e6e00bfc0,,,,,,,,,,,,,,,,,,,,,,,,,,,,,,,,,,,,,,,,,,,,,,,,,,,,,,,,,,,,,,,,,,,,,,,,,,,,,,,,,,,,,,,,,,,,,,,,,,,,,,,,,,,,,,,,,,,,,,,,,,,,,,,,,,,,,,,,,,,,,,,,,,,
0,67,67,18,1,,612ba6c594a6d54154a88ae7,629c5a43497162f0a020fbfc,2022-06-05_09h26.24.874,Colour_Asymmetry_Pilot,2022.1.3,Win32,59.99880002,629c4b6caf241d5e6e00bfc0,,,,,,,,,,,,,,,,,,,,,,,,,,,,,,,,,,,,,,,,,,,,,,,,,,,,,,,,,,,,,,,,,,,,,,,,,,,,,,,,,,,,,,,,,,,,,,,,,,,,,,,,,,,,,,,,,,,,,,,,,,,,,,,,,,,,,,,,,,,,,,,,,,,
0,68,68,44,1,,612ba6c594a6d54154a88ae7,629c5a43497162f0a020fbfc,2022-06-05_09h26.24.874,Colour_Asymmetry_Pilot,2022.1.3,Win32,59.99880002,629c4b6caf241d5e6e00bfc0,,,,,,,,,,,,,,,,,,,,,,,,,,,,,,,,,,,,,,,,,,,,,,,,,,,,,,,,,,,,,,,,,,,,,,,,,,,,,,,,,,,,,,,,,,,,,,,,,,,,,,,,,,,,,,,,,,,,,,,,,,,,,,,,,,,,,,,,,,,,,,,,,,,
0,69,69,1,1,,612ba6c594a6d54154a88ae7,629c5a43497162f0a020fbfc,2022-06-05_09h26.24.874,Colour_Asymmetry_Pilot,2022.1.3,Win32,59.99880002,629c4b6caf241d5e6e00bfc0,,,,,,,,,,,,,,,,,,,,,,,,,,,,,,,,,,,,,,,,,,,,,,,,,,,,,,,,,,,,,,,,,,,,,,,,,,,,,,,,,,,,,,,,,,,,,,,,,,,,,,,,,,,,,,,,,,,,,,,,,,,,,,,,,,,,,,,,,,,,,,,,,,,
0,70,70,11,1,,612ba6c594a6d54154a88ae7,629c5a43497162f0a020fbfc,2022-06-05_09h26.24.874,Colour_Asymmetry_Pilot,2022.1.3,Win32,59.99880002,629c4b6caf241d5e6e00bfc0,,,,,,,,,,,,,,,,,,,,,,,,,,,,,,,,,,,,,,,,,,,,,,,,,,,,,,,,,,,,,,,,,,,,,,,,,,,,,,,,,,,,,,,,,,,,,,,,,,,,,,,,,,,,,,,,,,,,,,,,,,,,,,,,,,,,,,,,,,,,,,,,,,,
0,71,71,50,1,,612ba6c594a6d54154a88ae7,629c5a43497162f0a020fbfc,2022-06-05_09h26.24.874,Colour_Asymmetry_Pilot,2022.1.3,Win32,59.99880002,629c4b6caf241d5e6e00bfc0,,,,,,,,,,,,,,,,,,,,,,,,,,,,,,,,,,,,,,,,,,,,,,,,,,,,,,,,,,,,,,,,,,,,,,,,,,,,,,,,,,,,,,,,,,,,,,,,,,,,,,,,,,,,,,,,,,,,,,,,,,,,,,,,,,,,,,,,,,,,,,,,,,,
0,72,72,22,1,,612ba6c594a6d54154a88ae7,629c5a43497162f0a020fbfc,2022-06-05_09h26.24.874,Colour_Asymmetry_Pilot,2022.1.3,Win32,59.99880002,629c4b6caf241d5e6e00bfc0,,,,,,,,,,,,,,,,,,,,,,,,,,,,,,,,,,,,,,,,,,,,,,,,,,,,,,,,,,,,,,,,,,,,,,,,,,,,,,,,,,,,,,,,,,,,,,,,,,,,,,,,,,,,,,,,,,,,,,,,,,,,,,,,,,,,,,,,,,,,,,,,,,,
0,73,73,85,1,,612ba6c594a6d54154a88ae7,629c5a43497162f0a020fbfc,2022-06-05_09h26.24.874,Colour_Asymmetry_Pilot,2022.1.3,Win32,59.99880002,629c4b6caf241d5e6e00bfc0,,,,,,,,,,,,,,,,,,,,,,,,,,,,,,,,,,,,,,,,,,,,,,,,,,,,,,,,,,,,,,,,,,,,,,,,,,,,,,,,,,,,,,,,,,,,,,,,,,,,,,,,,,,,,,,,,,,,,,,,,,,,,,,,,,,,,,,,,,,,,,,,,,,
0,74,74,70,1,,612ba6c594a6d54154a88ae7,629c5a43497162f0a020fbfc,2022-06-05_09h26.24.874,Colour_Asymmetry_Pilot,2022.1.3,Win32,59.99880002,629c4b6caf241d5e6e00bfc0,,,,,,,,,,,,,,,,,,,,,,,,,,,,,,,,,,,,,,,,,,,,,,,,,,,,,,,,,,,,,,,,,,,,,,,,,,,,,,,,,,,,,,,,,,,,,,,,,,,,,,,,,,,,,,,,,,,,,,,,,,,,,,,,,,,,,,,,,,,,,,,,,,,
0,75,75,23,1,,612ba6c594a6d54154a88ae7,629c5a43497162f0a020fbfc,2022-06-05_09h26.24.874,Colour_Asymmetry_Pilot,2022.1.3,Win32,59.99880002,629c4b6caf241d5e6e00bfc0,,,,,,,,,,,,,,,,,,,,,,,,,,,,,,,,,,,,,,,,,,,,,,,,,,,,,,,,,,,,,,,,,,,,,,,,,,,,,,,,,,,,,,,,,,,,,,,,,,,,,,,,,,,,,,,,,,,,,,,,,,,,,,,,,,,,,,,,,,,,,,,,,,,
0,76,76,31,1,,612ba6c594a6d54154a88ae7,629c5a43497162f0a020fbfc,2022-06-05_09h26.24.874,Colour_Asymmetry_Pilot,2022.1.3,Win32,59.99880002,629c4b6caf241d5e6e00bfc0,,,,,,,,,,,,,,,,,,,,,,,,,,,,,,,,,,,,,,,,,,,,,,,,,,,,,,,,,,,,,,,,,,,,,,,,,,,,,,,,,,,,,,,,,,,,,,,,,,,,,,,,,,,,,,,,,,,,,,,,,,,,,,,,,,,,,,,,,,,,,,,,,,,
0,77,77,41,1,,612ba6c594a6d54154a88ae7,629c5a43497162f0a020fbfc,2022-06-05_09h26.24.874,Colour_Asymmetry_Pilot,2022.1.3,Win32,59.99880002,629c4b6caf241d5e6e00bfc0,,,,,,,,,,,,,,,,,,,,,,,,,,,,,,,,,,,,,,,,,,,,,,,,,,,,,,,,,,,,,,,,,,,,,,,,,,,,,,,,,,,,,,,,,,,,,,,,,,,,,,,,,,,,,,,,,,,,,,,,,,,,,,,,,,,,,,,,,,,,,,,,,,,
0,78,78,21,1,,612ba6c594a6d54154a88ae7,629c5a43497162f0a020fbfc,2022-06-05_09h26.24.874,Colour_Asymmetry_Pilot,2022.1.3,Win32,59.99880002,629c4b6caf241d5e6e00bfc0,,,,,,,,,,,,,,,,,,,,,,,,,,,,,,,,,,,,,,,,,,,,,,,,,,,,,,,,,,,,,,,,,,,,,,,,,,,,,,,,,,,,,,,,,,,,,,,,,,,,,,,,,,,,,,,,,,,,,,,,,,,,,,,,,,,,,,,,,,,,,,,,,,,
0,79,79,55,1,,612ba6c594a6d54154a88ae7,629c5a43497162f0a020fbfc,2022-06-05_09h26.24.874,Colour_Asymmetry_Pilot,2022.1.3,Win32,59.99880002,629c4b6caf241d5e6e00bfc0,,,,,,,,,,,,,,,,,,,,,,,,,,,,,,,,,,,,,,,,,,,,,,,,,,,,,,,,,,,,,,,,,,,,,,,,,,,,,,,,,,,,,,,,,,,,,,,,,,,,,,,,,,,,,,,,,,,,,,,,,,,,,,,,,,,,,,,,,,,,,,,,,,,
0,80,80,34,1,,612ba6c594a6d54154a88ae7,629c5a43497162f0a020fbfc,2022-06-05_09h26.24.874,Colour_Asymmetry_Pilot,2022.1.3,Win32,59.99880002,629c4b6caf241d5e6e00bfc0,,,,,,,,,,,,,,,,,,,,,,,,,,,,,,,,,,,,,,,,,,,,,,,,,,,,,,,,,,,,,,,,,,,,,,,,,,,,,,,,,,,,,,,,,,,,,,,,,,,,,,,,,,,,,,,,,,,,,,,,,,,,,,,,,,,,,,,,,,,,,,,,,,,
0,81,81,15,1,,612ba6c594a6d54154a88ae7,629c5a43497162f0a020fbfc,2022-06-05_09h26.24.874,Colour_Asymmetry_Pilot,2022.1.3,Win32,59.99880002,629c4b6caf241d5e6e00bfc0,,,,,,,,,,,,,,,,,,,,,,,,,,,,,,,,,,,,,,,,,,,,,,,,,,,,,,,,,,,,,,,,,,,,,,,,,,,,,,,,,,,,,,,,,,,,,,,,,,,,,,,,,,,,,,,,,,,,,,,,,,,,,,,,,,,,,,,,,,,,,,,,,,,
0,82,82,90,1,,612ba6c594a6d54154a88ae7,629c5a43497162f0a020fbfc,2022-06-05_09h26.24.874,Colour_Asymmetry_Pilot,2022.1.3,Win32,59.99880002,629c4b6caf241d5e6e00bfc0,,,,,,,,,,,,,,,,,,,,,,,,,,,,,,,,,,,,,,,,,,,,,,,,,,,,,,,,,,,,,,,,,,,,,,,,,,,,,,,,,,,,,,,,,,,,,,,,,,,,,,,,,,,,,,,,,,,,,,,,,,,,,,,,,,,,,,,,,,,,,,,,,,,
0,83,83,12,1,,612ba6c594a6d54154a88ae7,629c5a43497162f0a020fbfc,2022-06-05_09h26.24.874,Colour_Asymmetry_Pilot,2022.1.3,Win32,59.99880002,629c4b6caf241d5e6e00bfc0,,,,,,,,,,,,,,,,,,,,,,,,,,,,,,,,,,,,,,,,,,,,,,,,,,,,,,,,,,,,,,,,,,,,,,,,,,,,,,,,,,,,,,,,,,,,,,,,,,,,,,,,,,,,,,,,,,,,,,,,,,,,,,,,,,,,,,,,,,,,,,,,,,,
0,84,84,88,1,,612ba6c594a6d54154a88ae7,629c5a43497162f0a020fbfc,2022-06-05_09h26.24.874,Colour_Asymmetry_Pilot,2022.1.3,Win32,59.99880002,629c4b6caf241d5e6e00bfc0,,,,,,,,,,,,,,,,,,,,,,,,,,,,,,,,,,,,,,,,,,,,,,,,,,,,,,,,,,,,,,,,,,,,,,,,,,,,,,,,,,,,,,,,,,,,,,,,,,,,,,,,,,,,,,,,,,,,,,,,,,,,,,,,,,,,,,,,,,,,,,,,,,,
0,85,85,48,1,,612ba6c594a6d54154a88ae7,629c5a43497162f0a020fbfc,2022-06-05_09h26.24.874,Colour_Asymmetry_Pilot,2022.1.3,Win32,59.99880002,629c4b6caf241d5e6e00bfc0,,,,,,,,,,,,,,,,,,,,,,,,,,,,,,,,,,,,,,,,,,,,,,,,,,,,,,,,,,,,,,,,,,,,,,,,,,,,,,,,,,,,,,,,,,,,,,,,,,,,,,,,,,,,,,,,,,,,,,,,,,,,,,,,,,,,,,,,,,,,,,,,,,,
0,86,86,42,1,,612ba6c594a6d54154a88ae7,629c5a43497162f0a020fbfc,2022-06-05_09h26.24.874,Colour_Asymmetry_Pilot,2022.1.3,Win32,59.99880002,629c4b6caf241d5e6e00bfc0,,,,,,,,,,,,,,,,,,,,,,,,,,,,,,,,,,,,,,,,,,,,,,,,,,,,,,,,,,,,,,,,,,,,,,,,,,,,,,,,,,,,,,,,,,,,,,,,,,,,,,,,,,,,,,,,,,,,,,,,,,,,,,,,,,,,,,,,,,,,,,,,,,,
0,87,87,86,1,,612ba6c594a6d54154a88ae7,629c5a43497162f0a020fbfc,2022-06-05_09h26.24.874,Colour_Asymmetry_Pilot,2022.1.3,Win32,59.99880002,629c4b6caf241d5e6e00bfc0,,,,,,,,,,,,,,,,,,,,,,,,,,,,,,,,,,,,,,,,,,,,,,,,,,,,,,,,,,,,,,,,,,,,,,,,,,,,,,,,,,,,,,,,,,,,,,,,,,,,,,,,,,,,,,,,,,,,,,,,,,,,,,,,,,,,,,,,,,,,,,,,,,,
0,88,88,67,1,,612ba6c594a6d54154a88ae7,629c5a43497162f0a020fbfc,2022-06-05_09h26.24.874,Colour_Asymmetry_Pilot,2022.1.3,Win32,59.99880002,629c4b6caf241d5e6e00bfc0,,,,,,,,,,,,,,,,,,,,,,,,,,,,,,,,,,,,,,,,,,,,,,,,,,,,,,,,,,,,,,,,,,,,,,,,,,,,,,,,,,,,,,,,,,,,,,,,,,,,,,,,,,,,,,,,,,,,,,,,,,,,,,,,,,,,,,,,,,,,,,,,,,,
0,89,89,2,1,,612ba6c594a6d54154a88ae7,629c5a43497162f0a020fbfc,2022-06-05_09h26.24.874,Colour_Asymmetry_Pilot,2022.1.3,Win32,59.99880002,629c4b6caf241d5e6e00bfc0,,,,,,,,,,,,,,,,,,,,,,,,,,,,,,,,,,,,,,,,,,,,,,,,,,,,,,,,,,,,,,,,,,,,,,,,,,,,,,,,,,,,,,,,,,,,,,,,,,,,,,,,,,,,,,,,,,,,,,,,,,,,,,,,,,,,,,,,,,,,,,,,,,,
0,90,90,30,1,,612ba6c594a6d54154a88ae7,629c5a43497162f0a020fbfc,2022-06-05_09h26.24.874,Colour_Asymmetry_Pilot,2022.1.3,Win32,59.99880002,629c4b6caf241d5e6e00bfc0,,,,,,,,,,,,,,,,,,,,,,,,,,,,,,,,,,,,,,,,,,,,,,,,,,,,,,,,,,,,,,,,,,,,,,,,,,,,,,,,,,,,,,,,,,,,,,,,,,,,,,,,,,,,,,,,,,,,,,,,,,,,,,,,,,,,,,,,,,,,,,,,,,,
0,91,91,7,1,,612ba6c594a6d54154a88ae7,629c5a43497162f0a020fbfc,2022-06-05_09h26.24.874,Colour_Asymmetry_Pilot,2022.1.3,Win32,59.99880002,629c4b6caf241d5e6e00bfc0,,,,,,,,,,,,,,,,,,,,,,,,,,,,,,,,,,,,,,,,,,,,,,,,,,,,,,,,,,,,,,,,,,,,,,,,,,,,,,,,,,,,,,,,,,,,,,,,,,,,,,,,,,,,,,,,,,,,,,,,,,,,,,,,,,,,,,,,,,,,,,,,,,,
0,92,92,45,1,,612ba6c594a6d54154a88ae7,629c5a43497162f0a020fbfc,2022-06-05_09h26.24.874,Colour_Asymmetry_Pilot,2022.1.3,Win32,59.99880002,629c4b6caf241d5e6e00bfc0,,,,,,,,,,,,,,,,,,,,,,,,,,,,,,,,,,,,,,,,,,,,,,,,,,,,,,,,,,,,,,,,,,,,,,,,,,,,,,,,,,,,,,,,,,,,,,,,,,,,,,,,,,,,,,,,,,,,,,,,,,,,,,,,,,,,,,,,,,,,,,,,,,,
,,,,,,612ba6c594a6d54154a88ae7,629c5a43497162f0a020fbfc,2022-06-05_09h26.24.874,Colour_Asymmetry_Pilot,2022.1.3,Win32,59.99880002,629c4b6caf241d5e6e00bfc0,0,0,0,145,1,onethree,,,,,,,,,,,,,,,,,,,,,,,,,,,,,,,,,,,,,,,,,,,,,,,,,,,,,,,,,,,,,,,,,,,,,,,,,,,,,,,,,,,,,,,,,,,,,,,,,,,,,,,,,,,,,,,,,,,,,,,,,,,,,,,,,,,,,,,,,,,,,
,,,,,,612ba6c594a6d54154a88ae7,629c5a43497162f0a020fbfc,2022-06-05_09h26.24.874,Colour_Asymmetry_Pilot,2022.1.3,Win32,59.99880002,629c4b6caf241d5e6e00bfc0,0,1,1,101,1,threefour,,,,,,,,,,,,,,,,,,,,,,,,,,,,,,,,,,,,,,,,,,,,,,,,,,,,,,,,,,,,,,,,,,,,,,,,,,,,,,,,,,,,,,,,,,,,,,,,,,,,,,,,,,,,,,,,,,,,,,,,,,,,,,,,,,,,,,,,,,,,,
,,,,,,612ba6c594a6d54154a88ae7,629c5a43497162f0a020fbfc,2022-06-05_09h26.24.874,Colour_Asymmetry_Pilot,2022.1.3,Win32,59.99880002,629c4b6caf241d5e6e00bfc0,0,2,2,161,1,onethree,,,,,,,,,,,,,,,,,,,,,,,,,,,,,,,,,,,,,,,,,,,,,,,,,,,,,,,,,,,,,,,,,,,,,,,,,,,,,,,,,,,,,,,,,,,,,,,,,,,,,,,,,,,,,,,,,,,,,,,,,,,,,,,,,,,,,,,,,,,,,
,,,,,,612ba6c594a6d54154a88ae7,629c5a43497162f0a020fbfc,2022-06-05_09h26.24.874,Colour_Asymmetry_Pilot,2022.1.3,Win32,59.99880002,629c4b6caf241d5e6e00bfc0,0,3,3,114,1,twoone,,,,,,,,,,,,,,,,,,,,,,,,,,,,,,,,,,,,,,,,,,,,,,,,,,,,,,,,,,,,,,,,,,,,,,,,,,,,,,,,,,,,,,,,,,,,,,,,,,,,,,,,,,,,,,,,,,,,,,,,,,,,,,,,,,,,,,,,,,,,,
,,,,,,612ba6c594a6d54154a88ae7,629c5a43497162f0a020fbfc,2022-06-05_09h26.24.874,Colour_Asymmetry_Pilot,2022.1.3,Win32,59.99880002,629c4b6caf241d5e6e00bfc0,0,4,4,86,1,fourtwo,,,,,,,,,,,,,,,,,,,,,,,,,,,,,,,,,,,,,,,,,,,,,,,,,,,,,,,,,,,,,,,,,,,,,,,,,,,,,,,,,,,,,,,,,,,,,,,,,,,,,,,,,,,,,,,,,,,,,,,,,,,,,,,,,,,,,,,,,,,,,
,,,,,,612ba6c594a6d54154a88ae7,629c5a43497162f0a020fbfc,2022-06-05_09h26.24.874,Colour_Asymmetry_Pilot,2022.1.3,Win32,59.99880002,629c4b6caf241d5e6e00bfc0,0,5,5,63,1,fourthree,,,,,,,,,,,,,,,,,,,,,,,,,,,,,,,,,,,,,,,,,,,,,,,,,,,,,,,,,,,,,,,,,,,,,,,,,,,,,,,,,,,,,,,,,,,,,,,,,,,,,,,,,,,,,,,,,,,,,,,,,,,,,,,,,,,,,,,,,,,,,
,,,,,,612ba6c594a6d54154a88ae7,629c5a43497162f0a020fbfc,2022-06-05_09h26.24.874,Colour_Asymmetry_Pilot,2022.1.3,Win32,59.99880002,629c4b6caf241d5e6e00bfc0,0,6,6,85,1,threefour,,,,,,,,,,,,,,,,,,,,,,,,,,,,,,,,,,,,,,,,,,,,,,,,,,,,,,,,,,,,,,,,,,,,,,,,,,,,,,,,,,,,,,,,,,,,,,,,,,,,,,,,,,,,,,,,,,,,,,,,,,,,,,,,,,,,,,,,,,,,,
,,,,,,612ba6c594a6d54154a88ae7,629c5a43497162f0a020fbfc,2022-06-05_09h26.24.874,Colour_Asymmetry_Pilot,2022.1.3,Win32,59.99880002,629c4b6caf241d5e6e00bfc0,0,7,7,129,1,onethree,,,,,,,,,,,,,,,,,,,,,,,,,,,,,,,,,,,,,,,,,,,,,,,,,,,,,,,,,,,,,,,,,,,,,,,,,,,,,,,,,,,,,,,,,,,,,,,,,,,,,,,,,,,,,,,,,,,,,,,,,,,,,,,,,,,,,,,,,,,,,
,,,,,,612ba6c594a6d54154a88ae7,629c5a43497162f0a020fbfc,2022-06-05_09h26.24.874,Colour_Asymmetry_Pilot,2022.1.3,Win32,59.99880002,629c4b6caf241d5e6e00bfc0,0,8,8,32,1,onetwo,,,,,,,,,,,,,,,,,,,,,,,,,,,,,,,,,,,,,,,,,,,,,,,,,,,,,,,,,,,,,,,,,,,,,,,,,,,,,,,,,,,,,,,,,,,,,,,,,,,,,,,,,,,,,,,,,,,,,,,,,,,,,,,,,,,,,,,,,,,,,
,,,,,,612ba6c594a6d54154a88ae7,629c5a43497162f0a020fbfc,2022-06-05_09h26.24.874,Colour_Asymmetry_Pilot,2022.1.3,Win32,59.99880002,629c4b6caf241d5e6e00bfc0,0,9,9,58,1,twoone,,,,,,,,,,,,,,,,,,,,,,,,,,,,,,,,,,,,,,,,,,,,,,,,,,,,,,,,,,,,,,,,,,,,,,,,,,,,,,,,,,,,,,,,,,,,,,,,,,,,,,,,,,,,,,,,,,,,,,,,,,,,,,,,,,,,,,,,,,,,,
,,,,,,612ba6c594a6d54154a88ae7,629c5a43497162f0a020fbfc,2022-06-05_09h26.24.874,Colour_Asymmetry_Pilot,2022.1.3,Win32,59.99880002,629c4b6caf241d5e6e00bfc0,0,10,10,23,1,fourthree,,,,,,,,,,,,,,,,,,,,,,,,,,,,,,,,,,,,,,,,,,,,,,,,,,,,,,,,,,,,,,,,,,,,,,,,,,,,,,,,,,,,,,,,,,,,,,,,,,,,,,,,,,,,,,,,,,,,,,,,,,,,,,,,,,,,,,,,,,,,,
,,,,,,612ba6c594a6d54154a88ae7,629c5a43497162f0a020fbfc,2022-06-05_09h26.24.874,Colour_Asymmetry_Pilot,2022.1.3,Win32,59.99880002,629c4b6caf241d5e6e00bfc0,0,11,11,105,1,onethree,,,,,,,,,,,,,,,,,,,,,,,,,,,,,,,,,,,,,,,,,,,,,,,,,,,,,,,,,,,,,,,,,,,,,,,,,,,,,,,,,,,,,,,,,,,,,,,,,,,,,,,,,,,,,,,,,,,,,,,,,,,,,,,,,,,,,,,,,,,,,
,,,,,,612ba6c594a6d54154a88ae7,629c5a43497162f0a020fbfc,2022-06-05_09h26.24.874,Colour_Asymmetry_Pilot,2022.1.3,Win32,59.99880002,629c4b6caf241d5e6e00bfc0,0,12,12,34,1,twoone,,,,,,,,,,,,,,,,,,,,,,,,,,,,,,,,,,,,,,,,,,,,,,,,,,,,,,,,,,,,,,,,,,,,,,,,,,,,,,,,,,,,,,,,,,,,,,,,,,,,,,,,,,,,,,,,,,,,,,,,,,,,,,,,,,,,,,,,,,,,,
,,,,,,612ba6c594a6d54154a88ae7,629c5a43497162f0a020fbfc,2022-06-05_09h26.24.874,Colour_Asymmetry_Pilot,2022.1.3,Win32,59.99880002,629c4b6caf241d5e6e00bfc0,0,13,13,152,1,onetwo,,,,,,,,,,,,,,,,,,,,,,,,,,,,,,,,,,,,,,,,,,,,,,,,,,,,,,,,,,,,,,,,,,,,,,,,,,,,,,,,,,,,,,,,,,,,,,,,,,,,,,,,,,,,,,,,,,,,,,,,,,,,,,,,,,,,,,,,,,,,,
,,,,,,612ba6c594a6d54154a88ae7,629c5a43497162f0a020fbfc,2022-06-05_09h26.24.874,Colour_Asymmetry_Pilot,2022.1.3,Win32,59.99880002,629c4b6caf241d5e6e00bfc0,0,14,14,42,1,twoone,,,,,,,,,,,,,,,,,,,,,,,,,,,,,,,,,,,,,,,,,,,,,,,,,,,,,,,,,,,,,,,,,,,,,,,,,,,,,,,,,,,,,,,,,,,,,,,,,,,,,,,,,,,,,,,,,,,,,,,,,,,,,,,,,,,,,,,,,,,,,
,,,,,,612ba6c594a6d54154a88ae7,629c5a43497162f0a020fbfc,2022-06-05_09h26.24.874,Colour_Asymmetry_Pilot,2022.1.3,Win32,59.99880002,629c4b6caf241d5e6e00bfc0,0,15,15,99,1,twofour,,,,,,,,,,,,,,,,,,,,,,,,,,,,,,,,,,,,,,,,,,,,,,,,,,,,,,,,,,,,,,,,,,,,,,,,,,,,,,,,,,,,,,,,,,,,,,,,,,,,,,,,,,,,,,,,,,,,,,,,,,,,,,,,,,,,,,,,,,,,,
,,,,,,612ba6c594a6d54154a88ae7,629c5a43497162f0a020fbfc,2022-06-05_09h26.24.874,Colour_Asymmetry_Pilot,2022.1.3,Win32,59.99880002,629c4b6caf241d5e6e00bfc0,0,16,16,117,1,threefour,,,,,,,,,,,,,,,,,,,,,,,,,,,,,,,,,,,,,,,,,,,,,,,,,,,,,,,,,,,,,,,,,,,,,,,,,,,,,,,,,,,,,,,,,,,,,,,,,,,,,,,,,,,,,,,,,,,,,,,,,,,,,,,,,,,,,,,,,,,,,
,,,,,,612ba6c594a6d54154a88ae7,629c5a43497162f0a020fbfc,2022-06-05_09h26.24.874,Colour_Asymmetry_Pilot,2022.1.3,Win32,59.99880002,629c4b6caf241d5e6e00bfc0,0,17,17,90,1,twoone,,,,,,,,,,,,,,,,,,,,,,,,,,,,,,,,,,,,,,,,,,,,,,,,,,,,,,,,,,,,,,,,,,,,,,,,,,,,,,,,,,,,,,,,,,,,,,,,,,,,,,,,,,,,,,,,,,,,,,,,,,,,,,,,,,,,,,,,,,,,,
,,,,,,612ba6c594a6d54154a88ae7,629c5a43497162f0a020fbfc,2022-06-05_09h26.24.874,Colour_Asymmetry_Pilot,2022.1.3,Win32,59.99880002,629c4b6caf241d5e6e00bfc0,0,18,18,89,1,onethree,,,,,,,,,,,,,,,,,,,,,,,,,,,,,,,,,,,,,,,,,,,,,,,,,,,,,,,,,,,,,,,,,,,,,,,,,,,,,,,,,,,,,,,,,,,,,,,,,,,,,,,,,,,,,,,,,,,,,,,,,,,,,,,,,,,,,,,,,,,,,
,,,,,,612ba6c594a6d54154a88ae7,629c5a43497162f0a020fbfc,2022-06-05_09h26.24.874,Colour_Asymmetry_Pilot,2022.1.3,Win32,59.99880002,629c4b6caf241d5e6e00bfc0,0,19,19,156,1,threeone,,,,,,,,,,,,,,,,,,,,,,,,,,,,,,,,,,,,,,,,,,,,,,,,,,,,,,,,,,,,,,,,,,,,,,,,,,,,,,,,,,,,,,,,,,,,,,,,,,,,,,,,,,,,,,,,,,,,,,,,,,,,,,,,,,,,,,,,,,,,,
,,,,,,612ba6c594a6d54154a88ae7,629c5a43497162f0a020fbfc,2022-06-05_09h26.24.874,Colour_Asymmetry_Pilot,2022.1.3,Win32,59.99880002,629c4b6caf241d5e6e00bfc0,0,20,20,151,1,fourthree,,,,,,,,,,,,,,,,,,,,,,,,,,,,,,,,,,,,,,,,,,,,,,,,,,,,,,,,,,,,,,,,,,,,,,,,,,,,,,,,,,,,,,,,,,,,,,,,,,,,,,,,,,,,,,,,,,,,,,,,,,,,,,,,,,,,,,,,,,,,,
,,,,,,612ba6c594a6d54154a88ae7,629c5a43497162f0a020fbfc,2022-06-05_09h26.24.874,Colour_Asymmetry_Pilot,2022.1.3,Win32,59.99880002,629c4b6caf241d5e6e00bfc0,0,21,21,52,1,threeone,,,,,,,,,,,,,,,,,,,,,,,,,,,,,,,,,,,,,,,,,,,,,,,,,,,,,,,,,,,,,,,,,,,,,,,,,,,,,,,,,,,,,,,,,,,,,,,,,,,,,,,,,,,,,,,,,,,,,,,,,,,,,,,,,,,,,,,,,,,,,
,,,,,,612ba6c594a6d54154a88ae7,629c5a43497162f0a020fbfc,2022-06-05_09h26.24.874,Colour_Asymmetry_Pilot,2022.1.3,Win32,59.99880002,629c4b6caf241d5e6e00bfc0,0,22,22,88,1,onetwo,,,,,,,,,,,,,,,,,,,,,,,,,,,,,,,,,,,,,,,,,,,,,,,,,,,,,,,,,,,,,,,,,,,,,,,,,,,,,,,,,,,,,,,,,,,,,,,,,,,,,,,,,,,,,,,,,,,,,,,,,,,,,,,,,,,,,,,,,,,,,
,,,,,,612ba6c594a6d54154a88ae7,629c5a43497162f0a020fbfc,2022-06-05_09h26.24.874,Colour_Asymmetry_Pilot,2022.1.3,Win32,59.99880002,629c4b6caf241d5e6e00bfc0,0,23,23,65,1,onethree,,,,,,,,,,,,,,,,,,,,,,,,,,,,,,,,,,,,,,,,,,,,,,,,,,,,,,,,,,,,,,,,,,,,,,,,,,,,,,,,,,,,,,,,,,,,,,,,,,,,,,,,,,,,,,,,,,,,,,,,,,,,,,,,,,,,,,,,,,,,,
,,,,,,612ba6c594a6d54154a88ae7,629c5a43497162f0a020fbfc,2022-06-05_09h26.24.874,Colour_Asymmetry_Pilot,2022.1.3,Win32,59.99880002,629c4b6caf241d5e6e00bfc0,0,24,24,17,1,onethree,,,,,,,,,,,,,,,,,,,,,,,,,,,,,,,,,,,,,,,,,,,,,,,,,,,,,,,,,,,,,,,,,,,,,,,,,,,,,,,,,,,,,,,,,,,,,,,,,,,,,,,,,,,,,,,,,,,,,,,,,,,,,,,,,,,,,,,,,,,,,
,,,,,,612ba6c594a6d54154a88ae7,629c5a43497162f0a020fbfc,2022-06-05_09h26.24.874,Colour_Asymmetry_Pilot,2022.1.3,Win32,59.99880002,629c4b6caf241d5e6e00bfc0,0,25,25,154,1,twoone,,,,,,,,,,,,,,,,,,,,,,,,,,,,,,,,,,,,,,,,,,,,,,,,,,,,,,,,,,,,,,,,,,,,,,,,,,,,,,,,,,,,,,,,,,,,,,,,,,,,,,,,,,,,,,,,,,,,,,,,,,,,,,,,,,,,,,,,,,,,,
,,,,,,612ba6c594a6d54154a88ae7,629c5a43497162f0a020fbfc,2022-06-05_09h26.24.874,Colour_Asymmetry_Pilot,2022.1.3,Win32,59.99880002,629c4b6caf241d5e6e00bfc0,0,26,26,126,1,fourtwo,,,,,,,,,,,,,,,,,,,,,,,,,,,,,,,,,,,,,,,,,,,,,,,,,,,,,,,,,,,,,,,,,,,,,,,,,,,,,,,,,,,,,,,,,,,,,,,,,,,,,,,,,,,,,,,,,,,,,,,,,,,,,,,,,,,,,,,,,,,,,
,,,,,,612ba6c594a6d54154a88ae7,629c5a43497162f0a020fbfc,2022-06-05_09h26.24.874,Colour_Asymmetry_Pilot,2022.1.3,Win32,59.99880002,629c4b6caf241d5e6e00bfc0,0,27,27,6,1,fourtwo,,,,,,,,,,,,,,,,,,,,,,,,,,,,,,,,,,,,,,,,,,,,,,,,,,,,,,,,,,,,,,,,,,,,,,,,,,,,,,,,,,,,,,,,,,,,,,,,,,,,,,,,,,,,,,,,,,,,,,,,,,,,,,,,,,,,,,,,,,,,,
,,,,,,612ba6c594a6d54154a88ae7,629c5a43497162f0a020fbfc,2022-06-05_09h26.24.874,Colour_Asymmetry_Pilot,2022.1.3,Win32,59.99880002,629c4b6caf241d5e6e00bfc0,0,28,28,93,1,threefour,,,,,,,,,,,,,,,,,,,,,,,,,,,,,,,,,,,,,,,,,,,,,,,,,,,,,,,,,,,,,,,,,,,,,,,,,,,,,,,,,,,,,,,,,,,,,,,,,,,,,,,,,,,,,,,,,,,,,,,,,,,,,,,,,,,,,,,,,,,,,
,,,,,,612ba6c594a6d54154a88ae7,629c5a43497162f0a020fbfc,2022-06-05_09h26.24.874,Colour_Asymmetry_Pilot,2022.1.3,Win32,59.99880002,629c4b6caf241d5e6e00bfc0,0,29,29,140,1,threeone,,,,,,,,,,,,,,,,,,,,,,,,,,,,,,,,,,,,,,,,,,,,,,,,,,,,,,,,,,,,,,,,,,,,,,,,,,,,,,,,,,,,,,,,,,,,,,,,,,,,,,,,,,,,,,,,,,,,,,,,,,,,,,,,,,,,,,,,,,,,,
,,,,,,612ba6c594a6d54154a88ae7,629c5a43497162f0a020fbfc,2022-06-05_09h26.24.874,Colour_Asymmetry_Pilot,2022.1.3,Win32,59.99880002,629c4b6caf241d5e6e00bfc0,0,30,30,138,1,twoone,,,,,,,,,,,,,,,,,,,,,,,,,,,,,,,,,,,,,,,,,,,,,,,,,,,,,,,,,,,,,,,,,,,,,,,,,,,,,,,,,,,,,,,,,,,,,,,,,,,,,,,,,,,,,,,,,,,,,,,,,,,,,,,,,,,,,,,,,,,,,
,,,,,,612ba6c594a6d54154a88ae7,629c5a43497162f0a020fbfc,2022-06-05_09h26.24.874,Colour_Asymmetry_Pilot,2022.1.3,Win32,59.99880002,629c4b6caf241d5e6e00bfc0,0,31,31,130,1,twoone,,,,,,,,,,,,,,,,,,,,,,,,,,,,,,,,,,,,,,,,,,,,,,,,,,,,,,,,,,,,,,,,,,,,,,,,,,,,,,,,,,,,,,,,,,,,,,,,,,,,,,,,,,,,,,,,,,,,,,,,,,,,,,,,,,,,,,,,,,,,,
,,,,,,612ba6c594a6d54154a88ae7,629c5a43497162f0a020fbfc,2022-06-05_09h26.24.874,Colour_Asymmetry_Pilot,2022.1.3,Win32,59.99880002,629c4b6caf241d5e6e00bfc0,0,32,32,31,1,fourthree,,,,,,,,,,,,,,,,,,,,,,,,,,,,,,,,,,,,,,,,,,,,,,,,,,,,,,,,,,,,,,,,,,,,,,,,,,,,,,,,,,,,,,,,,,,,,,,,,,,,,,,,,,,,,,,,,,,,,,,,,,,,,,,,,,,,,,,,,,,,,
,,,,,,612ba6c594a6d54154a88ae7,629c5a43497162f0a020fbfc,2022-06-05_09h26.24.874,Colour_Asymmetry_Pilot,2022.1.3,Win32,59.99880002,629c4b6caf241d5e6e00bfc0,0,33,33,143,1,fourthree,,,,,,,,,,,,,,,,,,,,,,,,,,,,,,,,,,,,,,,,,,,,,,,,,,,,,,,,,,,,,,,,,,,,,,,,,,,,,,,,,,,,,,,,,,,,,,,,,,,,,,,,,,,,,,,,,,,,,,,,,,,,,,,,,,,,,,,,,,,,,
,,,,,,612ba6c594a6d54154a88ae7,629c5a43497162f0a020fbfc,2022-06-05_09h26.24.874,Colour_Asymmetry_Pilot,2022.1.3,Win32,59.99880002,629c4b6caf241d5e6e00bfc0,0,34,34,133,1,threefour,,,,,,,,,,,,,,,,,,,,,,,,,,,,,,,,,,,,,,,,,,,,,,,,,,,,,,,,,,,,,,,,,,,,,,,,,,,,,,,,,,,,,,,,,,,,,,,,,,,,,,,,,,,,,,,,,,,,,,,,,,,,,,,,,,,,,,,,,,,,,
,,,,,,612ba6c594a6d54154a88ae7,629c5a43497162f0a020fbfc,2022-06-05_09h26.24.874,Colour_Asymmetry_Pilot,2022.1.3,Win32,59.99880002,629c4b6caf241d5e6e00bfc0,0,35,35,102,1,fourtwo,,,,,,,,,,,,,,,,,,,,,,,,,,,,,,,,,,,,,,,,,,,,,,,,,,,,,,,,,,,,,,,,,,,,,,,,,,,,,,,,,,,,,,,,,,,,,,,,,,,,,,,,,,,,,,,,,,,,,,,,,,,,,,,,,,,,,,,,,,,,,
,,,,,,612ba6c594a6d54154a88ae7,629c5a43497162f0a020fbfc,2022-06-05_09h26.24.874,Colour_Asymmetry_Pilot,2022.1.3,Win32,59.99880002,629c4b6caf241d5e6e00bfc0,0,36,36,61,1,threefour,,,,,,,,,,,,,,,,,,,,,,,,,,,,,,,,,,,,,,,,,,,,,,,,,,,,,,,,,,,,,,,,,,,,,,,,,,,,,,,,,,,,,,,,,,,,,,,,,,,,,,,,,,,,,,,,,,,,,,,,,,,,,,,,,,,,,,,,,,,,,
,,,,,,612ba6c594a6d54154a88ae7,629c5a43497162f0a020fbfc,2022-06-05_09h26.24.874,Colour_Asymmetry_Pilot,2022.1.3,Win32,59.99880002,629c4b6caf241d5e6e00bfc0,0,37,37,21,1,threefour,,,,,,,,,,,,,,,,,,,,,,,,,,,,,,,,,,,,,,,,,,,,,,,,,,,,,,,,,,,,,,,,,,,,,,,,,,,,,,,,,,,,,,,,,,,,,,,,,,,,,,,,,,,,,,,,,,,,,,,,,,,,,,,,,,,,,,,,,,,,,
,,,,,,612ba6c594a6d54154a88ae7,629c5a43497162f0a020fbfc,2022-06-05_09h26.24.874,Colour_Asymmetry_Pilot,2022.1.3,Win32,59.99880002,629c4b6caf241d5e6e00bfc0,0,38,38,49,1,onethree,,,,,,,,,,,,,,,,,,,,,,,,,,,,,,,,,,,,,,,,,,,,,,,,,,,,,,,,,,,,,,,,,,,,,,,,,,,,,,,,,,,,,,,,,,,,,,,,,,,,,,,,,,,,,,,,,,,,,,,,,,,,,,,,,,,,,,,,,,,,,
,,,,,,612ba6c594a6d54154a88ae7,629c5a43497162f0a020fbfc,2022-06-05_09h26.24.874,Colour_Asymmetry_Pilot,2022.1.3,Win32,59.99880002,629c4b6caf241d5e6e00bfc0,0,39,39,38,1,fourtwo,,,,,,,,,,,,,,,,,,,,,,,,,,,,,,,,,,,,,,,,,,,,,,,,,,,,,,,,,,,,,,,,,,,,,,,,,,,,,,,,,,,,,,,,,,,,,,,,,,,,,,,,,,,,,,,,,,,,,,,,,,,,,,,,,,,,,,,,,,,,,
,,,,,,612ba6c594a6d54154a88ae7,629c5a43497162f0a020fbfc,2022-06-05_09h26.24.874,Colour_Asymmetry_Pilot,2022.1.3,Win32,59.99880002,629c4b6caf241d5e6e00bfc0,0,40,40,22,1,fourtwo,,,,,,,,,,,,,,,,,,,,,,,,,,,,,,,,,,,,,,,,,,,,,,,,,,,,,,,,,,,,,,,,,,,,,,,,,,,,,,,,,,,,,,,,,,,,,,,,,,,,,,,,,,,,,,,,,,,,,,,,,,,,,,,,,,,,,,,,,,,,,
,,,,,,612ba6c594a6d54154a88ae7,629c5a43497162f0a020fbfc,2022-06-05_09h26.24.874,Colour_Asymmetry_Pilot,2022.1.3,Win32,59.99880002,629c4b6caf241d5e6e00bfc0,0,41,41,107,1,twofour,,,,,,,,,,,,,,,,,,,,,,,,,,,,,,,,,,,,,,,,,,,,,,,,,,,,,,,,,,,,,,,,,,,,,,,,,,,,,,,,,,,,,,,,,,,,,,,,,,,,,,,,,,,,,,,,,,,,,,,,,,,,,,,,,,,,,,,,,,,,,
,,,,,,612ba6c594a6d54154a88ae7,629c5a43497162f0a020fbfc,2022-06-05_09h26.24.874,Colour_Asymmetry_Pilot,2022.1.3,Win32,59.99880002,629c4b6caf241d5e6e00bfc0,0,42,42,47,1,fourthree,,,,,,,,,,,,,,,,,,,,,,,,,,,,,,,,,,,,,,,,,,,,,,,,,,,,,,,,,,,,,,,,,,,,,,,,,,,,,,,,,,,,,,,,,,,,,,,,,,,,,,,,,,,,,,,,,,,,,,,,,,,,,,,,,,,,,,,,,,,,,
,,,,,,612ba6c594a6d54154a88ae7,629c5a43497162f0a020fbfc,2022-06-05_09h26.24.874,Colour_Asymmetry_Pilot,2022.1.3,Win32,59.99880002,629c4b6caf241d5e6e00bfc0,0,43,43,74,1,twoone,,,,,,,,,,,,,,,,,,,,,,,,,,,,,,,,,,,,,,,,,,,,,,,,,,,,,,,,,,,,,,,,,,,,,,,,,,,,,,,,,,,,,,,,,,,,,,,,,,,,,,,,,,,,,,,,,,,,,,,,,,,,,,,,,,,,,,,,,,,,,
,,,,,,612ba6c594a6d54154a88ae7,629c5a43497162f0a020fbfc,2022-06-05_09h26.24.874,Colour_Asymmetry_Pilot,2022.1.3,Win32,59.99880002,629c4b6caf241d5e6e00bfc0,0,44,44,60,1,threeone,,,,,,,,,,,,,,,,,,,,,,,,,,,,,,,,,,,,,,,,,,,,,,,,,,,,,,,,,,,,,,,,,,,,,,,,,,,,,,,,,,,,,,,,,,,,,,,,,,,,,,,,,,,,,,,,,,,,,,,,,,,,,,,,,,,,,,,,,,,,,
,,,,,,612ba6c594a6d54154a88ae7,629c5a43497162f0a020fbfc,2022-06-05_09h26.24.874,Colour_Asymmetry_Pilot,2022.1.3,Win32,59.99880002,629c4b6caf241d5e6e00bfc0,0,45,45,111,1,fourthree,,,,,,,,,,,,,,,,,,,,,,,,,,,,,,,,,,,,,,,,,,,,,,,,,,,,,,,,,,,,,,,,,,,,,,,,,,,,,,,,,,,,,,,,,,,,,,,,,,,,,,,,,,,,,,,,,,,,,,,,,,,,,,,,,,,,,,,,,,,,,
,,,,,,612ba6c594a6d54154a88ae7,629c5a43497162f0a020fbfc,2022-06-05_09h26.24.874,Colour_Asymmetry_Pilot,2022.1.3,Win32,59.99880002,629c4b6caf241d5e6e00bfc0,0,46,46,94,1,fourtwo,,,,,,,,,,,,,,,,,,,,,,,,,,,,,,,,,,,,,,,,,,,,,,,,,,,,,,,,,,,,,,,,,,,,,,,,,,,,,,,,,,,,,,,,,,,,,,,,,,,,,,,,,,,,,,,,,,,,,,,,,,,,,,,,,,,,,,,,,,,,,
,,,,,,612ba6c594a6d54154a88ae7,629c5a43497162f0a020fbfc,2022-06-05_09h26.24.874,Colour_Asymmetry_Pilot,2022.1.3,Win32,59.99880002,629c4b6caf241d5e6e00bfc0,0,47,47,3,1,twofour,,,,,,,,,,,,,,,,,,,,,,,,,,,,,,,,,,,,,,,,,,,,,,,,,,,,,,,,,,,,,,,,,,,,,,,,,,,,,,,,,,,,,,,,,,,,,,,,,,,,,,,,,,,,,,,,,,,,,,,,,,,,,,,,,,,,,,,,,,,,,
,,,,,,612ba6c594a6d54154a88ae7,629c5a43497162f0a020fbfc,2022-06-05_09h26.24.874,Colour_Asymmetry_Pilot,2022.1.3,Win32,59.99880002,629c4b6caf241d5e6e00bfc0,0,48,48,112,1,onetwo,,,,,,,,,,,,,,,,,,,,,,,,,,,,,,,,,,,,,,,,,,,,,,,,,,,,,,,,,,,,,,,,,,,,,,,,,,,,,,,,,,,,,,,,,,,,,,,,,,,,,,,,,,,,,,,,,,,,,,,,,,,,,,,,,,,,,,,,,,,,,
,,,,,,612ba6c594a6d54154a88ae7,629c5a43497162f0a020fbfc,2022-06-05_09h26.24.874,Colour_Asymmetry_Pilot,2022.1.3,Win32,59.99880002,629c4b6caf241d5e6e00bfc0,0,49,49,50,1,twoone,,,,,,,,,,,,,,,,,,,,,,,,,,,,,,,,,,,,,,,,,,,,,,,,,,,,,,,,,,,,,,,,,,,,,,,,,,,,,,,,,,,,,,,,,,,,,,,,,,,,,,,,,,,,,,,,,,,,,,,,,,,,,,,,,,,,,,,,,,,,,
,,,,,,612ba6c594a6d54154a88ae7,629c5a43497162f0a020fbfc,2022-06-05_09h26.24.874,Colour_Asymmetry_Pilot,2022.1.3,Win32,59.99880002,629c4b6caf241d5e6e00bfc0,0,50,50,76,1,threeone,,,,,,,,,,,,,,,,,,,,,,,,,,,,,,,,,,,,,,,,,,,,,,,,,,,,,,,,,,,,,,,,,,,,,,,,,,,,,,,,,,,,,,,,,,,,,,,,,,,,,,,,,,,,,,,,,,,,,,,,,,,,,,,,,,,,,,,,,,,,,
,,,,,,612ba6c594a6d54154a88ae7,629c5a43497162f0a020fbfc,2022-06-05_09h26.24.874,Colour_Asymmetry_Pilot,2022.1.3,Win32,59.99880002,629c4b6caf241d5e6e00bfc0,0,51,51,71,1,fourthree,,,,,,,,,,,,,,,,,,,,,,,,,,,,,,,,,,,,,,,,,,,,,,,,,,,,,,,,,,,,,,,,,,,,,,,,,,,,,,,,,,,,,,,,,,,,,,,,,,,,,,,,,,,,,,,,,,,,,,,,,,,,,,,,,,,,,,,,,,,,,
,,,,,,612ba6c594a6d54154a88ae7,629c5a43497162f0a020fbfc,2022-06-05_09h26.24.874,Colour_Asymmetry_Pilot,2022.1.3,Win32,59.99880002,629c4b6caf241d5e6e00bfc0,0,52,52,106,1,twoone,,,,,,,,,,,,,,,,,,,,,,,,,,,,,,,,,,,,,,,,,,,,,,,,,,,,,,,,,,,,,,,,,,,,,,,,,,,,,,,,,,,,,,,,,,,,,,,,,,,,,,,,,,,,,,,,,,,,,,,,,,,,,,,,,,,,,,,,,,,,,
,,,,,,612ba6c594a6d54154a88ae7,629c5a43497162f0a020fbfc,2022-06-05_09h26.24.874,Colour_Asymmetry_Pilot,2022.1.3,Win32,59.99880002,629c4b6caf241d5e6e00bfc0,0,53,53,95,1,fourthree,,,,,,,,,,,,,,,,,,,,,,,,,,,,,,,,,,,,,,,,,,,,,,,,,,,,,,,,,,,,,,,,,,,,,,,,,,,,,,,,,,,,,,,,,,,,,,,,,,,,,,,,,,,,,,,,,,,,,,,,,,,,,,,,,,,,,,,,,,,,,
,,,,,,612ba6c594a6d54154a88ae7,629c5a43497162f0a020fbfc,2022-06-05_09h26.24.874,Colour_Asymmetry_Pilot,2022.1.3,Win32,59.99880002,629c4b6caf241d5e6e00bfc0,0,54,54,26,1,twoone,,,,,,,,,,,,,,,,,,,,,,,,,,,,,,,,,,,,,,,,,,,,,,,,,,,,,,,,,,,,,,,,,,,,,,,,,,,,,,,,,,,,,,,,,,,,,,,,,,,,,,,,,,,,,,,,,,,,,,,,,,,,,,,,,,,,,,,,,,,,,
,,,,,,612ba6c594a6d54154a88ae7,629c5a43497162f0a020fbfc,2022-06-05_09h26.24.874,Colour_Asymmetry_Pilot,2022.1.3,Win32,59.99880002,629c4b6caf241d5e6e00bfc0,0,55,55,56,1,onetwo,,,,,,,,,,,,,,,,,,,,,,,,,,,,,,,,,,,,,,,,,,,,,,,,,,,,,,,,,,,,,,,,,,,,,,,,,,,,,,,,,,,,,,,,,,,,,,,,,,,,,,,,,,,,,,,,,,,,,,,,,,,,,,,,,,,,,,,,,,,,,
,,,,,,612ba6c594a6d54154a88ae7,629c5a43497162f0a020fbfc,2022-06-05_09h26.24.874,Colour_Asymmetry_Pilot,2022.1.3,Win32,59.99880002,629c4b6caf241d5e6e00bfc0,0,56,56,131,1,twofour,,,,,,,,,,,,,,,,,,,,,,,,,,,,,,,,,,,,,,,,,,,,,,,,,,,,,,,,,,,,,,,,,,,,,,,,,,,,,,,,,,,,,,,,,,,,,,,,,,,,,,,,,,,,,,,,,,,,,,,,,,,,,,,,,,,,,,,,,,,,,
,,,,,,612ba6c594a6d54154a88ae7,629c5a43497162f0a020fbfc,2022-06-05_09h26.24.874,Colour_Asymmetry_Pilot,2022.1.3,Win32,59.99880002,629c4b6caf241d5e6e00bfc0,0,57,57,118,1,fourtwo,,,,,,,,,,,,,,,,,,,,,,,,,,,,,,,,,,,,,,,,,,,,,,,,,,,,,,,,,,,,,,,,,,,,,,,,,,,,,,,,,,,,,,,,,,,,,,,,,,,,,,,,,,,,,,,,,,,,,,,,,,,,,,,,,,,,,,,,,,,,,
,,,,,,612ba6c594a6d54154a88ae7,629c5a43497162f0a020fbfc,2022-06-05_09h26.24.874,Colour_Asymmetry_Pilot,2022.1.3,Win32,59.99880002,629c4b6caf241d5e6e00bfc0,0,58,58,55,1,fourthree,,,,,,,,,,,,,,,,,,,,,,,,,,,,,,,,,,,,,,,,,,,,,,,,,,,,,,,,,,,,,,,,,,,,,,,,,,,,,,,,,,,,,,,,,,,,,,,,,,,,,,,,,,,,,,,,,,,,,,,,,,,,,,,,,,,,,,,,,,,,,
,,,,,,612ba6c594a6d54154a88ae7,629c5a43497162f0a020fbfc,2022-06-05_09h26.24.874,Colour_Asymmetry_Pilot,2022.1.3,Win32,59.99880002,629c4b6caf241d5e6e00bfc0,0,59,59,137,1,onethree,,,,,,,,,,,,,,,,,,,,,,,,,,,,,,,,,,,,,,,,,,,,,,,,,,,,,,,,,,,,,,,,,,,,,,,,,,,,,,,,,,,,,,,,,,,,,,,,,,,,,,,,,,,,,,,,,,,,,,,,,,,,,,,,,,,,,,,,,,,,,
,,,,,,612ba6c594a6d54154a88ae7,629c5a43497162f0a020fbfc,2022-06-05_09h26.24.874,Colour_Asymmetry_Pilot,2022.1.3,Win32,59.99880002,629c4b6caf241d5e6e00bfc0,0,60,60,157,1,threefour,,,,,,,,,,,,,,,,,,,,,,,,,,,,,,,,,,,,,,,,,,,,,,,,,,,,,,,,,,,,,,,,,,,,,,,,,,,,,,,,,,,,,,,,,,,,,,,,,,,,,,,,,,,,,,,,,,,,,,,,,,,,,,,,,,,,,,,,,,,,,
,,,,,,612ba6c594a6d54154a88ae7,629c5a43497162f0a020fbfc,2022-06-05_09h26.24.874,Colour_Asymmetry_Pilot,2022.1.3,Win32,59.99880002,629c4b6caf241d5e6e00bfc0,0,61,61,158,1,fourtwo,,,,,,,,,,,,,,,,,,,,,,,,,,,,,,,,,,,,,,,,,,,,,,,,,,,,,,,,,,,,,,,,,,,,,,,,,,,,,,,,,,,,,,,,,,,,,,,,,,,,,,,,,,,,,,,,,,,,,,,,,,,,,,,,,,,,,,,,,,,,,
,,,,,,612ba6c594a6d54154a88ae7,629c5a43497162f0a020fbfc,2022-06-05_09h26.24.874,Colour_Asymmetry_Pilot,2022.1.3,Win32,59.99880002,629c4b6caf241d5e6e00bfc0,0,62,62,12,1,threeone,,,,,,,,,,,,,,,,,,,,,,,,,,,,,,,,,,,,,,,,,,,,,,,,,,,,,,,,,,,,,,,,,,,,,,,,,,,,,,,,,,,,,,,,,,,,,,,,,,,,,,,,,,,,,,,,,,,,,,,,,,,,,,,,,,,,,,,,,,,,,
,,,,,,612ba6c594a6d54154a88ae7,629c5a43497162f0a020fbfc,2022-06-05_09h26.24.874,Colour_Asymmetry_Pilot,2022.1.3,Win32,59.99880002,629c4b6caf241d5e6e00bfc0,0,63,63,35,1,twofour,,,,,,,,,,,,,,,,,,,,,,,,,,,,,,,,,,,,,,,,,,,,,,,,,,,,,,,,,,,,,,,,,,,,,,,,,,,,,,,,,,,,,,,,,,,,,,,,,,,,,,,,,,,,,,,,,,,,,,,,,,,,,,,,,,,,,,,,,,,,,
,,,,,,612ba6c594a6d54154a88ae7,629c5a43497162f0a020fbfc,2022-06-05_09h26.24.874,Colour_Asymmetry_Pilot,2022.1.3,Win32,59.99880002,629c4b6caf241d5e6e00bfc0,0,64,64,97,1,onethree,,,,,,,,,,,,,,,,,,,,,,,,,,,,,,,,,,,,,,,,,,,,,,,,,,,,,,,,,,,,,,,,,,,,,,,,,,,,,,,,,,,,,,,,,,,,,,,,,,,,,,,,,,,,,,,,,,,,,,,,,,,,,,,,,,,,,,,,,,,,,
,,,,,,612ba6c594a6d54154a88ae7,629c5a43497162f0a020fbfc,2022-06-05_09h26.24.874,Colour_Asymmetry_Pilot,2022.1.3,Win32,59.99880002,629c4b6caf241d5e6e00bfc0,0,65,65,108,1,threeone,,,,,,,,,,,,,,,,,,,,,,,,,,,,,,,,,,,,,,,,,,,,,,,,,,,,,,,,,,,,,,,,,,,,,,,,,,,,,,,,,,,,,,,,,,,,,,,,,,,,,,,,,,,,,,,,,,,,,,,,,,,,,,,,,,,,,,,,,,,,,
,,,,,,612ba6c594a6d54154a88ae7,629c5a43497162f0a020fbfc,2022-06-05_09h26.24.874,Colour_Asymmetry_Pilot,2022.1.3,Win32,59.99880002,629c4b6caf241d5e6e00bfc0,0,66,66,16,1,onetwo,,,,,,,,,,,,,,,,,,,,,,,,,,,,,,,,,,,,,,,,,,,,,,,,,,,,,,,,,,,,,,,,,,,,,,,,,,,,,,,,,,,,,,,,,,,,,,,,,,,,,,,,,,,,,,,,,,,,,,,,,,,,,,,,,,,,,,,,,,,,,
,,,,,,612ba6c594a6d54154a88ae7,629c5a43497162f0a020fbfc,2022-06-05_09h26.24.874,Colour_Asymmetry_Pilot,2022.1.3,Win32,59.99880002,629c4b6caf241d5e6e00bfc0,0,67,67,82,1,twoone,,,,,,,,,,,,,,,,,,,,,,,,,,,,,,,,,,,,,,,,,,,,,,,,,,,,,,,,,,,,,,,,,,,,,,,,,,,,,,,,,,,,,,,,,,,,,,,,,,,,,,,,,,,,,,,,,,,,,,,,,,,,,,,,,,,,,,,,,,,,,
,,,,,,612ba6c594a6d54154a88ae7,629c5a43497162f0a020fbfc,2022-06-05_09h26.24.874,Colour_Asymmetry_Pilot,2022.1.3,Win32,59.99880002,629c4b6caf241d5e6e00bfc0,0,68,68,121,1,onethree,,,,,,,,,,,,,,,,,,,,,,,,,,,,,,,,,,,,,,,,,,,,,,,,,,,,,,,,,,,,,,,,,,,,,,,,,,,,,,,,,,,,,,,,,,,,,,,,,,,,,,,,,,,,,,,,,,,,,,,,,,,,,,,,,,,,,,,,,,,,,
,,,,,,612ba6c594a6d54154a88ae7,629c5a43497162f0a020fbfc,2022-06-05_09h26.24.874,Colour_Asymmetry_Pilot,2022.1.3,Win32,59.99880002,629c4b6caf241d5e6e00bfc0,0,69,69,59,1,twofour,,,,,,,,,,,,,,,,,,,,,,,,,,,,,,,,,,,,,,,,,,,,,,,,,,,,,,,,,,,,,,,,,,,,,,,,,,,,,,,,,,,,,,,,,,,,,,,,,,,,,,,,,,,,,,,,,,,,,,,,,,,,,,,,,,,,,,,,,,,,,
,,,,,,612ba6c594a6d54154a88ae7,629c5a43497162f0a020fbfc,2022-06-05_09h26.24.874,Colour_Asymmetry_Pilot,2022.1.3,Win32,59.99880002,629c4b6caf241d5e6e00bfc0,0,70,70,48,1,onetwo,,,,,,,,,,,,,,,,,,,,,,,,,,,,,,,,,,,,,,,,,,,,,,,,,,,,,,,,,,,,,,,,,,,,,,,,,,,,,,,,,,,,,,,,,,,,,,,,,,,,,,,,,,,,,,,,,,,,,,,,,,,,,,,,,,,,,,,,,,,,,
,,,,,,612ba6c594a6d54154a88ae7,629c5a43497162f0a020fbfc,2022-06-05_09h26.24.874,Colour_Asymmetry_Pilot,2022.1.3,Win32,59.99880002,629c4b6caf241d5e6e00bfc0,0,71,71,150,1,fourtwo,,,,,,,,,,,,,,,,,,,,,,,,,,,,,,,,,,,,,,,,,,,,,,,,,,,,,,,,,,,,,,,,,,,,,,,,,,,,,,,,,,,,,,,,,,,,,,,,,,,,,,,,,,,,,,,,,,,,,,,,,,,,,,,,,,,,,,,,,,,,,
,,,,,,612ba6c594a6d54154a88ae7,629c5a43497162f0a020fbfc,2022-06-05_09h26.24.874,Colour_Asymmetry_Pilot,2022.1.3,Win32,59.99880002,629c4b6caf241d5e6e00bfc0,0,72,72,40,1,onetwo,,,,,,,,,,,,,,,,,,,,,,,,,,,,,,,,,,,,,,,,,,,,,,,,,,,,,,,,,,,,,,,,,,,,,,,,,,,,,,,,,,,,,,,,,,,,,,,,,,,,,,,,,,,,,,,,,,,,,,,,,,,,,,,,,,,,,,,,,,,,,
,,,,,,612ba6c594a6d54154a88ae7,629c5a43497162f0a020fbfc,2022-06-05_09h26.24.874,Colour_Asymmetry_Pilot,2022.1.3,Win32,59.99880002,629c4b6caf241d5e6e00bfc0,0,73,73,25,1,onethree,,,,,,,,,,,,,,,,,,,,,,,,,,,,,,,,,,,,,,,,,,,,,,,,,,,,,,,,,,,,,,,,,,,,,,,,,,,,,,,,,,,,,,,,,,,,,,,,,,,,,,,,,,,,,,,,,,,,,,,,,,,,,,,,,,,,,,,,,,,,,
,,,,,,612ba6c594a6d54154a88ae7,629c5a43497162f0a020fbfc,2022-06-05_09h26.24.874,Colour_Asymmetry_Pilot,2022.1.3,Win32,59.99880002,629c4b6caf241d5e6e00bfc0,0,74,74,160,1,onetwo,,,,,,,,,,,,,,,,,,,,,,,,,,,,,,,,,,,,,,,,,,,,,,,,,,,,,,,,,,,,,,,,,,,,,,,,,,,,,,,,,,,,,,,,,,,,,,,,,,,,,,,,,,,,,,,,,,,,,,,,,,,,,,,,,,,,,,,,,,,,,
,,,,,,612ba6c594a6d54154a88ae7,629c5a43497162f0a020fbfc,2022-06-05_09h26.24.874,Colour_Asymmetry_Pilot,2022.1.3,Win32,59.99880002,629c4b6caf241d5e6e00bfc0,0,75,75,30,1,fourtwo,,,,,,,,,,,,,,,,,,,,,,,,,,,,,,,,,,,,,,,,,,,,,,,,,,,,,,,,,,,,,,,,,,,,,,,,,,,,,,,,,,,,,,,,,,,,,,,,,,,,,,,,,,,,,,,,,,,,,,,,,,,,,,,,,,,,,,,,,,,,,
,,,,,,612ba6c594a6d54154a88ae7,629c5a43497162f0a020fbfc,2022-06-05_09h26.24.874,Colour_Asymmetry_Pilot,2022.1.3,Win32,59.99880002,629c4b6caf241d5e6e00bfc0,0,76,76,10,1,twoone,,,,,,,,,,,,,,,,,,,,,,,,,,,,,,,,,,,,,,,,,,,,,,,,,,,,,,,,,,,,,,,,,,,,,,,,,,,,,,,,,,,,,,,,,,,,,,,,,,,,,,,,,,,,,,,,,,,,,,,,,,,,,,,,,,,,,,,,,,,,,
,,,,,,612ba6c594a6d54154a88ae7,629c5a43497162f0a020fbfc,2022-06-05_09h26.24.874,Colour_Asymmetry_Pilot,2022.1.3,Win32,59.99880002,629c4b6caf241d5e6e00bfc0,0,77,77,11,1,twofour,,,,,,,,,,,,,,,,,,,,,,,,,,,,,,,,,,,,,,,,,,,,,,,,,,,,,,,,,,,,,,,,,,,,,,,,,,,,,,,,,,,,,,,,,,,,,,,,,,,,,,,,,,,,,,,,,,,,,,,,,,,,,,,,,,,,,,,,,,,,,
,,,,,,612ba6c594a6d54154a88ae7,629c5a43497162f0a020fbfc,2022-06-05_09h26.24.874,Colour_Asymmetry_Pilot,2022.1.3,Win32,59.99880002,629c4b6caf241d5e6e00bfc0,0,78,78,110,1,fourtwo,,,,,,,,,,,,,,,,,,,,,,,,,,,,,,,,,,,,,,,,,,,,,,,,,,,,,,,,,,,,,,,,,,,,,,,,,,,,,,,,,,,,,,,,,,,,,,,,,,,,,,,,,,,,,,,,,,,,,,,,,,,,,,,,,,,,,,,,,,,,,
,,,,,,612ba6c594a6d54154a88ae7,629c5a43497162f0a020fbfc,2022-06-05_09h26.24.874,Colour_Asymmetry_Pilot,2022.1.3,Win32,59.99880002,629c4b6caf241d5e6e00bfc0,0,79,79,44,1,threeone,,,,,,,,,,,,,,,,,,,,,,,,,,,,,,,,,,,,,,,,,,,,,,,,,,,,,,,,,,,,,,,,,,,,,,,,,,,,,,,,,,,,,,,,,,,,,,,,,,,,,,,,,,,,,,,,,,,,,,,,,,,,,,,,,,,,,,,,,,,,,
,,,,,,612ba6c594a6d54154a88ae7,629c5a43497162f0a020fbfc,2022-06-05_09h26.24.874,Colour_Asymmetry_Pilot,2022.1.3,Win32,59.99880002,629c4b6caf241d5e6e00bfc0,0,80,80,51,1,twofour,,,,,,,,,,,,,,,,,,,,,,,,,,,,,,,,,,,,,,,,,,,,,,,,,,,,,,,,,,,,,,,,,,,,,,,,,,,,,,,,,,,,,,,,,,,,,,,,,,,,,,,,,,,,,,,,,,,,,,,,,,,,,,,,,,,,,,,,,,,,,
,,,,,,612ba6c594a6d54154a88ae7,629c5a43497162f0a020fbfc,2022-06-05_09h26.24.874,Colour_Asymmetry_Pilot,2022.1.3,Win32,59.99880002,629c4b6caf241d5e6e00bfc0,0,81,81,14,1,fourtwo,,,,,,,,,,,,,,,,,,,,,,,,,,,,,,,,,,,,,,,,,,,,,,,,,,,,,,,,,,,,,,,,,,,,,,,,,,,,,,,,,,,,,,,,,,,,,,,,,,,,,,,,,,,,,,,,,,,,,,,,,,,,,,,,,,,,,,,,,,,,,
,,,,,,612ba6c594a6d54154a88ae7,629c5a43497162f0a020fbfc,2022-06-05_09h26.24.874,Colour_Asymmetry_Pilot,2022.1.3,Win32,59.99880002,629c4b6caf241d5e6e00bfc0,0,82,82,136,1,onetwo,,,,,,,,,,,,,,,,,,,,,,,,,,,,,,,,,,,,,,,,,,,,,,,,,,,,,,,,,,,,,,,,,,,,,,,,,,,,,,,,,,,,,,,,,,,,,,,,,,,,,,,,,,,,,,,,,,,,,,,,,,,,,,,,,,,,,,,,,,,,,
,,,,,,612ba6c594a6d54154a88ae7,629c5a43497162f0a020fbfc,2022-06-05_09h26.24.874,Colour_Asymmetry_Pilot,2022.1.3,Win32,59.99880002,629c4b6caf241d5e6e00bfc0,0,83,83,28,1,threeone,,,,,,,,,,,,,,,,,,,,,,,,,,,,,,,,,,,,,,,,,,,,,,,,,,,,,,,,,,,,,,,,,,,,,,,,,,,,,,,,,,,,,,,,,,,,,,,,,,,,,,,,,,,,,,,,,,,,,,,,,,,,,,,,,,,,,,,,,,,,,
,,,,,,612ba6c594a6d54154a88ae7,629c5a43497162f0a020fbfc,2022-06-05_09h26.24.874,Colour_Asymmetry_Pilot,2022.1.3,Win32,59.99880002,629c4b6caf241d5e6e00bfc0,0,84,84,0,1,onetwo,,,,,,,,,,,,,,,,,,,,,,,,,,,,,,,,,,,,,,,,,,,,,,,,,,,,,,,,,,,,,,,,,,,,,,,,,,,,,,,,,,,,,,,,,,,,,,,,,,,,,,,,,,,,,,,,,,,,,,,,,,,,,,,,,,,,,,,,,,,,,
,,,,,,612ba6c594a6d54154a88ae7,629c5a43497162f0a020fbfc,2022-06-05_09h26.24.874,Colour_Asymmetry_Pilot,2022.1.3,Win32,59.99880002,629c4b6caf241d5e6e00bfc0,0,85,85,75,1,twofour,,,,,,,,,,,,,,,,,,,,,,,,,,,,,,,,,,,,,,,,,,,,,,,,,,,,,,,,,,,,,,,,,,,,,,,,,,,,,,,,,,,,,,,,,,,,,,,,,,,,,,,,,,,,,,,,,,,,,,,,,,,,,,,,,,,,,,,,,,,,,
,,,,,,612ba6c594a6d54154a88ae7,629c5a43497162f0a020fbfc,2022-06-05_09h26.24.874,Colour_Asymmetry_Pilot,2022.1.3,Win32,59.99880002,629c4b6caf241d5e6e00bfc0,0,86,86,128,1,onetwo,,,,,,,,,,,,,,,,,,,,,,,,,,,,,,,,,,,,,,,,,,,,,,,,,,,,,,,,,,,,,,,,,,,,,,,,,,,,,,,,,,,,,,,,,,,,,,,,,,,,,,,,,,,,,,,,,,,,,,,,,,,,,,,,,,,,,,,,,,,,,
,,,,,,612ba6c594a6d54154a88ae7,629c5a43497162f0a020fbfc,2022-06-05_09h26.24.874,Colour_Asymmetry_Pilot,2022.1.3,Win32,59.99880002,629c4b6caf241d5e6e00bfc0,0,87,87,33,1,onethree,,,,,,,,,,,,,,,,,,,,,,,,,,,,,,,,,,,,,,,,,,,,,,,,,,,,,,,,,,,,,,,,,,,,,,,,,,,,,,,,,,,,,,,,,,,,,,,,,,,,,,,,,,,,,,,,,,,,,,,,,,,,,,,,,,,,,,,,,,,,,
,,,,,,612ba6c594a6d54154a88ae7,629c5a43497162f0a020fbfc,2022-06-05_09h26.24.874,Colour_Asymmetry_Pilot,2022.1.3,Win32,59.99880002,629c4b6caf241d5e6e00bfc0,0,88,88,27,1,twofour,,,,,,,,,,,,,,,,,,,,,,,,,,,,,,,,,,,,,,,,,,,,,,,,,,,,,,,,,,,,,,,,,,,,,,,,,,,,,,,,,,,,,,,,,,,,,,,,,,,,,,,,,,,,,,,,,,,,,,,,,,,,,,,,,,,,,,,,,,,,,
,,,,,,612ba6c594a6d54154a88ae7,629c5a43497162f0a020fbfc,2022-06-05_09h26.24.874,Colour_Asymmetry_Pilot,2022.1.3,Win32,59.99880002,629c4b6caf241d5e6e00bfc0,0,89,89,4,1,threeone,,,,,,,,,,,,,,,,,,,,,,,,,,,,,,,,,,,,,,,,,,,,,,,,,,,,,,,,,,,,,,,,,,,,,,,,,,,,,,,,,,,,,,,,,,,,,,,,,,,,,,,,,,,,,,,,,,,,,,,,,,,,,,,,,,,,,,,,,,,,,
,,,,,,612ba6c594a6d54154a88ae7,629c5a43497162f0a020fbfc,2022-06-05_09h26.24.874,Colour_Asymmetry_Pilot,2022.1.3,Win32,59.99880002,629c4b6caf241d5e6e00bfc0,0,90,90,122,1,twoone,,,,,,,,,,,,,,,,,,,,,,,,,,,,,,,,,,,,,,,,,,,,,,,,,,,,,,,,,,,,,,,,,,,,,,,,,,,,,,,,,,,,,,,,,,,,,,,,,,,,,,,,,,,,,,,,,,,,,,,,,,,,,,,,,,,,,,,,,,,,,
,,,,,,612ba6c594a6d54154a88ae7,629c5a43497162f0a020fbfc,2022-06-05_09h26.24.874,Colour_Asymmetry_Pilot,2022.1.3,Win32,59.99880002,629c4b6caf241d5e6e00bfc0,0,91,91,100,1,threeone,,,,,,,,,,,,,,,,,,,,,,,,,,,,,,,,,,,,,,,,,,,,,,,,,,,,,,,,,,,,,,,,,,,,,,,,,,,,,,,,,,,,,,,,,,,,,,,,,,,,,,,,,,,,,,,,,,,,,,,,,,,,,,,,,,,,,,,,,,,,,
,,,,,,612ba6c594a6d54154a88ae7,629c5a43497162f0a020fbfc,2022-06-05_09h26.24.874,Colour_Asymmetry_Pilot,2022.1.3,Win32,59.99880002,629c4b6caf241d5e6e00bfc0,0,92,92,116,1,threeone,,,,,,,,,,,,,,,,,,,,,,,,,,,,,,,,,,,,,,,,,,,,,,,,,,,,,,,,,,,,,,,,,,,,,,,,,,,,,,,,,,,,,,,,,,,,,,,,,,,,,,,,,,,,,,,,,,,,,,,,,,,,,,,,,,,,,,,,,,,,,
,,,,,,612ba6c594a6d54154a88ae7,629c5a43497162f0a020fbfc,2022-06-05_09h26.24.874,Colour_Asymmetry_Pilot,2022.1.3,Win32,59.99880002,629c4b6caf241d5e6e00bfc0,0,93,93,92,1,threeone,,,,,,,,,,,,,,,,,,,,,,,,,,,,,,,,,,,,,,,,,,,,,,,,,,,,,,,,,,,,,,,,,,,,,,,,,,,,,,,,,,,,,,,,,,,,,,,,,,,,,,,,,,,,,,,,,,,,,,,,,,,,,,,,,,,,,,,,,,,,,
,,,,,,612ba6c594a6d54154a88ae7,629c5a43497162f0a020fbfc,2022-06-05_09h26.24.874,Colour_Asymmetry_Pilot,2022.1.3,Win32,59.99880002,629c4b6caf241d5e6e00bfc0,0,94,94,113,1,onethree,,,,,,,,,,,,,,,,,,,,,,,,,,,,,,,,,,,,,,,,,,,,,,,,,,,,,,,,,,,,,,,,,,,,,,,,,,,,,,,,,,,,,,,,,,,,,,,,,,,,,,,,,,,,,,,,,,,,,,,,,,,,,,,,,,,,,,,,,,,,,
,,,,,,612ba6c594a6d54154a88ae7,629c5a43497162f0a020fbfc,2022-06-05_09h26.24.874,Colour_Asymmetry_Pilot,2022.1.3,Win32,59.99880002,629c4b6caf241d5e6e00bfc0,0,95,95,53,1,threefour,,,,,,,,,,,,,,,,,,,,,,,,,,,,,,,,,,,,,,,,,,,,,,,,,,,,,,,,,,,,,,,,,,,,,,,,,,,,,,,,,,,,,,,,,,,,,,,,,,,,,,,,,,,,,,,,,,,,,,,,,,,,,,,,,,,,,,,,,,,,,
,,,,,,612ba6c594a6d54154a88ae7,629c5a43497162f0a020fbfc,2022-06-05_09h26.24.874,Colour_Asymmetry_Pilot,2022.1.3,Win32,59.99880002,629c4b6caf241d5e6e00bfc0,0,96,96,2,1,twoone,,,,,,,,,,,,,,,,,,,,,,,,,,,,,,,,,,,,,,,,,,,,,,,,,,,,,,,,,,,,,,,,,,,,,,,,,,,,,,,,,,,,,,,,,,,,,,,,,,,,,,,,,,,,,,,,,,,,,,,,,,,,,,,,,,,,,,,,,,,,,
,,,,,,612ba6c594a6d54154a88ae7,629c5a43497162f0a020fbfc,2022-06-05_09h26.24.874,Colour_Asymmetry_Pilot,2022.1.3,Win32,59.99880002,629c4b6caf241d5e6e00bfc0,0,97,97,103,1,fourthree,,,,,,,,,,,,,,,,,,,,,,,,,,,,,,,,,,,,,,,,,,,,,,,,,,,,,,,,,,,,,,,,,,,,,,,,,,,,,,,,,,,,,,,,,,,,,,,,,,,,,,,,,,,,,,,,,,,,,,,,,,,,,,,,,,,,,,,,,,,,,
,,,,,,612ba6c594a6d54154a88ae7,629c5a43497162f0a020fbfc,2022-06-05_09h26.24.874,Colour_Asymmetry_Pilot,2022.1.3,Win32,59.99880002,629c4b6caf241d5e6e00bfc0,0,98,98,78,1,fourtwo,,,,,,,,,,,,,,,,,,,,,,,,,,,,,,,,,,,,,,,,,,,,,,,,,,,,,,,,,,,,,,,,,,,,,,,,,,,,,,,,,,,,,,,,,,,,,,,,,,,,,,,,,,,,,,,,,,,,,,,,,,,,,,,,,,,,,,,,,,,,,
,,,,,,612ba6c594a6d54154a88ae7,629c5a43497162f0a020fbfc,2022-06-05_09h26.24.874,Colour_Asymmetry_Pilot,2022.1.3,Win32,59.99880002,629c4b6caf241d5e6e00bfc0,0,99,99,37,1,threefour,,,,,,,,,,,,,,,,,,,,,,,,,,,,,,,,,,,,,,,,,,,,,,,,,,,,,,,,,,,,,,,,,,,,,,,,,,,,,,,,,,,,,,,,,,,,,,,,,,,,,,,,,,,,,,,,,,,,,,,,,,,,,,,,,,,,,,,,,,,,,
,,,,,,612ba6c594a6d54154a88ae7,629c5a43497162f0a020fbfc,2022-06-05_09h26.24.874,Colour_Asymmetry_Pilot,2022.1.3,Win32,59.99880002,629c4b6caf241d5e6e00bfc0,0,100,100,96,1,onetwo,,,,,,,,,,,,,,,,,,,,,,,,,,,,,,,,,,,,,,,,,,,,,,,,,,,,,,,,,,,,,,,,,,,,,,,,,,,,,,,,,,,,,,,,,,,,,,,,,,,,,,,,,,,,,,,,,,,,,,,,,,,,,,,,,,,,,,,,,,,,,
,,,,,,612ba6c594a6d54154a88ae7,629c5a43497162f0a020fbfc,2022-06-05_09h26.24.874,Colour_Asymmetry_Pilot,2022.1.3,Win32,59.99880002,629c4b6caf241d5e6e00bfc0,0,101,101,73,1,onethree,,,,,,,,,,,,,,,,,,,,,,,,,,,,,,,,,,,,,,,,,,,,,,,,,,,,,,,,,,,,,,,,,,,,,,,,,,,,,,,,,,,,,,,,,,,,,,,,,,,,,,,,,,,,,,,,,,,,,,,,,,,,,,,,,,,,,,,,,,,,,
,,,,,,612ba6c594a6d54154a88ae7,629c5a43497162f0a020fbfc,2022-06-05_09h26.24.874,Colour_Asymmetry_Pilot,2022.1.3,Win32,59.99880002,629c4b6caf241d5e6e00bfc0,0,102,102,127,1,fourthree,,,,,,,,,,,,,,,,,,,,,,,,,,,,,,,,,,,,,,,,,,,,,,,,,,,,,,,,,,,,,,,,,,,,,,,,,,,,,,,,,,,,,,,,,,,,,,,,,,,,,,,,,,,,,,,,,,,,,,,,,,,,,,,,,,,,,,,,,,,,,
,,,,,,612ba6c594a6d54154a88ae7,629c5a43497162f0a020fbfc,2022-06-05_09h26.24.874,Colour_Asymmetry_Pilot,2022.1.3,Win32,59.99880002,629c4b6caf241d5e6e00bfc0,0,103,103,18,1,twoone,,,,,,,,,,,,,,,,,,,,,,,,,,,,,,,,,,,,,,,,,,,,,,,,,,,,,,,,,,,,,,,,,,,,,,,,,,,,,,,,,,,,,,,,,,,,,,,,,,,,,,,,,,,,,,,,,,,,,,,,,,,,,,,,,,,,,,,,,,,,,
,,,,,,612ba6c594a6d54154a88ae7,629c5a43497162f0a020fbfc,2022-06-05_09h26.24.874,Colour_Asymmetry_Pilot,2022.1.3,Win32,59.99880002,629c4b6caf241d5e6e00bfc0,0,104,104,149,1,threefour,,,,,,,,,,,,,,,,,,,,,,,,,,,,,,,,,,,,,,,,,,,,,,,,,,,,,,,,,,,,,,,,,,,,,,,,,,,,,,,,,,,,,,,,,,,,,,,,,,,,,,,,,,,,,,,,,,,,,,,,,,,,,,,,,,,,,,,,,,,,,
,,,,,,612ba6c594a6d54154a88ae7,629c5a43497162f0a020fbfc,2022-06-05_09h26.24.874,Colour_Asymmetry_Pilot,2022.1.3,Win32,59.99880002,629c4b6caf241d5e6e00bfc0,0,105,105,66,1,twoone,,,,,,,,,,,,,,,,,,,,,,,,,,,,,,,,,,,,,,,,,,,,,,,,,,,,,,,,,,,,,,,,,,,,,,,,,,,,,,,,,,,,,,,,,,,,,,,,,,,,,,,,,,,,,,,,,,,,,,,,,,,,,,,,,,,,,,,,,,,,,
,,,,,,612ba6c594a6d54154a88ae7,629c5a43497162f0a020fbfc,2022-06-05_09h26.24.874,Colour_Asymmetry_Pilot,2022.1.3,Win32,59.99880002,629c4b6caf241d5e6e00bfc0,0,106,106,155,1,twofour,,,,,,,,,,,,,,,,,,,,,,,,,,,,,,,,,,,,,,,,,,,,,,,,,,,,,,,,,,,,,,,,,,,,,,,,,,,,,,,,,,,,,,,,,,,,,,,,,,,,,,,,,,,,,,,,,,,,,,,,,,,,,,,,,,,,,,,,,,,,,
,,,,,,612ba6c594a6d54154a88ae7,629c5a43497162f0a020fbfc,2022-06-05_09h26.24.874,Colour_Asymmetry_Pilot,2022.1.3,Win32,59.99880002,629c4b6caf241d5e6e00bfc0,0,107,107,54,1,fourtwo,,,,,,,,,,,,,,,,,,,,,,,,,,,,,,,,,,,,,,,,,,,,,,,,,,,,,,,,,,,,,,,,,,,,,,,,,,,,,,,,,,,,,,,,,,,,,,,,,,,,,,,,,,,,,,,,,,,,,,,,,,,,,,,,,,,,,,,,,,,,,
,,,,,,612ba6c594a6d54154a88ae7,629c5a43497162f0a020fbfc,2022-06-05_09h26.24.874,Colour_Asymmetry_Pilot,2022.1.3,Win32,59.99880002,629c4b6caf241d5e6e00bfc0,0,108,108,69,1,threefour,,,,,,,,,,,,,,,,,,,,,,,,,,,,,,,,,,,,,,,,,,,,,,,,,,,,,,,,,,,,,,,,,,,,,,,,,,,,,,,,,,,,,,,,,,,,,,,,,,,,,,,,,,,,,,,,,,,,,,,,,,,,,,,,,,,,,,,,,,,,,
,,,,,,612ba6c594a6d54154a88ae7,629c5a43497162f0a020fbfc,2022-06-05_09h26.24.874,Colour_Asymmetry_Pilot,2022.1.3,Win32,59.99880002,629c4b6caf241d5e6e00bfc0,0,109,109,72,1,onetwo,,,,,,,,,,,,,,,,,,,,,,,,,,,,,,,,,,,,,,,,,,,,,,,,,,,,,,,,,,,,,,,,,,,,,,,,,,,,,,,,,,,,,,,,,,,,,,,,,,,,,,,,,,,,,,,,,,,,,,,,,,,,,,,,,,,,,,,,,,,,,
,,,,,,612ba6c594a6d54154a88ae7,629c5a43497162f0a020fbfc,2022-06-05_09h26.24.874,Colour_Asymmetry_Pilot,2022.1.3,Win32,59.99880002,629c4b6caf241d5e6e00bfc0,0,110,110,39,1,fourthree,,,,,,,,,,,,,,,,,,,,,,,,,,,,,,,,,,,,,,,,,,,,,,,,,,,,,,,,,,,,,,,,,,,,,,,,,,,,,,,,,,,,,,,,,,,,,,,,,,,,,,,,,,,,,,,,,,,,,,,,,,,,,,,,,,,,,,,,,,,,,
,,,,,,612ba6c594a6d54154a88ae7,629c5a43497162f0a020fbfc,2022-06-05_09h26.24.874,Colour_Asymmetry_Pilot,2022.1.3,Win32,59.99880002,629c4b6caf241d5e6e00bfc0,0,111,111,41,1,onethree,,,,,,,,,,,,,,,,,,,,,,,,,,,,,,,,,,,,,,,,,,,,,,,,,,,,,,,,,,,,,,,,,,,,,,,,,,,,,,,,,,,,,,,,,,,,,,,,,,,,,,,,,,,,,,,,,,,,,,,,,,,,,,,,,,,,,,,,,,,,,
,,,,,,612ba6c594a6d54154a88ae7,629c5a43497162f0a020fbfc,2022-06-05_09h26.24.874,Colour_Asymmetry_Pilot,2022.1.3,Win32,59.99880002,629c4b6caf241d5e6e00bfc0,0,112,112,7,1,fourthree,,,,,,,,,,,,,,,,,,,,,,,,,,,,,,,,,,,,,,,,,,,,,,,,,,,,,,,,,,,,,,,,,,,,,,,,,,,,,,,,,,,,,,,,,,,,,,,,,,,,,,,,,,,,,,,,,,,,,,,,,,,,,,,,,,,,,,,,,,,,,
,,,,,,612ba6c594a6d54154a88ae7,629c5a43497162f0a020fbfc,2022-06-05_09h26.24.874,Colour_Asymmetry_Pilot,2022.1.3,Win32,59.99880002,629c4b6caf241d5e6e00bfc0,0,113,113,83,1,twofour,,,,,,,,,,,,,,,,,,,,,,,,,,,,,,,,,,,,,,,,,,,,,,,,,,,,,,,,,,,,,,,,,,,,,,,,,,,,,,,,,,,,,,,,,,,,,,,,,,,,,,,,,,,,,,,,,,,,,,,,,,,,,,,,,,,,,,,,,,,,,
,,,,,,612ba6c594a6d54154a88ae7,629c5a43497162f0a020fbfc,2022-06-05_09h26.24.874,Colour_Asymmetry_Pilot,2022.1.3,Win32,59.99880002,629c4b6caf241d5e6e00bfc0,0,114,114,134,1,fourtwo,,,,,,,,,,,,,,,,,,,,,,,,,,,,,,,,,,,,,,,,,,,,,,,,,,,,,,,,,,,,,,,,,,,,,,,,,,,,,,,,,,,,,,,,,,,,,,,,,,,,,,,,,,,,,,,,,,,,,,,,,,,,,,,,,,,,,,,,,,,,,
,,,,,,612ba6c594a6d54154a88ae7,629c5a43497162f0a020fbfc,2022-06-05_09h26.24.874,Colour_Asymmetry_Pilot,2022.1.3,Win32,59.99880002,629c4b6caf241d5e6e00bfc0,0,115,115,119,1,fourthree,,,,,,,,,,,,,,,,,,,,,,,,,,,,,,,,,,,,,,,,,,,,,,,,,,,,,,,,,,,,,,,,,,,,,,,,,,,,,,,,,,,,,,,,,,,,,,,,,,,,,,,,,,,,,,,,,,,,,,,,,,,,,,,,,,,,,,,,,,,,,
,,,,,,612ba6c594a6d54154a88ae7,629c5a43497162f0a020fbfc,2022-06-05_09h26.24.874,Colour_Asymmetry_Pilot,2022.1.3,Win32,59.99880002,629c4b6caf241d5e6e00bfc0,0,116,116,148,1,threeone,,,,,,,,,,,,,,,,,,,,,,,,,,,,,,,,,,,,,,,,,,,,,,,,,,,,,,,,,,,,,,,,,,,,,,,,,,,,,,,,,,,,,,,,,,,,,,,,,,,,,,,,,,,,,,,,,,,,,,,,,,,,,,,,,,,,,,,,,,,,,
,,,,,,612ba6c594a6d54154a88ae7,629c5a43497162f0a020fbfc,2022-06-05_09h26.24.874,Colour_Asymmetry_Pilot,2022.1.3,Win32,59.99880002,629c4b6caf241d5e6e00bfc0,0,117,117,91,1,twofour,,,,,,,,,,,,,,,,,,,,,,,,,,,,,,,,,,,,,,,,,,,,,,,,,,,,,,,,,,,,,,,,,,,,,,,,,,,,,,,,,,,,,,,,,,,,,,,,,,,,,,,,,,,,,,,,,,,,,,,,,,,,,,,,,,,,,,,,,,,,,
,,,,,,612ba6c594a6d54154a88ae7,629c5a43497162f0a020fbfc,2022-06-05_09h26.24.874,Colour_Asymmetry_Pilot,2022.1.3,Win32,59.99880002,629c4b6caf241d5e6e00bfc0,0,118,118,67,1,twofour,,,,,,,,,,,,,,,,,,,,,,,,,,,,,,,,,,,,,,,,,,,,,,,,,,,,,,,,,,,,,,,,,,,,,,,,,,,,,,,,,,,,,,,,,,,,,,,,,,,,,,,,,,,,,,,,,,,,,,,,,,,,,,,,,,,,,,,,,,,,,
,,,,,,612ba6c594a6d54154a88ae7,629c5a43497162f0a020fbfc,2022-06-05_09h26.24.874,Colour_Asymmetry_Pilot,2022.1.3,Win32,59.99880002,629c4b6caf241d5e6e00bfc0,0,119,119,135,1,fourthree,,,,,,,,,,,,,,,,,,,,,,,,,,,,,,,,,,,,,,,,,,,,,,,,,,,,,,,,,,,,,,,,,,,,,,,,,,,,,,,,,,,,,,,,,,,,,,,,,,,,,,,,,,,,,,,,,,,,,,,,,,,,,,,,,,,,,,,,,,,,,
,,,,,,612ba6c594a6d54154a88ae7,629c5a43497162f0a020fbfc,2022-06-05_09h26.24.874,Colour_Asymmetry_Pilot,2022.1.3,Win32,59.99880002,629c4b6caf241d5e6e00bfc0,0,120,120,87,1,fourthree,,,,,,,,,,,,,,,,,,,,,,,,,,,,,,,,,,,,,,,,,,,,,,,,,,,,,,,,,,,,,,,,,,,,,,,,,,,,,,,,,,,,,,,,,,,,,,,,,,,,,,,,,,,,,,,,,,,,,,,,,,,,,,,,,,,,,,,,,,,,,
,,,,,,612ba6c594a6d54154a88ae7,629c5a43497162f0a020fbfc,2022-06-05_09h26.24.874,Colour_Asymmetry_Pilot,2022.1.3,Win32,59.99880002,629c4b6caf241d5e6e00bfc0,0,121,121,46,1,fourtwo,,,,,,,,,,,,,,,,,,,,,,,,,,,,,,,,,,,,,,,,,,,,,,,,,,,,,,,,,,,,,,,,,,,,,,,,,,,,,,,,,,,,,,,,,,,,,,,,,,,,,,,,,,,,,,,,,,,,,,,,,,,,,,,,,,,,,,,,,,,,,
,,,,,,612ba6c594a6d54154a88ae7,629c5a43497162f0a020fbfc,2022-06-05_09h26.24.874,Colour_Asymmetry_Pilot,2022.1.3,Win32,59.99880002,629c4b6caf241d5e6e00bfc0,0,122,122,5,1,threefour,,,,,,,,,,,,,,,,,,,,,,,,,,,,,,,,,,,,,,,,,,,,,,,,,,,,,,,,,,,,,,,,,,,,,,,,,,,,,,,,,,,,,,,,,,,,,,,,,,,,,,,,,,,,,,,,,,,,,,,,,,,,,,,,,,,,,,,,,,,,,
,,,,,,612ba6c594a6d54154a88ae7,629c5a43497162f0a020fbfc,2022-06-05_09h26.24.874,Colour_Asymmetry_Pilot,2022.1.3,Win32,59.99880002,629c4b6caf241d5e6e00bfc0,0,123,123,98,1,twoone,,,,,,,,,,,,,,,,,,,,,,,,,,,,,,,,,,,,,,,,,,,,,,,,,,,,,,,,,,,,,,,,,,,,,,,,,,,,,,,,,,,,,,,,,,,,,,,,,,,,,,,,,,,,,,,,,,,,,,,,,,,,,,,,,,,,,,,,,,,,,
,,,,,,612ba6c594a6d54154a88ae7,629c5a43497162f0a020fbfc,2022-06-05_09h26.24.874,Colour_Asymmetry_Pilot,2022.1.3,Win32,59.99880002,629c4b6caf241d5e6e00bfc0,0,124,124,153,1,onethree,,,,,,,,,,,,,,,,,,,,,,,,,,,,,,,,,,,,,,,,,,,,,,,,,,,,,,,,,,,,,,,,,,,,,,,,,,,,,,,,,,,,,,,,,,,,,,,,,,,,,,,,,,,,,,,,,,,,,,,,,,,,,,,,,,,,,,,,,,,,,
,,,,,,612ba6c594a6d54154a88ae7,629c5a43497162f0a020fbfc,2022-06-05_09h26.24.874,Colour_Asymmetry_Pilot,2022.1.3,Win32,59.99880002,629c4b6caf241d5e6e00bfc0,0,125,125,77,1,threefour,,,,,,,,,,,,,,,,,,,,,,,,,,,,,,,,,,,,,,,,,,,,,,,,,,,,,,,,,,,,,,,,,,,,,,,,,,,,,,,,,,,,,,,,,,,,,,,,,,,,,,,,,,,,,,,,,,,,,,,,,,,,,,,,,,,,,,,,,,,,,
,,,,,,612ba6c594a6d54154a88ae7,629c5a43497162f0a020fbfc,2022-06-05_09h26.24.874,Colour_Asymmetry_Pilot,2022.1.3,Win32,59.99880002,629c4b6caf241d5e6e00bfc0,0,126,126,68,1,threeone,,,,,,,,,,,,,,,,,,,,,,,,,,,,,,,,,,,,,,,,,,,,,,,,,,,,,,,,,,,,,,,,,,,,,,,,,,,,,,,,,,,,,,,,,,,,,,,,,,,,,,,,,,,,,,,,,,,,,,,,,,,,,,,,,,,,,,,,,,,,,
,,,,,,612ba6c594a6d54154a88ae7,629c5a43497162f0a020fbfc,2022-06-05_09h26.24.874,Colour_Asymmetry_Pilot,2022.1.3,Win32,59.99880002,629c4b6caf241d5e6e00bfc0,0,127,127,125,1,threefour,,,,,,,,,,,,,,,,,,,,,,,,,,,,,,,,,,,,,,,,,,,,,,,,,,,,,,,,,,,,,,,,,,,,,,,,,,,,,,,,,,,,,,,,,,,,,,,,,,,,,,,,,,,,,,,,,,,,,,,,,,,,,,,,,,,,,,,,,,,,,
,,,,,,612ba6c594a6d54154a88ae7,629c5a43497162f0a020fbfc,2022-06-05_09h26.24.874,Colour_Asymmetry_Pilot,2022.1.3,Win32,59.99880002,629c4b6caf241d5e6e00bfc0,0,128,128,57,1,onethree,,,,,,,,,,,,,,,,,,,,,,,,,,,,,,,,,,,,,,,,,,,,,,,,,,,,,,,,,,,,,,,,,,,,,,,,,,,,,,,,,,,,,,,,,,,,,,,,,,,,,,,,,,,,,,,,,,,,,,,,,,,,,,,,,,,,,,,,,,,,,
,,,,,,612ba6c594a6d54154a88ae7,629c5a43497162f0a020fbfc,2022-06-05_09h26.24.874,Colour_Asymmetry_Pilot,2022.1.3,Win32,59.99880002,629c4b6caf241d5e6e00bfc0,0,129,129,147,1,twofour,,,,,,,,,,,,,,,,,,,,,,,,,,,,,,,,,,,,,,,,,,,,,,,,,,,,,,,,,,,,,,,,,,,,,,,,,,,,,,,,,,,,,,,,,,,,,,,,,,,,,,,,,,,,,,,,,,,,,,,,,,,,,,,,,,,,,,,,,,,,,
,,,,,,612ba6c594a6d54154a88ae7,629c5a43497162f0a020fbfc,2022-06-05_09h26.24.874,Colour_Asymmetry_Pilot,2022.1.3,Win32,59.99880002,629c4b6caf241d5e6e00bfc0,0,130,130,1,1,onethree,,,,,,,,,,,,,,,,,,,,,,,,,,,,,,,,,,,,,,,,,,,,,,,,,,,,,,,,,,,,,,,,,,,,,,,,,,,,,,,,,,,,,,,,,,,,,,,,,,,,,,,,,,,,,,,,,,,,,,,,,,,,,,,,,,,,,,,,,,,,,
,,,,,,612ba6c594a6d54154a88ae7,629c5a43497162f0a020fbfc,2022-06-05_09h26.24.874,Colour_Asymmetry_Pilot,2022.1.3,Win32,59.99880002,629c4b6caf241d5e6e00bfc0,0,131,131,36,1,threeone,,,,,,,,,,,,,,,,,,,,,,,,,,,,,,,,,,,,,,,,,,,,,,,,,,,,,,,,,,,,,,,,,,,,,,,,,,,,,,,,,,,,,,,,,,,,,,,,,,,,,,,,,,,,,,,,,,,,,,,,,,,,,,,,,,,,,,,,,,,,,
,,,,,,612ba6c594a6d54154a88ae7,629c5a43497162f0a020fbfc,2022-06-05_09h26.24.874,Colour_Asymmetry_Pilot,2022.1.3,Win32,59.99880002,629c4b6caf241d5e6e00bfc0,0,132,132,81,1,onethree,,,,,,,,,,,,,,,,,,,,,,,,,,,,,,,,,,,,,,,,,,,,,,,,,,,,,,,,,,,,,,,,,,,,,,,,,,,,,,,,,,,,,,,,,,,,,,,,,,,,,,,,,,,,,,,,,,,,,,,,,,,,,,,,,,,,,,,,,,,,,
,,,,,,612ba6c594a6d54154a88ae7,629c5a43497162f0a020fbfc,2022-06-05_09h26.24.874,Colour_Asymmetry_Pilot,2022.1.3,Win32,59.99880002,629c4b6caf241d5e6e00bfc0,0,133,133,109,1,threefour,,,,,,,,,,,,,,,,,,,,,,,,,,,,,,,,,,,,,,,,,,,,,,,,,,,,,,,,,,,,,,,,,,,,,,,,,,,,,,,,,,,,,,,,,,,,,,,,,,,,,,,,,,,,,,,,,,,,,,,,,,,,,,,,,,,,,,,,,,,,,
,,,,,,612ba6c594a6d54154a88ae7,629c5a43497162f0a020fbfc,2022-06-05_09h26.24.874,Colour_Asymmetry_Pilot,2022.1.3,Win32,59.99880002,629c4b6caf241d5e6e00bfc0,0,134,134,24,1,onetwo,,,,,,,,,,,,,,,,,,,,,,,,,,,,,,,,,,,,,,,,,,,,,,,,,,,,,,,,,,,,,,,,,,,,,,,,,,,,,,,,,,,,,,,,,,,,,,,,,,,,,,,,,,,,,,,,,,,,,,,,,,,,,,,,,,,,,,,,,,,,,
,,,,,,612ba6c594a6d54154a88ae7,629c5a43497162f0a020fbfc,2022-06-05_09h26.24.874,Colour_Asymmetry_Pilot,2022.1.3,Win32,59.99880002,629c4b6caf241d5e6e00bfc0,0,135,135,19,1,twofour,,,,,,,,,,,,,,,,,,,,,,,,,,,,,,,,,,,,,,,,,,,,,,,,,,,,,,,,,,,,,,,,,,,,,,,,,,,,,,,,,,,,,,,,,,,,,,,,,,,,,,,,,,,,,,,,,,,,,,,,,,,,,,,,,,,,,,,,,,,,,
,,,,,,612ba6c594a6d54154a88ae7,629c5a43497162f0a020fbfc,2022-06-05_09h26.24.874,Colour_Asymmetry_Pilot,2022.1.3,Win32,59.99880002,629c4b6caf241d5e6e00bfc0,0,136,136,45,1,threefour,,,,,,,,,,,,,,,,,,,,,,,,,,,,,,,,,,,,,,,,,,,,,,,,,,,,,,,,,,,,,,,,,,,,,,,,,,,,,,,,,,,,,,,,,,,,,,,,,,,,,,,,,,,,,,,,,,,,,,,,,,,,,,,,,,,,,,,,,,,,,
,,,,,,612ba6c594a6d54154a88ae7,629c5a43497162f0a020fbfc,2022-06-05_09h26.24.874,Colour_Asymmetry_Pilot,2022.1.3,Win32,59.99880002,629c4b6caf241d5e6e00bfc0,0,137,137,20,1,threeone,,,,,,,,,,,,,,,,,,,,,,,,,,,,,,,,,,,,,,,,,,,,,,,,,,,,,,,,,,,,,,,,,,,,,,,,,,,,,,,,,,,,,,,,,,,,,,,,,,,,,,,,,,,,,,,,,,,,,,,,,,,,,,,,,,,,,,,,,,,,,
,,,,,,612ba6c594a6d54154a88ae7,629c5a43497162f0a020fbfc,2022-06-05_09h26.24.874,Colour_Asymmetry_Pilot,2022.1.3,Win32,59.99880002,629c4b6caf241d5e6e00bfc0,0,138,138,70,1,fourtwo,,,,,,,,,,,,,,,,,,,,,,,,,,,,,,,,,,,,,,,,,,,,,,,,,,,,,,,,,,,,,,,,,,,,,,,,,,,,,,,,,,,,,,,,,,,,,,,,,,,,,,,,,,,,,,,,,,,,,,,,,,,,,,,,,,,,,,,,,,,,,
,,,,,,612ba6c594a6d54154a88ae7,629c5a43497162f0a020fbfc,2022-06-05_09h26.24.874,Colour_Asymmetry_Pilot,2022.1.3,Win32,59.99880002,629c4b6caf241d5e6e00bfc0,0,139,139,8,1,onetwo,,,,,,,,,,,,,,,,,,,,,,,,,,,,,,,,,,,,,,,,,,,,,,,,,,,,,,,,,,,,,,,,,,,,,,,,,,,,,,,,,,,,,,,,,,,,,,,,,,,,,,,,,,,,,,,,,,,,,,,,,,,,,,,,,,,,,,,,,,,,,
,,,,,,612ba6c594a6d54154a88ae7,629c5a43497162f0a020fbfc,2022-06-05_09h26.24.874,Colour_Asymmetry_Pilot,2022.1.3,Win32,59.99880002,629c4b6caf241d5e6e00bfc0,0,140,140,123,1,twofour,,,,,,,,,,,,,,,,,,,,,,,,,,,,,,,,,,,,,,,,,,,,,,,,,,,,,,,,,,,,,,,,,,,,,,,,,,,,,,,,,,,,,,,,,,,,,,,,,,,,,,,,,,,,,,,,,,,,,,,,,,,,,,,,,,,,,,,,,,,,,
,,,,,,612ba6c594a6d54154a88ae7,629c5a43497162f0a020fbfc,2022-06-05_09h26.24.874,Colour_Asymmetry_Pilot,2022.1.3,Win32,59.99880002,629c4b6caf241d5e6e00bfc0,0,141,141,144,1,onetwo,,,,,,,,,,,,,,,,,,,,,,,,,,,,,,,,,,,,,,,,,,,,,,,,,,,,,,,,,,,,,,,,,,,,,,,,,,,,,,,,,,,,,,,,,,,,,,,,,,,,,,,,,,,,,,,,,,,,,,,,,,,,,,,,,,,,,,,,,,,,,
,,,,,,612ba6c594a6d54154a88ae7,629c5a43497162f0a020fbfc,2022-06-05_09h26.24.874,Colour_Asymmetry_Pilot,2022.1.3,Win32,59.99880002,629c4b6caf241d5e6e00bfc0,0,142,142,84,1,threeone,,,,,,,,,,,,,,,,,,,,,,,,,,,,,,,,,,,,,,,,,,,,,,,,,,,,,,,,,,,,,,,,,,,,,,,,,,,,,,,,,,,,,,,,,,,,,,,,,,,,,,,,,,,,,,,,,,,,,,,,,,,,,,,,,,,,,,,,,,,,,
,,,,,,612ba6c594a6d54154a88ae7,629c5a43497162f0a020fbfc,2022-06-05_09h26.24.874,Colour_Asymmetry_Pilot,2022.1.3,Win32,59.99880002,629c4b6caf241d5e6e00bfc0,0,143,143,159,1,fourthree,,,,,,,,,,,,,,,,,,,,,,,,,,,,,,,,,,,,,,,,,,,,,,,,,,,,,,,,,,,,,,,,,,,,,,,,,,,,,,,,,,,,,,,,,,,,,,,,,,,,,,,,,,,,,,,,,,,,,,,,,,,,,,,,,,,,,,,,,,,,,
,,,,,,612ba6c594a6d54154a88ae7,629c5a43497162f0a020fbfc,2022-06-05_09h26.24.874,Colour_Asymmetry_Pilot,2022.1.3,Win32,59.99880002,629c4b6caf241d5e6e00bfc0,0,144,144,139,1,twofour,,,,,,,,,,,,,,,,,,,,,,,,,,,,,,,,,,,,,,,,,,,,,,,,,,,,,,,,,,,,,,,,,,,,,,,,,,,,,,,,,,,,,,,,,,,,,,,,,,,,,,,,,,,,,,,,,,,,,,,,,,,,,,,,,,,,,,,,,,,,,
,,,,,,612ba6c594a6d54154a88ae7,629c5a43497162f0a020fbfc,2022-06-05_09h26.24.874,Colour_Asymmetry_Pilot,2022.1.3,Win32,59.99880002,629c4b6caf241d5e6e00bfc0,0,145,145,64,1,onetwo,,,,,,,,,,,,,,,,,,,,,,,,,,,,,,,,,,,,,,,,,,,,,,,,,,,,,,,,,,,,,,,,,,,,,,,,,,,,,,,,,,,,,,,,,,,,,,,,,,,,,,,,,,,,,,,,,,,,,,,,,,,,,,,,,,,,,,,,,,,,,
,,,,,,612ba6c594a6d54154a88ae7,629c5a43497162f0a020fbfc,2022-06-05_09h26.24.874,Colour_Asymmetry_Pilot,2022.1.3,Win32,59.99880002,629c4b6caf241d5e6e00bfc0,0,146,146,43,1,twofour,,,,,,,,,,,,,,,,,,,,,,,,,,,,,,,,,,,,,,,,,,,,,,,,,,,,,,,,,,,,,,,,,,,,,,,,,,,,,,,,,,,,,,,,,,,,,,,,,,,,,,,,,,,,,,,,,,,,,,,,,,,,,,,,,,,,,,,,,,,,,
,,,,,,612ba6c594a6d54154a88ae7,629c5a43497162f0a020fbfc,2022-06-05_09h26.24.874,Colour_Asymmetry_Pilot,2022.1.3,Win32,59.99880002,629c4b6caf241d5e6e00bfc0,0,147,147,132,1,threeone,,,,,,,,,,,,,,,,,,,,,,,,,,,,,,,,,,,,,,,,,,,,,,,,,,,,,,,,,,,,,,,,,,,,,,,,,,,,,,,,,,,,,,,,,,,,,,,,,,,,,,,,,,,,,,,,,,,,,,,,,,,,,,,,,,,,,,,,,,,,,
,,,,,,612ba6c594a6d54154a88ae7,629c5a43497162f0a020fbfc,2022-06-05_09h26.24.874,Colour_Asymmetry_Pilot,2022.1.3,Win32,59.99880002,629c4b6caf241d5e6e00bfc0,0,148,148,120,1,onetwo,,,,,,,,,,,,,,,,,,,,,,,,,,,,,,,,,,,,,,,,,,,,,,,,,,,,,,,,,,,,,,,,,,,,,,,,,,,,,,,,,,,,,,,,,,,,,,,,,,,,,,,,,,,,,,,,,,,,,,,,,,,,,,,,,,,,,,,,,,,,,
,,,,,,612ba6c594a6d54154a88ae7,629c5a43497162f0a020fbfc,2022-06-05_09h26.24.874,Colour_Asymmetry_Pilot,2022.1.3,Win32,59.99880002,629c4b6caf241d5e6e00bfc0,0,149,149,146,1,twoone,,,,,,,,,,,,,,,,,,,,,,,,,,,,,,,,,,,,,,,,,,,,,,,,,,,,,,,,,,,,,,,,,,,,,,,,,,,,,,,,,,,,,,,,,,,,,,,,,,,,,,,,,,,,,,,,,,,,,,,,,,,,,,,,,,,,,,,,,,,,,
,,,,,,612ba6c594a6d54154a88ae7,629c5a43497162f0a020fbfc,2022-06-05_09h26.24.874,Colour_Asymmetry_Pilot,2022.1.3,Win32,59.99880002,629c4b6caf241d5e6e00bfc0,0,150,150,9,1,onethree,,,,,,,,,,,,,,,,,,,,,,,,,,,,,,,,,,,,,,,,,,,,,,,,,,,,,,,,,,,,,,,,,,,,,,,,,,,,,,,,,,,,,,,,,,,,,,,,,,,,,,,,,,,,,,,,,,,,,,,,,,,,,,,,,,,,,,,,,,,,,
,,,,,,612ba6c594a6d54154a88ae7,629c5a43497162f0a020fbfc,2022-06-05_09h26.24.874,Colour_Asymmetry_Pilot,2022.1.3,Win32,59.99880002,629c4b6caf241d5e6e00bfc0,0,151,151,124,1,threeone,,,,,,,,,,,,,,,,,,,,,,,,,,,,,,,,,,,,,,,,,,,,,,,,,,,,,,,,,,,,,,,,,,,,,,,,,,,,,,,,,,,,,,,,,,,,,,,,,,,,,,,,,,,,,,,,,,,,,,,,,,,,,,,,,,,,,,,,,,,,,
,,,,,,612ba6c594a6d54154a88ae7,629c5a43497162f0a020fbfc,2022-06-05_09h26.24.874,Colour_Asymmetry_Pilot,2022.1.3,Win32,59.99880002,629c4b6caf241d5e6e00bfc0,0,152,152,115,1,twofour,,,,,,,,,,,,,,,,,,,,,,,,,,,,,,,,,,,,,,,,,,,,,,,,,,,,,,,,,,,,,,,,,,,,,,,,,,,,,,,,,,,,,,,,,,,,,,,,,,,,,,,,,,,,,,,,,,,,,,,,,,,,,,,,,,,,,,,,,,,,,
,,,,,,612ba6c594a6d54154a88ae7,629c5a43497162f0a020fbfc,2022-06-05_09h26.24.874,Colour_Asymmetry_Pilot,2022.1.3,Win32,59.99880002,629c4b6caf241d5e6e00bfc0,0,153,153,104,1,onetwo,,,,,,,,,,,,,,,,,,,,,,,,,,,,,,,,,,,,,,,,,,,,,,,,,,,,,,,,,,,,,,,,,,,,,,,,,,,,,,,,,,,,,,,,,,,,,,,,,,,,,,,,,,,,,,,,,,,,,,,,,,,,,,,,,,,,,,,,,,,,,
,,,,,,612ba6c594a6d54154a88ae7,629c5a43497162f0a020fbfc,2022-06-05_09h26.24.874,Colour_Asymmetry_Pilot,2022.1.3,Win32,59.99880002,629c4b6caf241d5e6e00bfc0,0,154,154,141,1,threefour,,,,,,,,,,,,,,,,,,,,,,,,,,,,,,,,,,,,,,,,,,,,,,,,,,,,,,,,,,,,,,,,,,,,,,,,,,,,,,,,,,,,,,,,,,,,,,,,,,,,,,,,,,,,,,,,,,,,,,,,,,,,,,,,,,,,,,,,,,,,,
,,,,,,612ba6c594a6d54154a88ae7,629c5a43497162f0a020fbfc,2022-06-05_09h26.24.874,Colour_Asymmetry_Pilot,2022.1.3,Win32,59.99880002,629c4b6caf241d5e6e00bfc0,0,155,155,13,1,threefour,,,,,,,,,,,,,,,,,,,,,,,,,,,,,,,,,,,,,,,,,,,,,,,,,,,,,,,,,,,,,,,,,,,,,,,,,,,,,,,,,,,,,,,,,,,,,,,,,,,,,,,,,,,,,,,,,,,,,,,,,,,,,,,,,,,,,,,,,,,,,
,,,,,,612ba6c594a6d54154a88ae7,629c5a43497162f0a020fbfc,2022-06-05_09h26.24.874,Colour_Asymmetry_Pilot,2022.1.3,Win32,59.99880002,629c4b6caf241d5e6e00bfc0,0,156,156,62,1,fourtwo,,,,,,,,,,,,,,,,,,,,,,,,,,,,,,,,,,,,,,,,,,,,,,,,,,,,,,,,,,,,,,,,,,,,,,,,,,,,,,,,,,,,,,,,,,,,,,,,,,,,,,,,,,,,,,,,,,,,,,,,,,,,,,,,,,,,,,,,,,,,,
,,,,,,612ba6c594a6d54154a88ae7,629c5a43497162f0a020fbfc,2022-06-05_09h26.24.874,Colour_Asymmetry_Pilot,2022.1.3,Win32,59.99880002,629c4b6caf241d5e6e00bfc0,0,157,157,80,1,onetwo,,,,,,,,,,,,,,,,,,,,,,,,,,,,,,,,,,,,,,,,,,,,,,,,,,,,,,,,,,,,,,,,,,,,,,,,,,,,,,,,,,,,,,,,,,,,,,,,,,,,,,,,,,,,,,,,,,,,,,,,,,,,,,,,,,,,,,,,,,,,,
,,,,,,612ba6c594a6d54154a88ae7,629c5a43497162f0a020fbfc,2022-06-05_09h26.24.874,Colour_Asymmetry_Pilot,2022.1.3,Win32,59.99880002,629c4b6caf241d5e6e00bfc0,0,158,158,142,1,fourtwo,,,,,,,,,,,,,,,,,,,,,,,,,,,,,,,,,,,,,,,,,,,,,,,,,,,,,,,,,,,,,,,,,,,,,,,,,,,,,,,,,,,,,,,,,,,,,,,,,,,,,,,,,,,,,,,,,,,,,,,,,,,,,,,,,,,,,,,,,,,,,
,,,,,,612ba6c594a6d54154a88ae7,629c5a43497162f0a020fbfc,2022-06-05_09h26.24.874,Colour_Asymmetry_Pilot,2022.1.3,Win32,59.99880002,629c4b6caf241d5e6e00bfc0,0,159,159,15,1,fourthree,,,,,,,,,,,,,,,,,,,,,,,,,,,,,,,,,,,,,,,,,,,,,,,,,,,,,,,,,,,,,,,,,,,,,,,,,,,,,,,,,,,,,,,,,,,,,,,,,,,,,,,,,,,,,,,,,,,,,,,,,,,,,,,,,,,,,,,,,,,,,
,,,,,,612ba6c594a6d54154a88ae7,629c5a43497162f0a020fbfc,2022-06-05_09h26.24.874,Colour_Asymmetry_Pilot,2022.1.3,Win32,59.99880002,629c4b6caf241d5e6e00bfc0,0,160,160,29,1,threefour,,,,,,,,,,,,,,,,,,,,,,,,,,,,,,,,,,,,,,,,,,,,,,,,,,,,,,,,,,,,,,,,,,,,,,,,,,,,,,,,,,,,,,,,,,,,,,,,,,,,,,,,,,,,,,,,,,,,,,,,,,,,,,,,,,,,,,,,,,,,,
,,,,,,612ba6c594a6d54154a88ae7,629c5a43497162f0a020fbfc,2022-06-05_09h26.24.874,Colour_Asymmetry_Pilot,2022.1.3,Win32,59.99880002,629c4b6caf241d5e6e00bfc0,0,161,161,79,1,fourthree,,,,,,,,,,,,,,,,,,,,,,,,,,,,,,,,,,,,,,,,,,,,,,,,,,,,,,,,,,,,,,,,,,,,,,,,,,,,,,,,,,,,,,,,,,,,,,,,,,,,,,,,,,,,,,,,,,,,,,,,,,,,,,,,,,,,,,,,,,,,,
,,,,,,612ba6c594a6d54154a88ae7,629c5a43497162f0a020fbfc,2022-06-05_09h26.24.874,Colour_Asymmetry_Pilot,2022.1.3,Win32,59.99880002,629c4b6caf241d5e6e00bfc0,,,,,,,space,1.7521,space,3.328,space,28.1232,space,2.0344,space,1.7712,space,2.7042,"[-0.8118,-0.8198,-0.5452]",twoone,"[0.9842,0.7409999999999999,-0.6628000000000001]",-4,9.5025,-28,44,1,0,0,response7disk_5,3.5,-5,1,0,0,rectangle_8,3.5,-5,1,0,0,1,3.5,-5,1,0,0,0,0,0,0,1,,,,,,,,,,,,,,,,,,,,,,,,,,,,,,,,,,,,,,,,,,,,,,,,,,,,,,,,,,,,,,,,,,,,,,,,,,,,,,,,,,,,,,,,,,,,,,,,
,,,,,,612ba6c594a6d54154a88ae7,629c5a43497162f0a020fbfc,2022-06-05_09h26.24.874,Colour_Asymmetry_Pilot,2022.1.3,Win32,59.99880002,629c4b6caf241d5e6e00bfc0,,,,,,,,,,,,,,,,,,,"[-0.9688,-0.4902000000000001,-0.12159999999999993]",onethree,"[-0.24719999999999998,0.5213999999999999,-0.12959999999999994]",-3,6.8514,-36.5,16,1,0,0,response7disk_5,-10.5,8,1,0,0,rectangle_8,-18.5,-31,1,0,0,1,-6.5,-5,1,0,0,1,0,1,0,1,response5disk_7,3,rectangle_4,,,,,,,,,,,,,,,,,,,,,,,,,,,,,,,,,,,,,,,,,,,,,,,,,,,,,,,,,,,,,,,,,,,,,,,,,,,,,,,,,,,,,,,,,,,,,
,,,,,,612ba6c594a6d54154a88ae7,629c5a43497162f0a020fbfc,2022-06-05_09h26.24.874,Colour_Asymmetry_Pilot,2022.1.3,Win32,59.99880002,629c4b6caf241d5e6e00bfc0,,,,,,,,,,,,,,,,,,,"[-0.9844,-0.9688,-0.9922]",threeone,"[-0.9688,-0.7412000000000001,-0.4902000000000001]",2,1.6022,33.5,-15,1,0,0,response3disk_5,0.5,0,1,0,0,rectangle_8,0.5,0,1,0,0,1,0.5,0,1,0,0,2,0,2,0,1,,,,,,,,,,,,,,,,,,,,,,,,,,,,,,,,,,,,,,,,,,,,,,,,,,,,,,,,,,,,,,,,,,,,,,,,,,,,,,,,,,,,,,,,,,,,,,,,
,,,,,,612ba6c594a6d54154a88ae7,629c5a43497162f0a020fbfc,2022-06-05_09h26.24.874,Colour_Asymmetry_Pilot,2022.1.3,Win32,59.99880002,629c4b6caf241d5e6e00bfc0,,,,,,,,,,,,,,,,,,,"[0.04299999999999993,0.16060000000000008,-0.6628000000000001]",onethree,"[-0.4668,-0.8746,-0.2942]",-2,1.4342,-33.5,-25,1,0,0,response5disk_5,3.5,3,1,0,0,rectangle_8,3.5,3,1,0,0,1,3.5,3,1,0,0,3,0,3,0,1,,,,,,,,,,,,,,,,,,,,,,,,,,,,,,,,,,,,,,,,,,,,,,,,,,,,,,,,,,,,,,,,,,,,,,,,,,,,,,,,,,,,,,,,,,,,,,,,
,,,,,,612ba6c594a6d54154a88ae7,629c5a43497162f0a020fbfc,2022-06-05_09h26.24.874,Colour_Asymmetry_Pilot,2022.1.3,Win32,59.99880002,629c4b6caf241d5e6e00bfc0,,,,,,,,,,,,,,,,,,,"[0.0351999999999999,0.41159999999999997,0.0038000000000000256]",onethree,"[0.7646000000000002,0.07440000000000002,0.2704]",2,4.7509,37.5,-16,1,0,0,response3disk_5,9.5,-12,1,0,0,rectangle_8,9.5,-12,1,0,0,1,9.5,-12,1,0,0,4,0,4,0,1,,4,,,,,,,,,,,,,,,,,,,,,,,,,,,,,,,,,,,,,,,,,,,,,,,,,,,,,,,,,,,,,,,,,,,,,,,,,,,,,,,,,,,,,,,,,,,,,,
,,,,,,612ba6c594a6d54154a88ae7,629c5a43497162f0a020fbfc,2022-06-05_09h26.24.874,Colour_Asymmetry_Pilot,2022.1.3,Win32,59.99880002,629c4b6caf241d5e6e00bfc0,,,,,,,,,,,,,,,,,,,"[0.3568,-0.20799999999999996,-0.9844]",fourtwo,"[0.37240000000000006,-0.050999999999999934,-0.5216]",4,1.2661,22.5,54,1,0,0,response1disk_5,-9,-7,1,0,0,rectangle_8,-9,-7,1,0,0,1,-9,-7,1,0,0,5,0,5,0,1,,,,,,,,,,,,,,,,,,,,,,,,,,,,,,,,,,,,,,,,,,,,,,,,,,,,,,,,,,,,,,,,,,,,,,,,,,,,,,,,,,,,,,,,,,,,,,,,
,,,,,,612ba6c594a6d54154a88ae7,629c5a43497162f0a020fbfc,2022-06-05_09h26.24.874,Colour_Asymmetry_Pilot,2022.1.3,Win32,59.99880002,629c4b6caf241d5e6e00bfc0,,,,,,,,,,,,,,,,,,,"[-0.6235999999999999,-0.6786,-0.08239999999999992]",twoone,"[-0.4668,-0.8746,-0.2942]",3,0.9507,44,20,1,0,0,response1disk_5,2,3,1,0,0,rectangle_8,2,3,1,0,0,1,2,3,1,0,0,6,0,6,0,1,,,,,,,,,,,,,,,,,,,,,,,,,,,,,,,,,,,,,,,,,,,,,,,,,,,,,,,,,,,,,,,,,,,,,,,,,,,,,,,,,,,,,,,,,,,,,,,,
,,,,,,612ba6c594a6d54154a88ae7,629c5a43497162f0a020fbfc,2022-06-05_09h26.24.874,Colour_Asymmetry_Pilot,2022.1.3,Win32,59.99880002,629c4b6caf241d5e6e00bfc0,,,,,,,,,,,,,,,,,,,,onethree,,-2,1.0994,,,,,,,,,,,,,,,,,,,,,,,,,,,,,,,,space,24.8163,"[-0.4668,-0.8746,-0.2942]","[0.05879999999999996,0.2784,0.5841999999999998]",-22,-19,1,0,0,response5disk,1,5,1,0,0,rectangle,1,5,1,0,0,,3,0.002,0,1,5,1,0,0,0,0,0,23,1,23,first,,,,,,,,,,,,,,,,,,,,,,,,,,,,,,,,,,,,,,,,,,,,,,,,,,,,,,,,
,,,,,,612ba6c594a6d54154a88ae7,629c5a43497162f0a020fbfc,2022-06-05_09h26.24.874,Colour_Asymmetry_Pilot,2022.1.3,Win32,59.99880002,629c4b6caf241d5e6e00bfc0,,,,,,,,,,,,,,,,,,,,threefour,,-2,0.8166,,,,,,,,,,,,,,,,,,,,,,,,,,,,,,,,,,"[0.34099999999999997,0.12939999999999996,-0.9766]","[0.30180000000000007,-0.7884,-0.9844]",-53,-13,1,0,0,response5disk,11,-13,1,0,0,rectangle,11,-13,1,0,0,1,1,0.0008,0,11,-13,1,0,0,0,1,1,130,1,49,second,,,,,,,,,,,,,,,,,,,,,,,,,,,,,,,,,,,,,,,,,,,,,,,,,,,,,,,,
,,,,,,612ba6c594a6d54154a88ae7,629c5a43497162f0a020fbfc,2022-06-05_09h26.24.874,Colour_Asymmetry_Pilot,2022.1.3,Win32,59.99880002,629c4b6caf241d5e6e00bfc0,,,,,,,,,,,,,,,,,,,,onethree,,-3,0.501,,,,,,,,,,,,,,,,,,,,,,,,,,,,,,,,,,"[-0.9844,-0.9688,-0.9922]","[0.37240000000000006,-0.050999999999999934,-0.5216]",-30,20,1,0,0,response7disk,-11,2,1,0,0,rectangle,-11,2,1,0,0,1,1,0.0002,0,-11,2,1,0,0,0,2,2,14,1,14,first,,,,,,,,,,,,,,,,,,,,,,,,,,,,,,,,,,,,,,,,,,,,,,,,,,,,,,,,
,,,,,,612ba6c594a6d54154a88ae7,629c5a43497162f0a020fbfc,2022-06-05_09h26.24.874,Colour_Asymmetry_Pilot,2022.1.3,Win32,59.99880002,629c4b6caf241d5e6e00bfc0,,,,,,,,,,,,,,,,,,,,twoone,,-3,1.1998,,,,,,,,,,,,,,,,,,,,,,,,,,,,,,,,,,"[-0.10599999999999998,-0.10599999999999998,0.5841999999999998]","[0.8274000000000001,-0.5844,-0.9452]",-21,18,1,0,0,response7disk,-8,3,1,0,0,rectangle,52,21,1,0,0,3,3,5.4995,1,-8,4,1,0,0,0,3,3,55,1,55,first,response1disk_3,rectangle,,,,,,,,,,,,,,,,,,,,,,,,,,,,,,,,,,,,,,,,,,,,,,,,,,,,,,
,,,,,,612ba6c594a6d54154a88ae7,629c5a43497162f0a020fbfc,2022-06-05_09h26.24.874,Colour_Asymmetry_Pilot,2022.1.3,Win32,59.99880002,629c4b6caf241d5e6e00bfc0,,,,,,,,,,,,,,,,,,,,fourtwo,,-2,3.4181,,,,,,,,,,,,,,,,,,,,,,,,,,,,,,,,,,"[0.6547999999999998,-0.043199999999999905,-0.011800000000000033]","[-0.07459999999999989,0.12139999999999995,-0.9922]",-41,-21,1,0,0,response5disk,-16,-10,1,0,0,rectangle,-16,-10,1,0,0,-2,3,0.0002,0,-16,-10,1,0,0,0,4,4,60,1,60,first,,,,,,,,,,,,,,,,,,,,,,,,,,,,,,,,,,,,,,,,,,,,,,,,,,,,,,,,
,,,,,,612ba6c594a6d54154a88ae7,629c5a43497162f0a020fbfc,2022-06-05_09h26.24.874,Colour_Asymmetry_Pilot,2022.1.3,Win32,59.99880002,629c4b6caf241d5e6e00bfc0,,,,,,,,,,,,,,,,,,,,fourthree,,1,1.6338,,,,,,,,,,,,,,,,,,,,,,,,,,,,,,,,,,"[-0.45899999999999996,-0.3256,-0.9374]","[-0.9844,-0.9688,-0.9922]",26,-38,1,0,0,response3disk,11,-9,1,0,0,rectangle,11,-9,1,0,0,2,1,0.0009,0,11,-9,1,0,0,0,5,5,93,1,12,second,,,,,,,,,,,,,,,,,,,,,,,,,,,,,,,,,,,,,,,,,,,,,,,,,,,,,,,,
,,,,,,612ba6c594a6d54154a88ae7,629c5a43497162f0a020fbfc,2022-06-05_09h26.24.874,Colour_Asymmetry_Pilot,2022.1.3,Win32,59.99880002,629c4b6caf241d5e6e00bfc0,,,,,,,,,,,,,,,,,,,,threefour,,-4,0.7172,,,,,,,,,,,,,,,,,,,,,,,,,,,,,,,,,,"[-0.45899999999999996,-0.3256,-0.9374]","[0.7018,0.7176,0.6155999999999999]",-28,48,1,0,0,response7disk,-17,-2,1,0,0,rectangle,-17,-2,1,0,0,2,1,0.0002,0,-17,-2,1,0,0,0,6,6,16,1,16,first,,,,,,,,,,,,,,,,,,,,,,,,,,,,,,,,,,,,,,,,,,,,,,,,,,,,,,,,
,,,,,,612ba6c594a6d54154a88ae7,629c5a43497162f0a020fbfc,2022-06-05_09h26.24.874,Colour_Asymmetry_Pilot,2022.1.3,Win32,59.99880002,629c4b6caf241d5e6e00bfc0,,,,,,,,,,,,,,,,,,,,onethree,,-3,1.2007,,,,,,,,,,,,,,,,,,,,,,,,,,,,,,,,,,"[0.2784,-0.31000000000000005,-0.5452]","[-0.4746,-0.0354000000000001,0.5449999999999999]",-37,15,1,0,0,response7disk,-20,-6,1,0,0,rectangle,-20,-6,1,0,0,2,1,0.0002,0,-20,-6,1,0,0,0,7,7,156,1,75,second,,,,,,,,,,,,,,,,,,,,,,,,,,,,,,,,,,,,,,,,,,,,,,,,,,,,,,,,
,,,,,,612ba6c594a6d54154a88ae7,629c5a43497162f0a020fbfc,2022-06-05_09h26.24.874,Colour_Asymmetry_Pilot,2022.1.3,Win32,59.99880002,629c4b6caf241d5e6e00bfc0,,,,,,,,,,,,,,,,,,,,onetwo,,-3,0.8658,,,,,,,,,,,,,,,,,,,,,,,,,,,,,,,,,,"[-0.9296,-0.12959999999999994,-0.043199999999999905]","[0.18419999999999992,-0.4276,-0.404]",-42,22,1,0,0,response7disk,-3,9,1,0,0,rectangle,-3,9,1,0,0,2,3,0.0008,0,-3,9,1,0,0,0,8,8,81,1,0,second,,,,,,,,,,,,,,,,,,,,,,,,,,,,,,,,,,,,,,,,,,,,,,,,,,,,,,,,
,,,,,,612ba6c594a6d54154a88ae7,629c5a43497162f0a020fbfc,2022-06-05_09h26.24.874,Colour_Asymmetry_Pilot,2022.1.3,Win32,59.99880002,629c4b6caf241d5e6e00bfc0,,,,,,,,,,,,,,,,,,,,twoone,,2,0.5856,,,,,,,,,,,,,,,,,,,,,,,,,,,,,,,,,,"[0.7176,-0.906,-0.6864]","[-0.34920000000000007,-0.702,-0.5216]",28,-11,1,0,0,response3disk,12,2,1,0,0,rectangle,12,2,1,0,0,2,3,0.0003,0,12,2,1,0,0,0,9,9,88,1,7,second,,,,,,,,,,,,,,,,,,,,,,,,,,,,,,,,,,,,,,,,,,,,,,,,,,,,,,,,
,,,,,,612ba6c594a6d54154a88ae7,629c5a43497162f0a020fbfc,2022-06-05_09h26.24.874,Colour_Asymmetry_Pilot,2022.1.3,Win32,59.99880002,629c4b6caf241d5e6e00bfc0,,,,,,,,,,,,,,,,,,,,fourthree,,1,1.1871,,,,,,,,,,,,,,,,,,,,,,,,,,,,,,,,,,"[0.19199999999999995,0.18419999999999992,0.5136000000000001]","[-0.9688,-0.38039999999999996,-0.41979999999999995]",23,-36,1,0,0,response3disk,12,-6,1,0,0,rectangle,12,-6,1,0,0,2,3,0.0003,0,12,-6,1,0,0,0,10,10,108,1,27,second,,,,,,,,,,,,,,,,,,,,,,,,,,,,,,,,,,,,,,,,,,,,,,,,,,,,,,,,
,,,,,,612ba6c594a6d54154a88ae7,629c5a43497162f0a020fbfc,2022-06-05_09h26.24.874,Colour_Asymmetry_Pilot,2022.1.3,Win32,59.99880002,629c4b6caf241d5e6e00bfc0,,,,,,,,,,,,,,,,,,,,onethree,,-1,1.1215,,,,,,,,,,,,,,,,,,,,,,,,,,,,,,,,,,"[0.2784,-0.31000000000000005,-0.5452]","[-0.9766,-0.34920000000000007,0.2156]",-27,-37,1,0,0,response5disk,-8,-4,1,0,0,rectangle,-8,-4,1,0,0,2,3,0.0003,0,-8,-4,1,0,0,0,11,11,120,1,39,second,,,,,,,,,,,,,,,,,,,,,,,,,,,,,,,,,,,,,,,,,,,,,,,,,,,,,,,,
,,,,,,612ba6c594a6d54154a88ae7,629c5a43497162f0a020fbfc,2022-06-05_09h26.24.874,Colour_Asymmetry_Pilot,2022.1.3,Win32,59.99880002,629c4b6caf241d5e6e00bfc0,,,,,,,,,,,,,,,,,,,,twoone,,3,1.1346,,,,,,,,,,,,,,,,,,,,,,,,,,,,,,,,,,"[-0.9688,-0.4902000000000001,-0.12159999999999993]","[-0.5688,-0.08239999999999992,-0.1844]",50,21,1,0,0,response1disk,19,6,1,0,0,rectangle,19,6,1,0,0,2,3,9.99999E-05,0,19,6,1,0,0,0,12,12,138,1,57,second,,,,,,,,,,,,,,,,,,,,,,,,,,,,,,,,,,,,,,,,,,,,,,,,,,,,,,,,
,,,,,,612ba6c594a6d54154a88ae7,629c5a43497162f0a020fbfc,2022-06-05_09h26.24.874,Colour_Asymmetry_Pilot,2022.1.3,Win32,59.99880002,629c4b6caf241d5e6e00bfc0,,,,,,,,,,,,,,,,,,,,onetwo,,3,0.364,,,,,,,,,,,,,,,,,,,,,,,,,,,,,,,,,,"[-0.9766,-0.34920000000000007,0.2156]","[-0.9688,-0.7412000000000001,-0.4902000000000001]",39,24,1,0,0,response1disk,7,-11,1,0,0,rectangle,7,-11,1,0,0,2,3,0.0002,0,7,-11,1,0,0,0,13,13,31,1,31,first,,,,,,,,,,,,,,,,,,,,,,,,,,,,,,,,,,,,,,,,,,,,,,,,,,,,,,,,
,,,,,,612ba6c594a6d54154a88ae7,629c5a43497162f0a020fbfc,2022-06-05_09h26.24.874,Colour_Asymmetry_Pilot,2022.1.3,Win32,59.99880002,629c4b6caf241d5e6e00bfc0,,,,,,,,,,,,,,,,,,,,twoone,,-4,0.6663,,,,,,,,,,,,,,,,,,,,,,,,,,,,,,,,,,"[0.3881999999999999,-0.23939999999999995,-0.05040000000000011]","[0.37240000000000006,0.4980000000000002,-0.2864]",-21,60,1,0,0,response7disk,-8,1,1,0,0,rectangle,-8,1,1,0,0,2,2,0.0009,0,-8,1,1,0,0,0,14,14,83,1,2,second,,,,,,,,,,,,,,,,,,,,,,,,,,,,,,,,,,,,,,,,,,,,,,,,,,,,,,,,
,,,,,,612ba6c594a6d54154a88ae7,629c5a43497162f0a020fbfc,2022-06-05_09h26.24.874,Colour_Asymmetry_Pilot,2022.1.3,Win32,59.99880002,629c4b6caf241d5e6e00bfc0,,,,,,,,,,,,,,,,,,,,twofour,,-2,0.7178,,,,,,,,,,,,,,,,,,,,,,,,,,,,,,,,,,"[-0.34920000000000007,-0.702,-0.5216]","[-0.9138,-0.5296000000000001,-0.5529999999999999]",-25,-14,1,0,0,response5disk,-5,3,1,0,0,rectangle,-5,3,1,0,0,2,1,0.0013,0,-5,3,1,0,0,0,15,15,103,1,22,second,,,,,,,,,,,,,,,,,,,,,,,,,,,,,,,,,,,,,,,,,,,,,,,,,,,,,,,,
,,,,,,612ba6c594a6d54154a88ae7,629c5a43497162f0a020fbfc,2022-06-05_09h26.24.874,Colour_Asymmetry_Pilot,2022.1.3,Win32,59.99880002,629c4b6caf241d5e6e00bfc0,,,,,,,,,,,,,,,,,,,,threefour,,-3,0.6201,,,,,,,,,,,,,,,,,,,,,,,,,,,,,,,,,,"[0.7018,0.7176,0.6155999999999999]","[-0.9138,-0.5296000000000001,-0.5529999999999999]",-47,23,1,0,0,response7disk,18,10,1,0,0,rectangle,41,-18,1,0,0,2,3,1.4184,1,16,1,1,0,0,0,16,16,36,1,36,first,response3disk_3,rectangle,,,,,,,,,,,,,,,,,,,,,,,,,,,,,,,,,,,,,,,,,,,,,,,,,,,,,,
,,,,,,612ba6c594a6d54154a88ae7,629c5a43497162f0a020fbfc,2022-06-05_09h26.24.874,Colour_Asymmetry_Pilot,2022.1.3,Win32,59.99880002,629c4b6caf241d5e6e00bfc0,,,,,,,,,,,,,,,,,,,,twoone,,-3,0.6225,,,,,,,,,,,,,,,,,,,,,,,,,,,,,,,,,,"[0.8115999999999999,-0.0040000000000000036,-0.09819999999999995]","[-0.10599999999999998,-0.10599999999999998,0.5841999999999998]",-59,22,1,0,0,response7disk,5,-2,1,0,0,rectangle,5,-2,1,0,0,2,1,0.0007,0,5,-2,1,0,0,0,17,17,51,1,51,first,,,,,,,,,,,,,,,,,,,,,,,,,,,,,,,,,,,,,,,,,,,,,,,,,,,,,,,,
,,,,,,612ba6c594a6d54154a88ae7,629c5a43497162f0a020fbfc,2022-06-05_09h26.24.874,Colour_Asymmetry_Pilot,2022.1.3,Win32,59.99880002,629c4b6caf241d5e6e00bfc0,,,,,,,,,,,,,,,,,,,,onethree,,4,0.6656,,,,,,,,,,,,,,,,,,,,,,,,,,,,,,,,,,"[-0.8198,-0.5138,-0.7492000000000001]","[-0.7412000000000001,-0.08239999999999992,-0.6864]",37,46,1,0,0,response1disk,13,8,1,0,0,rectangle,13,8,1,0,0,3,1,9.99999E-05,0,13,8,1,0,0,0,18,18,140,1,59,second,,,,,,,,,,,,,,,,,,,,,,,,,,,,,,,,,,,,,,,,,,,,,,,,,,,,,,,,
,,,,,,612ba6c594a6d54154a88ae7,629c5a43497162f0a020fbfc,2022-06-05_09h26.24.874,Colour_Asymmetry_Pilot,2022.1.3,Win32,59.99880002,629c4b6caf241d5e6e00bfc0,,,,,,,,,,,,,,,,,,,,threeone,,-3,1.5331,,,,,,,,,,,,,,,,,,,,,,,,,,,,,,,,,,"[0.7802,-0.23140000000000005,-0.20799999999999996]","[-0.4902000000000001,0.2704,-0.45899999999999996]",-45,13,1,0,0,response7disk,-25,0,1,0,0,rectangle,-25,0,1,0,0,3,3,0.0009,0,-25,0,1,0,0,0,19,19,142,1,61,second,,,,,,,,,,,,,,,,,,,,,,,,,,,,,,,,,,,,,,,,,,,,,,,,,,,,,,,,
,,,,,,612ba6c594a6d54154a88ae7,629c5a43497162f0a020fbfc,2022-06-05_09h26.24.874,Colour_Asymmetry_Pilot,2022.1.3,Win32,59.99880002,629c4b6caf241d5e6e00bfc0,,,,,,,,,,,,,,,,,,,,fourthree,,-2,0.6021,,,,,,,,,,,,,,,,,,,,,,,,,,,,,,,,,,"[0.37240000000000006,-0.050999999999999934,-0.5216]","[-0.6706000000000001,-0.6157999999999999,-0.6786]",-44,-19,1,0,0,response5disk,-7,0,1,0,0,rectangle,-7,0,1,0,0,3,1,0.0006,0,-7,0,1,0,0,0,20,20,8,1,8,first,,,,,,,,,,,,,,,,,,,,,,,,,,,,,,,,,,,,,,,,,,,,,,,,,,,,,,,,
,,,,,,612ba6c594a6d54154a88ae7,629c5a43497162f0a020fbfc,2022-06-05_09h26.24.874,Colour_Asymmetry_Pilot,2022.1.3,Win32,59.99880002,629c4b6caf241d5e6e00bfc0,,,,,,,,,,,,,,,,,,,,threeone,,4,0.7314,,,,,,,,,,,,,,,,,,,,,,,,,,,,,,,,,,"[-0.7412000000000001,-0.08239999999999992,-0.6864]","[-0.8198,-0.5138,-0.7492000000000001]",24,55,1,0,0,response1disk,13,1,1,0,0,rectangle,13,1,1,0,0,3,1,0.0004,0,13,1,1,0,0,0,21,21,59,1,59,first,,,,,,,,,,,,,,,,,,,,,,,,,,,,,,,,,,,,,,,,,,,,,,,,,,,,,,,,
,,,,,,612ba6c594a6d54154a88ae7,629c5a43497162f0a020fbfc,2022-06-05_09h26.24.874,Colour_Asymmetry_Pilot,2022.1.3,Win32,59.99880002,629c4b6caf241d5e6e00bfc0,,,,,,,,,,,,,,,,,,,,onetwo,,-3,0.4495,,,,,,,,,,,,,,,,,,,,,,,,,,,,,,,,,,"[0.9213999999999998,0.6391999999999998,-0.9922]","[0.8274000000000001,-0.5844,-0.9452]",-25,23,1,0,0,response7disk,-15,7,1,0,0,rectangle,-15,7,1,0,0,3,3,0.0008,0,-15,7,1,0,0,0,22,22,135,1,54,second,,,,,,,,,,,,,,,,,,,,,,,,,,,,,,,,,,,,,,,,,,,,,,,,,,,,,,,,
,,,,,,612ba6c594a6d54154a88ae7,629c5a43497162f0a020fbfc,2022-06-05_09h26.24.874,Colour_Asymmetry_Pilot,2022.1.3,Win32,59.99880002,629c4b6caf241d5e6e00bfc0,,,,,,,,,,,,,,,,,,,,onethree,,3,0.6484,,,,,,,,,,,,,,,,,,,,,,,,,,,,,,,,,,"[-0.9688,-0.38039999999999996,-0.41979999999999995]","[0.19199999999999995,0.18419999999999992,0.5136000000000001]",28,11,1,0,0,response1disk,13,-13,1,0,0,rectangle,13,-13,1,0,0,2,3,0.0002,0,13,-13,1,0,0,0,23,23,27,1,27,first,,,,,,,,,,,,,,,,,,,,,,,,,,,,,,,,,,,,,,,,,,,,,,,,,,,,,,,,
,,,,,,612ba6c594a6d54154a88ae7,629c5a43497162f0a020fbfc,2022-06-05_09h26.24.874,Colour_Asymmetry_Pilot,2022.1.3,Win32,59.99880002,629c4b6caf241d5e6e00bfc0,,,,,,,,,,,,,,,,,,,,onethree,,-3,0.7874,,,,,,,,,,,,,,,,,,,,,,,,,,,,,,,,,,"[0.37240000000000006,0.4980000000000002,-0.2864]","[0.3881999999999999,-0.23939999999999995,-0.05040000000000011]",-41,13,1,0,0,response7disk,-25,8,1,0,0,rectangle,-25,8,1,0,0,-3,2,0.0007,0,-25,8,1,0,0,0,24,24,2,1,2,first,,,,,,,,,,,,,,,,,,,,,,,,,,,,,,,,,,,,,,,,,,,,,,,,,,,,,,,,
,,,,,,612ba6c594a6d54154a88ae7,629c5a43497162f0a020fbfc,2022-06-05_09h26.24.874,Colour_Asymmetry_Pilot,2022.1.3,Win32,59.99880002,629c4b6caf241d5e6e00bfc0,,,,,,,,,,,,,,,,,,,,twoone,,2,2.0592,,,,,,,,,,,,,,,,,,,,,,,,,,,,,,,,,,"[0.5449999999999999,-0.31000000000000005,-0.0354000000000001]","[-0.4668,-0.8746,-0.2942]",22,-11,1,0,0,response3disk,-7,5,1,0,0,rectangle,-7,5,1,0,0,-3,2,0.0005,0,-7,5,1,0,0,0,25,25,94,1,13,second,,,,,,,,,,,,,,,,,,,,,,,,,,,,,,,,,,,,,,,,,,,,,,,,,,,,,,,,
,,,,,,612ba6c594a6d54154a88ae7,629c5a43497162f0a020fbfc,2022-06-05_09h26.24.874,Colour_Asymmetry_Pilot,2022.1.3,Win32,59.99880002,629c4b6caf241d5e6e00bfc0,,,,,,,,,,,,,,,,,,,,fourtwo,,-2,0.7517,,,,,,,,,,,,,,,,,,,,,,,,,,,,,,,,,,"[-0.9766,-0.34920000000000007,0.2156]","[0.2784,-0.31000000000000005,-0.5452]",-45,-10,1,0,0,response5disk,18,15,1,0,0,rectangle,18,15,1,0,0,3,3,0.001,0,18,15,1,0,0,0,26,26,39,1,39,first,,,,,,,,,,,,,,,,,,,,,,,,,,,,,,,,,,,,,,,,,,,,,,,,,,,,,,,,
,,,,,,612ba6c594a6d54154a88ae7,629c5a43497162f0a020fbfc,2022-06-05_09h26.24.874,Colour_Asymmetry_Pilot,2022.1.3,Win32,59.99880002,629c4b6caf241d5e6e00bfc0,,,,,,,,,,,,,,,,,,,,fourtwo,,-4,0.5462,,,,,,,,,,,,,,,,,,,,,,,,,,,,,,,,,,"[-0.17659999999999998,-0.2864,-0.8354]","[-0.4746,-0.0354000000000001,0.5449999999999999]",-18,25,1,0,0,response7disk,-14,9,1,0,0,rectangle,-14,9,1,0,0,-3,2,0.002,0,-14,9,1,0,0,0,27,27,73,1,73,first,,,,,,,,,,,,,,,,,,,,,,,,,,,,,,,,,,,,,,,,,,,,,,,,,,,,,,,,
