trials.thisRepN,trials.thisTrialN,trials.thisN,trials.thisIndex,trials.ran,Colourcodes,participant,session,date,expName,psychopyVersion,OS,frameRate,study_id,trials_4.thisRepN,trials_4.thisTrialN,trials_4.thisN,trials_4.thisIndex,trials_4.ran,StimulusPos,key_resp.keys,key_resp.rt,key_resp_2.keys,key_resp_2.rt,key_resp_15.keys,key_resp_15.rt,key_resp_17.keys,key_resp_17.rt,key_resp_9.keys,key_resp_9.rt,key_resp_10.keys,key_resp_10.rt,Circle1_col,Ecc,Circle2_col,similarity,response_time,mouse_5.x,mouse_5.y,mouse_5.leftButton,mouse_5.midButton,mouse_5.rightButton,mouse_5.clicked_name,mouse_10.x,mouse_10.y,mouse_10.leftButton,mouse_10.midButton,mouse_10.rightButton,mouse_10.clicked_name,mouse_7.x,mouse_7.y,mouse_7.leftButton,mouse_7.midButton,mouse_7.rightButton,catchnumberprac,mouse_6.x,mouse_6.y,mouse_6.leftButton,mouse_6.midButton,mouse_6.rightButton,duringprac.thisRepN,duringprac.thisTrialN,duringprac.thisN,duringprac.thisIndex,duringprac.ran,mouse_7.clicked_name,catchprac,mouse_6.clicked_name,key_resp_22.keys,key_resp_22.rt,Circle1_colour,Circle2_colour,mouse.x,mouse.y,mouse.leftButton,mouse.midButton,mouse.rightButton,mouse.clicked_name,mouse_2.x,mouse_2.y,mouse_2.leftButton,mouse_2.midButton,mouse_2.rightButton,mouse_2.clicked_name,mouse_3.x,mouse_3.y,mouse_3.leftButton,mouse_3.midButton,mouse_3.rightButton,catchresponse,catchnumber,response_time_catch,Catch,mouse_11.x,mouse_11.y,mouse_11.leftButton,mouse_11.midButton,mouse_11.rightButton,trials_2.thisRepN,trials_2.thisTrialN,trials_2.thisN,trials_2.thisIndex,trials_2.ran,Colourpair,Temporder,mouse_3.clicked_name,mouse_11.clicked_name,trials_3.thisRepN,trials_3.thisTrialN,trials_3.thisN,trials_3.thisIndex,trials_3.ran,textbox.text,mouse_4.x,mouse_4.y,mouse_4.leftButton,mouse_4.midButton,mouse_4.rightButton,mouse_4.clicked_name,textbox_2.text,mouse_8.x,mouse_8.y,mouse_8.leftButton,mouse_8.midButton,mouse_8.rightButton,mouse_8.clicked_name,textbox_3.text,mouse_9.x,mouse_9.y,mouse_9.leftButton,mouse_9.midButton,mouse_9.rightButton,mouse_9.clicked_name,textbox_4.text,mouse_12.x,mouse_12.y,mouse_12.leftButton,mouse_12.midButton,mouse_12.rightButton,mouse_12.clicked_name,textbox_5.text,mouse_13.x,mouse_13.y,mouse_13.leftButton,mouse_13.midButton,mouse_13.rightButton,mouse_13.clicked_name,textbox_6.text,mouse_14.x,mouse_14.y,mouse_14.leftButton,mouse_14.midButton,mouse_14.rightButton,mouse_14.clicked_name,textbox_7.text,mouse_15.x,mouse_15.y,mouse_15.leftButton,mouse_15.midButton,mouse_15.rightButton,mouse_15.clicked_name
0,0,0,14,1,,606aad87b9f57a82dd447d6a,629c51aaa588dbbc11d09dc2,2022-06-05_07h52.21.566,Colour_Asymmetry_Pilot,2022.1.3,Win32,59.93407252,629c4b6caf241d5e6e00bfc0,,,,,,,,,,,,,,,,,,,,,,,,,,,,,,,,,,,,,,,,,,,,,,,,,,,,,,,,,,,,,,,,,,,,,,,,,,,,,,,,,,,,,,,,,,,,,,,,,,,,,,,,,,,,,,,,,,,,,,,,,,,,,,,,,,,,,,,,,,,,,,,,,,,
0,1,1,92,1,,606aad87b9f57a82dd447d6a,629c51aaa588dbbc11d09dc2,2022-06-05_07h52.21.566,Colour_Asymmetry_Pilot,2022.1.3,Win32,59.93407252,629c4b6caf241d5e6e00bfc0,,,,,,,,,,,,,,,,,,,,,,,,,,,,,,,,,,,,,,,,,,,,,,,,,,,,,,,,,,,,,,,,,,,,,,,,,,,,,,,,,,,,,,,,,,,,,,,,,,,,,,,,,,,,,,,,,,,,,,,,,,,,,,,,,,,,,,,,,,,,,,,,,,,
0,2,2,27,1,,606aad87b9f57a82dd447d6a,629c51aaa588dbbc11d09dc2,2022-06-05_07h52.21.566,Colour_Asymmetry_Pilot,2022.1.3,Win32,59.93407252,629c4b6caf241d5e6e00bfc0,,,,,,,,,,,,,,,,,,,,,,,,,,,,,,,,,,,,,,,,,,,,,,,,,,,,,,,,,,,,,,,,,,,,,,,,,,,,,,,,,,,,,,,,,,,,,,,,,,,,,,,,,,,,,,,,,,,,,,,,,,,,,,,,,,,,,,,,,,,,,,,,,,,
0,3,3,70,1,,606aad87b9f57a82dd447d6a,629c51aaa588dbbc11d09dc2,2022-06-05_07h52.21.566,Colour_Asymmetry_Pilot,2022.1.3,Win32,59.93407252,629c4b6caf241d5e6e00bfc0,,,,,,,,,,,,,,,,,,,,,,,,,,,,,,,,,,,,,,,,,,,,,,,,,,,,,,,,,,,,,,,,,,,,,,,,,,,,,,,,,,,,,,,,,,,,,,,,,,,,,,,,,,,,,,,,,,,,,,,,,,,,,,,,,,,,,,,,,,,,,,,,,,,
0,4,4,53,1,,606aad87b9f57a82dd447d6a,629c51aaa588dbbc11d09dc2,2022-06-05_07h52.21.566,Colour_Asymmetry_Pilot,2022.1.3,Win32,59.93407252,629c4b6caf241d5e6e00bfc0,,,,,,,,,,,,,,,,,,,,,,,,,,,,,,,,,,,,,,,,,,,,,,,,,,,,,,,,,,,,,,,,,,,,,,,,,,,,,,,,,,,,,,,,,,,,,,,,,,,,,,,,,,,,,,,,,,,,,,,,,,,,,,,,,,,,,,,,,,,,,,,,,,,
0,5,5,51,1,,606aad87b9f57a82dd447d6a,629c51aaa588dbbc11d09dc2,2022-06-05_07h52.21.566,Colour_Asymmetry_Pilot,2022.1.3,Win32,59.93407252,629c4b6caf241d5e6e00bfc0,,,,,,,,,,,,,,,,,,,,,,,,,,,,,,,,,,,,,,,,,,,,,,,,,,,,,,,,,,,,,,,,,,,,,,,,,,,,,,,,,,,,,,,,,,,,,,,,,,,,,,,,,,,,,,,,,,,,,,,,,,,,,,,,,,,,,,,,,,,,,,,,,,,
0,6,6,13,1,,606aad87b9f57a82dd447d6a,629c51aaa588dbbc11d09dc2,2022-06-05_07h52.21.566,Colour_Asymmetry_Pilot,2022.1.3,Win32,59.93407252,629c4b6caf241d5e6e00bfc0,,,,,,,,,,,,,,,,,,,,,,,,,,,,,,,,,,,,,,,,,,,,,,,,,,,,,,,,,,,,,,,,,,,,,,,,,,,,,,,,,,,,,,,,,,,,,,,,,,,,,,,,,,,,,,,,,,,,,,,,,,,,,,,,,,,,,,,,,,,,,,,,,,,
0,7,7,36,1,,606aad87b9f57a82dd447d6a,629c51aaa588dbbc11d09dc2,2022-06-05_07h52.21.566,Colour_Asymmetry_Pilot,2022.1.3,Win32,59.93407252,629c4b6caf241d5e6e00bfc0,,,,,,,,,,,,,,,,,,,,,,,,,,,,,,,,,,,,,,,,,,,,,,,,,,,,,,,,,,,,,,,,,,,,,,,,,,,,,,,,,,,,,,,,,,,,,,,,,,,,,,,,,,,,,,,,,,,,,,,,,,,,,,,,,,,,,,,,,,,,,,,,,,,
0,8,8,28,1,,606aad87b9f57a82dd447d6a,629c51aaa588dbbc11d09dc2,2022-06-05_07h52.21.566,Colour_Asymmetry_Pilot,2022.1.3,Win32,59.93407252,629c4b6caf241d5e6e00bfc0,,,,,,,,,,,,,,,,,,,,,,,,,,,,,,,,,,,,,,,,,,,,,,,,,,,,,,,,,,,,,,,,,,,,,,,,,,,,,,,,,,,,,,,,,,,,,,,,,,,,,,,,,,,,,,,,,,,,,,,,,,,,,,,,,,,,,,,,,,,,,,,,,,,
0,9,9,16,1,,606aad87b9f57a82dd447d6a,629c51aaa588dbbc11d09dc2,2022-06-05_07h52.21.566,Colour_Asymmetry_Pilot,2022.1.3,Win32,59.93407252,629c4b6caf241d5e6e00bfc0,,,,,,,,,,,,,,,,,,,,,,,,,,,,,,,,,,,,,,,,,,,,,,,,,,,,,,,,,,,,,,,,,,,,,,,,,,,,,,,,,,,,,,,,,,,,,,,,,,,,,,,,,,,,,,,,,,,,,,,,,,,,,,,,,,,,,,,,,,,,,,,,,,,
0,10,10,60,1,,606aad87b9f57a82dd447d6a,629c51aaa588dbbc11d09dc2,2022-06-05_07h52.21.566,Colour_Asymmetry_Pilot,2022.1.3,Win32,59.93407252,629c4b6caf241d5e6e00bfc0,,,,,,,,,,,,,,,,,,,,,,,,,,,,,,,,,,,,,,,,,,,,,,,,,,,,,,,,,,,,,,,,,,,,,,,,,,,,,,,,,,,,,,,,,,,,,,,,,,,,,,,,,,,,,,,,,,,,,,,,,,,,,,,,,,,,,,,,,,,,,,,,,,,
0,11,11,65,1,,606aad87b9f57a82dd447d6a,629c51aaa588dbbc11d09dc2,2022-06-05_07h52.21.566,Colour_Asymmetry_Pilot,2022.1.3,Win32,59.93407252,629c4b6caf241d5e6e00bfc0,,,,,,,,,,,,,,,,,,,,,,,,,,,,,,,,,,,,,,,,,,,,,,,,,,,,,,,,,,,,,,,,,,,,,,,,,,,,,,,,,,,,,,,,,,,,,,,,,,,,,,,,,,,,,,,,,,,,,,,,,,,,,,,,,,,,,,,,,,,,,,,,,,,
0,12,12,40,1,,606aad87b9f57a82dd447d6a,629c51aaa588dbbc11d09dc2,2022-06-05_07h52.21.566,Colour_Asymmetry_Pilot,2022.1.3,Win32,59.93407252,629c4b6caf241d5e6e00bfc0,,,,,,,,,,,,,,,,,,,,,,,,,,,,,,,,,,,,,,,,,,,,,,,,,,,,,,,,,,,,,,,,,,,,,,,,,,,,,,,,,,,,,,,,,,,,,,,,,,,,,,,,,,,,,,,,,,,,,,,,,,,,,,,,,,,,,,,,,,,,,,,,,,,
0,13,13,75,1,,606aad87b9f57a82dd447d6a,629c51aaa588dbbc11d09dc2,2022-06-05_07h52.21.566,Colour_Asymmetry_Pilot,2022.1.3,Win32,59.93407252,629c4b6caf241d5e6e00bfc0,,,,,,,,,,,,,,,,,,,,,,,,,,,,,,,,,,,,,,,,,,,,,,,,,,,,,,,,,,,,,,,,,,,,,,,,,,,,,,,,,,,,,,,,,,,,,,,,,,,,,,,,,,,,,,,,,,,,,,,,,,,,,,,,,,,,,,,,,,,,,,,,,,,
0,14,14,22,1,,606aad87b9f57a82dd447d6a,629c51aaa588dbbc11d09dc2,2022-06-05_07h52.21.566,Colour_Asymmetry_Pilot,2022.1.3,Win32,59.93407252,629c4b6caf241d5e6e00bfc0,,,,,,,,,,,,,,,,,,,,,,,,,,,,,,,,,,,,,,,,,,,,,,,,,,,,,,,,,,,,,,,,,,,,,,,,,,,,,,,,,,,,,,,,,,,,,,,,,,,,,,,,,,,,,,,,,,,,,,,,,,,,,,,,,,,,,,,,,,,,,,,,,,,
0,15,15,9,1,,606aad87b9f57a82dd447d6a,629c51aaa588dbbc11d09dc2,2022-06-05_07h52.21.566,Colour_Asymmetry_Pilot,2022.1.3,Win32,59.93407252,629c4b6caf241d5e6e00bfc0,,,,,,,,,,,,,,,,,,,,,,,,,,,,,,,,,,,,,,,,,,,,,,,,,,,,,,,,,,,,,,,,,,,,,,,,,,,,,,,,,,,,,,,,,,,,,,,,,,,,,,,,,,,,,,,,,,,,,,,,,,,,,,,,,,,,,,,,,,,,,,,,,,,
0,16,16,7,1,,606aad87b9f57a82dd447d6a,629c51aaa588dbbc11d09dc2,2022-06-05_07h52.21.566,Colour_Asymmetry_Pilot,2022.1.3,Win32,59.93407252,629c4b6caf241d5e6e00bfc0,,,,,,,,,,,,,,,,,,,,,,,,,,,,,,,,,,,,,,,,,,,,,,,,,,,,,,,,,,,,,,,,,,,,,,,,,,,,,,,,,,,,,,,,,,,,,,,,,,,,,,,,,,,,,,,,,,,,,,,,,,,,,,,,,,,,,,,,,,,,,,,,,,,
0,17,17,43,1,,606aad87b9f57a82dd447d6a,629c51aaa588dbbc11d09dc2,2022-06-05_07h52.21.566,Colour_Asymmetry_Pilot,2022.1.3,Win32,59.93407252,629c4b6caf241d5e6e00bfc0,,,,,,,,,,,,,,,,,,,,,,,,,,,,,,,,,,,,,,,,,,,,,,,,,,,,,,,,,,,,,,,,,,,,,,,,,,,,,,,,,,,,,,,,,,,,,,,,,,,,,,,,,,,,,,,,,,,,,,,,,,,,,,,,,,,,,,,,,,,,,,,,,,,
0,18,18,30,1,,606aad87b9f57a82dd447d6a,629c51aaa588dbbc11d09dc2,2022-06-05_07h52.21.566,Colour_Asymmetry_Pilot,2022.1.3,Win32,59.93407252,629c4b6caf241d5e6e00bfc0,,,,,,,,,,,,,,,,,,,,,,,,,,,,,,,,,,,,,,,,,,,,,,,,,,,,,,,,,,,,,,,,,,,,,,,,,,,,,,,,,,,,,,,,,,,,,,,,,,,,,,,,,,,,,,,,,,,,,,,,,,,,,,,,,,,,,,,,,,,,,,,,,,,
0,19,19,91,1,,606aad87b9f57a82dd447d6a,629c51aaa588dbbc11d09dc2,2022-06-05_07h52.21.566,Colour_Asymmetry_Pilot,2022.1.3,Win32,59.93407252,629c4b6caf241d5e6e00bfc0,,,,,,,,,,,,,,,,,,,,,,,,,,,,,,,,,,,,,,,,,,,,,,,,,,,,,,,,,,,,,,,,,,,,,,,,,,,,,,,,,,,,,,,,,,,,,,,,,,,,,,,,,,,,,,,,,,,,,,,,,,,,,,,,,,,,,,,,,,,,,,,,,,,
0,20,20,12,1,,606aad87b9f57a82dd447d6a,629c51aaa588dbbc11d09dc2,2022-06-05_07h52.21.566,Colour_Asymmetry_Pilot,2022.1.3,Win32,59.93407252,629c4b6caf241d5e6e00bfc0,,,,,,,,,,,,,,,,,,,,,,,,,,,,,,,,,,,,,,,,,,,,,,,,,,,,,,,,,,,,,,,,,,,,,,,,,,,,,,,,,,,,,,,,,,,,,,,,,,,,,,,,,,,,,,,,,,,,,,,,,,,,,,,,,,,,,,,,,,,,,,,,,,,
0,21,21,47,1,,606aad87b9f57a82dd447d6a,629c51aaa588dbbc11d09dc2,2022-06-05_07h52.21.566,Colour_Asymmetry_Pilot,2022.1.3,Win32,59.93407252,629c4b6caf241d5e6e00bfc0,,,,,,,,,,,,,,,,,,,,,,,,,,,,,,,,,,,,,,,,,,,,,,,,,,,,,,,,,,,,,,,,,,,,,,,,,,,,,,,,,,,,,,,,,,,,,,,,,,,,,,,,,,,,,,,,,,,,,,,,,,,,,,,,,,,,,,,,,,,,,,,,,,,
0,22,22,5,1,,606aad87b9f57a82dd447d6a,629c51aaa588dbbc11d09dc2,2022-06-05_07h52.21.566,Colour_Asymmetry_Pilot,2022.1.3,Win32,59.93407252,629c4b6caf241d5e6e00bfc0,,,,,,,,,,,,,,,,,,,,,,,,,,,,,,,,,,,,,,,,,,,,,,,,,,,,,,,,,,,,,,,,,,,,,,,,,,,,,,,,,,,,,,,,,,,,,,,,,,,,,,,,,,,,,,,,,,,,,,,,,,,,,,,,,,,,,,,,,,,,,,,,,,,
0,23,23,66,1,,606aad87b9f57a82dd447d6a,629c51aaa588dbbc11d09dc2,2022-06-05_07h52.21.566,Colour_Asymmetry_Pilot,2022.1.3,Win32,59.93407252,629c4b6caf241d5e6e00bfc0,,,,,,,,,,,,,,,,,,,,,,,,,,,,,,,,,,,,,,,,,,,,,,,,,,,,,,,,,,,,,,,,,,,,,,,,,,,,,,,,,,,,,,,,,,,,,,,,,,,,,,,,,,,,,,,,,,,,,,,,,,,,,,,,,,,,,,,,,,,,,,,,,,,
0,24,24,19,1,,606aad87b9f57a82dd447d6a,629c51aaa588dbbc11d09dc2,2022-06-05_07h52.21.566,Colour_Asymmetry_Pilot,2022.1.3,Win32,59.93407252,629c4b6caf241d5e6e00bfc0,,,,,,,,,,,,,,,,,,,,,,,,,,,,,,,,,,,,,,,,,,,,,,,,,,,,,,,,,,,,,,,,,,,,,,,,,,,,,,,,,,,,,,,,,,,,,,,,,,,,,,,,,,,,,,,,,,,,,,,,,,,,,,,,,,,,,,,,,,,,,,,,,,,
0,25,25,20,1,,606aad87b9f57a82dd447d6a,629c51aaa588dbbc11d09dc2,2022-06-05_07h52.21.566,Colour_Asymmetry_Pilot,2022.1.3,Win32,59.93407252,629c4b6caf241d5e6e00bfc0,,,,,,,,,,,,,,,,,,,,,,,,,,,,,,,,,,,,,,,,,,,,,,,,,,,,,,,,,,,,,,,,,,,,,,,,,,,,,,,,,,,,,,,,,,,,,,,,,,,,,,,,,,,,,,,,,,,,,,,,,,,,,,,,,,,,,,,,,,,,,,,,,,,
0,26,26,4,1,,606aad87b9f57a82dd447d6a,629c51aaa588dbbc11d09dc2,2022-06-05_07h52.21.566,Colour_Asymmetry_Pilot,2022.1.3,Win32,59.93407252,629c4b6caf241d5e6e00bfc0,,,,,,,,,,,,,,,,,,,,,,,,,,,,,,,,,,,,,,,,,,,,,,,,,,,,,,,,,,,,,,,,,,,,,,,,,,,,,,,,,,,,,,,,,,,,,,,,,,,,,,,,,,,,,,,,,,,,,,,,,,,,,,,,,,,,,,,,,,,,,,,,,,,
0,27,27,42,1,,606aad87b9f57a82dd447d6a,629c51aaa588dbbc11d09dc2,2022-06-05_07h52.21.566,Colour_Asymmetry_Pilot,2022.1.3,Win32,59.93407252,629c4b6caf241d5e6e00bfc0,,,,,,,,,,,,,,,,,,,,,,,,,,,,,,,,,,,,,,,,,,,,,,,,,,,,,,,,,,,,,,,,,,,,,,,,,,,,,,,,,,,,,,,,,,,,,,,,,,,,,,,,,,,,,,,,,,,,,,,,,,,,,,,,,,,,,,,,,,,,,,,,,,,
0,28,28,25,1,,606aad87b9f57a82dd447d6a,629c51aaa588dbbc11d09dc2,2022-06-05_07h52.21.566,Colour_Asymmetry_Pilot,2022.1.3,Win32,59.93407252,629c4b6caf241d5e6e00bfc0,,,,,,,,,,,,,,,,,,,,,,,,,,,,,,,,,,,,,,,,,,,,,,,,,,,,,,,,,,,,,,,,,,,,,,,,,,,,,,,,,,,,,,,,,,,,,,,,,,,,,,,,,,,,,,,,,,,,,,,,,,,,,,,,,,,,,,,,,,,,,,,,,,,
0,29,29,35,1,,606aad87b9f57a82dd447d6a,629c51aaa588dbbc11d09dc2,2022-06-05_07h52.21.566,Colour_Asymmetry_Pilot,2022.1.3,Win32,59.93407252,629c4b6caf241d5e6e00bfc0,,,,,,,,,,,,,,,,,,,,,,,,,,,,,,,,,,,,,,,,,,,,,,,,,,,,,,,,,,,,,,,,,,,,,,,,,,,,,,,,,,,,,,,,,,,,,,,,,,,,,,,,,,,,,,,,,,,,,,,,,,,,,,,,,,,,,,,,,,,,,,,,,,,
0,30,30,33,1,,606aad87b9f57a82dd447d6a,629c51aaa588dbbc11d09dc2,2022-06-05_07h52.21.566,Colour_Asymmetry_Pilot,2022.1.3,Win32,59.93407252,629c4b6caf241d5e6e00bfc0,,,,,,,,,,,,,,,,,,,,,,,,,,,,,,,,,,,,,,,,,,,,,,,,,,,,,,,,,,,,,,,,,,,,,,,,,,,,,,,,,,,,,,,,,,,,,,,,,,,,,,,,,,,,,,,,,,,,,,,,,,,,,,,,,,,,,,,,,,,,,,,,,,,
0,31,31,55,1,,606aad87b9f57a82dd447d6a,629c51aaa588dbbc11d09dc2,2022-06-05_07h52.21.566,Colour_Asymmetry_Pilot,2022.1.3,Win32,59.93407252,629c4b6caf241d5e6e00bfc0,,,,,,,,,,,,,,,,,,,,,,,,,,,,,,,,,,,,,,,,,,,,,,,,,,,,,,,,,,,,,,,,,,,,,,,,,,,,,,,,,,,,,,,,,,,,,,,,,,,,,,,,,,,,,,,,,,,,,,,,,,,,,,,,,,,,,,,,,,,,,,,,,,,
0,32,32,59,1,,606aad87b9f57a82dd447d6a,629c51aaa588dbbc11d09dc2,2022-06-05_07h52.21.566,Colour_Asymmetry_Pilot,2022.1.3,Win32,59.93407252,629c4b6caf241d5e6e00bfc0,,,,,,,,,,,,,,,,,,,,,,,,,,,,,,,,,,,,,,,,,,,,,,,,,,,,,,,,,,,,,,,,,,,,,,,,,,,,,,,,,,,,,,,,,,,,,,,,,,,,,,,,,,,,,,,,,,,,,,,,,,,,,,,,,,,,,,,,,,,,,,,,,,,
0,33,33,21,1,,606aad87b9f57a82dd447d6a,629c51aaa588dbbc11d09dc2,2022-06-05_07h52.21.566,Colour_Asymmetry_Pilot,2022.1.3,Win32,59.93407252,629c4b6caf241d5e6e00bfc0,,,,,,,,,,,,,,,,,,,,,,,,,,,,,,,,,,,,,,,,,,,,,,,,,,,,,,,,,,,,,,,,,,,,,,,,,,,,,,,,,,,,,,,,,,,,,,,,,,,,,,,,,,,,,,,,,,,,,,,,,,,,,,,,,,,,,,,,,,,,,,,,,,,
0,34,34,34,1,,606aad87b9f57a82dd447d6a,629c51aaa588dbbc11d09dc2,2022-06-05_07h52.21.566,Colour_Asymmetry_Pilot,2022.1.3,Win32,59.93407252,629c4b6caf241d5e6e00bfc0,,,,,,,,,,,,,,,,,,,,,,,,,,,,,,,,,,,,,,,,,,,,,,,,,,,,,,,,,,,,,,,,,,,,,,,,,,,,,,,,,,,,,,,,,,,,,,,,,,,,,,,,,,,,,,,,,,,,,,,,,,,,,,,,,,,,,,,,,,,,,,,,,,,
0,35,35,3,1,,606aad87b9f57a82dd447d6a,629c51aaa588dbbc11d09dc2,2022-06-05_07h52.21.566,Colour_Asymmetry_Pilot,2022.1.3,Win32,59.93407252,629c4b6caf241d5e6e00bfc0,,,,,,,,,,,,,,,,,,,,,,,,,,,,,,,,,,,,,,,,,,,,,,,,,,,,,,,,,,,,,,,,,,,,,,,,,,,,,,,,,,,,,,,,,,,,,,,,,,,,,,,,,,,,,,,,,,,,,,,,,,,,,,,,,,,,,,,,,,,,,,,,,,,
0,36,36,82,1,,606aad87b9f57a82dd447d6a,629c51aaa588dbbc11d09dc2,2022-06-05_07h52.21.566,Colour_Asymmetry_Pilot,2022.1.3,Win32,59.93407252,629c4b6caf241d5e6e00bfc0,,,,,,,,,,,,,,,,,,,,,,,,,,,,,,,,,,,,,,,,,,,,,,,,,,,,,,,,,,,,,,,,,,,,,,,,,,,,,,,,,,,,,,,,,,,,,,,,,,,,,,,,,,,,,,,,,,,,,,,,,,,,,,,,,,,,,,,,,,,,,,,,,,,
0,37,37,46,1,,606aad87b9f57a82dd447d6a,629c51aaa588dbbc11d09dc2,2022-06-05_07h52.21.566,Colour_Asymmetry_Pilot,2022.1.3,Win32,59.93407252,629c4b6caf241d5e6e00bfc0,,,,,,,,,,,,,,,,,,,,,,,,,,,,,,,,,,,,,,,,,,,,,,,,,,,,,,,,,,,,,,,,,,,,,,,,,,,,,,,,,,,,,,,,,,,,,,,,,,,,,,,,,,,,,,,,,,,,,,,,,,,,,,,,,,,,,,,,,,,,,,,,,,,
0,38,38,78,1,,606aad87b9f57a82dd447d6a,629c51aaa588dbbc11d09dc2,2022-06-05_07h52.21.566,Colour_Asymmetry_Pilot,2022.1.3,Win32,59.93407252,629c4b6caf241d5e6e00bfc0,,,,,,,,,,,,,,,,,,,,,,,,,,,,,,,,,,,,,,,,,,,,,,,,,,,,,,,,,,,,,,,,,,,,,,,,,,,,,,,,,,,,,,,,,,,,,,,,,,,,,,,,,,,,,,,,,,,,,,,,,,,,,,,,,,,,,,,,,,,,,,,,,,,
0,39,39,87,1,,606aad87b9f57a82dd447d6a,629c51aaa588dbbc11d09dc2,2022-06-05_07h52.21.566,Colour_Asymmetry_Pilot,2022.1.3,Win32,59.93407252,629c4b6caf241d5e6e00bfc0,,,,,,,,,,,,,,,,,,,,,,,,,,,,,,,,,,,,,,,,,,,,,,,,,,,,,,,,,,,,,,,,,,,,,,,,,,,,,,,,,,,,,,,,,,,,,,,,,,,,,,,,,,,,,,,,,,,,,,,,,,,,,,,,,,,,,,,,,,,,,,,,,,,
0,40,40,41,1,,606aad87b9f57a82dd447d6a,629c51aaa588dbbc11d09dc2,2022-06-05_07h52.21.566,Colour_Asymmetry_Pilot,2022.1.3,Win32,59.93407252,629c4b6caf241d5e6e00bfc0,,,,,,,,,,,,,,,,,,,,,,,,,,,,,,,,,,,,,,,,,,,,,,,,,,,,,,,,,,,,,,,,,,,,,,,,,,,,,,,,,,,,,,,,,,,,,,,,,,,,,,,,,,,,,,,,,,,,,,,,,,,,,,,,,,,,,,,,,,,,,,,,,,,
0,41,41,67,1,,606aad87b9f57a82dd447d6a,629c51aaa588dbbc11d09dc2,2022-06-05_07h52.21.566,Colour_Asymmetry_Pilot,2022.1.3,Win32,59.93407252,629c4b6caf241d5e6e00bfc0,,,,,,,,,,,,,,,,,,,,,,,,,,,,,,,,,,,,,,,,,,,,,,,,,,,,,,,,,,,,,,,,,,,,,,,,,,,,,,,,,,,,,,,,,,,,,,,,,,,,,,,,,,,,,,,,,,,,,,,,,,,,,,,,,,,,,,,,,,,,,,,,,,,
0,42,42,52,1,,606aad87b9f57a82dd447d6a,629c51aaa588dbbc11d09dc2,2022-06-05_07h52.21.566,Colour_Asymmetry_Pilot,2022.1.3,Win32,59.93407252,629c4b6caf241d5e6e00bfc0,,,,,,,,,,,,,,,,,,,,,,,,,,,,,,,,,,,,,,,,,,,,,,,,,,,,,,,,,,,,,,,,,,,,,,,,,,,,,,,,,,,,,,,,,,,,,,,,,,,,,,,,,,,,,,,,,,,,,,,,,,,,,,,,,,,,,,,,,,,,,,,,,,,
0,43,43,39,1,,606aad87b9f57a82dd447d6a,629c51aaa588dbbc11d09dc2,2022-06-05_07h52.21.566,Colour_Asymmetry_Pilot,2022.1.3,Win32,59.93407252,629c4b6caf241d5e6e00bfc0,,,,,,,,,,,,,,,,,,,,,,,,,,,,,,,,,,,,,,,,,,,,,,,,,,,,,,,,,,,,,,,,,,,,,,,,,,,,,,,,,,,,,,,,,,,,,,,,,,,,,,,,,,,,,,,,,,,,,,,,,,,,,,,,,,,,,,,,,,,,,,,,,,,
0,44,44,84,1,,606aad87b9f57a82dd447d6a,629c51aaa588dbbc11d09dc2,2022-06-05_07h52.21.566,Colour_Asymmetry_Pilot,2022.1.3,Win32,59.93407252,629c4b6caf241d5e6e00bfc0,,,,,,,,,,,,,,,,,,,,,,,,,,,,,,,,,,,,,,,,,,,,,,,,,,,,,,,,,,,,,,,,,,,,,,,,,,,,,,,,,,,,,,,,,,,,,,,,,,,,,,,,,,,,,,,,,,,,,,,,,,,,,,,,,,,,,,,,,,,,,,,,,,,
0,45,45,15,1,,606aad87b9f57a82dd447d6a,629c51aaa588dbbc11d09dc2,2022-06-05_07h52.21.566,Colour_Asymmetry_Pilot,2022.1.3,Win32,59.93407252,629c4b6caf241d5e6e00bfc0,,,,,,,,,,,,,,,,,,,,,,,,,,,,,,,,,,,,,,,,,,,,,,,,,,,,,,,,,,,,,,,,,,,,,,,,,,,,,,,,,,,,,,,,,,,,,,,,,,,,,,,,,,,,,,,,,,,,,,,,,,,,,,,,,,,,,,,,,,,,,,,,,,,
0,46,46,31,1,,606aad87b9f57a82dd447d6a,629c51aaa588dbbc11d09dc2,2022-06-05_07h52.21.566,Colour_Asymmetry_Pilot,2022.1.3,Win32,59.93407252,629c4b6caf241d5e6e00bfc0,,,,,,,,,,,,,,,,,,,,,,,,,,,,,,,,,,,,,,,,,,,,,,,,,,,,,,,,,,,,,,,,,,,,,,,,,,,,,,,,,,,,,,,,,,,,,,,,,,,,,,,,,,,,,,,,,,,,,,,,,,,,,,,,,,,,,,,,,,,,,,,,,,,
0,47,47,6,1,,606aad87b9f57a82dd447d6a,629c51aaa588dbbc11d09dc2,2022-06-05_07h52.21.566,Colour_Asymmetry_Pilot,2022.1.3,Win32,59.93407252,629c4b6caf241d5e6e00bfc0,,,,,,,,,,,,,,,,,,,,,,,,,,,,,,,,,,,,,,,,,,,,,,,,,,,,,,,,,,,,,,,,,,,,,,,,,,,,,,,,,,,,,,,,,,,,,,,,,,,,,,,,,,,,,,,,,,,,,,,,,,,,,,,,,,,,,,,,,,,,,,,,,,,
0,48,48,68,1,,606aad87b9f57a82dd447d6a,629c51aaa588dbbc11d09dc2,2022-06-05_07h52.21.566,Colour_Asymmetry_Pilot,2022.1.3,Win32,59.93407252,629c4b6caf241d5e6e00bfc0,,,,,,,,,,,,,,,,,,,,,,,,,,,,,,,,,,,,,,,,,,,,,,,,,,,,,,,,,,,,,,,,,,,,,,,,,,,,,,,,,,,,,,,,,,,,,,,,,,,,,,,,,,,,,,,,,,,,,,,,,,,,,,,,,,,,,,,,,,,,,,,,,,,
0,49,49,73,1,,606aad87b9f57a82dd447d6a,629c51aaa588dbbc11d09dc2,2022-06-05_07h52.21.566,Colour_Asymmetry_Pilot,2022.1.3,Win32,59.93407252,629c4b6caf241d5e6e00bfc0,,,,,,,,,,,,,,,,,,,,,,,,,,,,,,,,,,,,,,,,,,,,,,,,,,,,,,,,,,,,,,,,,,,,,,,,,,,,,,,,,,,,,,,,,,,,,,,,,,,,,,,,,,,,,,,,,,,,,,,,,,,,,,,,,,,,,,,,,,,,,,,,,,,
0,50,50,10,1,,606aad87b9f57a82dd447d6a,629c51aaa588dbbc11d09dc2,2022-06-05_07h52.21.566,Colour_Asymmetry_Pilot,2022.1.3,Win32,59.93407252,629c4b6caf241d5e6e00bfc0,,,,,,,,,,,,,,,,,,,,,,,,,,,,,,,,,,,,,,,,,,,,,,,,,,,,,,,,,,,,,,,,,,,,,,,,,,,,,,,,,,,,,,,,,,,,,,,,,,,,,,,,,,,,,,,,,,,,,,,,,,,,,,,,,,,,,,,,,,,,,,,,,,,
0,51,51,45,1,,606aad87b9f57a82dd447d6a,629c51aaa588dbbc11d09dc2,2022-06-05_07h52.21.566,Colour_Asymmetry_Pilot,2022.1.3,Win32,59.93407252,629c4b6caf241d5e6e00bfc0,,,,,,,,,,,,,,,,,,,,,,,,,,,,,,,,,,,,,,,,,,,,,,,,,,,,,,,,,,,,,,,,,,,,,,,,,,,,,,,,,,,,,,,,,,,,,,,,,,,,,,,,,,,,,,,,,,,,,,,,,,,,,,,,,,,,,,,,,,,,,,,,,,,
0,52,52,8,1,,606aad87b9f57a82dd447d6a,629c51aaa588dbbc11d09dc2,2022-06-05_07h52.21.566,Colour_Asymmetry_Pilot,2022.1.3,Win32,59.93407252,629c4b6caf241d5e6e00bfc0,,,,,,,,,,,,,,,,,,,,,,,,,,,,,,,,,,,,,,,,,,,,,,,,,,,,,,,,,,,,,,,,,,,,,,,,,,,,,,,,,,,,,,,,,,,,,,,,,,,,,,,,,,,,,,,,,,,,,,,,,,,,,,,,,,,,,,,,,,,,,,,,,,,
0,53,53,38,1,,606aad87b9f57a82dd447d6a,629c51aaa588dbbc11d09dc2,2022-06-05_07h52.21.566,Colour_Asymmetry_Pilot,2022.1.3,Win32,59.93407252,629c4b6caf241d5e6e00bfc0,,,,,,,,,,,,,,,,,,,,,,,,,,,,,,,,,,,,,,,,,,,,,,,,,,,,,,,,,,,,,,,,,,,,,,,,,,,,,,,,,,,,,,,,,,,,,,,,,,,,,,,,,,,,,,,,,,,,,,,,,,,,,,,,,,,,,,,,,,,,,,,,,,,
0,54,54,54,1,,606aad87b9f57a82dd447d6a,629c51aaa588dbbc11d09dc2,2022-06-05_07h52.21.566,Colour_Asymmetry_Pilot,2022.1.3,Win32,59.93407252,629c4b6caf241d5e6e00bfc0,,,,,,,,,,,,,,,,,,,,,,,,,,,,,,,,,,,,,,,,,,,,,,,,,,,,,,,,,,,,,,,,,,,,,,,,,,,,,,,,,,,,,,,,,,,,,,,,,,,,,,,,,,,,,,,,,,,,,,,,,,,,,,,,,,,,,,,,,,,,,,,,,,,
0,55,55,50,1,,606aad87b9f57a82dd447d6a,629c51aaa588dbbc11d09dc2,2022-06-05_07h52.21.566,Colour_Asymmetry_Pilot,2022.1.3,Win32,59.93407252,629c4b6caf241d5e6e00bfc0,,,,,,,,,,,,,,,,,,,,,,,,,,,,,,,,,,,,,,,,,,,,,,,,,,,,,,,,,,,,,,,,,,,,,,,,,,,,,,,,,,,,,,,,,,,,,,,,,,,,,,,,,,,,,,,,,,,,,,,,,,,,,,,,,,,,,,,,,,,,,,,,,,,
0,56,56,24,1,,606aad87b9f57a82dd447d6a,629c51aaa588dbbc11d09dc2,2022-06-05_07h52.21.566,Colour_Asymmetry_Pilot,2022.1.3,Win32,59.93407252,629c4b6caf241d5e6e00bfc0,,,,,,,,,,,,,,,,,,,,,,,,,,,,,,,,,,,,,,,,,,,,,,,,,,,,,,,,,,,,,,,,,,,,,,,,,,,,,,,,,,,,,,,,,,,,,,,,,,,,,,,,,,,,,,,,,,,,,,,,,,,,,,,,,,,,,,,,,,,,,,,,,,,
0,57,57,79,1,,606aad87b9f57a82dd447d6a,629c51aaa588dbbc11d09dc2,2022-06-05_07h52.21.566,Colour_Asymmetry_Pilot,2022.1.3,Win32,59.93407252,629c4b6caf241d5e6e00bfc0,,,,,,,,,,,,,,,,,,,,,,,,,,,,,,,,,,,,,,,,,,,,,,,,,,,,,,,,,,,,,,,,,,,,,,,,,,,,,,,,,,,,,,,,,,,,,,,,,,,,,,,,,,,,,,,,,,,,,,,,,,,,,,,,,,,,,,,,,,,,,,,,,,,
0,58,58,11,1,,606aad87b9f57a82dd447d6a,629c51aaa588dbbc11d09dc2,2022-06-05_07h52.21.566,Colour_Asymmetry_Pilot,2022.1.3,Win32,59.93407252,629c4b6caf241d5e6e00bfc0,,,,,,,,,,,,,,,,,,,,,,,,,,,,,,,,,,,,,,,,,,,,,,,,,,,,,,,,,,,,,,,,,,,,,,,,,,,,,,,,,,,,,,,,,,,,,,,,,,,,,,,,,,,,,,,,,,,,,,,,,,,,,,,,,,,,,,,,,,,,,,,,,,,
0,59,59,0,1,,606aad87b9f57a82dd447d6a,629c51aaa588dbbc11d09dc2,2022-06-05_07h52.21.566,Colour_Asymmetry_Pilot,2022.1.3,Win32,59.93407252,629c4b6caf241d5e6e00bfc0,,,,,,,,,,,,,,,,,,,,,,,,,,,,,,,,,,,,,,,,,,,,,,,,,,,,,,,,,,,,,,,,,,,,,,,,,,,,,,,,,,,,,,,,,,,,,,,,,,,,,,,,,,,,,,,,,,,,,,,,,,,,,,,,,,,,,,,,,,,,,,,,,,,
0,60,60,23,1,,606aad87b9f57a82dd447d6a,629c51aaa588dbbc11d09dc2,2022-06-05_07h52.21.566,Colour_Asymmetry_Pilot,2022.1.3,Win32,59.93407252,629c4b6caf241d5e6e00bfc0,,,,,,,,,,,,,,,,,,,,,,,,,,,,,,,,,,,,,,,,,,,,,,,,,,,,,,,,,,,,,,,,,,,,,,,,,,,,,,,,,,,,,,,,,,,,,,,,,,,,,,,,,,,,,,,,,,,,,,,,,,,,,,,,,,,,,,,,,,,,,,,,,,,
0,61,61,58,1,,606aad87b9f57a82dd447d6a,629c51aaa588dbbc11d09dc2,2022-06-05_07h52.21.566,Colour_Asymmetry_Pilot,2022.1.3,Win32,59.93407252,629c4b6caf241d5e6e00bfc0,,,,,,,,,,,,,,,,,,,,,,,,,,,,,,,,,,,,,,,,,,,,,,,,,,,,,,,,,,,,,,,,,,,,,,,,,,,,,,,,,,,,,,,,,,,,,,,,,,,,,,,,,,,,,,,,,,,,,,,,,,,,,,,,,,,,,,,,,,,,,,,,,,,
0,62,62,17,1,,606aad87b9f57a82dd447d6a,629c51aaa588dbbc11d09dc2,2022-06-05_07h52.21.566,Colour_Asymmetry_Pilot,2022.1.3,Win32,59.93407252,629c4b6caf241d5e6e00bfc0,,,,,,,,,,,,,,,,,,,,,,,,,,,,,,,,,,,,,,,,,,,,,,,,,,,,,,,,,,,,,,,,,,,,,,,,,,,,,,,,,,,,,,,,,,,,,,,,,,,,,,,,,,,,,,,,,,,,,,,,,,,,,,,,,,,,,,,,,,,,,,,,,,,
0,63,63,26,1,,606aad87b9f57a82dd447d6a,629c51aaa588dbbc11d09dc2,2022-06-05_07h52.21.566,Colour_Asymmetry_Pilot,2022.1.3,Win32,59.93407252,629c4b6caf241d5e6e00bfc0,,,,,,,,,,,,,,,,,,,,,,,,,,,,,,,,,,,,,,,,,,,,,,,,,,,,,,,,,,,,,,,,,,,,,,,,,,,,,,,,,,,,,,,,,,,,,,,,,,,,,,,,,,,,,,,,,,,,,,,,,,,,,,,,,,,,,,,,,,,,,,,,,,,
0,64,64,81,1,,606aad87b9f57a82dd447d6a,629c51aaa588dbbc11d09dc2,2022-06-05_07h52.21.566,Colour_Asymmetry_Pilot,2022.1.3,Win32,59.93407252,629c4b6caf241d5e6e00bfc0,,,,,,,,,,,,,,,,,,,,,,,,,,,,,,,,,,,,,,,,,,,,,,,,,,,,,,,,,,,,,,,,,,,,,,,,,,,,,,,,,,,,,,,,,,,,,,,,,,,,,,,,,,,,,,,,,,,,,,,,,,,,,,,,,,,,,,,,,,,,,,,,,,,
0,65,65,56,1,,606aad87b9f57a82dd447d6a,629c51aaa588dbbc11d09dc2,2022-06-05_07h52.21.566,Colour_Asymmetry_Pilot,2022.1.3,Win32,59.93407252,629c4b6caf241d5e6e00bfc0,,,,,,,,,,,,,,,,,,,,,,,,,,,,,,,,,,,,,,,,,,,,,,,,,,,,,,,,,,,,,,,,,,,,,,,,,,,,,,,,,,,,,,,,,,,,,,,,,,,,,,,,,,,,,,,,,,,,,,,,,,,,,,,,,,,,,,,,,,,,,,,,,,,
0,66,66,61,1,,606aad87b9f57a82dd447d6a,629c51aaa588dbbc11d09dc2,2022-06-05_07h52.21.566,Colour_Asymmetry_Pilot,2022.1.3,Win32,59.93407252,629c4b6caf241d5e6e00bfc0,,,,,,,,,,,,,,,,,,,,,,,,,,,,,,,,,,,,,,,,,,,,,,,,,,,,,,,,,,,,,,,,,,,,,,,,,,,,,,,,,,,,,,,,,,,,,,,,,,,,,,,,,,,,,,,,,,,,,,,,,,,,,,,,,,,,,,,,,,,,,,,,,,,
0,67,67,63,1,,606aad87b9f57a82dd447d6a,629c51aaa588dbbc11d09dc2,2022-06-05_07h52.21.566,Colour_Asymmetry_Pilot,2022.1.3,Win32,59.93407252,629c4b6caf241d5e6e00bfc0,,,,,,,,,,,,,,,,,,,,,,,,,,,,,,,,,,,,,,,,,,,,,,,,,,,,,,,,,,,,,,,,,,,,,,,,,,,,,,,,,,,,,,,,,,,,,,,,,,,,,,,,,,,,,,,,,,,,,,,,,,,,,,,,,,,,,,,,,,,,,,,,,,,
0,68,68,62,1,,606aad87b9f57a82dd447d6a,629c51aaa588dbbc11d09dc2,2022-06-05_07h52.21.566,Colour_Asymmetry_Pilot,2022.1.3,Win32,59.93407252,629c4b6caf241d5e6e00bfc0,,,,,,,,,,,,,,,,,,,,,,,,,,,,,,,,,,,,,,,,,,,,,,,,,,,,,,,,,,,,,,,,,,,,,,,,,,,,,,,,,,,,,,,,,,,,,,,,,,,,,,,,,,,,,,,,,,,,,,,,,,,,,,,,,,,,,,,,,,,,,,,,,,,
0,69,69,90,1,,606aad87b9f57a82dd447d6a,629c51aaa588dbbc11d09dc2,2022-06-05_07h52.21.566,Colour_Asymmetry_Pilot,2022.1.3,Win32,59.93407252,629c4b6caf241d5e6e00bfc0,,,,,,,,,,,,,,,,,,,,,,,,,,,,,,,,,,,,,,,,,,,,,,,,,,,,,,,,,,,,,,,,,,,,,,,,,,,,,,,,,,,,,,,,,,,,,,,,,,,,,,,,,,,,,,,,,,,,,,,,,,,,,,,,,,,,,,,,,,,,,,,,,,,
0,70,70,72,1,,606aad87b9f57a82dd447d6a,629c51aaa588dbbc11d09dc2,2022-06-05_07h52.21.566,Colour_Asymmetry_Pilot,2022.1.3,Win32,59.93407252,629c4b6caf241d5e6e00bfc0,,,,,,,,,,,,,,,,,,,,,,,,,,,,,,,,,,,,,,,,,,,,,,,,,,,,,,,,,,,,,,,,,,,,,,,,,,,,,,,,,,,,,,,,,,,,,,,,,,,,,,,,,,,,,,,,,,,,,,,,,,,,,,,,,,,,,,,,,,,,,,,,,,,
0,71,71,69,1,,606aad87b9f57a82dd447d6a,629c51aaa588dbbc11d09dc2,2022-06-05_07h52.21.566,Colour_Asymmetry_Pilot,2022.1.3,Win32,59.93407252,629c4b6caf241d5e6e00bfc0,,,,,,,,,,,,,,,,,,,,,,,,,,,,,,,,,,,,,,,,,,,,,,,,,,,,,,,,,,,,,,,,,,,,,,,,,,,,,,,,,,,,,,,,,,,,,,,,,,,,,,,,,,,,,,,,,,,,,,,,,,,,,,,,,,,,,,,,,,,,,,,,,,,
0,72,72,64,1,,606aad87b9f57a82dd447d6a,629c51aaa588dbbc11d09dc2,2022-06-05_07h52.21.566,Colour_Asymmetry_Pilot,2022.1.3,Win32,59.93407252,629c4b6caf241d5e6e00bfc0,,,,,,,,,,,,,,,,,,,,,,,,,,,,,,,,,,,,,,,,,,,,,,,,,,,,,,,,,,,,,,,,,,,,,,,,,,,,,,,,,,,,,,,,,,,,,,,,,,,,,,,,,,,,,,,,,,,,,,,,,,,,,,,,,,,,,,,,,,,,,,,,,,,
0,73,73,1,1,,606aad87b9f57a82dd447d6a,629c51aaa588dbbc11d09dc2,2022-06-05_07h52.21.566,Colour_Asymmetry_Pilot,2022.1.3,Win32,59.93407252,629c4b6caf241d5e6e00bfc0,,,,,,,,,,,,,,,,,,,,,,,,,,,,,,,,,,,,,,,,,,,,,,,,,,,,,,,,,,,,,,,,,,,,,,,,,,,,,,,,,,,,,,,,,,,,,,,,,,,,,,,,,,,,,,,,,,,,,,,,,,,,,,,,,,,,,,,,,,,,,,,,,,,
0,74,74,76,1,,606aad87b9f57a82dd447d6a,629c51aaa588dbbc11d09dc2,2022-06-05_07h52.21.566,Colour_Asymmetry_Pilot,2022.1.3,Win32,59.93407252,629c4b6caf241d5e6e00bfc0,,,,,,,,,,,,,,,,,,,,,,,,,,,,,,,,,,,,,,,,,,,,,,,,,,,,,,,,,,,,,,,,,,,,,,,,,,,,,,,,,,,,,,,,,,,,,,,,,,,,,,,,,,,,,,,,,,,,,,,,,,,,,,,,,,,,,,,,,,,,,,,,,,,
0,75,75,71,1,,606aad87b9f57a82dd447d6a,629c51aaa588dbbc11d09dc2,2022-06-05_07h52.21.566,Colour_Asymmetry_Pilot,2022.1.3,Win32,59.93407252,629c4b6caf241d5e6e00bfc0,,,,,,,,,,,,,,,,,,,,,,,,,,,,,,,,,,,,,,,,,,,,,,,,,,,,,,,,,,,,,,,,,,,,,,,,,,,,,,,,,,,,,,,,,,,,,,,,,,,,,,,,,,,,,,,,,,,,,,,,,,,,,,,,,,,,,,,,,,,,,,,,,,,
0,76,76,2,1,,606aad87b9f57a82dd447d6a,629c51aaa588dbbc11d09dc2,2022-06-05_07h52.21.566,Colour_Asymmetry_Pilot,2022.1.3,Win32,59.93407252,629c4b6caf241d5e6e00bfc0,,,,,,,,,,,,,,,,,,,,,,,,,,,,,,,,,,,,,,,,,,,,,,,,,,,,,,,,,,,,,,,,,,,,,,,,,,,,,,,,,,,,,,,,,,,,,,,,,,,,,,,,,,,,,,,,,,,,,,,,,,,,,,,,,,,,,,,,,,,,,,,,,,,
0,77,77,77,1,,606aad87b9f57a82dd447d6a,629c51aaa588dbbc11d09dc2,2022-06-05_07h52.21.566,Colour_Asymmetry_Pilot,2022.1.3,Win32,59.93407252,629c4b6caf241d5e6e00bfc0,,,,,,,,,,,,,,,,,,,,,,,,,,,,,,,,,,,,,,,,,,,,,,,,,,,,,,,,,,,,,,,,,,,,,,,,,,,,,,,,,,,,,,,,,,,,,,,,,,,,,,,,,,,,,,,,,,,,,,,,,,,,,,,,,,,,,,,,,,,,,,,,,,,
0,78,78,49,1,,606aad87b9f57a82dd447d6a,629c51aaa588dbbc11d09dc2,2022-06-05_07h52.21.566,Colour_Asymmetry_Pilot,2022.1.3,Win32,59.93407252,629c4b6caf241d5e6e00bfc0,,,,,,,,,,,,,,,,,,,,,,,,,,,,,,,,,,,,,,,,,,,,,,,,,,,,,,,,,,,,,,,,,,,,,,,,,,,,,,,,,,,,,,,,,,,,,,,,,,,,,,,,,,,,,,,,,,,,,,,,,,,,,,,,,,,,,,,,,,,,,,,,,,,
0,79,79,18,1,,606aad87b9f57a82dd447d6a,629c51aaa588dbbc11d09dc2,2022-06-05_07h52.21.566,Colour_Asymmetry_Pilot,2022.1.3,Win32,59.93407252,629c4b6caf241d5e6e00bfc0,,,,,,,,,,,,,,,,,,,,,,,,,,,,,,,,,,,,,,,,,,,,,,,,,,,,,,,,,,,,,,,,,,,,,,,,,,,,,,,,,,,,,,,,,,,,,,,,,,,,,,,,,,,,,,,,,,,,,,,,,,,,,,,,,,,,,,,,,,,,,,,,,,,
0,80,80,83,1,,606aad87b9f57a82dd447d6a,629c51aaa588dbbc11d09dc2,2022-06-05_07h52.21.566,Colour_Asymmetry_Pilot,2022.1.3,Win32,59.93407252,629c4b6caf241d5e6e00bfc0,,,,,,,,,,,,,,,,,,,,,,,,,,,,,,,,,,,,,,,,,,,,,,,,,,,,,,,,,,,,,,,,,,,,,,,,,,,,,,,,,,,,,,,,,,,,,,,,,,,,,,,,,,,,,,,,,,,,,,,,,,,,,,,,,,,,,,,,,,,,,,,,,,,
0,81,81,29,1,,606aad87b9f57a82dd447d6a,629c51aaa588dbbc11d09dc2,2022-06-05_07h52.21.566,Colour_Asymmetry_Pilot,2022.1.3,Win32,59.93407252,629c4b6caf241d5e6e00bfc0,,,,,,,,,,,,,,,,,,,,,,,,,,,,,,,,,,,,,,,,,,,,,,,,,,,,,,,,,,,,,,,,,,,,,,,,,,,,,,,,,,,,,,,,,,,,,,,,,,,,,,,,,,,,,,,,,,,,,,,,,,,,,,,,,,,,,,,,,,,,,,,,,,,
0,82,82,48,1,,606aad87b9f57a82dd447d6a,629c51aaa588dbbc11d09dc2,2022-06-05_07h52.21.566,Colour_Asymmetry_Pilot,2022.1.3,Win32,59.93407252,629c4b6caf241d5e6e00bfc0,,,,,,,,,,,,,,,,,,,,,,,,,,,,,,,,,,,,,,,,,,,,,,,,,,,,,,,,,,,,,,,,,,,,,,,,,,,,,,,,,,,,,,,,,,,,,,,,,,,,,,,,,,,,,,,,,,,,,,,,,,,,,,,,,,,,,,,,,,,,,,,,,,,
0,83,83,88,1,,606aad87b9f57a82dd447d6a,629c51aaa588dbbc11d09dc2,2022-06-05_07h52.21.566,Colour_Asymmetry_Pilot,2022.1.3,Win32,59.93407252,629c4b6caf241d5e6e00bfc0,,,,,,,,,,,,,,,,,,,,,,,,,,,,,,,,,,,,,,,,,,,,,,,,,,,,,,,,,,,,,,,,,,,,,,,,,,,,,,,,,,,,,,,,,,,,,,,,,,,,,,,,,,,,,,,,,,,,,,,,,,,,,,,,,,,,,,,,,,,,,,,,,,,
0,84,84,57,1,,606aad87b9f57a82dd447d6a,629c51aaa588dbbc11d09dc2,2022-06-05_07h52.21.566,Colour_Asymmetry_Pilot,2022.1.3,Win32,59.93407252,629c4b6caf241d5e6e00bfc0,,,,,,,,,,,,,,,,,,,,,,,,,,,,,,,,,,,,,,,,,,,,,,,,,,,,,,,,,,,,,,,,,,,,,,,,,,,,,,,,,,,,,,,,,,,,,,,,,,,,,,,,,,,,,,,,,,,,,,,,,,,,,,,,,,,,,,,,,,,,,,,,,,,
0,85,85,80,1,,606aad87b9f57a82dd447d6a,629c51aaa588dbbc11d09dc2,2022-06-05_07h52.21.566,Colour_Asymmetry_Pilot,2022.1.3,Win32,59.93407252,629c4b6caf241d5e6e00bfc0,,,,,,,,,,,,,,,,,,,,,,,,,,,,,,,,,,,,,,,,,,,,,,,,,,,,,,,,,,,,,,,,,,,,,,,,,,,,,,,,,,,,,,,,,,,,,,,,,,,,,,,,,,,,,,,,,,,,,,,,,,,,,,,,,,,,,,,,,,,,,,,,,,,
0,86,86,85,1,,606aad87b9f57a82dd447d6a,629c51aaa588dbbc11d09dc2,2022-06-05_07h52.21.566,Colour_Asymmetry_Pilot,2022.1.3,Win32,59.93407252,629c4b6caf241d5e6e00bfc0,,,,,,,,,,,,,,,,,,,,,,,,,,,,,,,,,,,,,,,,,,,,,,,,,,,,,,,,,,,,,,,,,,,,,,,,,,,,,,,,,,,,,,,,,,,,,,,,,,,,,,,,,,,,,,,,,,,,,,,,,,,,,,,,,,,,,,,,,,,,,,,,,,,
0,87,87,89,1,,606aad87b9f57a82dd447d6a,629c51aaa588dbbc11d09dc2,2022-06-05_07h52.21.566,Colour_Asymmetry_Pilot,2022.1.3,Win32,59.93407252,629c4b6caf241d5e6e00bfc0,,,,,,,,,,,,,,,,,,,,,,,,,,,,,,,,,,,,,,,,,,,,,,,,,,,,,,,,,,,,,,,,,,,,,,,,,,,,,,,,,,,,,,,,,,,,,,,,,,,,,,,,,,,,,,,,,,,,,,,,,,,,,,,,,,,,,,,,,,,,,,,,,,,
0,88,88,32,1,,606aad87b9f57a82dd447d6a,629c51aaa588dbbc11d09dc2,2022-06-05_07h52.21.566,Colour_Asymmetry_Pilot,2022.1.3,Win32,59.93407252,629c4b6caf241d5e6e00bfc0,,,,,,,,,,,,,,,,,,,,,,,,,,,,,,,,,,,,,,,,,,,,,,,,,,,,,,,,,,,,,,,,,,,,,,,,,,,,,,,,,,,,,,,,,,,,,,,,,,,,,,,,,,,,,,,,,,,,,,,,,,,,,,,,,,,,,,,,,,,,,,,,,,,
0,89,89,86,1,,606aad87b9f57a82dd447d6a,629c51aaa588dbbc11d09dc2,2022-06-05_07h52.21.566,Colour_Asymmetry_Pilot,2022.1.3,Win32,59.93407252,629c4b6caf241d5e6e00bfc0,,,,,,,,,,,,,,,,,,,,,,,,,,,,,,,,,,,,,,,,,,,,,,,,,,,,,,,,,,,,,,,,,,,,,,,,,,,,,,,,,,,,,,,,,,,,,,,,,,,,,,,,,,,,,,,,,,,,,,,,,,,,,,,,,,,,,,,,,,,,,,,,,,,
0,90,90,44,1,,606aad87b9f57a82dd447d6a,629c51aaa588dbbc11d09dc2,2022-06-05_07h52.21.566,Colour_Asymmetry_Pilot,2022.1.3,Win32,59.93407252,629c4b6caf241d5e6e00bfc0,,,,,,,,,,,,,,,,,,,,,,,,,,,,,,,,,,,,,,,,,,,,,,,,,,,,,,,,,,,,,,,,,,,,,,,,,,,,,,,,,,,,,,,,,,,,,,,,,,,,,,,,,,,,,,,,,,,,,,,,,,,,,,,,,,,,,,,,,,,,,,,,,,,
0,91,91,74,1,,606aad87b9f57a82dd447d6a,629c51aaa588dbbc11d09dc2,2022-06-05_07h52.21.566,Colour_Asymmetry_Pilot,2022.1.3,Win32,59.93407252,629c4b6caf241d5e6e00bfc0,,,,,,,,,,,,,,,,,,,,,,,,,,,,,,,,,,,,,,,,,,,,,,,,,,,,,,,,,,,,,,,,,,,,,,,,,,,,,,,,,,,,,,,,,,,,,,,,,,,,,,,,,,,,,,,,,,,,,,,,,,,,,,,,,,,,,,,,,,,,,,,,,,,
0,92,92,37,1,,606aad87b9f57a82dd447d6a,629c51aaa588dbbc11d09dc2,2022-06-05_07h52.21.566,Colour_Asymmetry_Pilot,2022.1.3,Win32,59.93407252,629c4b6caf241d5e6e00bfc0,,,,,,,,,,,,,,,,,,,,,,,,,,,,,,,,,,,,,,,,,,,,,,,,,,,,,,,,,,,,,,,,,,,,,,,,,,,,,,,,,,,,,,,,,,,,,,,,,,,,,,,,,,,,,,,,,,,,,,,,,,,,,,,,,,,,,,,,,,,,,,,,,,,
,,,,,,606aad87b9f57a82dd447d6a,629c51aaa588dbbc11d09dc2,2022-06-05_07h52.21.566,Colour_Asymmetry_Pilot,2022.1.3,Win32,59.93407252,629c4b6caf241d5e6e00bfc0,0,0,0,29,1,threefour,,,,,,,,,,,,,,,,,,,,,,,,,,,,,,,,,,,,,,,,,,,,,,,,,,,,,,,,,,,,,,,,,,,,,,,,,,,,,,,,,,,,,,,,,,,,,,,,,,,,,,,,,,,,,,,,,,,,,,,,,,,,,,,,,,,,,,,,,,,,,
,,,,,,606aad87b9f57a82dd447d6a,629c51aaa588dbbc11d09dc2,2022-06-05_07h52.21.566,Colour_Asymmetry_Pilot,2022.1.3,Win32,59.93407252,629c4b6caf241d5e6e00bfc0,0,1,1,76,1,threeone,,,,,,,,,,,,,,,,,,,,,,,,,,,,,,,,,,,,,,,,,,,,,,,,,,,,,,,,,,,,,,,,,,,,,,,,,,,,,,,,,,,,,,,,,,,,,,,,,,,,,,,,,,,,,,,,,,,,,,,,,,,,,,,,,,,,,,,,,,,,,
,,,,,,606aad87b9f57a82dd447d6a,629c51aaa588dbbc11d09dc2,2022-06-05_07h52.21.566,Colour_Asymmetry_Pilot,2022.1.3,Win32,59.93407252,629c4b6caf241d5e6e00bfc0,0,2,2,59,1,twofour,,,,,,,,,,,,,,,,,,,,,,,,,,,,,,,,,,,,,,,,,,,,,,,,,,,,,,,,,,,,,,,,,,,,,,,,,,,,,,,,,,,,,,,,,,,,,,,,,,,,,,,,,,,,,,,,,,,,,,,,,,,,,,,,,,,,,,,,,,,,,
,,,,,,606aad87b9f57a82dd447d6a,629c51aaa588dbbc11d09dc2,2022-06-05_07h52.21.566,Colour_Asymmetry_Pilot,2022.1.3,Win32,59.93407252,629c4b6caf241d5e6e00bfc0,0,3,3,124,1,threeone,,,,,,,,,,,,,,,,,,,,,,,,,,,,,,,,,,,,,,,,,,,,,,,,,,,,,,,,,,,,,,,,,,,,,,,,,,,,,,,,,,,,,,,,,,,,,,,,,,,,,,,,,,,,,,,,,,,,,,,,,,,,,,,,,,,,,,,,,,,,,
,,,,,,606aad87b9f57a82dd447d6a,629c51aaa588dbbc11d09dc2,2022-06-05_07h52.21.566,Colour_Asymmetry_Pilot,2022.1.3,Win32,59.93407252,629c4b6caf241d5e6e00bfc0,0,4,4,37,1,threefour,,,,,,,,,,,,,,,,,,,,,,,,,,,,,,,,,,,,,,,,,,,,,,,,,,,,,,,,,,,,,,,,,,,,,,,,,,,,,,,,,,,,,,,,,,,,,,,,,,,,,,,,,,,,,,,,,,,,,,,,,,,,,,,,,,,,,,,,,,,,,
,,,,,,606aad87b9f57a82dd447d6a,629c51aaa588dbbc11d09dc2,2022-06-05_07h52.21.566,Colour_Asymmetry_Pilot,2022.1.3,Win32,59.93407252,629c4b6caf241d5e6e00bfc0,0,5,5,149,1,threefour,,,,,,,,,,,,,,,,,,,,,,,,,,,,,,,,,,,,,,,,,,,,,,,,,,,,,,,,,,,,,,,,,,,,,,,,,,,,,,,,,,,,,,,,,,,,,,,,,,,,,,,,,,,,,,,,,,,,,,,,,,,,,,,,,,,,,,,,,,,,,
,,,,,,606aad87b9f57a82dd447d6a,629c51aaa588dbbc11d09dc2,2022-06-05_07h52.21.566,Colour_Asymmetry_Pilot,2022.1.3,Win32,59.93407252,629c4b6caf241d5e6e00bfc0,0,6,6,161,1,onethree,,,,,,,,,,,,,,,,,,,,,,,,,,,,,,,,,,,,,,,,,,,,,,,,,,,,,,,,,,,,,,,,,,,,,,,,,,,,,,,,,,,,,,,,,,,,,,,,,,,,,,,,,,,,,,,,,,,,,,,,,,,,,,,,,,,,,,,,,,,,,
,,,,,,606aad87b9f57a82dd447d6a,629c51aaa588dbbc11d09dc2,2022-06-05_07h52.21.566,Colour_Asymmetry_Pilot,2022.1.3,Win32,59.93407252,629c4b6caf241d5e6e00bfc0,0,7,7,31,1,fourthree,,,,,,,,,,,,,,,,,,,,,,,,,,,,,,,,,,,,,,,,,,,,,,,,,,,,,,,,,,,,,,,,,,,,,,,,,,,,,,,,,,,,,,,,,,,,,,,,,,,,,,,,,,,,,,,,,,,,,,,,,,,,,,,,,,,,,,,,,,,,,
,,,,,,606aad87b9f57a82dd447d6a,629c51aaa588dbbc11d09dc2,2022-06-05_07h52.21.566,Colour_Asymmetry_Pilot,2022.1.3,Win32,59.93407252,629c4b6caf241d5e6e00bfc0,0,8,8,150,1,fourtwo,,,,,,,,,,,,,,,,,,,,,,,,,,,,,,,,,,,,,,,,,,,,,,,,,,,,,,,,,,,,,,,,,,,,,,,,,,,,,,,,,,,,,,,,,,,,,,,,,,,,,,,,,,,,,,,,,,,,,,,,,,,,,,,,,,,,,,,,,,,,,
,,,,,,606aad87b9f57a82dd447d6a,629c51aaa588dbbc11d09dc2,2022-06-05_07h52.21.566,Colour_Asymmetry_Pilot,2022.1.3,Win32,59.93407252,629c4b6caf241d5e6e00bfc0,0,9,9,143,1,fourthree,,,,,,,,,,,,,,,,,,,,,,,,,,,,,,,,,,,,,,,,,,,,,,,,,,,,,,,,,,,,,,,,,,,,,,,,,,,,,,,,,,,,,,,,,,,,,,,,,,,,,,,,,,,,,,,,,,,,,,,,,,,,,,,,,,,,,,,,,,,,,
,,,,,,606aad87b9f57a82dd447d6a,629c51aaa588dbbc11d09dc2,2022-06-05_07h52.21.566,Colour_Asymmetry_Pilot,2022.1.3,Win32,59.93407252,629c4b6caf241d5e6e00bfc0,0,10,10,69,1,threefour,,,,,,,,,,,,,,,,,,,,,,,,,,,,,,,,,,,,,,,,,,,,,,,,,,,,,,,,,,,,,,,,,,,,,,,,,,,,,,,,,,,,,,,,,,,,,,,,,,,,,,,,,,,,,,,,,,,,,,,,,,,,,,,,,,,,,,,,,,,,,
,,,,,,606aad87b9f57a82dd447d6a,629c51aaa588dbbc11d09dc2,2022-06-05_07h52.21.566,Colour_Asymmetry_Pilot,2022.1.3,Win32,59.93407252,629c4b6caf241d5e6e00bfc0,0,11,11,133,1,threefour,,,,,,,,,,,,,,,,,,,,,,,,,,,,,,,,,,,,,,,,,,,,,,,,,,,,,,,,,,,,,,,,,,,,,,,,,,,,,,,,,,,,,,,,,,,,,,,,,,,,,,,,,,,,,,,,,,,,,,,,,,,,,,,,,,,,,,,,,,,,,
,,,,,,606aad87b9f57a82dd447d6a,629c51aaa588dbbc11d09dc2,2022-06-05_07h52.21.566,Colour_Asymmetry_Pilot,2022.1.3,Win32,59.93407252,629c4b6caf241d5e6e00bfc0,0,12,12,144,1,onetwo,,,,,,,,,,,,,,,,,,,,,,,,,,,,,,,,,,,,,,,,,,,,,,,,,,,,,,,,,,,,,,,,,,,,,,,,,,,,,,,,,,,,,,,,,,,,,,,,,,,,,,,,,,,,,,,,,,,,,,,,,,,,,,,,,,,,,,,,,,,,,
,,,,,,606aad87b9f57a82dd447d6a,629c51aaa588dbbc11d09dc2,2022-06-05_07h52.21.566,Colour_Asymmetry_Pilot,2022.1.3,Win32,59.93407252,629c4b6caf241d5e6e00bfc0,0,13,13,121,1,onethree,,,,,,,,,,,,,,,,,,,,,,,,,,,,,,,,,,,,,,,,,,,,,,,,,,,,,,,,,,,,,,,,,,,,,,,,,,,,,,,,,,,,,,,,,,,,,,,,,,,,,,,,,,,,,,,,,,,,,,,,,,,,,,,,,,,,,,,,,,,,,
,,,,,,606aad87b9f57a82dd447d6a,629c51aaa588dbbc11d09dc2,2022-06-05_07h52.21.566,Colour_Asymmetry_Pilot,2022.1.3,Win32,59.93407252,629c4b6caf241d5e6e00bfc0,0,14,14,123,1,twofour,,,,,,,,,,,,,,,,,,,,,,,,,,,,,,,,,,,,,,,,,,,,,,,,,,,,,,,,,,,,,,,,,,,,,,,,,,,,,,,,,,,,,,,,,,,,,,,,,,,,,,,,,,,,,,,,,,,,,,,,,,,,,,,,,,,,,,,,,,,,,
,,,,,,606aad87b9f57a82dd447d6a,629c51aaa588dbbc11d09dc2,2022-06-05_07h52.21.566,Colour_Asymmetry_Pilot,2022.1.3,Win32,59.93407252,629c4b6caf241d5e6e00bfc0,0,15,15,84,1,threeone,,,,,,,,,,,,,,,,,,,,,,,,,,,,,,,,,,,,,,,,,,,,,,,,,,,,,,,,,,,,,,,,,,,,,,,,,,,,,,,,,,,,,,,,,,,,,,,,,,,,,,,,,,,,,,,,,,,,,,,,,,,,,,,,,,,,,,,,,,,,,
,,,,,,606aad87b9f57a82dd447d6a,629c51aaa588dbbc11d09dc2,2022-06-05_07h52.21.566,Colour_Asymmetry_Pilot,2022.1.3,Win32,59.93407252,629c4b6caf241d5e6e00bfc0,0,16,16,52,1,threeone,,,,,,,,,,,,,,,,,,,,,,,,,,,,,,,,,,,,,,,,,,,,,,,,,,,,,,,,,,,,,,,,,,,,,,,,,,,,,,,,,,,,,,,,,,,,,,,,,,,,,,,,,,,,,,,,,,,,,,,,,,,,,,,,,,,,,,,,,,,,,
,,,,,,606aad87b9f57a82dd447d6a,629c51aaa588dbbc11d09dc2,2022-06-05_07h52.21.566,Colour_Asymmetry_Pilot,2022.1.3,Win32,59.93407252,629c4b6caf241d5e6e00bfc0,0,17,17,154,1,twoone,,,,,,,,,,,,,,,,,,,,,,,,,,,,,,,,,,,,,,,,,,,,,,,,,,,,,,,,,,,,,,,,,,,,,,,,,,,,,,,,,,,,,,,,,,,,,,,,,,,,,,,,,,,,,,,,,,,,,,,,,,,,,,,,,,,,,,,,,,,,,
,,,,,,606aad87b9f57a82dd447d6a,629c51aaa588dbbc11d09dc2,2022-06-05_07h52.21.566,Colour_Asymmetry_Pilot,2022.1.3,Win32,59.93407252,629c4b6caf241d5e6e00bfc0,0,18,18,92,1,threeone,,,,,,,,,,,,,,,,,,,,,,,,,,,,,,,,,,,,,,,,,,,,,,,,,,,,,,,,,,,,,,,,,,,,,,,,,,,,,,,,,,,,,,,,,,,,,,,,,,,,,,,,,,,,,,,,,,,,,,,,,,,,,,,,,,,,,,,,,,,,,
,,,,,,606aad87b9f57a82dd447d6a,629c51aaa588dbbc11d09dc2,2022-06-05_07h52.21.566,Colour_Asymmetry_Pilot,2022.1.3,Win32,59.93407252,629c4b6caf241d5e6e00bfc0,0,19,19,134,1,fourtwo,,,,,,,,,,,,,,,,,,,,,,,,,,,,,,,,,,,,,,,,,,,,,,,,,,,,,,,,,,,,,,,,,,,,,,,,,,,,,,,,,,,,,,,,,,,,,,,,,,,,,,,,,,,,,,,,,,,,,,,,,,,,,,,,,,,,,,,,,,,,,
,,,,,,606aad87b9f57a82dd447d6a,629c51aaa588dbbc11d09dc2,2022-06-05_07h52.21.566,Colour_Asymmetry_Pilot,2022.1.3,Win32,59.93407252,629c4b6caf241d5e6e00bfc0,0,20,20,108,1,threeone,,,,,,,,,,,,,,,,,,,,,,,,,,,,,,,,,,,,,,,,,,,,,,,,,,,,,,,,,,,,,,,,,,,,,,,,,,,,,,,,,,,,,,,,,,,,,,,,,,,,,,,,,,,,,,,,,,,,,,,,,,,,,,,,,,,,,,,,,,,,,
,,,,,,606aad87b9f57a82dd447d6a,629c51aaa588dbbc11d09dc2,2022-06-05_07h52.21.566,Colour_Asymmetry_Pilot,2022.1.3,Win32,59.93407252,629c4b6caf241d5e6e00bfc0,0,21,21,28,1,threeone,,,,,,,,,,,,,,,,,,,,,,,,,,,,,,,,,,,,,,,,,,,,,,,,,,,,,,,,,,,,,,,,,,,,,,,,,,,,,,,,,,,,,,,,,,,,,,,,,,,,,,,,,,,,,,,,,,,,,,,,,,,,,,,,,,,,,,,,,,,,,
,,,,,,606aad87b9f57a82dd447d6a,629c51aaa588dbbc11d09dc2,2022-06-05_07h52.21.566,Colour_Asymmetry_Pilot,2022.1.3,Win32,59.93407252,629c4b6caf241d5e6e00bfc0,0,22,22,106,1,twoone,,,,,,,,,,,,,,,,,,,,,,,,,,,,,,,,,,,,,,,,,,,,,,,,,,,,,,,,,,,,,,,,,,,,,,,,,,,,,,,,,,,,,,,,,,,,,,,,,,,,,,,,,,,,,,,,,,,,,,,,,,,,,,,,,,,,,,,,,,,,,
,,,,,,606aad87b9f57a82dd447d6a,629c51aaa588dbbc11d09dc2,2022-06-05_07h52.21.566,Colour_Asymmetry_Pilot,2022.1.3,Win32,59.93407252,629c4b6caf241d5e6e00bfc0,0,23,23,34,1,twoone,,,,,,,,,,,,,,,,,,,,,,,,,,,,,,,,,,,,,,,,,,,,,,,,,,,,,,,,,,,,,,,,,,,,,,,,,,,,,,,,,,,,,,,,,,,,,,,,,,,,,,,,,,,,,,,,,,,,,,,,,,,,,,,,,,,,,,,,,,,,,
,,,,,,606aad87b9f57a82dd447d6a,629c51aaa588dbbc11d09dc2,2022-06-05_07h52.21.566,Colour_Asymmetry_Pilot,2022.1.3,Win32,59.93407252,629c4b6caf241d5e6e00bfc0,0,24,24,32,1,onetwo,,,,,,,,,,,,,,,,,,,,,,,,,,,,,,,,,,,,,,,,,,,,,,,,,,,,,,,,,,,,,,,,,,,,,,,,,,,,,,,,,,,,,,,,,,,,,,,,,,,,,,,,,,,,,,,,,,,,,,,,,,,,,,,,,,,,,,,,,,,,,
,,,,,,606aad87b9f57a82dd447d6a,629c51aaa588dbbc11d09dc2,2022-06-05_07h52.21.566,Colour_Asymmetry_Pilot,2022.1.3,Win32,59.93407252,629c4b6caf241d5e6e00bfc0,0,25,25,68,1,threeone,,,,,,,,,,,,,,,,,,,,,,,,,,,,,,,,,,,,,,,,,,,,,,,,,,,,,,,,,,,,,,,,,,,,,,,,,,,,,,,,,,,,,,,,,,,,,,,,,,,,,,,,,,,,,,,,,,,,,,,,,,,,,,,,,,,,,,,,,,,,,
,,,,,,606aad87b9f57a82dd447d6a,629c51aaa588dbbc11d09dc2,2022-06-05_07h52.21.566,Colour_Asymmetry_Pilot,2022.1.3,Win32,59.93407252,629c4b6caf241d5e6e00bfc0,0,26,26,45,1,threefour,,,,,,,,,,,,,,,,,,,,,,,,,,,,,,,,,,,,,,,,,,,,,,,,,,,,,,,,,,,,,,,,,,,,,,,,,,,,,,,,,,,,,,,,,,,,,,,,,,,,,,,,,,,,,,,,,,,,,,,,,,,,,,,,,,,,,,,,,,,,,
,,,,,,606aad87b9f57a82dd447d6a,629c51aaa588dbbc11d09dc2,2022-06-05_07h52.21.566,Colour_Asymmetry_Pilot,2022.1.3,Win32,59.93407252,629c4b6caf241d5e6e00bfc0,0,27,27,96,1,onetwo,,,,,,,,,,,,,,,,,,,,,,,,,,,,,,,,,,,,,,,,,,,,,,,,,,,,,,,,,,,,,,,,,,,,,,,,,,,,,,,,,,,,,,,,,,,,,,,,,,,,,,,,,,,,,,,,,,,,,,,,,,,,,,,,,,,,,,,,,,,,,
,,,,,,606aad87b9f57a82dd447d6a,629c51aaa588dbbc11d09dc2,2022-06-05_07h52.21.566,Colour_Asymmetry_Pilot,2022.1.3,Win32,59.93407252,629c4b6caf241d5e6e00bfc0,0,28,28,55,1,fourthree,,,,,,,,,,,,,,,,,,,,,,,,,,,,,,,,,,,,,,,,,,,,,,,,,,,,,,,,,,,,,,,,,,,,,,,,,,,,,,,,,,,,,,,,,,,,,,,,,,,,,,,,,,,,,,,,,,,,,,,,,,,,,,,,,,,,,,,,,,,,,
,,,,,,606aad87b9f57a82dd447d6a,629c51aaa588dbbc11d09dc2,2022-06-05_07h52.21.566,Colour_Asymmetry_Pilot,2022.1.3,Win32,59.93407252,629c4b6caf241d5e6e00bfc0,0,29,29,61,1,threefour,,,,,,,,,,,,,,,,,,,,,,,,,,,,,,,,,,,,,,,,,,,,,,,,,,,,,,,,,,,,,,,,,,,,,,,,,,,,,,,,,,,,,,,,,,,,,,,,,,,,,,,,,,,,,,,,,,,,,,,,,,,,,,,,,,,,,,,,,,,,,
,,,,,,606aad87b9f57a82dd447d6a,629c51aaa588dbbc11d09dc2,2022-06-05_07h52.21.566,Colour_Asymmetry_Pilot,2022.1.3,Win32,59.93407252,629c4b6caf241d5e6e00bfc0,0,30,30,51,1,twofour,,,,,,,,,,,,,,,,,,,,,,,,,,,,,,,,,,,,,,,,,,,,,,,,,,,,,,,,,,,,,,,,,,,,,,,,,,,,,,,,,,,,,,,,,,,,,,,,,,,,,,,,,,,,,,,,,,,,,,,,,,,,,,,,,,,,,,,,,,,,,
,,,,,,606aad87b9f57a82dd447d6a,629c51aaa588dbbc11d09dc2,2022-06-05_07h52.21.566,Colour_Asymmetry_Pilot,2022.1.3,Win32,59.93407252,629c4b6caf241d5e6e00bfc0,0,31,31,102,1,fourtwo,,,,,,,,,,,,,,,,,,,,,,,,,,,,,,,,,,,,,,,,,,,,,,,,,,,,,,,,,,,,,,,,,,,,,,,,,,,,,,,,,,,,,,,,,,,,,,,,,,,,,,,,,,,,,,,,,,,,,,,,,,,,,,,,,,,,,,,,,,,,,
,,,,,,606aad87b9f57a82dd447d6a,629c51aaa588dbbc11d09dc2,2022-06-05_07h52.21.566,Colour_Asymmetry_Pilot,2022.1.3,Win32,59.93407252,629c4b6caf241d5e6e00bfc0,0,32,32,23,1,fourthree,,,,,,,,,,,,,,,,,,,,,,,,,,,,,,,,,,,,,,,,,,,,,,,,,,,,,,,,,,,,,,,,,,,,,,,,,,,,,,,,,,,,,,,,,,,,,,,,,,,,,,,,,,,,,,,,,,,,,,,,,,,,,,,,,,,,,,,,,,,,,
,,,,,,606aad87b9f57a82dd447d6a,629c51aaa588dbbc11d09dc2,2022-06-05_07h52.21.566,Colour_Asymmetry_Pilot,2022.1.3,Win32,59.93407252,629c4b6caf241d5e6e00bfc0,0,33,33,151,1,fourthree,,,,,,,,,,,,,,,,,,,,,,,,,,,,,,,,,,,,,,,,,,,,,,,,,,,,,,,,,,,,,,,,,,,,,,,,,,,,,,,,,,,,,,,,,,,,,,,,,,,,,,,,,,,,,,,,,,,,,,,,,,,,,,,,,,,,,,,,,,,,,
,,,,,,606aad87b9f57a82dd447d6a,629c51aaa588dbbc11d09dc2,2022-06-05_07h52.21.566,Colour_Asymmetry_Pilot,2022.1.3,Win32,59.93407252,629c4b6caf241d5e6e00bfc0,0,34,34,152,1,onetwo,,,,,,,,,,,,,,,,,,,,,,,,,,,,,,,,,,,,,,,,,,,,,,,,,,,,,,,,,,,,,,,,,,,,,,,,,,,,,,,,,,,,,,,,,,,,,,,,,,,,,,,,,,,,,,,,,,,,,,,,,,,,,,,,,,,,,,,,,,,,,
,,,,,,606aad87b9f57a82dd447d6a,629c51aaa588dbbc11d09dc2,2022-06-05_07h52.21.566,Colour_Asymmetry_Pilot,2022.1.3,Win32,59.93407252,629c4b6caf241d5e6e00bfc0,0,35,35,3,1,twofour,,,,,,,,,,,,,,,,,,,,,,,,,,,,,,,,,,,,,,,,,,,,,,,,,,,,,,,,,,,,,,,,,,,,,,,,,,,,,,,,,,,,,,,,,,,,,,,,,,,,,,,,,,,,,,,,,,,,,,,,,,,,,,,,,,,,,,,,,,,,,
,,,,,,606aad87b9f57a82dd447d6a,629c51aaa588dbbc11d09dc2,2022-06-05_07h52.21.566,Colour_Asymmetry_Pilot,2022.1.3,Win32,59.93407252,629c4b6caf241d5e6e00bfc0,0,36,36,44,1,threeone,,,,,,,,,,,,,,,,,,,,,,,,,,,,,,,,,,,,,,,,,,,,,,,,,,,,,,,,,,,,,,,,,,,,,,,,,,,,,,,,,,,,,,,,,,,,,,,,,,,,,,,,,,,,,,,,,,,,,,,,,,,,,,,,,,,,,,,,,,,,,
,,,,,,606aad87b9f57a82dd447d6a,629c51aaa588dbbc11d09dc2,2022-06-05_07h52.21.566,Colour_Asymmetry_Pilot,2022.1.3,Win32,59.93407252,629c4b6caf241d5e6e00bfc0,0,37,37,128,1,onetwo,,,,,,,,,,,,,,,,,,,,,,,,,,,,,,,,,,,,,,,,,,,,,,,,,,,,,,,,,,,,,,,,,,,,,,,,,,,,,,,,,,,,,,,,,,,,,,,,,,,,,,,,,,,,,,,,,,,,,,,,,,,,,,,,,,,,,,,,,,,,,
,,,,,,606aad87b9f57a82dd447d6a,629c51aaa588dbbc11d09dc2,2022-06-05_07h52.21.566,Colour_Asymmetry_Pilot,2022.1.3,Win32,59.93407252,629c4b6caf241d5e6e00bfc0,0,38,38,17,1,onethree,,,,,,,,,,,,,,,,,,,,,,,,,,,,,,,,,,,,,,,,,,,,,,,,,,,,,,,,,,,,,,,,,,,,,,,,,,,,,,,,,,,,,,,,,,,,,,,,,,,,,,,,,,,,,,,,,,,,,,,,,,,,,,,,,,,,,,,,,,,,,
,,,,,,606aad87b9f57a82dd447d6a,629c51aaa588dbbc11d09dc2,2022-06-05_07h52.21.566,Colour_Asymmetry_Pilot,2022.1.3,Win32,59.93407252,629c4b6caf241d5e6e00bfc0,0,39,39,138,1,twoone,,,,,,,,,,,,,,,,,,,,,,,,,,,,,,,,,,,,,,,,,,,,,,,,,,,,,,,,,,,,,,,,,,,,,,,,,,,,,,,,,,,,,,,,,,,,,,,,,,,,,,,,,,,,,,,,,,,,,,,,,,,,,,,,,,,,,,,,,,,,,
,,,,,,606aad87b9f57a82dd447d6a,629c51aaa588dbbc11d09dc2,2022-06-05_07h52.21.566,Colour_Asymmetry_Pilot,2022.1.3,Win32,59.93407252,629c4b6caf241d5e6e00bfc0,0,40,40,82,1,twoone,,,,,,,,,,,,,,,,,,,,,,,,,,,,,,,,,,,,,,,,,,,,,,,,,,,,,,,,,,,,,,,,,,,,,,,,,,,,,,,,,,,,,,,,,,,,,,,,,,,,,,,,,,,,,,,,,,,,,,,,,,,,,,,,,,,,,,,,,,,,,
,,,,,,606aad87b9f57a82dd447d6a,629c51aaa588dbbc11d09dc2,2022-06-05_07h52.21.566,Colour_Asymmetry_Pilot,2022.1.3,Win32,59.93407252,629c4b6caf241d5e6e00bfc0,0,41,41,83,1,twofour,,,,,,,,,,,,,,,,,,,,,,,,,,,,,,,,,,,,,,,,,,,,,,,,,,,,,,,,,,,,,,,,,,,,,,,,,,,,,,,,,,,,,,,,,,,,,,,,,,,,,,,,,,,,,,,,,,,,,,,,,,,,,,,,,,,,,,,,,,,,,
,,,,,,606aad87b9f57a82dd447d6a,629c51aaa588dbbc11d09dc2,2022-06-05_07h52.21.566,Colour_Asymmetry_Pilot,2022.1.3,Win32,59.93407252,629c4b6caf241d5e6e00bfc0,0,42,42,49,1,onethree,,,,,,,,,,,,,,,,,,,,,,,,,,,,,,,,,,,,,,,,,,,,,,,,,,,,,,,,,,,,,,,,,,,,,,,,,,,,,,,,,,,,,,,,,,,,,,,,,,,,,,,,,,,,,,,,,,,,,,,,,,,,,,,,,,,,,,,,,,,,,
,,,,,,606aad87b9f57a82dd447d6a,629c51aaa588dbbc11d09dc2,2022-06-05_07h52.21.566,Colour_Asymmetry_Pilot,2022.1.3,Win32,59.93407252,629c4b6caf241d5e6e00bfc0,0,43,43,80,1,onetwo,,,,,,,,,,,,,,,,,,,,,,,,,,,,,,,,,,,,,,,,,,,,,,,,,,,,,,,,,,,,,,,,,,,,,,,,,,,,,,,,,,,,,,,,,,,,,,,,,,,,,,,,,,,,,,,,,,,,,,,,,,,,,,,,,,,,,,,,,,,,,
,,,,,,606aad87b9f57a82dd447d6a,629c51aaa588dbbc11d09dc2,2022-06-05_07h52.21.566,Colour_Asymmetry_Pilot,2022.1.3,Win32,59.93407252,629c4b6caf241d5e6e00bfc0,0,44,44,98,1,twoone,,,,,,,,,,,,,,,,,,,,,,,,,,,,,,,,,,,,,,,,,,,,,,,,,,,,,,,,,,,,,,,,,,,,,,,,,,,,,,,,,,,,,,,,,,,,,,,,,,,,,,,,,,,,,,,,,,,,,,,,,,,,,,,,,,,,,,,,,,,,,
,,,,,,606aad87b9f57a82dd447d6a,629c51aaa588dbbc11d09dc2,2022-06-05_07h52.21.566,Colour_Asymmetry_Pilot,2022.1.3,Win32,59.93407252,629c4b6caf241d5e6e00bfc0,0,45,45,99,1,twofour,,,,,,,,,,,,,,,,,,,,,,,,,,,,,,,,,,,,,,,,,,,,,,,,,,,,,,,,,,,,,,,,,,,,,,,,,,,,,,,,,,,,,,,,,,,,,,,,,,,,,,,,,,,,,,,,,,,,,,,,,,,,,,,,,,,,,,,,,,,,,
,,,,,,606aad87b9f57a82dd447d6a,629c51aaa588dbbc11d09dc2,2022-06-05_07h52.21.566,Colour_Asymmetry_Pilot,2022.1.3,Win32,59.93407252,629c4b6caf241d5e6e00bfc0,0,46,46,85,1,threefour,,,,,,,,,,,,,,,,,,,,,,,,,,,,,,,,,,,,,,,,,,,,,,,,,,,,,,,,,,,,,,,,,,,,,,,,,,,,,,,,,,,,,,,,,,,,,,,,,,,,,,,,,,,,,,,,,,,,,,,,,,,,,,,,,,,,,,,,,,,,,
,,,,,,606aad87b9f57a82dd447d6a,629c51aaa588dbbc11d09dc2,2022-06-05_07h52.21.566,Colour_Asymmetry_Pilot,2022.1.3,Win32,59.93407252,629c4b6caf241d5e6e00bfc0,0,47,47,103,1,fourthree,,,,,,,,,,,,,,,,,,,,,,,,,,,,,,,,,,,,,,,,,,,,,,,,,,,,,,,,,,,,,,,,,,,,,,,,,,,,,,,,,,,,,,,,,,,,,,,,,,,,,,,,,,,,,,,,,,,,,,,,,,,,,,,,,,,,,,,,,,,,,
,,,,,,606aad87b9f57a82dd447d6a,629c51aaa588dbbc11d09dc2,2022-06-05_07h52.21.566,Colour_Asymmetry_Pilot,2022.1.3,Win32,59.93407252,629c4b6caf241d5e6e00bfc0,0,48,48,127,1,fourthree,,,,,,,,,,,,,,,,,,,,,,,,,,,,,,,,,,,,,,,,,,,,,,,,,,,,,,,,,,,,,,,,,,,,,,,,,,,,,,,,,,,,,,,,,,,,,,,,,,,,,,,,,,,,,,,,,,,,,,,,,,,,,,,,,,,,,,,,,,,,,
,,,,,,606aad87b9f57a82dd447d6a,629c51aaa588dbbc11d09dc2,2022-06-05_07h52.21.566,Colour_Asymmetry_Pilot,2022.1.3,Win32,59.93407252,629c4b6caf241d5e6e00bfc0,0,49,49,72,1,onetwo,,,,,,,,,,,,,,,,,,,,,,,,,,,,,,,,,,,,,,,,,,,,,,,,,,,,,,,,,,,,,,,,,,,,,,,,,,,,,,,,,,,,,,,,,,,,,,,,,,,,,,,,,,,,,,,,,,,,,,,,,,,,,,,,,,,,,,,,,,,,,
,,,,,,606aad87b9f57a82dd447d6a,629c51aaa588dbbc11d09dc2,2022-06-05_07h52.21.566,Colour_Asymmetry_Pilot,2022.1.3,Win32,59.93407252,629c4b6caf241d5e6e00bfc0,0,50,50,42,1,twoone,,,,,,,,,,,,,,,,,,,,,,,,,,,,,,,,,,,,,,,,,,,,,,,,,,,,,,,,,,,,,,,,,,,,,,,,,,,,,,,,,,,,,,,,,,,,,,,,,,,,,,,,,,,,,,,,,,,,,,,,,,,,,,,,,,,,,,,,,,,,,
,,,,,,606aad87b9f57a82dd447d6a,629c51aaa588dbbc11d09dc2,2022-06-05_07h52.21.566,Colour_Asymmetry_Pilot,2022.1.3,Win32,59.93407252,629c4b6caf241d5e6e00bfc0,0,51,51,104,1,onetwo,,,,,,,,,,,,,,,,,,,,,,,,,,,,,,,,,,,,,,,,,,,,,,,,,,,,,,,,,,,,,,,,,,,,,,,,,,,,,,,,,,,,,,,,,,,,,,,,,,,,,,,,,,,,,,,,,,,,,,,,,,,,,,,,,,,,,,,,,,,,,
,,,,,,606aad87b9f57a82dd447d6a,629c51aaa588dbbc11d09dc2,2022-06-05_07h52.21.566,Colour_Asymmetry_Pilot,2022.1.3,Win32,59.93407252,629c4b6caf241d5e6e00bfc0,0,52,52,53,1,threefour,,,,,,,,,,,,,,,,,,,,,,,,,,,,,,,,,,,,,,,,,,,,,,,,,,,,,,,,,,,,,,,,,,,,,,,,,,,,,,,,,,,,,,,,,,,,,,,,,,,,,,,,,,,,,,,,,,,,,,,,,,,,,,,,,,,,,,,,,,,,,
,,,,,,606aad87b9f57a82dd447d6a,629c51aaa588dbbc11d09dc2,2022-06-05_07h52.21.566,Colour_Asymmetry_Pilot,2022.1.3,Win32,59.93407252,629c4b6caf241d5e6e00bfc0,0,53,53,71,1,fourthree,,,,,,,,,,,,,,,,,,,,,,,,,,,,,,,,,,,,,,,,,,,,,,,,,,,,,,,,,,,,,,,,,,,,,,,,,,,,,,,,,,,,,,,,,,,,,,,,,,,,,,,,,,,,,,,,,,,,,,,,,,,,,,,,,,,,,,,,,,,,,
,,,,,,606aad87b9f57a82dd447d6a,629c51aaa588dbbc11d09dc2,2022-06-05_07h52.21.566,Colour_Asymmetry_Pilot,2022.1.3,Win32,59.93407252,629c4b6caf241d5e6e00bfc0,0,54,54,157,1,threefour,,,,,,,,,,,,,,,,,,,,,,,,,,,,,,,,,,,,,,,,,,,,,,,,,,,,,,,,,,,,,,,,,,,,,,,,,,,,,,,,,,,,,,,,,,,,,,,,,,,,,,,,,,,,,,,,,,,,,,,,,,,,,,,,,,,,,,,,,,,,,
,,,,,,606aad87b9f57a82dd447d6a,629c51aaa588dbbc11d09dc2,2022-06-05_07h52.21.566,Colour_Asymmetry_Pilot,2022.1.3,Win32,59.93407252,629c4b6caf241d5e6e00bfc0,0,55,55,48,1,onetwo,,,,,,,,,,,,,,,,,,,,,,,,,,,,,,,,,,,,,,,,,,,,,,,,,,,,,,,,,,,,,,,,,,,,,,,,,,,,,,,,,,,,,,,,,,,,,,,,,,,,,,,,,,,,,,,,,,,,,,,,,,,,,,,,,,,,,,,,,,,,,
,,,,,,606aad87b9f57a82dd447d6a,629c51aaa588dbbc11d09dc2,2022-06-05_07h52.21.566,Colour_Asymmetry_Pilot,2022.1.3,Win32,59.93407252,629c4b6caf241d5e6e00bfc0,0,56,56,5,1,threefour,,,,,,,,,,,,,,,,,,,,,,,,,,,,,,,,,,,,,,,,,,,,,,,,,,,,,,,,,,,,,,,,,,,,,,,,,,,,,,,,,,,,,,,,,,,,,,,,,,,,,,,,,,,,,,,,,,,,,,,,,,,,,,,,,,,,,,,,,,,,,
,,,,,,606aad87b9f57a82dd447d6a,629c51aaa588dbbc11d09dc2,2022-06-05_07h52.21.566,Colour_Asymmetry_Pilot,2022.1.3,Win32,59.93407252,629c4b6caf241d5e6e00bfc0,0,57,57,97,1,onethree,,,,,,,,,,,,,,,,,,,,,,,,,,,,,,,,,,,,,,,,,,,,,,,,,,,,,,,,,,,,,,,,,,,,,,,,,,,,,,,,,,,,,,,,,,,,,,,,,,,,,,,,,,,,,,,,,,,,,,,,,,,,,,,,,,,,,,,,,,,,,
,,,,,,606aad87b9f57a82dd447d6a,629c51aaa588dbbc11d09dc2,2022-06-05_07h52.21.566,Colour_Asymmetry_Pilot,2022.1.3,Win32,59.93407252,629c4b6caf241d5e6e00bfc0,0,58,58,14,1,fourtwo,,,,,,,,,,,,,,,,,,,,,,,,,,,,,,,,,,,,,,,,,,,,,,,,,,,,,,,,,,,,,,,,,,,,,,,,,,,,,,,,,,,,,,,,,,,,,,,,,,,,,,,,,,,,,,,,,,,,,,,,,,,,,,,,,,,,,,,,,,,,,
,,,,,,606aad87b9f57a82dd447d6a,629c51aaa588dbbc11d09dc2,2022-06-05_07h52.21.566,Colour_Asymmetry_Pilot,2022.1.3,Win32,59.93407252,629c4b6caf241d5e6e00bfc0,0,59,59,153,1,onethree,,,,,,,,,,,,,,,,,,,,,,,,,,,,,,,,,,,,,,,,,,,,,,,,,,,,,,,,,,,,,,,,,,,,,,,,,,,,,,,,,,,,,,,,,,,,,,,,,,,,,,,,,,,,,,,,,,,,,,,,,,,,,,,,,,,,,,,,,,,,,
,,,,,,606aad87b9f57a82dd447d6a,629c51aaa588dbbc11d09dc2,2022-06-05_07h52.21.566,Colour_Asymmetry_Pilot,2022.1.3,Win32,59.93407252,629c4b6caf241d5e6e00bfc0,0,60,60,79,1,fourthree,,,,,,,,,,,,,,,,,,,,,,,,,,,,,,,,,,,,,,,,,,,,,,,,,,,,,,,,,,,,,,,,,,,,,,,,,,,,,,,,,,,,,,,,,,,,,,,,,,,,,,,,,,,,,,,,,,,,,,,,,,,,,,,,,,,,,,,,,,,,,
,,,,,,606aad87b9f57a82dd447d6a,629c51aaa588dbbc11d09dc2,2022-06-05_07h52.21.566,Colour_Asymmetry_Pilot,2022.1.3,Win32,59.93407252,629c4b6caf241d5e6e00bfc0,0,61,61,67,1,twofour,,,,,,,,,,,,,,,,,,,,,,,,,,,,,,,,,,,,,,,,,,,,,,,,,,,,,,,,,,,,,,,,,,,,,,,,,,,,,,,,,,,,,,,,,,,,,,,,,,,,,,,,,,,,,,,,,,,,,,,,,,,,,,,,,,,,,,,,,,,,,
,,,,,,606aad87b9f57a82dd447d6a,629c51aaa588dbbc11d09dc2,2022-06-05_07h52.21.566,Colour_Asymmetry_Pilot,2022.1.3,Win32,59.93407252,629c4b6caf241d5e6e00bfc0,0,62,62,65,1,onethree,,,,,,,,,,,,,,,,,,,,,,,,,,,,,,,,,,,,,,,,,,,,,,,,,,,,,,,,,,,,,,,,,,,,,,,,,,,,,,,,,,,,,,,,,,,,,,,,,,,,,,,,,,,,,,,,,,,,,,,,,,,,,,,,,,,,,,,,,,,,,
,,,,,,606aad87b9f57a82dd447d6a,629c51aaa588dbbc11d09dc2,2022-06-05_07h52.21.566,Colour_Asymmetry_Pilot,2022.1.3,Win32,59.93407252,629c4b6caf241d5e6e00bfc0,0,63,63,109,1,threefour,,,,,,,,,,,,,,,,,,,,,,,,,,,,,,,,,,,,,,,,,,,,,,,,,,,,,,,,,,,,,,,,,,,,,,,,,,,,,,,,,,,,,,,,,,,,,,,,,,,,,,,,,,,,,,,,,,,,,,,,,,,,,,,,,,,,,,,,,,,,,
,,,,,,606aad87b9f57a82dd447d6a,629c51aaa588dbbc11d09dc2,2022-06-05_07h52.21.566,Colour_Asymmetry_Pilot,2022.1.3,Win32,59.93407252,629c4b6caf241d5e6e00bfc0,0,64,64,139,1,twofour,,,,,,,,,,,,,,,,,,,,,,,,,,,,,,,,,,,,,,,,,,,,,,,,,,,,,,,,,,,,,,,,,,,,,,,,,,,,,,,,,,,,,,,,,,,,,,,,,,,,,,,,,,,,,,,,,,,,,,,,,,,,,,,,,,,,,,,,,,,,,
,,,,,,606aad87b9f57a82dd447d6a,629c51aaa588dbbc11d09dc2,2022-06-05_07h52.21.566,Colour_Asymmetry_Pilot,2022.1.3,Win32,59.93407252,629c4b6caf241d5e6e00bfc0,0,65,65,89,1,onethree,,,,,,,,,,,,,,,,,,,,,,,,,,,,,,,,,,,,,,,,,,,,,,,,,,,,,,,,,,,,,,,,,,,,,,,,,,,,,,,,,,,,,,,,,,,,,,,,,,,,,,,,,,,,,,,,,,,,,,,,,,,,,,,,,,,,,,,,,,,,,
,,,,,,606aad87b9f57a82dd447d6a,629c51aaa588dbbc11d09dc2,2022-06-05_07h52.21.566,Colour_Asymmetry_Pilot,2022.1.3,Win32,59.93407252,629c4b6caf241d5e6e00bfc0,0,66,66,66,1,twoone,,,,,,,,,,,,,,,,,,,,,,,,,,,,,,,,,,,,,,,,,,,,,,,,,,,,,,,,,,,,,,,,,,,,,,,,,,,,,,,,,,,,,,,,,,,,,,,,,,,,,,,,,,,,,,,,,,,,,,,,,,,,,,,,,,,,,,,,,,,,,
,,,,,,606aad87b9f57a82dd447d6a,629c51aaa588dbbc11d09dc2,2022-06-05_07h52.21.566,Colour_Asymmetry_Pilot,2022.1.3,Win32,59.93407252,629c4b6caf241d5e6e00bfc0,0,67,67,155,1,twofour,,,,,,,,,,,,,,,,,,,,,,,,,,,,,,,,,,,,,,,,,,,,,,,,,,,,,,,,,,,,,,,,,,,,,,,,,,,,,,,,,,,,,,,,,,,,,,,,,,,,,,,,,,,,,,,,,,,,,,,,,,,,,,,,,,,,,,,,,,,,,
,,,,,,606aad87b9f57a82dd447d6a,629c51aaa588dbbc11d09dc2,2022-06-05_07h52.21.566,Colour_Asymmetry_Pilot,2022.1.3,Win32,59.93407252,629c4b6caf241d5e6e00bfc0,0,68,68,105,1,onethree,,,,,,,,,,,,,,,,,,,,,,,,,,,,,,,,,,,,,,,,,,,,,,,,,,,,,,,,,,,,,,,,,,,,,,,,,,,,,,,,,,,,,,,,,,,,,,,,,,,,,,,,,,,,,,,,,,,,,,,,,,,,,,,,,,,,,,,,,,,,,
,,,,,,606aad87b9f57a82dd447d6a,629c51aaa588dbbc11d09dc2,2022-06-05_07h52.21.566,Colour_Asymmetry_Pilot,2022.1.3,Win32,59.93407252,629c4b6caf241d5e6e00bfc0,0,69,69,20,1,threeone,,,,,,,,,,,,,,,,,,,,,,,,,,,,,,,,,,,,,,,,,,,,,,,,,,,,,,,,,,,,,,,,,,,,,,,,,,,,,,,,,,,,,,,,,,,,,,,,,,,,,,,,,,,,,,,,,,,,,,,,,,,,,,,,,,,,,,,,,,,,,
,,,,,,606aad87b9f57a82dd447d6a,629c51aaa588dbbc11d09dc2,2022-06-05_07h52.21.566,Colour_Asymmetry_Pilot,2022.1.3,Win32,59.93407252,629c4b6caf241d5e6e00bfc0,0,70,70,15,1,fourthree,,,,,,,,,,,,,,,,,,,,,,,,,,,,,,,,,,,,,,,,,,,,,,,,,,,,,,,,,,,,,,,,,,,,,,,,,,,,,,,,,,,,,,,,,,,,,,,,,,,,,,,,,,,,,,,,,,,,,,,,,,,,,,,,,,,,,,,,,,,,,
,,,,,,606aad87b9f57a82dd447d6a,629c51aaa588dbbc11d09dc2,2022-06-05_07h52.21.566,Colour_Asymmetry_Pilot,2022.1.3,Win32,59.93407252,629c4b6caf241d5e6e00bfc0,0,71,71,75,1,twofour,,,,,,,,,,,,,,,,,,,,,,,,,,,,,,,,,,,,,,,,,,,,,,,,,,,,,,,,,,,,,,,,,,,,,,,,,,,,,,,,,,,,,,,,,,,,,,,,,,,,,,,,,,,,,,,,,,,,,,,,,,,,,,,,,,,,,,,,,,,,,
,,,,,,606aad87b9f57a82dd447d6a,629c51aaa588dbbc11d09dc2,2022-06-05_07h52.21.566,Colour_Asymmetry_Pilot,2022.1.3,Win32,59.93407252,629c4b6caf241d5e6e00bfc0,0,72,72,19,1,twofour,,,,,,,,,,,,,,,,,,,,,,,,,,,,,,,,,,,,,,,,,,,,,,,,,,,,,,,,,,,,,,,,,,,,,,,,,,,,,,,,,,,,,,,,,,,,,,,,,,,,,,,,,,,,,,,,,,,,,,,,,,,,,,,,,,,,,,,,,,,,,
,,,,,,606aad87b9f57a82dd447d6a,629c51aaa588dbbc11d09dc2,2022-06-05_07h52.21.566,Colour_Asymmetry_Pilot,2022.1.3,Win32,59.93407252,629c4b6caf241d5e6e00bfc0,0,73,73,41,1,onethree,,,,,,,,,,,,,,,,,,,,,,,,,,,,,,,,,,,,,,,,,,,,,,,,,,,,,,,,,,,,,,,,,,,,,,,,,,,,,,,,,,,,,,,,,,,,,,,,,,,,,,,,,,,,,,,,,,,,,,,,,,,,,,,,,,,,,,,,,,,,,
,,,,,,606aad87b9f57a82dd447d6a,629c51aaa588dbbc11d09dc2,2022-06-05_07h52.21.566,Colour_Asymmetry_Pilot,2022.1.3,Win32,59.93407252,629c4b6caf241d5e6e00bfc0,0,74,74,117,1,threefour,,,,,,,,,,,,,,,,,,,,,,,,,,,,,,,,,,,,,,,,,,,,,,,,,,,,,,,,,,,,,,,,,,,,,,,,,,,,,,,,,,,,,,,,,,,,,,,,,,,,,,,,,,,,,,,,,,,,,,,,,,,,,,,,,,,,,,,,,,,,,
,,,,,,606aad87b9f57a82dd447d6a,629c51aaa588dbbc11d09dc2,2022-06-05_07h52.21.566,Colour_Asymmetry_Pilot,2022.1.3,Win32,59.93407252,629c4b6caf241d5e6e00bfc0,0,75,75,25,1,onethree,,,,,,,,,,,,,,,,,,,,,,,,,,,,,,,,,,,,,,,,,,,,,,,,,,,,,,,,,,,,,,,,,,,,,,,,,,,,,,,,,,,,,,,,,,,,,,,,,,,,,,,,,,,,,,,,,,,,,,,,,,,,,,,,,,,,,,,,,,,,,
,,,,,,606aad87b9f57a82dd447d6a,629c51aaa588dbbc11d09dc2,2022-06-05_07h52.21.566,Colour_Asymmetry_Pilot,2022.1.3,Win32,59.93407252,629c4b6caf241d5e6e00bfc0,0,76,76,100,1,threeone,,,,,,,,,,,,,,,,,,,,,,,,,,,,,,,,,,,,,,,,,,,,,,,,,,,,,,,,,,,,,,,,,,,,,,,,,,,,,,,,,,,,,,,,,,,,,,,,,,,,,,,,,,,,,,,,,,,,,,,,,,,,,,,,,,,,,,,,,,,,,
,,,,,,606aad87b9f57a82dd447d6a,629c51aaa588dbbc11d09dc2,2022-06-05_07h52.21.566,Colour_Asymmetry_Pilot,2022.1.3,Win32,59.93407252,629c4b6caf241d5e6e00bfc0,0,77,77,114,1,twoone,,,,,,,,,,,,,,,,,,,,,,,,,,,,,,,,,,,,,,,,,,,,,,,,,,,,,,,,,,,,,,,,,,,,,,,,,,,,,,,,,,,,,,,,,,,,,,,,,,,,,,,,,,,,,,,,,,,,,,,,,,,,,,,,,,,,,,,,,,,,,
,,,,,,606aad87b9f57a82dd447d6a,629c51aaa588dbbc11d09dc2,2022-06-05_07h52.21.566,Colour_Asymmetry_Pilot,2022.1.3,Win32,59.93407252,629c4b6caf241d5e6e00bfc0,0,78,78,60,1,threeone,,,,,,,,,,,,,,,,,,,,,,,,,,,,,,,,,,,,,,,,,,,,,,,,,,,,,,,,,,,,,,,,,,,,,,,,,,,,,,,,,,,,,,,,,,,,,,,,,,,,,,,,,,,,,,,,,,,,,,,,,,,,,,,,,,,,,,,,,,,,,
,,,,,,606aad87b9f57a82dd447d6a,629c51aaa588dbbc11d09dc2,2022-06-05_07h52.21.566,Colour_Asymmetry_Pilot,2022.1.3,Win32,59.93407252,629c4b6caf241d5e6e00bfc0,0,79,79,77,1,threefour,,,,,,,,,,,,,,,,,,,,,,,,,,,,,,,,,,,,,,,,,,,,,,,,,,,,,,,,,,,,,,,,,,,,,,,,,,,,,,,,,,,,,,,,,,,,,,,,,,,,,,,,,,,,,,,,,,,,,,,,,,,,,,,,,,,,,,,,,,,,,
,,,,,,606aad87b9f57a82dd447d6a,629c51aaa588dbbc11d09dc2,2022-06-05_07h52.21.566,Colour_Asymmetry_Pilot,2022.1.3,Win32,59.93407252,629c4b6caf241d5e6e00bfc0,0,80,80,88,1,onetwo,,,,,,,,,,,,,,,,,,,,,,,,,,,,,,,,,,,,,,,,,,,,,,,,,,,,,,,,,,,,,,,,,,,,,,,,,,,,,,,,,,,,,,,,,,,,,,,,,,,,,,,,,,,,,,,,,,,,,,,,,,,,,,,,,,,,,,,,,,,,,
,,,,,,606aad87b9f57a82dd447d6a,629c51aaa588dbbc11d09dc2,2022-06-05_07h52.21.566,Colour_Asymmetry_Pilot,2022.1.3,Win32,59.93407252,629c4b6caf241d5e6e00bfc0,0,81,81,107,1,twofour,,,,,,,,,,,,,,,,,,,,,,,,,,,,,,,,,,,,,,,,,,,,,,,,,,,,,,,,,,,,,,,,,,,,,,,,,,,,,,,,,,,,,,,,,,,,,,,,,,,,,,,,,,,,,,,,,,,,,,,,,,,,,,,,,,,,,,,,,,,,,
,,,,,,606aad87b9f57a82dd447d6a,629c51aaa588dbbc11d09dc2,2022-06-05_07h52.21.566,Colour_Asymmetry_Pilot,2022.1.3,Win32,59.93407252,629c4b6caf241d5e6e00bfc0,0,82,82,6,1,fourtwo,,,,,,,,,,,,,,,,,,,,,,,,,,,,,,,,,,,,,,,,,,,,,,,,,,,,,,,,,,,,,,,,,,,,,,,,,,,,,,,,,,,,,,,,,,,,,,,,,,,,,,,,,,,,,,,,,,,,,,,,,,,,,,,,,,,,,,,,,,,,,
,,,,,,606aad87b9f57a82dd447d6a,629c51aaa588dbbc11d09dc2,2022-06-05_07h52.21.566,Colour_Asymmetry_Pilot,2022.1.3,Win32,59.93407252,629c4b6caf241d5e6e00bfc0,0,83,83,50,1,twoone,,,,,,,,,,,,,,,,,,,,,,,,,,,,,,,,,,,,,,,,,,,,,,,,,,,,,,,,,,,,,,,,,,,,,,,,,,,,,,,,,,,,,,,,,,,,,,,,,,,,,,,,,,,,,,,,,,,,,,,,,,,,,,,,,,,,,,,,,,,,,
,,,,,,606aad87b9f57a82dd447d6a,629c51aaa588dbbc11d09dc2,2022-06-05_07h52.21.566,Colour_Asymmetry_Pilot,2022.1.3,Win32,59.93407252,629c4b6caf241d5e6e00bfc0,0,84,84,101,1,threefour,,,,,,,,,,,,,,,,,,,,,,,,,,,,,,,,,,,,,,,,,,,,,,,,,,,,,,,,,,,,,,,,,,,,,,,,,,,,,,,,,,,,,,,,,,,,,,,,,,,,,,,,,,,,,,,,,,,,,,,,,,,,,,,,,,,,,,,,,,,,,
,,,,,,606aad87b9f57a82dd447d6a,629c51aaa588dbbc11d09dc2,2022-06-05_07h52.21.566,Colour_Asymmetry_Pilot,2022.1.3,Win32,59.93407252,629c4b6caf241d5e6e00bfc0,0,85,85,12,1,threeone,,,,,,,,,,,,,,,,,,,,,,,,,,,,,,,,,,,,,,,,,,,,,,,,,,,,,,,,,,,,,,,,,,,,,,,,,,,,,,,,,,,,,,,,,,,,,,,,,,,,,,,,,,,,,,,,,,,,,,,,,,,,,,,,,,,,,,,,,,,,,
,,,,,,606aad87b9f57a82dd447d6a,629c51aaa588dbbc11d09dc2,2022-06-05_07h52.21.566,Colour_Asymmetry_Pilot,2022.1.3,Win32,59.93407252,629c4b6caf241d5e6e00bfc0,0,86,86,147,1,twofour,,,,,,,,,,,,,,,,,,,,,,,,,,,,,,,,,,,,,,,,,,,,,,,,,,,,,,,,,,,,,,,,,,,,,,,,,,,,,,,,,,,,,,,,,,,,,,,,,,,,,,,,,,,,,,,,,,,,,,,,,,,,,,,,,,,,,,,,,,,,,
,,,,,,606aad87b9f57a82dd447d6a,629c51aaa588dbbc11d09dc2,2022-06-05_07h52.21.566,Colour_Asymmetry_Pilot,2022.1.3,Win32,59.93407252,629c4b6caf241d5e6e00bfc0,0,87,87,146,1,twoone,,,,,,,,,,,,,,,,,,,,,,,,,,,,,,,,,,,,,,,,,,,,,,,,,,,,,,,,,,,,,,,,,,,,,,,,,,,,,,,,,,,,,,,,,,,,,,,,,,,,,,,,,,,,,,,,,,,,,,,,,,,,,,,,,,,,,,,,,,,,,
,,,,,,606aad87b9f57a82dd447d6a,629c51aaa588dbbc11d09dc2,2022-06-05_07h52.21.566,Colour_Asymmetry_Pilot,2022.1.3,Win32,59.93407252,629c4b6caf241d5e6e00bfc0,0,88,88,1,1,onethree,,,,,,,,,,,,,,,,,,,,,,,,,,,,,,,,,,,,,,,,,,,,,,,,,,,,,,,,,,,,,,,,,,,,,,,,,,,,,,,,,,,,,,,,,,,,,,,,,,,,,,,,,,,,,,,,,,,,,,,,,,,,,,,,,,,,,,,,,,,,,
,,,,,,606aad87b9f57a82dd447d6a,629c51aaa588dbbc11d09dc2,2022-06-05_07h52.21.566,Colour_Asymmetry_Pilot,2022.1.3,Win32,59.93407252,629c4b6caf241d5e6e00bfc0,0,89,89,135,1,fourthree,,,,,,,,,,,,,,,,,,,,,,,,,,,,,,,,,,,,,,,,,,,,,,,,,,,,,,,,,,,,,,,,,,,,,,,,,,,,,,,,,,,,,,,,,,,,,,,,,,,,,,,,,,,,,,,,,,,,,,,,,,,,,,,,,,,,,,,,,,,,,
,,,,,,606aad87b9f57a82dd447d6a,629c51aaa588dbbc11d09dc2,2022-06-05_07h52.21.566,Colour_Asymmetry_Pilot,2022.1.3,Win32,59.93407252,629c4b6caf241d5e6e00bfc0,0,90,90,119,1,fourthree,,,,,,,,,,,,,,,,,,,,,,,,,,,,,,,,,,,,,,,,,,,,,,,,,,,,,,,,,,,,,,,,,,,,,,,,,,,,,,,,,,,,,,,,,,,,,,,,,,,,,,,,,,,,,,,,,,,,,,,,,,,,,,,,,,,,,,,,,,,,,
,,,,,,606aad87b9f57a82dd447d6a,629c51aaa588dbbc11d09dc2,2022-06-05_07h52.21.566,Colour_Asymmetry_Pilot,2022.1.3,Win32,59.93407252,629c4b6caf241d5e6e00bfc0,0,91,91,141,1,threefour,,,,,,,,,,,,,,,,,,,,,,,,,,,,,,,,,,,,,,,,,,,,,,,,,,,,,,,,,,,,,,,,,,,,,,,,,,,,,,,,,,,,,,,,,,,,,,,,,,,,,,,,,,,,,,,,,,,,,,,,,,,,,,,,,,,,,,,,,,,,,
,,,,,,606aad87b9f57a82dd447d6a,629c51aaa588dbbc11d09dc2,2022-06-05_07h52.21.566,Colour_Asymmetry_Pilot,2022.1.3,Win32,59.93407252,629c4b6caf241d5e6e00bfc0,0,92,92,30,1,fourtwo,,,,,,,,,,,,,,,,,,,,,,,,,,,,,,,,,,,,,,,,,,,,,,,,,,,,,,,,,,,,,,,,,,,,,,,,,,,,,,,,,,,,,,,,,,,,,,,,,,,,,,,,,,,,,,,,,,,,,,,,,,,,,,,,,,,,,,,,,,,,,
,,,,,,606aad87b9f57a82dd447d6a,629c51aaa588dbbc11d09dc2,2022-06-05_07h52.21.566,Colour_Asymmetry_Pilot,2022.1.3,Win32,59.93407252,629c4b6caf241d5e6e00bfc0,0,93,93,111,1,fourthree,,,,,,,,,,,,,,,,,,,,,,,,,,,,,,,,,,,,,,,,,,,,,,,,,,,,,,,,,,,,,,,,,,,,,,,,,,,,,,,,,,,,,,,,,,,,,,,,,,,,,,,,,,,,,,,,,,,,,,,,,,,,,,,,,,,,,,,,,,,,,
,,,,,,606aad87b9f57a82dd447d6a,629c51aaa588dbbc11d09dc2,2022-06-05_07h52.21.566,Colour_Asymmetry_Pilot,2022.1.3,Win32,59.93407252,629c4b6caf241d5e6e00bfc0,0,94,94,10,1,twoone,,,,,,,,,,,,,,,,,,,,,,,,,,,,,,,,,,,,,,,,,,,,,,,,,,,,,,,,,,,,,,,,,,,,,,,,,,,,,,,,,,,,,,,,,,,,,,,,,,,,,,,,,,,,,,,,,,,,,,,,,,,,,,,,,,,,,,,,,,,,,
,,,,,,606aad87b9f57a82dd447d6a,629c51aaa588dbbc11d09dc2,2022-06-05_07h52.21.566,Colour_Asymmetry_Pilot,2022.1.3,Win32,59.93407252,629c4b6caf241d5e6e00bfc0,0,95,95,81,1,onethree,,,,,,,,,,,,,,,,,,,,,,,,,,,,,,,,,,,,,,,,,,,,,,,,,,,,,,,,,,,,,,,,,,,,,,,,,,,,,,,,,,,,,,,,,,,,,,,,,,,,,,,,,,,,,,,,,,,,,,,,,,,,,,,,,,,,,,,,,,,,,
,,,,,,606aad87b9f57a82dd447d6a,629c51aaa588dbbc11d09dc2,2022-06-05_07h52.21.566,Colour_Asymmetry_Pilot,2022.1.3,Win32,59.93407252,629c4b6caf241d5e6e00bfc0,0,96,96,58,1,twoone,,,,,,,,,,,,,,,,,,,,,,,,,,,,,,,,,,,,,,,,,,,,,,,,,,,,,,,,,,,,,,,,,,,,,,,,,,,,,,,,,,,,,,,,,,,,,,,,,,,,,,,,,,,,,,,,,,,,,,,,,,,,,,,,,,,,,,,,,,,,,
,,,,,,606aad87b9f57a82dd447d6a,629c51aaa588dbbc11d09dc2,2022-06-05_07h52.21.566,Colour_Asymmetry_Pilot,2022.1.3,Win32,59.93407252,629c4b6caf241d5e6e00bfc0,0,97,97,0,1,onetwo,,,,,,,,,,,,,,,,,,,,,,,,,,,,,,,,,,,,,,,,,,,,,,,,,,,,,,,,,,,,,,,,,,,,,,,,,,,,,,,,,,,,,,,,,,,,,,,,,,,,,,,,,,,,,,,,,,,,,,,,,,,,,,,,,,,,,,,,,,,,,
,,,,,,606aad87b9f57a82dd447d6a,629c51aaa588dbbc11d09dc2,2022-06-05_07h52.21.566,Colour_Asymmetry_Pilot,2022.1.3,Win32,59.93407252,629c4b6caf241d5e6e00bfc0,0,98,98,148,1,threeone,,,,,,,,,,,,,,,,,,,,,,,,,,,,,,,,,,,,,,,,,,,,,,,,,,,,,,,,,,,,,,,,,,,,,,,,,,,,,,,,,,,,,,,,,,,,,,,,,,,,,,,,,,,,,,,,,,,,,,,,,,,,,,,,,,,,,,,,,,,,,
,,,,,,606aad87b9f57a82dd447d6a,629c51aaa588dbbc11d09dc2,2022-06-05_07h52.21.566,Colour_Asymmetry_Pilot,2022.1.3,Win32,59.93407252,629c4b6caf241d5e6e00bfc0,0,99,99,131,1,twofour,,,,,,,,,,,,,,,,,,,,,,,,,,,,,,,,,,,,,,,,,,,,,,,,,,,,,,,,,,,,,,,,,,,,,,,,,,,,,,,,,,,,,,,,,,,,,,,,,,,,,,,,,,,,,,,,,,,,,,,,,,,,,,,,,,,,,,,,,,,,,
,,,,,,606aad87b9f57a82dd447d6a,629c51aaa588dbbc11d09dc2,2022-06-05_07h52.21.566,Colour_Asymmetry_Pilot,2022.1.3,Win32,59.93407252,629c4b6caf241d5e6e00bfc0,0,100,100,38,1,fourtwo,,,,,,,,,,,,,,,,,,,,,,,,,,,,,,,,,,,,,,,,,,,,,,,,,,,,,,,,,,,,,,,,,,,,,,,,,,,,,,,,,,,,,,,,,,,,,,,,,,,,,,,,,,,,,,,,,,,,,,,,,,,,,,,,,,,,,,,,,,,,,
,,,,,,606aad87b9f57a82dd447d6a,629c51aaa588dbbc11d09dc2,2022-06-05_07h52.21.566,Colour_Asymmetry_Pilot,2022.1.3,Win32,59.93407252,629c4b6caf241d5e6e00bfc0,0,101,101,87,1,fourthree,,,,,,,,,,,,,,,,,,,,,,,,,,,,,,,,,,,,,,,,,,,,,,,,,,,,,,,,,,,,,,,,,,,,,,,,,,,,,,,,,,,,,,,,,,,,,,,,,,,,,,,,,,,,,,,,,,,,,,,,,,,,,,,,,,,,,,,,,,,,,
,,,,,,606aad87b9f57a82dd447d6a,629c51aaa588dbbc11d09dc2,2022-06-05_07h52.21.566,Colour_Asymmetry_Pilot,2022.1.3,Win32,59.93407252,629c4b6caf241d5e6e00bfc0,0,102,102,93,1,threefour,,,,,,,,,,,,,,,,,,,,,,,,,,,,,,,,,,,,,,,,,,,,,,,,,,,,,,,,,,,,,,,,,,,,,,,,,,,,,,,,,,,,,,,,,,,,,,,,,,,,,,,,,,,,,,,,,,,,,,,,,,,,,,,,,,,,,,,,,,,,,
,,,,,,606aad87b9f57a82dd447d6a,629c51aaa588dbbc11d09dc2,2022-06-05_07h52.21.566,Colour_Asymmetry_Pilot,2022.1.3,Win32,59.93407252,629c4b6caf241d5e6e00bfc0,0,103,103,129,1,onethree,,,,,,,,,,,,,,,,,,,,,,,,,,,,,,,,,,,,,,,,,,,,,,,,,,,,,,,,,,,,,,,,,,,,,,,,,,,,,,,,,,,,,,,,,,,,,,,,,,,,,,,,,,,,,,,,,,,,,,,,,,,,,,,,,,,,,,,,,,,,,
,,,,,,606aad87b9f57a82dd447d6a,629c51aaa588dbbc11d09dc2,2022-06-05_07h52.21.566,Colour_Asymmetry_Pilot,2022.1.3,Win32,59.93407252,629c4b6caf241d5e6e00bfc0,0,104,104,74,1,twoone,,,,,,,,,,,,,,,,,,,,,,,,,,,,,,,,,,,,,,,,,,,,,,,,,,,,,,,,,,,,,,,,,,,,,,,,,,,,,,,,,,,,,,,,,,,,,,,,,,,,,,,,,,,,,,,,,,,,,,,,,,,,,,,,,,,,,,,,,,,,,
,,,,,,606aad87b9f57a82dd447d6a,629c51aaa588dbbc11d09dc2,2022-06-05_07h52.21.566,Colour_Asymmetry_Pilot,2022.1.3,Win32,59.93407252,629c4b6caf241d5e6e00bfc0,0,105,105,62,1,fourtwo,,,,,,,,,,,,,,,,,,,,,,,,,,,,,,,,,,,,,,,,,,,,,,,,,,,,,,,,,,,,,,,,,,,,,,,,,,,,,,,,,,,,,,,,,,,,,,,,,,,,,,,,,,,,,,,,,,,,,,,,,,,,,,,,,,,,,,,,,,,,,
,,,,,,606aad87b9f57a82dd447d6a,629c51aaa588dbbc11d09dc2,2022-06-05_07h52.21.566,Colour_Asymmetry_Pilot,2022.1.3,Win32,59.93407252,629c4b6caf241d5e6e00bfc0,0,106,106,18,1,twoone,,,,,,,,,,,,,,,,,,,,,,,,,,,,,,,,,,,,,,,,,,,,,,,,,,,,,,,,,,,,,,,,,,,,,,,,,,,,,,,,,,,,,,,,,,,,,,,,,,,,,,,,,,,,,,,,,,,,,,,,,,,,,,,,,,,,,,,,,,,,,
,,,,,,606aad87b9f57a82dd447d6a,629c51aaa588dbbc11d09dc2,2022-06-05_07h52.21.566,Colour_Asymmetry_Pilot,2022.1.3,Win32,59.93407252,629c4b6caf241d5e6e00bfc0,0,107,107,63,1,fourthree,,,,,,,,,,,,,,,,,,,,,,,,,,,,,,,,,,,,,,,,,,,,,,,,,,,,,,,,,,,,,,,,,,,,,,,,,,,,,,,,,,,,,,,,,,,,,,,,,,,,,,,,,,,,,,,,,,,,,,,,,,,,,,,,,,,,,,,,,,,,,
,,,,,,606aad87b9f57a82dd447d6a,629c51aaa588dbbc11d09dc2,2022-06-05_07h52.21.566,Colour_Asymmetry_Pilot,2022.1.3,Win32,59.93407252,629c4b6caf241d5e6e00bfc0,0,108,108,142,1,fourtwo,,,,,,,,,,,,,,,,,,,,,,,,,,,,,,,,,,,,,,,,,,,,,,,,,,,,,,,,,,,,,,,,,,,,,,,,,,,,,,,,,,,,,,,,,,,,,,,,,,,,,,,,,,,,,,,,,,,,,,,,,,,,,,,,,,,,,,,,,,,,,
,,,,,,606aad87b9f57a82dd447d6a,629c51aaa588dbbc11d09dc2,2022-06-05_07h52.21.566,Colour_Asymmetry_Pilot,2022.1.3,Win32,59.93407252,629c4b6caf241d5e6e00bfc0,0,109,109,122,1,twoone,,,,,,,,,,,,,,,,,,,,,,,,,,,,,,,,,,,,,,,,,,,,,,,,,,,,,,,,,,,,,,,,,,,,,,,,,,,,,,,,,,,,,,,,,,,,,,,,,,,,,,,,,,,,,,,,,,,,,,,,,,,,,,,,,,,,,,,,,,,,,
,,,,,,606aad87b9f57a82dd447d6a,629c51aaa588dbbc11d09dc2,2022-06-05_07h52.21.566,Colour_Asymmetry_Pilot,2022.1.3,Win32,59.93407252,629c4b6caf241d5e6e00bfc0,0,110,110,136,1,onetwo,,,,,,,,,,,,,,,,,,,,,,,,,,,,,,,,,,,,,,,,,,,,,,,,,,,,,,,,,,,,,,,,,,,,,,,,,,,,,,,,,,,,,,,,,,,,,,,,,,,,,,,,,,,,,,,,,,,,,,,,,,,,,,,,,,,,,,,,,,,,,
,,,,,,606aad87b9f57a82dd447d6a,629c51aaa588dbbc11d09dc2,2022-06-05_07h52.21.566,Colour_Asymmetry_Pilot,2022.1.3,Win32,59.93407252,629c4b6caf241d5e6e00bfc0,0,111,111,40,1,onetwo,,,,,,,,,,,,,,,,,,,,,,,,,,,,,,,,,,,,,,,,,,,,,,,,,,,,,,,,,,,,,,,,,,,,,,,,,,,,,,,,,,,,,,,,,,,,,,,,,,,,,,,,,,,,,,,,,,,,,,,,,,,,,,,,,,,,,,,,,,,,,
,,,,,,606aad87b9f57a82dd447d6a,629c51aaa588dbbc11d09dc2,2022-06-05_07h52.21.566,Colour_Asymmetry_Pilot,2022.1.3,Win32,59.93407252,629c4b6caf241d5e6e00bfc0,0,112,112,132,1,threeone,,,,,,,,,,,,,,,,,,,,,,,,,,,,,,,,,,,,,,,,,,,,,,,,,,,,,,,,,,,,,,,,,,,,,,,,,,,,,,,,,,,,,,,,,,,,,,,,,,,,,,,,,,,,,,,,,,,,,,,,,,,,,,,,,,,,,,,,,,,,,
,,,,,,606aad87b9f57a82dd447d6a,629c51aaa588dbbc11d09dc2,2022-06-05_07h52.21.566,Colour_Asymmetry_Pilot,2022.1.3,Win32,59.93407252,629c4b6caf241d5e6e00bfc0,0,113,113,160,1,onetwo,,,,,,,,,,,,,,,,,,,,,,,,,,,,,,,,,,,,,,,,,,,,,,,,,,,,,,,,,,,,,,,,,,,,,,,,,,,,,,,,,,,,,,,,,,,,,,,,,,,,,,,,,,,,,,,,,,,,,,,,,,,,,,,,,,,,,,,,,,,,,
,,,,,,606aad87b9f57a82dd447d6a,629c51aaa588dbbc11d09dc2,2022-06-05_07h52.21.566,Colour_Asymmetry_Pilot,2022.1.3,Win32,59.93407252,629c4b6caf241d5e6e00bfc0,0,114,114,120,1,onetwo,,,,,,,,,,,,,,,,,,,,,,,,,,,,,,,,,,,,,,,,,,,,,,,,,,,,,,,,,,,,,,,,,,,,,,,,,,,,,,,,,,,,,,,,,,,,,,,,,,,,,,,,,,,,,,,,,,,,,,,,,,,,,,,,,,,,,,,,,,,,,
,,,,,,606aad87b9f57a82dd447d6a,629c51aaa588dbbc11d09dc2,2022-06-05_07h52.21.566,Colour_Asymmetry_Pilot,2022.1.3,Win32,59.93407252,629c4b6caf241d5e6e00bfc0,0,115,115,145,1,onethree,,,,,,,,,,,,,,,,,,,,,,,,,,,,,,,,,,,,,,,,,,,,,,,,,,,,,,,,,,,,,,,,,,,,,,,,,,,,,,,,,,,,,,,,,,,,,,,,,,,,,,,,,,,,,,,,,,,,,,,,,,,,,,,,,,,,,,,,,,,,,
,,,,,,606aad87b9f57a82dd447d6a,629c51aaa588dbbc11d09dc2,2022-06-05_07h52.21.566,Colour_Asymmetry_Pilot,2022.1.3,Win32,59.93407252,629c4b6caf241d5e6e00bfc0,0,116,116,47,1,fourthree,,,,,,,,,,,,,,,,,,,,,,,,,,,,,,,,,,,,,,,,,,,,,,,,,,,,,,,,,,,,,,,,,,,,,,,,,,,,,,,,,,,,,,,,,,,,,,,,,,,,,,,,,,,,,,,,,,,,,,,,,,,,,,,,,,,,,,,,,,,,,
,,,,,,606aad87b9f57a82dd447d6a,629c51aaa588dbbc11d09dc2,2022-06-05_07h52.21.566,Colour_Asymmetry_Pilot,2022.1.3,Win32,59.93407252,629c4b6caf241d5e6e00bfc0,0,117,117,126,1,fourtwo,,,,,,,,,,,,,,,,,,,,,,,,,,,,,,,,,,,,,,,,,,,,,,,,,,,,,,,,,,,,,,,,,,,,,,,,,,,,,,,,,,,,,,,,,,,,,,,,,,,,,,,,,,,,,,,,,,,,,,,,,,,,,,,,,,,,,,,,,,,,,
,,,,,,606aad87b9f57a82dd447d6a,629c51aaa588dbbc11d09dc2,2022-06-05_07h52.21.566,Colour_Asymmetry_Pilot,2022.1.3,Win32,59.93407252,629c4b6caf241d5e6e00bfc0,0,118,118,118,1,fourtwo,,,,,,,,,,,,,,,,,,,,,,,,,,,,,,,,,,,,,,,,,,,,,,,,,,,,,,,,,,,,,,,,,,,,,,,,,,,,,,,,,,,,,,,,,,,,,,,,,,,,,,,,,,,,,,,,,,,,,,,,,,,,,,,,,,,,,,,,,,,,,
,,,,,,606aad87b9f57a82dd447d6a,629c51aaa588dbbc11d09dc2,2022-06-05_07h52.21.566,Colour_Asymmetry_Pilot,2022.1.3,Win32,59.93407252,629c4b6caf241d5e6e00bfc0,0,119,119,11,1,twofour,,,,,,,,,,,,,,,,,,,,,,,,,,,,,,,,,,,,,,,,,,,,,,,,,,,,,,,,,,,,,,,,,,,,,,,,,,,,,,,,,,,,,,,,,,,,,,,,,,,,,,,,,,,,,,,,,,,,,,,,,,,,,,,,,,,,,,,,,,,,,
,,,,,,606aad87b9f57a82dd447d6a,629c51aaa588dbbc11d09dc2,2022-06-05_07h52.21.566,Colour_Asymmetry_Pilot,2022.1.3,Win32,59.93407252,629c4b6caf241d5e6e00bfc0,0,120,120,159,1,fourthree,,,,,,,,,,,,,,,,,,,,,,,,,,,,,,,,,,,,,,,,,,,,,,,,,,,,,,,,,,,,,,,,,,,,,,,,,,,,,,,,,,,,,,,,,,,,,,,,,,,,,,,,,,,,,,,,,,,,,,,,,,,,,,,,,,,,,,,,,,,,,
,,,,,,606aad87b9f57a82dd447d6a,629c51aaa588dbbc11d09dc2,2022-06-05_07h52.21.566,Colour_Asymmetry_Pilot,2022.1.3,Win32,59.93407252,629c4b6caf241d5e6e00bfc0,0,121,121,43,1,twofour,,,,,,,,,,,,,,,,,,,,,,,,,,,,,,,,,,,,,,,,,,,,,,,,,,,,,,,,,,,,,,,,,,,,,,,,,,,,,,,,,,,,,,,,,,,,,,,,,,,,,,,,,,,,,,,,,,,,,,,,,,,,,,,,,,,,,,,,,,,,,
,,,,,,606aad87b9f57a82dd447d6a,629c51aaa588dbbc11d09dc2,2022-06-05_07h52.21.566,Colour_Asymmetry_Pilot,2022.1.3,Win32,59.93407252,629c4b6caf241d5e6e00bfc0,0,122,122,94,1,fourtwo,,,,,,,,,,,,,,,,,,,,,,,,,,,,,,,,,,,,,,,,,,,,,,,,,,,,,,,,,,,,,,,,,,,,,,,,,,,,,,,,,,,,,,,,,,,,,,,,,,,,,,,,,,,,,,,,,,,,,,,,,,,,,,,,,,,,,,,,,,,,,
,,,,,,606aad87b9f57a82dd447d6a,629c51aaa588dbbc11d09dc2,2022-06-05_07h52.21.566,Colour_Asymmetry_Pilot,2022.1.3,Win32,59.93407252,629c4b6caf241d5e6e00bfc0,0,123,123,115,1,twofour,,,,,,,,,,,,,,,,,,,,,,,,,,,,,,,,,,,,,,,,,,,,,,,,,,,,,,,,,,,,,,,,,,,,,,,,,,,,,,,,,,,,,,,,,,,,,,,,,,,,,,,,,,,,,,,,,,,,,,,,,,,,,,,,,,,,,,,,,,,,,
,,,,,,606aad87b9f57a82dd447d6a,629c51aaa588dbbc11d09dc2,2022-06-05_07h52.21.566,Colour_Asymmetry_Pilot,2022.1.3,Win32,59.93407252,629c4b6caf241d5e6e00bfc0,0,124,124,54,1,fourtwo,,,,,,,,,,,,,,,,,,,,,,,,,,,,,,,,,,,,,,,,,,,,,,,,,,,,,,,,,,,,,,,,,,,,,,,,,,,,,,,,,,,,,,,,,,,,,,,,,,,,,,,,,,,,,,,,,,,,,,,,,,,,,,,,,,,,,,,,,,,,,
,,,,,,606aad87b9f57a82dd447d6a,629c51aaa588dbbc11d09dc2,2022-06-05_07h52.21.566,Colour_Asymmetry_Pilot,2022.1.3,Win32,59.93407252,629c4b6caf241d5e6e00bfc0,0,125,125,22,1,fourtwo,,,,,,,,,,,,,,,,,,,,,,,,,,,,,,,,,,,,,,,,,,,,,,,,,,,,,,,,,,,,,,,,,,,,,,,,,,,,,,,,,,,,,,,,,,,,,,,,,,,,,,,,,,,,,,,,,,,,,,,,,,,,,,,,,,,,,,,,,,,,,
,,,,,,606aad87b9f57a82dd447d6a,629c51aaa588dbbc11d09dc2,2022-06-05_07h52.21.566,Colour_Asymmetry_Pilot,2022.1.3,Win32,59.93407252,629c4b6caf241d5e6e00bfc0,0,126,126,35,1,twofour,,,,,,,,,,,,,,,,,,,,,,,,,,,,,,,,,,,,,,,,,,,,,,,,,,,,,,,,,,,,,,,,,,,,,,,,,,,,,,,,,,,,,,,,,,,,,,,,,,,,,,,,,,,,,,,,,,,,,,,,,,,,,,,,,,,,,,,,,,,,,
,,,,,,606aad87b9f57a82dd447d6a,629c51aaa588dbbc11d09dc2,2022-06-05_07h52.21.566,Colour_Asymmetry_Pilot,2022.1.3,Win32,59.93407252,629c4b6caf241d5e6e00bfc0,0,127,127,90,1,twoone,,,,,,,,,,,,,,,,,,,,,,,,,,,,,,,,,,,,,,,,,,,,,,,,,,,,,,,,,,,,,,,,,,,,,,,,,,,,,,,,,,,,,,,,,,,,,,,,,,,,,,,,,,,,,,,,,,,,,,,,,,,,,,,,,,,,,,,,,,,,,
,,,,,,606aad87b9f57a82dd447d6a,629c51aaa588dbbc11d09dc2,2022-06-05_07h52.21.566,Colour_Asymmetry_Pilot,2022.1.3,Win32,59.93407252,629c4b6caf241d5e6e00bfc0,0,128,128,110,1,fourtwo,,,,,,,,,,,,,,,,,,,,,,,,,,,,,,,,,,,,,,,,,,,,,,,,,,,,,,,,,,,,,,,,,,,,,,,,,,,,,,,,,,,,,,,,,,,,,,,,,,,,,,,,,,,,,,,,,,,,,,,,,,,,,,,,,,,,,,,,,,,,,
,,,,,,606aad87b9f57a82dd447d6a,629c51aaa588dbbc11d09dc2,2022-06-05_07h52.21.566,Colour_Asymmetry_Pilot,2022.1.3,Win32,59.93407252,629c4b6caf241d5e6e00bfc0,0,129,129,13,1,threefour,,,,,,,,,,,,,,,,,,,,,,,,,,,,,,,,,,,,,,,,,,,,,,,,,,,,,,,,,,,,,,,,,,,,,,,,,,,,,,,,,,,,,,,,,,,,,,,,,,,,,,,,,,,,,,,,,,,,,,,,,,,,,,,,,,,,,,,,,,,,,
,,,,,,606aad87b9f57a82dd447d6a,629c51aaa588dbbc11d09dc2,2022-06-05_07h52.21.566,Colour_Asymmetry_Pilot,2022.1.3,Win32,59.93407252,629c4b6caf241d5e6e00bfc0,0,130,130,95,1,fourthree,,,,,,,,,,,,,,,,,,,,,,,,,,,,,,,,,,,,,,,,,,,,,,,,,,,,,,,,,,,,,,,,,,,,,,,,,,,,,,,,,,,,,,,,,,,,,,,,,,,,,,,,,,,,,,,,,,,,,,,,,,,,,,,,,,,,,,,,,,,,,
,,,,,,606aad87b9f57a82dd447d6a,629c51aaa588dbbc11d09dc2,2022-06-05_07h52.21.566,Colour_Asymmetry_Pilot,2022.1.3,Win32,59.93407252,629c4b6caf241d5e6e00bfc0,0,131,131,86,1,fourtwo,,,,,,,,,,,,,,,,,,,,,,,,,,,,,,,,,,,,,,,,,,,,,,,,,,,,,,,,,,,,,,,,,,,,,,,,,,,,,,,,,,,,,,,,,,,,,,,,,,,,,,,,,,,,,,,,,,,,,,,,,,,,,,,,,,,,,,,,,,,,,
,,,,,,606aad87b9f57a82dd447d6a,629c51aaa588dbbc11d09dc2,2022-06-05_07h52.21.566,Colour_Asymmetry_Pilot,2022.1.3,Win32,59.93407252,629c4b6caf241d5e6e00bfc0,0,132,132,112,1,onetwo,,,,,,,,,,,,,,,,,,,,,,,,,,,,,,,,,,,,,,,,,,,,,,,,,,,,,,,,,,,,,,,,,,,,,,,,,,,,,,,,,,,,,,,,,,,,,,,,,,,,,,,,,,,,,,,,,,,,,,,,,,,,,,,,,,,,,,,,,,,,,
,,,,,,606aad87b9f57a82dd447d6a,629c51aaa588dbbc11d09dc2,2022-06-05_07h52.21.566,Colour_Asymmetry_Pilot,2022.1.3,Win32,59.93407252,629c4b6caf241d5e6e00bfc0,0,133,133,24,1,onetwo,,,,,,,,,,,,,,,,,,,,,,,,,,,,,,,,,,,,,,,,,,,,,,,,,,,,,,,,,,,,,,,,,,,,,,,,,,,,,,,,,,,,,,,,,,,,,,,,,,,,,,,,,,,,,,,,,,,,,,,,,,,,,,,,,,,,,,,,,,,,,
,,,,,,606aad87b9f57a82dd447d6a,629c51aaa588dbbc11d09dc2,2022-06-05_07h52.21.566,Colour_Asymmetry_Pilot,2022.1.3,Win32,59.93407252,629c4b6caf241d5e6e00bfc0,0,134,134,21,1,threefour,,,,,,,,,,,,,,,,,,,,,,,,,,,,,,,,,,,,,,,,,,,,,,,,,,,,,,,,,,,,,,,,,,,,,,,,,,,,,,,,,,,,,,,,,,,,,,,,,,,,,,,,,,,,,,,,,,,,,,,,,,,,,,,,,,,,,,,,,,,,,
,,,,,,606aad87b9f57a82dd447d6a,629c51aaa588dbbc11d09dc2,2022-06-05_07h52.21.566,Colour_Asymmetry_Pilot,2022.1.3,Win32,59.93407252,629c4b6caf241d5e6e00bfc0,0,135,135,39,1,fourthree,,,,,,,,,,,,,,,,,,,,,,,,,,,,,,,,,,,,,,,,,,,,,,,,,,,,,,,,,,,,,,,,,,,,,,,,,,,,,,,,,,,,,,,,,,,,,,,,,,,,,,,,,,,,,,,,,,,,,,,,,,,,,,,,,,,,,,,,,,,,,
,,,,,,606aad87b9f57a82dd447d6a,629c51aaa588dbbc11d09dc2,2022-06-05_07h52.21.566,Colour_Asymmetry_Pilot,2022.1.3,Win32,59.93407252,629c4b6caf241d5e6e00bfc0,0,136,136,116,1,threeone,,,,,,,,,,,,,,,,,,,,,,,,,,,,,,,,,,,,,,,,,,,,,,,,,,,,,,,,,,,,,,,,,,,,,,,,,,,,,,,,,,,,,,,,,,,,,,,,,,,,,,,,,,,,,,,,,,,,,,,,,,,,,,,,,,,,,,,,,,,,,
,,,,,,606aad87b9f57a82dd447d6a,629c51aaa588dbbc11d09dc2,2022-06-05_07h52.21.566,Colour_Asymmetry_Pilot,2022.1.3,Win32,59.93407252,629c4b6caf241d5e6e00bfc0,0,137,137,113,1,onethree,,,,,,,,,,,,,,,,,,,,,,,,,,,,,,,,,,,,,,,,,,,,,,,,,,,,,,,,,,,,,,,,,,,,,,,,,,,,,,,,,,,,,,,,,,,,,,,,,,,,,,,,,,,,,,,,,,,,,,,,,,,,,,,,,,,,,,,,,,,,,
,,,,,,606aad87b9f57a82dd447d6a,629c51aaa588dbbc11d09dc2,2022-06-05_07h52.21.566,Colour_Asymmetry_Pilot,2022.1.3,Win32,59.93407252,629c4b6caf241d5e6e00bfc0,0,138,138,70,1,fourtwo,,,,,,,,,,,,,,,,,,,,,,,,,,,,,,,,,,,,,,,,,,,,,,,,,,,,,,,,,,,,,,,,,,,,,,,,,,,,,,,,,,,,,,,,,,,,,,,,,,,,,,,,,,,,,,,,,,,,,,,,,,,,,,,,,,,,,,,,,,,,,
,,,,,,606aad87b9f57a82dd447d6a,629c51aaa588dbbc11d09dc2,2022-06-05_07h52.21.566,Colour_Asymmetry_Pilot,2022.1.3,Win32,59.93407252,629c4b6caf241d5e6e00bfc0,0,139,139,2,1,twoone,,,,,,,,,,,,,,,,,,,,,,,,,,,,,,,,,,,,,,,,,,,,,,,,,,,,,,,,,,,,,,,,,,,,,,,,,,,,,,,,,,,,,,,,,,,,,,,,,,,,,,,,,,,,,,,,,,,,,,,,,,,,,,,,,,,,,,,,,,,,,
,,,,,,606aad87b9f57a82dd447d6a,629c51aaa588dbbc11d09dc2,2022-06-05_07h52.21.566,Colour_Asymmetry_Pilot,2022.1.3,Win32,59.93407252,629c4b6caf241d5e6e00bfc0,0,140,140,7,1,fourthree,,,,,,,,,,,,,,,,,,,,,,,,,,,,,,,,,,,,,,,,,,,,,,,,,,,,,,,,,,,,,,,,,,,,,,,,,,,,,,,,,,,,,,,,,,,,,,,,,,,,,,,,,,,,,,,,,,,,,,,,,,,,,,,,,,,,,,,,,,,,,
,,,,,,606aad87b9f57a82dd447d6a,629c51aaa588dbbc11d09dc2,2022-06-05_07h52.21.566,Colour_Asymmetry_Pilot,2022.1.3,Win32,59.93407252,629c4b6caf241d5e6e00bfc0,0,141,141,91,1,twofour,,,,,,,,,,,,,,,,,,,,,,,,,,,,,,,,,,,,,,,,,,,,,,,,,,,,,,,,,,,,,,,,,,,,,,,,,,,,,,,,,,,,,,,,,,,,,,,,,,,,,,,,,,,,,,,,,,,,,,,,,,,,,,,,,,,,,,,,,,,,,
,,,,,,606aad87b9f57a82dd447d6a,629c51aaa588dbbc11d09dc2,2022-06-05_07h52.21.566,Colour_Asymmetry_Pilot,2022.1.3,Win32,59.93407252,629c4b6caf241d5e6e00bfc0,0,142,142,46,1,fourtwo,,,,,,,,,,,,,,,,,,,,,,,,,,,,,,,,,,,,,,,,,,,,,,,,,,,,,,,,,,,,,,,,,,,,,,,,,,,,,,,,,,,,,,,,,,,,,,,,,,,,,,,,,,,,,,,,,,,,,,,,,,,,,,,,,,,,,,,,,,,,,
,,,,,,606aad87b9f57a82dd447d6a,629c51aaa588dbbc11d09dc2,2022-06-05_07h52.21.566,Colour_Asymmetry_Pilot,2022.1.3,Win32,59.93407252,629c4b6caf241d5e6e00bfc0,0,143,143,64,1,onetwo,,,,,,,,,,,,,,,,,,,,,,,,,,,,,,,,,,,,,,,,,,,,,,,,,,,,,,,,,,,,,,,,,,,,,,,,,,,,,,,,,,,,,,,,,,,,,,,,,,,,,,,,,,,,,,,,,,,,,,,,,,,,,,,,,,,,,,,,,,,,,
,,,,,,606aad87b9f57a82dd447d6a,629c51aaa588dbbc11d09dc2,2022-06-05_07h52.21.566,Colour_Asymmetry_Pilot,2022.1.3,Win32,59.93407252,629c4b6caf241d5e6e00bfc0,0,144,144,9,1,onethree,,,,,,,,,,,,,,,,,,,,,,,,,,,,,,,,,,,,,,,,,,,,,,,,,,,,,,,,,,,,,,,,,,,,,,,,,,,,,,,,,,,,,,,,,,,,,,,,,,,,,,,,,,,,,,,,,,,,,,,,,,,,,,,,,,,,,,,,,,,,,
,,,,,,606aad87b9f57a82dd447d6a,629c51aaa588dbbc11d09dc2,2022-06-05_07h52.21.566,Colour_Asymmetry_Pilot,2022.1.3,Win32,59.93407252,629c4b6caf241d5e6e00bfc0,0,145,145,156,1,threeone,,,,,,,,,,,,,,,,,,,,,,,,,,,,,,,,,,,,,,,,,,,,,,,,,,,,,,,,,,,,,,,,,,,,,,,,,,,,,,,,,,,,,,,,,,,,,,,,,,,,,,,,,,,,,,,,,,,,,,,,,,,,,,,,,,,,,,,,,,,,,
,,,,,,606aad87b9f57a82dd447d6a,629c51aaa588dbbc11d09dc2,2022-06-05_07h52.21.566,Colour_Asymmetry_Pilot,2022.1.3,Win32,59.93407252,629c4b6caf241d5e6e00bfc0,0,146,146,73,1,onethree,,,,,,,,,,,,,,,,,,,,,,,,,,,,,,,,,,,,,,,,,,,,,,,,,,,,,,,,,,,,,,,,,,,,,,,,,,,,,,,,,,,,,,,,,,,,,,,,,,,,,,,,,,,,,,,,,,,,,,,,,,,,,,,,,,,,,,,,,,,,,
,,,,,,606aad87b9f57a82dd447d6a,629c51aaa588dbbc11d09dc2,2022-06-05_07h52.21.566,Colour_Asymmetry_Pilot,2022.1.3,Win32,59.93407252,629c4b6caf241d5e6e00bfc0,0,147,147,130,1,twoone,,,,,,,,,,,,,,,,,,,,,,,,,,,,,,,,,,,,,,,,,,,,,,,,,,,,,,,,,,,,,,,,,,,,,,,,,,,,,,,,,,,,,,,,,,,,,,,,,,,,,,,,,,,,,,,,,,,,,,,,,,,,,,,,,,,,,,,,,,,,,
,,,,,,606aad87b9f57a82dd447d6a,629c51aaa588dbbc11d09dc2,2022-06-05_07h52.21.566,Colour_Asymmetry_Pilot,2022.1.3,Win32,59.93407252,629c4b6caf241d5e6e00bfc0,0,148,148,26,1,twoone,,,,,,,,,,,,,,,,,,,,,,,,,,,,,,,,,,,,,,,,,,,,,,,,,,,,,,,,,,,,,,,,,,,,,,,,,,,,,,,,,,,,,,,,,,,,,,,,,,,,,,,,,,,,,,,,,,,,,,,,,,,,,,,,,,,,,,,,,,,,,
,,,,,,606aad87b9f57a82dd447d6a,629c51aaa588dbbc11d09dc2,2022-06-05_07h52.21.566,Colour_Asymmetry_Pilot,2022.1.3,Win32,59.93407252,629c4b6caf241d5e6e00bfc0,0,149,149,4,1,threeone,,,,,,,,,,,,,,,,,,,,,,,,,,,,,,,,,,,,,,,,,,,,,,,,,,,,,,,,,,,,,,,,,,,,,,,,,,,,,,,,,,,,,,,,,,,,,,,,,,,,,,,,,,,,,,,,,,,,,,,,,,,,,,,,,,,,,,,,,,,,,
,,,,,,606aad87b9f57a82dd447d6a,629c51aaa588dbbc11d09dc2,2022-06-05_07h52.21.566,Colour_Asymmetry_Pilot,2022.1.3,Win32,59.93407252,629c4b6caf241d5e6e00bfc0,0,150,150,125,1,threefour,,,,,,,,,,,,,,,,,,,,,,,,,,,,,,,,,,,,,,,,,,,,,,,,,,,,,,,,,,,,,,,,,,,,,,,,,,,,,,,,,,,,,,,,,,,,,,,,,,,,,,,,,,,,,,,,,,,,,,,,,,,,,,,,,,,,,,,,,,,,,
,,,,,,606aad87b9f57a82dd447d6a,629c51aaa588dbbc11d09dc2,2022-06-05_07h52.21.566,Colour_Asymmetry_Pilot,2022.1.3,Win32,59.93407252,629c4b6caf241d5e6e00bfc0,0,151,151,16,1,onetwo,,,,,,,,,,,,,,,,,,,,,,,,,,,,,,,,,,,,,,,,,,,,,,,,,,,,,,,,,,,,,,,,,,,,,,,,,,,,,,,,,,,,,,,,,,,,,,,,,,,,,,,,,,,,,,,,,,,,,,,,,,,,,,,,,,,,,,,,,,,,,
,,,,,,606aad87b9f57a82dd447d6a,629c51aaa588dbbc11d09dc2,2022-06-05_07h52.21.566,Colour_Asymmetry_Pilot,2022.1.3,Win32,59.93407252,629c4b6caf241d5e6e00bfc0,0,152,152,57,1,onethree,,,,,,,,,,,,,,,,,,,,,,,,,,,,,,,,,,,,,,,,,,,,,,,,,,,,,,,,,,,,,,,,,,,,,,,,,,,,,,,,,,,,,,,,,,,,,,,,,,,,,,,,,,,,,,,,,,,,,,,,,,,,,,,,,,,,,,,,,,,,,
,,,,,,606aad87b9f57a82dd447d6a,629c51aaa588dbbc11d09dc2,2022-06-05_07h52.21.566,Colour_Asymmetry_Pilot,2022.1.3,Win32,59.93407252,629c4b6caf241d5e6e00bfc0,0,153,153,27,1,twofour,,,,,,,,,,,,,,,,,,,,,,,,,,,,,,,,,,,,,,,,,,,,,,,,,,,,,,,,,,,,,,,,,,,,,,,,,,,,,,,,,,,,,,,,,,,,,,,,,,,,,,,,,,,,,,,,,,,,,,,,,,,,,,,,,,,,,,,,,,,,,
,,,,,,606aad87b9f57a82dd447d6a,629c51aaa588dbbc11d09dc2,2022-06-05_07h52.21.566,Colour_Asymmetry_Pilot,2022.1.3,Win32,59.93407252,629c4b6caf241d5e6e00bfc0,0,154,154,56,1,onetwo,,,,,,,,,,,,,,,,,,,,,,,,,,,,,,,,,,,,,,,,,,,,,,,,,,,,,,,,,,,,,,,,,,,,,,,,,,,,,,,,,,,,,,,,,,,,,,,,,,,,,,,,,,,,,,,,,,,,,,,,,,,,,,,,,,,,,,,,,,,,,
,,,,,,606aad87b9f57a82dd447d6a,629c51aaa588dbbc11d09dc2,2022-06-05_07h52.21.566,Colour_Asymmetry_Pilot,2022.1.3,Win32,59.93407252,629c4b6caf241d5e6e00bfc0,0,155,155,137,1,onethree,,,,,,,,,,,,,,,,,,,,,,,,,,,,,,,,,,,,,,,,,,,,,,,,,,,,,,,,,,,,,,,,,,,,,,,,,,,,,,,,,,,,,,,,,,,,,,,,,,,,,,,,,,,,,,,,,,,,,,,,,,,,,,,,,,,,,,,,,,,,,
,,,,,,606aad87b9f57a82dd447d6a,629c51aaa588dbbc11d09dc2,2022-06-05_07h52.21.566,Colour_Asymmetry_Pilot,2022.1.3,Win32,59.93407252,629c4b6caf241d5e6e00bfc0,0,156,156,33,1,onethree,,,,,,,,,,,,,,,,,,,,,,,,,,,,,,,,,,,,,,,,,,,,,,,,,,,,,,,,,,,,,,,,,,,,,,,,,,,,,,,,,,,,,,,,,,,,,,,,,,,,,,,,,,,,,,,,,,,,,,,,,,,,,,,,,,,,,,,,,,,,,
,,,,,,606aad87b9f57a82dd447d6a,629c51aaa588dbbc11d09dc2,2022-06-05_07h52.21.566,Colour_Asymmetry_Pilot,2022.1.3,Win32,59.93407252,629c4b6caf241d5e6e00bfc0,0,157,157,158,1,fourtwo,,,,,,,,,,,,,,,,,,,,,,,,,,,,,,,,,,,,,,,,,,,,,,,,,,,,,,,,,,,,,,,,,,,,,,,,,,,,,,,,,,,,,,,,,,,,,,,,,,,,,,,,,,,,,,,,,,,,,,,,,,,,,,,,,,,,,,,,,,,,,
,,,,,,606aad87b9f57a82dd447d6a,629c51aaa588dbbc11d09dc2,2022-06-05_07h52.21.566,Colour_Asymmetry_Pilot,2022.1.3,Win32,59.93407252,629c4b6caf241d5e6e00bfc0,0,158,158,140,1,threeone,,,,,,,,,,,,,,,,,,,,,,,,,,,,,,,,,,,,,,,,,,,,,,,,,,,,,,,,,,,,,,,,,,,,,,,,,,,,,,,,,,,,,,,,,,,,,,,,,,,,,,,,,,,,,,,,,,,,,,,,,,,,,,,,,,,,,,,,,,,,,
,,,,,,606aad87b9f57a82dd447d6a,629c51aaa588dbbc11d09dc2,2022-06-05_07h52.21.566,Colour_Asymmetry_Pilot,2022.1.3,Win32,59.93407252,629c4b6caf241d5e6e00bfc0,0,159,159,78,1,fourtwo,,,,,,,,,,,,,,,,,,,,,,,,,,,,,,,,,,,,,,,,,,,,,,,,,,,,,,,,,,,,,,,,,,,,,,,,,,,,,,,,,,,,,,,,,,,,,,,,,,,,,,,,,,,,,,,,,,,,,,,,,,,,,,,,,,,,,,,,,,,,,
,,,,,,606aad87b9f57a82dd447d6a,629c51aaa588dbbc11d09dc2,2022-06-05_07h52.21.566,Colour_Asymmetry_Pilot,2022.1.3,Win32,59.93407252,629c4b6caf241d5e6e00bfc0,0,160,160,36,1,threeone,,,,,,,,,,,,,,,,,,,,,,,,,,,,,,,,,,,,,,,,,,,,,,,,,,,,,,,,,,,,,,,,,,,,,,,,,,,,,,,,,,,,,,,,,,,,,,,,,,,,,,,,,,,,,,,,,,,,,,,,,,,,,,,,,,,,,,,,,,,,,
,,,,,,606aad87b9f57a82dd447d6a,629c51aaa588dbbc11d09dc2,2022-06-05_07h52.21.566,Colour_Asymmetry_Pilot,2022.1.3,Win32,59.93407252,629c4b6caf241d5e6e00bfc0,0,161,161,8,1,onetwo,,,,,,,,,,,,,,,,,,,,,,,,,,,,,,,,,,,,,,,,,,,,,,,,,,,,,,,,,,,,,,,,,,,,,,,,,,,,,,,,,,,,,,,,,,,,,,,,,,,,,,,,,,,,,,,,,,,,,,,,,,,,,,,,,,,,,,,,,,,,,
,,,,,,606aad87b9f57a82dd447d6a,629c51aaa588dbbc11d09dc2,2022-06-05_07h52.21.566,Colour_Asymmetry_Pilot,2022.1.3,Win32,59.93407252,629c4b6caf241d5e6e00bfc0,,,,,,,space,1.3855,space,10.7625,space,87.5101,space,4.4198,space,1.8849,space,2.8699,"[-0.09019999999999995,0.44300000000000006,0.5371999999999999]",threeone,"[1,0.12939999999999996,-1]",-4,9.1677,-37,81.5,1,0,0,response7disk_5,3.5,-3,1,0,0,rectangle_8,3.5,-3,1,0,0,4,3.5,-3,1,0,0,0,0,0,0,1,,,,,,,,,,,,,,,,,,,,,,,,,,,,,,,,,,,,,,,,,,,,,,,,,,,,,,,,,,,,,,,,,,,,,,,,,,,,,,,,,,,,,,,,,,,,,,,,
,,,,,,606aad87b9f57a82dd447d6a,629c51aaa588dbbc11d09dc2,2022-06-05_07h52.21.566,Colour_Asymmetry_Pilot,2022.1.3,Win32,59.93407252,629c4b6caf241d5e6e00bfc0,,,,,,,,,,,,,,,,,,,"[0.23920000000000008,0.2704,0.16060000000000008]",fourthree,"[0.7018,0.7176,0.6155999999999999]",4,4.1363,41,89,1,0,0,response1disk_5,6,0.5,1,0,0,rectangle_8,31,81.5,1,0,0,4,-5.5,-4,1,0,0,1,0,1,0,1,response1disk_7,7,rectangle_4,,,,,,,,,,,,,,,,,,,,,,,,,,,,,,,,,,,,,,,,,,,,,,,,,,,,,,,,,,,,,,,,,,,,,,,,,,,,,,,,,,,,,,,,,,,,,
,,,,,,606aad87b9f57a82dd447d6a,629c51aaa588dbbc11d09dc2,2022-06-05_07h52.21.566,Colour_Asymmetry_Pilot,2022.1.3,Win32,59.93407252,629c4b6caf241d5e6e00bfc0,,,,,,,,,,,,,,,,,,,"[0.7018,0.7176,0.6155999999999999]",threefour,"[-0.09019999999999995,0.44300000000000006,0.5371999999999999]",-3,6.1544,-76,41.5,1,0,0,response7disk_5,-1,0.5,1,0,0,rectangle_8,-1,0.5,1,0,0,4,-1,0.5,1,0,0,2,0,2,0,1,,,,,,,,,,,,,,,,,,,,,,,,,,,,,,,,,,,,,,,,,,,,,,,,,,,,,,,,,,,,,,,,,,,,,,,,,,,,,,,,,,,,,,,,,,,,,,,,
,,,,,,606aad87b9f57a82dd447d6a,629c51aaa588dbbc11d09dc2,2022-06-05_07h52.21.566,Colour_Asymmetry_Pilot,2022.1.3,Win32,59.93407252,629c4b6caf241d5e6e00bfc0,,,,,,,,,,,,,,,,,,,"[-0.6235999999999999,-0.6786,-0.08239999999999992]",onethree,"[-0.4276,0.0038000000000000256,-0.3256]",-2,3.9028,-69,-38,1,0,0,response5disk_5,-1,-3.5,1,0,0,rectangle_8,-1,-3.5,1,0,0,4,-1,-3.5,1,0,0,3,0,3,0,1,,,,,,,,,,,,,,,,,,,,,,,,,,,,,,,,,,,,,,,,,,,,,,,,,,,,,,,,,,,,,,,,,,,,,,,,,,,,,,,,,,,,,,,,,,,,,,,,
,,,,,,606aad87b9f57a82dd447d6a,629c51aaa588dbbc11d09dc2,2022-06-05_07h52.21.566,Colour_Asymmetry_Pilot,2022.1.3,Win32,59.93407252,629c4b6caf241d5e6e00bfc0,,,,,,,,,,,,,,,,,,,"[-0.4982,-0.2942,-0.0354000000000001]",onethree,"[0.9213999999999998,0.6391999999999998,-0.9922]",-3,1.9183,-72,32.5,1,0,0,response7disk_5,5.5,-1,1,0,0,rectangle_8,5.5,-1,1,0,0,4,5.5,-1,1,0,0,4,0,4,0,1,,,,,,,,,,,,,,,,,,,,,,,,,,,,,,,,,,,,,,,,,,,,,,,,,,,,,,,,,,,,,,,,,,,,,,,,,,,,,,,,,,,,,,,,,,,,,,,,
,,,,,,606aad87b9f57a82dd447d6a,629c51aaa588dbbc11d09dc2,2022-06-05_07h52.21.566,Colour_Asymmetry_Pilot,2022.1.3,Win32,59.93407252,629c4b6caf241d5e6e00bfc0,,,,,,,,,,,,,,,,,,,"[0.22340000000000004,-0.9296,-0.7884]",twoone,"[0.12939999999999996,-0.2864,0.3253999999999999]",-2,2.3514,-75.5,-37.5,1,0,0,response5disk_5,3.5,4.5,1,0,0,rectangle_8,3.5,4.5,1,0,0,4,3.5,4.5,1,0,0,5,0,5,0,1,,,,,,,,,,,,,,,,,,,,,,,,,,,,,,,,,,,,,,,,,,,,,,,,,,,,,,,,,,,,,,,,,,,,,,,,,,,,,,,,,,,,,,,,,,,,,,,,
,,,,,,606aad87b9f57a82dd447d6a,629c51aaa588dbbc11d09dc2,2022-06-05_07h52.21.566,Colour_Asymmetry_Pilot,2022.1.3,Win32,59.93407252,629c4b6caf241d5e6e00bfc0,,,,,,,,,,,,,,,,,,,"[0.9763999999999999,0.8588,-0.05900000000000005]",threeone,"[0.7646000000000002,0.07440000000000002,0.2704]",-2,1.234,-78,-47.5,1,0,0,response5disk_5,-1.5,5.5,1,0,0,rectangle_8,-1.5,5.5,1,0,0,4,-1.5,5.5,1,0,0,6,0,6,0,1,,,,,,,,,,,,,,,,,,,,,,,,,,,,,,,,,,,,,,,,,,,,,,,,,,,,,,,,,,,,,,,,,,,,,,,,,,,,,,,,,,,,,,,,,,,,,,,,
,,,,,,606aad87b9f57a82dd447d6a,629c51aaa588dbbc11d09dc2,2022-06-05_07h52.21.566,Colour_Asymmetry_Pilot,2022.1.3,Win32,59.93407252,629c4b6caf241d5e6e00bfc0,,,,,,,,,,,,,,,,,,,,threefour,,-3,2.7358,,,,,,,,,,,,,,,,,,,,,,,,,,,,,,,,space,3.2309,"[-0.9844,-0.9688,-0.9922]","[-0.48240000000000005,0.3175999999999999,0.2156]",-80,33,1,0,0,response7disk,-5.5,4,1,0,0,rectangle,-5.5,4,1,0,0,,3,0.0038,0,-5.5,4,1,0,0,0,0,0,103,1,22,second,,,,,,,,,,,,,,,,,,,,,,,,,,,,,,,,,,,,,,,,,,,,,,,,,,,,,,,,
,,,,,,606aad87b9f57a82dd447d6a,629c51aaa588dbbc11d09dc2,2022-06-05_07h52.21.566,Colour_Asymmetry_Pilot,2022.1.3,Win32,59.93407252,629c4b6caf241d5e6e00bfc0,,,,,,,,,,,,,,,,,,,,threeone,,3,3.1019,,,,,,,,,,,,,,,,,,,,,,,,,,,,,,,,,,"[0.18419999999999992,-0.4276,-0.404]","[-0.2942,-0.7648,-0.7492000000000001]",75.5,40,1,0,0,response1disk,7,1.5,1,0,0,rectangle,7,1.5,1,0,0,,1,0.0007,0,7,1.5,1,0,0,0,1,1,138,1,57,second,,,,,,,,,,,,,,,,,,,,,,,,,,,,,,,,,,,,,,,,,,,,,,,,,,,,,,,,
,,,,,,606aad87b9f57a82dd447d6a,629c51aaa588dbbc11d09dc2,2022-06-05_07h52.21.566,Colour_Asymmetry_Pilot,2022.1.3,Win32,59.93407252,629c4b6caf241d5e6e00bfc0,,,,,,,,,,,,,,,,,,,,twofour,,-3,1.2507,,,,,,,,,,,,,,,,,,,,,,,,,,,,,,,,,,"[0.9372,0.20779999999999998,0.2704]","[-0.5452,-0.608,0.2470000000000001]",-72.5,28,1,0,0,response7disk,-11,7,1,0,0,rectangle,-11,7,1,0,0,,3,0.002,0,-11,7,1,0,0,0,2,2,157,1,76,second,,,,,,,,,,,,,,,,,,,,,,,,,,,,,,,,,,,,,,,,,,,,,,,,,,,,,,,,
,,,,,,606aad87b9f57a82dd447d6a,629c51aaa588dbbc11d09dc2,2022-06-05_07h52.21.566,Colour_Asymmetry_Pilot,2022.1.3,Win32,59.93407252,629c4b6caf241d5e6e00bfc0,,,,,,,,,,,,,,,,,,,,threeone,,-4,0.9506,,,,,,,,,,,,,,,,,,,,,,,,,,,,,,,,,,"[-0.5922000000000001,-0.7492000000000001,-0.5296000000000001]","[0.34099999999999997,0.5841999999999998,-0.9844]",-47.5,81,1,0,0,response7disk,-10.5,2,1,0,0,rectangle,-10.5,2,1,0,0,,3,0.0003,0,-10.5,2,1,0,0,0,3,3,110,1,29,second,,,,,,,,,,,,,,,,,,,,,,,,,,,,,,,,,,,,,,,,,,,,,,,,,,,,,,,,
,,,,,,606aad87b9f57a82dd447d6a,629c51aaa588dbbc11d09dc2,2022-06-05_07h52.21.566,Colour_Asymmetry_Pilot,2022.1.3,Win32,59.93407252,629c4b6caf241d5e6e00bfc0,,,,,,,,,,,,,,,,,,,,threefour,,2,4.1027,,,,,,,,,,,,,,,,,,,,,,,,,,,,,,,,,,"[0.5528,0.7409999999999999,-0.71]","[0.9763999999999999,0.30979999999999985,-0.6786]",87.5,-23.5,1,0,0,response3disk,12,3.5,1,0,0,rectangle,12,3.5,1,0,0,,1,0.0008,0,12,3.5,1,0,0,0,4,4,115,1,34,second,,,,,,,,,,,,,,,,,,,,,,,,,,,,,,,,,,,,,,,,,,,,,,,,,,,,,,,,
,,,,,,606aad87b9f57a82dd447d6a,629c51aaa588dbbc11d09dc2,2022-06-05_07h52.21.566,Colour_Asymmetry_Pilot,2022.1.3,Win32,59.93407252,629c4b6caf241d5e6e00bfc0,,,,,,,,,,,,,,,,,,,,threefour,,1,1.6178,,,,,,,,,,,,,,,,,,,,,,,,,,,,,,,,,,"[-0.10599999999999998,-0.15300000000000002,0.15280000000000005]","[-0.9296,-0.12959999999999994,-0.043199999999999905]",42,-73.5,1,0,0,response3disk,4,8,1,0,0,rectangle,4,8,1,0,0,,1,0.0003,0,4,8,1,0,0,0,5,5,23,1,23,first,,,,,,,,,,,,,,,,,,,,,,,,,,,,,,,,,,,,,,,,,,,,,,,,,,,,,,,,
,,,,,,606aad87b9f57a82dd447d6a,629c51aaa588dbbc11d09dc2,2022-06-05_07h52.21.566,Colour_Asymmetry_Pilot,2022.1.3,Win32,59.93407252,629c4b6caf241d5e6e00bfc0,,,,,,,,,,,,,,,,,,,,onethree,,-2,5.1862,,,,,,,,,,,,,,,,,,,,,,,,,,,,,,,,,,"[-0.26280000000000003,-0.4746,-0.2158]","[-0.9844,-0.9688,-0.9922]",-65,-43,1,0,0,response5disk,-3.5,3.5,1,0,0,rectangle,-3.5,3.5,1,0,0,,1,0.0003,0,-3.5,3.5,1,0,0,0,6,6,7,1,7,first,,,,,,,,,,,,,,,,,,,,,,,,,,,,,,,,,,,,,,,,,,,,,,,,,,,,,,,,
,,,,,,606aad87b9f57a82dd447d6a,629c51aaa588dbbc11d09dc2,2022-06-05_07h52.21.566,Colour_Asymmetry_Pilot,2022.1.3,Win32,59.93407252,629c4b6caf241d5e6e00bfc0,,,,,,,,,,,,,,,,,,,,fourthree,,-1,2.1019,,,,,,,,,,,,,,,,,,,,,,,,,,,,,,,,,,"[0.19199999999999995,0.18419999999999992,0.5136000000000001]","[-0.4982,-0.2942,-0.0354000000000001]",-36,-54,1,0,0,response5disk,-5.5,-4.5,1,0,0,rectangle,-5.5,-4.5,1,0,0,,2,0.0012,0,-5.5,-4.5,1,0,0,0,7,7,13,1,13,first,,,,,,,,,,,,,,,,,,,,,,,,,,,,,,,,,,,,,,,,,,,,,,,,,,,,,,,,
,,,,,,606aad87b9f57a82dd447d6a,629c51aaa588dbbc11d09dc2,2022-06-05_07h52.21.566,Colour_Asymmetry_Pilot,2022.1.3,Win32,59.93407252,629c4b6caf241d5e6e00bfc0,,,,,,,,,,,,,,,,,,,,fourtwo,,-3,1.5512,,,,,,,,,,,,,,,,,,,,,,,,,,,,,,,,,,"[-0.24719999999999998,0.5213999999999999,-0.12959999999999994]","[0.37240000000000006,-0.050999999999999934,-0.5216]",-79.5,25,1,0,0,response7disk,-3.5,4.5,1,0,0,rectangle,-3.5,4.5,1,0,0,,1,0.002,0,-3.5,4.5,1,0,0,0,8,8,44,1,44,first,,,,,,,,,,,,,,,,,,,,,,,,,,,,,,,,,,,,,,,,,,,,,,,,,,,,,,,,
,,,,,,606aad87b9f57a82dd447d6a,629c51aaa588dbbc11d09dc2,2022-06-05_07h52.21.566,Colour_Asymmetry_Pilot,2022.1.3,Win32,59.93407252,629c4b6caf241d5e6e00bfc0,,,,,,,,,,,,,,,,,,,,fourthree,,-2,2.2021,,,,,,,,,,,,,,,,,,,,,,,,,,,,,,,,,,"[-0.48240000000000005,0.3175999999999999,0.2156]","[-0.8198,-0.5138,-0.7492000000000001]",-93.5,-50,1,0,0,response5disk,-12,2.5,1,0,0,rectangle,-12,2.5,1,0,0,,3,0.002,0,-12,2.5,1,0,0,0,9,9,47,1,47,first,,,,,,,,,,,,,,,,,,,,,,,,,,,,,,,,,,,,,,,,,,,,,,,,,,,,,,,,
,,,,,,606aad87b9f57a82dd447d6a,629c51aaa588dbbc11d09dc2,2022-06-05_07h52.21.566,Colour_Asymmetry_Pilot,2022.1.3,Win32,59.93407252,629c4b6caf241d5e6e00bfc0,,,,,,,,,,,,,,,,,,,,threefour,,-2,0.8179,,,,,,,,,,,,,,,,,,,,,,,,,,,,,,,,,,"[0.04299999999999993,0.16060000000000008,-0.6628000000000001]","[-0.9688,-0.38039999999999996,-0.41979999999999995]",-81,-39,1,0,0,response5disk,0.5,-4,1,0,0,rectangle,0.5,-4,1,0,0,,2,0.0019,0,0.5,-4,1,0,0,0,10,10,48,1,48,first,,,,,,,,,,,,,,,,,,,,,,,,,,,,,,,,,,,,,,,,,,,,,,,,,,,,,,,,
,,,,,,606aad87b9f57a82dd447d6a,629c51aaa588dbbc11d09dc2,2022-06-05_07h52.21.566,Colour_Asymmetry_Pilot,2022.1.3,Win32,59.93407252,629c4b6caf241d5e6e00bfc0,,,,,,,,,,,,,,,,,,,,threefour,,-2,2.0514,,,,,,,,,,,,,,,,,,,,,,,,,,,,,,,,,,"[0.9372,0.9450000000000001,0.8980000000000001]","[-0.09019999999999995,0.44300000000000006,0.5371999999999999]",-68.5,-34.5,1,0,0,response5disk,-4,-1.5,1,0,0,rectangle,-4,-1.5,1,0,0,,3,0.0011,0,-4,-1.5,1,0,0,0,11,11,141,1,60,second,,,,,,,,,,,,,,,,,,,,,,,,,,,,,,,,,,,,,,,,,,,,,,,,,,,,,,,,
,,,,,,606aad87b9f57a82dd447d6a,629c51aaa588dbbc11d09dc2,2022-06-05_07h52.21.566,Colour_Asymmetry_Pilot,2022.1.3,Win32,59.93407252,629c4b6caf241d5e6e00bfc0,,,,,,,,,,,,,,,,,,,,onetwo,,-2,3.1201,,,,,,,,,,,,,,,,,,,,,,,,,,,,,,,,,,"[0.37240000000000006,-0.050999999999999934,-0.5216]","[-0.050999999999999934,-0.6706000000000001,-0.804]",-102,-29,1,0,0,response5disk,6,8,1,0,0,rectangle,6,8,1,0,0,,1,0.0015,0,6,8,1,0,0,0,12,12,67,1,67,first,,,,,,,,,,,,,,,,,,,,,,,,,,,,,,,,,,,,,,,,,,,,,,,,,,,,,,,,
,,,,,,606aad87b9f57a82dd447d6a,629c51aaa588dbbc11d09dc2,2022-06-05_07h52.21.566,Colour_Asymmetry_Pilot,2022.1.3,Win32,59.93407252,629c4b6caf241d5e6e00bfc0,,,,,,,,,,,,,,,,,,,,onethree,,-3,1.6512,,,,,,,,,,,,,,,,,,,,,,,,,,,,,,,,,,"[-0.2942,-0.7648,-0.7492000000000001]","[-0.2942,-0.24719999999999998,-0.357]",-83,29,1,0,0,response7disk,0,-3.5,1,0,0,rectangle,0,-3.5,1,0,0,,3,0.0008,0,0,-3.5,1,0,0,0,13,13,49,1,49,first,,,,,,,,,,,,,,,,,,,,,,,,,,,,,,,,,,,,,,,,,,,,,,,,,,,,,,,,
,,,,,,606aad87b9f57a82dd447d6a,629c51aaa588dbbc11d09dc2,2022-06-05_07h52.21.566,Colour_Asymmetry_Pilot,2022.1.3,Win32,59.93407252,629c4b6caf241d5e6e00bfc0,,,,,,,,,,,,,,,,,,,,twofour,,-1,0.9339,,,,,,,,,,,,,,,,,,,,,,,,,,,,,,,,,,"[-0.2942,-0.24719999999999998,-0.357]","[-0.17659999999999998,-0.2864,-0.8354]",-30.5,-63,1,0,0,response5disk,1,3,1,0,0,rectangle,1,3,1,0,0,,2,0.0013,0,1,3,1,0,0,0,14,14,45,1,45,first,,,,,,,,,,,,,,,,,,,,,,,,,,,,,,,,,,,,,,,,,,,,,,,,,,,,,,,,
,,,,,,606aad87b9f57a82dd447d6a,629c51aaa588dbbc11d09dc2,2022-06-05_07h52.21.566,Colour_Asymmetry_Pilot,2022.1.3,Win32,59.93407252,629c4b6caf241d5e6e00bfc0,,,,,,,,,,,,,,,,,,,,threeone,,2,1.3342,,,,,,,,,,,,,,,,,,,,,,,,,,,,,,,,,,"[-0.9688,-0.38039999999999996,-0.41979999999999995]","[-0.5688,-0.08239999999999992,-0.1844]",80.5,-28.5,1,0,0,response3disk,-1.5,8.5,1,0,0,rectangle,-1.5,8.5,1,0,0,,3,0.0012,0,-1.5,8.5,1,0,0,0,15,15,82,1,1,second,,,,,,,,,,,,,,,,,,,,,,,,,,,,,,,,,,,,,,,,,,,,,,,,,,,,,,,,
,,,,,,606aad87b9f57a82dd447d6a,629c51aaa588dbbc11d09dc2,2022-06-05_07h52.21.566,Colour_Asymmetry_Pilot,2022.1.3,Win32,59.93407252,629c4b6caf241d5e6e00bfc0,,,,,,,,,,,,,,,,,,,,threeone,,-1,1.2509,,,,,,,,,,,,,,,,,,,,,,,,,,,,,,,,,,"[-0.050999999999999934,-0.6706000000000001,-0.804]","[0.37240000000000006,-0.050999999999999934,-0.5216]",-29,-79.5,1,0,0,response5disk,8.5,10.5,1,0,0,rectangle,8.5,10.5,1,0,0,,3,0.0002,0,8.5,10.5,1,0,0,0,16,16,148,1,67,second,,,,,,,,,,,,,,,,,,,,,,,,,,,,,,,,,,,,,,,,,,,,,,,,,,,,,,,,
,,,,,,606aad87b9f57a82dd447d6a,629c51aaa588dbbc11d09dc2,2022-06-05_07h52.21.566,Colour_Asymmetry_Pilot,2022.1.3,Win32,59.93407252,629c4b6caf241d5e6e00bfc0,,,,,,,,,,,,,,,,,,,,twoone,,-3,0.8674,,,,,,,,,,,,,,,,,,,,,,,,,,,,,,,,,,"[0.8274000000000001,-0.5844,-0.9452]","[0.9213999999999998,0.6391999999999998,-0.9922]",-65,26.5,1,0,0,response7disk,-4.5,3,1,0,0,rectangle,-4.5,3,1,0,0,,2,0.0008,0,-4.5,3,1,0,0,0,17,17,39,1,39,first,,,,,,,,,,,,,,,,,,,,,,,,,,,,,,,,,,,,,,,,,,,,,,,,,,,,,,,,
,,,,,,606aad87b9f57a82dd447d6a,629c51aaa588dbbc11d09dc2,2022-06-05_07h52.21.566,Colour_Asymmetry_Pilot,2022.1.3,Win32,59.93407252,629c4b6caf241d5e6e00bfc0,,,,,,,,,,,,,,,,,,,,threeone,,-2,27.4021,,,,,,,,,,,,,,,,,,,,,,,,,,,,,,,,,,"[-0.0040000000000000036,0.02739999999999987,-0.08239999999999992]","[-0.5452,-0.608,0.2470000000000001]",-71,-30,1,0,0,response5disk,3.5,-2,1,0,0,rectangle,3.5,-2,1,0,0,,2,9.99999E-05,0,3.5,-2,1,0,0,0,18,18,145,1,64,second,,,,,,,,,,,,,,,,,,,,,,,,,,,,,,,,,,,,,,,,,,,,,,,,,,,,,,,,
,,,,,,606aad87b9f57a82dd447d6a,629c51aaa588dbbc11d09dc2,2022-06-05_07h52.21.566,Colour_Asymmetry_Pilot,2022.1.3,Win32,59.93407252,629c4b6caf241d5e6e00bfc0,,,,,,,,,,,,,,,,,,,,fourtwo,,2,3.0189,,,,,,,,,,,,,,,,,,,,,,,,,,,,,,,,,,"[-0.5688,-0.08239999999999992,-0.1844]","[-0.9688,-0.38039999999999996,-0.41979999999999995]",82.5,-43,1,0,0,response3disk,4,1.5,1,0,0,rectangle,4,1.5,1,0,0,,3,0.0012,0,4,1.5,1,0,0,0,19,19,1,1,1,first,,,,,,,,,,,,,,,,,,,,,,,,,,,,,,,,,,,,,,,,,,,,,,,,,,,,,,,,
,,,,,,606aad87b9f57a82dd447d6a,629c51aaa588dbbc11d09dc2,2022-06-05_07h52.21.566,Colour_Asymmetry_Pilot,2022.1.3,Win32,59.93407252,629c4b6caf241d5e6e00bfc0,,,,,,,,,,,,,,,,,,,,threeone,,4,1.2174,,,,,,,,,,,,,,,,,,,,,,,,,,,,,,,,,,"[0.09799999999999986,-0.24719999999999998,0.15280000000000005]","[0.09799999999999986,-0.24719999999999998,0.15280000000000005]",42,103,1,0,0,response1disk,1.5,4,1,0,0,rectangle,1.5,4,1,0,0,,3,0.0002,0,1.5,4,1,0,0,0,20,20,38,1,38,first,,,,,,,,,,,,,,,,,,,,,,,,,,,,,,,,,,,,,,,,,,,,,,,,,,,,,,,,
,,,,,,606aad87b9f57a82dd447d6a,629c51aaa588dbbc11d09dc2,2022-06-05_07h52.21.566,Colour_Asymmetry_Pilot,2022.1.3,Win32,59.93407252,629c4b6caf241d5e6e00bfc0,,,,,,,,,,,,,,,,,,,,threeone,,-3,1.4344,,,,,,,,,,,,,,,,,,,,,,,,,,,,,,,,,,"[0.7018,0.7802,-0.16079999999999994]","[0.19199999999999995,0.18419999999999992,0.5136000000000001]",-74.5,34.5,1,0,0,response7disk,15,-1,1,0,0,rectangle,15,-1,1,0,0,,1,0.0019,0,15,-1,1,0,0,0,21,21,107,1,26,second,,,,,,,,,,,,,,,,,,,,,,,,,,,,,,,,,,,,,,,,,,,,,,,,,,,,,,,,
,,,,,,606aad87b9f57a82dd447d6a,629c51aaa588dbbc11d09dc2,2022-06-05_07h52.21.566,Colour_Asymmetry_Pilot,2022.1.3,Win32,59.93407252,629c4b6caf241d5e6e00bfc0,,,,,,,,,,,,,,,,,,,,twoone,,-4,1.151,,,,,,,,,,,,,,,,,,,,,,,,,,,,,,,,,,"[0.9763999999999999,0.30979999999999985,-0.6786]","[-0.26280000000000003,-0.4746,-0.2158]",-41,58,1,0,0,response7disk,-16.5,4,1,0,0,rectangle,55,-93,1,0,0,1,1,4.0374,1,3,11,1,0,0,0,22,22,55,1,55,first,response3disk_3,rectangle,,,,,,,,,,,,,,,,,,,,,,,,,,,,,,,,,,,,,,,,,,,,,,,,,,,,,,
,,,,,,606aad87b9f57a82dd447d6a,629c51aaa588dbbc11d09dc2,2022-06-05_07h52.21.566,Colour_Asymmetry_Pilot,2022.1.3,Win32,59.93407252,629c4b6caf241d5e6e00bfc0,,,,,,,,,,,,,,,,,,,,twoone,,-3,2.6019,,,,,,,,,,,,,,,,,,,,,,,,,,,,,,,,,,"[1,0.12939999999999996,-1]","[-0.011800000000000033,-0.906,-0.45100000000000007]",-90,57.5,1,0,0,response7disk,-8,-2,1,0,0,rectangle,-8,-2,1,0,0,1,1,9.99999E-05,0,-8,-2,1,0,0,0,23,23,109,1,28,second,,,,,,,,,,,,,,,,,,,,,,,,,,,,,,,,,,,,,,,,,,,,,,,,,,,,,,,,
,,,,,,606aad87b9f57a82dd447d6a,629c51aaa588dbbc11d09dc2,2022-06-05_07h52.21.566,Colour_Asymmetry_Pilot,2022.1.3,Win32,59.93407252,629c4b6caf241d5e6e00bfc0,,,,,,,,,,,,,,,,,,,,onetwo,,3,0.9675,,,,,,,,,,,,,,,,,,,,,,,,,,,,,,,,,,"[0.2862,0.7802,0.3568]","[0.0351999999999999,0.41159999999999997,0.0038000000000000256]",95.5,55,1,0,0,response1disk,4,1.5,1,0,0,rectangle,4,1.5,1,0,0,1,3,0.0014,0,4,1.5,1,0,0,0,24,24,149,1,68,second,,,,,,,,,,,,,,,,,,,,,,,,,,,,,,,,,,,,,,,,,,,,,,,,,,,,,,,,
,,,,,,606aad87b9f57a82dd447d6a,629c51aaa588dbbc11d09dc2,2022-06-05_07h52.21.566,Colour_Asymmetry_Pilot,2022.1.3,Win32,59.93407252,629c4b6caf241d5e6e00bfc0,,,,,,,,,,,,,,,,,,,,threeone,,1,1.3173,,,,,,,,,,,,,,,,,,,,,,,,,,,,,,,,,,"[-0.9688,-0.4902000000000001,-0.12159999999999993]","[-0.6706000000000001,-0.6157999999999999,-0.6786]",40,-84,1,0,0,response3disk,3.5,-0.5,1,0,0,rectangle,3.5,-0.5,1,0,0,1,3,0.0002,0,3.5,-0.5,1,0,0,0,25,25,73,1,73,first,,,,,,,,,,,,,,,,,,,,,,,,,,,,,,,,,,,,,,,,,,,,,,,,,,,,,,,,
,,,,,,606aad87b9f57a82dd447d6a,629c51aaa588dbbc11d09dc2,2022-06-05_07h52.21.566,Colour_Asymmetry_Pilot,2022.1.3,Win32,59.93407252,629c4b6caf241d5e6e00bfc0,,,,,,,,,,,,,,,,,,,,threefour,,-3,0.9171,,,,,,,,,,,,,,,,,,,,,,,,,,,,,,,,,,"[-0.10599999999999998,-0.10599999999999998,0.5841999999999998]","[0.18419999999999992,-0.4276,-0.404]",-84,49.5,1,0,0,response7disk,-6,4.5,1,0,0,rectangle,85.5,45,1,0,0,3,3,2.3685,1,8.5,2,1,0,0,0,26,26,160,1,79,second,response1disk_3,rectangle,,,,,,,,,,,,,,,,,,,,,,,,,,,,,,,,,,,,,,,,,,,,,,,,,,,,,,
