trials.thisRepN,trials.thisTrialN,trials.thisN,trials.thisIndex,trials.ran,Colourcodes,participant,session,date,expName,psychopyVersion,OS,frameRate,study_id,trials_4.thisRepN,trials_4.thisTrialN,trials_4.thisN,trials_4.thisIndex,trials_4.ran,StimulusPos,key_resp.keys,key_resp.rt,key_resp_2.keys,key_resp_2.rt,key_resp_15.keys,key_resp_15.rt,key_resp_17.keys,key_resp_17.rt,key_resp_9.keys,key_resp_9.rt,key_resp_10.keys,key_resp_10.rt,Circle1_col,Ecc,Circle2_col,similarity,response_time,mouse_5.x,mouse_5.y,mouse_5.leftButton,mouse_5.midButton,mouse_5.rightButton,mouse_5.clicked_name,mouse_10.x,mouse_10.y,mouse_10.leftButton,mouse_10.midButton,mouse_10.rightButton,mouse_10.clicked_name,mouse_7.x,mouse_7.y,mouse_7.leftButton,mouse_7.midButton,mouse_7.rightButton,catchnumberprac,mouse_6.x,mouse_6.y,mouse_6.leftButton,mouse_6.midButton,mouse_6.rightButton,duringprac.thisRepN,duringprac.thisTrialN,duringprac.thisN,duringprac.thisIndex,duringprac.ran,mouse_7.clicked_name,catchprac,mouse_6.clicked_name,key_resp_22.keys,key_resp_22.rt,Circle1_colour,Circle2_colour,mouse.x,mouse.y,mouse.leftButton,mouse.midButton,mouse.rightButton,mouse.clicked_name,mouse_2.x,mouse_2.y,mouse_2.leftButton,mouse_2.midButton,mouse_2.rightButton,mouse_2.clicked_name,mouse_3.x,mouse_3.y,mouse_3.leftButton,mouse_3.midButton,mouse_3.rightButton,catchresponse,catchnumber,response_time_catch,Catch,mouse_11.x,mouse_11.y,mouse_11.leftButton,mouse_11.midButton,mouse_11.rightButton,trials_2.thisRepN,trials_2.thisTrialN,trials_2.thisN,trials_2.thisIndex,trials_2.ran,Colourpair,Temporder,mouse_3.clicked_name,mouse_11.clicked_name,trials_3.thisRepN,trials_3.thisTrialN,trials_3.thisN,trials_3.thisIndex,trials_3.ran,textbox.text,mouse_4.x,mouse_4.y,mouse_4.leftButton,mouse_4.midButton,mouse_4.rightButton,mouse_4.clicked_name,textbox_2.text,mouse_8.x,mouse_8.y,mouse_8.leftButton,mouse_8.midButton,mouse_8.rightButton,mouse_8.clicked_name,textbox_3.text,mouse_9.x,mouse_9.y,mouse_9.leftButton,mouse_9.midButton,mouse_9.rightButton,mouse_9.clicked_name,textbox_4.text,mouse_12.x,mouse_12.y,mouse_12.leftButton,mouse_12.midButton,mouse_12.rightButton,mouse_12.clicked_name,textbox_5.text,mouse_13.x,mouse_13.y,mouse_13.leftButton,mouse_13.midButton,mouse_13.rightButton,mouse_13.clicked_name,textbox_6.text,mouse_14.x,mouse_14.y,mouse_14.leftButton,mouse_14.midButton,mouse_14.rightButton,mouse_14.clicked_name,textbox_7.text,mouse_15.x,mouse_15.y,mouse_15.leftButton,mouse_15.midButton,mouse_15.rightButton,mouse_15.clicked_name
0,0,0,43,1,,5c74d6a50b33c80001323744,629c51d4aaa8d2d26b4b2abb,2022-06-05_08h49.42.711,Colour_Asymmetry_Pilot,2022.1.3,Win32,30.16136329,629c4b6caf241d5e6e00bfc0,,,,,,,,,,,,,,,,,,,,,,,,,,,,,,,,,,,,,,,,,,,,,,,,,,,,,,,,,,,,,,,,,,,,,,,,,,,,,,,,,,,,,,,,,,,,,,,,,,,,,,,,,,,,,,,,,,,,,,,,,,,,,,,,,,,,,,,,,,,,,,,,,,,
0,1,1,51,1,,5c74d6a50b33c80001323744,629c51d4aaa8d2d26b4b2abb,2022-06-05_08h49.42.711,Colour_Asymmetry_Pilot,2022.1.3,Win32,30.16136329,629c4b6caf241d5e6e00bfc0,,,,,,,,,,,,,,,,,,,,,,,,,,,,,,,,,,,,,,,,,,,,,,,,,,,,,,,,,,,,,,,,,,,,,,,,,,,,,,,,,,,,,,,,,,,,,,,,,,,,,,,,,,,,,,,,,,,,,,,,,,,,,,,,,,,,,,,,,,,,,,,,,,,
0,2,2,13,1,,5c74d6a50b33c80001323744,629c51d4aaa8d2d26b4b2abb,2022-06-05_08h49.42.711,Colour_Asymmetry_Pilot,2022.1.3,Win32,30.16136329,629c4b6caf241d5e6e00bfc0,,,,,,,,,,,,,,,,,,,,,,,,,,,,,,,,,,,,,,,,,,,,,,,,,,,,,,,,,,,,,,,,,,,,,,,,,,,,,,,,,,,,,,,,,,,,,,,,,,,,,,,,,,,,,,,,,,,,,,,,,,,,,,,,,,,,,,,,,,,,,,,,,,,
0,3,3,64,1,,5c74d6a50b33c80001323744,629c51d4aaa8d2d26b4b2abb,2022-06-05_08h49.42.711,Colour_Asymmetry_Pilot,2022.1.3,Win32,30.16136329,629c4b6caf241d5e6e00bfc0,,,,,,,,,,,,,,,,,,,,,,,,,,,,,,,,,,,,,,,,,,,,,,,,,,,,,,,,,,,,,,,,,,,,,,,,,,,,,,,,,,,,,,,,,,,,,,,,,,,,,,,,,,,,,,,,,,,,,,,,,,,,,,,,,,,,,,,,,,,,,,,,,,,
0,4,4,55,1,,5c74d6a50b33c80001323744,629c51d4aaa8d2d26b4b2abb,2022-06-05_08h49.42.711,Colour_Asymmetry_Pilot,2022.1.3,Win32,30.16136329,629c4b6caf241d5e6e00bfc0,,,,,,,,,,,,,,,,,,,,,,,,,,,,,,,,,,,,,,,,,,,,,,,,,,,,,,,,,,,,,,,,,,,,,,,,,,,,,,,,,,,,,,,,,,,,,,,,,,,,,,,,,,,,,,,,,,,,,,,,,,,,,,,,,,,,,,,,,,,,,,,,,,,
0,5,5,70,1,,5c74d6a50b33c80001323744,629c51d4aaa8d2d26b4b2abb,2022-06-05_08h49.42.711,Colour_Asymmetry_Pilot,2022.1.3,Win32,30.16136329,629c4b6caf241d5e6e00bfc0,,,,,,,,,,,,,,,,,,,,,,,,,,,,,,,,,,,,,,,,,,,,,,,,,,,,,,,,,,,,,,,,,,,,,,,,,,,,,,,,,,,,,,,,,,,,,,,,,,,,,,,,,,,,,,,,,,,,,,,,,,,,,,,,,,,,,,,,,,,,,,,,,,,
0,6,6,39,1,,5c74d6a50b33c80001323744,629c51d4aaa8d2d26b4b2abb,2022-06-05_08h49.42.711,Colour_Asymmetry_Pilot,2022.1.3,Win32,30.16136329,629c4b6caf241d5e6e00bfc0,,,,,,,,,,,,,,,,,,,,,,,,,,,,,,,,,,,,,,,,,,,,,,,,,,,,,,,,,,,,,,,,,,,,,,,,,,,,,,,,,,,,,,,,,,,,,,,,,,,,,,,,,,,,,,,,,,,,,,,,,,,,,,,,,,,,,,,,,,,,,,,,,,,
0,7,7,7,1,,5c74d6a50b33c80001323744,629c51d4aaa8d2d26b4b2abb,2022-06-05_08h49.42.711,Colour_Asymmetry_Pilot,2022.1.3,Win32,30.16136329,629c4b6caf241d5e6e00bfc0,,,,,,,,,,,,,,,,,,,,,,,,,,,,,,,,,,,,,,,,,,,,,,,,,,,,,,,,,,,,,,,,,,,,,,,,,,,,,,,,,,,,,,,,,,,,,,,,,,,,,,,,,,,,,,,,,,,,,,,,,,,,,,,,,,,,,,,,,,,,,,,,,,,
0,8,8,44,1,,5c74d6a50b33c80001323744,629c51d4aaa8d2d26b4b2abb,2022-06-05_08h49.42.711,Colour_Asymmetry_Pilot,2022.1.3,Win32,30.16136329,629c4b6caf241d5e6e00bfc0,,,,,,,,,,,,,,,,,,,,,,,,,,,,,,,,,,,,,,,,,,,,,,,,,,,,,,,,,,,,,,,,,,,,,,,,,,,,,,,,,,,,,,,,,,,,,,,,,,,,,,,,,,,,,,,,,,,,,,,,,,,,,,,,,,,,,,,,,,,,,,,,,,,
0,9,9,26,1,,5c74d6a50b33c80001323744,629c51d4aaa8d2d26b4b2abb,2022-06-05_08h49.42.711,Colour_Asymmetry_Pilot,2022.1.3,Win32,30.16136329,629c4b6caf241d5e6e00bfc0,,,,,,,,,,,,,,,,,,,,,,,,,,,,,,,,,,,,,,,,,,,,,,,,,,,,,,,,,,,,,,,,,,,,,,,,,,,,,,,,,,,,,,,,,,,,,,,,,,,,,,,,,,,,,,,,,,,,,,,,,,,,,,,,,,,,,,,,,,,,,,,,,,,
0,10,10,45,1,,5c74d6a50b33c80001323744,629c51d4aaa8d2d26b4b2abb,2022-06-05_08h49.42.711,Colour_Asymmetry_Pilot,2022.1.3,Win32,30.16136329,629c4b6caf241d5e6e00bfc0,,,,,,,,,,,,,,,,,,,,,,,,,,,,,,,,,,,,,,,,,,,,,,,,,,,,,,,,,,,,,,,,,,,,,,,,,,,,,,,,,,,,,,,,,,,,,,,,,,,,,,,,,,,,,,,,,,,,,,,,,,,,,,,,,,,,,,,,,,,,,,,,,,,
0,11,11,87,1,,5c74d6a50b33c80001323744,629c51d4aaa8d2d26b4b2abb,2022-06-05_08h49.42.711,Colour_Asymmetry_Pilot,2022.1.3,Win32,30.16136329,629c4b6caf241d5e6e00bfc0,,,,,,,,,,,,,,,,,,,,,,,,,,,,,,,,,,,,,,,,,,,,,,,,,,,,,,,,,,,,,,,,,,,,,,,,,,,,,,,,,,,,,,,,,,,,,,,,,,,,,,,,,,,,,,,,,,,,,,,,,,,,,,,,,,,,,,,,,,,,,,,,,,,
0,12,12,32,1,,5c74d6a50b33c80001323744,629c51d4aaa8d2d26b4b2abb,2022-06-05_08h49.42.711,Colour_Asymmetry_Pilot,2022.1.3,Win32,30.16136329,629c4b6caf241d5e6e00bfc0,,,,,,,,,,,,,,,,,,,,,,,,,,,,,,,,,,,,,,,,,,,,,,,,,,,,,,,,,,,,,,,,,,,,,,,,,,,,,,,,,,,,,,,,,,,,,,,,,,,,,,,,,,,,,,,,,,,,,,,,,,,,,,,,,,,,,,,,,,,,,,,,,,,
0,13,13,16,1,,5c74d6a50b33c80001323744,629c51d4aaa8d2d26b4b2abb,2022-06-05_08h49.42.711,Colour_Asymmetry_Pilot,2022.1.3,Win32,30.16136329,629c4b6caf241d5e6e00bfc0,,,,,,,,,,,,,,,,,,,,,,,,,,,,,,,,,,,,,,,,,,,,,,,,,,,,,,,,,,,,,,,,,,,,,,,,,,,,,,,,,,,,,,,,,,,,,,,,,,,,,,,,,,,,,,,,,,,,,,,,,,,,,,,,,,,,,,,,,,,,,,,,,,,
0,14,14,34,1,,5c74d6a50b33c80001323744,629c51d4aaa8d2d26b4b2abb,2022-06-05_08h49.42.711,Colour_Asymmetry_Pilot,2022.1.3,Win32,30.16136329,629c4b6caf241d5e6e00bfc0,,,,,,,,,,,,,,,,,,,,,,,,,,,,,,,,,,,,,,,,,,,,,,,,,,,,,,,,,,,,,,,,,,,,,,,,,,,,,,,,,,,,,,,,,,,,,,,,,,,,,,,,,,,,,,,,,,,,,,,,,,,,,,,,,,,,,,,,,,,,,,,,,,,
0,15,15,22,1,,5c74d6a50b33c80001323744,629c51d4aaa8d2d26b4b2abb,2022-06-05_08h49.42.711,Colour_Asymmetry_Pilot,2022.1.3,Win32,30.16136329,629c4b6caf241d5e6e00bfc0,,,,,,,,,,,,,,,,,,,,,,,,,,,,,,,,,,,,,,,,,,,,,,,,,,,,,,,,,,,,,,,,,,,,,,,,,,,,,,,,,,,,,,,,,,,,,,,,,,,,,,,,,,,,,,,,,,,,,,,,,,,,,,,,,,,,,,,,,,,,,,,,,,,
0,16,16,11,1,,5c74d6a50b33c80001323744,629c51d4aaa8d2d26b4b2abb,2022-06-05_08h49.42.711,Colour_Asymmetry_Pilot,2022.1.3,Win32,30.16136329,629c4b6caf241d5e6e00bfc0,,,,,,,,,,,,,,,,,,,,,,,,,,,,,,,,,,,,,,,,,,,,,,,,,,,,,,,,,,,,,,,,,,,,,,,,,,,,,,,,,,,,,,,,,,,,,,,,,,,,,,,,,,,,,,,,,,,,,,,,,,,,,,,,,,,,,,,,,,,,,,,,,,,
0,17,17,9,1,,5c74d6a50b33c80001323744,629c51d4aaa8d2d26b4b2abb,2022-06-05_08h49.42.711,Colour_Asymmetry_Pilot,2022.1.3,Win32,30.16136329,629c4b6caf241d5e6e00bfc0,,,,,,,,,,,,,,,,,,,,,,,,,,,,,,,,,,,,,,,,,,,,,,,,,,,,,,,,,,,,,,,,,,,,,,,,,,,,,,,,,,,,,,,,,,,,,,,,,,,,,,,,,,,,,,,,,,,,,,,,,,,,,,,,,,,,,,,,,,,,,,,,,,,
0,18,18,1,1,,5c74d6a50b33c80001323744,629c51d4aaa8d2d26b4b2abb,2022-06-05_08h49.42.711,Colour_Asymmetry_Pilot,2022.1.3,Win32,30.16136329,629c4b6caf241d5e6e00bfc0,,,,,,,,,,,,,,,,,,,,,,,,,,,,,,,,,,,,,,,,,,,,,,,,,,,,,,,,,,,,,,,,,,,,,,,,,,,,,,,,,,,,,,,,,,,,,,,,,,,,,,,,,,,,,,,,,,,,,,,,,,,,,,,,,,,,,,,,,,,,,,,,,,,
0,19,19,0,1,,5c74d6a50b33c80001323744,629c51d4aaa8d2d26b4b2abb,2022-06-05_08h49.42.711,Colour_Asymmetry_Pilot,2022.1.3,Win32,30.16136329,629c4b6caf241d5e6e00bfc0,,,,,,,,,,,,,,,,,,,,,,,,,,,,,,,,,,,,,,,,,,,,,,,,,,,,,,,,,,,,,,,,,,,,,,,,,,,,,,,,,,,,,,,,,,,,,,,,,,,,,,,,,,,,,,,,,,,,,,,,,,,,,,,,,,,,,,,,,,,,,,,,,,,
0,20,20,79,1,,5c74d6a50b33c80001323744,629c51d4aaa8d2d26b4b2abb,2022-06-05_08h49.42.711,Colour_Asymmetry_Pilot,2022.1.3,Win32,30.16136329,629c4b6caf241d5e6e00bfc0,,,,,,,,,,,,,,,,,,,,,,,,,,,,,,,,,,,,,,,,,,,,,,,,,,,,,,,,,,,,,,,,,,,,,,,,,,,,,,,,,,,,,,,,,,,,,,,,,,,,,,,,,,,,,,,,,,,,,,,,,,,,,,,,,,,,,,,,,,,,,,,,,,,
0,21,21,56,1,,5c74d6a50b33c80001323744,629c51d4aaa8d2d26b4b2abb,2022-06-05_08h49.42.711,Colour_Asymmetry_Pilot,2022.1.3,Win32,30.16136329,629c4b6caf241d5e6e00bfc0,,,,,,,,,,,,,,,,,,,,,,,,,,,,,,,,,,,,,,,,,,,,,,,,,,,,,,,,,,,,,,,,,,,,,,,,,,,,,,,,,,,,,,,,,,,,,,,,,,,,,,,,,,,,,,,,,,,,,,,,,,,,,,,,,,,,,,,,,,,,,,,,,,,
0,22,22,50,1,,5c74d6a50b33c80001323744,629c51d4aaa8d2d26b4b2abb,2022-06-05_08h49.42.711,Colour_Asymmetry_Pilot,2022.1.3,Win32,30.16136329,629c4b6caf241d5e6e00bfc0,,,,,,,,,,,,,,,,,,,,,,,,,,,,,,,,,,,,,,,,,,,,,,,,,,,,,,,,,,,,,,,,,,,,,,,,,,,,,,,,,,,,,,,,,,,,,,,,,,,,,,,,,,,,,,,,,,,,,,,,,,,,,,,,,,,,,,,,,,,,,,,,,,,
0,23,23,61,1,,5c74d6a50b33c80001323744,629c51d4aaa8d2d26b4b2abb,2022-06-05_08h49.42.711,Colour_Asymmetry_Pilot,2022.1.3,Win32,30.16136329,629c4b6caf241d5e6e00bfc0,,,,,,,,,,,,,,,,,,,,,,,,,,,,,,,,,,,,,,,,,,,,,,,,,,,,,,,,,,,,,,,,,,,,,,,,,,,,,,,,,,,,,,,,,,,,,,,,,,,,,,,,,,,,,,,,,,,,,,,,,,,,,,,,,,,,,,,,,,,,,,,,,,,
0,24,24,12,1,,5c74d6a50b33c80001323744,629c51d4aaa8d2d26b4b2abb,2022-06-05_08h49.42.711,Colour_Asymmetry_Pilot,2022.1.3,Win32,30.16136329,629c4b6caf241d5e6e00bfc0,,,,,,,,,,,,,,,,,,,,,,,,,,,,,,,,,,,,,,,,,,,,,,,,,,,,,,,,,,,,,,,,,,,,,,,,,,,,,,,,,,,,,,,,,,,,,,,,,,,,,,,,,,,,,,,,,,,,,,,,,,,,,,,,,,,,,,,,,,,,,,,,,,,
0,25,25,3,1,,5c74d6a50b33c80001323744,629c51d4aaa8d2d26b4b2abb,2022-06-05_08h49.42.711,Colour_Asymmetry_Pilot,2022.1.3,Win32,30.16136329,629c4b6caf241d5e6e00bfc0,,,,,,,,,,,,,,,,,,,,,,,,,,,,,,,,,,,,,,,,,,,,,,,,,,,,,,,,,,,,,,,,,,,,,,,,,,,,,,,,,,,,,,,,,,,,,,,,,,,,,,,,,,,,,,,,,,,,,,,,,,,,,,,,,,,,,,,,,,,,,,,,,,,
0,26,26,62,1,,5c74d6a50b33c80001323744,629c51d4aaa8d2d26b4b2abb,2022-06-05_08h49.42.711,Colour_Asymmetry_Pilot,2022.1.3,Win32,30.16136329,629c4b6caf241d5e6e00bfc0,,,,,,,,,,,,,,,,,,,,,,,,,,,,,,,,,,,,,,,,,,,,,,,,,,,,,,,,,,,,,,,,,,,,,,,,,,,,,,,,,,,,,,,,,,,,,,,,,,,,,,,,,,,,,,,,,,,,,,,,,,,,,,,,,,,,,,,,,,,,,,,,,,,
0,27,27,71,1,,5c74d6a50b33c80001323744,629c51d4aaa8d2d26b4b2abb,2022-06-05_08h49.42.711,Colour_Asymmetry_Pilot,2022.1.3,Win32,30.16136329,629c4b6caf241d5e6e00bfc0,,,,,,,,,,,,,,,,,,,,,,,,,,,,,,,,,,,,,,,,,,,,,,,,,,,,,,,,,,,,,,,,,,,,,,,,,,,,,,,,,,,,,,,,,,,,,,,,,,,,,,,,,,,,,,,,,,,,,,,,,,,,,,,,,,,,,,,,,,,,,,,,,,,
0,28,28,54,1,,5c74d6a50b33c80001323744,629c51d4aaa8d2d26b4b2abb,2022-06-05_08h49.42.711,Colour_Asymmetry_Pilot,2022.1.3,Win32,30.16136329,629c4b6caf241d5e6e00bfc0,,,,,,,,,,,,,,,,,,,,,,,,,,,,,,,,,,,,,,,,,,,,,,,,,,,,,,,,,,,,,,,,,,,,,,,,,,,,,,,,,,,,,,,,,,,,,,,,,,,,,,,,,,,,,,,,,,,,,,,,,,,,,,,,,,,,,,,,,,,,,,,,,,,
0,29,29,21,1,,5c74d6a50b33c80001323744,629c51d4aaa8d2d26b4b2abb,2022-06-05_08h49.42.711,Colour_Asymmetry_Pilot,2022.1.3,Win32,30.16136329,629c4b6caf241d5e6e00bfc0,,,,,,,,,,,,,,,,,,,,,,,,,,,,,,,,,,,,,,,,,,,,,,,,,,,,,,,,,,,,,,,,,,,,,,,,,,,,,,,,,,,,,,,,,,,,,,,,,,,,,,,,,,,,,,,,,,,,,,,,,,,,,,,,,,,,,,,,,,,,,,,,,,,
0,30,30,49,1,,5c74d6a50b33c80001323744,629c51d4aaa8d2d26b4b2abb,2022-06-05_08h49.42.711,Colour_Asymmetry_Pilot,2022.1.3,Win32,30.16136329,629c4b6caf241d5e6e00bfc0,,,,,,,,,,,,,,,,,,,,,,,,,,,,,,,,,,,,,,,,,,,,,,,,,,,,,,,,,,,,,,,,,,,,,,,,,,,,,,,,,,,,,,,,,,,,,,,,,,,,,,,,,,,,,,,,,,,,,,,,,,,,,,,,,,,,,,,,,,,,,,,,,,,
0,31,31,35,1,,5c74d6a50b33c80001323744,629c51d4aaa8d2d26b4b2abb,2022-06-05_08h49.42.711,Colour_Asymmetry_Pilot,2022.1.3,Win32,30.16136329,629c4b6caf241d5e6e00bfc0,,,,,,,,,,,,,,,,,,,,,,,,,,,,,,,,,,,,,,,,,,,,,,,,,,,,,,,,,,,,,,,,,,,,,,,,,,,,,,,,,,,,,,,,,,,,,,,,,,,,,,,,,,,,,,,,,,,,,,,,,,,,,,,,,,,,,,,,,,,,,,,,,,,
0,32,32,83,1,,5c74d6a50b33c80001323744,629c51d4aaa8d2d26b4b2abb,2022-06-05_08h49.42.711,Colour_Asymmetry_Pilot,2022.1.3,Win32,30.16136329,629c4b6caf241d5e6e00bfc0,,,,,,,,,,,,,,,,,,,,,,,,,,,,,,,,,,,,,,,,,,,,,,,,,,,,,,,,,,,,,,,,,,,,,,,,,,,,,,,,,,,,,,,,,,,,,,,,,,,,,,,,,,,,,,,,,,,,,,,,,,,,,,,,,,,,,,,,,,,,,,,,,,,
0,33,33,89,1,,5c74d6a50b33c80001323744,629c51d4aaa8d2d26b4b2abb,2022-06-05_08h49.42.711,Colour_Asymmetry_Pilot,2022.1.3,Win32,30.16136329,629c4b6caf241d5e6e00bfc0,,,,,,,,,,,,,,,,,,,,,,,,,,,,,,,,,,,,,,,,,,,,,,,,,,,,,,,,,,,,,,,,,,,,,,,,,,,,,,,,,,,,,,,,,,,,,,,,,,,,,,,,,,,,,,,,,,,,,,,,,,,,,,,,,,,,,,,,,,,,,,,,,,,
0,34,34,23,1,,5c74d6a50b33c80001323744,629c51d4aaa8d2d26b4b2abb,2022-06-05_08h49.42.711,Colour_Asymmetry_Pilot,2022.1.3,Win32,30.16136329,629c4b6caf241d5e6e00bfc0,,,,,,,,,,,,,,,,,,,,,,,,,,,,,,,,,,,,,,,,,,,,,,,,,,,,,,,,,,,,,,,,,,,,,,,,,,,,,,,,,,,,,,,,,,,,,,,,,,,,,,,,,,,,,,,,,,,,,,,,,,,,,,,,,,,,,,,,,,,,,,,,,,,
0,35,35,24,1,,5c74d6a50b33c80001323744,629c51d4aaa8d2d26b4b2abb,2022-06-05_08h49.42.711,Colour_Asymmetry_Pilot,2022.1.3,Win32,30.16136329,629c4b6caf241d5e6e00bfc0,,,,,,,,,,,,,,,,,,,,,,,,,,,,,,,,,,,,,,,,,,,,,,,,,,,,,,,,,,,,,,,,,,,,,,,,,,,,,,,,,,,,,,,,,,,,,,,,,,,,,,,,,,,,,,,,,,,,,,,,,,,,,,,,,,,,,,,,,,,,,,,,,,,
0,36,36,75,1,,5c74d6a50b33c80001323744,629c51d4aaa8d2d26b4b2abb,2022-06-05_08h49.42.711,Colour_Asymmetry_Pilot,2022.1.3,Win32,30.16136329,629c4b6caf241d5e6e00bfc0,,,,,,,,,,,,,,,,,,,,,,,,,,,,,,,,,,,,,,,,,,,,,,,,,,,,,,,,,,,,,,,,,,,,,,,,,,,,,,,,,,,,,,,,,,,,,,,,,,,,,,,,,,,,,,,,,,,,,,,,,,,,,,,,,,,,,,,,,,,,,,,,,,,
0,37,37,4,1,,5c74d6a50b33c80001323744,629c51d4aaa8d2d26b4b2abb,2022-06-05_08h49.42.711,Colour_Asymmetry_Pilot,2022.1.3,Win32,30.16136329,629c4b6caf241d5e6e00bfc0,,,,,,,,,,,,,,,,,,,,,,,,,,,,,,,,,,,,,,,,,,,,,,,,,,,,,,,,,,,,,,,,,,,,,,,,,,,,,,,,,,,,,,,,,,,,,,,,,,,,,,,,,,,,,,,,,,,,,,,,,,,,,,,,,,,,,,,,,,,,,,,,,,,
0,38,38,41,1,,5c74d6a50b33c80001323744,629c51d4aaa8d2d26b4b2abb,2022-06-05_08h49.42.711,Colour_Asymmetry_Pilot,2022.1.3,Win32,30.16136329,629c4b6caf241d5e6e00bfc0,,,,,,,,,,,,,,,,,,,,,,,,,,,,,,,,,,,,,,,,,,,,,,,,,,,,,,,,,,,,,,,,,,,,,,,,,,,,,,,,,,,,,,,,,,,,,,,,,,,,,,,,,,,,,,,,,,,,,,,,,,,,,,,,,,,,,,,,,,,,,,,,,,,
0,39,39,33,1,,5c74d6a50b33c80001323744,629c51d4aaa8d2d26b4b2abb,2022-06-05_08h49.42.711,Colour_Asymmetry_Pilot,2022.1.3,Win32,30.16136329,629c4b6caf241d5e6e00bfc0,,,,,,,,,,,,,,,,,,,,,,,,,,,,,,,,,,,,,,,,,,,,,,,,,,,,,,,,,,,,,,,,,,,,,,,,,,,,,,,,,,,,,,,,,,,,,,,,,,,,,,,,,,,,,,,,,,,,,,,,,,,,,,,,,,,,,,,,,,,,,,,,,,,
0,40,40,65,1,,5c74d6a50b33c80001323744,629c51d4aaa8d2d26b4b2abb,2022-06-05_08h49.42.711,Colour_Asymmetry_Pilot,2022.1.3,Win32,30.16136329,629c4b6caf241d5e6e00bfc0,,,,,,,,,,,,,,,,,,,,,,,,,,,,,,,,,,,,,,,,,,,,,,,,,,,,,,,,,,,,,,,,,,,,,,,,,,,,,,,,,,,,,,,,,,,,,,,,,,,,,,,,,,,,,,,,,,,,,,,,,,,,,,,,,,,,,,,,,,,,,,,,,,,
0,41,41,76,1,,5c74d6a50b33c80001323744,629c51d4aaa8d2d26b4b2abb,2022-06-05_08h49.42.711,Colour_Asymmetry_Pilot,2022.1.3,Win32,30.16136329,629c4b6caf241d5e6e00bfc0,,,,,,,,,,,,,,,,,,,,,,,,,,,,,,,,,,,,,,,,,,,,,,,,,,,,,,,,,,,,,,,,,,,,,,,,,,,,,,,,,,,,,,,,,,,,,,,,,,,,,,,,,,,,,,,,,,,,,,,,,,,,,,,,,,,,,,,,,,,,,,,,,,,
0,42,42,48,1,,5c74d6a50b33c80001323744,629c51d4aaa8d2d26b4b2abb,2022-06-05_08h49.42.711,Colour_Asymmetry_Pilot,2022.1.3,Win32,30.16136329,629c4b6caf241d5e6e00bfc0,,,,,,,,,,,,,,,,,,,,,,,,,,,,,,,,,,,,,,,,,,,,,,,,,,,,,,,,,,,,,,,,,,,,,,,,,,,,,,,,,,,,,,,,,,,,,,,,,,,,,,,,,,,,,,,,,,,,,,,,,,,,,,,,,,,,,,,,,,,,,,,,,,,
0,43,43,10,1,,5c74d6a50b33c80001323744,629c51d4aaa8d2d26b4b2abb,2022-06-05_08h49.42.711,Colour_Asymmetry_Pilot,2022.1.3,Win32,30.16136329,629c4b6caf241d5e6e00bfc0,,,,,,,,,,,,,,,,,,,,,,,,,,,,,,,,,,,,,,,,,,,,,,,,,,,,,,,,,,,,,,,,,,,,,,,,,,,,,,,,,,,,,,,,,,,,,,,,,,,,,,,,,,,,,,,,,,,,,,,,,,,,,,,,,,,,,,,,,,,,,,,,,,,
0,44,44,28,1,,5c74d6a50b33c80001323744,629c51d4aaa8d2d26b4b2abb,2022-06-05_08h49.42.711,Colour_Asymmetry_Pilot,2022.1.3,Win32,30.16136329,629c4b6caf241d5e6e00bfc0,,,,,,,,,,,,,,,,,,,,,,,,,,,,,,,,,,,,,,,,,,,,,,,,,,,,,,,,,,,,,,,,,,,,,,,,,,,,,,,,,,,,,,,,,,,,,,,,,,,,,,,,,,,,,,,,,,,,,,,,,,,,,,,,,,,,,,,,,,,,,,,,,,,
0,45,45,31,1,,5c74d6a50b33c80001323744,629c51d4aaa8d2d26b4b2abb,2022-06-05_08h49.42.711,Colour_Asymmetry_Pilot,2022.1.3,Win32,30.16136329,629c4b6caf241d5e6e00bfc0,,,,,,,,,,,,,,,,,,,,,,,,,,,,,,,,,,,,,,,,,,,,,,,,,,,,,,,,,,,,,,,,,,,,,,,,,,,,,,,,,,,,,,,,,,,,,,,,,,,,,,,,,,,,,,,,,,,,,,,,,,,,,,,,,,,,,,,,,,,,,,,,,,,
0,46,46,17,1,,5c74d6a50b33c80001323744,629c51d4aaa8d2d26b4b2abb,2022-06-05_08h49.42.711,Colour_Asymmetry_Pilot,2022.1.3,Win32,30.16136329,629c4b6caf241d5e6e00bfc0,,,,,,,,,,,,,,,,,,,,,,,,,,,,,,,,,,,,,,,,,,,,,,,,,,,,,,,,,,,,,,,,,,,,,,,,,,,,,,,,,,,,,,,,,,,,,,,,,,,,,,,,,,,,,,,,,,,,,,,,,,,,,,,,,,,,,,,,,,,,,,,,,,,
0,47,47,81,1,,5c74d6a50b33c80001323744,629c51d4aaa8d2d26b4b2abb,2022-06-05_08h49.42.711,Colour_Asymmetry_Pilot,2022.1.3,Win32,30.16136329,629c4b6caf241d5e6e00bfc0,,,,,,,,,,,,,,,,,,,,,,,,,,,,,,,,,,,,,,,,,,,,,,,,,,,,,,,,,,,,,,,,,,,,,,,,,,,,,,,,,,,,,,,,,,,,,,,,,,,,,,,,,,,,,,,,,,,,,,,,,,,,,,,,,,,,,,,,,,,,,,,,,,,
0,48,48,46,1,,5c74d6a50b33c80001323744,629c51d4aaa8d2d26b4b2abb,2022-06-05_08h49.42.711,Colour_Asymmetry_Pilot,2022.1.3,Win32,30.16136329,629c4b6caf241d5e6e00bfc0,,,,,,,,,,,,,,,,,,,,,,,,,,,,,,,,,,,,,,,,,,,,,,,,,,,,,,,,,,,,,,,,,,,,,,,,,,,,,,,,,,,,,,,,,,,,,,,,,,,,,,,,,,,,,,,,,,,,,,,,,,,,,,,,,,,,,,,,,,,,,,,,,,,
0,49,49,36,1,,5c74d6a50b33c80001323744,629c51d4aaa8d2d26b4b2abb,2022-06-05_08h49.42.711,Colour_Asymmetry_Pilot,2022.1.3,Win32,30.16136329,629c4b6caf241d5e6e00bfc0,,,,,,,,,,,,,,,,,,,,,,,,,,,,,,,,,,,,,,,,,,,,,,,,,,,,,,,,,,,,,,,,,,,,,,,,,,,,,,,,,,,,,,,,,,,,,,,,,,,,,,,,,,,,,,,,,,,,,,,,,,,,,,,,,,,,,,,,,,,,,,,,,,,
0,50,50,42,1,,5c74d6a50b33c80001323744,629c51d4aaa8d2d26b4b2abb,2022-06-05_08h49.42.711,Colour_Asymmetry_Pilot,2022.1.3,Win32,30.16136329,629c4b6caf241d5e6e00bfc0,,,,,,,,,,,,,,,,,,,,,,,,,,,,,,,,,,,,,,,,,,,,,,,,,,,,,,,,,,,,,,,,,,,,,,,,,,,,,,,,,,,,,,,,,,,,,,,,,,,,,,,,,,,,,,,,,,,,,,,,,,,,,,,,,,,,,,,,,,,,,,,,,,,
0,51,51,8,1,,5c74d6a50b33c80001323744,629c51d4aaa8d2d26b4b2abb,2022-06-05_08h49.42.711,Colour_Asymmetry_Pilot,2022.1.3,Win32,30.16136329,629c4b6caf241d5e6e00bfc0,,,,,,,,,,,,,,,,,,,,,,,,,,,,,,,,,,,,,,,,,,,,,,,,,,,,,,,,,,,,,,,,,,,,,,,,,,,,,,,,,,,,,,,,,,,,,,,,,,,,,,,,,,,,,,,,,,,,,,,,,,,,,,,,,,,,,,,,,,,,,,,,,,,
0,52,52,53,1,,5c74d6a50b33c80001323744,629c51d4aaa8d2d26b4b2abb,2022-06-05_08h49.42.711,Colour_Asymmetry_Pilot,2022.1.3,Win32,30.16136329,629c4b6caf241d5e6e00bfc0,,,,,,,,,,,,,,,,,,,,,,,,,,,,,,,,,,,,,,,,,,,,,,,,,,,,,,,,,,,,,,,,,,,,,,,,,,,,,,,,,,,,,,,,,,,,,,,,,,,,,,,,,,,,,,,,,,,,,,,,,,,,,,,,,,,,,,,,,,,,,,,,,,,
0,53,53,52,1,,5c74d6a50b33c80001323744,629c51d4aaa8d2d26b4b2abb,2022-06-05_08h49.42.711,Colour_Asymmetry_Pilot,2022.1.3,Win32,30.16136329,629c4b6caf241d5e6e00bfc0,,,,,,,,,,,,,,,,,,,,,,,,,,,,,,,,,,,,,,,,,,,,,,,,,,,,,,,,,,,,,,,,,,,,,,,,,,,,,,,,,,,,,,,,,,,,,,,,,,,,,,,,,,,,,,,,,,,,,,,,,,,,,,,,,,,,,,,,,,,,,,,,,,,
0,54,54,60,1,,5c74d6a50b33c80001323744,629c51d4aaa8d2d26b4b2abb,2022-06-05_08h49.42.711,Colour_Asymmetry_Pilot,2022.1.3,Win32,30.16136329,629c4b6caf241d5e6e00bfc0,,,,,,,,,,,,,,,,,,,,,,,,,,,,,,,,,,,,,,,,,,,,,,,,,,,,,,,,,,,,,,,,,,,,,,,,,,,,,,,,,,,,,,,,,,,,,,,,,,,,,,,,,,,,,,,,,,,,,,,,,,,,,,,,,,,,,,,,,,,,,,,,,,,
0,55,55,92,1,,5c74d6a50b33c80001323744,629c51d4aaa8d2d26b4b2abb,2022-06-05_08h49.42.711,Colour_Asymmetry_Pilot,2022.1.3,Win32,30.16136329,629c4b6caf241d5e6e00bfc0,,,,,,,,,,,,,,,,,,,,,,,,,,,,,,,,,,,,,,,,,,,,,,,,,,,,,,,,,,,,,,,,,,,,,,,,,,,,,,,,,,,,,,,,,,,,,,,,,,,,,,,,,,,,,,,,,,,,,,,,,,,,,,,,,,,,,,,,,,,,,,,,,,,
0,56,56,66,1,,5c74d6a50b33c80001323744,629c51d4aaa8d2d26b4b2abb,2022-06-05_08h49.42.711,Colour_Asymmetry_Pilot,2022.1.3,Win32,30.16136329,629c4b6caf241d5e6e00bfc0,,,,,,,,,,,,,,,,,,,,,,,,,,,,,,,,,,,,,,,,,,,,,,,,,,,,,,,,,,,,,,,,,,,,,,,,,,,,,,,,,,,,,,,,,,,,,,,,,,,,,,,,,,,,,,,,,,,,,,,,,,,,,,,,,,,,,,,,,,,,,,,,,,,
0,57,57,29,1,,5c74d6a50b33c80001323744,629c51d4aaa8d2d26b4b2abb,2022-06-05_08h49.42.711,Colour_Asymmetry_Pilot,2022.1.3,Win32,30.16136329,629c4b6caf241d5e6e00bfc0,,,,,,,,,,,,,,,,,,,,,,,,,,,,,,,,,,,,,,,,,,,,,,,,,,,,,,,,,,,,,,,,,,,,,,,,,,,,,,,,,,,,,,,,,,,,,,,,,,,,,,,,,,,,,,,,,,,,,,,,,,,,,,,,,,,,,,,,,,,,,,,,,,,
0,58,58,15,1,,5c74d6a50b33c80001323744,629c51d4aaa8d2d26b4b2abb,2022-06-05_08h49.42.711,Colour_Asymmetry_Pilot,2022.1.3,Win32,30.16136329,629c4b6caf241d5e6e00bfc0,,,,,,,,,,,,,,,,,,,,,,,,,,,,,,,,,,,,,,,,,,,,,,,,,,,,,,,,,,,,,,,,,,,,,,,,,,,,,,,,,,,,,,,,,,,,,,,,,,,,,,,,,,,,,,,,,,,,,,,,,,,,,,,,,,,,,,,,,,,,,,,,,,,
0,59,59,84,1,,5c74d6a50b33c80001323744,629c51d4aaa8d2d26b4b2abb,2022-06-05_08h49.42.711,Colour_Asymmetry_Pilot,2022.1.3,Win32,30.16136329,629c4b6caf241d5e6e00bfc0,,,,,,,,,,,,,,,,,,,,,,,,,,,,,,,,,,,,,,,,,,,,,,,,,,,,,,,,,,,,,,,,,,,,,,,,,,,,,,,,,,,,,,,,,,,,,,,,,,,,,,,,,,,,,,,,,,,,,,,,,,,,,,,,,,,,,,,,,,,,,,,,,,,
0,60,60,82,1,,5c74d6a50b33c80001323744,629c51d4aaa8d2d26b4b2abb,2022-06-05_08h49.42.711,Colour_Asymmetry_Pilot,2022.1.3,Win32,30.16136329,629c4b6caf241d5e6e00bfc0,,,,,,,,,,,,,,,,,,,,,,,,,,,,,,,,,,,,,,,,,,,,,,,,,,,,,,,,,,,,,,,,,,,,,,,,,,,,,,,,,,,,,,,,,,,,,,,,,,,,,,,,,,,,,,,,,,,,,,,,,,,,,,,,,,,,,,,,,,,,,,,,,,,
0,61,61,88,1,,5c74d6a50b33c80001323744,629c51d4aaa8d2d26b4b2abb,2022-06-05_08h49.42.711,Colour_Asymmetry_Pilot,2022.1.3,Win32,30.16136329,629c4b6caf241d5e6e00bfc0,,,,,,,,,,,,,,,,,,,,,,,,,,,,,,,,,,,,,,,,,,,,,,,,,,,,,,,,,,,,,,,,,,,,,,,,,,,,,,,,,,,,,,,,,,,,,,,,,,,,,,,,,,,,,,,,,,,,,,,,,,,,,,,,,,,,,,,,,,,,,,,,,,,
0,62,62,69,1,,5c74d6a50b33c80001323744,629c51d4aaa8d2d26b4b2abb,2022-06-05_08h49.42.711,Colour_Asymmetry_Pilot,2022.1.3,Win32,30.16136329,629c4b6caf241d5e6e00bfc0,,,,,,,,,,,,,,,,,,,,,,,,,,,,,,,,,,,,,,,,,,,,,,,,,,,,,,,,,,,,,,,,,,,,,,,,,,,,,,,,,,,,,,,,,,,,,,,,,,,,,,,,,,,,,,,,,,,,,,,,,,,,,,,,,,,,,,,,,,,,,,,,,,,
0,63,63,38,1,,5c74d6a50b33c80001323744,629c51d4aaa8d2d26b4b2abb,2022-06-05_08h49.42.711,Colour_Asymmetry_Pilot,2022.1.3,Win32,30.16136329,629c4b6caf241d5e6e00bfc0,,,,,,,,,,,,,,,,,,,,,,,,,,,,,,,,,,,,,,,,,,,,,,,,,,,,,,,,,,,,,,,,,,,,,,,,,,,,,,,,,,,,,,,,,,,,,,,,,,,,,,,,,,,,,,,,,,,,,,,,,,,,,,,,,,,,,,,,,,,,,,,,,,,
0,64,64,40,1,,5c74d6a50b33c80001323744,629c51d4aaa8d2d26b4b2abb,2022-06-05_08h49.42.711,Colour_Asymmetry_Pilot,2022.1.3,Win32,30.16136329,629c4b6caf241d5e6e00bfc0,,,,,,,,,,,,,,,,,,,,,,,,,,,,,,,,,,,,,,,,,,,,,,,,,,,,,,,,,,,,,,,,,,,,,,,,,,,,,,,,,,,,,,,,,,,,,,,,,,,,,,,,,,,,,,,,,,,,,,,,,,,,,,,,,,,,,,,,,,,,,,,,,,,
0,65,65,73,1,,5c74d6a50b33c80001323744,629c51d4aaa8d2d26b4b2abb,2022-06-05_08h49.42.711,Colour_Asymmetry_Pilot,2022.1.3,Win32,30.16136329,629c4b6caf241d5e6e00bfc0,,,,,,,,,,,,,,,,,,,,,,,,,,,,,,,,,,,,,,,,,,,,,,,,,,,,,,,,,,,,,,,,,,,,,,,,,,,,,,,,,,,,,,,,,,,,,,,,,,,,,,,,,,,,,,,,,,,,,,,,,,,,,,,,,,,,,,,,,,,,,,,,,,,
0,66,66,67,1,,5c74d6a50b33c80001323744,629c51d4aaa8d2d26b4b2abb,2022-06-05_08h49.42.711,Colour_Asymmetry_Pilot,2022.1.3,Win32,30.16136329,629c4b6caf241d5e6e00bfc0,,,,,,,,,,,,,,,,,,,,,,,,,,,,,,,,,,,,,,,,,,,,,,,,,,,,,,,,,,,,,,,,,,,,,,,,,,,,,,,,,,,,,,,,,,,,,,,,,,,,,,,,,,,,,,,,,,,,,,,,,,,,,,,,,,,,,,,,,,,,,,,,,,,
0,67,67,37,1,,5c74d6a50b33c80001323744,629c51d4aaa8d2d26b4b2abb,2022-06-05_08h49.42.711,Colour_Asymmetry_Pilot,2022.1.3,Win32,30.16136329,629c4b6caf241d5e6e00bfc0,,,,,,,,,,,,,,,,,,,,,,,,,,,,,,,,,,,,,,,,,,,,,,,,,,,,,,,,,,,,,,,,,,,,,,,,,,,,,,,,,,,,,,,,,,,,,,,,,,,,,,,,,,,,,,,,,,,,,,,,,,,,,,,,,,,,,,,,,,,,,,,,,,,
0,68,68,5,1,,5c74d6a50b33c80001323744,629c51d4aaa8d2d26b4b2abb,2022-06-05_08h49.42.711,Colour_Asymmetry_Pilot,2022.1.3,Win32,30.16136329,629c4b6caf241d5e6e00bfc0,,,,,,,,,,,,,,,,,,,,,,,,,,,,,,,,,,,,,,,,,,,,,,,,,,,,,,,,,,,,,,,,,,,,,,,,,,,,,,,,,,,,,,,,,,,,,,,,,,,,,,,,,,,,,,,,,,,,,,,,,,,,,,,,,,,,,,,,,,,,,,,,,,,
0,69,69,72,1,,5c74d6a50b33c80001323744,629c51d4aaa8d2d26b4b2abb,2022-06-05_08h49.42.711,Colour_Asymmetry_Pilot,2022.1.3,Win32,30.16136329,629c4b6caf241d5e6e00bfc0,,,,,,,,,,,,,,,,,,,,,,,,,,,,,,,,,,,,,,,,,,,,,,,,,,,,,,,,,,,,,,,,,,,,,,,,,,,,,,,,,,,,,,,,,,,,,,,,,,,,,,,,,,,,,,,,,,,,,,,,,,,,,,,,,,,,,,,,,,,,,,,,,,,
0,70,70,78,1,,5c74d6a50b33c80001323744,629c51d4aaa8d2d26b4b2abb,2022-06-05_08h49.42.711,Colour_Asymmetry_Pilot,2022.1.3,Win32,30.16136329,629c4b6caf241d5e6e00bfc0,,,,,,,,,,,,,,,,,,,,,,,,,,,,,,,,,,,,,,,,,,,,,,,,,,,,,,,,,,,,,,,,,,,,,,,,,,,,,,,,,,,,,,,,,,,,,,,,,,,,,,,,,,,,,,,,,,,,,,,,,,,,,,,,,,,,,,,,,,,,,,,,,,,
0,71,71,19,1,,5c74d6a50b33c80001323744,629c51d4aaa8d2d26b4b2abb,2022-06-05_08h49.42.711,Colour_Asymmetry_Pilot,2022.1.3,Win32,30.16136329,629c4b6caf241d5e6e00bfc0,,,,,,,,,,,,,,,,,,,,,,,,,,,,,,,,,,,,,,,,,,,,,,,,,,,,,,,,,,,,,,,,,,,,,,,,,,,,,,,,,,,,,,,,,,,,,,,,,,,,,,,,,,,,,,,,,,,,,,,,,,,,,,,,,,,,,,,,,,,,,,,,,,,
0,72,72,68,1,,5c74d6a50b33c80001323744,629c51d4aaa8d2d26b4b2abb,2022-06-05_08h49.42.711,Colour_Asymmetry_Pilot,2022.1.3,Win32,30.16136329,629c4b6caf241d5e6e00bfc0,,,,,,,,,,,,,,,,,,,,,,,,,,,,,,,,,,,,,,,,,,,,,,,,,,,,,,,,,,,,,,,,,,,,,,,,,,,,,,,,,,,,,,,,,,,,,,,,,,,,,,,,,,,,,,,,,,,,,,,,,,,,,,,,,,,,,,,,,,,,,,,,,,,
0,73,73,2,1,,5c74d6a50b33c80001323744,629c51d4aaa8d2d26b4b2abb,2022-06-05_08h49.42.711,Colour_Asymmetry_Pilot,2022.1.3,Win32,30.16136329,629c4b6caf241d5e6e00bfc0,,,,,,,,,,,,,,,,,,,,,,,,,,,,,,,,,,,,,,,,,,,,,,,,,,,,,,,,,,,,,,,,,,,,,,,,,,,,,,,,,,,,,,,,,,,,,,,,,,,,,,,,,,,,,,,,,,,,,,,,,,,,,,,,,,,,,,,,,,,,,,,,,,,
0,74,74,86,1,,5c74d6a50b33c80001323744,629c51d4aaa8d2d26b4b2abb,2022-06-05_08h49.42.711,Colour_Asymmetry_Pilot,2022.1.3,Win32,30.16136329,629c4b6caf241d5e6e00bfc0,,,,,,,,,,,,,,,,,,,,,,,,,,,,,,,,,,,,,,,,,,,,,,,,,,,,,,,,,,,,,,,,,,,,,,,,,,,,,,,,,,,,,,,,,,,,,,,,,,,,,,,,,,,,,,,,,,,,,,,,,,,,,,,,,,,,,,,,,,,,,,,,,,,
0,75,75,14,1,,5c74d6a50b33c80001323744,629c51d4aaa8d2d26b4b2abb,2022-06-05_08h49.42.711,Colour_Asymmetry_Pilot,2022.1.3,Win32,30.16136329,629c4b6caf241d5e6e00bfc0,,,,,,,,,,,,,,,,,,,,,,,,,,,,,,,,,,,,,,,,,,,,,,,,,,,,,,,,,,,,,,,,,,,,,,,,,,,,,,,,,,,,,,,,,,,,,,,,,,,,,,,,,,,,,,,,,,,,,,,,,,,,,,,,,,,,,,,,,,,,,,,,,,,
0,76,76,57,1,,5c74d6a50b33c80001323744,629c51d4aaa8d2d26b4b2abb,2022-06-05_08h49.42.711,Colour_Asymmetry_Pilot,2022.1.3,Win32,30.16136329,629c4b6caf241d5e6e00bfc0,,,,,,,,,,,,,,,,,,,,,,,,,,,,,,,,,,,,,,,,,,,,,,,,,,,,,,,,,,,,,,,,,,,,,,,,,,,,,,,,,,,,,,,,,,,,,,,,,,,,,,,,,,,,,,,,,,,,,,,,,,,,,,,,,,,,,,,,,,,,,,,,,,,
0,77,77,58,1,,5c74d6a50b33c80001323744,629c51d4aaa8d2d26b4b2abb,2022-06-05_08h49.42.711,Colour_Asymmetry_Pilot,2022.1.3,Win32,30.16136329,629c4b6caf241d5e6e00bfc0,,,,,,,,,,,,,,,,,,,,,,,,,,,,,,,,,,,,,,,,,,,,,,,,,,,,,,,,,,,,,,,,,,,,,,,,,,,,,,,,,,,,,,,,,,,,,,,,,,,,,,,,,,,,,,,,,,,,,,,,,,,,,,,,,,,,,,,,,,,,,,,,,,,
0,78,78,27,1,,5c74d6a50b33c80001323744,629c51d4aaa8d2d26b4b2abb,2022-06-05_08h49.42.711,Colour_Asymmetry_Pilot,2022.1.3,Win32,30.16136329,629c4b6caf241d5e6e00bfc0,,,,,,,,,,,,,,,,,,,,,,,,,,,,,,,,,,,,,,,,,,,,,,,,,,,,,,,,,,,,,,,,,,,,,,,,,,,,,,,,,,,,,,,,,,,,,,,,,,,,,,,,,,,,,,,,,,,,,,,,,,,,,,,,,,,,,,,,,,,,,,,,,,,
0,79,79,85,1,,5c74d6a50b33c80001323744,629c51d4aaa8d2d26b4b2abb,2022-06-05_08h49.42.711,Colour_Asymmetry_Pilot,2022.1.3,Win32,30.16136329,629c4b6caf241d5e6e00bfc0,,,,,,,,,,,,,,,,,,,,,,,,,,,,,,,,,,,,,,,,,,,,,,,,,,,,,,,,,,,,,,,,,,,,,,,,,,,,,,,,,,,,,,,,,,,,,,,,,,,,,,,,,,,,,,,,,,,,,,,,,,,,,,,,,,,,,,,,,,,,,,,,,,,
0,80,80,77,1,,5c74d6a50b33c80001323744,629c51d4aaa8d2d26b4b2abb,2022-06-05_08h49.42.711,Colour_Asymmetry_Pilot,2022.1.3,Win32,30.16136329,629c4b6caf241d5e6e00bfc0,,,,,,,,,,,,,,,,,,,,,,,,,,,,,,,,,,,,,,,,,,,,,,,,,,,,,,,,,,,,,,,,,,,,,,,,,,,,,,,,,,,,,,,,,,,,,,,,,,,,,,,,,,,,,,,,,,,,,,,,,,,,,,,,,,,,,,,,,,,,,,,,,,,
0,81,81,20,1,,5c74d6a50b33c80001323744,629c51d4aaa8d2d26b4b2abb,2022-06-05_08h49.42.711,Colour_Asymmetry_Pilot,2022.1.3,Win32,30.16136329,629c4b6caf241d5e6e00bfc0,,,,,,,,,,,,,,,,,,,,,,,,,,,,,,,,,,,,,,,,,,,,,,,,,,,,,,,,,,,,,,,,,,,,,,,,,,,,,,,,,,,,,,,,,,,,,,,,,,,,,,,,,,,,,,,,,,,,,,,,,,,,,,,,,,,,,,,,,,,,,,,,,,,
0,82,82,18,1,,5c74d6a50b33c80001323744,629c51d4aaa8d2d26b4b2abb,2022-06-05_08h49.42.711,Colour_Asymmetry_Pilot,2022.1.3,Win32,30.16136329,629c4b6caf241d5e6e00bfc0,,,,,,,,,,,,,,,,,,,,,,,,,,,,,,,,,,,,,,,,,,,,,,,,,,,,,,,,,,,,,,,,,,,,,,,,,,,,,,,,,,,,,,,,,,,,,,,,,,,,,,,,,,,,,,,,,,,,,,,,,,,,,,,,,,,,,,,,,,,,,,,,,,,
0,83,83,63,1,,5c74d6a50b33c80001323744,629c51d4aaa8d2d26b4b2abb,2022-06-05_08h49.42.711,Colour_Asymmetry_Pilot,2022.1.3,Win32,30.16136329,629c4b6caf241d5e6e00bfc0,,,,,,,,,,,,,,,,,,,,,,,,,,,,,,,,,,,,,,,,,,,,,,,,,,,,,,,,,,,,,,,,,,,,,,,,,,,,,,,,,,,,,,,,,,,,,,,,,,,,,,,,,,,,,,,,,,,,,,,,,,,,,,,,,,,,,,,,,,,,,,,,,,,
0,84,84,74,1,,5c74d6a50b33c80001323744,629c51d4aaa8d2d26b4b2abb,2022-06-05_08h49.42.711,Colour_Asymmetry_Pilot,2022.1.3,Win32,30.16136329,629c4b6caf241d5e6e00bfc0,,,,,,,,,,,,,,,,,,,,,,,,,,,,,,,,,,,,,,,,,,,,,,,,,,,,,,,,,,,,,,,,,,,,,,,,,,,,,,,,,,,,,,,,,,,,,,,,,,,,,,,,,,,,,,,,,,,,,,,,,,,,,,,,,,,,,,,,,,,,,,,,,,,
0,85,85,59,1,,5c74d6a50b33c80001323744,629c51d4aaa8d2d26b4b2abb,2022-06-05_08h49.42.711,Colour_Asymmetry_Pilot,2022.1.3,Win32,30.16136329,629c4b6caf241d5e6e00bfc0,,,,,,,,,,,,,,,,,,,,,,,,,,,,,,,,,,,,,,,,,,,,,,,,,,,,,,,,,,,,,,,,,,,,,,,,,,,,,,,,,,,,,,,,,,,,,,,,,,,,,,,,,,,,,,,,,,,,,,,,,,,,,,,,,,,,,,,,,,,,,,,,,,,
0,86,86,80,1,,5c74d6a50b33c80001323744,629c51d4aaa8d2d26b4b2abb,2022-06-05_08h49.42.711,Colour_Asymmetry_Pilot,2022.1.3,Win32,30.16136329,629c4b6caf241d5e6e00bfc0,,,,,,,,,,,,,,,,,,,,,,,,,,,,,,,,,,,,,,,,,,,,,,,,,,,,,,,,,,,,,,,,,,,,,,,,,,,,,,,,,,,,,,,,,,,,,,,,,,,,,,,,,,,,,,,,,,,,,,,,,,,,,,,,,,,,,,,,,,,,,,,,,,,
0,87,87,47,1,,5c74d6a50b33c80001323744,629c51d4aaa8d2d26b4b2abb,2022-06-05_08h49.42.711,Colour_Asymmetry_Pilot,2022.1.3,Win32,30.16136329,629c4b6caf241d5e6e00bfc0,,,,,,,,,,,,,,,,,,,,,,,,,,,,,,,,,,,,,,,,,,,,,,,,,,,,,,,,,,,,,,,,,,,,,,,,,,,,,,,,,,,,,,,,,,,,,,,,,,,,,,,,,,,,,,,,,,,,,,,,,,,,,,,,,,,,,,,,,,,,,,,,,,,
0,88,88,91,1,,5c74d6a50b33c80001323744,629c51d4aaa8d2d26b4b2abb,2022-06-05_08h49.42.711,Colour_Asymmetry_Pilot,2022.1.3,Win32,30.16136329,629c4b6caf241d5e6e00bfc0,,,,,,,,,,,,,,,,,,,,,,,,,,,,,,,,,,,,,,,,,,,,,,,,,,,,,,,,,,,,,,,,,,,,,,,,,,,,,,,,,,,,,,,,,,,,,,,,,,,,,,,,,,,,,,,,,,,,,,,,,,,,,,,,,,,,,,,,,,,,,,,,,,,
0,89,89,25,1,,5c74d6a50b33c80001323744,629c51d4aaa8d2d26b4b2abb,2022-06-05_08h49.42.711,Colour_Asymmetry_Pilot,2022.1.3,Win32,30.16136329,629c4b6caf241d5e6e00bfc0,,,,,,,,,,,,,,,,,,,,,,,,,,,,,,,,,,,,,,,,,,,,,,,,,,,,,,,,,,,,,,,,,,,,,,,,,,,,,,,,,,,,,,,,,,,,,,,,,,,,,,,,,,,,,,,,,,,,,,,,,,,,,,,,,,,,,,,,,,,,,,,,,,,
0,90,90,6,1,,5c74d6a50b33c80001323744,629c51d4aaa8d2d26b4b2abb,2022-06-05_08h49.42.711,Colour_Asymmetry_Pilot,2022.1.3,Win32,30.16136329,629c4b6caf241d5e6e00bfc0,,,,,,,,,,,,,,,,,,,,,,,,,,,,,,,,,,,,,,,,,,,,,,,,,,,,,,,,,,,,,,,,,,,,,,,,,,,,,,,,,,,,,,,,,,,,,,,,,,,,,,,,,,,,,,,,,,,,,,,,,,,,,,,,,,,,,,,,,,,,,,,,,,,
0,91,91,30,1,,5c74d6a50b33c80001323744,629c51d4aaa8d2d26b4b2abb,2022-06-05_08h49.42.711,Colour_Asymmetry_Pilot,2022.1.3,Win32,30.16136329,629c4b6caf241d5e6e00bfc0,,,,,,,,,,,,,,,,,,,,,,,,,,,,,,,,,,,,,,,,,,,,,,,,,,,,,,,,,,,,,,,,,,,,,,,,,,,,,,,,,,,,,,,,,,,,,,,,,,,,,,,,,,,,,,,,,,,,,,,,,,,,,,,,,,,,,,,,,,,,,,,,,,,
0,92,92,90,1,,5c74d6a50b33c80001323744,629c51d4aaa8d2d26b4b2abb,2022-06-05_08h49.42.711,Colour_Asymmetry_Pilot,2022.1.3,Win32,30.16136329,629c4b6caf241d5e6e00bfc0,,,,,,,,,,,,,,,,,,,,,,,,,,,,,,,,,,,,,,,,,,,,,,,,,,,,,,,,,,,,,,,,,,,,,,,,,,,,,,,,,,,,,,,,,,,,,,,,,,,,,,,,,,,,,,,,,,,,,,,,,,,,,,,,,,,,,,,,,,,,,,,,,,,
,,,,,,5c74d6a50b33c80001323744,629c51d4aaa8d2d26b4b2abb,2022-06-05_08h49.42.711,Colour_Asymmetry_Pilot,2022.1.3,Win32,30.16136329,629c4b6caf241d5e6e00bfc0,0,0,0,53,1,threefour,,,,,,,,,,,,,,,,,,,,,,,,,,,,,,,,,,,,,,,,,,,,,,,,,,,,,,,,,,,,,,,,,,,,,,,,,,,,,,,,,,,,,,,,,,,,,,,,,,,,,,,,,,,,,,,,,,,,,,,,,,,,,,,,,,,,,,,,,,,,,
,,,,,,5c74d6a50b33c80001323744,629c51d4aaa8d2d26b4b2abb,2022-06-05_08h49.42.711,Colour_Asymmetry_Pilot,2022.1.3,Win32,30.16136329,629c4b6caf241d5e6e00bfc0,0,1,1,135,1,fourthree,,,,,,,,,,,,,,,,,,,,,,,,,,,,,,,,,,,,,,,,,,,,,,,,,,,,,,,,,,,,,,,,,,,,,,,,,,,,,,,,,,,,,,,,,,,,,,,,,,,,,,,,,,,,,,,,,,,,,,,,,,,,,,,,,,,,,,,,,,,,,
,,,,,,5c74d6a50b33c80001323744,629c51d4aaa8d2d26b4b2abb,2022-06-05_08h49.42.711,Colour_Asymmetry_Pilot,2022.1.3,Win32,30.16136329,629c4b6caf241d5e6e00bfc0,0,2,2,74,1,twoone,,,,,,,,,,,,,,,,,,,,,,,,,,,,,,,,,,,,,,,,,,,,,,,,,,,,,,,,,,,,,,,,,,,,,,,,,,,,,,,,,,,,,,,,,,,,,,,,,,,,,,,,,,,,,,,,,,,,,,,,,,,,,,,,,,,,,,,,,,,,,
,,,,,,5c74d6a50b33c80001323744,629c51d4aaa8d2d26b4b2abb,2022-06-05_08h49.42.711,Colour_Asymmetry_Pilot,2022.1.3,Win32,30.16136329,629c4b6caf241d5e6e00bfc0,0,3,3,89,1,onethree,,,,,,,,,,,,,,,,,,,,,,,,,,,,,,,,,,,,,,,,,,,,,,,,,,,,,,,,,,,,,,,,,,,,,,,,,,,,,,,,,,,,,,,,,,,,,,,,,,,,,,,,,,,,,,,,,,,,,,,,,,,,,,,,,,,,,,,,,,,,,
,,,,,,5c74d6a50b33c80001323744,629c51d4aaa8d2d26b4b2abb,2022-06-05_08h49.42.711,Colour_Asymmetry_Pilot,2022.1.3,Win32,30.16136329,629c4b6caf241d5e6e00bfc0,0,4,4,124,1,threeone,,,,,,,,,,,,,,,,,,,,,,,,,,,,,,,,,,,,,,,,,,,,,,,,,,,,,,,,,,,,,,,,,,,,,,,,,,,,,,,,,,,,,,,,,,,,,,,,,,,,,,,,,,,,,,,,,,,,,,,,,,,,,,,,,,,,,,,,,,,,,
,,,,,,5c74d6a50b33c80001323744,629c51d4aaa8d2d26b4b2abb,2022-06-05_08h49.42.711,Colour_Asymmetry_Pilot,2022.1.3,Win32,30.16136329,629c4b6caf241d5e6e00bfc0,0,5,5,137,1,onethree,,,,,,,,,,,,,,,,,,,,,,,,,,,,,,,,,,,,,,,,,,,,,,,,,,,,,,,,,,,,,,,,,,,,,,,,,,,,,,,,,,,,,,,,,,,,,,,,,,,,,,,,,,,,,,,,,,,,,,,,,,,,,,,,,,,,,,,,,,,,,
,,,,,,5c74d6a50b33c80001323744,629c51d4aaa8d2d26b4b2abb,2022-06-05_08h49.42.711,Colour_Asymmetry_Pilot,2022.1.3,Win32,30.16136329,629c4b6caf241d5e6e00bfc0,0,6,6,31,1,fourthree,,,,,,,,,,,,,,,,,,,,,,,,,,,,,,,,,,,,,,,,,,,,,,,,,,,,,,,,,,,,,,,,,,,,,,,,,,,,,,,,,,,,,,,,,,,,,,,,,,,,,,,,,,,,,,,,,,,,,,,,,,,,,,,,,,,,,,,,,,,,,
,,,,,,5c74d6a50b33c80001323744,629c51d4aaa8d2d26b4b2abb,2022-06-05_08h49.42.711,Colour_Asymmetry_Pilot,2022.1.3,Win32,30.16136329,629c4b6caf241d5e6e00bfc0,0,7,7,146,1,twoone,,,,,,,,,,,,,,,,,,,,,,,,,,,,,,,,,,,,,,,,,,,,,,,,,,,,,,,,,,,,,,,,,,,,,,,,,,,,,,,,,,,,,,,,,,,,,,,,,,,,,,,,,,,,,,,,,,,,,,,,,,,,,,,,,,,,,,,,,,,,,
,,,,,,5c74d6a50b33c80001323744,629c51d4aaa8d2d26b4b2abb,2022-06-05_08h49.42.711,Colour_Asymmetry_Pilot,2022.1.3,Win32,30.16136329,629c4b6caf241d5e6e00bfc0,0,8,8,36,1,threeone,,,,,,,,,,,,,,,,,,,,,,,,,,,,,,,,,,,,,,,,,,,,,,,,,,,,,,,,,,,,,,,,,,,,,,,,,,,,,,,,,,,,,,,,,,,,,,,,,,,,,,,,,,,,,,,,,,,,,,,,,,,,,,,,,,,,,,,,,,,,,
,,,,,,5c74d6a50b33c80001323744,629c51d4aaa8d2d26b4b2abb,2022-06-05_08h49.42.711,Colour_Asymmetry_Pilot,2022.1.3,Win32,30.16136329,629c4b6caf241d5e6e00bfc0,0,9,9,88,1,onetwo,,,,,,,,,,,,,,,,,,,,,,,,,,,,,,,,,,,,,,,,,,,,,,,,,,,,,,,,,,,,,,,,,,,,,,,,,,,,,,,,,,,,,,,,,,,,,,,,,,,,,,,,,,,,,,,,,,,,,,,,,,,,,,,,,,,,,,,,,,,,,
,,,,,,5c74d6a50b33c80001323744,629c51d4aaa8d2d26b4b2abb,2022-06-05_08h49.42.711,Colour_Asymmetry_Pilot,2022.1.3,Win32,30.16136329,629c4b6caf241d5e6e00bfc0,0,10,10,40,1,onetwo,,,,,,,,,,,,,,,,,,,,,,,,,,,,,,,,,,,,,,,,,,,,,,,,,,,,,,,,,,,,,,,,,,,,,,,,,,,,,,,,,,,,,,,,,,,,,,,,,,,,,,,,,,,,,,,,,,,,,,,,,,,,,,,,,,,,,,,,,,,,,
,,,,,,5c74d6a50b33c80001323744,629c51d4aaa8d2d26b4b2abb,2022-06-05_08h49.42.711,Colour_Asymmetry_Pilot,2022.1.3,Win32,30.16136329,629c4b6caf241d5e6e00bfc0,0,11,11,0,1,onetwo,,,,,,,,,,,,,,,,,,,,,,,,,,,,,,,,,,,,,,,,,,,,,,,,,,,,,,,,,,,,,,,,,,,,,,,,,,,,,,,,,,,,,,,,,,,,,,,,,,,,,,,,,,,,,,,,,,,,,,,,,,,,,,,,,,,,,,,,,,,,,
,,,,,,5c74d6a50b33c80001323744,629c51d4aaa8d2d26b4b2abb,2022-06-05_08h49.42.711,Colour_Asymmetry_Pilot,2022.1.3,Win32,30.16136329,629c4b6caf241d5e6e00bfc0,0,12,12,83,1,twofour,,,,,,,,,,,,,,,,,,,,,,,,,,,,,,,,,,,,,,,,,,,,,,,,,,,,,,,,,,,,,,,,,,,,,,,,,,,,,,,,,,,,,,,,,,,,,,,,,,,,,,,,,,,,,,,,,,,,,,,,,,,,,,,,,,,,,,,,,,,,,
,,,,,,5c74d6a50b33c80001323744,629c51d4aaa8d2d26b4b2abb,2022-06-05_08h49.42.711,Colour_Asymmetry_Pilot,2022.1.3,Win32,30.16136329,629c4b6caf241d5e6e00bfc0,0,13,13,28,1,threeone,,,,,,,,,,,,,,,,,,,,,,,,,,,,,,,,,,,,,,,,,,,,,,,,,,,,,,,,,,,,,,,,,,,,,,,,,,,,,,,,,,,,,,,,,,,,,,,,,,,,,,,,,,,,,,,,,,,,,,,,,,,,,,,,,,,,,,,,,,,,,
,,,,,,5c74d6a50b33c80001323744,629c51d4aaa8d2d26b4b2abb,2022-06-05_08h49.42.711,Colour_Asymmetry_Pilot,2022.1.3,Win32,30.16136329,629c4b6caf241d5e6e00bfc0,0,14,14,12,1,threeone,,,,,,,,,,,,,,,,,,,,,,,,,,,,,,,,,,,,,,,,,,,,,,,,,,,,,,,,,,,,,,,,,,,,,,,,,,,,,,,,,,,,,,,,,,,,,,,,,,,,,,,,,,,,,,,,,,,,,,,,,,,,,,,,,,,,,,,,,,,,,
,,,,,,5c74d6a50b33c80001323744,629c51d4aaa8d2d26b4b2abb,2022-06-05_08h49.42.711,Colour_Asymmetry_Pilot,2022.1.3,Win32,30.16136329,629c4b6caf241d5e6e00bfc0,0,15,15,100,1,threeone,,,,,,,,,,,,,,,,,,,,,,,,,,,,,,,,,,,,,,,,,,,,,,,,,,,,,,,,,,,,,,,,,,,,,,,,,,,,,,,,,,,,,,,,,,,,,,,,,,,,,,,,,,,,,,,,,,,,,,,,,,,,,,,,,,,,,,,,,,,,,
,,,,,,5c74d6a50b33c80001323744,629c51d4aaa8d2d26b4b2abb,2022-06-05_08h49.42.711,Colour_Asymmetry_Pilot,2022.1.3,Win32,30.16136329,629c4b6caf241d5e6e00bfc0,0,16,16,1,1,onethree,,,,,,,,,,,,,,,,,,,,,,,,,,,,,,,,,,,,,,,,,,,,,,,,,,,,,,,,,,,,,,,,,,,,,,,,,,,,,,,,,,,,,,,,,,,,,,,,,,,,,,,,,,,,,,,,,,,,,,,,,,,,,,,,,,,,,,,,,,,,,
,,,,,,5c74d6a50b33c80001323744,629c51d4aaa8d2d26b4b2abb,2022-06-05_08h49.42.711,Colour_Asymmetry_Pilot,2022.1.3,Win32,30.16136329,629c4b6caf241d5e6e00bfc0,0,17,17,134,1,fourtwo,,,,,,,,,,,,,,,,,,,,,,,,,,,,,,,,,,,,,,,,,,,,,,,,,,,,,,,,,,,,,,,,,,,,,,,,,,,,,,,,,,,,,,,,,,,,,,,,,,,,,,,,,,,,,,,,,,,,,,,,,,,,,,,,,,,,,,,,,,,,,
,,,,,,5c74d6a50b33c80001323744,629c51d4aaa8d2d26b4b2abb,2022-06-05_08h49.42.711,Colour_Asymmetry_Pilot,2022.1.3,Win32,30.16136329,629c4b6caf241d5e6e00bfc0,0,18,18,96,1,onetwo,,,,,,,,,,,,,,,,,,,,,,,,,,,,,,,,,,,,,,,,,,,,,,,,,,,,,,,,,,,,,,,,,,,,,,,,,,,,,,,,,,,,,,,,,,,,,,,,,,,,,,,,,,,,,,,,,,,,,,,,,,,,,,,,,,,,,,,,,,,,,
,,,,,,5c74d6a50b33c80001323744,629c51d4aaa8d2d26b4b2abb,2022-06-05_08h49.42.711,Colour_Asymmetry_Pilot,2022.1.3,Win32,30.16136329,629c4b6caf241d5e6e00bfc0,0,19,19,76,1,threeone,,,,,,,,,,,,,,,,,,,,,,,,,,,,,,,,,,,,,,,,,,,,,,,,,,,,,,,,,,,,,,,,,,,,,,,,,,,,,,,,,,,,,,,,,,,,,,,,,,,,,,,,,,,,,,,,,,,,,,,,,,,,,,,,,,,,,,,,,,,,,
,,,,,,5c74d6a50b33c80001323744,629c51d4aaa8d2d26b4b2abb,2022-06-05_08h49.42.711,Colour_Asymmetry_Pilot,2022.1.3,Win32,30.16136329,629c4b6caf241d5e6e00bfc0,0,20,20,155,1,twofour,,,,,,,,,,,,,,,,,,,,,,,,,,,,,,,,,,,,,,,,,,,,,,,,,,,,,,,,,,,,,,,,,,,,,,,,,,,,,,,,,,,,,,,,,,,,,,,,,,,,,,,,,,,,,,,,,,,,,,,,,,,,,,,,,,,,,,,,,,,,,
,,,,,,5c74d6a50b33c80001323744,629c51d4aaa8d2d26b4b2abb,2022-06-05_08h49.42.711,Colour_Asymmetry_Pilot,2022.1.3,Win32,30.16136329,629c4b6caf241d5e6e00bfc0,0,21,21,157,1,threefour,,,,,,,,,,,,,,,,,,,,,,,,,,,,,,,,,,,,,,,,,,,,,,,,,,,,,,,,,,,,,,,,,,,,,,,,,,,,,,,,,,,,,,,,,,,,,,,,,,,,,,,,,,,,,,,,,,,,,,,,,,,,,,,,,,,,,,,,,,,,,
,,,,,,5c74d6a50b33c80001323744,629c51d4aaa8d2d26b4b2abb,2022-06-05_08h49.42.711,Colour_Asymmetry_Pilot,2022.1.3,Win32,30.16136329,629c4b6caf241d5e6e00bfc0,0,22,22,19,1,twofour,,,,,,,,,,,,,,,,,,,,,,,,,,,,,,,,,,,,,,,,,,,,,,,,,,,,,,,,,,,,,,,,,,,,,,,,,,,,,,,,,,,,,,,,,,,,,,,,,,,,,,,,,,,,,,,,,,,,,,,,,,,,,,,,,,,,,,,,,,,,,
,,,,,,5c74d6a50b33c80001323744,629c51d4aaa8d2d26b4b2abb,2022-06-05_08h49.42.711,Colour_Asymmetry_Pilot,2022.1.3,Win32,30.16136329,629c4b6caf241d5e6e00bfc0,0,23,23,13,1,threefour,,,,,,,,,,,,,,,,,,,,,,,,,,,,,,,,,,,,,,,,,,,,,,,,,,,,,,,,,,,,,,,,,,,,,,,,,,,,,,,,,,,,,,,,,,,,,,,,,,,,,,,,,,,,,,,,,,,,,,,,,,,,,,,,,,,,,,,,,,,,,
,,,,,,5c74d6a50b33c80001323744,629c51d4aaa8d2d26b4b2abb,2022-06-05_08h49.42.711,Colour_Asymmetry_Pilot,2022.1.3,Win32,30.16136329,629c4b6caf241d5e6e00bfc0,0,24,24,126,1,fourtwo,,,,,,,,,,,,,,,,,,,,,,,,,,,,,,,,,,,,,,,,,,,,,,,,,,,,,,,,,,,,,,,,,,,,,,,,,,,,,,,,,,,,,,,,,,,,,,,,,,,,,,,,,,,,,,,,,,,,,,,,,,,,,,,,,,,,,,,,,,,,,
,,,,,,5c74d6a50b33c80001323744,629c51d4aaa8d2d26b4b2abb,2022-06-05_08h49.42.711,Colour_Asymmetry_Pilot,2022.1.3,Win32,30.16136329,629c4b6caf241d5e6e00bfc0,0,25,25,84,1,threeone,,,,,,,,,,,,,,,,,,,,,,,,,,,,,,,,,,,,,,,,,,,,,,,,,,,,,,,,,,,,,,,,,,,,,,,,,,,,,,,,,,,,,,,,,,,,,,,,,,,,,,,,,,,,,,,,,,,,,,,,,,,,,,,,,,,,,,,,,,,,,
,,,,,,5c74d6a50b33c80001323744,629c51d4aaa8d2d26b4b2abb,2022-06-05_08h49.42.711,Colour_Asymmetry_Pilot,2022.1.3,Win32,30.16136329,629c4b6caf241d5e6e00bfc0,0,26,26,21,1,threefour,,,,,,,,,,,,,,,,,,,,,,,,,,,,,,,,,,,,,,,,,,,,,,,,,,,,,,,,,,,,,,,,,,,,,,,,,,,,,,,,,,,,,,,,,,,,,,,,,,,,,,,,,,,,,,,,,,,,,,,,,,,,,,,,,,,,,,,,,,,,,
,,,,,,5c74d6a50b33c80001323744,629c51d4aaa8d2d26b4b2abb,2022-06-05_08h49.42.711,Colour_Asymmetry_Pilot,2022.1.3,Win32,30.16136329,629c4b6caf241d5e6e00bfc0,0,27,27,62,1,fourtwo,,,,,,,,,,,,,,,,,,,,,,,,,,,,,,,,,,,,,,,,,,,,,,,,,,,,,,,,,,,,,,,,,,,,,,,,,,,,,,,,,,,,,,,,,,,,,,,,,,,,,,,,,,,,,,,,,,,,,,,,,,,,,,,,,,,,,,,,,,,,,
,,,,,,5c74d6a50b33c80001323744,629c51d4aaa8d2d26b4b2abb,2022-06-05_08h49.42.711,Colour_Asymmetry_Pilot,2022.1.3,Win32,30.16136329,629c4b6caf241d5e6e00bfc0,0,28,28,24,1,onetwo,,,,,,,,,,,,,,,,,,,,,,,,,,,,,,,,,,,,,,,,,,,,,,,,,,,,,,,,,,,,,,,,,,,,,,,,,,,,,,,,,,,,,,,,,,,,,,,,,,,,,,,,,,,,,,,,,,,,,,,,,,,,,,,,,,,,,,,,,,,,,
,,,,,,5c74d6a50b33c80001323744,629c51d4aaa8d2d26b4b2abb,2022-06-05_08h49.42.711,Colour_Asymmetry_Pilot,2022.1.3,Win32,30.16136329,629c4b6caf241d5e6e00bfc0,0,29,29,108,1,threeone,,,,,,,,,,,,,,,,,,,,,,,,,,,,,,,,,,,,,,,,,,,,,,,,,,,,,,,,,,,,,,,,,,,,,,,,,,,,,,,,,,,,,,,,,,,,,,,,,,,,,,,,,,,,,,,,,,,,,,,,,,,,,,,,,,,,,,,,,,,,,
,,,,,,5c74d6a50b33c80001323744,629c51d4aaa8d2d26b4b2abb,2022-06-05_08h49.42.711,Colour_Asymmetry_Pilot,2022.1.3,Win32,30.16136329,629c4b6caf241d5e6e00bfc0,0,30,30,79,1,fourthree,,,,,,,,,,,,,,,,,,,,,,,,,,,,,,,,,,,,,,,,,,,,,,,,,,,,,,,,,,,,,,,,,,,,,,,,,,,,,,,,,,,,,,,,,,,,,,,,,,,,,,,,,,,,,,,,,,,,,,,,,,,,,,,,,,,,,,,,,,,,,
,,,,,,5c74d6a50b33c80001323744,629c51d4aaa8d2d26b4b2abb,2022-06-05_08h49.42.711,Colour_Asymmetry_Pilot,2022.1.3,Win32,30.16136329,629c4b6caf241d5e6e00bfc0,0,31,31,44,1,threeone,,,,,,,,,,,,,,,,,,,,,,,,,,,,,,,,,,,,,,,,,,,,,,,,,,,,,,,,,,,,,,,,,,,,,,,,,,,,,,,,,,,,,,,,,,,,,,,,,,,,,,,,,,,,,,,,,,,,,,,,,,,,,,,,,,,,,,,,,,,,,
,,,,,,5c74d6a50b33c80001323744,629c51d4aaa8d2d26b4b2abb,2022-06-05_08h49.42.711,Colour_Asymmetry_Pilot,2022.1.3,Win32,30.16136329,629c4b6caf241d5e6e00bfc0,0,32,32,115,1,twofour,,,,,,,,,,,,,,,,,,,,,,,,,,,,,,,,,,,,,,,,,,,,,,,,,,,,,,,,,,,,,,,,,,,,,,,,,,,,,,,,,,,,,,,,,,,,,,,,,,,,,,,,,,,,,,,,,,,,,,,,,,,,,,,,,,,,,,,,,,,,,
,,,,,,5c74d6a50b33c80001323744,629c51d4aaa8d2d26b4b2abb,2022-06-05_08h49.42.711,Colour_Asymmetry_Pilot,2022.1.3,Win32,30.16136329,629c4b6caf241d5e6e00bfc0,0,33,33,111,1,fourthree,,,,,,,,,,,,,,,,,,,,,,,,,,,,,,,,,,,,,,,,,,,,,,,,,,,,,,,,,,,,,,,,,,,,,,,,,,,,,,,,,,,,,,,,,,,,,,,,,,,,,,,,,,,,,,,,,,,,,,,,,,,,,,,,,,,,,,,,,,,,,
,,,,,,5c74d6a50b33c80001323744,629c51d4aaa8d2d26b4b2abb,2022-06-05_08h49.42.711,Colour_Asymmetry_Pilot,2022.1.3,Win32,30.16136329,629c4b6caf241d5e6e00bfc0,0,34,34,69,1,threefour,,,,,,,,,,,,,,,,,,,,,,,,,,,,,,,,,,,,,,,,,,,,,,,,,,,,,,,,,,,,,,,,,,,,,,,,,,,,,,,,,,,,,,,,,,,,,,,,,,,,,,,,,,,,,,,,,,,,,,,,,,,,,,,,,,,,,,,,,,,,,
,,,,,,5c74d6a50b33c80001323744,629c51d4aaa8d2d26b4b2abb,2022-06-05_08h49.42.711,Colour_Asymmetry_Pilot,2022.1.3,Win32,30.16136329,629c4b6caf241d5e6e00bfc0,0,35,35,33,1,onethree,,,,,,,,,,,,,,,,,,,,,,,,,,,,,,,,,,,,,,,,,,,,,,,,,,,,,,,,,,,,,,,,,,,,,,,,,,,,,,,,,,,,,,,,,,,,,,,,,,,,,,,,,,,,,,,,,,,,,,,,,,,,,,,,,,,,,,,,,,,,,
,,,,,,5c74d6a50b33c80001323744,629c51d4aaa8d2d26b4b2abb,2022-06-05_08h49.42.711,Colour_Asymmetry_Pilot,2022.1.3,Win32,30.16136329,629c4b6caf241d5e6e00bfc0,0,36,36,98,1,twoone,,,,,,,,,,,,,,,,,,,,,,,,,,,,,,,,,,,,,,,,,,,,,,,,,,,,,,,,,,,,,,,,,,,,,,,,,,,,,,,,,,,,,,,,,,,,,,,,,,,,,,,,,,,,,,,,,,,,,,,,,,,,,,,,,,,,,,,,,,,,,
,,,,,,5c74d6a50b33c80001323744,629c51d4aaa8d2d26b4b2abb,2022-06-05_08h49.42.711,Colour_Asymmetry_Pilot,2022.1.3,Win32,30.16136329,629c4b6caf241d5e6e00bfc0,0,37,37,139,1,twofour,,,,,,,,,,,,,,,,,,,,,,,,,,,,,,,,,,,,,,,,,,,,,,,,,,,,,,,,,,,,,,,,,,,,,,,,,,,,,,,,,,,,,,,,,,,,,,,,,,,,,,,,,,,,,,,,,,,,,,,,,,,,,,,,,,,,,,,,,,,,,
,,,,,,5c74d6a50b33c80001323744,629c51d4aaa8d2d26b4b2abb,2022-06-05_08h49.42.711,Colour_Asymmetry_Pilot,2022.1.3,Win32,30.16136329,629c4b6caf241d5e6e00bfc0,0,38,38,3,1,twofour,,,,,,,,,,,,,,,,,,,,,,,,,,,,,,,,,,,,,,,,,,,,,,,,,,,,,,,,,,,,,,,,,,,,,,,,,,,,,,,,,,,,,,,,,,,,,,,,,,,,,,,,,,,,,,,,,,,,,,,,,,,,,,,,,,,,,,,,,,,,,
,,,,,,5c74d6a50b33c80001323744,629c51d4aaa8d2d26b4b2abb,2022-06-05_08h49.42.711,Colour_Asymmetry_Pilot,2022.1.3,Win32,30.16136329,629c4b6caf241d5e6e00bfc0,0,39,39,14,1,fourtwo,,,,,,,,,,,,,,,,,,,,,,,,,,,,,,,,,,,,,,,,,,,,,,,,,,,,,,,,,,,,,,,,,,,,,,,,,,,,,,,,,,,,,,,,,,,,,,,,,,,,,,,,,,,,,,,,,,,,,,,,,,,,,,,,,,,,,,,,,,,,,
,,,,,,5c74d6a50b33c80001323744,629c51d4aaa8d2d26b4b2abb,2022-06-05_08h49.42.711,Colour_Asymmetry_Pilot,2022.1.3,Win32,30.16136329,629c4b6caf241d5e6e00bfc0,0,40,40,78,1,fourtwo,,,,,,,,,,,,,,,,,,,,,,,,,,,,,,,,,,,,,,,,,,,,,,,,,,,,,,,,,,,,,,,,,,,,,,,,,,,,,,,,,,,,,,,,,,,,,,,,,,,,,,,,,,,,,,,,,,,,,,,,,,,,,,,,,,,,,,,,,,,,,
,,,,,,5c74d6a50b33c80001323744,629c51d4aaa8d2d26b4b2abb,2022-06-05_08h49.42.711,Colour_Asymmetry_Pilot,2022.1.3,Win32,30.16136329,629c4b6caf241d5e6e00bfc0,0,41,41,16,1,onetwo,,,,,,,,,,,,,,,,,,,,,,,,,,,,,,,,,,,,,,,,,,,,,,,,,,,,,,,,,,,,,,,,,,,,,,,,,,,,,,,,,,,,,,,,,,,,,,,,,,,,,,,,,,,,,,,,,,,,,,,,,,,,,,,,,,,,,,,,,,,,,
,,,,,,5c74d6a50b33c80001323744,629c51d4aaa8d2d26b4b2abb,2022-06-05_08h49.42.711,Colour_Asymmetry_Pilot,2022.1.3,Win32,30.16136329,629c4b6caf241d5e6e00bfc0,0,42,42,37,1,threefour,,,,,,,,,,,,,,,,,,,,,,,,,,,,,,,,,,,,,,,,,,,,,,,,,,,,,,,,,,,,,,,,,,,,,,,,,,,,,,,,,,,,,,,,,,,,,,,,,,,,,,,,,,,,,,,,,,,,,,,,,,,,,,,,,,,,,,,,,,,,,
,,,,,,5c74d6a50b33c80001323744,629c51d4aaa8d2d26b4b2abb,2022-06-05_08h49.42.711,Colour_Asymmetry_Pilot,2022.1.3,Win32,30.16136329,629c4b6caf241d5e6e00bfc0,0,43,43,32,1,onetwo,,,,,,,,,,,,,,,,,,,,,,,,,,,,,,,,,,,,,,,,,,,,,,,,,,,,,,,,,,,,,,,,,,,,,,,,,,,,,,,,,,,,,,,,,,,,,,,,,,,,,,,,,,,,,,,,,,,,,,,,,,,,,,,,,,,,,,,,,,,,,
,,,,,,5c74d6a50b33c80001323744,629c51d4aaa8d2d26b4b2abb,2022-06-05_08h49.42.711,Colour_Asymmetry_Pilot,2022.1.3,Win32,30.16136329,629c4b6caf241d5e6e00bfc0,0,44,44,55,1,fourthree,,,,,,,,,,,,,,,,,,,,,,,,,,,,,,,,,,,,,,,,,,,,,,,,,,,,,,,,,,,,,,,,,,,,,,,,,,,,,,,,,,,,,,,,,,,,,,,,,,,,,,,,,,,,,,,,,,,,,,,,,,,,,,,,,,,,,,,,,,,,,
,,,,,,5c74d6a50b33c80001323744,629c51d4aaa8d2d26b4b2abb,2022-06-05_08h49.42.711,Colour_Asymmetry_Pilot,2022.1.3,Win32,30.16136329,629c4b6caf241d5e6e00bfc0,0,45,45,81,1,onethree,,,,,,,,,,,,,,,,,,,,,,,,,,,,,,,,,,,,,,,,,,,,,,,,,,,,,,,,,,,,,,,,,,,,,,,,,,,,,,,,,,,,,,,,,,,,,,,,,,,,,,,,,,,,,,,,,,,,,,,,,,,,,,,,,,,,,,,,,,,,,
,,,,,,5c74d6a50b33c80001323744,629c51d4aaa8d2d26b4b2abb,2022-06-05_08h49.42.711,Colour_Asymmetry_Pilot,2022.1.3,Win32,30.16136329,629c4b6caf241d5e6e00bfc0,0,46,46,136,1,onetwo,,,,,,,,,,,,,,,,,,,,,,,,,,,,,,,,,,,,,,,,,,,,,,,,,,,,,,,,,,,,,,,,,,,,,,,,,,,,,,,,,,,,,,,,,,,,,,,,,,,,,,,,,,,,,,,,,,,,,,,,,,,,,,,,,,,,,,,,,,,,,
,,,,,,5c74d6a50b33c80001323744,629c51d4aaa8d2d26b4b2abb,2022-06-05_08h49.42.711,Colour_Asymmetry_Pilot,2022.1.3,Win32,30.16136329,629c4b6caf241d5e6e00bfc0,0,47,47,30,1,fourtwo,,,,,,,,,,,,,,,,,,,,,,,,,,,,,,,,,,,,,,,,,,,,,,,,,,,,,,,,,,,,,,,,,,,,,,,,,,,,,,,,,,,,,,,,,,,,,,,,,,,,,,,,,,,,,,,,,,,,,,,,,,,,,,,,,,,,,,,,,,,,,
,,,,,,5c74d6a50b33c80001323744,629c51d4aaa8d2d26b4b2abb,2022-06-05_08h49.42.711,Colour_Asymmetry_Pilot,2022.1.3,Win32,30.16136329,629c4b6caf241d5e6e00bfc0,0,48,48,156,1,threeone,,,,,,,,,,,,,,,,,,,,,,,,,,,,,,,,,,,,,,,,,,,,,,,,,,,,,,,,,,,,,,,,,,,,,,,,,,,,,,,,,,,,,,,,,,,,,,,,,,,,,,,,,,,,,,,,,,,,,,,,,,,,,,,,,,,,,,,,,,,,,
,,,,,,5c74d6a50b33c80001323744,629c51d4aaa8d2d26b4b2abb,2022-06-05_08h49.42.711,Colour_Asymmetry_Pilot,2022.1.3,Win32,30.16136329,629c4b6caf241d5e6e00bfc0,0,49,49,48,1,onetwo,,,,,,,,,,,,,,,,,,,,,,,,,,,,,,,,,,,,,,,,,,,,,,,,,,,,,,,,,,,,,,,,,,,,,,,,,,,,,,,,,,,,,,,,,,,,,,,,,,,,,,,,,,,,,,,,,,,,,,,,,,,,,,,,,,,,,,,,,,,,,
,,,,,,5c74d6a50b33c80001323744,629c51d4aaa8d2d26b4b2abb,2022-06-05_08h49.42.711,Colour_Asymmetry_Pilot,2022.1.3,Win32,30.16136329,629c4b6caf241d5e6e00bfc0,0,50,50,129,1,onethree,,,,,,,,,,,,,,,,,,,,,,,,,,,,,,,,,,,,,,,,,,,,,,,,,,,,,,,,,,,,,,,,,,,,,,,,,,,,,,,,,,,,,,,,,,,,,,,,,,,,,,,,,,,,,,,,,,,,,,,,,,,,,,,,,,,,,,,,,,,,,
,,,,,,5c74d6a50b33c80001323744,629c51d4aaa8d2d26b4b2abb,2022-06-05_08h49.42.711,Colour_Asymmetry_Pilot,2022.1.3,Win32,30.16136329,629c4b6caf241d5e6e00bfc0,0,51,51,91,1,twofour,,,,,,,,,,,,,,,,,,,,,,,,,,,,,,,,,,,,,,,,,,,,,,,,,,,,,,,,,,,,,,,,,,,,,,,,,,,,,,,,,,,,,,,,,,,,,,,,,,,,,,,,,,,,,,,,,,,,,,,,,,,,,,,,,,,,,,,,,,,,,
,,,,,,5c74d6a50b33c80001323744,629c51d4aaa8d2d26b4b2abb,2022-06-05_08h49.42.711,Colour_Asymmetry_Pilot,2022.1.3,Win32,30.16136329,629c4b6caf241d5e6e00bfc0,0,52,52,7,1,fourthree,,,,,,,,,,,,,,,,,,,,,,,,,,,,,,,,,,,,,,,,,,,,,,,,,,,,,,,,,,,,,,,,,,,,,,,,,,,,,,,,,,,,,,,,,,,,,,,,,,,,,,,,,,,,,,,,,,,,,,,,,,,,,,,,,,,,,,,,,,,,,
,,,,,,5c74d6a50b33c80001323744,629c51d4aaa8d2d26b4b2abb,2022-06-05_08h49.42.711,Colour_Asymmetry_Pilot,2022.1.3,Win32,30.16136329,629c4b6caf241d5e6e00bfc0,0,53,53,151,1,fourthree,,,,,,,,,,,,,,,,,,,,,,,,,,,,,,,,,,,,,,,,,,,,,,,,,,,,,,,,,,,,,,,,,,,,,,,,,,,,,,,,,,,,,,,,,,,,,,,,,,,,,,,,,,,,,,,,,,,,,,,,,,,,,,,,,,,,,,,,,,,,,
,,,,,,5c74d6a50b33c80001323744,629c51d4aaa8d2d26b4b2abb,2022-06-05_08h49.42.711,Colour_Asymmetry_Pilot,2022.1.3,Win32,30.16136329,629c4b6caf241d5e6e00bfc0,0,54,54,61,1,threefour,,,,,,,,,,,,,,,,,,,,,,,,,,,,,,,,,,,,,,,,,,,,,,,,,,,,,,,,,,,,,,,,,,,,,,,,,,,,,,,,,,,,,,,,,,,,,,,,,,,,,,,,,,,,,,,,,,,,,,,,,,,,,,,,,,,,,,,,,,,,,
,,,,,,5c74d6a50b33c80001323744,629c51d4aaa8d2d26b4b2abb,2022-06-05_08h49.42.711,Colour_Asymmetry_Pilot,2022.1.3,Win32,30.16136329,629c4b6caf241d5e6e00bfc0,0,55,55,20,1,threeone,,,,,,,,,,,,,,,,,,,,,,,,,,,,,,,,,,,,,,,,,,,,,,,,,,,,,,,,,,,,,,,,,,,,,,,,,,,,,,,,,,,,,,,,,,,,,,,,,,,,,,,,,,,,,,,,,,,,,,,,,,,,,,,,,,,,,,,,,,,,,
,,,,,,5c74d6a50b33c80001323744,629c51d4aaa8d2d26b4b2abb,2022-06-05_08h49.42.711,Colour_Asymmetry_Pilot,2022.1.3,Win32,30.16136329,629c4b6caf241d5e6e00bfc0,0,56,56,131,1,twofour,,,,,,,,,,,,,,,,,,,,,,,,,,,,,,,,,,,,,,,,,,,,,,,,,,,,,,,,,,,,,,,,,,,,,,,,,,,,,,,,,,,,,,,,,,,,,,,,,,,,,,,,,,,,,,,,,,,,,,,,,,,,,,,,,,,,,,,,,,,,,
,,,,,,5c74d6a50b33c80001323744,629c51d4aaa8d2d26b4b2abb,2022-06-05_08h49.42.711,Colour_Asymmetry_Pilot,2022.1.3,Win32,30.16136329,629c4b6caf241d5e6e00bfc0,0,57,57,23,1,fourthree,,,,,,,,,,,,,,,,,,,,,,,,,,,,,,,,,,,,,,,,,,,,,,,,,,,,,,,,,,,,,,,,,,,,,,,,,,,,,,,,,,,,,,,,,,,,,,,,,,,,,,,,,,,,,,,,,,,,,,,,,,,,,,,,,,,,,,,,,,,,,
,,,,,,5c74d6a50b33c80001323744,629c51d4aaa8d2d26b4b2abb,2022-06-05_08h49.42.711,Colour_Asymmetry_Pilot,2022.1.3,Win32,30.16136329,629c4b6caf241d5e6e00bfc0,0,58,58,120,1,onetwo,,,,,,,,,,,,,,,,,,,,,,,,,,,,,,,,,,,,,,,,,,,,,,,,,,,,,,,,,,,,,,,,,,,,,,,,,,,,,,,,,,,,,,,,,,,,,,,,,,,,,,,,,,,,,,,,,,,,,,,,,,,,,,,,,,,,,,,,,,,,,
,,,,,,5c74d6a50b33c80001323744,629c51d4aaa8d2d26b4b2abb,2022-06-05_08h49.42.711,Colour_Asymmetry_Pilot,2022.1.3,Win32,30.16136329,629c4b6caf241d5e6e00bfc0,0,59,59,25,1,onethree,,,,,,,,,,,,,,,,,,,,,,,,,,,,,,,,,,,,,,,,,,,,,,,,,,,,,,,,,,,,,,,,,,,,,,,,,,,,,,,,,,,,,,,,,,,,,,,,,,,,,,,,,,,,,,,,,,,,,,,,,,,,,,,,,,,,,,,,,,,,,
,,,,,,5c74d6a50b33c80001323744,629c51d4aaa8d2d26b4b2abb,2022-06-05_08h49.42.711,Colour_Asymmetry_Pilot,2022.1.3,Win32,30.16136329,629c4b6caf241d5e6e00bfc0,0,60,60,143,1,fourthree,,,,,,,,,,,,,,,,,,,,,,,,,,,,,,,,,,,,,,,,,,,,,,,,,,,,,,,,,,,,,,,,,,,,,,,,,,,,,,,,,,,,,,,,,,,,,,,,,,,,,,,,,,,,,,,,,,,,,,,,,,,,,,,,,,,,,,,,,,,,,
,,,,,,5c74d6a50b33c80001323744,629c51d4aaa8d2d26b4b2abb,2022-06-05_08h49.42.711,Colour_Asymmetry_Pilot,2022.1.3,Win32,30.16136329,629c4b6caf241d5e6e00bfc0,0,61,61,140,1,threeone,,,,,,,,,,,,,,,,,,,,,,,,,,,,,,,,,,,,,,,,,,,,,,,,,,,,,,,,,,,,,,,,,,,,,,,,,,,,,,,,,,,,,,,,,,,,,,,,,,,,,,,,,,,,,,,,,,,,,,,,,,,,,,,,,,,,,,,,,,,,,
,,,,,,5c74d6a50b33c80001323744,629c51d4aaa8d2d26b4b2abb,2022-06-05_08h49.42.711,Colour_Asymmetry_Pilot,2022.1.3,Win32,30.16136329,629c4b6caf241d5e6e00bfc0,0,62,62,57,1,onethree,,,,,,,,,,,,,,,,,,,,,,,,,,,,,,,,,,,,,,,,,,,,,,,,,,,,,,,,,,,,,,,,,,,,,,,,,,,,,,,,,,,,,,,,,,,,,,,,,,,,,,,,,,,,,,,,,,,,,,,,,,,,,,,,,,,,,,,,,,,,,
,,,,,,5c74d6a50b33c80001323744,629c51d4aaa8d2d26b4b2abb,2022-06-05_08h49.42.711,Colour_Asymmetry_Pilot,2022.1.3,Win32,30.16136329,629c4b6caf241d5e6e00bfc0,0,63,63,59,1,twofour,,,,,,,,,,,,,,,,,,,,,,,,,,,,,,,,,,,,,,,,,,,,,,,,,,,,,,,,,,,,,,,,,,,,,,,,,,,,,,,,,,,,,,,,,,,,,,,,,,,,,,,,,,,,,,,,,,,,,,,,,,,,,,,,,,,,,,,,,,,,,
,,,,,,5c74d6a50b33c80001323744,629c51d4aaa8d2d26b4b2abb,2022-06-05_08h49.42.711,Colour_Asymmetry_Pilot,2022.1.3,Win32,30.16136329,629c4b6caf241d5e6e00bfc0,0,64,64,160,1,onetwo,,,,,,,,,,,,,,,,,,,,,,,,,,,,,,,,,,,,,,,,,,,,,,,,,,,,,,,,,,,,,,,,,,,,,,,,,,,,,,,,,,,,,,,,,,,,,,,,,,,,,,,,,,,,,,,,,,,,,,,,,,,,,,,,,,,,,,,,,,,,,
,,,,,,5c74d6a50b33c80001323744,629c51d4aaa8d2d26b4b2abb,2022-06-05_08h49.42.711,Colour_Asymmetry_Pilot,2022.1.3,Win32,30.16136329,629c4b6caf241d5e6e00bfc0,0,65,65,47,1,fourthree,,,,,,,,,,,,,,,,,,,,,,,,,,,,,,,,,,,,,,,,,,,,,,,,,,,,,,,,,,,,,,,,,,,,,,,,,,,,,,,,,,,,,,,,,,,,,,,,,,,,,,,,,,,,,,,,,,,,,,,,,,,,,,,,,,,,,,,,,,,,,
,,,,,,5c74d6a50b33c80001323744,629c51d4aaa8d2d26b4b2abb,2022-06-05_08h49.42.711,Colour_Asymmetry_Pilot,2022.1.3,Win32,30.16136329,629c4b6caf241d5e6e00bfc0,0,66,66,90,1,twoone,,,,,,,,,,,,,,,,,,,,,,,,,,,,,,,,,,,,,,,,,,,,,,,,,,,,,,,,,,,,,,,,,,,,,,,,,,,,,,,,,,,,,,,,,,,,,,,,,,,,,,,,,,,,,,,,,,,,,,,,,,,,,,,,,,,,,,,,,,,,,
,,,,,,5c74d6a50b33c80001323744,629c51d4aaa8d2d26b4b2abb,2022-06-05_08h49.42.711,Colour_Asymmetry_Pilot,2022.1.3,Win32,30.16136329,629c4b6caf241d5e6e00bfc0,0,67,67,159,1,fourthree,,,,,,,,,,,,,,,,,,,,,,,,,,,,,,,,,,,,,,,,,,,,,,,,,,,,,,,,,,,,,,,,,,,,,,,,,,,,,,,,,,,,,,,,,,,,,,,,,,,,,,,,,,,,,,,,,,,,,,,,,,,,,,,,,,,,,,,,,,,,,
,,,,,,5c74d6a50b33c80001323744,629c51d4aaa8d2d26b4b2abb,2022-06-05_08h49.42.711,Colour_Asymmetry_Pilot,2022.1.3,Win32,30.16136329,629c4b6caf241d5e6e00bfc0,0,68,68,104,1,onetwo,,,,,,,,,,,,,,,,,,,,,,,,,,,,,,,,,,,,,,,,,,,,,,,,,,,,,,,,,,,,,,,,,,,,,,,,,,,,,,,,,,,,,,,,,,,,,,,,,,,,,,,,,,,,,,,,,,,,,,,,,,,,,,,,,,,,,,,,,,,,,
,,,,,,5c74d6a50b33c80001323744,629c51d4aaa8d2d26b4b2abb,2022-06-05_08h49.42.711,Colour_Asymmetry_Pilot,2022.1.3,Win32,30.16136329,629c4b6caf241d5e6e00bfc0,0,69,69,116,1,threeone,,,,,,,,,,,,,,,,,,,,,,,,,,,,,,,,,,,,,,,,,,,,,,,,,,,,,,,,,,,,,,,,,,,,,,,,,,,,,,,,,,,,,,,,,,,,,,,,,,,,,,,,,,,,,,,,,,,,,,,,,,,,,,,,,,,,,,,,,,,,,
,,,,,,5c74d6a50b33c80001323744,629c51d4aaa8d2d26b4b2abb,2022-06-05_08h49.42.711,Colour_Asymmetry_Pilot,2022.1.3,Win32,30.16136329,629c4b6caf241d5e6e00bfc0,0,70,70,82,1,twoone,,,,,,,,,,,,,,,,,,,,,,,,,,,,,,,,,,,,,,,,,,,,,,,,,,,,,,,,,,,,,,,,,,,,,,,,,,,,,,,,,,,,,,,,,,,,,,,,,,,,,,,,,,,,,,,,,,,,,,,,,,,,,,,,,,,,,,,,,,,,,
,,,,,,5c74d6a50b33c80001323744,629c51d4aaa8d2d26b4b2abb,2022-06-05_08h49.42.711,Colour_Asymmetry_Pilot,2022.1.3,Win32,30.16136329,629c4b6caf241d5e6e00bfc0,0,71,71,106,1,twoone,,,,,,,,,,,,,,,,,,,,,,,,,,,,,,,,,,,,,,,,,,,,,,,,,,,,,,,,,,,,,,,,,,,,,,,,,,,,,,,,,,,,,,,,,,,,,,,,,,,,,,,,,,,,,,,,,,,,,,,,,,,,,,,,,,,,,,,,,,,,,
,,,,,,5c74d6a50b33c80001323744,629c51d4aaa8d2d26b4b2abb,2022-06-05_08h49.42.711,Colour_Asymmetry_Pilot,2022.1.3,Win32,30.16136329,629c4b6caf241d5e6e00bfc0,0,72,72,63,1,fourthree,,,,,,,,,,,,,,,,,,,,,,,,,,,,,,,,,,,,,,,,,,,,,,,,,,,,,,,,,,,,,,,,,,,,,,,,,,,,,,,,,,,,,,,,,,,,,,,,,,,,,,,,,,,,,,,,,,,,,,,,,,,,,,,,,,,,,,,,,,,,,
,,,,,,5c74d6a50b33c80001323744,629c51d4aaa8d2d26b4b2abb,2022-06-05_08h49.42.711,Colour_Asymmetry_Pilot,2022.1.3,Win32,30.16136329,629c4b6caf241d5e6e00bfc0,0,73,73,54,1,fourtwo,,,,,,,,,,,,,,,,,,,,,,,,,,,,,,,,,,,,,,,,,,,,,,,,,,,,,,,,,,,,,,,,,,,,,,,,,,,,,,,,,,,,,,,,,,,,,,,,,,,,,,,,,,,,,,,,,,,,,,,,,,,,,,,,,,,,,,,,,,,,,
,,,,,,5c74d6a50b33c80001323744,629c51d4aaa8d2d26b4b2abb,2022-06-05_08h49.42.711,Colour_Asymmetry_Pilot,2022.1.3,Win32,30.16136329,629c4b6caf241d5e6e00bfc0,0,74,74,112,1,onetwo,,,,,,,,,,,,,,,,,,,,,,,,,,,,,,,,,,,,,,,,,,,,,,,,,,,,,,,,,,,,,,,,,,,,,,,,,,,,,,,,,,,,,,,,,,,,,,,,,,,,,,,,,,,,,,,,,,,,,,,,,,,,,,,,,,,,,,,,,,,,,
,,,,,,5c74d6a50b33c80001323744,629c51d4aaa8d2d26b4b2abb,2022-06-05_08h49.42.711,Colour_Asymmetry_Pilot,2022.1.3,Win32,30.16136329,629c4b6caf241d5e6e00bfc0,0,75,75,52,1,threeone,,,,,,,,,,,,,,,,,,,,,,,,,,,,,,,,,,,,,,,,,,,,,,,,,,,,,,,,,,,,,,,,,,,,,,,,,,,,,,,,,,,,,,,,,,,,,,,,,,,,,,,,,,,,,,,,,,,,,,,,,,,,,,,,,,,,,,,,,,,,,
,,,,,,5c74d6a50b33c80001323744,629c51d4aaa8d2d26b4b2abb,2022-06-05_08h49.42.711,Colour_Asymmetry_Pilot,2022.1.3,Win32,30.16136329,629c4b6caf241d5e6e00bfc0,0,76,76,68,1,threeone,,,,,,,,,,,,,,,,,,,,,,,,,,,,,,,,,,,,,,,,,,,,,,,,,,,,,,,,,,,,,,,,,,,,,,,,,,,,,,,,,,,,,,,,,,,,,,,,,,,,,,,,,,,,,,,,,,,,,,,,,,,,,,,,,,,,,,,,,,,,,
,,,,,,5c74d6a50b33c80001323744,629c51d4aaa8d2d26b4b2abb,2022-06-05_08h49.42.711,Colour_Asymmetry_Pilot,2022.1.3,Win32,30.16136329,629c4b6caf241d5e6e00bfc0,0,77,77,138,1,twoone,,,,,,,,,,,,,,,,,,,,,,,,,,,,,,,,,,,,,,,,,,,,,,,,,,,,,,,,,,,,,,,,,,,,,,,,,,,,,,,,,,,,,,,,,,,,,,,,,,,,,,,,,,,,,,,,,,,,,,,,,,,,,,,,,,,,,,,,,,,,,
,,,,,,5c74d6a50b33c80001323744,629c51d4aaa8d2d26b4b2abb,2022-06-05_08h49.42.711,Colour_Asymmetry_Pilot,2022.1.3,Win32,30.16136329,629c4b6caf241d5e6e00bfc0,0,78,78,10,1,twoone,,,,,,,,,,,,,,,,,,,,,,,,,,,,,,,,,,,,,,,,,,,,,,,,,,,,,,,,,,,,,,,,,,,,,,,,,,,,,,,,,,,,,,,,,,,,,,,,,,,,,,,,,,,,,,,,,,,,,,,,,,,,,,,,,,,,,,,,,,,,,
,,,,,,5c74d6a50b33c80001323744,629c51d4aaa8d2d26b4b2abb,2022-06-05_08h49.42.711,Colour_Asymmetry_Pilot,2022.1.3,Win32,30.16136329,629c4b6caf241d5e6e00bfc0,0,79,79,153,1,onethree,,,,,,,,,,,,,,,,,,,,,,,,,,,,,,,,,,,,,,,,,,,,,,,,,,,,,,,,,,,,,,,,,,,,,,,,,,,,,,,,,,,,,,,,,,,,,,,,,,,,,,,,,,,,,,,,,,,,,,,,,,,,,,,,,,,,,,,,,,,,,
,,,,,,5c74d6a50b33c80001323744,629c51d4aaa8d2d26b4b2abb,2022-06-05_08h49.42.711,Colour_Asymmetry_Pilot,2022.1.3,Win32,30.16136329,629c4b6caf241d5e6e00bfc0,0,80,80,103,1,fourthree,,,,,,,,,,,,,,,,,,,,,,,,,,,,,,,,,,,,,,,,,,,,,,,,,,,,,,,,,,,,,,,,,,,,,,,,,,,,,,,,,,,,,,,,,,,,,,,,,,,,,,,,,,,,,,,,,,,,,,,,,,,,,,,,,,,,,,,,,,,,,
,,,,,,5c74d6a50b33c80001323744,629c51d4aaa8d2d26b4b2abb,2022-06-05_08h49.42.711,Colour_Asymmetry_Pilot,2022.1.3,Win32,30.16136329,629c4b6caf241d5e6e00bfc0,0,81,81,125,1,threefour,,,,,,,,,,,,,,,,,,,,,,,,,,,,,,,,,,,,,,,,,,,,,,,,,,,,,,,,,,,,,,,,,,,,,,,,,,,,,,,,,,,,,,,,,,,,,,,,,,,,,,,,,,,,,,,,,,,,,,,,,,,,,,,,,,,,,,,,,,,,,
,,,,,,5c74d6a50b33c80001323744,629c51d4aaa8d2d26b4b2abb,2022-06-05_08h49.42.711,Colour_Asymmetry_Pilot,2022.1.3,Win32,30.16136329,629c4b6caf241d5e6e00bfc0,0,82,82,65,1,onethree,,,,,,,,,,,,,,,,,,,,,,,,,,,,,,,,,,,,,,,,,,,,,,,,,,,,,,,,,,,,,,,,,,,,,,,,,,,,,,,,,,,,,,,,,,,,,,,,,,,,,,,,,,,,,,,,,,,,,,,,,,,,,,,,,,,,,,,,,,,,,
,,,,,,5c74d6a50b33c80001323744,629c51d4aaa8d2d26b4b2abb,2022-06-05_08h49.42.711,Colour_Asymmetry_Pilot,2022.1.3,Win32,30.16136329,629c4b6caf241d5e6e00bfc0,0,83,83,145,1,onethree,,,,,,,,,,,,,,,,,,,,,,,,,,,,,,,,,,,,,,,,,,,,,,,,,,,,,,,,,,,,,,,,,,,,,,,,,,,,,,,,,,,,,,,,,,,,,,,,,,,,,,,,,,,,,,,,,,,,,,,,,,,,,,,,,,,,,,,,,,,,,
,,,,,,5c74d6a50b33c80001323744,629c51d4aaa8d2d26b4b2abb,2022-06-05_08h49.42.711,Colour_Asymmetry_Pilot,2022.1.3,Win32,30.16136329,629c4b6caf241d5e6e00bfc0,0,84,84,105,1,onethree,,,,,,,,,,,,,,,,,,,,,,,,,,,,,,,,,,,,,,,,,,,,,,,,,,,,,,,,,,,,,,,,,,,,,,,,,,,,,,,,,,,,,,,,,,,,,,,,,,,,,,,,,,,,,,,,,,,,,,,,,,,,,,,,,,,,,,,,,,,,,
,,,,,,5c74d6a50b33c80001323744,629c51d4aaa8d2d26b4b2abb,2022-06-05_08h49.42.711,Colour_Asymmetry_Pilot,2022.1.3,Win32,30.16136329,629c4b6caf241d5e6e00bfc0,0,85,85,132,1,threeone,,,,,,,,,,,,,,,,,,,,,,,,,,,,,,,,,,,,,,,,,,,,,,,,,,,,,,,,,,,,,,,,,,,,,,,,,,,,,,,,,,,,,,,,,,,,,,,,,,,,,,,,,,,,,,,,,,,,,,,,,,,,,,,,,,,,,,,,,,,,,
,,,,,,5c74d6a50b33c80001323744,629c51d4aaa8d2d26b4b2abb,2022-06-05_08h49.42.711,Colour_Asymmetry_Pilot,2022.1.3,Win32,30.16136329,629c4b6caf241d5e6e00bfc0,0,86,86,35,1,twofour,,,,,,,,,,,,,,,,,,,,,,,,,,,,,,,,,,,,,,,,,,,,,,,,,,,,,,,,,,,,,,,,,,,,,,,,,,,,,,,,,,,,,,,,,,,,,,,,,,,,,,,,,,,,,,,,,,,,,,,,,,,,,,,,,,,,,,,,,,,,,
,,,,,,5c74d6a50b33c80001323744,629c51d4aaa8d2d26b4b2abb,2022-06-05_08h49.42.711,Colour_Asymmetry_Pilot,2022.1.3,Win32,30.16136329,629c4b6caf241d5e6e00bfc0,0,87,87,8,1,onetwo,,,,,,,,,,,,,,,,,,,,,,,,,,,,,,,,,,,,,,,,,,,,,,,,,,,,,,,,,,,,,,,,,,,,,,,,,,,,,,,,,,,,,,,,,,,,,,,,,,,,,,,,,,,,,,,,,,,,,,,,,,,,,,,,,,,,,,,,,,,,,
,,,,,,5c74d6a50b33c80001323744,629c51d4aaa8d2d26b4b2abb,2022-06-05_08h49.42.711,Colour_Asymmetry_Pilot,2022.1.3,Win32,30.16136329,629c4b6caf241d5e6e00bfc0,0,88,88,58,1,twoone,,,,,,,,,,,,,,,,,,,,,,,,,,,,,,,,,,,,,,,,,,,,,,,,,,,,,,,,,,,,,,,,,,,,,,,,,,,,,,,,,,,,,,,,,,,,,,,,,,,,,,,,,,,,,,,,,,,,,,,,,,,,,,,,,,,,,,,,,,,,,
,,,,,,5c74d6a50b33c80001323744,629c51d4aaa8d2d26b4b2abb,2022-06-05_08h49.42.711,Colour_Asymmetry_Pilot,2022.1.3,Win32,30.16136329,629c4b6caf241d5e6e00bfc0,0,89,89,133,1,threefour,,,,,,,,,,,,,,,,,,,,,,,,,,,,,,,,,,,,,,,,,,,,,,,,,,,,,,,,,,,,,,,,,,,,,,,,,,,,,,,,,,,,,,,,,,,,,,,,,,,,,,,,,,,,,,,,,,,,,,,,,,,,,,,,,,,,,,,,,,,,,
,,,,,,5c74d6a50b33c80001323744,629c51d4aaa8d2d26b4b2abb,2022-06-05_08h49.42.711,Colour_Asymmetry_Pilot,2022.1.3,Win32,30.16136329,629c4b6caf241d5e6e00bfc0,0,90,90,66,1,twoone,,,,,,,,,,,,,,,,,,,,,,,,,,,,,,,,,,,,,,,,,,,,,,,,,,,,,,,,,,,,,,,,,,,,,,,,,,,,,,,,,,,,,,,,,,,,,,,,,,,,,,,,,,,,,,,,,,,,,,,,,,,,,,,,,,,,,,,,,,,,,
,,,,,,5c74d6a50b33c80001323744,629c51d4aaa8d2d26b4b2abb,2022-06-05_08h49.42.711,Colour_Asymmetry_Pilot,2022.1.3,Win32,30.16136329,629c4b6caf241d5e6e00bfc0,0,91,91,119,1,fourthree,,,,,,,,,,,,,,,,,,,,,,,,,,,,,,,,,,,,,,,,,,,,,,,,,,,,,,,,,,,,,,,,,,,,,,,,,,,,,,,,,,,,,,,,,,,,,,,,,,,,,,,,,,,,,,,,,,,,,,,,,,,,,,,,,,,,,,,,,,,,,
,,,,,,5c74d6a50b33c80001323744,629c51d4aaa8d2d26b4b2abb,2022-06-05_08h49.42.711,Colour_Asymmetry_Pilot,2022.1.3,Win32,30.16136329,629c4b6caf241d5e6e00bfc0,0,92,92,97,1,onethree,,,,,,,,,,,,,,,,,,,,,,,,,,,,,,,,,,,,,,,,,,,,,,,,,,,,,,,,,,,,,,,,,,,,,,,,,,,,,,,,,,,,,,,,,,,,,,,,,,,,,,,,,,,,,,,,,,,,,,,,,,,,,,,,,,,,,,,,,,,,,
,,,,,,5c74d6a50b33c80001323744,629c51d4aaa8d2d26b4b2abb,2022-06-05_08h49.42.711,Colour_Asymmetry_Pilot,2022.1.3,Win32,30.16136329,629c4b6caf241d5e6e00bfc0,0,93,93,18,1,twoone,,,,,,,,,,,,,,,,,,,,,,,,,,,,,,,,,,,,,,,,,,,,,,,,,,,,,,,,,,,,,,,,,,,,,,,,,,,,,,,,,,,,,,,,,,,,,,,,,,,,,,,,,,,,,,,,,,,,,,,,,,,,,,,,,,,,,,,,,,,,,
,,,,,,5c74d6a50b33c80001323744,629c51d4aaa8d2d26b4b2abb,2022-06-05_08h49.42.711,Colour_Asymmetry_Pilot,2022.1.3,Win32,30.16136329,629c4b6caf241d5e6e00bfc0,0,94,94,75,1,twofour,,,,,,,,,,,,,,,,,,,,,,,,,,,,,,,,,,,,,,,,,,,,,,,,,,,,,,,,,,,,,,,,,,,,,,,,,,,,,,,,,,,,,,,,,,,,,,,,,,,,,,,,,,,,,,,,,,,,,,,,,,,,,,,,,,,,,,,,,,,,,
,,,,,,5c74d6a50b33c80001323744,629c51d4aaa8d2d26b4b2abb,2022-06-05_08h49.42.711,Colour_Asymmetry_Pilot,2022.1.3,Win32,30.16136329,629c4b6caf241d5e6e00bfc0,0,95,95,17,1,onethree,,,,,,,,,,,,,,,,,,,,,,,,,,,,,,,,,,,,,,,,,,,,,,,,,,,,,,,,,,,,,,,,,,,,,,,,,,,,,,,,,,,,,,,,,,,,,,,,,,,,,,,,,,,,,,,,,,,,,,,,,,,,,,,,,,,,,,,,,,,,,
,,,,,,5c74d6a50b33c80001323744,629c51d4aaa8d2d26b4b2abb,2022-06-05_08h49.42.711,Colour_Asymmetry_Pilot,2022.1.3,Win32,30.16136329,629c4b6caf241d5e6e00bfc0,0,96,96,141,1,threefour,,,,,,,,,,,,,,,,,,,,,,,,,,,,,,,,,,,,,,,,,,,,,,,,,,,,,,,,,,,,,,,,,,,,,,,,,,,,,,,,,,,,,,,,,,,,,,,,,,,,,,,,,,,,,,,,,,,,,,,,,,,,,,,,,,,,,,,,,,,,,
,,,,,,5c74d6a50b33c80001323744,629c51d4aaa8d2d26b4b2abb,2022-06-05_08h49.42.711,Colour_Asymmetry_Pilot,2022.1.3,Win32,30.16136329,629c4b6caf241d5e6e00bfc0,0,97,97,39,1,fourthree,,,,,,,,,,,,,,,,,,,,,,,,,,,,,,,,,,,,,,,,,,,,,,,,,,,,,,,,,,,,,,,,,,,,,,,,,,,,,,,,,,,,,,,,,,,,,,,,,,,,,,,,,,,,,,,,,,,,,,,,,,,,,,,,,,,,,,,,,,,,,
,,,,,,5c74d6a50b33c80001323744,629c51d4aaa8d2d26b4b2abb,2022-06-05_08h49.42.711,Colour_Asymmetry_Pilot,2022.1.3,Win32,30.16136329,629c4b6caf241d5e6e00bfc0,0,98,98,158,1,fourtwo,,,,,,,,,,,,,,,,,,,,,,,,,,,,,,,,,,,,,,,,,,,,,,,,,,,,,,,,,,,,,,,,,,,,,,,,,,,,,,,,,,,,,,,,,,,,,,,,,,,,,,,,,,,,,,,,,,,,,,,,,,,,,,,,,,,,,,,,,,,,,
,,,,,,5c74d6a50b33c80001323744,629c51d4aaa8d2d26b4b2abb,2022-06-05_08h49.42.711,Colour_Asymmetry_Pilot,2022.1.3,Win32,30.16136329,629c4b6caf241d5e6e00bfc0,0,99,99,72,1,onetwo,,,,,,,,,,,,,,,,,,,,,,,,,,,,,,,,,,,,,,,,,,,,,,,,,,,,,,,,,,,,,,,,,,,,,,,,,,,,,,,,,,,,,,,,,,,,,,,,,,,,,,,,,,,,,,,,,,,,,,,,,,,,,,,,,,,,,,,,,,,,,
,,,,,,5c74d6a50b33c80001323744,629c51d4aaa8d2d26b4b2abb,2022-06-05_08h49.42.711,Colour_Asymmetry_Pilot,2022.1.3,Win32,30.16136329,629c4b6caf241d5e6e00bfc0,0,100,100,127,1,fourthree,,,,,,,,,,,,,,,,,,,,,,,,,,,,,,,,,,,,,,,,,,,,,,,,,,,,,,,,,,,,,,,,,,,,,,,,,,,,,,,,,,,,,,,,,,,,,,,,,,,,,,,,,,,,,,,,,,,,,,,,,,,,,,,,,,,,,,,,,,,,,
,,,,,,5c74d6a50b33c80001323744,629c51d4aaa8d2d26b4b2abb,2022-06-05_08h49.42.711,Colour_Asymmetry_Pilot,2022.1.3,Win32,30.16136329,629c4b6caf241d5e6e00bfc0,0,101,101,147,1,twofour,,,,,,,,,,,,,,,,,,,,,,,,,,,,,,,,,,,,,,,,,,,,,,,,,,,,,,,,,,,,,,,,,,,,,,,,,,,,,,,,,,,,,,,,,,,,,,,,,,,,,,,,,,,,,,,,,,,,,,,,,,,,,,,,,,,,,,,,,,,,,
,,,,,,5c74d6a50b33c80001323744,629c51d4aaa8d2d26b4b2abb,2022-06-05_08h49.42.711,Colour_Asymmetry_Pilot,2022.1.3,Win32,30.16136329,629c4b6caf241d5e6e00bfc0,0,102,102,152,1,onetwo,,,,,,,,,,,,,,,,,,,,,,,,,,,,,,,,,,,,,,,,,,,,,,,,,,,,,,,,,,,,,,,,,,,,,,,,,,,,,,,,,,,,,,,,,,,,,,,,,,,,,,,,,,,,,,,,,,,,,,,,,,,,,,,,,,,,,,,,,,,,,
,,,,,,5c74d6a50b33c80001323744,629c51d4aaa8d2d26b4b2abb,2022-06-05_08h49.42.711,Colour_Asymmetry_Pilot,2022.1.3,Win32,30.16136329,629c4b6caf241d5e6e00bfc0,0,103,103,11,1,twofour,,,,,,,,,,,,,,,,,,,,,,,,,,,,,,,,,,,,,,,,,,,,,,,,,,,,,,,,,,,,,,,,,,,,,,,,,,,,,,,,,,,,,,,,,,,,,,,,,,,,,,,,,,,,,,,,,,,,,,,,,,,,,,,,,,,,,,,,,,,,,
,,,,,,5c74d6a50b33c80001323744,629c51d4aaa8d2d26b4b2abb,2022-06-05_08h49.42.711,Colour_Asymmetry_Pilot,2022.1.3,Win32,30.16136329,629c4b6caf241d5e6e00bfc0,0,104,104,93,1,threefour,,,,,,,,,,,,,,,,,,,,,,,,,,,,,,,,,,,,,,,,,,,,,,,,,,,,,,,,,,,,,,,,,,,,,,,,,,,,,,,,,,,,,,,,,,,,,,,,,,,,,,,,,,,,,,,,,,,,,,,,,,,,,,,,,,,,,,,,,,,,,
,,,,,,5c74d6a50b33c80001323744,629c51d4aaa8d2d26b4b2abb,2022-06-05_08h49.42.711,Colour_Asymmetry_Pilot,2022.1.3,Win32,30.16136329,629c4b6caf241d5e6e00bfc0,0,105,105,38,1,fourtwo,,,,,,,,,,,,,,,,,,,,,,,,,,,,,,,,,,,,,,,,,,,,,,,,,,,,,,,,,,,,,,,,,,,,,,,,,,,,,,,,,,,,,,,,,,,,,,,,,,,,,,,,,,,,,,,,,,,,,,,,,,,,,,,,,,,,,,,,,,,,,
,,,,,,5c74d6a50b33c80001323744,629c51d4aaa8d2d26b4b2abb,2022-06-05_08h49.42.711,Colour_Asymmetry_Pilot,2022.1.3,Win32,30.16136329,629c4b6caf241d5e6e00bfc0,0,106,106,56,1,onetwo,,,,,,,,,,,,,,,,,,,,,,,,,,,,,,,,,,,,,,,,,,,,,,,,,,,,,,,,,,,,,,,,,,,,,,,,,,,,,,,,,,,,,,,,,,,,,,,,,,,,,,,,,,,,,,,,,,,,,,,,,,,,,,,,,,,,,,,,,,,,,
,,,,,,5c74d6a50b33c80001323744,629c51d4aaa8d2d26b4b2abb,2022-06-05_08h49.42.711,Colour_Asymmetry_Pilot,2022.1.3,Win32,30.16136329,629c4b6caf241d5e6e00bfc0,0,107,107,118,1,fourtwo,,,,,,,,,,,,,,,,,,,,,,,,,,,,,,,,,,,,,,,,,,,,,,,,,,,,,,,,,,,,,,,,,,,,,,,,,,,,,,,,,,,,,,,,,,,,,,,,,,,,,,,,,,,,,,,,,,,,,,,,,,,,,,,,,,,,,,,,,,,,,
,,,,,,5c74d6a50b33c80001323744,629c51d4aaa8d2d26b4b2abb,2022-06-05_08h49.42.711,Colour_Asymmetry_Pilot,2022.1.3,Win32,30.16136329,629c4b6caf241d5e6e00bfc0,0,108,108,149,1,threefour,,,,,,,,,,,,,,,,,,,,,,,,,,,,,,,,,,,,,,,,,,,,,,,,,,,,,,,,,,,,,,,,,,,,,,,,,,,,,,,,,,,,,,,,,,,,,,,,,,,,,,,,,,,,,,,,,,,,,,,,,,,,,,,,,,,,,,,,,,,,,
,,,,,,5c74d6a50b33c80001323744,629c51d4aaa8d2d26b4b2abb,2022-06-05_08h49.42.711,Colour_Asymmetry_Pilot,2022.1.3,Win32,30.16136329,629c4b6caf241d5e6e00bfc0,0,109,109,144,1,onetwo,,,,,,,,,,,,,,,,,,,,,,,,,,,,,,,,,,,,,,,,,,,,,,,,,,,,,,,,,,,,,,,,,,,,,,,,,,,,,,,,,,,,,,,,,,,,,,,,,,,,,,,,,,,,,,,,,,,,,,,,,,,,,,,,,,,,,,,,,,,,,
,,,,,,5c74d6a50b33c80001323744,629c51d4aaa8d2d26b4b2abb,2022-06-05_08h49.42.711,Colour_Asymmetry_Pilot,2022.1.3,Win32,30.16136329,629c4b6caf241d5e6e00bfc0,0,110,110,46,1,fourtwo,,,,,,,,,,,,,,,,,,,,,,,,,,,,,,,,,,,,,,,,,,,,,,,,,,,,,,,,,,,,,,,,,,,,,,,,,,,,,,,,,,,,,,,,,,,,,,,,,,,,,,,,,,,,,,,,,,,,,,,,,,,,,,,,,,,,,,,,,,,,,
,,,,,,5c74d6a50b33c80001323744,629c51d4aaa8d2d26b4b2abb,2022-06-05_08h49.42.711,Colour_Asymmetry_Pilot,2022.1.3,Win32,30.16136329,629c4b6caf241d5e6e00bfc0,0,111,111,130,1,twoone,,,,,,,,,,,,,,,,,,,,,,,,,,,,,,,,,,,,,,,,,,,,,,,,,,,,,,,,,,,,,,,,,,,,,,,,,,,,,,,,,,,,,,,,,,,,,,,,,,,,,,,,,,,,,,,,,,,,,,,,,,,,,,,,,,,,,,,,,,,,,
,,,,,,5c74d6a50b33c80001323744,629c51d4aaa8d2d26b4b2abb,2022-06-05_08h49.42.711,Colour_Asymmetry_Pilot,2022.1.3,Win32,30.16136329,629c4b6caf241d5e6e00bfc0,0,112,112,71,1,fourthree,,,,,,,,,,,,,,,,,,,,,,,,,,,,,,,,,,,,,,,,,,,,,,,,,,,,,,,,,,,,,,,,,,,,,,,,,,,,,,,,,,,,,,,,,,,,,,,,,,,,,,,,,,,,,,,,,,,,,,,,,,,,,,,,,,,,,,,,,,,,,
,,,,,,5c74d6a50b33c80001323744,629c51d4aaa8d2d26b4b2abb,2022-06-05_08h49.42.711,Colour_Asymmetry_Pilot,2022.1.3,Win32,30.16136329,629c4b6caf241d5e6e00bfc0,0,113,113,2,1,twoone,,,,,,,,,,,,,,,,,,,,,,,,,,,,,,,,,,,,,,,,,,,,,,,,,,,,,,,,,,,,,,,,,,,,,,,,,,,,,,,,,,,,,,,,,,,,,,,,,,,,,,,,,,,,,,,,,,,,,,,,,,,,,,,,,,,,,,,,,,,,,
,,,,,,5c74d6a50b33c80001323744,629c51d4aaa8d2d26b4b2abb,2022-06-05_08h49.42.711,Colour_Asymmetry_Pilot,2022.1.3,Win32,30.16136329,629c4b6caf241d5e6e00bfc0,0,114,114,26,1,twoone,,,,,,,,,,,,,,,,,,,,,,,,,,,,,,,,,,,,,,,,,,,,,,,,,,,,,,,,,,,,,,,,,,,,,,,,,,,,,,,,,,,,,,,,,,,,,,,,,,,,,,,,,,,,,,,,,,,,,,,,,,,,,,,,,,,,,,,,,,,,,
,,,,,,5c74d6a50b33c80001323744,629c51d4aaa8d2d26b4b2abb,2022-06-05_08h49.42.711,Colour_Asymmetry_Pilot,2022.1.3,Win32,30.16136329,629c4b6caf241d5e6e00bfc0,0,115,115,123,1,twofour,,,,,,,,,,,,,,,,,,,,,,,,,,,,,,,,,,,,,,,,,,,,,,,,,,,,,,,,,,,,,,,,,,,,,,,,,,,,,,,,,,,,,,,,,,,,,,,,,,,,,,,,,,,,,,,,,,,,,,,,,,,,,,,,,,,,,,,,,,,,,
,,,,,,5c74d6a50b33c80001323744,629c51d4aaa8d2d26b4b2abb,2022-06-05_08h49.42.711,Colour_Asymmetry_Pilot,2022.1.3,Win32,30.16136329,629c4b6caf241d5e6e00bfc0,0,116,116,122,1,twoone,,,,,,,,,,,,,,,,,,,,,,,,,,,,,,,,,,,,,,,,,,,,,,,,,,,,,,,,,,,,,,,,,,,,,,,,,,,,,,,,,,,,,,,,,,,,,,,,,,,,,,,,,,,,,,,,,,,,,,,,,,,,,,,,,,,,,,,,,,,,,
,,,,,,5c74d6a50b33c80001323744,629c51d4aaa8d2d26b4b2abb,2022-06-05_08h49.42.711,Colour_Asymmetry_Pilot,2022.1.3,Win32,30.16136329,629c4b6caf241d5e6e00bfc0,0,117,117,95,1,fourthree,,,,,,,,,,,,,,,,,,,,,,,,,,,,,,,,,,,,,,,,,,,,,,,,,,,,,,,,,,,,,,,,,,,,,,,,,,,,,,,,,,,,,,,,,,,,,,,,,,,,,,,,,,,,,,,,,,,,,,,,,,,,,,,,,,,,,,,,,,,,,
,,,,,,5c74d6a50b33c80001323744,629c51d4aaa8d2d26b4b2abb,2022-06-05_08h49.42.711,Colour_Asymmetry_Pilot,2022.1.3,Win32,30.16136329,629c4b6caf241d5e6e00bfc0,0,118,118,42,1,twoone,,,,,,,,,,,,,,,,,,,,,,,,,,,,,,,,,,,,,,,,,,,,,,,,,,,,,,,,,,,,,,,,,,,,,,,,,,,,,,,,,,,,,,,,,,,,,,,,,,,,,,,,,,,,,,,,,,,,,,,,,,,,,,,,,,,,,,,,,,,,,
,,,,,,5c74d6a50b33c80001323744,629c51d4aaa8d2d26b4b2abb,2022-06-05_08h49.42.711,Colour_Asymmetry_Pilot,2022.1.3,Win32,30.16136329,629c4b6caf241d5e6e00bfc0,0,119,119,64,1,onetwo,,,,,,,,,,,,,,,,,,,,,,,,,,,,,,,,,,,,,,,,,,,,,,,,,,,,,,,,,,,,,,,,,,,,,,,,,,,,,,,,,,,,,,,,,,,,,,,,,,,,,,,,,,,,,,,,,,,,,,,,,,,,,,,,,,,,,,,,,,,,,
,,,,,,5c74d6a50b33c80001323744,629c51d4aaa8d2d26b4b2abb,2022-06-05_08h49.42.711,Colour_Asymmetry_Pilot,2022.1.3,Win32,30.16136329,629c4b6caf241d5e6e00bfc0,0,120,120,110,1,fourtwo,,,,,,,,,,,,,,,,,,,,,,,,,,,,,,,,,,,,,,,,,,,,,,,,,,,,,,,,,,,,,,,,,,,,,,,,,,,,,,,,,,,,,,,,,,,,,,,,,,,,,,,,,,,,,,,,,,,,,,,,,,,,,,,,,,,,,,,,,,,,,
,,,,,,5c74d6a50b33c80001323744,629c51d4aaa8d2d26b4b2abb,2022-06-05_08h49.42.711,Colour_Asymmetry_Pilot,2022.1.3,Win32,30.16136329,629c4b6caf241d5e6e00bfc0,0,121,121,27,1,twofour,,,,,,,,,,,,,,,,,,,,,,,,,,,,,,,,,,,,,,,,,,,,,,,,,,,,,,,,,,,,,,,,,,,,,,,,,,,,,,,,,,,,,,,,,,,,,,,,,,,,,,,,,,,,,,,,,,,,,,,,,,,,,,,,,,,,,,,,,,,,,
,,,,,,5c74d6a50b33c80001323744,629c51d4aaa8d2d26b4b2abb,2022-06-05_08h49.42.711,Colour_Asymmetry_Pilot,2022.1.3,Win32,30.16136329,629c4b6caf241d5e6e00bfc0,0,122,122,109,1,threefour,,,,,,,,,,,,,,,,,,,,,,,,,,,,,,,,,,,,,,,,,,,,,,,,,,,,,,,,,,,,,,,,,,,,,,,,,,,,,,,,,,,,,,,,,,,,,,,,,,,,,,,,,,,,,,,,,,,,,,,,,,,,,,,,,,,,,,,,,,,,,
,,,,,,5c74d6a50b33c80001323744,629c51d4aaa8d2d26b4b2abb,2022-06-05_08h49.42.711,Colour_Asymmetry_Pilot,2022.1.3,Win32,30.16136329,629c4b6caf241d5e6e00bfc0,0,123,123,22,1,fourtwo,,,,,,,,,,,,,,,,,,,,,,,,,,,,,,,,,,,,,,,,,,,,,,,,,,,,,,,,,,,,,,,,,,,,,,,,,,,,,,,,,,,,,,,,,,,,,,,,,,,,,,,,,,,,,,,,,,,,,,,,,,,,,,,,,,,,,,,,,,,,,
,,,,,,5c74d6a50b33c80001323744,629c51d4aaa8d2d26b4b2abb,2022-06-05_08h49.42.711,Colour_Asymmetry_Pilot,2022.1.3,Win32,30.16136329,629c4b6caf241d5e6e00bfc0,0,124,124,73,1,onethree,,,,,,,,,,,,,,,,,,,,,,,,,,,,,,,,,,,,,,,,,,,,,,,,,,,,,,,,,,,,,,,,,,,,,,,,,,,,,,,,,,,,,,,,,,,,,,,,,,,,,,,,,,,,,,,,,,,,,,,,,,,,,,,,,,,,,,,,,,,,,
,,,,,,5c74d6a50b33c80001323744,629c51d4aaa8d2d26b4b2abb,2022-06-05_08h49.42.711,Colour_Asymmetry_Pilot,2022.1.3,Win32,30.16136329,629c4b6caf241d5e6e00bfc0,0,125,125,41,1,onethree,,,,,,,,,,,,,,,,,,,,,,,,,,,,,,,,,,,,,,,,,,,,,,,,,,,,,,,,,,,,,,,,,,,,,,,,,,,,,,,,,,,,,,,,,,,,,,,,,,,,,,,,,,,,,,,,,,,,,,,,,,,,,,,,,,,,,,,,,,,,,
,,,,,,5c74d6a50b33c80001323744,629c51d4aaa8d2d26b4b2abb,2022-06-05_08h49.42.711,Colour_Asymmetry_Pilot,2022.1.3,Win32,30.16136329,629c4b6caf241d5e6e00bfc0,0,126,126,34,1,twoone,,,,,,,,,,,,,,,,,,,,,,,,,,,,,,,,,,,,,,,,,,,,,,,,,,,,,,,,,,,,,,,,,,,,,,,,,,,,,,,,,,,,,,,,,,,,,,,,,,,,,,,,,,,,,,,,,,,,,,,,,,,,,,,,,,,,,,,,,,,,,
,,,,,,5c74d6a50b33c80001323744,629c51d4aaa8d2d26b4b2abb,2022-06-05_08h49.42.711,Colour_Asymmetry_Pilot,2022.1.3,Win32,30.16136329,629c4b6caf241d5e6e00bfc0,0,127,127,80,1,onetwo,,,,,,,,,,,,,,,,,,,,,,,,,,,,,,,,,,,,,,,,,,,,,,,,,,,,,,,,,,,,,,,,,,,,,,,,,,,,,,,,,,,,,,,,,,,,,,,,,,,,,,,,,,,,,,,,,,,,,,,,,,,,,,,,,,,,,,,,,,,,,
,,,,,,5c74d6a50b33c80001323744,629c51d4aaa8d2d26b4b2abb,2022-06-05_08h49.42.711,Colour_Asymmetry_Pilot,2022.1.3,Win32,30.16136329,629c4b6caf241d5e6e00bfc0,0,128,128,94,1,fourtwo,,,,,,,,,,,,,,,,,,,,,,,,,,,,,,,,,,,,,,,,,,,,,,,,,,,,,,,,,,,,,,,,,,,,,,,,,,,,,,,,,,,,,,,,,,,,,,,,,,,,,,,,,,,,,,,,,,,,,,,,,,,,,,,,,,,,,,,,,,,,,
,,,,,,5c74d6a50b33c80001323744,629c51d4aaa8d2d26b4b2abb,2022-06-05_08h49.42.711,Colour_Asymmetry_Pilot,2022.1.3,Win32,30.16136329,629c4b6caf241d5e6e00bfc0,0,129,129,102,1,fourtwo,,,,,,,,,,,,,,,,,,,,,,,,,,,,,,,,,,,,,,,,,,,,,,,,,,,,,,,,,,,,,,,,,,,,,,,,,,,,,,,,,,,,,,,,,,,,,,,,,,,,,,,,,,,,,,,,,,,,,,,,,,,,,,,,,,,,,,,,,,,,,
,,,,,,5c74d6a50b33c80001323744,629c51d4aaa8d2d26b4b2abb,2022-06-05_08h49.42.711,Colour_Asymmetry_Pilot,2022.1.3,Win32,30.16136329,629c4b6caf241d5e6e00bfc0,0,130,130,161,1,onethree,,,,,,,,,,,,,,,,,,,,,,,,,,,,,,,,,,,,,,,,,,,,,,,,,,,,,,,,,,,,,,,,,,,,,,,,,,,,,,,,,,,,,,,,,,,,,,,,,,,,,,,,,,,,,,,,,,,,,,,,,,,,,,,,,,,,,,,,,,,,,
,,,,,,5c74d6a50b33c80001323744,629c51d4aaa8d2d26b4b2abb,2022-06-05_08h49.42.711,Colour_Asymmetry_Pilot,2022.1.3,Win32,30.16136329,629c4b6caf241d5e6e00bfc0,0,131,131,70,1,fourtwo,,,,,,,,,,,,,,,,,,,,,,,,,,,,,,,,,,,,,,,,,,,,,,,,,,,,,,,,,,,,,,,,,,,,,,,,,,,,,,,,,,,,,,,,,,,,,,,,,,,,,,,,,,,,,,,,,,,,,,,,,,,,,,,,,,,,,,,,,,,,,
,,,,,,5c74d6a50b33c80001323744,629c51d4aaa8d2d26b4b2abb,2022-06-05_08h49.42.711,Colour_Asymmetry_Pilot,2022.1.3,Win32,30.16136329,629c4b6caf241d5e6e00bfc0,0,132,132,50,1,twoone,,,,,,,,,,,,,,,,,,,,,,,,,,,,,,,,,,,,,,,,,,,,,,,,,,,,,,,,,,,,,,,,,,,,,,,,,,,,,,,,,,,,,,,,,,,,,,,,,,,,,,,,,,,,,,,,,,,,,,,,,,,,,,,,,,,,,,,,,,,,,
,,,,,,5c74d6a50b33c80001323744,629c51d4aaa8d2d26b4b2abb,2022-06-05_08h49.42.711,Colour_Asymmetry_Pilot,2022.1.3,Win32,30.16136329,629c4b6caf241d5e6e00bfc0,0,133,133,107,1,twofour,,,,,,,,,,,,,,,,,,,,,,,,,,,,,,,,,,,,,,,,,,,,,,,,,,,,,,,,,,,,,,,,,,,,,,,,,,,,,,,,,,,,,,,,,,,,,,,,,,,,,,,,,,,,,,,,,,,,,,,,,,,,,,,,,,,,,,,,,,,,,
,,,,,,5c74d6a50b33c80001323744,629c51d4aaa8d2d26b4b2abb,2022-06-05_08h49.42.711,Colour_Asymmetry_Pilot,2022.1.3,Win32,30.16136329,629c4b6caf241d5e6e00bfc0,0,134,134,128,1,onetwo,,,,,,,,,,,,,,,,,,,,,,,,,,,,,,,,,,,,,,,,,,,,,,,,,,,,,,,,,,,,,,,,,,,,,,,,,,,,,,,,,,,,,,,,,,,,,,,,,,,,,,,,,,,,,,,,,,,,,,,,,,,,,,,,,,,,,,,,,,,,,
,,,,,,5c74d6a50b33c80001323744,629c51d4aaa8d2d26b4b2abb,2022-06-05_08h49.42.711,Colour_Asymmetry_Pilot,2022.1.3,Win32,30.16136329,629c4b6caf241d5e6e00bfc0,0,135,135,87,1,fourthree,,,,,,,,,,,,,,,,,,,,,,,,,,,,,,,,,,,,,,,,,,,,,,,,,,,,,,,,,,,,,,,,,,,,,,,,,,,,,,,,,,,,,,,,,,,,,,,,,,,,,,,,,,,,,,,,,,,,,,,,,,,,,,,,,,,,,,,,,,,,,
,,,,,,5c74d6a50b33c80001323744,629c51d4aaa8d2d26b4b2abb,2022-06-05_08h49.42.711,Colour_Asymmetry_Pilot,2022.1.3,Win32,30.16136329,629c4b6caf241d5e6e00bfc0,0,136,136,9,1,onethree,,,,,,,,,,,,,,,,,,,,,,,,,,,,,,,,,,,,,,,,,,,,,,,,,,,,,,,,,,,,,,,,,,,,,,,,,,,,,,,,,,,,,,,,,,,,,,,,,,,,,,,,,,,,,,,,,,,,,,,,,,,,,,,,,,,,,,,,,,,,,
,,,,,,5c74d6a50b33c80001323744,629c51d4aaa8d2d26b4b2abb,2022-06-05_08h49.42.711,Colour_Asymmetry_Pilot,2022.1.3,Win32,30.16136329,629c4b6caf241d5e6e00bfc0,0,137,137,60,1,threeone,,,,,,,,,,,,,,,,,,,,,,,,,,,,,,,,,,,,,,,,,,,,,,,,,,,,,,,,,,,,,,,,,,,,,,,,,,,,,,,,,,,,,,,,,,,,,,,,,,,,,,,,,,,,,,,,,,,,,,,,,,,,,,,,,,,,,,,,,,,,,
,,,,,,5c74d6a50b33c80001323744,629c51d4aaa8d2d26b4b2abb,2022-06-05_08h49.42.711,Colour_Asymmetry_Pilot,2022.1.3,Win32,30.16136329,629c4b6caf241d5e6e00bfc0,0,138,138,77,1,threefour,,,,,,,,,,,,,,,,,,,,,,,,,,,,,,,,,,,,,,,,,,,,,,,,,,,,,,,,,,,,,,,,,,,,,,,,,,,,,,,,,,,,,,,,,,,,,,,,,,,,,,,,,,,,,,,,,,,,,,,,,,,,,,,,,,,,,,,,,,,,,
,,,,,,5c74d6a50b33c80001323744,629c51d4aaa8d2d26b4b2abb,2022-06-05_08h49.42.711,Colour_Asymmetry_Pilot,2022.1.3,Win32,30.16136329,629c4b6caf241d5e6e00bfc0,0,139,139,49,1,onethree,,,,,,,,,,,,,,,,,,,,,,,,,,,,,,,,,,,,,,,,,,,,,,,,,,,,,,,,,,,,,,,,,,,,,,,,,,,,,,,,,,,,,,,,,,,,,,,,,,,,,,,,,,,,,,,,,,,,,,,,,,,,,,,,,,,,,,,,,,,,,
,,,,,,5c74d6a50b33c80001323744,629c51d4aaa8d2d26b4b2abb,2022-06-05_08h49.42.711,Colour_Asymmetry_Pilot,2022.1.3,Win32,30.16136329,629c4b6caf241d5e6e00bfc0,0,140,140,43,1,twofour,,,,,,,,,,,,,,,,,,,,,,,,,,,,,,,,,,,,,,,,,,,,,,,,,,,,,,,,,,,,,,,,,,,,,,,,,,,,,,,,,,,,,,,,,,,,,,,,,,,,,,,,,,,,,,,,,,,,,,,,,,,,,,,,,,,,,,,,,,,,,
,,,,,,5c74d6a50b33c80001323744,629c51d4aaa8d2d26b4b2abb,2022-06-05_08h49.42.711,Colour_Asymmetry_Pilot,2022.1.3,Win32,30.16136329,629c4b6caf241d5e6e00bfc0,0,141,141,99,1,twofour,,,,,,,,,,,,,,,,,,,,,,,,,,,,,,,,,,,,,,,,,,,,,,,,,,,,,,,,,,,,,,,,,,,,,,,,,,,,,,,,,,,,,,,,,,,,,,,,,,,,,,,,,,,,,,,,,,,,,,,,,,,,,,,,,,,,,,,,,,,,,
,,,,,,5c74d6a50b33c80001323744,629c51d4aaa8d2d26b4b2abb,2022-06-05_08h49.42.711,Colour_Asymmetry_Pilot,2022.1.3,Win32,30.16136329,629c4b6caf241d5e6e00bfc0,0,142,142,45,1,threefour,,,,,,,,,,,,,,,,,,,,,,,,,,,,,,,,,,,,,,,,,,,,,,,,,,,,,,,,,,,,,,,,,,,,,,,,,,,,,,,,,,,,,,,,,,,,,,,,,,,,,,,,,,,,,,,,,,,,,,,,,,,,,,,,,,,,,,,,,,,,,
,,,,,,5c74d6a50b33c80001323744,629c51d4aaa8d2d26b4b2abb,2022-06-05_08h49.42.711,Colour_Asymmetry_Pilot,2022.1.3,Win32,30.16136329,629c4b6caf241d5e6e00bfc0,0,143,143,117,1,threefour,,,,,,,,,,,,,,,,,,,,,,,,,,,,,,,,,,,,,,,,,,,,,,,,,,,,,,,,,,,,,,,,,,,,,,,,,,,,,,,,,,,,,,,,,,,,,,,,,,,,,,,,,,,,,,,,,,,,,,,,,,,,,,,,,,,,,,,,,,,,,
,,,,,,5c74d6a50b33c80001323744,629c51d4aaa8d2d26b4b2abb,2022-06-05_08h49.42.711,Colour_Asymmetry_Pilot,2022.1.3,Win32,30.16136329,629c4b6caf241d5e6e00bfc0,0,144,144,114,1,twoone,,,,,,,,,,,,,,,,,,,,,,,,,,,,,,,,,,,,,,,,,,,,,,,,,,,,,,,,,,,,,,,,,,,,,,,,,,,,,,,,,,,,,,,,,,,,,,,,,,,,,,,,,,,,,,,,,,,,,,,,,,,,,,,,,,,,,,,,,,,,,
,,,,,,5c74d6a50b33c80001323744,629c51d4aaa8d2d26b4b2abb,2022-06-05_08h49.42.711,Colour_Asymmetry_Pilot,2022.1.3,Win32,30.16136329,629c4b6caf241d5e6e00bfc0,0,145,145,113,1,onethree,,,,,,,,,,,,,,,,,,,,,,,,,,,,,,,,,,,,,,,,,,,,,,,,,,,,,,,,,,,,,,,,,,,,,,,,,,,,,,,,,,,,,,,,,,,,,,,,,,,,,,,,,,,,,,,,,,,,,,,,,,,,,,,,,,,,,,,,,,,,,
,,,,,,5c74d6a50b33c80001323744,629c51d4aaa8d2d26b4b2abb,2022-06-05_08h49.42.711,Colour_Asymmetry_Pilot,2022.1.3,Win32,30.16136329,629c4b6caf241d5e6e00bfc0,0,146,146,15,1,fourthree,,,,,,,,,,,,,,,,,,,,,,,,,,,,,,,,,,,,,,,,,,,,,,,,,,,,,,,,,,,,,,,,,,,,,,,,,,,,,,,,,,,,,,,,,,,,,,,,,,,,,,,,,,,,,,,,,,,,,,,,,,,,,,,,,,,,,,,,,,,,,
,,,,,,5c74d6a50b33c80001323744,629c51d4aaa8d2d26b4b2abb,2022-06-05_08h49.42.711,Colour_Asymmetry_Pilot,2022.1.3,Win32,30.16136329,629c4b6caf241d5e6e00bfc0,0,147,147,92,1,threeone,,,,,,,,,,,,,,,,,,,,,,,,,,,,,,,,,,,,,,,,,,,,,,,,,,,,,,,,,,,,,,,,,,,,,,,,,,,,,,,,,,,,,,,,,,,,,,,,,,,,,,,,,,,,,,,,,,,,,,,,,,,,,,,,,,,,,,,,,,,,,
,,,,,,5c74d6a50b33c80001323744,629c51d4aaa8d2d26b4b2abb,2022-06-05_08h49.42.711,Colour_Asymmetry_Pilot,2022.1.3,Win32,30.16136329,629c4b6caf241d5e6e00bfc0,0,148,148,148,1,threeone,,,,,,,,,,,,,,,,,,,,,,,,,,,,,,,,,,,,,,,,,,,,,,,,,,,,,,,,,,,,,,,,,,,,,,,,,,,,,,,,,,,,,,,,,,,,,,,,,,,,,,,,,,,,,,,,,,,,,,,,,,,,,,,,,,,,,,,,,,,,,
,,,,,,5c74d6a50b33c80001323744,629c51d4aaa8d2d26b4b2abb,2022-06-05_08h49.42.711,Colour_Asymmetry_Pilot,2022.1.3,Win32,30.16136329,629c4b6caf241d5e6e00bfc0,0,149,149,121,1,onethree,,,,,,,,,,,,,,,,,,,,,,,,,,,,,,,,,,,,,,,,,,,,,,,,,,,,,,,,,,,,,,,,,,,,,,,,,,,,,,,,,,,,,,,,,,,,,,,,,,,,,,,,,,,,,,,,,,,,,,,,,,,,,,,,,,,,,,,,,,,,,
,,,,,,5c74d6a50b33c80001323744,629c51d4aaa8d2d26b4b2abb,2022-06-05_08h49.42.711,Colour_Asymmetry_Pilot,2022.1.3,Win32,30.16136329,629c4b6caf241d5e6e00bfc0,0,150,150,85,1,threefour,,,,,,,,,,,,,,,,,,,,,,,,,,,,,,,,,,,,,,,,,,,,,,,,,,,,,,,,,,,,,,,,,,,,,,,,,,,,,,,,,,,,,,,,,,,,,,,,,,,,,,,,,,,,,,,,,,,,,,,,,,,,,,,,,,,,,,,,,,,,,
,,,,,,5c74d6a50b33c80001323744,629c51d4aaa8d2d26b4b2abb,2022-06-05_08h49.42.711,Colour_Asymmetry_Pilot,2022.1.3,Win32,30.16136329,629c4b6caf241d5e6e00bfc0,0,151,151,67,1,twofour,,,,,,,,,,,,,,,,,,,,,,,,,,,,,,,,,,,,,,,,,,,,,,,,,,,,,,,,,,,,,,,,,,,,,,,,,,,,,,,,,,,,,,,,,,,,,,,,,,,,,,,,,,,,,,,,,,,,,,,,,,,,,,,,,,,,,,,,,,,,,
,,,,,,5c74d6a50b33c80001323744,629c51d4aaa8d2d26b4b2abb,2022-06-05_08h49.42.711,Colour_Asymmetry_Pilot,2022.1.3,Win32,30.16136329,629c4b6caf241d5e6e00bfc0,0,152,152,29,1,threefour,,,,,,,,,,,,,,,,,,,,,,,,,,,,,,,,,,,,,,,,,,,,,,,,,,,,,,,,,,,,,,,,,,,,,,,,,,,,,,,,,,,,,,,,,,,,,,,,,,,,,,,,,,,,,,,,,,,,,,,,,,,,,,,,,,,,,,,,,,,,,
,,,,,,5c74d6a50b33c80001323744,629c51d4aaa8d2d26b4b2abb,2022-06-05_08h49.42.711,Colour_Asymmetry_Pilot,2022.1.3,Win32,30.16136329,629c4b6caf241d5e6e00bfc0,0,153,153,51,1,twofour,,,,,,,,,,,,,,,,,,,,,,,,,,,,,,,,,,,,,,,,,,,,,,,,,,,,,,,,,,,,,,,,,,,,,,,,,,,,,,,,,,,,,,,,,,,,,,,,,,,,,,,,,,,,,,,,,,,,,,,,,,,,,,,,,,,,,,,,,,,,,
,,,,,,5c74d6a50b33c80001323744,629c51d4aaa8d2d26b4b2abb,2022-06-05_08h49.42.711,Colour_Asymmetry_Pilot,2022.1.3,Win32,30.16136329,629c4b6caf241d5e6e00bfc0,0,154,154,150,1,fourtwo,,,,,,,,,,,,,,,,,,,,,,,,,,,,,,,,,,,,,,,,,,,,,,,,,,,,,,,,,,,,,,,,,,,,,,,,,,,,,,,,,,,,,,,,,,,,,,,,,,,,,,,,,,,,,,,,,,,,,,,,,,,,,,,,,,,,,,,,,,,,,
,,,,,,5c74d6a50b33c80001323744,629c51d4aaa8d2d26b4b2abb,2022-06-05_08h49.42.711,Colour_Asymmetry_Pilot,2022.1.3,Win32,30.16136329,629c4b6caf241d5e6e00bfc0,0,155,155,154,1,twoone,,,,,,,,,,,,,,,,,,,,,,,,,,,,,,,,,,,,,,,,,,,,,,,,,,,,,,,,,,,,,,,,,,,,,,,,,,,,,,,,,,,,,,,,,,,,,,,,,,,,,,,,,,,,,,,,,,,,,,,,,,,,,,,,,,,,,,,,,,,,,
,,,,,,5c74d6a50b33c80001323744,629c51d4aaa8d2d26b4b2abb,2022-06-05_08h49.42.711,Colour_Asymmetry_Pilot,2022.1.3,Win32,30.16136329,629c4b6caf241d5e6e00bfc0,0,156,156,5,1,threefour,,,,,,,,,,,,,,,,,,,,,,,,,,,,,,,,,,,,,,,,,,,,,,,,,,,,,,,,,,,,,,,,,,,,,,,,,,,,,,,,,,,,,,,,,,,,,,,,,,,,,,,,,,,,,,,,,,,,,,,,,,,,,,,,,,,,,,,,,,,,,
,,,,,,5c74d6a50b33c80001323744,629c51d4aaa8d2d26b4b2abb,2022-06-05_08h49.42.711,Colour_Asymmetry_Pilot,2022.1.3,Win32,30.16136329,629c4b6caf241d5e6e00bfc0,0,157,157,142,1,fourtwo,,,,,,,,,,,,,,,,,,,,,,,,,,,,,,,,,,,,,,,,,,,,,,,,,,,,,,,,,,,,,,,,,,,,,,,,,,,,,,,,,,,,,,,,,,,,,,,,,,,,,,,,,,,,,,,,,,,,,,,,,,,,,,,,,,,,,,,,,,,,,
,,,,,,5c74d6a50b33c80001323744,629c51d4aaa8d2d26b4b2abb,2022-06-05_08h49.42.711,Colour_Asymmetry_Pilot,2022.1.3,Win32,30.16136329,629c4b6caf241d5e6e00bfc0,0,158,158,101,1,threefour,,,,,,,,,,,,,,,,,,,,,,,,,,,,,,,,,,,,,,,,,,,,,,,,,,,,,,,,,,,,,,,,,,,,,,,,,,,,,,,,,,,,,,,,,,,,,,,,,,,,,,,,,,,,,,,,,,,,,,,,,,,,,,,,,,,,,,,,,,,,,
,,,,,,5c74d6a50b33c80001323744,629c51d4aaa8d2d26b4b2abb,2022-06-05_08h49.42.711,Colour_Asymmetry_Pilot,2022.1.3,Win32,30.16136329,629c4b6caf241d5e6e00bfc0,0,159,159,6,1,fourtwo,,,,,,,,,,,,,,,,,,,,,,,,,,,,,,,,,,,,,,,,,,,,,,,,,,,,,,,,,,,,,,,,,,,,,,,,,,,,,,,,,,,,,,,,,,,,,,,,,,,,,,,,,,,,,,,,,,,,,,,,,,,,,,,,,,,,,,,,,,,,,
,,,,,,5c74d6a50b33c80001323744,629c51d4aaa8d2d26b4b2abb,2022-06-05_08h49.42.711,Colour_Asymmetry_Pilot,2022.1.3,Win32,30.16136329,629c4b6caf241d5e6e00bfc0,0,160,160,86,1,fourtwo,,,,,,,,,,,,,,,,,,,,,,,,,,,,,,,,,,,,,,,,,,,,,,,,,,,,,,,,,,,,,,,,,,,,,,,,,,,,,,,,,,,,,,,,,,,,,,,,,,,,,,,,,,,,,,,,,,,,,,,,,,,,,,,,,,,,,,,,,,,,,
,,,,,,5c74d6a50b33c80001323744,629c51d4aaa8d2d26b4b2abb,2022-06-05_08h49.42.711,Colour_Asymmetry_Pilot,2022.1.3,Win32,30.16136329,629c4b6caf241d5e6e00bfc0,0,161,161,4,1,threeone,,,,,,,,,,,,,,,,,,,,,,,,,,,,,,,,,,,,,,,,,,,,,,,,,,,,,,,,,,,,,,,,,,,,,,,,,,,,,,,,,,,,,,,,,,,,,,,,,,,,,,,,,,,,,,,,,,,,,,,,,,,,,,,,,,,,,,,,,,,,,
,,,,,,5c74d6a50b33c80001323744,629c51d4aaa8d2d26b4b2abb,2022-06-05_08h49.42.711,Colour_Asymmetry_Pilot,2022.1.3,Win32,30.16136329,629c4b6caf241d5e6e00bfc0,,,,,,,space,4.1913,space,19.0912,space,27.4135,space,18.757,space,2.9924,space,4.0997,"[0.37240000000000006,0.4980000000000002,-0.2864]",onetwo,"[-0.30200000000000005,0.14500000000000002,0.2784]",-3,8.1388,-91.99998993,42.39999419,1,0,0,response7disk_5,-1.59998858,2.399993598,1,0,0,rectangle_8,-1.59998858,2.399993598,1,0,0,1,-1.59998858,2.399993598,1,0,0,0,0,0,0,1,,,,,,,,,,,,,,,,,,,,,,,,,,,,,,,,,,,,,,,,,,,,,,,,,,,,,,,,,,,,,,,,,,,,,,,,,,,,,,,,,,,,,,,,,,,,,,,,
,,,,,,5c74d6a50b33c80001323744,629c51d4aaa8d2d26b4b2abb,2022-06-05_08h49.42.711,Colour_Asymmetry_Pilot,2022.1.3,Win32,30.16136329,629c4b6caf241d5e6e00bfc0,,,,,,,,,,,,,,,,,,,"[-0.4902000000000001,0.2704,-0.45899999999999996]",onethree,"[0.34099999999999997,0.5841999999999998,-0.9844]",-2,4.0727,-83.1999898,-60.00000733,1,0,0,response5disk_5,11.20001161,9.599993706,1,0,0,rectangle_8,11.20001161,9.599993706,1,0,0,1,11.20001161,9.599993706,1,0,0,1,0,1,0,1,,,,,,,,,,,,,,,,,,,,,,,,,,,,,,,,,,,,,,,,,,,,,,,,,,,,,,,,,,,,,,,,,,,,,,,,,,,,,,,,,,,,,,,,,,,,,,,,
,,,,,,5c74d6a50b33c80001323744,629c51d4aaa8d2d26b4b2abb,2022-06-05_08h49.42.711,Colour_Asymmetry_Pilot,2022.1.3,Win32,30.16136329,629c4b6caf241d5e6e00bfc0,,,,,,,,,,,,,,,,,,,"[0.3802000000000001,0.19199999999999995,-0.6394]",twoone,"[0.9213999999999998,0.6391999999999998,-0.9922]",3,3.7646,97.6000129,50.39999431,1,0,0,response1disk_5,0.800011456,0.799993575,1,0,0,rectangle_8,0.800011456,0.799993575,1,0,0,1,0.800011456,0.799993575,1,0,0,2,0,2,0,1,,,,,,,,,,,,,,,,,,,,,,,,,,,,,,,,,,,,,,,,,,,,,,,,,,,,,,,,,,,,,,,,,,,,,,,,,,,,,,,,,,,,,,,,,,,,,,,,
,,,,,,5c74d6a50b33c80001323744,629c51d4aaa8d2d26b4b2abb,2022-06-05_08h49.42.711,Colour_Asymmetry_Pilot,2022.1.3,Win32,30.16136329,629c4b6caf241d5e6e00bfc0,,,,,,,,,,,,,,,,,,,"[-0.09019999999999995,0.44300000000000006,0.5371999999999999]",threefour,"[0.34099999999999997,0.12939999999999996,-0.9766]",-3,2.1317,-101.5999901,47.19996985,1,0,0,response7disk_5,12.00001162,-2.400006473,1,0,0,rectangle_8,51.20001221,-114.4000081,1,0,0,1,-3.999988616,7.19999367,1,0,0,3,0,3,0,1,response3disk_7,4,rectangle_4,,,,,,,,,,,,,,,,,,,,,,,,,,,,,,,,,,,,,,,,,,,,,,,,,,,,,,,,,,,,,,,,,,,,,,,,,,,,,,,,,,,,,,,,,,,,,
,,,,,,5c74d6a50b33c80001323744,629c51d4aaa8d2d26b4b2abb,2022-06-05_08h49.42.711,Colour_Asymmetry_Pilot,2022.1.3,Win32,30.16136329,629c4b6caf241d5e6e00bfc0,,,,,,,,,,,,,,,,,,,"[-0.06680000000000008,-0.45100000000000007,-0.906]",threefour,"[0.6547999999999998,-0.043199999999999905,-0.011800000000000033]",1,3.8098,59.20001233,-108.000008,1,0,0,response3disk_5,-1.59998858,3.999993622,1,0,0,rectangle_8,-1.59998858,3.999993622,1,0,0,1,-1.59998858,3.999993622,1,0,0,4,0,4,0,1,,,,,,,,,,,,,,,,,,,,,,,,,,,,,,,,,,,,,,,,,,,,,,,,,,,,,,,,,,,,,,,,,,,,,,,,,,,,,,,,,,,,,,,,,,,,,,,,
,,,,,,5c74d6a50b33c80001323744,629c51d4aaa8d2d26b4b2abb,2022-06-05_08h49.42.711,Colour_Asymmetry_Pilot,2022.1.3,Win32,30.16136329,629c4b6caf241d5e6e00bfc0,,,,,,,,,,,,,,,,,,,"[0.796,0.2156,-0.27859999999999996]",fourthree,"[0.5449999999999999,-0.31000000000000005,-0.0354000000000001]",-1,3.0513,-35.19998908,-103.200008,1,0,0,response5disk_5,7.200011551,3.19999361,1,0,0,rectangle_8,7.200011551,3.19999361,1,0,0,1,7.200011551,3.19999361,1,0,0,5,0,5,0,1,,,,,,,,,,,,,,,,,,,,,,,,,,,,,,,,,,,,,,,,,,,,,,,,,,,,,,,,,,,,,,,,,,,,,,,,,,,,,,,,,,,,,,,,,,,,,,,,
,,,,,,5c74d6a50b33c80001323744,629c51d4aaa8d2d26b4b2abb,2022-06-05_08h49.42.711,Colour_Asymmetry_Pilot,2022.1.3,Win32,30.16136329,629c4b6caf241d5e6e00bfc0,,,,,,,,,,,,,,,,,,,"[-0.48240000000000005,0.3175999999999999,0.2156]",threefour,"[0.9686000000000001,0.5763999999999998,0.11359999999999992]",-2,2.3676,-82.39994096,-62.40000737,1,0,0,response5disk_5,4.000011504,-8.800006568,1,0,0,rectangle_8,4.000011504,-8.800006568,1,0,0,1,4.000011504,-8.800006568,1,0,0,6,0,6,0,1,,,,,,,,,,,,,,,,,,,,,,,,,,,,,,,,,,,,,,,,,,,,,,,,,,,,,,,,,,,,,,,,,,,,,,,,,,,,,,,,,,,,,,,,,,,,,,,,
,,,,,,5c74d6a50b33c80001323744,629c51d4aaa8d2d26b4b2abb,2022-06-05_08h49.42.711,Colour_Asymmetry_Pilot,2022.1.3,Win32,30.16136329,629c4b6caf241d5e6e00bfc0,,,,,,,,,,,,,,,,,,,,threefour,,1,4.5512,,,,,,,,,,,,,,,,,,,,,,,,,,,,,,,,space,3.9212,"[-0.20799999999999996,-0.655,-0.01980000000000004]","[0.3881999999999999,-0.23939999999999995,-0.05040000000000011]",39.20001203,-114.4000081,1,0,0,response3disk,0.800011456,2.399993598,1,0,0,rectangle,0.800011456,2.399993598,1,0,0,,1,0.005,0,0.800011456,2.399993598,1,0,0,0,0,0,121,1,40,second,,,,,,,,,,,,,,,,,,,,,,,,,,,,,,,,,,,,,,,,,,,,,,,,,,,,,,,,
,,,,,,5c74d6a50b33c80001323744,629c51d4aaa8d2d26b4b2abb,2022-06-05_08h49.42.711,Colour_Asymmetry_Pilot,2022.1.3,Win32,30.16136329,629c4b6caf241d5e6e00bfc0,,,,,,,,,,,,,,,,,,,,fourthree,,-2,1.2796,,,,,,,,,,,,,,,,,,,,,,,,,,,,,,,,,,"[0.9213999999999998,0.6391999999999998,-0.9922]","[-0.24719999999999998,-0.0354000000000001,0.3175999999999999]",-79.99998975,-49.60000718,1,0,0,response5disk,8.800011575,-0.800006449,1,0,0,rectangle,8.800011575,-0.800006449,1,0,0,,1,0.0002,0,8.800011575,-0.800006449,1,0,0,0,1,1,152,1,71,second,,,,,,,,,,,,,,,,,,,,,,,,,,,,,,,,,,,,,,,,,,,,,,,,,,,,,,,,
,,,,,,5c74d6a50b33c80001323744,629c51d4aaa8d2d26b4b2abb,2022-06-05_08h49.42.711,Colour_Asymmetry_Pilot,2022.1.3,Win32,30.16136329,629c4b6caf241d5e6e00bfc0,,,,,,,,,,,,,,,,,,,,twoone,,1,2.121,,,,,,,,,,,,,,,,,,,,,,,,,,,,,,,,,,"[-0.45899999999999996,-0.3256,-0.9374]","[-0.9688,-0.4902000000000001,-0.12159999999999993]",68.00001246,-120.0000082,1,0,0,response3disk,1.600060296,3.19999361,1,0,0,rectangle,1.600060296,3.19999361,1,0,0,,1,0.0002,0,1.600060296,3.19999361,1,0,0,0,2,2,100,1,19,second,,,,,,,,,,,,,,,,,,,,,,,,,,,,,,,,,,,,,,,,,,,,,,,,,,,,,,,,
,,,,,,5c74d6a50b33c80001323744,629c51d4aaa8d2d26b4b2abb,2022-06-05_08h49.42.711,Colour_Asymmetry_Pilot,2022.1.3,Win32,30.16136329,629c4b6caf241d5e6e00bfc0,,,,,,,,,,,,,,,,,,,,onethree,,-3,3.3159,,,,,,,,,,,,,,,,,,,,,,,,,,,,,,,,,,"[-0.0040000000000000036,0.02739999999999987,-0.08239999999999992]","[-0.26280000000000003,-0.4746,-0.2158]",-88.79998988,51.19996991,1,0,0,response7disk,6.400011539,-6.400006533,1,0,0,rectangle,6.400011539,-6.400006533,1,0,0,,2,0.0012,0,6.400011539,-6.400006533,1,0,0,0,3,3,94,1,13,second,,,,,,,,,,,,,,,,,,,,,,,,,,,,,,,,,,,,,,,,,,,,,,,,,,,,,,,,
,,,,,,5c74d6a50b33c80001323744,629c51d4aaa8d2d26b4b2abb,2022-06-05_08h49.42.711,Colour_Asymmetry_Pilot,2022.1.3,Win32,30.16136329,629c4b6caf241d5e6e00bfc0,,,,,,,,,,,,,,,,,,,,threeone,,3,1.5037,,,,,,,,,,,,,,,,,,,,,,,,,,,,,,,,,,"[-0.8118,-0.8198,-0.5452]","[-0.4746,-0.0354000000000001,0.5449999999999999]",104.800013,28.79999399,1,0,0,response1disk,2.40001148,-2.400006473,1,0,0,rectangle,2.40001148,-2.400006473,1,0,0,,2,0.0005,0,2.40001148,-2.400006473,1,0,0,0,4,4,126,1,45,second,,,,,,,,,,,,,,,,,,,,,,,,,,,,,,,,,,,,,,,,,,,,,,,,,,,,,,,,
,,,,,,5c74d6a50b33c80001323744,629c51d4aaa8d2d26b4b2abb,2022-06-05_08h49.42.711,Colour_Asymmetry_Pilot,2022.1.3,Win32,30.16136329,629c4b6caf241d5e6e00bfc0,,,,,,,,,,,,,,,,,,,,onethree,,3,0.946,,,,,,,,,,,,,,,,,,,,,,,,,,,,,,,,,,"[-0.48240000000000005,0.3175999999999999,0.2156]","[-0.9766,-0.6472,0.07440000000000002]",109.6000131,30.39999402,1,0,0,response1disk,4.000011504,3.19999361,1,0,0,rectangle,4.000011504,3.19999361,1,0,0,,3,0.0022,0,4.000011504,3.19999361,1,0,0,0,5,5,83,1,2,second,,,,,,,,,,,,,,,,,,,,,,,,,,,,,,,,,,,,,,,,,,,,,,,,,,,,,,,,
,,,,,,5c74d6a50b33c80001323744,629c51d4aaa8d2d26b4b2abb,2022-06-05_08h49.42.711,Colour_Asymmetry_Pilot,2022.1.3,Win32,30.16136329,629c4b6caf241d5e6e00bfc0,,,,,,,,,,,,,,,,,,,,fourthree,,-1,1.8581,,,,,,,,,,,,,,,,,,,,,,,,,,,,,,,,,,"[0.9372,0.9450000000000001,0.8980000000000001]","[0.19199999999999995,0.18419999999999992,0.5136000000000001]",-46.39994042,-100.8000079,1,0,0,response5disk,8.800011575,2.399993598,1,0,0,rectangle,8.800011575,2.399993598,1,0,0,,1,0.0026,0,8.800011575,2.399993598,1,0,0,0,6,6,99,1,18,second,,,,,,,,,,,,,,,,,,,,,,,,,,,,,,,,,,,,,,,,,,,,,,,,,,,,,,,,
,,,,,,5c74d6a50b33c80001323744,629c51d4aaa8d2d26b4b2abb,2022-06-05_08h49.42.711,Colour_Asymmetry_Pilot,2022.1.3,Win32,30.16136329,629c4b6caf241d5e6e00bfc0,,,,,,,,,,,,,,,,,,,,twoone,,-2,1.6143,,,,,,,,,,,,,,,,,,,,,,,,,,,,,,,,,,"[-0.07459999999999989,0.12139999999999995,-0.9922]","[0.9686000000000001,0.5763999999999998,0.11359999999999992]",-90.39994107,-59.20000732,1,0,0,response5disk,-2.399939764,4.799993634,1,0,0,rectangle,-2.399939764,4.799993634,1,0,0,,3,0.0024,0,-2.399939764,4.799993634,1,0,0,0,7,7,124,1,43,second,,,,,,,,,,,,,,,,,,,,,,,,,,,,,,,,,,,,,,,,,,,,,,,,,,,,,,,,
,,,,,,5c74d6a50b33c80001323744,629c51d4aaa8d2d26b4b2abb,2022-06-05_08h49.42.711,Colour_Asymmetry_Pilot,2022.1.3,Win32,30.16136329,629c4b6caf241d5e6e00bfc0,,,,,,,,,,,,,,,,,,,,threeone,,3,1.1974,,,,,,,,,,,,,,,,,,,,,,,,,,,,,,,,,,"[-0.5922000000000001,-0.7492000000000001,-0.5296000000000001]","[-0.9688,-0.4902000000000001,-0.12159999999999993]",112.8000131,32.79999405,1,0,0,response1disk,1.600060296,6.399993658,1,0,0,rectangle,1.600060296,6.399993658,1,0,0,,1,0.0017,0,1.600060296,6.399993658,1,0,0,0,8,8,7,1,7,first,,,,,,,,,,,,,,,,,,,,,,,,,,,,,,,,,,,,,,,,,,,,,,,,,,,,,,,,
,,,,,,5c74d6a50b33c80001323744,629c51d4aaa8d2d26b4b2abb,2022-06-05_08h49.42.711,Colour_Asymmetry_Pilot,2022.1.3,Win32,30.16136329,629c4b6caf241d5e6e00bfc0,,,,,,,,,,,,,,,,,,,,onetwo,,3,1.4636,,,,,,,,,,,,,,,,,,,,,,,,,,,,,,,,,,"[0.2862,0.7802,0.3568]","[0.23920000000000008,0.2704,0.16060000000000008]",97.6000129,71.99999464,1,0,0,response1disk,-8.799988687,7.19999367,1,0,0,rectangle,-8.799988687,7.19999367,1,0,0,,2,0.0031,0,-8.799988687,7.19999367,1,0,0,0,9,9,80,1,80,first,,,,,,,,,,,,,,,,,,,,,,,,,,,,,,,,,,,,,,,,,,,,,,,,,,,,,,,,
,,,,,,5c74d6a50b33c80001323744,629c51d4aaa8d2d26b4b2abb,2022-06-05_08h49.42.711,Colour_Asymmetry_Pilot,2022.1.3,Win32,30.16136329,629c4b6caf241d5e6e00bfc0,,,,,,,,,,,,,,,,,,,,onetwo,,4,0.7989,,,,,,,,,,,,,,,,,,,,,,,,,,,,,,,,,,"[0.19199999999999995,0.18419999999999992,0.5136000000000001]","[-0.10599999999999998,-0.10599999999999998,0.5841999999999998]",52.00001222,94.39999497,1,0,0,response1disk,-1.59998858,2.399993598,1,0,0,rectangle,-1.59998858,2.399993598,1,0,0,,1,0.0012,0,-1.59998858,2.399993598,1,0,0,0,10,10,84,1,3,second,,,,,,,,,,,,,,,,,,,,,,,,,,,,,,,,,,,,,,,,,,,,,,,,,,,,,,,,
,,,,,,5c74d6a50b33c80001323744,629c51d4aaa8d2d26b4b2abb,2022-06-05_08h49.42.711,Colour_Asymmetry_Pilot,2022.1.3,Win32,30.16136329,629c4b6caf241d5e6e00bfc0,,,,,,,,,,,,,,,,,,,,onetwo,,3,0.8327,,,,,,,,,,,,,,,,,,,,,,,,,,,,,,,,,,"[0.19199999999999995,0.18419999999999992,0.5136000000000001]","[-0.5452,-0.608,0.2470000000000001]",107.200013,51.19996991,1,0,0,response1disk,-3.999988616,-1.600006461,1,0,0,rectangle,-3.999988616,-1.600006461,1,0,0,,2,0.0011,0,-3.999988616,-1.600006461,1,0,0,0,11,11,129,1,48,second,,,,,,,,,,,,,,,,,,,,,,,,,,,,,,,,,,,,,,,,,,,,,,,,,,,,,,,,
,,,,,,5c74d6a50b33c80001323744,629c51d4aaa8d2d26b4b2abb,2022-06-05_08h49.42.711,Colour_Asymmetry_Pilot,2022.1.3,Win32,30.16136329,629c4b6caf241d5e6e00bfc0,,,,,,,,,,,,,,,,,,,,twofour,,-1,2.1265,,,,,,,,,,,,,,,,,,,,,,,,,,,,,,,,,,"[0.7646000000000002,0.07440000000000002,0.2704]","[0.9763999999999999,0.30979999999999985,-0.6786]",-47.99998927,-105.6000568,1,0,0,response5disk,10.4000116,-0.800006449,1,0,0,rectangle,10.4000116,-0.800006449,1,0,0,,3,0.002,0,10.4000116,-0.800006449,1,0,0,0,12,12,150,1,69,second,,,,,,,,,,,,,,,,,,,,,,,,,,,,,,,,,,,,,,,,,,,,,,,,,,,,,,,,
,,,,,,5c74d6a50b33c80001323744,629c51d4aaa8d2d26b4b2abb,2022-06-05_08h49.42.711,Colour_Asymmetry_Pilot,2022.1.3,Win32,30.16136329,629c4b6caf241d5e6e00bfc0,,,,,,,,,,,,,,,,,,,,threeone,,-3,1.4683,,,,,,,,,,,,,,,,,,,,,,,,,,,,,,,,,,"[-0.24719999999999998,-0.0354000000000001,0.3175999999999999]","[1,0.12939999999999996,-1]",-83.99998981,39.19996973,1,0,0,response7disk,8.800011575,7.19999367,1,0,0,rectangle,8.800011575,7.19999367,1,0,0,,3,0.0024,0,8.800011575,7.19999367,1,0,0,0,13,13,107,1,26,second,,,,,,,,,,,,,,,,,,,,,,,,,,,,,,,,,,,,,,,,,,,,,,,,,,,,,,,,
,,,,,,5c74d6a50b33c80001323744,629c51d4aaa8d2d26b4b2abb,2022-06-05_08h49.42.711,Colour_Asymmetry_Pilot,2022.1.3,Win32,30.16136329,629c4b6caf241d5e6e00bfc0,,,,,,,,,,,,,,,,,,,,threeone,,1,1.5434,,,,,,,,,,,,,,,,,,,,,,,,,,,,,,,,,,"[-0.2942,-0.7648,-0.7492000000000001]","[0.9372,0.20779999999999998,0.2704]",53.60001224,-125.6000571,1,0,0,response3disk,-5.599988639,5.599993646,1,0,0,rectangle,-5.599988639,5.599993646,1,0,0,,3,0.0004,0,-5.599988639,5.599993646,1,0,0,0,14,14,51,1,51,first,,,,,,,,,,,,,,,,,,,,,,,,,,,,,,,,,,,,,,,,,,,,,,,,,,,,,,,,
,,,,,,5c74d6a50b33c80001323744,629c51d4aaa8d2d26b4b2abb,2022-06-05_08h49.42.711,Colour_Asymmetry_Pilot,2022.1.3,Win32,30.16136329,629c4b6caf241d5e6e00bfc0,,,,,,,,,,,,,,,,,,,,threeone,,-2,0.8681,,,,,,,,,,,,,,,,,,,,,,,,,,,,,,,,,,"[-0.6706000000000001,-0.6157999999999999,-0.6786]","[1,0.12939999999999996,-1]",-110.3999414,-41.60000706,1,0,0,response5disk,8.800011575,-7.200006545,1,0,0,rectangle,8.800011575,-7.200006545,1,0,0,,2,0.001,0,8.800011575,-7.200006545,1,0,0,0,15,15,138,1,57,second,,,,,,,,,,,,,,,,,,,,,,,,,,,,,,,,,,,,,,,,,,,,,,,,,,,,,,,,
,,,,,,5c74d6a50b33c80001323744,629c51d4aaa8d2d26b4b2abb,2022-06-05_08h49.42.711,Colour_Asymmetry_Pilot,2022.1.3,Win32,30.16136329,629c4b6caf241d5e6e00bfc0,,,,,,,,,,,,,,,,,,,,onethree,,-3,1.163,,,,,,,,,,,,,,,,,,,,,,,,,,,,,,,,,,"[-0.8118,-0.8198,-0.5452]","[0.9686000000000001,0.5763999999999998,0.11359999999999992]",-107.9999902,54.39999437,1,0,0,response7disk,8.000011563,-3.200006485,1,0,0,rectangle,8.000011563,-3.200006485,1,0,0,,3,0.0019,0,8.000011563,-3.200006485,1,0,0,0,16,16,4,1,4,first,,,,,,,,,,,,,,,,,,,,,,,,,,,,,,,,,,,,,,,,,,,,,,,,,,,,,,,,
,,,,,,5c74d6a50b33c80001323744,629c51d4aaa8d2d26b4b2abb,2022-06-05_08h49.42.711,Colour_Asymmetry_Pilot,2022.1.3,Win32,30.16136329,629c4b6caf241d5e6e00bfc0,,,,,,,,,,,,,,,,,,,,fourtwo,,-1,1.5146,,,,,,,,,,,,,,,,,,,,,,,,,,,,,,,,,,"[0.09799999999999986,-0.24719999999999998,0.15280000000000005]","[-0.09019999999999995,0.44300000000000006,0.5371999999999999]",-44.79998922,-106.400008,1,0,0,response5disk,1.600060296,-0.800006449,1,0,0,rectangle,1.600060296,-0.800006449,1,0,0,,2,0.0013,0,1.600060296,-0.800006449,1,0,0,0,17,17,53,1,53,first,,,,,,,,,,,,,,,,,,,,,,,,,,,,,,,,,,,,,,,,,,,,,,,,,,,,,,,,
,,,,,,5c74d6a50b33c80001323744,629c51d4aaa8d2d26b4b2abb,2022-06-05_08h49.42.711,Colour_Asymmetry_Pilot,2022.1.3,Win32,30.16136329,629c4b6caf241d5e6e00bfc0,,,,,,,,,,,,,,,,,,,,onetwo,,-1,1.1315,,,,,,,,,,,,,,,,,,,,,,,,,,,,,,,,,,"[-0.26280000000000003,-0.2158,-0.3256]","[0.9686000000000001,0.3802000000000001,0.19999999999999996]",-58.3999406,-96.80000788,1,0,0,response5disk,-4.799988627,-5.600006521,1,0,0,rectangle,-4.799988627,-5.600006521,1,0,0,,2,0.0004,0,-4.799988627,-5.600006521,1,0,0,0,18,18,6,1,6,first,,,,,,,,,,,,,,,,,,,,,,,,,,,,,,,,,,,,,,,,,,,,,,,,,,,,,,,,
,,,,,,5c74d6a50b33c80001323744,629c51d4aaa8d2d26b4b2abb,2022-06-05_08h49.42.711,Colour_Asymmetry_Pilot,2022.1.3,Win32,30.16136329,629c4b6caf241d5e6e00bfc0,,,,,,,,,,,,,,,,,,,,threeone,,3,1.048,,,,,,,,,,,,,,,,,,,,,,,,,,,,,,,,,,"[0.0351999999999999,0.41159999999999997,0.0038000000000000256]","[0.23920000000000008,0.2704,0.16060000000000008]",104.000013,45.59999424,1,0,0,response1disk,0.800011456,-0.800006449,1,0,0,rectangle,0.800011456,-0.800006449,1,0,0,,1,0.0016,0,0.800011456,-0.800006449,1,0,0,0,19,19,105,1,24,second,,,,,,,,,,,,,,,,,,,,,,,,,,,,,,,,,,,,,,,,,,,,,,,,,,,,,,,,
,,,,,,5c74d6a50b33c80001323744,629c51d4aaa8d2d26b4b2abb,2022-06-05_08h49.42.711,Colour_Asymmetry_Pilot,2022.1.3,Win32,30.16136329,629c4b6caf241d5e6e00bfc0,,,,,,,,,,,,,,,,,,,,twofour,,-1,1.6333,,,,,,,,,,,,,,,,,,,,,,,,,,,,,,,,,,"[-0.06680000000000008,-0.45100000000000007,-0.906]","[-0.10599999999999998,-0.15300000000000002,0.15280000000000005]",-37.59998912,-114.4000081,1,0,0,response5disk,13.60006047,-7.200006545,1,0,0,rectangle,13.60006047,-7.200006545,1,0,0,,3,0.0009,0,13.60006047,-7.200006545,1,0,0,0,20,20,52,1,52,first,,,,,,,,,,,,,,,,,,,,,,,,,,,,,,,,,,,,,,,,,,,,,,,,,,,,,,,,
,,,,,,5c74d6a50b33c80001323744,629c51d4aaa8d2d26b4b2abb,2022-06-05_08h49.42.711,Colour_Asymmetry_Pilot,2022.1.3,Win32,30.16136329,629c4b6caf241d5e6e00bfc0,,,,,,,,,,,,,,,,,,,,threefour,,-1,0.7678,,,,,,,,,,,,,,,,,,,,,,,,,,,,,,,,,,"[-0.26280000000000003,-0.2158,-0.3256]","[0.12939999999999996,-0.2864,0.3253999999999999]",-69.59998959,-99.20000792,1,0,0,response5disk,-8.799988687,-3.200006485,1,0,0,rectangle,-8.799988687,-3.200006485,1,0,0,,3,0.0002,0,-8.799988687,-3.200006485,1,0,0,0,21,21,58,1,58,first,,,,,,,,,,,,,,,,,,,,,,,,,,,,,,,,,,,,,,,,,,,,,,,,,,,,,,,,
,,,,,,5c74d6a50b33c80001323744,629c51d4aaa8d2d26b4b2abb,2022-06-05_08h49.42.711,Colour_Asymmetry_Pilot,2022.1.3,Win32,30.16136329,629c4b6caf241d5e6e00bfc0,,,,,,,,,,,,,,,,,,,,twofour,,1,2.0954,,,,,,,,,,,,,,,,,,,,,,,,,,,,,,,,,,"[0.6547999999999998,-0.043199999999999905,-0.011800000000000033]","[-0.2942,-0.7648,-0.7492000000000001]",51.20001221,-107.200008,1,0,0,response3disk,-0.799988568,7.19999367,1,0,0,rectangle,-0.799988568,7.19999367,1,0,0,,3,0.0003,0,-0.799988568,7.19999367,1,0,0,0,22,22,119,1,38,second,,,,,,,,,,,,,,,,,,,,,,,,,,,,,,,,,,,,,,,,,,,,,,,,,,,,,,,,
