trials.thisRepN,trials.thisTrialN,trials.thisN,trials.thisIndex,trials.ran,Colourcodes,participant,session,date,expName,psychopyVersion,OS,frameRate,study_id,trials_4.thisRepN,trials_4.thisTrialN,trials_4.thisN,trials_4.thisIndex,trials_4.ran,StimulusPos,key_resp.keys,key_resp.rt,key_resp_2.keys,key_resp_2.rt,key_resp_15.keys,key_resp_15.rt,key_resp_17.keys,key_resp_17.rt,key_resp_9.keys,key_resp_9.rt,key_resp_10.keys,key_resp_10.rt,Circle1_col,Ecc,Circle2_col,similarity,response_time,mouse_5.x,mouse_5.y,mouse_5.leftButton,mouse_5.midButton,mouse_5.rightButton,mouse_5.clicked_name,mouse_10.x,mouse_10.y,mouse_10.leftButton,mouse_10.midButton,mouse_10.rightButton,mouse_10.clicked_name,mouse_7.x,mouse_7.y,mouse_7.leftButton,mouse_7.midButton,mouse_7.rightButton,catchnumberprac,mouse_6.x,mouse_6.y,mouse_6.leftButton,mouse_6.midButton,mouse_6.rightButton,duringprac.thisRepN,duringprac.thisTrialN,duringprac.thisN,duringprac.thisIndex,duringprac.ran,mouse_7.clicked_name,catchprac,mouse_6.clicked_name,key_resp_22.keys,key_resp_22.rt,Circle1_colour,Circle2_colour,mouse.x,mouse.y,mouse.leftButton,mouse.midButton,mouse.rightButton,mouse.clicked_name,mouse_2.x,mouse_2.y,mouse_2.leftButton,mouse_2.midButton,mouse_2.rightButton,mouse_2.clicked_name,mouse_3.x,mouse_3.y,mouse_3.leftButton,mouse_3.midButton,mouse_3.rightButton,catchresponse,catchnumber,response_time_catch,Catch,mouse_11.x,mouse_11.y,mouse_11.leftButton,mouse_11.midButton,mouse_11.rightButton,trials_2.thisRepN,trials_2.thisTrialN,trials_2.thisN,trials_2.thisIndex,trials_2.ran,Colourpair,Temporder,mouse_3.clicked_name,mouse_11.clicked_name,trials_3.thisRepN,trials_3.thisTrialN,trials_3.thisN,trials_3.thisIndex,trials_3.ran,textbox.text,mouse_4.x,mouse_4.y,mouse_4.leftButton,mouse_4.midButton,mouse_4.rightButton,mouse_4.clicked_name,textbox_2.text,mouse_8.x,mouse_8.y,mouse_8.leftButton,mouse_8.midButton,mouse_8.rightButton,mouse_8.clicked_name,textbox_3.text,mouse_9.x,mouse_9.y,mouse_9.leftButton,mouse_9.midButton,mouse_9.rightButton,mouse_9.clicked_name,textbox_4.text,mouse_12.x,mouse_12.y,mouse_12.leftButton,mouse_12.midButton,mouse_12.rightButton,mouse_12.clicked_name,textbox_5.text,mouse_13.x,mouse_13.y,mouse_13.leftButton,mouse_13.midButton,mouse_13.rightButton,mouse_13.clicked_name,textbox_6.text,mouse_14.x,mouse_14.y,mouse_14.leftButton,mouse_14.midButton,mouse_14.rightButton,mouse_14.clicked_name,textbox_7.text,mouse_15.x,mouse_15.y,mouse_15.leftButton,mouse_15.midButton,mouse_15.rightButton,mouse_15.clicked_name
0,0,0,6,1,,614f7d1a2eef4c845cbc7845,629c51d3c1d8502456d3cc3e,2022-06-05_01h46.21.454,Colour_Asymmetry_Pilot,2022.1.3,Win32,71.99424046,629c4b6caf241d5e6e00bfc0,,,,,,,,,,,,,,,,,,,,,,,,,,,,,,,,,,,,,,,,,,,,,,,,,,,,,,,,,,,,,,,,,,,,,,,,,,,,,,,,,,,,,,,,,,,,,,,,,,,,,,,,,,,,,,,,,,,,,,,,,,,,,,,,,,,,,,,,,,,,,,,,,,,
0,1,1,43,1,,614f7d1a2eef4c845cbc7845,629c51d3c1d8502456d3cc3e,2022-06-05_01h46.21.454,Colour_Asymmetry_Pilot,2022.1.3,Win32,71.99424046,629c4b6caf241d5e6e00bfc0,,,,,,,,,,,,,,,,,,,,,,,,,,,,,,,,,,,,,,,,,,,,,,,,,,,,,,,,,,,,,,,,,,,,,,,,,,,,,,,,,,,,,,,,,,,,,,,,,,,,,,,,,,,,,,,,,,,,,,,,,,,,,,,,,,,,,,,,,,,,,,,,,,,
0,2,2,77,1,,614f7d1a2eef4c845cbc7845,629c51d3c1d8502456d3cc3e,2022-06-05_01h46.21.454,Colour_Asymmetry_Pilot,2022.1.3,Win32,71.99424046,629c4b6caf241d5e6e00bfc0,,,,,,,,,,,,,,,,,,,,,,,,,,,,,,,,,,,,,,,,,,,,,,,,,,,,,,,,,,,,,,,,,,,,,,,,,,,,,,,,,,,,,,,,,,,,,,,,,,,,,,,,,,,,,,,,,,,,,,,,,,,,,,,,,,,,,,,,,,,,,,,,,,,
0,3,3,50,1,,614f7d1a2eef4c845cbc7845,629c51d3c1d8502456d3cc3e,2022-06-05_01h46.21.454,Colour_Asymmetry_Pilot,2022.1.3,Win32,71.99424046,629c4b6caf241d5e6e00bfc0,,,,,,,,,,,,,,,,,,,,,,,,,,,,,,,,,,,,,,,,,,,,,,,,,,,,,,,,,,,,,,,,,,,,,,,,,,,,,,,,,,,,,,,,,,,,,,,,,,,,,,,,,,,,,,,,,,,,,,,,,,,,,,,,,,,,,,,,,,,,,,,,,,,
0,4,4,81,1,,614f7d1a2eef4c845cbc7845,629c51d3c1d8502456d3cc3e,2022-06-05_01h46.21.454,Colour_Asymmetry_Pilot,2022.1.3,Win32,71.99424046,629c4b6caf241d5e6e00bfc0,,,,,,,,,,,,,,,,,,,,,,,,,,,,,,,,,,,,,,,,,,,,,,,,,,,,,,,,,,,,,,,,,,,,,,,,,,,,,,,,,,,,,,,,,,,,,,,,,,,,,,,,,,,,,,,,,,,,,,,,,,,,,,,,,,,,,,,,,,,,,,,,,,,
0,5,5,57,1,,614f7d1a2eef4c845cbc7845,629c51d3c1d8502456d3cc3e,2022-06-05_01h46.21.454,Colour_Asymmetry_Pilot,2022.1.3,Win32,71.99424046,629c4b6caf241d5e6e00bfc0,,,,,,,,,,,,,,,,,,,,,,,,,,,,,,,,,,,,,,,,,,,,,,,,,,,,,,,,,,,,,,,,,,,,,,,,,,,,,,,,,,,,,,,,,,,,,,,,,,,,,,,,,,,,,,,,,,,,,,,,,,,,,,,,,,,,,,,,,,,,,,,,,,,
0,6,6,21,1,,614f7d1a2eef4c845cbc7845,629c51d3c1d8502456d3cc3e,2022-06-05_01h46.21.454,Colour_Asymmetry_Pilot,2022.1.3,Win32,71.99424046,629c4b6caf241d5e6e00bfc0,,,,,,,,,,,,,,,,,,,,,,,,,,,,,,,,,,,,,,,,,,,,,,,,,,,,,,,,,,,,,,,,,,,,,,,,,,,,,,,,,,,,,,,,,,,,,,,,,,,,,,,,,,,,,,,,,,,,,,,,,,,,,,,,,,,,,,,,,,,,,,,,,,,
0,7,7,10,1,,614f7d1a2eef4c845cbc7845,629c51d3c1d8502456d3cc3e,2022-06-05_01h46.21.454,Colour_Asymmetry_Pilot,2022.1.3,Win32,71.99424046,629c4b6caf241d5e6e00bfc0,,,,,,,,,,,,,,,,,,,,,,,,,,,,,,,,,,,,,,,,,,,,,,,,,,,,,,,,,,,,,,,,,,,,,,,,,,,,,,,,,,,,,,,,,,,,,,,,,,,,,,,,,,,,,,,,,,,,,,,,,,,,,,,,,,,,,,,,,,,,,,,,,,,
0,8,8,52,1,,614f7d1a2eef4c845cbc7845,629c51d3c1d8502456d3cc3e,2022-06-05_01h46.21.454,Colour_Asymmetry_Pilot,2022.1.3,Win32,71.99424046,629c4b6caf241d5e6e00bfc0,,,,,,,,,,,,,,,,,,,,,,,,,,,,,,,,,,,,,,,,,,,,,,,,,,,,,,,,,,,,,,,,,,,,,,,,,,,,,,,,,,,,,,,,,,,,,,,,,,,,,,,,,,,,,,,,,,,,,,,,,,,,,,,,,,,,,,,,,,,,,,,,,,,
0,9,9,0,1,,614f7d1a2eef4c845cbc7845,629c51d3c1d8502456d3cc3e,2022-06-05_01h46.21.454,Colour_Asymmetry_Pilot,2022.1.3,Win32,71.99424046,629c4b6caf241d5e6e00bfc0,,,,,,,,,,,,,,,,,,,,,,,,,,,,,,,,,,,,,,,,,,,,,,,,,,,,,,,,,,,,,,,,,,,,,,,,,,,,,,,,,,,,,,,,,,,,,,,,,,,,,,,,,,,,,,,,,,,,,,,,,,,,,,,,,,,,,,,,,,,,,,,,,,,
0,10,10,67,1,,614f7d1a2eef4c845cbc7845,629c51d3c1d8502456d3cc3e,2022-06-05_01h46.21.454,Colour_Asymmetry_Pilot,2022.1.3,Win32,71.99424046,629c4b6caf241d5e6e00bfc0,,,,,,,,,,,,,,,,,,,,,,,,,,,,,,,,,,,,,,,,,,,,,,,,,,,,,,,,,,,,,,,,,,,,,,,,,,,,,,,,,,,,,,,,,,,,,,,,,,,,,,,,,,,,,,,,,,,,,,,,,,,,,,,,,,,,,,,,,,,,,,,,,,,
0,11,11,79,1,,614f7d1a2eef4c845cbc7845,629c51d3c1d8502456d3cc3e,2022-06-05_01h46.21.454,Colour_Asymmetry_Pilot,2022.1.3,Win32,71.99424046,629c4b6caf241d5e6e00bfc0,,,,,,,,,,,,,,,,,,,,,,,,,,,,,,,,,,,,,,,,,,,,,,,,,,,,,,,,,,,,,,,,,,,,,,,,,,,,,,,,,,,,,,,,,,,,,,,,,,,,,,,,,,,,,,,,,,,,,,,,,,,,,,,,,,,,,,,,,,,,,,,,,,,
0,12,12,16,1,,614f7d1a2eef4c845cbc7845,629c51d3c1d8502456d3cc3e,2022-06-05_01h46.21.454,Colour_Asymmetry_Pilot,2022.1.3,Win32,71.99424046,629c4b6caf241d5e6e00bfc0,,,,,,,,,,,,,,,,,,,,,,,,,,,,,,,,,,,,,,,,,,,,,,,,,,,,,,,,,,,,,,,,,,,,,,,,,,,,,,,,,,,,,,,,,,,,,,,,,,,,,,,,,,,,,,,,,,,,,,,,,,,,,,,,,,,,,,,,,,,,,,,,,,,
0,13,13,17,1,,614f7d1a2eef4c845cbc7845,629c51d3c1d8502456d3cc3e,2022-06-05_01h46.21.454,Colour_Asymmetry_Pilot,2022.1.3,Win32,71.99424046,629c4b6caf241d5e6e00bfc0,,,,,,,,,,,,,,,,,,,,,,,,,,,,,,,,,,,,,,,,,,,,,,,,,,,,,,,,,,,,,,,,,,,,,,,,,,,,,,,,,,,,,,,,,,,,,,,,,,,,,,,,,,,,,,,,,,,,,,,,,,,,,,,,,,,,,,,,,,,,,,,,,,,
0,14,14,42,1,,614f7d1a2eef4c845cbc7845,629c51d3c1d8502456d3cc3e,2022-06-05_01h46.21.454,Colour_Asymmetry_Pilot,2022.1.3,Win32,71.99424046,629c4b6caf241d5e6e00bfc0,,,,,,,,,,,,,,,,,,,,,,,,,,,,,,,,,,,,,,,,,,,,,,,,,,,,,,,,,,,,,,,,,,,,,,,,,,,,,,,,,,,,,,,,,,,,,,,,,,,,,,,,,,,,,,,,,,,,,,,,,,,,,,,,,,,,,,,,,,,,,,,,,,,
0,15,15,73,1,,614f7d1a2eef4c845cbc7845,629c51d3c1d8502456d3cc3e,2022-06-05_01h46.21.454,Colour_Asymmetry_Pilot,2022.1.3,Win32,71.99424046,629c4b6caf241d5e6e00bfc0,,,,,,,,,,,,,,,,,,,,,,,,,,,,,,,,,,,,,,,,,,,,,,,,,,,,,,,,,,,,,,,,,,,,,,,,,,,,,,,,,,,,,,,,,,,,,,,,,,,,,,,,,,,,,,,,,,,,,,,,,,,,,,,,,,,,,,,,,,,,,,,,,,,
0,16,16,3,1,,614f7d1a2eef4c845cbc7845,629c51d3c1d8502456d3cc3e,2022-06-05_01h46.21.454,Colour_Asymmetry_Pilot,2022.1.3,Win32,71.99424046,629c4b6caf241d5e6e00bfc0,,,,,,,,,,,,,,,,,,,,,,,,,,,,,,,,,,,,,,,,,,,,,,,,,,,,,,,,,,,,,,,,,,,,,,,,,,,,,,,,,,,,,,,,,,,,,,,,,,,,,,,,,,,,,,,,,,,,,,,,,,,,,,,,,,,,,,,,,,,,,,,,,,,
0,17,17,53,1,,614f7d1a2eef4c845cbc7845,629c51d3c1d8502456d3cc3e,2022-06-05_01h46.21.454,Colour_Asymmetry_Pilot,2022.1.3,Win32,71.99424046,629c4b6caf241d5e6e00bfc0,,,,,,,,,,,,,,,,,,,,,,,,,,,,,,,,,,,,,,,,,,,,,,,,,,,,,,,,,,,,,,,,,,,,,,,,,,,,,,,,,,,,,,,,,,,,,,,,,,,,,,,,,,,,,,,,,,,,,,,,,,,,,,,,,,,,,,,,,,,,,,,,,,,
0,18,18,83,1,,614f7d1a2eef4c845cbc7845,629c51d3c1d8502456d3cc3e,2022-06-05_01h46.21.454,Colour_Asymmetry_Pilot,2022.1.3,Win32,71.99424046,629c4b6caf241d5e6e00bfc0,,,,,,,,,,,,,,,,,,,,,,,,,,,,,,,,,,,,,,,,,,,,,,,,,,,,,,,,,,,,,,,,,,,,,,,,,,,,,,,,,,,,,,,,,,,,,,,,,,,,,,,,,,,,,,,,,,,,,,,,,,,,,,,,,,,,,,,,,,,,,,,,,,,
0,19,19,4,1,,614f7d1a2eef4c845cbc7845,629c51d3c1d8502456d3cc3e,2022-06-05_01h46.21.454,Colour_Asymmetry_Pilot,2022.1.3,Win32,71.99424046,629c4b6caf241d5e6e00bfc0,,,,,,,,,,,,,,,,,,,,,,,,,,,,,,,,,,,,,,,,,,,,,,,,,,,,,,,,,,,,,,,,,,,,,,,,,,,,,,,,,,,,,,,,,,,,,,,,,,,,,,,,,,,,,,,,,,,,,,,,,,,,,,,,,,,,,,,,,,,,,,,,,,,
0,20,20,89,1,,614f7d1a2eef4c845cbc7845,629c51d3c1d8502456d3cc3e,2022-06-05_01h46.21.454,Colour_Asymmetry_Pilot,2022.1.3,Win32,71.99424046,629c4b6caf241d5e6e00bfc0,,,,,,,,,,,,,,,,,,,,,,,,,,,,,,,,,,,,,,,,,,,,,,,,,,,,,,,,,,,,,,,,,,,,,,,,,,,,,,,,,,,,,,,,,,,,,,,,,,,,,,,,,,,,,,,,,,,,,,,,,,,,,,,,,,,,,,,,,,,,,,,,,,,
0,21,21,40,1,,614f7d1a2eef4c845cbc7845,629c51d3c1d8502456d3cc3e,2022-06-05_01h46.21.454,Colour_Asymmetry_Pilot,2022.1.3,Win32,71.99424046,629c4b6caf241d5e6e00bfc0,,,,,,,,,,,,,,,,,,,,,,,,,,,,,,,,,,,,,,,,,,,,,,,,,,,,,,,,,,,,,,,,,,,,,,,,,,,,,,,,,,,,,,,,,,,,,,,,,,,,,,,,,,,,,,,,,,,,,,,,,,,,,,,,,,,,,,,,,,,,,,,,,,,
0,22,22,2,1,,614f7d1a2eef4c845cbc7845,629c51d3c1d8502456d3cc3e,2022-06-05_01h46.21.454,Colour_Asymmetry_Pilot,2022.1.3,Win32,71.99424046,629c4b6caf241d5e6e00bfc0,,,,,,,,,,,,,,,,,,,,,,,,,,,,,,,,,,,,,,,,,,,,,,,,,,,,,,,,,,,,,,,,,,,,,,,,,,,,,,,,,,,,,,,,,,,,,,,,,,,,,,,,,,,,,,,,,,,,,,,,,,,,,,,,,,,,,,,,,,,,,,,,,,,
0,23,23,27,1,,614f7d1a2eef4c845cbc7845,629c51d3c1d8502456d3cc3e,2022-06-05_01h46.21.454,Colour_Asymmetry_Pilot,2022.1.3,Win32,71.99424046,629c4b6caf241d5e6e00bfc0,,,,,,,,,,,,,,,,,,,,,,,,,,,,,,,,,,,,,,,,,,,,,,,,,,,,,,,,,,,,,,,,,,,,,,,,,,,,,,,,,,,,,,,,,,,,,,,,,,,,,,,,,,,,,,,,,,,,,,,,,,,,,,,,,,,,,,,,,,,,,,,,,,,
0,24,24,41,1,,614f7d1a2eef4c845cbc7845,629c51d3c1d8502456d3cc3e,2022-06-05_01h46.21.454,Colour_Asymmetry_Pilot,2022.1.3,Win32,71.99424046,629c4b6caf241d5e6e00bfc0,,,,,,,,,,,,,,,,,,,,,,,,,,,,,,,,,,,,,,,,,,,,,,,,,,,,,,,,,,,,,,,,,,,,,,,,,,,,,,,,,,,,,,,,,,,,,,,,,,,,,,,,,,,,,,,,,,,,,,,,,,,,,,,,,,,,,,,,,,,,,,,,,,,
0,25,25,92,1,,614f7d1a2eef4c845cbc7845,629c51d3c1d8502456d3cc3e,2022-06-05_01h46.21.454,Colour_Asymmetry_Pilot,2022.1.3,Win32,71.99424046,629c4b6caf241d5e6e00bfc0,,,,,,,,,,,,,,,,,,,,,,,,,,,,,,,,,,,,,,,,,,,,,,,,,,,,,,,,,,,,,,,,,,,,,,,,,,,,,,,,,,,,,,,,,,,,,,,,,,,,,,,,,,,,,,,,,,,,,,,,,,,,,,,,,,,,,,,,,,,,,,,,,,,
0,26,26,31,1,,614f7d1a2eef4c845cbc7845,629c51d3c1d8502456d3cc3e,2022-06-05_01h46.21.454,Colour_Asymmetry_Pilot,2022.1.3,Win32,71.99424046,629c4b6caf241d5e6e00bfc0,,,,,,,,,,,,,,,,,,,,,,,,,,,,,,,,,,,,,,,,,,,,,,,,,,,,,,,,,,,,,,,,,,,,,,,,,,,,,,,,,,,,,,,,,,,,,,,,,,,,,,,,,,,,,,,,,,,,,,,,,,,,,,,,,,,,,,,,,,,,,,,,,,,
0,27,27,36,1,,614f7d1a2eef4c845cbc7845,629c51d3c1d8502456d3cc3e,2022-06-05_01h46.21.454,Colour_Asymmetry_Pilot,2022.1.3,Win32,71.99424046,629c4b6caf241d5e6e00bfc0,,,,,,,,,,,,,,,,,,,,,,,,,,,,,,,,,,,,,,,,,,,,,,,,,,,,,,,,,,,,,,,,,,,,,,,,,,,,,,,,,,,,,,,,,,,,,,,,,,,,,,,,,,,,,,,,,,,,,,,,,,,,,,,,,,,,,,,,,,,,,,,,,,,
0,28,28,35,1,,614f7d1a2eef4c845cbc7845,629c51d3c1d8502456d3cc3e,2022-06-05_01h46.21.454,Colour_Asymmetry_Pilot,2022.1.3,Win32,71.99424046,629c4b6caf241d5e6e00bfc0,,,,,,,,,,,,,,,,,,,,,,,,,,,,,,,,,,,,,,,,,,,,,,,,,,,,,,,,,,,,,,,,,,,,,,,,,,,,,,,,,,,,,,,,,,,,,,,,,,,,,,,,,,,,,,,,,,,,,,,,,,,,,,,,,,,,,,,,,,,,,,,,,,,
0,29,29,71,1,,614f7d1a2eef4c845cbc7845,629c51d3c1d8502456d3cc3e,2022-06-05_01h46.21.454,Colour_Asymmetry_Pilot,2022.1.3,Win32,71.99424046,629c4b6caf241d5e6e00bfc0,,,,,,,,,,,,,,,,,,,,,,,,,,,,,,,,,,,,,,,,,,,,,,,,,,,,,,,,,,,,,,,,,,,,,,,,,,,,,,,,,,,,,,,,,,,,,,,,,,,,,,,,,,,,,,,,,,,,,,,,,,,,,,,,,,,,,,,,,,,,,,,,,,,
0,30,30,80,1,,614f7d1a2eef4c845cbc7845,629c51d3c1d8502456d3cc3e,2022-06-05_01h46.21.454,Colour_Asymmetry_Pilot,2022.1.3,Win32,71.99424046,629c4b6caf241d5e6e00bfc0,,,,,,,,,,,,,,,,,,,,,,,,,,,,,,,,,,,,,,,,,,,,,,,,,,,,,,,,,,,,,,,,,,,,,,,,,,,,,,,,,,,,,,,,,,,,,,,,,,,,,,,,,,,,,,,,,,,,,,,,,,,,,,,,,,,,,,,,,,,,,,,,,,,
0,31,31,22,1,,614f7d1a2eef4c845cbc7845,629c51d3c1d8502456d3cc3e,2022-06-05_01h46.21.454,Colour_Asymmetry_Pilot,2022.1.3,Win32,71.99424046,629c4b6caf241d5e6e00bfc0,,,,,,,,,,,,,,,,,,,,,,,,,,,,,,,,,,,,,,,,,,,,,,,,,,,,,,,,,,,,,,,,,,,,,,,,,,,,,,,,,,,,,,,,,,,,,,,,,,,,,,,,,,,,,,,,,,,,,,,,,,,,,,,,,,,,,,,,,,,,,,,,,,,
0,32,32,84,1,,614f7d1a2eef4c845cbc7845,629c51d3c1d8502456d3cc3e,2022-06-05_01h46.21.454,Colour_Asymmetry_Pilot,2022.1.3,Win32,71.99424046,629c4b6caf241d5e6e00bfc0,,,,,,,,,,,,,,,,,,,,,,,,,,,,,,,,,,,,,,,,,,,,,,,,,,,,,,,,,,,,,,,,,,,,,,,,,,,,,,,,,,,,,,,,,,,,,,,,,,,,,,,,,,,,,,,,,,,,,,,,,,,,,,,,,,,,,,,,,,,,,,,,,,,
0,33,33,62,1,,614f7d1a2eef4c845cbc7845,629c51d3c1d8502456d3cc3e,2022-06-05_01h46.21.454,Colour_Asymmetry_Pilot,2022.1.3,Win32,71.99424046,629c4b6caf241d5e6e00bfc0,,,,,,,,,,,,,,,,,,,,,,,,,,,,,,,,,,,,,,,,,,,,,,,,,,,,,,,,,,,,,,,,,,,,,,,,,,,,,,,,,,,,,,,,,,,,,,,,,,,,,,,,,,,,,,,,,,,,,,,,,,,,,,,,,,,,,,,,,,,,,,,,,,,
0,34,34,78,1,,614f7d1a2eef4c845cbc7845,629c51d3c1d8502456d3cc3e,2022-06-05_01h46.21.454,Colour_Asymmetry_Pilot,2022.1.3,Win32,71.99424046,629c4b6caf241d5e6e00bfc0,,,,,,,,,,,,,,,,,,,,,,,,,,,,,,,,,,,,,,,,,,,,,,,,,,,,,,,,,,,,,,,,,,,,,,,,,,,,,,,,,,,,,,,,,,,,,,,,,,,,,,,,,,,,,,,,,,,,,,,,,,,,,,,,,,,,,,,,,,,,,,,,,,,
0,35,35,37,1,,614f7d1a2eef4c845cbc7845,629c51d3c1d8502456d3cc3e,2022-06-05_01h46.21.454,Colour_Asymmetry_Pilot,2022.1.3,Win32,71.99424046,629c4b6caf241d5e6e00bfc0,,,,,,,,,,,,,,,,,,,,,,,,,,,,,,,,,,,,,,,,,,,,,,,,,,,,,,,,,,,,,,,,,,,,,,,,,,,,,,,,,,,,,,,,,,,,,,,,,,,,,,,,,,,,,,,,,,,,,,,,,,,,,,,,,,,,,,,,,,,,,,,,,,,
0,36,36,1,1,,614f7d1a2eef4c845cbc7845,629c51d3c1d8502456d3cc3e,2022-06-05_01h46.21.454,Colour_Asymmetry_Pilot,2022.1.3,Win32,71.99424046,629c4b6caf241d5e6e00bfc0,,,,,,,,,,,,,,,,,,,,,,,,,,,,,,,,,,,,,,,,,,,,,,,,,,,,,,,,,,,,,,,,,,,,,,,,,,,,,,,,,,,,,,,,,,,,,,,,,,,,,,,,,,,,,,,,,,,,,,,,,,,,,,,,,,,,,,,,,,,,,,,,,,,
0,37,37,44,1,,614f7d1a2eef4c845cbc7845,629c51d3c1d8502456d3cc3e,2022-06-05_01h46.21.454,Colour_Asymmetry_Pilot,2022.1.3,Win32,71.99424046,629c4b6caf241d5e6e00bfc0,,,,,,,,,,,,,,,,,,,,,,,,,,,,,,,,,,,,,,,,,,,,,,,,,,,,,,,,,,,,,,,,,,,,,,,,,,,,,,,,,,,,,,,,,,,,,,,,,,,,,,,,,,,,,,,,,,,,,,,,,,,,,,,,,,,,,,,,,,,,,,,,,,,
0,38,38,47,1,,614f7d1a2eef4c845cbc7845,629c51d3c1d8502456d3cc3e,2022-06-05_01h46.21.454,Colour_Asymmetry_Pilot,2022.1.3,Win32,71.99424046,629c4b6caf241d5e6e00bfc0,,,,,,,,,,,,,,,,,,,,,,,,,,,,,,,,,,,,,,,,,,,,,,,,,,,,,,,,,,,,,,,,,,,,,,,,,,,,,,,,,,,,,,,,,,,,,,,,,,,,,,,,,,,,,,,,,,,,,,,,,,,,,,,,,,,,,,,,,,,,,,,,,,,
0,39,39,48,1,,614f7d1a2eef4c845cbc7845,629c51d3c1d8502456d3cc3e,2022-06-05_01h46.21.454,Colour_Asymmetry_Pilot,2022.1.3,Win32,71.99424046,629c4b6caf241d5e6e00bfc0,,,,,,,,,,,,,,,,,,,,,,,,,,,,,,,,,,,,,,,,,,,,,,,,,,,,,,,,,,,,,,,,,,,,,,,,,,,,,,,,,,,,,,,,,,,,,,,,,,,,,,,,,,,,,,,,,,,,,,,,,,,,,,,,,,,,,,,,,,,,,,,,,,,
0,40,40,33,1,,614f7d1a2eef4c845cbc7845,629c51d3c1d8502456d3cc3e,2022-06-05_01h46.21.454,Colour_Asymmetry_Pilot,2022.1.3,Win32,71.99424046,629c4b6caf241d5e6e00bfc0,,,,,,,,,,,,,,,,,,,,,,,,,,,,,,,,,,,,,,,,,,,,,,,,,,,,,,,,,,,,,,,,,,,,,,,,,,,,,,,,,,,,,,,,,,,,,,,,,,,,,,,,,,,,,,,,,,,,,,,,,,,,,,,,,,,,,,,,,,,,,,,,,,,
0,41,41,55,1,,614f7d1a2eef4c845cbc7845,629c51d3c1d8502456d3cc3e,2022-06-05_01h46.21.454,Colour_Asymmetry_Pilot,2022.1.3,Win32,71.99424046,629c4b6caf241d5e6e00bfc0,,,,,,,,,,,,,,,,,,,,,,,,,,,,,,,,,,,,,,,,,,,,,,,,,,,,,,,,,,,,,,,,,,,,,,,,,,,,,,,,,,,,,,,,,,,,,,,,,,,,,,,,,,,,,,,,,,,,,,,,,,,,,,,,,,,,,,,,,,,,,,,,,,,
0,42,42,60,1,,614f7d1a2eef4c845cbc7845,629c51d3c1d8502456d3cc3e,2022-06-05_01h46.21.454,Colour_Asymmetry_Pilot,2022.1.3,Win32,71.99424046,629c4b6caf241d5e6e00bfc0,,,,,,,,,,,,,,,,,,,,,,,,,,,,,,,,,,,,,,,,,,,,,,,,,,,,,,,,,,,,,,,,,,,,,,,,,,,,,,,,,,,,,,,,,,,,,,,,,,,,,,,,,,,,,,,,,,,,,,,,,,,,,,,,,,,,,,,,,,,,,,,,,,,
0,43,43,90,1,,614f7d1a2eef4c845cbc7845,629c51d3c1d8502456d3cc3e,2022-06-05_01h46.21.454,Colour_Asymmetry_Pilot,2022.1.3,Win32,71.99424046,629c4b6caf241d5e6e00bfc0,,,,,,,,,,,,,,,,,,,,,,,,,,,,,,,,,,,,,,,,,,,,,,,,,,,,,,,,,,,,,,,,,,,,,,,,,,,,,,,,,,,,,,,,,,,,,,,,,,,,,,,,,,,,,,,,,,,,,,,,,,,,,,,,,,,,,,,,,,,,,,,,,,,
0,44,44,65,1,,614f7d1a2eef4c845cbc7845,629c51d3c1d8502456d3cc3e,2022-06-05_01h46.21.454,Colour_Asymmetry_Pilot,2022.1.3,Win32,71.99424046,629c4b6caf241d5e6e00bfc0,,,,,,,,,,,,,,,,,,,,,,,,,,,,,,,,,,,,,,,,,,,,,,,,,,,,,,,,,,,,,,,,,,,,,,,,,,,,,,,,,,,,,,,,,,,,,,,,,,,,,,,,,,,,,,,,,,,,,,,,,,,,,,,,,,,,,,,,,,,,,,,,,,,
0,45,45,14,1,,614f7d1a2eef4c845cbc7845,629c51d3c1d8502456d3cc3e,2022-06-05_01h46.21.454,Colour_Asymmetry_Pilot,2022.1.3,Win32,71.99424046,629c4b6caf241d5e6e00bfc0,,,,,,,,,,,,,,,,,,,,,,,,,,,,,,,,,,,,,,,,,,,,,,,,,,,,,,,,,,,,,,,,,,,,,,,,,,,,,,,,,,,,,,,,,,,,,,,,,,,,,,,,,,,,,,,,,,,,,,,,,,,,,,,,,,,,,,,,,,,,,,,,,,,
0,46,46,11,1,,614f7d1a2eef4c845cbc7845,629c51d3c1d8502456d3cc3e,2022-06-05_01h46.21.454,Colour_Asymmetry_Pilot,2022.1.3,Win32,71.99424046,629c4b6caf241d5e6e00bfc0,,,,,,,,,,,,,,,,,,,,,,,,,,,,,,,,,,,,,,,,,,,,,,,,,,,,,,,,,,,,,,,,,,,,,,,,,,,,,,,,,,,,,,,,,,,,,,,,,,,,,,,,,,,,,,,,,,,,,,,,,,,,,,,,,,,,,,,,,,,,,,,,,,,
0,47,47,75,1,,614f7d1a2eef4c845cbc7845,629c51d3c1d8502456d3cc3e,2022-06-05_01h46.21.454,Colour_Asymmetry_Pilot,2022.1.3,Win32,71.99424046,629c4b6caf241d5e6e00bfc0,,,,,,,,,,,,,,,,,,,,,,,,,,,,,,,,,,,,,,,,,,,,,,,,,,,,,,,,,,,,,,,,,,,,,,,,,,,,,,,,,,,,,,,,,,,,,,,,,,,,,,,,,,,,,,,,,,,,,,,,,,,,,,,,,,,,,,,,,,,,,,,,,,,
0,48,48,88,1,,614f7d1a2eef4c845cbc7845,629c51d3c1d8502456d3cc3e,2022-06-05_01h46.21.454,Colour_Asymmetry_Pilot,2022.1.3,Win32,71.99424046,629c4b6caf241d5e6e00bfc0,,,,,,,,,,,,,,,,,,,,,,,,,,,,,,,,,,,,,,,,,,,,,,,,,,,,,,,,,,,,,,,,,,,,,,,,,,,,,,,,,,,,,,,,,,,,,,,,,,,,,,,,,,,,,,,,,,,,,,,,,,,,,,,,,,,,,,,,,,,,,,,,,,,
0,49,49,91,1,,614f7d1a2eef4c845cbc7845,629c51d3c1d8502456d3cc3e,2022-06-05_01h46.21.454,Colour_Asymmetry_Pilot,2022.1.3,Win32,71.99424046,629c4b6caf241d5e6e00bfc0,,,,,,,,,,,,,,,,,,,,,,,,,,,,,,,,,,,,,,,,,,,,,,,,,,,,,,,,,,,,,,,,,,,,,,,,,,,,,,,,,,,,,,,,,,,,,,,,,,,,,,,,,,,,,,,,,,,,,,,,,,,,,,,,,,,,,,,,,,,,,,,,,,,
0,50,50,28,1,,614f7d1a2eef4c845cbc7845,629c51d3c1d8502456d3cc3e,2022-06-05_01h46.21.454,Colour_Asymmetry_Pilot,2022.1.3,Win32,71.99424046,629c4b6caf241d5e6e00bfc0,,,,,,,,,,,,,,,,,,,,,,,,,,,,,,,,,,,,,,,,,,,,,,,,,,,,,,,,,,,,,,,,,,,,,,,,,,,,,,,,,,,,,,,,,,,,,,,,,,,,,,,,,,,,,,,,,,,,,,,,,,,,,,,,,,,,,,,,,,,,,,,,,,,
0,51,51,26,1,,614f7d1a2eef4c845cbc7845,629c51d3c1d8502456d3cc3e,2022-06-05_01h46.21.454,Colour_Asymmetry_Pilot,2022.1.3,Win32,71.99424046,629c4b6caf241d5e6e00bfc0,,,,,,,,,,,,,,,,,,,,,,,,,,,,,,,,,,,,,,,,,,,,,,,,,,,,,,,,,,,,,,,,,,,,,,,,,,,,,,,,,,,,,,,,,,,,,,,,,,,,,,,,,,,,,,,,,,,,,,,,,,,,,,,,,,,,,,,,,,,,,,,,,,,
0,52,52,19,1,,614f7d1a2eef4c845cbc7845,629c51d3c1d8502456d3cc3e,2022-06-05_01h46.21.454,Colour_Asymmetry_Pilot,2022.1.3,Win32,71.99424046,629c4b6caf241d5e6e00bfc0,,,,,,,,,,,,,,,,,,,,,,,,,,,,,,,,,,,,,,,,,,,,,,,,,,,,,,,,,,,,,,,,,,,,,,,,,,,,,,,,,,,,,,,,,,,,,,,,,,,,,,,,,,,,,,,,,,,,,,,,,,,,,,,,,,,,,,,,,,,,,,,,,,,
0,53,53,68,1,,614f7d1a2eef4c845cbc7845,629c51d3c1d8502456d3cc3e,2022-06-05_01h46.21.454,Colour_Asymmetry_Pilot,2022.1.3,Win32,71.99424046,629c4b6caf241d5e6e00bfc0,,,,,,,,,,,,,,,,,,,,,,,,,,,,,,,,,,,,,,,,,,,,,,,,,,,,,,,,,,,,,,,,,,,,,,,,,,,,,,,,,,,,,,,,,,,,,,,,,,,,,,,,,,,,,,,,,,,,,,,,,,,,,,,,,,,,,,,,,,,,,,,,,,,
0,54,54,85,1,,614f7d1a2eef4c845cbc7845,629c51d3c1d8502456d3cc3e,2022-06-05_01h46.21.454,Colour_Asymmetry_Pilot,2022.1.3,Win32,71.99424046,629c4b6caf241d5e6e00bfc0,,,,,,,,,,,,,,,,,,,,,,,,,,,,,,,,,,,,,,,,,,,,,,,,,,,,,,,,,,,,,,,,,,,,,,,,,,,,,,,,,,,,,,,,,,,,,,,,,,,,,,,,,,,,,,,,,,,,,,,,,,,,,,,,,,,,,,,,,,,,,,,,,,,
0,55,55,25,1,,614f7d1a2eef4c845cbc7845,629c51d3c1d8502456d3cc3e,2022-06-05_01h46.21.454,Colour_Asymmetry_Pilot,2022.1.3,Win32,71.99424046,629c4b6caf241d5e6e00bfc0,,,,,,,,,,,,,,,,,,,,,,,,,,,,,,,,,,,,,,,,,,,,,,,,,,,,,,,,,,,,,,,,,,,,,,,,,,,,,,,,,,,,,,,,,,,,,,,,,,,,,,,,,,,,,,,,,,,,,,,,,,,,,,,,,,,,,,,,,,,,,,,,,,,
0,56,56,49,1,,614f7d1a2eef4c845cbc7845,629c51d3c1d8502456d3cc3e,2022-06-05_01h46.21.454,Colour_Asymmetry_Pilot,2022.1.3,Win32,71.99424046,629c4b6caf241d5e6e00bfc0,,,,,,,,,,,,,,,,,,,,,,,,,,,,,,,,,,,,,,,,,,,,,,,,,,,,,,,,,,,,,,,,,,,,,,,,,,,,,,,,,,,,,,,,,,,,,,,,,,,,,,,,,,,,,,,,,,,,,,,,,,,,,,,,,,,,,,,,,,,,,,,,,,,
0,57,57,23,1,,614f7d1a2eef4c845cbc7845,629c51d3c1d8502456d3cc3e,2022-06-05_01h46.21.454,Colour_Asymmetry_Pilot,2022.1.3,Win32,71.99424046,629c4b6caf241d5e6e00bfc0,,,,,,,,,,,,,,,,,,,,,,,,,,,,,,,,,,,,,,,,,,,,,,,,,,,,,,,,,,,,,,,,,,,,,,,,,,,,,,,,,,,,,,,,,,,,,,,,,,,,,,,,,,,,,,,,,,,,,,,,,,,,,,,,,,,,,,,,,,,,,,,,,,,
0,58,58,13,1,,614f7d1a2eef4c845cbc7845,629c51d3c1d8502456d3cc3e,2022-06-05_01h46.21.454,Colour_Asymmetry_Pilot,2022.1.3,Win32,71.99424046,629c4b6caf241d5e6e00bfc0,,,,,,,,,,,,,,,,,,,,,,,,,,,,,,,,,,,,,,,,,,,,,,,,,,,,,,,,,,,,,,,,,,,,,,,,,,,,,,,,,,,,,,,,,,,,,,,,,,,,,,,,,,,,,,,,,,,,,,,,,,,,,,,,,,,,,,,,,,,,,,,,,,,
0,59,59,8,1,,614f7d1a2eef4c845cbc7845,629c51d3c1d8502456d3cc3e,2022-06-05_01h46.21.454,Colour_Asymmetry_Pilot,2022.1.3,Win32,71.99424046,629c4b6caf241d5e6e00bfc0,,,,,,,,,,,,,,,,,,,,,,,,,,,,,,,,,,,,,,,,,,,,,,,,,,,,,,,,,,,,,,,,,,,,,,,,,,,,,,,,,,,,,,,,,,,,,,,,,,,,,,,,,,,,,,,,,,,,,,,,,,,,,,,,,,,,,,,,,,,,,,,,,,,
0,60,60,24,1,,614f7d1a2eef4c845cbc7845,629c51d3c1d8502456d3cc3e,2022-06-05_01h46.21.454,Colour_Asymmetry_Pilot,2022.1.3,Win32,71.99424046,629c4b6caf241d5e6e00bfc0,,,,,,,,,,,,,,,,,,,,,,,,,,,,,,,,,,,,,,,,,,,,,,,,,,,,,,,,,,,,,,,,,,,,,,,,,,,,,,,,,,,,,,,,,,,,,,,,,,,,,,,,,,,,,,,,,,,,,,,,,,,,,,,,,,,,,,,,,,,,,,,,,,,
0,61,61,69,1,,614f7d1a2eef4c845cbc7845,629c51d3c1d8502456d3cc3e,2022-06-05_01h46.21.454,Colour_Asymmetry_Pilot,2022.1.3,Win32,71.99424046,629c4b6caf241d5e6e00bfc0,,,,,,,,,,,,,,,,,,,,,,,,,,,,,,,,,,,,,,,,,,,,,,,,,,,,,,,,,,,,,,,,,,,,,,,,,,,,,,,,,,,,,,,,,,,,,,,,,,,,,,,,,,,,,,,,,,,,,,,,,,,,,,,,,,,,,,,,,,,,,,,,,,,
0,62,62,32,1,,614f7d1a2eef4c845cbc7845,629c51d3c1d8502456d3cc3e,2022-06-05_01h46.21.454,Colour_Asymmetry_Pilot,2022.1.3,Win32,71.99424046,629c4b6caf241d5e6e00bfc0,,,,,,,,,,,,,,,,,,,,,,,,,,,,,,,,,,,,,,,,,,,,,,,,,,,,,,,,,,,,,,,,,,,,,,,,,,,,,,,,,,,,,,,,,,,,,,,,,,,,,,,,,,,,,,,,,,,,,,,,,,,,,,,,,,,,,,,,,,,,,,,,,,,
0,63,63,51,1,,614f7d1a2eef4c845cbc7845,629c51d3c1d8502456d3cc3e,2022-06-05_01h46.21.454,Colour_Asymmetry_Pilot,2022.1.3,Win32,71.99424046,629c4b6caf241d5e6e00bfc0,,,,,,,,,,,,,,,,,,,,,,,,,,,,,,,,,,,,,,,,,,,,,,,,,,,,,,,,,,,,,,,,,,,,,,,,,,,,,,,,,,,,,,,,,,,,,,,,,,,,,,,,,,,,,,,,,,,,,,,,,,,,,,,,,,,,,,,,,,,,,,,,,,,
0,64,64,64,1,,614f7d1a2eef4c845cbc7845,629c51d3c1d8502456d3cc3e,2022-06-05_01h46.21.454,Colour_Asymmetry_Pilot,2022.1.3,Win32,71.99424046,629c4b6caf241d5e6e00bfc0,,,,,,,,,,,,,,,,,,,,,,,,,,,,,,,,,,,,,,,,,,,,,,,,,,,,,,,,,,,,,,,,,,,,,,,,,,,,,,,,,,,,,,,,,,,,,,,,,,,,,,,,,,,,,,,,,,,,,,,,,,,,,,,,,,,,,,,,,,,,,,,,,,,
0,65,65,46,1,,614f7d1a2eef4c845cbc7845,629c51d3c1d8502456d3cc3e,2022-06-05_01h46.21.454,Colour_Asymmetry_Pilot,2022.1.3,Win32,71.99424046,629c4b6caf241d5e6e00bfc0,,,,,,,,,,,,,,,,,,,,,,,,,,,,,,,,,,,,,,,,,,,,,,,,,,,,,,,,,,,,,,,,,,,,,,,,,,,,,,,,,,,,,,,,,,,,,,,,,,,,,,,,,,,,,,,,,,,,,,,,,,,,,,,,,,,,,,,,,,,,,,,,,,,
0,66,66,87,1,,614f7d1a2eef4c845cbc7845,629c51d3c1d8502456d3cc3e,2022-06-05_01h46.21.454,Colour_Asymmetry_Pilot,2022.1.3,Win32,71.99424046,629c4b6caf241d5e6e00bfc0,,,,,,,,,,,,,,,,,,,,,,,,,,,,,,,,,,,,,,,,,,,,,,,,,,,,,,,,,,,,,,,,,,,,,,,,,,,,,,,,,,,,,,,,,,,,,,,,,,,,,,,,,,,,,,,,,,,,,,,,,,,,,,,,,,,,,,,,,,,,,,,,,,,
0,67,67,82,1,,614f7d1a2eef4c845cbc7845,629c51d3c1d8502456d3cc3e,2022-06-05_01h46.21.454,Colour_Asymmetry_Pilot,2022.1.3,Win32,71.99424046,629c4b6caf241d5e6e00bfc0,,,,,,,,,,,,,,,,,,,,,,,,,,,,,,,,,,,,,,,,,,,,,,,,,,,,,,,,,,,,,,,,,,,,,,,,,,,,,,,,,,,,,,,,,,,,,,,,,,,,,,,,,,,,,,,,,,,,,,,,,,,,,,,,,,,,,,,,,,,,,,,,,,,
0,68,68,15,1,,614f7d1a2eef4c845cbc7845,629c51d3c1d8502456d3cc3e,2022-06-05_01h46.21.454,Colour_Asymmetry_Pilot,2022.1.3,Win32,71.99424046,629c4b6caf241d5e6e00bfc0,,,,,,,,,,,,,,,,,,,,,,,,,,,,,,,,,,,,,,,,,,,,,,,,,,,,,,,,,,,,,,,,,,,,,,,,,,,,,,,,,,,,,,,,,,,,,,,,,,,,,,,,,,,,,,,,,,,,,,,,,,,,,,,,,,,,,,,,,,,,,,,,,,,
0,69,69,56,1,,614f7d1a2eef4c845cbc7845,629c51d3c1d8502456d3cc3e,2022-06-05_01h46.21.454,Colour_Asymmetry_Pilot,2022.1.3,Win32,71.99424046,629c4b6caf241d5e6e00bfc0,,,,,,,,,,,,,,,,,,,,,,,,,,,,,,,,,,,,,,,,,,,,,,,,,,,,,,,,,,,,,,,,,,,,,,,,,,,,,,,,,,,,,,,,,,,,,,,,,,,,,,,,,,,,,,,,,,,,,,,,,,,,,,,,,,,,,,,,,,,,,,,,,,,
0,70,70,66,1,,614f7d1a2eef4c845cbc7845,629c51d3c1d8502456d3cc3e,2022-06-05_01h46.21.454,Colour_Asymmetry_Pilot,2022.1.3,Win32,71.99424046,629c4b6caf241d5e6e00bfc0,,,,,,,,,,,,,,,,,,,,,,,,,,,,,,,,,,,,,,,,,,,,,,,,,,,,,,,,,,,,,,,,,,,,,,,,,,,,,,,,,,,,,,,,,,,,,,,,,,,,,,,,,,,,,,,,,,,,,,,,,,,,,,,,,,,,,,,,,,,,,,,,,,,
0,71,71,9,1,,614f7d1a2eef4c845cbc7845,629c51d3c1d8502456d3cc3e,2022-06-05_01h46.21.454,Colour_Asymmetry_Pilot,2022.1.3,Win32,71.99424046,629c4b6caf241d5e6e00bfc0,,,,,,,,,,,,,,,,,,,,,,,,,,,,,,,,,,,,,,,,,,,,,,,,,,,,,,,,,,,,,,,,,,,,,,,,,,,,,,,,,,,,,,,,,,,,,,,,,,,,,,,,,,,,,,,,,,,,,,,,,,,,,,,,,,,,,,,,,,,,,,,,,,,
0,72,72,7,1,,614f7d1a2eef4c845cbc7845,629c51d3c1d8502456d3cc3e,2022-06-05_01h46.21.454,Colour_Asymmetry_Pilot,2022.1.3,Win32,71.99424046,629c4b6caf241d5e6e00bfc0,,,,,,,,,,,,,,,,,,,,,,,,,,,,,,,,,,,,,,,,,,,,,,,,,,,,,,,,,,,,,,,,,,,,,,,,,,,,,,,,,,,,,,,,,,,,,,,,,,,,,,,,,,,,,,,,,,,,,,,,,,,,,,,,,,,,,,,,,,,,,,,,,,,
0,73,73,29,1,,614f7d1a2eef4c845cbc7845,629c51d3c1d8502456d3cc3e,2022-06-05_01h46.21.454,Colour_Asymmetry_Pilot,2022.1.3,Win32,71.99424046,629c4b6caf241d5e6e00bfc0,,,,,,,,,,,,,,,,,,,,,,,,,,,,,,,,,,,,,,,,,,,,,,,,,,,,,,,,,,,,,,,,,,,,,,,,,,,,,,,,,,,,,,,,,,,,,,,,,,,,,,,,,,,,,,,,,,,,,,,,,,,,,,,,,,,,,,,,,,,,,,,,,,,
0,74,74,45,1,,614f7d1a2eef4c845cbc7845,629c51d3c1d8502456d3cc3e,2022-06-05_01h46.21.454,Colour_Asymmetry_Pilot,2022.1.3,Win32,71.99424046,629c4b6caf241d5e6e00bfc0,,,,,,,,,,,,,,,,,,,,,,,,,,,,,,,,,,,,,,,,,,,,,,,,,,,,,,,,,,,,,,,,,,,,,,,,,,,,,,,,,,,,,,,,,,,,,,,,,,,,,,,,,,,,,,,,,,,,,,,,,,,,,,,,,,,,,,,,,,,,,,,,,,,
0,75,75,12,1,,614f7d1a2eef4c845cbc7845,629c51d3c1d8502456d3cc3e,2022-06-05_01h46.21.454,Colour_Asymmetry_Pilot,2022.1.3,Win32,71.99424046,629c4b6caf241d5e6e00bfc0,,,,,,,,,,,,,,,,,,,,,,,,,,,,,,,,,,,,,,,,,,,,,,,,,,,,,,,,,,,,,,,,,,,,,,,,,,,,,,,,,,,,,,,,,,,,,,,,,,,,,,,,,,,,,,,,,,,,,,,,,,,,,,,,,,,,,,,,,,,,,,,,,,,
0,76,76,58,1,,614f7d1a2eef4c845cbc7845,629c51d3c1d8502456d3cc3e,2022-06-05_01h46.21.454,Colour_Asymmetry_Pilot,2022.1.3,Win32,71.99424046,629c4b6caf241d5e6e00bfc0,,,,,,,,,,,,,,,,,,,,,,,,,,,,,,,,,,,,,,,,,,,,,,,,,,,,,,,,,,,,,,,,,,,,,,,,,,,,,,,,,,,,,,,,,,,,,,,,,,,,,,,,,,,,,,,,,,,,,,,,,,,,,,,,,,,,,,,,,,,,,,,,,,,
0,77,77,30,1,,614f7d1a2eef4c845cbc7845,629c51d3c1d8502456d3cc3e,2022-06-05_01h46.21.454,Colour_Asymmetry_Pilot,2022.1.3,Win32,71.99424046,629c4b6caf241d5e6e00bfc0,,,,,,,,,,,,,,,,,,,,,,,,,,,,,,,,,,,,,,,,,,,,,,,,,,,,,,,,,,,,,,,,,,,,,,,,,,,,,,,,,,,,,,,,,,,,,,,,,,,,,,,,,,,,,,,,,,,,,,,,,,,,,,,,,,,,,,,,,,,,,,,,,,,
0,78,78,70,1,,614f7d1a2eef4c845cbc7845,629c51d3c1d8502456d3cc3e,2022-06-05_01h46.21.454,Colour_Asymmetry_Pilot,2022.1.3,Win32,71.99424046,629c4b6caf241d5e6e00bfc0,,,,,,,,,,,,,,,,,,,,,,,,,,,,,,,,,,,,,,,,,,,,,,,,,,,,,,,,,,,,,,,,,,,,,,,,,,,,,,,,,,,,,,,,,,,,,,,,,,,,,,,,,,,,,,,,,,,,,,,,,,,,,,,,,,,,,,,,,,,,,,,,,,,
0,79,79,86,1,,614f7d1a2eef4c845cbc7845,629c51d3c1d8502456d3cc3e,2022-06-05_01h46.21.454,Colour_Asymmetry_Pilot,2022.1.3,Win32,71.99424046,629c4b6caf241d5e6e00bfc0,,,,,,,,,,,,,,,,,,,,,,,,,,,,,,,,,,,,,,,,,,,,,,,,,,,,,,,,,,,,,,,,,,,,,,,,,,,,,,,,,,,,,,,,,,,,,,,,,,,,,,,,,,,,,,,,,,,,,,,,,,,,,,,,,,,,,,,,,,,,,,,,,,,
0,80,80,63,1,,614f7d1a2eef4c845cbc7845,629c51d3c1d8502456d3cc3e,2022-06-05_01h46.21.454,Colour_Asymmetry_Pilot,2022.1.3,Win32,71.99424046,629c4b6caf241d5e6e00bfc0,,,,,,,,,,,,,,,,,,,,,,,,,,,,,,,,,,,,,,,,,,,,,,,,,,,,,,,,,,,,,,,,,,,,,,,,,,,,,,,,,,,,,,,,,,,,,,,,,,,,,,,,,,,,,,,,,,,,,,,,,,,,,,,,,,,,,,,,,,,,,,,,,,,
0,81,81,34,1,,614f7d1a2eef4c845cbc7845,629c51d3c1d8502456d3cc3e,2022-06-05_01h46.21.454,Colour_Asymmetry_Pilot,2022.1.3,Win32,71.99424046,629c4b6caf241d5e6e00bfc0,,,,,,,,,,,,,,,,,,,,,,,,,,,,,,,,,,,,,,,,,,,,,,,,,,,,,,,,,,,,,,,,,,,,,,,,,,,,,,,,,,,,,,,,,,,,,,,,,,,,,,,,,,,,,,,,,,,,,,,,,,,,,,,,,,,,,,,,,,,,,,,,,,,
0,82,82,20,1,,614f7d1a2eef4c845cbc7845,629c51d3c1d8502456d3cc3e,2022-06-05_01h46.21.454,Colour_Asymmetry_Pilot,2022.1.3,Win32,71.99424046,629c4b6caf241d5e6e00bfc0,,,,,,,,,,,,,,,,,,,,,,,,,,,,,,,,,,,,,,,,,,,,,,,,,,,,,,,,,,,,,,,,,,,,,,,,,,,,,,,,,,,,,,,,,,,,,,,,,,,,,,,,,,,,,,,,,,,,,,,,,,,,,,,,,,,,,,,,,,,,,,,,,,,
0,83,83,74,1,,614f7d1a2eef4c845cbc7845,629c51d3c1d8502456d3cc3e,2022-06-05_01h46.21.454,Colour_Asymmetry_Pilot,2022.1.3,Win32,71.99424046,629c4b6caf241d5e6e00bfc0,,,,,,,,,,,,,,,,,,,,,,,,,,,,,,,,,,,,,,,,,,,,,,,,,,,,,,,,,,,,,,,,,,,,,,,,,,,,,,,,,,,,,,,,,,,,,,,,,,,,,,,,,,,,,,,,,,,,,,,,,,,,,,,,,,,,,,,,,,,,,,,,,,,
0,84,84,38,1,,614f7d1a2eef4c845cbc7845,629c51d3c1d8502456d3cc3e,2022-06-05_01h46.21.454,Colour_Asymmetry_Pilot,2022.1.3,Win32,71.99424046,629c4b6caf241d5e6e00bfc0,,,,,,,,,,,,,,,,,,,,,,,,,,,,,,,,,,,,,,,,,,,,,,,,,,,,,,,,,,,,,,,,,,,,,,,,,,,,,,,,,,,,,,,,,,,,,,,,,,,,,,,,,,,,,,,,,,,,,,,,,,,,,,,,,,,,,,,,,,,,,,,,,,,
0,85,85,5,1,,614f7d1a2eef4c845cbc7845,629c51d3c1d8502456d3cc3e,2022-06-05_01h46.21.454,Colour_Asymmetry_Pilot,2022.1.3,Win32,71.99424046,629c4b6caf241d5e6e00bfc0,,,,,,,,,,,,,,,,,,,,,,,,,,,,,,,,,,,,,,,,,,,,,,,,,,,,,,,,,,,,,,,,,,,,,,,,,,,,,,,,,,,,,,,,,,,,,,,,,,,,,,,,,,,,,,,,,,,,,,,,,,,,,,,,,,,,,,,,,,,,,,,,,,,
0,86,86,39,1,,614f7d1a2eef4c845cbc7845,629c51d3c1d8502456d3cc3e,2022-06-05_01h46.21.454,Colour_Asymmetry_Pilot,2022.1.3,Win32,71.99424046,629c4b6caf241d5e6e00bfc0,,,,,,,,,,,,,,,,,,,,,,,,,,,,,,,,,,,,,,,,,,,,,,,,,,,,,,,,,,,,,,,,,,,,,,,,,,,,,,,,,,,,,,,,,,,,,,,,,,,,,,,,,,,,,,,,,,,,,,,,,,,,,,,,,,,,,,,,,,,,,,,,,,,
0,87,87,18,1,,614f7d1a2eef4c845cbc7845,629c51d3c1d8502456d3cc3e,2022-06-05_01h46.21.454,Colour_Asymmetry_Pilot,2022.1.3,Win32,71.99424046,629c4b6caf241d5e6e00bfc0,,,,,,,,,,,,,,,,,,,,,,,,,,,,,,,,,,,,,,,,,,,,,,,,,,,,,,,,,,,,,,,,,,,,,,,,,,,,,,,,,,,,,,,,,,,,,,,,,,,,,,,,,,,,,,,,,,,,,,,,,,,,,,,,,,,,,,,,,,,,,,,,,,,
0,88,88,76,1,,614f7d1a2eef4c845cbc7845,629c51d3c1d8502456d3cc3e,2022-06-05_01h46.21.454,Colour_Asymmetry_Pilot,2022.1.3,Win32,71.99424046,629c4b6caf241d5e6e00bfc0,,,,,,,,,,,,,,,,,,,,,,,,,,,,,,,,,,,,,,,,,,,,,,,,,,,,,,,,,,,,,,,,,,,,,,,,,,,,,,,,,,,,,,,,,,,,,,,,,,,,,,,,,,,,,,,,,,,,,,,,,,,,,,,,,,,,,,,,,,,,,,,,,,,
0,89,89,72,1,,614f7d1a2eef4c845cbc7845,629c51d3c1d8502456d3cc3e,2022-06-05_01h46.21.454,Colour_Asymmetry_Pilot,2022.1.3,Win32,71.99424046,629c4b6caf241d5e6e00bfc0,,,,,,,,,,,,,,,,,,,,,,,,,,,,,,,,,,,,,,,,,,,,,,,,,,,,,,,,,,,,,,,,,,,,,,,,,,,,,,,,,,,,,,,,,,,,,,,,,,,,,,,,,,,,,,,,,,,,,,,,,,,,,,,,,,,,,,,,,,,,,,,,,,,
0,90,90,54,1,,614f7d1a2eef4c845cbc7845,629c51d3c1d8502456d3cc3e,2022-06-05_01h46.21.454,Colour_Asymmetry_Pilot,2022.1.3,Win32,71.99424046,629c4b6caf241d5e6e00bfc0,,,,,,,,,,,,,,,,,,,,,,,,,,,,,,,,,,,,,,,,,,,,,,,,,,,,,,,,,,,,,,,,,,,,,,,,,,,,,,,,,,,,,,,,,,,,,,,,,,,,,,,,,,,,,,,,,,,,,,,,,,,,,,,,,,,,,,,,,,,,,,,,,,,
0,91,91,59,1,,614f7d1a2eef4c845cbc7845,629c51d3c1d8502456d3cc3e,2022-06-05_01h46.21.454,Colour_Asymmetry_Pilot,2022.1.3,Win32,71.99424046,629c4b6caf241d5e6e00bfc0,,,,,,,,,,,,,,,,,,,,,,,,,,,,,,,,,,,,,,,,,,,,,,,,,,,,,,,,,,,,,,,,,,,,,,,,,,,,,,,,,,,,,,,,,,,,,,,,,,,,,,,,,,,,,,,,,,,,,,,,,,,,,,,,,,,,,,,,,,,,,,,,,,,
0,92,92,61,1,,614f7d1a2eef4c845cbc7845,629c51d3c1d8502456d3cc3e,2022-06-05_01h46.21.454,Colour_Asymmetry_Pilot,2022.1.3,Win32,71.99424046,629c4b6caf241d5e6e00bfc0,,,,,,,,,,,,,,,,,,,,,,,,,,,,,,,,,,,,,,,,,,,,,,,,,,,,,,,,,,,,,,,,,,,,,,,,,,,,,,,,,,,,,,,,,,,,,,,,,,,,,,,,,,,,,,,,,,,,,,,,,,,,,,,,,,,,,,,,,,,,,,,,,,,
,,,,,,614f7d1a2eef4c845cbc7845,629c51d3c1d8502456d3cc3e,2022-06-05_01h46.21.454,Colour_Asymmetry_Pilot,2022.1.3,Win32,71.99424046,629c4b6caf241d5e6e00bfc0,0,0,0,8,1,onetwo,,,,,,,,,,,,,,,,,,,,,,,,,,,,,,,,,,,,,,,,,,,,,,,,,,,,,,,,,,,,,,,,,,,,,,,,,,,,,,,,,,,,,,,,,,,,,,,,,,,,,,,,,,,,,,,,,,,,,,,,,,,,,,,,,,,,,,,,,,,,,
,,,,,,614f7d1a2eef4c845cbc7845,629c51d3c1d8502456d3cc3e,2022-06-05_01h46.21.454,Colour_Asymmetry_Pilot,2022.1.3,Win32,71.99424046,629c4b6caf241d5e6e00bfc0,0,1,1,52,1,threeone,,,,,,,,,,,,,,,,,,,,,,,,,,,,,,,,,,,,,,,,,,,,,,,,,,,,,,,,,,,,,,,,,,,,,,,,,,,,,,,,,,,,,,,,,,,,,,,,,,,,,,,,,,,,,,,,,,,,,,,,,,,,,,,,,,,,,,,,,,,,,
,,,,,,614f7d1a2eef4c845cbc7845,629c51d3c1d8502456d3cc3e,2022-06-05_01h46.21.454,Colour_Asymmetry_Pilot,2022.1.3,Win32,71.99424046,629c4b6caf241d5e6e00bfc0,0,2,2,34,1,twoone,,,,,,,,,,,,,,,,,,,,,,,,,,,,,,,,,,,,,,,,,,,,,,,,,,,,,,,,,,,,,,,,,,,,,,,,,,,,,,,,,,,,,,,,,,,,,,,,,,,,,,,,,,,,,,,,,,,,,,,,,,,,,,,,,,,,,,,,,,,,,
,,,,,,614f7d1a2eef4c845cbc7845,629c51d3c1d8502456d3cc3e,2022-06-05_01h46.21.454,Colour_Asymmetry_Pilot,2022.1.3,Win32,71.99424046,629c4b6caf241d5e6e00bfc0,0,3,3,98,1,twoone,,,,,,,,,,,,,,,,,,,,,,,,,,,,,,,,,,,,,,,,,,,,,,,,,,,,,,,,,,,,,,,,,,,,,,,,,,,,,,,,,,,,,,,,,,,,,,,,,,,,,,,,,,,,,,,,,,,,,,,,,,,,,,,,,,,,,,,,,,,,,
,,,,,,614f7d1a2eef4c845cbc7845,629c51d3c1d8502456d3cc3e,2022-06-05_01h46.21.454,Colour_Asymmetry_Pilot,2022.1.3,Win32,71.99424046,629c4b6caf241d5e6e00bfc0,0,4,4,126,1,fourtwo,,,,,,,,,,,,,,,,,,,,,,,,,,,,,,,,,,,,,,,,,,,,,,,,,,,,,,,,,,,,,,,,,,,,,,,,,,,,,,,,,,,,,,,,,,,,,,,,,,,,,,,,,,,,,,,,,,,,,,,,,,,,,,,,,,,,,,,,,,,,,
,,,,,,614f7d1a2eef4c845cbc7845,629c51d3c1d8502456d3cc3e,2022-06-05_01h46.21.454,Colour_Asymmetry_Pilot,2022.1.3,Win32,71.99424046,629c4b6caf241d5e6e00bfc0,0,5,5,136,1,onetwo,,,,,,,,,,,,,,,,,,,,,,,,,,,,,,,,,,,,,,,,,,,,,,,,,,,,,,,,,,,,,,,,,,,,,,,,,,,,,,,,,,,,,,,,,,,,,,,,,,,,,,,,,,,,,,,,,,,,,,,,,,,,,,,,,,,,,,,,,,,,,
,,,,,,614f7d1a2eef4c845cbc7845,629c51d3c1d8502456d3cc3e,2022-06-05_01h46.21.454,Colour_Asymmetry_Pilot,2022.1.3,Win32,71.99424046,629c4b6caf241d5e6e00bfc0,0,6,6,141,1,threefour,,,,,,,,,,,,,,,,,,,,,,,,,,,,,,,,,,,,,,,,,,,,,,,,,,,,,,,,,,,,,,,,,,,,,,,,,,,,,,,,,,,,,,,,,,,,,,,,,,,,,,,,,,,,,,,,,,,,,,,,,,,,,,,,,,,,,,,,,,,,,
,,,,,,614f7d1a2eef4c845cbc7845,629c51d3c1d8502456d3cc3e,2022-06-05_01h46.21.454,Colour_Asymmetry_Pilot,2022.1.3,Win32,71.99424046,629c4b6caf241d5e6e00bfc0,0,7,7,139,1,twofour,,,,,,,,,,,,,,,,,,,,,,,,,,,,,,,,,,,,,,,,,,,,,,,,,,,,,,,,,,,,,,,,,,,,,,,,,,,,,,,,,,,,,,,,,,,,,,,,,,,,,,,,,,,,,,,,,,,,,,,,,,,,,,,,,,,,,,,,,,,,,
,,,,,,614f7d1a2eef4c845cbc7845,629c51d3c1d8502456d3cc3e,2022-06-05_01h46.21.454,Colour_Asymmetry_Pilot,2022.1.3,Win32,71.99424046,629c4b6caf241d5e6e00bfc0,0,8,8,44,1,threeone,,,,,,,,,,,,,,,,,,,,,,,,,,,,,,,,,,,,,,,,,,,,,,,,,,,,,,,,,,,,,,,,,,,,,,,,,,,,,,,,,,,,,,,,,,,,,,,,,,,,,,,,,,,,,,,,,,,,,,,,,,,,,,,,,,,,,,,,,,,,,
,,,,,,614f7d1a2eef4c845cbc7845,629c51d3c1d8502456d3cc3e,2022-06-05_01h46.21.454,Colour_Asymmetry_Pilot,2022.1.3,Win32,71.99424046,629c4b6caf241d5e6e00bfc0,0,9,9,148,1,threeone,,,,,,,,,,,,,,,,,,,,,,,,,,,,,,,,,,,,,,,,,,,,,,,,,,,,,,,,,,,,,,,,,,,,,,,,,,,,,,,,,,,,,,,,,,,,,,,,,,,,,,,,,,,,,,,,,,,,,,,,,,,,,,,,,,,,,,,,,,,,,
,,,,,,614f7d1a2eef4c845cbc7845,629c51d3c1d8502456d3cc3e,2022-06-05_01h46.21.454,Colour_Asymmetry_Pilot,2022.1.3,Win32,71.99424046,629c4b6caf241d5e6e00bfc0,0,10,10,117,1,threefour,,,,,,,,,,,,,,,,,,,,,,,,,,,,,,,,,,,,,,,,,,,,,,,,,,,,,,,,,,,,,,,,,,,,,,,,,,,,,,,,,,,,,,,,,,,,,,,,,,,,,,,,,,,,,,,,,,,,,,,,,,,,,,,,,,,,,,,,,,,,,
,,,,,,614f7d1a2eef4c845cbc7845,629c51d3c1d8502456d3cc3e,2022-06-05_01h46.21.454,Colour_Asymmetry_Pilot,2022.1.3,Win32,71.99424046,629c4b6caf241d5e6e00bfc0,0,11,11,80,1,onetwo,,,,,,,,,,,,,,,,,,,,,,,,,,,,,,,,,,,,,,,,,,,,,,,,,,,,,,,,,,,,,,,,,,,,,,,,,,,,,,,,,,,,,,,,,,,,,,,,,,,,,,,,,,,,,,,,,,,,,,,,,,,,,,,,,,,,,,,,,,,,,
,,,,,,614f7d1a2eef4c845cbc7845,629c51d3c1d8502456d3cc3e,2022-06-05_01h46.21.454,Colour_Asymmetry_Pilot,2022.1.3,Win32,71.99424046,629c4b6caf241d5e6e00bfc0,0,12,12,24,1,onetwo,,,,,,,,,,,,,,,,,,,,,,,,,,,,,,,,,,,,,,,,,,,,,,,,,,,,,,,,,,,,,,,,,,,,,,,,,,,,,,,,,,,,,,,,,,,,,,,,,,,,,,,,,,,,,,,,,,,,,,,,,,,,,,,,,,,,,,,,,,,,,
,,,,,,614f7d1a2eef4c845cbc7845,629c51d3c1d8502456d3cc3e,2022-06-05_01h46.21.454,Colour_Asymmetry_Pilot,2022.1.3,Win32,71.99424046,629c4b6caf241d5e6e00bfc0,0,13,13,73,1,onethree,,,,,,,,,,,,,,,,,,,,,,,,,,,,,,,,,,,,,,,,,,,,,,,,,,,,,,,,,,,,,,,,,,,,,,,,,,,,,,,,,,,,,,,,,,,,,,,,,,,,,,,,,,,,,,,,,,,,,,,,,,,,,,,,,,,,,,,,,,,,,
,,,,,,614f7d1a2eef4c845cbc7845,629c51d3c1d8502456d3cc3e,2022-06-05_01h46.21.454,Colour_Asymmetry_Pilot,2022.1.3,Win32,71.99424046,629c4b6caf241d5e6e00bfc0,0,14,14,111,1,fourthree,,,,,,,,,,,,,,,,,,,,,,,,,,,,,,,,,,,,,,,,,,,,,,,,,,,,,,,,,,,,,,,,,,,,,,,,,,,,,,,,,,,,,,,,,,,,,,,,,,,,,,,,,,,,,,,,,,,,,,,,,,,,,,,,,,,,,,,,,,,,,
,,,,,,614f7d1a2eef4c845cbc7845,629c51d3c1d8502456d3cc3e,2022-06-05_01h46.21.454,Colour_Asymmetry_Pilot,2022.1.3,Win32,71.99424046,629c4b6caf241d5e6e00bfc0,0,15,15,108,1,threeone,,,,,,,,,,,,,,,,,,,,,,,,,,,,,,,,,,,,,,,,,,,,,,,,,,,,,,,,,,,,,,,,,,,,,,,,,,,,,,,,,,,,,,,,,,,,,,,,,,,,,,,,,,,,,,,,,,,,,,,,,,,,,,,,,,,,,,,,,,,,,
,,,,,,614f7d1a2eef4c845cbc7845,629c51d3c1d8502456d3cc3e,2022-06-05_01h46.21.454,Colour_Asymmetry_Pilot,2022.1.3,Win32,71.99424046,629c4b6caf241d5e6e00bfc0,0,16,16,133,1,threefour,,,,,,,,,,,,,,,,,,,,,,,,,,,,,,,,,,,,,,,,,,,,,,,,,,,,,,,,,,,,,,,,,,,,,,,,,,,,,,,,,,,,,,,,,,,,,,,,,,,,,,,,,,,,,,,,,,,,,,,,,,,,,,,,,,,,,,,,,,,,,
,,,,,,614f7d1a2eef4c845cbc7845,629c51d3c1d8502456d3cc3e,2022-06-05_01h46.21.454,Colour_Asymmetry_Pilot,2022.1.3,Win32,71.99424046,629c4b6caf241d5e6e00bfc0,0,17,17,64,1,onetwo,,,,,,,,,,,,,,,,,,,,,,,,,,,,,,,,,,,,,,,,,,,,,,,,,,,,,,,,,,,,,,,,,,,,,,,,,,,,,,,,,,,,,,,,,,,,,,,,,,,,,,,,,,,,,,,,,,,,,,,,,,,,,,,,,,,,,,,,,,,,,
,,,,,,614f7d1a2eef4c845cbc7845,629c51d3c1d8502456d3cc3e,2022-06-05_01h46.21.454,Colour_Asymmetry_Pilot,2022.1.3,Win32,71.99424046,629c4b6caf241d5e6e00bfc0,0,18,18,15,1,fourthree,,,,,,,,,,,,,,,,,,,,,,,,,,,,,,,,,,,,,,,,,,,,,,,,,,,,,,,,,,,,,,,,,,,,,,,,,,,,,,,,,,,,,,,,,,,,,,,,,,,,,,,,,,,,,,,,,,,,,,,,,,,,,,,,,,,,,,,,,,,,,
,,,,,,614f7d1a2eef4c845cbc7845,629c51d3c1d8502456d3cc3e,2022-06-05_01h46.21.454,Colour_Asymmetry_Pilot,2022.1.3,Win32,71.99424046,629c4b6caf241d5e6e00bfc0,0,19,19,23,1,fourthree,,,,,,,,,,,,,,,,,,,,,,,,,,,,,,,,,,,,,,,,,,,,,,,,,,,,,,,,,,,,,,,,,,,,,,,,,,,,,,,,,,,,,,,,,,,,,,,,,,,,,,,,,,,,,,,,,,,,,,,,,,,,,,,,,,,,,,,,,,,,,
,,,,,,614f7d1a2eef4c845cbc7845,629c51d3c1d8502456d3cc3e,2022-06-05_01h46.21.454,Colour_Asymmetry_Pilot,2022.1.3,Win32,71.99424046,629c4b6caf241d5e6e00bfc0,0,20,20,59,1,twofour,,,,,,,,,,,,,,,,,,,,,,,,,,,,,,,,,,,,,,,,,,,,,,,,,,,,,,,,,,,,,,,,,,,,,,,,,,,,,,,,,,,,,,,,,,,,,,,,,,,,,,,,,,,,,,,,,,,,,,,,,,,,,,,,,,,,,,,,,,,,,
,,,,,,614f7d1a2eef4c845cbc7845,629c51d3c1d8502456d3cc3e,2022-06-05_01h46.21.454,Colour_Asymmetry_Pilot,2022.1.3,Win32,71.99424046,629c4b6caf241d5e6e00bfc0,0,21,21,112,1,onetwo,,,,,,,,,,,,,,,,,,,,,,,,,,,,,,,,,,,,,,,,,,,,,,,,,,,,,,,,,,,,,,,,,,,,,,,,,,,,,,,,,,,,,,,,,,,,,,,,,,,,,,,,,,,,,,,,,,,,,,,,,,,,,,,,,,,,,,,,,,,,,
,,,,,,614f7d1a2eef4c845cbc7845,629c51d3c1d8502456d3cc3e,2022-06-05_01h46.21.454,Colour_Asymmetry_Pilot,2022.1.3,Win32,71.99424046,629c4b6caf241d5e6e00bfc0,0,22,22,134,1,fourtwo,,,,,,,,,,,,,,,,,,,,,,,,,,,,,,,,,,,,,,,,,,,,,,,,,,,,,,,,,,,,,,,,,,,,,,,,,,,,,,,,,,,,,,,,,,,,,,,,,,,,,,,,,,,,,,,,,,,,,,,,,,,,,,,,,,,,,,,,,,,,,
,,,,,,614f7d1a2eef4c845cbc7845,629c51d3c1d8502456d3cc3e,2022-06-05_01h46.21.454,Colour_Asymmetry_Pilot,2022.1.3,Win32,71.99424046,629c4b6caf241d5e6e00bfc0,0,23,23,5,1,threefour,,,,,,,,,,,,,,,,,,,,,,,,,,,,,,,,,,,,,,,,,,,,,,,,,,,,,,,,,,,,,,,,,,,,,,,,,,,,,,,,,,,,,,,,,,,,,,,,,,,,,,,,,,,,,,,,,,,,,,,,,,,,,,,,,,,,,,,,,,,,,
,,,,,,614f7d1a2eef4c845cbc7845,629c51d3c1d8502456d3cc3e,2022-06-05_01h46.21.454,Colour_Asymmetry_Pilot,2022.1.3,Win32,71.99424046,629c4b6caf241d5e6e00bfc0,0,24,24,119,1,fourthree,,,,,,,,,,,,,,,,,,,,,,,,,,,,,,,,,,,,,,,,,,,,,,,,,,,,,,,,,,,,,,,,,,,,,,,,,,,,,,,,,,,,,,,,,,,,,,,,,,,,,,,,,,,,,,,,,,,,,,,,,,,,,,,,,,,,,,,,,,,,,
,,,,,,614f7d1a2eef4c845cbc7845,629c51d3c1d8502456d3cc3e,2022-06-05_01h46.21.454,Colour_Asymmetry_Pilot,2022.1.3,Win32,71.99424046,629c4b6caf241d5e6e00bfc0,0,25,25,85,1,threefour,,,,,,,,,,,,,,,,,,,,,,,,,,,,,,,,,,,,,,,,,,,,,,,,,,,,,,,,,,,,,,,,,,,,,,,,,,,,,,,,,,,,,,,,,,,,,,,,,,,,,,,,,,,,,,,,,,,,,,,,,,,,,,,,,,,,,,,,,,,,,
,,,,,,614f7d1a2eef4c845cbc7845,629c51d3c1d8502456d3cc3e,2022-06-05_01h46.21.454,Colour_Asymmetry_Pilot,2022.1.3,Win32,71.99424046,629c4b6caf241d5e6e00bfc0,0,26,26,90,1,twoone,,,,,,,,,,,,,,,,,,,,,,,,,,,,,,,,,,,,,,,,,,,,,,,,,,,,,,,,,,,,,,,,,,,,,,,,,,,,,,,,,,,,,,,,,,,,,,,,,,,,,,,,,,,,,,,,,,,,,,,,,,,,,,,,,,,,,,,,,,,,,
,,,,,,614f7d1a2eef4c845cbc7845,629c51d3c1d8502456d3cc3e,2022-06-05_01h46.21.454,Colour_Asymmetry_Pilot,2022.1.3,Win32,71.99424046,629c4b6caf241d5e6e00bfc0,0,27,27,50,1,twoone,,,,,,,,,,,,,,,,,,,,,,,,,,,,,,,,,,,,,,,,,,,,,,,,,,,,,,,,,,,,,,,,,,,,,,,,,,,,,,,,,,,,,,,,,,,,,,,,,,,,,,,,,,,,,,,,,,,,,,,,,,,,,,,,,,,,,,,,,,,,,
,,,,,,614f7d1a2eef4c845cbc7845,629c51d3c1d8502456d3cc3e,2022-06-05_01h46.21.454,Colour_Asymmetry_Pilot,2022.1.3,Win32,71.99424046,629c4b6caf241d5e6e00bfc0,0,28,28,154,1,twoone,,,,,,,,,,,,,,,,,,,,,,,,,,,,,,,,,,,,,,,,,,,,,,,,,,,,,,,,,,,,,,,,,,,,,,,,,,,,,,,,,,,,,,,,,,,,,,,,,,,,,,,,,,,,,,,,,,,,,,,,,,,,,,,,,,,,,,,,,,,,,
,,,,,,614f7d1a2eef4c845cbc7845,629c51d3c1d8502456d3cc3e,2022-06-05_01h46.21.454,Colour_Asymmetry_Pilot,2022.1.3,Win32,71.99424046,629c4b6caf241d5e6e00bfc0,0,29,29,66,1,twoone,,,,,,,,,,,,,,,,,,,,,,,,,,,,,,,,,,,,,,,,,,,,,,,,,,,,,,,,,,,,,,,,,,,,,,,,,,,,,,,,,,,,,,,,,,,,,,,,,,,,,,,,,,,,,,,,,,,,,,,,,,,,,,,,,,,,,,,,,,,,,
,,,,,,614f7d1a2eef4c845cbc7845,629c51d3c1d8502456d3cc3e,2022-06-05_01h46.21.454,Colour_Asymmetry_Pilot,2022.1.3,Win32,71.99424046,629c4b6caf241d5e6e00bfc0,0,30,30,93,1,threefour,,,,,,,,,,,,,,,,,,,,,,,,,,,,,,,,,,,,,,,,,,,,,,,,,,,,,,,,,,,,,,,,,,,,,,,,,,,,,,,,,,,,,,,,,,,,,,,,,,,,,,,,,,,,,,,,,,,,,,,,,,,,,,,,,,,,,,,,,,,,,
,,,,,,614f7d1a2eef4c845cbc7845,629c51d3c1d8502456d3cc3e,2022-06-05_01h46.21.454,Colour_Asymmetry_Pilot,2022.1.3,Win32,71.99424046,629c4b6caf241d5e6e00bfc0,0,31,31,48,1,onetwo,,,,,,,,,,,,,,,,,,,,,,,,,,,,,,,,,,,,,,,,,,,,,,,,,,,,,,,,,,,,,,,,,,,,,,,,,,,,,,,,,,,,,,,,,,,,,,,,,,,,,,,,,,,,,,,,,,,,,,,,,,,,,,,,,,,,,,,,,,,,,
,,,,,,614f7d1a2eef4c845cbc7845,629c51d3c1d8502456d3cc3e,2022-06-05_01h46.21.454,Colour_Asymmetry_Pilot,2022.1.3,Win32,71.99424046,629c4b6caf241d5e6e00bfc0,0,32,32,75,1,twofour,,,,,,,,,,,,,,,,,,,,,,,,,,,,,,,,,,,,,,,,,,,,,,,,,,,,,,,,,,,,,,,,,,,,,,,,,,,,,,,,,,,,,,,,,,,,,,,,,,,,,,,,,,,,,,,,,,,,,,,,,,,,,,,,,,,,,,,,,,,,,
,,,,,,614f7d1a2eef4c845cbc7845,629c51d3c1d8502456d3cc3e,2022-06-05_01h46.21.454,Colour_Asymmetry_Pilot,2022.1.3,Win32,71.99424046,629c4b6caf241d5e6e00bfc0,0,33,33,79,1,fourthree,,,,,,,,,,,,,,,,,,,,,,,,,,,,,,,,,,,,,,,,,,,,,,,,,,,,,,,,,,,,,,,,,,,,,,,,,,,,,,,,,,,,,,,,,,,,,,,,,,,,,,,,,,,,,,,,,,,,,,,,,,,,,,,,,,,,,,,,,,,,,
,,,,,,614f7d1a2eef4c845cbc7845,629c51d3c1d8502456d3cc3e,2022-06-05_01h46.21.454,Colour_Asymmetry_Pilot,2022.1.3,Win32,71.99424046,629c4b6caf241d5e6e00bfc0,0,34,34,91,1,twofour,,,,,,,,,,,,,,,,,,,,,,,,,,,,,,,,,,,,,,,,,,,,,,,,,,,,,,,,,,,,,,,,,,,,,,,,,,,,,,,,,,,,,,,,,,,,,,,,,,,,,,,,,,,,,,,,,,,,,,,,,,,,,,,,,,,,,,,,,,,,,
,,,,,,614f7d1a2eef4c845cbc7845,629c51d3c1d8502456d3cc3e,2022-06-05_01h46.21.454,Colour_Asymmetry_Pilot,2022.1.3,Win32,71.99424046,629c4b6caf241d5e6e00bfc0,0,35,35,10,1,twoone,,,,,,,,,,,,,,,,,,,,,,,,,,,,,,,,,,,,,,,,,,,,,,,,,,,,,,,,,,,,,,,,,,,,,,,,,,,,,,,,,,,,,,,,,,,,,,,,,,,,,,,,,,,,,,,,,,,,,,,,,,,,,,,,,,,,,,,,,,,,,
,,,,,,614f7d1a2eef4c845cbc7845,629c51d3c1d8502456d3cc3e,2022-06-05_01h46.21.454,Colour_Asymmetry_Pilot,2022.1.3,Win32,71.99424046,629c4b6caf241d5e6e00bfc0,0,36,36,127,1,fourthree,,,,,,,,,,,,,,,,,,,,,,,,,,,,,,,,,,,,,,,,,,,,,,,,,,,,,,,,,,,,,,,,,,,,,,,,,,,,,,,,,,,,,,,,,,,,,,,,,,,,,,,,,,,,,,,,,,,,,,,,,,,,,,,,,,,,,,,,,,,,,
,,,,,,614f7d1a2eef4c845cbc7845,629c51d3c1d8502456d3cc3e,2022-06-05_01h46.21.454,Colour_Asymmetry_Pilot,2022.1.3,Win32,71.99424046,629c4b6caf241d5e6e00bfc0,0,37,37,138,1,twoone,,,,,,,,,,,,,,,,,,,,,,,,,,,,,,,,,,,,,,,,,,,,,,,,,,,,,,,,,,,,,,,,,,,,,,,,,,,,,,,,,,,,,,,,,,,,,,,,,,,,,,,,,,,,,,,,,,,,,,,,,,,,,,,,,,,,,,,,,,,,,
,,,,,,614f7d1a2eef4c845cbc7845,629c51d3c1d8502456d3cc3e,2022-06-05_01h46.21.454,Colour_Asymmetry_Pilot,2022.1.3,Win32,71.99424046,629c4b6caf241d5e6e00bfc0,0,38,38,2,1,twoone,,,,,,,,,,,,,,,,,,,,,,,,,,,,,,,,,,,,,,,,,,,,,,,,,,,,,,,,,,,,,,,,,,,,,,,,,,,,,,,,,,,,,,,,,,,,,,,,,,,,,,,,,,,,,,,,,,,,,,,,,,,,,,,,,,,,,,,,,,,,,
,,,,,,614f7d1a2eef4c845cbc7845,629c51d3c1d8502456d3cc3e,2022-06-05_01h46.21.454,Colour_Asymmetry_Pilot,2022.1.3,Win32,71.99424046,629c4b6caf241d5e6e00bfc0,0,39,39,31,1,fourthree,,,,,,,,,,,,,,,,,,,,,,,,,,,,,,,,,,,,,,,,,,,,,,,,,,,,,,,,,,,,,,,,,,,,,,,,,,,,,,,,,,,,,,,,,,,,,,,,,,,,,,,,,,,,,,,,,,,,,,,,,,,,,,,,,,,,,,,,,,,,,
,,,,,,614f7d1a2eef4c845cbc7845,629c51d3c1d8502456d3cc3e,2022-06-05_01h46.21.454,Colour_Asymmetry_Pilot,2022.1.3,Win32,71.99424046,629c4b6caf241d5e6e00bfc0,0,40,40,30,1,fourtwo,,,,,,,,,,,,,,,,,,,,,,,,,,,,,,,,,,,,,,,,,,,,,,,,,,,,,,,,,,,,,,,,,,,,,,,,,,,,,,,,,,,,,,,,,,,,,,,,,,,,,,,,,,,,,,,,,,,,,,,,,,,,,,,,,,,,,,,,,,,,,
,,,,,,614f7d1a2eef4c845cbc7845,629c51d3c1d8502456d3cc3e,2022-06-05_01h46.21.454,Colour_Asymmetry_Pilot,2022.1.3,Win32,71.99424046,629c4b6caf241d5e6e00bfc0,0,41,41,109,1,threefour,,,,,,,,,,,,,,,,,,,,,,,,,,,,,,,,,,,,,,,,,,,,,,,,,,,,,,,,,,,,,,,,,,,,,,,,,,,,,,,,,,,,,,,,,,,,,,,,,,,,,,,,,,,,,,,,,,,,,,,,,,,,,,,,,,,,,,,,,,,,,
,,,,,,614f7d1a2eef4c845cbc7845,629c51d3c1d8502456d3cc3e,2022-06-05_01h46.21.454,Colour_Asymmetry_Pilot,2022.1.3,Win32,71.99424046,629c4b6caf241d5e6e00bfc0,0,42,42,74,1,twoone,,,,,,,,,,,,,,,,,,,,,,,,,,,,,,,,,,,,,,,,,,,,,,,,,,,,,,,,,,,,,,,,,,,,,,,,,,,,,,,,,,,,,,,,,,,,,,,,,,,,,,,,,,,,,,,,,,,,,,,,,,,,,,,,,,,,,,,,,,,,,
,,,,,,614f7d1a2eef4c845cbc7845,629c51d3c1d8502456d3cc3e,2022-06-05_01h46.21.454,Colour_Asymmetry_Pilot,2022.1.3,Win32,71.99424046,629c4b6caf241d5e6e00bfc0,0,43,43,78,1,fourtwo,,,,,,,,,,,,,,,,,,,,,,,,,,,,,,,,,,,,,,,,,,,,,,,,,,,,,,,,,,,,,,,,,,,,,,,,,,,,,,,,,,,,,,,,,,,,,,,,,,,,,,,,,,,,,,,,,,,,,,,,,,,,,,,,,,,,,,,,,,,,,
,,,,,,614f7d1a2eef4c845cbc7845,629c51d3c1d8502456d3cc3e,2022-06-05_01h46.21.454,Colour_Asymmetry_Pilot,2022.1.3,Win32,71.99424046,629c4b6caf241d5e6e00bfc0,0,44,44,69,1,threefour,,,,,,,,,,,,,,,,,,,,,,,,,,,,,,,,,,,,,,,,,,,,,,,,,,,,,,,,,,,,,,,,,,,,,,,,,,,,,,,,,,,,,,,,,,,,,,,,,,,,,,,,,,,,,,,,,,,,,,,,,,,,,,,,,,,,,,,,,,,,,
,,,,,,614f7d1a2eef4c845cbc7845,629c51d3c1d8502456d3cc3e,2022-06-05_01h46.21.454,Colour_Asymmetry_Pilot,2022.1.3,Win32,71.99424046,629c4b6caf241d5e6e00bfc0,0,45,45,132,1,threeone,,,,,,,,,,,,,,,,,,,,,,,,,,,,,,,,,,,,,,,,,,,,,,,,,,,,,,,,,,,,,,,,,,,,,,,,,,,,,,,,,,,,,,,,,,,,,,,,,,,,,,,,,,,,,,,,,,,,,,,,,,,,,,,,,,,,,,,,,,,,,
,,,,,,614f7d1a2eef4c845cbc7845,629c51d3c1d8502456d3cc3e,2022-06-05_01h46.21.454,Colour_Asymmetry_Pilot,2022.1.3,Win32,71.99424046,629c4b6caf241d5e6e00bfc0,0,46,46,46,1,fourtwo,,,,,,,,,,,,,,,,,,,,,,,,,,,,,,,,,,,,,,,,,,,,,,,,,,,,,,,,,,,,,,,,,,,,,,,,,,,,,,,,,,,,,,,,,,,,,,,,,,,,,,,,,,,,,,,,,,,,,,,,,,,,,,,,,,,,,,,,,,,,,
,,,,,,614f7d1a2eef4c845cbc7845,629c51d3c1d8502456d3cc3e,2022-06-05_01h46.21.454,Colour_Asymmetry_Pilot,2022.1.3,Win32,71.99424046,629c4b6caf241d5e6e00bfc0,0,47,47,89,1,onethree,,,,,,,,,,,,,,,,,,,,,,,,,,,,,,,,,,,,,,,,,,,,,,,,,,,,,,,,,,,,,,,,,,,,,,,,,,,,,,,,,,,,,,,,,,,,,,,,,,,,,,,,,,,,,,,,,,,,,,,,,,,,,,,,,,,,,,,,,,,,,
,,,,,,614f7d1a2eef4c845cbc7845,629c51d3c1d8502456d3cc3e,2022-06-05_01h46.21.454,Colour_Asymmetry_Pilot,2022.1.3,Win32,71.99424046,629c4b6caf241d5e6e00bfc0,0,48,48,36,1,threeone,,,,,,,,,,,,,,,,,,,,,,,,,,,,,,,,,,,,,,,,,,,,,,,,,,,,,,,,,,,,,,,,,,,,,,,,,,,,,,,,,,,,,,,,,,,,,,,,,,,,,,,,,,,,,,,,,,,,,,,,,,,,,,,,,,,,,,,,,,,,,
,,,,,,614f7d1a2eef4c845cbc7845,629c51d3c1d8502456d3cc3e,2022-06-05_01h46.21.454,Colour_Asymmetry_Pilot,2022.1.3,Win32,71.99424046,629c4b6caf241d5e6e00bfc0,0,49,49,19,1,twofour,,,,,,,,,,,,,,,,,,,,,,,,,,,,,,,,,,,,,,,,,,,,,,,,,,,,,,,,,,,,,,,,,,,,,,,,,,,,,,,,,,,,,,,,,,,,,,,,,,,,,,,,,,,,,,,,,,,,,,,,,,,,,,,,,,,,,,,,,,,,,
,,,,,,614f7d1a2eef4c845cbc7845,629c51d3c1d8502456d3cc3e,2022-06-05_01h46.21.454,Colour_Asymmetry_Pilot,2022.1.3,Win32,71.99424046,629c4b6caf241d5e6e00bfc0,0,50,50,42,1,twoone,,,,,,,,,,,,,,,,,,,,,,,,,,,,,,,,,,,,,,,,,,,,,,,,,,,,,,,,,,,,,,,,,,,,,,,,,,,,,,,,,,,,,,,,,,,,,,,,,,,,,,,,,,,,,,,,,,,,,,,,,,,,,,,,,,,,,,,,,,,,,
,,,,,,614f7d1a2eef4c845cbc7845,629c51d3c1d8502456d3cc3e,2022-06-05_01h46.21.454,Colour_Asymmetry_Pilot,2022.1.3,Win32,71.99424046,629c4b6caf241d5e6e00bfc0,0,51,51,51,1,twofour,,,,,,,,,,,,,,,,,,,,,,,,,,,,,,,,,,,,,,,,,,,,,,,,,,,,,,,,,,,,,,,,,,,,,,,,,,,,,,,,,,,,,,,,,,,,,,,,,,,,,,,,,,,,,,,,,,,,,,,,,,,,,,,,,,,,,,,,,,,,,
,,,,,,614f7d1a2eef4c845cbc7845,629c51d3c1d8502456d3cc3e,2022-06-05_01h46.21.454,Colour_Asymmetry_Pilot,2022.1.3,Win32,71.99424046,629c4b6caf241d5e6e00bfc0,0,52,52,160,1,onetwo,,,,,,,,,,,,,,,,,,,,,,,,,,,,,,,,,,,,,,,,,,,,,,,,,,,,,,,,,,,,,,,,,,,,,,,,,,,,,,,,,,,,,,,,,,,,,,,,,,,,,,,,,,,,,,,,,,,,,,,,,,,,,,,,,,,,,,,,,,,,,
,,,,,,614f7d1a2eef4c845cbc7845,629c51d3c1d8502456d3cc3e,2022-06-05_01h46.21.454,Colour_Asymmetry_Pilot,2022.1.3,Win32,71.99424046,629c4b6caf241d5e6e00bfc0,0,53,53,95,1,fourthree,,,,,,,,,,,,,,,,,,,,,,,,,,,,,,,,,,,,,,,,,,,,,,,,,,,,,,,,,,,,,,,,,,,,,,,,,,,,,,,,,,,,,,,,,,,,,,,,,,,,,,,,,,,,,,,,,,,,,,,,,,,,,,,,,,,,,,,,,,,,,
,,,,,,614f7d1a2eef4c845cbc7845,629c51d3c1d8502456d3cc3e,2022-06-05_01h46.21.454,Colour_Asymmetry_Pilot,2022.1.3,Win32,71.99424046,629c4b6caf241d5e6e00bfc0,0,54,54,147,1,twofour,,,,,,,,,,,,,,,,,,,,,,,,,,,,,,,,,,,,,,,,,,,,,,,,,,,,,,,,,,,,,,,,,,,,,,,,,,,,,,,,,,,,,,,,,,,,,,,,,,,,,,,,,,,,,,,,,,,,,,,,,,,,,,,,,,,,,,,,,,,,,
,,,,,,614f7d1a2eef4c845cbc7845,629c51d3c1d8502456d3cc3e,2022-06-05_01h46.21.454,Colour_Asymmetry_Pilot,2022.1.3,Win32,71.99424046,629c4b6caf241d5e6e00bfc0,0,55,55,43,1,twofour,,,,,,,,,,,,,,,,,,,,,,,,,,,,,,,,,,,,,,,,,,,,,,,,,,,,,,,,,,,,,,,,,,,,,,,,,,,,,,,,,,,,,,,,,,,,,,,,,,,,,,,,,,,,,,,,,,,,,,,,,,,,,,,,,,,,,,,,,,,,,
,,,,,,614f7d1a2eef4c845cbc7845,629c51d3c1d8502456d3cc3e,2022-06-05_01h46.21.454,Colour_Asymmetry_Pilot,2022.1.3,Win32,71.99424046,629c4b6caf241d5e6e00bfc0,0,56,56,76,1,threeone,,,,,,,,,,,,,,,,,,,,,,,,,,,,,,,,,,,,,,,,,,,,,,,,,,,,,,,,,,,,,,,,,,,,,,,,,,,,,,,,,,,,,,,,,,,,,,,,,,,,,,,,,,,,,,,,,,,,,,,,,,,,,,,,,,,,,,,,,,,,,
,,,,,,614f7d1a2eef4c845cbc7845,629c51d3c1d8502456d3cc3e,2022-06-05_01h46.21.454,Colour_Asymmetry_Pilot,2022.1.3,Win32,71.99424046,629c4b6caf241d5e6e00bfc0,0,57,57,116,1,threeone,,,,,,,,,,,,,,,,,,,,,,,,,,,,,,,,,,,,,,,,,,,,,,,,,,,,,,,,,,,,,,,,,,,,,,,,,,,,,,,,,,,,,,,,,,,,,,,,,,,,,,,,,,,,,,,,,,,,,,,,,,,,,,,,,,,,,,,,,,,,,
,,,,,,614f7d1a2eef4c845cbc7845,629c51d3c1d8502456d3cc3e,2022-06-05_01h46.21.454,Colour_Asymmetry_Pilot,2022.1.3,Win32,71.99424046,629c4b6caf241d5e6e00bfc0,0,58,58,38,1,fourtwo,,,,,,,,,,,,,,,,,,,,,,,,,,,,,,,,,,,,,,,,,,,,,,,,,,,,,,,,,,,,,,,,,,,,,,,,,,,,,,,,,,,,,,,,,,,,,,,,,,,,,,,,,,,,,,,,,,,,,,,,,,,,,,,,,,,,,,,,,,,,,
,,,,,,614f7d1a2eef4c845cbc7845,629c51d3c1d8502456d3cc3e,2022-06-05_01h46.21.454,Colour_Asymmetry_Pilot,2022.1.3,Win32,71.99424046,629c4b6caf241d5e6e00bfc0,0,59,59,120,1,onetwo,,,,,,,,,,,,,,,,,,,,,,,,,,,,,,,,,,,,,,,,,,,,,,,,,,,,,,,,,,,,,,,,,,,,,,,,,,,,,,,,,,,,,,,,,,,,,,,,,,,,,,,,,,,,,,,,,,,,,,,,,,,,,,,,,,,,,,,,,,,,,
,,,,,,614f7d1a2eef4c845cbc7845,629c51d3c1d8502456d3cc3e,2022-06-05_01h46.21.454,Colour_Asymmetry_Pilot,2022.1.3,Win32,71.99424046,629c4b6caf241d5e6e00bfc0,0,60,60,86,1,fourtwo,,,,,,,,,,,,,,,,,,,,,,,,,,,,,,,,,,,,,,,,,,,,,,,,,,,,,,,,,,,,,,,,,,,,,,,,,,,,,,,,,,,,,,,,,,,,,,,,,,,,,,,,,,,,,,,,,,,,,,,,,,,,,,,,,,,,,,,,,,,,,
,,,,,,614f7d1a2eef4c845cbc7845,629c51d3c1d8502456d3cc3e,2022-06-05_01h46.21.454,Colour_Asymmetry_Pilot,2022.1.3,Win32,71.99424046,629c4b6caf241d5e6e00bfc0,0,61,61,28,1,threeone,,,,,,,,,,,,,,,,,,,,,,,,,,,,,,,,,,,,,,,,,,,,,,,,,,,,,,,,,,,,,,,,,,,,,,,,,,,,,,,,,,,,,,,,,,,,,,,,,,,,,,,,,,,,,,,,,,,,,,,,,,,,,,,,,,,,,,,,,,,,,
,,,,,,614f7d1a2eef4c845cbc7845,629c51d3c1d8502456d3cc3e,2022-06-05_01h46.21.454,Colour_Asymmetry_Pilot,2022.1.3,Win32,71.99424046,629c4b6caf241d5e6e00bfc0,0,62,62,128,1,onetwo,,,,,,,,,,,,,,,,,,,,,,,,,,,,,,,,,,,,,,,,,,,,,,,,,,,,,,,,,,,,,,,,,,,,,,,,,,,,,,,,,,,,,,,,,,,,,,,,,,,,,,,,,,,,,,,,,,,,,,,,,,,,,,,,,,,,,,,,,,,,,
,,,,,,614f7d1a2eef4c845cbc7845,629c51d3c1d8502456d3cc3e,2022-06-05_01h46.21.454,Colour_Asymmetry_Pilot,2022.1.3,Win32,71.99424046,629c4b6caf241d5e6e00bfc0,0,63,63,49,1,onethree,,,,,,,,,,,,,,,,,,,,,,,,,,,,,,,,,,,,,,,,,,,,,,,,,,,,,,,,,,,,,,,,,,,,,,,,,,,,,,,,,,,,,,,,,,,,,,,,,,,,,,,,,,,,,,,,,,,,,,,,,,,,,,,,,,,,,,,,,,,,,
,,,,,,614f7d1a2eef4c845cbc7845,629c51d3c1d8502456d3cc3e,2022-06-05_01h46.21.454,Colour_Asymmetry_Pilot,2022.1.3,Win32,71.99424046,629c4b6caf241d5e6e00bfc0,0,64,64,149,1,threefour,,,,,,,,,,,,,,,,,,,,,,,,,,,,,,,,,,,,,,,,,,,,,,,,,,,,,,,,,,,,,,,,,,,,,,,,,,,,,,,,,,,,,,,,,,,,,,,,,,,,,,,,,,,,,,,,,,,,,,,,,,,,,,,,,,,,,,,,,,,,,
,,,,,,614f7d1a2eef4c845cbc7845,629c51d3c1d8502456d3cc3e,2022-06-05_01h46.21.454,Colour_Asymmetry_Pilot,2022.1.3,Win32,71.99424046,629c4b6caf241d5e6e00bfc0,0,65,65,56,1,onetwo,,,,,,,,,,,,,,,,,,,,,,,,,,,,,,,,,,,,,,,,,,,,,,,,,,,,,,,,,,,,,,,,,,,,,,,,,,,,,,,,,,,,,,,,,,,,,,,,,,,,,,,,,,,,,,,,,,,,,,,,,,,,,,,,,,,,,,,,,,,,,
,,,,,,614f7d1a2eef4c845cbc7845,629c51d3c1d8502456d3cc3e,2022-06-05_01h46.21.454,Colour_Asymmetry_Pilot,2022.1.3,Win32,71.99424046,629c4b6caf241d5e6e00bfc0,0,66,66,159,1,fourthree,,,,,,,,,,,,,,,,,,,,,,,,,,,,,,,,,,,,,,,,,,,,,,,,,,,,,,,,,,,,,,,,,,,,,,,,,,,,,,,,,,,,,,,,,,,,,,,,,,,,,,,,,,,,,,,,,,,,,,,,,,,,,,,,,,,,,,,,,,,,,
,,,,,,614f7d1a2eef4c845cbc7845,629c51d3c1d8502456d3cc3e,2022-06-05_01h46.21.454,Colour_Asymmetry_Pilot,2022.1.3,Win32,71.99424046,629c4b6caf241d5e6e00bfc0,0,67,67,101,1,threefour,,,,,,,,,,,,,,,,,,,,,,,,,,,,,,,,,,,,,,,,,,,,,,,,,,,,,,,,,,,,,,,,,,,,,,,,,,,,,,,,,,,,,,,,,,,,,,,,,,,,,,,,,,,,,,,,,,,,,,,,,,,,,,,,,,,,,,,,,,,,,
,,,,,,614f7d1a2eef4c845cbc7845,629c51d3c1d8502456d3cc3e,2022-06-05_01h46.21.454,Colour_Asymmetry_Pilot,2022.1.3,Win32,71.99424046,629c4b6caf241d5e6e00bfc0,0,68,68,142,1,fourtwo,,,,,,,,,,,,,,,,,,,,,,,,,,,,,,,,,,,,,,,,,,,,,,,,,,,,,,,,,,,,,,,,,,,,,,,,,,,,,,,,,,,,,,,,,,,,,,,,,,,,,,,,,,,,,,,,,,,,,,,,,,,,,,,,,,,,,,,,,,,,,
,,,,,,614f7d1a2eef4c845cbc7845,629c51d3c1d8502456d3cc3e,2022-06-05_01h46.21.454,Colour_Asymmetry_Pilot,2022.1.3,Win32,71.99424046,629c4b6caf241d5e6e00bfc0,0,69,69,9,1,onethree,,,,,,,,,,,,,,,,,,,,,,,,,,,,,,,,,,,,,,,,,,,,,,,,,,,,,,,,,,,,,,,,,,,,,,,,,,,,,,,,,,,,,,,,,,,,,,,,,,,,,,,,,,,,,,,,,,,,,,,,,,,,,,,,,,,,,,,,,,,,,
,,,,,,614f7d1a2eef4c845cbc7845,629c51d3c1d8502456d3cc3e,2022-06-05_01h46.21.454,Colour_Asymmetry_Pilot,2022.1.3,Win32,71.99424046,629c4b6caf241d5e6e00bfc0,0,70,70,131,1,twofour,,,,,,,,,,,,,,,,,,,,,,,,,,,,,,,,,,,,,,,,,,,,,,,,,,,,,,,,,,,,,,,,,,,,,,,,,,,,,,,,,,,,,,,,,,,,,,,,,,,,,,,,,,,,,,,,,,,,,,,,,,,,,,,,,,,,,,,,,,,,,
,,,,,,614f7d1a2eef4c845cbc7845,629c51d3c1d8502456d3cc3e,2022-06-05_01h46.21.454,Colour_Asymmetry_Pilot,2022.1.3,Win32,71.99424046,629c4b6caf241d5e6e00bfc0,0,71,71,156,1,threeone,,,,,,,,,,,,,,,,,,,,,,,,,,,,,,,,,,,,,,,,,,,,,,,,,,,,,,,,,,,,,,,,,,,,,,,,,,,,,,,,,,,,,,,,,,,,,,,,,,,,,,,,,,,,,,,,,,,,,,,,,,,,,,,,,,,,,,,,,,,,,
,,,,,,614f7d1a2eef4c845cbc7845,629c51d3c1d8502456d3cc3e,2022-06-05_01h46.21.454,Colour_Asymmetry_Pilot,2022.1.3,Win32,71.99424046,629c4b6caf241d5e6e00bfc0,0,72,72,61,1,threefour,,,,,,,,,,,,,,,,,,,,,,,,,,,,,,,,,,,,,,,,,,,,,,,,,,,,,,,,,,,,,,,,,,,,,,,,,,,,,,,,,,,,,,,,,,,,,,,,,,,,,,,,,,,,,,,,,,,,,,,,,,,,,,,,,,,,,,,,,,,,,
,,,,,,614f7d1a2eef4c845cbc7845,629c51d3c1d8502456d3cc3e,2022-06-05_01h46.21.454,Colour_Asymmetry_Pilot,2022.1.3,Win32,71.99424046,629c4b6caf241d5e6e00bfc0,0,73,73,97,1,onethree,,,,,,,,,,,,,,,,,,,,,,,,,,,,,,,,,,,,,,,,,,,,,,,,,,,,,,,,,,,,,,,,,,,,,,,,,,,,,,,,,,,,,,,,,,,,,,,,,,,,,,,,,,,,,,,,,,,,,,,,,,,,,,,,,,,,,,,,,,,,,
,,,,,,614f7d1a2eef4c845cbc7845,629c51d3c1d8502456d3cc3e,2022-06-05_01h46.21.454,Colour_Asymmetry_Pilot,2022.1.3,Win32,71.99424046,629c4b6caf241d5e6e00bfc0,0,74,74,155,1,twofour,,,,,,,,,,,,,,,,,,,,,,,,,,,,,,,,,,,,,,,,,,,,,,,,,,,,,,,,,,,,,,,,,,,,,,,,,,,,,,,,,,,,,,,,,,,,,,,,,,,,,,,,,,,,,,,,,,,,,,,,,,,,,,,,,,,,,,,,,,,,,
,,,,,,614f7d1a2eef4c845cbc7845,629c51d3c1d8502456d3cc3e,2022-06-05_01h46.21.454,Colour_Asymmetry_Pilot,2022.1.3,Win32,71.99424046,629c4b6caf241d5e6e00bfc0,0,75,75,25,1,onethree,,,,,,,,,,,,,,,,,,,,,,,,,,,,,,,,,,,,,,,,,,,,,,,,,,,,,,,,,,,,,,,,,,,,,,,,,,,,,,,,,,,,,,,,,,,,,,,,,,,,,,,,,,,,,,,,,,,,,,,,,,,,,,,,,,,,,,,,,,,,,
,,,,,,614f7d1a2eef4c845cbc7845,629c51d3c1d8502456d3cc3e,2022-06-05_01h46.21.454,Colour_Asymmetry_Pilot,2022.1.3,Win32,71.99424046,629c4b6caf241d5e6e00bfc0,0,76,76,70,1,fourtwo,,,,,,,,,,,,,,,,,,,,,,,,,,,,,,,,,,,,,,,,,,,,,,,,,,,,,,,,,,,,,,,,,,,,,,,,,,,,,,,,,,,,,,,,,,,,,,,,,,,,,,,,,,,,,,,,,,,,,,,,,,,,,,,,,,,,,,,,,,,,,
,,,,,,614f7d1a2eef4c845cbc7845,629c51d3c1d8502456d3cc3e,2022-06-05_01h46.21.454,Colour_Asymmetry_Pilot,2022.1.3,Win32,71.99424046,629c4b6caf241d5e6e00bfc0,0,77,77,96,1,onetwo,,,,,,,,,,,,,,,,,,,,,,,,,,,,,,,,,,,,,,,,,,,,,,,,,,,,,,,,,,,,,,,,,,,,,,,,,,,,,,,,,,,,,,,,,,,,,,,,,,,,,,,,,,,,,,,,,,,,,,,,,,,,,,,,,,,,,,,,,,,,,
,,,,,,614f7d1a2eef4c845cbc7845,629c51d3c1d8502456d3cc3e,2022-06-05_01h46.21.454,Colour_Asymmetry_Pilot,2022.1.3,Win32,71.99424046,629c4b6caf241d5e6e00bfc0,0,78,78,12,1,threeone,,,,,,,,,,,,,,,,,,,,,,,,,,,,,,,,,,,,,,,,,,,,,,,,,,,,,,,,,,,,,,,,,,,,,,,,,,,,,,,,,,,,,,,,,,,,,,,,,,,,,,,,,,,,,,,,,,,,,,,,,,,,,,,,,,,,,,,,,,,,,
,,,,,,614f7d1a2eef4c845cbc7845,629c51d3c1d8502456d3cc3e,2022-06-05_01h46.21.454,Colour_Asymmetry_Pilot,2022.1.3,Win32,71.99424046,629c4b6caf241d5e6e00bfc0,0,79,79,0,1,onetwo,,,,,,,,,,,,,,,,,,,,,,,,,,,,,,,,,,,,,,,,,,,,,,,,,,,,,,,,,,,,,,,,,,,,,,,,,,,,,,,,,,,,,,,,,,,,,,,,,,,,,,,,,,,,,,,,,,,,,,,,,,,,,,,,,,,,,,,,,,,,,
,,,,,,614f7d1a2eef4c845cbc7845,629c51d3c1d8502456d3cc3e,2022-06-05_01h46.21.454,Colour_Asymmetry_Pilot,2022.1.3,Win32,71.99424046,629c4b6caf241d5e6e00bfc0,0,80,80,65,1,onethree,,,,,,,,,,,,,,,,,,,,,,,,,,,,,,,,,,,,,,,,,,,,,,,,,,,,,,,,,,,,,,,,,,,,,,,,,,,,,,,,,,,,,,,,,,,,,,,,,,,,,,,,,,,,,,,,,,,,,,,,,,,,,,,,,,,,,,,,,,,,,
,,,,,,614f7d1a2eef4c845cbc7845,629c51d3c1d8502456d3cc3e,2022-06-05_01h46.21.454,Colour_Asymmetry_Pilot,2022.1.3,Win32,71.99424046,629c4b6caf241d5e6e00bfc0,0,81,81,62,1,fourtwo,,,,,,,,,,,,,,,,,,,,,,,,,,,,,,,,,,,,,,,,,,,,,,,,,,,,,,,,,,,,,,,,,,,,,,,,,,,,,,,,,,,,,,,,,,,,,,,,,,,,,,,,,,,,,,,,,,,,,,,,,,,,,,,,,,,,,,,,,,,,,
,,,,,,614f7d1a2eef4c845cbc7845,629c51d3c1d8502456d3cc3e,2022-06-05_01h46.21.454,Colour_Asymmetry_Pilot,2022.1.3,Win32,71.99424046,629c4b6caf241d5e6e00bfc0,0,82,82,22,1,fourtwo,,,,,,,,,,,,,,,,,,,,,,,,,,,,,,,,,,,,,,,,,,,,,,,,,,,,,,,,,,,,,,,,,,,,,,,,,,,,,,,,,,,,,,,,,,,,,,,,,,,,,,,,,,,,,,,,,,,,,,,,,,,,,,,,,,,,,,,,,,,,,
,,,,,,614f7d1a2eef4c845cbc7845,629c51d3c1d8502456d3cc3e,2022-06-05_01h46.21.454,Colour_Asymmetry_Pilot,2022.1.3,Win32,71.99424046,629c4b6caf241d5e6e00bfc0,0,83,83,4,1,threeone,,,,,,,,,,,,,,,,,,,,,,,,,,,,,,,,,,,,,,,,,,,,,,,,,,,,,,,,,,,,,,,,,,,,,,,,,,,,,,,,,,,,,,,,,,,,,,,,,,,,,,,,,,,,,,,,,,,,,,,,,,,,,,,,,,,,,,,,,,,,,
,,,,,,614f7d1a2eef4c845cbc7845,629c51d3c1d8502456d3cc3e,2022-06-05_01h46.21.454,Colour_Asymmetry_Pilot,2022.1.3,Win32,71.99424046,629c4b6caf241d5e6e00bfc0,0,84,84,6,1,fourtwo,,,,,,,,,,,,,,,,,,,,,,,,,,,,,,,,,,,,,,,,,,,,,,,,,,,,,,,,,,,,,,,,,,,,,,,,,,,,,,,,,,,,,,,,,,,,,,,,,,,,,,,,,,,,,,,,,,,,,,,,,,,,,,,,,,,,,,,,,,,,,
,,,,,,614f7d1a2eef4c845cbc7845,629c51d3c1d8502456d3cc3e,2022-06-05_01h46.21.454,Colour_Asymmetry_Pilot,2022.1.3,Win32,71.99424046,629c4b6caf241d5e6e00bfc0,0,85,85,16,1,onetwo,,,,,,,,,,,,,,,,,,,,,,,,,,,,,,,,,,,,,,,,,,,,,,,,,,,,,,,,,,,,,,,,,,,,,,,,,,,,,,,,,,,,,,,,,,,,,,,,,,,,,,,,,,,,,,,,,,,,,,,,,,,,,,,,,,,,,,,,,,,,,
,,,,,,614f7d1a2eef4c845cbc7845,629c51d3c1d8502456d3cc3e,2022-06-05_01h46.21.454,Colour_Asymmetry_Pilot,2022.1.3,Win32,71.99424046,629c4b6caf241d5e6e00bfc0,0,86,86,63,1,fourthree,,,,,,,,,,,,,,,,,,,,,,,,,,,,,,,,,,,,,,,,,,,,,,,,,,,,,,,,,,,,,,,,,,,,,,,,,,,,,,,,,,,,,,,,,,,,,,,,,,,,,,,,,,,,,,,,,,,,,,,,,,,,,,,,,,,,,,,,,,,,,
,,,,,,614f7d1a2eef4c845cbc7845,629c51d3c1d8502456d3cc3e,2022-06-05_01h46.21.454,Colour_Asymmetry_Pilot,2022.1.3,Win32,71.99424046,629c4b6caf241d5e6e00bfc0,0,87,87,32,1,onetwo,,,,,,,,,,,,,,,,,,,,,,,,,,,,,,,,,,,,,,,,,,,,,,,,,,,,,,,,,,,,,,,,,,,,,,,,,,,,,,,,,,,,,,,,,,,,,,,,,,,,,,,,,,,,,,,,,,,,,,,,,,,,,,,,,,,,,,,,,,,,,
,,,,,,614f7d1a2eef4c845cbc7845,629c51d3c1d8502456d3cc3e,2022-06-05_01h46.21.454,Colour_Asymmetry_Pilot,2022.1.3,Win32,71.99424046,629c4b6caf241d5e6e00bfc0,0,88,88,20,1,threeone,,,,,,,,,,,,,,,,,,,,,,,,,,,,,,,,,,,,,,,,,,,,,,,,,,,,,,,,,,,,,,,,,,,,,,,,,,,,,,,,,,,,,,,,,,,,,,,,,,,,,,,,,,,,,,,,,,,,,,,,,,,,,,,,,,,,,,,,,,,,,
,,,,,,614f7d1a2eef4c845cbc7845,629c51d3c1d8502456d3cc3e,2022-06-05_01h46.21.454,Colour_Asymmetry_Pilot,2022.1.3,Win32,71.99424046,629c4b6caf241d5e6e00bfc0,0,89,89,153,1,onethree,,,,,,,,,,,,,,,,,,,,,,,,,,,,,,,,,,,,,,,,,,,,,,,,,,,,,,,,,,,,,,,,,,,,,,,,,,,,,,,,,,,,,,,,,,,,,,,,,,,,,,,,,,,,,,,,,,,,,,,,,,,,,,,,,,,,,,,,,,,,,
,,,,,,614f7d1a2eef4c845cbc7845,629c51d3c1d8502456d3cc3e,2022-06-05_01h46.21.454,Colour_Asymmetry_Pilot,2022.1.3,Win32,71.99424046,629c4b6caf241d5e6e00bfc0,0,90,90,68,1,threeone,,,,,,,,,,,,,,,,,,,,,,,,,,,,,,,,,,,,,,,,,,,,,,,,,,,,,,,,,,,,,,,,,,,,,,,,,,,,,,,,,,,,,,,,,,,,,,,,,,,,,,,,,,,,,,,,,,,,,,,,,,,,,,,,,,,,,,,,,,,,,
,,,,,,614f7d1a2eef4c845cbc7845,629c51d3c1d8502456d3cc3e,2022-06-05_01h46.21.454,Colour_Asymmetry_Pilot,2022.1.3,Win32,71.99424046,629c4b6caf241d5e6e00bfc0,0,91,91,158,1,fourtwo,,,,,,,,,,,,,,,,,,,,,,,,,,,,,,,,,,,,,,,,,,,,,,,,,,,,,,,,,,,,,,,,,,,,,,,,,,,,,,,,,,,,,,,,,,,,,,,,,,,,,,,,,,,,,,,,,,,,,,,,,,,,,,,,,,,,,,,,,,,,,
,,,,,,614f7d1a2eef4c845cbc7845,629c51d3c1d8502456d3cc3e,2022-06-05_01h46.21.454,Colour_Asymmetry_Pilot,2022.1.3,Win32,71.99424046,629c4b6caf241d5e6e00bfc0,0,92,92,3,1,twofour,,,,,,,,,,,,,,,,,,,,,,,,,,,,,,,,,,,,,,,,,,,,,,,,,,,,,,,,,,,,,,,,,,,,,,,,,,,,,,,,,,,,,,,,,,,,,,,,,,,,,,,,,,,,,,,,,,,,,,,,,,,,,,,,,,,,,,,,,,,,,
,,,,,,614f7d1a2eef4c845cbc7845,629c51d3c1d8502456d3cc3e,2022-06-05_01h46.21.454,Colour_Asymmetry_Pilot,2022.1.3,Win32,71.99424046,629c4b6caf241d5e6e00bfc0,0,93,93,35,1,twofour,,,,,,,,,,,,,,,,,,,,,,,,,,,,,,,,,,,,,,,,,,,,,,,,,,,,,,,,,,,,,,,,,,,,,,,,,,,,,,,,,,,,,,,,,,,,,,,,,,,,,,,,,,,,,,,,,,,,,,,,,,,,,,,,,,,,,,,,,,,,,
,,,,,,614f7d1a2eef4c845cbc7845,629c51d3c1d8502456d3cc3e,2022-06-05_01h46.21.454,Colour_Asymmetry_Pilot,2022.1.3,Win32,71.99424046,629c4b6caf241d5e6e00bfc0,0,94,94,161,1,onethree,,,,,,,,,,,,,,,,,,,,,,,,,,,,,,,,,,,,,,,,,,,,,,,,,,,,,,,,,,,,,,,,,,,,,,,,,,,,,,,,,,,,,,,,,,,,,,,,,,,,,,,,,,,,,,,,,,,,,,,,,,,,,,,,,,,,,,,,,,,,,
,,,,,,614f7d1a2eef4c845cbc7845,629c51d3c1d8502456d3cc3e,2022-06-05_01h46.21.454,Colour_Asymmetry_Pilot,2022.1.3,Win32,71.99424046,629c4b6caf241d5e6e00bfc0,0,95,95,94,1,fourtwo,,,,,,,,,,,,,,,,,,,,,,,,,,,,,,,,,,,,,,,,,,,,,,,,,,,,,,,,,,,,,,,,,,,,,,,,,,,,,,,,,,,,,,,,,,,,,,,,,,,,,,,,,,,,,,,,,,,,,,,,,,,,,,,,,,,,,,,,,,,,,
,,,,,,614f7d1a2eef4c845cbc7845,629c51d3c1d8502456d3cc3e,2022-06-05_01h46.21.454,Colour_Asymmetry_Pilot,2022.1.3,Win32,71.99424046,629c4b6caf241d5e6e00bfc0,0,96,96,40,1,onetwo,,,,,,,,,,,,,,,,,,,,,,,,,,,,,,,,,,,,,,,,,,,,,,,,,,,,,,,,,,,,,,,,,,,,,,,,,,,,,,,,,,,,,,,,,,,,,,,,,,,,,,,,,,,,,,,,,,,,,,,,,,,,,,,,,,,,,,,,,,,,,
,,,,,,614f7d1a2eef4c845cbc7845,629c51d3c1d8502456d3cc3e,2022-06-05_01h46.21.454,Colour_Asymmetry_Pilot,2022.1.3,Win32,71.99424046,629c4b6caf241d5e6e00bfc0,0,97,97,1,1,onethree,,,,,,,,,,,,,,,,,,,,,,,,,,,,,,,,,,,,,,,,,,,,,,,,,,,,,,,,,,,,,,,,,,,,,,,,,,,,,,,,,,,,,,,,,,,,,,,,,,,,,,,,,,,,,,,,,,,,,,,,,,,,,,,,,,,,,,,,,,,,,
,,,,,,614f7d1a2eef4c845cbc7845,629c51d3c1d8502456d3cc3e,2022-06-05_01h46.21.454,Colour_Asymmetry_Pilot,2022.1.3,Win32,71.99424046,629c4b6caf241d5e6e00bfc0,0,98,98,84,1,threeone,,,,,,,,,,,,,,,,,,,,,,,,,,,,,,,,,,,,,,,,,,,,,,,,,,,,,,,,,,,,,,,,,,,,,,,,,,,,,,,,,,,,,,,,,,,,,,,,,,,,,,,,,,,,,,,,,,,,,,,,,,,,,,,,,,,,,,,,,,,,,
,,,,,,614f7d1a2eef4c845cbc7845,629c51d3c1d8502456d3cc3e,2022-06-05_01h46.21.454,Colour_Asymmetry_Pilot,2022.1.3,Win32,71.99424046,629c4b6caf241d5e6e00bfc0,0,99,99,45,1,threefour,,,,,,,,,,,,,,,,,,,,,,,,,,,,,,,,,,,,,,,,,,,,,,,,,,,,,,,,,,,,,,,,,,,,,,,,,,,,,,,,,,,,,,,,,,,,,,,,,,,,,,,,,,,,,,,,,,,,,,,,,,,,,,,,,,,,,,,,,,,,,
,,,,,,614f7d1a2eef4c845cbc7845,629c51d3c1d8502456d3cc3e,2022-06-05_01h46.21.454,Colour_Asymmetry_Pilot,2022.1.3,Win32,71.99424046,629c4b6caf241d5e6e00bfc0,0,100,100,67,1,twofour,,,,,,,,,,,,,,,,,,,,,,,,,,,,,,,,,,,,,,,,,,,,,,,,,,,,,,,,,,,,,,,,,,,,,,,,,,,,,,,,,,,,,,,,,,,,,,,,,,,,,,,,,,,,,,,,,,,,,,,,,,,,,,,,,,,,,,,,,,,,,
,,,,,,614f7d1a2eef4c845cbc7845,629c51d3c1d8502456d3cc3e,2022-06-05_01h46.21.454,Colour_Asymmetry_Pilot,2022.1.3,Win32,71.99424046,629c4b6caf241d5e6e00bfc0,0,101,101,106,1,twoone,,,,,,,,,,,,,,,,,,,,,,,,,,,,,,,,,,,,,,,,,,,,,,,,,,,,,,,,,,,,,,,,,,,,,,,,,,,,,,,,,,,,,,,,,,,,,,,,,,,,,,,,,,,,,,,,,,,,,,,,,,,,,,,,,,,,,,,,,,,,,
,,,,,,614f7d1a2eef4c845cbc7845,629c51d3c1d8502456d3cc3e,2022-06-05_01h46.21.454,Colour_Asymmetry_Pilot,2022.1.3,Win32,71.99424046,629c4b6caf241d5e6e00bfc0,0,102,102,77,1,threefour,,,,,,,,,,,,,,,,,,,,,,,,,,,,,,,,,,,,,,,,,,,,,,,,,,,,,,,,,,,,,,,,,,,,,,,,,,,,,,,,,,,,,,,,,,,,,,,,,,,,,,,,,,,,,,,,,,,,,,,,,,,,,,,,,,,,,,,,,,,,,
,,,,,,614f7d1a2eef4c845cbc7845,629c51d3c1d8502456d3cc3e,2022-06-05_01h46.21.454,Colour_Asymmetry_Pilot,2022.1.3,Win32,71.99424046,629c4b6caf241d5e6e00bfc0,0,103,103,81,1,onethree,,,,,,,,,,,,,,,,,,,,,,,,,,,,,,,,,,,,,,,,,,,,,,,,,,,,,,,,,,,,,,,,,,,,,,,,,,,,,,,,,,,,,,,,,,,,,,,,,,,,,,,,,,,,,,,,,,,,,,,,,,,,,,,,,,,,,,,,,,,,,
,,,,,,614f7d1a2eef4c845cbc7845,629c51d3c1d8502456d3cc3e,2022-06-05_01h46.21.454,Colour_Asymmetry_Pilot,2022.1.3,Win32,71.99424046,629c4b6caf241d5e6e00bfc0,0,104,104,135,1,fourthree,,,,,,,,,,,,,,,,,,,,,,,,,,,,,,,,,,,,,,,,,,,,,,,,,,,,,,,,,,,,,,,,,,,,,,,,,,,,,,,,,,,,,,,,,,,,,,,,,,,,,,,,,,,,,,,,,,,,,,,,,,,,,,,,,,,,,,,,,,,,,
,,,,,,614f7d1a2eef4c845cbc7845,629c51d3c1d8502456d3cc3e,2022-06-05_01h46.21.454,Colour_Asymmetry_Pilot,2022.1.3,Win32,71.99424046,629c4b6caf241d5e6e00bfc0,0,105,105,71,1,fourthree,,,,,,,,,,,,,,,,,,,,,,,,,,,,,,,,,,,,,,,,,,,,,,,,,,,,,,,,,,,,,,,,,,,,,,,,,,,,,,,,,,,,,,,,,,,,,,,,,,,,,,,,,,,,,,,,,,,,,,,,,,,,,,,,,,,,,,,,,,,,,
,,,,,,614f7d1a2eef4c845cbc7845,629c51d3c1d8502456d3cc3e,2022-06-05_01h46.21.454,Colour_Asymmetry_Pilot,2022.1.3,Win32,71.99424046,629c4b6caf241d5e6e00bfc0,0,106,106,83,1,twofour,,,,,,,,,,,,,,,,,,,,,,,,,,,,,,,,,,,,,,,,,,,,,,,,,,,,,,,,,,,,,,,,,,,,,,,,,,,,,,,,,,,,,,,,,,,,,,,,,,,,,,,,,,,,,,,,,,,,,,,,,,,,,,,,,,,,,,,,,,,,,
,,,,,,614f7d1a2eef4c845cbc7845,629c51d3c1d8502456d3cc3e,2022-06-05_01h46.21.454,Colour_Asymmetry_Pilot,2022.1.3,Win32,71.99424046,629c4b6caf241d5e6e00bfc0,0,107,107,33,1,onethree,,,,,,,,,,,,,,,,,,,,,,,,,,,,,,,,,,,,,,,,,,,,,,,,,,,,,,,,,,,,,,,,,,,,,,,,,,,,,,,,,,,,,,,,,,,,,,,,,,,,,,,,,,,,,,,,,,,,,,,,,,,,,,,,,,,,,,,,,,,,,
,,,,,,614f7d1a2eef4c845cbc7845,629c51d3c1d8502456d3cc3e,2022-06-05_01h46.21.454,Colour_Asymmetry_Pilot,2022.1.3,Win32,71.99424046,629c4b6caf241d5e6e00bfc0,0,108,108,55,1,fourthree,,,,,,,,,,,,,,,,,,,,,,,,,,,,,,,,,,,,,,,,,,,,,,,,,,,,,,,,,,,,,,,,,,,,,,,,,,,,,,,,,,,,,,,,,,,,,,,,,,,,,,,,,,,,,,,,,,,,,,,,,,,,,,,,,,,,,,,,,,,,,
,,,,,,614f7d1a2eef4c845cbc7845,629c51d3c1d8502456d3cc3e,2022-06-05_01h46.21.454,Colour_Asymmetry_Pilot,2022.1.3,Win32,71.99424046,629c4b6caf241d5e6e00bfc0,0,109,109,103,1,fourthree,,,,,,,,,,,,,,,,,,,,,,,,,,,,,,,,,,,,,,,,,,,,,,,,,,,,,,,,,,,,,,,,,,,,,,,,,,,,,,,,,,,,,,,,,,,,,,,,,,,,,,,,,,,,,,,,,,,,,,,,,,,,,,,,,,,,,,,,,,,,,
,,,,,,614f7d1a2eef4c845cbc7845,629c51d3c1d8502456d3cc3e,2022-06-05_01h46.21.454,Colour_Asymmetry_Pilot,2022.1.3,Win32,71.99424046,629c4b6caf241d5e6e00bfc0,0,110,110,121,1,onethree,,,,,,,,,,,,,,,,,,,,,,,,,,,,,,,,,,,,,,,,,,,,,,,,,,,,,,,,,,,,,,,,,,,,,,,,,,,,,,,,,,,,,,,,,,,,,,,,,,,,,,,,,,,,,,,,,,,,,,,,,,,,,,,,,,,,,,,,,,,,,
,,,,,,614f7d1a2eef4c845cbc7845,629c51d3c1d8502456d3cc3e,2022-06-05_01h46.21.454,Colour_Asymmetry_Pilot,2022.1.3,Win32,71.99424046,629c4b6caf241d5e6e00bfc0,0,111,111,37,1,threefour,,,,,,,,,,,,,,,,,,,,,,,,,,,,,,,,,,,,,,,,,,,,,,,,,,,,,,,,,,,,,,,,,,,,,,,,,,,,,,,,,,,,,,,,,,,,,,,,,,,,,,,,,,,,,,,,,,,,,,,,,,,,,,,,,,,,,,,,,,,,,
,,,,,,614f7d1a2eef4c845cbc7845,629c51d3c1d8502456d3cc3e,2022-06-05_01h46.21.454,Colour_Asymmetry_Pilot,2022.1.3,Win32,71.99424046,629c4b6caf241d5e6e00bfc0,0,112,112,129,1,onethree,,,,,,,,,,,,,,,,,,,,,,,,,,,,,,,,,,,,,,,,,,,,,,,,,,,,,,,,,,,,,,,,,,,,,,,,,,,,,,,,,,,,,,,,,,,,,,,,,,,,,,,,,,,,,,,,,,,,,,,,,,,,,,,,,,,,,,,,,,,,,
,,,,,,614f7d1a2eef4c845cbc7845,629c51d3c1d8502456d3cc3e,2022-06-05_01h46.21.454,Colour_Asymmetry_Pilot,2022.1.3,Win32,71.99424046,629c4b6caf241d5e6e00bfc0,0,113,113,60,1,threeone,,,,,,,,,,,,,,,,,,,,,,,,,,,,,,,,,,,,,,,,,,,,,,,,,,,,,,,,,,,,,,,,,,,,,,,,,,,,,,,,,,,,,,,,,,,,,,,,,,,,,,,,,,,,,,,,,,,,,,,,,,,,,,,,,,,,,,,,,,,,,
,,,,,,614f7d1a2eef4c845cbc7845,629c51d3c1d8502456d3cc3e,2022-06-05_01h46.21.454,Colour_Asymmetry_Pilot,2022.1.3,Win32,71.99424046,629c4b6caf241d5e6e00bfc0,0,114,114,7,1,fourthree,,,,,,,,,,,,,,,,,,,,,,,,,,,,,,,,,,,,,,,,,,,,,,,,,,,,,,,,,,,,,,,,,,,,,,,,,,,,,,,,,,,,,,,,,,,,,,,,,,,,,,,,,,,,,,,,,,,,,,,,,,,,,,,,,,,,,,,,,,,,,
,,,,,,614f7d1a2eef4c845cbc7845,629c51d3c1d8502456d3cc3e,2022-06-05_01h46.21.454,Colour_Asymmetry_Pilot,2022.1.3,Win32,71.99424046,629c4b6caf241d5e6e00bfc0,0,115,115,11,1,twofour,,,,,,,,,,,,,,,,,,,,,,,,,,,,,,,,,,,,,,,,,,,,,,,,,,,,,,,,,,,,,,,,,,,,,,,,,,,,,,,,,,,,,,,,,,,,,,,,,,,,,,,,,,,,,,,,,,,,,,,,,,,,,,,,,,,,,,,,,,,,,
,,,,,,614f7d1a2eef4c845cbc7845,629c51d3c1d8502456d3cc3e,2022-06-05_01h46.21.454,Colour_Asymmetry_Pilot,2022.1.3,Win32,71.99424046,629c4b6caf241d5e6e00bfc0,0,116,116,18,1,twoone,,,,,,,,,,,,,,,,,,,,,,,,,,,,,,,,,,,,,,,,,,,,,,,,,,,,,,,,,,,,,,,,,,,,,,,,,,,,,,,,,,,,,,,,,,,,,,,,,,,,,,,,,,,,,,,,,,,,,,,,,,,,,,,,,,,,,,,,,,,,,
,,,,,,614f7d1a2eef4c845cbc7845,629c51d3c1d8502456d3cc3e,2022-06-05_01h46.21.454,Colour_Asymmetry_Pilot,2022.1.3,Win32,71.99424046,629c4b6caf241d5e6e00bfc0,0,117,117,13,1,threefour,,,,,,,,,,,,,,,,,,,,,,,,,,,,,,,,,,,,,,,,,,,,,,,,,,,,,,,,,,,,,,,,,,,,,,,,,,,,,,,,,,,,,,,,,,,,,,,,,,,,,,,,,,,,,,,,,,,,,,,,,,,,,,,,,,,,,,,,,,,,,
,,,,,,614f7d1a2eef4c845cbc7845,629c51d3c1d8502456d3cc3e,2022-06-05_01h46.21.454,Colour_Asymmetry_Pilot,2022.1.3,Win32,71.99424046,629c4b6caf241d5e6e00bfc0,0,118,118,27,1,twofour,,,,,,,,,,,,,,,,,,,,,,,,,,,,,,,,,,,,,,,,,,,,,,,,,,,,,,,,,,,,,,,,,,,,,,,,,,,,,,,,,,,,,,,,,,,,,,,,,,,,,,,,,,,,,,,,,,,,,,,,,,,,,,,,,,,,,,,,,,,,,
,,,,,,614f7d1a2eef4c845cbc7845,629c51d3c1d8502456d3cc3e,2022-06-05_01h46.21.454,Colour_Asymmetry_Pilot,2022.1.3,Win32,71.99424046,629c4b6caf241d5e6e00bfc0,0,119,119,124,1,threeone,,,,,,,,,,,,,,,,,,,,,,,,,,,,,,,,,,,,,,,,,,,,,,,,,,,,,,,,,,,,,,,,,,,,,,,,,,,,,,,,,,,,,,,,,,,,,,,,,,,,,,,,,,,,,,,,,,,,,,,,,,,,,,,,,,,,,,,,,,,,,
,,,,,,614f7d1a2eef4c845cbc7845,629c51d3c1d8502456d3cc3e,2022-06-05_01h46.21.454,Colour_Asymmetry_Pilot,2022.1.3,Win32,71.99424046,629c4b6caf241d5e6e00bfc0,0,120,120,100,1,threeone,,,,,,,,,,,,,,,,,,,,,,,,,,,,,,,,,,,,,,,,,,,,,,,,,,,,,,,,,,,,,,,,,,,,,,,,,,,,,,,,,,,,,,,,,,,,,,,,,,,,,,,,,,,,,,,,,,,,,,,,,,,,,,,,,,,,,,,,,,,,,
,,,,,,614f7d1a2eef4c845cbc7845,629c51d3c1d8502456d3cc3e,2022-06-05_01h46.21.454,Colour_Asymmetry_Pilot,2022.1.3,Win32,71.99424046,629c4b6caf241d5e6e00bfc0,0,121,121,58,1,twoone,,,,,,,,,,,,,,,,,,,,,,,,,,,,,,,,,,,,,,,,,,,,,,,,,,,,,,,,,,,,,,,,,,,,,,,,,,,,,,,,,,,,,,,,,,,,,,,,,,,,,,,,,,,,,,,,,,,,,,,,,,,,,,,,,,,,,,,,,,,,,
,,,,,,614f7d1a2eef4c845cbc7845,629c51d3c1d8502456d3cc3e,2022-06-05_01h46.21.454,Colour_Asymmetry_Pilot,2022.1.3,Win32,71.99424046,629c4b6caf241d5e6e00bfc0,0,122,122,144,1,onetwo,,,,,,,,,,,,,,,,,,,,,,,,,,,,,,,,,,,,,,,,,,,,,,,,,,,,,,,,,,,,,,,,,,,,,,,,,,,,,,,,,,,,,,,,,,,,,,,,,,,,,,,,,,,,,,,,,,,,,,,,,,,,,,,,,,,,,,,,,,,,,
,,,,,,614f7d1a2eef4c845cbc7845,629c51d3c1d8502456d3cc3e,2022-06-05_01h46.21.454,Colour_Asymmetry_Pilot,2022.1.3,Win32,71.99424046,629c4b6caf241d5e6e00bfc0,0,123,123,114,1,twoone,,,,,,,,,,,,,,,,,,,,,,,,,,,,,,,,,,,,,,,,,,,,,,,,,,,,,,,,,,,,,,,,,,,,,,,,,,,,,,,,,,,,,,,,,,,,,,,,,,,,,,,,,,,,,,,,,,,,,,,,,,,,,,,,,,,,,,,,,,,,,
,,,,,,614f7d1a2eef4c845cbc7845,629c51d3c1d8502456d3cc3e,2022-06-05_01h46.21.454,Colour_Asymmetry_Pilot,2022.1.3,Win32,71.99424046,629c4b6caf241d5e6e00bfc0,0,124,124,88,1,onetwo,,,,,,,,,,,,,,,,,,,,,,,,,,,,,,,,,,,,,,,,,,,,,,,,,,,,,,,,,,,,,,,,,,,,,,,,,,,,,,,,,,,,,,,,,,,,,,,,,,,,,,,,,,,,,,,,,,,,,,,,,,,,,,,,,,,,,,,,,,,,,
,,,,,,614f7d1a2eef4c845cbc7845,629c51d3c1d8502456d3cc3e,2022-06-05_01h46.21.454,Colour_Asymmetry_Pilot,2022.1.3,Win32,71.99424046,629c4b6caf241d5e6e00bfc0,0,125,125,57,1,onethree,,,,,,,,,,,,,,,,,,,,,,,,,,,,,,,,,,,,,,,,,,,,,,,,,,,,,,,,,,,,,,,,,,,,,,,,,,,,,,,,,,,,,,,,,,,,,,,,,,,,,,,,,,,,,,,,,,,,,,,,,,,,,,,,,,,,,,,,,,,,,
,,,,,,614f7d1a2eef4c845cbc7845,629c51d3c1d8502456d3cc3e,2022-06-05_01h46.21.454,Colour_Asymmetry_Pilot,2022.1.3,Win32,71.99424046,629c4b6caf241d5e6e00bfc0,0,126,126,82,1,twoone,,,,,,,,,,,,,,,,,,,,,,,,,,,,,,,,,,,,,,,,,,,,,,,,,,,,,,,,,,,,,,,,,,,,,,,,,,,,,,,,,,,,,,,,,,,,,,,,,,,,,,,,,,,,,,,,,,,,,,,,,,,,,,,,,,,,,,,,,,,,,
,,,,,,614f7d1a2eef4c845cbc7845,629c51d3c1d8502456d3cc3e,2022-06-05_01h46.21.454,Colour_Asymmetry_Pilot,2022.1.3,Win32,71.99424046,629c4b6caf241d5e6e00bfc0,0,127,127,140,1,threeone,,,,,,,,,,,,,,,,,,,,,,,,,,,,,,,,,,,,,,,,,,,,,,,,,,,,,,,,,,,,,,,,,,,,,,,,,,,,,,,,,,,,,,,,,,,,,,,,,,,,,,,,,,,,,,,,,,,,,,,,,,,,,,,,,,,,,,,,,,,,,
,,,,,,614f7d1a2eef4c845cbc7845,629c51d3c1d8502456d3cc3e,2022-06-05_01h46.21.454,Colour_Asymmetry_Pilot,2022.1.3,Win32,71.99424046,629c4b6caf241d5e6e00bfc0,0,128,128,107,1,twofour,,,,,,,,,,,,,,,,,,,,,,,,,,,,,,,,,,,,,,,,,,,,,,,,,,,,,,,,,,,,,,,,,,,,,,,,,,,,,,,,,,,,,,,,,,,,,,,,,,,,,,,,,,,,,,,,,,,,,,,,,,,,,,,,,,,,,,,,,,,,,
,,,,,,614f7d1a2eef4c845cbc7845,629c51d3c1d8502456d3cc3e,2022-06-05_01h46.21.454,Colour_Asymmetry_Pilot,2022.1.3,Win32,71.99424046,629c4b6caf241d5e6e00bfc0,0,129,129,115,1,twofour,,,,,,,,,,,,,,,,,,,,,,,,,,,,,,,,,,,,,,,,,,,,,,,,,,,,,,,,,,,,,,,,,,,,,,,,,,,,,,,,,,,,,,,,,,,,,,,,,,,,,,,,,,,,,,,,,,,,,,,,,,,,,,,,,,,,,,,,,,,,,
,,,,,,614f7d1a2eef4c845cbc7845,629c51d3c1d8502456d3cc3e,2022-06-05_01h46.21.454,Colour_Asymmetry_Pilot,2022.1.3,Win32,71.99424046,629c4b6caf241d5e6e00bfc0,0,130,130,151,1,fourthree,,,,,,,,,,,,,,,,,,,,,,,,,,,,,,,,,,,,,,,,,,,,,,,,,,,,,,,,,,,,,,,,,,,,,,,,,,,,,,,,,,,,,,,,,,,,,,,,,,,,,,,,,,,,,,,,,,,,,,,,,,,,,,,,,,,,,,,,,,,,,
,,,,,,614f7d1a2eef4c845cbc7845,629c51d3c1d8502456d3cc3e,2022-06-05_01h46.21.454,Colour_Asymmetry_Pilot,2022.1.3,Win32,71.99424046,629c4b6caf241d5e6e00bfc0,0,131,131,150,1,fourtwo,,,,,,,,,,,,,,,,,,,,,,,,,,,,,,,,,,,,,,,,,,,,,,,,,,,,,,,,,,,,,,,,,,,,,,,,,,,,,,,,,,,,,,,,,,,,,,,,,,,,,,,,,,,,,,,,,,,,,,,,,,,,,,,,,,,,,,,,,,,,,
,,,,,,614f7d1a2eef4c845cbc7845,629c51d3c1d8502456d3cc3e,2022-06-05_01h46.21.454,Colour_Asymmetry_Pilot,2022.1.3,Win32,71.99424046,629c4b6caf241d5e6e00bfc0,0,132,132,53,1,threefour,,,,,,,,,,,,,,,,,,,,,,,,,,,,,,,,,,,,,,,,,,,,,,,,,,,,,,,,,,,,,,,,,,,,,,,,,,,,,,,,,,,,,,,,,,,,,,,,,,,,,,,,,,,,,,,,,,,,,,,,,,,,,,,,,,,,,,,,,,,,,
,,,,,,614f7d1a2eef4c845cbc7845,629c51d3c1d8502456d3cc3e,2022-06-05_01h46.21.454,Colour_Asymmetry_Pilot,2022.1.3,Win32,71.99424046,629c4b6caf241d5e6e00bfc0,0,133,133,26,1,twoone,,,,,,,,,,,,,,,,,,,,,,,,,,,,,,,,,,,,,,,,,,,,,,,,,,,,,,,,,,,,,,,,,,,,,,,,,,,,,,,,,,,,,,,,,,,,,,,,,,,,,,,,,,,,,,,,,,,,,,,,,,,,,,,,,,,,,,,,,,,,,
,,,,,,614f7d1a2eef4c845cbc7845,629c51d3c1d8502456d3cc3e,2022-06-05_01h46.21.454,Colour_Asymmetry_Pilot,2022.1.3,Win32,71.99424046,629c4b6caf241d5e6e00bfc0,0,134,134,145,1,onethree,,,,,,,,,,,,,,,,,,,,,,,,,,,,,,,,,,,,,,,,,,,,,,,,,,,,,,,,,,,,,,,,,,,,,,,,,,,,,,,,,,,,,,,,,,,,,,,,,,,,,,,,,,,,,,,,,,,,,,,,,,,,,,,,,,,,,,,,,,,,,
,,,,,,614f7d1a2eef4c845cbc7845,629c51d3c1d8502456d3cc3e,2022-06-05_01h46.21.454,Colour_Asymmetry_Pilot,2022.1.3,Win32,71.99424046,629c4b6caf241d5e6e00bfc0,0,135,135,72,1,onetwo,,,,,,,,,,,,,,,,,,,,,,,,,,,,,,,,,,,,,,,,,,,,,,,,,,,,,,,,,,,,,,,,,,,,,,,,,,,,,,,,,,,,,,,,,,,,,,,,,,,,,,,,,,,,,,,,,,,,,,,,,,,,,,,,,,,,,,,,,,,,,
,,,,,,614f7d1a2eef4c845cbc7845,629c51d3c1d8502456d3cc3e,2022-06-05_01h46.21.454,Colour_Asymmetry_Pilot,2022.1.3,Win32,71.99424046,629c4b6caf241d5e6e00bfc0,0,136,136,122,1,twoone,,,,,,,,,,,,,,,,,,,,,,,,,,,,,,,,,,,,,,,,,,,,,,,,,,,,,,,,,,,,,,,,,,,,,,,,,,,,,,,,,,,,,,,,,,,,,,,,,,,,,,,,,,,,,,,,,,,,,,,,,,,,,,,,,,,,,,,,,,,,,
,,,,,,614f7d1a2eef4c845cbc7845,629c51d3c1d8502456d3cc3e,2022-06-05_01h46.21.454,Colour_Asymmetry_Pilot,2022.1.3,Win32,71.99424046,629c4b6caf241d5e6e00bfc0,0,137,137,137,1,onethree,,,,,,,,,,,,,,,,,,,,,,,,,,,,,,,,,,,,,,,,,,,,,,,,,,,,,,,,,,,,,,,,,,,,,,,,,,,,,,,,,,,,,,,,,,,,,,,,,,,,,,,,,,,,,,,,,,,,,,,,,,,,,,,,,,,,,,,,,,,,,
,,,,,,614f7d1a2eef4c845cbc7845,629c51d3c1d8502456d3cc3e,2022-06-05_01h46.21.454,Colour_Asymmetry_Pilot,2022.1.3,Win32,71.99424046,629c4b6caf241d5e6e00bfc0,0,138,138,21,1,threefour,,,,,,,,,,,,,,,,,,,,,,,,,,,,,,,,,,,,,,,,,,,,,,,,,,,,,,,,,,,,,,,,,,,,,,,,,,,,,,,,,,,,,,,,,,,,,,,,,,,,,,,,,,,,,,,,,,,,,,,,,,,,,,,,,,,,,,,,,,,,,
,,,,,,614f7d1a2eef4c845cbc7845,629c51d3c1d8502456d3cc3e,2022-06-05_01h46.21.454,Colour_Asymmetry_Pilot,2022.1.3,Win32,71.99424046,629c4b6caf241d5e6e00bfc0,0,139,139,152,1,onetwo,,,,,,,,,,,,,,,,,,,,,,,,,,,,,,,,,,,,,,,,,,,,,,,,,,,,,,,,,,,,,,,,,,,,,,,,,,,,,,,,,,,,,,,,,,,,,,,,,,,,,,,,,,,,,,,,,,,,,,,,,,,,,,,,,,,,,,,,,,,,,
,,,,,,614f7d1a2eef4c845cbc7845,629c51d3c1d8502456d3cc3e,2022-06-05_01h46.21.454,Colour_Asymmetry_Pilot,2022.1.3,Win32,71.99424046,629c4b6caf241d5e6e00bfc0,0,140,140,143,1,fourthree,,,,,,,,,,,,,,,,,,,,,,,,,,,,,,,,,,,,,,,,,,,,,,,,,,,,,,,,,,,,,,,,,,,,,,,,,,,,,,,,,,,,,,,,,,,,,,,,,,,,,,,,,,,,,,,,,,,,,,,,,,,,,,,,,,,,,,,,,,,,,
,,,,,,614f7d1a2eef4c845cbc7845,629c51d3c1d8502456d3cc3e,2022-06-05_01h46.21.454,Colour_Asymmetry_Pilot,2022.1.3,Win32,71.99424046,629c4b6caf241d5e6e00bfc0,0,141,141,54,1,fourtwo,,,,,,,,,,,,,,,,,,,,,,,,,,,,,,,,,,,,,,,,,,,,,,,,,,,,,,,,,,,,,,,,,,,,,,,,,,,,,,,,,,,,,,,,,,,,,,,,,,,,,,,,,,,,,,,,,,,,,,,,,,,,,,,,,,,,,,,,,,,,,
,,,,,,614f7d1a2eef4c845cbc7845,629c51d3c1d8502456d3cc3e,2022-06-05_01h46.21.454,Colour_Asymmetry_Pilot,2022.1.3,Win32,71.99424046,629c4b6caf241d5e6e00bfc0,0,142,142,125,1,threefour,,,,,,,,,,,,,,,,,,,,,,,,,,,,,,,,,,,,,,,,,,,,,,,,,,,,,,,,,,,,,,,,,,,,,,,,,,,,,,,,,,,,,,,,,,,,,,,,,,,,,,,,,,,,,,,,,,,,,,,,,,,,,,,,,,,,,,,,,,,,,
,,,,,,614f7d1a2eef4c845cbc7845,629c51d3c1d8502456d3cc3e,2022-06-05_01h46.21.454,Colour_Asymmetry_Pilot,2022.1.3,Win32,71.99424046,629c4b6caf241d5e6e00bfc0,0,143,143,47,1,fourthree,,,,,,,,,,,,,,,,,,,,,,,,,,,,,,,,,,,,,,,,,,,,,,,,,,,,,,,,,,,,,,,,,,,,,,,,,,,,,,,,,,,,,,,,,,,,,,,,,,,,,,,,,,,,,,,,,,,,,,,,,,,,,,,,,,,,,,,,,,,,,
,,,,,,614f7d1a2eef4c845cbc7845,629c51d3c1d8502456d3cc3e,2022-06-05_01h46.21.454,Colour_Asymmetry_Pilot,2022.1.3,Win32,71.99424046,629c4b6caf241d5e6e00bfc0,0,144,144,92,1,threeone,,,,,,,,,,,,,,,,,,,,,,,,,,,,,,,,,,,,,,,,,,,,,,,,,,,,,,,,,,,,,,,,,,,,,,,,,,,,,,,,,,,,,,,,,,,,,,,,,,,,,,,,,,,,,,,,,,,,,,,,,,,,,,,,,,,,,,,,,,,,,
,,,,,,614f7d1a2eef4c845cbc7845,629c51d3c1d8502456d3cc3e,2022-06-05_01h46.21.454,Colour_Asymmetry_Pilot,2022.1.3,Win32,71.99424046,629c4b6caf241d5e6e00bfc0,0,145,145,39,1,fourthree,,,,,,,,,,,,,,,,,,,,,,,,,,,,,,,,,,,,,,,,,,,,,,,,,,,,,,,,,,,,,,,,,,,,,,,,,,,,,,,,,,,,,,,,,,,,,,,,,,,,,,,,,,,,,,,,,,,,,,,,,,,,,,,,,,,,,,,,,,,,,
,,,,,,614f7d1a2eef4c845cbc7845,629c51d3c1d8502456d3cc3e,2022-06-05_01h46.21.454,Colour_Asymmetry_Pilot,2022.1.3,Win32,71.99424046,629c4b6caf241d5e6e00bfc0,0,146,146,105,1,onethree,,,,,,,,,,,,,,,,,,,,,,,,,,,,,,,,,,,,,,,,,,,,,,,,,,,,,,,,,,,,,,,,,,,,,,,,,,,,,,,,,,,,,,,,,,,,,,,,,,,,,,,,,,,,,,,,,,,,,,,,,,,,,,,,,,,,,,,,,,,,,
,,,,,,614f7d1a2eef4c845cbc7845,629c51d3c1d8502456d3cc3e,2022-06-05_01h46.21.454,Colour_Asymmetry_Pilot,2022.1.3,Win32,71.99424046,629c4b6caf241d5e6e00bfc0,0,147,147,104,1,onetwo,,,,,,,,,,,,,,,,,,,,,,,,,,,,,,,,,,,,,,,,,,,,,,,,,,,,,,,,,,,,,,,,,,,,,,,,,,,,,,,,,,,,,,,,,,,,,,,,,,,,,,,,,,,,,,,,,,,,,,,,,,,,,,,,,,,,,,,,,,,,,
,,,,,,614f7d1a2eef4c845cbc7845,629c51d3c1d8502456d3cc3e,2022-06-05_01h46.21.454,Colour_Asymmetry_Pilot,2022.1.3,Win32,71.99424046,629c4b6caf241d5e6e00bfc0,0,148,148,102,1,fourtwo,,,,,,,,,,,,,,,,,,,,,,,,,,,,,,,,,,,,,,,,,,,,,,,,,,,,,,,,,,,,,,,,,,,,,,,,,,,,,,,,,,,,,,,,,,,,,,,,,,,,,,,,,,,,,,,,,,,,,,,,,,,,,,,,,,,,,,,,,,,,,
,,,,,,614f7d1a2eef4c845cbc7845,629c51d3c1d8502456d3cc3e,2022-06-05_01h46.21.454,Colour_Asymmetry_Pilot,2022.1.3,Win32,71.99424046,629c4b6caf241d5e6e00bfc0,0,149,149,123,1,twofour,,,,,,,,,,,,,,,,,,,,,,,,,,,,,,,,,,,,,,,,,,,,,,,,,,,,,,,,,,,,,,,,,,,,,,,,,,,,,,,,,,,,,,,,,,,,,,,,,,,,,,,,,,,,,,,,,,,,,,,,,,,,,,,,,,,,,,,,,,,,,
,,,,,,614f7d1a2eef4c845cbc7845,629c51d3c1d8502456d3cc3e,2022-06-05_01h46.21.454,Colour_Asymmetry_Pilot,2022.1.3,Win32,71.99424046,629c4b6caf241d5e6e00bfc0,0,150,150,29,1,threefour,,,,,,,,,,,,,,,,,,,,,,,,,,,,,,,,,,,,,,,,,,,,,,,,,,,,,,,,,,,,,,,,,,,,,,,,,,,,,,,,,,,,,,,,,,,,,,,,,,,,,,,,,,,,,,,,,,,,,,,,,,,,,,,,,,,,,,,,,,,,,
,,,,,,614f7d1a2eef4c845cbc7845,629c51d3c1d8502456d3cc3e,2022-06-05_01h46.21.454,Colour_Asymmetry_Pilot,2022.1.3,Win32,71.99424046,629c4b6caf241d5e6e00bfc0,0,151,151,130,1,twoone,,,,,,,,,,,,,,,,,,,,,,,,,,,,,,,,,,,,,,,,,,,,,,,,,,,,,,,,,,,,,,,,,,,,,,,,,,,,,,,,,,,,,,,,,,,,,,,,,,,,,,,,,,,,,,,,,,,,,,,,,,,,,,,,,,,,,,,,,,,,,
,,,,,,614f7d1a2eef4c845cbc7845,629c51d3c1d8502456d3cc3e,2022-06-05_01h46.21.454,Colour_Asymmetry_Pilot,2022.1.3,Win32,71.99424046,629c4b6caf241d5e6e00bfc0,0,152,152,14,1,fourtwo,,,,,,,,,,,,,,,,,,,,,,,,,,,,,,,,,,,,,,,,,,,,,,,,,,,,,,,,,,,,,,,,,,,,,,,,,,,,,,,,,,,,,,,,,,,,,,,,,,,,,,,,,,,,,,,,,,,,,,,,,,,,,,,,,,,,,,,,,,,,,
,,,,,,614f7d1a2eef4c845cbc7845,629c51d3c1d8502456d3cc3e,2022-06-05_01h46.21.454,Colour_Asymmetry_Pilot,2022.1.3,Win32,71.99424046,629c4b6caf241d5e6e00bfc0,0,153,153,87,1,fourthree,,,,,,,,,,,,,,,,,,,,,,,,,,,,,,,,,,,,,,,,,,,,,,,,,,,,,,,,,,,,,,,,,,,,,,,,,,,,,,,,,,,,,,,,,,,,,,,,,,,,,,,,,,,,,,,,,,,,,,,,,,,,,,,,,,,,,,,,,,,,,
,,,,,,614f7d1a2eef4c845cbc7845,629c51d3c1d8502456d3cc3e,2022-06-05_01h46.21.454,Colour_Asymmetry_Pilot,2022.1.3,Win32,71.99424046,629c4b6caf241d5e6e00bfc0,0,154,154,113,1,onethree,,,,,,,,,,,,,,,,,,,,,,,,,,,,,,,,,,,,,,,,,,,,,,,,,,,,,,,,,,,,,,,,,,,,,,,,,,,,,,,,,,,,,,,,,,,,,,,,,,,,,,,,,,,,,,,,,,,,,,,,,,,,,,,,,,,,,,,,,,,,,
,,,,,,614f7d1a2eef4c845cbc7845,629c51d3c1d8502456d3cc3e,2022-06-05_01h46.21.454,Colour_Asymmetry_Pilot,2022.1.3,Win32,71.99424046,629c4b6caf241d5e6e00bfc0,0,155,155,110,1,fourtwo,,,,,,,,,,,,,,,,,,,,,,,,,,,,,,,,,,,,,,,,,,,,,,,,,,,,,,,,,,,,,,,,,,,,,,,,,,,,,,,,,,,,,,,,,,,,,,,,,,,,,,,,,,,,,,,,,,,,,,,,,,,,,,,,,,,,,,,,,,,,,
,,,,,,614f7d1a2eef4c845cbc7845,629c51d3c1d8502456d3cc3e,2022-06-05_01h46.21.454,Colour_Asymmetry_Pilot,2022.1.3,Win32,71.99424046,629c4b6caf241d5e6e00bfc0,0,156,156,118,1,fourtwo,,,,,,,,,,,,,,,,,,,,,,,,,,,,,,,,,,,,,,,,,,,,,,,,,,,,,,,,,,,,,,,,,,,,,,,,,,,,,,,,,,,,,,,,,,,,,,,,,,,,,,,,,,,,,,,,,,,,,,,,,,,,,,,,,,,,,,,,,,,,,
,,,,,,614f7d1a2eef4c845cbc7845,629c51d3c1d8502456d3cc3e,2022-06-05_01h46.21.454,Colour_Asymmetry_Pilot,2022.1.3,Win32,71.99424046,629c4b6caf241d5e6e00bfc0,0,157,157,41,1,onethree,,,,,,,,,,,,,,,,,,,,,,,,,,,,,,,,,,,,,,,,,,,,,,,,,,,,,,,,,,,,,,,,,,,,,,,,,,,,,,,,,,,,,,,,,,,,,,,,,,,,,,,,,,,,,,,,,,,,,,,,,,,,,,,,,,,,,,,,,,,,,
,,,,,,614f7d1a2eef4c845cbc7845,629c51d3c1d8502456d3cc3e,2022-06-05_01h46.21.454,Colour_Asymmetry_Pilot,2022.1.3,Win32,71.99424046,629c4b6caf241d5e6e00bfc0,0,158,158,17,1,onethree,,,,,,,,,,,,,,,,,,,,,,,,,,,,,,,,,,,,,,,,,,,,,,,,,,,,,,,,,,,,,,,,,,,,,,,,,,,,,,,,,,,,,,,,,,,,,,,,,,,,,,,,,,,,,,,,,,,,,,,,,,,,,,,,,,,,,,,,,,,,,
,,,,,,614f7d1a2eef4c845cbc7845,629c51d3c1d8502456d3cc3e,2022-06-05_01h46.21.454,Colour_Asymmetry_Pilot,2022.1.3,Win32,71.99424046,629c4b6caf241d5e6e00bfc0,0,159,159,157,1,threefour,,,,,,,,,,,,,,,,,,,,,,,,,,,,,,,,,,,,,,,,,,,,,,,,,,,,,,,,,,,,,,,,,,,,,,,,,,,,,,,,,,,,,,,,,,,,,,,,,,,,,,,,,,,,,,,,,,,,,,,,,,,,,,,,,,,,,,,,,,,,,
,,,,,,614f7d1a2eef4c845cbc7845,629c51d3c1d8502456d3cc3e,2022-06-05_01h46.21.454,Colour_Asymmetry_Pilot,2022.1.3,Win32,71.99424046,629c4b6caf241d5e6e00bfc0,0,160,160,146,1,twoone,,,,,,,,,,,,,,,,,,,,,,,,,,,,,,,,,,,,,,,,,,,,,,,,,,,,,,,,,,,,,,,,,,,,,,,,,,,,,,,,,,,,,,,,,,,,,,,,,,,,,,,,,,,,,,,,,,,,,,,,,,,,,,,,,,,,,,,,,,,,,
,,,,,,614f7d1a2eef4c845cbc7845,629c51d3c1d8502456d3cc3e,2022-06-05_01h46.21.454,Colour_Asymmetry_Pilot,2022.1.3,Win32,71.99424046,629c4b6caf241d5e6e00bfc0,0,161,161,99,1,twofour,,,,,,,,,,,,,,,,,,,,,,,,,,,,,,,,,,,,,,,,,,,,,,,,,,,,,,,,,,,,,,,,,,,,,,,,,,,,,,,,,,,,,,,,,,,,,,,,,,,,,,,,,,,,,,,,,,,,,,,,,,,,,,,,,,,,,,,,,,,,,
,,,,,,614f7d1a2eef4c845cbc7845,629c51d3c1d8502456d3cc3e,2022-06-05_01h46.21.454,Colour_Asymmetry_Pilot,2022.1.3,Win32,71.99424046,629c4b6caf241d5e6e00bfc0,,,,,,,space,3.5863,space,13.2513,space,77.9307,space,89.7027,space,0.7533,space,3.4199,"[0.9213999999999998,0.6391999999999998,-0.9922]",threeone,"[-0.07459999999999989,0.12139999999999995,-0.9922]",-1,13.5227,-66,-88,1,0,0,response5disk_5,0,3,1,0,0,rectangle_8,0,3,1,0,0,1,0,3,1,0,0,0,0,0,0,1,,,,,,,,,,,,,,,,,,,,,,,,,,,,,,,,,,,,,,,,,,,,,,,,,,,,,,,,,,,,,,,,,,,,,,,,,,,,,,,,,,,,,,,,,,,,,,,,
,,,,,,614f7d1a2eef4c845cbc7845,629c51d3c1d8502456d3cc3e,2022-06-05_01h46.21.454,Colour_Asymmetry_Pilot,2022.1.3,Win32,71.99424046,629c4b6caf241d5e6e00bfc0,,,,,,,,,,,,,,,,,,,"[0.37240000000000006,0.4980000000000002,-0.2864]",twofour,"[0.11359999999999992,0.6312,0.5213999999999999]",-4,2.3539,-47,116,1,0,0,response7disk_5,8,-6,1,0,0,rectangle_8,8,-6,1,0,0,1,8,-6,1,0,0,1,0,1,0,1,,,,,,,,,,,,,,,,,,,,,,,,,,,,,,,,,,,,,,,,,,,,,,,,,,,,,,,,,,,,,,,,,,,,,,,,,,,,,,,,,,,,,,,,,,,,,,,,
,,,,,,614f7d1a2eef4c845cbc7845,629c51d3c1d8502456d3cc3e,2022-06-05_01h46.21.454,Colour_Asymmetry_Pilot,2022.1.3,Win32,71.99424046,629c4b6caf241d5e6e00bfc0,,,,,,,,,,,,,,,,,,,"[-0.06680000000000008,-0.45100000000000007,-0.906]",threeone,"[-0.9766,-0.6472,0.07440000000000002]",-1,2.216,-72,-112,1,0,0,response5disk_5,-1,-10,1,0,0,rectangle_8,42,-129,1,0,0,1,-2,7,1,0,0,2,0,2,0,1,response3disk_7,4,rectangle_4,,,,,,,,,,,,,,,,,,,,,,,,,,,,,,,,,,,,,,,,,,,,,,,,,,,,,,,,,,,,,,,,,,,,,,,,,,,,,,,,,,,,,,,,,,,,,
,,,,,,614f7d1a2eef4c845cbc7845,629c51d3c1d8502456d3cc3e,2022-06-05_01h46.21.454,Colour_Asymmetry_Pilot,2022.1.3,Win32,71.99424046,629c4b6caf241d5e6e00bfc0,,,,,,,,,,,,,,,,,,,"[1,0.12939999999999996,-1]",twofour,"[0.2784,-0.31000000000000005,-0.5452]",2,2.6846,91,-48,1,0,0,response3disk_5,-12,-3,1,0,0,rectangle_8,-12,-3,1,0,0,1,-12,-3,1,0,0,3,0,3,0,1,,,,,,,,,,,,,,,,,,,,,,,,,,,,,,,,,,,,,,,,,,,,,,,,,,,,,,,,,,,,,,,,,,,,,,,,,,,,,,,,,,,,,,,,,,,,,,,,
,,,,,,614f7d1a2eef4c845cbc7845,629c51d3c1d8502456d3cc3e,2022-06-05_01h46.21.454,Colour_Asymmetry_Pilot,2022.1.3,Win32,71.99424046,629c4b6caf241d5e6e00bfc0,,,,,,,,,,,,,,,,,,,"[1,0.12939999999999996,-1]",onethree,"[-0.6235999999999999,-0.6786,-0.08239999999999992]",-4,1.8811,-69,127,1,0,0,response7disk_5,1,9,1,0,0,rectangle_8,1,9,1,0,0,1,1,9,1,0,0,4,0,4,0,1,,,,,,,,,,,,,,,,,,,,,,,,,,,,,,,,,,,,,,,,,,,,,,,,,,,,,,,,,,,,,,,,,,,,,,,,,,,,,,,,,,,,,,,,,,,,,,,,
,,,,,,614f7d1a2eef4c845cbc7845,629c51d3c1d8502456d3cc3e,2022-06-05_01h46.21.454,Colour_Asymmetry_Pilot,2022.1.3,Win32,71.99424046,629c4b6caf241d5e6e00bfc0,,,,,,,,,,,,,,,,,,,"[-0.17659999999999998,-0.2864,-0.8354]",threefour,"[-0.6,0.16860000000000008,0.44300000000000006]",-4,1.3131,-57,111,1,0,0,response7disk_5,-14,5,1,0,0,rectangle_8,40,-129,1,0,0,1,-4,-17,1,0,0,5,0,5,0,1,response3disk_7,4,rectangle_4,,,,,,,,,,,,,,,,,,,,,,,,,,,,,,,,,,,,,,,,,,,,,,,,,,,,,,,,,,,,,,,,,,,,,,,,,,,,,,,,,,,,,,,,,,,,,
,,,,,,614f7d1a2eef4c845cbc7845,629c51d3c1d8502456d3cc3e,2022-06-05_01h46.21.454,Colour_Asymmetry_Pilot,2022.1.3,Win32,71.99424046,629c4b6caf241d5e6e00bfc0,,,,,,,,,,,,,,,,,,,"[-0.09019999999999995,0.44300000000000006,0.5371999999999999]",onetwo,"[-0.050999999999999934,-0.6706000000000001,-0.804]",-4,1.4611,-84,123,1,0,0,response7disk_5,2,6,1,0,0,rectangle_8,2,6,1,0,0,1,2,6,1,0,0,6,0,6,0,1,,,,,,,,,,,,,,,,,,,,,,,,,,,,,,,,,,,,,,,,,,,,,,,,,,,,,,,,,,,,,,,,,,,,,,,,,,,,,,,,,,,,,,,,,,,,,,,,
,,,,,,614f7d1a2eef4c845cbc7845,629c51d3c1d8502456d3cc3e,2022-06-05_01h46.21.454,Colour_Asymmetry_Pilot,2022.1.3,Win32,71.99424046,629c4b6caf241d5e6e00bfc0,,,,,,,,,,,,,,,,,,,,onetwo,,-4,2.8633,,,,,,,,,,,,,,,,,,,,,,,,,,,,,,,,space,5.0089,"[0.9372,0.9450000000000001,0.8980000000000001]","[0.12939999999999996,-0.2864,0.3253999999999999]",-64,131,1,0,0,response7disk,-20,10,1,0,0,rectangle,-20,10,1,0,0,,3,0.0008,0,-20,10,1,0,0,0,0,0,102,1,21,second,,,,,,,,,,,,,,,,,,,,,,,,,,,,,,,,,,,,,,,,,,,,,,,,,,,,,,,,
,,,,,,614f7d1a2eef4c845cbc7845,629c51d3c1d8502456d3cc3e,2022-06-05_01h46.21.454,Colour_Asymmetry_Pilot,2022.1.3,Win32,71.99424046,629c4b6caf241d5e6e00bfc0,,,,,,,,,,,,,,,,,,,,threeone,,-2,3.621,,,,,,,,,,,,,,,,,,,,,,,,,,,,,,,,,,"[1,0.12939999999999996,-1]","[0.05879999999999996,0.2784,0.5841999999999998]",-109,-49,1,0,0,response5disk,-7,2,1,0,0,rectangle,-7,2,1,0,0,,1,0.0004,0,-7,2,1,0,0,0,1,1,139,1,58,second,,,,,,,,,,,,,,,,,,,,,,,,,,,,,,,,,,,,,,,,,,,,,,,,,,,,,,,,
,,,,,,614f7d1a2eef4c845cbc7845,629c51d3c1d8502456d3cc3e,2022-06-05_01h46.21.454,Colour_Asymmetry_Pilot,2022.1.3,Win32,71.99424046,629c4b6caf241d5e6e00bfc0,,,,,,,,,,,,,,,,,,,,twoone,,-3,2.5591,,,,,,,,,,,,,,,,,,,,,,,,,,,,,,,,,,"[-0.38039999999999996,-0.4276,-0.1452]","[0.37240000000000006,-0.050999999999999934,-0.5216]",-139,52,1,0,0,response7disk,-1,-11,1,0,0,rectangle,-1,-11,1,0,0,,3,0.0004,0,-1,-11,1,0,0,0,2,2,12,1,12,first,,,,,,,,,,,,,,,,,,,,,,,,,,,,,,,,,,,,,,,,,,,,,,,,,,,,,,,,
,,,,,,614f7d1a2eef4c845cbc7845,629c51d3c1d8502456d3cc3e,2022-06-05_01h46.21.454,Colour_Asymmetry_Pilot,2022.1.3,Win32,71.99424046,629c4b6caf241d5e6e00bfc0,,,,,,,,,,,,,,,,,,,,twoone,,-3,1.4857,,,,,,,,,,,,,,,,,,,,,,,,,,,,,,,,,,"[0.9372,0.9450000000000001,0.8980000000000001]","[0.04299999999999993,0.16060000000000008,-0.6628000000000001]",-109,46,1,0,0,response7disk,-25,2,1,0,0,rectangle,-25,2,1,0,0,,2,0.0008,0,-25,2,1,0,0,0,3,3,150,1,69,second,,,,,,,,,,,,,,,,,,,,,,,,,,,,,,,,,,,,,,,,,,,,,,,,,,,,,,,,
,,,,,,614f7d1a2eef4c845cbc7845,629c51d3c1d8502456d3cc3e,2022-06-05_01h46.21.454,Colour_Asymmetry_Pilot,2022.1.3,Win32,71.99424046,629c4b6caf241d5e6e00bfc0,,,,,,,,,,,,,,,,,,,,fourtwo,,-2,3.9473,,,,,,,,,,,,,,,,,,,,,,,,,,,,,,,,,,"[-0.45899999999999996,-0.3256,-0.9374]","[0.34099999999999997,0.12939999999999996,-0.9766]",-103,-58,1,0,0,response5disk,-24,12,1,0,0,rectangle,-24,12,1,0,0,,3,0.0005,0,-24,12,1,0,0,0,4,4,42,1,42,first,,,,,,,,,,,,,,,,,,,,,,,,,,,,,,,,,,,,,,,,,,,,,,,,,,,,,,,,
,,,,,,614f7d1a2eef4c845cbc7845,629c51d3c1d8502456d3cc3e,2022-06-05_01h46.21.454,Colour_Asymmetry_Pilot,2022.1.3,Win32,71.99424046,629c4b6caf241d5e6e00bfc0,,,,,,,,,,,,,,,,,,,,onetwo,,-2,1.0757,,,,,,,,,,,,,,,,,,,,,,,,,,,,,,,,,,"[0.34099999999999997,0.12939999999999996,-0.9766]","[-0.45899999999999996,-0.3256,-0.9374]",-108,-54,1,0,0,response5disk,-25,-14,1,0,0,rectangle,-25,-14,1,0,0,,1,0.0004,0,-25,-14,1,0,0,0,5,5,123,1,42,second,,,,,,,,,,,,,,,,,,,,,,,,,,,,,,,,,,,,,,,,,,,,,,,,,,,,,,,,
,,,,,,614f7d1a2eef4c845cbc7845,629c51d3c1d8502456d3cc3e,2022-06-05_01h46.21.454,Colour_Asymmetry_Pilot,2022.1.3,Win32,71.99424046,629c4b6caf241d5e6e00bfc0,,,,,,,,,,,,,,,,,,,,threefour,,-4,1.0604,,,,,,,,,,,,,,,,,,,,,,,,,,,,,,,,,,"[-0.5688,-0.08239999999999992,-0.1844]","[0.7176,-0.906,-0.6864]",-68,94,1,0,0,response7disk,-7,-1,1,0,0,rectangle,116,55,1,0,0,3,3,3.6453,1,12,4,1,0,0,0,6,6,136,1,55,second,response1disk_3,rectangle,,,,,,,,,,,,,,,,,,,,,,,,,,,,,,,,,,,,,,,,,,,,,,,,,,,,,,
,,,,,,614f7d1a2eef4c845cbc7845,629c51d3c1d8502456d3cc3e,2022-06-05_01h46.21.454,Colour_Asymmetry_Pilot,2022.1.3,Win32,71.99424046,629c4b6caf241d5e6e00bfc0,,,,,,,,,,,,,,,,,,,,twofour,,1,1.9126,,,,,,,,,,,,,,,,,,,,,,,,,,,,,,,,,,"[0.8274000000000001,-0.5844,-0.9452]","[0.9763999999999999,0.30979999999999985,-0.6786]",60,-137,1,0,0,response3disk,2,-11,1,0,0,rectangle,2,-11,1,0,0,3,2,0.0005,0,2,-11,1,0,0,0,7,7,143,1,62,second,,,,,,,,,,,,,,,,,,,,,,,,,,,,,,,,,,,,,,,,,,,,,,,,,,,,,,,,
,,,,,,614f7d1a2eef4c845cbc7845,629c51d3c1d8502456d3cc3e,2022-06-05_01h46.21.454,Colour_Asymmetry_Pilot,2022.1.3,Win32,71.99424046,629c4b6caf241d5e6e00bfc0,,,,,,,,,,,,,,,,,,,,threeone,,-2,4.4233,,,,,,,,,,,,,,,,,,,,,,,,,,,,,,,,,,"[-0.10599999999999998,-0.15300000000000002,0.15280000000000005]","[0.7646000000000002,0.07440000000000002,0.2704]",-90,-71,1,0,0,response5disk,-1,2,1,0,0,rectangle,-1,2,1,0,0,3,2,0.0002,0,-1,2,1,0,0,0,8,8,137,1,56,second,,,,,,,,,,,,,,,,,,,,,,,,,,,,,,,,,,,,,,,,,,,,,,,,,,,,,,,,
,,,,,,614f7d1a2eef4c845cbc7845,629c51d3c1d8502456d3cc3e,2022-06-05_01h46.21.454,Colour_Asymmetry_Pilot,2022.1.3,Win32,71.99424046,629c4b6caf241d5e6e00bfc0,,,,,,,,,,,,,,,,,,,,threeone,,-4,2.0174,,,,,,,,,,,,,,,,,,,,,,,,,,,,,,,,,,"[-0.011800000000000033,-0.906,-0.45100000000000007]","[-0.24719999999999998,0.5213999999999999,-0.12959999999999994]",-65,142,1,0,0,response7disk,-10,-5,1,0,0,rectangle,-10,-5,1,0,0,3,2,0.0001,0,-10,-5,1,0,0,0,9,9,57,1,57,first,,,,,,,,,,,,,,,,,,,,,,,,,,,,,,,,,,,,,,,,,,,,,,,,,,,,,,,,
,,,,,,614f7d1a2eef4c845cbc7845,629c51d3c1d8502456d3cc3e,2022-06-05_01h46.21.454,Colour_Asymmetry_Pilot,2022.1.3,Win32,71.99424046,629c4b6caf241d5e6e00bfc0,,,,,,,,,,,,,,,,,,,,threefour,,3,1.1518,,,,,,,,,,,,,,,,,,,,,,,,,,,,,,,,,,"[0.9763999999999999,0.8588,-0.05900000000000005]","[0.7018,0.7802,-0.16079999999999994]",112,49,1,0,0,response1disk,-5,1,1,0,0,rectangle,-5,1,1,0,0,3,1,0.0005,0,-5,1,1,0,0,0,10,10,83,1,2,second,,,,,,,,,,,,,,,,,,,,,,,,,,,,,,,,,,,,,,,,,,,,,,,,,,,,,,,,
,,,,,,614f7d1a2eef4c845cbc7845,629c51d3c1d8502456d3cc3e,2022-06-05_01h46.21.454,Colour_Asymmetry_Pilot,2022.1.3,Win32,71.99424046,629c4b6caf241d5e6e00bfc0,,,,,,,,,,,,,,,,,,,,onetwo,,-4,3.0738,,,,,,,,,,,,,,,,,,,,,,,,,,,,,,,,,,"[0.9763999999999999,0.30979999999999985,-0.6786]","[-0.38039999999999996,-0.4276,-0.1452]",-64,100,1,0,0,response7disk,-19,-8,1,0,0,rectangle,-19,-8,1,0,0,3,1,0,0,-19,-8,1,0,0,0,11,11,33,1,33,first,,,,,,,,,,,,,,,,,,,,,,,,,,,,,,,,,,,,,,,,,,,,,,,,,,,,,,,,
,,,,,,614f7d1a2eef4c845cbc7845,629c51d3c1d8502456d3cc3e,2022-06-05_01h46.21.454,Colour_Asymmetry_Pilot,2022.1.3,Win32,71.99424046,629c4b6caf241d5e6e00bfc0,,,,,,,,,,,,,,,,,,,,onetwo,,-4,1.7018,,,,,,,,,,,,,,,,,,,,,,,,,,,,,,,,,,"[0.8115999999999999,-0.0040000000000000036,-0.09819999999999995]","[-0.9688,-0.38039999999999996,-0.41979999999999995]",-57,106,1,0,0,response7disk,-13,5,1,0,0,rectangle,-13,5,1,0,0,3,2,0.0004,0,-13,5,1,0,0,0,12,12,98,1,17,second,,,,,,,,,,,,,,,,,,,,,,,,,,,,,,,,,,,,,,,,,,,,,,,,,,,,,,,,
,,,,,,614f7d1a2eef4c845cbc7845,629c51d3c1d8502456d3cc3e,2022-06-05_01h46.21.454,Colour_Asymmetry_Pilot,2022.1.3,Win32,71.99424046,629c4b6caf241d5e6e00bfc0,,,,,,,,,,,,,,,,,,,,onethree,,2,0.824,,,,,,,,,,,,,,,,,,,,,,,,,,,,,,,,,,"[0.11359999999999992,0.6312,0.5213999999999999]","[-0.6,0.16860000000000008,0.44300000000000006]",91,-42,1,0,0,response3disk,4,-2,1,0,0,rectangle,4,-2,1,0,0,3,3,0.0005,0,4,-2,1,0,0,0,13,13,16,1,16,first,,,,,,,,,,,,,,,,,,,,,,,,,,,,,,,,,,,,,,,,,,,,,,,,,,,,,,,,
,,,,,,614f7d1a2eef4c845cbc7845,629c51d3c1d8502456d3cc3e,2022-06-05_01h46.21.454,Colour_Asymmetry_Pilot,2022.1.3,Win32,71.99424046,629c4b6caf241d5e6e00bfc0,,,,,,,,,,,,,,,,,,,,fourthree,,-1,1.0075,,,,,,,,,,,,,,,,,,,,,,,,,,,,,,,,,,"[-0.06680000000000008,-0.45100000000000007,-0.906]","[-0.10599999999999998,-0.15300000000000002,0.15280000000000005]",-75,-106,1,0,0,response5disk,0,0,1,0,0,rectangle,0,0,1,0,0,3,2,0.0005,0,0,0,1,0,0,0,14,14,105,1,24,second,,,,,,,,,,,,,,,,,,,,,,,,,,,,,,,,,,,,,,,,,,,,,,,,,,,,,,,,
,,,,,,614f7d1a2eef4c845cbc7845,629c51d3c1d8502456d3cc3e,2022-06-05_01h46.21.454,Colour_Asymmetry_Pilot,2022.1.3,Win32,71.99424046,629c4b6caf241d5e6e00bfc0,,,,,,,,,,,,,,,,,,,,threeone,,2,1.0236,,,,,,,,,,,,,,,,,,,,,,,,,,,,,,,,,,"[-0.01980000000000004,-0.5138,-0.38039999999999996]","[0.23120000000000007,-0.7726,-0.34120000000000006]",80,-50,1,0,0,response3disk,0,3,1,0,0,rectangle,0,3,1,0,0,3,3,0.0005,0,0,3,1,0,0,0,15,15,82,1,1,second,,,,,,,,,,,,,,,,,,,,,,,,,,,,,,,,,,,,,,,,,,,,,,,,,,,,,,,,
,,,,,,614f7d1a2eef4c845cbc7845,629c51d3c1d8502456d3cc3e,2022-06-05_01h46.21.454,Colour_Asymmetry_Pilot,2022.1.3,Win32,71.99424046,629c4b6caf241d5e6e00bfc0,,,,,,,,,,,,,,,,,,,,threefour,,-3,0.6013,,,,,,,,,,,,,,,,,,,,,,,,,,,,,,,,,,"[0.23920000000000008,0.2704,0.16060000000000008]","[-0.9688,-0.4902000000000001,-0.12159999999999993]",-129,53,1,0,0,response7disk,-4,-9,1,0,0,rectangle,-4,-9,1,0,0,3,1,0.0005,0,-4,-9,1,0,0,0,16,16,89,1,8,second,,,,,,,,,,,,,,,,,,,,,,,,,,,,,,,,,,,,,,,,,,,,,,,,,,,,,,,,
,,,,,,614f7d1a2eef4c845cbc7845,629c51d3c1d8502456d3cc3e,2022-06-05_01h46.21.454,Colour_Asymmetry_Pilot,2022.1.3,Win32,71.99424046,629c4b6caf241d5e6e00bfc0,,,,,,,,,,,,,,,,,,,,onetwo,,-4,0.7568,,,,,,,,,,,,,,,,,,,,,,,,,,,,,,,,,,"[0.9372,0.9450000000000001,0.8980000000000001]","[-0.6942,-0.7648,-0.12959999999999994]",-71,145,1,0,0,response7disk,6,-7,1,0,0,rectangle,6,-7,1,0,0,3,2,0.0004,0,6,-7,1,0,0,0,17,17,63,1,63,first,,,,,,,,,,,,,,,,,,,,,,,,,,,,,,,,,,,,,,,,,,,,,,,,,,,,,,,,
,,,,,,614f7d1a2eef4c845cbc7845,629c51d3c1d8502456d3cc3e,2022-06-05_01h46.21.454,Colour_Asymmetry_Pilot,2022.1.3,Win32,71.99424046,629c4b6caf241d5e6e00bfc0,,,,,,,,,,,,,,,,,,,,fourthree,,-3,1.8187,,,,,,,,,,,,,,,,,,,,,,,,,,,,,,,,,,"[-0.6,0.16860000000000008,0.44300000000000006]","[0.37240000000000006,0.4980000000000002,-0.2864]",-98,44,1,0,0,response7disk,-1,-10,1,0,0,rectangle,-1,-10,1,0,0,3,1,0.0004,0,-1,-10,1,0,0,0,18,18,52,1,52,first,,,,,,,,,,,,,,,,,,,,,,,,,,,,,,,,,,,,,,,,,,,,,,,,,,,,,,,,
,,,,,,614f7d1a2eef4c845cbc7845,629c51d3c1d8502456d3cc3e,2022-06-05_01h46.21.454,Colour_Asymmetry_Pilot,2022.1.3,Win32,71.99424046,629c4b6caf241d5e6e00bfc0,,,,,,,,,,,,,,,,,,,,fourthree,,-3,1.6629,,,,,,,,,,,,,,,,,,,,,,,,,,,,,,,,,,"[-0.9688,-0.38039999999999996,-0.41979999999999995]","[0.30180000000000007,-0.7884,-0.9844]",-120,65,1,0,0,response7disk,-12,0,1,0,0,rectangle,-12,0,1,0,0,3,1,0.0008,0,-12,0,1,0,0,0,19,19,14,1,14,first,,,,,,,,,,,,,,,,,,,,,,,,,,,,,,,,,,,,,,,,,,,,,,,,,,,,,,,,
,,,,,,614f7d1a2eef4c845cbc7845,629c51d3c1d8502456d3cc3e,2022-06-05_01h46.21.454,Colour_Asymmetry_Pilot,2022.1.3,Win32,71.99424046,629c4b6caf241d5e6e00bfc0,,,,,,,,,,,,,,,,,,,,twofour,,-3,0.6794,,,,,,,,,,,,,,,,,,,,,,,,,,,,,,,,,,"[-0.38039999999999996,-0.4276,-0.1452]","[0.9763999999999999,0.30979999999999985,-0.6786]",-89,55,1,0,0,response7disk,-6,-1,1,0,0,rectangle,-6,-1,1,0,0,3,1,0.0002,0,-6,-1,1,0,0,0,20,20,114,1,33,second,,,,,,,,,,,,,,,,,,,,,,,,,,,,,,,,,,,,,,,,,,,,,,,,,,,,,,,,
,,,,,,614f7d1a2eef4c845cbc7845,629c51d3c1d8502456d3cc3e,2022-06-05_01h46.21.454,Colour_Asymmetry_Pilot,2022.1.3,Win32,71.99424046,629c4b6caf241d5e6e00bfc0,,,,,,,,,,,,,,,,,,,,onetwo,,1,0.925,,,,,,,,,,,,,,,,,,,,,,,,,,,,,,,,,,"[0.40379999999999994,0.09000000000000008,0.44300000000000006]","[0.23120000000000007,-0.7726,-0.34120000000000006]",45,-84,1,0,0,response3disk,-12,17,1,0,0,rectangle,-12,17,1,0,0,3,2,0.0005,0,-12,17,1,0,0,0,21,21,20,1,20,first,,,,,,,,,,,,,,,,,,,,,,,,,,,,,,,,,,,,,,,,,,,,,,,,,,,,,,,,
,,,,,,614f7d1a2eef4c845cbc7845,629c51d3c1d8502456d3cc3e,2022-06-05_01h46.21.454,Colour_Asymmetry_Pilot,2022.1.3,Win32,71.99424046,629c4b6caf241d5e6e00bfc0,,,,,,,,,,,,,,,,,,,,fourtwo,,-3,1.2536,,,,,,,,,,,,,,,,,,,,,,,,,,,,,,,,,,"[0.34099999999999997,0.5841999999999998,-0.9844]","[0.19199999999999995,0.18419999999999992,0.5136000000000001]",-120,50,1,0,0,response7disk,-2,-5,1,0,0,rectangle,-2,-5,1,0,0,3,1,0.0003,0,-2,-5,1,0,0,0,22,22,26,1,26,first,,,,,,,,,,,,,,,,,,,,,,,,,,,,,,,,,,,,,,,,,,,,,,,,,,,,,,,,
,,,,,,614f7d1a2eef4c845cbc7845,629c51d3c1d8502456d3cc3e,2022-06-05_01h46.21.454,Colour_Asymmetry_Pilot,2022.1.3,Win32,71.99424046,629c4b6caf241d5e6e00bfc0,,,,,,,,,,,,,,,,,,,,threefour,,-3,0.8546,,,,,,,,,,,,,,,,,,,,,,,,,,,,,,,,,,"[-0.9766,-0.6472,0.07440000000000002]","[0.34099999999999997,0.5841999999999998,-0.9844]",-118,46,1,0,0,response7disk,-8,-7,1,0,0,rectangle,-8,-7,1,0,0,3,1,0.0002,0,-8,-7,1,0,0,0,23,23,4,1,4,first,,,,,,,,,,,,,,,,,,,,,,,,,,,,,,,,,,,,,,,,,,,,,,,,,,,,,,,,
,,,,,,614f7d1a2eef4c845cbc7845,629c51d3c1d8502456d3cc3e,2022-06-05_01h46.21.454,Colour_Asymmetry_Pilot,2022.1.3,Win32,71.99424046,629c4b6caf241d5e6e00bfc0,,,,,,,,,,,,,,,,,,,,fourthree,,1,1.369,,,,,,,,,,,,,,,,,,,,,,,,,,,,,,,,,,"[-0.17659999999999998,0.3253999999999999,0.19999999999999996]","[-0.4902000000000001,0.2704,-0.45899999999999996]",37,-101,1,0,0,response3disk,-13,6,1,0,0,rectangle,-13,6,1,0,0,3,3,0.0006,0,-13,6,1,0,0,0,24,24,124,1,43,second,,,,,,,,,,,,,,,,,,,,,,,,,,,,,,,,,,,,,,,,,,,,,,,,,,,,,,,,
,,,,,,614f7d1a2eef4c845cbc7845,629c51d3c1d8502456d3cc3e,2022-06-05_01h46.21.454,Colour_Asymmetry_Pilot,2022.1.3,Win32,71.99424046,629c4b6caf241d5e6e00bfc0,,,,,,,,,,,,,,,,,,,,threefour,,-3,0.4931,,,,,,,,,,,,,,,,,,,,,,,,,,,,,,,,,,"[-0.26280000000000003,-0.4746,-0.2158]","[-0.07459999999999989,0.12139999999999995,-0.9922]",-76,75,1,0,0,response7disk,-4,-1,1,0,0,rectangle,-4,-1,1,0,0,3,2,0.0005,0,-4,-1,1,0,0,0,25,25,77,1,77,first,,,,,,,,,,,,,,,,,,,,,,,,,,,,,,,,,,,,,,,,,,,,,,,,,,,,,,,,
,,,,,,614f7d1a2eef4c845cbc7845,629c51d3c1d8502456d3cc3e,2022-06-05_01h46.21.454,Colour_Asymmetry_Pilot,2022.1.3,Win32,71.99424046,629c4b6caf241d5e6e00bfc0,,,,,,,,,,,,,,,,,,,,twoone,,1,0.5811,,,,,,,,,,,,,,,,,,,,,,,,,,,,,,,,,,"[-0.4902000000000001,0.2704,-0.45899999999999996]","[-0.17659999999999998,0.3253999999999999,0.19999999999999996]",56,-112,1,0,0,response3disk,-9,-5,1,0,0,rectangle,-9,-5,1,0,0,3,3,0.0004,0,-9,-5,1,0,0,0,26,26,43,1,43,first,,,,,,,,,,,,,,,,,,,,,,,,,,,,,,,,,,,,,,,,,,,,,,,,,,,,,,,,
