trials.thisRepN,trials.thisTrialN,trials.thisN,trials.thisIndex,trials.ran,Colourcodes,participant,session,date,expName,psychopyVersion,OS,frameRate,study_id,trials_4.thisRepN,trials_4.thisTrialN,trials_4.thisN,trials_4.thisIndex,trials_4.ran,StimulusPos,key_resp.keys,key_resp.rt,key_resp_2.keys,key_resp_2.rt,key_resp_15.keys,key_resp_15.rt,key_resp_17.keys,key_resp_17.rt,key_resp_9.keys,key_resp_9.rt,key_resp_10.keys,key_resp_10.rt,Circle1_col,Ecc,Circle2_col,similarity,response_time,mouse_5.x,mouse_5.y,mouse_5.leftButton,mouse_5.midButton,mouse_5.rightButton,mouse_5.clicked_name,mouse_10.x,mouse_10.y,mouse_10.leftButton,mouse_10.midButton,mouse_10.rightButton,mouse_10.clicked_name,mouse_7.x,mouse_7.y,mouse_7.leftButton,mouse_7.midButton,mouse_7.rightButton,catchnumberprac,mouse_6.x,mouse_6.y,mouse_6.leftButton,mouse_6.midButton,mouse_6.rightButton,duringprac.thisRepN,duringprac.thisTrialN,duringprac.thisN,duringprac.thisIndex,duringprac.ran,mouse_7.clicked_name,catchprac,mouse_6.clicked_name,key_resp_22.keys,key_resp_22.rt,Circle1_colour,Circle2_colour,mouse.x,mouse.y,mouse.leftButton,mouse.midButton,mouse.rightButton,mouse.clicked_name,mouse_2.x,mouse_2.y,mouse_2.leftButton,mouse_2.midButton,mouse_2.rightButton,mouse_2.clicked_name,mouse_3.x,mouse_3.y,mouse_3.leftButton,mouse_3.midButton,mouse_3.rightButton,catchresponse,catchnumber,response_time_catch,Catch,mouse_11.x,mouse_11.y,mouse_11.leftButton,mouse_11.midButton,mouse_11.rightButton,trials_2.thisRepN,trials_2.thisTrialN,trials_2.thisN,trials_2.thisIndex,trials_2.ran,Colourpair,Temporder,mouse_3.clicked_name,mouse_11.clicked_name,trials_3.thisRepN,trials_3.thisTrialN,trials_3.thisN,trials_3.thisIndex,trials_3.ran,textbox.text,mouse_4.x,mouse_4.y,mouse_4.leftButton,mouse_4.midButton,mouse_4.rightButton,mouse_4.clicked_name,textbox_2.text,mouse_8.x,mouse_8.y,mouse_8.leftButton,mouse_8.midButton,mouse_8.rightButton,mouse_8.clicked_name,textbox_3.text,mouse_9.x,mouse_9.y,mouse_9.leftButton,mouse_9.midButton,mouse_9.rightButton,mouse_9.clicked_name,textbox_4.text,mouse_12.x,mouse_12.y,mouse_12.leftButton,mouse_12.midButton,mouse_12.rightButton,mouse_12.clicked_name,textbox_5.text,mouse_13.x,mouse_13.y,mouse_13.leftButton,mouse_13.midButton,mouse_13.rightButton,mouse_13.clicked_name,textbox_6.text,mouse_14.x,mouse_14.y,mouse_14.leftButton,mouse_14.midButton,mouse_14.rightButton,mouse_14.clicked_name,textbox_7.text,mouse_15.x,mouse_15.y,mouse_15.leftButton,mouse_15.midButton,mouse_15.rightButton,mouse_15.clicked_name
0,0,0,82,1,,603953e7302d0728f1519ad7,629c51b733f83b5dbddc8598,2022-06-05_08h49.53.648,Colour_Asymmetry_Pilot,2022.1.3,Win32,119.6601651,629c4b6caf241d5e6e00bfc0,,,,,,,,,,,,,,,,,,,,,,,,,,,,,,,,,,,,,,,,,,,,,,,,,,,,,,,,,,,,,,,,,,,,,,,,,,,,,,,,,,,,,,,,,,,,,,,,,,,,,,,,,,,,,,,,,,,,,,,,,,,,,,,,,,,,,,,,,,,,,,,,,,,
0,1,1,31,1,,603953e7302d0728f1519ad7,629c51b733f83b5dbddc8598,2022-06-05_08h49.53.648,Colour_Asymmetry_Pilot,2022.1.3,Win32,119.6601651,629c4b6caf241d5e6e00bfc0,,,,,,,,,,,,,,,,,,,,,,,,,,,,,,,,,,,,,,,,,,,,,,,,,,,,,,,,,,,,,,,,,,,,,,,,,,,,,,,,,,,,,,,,,,,,,,,,,,,,,,,,,,,,,,,,,,,,,,,,,,,,,,,,,,,,,,,,,,,,,,,,,,,
0,2,2,1,1,,603953e7302d0728f1519ad7,629c51b733f83b5dbddc8598,2022-06-05_08h49.53.648,Colour_Asymmetry_Pilot,2022.1.3,Win32,119.6601651,629c4b6caf241d5e6e00bfc0,,,,,,,,,,,,,,,,,,,,,,,,,,,,,,,,,,,,,,,,,,,,,,,,,,,,,,,,,,,,,,,,,,,,,,,,,,,,,,,,,,,,,,,,,,,,,,,,,,,,,,,,,,,,,,,,,,,,,,,,,,,,,,,,,,,,,,,,,,,,,,,,,,,
0,3,3,70,1,,603953e7302d0728f1519ad7,629c51b733f83b5dbddc8598,2022-06-05_08h49.53.648,Colour_Asymmetry_Pilot,2022.1.3,Win32,119.6601651,629c4b6caf241d5e6e00bfc0,,,,,,,,,,,,,,,,,,,,,,,,,,,,,,,,,,,,,,,,,,,,,,,,,,,,,,,,,,,,,,,,,,,,,,,,,,,,,,,,,,,,,,,,,,,,,,,,,,,,,,,,,,,,,,,,,,,,,,,,,,,,,,,,,,,,,,,,,,,,,,,,,,,
0,4,4,45,1,,603953e7302d0728f1519ad7,629c51b733f83b5dbddc8598,2022-06-05_08h49.53.648,Colour_Asymmetry_Pilot,2022.1.3,Win32,119.6601651,629c4b6caf241d5e6e00bfc0,,,,,,,,,,,,,,,,,,,,,,,,,,,,,,,,,,,,,,,,,,,,,,,,,,,,,,,,,,,,,,,,,,,,,,,,,,,,,,,,,,,,,,,,,,,,,,,,,,,,,,,,,,,,,,,,,,,,,,,,,,,,,,,,,,,,,,,,,,,,,,,,,,,
0,5,5,78,1,,603953e7302d0728f1519ad7,629c51b733f83b5dbddc8598,2022-06-05_08h49.53.648,Colour_Asymmetry_Pilot,2022.1.3,Win32,119.6601651,629c4b6caf241d5e6e00bfc0,,,,,,,,,,,,,,,,,,,,,,,,,,,,,,,,,,,,,,,,,,,,,,,,,,,,,,,,,,,,,,,,,,,,,,,,,,,,,,,,,,,,,,,,,,,,,,,,,,,,,,,,,,,,,,,,,,,,,,,,,,,,,,,,,,,,,,,,,,,,,,,,,,,
0,6,6,88,1,,603953e7302d0728f1519ad7,629c51b733f83b5dbddc8598,2022-06-05_08h49.53.648,Colour_Asymmetry_Pilot,2022.1.3,Win32,119.6601651,629c4b6caf241d5e6e00bfc0,,,,,,,,,,,,,,,,,,,,,,,,,,,,,,,,,,,,,,,,,,,,,,,,,,,,,,,,,,,,,,,,,,,,,,,,,,,,,,,,,,,,,,,,,,,,,,,,,,,,,,,,,,,,,,,,,,,,,,,,,,,,,,,,,,,,,,,,,,,,,,,,,,,
0,7,7,67,1,,603953e7302d0728f1519ad7,629c51b733f83b5dbddc8598,2022-06-05_08h49.53.648,Colour_Asymmetry_Pilot,2022.1.3,Win32,119.6601651,629c4b6caf241d5e6e00bfc0,,,,,,,,,,,,,,,,,,,,,,,,,,,,,,,,,,,,,,,,,,,,,,,,,,,,,,,,,,,,,,,,,,,,,,,,,,,,,,,,,,,,,,,,,,,,,,,,,,,,,,,,,,,,,,,,,,,,,,,,,,,,,,,,,,,,,,,,,,,,,,,,,,,
0,8,8,59,1,,603953e7302d0728f1519ad7,629c51b733f83b5dbddc8598,2022-06-05_08h49.53.648,Colour_Asymmetry_Pilot,2022.1.3,Win32,119.6601651,629c4b6caf241d5e6e00bfc0,,,,,,,,,,,,,,,,,,,,,,,,,,,,,,,,,,,,,,,,,,,,,,,,,,,,,,,,,,,,,,,,,,,,,,,,,,,,,,,,,,,,,,,,,,,,,,,,,,,,,,,,,,,,,,,,,,,,,,,,,,,,,,,,,,,,,,,,,,,,,,,,,,,
0,9,9,92,1,,603953e7302d0728f1519ad7,629c51b733f83b5dbddc8598,2022-06-05_08h49.53.648,Colour_Asymmetry_Pilot,2022.1.3,Win32,119.6601651,629c4b6caf241d5e6e00bfc0,,,,,,,,,,,,,,,,,,,,,,,,,,,,,,,,,,,,,,,,,,,,,,,,,,,,,,,,,,,,,,,,,,,,,,,,,,,,,,,,,,,,,,,,,,,,,,,,,,,,,,,,,,,,,,,,,,,,,,,,,,,,,,,,,,,,,,,,,,,,,,,,,,,
0,10,10,46,1,,603953e7302d0728f1519ad7,629c51b733f83b5dbddc8598,2022-06-05_08h49.53.648,Colour_Asymmetry_Pilot,2022.1.3,Win32,119.6601651,629c4b6caf241d5e6e00bfc0,,,,,,,,,,,,,,,,,,,,,,,,,,,,,,,,,,,,,,,,,,,,,,,,,,,,,,,,,,,,,,,,,,,,,,,,,,,,,,,,,,,,,,,,,,,,,,,,,,,,,,,,,,,,,,,,,,,,,,,,,,,,,,,,,,,,,,,,,,,,,,,,,,,
0,11,11,63,1,,603953e7302d0728f1519ad7,629c51b733f83b5dbddc8598,2022-06-05_08h49.53.648,Colour_Asymmetry_Pilot,2022.1.3,Win32,119.6601651,629c4b6caf241d5e6e00bfc0,,,,,,,,,,,,,,,,,,,,,,,,,,,,,,,,,,,,,,,,,,,,,,,,,,,,,,,,,,,,,,,,,,,,,,,,,,,,,,,,,,,,,,,,,,,,,,,,,,,,,,,,,,,,,,,,,,,,,,,,,,,,,,,,,,,,,,,,,,,,,,,,,,,
0,12,12,11,1,,603953e7302d0728f1519ad7,629c51b733f83b5dbddc8598,2022-06-05_08h49.53.648,Colour_Asymmetry_Pilot,2022.1.3,Win32,119.6601651,629c4b6caf241d5e6e00bfc0,,,,,,,,,,,,,,,,,,,,,,,,,,,,,,,,,,,,,,,,,,,,,,,,,,,,,,,,,,,,,,,,,,,,,,,,,,,,,,,,,,,,,,,,,,,,,,,,,,,,,,,,,,,,,,,,,,,,,,,,,,,,,,,,,,,,,,,,,,,,,,,,,,,
0,13,13,83,1,,603953e7302d0728f1519ad7,629c51b733f83b5dbddc8598,2022-06-05_08h49.53.648,Colour_Asymmetry_Pilot,2022.1.3,Win32,119.6601651,629c4b6caf241d5e6e00bfc0,,,,,,,,,,,,,,,,,,,,,,,,,,,,,,,,,,,,,,,,,,,,,,,,,,,,,,,,,,,,,,,,,,,,,,,,,,,,,,,,,,,,,,,,,,,,,,,,,,,,,,,,,,,,,,,,,,,,,,,,,,,,,,,,,,,,,,,,,,,,,,,,,,,
0,14,14,13,1,,603953e7302d0728f1519ad7,629c51b733f83b5dbddc8598,2022-06-05_08h49.53.648,Colour_Asymmetry_Pilot,2022.1.3,Win32,119.6601651,629c4b6caf241d5e6e00bfc0,,,,,,,,,,,,,,,,,,,,,,,,,,,,,,,,,,,,,,,,,,,,,,,,,,,,,,,,,,,,,,,,,,,,,,,,,,,,,,,,,,,,,,,,,,,,,,,,,,,,,,,,,,,,,,,,,,,,,,,,,,,,,,,,,,,,,,,,,,,,,,,,,,,
0,15,15,60,1,,603953e7302d0728f1519ad7,629c51b733f83b5dbddc8598,2022-06-05_08h49.53.648,Colour_Asymmetry_Pilot,2022.1.3,Win32,119.6601651,629c4b6caf241d5e6e00bfc0,,,,,,,,,,,,,,,,,,,,,,,,,,,,,,,,,,,,,,,,,,,,,,,,,,,,,,,,,,,,,,,,,,,,,,,,,,,,,,,,,,,,,,,,,,,,,,,,,,,,,,,,,,,,,,,,,,,,,,,,,,,,,,,,,,,,,,,,,,,,,,,,,,,
0,16,16,9,1,,603953e7302d0728f1519ad7,629c51b733f83b5dbddc8598,2022-06-05_08h49.53.648,Colour_Asymmetry_Pilot,2022.1.3,Win32,119.6601651,629c4b6caf241d5e6e00bfc0,,,,,,,,,,,,,,,,,,,,,,,,,,,,,,,,,,,,,,,,,,,,,,,,,,,,,,,,,,,,,,,,,,,,,,,,,,,,,,,,,,,,,,,,,,,,,,,,,,,,,,,,,,,,,,,,,,,,,,,,,,,,,,,,,,,,,,,,,,,,,,,,,,,
0,17,17,86,1,,603953e7302d0728f1519ad7,629c51b733f83b5dbddc8598,2022-06-05_08h49.53.648,Colour_Asymmetry_Pilot,2022.1.3,Win32,119.6601651,629c4b6caf241d5e6e00bfc0,,,,,,,,,,,,,,,,,,,,,,,,,,,,,,,,,,,,,,,,,,,,,,,,,,,,,,,,,,,,,,,,,,,,,,,,,,,,,,,,,,,,,,,,,,,,,,,,,,,,,,,,,,,,,,,,,,,,,,,,,,,,,,,,,,,,,,,,,,,,,,,,,,,
0,18,18,65,1,,603953e7302d0728f1519ad7,629c51b733f83b5dbddc8598,2022-06-05_08h49.53.648,Colour_Asymmetry_Pilot,2022.1.3,Win32,119.6601651,629c4b6caf241d5e6e00bfc0,,,,,,,,,,,,,,,,,,,,,,,,,,,,,,,,,,,,,,,,,,,,,,,,,,,,,,,,,,,,,,,,,,,,,,,,,,,,,,,,,,,,,,,,,,,,,,,,,,,,,,,,,,,,,,,,,,,,,,,,,,,,,,,,,,,,,,,,,,,,,,,,,,,
0,19,19,22,1,,603953e7302d0728f1519ad7,629c51b733f83b5dbddc8598,2022-06-05_08h49.53.648,Colour_Asymmetry_Pilot,2022.1.3,Win32,119.6601651,629c4b6caf241d5e6e00bfc0,,,,,,,,,,,,,,,,,,,,,,,,,,,,,,,,,,,,,,,,,,,,,,,,,,,,,,,,,,,,,,,,,,,,,,,,,,,,,,,,,,,,,,,,,,,,,,,,,,,,,,,,,,,,,,,,,,,,,,,,,,,,,,,,,,,,,,,,,,,,,,,,,,,
0,20,20,64,1,,603953e7302d0728f1519ad7,629c51b733f83b5dbddc8598,2022-06-05_08h49.53.648,Colour_Asymmetry_Pilot,2022.1.3,Win32,119.6601651,629c4b6caf241d5e6e00bfc0,,,,,,,,,,,,,,,,,,,,,,,,,,,,,,,,,,,,,,,,,,,,,,,,,,,,,,,,,,,,,,,,,,,,,,,,,,,,,,,,,,,,,,,,,,,,,,,,,,,,,,,,,,,,,,,,,,,,,,,,,,,,,,,,,,,,,,,,,,,,,,,,,,,
0,21,21,75,1,,603953e7302d0728f1519ad7,629c51b733f83b5dbddc8598,2022-06-05_08h49.53.648,Colour_Asymmetry_Pilot,2022.1.3,Win32,119.6601651,629c4b6caf241d5e6e00bfc0,,,,,,,,,,,,,,,,,,,,,,,,,,,,,,,,,,,,,,,,,,,,,,,,,,,,,,,,,,,,,,,,,,,,,,,,,,,,,,,,,,,,,,,,,,,,,,,,,,,,,,,,,,,,,,,,,,,,,,,,,,,,,,,,,,,,,,,,,,,,,,,,,,,
0,22,22,17,1,,603953e7302d0728f1519ad7,629c51b733f83b5dbddc8598,2022-06-05_08h49.53.648,Colour_Asymmetry_Pilot,2022.1.3,Win32,119.6601651,629c4b6caf241d5e6e00bfc0,,,,,,,,,,,,,,,,,,,,,,,,,,,,,,,,,,,,,,,,,,,,,,,,,,,,,,,,,,,,,,,,,,,,,,,,,,,,,,,,,,,,,,,,,,,,,,,,,,,,,,,,,,,,,,,,,,,,,,,,,,,,,,,,,,,,,,,,,,,,,,,,,,,
0,23,23,24,1,,603953e7302d0728f1519ad7,629c51b733f83b5dbddc8598,2022-06-05_08h49.53.648,Colour_Asymmetry_Pilot,2022.1.3,Win32,119.6601651,629c4b6caf241d5e6e00bfc0,,,,,,,,,,,,,,,,,,,,,,,,,,,,,,,,,,,,,,,,,,,,,,,,,,,,,,,,,,,,,,,,,,,,,,,,,,,,,,,,,,,,,,,,,,,,,,,,,,,,,,,,,,,,,,,,,,,,,,,,,,,,,,,,,,,,,,,,,,,,,,,,,,,
0,24,24,20,1,,603953e7302d0728f1519ad7,629c51b733f83b5dbddc8598,2022-06-05_08h49.53.648,Colour_Asymmetry_Pilot,2022.1.3,Win32,119.6601651,629c4b6caf241d5e6e00bfc0,,,,,,,,,,,,,,,,,,,,,,,,,,,,,,,,,,,,,,,,,,,,,,,,,,,,,,,,,,,,,,,,,,,,,,,,,,,,,,,,,,,,,,,,,,,,,,,,,,,,,,,,,,,,,,,,,,,,,,,,,,,,,,,,,,,,,,,,,,,,,,,,,,,
0,25,25,56,1,,603953e7302d0728f1519ad7,629c51b733f83b5dbddc8598,2022-06-05_08h49.53.648,Colour_Asymmetry_Pilot,2022.1.3,Win32,119.6601651,629c4b6caf241d5e6e00bfc0,,,,,,,,,,,,,,,,,,,,,,,,,,,,,,,,,,,,,,,,,,,,,,,,,,,,,,,,,,,,,,,,,,,,,,,,,,,,,,,,,,,,,,,,,,,,,,,,,,,,,,,,,,,,,,,,,,,,,,,,,,,,,,,,,,,,,,,,,,,,,,,,,,,
0,26,26,91,1,,603953e7302d0728f1519ad7,629c51b733f83b5dbddc8598,2022-06-05_08h49.53.648,Colour_Asymmetry_Pilot,2022.1.3,Win32,119.6601651,629c4b6caf241d5e6e00bfc0,,,,,,,,,,,,,,,,,,,,,,,,,,,,,,,,,,,,,,,,,,,,,,,,,,,,,,,,,,,,,,,,,,,,,,,,,,,,,,,,,,,,,,,,,,,,,,,,,,,,,,,,,,,,,,,,,,,,,,,,,,,,,,,,,,,,,,,,,,,,,,,,,,,
0,27,27,62,1,,603953e7302d0728f1519ad7,629c51b733f83b5dbddc8598,2022-06-05_08h49.53.648,Colour_Asymmetry_Pilot,2022.1.3,Win32,119.6601651,629c4b6caf241d5e6e00bfc0,,,,,,,,,,,,,,,,,,,,,,,,,,,,,,,,,,,,,,,,,,,,,,,,,,,,,,,,,,,,,,,,,,,,,,,,,,,,,,,,,,,,,,,,,,,,,,,,,,,,,,,,,,,,,,,,,,,,,,,,,,,,,,,,,,,,,,,,,,,,,,,,,,,
0,28,28,49,1,,603953e7302d0728f1519ad7,629c51b733f83b5dbddc8598,2022-06-05_08h49.53.648,Colour_Asymmetry_Pilot,2022.1.3,Win32,119.6601651,629c4b6caf241d5e6e00bfc0,,,,,,,,,,,,,,,,,,,,,,,,,,,,,,,,,,,,,,,,,,,,,,,,,,,,,,,,,,,,,,,,,,,,,,,,,,,,,,,,,,,,,,,,,,,,,,,,,,,,,,,,,,,,,,,,,,,,,,,,,,,,,,,,,,,,,,,,,,,,,,,,,,,
0,29,29,41,1,,603953e7302d0728f1519ad7,629c51b733f83b5dbddc8598,2022-06-05_08h49.53.648,Colour_Asymmetry_Pilot,2022.1.3,Win32,119.6601651,629c4b6caf241d5e6e00bfc0,,,,,,,,,,,,,,,,,,,,,,,,,,,,,,,,,,,,,,,,,,,,,,,,,,,,,,,,,,,,,,,,,,,,,,,,,,,,,,,,,,,,,,,,,,,,,,,,,,,,,,,,,,,,,,,,,,,,,,,,,,,,,,,,,,,,,,,,,,,,,,,,,,,
0,30,30,81,1,,603953e7302d0728f1519ad7,629c51b733f83b5dbddc8598,2022-06-05_08h49.53.648,Colour_Asymmetry_Pilot,2022.1.3,Win32,119.6601651,629c4b6caf241d5e6e00bfc0,,,,,,,,,,,,,,,,,,,,,,,,,,,,,,,,,,,,,,,,,,,,,,,,,,,,,,,,,,,,,,,,,,,,,,,,,,,,,,,,,,,,,,,,,,,,,,,,,,,,,,,,,,,,,,,,,,,,,,,,,,,,,,,,,,,,,,,,,,,,,,,,,,,
0,31,31,27,1,,603953e7302d0728f1519ad7,629c51b733f83b5dbddc8598,2022-06-05_08h49.53.648,Colour_Asymmetry_Pilot,2022.1.3,Win32,119.6601651,629c4b6caf241d5e6e00bfc0,,,,,,,,,,,,,,,,,,,,,,,,,,,,,,,,,,,,,,,,,,,,,,,,,,,,,,,,,,,,,,,,,,,,,,,,,,,,,,,,,,,,,,,,,,,,,,,,,,,,,,,,,,,,,,,,,,,,,,,,,,,,,,,,,,,,,,,,,,,,,,,,,,,
0,32,32,68,1,,603953e7302d0728f1519ad7,629c51b733f83b5dbddc8598,2022-06-05_08h49.53.648,Colour_Asymmetry_Pilot,2022.1.3,Win32,119.6601651,629c4b6caf241d5e6e00bfc0,,,,,,,,,,,,,,,,,,,,,,,,,,,,,,,,,,,,,,,,,,,,,,,,,,,,,,,,,,,,,,,,,,,,,,,,,,,,,,,,,,,,,,,,,,,,,,,,,,,,,,,,,,,,,,,,,,,,,,,,,,,,,,,,,,,,,,,,,,,,,,,,,,,
0,33,33,2,1,,603953e7302d0728f1519ad7,629c51b733f83b5dbddc8598,2022-06-05_08h49.53.648,Colour_Asymmetry_Pilot,2022.1.3,Win32,119.6601651,629c4b6caf241d5e6e00bfc0,,,,,,,,,,,,,,,,,,,,,,,,,,,,,,,,,,,,,,,,,,,,,,,,,,,,,,,,,,,,,,,,,,,,,,,,,,,,,,,,,,,,,,,,,,,,,,,,,,,,,,,,,,,,,,,,,,,,,,,,,,,,,,,,,,,,,,,,,,,,,,,,,,,
0,34,34,80,1,,603953e7302d0728f1519ad7,629c51b733f83b5dbddc8598,2022-06-05_08h49.53.648,Colour_Asymmetry_Pilot,2022.1.3,Win32,119.6601651,629c4b6caf241d5e6e00bfc0,,,,,,,,,,,,,,,,,,,,,,,,,,,,,,,,,,,,,,,,,,,,,,,,,,,,,,,,,,,,,,,,,,,,,,,,,,,,,,,,,,,,,,,,,,,,,,,,,,,,,,,,,,,,,,,,,,,,,,,,,,,,,,,,,,,,,,,,,,,,,,,,,,,
0,35,35,35,1,,603953e7302d0728f1519ad7,629c51b733f83b5dbddc8598,2022-06-05_08h49.53.648,Colour_Asymmetry_Pilot,2022.1.3,Win32,119.6601651,629c4b6caf241d5e6e00bfc0,,,,,,,,,,,,,,,,,,,,,,,,,,,,,,,,,,,,,,,,,,,,,,,,,,,,,,,,,,,,,,,,,,,,,,,,,,,,,,,,,,,,,,,,,,,,,,,,,,,,,,,,,,,,,,,,,,,,,,,,,,,,,,,,,,,,,,,,,,,,,,,,,,,
0,36,36,29,1,,603953e7302d0728f1519ad7,629c51b733f83b5dbddc8598,2022-06-05_08h49.53.648,Colour_Asymmetry_Pilot,2022.1.3,Win32,119.6601651,629c4b6caf241d5e6e00bfc0,,,,,,,,,,,,,,,,,,,,,,,,,,,,,,,,,,,,,,,,,,,,,,,,,,,,,,,,,,,,,,,,,,,,,,,,,,,,,,,,,,,,,,,,,,,,,,,,,,,,,,,,,,,,,,,,,,,,,,,,,,,,,,,,,,,,,,,,,,,,,,,,,,,
0,37,37,87,1,,603953e7302d0728f1519ad7,629c51b733f83b5dbddc8598,2022-06-05_08h49.53.648,Colour_Asymmetry_Pilot,2022.1.3,Win32,119.6601651,629c4b6caf241d5e6e00bfc0,,,,,,,,,,,,,,,,,,,,,,,,,,,,,,,,,,,,,,,,,,,,,,,,,,,,,,,,,,,,,,,,,,,,,,,,,,,,,,,,,,,,,,,,,,,,,,,,,,,,,,,,,,,,,,,,,,,,,,,,,,,,,,,,,,,,,,,,,,,,,,,,,,,
0,38,38,43,1,,603953e7302d0728f1519ad7,629c51b733f83b5dbddc8598,2022-06-05_08h49.53.648,Colour_Asymmetry_Pilot,2022.1.3,Win32,119.6601651,629c4b6caf241d5e6e00bfc0,,,,,,,,,,,,,,,,,,,,,,,,,,,,,,,,,,,,,,,,,,,,,,,,,,,,,,,,,,,,,,,,,,,,,,,,,,,,,,,,,,,,,,,,,,,,,,,,,,,,,,,,,,,,,,,,,,,,,,,,,,,,,,,,,,,,,,,,,,,,,,,,,,,
0,39,39,51,1,,603953e7302d0728f1519ad7,629c51b733f83b5dbddc8598,2022-06-05_08h49.53.648,Colour_Asymmetry_Pilot,2022.1.3,Win32,119.6601651,629c4b6caf241d5e6e00bfc0,,,,,,,,,,,,,,,,,,,,,,,,,,,,,,,,,,,,,,,,,,,,,,,,,,,,,,,,,,,,,,,,,,,,,,,,,,,,,,,,,,,,,,,,,,,,,,,,,,,,,,,,,,,,,,,,,,,,,,,,,,,,,,,,,,,,,,,,,,,,,,,,,,,
0,40,40,7,1,,603953e7302d0728f1519ad7,629c51b733f83b5dbddc8598,2022-06-05_08h49.53.648,Colour_Asymmetry_Pilot,2022.1.3,Win32,119.6601651,629c4b6caf241d5e6e00bfc0,,,,,,,,,,,,,,,,,,,,,,,,,,,,,,,,,,,,,,,,,,,,,,,,,,,,,,,,,,,,,,,,,,,,,,,,,,,,,,,,,,,,,,,,,,,,,,,,,,,,,,,,,,,,,,,,,,,,,,,,,,,,,,,,,,,,,,,,,,,,,,,,,,,
0,41,41,58,1,,603953e7302d0728f1519ad7,629c51b733f83b5dbddc8598,2022-06-05_08h49.53.648,Colour_Asymmetry_Pilot,2022.1.3,Win32,119.6601651,629c4b6caf241d5e6e00bfc0,,,,,,,,,,,,,,,,,,,,,,,,,,,,,,,,,,,,,,,,,,,,,,,,,,,,,,,,,,,,,,,,,,,,,,,,,,,,,,,,,,,,,,,,,,,,,,,,,,,,,,,,,,,,,,,,,,,,,,,,,,,,,,,,,,,,,,,,,,,,,,,,,,,
0,42,42,32,1,,603953e7302d0728f1519ad7,629c51b733f83b5dbddc8598,2022-06-05_08h49.53.648,Colour_Asymmetry_Pilot,2022.1.3,Win32,119.6601651,629c4b6caf241d5e6e00bfc0,,,,,,,,,,,,,,,,,,,,,,,,,,,,,,,,,,,,,,,,,,,,,,,,,,,,,,,,,,,,,,,,,,,,,,,,,,,,,,,,,,,,,,,,,,,,,,,,,,,,,,,,,,,,,,,,,,,,,,,,,,,,,,,,,,,,,,,,,,,,,,,,,,,
0,43,43,16,1,,603953e7302d0728f1519ad7,629c51b733f83b5dbddc8598,2022-06-05_08h49.53.648,Colour_Asymmetry_Pilot,2022.1.3,Win32,119.6601651,629c4b6caf241d5e6e00bfc0,,,,,,,,,,,,,,,,,,,,,,,,,,,,,,,,,,,,,,,,,,,,,,,,,,,,,,,,,,,,,,,,,,,,,,,,,,,,,,,,,,,,,,,,,,,,,,,,,,,,,,,,,,,,,,,,,,,,,,,,,,,,,,,,,,,,,,,,,,,,,,,,,,,
0,44,44,37,1,,603953e7302d0728f1519ad7,629c51b733f83b5dbddc8598,2022-06-05_08h49.53.648,Colour_Asymmetry_Pilot,2022.1.3,Win32,119.6601651,629c4b6caf241d5e6e00bfc0,,,,,,,,,,,,,,,,,,,,,,,,,,,,,,,,,,,,,,,,,,,,,,,,,,,,,,,,,,,,,,,,,,,,,,,,,,,,,,,,,,,,,,,,,,,,,,,,,,,,,,,,,,,,,,,,,,,,,,,,,,,,,,,,,,,,,,,,,,,,,,,,,,,
0,45,45,21,1,,603953e7302d0728f1519ad7,629c51b733f83b5dbddc8598,2022-06-05_08h49.53.648,Colour_Asymmetry_Pilot,2022.1.3,Win32,119.6601651,629c4b6caf241d5e6e00bfc0,,,,,,,,,,,,,,,,,,,,,,,,,,,,,,,,,,,,,,,,,,,,,,,,,,,,,,,,,,,,,,,,,,,,,,,,,,,,,,,,,,,,,,,,,,,,,,,,,,,,,,,,,,,,,,,,,,,,,,,,,,,,,,,,,,,,,,,,,,,,,,,,,,,
0,46,46,47,1,,603953e7302d0728f1519ad7,629c51b733f83b5dbddc8598,2022-06-05_08h49.53.648,Colour_Asymmetry_Pilot,2022.1.3,Win32,119.6601651,629c4b6caf241d5e6e00bfc0,,,,,,,,,,,,,,,,,,,,,,,,,,,,,,,,,,,,,,,,,,,,,,,,,,,,,,,,,,,,,,,,,,,,,,,,,,,,,,,,,,,,,,,,,,,,,,,,,,,,,,,,,,,,,,,,,,,,,,,,,,,,,,,,,,,,,,,,,,,,,,,,,,,
0,47,47,55,1,,603953e7302d0728f1519ad7,629c51b733f83b5dbddc8598,2022-06-05_08h49.53.648,Colour_Asymmetry_Pilot,2022.1.3,Win32,119.6601651,629c4b6caf241d5e6e00bfc0,,,,,,,,,,,,,,,,,,,,,,,,,,,,,,,,,,,,,,,,,,,,,,,,,,,,,,,,,,,,,,,,,,,,,,,,,,,,,,,,,,,,,,,,,,,,,,,,,,,,,,,,,,,,,,,,,,,,,,,,,,,,,,,,,,,,,,,,,,,,,,,,,,,
0,48,48,6,1,,603953e7302d0728f1519ad7,629c51b733f83b5dbddc8598,2022-06-05_08h49.53.648,Colour_Asymmetry_Pilot,2022.1.3,Win32,119.6601651,629c4b6caf241d5e6e00bfc0,,,,,,,,,,,,,,,,,,,,,,,,,,,,,,,,,,,,,,,,,,,,,,,,,,,,,,,,,,,,,,,,,,,,,,,,,,,,,,,,,,,,,,,,,,,,,,,,,,,,,,,,,,,,,,,,,,,,,,,,,,,,,,,,,,,,,,,,,,,,,,,,,,,
0,49,49,3,1,,603953e7302d0728f1519ad7,629c51b733f83b5dbddc8598,2022-06-05_08h49.53.648,Colour_Asymmetry_Pilot,2022.1.3,Win32,119.6601651,629c4b6caf241d5e6e00bfc0,,,,,,,,,,,,,,,,,,,,,,,,,,,,,,,,,,,,,,,,,,,,,,,,,,,,,,,,,,,,,,,,,,,,,,,,,,,,,,,,,,,,,,,,,,,,,,,,,,,,,,,,,,,,,,,,,,,,,,,,,,,,,,,,,,,,,,,,,,,,,,,,,,,
0,50,50,61,1,,603953e7302d0728f1519ad7,629c51b733f83b5dbddc8598,2022-06-05_08h49.53.648,Colour_Asymmetry_Pilot,2022.1.3,Win32,119.6601651,629c4b6caf241d5e6e00bfc0,,,,,,,,,,,,,,,,,,,,,,,,,,,,,,,,,,,,,,,,,,,,,,,,,,,,,,,,,,,,,,,,,,,,,,,,,,,,,,,,,,,,,,,,,,,,,,,,,,,,,,,,,,,,,,,,,,,,,,,,,,,,,,,,,,,,,,,,,,,,,,,,,,,
0,51,51,66,1,,603953e7302d0728f1519ad7,629c51b733f83b5dbddc8598,2022-06-05_08h49.53.648,Colour_Asymmetry_Pilot,2022.1.3,Win32,119.6601651,629c4b6caf241d5e6e00bfc0,,,,,,,,,,,,,,,,,,,,,,,,,,,,,,,,,,,,,,,,,,,,,,,,,,,,,,,,,,,,,,,,,,,,,,,,,,,,,,,,,,,,,,,,,,,,,,,,,,,,,,,,,,,,,,,,,,,,,,,,,,,,,,,,,,,,,,,,,,,,,,,,,,,
0,52,52,5,1,,603953e7302d0728f1519ad7,629c51b733f83b5dbddc8598,2022-06-05_08h49.53.648,Colour_Asymmetry_Pilot,2022.1.3,Win32,119.6601651,629c4b6caf241d5e6e00bfc0,,,,,,,,,,,,,,,,,,,,,,,,,,,,,,,,,,,,,,,,,,,,,,,,,,,,,,,,,,,,,,,,,,,,,,,,,,,,,,,,,,,,,,,,,,,,,,,,,,,,,,,,,,,,,,,,,,,,,,,,,,,,,,,,,,,,,,,,,,,,,,,,,,,
0,53,53,40,1,,603953e7302d0728f1519ad7,629c51b733f83b5dbddc8598,2022-06-05_08h49.53.648,Colour_Asymmetry_Pilot,2022.1.3,Win32,119.6601651,629c4b6caf241d5e6e00bfc0,,,,,,,,,,,,,,,,,,,,,,,,,,,,,,,,,,,,,,,,,,,,,,,,,,,,,,,,,,,,,,,,,,,,,,,,,,,,,,,,,,,,,,,,,,,,,,,,,,,,,,,,,,,,,,,,,,,,,,,,,,,,,,,,,,,,,,,,,,,,,,,,,,,
0,54,54,90,1,,603953e7302d0728f1519ad7,629c51b733f83b5dbddc8598,2022-06-05_08h49.53.648,Colour_Asymmetry_Pilot,2022.1.3,Win32,119.6601651,629c4b6caf241d5e6e00bfc0,,,,,,,,,,,,,,,,,,,,,,,,,,,,,,,,,,,,,,,,,,,,,,,,,,,,,,,,,,,,,,,,,,,,,,,,,,,,,,,,,,,,,,,,,,,,,,,,,,,,,,,,,,,,,,,,,,,,,,,,,,,,,,,,,,,,,,,,,,,,,,,,,,,
0,55,55,85,1,,603953e7302d0728f1519ad7,629c51b733f83b5dbddc8598,2022-06-05_08h49.53.648,Colour_Asymmetry_Pilot,2022.1.3,Win32,119.6601651,629c4b6caf241d5e6e00bfc0,,,,,,,,,,,,,,,,,,,,,,,,,,,,,,,,,,,,,,,,,,,,,,,,,,,,,,,,,,,,,,,,,,,,,,,,,,,,,,,,,,,,,,,,,,,,,,,,,,,,,,,,,,,,,,,,,,,,,,,,,,,,,,,,,,,,,,,,,,,,,,,,,,,
0,56,56,34,1,,603953e7302d0728f1519ad7,629c51b733f83b5dbddc8598,2022-06-05_08h49.53.648,Colour_Asymmetry_Pilot,2022.1.3,Win32,119.6601651,629c4b6caf241d5e6e00bfc0,,,,,,,,,,,,,,,,,,,,,,,,,,,,,,,,,,,,,,,,,,,,,,,,,,,,,,,,,,,,,,,,,,,,,,,,,,,,,,,,,,,,,,,,,,,,,,,,,,,,,,,,,,,,,,,,,,,,,,,,,,,,,,,,,,,,,,,,,,,,,,,,,,,
0,57,57,52,1,,603953e7302d0728f1519ad7,629c51b733f83b5dbddc8598,2022-06-05_08h49.53.648,Colour_Asymmetry_Pilot,2022.1.3,Win32,119.6601651,629c4b6caf241d5e6e00bfc0,,,,,,,,,,,,,,,,,,,,,,,,,,,,,,,,,,,,,,,,,,,,,,,,,,,,,,,,,,,,,,,,,,,,,,,,,,,,,,,,,,,,,,,,,,,,,,,,,,,,,,,,,,,,,,,,,,,,,,,,,,,,,,,,,,,,,,,,,,,,,,,,,,,
0,58,58,74,1,,603953e7302d0728f1519ad7,629c51b733f83b5dbddc8598,2022-06-05_08h49.53.648,Colour_Asymmetry_Pilot,2022.1.3,Win32,119.6601651,629c4b6caf241d5e6e00bfc0,,,,,,,,,,,,,,,,,,,,,,,,,,,,,,,,,,,,,,,,,,,,,,,,,,,,,,,,,,,,,,,,,,,,,,,,,,,,,,,,,,,,,,,,,,,,,,,,,,,,,,,,,,,,,,,,,,,,,,,,,,,,,,,,,,,,,,,,,,,,,,,,,,,
0,59,59,30,1,,603953e7302d0728f1519ad7,629c51b733f83b5dbddc8598,2022-06-05_08h49.53.648,Colour_Asymmetry_Pilot,2022.1.3,Win32,119.6601651,629c4b6caf241d5e6e00bfc0,,,,,,,,,,,,,,,,,,,,,,,,,,,,,,,,,,,,,,,,,,,,,,,,,,,,,,,,,,,,,,,,,,,,,,,,,,,,,,,,,,,,,,,,,,,,,,,,,,,,,,,,,,,,,,,,,,,,,,,,,,,,,,,,,,,,,,,,,,,,,,,,,,,
0,60,60,25,1,,603953e7302d0728f1519ad7,629c51b733f83b5dbddc8598,2022-06-05_08h49.53.648,Colour_Asymmetry_Pilot,2022.1.3,Win32,119.6601651,629c4b6caf241d5e6e00bfc0,,,,,,,,,,,,,,,,,,,,,,,,,,,,,,,,,,,,,,,,,,,,,,,,,,,,,,,,,,,,,,,,,,,,,,,,,,,,,,,,,,,,,,,,,,,,,,,,,,,,,,,,,,,,,,,,,,,,,,,,,,,,,,,,,,,,,,,,,,,,,,,,,,,
0,61,61,44,1,,603953e7302d0728f1519ad7,629c51b733f83b5dbddc8598,2022-06-05_08h49.53.648,Colour_Asymmetry_Pilot,2022.1.3,Win32,119.6601651,629c4b6caf241d5e6e00bfc0,,,,,,,,,,,,,,,,,,,,,,,,,,,,,,,,,,,,,,,,,,,,,,,,,,,,,,,,,,,,,,,,,,,,,,,,,,,,,,,,,,,,,,,,,,,,,,,,,,,,,,,,,,,,,,,,,,,,,,,,,,,,,,,,,,,,,,,,,,,,,,,,,,,
0,62,62,8,1,,603953e7302d0728f1519ad7,629c51b733f83b5dbddc8598,2022-06-05_08h49.53.648,Colour_Asymmetry_Pilot,2022.1.3,Win32,119.6601651,629c4b6caf241d5e6e00bfc0,,,,,,,,,,,,,,,,,,,,,,,,,,,,,,,,,,,,,,,,,,,,,,,,,,,,,,,,,,,,,,,,,,,,,,,,,,,,,,,,,,,,,,,,,,,,,,,,,,,,,,,,,,,,,,,,,,,,,,,,,,,,,,,,,,,,,,,,,,,,,,,,,,,
0,63,63,72,1,,603953e7302d0728f1519ad7,629c51b733f83b5dbddc8598,2022-06-05_08h49.53.648,Colour_Asymmetry_Pilot,2022.1.3,Win32,119.6601651,629c4b6caf241d5e6e00bfc0,,,,,,,,,,,,,,,,,,,,,,,,,,,,,,,,,,,,,,,,,,,,,,,,,,,,,,,,,,,,,,,,,,,,,,,,,,,,,,,,,,,,,,,,,,,,,,,,,,,,,,,,,,,,,,,,,,,,,,,,,,,,,,,,,,,,,,,,,,,,,,,,,,,
0,64,64,33,1,,603953e7302d0728f1519ad7,629c51b733f83b5dbddc8598,2022-06-05_08h49.53.648,Colour_Asymmetry_Pilot,2022.1.3,Win32,119.6601651,629c4b6caf241d5e6e00bfc0,,,,,,,,,,,,,,,,,,,,,,,,,,,,,,,,,,,,,,,,,,,,,,,,,,,,,,,,,,,,,,,,,,,,,,,,,,,,,,,,,,,,,,,,,,,,,,,,,,,,,,,,,,,,,,,,,,,,,,,,,,,,,,,,,,,,,,,,,,,,,,,,,,,
0,65,65,38,1,,603953e7302d0728f1519ad7,629c51b733f83b5dbddc8598,2022-06-05_08h49.53.648,Colour_Asymmetry_Pilot,2022.1.3,Win32,119.6601651,629c4b6caf241d5e6e00bfc0,,,,,,,,,,,,,,,,,,,,,,,,,,,,,,,,,,,,,,,,,,,,,,,,,,,,,,,,,,,,,,,,,,,,,,,,,,,,,,,,,,,,,,,,,,,,,,,,,,,,,,,,,,,,,,,,,,,,,,,,,,,,,,,,,,,,,,,,,,,,,,,,,,,
0,66,66,69,1,,603953e7302d0728f1519ad7,629c51b733f83b5dbddc8598,2022-06-05_08h49.53.648,Colour_Asymmetry_Pilot,2022.1.3,Win32,119.6601651,629c4b6caf241d5e6e00bfc0,,,,,,,,,,,,,,,,,,,,,,,,,,,,,,,,,,,,,,,,,,,,,,,,,,,,,,,,,,,,,,,,,,,,,,,,,,,,,,,,,,,,,,,,,,,,,,,,,,,,,,,,,,,,,,,,,,,,,,,,,,,,,,,,,,,,,,,,,,,,,,,,,,,
0,67,67,18,1,,603953e7302d0728f1519ad7,629c51b733f83b5dbddc8598,2022-06-05_08h49.53.648,Colour_Asymmetry_Pilot,2022.1.3,Win32,119.6601651,629c4b6caf241d5e6e00bfc0,,,,,,,,,,,,,,,,,,,,,,,,,,,,,,,,,,,,,,,,,,,,,,,,,,,,,,,,,,,,,,,,,,,,,,,,,,,,,,,,,,,,,,,,,,,,,,,,,,,,,,,,,,,,,,,,,,,,,,,,,,,,,,,,,,,,,,,,,,,,,,,,,,,
0,68,68,42,1,,603953e7302d0728f1519ad7,629c51b733f83b5dbddc8598,2022-06-05_08h49.53.648,Colour_Asymmetry_Pilot,2022.1.3,Win32,119.6601651,629c4b6caf241d5e6e00bfc0,,,,,,,,,,,,,,,,,,,,,,,,,,,,,,,,,,,,,,,,,,,,,,,,,,,,,,,,,,,,,,,,,,,,,,,,,,,,,,,,,,,,,,,,,,,,,,,,,,,,,,,,,,,,,,,,,,,,,,,,,,,,,,,,,,,,,,,,,,,,,,,,,,,
0,69,69,23,1,,603953e7302d0728f1519ad7,629c51b733f83b5dbddc8598,2022-06-05_08h49.53.648,Colour_Asymmetry_Pilot,2022.1.3,Win32,119.6601651,629c4b6caf241d5e6e00bfc0,,,,,,,,,,,,,,,,,,,,,,,,,,,,,,,,,,,,,,,,,,,,,,,,,,,,,,,,,,,,,,,,,,,,,,,,,,,,,,,,,,,,,,,,,,,,,,,,,,,,,,,,,,,,,,,,,,,,,,,,,,,,,,,,,,,,,,,,,,,,,,,,,,,
0,70,70,14,1,,603953e7302d0728f1519ad7,629c51b733f83b5dbddc8598,2022-06-05_08h49.53.648,Colour_Asymmetry_Pilot,2022.1.3,Win32,119.6601651,629c4b6caf241d5e6e00bfc0,,,,,,,,,,,,,,,,,,,,,,,,,,,,,,,,,,,,,,,,,,,,,,,,,,,,,,,,,,,,,,,,,,,,,,,,,,,,,,,,,,,,,,,,,,,,,,,,,,,,,,,,,,,,,,,,,,,,,,,,,,,,,,,,,,,,,,,,,,,,,,,,,,,
0,71,71,0,1,,603953e7302d0728f1519ad7,629c51b733f83b5dbddc8598,2022-06-05_08h49.53.648,Colour_Asymmetry_Pilot,2022.1.3,Win32,119.6601651,629c4b6caf241d5e6e00bfc0,,,,,,,,,,,,,,,,,,,,,,,,,,,,,,,,,,,,,,,,,,,,,,,,,,,,,,,,,,,,,,,,,,,,,,,,,,,,,,,,,,,,,,,,,,,,,,,,,,,,,,,,,,,,,,,,,,,,,,,,,,,,,,,,,,,,,,,,,,,,,,,,,,,
0,72,72,4,1,,603953e7302d0728f1519ad7,629c51b733f83b5dbddc8598,2022-06-05_08h49.53.648,Colour_Asymmetry_Pilot,2022.1.3,Win32,119.6601651,629c4b6caf241d5e6e00bfc0,,,,,,,,,,,,,,,,,,,,,,,,,,,,,,,,,,,,,,,,,,,,,,,,,,,,,,,,,,,,,,,,,,,,,,,,,,,,,,,,,,,,,,,,,,,,,,,,,,,,,,,,,,,,,,,,,,,,,,,,,,,,,,,,,,,,,,,,,,,,,,,,,,,
0,73,73,39,1,,603953e7302d0728f1519ad7,629c51b733f83b5dbddc8598,2022-06-05_08h49.53.648,Colour_Asymmetry_Pilot,2022.1.3,Win32,119.6601651,629c4b6caf241d5e6e00bfc0,,,,,,,,,,,,,,,,,,,,,,,,,,,,,,,,,,,,,,,,,,,,,,,,,,,,,,,,,,,,,,,,,,,,,,,,,,,,,,,,,,,,,,,,,,,,,,,,,,,,,,,,,,,,,,,,,,,,,,,,,,,,,,,,,,,,,,,,,,,,,,,,,,,
0,74,74,89,1,,603953e7302d0728f1519ad7,629c51b733f83b5dbddc8598,2022-06-05_08h49.53.648,Colour_Asymmetry_Pilot,2022.1.3,Win32,119.6601651,629c4b6caf241d5e6e00bfc0,,,,,,,,,,,,,,,,,,,,,,,,,,,,,,,,,,,,,,,,,,,,,,,,,,,,,,,,,,,,,,,,,,,,,,,,,,,,,,,,,,,,,,,,,,,,,,,,,,,,,,,,,,,,,,,,,,,,,,,,,,,,,,,,,,,,,,,,,,,,,,,,,,,
0,75,75,12,1,,603953e7302d0728f1519ad7,629c51b733f83b5dbddc8598,2022-06-05_08h49.53.648,Colour_Asymmetry_Pilot,2022.1.3,Win32,119.6601651,629c4b6caf241d5e6e00bfc0,,,,,,,,,,,,,,,,,,,,,,,,,,,,,,,,,,,,,,,,,,,,,,,,,,,,,,,,,,,,,,,,,,,,,,,,,,,,,,,,,,,,,,,,,,,,,,,,,,,,,,,,,,,,,,,,,,,,,,,,,,,,,,,,,,,,,,,,,,,,,,,,,,,
0,76,76,54,1,,603953e7302d0728f1519ad7,629c51b733f83b5dbddc8598,2022-06-05_08h49.53.648,Colour_Asymmetry_Pilot,2022.1.3,Win32,119.6601651,629c4b6caf241d5e6e00bfc0,,,,,,,,,,,,,,,,,,,,,,,,,,,,,,,,,,,,,,,,,,,,,,,,,,,,,,,,,,,,,,,,,,,,,,,,,,,,,,,,,,,,,,,,,,,,,,,,,,,,,,,,,,,,,,,,,,,,,,,,,,,,,,,,,,,,,,,,,,,,,,,,,,,
0,77,77,84,1,,603953e7302d0728f1519ad7,629c51b733f83b5dbddc8598,2022-06-05_08h49.53.648,Colour_Asymmetry_Pilot,2022.1.3,Win32,119.6601651,629c4b6caf241d5e6e00bfc0,,,,,,,,,,,,,,,,,,,,,,,,,,,,,,,,,,,,,,,,,,,,,,,,,,,,,,,,,,,,,,,,,,,,,,,,,,,,,,,,,,,,,,,,,,,,,,,,,,,,,,,,,,,,,,,,,,,,,,,,,,,,,,,,,,,,,,,,,,,,,,,,,,,
0,78,78,57,1,,603953e7302d0728f1519ad7,629c51b733f83b5dbddc8598,2022-06-05_08h49.53.648,Colour_Asymmetry_Pilot,2022.1.3,Win32,119.6601651,629c4b6caf241d5e6e00bfc0,,,,,,,,,,,,,,,,,,,,,,,,,,,,,,,,,,,,,,,,,,,,,,,,,,,,,,,,,,,,,,,,,,,,,,,,,,,,,,,,,,,,,,,,,,,,,,,,,,,,,,,,,,,,,,,,,,,,,,,,,,,,,,,,,,,,,,,,,,,,,,,,,,,
0,79,79,36,1,,603953e7302d0728f1519ad7,629c51b733f83b5dbddc8598,2022-06-05_08h49.53.648,Colour_Asymmetry_Pilot,2022.1.3,Win32,119.6601651,629c4b6caf241d5e6e00bfc0,,,,,,,,,,,,,,,,,,,,,,,,,,,,,,,,,,,,,,,,,,,,,,,,,,,,,,,,,,,,,,,,,,,,,,,,,,,,,,,,,,,,,,,,,,,,,,,,,,,,,,,,,,,,,,,,,,,,,,,,,,,,,,,,,,,,,,,,,,,,,,,,,,,
0,80,80,73,1,,603953e7302d0728f1519ad7,629c51b733f83b5dbddc8598,2022-06-05_08h49.53.648,Colour_Asymmetry_Pilot,2022.1.3,Win32,119.6601651,629c4b6caf241d5e6e00bfc0,,,,,,,,,,,,,,,,,,,,,,,,,,,,,,,,,,,,,,,,,,,,,,,,,,,,,,,,,,,,,,,,,,,,,,,,,,,,,,,,,,,,,,,,,,,,,,,,,,,,,,,,,,,,,,,,,,,,,,,,,,,,,,,,,,,,,,,,,,,,,,,,,,,
0,81,81,50,1,,603953e7302d0728f1519ad7,629c51b733f83b5dbddc8598,2022-06-05_08h49.53.648,Colour_Asymmetry_Pilot,2022.1.3,Win32,119.6601651,629c4b6caf241d5e6e00bfc0,,,,,,,,,,,,,,,,,,,,,,,,,,,,,,,,,,,,,,,,,,,,,,,,,,,,,,,,,,,,,,,,,,,,,,,,,,,,,,,,,,,,,,,,,,,,,,,,,,,,,,,,,,,,,,,,,,,,,,,,,,,,,,,,,,,,,,,,,,,,,,,,,,,
0,82,82,19,1,,603953e7302d0728f1519ad7,629c51b733f83b5dbddc8598,2022-06-05_08h49.53.648,Colour_Asymmetry_Pilot,2022.1.3,Win32,119.6601651,629c4b6caf241d5e6e00bfc0,,,,,,,,,,,,,,,,,,,,,,,,,,,,,,,,,,,,,,,,,,,,,,,,,,,,,,,,,,,,,,,,,,,,,,,,,,,,,,,,,,,,,,,,,,,,,,,,,,,,,,,,,,,,,,,,,,,,,,,,,,,,,,,,,,,,,,,,,,,,,,,,,,,
0,83,83,48,1,,603953e7302d0728f1519ad7,629c51b733f83b5dbddc8598,2022-06-05_08h49.53.648,Colour_Asymmetry_Pilot,2022.1.3,Win32,119.6601651,629c4b6caf241d5e6e00bfc0,,,,,,,,,,,,,,,,,,,,,,,,,,,,,,,,,,,,,,,,,,,,,,,,,,,,,,,,,,,,,,,,,,,,,,,,,,,,,,,,,,,,,,,,,,,,,,,,,,,,,,,,,,,,,,,,,,,,,,,,,,,,,,,,,,,,,,,,,,,,,,,,,,,
0,84,84,77,1,,603953e7302d0728f1519ad7,629c51b733f83b5dbddc8598,2022-06-05_08h49.53.648,Colour_Asymmetry_Pilot,2022.1.3,Win32,119.6601651,629c4b6caf241d5e6e00bfc0,,,,,,,,,,,,,,,,,,,,,,,,,,,,,,,,,,,,,,,,,,,,,,,,,,,,,,,,,,,,,,,,,,,,,,,,,,,,,,,,,,,,,,,,,,,,,,,,,,,,,,,,,,,,,,,,,,,,,,,,,,,,,,,,,,,,,,,,,,,,,,,,,,,
0,85,85,10,1,,603953e7302d0728f1519ad7,629c51b733f83b5dbddc8598,2022-06-05_08h49.53.648,Colour_Asymmetry_Pilot,2022.1.3,Win32,119.6601651,629c4b6caf241d5e6e00bfc0,,,,,,,,,,,,,,,,,,,,,,,,,,,,,,,,,,,,,,,,,,,,,,,,,,,,,,,,,,,,,,,,,,,,,,,,,,,,,,,,,,,,,,,,,,,,,,,,,,,,,,,,,,,,,,,,,,,,,,,,,,,,,,,,,,,,,,,,,,,,,,,,,,,
0,86,86,28,1,,603953e7302d0728f1519ad7,629c51b733f83b5dbddc8598,2022-06-05_08h49.53.648,Colour_Asymmetry_Pilot,2022.1.3,Win32,119.6601651,629c4b6caf241d5e6e00bfc0,,,,,,,,,,,,,,,,,,,,,,,,,,,,,,,,,,,,,,,,,,,,,,,,,,,,,,,,,,,,,,,,,,,,,,,,,,,,,,,,,,,,,,,,,,,,,,,,,,,,,,,,,,,,,,,,,,,,,,,,,,,,,,,,,,,,,,,,,,,,,,,,,,,
0,87,87,53,1,,603953e7302d0728f1519ad7,629c51b733f83b5dbddc8598,2022-06-05_08h49.53.648,Colour_Asymmetry_Pilot,2022.1.3,Win32,119.6601651,629c4b6caf241d5e6e00bfc0,,,,,,,,,,,,,,,,,,,,,,,,,,,,,,,,,,,,,,,,,,,,,,,,,,,,,,,,,,,,,,,,,,,,,,,,,,,,,,,,,,,,,,,,,,,,,,,,,,,,,,,,,,,,,,,,,,,,,,,,,,,,,,,,,,,,,,,,,,,,,,,,,,,
0,88,88,15,1,,603953e7302d0728f1519ad7,629c51b733f83b5dbddc8598,2022-06-05_08h49.53.648,Colour_Asymmetry_Pilot,2022.1.3,Win32,119.6601651,629c4b6caf241d5e6e00bfc0,,,,,,,,,,,,,,,,,,,,,,,,,,,,,,,,,,,,,,,,,,,,,,,,,,,,,,,,,,,,,,,,,,,,,,,,,,,,,,,,,,,,,,,,,,,,,,,,,,,,,,,,,,,,,,,,,,,,,,,,,,,,,,,,,,,,,,,,,,,,,,,,,,,
0,89,89,26,1,,603953e7302d0728f1519ad7,629c51b733f83b5dbddc8598,2022-06-05_08h49.53.648,Colour_Asymmetry_Pilot,2022.1.3,Win32,119.6601651,629c4b6caf241d5e6e00bfc0,,,,,,,,,,,,,,,,,,,,,,,,,,,,,,,,,,,,,,,,,,,,,,,,,,,,,,,,,,,,,,,,,,,,,,,,,,,,,,,,,,,,,,,,,,,,,,,,,,,,,,,,,,,,,,,,,,,,,,,,,,,,,,,,,,,,,,,,,,,,,,,,,,,
0,90,90,71,1,,603953e7302d0728f1519ad7,629c51b733f83b5dbddc8598,2022-06-05_08h49.53.648,Colour_Asymmetry_Pilot,2022.1.3,Win32,119.6601651,629c4b6caf241d5e6e00bfc0,,,,,,,,,,,,,,,,,,,,,,,,,,,,,,,,,,,,,,,,,,,,,,,,,,,,,,,,,,,,,,,,,,,,,,,,,,,,,,,,,,,,,,,,,,,,,,,,,,,,,,,,,,,,,,,,,,,,,,,,,,,,,,,,,,,,,,,,,,,,,,,,,,,
0,91,91,79,1,,603953e7302d0728f1519ad7,629c51b733f83b5dbddc8598,2022-06-05_08h49.53.648,Colour_Asymmetry_Pilot,2022.1.3,Win32,119.6601651,629c4b6caf241d5e6e00bfc0,,,,,,,,,,,,,,,,,,,,,,,,,,,,,,,,,,,,,,,,,,,,,,,,,,,,,,,,,,,,,,,,,,,,,,,,,,,,,,,,,,,,,,,,,,,,,,,,,,,,,,,,,,,,,,,,,,,,,,,,,,,,,,,,,,,,,,,,,,,,,,,,,,,
0,92,92,76,1,,603953e7302d0728f1519ad7,629c51b733f83b5dbddc8598,2022-06-05_08h49.53.648,Colour_Asymmetry_Pilot,2022.1.3,Win32,119.6601651,629c4b6caf241d5e6e00bfc0,,,,,,,,,,,,,,,,,,,,,,,,,,,,,,,,,,,,,,,,,,,,,,,,,,,,,,,,,,,,,,,,,,,,,,,,,,,,,,,,,,,,,,,,,,,,,,,,,,,,,,,,,,,,,,,,,,,,,,,,,,,,,,,,,,,,,,,,,,,,,,,,,,,
,,,,,,603953e7302d0728f1519ad7,629c51b733f83b5dbddc8598,2022-06-05_08h49.53.648,Colour_Asymmetry_Pilot,2022.1.3,Win32,119.6601651,629c4b6caf241d5e6e00bfc0,0,0,0,139,1,twofour,,,,,,,,,,,,,,,,,,,,,,,,,,,,,,,,,,,,,,,,,,,,,,,,,,,,,,,,,,,,,,,,,,,,,,,,,,,,,,,,,,,,,,,,,,,,,,,,,,,,,,,,,,,,,,,,,,,,,,,,,,,,,,,,,,,,,,,,,,,,,
,,,,,,603953e7302d0728f1519ad7,629c51b733f83b5dbddc8598,2022-06-05_08h49.53.648,Colour_Asymmetry_Pilot,2022.1.3,Win32,119.6601651,629c4b6caf241d5e6e00bfc0,0,1,1,72,1,onetwo,,,,,,,,,,,,,,,,,,,,,,,,,,,,,,,,,,,,,,,,,,,,,,,,,,,,,,,,,,,,,,,,,,,,,,,,,,,,,,,,,,,,,,,,,,,,,,,,,,,,,,,,,,,,,,,,,,,,,,,,,,,,,,,,,,,,,,,,,,,,,
,,,,,,603953e7302d0728f1519ad7,629c51b733f83b5dbddc8598,2022-06-05_08h49.53.648,Colour_Asymmetry_Pilot,2022.1.3,Win32,119.6601651,629c4b6caf241d5e6e00bfc0,0,2,2,80,1,onetwo,,,,,,,,,,,,,,,,,,,,,,,,,,,,,,,,,,,,,,,,,,,,,,,,,,,,,,,,,,,,,,,,,,,,,,,,,,,,,,,,,,,,,,,,,,,,,,,,,,,,,,,,,,,,,,,,,,,,,,,,,,,,,,,,,,,,,,,,,,,,,
,,,,,,603953e7302d0728f1519ad7,629c51b733f83b5dbddc8598,2022-06-05_08h49.53.648,Colour_Asymmetry_Pilot,2022.1.3,Win32,119.6601651,629c4b6caf241d5e6e00bfc0,0,3,3,83,1,twofour,,,,,,,,,,,,,,,,,,,,,,,,,,,,,,,,,,,,,,,,,,,,,,,,,,,,,,,,,,,,,,,,,,,,,,,,,,,,,,,,,,,,,,,,,,,,,,,,,,,,,,,,,,,,,,,,,,,,,,,,,,,,,,,,,,,,,,,,,,,,,
,,,,,,603953e7302d0728f1519ad7,629c51b733f83b5dbddc8598,2022-06-05_08h49.53.648,Colour_Asymmetry_Pilot,2022.1.3,Win32,119.6601651,629c4b6caf241d5e6e00bfc0,0,4,4,33,1,onethree,,,,,,,,,,,,,,,,,,,,,,,,,,,,,,,,,,,,,,,,,,,,,,,,,,,,,,,,,,,,,,,,,,,,,,,,,,,,,,,,,,,,,,,,,,,,,,,,,,,,,,,,,,,,,,,,,,,,,,,,,,,,,,,,,,,,,,,,,,,,,
,,,,,,603953e7302d0728f1519ad7,629c51b733f83b5dbddc8598,2022-06-05_08h49.53.648,Colour_Asymmetry_Pilot,2022.1.3,Win32,119.6601651,629c4b6caf241d5e6e00bfc0,0,5,5,68,1,threeone,,,,,,,,,,,,,,,,,,,,,,,,,,,,,,,,,,,,,,,,,,,,,,,,,,,,,,,,,,,,,,,,,,,,,,,,,,,,,,,,,,,,,,,,,,,,,,,,,,,,,,,,,,,,,,,,,,,,,,,,,,,,,,,,,,,,,,,,,,,,,
,,,,,,603953e7302d0728f1519ad7,629c51b733f83b5dbddc8598,2022-06-05_08h49.53.648,Colour_Asymmetry_Pilot,2022.1.3,Win32,119.6601651,629c4b6caf241d5e6e00bfc0,0,6,6,15,1,fourthree,,,,,,,,,,,,,,,,,,,,,,,,,,,,,,,,,,,,,,,,,,,,,,,,,,,,,,,,,,,,,,,,,,,,,,,,,,,,,,,,,,,,,,,,,,,,,,,,,,,,,,,,,,,,,,,,,,,,,,,,,,,,,,,,,,,,,,,,,,,,,
,,,,,,603953e7302d0728f1519ad7,629c51b733f83b5dbddc8598,2022-06-05_08h49.53.648,Colour_Asymmetry_Pilot,2022.1.3,Win32,119.6601651,629c4b6caf241d5e6e00bfc0,0,7,7,74,1,twoone,,,,,,,,,,,,,,,,,,,,,,,,,,,,,,,,,,,,,,,,,,,,,,,,,,,,,,,,,,,,,,,,,,,,,,,,,,,,,,,,,,,,,,,,,,,,,,,,,,,,,,,,,,,,,,,,,,,,,,,,,,,,,,,,,,,,,,,,,,,,,
,,,,,,603953e7302d0728f1519ad7,629c51b733f83b5dbddc8598,2022-06-05_08h49.53.648,Colour_Asymmetry_Pilot,2022.1.3,Win32,119.6601651,629c4b6caf241d5e6e00bfc0,0,8,8,36,1,threeone,,,,,,,,,,,,,,,,,,,,,,,,,,,,,,,,,,,,,,,,,,,,,,,,,,,,,,,,,,,,,,,,,,,,,,,,,,,,,,,,,,,,,,,,,,,,,,,,,,,,,,,,,,,,,,,,,,,,,,,,,,,,,,,,,,,,,,,,,,,,,
,,,,,,603953e7302d0728f1519ad7,629c51b733f83b5dbddc8598,2022-06-05_08h49.53.648,Colour_Asymmetry_Pilot,2022.1.3,Win32,119.6601651,629c4b6caf241d5e6e00bfc0,0,9,9,156,1,threeone,,,,,,,,,,,,,,,,,,,,,,,,,,,,,,,,,,,,,,,,,,,,,,,,,,,,,,,,,,,,,,,,,,,,,,,,,,,,,,,,,,,,,,,,,,,,,,,,,,,,,,,,,,,,,,,,,,,,,,,,,,,,,,,,,,,,,,,,,,,,,
,,,,,,603953e7302d0728f1519ad7,629c51b733f83b5dbddc8598,2022-06-05_08h49.53.648,Colour_Asymmetry_Pilot,2022.1.3,Win32,119.6601651,629c4b6caf241d5e6e00bfc0,0,10,10,85,1,threefour,,,,,,,,,,,,,,,,,,,,,,,,,,,,,,,,,,,,,,,,,,,,,,,,,,,,,,,,,,,,,,,,,,,,,,,,,,,,,,,,,,,,,,,,,,,,,,,,,,,,,,,,,,,,,,,,,,,,,,,,,,,,,,,,,,,,,,,,,,,,,
,,,,,,603953e7302d0728f1519ad7,629c51b733f83b5dbddc8598,2022-06-05_08h49.53.648,Colour_Asymmetry_Pilot,2022.1.3,Win32,119.6601651,629c4b6caf241d5e6e00bfc0,0,11,11,35,1,twofour,,,,,,,,,,,,,,,,,,,,,,,,,,,,,,,,,,,,,,,,,,,,,,,,,,,,,,,,,,,,,,,,,,,,,,,,,,,,,,,,,,,,,,,,,,,,,,,,,,,,,,,,,,,,,,,,,,,,,,,,,,,,,,,,,,,,,,,,,,,,,
,,,,,,603953e7302d0728f1519ad7,629c51b733f83b5dbddc8598,2022-06-05_08h49.53.648,Colour_Asymmetry_Pilot,2022.1.3,Win32,119.6601651,629c4b6caf241d5e6e00bfc0,0,12,12,95,1,fourthree,,,,,,,,,,,,,,,,,,,,,,,,,,,,,,,,,,,,,,,,,,,,,,,,,,,,,,,,,,,,,,,,,,,,,,,,,,,,,,,,,,,,,,,,,,,,,,,,,,,,,,,,,,,,,,,,,,,,,,,,,,,,,,,,,,,,,,,,,,,,,
,,,,,,603953e7302d0728f1519ad7,629c51b733f83b5dbddc8598,2022-06-05_08h49.53.648,Colour_Asymmetry_Pilot,2022.1.3,Win32,119.6601651,629c4b6caf241d5e6e00bfc0,0,13,13,67,1,twofour,,,,,,,,,,,,,,,,,,,,,,,,,,,,,,,,,,,,,,,,,,,,,,,,,,,,,,,,,,,,,,,,,,,,,,,,,,,,,,,,,,,,,,,,,,,,,,,,,,,,,,,,,,,,,,,,,,,,,,,,,,,,,,,,,,,,,,,,,,,,,
,,,,,,603953e7302d0728f1519ad7,629c51b733f83b5dbddc8598,2022-06-05_08h49.53.648,Colour_Asymmetry_Pilot,2022.1.3,Win32,119.6601651,629c4b6caf241d5e6e00bfc0,0,14,14,53,1,threefour,,,,,,,,,,,,,,,,,,,,,,,,,,,,,,,,,,,,,,,,,,,,,,,,,,,,,,,,,,,,,,,,,,,,,,,,,,,,,,,,,,,,,,,,,,,,,,,,,,,,,,,,,,,,,,,,,,,,,,,,,,,,,,,,,,,,,,,,,,,,,
,,,,,,603953e7302d0728f1519ad7,629c51b733f83b5dbddc8598,2022-06-05_08h49.53.648,Colour_Asymmetry_Pilot,2022.1.3,Win32,119.6601651,629c4b6caf241d5e6e00bfc0,0,15,15,131,1,twofour,,,,,,,,,,,,,,,,,,,,,,,,,,,,,,,,,,,,,,,,,,,,,,,,,,,,,,,,,,,,,,,,,,,,,,,,,,,,,,,,,,,,,,,,,,,,,,,,,,,,,,,,,,,,,,,,,,,,,,,,,,,,,,,,,,,,,,,,,,,,,
,,,,,,603953e7302d0728f1519ad7,629c51b733f83b5dbddc8598,2022-06-05_08h49.53.648,Colour_Asymmetry_Pilot,2022.1.3,Win32,119.6601651,629c4b6caf241d5e6e00bfc0,0,16,16,42,1,twoone,,,,,,,,,,,,,,,,,,,,,,,,,,,,,,,,,,,,,,,,,,,,,,,,,,,,,,,,,,,,,,,,,,,,,,,,,,,,,,,,,,,,,,,,,,,,,,,,,,,,,,,,,,,,,,,,,,,,,,,,,,,,,,,,,,,,,,,,,,,,,
,,,,,,603953e7302d0728f1519ad7,629c51b733f83b5dbddc8598,2022-06-05_08h49.53.648,Colour_Asymmetry_Pilot,2022.1.3,Win32,119.6601651,629c4b6caf241d5e6e00bfc0,0,17,17,117,1,threefour,,,,,,,,,,,,,,,,,,,,,,,,,,,,,,,,,,,,,,,,,,,,,,,,,,,,,,,,,,,,,,,,,,,,,,,,,,,,,,,,,,,,,,,,,,,,,,,,,,,,,,,,,,,,,,,,,,,,,,,,,,,,,,,,,,,,,,,,,,,,,
,,,,,,603953e7302d0728f1519ad7,629c51b733f83b5dbddc8598,2022-06-05_08h49.53.648,Colour_Asymmetry_Pilot,2022.1.3,Win32,119.6601651,629c4b6caf241d5e6e00bfc0,0,18,18,158,1,fourtwo,,,,,,,,,,,,,,,,,,,,,,,,,,,,,,,,,,,,,,,,,,,,,,,,,,,,,,,,,,,,,,,,,,,,,,,,,,,,,,,,,,,,,,,,,,,,,,,,,,,,,,,,,,,,,,,,,,,,,,,,,,,,,,,,,,,,,,,,,,,,,
,,,,,,603953e7302d0728f1519ad7,629c51b733f83b5dbddc8598,2022-06-05_08h49.53.648,Colour_Asymmetry_Pilot,2022.1.3,Win32,119.6601651,629c4b6caf241d5e6e00bfc0,0,19,19,155,1,twofour,,,,,,,,,,,,,,,,,,,,,,,,,,,,,,,,,,,,,,,,,,,,,,,,,,,,,,,,,,,,,,,,,,,,,,,,,,,,,,,,,,,,,,,,,,,,,,,,,,,,,,,,,,,,,,,,,,,,,,,,,,,,,,,,,,,,,,,,,,,,,
,,,,,,603953e7302d0728f1519ad7,629c51b733f83b5dbddc8598,2022-06-05_08h49.53.648,Colour_Asymmetry_Pilot,2022.1.3,Win32,119.6601651,629c4b6caf241d5e6e00bfc0,0,20,20,43,1,twofour,,,,,,,,,,,,,,,,,,,,,,,,,,,,,,,,,,,,,,,,,,,,,,,,,,,,,,,,,,,,,,,,,,,,,,,,,,,,,,,,,,,,,,,,,,,,,,,,,,,,,,,,,,,,,,,,,,,,,,,,,,,,,,,,,,,,,,,,,,,,,
,,,,,,603953e7302d0728f1519ad7,629c51b733f83b5dbddc8598,2022-06-05_08h49.53.648,Colour_Asymmetry_Pilot,2022.1.3,Win32,119.6601651,629c4b6caf241d5e6e00bfc0,0,21,21,91,1,twofour,,,,,,,,,,,,,,,,,,,,,,,,,,,,,,,,,,,,,,,,,,,,,,,,,,,,,,,,,,,,,,,,,,,,,,,,,,,,,,,,,,,,,,,,,,,,,,,,,,,,,,,,,,,,,,,,,,,,,,,,,,,,,,,,,,,,,,,,,,,,,
,,,,,,603953e7302d0728f1519ad7,629c51b733f83b5dbddc8598,2022-06-05_08h49.53.648,Colour_Asymmetry_Pilot,2022.1.3,Win32,119.6601651,629c4b6caf241d5e6e00bfc0,0,22,22,7,1,fourthree,,,,,,,,,,,,,,,,,,,,,,,,,,,,,,,,,,,,,,,,,,,,,,,,,,,,,,,,,,,,,,,,,,,,,,,,,,,,,,,,,,,,,,,,,,,,,,,,,,,,,,,,,,,,,,,,,,,,,,,,,,,,,,,,,,,,,,,,,,,,,
,,,,,,603953e7302d0728f1519ad7,629c51b733f83b5dbddc8598,2022-06-05_08h49.53.648,Colour_Asymmetry_Pilot,2022.1.3,Win32,119.6601651,629c4b6caf241d5e6e00bfc0,0,23,23,3,1,twofour,,,,,,,,,,,,,,,,,,,,,,,,,,,,,,,,,,,,,,,,,,,,,,,,,,,,,,,,,,,,,,,,,,,,,,,,,,,,,,,,,,,,,,,,,,,,,,,,,,,,,,,,,,,,,,,,,,,,,,,,,,,,,,,,,,,,,,,,,,,,,
,,,,,,603953e7302d0728f1519ad7,629c51b733f83b5dbddc8598,2022-06-05_08h49.53.648,Colour_Asymmetry_Pilot,2022.1.3,Win32,119.6601651,629c4b6caf241d5e6e00bfc0,0,24,24,87,1,fourthree,,,,,,,,,,,,,,,,,,,,,,,,,,,,,,,,,,,,,,,,,,,,,,,,,,,,,,,,,,,,,,,,,,,,,,,,,,,,,,,,,,,,,,,,,,,,,,,,,,,,,,,,,,,,,,,,,,,,,,,,,,,,,,,,,,,,,,,,,,,,,
,,,,,,603953e7302d0728f1519ad7,629c51b733f83b5dbddc8598,2022-06-05_08h49.53.648,Colour_Asymmetry_Pilot,2022.1.3,Win32,119.6601651,629c4b6caf241d5e6e00bfc0,0,25,25,24,1,onetwo,,,,,,,,,,,,,,,,,,,,,,,,,,,,,,,,,,,,,,,,,,,,,,,,,,,,,,,,,,,,,,,,,,,,,,,,,,,,,,,,,,,,,,,,,,,,,,,,,,,,,,,,,,,,,,,,,,,,,,,,,,,,,,,,,,,,,,,,,,,,,
,,,,,,603953e7302d0728f1519ad7,629c51b733f83b5dbddc8598,2022-06-05_08h49.53.648,Colour_Asymmetry_Pilot,2022.1.3,Win32,119.6601651,629c4b6caf241d5e6e00bfc0,0,26,26,88,1,onetwo,,,,,,,,,,,,,,,,,,,,,,,,,,,,,,,,,,,,,,,,,,,,,,,,,,,,,,,,,,,,,,,,,,,,,,,,,,,,,,,,,,,,,,,,,,,,,,,,,,,,,,,,,,,,,,,,,,,,,,,,,,,,,,,,,,,,,,,,,,,,,
,,,,,,603953e7302d0728f1519ad7,629c51b733f83b5dbddc8598,2022-06-05_08h49.53.648,Colour_Asymmetry_Pilot,2022.1.3,Win32,119.6601651,629c4b6caf241d5e6e00bfc0,0,27,27,76,1,threeone,,,,,,,,,,,,,,,,,,,,,,,,,,,,,,,,,,,,,,,,,,,,,,,,,,,,,,,,,,,,,,,,,,,,,,,,,,,,,,,,,,,,,,,,,,,,,,,,,,,,,,,,,,,,,,,,,,,,,,,,,,,,,,,,,,,,,,,,,,,,,
,,,,,,603953e7302d0728f1519ad7,629c51b733f83b5dbddc8598,2022-06-05_08h49.53.648,Colour_Asymmetry_Pilot,2022.1.3,Win32,119.6601651,629c4b6caf241d5e6e00bfc0,0,28,28,73,1,onethree,,,,,,,,,,,,,,,,,,,,,,,,,,,,,,,,,,,,,,,,,,,,,,,,,,,,,,,,,,,,,,,,,,,,,,,,,,,,,,,,,,,,,,,,,,,,,,,,,,,,,,,,,,,,,,,,,,,,,,,,,,,,,,,,,,,,,,,,,,,,,
,,,,,,603953e7302d0728f1519ad7,629c51b733f83b5dbddc8598,2022-06-05_08h49.53.648,Colour_Asymmetry_Pilot,2022.1.3,Win32,119.6601651,629c4b6caf241d5e6e00bfc0,0,29,29,102,1,fourtwo,,,,,,,,,,,,,,,,,,,,,,,,,,,,,,,,,,,,,,,,,,,,,,,,,,,,,,,,,,,,,,,,,,,,,,,,,,,,,,,,,,,,,,,,,,,,,,,,,,,,,,,,,,,,,,,,,,,,,,,,,,,,,,,,,,,,,,,,,,,,,
,,,,,,603953e7302d0728f1519ad7,629c51b733f83b5dbddc8598,2022-06-05_08h49.53.648,Colour_Asymmetry_Pilot,2022.1.3,Win32,119.6601651,629c4b6caf241d5e6e00bfc0,0,30,30,113,1,onethree,,,,,,,,,,,,,,,,,,,,,,,,,,,,,,,,,,,,,,,,,,,,,,,,,,,,,,,,,,,,,,,,,,,,,,,,,,,,,,,,,,,,,,,,,,,,,,,,,,,,,,,,,,,,,,,,,,,,,,,,,,,,,,,,,,,,,,,,,,,,,
,,,,,,603953e7302d0728f1519ad7,629c51b733f83b5dbddc8598,2022-06-05_08h49.53.648,Colour_Asymmetry_Pilot,2022.1.3,Win32,119.6601651,629c4b6caf241d5e6e00bfc0,0,31,31,57,1,onethree,,,,,,,,,,,,,,,,,,,,,,,,,,,,,,,,,,,,,,,,,,,,,,,,,,,,,,,,,,,,,,,,,,,,,,,,,,,,,,,,,,,,,,,,,,,,,,,,,,,,,,,,,,,,,,,,,,,,,,,,,,,,,,,,,,,,,,,,,,,,,
,,,,,,603953e7302d0728f1519ad7,629c51b733f83b5dbddc8598,2022-06-05_08h49.53.648,Colour_Asymmetry_Pilot,2022.1.3,Win32,119.6601651,629c4b6caf241d5e6e00bfc0,0,32,32,6,1,fourtwo,,,,,,,,,,,,,,,,,,,,,,,,,,,,,,,,,,,,,,,,,,,,,,,,,,,,,,,,,,,,,,,,,,,,,,,,,,,,,,,,,,,,,,,,,,,,,,,,,,,,,,,,,,,,,,,,,,,,,,,,,,,,,,,,,,,,,,,,,,,,,
,,,,,,603953e7302d0728f1519ad7,629c51b733f83b5dbddc8598,2022-06-05_08h49.53.648,Colour_Asymmetry_Pilot,2022.1.3,Win32,119.6601651,629c4b6caf241d5e6e00bfc0,0,33,33,51,1,twofour,,,,,,,,,,,,,,,,,,,,,,,,,,,,,,,,,,,,,,,,,,,,,,,,,,,,,,,,,,,,,,,,,,,,,,,,,,,,,,,,,,,,,,,,,,,,,,,,,,,,,,,,,,,,,,,,,,,,,,,,,,,,,,,,,,,,,,,,,,,,,
,,,,,,603953e7302d0728f1519ad7,629c51b733f83b5dbddc8598,2022-06-05_08h49.53.648,Colour_Asymmetry_Pilot,2022.1.3,Win32,119.6601651,629c4b6caf241d5e6e00bfc0,0,34,34,70,1,fourtwo,,,,,,,,,,,,,,,,,,,,,,,,,,,,,,,,,,,,,,,,,,,,,,,,,,,,,,,,,,,,,,,,,,,,,,,,,,,,,,,,,,,,,,,,,,,,,,,,,,,,,,,,,,,,,,,,,,,,,,,,,,,,,,,,,,,,,,,,,,,,,
,,,,,,603953e7302d0728f1519ad7,629c51b733f83b5dbddc8598,2022-06-05_08h49.53.648,Colour_Asymmetry_Pilot,2022.1.3,Win32,119.6601651,629c4b6caf241d5e6e00bfc0,0,35,35,104,1,onetwo,,,,,,,,,,,,,,,,,,,,,,,,,,,,,,,,,,,,,,,,,,,,,,,,,,,,,,,,,,,,,,,,,,,,,,,,,,,,,,,,,,,,,,,,,,,,,,,,,,,,,,,,,,,,,,,,,,,,,,,,,,,,,,,,,,,,,,,,,,,,,
,,,,,,603953e7302d0728f1519ad7,629c51b733f83b5dbddc8598,2022-06-05_08h49.53.648,Colour_Asymmetry_Pilot,2022.1.3,Win32,119.6601651,629c4b6caf241d5e6e00bfc0,0,36,36,32,1,onetwo,,,,,,,,,,,,,,,,,,,,,,,,,,,,,,,,,,,,,,,,,,,,,,,,,,,,,,,,,,,,,,,,,,,,,,,,,,,,,,,,,,,,,,,,,,,,,,,,,,,,,,,,,,,,,,,,,,,,,,,,,,,,,,,,,,,,,,,,,,,,,
,,,,,,603953e7302d0728f1519ad7,629c51b733f83b5dbddc8598,2022-06-05_08h49.53.648,Colour_Asymmetry_Pilot,2022.1.3,Win32,119.6601651,629c4b6caf241d5e6e00bfc0,0,37,37,112,1,onetwo,,,,,,,,,,,,,,,,,,,,,,,,,,,,,,,,,,,,,,,,,,,,,,,,,,,,,,,,,,,,,,,,,,,,,,,,,,,,,,,,,,,,,,,,,,,,,,,,,,,,,,,,,,,,,,,,,,,,,,,,,,,,,,,,,,,,,,,,,,,,,
,,,,,,603953e7302d0728f1519ad7,629c51b733f83b5dbddc8598,2022-06-05_08h49.53.648,Colour_Asymmetry_Pilot,2022.1.3,Win32,119.6601651,629c4b6caf241d5e6e00bfc0,0,38,38,71,1,fourthree,,,,,,,,,,,,,,,,,,,,,,,,,,,,,,,,,,,,,,,,,,,,,,,,,,,,,,,,,,,,,,,,,,,,,,,,,,,,,,,,,,,,,,,,,,,,,,,,,,,,,,,,,,,,,,,,,,,,,,,,,,,,,,,,,,,,,,,,,,,,,
,,,,,,603953e7302d0728f1519ad7,629c51b733f83b5dbddc8598,2022-06-05_08h49.53.648,Colour_Asymmetry_Pilot,2022.1.3,Win32,119.6601651,629c4b6caf241d5e6e00bfc0,0,39,39,34,1,twoone,,,,,,,,,,,,,,,,,,,,,,,,,,,,,,,,,,,,,,,,,,,,,,,,,,,,,,,,,,,,,,,,,,,,,,,,,,,,,,,,,,,,,,,,,,,,,,,,,,,,,,,,,,,,,,,,,,,,,,,,,,,,,,,,,,,,,,,,,,,,,
,,,,,,603953e7302d0728f1519ad7,629c51b733f83b5dbddc8598,2022-06-05_08h49.53.648,Colour_Asymmetry_Pilot,2022.1.3,Win32,119.6601651,629c4b6caf241d5e6e00bfc0,0,40,40,128,1,onetwo,,,,,,,,,,,,,,,,,,,,,,,,,,,,,,,,,,,,,,,,,,,,,,,,,,,,,,,,,,,,,,,,,,,,,,,,,,,,,,,,,,,,,,,,,,,,,,,,,,,,,,,,,,,,,,,,,,,,,,,,,,,,,,,,,,,,,,,,,,,,,
,,,,,,603953e7302d0728f1519ad7,629c51b733f83b5dbddc8598,2022-06-05_08h49.53.648,Colour_Asymmetry_Pilot,2022.1.3,Win32,119.6601651,629c4b6caf241d5e6e00bfc0,0,41,41,4,1,threeone,,,,,,,,,,,,,,,,,,,,,,,,,,,,,,,,,,,,,,,,,,,,,,,,,,,,,,,,,,,,,,,,,,,,,,,,,,,,,,,,,,,,,,,,,,,,,,,,,,,,,,,,,,,,,,,,,,,,,,,,,,,,,,,,,,,,,,,,,,,,,
,,,,,,603953e7302d0728f1519ad7,629c51b733f83b5dbddc8598,2022-06-05_08h49.53.648,Colour_Asymmetry_Pilot,2022.1.3,Win32,119.6601651,629c4b6caf241d5e6e00bfc0,0,42,42,143,1,fourthree,,,,,,,,,,,,,,,,,,,,,,,,,,,,,,,,,,,,,,,,,,,,,,,,,,,,,,,,,,,,,,,,,,,,,,,,,,,,,,,,,,,,,,,,,,,,,,,,,,,,,,,,,,,,,,,,,,,,,,,,,,,,,,,,,,,,,,,,,,,,,
,,,,,,603953e7302d0728f1519ad7,629c51b733f83b5dbddc8598,2022-06-05_08h49.53.648,Colour_Asymmetry_Pilot,2022.1.3,Win32,119.6601651,629c4b6caf241d5e6e00bfc0,0,43,43,140,1,threeone,,,,,,,,,,,,,,,,,,,,,,,,,,,,,,,,,,,,,,,,,,,,,,,,,,,,,,,,,,,,,,,,,,,,,,,,,,,,,,,,,,,,,,,,,,,,,,,,,,,,,,,,,,,,,,,,,,,,,,,,,,,,,,,,,,,,,,,,,,,,,
,,,,,,603953e7302d0728f1519ad7,629c51b733f83b5dbddc8598,2022-06-05_08h49.53.648,Colour_Asymmetry_Pilot,2022.1.3,Win32,119.6601651,629c4b6caf241d5e6e00bfc0,0,44,44,161,1,onethree,,,,,,,,,,,,,,,,,,,,,,,,,,,,,,,,,,,,,,,,,,,,,,,,,,,,,,,,,,,,,,,,,,,,,,,,,,,,,,,,,,,,,,,,,,,,,,,,,,,,,,,,,,,,,,,,,,,,,,,,,,,,,,,,,,,,,,,,,,,,,
,,,,,,603953e7302d0728f1519ad7,629c51b733f83b5dbddc8598,2022-06-05_08h49.53.648,Colour_Asymmetry_Pilot,2022.1.3,Win32,119.6601651,629c4b6caf241d5e6e00bfc0,0,45,45,44,1,threeone,,,,,,,,,,,,,,,,,,,,,,,,,,,,,,,,,,,,,,,,,,,,,,,,,,,,,,,,,,,,,,,,,,,,,,,,,,,,,,,,,,,,,,,,,,,,,,,,,,,,,,,,,,,,,,,,,,,,,,,,,,,,,,,,,,,,,,,,,,,,,
,,,,,,603953e7302d0728f1519ad7,629c51b733f83b5dbddc8598,2022-06-05_08h49.53.648,Colour_Asymmetry_Pilot,2022.1.3,Win32,119.6601651,629c4b6caf241d5e6e00bfc0,0,46,46,132,1,threeone,,,,,,,,,,,,,,,,,,,,,,,,,,,,,,,,,,,,,,,,,,,,,,,,,,,,,,,,,,,,,,,,,,,,,,,,,,,,,,,,,,,,,,,,,,,,,,,,,,,,,,,,,,,,,,,,,,,,,,,,,,,,,,,,,,,,,,,,,,,,,
,,,,,,603953e7302d0728f1519ad7,629c51b733f83b5dbddc8598,2022-06-05_08h49.53.648,Colour_Asymmetry_Pilot,2022.1.3,Win32,119.6601651,629c4b6caf241d5e6e00bfc0,0,47,47,110,1,fourtwo,,,,,,,,,,,,,,,,,,,,,,,,,,,,,,,,,,,,,,,,,,,,,,,,,,,,,,,,,,,,,,,,,,,,,,,,,,,,,,,,,,,,,,,,,,,,,,,,,,,,,,,,,,,,,,,,,,,,,,,,,,,,,,,,,,,,,,,,,,,,,
,,,,,,603953e7302d0728f1519ad7,629c51b733f83b5dbddc8598,2022-06-05_08h49.53.648,Colour_Asymmetry_Pilot,2022.1.3,Win32,119.6601651,629c4b6caf241d5e6e00bfc0,0,48,48,2,1,twoone,,,,,,,,,,,,,,,,,,,,,,,,,,,,,,,,,,,,,,,,,,,,,,,,,,,,,,,,,,,,,,,,,,,,,,,,,,,,,,,,,,,,,,,,,,,,,,,,,,,,,,,,,,,,,,,,,,,,,,,,,,,,,,,,,,,,,,,,,,,,,
,,,,,,603953e7302d0728f1519ad7,629c51b733f83b5dbddc8598,2022-06-05_08h49.53.648,Colour_Asymmetry_Pilot,2022.1.3,Win32,119.6601651,629c4b6caf241d5e6e00bfc0,0,49,49,92,1,threeone,,,,,,,,,,,,,,,,,,,,,,,,,,,,,,,,,,,,,,,,,,,,,,,,,,,,,,,,,,,,,,,,,,,,,,,,,,,,,,,,,,,,,,,,,,,,,,,,,,,,,,,,,,,,,,,,,,,,,,,,,,,,,,,,,,,,,,,,,,,,,
,,,,,,603953e7302d0728f1519ad7,629c51b733f83b5dbddc8598,2022-06-05_08h49.53.648,Colour_Asymmetry_Pilot,2022.1.3,Win32,119.6601651,629c4b6caf241d5e6e00bfc0,0,50,50,134,1,fourtwo,,,,,,,,,,,,,,,,,,,,,,,,,,,,,,,,,,,,,,,,,,,,,,,,,,,,,,,,,,,,,,,,,,,,,,,,,,,,,,,,,,,,,,,,,,,,,,,,,,,,,,,,,,,,,,,,,,,,,,,,,,,,,,,,,,,,,,,,,,,,,
,,,,,,603953e7302d0728f1519ad7,629c51b733f83b5dbddc8598,2022-06-05_08h49.53.648,Colour_Asymmetry_Pilot,2022.1.3,Win32,119.6601651,629c4b6caf241d5e6e00bfc0,0,51,51,100,1,threeone,,,,,,,,,,,,,,,,,,,,,,,,,,,,,,,,,,,,,,,,,,,,,,,,,,,,,,,,,,,,,,,,,,,,,,,,,,,,,,,,,,,,,,,,,,,,,,,,,,,,,,,,,,,,,,,,,,,,,,,,,,,,,,,,,,,,,,,,,,,,,
,,,,,,603953e7302d0728f1519ad7,629c51b733f83b5dbddc8598,2022-06-05_08h49.53.648,Colour_Asymmetry_Pilot,2022.1.3,Win32,119.6601651,629c4b6caf241d5e6e00bfc0,0,52,52,62,1,fourtwo,,,,,,,,,,,,,,,,,,,,,,,,,,,,,,,,,,,,,,,,,,,,,,,,,,,,,,,,,,,,,,,,,,,,,,,,,,,,,,,,,,,,,,,,,,,,,,,,,,,,,,,,,,,,,,,,,,,,,,,,,,,,,,,,,,,,,,,,,,,,,
,,,,,,603953e7302d0728f1519ad7,629c51b733f83b5dbddc8598,2022-06-05_08h49.53.648,Colour_Asymmetry_Pilot,2022.1.3,Win32,119.6601651,629c4b6caf241d5e6e00bfc0,0,53,53,45,1,threefour,,,,,,,,,,,,,,,,,,,,,,,,,,,,,,,,,,,,,,,,,,,,,,,,,,,,,,,,,,,,,,,,,,,,,,,,,,,,,,,,,,,,,,,,,,,,,,,,,,,,,,,,,,,,,,,,,,,,,,,,,,,,,,,,,,,,,,,,,,,,,
,,,,,,603953e7302d0728f1519ad7,629c51b733f83b5dbddc8598,2022-06-05_08h49.53.648,Colour_Asymmetry_Pilot,2022.1.3,Win32,119.6601651,629c4b6caf241d5e6e00bfc0,0,54,54,39,1,fourthree,,,,,,,,,,,,,,,,,,,,,,,,,,,,,,,,,,,,,,,,,,,,,,,,,,,,,,,,,,,,,,,,,,,,,,,,,,,,,,,,,,,,,,,,,,,,,,,,,,,,,,,,,,,,,,,,,,,,,,,,,,,,,,,,,,,,,,,,,,,,,
,,,,,,603953e7302d0728f1519ad7,629c51b733f83b5dbddc8598,2022-06-05_08h49.53.648,Colour_Asymmetry_Pilot,2022.1.3,Win32,119.6601651,629c4b6caf241d5e6e00bfc0,0,55,55,1,1,onethree,,,,,,,,,,,,,,,,,,,,,,,,,,,,,,,,,,,,,,,,,,,,,,,,,,,,,,,,,,,,,,,,,,,,,,,,,,,,,,,,,,,,,,,,,,,,,,,,,,,,,,,,,,,,,,,,,,,,,,,,,,,,,,,,,,,,,,,,,,,,,
,,,,,,603953e7302d0728f1519ad7,629c51b733f83b5dbddc8598,2022-06-05_08h49.53.648,Colour_Asymmetry_Pilot,2022.1.3,Win32,119.6601651,629c4b6caf241d5e6e00bfc0,0,56,56,41,1,onethree,,,,,,,,,,,,,,,,,,,,,,,,,,,,,,,,,,,,,,,,,,,,,,,,,,,,,,,,,,,,,,,,,,,,,,,,,,,,,,,,,,,,,,,,,,,,,,,,,,,,,,,,,,,,,,,,,,,,,,,,,,,,,,,,,,,,,,,,,,,,,
,,,,,,603953e7302d0728f1519ad7,629c51b733f83b5dbddc8598,2022-06-05_08h49.53.648,Colour_Asymmetry_Pilot,2022.1.3,Win32,119.6601651,629c4b6caf241d5e6e00bfc0,0,57,57,30,1,fourtwo,,,,,,,,,,,,,,,,,,,,,,,,,,,,,,,,,,,,,,,,,,,,,,,,,,,,,,,,,,,,,,,,,,,,,,,,,,,,,,,,,,,,,,,,,,,,,,,,,,,,,,,,,,,,,,,,,,,,,,,,,,,,,,,,,,,,,,,,,,,,,
,,,,,,603953e7302d0728f1519ad7,629c51b733f83b5dbddc8598,2022-06-05_08h49.53.648,Colour_Asymmetry_Pilot,2022.1.3,Win32,119.6601651,629c4b6caf241d5e6e00bfc0,0,58,58,116,1,threeone,,,,,,,,,,,,,,,,,,,,,,,,,,,,,,,,,,,,,,,,,,,,,,,,,,,,,,,,,,,,,,,,,,,,,,,,,,,,,,,,,,,,,,,,,,,,,,,,,,,,,,,,,,,,,,,,,,,,,,,,,,,,,,,,,,,,,,,,,,,,,
,,,,,,603953e7302d0728f1519ad7,629c51b733f83b5dbddc8598,2022-06-05_08h49.53.648,Colour_Asymmetry_Pilot,2022.1.3,Win32,119.6601651,629c4b6caf241d5e6e00bfc0,0,59,59,20,1,threeone,,,,,,,,,,,,,,,,,,,,,,,,,,,,,,,,,,,,,,,,,,,,,,,,,,,,,,,,,,,,,,,,,,,,,,,,,,,,,,,,,,,,,,,,,,,,,,,,,,,,,,,,,,,,,,,,,,,,,,,,,,,,,,,,,,,,,,,,,,,,,
,,,,,,603953e7302d0728f1519ad7,629c51b733f83b5dbddc8598,2022-06-05_08h49.53.648,Colour_Asymmetry_Pilot,2022.1.3,Win32,119.6601651,629c4b6caf241d5e6e00bfc0,0,60,60,26,1,twoone,,,,,,,,,,,,,,,,,,,,,,,,,,,,,,,,,,,,,,,,,,,,,,,,,,,,,,,,,,,,,,,,,,,,,,,,,,,,,,,,,,,,,,,,,,,,,,,,,,,,,,,,,,,,,,,,,,,,,,,,,,,,,,,,,,,,,,,,,,,,,
,,,,,,603953e7302d0728f1519ad7,629c51b733f83b5dbddc8598,2022-06-05_08h49.53.648,Colour_Asymmetry_Pilot,2022.1.3,Win32,119.6601651,629c4b6caf241d5e6e00bfc0,0,61,61,129,1,onethree,,,,,,,,,,,,,,,,,,,,,,,,,,,,,,,,,,,,,,,,,,,,,,,,,,,,,,,,,,,,,,,,,,,,,,,,,,,,,,,,,,,,,,,,,,,,,,,,,,,,,,,,,,,,,,,,,,,,,,,,,,,,,,,,,,,,,,,,,,,,,
,,,,,,603953e7302d0728f1519ad7,629c51b733f83b5dbddc8598,2022-06-05_08h49.53.648,Colour_Asymmetry_Pilot,2022.1.3,Win32,119.6601651,629c4b6caf241d5e6e00bfc0,0,62,62,59,1,twofour,,,,,,,,,,,,,,,,,,,,,,,,,,,,,,,,,,,,,,,,,,,,,,,,,,,,,,,,,,,,,,,,,,,,,,,,,,,,,,,,,,,,,,,,,,,,,,,,,,,,,,,,,,,,,,,,,,,,,,,,,,,,,,,,,,,,,,,,,,,,,
,,,,,,603953e7302d0728f1519ad7,629c51b733f83b5dbddc8598,2022-06-05_08h49.53.648,Colour_Asymmetry_Pilot,2022.1.3,Win32,119.6601651,629c4b6caf241d5e6e00bfc0,0,63,63,122,1,twoone,,,,,,,,,,,,,,,,,,,,,,,,,,,,,,,,,,,,,,,,,,,,,,,,,,,,,,,,,,,,,,,,,,,,,,,,,,,,,,,,,,,,,,,,,,,,,,,,,,,,,,,,,,,,,,,,,,,,,,,,,,,,,,,,,,,,,,,,,,,,,
,,,,,,603953e7302d0728f1519ad7,629c51b733f83b5dbddc8598,2022-06-05_08h49.53.648,Colour_Asymmetry_Pilot,2022.1.3,Win32,119.6601651,629c4b6caf241d5e6e00bfc0,0,64,64,93,1,threefour,,,,,,,,,,,,,,,,,,,,,,,,,,,,,,,,,,,,,,,,,,,,,,,,,,,,,,,,,,,,,,,,,,,,,,,,,,,,,,,,,,,,,,,,,,,,,,,,,,,,,,,,,,,,,,,,,,,,,,,,,,,,,,,,,,,,,,,,,,,,,
,,,,,,603953e7302d0728f1519ad7,629c51b733f83b5dbddc8598,2022-06-05_08h49.53.648,Colour_Asymmetry_Pilot,2022.1.3,Win32,119.6601651,629c4b6caf241d5e6e00bfc0,0,65,65,141,1,threefour,,,,,,,,,,,,,,,,,,,,,,,,,,,,,,,,,,,,,,,,,,,,,,,,,,,,,,,,,,,,,,,,,,,,,,,,,,,,,,,,,,,,,,,,,,,,,,,,,,,,,,,,,,,,,,,,,,,,,,,,,,,,,,,,,,,,,,,,,,,,,
,,,,,,603953e7302d0728f1519ad7,629c51b733f83b5dbddc8598,2022-06-05_08h49.53.648,Colour_Asymmetry_Pilot,2022.1.3,Win32,119.6601651,629c4b6caf241d5e6e00bfc0,0,66,66,29,1,threefour,,,,,,,,,,,,,,,,,,,,,,,,,,,,,,,,,,,,,,,,,,,,,,,,,,,,,,,,,,,,,,,,,,,,,,,,,,,,,,,,,,,,,,,,,,,,,,,,,,,,,,,,,,,,,,,,,,,,,,,,,,,,,,,,,,,,,,,,,,,,,
,,,,,,603953e7302d0728f1519ad7,629c51b733f83b5dbddc8598,2022-06-05_08h49.53.648,Colour_Asymmetry_Pilot,2022.1.3,Win32,119.6601651,629c4b6caf241d5e6e00bfc0,0,67,67,86,1,fourtwo,,,,,,,,,,,,,,,,,,,,,,,,,,,,,,,,,,,,,,,,,,,,,,,,,,,,,,,,,,,,,,,,,,,,,,,,,,,,,,,,,,,,,,,,,,,,,,,,,,,,,,,,,,,,,,,,,,,,,,,,,,,,,,,,,,,,,,,,,,,,,
,,,,,,603953e7302d0728f1519ad7,629c51b733f83b5dbddc8598,2022-06-05_08h49.53.648,Colour_Asymmetry_Pilot,2022.1.3,Win32,119.6601651,629c4b6caf241d5e6e00bfc0,0,68,68,97,1,onethree,,,,,,,,,,,,,,,,,,,,,,,,,,,,,,,,,,,,,,,,,,,,,,,,,,,,,,,,,,,,,,,,,,,,,,,,,,,,,,,,,,,,,,,,,,,,,,,,,,,,,,,,,,,,,,,,,,,,,,,,,,,,,,,,,,,,,,,,,,,,,
,,,,,,603953e7302d0728f1519ad7,629c51b733f83b5dbddc8598,2022-06-05_08h49.53.648,Colour_Asymmetry_Pilot,2022.1.3,Win32,119.6601651,629c4b6caf241d5e6e00bfc0,0,69,69,137,1,onethree,,,,,,,,,,,,,,,,,,,,,,,,,,,,,,,,,,,,,,,,,,,,,,,,,,,,,,,,,,,,,,,,,,,,,,,,,,,,,,,,,,,,,,,,,,,,,,,,,,,,,,,,,,,,,,,,,,,,,,,,,,,,,,,,,,,,,,,,,,,,,
,,,,,,603953e7302d0728f1519ad7,629c51b733f83b5dbddc8598,2022-06-05_08h49.53.648,Colour_Asymmetry_Pilot,2022.1.3,Win32,119.6601651,629c4b6caf241d5e6e00bfc0,0,70,70,119,1,fourthree,,,,,,,,,,,,,,,,,,,,,,,,,,,,,,,,,,,,,,,,,,,,,,,,,,,,,,,,,,,,,,,,,,,,,,,,,,,,,,,,,,,,,,,,,,,,,,,,,,,,,,,,,,,,,,,,,,,,,,,,,,,,,,,,,,,,,,,,,,,,,
,,,,,,603953e7302d0728f1519ad7,629c51b733f83b5dbddc8598,2022-06-05_08h49.53.648,Colour_Asymmetry_Pilot,2022.1.3,Win32,119.6601651,629c4b6caf241d5e6e00bfc0,0,71,71,58,1,twoone,,,,,,,,,,,,,,,,,,,,,,,,,,,,,,,,,,,,,,,,,,,,,,,,,,,,,,,,,,,,,,,,,,,,,,,,,,,,,,,,,,,,,,,,,,,,,,,,,,,,,,,,,,,,,,,,,,,,,,,,,,,,,,,,,,,,,,,,,,,,,
,,,,,,603953e7302d0728f1519ad7,629c51b733f83b5dbddc8598,2022-06-05_08h49.53.648,Colour_Asymmetry_Pilot,2022.1.3,Win32,119.6601651,629c4b6caf241d5e6e00bfc0,0,72,72,50,1,twoone,,,,,,,,,,,,,,,,,,,,,,,,,,,,,,,,,,,,,,,,,,,,,,,,,,,,,,,,,,,,,,,,,,,,,,,,,,,,,,,,,,,,,,,,,,,,,,,,,,,,,,,,,,,,,,,,,,,,,,,,,,,,,,,,,,,,,,,,,,,,,
,,,,,,603953e7302d0728f1519ad7,629c51b733f83b5dbddc8598,2022-06-05_08h49.53.648,Colour_Asymmetry_Pilot,2022.1.3,Win32,119.6601651,629c4b6caf241d5e6e00bfc0,0,73,73,60,1,threeone,,,,,,,,,,,,,,,,,,,,,,,,,,,,,,,,,,,,,,,,,,,,,,,,,,,,,,,,,,,,,,,,,,,,,,,,,,,,,,,,,,,,,,,,,,,,,,,,,,,,,,,,,,,,,,,,,,,,,,,,,,,,,,,,,,,,,,,,,,,,,
,,,,,,603953e7302d0728f1519ad7,629c51b733f83b5dbddc8598,2022-06-05_08h49.53.648,Colour_Asymmetry_Pilot,2022.1.3,Win32,119.6601651,629c4b6caf241d5e6e00bfc0,0,74,74,98,1,twoone,,,,,,,,,,,,,,,,,,,,,,,,,,,,,,,,,,,,,,,,,,,,,,,,,,,,,,,,,,,,,,,,,,,,,,,,,,,,,,,,,,,,,,,,,,,,,,,,,,,,,,,,,,,,,,,,,,,,,,,,,,,,,,,,,,,,,,,,,,,,,
,,,,,,603953e7302d0728f1519ad7,629c51b733f83b5dbddc8598,2022-06-05_08h49.53.648,Colour_Asymmetry_Pilot,2022.1.3,Win32,119.6601651,629c4b6caf241d5e6e00bfc0,0,75,75,125,1,threefour,,,,,,,,,,,,,,,,,,,,,,,,,,,,,,,,,,,,,,,,,,,,,,,,,,,,,,,,,,,,,,,,,,,,,,,,,,,,,,,,,,,,,,,,,,,,,,,,,,,,,,,,,,,,,,,,,,,,,,,,,,,,,,,,,,,,,,,,,,,,,
,,,,,,603953e7302d0728f1519ad7,629c51b733f83b5dbddc8598,2022-06-05_08h49.53.648,Colour_Asymmetry_Pilot,2022.1.3,Win32,119.6601651,629c4b6caf241d5e6e00bfc0,0,76,76,106,1,twoone,,,,,,,,,,,,,,,,,,,,,,,,,,,,,,,,,,,,,,,,,,,,,,,,,,,,,,,,,,,,,,,,,,,,,,,,,,,,,,,,,,,,,,,,,,,,,,,,,,,,,,,,,,,,,,,,,,,,,,,,,,,,,,,,,,,,,,,,,,,,,
,,,,,,603953e7302d0728f1519ad7,629c51b733f83b5dbddc8598,2022-06-05_08h49.53.648,Colour_Asymmetry_Pilot,2022.1.3,Win32,119.6601651,629c4b6caf241d5e6e00bfc0,0,77,77,109,1,threefour,,,,,,,,,,,,,,,,,,,,,,,,,,,,,,,,,,,,,,,,,,,,,,,,,,,,,,,,,,,,,,,,,,,,,,,,,,,,,,,,,,,,,,,,,,,,,,,,,,,,,,,,,,,,,,,,,,,,,,,,,,,,,,,,,,,,,,,,,,,,,
,,,,,,603953e7302d0728f1519ad7,629c51b733f83b5dbddc8598,2022-06-05_08h49.53.648,Colour_Asymmetry_Pilot,2022.1.3,Win32,119.6601651,629c4b6caf241d5e6e00bfc0,0,78,78,115,1,twofour,,,,,,,,,,,,,,,,,,,,,,,,,,,,,,,,,,,,,,,,,,,,,,,,,,,,,,,,,,,,,,,,,,,,,,,,,,,,,,,,,,,,,,,,,,,,,,,,,,,,,,,,,,,,,,,,,,,,,,,,,,,,,,,,,,,,,,,,,,,,,
,,,,,,603953e7302d0728f1519ad7,629c51b733f83b5dbddc8598,2022-06-05_08h49.53.648,Colour_Asymmetry_Pilot,2022.1.3,Win32,119.6601651,629c4b6caf241d5e6e00bfc0,0,79,79,61,1,threefour,,,,,,,,,,,,,,,,,,,,,,,,,,,,,,,,,,,,,,,,,,,,,,,,,,,,,,,,,,,,,,,,,,,,,,,,,,,,,,,,,,,,,,,,,,,,,,,,,,,,,,,,,,,,,,,,,,,,,,,,,,,,,,,,,,,,,,,,,,,,,
,,,,,,603953e7302d0728f1519ad7,629c51b733f83b5dbddc8598,2022-06-05_08h49.53.648,Colour_Asymmetry_Pilot,2022.1.3,Win32,119.6601651,629c4b6caf241d5e6e00bfc0,0,80,80,124,1,threeone,,,,,,,,,,,,,,,,,,,,,,,,,,,,,,,,,,,,,,,,,,,,,,,,,,,,,,,,,,,,,,,,,,,,,,,,,,,,,,,,,,,,,,,,,,,,,,,,,,,,,,,,,,,,,,,,,,,,,,,,,,,,,,,,,,,,,,,,,,,,,
,,,,,,603953e7302d0728f1519ad7,629c51b733f83b5dbddc8598,2022-06-05_08h49.53.648,Colour_Asymmetry_Pilot,2022.1.3,Win32,119.6601651,629c4b6caf241d5e6e00bfc0,0,81,81,9,1,onethree,,,,,,,,,,,,,,,,,,,,,,,,,,,,,,,,,,,,,,,,,,,,,,,,,,,,,,,,,,,,,,,,,,,,,,,,,,,,,,,,,,,,,,,,,,,,,,,,,,,,,,,,,,,,,,,,,,,,,,,,,,,,,,,,,,,,,,,,,,,,,
,,,,,,603953e7302d0728f1519ad7,629c51b733f83b5dbddc8598,2022-06-05_08h49.53.648,Colour_Asymmetry_Pilot,2022.1.3,Win32,119.6601651,629c4b6caf241d5e6e00bfc0,0,82,82,31,1,fourthree,,,,,,,,,,,,,,,,,,,,,,,,,,,,,,,,,,,,,,,,,,,,,,,,,,,,,,,,,,,,,,,,,,,,,,,,,,,,,,,,,,,,,,,,,,,,,,,,,,,,,,,,,,,,,,,,,,,,,,,,,,,,,,,,,,,,,,,,,,,,,
,,,,,,603953e7302d0728f1519ad7,629c51b733f83b5dbddc8598,2022-06-05_08h49.53.648,Colour_Asymmetry_Pilot,2022.1.3,Win32,119.6601651,629c4b6caf241d5e6e00bfc0,0,83,83,120,1,onetwo,,,,,,,,,,,,,,,,,,,,,,,,,,,,,,,,,,,,,,,,,,,,,,,,,,,,,,,,,,,,,,,,,,,,,,,,,,,,,,,,,,,,,,,,,,,,,,,,,,,,,,,,,,,,,,,,,,,,,,,,,,,,,,,,,,,,,,,,,,,,,
,,,,,,603953e7302d0728f1519ad7,629c51b733f83b5dbddc8598,2022-06-05_08h49.53.648,Colour_Asymmetry_Pilot,2022.1.3,Win32,119.6601651,629c4b6caf241d5e6e00bfc0,0,84,84,10,1,twoone,,,,,,,,,,,,,,,,,,,,,,,,,,,,,,,,,,,,,,,,,,,,,,,,,,,,,,,,,,,,,,,,,,,,,,,,,,,,,,,,,,,,,,,,,,,,,,,,,,,,,,,,,,,,,,,,,,,,,,,,,,,,,,,,,,,,,,,,,,,,,
,,,,,,603953e7302d0728f1519ad7,629c51b733f83b5dbddc8598,2022-06-05_08h49.53.648,Colour_Asymmetry_Pilot,2022.1.3,Win32,119.6601651,629c4b6caf241d5e6e00bfc0,0,85,85,5,1,threefour,,,,,,,,,,,,,,,,,,,,,,,,,,,,,,,,,,,,,,,,,,,,,,,,,,,,,,,,,,,,,,,,,,,,,,,,,,,,,,,,,,,,,,,,,,,,,,,,,,,,,,,,,,,,,,,,,,,,,,,,,,,,,,,,,,,,,,,,,,,,,
,,,,,,603953e7302d0728f1519ad7,629c51b733f83b5dbddc8598,2022-06-05_08h49.53.648,Colour_Asymmetry_Pilot,2022.1.3,Win32,119.6601651,629c4b6caf241d5e6e00bfc0,0,86,86,118,1,fourtwo,,,,,,,,,,,,,,,,,,,,,,,,,,,,,,,,,,,,,,,,,,,,,,,,,,,,,,,,,,,,,,,,,,,,,,,,,,,,,,,,,,,,,,,,,,,,,,,,,,,,,,,,,,,,,,,,,,,,,,,,,,,,,,,,,,,,,,,,,,,,,
,,,,,,603953e7302d0728f1519ad7,629c51b733f83b5dbddc8598,2022-06-05_08h49.53.648,Colour_Asymmetry_Pilot,2022.1.3,Win32,119.6601651,629c4b6caf241d5e6e00bfc0,0,87,87,78,1,fourtwo,,,,,,,,,,,,,,,,,,,,,,,,,,,,,,,,,,,,,,,,,,,,,,,,,,,,,,,,,,,,,,,,,,,,,,,,,,,,,,,,,,,,,,,,,,,,,,,,,,,,,,,,,,,,,,,,,,,,,,,,,,,,,,,,,,,,,,,,,,,,,
,,,,,,603953e7302d0728f1519ad7,629c51b733f83b5dbddc8598,2022-06-05_08h49.53.648,Colour_Asymmetry_Pilot,2022.1.3,Win32,119.6601651,629c4b6caf241d5e6e00bfc0,0,88,88,96,1,onetwo,,,,,,,,,,,,,,,,,,,,,,,,,,,,,,,,,,,,,,,,,,,,,,,,,,,,,,,,,,,,,,,,,,,,,,,,,,,,,,,,,,,,,,,,,,,,,,,,,,,,,,,,,,,,,,,,,,,,,,,,,,,,,,,,,,,,,,,,,,,,,
,,,,,,603953e7302d0728f1519ad7,629c51b733f83b5dbddc8598,2022-06-05_08h49.53.648,Colour_Asymmetry_Pilot,2022.1.3,Win32,119.6601651,629c4b6caf241d5e6e00bfc0,0,89,89,154,1,twoone,,,,,,,,,,,,,,,,,,,,,,,,,,,,,,,,,,,,,,,,,,,,,,,,,,,,,,,,,,,,,,,,,,,,,,,,,,,,,,,,,,,,,,,,,,,,,,,,,,,,,,,,,,,,,,,,,,,,,,,,,,,,,,,,,,,,,,,,,,,,,
,,,,,,603953e7302d0728f1519ad7,629c51b733f83b5dbddc8598,2022-06-05_08h49.53.648,Colour_Asymmetry_Pilot,2022.1.3,Win32,119.6601651,629c4b6caf241d5e6e00bfc0,0,90,90,157,1,threefour,,,,,,,,,,,,,,,,,,,,,,,,,,,,,,,,,,,,,,,,,,,,,,,,,,,,,,,,,,,,,,,,,,,,,,,,,,,,,,,,,,,,,,,,,,,,,,,,,,,,,,,,,,,,,,,,,,,,,,,,,,,,,,,,,,,,,,,,,,,,,
,,,,,,603953e7302d0728f1519ad7,629c51b733f83b5dbddc8598,2022-06-05_08h49.53.648,Colour_Asymmetry_Pilot,2022.1.3,Win32,119.6601651,629c4b6caf241d5e6e00bfc0,0,91,91,23,1,fourthree,,,,,,,,,,,,,,,,,,,,,,,,,,,,,,,,,,,,,,,,,,,,,,,,,,,,,,,,,,,,,,,,,,,,,,,,,,,,,,,,,,,,,,,,,,,,,,,,,,,,,,,,,,,,,,,,,,,,,,,,,,,,,,,,,,,,,,,,,,,,,
,,,,,,603953e7302d0728f1519ad7,629c51b733f83b5dbddc8598,2022-06-05_08h49.53.648,Colour_Asymmetry_Pilot,2022.1.3,Win32,119.6601651,629c4b6caf241d5e6e00bfc0,0,92,92,11,1,twofour,,,,,,,,,,,,,,,,,,,,,,,,,,,,,,,,,,,,,,,,,,,,,,,,,,,,,,,,,,,,,,,,,,,,,,,,,,,,,,,,,,,,,,,,,,,,,,,,,,,,,,,,,,,,,,,,,,,,,,,,,,,,,,,,,,,,,,,,,,,,,
,,,,,,603953e7302d0728f1519ad7,629c51b733f83b5dbddc8598,2022-06-05_08h49.53.648,Colour_Asymmetry_Pilot,2022.1.3,Win32,119.6601651,629c4b6caf241d5e6e00bfc0,0,93,93,14,1,fourtwo,,,,,,,,,,,,,,,,,,,,,,,,,,,,,,,,,,,,,,,,,,,,,,,,,,,,,,,,,,,,,,,,,,,,,,,,,,,,,,,,,,,,,,,,,,,,,,,,,,,,,,,,,,,,,,,,,,,,,,,,,,,,,,,,,,,,,,,,,,,,,
,,,,,,603953e7302d0728f1519ad7,629c51b733f83b5dbddc8598,2022-06-05_08h49.53.648,Colour_Asymmetry_Pilot,2022.1.3,Win32,119.6601651,629c4b6caf241d5e6e00bfc0,0,94,94,90,1,twoone,,,,,,,,,,,,,,,,,,,,,,,,,,,,,,,,,,,,,,,,,,,,,,,,,,,,,,,,,,,,,,,,,,,,,,,,,,,,,,,,,,,,,,,,,,,,,,,,,,,,,,,,,,,,,,,,,,,,,,,,,,,,,,,,,,,,,,,,,,,,,
,,,,,,603953e7302d0728f1519ad7,629c51b733f83b5dbddc8598,2022-06-05_08h49.53.648,Colour_Asymmetry_Pilot,2022.1.3,Win32,119.6601651,629c4b6caf241d5e6e00bfc0,0,95,95,121,1,onethree,,,,,,,,,,,,,,,,,,,,,,,,,,,,,,,,,,,,,,,,,,,,,,,,,,,,,,,,,,,,,,,,,,,,,,,,,,,,,,,,,,,,,,,,,,,,,,,,,,,,,,,,,,,,,,,,,,,,,,,,,,,,,,,,,,,,,,,,,,,,,
,,,,,,603953e7302d0728f1519ad7,629c51b733f83b5dbddc8598,2022-06-05_08h49.53.648,Colour_Asymmetry_Pilot,2022.1.3,Win32,119.6601651,629c4b6caf241d5e6e00bfc0,0,96,96,159,1,fourthree,,,,,,,,,,,,,,,,,,,,,,,,,,,,,,,,,,,,,,,,,,,,,,,,,,,,,,,,,,,,,,,,,,,,,,,,,,,,,,,,,,,,,,,,,,,,,,,,,,,,,,,,,,,,,,,,,,,,,,,,,,,,,,,,,,,,,,,,,,,,,
,,,,,,603953e7302d0728f1519ad7,629c51b733f83b5dbddc8598,2022-06-05_08h49.53.648,Colour_Asymmetry_Pilot,2022.1.3,Win32,119.6601651,629c4b6caf241d5e6e00bfc0,0,97,97,145,1,onethree,,,,,,,,,,,,,,,,,,,,,,,,,,,,,,,,,,,,,,,,,,,,,,,,,,,,,,,,,,,,,,,,,,,,,,,,,,,,,,,,,,,,,,,,,,,,,,,,,,,,,,,,,,,,,,,,,,,,,,,,,,,,,,,,,,,,,,,,,,,,,
,,,,,,603953e7302d0728f1519ad7,629c51b733f83b5dbddc8598,2022-06-05_08h49.53.648,Colour_Asymmetry_Pilot,2022.1.3,Win32,119.6601651,629c4b6caf241d5e6e00bfc0,0,98,98,69,1,threefour,,,,,,,,,,,,,,,,,,,,,,,,,,,,,,,,,,,,,,,,,,,,,,,,,,,,,,,,,,,,,,,,,,,,,,,,,,,,,,,,,,,,,,,,,,,,,,,,,,,,,,,,,,,,,,,,,,,,,,,,,,,,,,,,,,,,,,,,,,,,,
,,,,,,603953e7302d0728f1519ad7,629c51b733f83b5dbddc8598,2022-06-05_08h49.53.648,Colour_Asymmetry_Pilot,2022.1.3,Win32,119.6601651,629c4b6caf241d5e6e00bfc0,0,99,99,138,1,twoone,,,,,,,,,,,,,,,,,,,,,,,,,,,,,,,,,,,,,,,,,,,,,,,,,,,,,,,,,,,,,,,,,,,,,,,,,,,,,,,,,,,,,,,,,,,,,,,,,,,,,,,,,,,,,,,,,,,,,,,,,,,,,,,,,,,,,,,,,,,,,
,,,,,,603953e7302d0728f1519ad7,629c51b733f83b5dbddc8598,2022-06-05_08h49.53.648,Colour_Asymmetry_Pilot,2022.1.3,Win32,119.6601651,629c4b6caf241d5e6e00bfc0,0,100,100,111,1,fourthree,,,,,,,,,,,,,,,,,,,,,,,,,,,,,,,,,,,,,,,,,,,,,,,,,,,,,,,,,,,,,,,,,,,,,,,,,,,,,,,,,,,,,,,,,,,,,,,,,,,,,,,,,,,,,,,,,,,,,,,,,,,,,,,,,,,,,,,,,,,,,
,,,,,,603953e7302d0728f1519ad7,629c51b733f83b5dbddc8598,2022-06-05_08h49.53.648,Colour_Asymmetry_Pilot,2022.1.3,Win32,119.6601651,629c4b6caf241d5e6e00bfc0,0,101,101,81,1,onethree,,,,,,,,,,,,,,,,,,,,,,,,,,,,,,,,,,,,,,,,,,,,,,,,,,,,,,,,,,,,,,,,,,,,,,,,,,,,,,,,,,,,,,,,,,,,,,,,,,,,,,,,,,,,,,,,,,,,,,,,,,,,,,,,,,,,,,,,,,,,,
,,,,,,603953e7302d0728f1519ad7,629c51b733f83b5dbddc8598,2022-06-05_08h49.53.648,Colour_Asymmetry_Pilot,2022.1.3,Win32,119.6601651,629c4b6caf241d5e6e00bfc0,0,102,102,84,1,threeone,,,,,,,,,,,,,,,,,,,,,,,,,,,,,,,,,,,,,,,,,,,,,,,,,,,,,,,,,,,,,,,,,,,,,,,,,,,,,,,,,,,,,,,,,,,,,,,,,,,,,,,,,,,,,,,,,,,,,,,,,,,,,,,,,,,,,,,,,,,,,
,,,,,,603953e7302d0728f1519ad7,629c51b733f83b5dbddc8598,2022-06-05_08h49.53.648,Colour_Asymmetry_Pilot,2022.1.3,Win32,119.6601651,629c4b6caf241d5e6e00bfc0,0,103,103,160,1,onetwo,,,,,,,,,,,,,,,,,,,,,,,,,,,,,,,,,,,,,,,,,,,,,,,,,,,,,,,,,,,,,,,,,,,,,,,,,,,,,,,,,,,,,,,,,,,,,,,,,,,,,,,,,,,,,,,,,,,,,,,,,,,,,,,,,,,,,,,,,,,,,
,,,,,,603953e7302d0728f1519ad7,629c51b733f83b5dbddc8598,2022-06-05_08h49.53.648,Colour_Asymmetry_Pilot,2022.1.3,Win32,119.6601651,629c4b6caf241d5e6e00bfc0,0,104,104,149,1,threefour,,,,,,,,,,,,,,,,,,,,,,,,,,,,,,,,,,,,,,,,,,,,,,,,,,,,,,,,,,,,,,,,,,,,,,,,,,,,,,,,,,,,,,,,,,,,,,,,,,,,,,,,,,,,,,,,,,,,,,,,,,,,,,,,,,,,,,,,,,,,,
,,,,,,603953e7302d0728f1519ad7,629c51b733f83b5dbddc8598,2022-06-05_08h49.53.648,Colour_Asymmetry_Pilot,2022.1.3,Win32,119.6601651,629c4b6caf241d5e6e00bfc0,0,105,105,152,1,onetwo,,,,,,,,,,,,,,,,,,,,,,,,,,,,,,,,,,,,,,,,,,,,,,,,,,,,,,,,,,,,,,,,,,,,,,,,,,,,,,,,,,,,,,,,,,,,,,,,,,,,,,,,,,,,,,,,,,,,,,,,,,,,,,,,,,,,,,,,,,,,,
,,,,,,603953e7302d0728f1519ad7,629c51b733f83b5dbddc8598,2022-06-05_08h49.53.648,Colour_Asymmetry_Pilot,2022.1.3,Win32,119.6601651,629c4b6caf241d5e6e00bfc0,0,106,106,65,1,onethree,,,,,,,,,,,,,,,,,,,,,,,,,,,,,,,,,,,,,,,,,,,,,,,,,,,,,,,,,,,,,,,,,,,,,,,,,,,,,,,,,,,,,,,,,,,,,,,,,,,,,,,,,,,,,,,,,,,,,,,,,,,,,,,,,,,,,,,,,,,,,
,,,,,,603953e7302d0728f1519ad7,629c51b733f83b5dbddc8598,2022-06-05_08h49.53.648,Colour_Asymmetry_Pilot,2022.1.3,Win32,119.6601651,629c4b6caf241d5e6e00bfc0,0,107,107,66,1,twoone,,,,,,,,,,,,,,,,,,,,,,,,,,,,,,,,,,,,,,,,,,,,,,,,,,,,,,,,,,,,,,,,,,,,,,,,,,,,,,,,,,,,,,,,,,,,,,,,,,,,,,,,,,,,,,,,,,,,,,,,,,,,,,,,,,,,,,,,,,,,,
,,,,,,603953e7302d0728f1519ad7,629c51b733f83b5dbddc8598,2022-06-05_08h49.53.648,Colour_Asymmetry_Pilot,2022.1.3,Win32,119.6601651,629c4b6caf241d5e6e00bfc0,0,108,108,151,1,fourthree,,,,,,,,,,,,,,,,,,,,,,,,,,,,,,,,,,,,,,,,,,,,,,,,,,,,,,,,,,,,,,,,,,,,,,,,,,,,,,,,,,,,,,,,,,,,,,,,,,,,,,,,,,,,,,,,,,,,,,,,,,,,,,,,,,,,,,,,,,,,,
,,,,,,603953e7302d0728f1519ad7,629c51b733f83b5dbddc8598,2022-06-05_08h49.53.648,Colour_Asymmetry_Pilot,2022.1.3,Win32,119.6601651,629c4b6caf241d5e6e00bfc0,0,109,109,52,1,threeone,,,,,,,,,,,,,,,,,,,,,,,,,,,,,,,,,,,,,,,,,,,,,,,,,,,,,,,,,,,,,,,,,,,,,,,,,,,,,,,,,,,,,,,,,,,,,,,,,,,,,,,,,,,,,,,,,,,,,,,,,,,,,,,,,,,,,,,,,,,,,
,,,,,,603953e7302d0728f1519ad7,629c51b733f83b5dbddc8598,2022-06-05_08h49.53.648,Colour_Asymmetry_Pilot,2022.1.3,Win32,119.6601651,629c4b6caf241d5e6e00bfc0,0,110,110,103,1,fourthree,,,,,,,,,,,,,,,,,,,,,,,,,,,,,,,,,,,,,,,,,,,,,,,,,,,,,,,,,,,,,,,,,,,,,,,,,,,,,,,,,,,,,,,,,,,,,,,,,,,,,,,,,,,,,,,,,,,,,,,,,,,,,,,,,,,,,,,,,,,,,
,,,,,,603953e7302d0728f1519ad7,629c51b733f83b5dbddc8598,2022-06-05_08h49.53.648,Colour_Asymmetry_Pilot,2022.1.3,Win32,119.6601651,629c4b6caf241d5e6e00bfc0,0,111,111,89,1,onethree,,,,,,,,,,,,,,,,,,,,,,,,,,,,,,,,,,,,,,,,,,,,,,,,,,,,,,,,,,,,,,,,,,,,,,,,,,,,,,,,,,,,,,,,,,,,,,,,,,,,,,,,,,,,,,,,,,,,,,,,,,,,,,,,,,,,,,,,,,,,,
,,,,,,603953e7302d0728f1519ad7,629c51b733f83b5dbddc8598,2022-06-05_08h49.53.648,Colour_Asymmetry_Pilot,2022.1.3,Win32,119.6601651,629c4b6caf241d5e6e00bfc0,0,112,112,47,1,fourthree,,,,,,,,,,,,,,,,,,,,,,,,,,,,,,,,,,,,,,,,,,,,,,,,,,,,,,,,,,,,,,,,,,,,,,,,,,,,,,,,,,,,,,,,,,,,,,,,,,,,,,,,,,,,,,,,,,,,,,,,,,,,,,,,,,,,,,,,,,,,,
,,,,,,603953e7302d0728f1519ad7,629c51b733f83b5dbddc8598,2022-06-05_08h49.53.648,Colour_Asymmetry_Pilot,2022.1.3,Win32,119.6601651,629c4b6caf241d5e6e00bfc0,0,113,113,123,1,twofour,,,,,,,,,,,,,,,,,,,,,,,,,,,,,,,,,,,,,,,,,,,,,,,,,,,,,,,,,,,,,,,,,,,,,,,,,,,,,,,,,,,,,,,,,,,,,,,,,,,,,,,,,,,,,,,,,,,,,,,,,,,,,,,,,,,,,,,,,,,,,
,,,,,,603953e7302d0728f1519ad7,629c51b733f83b5dbddc8598,2022-06-05_08h49.53.648,Colour_Asymmetry_Pilot,2022.1.3,Win32,119.6601651,629c4b6caf241d5e6e00bfc0,0,114,114,75,1,twofour,,,,,,,,,,,,,,,,,,,,,,,,,,,,,,,,,,,,,,,,,,,,,,,,,,,,,,,,,,,,,,,,,,,,,,,,,,,,,,,,,,,,,,,,,,,,,,,,,,,,,,,,,,,,,,,,,,,,,,,,,,,,,,,,,,,,,,,,,,,,,
,,,,,,603953e7302d0728f1519ad7,629c51b733f83b5dbddc8598,2022-06-05_08h49.53.648,Colour_Asymmetry_Pilot,2022.1.3,Win32,119.6601651,629c4b6caf241d5e6e00bfc0,0,115,115,126,1,fourtwo,,,,,,,,,,,,,,,,,,,,,,,,,,,,,,,,,,,,,,,,,,,,,,,,,,,,,,,,,,,,,,,,,,,,,,,,,,,,,,,,,,,,,,,,,,,,,,,,,,,,,,,,,,,,,,,,,,,,,,,,,,,,,,,,,,,,,,,,,,,,,
,,,,,,603953e7302d0728f1519ad7,629c51b733f83b5dbddc8598,2022-06-05_08h49.53.648,Colour_Asymmetry_Pilot,2022.1.3,Win32,119.6601651,629c4b6caf241d5e6e00bfc0,0,116,116,153,1,onethree,,,,,,,,,,,,,,,,,,,,,,,,,,,,,,,,,,,,,,,,,,,,,,,,,,,,,,,,,,,,,,,,,,,,,,,,,,,,,,,,,,,,,,,,,,,,,,,,,,,,,,,,,,,,,,,,,,,,,,,,,,,,,,,,,,,,,,,,,,,,,
,,,,,,603953e7302d0728f1519ad7,629c51b733f83b5dbddc8598,2022-06-05_08h49.53.648,Colour_Asymmetry_Pilot,2022.1.3,Win32,119.6601651,629c4b6caf241d5e6e00bfc0,0,117,117,8,1,onetwo,,,,,,,,,,,,,,,,,,,,,,,,,,,,,,,,,,,,,,,,,,,,,,,,,,,,,,,,,,,,,,,,,,,,,,,,,,,,,,,,,,,,,,,,,,,,,,,,,,,,,,,,,,,,,,,,,,,,,,,,,,,,,,,,,,,,,,,,,,,,,
,,,,,,603953e7302d0728f1519ad7,629c51b733f83b5dbddc8598,2022-06-05_08h49.53.648,Colour_Asymmetry_Pilot,2022.1.3,Win32,119.6601651,629c4b6caf241d5e6e00bfc0,0,118,118,99,1,twofour,,,,,,,,,,,,,,,,,,,,,,,,,,,,,,,,,,,,,,,,,,,,,,,,,,,,,,,,,,,,,,,,,,,,,,,,,,,,,,,,,,,,,,,,,,,,,,,,,,,,,,,,,,,,,,,,,,,,,,,,,,,,,,,,,,,,,,,,,,,,,
,,,,,,603953e7302d0728f1519ad7,629c51b733f83b5dbddc8598,2022-06-05_08h49.53.648,Colour_Asymmetry_Pilot,2022.1.3,Win32,119.6601651,629c4b6caf241d5e6e00bfc0,0,119,119,108,1,threeone,,,,,,,,,,,,,,,,,,,,,,,,,,,,,,,,,,,,,,,,,,,,,,,,,,,,,,,,,,,,,,,,,,,,,,,,,,,,,,,,,,,,,,,,,,,,,,,,,,,,,,,,,,,,,,,,,,,,,,,,,,,,,,,,,,,,,,,,,,,,,
,,,,,,603953e7302d0728f1519ad7,629c51b733f83b5dbddc8598,2022-06-05_08h49.53.648,Colour_Asymmetry_Pilot,2022.1.3,Win32,119.6601651,629c4b6caf241d5e6e00bfc0,0,120,120,101,1,threefour,,,,,,,,,,,,,,,,,,,,,,,,,,,,,,,,,,,,,,,,,,,,,,,,,,,,,,,,,,,,,,,,,,,,,,,,,,,,,,,,,,,,,,,,,,,,,,,,,,,,,,,,,,,,,,,,,,,,,,,,,,,,,,,,,,,,,,,,,,,,,
,,,,,,603953e7302d0728f1519ad7,629c51b733f83b5dbddc8598,2022-06-05_08h49.53.648,Colour_Asymmetry_Pilot,2022.1.3,Win32,119.6601651,629c4b6caf241d5e6e00bfc0,0,121,121,0,1,onetwo,,,,,,,,,,,,,,,,,,,,,,,,,,,,,,,,,,,,,,,,,,,,,,,,,,,,,,,,,,,,,,,,,,,,,,,,,,,,,,,,,,,,,,,,,,,,,,,,,,,,,,,,,,,,,,,,,,,,,,,,,,,,,,,,,,,,,,,,,,,,,
,,,,,,603953e7302d0728f1519ad7,629c51b733f83b5dbddc8598,2022-06-05_08h49.53.648,Colour_Asymmetry_Pilot,2022.1.3,Win32,119.6601651,629c4b6caf241d5e6e00bfc0,0,122,122,146,1,twoone,,,,,,,,,,,,,,,,,,,,,,,,,,,,,,,,,,,,,,,,,,,,,,,,,,,,,,,,,,,,,,,,,,,,,,,,,,,,,,,,,,,,,,,,,,,,,,,,,,,,,,,,,,,,,,,,,,,,,,,,,,,,,,,,,,,,,,,,,,,,,
,,,,,,603953e7302d0728f1519ad7,629c51b733f83b5dbddc8598,2022-06-05_08h49.53.648,Colour_Asymmetry_Pilot,2022.1.3,Win32,119.6601651,629c4b6caf241d5e6e00bfc0,0,123,123,19,1,twofour,,,,,,,,,,,,,,,,,,,,,,,,,,,,,,,,,,,,,,,,,,,,,,,,,,,,,,,,,,,,,,,,,,,,,,,,,,,,,,,,,,,,,,,,,,,,,,,,,,,,,,,,,,,,,,,,,,,,,,,,,,,,,,,,,,,,,,,,,,,,,
,,,,,,603953e7302d0728f1519ad7,629c51b733f83b5dbddc8598,2022-06-05_08h49.53.648,Colour_Asymmetry_Pilot,2022.1.3,Win32,119.6601651,629c4b6caf241d5e6e00bfc0,0,124,124,79,1,fourthree,,,,,,,,,,,,,,,,,,,,,,,,,,,,,,,,,,,,,,,,,,,,,,,,,,,,,,,,,,,,,,,,,,,,,,,,,,,,,,,,,,,,,,,,,,,,,,,,,,,,,,,,,,,,,,,,,,,,,,,,,,,,,,,,,,,,,,,,,,,,,
,,,,,,603953e7302d0728f1519ad7,629c51b733f83b5dbddc8598,2022-06-05_08h49.53.648,Colour_Asymmetry_Pilot,2022.1.3,Win32,119.6601651,629c4b6caf241d5e6e00bfc0,0,125,125,105,1,onethree,,,,,,,,,,,,,,,,,,,,,,,,,,,,,,,,,,,,,,,,,,,,,,,,,,,,,,,,,,,,,,,,,,,,,,,,,,,,,,,,,,,,,,,,,,,,,,,,,,,,,,,,,,,,,,,,,,,,,,,,,,,,,,,,,,,,,,,,,,,,,
,,,,,,603953e7302d0728f1519ad7,629c51b733f83b5dbddc8598,2022-06-05_08h49.53.648,Colour_Asymmetry_Pilot,2022.1.3,Win32,119.6601651,629c4b6caf241d5e6e00bfc0,0,126,126,38,1,fourtwo,,,,,,,,,,,,,,,,,,,,,,,,,,,,,,,,,,,,,,,,,,,,,,,,,,,,,,,,,,,,,,,,,,,,,,,,,,,,,,,,,,,,,,,,,,,,,,,,,,,,,,,,,,,,,,,,,,,,,,,,,,,,,,,,,,,,,,,,,,,,,
,,,,,,603953e7302d0728f1519ad7,629c51b733f83b5dbddc8598,2022-06-05_08h49.53.648,Colour_Asymmetry_Pilot,2022.1.3,Win32,119.6601651,629c4b6caf241d5e6e00bfc0,0,127,127,21,1,threefour,,,,,,,,,,,,,,,,,,,,,,,,,,,,,,,,,,,,,,,,,,,,,,,,,,,,,,,,,,,,,,,,,,,,,,,,,,,,,,,,,,,,,,,,,,,,,,,,,,,,,,,,,,,,,,,,,,,,,,,,,,,,,,,,,,,,,,,,,,,,,
,,,,,,603953e7302d0728f1519ad7,629c51b733f83b5dbddc8598,2022-06-05_08h49.53.648,Colour_Asymmetry_Pilot,2022.1.3,Win32,119.6601651,629c4b6caf241d5e6e00bfc0,0,128,128,37,1,threefour,,,,,,,,,,,,,,,,,,,,,,,,,,,,,,,,,,,,,,,,,,,,,,,,,,,,,,,,,,,,,,,,,,,,,,,,,,,,,,,,,,,,,,,,,,,,,,,,,,,,,,,,,,,,,,,,,,,,,,,,,,,,,,,,,,,,,,,,,,,,,
,,,,,,603953e7302d0728f1519ad7,629c51b733f83b5dbddc8598,2022-06-05_08h49.53.648,Colour_Asymmetry_Pilot,2022.1.3,Win32,119.6601651,629c4b6caf241d5e6e00bfc0,0,129,129,63,1,fourthree,,,,,,,,,,,,,,,,,,,,,,,,,,,,,,,,,,,,,,,,,,,,,,,,,,,,,,,,,,,,,,,,,,,,,,,,,,,,,,,,,,,,,,,,,,,,,,,,,,,,,,,,,,,,,,,,,,,,,,,,,,,,,,,,,,,,,,,,,,,,,
,,,,,,603953e7302d0728f1519ad7,629c51b733f83b5dbddc8598,2022-06-05_08h49.53.648,Colour_Asymmetry_Pilot,2022.1.3,Win32,119.6601651,629c4b6caf241d5e6e00bfc0,0,130,130,22,1,fourtwo,,,,,,,,,,,,,,,,,,,,,,,,,,,,,,,,,,,,,,,,,,,,,,,,,,,,,,,,,,,,,,,,,,,,,,,,,,,,,,,,,,,,,,,,,,,,,,,,,,,,,,,,,,,,,,,,,,,,,,,,,,,,,,,,,,,,,,,,,,,,,
,,,,,,603953e7302d0728f1519ad7,629c51b733f83b5dbddc8598,2022-06-05_08h49.53.648,Colour_Asymmetry_Pilot,2022.1.3,Win32,119.6601651,629c4b6caf241d5e6e00bfc0,0,131,131,13,1,threefour,,,,,,,,,,,,,,,,,,,,,,,,,,,,,,,,,,,,,,,,,,,,,,,,,,,,,,,,,,,,,,,,,,,,,,,,,,,,,,,,,,,,,,,,,,,,,,,,,,,,,,,,,,,,,,,,,,,,,,,,,,,,,,,,,,,,,,,,,,,,,
,,,,,,603953e7302d0728f1519ad7,629c51b733f83b5dbddc8598,2022-06-05_08h49.53.648,Colour_Asymmetry_Pilot,2022.1.3,Win32,119.6601651,629c4b6caf241d5e6e00bfc0,0,132,132,133,1,threefour,,,,,,,,,,,,,,,,,,,,,,,,,,,,,,,,,,,,,,,,,,,,,,,,,,,,,,,,,,,,,,,,,,,,,,,,,,,,,,,,,,,,,,,,,,,,,,,,,,,,,,,,,,,,,,,,,,,,,,,,,,,,,,,,,,,,,,,,,,,,,
,,,,,,603953e7302d0728f1519ad7,629c51b733f83b5dbddc8598,2022-06-05_08h49.53.648,Colour_Asymmetry_Pilot,2022.1.3,Win32,119.6601651,629c4b6caf241d5e6e00bfc0,0,133,133,49,1,onethree,,,,,,,,,,,,,,,,,,,,,,,,,,,,,,,,,,,,,,,,,,,,,,,,,,,,,,,,,,,,,,,,,,,,,,,,,,,,,,,,,,,,,,,,,,,,,,,,,,,,,,,,,,,,,,,,,,,,,,,,,,,,,,,,,,,,,,,,,,,,,
,,,,,,603953e7302d0728f1519ad7,629c51b733f83b5dbddc8598,2022-06-05_08h49.53.648,Colour_Asymmetry_Pilot,2022.1.3,Win32,119.6601651,629c4b6caf241d5e6e00bfc0,0,134,134,56,1,onetwo,,,,,,,,,,,,,,,,,,,,,,,,,,,,,,,,,,,,,,,,,,,,,,,,,,,,,,,,,,,,,,,,,,,,,,,,,,,,,,,,,,,,,,,,,,,,,,,,,,,,,,,,,,,,,,,,,,,,,,,,,,,,,,,,,,,,,,,,,,,,,
,,,,,,603953e7302d0728f1519ad7,629c51b733f83b5dbddc8598,2022-06-05_08h49.53.648,Colour_Asymmetry_Pilot,2022.1.3,Win32,119.6601651,629c4b6caf241d5e6e00bfc0,0,135,135,54,1,fourtwo,,,,,,,,,,,,,,,,,,,,,,,,,,,,,,,,,,,,,,,,,,,,,,,,,,,,,,,,,,,,,,,,,,,,,,,,,,,,,,,,,,,,,,,,,,,,,,,,,,,,,,,,,,,,,,,,,,,,,,,,,,,,,,,,,,,,,,,,,,,,,
,,,,,,603953e7302d0728f1519ad7,629c51b733f83b5dbddc8598,2022-06-05_08h49.53.648,Colour_Asymmetry_Pilot,2022.1.3,Win32,119.6601651,629c4b6caf241d5e6e00bfc0,0,136,136,17,1,onethree,,,,,,,,,,,,,,,,,,,,,,,,,,,,,,,,,,,,,,,,,,,,,,,,,,,,,,,,,,,,,,,,,,,,,,,,,,,,,,,,,,,,,,,,,,,,,,,,,,,,,,,,,,,,,,,,,,,,,,,,,,,,,,,,,,,,,,,,,,,,,
,,,,,,603953e7302d0728f1519ad7,629c51b733f83b5dbddc8598,2022-06-05_08h49.53.648,Colour_Asymmetry_Pilot,2022.1.3,Win32,119.6601651,629c4b6caf241d5e6e00bfc0,0,137,137,135,1,fourthree,,,,,,,,,,,,,,,,,,,,,,,,,,,,,,,,,,,,,,,,,,,,,,,,,,,,,,,,,,,,,,,,,,,,,,,,,,,,,,,,,,,,,,,,,,,,,,,,,,,,,,,,,,,,,,,,,,,,,,,,,,,,,,,,,,,,,,,,,,,,,
,,,,,,603953e7302d0728f1519ad7,629c51b733f83b5dbddc8598,2022-06-05_08h49.53.648,Colour_Asymmetry_Pilot,2022.1.3,Win32,119.6601651,629c4b6caf241d5e6e00bfc0,0,138,138,25,1,onethree,,,,,,,,,,,,,,,,,,,,,,,,,,,,,,,,,,,,,,,,,,,,,,,,,,,,,,,,,,,,,,,,,,,,,,,,,,,,,,,,,,,,,,,,,,,,,,,,,,,,,,,,,,,,,,,,,,,,,,,,,,,,,,,,,,,,,,,,,,,,,
,,,,,,603953e7302d0728f1519ad7,629c51b733f83b5dbddc8598,2022-06-05_08h49.53.648,Colour_Asymmetry_Pilot,2022.1.3,Win32,119.6601651,629c4b6caf241d5e6e00bfc0,0,139,139,16,1,onetwo,,,,,,,,,,,,,,,,,,,,,,,,,,,,,,,,,,,,,,,,,,,,,,,,,,,,,,,,,,,,,,,,,,,,,,,,,,,,,,,,,,,,,,,,,,,,,,,,,,,,,,,,,,,,,,,,,,,,,,,,,,,,,,,,,,,,,,,,,,,,,
,,,,,,603953e7302d0728f1519ad7,629c51b733f83b5dbddc8598,2022-06-05_08h49.53.648,Colour_Asymmetry_Pilot,2022.1.3,Win32,119.6601651,629c4b6caf241d5e6e00bfc0,0,140,140,18,1,twoone,,,,,,,,,,,,,,,,,,,,,,,,,,,,,,,,,,,,,,,,,,,,,,,,,,,,,,,,,,,,,,,,,,,,,,,,,,,,,,,,,,,,,,,,,,,,,,,,,,,,,,,,,,,,,,,,,,,,,,,,,,,,,,,,,,,,,,,,,,,,,
,,,,,,603953e7302d0728f1519ad7,629c51b733f83b5dbddc8598,2022-06-05_08h49.53.648,Colour_Asymmetry_Pilot,2022.1.3,Win32,119.6601651,629c4b6caf241d5e6e00bfc0,0,141,141,46,1,fourtwo,,,,,,,,,,,,,,,,,,,,,,,,,,,,,,,,,,,,,,,,,,,,,,,,,,,,,,,,,,,,,,,,,,,,,,,,,,,,,,,,,,,,,,,,,,,,,,,,,,,,,,,,,,,,,,,,,,,,,,,,,,,,,,,,,,,,,,,,,,,,,
,,,,,,603953e7302d0728f1519ad7,629c51b733f83b5dbddc8598,2022-06-05_08h49.53.648,Colour_Asymmetry_Pilot,2022.1.3,Win32,119.6601651,629c4b6caf241d5e6e00bfc0,0,142,142,150,1,fourtwo,,,,,,,,,,,,,,,,,,,,,,,,,,,,,,,,,,,,,,,,,,,,,,,,,,,,,,,,,,,,,,,,,,,,,,,,,,,,,,,,,,,,,,,,,,,,,,,,,,,,,,,,,,,,,,,,,,,,,,,,,,,,,,,,,,,,,,,,,,,,,
,,,,,,603953e7302d0728f1519ad7,629c51b733f83b5dbddc8598,2022-06-05_08h49.53.648,Colour_Asymmetry_Pilot,2022.1.3,Win32,119.6601651,629c4b6caf241d5e6e00bfc0,0,143,143,64,1,onetwo,,,,,,,,,,,,,,,,,,,,,,,,,,,,,,,,,,,,,,,,,,,,,,,,,,,,,,,,,,,,,,,,,,,,,,,,,,,,,,,,,,,,,,,,,,,,,,,,,,,,,,,,,,,,,,,,,,,,,,,,,,,,,,,,,,,,,,,,,,,,,
,,,,,,603953e7302d0728f1519ad7,629c51b733f83b5dbddc8598,2022-06-05_08h49.53.648,Colour_Asymmetry_Pilot,2022.1.3,Win32,119.6601651,629c4b6caf241d5e6e00bfc0,0,144,144,136,1,onetwo,,,,,,,,,,,,,,,,,,,,,,,,,,,,,,,,,,,,,,,,,,,,,,,,,,,,,,,,,,,,,,,,,,,,,,,,,,,,,,,,,,,,,,,,,,,,,,,,,,,,,,,,,,,,,,,,,,,,,,,,,,,,,,,,,,,,,,,,,,,,,
,,,,,,603953e7302d0728f1519ad7,629c51b733f83b5dbddc8598,2022-06-05_08h49.53.648,Colour_Asymmetry_Pilot,2022.1.3,Win32,119.6601651,629c4b6caf241d5e6e00bfc0,0,145,145,148,1,threeone,,,,,,,,,,,,,,,,,,,,,,,,,,,,,,,,,,,,,,,,,,,,,,,,,,,,,,,,,,,,,,,,,,,,,,,,,,,,,,,,,,,,,,,,,,,,,,,,,,,,,,,,,,,,,,,,,,,,,,,,,,,,,,,,,,,,,,,,,,,,,
,,,,,,603953e7302d0728f1519ad7,629c51b733f83b5dbddc8598,2022-06-05_08h49.53.648,Colour_Asymmetry_Pilot,2022.1.3,Win32,119.6601651,629c4b6caf241d5e6e00bfc0,0,146,146,114,1,twoone,,,,,,,,,,,,,,,,,,,,,,,,,,,,,,,,,,,,,,,,,,,,,,,,,,,,,,,,,,,,,,,,,,,,,,,,,,,,,,,,,,,,,,,,,,,,,,,,,,,,,,,,,,,,,,,,,,,,,,,,,,,,,,,,,,,,,,,,,,,,,
,,,,,,603953e7302d0728f1519ad7,629c51b733f83b5dbddc8598,2022-06-05_08h49.53.648,Colour_Asymmetry_Pilot,2022.1.3,Win32,119.6601651,629c4b6caf241d5e6e00bfc0,0,147,147,142,1,fourtwo,,,,,,,,,,,,,,,,,,,,,,,,,,,,,,,,,,,,,,,,,,,,,,,,,,,,,,,,,,,,,,,,,,,,,,,,,,,,,,,,,,,,,,,,,,,,,,,,,,,,,,,,,,,,,,,,,,,,,,,,,,,,,,,,,,,,,,,,,,,,,
,,,,,,603953e7302d0728f1519ad7,629c51b733f83b5dbddc8598,2022-06-05_08h49.53.648,Colour_Asymmetry_Pilot,2022.1.3,Win32,119.6601651,629c4b6caf241d5e6e00bfc0,0,148,148,144,1,onetwo,,,,,,,,,,,,,,,,,,,,,,,,,,,,,,,,,,,,,,,,,,,,,,,,,,,,,,,,,,,,,,,,,,,,,,,,,,,,,,,,,,,,,,,,,,,,,,,,,,,,,,,,,,,,,,,,,,,,,,,,,,,,,,,,,,,,,,,,,,,,,
,,,,,,603953e7302d0728f1519ad7,629c51b733f83b5dbddc8598,2022-06-05_08h49.53.648,Colour_Asymmetry_Pilot,2022.1.3,Win32,119.6601651,629c4b6caf241d5e6e00bfc0,0,149,149,55,1,fourthree,,,,,,,,,,,,,,,,,,,,,,,,,,,,,,,,,,,,,,,,,,,,,,,,,,,,,,,,,,,,,,,,,,,,,,,,,,,,,,,,,,,,,,,,,,,,,,,,,,,,,,,,,,,,,,,,,,,,,,,,,,,,,,,,,,,,,,,,,,,,,
,,,,,,603953e7302d0728f1519ad7,629c51b733f83b5dbddc8598,2022-06-05_08h49.53.648,Colour_Asymmetry_Pilot,2022.1.3,Win32,119.6601651,629c4b6caf241d5e6e00bfc0,0,150,150,107,1,twofour,,,,,,,,,,,,,,,,,,,,,,,,,,,,,,,,,,,,,,,,,,,,,,,,,,,,,,,,,,,,,,,,,,,,,,,,,,,,,,,,,,,,,,,,,,,,,,,,,,,,,,,,,,,,,,,,,,,,,,,,,,,,,,,,,,,,,,,,,,,,,
,,,,,,603953e7302d0728f1519ad7,629c51b733f83b5dbddc8598,2022-06-05_08h49.53.648,Colour_Asymmetry_Pilot,2022.1.3,Win32,119.6601651,629c4b6caf241d5e6e00bfc0,0,151,151,77,1,threefour,,,,,,,,,,,,,,,,,,,,,,,,,,,,,,,,,,,,,,,,,,,,,,,,,,,,,,,,,,,,,,,,,,,,,,,,,,,,,,,,,,,,,,,,,,,,,,,,,,,,,,,,,,,,,,,,,,,,,,,,,,,,,,,,,,,,,,,,,,,,,
,,,,,,603953e7302d0728f1519ad7,629c51b733f83b5dbddc8598,2022-06-05_08h49.53.648,Colour_Asymmetry_Pilot,2022.1.3,Win32,119.6601651,629c4b6caf241d5e6e00bfc0,0,152,152,147,1,twofour,,,,,,,,,,,,,,,,,,,,,,,,,,,,,,,,,,,,,,,,,,,,,,,,,,,,,,,,,,,,,,,,,,,,,,,,,,,,,,,,,,,,,,,,,,,,,,,,,,,,,,,,,,,,,,,,,,,,,,,,,,,,,,,,,,,,,,,,,,,,,
,,,,,,603953e7302d0728f1519ad7,629c51b733f83b5dbddc8598,2022-06-05_08h49.53.648,Colour_Asymmetry_Pilot,2022.1.3,Win32,119.6601651,629c4b6caf241d5e6e00bfc0,0,153,153,48,1,onetwo,,,,,,,,,,,,,,,,,,,,,,,,,,,,,,,,,,,,,,,,,,,,,,,,,,,,,,,,,,,,,,,,,,,,,,,,,,,,,,,,,,,,,,,,,,,,,,,,,,,,,,,,,,,,,,,,,,,,,,,,,,,,,,,,,,,,,,,,,,,,,
,,,,,,603953e7302d0728f1519ad7,629c51b733f83b5dbddc8598,2022-06-05_08h49.53.648,Colour_Asymmetry_Pilot,2022.1.3,Win32,119.6601651,629c4b6caf241d5e6e00bfc0,0,154,154,40,1,onetwo,,,,,,,,,,,,,,,,,,,,,,,,,,,,,,,,,,,,,,,,,,,,,,,,,,,,,,,,,,,,,,,,,,,,,,,,,,,,,,,,,,,,,,,,,,,,,,,,,,,,,,,,,,,,,,,,,,,,,,,,,,,,,,,,,,,,,,,,,,,,,
,,,,,,603953e7302d0728f1519ad7,629c51b733f83b5dbddc8598,2022-06-05_08h49.53.648,Colour_Asymmetry_Pilot,2022.1.3,Win32,119.6601651,629c4b6caf241d5e6e00bfc0,0,155,155,94,1,fourtwo,,,,,,,,,,,,,,,,,,,,,,,,,,,,,,,,,,,,,,,,,,,,,,,,,,,,,,,,,,,,,,,,,,,,,,,,,,,,,,,,,,,,,,,,,,,,,,,,,,,,,,,,,,,,,,,,,,,,,,,,,,,,,,,,,,,,,,,,,,,,,
,,,,,,603953e7302d0728f1519ad7,629c51b733f83b5dbddc8598,2022-06-05_08h49.53.648,Colour_Asymmetry_Pilot,2022.1.3,Win32,119.6601651,629c4b6caf241d5e6e00bfc0,0,156,156,82,1,twoone,,,,,,,,,,,,,,,,,,,,,,,,,,,,,,,,,,,,,,,,,,,,,,,,,,,,,,,,,,,,,,,,,,,,,,,,,,,,,,,,,,,,,,,,,,,,,,,,,,,,,,,,,,,,,,,,,,,,,,,,,,,,,,,,,,,,,,,,,,,,,
,,,,,,603953e7302d0728f1519ad7,629c51b733f83b5dbddc8598,2022-06-05_08h49.53.648,Colour_Asymmetry_Pilot,2022.1.3,Win32,119.6601651,629c4b6caf241d5e6e00bfc0,0,157,157,127,1,fourthree,,,,,,,,,,,,,,,,,,,,,,,,,,,,,,,,,,,,,,,,,,,,,,,,,,,,,,,,,,,,,,,,,,,,,,,,,,,,,,,,,,,,,,,,,,,,,,,,,,,,,,,,,,,,,,,,,,,,,,,,,,,,,,,,,,,,,,,,,,,,,
,,,,,,603953e7302d0728f1519ad7,629c51b733f83b5dbddc8598,2022-06-05_08h49.53.648,Colour_Asymmetry_Pilot,2022.1.3,Win32,119.6601651,629c4b6caf241d5e6e00bfc0,0,158,158,130,1,twoone,,,,,,,,,,,,,,,,,,,,,,,,,,,,,,,,,,,,,,,,,,,,,,,,,,,,,,,,,,,,,,,,,,,,,,,,,,,,,,,,,,,,,,,,,,,,,,,,,,,,,,,,,,,,,,,,,,,,,,,,,,,,,,,,,,,,,,,,,,,,,
,,,,,,603953e7302d0728f1519ad7,629c51b733f83b5dbddc8598,2022-06-05_08h49.53.648,Colour_Asymmetry_Pilot,2022.1.3,Win32,119.6601651,629c4b6caf241d5e6e00bfc0,0,159,159,27,1,twofour,,,,,,,,,,,,,,,,,,,,,,,,,,,,,,,,,,,,,,,,,,,,,,,,,,,,,,,,,,,,,,,,,,,,,,,,,,,,,,,,,,,,,,,,,,,,,,,,,,,,,,,,,,,,,,,,,,,,,,,,,,,,,,,,,,,,,,,,,,,,,
,,,,,,603953e7302d0728f1519ad7,629c51b733f83b5dbddc8598,2022-06-05_08h49.53.648,Colour_Asymmetry_Pilot,2022.1.3,Win32,119.6601651,629c4b6caf241d5e6e00bfc0,0,160,160,28,1,threeone,,,,,,,,,,,,,,,,,,,,,,,,,,,,,,,,,,,,,,,,,,,,,,,,,,,,,,,,,,,,,,,,,,,,,,,,,,,,,,,,,,,,,,,,,,,,,,,,,,,,,,,,,,,,,,,,,,,,,,,,,,,,,,,,,,,,,,,,,,,,,
,,,,,,603953e7302d0728f1519ad7,629c51b733f83b5dbddc8598,2022-06-05_08h49.53.648,Colour_Asymmetry_Pilot,2022.1.3,Win32,119.6601651,629c4b6caf241d5e6e00bfc0,0,161,161,12,1,threeone,,,,,,,,,,,,,,,,,,,,,,,,,,,,,,,,,,,,,,,,,,,,,,,,,,,,,,,,,,,,,,,,,,,,,,,,,,,,,,,,,,,,,,,,,,,,,,,,,,,,,,,,,,,,,,,,,,,,,,,,,,,,,,,,,,,,,,,,,,,,,
,,,,,,603953e7302d0728f1519ad7,629c51b733f83b5dbddc8598,2022-06-05_08h49.53.648,Colour_Asymmetry_Pilot,2022.1.3,Win32,119.6601651,629c4b6caf241d5e6e00bfc0,,,,,,,space,3.1743,space,3.8639,space,21.6191,space,19.9587,space,2.6496,space,5.3529,"[-0.4902000000000001,0.2704,-0.45899999999999996]",threeone,"[0.37240000000000006,0.4980000000000002,-0.2864]",4,6.3774,50,100,1,0,0,response1disk_5,-1,6,1,0,0,rectangle_8,-1,6,1,0,0,4,-1,6,1,0,0,0,0,0,0,1,,,,,,,,,,,,,,,,,,,,,,,,,,,,,,,,,,,,,,,,,,,,,,,,,,,,,,,,,,,,,,,,,,,,,,,,,,,,,,,,,,,,,,,,,,,,,,,,
,,,,,,603953e7302d0728f1519ad7,629c51b733f83b5dbddc8598,2022-06-05_08h49.53.648,Colour_Asymmetry_Pilot,2022.1.3,Win32,119.6601651,629c4b6caf241d5e6e00bfc0,,,,,,,,,,,,,,,,,,,"[-0.30200000000000005,0.14500000000000002,0.2784]",threefour,"[-0.6,0.16860000000000008,0.44300000000000006]",4,2.5666,42,83,1,0,0,response1disk_5,1,-5,1,0,0,rectangle_8,65,101,1,0,0,4,-8,0,1,0,0,1,0,1,0,1,response1disk_7,7,rectangle_4,,,,,,,,,,,,,,,,,,,,,,,,,,,,,,,,,,,,,,,,,,,,,,,,,,,,,,,,,,,,,,,,,,,,,,,,,,,,,,,,,,,,,,,,,,,,,
,,,,,,603953e7302d0728f1519ad7,629c51b733f83b5dbddc8598,2022-06-05_08h49.53.648,Colour_Asymmetry_Pilot,2022.1.3,Win32,119.6601651,629c4b6caf241d5e6e00bfc0,,,,,,,,,,,,,,,,,,,"[-0.4276,0.0038000000000000256,-0.3256]",threeone,"[0.5528,0.7409999999999999,-0.71]",-4,8.4835,-58,127,1,0,0,response7disk_5,6,13,1,0,0,rectangle_8,6,13,1,0,0,4,6,13,1,0,0,2,0,2,0,1,,,,,,,,,,,,,,,,,,,,,,,,,,,,,,,,,,,,,,,,,,,,,,,,,,,,,,,,,,,,,,,,,,,,,,,,,,,,,,,,,,,,,,,,,,,,,,,,
,,,,,,603953e7302d0728f1519ad7,629c51b733f83b5dbddc8598,2022-06-05_08h49.53.648,Colour_Asymmetry_Pilot,2022.1.3,Win32,119.6601651,629c4b6caf241d5e6e00bfc0,,,,,,,,,,,,,,,,,,,"[0.23120000000000007,-0.7726,-0.34120000000000006]",onetwo,"[-0.10599999999999998,-0.15300000000000002,0.15280000000000005]",2,2.6706,119,-34,1,0,0,response3disk_5,1,-7,1,0,0,rectangle_8,1,-7,1,0,0,4,1,-7,1,0,0,3,0,3,0,1,,,,,,,,,,,,,,,,,,,,,,,,,,,,,,,,,,,,,,,,,,,,,,,,,,,,,,,,,,,,,,,,,,,,,,,,,,,,,,,,,,,,,,,,,,,,,,,,
,,,,,,603953e7302d0728f1519ad7,629c51b733f83b5dbddc8598,2022-06-05_08h49.53.648,Colour_Asymmetry_Pilot,2022.1.3,Win32,119.6601651,629c4b6caf241d5e6e00bfc0,,,,,,,,,,,,,,,,,,,"[-0.9844,-0.9688,-0.9922]",twoone,"[-0.6,0.16860000000000008,0.44300000000000006]",-4,1.2418,-34,96,1,0,0,response7disk_5,-19,-7,1,0,0,rectangle_8,67,124,1,0,0,4,15,5,1,0,0,4,0,4,0,1,response1disk_7,7,rectangle_4,,,,,,,,,,,,,,,,,,,,,,,,,,,,,,,,,,,,,,,,,,,,,,,,,,,,,,,,,,,,,,,,,,,,,,,,,,,,,,,,,,,,,,,,,,,,,
,,,,,,603953e7302d0728f1519ad7,629c51b733f83b5dbddc8598,2022-06-05_08h49.53.648,Colour_Asymmetry_Pilot,2022.1.3,Win32,119.6601651,629c4b6caf241d5e6e00bfc0,,,,,,,,,,,,,,,,,,,"[0.11359999999999992,0.6312,0.5213999999999999]",fourtwo,"[0.09799999999999986,-0.24719999999999998,0.15280000000000005]",-1,4.2755,-37,-97,1,0,0,response5disk_5,1,4,1,0,0,rectangle_8,1,4,1,0,0,4,1,4,1,0,0,5,0,5,0,1,,,,,,,,,,,,,,,,,,,,,,,,,,,,,,,,,,,,,,,,,,,,,,,,,,,,,,,,,,,,,,,,,,,,,,,,,,,,,,,,,,,,,,,,,,,,,,,,
,,,,,,603953e7302d0728f1519ad7,629c51b733f83b5dbddc8598,2022-06-05_08h49.53.648,Colour_Asymmetry_Pilot,2022.1.3,Win32,119.6601651,629c4b6caf241d5e6e00bfc0,,,,,,,,,,,,,,,,,,,"[-0.17659999999999998,-0.2864,-0.8354]",onetwo,"[-0.26280000000000003,-0.4746,-0.2158]",-2,1.5868,-68,-30,1,0,0,response5disk_5,13,-5,1,0,0,rectangle_8,13,-5,1,0,0,4,13,-5,1,0,0,6,0,6,0,1,,,,,,,,,,,,,,,,,,,,,,,,,,,,,,,,,,,,,,,,,,,,,,,,,,,,,,,,,,,,,,,,,,,,,,,,,,,,,,,,,,,,,,,,,,,,,,,,
,,,,,,603953e7302d0728f1519ad7,629c51b733f83b5dbddc8598,2022-06-05_08h49.53.648,Colour_Asymmetry_Pilot,2022.1.3,Win32,119.6601651,629c4b6caf241d5e6e00bfc0,,,,,,,,,,,,,,,,,,,,twofour,,-4,0.7914,,,,,,,,,,,,,,,,,,,,,,,,,,,,,,,,space,77.3969,"[-0.5922000000000001,-0.7492000000000001,-0.5296000000000001]","[0.9763999999999999,0.8588,-0.05900000000000005]",-30,115,1,0,0,response7disk,7,-7,1,0,0,rectangle,7,-7,1,0,0,,1,0.0007,0,7,-7,1,0,0,0,0,0,3,1,3,first,,,,,,,,,,,,,,,,,,,,,,,,,,,,,,,,,,,,,,,,,,,,,,,,,,,,,,,,
,,,,,,603953e7302d0728f1519ad7,629c51b733f83b5dbddc8598,2022-06-05_08h49.53.648,Colour_Asymmetry_Pilot,2022.1.3,Win32,119.6601651,629c4b6caf241d5e6e00bfc0,,,,,,,,,,,,,,,,,,,,onetwo,,-4,0.7498,,,,,,,,,,,,,,,,,,,,,,,,,,,,,,,,,,"[-0.34920000000000007,-0.702,-0.5216]","[0.9763999999999999,0.8588,-0.05900000000000005]",-29,136,1,0,0,response7disk,7,8,1,0,0,rectangle,7,8,1,0,0,,1,0,0,7,8,1,0,0,0,1,1,47,1,47,first,,,,,,,,,,,,,,,,,,,,,,,,,,,,,,,,,,,,,,,,,,,,,,,,,,,,,,,,
,,,,,,603953e7302d0728f1519ad7,629c51b733f83b5dbddc8598,2022-06-05_08h49.53.648,Colour_Asymmetry_Pilot,2022.1.3,Win32,119.6601651,629c4b6caf241d5e6e00bfc0,,,,,,,,,,,,,,,,,,,,onetwo,,-1,3.5415,,,,,,,,,,,,,,,,,,,,,,,,,,,,,,,,,,"[-0.6235999999999999,-0.6786,-0.08239999999999992]","[-0.2942,-0.24719999999999998,-0.357]",-29,-38,1,0,0,response5disk,11,-9,1,0,0,rectangle,11,-9,1,0,0,,1,1E-04,0,11,-9,1,0,0,0,2,2,67,1,67,first,,,,,,,,,,,,,,,,,,,,,,,,,,,,,,,,,,,,,,,,,,,,,,,,,,,,,,,,
,,,,,,603953e7302d0728f1519ad7,629c51b733f83b5dbddc8598,2022-06-05_08h49.53.648,Colour_Asymmetry_Pilot,2022.1.3,Win32,119.6601651,629c4b6caf241d5e6e00bfc0,,,,,,,,,,,,,,,,,,,,twofour,,4,0.6917,,,,,,,,,,,,,,,,,,,,,,,,,,,,,,,,,,"[0.7018,0.7802,-0.16079999999999994]","[0.7018,0.7802,-0.16079999999999994]",60,105,1,0,0,response1disk,14,0,1,0,0,rectangle,14,0,1,0,0,,3,0.0005,0,14,0,1,0,0,0,3,3,81,1,0,second,,,,,,,,,,,,,,,,,,,,,,,,,,,,,,,,,,,,,,,,,,,,,,,,,,,,,,,,
,,,,,,603953e7302d0728f1519ad7,629c51b733f83b5dbddc8598,2022-06-05_08h49.53.648,Colour_Asymmetry_Pilot,2022.1.3,Win32,119.6601651,629c4b6caf241d5e6e00bfc0,,,,,,,,,,,,,,,,,,,,onethree,,-4,2.5833,,,,,,,,,,,,,,,,,,,,,,,,,,,,,,,,,,"[0.5528,0.7409999999999999,-0.71]","[-0.20799999999999996,-0.655,-0.01980000000000004]",-59,105,1,0,0,response7disk,-1,-5,1,0,0,rectangle,-1,-5,1,0,0,,1,0.0004,0,-1,-5,1,0,0,0,4,4,94,1,13,second,,,,,,,,,,,,,,,,,,,,,,,,,,,,,,,,,,,,,,,,,,,,,,,,,,,,,,,,
,,,,,,603953e7302d0728f1519ad7,629c51b733f83b5dbddc8598,2022-06-05_08h49.53.648,Colour_Asymmetry_Pilot,2022.1.3,Win32,119.6601651,629c4b6caf241d5e6e00bfc0,,,,,,,,,,,,,,,,,,,,threeone,,-4,0.5915,,,,,,,,,,,,,,,,,,,,,,,,,,,,,,,,,,"[-0.26280000000000003,-0.4746,-0.2158]","[0.9763999999999999,0.8588,-0.05900000000000005]",-40,102,1,0,0,response7disk,7,9,1,0,0,rectangle,7,9,1,0,0,,3,0.0005,0,7,9,1,0,0,0,5,5,118,1,37,second,,,,,,,,,,,,,,,,,,,,,,,,,,,,,,,,,,,,,,,,,,,,,,,,,,,,,,,,
,,,,,,603953e7302d0728f1519ad7,629c51b733f83b5dbddc8598,2022-06-05_08h49.53.648,Colour_Asymmetry_Pilot,2022.1.3,Win32,119.6601651,629c4b6caf241d5e6e00bfc0,,,,,,,,,,,,,,,,,,,,fourthree,,1,1.6503,,,,,,,,,,,,,,,,,,,,,,,,,,,,,,,,,,"[-0.4276,0.0038000000000000256,-0.3256]","[0.34099999999999997,0.5841999999999998,-0.9844]",58,-87,1,0,0,response3disk,15,4,1,0,0,rectangle,15,4,1,0,0,,2,0.0005,0,15,4,1,0,0,0,6,6,52,1,52,first,,,,,,,,,,,,,,,,,,,,,,,,,,,,,,,,,,,,,,,,,,,,,,,,,,,,,,,,
,,,,,,603953e7302d0728f1519ad7,629c51b733f83b5dbddc8598,2022-06-05_08h49.53.648,Colour_Asymmetry_Pilot,2022.1.3,Win32,119.6601651,629c4b6caf241d5e6e00bfc0,,,,,,,,,,,,,,,,,,,,twoone,,4,0.5084,,,,,,,,,,,,,,,,,,,,,,,,,,,,,,,,,,"[0.7018,0.7802,-0.16079999999999994]","[0.7018,0.7802,-0.16079999999999994]",72,105,1,0,0,response1disk,9,-7,1,0,0,rectangle,9,-7,1,0,0,,1,0.0005,0,9,-7,1,0,0,0,7,7,0,1,0,first,,,,,,,,,,,,,,,,,,,,,,,,,,,,,,,,,,,,,,,,,,,,,,,,,,,,,,,,
,,,,,,603953e7302d0728f1519ad7,629c51b733f83b5dbddc8598,2022-06-05_08h49.53.648,Colour_Asymmetry_Pilot,2022.1.3,Win32,119.6601651,629c4b6caf241d5e6e00bfc0,,,,,,,,,,,,,,,,,,,,threeone,,-4,0.4249,,,,,,,,,,,,,,,,,,,,,,,,,,,,,,,,,,"[0.7802,-0.23140000000000005,-0.20799999999999996]","[-0.9844,-0.9688,-0.9922]",-34,109,1,0,0,response7disk,-17,8,1,0,0,rectangle,-17,8,1,0,0,,3,0.0006,0,-17,8,1,0,0,0,8,8,101,1,20,second,,,,,,,,,,,,,,,,,,,,,,,,,,,,,,,,,,,,,,,,,,,,,,,,,,,,,,,,
,,,,,,603953e7302d0728f1519ad7,629c51b733f83b5dbddc8598,2022-06-05_08h49.53.648,Colour_Asymmetry_Pilot,2022.1.3,Win32,119.6601651,629c4b6caf241d5e6e00bfc0,,,,,,,,,,,,,,,,,,,,threeone,,-1,2.6083,,,,,,,,,,,,,,,,,,,,,,,,,,,,,,,,,,"[-0.8198,-0.5138,-0.7492000000000001]","[-0.17659999999999998,0.3253999999999999,0.19999999999999996]",-40,-68,1,0,0,response5disk,-2,9,1,0,0,rectangle,-2,9,1,0,0,,1,0.0006,0,-2,9,1,0,0,0,9,9,45,1,45,first,,,,,,,,,,,,,,,,,,,,,,,,,,,,,,,,,,,,,,,,,,,,,,,,,,,,,,,,
,,,,,,603953e7302d0728f1519ad7,629c51b733f83b5dbddc8598,2022-06-05_08h49.53.648,Colour_Asymmetry_Pilot,2022.1.3,Win32,119.6601651,629c4b6caf241d5e6e00bfc0,,,,,,,,,,,,,,,,,,,,threefour,,-4,3.0832,,,,,,,,,,,,,,,,,,,,,,,,,,,,,,,,,,"[-0.9216,-0.5529999999999999,-0.3962]","[-0.2942,-0.7648,-0.7492000000000001]",-51,89,1,0,0,response7disk,-8,-4,1,0,0,rectangle,-8,-4,1,0,0,,3,0.0005,0,-8,-4,1,0,0,0,10,10,54,1,54,first,,,,,,,,,,,,,,,,,,,,,,,,,,,,,,,,,,,,,,,,,,,,,,,,,,,,,,,,
,,,,,,603953e7302d0728f1519ad7,629c51b733f83b5dbddc8598,2022-06-05_08h49.53.648,Colour_Asymmetry_Pilot,2022.1.3,Win32,119.6601651,629c4b6caf241d5e6e00bfc0,,,,,,,,,,,,,,,,,,,,twofour,,-4,0.4498,,,,,,,,,,,,,,,,,,,,,,,,,,,,,,,,,,"[0.2862,0.7802,0.3568]","[-0.2942,-0.7648,-0.7492000000000001]",-23,80,1,0,0,response7disk,1,1,1,0,0,rectangle,1,1,1,0,0,,1,0.0005,0,1,1,1,0,0,0,11,11,9,1,9,first,,,,,,,,,,,,,,,,,,,,,,,,,,,,,,,,,,,,,,,,,,,,,,,,,,,,,,,,
,,,,,,603953e7302d0728f1519ad7,629c51b733f83b5dbddc8598,2022-06-05_08h49.53.648,Colour_Asymmetry_Pilot,2022.1.3,Win32,119.6601651,629c4b6caf241d5e6e00bfc0,,,,,,,,,,,,,,,,,,,,fourthree,,1,1.2581,,,,,,,,,,,,,,,,,,,,,,,,,,,,,,,,,,"[0.37240000000000006,0.4980000000000002,-0.2864]","[-0.45899999999999996,-0.3256,-0.9374]",35,-79,1,0,0,response3disk,-11,-4,1,0,0,rectangle,-11,-4,1,0,0,,2,0.0005,0,-11,-4,1,0,0,0,12,12,86,1,5,second,,,,,,,,,,,,,,,,,,,,,,,,,,,,,,,,,,,,,,,,,,,,,,,,,,,,,,,,
,,,,,,603953e7302d0728f1519ad7,629c51b733f83b5dbddc8598,2022-06-05_08h49.53.648,Colour_Asymmetry_Pilot,2022.1.3,Win32,119.6601651,629c4b6caf241d5e6e00bfc0,,,,,,,,,,,,,,,,,,,,twofour,,4,0.5162,,,,,,,,,,,,,,,,,,,,,,,,,,,,,,,,,,"[-0.9138,-0.5296000000000001,-0.5529999999999999]","[-0.9138,-0.5296000000000001,-0.5529999999999999]",77,127,1,0,0,response1disk,11,-8,1,0,0,rectangle,11,-8,1,0,0,,3,0.0007,0,11,-8,1,0,0,0,13,13,44,1,44,first,,,,,,,,,,,,,,,,,,,,,,,,,,,,,,,,,,,,,,,,,,,,,,,,,,,,,,,,
,,,,,,603953e7302d0728f1519ad7,629c51b733f83b5dbddc8598,2022-06-05_08h49.53.648,Colour_Asymmetry_Pilot,2022.1.3,Win32,119.6601651,629c4b6caf241d5e6e00bfc0,,,,,,,,,,,,,,,,,,,,threefour,,-4,1.3082,,,,,,,,,,,,,,,,,,,,,,,,,,,,,,,,,,"[-0.2942,-0.7648,-0.7492000000000001]","[0.2862,0.7802,0.3568]",-51,96,1,0,0,response7disk,3,7,1,0,0,rectangle,3,7,1,0,0,,3,0.0001,0,3,7,1,0,0,0,14,14,90,1,9,second,,,,,,,,,,,,,,,,,,,,,,,,,,,,,,,,,,,,,,,,,,,,,,,,,,,,,,,,
,,,,,,603953e7302d0728f1519ad7,629c51b733f83b5dbddc8598,2022-06-05_08h49.53.648,Colour_Asymmetry_Pilot,2022.1.3,Win32,119.6601651,629c4b6caf241d5e6e00bfc0,,,,,,,,,,,,,,,,,,,,twofour,,-4,2.842,,,,,,,,,,,,,,,,,,,,,,,,,,,,,,,,,,"[-0.2942,-0.24719999999999998,-0.357]","[-0.10599999999999998,-0.15300000000000002,0.15280000000000005]",-34,125,1,0,0,response7disk,19,12,1,0,0,rectangle,19,12,1,0,0,,2,0.0004,0,19,12,1,0,0,0,15,15,111,1,30,second,,,,,,,,,,,,,,,,,,,,,,,,,,,,,,,,,,,,,,,,,,,,,,,,,,,,,,,,
,,,,,,603953e7302d0728f1519ad7,629c51b733f83b5dbddc8598,2022-06-05_08h49.53.648,Colour_Asymmetry_Pilot,2022.1.3,Win32,119.6601651,629c4b6caf241d5e6e00bfc0,,,,,,,,,,,,,,,,,,,,twoone,,-4,0.4917,,,,,,,,,,,,,,,,,,,,,,,,,,,,,,,,,,"[0.2862,0.7802,0.3568]","[-0.10599999999999998,-0.15300000000000002,0.15280000000000005]",-43,101,1,0,0,response7disk,-4,8,1,0,0,rectangle,-4,8,1,0,0,,2,0.0001,0,-4,8,1,0,0,0,16,16,34,1,34,first,,,,,,,,,,,,,,,,,,,,,,,,,,,,,,,,,,,,,,,,,,,,,,,,,,,,,,,,
,,,,,,603953e7302d0728f1519ad7,629c51b733f83b5dbddc8598,2022-06-05_08h49.53.648,Colour_Asymmetry_Pilot,2022.1.3,Win32,119.6601651,629c4b6caf241d5e6e00bfc0,,,,,,,,,,,,,,,,,,,,threefour,,-3,1.4085,,,,,,,,,,,,,,,,,,,,,,,,,,,,,,,,,,"[0.8115999999999999,-0.0040000000000000036,-0.09819999999999995]","[0.2784,-0.31000000000000005,-0.5452]",-64,48,1,0,0,response7disk,-1,2,1,0,0,rectangle,-1,2,1,0,0,,2,0.0001,0,-1,2,1,0,0,0,17,17,16,1,16,first,,,,,,,,,,,,,,,,,,,,,,,,,,,,,,,,,,,,,,,,,,,,,,,,,,,,,,,,
,,,,,,603953e7302d0728f1519ad7,629c51b733f83b5dbddc8598,2022-06-05_08h49.53.648,Colour_Asymmetry_Pilot,2022.1.3,Win32,119.6601651,629c4b6caf241d5e6e00bfc0,,,,,,,,,,,,,,,,,,,,fourtwo,,-4,0.3332,,,,,,,,,,,,,,,,,,,,,,,,,,,,,,,,,,"[-0.8982,-0.37259999999999993,0.2784]","[0.9763999999999999,0.30979999999999985,-0.6786]",-36,91,1,0,0,response7disk,-1,13,1,0,0,rectangle,-1,13,1,0,0,,2,0,0,-1,13,1,0,0,0,18,18,120,1,39,second,,,,,,,,,,,,,,,,,,,,,,,,,,,,,,,,,,,,,,,,,,,,,,,,,,,,,,,,
,,,,,,603953e7302d0728f1519ad7,629c51b733f83b5dbddc8598,2022-06-05_08h49.53.648,Colour_Asymmetry_Pilot,2022.1.3,Win32,119.6601651,629c4b6caf241d5e6e00bfc0,,,,,,,,,,,,,,,,,,,,twofour,,-4,0.2587,,,,,,,,,,,,,,,,,,,,,,,,,,,,,,,,,,"[0.9763999999999999,0.8588,-0.05900000000000005]","[-0.26280000000000003,-0.4746,-0.2158]",-41,138,1,0,0,response7disk,17,-7,1,0,0,rectangle,17,-7,1,0,0,,1,0.0005,0,17,-7,1,0,0,0,19,19,37,1,37,first,,,,,,,,,,,,,,,,,,,,,,,,,,,,,,,,,,,,,,,,,,,,,,,,,,,,,,,,
,,,,,,603953e7302d0728f1519ad7,629c51b733f83b5dbddc8598,2022-06-05_08h49.53.648,Colour_Asymmetry_Pilot,2022.1.3,Win32,119.6601651,629c4b6caf241d5e6e00bfc0,,,,,,,,,,,,,,,,,,,,twofour,,-4,0.5003,,,,,,,,,,,,,,,,,,,,,,,,,,,,,,,,,,"[-0.011800000000000033,-0.906,-0.45100000000000007]","[-0.4902000000000001,0.2704,-0.45899999999999996]",-48,105,1,0,0,response7disk,-3,8,1,0,0,rectangle,-3,8,1,0,0,,1,1E-04,0,-3,8,1,0,0,0,20,20,116,1,35,second,,,,,,,,,,,,,,,,,,,,,,,,,,,,,,,,,,,,,,,,,,,,,,,,,,,,,,,,
,,,,,,603953e7302d0728f1519ad7,629c51b733f83b5dbddc8598,2022-06-05_08h49.53.648,Colour_Asymmetry_Pilot,2022.1.3,Win32,119.6601651,629c4b6caf241d5e6e00bfc0,,,,,,,,,,,,,,,,,,,,twofour,,-4,2.1085,,,,,,,,,,,,,,,,,,,,,,,,,,,,,,,,,,"[0.9763999999999999,-0.1137999999999999,-0.6314]","[-0.30200000000000005,0.14500000000000002,0.2784]",-32,95,1,0,0,response7disk,2,-5,1,0,0,rectangle,2,-5,1,0,0,,2,0.0005,0,2,-5,1,0,0,0,21,21,66,1,66,first,,,,,,,,,,,,,,,,,,,,,,,,,,,,,,,,,,,,,,,,,,,,,,,,,,,,,,,,
,,,,,,603953e7302d0728f1519ad7,629c51b733f83b5dbddc8598,2022-06-05_08h49.53.648,Colour_Asymmetry_Pilot,2022.1.3,Win32,119.6601651,629c4b6caf241d5e6e00bfc0,,,,,,,,,,,,,,,,,,,,fourthree,,-4,0.5085,,,,,,,,,,,,,,,,,,,,,,,,,,,,,,,,,,"[0.2784,-0.31000000000000005,-0.5452]","[0.9372,0.9450000000000001,0.8980000000000001]",-38,97,1,0,0,response7disk,-3,2,1,0,0,rectangle,-3,2,1,0,0,,1,0.0004,0,-3,2,1,0,0,0,22,22,134,1,53,second,,,,,,,,,,,,,,,,,,,,,,,,,,,,,,,,,,,,,,,,,,,,,,,,,,,,,,,,
,,,,,,603953e7302d0728f1519ad7,629c51b733f83b5dbddc8598,2022-06-05_08h49.53.648,Colour_Asymmetry_Pilot,2022.1.3,Win32,119.6601651,629c4b6caf241d5e6e00bfc0,,,,,,,,,,,,,,,,,,,,twofour,,-4,0.3248,,,,,,,,,,,,,,,,,,,,,,,,,,,,,,,,,,"[0.40379999999999994,0.09000000000000008,0.44300000000000006]","[-0.17659999999999998,0.3253999999999999,0.19999999999999996]",-25,86,1,0,0,response7disk,0,10,1,0,0,rectangle,0,10,1,0,0,,3,0.0005,0,0,10,1,0,0,0,23,23,89,1,8,second,,,,,,,,,,,,,,,,,,,,,,,,,,,,,,,,,,,,,,,,,,,,,,,,,,,,,,,,
,,,,,,603953e7302d0728f1519ad7,629c51b733f83b5dbddc8598,2022-06-05_08h49.53.648,Colour_Asymmetry_Pilot,2022.1.3,Win32,119.6601651,629c4b6caf241d5e6e00bfc0,,,,,,,,,,,,,,,,,,,,fourthree,,-1,1.2421,,,,,,,,,,,,,,,,,,,,,,,,,,,,,,,,,,"[0.12939999999999996,-0.2864,0.3253999999999999]","[-0.01980000000000004,-0.5138,-0.38039999999999996]",-34,-95,1,0,0,response5disk,-6,0,1,0,0,rectangle,-6,0,1,0,0,,1,0.0005,0,-6,0,1,0,0,0,24,24,4,1,4,first,,,,,,,,,,,,,,,,,,,,,,,,,,,,,,,,,,,,,,,,,,,,,,,,,,,,,,,,
,,,,,,603953e7302d0728f1519ad7,629c51b733f83b5dbddc8598,2022-06-05_08h49.53.648,Colour_Asymmetry_Pilot,2022.1.3,Win32,119.6601651,629c4b6caf241d5e6e00bfc0,,,,,,,,,,,,,,,,,,,,onetwo,,-4,0.4999,,,,,,,,,,,,,,,,,,,,,,,,,,,,,,,,,,"[-0.2942,-0.7648,-0.7492000000000001]","[0.6625999999999999,0.4980000000000002,-0.357]",-26,98,1,0,0,response7disk,7,1,1,0,0,rectangle,7,1,1,0,0,,2,0.0006,0,7,1,1,0,0,0,25,25,142,1,61,second,,,,,,,,,,,,,,,,,,,,,,,,,,,,,,,,,,,,,,,,,,,,,,,,,,,,,,,,
,,,,,,603953e7302d0728f1519ad7,629c51b733f83b5dbddc8598,2022-06-05_08h49.53.648,Colour_Asymmetry_Pilot,2022.1.3,Win32,119.6601651,629c4b6caf241d5e6e00bfc0,,,,,,,,,,,,,,,,,,,,onetwo,,-1,1.9421,,,,,,,,,,,,,,,,,,,,,,,,,,,,,,,,,,"[-0.9688,-0.38039999999999996,-0.41979999999999995]","[0.4196,0.4665999999999999,0.3568]",-29,-81,1,0,0,response5disk,1,-3,1,0,0,rectangle,1,-3,1,0,0,,1,0.0005,0,1,-3,1,0,0,0,26,26,100,1,19,second,,,,,,,,,,,,,,,,,,,,,,,,,,,,,,,,,,,,,,,,,,,,,,,,,,,,,,,,
,,,,,,603953e7302d0728f1519ad7,629c51b733f83b5dbddc8598,2022-06-05_08h49.53.648,Colour_Asymmetry_Pilot,2022.1.3,Win32,119.6601651,629c4b6caf241d5e6e00bfc0,,,,,,,,,,,,,,,,,,,,threeone,,-4,2.9335,,,,,,,,,,,,,,,,,,,,,,,,,,,,,,,,,,"[-0.20799999999999996,-0.655,-0.01980000000000004]","[0.5528,0.7409999999999999,-0.71]",-40,105,1,0,0,response7disk,-13,-4,1,0,0,rectangle,-13,-4,1,0,0,,2,0.0005,0,-13,-4,1,0,0,0,27,27,13,1,13,first,,,,,,,,,,,,,,,,,,,,,,,,,,,,,,,,,,,,,,,,,,,,,,,,,,,,,,,,
