trials.thisRepN,trials.thisTrialN,trials.thisN,trials.thisIndex,trials.ran,Colourcodes,participant,session,date,expName,psychopyVersion,OS,frameRate,study_id,trials_4.thisRepN,trials_4.thisTrialN,trials_4.thisN,trials_4.thisIndex,trials_4.ran,StimulusPos,key_resp.keys,key_resp.rt,key_resp_2.keys,key_resp_2.rt,key_resp_15.keys,key_resp_15.rt,key_resp_17.keys,key_resp_17.rt,key_resp_9.keys,key_resp_9.rt,key_resp_10.keys,key_resp_10.rt,Circle1_col,Ecc,Circle2_col,similarity,response_time,mouse_5.x,mouse_5.y,mouse_5.leftButton,mouse_5.midButton,mouse_5.rightButton,mouse_5.clicked_name,mouse_10.x,mouse_10.y,mouse_10.leftButton,mouse_10.midButton,mouse_10.rightButton,mouse_10.clicked_name,mouse_7.x,mouse_7.y,mouse_7.leftButton,mouse_7.midButton,mouse_7.rightButton,catchnumberprac,mouse_6.x,mouse_6.y,mouse_6.leftButton,mouse_6.midButton,mouse_6.rightButton,duringprac.thisRepN,duringprac.thisTrialN,duringprac.thisN,duringprac.thisIndex,duringprac.ran,mouse_7.clicked_name,catchprac,mouse_6.clicked_name,key_resp_22.keys,key_resp_22.rt,Circle1_colour,Circle2_colour,mouse.x,mouse.y,mouse.leftButton,mouse.midButton,mouse.rightButton,mouse.clicked_name,mouse_2.x,mouse_2.y,mouse_2.leftButton,mouse_2.midButton,mouse_2.rightButton,mouse_2.clicked_name,mouse_3.x,mouse_3.y,mouse_3.leftButton,mouse_3.midButton,mouse_3.rightButton,catchresponse,catchnumber,response_time_catch,Catch,mouse_11.x,mouse_11.y,mouse_11.leftButton,mouse_11.midButton,mouse_11.rightButton,trials_2.thisRepN,trials_2.thisTrialN,trials_2.thisN,trials_2.thisIndex,trials_2.ran,Colourpair,Temporder,mouse_3.clicked_name,mouse_11.clicked_name,trials_3.thisRepN,trials_3.thisTrialN,trials_3.thisN,trials_3.thisIndex,trials_3.ran,textbox.text,mouse_4.x,mouse_4.y,mouse_4.leftButton,mouse_4.midButton,mouse_4.rightButton,mouse_4.clicked_name,textbox_2.text,mouse_8.x,mouse_8.y,mouse_8.leftButton,mouse_8.midButton,mouse_8.rightButton,mouse_8.clicked_name,textbox_3.text,mouse_9.x,mouse_9.y,mouse_9.leftButton,mouse_9.midButton,mouse_9.rightButton,mouse_9.clicked_name,textbox_4.text,mouse_12.x,mouse_12.y,mouse_12.leftButton,mouse_12.midButton,mouse_12.rightButton,mouse_12.clicked_name,textbox_5.text,mouse_13.x,mouse_13.y,mouse_13.leftButton,mouse_13.midButton,mouse_13.rightButton,mouse_13.clicked_name,textbox_6.text,mouse_14.x,mouse_14.y,mouse_14.leftButton,mouse_14.midButton,mouse_14.rightButton,mouse_14.clicked_name,textbox_7.text,mouse_15.x,mouse_15.y,mouse_15.leftButton,mouse_15.midButton,mouse_15.rightButton,mouse_15.clicked_name
0,0,0,32,1,,613c542c957161802d700fb2,629c51ed7194cb9303f1baa5,2022-06-04_23h50.58.983,Colour_Asymmetry_Pilot,2022.1.3,Win32,60.24459305,629c4b6caf241d5e6e00bfc0,,,,,,,,,,,,,,,,,,,,,,,,,,,,,,,,,,,,,,,,,,,,,,,,,,,,,,,,,,,,,,,,,,,,,,,,,,,,,,,,,,,,,,,,,,,,,,,,,,,,,,,,,,,,,,,,,,,,,,,,,,,,,,,,,,,,,,,,,,,,,,,,,,,
0,1,1,73,1,,613c542c957161802d700fb2,629c51ed7194cb9303f1baa5,2022-06-04_23h50.58.983,Colour_Asymmetry_Pilot,2022.1.3,Win32,60.24459305,629c4b6caf241d5e6e00bfc0,,,,,,,,,,,,,,,,,,,,,,,,,,,,,,,,,,,,,,,,,,,,,,,,,,,,,,,,,,,,,,,,,,,,,,,,,,,,,,,,,,,,,,,,,,,,,,,,,,,,,,,,,,,,,,,,,,,,,,,,,,,,,,,,,,,,,,,,,,,,,,,,,,,
0,2,2,26,1,,613c542c957161802d700fb2,629c51ed7194cb9303f1baa5,2022-06-04_23h50.58.983,Colour_Asymmetry_Pilot,2022.1.3,Win32,60.24459305,629c4b6caf241d5e6e00bfc0,,,,,,,,,,,,,,,,,,,,,,,,,,,,,,,,,,,,,,,,,,,,,,,,,,,,,,,,,,,,,,,,,,,,,,,,,,,,,,,,,,,,,,,,,,,,,,,,,,,,,,,,,,,,,,,,,,,,,,,,,,,,,,,,,,,,,,,,,,,,,,,,,,,
0,3,3,67,1,,613c542c957161802d700fb2,629c51ed7194cb9303f1baa5,2022-06-04_23h50.58.983,Colour_Asymmetry_Pilot,2022.1.3,Win32,60.24459305,629c4b6caf241d5e6e00bfc0,,,,,,,,,,,,,,,,,,,,,,,,,,,,,,,,,,,,,,,,,,,,,,,,,,,,,,,,,,,,,,,,,,,,,,,,,,,,,,,,,,,,,,,,,,,,,,,,,,,,,,,,,,,,,,,,,,,,,,,,,,,,,,,,,,,,,,,,,,,,,,,,,,,
0,4,4,10,1,,613c542c957161802d700fb2,629c51ed7194cb9303f1baa5,2022-06-04_23h50.58.983,Colour_Asymmetry_Pilot,2022.1.3,Win32,60.24459305,629c4b6caf241d5e6e00bfc0,,,,,,,,,,,,,,,,,,,,,,,,,,,,,,,,,,,,,,,,,,,,,,,,,,,,,,,,,,,,,,,,,,,,,,,,,,,,,,,,,,,,,,,,,,,,,,,,,,,,,,,,,,,,,,,,,,,,,,,,,,,,,,,,,,,,,,,,,,,,,,,,,,,
0,5,5,13,1,,613c542c957161802d700fb2,629c51ed7194cb9303f1baa5,2022-06-04_23h50.58.983,Colour_Asymmetry_Pilot,2022.1.3,Win32,60.24459305,629c4b6caf241d5e6e00bfc0,,,,,,,,,,,,,,,,,,,,,,,,,,,,,,,,,,,,,,,,,,,,,,,,,,,,,,,,,,,,,,,,,,,,,,,,,,,,,,,,,,,,,,,,,,,,,,,,,,,,,,,,,,,,,,,,,,,,,,,,,,,,,,,,,,,,,,,,,,,,,,,,,,,
0,6,6,31,1,,613c542c957161802d700fb2,629c51ed7194cb9303f1baa5,2022-06-04_23h50.58.983,Colour_Asymmetry_Pilot,2022.1.3,Win32,60.24459305,629c4b6caf241d5e6e00bfc0,,,,,,,,,,,,,,,,,,,,,,,,,,,,,,,,,,,,,,,,,,,,,,,,,,,,,,,,,,,,,,,,,,,,,,,,,,,,,,,,,,,,,,,,,,,,,,,,,,,,,,,,,,,,,,,,,,,,,,,,,,,,,,,,,,,,,,,,,,,,,,,,,,,
0,7,7,64,1,,613c542c957161802d700fb2,629c51ed7194cb9303f1baa5,2022-06-04_23h50.58.983,Colour_Asymmetry_Pilot,2022.1.3,Win32,60.24459305,629c4b6caf241d5e6e00bfc0,,,,,,,,,,,,,,,,,,,,,,,,,,,,,,,,,,,,,,,,,,,,,,,,,,,,,,,,,,,,,,,,,,,,,,,,,,,,,,,,,,,,,,,,,,,,,,,,,,,,,,,,,,,,,,,,,,,,,,,,,,,,,,,,,,,,,,,,,,,,,,,,,,,
0,8,8,55,1,,613c542c957161802d700fb2,629c51ed7194cb9303f1baa5,2022-06-04_23h50.58.983,Colour_Asymmetry_Pilot,2022.1.3,Win32,60.24459305,629c4b6caf241d5e6e00bfc0,,,,,,,,,,,,,,,,,,,,,,,,,,,,,,,,,,,,,,,,,,,,,,,,,,,,,,,,,,,,,,,,,,,,,,,,,,,,,,,,,,,,,,,,,,,,,,,,,,,,,,,,,,,,,,,,,,,,,,,,,,,,,,,,,,,,,,,,,,,,,,,,,,,
0,9,9,43,1,,613c542c957161802d700fb2,629c51ed7194cb9303f1baa5,2022-06-04_23h50.58.983,Colour_Asymmetry_Pilot,2022.1.3,Win32,60.24459305,629c4b6caf241d5e6e00bfc0,,,,,,,,,,,,,,,,,,,,,,,,,,,,,,,,,,,,,,,,,,,,,,,,,,,,,,,,,,,,,,,,,,,,,,,,,,,,,,,,,,,,,,,,,,,,,,,,,,,,,,,,,,,,,,,,,,,,,,,,,,,,,,,,,,,,,,,,,,,,,,,,,,,
0,10,10,35,1,,613c542c957161802d700fb2,629c51ed7194cb9303f1baa5,2022-06-04_23h50.58.983,Colour_Asymmetry_Pilot,2022.1.3,Win32,60.24459305,629c4b6caf241d5e6e00bfc0,,,,,,,,,,,,,,,,,,,,,,,,,,,,,,,,,,,,,,,,,,,,,,,,,,,,,,,,,,,,,,,,,,,,,,,,,,,,,,,,,,,,,,,,,,,,,,,,,,,,,,,,,,,,,,,,,,,,,,,,,,,,,,,,,,,,,,,,,,,,,,,,,,,
0,11,11,40,1,,613c542c957161802d700fb2,629c51ed7194cb9303f1baa5,2022-06-04_23h50.58.983,Colour_Asymmetry_Pilot,2022.1.3,Win32,60.24459305,629c4b6caf241d5e6e00bfc0,,,,,,,,,,,,,,,,,,,,,,,,,,,,,,,,,,,,,,,,,,,,,,,,,,,,,,,,,,,,,,,,,,,,,,,,,,,,,,,,,,,,,,,,,,,,,,,,,,,,,,,,,,,,,,,,,,,,,,,,,,,,,,,,,,,,,,,,,,,,,,,,,,,
0,12,12,38,1,,613c542c957161802d700fb2,629c51ed7194cb9303f1baa5,2022-06-04_23h50.58.983,Colour_Asymmetry_Pilot,2022.1.3,Win32,60.24459305,629c4b6caf241d5e6e00bfc0,,,,,,,,,,,,,,,,,,,,,,,,,,,,,,,,,,,,,,,,,,,,,,,,,,,,,,,,,,,,,,,,,,,,,,,,,,,,,,,,,,,,,,,,,,,,,,,,,,,,,,,,,,,,,,,,,,,,,,,,,,,,,,,,,,,,,,,,,,,,,,,,,,,
0,13,13,15,1,,613c542c957161802d700fb2,629c51ed7194cb9303f1baa5,2022-06-04_23h50.58.983,Colour_Asymmetry_Pilot,2022.1.3,Win32,60.24459305,629c4b6caf241d5e6e00bfc0,,,,,,,,,,,,,,,,,,,,,,,,,,,,,,,,,,,,,,,,,,,,,,,,,,,,,,,,,,,,,,,,,,,,,,,,,,,,,,,,,,,,,,,,,,,,,,,,,,,,,,,,,,,,,,,,,,,,,,,,,,,,,,,,,,,,,,,,,,,,,,,,,,,
0,14,14,41,1,,613c542c957161802d700fb2,629c51ed7194cb9303f1baa5,2022-06-04_23h50.58.983,Colour_Asymmetry_Pilot,2022.1.3,Win32,60.24459305,629c4b6caf241d5e6e00bfc0,,,,,,,,,,,,,,,,,,,,,,,,,,,,,,,,,,,,,,,,,,,,,,,,,,,,,,,,,,,,,,,,,,,,,,,,,,,,,,,,,,,,,,,,,,,,,,,,,,,,,,,,,,,,,,,,,,,,,,,,,,,,,,,,,,,,,,,,,,,,,,,,,,,
0,15,15,92,1,,613c542c957161802d700fb2,629c51ed7194cb9303f1baa5,2022-06-04_23h50.58.983,Colour_Asymmetry_Pilot,2022.1.3,Win32,60.24459305,629c4b6caf241d5e6e00bfc0,,,,,,,,,,,,,,,,,,,,,,,,,,,,,,,,,,,,,,,,,,,,,,,,,,,,,,,,,,,,,,,,,,,,,,,,,,,,,,,,,,,,,,,,,,,,,,,,,,,,,,,,,,,,,,,,,,,,,,,,,,,,,,,,,,,,,,,,,,,,,,,,,,,
0,16,16,69,1,,613c542c957161802d700fb2,629c51ed7194cb9303f1baa5,2022-06-04_23h50.58.983,Colour_Asymmetry_Pilot,2022.1.3,Win32,60.24459305,629c4b6caf241d5e6e00bfc0,,,,,,,,,,,,,,,,,,,,,,,,,,,,,,,,,,,,,,,,,,,,,,,,,,,,,,,,,,,,,,,,,,,,,,,,,,,,,,,,,,,,,,,,,,,,,,,,,,,,,,,,,,,,,,,,,,,,,,,,,,,,,,,,,,,,,,,,,,,,,,,,,,,
0,17,17,16,1,,613c542c957161802d700fb2,629c51ed7194cb9303f1baa5,2022-06-04_23h50.58.983,Colour_Asymmetry_Pilot,2022.1.3,Win32,60.24459305,629c4b6caf241d5e6e00bfc0,,,,,,,,,,,,,,,,,,,,,,,,,,,,,,,,,,,,,,,,,,,,,,,,,,,,,,,,,,,,,,,,,,,,,,,,,,,,,,,,,,,,,,,,,,,,,,,,,,,,,,,,,,,,,,,,,,,,,,,,,,,,,,,,,,,,,,,,,,,,,,,,,,,
0,18,18,87,1,,613c542c957161802d700fb2,629c51ed7194cb9303f1baa5,2022-06-04_23h50.58.983,Colour_Asymmetry_Pilot,2022.1.3,Win32,60.24459305,629c4b6caf241d5e6e00bfc0,,,,,,,,,,,,,,,,,,,,,,,,,,,,,,,,,,,,,,,,,,,,,,,,,,,,,,,,,,,,,,,,,,,,,,,,,,,,,,,,,,,,,,,,,,,,,,,,,,,,,,,,,,,,,,,,,,,,,,,,,,,,,,,,,,,,,,,,,,,,,,,,,,,
0,19,19,52,1,,613c542c957161802d700fb2,629c51ed7194cb9303f1baa5,2022-06-04_23h50.58.983,Colour_Asymmetry_Pilot,2022.1.3,Win32,60.24459305,629c4b6caf241d5e6e00bfc0,,,,,,,,,,,,,,,,,,,,,,,,,,,,,,,,,,,,,,,,,,,,,,,,,,,,,,,,,,,,,,,,,,,,,,,,,,,,,,,,,,,,,,,,,,,,,,,,,,,,,,,,,,,,,,,,,,,,,,,,,,,,,,,,,,,,,,,,,,,,,,,,,,,
0,20,20,37,1,,613c542c957161802d700fb2,629c51ed7194cb9303f1baa5,2022-06-04_23h50.58.983,Colour_Asymmetry_Pilot,2022.1.3,Win32,60.24459305,629c4b6caf241d5e6e00bfc0,,,,,,,,,,,,,,,,,,,,,,,,,,,,,,,,,,,,,,,,,,,,,,,,,,,,,,,,,,,,,,,,,,,,,,,,,,,,,,,,,,,,,,,,,,,,,,,,,,,,,,,,,,,,,,,,,,,,,,,,,,,,,,,,,,,,,,,,,,,,,,,,,,,
0,21,21,59,1,,613c542c957161802d700fb2,629c51ed7194cb9303f1baa5,2022-06-04_23h50.58.983,Colour_Asymmetry_Pilot,2022.1.3,Win32,60.24459305,629c4b6caf241d5e6e00bfc0,,,,,,,,,,,,,,,,,,,,,,,,,,,,,,,,,,,,,,,,,,,,,,,,,,,,,,,,,,,,,,,,,,,,,,,,,,,,,,,,,,,,,,,,,,,,,,,,,,,,,,,,,,,,,,,,,,,,,,,,,,,,,,,,,,,,,,,,,,,,,,,,,,,
0,22,22,48,1,,613c542c957161802d700fb2,629c51ed7194cb9303f1baa5,2022-06-04_23h50.58.983,Colour_Asymmetry_Pilot,2022.1.3,Win32,60.24459305,629c4b6caf241d5e6e00bfc0,,,,,,,,,,,,,,,,,,,,,,,,,,,,,,,,,,,,,,,,,,,,,,,,,,,,,,,,,,,,,,,,,,,,,,,,,,,,,,,,,,,,,,,,,,,,,,,,,,,,,,,,,,,,,,,,,,,,,,,,,,,,,,,,,,,,,,,,,,,,,,,,,,,
0,23,23,85,1,,613c542c957161802d700fb2,629c51ed7194cb9303f1baa5,2022-06-04_23h50.58.983,Colour_Asymmetry_Pilot,2022.1.3,Win32,60.24459305,629c4b6caf241d5e6e00bfc0,,,,,,,,,,,,,,,,,,,,,,,,,,,,,,,,,,,,,,,,,,,,,,,,,,,,,,,,,,,,,,,,,,,,,,,,,,,,,,,,,,,,,,,,,,,,,,,,,,,,,,,,,,,,,,,,,,,,,,,,,,,,,,,,,,,,,,,,,,,,,,,,,,,
0,24,24,33,1,,613c542c957161802d700fb2,629c51ed7194cb9303f1baa5,2022-06-04_23h50.58.983,Colour_Asymmetry_Pilot,2022.1.3,Win32,60.24459305,629c4b6caf241d5e6e00bfc0,,,,,,,,,,,,,,,,,,,,,,,,,,,,,,,,,,,,,,,,,,,,,,,,,,,,,,,,,,,,,,,,,,,,,,,,,,,,,,,,,,,,,,,,,,,,,,,,,,,,,,,,,,,,,,,,,,,,,,,,,,,,,,,,,,,,,,,,,,,,,,,,,,,
0,25,25,63,1,,613c542c957161802d700fb2,629c51ed7194cb9303f1baa5,2022-06-04_23h50.58.983,Colour_Asymmetry_Pilot,2022.1.3,Win32,60.24459305,629c4b6caf241d5e6e00bfc0,,,,,,,,,,,,,,,,,,,,,,,,,,,,,,,,,,,,,,,,,,,,,,,,,,,,,,,,,,,,,,,,,,,,,,,,,,,,,,,,,,,,,,,,,,,,,,,,,,,,,,,,,,,,,,,,,,,,,,,,,,,,,,,,,,,,,,,,,,,,,,,,,,,
0,26,26,58,1,,613c542c957161802d700fb2,629c51ed7194cb9303f1baa5,2022-06-04_23h50.58.983,Colour_Asymmetry_Pilot,2022.1.3,Win32,60.24459305,629c4b6caf241d5e6e00bfc0,,,,,,,,,,,,,,,,,,,,,,,,,,,,,,,,,,,,,,,,,,,,,,,,,,,,,,,,,,,,,,,,,,,,,,,,,,,,,,,,,,,,,,,,,,,,,,,,,,,,,,,,,,,,,,,,,,,,,,,,,,,,,,,,,,,,,,,,,,,,,,,,,,,
0,27,27,77,1,,613c542c957161802d700fb2,629c51ed7194cb9303f1baa5,2022-06-04_23h50.58.983,Colour_Asymmetry_Pilot,2022.1.3,Win32,60.24459305,629c4b6caf241d5e6e00bfc0,,,,,,,,,,,,,,,,,,,,,,,,,,,,,,,,,,,,,,,,,,,,,,,,,,,,,,,,,,,,,,,,,,,,,,,,,,,,,,,,,,,,,,,,,,,,,,,,,,,,,,,,,,,,,,,,,,,,,,,,,,,,,,,,,,,,,,,,,,,,,,,,,,,
0,28,28,79,1,,613c542c957161802d700fb2,629c51ed7194cb9303f1baa5,2022-06-04_23h50.58.983,Colour_Asymmetry_Pilot,2022.1.3,Win32,60.24459305,629c4b6caf241d5e6e00bfc0,,,,,,,,,,,,,,,,,,,,,,,,,,,,,,,,,,,,,,,,,,,,,,,,,,,,,,,,,,,,,,,,,,,,,,,,,,,,,,,,,,,,,,,,,,,,,,,,,,,,,,,,,,,,,,,,,,,,,,,,,,,,,,,,,,,,,,,,,,,,,,,,,,,
0,29,29,4,1,,613c542c957161802d700fb2,629c51ed7194cb9303f1baa5,2022-06-04_23h50.58.983,Colour_Asymmetry_Pilot,2022.1.3,Win32,60.24459305,629c4b6caf241d5e6e00bfc0,,,,,,,,,,,,,,,,,,,,,,,,,,,,,,,,,,,,,,,,,,,,,,,,,,,,,,,,,,,,,,,,,,,,,,,,,,,,,,,,,,,,,,,,,,,,,,,,,,,,,,,,,,,,,,,,,,,,,,,,,,,,,,,,,,,,,,,,,,,,,,,,,,,
0,30,30,75,1,,613c542c957161802d700fb2,629c51ed7194cb9303f1baa5,2022-06-04_23h50.58.983,Colour_Asymmetry_Pilot,2022.1.3,Win32,60.24459305,629c4b6caf241d5e6e00bfc0,,,,,,,,,,,,,,,,,,,,,,,,,,,,,,,,,,,,,,,,,,,,,,,,,,,,,,,,,,,,,,,,,,,,,,,,,,,,,,,,,,,,,,,,,,,,,,,,,,,,,,,,,,,,,,,,,,,,,,,,,,,,,,,,,,,,,,,,,,,,,,,,,,,
0,31,31,62,1,,613c542c957161802d700fb2,629c51ed7194cb9303f1baa5,2022-06-04_23h50.58.983,Colour_Asymmetry_Pilot,2022.1.3,Win32,60.24459305,629c4b6caf241d5e6e00bfc0,,,,,,,,,,,,,,,,,,,,,,,,,,,,,,,,,,,,,,,,,,,,,,,,,,,,,,,,,,,,,,,,,,,,,,,,,,,,,,,,,,,,,,,,,,,,,,,,,,,,,,,,,,,,,,,,,,,,,,,,,,,,,,,,,,,,,,,,,,,,,,,,,,,
0,32,32,19,1,,613c542c957161802d700fb2,629c51ed7194cb9303f1baa5,2022-06-04_23h50.58.983,Colour_Asymmetry_Pilot,2022.1.3,Win32,60.24459305,629c4b6caf241d5e6e00bfc0,,,,,,,,,,,,,,,,,,,,,,,,,,,,,,,,,,,,,,,,,,,,,,,,,,,,,,,,,,,,,,,,,,,,,,,,,,,,,,,,,,,,,,,,,,,,,,,,,,,,,,,,,,,,,,,,,,,,,,,,,,,,,,,,,,,,,,,,,,,,,,,,,,,
0,33,33,89,1,,613c542c957161802d700fb2,629c51ed7194cb9303f1baa5,2022-06-04_23h50.58.983,Colour_Asymmetry_Pilot,2022.1.3,Win32,60.24459305,629c4b6caf241d5e6e00bfc0,,,,,,,,,,,,,,,,,,,,,,,,,,,,,,,,,,,,,,,,,,,,,,,,,,,,,,,,,,,,,,,,,,,,,,,,,,,,,,,,,,,,,,,,,,,,,,,,,,,,,,,,,,,,,,,,,,,,,,,,,,,,,,,,,,,,,,,,,,,,,,,,,,,
0,34,34,20,1,,613c542c957161802d700fb2,629c51ed7194cb9303f1baa5,2022-06-04_23h50.58.983,Colour_Asymmetry_Pilot,2022.1.3,Win32,60.24459305,629c4b6caf241d5e6e00bfc0,,,,,,,,,,,,,,,,,,,,,,,,,,,,,,,,,,,,,,,,,,,,,,,,,,,,,,,,,,,,,,,,,,,,,,,,,,,,,,,,,,,,,,,,,,,,,,,,,,,,,,,,,,,,,,,,,,,,,,,,,,,,,,,,,,,,,,,,,,,,,,,,,,,
0,35,35,0,1,,613c542c957161802d700fb2,629c51ed7194cb9303f1baa5,2022-06-04_23h50.58.983,Colour_Asymmetry_Pilot,2022.1.3,Win32,60.24459305,629c4b6caf241d5e6e00bfc0,,,,,,,,,,,,,,,,,,,,,,,,,,,,,,,,,,,,,,,,,,,,,,,,,,,,,,,,,,,,,,,,,,,,,,,,,,,,,,,,,,,,,,,,,,,,,,,,,,,,,,,,,,,,,,,,,,,,,,,,,,,,,,,,,,,,,,,,,,,,,,,,,,,
0,36,36,9,1,,613c542c957161802d700fb2,629c51ed7194cb9303f1baa5,2022-06-04_23h50.58.983,Colour_Asymmetry_Pilot,2022.1.3,Win32,60.24459305,629c4b6caf241d5e6e00bfc0,,,,,,,,,,,,,,,,,,,,,,,,,,,,,,,,,,,,,,,,,,,,,,,,,,,,,,,,,,,,,,,,,,,,,,,,,,,,,,,,,,,,,,,,,,,,,,,,,,,,,,,,,,,,,,,,,,,,,,,,,,,,,,,,,,,,,,,,,,,,,,,,,,,
0,37,37,25,1,,613c542c957161802d700fb2,629c51ed7194cb9303f1baa5,2022-06-04_23h50.58.983,Colour_Asymmetry_Pilot,2022.1.3,Win32,60.24459305,629c4b6caf241d5e6e00bfc0,,,,,,,,,,,,,,,,,,,,,,,,,,,,,,,,,,,,,,,,,,,,,,,,,,,,,,,,,,,,,,,,,,,,,,,,,,,,,,,,,,,,,,,,,,,,,,,,,,,,,,,,,,,,,,,,,,,,,,,,,,,,,,,,,,,,,,,,,,,,,,,,,,,
0,38,38,42,1,,613c542c957161802d700fb2,629c51ed7194cb9303f1baa5,2022-06-04_23h50.58.983,Colour_Asymmetry_Pilot,2022.1.3,Win32,60.24459305,629c4b6caf241d5e6e00bfc0,,,,,,,,,,,,,,,,,,,,,,,,,,,,,,,,,,,,,,,,,,,,,,,,,,,,,,,,,,,,,,,,,,,,,,,,,,,,,,,,,,,,,,,,,,,,,,,,,,,,,,,,,,,,,,,,,,,,,,,,,,,,,,,,,,,,,,,,,,,,,,,,,,,
0,39,39,27,1,,613c542c957161802d700fb2,629c51ed7194cb9303f1baa5,2022-06-04_23h50.58.983,Colour_Asymmetry_Pilot,2022.1.3,Win32,60.24459305,629c4b6caf241d5e6e00bfc0,,,,,,,,,,,,,,,,,,,,,,,,,,,,,,,,,,,,,,,,,,,,,,,,,,,,,,,,,,,,,,,,,,,,,,,,,,,,,,,,,,,,,,,,,,,,,,,,,,,,,,,,,,,,,,,,,,,,,,,,,,,,,,,,,,,,,,,,,,,,,,,,,,,
0,40,40,5,1,,613c542c957161802d700fb2,629c51ed7194cb9303f1baa5,2022-06-04_23h50.58.983,Colour_Asymmetry_Pilot,2022.1.3,Win32,60.24459305,629c4b6caf241d5e6e00bfc0,,,,,,,,,,,,,,,,,,,,,,,,,,,,,,,,,,,,,,,,,,,,,,,,,,,,,,,,,,,,,,,,,,,,,,,,,,,,,,,,,,,,,,,,,,,,,,,,,,,,,,,,,,,,,,,,,,,,,,,,,,,,,,,,,,,,,,,,,,,,,,,,,,,
0,41,41,18,1,,613c542c957161802d700fb2,629c51ed7194cb9303f1baa5,2022-06-04_23h50.58.983,Colour_Asymmetry_Pilot,2022.1.3,Win32,60.24459305,629c4b6caf241d5e6e00bfc0,,,,,,,,,,,,,,,,,,,,,,,,,,,,,,,,,,,,,,,,,,,,,,,,,,,,,,,,,,,,,,,,,,,,,,,,,,,,,,,,,,,,,,,,,,,,,,,,,,,,,,,,,,,,,,,,,,,,,,,,,,,,,,,,,,,,,,,,,,,,,,,,,,,
0,42,42,51,1,,613c542c957161802d700fb2,629c51ed7194cb9303f1baa5,2022-06-04_23h50.58.983,Colour_Asymmetry_Pilot,2022.1.3,Win32,60.24459305,629c4b6caf241d5e6e00bfc0,,,,,,,,,,,,,,,,,,,,,,,,,,,,,,,,,,,,,,,,,,,,,,,,,,,,,,,,,,,,,,,,,,,,,,,,,,,,,,,,,,,,,,,,,,,,,,,,,,,,,,,,,,,,,,,,,,,,,,,,,,,,,,,,,,,,,,,,,,,,,,,,,,,
0,43,43,71,1,,613c542c957161802d700fb2,629c51ed7194cb9303f1baa5,2022-06-04_23h50.58.983,Colour_Asymmetry_Pilot,2022.1.3,Win32,60.24459305,629c4b6caf241d5e6e00bfc0,,,,,,,,,,,,,,,,,,,,,,,,,,,,,,,,,,,,,,,,,,,,,,,,,,,,,,,,,,,,,,,,,,,,,,,,,,,,,,,,,,,,,,,,,,,,,,,,,,,,,,,,,,,,,,,,,,,,,,,,,,,,,,,,,,,,,,,,,,,,,,,,,,,
0,44,44,22,1,,613c542c957161802d700fb2,629c51ed7194cb9303f1baa5,2022-06-04_23h50.58.983,Colour_Asymmetry_Pilot,2022.1.3,Win32,60.24459305,629c4b6caf241d5e6e00bfc0,,,,,,,,,,,,,,,,,,,,,,,,,,,,,,,,,,,,,,,,,,,,,,,,,,,,,,,,,,,,,,,,,,,,,,,,,,,,,,,,,,,,,,,,,,,,,,,,,,,,,,,,,,,,,,,,,,,,,,,,,,,,,,,,,,,,,,,,,,,,,,,,,,,
0,45,45,54,1,,613c542c957161802d700fb2,629c51ed7194cb9303f1baa5,2022-06-04_23h50.58.983,Colour_Asymmetry_Pilot,2022.1.3,Win32,60.24459305,629c4b6caf241d5e6e00bfc0,,,,,,,,,,,,,,,,,,,,,,,,,,,,,,,,,,,,,,,,,,,,,,,,,,,,,,,,,,,,,,,,,,,,,,,,,,,,,,,,,,,,,,,,,,,,,,,,,,,,,,,,,,,,,,,,,,,,,,,,,,,,,,,,,,,,,,,,,,,,,,,,,,,
0,46,46,72,1,,613c542c957161802d700fb2,629c51ed7194cb9303f1baa5,2022-06-04_23h50.58.983,Colour_Asymmetry_Pilot,2022.1.3,Win32,60.24459305,629c4b6caf241d5e6e00bfc0,,,,,,,,,,,,,,,,,,,,,,,,,,,,,,,,,,,,,,,,,,,,,,,,,,,,,,,,,,,,,,,,,,,,,,,,,,,,,,,,,,,,,,,,,,,,,,,,,,,,,,,,,,,,,,,,,,,,,,,,,,,,,,,,,,,,,,,,,,,,,,,,,,,
0,47,47,47,1,,613c542c957161802d700fb2,629c51ed7194cb9303f1baa5,2022-06-04_23h50.58.983,Colour_Asymmetry_Pilot,2022.1.3,Win32,60.24459305,629c4b6caf241d5e6e00bfc0,,,,,,,,,,,,,,,,,,,,,,,,,,,,,,,,,,,,,,,,,,,,,,,,,,,,,,,,,,,,,,,,,,,,,,,,,,,,,,,,,,,,,,,,,,,,,,,,,,,,,,,,,,,,,,,,,,,,,,,,,,,,,,,,,,,,,,,,,,,,,,,,,,,
0,48,48,88,1,,613c542c957161802d700fb2,629c51ed7194cb9303f1baa5,2022-06-04_23h50.58.983,Colour_Asymmetry_Pilot,2022.1.3,Win32,60.24459305,629c4b6caf241d5e6e00bfc0,,,,,,,,,,,,,,,,,,,,,,,,,,,,,,,,,,,,,,,,,,,,,,,,,,,,,,,,,,,,,,,,,,,,,,,,,,,,,,,,,,,,,,,,,,,,,,,,,,,,,,,,,,,,,,,,,,,,,,,,,,,,,,,,,,,,,,,,,,,,,,,,,,,
0,49,49,74,1,,613c542c957161802d700fb2,629c51ed7194cb9303f1baa5,2022-06-04_23h50.58.983,Colour_Asymmetry_Pilot,2022.1.3,Win32,60.24459305,629c4b6caf241d5e6e00bfc0,,,,,,,,,,,,,,,,,,,,,,,,,,,,,,,,,,,,,,,,,,,,,,,,,,,,,,,,,,,,,,,,,,,,,,,,,,,,,,,,,,,,,,,,,,,,,,,,,,,,,,,,,,,,,,,,,,,,,,,,,,,,,,,,,,,,,,,,,,,,,,,,,,,
0,50,50,44,1,,613c542c957161802d700fb2,629c51ed7194cb9303f1baa5,2022-06-04_23h50.58.983,Colour_Asymmetry_Pilot,2022.1.3,Win32,60.24459305,629c4b6caf241d5e6e00bfc0,,,,,,,,,,,,,,,,,,,,,,,,,,,,,,,,,,,,,,,,,,,,,,,,,,,,,,,,,,,,,,,,,,,,,,,,,,,,,,,,,,,,,,,,,,,,,,,,,,,,,,,,,,,,,,,,,,,,,,,,,,,,,,,,,,,,,,,,,,,,,,,,,,,
0,51,51,11,1,,613c542c957161802d700fb2,629c51ed7194cb9303f1baa5,2022-06-04_23h50.58.983,Colour_Asymmetry_Pilot,2022.1.3,Win32,60.24459305,629c4b6caf241d5e6e00bfc0,,,,,,,,,,,,,,,,,,,,,,,,,,,,,,,,,,,,,,,,,,,,,,,,,,,,,,,,,,,,,,,,,,,,,,,,,,,,,,,,,,,,,,,,,,,,,,,,,,,,,,,,,,,,,,,,,,,,,,,,,,,,,,,,,,,,,,,,,,,,,,,,,,,
0,52,52,7,1,,613c542c957161802d700fb2,629c51ed7194cb9303f1baa5,2022-06-04_23h50.58.983,Colour_Asymmetry_Pilot,2022.1.3,Win32,60.24459305,629c4b6caf241d5e6e00bfc0,,,,,,,,,,,,,,,,,,,,,,,,,,,,,,,,,,,,,,,,,,,,,,,,,,,,,,,,,,,,,,,,,,,,,,,,,,,,,,,,,,,,,,,,,,,,,,,,,,,,,,,,,,,,,,,,,,,,,,,,,,,,,,,,,,,,,,,,,,,,,,,,,,,
0,53,53,81,1,,613c542c957161802d700fb2,629c51ed7194cb9303f1baa5,2022-06-04_23h50.58.983,Colour_Asymmetry_Pilot,2022.1.3,Win32,60.24459305,629c4b6caf241d5e6e00bfc0,,,,,,,,,,,,,,,,,,,,,,,,,,,,,,,,,,,,,,,,,,,,,,,,,,,,,,,,,,,,,,,,,,,,,,,,,,,,,,,,,,,,,,,,,,,,,,,,,,,,,,,,,,,,,,,,,,,,,,,,,,,,,,,,,,,,,,,,,,,,,,,,,,,
0,54,54,57,1,,613c542c957161802d700fb2,629c51ed7194cb9303f1baa5,2022-06-04_23h50.58.983,Colour_Asymmetry_Pilot,2022.1.3,Win32,60.24459305,629c4b6caf241d5e6e00bfc0,,,,,,,,,,,,,,,,,,,,,,,,,,,,,,,,,,,,,,,,,,,,,,,,,,,,,,,,,,,,,,,,,,,,,,,,,,,,,,,,,,,,,,,,,,,,,,,,,,,,,,,,,,,,,,,,,,,,,,,,,,,,,,,,,,,,,,,,,,,,,,,,,,,
0,55,55,6,1,,613c542c957161802d700fb2,629c51ed7194cb9303f1baa5,2022-06-04_23h50.58.983,Colour_Asymmetry_Pilot,2022.1.3,Win32,60.24459305,629c4b6caf241d5e6e00bfc0,,,,,,,,,,,,,,,,,,,,,,,,,,,,,,,,,,,,,,,,,,,,,,,,,,,,,,,,,,,,,,,,,,,,,,,,,,,,,,,,,,,,,,,,,,,,,,,,,,,,,,,,,,,,,,,,,,,,,,,,,,,,,,,,,,,,,,,,,,,,,,,,,,,
0,56,56,83,1,,613c542c957161802d700fb2,629c51ed7194cb9303f1baa5,2022-06-04_23h50.58.983,Colour_Asymmetry_Pilot,2022.1.3,Win32,60.24459305,629c4b6caf241d5e6e00bfc0,,,,,,,,,,,,,,,,,,,,,,,,,,,,,,,,,,,,,,,,,,,,,,,,,,,,,,,,,,,,,,,,,,,,,,,,,,,,,,,,,,,,,,,,,,,,,,,,,,,,,,,,,,,,,,,,,,,,,,,,,,,,,,,,,,,,,,,,,,,,,,,,,,,
0,57,57,91,1,,613c542c957161802d700fb2,629c51ed7194cb9303f1baa5,2022-06-04_23h50.58.983,Colour_Asymmetry_Pilot,2022.1.3,Win32,60.24459305,629c4b6caf241d5e6e00bfc0,,,,,,,,,,,,,,,,,,,,,,,,,,,,,,,,,,,,,,,,,,,,,,,,,,,,,,,,,,,,,,,,,,,,,,,,,,,,,,,,,,,,,,,,,,,,,,,,,,,,,,,,,,,,,,,,,,,,,,,,,,,,,,,,,,,,,,,,,,,,,,,,,,,
0,58,58,12,1,,613c542c957161802d700fb2,629c51ed7194cb9303f1baa5,2022-06-04_23h50.58.983,Colour_Asymmetry_Pilot,2022.1.3,Win32,60.24459305,629c4b6caf241d5e6e00bfc0,,,,,,,,,,,,,,,,,,,,,,,,,,,,,,,,,,,,,,,,,,,,,,,,,,,,,,,,,,,,,,,,,,,,,,,,,,,,,,,,,,,,,,,,,,,,,,,,,,,,,,,,,,,,,,,,,,,,,,,,,,,,,,,,,,,,,,,,,,,,,,,,,,,
0,59,59,90,1,,613c542c957161802d700fb2,629c51ed7194cb9303f1baa5,2022-06-04_23h50.58.983,Colour_Asymmetry_Pilot,2022.1.3,Win32,60.24459305,629c4b6caf241d5e6e00bfc0,,,,,,,,,,,,,,,,,,,,,,,,,,,,,,,,,,,,,,,,,,,,,,,,,,,,,,,,,,,,,,,,,,,,,,,,,,,,,,,,,,,,,,,,,,,,,,,,,,,,,,,,,,,,,,,,,,,,,,,,,,,,,,,,,,,,,,,,,,,,,,,,,,,
0,60,60,80,1,,613c542c957161802d700fb2,629c51ed7194cb9303f1baa5,2022-06-04_23h50.58.983,Colour_Asymmetry_Pilot,2022.1.3,Win32,60.24459305,629c4b6caf241d5e6e00bfc0,,,,,,,,,,,,,,,,,,,,,,,,,,,,,,,,,,,,,,,,,,,,,,,,,,,,,,,,,,,,,,,,,,,,,,,,,,,,,,,,,,,,,,,,,,,,,,,,,,,,,,,,,,,,,,,,,,,,,,,,,,,,,,,,,,,,,,,,,,,,,,,,,,,
0,61,61,76,1,,613c542c957161802d700fb2,629c51ed7194cb9303f1baa5,2022-06-04_23h50.58.983,Colour_Asymmetry_Pilot,2022.1.3,Win32,60.24459305,629c4b6caf241d5e6e00bfc0,,,,,,,,,,,,,,,,,,,,,,,,,,,,,,,,,,,,,,,,,,,,,,,,,,,,,,,,,,,,,,,,,,,,,,,,,,,,,,,,,,,,,,,,,,,,,,,,,,,,,,,,,,,,,,,,,,,,,,,,,,,,,,,,,,,,,,,,,,,,,,,,,,,
0,62,62,2,1,,613c542c957161802d700fb2,629c51ed7194cb9303f1baa5,2022-06-04_23h50.58.983,Colour_Asymmetry_Pilot,2022.1.3,Win32,60.24459305,629c4b6caf241d5e6e00bfc0,,,,,,,,,,,,,,,,,,,,,,,,,,,,,,,,,,,,,,,,,,,,,,,,,,,,,,,,,,,,,,,,,,,,,,,,,,,,,,,,,,,,,,,,,,,,,,,,,,,,,,,,,,,,,,,,,,,,,,,,,,,,,,,,,,,,,,,,,,,,,,,,,,,
0,63,63,45,1,,613c542c957161802d700fb2,629c51ed7194cb9303f1baa5,2022-06-04_23h50.58.983,Colour_Asymmetry_Pilot,2022.1.3,Win32,60.24459305,629c4b6caf241d5e6e00bfc0,,,,,,,,,,,,,,,,,,,,,,,,,,,,,,,,,,,,,,,,,,,,,,,,,,,,,,,,,,,,,,,,,,,,,,,,,,,,,,,,,,,,,,,,,,,,,,,,,,,,,,,,,,,,,,,,,,,,,,,,,,,,,,,,,,,,,,,,,,,,,,,,,,,
0,64,64,78,1,,613c542c957161802d700fb2,629c51ed7194cb9303f1baa5,2022-06-04_23h50.58.983,Colour_Asymmetry_Pilot,2022.1.3,Win32,60.24459305,629c4b6caf241d5e6e00bfc0,,,,,,,,,,,,,,,,,,,,,,,,,,,,,,,,,,,,,,,,,,,,,,,,,,,,,,,,,,,,,,,,,,,,,,,,,,,,,,,,,,,,,,,,,,,,,,,,,,,,,,,,,,,,,,,,,,,,,,,,,,,,,,,,,,,,,,,,,,,,,,,,,,,
0,65,65,49,1,,613c542c957161802d700fb2,629c51ed7194cb9303f1baa5,2022-06-04_23h50.58.983,Colour_Asymmetry_Pilot,2022.1.3,Win32,60.24459305,629c4b6caf241d5e6e00bfc0,,,,,,,,,,,,,,,,,,,,,,,,,,,,,,,,,,,,,,,,,,,,,,,,,,,,,,,,,,,,,,,,,,,,,,,,,,,,,,,,,,,,,,,,,,,,,,,,,,,,,,,,,,,,,,,,,,,,,,,,,,,,,,,,,,,,,,,,,,,,,,,,,,,
0,66,66,14,1,,613c542c957161802d700fb2,629c51ed7194cb9303f1baa5,2022-06-04_23h50.58.983,Colour_Asymmetry_Pilot,2022.1.3,Win32,60.24459305,629c4b6caf241d5e6e00bfc0,,,,,,,,,,,,,,,,,,,,,,,,,,,,,,,,,,,,,,,,,,,,,,,,,,,,,,,,,,,,,,,,,,,,,,,,,,,,,,,,,,,,,,,,,,,,,,,,,,,,,,,,,,,,,,,,,,,,,,,,,,,,,,,,,,,,,,,,,,,,,,,,,,,
0,67,67,60,1,,613c542c957161802d700fb2,629c51ed7194cb9303f1baa5,2022-06-04_23h50.58.983,Colour_Asymmetry_Pilot,2022.1.3,Win32,60.24459305,629c4b6caf241d5e6e00bfc0,,,,,,,,,,,,,,,,,,,,,,,,,,,,,,,,,,,,,,,,,,,,,,,,,,,,,,,,,,,,,,,,,,,,,,,,,,,,,,,,,,,,,,,,,,,,,,,,,,,,,,,,,,,,,,,,,,,,,,,,,,,,,,,,,,,,,,,,,,,,,,,,,,,
0,68,68,61,1,,613c542c957161802d700fb2,629c51ed7194cb9303f1baa5,2022-06-04_23h50.58.983,Colour_Asymmetry_Pilot,2022.1.3,Win32,60.24459305,629c4b6caf241d5e6e00bfc0,,,,,,,,,,,,,,,,,,,,,,,,,,,,,,,,,,,,,,,,,,,,,,,,,,,,,,,,,,,,,,,,,,,,,,,,,,,,,,,,,,,,,,,,,,,,,,,,,,,,,,,,,,,,,,,,,,,,,,,,,,,,,,,,,,,,,,,,,,,,,,,,,,,
0,69,69,28,1,,613c542c957161802d700fb2,629c51ed7194cb9303f1baa5,2022-06-04_23h50.58.983,Colour_Asymmetry_Pilot,2022.1.3,Win32,60.24459305,629c4b6caf241d5e6e00bfc0,,,,,,,,,,,,,,,,,,,,,,,,,,,,,,,,,,,,,,,,,,,,,,,,,,,,,,,,,,,,,,,,,,,,,,,,,,,,,,,,,,,,,,,,,,,,,,,,,,,,,,,,,,,,,,,,,,,,,,,,,,,,,,,,,,,,,,,,,,,,,,,,,,,
0,70,70,53,1,,613c542c957161802d700fb2,629c51ed7194cb9303f1baa5,2022-06-04_23h50.58.983,Colour_Asymmetry_Pilot,2022.1.3,Win32,60.24459305,629c4b6caf241d5e6e00bfc0,,,,,,,,,,,,,,,,,,,,,,,,,,,,,,,,,,,,,,,,,,,,,,,,,,,,,,,,,,,,,,,,,,,,,,,,,,,,,,,,,,,,,,,,,,,,,,,,,,,,,,,,,,,,,,,,,,,,,,,,,,,,,,,,,,,,,,,,,,,,,,,,,,,
0,71,71,17,1,,613c542c957161802d700fb2,629c51ed7194cb9303f1baa5,2022-06-04_23h50.58.983,Colour_Asymmetry_Pilot,2022.1.3,Win32,60.24459305,629c4b6caf241d5e6e00bfc0,,,,,,,,,,,,,,,,,,,,,,,,,,,,,,,,,,,,,,,,,,,,,,,,,,,,,,,,,,,,,,,,,,,,,,,,,,,,,,,,,,,,,,,,,,,,,,,,,,,,,,,,,,,,,,,,,,,,,,,,,,,,,,,,,,,,,,,,,,,,,,,,,,,
0,72,72,39,1,,613c542c957161802d700fb2,629c51ed7194cb9303f1baa5,2022-06-04_23h50.58.983,Colour_Asymmetry_Pilot,2022.1.3,Win32,60.24459305,629c4b6caf241d5e6e00bfc0,,,,,,,,,,,,,,,,,,,,,,,,,,,,,,,,,,,,,,,,,,,,,,,,,,,,,,,,,,,,,,,,,,,,,,,,,,,,,,,,,,,,,,,,,,,,,,,,,,,,,,,,,,,,,,,,,,,,,,,,,,,,,,,,,,,,,,,,,,,,,,,,,,,
0,73,73,24,1,,613c542c957161802d700fb2,629c51ed7194cb9303f1baa5,2022-06-04_23h50.58.983,Colour_Asymmetry_Pilot,2022.1.3,Win32,60.24459305,629c4b6caf241d5e6e00bfc0,,,,,,,,,,,,,,,,,,,,,,,,,,,,,,,,,,,,,,,,,,,,,,,,,,,,,,,,,,,,,,,,,,,,,,,,,,,,,,,,,,,,,,,,,,,,,,,,,,,,,,,,,,,,,,,,,,,,,,,,,,,,,,,,,,,,,,,,,,,,,,,,,,,
0,74,74,30,1,,613c542c957161802d700fb2,629c51ed7194cb9303f1baa5,2022-06-04_23h50.58.983,Colour_Asymmetry_Pilot,2022.1.3,Win32,60.24459305,629c4b6caf241d5e6e00bfc0,,,,,,,,,,,,,,,,,,,,,,,,,,,,,,,,,,,,,,,,,,,,,,,,,,,,,,,,,,,,,,,,,,,,,,,,,,,,,,,,,,,,,,,,,,,,,,,,,,,,,,,,,,,,,,,,,,,,,,,,,,,,,,,,,,,,,,,,,,,,,,,,,,,
0,75,75,36,1,,613c542c957161802d700fb2,629c51ed7194cb9303f1baa5,2022-06-04_23h50.58.983,Colour_Asymmetry_Pilot,2022.1.3,Win32,60.24459305,629c4b6caf241d5e6e00bfc0,,,,,,,,,,,,,,,,,,,,,,,,,,,,,,,,,,,,,,,,,,,,,,,,,,,,,,,,,,,,,,,,,,,,,,,,,,,,,,,,,,,,,,,,,,,,,,,,,,,,,,,,,,,,,,,,,,,,,,,,,,,,,,,,,,,,,,,,,,,,,,,,,,,
0,76,76,1,1,,613c542c957161802d700fb2,629c51ed7194cb9303f1baa5,2022-06-04_23h50.58.983,Colour_Asymmetry_Pilot,2022.1.3,Win32,60.24459305,629c4b6caf241d5e6e00bfc0,,,,,,,,,,,,,,,,,,,,,,,,,,,,,,,,,,,,,,,,,,,,,,,,,,,,,,,,,,,,,,,,,,,,,,,,,,,,,,,,,,,,,,,,,,,,,,,,,,,,,,,,,,,,,,,,,,,,,,,,,,,,,,,,,,,,,,,,,,,,,,,,,,,
0,77,77,21,1,,613c542c957161802d700fb2,629c51ed7194cb9303f1baa5,2022-06-04_23h50.58.983,Colour_Asymmetry_Pilot,2022.1.3,Win32,60.24459305,629c4b6caf241d5e6e00bfc0,,,,,,,,,,,,,,,,,,,,,,,,,,,,,,,,,,,,,,,,,,,,,,,,,,,,,,,,,,,,,,,,,,,,,,,,,,,,,,,,,,,,,,,,,,,,,,,,,,,,,,,,,,,,,,,,,,,,,,,,,,,,,,,,,,,,,,,,,,,,,,,,,,,
0,78,78,8,1,,613c542c957161802d700fb2,629c51ed7194cb9303f1baa5,2022-06-04_23h50.58.983,Colour_Asymmetry_Pilot,2022.1.3,Win32,60.24459305,629c4b6caf241d5e6e00bfc0,,,,,,,,,,,,,,,,,,,,,,,,,,,,,,,,,,,,,,,,,,,,,,,,,,,,,,,,,,,,,,,,,,,,,,,,,,,,,,,,,,,,,,,,,,,,,,,,,,,,,,,,,,,,,,,,,,,,,,,,,,,,,,,,,,,,,,,,,,,,,,,,,,,
0,79,79,50,1,,613c542c957161802d700fb2,629c51ed7194cb9303f1baa5,2022-06-04_23h50.58.983,Colour_Asymmetry_Pilot,2022.1.3,Win32,60.24459305,629c4b6caf241d5e6e00bfc0,,,,,,,,,,,,,,,,,,,,,,,,,,,,,,,,,,,,,,,,,,,,,,,,,,,,,,,,,,,,,,,,,,,,,,,,,,,,,,,,,,,,,,,,,,,,,,,,,,,,,,,,,,,,,,,,,,,,,,,,,,,,,,,,,,,,,,,,,,,,,,,,,,,
0,80,80,29,1,,613c542c957161802d700fb2,629c51ed7194cb9303f1baa5,2022-06-04_23h50.58.983,Colour_Asymmetry_Pilot,2022.1.3,Win32,60.24459305,629c4b6caf241d5e6e00bfc0,,,,,,,,,,,,,,,,,,,,,,,,,,,,,,,,,,,,,,,,,,,,,,,,,,,,,,,,,,,,,,,,,,,,,,,,,,,,,,,,,,,,,,,,,,,,,,,,,,,,,,,,,,,,,,,,,,,,,,,,,,,,,,,,,,,,,,,,,,,,,,,,,,,
0,81,81,56,1,,613c542c957161802d700fb2,629c51ed7194cb9303f1baa5,2022-06-04_23h50.58.983,Colour_Asymmetry_Pilot,2022.1.3,Win32,60.24459305,629c4b6caf241d5e6e00bfc0,,,,,,,,,,,,,,,,,,,,,,,,,,,,,,,,,,,,,,,,,,,,,,,,,,,,,,,,,,,,,,,,,,,,,,,,,,,,,,,,,,,,,,,,,,,,,,,,,,,,,,,,,,,,,,,,,,,,,,,,,,,,,,,,,,,,,,,,,,,,,,,,,,,
0,82,82,70,1,,613c542c957161802d700fb2,629c51ed7194cb9303f1baa5,2022-06-04_23h50.58.983,Colour_Asymmetry_Pilot,2022.1.3,Win32,60.24459305,629c4b6caf241d5e6e00bfc0,,,,,,,,,,,,,,,,,,,,,,,,,,,,,,,,,,,,,,,,,,,,,,,,,,,,,,,,,,,,,,,,,,,,,,,,,,,,,,,,,,,,,,,,,,,,,,,,,,,,,,,,,,,,,,,,,,,,,,,,,,,,,,,,,,,,,,,,,,,,,,,,,,,
0,83,83,86,1,,613c542c957161802d700fb2,629c51ed7194cb9303f1baa5,2022-06-04_23h50.58.983,Colour_Asymmetry_Pilot,2022.1.3,Win32,60.24459305,629c4b6caf241d5e6e00bfc0,,,,,,,,,,,,,,,,,,,,,,,,,,,,,,,,,,,,,,,,,,,,,,,,,,,,,,,,,,,,,,,,,,,,,,,,,,,,,,,,,,,,,,,,,,,,,,,,,,,,,,,,,,,,,,,,,,,,,,,,,,,,,,,,,,,,,,,,,,,,,,,,,,,
0,84,84,23,1,,613c542c957161802d700fb2,629c51ed7194cb9303f1baa5,2022-06-04_23h50.58.983,Colour_Asymmetry_Pilot,2022.1.3,Win32,60.24459305,629c4b6caf241d5e6e00bfc0,,,,,,,,,,,,,,,,,,,,,,,,,,,,,,,,,,,,,,,,,,,,,,,,,,,,,,,,,,,,,,,,,,,,,,,,,,,,,,,,,,,,,,,,,,,,,,,,,,,,,,,,,,,,,,,,,,,,,,,,,,,,,,,,,,,,,,,,,,,,,,,,,,,
0,85,85,84,1,,613c542c957161802d700fb2,629c51ed7194cb9303f1baa5,2022-06-04_23h50.58.983,Colour_Asymmetry_Pilot,2022.1.3,Win32,60.24459305,629c4b6caf241d5e6e00bfc0,,,,,,,,,,,,,,,,,,,,,,,,,,,,,,,,,,,,,,,,,,,,,,,,,,,,,,,,,,,,,,,,,,,,,,,,,,,,,,,,,,,,,,,,,,,,,,,,,,,,,,,,,,,,,,,,,,,,,,,,,,,,,,,,,,,,,,,,,,,,,,,,,,,
0,86,86,68,1,,613c542c957161802d700fb2,629c51ed7194cb9303f1baa5,2022-06-04_23h50.58.983,Colour_Asymmetry_Pilot,2022.1.3,Win32,60.24459305,629c4b6caf241d5e6e00bfc0,,,,,,,,,,,,,,,,,,,,,,,,,,,,,,,,,,,,,,,,,,,,,,,,,,,,,,,,,,,,,,,,,,,,,,,,,,,,,,,,,,,,,,,,,,,,,,,,,,,,,,,,,,,,,,,,,,,,,,,,,,,,,,,,,,,,,,,,,,,,,,,,,,,
0,87,87,82,1,,613c542c957161802d700fb2,629c51ed7194cb9303f1baa5,2022-06-04_23h50.58.983,Colour_Asymmetry_Pilot,2022.1.3,Win32,60.24459305,629c4b6caf241d5e6e00bfc0,,,,,,,,,,,,,,,,,,,,,,,,,,,,,,,,,,,,,,,,,,,,,,,,,,,,,,,,,,,,,,,,,,,,,,,,,,,,,,,,,,,,,,,,,,,,,,,,,,,,,,,,,,,,,,,,,,,,,,,,,,,,,,,,,,,,,,,,,,,,,,,,,,,
0,88,88,3,1,,613c542c957161802d700fb2,629c51ed7194cb9303f1baa5,2022-06-04_23h50.58.983,Colour_Asymmetry_Pilot,2022.1.3,Win32,60.24459305,629c4b6caf241d5e6e00bfc0,,,,,,,,,,,,,,,,,,,,,,,,,,,,,,,,,,,,,,,,,,,,,,,,,,,,,,,,,,,,,,,,,,,,,,,,,,,,,,,,,,,,,,,,,,,,,,,,,,,,,,,,,,,,,,,,,,,,,,,,,,,,,,,,,,,,,,,,,,,,,,,,,,,
0,89,89,46,1,,613c542c957161802d700fb2,629c51ed7194cb9303f1baa5,2022-06-04_23h50.58.983,Colour_Asymmetry_Pilot,2022.1.3,Win32,60.24459305,629c4b6caf241d5e6e00bfc0,,,,,,,,,,,,,,,,,,,,,,,,,,,,,,,,,,,,,,,,,,,,,,,,,,,,,,,,,,,,,,,,,,,,,,,,,,,,,,,,,,,,,,,,,,,,,,,,,,,,,,,,,,,,,,,,,,,,,,,,,,,,,,,,,,,,,,,,,,,,,,,,,,,
0,90,90,66,1,,613c542c957161802d700fb2,629c51ed7194cb9303f1baa5,2022-06-04_23h50.58.983,Colour_Asymmetry_Pilot,2022.1.3,Win32,60.24459305,629c4b6caf241d5e6e00bfc0,,,,,,,,,,,,,,,,,,,,,,,,,,,,,,,,,,,,,,,,,,,,,,,,,,,,,,,,,,,,,,,,,,,,,,,,,,,,,,,,,,,,,,,,,,,,,,,,,,,,,,,,,,,,,,,,,,,,,,,,,,,,,,,,,,,,,,,,,,,,,,,,,,,
0,91,91,34,1,,613c542c957161802d700fb2,629c51ed7194cb9303f1baa5,2022-06-04_23h50.58.983,Colour_Asymmetry_Pilot,2022.1.3,Win32,60.24459305,629c4b6caf241d5e6e00bfc0,,,,,,,,,,,,,,,,,,,,,,,,,,,,,,,,,,,,,,,,,,,,,,,,,,,,,,,,,,,,,,,,,,,,,,,,,,,,,,,,,,,,,,,,,,,,,,,,,,,,,,,,,,,,,,,,,,,,,,,,,,,,,,,,,,,,,,,,,,,,,,,,,,,
0,92,92,65,1,,613c542c957161802d700fb2,629c51ed7194cb9303f1baa5,2022-06-04_23h50.58.983,Colour_Asymmetry_Pilot,2022.1.3,Win32,60.24459305,629c4b6caf241d5e6e00bfc0,,,,,,,,,,,,,,,,,,,,,,,,,,,,,,,,,,,,,,,,,,,,,,,,,,,,,,,,,,,,,,,,,,,,,,,,,,,,,,,,,,,,,,,,,,,,,,,,,,,,,,,,,,,,,,,,,,,,,,,,,,,,,,,,,,,,,,,,,,,,,,,,,,,
,,,,,,613c542c957161802d700fb2,629c51ed7194cb9303f1baa5,2022-06-04_23h50.58.983,Colour_Asymmetry_Pilot,2022.1.3,Win32,60.24459305,629c4b6caf241d5e6e00bfc0,0,0,0,26,1,twoone,,,,,,,,,,,,,,,,,,,,,,,,,,,,,,,,,,,,,,,,,,,,,,,,,,,,,,,,,,,,,,,,,,,,,,,,,,,,,,,,,,,,,,,,,,,,,,,,,,,,,,,,,,,,,,,,,,,,,,,,,,,,,,,,,,,,,,,,,,,,,
,,,,,,613c542c957161802d700fb2,629c51ed7194cb9303f1baa5,2022-06-04_23h50.58.983,Colour_Asymmetry_Pilot,2022.1.3,Win32,60.24459305,629c4b6caf241d5e6e00bfc0,0,1,1,32,1,onetwo,,,,,,,,,,,,,,,,,,,,,,,,,,,,,,,,,,,,,,,,,,,,,,,,,,,,,,,,,,,,,,,,,,,,,,,,,,,,,,,,,,,,,,,,,,,,,,,,,,,,,,,,,,,,,,,,,,,,,,,,,,,,,,,,,,,,,,,,,,,,,
,,,,,,613c542c957161802d700fb2,629c51ed7194cb9303f1baa5,2022-06-04_23h50.58.983,Colour_Asymmetry_Pilot,2022.1.3,Win32,60.24459305,629c4b6caf241d5e6e00bfc0,0,2,2,72,1,onetwo,,,,,,,,,,,,,,,,,,,,,,,,,,,,,,,,,,,,,,,,,,,,,,,,,,,,,,,,,,,,,,,,,,,,,,,,,,,,,,,,,,,,,,,,,,,,,,,,,,,,,,,,,,,,,,,,,,,,,,,,,,,,,,,,,,,,,,,,,,,,,
,,,,,,613c542c957161802d700fb2,629c51ed7194cb9303f1baa5,2022-06-04_23h50.58.983,Colour_Asymmetry_Pilot,2022.1.3,Win32,60.24459305,629c4b6caf241d5e6e00bfc0,0,3,3,31,1,fourthree,,,,,,,,,,,,,,,,,,,,,,,,,,,,,,,,,,,,,,,,,,,,,,,,,,,,,,,,,,,,,,,,,,,,,,,,,,,,,,,,,,,,,,,,,,,,,,,,,,,,,,,,,,,,,,,,,,,,,,,,,,,,,,,,,,,,,,,,,,,,,
,,,,,,613c542c957161802d700fb2,629c51ed7194cb9303f1baa5,2022-06-04_23h50.58.983,Colour_Asymmetry_Pilot,2022.1.3,Win32,60.24459305,629c4b6caf241d5e6e00bfc0,0,4,4,115,1,twofour,,,,,,,,,,,,,,,,,,,,,,,,,,,,,,,,,,,,,,,,,,,,,,,,,,,,,,,,,,,,,,,,,,,,,,,,,,,,,,,,,,,,,,,,,,,,,,,,,,,,,,,,,,,,,,,,,,,,,,,,,,,,,,,,,,,,,,,,,,,,,
,,,,,,613c542c957161802d700fb2,629c51ed7194cb9303f1baa5,2022-06-04_23h50.58.983,Colour_Asymmetry_Pilot,2022.1.3,Win32,60.24459305,629c4b6caf241d5e6e00bfc0,0,5,5,160,1,onetwo,,,,,,,,,,,,,,,,,,,,,,,,,,,,,,,,,,,,,,,,,,,,,,,,,,,,,,,,,,,,,,,,,,,,,,,,,,,,,,,,,,,,,,,,,,,,,,,,,,,,,,,,,,,,,,,,,,,,,,,,,,,,,,,,,,,,,,,,,,,,,
,,,,,,613c542c957161802d700fb2,629c51ed7194cb9303f1baa5,2022-06-04_23h50.58.983,Colour_Asymmetry_Pilot,2022.1.3,Win32,60.24459305,629c4b6caf241d5e6e00bfc0,0,6,6,43,1,twofour,,,,,,,,,,,,,,,,,,,,,,,,,,,,,,,,,,,,,,,,,,,,,,,,,,,,,,,,,,,,,,,,,,,,,,,,,,,,,,,,,,,,,,,,,,,,,,,,,,,,,,,,,,,,,,,,,,,,,,,,,,,,,,,,,,,,,,,,,,,,,
,,,,,,613c542c957161802d700fb2,629c51ed7194cb9303f1baa5,2022-06-04_23h50.58.983,Colour_Asymmetry_Pilot,2022.1.3,Win32,60.24459305,629c4b6caf241d5e6e00bfc0,0,7,7,50,1,twoone,,,,,,,,,,,,,,,,,,,,,,,,,,,,,,,,,,,,,,,,,,,,,,,,,,,,,,,,,,,,,,,,,,,,,,,,,,,,,,,,,,,,,,,,,,,,,,,,,,,,,,,,,,,,,,,,,,,,,,,,,,,,,,,,,,,,,,,,,,,,,
,,,,,,613c542c957161802d700fb2,629c51ed7194cb9303f1baa5,2022-06-04_23h50.58.983,Colour_Asymmetry_Pilot,2022.1.3,Win32,60.24459305,629c4b6caf241d5e6e00bfc0,0,8,8,136,1,onetwo,,,,,,,,,,,,,,,,,,,,,,,,,,,,,,,,,,,,,,,,,,,,,,,,,,,,,,,,,,,,,,,,,,,,,,,,,,,,,,,,,,,,,,,,,,,,,,,,,,,,,,,,,,,,,,,,,,,,,,,,,,,,,,,,,,,,,,,,,,,,,
,,,,,,613c542c957161802d700fb2,629c51ed7194cb9303f1baa5,2022-06-04_23h50.58.983,Colour_Asymmetry_Pilot,2022.1.3,Win32,60.24459305,629c4b6caf241d5e6e00bfc0,0,9,9,68,1,threeone,,,,,,,,,,,,,,,,,,,,,,,,,,,,,,,,,,,,,,,,,,,,,,,,,,,,,,,,,,,,,,,,,,,,,,,,,,,,,,,,,,,,,,,,,,,,,,,,,,,,,,,,,,,,,,,,,,,,,,,,,,,,,,,,,,,,,,,,,,,,,
,,,,,,613c542c957161802d700fb2,629c51ed7194cb9303f1baa5,2022-06-04_23h50.58.983,Colour_Asymmetry_Pilot,2022.1.3,Win32,60.24459305,629c4b6caf241d5e6e00bfc0,0,10,10,121,1,onethree,,,,,,,,,,,,,,,,,,,,,,,,,,,,,,,,,,,,,,,,,,,,,,,,,,,,,,,,,,,,,,,,,,,,,,,,,,,,,,,,,,,,,,,,,,,,,,,,,,,,,,,,,,,,,,,,,,,,,,,,,,,,,,,,,,,,,,,,,,,,,
,,,,,,613c542c957161802d700fb2,629c51ed7194cb9303f1baa5,2022-06-04_23h50.58.983,Colour_Asymmetry_Pilot,2022.1.3,Win32,60.24459305,629c4b6caf241d5e6e00bfc0,0,11,11,62,1,fourtwo,,,,,,,,,,,,,,,,,,,,,,,,,,,,,,,,,,,,,,,,,,,,,,,,,,,,,,,,,,,,,,,,,,,,,,,,,,,,,,,,,,,,,,,,,,,,,,,,,,,,,,,,,,,,,,,,,,,,,,,,,,,,,,,,,,,,,,,,,,,,,
,,,,,,613c542c957161802d700fb2,629c51ed7194cb9303f1baa5,2022-06-04_23h50.58.983,Colour_Asymmetry_Pilot,2022.1.3,Win32,60.24459305,629c4b6caf241d5e6e00bfc0,0,12,12,122,1,twoone,,,,,,,,,,,,,,,,,,,,,,,,,,,,,,,,,,,,,,,,,,,,,,,,,,,,,,,,,,,,,,,,,,,,,,,,,,,,,,,,,,,,,,,,,,,,,,,,,,,,,,,,,,,,,,,,,,,,,,,,,,,,,,,,,,,,,,,,,,,,,
,,,,,,613c542c957161802d700fb2,629c51ed7194cb9303f1baa5,2022-06-04_23h50.58.983,Colour_Asymmetry_Pilot,2022.1.3,Win32,60.24459305,629c4b6caf241d5e6e00bfc0,0,13,13,154,1,twoone,,,,,,,,,,,,,,,,,,,,,,,,,,,,,,,,,,,,,,,,,,,,,,,,,,,,,,,,,,,,,,,,,,,,,,,,,,,,,,,,,,,,,,,,,,,,,,,,,,,,,,,,,,,,,,,,,,,,,,,,,,,,,,,,,,,,,,,,,,,,,
,,,,,,613c542c957161802d700fb2,629c51ed7194cb9303f1baa5,2022-06-04_23h50.58.983,Colour_Asymmetry_Pilot,2022.1.3,Win32,60.24459305,629c4b6caf241d5e6e00bfc0,0,14,14,108,1,threeone,,,,,,,,,,,,,,,,,,,,,,,,,,,,,,,,,,,,,,,,,,,,,,,,,,,,,,,,,,,,,,,,,,,,,,,,,,,,,,,,,,,,,,,,,,,,,,,,,,,,,,,,,,,,,,,,,,,,,,,,,,,,,,,,,,,,,,,,,,,,,
,,,,,,613c542c957161802d700fb2,629c51ed7194cb9303f1baa5,2022-06-04_23h50.58.983,Colour_Asymmetry_Pilot,2022.1.3,Win32,60.24459305,629c4b6caf241d5e6e00bfc0,0,15,15,146,1,twoone,,,,,,,,,,,,,,,,,,,,,,,,,,,,,,,,,,,,,,,,,,,,,,,,,,,,,,,,,,,,,,,,,,,,,,,,,,,,,,,,,,,,,,,,,,,,,,,,,,,,,,,,,,,,,,,,,,,,,,,,,,,,,,,,,,,,,,,,,,,,,
,,,,,,613c542c957161802d700fb2,629c51ed7194cb9303f1baa5,2022-06-04_23h50.58.983,Colour_Asymmetry_Pilot,2022.1.3,Win32,60.24459305,629c4b6caf241d5e6e00bfc0,0,16,16,94,1,fourtwo,,,,,,,,,,,,,,,,,,,,,,,,,,,,,,,,,,,,,,,,,,,,,,,,,,,,,,,,,,,,,,,,,,,,,,,,,,,,,,,,,,,,,,,,,,,,,,,,,,,,,,,,,,,,,,,,,,,,,,,,,,,,,,,,,,,,,,,,,,,,,
,,,,,,613c542c957161802d700fb2,629c51ed7194cb9303f1baa5,2022-06-04_23h50.58.983,Colour_Asymmetry_Pilot,2022.1.3,Win32,60.24459305,629c4b6caf241d5e6e00bfc0,0,17,17,129,1,onethree,,,,,,,,,,,,,,,,,,,,,,,,,,,,,,,,,,,,,,,,,,,,,,,,,,,,,,,,,,,,,,,,,,,,,,,,,,,,,,,,,,,,,,,,,,,,,,,,,,,,,,,,,,,,,,,,,,,,,,,,,,,,,,,,,,,,,,,,,,,,,
,,,,,,613c542c957161802d700fb2,629c51ed7194cb9303f1baa5,2022-06-04_23h50.58.983,Colour_Asymmetry_Pilot,2022.1.3,Win32,60.24459305,629c4b6caf241d5e6e00bfc0,0,18,18,110,1,fourtwo,,,,,,,,,,,,,,,,,,,,,,,,,,,,,,,,,,,,,,,,,,,,,,,,,,,,,,,,,,,,,,,,,,,,,,,,,,,,,,,,,,,,,,,,,,,,,,,,,,,,,,,,,,,,,,,,,,,,,,,,,,,,,,,,,,,,,,,,,,,,,
,,,,,,613c542c957161802d700fb2,629c51ed7194cb9303f1baa5,2022-06-04_23h50.58.983,Colour_Asymmetry_Pilot,2022.1.3,Win32,60.24459305,629c4b6caf241d5e6e00bfc0,0,19,19,149,1,threefour,,,,,,,,,,,,,,,,,,,,,,,,,,,,,,,,,,,,,,,,,,,,,,,,,,,,,,,,,,,,,,,,,,,,,,,,,,,,,,,,,,,,,,,,,,,,,,,,,,,,,,,,,,,,,,,,,,,,,,,,,,,,,,,,,,,,,,,,,,,,,
,,,,,,613c542c957161802d700fb2,629c51ed7194cb9303f1baa5,2022-06-04_23h50.58.983,Colour_Asymmetry_Pilot,2022.1.3,Win32,60.24459305,629c4b6caf241d5e6e00bfc0,0,20,20,23,1,fourthree,,,,,,,,,,,,,,,,,,,,,,,,,,,,,,,,,,,,,,,,,,,,,,,,,,,,,,,,,,,,,,,,,,,,,,,,,,,,,,,,,,,,,,,,,,,,,,,,,,,,,,,,,,,,,,,,,,,,,,,,,,,,,,,,,,,,,,,,,,,,,
,,,,,,613c542c957161802d700fb2,629c51ed7194cb9303f1baa5,2022-06-04_23h50.58.983,Colour_Asymmetry_Pilot,2022.1.3,Win32,60.24459305,629c4b6caf241d5e6e00bfc0,0,21,21,85,1,threefour,,,,,,,,,,,,,,,,,,,,,,,,,,,,,,,,,,,,,,,,,,,,,,,,,,,,,,,,,,,,,,,,,,,,,,,,,,,,,,,,,,,,,,,,,,,,,,,,,,,,,,,,,,,,,,,,,,,,,,,,,,,,,,,,,,,,,,,,,,,,,
,,,,,,613c542c957161802d700fb2,629c51ed7194cb9303f1baa5,2022-06-04_23h50.58.983,Colour_Asymmetry_Pilot,2022.1.3,Win32,60.24459305,629c4b6caf241d5e6e00bfc0,0,22,22,99,1,twofour,,,,,,,,,,,,,,,,,,,,,,,,,,,,,,,,,,,,,,,,,,,,,,,,,,,,,,,,,,,,,,,,,,,,,,,,,,,,,,,,,,,,,,,,,,,,,,,,,,,,,,,,,,,,,,,,,,,,,,,,,,,,,,,,,,,,,,,,,,,,,
,,,,,,613c542c957161802d700fb2,629c51ed7194cb9303f1baa5,2022-06-04_23h50.58.983,Colour_Asymmetry_Pilot,2022.1.3,Win32,60.24459305,629c4b6caf241d5e6e00bfc0,0,23,23,14,1,fourtwo,,,,,,,,,,,,,,,,,,,,,,,,,,,,,,,,,,,,,,,,,,,,,,,,,,,,,,,,,,,,,,,,,,,,,,,,,,,,,,,,,,,,,,,,,,,,,,,,,,,,,,,,,,,,,,,,,,,,,,,,,,,,,,,,,,,,,,,,,,,,,
,,,,,,613c542c957161802d700fb2,629c51ed7194cb9303f1baa5,2022-06-04_23h50.58.983,Colour_Asymmetry_Pilot,2022.1.3,Win32,60.24459305,629c4b6caf241d5e6e00bfc0,0,24,24,153,1,onethree,,,,,,,,,,,,,,,,,,,,,,,,,,,,,,,,,,,,,,,,,,,,,,,,,,,,,,,,,,,,,,,,,,,,,,,,,,,,,,,,,,,,,,,,,,,,,,,,,,,,,,,,,,,,,,,,,,,,,,,,,,,,,,,,,,,,,,,,,,,,,
,,,,,,613c542c957161802d700fb2,629c51ed7194cb9303f1baa5,2022-06-04_23h50.58.983,Colour_Asymmetry_Pilot,2022.1.3,Win32,60.24459305,629c4b6caf241d5e6e00bfc0,0,25,25,113,1,onethree,,,,,,,,,,,,,,,,,,,,,,,,,,,,,,,,,,,,,,,,,,,,,,,,,,,,,,,,,,,,,,,,,,,,,,,,,,,,,,,,,,,,,,,,,,,,,,,,,,,,,,,,,,,,,,,,,,,,,,,,,,,,,,,,,,,,,,,,,,,,,
,,,,,,613c542c957161802d700fb2,629c51ed7194cb9303f1baa5,2022-06-04_23h50.58.983,Colour_Asymmetry_Pilot,2022.1.3,Win32,60.24459305,629c4b6caf241d5e6e00bfc0,0,26,26,19,1,twofour,,,,,,,,,,,,,,,,,,,,,,,,,,,,,,,,,,,,,,,,,,,,,,,,,,,,,,,,,,,,,,,,,,,,,,,,,,,,,,,,,,,,,,,,,,,,,,,,,,,,,,,,,,,,,,,,,,,,,,,,,,,,,,,,,,,,,,,,,,,,,
,,,,,,613c542c957161802d700fb2,629c51ed7194cb9303f1baa5,2022-06-04_23h50.58.983,Colour_Asymmetry_Pilot,2022.1.3,Win32,60.24459305,629c4b6caf241d5e6e00bfc0,0,27,27,78,1,fourtwo,,,,,,,,,,,,,,,,,,,,,,,,,,,,,,,,,,,,,,,,,,,,,,,,,,,,,,,,,,,,,,,,,,,,,,,,,,,,,,,,,,,,,,,,,,,,,,,,,,,,,,,,,,,,,,,,,,,,,,,,,,,,,,,,,,,,,,,,,,,,,
,,,,,,613c542c957161802d700fb2,629c51ed7194cb9303f1baa5,2022-06-04_23h50.58.983,Colour_Asymmetry_Pilot,2022.1.3,Win32,60.24459305,629c4b6caf241d5e6e00bfc0,0,28,28,3,1,twofour,,,,,,,,,,,,,,,,,,,,,,,,,,,,,,,,,,,,,,,,,,,,,,,,,,,,,,,,,,,,,,,,,,,,,,,,,,,,,,,,,,,,,,,,,,,,,,,,,,,,,,,,,,,,,,,,,,,,,,,,,,,,,,,,,,,,,,,,,,,,,
,,,,,,613c542c957161802d700fb2,629c51ed7194cb9303f1baa5,2022-06-04_23h50.58.983,Colour_Asymmetry_Pilot,2022.1.3,Win32,60.24459305,629c4b6caf241d5e6e00bfc0,0,29,29,16,1,onetwo,,,,,,,,,,,,,,,,,,,,,,,,,,,,,,,,,,,,,,,,,,,,,,,,,,,,,,,,,,,,,,,,,,,,,,,,,,,,,,,,,,,,,,,,,,,,,,,,,,,,,,,,,,,,,,,,,,,,,,,,,,,,,,,,,,,,,,,,,,,,,
,,,,,,613c542c957161802d700fb2,629c51ed7194cb9303f1baa5,2022-06-04_23h50.58.983,Colour_Asymmetry_Pilot,2022.1.3,Win32,60.24459305,629c4b6caf241d5e6e00bfc0,0,30,30,29,1,threefour,,,,,,,,,,,,,,,,,,,,,,,,,,,,,,,,,,,,,,,,,,,,,,,,,,,,,,,,,,,,,,,,,,,,,,,,,,,,,,,,,,,,,,,,,,,,,,,,,,,,,,,,,,,,,,,,,,,,,,,,,,,,,,,,,,,,,,,,,,,,,
,,,,,,613c542c957161802d700fb2,629c51ed7194cb9303f1baa5,2022-06-04_23h50.58.983,Colour_Asymmetry_Pilot,2022.1.3,Win32,60.24459305,629c4b6caf241d5e6e00bfc0,0,31,31,132,1,threeone,,,,,,,,,,,,,,,,,,,,,,,,,,,,,,,,,,,,,,,,,,,,,,,,,,,,,,,,,,,,,,,,,,,,,,,,,,,,,,,,,,,,,,,,,,,,,,,,,,,,,,,,,,,,,,,,,,,,,,,,,,,,,,,,,,,,,,,,,,,,,
,,,,,,613c542c957161802d700fb2,629c51ed7194cb9303f1baa5,2022-06-04_23h50.58.983,Colour_Asymmetry_Pilot,2022.1.3,Win32,60.24459305,629c4b6caf241d5e6e00bfc0,0,32,32,116,1,threeone,,,,,,,,,,,,,,,,,,,,,,,,,,,,,,,,,,,,,,,,,,,,,,,,,,,,,,,,,,,,,,,,,,,,,,,,,,,,,,,,,,,,,,,,,,,,,,,,,,,,,,,,,,,,,,,,,,,,,,,,,,,,,,,,,,,,,,,,,,,,,
,,,,,,613c542c957161802d700fb2,629c51ed7194cb9303f1baa5,2022-06-04_23h50.58.983,Colour_Asymmetry_Pilot,2022.1.3,Win32,60.24459305,629c4b6caf241d5e6e00bfc0,0,33,33,142,1,fourtwo,,,,,,,,,,,,,,,,,,,,,,,,,,,,,,,,,,,,,,,,,,,,,,,,,,,,,,,,,,,,,,,,,,,,,,,,,,,,,,,,,,,,,,,,,,,,,,,,,,,,,,,,,,,,,,,,,,,,,,,,,,,,,,,,,,,,,,,,,,,,,
,,,,,,613c542c957161802d700fb2,629c51ed7194cb9303f1baa5,2022-06-04_23h50.58.983,Colour_Asymmetry_Pilot,2022.1.3,Win32,60.24459305,629c4b6caf241d5e6e00bfc0,0,34,34,90,1,twoone,,,,,,,,,,,,,,,,,,,,,,,,,,,,,,,,,,,,,,,,,,,,,,,,,,,,,,,,,,,,,,,,,,,,,,,,,,,,,,,,,,,,,,,,,,,,,,,,,,,,,,,,,,,,,,,,,,,,,,,,,,,,,,,,,,,,,,,,,,,,,
,,,,,,613c542c957161802d700fb2,629c51ed7194cb9303f1baa5,2022-06-04_23h50.58.983,Colour_Asymmetry_Pilot,2022.1.3,Win32,60.24459305,629c4b6caf241d5e6e00bfc0,0,35,35,123,1,twofour,,,,,,,,,,,,,,,,,,,,,,,,,,,,,,,,,,,,,,,,,,,,,,,,,,,,,,,,,,,,,,,,,,,,,,,,,,,,,,,,,,,,,,,,,,,,,,,,,,,,,,,,,,,,,,,,,,,,,,,,,,,,,,,,,,,,,,,,,,,,,
,,,,,,613c542c957161802d700fb2,629c51ed7194cb9303f1baa5,2022-06-04_23h50.58.983,Colour_Asymmetry_Pilot,2022.1.3,Win32,60.24459305,629c4b6caf241d5e6e00bfc0,0,36,36,13,1,threefour,,,,,,,,,,,,,,,,,,,,,,,,,,,,,,,,,,,,,,,,,,,,,,,,,,,,,,,,,,,,,,,,,,,,,,,,,,,,,,,,,,,,,,,,,,,,,,,,,,,,,,,,,,,,,,,,,,,,,,,,,,,,,,,,,,,,,,,,,,,,,
,,,,,,613c542c957161802d700fb2,629c51ed7194cb9303f1baa5,2022-06-04_23h50.58.983,Colour_Asymmetry_Pilot,2022.1.3,Win32,60.24459305,629c4b6caf241d5e6e00bfc0,0,37,37,65,1,onethree,,,,,,,,,,,,,,,,,,,,,,,,,,,,,,,,,,,,,,,,,,,,,,,,,,,,,,,,,,,,,,,,,,,,,,,,,,,,,,,,,,,,,,,,,,,,,,,,,,,,,,,,,,,,,,,,,,,,,,,,,,,,,,,,,,,,,,,,,,,,,
,,,,,,613c542c957161802d700fb2,629c51ed7194cb9303f1baa5,2022-06-04_23h50.58.983,Colour_Asymmetry_Pilot,2022.1.3,Win32,60.24459305,629c4b6caf241d5e6e00bfc0,0,38,38,61,1,threefour,,,,,,,,,,,,,,,,,,,,,,,,,,,,,,,,,,,,,,,,,,,,,,,,,,,,,,,,,,,,,,,,,,,,,,,,,,,,,,,,,,,,,,,,,,,,,,,,,,,,,,,,,,,,,,,,,,,,,,,,,,,,,,,,,,,,,,,,,,,,,
,,,,,,613c542c957161802d700fb2,629c51ed7194cb9303f1baa5,2022-06-04_23h50.58.983,Colour_Asymmetry_Pilot,2022.1.3,Win32,60.24459305,629c4b6caf241d5e6e00bfc0,0,39,39,9,1,onethree,,,,,,,,,,,,,,,,,,,,,,,,,,,,,,,,,,,,,,,,,,,,,,,,,,,,,,,,,,,,,,,,,,,,,,,,,,,,,,,,,,,,,,,,,,,,,,,,,,,,,,,,,,,,,,,,,,,,,,,,,,,,,,,,,,,,,,,,,,,,,
,,,,,,613c542c957161802d700fb2,629c51ed7194cb9303f1baa5,2022-06-04_23h50.58.983,Colour_Asymmetry_Pilot,2022.1.3,Win32,60.24459305,629c4b6caf241d5e6e00bfc0,0,40,40,51,1,twofour,,,,,,,,,,,,,,,,,,,,,,,,,,,,,,,,,,,,,,,,,,,,,,,,,,,,,,,,,,,,,,,,,,,,,,,,,,,,,,,,,,,,,,,,,,,,,,,,,,,,,,,,,,,,,,,,,,,,,,,,,,,,,,,,,,,,,,,,,,,,,
,,,,,,613c542c957161802d700fb2,629c51ed7194cb9303f1baa5,2022-06-04_23h50.58.983,Colour_Asymmetry_Pilot,2022.1.3,Win32,60.24459305,629c4b6caf241d5e6e00bfc0,0,41,41,49,1,onethree,,,,,,,,,,,,,,,,,,,,,,,,,,,,,,,,,,,,,,,,,,,,,,,,,,,,,,,,,,,,,,,,,,,,,,,,,,,,,,,,,,,,,,,,,,,,,,,,,,,,,,,,,,,,,,,,,,,,,,,,,,,,,,,,,,,,,,,,,,,,,
,,,,,,613c542c957161802d700fb2,629c51ed7194cb9303f1baa5,2022-06-04_23h50.58.983,Colour_Asymmetry_Pilot,2022.1.3,Win32,60.24459305,629c4b6caf241d5e6e00bfc0,0,42,42,93,1,threefour,,,,,,,,,,,,,,,,,,,,,,,,,,,,,,,,,,,,,,,,,,,,,,,,,,,,,,,,,,,,,,,,,,,,,,,,,,,,,,,,,,,,,,,,,,,,,,,,,,,,,,,,,,,,,,,,,,,,,,,,,,,,,,,,,,,,,,,,,,,,,
,,,,,,613c542c957161802d700fb2,629c51ed7194cb9303f1baa5,2022-06-04_23h50.58.983,Colour_Asymmetry_Pilot,2022.1.3,Win32,60.24459305,629c4b6caf241d5e6e00bfc0,0,43,43,8,1,onetwo,,,,,,,,,,,,,,,,,,,,,,,,,,,,,,,,,,,,,,,,,,,,,,,,,,,,,,,,,,,,,,,,,,,,,,,,,,,,,,,,,,,,,,,,,,,,,,,,,,,,,,,,,,,,,,,,,,,,,,,,,,,,,,,,,,,,,,,,,,,,,
,,,,,,613c542c957161802d700fb2,629c51ed7194cb9303f1baa5,2022-06-04_23h50.58.983,Colour_Asymmetry_Pilot,2022.1.3,Win32,60.24459305,629c4b6caf241d5e6e00bfc0,0,44,44,155,1,twofour,,,,,,,,,,,,,,,,,,,,,,,,,,,,,,,,,,,,,,,,,,,,,,,,,,,,,,,,,,,,,,,,,,,,,,,,,,,,,,,,,,,,,,,,,,,,,,,,,,,,,,,,,,,,,,,,,,,,,,,,,,,,,,,,,,,,,,,,,,,,,
,,,,,,613c542c957161802d700fb2,629c51ed7194cb9303f1baa5,2022-06-04_23h50.58.983,Colour_Asymmetry_Pilot,2022.1.3,Win32,60.24459305,629c4b6caf241d5e6e00bfc0,0,45,45,6,1,fourtwo,,,,,,,,,,,,,,,,,,,,,,,,,,,,,,,,,,,,,,,,,,,,,,,,,,,,,,,,,,,,,,,,,,,,,,,,,,,,,,,,,,,,,,,,,,,,,,,,,,,,,,,,,,,,,,,,,,,,,,,,,,,,,,,,,,,,,,,,,,,,,
,,,,,,613c542c957161802d700fb2,629c51ed7194cb9303f1baa5,2022-06-04_23h50.58.983,Colour_Asymmetry_Pilot,2022.1.3,Win32,60.24459305,629c4b6caf241d5e6e00bfc0,0,46,46,47,1,fourthree,,,,,,,,,,,,,,,,,,,,,,,,,,,,,,,,,,,,,,,,,,,,,,,,,,,,,,,,,,,,,,,,,,,,,,,,,,,,,,,,,,,,,,,,,,,,,,,,,,,,,,,,,,,,,,,,,,,,,,,,,,,,,,,,,,,,,,,,,,,,,
,,,,,,613c542c957161802d700fb2,629c51ed7194cb9303f1baa5,2022-06-04_23h50.58.983,Colour_Asymmetry_Pilot,2022.1.3,Win32,60.24459305,629c4b6caf241d5e6e00bfc0,0,47,47,63,1,fourthree,,,,,,,,,,,,,,,,,,,,,,,,,,,,,,,,,,,,,,,,,,,,,,,,,,,,,,,,,,,,,,,,,,,,,,,,,,,,,,,,,,,,,,,,,,,,,,,,,,,,,,,,,,,,,,,,,,,,,,,,,,,,,,,,,,,,,,,,,,,,,
,,,,,,613c542c957161802d700fb2,629c51ed7194cb9303f1baa5,2022-06-04_23h50.58.983,Colour_Asymmetry_Pilot,2022.1.3,Win32,60.24459305,629c4b6caf241d5e6e00bfc0,0,48,48,156,1,threeone,,,,,,,,,,,,,,,,,,,,,,,,,,,,,,,,,,,,,,,,,,,,,,,,,,,,,,,,,,,,,,,,,,,,,,,,,,,,,,,,,,,,,,,,,,,,,,,,,,,,,,,,,,,,,,,,,,,,,,,,,,,,,,,,,,,,,,,,,,,,,
,,,,,,613c542c957161802d700fb2,629c51ed7194cb9303f1baa5,2022-06-04_23h50.58.983,Colour_Asymmetry_Pilot,2022.1.3,Win32,60.24459305,629c4b6caf241d5e6e00bfc0,0,49,49,119,1,fourthree,,,,,,,,,,,,,,,,,,,,,,,,,,,,,,,,,,,,,,,,,,,,,,,,,,,,,,,,,,,,,,,,,,,,,,,,,,,,,,,,,,,,,,,,,,,,,,,,,,,,,,,,,,,,,,,,,,,,,,,,,,,,,,,,,,,,,,,,,,,,,
,,,,,,613c542c957161802d700fb2,629c51ed7194cb9303f1baa5,2022-06-04_23h50.58.983,Colour_Asymmetry_Pilot,2022.1.3,Win32,60.24459305,629c4b6caf241d5e6e00bfc0,0,50,50,37,1,threefour,,,,,,,,,,,,,,,,,,,,,,,,,,,,,,,,,,,,,,,,,,,,,,,,,,,,,,,,,,,,,,,,,,,,,,,,,,,,,,,,,,,,,,,,,,,,,,,,,,,,,,,,,,,,,,,,,,,,,,,,,,,,,,,,,,,,,,,,,,,,,
,,,,,,613c542c957161802d700fb2,629c51ed7194cb9303f1baa5,2022-06-04_23h50.58.983,Colour_Asymmetry_Pilot,2022.1.3,Win32,60.24459305,629c4b6caf241d5e6e00bfc0,0,51,51,10,1,twoone,,,,,,,,,,,,,,,,,,,,,,,,,,,,,,,,,,,,,,,,,,,,,,,,,,,,,,,,,,,,,,,,,,,,,,,,,,,,,,,,,,,,,,,,,,,,,,,,,,,,,,,,,,,,,,,,,,,,,,,,,,,,,,,,,,,,,,,,,,,,,
,,,,,,613c542c957161802d700fb2,629c51ed7194cb9303f1baa5,2022-06-04_23h50.58.983,Colour_Asymmetry_Pilot,2022.1.3,Win32,60.24459305,629c4b6caf241d5e6e00bfc0,0,52,52,135,1,fourthree,,,,,,,,,,,,,,,,,,,,,,,,,,,,,,,,,,,,,,,,,,,,,,,,,,,,,,,,,,,,,,,,,,,,,,,,,,,,,,,,,,,,,,,,,,,,,,,,,,,,,,,,,,,,,,,,,,,,,,,,,,,,,,,,,,,,,,,,,,,,,
,,,,,,613c542c957161802d700fb2,629c51ed7194cb9303f1baa5,2022-06-04_23h50.58.983,Colour_Asymmetry_Pilot,2022.1.3,Win32,60.24459305,629c4b6caf241d5e6e00bfc0,0,53,53,143,1,fourthree,,,,,,,,,,,,,,,,,,,,,,,,,,,,,,,,,,,,,,,,,,,,,,,,,,,,,,,,,,,,,,,,,,,,,,,,,,,,,,,,,,,,,,,,,,,,,,,,,,,,,,,,,,,,,,,,,,,,,,,,,,,,,,,,,,,,,,,,,,,,,
,,,,,,613c542c957161802d700fb2,629c51ed7194cb9303f1baa5,2022-06-04_23h50.58.983,Colour_Asymmetry_Pilot,2022.1.3,Win32,60.24459305,629c4b6caf241d5e6e00bfc0,0,54,54,40,1,onetwo,,,,,,,,,,,,,,,,,,,,,,,,,,,,,,,,,,,,,,,,,,,,,,,,,,,,,,,,,,,,,,,,,,,,,,,,,,,,,,,,,,,,,,,,,,,,,,,,,,,,,,,,,,,,,,,,,,,,,,,,,,,,,,,,,,,,,,,,,,,,,
,,,,,,613c542c957161802d700fb2,629c51ed7194cb9303f1baa5,2022-06-04_23h50.58.983,Colour_Asymmetry_Pilot,2022.1.3,Win32,60.24459305,629c4b6caf241d5e6e00bfc0,0,55,55,67,1,twofour,,,,,,,,,,,,,,,,,,,,,,,,,,,,,,,,,,,,,,,,,,,,,,,,,,,,,,,,,,,,,,,,,,,,,,,,,,,,,,,,,,,,,,,,,,,,,,,,,,,,,,,,,,,,,,,,,,,,,,,,,,,,,,,,,,,,,,,,,,,,,
,,,,,,613c542c957161802d700fb2,629c51ed7194cb9303f1baa5,2022-06-04_23h50.58.983,Colour_Asymmetry_Pilot,2022.1.3,Win32,60.24459305,629c4b6caf241d5e6e00bfc0,0,56,56,21,1,threefour,,,,,,,,,,,,,,,,,,,,,,,,,,,,,,,,,,,,,,,,,,,,,,,,,,,,,,,,,,,,,,,,,,,,,,,,,,,,,,,,,,,,,,,,,,,,,,,,,,,,,,,,,,,,,,,,,,,,,,,,,,,,,,,,,,,,,,,,,,,,,
,,,,,,613c542c957161802d700fb2,629c51ed7194cb9303f1baa5,2022-06-04_23h50.58.983,Colour_Asymmetry_Pilot,2022.1.3,Win32,60.24459305,629c4b6caf241d5e6e00bfc0,0,57,57,140,1,threeone,,,,,,,,,,,,,,,,,,,,,,,,,,,,,,,,,,,,,,,,,,,,,,,,,,,,,,,,,,,,,,,,,,,,,,,,,,,,,,,,,,,,,,,,,,,,,,,,,,,,,,,,,,,,,,,,,,,,,,,,,,,,,,,,,,,,,,,,,,,,,
,,,,,,613c542c957161802d700fb2,629c51ed7194cb9303f1baa5,2022-06-04_23h50.58.983,Colour_Asymmetry_Pilot,2022.1.3,Win32,60.24459305,629c4b6caf241d5e6e00bfc0,0,58,58,97,1,onethree,,,,,,,,,,,,,,,,,,,,,,,,,,,,,,,,,,,,,,,,,,,,,,,,,,,,,,,,,,,,,,,,,,,,,,,,,,,,,,,,,,,,,,,,,,,,,,,,,,,,,,,,,,,,,,,,,,,,,,,,,,,,,,,,,,,,,,,,,,,,,
,,,,,,613c542c957161802d700fb2,629c51ed7194cb9303f1baa5,2022-06-04_23h50.58.983,Colour_Asymmetry_Pilot,2022.1.3,Win32,60.24459305,629c4b6caf241d5e6e00bfc0,0,59,59,128,1,onetwo,,,,,,,,,,,,,,,,,,,,,,,,,,,,,,,,,,,,,,,,,,,,,,,,,,,,,,,,,,,,,,,,,,,,,,,,,,,,,,,,,,,,,,,,,,,,,,,,,,,,,,,,,,,,,,,,,,,,,,,,,,,,,,,,,,,,,,,,,,,,,
,,,,,,613c542c957161802d700fb2,629c51ed7194cb9303f1baa5,2022-06-04_23h50.58.983,Colour_Asymmetry_Pilot,2022.1.3,Win32,60.24459305,629c4b6caf241d5e6e00bfc0,0,60,60,45,1,threefour,,,,,,,,,,,,,,,,,,,,,,,,,,,,,,,,,,,,,,,,,,,,,,,,,,,,,,,,,,,,,,,,,,,,,,,,,,,,,,,,,,,,,,,,,,,,,,,,,,,,,,,,,,,,,,,,,,,,,,,,,,,,,,,,,,,,,,,,,,,,,
,,,,,,613c542c957161802d700fb2,629c51ed7194cb9303f1baa5,2022-06-04_23h50.58.983,Colour_Asymmetry_Pilot,2022.1.3,Win32,60.24459305,629c4b6caf241d5e6e00bfc0,0,61,61,53,1,threefour,,,,,,,,,,,,,,,,,,,,,,,,,,,,,,,,,,,,,,,,,,,,,,,,,,,,,,,,,,,,,,,,,,,,,,,,,,,,,,,,,,,,,,,,,,,,,,,,,,,,,,,,,,,,,,,,,,,,,,,,,,,,,,,,,,,,,,,,,,,,,
,,,,,,613c542c957161802d700fb2,629c51ed7194cb9303f1baa5,2022-06-04_23h50.58.983,Colour_Asymmetry_Pilot,2022.1.3,Win32,60.24459305,629c4b6caf241d5e6e00bfc0,0,62,62,4,1,threeone,,,,,,,,,,,,,,,,,,,,,,,,,,,,,,,,,,,,,,,,,,,,,,,,,,,,,,,,,,,,,,,,,,,,,,,,,,,,,,,,,,,,,,,,,,,,,,,,,,,,,,,,,,,,,,,,,,,,,,,,,,,,,,,,,,,,,,,,,,,,,
,,,,,,613c542c957161802d700fb2,629c51ed7194cb9303f1baa5,2022-06-04_23h50.58.983,Colour_Asymmetry_Pilot,2022.1.3,Win32,60.24459305,629c4b6caf241d5e6e00bfc0,0,63,63,141,1,threefour,,,,,,,,,,,,,,,,,,,,,,,,,,,,,,,,,,,,,,,,,,,,,,,,,,,,,,,,,,,,,,,,,,,,,,,,,,,,,,,,,,,,,,,,,,,,,,,,,,,,,,,,,,,,,,,,,,,,,,,,,,,,,,,,,,,,,,,,,,,,,
,,,,,,613c542c957161802d700fb2,629c51ed7194cb9303f1baa5,2022-06-04_23h50.58.983,Colour_Asymmetry_Pilot,2022.1.3,Win32,60.24459305,629c4b6caf241d5e6e00bfc0,0,64,64,30,1,fourtwo,,,,,,,,,,,,,,,,,,,,,,,,,,,,,,,,,,,,,,,,,,,,,,,,,,,,,,,,,,,,,,,,,,,,,,,,,,,,,,,,,,,,,,,,,,,,,,,,,,,,,,,,,,,,,,,,,,,,,,,,,,,,,,,,,,,,,,,,,,,,,
,,,,,,613c542c957161802d700fb2,629c51ed7194cb9303f1baa5,2022-06-04_23h50.58.983,Colour_Asymmetry_Pilot,2022.1.3,Win32,60.24459305,629c4b6caf241d5e6e00bfc0,0,65,65,24,1,onetwo,,,,,,,,,,,,,,,,,,,,,,,,,,,,,,,,,,,,,,,,,,,,,,,,,,,,,,,,,,,,,,,,,,,,,,,,,,,,,,,,,,,,,,,,,,,,,,,,,,,,,,,,,,,,,,,,,,,,,,,,,,,,,,,,,,,,,,,,,,,,,
,,,,,,613c542c957161802d700fb2,629c51ed7194cb9303f1baa5,2022-06-04_23h50.58.983,Colour_Asymmetry_Pilot,2022.1.3,Win32,60.24459305,629c4b6caf241d5e6e00bfc0,0,66,66,120,1,onetwo,,,,,,,,,,,,,,,,,,,,,,,,,,,,,,,,,,,,,,,,,,,,,,,,,,,,,,,,,,,,,,,,,,,,,,,,,,,,,,,,,,,,,,,,,,,,,,,,,,,,,,,,,,,,,,,,,,,,,,,,,,,,,,,,,,,,,,,,,,,,,
,,,,,,613c542c957161802d700fb2,629c51ed7194cb9303f1baa5,2022-06-04_23h50.58.983,Colour_Asymmetry_Pilot,2022.1.3,Win32,60.24459305,629c4b6caf241d5e6e00bfc0,0,67,67,151,1,fourthree,,,,,,,,,,,,,,,,,,,,,,,,,,,,,,,,,,,,,,,,,,,,,,,,,,,,,,,,,,,,,,,,,,,,,,,,,,,,,,,,,,,,,,,,,,,,,,,,,,,,,,,,,,,,,,,,,,,,,,,,,,,,,,,,,,,,,,,,,,,,,
,,,,,,613c542c957161802d700fb2,629c51ed7194cb9303f1baa5,2022-06-04_23h50.58.983,Colour_Asymmetry_Pilot,2022.1.3,Win32,60.24459305,629c4b6caf241d5e6e00bfc0,0,68,68,36,1,threeone,,,,,,,,,,,,,,,,,,,,,,,,,,,,,,,,,,,,,,,,,,,,,,,,,,,,,,,,,,,,,,,,,,,,,,,,,,,,,,,,,,,,,,,,,,,,,,,,,,,,,,,,,,,,,,,,,,,,,,,,,,,,,,,,,,,,,,,,,,,,,
,,,,,,613c542c957161802d700fb2,629c51ed7194cb9303f1baa5,2022-06-04_23h50.58.983,Colour_Asymmetry_Pilot,2022.1.3,Win32,60.24459305,629c4b6caf241d5e6e00bfc0,0,69,69,57,1,onethree,,,,,,,,,,,,,,,,,,,,,,,,,,,,,,,,,,,,,,,,,,,,,,,,,,,,,,,,,,,,,,,,,,,,,,,,,,,,,,,,,,,,,,,,,,,,,,,,,,,,,,,,,,,,,,,,,,,,,,,,,,,,,,,,,,,,,,,,,,,,,
,,,,,,613c542c957161802d700fb2,629c51ed7194cb9303f1baa5,2022-06-04_23h50.58.983,Colour_Asymmetry_Pilot,2022.1.3,Win32,60.24459305,629c4b6caf241d5e6e00bfc0,0,70,70,139,1,twofour,,,,,,,,,,,,,,,,,,,,,,,,,,,,,,,,,,,,,,,,,,,,,,,,,,,,,,,,,,,,,,,,,,,,,,,,,,,,,,,,,,,,,,,,,,,,,,,,,,,,,,,,,,,,,,,,,,,,,,,,,,,,,,,,,,,,,,,,,,,,,
,,,,,,613c542c957161802d700fb2,629c51ed7194cb9303f1baa5,2022-06-04_23h50.58.983,Colour_Asymmetry_Pilot,2022.1.3,Win32,60.24459305,629c4b6caf241d5e6e00bfc0,0,71,71,150,1,fourtwo,,,,,,,,,,,,,,,,,,,,,,,,,,,,,,,,,,,,,,,,,,,,,,,,,,,,,,,,,,,,,,,,,,,,,,,,,,,,,,,,,,,,,,,,,,,,,,,,,,,,,,,,,,,,,,,,,,,,,,,,,,,,,,,,,,,,,,,,,,,,,
,,,,,,613c542c957161802d700fb2,629c51ed7194cb9303f1baa5,2022-06-04_23h50.58.983,Colour_Asymmetry_Pilot,2022.1.3,Win32,60.24459305,629c4b6caf241d5e6e00bfc0,0,72,72,158,1,fourtwo,,,,,,,,,,,,,,,,,,,,,,,,,,,,,,,,,,,,,,,,,,,,,,,,,,,,,,,,,,,,,,,,,,,,,,,,,,,,,,,,,,,,,,,,,,,,,,,,,,,,,,,,,,,,,,,,,,,,,,,,,,,,,,,,,,,,,,,,,,,,,
,,,,,,613c542c957161802d700fb2,629c51ed7194cb9303f1baa5,2022-06-04_23h50.58.983,Colour_Asymmetry_Pilot,2022.1.3,Win32,60.24459305,629c4b6caf241d5e6e00bfc0,0,73,73,60,1,threeone,,,,,,,,,,,,,,,,,,,,,,,,,,,,,,,,,,,,,,,,,,,,,,,,,,,,,,,,,,,,,,,,,,,,,,,,,,,,,,,,,,,,,,,,,,,,,,,,,,,,,,,,,,,,,,,,,,,,,,,,,,,,,,,,,,,,,,,,,,,,,
,,,,,,613c542c957161802d700fb2,629c51ed7194cb9303f1baa5,2022-06-04_23h50.58.983,Colour_Asymmetry_Pilot,2022.1.3,Win32,60.24459305,629c4b6caf241d5e6e00bfc0,0,74,74,133,1,threefour,,,,,,,,,,,,,,,,,,,,,,,,,,,,,,,,,,,,,,,,,,,,,,,,,,,,,,,,,,,,,,,,,,,,,,,,,,,,,,,,,,,,,,,,,,,,,,,,,,,,,,,,,,,,,,,,,,,,,,,,,,,,,,,,,,,,,,,,,,,,,
,,,,,,613c542c957161802d700fb2,629c51ed7194cb9303f1baa5,2022-06-04_23h50.58.983,Colour_Asymmetry_Pilot,2022.1.3,Win32,60.24459305,629c4b6caf241d5e6e00bfc0,0,75,75,126,1,fourtwo,,,,,,,,,,,,,,,,,,,,,,,,,,,,,,,,,,,,,,,,,,,,,,,,,,,,,,,,,,,,,,,,,,,,,,,,,,,,,,,,,,,,,,,,,,,,,,,,,,,,,,,,,,,,,,,,,,,,,,,,,,,,,,,,,,,,,,,,,,,,,
,,,,,,613c542c957161802d700fb2,629c51ed7194cb9303f1baa5,2022-06-04_23h50.58.983,Colour_Asymmetry_Pilot,2022.1.3,Win32,60.24459305,629c4b6caf241d5e6e00bfc0,0,76,76,33,1,onethree,,,,,,,,,,,,,,,,,,,,,,,,,,,,,,,,,,,,,,,,,,,,,,,,,,,,,,,,,,,,,,,,,,,,,,,,,,,,,,,,,,,,,,,,,,,,,,,,,,,,,,,,,,,,,,,,,,,,,,,,,,,,,,,,,,,,,,,,,,,,,
,,,,,,613c542c957161802d700fb2,629c51ed7194cb9303f1baa5,2022-06-04_23h50.58.983,Colour_Asymmetry_Pilot,2022.1.3,Win32,60.24459305,629c4b6caf241d5e6e00bfc0,0,77,77,79,1,fourthree,,,,,,,,,,,,,,,,,,,,,,,,,,,,,,,,,,,,,,,,,,,,,,,,,,,,,,,,,,,,,,,,,,,,,,,,,,,,,,,,,,,,,,,,,,,,,,,,,,,,,,,,,,,,,,,,,,,,,,,,,,,,,,,,,,,,,,,,,,,,,
,,,,,,613c542c957161802d700fb2,629c51ed7194cb9303f1baa5,2022-06-04_23h50.58.983,Colour_Asymmetry_Pilot,2022.1.3,Win32,60.24459305,629c4b6caf241d5e6e00bfc0,0,78,78,137,1,onethree,,,,,,,,,,,,,,,,,,,,,,,,,,,,,,,,,,,,,,,,,,,,,,,,,,,,,,,,,,,,,,,,,,,,,,,,,,,,,,,,,,,,,,,,,,,,,,,,,,,,,,,,,,,,,,,,,,,,,,,,,,,,,,,,,,,,,,,,,,,,,
,,,,,,613c542c957161802d700fb2,629c51ed7194cb9303f1baa5,2022-06-04_23h50.58.983,Colour_Asymmetry_Pilot,2022.1.3,Win32,60.24459305,629c4b6caf241d5e6e00bfc0,0,79,79,64,1,onetwo,,,,,,,,,,,,,,,,,,,,,,,,,,,,,,,,,,,,,,,,,,,,,,,,,,,,,,,,,,,,,,,,,,,,,,,,,,,,,,,,,,,,,,,,,,,,,,,,,,,,,,,,,,,,,,,,,,,,,,,,,,,,,,,,,,,,,,,,,,,,,
,,,,,,613c542c957161802d700fb2,629c51ed7194cb9303f1baa5,2022-06-04_23h50.58.983,Colour_Asymmetry_Pilot,2022.1.3,Win32,60.24459305,629c4b6caf241d5e6e00bfc0,0,80,80,159,1,fourthree,,,,,,,,,,,,,,,,,,,,,,,,,,,,,,,,,,,,,,,,,,,,,,,,,,,,,,,,,,,,,,,,,,,,,,,,,,,,,,,,,,,,,,,,,,,,,,,,,,,,,,,,,,,,,,,,,,,,,,,,,,,,,,,,,,,,,,,,,,,,,
,,,,,,613c542c957161802d700fb2,629c51ed7194cb9303f1baa5,2022-06-04_23h50.58.983,Colour_Asymmetry_Pilot,2022.1.3,Win32,60.24459305,629c4b6caf241d5e6e00bfc0,0,81,81,161,1,onethree,,,,,,,,,,,,,,,,,,,,,,,,,,,,,,,,,,,,,,,,,,,,,,,,,,,,,,,,,,,,,,,,,,,,,,,,,,,,,,,,,,,,,,,,,,,,,,,,,,,,,,,,,,,,,,,,,,,,,,,,,,,,,,,,,,,,,,,,,,,,,
,,,,,,613c542c957161802d700fb2,629c51ed7194cb9303f1baa5,2022-06-04_23h50.58.983,Colour_Asymmetry_Pilot,2022.1.3,Win32,60.24459305,629c4b6caf241d5e6e00bfc0,0,82,82,69,1,threefour,,,,,,,,,,,,,,,,,,,,,,,,,,,,,,,,,,,,,,,,,,,,,,,,,,,,,,,,,,,,,,,,,,,,,,,,,,,,,,,,,,,,,,,,,,,,,,,,,,,,,,,,,,,,,,,,,,,,,,,,,,,,,,,,,,,,,,,,,,,,,
,,,,,,613c542c957161802d700fb2,629c51ed7194cb9303f1baa5,2022-06-04_23h50.58.983,Colour_Asymmetry_Pilot,2022.1.3,Win32,60.24459305,629c4b6caf241d5e6e00bfc0,0,83,83,82,1,twoone,,,,,,,,,,,,,,,,,,,,,,,,,,,,,,,,,,,,,,,,,,,,,,,,,,,,,,,,,,,,,,,,,,,,,,,,,,,,,,,,,,,,,,,,,,,,,,,,,,,,,,,,,,,,,,,,,,,,,,,,,,,,,,,,,,,,,,,,,,,,,
,,,,,,613c542c957161802d700fb2,629c51ed7194cb9303f1baa5,2022-06-04_23h50.58.983,Colour_Asymmetry_Pilot,2022.1.3,Win32,60.24459305,629c4b6caf241d5e6e00bfc0,0,84,84,107,1,twofour,,,,,,,,,,,,,,,,,,,,,,,,,,,,,,,,,,,,,,,,,,,,,,,,,,,,,,,,,,,,,,,,,,,,,,,,,,,,,,,,,,,,,,,,,,,,,,,,,,,,,,,,,,,,,,,,,,,,,,,,,,,,,,,,,,,,,,,,,,,,,
,,,,,,613c542c957161802d700fb2,629c51ed7194cb9303f1baa5,2022-06-04_23h50.58.983,Colour_Asymmetry_Pilot,2022.1.3,Win32,60.24459305,629c4b6caf241d5e6e00bfc0,0,85,85,88,1,onetwo,,,,,,,,,,,,,,,,,,,,,,,,,,,,,,,,,,,,,,,,,,,,,,,,,,,,,,,,,,,,,,,,,,,,,,,,,,,,,,,,,,,,,,,,,,,,,,,,,,,,,,,,,,,,,,,,,,,,,,,,,,,,,,,,,,,,,,,,,,,,,
,,,,,,613c542c957161802d700fb2,629c51ed7194cb9303f1baa5,2022-06-04_23h50.58.983,Colour_Asymmetry_Pilot,2022.1.3,Win32,60.24459305,629c4b6caf241d5e6e00bfc0,0,86,86,118,1,fourtwo,,,,,,,,,,,,,,,,,,,,,,,,,,,,,,,,,,,,,,,,,,,,,,,,,,,,,,,,,,,,,,,,,,,,,,,,,,,,,,,,,,,,,,,,,,,,,,,,,,,,,,,,,,,,,,,,,,,,,,,,,,,,,,,,,,,,,,,,,,,,,
,,,,,,613c542c957161802d700fb2,629c51ed7194cb9303f1baa5,2022-06-04_23h50.58.983,Colour_Asymmetry_Pilot,2022.1.3,Win32,60.24459305,629c4b6caf241d5e6e00bfc0,0,87,87,34,1,twoone,,,,,,,,,,,,,,,,,,,,,,,,,,,,,,,,,,,,,,,,,,,,,,,,,,,,,,,,,,,,,,,,,,,,,,,,,,,,,,,,,,,,,,,,,,,,,,,,,,,,,,,,,,,,,,,,,,,,,,,,,,,,,,,,,,,,,,,,,,,,,
,,,,,,613c542c957161802d700fb2,629c51ed7194cb9303f1baa5,2022-06-04_23h50.58.983,Colour_Asymmetry_Pilot,2022.1.3,Win32,60.24459305,629c4b6caf241d5e6e00bfc0,0,88,88,127,1,fourthree,,,,,,,,,,,,,,,,,,,,,,,,,,,,,,,,,,,,,,,,,,,,,,,,,,,,,,,,,,,,,,,,,,,,,,,,,,,,,,,,,,,,,,,,,,,,,,,,,,,,,,,,,,,,,,,,,,,,,,,,,,,,,,,,,,,,,,,,,,,,,
,,,,,,613c542c957161802d700fb2,629c51ed7194cb9303f1baa5,2022-06-04_23h50.58.983,Colour_Asymmetry_Pilot,2022.1.3,Win32,60.24459305,629c4b6caf241d5e6e00bfc0,0,89,89,84,1,threeone,,,,,,,,,,,,,,,,,,,,,,,,,,,,,,,,,,,,,,,,,,,,,,,,,,,,,,,,,,,,,,,,,,,,,,,,,,,,,,,,,,,,,,,,,,,,,,,,,,,,,,,,,,,,,,,,,,,,,,,,,,,,,,,,,,,,,,,,,,,,,
,,,,,,613c542c957161802d700fb2,629c51ed7194cb9303f1baa5,2022-06-04_23h50.58.983,Colour_Asymmetry_Pilot,2022.1.3,Win32,60.24459305,629c4b6caf241d5e6e00bfc0,0,90,90,86,1,fourtwo,,,,,,,,,,,,,,,,,,,,,,,,,,,,,,,,,,,,,,,,,,,,,,,,,,,,,,,,,,,,,,,,,,,,,,,,,,,,,,,,,,,,,,,,,,,,,,,,,,,,,,,,,,,,,,,,,,,,,,,,,,,,,,,,,,,,,,,,,,,,,
,,,,,,613c542c957161802d700fb2,629c51ed7194cb9303f1baa5,2022-06-04_23h50.58.983,Colour_Asymmetry_Pilot,2022.1.3,Win32,60.24459305,629c4b6caf241d5e6e00bfc0,0,91,91,56,1,onetwo,,,,,,,,,,,,,,,,,,,,,,,,,,,,,,,,,,,,,,,,,,,,,,,,,,,,,,,,,,,,,,,,,,,,,,,,,,,,,,,,,,,,,,,,,,,,,,,,,,,,,,,,,,,,,,,,,,,,,,,,,,,,,,,,,,,,,,,,,,,,,
,,,,,,613c542c957161802d700fb2,629c51ed7194cb9303f1baa5,2022-06-04_23h50.58.983,Colour_Asymmetry_Pilot,2022.1.3,Win32,60.24459305,629c4b6caf241d5e6e00bfc0,0,92,92,17,1,onethree,,,,,,,,,,,,,,,,,,,,,,,,,,,,,,,,,,,,,,,,,,,,,,,,,,,,,,,,,,,,,,,,,,,,,,,,,,,,,,,,,,,,,,,,,,,,,,,,,,,,,,,,,,,,,,,,,,,,,,,,,,,,,,,,,,,,,,,,,,,,,
,,,,,,613c542c957161802d700fb2,629c51ed7194cb9303f1baa5,2022-06-04_23h50.58.983,Colour_Asymmetry_Pilot,2022.1.3,Win32,60.24459305,629c4b6caf241d5e6e00bfc0,0,93,93,101,1,threefour,,,,,,,,,,,,,,,,,,,,,,,,,,,,,,,,,,,,,,,,,,,,,,,,,,,,,,,,,,,,,,,,,,,,,,,,,,,,,,,,,,,,,,,,,,,,,,,,,,,,,,,,,,,,,,,,,,,,,,,,,,,,,,,,,,,,,,,,,,,,,
,,,,,,613c542c957161802d700fb2,629c51ed7194cb9303f1baa5,2022-06-04_23h50.58.983,Colour_Asymmetry_Pilot,2022.1.3,Win32,60.24459305,629c4b6caf241d5e6e00bfc0,0,94,94,105,1,onethree,,,,,,,,,,,,,,,,,,,,,,,,,,,,,,,,,,,,,,,,,,,,,,,,,,,,,,,,,,,,,,,,,,,,,,,,,,,,,,,,,,,,,,,,,,,,,,,,,,,,,,,,,,,,,,,,,,,,,,,,,,,,,,,,,,,,,,,,,,,,,
,,,,,,613c542c957161802d700fb2,629c51ed7194cb9303f1baa5,2022-06-04_23h50.58.983,Colour_Asymmetry_Pilot,2022.1.3,Win32,60.24459305,629c4b6caf241d5e6e00bfc0,0,95,95,54,1,fourtwo,,,,,,,,,,,,,,,,,,,,,,,,,,,,,,,,,,,,,,,,,,,,,,,,,,,,,,,,,,,,,,,,,,,,,,,,,,,,,,,,,,,,,,,,,,,,,,,,,,,,,,,,,,,,,,,,,,,,,,,,,,,,,,,,,,,,,,,,,,,,,
,,,,,,613c542c957161802d700fb2,629c51ed7194cb9303f1baa5,2022-06-04_23h50.58.983,Colour_Asymmetry_Pilot,2022.1.3,Win32,60.24459305,629c4b6caf241d5e6e00bfc0,0,96,96,39,1,fourthree,,,,,,,,,,,,,,,,,,,,,,,,,,,,,,,,,,,,,,,,,,,,,,,,,,,,,,,,,,,,,,,,,,,,,,,,,,,,,,,,,,,,,,,,,,,,,,,,,,,,,,,,,,,,,,,,,,,,,,,,,,,,,,,,,,,,,,,,,,,,,
,,,,,,613c542c957161802d700fb2,629c51ed7194cb9303f1baa5,2022-06-04_23h50.58.983,Colour_Asymmetry_Pilot,2022.1.3,Win32,60.24459305,629c4b6caf241d5e6e00bfc0,0,97,97,130,1,twoone,,,,,,,,,,,,,,,,,,,,,,,,,,,,,,,,,,,,,,,,,,,,,,,,,,,,,,,,,,,,,,,,,,,,,,,,,,,,,,,,,,,,,,,,,,,,,,,,,,,,,,,,,,,,,,,,,,,,,,,,,,,,,,,,,,,,,,,,,,,,,
,,,,,,613c542c957161802d700fb2,629c51ed7194cb9303f1baa5,2022-06-04_23h50.58.983,Colour_Asymmetry_Pilot,2022.1.3,Win32,60.24459305,629c4b6caf241d5e6e00bfc0,0,98,98,145,1,onethree,,,,,,,,,,,,,,,,,,,,,,,,,,,,,,,,,,,,,,,,,,,,,,,,,,,,,,,,,,,,,,,,,,,,,,,,,,,,,,,,,,,,,,,,,,,,,,,,,,,,,,,,,,,,,,,,,,,,,,,,,,,,,,,,,,,,,,,,,,,,,
,,,,,,613c542c957161802d700fb2,629c51ed7194cb9303f1baa5,2022-06-04_23h50.58.983,Colour_Asymmetry_Pilot,2022.1.3,Win32,60.24459305,629c4b6caf241d5e6e00bfc0,0,99,99,1,1,onethree,,,,,,,,,,,,,,,,,,,,,,,,,,,,,,,,,,,,,,,,,,,,,,,,,,,,,,,,,,,,,,,,,,,,,,,,,,,,,,,,,,,,,,,,,,,,,,,,,,,,,,,,,,,,,,,,,,,,,,,,,,,,,,,,,,,,,,,,,,,,,
,,,,,,613c542c957161802d700fb2,629c51ed7194cb9303f1baa5,2022-06-04_23h50.58.983,Colour_Asymmetry_Pilot,2022.1.3,Win32,60.24459305,629c4b6caf241d5e6e00bfc0,0,100,100,59,1,twofour,,,,,,,,,,,,,,,,,,,,,,,,,,,,,,,,,,,,,,,,,,,,,,,,,,,,,,,,,,,,,,,,,,,,,,,,,,,,,,,,,,,,,,,,,,,,,,,,,,,,,,,,,,,,,,,,,,,,,,,,,,,,,,,,,,,,,,,,,,,,,
,,,,,,613c542c957161802d700fb2,629c51ed7194cb9303f1baa5,2022-06-04_23h50.58.983,Colour_Asymmetry_Pilot,2022.1.3,Win32,60.24459305,629c4b6caf241d5e6e00bfc0,0,101,101,0,1,onetwo,,,,,,,,,,,,,,,,,,,,,,,,,,,,,,,,,,,,,,,,,,,,,,,,,,,,,,,,,,,,,,,,,,,,,,,,,,,,,,,,,,,,,,,,,,,,,,,,,,,,,,,,,,,,,,,,,,,,,,,,,,,,,,,,,,,,,,,,,,,,,
,,,,,,613c542c957161802d700fb2,629c51ed7194cb9303f1baa5,2022-06-04_23h50.58.983,Colour_Asymmetry_Pilot,2022.1.3,Win32,60.24459305,629c4b6caf241d5e6e00bfc0,0,102,102,89,1,onethree,,,,,,,,,,,,,,,,,,,,,,,,,,,,,,,,,,,,,,,,,,,,,,,,,,,,,,,,,,,,,,,,,,,,,,,,,,,,,,,,,,,,,,,,,,,,,,,,,,,,,,,,,,,,,,,,,,,,,,,,,,,,,,,,,,,,,,,,,,,,,
,,,,,,613c542c957161802d700fb2,629c51ed7194cb9303f1baa5,2022-06-04_23h50.58.983,Colour_Asymmetry_Pilot,2022.1.3,Win32,60.24459305,629c4b6caf241d5e6e00bfc0,0,103,103,76,1,threeone,,,,,,,,,,,,,,,,,,,,,,,,,,,,,,,,,,,,,,,,,,,,,,,,,,,,,,,,,,,,,,,,,,,,,,,,,,,,,,,,,,,,,,,,,,,,,,,,,,,,,,,,,,,,,,,,,,,,,,,,,,,,,,,,,,,,,,,,,,,,,
,,,,,,613c542c957161802d700fb2,629c51ed7194cb9303f1baa5,2022-06-04_23h50.58.983,Colour_Asymmetry_Pilot,2022.1.3,Win32,60.24459305,629c4b6caf241d5e6e00bfc0,0,104,104,22,1,fourtwo,,,,,,,,,,,,,,,,,,,,,,,,,,,,,,,,,,,,,,,,,,,,,,,,,,,,,,,,,,,,,,,,,,,,,,,,,,,,,,,,,,,,,,,,,,,,,,,,,,,,,,,,,,,,,,,,,,,,,,,,,,,,,,,,,,,,,,,,,,,,,
,,,,,,613c542c957161802d700fb2,629c51ed7194cb9303f1baa5,2022-06-04_23h50.58.983,Colour_Asymmetry_Pilot,2022.1.3,Win32,60.24459305,629c4b6caf241d5e6e00bfc0,0,105,105,73,1,onethree,,,,,,,,,,,,,,,,,,,,,,,,,,,,,,,,,,,,,,,,,,,,,,,,,,,,,,,,,,,,,,,,,,,,,,,,,,,,,,,,,,,,,,,,,,,,,,,,,,,,,,,,,,,,,,,,,,,,,,,,,,,,,,,,,,,,,,,,,,,,,
,,,,,,613c542c957161802d700fb2,629c51ed7194cb9303f1baa5,2022-06-04_23h50.58.983,Colour_Asymmetry_Pilot,2022.1.3,Win32,60.24459305,629c4b6caf241d5e6e00bfc0,0,106,106,18,1,twoone,,,,,,,,,,,,,,,,,,,,,,,,,,,,,,,,,,,,,,,,,,,,,,,,,,,,,,,,,,,,,,,,,,,,,,,,,,,,,,,,,,,,,,,,,,,,,,,,,,,,,,,,,,,,,,,,,,,,,,,,,,,,,,,,,,,,,,,,,,,,,
,,,,,,613c542c957161802d700fb2,629c51ed7194cb9303f1baa5,2022-06-04_23h50.58.983,Colour_Asymmetry_Pilot,2022.1.3,Win32,60.24459305,629c4b6caf241d5e6e00bfc0,0,107,107,96,1,onetwo,,,,,,,,,,,,,,,,,,,,,,,,,,,,,,,,,,,,,,,,,,,,,,,,,,,,,,,,,,,,,,,,,,,,,,,,,,,,,,,,,,,,,,,,,,,,,,,,,,,,,,,,,,,,,,,,,,,,,,,,,,,,,,,,,,,,,,,,,,,,,
,,,,,,613c542c957161802d700fb2,629c51ed7194cb9303f1baa5,2022-06-04_23h50.58.983,Colour_Asymmetry_Pilot,2022.1.3,Win32,60.24459305,629c4b6caf241d5e6e00bfc0,0,108,108,28,1,threeone,,,,,,,,,,,,,,,,,,,,,,,,,,,,,,,,,,,,,,,,,,,,,,,,,,,,,,,,,,,,,,,,,,,,,,,,,,,,,,,,,,,,,,,,,,,,,,,,,,,,,,,,,,,,,,,,,,,,,,,,,,,,,,,,,,,,,,,,,,,,,
,,,,,,613c542c957161802d700fb2,629c51ed7194cb9303f1baa5,2022-06-04_23h50.58.983,Colour_Asymmetry_Pilot,2022.1.3,Win32,60.24459305,629c4b6caf241d5e6e00bfc0,0,109,109,77,1,threefour,,,,,,,,,,,,,,,,,,,,,,,,,,,,,,,,,,,,,,,,,,,,,,,,,,,,,,,,,,,,,,,,,,,,,,,,,,,,,,,,,,,,,,,,,,,,,,,,,,,,,,,,,,,,,,,,,,,,,,,,,,,,,,,,,,,,,,,,,,,,,
,,,,,,613c542c957161802d700fb2,629c51ed7194cb9303f1baa5,2022-06-04_23h50.58.983,Colour_Asymmetry_Pilot,2022.1.3,Win32,60.24459305,629c4b6caf241d5e6e00bfc0,0,110,110,12,1,threeone,,,,,,,,,,,,,,,,,,,,,,,,,,,,,,,,,,,,,,,,,,,,,,,,,,,,,,,,,,,,,,,,,,,,,,,,,,,,,,,,,,,,,,,,,,,,,,,,,,,,,,,,,,,,,,,,,,,,,,,,,,,,,,,,,,,,,,,,,,,,,
,,,,,,613c542c957161802d700fb2,629c51ed7194cb9303f1baa5,2022-06-04_23h50.58.983,Colour_Asymmetry_Pilot,2022.1.3,Win32,60.24459305,629c4b6caf241d5e6e00bfc0,0,111,111,41,1,onethree,,,,,,,,,,,,,,,,,,,,,,,,,,,,,,,,,,,,,,,,,,,,,,,,,,,,,,,,,,,,,,,,,,,,,,,,,,,,,,,,,,,,,,,,,,,,,,,,,,,,,,,,,,,,,,,,,,,,,,,,,,,,,,,,,,,,,,,,,,,,,
,,,,,,613c542c957161802d700fb2,629c51ed7194cb9303f1baa5,2022-06-04_23h50.58.983,Colour_Asymmetry_Pilot,2022.1.3,Win32,60.24459305,629c4b6caf241d5e6e00bfc0,0,112,112,35,1,twofour,,,,,,,,,,,,,,,,,,,,,,,,,,,,,,,,,,,,,,,,,,,,,,,,,,,,,,,,,,,,,,,,,,,,,,,,,,,,,,,,,,,,,,,,,,,,,,,,,,,,,,,,,,,,,,,,,,,,,,,,,,,,,,,,,,,,,,,,,,,,,
,,,,,,613c542c957161802d700fb2,629c51ed7194cb9303f1baa5,2022-06-04_23h50.58.983,Colour_Asymmetry_Pilot,2022.1.3,Win32,60.24459305,629c4b6caf241d5e6e00bfc0,0,113,113,25,1,onethree,,,,,,,,,,,,,,,,,,,,,,,,,,,,,,,,,,,,,,,,,,,,,,,,,,,,,,,,,,,,,,,,,,,,,,,,,,,,,,,,,,,,,,,,,,,,,,,,,,,,,,,,,,,,,,,,,,,,,,,,,,,,,,,,,,,,,,,,,,,,,
,,,,,,613c542c957161802d700fb2,629c51ed7194cb9303f1baa5,2022-06-04_23h50.58.983,Colour_Asymmetry_Pilot,2022.1.3,Win32,60.24459305,629c4b6caf241d5e6e00bfc0,0,114,114,46,1,fourtwo,,,,,,,,,,,,,,,,,,,,,,,,,,,,,,,,,,,,,,,,,,,,,,,,,,,,,,,,,,,,,,,,,,,,,,,,,,,,,,,,,,,,,,,,,,,,,,,,,,,,,,,,,,,,,,,,,,,,,,,,,,,,,,,,,,,,,,,,,,,,,
,,,,,,613c542c957161802d700fb2,629c51ed7194cb9303f1baa5,2022-06-04_23h50.58.983,Colour_Asymmetry_Pilot,2022.1.3,Win32,60.24459305,629c4b6caf241d5e6e00bfc0,0,115,115,81,1,onethree,,,,,,,,,,,,,,,,,,,,,,,,,,,,,,,,,,,,,,,,,,,,,,,,,,,,,,,,,,,,,,,,,,,,,,,,,,,,,,,,,,,,,,,,,,,,,,,,,,,,,,,,,,,,,,,,,,,,,,,,,,,,,,,,,,,,,,,,,,,,,
,,,,,,613c542c957161802d700fb2,629c51ed7194cb9303f1baa5,2022-06-04_23h50.58.983,Colour_Asymmetry_Pilot,2022.1.3,Win32,60.24459305,629c4b6caf241d5e6e00bfc0,0,116,116,48,1,onetwo,,,,,,,,,,,,,,,,,,,,,,,,,,,,,,,,,,,,,,,,,,,,,,,,,,,,,,,,,,,,,,,,,,,,,,,,,,,,,,,,,,,,,,,,,,,,,,,,,,,,,,,,,,,,,,,,,,,,,,,,,,,,,,,,,,,,,,,,,,,,,
,,,,,,613c542c957161802d700fb2,629c51ed7194cb9303f1baa5,2022-06-04_23h50.58.983,Colour_Asymmetry_Pilot,2022.1.3,Win32,60.24459305,629c4b6caf241d5e6e00bfc0,0,117,117,102,1,fourtwo,,,,,,,,,,,,,,,,,,,,,,,,,,,,,,,,,,,,,,,,,,,,,,,,,,,,,,,,,,,,,,,,,,,,,,,,,,,,,,,,,,,,,,,,,,,,,,,,,,,,,,,,,,,,,,,,,,,,,,,,,,,,,,,,,,,,,,,,,,,,,
,,,,,,613c542c957161802d700fb2,629c51ed7194cb9303f1baa5,2022-06-04_23h50.58.983,Colour_Asymmetry_Pilot,2022.1.3,Win32,60.24459305,629c4b6caf241d5e6e00bfc0,0,118,118,124,1,threeone,,,,,,,,,,,,,,,,,,,,,,,,,,,,,,,,,,,,,,,,,,,,,,,,,,,,,,,,,,,,,,,,,,,,,,,,,,,,,,,,,,,,,,,,,,,,,,,,,,,,,,,,,,,,,,,,,,,,,,,,,,,,,,,,,,,,,,,,,,,,,
,,,,,,613c542c957161802d700fb2,629c51ed7194cb9303f1baa5,2022-06-04_23h50.58.983,Colour_Asymmetry_Pilot,2022.1.3,Win32,60.24459305,629c4b6caf241d5e6e00bfc0,0,119,119,70,1,fourtwo,,,,,,,,,,,,,,,,,,,,,,,,,,,,,,,,,,,,,,,,,,,,,,,,,,,,,,,,,,,,,,,,,,,,,,,,,,,,,,,,,,,,,,,,,,,,,,,,,,,,,,,,,,,,,,,,,,,,,,,,,,,,,,,,,,,,,,,,,,,,,
,,,,,,613c542c957161802d700fb2,629c51ed7194cb9303f1baa5,2022-06-04_23h50.58.983,Colour_Asymmetry_Pilot,2022.1.3,Win32,60.24459305,629c4b6caf241d5e6e00bfc0,0,120,120,91,1,twofour,,,,,,,,,,,,,,,,,,,,,,,,,,,,,,,,,,,,,,,,,,,,,,,,,,,,,,,,,,,,,,,,,,,,,,,,,,,,,,,,,,,,,,,,,,,,,,,,,,,,,,,,,,,,,,,,,,,,,,,,,,,,,,,,,,,,,,,,,,,,,
,,,,,,613c542c957161802d700fb2,629c51ed7194cb9303f1baa5,2022-06-04_23h50.58.983,Colour_Asymmetry_Pilot,2022.1.3,Win32,60.24459305,629c4b6caf241d5e6e00bfc0,0,121,121,42,1,twoone,,,,,,,,,,,,,,,,,,,,,,,,,,,,,,,,,,,,,,,,,,,,,,,,,,,,,,,,,,,,,,,,,,,,,,,,,,,,,,,,,,,,,,,,,,,,,,,,,,,,,,,,,,,,,,,,,,,,,,,,,,,,,,,,,,,,,,,,,,,,,
,,,,,,613c542c957161802d700fb2,629c51ed7194cb9303f1baa5,2022-06-04_23h50.58.983,Colour_Asymmetry_Pilot,2022.1.3,Win32,60.24459305,629c4b6caf241d5e6e00bfc0,0,122,122,87,1,fourthree,,,,,,,,,,,,,,,,,,,,,,,,,,,,,,,,,,,,,,,,,,,,,,,,,,,,,,,,,,,,,,,,,,,,,,,,,,,,,,,,,,,,,,,,,,,,,,,,,,,,,,,,,,,,,,,,,,,,,,,,,,,,,,,,,,,,,,,,,,,,,
,,,,,,613c542c957161802d700fb2,629c51ed7194cb9303f1baa5,2022-06-04_23h50.58.983,Colour_Asymmetry_Pilot,2022.1.3,Win32,60.24459305,629c4b6caf241d5e6e00bfc0,0,123,123,109,1,threefour,,,,,,,,,,,,,,,,,,,,,,,,,,,,,,,,,,,,,,,,,,,,,,,,,,,,,,,,,,,,,,,,,,,,,,,,,,,,,,,,,,,,,,,,,,,,,,,,,,,,,,,,,,,,,,,,,,,,,,,,,,,,,,,,,,,,,,,,,,,,,
,,,,,,613c542c957161802d700fb2,629c51ed7194cb9303f1baa5,2022-06-04_23h50.58.983,Colour_Asymmetry_Pilot,2022.1.3,Win32,60.24459305,629c4b6caf241d5e6e00bfc0,0,124,124,148,1,threeone,,,,,,,,,,,,,,,,,,,,,,,,,,,,,,,,,,,,,,,,,,,,,,,,,,,,,,,,,,,,,,,,,,,,,,,,,,,,,,,,,,,,,,,,,,,,,,,,,,,,,,,,,,,,,,,,,,,,,,,,,,,,,,,,,,,,,,,,,,,,,
,,,,,,613c542c957161802d700fb2,629c51ed7194cb9303f1baa5,2022-06-04_23h50.58.983,Colour_Asymmetry_Pilot,2022.1.3,Win32,60.24459305,629c4b6caf241d5e6e00bfc0,0,125,125,52,1,threeone,,,,,,,,,,,,,,,,,,,,,,,,,,,,,,,,,,,,,,,,,,,,,,,,,,,,,,,,,,,,,,,,,,,,,,,,,,,,,,,,,,,,,,,,,,,,,,,,,,,,,,,,,,,,,,,,,,,,,,,,,,,,,,,,,,,,,,,,,,,,,
,,,,,,613c542c957161802d700fb2,629c51ed7194cb9303f1baa5,2022-06-04_23h50.58.983,Colour_Asymmetry_Pilot,2022.1.3,Win32,60.24459305,629c4b6caf241d5e6e00bfc0,0,126,126,114,1,twoone,,,,,,,,,,,,,,,,,,,,,,,,,,,,,,,,,,,,,,,,,,,,,,,,,,,,,,,,,,,,,,,,,,,,,,,,,,,,,,,,,,,,,,,,,,,,,,,,,,,,,,,,,,,,,,,,,,,,,,,,,,,,,,,,,,,,,,,,,,,,,
,,,,,,613c542c957161802d700fb2,629c51ed7194cb9303f1baa5,2022-06-04_23h50.58.983,Colour_Asymmetry_Pilot,2022.1.3,Win32,60.24459305,629c4b6caf241d5e6e00bfc0,0,127,127,111,1,fourthree,,,,,,,,,,,,,,,,,,,,,,,,,,,,,,,,,,,,,,,,,,,,,,,,,,,,,,,,,,,,,,,,,,,,,,,,,,,,,,,,,,,,,,,,,,,,,,,,,,,,,,,,,,,,,,,,,,,,,,,,,,,,,,,,,,,,,,,,,,,,,
,,,,,,613c542c957161802d700fb2,629c51ed7194cb9303f1baa5,2022-06-04_23h50.58.983,Colour_Asymmetry_Pilot,2022.1.3,Win32,60.24459305,629c4b6caf241d5e6e00bfc0,0,128,128,106,1,twoone,,,,,,,,,,,,,,,,,,,,,,,,,,,,,,,,,,,,,,,,,,,,,,,,,,,,,,,,,,,,,,,,,,,,,,,,,,,,,,,,,,,,,,,,,,,,,,,,,,,,,,,,,,,,,,,,,,,,,,,,,,,,,,,,,,,,,,,,,,,,,
,,,,,,613c542c957161802d700fb2,629c51ed7194cb9303f1baa5,2022-06-04_23h50.58.983,Colour_Asymmetry_Pilot,2022.1.3,Win32,60.24459305,629c4b6caf241d5e6e00bfc0,0,129,129,100,1,threeone,,,,,,,,,,,,,,,,,,,,,,,,,,,,,,,,,,,,,,,,,,,,,,,,,,,,,,,,,,,,,,,,,,,,,,,,,,,,,,,,,,,,,,,,,,,,,,,,,,,,,,,,,,,,,,,,,,,,,,,,,,,,,,,,,,,,,,,,,,,,,
,,,,,,613c542c957161802d700fb2,629c51ed7194cb9303f1baa5,2022-06-04_23h50.58.983,Colour_Asymmetry_Pilot,2022.1.3,Win32,60.24459305,629c4b6caf241d5e6e00bfc0,0,130,130,7,1,fourthree,,,,,,,,,,,,,,,,,,,,,,,,,,,,,,,,,,,,,,,,,,,,,,,,,,,,,,,,,,,,,,,,,,,,,,,,,,,,,,,,,,,,,,,,,,,,,,,,,,,,,,,,,,,,,,,,,,,,,,,,,,,,,,,,,,,,,,,,,,,,,
,,,,,,613c542c957161802d700fb2,629c51ed7194cb9303f1baa5,2022-06-04_23h50.58.983,Colour_Asymmetry_Pilot,2022.1.3,Win32,60.24459305,629c4b6caf241d5e6e00bfc0,0,131,131,38,1,fourtwo,,,,,,,,,,,,,,,,,,,,,,,,,,,,,,,,,,,,,,,,,,,,,,,,,,,,,,,,,,,,,,,,,,,,,,,,,,,,,,,,,,,,,,,,,,,,,,,,,,,,,,,,,,,,,,,,,,,,,,,,,,,,,,,,,,,,,,,,,,,,,
,,,,,,613c542c957161802d700fb2,629c51ed7194cb9303f1baa5,2022-06-04_23h50.58.983,Colour_Asymmetry_Pilot,2022.1.3,Win32,60.24459305,629c4b6caf241d5e6e00bfc0,0,132,132,75,1,twofour,,,,,,,,,,,,,,,,,,,,,,,,,,,,,,,,,,,,,,,,,,,,,,,,,,,,,,,,,,,,,,,,,,,,,,,,,,,,,,,,,,,,,,,,,,,,,,,,,,,,,,,,,,,,,,,,,,,,,,,,,,,,,,,,,,,,,,,,,,,,,
,,,,,,613c542c957161802d700fb2,629c51ed7194cb9303f1baa5,2022-06-04_23h50.58.983,Colour_Asymmetry_Pilot,2022.1.3,Win32,60.24459305,629c4b6caf241d5e6e00bfc0,0,133,133,125,1,threefour,,,,,,,,,,,,,,,,,,,,,,,,,,,,,,,,,,,,,,,,,,,,,,,,,,,,,,,,,,,,,,,,,,,,,,,,,,,,,,,,,,,,,,,,,,,,,,,,,,,,,,,,,,,,,,,,,,,,,,,,,,,,,,,,,,,,,,,,,,,,,
,,,,,,613c542c957161802d700fb2,629c51ed7194cb9303f1baa5,2022-06-04_23h50.58.983,Colour_Asymmetry_Pilot,2022.1.3,Win32,60.24459305,629c4b6caf241d5e6e00bfc0,0,134,134,157,1,threefour,,,,,,,,,,,,,,,,,,,,,,,,,,,,,,,,,,,,,,,,,,,,,,,,,,,,,,,,,,,,,,,,,,,,,,,,,,,,,,,,,,,,,,,,,,,,,,,,,,,,,,,,,,,,,,,,,,,,,,,,,,,,,,,,,,,,,,,,,,,,,
,,,,,,613c542c957161802d700fb2,629c51ed7194cb9303f1baa5,2022-06-04_23h50.58.983,Colour_Asymmetry_Pilot,2022.1.3,Win32,60.24459305,629c4b6caf241d5e6e00bfc0,0,135,135,95,1,fourthree,,,,,,,,,,,,,,,,,,,,,,,,,,,,,,,,,,,,,,,,,,,,,,,,,,,,,,,,,,,,,,,,,,,,,,,,,,,,,,,,,,,,,,,,,,,,,,,,,,,,,,,,,,,,,,,,,,,,,,,,,,,,,,,,,,,,,,,,,,,,,
,,,,,,613c542c957161802d700fb2,629c51ed7194cb9303f1baa5,2022-06-04_23h50.58.983,Colour_Asymmetry_Pilot,2022.1.3,Win32,60.24459305,629c4b6caf241d5e6e00bfc0,0,136,136,138,1,twoone,,,,,,,,,,,,,,,,,,,,,,,,,,,,,,,,,,,,,,,,,,,,,,,,,,,,,,,,,,,,,,,,,,,,,,,,,,,,,,,,,,,,,,,,,,,,,,,,,,,,,,,,,,,,,,,,,,,,,,,,,,,,,,,,,,,,,,,,,,,,,
,,,,,,613c542c957161802d700fb2,629c51ed7194cb9303f1baa5,2022-06-04_23h50.58.983,Colour_Asymmetry_Pilot,2022.1.3,Win32,60.24459305,629c4b6caf241d5e6e00bfc0,0,137,137,11,1,twofour,,,,,,,,,,,,,,,,,,,,,,,,,,,,,,,,,,,,,,,,,,,,,,,,,,,,,,,,,,,,,,,,,,,,,,,,,,,,,,,,,,,,,,,,,,,,,,,,,,,,,,,,,,,,,,,,,,,,,,,,,,,,,,,,,,,,,,,,,,,,,
,,,,,,613c542c957161802d700fb2,629c51ed7194cb9303f1baa5,2022-06-04_23h50.58.983,Colour_Asymmetry_Pilot,2022.1.3,Win32,60.24459305,629c4b6caf241d5e6e00bfc0,0,138,138,44,1,threeone,,,,,,,,,,,,,,,,,,,,,,,,,,,,,,,,,,,,,,,,,,,,,,,,,,,,,,,,,,,,,,,,,,,,,,,,,,,,,,,,,,,,,,,,,,,,,,,,,,,,,,,,,,,,,,,,,,,,,,,,,,,,,,,,,,,,,,,,,,,,,
,,,,,,613c542c957161802d700fb2,629c51ed7194cb9303f1baa5,2022-06-04_23h50.58.983,Colour_Asymmetry_Pilot,2022.1.3,Win32,60.24459305,629c4b6caf241d5e6e00bfc0,0,139,139,80,1,onetwo,,,,,,,,,,,,,,,,,,,,,,,,,,,,,,,,,,,,,,,,,,,,,,,,,,,,,,,,,,,,,,,,,,,,,,,,,,,,,,,,,,,,,,,,,,,,,,,,,,,,,,,,,,,,,,,,,,,,,,,,,,,,,,,,,,,,,,,,,,,,,
,,,,,,613c542c957161802d700fb2,629c51ed7194cb9303f1baa5,2022-06-04_23h50.58.983,Colour_Asymmetry_Pilot,2022.1.3,Win32,60.24459305,629c4b6caf241d5e6e00bfc0,0,140,140,20,1,threeone,,,,,,,,,,,,,,,,,,,,,,,,,,,,,,,,,,,,,,,,,,,,,,,,,,,,,,,,,,,,,,,,,,,,,,,,,,,,,,,,,,,,,,,,,,,,,,,,,,,,,,,,,,,,,,,,,,,,,,,,,,,,,,,,,,,,,,,,,,,,,
,,,,,,613c542c957161802d700fb2,629c51ed7194cb9303f1baa5,2022-06-04_23h50.58.983,Colour_Asymmetry_Pilot,2022.1.3,Win32,60.24459305,629c4b6caf241d5e6e00bfc0,0,141,141,27,1,twofour,,,,,,,,,,,,,,,,,,,,,,,,,,,,,,,,,,,,,,,,,,,,,,,,,,,,,,,,,,,,,,,,,,,,,,,,,,,,,,,,,,,,,,,,,,,,,,,,,,,,,,,,,,,,,,,,,,,,,,,,,,,,,,,,,,,,,,,,,,,,,
,,,,,,613c542c957161802d700fb2,629c51ed7194cb9303f1baa5,2022-06-04_23h50.58.983,Colour_Asymmetry_Pilot,2022.1.3,Win32,60.24459305,629c4b6caf241d5e6e00bfc0,0,142,142,92,1,threeone,,,,,,,,,,,,,,,,,,,,,,,,,,,,,,,,,,,,,,,,,,,,,,,,,,,,,,,,,,,,,,,,,,,,,,,,,,,,,,,,,,,,,,,,,,,,,,,,,,,,,,,,,,,,,,,,,,,,,,,,,,,,,,,,,,,,,,,,,,,,,
,,,,,,613c542c957161802d700fb2,629c51ed7194cb9303f1baa5,2022-06-04_23h50.58.983,Colour_Asymmetry_Pilot,2022.1.3,Win32,60.24459305,629c4b6caf241d5e6e00bfc0,0,143,143,55,1,fourthree,,,,,,,,,,,,,,,,,,,,,,,,,,,,,,,,,,,,,,,,,,,,,,,,,,,,,,,,,,,,,,,,,,,,,,,,,,,,,,,,,,,,,,,,,,,,,,,,,,,,,,,,,,,,,,,,,,,,,,,,,,,,,,,,,,,,,,,,,,,,,
,,,,,,613c542c957161802d700fb2,629c51ed7194cb9303f1baa5,2022-06-04_23h50.58.983,Colour_Asymmetry_Pilot,2022.1.3,Win32,60.24459305,629c4b6caf241d5e6e00bfc0,0,144,144,2,1,twoone,,,,,,,,,,,,,,,,,,,,,,,,,,,,,,,,,,,,,,,,,,,,,,,,,,,,,,,,,,,,,,,,,,,,,,,,,,,,,,,,,,,,,,,,,,,,,,,,,,,,,,,,,,,,,,,,,,,,,,,,,,,,,,,,,,,,,,,,,,,,,
,,,,,,613c542c957161802d700fb2,629c51ed7194cb9303f1baa5,2022-06-04_23h50.58.983,Colour_Asymmetry_Pilot,2022.1.3,Win32,60.24459305,629c4b6caf241d5e6e00bfc0,0,145,145,131,1,twofour,,,,,,,,,,,,,,,,,,,,,,,,,,,,,,,,,,,,,,,,,,,,,,,,,,,,,,,,,,,,,,,,,,,,,,,,,,,,,,,,,,,,,,,,,,,,,,,,,,,,,,,,,,,,,,,,,,,,,,,,,,,,,,,,,,,,,,,,,,,,,
,,,,,,613c542c957161802d700fb2,629c51ed7194cb9303f1baa5,2022-06-04_23h50.58.983,Colour_Asymmetry_Pilot,2022.1.3,Win32,60.24459305,629c4b6caf241d5e6e00bfc0,0,146,146,66,1,twoone,,,,,,,,,,,,,,,,,,,,,,,,,,,,,,,,,,,,,,,,,,,,,,,,,,,,,,,,,,,,,,,,,,,,,,,,,,,,,,,,,,,,,,,,,,,,,,,,,,,,,,,,,,,,,,,,,,,,,,,,,,,,,,,,,,,,,,,,,,,,,
,,,,,,613c542c957161802d700fb2,629c51ed7194cb9303f1baa5,2022-06-04_23h50.58.983,Colour_Asymmetry_Pilot,2022.1.3,Win32,60.24459305,629c4b6caf241d5e6e00bfc0,0,147,147,74,1,twoone,,,,,,,,,,,,,,,,,,,,,,,,,,,,,,,,,,,,,,,,,,,,,,,,,,,,,,,,,,,,,,,,,,,,,,,,,,,,,,,,,,,,,,,,,,,,,,,,,,,,,,,,,,,,,,,,,,,,,,,,,,,,,,,,,,,,,,,,,,,,,
,,,,,,613c542c957161802d700fb2,629c51ed7194cb9303f1baa5,2022-06-04_23h50.58.983,Colour_Asymmetry_Pilot,2022.1.3,Win32,60.24459305,629c4b6caf241d5e6e00bfc0,0,148,148,112,1,onetwo,,,,,,,,,,,,,,,,,,,,,,,,,,,,,,,,,,,,,,,,,,,,,,,,,,,,,,,,,,,,,,,,,,,,,,,,,,,,,,,,,,,,,,,,,,,,,,,,,,,,,,,,,,,,,,,,,,,,,,,,,,,,,,,,,,,,,,,,,,,,,
,,,,,,613c542c957161802d700fb2,629c51ed7194cb9303f1baa5,2022-06-04_23h50.58.983,Colour_Asymmetry_Pilot,2022.1.3,Win32,60.24459305,629c4b6caf241d5e6e00bfc0,0,149,149,71,1,fourthree,,,,,,,,,,,,,,,,,,,,,,,,,,,,,,,,,,,,,,,,,,,,,,,,,,,,,,,,,,,,,,,,,,,,,,,,,,,,,,,,,,,,,,,,,,,,,,,,,,,,,,,,,,,,,,,,,,,,,,,,,,,,,,,,,,,,,,,,,,,,,
,,,,,,613c542c957161802d700fb2,629c51ed7194cb9303f1baa5,2022-06-04_23h50.58.983,Colour_Asymmetry_Pilot,2022.1.3,Win32,60.24459305,629c4b6caf241d5e6e00bfc0,0,150,150,144,1,onetwo,,,,,,,,,,,,,,,,,,,,,,,,,,,,,,,,,,,,,,,,,,,,,,,,,,,,,,,,,,,,,,,,,,,,,,,,,,,,,,,,,,,,,,,,,,,,,,,,,,,,,,,,,,,,,,,,,,,,,,,,,,,,,,,,,,,,,,,,,,,,,
,,,,,,613c542c957161802d700fb2,629c51ed7194cb9303f1baa5,2022-06-04_23h50.58.983,Colour_Asymmetry_Pilot,2022.1.3,Win32,60.24459305,629c4b6caf241d5e6e00bfc0,0,151,151,5,1,threefour,,,,,,,,,,,,,,,,,,,,,,,,,,,,,,,,,,,,,,,,,,,,,,,,,,,,,,,,,,,,,,,,,,,,,,,,,,,,,,,,,,,,,,,,,,,,,,,,,,,,,,,,,,,,,,,,,,,,,,,,,,,,,,,,,,,,,,,,,,,,,
,,,,,,613c542c957161802d700fb2,629c51ed7194cb9303f1baa5,2022-06-04_23h50.58.983,Colour_Asymmetry_Pilot,2022.1.3,Win32,60.24459305,629c4b6caf241d5e6e00bfc0,0,152,152,152,1,onetwo,,,,,,,,,,,,,,,,,,,,,,,,,,,,,,,,,,,,,,,,,,,,,,,,,,,,,,,,,,,,,,,,,,,,,,,,,,,,,,,,,,,,,,,,,,,,,,,,,,,,,,,,,,,,,,,,,,,,,,,,,,,,,,,,,,,,,,,,,,,,,
,,,,,,613c542c957161802d700fb2,629c51ed7194cb9303f1baa5,2022-06-04_23h50.58.983,Colour_Asymmetry_Pilot,2022.1.3,Win32,60.24459305,629c4b6caf241d5e6e00bfc0,0,153,153,98,1,twoone,,,,,,,,,,,,,,,,,,,,,,,,,,,,,,,,,,,,,,,,,,,,,,,,,,,,,,,,,,,,,,,,,,,,,,,,,,,,,,,,,,,,,,,,,,,,,,,,,,,,,,,,,,,,,,,,,,,,,,,,,,,,,,,,,,,,,,,,,,,,,
,,,,,,613c542c957161802d700fb2,629c51ed7194cb9303f1baa5,2022-06-04_23h50.58.983,Colour_Asymmetry_Pilot,2022.1.3,Win32,60.24459305,629c4b6caf241d5e6e00bfc0,0,154,154,147,1,twofour,,,,,,,,,,,,,,,,,,,,,,,,,,,,,,,,,,,,,,,,,,,,,,,,,,,,,,,,,,,,,,,,,,,,,,,,,,,,,,,,,,,,,,,,,,,,,,,,,,,,,,,,,,,,,,,,,,,,,,,,,,,,,,,,,,,,,,,,,,,,,
,,,,,,613c542c957161802d700fb2,629c51ed7194cb9303f1baa5,2022-06-04_23h50.58.983,Colour_Asymmetry_Pilot,2022.1.3,Win32,60.24459305,629c4b6caf241d5e6e00bfc0,0,155,155,58,1,twoone,,,,,,,,,,,,,,,,,,,,,,,,,,,,,,,,,,,,,,,,,,,,,,,,,,,,,,,,,,,,,,,,,,,,,,,,,,,,,,,,,,,,,,,,,,,,,,,,,,,,,,,,,,,,,,,,,,,,,,,,,,,,,,,,,,,,,,,,,,,,,
,,,,,,613c542c957161802d700fb2,629c51ed7194cb9303f1baa5,2022-06-04_23h50.58.983,Colour_Asymmetry_Pilot,2022.1.3,Win32,60.24459305,629c4b6caf241d5e6e00bfc0,0,156,156,134,1,fourtwo,,,,,,,,,,,,,,,,,,,,,,,,,,,,,,,,,,,,,,,,,,,,,,,,,,,,,,,,,,,,,,,,,,,,,,,,,,,,,,,,,,,,,,,,,,,,,,,,,,,,,,,,,,,,,,,,,,,,,,,,,,,,,,,,,,,,,,,,,,,,,
,,,,,,613c542c957161802d700fb2,629c51ed7194cb9303f1baa5,2022-06-04_23h50.58.983,Colour_Asymmetry_Pilot,2022.1.3,Win32,60.24459305,629c4b6caf241d5e6e00bfc0,0,157,157,83,1,twofour,,,,,,,,,,,,,,,,,,,,,,,,,,,,,,,,,,,,,,,,,,,,,,,,,,,,,,,,,,,,,,,,,,,,,,,,,,,,,,,,,,,,,,,,,,,,,,,,,,,,,,,,,,,,,,,,,,,,,,,,,,,,,,,,,,,,,,,,,,,,,
,,,,,,613c542c957161802d700fb2,629c51ed7194cb9303f1baa5,2022-06-04_23h50.58.983,Colour_Asymmetry_Pilot,2022.1.3,Win32,60.24459305,629c4b6caf241d5e6e00bfc0,0,158,158,104,1,onetwo,,,,,,,,,,,,,,,,,,,,,,,,,,,,,,,,,,,,,,,,,,,,,,,,,,,,,,,,,,,,,,,,,,,,,,,,,,,,,,,,,,,,,,,,,,,,,,,,,,,,,,,,,,,,,,,,,,,,,,,,,,,,,,,,,,,,,,,,,,,,,
,,,,,,613c542c957161802d700fb2,629c51ed7194cb9303f1baa5,2022-06-04_23h50.58.983,Colour_Asymmetry_Pilot,2022.1.3,Win32,60.24459305,629c4b6caf241d5e6e00bfc0,0,159,159,103,1,fourthree,,,,,,,,,,,,,,,,,,,,,,,,,,,,,,,,,,,,,,,,,,,,,,,,,,,,,,,,,,,,,,,,,,,,,,,,,,,,,,,,,,,,,,,,,,,,,,,,,,,,,,,,,,,,,,,,,,,,,,,,,,,,,,,,,,,,,,,,,,,,,
,,,,,,613c542c957161802d700fb2,629c51ed7194cb9303f1baa5,2022-06-04_23h50.58.983,Colour_Asymmetry_Pilot,2022.1.3,Win32,60.24459305,629c4b6caf241d5e6e00bfc0,0,160,160,15,1,fourthree,,,,,,,,,,,,,,,,,,,,,,,,,,,,,,,,,,,,,,,,,,,,,,,,,,,,,,,,,,,,,,,,,,,,,,,,,,,,,,,,,,,,,,,,,,,,,,,,,,,,,,,,,,,,,,,,,,,,,,,,,,,,,,,,,,,,,,,,,,,,,
,,,,,,613c542c957161802d700fb2,629c51ed7194cb9303f1baa5,2022-06-04_23h50.58.983,Colour_Asymmetry_Pilot,2022.1.3,Win32,60.24459305,629c4b6caf241d5e6e00bfc0,0,161,161,117,1,threefour,,,,,,,,,,,,,,,,,,,,,,,,,,,,,,,,,,,,,,,,,,,,,,,,,,,,,,,,,,,,,,,,,,,,,,,,,,,,,,,,,,,,,,,,,,,,,,,,,,,,,,,,,,,,,,,,,,,,,,,,,,,,,,,,,,,,,,,,,,,,,
,,,,,,613c542c957161802d700fb2,629c51ed7194cb9303f1baa5,2022-06-04_23h50.58.983,Colour_Asymmetry_Pilot,2022.1.3,Win32,60.24459305,629c4b6caf241d5e6e00bfc0,,,,,,,space,14.4306,space,16.1885,space,48.6486,space,20.5969,space,7.6271,space,6.3516,"[0.18419999999999992,-0.4276,-0.404]",fourthree,"[-0.9688,-0.38039999999999996,-0.41979999999999995]",-4,7.078,-42,62,1,0,0,response7disk_5,7,-3,1,0,0,rectangle_8,7,-3,1,0,0,3,7,-3,1,0,0,0,0,0,0,1,,,,,,,,,,,,,,,,,,,,,,,,,,,,,,,,,,,,,,,,,,,,,,,,,,,,,,,,,,,,,,,,,,,,,,,,,,,,,,,,,,,,,,,,,,,,,,,,
,,,,,,613c542c957161802d700fb2,629c51ed7194cb9303f1baa5,2022-06-04_23h50.58.983,Colour_Asymmetry_Pilot,2022.1.3,Win32,60.24459305,629c4b6caf241d5e6e00bfc0,,,,,,,,,,,,,,,,,,,"[0.4196,0.4665999999999999,0.3568]",twoone,"[-0.9688,-0.7412000000000001,-0.4902000000000001]",-4,2.7219,-45,55,1,0,0,response7disk_5,11,-2,1,0,0,rectangle_8,11,-2,1,0,0,3,11,-2,1,0,0,1,0,1,0,1,,,,,,,,,,,,,,,,,,,,,,,,,,,,,,,,,,,,,,,,,,,,,,,,,,,,,,,,,,,,,,,,,,,,,,,,,,,,,,,,,,,,,,,,,,,,,,,,
,,,,,,613c542c957161802d700fb2,629c51ed7194cb9303f1baa5,2022-06-04_23h50.58.983,Colour_Asymmetry_Pilot,2022.1.3,Win32,60.24459305,629c4b6caf241d5e6e00bfc0,,,,,,,,,,,,,,,,,,,"[0.09799999999999986,-0.24719999999999998,0.15280000000000005]",fourtwo,"[-0.9688,-0.38039999999999996,-0.41979999999999995]",-4,3.0816,-41,63,1,0,0,response7disk_5,-4,3,1,0,0,rectangle_8,84,39,1,0,0,3,1,-1,1,0,0,2,0,2,0,1,response1disk_7,6,rectangle_4,,,,,,,,,,,,,,,,,,,,,,,,,,,,,,,,,,,,,,,,,,,,,,,,,,,,,,,,,,,,,,,,,,,,,,,,,,,,,,,,,,,,,,,,,,,,,
,,,,,,613c542c957161802d700fb2,629c51ed7194cb9303f1baa5,2022-06-04_23h50.58.983,Colour_Asymmetry_Pilot,2022.1.3,Win32,60.24459305,629c4b6caf241d5e6e00bfc0,,,,,,,,,,,,,,,,,,,"[-0.5688,-0.08239999999999992,-0.1844]",twofour,"[-0.011800000000000033,-0.906,-0.45100000000000007]",-4,0.9566,-25,65,1,0,0,response7disk_5,-3,-3,1,0,0,rectangle_8,-3,-3,1,0,0,3,-3,-3,1,0,0,3,0,3,0,1,,,,,,,,,,,,,,,,,,,,,,,,,,,,,,,,,,,,,,,,,,,,,,,,,,,,,,,,,,,,,,,,,,,,,,,,,,,,,,,,,,,,,,,,,,,,,,,,
,,,,,,613c542c957161802d700fb2,629c51ed7194cb9303f1baa5,2022-06-04_23h50.58.983,Colour_Asymmetry_Pilot,2022.1.3,Win32,60.24459305,629c4b6caf241d5e6e00bfc0,,,,,,,,,,,,,,,,,,,"[-0.5452,-0.608,0.2470000000000001]",twoone,"[0.9372,0.9450000000000001,0.8980000000000001]",-4,1.0598,-27,66,1,0,0,response7disk_5,3,-11,1,0,0,rectangle_8,-63,25,1,0,0,3,-3,-2,1,0,0,4,0,4,0,1,response7disk_7,1,rectangle_4,,,,,,,,,,,,,,,,,,,,,,,,,,,,,,,,,,,,,,,,,,,,,,,,,,,,,,,,,,,,,,,,,,,,,,,,,,,,,,,,,,,,,,,,,,,,,
,,,,,,613c542c957161802d700fb2,629c51ed7194cb9303f1baa5,2022-06-04_23h50.58.983,Colour_Asymmetry_Pilot,2022.1.3,Win32,60.24459305,629c4b6caf241d5e6e00bfc0,,,,,,,,,,,,,,,,,,,"[-0.4982,-0.2942,-0.0354000000000001]",onetwo,"[0.2784,-0.31000000000000005,-0.5452]",-4,0.7529,-36,69,1,0,0,response7disk_5,0,-9,1,0,0,rectangle_8,0,-9,1,0,0,3,0,-9,1,0,0,5,0,5,0,1,,,,,,,,,,,,,,,,,,,,,,,,,,,,,,,,,,,,,,,,,,,,,,,,,,,,,,,,,,,,,,,,,,,,,,,,,,,,,,,,,,,,,,,,,,,,,,,,
,,,,,,613c542c957161802d700fb2,629c51ed7194cb9303f1baa5,2022-06-04_23h50.58.983,Colour_Asymmetry_Pilot,2022.1.3,Win32,60.24459305,629c4b6caf241d5e6e00bfc0,,,,,,,,,,,,,,,,,,,"[0.6547999999999998,-0.043199999999999905,-0.011800000000000033]",threefour,"[0.3802000000000001,0.19199999999999995,-0.6394]",-2,9.3859,-82,-49,1,0,0,response5disk_5,2,2,1,0,0,rectangle_8,2,2,1,0,0,3,2,2,1,0,0,6,0,6,0,1,,,,,,,,,,,,,,,,,,,,,,,,,,,,,,,,,,,,,,,,,,,,,,,,,,,,,,,,,,,,,,,,,,,,,,,,,,,,,,,,,,,,,,,,,,,,,,,,
,,,,,,613c542c957161802d700fb2,629c51ed7194cb9303f1baa5,2022-06-04_23h50.58.983,Colour_Asymmetry_Pilot,2022.1.3,Win32,60.24459305,629c4b6caf241d5e6e00bfc0,,,,,,,,,,,,,,,,,,,,twoone,,2,2.2188,,,,,,,,,,,,,,,,,,,,,,,,,,,,,,,,space,33.3705,"[-0.9766,-0.6472,0.07440000000000002]","[-0.6235999999999999,-0.6786,-0.08239999999999992]",85,-36,1,0,0,response3disk,8,-3,1,0,0,rectangle,8,-3,1,0,0,,2,0.0065,0,8,-3,1,0,0,0,0,0,68,1,68,first,,,,,,,,,,,,,,,,,,,,,,,,,,,,,,,,,,,,,,,,,,,,,,,,,,,,,,,,
,,,,,,613c542c957161802d700fb2,629c51ed7194cb9303f1baa5,2022-06-04_23h50.58.983,Colour_Asymmetry_Pilot,2022.1.3,Win32,60.24459305,629c4b6caf241d5e6e00bfc0,,,,,,,,,,,,,,,,,,,,onetwo,,-3,0.9896,,,,,,,,,,,,,,,,,,,,,,,,,,,,,,,,,,"[0.3568,-0.20799999999999996,-0.9844]","[0.09799999999999986,-0.24719999999999998,0.15280000000000005]",-66,41,1,0,0,response7disk,0,-3,1,0,0,rectangle,0,-3,1,0,0,,1,0.0018,0,0,-3,1,0,0,0,1,1,79,1,79,first,,,,,,,,,,,,,,,,,,,,,,,,,,,,,,,,,,,,,,,,,,,,,,,,,,,,,,,,
,,,,,,613c542c957161802d700fb2,629c51ed7194cb9303f1baa5,2022-06-04_23h50.58.983,Colour_Asymmetry_Pilot,2022.1.3,Win32,60.24459305,629c4b6caf241d5e6e00bfc0,,,,,,,,,,,,,,,,,,,,onetwo,,-4,0.9912,,,,,,,,,,,,,,,,,,,,,,,,,,,,,,,,,,"[-0.26280000000000003,-0.4746,-0.2158]","[0.7176,-0.906,-0.6864]",-35,59,1,0,0,response7disk,14,-5,1,0,0,rectangle,14,-5,1,0,0,,3,0.003,0,14,-5,1,0,0,0,2,2,94,1,13,second,,,,,,,,,,,,,,,,,,,,,,,,,,,,,,,,,,,,,,,,,,,,,,,,,,,,,,,,
,,,,,,613c542c957161802d700fb2,629c51ed7194cb9303f1baa5,2022-06-04_23h50.58.983,Colour_Asymmetry_Pilot,2022.1.3,Win32,60.24459305,629c4b6caf241d5e6e00bfc0,,,,,,,,,,,,,,,,,,,,fourthree,,-4,0.6713,,,,,,,,,,,,,,,,,,,,,,,,,,,,,,,,,,"[0.9686000000000001,0.3802000000000001,0.19999999999999996]","[-0.9766,-0.6472,0.07440000000000002]",-36,58,1,0,0,response7disk,-11,2,1,0,0,rectangle,-11,2,1,0,0,,2,0.0018,0,-11,2,1,0,0,0,3,3,105,1,24,second,,,,,,,,,,,,,,,,,,,,,,,,,,,,,,,,,,,,,,,,,,,,,,,,,,,,,,,,
,,,,,,613c542c957161802d700fb2,629c51ed7194cb9303f1baa5,2022-06-04_23h50.58.983,Colour_Asymmetry_Pilot,2022.1.3,Win32,60.24459305,629c4b6caf241d5e6e00bfc0,,,,,,,,,,,,,,,,,,,,twofour,,-2,1.8055,,,,,,,,,,,,,,,,,,,,,,,,,,,,,,,,,,"[-0.26280000000000003,-0.4746,-0.2158]","[-0.30200000000000005,0.14500000000000002,0.2784]",-76,-40,1,0,0,response5disk,4,8,1,0,0,rectangle,4,8,1,0,0,,1,0.0012,0,4,8,1,0,0,0,4,4,6,1,6,first,,,,,,,,,,,,,,,,,,,,,,,,,,,,,,,,,,,,,,,,,,,,,,,,,,,,,,,,
,,,,,,613c542c957161802d700fb2,629c51ed7194cb9303f1baa5,2022-06-04_23h50.58.983,Colour_Asymmetry_Pilot,2022.1.3,Win32,60.24459305,629c4b6caf241d5e6e00bfc0,,,,,,,,,,,,,,,,,,,,onetwo,,-3,0.7438,,,,,,,,,,,,,,,,,,,,,,,,,,,,,,,,,,"[-0.20799999999999996,-0.655,-0.01980000000000004]","[0.05879999999999996,0.2784,0.5841999999999998]",-79,28,1,0,0,response7disk,1,-5,1,0,0,rectangle,1,-5,1,0,0,,2,0.0023,0,1,-5,1,0,0,0,5,5,59,1,59,first,,,,,,,,,,,,,,,,,,,,,,,,,,,,,,,,,,,,,,,,,,,,,,,,,,,,,,,,
,,,,,,613c542c957161802d700fb2,629c51ed7194cb9303f1baa5,2022-06-04_23h50.58.983,Colour_Asymmetry_Pilot,2022.1.3,Win32,60.24459305,629c4b6caf241d5e6e00bfc0,,,,,,,,,,,,,,,,,,,,twofour,,-3,1.6219,,,,,,,,,,,,,,,,,,,,,,,,,,,,,,,,,,"[0.34099999999999997,0.12939999999999996,-0.9766]","[0.4196,0.4665999999999999,0.3568]",-63,42,1,0,0,response7disk,1,-6,1,0,0,rectangle,1,-6,1,0,0,,3,0.0017,0,1,-6,1,0,0,0,6,6,154,1,73,second,,,,,,,,,,,,,,,,,,,,,,,,,,,,,,,,,,,,,,,,,,,,,,,,,,,,,,,,
,,,,,,613c542c957161802d700fb2,629c51ed7194cb9303f1baa5,2022-06-04_23h50.58.983,Colour_Asymmetry_Pilot,2022.1.3,Win32,60.24459305,629c4b6caf241d5e6e00bfc0,,,,,,,,,,,,,,,,,,,,twoone,,-3,0.9862,,,,,,,,,,,,,,,,,,,,,,,,,,,,,,,,,,"[-0.5452,-0.608,0.2470000000000001]","[0.23120000000000007,-0.7726,-0.34120000000000006]",-85,37,1,0,0,response7disk,-5,-4,1,0,0,rectangle,-5,-4,1,0,0,,3,0.0002,0,-5,-4,1,0,0,0,7,7,3,1,3,first,,,,,,,,,,,,,,,,,,,,,,,,,,,,,,,,,,,,,,,,,,,,,,,,,,,,,,,,
,,,,,,613c542c957161802d700fb2,629c51ed7194cb9303f1baa5,2022-06-04_23h50.58.983,Colour_Asymmetry_Pilot,2022.1.3,Win32,60.24459305,629c4b6caf241d5e6e00bfc0,,,,,,,,,,,,,,,,,,,,onetwo,,-1,1.4521,,,,,,,,,,,,,,,,,,,,,,,,,,,,,,,,,,"[-0.01980000000000004,-0.5138,-0.38039999999999996]","[-0.26280000000000003,-0.2158,-0.3256]",-56,-85,1,0,0,response5disk,4,-3,1,0,0,rectangle,4,-3,1,0,0,,2,0.0013,0,4,-3,1,0,0,0,8,8,139,1,58,second,,,,,,,,,,,,,,,,,,,,,,,,,,,,,,,,,,,,,,,,,,,,,,,,,,,,,,,,
,,,,,,613c542c957161802d700fb2,629c51ed7194cb9303f1baa5,2022-06-04_23h50.58.983,Colour_Asymmetry_Pilot,2022.1.3,Win32,60.24459305,629c4b6caf241d5e6e00bfc0,,,,,,,,,,,,,,,,,,,,threeone,,-3,1.3022,,,,,,,,,,,,,,,,,,,,,,,,,,,,,,,,,,"[0.5528,0.7409999999999999,-0.71]","[0.6547999999999998,-0.043199999999999905,-0.011800000000000033]",-58,29,1,0,0,response7disk,-7,-8,1,0,0,rectangle,-7,-8,1,0,0,,3,0.0015,0,-7,-8,1,0,0,0,9,9,38,1,38,first,,,,,,,,,,,,,,,,,,,,,,,,,,,,,,,,,,,,,,,,,,,,,,,,,,,,,,,,
,,,,,,613c542c957161802d700fb2,629c51ed7194cb9303f1baa5,2022-06-04_23h50.58.983,Colour_Asymmetry_Pilot,2022.1.3,Win32,60.24459305,629c4b6caf241d5e6e00bfc0,,,,,,,,,,,,,,,,,,,,onethree,,1,0.9223,,,,,,,,,,,,,,,,,,,,,,,,,,,,,,,,,,"[0.23120000000000007,-0.7726,-0.34120000000000006]","[-0.050999999999999934,-0.6706000000000001,-0.804]",50,-77,1,0,0,response3disk,-1,3,1,0,0,rectangle,-1,3,1,0,0,,2,0.0015,0,-1,3,1,0,0,0,10,10,112,1,31,second,,,,,,,,,,,,,,,,,,,,,,,,,,,,,,,,,,,,,,,,,,,,,,,,,,,,,,,,
,,,,,,613c542c957161802d700fb2,629c51ed7194cb9303f1baa5,2022-06-04_23h50.58.983,Colour_Asymmetry_Pilot,2022.1.3,Win32,60.24459305,629c4b6caf241d5e6e00bfc0,,,,,,,,,,,,,,,,,,,,fourtwo,,-1,1.22,,,,,,,,,,,,,,,,,,,,,,,,,,,,,,,,,,"[0.05879999999999996,0.2784,0.5841999999999998]","[-0.26280000000000003,-0.4746,-0.2158]",-42,-75,1,0,0,response5disk,9,-1,1,0,0,rectangle,9,-1,1,0,0,,1,0.0013,0,9,-1,1,0,0,0,11,11,4,1,4,first,,,,,,,,,,,,,,,,,,,,,,,,,,,,,,,,,,,,,,,,,,,,,,,,,,,,,,,,
,,,,,,613c542c957161802d700fb2,629c51ed7194cb9303f1baa5,2022-06-04_23h50.58.983,Colour_Asymmetry_Pilot,2022.1.3,Win32,60.24459305,629c4b6caf241d5e6e00bfc0,,,,,,,,,,,,,,,,,,,,twoone,,1,1.1183,,,,,,,,,,,,,,,,,,,,,,,,,,,,,,,,,,"[0.0351999999999999,0.41159999999999997,0.0038000000000000256]","[0.796,0.2156,-0.27859999999999996]",52,-79,1,0,0,response3disk,10,1,1,0,0,rectangle,10,1,1,0,0,,1,0.0002,0,10,1,1,0,0,0,12,12,23,1,23,first,,,,,,,,,,,,,,,,,,,,,,,,,,,,,,,,,,,,,,,,,,,,,,,,,,,,,,,,
,,,,,,613c542c957161802d700fb2,629c51ed7194cb9303f1baa5,2022-06-04_23h50.58.983,Colour_Asymmetry_Pilot,2022.1.3,Win32,60.24459305,629c4b6caf241d5e6e00bfc0,,,,,,,,,,,,,,,,,,,,twoone,,-4,0.4687,,,,,,,,,,,,,,,,,,,,,,,,,,,,,,,,,,"[0.11359999999999992,0.6312,0.5213999999999999]","[-0.5922000000000001,-0.7492000000000001,-0.5296000000000001]",-25,58,1,0,0,response7disk,3,2,1,0,0,rectangle,3,2,1,0,0,,2,0.0022,0,3,2,1,0,0,0,13,13,138,1,57,second,,,,,,,,,,,,,,,,,,,,,,,,,,,,,,,,,,,,,,,,,,,,,,,,,,,,,,,,
,,,,,,613c542c957161802d700fb2,629c51ed7194cb9303f1baa5,2022-06-04_23h50.58.983,Colour_Asymmetry_Pilot,2022.1.3,Win32,60.24459305,629c4b6caf241d5e6e00bfc0,,,,,,,,,,,,,,,,,,,,threeone,,2,1.9516,,,,,,,,,,,,,,,,,,,,,,,,,,,,,,,,,,"[-0.09019999999999995,0.44300000000000006,0.5371999999999999]","[-0.24719999999999998,-0.0354000000000001,0.3175999999999999]",76,-31,1,0,0,response3disk,-6,0,1,0,0,rectangle,-6,0,1,0,0,,2,0.0012,0,-6,0,1,0,0,0,14,14,40,1,40,first,,,,,,,,,,,,,,,,,,,,,,,,,,,,,,,,,,,,,,,,,,,,,,,,,,,,,,,,
,,,,,,613c542c957161802d700fb2,629c51ed7194cb9303f1baa5,2022-06-04_23h50.58.983,Colour_Asymmetry_Pilot,2022.1.3,Win32,60.24459305,629c4b6caf241d5e6e00bfc0,,,,,,,,,,,,,,,,,,,,twoone,,1,0.7179,,,,,,,,,,,,,,,,,,,,,,,,,,,,,,,,,,"[0.2862,0.7802,0.3568]","[0.3881999999999999,-0.23939999999999995,-0.05040000000000011]",33,-58,1,0,0,response3disk,-5,-1,1,0,0,rectangle,-5,-1,1,0,0,,2,0.0002,0,-5,-1,1,0,0,0,15,15,82,1,1,second,,,,,,,,,,,,,,,,,,,,,,,,,,,,,,,,,,,,,,,,,,,,,,,,,,,,,,,,
,,,,,,613c542c957161802d700fb2,629c51ed7194cb9303f1baa5,2022-06-04_23h50.58.983,Colour_Asymmetry_Pilot,2022.1.3,Win32,60.24459305,629c4b6caf241d5e6e00bfc0,,,,,,,,,,,,,,,,,,,,fourtwo,,1,1.4728,,,,,,,,,,,,,,,,,,,,,,,,,,,,,,,,,,"[-0.01980000000000004,-0.5138,-0.38039999999999996]","[-0.6235999999999999,-0.6786,-0.08239999999999992]",68,-72,1,0,0,response3disk,-1,7,1,0,0,rectangle,-1,7,1,0,0,,1,0.0018,0,-1,7,1,0,0,0,16,16,116,1,35,second,,,,,,,,,,,,,,,,,,,,,,,,,,,,,,,,,,,,,,,,,,,,,,,,,,,,,,,,
,,,,,,613c542c957161802d700fb2,629c51ed7194cb9303f1baa5,2022-06-04_23h50.58.983,Colour_Asymmetry_Pilot,2022.1.3,Win32,60.24459305,629c4b6caf241d5e6e00bfc0,,,,,,,,,,,,,,,,,,,,onethree,,-2,0.8158,,,,,,,,,,,,,,,,,,,,,,,,,,,,,,,,,,"[-0.26280000000000003,-0.2158,-0.3256]","[-0.6,0.16860000000000008,0.44300000000000006]",-52,-21,1,0,0,response5disk,-3,-2,1,0,0,rectangle,-3,-2,1,0,0,,1,0.0003,0,-3,-2,1,0,0,0,17,17,96,1,15,second,,,,,,,,,,,,,,,,,,,,,,,,,,,,,,,,,,,,,,,,,,,,,,,,,,,,,,,,
,,,,,,613c542c957161802d700fb2,629c51ed7194cb9303f1baa5,2022-06-04_23h50.58.983,Colour_Asymmetry_Pilot,2022.1.3,Win32,60.24459305,629c4b6caf241d5e6e00bfc0,,,,,,,,,,,,,,,,,,,,fourtwo,,-3,3.1473,,,,,,,,,,,,,,,,,,,,,,,,,,,,,,,,,,"[0.9686000000000001,0.3802000000000001,0.19999999999999996]","[-0.07459999999999989,0.12139999999999995,-0.9922]",-64,28,1,0,0,response7disk,-10,-2,1,0,0,rectangle,-10,-2,1,0,0,,1,0.0002,0,-10,-2,1,0,0,0,18,18,39,1,39,first,,,,,,,,,,,,,,,,,,,,,,,,,,,,,,,,,,,,,,,,,,,,,,,,,,,,,,,,
,,,,,,613c542c957161802d700fb2,629c51ed7194cb9303f1baa5,2022-06-04_23h50.58.983,Colour_Asymmetry_Pilot,2022.1.3,Win32,60.24459305,629c4b6caf241d5e6e00bfc0,,,,,,,,,,,,,,,,,,,,threefour,,1,1.8983,,,,,,,,,,,,,,,,,,,,,,,,,,,,,,,,,,"[-0.24719999999999998,-0.0354000000000001,0.3175999999999999]","[-0.09019999999999995,0.44300000000000006,0.5371999999999999]",49,-82,1,0,0,response3disk,2,-4,1,0,0,rectangle,2,-4,1,0,0,,3,0.0016,0,2,-4,1,0,0,0,19,19,121,1,40,second,,,,,,,,,,,,,,,,,,,,,,,,,,,,,,,,,,,,,,,,,,,,,,,,,,,,,,,,
,,,,,,613c542c957161802d700fb2,629c51ed7194cb9303f1baa5,2022-06-04_23h50.58.983,Colour_Asymmetry_Pilot,2022.1.3,Win32,60.24459305,629c4b6caf241d5e6e00bfc0,,,,,,,,,,,,,,,,,,,,fourthree,,-2,1.4711,,,,,,,,,,,,,,,,,,,,,,,,,,,,,,,,,,"[0.23920000000000008,0.2704,0.16060000000000008]","[0.18419999999999992,-0.4276,-0.404]",-83,-35,1,0,0,response5disk,4,-7,1,0,0,rectangle,4,-7,1,0,0,,1,0.0013,0,4,-7,1,0,0,0,20,20,62,1,62,first,,,,,,,,,,,,,,,,,,,,,,,,,,,,,,,,,,,,,,,,,,,,,,,,,,,,,,,,
,,,,,,613c542c957161802d700fb2,629c51ed7194cb9303f1baa5,2022-06-04_23h50.58.983,Colour_Asymmetry_Pilot,2022.1.3,Win32,60.24459305,629c4b6caf241d5e6e00bfc0,,,,,,,,,,,,,,,,,,,,threefour,,-2,0.4844,,,,,,,,,,,,,,,,,,,,,,,,,,,,,,,,,,"[0.18419999999999992,-0.4276,-0.404]","[0.23920000000000008,0.2704,0.16060000000000008]",-61,-33,1,0,0,response5disk,-7,-13,1,0,0,rectangle,-7,-13,1,0,0,,3,0.0015,0,-7,-13,1,0,0,0,21,21,143,1,62,second,,,,,,,,,,,,,,,,,,,,,,,,,,,,,,,,,,,,,,,,,,,,,,,,,,,,,,,,
,,,,,,613c542c957161802d700fb2,629c51ed7194cb9303f1baa5,2022-06-04_23h50.58.983,Colour_Asymmetry_Pilot,2022.1.3,Win32,60.24459305,629c4b6caf241d5e6e00bfc0,,,,,,,,,,,,,,,,,,,,twofour,,-3,2.3831,,,,,,,,,,,,,,,,,,,,,,,,,,,,,,,,,,"[-0.26280000000000003,-0.4746,-0.2158]","[0.9686000000000001,0.3802000000000001,0.19999999999999996]",-55,28,1,0,0,response7disk,12,-5,1,0,0,rectangle,12,-5,1,0,0,,3,0.0003,0,12,-5,1,0,0,0,22,22,30,1,30,first,,,,,,,,,,,,,,,,,,,,,,,,,,,,,,,,,,,,,,,,,,,,,,,,,,,,,,,,
,,,,,,613c542c957161802d700fb2,629c51ed7194cb9303f1baa5,2022-06-04_23h50.58.983,Colour_Asymmetry_Pilot,2022.1.3,Win32,60.24459305,629c4b6caf241d5e6e00bfc0,,,,,,,,,,,,,,,,,,,,fourtwo,,1,0.7216,,,,,,,,,,,,,,,,,,,,,,,,,,,,,,,,,,"[-0.6,0.16860000000000008,0.44300000000000006]","[-0.9138,-0.5296000000000001,-0.5529999999999999]",60,-82,1,0,0,response3disk,-5,-5,1,0,0,rectangle,-5,-5,1,0,0,,1,0.0015,0,-5,-5,1,0,0,0,23,23,27,1,27,first,,,,,,,,,,,,,,,,,,,,,,,,,,,,,,,,,,,,,,,,,,,,,,,,,,,,,,,,
,,,,,,613c542c957161802d700fb2,629c51ed7194cb9303f1baa5,2022-06-04_23h50.58.983,Colour_Asymmetry_Pilot,2022.1.3,Win32,60.24459305,629c4b6caf241d5e6e00bfc0,,,,,,,,,,,,,,,,,,,,onethree,,3,0.6312,,,,,,,,,,,,,,,,,,,,,,,,,,,,,,,,,,"[0.7646000000000002,0.07440000000000002,0.2704]","[0.9686000000000001,0.3802000000000001,0.19999999999999996]",58,26,1,0,0,response1disk,9,0,1,0,0,rectangle,9,0,1,0,0,,3,0.0016,0,9,0,1,0,0,0,24,24,146,1,65,second,,,,,,,,,,,,,,,,,,,,,,,,,,,,,,,,,,,,,,,,,,,,,,,,,,,,,,,,
,,,,,,613c542c957161802d700fb2,629c51ed7194cb9303f1baa5,2022-06-04_23h50.58.983,Colour_Asymmetry_Pilot,2022.1.3,Win32,60.24459305,629c4b6caf241d5e6e00bfc0,,,,,,,,,,,,,,,,,,,,onethree,,-4,0.4861,,,,,,,,,,,,,,,,,,,,,,,,,,,,,,,,,,"[-0.5688,-0.08239999999999992,-0.1844]","[0.23120000000000007,-0.7726,-0.34120000000000006]",-43,65,1,0,0,response7disk,-6,1,1,0,0,rectangle,77,-35,1,0,0,2,2,3.2635,1,-9,3,1,0,0,0,25,25,76,1,76,first,response3disk_3,rectangle,,,,,,,,,,,,,,,,,,,,,,,,,,,,,,,,,,,,,,,,,,,,,,,,,,,,,,
,,,,,,613c542c957161802d700fb2,629c51ed7194cb9303f1baa5,2022-06-04_23h50.58.983,Colour_Asymmetry_Pilot,2022.1.3,Win32,60.24459305,629c4b6caf241d5e6e00bfc0,,,,,,,,,,,,,,,,,,,,twofour,,1,0.4812,,,,,,,,,,,,,,,,,,,,,,,,,,,,,,,,,,"[-0.24719999999999998,-0.0354000000000001,0.3175999999999999]","[-0.9766,-0.6472,0.07440000000000002]",39,-72,1,0,0,response3disk,-10,6,1,0,0,rectangle,-10,6,1,0,0,2,1,0.0063,0,-10,6,1,0,0,0,26,26,69,1,69,first,,,,,,,,,,,,,,,,,,,,,,,,,,,,,,,,,,,,,,,,,,,,,,,,,,,,,,,,
,,,,,,613c542c957161802d700fb2,629c51ed7194cb9303f1baa5,2022-06-04_23h50.58.983,Colour_Asymmetry_Pilot,2022.1.3,Win32,60.24459305,629c4b6caf241d5e6e00bfc0,,,,,,,,,,,,,,,,,,,,fourtwo,,4,0.5457,,,,,,,,,,,,,,,,,,,,,,,,,,,,,,,,,,"[0.7646000000000002,0.07440000000000002,0.2704]","[0.9372,0.20779999999999998,0.2704]",48,84,1,0,0,response1disk,9,6,1,0,0,rectangle,9,6,1,0,0,2,2,0.0014,0,9,6,1,0,0,0,27,27,74,1,74,first,,,,,,,,,,,,,,,,,,,,,,,,,,,,,,,,,,,,,,,,,,,,,,,,,,,,,,,,
