trials.thisRepN,trials.thisTrialN,trials.thisN,trials.thisIndex,trials.ran,Colourcodes,participant,session,date,expName,psychopyVersion,OS,frameRate,study_id,trials_4.thisRepN,trials_4.thisTrialN,trials_4.thisN,trials_4.thisIndex,trials_4.ran,StimulusPos,key_resp.keys,key_resp.rt,key_resp_2.keys,key_resp_2.rt,key_resp_15.keys,key_resp_15.rt,key_resp_17.keys,key_resp_17.rt,key_resp_9.keys,key_resp_9.rt,key_resp_10.keys,key_resp_10.rt,Circle1_col,Ecc,Circle2_col,similarity,response_time,mouse_5.x,mouse_5.y,mouse_5.leftButton,mouse_5.midButton,mouse_5.rightButton,mouse_5.clicked_name,mouse_10.x,mouse_10.y,mouse_10.leftButton,mouse_10.midButton,mouse_10.rightButton,mouse_10.clicked_name,mouse_7.x,mouse_7.y,mouse_7.leftButton,mouse_7.midButton,mouse_7.rightButton,catchnumberprac,mouse_6.x,mouse_6.y,mouse_6.leftButton,mouse_6.midButton,mouse_6.rightButton,duringprac.thisRepN,duringprac.thisTrialN,duringprac.thisN,duringprac.thisIndex,duringprac.ran,mouse_7.clicked_name,catchprac,mouse_6.clicked_name,key_resp_22.keys,key_resp_22.rt,Circle1_colour,Circle2_colour,mouse.x,mouse.y,mouse.leftButton,mouse.midButton,mouse.rightButton,mouse.clicked_name,mouse_2.x,mouse_2.y,mouse_2.leftButton,mouse_2.midButton,mouse_2.rightButton,mouse_2.clicked_name,mouse_3.x,mouse_3.y,mouse_3.leftButton,mouse_3.midButton,mouse_3.rightButton,catchresponse,catchnumber,response_time_catch,Catch,mouse_11.x,mouse_11.y,mouse_11.leftButton,mouse_11.midButton,mouse_11.rightButton,trials_2.thisRepN,trials_2.thisTrialN,trials_2.thisN,trials_2.thisIndex,trials_2.ran,Colourpair,Temporder,mouse_3.clicked_name,mouse_11.clicked_name,trials_3.thisRepN,trials_3.thisTrialN,trials_3.thisN,trials_3.thisIndex,trials_3.ran,textbox.text,mouse_4.x,mouse_4.y,mouse_4.leftButton,mouse_4.midButton,mouse_4.rightButton,mouse_4.clicked_name,textbox_2.text,mouse_8.x,mouse_8.y,mouse_8.leftButton,mouse_8.midButton,mouse_8.rightButton,mouse_8.clicked_name,textbox_3.text,mouse_9.x,mouse_9.y,mouse_9.leftButton,mouse_9.midButton,mouse_9.rightButton,mouse_9.clicked_name,textbox_4.text,mouse_12.x,mouse_12.y,mouse_12.leftButton,mouse_12.midButton,mouse_12.rightButton,mouse_12.clicked_name,textbox_5.text,mouse_13.x,mouse_13.y,mouse_13.leftButton,mouse_13.midButton,mouse_13.rightButton,mouse_13.clicked_name,textbox_6.text,mouse_14.x,mouse_14.y,mouse_14.leftButton,mouse_14.midButton,mouse_14.rightButton,mouse_14.clicked_name,textbox_7.text,mouse_15.x,mouse_15.y,mouse_15.leftButton,mouse_15.midButton,mouse_15.rightButton,mouse_15.clicked_name
0,0,0,25,1,,5fa48feaddfbd812de13f3bb,629c52427194cb9303f1baa8,2022-06-05_08h58.11.819,Colour_Asymmetry_Pilot,2022.1.3,Win32,62.08866261,629c4b6caf241d5e6e00bfc0,,,,,,,,,,,,,,,,,,,,,,,,,,,,,,,,,,,,,,,,,,,,,,,,,,,,,,,,,,,,,,,,,,,,,,,,,,,,,,,,,,,,,,,,,,,,,,,,,,,,,,,,,,,,,,,,,,,,,,,,,,,,,,,,,,,,,,,,,,,,,,,,,,,
0,1,1,84,1,,5fa48feaddfbd812de13f3bb,629c52427194cb9303f1baa8,2022-06-05_08h58.11.819,Colour_Asymmetry_Pilot,2022.1.3,Win32,62.08866261,629c4b6caf241d5e6e00bfc0,,,,,,,,,,,,,,,,,,,,,,,,,,,,,,,,,,,,,,,,,,,,,,,,,,,,,,,,,,,,,,,,,,,,,,,,,,,,,,,,,,,,,,,,,,,,,,,,,,,,,,,,,,,,,,,,,,,,,,,,,,,,,,,,,,,,,,,,,,,,,,,,,,,
0,2,2,18,1,,5fa48feaddfbd812de13f3bb,629c52427194cb9303f1baa8,2022-06-05_08h58.11.819,Colour_Asymmetry_Pilot,2022.1.3,Win32,62.08866261,629c4b6caf241d5e6e00bfc0,,,,,,,,,,,,,,,,,,,,,,,,,,,,,,,,,,,,,,,,,,,,,,,,,,,,,,,,,,,,,,,,,,,,,,,,,,,,,,,,,,,,,,,,,,,,,,,,,,,,,,,,,,,,,,,,,,,,,,,,,,,,,,,,,,,,,,,,,,,,,,,,,,,
0,3,3,67,1,,5fa48feaddfbd812de13f3bb,629c52427194cb9303f1baa8,2022-06-05_08h58.11.819,Colour_Asymmetry_Pilot,2022.1.3,Win32,62.08866261,629c4b6caf241d5e6e00bfc0,,,,,,,,,,,,,,,,,,,,,,,,,,,,,,,,,,,,,,,,,,,,,,,,,,,,,,,,,,,,,,,,,,,,,,,,,,,,,,,,,,,,,,,,,,,,,,,,,,,,,,,,,,,,,,,,,,,,,,,,,,,,,,,,,,,,,,,,,,,,,,,,,,,
0,4,4,26,1,,5fa48feaddfbd812de13f3bb,629c52427194cb9303f1baa8,2022-06-05_08h58.11.819,Colour_Asymmetry_Pilot,2022.1.3,Win32,62.08866261,629c4b6caf241d5e6e00bfc0,,,,,,,,,,,,,,,,,,,,,,,,,,,,,,,,,,,,,,,,,,,,,,,,,,,,,,,,,,,,,,,,,,,,,,,,,,,,,,,,,,,,,,,,,,,,,,,,,,,,,,,,,,,,,,,,,,,,,,,,,,,,,,,,,,,,,,,,,,,,,,,,,,,
0,5,5,21,1,,5fa48feaddfbd812de13f3bb,629c52427194cb9303f1baa8,2022-06-05_08h58.11.819,Colour_Asymmetry_Pilot,2022.1.3,Win32,62.08866261,629c4b6caf241d5e6e00bfc0,,,,,,,,,,,,,,,,,,,,,,,,,,,,,,,,,,,,,,,,,,,,,,,,,,,,,,,,,,,,,,,,,,,,,,,,,,,,,,,,,,,,,,,,,,,,,,,,,,,,,,,,,,,,,,,,,,,,,,,,,,,,,,,,,,,,,,,,,,,,,,,,,,,
0,6,6,43,1,,5fa48feaddfbd812de13f3bb,629c52427194cb9303f1baa8,2022-06-05_08h58.11.819,Colour_Asymmetry_Pilot,2022.1.3,Win32,62.08866261,629c4b6caf241d5e6e00bfc0,,,,,,,,,,,,,,,,,,,,,,,,,,,,,,,,,,,,,,,,,,,,,,,,,,,,,,,,,,,,,,,,,,,,,,,,,,,,,,,,,,,,,,,,,,,,,,,,,,,,,,,,,,,,,,,,,,,,,,,,,,,,,,,,,,,,,,,,,,,,,,,,,,,
0,7,7,12,1,,5fa48feaddfbd812de13f3bb,629c52427194cb9303f1baa8,2022-06-05_08h58.11.819,Colour_Asymmetry_Pilot,2022.1.3,Win32,62.08866261,629c4b6caf241d5e6e00bfc0,,,,,,,,,,,,,,,,,,,,,,,,,,,,,,,,,,,,,,,,,,,,,,,,,,,,,,,,,,,,,,,,,,,,,,,,,,,,,,,,,,,,,,,,,,,,,,,,,,,,,,,,,,,,,,,,,,,,,,,,,,,,,,,,,,,,,,,,,,,,,,,,,,,
0,8,8,61,1,,5fa48feaddfbd812de13f3bb,629c52427194cb9303f1baa8,2022-06-05_08h58.11.819,Colour_Asymmetry_Pilot,2022.1.3,Win32,62.08866261,629c4b6caf241d5e6e00bfc0,,,,,,,,,,,,,,,,,,,,,,,,,,,,,,,,,,,,,,,,,,,,,,,,,,,,,,,,,,,,,,,,,,,,,,,,,,,,,,,,,,,,,,,,,,,,,,,,,,,,,,,,,,,,,,,,,,,,,,,,,,,,,,,,,,,,,,,,,,,,,,,,,,,
0,9,9,4,1,,5fa48feaddfbd812de13f3bb,629c52427194cb9303f1baa8,2022-06-05_08h58.11.819,Colour_Asymmetry_Pilot,2022.1.3,Win32,62.08866261,629c4b6caf241d5e6e00bfc0,,,,,,,,,,,,,,,,,,,,,,,,,,,,,,,,,,,,,,,,,,,,,,,,,,,,,,,,,,,,,,,,,,,,,,,,,,,,,,,,,,,,,,,,,,,,,,,,,,,,,,,,,,,,,,,,,,,,,,,,,,,,,,,,,,,,,,,,,,,,,,,,,,,
0,10,10,10,1,,5fa48feaddfbd812de13f3bb,629c52427194cb9303f1baa8,2022-06-05_08h58.11.819,Colour_Asymmetry_Pilot,2022.1.3,Win32,62.08866261,629c4b6caf241d5e6e00bfc0,,,,,,,,,,,,,,,,,,,,,,,,,,,,,,,,,,,,,,,,,,,,,,,,,,,,,,,,,,,,,,,,,,,,,,,,,,,,,,,,,,,,,,,,,,,,,,,,,,,,,,,,,,,,,,,,,,,,,,,,,,,,,,,,,,,,,,,,,,,,,,,,,,,
0,11,11,8,1,,5fa48feaddfbd812de13f3bb,629c52427194cb9303f1baa8,2022-06-05_08h58.11.819,Colour_Asymmetry_Pilot,2022.1.3,Win32,62.08866261,629c4b6caf241d5e6e00bfc0,,,,,,,,,,,,,,,,,,,,,,,,,,,,,,,,,,,,,,,,,,,,,,,,,,,,,,,,,,,,,,,,,,,,,,,,,,,,,,,,,,,,,,,,,,,,,,,,,,,,,,,,,,,,,,,,,,,,,,,,,,,,,,,,,,,,,,,,,,,,,,,,,,,
0,12,12,80,1,,5fa48feaddfbd812de13f3bb,629c52427194cb9303f1baa8,2022-06-05_08h58.11.819,Colour_Asymmetry_Pilot,2022.1.3,Win32,62.08866261,629c4b6caf241d5e6e00bfc0,,,,,,,,,,,,,,,,,,,,,,,,,,,,,,,,,,,,,,,,,,,,,,,,,,,,,,,,,,,,,,,,,,,,,,,,,,,,,,,,,,,,,,,,,,,,,,,,,,,,,,,,,,,,,,,,,,,,,,,,,,,,,,,,,,,,,,,,,,,,,,,,,,,
0,13,13,2,1,,5fa48feaddfbd812de13f3bb,629c52427194cb9303f1baa8,2022-06-05_08h58.11.819,Colour_Asymmetry_Pilot,2022.1.3,Win32,62.08866261,629c4b6caf241d5e6e00bfc0,,,,,,,,,,,,,,,,,,,,,,,,,,,,,,,,,,,,,,,,,,,,,,,,,,,,,,,,,,,,,,,,,,,,,,,,,,,,,,,,,,,,,,,,,,,,,,,,,,,,,,,,,,,,,,,,,,,,,,,,,,,,,,,,,,,,,,,,,,,,,,,,,,,
0,14,14,60,1,,5fa48feaddfbd812de13f3bb,629c52427194cb9303f1baa8,2022-06-05_08h58.11.819,Colour_Asymmetry_Pilot,2022.1.3,Win32,62.08866261,629c4b6caf241d5e6e00bfc0,,,,,,,,,,,,,,,,,,,,,,,,,,,,,,,,,,,,,,,,,,,,,,,,,,,,,,,,,,,,,,,,,,,,,,,,,,,,,,,,,,,,,,,,,,,,,,,,,,,,,,,,,,,,,,,,,,,,,,,,,,,,,,,,,,,,,,,,,,,,,,,,,,,
0,15,15,35,1,,5fa48feaddfbd812de13f3bb,629c52427194cb9303f1baa8,2022-06-05_08h58.11.819,Colour_Asymmetry_Pilot,2022.1.3,Win32,62.08866261,629c4b6caf241d5e6e00bfc0,,,,,,,,,,,,,,,,,,,,,,,,,,,,,,,,,,,,,,,,,,,,,,,,,,,,,,,,,,,,,,,,,,,,,,,,,,,,,,,,,,,,,,,,,,,,,,,,,,,,,,,,,,,,,,,,,,,,,,,,,,,,,,,,,,,,,,,,,,,,,,,,,,,
0,16,16,58,1,,5fa48feaddfbd812de13f3bb,629c52427194cb9303f1baa8,2022-06-05_08h58.11.819,Colour_Asymmetry_Pilot,2022.1.3,Win32,62.08866261,629c4b6caf241d5e6e00bfc0,,,,,,,,,,,,,,,,,,,,,,,,,,,,,,,,,,,,,,,,,,,,,,,,,,,,,,,,,,,,,,,,,,,,,,,,,,,,,,,,,,,,,,,,,,,,,,,,,,,,,,,,,,,,,,,,,,,,,,,,,,,,,,,,,,,,,,,,,,,,,,,,,,,
0,17,17,76,1,,5fa48feaddfbd812de13f3bb,629c52427194cb9303f1baa8,2022-06-05_08h58.11.819,Colour_Asymmetry_Pilot,2022.1.3,Win32,62.08866261,629c4b6caf241d5e6e00bfc0,,,,,,,,,,,,,,,,,,,,,,,,,,,,,,,,,,,,,,,,,,,,,,,,,,,,,,,,,,,,,,,,,,,,,,,,,,,,,,,,,,,,,,,,,,,,,,,,,,,,,,,,,,,,,,,,,,,,,,,,,,,,,,,,,,,,,,,,,,,,,,,,,,,
0,18,18,73,1,,5fa48feaddfbd812de13f3bb,629c52427194cb9303f1baa8,2022-06-05_08h58.11.819,Colour_Asymmetry_Pilot,2022.1.3,Win32,62.08866261,629c4b6caf241d5e6e00bfc0,,,,,,,,,,,,,,,,,,,,,,,,,,,,,,,,,,,,,,,,,,,,,,,,,,,,,,,,,,,,,,,,,,,,,,,,,,,,,,,,,,,,,,,,,,,,,,,,,,,,,,,,,,,,,,,,,,,,,,,,,,,,,,,,,,,,,,,,,,,,,,,,,,,
0,19,19,24,1,,5fa48feaddfbd812de13f3bb,629c52427194cb9303f1baa8,2022-06-05_08h58.11.819,Colour_Asymmetry_Pilot,2022.1.3,Win32,62.08866261,629c4b6caf241d5e6e00bfc0,,,,,,,,,,,,,,,,,,,,,,,,,,,,,,,,,,,,,,,,,,,,,,,,,,,,,,,,,,,,,,,,,,,,,,,,,,,,,,,,,,,,,,,,,,,,,,,,,,,,,,,,,,,,,,,,,,,,,,,,,,,,,,,,,,,,,,,,,,,,,,,,,,,
0,20,20,66,1,,5fa48feaddfbd812de13f3bb,629c52427194cb9303f1baa8,2022-06-05_08h58.11.819,Colour_Asymmetry_Pilot,2022.1.3,Win32,62.08866261,629c4b6caf241d5e6e00bfc0,,,,,,,,,,,,,,,,,,,,,,,,,,,,,,,,,,,,,,,,,,,,,,,,,,,,,,,,,,,,,,,,,,,,,,,,,,,,,,,,,,,,,,,,,,,,,,,,,,,,,,,,,,,,,,,,,,,,,,,,,,,,,,,,,,,,,,,,,,,,,,,,,,,
0,21,21,48,1,,5fa48feaddfbd812de13f3bb,629c52427194cb9303f1baa8,2022-06-05_08h58.11.819,Colour_Asymmetry_Pilot,2022.1.3,Win32,62.08866261,629c4b6caf241d5e6e00bfc0,,,,,,,,,,,,,,,,,,,,,,,,,,,,,,,,,,,,,,,,,,,,,,,,,,,,,,,,,,,,,,,,,,,,,,,,,,,,,,,,,,,,,,,,,,,,,,,,,,,,,,,,,,,,,,,,,,,,,,,,,,,,,,,,,,,,,,,,,,,,,,,,,,,
0,22,22,19,1,,5fa48feaddfbd812de13f3bb,629c52427194cb9303f1baa8,2022-06-05_08h58.11.819,Colour_Asymmetry_Pilot,2022.1.3,Win32,62.08866261,629c4b6caf241d5e6e00bfc0,,,,,,,,,,,,,,,,,,,,,,,,,,,,,,,,,,,,,,,,,,,,,,,,,,,,,,,,,,,,,,,,,,,,,,,,,,,,,,,,,,,,,,,,,,,,,,,,,,,,,,,,,,,,,,,,,,,,,,,,,,,,,,,,,,,,,,,,,,,,,,,,,,,
0,23,23,52,1,,5fa48feaddfbd812de13f3bb,629c52427194cb9303f1baa8,2022-06-05_08h58.11.819,Colour_Asymmetry_Pilot,2022.1.3,Win32,62.08866261,629c4b6caf241d5e6e00bfc0,,,,,,,,,,,,,,,,,,,,,,,,,,,,,,,,,,,,,,,,,,,,,,,,,,,,,,,,,,,,,,,,,,,,,,,,,,,,,,,,,,,,,,,,,,,,,,,,,,,,,,,,,,,,,,,,,,,,,,,,,,,,,,,,,,,,,,,,,,,,,,,,,,,
0,24,24,0,1,,5fa48feaddfbd812de13f3bb,629c52427194cb9303f1baa8,2022-06-05_08h58.11.819,Colour_Asymmetry_Pilot,2022.1.3,Win32,62.08866261,629c4b6caf241d5e6e00bfc0,,,,,,,,,,,,,,,,,,,,,,,,,,,,,,,,,,,,,,,,,,,,,,,,,,,,,,,,,,,,,,,,,,,,,,,,,,,,,,,,,,,,,,,,,,,,,,,,,,,,,,,,,,,,,,,,,,,,,,,,,,,,,,,,,,,,,,,,,,,,,,,,,,,
0,25,25,11,1,,5fa48feaddfbd812de13f3bb,629c52427194cb9303f1baa8,2022-06-05_08h58.11.819,Colour_Asymmetry_Pilot,2022.1.3,Win32,62.08866261,629c4b6caf241d5e6e00bfc0,,,,,,,,,,,,,,,,,,,,,,,,,,,,,,,,,,,,,,,,,,,,,,,,,,,,,,,,,,,,,,,,,,,,,,,,,,,,,,,,,,,,,,,,,,,,,,,,,,,,,,,,,,,,,,,,,,,,,,,,,,,,,,,,,,,,,,,,,,,,,,,,,,,
0,26,26,42,1,,5fa48feaddfbd812de13f3bb,629c52427194cb9303f1baa8,2022-06-05_08h58.11.819,Colour_Asymmetry_Pilot,2022.1.3,Win32,62.08866261,629c4b6caf241d5e6e00bfc0,,,,,,,,,,,,,,,,,,,,,,,,,,,,,,,,,,,,,,,,,,,,,,,,,,,,,,,,,,,,,,,,,,,,,,,,,,,,,,,,,,,,,,,,,,,,,,,,,,,,,,,,,,,,,,,,,,,,,,,,,,,,,,,,,,,,,,,,,,,,,,,,,,,
0,27,27,54,1,,5fa48feaddfbd812de13f3bb,629c52427194cb9303f1baa8,2022-06-05_08h58.11.819,Colour_Asymmetry_Pilot,2022.1.3,Win32,62.08866261,629c4b6caf241d5e6e00bfc0,,,,,,,,,,,,,,,,,,,,,,,,,,,,,,,,,,,,,,,,,,,,,,,,,,,,,,,,,,,,,,,,,,,,,,,,,,,,,,,,,,,,,,,,,,,,,,,,,,,,,,,,,,,,,,,,,,,,,,,,,,,,,,,,,,,,,,,,,,,,,,,,,,,
0,28,28,31,1,,5fa48feaddfbd812de13f3bb,629c52427194cb9303f1baa8,2022-06-05_08h58.11.819,Colour_Asymmetry_Pilot,2022.1.3,Win32,62.08866261,629c4b6caf241d5e6e00bfc0,,,,,,,,,,,,,,,,,,,,,,,,,,,,,,,,,,,,,,,,,,,,,,,,,,,,,,,,,,,,,,,,,,,,,,,,,,,,,,,,,,,,,,,,,,,,,,,,,,,,,,,,,,,,,,,,,,,,,,,,,,,,,,,,,,,,,,,,,,,,,,,,,,,
0,29,29,55,1,,5fa48feaddfbd812de13f3bb,629c52427194cb9303f1baa8,2022-06-05_08h58.11.819,Colour_Asymmetry_Pilot,2022.1.3,Win32,62.08866261,629c4b6caf241d5e6e00bfc0,,,,,,,,,,,,,,,,,,,,,,,,,,,,,,,,,,,,,,,,,,,,,,,,,,,,,,,,,,,,,,,,,,,,,,,,,,,,,,,,,,,,,,,,,,,,,,,,,,,,,,,,,,,,,,,,,,,,,,,,,,,,,,,,,,,,,,,,,,,,,,,,,,,
0,30,30,56,1,,5fa48feaddfbd812de13f3bb,629c52427194cb9303f1baa8,2022-06-05_08h58.11.819,Colour_Asymmetry_Pilot,2022.1.3,Win32,62.08866261,629c4b6caf241d5e6e00bfc0,,,,,,,,,,,,,,,,,,,,,,,,,,,,,,,,,,,,,,,,,,,,,,,,,,,,,,,,,,,,,,,,,,,,,,,,,,,,,,,,,,,,,,,,,,,,,,,,,,,,,,,,,,,,,,,,,,,,,,,,,,,,,,,,,,,,,,,,,,,,,,,,,,,
0,31,31,59,1,,5fa48feaddfbd812de13f3bb,629c52427194cb9303f1baa8,2022-06-05_08h58.11.819,Colour_Asymmetry_Pilot,2022.1.3,Win32,62.08866261,629c4b6caf241d5e6e00bfc0,,,,,,,,,,,,,,,,,,,,,,,,,,,,,,,,,,,,,,,,,,,,,,,,,,,,,,,,,,,,,,,,,,,,,,,,,,,,,,,,,,,,,,,,,,,,,,,,,,,,,,,,,,,,,,,,,,,,,,,,,,,,,,,,,,,,,,,,,,,,,,,,,,,
0,32,32,92,1,,5fa48feaddfbd812de13f3bb,629c52427194cb9303f1baa8,2022-06-05_08h58.11.819,Colour_Asymmetry_Pilot,2022.1.3,Win32,62.08866261,629c4b6caf241d5e6e00bfc0,,,,,,,,,,,,,,,,,,,,,,,,,,,,,,,,,,,,,,,,,,,,,,,,,,,,,,,,,,,,,,,,,,,,,,,,,,,,,,,,,,,,,,,,,,,,,,,,,,,,,,,,,,,,,,,,,,,,,,,,,,,,,,,,,,,,,,,,,,,,,,,,,,,
0,33,33,81,1,,5fa48feaddfbd812de13f3bb,629c52427194cb9303f1baa8,2022-06-05_08h58.11.819,Colour_Asymmetry_Pilot,2022.1.3,Win32,62.08866261,629c4b6caf241d5e6e00bfc0,,,,,,,,,,,,,,,,,,,,,,,,,,,,,,,,,,,,,,,,,,,,,,,,,,,,,,,,,,,,,,,,,,,,,,,,,,,,,,,,,,,,,,,,,,,,,,,,,,,,,,,,,,,,,,,,,,,,,,,,,,,,,,,,,,,,,,,,,,,,,,,,,,,
0,34,34,9,1,,5fa48feaddfbd812de13f3bb,629c52427194cb9303f1baa8,2022-06-05_08h58.11.819,Colour_Asymmetry_Pilot,2022.1.3,Win32,62.08866261,629c4b6caf241d5e6e00bfc0,,,,,,,,,,,,,,,,,,,,,,,,,,,,,,,,,,,,,,,,,,,,,,,,,,,,,,,,,,,,,,,,,,,,,,,,,,,,,,,,,,,,,,,,,,,,,,,,,,,,,,,,,,,,,,,,,,,,,,,,,,,,,,,,,,,,,,,,,,,,,,,,,,,
0,35,35,91,1,,5fa48feaddfbd812de13f3bb,629c52427194cb9303f1baa8,2022-06-05_08h58.11.819,Colour_Asymmetry_Pilot,2022.1.3,Win32,62.08866261,629c4b6caf241d5e6e00bfc0,,,,,,,,,,,,,,,,,,,,,,,,,,,,,,,,,,,,,,,,,,,,,,,,,,,,,,,,,,,,,,,,,,,,,,,,,,,,,,,,,,,,,,,,,,,,,,,,,,,,,,,,,,,,,,,,,,,,,,,,,,,,,,,,,,,,,,,,,,,,,,,,,,,
0,36,36,7,1,,5fa48feaddfbd812de13f3bb,629c52427194cb9303f1baa8,2022-06-05_08h58.11.819,Colour_Asymmetry_Pilot,2022.1.3,Win32,62.08866261,629c4b6caf241d5e6e00bfc0,,,,,,,,,,,,,,,,,,,,,,,,,,,,,,,,,,,,,,,,,,,,,,,,,,,,,,,,,,,,,,,,,,,,,,,,,,,,,,,,,,,,,,,,,,,,,,,,,,,,,,,,,,,,,,,,,,,,,,,,,,,,,,,,,,,,,,,,,,,,,,,,,,,
0,37,37,74,1,,5fa48feaddfbd812de13f3bb,629c52427194cb9303f1baa8,2022-06-05_08h58.11.819,Colour_Asymmetry_Pilot,2022.1.3,Win32,62.08866261,629c4b6caf241d5e6e00bfc0,,,,,,,,,,,,,,,,,,,,,,,,,,,,,,,,,,,,,,,,,,,,,,,,,,,,,,,,,,,,,,,,,,,,,,,,,,,,,,,,,,,,,,,,,,,,,,,,,,,,,,,,,,,,,,,,,,,,,,,,,,,,,,,,,,,,,,,,,,,,,,,,,,,
0,38,38,22,1,,5fa48feaddfbd812de13f3bb,629c52427194cb9303f1baa8,2022-06-05_08h58.11.819,Colour_Asymmetry_Pilot,2022.1.3,Win32,62.08866261,629c4b6caf241d5e6e00bfc0,,,,,,,,,,,,,,,,,,,,,,,,,,,,,,,,,,,,,,,,,,,,,,,,,,,,,,,,,,,,,,,,,,,,,,,,,,,,,,,,,,,,,,,,,,,,,,,,,,,,,,,,,,,,,,,,,,,,,,,,,,,,,,,,,,,,,,,,,,,,,,,,,,,
0,39,39,3,1,,5fa48feaddfbd812de13f3bb,629c52427194cb9303f1baa8,2022-06-05_08h58.11.819,Colour_Asymmetry_Pilot,2022.1.3,Win32,62.08866261,629c4b6caf241d5e6e00bfc0,,,,,,,,,,,,,,,,,,,,,,,,,,,,,,,,,,,,,,,,,,,,,,,,,,,,,,,,,,,,,,,,,,,,,,,,,,,,,,,,,,,,,,,,,,,,,,,,,,,,,,,,,,,,,,,,,,,,,,,,,,,,,,,,,,,,,,,,,,,,,,,,,,,
0,40,40,5,1,,5fa48feaddfbd812de13f3bb,629c52427194cb9303f1baa8,2022-06-05_08h58.11.819,Colour_Asymmetry_Pilot,2022.1.3,Win32,62.08866261,629c4b6caf241d5e6e00bfc0,,,,,,,,,,,,,,,,,,,,,,,,,,,,,,,,,,,,,,,,,,,,,,,,,,,,,,,,,,,,,,,,,,,,,,,,,,,,,,,,,,,,,,,,,,,,,,,,,,,,,,,,,,,,,,,,,,,,,,,,,,,,,,,,,,,,,,,,,,,,,,,,,,,
0,41,41,53,1,,5fa48feaddfbd812de13f3bb,629c52427194cb9303f1baa8,2022-06-05_08h58.11.819,Colour_Asymmetry_Pilot,2022.1.3,Win32,62.08866261,629c4b6caf241d5e6e00bfc0,,,,,,,,,,,,,,,,,,,,,,,,,,,,,,,,,,,,,,,,,,,,,,,,,,,,,,,,,,,,,,,,,,,,,,,,,,,,,,,,,,,,,,,,,,,,,,,,,,,,,,,,,,,,,,,,,,,,,,,,,,,,,,,,,,,,,,,,,,,,,,,,,,,
0,42,42,57,1,,5fa48feaddfbd812de13f3bb,629c52427194cb9303f1baa8,2022-06-05_08h58.11.819,Colour_Asymmetry_Pilot,2022.1.3,Win32,62.08866261,629c4b6caf241d5e6e00bfc0,,,,,,,,,,,,,,,,,,,,,,,,,,,,,,,,,,,,,,,,,,,,,,,,,,,,,,,,,,,,,,,,,,,,,,,,,,,,,,,,,,,,,,,,,,,,,,,,,,,,,,,,,,,,,,,,,,,,,,,,,,,,,,,,,,,,,,,,,,,,,,,,,,,
0,43,43,20,1,,5fa48feaddfbd812de13f3bb,629c52427194cb9303f1baa8,2022-06-05_08h58.11.819,Colour_Asymmetry_Pilot,2022.1.3,Win32,62.08866261,629c4b6caf241d5e6e00bfc0,,,,,,,,,,,,,,,,,,,,,,,,,,,,,,,,,,,,,,,,,,,,,,,,,,,,,,,,,,,,,,,,,,,,,,,,,,,,,,,,,,,,,,,,,,,,,,,,,,,,,,,,,,,,,,,,,,,,,,,,,,,,,,,,,,,,,,,,,,,,,,,,,,,
0,44,44,39,1,,5fa48feaddfbd812de13f3bb,629c52427194cb9303f1baa8,2022-06-05_08h58.11.819,Colour_Asymmetry_Pilot,2022.1.3,Win32,62.08866261,629c4b6caf241d5e6e00bfc0,,,,,,,,,,,,,,,,,,,,,,,,,,,,,,,,,,,,,,,,,,,,,,,,,,,,,,,,,,,,,,,,,,,,,,,,,,,,,,,,,,,,,,,,,,,,,,,,,,,,,,,,,,,,,,,,,,,,,,,,,,,,,,,,,,,,,,,,,,,,,,,,,,,
0,45,45,49,1,,5fa48feaddfbd812de13f3bb,629c52427194cb9303f1baa8,2022-06-05_08h58.11.819,Colour_Asymmetry_Pilot,2022.1.3,Win32,62.08866261,629c4b6caf241d5e6e00bfc0,,,,,,,,,,,,,,,,,,,,,,,,,,,,,,,,,,,,,,,,,,,,,,,,,,,,,,,,,,,,,,,,,,,,,,,,,,,,,,,,,,,,,,,,,,,,,,,,,,,,,,,,,,,,,,,,,,,,,,,,,,,,,,,,,,,,,,,,,,,,,,,,,,,
0,46,46,64,1,,5fa48feaddfbd812de13f3bb,629c52427194cb9303f1baa8,2022-06-05_08h58.11.819,Colour_Asymmetry_Pilot,2022.1.3,Win32,62.08866261,629c4b6caf241d5e6e00bfc0,,,,,,,,,,,,,,,,,,,,,,,,,,,,,,,,,,,,,,,,,,,,,,,,,,,,,,,,,,,,,,,,,,,,,,,,,,,,,,,,,,,,,,,,,,,,,,,,,,,,,,,,,,,,,,,,,,,,,,,,,,,,,,,,,,,,,,,,,,,,,,,,,,,
0,47,47,77,1,,5fa48feaddfbd812de13f3bb,629c52427194cb9303f1baa8,2022-06-05_08h58.11.819,Colour_Asymmetry_Pilot,2022.1.3,Win32,62.08866261,629c4b6caf241d5e6e00bfc0,,,,,,,,,,,,,,,,,,,,,,,,,,,,,,,,,,,,,,,,,,,,,,,,,,,,,,,,,,,,,,,,,,,,,,,,,,,,,,,,,,,,,,,,,,,,,,,,,,,,,,,,,,,,,,,,,,,,,,,,,,,,,,,,,,,,,,,,,,,,,,,,,,,
0,48,48,90,1,,5fa48feaddfbd812de13f3bb,629c52427194cb9303f1baa8,2022-06-05_08h58.11.819,Colour_Asymmetry_Pilot,2022.1.3,Win32,62.08866261,629c4b6caf241d5e6e00bfc0,,,,,,,,,,,,,,,,,,,,,,,,,,,,,,,,,,,,,,,,,,,,,,,,,,,,,,,,,,,,,,,,,,,,,,,,,,,,,,,,,,,,,,,,,,,,,,,,,,,,,,,,,,,,,,,,,,,,,,,,,,,,,,,,,,,,,,,,,,,,,,,,,,,
0,49,49,38,1,,5fa48feaddfbd812de13f3bb,629c52427194cb9303f1baa8,2022-06-05_08h58.11.819,Colour_Asymmetry_Pilot,2022.1.3,Win32,62.08866261,629c4b6caf241d5e6e00bfc0,,,,,,,,,,,,,,,,,,,,,,,,,,,,,,,,,,,,,,,,,,,,,,,,,,,,,,,,,,,,,,,,,,,,,,,,,,,,,,,,,,,,,,,,,,,,,,,,,,,,,,,,,,,,,,,,,,,,,,,,,,,,,,,,,,,,,,,,,,,,,,,,,,,
0,50,50,44,1,,5fa48feaddfbd812de13f3bb,629c52427194cb9303f1baa8,2022-06-05_08h58.11.819,Colour_Asymmetry_Pilot,2022.1.3,Win32,62.08866261,629c4b6caf241d5e6e00bfc0,,,,,,,,,,,,,,,,,,,,,,,,,,,,,,,,,,,,,,,,,,,,,,,,,,,,,,,,,,,,,,,,,,,,,,,,,,,,,,,,,,,,,,,,,,,,,,,,,,,,,,,,,,,,,,,,,,,,,,,,,,,,,,,,,,,,,,,,,,,,,,,,,,,
0,51,51,40,1,,5fa48feaddfbd812de13f3bb,629c52427194cb9303f1baa8,2022-06-05_08h58.11.819,Colour_Asymmetry_Pilot,2022.1.3,Win32,62.08866261,629c4b6caf241d5e6e00bfc0,,,,,,,,,,,,,,,,,,,,,,,,,,,,,,,,,,,,,,,,,,,,,,,,,,,,,,,,,,,,,,,,,,,,,,,,,,,,,,,,,,,,,,,,,,,,,,,,,,,,,,,,,,,,,,,,,,,,,,,,,,,,,,,,,,,,,,,,,,,,,,,,,,,
0,52,52,88,1,,5fa48feaddfbd812de13f3bb,629c52427194cb9303f1baa8,2022-06-05_08h58.11.819,Colour_Asymmetry_Pilot,2022.1.3,Win32,62.08866261,629c4b6caf241d5e6e00bfc0,,,,,,,,,,,,,,,,,,,,,,,,,,,,,,,,,,,,,,,,,,,,,,,,,,,,,,,,,,,,,,,,,,,,,,,,,,,,,,,,,,,,,,,,,,,,,,,,,,,,,,,,,,,,,,,,,,,,,,,,,,,,,,,,,,,,,,,,,,,,,,,,,,,
0,53,53,65,1,,5fa48feaddfbd812de13f3bb,629c52427194cb9303f1baa8,2022-06-05_08h58.11.819,Colour_Asymmetry_Pilot,2022.1.3,Win32,62.08866261,629c4b6caf241d5e6e00bfc0,,,,,,,,,,,,,,,,,,,,,,,,,,,,,,,,,,,,,,,,,,,,,,,,,,,,,,,,,,,,,,,,,,,,,,,,,,,,,,,,,,,,,,,,,,,,,,,,,,,,,,,,,,,,,,,,,,,,,,,,,,,,,,,,,,,,,,,,,,,,,,,,,,,
0,54,54,30,1,,5fa48feaddfbd812de13f3bb,629c52427194cb9303f1baa8,2022-06-05_08h58.11.819,Colour_Asymmetry_Pilot,2022.1.3,Win32,62.08866261,629c4b6caf241d5e6e00bfc0,,,,,,,,,,,,,,,,,,,,,,,,,,,,,,,,,,,,,,,,,,,,,,,,,,,,,,,,,,,,,,,,,,,,,,,,,,,,,,,,,,,,,,,,,,,,,,,,,,,,,,,,,,,,,,,,,,,,,,,,,,,,,,,,,,,,,,,,,,,,,,,,,,,
0,55,55,79,1,,5fa48feaddfbd812de13f3bb,629c52427194cb9303f1baa8,2022-06-05_08h58.11.819,Colour_Asymmetry_Pilot,2022.1.3,Win32,62.08866261,629c4b6caf241d5e6e00bfc0,,,,,,,,,,,,,,,,,,,,,,,,,,,,,,,,,,,,,,,,,,,,,,,,,,,,,,,,,,,,,,,,,,,,,,,,,,,,,,,,,,,,,,,,,,,,,,,,,,,,,,,,,,,,,,,,,,,,,,,,,,,,,,,,,,,,,,,,,,,,,,,,,,,
0,56,56,1,1,,5fa48feaddfbd812de13f3bb,629c52427194cb9303f1baa8,2022-06-05_08h58.11.819,Colour_Asymmetry_Pilot,2022.1.3,Win32,62.08866261,629c4b6caf241d5e6e00bfc0,,,,,,,,,,,,,,,,,,,,,,,,,,,,,,,,,,,,,,,,,,,,,,,,,,,,,,,,,,,,,,,,,,,,,,,,,,,,,,,,,,,,,,,,,,,,,,,,,,,,,,,,,,,,,,,,,,,,,,,,,,,,,,,,,,,,,,,,,,,,,,,,,,,
0,57,57,83,1,,5fa48feaddfbd812de13f3bb,629c52427194cb9303f1baa8,2022-06-05_08h58.11.819,Colour_Asymmetry_Pilot,2022.1.3,Win32,62.08866261,629c4b6caf241d5e6e00bfc0,,,,,,,,,,,,,,,,,,,,,,,,,,,,,,,,,,,,,,,,,,,,,,,,,,,,,,,,,,,,,,,,,,,,,,,,,,,,,,,,,,,,,,,,,,,,,,,,,,,,,,,,,,,,,,,,,,,,,,,,,,,,,,,,,,,,,,,,,,,,,,,,,,,
0,58,58,23,1,,5fa48feaddfbd812de13f3bb,629c52427194cb9303f1baa8,2022-06-05_08h58.11.819,Colour_Asymmetry_Pilot,2022.1.3,Win32,62.08866261,629c4b6caf241d5e6e00bfc0,,,,,,,,,,,,,,,,,,,,,,,,,,,,,,,,,,,,,,,,,,,,,,,,,,,,,,,,,,,,,,,,,,,,,,,,,,,,,,,,,,,,,,,,,,,,,,,,,,,,,,,,,,,,,,,,,,,,,,,,,,,,,,,,,,,,,,,,,,,,,,,,,,,
0,59,59,87,1,,5fa48feaddfbd812de13f3bb,629c52427194cb9303f1baa8,2022-06-05_08h58.11.819,Colour_Asymmetry_Pilot,2022.1.3,Win32,62.08866261,629c4b6caf241d5e6e00bfc0,,,,,,,,,,,,,,,,,,,,,,,,,,,,,,,,,,,,,,,,,,,,,,,,,,,,,,,,,,,,,,,,,,,,,,,,,,,,,,,,,,,,,,,,,,,,,,,,,,,,,,,,,,,,,,,,,,,,,,,,,,,,,,,,,,,,,,,,,,,,,,,,,,,
0,60,60,63,1,,5fa48feaddfbd812de13f3bb,629c52427194cb9303f1baa8,2022-06-05_08h58.11.819,Colour_Asymmetry_Pilot,2022.1.3,Win32,62.08866261,629c4b6caf241d5e6e00bfc0,,,,,,,,,,,,,,,,,,,,,,,,,,,,,,,,,,,,,,,,,,,,,,,,,,,,,,,,,,,,,,,,,,,,,,,,,,,,,,,,,,,,,,,,,,,,,,,,,,,,,,,,,,,,,,,,,,,,,,,,,,,,,,,,,,,,,,,,,,,,,,,,,,,
0,61,61,47,1,,5fa48feaddfbd812de13f3bb,629c52427194cb9303f1baa8,2022-06-05_08h58.11.819,Colour_Asymmetry_Pilot,2022.1.3,Win32,62.08866261,629c4b6caf241d5e6e00bfc0,,,,,,,,,,,,,,,,,,,,,,,,,,,,,,,,,,,,,,,,,,,,,,,,,,,,,,,,,,,,,,,,,,,,,,,,,,,,,,,,,,,,,,,,,,,,,,,,,,,,,,,,,,,,,,,,,,,,,,,,,,,,,,,,,,,,,,,,,,,,,,,,,,,
0,62,62,28,1,,5fa48feaddfbd812de13f3bb,629c52427194cb9303f1baa8,2022-06-05_08h58.11.819,Colour_Asymmetry_Pilot,2022.1.3,Win32,62.08866261,629c4b6caf241d5e6e00bfc0,,,,,,,,,,,,,,,,,,,,,,,,,,,,,,,,,,,,,,,,,,,,,,,,,,,,,,,,,,,,,,,,,,,,,,,,,,,,,,,,,,,,,,,,,,,,,,,,,,,,,,,,,,,,,,,,,,,,,,,,,,,,,,,,,,,,,,,,,,,,,,,,,,,
0,63,63,70,1,,5fa48feaddfbd812de13f3bb,629c52427194cb9303f1baa8,2022-06-05_08h58.11.819,Colour_Asymmetry_Pilot,2022.1.3,Win32,62.08866261,629c4b6caf241d5e6e00bfc0,,,,,,,,,,,,,,,,,,,,,,,,,,,,,,,,,,,,,,,,,,,,,,,,,,,,,,,,,,,,,,,,,,,,,,,,,,,,,,,,,,,,,,,,,,,,,,,,,,,,,,,,,,,,,,,,,,,,,,,,,,,,,,,,,,,,,,,,,,,,,,,,,,,
0,64,64,89,1,,5fa48feaddfbd812de13f3bb,629c52427194cb9303f1baa8,2022-06-05_08h58.11.819,Colour_Asymmetry_Pilot,2022.1.3,Win32,62.08866261,629c4b6caf241d5e6e00bfc0,,,,,,,,,,,,,,,,,,,,,,,,,,,,,,,,,,,,,,,,,,,,,,,,,,,,,,,,,,,,,,,,,,,,,,,,,,,,,,,,,,,,,,,,,,,,,,,,,,,,,,,,,,,,,,,,,,,,,,,,,,,,,,,,,,,,,,,,,,,,,,,,,,,
0,65,65,75,1,,5fa48feaddfbd812de13f3bb,629c52427194cb9303f1baa8,2022-06-05_08h58.11.819,Colour_Asymmetry_Pilot,2022.1.3,Win32,62.08866261,629c4b6caf241d5e6e00bfc0,,,,,,,,,,,,,,,,,,,,,,,,,,,,,,,,,,,,,,,,,,,,,,,,,,,,,,,,,,,,,,,,,,,,,,,,,,,,,,,,,,,,,,,,,,,,,,,,,,,,,,,,,,,,,,,,,,,,,,,,,,,,,,,,,,,,,,,,,,,,,,,,,,,
0,66,66,82,1,,5fa48feaddfbd812de13f3bb,629c52427194cb9303f1baa8,2022-06-05_08h58.11.819,Colour_Asymmetry_Pilot,2022.1.3,Win32,62.08866261,629c4b6caf241d5e6e00bfc0,,,,,,,,,,,,,,,,,,,,,,,,,,,,,,,,,,,,,,,,,,,,,,,,,,,,,,,,,,,,,,,,,,,,,,,,,,,,,,,,,,,,,,,,,,,,,,,,,,,,,,,,,,,,,,,,,,,,,,,,,,,,,,,,,,,,,,,,,,,,,,,,,,,
0,67,67,68,1,,5fa48feaddfbd812de13f3bb,629c52427194cb9303f1baa8,2022-06-05_08h58.11.819,Colour_Asymmetry_Pilot,2022.1.3,Win32,62.08866261,629c4b6caf241d5e6e00bfc0,,,,,,,,,,,,,,,,,,,,,,,,,,,,,,,,,,,,,,,,,,,,,,,,,,,,,,,,,,,,,,,,,,,,,,,,,,,,,,,,,,,,,,,,,,,,,,,,,,,,,,,,,,,,,,,,,,,,,,,,,,,,,,,,,,,,,,,,,,,,,,,,,,,
0,68,68,85,1,,5fa48feaddfbd812de13f3bb,629c52427194cb9303f1baa8,2022-06-05_08h58.11.819,Colour_Asymmetry_Pilot,2022.1.3,Win32,62.08866261,629c4b6caf241d5e6e00bfc0,,,,,,,,,,,,,,,,,,,,,,,,,,,,,,,,,,,,,,,,,,,,,,,,,,,,,,,,,,,,,,,,,,,,,,,,,,,,,,,,,,,,,,,,,,,,,,,,,,,,,,,,,,,,,,,,,,,,,,,,,,,,,,,,,,,,,,,,,,,,,,,,,,,
0,69,69,27,1,,5fa48feaddfbd812de13f3bb,629c52427194cb9303f1baa8,2022-06-05_08h58.11.819,Colour_Asymmetry_Pilot,2022.1.3,Win32,62.08866261,629c4b6caf241d5e6e00bfc0,,,,,,,,,,,,,,,,,,,,,,,,,,,,,,,,,,,,,,,,,,,,,,,,,,,,,,,,,,,,,,,,,,,,,,,,,,,,,,,,,,,,,,,,,,,,,,,,,,,,,,,,,,,,,,,,,,,,,,,,,,,,,,,,,,,,,,,,,,,,,,,,,,,
0,70,70,46,1,,5fa48feaddfbd812de13f3bb,629c52427194cb9303f1baa8,2022-06-05_08h58.11.819,Colour_Asymmetry_Pilot,2022.1.3,Win32,62.08866261,629c4b6caf241d5e6e00bfc0,,,,,,,,,,,,,,,,,,,,,,,,,,,,,,,,,,,,,,,,,,,,,,,,,,,,,,,,,,,,,,,,,,,,,,,,,,,,,,,,,,,,,,,,,,,,,,,,,,,,,,,,,,,,,,,,,,,,,,,,,,,,,,,,,,,,,,,,,,,,,,,,,,,
0,71,71,72,1,,5fa48feaddfbd812de13f3bb,629c52427194cb9303f1baa8,2022-06-05_08h58.11.819,Colour_Asymmetry_Pilot,2022.1.3,Win32,62.08866261,629c4b6caf241d5e6e00bfc0,,,,,,,,,,,,,,,,,,,,,,,,,,,,,,,,,,,,,,,,,,,,,,,,,,,,,,,,,,,,,,,,,,,,,,,,,,,,,,,,,,,,,,,,,,,,,,,,,,,,,,,,,,,,,,,,,,,,,,,,,,,,,,,,,,,,,,,,,,,,,,,,,,,
0,72,72,34,1,,5fa48feaddfbd812de13f3bb,629c52427194cb9303f1baa8,2022-06-05_08h58.11.819,Colour_Asymmetry_Pilot,2022.1.3,Win32,62.08866261,629c4b6caf241d5e6e00bfc0,,,,,,,,,,,,,,,,,,,,,,,,,,,,,,,,,,,,,,,,,,,,,,,,,,,,,,,,,,,,,,,,,,,,,,,,,,,,,,,,,,,,,,,,,,,,,,,,,,,,,,,,,,,,,,,,,,,,,,,,,,,,,,,,,,,,,,,,,,,,,,,,,,,
0,73,73,41,1,,5fa48feaddfbd812de13f3bb,629c52427194cb9303f1baa8,2022-06-05_08h58.11.819,Colour_Asymmetry_Pilot,2022.1.3,Win32,62.08866261,629c4b6caf241d5e6e00bfc0,,,,,,,,,,,,,,,,,,,,,,,,,,,,,,,,,,,,,,,,,,,,,,,,,,,,,,,,,,,,,,,,,,,,,,,,,,,,,,,,,,,,,,,,,,,,,,,,,,,,,,,,,,,,,,,,,,,,,,,,,,,,,,,,,,,,,,,,,,,,,,,,,,,
0,74,74,29,1,,5fa48feaddfbd812de13f3bb,629c52427194cb9303f1baa8,2022-06-05_08h58.11.819,Colour_Asymmetry_Pilot,2022.1.3,Win32,62.08866261,629c4b6caf241d5e6e00bfc0,,,,,,,,,,,,,,,,,,,,,,,,,,,,,,,,,,,,,,,,,,,,,,,,,,,,,,,,,,,,,,,,,,,,,,,,,,,,,,,,,,,,,,,,,,,,,,,,,,,,,,,,,,,,,,,,,,,,,,,,,,,,,,,,,,,,,,,,,,,,,,,,,,,
0,75,75,78,1,,5fa48feaddfbd812de13f3bb,629c52427194cb9303f1baa8,2022-06-05_08h58.11.819,Colour_Asymmetry_Pilot,2022.1.3,Win32,62.08866261,629c4b6caf241d5e6e00bfc0,,,,,,,,,,,,,,,,,,,,,,,,,,,,,,,,,,,,,,,,,,,,,,,,,,,,,,,,,,,,,,,,,,,,,,,,,,,,,,,,,,,,,,,,,,,,,,,,,,,,,,,,,,,,,,,,,,,,,,,,,,,,,,,,,,,,,,,,,,,,,,,,,,,
0,76,76,69,1,,5fa48feaddfbd812de13f3bb,629c52427194cb9303f1baa8,2022-06-05_08h58.11.819,Colour_Asymmetry_Pilot,2022.1.3,Win32,62.08866261,629c4b6caf241d5e6e00bfc0,,,,,,,,,,,,,,,,,,,,,,,,,,,,,,,,,,,,,,,,,,,,,,,,,,,,,,,,,,,,,,,,,,,,,,,,,,,,,,,,,,,,,,,,,,,,,,,,,,,,,,,,,,,,,,,,,,,,,,,,,,,,,,,,,,,,,,,,,,,,,,,,,,,
0,77,77,14,1,,5fa48feaddfbd812de13f3bb,629c52427194cb9303f1baa8,2022-06-05_08h58.11.819,Colour_Asymmetry_Pilot,2022.1.3,Win32,62.08866261,629c4b6caf241d5e6e00bfc0,,,,,,,,,,,,,,,,,,,,,,,,,,,,,,,,,,,,,,,,,,,,,,,,,,,,,,,,,,,,,,,,,,,,,,,,,,,,,,,,,,,,,,,,,,,,,,,,,,,,,,,,,,,,,,,,,,,,,,,,,,,,,,,,,,,,,,,,,,,,,,,,,,,
0,78,78,51,1,,5fa48feaddfbd812de13f3bb,629c52427194cb9303f1baa8,2022-06-05_08h58.11.819,Colour_Asymmetry_Pilot,2022.1.3,Win32,62.08866261,629c4b6caf241d5e6e00bfc0,,,,,,,,,,,,,,,,,,,,,,,,,,,,,,,,,,,,,,,,,,,,,,,,,,,,,,,,,,,,,,,,,,,,,,,,,,,,,,,,,,,,,,,,,,,,,,,,,,,,,,,,,,,,,,,,,,,,,,,,,,,,,,,,,,,,,,,,,,,,,,,,,,,
0,79,79,62,1,,5fa48feaddfbd812de13f3bb,629c52427194cb9303f1baa8,2022-06-05_08h58.11.819,Colour_Asymmetry_Pilot,2022.1.3,Win32,62.08866261,629c4b6caf241d5e6e00bfc0,,,,,,,,,,,,,,,,,,,,,,,,,,,,,,,,,,,,,,,,,,,,,,,,,,,,,,,,,,,,,,,,,,,,,,,,,,,,,,,,,,,,,,,,,,,,,,,,,,,,,,,,,,,,,,,,,,,,,,,,,,,,,,,,,,,,,,,,,,,,,,,,,,,
0,80,80,32,1,,5fa48feaddfbd812de13f3bb,629c52427194cb9303f1baa8,2022-06-05_08h58.11.819,Colour_Asymmetry_Pilot,2022.1.3,Win32,62.08866261,629c4b6caf241d5e6e00bfc0,,,,,,,,,,,,,,,,,,,,,,,,,,,,,,,,,,,,,,,,,,,,,,,,,,,,,,,,,,,,,,,,,,,,,,,,,,,,,,,,,,,,,,,,,,,,,,,,,,,,,,,,,,,,,,,,,,,,,,,,,,,,,,,,,,,,,,,,,,,,,,,,,,,
0,81,81,37,1,,5fa48feaddfbd812de13f3bb,629c52427194cb9303f1baa8,2022-06-05_08h58.11.819,Colour_Asymmetry_Pilot,2022.1.3,Win32,62.08866261,629c4b6caf241d5e6e00bfc0,,,,,,,,,,,,,,,,,,,,,,,,,,,,,,,,,,,,,,,,,,,,,,,,,,,,,,,,,,,,,,,,,,,,,,,,,,,,,,,,,,,,,,,,,,,,,,,,,,,,,,,,,,,,,,,,,,,,,,,,,,,,,,,,,,,,,,,,,,,,,,,,,,,
0,82,82,50,1,,5fa48feaddfbd812de13f3bb,629c52427194cb9303f1baa8,2022-06-05_08h58.11.819,Colour_Asymmetry_Pilot,2022.1.3,Win32,62.08866261,629c4b6caf241d5e6e00bfc0,,,,,,,,,,,,,,,,,,,,,,,,,,,,,,,,,,,,,,,,,,,,,,,,,,,,,,,,,,,,,,,,,,,,,,,,,,,,,,,,,,,,,,,,,,,,,,,,,,,,,,,,,,,,,,,,,,,,,,,,,,,,,,,,,,,,,,,,,,,,,,,,,,,
0,83,83,15,1,,5fa48feaddfbd812de13f3bb,629c52427194cb9303f1baa8,2022-06-05_08h58.11.819,Colour_Asymmetry_Pilot,2022.1.3,Win32,62.08866261,629c4b6caf241d5e6e00bfc0,,,,,,,,,,,,,,,,,,,,,,,,,,,,,,,,,,,,,,,,,,,,,,,,,,,,,,,,,,,,,,,,,,,,,,,,,,,,,,,,,,,,,,,,,,,,,,,,,,,,,,,,,,,,,,,,,,,,,,,,,,,,,,,,,,,,,,,,,,,,,,,,,,,
0,84,84,86,1,,5fa48feaddfbd812de13f3bb,629c52427194cb9303f1baa8,2022-06-05_08h58.11.819,Colour_Asymmetry_Pilot,2022.1.3,Win32,62.08866261,629c4b6caf241d5e6e00bfc0,,,,,,,,,,,,,,,,,,,,,,,,,,,,,,,,,,,,,,,,,,,,,,,,,,,,,,,,,,,,,,,,,,,,,,,,,,,,,,,,,,,,,,,,,,,,,,,,,,,,,,,,,,,,,,,,,,,,,,,,,,,,,,,,,,,,,,,,,,,,,,,,,,,
0,85,85,17,1,,5fa48feaddfbd812de13f3bb,629c52427194cb9303f1baa8,2022-06-05_08h58.11.819,Colour_Asymmetry_Pilot,2022.1.3,Win32,62.08866261,629c4b6caf241d5e6e00bfc0,,,,,,,,,,,,,,,,,,,,,,,,,,,,,,,,,,,,,,,,,,,,,,,,,,,,,,,,,,,,,,,,,,,,,,,,,,,,,,,,,,,,,,,,,,,,,,,,,,,,,,,,,,,,,,,,,,,,,,,,,,,,,,,,,,,,,,,,,,,,,,,,,,,
0,86,86,71,1,,5fa48feaddfbd812de13f3bb,629c52427194cb9303f1baa8,2022-06-05_08h58.11.819,Colour_Asymmetry_Pilot,2022.1.3,Win32,62.08866261,629c4b6caf241d5e6e00bfc0,,,,,,,,,,,,,,,,,,,,,,,,,,,,,,,,,,,,,,,,,,,,,,,,,,,,,,,,,,,,,,,,,,,,,,,,,,,,,,,,,,,,,,,,,,,,,,,,,,,,,,,,,,,,,,,,,,,,,,,,,,,,,,,,,,,,,,,,,,,,,,,,,,,
0,87,87,16,1,,5fa48feaddfbd812de13f3bb,629c52427194cb9303f1baa8,2022-06-05_08h58.11.819,Colour_Asymmetry_Pilot,2022.1.3,Win32,62.08866261,629c4b6caf241d5e6e00bfc0,,,,,,,,,,,,,,,,,,,,,,,,,,,,,,,,,,,,,,,,,,,,,,,,,,,,,,,,,,,,,,,,,,,,,,,,,,,,,,,,,,,,,,,,,,,,,,,,,,,,,,,,,,,,,,,,,,,,,,,,,,,,,,,,,,,,,,,,,,,,,,,,,,,
0,88,88,6,1,,5fa48feaddfbd812de13f3bb,629c52427194cb9303f1baa8,2022-06-05_08h58.11.819,Colour_Asymmetry_Pilot,2022.1.3,Win32,62.08866261,629c4b6caf241d5e6e00bfc0,,,,,,,,,,,,,,,,,,,,,,,,,,,,,,,,,,,,,,,,,,,,,,,,,,,,,,,,,,,,,,,,,,,,,,,,,,,,,,,,,,,,,,,,,,,,,,,,,,,,,,,,,,,,,,,,,,,,,,,,,,,,,,,,,,,,,,,,,,,,,,,,,,,
0,89,89,45,1,,5fa48feaddfbd812de13f3bb,629c52427194cb9303f1baa8,2022-06-05_08h58.11.819,Colour_Asymmetry_Pilot,2022.1.3,Win32,62.08866261,629c4b6caf241d5e6e00bfc0,,,,,,,,,,,,,,,,,,,,,,,,,,,,,,,,,,,,,,,,,,,,,,,,,,,,,,,,,,,,,,,,,,,,,,,,,,,,,,,,,,,,,,,,,,,,,,,,,,,,,,,,,,,,,,,,,,,,,,,,,,,,,,,,,,,,,,,,,,,,,,,,,,,
0,90,90,33,1,,5fa48feaddfbd812de13f3bb,629c52427194cb9303f1baa8,2022-06-05_08h58.11.819,Colour_Asymmetry_Pilot,2022.1.3,Win32,62.08866261,629c4b6caf241d5e6e00bfc0,,,,,,,,,,,,,,,,,,,,,,,,,,,,,,,,,,,,,,,,,,,,,,,,,,,,,,,,,,,,,,,,,,,,,,,,,,,,,,,,,,,,,,,,,,,,,,,,,,,,,,,,,,,,,,,,,,,,,,,,,,,,,,,,,,,,,,,,,,,,,,,,,,,
0,91,91,36,1,,5fa48feaddfbd812de13f3bb,629c52427194cb9303f1baa8,2022-06-05_08h58.11.819,Colour_Asymmetry_Pilot,2022.1.3,Win32,62.08866261,629c4b6caf241d5e6e00bfc0,,,,,,,,,,,,,,,,,,,,,,,,,,,,,,,,,,,,,,,,,,,,,,,,,,,,,,,,,,,,,,,,,,,,,,,,,,,,,,,,,,,,,,,,,,,,,,,,,,,,,,,,,,,,,,,,,,,,,,,,,,,,,,,,,,,,,,,,,,,,,,,,,,,
0,92,92,13,1,,5fa48feaddfbd812de13f3bb,629c52427194cb9303f1baa8,2022-06-05_08h58.11.819,Colour_Asymmetry_Pilot,2022.1.3,Win32,62.08866261,629c4b6caf241d5e6e00bfc0,,,,,,,,,,,,,,,,,,,,,,,,,,,,,,,,,,,,,,,,,,,,,,,,,,,,,,,,,,,,,,,,,,,,,,,,,,,,,,,,,,,,,,,,,,,,,,,,,,,,,,,,,,,,,,,,,,,,,,,,,,,,,,,,,,,,,,,,,,,,,,,,,,,
,,,,,,5fa48feaddfbd812de13f3bb,629c52427194cb9303f1baa8,2022-06-05_08h58.11.819,Colour_Asymmetry_Pilot,2022.1.3,Win32,62.08866261,629c4b6caf241d5e6e00bfc0,0,0,0,72,1,onetwo,,,,,,,,,,,,,,,,,,,,,,,,,,,,,,,,,,,,,,,,,,,,,,,,,,,,,,,,,,,,,,,,,,,,,,,,,,,,,,,,,,,,,,,,,,,,,,,,,,,,,,,,,,,,,,,,,,,,,,,,,,,,,,,,,,,,,,,,,,,,,
,,,,,,5fa48feaddfbd812de13f3bb,629c52427194cb9303f1baa8,2022-06-05_08h58.11.819,Colour_Asymmetry_Pilot,2022.1.3,Win32,62.08866261,629c4b6caf241d5e6e00bfc0,0,1,1,38,1,fourtwo,,,,,,,,,,,,,,,,,,,,,,,,,,,,,,,,,,,,,,,,,,,,,,,,,,,,,,,,,,,,,,,,,,,,,,,,,,,,,,,,,,,,,,,,,,,,,,,,,,,,,,,,,,,,,,,,,,,,,,,,,,,,,,,,,,,,,,,,,,,,,
,,,,,,5fa48feaddfbd812de13f3bb,629c52427194cb9303f1baa8,2022-06-05_08h58.11.819,Colour_Asymmetry_Pilot,2022.1.3,Win32,62.08866261,629c4b6caf241d5e6e00bfc0,0,2,2,105,1,onethree,,,,,,,,,,,,,,,,,,,,,,,,,,,,,,,,,,,,,,,,,,,,,,,,,,,,,,,,,,,,,,,,,,,,,,,,,,,,,,,,,,,,,,,,,,,,,,,,,,,,,,,,,,,,,,,,,,,,,,,,,,,,,,,,,,,,,,,,,,,,,
,,,,,,5fa48feaddfbd812de13f3bb,629c52427194cb9303f1baa8,2022-06-05_08h58.11.819,Colour_Asymmetry_Pilot,2022.1.3,Win32,62.08866261,629c4b6caf241d5e6e00bfc0,0,3,3,81,1,onethree,,,,,,,,,,,,,,,,,,,,,,,,,,,,,,,,,,,,,,,,,,,,,,,,,,,,,,,,,,,,,,,,,,,,,,,,,,,,,,,,,,,,,,,,,,,,,,,,,,,,,,,,,,,,,,,,,,,,,,,,,,,,,,,,,,,,,,,,,,,,,
,,,,,,5fa48feaddfbd812de13f3bb,629c52427194cb9303f1baa8,2022-06-05_08h58.11.819,Colour_Asymmetry_Pilot,2022.1.3,Win32,62.08866261,629c4b6caf241d5e6e00bfc0,0,4,4,12,1,threeone,,,,,,,,,,,,,,,,,,,,,,,,,,,,,,,,,,,,,,,,,,,,,,,,,,,,,,,,,,,,,,,,,,,,,,,,,,,,,,,,,,,,,,,,,,,,,,,,,,,,,,,,,,,,,,,,,,,,,,,,,,,,,,,,,,,,,,,,,,,,,
,,,,,,5fa48feaddfbd812de13f3bb,629c52427194cb9303f1baa8,2022-06-05_08h58.11.819,Colour_Asymmetry_Pilot,2022.1.3,Win32,62.08866261,629c4b6caf241d5e6e00bfc0,0,5,5,149,1,threefour,,,,,,,,,,,,,,,,,,,,,,,,,,,,,,,,,,,,,,,,,,,,,,,,,,,,,,,,,,,,,,,,,,,,,,,,,,,,,,,,,,,,,,,,,,,,,,,,,,,,,,,,,,,,,,,,,,,,,,,,,,,,,,,,,,,,,,,,,,,,,
,,,,,,5fa48feaddfbd812de13f3bb,629c52427194cb9303f1baa8,2022-06-05_08h58.11.819,Colour_Asymmetry_Pilot,2022.1.3,Win32,62.08866261,629c4b6caf241d5e6e00bfc0,0,6,6,21,1,threefour,,,,,,,,,,,,,,,,,,,,,,,,,,,,,,,,,,,,,,,,,,,,,,,,,,,,,,,,,,,,,,,,,,,,,,,,,,,,,,,,,,,,,,,,,,,,,,,,,,,,,,,,,,,,,,,,,,,,,,,,,,,,,,,,,,,,,,,,,,,,,
,,,,,,5fa48feaddfbd812de13f3bb,629c52427194cb9303f1baa8,2022-06-05_08h58.11.819,Colour_Asymmetry_Pilot,2022.1.3,Win32,62.08866261,629c4b6caf241d5e6e00bfc0,0,7,7,76,1,threeone,,,,,,,,,,,,,,,,,,,,,,,,,,,,,,,,,,,,,,,,,,,,,,,,,,,,,,,,,,,,,,,,,,,,,,,,,,,,,,,,,,,,,,,,,,,,,,,,,,,,,,,,,,,,,,,,,,,,,,,,,,,,,,,,,,,,,,,,,,,,,
,,,,,,5fa48feaddfbd812de13f3bb,629c52427194cb9303f1baa8,2022-06-05_08h58.11.819,Colour_Asymmetry_Pilot,2022.1.3,Win32,62.08866261,629c4b6caf241d5e6e00bfc0,0,8,8,151,1,fourthree,,,,,,,,,,,,,,,,,,,,,,,,,,,,,,,,,,,,,,,,,,,,,,,,,,,,,,,,,,,,,,,,,,,,,,,,,,,,,,,,,,,,,,,,,,,,,,,,,,,,,,,,,,,,,,,,,,,,,,,,,,,,,,,,,,,,,,,,,,,,,
,,,,,,5fa48feaddfbd812de13f3bb,629c52427194cb9303f1baa8,2022-06-05_08h58.11.819,Colour_Asymmetry_Pilot,2022.1.3,Win32,62.08866261,629c4b6caf241d5e6e00bfc0,0,9,9,17,1,onethree,,,,,,,,,,,,,,,,,,,,,,,,,,,,,,,,,,,,,,,,,,,,,,,,,,,,,,,,,,,,,,,,,,,,,,,,,,,,,,,,,,,,,,,,,,,,,,,,,,,,,,,,,,,,,,,,,,,,,,,,,,,,,,,,,,,,,,,,,,,,,
,,,,,,5fa48feaddfbd812de13f3bb,629c52427194cb9303f1baa8,2022-06-05_08h58.11.819,Colour_Asymmetry_Pilot,2022.1.3,Win32,62.08866261,629c4b6caf241d5e6e00bfc0,0,10,10,109,1,threefour,,,,,,,,,,,,,,,,,,,,,,,,,,,,,,,,,,,,,,,,,,,,,,,,,,,,,,,,,,,,,,,,,,,,,,,,,,,,,,,,,,,,,,,,,,,,,,,,,,,,,,,,,,,,,,,,,,,,,,,,,,,,,,,,,,,,,,,,,,,,,
,,,,,,5fa48feaddfbd812de13f3bb,629c52427194cb9303f1baa8,2022-06-05_08h58.11.819,Colour_Asymmetry_Pilot,2022.1.3,Win32,62.08866261,629c4b6caf241d5e6e00bfc0,0,11,11,48,1,onetwo,,,,,,,,,,,,,,,,,,,,,,,,,,,,,,,,,,,,,,,,,,,,,,,,,,,,,,,,,,,,,,,,,,,,,,,,,,,,,,,,,,,,,,,,,,,,,,,,,,,,,,,,,,,,,,,,,,,,,,,,,,,,,,,,,,,,,,,,,,,,,
,,,,,,5fa48feaddfbd812de13f3bb,629c52427194cb9303f1baa8,2022-06-05_08h58.11.819,Colour_Asymmetry_Pilot,2022.1.3,Win32,62.08866261,629c4b6caf241d5e6e00bfc0,0,12,12,147,1,twofour,,,,,,,,,,,,,,,,,,,,,,,,,,,,,,,,,,,,,,,,,,,,,,,,,,,,,,,,,,,,,,,,,,,,,,,,,,,,,,,,,,,,,,,,,,,,,,,,,,,,,,,,,,,,,,,,,,,,,,,,,,,,,,,,,,,,,,,,,,,,,
,,,,,,5fa48feaddfbd812de13f3bb,629c52427194cb9303f1baa8,2022-06-05_08h58.11.819,Colour_Asymmetry_Pilot,2022.1.3,Win32,62.08866261,629c4b6caf241d5e6e00bfc0,0,13,13,33,1,onethree,,,,,,,,,,,,,,,,,,,,,,,,,,,,,,,,,,,,,,,,,,,,,,,,,,,,,,,,,,,,,,,,,,,,,,,,,,,,,,,,,,,,,,,,,,,,,,,,,,,,,,,,,,,,,,,,,,,,,,,,,,,,,,,,,,,,,,,,,,,,,
,,,,,,5fa48feaddfbd812de13f3bb,629c52427194cb9303f1baa8,2022-06-05_08h58.11.819,Colour_Asymmetry_Pilot,2022.1.3,Win32,62.08866261,629c4b6caf241d5e6e00bfc0,0,14,14,52,1,threeone,,,,,,,,,,,,,,,,,,,,,,,,,,,,,,,,,,,,,,,,,,,,,,,,,,,,,,,,,,,,,,,,,,,,,,,,,,,,,,,,,,,,,,,,,,,,,,,,,,,,,,,,,,,,,,,,,,,,,,,,,,,,,,,,,,,,,,,,,,,,,
,,,,,,5fa48feaddfbd812de13f3bb,629c52427194cb9303f1baa8,2022-06-05_08h58.11.819,Colour_Asymmetry_Pilot,2022.1.3,Win32,62.08866261,629c4b6caf241d5e6e00bfc0,0,15,15,113,1,onethree,,,,,,,,,,,,,,,,,,,,,,,,,,,,,,,,,,,,,,,,,,,,,,,,,,,,,,,,,,,,,,,,,,,,,,,,,,,,,,,,,,,,,,,,,,,,,,,,,,,,,,,,,,,,,,,,,,,,,,,,,,,,,,,,,,,,,,,,,,,,,
,,,,,,5fa48feaddfbd812de13f3bb,629c52427194cb9303f1baa8,2022-06-05_08h58.11.819,Colour_Asymmetry_Pilot,2022.1.3,Win32,62.08866261,629c4b6caf241d5e6e00bfc0,0,16,16,112,1,onetwo,,,,,,,,,,,,,,,,,,,,,,,,,,,,,,,,,,,,,,,,,,,,,,,,,,,,,,,,,,,,,,,,,,,,,,,,,,,,,,,,,,,,,,,,,,,,,,,,,,,,,,,,,,,,,,,,,,,,,,,,,,,,,,,,,,,,,,,,,,,,,
,,,,,,5fa48feaddfbd812de13f3bb,629c52427194cb9303f1baa8,2022-06-05_08h58.11.819,Colour_Asymmetry_Pilot,2022.1.3,Win32,62.08866261,629c4b6caf241d5e6e00bfc0,0,17,17,92,1,threeone,,,,,,,,,,,,,,,,,,,,,,,,,,,,,,,,,,,,,,,,,,,,,,,,,,,,,,,,,,,,,,,,,,,,,,,,,,,,,,,,,,,,,,,,,,,,,,,,,,,,,,,,,,,,,,,,,,,,,,,,,,,,,,,,,,,,,,,,,,,,,
,,,,,,5fa48feaddfbd812de13f3bb,629c52427194cb9303f1baa8,2022-06-05_08h58.11.819,Colour_Asymmetry_Pilot,2022.1.3,Win32,62.08866261,629c4b6caf241d5e6e00bfc0,0,18,18,32,1,onetwo,,,,,,,,,,,,,,,,,,,,,,,,,,,,,,,,,,,,,,,,,,,,,,,,,,,,,,,,,,,,,,,,,,,,,,,,,,,,,,,,,,,,,,,,,,,,,,,,,,,,,,,,,,,,,,,,,,,,,,,,,,,,,,,,,,,,,,,,,,,,,
,,,,,,5fa48feaddfbd812de13f3bb,629c52427194cb9303f1baa8,2022-06-05_08h58.11.819,Colour_Asymmetry_Pilot,2022.1.3,Win32,62.08866261,629c4b6caf241d5e6e00bfc0,0,19,19,36,1,threeone,,,,,,,,,,,,,,,,,,,,,,,,,,,,,,,,,,,,,,,,,,,,,,,,,,,,,,,,,,,,,,,,,,,,,,,,,,,,,,,,,,,,,,,,,,,,,,,,,,,,,,,,,,,,,,,,,,,,,,,,,,,,,,,,,,,,,,,,,,,,,
,,,,,,5fa48feaddfbd812de13f3bb,629c52427194cb9303f1baa8,2022-06-05_08h58.11.819,Colour_Asymmetry_Pilot,2022.1.3,Win32,62.08866261,629c4b6caf241d5e6e00bfc0,0,20,20,138,1,twoone,,,,,,,,,,,,,,,,,,,,,,,,,,,,,,,,,,,,,,,,,,,,,,,,,,,,,,,,,,,,,,,,,,,,,,,,,,,,,,,,,,,,,,,,,,,,,,,,,,,,,,,,,,,,,,,,,,,,,,,,,,,,,,,,,,,,,,,,,,,,,
,,,,,,5fa48feaddfbd812de13f3bb,629c52427194cb9303f1baa8,2022-06-05_08h58.11.819,Colour_Asymmetry_Pilot,2022.1.3,Win32,62.08866261,629c4b6caf241d5e6e00bfc0,0,21,21,79,1,fourthree,,,,,,,,,,,,,,,,,,,,,,,,,,,,,,,,,,,,,,,,,,,,,,,,,,,,,,,,,,,,,,,,,,,,,,,,,,,,,,,,,,,,,,,,,,,,,,,,,,,,,,,,,,,,,,,,,,,,,,,,,,,,,,,,,,,,,,,,,,,,,
,,,,,,5fa48feaddfbd812de13f3bb,629c52427194cb9303f1baa8,2022-06-05_08h58.11.819,Colour_Asymmetry_Pilot,2022.1.3,Win32,62.08866261,629c4b6caf241d5e6e00bfc0,0,22,22,160,1,onetwo,,,,,,,,,,,,,,,,,,,,,,,,,,,,,,,,,,,,,,,,,,,,,,,,,,,,,,,,,,,,,,,,,,,,,,,,,,,,,,,,,,,,,,,,,,,,,,,,,,,,,,,,,,,,,,,,,,,,,,,,,,,,,,,,,,,,,,,,,,,,,
,,,,,,5fa48feaddfbd812de13f3bb,629c52427194cb9303f1baa8,2022-06-05_08h58.11.819,Colour_Asymmetry_Pilot,2022.1.3,Win32,62.08866261,629c4b6caf241d5e6e00bfc0,0,23,23,84,1,threeone,,,,,,,,,,,,,,,,,,,,,,,,,,,,,,,,,,,,,,,,,,,,,,,,,,,,,,,,,,,,,,,,,,,,,,,,,,,,,,,,,,,,,,,,,,,,,,,,,,,,,,,,,,,,,,,,,,,,,,,,,,,,,,,,,,,,,,,,,,,,,
,,,,,,5fa48feaddfbd812de13f3bb,629c52427194cb9303f1baa8,2022-06-05_08h58.11.819,Colour_Asymmetry_Pilot,2022.1.3,Win32,62.08866261,629c4b6caf241d5e6e00bfc0,0,24,24,135,1,fourthree,,,,,,,,,,,,,,,,,,,,,,,,,,,,,,,,,,,,,,,,,,,,,,,,,,,,,,,,,,,,,,,,,,,,,,,,,,,,,,,,,,,,,,,,,,,,,,,,,,,,,,,,,,,,,,,,,,,,,,,,,,,,,,,,,,,,,,,,,,,,,
,,,,,,5fa48feaddfbd812de13f3bb,629c52427194cb9303f1baa8,2022-06-05_08h58.11.819,Colour_Asymmetry_Pilot,2022.1.3,Win32,62.08866261,629c4b6caf241d5e6e00bfc0,0,25,25,9,1,onethree,,,,,,,,,,,,,,,,,,,,,,,,,,,,,,,,,,,,,,,,,,,,,,,,,,,,,,,,,,,,,,,,,,,,,,,,,,,,,,,,,,,,,,,,,,,,,,,,,,,,,,,,,,,,,,,,,,,,,,,,,,,,,,,,,,,,,,,,,,,,,
,,,,,,5fa48feaddfbd812de13f3bb,629c52427194cb9303f1baa8,2022-06-05_08h58.11.819,Colour_Asymmetry_Pilot,2022.1.3,Win32,62.08866261,629c4b6caf241d5e6e00bfc0,0,26,26,63,1,fourthree,,,,,,,,,,,,,,,,,,,,,,,,,,,,,,,,,,,,,,,,,,,,,,,,,,,,,,,,,,,,,,,,,,,,,,,,,,,,,,,,,,,,,,,,,,,,,,,,,,,,,,,,,,,,,,,,,,,,,,,,,,,,,,,,,,,,,,,,,,,,,
,,,,,,5fa48feaddfbd812de13f3bb,629c52427194cb9303f1baa8,2022-06-05_08h58.11.819,Colour_Asymmetry_Pilot,2022.1.3,Win32,62.08866261,629c4b6caf241d5e6e00bfc0,0,27,27,23,1,fourthree,,,,,,,,,,,,,,,,,,,,,,,,,,,,,,,,,,,,,,,,,,,,,,,,,,,,,,,,,,,,,,,,,,,,,,,,,,,,,,,,,,,,,,,,,,,,,,,,,,,,,,,,,,,,,,,,,,,,,,,,,,,,,,,,,,,,,,,,,,,,,
,,,,,,5fa48feaddfbd812de13f3bb,629c52427194cb9303f1baa8,2022-06-05_08h58.11.819,Colour_Asymmetry_Pilot,2022.1.3,Win32,62.08866261,629c4b6caf241d5e6e00bfc0,0,28,28,77,1,threefour,,,,,,,,,,,,,,,,,,,,,,,,,,,,,,,,,,,,,,,,,,,,,,,,,,,,,,,,,,,,,,,,,,,,,,,,,,,,,,,,,,,,,,,,,,,,,,,,,,,,,,,,,,,,,,,,,,,,,,,,,,,,,,,,,,,,,,,,,,,,,
,,,,,,5fa48feaddfbd812de13f3bb,629c52427194cb9303f1baa8,2022-06-05_08h58.11.819,Colour_Asymmetry_Pilot,2022.1.3,Win32,62.08866261,629c4b6caf241d5e6e00bfc0,0,29,29,68,1,threeone,,,,,,,,,,,,,,,,,,,,,,,,,,,,,,,,,,,,,,,,,,,,,,,,,,,,,,,,,,,,,,,,,,,,,,,,,,,,,,,,,,,,,,,,,,,,,,,,,,,,,,,,,,,,,,,,,,,,,,,,,,,,,,,,,,,,,,,,,,,,,
,,,,,,5fa48feaddfbd812de13f3bb,629c52427194cb9303f1baa8,2022-06-05_08h58.11.819,Colour_Asymmetry_Pilot,2022.1.3,Win32,62.08866261,629c4b6caf241d5e6e00bfc0,0,30,30,108,1,threeone,,,,,,,,,,,,,,,,,,,,,,,,,,,,,,,,,,,,,,,,,,,,,,,,,,,,,,,,,,,,,,,,,,,,,,,,,,,,,,,,,,,,,,,,,,,,,,,,,,,,,,,,,,,,,,,,,,,,,,,,,,,,,,,,,,,,,,,,,,,,,
,,,,,,5fa48feaddfbd812de13f3bb,629c52427194cb9303f1baa8,2022-06-05_08h58.11.819,Colour_Asymmetry_Pilot,2022.1.3,Win32,62.08866261,629c4b6caf241d5e6e00bfc0,0,31,31,25,1,onethree,,,,,,,,,,,,,,,,,,,,,,,,,,,,,,,,,,,,,,,,,,,,,,,,,,,,,,,,,,,,,,,,,,,,,,,,,,,,,,,,,,,,,,,,,,,,,,,,,,,,,,,,,,,,,,,,,,,,,,,,,,,,,,,,,,,,,,,,,,,,,
,,,,,,5fa48feaddfbd812de13f3bb,629c52427194cb9303f1baa8,2022-06-05_08h58.11.819,Colour_Asymmetry_Pilot,2022.1.3,Win32,62.08866261,629c4b6caf241d5e6e00bfc0,0,32,32,75,1,twofour,,,,,,,,,,,,,,,,,,,,,,,,,,,,,,,,,,,,,,,,,,,,,,,,,,,,,,,,,,,,,,,,,,,,,,,,,,,,,,,,,,,,,,,,,,,,,,,,,,,,,,,,,,,,,,,,,,,,,,,,,,,,,,,,,,,,,,,,,,,,,
,,,,,,5fa48feaddfbd812de13f3bb,629c52427194cb9303f1baa8,2022-06-05_08h58.11.819,Colour_Asymmetry_Pilot,2022.1.3,Win32,62.08866261,629c4b6caf241d5e6e00bfc0,0,33,33,99,1,twofour,,,,,,,,,,,,,,,,,,,,,,,,,,,,,,,,,,,,,,,,,,,,,,,,,,,,,,,,,,,,,,,,,,,,,,,,,,,,,,,,,,,,,,,,,,,,,,,,,,,,,,,,,,,,,,,,,,,,,,,,,,,,,,,,,,,,,,,,,,,,,
,,,,,,5fa48feaddfbd812de13f3bb,629c52427194cb9303f1baa8,2022-06-05_08h58.11.819,Colour_Asymmetry_Pilot,2022.1.3,Win32,62.08866261,629c4b6caf241d5e6e00bfc0,0,34,34,93,1,threefour,,,,,,,,,,,,,,,,,,,,,,,,,,,,,,,,,,,,,,,,,,,,,,,,,,,,,,,,,,,,,,,,,,,,,,,,,,,,,,,,,,,,,,,,,,,,,,,,,,,,,,,,,,,,,,,,,,,,,,,,,,,,,,,,,,,,,,,,,,,,,
,,,,,,5fa48feaddfbd812de13f3bb,629c52427194cb9303f1baa8,2022-06-05_08h58.11.819,Colour_Asymmetry_Pilot,2022.1.3,Win32,62.08866261,629c4b6caf241d5e6e00bfc0,0,35,35,35,1,twofour,,,,,,,,,,,,,,,,,,,,,,,,,,,,,,,,,,,,,,,,,,,,,,,,,,,,,,,,,,,,,,,,,,,,,,,,,,,,,,,,,,,,,,,,,,,,,,,,,,,,,,,,,,,,,,,,,,,,,,,,,,,,,,,,,,,,,,,,,,,,,
,,,,,,5fa48feaddfbd812de13f3bb,629c52427194cb9303f1baa8,2022-06-05_08h58.11.819,Colour_Asymmetry_Pilot,2022.1.3,Win32,62.08866261,629c4b6caf241d5e6e00bfc0,0,36,36,8,1,onetwo,,,,,,,,,,,,,,,,,,,,,,,,,,,,,,,,,,,,,,,,,,,,,,,,,,,,,,,,,,,,,,,,,,,,,,,,,,,,,,,,,,,,,,,,,,,,,,,,,,,,,,,,,,,,,,,,,,,,,,,,,,,,,,,,,,,,,,,,,,,,,
,,,,,,5fa48feaddfbd812de13f3bb,629c52427194cb9303f1baa8,2022-06-05_08h58.11.819,Colour_Asymmetry_Pilot,2022.1.3,Win32,62.08866261,629c4b6caf241d5e6e00bfc0,0,37,37,49,1,onethree,,,,,,,,,,,,,,,,,,,,,,,,,,,,,,,,,,,,,,,,,,,,,,,,,,,,,,,,,,,,,,,,,,,,,,,,,,,,,,,,,,,,,,,,,,,,,,,,,,,,,,,,,,,,,,,,,,,,,,,,,,,,,,,,,,,,,,,,,,,,,
,,,,,,5fa48feaddfbd812de13f3bb,629c52427194cb9303f1baa8,2022-06-05_08h58.11.819,Colour_Asymmetry_Pilot,2022.1.3,Win32,62.08866261,629c4b6caf241d5e6e00bfc0,0,38,38,29,1,threefour,,,,,,,,,,,,,,,,,,,,,,,,,,,,,,,,,,,,,,,,,,,,,,,,,,,,,,,,,,,,,,,,,,,,,,,,,,,,,,,,,,,,,,,,,,,,,,,,,,,,,,,,,,,,,,,,,,,,,,,,,,,,,,,,,,,,,,,,,,,,,
,,,,,,5fa48feaddfbd812de13f3bb,629c52427194cb9303f1baa8,2022-06-05_08h58.11.819,Colour_Asymmetry_Pilot,2022.1.3,Win32,62.08866261,629c4b6caf241d5e6e00bfc0,0,39,39,91,1,twofour,,,,,,,,,,,,,,,,,,,,,,,,,,,,,,,,,,,,,,,,,,,,,,,,,,,,,,,,,,,,,,,,,,,,,,,,,,,,,,,,,,,,,,,,,,,,,,,,,,,,,,,,,,,,,,,,,,,,,,,,,,,,,,,,,,,,,,,,,,,,,
,,,,,,5fa48feaddfbd812de13f3bb,629c52427194cb9303f1baa8,2022-06-05_08h58.11.819,Colour_Asymmetry_Pilot,2022.1.3,Win32,62.08866261,629c4b6caf241d5e6e00bfc0,0,40,40,145,1,onethree,,,,,,,,,,,,,,,,,,,,,,,,,,,,,,,,,,,,,,,,,,,,,,,,,,,,,,,,,,,,,,,,,,,,,,,,,,,,,,,,,,,,,,,,,,,,,,,,,,,,,,,,,,,,,,,,,,,,,,,,,,,,,,,,,,,,,,,,,,,,,
,,,,,,5fa48feaddfbd812de13f3bb,629c52427194cb9303f1baa8,2022-06-05_08h58.11.819,Colour_Asymmetry_Pilot,2022.1.3,Win32,62.08866261,629c4b6caf241d5e6e00bfc0,0,41,41,139,1,twofour,,,,,,,,,,,,,,,,,,,,,,,,,,,,,,,,,,,,,,,,,,,,,,,,,,,,,,,,,,,,,,,,,,,,,,,,,,,,,,,,,,,,,,,,,,,,,,,,,,,,,,,,,,,,,,,,,,,,,,,,,,,,,,,,,,,,,,,,,,,,,
,,,,,,5fa48feaddfbd812de13f3bb,629c52427194cb9303f1baa8,2022-06-05_08h58.11.819,Colour_Asymmetry_Pilot,2022.1.3,Win32,62.08866261,629c4b6caf241d5e6e00bfc0,0,42,42,6,1,fourtwo,,,,,,,,,,,,,,,,,,,,,,,,,,,,,,,,,,,,,,,,,,,,,,,,,,,,,,,,,,,,,,,,,,,,,,,,,,,,,,,,,,,,,,,,,,,,,,,,,,,,,,,,,,,,,,,,,,,,,,,,,,,,,,,,,,,,,,,,,,,,,
,,,,,,5fa48feaddfbd812de13f3bb,629c52427194cb9303f1baa8,2022-06-05_08h58.11.819,Colour_Asymmetry_Pilot,2022.1.3,Win32,62.08866261,629c4b6caf241d5e6e00bfc0,0,43,43,60,1,threeone,,,,,,,,,,,,,,,,,,,,,,,,,,,,,,,,,,,,,,,,,,,,,,,,,,,,,,,,,,,,,,,,,,,,,,,,,,,,,,,,,,,,,,,,,,,,,,,,,,,,,,,,,,,,,,,,,,,,,,,,,,,,,,,,,,,,,,,,,,,,,
,,,,,,5fa48feaddfbd812de13f3bb,629c52427194cb9303f1baa8,2022-06-05_08h58.11.819,Colour_Asymmetry_Pilot,2022.1.3,Win32,62.08866261,629c4b6caf241d5e6e00bfc0,0,44,44,150,1,fourtwo,,,,,,,,,,,,,,,,,,,,,,,,,,,,,,,,,,,,,,,,,,,,,,,,,,,,,,,,,,,,,,,,,,,,,,,,,,,,,,,,,,,,,,,,,,,,,,,,,,,,,,,,,,,,,,,,,,,,,,,,,,,,,,,,,,,,,,,,,,,,,
,,,,,,5fa48feaddfbd812de13f3bb,629c52427194cb9303f1baa8,2022-06-05_08h58.11.819,Colour_Asymmetry_Pilot,2022.1.3,Win32,62.08866261,629c4b6caf241d5e6e00bfc0,0,45,45,122,1,twoone,,,,,,,,,,,,,,,,,,,,,,,,,,,,,,,,,,,,,,,,,,,,,,,,,,,,,,,,,,,,,,,,,,,,,,,,,,,,,,,,,,,,,,,,,,,,,,,,,,,,,,,,,,,,,,,,,,,,,,,,,,,,,,,,,,,,,,,,,,,,,
,,,,,,5fa48feaddfbd812de13f3bb,629c52427194cb9303f1baa8,2022-06-05_08h58.11.819,Colour_Asymmetry_Pilot,2022.1.3,Win32,62.08866261,629c4b6caf241d5e6e00bfc0,0,46,46,95,1,fourthree,,,,,,,,,,,,,,,,,,,,,,,,,,,,,,,,,,,,,,,,,,,,,,,,,,,,,,,,,,,,,,,,,,,,,,,,,,,,,,,,,,,,,,,,,,,,,,,,,,,,,,,,,,,,,,,,,,,,,,,,,,,,,,,,,,,,,,,,,,,,,
,,,,,,5fa48feaddfbd812de13f3bb,629c52427194cb9303f1baa8,2022-06-05_08h58.11.819,Colour_Asymmetry_Pilot,2022.1.3,Win32,62.08866261,629c4b6caf241d5e6e00bfc0,0,47,47,143,1,fourthree,,,,,,,,,,,,,,,,,,,,,,,,,,,,,,,,,,,,,,,,,,,,,,,,,,,,,,,,,,,,,,,,,,,,,,,,,,,,,,,,,,,,,,,,,,,,,,,,,,,,,,,,,,,,,,,,,,,,,,,,,,,,,,,,,,,,,,,,,,,,,
,,,,,,5fa48feaddfbd812de13f3bb,629c52427194cb9303f1baa8,2022-06-05_08h58.11.819,Colour_Asymmetry_Pilot,2022.1.3,Win32,62.08866261,629c4b6caf241d5e6e00bfc0,0,48,48,120,1,onetwo,,,,,,,,,,,,,,,,,,,,,,,,,,,,,,,,,,,,,,,,,,,,,,,,,,,,,,,,,,,,,,,,,,,,,,,,,,,,,,,,,,,,,,,,,,,,,,,,,,,,,,,,,,,,,,,,,,,,,,,,,,,,,,,,,,,,,,,,,,,,,
,,,,,,5fa48feaddfbd812de13f3bb,629c52427194cb9303f1baa8,2022-06-05_08h58.11.819,Colour_Asymmetry_Pilot,2022.1.3,Win32,62.08866261,629c4b6caf241d5e6e00bfc0,0,49,49,111,1,fourthree,,,,,,,,,,,,,,,,,,,,,,,,,,,,,,,,,,,,,,,,,,,,,,,,,,,,,,,,,,,,,,,,,,,,,,,,,,,,,,,,,,,,,,,,,,,,,,,,,,,,,,,,,,,,,,,,,,,,,,,,,,,,,,,,,,,,,,,,,,,,,
,,,,,,5fa48feaddfbd812de13f3bb,629c52427194cb9303f1baa8,2022-06-05_08h58.11.819,Colour_Asymmetry_Pilot,2022.1.3,Win32,62.08866261,629c4b6caf241d5e6e00bfc0,0,50,50,153,1,onethree,,,,,,,,,,,,,,,,,,,,,,,,,,,,,,,,,,,,,,,,,,,,,,,,,,,,,,,,,,,,,,,,,,,,,,,,,,,,,,,,,,,,,,,,,,,,,,,,,,,,,,,,,,,,,,,,,,,,,,,,,,,,,,,,,,,,,,,,,,,,,
,,,,,,5fa48feaddfbd812de13f3bb,629c52427194cb9303f1baa8,2022-06-05_08h58.11.819,Colour_Asymmetry_Pilot,2022.1.3,Win32,62.08866261,629c4b6caf241d5e6e00bfc0,0,51,51,124,1,threeone,,,,,,,,,,,,,,,,,,,,,,,,,,,,,,,,,,,,,,,,,,,,,,,,,,,,,,,,,,,,,,,,,,,,,,,,,,,,,,,,,,,,,,,,,,,,,,,,,,,,,,,,,,,,,,,,,,,,,,,,,,,,,,,,,,,,,,,,,,,,,
,,,,,,5fa48feaddfbd812de13f3bb,629c52427194cb9303f1baa8,2022-06-05_08h58.11.819,Colour_Asymmetry_Pilot,2022.1.3,Win32,62.08866261,629c4b6caf241d5e6e00bfc0,0,52,52,66,1,twoone,,,,,,,,,,,,,,,,,,,,,,,,,,,,,,,,,,,,,,,,,,,,,,,,,,,,,,,,,,,,,,,,,,,,,,,,,,,,,,,,,,,,,,,,,,,,,,,,,,,,,,,,,,,,,,,,,,,,,,,,,,,,,,,,,,,,,,,,,,,,,
,,,,,,5fa48feaddfbd812de13f3bb,629c52427194cb9303f1baa8,2022-06-05_08h58.11.819,Colour_Asymmetry_Pilot,2022.1.3,Win32,62.08866261,629c4b6caf241d5e6e00bfc0,0,53,53,31,1,fourthree,,,,,,,,,,,,,,,,,,,,,,,,,,,,,,,,,,,,,,,,,,,,,,,,,,,,,,,,,,,,,,,,,,,,,,,,,,,,,,,,,,,,,,,,,,,,,,,,,,,,,,,,,,,,,,,,,,,,,,,,,,,,,,,,,,,,,,,,,,,,,
,,,,,,5fa48feaddfbd812de13f3bb,629c52427194cb9303f1baa8,2022-06-05_08h58.11.819,Colour_Asymmetry_Pilot,2022.1.3,Win32,62.08866261,629c4b6caf241d5e6e00bfc0,0,54,54,132,1,threeone,,,,,,,,,,,,,,,,,,,,,,,,,,,,,,,,,,,,,,,,,,,,,,,,,,,,,,,,,,,,,,,,,,,,,,,,,,,,,,,,,,,,,,,,,,,,,,,,,,,,,,,,,,,,,,,,,,,,,,,,,,,,,,,,,,,,,,,,,,,,,
,,,,,,5fa48feaddfbd812de13f3bb,629c52427194cb9303f1baa8,2022-06-05_08h58.11.819,Colour_Asymmetry_Pilot,2022.1.3,Win32,62.08866261,629c4b6caf241d5e6e00bfc0,0,55,55,158,1,fourtwo,,,,,,,,,,,,,,,,,,,,,,,,,,,,,,,,,,,,,,,,,,,,,,,,,,,,,,,,,,,,,,,,,,,,,,,,,,,,,,,,,,,,,,,,,,,,,,,,,,,,,,,,,,,,,,,,,,,,,,,,,,,,,,,,,,,,,,,,,,,,,
,,,,,,5fa48feaddfbd812de13f3bb,629c52427194cb9303f1baa8,2022-06-05_08h58.11.819,Colour_Asymmetry_Pilot,2022.1.3,Win32,62.08866261,629c4b6caf241d5e6e00bfc0,0,56,56,73,1,onethree,,,,,,,,,,,,,,,,,,,,,,,,,,,,,,,,,,,,,,,,,,,,,,,,,,,,,,,,,,,,,,,,,,,,,,,,,,,,,,,,,,,,,,,,,,,,,,,,,,,,,,,,,,,,,,,,,,,,,,,,,,,,,,,,,,,,,,,,,,,,,
,,,,,,5fa48feaddfbd812de13f3bb,629c52427194cb9303f1baa8,2022-06-05_08h58.11.819,Colour_Asymmetry_Pilot,2022.1.3,Win32,62.08866261,629c4b6caf241d5e6e00bfc0,0,57,57,40,1,onetwo,,,,,,,,,,,,,,,,,,,,,,,,,,,,,,,,,,,,,,,,,,,,,,,,,,,,,,,,,,,,,,,,,,,,,,,,,,,,,,,,,,,,,,,,,,,,,,,,,,,,,,,,,,,,,,,,,,,,,,,,,,,,,,,,,,,,,,,,,,,,,
,,,,,,5fa48feaddfbd812de13f3bb,629c52427194cb9303f1baa8,2022-06-05_08h58.11.819,Colour_Asymmetry_Pilot,2022.1.3,Win32,62.08866261,629c4b6caf241d5e6e00bfc0,0,58,58,141,1,threefour,,,,,,,,,,,,,,,,,,,,,,,,,,,,,,,,,,,,,,,,,,,,,,,,,,,,,,,,,,,,,,,,,,,,,,,,,,,,,,,,,,,,,,,,,,,,,,,,,,,,,,,,,,,,,,,,,,,,,,,,,,,,,,,,,,,,,,,,,,,,,
,,,,,,5fa48feaddfbd812de13f3bb,629c52427194cb9303f1baa8,2022-06-05_08h58.11.819,Colour_Asymmetry_Pilot,2022.1.3,Win32,62.08866261,629c4b6caf241d5e6e00bfc0,0,59,59,107,1,twofour,,,,,,,,,,,,,,,,,,,,,,,,,,,,,,,,,,,,,,,,,,,,,,,,,,,,,,,,,,,,,,,,,,,,,,,,,,,,,,,,,,,,,,,,,,,,,,,,,,,,,,,,,,,,,,,,,,,,,,,,,,,,,,,,,,,,,,,,,,,,,
,,,,,,5fa48feaddfbd812de13f3bb,629c52427194cb9303f1baa8,2022-06-05_08h58.11.819,Colour_Asymmetry_Pilot,2022.1.3,Win32,62.08866261,629c4b6caf241d5e6e00bfc0,0,60,60,45,1,threefour,,,,,,,,,,,,,,,,,,,,,,,,,,,,,,,,,,,,,,,,,,,,,,,,,,,,,,,,,,,,,,,,,,,,,,,,,,,,,,,,,,,,,,,,,,,,,,,,,,,,,,,,,,,,,,,,,,,,,,,,,,,,,,,,,,,,,,,,,,,,,
,,,,,,5fa48feaddfbd812de13f3bb,629c52427194cb9303f1baa8,2022-06-05_08h58.11.819,Colour_Asymmetry_Pilot,2022.1.3,Win32,62.08866261,629c4b6caf241d5e6e00bfc0,0,61,61,61,1,threefour,,,,,,,,,,,,,,,,,,,,,,,,,,,,,,,,,,,,,,,,,,,,,,,,,,,,,,,,,,,,,,,,,,,,,,,,,,,,,,,,,,,,,,,,,,,,,,,,,,,,,,,,,,,,,,,,,,,,,,,,,,,,,,,,,,,,,,,,,,,,,
,,,,,,5fa48feaddfbd812de13f3bb,629c52427194cb9303f1baa8,2022-06-05_08h58.11.819,Colour_Asymmetry_Pilot,2022.1.3,Win32,62.08866261,629c4b6caf241d5e6e00bfc0,0,62,62,127,1,fourthree,,,,,,,,,,,,,,,,,,,,,,,,,,,,,,,,,,,,,,,,,,,,,,,,,,,,,,,,,,,,,,,,,,,,,,,,,,,,,,,,,,,,,,,,,,,,,,,,,,,,,,,,,,,,,,,,,,,,,,,,,,,,,,,,,,,,,,,,,,,,,
,,,,,,5fa48feaddfbd812de13f3bb,629c52427194cb9303f1baa8,2022-06-05_08h58.11.819,Colour_Asymmetry_Pilot,2022.1.3,Win32,62.08866261,629c4b6caf241d5e6e00bfc0,0,63,63,89,1,onethree,,,,,,,,,,,,,,,,,,,,,,,,,,,,,,,,,,,,,,,,,,,,,,,,,,,,,,,,,,,,,,,,,,,,,,,,,,,,,,,,,,,,,,,,,,,,,,,,,,,,,,,,,,,,,,,,,,,,,,,,,,,,,,,,,,,,,,,,,,,,,
,,,,,,5fa48feaddfbd812de13f3bb,629c52427194cb9303f1baa8,2022-06-05_08h58.11.819,Colour_Asymmetry_Pilot,2022.1.3,Win32,62.08866261,629c4b6caf241d5e6e00bfc0,0,64,64,137,1,onethree,,,,,,,,,,,,,,,,,,,,,,,,,,,,,,,,,,,,,,,,,,,,,,,,,,,,,,,,,,,,,,,,,,,,,,,,,,,,,,,,,,,,,,,,,,,,,,,,,,,,,,,,,,,,,,,,,,,,,,,,,,,,,,,,,,,,,,,,,,,,,
,,,,,,5fa48feaddfbd812de13f3bb,629c52427194cb9303f1baa8,2022-06-05_08h58.11.819,Colour_Asymmetry_Pilot,2022.1.3,Win32,62.08866261,629c4b6caf241d5e6e00bfc0,0,65,65,39,1,fourthree,,,,,,,,,,,,,,,,,,,,,,,,,,,,,,,,,,,,,,,,,,,,,,,,,,,,,,,,,,,,,,,,,,,,,,,,,,,,,,,,,,,,,,,,,,,,,,,,,,,,,,,,,,,,,,,,,,,,,,,,,,,,,,,,,,,,,,,,,,,,,
,,,,,,5fa48feaddfbd812de13f3bb,629c52427194cb9303f1baa8,2022-06-05_08h58.11.819,Colour_Asymmetry_Pilot,2022.1.3,Win32,62.08866261,629c4b6caf241d5e6e00bfc0,0,66,66,22,1,fourtwo,,,,,,,,,,,,,,,,,,,,,,,,,,,,,,,,,,,,,,,,,,,,,,,,,,,,,,,,,,,,,,,,,,,,,,,,,,,,,,,,,,,,,,,,,,,,,,,,,,,,,,,,,,,,,,,,,,,,,,,,,,,,,,,,,,,,,,,,,,,,,
,,,,,,5fa48feaddfbd812de13f3bb,629c52427194cb9303f1baa8,2022-06-05_08h58.11.819,Colour_Asymmetry_Pilot,2022.1.3,Win32,62.08866261,629c4b6caf241d5e6e00bfc0,0,67,67,100,1,threeone,,,,,,,,,,,,,,,,,,,,,,,,,,,,,,,,,,,,,,,,,,,,,,,,,,,,,,,,,,,,,,,,,,,,,,,,,,,,,,,,,,,,,,,,,,,,,,,,,,,,,,,,,,,,,,,,,,,,,,,,,,,,,,,,,,,,,,,,,,,,,
,,,,,,5fa48feaddfbd812de13f3bb,629c52427194cb9303f1baa8,2022-06-05_08h58.11.819,Colour_Asymmetry_Pilot,2022.1.3,Win32,62.08866261,629c4b6caf241d5e6e00bfc0,0,68,68,0,1,onetwo,,,,,,,,,,,,,,,,,,,,,,,,,,,,,,,,,,,,,,,,,,,,,,,,,,,,,,,,,,,,,,,,,,,,,,,,,,,,,,,,,,,,,,,,,,,,,,,,,,,,,,,,,,,,,,,,,,,,,,,,,,,,,,,,,,,,,,,,,,,,,
,,,,,,5fa48feaddfbd812de13f3bb,629c52427194cb9303f1baa8,2022-06-05_08h58.11.819,Colour_Asymmetry_Pilot,2022.1.3,Win32,62.08866261,629c4b6caf241d5e6e00bfc0,0,69,69,58,1,twoone,,,,,,,,,,,,,,,,,,,,,,,,,,,,,,,,,,,,,,,,,,,,,,,,,,,,,,,,,,,,,,,,,,,,,,,,,,,,,,,,,,,,,,,,,,,,,,,,,,,,,,,,,,,,,,,,,,,,,,,,,,,,,,,,,,,,,,,,,,,,,
,,,,,,5fa48feaddfbd812de13f3bb,629c52427194cb9303f1baa8,2022-06-05_08h58.11.819,Colour_Asymmetry_Pilot,2022.1.3,Win32,62.08866261,629c4b6caf241d5e6e00bfc0,0,70,70,16,1,onetwo,,,,,,,,,,,,,,,,,,,,,,,,,,,,,,,,,,,,,,,,,,,,,,,,,,,,,,,,,,,,,,,,,,,,,,,,,,,,,,,,,,,,,,,,,,,,,,,,,,,,,,,,,,,,,,,,,,,,,,,,,,,,,,,,,,,,,,,,,,,,,
,,,,,,5fa48feaddfbd812de13f3bb,629c52427194cb9303f1baa8,2022-06-05_08h58.11.819,Colour_Asymmetry_Pilot,2022.1.3,Win32,62.08866261,629c4b6caf241d5e6e00bfc0,0,71,71,51,1,twofour,,,,,,,,,,,,,,,,,,,,,,,,,,,,,,,,,,,,,,,,,,,,,,,,,,,,,,,,,,,,,,,,,,,,,,,,,,,,,,,,,,,,,,,,,,,,,,,,,,,,,,,,,,,,,,,,,,,,,,,,,,,,,,,,,,,,,,,,,,,,,
,,,,,,5fa48feaddfbd812de13f3bb,629c52427194cb9303f1baa8,2022-06-05_08h58.11.819,Colour_Asymmetry_Pilot,2022.1.3,Win32,62.08866261,629c4b6caf241d5e6e00bfc0,0,72,72,26,1,twoone,,,,,,,,,,,,,,,,,,,,,,,,,,,,,,,,,,,,,,,,,,,,,,,,,,,,,,,,,,,,,,,,,,,,,,,,,,,,,,,,,,,,,,,,,,,,,,,,,,,,,,,,,,,,,,,,,,,,,,,,,,,,,,,,,,,,,,,,,,,,,
,,,,,,5fa48feaddfbd812de13f3bb,629c52427194cb9303f1baa8,2022-06-05_08h58.11.819,Colour_Asymmetry_Pilot,2022.1.3,Win32,62.08866261,629c4b6caf241d5e6e00bfc0,0,73,73,148,1,threeone,,,,,,,,,,,,,,,,,,,,,,,,,,,,,,,,,,,,,,,,,,,,,,,,,,,,,,,,,,,,,,,,,,,,,,,,,,,,,,,,,,,,,,,,,,,,,,,,,,,,,,,,,,,,,,,,,,,,,,,,,,,,,,,,,,,,,,,,,,,,,
,,,,,,5fa48feaddfbd812de13f3bb,629c52427194cb9303f1baa8,2022-06-05_08h58.11.819,Colour_Asymmetry_Pilot,2022.1.3,Win32,62.08866261,629c4b6caf241d5e6e00bfc0,0,74,74,128,1,onetwo,,,,,,,,,,,,,,,,,,,,,,,,,,,,,,,,,,,,,,,,,,,,,,,,,,,,,,,,,,,,,,,,,,,,,,,,,,,,,,,,,,,,,,,,,,,,,,,,,,,,,,,,,,,,,,,,,,,,,,,,,,,,,,,,,,,,,,,,,,,,,
,,,,,,5fa48feaddfbd812de13f3bb,629c52427194cb9303f1baa8,2022-06-05_08h58.11.819,Colour_Asymmetry_Pilot,2022.1.3,Win32,62.08866261,629c4b6caf241d5e6e00bfc0,0,75,75,133,1,threefour,,,,,,,,,,,,,,,,,,,,,,,,,,,,,,,,,,,,,,,,,,,,,,,,,,,,,,,,,,,,,,,,,,,,,,,,,,,,,,,,,,,,,,,,,,,,,,,,,,,,,,,,,,,,,,,,,,,,,,,,,,,,,,,,,,,,,,,,,,,,,
,,,,,,5fa48feaddfbd812de13f3bb,629c52427194cb9303f1baa8,2022-06-05_08h58.11.819,Colour_Asymmetry_Pilot,2022.1.3,Win32,62.08866261,629c4b6caf241d5e6e00bfc0,0,76,76,126,1,fourtwo,,,,,,,,,,,,,,,,,,,,,,,,,,,,,,,,,,,,,,,,,,,,,,,,,,,,,,,,,,,,,,,,,,,,,,,,,,,,,,,,,,,,,,,,,,,,,,,,,,,,,,,,,,,,,,,,,,,,,,,,,,,,,,,,,,,,,,,,,,,,,
,,,,,,5fa48feaddfbd812de13f3bb,629c52427194cb9303f1baa8,2022-06-05_08h58.11.819,Colour_Asymmetry_Pilot,2022.1.3,Win32,62.08866261,629c4b6caf241d5e6e00bfc0,0,77,77,117,1,threefour,,,,,,,,,,,,,,,,,,,,,,,,,,,,,,,,,,,,,,,,,,,,,,,,,,,,,,,,,,,,,,,,,,,,,,,,,,,,,,,,,,,,,,,,,,,,,,,,,,,,,,,,,,,,,,,,,,,,,,,,,,,,,,,,,,,,,,,,,,,,,
,,,,,,5fa48feaddfbd812de13f3bb,629c52427194cb9303f1baa8,2022-06-05_08h58.11.819,Colour_Asymmetry_Pilot,2022.1.3,Win32,62.08866261,629c4b6caf241d5e6e00bfc0,0,78,78,115,1,twofour,,,,,,,,,,,,,,,,,,,,,,,,,,,,,,,,,,,,,,,,,,,,,,,,,,,,,,,,,,,,,,,,,,,,,,,,,,,,,,,,,,,,,,,,,,,,,,,,,,,,,,,,,,,,,,,,,,,,,,,,,,,,,,,,,,,,,,,,,,,,,
,,,,,,5fa48feaddfbd812de13f3bb,629c52427194cb9303f1baa8,2022-06-05_08h58.11.819,Colour_Asymmetry_Pilot,2022.1.3,Win32,62.08866261,629c4b6caf241d5e6e00bfc0,0,79,79,18,1,twoone,,,,,,,,,,,,,,,,,,,,,,,,,,,,,,,,,,,,,,,,,,,,,,,,,,,,,,,,,,,,,,,,,,,,,,,,,,,,,,,,,,,,,,,,,,,,,,,,,,,,,,,,,,,,,,,,,,,,,,,,,,,,,,,,,,,,,,,,,,,,,
,,,,,,5fa48feaddfbd812de13f3bb,629c52427194cb9303f1baa8,2022-06-05_08h58.11.819,Colour_Asymmetry_Pilot,2022.1.3,Win32,62.08866261,629c4b6caf241d5e6e00bfc0,0,80,80,43,1,twofour,,,,,,,,,,,,,,,,,,,,,,,,,,,,,,,,,,,,,,,,,,,,,,,,,,,,,,,,,,,,,,,,,,,,,,,,,,,,,,,,,,,,,,,,,,,,,,,,,,,,,,,,,,,,,,,,,,,,,,,,,,,,,,,,,,,,,,,,,,,,,
,,,,,,5fa48feaddfbd812de13f3bb,629c52427194cb9303f1baa8,2022-06-05_08h58.11.819,Colour_Asymmetry_Pilot,2022.1.3,Win32,62.08866261,629c4b6caf241d5e6e00bfc0,0,81,81,97,1,onethree,,,,,,,,,,,,,,,,,,,,,,,,,,,,,,,,,,,,,,,,,,,,,,,,,,,,,,,,,,,,,,,,,,,,,,,,,,,,,,,,,,,,,,,,,,,,,,,,,,,,,,,,,,,,,,,,,,,,,,,,,,,,,,,,,,,,,,,,,,,,,
,,,,,,5fa48feaddfbd812de13f3bb,629c52427194cb9303f1baa8,2022-06-05_08h58.11.819,Colour_Asymmetry_Pilot,2022.1.3,Win32,62.08866261,629c4b6caf241d5e6e00bfc0,0,82,82,118,1,fourtwo,,,,,,,,,,,,,,,,,,,,,,,,,,,,,,,,,,,,,,,,,,,,,,,,,,,,,,,,,,,,,,,,,,,,,,,,,,,,,,,,,,,,,,,,,,,,,,,,,,,,,,,,,,,,,,,,,,,,,,,,,,,,,,,,,,,,,,,,,,,,,
,,,,,,5fa48feaddfbd812de13f3bb,629c52427194cb9303f1baa8,2022-06-05_08h58.11.819,Colour_Asymmetry_Pilot,2022.1.3,Win32,62.08866261,629c4b6caf241d5e6e00bfc0,0,83,83,4,1,threeone,,,,,,,,,,,,,,,,,,,,,,,,,,,,,,,,,,,,,,,,,,,,,,,,,,,,,,,,,,,,,,,,,,,,,,,,,,,,,,,,,,,,,,,,,,,,,,,,,,,,,,,,,,,,,,,,,,,,,,,,,,,,,,,,,,,,,,,,,,,,,
,,,,,,5fa48feaddfbd812de13f3bb,629c52427194cb9303f1baa8,2022-06-05_08h58.11.819,Colour_Asymmetry_Pilot,2022.1.3,Win32,62.08866261,629c4b6caf241d5e6e00bfc0,0,84,84,37,1,threefour,,,,,,,,,,,,,,,,,,,,,,,,,,,,,,,,,,,,,,,,,,,,,,,,,,,,,,,,,,,,,,,,,,,,,,,,,,,,,,,,,,,,,,,,,,,,,,,,,,,,,,,,,,,,,,,,,,,,,,,,,,,,,,,,,,,,,,,,,,,,,
,,,,,,5fa48feaddfbd812de13f3bb,629c52427194cb9303f1baa8,2022-06-05_08h58.11.819,Colour_Asymmetry_Pilot,2022.1.3,Win32,62.08866261,629c4b6caf241d5e6e00bfc0,0,85,85,5,1,threefour,,,,,,,,,,,,,,,,,,,,,,,,,,,,,,,,,,,,,,,,,,,,,,,,,,,,,,,,,,,,,,,,,,,,,,,,,,,,,,,,,,,,,,,,,,,,,,,,,,,,,,,,,,,,,,,,,,,,,,,,,,,,,,,,,,,,,,,,,,,,,
,,,,,,5fa48feaddfbd812de13f3bb,629c52427194cb9303f1baa8,2022-06-05_08h58.11.819,Colour_Asymmetry_Pilot,2022.1.3,Win32,62.08866261,629c4b6caf241d5e6e00bfc0,0,86,86,94,1,fourtwo,,,,,,,,,,,,,,,,,,,,,,,,,,,,,,,,,,,,,,,,,,,,,,,,,,,,,,,,,,,,,,,,,,,,,,,,,,,,,,,,,,,,,,,,,,,,,,,,,,,,,,,,,,,,,,,,,,,,,,,,,,,,,,,,,,,,,,,,,,,,,
,,,,,,5fa48feaddfbd812de13f3bb,629c52427194cb9303f1baa8,2022-06-05_08h58.11.819,Colour_Asymmetry_Pilot,2022.1.3,Win32,62.08866261,629c4b6caf241d5e6e00bfc0,0,87,87,47,1,fourthree,,,,,,,,,,,,,,,,,,,,,,,,,,,,,,,,,,,,,,,,,,,,,,,,,,,,,,,,,,,,,,,,,,,,,,,,,,,,,,,,,,,,,,,,,,,,,,,,,,,,,,,,,,,,,,,,,,,,,,,,,,,,,,,,,,,,,,,,,,,,,
,,,,,,5fa48feaddfbd812de13f3bb,629c52427194cb9303f1baa8,2022-06-05_08h58.11.819,Colour_Asymmetry_Pilot,2022.1.3,Win32,62.08866261,629c4b6caf241d5e6e00bfc0,0,88,88,80,1,onetwo,,,,,,,,,,,,,,,,,,,,,,,,,,,,,,,,,,,,,,,,,,,,,,,,,,,,,,,,,,,,,,,,,,,,,,,,,,,,,,,,,,,,,,,,,,,,,,,,,,,,,,,,,,,,,,,,,,,,,,,,,,,,,,,,,,,,,,,,,,,,,
,,,,,,5fa48feaddfbd812de13f3bb,629c52427194cb9303f1baa8,2022-06-05_08h58.11.819,Colour_Asymmetry_Pilot,2022.1.3,Win32,62.08866261,629c4b6caf241d5e6e00bfc0,0,89,89,3,1,twofour,,,,,,,,,,,,,,,,,,,,,,,,,,,,,,,,,,,,,,,,,,,,,,,,,,,,,,,,,,,,,,,,,,,,,,,,,,,,,,,,,,,,,,,,,,,,,,,,,,,,,,,,,,,,,,,,,,,,,,,,,,,,,,,,,,,,,,,,,,,,,
,,,,,,5fa48feaddfbd812de13f3bb,629c52427194cb9303f1baa8,2022-06-05_08h58.11.819,Colour_Asymmetry_Pilot,2022.1.3,Win32,62.08866261,629c4b6caf241d5e6e00bfc0,0,90,90,67,1,twofour,,,,,,,,,,,,,,,,,,,,,,,,,,,,,,,,,,,,,,,,,,,,,,,,,,,,,,,,,,,,,,,,,,,,,,,,,,,,,,,,,,,,,,,,,,,,,,,,,,,,,,,,,,,,,,,,,,,,,,,,,,,,,,,,,,,,,,,,,,,,,
,,,,,,5fa48feaddfbd812de13f3bb,629c52427194cb9303f1baa8,2022-06-05_08h58.11.819,Colour_Asymmetry_Pilot,2022.1.3,Win32,62.08866261,629c4b6caf241d5e6e00bfc0,0,91,91,42,1,twoone,,,,,,,,,,,,,,,,,,,,,,,,,,,,,,,,,,,,,,,,,,,,,,,,,,,,,,,,,,,,,,,,,,,,,,,,,,,,,,,,,,,,,,,,,,,,,,,,,,,,,,,,,,,,,,,,,,,,,,,,,,,,,,,,,,,,,,,,,,,,,
,,,,,,5fa48feaddfbd812de13f3bb,629c52427194cb9303f1baa8,2022-06-05_08h58.11.819,Colour_Asymmetry_Pilot,2022.1.3,Win32,62.08866261,629c4b6caf241d5e6e00bfc0,0,92,92,157,1,threefour,,,,,,,,,,,,,,,,,,,,,,,,,,,,,,,,,,,,,,,,,,,,,,,,,,,,,,,,,,,,,,,,,,,,,,,,,,,,,,,,,,,,,,,,,,,,,,,,,,,,,,,,,,,,,,,,,,,,,,,,,,,,,,,,,,,,,,,,,,,,,
,,,,,,5fa48feaddfbd812de13f3bb,629c52427194cb9303f1baa8,2022-06-05_08h58.11.819,Colour_Asymmetry_Pilot,2022.1.3,Win32,62.08866261,629c4b6caf241d5e6e00bfc0,0,93,93,129,1,onethree,,,,,,,,,,,,,,,,,,,,,,,,,,,,,,,,,,,,,,,,,,,,,,,,,,,,,,,,,,,,,,,,,,,,,,,,,,,,,,,,,,,,,,,,,,,,,,,,,,,,,,,,,,,,,,,,,,,,,,,,,,,,,,,,,,,,,,,,,,,,,
,,,,,,5fa48feaddfbd812de13f3bb,629c52427194cb9303f1baa8,2022-06-05_08h58.11.819,Colour_Asymmetry_Pilot,2022.1.3,Win32,62.08866261,629c4b6caf241d5e6e00bfc0,0,94,94,101,1,threefour,,,,,,,,,,,,,,,,,,,,,,,,,,,,,,,,,,,,,,,,,,,,,,,,,,,,,,,,,,,,,,,,,,,,,,,,,,,,,,,,,,,,,,,,,,,,,,,,,,,,,,,,,,,,,,,,,,,,,,,,,,,,,,,,,,,,,,,,,,,,,
,,,,,,5fa48feaddfbd812de13f3bb,629c52427194cb9303f1baa8,2022-06-05_08h58.11.819,Colour_Asymmetry_Pilot,2022.1.3,Win32,62.08866261,629c4b6caf241d5e6e00bfc0,0,95,95,83,1,twofour,,,,,,,,,,,,,,,,,,,,,,,,,,,,,,,,,,,,,,,,,,,,,,,,,,,,,,,,,,,,,,,,,,,,,,,,,,,,,,,,,,,,,,,,,,,,,,,,,,,,,,,,,,,,,,,,,,,,,,,,,,,,,,,,,,,,,,,,,,,,,
,,,,,,5fa48feaddfbd812de13f3bb,629c52427194cb9303f1baa8,2022-06-05_08h58.11.819,Colour_Asymmetry_Pilot,2022.1.3,Win32,62.08866261,629c4b6caf241d5e6e00bfc0,0,96,96,110,1,fourtwo,,,,,,,,,,,,,,,,,,,,,,,,,,,,,,,,,,,,,,,,,,,,,,,,,,,,,,,,,,,,,,,,,,,,,,,,,,,,,,,,,,,,,,,,,,,,,,,,,,,,,,,,,,,,,,,,,,,,,,,,,,,,,,,,,,,,,,,,,,,,,
,,,,,,5fa48feaddfbd812de13f3bb,629c52427194cb9303f1baa8,2022-06-05_08h58.11.819,Colour_Asymmetry_Pilot,2022.1.3,Win32,62.08866261,629c4b6caf241d5e6e00bfc0,0,97,97,69,1,threefour,,,,,,,,,,,,,,,,,,,,,,,,,,,,,,,,,,,,,,,,,,,,,,,,,,,,,,,,,,,,,,,,,,,,,,,,,,,,,,,,,,,,,,,,,,,,,,,,,,,,,,,,,,,,,,,,,,,,,,,,,,,,,,,,,,,,,,,,,,,,,
,,,,,,5fa48feaddfbd812de13f3bb,629c52427194cb9303f1baa8,2022-06-05_08h58.11.819,Colour_Asymmetry_Pilot,2022.1.3,Win32,62.08866261,629c4b6caf241d5e6e00bfc0,0,98,98,96,1,onetwo,,,,,,,,,,,,,,,,,,,,,,,,,,,,,,,,,,,,,,,,,,,,,,,,,,,,,,,,,,,,,,,,,,,,,,,,,,,,,,,,,,,,,,,,,,,,,,,,,,,,,,,,,,,,,,,,,,,,,,,,,,,,,,,,,,,,,,,,,,,,,
,,,,,,5fa48feaddfbd812de13f3bb,629c52427194cb9303f1baa8,2022-06-05_08h58.11.819,Colour_Asymmetry_Pilot,2022.1.3,Win32,62.08866261,629c4b6caf241d5e6e00bfc0,0,99,99,56,1,onetwo,,,,,,,,,,,,,,,,,,,,,,,,,,,,,,,,,,,,,,,,,,,,,,,,,,,,,,,,,,,,,,,,,,,,,,,,,,,,,,,,,,,,,,,,,,,,,,,,,,,,,,,,,,,,,,,,,,,,,,,,,,,,,,,,,,,,,,,,,,,,,
,,,,,,5fa48feaddfbd812de13f3bb,629c52427194cb9303f1baa8,2022-06-05_08h58.11.819,Colour_Asymmetry_Pilot,2022.1.3,Win32,62.08866261,629c4b6caf241d5e6e00bfc0,0,100,100,159,1,fourthree,,,,,,,,,,,,,,,,,,,,,,,,,,,,,,,,,,,,,,,,,,,,,,,,,,,,,,,,,,,,,,,,,,,,,,,,,,,,,,,,,,,,,,,,,,,,,,,,,,,,,,,,,,,,,,,,,,,,,,,,,,,,,,,,,,,,,,,,,,,,,
,,,,,,5fa48feaddfbd812de13f3bb,629c52427194cb9303f1baa8,2022-06-05_08h58.11.819,Colour_Asymmetry_Pilot,2022.1.3,Win32,62.08866261,629c4b6caf241d5e6e00bfc0,0,101,101,7,1,fourthree,,,,,,,,,,,,,,,,,,,,,,,,,,,,,,,,,,,,,,,,,,,,,,,,,,,,,,,,,,,,,,,,,,,,,,,,,,,,,,,,,,,,,,,,,,,,,,,,,,,,,,,,,,,,,,,,,,,,,,,,,,,,,,,,,,,,,,,,,,,,,
,,,,,,5fa48feaddfbd812de13f3bb,629c52427194cb9303f1baa8,2022-06-05_08h58.11.819,Colour_Asymmetry_Pilot,2022.1.3,Win32,62.08866261,629c4b6caf241d5e6e00bfc0,0,102,102,59,1,twofour,,,,,,,,,,,,,,,,,,,,,,,,,,,,,,,,,,,,,,,,,,,,,,,,,,,,,,,,,,,,,,,,,,,,,,,,,,,,,,,,,,,,,,,,,,,,,,,,,,,,,,,,,,,,,,,,,,,,,,,,,,,,,,,,,,,,,,,,,,,,,
,,,,,,5fa48feaddfbd812de13f3bb,629c52427194cb9303f1baa8,2022-06-05_08h58.11.819,Colour_Asymmetry_Pilot,2022.1.3,Win32,62.08866261,629c4b6caf241d5e6e00bfc0,0,103,103,155,1,twofour,,,,,,,,,,,,,,,,,,,,,,,,,,,,,,,,,,,,,,,,,,,,,,,,,,,,,,,,,,,,,,,,,,,,,,,,,,,,,,,,,,,,,,,,,,,,,,,,,,,,,,,,,,,,,,,,,,,,,,,,,,,,,,,,,,,,,,,,,,,,,
,,,,,,5fa48feaddfbd812de13f3bb,629c52427194cb9303f1baa8,2022-06-05_08h58.11.819,Colour_Asymmetry_Pilot,2022.1.3,Win32,62.08866261,629c4b6caf241d5e6e00bfc0,0,104,104,30,1,fourtwo,,,,,,,,,,,,,,,,,,,,,,,,,,,,,,,,,,,,,,,,,,,,,,,,,,,,,,,,,,,,,,,,,,,,,,,,,,,,,,,,,,,,,,,,,,,,,,,,,,,,,,,,,,,,,,,,,,,,,,,,,,,,,,,,,,,,,,,,,,,,,
,,,,,,5fa48feaddfbd812de13f3bb,629c52427194cb9303f1baa8,2022-06-05_08h58.11.819,Colour_Asymmetry_Pilot,2022.1.3,Win32,62.08866261,629c4b6caf241d5e6e00bfc0,0,105,105,86,1,fourtwo,,,,,,,,,,,,,,,,,,,,,,,,,,,,,,,,,,,,,,,,,,,,,,,,,,,,,,,,,,,,,,,,,,,,,,,,,,,,,,,,,,,,,,,,,,,,,,,,,,,,,,,,,,,,,,,,,,,,,,,,,,,,,,,,,,,,,,,,,,,,,
,,,,,,5fa48feaddfbd812de13f3bb,629c52427194cb9303f1baa8,2022-06-05_08h58.11.819,Colour_Asymmetry_Pilot,2022.1.3,Win32,62.08866261,629c4b6caf241d5e6e00bfc0,0,106,106,161,1,onethree,,,,,,,,,,,,,,,,,,,,,,,,,,,,,,,,,,,,,,,,,,,,,,,,,,,,,,,,,,,,,,,,,,,,,,,,,,,,,,,,,,,,,,,,,,,,,,,,,,,,,,,,,,,,,,,,,,,,,,,,,,,,,,,,,,,,,,,,,,,,,
,,,,,,5fa48feaddfbd812de13f3bb,629c52427194cb9303f1baa8,2022-06-05_08h58.11.819,Colour_Asymmetry_Pilot,2022.1.3,Win32,62.08866261,629c4b6caf241d5e6e00bfc0,0,107,107,53,1,threefour,,,,,,,,,,,,,,,,,,,,,,,,,,,,,,,,,,,,,,,,,,,,,,,,,,,,,,,,,,,,,,,,,,,,,,,,,,,,,,,,,,,,,,,,,,,,,,,,,,,,,,,,,,,,,,,,,,,,,,,,,,,,,,,,,,,,,,,,,,,,,
,,,,,,5fa48feaddfbd812de13f3bb,629c52427194cb9303f1baa8,2022-06-05_08h58.11.819,Colour_Asymmetry_Pilot,2022.1.3,Win32,62.08866261,629c4b6caf241d5e6e00bfc0,0,108,108,142,1,fourtwo,,,,,,,,,,,,,,,,,,,,,,,,,,,,,,,,,,,,,,,,,,,,,,,,,,,,,,,,,,,,,,,,,,,,,,,,,,,,,,,,,,,,,,,,,,,,,,,,,,,,,,,,,,,,,,,,,,,,,,,,,,,,,,,,,,,,,,,,,,,,,
,,,,,,5fa48feaddfbd812de13f3bb,629c52427194cb9303f1baa8,2022-06-05_08h58.11.819,Colour_Asymmetry_Pilot,2022.1.3,Win32,62.08866261,629c4b6caf241d5e6e00bfc0,0,109,109,64,1,onetwo,,,,,,,,,,,,,,,,,,,,,,,,,,,,,,,,,,,,,,,,,,,,,,,,,,,,,,,,,,,,,,,,,,,,,,,,,,,,,,,,,,,,,,,,,,,,,,,,,,,,,,,,,,,,,,,,,,,,,,,,,,,,,,,,,,,,,,,,,,,,,
,,,,,,5fa48feaddfbd812de13f3bb,629c52427194cb9303f1baa8,2022-06-05_08h58.11.819,Colour_Asymmetry_Pilot,2022.1.3,Win32,62.08866261,629c4b6caf241d5e6e00bfc0,0,110,110,116,1,threeone,,,,,,,,,,,,,,,,,,,,,,,,,,,,,,,,,,,,,,,,,,,,,,,,,,,,,,,,,,,,,,,,,,,,,,,,,,,,,,,,,,,,,,,,,,,,,,,,,,,,,,,,,,,,,,,,,,,,,,,,,,,,,,,,,,,,,,,,,,,,,
,,,,,,5fa48feaddfbd812de13f3bb,629c52427194cb9303f1baa8,2022-06-05_08h58.11.819,Colour_Asymmetry_Pilot,2022.1.3,Win32,62.08866261,629c4b6caf241d5e6e00bfc0,0,111,111,102,1,fourtwo,,,,,,,,,,,,,,,,,,,,,,,,,,,,,,,,,,,,,,,,,,,,,,,,,,,,,,,,,,,,,,,,,,,,,,,,,,,,,,,,,,,,,,,,,,,,,,,,,,,,,,,,,,,,,,,,,,,,,,,,,,,,,,,,,,,,,,,,,,,,,
,,,,,,5fa48feaddfbd812de13f3bb,629c52427194cb9303f1baa8,2022-06-05_08h58.11.819,Colour_Asymmetry_Pilot,2022.1.3,Win32,62.08866261,629c4b6caf241d5e6e00bfc0,0,112,112,10,1,twoone,,,,,,,,,,,,,,,,,,,,,,,,,,,,,,,,,,,,,,,,,,,,,,,,,,,,,,,,,,,,,,,,,,,,,,,,,,,,,,,,,,,,,,,,,,,,,,,,,,,,,,,,,,,,,,,,,,,,,,,,,,,,,,,,,,,,,,,,,,,,,
,,,,,,5fa48feaddfbd812de13f3bb,629c52427194cb9303f1baa8,2022-06-05_08h58.11.819,Colour_Asymmetry_Pilot,2022.1.3,Win32,62.08866261,629c4b6caf241d5e6e00bfc0,0,113,113,125,1,threefour,,,,,,,,,,,,,,,,,,,,,,,,,,,,,,,,,,,,,,,,,,,,,,,,,,,,,,,,,,,,,,,,,,,,,,,,,,,,,,,,,,,,,,,,,,,,,,,,,,,,,,,,,,,,,,,,,,,,,,,,,,,,,,,,,,,,,,,,,,,,,
,,,,,,5fa48feaddfbd812de13f3bb,629c52427194cb9303f1baa8,2022-06-05_08h58.11.819,Colour_Asymmetry_Pilot,2022.1.3,Win32,62.08866261,629c4b6caf241d5e6e00bfc0,0,114,114,50,1,twoone,,,,,,,,,,,,,,,,,,,,,,,,,,,,,,,,,,,,,,,,,,,,,,,,,,,,,,,,,,,,,,,,,,,,,,,,,,,,,,,,,,,,,,,,,,,,,,,,,,,,,,,,,,,,,,,,,,,,,,,,,,,,,,,,,,,,,,,,,,,,,
,,,,,,5fa48feaddfbd812de13f3bb,629c52427194cb9303f1baa8,2022-06-05_08h58.11.819,Colour_Asymmetry_Pilot,2022.1.3,Win32,62.08866261,629c4b6caf241d5e6e00bfc0,0,115,115,62,1,fourtwo,,,,,,,,,,,,,,,,,,,,,,,,,,,,,,,,,,,,,,,,,,,,,,,,,,,,,,,,,,,,,,,,,,,,,,,,,,,,,,,,,,,,,,,,,,,,,,,,,,,,,,,,,,,,,,,,,,,,,,,,,,,,,,,,,,,,,,,,,,,,,
,,,,,,5fa48feaddfbd812de13f3bb,629c52427194cb9303f1baa8,2022-06-05_08h58.11.819,Colour_Asymmetry_Pilot,2022.1.3,Win32,62.08866261,629c4b6caf241d5e6e00bfc0,0,116,116,144,1,onetwo,,,,,,,,,,,,,,,,,,,,,,,,,,,,,,,,,,,,,,,,,,,,,,,,,,,,,,,,,,,,,,,,,,,,,,,,,,,,,,,,,,,,,,,,,,,,,,,,,,,,,,,,,,,,,,,,,,,,,,,,,,,,,,,,,,,,,,,,,,,,,
,,,,,,5fa48feaddfbd812de13f3bb,629c52427194cb9303f1baa8,2022-06-05_08h58.11.819,Colour_Asymmetry_Pilot,2022.1.3,Win32,62.08866261,629c4b6caf241d5e6e00bfc0,0,117,117,71,1,fourthree,,,,,,,,,,,,,,,,,,,,,,,,,,,,,,,,,,,,,,,,,,,,,,,,,,,,,,,,,,,,,,,,,,,,,,,,,,,,,,,,,,,,,,,,,,,,,,,,,,,,,,,,,,,,,,,,,,,,,,,,,,,,,,,,,,,,,,,,,,,,,
,,,,,,5fa48feaddfbd812de13f3bb,629c52427194cb9303f1baa8,2022-06-05_08h58.11.819,Colour_Asymmetry_Pilot,2022.1.3,Win32,62.08866261,629c4b6caf241d5e6e00bfc0,0,118,118,85,1,threefour,,,,,,,,,,,,,,,,,,,,,,,,,,,,,,,,,,,,,,,,,,,,,,,,,,,,,,,,,,,,,,,,,,,,,,,,,,,,,,,,,,,,,,,,,,,,,,,,,,,,,,,,,,,,,,,,,,,,,,,,,,,,,,,,,,,,,,,,,,,,,
,,,,,,5fa48feaddfbd812de13f3bb,629c52427194cb9303f1baa8,2022-06-05_08h58.11.819,Colour_Asymmetry_Pilot,2022.1.3,Win32,62.08866261,629c4b6caf241d5e6e00bfc0,0,119,119,146,1,twoone,,,,,,,,,,,,,,,,,,,,,,,,,,,,,,,,,,,,,,,,,,,,,,,,,,,,,,,,,,,,,,,,,,,,,,,,,,,,,,,,,,,,,,,,,,,,,,,,,,,,,,,,,,,,,,,,,,,,,,,,,,,,,,,,,,,,,,,,,,,,,
,,,,,,5fa48feaddfbd812de13f3bb,629c52427194cb9303f1baa8,2022-06-05_08h58.11.819,Colour_Asymmetry_Pilot,2022.1.3,Win32,62.08866261,629c4b6caf241d5e6e00bfc0,0,120,120,24,1,onetwo,,,,,,,,,,,,,,,,,,,,,,,,,,,,,,,,,,,,,,,,,,,,,,,,,,,,,,,,,,,,,,,,,,,,,,,,,,,,,,,,,,,,,,,,,,,,,,,,,,,,,,,,,,,,,,,,,,,,,,,,,,,,,,,,,,,,,,,,,,,,,
,,,,,,5fa48feaddfbd812de13f3bb,629c52427194cb9303f1baa8,2022-06-05_08h58.11.819,Colour_Asymmetry_Pilot,2022.1.3,Win32,62.08866261,629c4b6caf241d5e6e00bfc0,0,121,121,106,1,twoone,,,,,,,,,,,,,,,,,,,,,,,,,,,,,,,,,,,,,,,,,,,,,,,,,,,,,,,,,,,,,,,,,,,,,,,,,,,,,,,,,,,,,,,,,,,,,,,,,,,,,,,,,,,,,,,,,,,,,,,,,,,,,,,,,,,,,,,,,,,,,
,,,,,,5fa48feaddfbd812de13f3bb,629c52427194cb9303f1baa8,2022-06-05_08h58.11.819,Colour_Asymmetry_Pilot,2022.1.3,Win32,62.08866261,629c4b6caf241d5e6e00bfc0,0,122,122,114,1,twoone,,,,,,,,,,,,,,,,,,,,,,,,,,,,,,,,,,,,,,,,,,,,,,,,,,,,,,,,,,,,,,,,,,,,,,,,,,,,,,,,,,,,,,,,,,,,,,,,,,,,,,,,,,,,,,,,,,,,,,,,,,,,,,,,,,,,,,,,,,,,,
,,,,,,5fa48feaddfbd812de13f3bb,629c52427194cb9303f1baa8,2022-06-05_08h58.11.819,Colour_Asymmetry_Pilot,2022.1.3,Win32,62.08866261,629c4b6caf241d5e6e00bfc0,0,123,123,11,1,twofour,,,,,,,,,,,,,,,,,,,,,,,,,,,,,,,,,,,,,,,,,,,,,,,,,,,,,,,,,,,,,,,,,,,,,,,,,,,,,,,,,,,,,,,,,,,,,,,,,,,,,,,,,,,,,,,,,,,,,,,,,,,,,,,,,,,,,,,,,,,,,
,,,,,,5fa48feaddfbd812de13f3bb,629c52427194cb9303f1baa8,2022-06-05_08h58.11.819,Colour_Asymmetry_Pilot,2022.1.3,Win32,62.08866261,629c4b6caf241d5e6e00bfc0,0,124,124,134,1,fourtwo,,,,,,,,,,,,,,,,,,,,,,,,,,,,,,,,,,,,,,,,,,,,,,,,,,,,,,,,,,,,,,,,,,,,,,,,,,,,,,,,,,,,,,,,,,,,,,,,,,,,,,,,,,,,,,,,,,,,,,,,,,,,,,,,,,,,,,,,,,,,,
,,,,,,5fa48feaddfbd812de13f3bb,629c52427194cb9303f1baa8,2022-06-05_08h58.11.819,Colour_Asymmetry_Pilot,2022.1.3,Win32,62.08866261,629c4b6caf241d5e6e00bfc0,0,125,125,44,1,threeone,,,,,,,,,,,,,,,,,,,,,,,,,,,,,,,,,,,,,,,,,,,,,,,,,,,,,,,,,,,,,,,,,,,,,,,,,,,,,,,,,,,,,,,,,,,,,,,,,,,,,,,,,,,,,,,,,,,,,,,,,,,,,,,,,,,,,,,,,,,,,
,,,,,,5fa48feaddfbd812de13f3bb,629c52427194cb9303f1baa8,2022-06-05_08h58.11.819,Colour_Asymmetry_Pilot,2022.1.3,Win32,62.08866261,629c4b6caf241d5e6e00bfc0,0,126,126,98,1,twoone,,,,,,,,,,,,,,,,,,,,,,,,,,,,,,,,,,,,,,,,,,,,,,,,,,,,,,,,,,,,,,,,,,,,,,,,,,,,,,,,,,,,,,,,,,,,,,,,,,,,,,,,,,,,,,,,,,,,,,,,,,,,,,,,,,,,,,,,,,,,,
,,,,,,5fa48feaddfbd812de13f3bb,629c52427194cb9303f1baa8,2022-06-05_08h58.11.819,Colour_Asymmetry_Pilot,2022.1.3,Win32,62.08866261,629c4b6caf241d5e6e00bfc0,0,127,127,70,1,fourtwo,,,,,,,,,,,,,,,,,,,,,,,,,,,,,,,,,,,,,,,,,,,,,,,,,,,,,,,,,,,,,,,,,,,,,,,,,,,,,,,,,,,,,,,,,,,,,,,,,,,,,,,,,,,,,,,,,,,,,,,,,,,,,,,,,,,,,,,,,,,,,
,,,,,,5fa48feaddfbd812de13f3bb,629c52427194cb9303f1baa8,2022-06-05_08h58.11.819,Colour_Asymmetry_Pilot,2022.1.3,Win32,62.08866261,629c4b6caf241d5e6e00bfc0,0,128,128,121,1,onethree,,,,,,,,,,,,,,,,,,,,,,,,,,,,,,,,,,,,,,,,,,,,,,,,,,,,,,,,,,,,,,,,,,,,,,,,,,,,,,,,,,,,,,,,,,,,,,,,,,,,,,,,,,,,,,,,,,,,,,,,,,,,,,,,,,,,,,,,,,,,,
,,,,,,5fa48feaddfbd812de13f3bb,629c52427194cb9303f1baa8,2022-06-05_08h58.11.819,Colour_Asymmetry_Pilot,2022.1.3,Win32,62.08866261,629c4b6caf241d5e6e00bfc0,0,129,129,87,1,fourthree,,,,,,,,,,,,,,,,,,,,,,,,,,,,,,,,,,,,,,,,,,,,,,,,,,,,,,,,,,,,,,,,,,,,,,,,,,,,,,,,,,,,,,,,,,,,,,,,,,,,,,,,,,,,,,,,,,,,,,,,,,,,,,,,,,,,,,,,,,,,,
,,,,,,5fa48feaddfbd812de13f3bb,629c52427194cb9303f1baa8,2022-06-05_08h58.11.819,Colour_Asymmetry_Pilot,2022.1.3,Win32,62.08866261,629c4b6caf241d5e6e00bfc0,0,130,130,78,1,fourtwo,,,,,,,,,,,,,,,,,,,,,,,,,,,,,,,,,,,,,,,,,,,,,,,,,,,,,,,,,,,,,,,,,,,,,,,,,,,,,,,,,,,,,,,,,,,,,,,,,,,,,,,,,,,,,,,,,,,,,,,,,,,,,,,,,,,,,,,,,,,,,
,,,,,,5fa48feaddfbd812de13f3bb,629c52427194cb9303f1baa8,2022-06-05_08h58.11.819,Colour_Asymmetry_Pilot,2022.1.3,Win32,62.08866261,629c4b6caf241d5e6e00bfc0,0,131,131,88,1,onetwo,,,,,,,,,,,,,,,,,,,,,,,,,,,,,,,,,,,,,,,,,,,,,,,,,,,,,,,,,,,,,,,,,,,,,,,,,,,,,,,,,,,,,,,,,,,,,,,,,,,,,,,,,,,,,,,,,,,,,,,,,,,,,,,,,,,,,,,,,,,,,
,,,,,,5fa48feaddfbd812de13f3bb,629c52427194cb9303f1baa8,2022-06-05_08h58.11.819,Colour_Asymmetry_Pilot,2022.1.3,Win32,62.08866261,629c4b6caf241d5e6e00bfc0,0,132,132,131,1,twofour,,,,,,,,,,,,,,,,,,,,,,,,,,,,,,,,,,,,,,,,,,,,,,,,,,,,,,,,,,,,,,,,,,,,,,,,,,,,,,,,,,,,,,,,,,,,,,,,,,,,,,,,,,,,,,,,,,,,,,,,,,,,,,,,,,,,,,,,,,,,,
,,,,,,5fa48feaddfbd812de13f3bb,629c52427194cb9303f1baa8,2022-06-05_08h58.11.819,Colour_Asymmetry_Pilot,2022.1.3,Win32,62.08866261,629c4b6caf241d5e6e00bfc0,0,133,133,41,1,onethree,,,,,,,,,,,,,,,,,,,,,,,,,,,,,,,,,,,,,,,,,,,,,,,,,,,,,,,,,,,,,,,,,,,,,,,,,,,,,,,,,,,,,,,,,,,,,,,,,,,,,,,,,,,,,,,,,,,,,,,,,,,,,,,,,,,,,,,,,,,,,
,,,,,,5fa48feaddfbd812de13f3bb,629c52427194cb9303f1baa8,2022-06-05_08h58.11.819,Colour_Asymmetry_Pilot,2022.1.3,Win32,62.08866261,629c4b6caf241d5e6e00bfc0,0,134,134,1,1,onethree,,,,,,,,,,,,,,,,,,,,,,,,,,,,,,,,,,,,,,,,,,,,,,,,,,,,,,,,,,,,,,,,,,,,,,,,,,,,,,,,,,,,,,,,,,,,,,,,,,,,,,,,,,,,,,,,,,,,,,,,,,,,,,,,,,,,,,,,,,,,,
,,,,,,5fa48feaddfbd812de13f3bb,629c52427194cb9303f1baa8,2022-06-05_08h58.11.819,Colour_Asymmetry_Pilot,2022.1.3,Win32,62.08866261,629c4b6caf241d5e6e00bfc0,0,135,135,154,1,twoone,,,,,,,,,,,,,,,,,,,,,,,,,,,,,,,,,,,,,,,,,,,,,,,,,,,,,,,,,,,,,,,,,,,,,,,,,,,,,,,,,,,,,,,,,,,,,,,,,,,,,,,,,,,,,,,,,,,,,,,,,,,,,,,,,,,,,,,,,,,,,
,,,,,,5fa48feaddfbd812de13f3bb,629c52427194cb9303f1baa8,2022-06-05_08h58.11.819,Colour_Asymmetry_Pilot,2022.1.3,Win32,62.08866261,629c4b6caf241d5e6e00bfc0,0,136,136,20,1,threeone,,,,,,,,,,,,,,,,,,,,,,,,,,,,,,,,,,,,,,,,,,,,,,,,,,,,,,,,,,,,,,,,,,,,,,,,,,,,,,,,,,,,,,,,,,,,,,,,,,,,,,,,,,,,,,,,,,,,,,,,,,,,,,,,,,,,,,,,,,,,,
,,,,,,5fa48feaddfbd812de13f3bb,629c52427194cb9303f1baa8,2022-06-05_08h58.11.819,Colour_Asymmetry_Pilot,2022.1.3,Win32,62.08866261,629c4b6caf241d5e6e00bfc0,0,137,137,15,1,fourthree,,,,,,,,,,,,,,,,,,,,,,,,,,,,,,,,,,,,,,,,,,,,,,,,,,,,,,,,,,,,,,,,,,,,,,,,,,,,,,,,,,,,,,,,,,,,,,,,,,,,,,,,,,,,,,,,,,,,,,,,,,,,,,,,,,,,,,,,,,,,,
,,,,,,5fa48feaddfbd812de13f3bb,629c52427194cb9303f1baa8,2022-06-05_08h58.11.819,Colour_Asymmetry_Pilot,2022.1.3,Win32,62.08866261,629c4b6caf241d5e6e00bfc0,0,138,138,54,1,fourtwo,,,,,,,,,,,,,,,,,,,,,,,,,,,,,,,,,,,,,,,,,,,,,,,,,,,,,,,,,,,,,,,,,,,,,,,,,,,,,,,,,,,,,,,,,,,,,,,,,,,,,,,,,,,,,,,,,,,,,,,,,,,,,,,,,,,,,,,,,,,,,
,,,,,,5fa48feaddfbd812de13f3bb,629c52427194cb9303f1baa8,2022-06-05_08h58.11.819,Colour_Asymmetry_Pilot,2022.1.3,Win32,62.08866261,629c4b6caf241d5e6e00bfc0,0,139,139,90,1,twoone,,,,,,,,,,,,,,,,,,,,,,,,,,,,,,,,,,,,,,,,,,,,,,,,,,,,,,,,,,,,,,,,,,,,,,,,,,,,,,,,,,,,,,,,,,,,,,,,,,,,,,,,,,,,,,,,,,,,,,,,,,,,,,,,,,,,,,,,,,,,,
,,,,,,5fa48feaddfbd812de13f3bb,629c52427194cb9303f1baa8,2022-06-05_08h58.11.819,Colour_Asymmetry_Pilot,2022.1.3,Win32,62.08866261,629c4b6caf241d5e6e00bfc0,0,140,140,119,1,fourthree,,,,,,,,,,,,,,,,,,,,,,,,,,,,,,,,,,,,,,,,,,,,,,,,,,,,,,,,,,,,,,,,,,,,,,,,,,,,,,,,,,,,,,,,,,,,,,,,,,,,,,,,,,,,,,,,,,,,,,,,,,,,,,,,,,,,,,,,,,,,,
,,,,,,5fa48feaddfbd812de13f3bb,629c52427194cb9303f1baa8,2022-06-05_08h58.11.819,Colour_Asymmetry_Pilot,2022.1.3,Win32,62.08866261,629c4b6caf241d5e6e00bfc0,0,141,141,14,1,fourtwo,,,,,,,,,,,,,,,,,,,,,,,,,,,,,,,,,,,,,,,,,,,,,,,,,,,,,,,,,,,,,,,,,,,,,,,,,,,,,,,,,,,,,,,,,,,,,,,,,,,,,,,,,,,,,,,,,,,,,,,,,,,,,,,,,,,,,,,,,,,,,
,,,,,,5fa48feaddfbd812de13f3bb,629c52427194cb9303f1baa8,2022-06-05_08h58.11.819,Colour_Asymmetry_Pilot,2022.1.3,Win32,62.08866261,629c4b6caf241d5e6e00bfc0,0,142,142,82,1,twoone,,,,,,,,,,,,,,,,,,,,,,,,,,,,,,,,,,,,,,,,,,,,,,,,,,,,,,,,,,,,,,,,,,,,,,,,,,,,,,,,,,,,,,,,,,,,,,,,,,,,,,,,,,,,,,,,,,,,,,,,,,,,,,,,,,,,,,,,,,,,,
,,,,,,5fa48feaddfbd812de13f3bb,629c52427194cb9303f1baa8,2022-06-05_08h58.11.819,Colour_Asymmetry_Pilot,2022.1.3,Win32,62.08866261,629c4b6caf241d5e6e00bfc0,0,143,143,55,1,fourthree,,,,,,,,,,,,,,,,,,,,,,,,,,,,,,,,,,,,,,,,,,,,,,,,,,,,,,,,,,,,,,,,,,,,,,,,,,,,,,,,,,,,,,,,,,,,,,,,,,,,,,,,,,,,,,,,,,,,,,,,,,,,,,,,,,,,,,,,,,,,,
,,,,,,5fa48feaddfbd812de13f3bb,629c52427194cb9303f1baa8,2022-06-05_08h58.11.819,Colour_Asymmetry_Pilot,2022.1.3,Win32,62.08866261,629c4b6caf241d5e6e00bfc0,0,144,144,123,1,twofour,,,,,,,,,,,,,,,,,,,,,,,,,,,,,,,,,,,,,,,,,,,,,,,,,,,,,,,,,,,,,,,,,,,,,,,,,,,,,,,,,,,,,,,,,,,,,,,,,,,,,,,,,,,,,,,,,,,,,,,,,,,,,,,,,,,,,,,,,,,,,
,,,,,,5fa48feaddfbd812de13f3bb,629c52427194cb9303f1baa8,2022-06-05_08h58.11.819,Colour_Asymmetry_Pilot,2022.1.3,Win32,62.08866261,629c4b6caf241d5e6e00bfc0,0,145,145,104,1,onetwo,,,,,,,,,,,,,,,,,,,,,,,,,,,,,,,,,,,,,,,,,,,,,,,,,,,,,,,,,,,,,,,,,,,,,,,,,,,,,,,,,,,,,,,,,,,,,,,,,,,,,,,,,,,,,,,,,,,,,,,,,,,,,,,,,,,,,,,,,,,,,
,,,,,,5fa48feaddfbd812de13f3bb,629c52427194cb9303f1baa8,2022-06-05_08h58.11.819,Colour_Asymmetry_Pilot,2022.1.3,Win32,62.08866261,629c4b6caf241d5e6e00bfc0,0,146,146,74,1,twoone,,,,,,,,,,,,,,,,,,,,,,,,,,,,,,,,,,,,,,,,,,,,,,,,,,,,,,,,,,,,,,,,,,,,,,,,,,,,,,,,,,,,,,,,,,,,,,,,,,,,,,,,,,,,,,,,,,,,,,,,,,,,,,,,,,,,,,,,,,,,,
,,,,,,5fa48feaddfbd812de13f3bb,629c52427194cb9303f1baa8,2022-06-05_08h58.11.819,Colour_Asymmetry_Pilot,2022.1.3,Win32,62.08866261,629c4b6caf241d5e6e00bfc0,0,147,147,156,1,threeone,,,,,,,,,,,,,,,,,,,,,,,,,,,,,,,,,,,,,,,,,,,,,,,,,,,,,,,,,,,,,,,,,,,,,,,,,,,,,,,,,,,,,,,,,,,,,,,,,,,,,,,,,,,,,,,,,,,,,,,,,,,,,,,,,,,,,,,,,,,,,
,,,,,,5fa48feaddfbd812de13f3bb,629c52427194cb9303f1baa8,2022-06-05_08h58.11.819,Colour_Asymmetry_Pilot,2022.1.3,Win32,62.08866261,629c4b6caf241d5e6e00bfc0,0,148,148,34,1,twoone,,,,,,,,,,,,,,,,,,,,,,,,,,,,,,,,,,,,,,,,,,,,,,,,,,,,,,,,,,,,,,,,,,,,,,,,,,,,,,,,,,,,,,,,,,,,,,,,,,,,,,,,,,,,,,,,,,,,,,,,,,,,,,,,,,,,,,,,,,,,,
,,,,,,5fa48feaddfbd812de13f3bb,629c52427194cb9303f1baa8,2022-06-05_08h58.11.819,Colour_Asymmetry_Pilot,2022.1.3,Win32,62.08866261,629c4b6caf241d5e6e00bfc0,0,149,149,136,1,onetwo,,,,,,,,,,,,,,,,,,,,,,,,,,,,,,,,,,,,,,,,,,,,,,,,,,,,,,,,,,,,,,,,,,,,,,,,,,,,,,,,,,,,,,,,,,,,,,,,,,,,,,,,,,,,,,,,,,,,,,,,,,,,,,,,,,,,,,,,,,,,,
,,,,,,5fa48feaddfbd812de13f3bb,629c52427194cb9303f1baa8,2022-06-05_08h58.11.819,Colour_Asymmetry_Pilot,2022.1.3,Win32,62.08866261,629c4b6caf241d5e6e00bfc0,0,150,150,13,1,threefour,,,,,,,,,,,,,,,,,,,,,,,,,,,,,,,,,,,,,,,,,,,,,,,,,,,,,,,,,,,,,,,,,,,,,,,,,,,,,,,,,,,,,,,,,,,,,,,,,,,,,,,,,,,,,,,,,,,,,,,,,,,,,,,,,,,,,,,,,,,,,
,,,,,,5fa48feaddfbd812de13f3bb,629c52427194cb9303f1baa8,2022-06-05_08h58.11.819,Colour_Asymmetry_Pilot,2022.1.3,Win32,62.08866261,629c4b6caf241d5e6e00bfc0,0,151,151,152,1,onetwo,,,,,,,,,,,,,,,,,,,,,,,,,,,,,,,,,,,,,,,,,,,,,,,,,,,,,,,,,,,,,,,,,,,,,,,,,,,,,,,,,,,,,,,,,,,,,,,,,,,,,,,,,,,,,,,,,,,,,,,,,,,,,,,,,,,,,,,,,,,,,
,,,,,,5fa48feaddfbd812de13f3bb,629c52427194cb9303f1baa8,2022-06-05_08h58.11.819,Colour_Asymmetry_Pilot,2022.1.3,Win32,62.08866261,629c4b6caf241d5e6e00bfc0,0,152,152,130,1,twoone,,,,,,,,,,,,,,,,,,,,,,,,,,,,,,,,,,,,,,,,,,,,,,,,,,,,,,,,,,,,,,,,,,,,,,,,,,,,,,,,,,,,,,,,,,,,,,,,,,,,,,,,,,,,,,,,,,,,,,,,,,,,,,,,,,,,,,,,,,,,,
,,,,,,5fa48feaddfbd812de13f3bb,629c52427194cb9303f1baa8,2022-06-05_08h58.11.819,Colour_Asymmetry_Pilot,2022.1.3,Win32,62.08866261,629c4b6caf241d5e6e00bfc0,0,153,153,27,1,twofour,,,,,,,,,,,,,,,,,,,,,,,,,,,,,,,,,,,,,,,,,,,,,,,,,,,,,,,,,,,,,,,,,,,,,,,,,,,,,,,,,,,,,,,,,,,,,,,,,,,,,,,,,,,,,,,,,,,,,,,,,,,,,,,,,,,,,,,,,,,,,
,,,,,,5fa48feaddfbd812de13f3bb,629c52427194cb9303f1baa8,2022-06-05_08h58.11.819,Colour_Asymmetry_Pilot,2022.1.3,Win32,62.08866261,629c4b6caf241d5e6e00bfc0,0,154,154,140,1,threeone,,,,,,,,,,,,,,,,,,,,,,,,,,,,,,,,,,,,,,,,,,,,,,,,,,,,,,,,,,,,,,,,,,,,,,,,,,,,,,,,,,,,,,,,,,,,,,,,,,,,,,,,,,,,,,,,,,,,,,,,,,,,,,,,,,,,,,,,,,,,,
,,,,,,5fa48feaddfbd812de13f3bb,629c52427194cb9303f1baa8,2022-06-05_08h58.11.819,Colour_Asymmetry_Pilot,2022.1.3,Win32,62.08866261,629c4b6caf241d5e6e00bfc0,0,155,155,46,1,fourtwo,,,,,,,,,,,,,,,,,,,,,,,,,,,,,,,,,,,,,,,,,,,,,,,,,,,,,,,,,,,,,,,,,,,,,,,,,,,,,,,,,,,,,,,,,,,,,,,,,,,,,,,,,,,,,,,,,,,,,,,,,,,,,,,,,,,,,,,,,,,,,
,,,,,,5fa48feaddfbd812de13f3bb,629c52427194cb9303f1baa8,2022-06-05_08h58.11.819,Colour_Asymmetry_Pilot,2022.1.3,Win32,62.08866261,629c4b6caf241d5e6e00bfc0,0,156,156,103,1,fourthree,,,,,,,,,,,,,,,,,,,,,,,,,,,,,,,,,,,,,,,,,,,,,,,,,,,,,,,,,,,,,,,,,,,,,,,,,,,,,,,,,,,,,,,,,,,,,,,,,,,,,,,,,,,,,,,,,,,,,,,,,,,,,,,,,,,,,,,,,,,,,
,,,,,,5fa48feaddfbd812de13f3bb,629c52427194cb9303f1baa8,2022-06-05_08h58.11.819,Colour_Asymmetry_Pilot,2022.1.3,Win32,62.08866261,629c4b6caf241d5e6e00bfc0,0,157,157,65,1,onethree,,,,,,,,,,,,,,,,,,,,,,,,,,,,,,,,,,,,,,,,,,,,,,,,,,,,,,,,,,,,,,,,,,,,,,,,,,,,,,,,,,,,,,,,,,,,,,,,,,,,,,,,,,,,,,,,,,,,,,,,,,,,,,,,,,,,,,,,,,,,,
,,,,,,5fa48feaddfbd812de13f3bb,629c52427194cb9303f1baa8,2022-06-05_08h58.11.819,Colour_Asymmetry_Pilot,2022.1.3,Win32,62.08866261,629c4b6caf241d5e6e00bfc0,0,158,158,57,1,onethree,,,,,,,,,,,,,,,,,,,,,,,,,,,,,,,,,,,,,,,,,,,,,,,,,,,,,,,,,,,,,,,,,,,,,,,,,,,,,,,,,,,,,,,,,,,,,,,,,,,,,,,,,,,,,,,,,,,,,,,,,,,,,,,,,,,,,,,,,,,,,
,,,,,,5fa48feaddfbd812de13f3bb,629c52427194cb9303f1baa8,2022-06-05_08h58.11.819,Colour_Asymmetry_Pilot,2022.1.3,Win32,62.08866261,629c4b6caf241d5e6e00bfc0,0,159,159,28,1,threeone,,,,,,,,,,,,,,,,,,,,,,,,,,,,,,,,,,,,,,,,,,,,,,,,,,,,,,,,,,,,,,,,,,,,,,,,,,,,,,,,,,,,,,,,,,,,,,,,,,,,,,,,,,,,,,,,,,,,,,,,,,,,,,,,,,,,,,,,,,,,,
,,,,,,5fa48feaddfbd812de13f3bb,629c52427194cb9303f1baa8,2022-06-05_08h58.11.819,Colour_Asymmetry_Pilot,2022.1.3,Win32,62.08866261,629c4b6caf241d5e6e00bfc0,0,160,160,19,1,twofour,,,,,,,,,,,,,,,,,,,,,,,,,,,,,,,,,,,,,,,,,,,,,,,,,,,,,,,,,,,,,,,,,,,,,,,,,,,,,,,,,,,,,,,,,,,,,,,,,,,,,,,,,,,,,,,,,,,,,,,,,,,,,,,,,,,,,,,,,,,,,
,,,,,,5fa48feaddfbd812de13f3bb,629c52427194cb9303f1baa8,2022-06-05_08h58.11.819,Colour_Asymmetry_Pilot,2022.1.3,Win32,62.08866261,629c4b6caf241d5e6e00bfc0,0,161,161,2,1,twoone,,,,,,,,,,,,,,,,,,,,,,,,,,,,,,,,,,,,,,,,,,,,,,,,,,,,,,,,,,,,,,,,,,,,,,,,,,,,,,,,,,,,,,,,,,,,,,,,,,,,,,,,,,,,,,,,,,,,,,,,,,,,,,,,,,,,,,,,,,,,,
,,,,,,5fa48feaddfbd812de13f3bb,629c52427194cb9303f1baa8,2022-06-05_08h58.11.819,Colour_Asymmetry_Pilot,2022.1.3,Win32,62.08866261,629c4b6caf241d5e6e00bfc0,,,,,,,space,9.85,space,44.0246,space,58.9233,space,76.914,space,9.1783,space,9.7087,"[0.05879999999999996,0.2784,0.5841999999999998]",fourtwo,"[0.9213999999999998,0.6391999999999998,-0.9922]",-1,12.7182,-35,-75,1,0,0,response5disk_5,-3,7,1,0,0,rectangle_8,-3,7,1,0,0,2,-3,7,1,0,0,0,0,0,0,1,,,,,,,,,,,,,,,,,,,,,,,,,,,,,,,,,,,,,,,,,,,,,,,,,,,,,,,,,,,,,,,,,,,,,,,,,,,,,,,,,,,,,,,,,,,,,,,,
,,,,,,5fa48feaddfbd812de13f3bb,629c52427194cb9303f1baa8,2022-06-05_08h58.11.819,Colour_Asymmetry_Pilot,2022.1.3,Win32,62.08866261,629c4b6caf241d5e6e00bfc0,,,,,,,,,,,,,,,,,,,"[0.9763999999999999,0.8588,-0.05900000000000005]",fourthree,"[-0.5452,-0.608,0.2470000000000001]",-1,26.5178,-50,-109,1,0,0,response5disk_5,-8,-1,1,0,0,rectangle_8,-8,-1,1,0,0,2,-8,-1,1,0,0,1,0,1,0,1,,,,,,,,,,,,,,,,,,,,,,,,,,,,,,,,,,,,,,,,,,,,,,,,,,,,,,,,,,,,,,,,,,,,,,,,,,,,,,,,,,,,,,,,,,,,,,,,
,,,,,,5fa48feaddfbd812de13f3bb,629c52427194cb9303f1baa8,2022-06-05_08h58.11.819,Colour_Asymmetry_Pilot,2022.1.3,Win32,62.08866261,629c4b6caf241d5e6e00bfc0,,,,,,,,,,,,,,,,,,,"[0.19199999999999995,0.18419999999999992,0.5136000000000001]",fourthree,"[0.23920000000000008,0.2704,0.16060000000000008]",3,9.8904,62,39,1,0,0,response1disk_5,-4,-1,1,0,0,rectangle_8,77,-41,1,0,0,2,21,6,1,0,0,2,0,2,0,1,response3disk_7,5,rectangle_4,,,,,,,,,,,,,,,,,,,,,,,,,,,,,,,,,,,,,,,,,,,,,,,,,,,,,,,,,,,,,,,,,,,,,,,,,,,,,,,,,,,,,,,,,,,,,
,,,,,,5fa48feaddfbd812de13f3bb,629c52427194cb9303f1baa8,2022-06-05_08h58.11.819,Colour_Asymmetry_Pilot,2022.1.3,Win32,62.08866261,629c4b6caf241d5e6e00bfc0,,,,,,,,,,,,,,,,,,,"[-0.011800000000000033,-0.906,-0.45100000000000007]",fourthree,"[0.0351999999999999,0.41159999999999997,0.0038000000000000256]",-1,6.5885,-44,-88,1,0,0,response5disk_5,5,2,1,0,0,rectangle_8,-81,-24,1,0,0,2,4,2,1,0,0,3,0,3,0,1,response5disk_7,2,rectangle_4,,,,,,,,,,,,,,,,,,,,,,,,,,,,,,,,,,,,,,,,,,,,,,,,,,,,,,,,,,,,,,,,,,,,,,,,,,,,,,,,,,,,,,,,,,,,,
,,,,,,5fa48feaddfbd812de13f3bb,629c52427194cb9303f1baa8,2022-06-05_08h58.11.819,Colour_Asymmetry_Pilot,2022.1.3,Win32,62.08866261,629c4b6caf241d5e6e00bfc0,,,,,,,,,,,,,,,,,,,"[-0.38039999999999996,-0.4276,-0.1452]",twofour,"[-0.5688,-0.08239999999999992,-0.1844]",1,3.9058,33,-89,1,0,0,response3disk_5,3,-2,1,0,0,rectangle_8,3,-2,1,0,0,2,3,-2,1,0,0,4,0,4,0,1,,,,,,,,,,,,,,,,,,,,,,,,,,,,,,,,,,,,,,,,,,,,,,,,,,,,,,,,,,,,,,,,,,,,,,,,,,,,,,,,,,,,,,,,,,,,,,,,
,,,,,,5fa48feaddfbd812de13f3bb,629c52427194cb9303f1baa8,2022-06-05_08h58.11.819,Colour_Asymmetry_Pilot,2022.1.3,Win32,62.08866261,629c4b6caf241d5e6e00bfc0,,,,,,,,,,,,,,,,,,,"[0.18419999999999992,-0.4276,-0.404]",fourthree,"[-0.17659999999999998,-0.2864,-0.8354]",-1,3.1585,-34,-78,1,0,0,response5disk_5,-6,7,1,0,0,rectangle_8,-6,7,1,0,0,2,-6,7,1,0,0,5,0,5,0,1,,,,,,,,,,,,,,,,,,,,,,,,,,,,,,,,,,,,,,,,,,,,,,,,,,,,,,,,,,,,,,,,,,,,,,,,,,,,,,,,,,,,,,,,,,,,,,,,
,,,,,,5fa48feaddfbd812de13f3bb,629c52427194cb9303f1baa8,2022-06-05_08h58.11.819,Colour_Asymmetry_Pilot,2022.1.3,Win32,62.08866261,629c4b6caf241d5e6e00bfc0,,,,,,,,,,,,,,,,,,,"[-0.24719999999999998,-0.0354000000000001,0.3175999999999999]",fourtwo,"[-0.5452,-0.608,0.2470000000000001]",3,4.2698,93,81,1,0,0,response1disk_5,6,0,1,0,0,rectangle_8,6,0,1,0,0,2,6,0,1,0,0,6,0,6,0,1,,,,,,,,,,,,,,,,,,,,,,,,,,,,,,,,,,,,,,,,,,,,,,,,,,,,,,,,,,,,,,,,,,,,,,,,,,,,,,,,,,,,,,,,,,,,,,,,
,,,,,,5fa48feaddfbd812de13f3bb,629c52427194cb9303f1baa8,2022-06-05_08h58.11.819,Colour_Asymmetry_Pilot,2022.1.3,Win32,62.08866261,629c4b6caf241d5e6e00bfc0,,,,,,,,,,,,,,,,,,,,onetwo,,-3,4.9678,,,,,,,,,,,,,,,,,,,,,,,,,,,,,,,,space,13.9897,"[-0.4668,-0.8746,-0.2942]","[-0.8198,-0.5138,-0.7492000000000001]",-76,35,1,0,0,response7disk,-2,6,1,0,0,rectangle,-2,6,1,0,0,,2,0.0063,0,-2,6,1,0,0,0,0,0,45,1,45,first,,,,,,,,,,,,,,,,,,,,,,,,,,,,,,,,,,,,,,,,,,,,,,,,,,,,,,,,
,,,,,,5fa48feaddfbd812de13f3bb,629c52427194cb9303f1baa8,2022-06-05_08h58.11.819,Colour_Asymmetry_Pilot,2022.1.3,Win32,62.08866261,629c4b6caf241d5e6e00bfc0,,,,,,,,,,,,,,,,,,,,fourtwo,,-2,2.1134,,,,,,,,,,,,,,,,,,,,,,,,,,,,,,,,,,"[-0.10599999999999998,-0.10599999999999998,0.5841999999999998]","[-0.26280000000000003,-0.4746,-0.2158]",-39,-21,1,0,0,response5disk,-13,-2,1,0,0,rectangle,57,-92,1,0,0,1,1,3.4173,1,-3,15,1,0,0,0,1,1,159,1,78,second,response3disk_3,rectangle,,,,,,,,,,,,,,,,,,,,,,,,,,,,,,,,,,,,,,,,,,,,,,,,,,,,,,
,,,,,,5fa48feaddfbd812de13f3bb,629c52427194cb9303f1baa8,2022-06-05_08h58.11.819,Colour_Asymmetry_Pilot,2022.1.3,Win32,62.08866261,629c4b6caf241d5e6e00bfc0,,,,,,,,,,,,,,,,,,,,onethree,,-3,4.9898,,,,,,,,,,,,,,,,,,,,,,,,,,,,,,,,,,"[0.2862,0.7802,0.3568]","[0.09799999999999986,-0.24719999999999998,0.15280000000000005]",-73,25,1,0,0,response7disk,-13,-5,1,0,0,rectangle,-13,-5,1,0,0,1,3,0.003,0,-13,-5,1,0,0,0,2,2,131,1,50,second,,,,,,,,,,,,,,,,,,,,,,,,,,,,,,,,,,,,,,,,,,,,,,,,,,,,,,,,
,,,,,,5fa48feaddfbd812de13f3bb,629c52427194cb9303f1baa8,2022-06-05_08h58.11.819,Colour_Asymmetry_Pilot,2022.1.3,Win32,62.08866261,629c4b6caf241d5e6e00bfc0,,,,,,,,,,,,,,,,,,,,onethree,,-4,1.1053,,,,,,,,,,,,,,,,,,,,,,,,,,,,,,,,,,"[-0.8198,-0.5138,-0.7492000000000001]","[-0.4668,-0.8746,-0.2942]",-44,69,1,0,0,response7disk,0,4,1,0,0,rectangle,0,4,1,0,0,1,3,0.0009,0,0,4,1,0,0,0,3,3,126,1,45,second,,,,,,,,,,,,,,,,,,,,,,,,,,,,,,,,,,,,,,,,,,,,,,,,,,,,,,,,
,,,,,,5fa48feaddfbd812de13f3bb,629c52427194cb9303f1baa8,2022-06-05_08h58.11.819,Colour_Asymmetry_Pilot,2022.1.3,Win32,62.08866261,629c4b6caf241d5e6e00bfc0,,,,,,,,,,,,,,,,,,,,threeone,,-4,0.7566,,,,,,,,,,,,,,,,,,,,,,,,,,,,,,,,,,"[-0.09019999999999995,0.44300000000000006,0.5371999999999999]","[0.5449999999999999,-0.31000000000000005,-0.0354000000000001]",-34,65,1,0,0,response7disk,-1,-3,1,0,0,rectangle,-1,-3,1,0,0,1,2,0.0033,0,-1,-3,1,0,0,0,4,4,17,1,17,first,,,,,,,,,,,,,,,,,,,,,,,,,,,,,,,,,,,,,,,,,,,,,,,,,,,,,,,,
,,,,,,5fa48feaddfbd812de13f3bb,629c52427194cb9303f1baa8,2022-06-05_08h58.11.819,Colour_Asymmetry_Pilot,2022.1.3,Win32,62.08866261,629c4b6caf241d5e6e00bfc0,,,,,,,,,,,,,,,,,,,,threefour,,-3,0.9332,,,,,,,,,,,,,,,,,,,,,,,,,,,,,,,,,,"[0.40379999999999994,0.09000000000000008,0.44300000000000006]","[0.3802000000000001,0.19199999999999995,-0.6394]",-48,24,1,0,0,response7disk,-8,-2,1,0,0,rectangle,-8,-2,1,0,0,1,3,0.0027,0,-8,-2,1,0,0,0,5,5,99,1,18,second,,,,,,,,,,,,,,,,,,,,,,,,,,,,,,,,,,,,,,,,,,,,,,,,,,,,,,,,
,,,,,,5fa48feaddfbd812de13f3bb,629c52427194cb9303f1baa8,2022-06-05_08h58.11.819,Colour_Asymmetry_Pilot,2022.1.3,Win32,62.08866261,629c4b6caf241d5e6e00bfc0,,,,,,,,,,,,,,,,,,,,threefour,,-1,1.7554,,,,,,,,,,,,,,,,,,,,,,,,,,,,,,,,,,"[0.9763999999999999,0.8588,-0.05900000000000005]","[0.0351999999999999,0.41159999999999997,0.0038000000000000256]",-40,-65,1,0,0,response5disk,-10,-5,1,0,0,rectangle,-10,-5,1,0,0,1,2,0.0025,0,-10,-5,1,0,0,0,6,6,130,1,49,second,,,,,,,,,,,,,,,,,,,,,,,,,,,,,,,,,,,,,,,,,,,,,,,,,,,,,,,,
,,,,,,5fa48feaddfbd812de13f3bb,629c52427194cb9303f1baa8,2022-06-05_08h58.11.819,Colour_Asymmetry_Pilot,2022.1.3,Win32,62.08866261,629c4b6caf241d5e6e00bfc0,,,,,,,,,,,,,,,,,,,,threeone,,1,3.4551,,,,,,,,,,,,,,,,,,,,,,,,,,,,,,,,,,"[-0.06680000000000008,-0.45100000000000007,-0.906]","[0.7018,0.7802,-0.16079999999999994]",23,-86,1,0,0,response3disk,2,3,1,0,0,rectangle,2,3,1,0,0,1,3,0.0029,0,2,3,1,0,0,0,7,7,139,1,58,second,,,,,,,,,,,,,,,,,,,,,,,,,,,,,,,,,,,,,,,,,,,,,,,,,,,,,,,,
,,,,,,5fa48feaddfbd812de13f3bb,629c52427194cb9303f1baa8,2022-06-05_08h58.11.819,Colour_Asymmetry_Pilot,2022.1.3,Win32,62.08866261,629c4b6caf241d5e6e00bfc0,,,,,,,,,,,,,,,,,,,,fourthree,,-3,6.5397,,,,,,,,,,,,,,,,,,,,,,,,,,,,,,,,,,"[0.8274000000000001,-0.5844,-0.9452]","[0.05879999999999996,0.2784,0.5841999999999998]",-74,48,1,0,0,response7disk,-15,0,1,0,0,rectangle,-15,0,1,0,0,1,1,0.0054,0,-15,0,1,0,0,0,8,8,79,1,79,first,,,,,,,,,,,,,,,,,,,,,,,,,,,,,,,,,,,,,,,,,,,,,,,,,,,,,,,,
,,,,,,5fa48feaddfbd812de13f3bb,629c52427194cb9303f1baa8,2022-06-05_08h58.11.819,Colour_Asymmetry_Pilot,2022.1.3,Win32,62.08866261,629c4b6caf241d5e6e00bfc0,,,,,,,,,,,,,,,,,,,,onethree,,-1,1.888,,,,,,,,,,,,,,,,,,,,,,,,,,,,,,,,,,"[-0.6706000000000001,-0.6157999999999999,-0.6786]","[0.05879999999999996,0.2784,0.5841999999999998]",-26,-82,1,0,0,response5disk,-7,-9,1,0,0,rectangle,-7,-9,1,0,0,1,2,0.0046,0,-7,-9,1,0,0,0,9,9,108,1,27,second,,,,,,,,,,,,,,,,,,,,,,,,,,,,,,,,,,,,,,,,,,,,,,,,,,,,,,,,
,,,,,,5fa48feaddfbd812de13f3bb,629c52427194cb9303f1baa8,2022-06-05_08h58.11.819,Colour_Asymmetry_Pilot,2022.1.3,Win32,62.08866261,629c4b6caf241d5e6e00bfc0,,,,,,,,,,,,,,,,,,,,threefour,,-3,1.5071,,,,,,,,,,,,,,,,,,,,,,,,,,,,,,,,,,"[-0.5688,-0.08239999999999992,-0.1844]","[0.34099999999999997,0.5841999999999998,-0.9844]",-83,54,1,0,0,response7disk,7,7,1,0,0,rectangle,7,7,1,0,0,1,2,0.0006,0,7,7,1,0,0,0,10,10,83,1,2,second,,,,,,,,,,,,,,,,,,,,,,,,,,,,,,,,,,,,,,,,,,,,,,,,,,,,,,,,
,,,,,,5fa48feaddfbd812de13f3bb,629c52427194cb9303f1baa8,2022-06-05_08h58.11.819,Colour_Asymmetry_Pilot,2022.1.3,Win32,62.08866261,629c4b6caf241d5e6e00bfc0,,,,,,,,,,,,,,,,,,,,onetwo,,-4,1.4211,,,,,,,,,,,,,,,,,,,,,,,,,,,,,,,,,,"[0.8274000000000001,-0.5844,-0.9452]","[0.7018,0.7802,-0.16079999999999994]",-32,74,1,0,0,response7disk,17,-2,1,0,0,rectangle,17,-2,1,0,0,1,3,0.0025,0,17,-2,1,0,0,0,11,11,86,1,5,second,,,,,,,,,,,,,,,,,,,,,,,,,,,,,,,,,,,,,,,,,,,,,,,,,,,,,,,,
,,,,,,5fa48feaddfbd812de13f3bb,629c52427194cb9303f1baa8,2022-06-05_08h58.11.819,Colour_Asymmetry_Pilot,2022.1.3,Win32,62.08866261,629c4b6caf241d5e6e00bfc0,,,,,,,,,,,,,,,,,,,,twofour,,-3,1.1008,,,,,,,,,,,,,,,,,,,,,,,,,,,,,,,,,,"[-0.011800000000000033,-0.906,-0.45100000000000007]","[-0.24719999999999998,0.5213999999999999,-0.12959999999999994]",-68,35,1,0,0,response7disk,-8,-6,1,0,0,rectangle,-8,-6,1,0,0,1,1,0.0026,0,-8,-6,1,0,0,0,12,12,80,1,80,first,,,,,,,,,,,,,,,,,,,,,,,,,,,,,,,,,,,,,,,,,,,,,,,,,,,,,,,,
,,,,,,5fa48feaddfbd812de13f3bb,629c52427194cb9303f1baa8,2022-06-05_08h58.11.819,Colour_Asymmetry_Pilot,2022.1.3,Win32,62.08866261,629c4b6caf241d5e6e00bfc0,,,,,,,,,,,,,,,,,,,,onethree,,-4,1.5895,,,,,,,,,,,,,,,,,,,,,,,,,,,,,,,,,,"[-0.6706000000000001,-0.6157999999999999,-0.6786]","[0.34099999999999997,0.12939999999999996,-0.9766]",-35,107,1,0,0,response7disk,0,-2,1,0,0,rectangle,0,-2,1,0,0,1,1,0.0138,0,0,-2,1,0,0,0,13,13,109,1,28,second,,,,,,,,,,,,,,,,,,,,,,,,,,,,,,,,,,,,,,,,,,,,,,,,,,,,,,,,
,,,,,,5fa48feaddfbd812de13f3bb,629c52427194cb9303f1baa8,2022-06-05_08h58.11.819,Colour_Asymmetry_Pilot,2022.1.3,Win32,62.08866261,629c4b6caf241d5e6e00bfc0,,,,,,,,,,,,,,,,,,,,threeone,,1,2.9352,,,,,,,,,,,,,,,,,,,,,,,,,,,,,,,,,,"[-0.45899999999999996,-0.3256,-0.9374]","[-0.24719999999999998,0.5213999999999999,-0.12959999999999994]",32,-85,1,0,0,response3disk,-2,-4,1,0,0,rectangle,-2,-4,1,0,0,1,1,0.0015,0,-2,-4,1,0,0,0,14,14,90,1,9,second,,,,,,,,,,,,,,,,,,,,,,,,,,,,,,,,,,,,,,,,,,,,,,,,,,,,,,,,
,,,,,,5fa48feaddfbd812de13f3bb,629c52427194cb9303f1baa8,2022-06-05_08h58.11.819,Colour_Asymmetry_Pilot,2022.1.3,Win32,62.08866261,629c4b6caf241d5e6e00bfc0,,,,,,,,,,,,,,,,,,,,onethree,,-1,2.3694,,,,,,,,,,,,,,,,,,,,,,,,,,,,,,,,,,"[0.09799999999999986,-0.24719999999999998,0.15280000000000005]","[0.2862,0.7802,0.3568]",-40,-61,1,0,0,response5disk,-3,0,1,0,0,rectangle,-3,0,1,0,0,1,2,0.0054,0,-3,0,1,0,0,0,15,15,50,1,50,first,,,,,,,,,,,,,,,,,,,,,,,,,,,,,,,,,,,,,,,,,,,,,,,,,,,,,,,,
,,,,,,5fa48feaddfbd812de13f3bb,629c52427194cb9303f1baa8,2022-06-05_08h58.11.819,Colour_Asymmetry_Pilot,2022.1.3,Win32,62.08866261,629c4b6caf241d5e6e00bfc0,,,,,,,,,,,,,,,,,,,,onetwo,,-4,3.2305,,,,,,,,,,,,,,,,,,,,,,,,,,,,,,,,,,"[0.7802,-0.23140000000000005,-0.20799999999999996]","[0.5528,0.7409999999999999,-0.71]",-53,66,1,0,0,response7disk,-13,6,1,0,0,rectangle,-13,6,1,0,0,1,2,0.0005,0,-13,6,1,0,0,0,16,16,10,1,10,first,,,,,,,,,,,,,,,,,,,,,,,,,,,,,,,,,,,,,,,,,,,,,,,,,,,,,,,,
,,,,,,5fa48feaddfbd812de13f3bb,629c52427194cb9303f1baa8,2022-06-05_08h58.11.819,Colour_Asymmetry_Pilot,2022.1.3,Win32,62.08866261,629c4b6caf241d5e6e00bfc0,,,,,,,,,,,,,,,,,,,,threeone,,-4,1.0393,,,,,,,,,,,,,,,,,,,,,,,,,,,,,,,,,,"[0.09799999999999986,-0.24719999999999998,0.15280000000000005]","[-0.17659999999999998,0.3253999999999999,0.19999999999999996]",-43,72,1,0,0,response7disk,-12,5,1,0,0,rectangle,-12,5,1,0,0,1,2,0.0007,0,-12,5,1,0,0,0,17,17,132,1,51,second,,,,,,,,,,,,,,,,,,,,,,,,,,,,,,,,,,,,,,,,,,,,,,,,,,,,,,,,
,,,,,,5fa48feaddfbd812de13f3bb,629c52427194cb9303f1baa8,2022-06-05_08h58.11.819,Colour_Asymmetry_Pilot,2022.1.3,Win32,62.08866261,629c4b6caf241d5e6e00bfc0,,,,,,,,,,,,,,,,,,,,onetwo,,-2,2.39,,,,,,,,,,,,,,,,,,,,,,,,,,,,,,,,,,"[-0.5688,-0.08239999999999992,-0.1844]","[-0.5922000000000001,-0.7492000000000001,-0.5296000000000001]",-81,-57,1,0,0,response5disk,1,-5,1,0,0,rectangle,1,-5,1,0,0,1,3,0.0048,0,1,-5,1,0,0,0,18,18,89,1,8,second,,,,,,,,,,,,,,,,,,,,,,,,,,,,,,,,,,,,,,,,,,,,,,,,,,,,,,,,
,,,,,,5fa48feaddfbd812de13f3bb,629c52427194cb9303f1baa8,2022-06-05_08h58.11.819,Colour_Asymmetry_Pilot,2022.1.3,Win32,62.08866261,629c4b6caf241d5e6e00bfc0,,,,,,,,,,,,,,,,,,,,threeone,,-4,0.8009,,,,,,,,,,,,,,,,,,,,,,,,,,,,,,,,,,"[0.2784,-0.31000000000000005,-0.5452]","[-0.6235999999999999,-0.6786,-0.08239999999999992]",-41,80,1,0,0,response7disk,-1,-2,1,0,0,rectangle,-1,-2,1,0,0,1,1,0.0028,0,-1,-2,1,0,0,0,19,19,113,1,32,second,,,,,,,,,,,,,,,,,,,,,,,,,,,,,,,,,,,,,,,,,,,,,,,,,,,,,,,,
,,,,,,5fa48feaddfbd812de13f3bb,629c52427194cb9303f1baa8,2022-06-05_08h58.11.819,Colour_Asymmetry_Pilot,2022.1.3,Win32,62.08866261,629c4b6caf241d5e6e00bfc0,,,,,,,,,,,,,,,,,,,,twoone,,-1,1.6681,,,,,,,,,,,,,,,,,,,,,,,,,,,,,,,,,,"[-0.6942,-0.7648,-0.12959999999999994]","[-0.34920000000000007,-0.702,-0.5216]",-28,-95,1,0,0,response5disk,-8,2,1,0,0,rectangle,-8,2,1,0,0,1,2,0.0023,0,-8,2,1,0,0,0,20,20,133,1,52,second,,,,,,,,,,,,,,,,,,,,,,,,,,,,,,,,,,,,,,,,,,,,,,,,,,,,,,,,
,,,,,,5fa48feaddfbd812de13f3bb,629c52427194cb9303f1baa8,2022-06-05_08h58.11.819,Colour_Asymmetry_Pilot,2022.1.3,Win32,62.08866261,629c4b6caf241d5e6e00bfc0,,,,,,,,,,,,,,,,,,,,fourthree,,-2,10.8606,,,,,,,,,,,,,,,,,,,,,,,,,,,,,,,,,,"[0.6547999999999998,-0.043199999999999905,-0.011800000000000033]","[-0.9216,-0.5529999999999999,-0.3962]",-53,-28,1,0,0,response5disk,-13,5,1,0,0,rectangle,-13,5,1,0,0,1,2,0.0005,0,-13,5,1,0,0,0,21,21,122,1,41,second,,,,,,,,,,,,,,,,,,,,,,,,,,,,,,,,,,,,,,,,,,,,,,,,,,,,,,,,
,,,,,,5fa48feaddfbd812de13f3bb,629c52427194cb9303f1baa8,2022-06-05_08h58.11.819,Colour_Asymmetry_Pilot,2022.1.3,Win32,62.08866261,629c4b6caf241d5e6e00bfc0,,,,,,,,,,,,,,,,,,,,onetwo,,2,3.5177,,,,,,,,,,,,,,,,,,,,,,,,,,,,,,,,,,"[0.7018,0.7176,0.6155999999999999]","[-0.26280000000000003,-0.2158,-0.3256]",79,-31,1,0,0,response3disk,5,8,1,0,0,rectangle,5,8,1,0,0,1,3,0.0032,0,5,8,1,0,0,0,22,22,35,1,35,first,,,,,,,,,,,,,,,,,,,,,,,,,,,,,,,,,,,,,,,,,,,,,,,,,,,,,,,,
,,,,,,5fa48feaddfbd812de13f3bb,629c52427194cb9303f1baa8,2022-06-05_08h58.11.819,Colour_Asymmetry_Pilot,2022.1.3,Win32,62.08866261,629c4b6caf241d5e6e00bfc0,,,,,,,,,,,,,,,,,,,,threeone,,4,1.5208,,,,,,,,,,,,,,,,,,,,,,,,,,,,,,,,,,"[0.7802,-0.23140000000000005,-0.20799999999999996]","[0.18419999999999992,-0.4276,-0.404]",25,63,1,0,0,response1disk,12,-3,1,0,0,rectangle,12,-3,1,0,0,1,1,0.0023,0,12,-3,1,0,0,0,23,23,3,1,3,first,,,,,,,,,,,,,,,,,,,,,,,,,,,,,,,,,,,,,,,,,,,,,,,,,,,,,,,,
,,,,,,5fa48feaddfbd812de13f3bb,629c52427194cb9303f1baa8,2022-06-05_08h58.11.819,Colour_Asymmetry_Pilot,2022.1.3,Win32,62.08866261,629c4b6caf241d5e6e00bfc0,,,,,,,,,,,,,,,,,,,,fourthree,,-4,1.0704,,,,,,,,,,,,,,,,,,,,,,,,,,,,,,,,,,"[-0.07459999999999989,0.12139999999999995,-0.9922]","[-0.9844,-0.9688,-0.9922]",-41,72,1,0,0,response7disk,-4,2,1,0,0,rectangle,-4,2,1,0,0,1,1,0.0004,0,-4,2,1,0,0,0,24,24,112,1,31,second,,,,,,,,,,,,,,,,,,,,,,,,,,,,,,,,,,,,,,,,,,,,,,,,,,,,,,,,
,,,,,,5fa48feaddfbd812de13f3bb,629c52427194cb9303f1baa8,2022-06-05_08h58.11.819,Colour_Asymmetry_Pilot,2022.1.3,Win32,62.08866261,629c4b6caf241d5e6e00bfc0,,,,,,,,,,,,,,,,,,,,onethree,,-3,1.4008,,,,,,,,,,,,,,,,,,,,,,,,,,,,,,,,,,"[-0.48240000000000005,0.3175999999999999,0.2156]","[0.7018,0.7176,0.6155999999999999]",-62,36,1,0,0,response7disk,-10,2,1,0,0,rectangle,-10,2,1,0,0,1,3,0.0029,0,-10,2,1,0,0,0,25,25,88,1,7,second,,,,,,,,,,,,,,,,,,,,,,,,,,,,,,,,,,,,,,,,,,,,,,,,,,,,,,,,
,,,,,,5fa48feaddfbd812de13f3bb,629c52427194cb9303f1baa8,2022-06-05_08h58.11.819,Colour_Asymmetry_Pilot,2022.1.3,Win32,62.08866261,629c4b6caf241d5e6e00bfc0,,,,,,,,,,,,,,,,,,,,fourthree,,-4,3.8211,,,,,,,,,,,,,,,,,,,,,,,,,,,,,,,,,,"[-0.011800000000000033,-0.906,-0.45100000000000007]","[-0.30200000000000005,0.14500000000000002,0.2784]",-45,75,1,0,0,response7disk,-11,8,1,0,0,rectangle,-11,8,1,0,0,1,1,0.0025,0,-11,8,1,0,0,0,26,26,140,1,59,second,,,,,,,,,,,,,,,,,,,,,,,,,,,,,,,,,,,,,,,,,,,,,,,,,,,,,,,,
,,,,,,5fa48feaddfbd812de13f3bb,629c52427194cb9303f1baa8,2022-06-05_08h58.11.819,Colour_Asymmetry_Pilot,2022.1.3,Win32,62.08866261,629c4b6caf241d5e6e00bfc0,,,,,,,,,,,,,,,,,,,,fourthree,,4,2.1348,,,,,,,,,,,,,,,,,,,,,,,,,,,,,,,,,,"[-0.9688,-0.4902000000000001,-0.12159999999999993]","[-0.9766,-0.34920000000000007,0.2156]",33,78,1,0,0,response1disk,0,-9,1,0,0,rectangle,0,-9,1,0,0,1,1,0.0008,0,0,-9,1,0,0,0,27,27,141,1,60,second,,,,,,,,,,,,,,,,,,,,,,,,,,,,,,,,,,,,,,,,,,,,,,,,,,,,,,,,
