trials.thisRepN,trials.thisTrialN,trials.thisN,trials.thisIndex,trials.ran,Colourcodes,participant,session,date,expName,psychopyVersion,OS,frameRate,study_id,trials_4.thisRepN,trials_4.thisTrialN,trials_4.thisN,trials_4.thisIndex,trials_4.ran,StimulusPos,key_resp.keys,key_resp.rt,key_resp_2.keys,key_resp_2.rt,key_resp_15.keys,key_resp_15.rt,key_resp_17.keys,key_resp_17.rt,key_resp_9.keys,key_resp_9.rt,key_resp_10.keys,key_resp_10.rt,Circle1_col,Ecc,Circle2_col,similarity,response_time,mouse_5.x,mouse_5.y,mouse_5.leftButton,mouse_5.midButton,mouse_5.rightButton,mouse_5.clicked_name,mouse_10.x,mouse_10.y,mouse_10.leftButton,mouse_10.midButton,mouse_10.rightButton,mouse_10.clicked_name,mouse_7.x,mouse_7.y,mouse_7.leftButton,mouse_7.midButton,mouse_7.rightButton,catchnumberprac,mouse_6.x,mouse_6.y,mouse_6.leftButton,mouse_6.midButton,mouse_6.rightButton,duringprac.thisRepN,duringprac.thisTrialN,duringprac.thisN,duringprac.thisIndex,duringprac.ran,mouse_7.clicked_name,catchprac,mouse_6.clicked_name,key_resp_22.keys,key_resp_22.rt,Circle1_colour,Circle2_colour,mouse.x,mouse.y,mouse.leftButton,mouse.midButton,mouse.rightButton,mouse.clicked_name,mouse_2.x,mouse_2.y,mouse_2.leftButton,mouse_2.midButton,mouse_2.rightButton,mouse_2.clicked_name,mouse_3.x,mouse_3.y,mouse_3.leftButton,mouse_3.midButton,mouse_3.rightButton,catchresponse,catchnumber,response_time_catch,Catch,mouse_11.x,mouse_11.y,mouse_11.leftButton,mouse_11.midButton,mouse_11.rightButton,trials_2.thisRepN,trials_2.thisTrialN,trials_2.thisN,trials_2.thisIndex,trials_2.ran,Colourpair,Temporder,mouse_3.clicked_name,mouse_11.clicked_name,trials_3.thisRepN,trials_3.thisTrialN,trials_3.thisN,trials_3.thisIndex,trials_3.ran,textbox.text,mouse_4.x,mouse_4.y,mouse_4.leftButton,mouse_4.midButton,mouse_4.rightButton,mouse_4.clicked_name,textbox_2.text,mouse_8.x,mouse_8.y,mouse_8.leftButton,mouse_8.midButton,mouse_8.rightButton,mouse_8.clicked_name,textbox_3.text,mouse_9.x,mouse_9.y,mouse_9.leftButton,mouse_9.midButton,mouse_9.rightButton,mouse_9.clicked_name,textbox_4.text,mouse_12.x,mouse_12.y,mouse_12.leftButton,mouse_12.midButton,mouse_12.rightButton,mouse_12.clicked_name,textbox_5.text,mouse_13.x,mouse_13.y,mouse_13.leftButton,mouse_13.midButton,mouse_13.rightButton,mouse_13.clicked_name,textbox_6.text,mouse_14.x,mouse_14.y,mouse_14.leftButton,mouse_14.midButton,mouse_14.rightButton,mouse_14.clicked_name,textbox_7.text,mouse_15.x,mouse_15.y,mouse_15.leftButton,mouse_15.midButton,mouse_15.rightButton,mouse_15.clicked_name
0,0,0,89,1,,614e155acfb658911e1b16f7,629c52334f6fa95b4ee90ef8,2022-06-05_08h53.42.531,Colour_Asymmetry_Pilot,2022.1.3,Win32,60.0060006,629c4b6caf241d5e6e00bfc0,,,,,,,,,,,,,,,,,,,,,,,,,,,,,,,,,,,,,,,,,,,,,,,,,,,,,,,,,,,,,,,,,,,,,,,,,,,,,,,,,,,,,,,,,,,,,,,,,,,,,,,,,,,,,,,,,,,,,,,,,,,,,,,,,,,,,,,,,,,,,,,,,,,
0,1,1,60,1,,614e155acfb658911e1b16f7,629c52334f6fa95b4ee90ef8,2022-06-05_08h53.42.531,Colour_Asymmetry_Pilot,2022.1.3,Win32,60.0060006,629c4b6caf241d5e6e00bfc0,,,,,,,,,,,,,,,,,,,,,,,,,,,,,,,,,,,,,,,,,,,,,,,,,,,,,,,,,,,,,,,,,,,,,,,,,,,,,,,,,,,,,,,,,,,,,,,,,,,,,,,,,,,,,,,,,,,,,,,,,,,,,,,,,,,,,,,,,,,,,,,,,,,
0,2,2,64,1,,614e155acfb658911e1b16f7,629c52334f6fa95b4ee90ef8,2022-06-05_08h53.42.531,Colour_Asymmetry_Pilot,2022.1.3,Win32,60.0060006,629c4b6caf241d5e6e00bfc0,,,,,,,,,,,,,,,,,,,,,,,,,,,,,,,,,,,,,,,,,,,,,,,,,,,,,,,,,,,,,,,,,,,,,,,,,,,,,,,,,,,,,,,,,,,,,,,,,,,,,,,,,,,,,,,,,,,,,,,,,,,,,,,,,,,,,,,,,,,,,,,,,,,
0,3,3,72,1,,614e155acfb658911e1b16f7,629c52334f6fa95b4ee90ef8,2022-06-05_08h53.42.531,Colour_Asymmetry_Pilot,2022.1.3,Win32,60.0060006,629c4b6caf241d5e6e00bfc0,,,,,,,,,,,,,,,,,,,,,,,,,,,,,,,,,,,,,,,,,,,,,,,,,,,,,,,,,,,,,,,,,,,,,,,,,,,,,,,,,,,,,,,,,,,,,,,,,,,,,,,,,,,,,,,,,,,,,,,,,,,,,,,,,,,,,,,,,,,,,,,,,,,
0,4,4,37,1,,614e155acfb658911e1b16f7,629c52334f6fa95b4ee90ef8,2022-06-05_08h53.42.531,Colour_Asymmetry_Pilot,2022.1.3,Win32,60.0060006,629c4b6caf241d5e6e00bfc0,,,,,,,,,,,,,,,,,,,,,,,,,,,,,,,,,,,,,,,,,,,,,,,,,,,,,,,,,,,,,,,,,,,,,,,,,,,,,,,,,,,,,,,,,,,,,,,,,,,,,,,,,,,,,,,,,,,,,,,,,,,,,,,,,,,,,,,,,,,,,,,,,,,
0,5,5,85,1,,614e155acfb658911e1b16f7,629c52334f6fa95b4ee90ef8,2022-06-05_08h53.42.531,Colour_Asymmetry_Pilot,2022.1.3,Win32,60.0060006,629c4b6caf241d5e6e00bfc0,,,,,,,,,,,,,,,,,,,,,,,,,,,,,,,,,,,,,,,,,,,,,,,,,,,,,,,,,,,,,,,,,,,,,,,,,,,,,,,,,,,,,,,,,,,,,,,,,,,,,,,,,,,,,,,,,,,,,,,,,,,,,,,,,,,,,,,,,,,,,,,,,,,
0,6,6,45,1,,614e155acfb658911e1b16f7,629c52334f6fa95b4ee90ef8,2022-06-05_08h53.42.531,Colour_Asymmetry_Pilot,2022.1.3,Win32,60.0060006,629c4b6caf241d5e6e00bfc0,,,,,,,,,,,,,,,,,,,,,,,,,,,,,,,,,,,,,,,,,,,,,,,,,,,,,,,,,,,,,,,,,,,,,,,,,,,,,,,,,,,,,,,,,,,,,,,,,,,,,,,,,,,,,,,,,,,,,,,,,,,,,,,,,,,,,,,,,,,,,,,,,,,
0,7,7,81,1,,614e155acfb658911e1b16f7,629c52334f6fa95b4ee90ef8,2022-06-05_08h53.42.531,Colour_Asymmetry_Pilot,2022.1.3,Win32,60.0060006,629c4b6caf241d5e6e00bfc0,,,,,,,,,,,,,,,,,,,,,,,,,,,,,,,,,,,,,,,,,,,,,,,,,,,,,,,,,,,,,,,,,,,,,,,,,,,,,,,,,,,,,,,,,,,,,,,,,,,,,,,,,,,,,,,,,,,,,,,,,,,,,,,,,,,,,,,,,,,,,,,,,,,
0,8,8,78,1,,614e155acfb658911e1b16f7,629c52334f6fa95b4ee90ef8,2022-06-05_08h53.42.531,Colour_Asymmetry_Pilot,2022.1.3,Win32,60.0060006,629c4b6caf241d5e6e00bfc0,,,,,,,,,,,,,,,,,,,,,,,,,,,,,,,,,,,,,,,,,,,,,,,,,,,,,,,,,,,,,,,,,,,,,,,,,,,,,,,,,,,,,,,,,,,,,,,,,,,,,,,,,,,,,,,,,,,,,,,,,,,,,,,,,,,,,,,,,,,,,,,,,,,
0,9,9,42,1,,614e155acfb658911e1b16f7,629c52334f6fa95b4ee90ef8,2022-06-05_08h53.42.531,Colour_Asymmetry_Pilot,2022.1.3,Win32,60.0060006,629c4b6caf241d5e6e00bfc0,,,,,,,,,,,,,,,,,,,,,,,,,,,,,,,,,,,,,,,,,,,,,,,,,,,,,,,,,,,,,,,,,,,,,,,,,,,,,,,,,,,,,,,,,,,,,,,,,,,,,,,,,,,,,,,,,,,,,,,,,,,,,,,,,,,,,,,,,,,,,,,,,,,
0,10,10,53,1,,614e155acfb658911e1b16f7,629c52334f6fa95b4ee90ef8,2022-06-05_08h53.42.531,Colour_Asymmetry_Pilot,2022.1.3,Win32,60.0060006,629c4b6caf241d5e6e00bfc0,,,,,,,,,,,,,,,,,,,,,,,,,,,,,,,,,,,,,,,,,,,,,,,,,,,,,,,,,,,,,,,,,,,,,,,,,,,,,,,,,,,,,,,,,,,,,,,,,,,,,,,,,,,,,,,,,,,,,,,,,,,,,,,,,,,,,,,,,,,,,,,,,,,
0,11,11,84,1,,614e155acfb658911e1b16f7,629c52334f6fa95b4ee90ef8,2022-06-05_08h53.42.531,Colour_Asymmetry_Pilot,2022.1.3,Win32,60.0060006,629c4b6caf241d5e6e00bfc0,,,,,,,,,,,,,,,,,,,,,,,,,,,,,,,,,,,,,,,,,,,,,,,,,,,,,,,,,,,,,,,,,,,,,,,,,,,,,,,,,,,,,,,,,,,,,,,,,,,,,,,,,,,,,,,,,,,,,,,,,,,,,,,,,,,,,,,,,,,,,,,,,,,
0,12,12,36,1,,614e155acfb658911e1b16f7,629c52334f6fa95b4ee90ef8,2022-06-05_08h53.42.531,Colour_Asymmetry_Pilot,2022.1.3,Win32,60.0060006,629c4b6caf241d5e6e00bfc0,,,,,,,,,,,,,,,,,,,,,,,,,,,,,,,,,,,,,,,,,,,,,,,,,,,,,,,,,,,,,,,,,,,,,,,,,,,,,,,,,,,,,,,,,,,,,,,,,,,,,,,,,,,,,,,,,,,,,,,,,,,,,,,,,,,,,,,,,,,,,,,,,,,
0,13,13,49,1,,614e155acfb658911e1b16f7,629c52334f6fa95b4ee90ef8,2022-06-05_08h53.42.531,Colour_Asymmetry_Pilot,2022.1.3,Win32,60.0060006,629c4b6caf241d5e6e00bfc0,,,,,,,,,,,,,,,,,,,,,,,,,,,,,,,,,,,,,,,,,,,,,,,,,,,,,,,,,,,,,,,,,,,,,,,,,,,,,,,,,,,,,,,,,,,,,,,,,,,,,,,,,,,,,,,,,,,,,,,,,,,,,,,,,,,,,,,,,,,,,,,,,,,
0,14,14,91,1,,614e155acfb658911e1b16f7,629c52334f6fa95b4ee90ef8,2022-06-05_08h53.42.531,Colour_Asymmetry_Pilot,2022.1.3,Win32,60.0060006,629c4b6caf241d5e6e00bfc0,,,,,,,,,,,,,,,,,,,,,,,,,,,,,,,,,,,,,,,,,,,,,,,,,,,,,,,,,,,,,,,,,,,,,,,,,,,,,,,,,,,,,,,,,,,,,,,,,,,,,,,,,,,,,,,,,,,,,,,,,,,,,,,,,,,,,,,,,,,,,,,,,,,
0,15,15,21,1,,614e155acfb658911e1b16f7,629c52334f6fa95b4ee90ef8,2022-06-05_08h53.42.531,Colour_Asymmetry_Pilot,2022.1.3,Win32,60.0060006,629c4b6caf241d5e6e00bfc0,,,,,,,,,,,,,,,,,,,,,,,,,,,,,,,,,,,,,,,,,,,,,,,,,,,,,,,,,,,,,,,,,,,,,,,,,,,,,,,,,,,,,,,,,,,,,,,,,,,,,,,,,,,,,,,,,,,,,,,,,,,,,,,,,,,,,,,,,,,,,,,,,,,
0,16,16,58,1,,614e155acfb658911e1b16f7,629c52334f6fa95b4ee90ef8,2022-06-05_08h53.42.531,Colour_Asymmetry_Pilot,2022.1.3,Win32,60.0060006,629c4b6caf241d5e6e00bfc0,,,,,,,,,,,,,,,,,,,,,,,,,,,,,,,,,,,,,,,,,,,,,,,,,,,,,,,,,,,,,,,,,,,,,,,,,,,,,,,,,,,,,,,,,,,,,,,,,,,,,,,,,,,,,,,,,,,,,,,,,,,,,,,,,,,,,,,,,,,,,,,,,,,
0,17,17,73,1,,614e155acfb658911e1b16f7,629c52334f6fa95b4ee90ef8,2022-06-05_08h53.42.531,Colour_Asymmetry_Pilot,2022.1.3,Win32,60.0060006,629c4b6caf241d5e6e00bfc0,,,,,,,,,,,,,,,,,,,,,,,,,,,,,,,,,,,,,,,,,,,,,,,,,,,,,,,,,,,,,,,,,,,,,,,,,,,,,,,,,,,,,,,,,,,,,,,,,,,,,,,,,,,,,,,,,,,,,,,,,,,,,,,,,,,,,,,,,,,,,,,,,,,
0,18,18,43,1,,614e155acfb658911e1b16f7,629c52334f6fa95b4ee90ef8,2022-06-05_08h53.42.531,Colour_Asymmetry_Pilot,2022.1.3,Win32,60.0060006,629c4b6caf241d5e6e00bfc0,,,,,,,,,,,,,,,,,,,,,,,,,,,,,,,,,,,,,,,,,,,,,,,,,,,,,,,,,,,,,,,,,,,,,,,,,,,,,,,,,,,,,,,,,,,,,,,,,,,,,,,,,,,,,,,,,,,,,,,,,,,,,,,,,,,,,,,,,,,,,,,,,,,
0,19,19,66,1,,614e155acfb658911e1b16f7,629c52334f6fa95b4ee90ef8,2022-06-05_08h53.42.531,Colour_Asymmetry_Pilot,2022.1.3,Win32,60.0060006,629c4b6caf241d5e6e00bfc0,,,,,,,,,,,,,,,,,,,,,,,,,,,,,,,,,,,,,,,,,,,,,,,,,,,,,,,,,,,,,,,,,,,,,,,,,,,,,,,,,,,,,,,,,,,,,,,,,,,,,,,,,,,,,,,,,,,,,,,,,,,,,,,,,,,,,,,,,,,,,,,,,,,
0,20,20,86,1,,614e155acfb658911e1b16f7,629c52334f6fa95b4ee90ef8,2022-06-05_08h53.42.531,Colour_Asymmetry_Pilot,2022.1.3,Win32,60.0060006,629c4b6caf241d5e6e00bfc0,,,,,,,,,,,,,,,,,,,,,,,,,,,,,,,,,,,,,,,,,,,,,,,,,,,,,,,,,,,,,,,,,,,,,,,,,,,,,,,,,,,,,,,,,,,,,,,,,,,,,,,,,,,,,,,,,,,,,,,,,,,,,,,,,,,,,,,,,,,,,,,,,,,
0,21,21,35,1,,614e155acfb658911e1b16f7,629c52334f6fa95b4ee90ef8,2022-06-05_08h53.42.531,Colour_Asymmetry_Pilot,2022.1.3,Win32,60.0060006,629c4b6caf241d5e6e00bfc0,,,,,,,,,,,,,,,,,,,,,,,,,,,,,,,,,,,,,,,,,,,,,,,,,,,,,,,,,,,,,,,,,,,,,,,,,,,,,,,,,,,,,,,,,,,,,,,,,,,,,,,,,,,,,,,,,,,,,,,,,,,,,,,,,,,,,,,,,,,,,,,,,,,
0,22,22,69,1,,614e155acfb658911e1b16f7,629c52334f6fa95b4ee90ef8,2022-06-05_08h53.42.531,Colour_Asymmetry_Pilot,2022.1.3,Win32,60.0060006,629c4b6caf241d5e6e00bfc0,,,,,,,,,,,,,,,,,,,,,,,,,,,,,,,,,,,,,,,,,,,,,,,,,,,,,,,,,,,,,,,,,,,,,,,,,,,,,,,,,,,,,,,,,,,,,,,,,,,,,,,,,,,,,,,,,,,,,,,,,,,,,,,,,,,,,,,,,,,,,,,,,,,
0,23,23,0,1,,614e155acfb658911e1b16f7,629c52334f6fa95b4ee90ef8,2022-06-05_08h53.42.531,Colour_Asymmetry_Pilot,2022.1.3,Win32,60.0060006,629c4b6caf241d5e6e00bfc0,,,,,,,,,,,,,,,,,,,,,,,,,,,,,,,,,,,,,,,,,,,,,,,,,,,,,,,,,,,,,,,,,,,,,,,,,,,,,,,,,,,,,,,,,,,,,,,,,,,,,,,,,,,,,,,,,,,,,,,,,,,,,,,,,,,,,,,,,,,,,,,,,,,
0,24,24,80,1,,614e155acfb658911e1b16f7,629c52334f6fa95b4ee90ef8,2022-06-05_08h53.42.531,Colour_Asymmetry_Pilot,2022.1.3,Win32,60.0060006,629c4b6caf241d5e6e00bfc0,,,,,,,,,,,,,,,,,,,,,,,,,,,,,,,,,,,,,,,,,,,,,,,,,,,,,,,,,,,,,,,,,,,,,,,,,,,,,,,,,,,,,,,,,,,,,,,,,,,,,,,,,,,,,,,,,,,,,,,,,,,,,,,,,,,,,,,,,,,,,,,,,,,
0,25,25,14,1,,614e155acfb658911e1b16f7,629c52334f6fa95b4ee90ef8,2022-06-05_08h53.42.531,Colour_Asymmetry_Pilot,2022.1.3,Win32,60.0060006,629c4b6caf241d5e6e00bfc0,,,,,,,,,,,,,,,,,,,,,,,,,,,,,,,,,,,,,,,,,,,,,,,,,,,,,,,,,,,,,,,,,,,,,,,,,,,,,,,,,,,,,,,,,,,,,,,,,,,,,,,,,,,,,,,,,,,,,,,,,,,,,,,,,,,,,,,,,,,,,,,,,,,
0,26,26,57,1,,614e155acfb658911e1b16f7,629c52334f6fa95b4ee90ef8,2022-06-05_08h53.42.531,Colour_Asymmetry_Pilot,2022.1.3,Win32,60.0060006,629c4b6caf241d5e6e00bfc0,,,,,,,,,,,,,,,,,,,,,,,,,,,,,,,,,,,,,,,,,,,,,,,,,,,,,,,,,,,,,,,,,,,,,,,,,,,,,,,,,,,,,,,,,,,,,,,,,,,,,,,,,,,,,,,,,,,,,,,,,,,,,,,,,,,,,,,,,,,,,,,,,,,
0,27,27,82,1,,614e155acfb658911e1b16f7,629c52334f6fa95b4ee90ef8,2022-06-05_08h53.42.531,Colour_Asymmetry_Pilot,2022.1.3,Win32,60.0060006,629c4b6caf241d5e6e00bfc0,,,,,,,,,,,,,,,,,,,,,,,,,,,,,,,,,,,,,,,,,,,,,,,,,,,,,,,,,,,,,,,,,,,,,,,,,,,,,,,,,,,,,,,,,,,,,,,,,,,,,,,,,,,,,,,,,,,,,,,,,,,,,,,,,,,,,,,,,,,,,,,,,,,
0,28,28,75,1,,614e155acfb658911e1b16f7,629c52334f6fa95b4ee90ef8,2022-06-05_08h53.42.531,Colour_Asymmetry_Pilot,2022.1.3,Win32,60.0060006,629c4b6caf241d5e6e00bfc0,,,,,,,,,,,,,,,,,,,,,,,,,,,,,,,,,,,,,,,,,,,,,,,,,,,,,,,,,,,,,,,,,,,,,,,,,,,,,,,,,,,,,,,,,,,,,,,,,,,,,,,,,,,,,,,,,,,,,,,,,,,,,,,,,,,,,,,,,,,,,,,,,,,
0,29,29,20,1,,614e155acfb658911e1b16f7,629c52334f6fa95b4ee90ef8,2022-06-05_08h53.42.531,Colour_Asymmetry_Pilot,2022.1.3,Win32,60.0060006,629c4b6caf241d5e6e00bfc0,,,,,,,,,,,,,,,,,,,,,,,,,,,,,,,,,,,,,,,,,,,,,,,,,,,,,,,,,,,,,,,,,,,,,,,,,,,,,,,,,,,,,,,,,,,,,,,,,,,,,,,,,,,,,,,,,,,,,,,,,,,,,,,,,,,,,,,,,,,,,,,,,,,
0,30,30,55,1,,614e155acfb658911e1b16f7,629c52334f6fa95b4ee90ef8,2022-06-05_08h53.42.531,Colour_Asymmetry_Pilot,2022.1.3,Win32,60.0060006,629c4b6caf241d5e6e00bfc0,,,,,,,,,,,,,,,,,,,,,,,,,,,,,,,,,,,,,,,,,,,,,,,,,,,,,,,,,,,,,,,,,,,,,,,,,,,,,,,,,,,,,,,,,,,,,,,,,,,,,,,,,,,,,,,,,,,,,,,,,,,,,,,,,,,,,,,,,,,,,,,,,,,
0,31,31,61,1,,614e155acfb658911e1b16f7,629c52334f6fa95b4ee90ef8,2022-06-05_08h53.42.531,Colour_Asymmetry_Pilot,2022.1.3,Win32,60.0060006,629c4b6caf241d5e6e00bfc0,,,,,,,,,,,,,,,,,,,,,,,,,,,,,,,,,,,,,,,,,,,,,,,,,,,,,,,,,,,,,,,,,,,,,,,,,,,,,,,,,,,,,,,,,,,,,,,,,,,,,,,,,,,,,,,,,,,,,,,,,,,,,,,,,,,,,,,,,,,,,,,,,,,
0,32,32,56,1,,614e155acfb658911e1b16f7,629c52334f6fa95b4ee90ef8,2022-06-05_08h53.42.531,Colour_Asymmetry_Pilot,2022.1.3,Win32,60.0060006,629c4b6caf241d5e6e00bfc0,,,,,,,,,,,,,,,,,,,,,,,,,,,,,,,,,,,,,,,,,,,,,,,,,,,,,,,,,,,,,,,,,,,,,,,,,,,,,,,,,,,,,,,,,,,,,,,,,,,,,,,,,,,,,,,,,,,,,,,,,,,,,,,,,,,,,,,,,,,,,,,,,,,
0,33,33,50,1,,614e155acfb658911e1b16f7,629c52334f6fa95b4ee90ef8,2022-06-05_08h53.42.531,Colour_Asymmetry_Pilot,2022.1.3,Win32,60.0060006,629c4b6caf241d5e6e00bfc0,,,,,,,,,,,,,,,,,,,,,,,,,,,,,,,,,,,,,,,,,,,,,,,,,,,,,,,,,,,,,,,,,,,,,,,,,,,,,,,,,,,,,,,,,,,,,,,,,,,,,,,,,,,,,,,,,,,,,,,,,,,,,,,,,,,,,,,,,,,,,,,,,,,
0,34,34,25,1,,614e155acfb658911e1b16f7,629c52334f6fa95b4ee90ef8,2022-06-05_08h53.42.531,Colour_Asymmetry_Pilot,2022.1.3,Win32,60.0060006,629c4b6caf241d5e6e00bfc0,,,,,,,,,,,,,,,,,,,,,,,,,,,,,,,,,,,,,,,,,,,,,,,,,,,,,,,,,,,,,,,,,,,,,,,,,,,,,,,,,,,,,,,,,,,,,,,,,,,,,,,,,,,,,,,,,,,,,,,,,,,,,,,,,,,,,,,,,,,,,,,,,,,
0,35,35,70,1,,614e155acfb658911e1b16f7,629c52334f6fa95b4ee90ef8,2022-06-05_08h53.42.531,Colour_Asymmetry_Pilot,2022.1.3,Win32,60.0060006,629c4b6caf241d5e6e00bfc0,,,,,,,,,,,,,,,,,,,,,,,,,,,,,,,,,,,,,,,,,,,,,,,,,,,,,,,,,,,,,,,,,,,,,,,,,,,,,,,,,,,,,,,,,,,,,,,,,,,,,,,,,,,,,,,,,,,,,,,,,,,,,,,,,,,,,,,,,,,,,,,,,,,
0,36,36,76,1,,614e155acfb658911e1b16f7,629c52334f6fa95b4ee90ef8,2022-06-05_08h53.42.531,Colour_Asymmetry_Pilot,2022.1.3,Win32,60.0060006,629c4b6caf241d5e6e00bfc0,,,,,,,,,,,,,,,,,,,,,,,,,,,,,,,,,,,,,,,,,,,,,,,,,,,,,,,,,,,,,,,,,,,,,,,,,,,,,,,,,,,,,,,,,,,,,,,,,,,,,,,,,,,,,,,,,,,,,,,,,,,,,,,,,,,,,,,,,,,,,,,,,,,
0,37,37,15,1,,614e155acfb658911e1b16f7,629c52334f6fa95b4ee90ef8,2022-06-05_08h53.42.531,Colour_Asymmetry_Pilot,2022.1.3,Win32,60.0060006,629c4b6caf241d5e6e00bfc0,,,,,,,,,,,,,,,,,,,,,,,,,,,,,,,,,,,,,,,,,,,,,,,,,,,,,,,,,,,,,,,,,,,,,,,,,,,,,,,,,,,,,,,,,,,,,,,,,,,,,,,,,,,,,,,,,,,,,,,,,,,,,,,,,,,,,,,,,,,,,,,,,,,
0,38,38,26,1,,614e155acfb658911e1b16f7,629c52334f6fa95b4ee90ef8,2022-06-05_08h53.42.531,Colour_Asymmetry_Pilot,2022.1.3,Win32,60.0060006,629c4b6caf241d5e6e00bfc0,,,,,,,,,,,,,,,,,,,,,,,,,,,,,,,,,,,,,,,,,,,,,,,,,,,,,,,,,,,,,,,,,,,,,,,,,,,,,,,,,,,,,,,,,,,,,,,,,,,,,,,,,,,,,,,,,,,,,,,,,,,,,,,,,,,,,,,,,,,,,,,,,,,
0,39,39,19,1,,614e155acfb658911e1b16f7,629c52334f6fa95b4ee90ef8,2022-06-05_08h53.42.531,Colour_Asymmetry_Pilot,2022.1.3,Win32,60.0060006,629c4b6caf241d5e6e00bfc0,,,,,,,,,,,,,,,,,,,,,,,,,,,,,,,,,,,,,,,,,,,,,,,,,,,,,,,,,,,,,,,,,,,,,,,,,,,,,,,,,,,,,,,,,,,,,,,,,,,,,,,,,,,,,,,,,,,,,,,,,,,,,,,,,,,,,,,,,,,,,,,,,,,
0,40,40,92,1,,614e155acfb658911e1b16f7,629c52334f6fa95b4ee90ef8,2022-06-05_08h53.42.531,Colour_Asymmetry_Pilot,2022.1.3,Win32,60.0060006,629c4b6caf241d5e6e00bfc0,,,,,,,,,,,,,,,,,,,,,,,,,,,,,,,,,,,,,,,,,,,,,,,,,,,,,,,,,,,,,,,,,,,,,,,,,,,,,,,,,,,,,,,,,,,,,,,,,,,,,,,,,,,,,,,,,,,,,,,,,,,,,,,,,,,,,,,,,,,,,,,,,,,
0,41,41,31,1,,614e155acfb658911e1b16f7,629c52334f6fa95b4ee90ef8,2022-06-05_08h53.42.531,Colour_Asymmetry_Pilot,2022.1.3,Win32,60.0060006,629c4b6caf241d5e6e00bfc0,,,,,,,,,,,,,,,,,,,,,,,,,,,,,,,,,,,,,,,,,,,,,,,,,,,,,,,,,,,,,,,,,,,,,,,,,,,,,,,,,,,,,,,,,,,,,,,,,,,,,,,,,,,,,,,,,,,,,,,,,,,,,,,,,,,,,,,,,,,,,,,,,,,
0,42,42,18,1,,614e155acfb658911e1b16f7,629c52334f6fa95b4ee90ef8,2022-06-05_08h53.42.531,Colour_Asymmetry_Pilot,2022.1.3,Win32,60.0060006,629c4b6caf241d5e6e00bfc0,,,,,,,,,,,,,,,,,,,,,,,,,,,,,,,,,,,,,,,,,,,,,,,,,,,,,,,,,,,,,,,,,,,,,,,,,,,,,,,,,,,,,,,,,,,,,,,,,,,,,,,,,,,,,,,,,,,,,,,,,,,,,,,,,,,,,,,,,,,,,,,,,,,
0,43,43,1,1,,614e155acfb658911e1b16f7,629c52334f6fa95b4ee90ef8,2022-06-05_08h53.42.531,Colour_Asymmetry_Pilot,2022.1.3,Win32,60.0060006,629c4b6caf241d5e6e00bfc0,,,,,,,,,,,,,,,,,,,,,,,,,,,,,,,,,,,,,,,,,,,,,,,,,,,,,,,,,,,,,,,,,,,,,,,,,,,,,,,,,,,,,,,,,,,,,,,,,,,,,,,,,,,,,,,,,,,,,,,,,,,,,,,,,,,,,,,,,,,,,,,,,,,
0,44,44,77,1,,614e155acfb658911e1b16f7,629c52334f6fa95b4ee90ef8,2022-06-05_08h53.42.531,Colour_Asymmetry_Pilot,2022.1.3,Win32,60.0060006,629c4b6caf241d5e6e00bfc0,,,,,,,,,,,,,,,,,,,,,,,,,,,,,,,,,,,,,,,,,,,,,,,,,,,,,,,,,,,,,,,,,,,,,,,,,,,,,,,,,,,,,,,,,,,,,,,,,,,,,,,,,,,,,,,,,,,,,,,,,,,,,,,,,,,,,,,,,,,,,,,,,,,
0,45,45,10,1,,614e155acfb658911e1b16f7,629c52334f6fa95b4ee90ef8,2022-06-05_08h53.42.531,Colour_Asymmetry_Pilot,2022.1.3,Win32,60.0060006,629c4b6caf241d5e6e00bfc0,,,,,,,,,,,,,,,,,,,,,,,,,,,,,,,,,,,,,,,,,,,,,,,,,,,,,,,,,,,,,,,,,,,,,,,,,,,,,,,,,,,,,,,,,,,,,,,,,,,,,,,,,,,,,,,,,,,,,,,,,,,,,,,,,,,,,,,,,,,,,,,,,,,
0,46,46,12,1,,614e155acfb658911e1b16f7,629c52334f6fa95b4ee90ef8,2022-06-05_08h53.42.531,Colour_Asymmetry_Pilot,2022.1.3,Win32,60.0060006,629c4b6caf241d5e6e00bfc0,,,,,,,,,,,,,,,,,,,,,,,,,,,,,,,,,,,,,,,,,,,,,,,,,,,,,,,,,,,,,,,,,,,,,,,,,,,,,,,,,,,,,,,,,,,,,,,,,,,,,,,,,,,,,,,,,,,,,,,,,,,,,,,,,,,,,,,,,,,,,,,,,,,
0,47,47,83,1,,614e155acfb658911e1b16f7,629c52334f6fa95b4ee90ef8,2022-06-05_08h53.42.531,Colour_Asymmetry_Pilot,2022.1.3,Win32,60.0060006,629c4b6caf241d5e6e00bfc0,,,,,,,,,,,,,,,,,,,,,,,,,,,,,,,,,,,,,,,,,,,,,,,,,,,,,,,,,,,,,,,,,,,,,,,,,,,,,,,,,,,,,,,,,,,,,,,,,,,,,,,,,,,,,,,,,,,,,,,,,,,,,,,,,,,,,,,,,,,,,,,,,,,
0,48,48,46,1,,614e155acfb658911e1b16f7,629c52334f6fa95b4ee90ef8,2022-06-05_08h53.42.531,Colour_Asymmetry_Pilot,2022.1.3,Win32,60.0060006,629c4b6caf241d5e6e00bfc0,,,,,,,,,,,,,,,,,,,,,,,,,,,,,,,,,,,,,,,,,,,,,,,,,,,,,,,,,,,,,,,,,,,,,,,,,,,,,,,,,,,,,,,,,,,,,,,,,,,,,,,,,,,,,,,,,,,,,,,,,,,,,,,,,,,,,,,,,,,,,,,,,,,
0,49,49,17,1,,614e155acfb658911e1b16f7,629c52334f6fa95b4ee90ef8,2022-06-05_08h53.42.531,Colour_Asymmetry_Pilot,2022.1.3,Win32,60.0060006,629c4b6caf241d5e6e00bfc0,,,,,,,,,,,,,,,,,,,,,,,,,,,,,,,,,,,,,,,,,,,,,,,,,,,,,,,,,,,,,,,,,,,,,,,,,,,,,,,,,,,,,,,,,,,,,,,,,,,,,,,,,,,,,,,,,,,,,,,,,,,,,,,,,,,,,,,,,,,,,,,,,,,
0,50,50,4,1,,614e155acfb658911e1b16f7,629c52334f6fa95b4ee90ef8,2022-06-05_08h53.42.531,Colour_Asymmetry_Pilot,2022.1.3,Win32,60.0060006,629c4b6caf241d5e6e00bfc0,,,,,,,,,,,,,,,,,,,,,,,,,,,,,,,,,,,,,,,,,,,,,,,,,,,,,,,,,,,,,,,,,,,,,,,,,,,,,,,,,,,,,,,,,,,,,,,,,,,,,,,,,,,,,,,,,,,,,,,,,,,,,,,,,,,,,,,,,,,,,,,,,,,
0,51,51,8,1,,614e155acfb658911e1b16f7,629c52334f6fa95b4ee90ef8,2022-06-05_08h53.42.531,Colour_Asymmetry_Pilot,2022.1.3,Win32,60.0060006,629c4b6caf241d5e6e00bfc0,,,,,,,,,,,,,,,,,,,,,,,,,,,,,,,,,,,,,,,,,,,,,,,,,,,,,,,,,,,,,,,,,,,,,,,,,,,,,,,,,,,,,,,,,,,,,,,,,,,,,,,,,,,,,,,,,,,,,,,,,,,,,,,,,,,,,,,,,,,,,,,,,,,
0,52,52,2,1,,614e155acfb658911e1b16f7,629c52334f6fa95b4ee90ef8,2022-06-05_08h53.42.531,Colour_Asymmetry_Pilot,2022.1.3,Win32,60.0060006,629c4b6caf241d5e6e00bfc0,,,,,,,,,,,,,,,,,,,,,,,,,,,,,,,,,,,,,,,,,,,,,,,,,,,,,,,,,,,,,,,,,,,,,,,,,,,,,,,,,,,,,,,,,,,,,,,,,,,,,,,,,,,,,,,,,,,,,,,,,,,,,,,,,,,,,,,,,,,,,,,,,,,
0,53,53,6,1,,614e155acfb658911e1b16f7,629c52334f6fa95b4ee90ef8,2022-06-05_08h53.42.531,Colour_Asymmetry_Pilot,2022.1.3,Win32,60.0060006,629c4b6caf241d5e6e00bfc0,,,,,,,,,,,,,,,,,,,,,,,,,,,,,,,,,,,,,,,,,,,,,,,,,,,,,,,,,,,,,,,,,,,,,,,,,,,,,,,,,,,,,,,,,,,,,,,,,,,,,,,,,,,,,,,,,,,,,,,,,,,,,,,,,,,,,,,,,,,,,,,,,,,
0,54,54,38,1,,614e155acfb658911e1b16f7,629c52334f6fa95b4ee90ef8,2022-06-05_08h53.42.531,Colour_Asymmetry_Pilot,2022.1.3,Win32,60.0060006,629c4b6caf241d5e6e00bfc0,,,,,,,,,,,,,,,,,,,,,,,,,,,,,,,,,,,,,,,,,,,,,,,,,,,,,,,,,,,,,,,,,,,,,,,,,,,,,,,,,,,,,,,,,,,,,,,,,,,,,,,,,,,,,,,,,,,,,,,,,,,,,,,,,,,,,,,,,,,,,,,,,,,
0,55,55,33,1,,614e155acfb658911e1b16f7,629c52334f6fa95b4ee90ef8,2022-06-05_08h53.42.531,Colour_Asymmetry_Pilot,2022.1.3,Win32,60.0060006,629c4b6caf241d5e6e00bfc0,,,,,,,,,,,,,,,,,,,,,,,,,,,,,,,,,,,,,,,,,,,,,,,,,,,,,,,,,,,,,,,,,,,,,,,,,,,,,,,,,,,,,,,,,,,,,,,,,,,,,,,,,,,,,,,,,,,,,,,,,,,,,,,,,,,,,,,,,,,,,,,,,,,
0,56,56,3,1,,614e155acfb658911e1b16f7,629c52334f6fa95b4ee90ef8,2022-06-05_08h53.42.531,Colour_Asymmetry_Pilot,2022.1.3,Win32,60.0060006,629c4b6caf241d5e6e00bfc0,,,,,,,,,,,,,,,,,,,,,,,,,,,,,,,,,,,,,,,,,,,,,,,,,,,,,,,,,,,,,,,,,,,,,,,,,,,,,,,,,,,,,,,,,,,,,,,,,,,,,,,,,,,,,,,,,,,,,,,,,,,,,,,,,,,,,,,,,,,,,,,,,,,
0,57,57,52,1,,614e155acfb658911e1b16f7,629c52334f6fa95b4ee90ef8,2022-06-05_08h53.42.531,Colour_Asymmetry_Pilot,2022.1.3,Win32,60.0060006,629c4b6caf241d5e6e00bfc0,,,,,,,,,,,,,,,,,,,,,,,,,,,,,,,,,,,,,,,,,,,,,,,,,,,,,,,,,,,,,,,,,,,,,,,,,,,,,,,,,,,,,,,,,,,,,,,,,,,,,,,,,,,,,,,,,,,,,,,,,,,,,,,,,,,,,,,,,,,,,,,,,,,
0,58,58,29,1,,614e155acfb658911e1b16f7,629c52334f6fa95b4ee90ef8,2022-06-05_08h53.42.531,Colour_Asymmetry_Pilot,2022.1.3,Win32,60.0060006,629c4b6caf241d5e6e00bfc0,,,,,,,,,,,,,,,,,,,,,,,,,,,,,,,,,,,,,,,,,,,,,,,,,,,,,,,,,,,,,,,,,,,,,,,,,,,,,,,,,,,,,,,,,,,,,,,,,,,,,,,,,,,,,,,,,,,,,,,,,,,,,,,,,,,,,,,,,,,,,,,,,,,
0,59,59,74,1,,614e155acfb658911e1b16f7,629c52334f6fa95b4ee90ef8,2022-06-05_08h53.42.531,Colour_Asymmetry_Pilot,2022.1.3,Win32,60.0060006,629c4b6caf241d5e6e00bfc0,,,,,,,,,,,,,,,,,,,,,,,,,,,,,,,,,,,,,,,,,,,,,,,,,,,,,,,,,,,,,,,,,,,,,,,,,,,,,,,,,,,,,,,,,,,,,,,,,,,,,,,,,,,,,,,,,,,,,,,,,,,,,,,,,,,,,,,,,,,,,,,,,,,
0,60,60,27,1,,614e155acfb658911e1b16f7,629c52334f6fa95b4ee90ef8,2022-06-05_08h53.42.531,Colour_Asymmetry_Pilot,2022.1.3,Win32,60.0060006,629c4b6caf241d5e6e00bfc0,,,,,,,,,,,,,,,,,,,,,,,,,,,,,,,,,,,,,,,,,,,,,,,,,,,,,,,,,,,,,,,,,,,,,,,,,,,,,,,,,,,,,,,,,,,,,,,,,,,,,,,,,,,,,,,,,,,,,,,,,,,,,,,,,,,,,,,,,,,,,,,,,,,
0,61,61,9,1,,614e155acfb658911e1b16f7,629c52334f6fa95b4ee90ef8,2022-06-05_08h53.42.531,Colour_Asymmetry_Pilot,2022.1.3,Win32,60.0060006,629c4b6caf241d5e6e00bfc0,,,,,,,,,,,,,,,,,,,,,,,,,,,,,,,,,,,,,,,,,,,,,,,,,,,,,,,,,,,,,,,,,,,,,,,,,,,,,,,,,,,,,,,,,,,,,,,,,,,,,,,,,,,,,,,,,,,,,,,,,,,,,,,,,,,,,,,,,,,,,,,,,,,
0,62,62,22,1,,614e155acfb658911e1b16f7,629c52334f6fa95b4ee90ef8,2022-06-05_08h53.42.531,Colour_Asymmetry_Pilot,2022.1.3,Win32,60.0060006,629c4b6caf241d5e6e00bfc0,,,,,,,,,,,,,,,,,,,,,,,,,,,,,,,,,,,,,,,,,,,,,,,,,,,,,,,,,,,,,,,,,,,,,,,,,,,,,,,,,,,,,,,,,,,,,,,,,,,,,,,,,,,,,,,,,,,,,,,,,,,,,,,,,,,,,,,,,,,,,,,,,,,
0,63,63,71,1,,614e155acfb658911e1b16f7,629c52334f6fa95b4ee90ef8,2022-06-05_08h53.42.531,Colour_Asymmetry_Pilot,2022.1.3,Win32,60.0060006,629c4b6caf241d5e6e00bfc0,,,,,,,,,,,,,,,,,,,,,,,,,,,,,,,,,,,,,,,,,,,,,,,,,,,,,,,,,,,,,,,,,,,,,,,,,,,,,,,,,,,,,,,,,,,,,,,,,,,,,,,,,,,,,,,,,,,,,,,,,,,,,,,,,,,,,,,,,,,,,,,,,,,
0,64,64,11,1,,614e155acfb658911e1b16f7,629c52334f6fa95b4ee90ef8,2022-06-05_08h53.42.531,Colour_Asymmetry_Pilot,2022.1.3,Win32,60.0060006,629c4b6caf241d5e6e00bfc0,,,,,,,,,,,,,,,,,,,,,,,,,,,,,,,,,,,,,,,,,,,,,,,,,,,,,,,,,,,,,,,,,,,,,,,,,,,,,,,,,,,,,,,,,,,,,,,,,,,,,,,,,,,,,,,,,,,,,,,,,,,,,,,,,,,,,,,,,,,,,,,,,,,
0,65,65,54,1,,614e155acfb658911e1b16f7,629c52334f6fa95b4ee90ef8,2022-06-05_08h53.42.531,Colour_Asymmetry_Pilot,2022.1.3,Win32,60.0060006,629c4b6caf241d5e6e00bfc0,,,,,,,,,,,,,,,,,,,,,,,,,,,,,,,,,,,,,,,,,,,,,,,,,,,,,,,,,,,,,,,,,,,,,,,,,,,,,,,,,,,,,,,,,,,,,,,,,,,,,,,,,,,,,,,,,,,,,,,,,,,,,,,,,,,,,,,,,,,,,,,,,,,
0,66,66,34,1,,614e155acfb658911e1b16f7,629c52334f6fa95b4ee90ef8,2022-06-05_08h53.42.531,Colour_Asymmetry_Pilot,2022.1.3,Win32,60.0060006,629c4b6caf241d5e6e00bfc0,,,,,,,,,,,,,,,,,,,,,,,,,,,,,,,,,,,,,,,,,,,,,,,,,,,,,,,,,,,,,,,,,,,,,,,,,,,,,,,,,,,,,,,,,,,,,,,,,,,,,,,,,,,,,,,,,,,,,,,,,,,,,,,,,,,,,,,,,,,,,,,,,,,
0,67,67,24,1,,614e155acfb658911e1b16f7,629c52334f6fa95b4ee90ef8,2022-06-05_08h53.42.531,Colour_Asymmetry_Pilot,2022.1.3,Win32,60.0060006,629c4b6caf241d5e6e00bfc0,,,,,,,,,,,,,,,,,,,,,,,,,,,,,,,,,,,,,,,,,,,,,,,,,,,,,,,,,,,,,,,,,,,,,,,,,,,,,,,,,,,,,,,,,,,,,,,,,,,,,,,,,,,,,,,,,,,,,,,,,,,,,,,,,,,,,,,,,,,,,,,,,,,
0,68,68,88,1,,614e155acfb658911e1b16f7,629c52334f6fa95b4ee90ef8,2022-06-05_08h53.42.531,Colour_Asymmetry_Pilot,2022.1.3,Win32,60.0060006,629c4b6caf241d5e6e00bfc0,,,,,,,,,,,,,,,,,,,,,,,,,,,,,,,,,,,,,,,,,,,,,,,,,,,,,,,,,,,,,,,,,,,,,,,,,,,,,,,,,,,,,,,,,,,,,,,,,,,,,,,,,,,,,,,,,,,,,,,,,,,,,,,,,,,,,,,,,,,,,,,,,,,
0,69,69,63,1,,614e155acfb658911e1b16f7,629c52334f6fa95b4ee90ef8,2022-06-05_08h53.42.531,Colour_Asymmetry_Pilot,2022.1.3,Win32,60.0060006,629c4b6caf241d5e6e00bfc0,,,,,,,,,,,,,,,,,,,,,,,,,,,,,,,,,,,,,,,,,,,,,,,,,,,,,,,,,,,,,,,,,,,,,,,,,,,,,,,,,,,,,,,,,,,,,,,,,,,,,,,,,,,,,,,,,,,,,,,,,,,,,,,,,,,,,,,,,,,,,,,,,,,
0,70,70,13,1,,614e155acfb658911e1b16f7,629c52334f6fa95b4ee90ef8,2022-06-05_08h53.42.531,Colour_Asymmetry_Pilot,2022.1.3,Win32,60.0060006,629c4b6caf241d5e6e00bfc0,,,,,,,,,,,,,,,,,,,,,,,,,,,,,,,,,,,,,,,,,,,,,,,,,,,,,,,,,,,,,,,,,,,,,,,,,,,,,,,,,,,,,,,,,,,,,,,,,,,,,,,,,,,,,,,,,,,,,,,,,,,,,,,,,,,,,,,,,,,,,,,,,,,
0,71,71,41,1,,614e155acfb658911e1b16f7,629c52334f6fa95b4ee90ef8,2022-06-05_08h53.42.531,Colour_Asymmetry_Pilot,2022.1.3,Win32,60.0060006,629c4b6caf241d5e6e00bfc0,,,,,,,,,,,,,,,,,,,,,,,,,,,,,,,,,,,,,,,,,,,,,,,,,,,,,,,,,,,,,,,,,,,,,,,,,,,,,,,,,,,,,,,,,,,,,,,,,,,,,,,,,,,,,,,,,,,,,,,,,,,,,,,,,,,,,,,,,,,,,,,,,,,
0,72,72,7,1,,614e155acfb658911e1b16f7,629c52334f6fa95b4ee90ef8,2022-06-05_08h53.42.531,Colour_Asymmetry_Pilot,2022.1.3,Win32,60.0060006,629c4b6caf241d5e6e00bfc0,,,,,,,,,,,,,,,,,,,,,,,,,,,,,,,,,,,,,,,,,,,,,,,,,,,,,,,,,,,,,,,,,,,,,,,,,,,,,,,,,,,,,,,,,,,,,,,,,,,,,,,,,,,,,,,,,,,,,,,,,,,,,,,,,,,,,,,,,,,,,,,,,,,
0,73,73,40,1,,614e155acfb658911e1b16f7,629c52334f6fa95b4ee90ef8,2022-06-05_08h53.42.531,Colour_Asymmetry_Pilot,2022.1.3,Win32,60.0060006,629c4b6caf241d5e6e00bfc0,,,,,,,,,,,,,,,,,,,,,,,,,,,,,,,,,,,,,,,,,,,,,,,,,,,,,,,,,,,,,,,,,,,,,,,,,,,,,,,,,,,,,,,,,,,,,,,,,,,,,,,,,,,,,,,,,,,,,,,,,,,,,,,,,,,,,,,,,,,,,,,,,,,
0,74,74,87,1,,614e155acfb658911e1b16f7,629c52334f6fa95b4ee90ef8,2022-06-05_08h53.42.531,Colour_Asymmetry_Pilot,2022.1.3,Win32,60.0060006,629c4b6caf241d5e6e00bfc0,,,,,,,,,,,,,,,,,,,,,,,,,,,,,,,,,,,,,,,,,,,,,,,,,,,,,,,,,,,,,,,,,,,,,,,,,,,,,,,,,,,,,,,,,,,,,,,,,,,,,,,,,,,,,,,,,,,,,,,,,,,,,,,,,,,,,,,,,,,,,,,,,,,
0,75,75,68,1,,614e155acfb658911e1b16f7,629c52334f6fa95b4ee90ef8,2022-06-05_08h53.42.531,Colour_Asymmetry_Pilot,2022.1.3,Win32,60.0060006,629c4b6caf241d5e6e00bfc0,,,,,,,,,,,,,,,,,,,,,,,,,,,,,,,,,,,,,,,,,,,,,,,,,,,,,,,,,,,,,,,,,,,,,,,,,,,,,,,,,,,,,,,,,,,,,,,,,,,,,,,,,,,,,,,,,,,,,,,,,,,,,,,,,,,,,,,,,,,,,,,,,,,
0,76,76,32,1,,614e155acfb658911e1b16f7,629c52334f6fa95b4ee90ef8,2022-06-05_08h53.42.531,Colour_Asymmetry_Pilot,2022.1.3,Win32,60.0060006,629c4b6caf241d5e6e00bfc0,,,,,,,,,,,,,,,,,,,,,,,,,,,,,,,,,,,,,,,,,,,,,,,,,,,,,,,,,,,,,,,,,,,,,,,,,,,,,,,,,,,,,,,,,,,,,,,,,,,,,,,,,,,,,,,,,,,,,,,,,,,,,,,,,,,,,,,,,,,,,,,,,,,
0,77,77,28,1,,614e155acfb658911e1b16f7,629c52334f6fa95b4ee90ef8,2022-06-05_08h53.42.531,Colour_Asymmetry_Pilot,2022.1.3,Win32,60.0060006,629c4b6caf241d5e6e00bfc0,,,,,,,,,,,,,,,,,,,,,,,,,,,,,,,,,,,,,,,,,,,,,,,,,,,,,,,,,,,,,,,,,,,,,,,,,,,,,,,,,,,,,,,,,,,,,,,,,,,,,,,,,,,,,,,,,,,,,,,,,,,,,,,,,,,,,,,,,,,,,,,,,,,
0,78,78,90,1,,614e155acfb658911e1b16f7,629c52334f6fa95b4ee90ef8,2022-06-05_08h53.42.531,Colour_Asymmetry_Pilot,2022.1.3,Win32,60.0060006,629c4b6caf241d5e6e00bfc0,,,,,,,,,,,,,,,,,,,,,,,,,,,,,,,,,,,,,,,,,,,,,,,,,,,,,,,,,,,,,,,,,,,,,,,,,,,,,,,,,,,,,,,,,,,,,,,,,,,,,,,,,,,,,,,,,,,,,,,,,,,,,,,,,,,,,,,,,,,,,,,,,,,
0,79,79,30,1,,614e155acfb658911e1b16f7,629c52334f6fa95b4ee90ef8,2022-06-05_08h53.42.531,Colour_Asymmetry_Pilot,2022.1.3,Win32,60.0060006,629c4b6caf241d5e6e00bfc0,,,,,,,,,,,,,,,,,,,,,,,,,,,,,,,,,,,,,,,,,,,,,,,,,,,,,,,,,,,,,,,,,,,,,,,,,,,,,,,,,,,,,,,,,,,,,,,,,,,,,,,,,,,,,,,,,,,,,,,,,,,,,,,,,,,,,,,,,,,,,,,,,,,
0,80,80,5,1,,614e155acfb658911e1b16f7,629c52334f6fa95b4ee90ef8,2022-06-05_08h53.42.531,Colour_Asymmetry_Pilot,2022.1.3,Win32,60.0060006,629c4b6caf241d5e6e00bfc0,,,,,,,,,,,,,,,,,,,,,,,,,,,,,,,,,,,,,,,,,,,,,,,,,,,,,,,,,,,,,,,,,,,,,,,,,,,,,,,,,,,,,,,,,,,,,,,,,,,,,,,,,,,,,,,,,,,,,,,,,,,,,,,,,,,,,,,,,,,,,,,,,,,
0,81,81,48,1,,614e155acfb658911e1b16f7,629c52334f6fa95b4ee90ef8,2022-06-05_08h53.42.531,Colour_Asymmetry_Pilot,2022.1.3,Win32,60.0060006,629c4b6caf241d5e6e00bfc0,,,,,,,,,,,,,,,,,,,,,,,,,,,,,,,,,,,,,,,,,,,,,,,,,,,,,,,,,,,,,,,,,,,,,,,,,,,,,,,,,,,,,,,,,,,,,,,,,,,,,,,,,,,,,,,,,,,,,,,,,,,,,,,,,,,,,,,,,,,,,,,,,,,
0,82,82,65,1,,614e155acfb658911e1b16f7,629c52334f6fa95b4ee90ef8,2022-06-05_08h53.42.531,Colour_Asymmetry_Pilot,2022.1.3,Win32,60.0060006,629c4b6caf241d5e6e00bfc0,,,,,,,,,,,,,,,,,,,,,,,,,,,,,,,,,,,,,,,,,,,,,,,,,,,,,,,,,,,,,,,,,,,,,,,,,,,,,,,,,,,,,,,,,,,,,,,,,,,,,,,,,,,,,,,,,,,,,,,,,,,,,,,,,,,,,,,,,,,,,,,,,,,
0,83,83,23,1,,614e155acfb658911e1b16f7,629c52334f6fa95b4ee90ef8,2022-06-05_08h53.42.531,Colour_Asymmetry_Pilot,2022.1.3,Win32,60.0060006,629c4b6caf241d5e6e00bfc0,,,,,,,,,,,,,,,,,,,,,,,,,,,,,,,,,,,,,,,,,,,,,,,,,,,,,,,,,,,,,,,,,,,,,,,,,,,,,,,,,,,,,,,,,,,,,,,,,,,,,,,,,,,,,,,,,,,,,,,,,,,,,,,,,,,,,,,,,,,,,,,,,,,
0,84,84,16,1,,614e155acfb658911e1b16f7,629c52334f6fa95b4ee90ef8,2022-06-05_08h53.42.531,Colour_Asymmetry_Pilot,2022.1.3,Win32,60.0060006,629c4b6caf241d5e6e00bfc0,,,,,,,,,,,,,,,,,,,,,,,,,,,,,,,,,,,,,,,,,,,,,,,,,,,,,,,,,,,,,,,,,,,,,,,,,,,,,,,,,,,,,,,,,,,,,,,,,,,,,,,,,,,,,,,,,,,,,,,,,,,,,,,,,,,,,,,,,,,,,,,,,,,
0,85,85,44,1,,614e155acfb658911e1b16f7,629c52334f6fa95b4ee90ef8,2022-06-05_08h53.42.531,Colour_Asymmetry_Pilot,2022.1.3,Win32,60.0060006,629c4b6caf241d5e6e00bfc0,,,,,,,,,,,,,,,,,,,,,,,,,,,,,,,,,,,,,,,,,,,,,,,,,,,,,,,,,,,,,,,,,,,,,,,,,,,,,,,,,,,,,,,,,,,,,,,,,,,,,,,,,,,,,,,,,,,,,,,,,,,,,,,,,,,,,,,,,,,,,,,,,,,
0,86,86,39,1,,614e155acfb658911e1b16f7,629c52334f6fa95b4ee90ef8,2022-06-05_08h53.42.531,Colour_Asymmetry_Pilot,2022.1.3,Win32,60.0060006,629c4b6caf241d5e6e00bfc0,,,,,,,,,,,,,,,,,,,,,,,,,,,,,,,,,,,,,,,,,,,,,,,,,,,,,,,,,,,,,,,,,,,,,,,,,,,,,,,,,,,,,,,,,,,,,,,,,,,,,,,,,,,,,,,,,,,,,,,,,,,,,,,,,,,,,,,,,,,,,,,,,,,
0,87,87,67,1,,614e155acfb658911e1b16f7,629c52334f6fa95b4ee90ef8,2022-06-05_08h53.42.531,Colour_Asymmetry_Pilot,2022.1.3,Win32,60.0060006,629c4b6caf241d5e6e00bfc0,,,,,,,,,,,,,,,,,,,,,,,,,,,,,,,,,,,,,,,,,,,,,,,,,,,,,,,,,,,,,,,,,,,,,,,,,,,,,,,,,,,,,,,,,,,,,,,,,,,,,,,,,,,,,,,,,,,,,,,,,,,,,,,,,,,,,,,,,,,,,,,,,,,
0,88,88,59,1,,614e155acfb658911e1b16f7,629c52334f6fa95b4ee90ef8,2022-06-05_08h53.42.531,Colour_Asymmetry_Pilot,2022.1.3,Win32,60.0060006,629c4b6caf241d5e6e00bfc0,,,,,,,,,,,,,,,,,,,,,,,,,,,,,,,,,,,,,,,,,,,,,,,,,,,,,,,,,,,,,,,,,,,,,,,,,,,,,,,,,,,,,,,,,,,,,,,,,,,,,,,,,,,,,,,,,,,,,,,,,,,,,,,,,,,,,,,,,,,,,,,,,,,
0,89,89,62,1,,614e155acfb658911e1b16f7,629c52334f6fa95b4ee90ef8,2022-06-05_08h53.42.531,Colour_Asymmetry_Pilot,2022.1.3,Win32,60.0060006,629c4b6caf241d5e6e00bfc0,,,,,,,,,,,,,,,,,,,,,,,,,,,,,,,,,,,,,,,,,,,,,,,,,,,,,,,,,,,,,,,,,,,,,,,,,,,,,,,,,,,,,,,,,,,,,,,,,,,,,,,,,,,,,,,,,,,,,,,,,,,,,,,,,,,,,,,,,,,,,,,,,,,
0,90,90,79,1,,614e155acfb658911e1b16f7,629c52334f6fa95b4ee90ef8,2022-06-05_08h53.42.531,Colour_Asymmetry_Pilot,2022.1.3,Win32,60.0060006,629c4b6caf241d5e6e00bfc0,,,,,,,,,,,,,,,,,,,,,,,,,,,,,,,,,,,,,,,,,,,,,,,,,,,,,,,,,,,,,,,,,,,,,,,,,,,,,,,,,,,,,,,,,,,,,,,,,,,,,,,,,,,,,,,,,,,,,,,,,,,,,,,,,,,,,,,,,,,,,,,,,,,
0,91,91,47,1,,614e155acfb658911e1b16f7,629c52334f6fa95b4ee90ef8,2022-06-05_08h53.42.531,Colour_Asymmetry_Pilot,2022.1.3,Win32,60.0060006,629c4b6caf241d5e6e00bfc0,,,,,,,,,,,,,,,,,,,,,,,,,,,,,,,,,,,,,,,,,,,,,,,,,,,,,,,,,,,,,,,,,,,,,,,,,,,,,,,,,,,,,,,,,,,,,,,,,,,,,,,,,,,,,,,,,,,,,,,,,,,,,,,,,,,,,,,,,,,,,,,,,,,
0,92,92,51,1,,614e155acfb658911e1b16f7,629c52334f6fa95b4ee90ef8,2022-06-05_08h53.42.531,Colour_Asymmetry_Pilot,2022.1.3,Win32,60.0060006,629c4b6caf241d5e6e00bfc0,,,,,,,,,,,,,,,,,,,,,,,,,,,,,,,,,,,,,,,,,,,,,,,,,,,,,,,,,,,,,,,,,,,,,,,,,,,,,,,,,,,,,,,,,,,,,,,,,,,,,,,,,,,,,,,,,,,,,,,,,,,,,,,,,,,,,,,,,,,,,,,,,,,
,,,,,,614e155acfb658911e1b16f7,629c52334f6fa95b4ee90ef8,2022-06-05_08h53.42.531,Colour_Asymmetry_Pilot,2022.1.3,Win32,60.0060006,629c4b6caf241d5e6e00bfc0,0,0,0,63,1,fourthree,,,,,,,,,,,,,,,,,,,,,,,,,,,,,,,,,,,,,,,,,,,,,,,,,,,,,,,,,,,,,,,,,,,,,,,,,,,,,,,,,,,,,,,,,,,,,,,,,,,,,,,,,,,,,,,,,,,,,,,,,,,,,,,,,,,,,,,,,,,,,
,,,,,,614e155acfb658911e1b16f7,629c52334f6fa95b4ee90ef8,2022-06-05_08h53.42.531,Colour_Asymmetry_Pilot,2022.1.3,Win32,60.0060006,629c4b6caf241d5e6e00bfc0,0,1,1,161,1,onethree,,,,,,,,,,,,,,,,,,,,,,,,,,,,,,,,,,,,,,,,,,,,,,,,,,,,,,,,,,,,,,,,,,,,,,,,,,,,,,,,,,,,,,,,,,,,,,,,,,,,,,,,,,,,,,,,,,,,,,,,,,,,,,,,,,,,,,,,,,,,,
,,,,,,614e155acfb658911e1b16f7,629c52334f6fa95b4ee90ef8,2022-06-05_08h53.42.531,Colour_Asymmetry_Pilot,2022.1.3,Win32,60.0060006,629c4b6caf241d5e6e00bfc0,0,2,2,142,1,fourtwo,,,,,,,,,,,,,,,,,,,,,,,,,,,,,,,,,,,,,,,,,,,,,,,,,,,,,,,,,,,,,,,,,,,,,,,,,,,,,,,,,,,,,,,,,,,,,,,,,,,,,,,,,,,,,,,,,,,,,,,,,,,,,,,,,,,,,,,,,,,,,
,,,,,,614e155acfb658911e1b16f7,629c52334f6fa95b4ee90ef8,2022-06-05_08h53.42.531,Colour_Asymmetry_Pilot,2022.1.3,Win32,60.0060006,629c4b6caf241d5e6e00bfc0,0,3,3,148,1,threeone,,,,,,,,,,,,,,,,,,,,,,,,,,,,,,,,,,,,,,,,,,,,,,,,,,,,,,,,,,,,,,,,,,,,,,,,,,,,,,,,,,,,,,,,,,,,,,,,,,,,,,,,,,,,,,,,,,,,,,,,,,,,,,,,,,,,,,,,,,,,,
,,,,,,614e155acfb658911e1b16f7,629c52334f6fa95b4ee90ef8,2022-06-05_08h53.42.531,Colour_Asymmetry_Pilot,2022.1.3,Win32,60.0060006,629c4b6caf241d5e6e00bfc0,0,4,4,131,1,twofour,,,,,,,,,,,,,,,,,,,,,,,,,,,,,,,,,,,,,,,,,,,,,,,,,,,,,,,,,,,,,,,,,,,,,,,,,,,,,,,,,,,,,,,,,,,,,,,,,,,,,,,,,,,,,,,,,,,,,,,,,,,,,,,,,,,,,,,,,,,,,
,,,,,,614e155acfb658911e1b16f7,629c52334f6fa95b4ee90ef8,2022-06-05_08h53.42.531,Colour_Asymmetry_Pilot,2022.1.3,Win32,60.0060006,629c4b6caf241d5e6e00bfc0,0,5,5,2,1,twoone,,,,,,,,,,,,,,,,,,,,,,,,,,,,,,,,,,,,,,,,,,,,,,,,,,,,,,,,,,,,,,,,,,,,,,,,,,,,,,,,,,,,,,,,,,,,,,,,,,,,,,,,,,,,,,,,,,,,,,,,,,,,,,,,,,,,,,,,,,,,,
,,,,,,614e155acfb658911e1b16f7,629c52334f6fa95b4ee90ef8,2022-06-05_08h53.42.531,Colour_Asymmetry_Pilot,2022.1.3,Win32,60.0060006,629c4b6caf241d5e6e00bfc0,0,6,6,38,1,fourtwo,,,,,,,,,,,,,,,,,,,,,,,,,,,,,,,,,,,,,,,,,,,,,,,,,,,,,,,,,,,,,,,,,,,,,,,,,,,,,,,,,,,,,,,,,,,,,,,,,,,,,,,,,,,,,,,,,,,,,,,,,,,,,,,,,,,,,,,,,,,,,
,,,,,,614e155acfb658911e1b16f7,629c52334f6fa95b4ee90ef8,2022-06-05_08h53.42.531,Colour_Asymmetry_Pilot,2022.1.3,Win32,60.0060006,629c4b6caf241d5e6e00bfc0,0,7,7,138,1,twoone,,,,,,,,,,,,,,,,,,,,,,,,,,,,,,,,,,,,,,,,,,,,,,,,,,,,,,,,,,,,,,,,,,,,,,,,,,,,,,,,,,,,,,,,,,,,,,,,,,,,,,,,,,,,,,,,,,,,,,,,,,,,,,,,,,,,,,,,,,,,,
,,,,,,614e155acfb658911e1b16f7,629c52334f6fa95b4ee90ef8,2022-06-05_08h53.42.531,Colour_Asymmetry_Pilot,2022.1.3,Win32,60.0060006,629c4b6caf241d5e6e00bfc0,0,8,8,58,1,twoone,,,,,,,,,,,,,,,,,,,,,,,,,,,,,,,,,,,,,,,,,,,,,,,,,,,,,,,,,,,,,,,,,,,,,,,,,,,,,,,,,,,,,,,,,,,,,,,,,,,,,,,,,,,,,,,,,,,,,,,,,,,,,,,,,,,,,,,,,,,,,
,,,,,,614e155acfb658911e1b16f7,629c52334f6fa95b4ee90ef8,2022-06-05_08h53.42.531,Colour_Asymmetry_Pilot,2022.1.3,Win32,60.0060006,629c4b6caf241d5e6e00bfc0,0,9,9,95,1,fourthree,,,,,,,,,,,,,,,,,,,,,,,,,,,,,,,,,,,,,,,,,,,,,,,,,,,,,,,,,,,,,,,,,,,,,,,,,,,,,,,,,,,,,,,,,,,,,,,,,,,,,,,,,,,,,,,,,,,,,,,,,,,,,,,,,,,,,,,,,,,,,
,,,,,,614e155acfb658911e1b16f7,629c52334f6fa95b4ee90ef8,2022-06-05_08h53.42.531,Colour_Asymmetry_Pilot,2022.1.3,Win32,60.0060006,629c4b6caf241d5e6e00bfc0,0,10,10,32,1,onetwo,,,,,,,,,,,,,,,,,,,,,,,,,,,,,,,,,,,,,,,,,,,,,,,,,,,,,,,,,,,,,,,,,,,,,,,,,,,,,,,,,,,,,,,,,,,,,,,,,,,,,,,,,,,,,,,,,,,,,,,,,,,,,,,,,,,,,,,,,,,,,
,,,,,,614e155acfb658911e1b16f7,629c52334f6fa95b4ee90ef8,2022-06-05_08h53.42.531,Colour_Asymmetry_Pilot,2022.1.3,Win32,60.0060006,629c4b6caf241d5e6e00bfc0,0,11,11,116,1,threeone,,,,,,,,,,,,,,,,,,,,,,,,,,,,,,,,,,,,,,,,,,,,,,,,,,,,,,,,,,,,,,,,,,,,,,,,,,,,,,,,,,,,,,,,,,,,,,,,,,,,,,,,,,,,,,,,,,,,,,,,,,,,,,,,,,,,,,,,,,,,,
,,,,,,614e155acfb658911e1b16f7,629c52334f6fa95b4ee90ef8,2022-06-05_08h53.42.531,Colour_Asymmetry_Pilot,2022.1.3,Win32,60.0060006,629c4b6caf241d5e6e00bfc0,0,12,12,84,1,threeone,,,,,,,,,,,,,,,,,,,,,,,,,,,,,,,,,,,,,,,,,,,,,,,,,,,,,,,,,,,,,,,,,,,,,,,,,,,,,,,,,,,,,,,,,,,,,,,,,,,,,,,,,,,,,,,,,,,,,,,,,,,,,,,,,,,,,,,,,,,,,
,,,,,,614e155acfb658911e1b16f7,629c52334f6fa95b4ee90ef8,2022-06-05_08h53.42.531,Colour_Asymmetry_Pilot,2022.1.3,Win32,60.0060006,629c4b6caf241d5e6e00bfc0,0,13,13,34,1,twoone,,,,,,,,,,,,,,,,,,,,,,,,,,,,,,,,,,,,,,,,,,,,,,,,,,,,,,,,,,,,,,,,,,,,,,,,,,,,,,,,,,,,,,,,,,,,,,,,,,,,,,,,,,,,,,,,,,,,,,,,,,,,,,,,,,,,,,,,,,,,,
,,,,,,614e155acfb658911e1b16f7,629c52334f6fa95b4ee90ef8,2022-06-05_08h53.42.531,Colour_Asymmetry_Pilot,2022.1.3,Win32,60.0060006,629c4b6caf241d5e6e00bfc0,0,14,14,109,1,threefour,,,,,,,,,,,,,,,,,,,,,,,,,,,,,,,,,,,,,,,,,,,,,,,,,,,,,,,,,,,,,,,,,,,,,,,,,,,,,,,,,,,,,,,,,,,,,,,,,,,,,,,,,,,,,,,,,,,,,,,,,,,,,,,,,,,,,,,,,,,,,
,,,,,,614e155acfb658911e1b16f7,629c52334f6fa95b4ee90ef8,2022-06-05_08h53.42.531,Colour_Asymmetry_Pilot,2022.1.3,Win32,60.0060006,629c4b6caf241d5e6e00bfc0,0,15,15,113,1,onethree,,,,,,,,,,,,,,,,,,,,,,,,,,,,,,,,,,,,,,,,,,,,,,,,,,,,,,,,,,,,,,,,,,,,,,,,,,,,,,,,,,,,,,,,,,,,,,,,,,,,,,,,,,,,,,,,,,,,,,,,,,,,,,,,,,,,,,,,,,,,,
,,,,,,614e155acfb658911e1b16f7,629c52334f6fa95b4ee90ef8,2022-06-05_08h53.42.531,Colour_Asymmetry_Pilot,2022.1.3,Win32,60.0060006,629c4b6caf241d5e6e00bfc0,0,16,16,9,1,onethree,,,,,,,,,,,,,,,,,,,,,,,,,,,,,,,,,,,,,,,,,,,,,,,,,,,,,,,,,,,,,,,,,,,,,,,,,,,,,,,,,,,,,,,,,,,,,,,,,,,,,,,,,,,,,,,,,,,,,,,,,,,,,,,,,,,,,,,,,,,,,
,,,,,,614e155acfb658911e1b16f7,629c52334f6fa95b4ee90ef8,2022-06-05_08h53.42.531,Colour_Asymmetry_Pilot,2022.1.3,Win32,60.0060006,629c4b6caf241d5e6e00bfc0,0,17,17,21,1,threefour,,,,,,,,,,,,,,,,,,,,,,,,,,,,,,,,,,,,,,,,,,,,,,,,,,,,,,,,,,,,,,,,,,,,,,,,,,,,,,,,,,,,,,,,,,,,,,,,,,,,,,,,,,,,,,,,,,,,,,,,,,,,,,,,,,,,,,,,,,,,,
,,,,,,614e155acfb658911e1b16f7,629c52334f6fa95b4ee90ef8,2022-06-05_08h53.42.531,Colour_Asymmetry_Pilot,2022.1.3,Win32,60.0060006,629c4b6caf241d5e6e00bfc0,0,18,18,145,1,onethree,,,,,,,,,,,,,,,,,,,,,,,,,,,,,,,,,,,,,,,,,,,,,,,,,,,,,,,,,,,,,,,,,,,,,,,,,,,,,,,,,,,,,,,,,,,,,,,,,,,,,,,,,,,,,,,,,,,,,,,,,,,,,,,,,,,,,,,,,,,,,
,,,,,,614e155acfb658911e1b16f7,629c52334f6fa95b4ee90ef8,2022-06-05_08h53.42.531,Colour_Asymmetry_Pilot,2022.1.3,Win32,60.0060006,629c4b6caf241d5e6e00bfc0,0,19,19,137,1,onethree,,,,,,,,,,,,,,,,,,,,,,,,,,,,,,,,,,,,,,,,,,,,,,,,,,,,,,,,,,,,,,,,,,,,,,,,,,,,,,,,,,,,,,,,,,,,,,,,,,,,,,,,,,,,,,,,,,,,,,,,,,,,,,,,,,,,,,,,,,,,,
,,,,,,614e155acfb658911e1b16f7,629c52334f6fa95b4ee90ef8,2022-06-05_08h53.42.531,Colour_Asymmetry_Pilot,2022.1.3,Win32,60.0060006,629c4b6caf241d5e6e00bfc0,0,20,20,72,1,onetwo,,,,,,,,,,,,,,,,,,,,,,,,,,,,,,,,,,,,,,,,,,,,,,,,,,,,,,,,,,,,,,,,,,,,,,,,,,,,,,,,,,,,,,,,,,,,,,,,,,,,,,,,,,,,,,,,,,,,,,,,,,,,,,,,,,,,,,,,,,,,,
,,,,,,614e155acfb658911e1b16f7,629c52334f6fa95b4ee90ef8,2022-06-05_08h53.42.531,Colour_Asymmetry_Pilot,2022.1.3,Win32,60.0060006,629c4b6caf241d5e6e00bfc0,0,21,21,147,1,twofour,,,,,,,,,,,,,,,,,,,,,,,,,,,,,,,,,,,,,,,,,,,,,,,,,,,,,,,,,,,,,,,,,,,,,,,,,,,,,,,,,,,,,,,,,,,,,,,,,,,,,,,,,,,,,,,,,,,,,,,,,,,,,,,,,,,,,,,,,,,,,
,,,,,,614e155acfb658911e1b16f7,629c52334f6fa95b4ee90ef8,2022-06-05_08h53.42.531,Colour_Asymmetry_Pilot,2022.1.3,Win32,60.0060006,629c4b6caf241d5e6e00bfc0,0,22,22,94,1,fourtwo,,,,,,,,,,,,,,,,,,,,,,,,,,,,,,,,,,,,,,,,,,,,,,,,,,,,,,,,,,,,,,,,,,,,,,,,,,,,,,,,,,,,,,,,,,,,,,,,,,,,,,,,,,,,,,,,,,,,,,,,,,,,,,,,,,,,,,,,,,,,,
,,,,,,614e155acfb658911e1b16f7,629c52334f6fa95b4ee90ef8,2022-06-05_08h53.42.531,Colour_Asymmetry_Pilot,2022.1.3,Win32,60.0060006,629c4b6caf241d5e6e00bfc0,0,23,23,59,1,twofour,,,,,,,,,,,,,,,,,,,,,,,,,,,,,,,,,,,,,,,,,,,,,,,,,,,,,,,,,,,,,,,,,,,,,,,,,,,,,,,,,,,,,,,,,,,,,,,,,,,,,,,,,,,,,,,,,,,,,,,,,,,,,,,,,,,,,,,,,,,,,
,,,,,,614e155acfb658911e1b16f7,629c52334f6fa95b4ee90ef8,2022-06-05_08h53.42.531,Colour_Asymmetry_Pilot,2022.1.3,Win32,60.0060006,629c4b6caf241d5e6e00bfc0,0,24,24,69,1,threefour,,,,,,,,,,,,,,,,,,,,,,,,,,,,,,,,,,,,,,,,,,,,,,,,,,,,,,,,,,,,,,,,,,,,,,,,,,,,,,,,,,,,,,,,,,,,,,,,,,,,,,,,,,,,,,,,,,,,,,,,,,,,,,,,,,,,,,,,,,,,,
,,,,,,614e155acfb658911e1b16f7,629c52334f6fa95b4ee90ef8,2022-06-05_08h53.42.531,Colour_Asymmetry_Pilot,2022.1.3,Win32,60.0060006,629c4b6caf241d5e6e00bfc0,0,25,25,103,1,fourthree,,,,,,,,,,,,,,,,,,,,,,,,,,,,,,,,,,,,,,,,,,,,,,,,,,,,,,,,,,,,,,,,,,,,,,,,,,,,,,,,,,,,,,,,,,,,,,,,,,,,,,,,,,,,,,,,,,,,,,,,,,,,,,,,,,,,,,,,,,,,,
,,,,,,614e155acfb658911e1b16f7,629c52334f6fa95b4ee90ef8,2022-06-05_08h53.42.531,Colour_Asymmetry_Pilot,2022.1.3,Win32,60.0060006,629c4b6caf241d5e6e00bfc0,0,26,26,56,1,onetwo,,,,,,,,,,,,,,,,,,,,,,,,,,,,,,,,,,,,,,,,,,,,,,,,,,,,,,,,,,,,,,,,,,,,,,,,,,,,,,,,,,,,,,,,,,,,,,,,,,,,,,,,,,,,,,,,,,,,,,,,,,,,,,,,,,,,,,,,,,,,,
,,,,,,614e155acfb658911e1b16f7,629c52334f6fa95b4ee90ef8,2022-06-05_08h53.42.531,Colour_Asymmetry_Pilot,2022.1.3,Win32,60.0060006,629c4b6caf241d5e6e00bfc0,0,27,27,66,1,twoone,,,,,,,,,,,,,,,,,,,,,,,,,,,,,,,,,,,,,,,,,,,,,,,,,,,,,,,,,,,,,,,,,,,,,,,,,,,,,,,,,,,,,,,,,,,,,,,,,,,,,,,,,,,,,,,,,,,,,,,,,,,,,,,,,,,,,,,,,,,,,
,,,,,,614e155acfb658911e1b16f7,629c52334f6fa95b4ee90ef8,2022-06-05_08h53.42.531,Colour_Asymmetry_Pilot,2022.1.3,Win32,60.0060006,629c4b6caf241d5e6e00bfc0,0,28,28,157,1,threefour,,,,,,,,,,,,,,,,,,,,,,,,,,,,,,,,,,,,,,,,,,,,,,,,,,,,,,,,,,,,,,,,,,,,,,,,,,,,,,,,,,,,,,,,,,,,,,,,,,,,,,,,,,,,,,,,,,,,,,,,,,,,,,,,,,,,,,,,,,,,,
,,,,,,614e155acfb658911e1b16f7,629c52334f6fa95b4ee90ef8,2022-06-05_08h53.42.531,Colour_Asymmetry_Pilot,2022.1.3,Win32,60.0060006,629c4b6caf241d5e6e00bfc0,0,29,29,77,1,threefour,,,,,,,,,,,,,,,,,,,,,,,,,,,,,,,,,,,,,,,,,,,,,,,,,,,,,,,,,,,,,,,,,,,,,,,,,,,,,,,,,,,,,,,,,,,,,,,,,,,,,,,,,,,,,,,,,,,,,,,,,,,,,,,,,,,,,,,,,,,,,
,,,,,,614e155acfb658911e1b16f7,629c52334f6fa95b4ee90ef8,2022-06-05_08h53.42.531,Colour_Asymmetry_Pilot,2022.1.3,Win32,60.0060006,629c4b6caf241d5e6e00bfc0,0,30,30,67,1,twofour,,,,,,,,,,,,,,,,,,,,,,,,,,,,,,,,,,,,,,,,,,,,,,,,,,,,,,,,,,,,,,,,,,,,,,,,,,,,,,,,,,,,,,,,,,,,,,,,,,,,,,,,,,,,,,,,,,,,,,,,,,,,,,,,,,,,,,,,,,,,,
,,,,,,614e155acfb658911e1b16f7,629c52334f6fa95b4ee90ef8,2022-06-05_08h53.42.531,Colour_Asymmetry_Pilot,2022.1.3,Win32,60.0060006,629c4b6caf241d5e6e00bfc0,0,31,31,48,1,onetwo,,,,,,,,,,,,,,,,,,,,,,,,,,,,,,,,,,,,,,,,,,,,,,,,,,,,,,,,,,,,,,,,,,,,,,,,,,,,,,,,,,,,,,,,,,,,,,,,,,,,,,,,,,,,,,,,,,,,,,,,,,,,,,,,,,,,,,,,,,,,,
,,,,,,614e155acfb658911e1b16f7,629c52334f6fa95b4ee90ef8,2022-06-05_08h53.42.531,Colour_Asymmetry_Pilot,2022.1.3,Win32,60.0060006,629c4b6caf241d5e6e00bfc0,0,32,32,92,1,threeone,,,,,,,,,,,,,,,,,,,,,,,,,,,,,,,,,,,,,,,,,,,,,,,,,,,,,,,,,,,,,,,,,,,,,,,,,,,,,,,,,,,,,,,,,,,,,,,,,,,,,,,,,,,,,,,,,,,,,,,,,,,,,,,,,,,,,,,,,,,,,
,,,,,,614e155acfb658911e1b16f7,629c52334f6fa95b4ee90ef8,2022-06-05_08h53.42.531,Colour_Asymmetry_Pilot,2022.1.3,Win32,60.0060006,629c4b6caf241d5e6e00bfc0,0,33,33,106,1,twoone,,,,,,,,,,,,,,,,,,,,,,,,,,,,,,,,,,,,,,,,,,,,,,,,,,,,,,,,,,,,,,,,,,,,,,,,,,,,,,,,,,,,,,,,,,,,,,,,,,,,,,,,,,,,,,,,,,,,,,,,,,,,,,,,,,,,,,,,,,,,,
,,,,,,614e155acfb658911e1b16f7,629c52334f6fa95b4ee90ef8,2022-06-05_08h53.42.531,Colour_Asymmetry_Pilot,2022.1.3,Win32,60.0060006,629c4b6caf241d5e6e00bfc0,0,34,34,141,1,threefour,,,,,,,,,,,,,,,,,,,,,,,,,,,,,,,,,,,,,,,,,,,,,,,,,,,,,,,,,,,,,,,,,,,,,,,,,,,,,,,,,,,,,,,,,,,,,,,,,,,,,,,,,,,,,,,,,,,,,,,,,,,,,,,,,,,,,,,,,,,,,
,,,,,,614e155acfb658911e1b16f7,629c52334f6fa95b4ee90ef8,2022-06-05_08h53.42.531,Colour_Asymmetry_Pilot,2022.1.3,Win32,60.0060006,629c4b6caf241d5e6e00bfc0,0,35,35,122,1,twoone,,,,,,,,,,,,,,,,,,,,,,,,,,,,,,,,,,,,,,,,,,,,,,,,,,,,,,,,,,,,,,,,,,,,,,,,,,,,,,,,,,,,,,,,,,,,,,,,,,,,,,,,,,,,,,,,,,,,,,,,,,,,,,,,,,,,,,,,,,,,,
,,,,,,614e155acfb658911e1b16f7,629c52334f6fa95b4ee90ef8,2022-06-05_08h53.42.531,Colour_Asymmetry_Pilot,2022.1.3,Win32,60.0060006,629c4b6caf241d5e6e00bfc0,0,36,36,152,1,onetwo,,,,,,,,,,,,,,,,,,,,,,,,,,,,,,,,,,,,,,,,,,,,,,,,,,,,,,,,,,,,,,,,,,,,,,,,,,,,,,,,,,,,,,,,,,,,,,,,,,,,,,,,,,,,,,,,,,,,,,,,,,,,,,,,,,,,,,,,,,,,,
,,,,,,614e155acfb658911e1b16f7,629c52334f6fa95b4ee90ef8,2022-06-05_08h53.42.531,Colour_Asymmetry_Pilot,2022.1.3,Win32,60.0060006,629c4b6caf241d5e6e00bfc0,0,37,37,159,1,fourthree,,,,,,,,,,,,,,,,,,,,,,,,,,,,,,,,,,,,,,,,,,,,,,,,,,,,,,,,,,,,,,,,,,,,,,,,,,,,,,,,,,,,,,,,,,,,,,,,,,,,,,,,,,,,,,,,,,,,,,,,,,,,,,,,,,,,,,,,,,,,,
,,,,,,614e155acfb658911e1b16f7,629c52334f6fa95b4ee90ef8,2022-06-05_08h53.42.531,Colour_Asymmetry_Pilot,2022.1.3,Win32,60.0060006,629c4b6caf241d5e6e00bfc0,0,38,38,140,1,threeone,,,,,,,,,,,,,,,,,,,,,,,,,,,,,,,,,,,,,,,,,,,,,,,,,,,,,,,,,,,,,,,,,,,,,,,,,,,,,,,,,,,,,,,,,,,,,,,,,,,,,,,,,,,,,,,,,,,,,,,,,,,,,,,,,,,,,,,,,,,,,
,,,,,,614e155acfb658911e1b16f7,629c52334f6fa95b4ee90ef8,2022-06-05_08h53.42.531,Colour_Asymmetry_Pilot,2022.1.3,Win32,60.0060006,629c4b6caf241d5e6e00bfc0,0,39,39,160,1,onetwo,,,,,,,,,,,,,,,,,,,,,,,,,,,,,,,,,,,,,,,,,,,,,,,,,,,,,,,,,,,,,,,,,,,,,,,,,,,,,,,,,,,,,,,,,,,,,,,,,,,,,,,,,,,,,,,,,,,,,,,,,,,,,,,,,,,,,,,,,,,,,
,,,,,,614e155acfb658911e1b16f7,629c52334f6fa95b4ee90ef8,2022-06-05_08h53.42.531,Colour_Asymmetry_Pilot,2022.1.3,Win32,60.0060006,629c4b6caf241d5e6e00bfc0,0,40,40,6,1,fourtwo,,,,,,,,,,,,,,,,,,,,,,,,,,,,,,,,,,,,,,,,,,,,,,,,,,,,,,,,,,,,,,,,,,,,,,,,,,,,,,,,,,,,,,,,,,,,,,,,,,,,,,,,,,,,,,,,,,,,,,,,,,,,,,,,,,,,,,,,,,,,,
,,,,,,614e155acfb658911e1b16f7,629c52334f6fa95b4ee90ef8,2022-06-05_08h53.42.531,Colour_Asymmetry_Pilot,2022.1.3,Win32,60.0060006,629c4b6caf241d5e6e00bfc0,0,41,41,158,1,fourtwo,,,,,,,,,,,,,,,,,,,,,,,,,,,,,,,,,,,,,,,,,,,,,,,,,,,,,,,,,,,,,,,,,,,,,,,,,,,,,,,,,,,,,,,,,,,,,,,,,,,,,,,,,,,,,,,,,,,,,,,,,,,,,,,,,,,,,,,,,,,,,
,,,,,,614e155acfb658911e1b16f7,629c52334f6fa95b4ee90ef8,2022-06-05_08h53.42.531,Colour_Asymmetry_Pilot,2022.1.3,Win32,60.0060006,629c4b6caf241d5e6e00bfc0,0,42,42,125,1,threefour,,,,,,,,,,,,,,,,,,,,,,,,,,,,,,,,,,,,,,,,,,,,,,,,,,,,,,,,,,,,,,,,,,,,,,,,,,,,,,,,,,,,,,,,,,,,,,,,,,,,,,,,,,,,,,,,,,,,,,,,,,,,,,,,,,,,,,,,,,,,,
,,,,,,614e155acfb658911e1b16f7,629c52334f6fa95b4ee90ef8,2022-06-05_08h53.42.531,Colour_Asymmetry_Pilot,2022.1.3,Win32,60.0060006,629c4b6caf241d5e6e00bfc0,0,43,43,101,1,threefour,,,,,,,,,,,,,,,,,,,,,,,,,,,,,,,,,,,,,,,,,,,,,,,,,,,,,,,,,,,,,,,,,,,,,,,,,,,,,,,,,,,,,,,,,,,,,,,,,,,,,,,,,,,,,,,,,,,,,,,,,,,,,,,,,,,,,,,,,,,,,
,,,,,,614e155acfb658911e1b16f7,629c52334f6fa95b4ee90ef8,2022-06-05_08h53.42.531,Colour_Asymmetry_Pilot,2022.1.3,Win32,60.0060006,629c4b6caf241d5e6e00bfc0,0,44,44,52,1,threeone,,,,,,,,,,,,,,,,,,,,,,,,,,,,,,,,,,,,,,,,,,,,,,,,,,,,,,,,,,,,,,,,,,,,,,,,,,,,,,,,,,,,,,,,,,,,,,,,,,,,,,,,,,,,,,,,,,,,,,,,,,,,,,,,,,,,,,,,,,,,,
,,,,,,614e155acfb658911e1b16f7,629c52334f6fa95b4ee90ef8,2022-06-05_08h53.42.531,Colour_Asymmetry_Pilot,2022.1.3,Win32,60.0060006,629c4b6caf241d5e6e00bfc0,0,45,45,22,1,fourtwo,,,,,,,,,,,,,,,,,,,,,,,,,,,,,,,,,,,,,,,,,,,,,,,,,,,,,,,,,,,,,,,,,,,,,,,,,,,,,,,,,,,,,,,,,,,,,,,,,,,,,,,,,,,,,,,,,,,,,,,,,,,,,,,,,,,,,,,,,,,,,
,,,,,,614e155acfb658911e1b16f7,629c52334f6fa95b4ee90ef8,2022-06-05_08h53.42.531,Colour_Asymmetry_Pilot,2022.1.3,Win32,60.0060006,629c4b6caf241d5e6e00bfc0,0,46,46,54,1,fourtwo,,,,,,,,,,,,,,,,,,,,,,,,,,,,,,,,,,,,,,,,,,,,,,,,,,,,,,,,,,,,,,,,,,,,,,,,,,,,,,,,,,,,,,,,,,,,,,,,,,,,,,,,,,,,,,,,,,,,,,,,,,,,,,,,,,,,,,,,,,,,,
,,,,,,614e155acfb658911e1b16f7,629c52334f6fa95b4ee90ef8,2022-06-05_08h53.42.531,Colour_Asymmetry_Pilot,2022.1.3,Win32,60.0060006,629c4b6caf241d5e6e00bfc0,0,47,47,44,1,threeone,,,,,,,,,,,,,,,,,,,,,,,,,,,,,,,,,,,,,,,,,,,,,,,,,,,,,,,,,,,,,,,,,,,,,,,,,,,,,,,,,,,,,,,,,,,,,,,,,,,,,,,,,,,,,,,,,,,,,,,,,,,,,,,,,,,,,,,,,,,,,
,,,,,,614e155acfb658911e1b16f7,629c52334f6fa95b4ee90ef8,2022-06-05_08h53.42.531,Colour_Asymmetry_Pilot,2022.1.3,Win32,60.0060006,629c4b6caf241d5e6e00bfc0,0,48,48,19,1,twofour,,,,,,,,,,,,,,,,,,,,,,,,,,,,,,,,,,,,,,,,,,,,,,,,,,,,,,,,,,,,,,,,,,,,,,,,,,,,,,,,,,,,,,,,,,,,,,,,,,,,,,,,,,,,,,,,,,,,,,,,,,,,,,,,,,,,,,,,,,,,,
,,,,,,614e155acfb658911e1b16f7,629c52334f6fa95b4ee90ef8,2022-06-05_08h53.42.531,Colour_Asymmetry_Pilot,2022.1.3,Win32,60.0060006,629c4b6caf241d5e6e00bfc0,0,49,49,35,1,twofour,,,,,,,,,,,,,,,,,,,,,,,,,,,,,,,,,,,,,,,,,,,,,,,,,,,,,,,,,,,,,,,,,,,,,,,,,,,,,,,,,,,,,,,,,,,,,,,,,,,,,,,,,,,,,,,,,,,,,,,,,,,,,,,,,,,,,,,,,,,,,
,,,,,,614e155acfb658911e1b16f7,629c52334f6fa95b4ee90ef8,2022-06-05_08h53.42.531,Colour_Asymmetry_Pilot,2022.1.3,Win32,60.0060006,629c4b6caf241d5e6e00bfc0,0,50,50,115,1,twofour,,,,,,,,,,,,,,,,,,,,,,,,,,,,,,,,,,,,,,,,,,,,,,,,,,,,,,,,,,,,,,,,,,,,,,,,,,,,,,,,,,,,,,,,,,,,,,,,,,,,,,,,,,,,,,,,,,,,,,,,,,,,,,,,,,,,,,,,,,,,,
,,,,,,614e155acfb658911e1b16f7,629c52334f6fa95b4ee90ef8,2022-06-05_08h53.42.531,Colour_Asymmetry_Pilot,2022.1.3,Win32,60.0060006,629c4b6caf241d5e6e00bfc0,0,51,51,16,1,onetwo,,,,,,,,,,,,,,,,,,,,,,,,,,,,,,,,,,,,,,,,,,,,,,,,,,,,,,,,,,,,,,,,,,,,,,,,,,,,,,,,,,,,,,,,,,,,,,,,,,,,,,,,,,,,,,,,,,,,,,,,,,,,,,,,,,,,,,,,,,,,,
,,,,,,614e155acfb658911e1b16f7,629c52334f6fa95b4ee90ef8,2022-06-05_08h53.42.531,Colour_Asymmetry_Pilot,2022.1.3,Win32,60.0060006,629c4b6caf241d5e6e00bfc0,0,52,52,27,1,twofour,,,,,,,,,,,,,,,,,,,,,,,,,,,,,,,,,,,,,,,,,,,,,,,,,,,,,,,,,,,,,,,,,,,,,,,,,,,,,,,,,,,,,,,,,,,,,,,,,,,,,,,,,,,,,,,,,,,,,,,,,,,,,,,,,,,,,,,,,,,,,
,,,,,,614e155acfb658911e1b16f7,629c52334f6fa95b4ee90ef8,2022-06-05_08h53.42.531,Colour_Asymmetry_Pilot,2022.1.3,Win32,60.0060006,629c4b6caf241d5e6e00bfc0,0,53,53,143,1,fourthree,,,,,,,,,,,,,,,,,,,,,,,,,,,,,,,,,,,,,,,,,,,,,,,,,,,,,,,,,,,,,,,,,,,,,,,,,,,,,,,,,,,,,,,,,,,,,,,,,,,,,,,,,,,,,,,,,,,,,,,,,,,,,,,,,,,,,,,,,,,,,
,,,,,,614e155acfb658911e1b16f7,629c52334f6fa95b4ee90ef8,2022-06-05_08h53.42.531,Colour_Asymmetry_Pilot,2022.1.3,Win32,60.0060006,629c4b6caf241d5e6e00bfc0,0,54,54,8,1,onetwo,,,,,,,,,,,,,,,,,,,,,,,,,,,,,,,,,,,,,,,,,,,,,,,,,,,,,,,,,,,,,,,,,,,,,,,,,,,,,,,,,,,,,,,,,,,,,,,,,,,,,,,,,,,,,,,,,,,,,,,,,,,,,,,,,,,,,,,,,,,,,
,,,,,,614e155acfb658911e1b16f7,629c52334f6fa95b4ee90ef8,2022-06-05_08h53.42.531,Colour_Asymmetry_Pilot,2022.1.3,Win32,60.0060006,629c4b6caf241d5e6e00bfc0,0,55,55,25,1,onethree,,,,,,,,,,,,,,,,,,,,,,,,,,,,,,,,,,,,,,,,,,,,,,,,,,,,,,,,,,,,,,,,,,,,,,,,,,,,,,,,,,,,,,,,,,,,,,,,,,,,,,,,,,,,,,,,,,,,,,,,,,,,,,,,,,,,,,,,,,,,,
,,,,,,614e155acfb658911e1b16f7,629c52334f6fa95b4ee90ef8,2022-06-05_08h53.42.531,Colour_Asymmetry_Pilot,2022.1.3,Win32,60.0060006,629c4b6caf241d5e6e00bfc0,0,56,56,53,1,threefour,,,,,,,,,,,,,,,,,,,,,,,,,,,,,,,,,,,,,,,,,,,,,,,,,,,,,,,,,,,,,,,,,,,,,,,,,,,,,,,,,,,,,,,,,,,,,,,,,,,,,,,,,,,,,,,,,,,,,,,,,,,,,,,,,,,,,,,,,,,,,
,,,,,,614e155acfb658911e1b16f7,629c52334f6fa95b4ee90ef8,2022-06-05_08h53.42.531,Colour_Asymmetry_Pilot,2022.1.3,Win32,60.0060006,629c4b6caf241d5e6e00bfc0,0,57,57,129,1,onethree,,,,,,,,,,,,,,,,,,,,,,,,,,,,,,,,,,,,,,,,,,,,,,,,,,,,,,,,,,,,,,,,,,,,,,,,,,,,,,,,,,,,,,,,,,,,,,,,,,,,,,,,,,,,,,,,,,,,,,,,,,,,,,,,,,,,,,,,,,,,,
,,,,,,614e155acfb658911e1b16f7,629c52334f6fa95b4ee90ef8,2022-06-05_08h53.42.531,Colour_Asymmetry_Pilot,2022.1.3,Win32,60.0060006,629c4b6caf241d5e6e00bfc0,0,58,58,102,1,fourtwo,,,,,,,,,,,,,,,,,,,,,,,,,,,,,,,,,,,,,,,,,,,,,,,,,,,,,,,,,,,,,,,,,,,,,,,,,,,,,,,,,,,,,,,,,,,,,,,,,,,,,,,,,,,,,,,,,,,,,,,,,,,,,,,,,,,,,,,,,,,,,
,,,,,,614e155acfb658911e1b16f7,629c52334f6fa95b4ee90ef8,2022-06-05_08h53.42.531,Colour_Asymmetry_Pilot,2022.1.3,Win32,60.0060006,629c4b6caf241d5e6e00bfc0,0,59,59,1,1,onethree,,,,,,,,,,,,,,,,,,,,,,,,,,,,,,,,,,,,,,,,,,,,,,,,,,,,,,,,,,,,,,,,,,,,,,,,,,,,,,,,,,,,,,,,,,,,,,,,,,,,,,,,,,,,,,,,,,,,,,,,,,,,,,,,,,,,,,,,,,,,,
,,,,,,614e155acfb658911e1b16f7,629c52334f6fa95b4ee90ef8,2022-06-05_08h53.42.531,Colour_Asymmetry_Pilot,2022.1.3,Win32,60.0060006,629c4b6caf241d5e6e00bfc0,0,60,60,110,1,fourtwo,,,,,,,,,,,,,,,,,,,,,,,,,,,,,,,,,,,,,,,,,,,,,,,,,,,,,,,,,,,,,,,,,,,,,,,,,,,,,,,,,,,,,,,,,,,,,,,,,,,,,,,,,,,,,,,,,,,,,,,,,,,,,,,,,,,,,,,,,,,,,
,,,,,,614e155acfb658911e1b16f7,629c52334f6fa95b4ee90ef8,2022-06-05_08h53.42.531,Colour_Asymmetry_Pilot,2022.1.3,Win32,60.0060006,629c4b6caf241d5e6e00bfc0,0,61,61,46,1,fourtwo,,,,,,,,,,,,,,,,,,,,,,,,,,,,,,,,,,,,,,,,,,,,,,,,,,,,,,,,,,,,,,,,,,,,,,,,,,,,,,,,,,,,,,,,,,,,,,,,,,,,,,,,,,,,,,,,,,,,,,,,,,,,,,,,,,,,,,,,,,,,,
,,,,,,614e155acfb658911e1b16f7,629c52334f6fa95b4ee90ef8,2022-06-05_08h53.42.531,Colour_Asymmetry_Pilot,2022.1.3,Win32,60.0060006,629c4b6caf241d5e6e00bfc0,0,62,62,71,1,fourthree,,,,,,,,,,,,,,,,,,,,,,,,,,,,,,,,,,,,,,,,,,,,,,,,,,,,,,,,,,,,,,,,,,,,,,,,,,,,,,,,,,,,,,,,,,,,,,,,,,,,,,,,,,,,,,,,,,,,,,,,,,,,,,,,,,,,,,,,,,,,,
,,,,,,614e155acfb658911e1b16f7,629c52334f6fa95b4ee90ef8,2022-06-05_08h53.42.531,Colour_Asymmetry_Pilot,2022.1.3,Win32,60.0060006,629c4b6caf241d5e6e00bfc0,0,63,63,10,1,twoone,,,,,,,,,,,,,,,,,,,,,,,,,,,,,,,,,,,,,,,,,,,,,,,,,,,,,,,,,,,,,,,,,,,,,,,,,,,,,,,,,,,,,,,,,,,,,,,,,,,,,,,,,,,,,,,,,,,,,,,,,,,,,,,,,,,,,,,,,,,,,
,,,,,,614e155acfb658911e1b16f7,629c52334f6fa95b4ee90ef8,2022-06-05_08h53.42.531,Colour_Asymmetry_Pilot,2022.1.3,Win32,60.0060006,629c4b6caf241d5e6e00bfc0,0,64,64,33,1,onethree,,,,,,,,,,,,,,,,,,,,,,,,,,,,,,,,,,,,,,,,,,,,,,,,,,,,,,,,,,,,,,,,,,,,,,,,,,,,,,,,,,,,,,,,,,,,,,,,,,,,,,,,,,,,,,,,,,,,,,,,,,,,,,,,,,,,,,,,,,,,,
,,,,,,614e155acfb658911e1b16f7,629c52334f6fa95b4ee90ef8,2022-06-05_08h53.42.531,Colour_Asymmetry_Pilot,2022.1.3,Win32,60.0060006,629c4b6caf241d5e6e00bfc0,0,65,65,4,1,threeone,,,,,,,,,,,,,,,,,,,,,,,,,,,,,,,,,,,,,,,,,,,,,,,,,,,,,,,,,,,,,,,,,,,,,,,,,,,,,,,,,,,,,,,,,,,,,,,,,,,,,,,,,,,,,,,,,,,,,,,,,,,,,,,,,,,,,,,,,,,,,
,,,,,,614e155acfb658911e1b16f7,629c52334f6fa95b4ee90ef8,2022-06-05_08h53.42.531,Colour_Asymmetry_Pilot,2022.1.3,Win32,60.0060006,629c4b6caf241d5e6e00bfc0,0,66,66,136,1,onetwo,,,,,,,,,,,,,,,,,,,,,,,,,,,,,,,,,,,,,,,,,,,,,,,,,,,,,,,,,,,,,,,,,,,,,,,,,,,,,,,,,,,,,,,,,,,,,,,,,,,,,,,,,,,,,,,,,,,,,,,,,,,,,,,,,,,,,,,,,,,,,
,,,,,,614e155acfb658911e1b16f7,629c52334f6fa95b4ee90ef8,2022-06-05_08h53.42.531,Colour_Asymmetry_Pilot,2022.1.3,Win32,60.0060006,629c4b6caf241d5e6e00bfc0,0,67,67,12,1,threeone,,,,,,,,,,,,,,,,,,,,,,,,,,,,,,,,,,,,,,,,,,,,,,,,,,,,,,,,,,,,,,,,,,,,,,,,,,,,,,,,,,,,,,,,,,,,,,,,,,,,,,,,,,,,,,,,,,,,,,,,,,,,,,,,,,,,,,,,,,,,,
,,,,,,614e155acfb658911e1b16f7,629c52334f6fa95b4ee90ef8,2022-06-05_08h53.42.531,Colour_Asymmetry_Pilot,2022.1.3,Win32,60.0060006,629c4b6caf241d5e6e00bfc0,0,68,68,80,1,onetwo,,,,,,,,,,,,,,,,,,,,,,,,,,,,,,,,,,,,,,,,,,,,,,,,,,,,,,,,,,,,,,,,,,,,,,,,,,,,,,,,,,,,,,,,,,,,,,,,,,,,,,,,,,,,,,,,,,,,,,,,,,,,,,,,,,,,,,,,,,,,,
,,,,,,614e155acfb658911e1b16f7,629c52334f6fa95b4ee90ef8,2022-06-05_08h53.42.531,Colour_Asymmetry_Pilot,2022.1.3,Win32,60.0060006,629c4b6caf241d5e6e00bfc0,0,69,69,132,1,threeone,,,,,,,,,,,,,,,,,,,,,,,,,,,,,,,,,,,,,,,,,,,,,,,,,,,,,,,,,,,,,,,,,,,,,,,,,,,,,,,,,,,,,,,,,,,,,,,,,,,,,,,,,,,,,,,,,,,,,,,,,,,,,,,,,,,,,,,,,,,,,
,,,,,,614e155acfb658911e1b16f7,629c52334f6fa95b4ee90ef8,2022-06-05_08h53.42.531,Colour_Asymmetry_Pilot,2022.1.3,Win32,60.0060006,629c4b6caf241d5e6e00bfc0,0,70,70,79,1,fourthree,,,,,,,,,,,,,,,,,,,,,,,,,,,,,,,,,,,,,,,,,,,,,,,,,,,,,,,,,,,,,,,,,,,,,,,,,,,,,,,,,,,,,,,,,,,,,,,,,,,,,,,,,,,,,,,,,,,,,,,,,,,,,,,,,,,,,,,,,,,,,
,,,,,,614e155acfb658911e1b16f7,629c52334f6fa95b4ee90ef8,2022-06-05_08h53.42.531,Colour_Asymmetry_Pilot,2022.1.3,Win32,60.0060006,629c4b6caf241d5e6e00bfc0,0,71,71,55,1,fourthree,,,,,,,,,,,,,,,,,,,,,,,,,,,,,,,,,,,,,,,,,,,,,,,,,,,,,,,,,,,,,,,,,,,,,,,,,,,,,,,,,,,,,,,,,,,,,,,,,,,,,,,,,,,,,,,,,,,,,,,,,,,,,,,,,,,,,,,,,,,,,
,,,,,,614e155acfb658911e1b16f7,629c52334f6fa95b4ee90ef8,2022-06-05_08h53.42.531,Colour_Asymmetry_Pilot,2022.1.3,Win32,60.0060006,629c4b6caf241d5e6e00bfc0,0,72,72,13,1,threefour,,,,,,,,,,,,,,,,,,,,,,,,,,,,,,,,,,,,,,,,,,,,,,,,,,,,,,,,,,,,,,,,,,,,,,,,,,,,,,,,,,,,,,,,,,,,,,,,,,,,,,,,,,,,,,,,,,,,,,,,,,,,,,,,,,,,,,,,,,,,,
,,,,,,614e155acfb658911e1b16f7,629c52334f6fa95b4ee90ef8,2022-06-05_08h53.42.531,Colour_Asymmetry_Pilot,2022.1.3,Win32,60.0060006,629c4b6caf241d5e6e00bfc0,0,73,73,30,1,fourtwo,,,,,,,,,,,,,,,,,,,,,,,,,,,,,,,,,,,,,,,,,,,,,,,,,,,,,,,,,,,,,,,,,,,,,,,,,,,,,,,,,,,,,,,,,,,,,,,,,,,,,,,,,,,,,,,,,,,,,,,,,,,,,,,,,,,,,,,,,,,,,
,,,,,,614e155acfb658911e1b16f7,629c52334f6fa95b4ee90ef8,2022-06-05_08h53.42.531,Colour_Asymmetry_Pilot,2022.1.3,Win32,60.0060006,629c4b6caf241d5e6e00bfc0,0,74,74,83,1,twofour,,,,,,,,,,,,,,,,,,,,,,,,,,,,,,,,,,,,,,,,,,,,,,,,,,,,,,,,,,,,,,,,,,,,,,,,,,,,,,,,,,,,,,,,,,,,,,,,,,,,,,,,,,,,,,,,,,,,,,,,,,,,,,,,,,,,,,,,,,,,,
,,,,,,614e155acfb658911e1b16f7,629c52334f6fa95b4ee90ef8,2022-06-05_08h53.42.531,Colour_Asymmetry_Pilot,2022.1.3,Win32,60.0060006,629c4b6caf241d5e6e00bfc0,0,75,75,70,1,fourtwo,,,,,,,,,,,,,,,,,,,,,,,,,,,,,,,,,,,,,,,,,,,,,,,,,,,,,,,,,,,,,,,,,,,,,,,,,,,,,,,,,,,,,,,,,,,,,,,,,,,,,,,,,,,,,,,,,,,,,,,,,,,,,,,,,,,,,,,,,,,,,
,,,,,,614e155acfb658911e1b16f7,629c52334f6fa95b4ee90ef8,2022-06-05_08h53.42.531,Colour_Asymmetry_Pilot,2022.1.3,Win32,60.0060006,629c4b6caf241d5e6e00bfc0,0,76,76,74,1,twoone,,,,,,,,,,,,,,,,,,,,,,,,,,,,,,,,,,,,,,,,,,,,,,,,,,,,,,,,,,,,,,,,,,,,,,,,,,,,,,,,,,,,,,,,,,,,,,,,,,,,,,,,,,,,,,,,,,,,,,,,,,,,,,,,,,,,,,,,,,,,,
,,,,,,614e155acfb658911e1b16f7,629c52334f6fa95b4ee90ef8,2022-06-05_08h53.42.531,Colour_Asymmetry_Pilot,2022.1.3,Win32,60.0060006,629c4b6caf241d5e6e00bfc0,0,77,77,64,1,onetwo,,,,,,,,,,,,,,,,,,,,,,,,,,,,,,,,,,,,,,,,,,,,,,,,,,,,,,,,,,,,,,,,,,,,,,,,,,,,,,,,,,,,,,,,,,,,,,,,,,,,,,,,,,,,,,,,,,,,,,,,,,,,,,,,,,,,,,,,,,,,,
,,,,,,614e155acfb658911e1b16f7,629c52334f6fa95b4ee90ef8,2022-06-05_08h53.42.531,Colour_Asymmetry_Pilot,2022.1.3,Win32,60.0060006,629c4b6caf241d5e6e00bfc0,0,78,78,81,1,onethree,,,,,,,,,,,,,,,,,,,,,,,,,,,,,,,,,,,,,,,,,,,,,,,,,,,,,,,,,,,,,,,,,,,,,,,,,,,,,,,,,,,,,,,,,,,,,,,,,,,,,,,,,,,,,,,,,,,,,,,,,,,,,,,,,,,,,,,,,,,,,
,,,,,,614e155acfb658911e1b16f7,629c52334f6fa95b4ee90ef8,2022-06-05_08h53.42.531,Colour_Asymmetry_Pilot,2022.1.3,Win32,60.0060006,629c4b6caf241d5e6e00bfc0,0,79,79,28,1,threeone,,,,,,,,,,,,,,,,,,,,,,,,,,,,,,,,,,,,,,,,,,,,,,,,,,,,,,,,,,,,,,,,,,,,,,,,,,,,,,,,,,,,,,,,,,,,,,,,,,,,,,,,,,,,,,,,,,,,,,,,,,,,,,,,,,,,,,,,,,,,,
,,,,,,614e155acfb658911e1b16f7,629c52334f6fa95b4ee90ef8,2022-06-05_08h53.42.531,Colour_Asymmetry_Pilot,2022.1.3,Win32,60.0060006,629c4b6caf241d5e6e00bfc0,0,80,80,153,1,onethree,,,,,,,,,,,,,,,,,,,,,,,,,,,,,,,,,,,,,,,,,,,,,,,,,,,,,,,,,,,,,,,,,,,,,,,,,,,,,,,,,,,,,,,,,,,,,,,,,,,,,,,,,,,,,,,,,,,,,,,,,,,,,,,,,,,,,,,,,,,,,
,,,,,,614e155acfb658911e1b16f7,629c52334f6fa95b4ee90ef8,2022-06-05_08h53.42.531,Colour_Asymmetry_Pilot,2022.1.3,Win32,60.0060006,629c4b6caf241d5e6e00bfc0,0,81,81,68,1,threeone,,,,,,,,,,,,,,,,,,,,,,,,,,,,,,,,,,,,,,,,,,,,,,,,,,,,,,,,,,,,,,,,,,,,,,,,,,,,,,,,,,,,,,,,,,,,,,,,,,,,,,,,,,,,,,,,,,,,,,,,,,,,,,,,,,,,,,,,,,,,,
,,,,,,614e155acfb658911e1b16f7,629c52334f6fa95b4ee90ef8,2022-06-05_08h53.42.531,Colour_Asymmetry_Pilot,2022.1.3,Win32,60.0060006,629c4b6caf241d5e6e00bfc0,0,82,82,40,1,onetwo,,,,,,,,,,,,,,,,,,,,,,,,,,,,,,,,,,,,,,,,,,,,,,,,,,,,,,,,,,,,,,,,,,,,,,,,,,,,,,,,,,,,,,,,,,,,,,,,,,,,,,,,,,,,,,,,,,,,,,,,,,,,,,,,,,,,,,,,,,,,,
,,,,,,614e155acfb658911e1b16f7,629c52334f6fa95b4ee90ef8,2022-06-05_08h53.42.531,Colour_Asymmetry_Pilot,2022.1.3,Win32,60.0060006,629c4b6caf241d5e6e00bfc0,0,83,83,60,1,threeone,,,,,,,,,,,,,,,,,,,,,,,,,,,,,,,,,,,,,,,,,,,,,,,,,,,,,,,,,,,,,,,,,,,,,,,,,,,,,,,,,,,,,,,,,,,,,,,,,,,,,,,,,,,,,,,,,,,,,,,,,,,,,,,,,,,,,,,,,,,,,
,,,,,,614e155acfb658911e1b16f7,629c52334f6fa95b4ee90ef8,2022-06-05_08h53.42.531,Colour_Asymmetry_Pilot,2022.1.3,Win32,60.0060006,629c4b6caf241d5e6e00bfc0,0,84,84,93,1,threefour,,,,,,,,,,,,,,,,,,,,,,,,,,,,,,,,,,,,,,,,,,,,,,,,,,,,,,,,,,,,,,,,,,,,,,,,,,,,,,,,,,,,,,,,,,,,,,,,,,,,,,,,,,,,,,,,,,,,,,,,,,,,,,,,,,,,,,,,,,,,,
,,,,,,614e155acfb658911e1b16f7,629c52334f6fa95b4ee90ef8,2022-06-05_08h53.42.531,Colour_Asymmetry_Pilot,2022.1.3,Win32,60.0060006,629c4b6caf241d5e6e00bfc0,0,85,85,39,1,fourthree,,,,,,,,,,,,,,,,,,,,,,,,,,,,,,,,,,,,,,,,,,,,,,,,,,,,,,,,,,,,,,,,,,,,,,,,,,,,,,,,,,,,,,,,,,,,,,,,,,,,,,,,,,,,,,,,,,,,,,,,,,,,,,,,,,,,,,,,,,,,,
,,,,,,614e155acfb658911e1b16f7,629c52334f6fa95b4ee90ef8,2022-06-05_08h53.42.531,Colour_Asymmetry_Pilot,2022.1.3,Win32,60.0060006,629c4b6caf241d5e6e00bfc0,0,86,86,90,1,twoone,,,,,,,,,,,,,,,,,,,,,,,,,,,,,,,,,,,,,,,,,,,,,,,,,,,,,,,,,,,,,,,,,,,,,,,,,,,,,,,,,,,,,,,,,,,,,,,,,,,,,,,,,,,,,,,,,,,,,,,,,,,,,,,,,,,,,,,,,,,,,
,,,,,,614e155acfb658911e1b16f7,629c52334f6fa95b4ee90ef8,2022-06-05_08h53.42.531,Colour_Asymmetry_Pilot,2022.1.3,Win32,60.0060006,629c4b6caf241d5e6e00bfc0,0,87,87,42,1,twoone,,,,,,,,,,,,,,,,,,,,,,,,,,,,,,,,,,,,,,,,,,,,,,,,,,,,,,,,,,,,,,,,,,,,,,,,,,,,,,,,,,,,,,,,,,,,,,,,,,,,,,,,,,,,,,,,,,,,,,,,,,,,,,,,,,,,,,,,,,,,,
,,,,,,614e155acfb658911e1b16f7,629c52334f6fa95b4ee90ef8,2022-06-05_08h53.42.531,Colour_Asymmetry_Pilot,2022.1.3,Win32,60.0060006,629c4b6caf241d5e6e00bfc0,0,88,88,45,1,threefour,,,,,,,,,,,,,,,,,,,,,,,,,,,,,,,,,,,,,,,,,,,,,,,,,,,,,,,,,,,,,,,,,,,,,,,,,,,,,,,,,,,,,,,,,,,,,,,,,,,,,,,,,,,,,,,,,,,,,,,,,,,,,,,,,,,,,,,,,,,,,
,,,,,,614e155acfb658911e1b16f7,629c52334f6fa95b4ee90ef8,2022-06-05_08h53.42.531,Colour_Asymmetry_Pilot,2022.1.3,Win32,60.0060006,629c4b6caf241d5e6e00bfc0,0,89,89,37,1,threefour,,,,,,,,,,,,,,,,,,,,,,,,,,,,,,,,,,,,,,,,,,,,,,,,,,,,,,,,,,,,,,,,,,,,,,,,,,,,,,,,,,,,,,,,,,,,,,,,,,,,,,,,,,,,,,,,,,,,,,,,,,,,,,,,,,,,,,,,,,,,,
,,,,,,614e155acfb658911e1b16f7,629c52334f6fa95b4ee90ef8,2022-06-05_08h53.42.531,Colour_Asymmetry_Pilot,2022.1.3,Win32,60.0060006,629c4b6caf241d5e6e00bfc0,0,90,90,96,1,onetwo,,,,,,,,,,,,,,,,,,,,,,,,,,,,,,,,,,,,,,,,,,,,,,,,,,,,,,,,,,,,,,,,,,,,,,,,,,,,,,,,,,,,,,,,,,,,,,,,,,,,,,,,,,,,,,,,,,,,,,,,,,,,,,,,,,,,,,,,,,,,,
,,,,,,614e155acfb658911e1b16f7,629c52334f6fa95b4ee90ef8,2022-06-05_08h53.42.531,Colour_Asymmetry_Pilot,2022.1.3,Win32,60.0060006,629c4b6caf241d5e6e00bfc0,0,91,91,23,1,fourthree,,,,,,,,,,,,,,,,,,,,,,,,,,,,,,,,,,,,,,,,,,,,,,,,,,,,,,,,,,,,,,,,,,,,,,,,,,,,,,,,,,,,,,,,,,,,,,,,,,,,,,,,,,,,,,,,,,,,,,,,,,,,,,,,,,,,,,,,,,,,,
,,,,,,614e155acfb658911e1b16f7,629c52334f6fa95b4ee90ef8,2022-06-05_08h53.42.531,Colour_Asymmetry_Pilot,2022.1.3,Win32,60.0060006,629c4b6caf241d5e6e00bfc0,0,92,92,36,1,threeone,,,,,,,,,,,,,,,,,,,,,,,,,,,,,,,,,,,,,,,,,,,,,,,,,,,,,,,,,,,,,,,,,,,,,,,,,,,,,,,,,,,,,,,,,,,,,,,,,,,,,,,,,,,,,,,,,,,,,,,,,,,,,,,,,,,,,,,,,,,,,
,,,,,,614e155acfb658911e1b16f7,629c52334f6fa95b4ee90ef8,2022-06-05_08h53.42.531,Colour_Asymmetry_Pilot,2022.1.3,Win32,60.0060006,629c4b6caf241d5e6e00bfc0,0,93,93,151,1,fourthree,,,,,,,,,,,,,,,,,,,,,,,,,,,,,,,,,,,,,,,,,,,,,,,,,,,,,,,,,,,,,,,,,,,,,,,,,,,,,,,,,,,,,,,,,,,,,,,,,,,,,,,,,,,,,,,,,,,,,,,,,,,,,,,,,,,,,,,,,,,,,
,,,,,,614e155acfb658911e1b16f7,629c52334f6fa95b4ee90ef8,2022-06-05_08h53.42.531,Colour_Asymmetry_Pilot,2022.1.3,Win32,60.0060006,629c4b6caf241d5e6e00bfc0,0,94,94,114,1,twoone,,,,,,,,,,,,,,,,,,,,,,,,,,,,,,,,,,,,,,,,,,,,,,,,,,,,,,,,,,,,,,,,,,,,,,,,,,,,,,,,,,,,,,,,,,,,,,,,,,,,,,,,,,,,,,,,,,,,,,,,,,,,,,,,,,,,,,,,,,,,,
,,,,,,614e155acfb658911e1b16f7,629c52334f6fa95b4ee90ef8,2022-06-05_08h53.42.531,Colour_Asymmetry_Pilot,2022.1.3,Win32,60.0060006,629c4b6caf241d5e6e00bfc0,0,95,95,57,1,onethree,,,,,,,,,,,,,,,,,,,,,,,,,,,,,,,,,,,,,,,,,,,,,,,,,,,,,,,,,,,,,,,,,,,,,,,,,,,,,,,,,,,,,,,,,,,,,,,,,,,,,,,,,,,,,,,,,,,,,,,,,,,,,,,,,,,,,,,,,,,,,
,,,,,,614e155acfb658911e1b16f7,629c52334f6fa95b4ee90ef8,2022-06-05_08h53.42.531,Colour_Asymmetry_Pilot,2022.1.3,Win32,60.0060006,629c4b6caf241d5e6e00bfc0,0,96,96,41,1,onethree,,,,,,,,,,,,,,,,,,,,,,,,,,,,,,,,,,,,,,,,,,,,,,,,,,,,,,,,,,,,,,,,,,,,,,,,,,,,,,,,,,,,,,,,,,,,,,,,,,,,,,,,,,,,,,,,,,,,,,,,,,,,,,,,,,,,,,,,,,,,,
,,,,,,614e155acfb658911e1b16f7,629c52334f6fa95b4ee90ef8,2022-06-05_08h53.42.531,Colour_Asymmetry_Pilot,2022.1.3,Win32,60.0060006,629c4b6caf241d5e6e00bfc0,0,97,97,7,1,fourthree,,,,,,,,,,,,,,,,,,,,,,,,,,,,,,,,,,,,,,,,,,,,,,,,,,,,,,,,,,,,,,,,,,,,,,,,,,,,,,,,,,,,,,,,,,,,,,,,,,,,,,,,,,,,,,,,,,,,,,,,,,,,,,,,,,,,,,,,,,,,,
,,,,,,614e155acfb658911e1b16f7,629c52334f6fa95b4ee90ef8,2022-06-05_08h53.42.531,Colour_Asymmetry_Pilot,2022.1.3,Win32,60.0060006,629c4b6caf241d5e6e00bfc0,0,98,98,5,1,threefour,,,,,,,,,,,,,,,,,,,,,,,,,,,,,,,,,,,,,,,,,,,,,,,,,,,,,,,,,,,,,,,,,,,,,,,,,,,,,,,,,,,,,,,,,,,,,,,,,,,,,,,,,,,,,,,,,,,,,,,,,,,,,,,,,,,,,,,,,,,,,
,,,,,,614e155acfb658911e1b16f7,629c52334f6fa95b4ee90ef8,2022-06-05_08h53.42.531,Colour_Asymmetry_Pilot,2022.1.3,Win32,60.0060006,629c4b6caf241d5e6e00bfc0,0,99,99,98,1,twoone,,,,,,,,,,,,,,,,,,,,,,,,,,,,,,,,,,,,,,,,,,,,,,,,,,,,,,,,,,,,,,,,,,,,,,,,,,,,,,,,,,,,,,,,,,,,,,,,,,,,,,,,,,,,,,,,,,,,,,,,,,,,,,,,,,,,,,,,,,,,,
,,,,,,614e155acfb658911e1b16f7,629c52334f6fa95b4ee90ef8,2022-06-05_08h53.42.531,Colour_Asymmetry_Pilot,2022.1.3,Win32,60.0060006,629c4b6caf241d5e6e00bfc0,0,100,100,118,1,fourtwo,,,,,,,,,,,,,,,,,,,,,,,,,,,,,,,,,,,,,,,,,,,,,,,,,,,,,,,,,,,,,,,,,,,,,,,,,,,,,,,,,,,,,,,,,,,,,,,,,,,,,,,,,,,,,,,,,,,,,,,,,,,,,,,,,,,,,,,,,,,,,
,,,,,,614e155acfb658911e1b16f7,629c52334f6fa95b4ee90ef8,2022-06-05_08h53.42.531,Colour_Asymmetry_Pilot,2022.1.3,Win32,60.0060006,629c4b6caf241d5e6e00bfc0,0,101,101,112,1,onetwo,,,,,,,,,,,,,,,,,,,,,,,,,,,,,,,,,,,,,,,,,,,,,,,,,,,,,,,,,,,,,,,,,,,,,,,,,,,,,,,,,,,,,,,,,,,,,,,,,,,,,,,,,,,,,,,,,,,,,,,,,,,,,,,,,,,,,,,,,,,,,
,,,,,,614e155acfb658911e1b16f7,629c52334f6fa95b4ee90ef8,2022-06-05_08h53.42.531,Colour_Asymmetry_Pilot,2022.1.3,Win32,60.0060006,629c4b6caf241d5e6e00bfc0,0,102,102,105,1,onethree,,,,,,,,,,,,,,,,,,,,,,,,,,,,,,,,,,,,,,,,,,,,,,,,,,,,,,,,,,,,,,,,,,,,,,,,,,,,,,,,,,,,,,,,,,,,,,,,,,,,,,,,,,,,,,,,,,,,,,,,,,,,,,,,,,,,,,,,,,,,,
,,,,,,614e155acfb658911e1b16f7,629c52334f6fa95b4ee90ef8,2022-06-05_08h53.42.531,Colour_Asymmetry_Pilot,2022.1.3,Win32,60.0060006,629c4b6caf241d5e6e00bfc0,0,103,103,97,1,onethree,,,,,,,,,,,,,,,,,,,,,,,,,,,,,,,,,,,,,,,,,,,,,,,,,,,,,,,,,,,,,,,,,,,,,,,,,,,,,,,,,,,,,,,,,,,,,,,,,,,,,,,,,,,,,,,,,,,,,,,,,,,,,,,,,,,,,,,,,,,,,
,,,,,,614e155acfb658911e1b16f7,629c52334f6fa95b4ee90ef8,2022-06-05_08h53.42.531,Colour_Asymmetry_Pilot,2022.1.3,Win32,60.0060006,629c4b6caf241d5e6e00bfc0,0,104,104,121,1,onethree,,,,,,,,,,,,,,,,,,,,,,,,,,,,,,,,,,,,,,,,,,,,,,,,,,,,,,,,,,,,,,,,,,,,,,,,,,,,,,,,,,,,,,,,,,,,,,,,,,,,,,,,,,,,,,,,,,,,,,,,,,,,,,,,,,,,,,,,,,,,,
,,,,,,614e155acfb658911e1b16f7,629c52334f6fa95b4ee90ef8,2022-06-05_08h53.42.531,Colour_Asymmetry_Pilot,2022.1.3,Win32,60.0060006,629c4b6caf241d5e6e00bfc0,0,105,105,43,1,twofour,,,,,,,,,,,,,,,,,,,,,,,,,,,,,,,,,,,,,,,,,,,,,,,,,,,,,,,,,,,,,,,,,,,,,,,,,,,,,,,,,,,,,,,,,,,,,,,,,,,,,,,,,,,,,,,,,,,,,,,,,,,,,,,,,,,,,,,,,,,,,
,,,,,,614e155acfb658911e1b16f7,629c52334f6fa95b4ee90ef8,2022-06-05_08h53.42.531,Colour_Asymmetry_Pilot,2022.1.3,Win32,60.0060006,629c4b6caf241d5e6e00bfc0,0,106,106,47,1,fourthree,,,,,,,,,,,,,,,,,,,,,,,,,,,,,,,,,,,,,,,,,,,,,,,,,,,,,,,,,,,,,,,,,,,,,,,,,,,,,,,,,,,,,,,,,,,,,,,,,,,,,,,,,,,,,,,,,,,,,,,,,,,,,,,,,,,,,,,,,,,,,
,,,,,,614e155acfb658911e1b16f7,629c52334f6fa95b4ee90ef8,2022-06-05_08h53.42.531,Colour_Asymmetry_Pilot,2022.1.3,Win32,60.0060006,629c4b6caf241d5e6e00bfc0,0,107,107,15,1,fourthree,,,,,,,,,,,,,,,,,,,,,,,,,,,,,,,,,,,,,,,,,,,,,,,,,,,,,,,,,,,,,,,,,,,,,,,,,,,,,,,,,,,,,,,,,,,,,,,,,,,,,,,,,,,,,,,,,,,,,,,,,,,,,,,,,,,,,,,,,,,,,
,,,,,,614e155acfb658911e1b16f7,629c52334f6fa95b4ee90ef8,2022-06-05_08h53.42.531,Colour_Asymmetry_Pilot,2022.1.3,Win32,60.0060006,629c4b6caf241d5e6e00bfc0,0,108,108,73,1,onethree,,,,,,,,,,,,,,,,,,,,,,,,,,,,,,,,,,,,,,,,,,,,,,,,,,,,,,,,,,,,,,,,,,,,,,,,,,,,,,,,,,,,,,,,,,,,,,,,,,,,,,,,,,,,,,,,,,,,,,,,,,,,,,,,,,,,,,,,,,,,,
,,,,,,614e155acfb658911e1b16f7,629c52334f6fa95b4ee90ef8,2022-06-05_08h53.42.531,Colour_Asymmetry_Pilot,2022.1.3,Win32,60.0060006,629c4b6caf241d5e6e00bfc0,0,109,109,85,1,threefour,,,,,,,,,,,,,,,,,,,,,,,,,,,,,,,,,,,,,,,,,,,,,,,,,,,,,,,,,,,,,,,,,,,,,,,,,,,,,,,,,,,,,,,,,,,,,,,,,,,,,,,,,,,,,,,,,,,,,,,,,,,,,,,,,,,,,,,,,,,,,
,,,,,,614e155acfb658911e1b16f7,629c52334f6fa95b4ee90ef8,2022-06-05_08h53.42.531,Colour_Asymmetry_Pilot,2022.1.3,Win32,60.0060006,629c4b6caf241d5e6e00bfc0,0,110,110,49,1,onethree,,,,,,,,,,,,,,,,,,,,,,,,,,,,,,,,,,,,,,,,,,,,,,,,,,,,,,,,,,,,,,,,,,,,,,,,,,,,,,,,,,,,,,,,,,,,,,,,,,,,,,,,,,,,,,,,,,,,,,,,,,,,,,,,,,,,,,,,,,,,,
,,,,,,614e155acfb658911e1b16f7,629c52334f6fa95b4ee90ef8,2022-06-05_08h53.42.531,Colour_Asymmetry_Pilot,2022.1.3,Win32,60.0060006,629c4b6caf241d5e6e00bfc0,0,111,111,107,1,twofour,,,,,,,,,,,,,,,,,,,,,,,,,,,,,,,,,,,,,,,,,,,,,,,,,,,,,,,,,,,,,,,,,,,,,,,,,,,,,,,,,,,,,,,,,,,,,,,,,,,,,,,,,,,,,,,,,,,,,,,,,,,,,,,,,,,,,,,,,,,,,
,,,,,,614e155acfb658911e1b16f7,629c52334f6fa95b4ee90ef8,2022-06-05_08h53.42.531,Colour_Asymmetry_Pilot,2022.1.3,Win32,60.0060006,629c4b6caf241d5e6e00bfc0,0,112,112,99,1,twofour,,,,,,,,,,,,,,,,,,,,,,,,,,,,,,,,,,,,,,,,,,,,,,,,,,,,,,,,,,,,,,,,,,,,,,,,,,,,,,,,,,,,,,,,,,,,,,,,,,,,,,,,,,,,,,,,,,,,,,,,,,,,,,,,,,,,,,,,,,,,,
,,,,,,614e155acfb658911e1b16f7,629c52334f6fa95b4ee90ef8,2022-06-05_08h53.42.531,Colour_Asymmetry_Pilot,2022.1.3,Win32,60.0060006,629c4b6caf241d5e6e00bfc0,0,113,113,18,1,twoone,,,,,,,,,,,,,,,,,,,,,,,,,,,,,,,,,,,,,,,,,,,,,,,,,,,,,,,,,,,,,,,,,,,,,,,,,,,,,,,,,,,,,,,,,,,,,,,,,,,,,,,,,,,,,,,,,,,,,,,,,,,,,,,,,,,,,,,,,,,,,
,,,,,,614e155acfb658911e1b16f7,629c52334f6fa95b4ee90ef8,2022-06-05_08h53.42.531,Colour_Asymmetry_Pilot,2022.1.3,Win32,60.0060006,629c4b6caf241d5e6e00bfc0,0,114,114,31,1,fourthree,,,,,,,,,,,,,,,,,,,,,,,,,,,,,,,,,,,,,,,,,,,,,,,,,,,,,,,,,,,,,,,,,,,,,,,,,,,,,,,,,,,,,,,,,,,,,,,,,,,,,,,,,,,,,,,,,,,,,,,,,,,,,,,,,,,,,,,,,,,,,
,,,,,,614e155acfb658911e1b16f7,629c52334f6fa95b4ee90ef8,2022-06-05_08h53.42.531,Colour_Asymmetry_Pilot,2022.1.3,Win32,60.0060006,629c4b6caf241d5e6e00bfc0,0,115,115,24,1,onetwo,,,,,,,,,,,,,,,,,,,,,,,,,,,,,,,,,,,,,,,,,,,,,,,,,,,,,,,,,,,,,,,,,,,,,,,,,,,,,,,,,,,,,,,,,,,,,,,,,,,,,,,,,,,,,,,,,,,,,,,,,,,,,,,,,,,,,,,,,,,,,
,,,,,,614e155acfb658911e1b16f7,629c52334f6fa95b4ee90ef8,2022-06-05_08h53.42.531,Colour_Asymmetry_Pilot,2022.1.3,Win32,60.0060006,629c4b6caf241d5e6e00bfc0,0,116,116,65,1,onethree,,,,,,,,,,,,,,,,,,,,,,,,,,,,,,,,,,,,,,,,,,,,,,,,,,,,,,,,,,,,,,,,,,,,,,,,,,,,,,,,,,,,,,,,,,,,,,,,,,,,,,,,,,,,,,,,,,,,,,,,,,,,,,,,,,,,,,,,,,,,,
,,,,,,614e155acfb658911e1b16f7,629c52334f6fa95b4ee90ef8,2022-06-05_08h53.42.531,Colour_Asymmetry_Pilot,2022.1.3,Win32,60.0060006,629c4b6caf241d5e6e00bfc0,0,117,117,3,1,twofour,,,,,,,,,,,,,,,,,,,,,,,,,,,,,,,,,,,,,,,,,,,,,,,,,,,,,,,,,,,,,,,,,,,,,,,,,,,,,,,,,,,,,,,,,,,,,,,,,,,,,,,,,,,,,,,,,,,,,,,,,,,,,,,,,,,,,,,,,,,,,
,,,,,,614e155acfb658911e1b16f7,629c52334f6fa95b4ee90ef8,2022-06-05_08h53.42.531,Colour_Asymmetry_Pilot,2022.1.3,Win32,60.0060006,629c4b6caf241d5e6e00bfc0,0,118,118,117,1,threefour,,,,,,,,,,,,,,,,,,,,,,,,,,,,,,,,,,,,,,,,,,,,,,,,,,,,,,,,,,,,,,,,,,,,,,,,,,,,,,,,,,,,,,,,,,,,,,,,,,,,,,,,,,,,,,,,,,,,,,,,,,,,,,,,,,,,,,,,,,,,,
,,,,,,614e155acfb658911e1b16f7,629c52334f6fa95b4ee90ef8,2022-06-05_08h53.42.531,Colour_Asymmetry_Pilot,2022.1.3,Win32,60.0060006,629c4b6caf241d5e6e00bfc0,0,119,119,150,1,fourtwo,,,,,,,,,,,,,,,,,,,,,,,,,,,,,,,,,,,,,,,,,,,,,,,,,,,,,,,,,,,,,,,,,,,,,,,,,,,,,,,,,,,,,,,,,,,,,,,,,,,,,,,,,,,,,,,,,,,,,,,,,,,,,,,,,,,,,,,,,,,,,
,,,,,,614e155acfb658911e1b16f7,629c52334f6fa95b4ee90ef8,2022-06-05_08h53.42.531,Colour_Asymmetry_Pilot,2022.1.3,Win32,60.0060006,629c4b6caf241d5e6e00bfc0,0,120,120,120,1,onetwo,,,,,,,,,,,,,,,,,,,,,,,,,,,,,,,,,,,,,,,,,,,,,,,,,,,,,,,,,,,,,,,,,,,,,,,,,,,,,,,,,,,,,,,,,,,,,,,,,,,,,,,,,,,,,,,,,,,,,,,,,,,,,,,,,,,,,,,,,,,,,
,,,,,,614e155acfb658911e1b16f7,629c52334f6fa95b4ee90ef8,2022-06-05_08h53.42.531,Colour_Asymmetry_Pilot,2022.1.3,Win32,60.0060006,629c4b6caf241d5e6e00bfc0,0,121,121,0,1,onetwo,,,,,,,,,,,,,,,,,,,,,,,,,,,,,,,,,,,,,,,,,,,,,,,,,,,,,,,,,,,,,,,,,,,,,,,,,,,,,,,,,,,,,,,,,,,,,,,,,,,,,,,,,,,,,,,,,,,,,,,,,,,,,,,,,,,,,,,,,,,,,
,,,,,,614e155acfb658911e1b16f7,629c52334f6fa95b4ee90ef8,2022-06-05_08h53.42.531,Colour_Asymmetry_Pilot,2022.1.3,Win32,60.0060006,629c4b6caf241d5e6e00bfc0,0,122,122,156,1,threeone,,,,,,,,,,,,,,,,,,,,,,,,,,,,,,,,,,,,,,,,,,,,,,,,,,,,,,,,,,,,,,,,,,,,,,,,,,,,,,,,,,,,,,,,,,,,,,,,,,,,,,,,,,,,,,,,,,,,,,,,,,,,,,,,,,,,,,,,,,,,,
,,,,,,614e155acfb658911e1b16f7,629c52334f6fa95b4ee90ef8,2022-06-05_08h53.42.531,Colour_Asymmetry_Pilot,2022.1.3,Win32,60.0060006,629c4b6caf241d5e6e00bfc0,0,123,123,82,1,twoone,,,,,,,,,,,,,,,,,,,,,,,,,,,,,,,,,,,,,,,,,,,,,,,,,,,,,,,,,,,,,,,,,,,,,,,,,,,,,,,,,,,,,,,,,,,,,,,,,,,,,,,,,,,,,,,,,,,,,,,,,,,,,,,,,,,,,,,,,,,,,
,,,,,,614e155acfb658911e1b16f7,629c52334f6fa95b4ee90ef8,2022-06-05_08h53.42.531,Colour_Asymmetry_Pilot,2022.1.3,Win32,60.0060006,629c4b6caf241d5e6e00bfc0,0,124,124,20,1,threeone,,,,,,,,,,,,,,,,,,,,,,,,,,,,,,,,,,,,,,,,,,,,,,,,,,,,,,,,,,,,,,,,,,,,,,,,,,,,,,,,,,,,,,,,,,,,,,,,,,,,,,,,,,,,,,,,,,,,,,,,,,,,,,,,,,,,,,,,,,,,,
,,,,,,614e155acfb658911e1b16f7,629c52334f6fa95b4ee90ef8,2022-06-05_08h53.42.531,Colour_Asymmetry_Pilot,2022.1.3,Win32,60.0060006,629c4b6caf241d5e6e00bfc0,0,125,125,51,1,twofour,,,,,,,,,,,,,,,,,,,,,,,,,,,,,,,,,,,,,,,,,,,,,,,,,,,,,,,,,,,,,,,,,,,,,,,,,,,,,,,,,,,,,,,,,,,,,,,,,,,,,,,,,,,,,,,,,,,,,,,,,,,,,,,,,,,,,,,,,,,,,
,,,,,,614e155acfb658911e1b16f7,629c52334f6fa95b4ee90ef8,2022-06-05_08h53.42.531,Colour_Asymmetry_Pilot,2022.1.3,Win32,60.0060006,629c4b6caf241d5e6e00bfc0,0,126,126,11,1,twofour,,,,,,,,,,,,,,,,,,,,,,,,,,,,,,,,,,,,,,,,,,,,,,,,,,,,,,,,,,,,,,,,,,,,,,,,,,,,,,,,,,,,,,,,,,,,,,,,,,,,,,,,,,,,,,,,,,,,,,,,,,,,,,,,,,,,,,,,,,,,,
,,,,,,614e155acfb658911e1b16f7,629c52334f6fa95b4ee90ef8,2022-06-05_08h53.42.531,Colour_Asymmetry_Pilot,2022.1.3,Win32,60.0060006,629c4b6caf241d5e6e00bfc0,0,127,127,75,1,twofour,,,,,,,,,,,,,,,,,,,,,,,,,,,,,,,,,,,,,,,,,,,,,,,,,,,,,,,,,,,,,,,,,,,,,,,,,,,,,,,,,,,,,,,,,,,,,,,,,,,,,,,,,,,,,,,,,,,,,,,,,,,,,,,,,,,,,,,,,,,,,
,,,,,,614e155acfb658911e1b16f7,629c52334f6fa95b4ee90ef8,2022-06-05_08h53.42.531,Colour_Asymmetry_Pilot,2022.1.3,Win32,60.0060006,629c4b6caf241d5e6e00bfc0,0,128,128,91,1,twofour,,,,,,,,,,,,,,,,,,,,,,,,,,,,,,,,,,,,,,,,,,,,,,,,,,,,,,,,,,,,,,,,,,,,,,,,,,,,,,,,,,,,,,,,,,,,,,,,,,,,,,,,,,,,,,,,,,,,,,,,,,,,,,,,,,,,,,,,,,,,,
,,,,,,614e155acfb658911e1b16f7,629c52334f6fa95b4ee90ef8,2022-06-05_08h53.42.531,Colour_Asymmetry_Pilot,2022.1.3,Win32,60.0060006,629c4b6caf241d5e6e00bfc0,0,129,129,146,1,twoone,,,,,,,,,,,,,,,,,,,,,,,,,,,,,,,,,,,,,,,,,,,,,,,,,,,,,,,,,,,,,,,,,,,,,,,,,,,,,,,,,,,,,,,,,,,,,,,,,,,,,,,,,,,,,,,,,,,,,,,,,,,,,,,,,,,,,,,,,,,,,
,,,,,,614e155acfb658911e1b16f7,629c52334f6fa95b4ee90ef8,2022-06-05_08h53.42.531,Colour_Asymmetry_Pilot,2022.1.3,Win32,60.0060006,629c4b6caf241d5e6e00bfc0,0,130,130,26,1,twoone,,,,,,,,,,,,,,,,,,,,,,,,,,,,,,,,,,,,,,,,,,,,,,,,,,,,,,,,,,,,,,,,,,,,,,,,,,,,,,,,,,,,,,,,,,,,,,,,,,,,,,,,,,,,,,,,,,,,,,,,,,,,,,,,,,,,,,,,,,,,,
,,,,,,614e155acfb658911e1b16f7,629c52334f6fa95b4ee90ef8,2022-06-05_08h53.42.531,Colour_Asymmetry_Pilot,2022.1.3,Win32,60.0060006,629c4b6caf241d5e6e00bfc0,0,131,131,126,1,fourtwo,,,,,,,,,,,,,,,,,,,,,,,,,,,,,,,,,,,,,,,,,,,,,,,,,,,,,,,,,,,,,,,,,,,,,,,,,,,,,,,,,,,,,,,,,,,,,,,,,,,,,,,,,,,,,,,,,,,,,,,,,,,,,,,,,,,,,,,,,,,,,
,,,,,,614e155acfb658911e1b16f7,629c52334f6fa95b4ee90ef8,2022-06-05_08h53.42.531,Colour_Asymmetry_Pilot,2022.1.3,Win32,60.0060006,629c4b6caf241d5e6e00bfc0,0,132,132,133,1,threefour,,,,,,,,,,,,,,,,,,,,,,,,,,,,,,,,,,,,,,,,,,,,,,,,,,,,,,,,,,,,,,,,,,,,,,,,,,,,,,,,,,,,,,,,,,,,,,,,,,,,,,,,,,,,,,,,,,,,,,,,,,,,,,,,,,,,,,,,,,,,,
,,,,,,614e155acfb658911e1b16f7,629c52334f6fa95b4ee90ef8,2022-06-05_08h53.42.531,Colour_Asymmetry_Pilot,2022.1.3,Win32,60.0060006,629c4b6caf241d5e6e00bfc0,0,133,133,119,1,fourthree,,,,,,,,,,,,,,,,,,,,,,,,,,,,,,,,,,,,,,,,,,,,,,,,,,,,,,,,,,,,,,,,,,,,,,,,,,,,,,,,,,,,,,,,,,,,,,,,,,,,,,,,,,,,,,,,,,,,,,,,,,,,,,,,,,,,,,,,,,,,,
,,,,,,614e155acfb658911e1b16f7,629c52334f6fa95b4ee90ef8,2022-06-05_08h53.42.531,Colour_Asymmetry_Pilot,2022.1.3,Win32,60.0060006,629c4b6caf241d5e6e00bfc0,0,134,134,144,1,onetwo,,,,,,,,,,,,,,,,,,,,,,,,,,,,,,,,,,,,,,,,,,,,,,,,,,,,,,,,,,,,,,,,,,,,,,,,,,,,,,,,,,,,,,,,,,,,,,,,,,,,,,,,,,,,,,,,,,,,,,,,,,,,,,,,,,,,,,,,,,,,,
,,,,,,614e155acfb658911e1b16f7,629c52334f6fa95b4ee90ef8,2022-06-05_08h53.42.531,Colour_Asymmetry_Pilot,2022.1.3,Win32,60.0060006,629c4b6caf241d5e6e00bfc0,0,135,135,108,1,threeone,,,,,,,,,,,,,,,,,,,,,,,,,,,,,,,,,,,,,,,,,,,,,,,,,,,,,,,,,,,,,,,,,,,,,,,,,,,,,,,,,,,,,,,,,,,,,,,,,,,,,,,,,,,,,,,,,,,,,,,,,,,,,,,,,,,,,,,,,,,,,
,,,,,,614e155acfb658911e1b16f7,629c52334f6fa95b4ee90ef8,2022-06-05_08h53.42.531,Colour_Asymmetry_Pilot,2022.1.3,Win32,60.0060006,629c4b6caf241d5e6e00bfc0,0,136,136,124,1,threeone,,,,,,,,,,,,,,,,,,,,,,,,,,,,,,,,,,,,,,,,,,,,,,,,,,,,,,,,,,,,,,,,,,,,,,,,,,,,,,,,,,,,,,,,,,,,,,,,,,,,,,,,,,,,,,,,,,,,,,,,,,,,,,,,,,,,,,,,,,,,,
,,,,,,614e155acfb658911e1b16f7,629c52334f6fa95b4ee90ef8,2022-06-05_08h53.42.531,Colour_Asymmetry_Pilot,2022.1.3,Win32,60.0060006,629c4b6caf241d5e6e00bfc0,0,137,137,128,1,onetwo,,,,,,,,,,,,,,,,,,,,,,,,,,,,,,,,,,,,,,,,,,,,,,,,,,,,,,,,,,,,,,,,,,,,,,,,,,,,,,,,,,,,,,,,,,,,,,,,,,,,,,,,,,,,,,,,,,,,,,,,,,,,,,,,,,,,,,,,,,,,,
,,,,,,614e155acfb658911e1b16f7,629c52334f6fa95b4ee90ef8,2022-06-05_08h53.42.531,Colour_Asymmetry_Pilot,2022.1.3,Win32,60.0060006,629c4b6caf241d5e6e00bfc0,0,138,138,50,1,twoone,,,,,,,,,,,,,,,,,,,,,,,,,,,,,,,,,,,,,,,,,,,,,,,,,,,,,,,,,,,,,,,,,,,,,,,,,,,,,,,,,,,,,,,,,,,,,,,,,,,,,,,,,,,,,,,,,,,,,,,,,,,,,,,,,,,,,,,,,,,,,
,,,,,,614e155acfb658911e1b16f7,629c52334f6fa95b4ee90ef8,2022-06-05_08h53.42.531,Colour_Asymmetry_Pilot,2022.1.3,Win32,60.0060006,629c4b6caf241d5e6e00bfc0,0,139,139,127,1,fourthree,,,,,,,,,,,,,,,,,,,,,,,,,,,,,,,,,,,,,,,,,,,,,,,,,,,,,,,,,,,,,,,,,,,,,,,,,,,,,,,,,,,,,,,,,,,,,,,,,,,,,,,,,,,,,,,,,,,,,,,,,,,,,,,,,,,,,,,,,,,,,
,,,,,,614e155acfb658911e1b16f7,629c52334f6fa95b4ee90ef8,2022-06-05_08h53.42.531,Colour_Asymmetry_Pilot,2022.1.3,Win32,60.0060006,629c4b6caf241d5e6e00bfc0,0,140,140,78,1,fourtwo,,,,,,,,,,,,,,,,,,,,,,,,,,,,,,,,,,,,,,,,,,,,,,,,,,,,,,,,,,,,,,,,,,,,,,,,,,,,,,,,,,,,,,,,,,,,,,,,,,,,,,,,,,,,,,,,,,,,,,,,,,,,,,,,,,,,,,,,,,,,,
,,,,,,614e155acfb658911e1b16f7,629c52334f6fa95b4ee90ef8,2022-06-05_08h53.42.531,Colour_Asymmetry_Pilot,2022.1.3,Win32,60.0060006,629c4b6caf241d5e6e00bfc0,0,141,141,86,1,fourtwo,,,,,,,,,,,,,,,,,,,,,,,,,,,,,,,,,,,,,,,,,,,,,,,,,,,,,,,,,,,,,,,,,,,,,,,,,,,,,,,,,,,,,,,,,,,,,,,,,,,,,,,,,,,,,,,,,,,,,,,,,,,,,,,,,,,,,,,,,,,,,
,,,,,,614e155acfb658911e1b16f7,629c52334f6fa95b4ee90ef8,2022-06-05_08h53.42.531,Colour_Asymmetry_Pilot,2022.1.3,Win32,60.0060006,629c4b6caf241d5e6e00bfc0,0,142,142,139,1,twofour,,,,,,,,,,,,,,,,,,,,,,,,,,,,,,,,,,,,,,,,,,,,,,,,,,,,,,,,,,,,,,,,,,,,,,,,,,,,,,,,,,,,,,,,,,,,,,,,,,,,,,,,,,,,,,,,,,,,,,,,,,,,,,,,,,,,,,,,,,,,,
,,,,,,614e155acfb658911e1b16f7,629c52334f6fa95b4ee90ef8,2022-06-05_08h53.42.531,Colour_Asymmetry_Pilot,2022.1.3,Win32,60.0060006,629c4b6caf241d5e6e00bfc0,0,143,143,17,1,onethree,,,,,,,,,,,,,,,,,,,,,,,,,,,,,,,,,,,,,,,,,,,,,,,,,,,,,,,,,,,,,,,,,,,,,,,,,,,,,,,,,,,,,,,,,,,,,,,,,,,,,,,,,,,,,,,,,,,,,,,,,,,,,,,,,,,,,,,,,,,,,
,,,,,,614e155acfb658911e1b16f7,629c52334f6fa95b4ee90ef8,2022-06-05_08h53.42.531,Colour_Asymmetry_Pilot,2022.1.3,Win32,60.0060006,629c4b6caf241d5e6e00bfc0,0,144,144,104,1,onetwo,,,,,,,,,,,,,,,,,,,,,,,,,,,,,,,,,,,,,,,,,,,,,,,,,,,,,,,,,,,,,,,,,,,,,,,,,,,,,,,,,,,,,,,,,,,,,,,,,,,,,,,,,,,,,,,,,,,,,,,,,,,,,,,,,,,,,,,,,,,,,
,,,,,,614e155acfb658911e1b16f7,629c52334f6fa95b4ee90ef8,2022-06-05_08h53.42.531,Colour_Asymmetry_Pilot,2022.1.3,Win32,60.0060006,629c4b6caf241d5e6e00bfc0,0,145,145,29,1,threefour,,,,,,,,,,,,,,,,,,,,,,,,,,,,,,,,,,,,,,,,,,,,,,,,,,,,,,,,,,,,,,,,,,,,,,,,,,,,,,,,,,,,,,,,,,,,,,,,,,,,,,,,,,,,,,,,,,,,,,,,,,,,,,,,,,,,,,,,,,,,,
,,,,,,614e155acfb658911e1b16f7,629c52334f6fa95b4ee90ef8,2022-06-05_08h53.42.531,Colour_Asymmetry_Pilot,2022.1.3,Win32,60.0060006,629c4b6caf241d5e6e00bfc0,0,146,146,149,1,threefour,,,,,,,,,,,,,,,,,,,,,,,,,,,,,,,,,,,,,,,,,,,,,,,,,,,,,,,,,,,,,,,,,,,,,,,,,,,,,,,,,,,,,,,,,,,,,,,,,,,,,,,,,,,,,,,,,,,,,,,,,,,,,,,,,,,,,,,,,,,,,
,,,,,,614e155acfb658911e1b16f7,629c52334f6fa95b4ee90ef8,2022-06-05_08h53.42.531,Colour_Asymmetry_Pilot,2022.1.3,Win32,60.0060006,629c4b6caf241d5e6e00bfc0,0,147,147,123,1,twofour,,,,,,,,,,,,,,,,,,,,,,,,,,,,,,,,,,,,,,,,,,,,,,,,,,,,,,,,,,,,,,,,,,,,,,,,,,,,,,,,,,,,,,,,,,,,,,,,,,,,,,,,,,,,,,,,,,,,,,,,,,,,,,,,,,,,,,,,,,,,,
,,,,,,614e155acfb658911e1b16f7,629c52334f6fa95b4ee90ef8,2022-06-05_08h53.42.531,Colour_Asymmetry_Pilot,2022.1.3,Win32,60.0060006,629c4b6caf241d5e6e00bfc0,0,148,148,155,1,twofour,,,,,,,,,,,,,,,,,,,,,,,,,,,,,,,,,,,,,,,,,,,,,,,,,,,,,,,,,,,,,,,,,,,,,,,,,,,,,,,,,,,,,,,,,,,,,,,,,,,,,,,,,,,,,,,,,,,,,,,,,,,,,,,,,,,,,,,,,,,,,
,,,,,,614e155acfb658911e1b16f7,629c52334f6fa95b4ee90ef8,2022-06-05_08h53.42.531,Colour_Asymmetry_Pilot,2022.1.3,Win32,60.0060006,629c4b6caf241d5e6e00bfc0,0,149,149,111,1,fourthree,,,,,,,,,,,,,,,,,,,,,,,,,,,,,,,,,,,,,,,,,,,,,,,,,,,,,,,,,,,,,,,,,,,,,,,,,,,,,,,,,,,,,,,,,,,,,,,,,,,,,,,,,,,,,,,,,,,,,,,,,,,,,,,,,,,,,,,,,,,,,
,,,,,,614e155acfb658911e1b16f7,629c52334f6fa95b4ee90ef8,2022-06-05_08h53.42.531,Colour_Asymmetry_Pilot,2022.1.3,Win32,60.0060006,629c4b6caf241d5e6e00bfc0,0,150,150,62,1,fourtwo,,,,,,,,,,,,,,,,,,,,,,,,,,,,,,,,,,,,,,,,,,,,,,,,,,,,,,,,,,,,,,,,,,,,,,,,,,,,,,,,,,,,,,,,,,,,,,,,,,,,,,,,,,,,,,,,,,,,,,,,,,,,,,,,,,,,,,,,,,,,,
,,,,,,614e155acfb658911e1b16f7,629c52334f6fa95b4ee90ef8,2022-06-05_08h53.42.531,Colour_Asymmetry_Pilot,2022.1.3,Win32,60.0060006,629c4b6caf241d5e6e00bfc0,0,151,151,154,1,twoone,,,,,,,,,,,,,,,,,,,,,,,,,,,,,,,,,,,,,,,,,,,,,,,,,,,,,,,,,,,,,,,,,,,,,,,,,,,,,,,,,,,,,,,,,,,,,,,,,,,,,,,,,,,,,,,,,,,,,,,,,,,,,,,,,,,,,,,,,,,,,
,,,,,,614e155acfb658911e1b16f7,629c52334f6fa95b4ee90ef8,2022-06-05_08h53.42.531,Colour_Asymmetry_Pilot,2022.1.3,Win32,60.0060006,629c4b6caf241d5e6e00bfc0,0,152,152,88,1,onetwo,,,,,,,,,,,,,,,,,,,,,,,,,,,,,,,,,,,,,,,,,,,,,,,,,,,,,,,,,,,,,,,,,,,,,,,,,,,,,,,,,,,,,,,,,,,,,,,,,,,,,,,,,,,,,,,,,,,,,,,,,,,,,,,,,,,,,,,,,,,,,
,,,,,,614e155acfb658911e1b16f7,629c52334f6fa95b4ee90ef8,2022-06-05_08h53.42.531,Colour_Asymmetry_Pilot,2022.1.3,Win32,60.0060006,629c4b6caf241d5e6e00bfc0,0,153,153,100,1,threeone,,,,,,,,,,,,,,,,,,,,,,,,,,,,,,,,,,,,,,,,,,,,,,,,,,,,,,,,,,,,,,,,,,,,,,,,,,,,,,,,,,,,,,,,,,,,,,,,,,,,,,,,,,,,,,,,,,,,,,,,,,,,,,,,,,,,,,,,,,,,,
,,,,,,614e155acfb658911e1b16f7,629c52334f6fa95b4ee90ef8,2022-06-05_08h53.42.531,Colour_Asymmetry_Pilot,2022.1.3,Win32,60.0060006,629c4b6caf241d5e6e00bfc0,0,154,154,87,1,fourthree,,,,,,,,,,,,,,,,,,,,,,,,,,,,,,,,,,,,,,,,,,,,,,,,,,,,,,,,,,,,,,,,,,,,,,,,,,,,,,,,,,,,,,,,,,,,,,,,,,,,,,,,,,,,,,,,,,,,,,,,,,,,,,,,,,,,,,,,,,,,,
,,,,,,614e155acfb658911e1b16f7,629c52334f6fa95b4ee90ef8,2022-06-05_08h53.42.531,Colour_Asymmetry_Pilot,2022.1.3,Win32,60.0060006,629c4b6caf241d5e6e00bfc0,0,155,155,14,1,fourtwo,,,,,,,,,,,,,,,,,,,,,,,,,,,,,,,,,,,,,,,,,,,,,,,,,,,,,,,,,,,,,,,,,,,,,,,,,,,,,,,,,,,,,,,,,,,,,,,,,,,,,,,,,,,,,,,,,,,,,,,,,,,,,,,,,,,,,,,,,,,,,
,,,,,,614e155acfb658911e1b16f7,629c52334f6fa95b4ee90ef8,2022-06-05_08h53.42.531,Colour_Asymmetry_Pilot,2022.1.3,Win32,60.0060006,629c4b6caf241d5e6e00bfc0,0,156,156,130,1,twoone,,,,,,,,,,,,,,,,,,,,,,,,,,,,,,,,,,,,,,,,,,,,,,,,,,,,,,,,,,,,,,,,,,,,,,,,,,,,,,,,,,,,,,,,,,,,,,,,,,,,,,,,,,,,,,,,,,,,,,,,,,,,,,,,,,,,,,,,,,,,,
,,,,,,614e155acfb658911e1b16f7,629c52334f6fa95b4ee90ef8,2022-06-05_08h53.42.531,Colour_Asymmetry_Pilot,2022.1.3,Win32,60.0060006,629c4b6caf241d5e6e00bfc0,0,157,157,76,1,threeone,,,,,,,,,,,,,,,,,,,,,,,,,,,,,,,,,,,,,,,,,,,,,,,,,,,,,,,,,,,,,,,,,,,,,,,,,,,,,,,,,,,,,,,,,,,,,,,,,,,,,,,,,,,,,,,,,,,,,,,,,,,,,,,,,,,,,,,,,,,,,
,,,,,,614e155acfb658911e1b16f7,629c52334f6fa95b4ee90ef8,2022-06-05_08h53.42.531,Colour_Asymmetry_Pilot,2022.1.3,Win32,60.0060006,629c4b6caf241d5e6e00bfc0,0,158,158,135,1,fourthree,,,,,,,,,,,,,,,,,,,,,,,,,,,,,,,,,,,,,,,,,,,,,,,,,,,,,,,,,,,,,,,,,,,,,,,,,,,,,,,,,,,,,,,,,,,,,,,,,,,,,,,,,,,,,,,,,,,,,,,,,,,,,,,,,,,,,,,,,,,,,
,,,,,,614e155acfb658911e1b16f7,629c52334f6fa95b4ee90ef8,2022-06-05_08h53.42.531,Colour_Asymmetry_Pilot,2022.1.3,Win32,60.0060006,629c4b6caf241d5e6e00bfc0,0,159,159,134,1,fourtwo,,,,,,,,,,,,,,,,,,,,,,,,,,,,,,,,,,,,,,,,,,,,,,,,,,,,,,,,,,,,,,,,,,,,,,,,,,,,,,,,,,,,,,,,,,,,,,,,,,,,,,,,,,,,,,,,,,,,,,,,,,,,,,,,,,,,,,,,,,,,,
,,,,,,614e155acfb658911e1b16f7,629c52334f6fa95b4ee90ef8,2022-06-05_08h53.42.531,Colour_Asymmetry_Pilot,2022.1.3,Win32,60.0060006,629c4b6caf241d5e6e00bfc0,0,160,160,61,1,threefour,,,,,,,,,,,,,,,,,,,,,,,,,,,,,,,,,,,,,,,,,,,,,,,,,,,,,,,,,,,,,,,,,,,,,,,,,,,,,,,,,,,,,,,,,,,,,,,,,,,,,,,,,,,,,,,,,,,,,,,,,,,,,,,,,,,,,,,,,,,,,
,,,,,,614e155acfb658911e1b16f7,629c52334f6fa95b4ee90ef8,2022-06-05_08h53.42.531,Colour_Asymmetry_Pilot,2022.1.3,Win32,60.0060006,629c4b6caf241d5e6e00bfc0,0,161,161,89,1,onethree,,,,,,,,,,,,,,,,,,,,,,,,,,,,,,,,,,,,,,,,,,,,,,,,,,,,,,,,,,,,,,,,,,,,,,,,,,,,,,,,,,,,,,,,,,,,,,,,,,,,,,,,,,,,,,,,,,,,,,,,,,,,,,,,,,,,,,,,,,,,,
,,,,,,614e155acfb658911e1b16f7,629c52334f6fa95b4ee90ef8,2022-06-05_08h53.42.531,Colour_Asymmetry_Pilot,2022.1.3,Win32,60.0060006,629c4b6caf241d5e6e00bfc0,,,,,,,space,3.2598,space,30.2622,space,41.7951,space,12.3196,space,9.174,space,9.2538,"[0.5528,0.7409999999999999,-0.71]",threeone,"[-0.45899999999999996,-0.3256,-0.9374]",4,15.0232,36,90.3999939,1,0,0,response1disk_5,-4,4,1,0,0,rectangle_8,-4,4,1,0,0,4,-4,4,1,0,0,0,0,0,0,1,,,,,,,,,,,,,,,,,,,,,,,,,,,,,,,,,,,,,,,,,,,,,,,,,,,,,,,,,,,,,,,,,,,,,,,,,,,,,,,,,,,,,,,,,,,,,,,,
,,,,,,614e155acfb658911e1b16f7,629c52334f6fa95b4ee90ef8,2022-06-05_08h53.42.531,Colour_Asymmetry_Pilot,2022.1.3,Win32,60.0060006,629c4b6caf241d5e6e00bfc0,,,,,,,,,,,,,,,,,,,"[-0.2942,-0.24719999999999998,-0.357]",onetwo,"[0.9213999999999998,0.6391999999999998,-0.9922]",-4,2.8719,-80.79998779,107.1999817,1,0,0,response7disk_5,-1.599975586,4.799987793,1,0,0,rectangle_8,-1.599975586,4.799987793,1,0,0,4,-1.599975586,4.799987793,1,0,0,1,0,1,0,1,,,,,,,,,,,,,,,,,,,,,,,,,,,,,,,,,,,,,,,,,,,,,,,,,,,,,,,,,,,,,,,,,,,,,,,,,,,,,,,,,,,,,,,,,,,,,,,,
,,,,,,614e155acfb658911e1b16f7,629c52334f6fa95b4ee90ef8,2022-06-05_08h53.42.531,Colour_Asymmetry_Pilot,2022.1.3,Win32,60.0060006,629c4b6caf241d5e6e00bfc0,,,,,,,,,,,,,,,,,,,"[0.5449999999999999,-0.31000000000000005,-0.0354000000000001]",fourtwo,"[-0.9766,-0.6472,0.07440000000000002]",-4,1.8845,-38.39996338,108.7999878,1,0,0,response7disk_5,14.40002441,10.3999939,1,0,0,rectangle_8,50.40002441,98.3999939,1,0,0,4,-4.799987793,2.399993896,1,0,0,2,0,2,0,1,response1disk_7,7,rectangle_4,,,,,,,,,,,,,,,,,,,,,,,,,,,,,,,,,,,,,,,,,,,,,,,,,,,,,,,,,,,,,,,,,,,,,,,,,,,,,,,,,,,,,,,,,,,,,
,,,,,,614e155acfb658911e1b16f7,629c52334f6fa95b4ee90ef8,2022-06-05_08h53.42.531,Colour_Asymmetry_Pilot,2022.1.3,Win32,60.0060006,629c4b6caf241d5e6e00bfc0,,,,,,,,,,,,,,,,,,,"[0.0351999999999999,0.41159999999999997,0.0038000000000000256]",twofour,"[0.796,0.2156,-0.27859999999999996]",-4,1.1006,-34.39996338,81.6000061,1,0,0,response7disk_5,-4,0,1,0,0,rectangle_8,-4,0,1,0,0,4,-4,0,1,0,0,3,0,3,0,1,,,,,,,,,,,,,,,,,,,,,,,,,,,,,,,,,,,,,,,,,,,,,,,,,,,,,,,,,,,,,,,,,,,,,,,,,,,,,,,,,,,,,,,,,,,,,,,,
,,,,,,614e155acfb658911e1b16f7,629c52334f6fa95b4ee90ef8,2022-06-05_08h53.42.531,Colour_Asymmetry_Pilot,2022.1.3,Win32,60.0060006,629c4b6caf241d5e6e00bfc0,,,,,,,,,,,,,,,,,,,"[-0.34920000000000007,-0.702,-0.5216]",twofour,"[0.9372,0.9450000000000001,0.8980000000000001]",-4,1.0836,-40.79998779,85.6000061,1,0,0,response7disk_5,-2.399963379,3.199981689,1,0,0,rectangle_8,-2.399963379,3.199981689,1,0,0,4,-2.399963379,3.199981689,1,0,0,4,0,4,0,1,,,,,,,,,,,,,,,,,,,,,,,,,,,,,,,,,,,,,,,,,,,,,,,,,,,,,,,,,,,,,,,,,,,,,,,,,,,,,,,,,,,,,,,,,,,,,,,,
,,,,,,614e155acfb658911e1b16f7,629c52334f6fa95b4ee90ef8,2022-06-05_08h53.42.531,Colour_Asymmetry_Pilot,2022.1.3,Win32,60.0060006,629c4b6caf241d5e6e00bfc0,,,,,,,,,,,,,,,,,,,"[-0.0040000000000000036,0.02739999999999987,-0.08239999999999992]",fourtwo,"[0.18419999999999992,-0.4276,-0.404]",-4,4.1019,-56.79998779,76.79998779,1,0,0,response7disk_5,-19.20001221,-2.399993896,1,0,0,rectangle_8,46.40002441,88,1,0,0,4,6.400024414,-0.800018311,1,0,0,5,0,5,0,1,response1disk_7,7,rectangle_4,,,,,,,,,,,,,,,,,,,,,,,,,,,,,,,,,,,,,,,,,,,,,,,,,,,,,,,,,,,,,,,,,,,,,,,,,,,,,,,,,,,,,,,,,,,,,
,,,,,,614e155acfb658911e1b16f7,629c52334f6fa95b4ee90ef8,2022-06-05_08h53.42.531,Colour_Asymmetry_Pilot,2022.1.3,Win32,60.0060006,629c4b6caf241d5e6e00bfc0,,,,,,,,,,,,,,,,,,,"[-0.07459999999999989,0.12139999999999995,-0.9922]",threefour,"[-0.24719999999999998,0.5213999999999999,-0.12959999999999994]",4,1.7671,96.79998779,97.6000061,1,0,0,response1disk_5,12.79998779,-1.600006104,1,0,0,rectangle_8,12.79998779,-1.600006104,1,0,0,4,12.79998779,-1.600006104,1,0,0,6,0,6,0,1,,,,,,,,,,,,,,,,,,,,,,,,,,,,,,,,,,,,,,,,,,,,,,,,,,,,,,,,,,,,,,,,,,,,,,,,,,,,,,,,,,,,,,,,,,,,,,,,
,,,,,,614e155acfb658911e1b16f7,629c52334f6fa95b4ee90ef8,2022-06-05_08h53.42.531,Colour_Asymmetry_Pilot,2022.1.3,Win32,60.0060006,629c4b6caf241d5e6e00bfc0,,,,,,,,,,,,,,,,,,,,fourthree,,-4,1.2034,,,,,,,,,,,,,,,,,,,,,,,,,,,,,,,,space,11.5877,"[0.5528,0.7409999999999999,-0.71]","[-0.9766,-0.34920000000000007,0.2156]",-63.20001221,88,1,0,0,response7disk,-1.599975586,7.199981689,1,0,0,rectangle,-1.599975586,7.199981689,1,0,0,,3,0.0024,0,-1.599975586,7.199981689,1,0,0,0,0,0,69,1,69,first,,,,,,,,,,,,,,,,,,,,,,,,,,,,,,,,,,,,,,,,,,,,,,,,,,,,,,,,
,,,,,,614e155acfb658911e1b16f7,629c52334f6fa95b4ee90ef8,2022-06-05_08h53.42.531,Colour_Asymmetry_Pilot,2022.1.3,Win32,60.0060006,629c4b6caf241d5e6e00bfc0,,,,,,,,,,,,,,,,,,,,onethree,,3,0.684,,,,,,,,,,,,,,,,,,,,,,,,,,,,,,,,,,"[0.34099999999999997,0.5841999999999998,-0.9844]","[0.34099999999999997,0.5841999999999998,-0.9844]",108,94.3999939,1,0,0,response1disk,0.799987793,-4,1,0,0,rectangle,0.799987793,-4,1,0,0,,1,0.0011,0,0.799987793,-4,1,0,0,0,1,1,110,1,29,second,,,,,,,,,,,,,,,,,,,,,,,,,,,,,,,,,,,,,,,,,,,,,,,,,,,,,,,,
,,,,,,614e155acfb658911e1b16f7,629c52334f6fa95b4ee90ef8,2022-06-05_08h53.42.531,Colour_Asymmetry_Pilot,2022.1.3,Win32,60.0060006,629c4b6caf241d5e6e00bfc0,,,,,,,,,,,,,,,,,,,,fourtwo,,-4,1.0326,,,,,,,,,,,,,,,,,,,,,,,,,,,,,,,,,,"[-0.2942,-0.7648,-0.7492000000000001]","[-0.8198,-0.5138,-0.7492000000000001]",-64.79998779,73.6000061,1,0,0,response7disk,-19.20001221,-8,1,0,0,rectangle,-19.20001221,-8,1,0,0,,2,0.0013,0,-19.20001221,-8,1,0,0,0,2,2,113,1,32,second,,,,,,,,,,,,,,,,,,,,,,,,,,,,,,,,,,,,,,,,,,,,,,,,,,,,,,,,
,,,,,,614e155acfb658911e1b16f7,629c52334f6fa95b4ee90ef8,2022-06-05_08h53.42.531,Colour_Asymmetry_Pilot,2022.1.3,Win32,60.0060006,629c4b6caf241d5e6e00bfc0,,,,,,,,,,,,,,,,,,,,threeone,,-4,0.8424,,,,,,,,,,,,,,,,,,,,,,,,,,,,,,,,,,"[0.05879999999999996,0.2784,0.5841999999999998]","[-0.9138,-0.5296000000000001,-0.5529999999999999]",-67.20001221,96,1,0,0,response7disk,-1.599975586,-5.600006104,1,0,0,rectangle,-1.599975586,-5.600006104,1,0,0,,2,0.0003,0,-1.599975586,-5.600006104,1,0,0,0,3,3,143,1,62,second,,,,,,,,,,,,,,,,,,,,,,,,,,,,,,,,,,,,,,,,,,,,,,,,,,,,,,,,
,,,,,,614e155acfb658911e1b16f7,629c52334f6fa95b4ee90ef8,2022-06-05_08h53.42.531,Colour_Asymmetry_Pilot,2022.1.3,Win32,60.0060006,629c4b6caf241d5e6e00bfc0,,,,,,,,,,,,,,,,,,,,twofour,,-4,0.9682,,,,,,,,,,,,,,,,,,,,,,,,,,,,,,,,,,"[0.9372,0.20779999999999998,0.2704]","[-0.4746,-0.0354000000000001,0.5449999999999999]",-44.79998779,107.1999817,1,0,0,response7disk,13.60003662,-5.600006104,1,0,0,rectangle,13.60003662,-5.600006104,1,0,0,,2,0.0005,0,13.60003662,-5.600006104,1,0,0,0,4,4,115,1,34,second,,,,,,,,,,,,,,,,,,,,,,,,,,,,,,,,,,,,,,,,,,,,,,,,,,,,,,,,
,,,,,,614e155acfb658911e1b16f7,629c52334f6fa95b4ee90ef8,2022-06-05_08h53.42.531,Colour_Asymmetry_Pilot,2022.1.3,Win32,60.0060006,629c4b6caf241d5e6e00bfc0,,,,,,,,,,,,,,,,,,,,twoone,,-4,0.7751,,,,,,,,,,,,,,,,,,,,,,,,,,,,,,,,,,"[0.23120000000000007,-0.7726,-0.34120000000000006]","[-0.06680000000000008,-0.45100000000000007,-0.906]",-41.59997559,79.19998169,1,0,0,response7disk,-3.200012207,0.799987793,1,0,0,rectangle,-3.200012207,0.799987793,1,0,0,,2,0.0006,0,-3.200012207,0.799987793,1,0,0,0,5,5,127,1,46,second,,,,,,,,,,,,,,,,,,,,,,,,,,,,,,,,,,,,,,,,,,,,,,,,,,,,,,,,
,,,,,,614e155acfb658911e1b16f7,629c52334f6fa95b4ee90ef8,2022-06-05_08h53.42.531,Colour_Asymmetry_Pilot,2022.1.3,Win32,60.0060006,629c4b6caf241d5e6e00bfc0,,,,,,,,,,,,,,,,,,,,fourtwo,,-4,2.1182,,,,,,,,,,,,,,,,,,,,,,,,,,,,,,,,,,"[0.4196,0.4665999999999999,0.3568]","[0.5528,0.7409999999999999,-0.71]",-37.59997559,82.3999939,1,0,0,response7disk,-1.599975586,2.399993896,1,0,0,rectangle,-1.599975586,2.399993896,1,0,0,,1,0.001,0,-1.599975586,2.399993896,1,0,0,0,6,6,6,1,6,first,,,,,,,,,,,,,,,,,,,,,,,,,,,,,,,,,,,,,,,,,,,,,,,,,,,,,,,,
,,,,,,614e155acfb658911e1b16f7,629c52334f6fa95b4ee90ef8,2022-06-05_08h53.42.531,Colour_Asymmetry_Pilot,2022.1.3,Win32,60.0060006,629c4b6caf241d5e6e00bfc0,,,,,,,,,,,,,,,,,,,,twoone,,-4,0.7103,,,,,,,,,,,,,,,,,,,,,,,,,,,,,,,,,,"[-0.4902000000000001,0.2704,-0.45899999999999996]","[-0.4746,-0.0354000000000001,0.5449999999999999]",-44,108,1,0,0,response7disk,21.60003662,4,1,0,0,rectangle,21.60003662,4,1,0,0,,1,0.0001,0,21.60003662,4,1,0,0,0,7,7,101,1,20,second,,,,,,,,,,,,,,,,,,,,,,,,,,,,,,,,,,,,,,,,,,,,,,,,,,,,,,,,
,,,,,,614e155acfb658911e1b16f7,629c52334f6fa95b4ee90ef8,2022-06-05_08h53.42.531,Colour_Asymmetry_Pilot,2022.1.3,Win32,60.0060006,629c4b6caf241d5e6e00bfc0,,,,,,,,,,,,,,,,,,,,twoone,,-4,0.9267,,,,,,,,,,,,,,,,,,,,,,,,,,,,,,,,,,"[-0.06680000000000008,-0.45100000000000007,-0.906]","[-0.8118,-0.8198,-0.5452]",-46.39996338,84.79998779,1,0,0,response7disk,-15.20001221,-4.800018311,1,0,0,rectangle,-15.20001221,-4.800018311,1,0,0,,1,0.0005,0,-15.20001221,-4.800018311,1,0,0,0,8,8,154,1,73,second,,,,,,,,,,,,,,,,,,,,,,,,,,,,,,,,,,,,,,,,,,,,,,,,,,,,,,,,
,,,,,,614e155acfb658911e1b16f7,629c52334f6fa95b4ee90ef8,2022-06-05_08h53.42.531,Colour_Asymmetry_Pilot,2022.1.3,Win32,60.0060006,629c4b6caf241d5e6e00bfc0,,,,,,,,,,,,,,,,,,,,fourthree,,4,1.3338,,,,,,,,,,,,,,,,,,,,,,,,,,,,,,,,,,"[0.04299999999999993,0.16060000000000008,-0.6628000000000001]","[0.9763999999999999,0.30979999999999985,-0.6786]",40.79998779,99.19998169,1,0,0,response1disk,1.600036621,-5.600006104,1,0,0,rectangle,1.600036621,-5.600006104,1,0,0,,3,0.0011,0,1.600036621,-5.600006104,1,0,0,0,9,9,135,1,54,second,,,,,,,,,,,,,,,,,,,,,,,,,,,,,,,,,,,,,,,,,,,,,,,,,,,,,,,,
,,,,,,614e155acfb658911e1b16f7,629c52334f6fa95b4ee90ef8,2022-06-05_08h53.42.531,Colour_Asymmetry_Pilot,2022.1.3,Win32,60.0060006,629c4b6caf241d5e6e00bfc0,,,,,,,,,,,,,,,,,,,,onetwo,,-4,0.7439,,,,,,,,,,,,,,,,,,,,,,,,,,,,,,,,,,"[0.7802,-0.23140000000000005,-0.20799999999999996]","[-0.8198,-0.5138,-0.7492000000000001]",-40,80.79998779,1,0,0,response7disk,-19.20001221,4.799987793,1,0,0,rectangle,-19.20001221,4.799987793,1,0,0,,3,0.0004,0,-19.20001221,4.799987793,1,0,0,0,10,10,70,1,70,first,,,,,,,,,,,,,,,,,,,,,,,,,,,,,,,,,,,,,,,,,,,,,,,,,,,,,,,,
,,,,,,614e155acfb658911e1b16f7,629c52334f6fa95b4ee90ef8,2022-06-05_08h53.42.531,Colour_Asymmetry_Pilot,2022.1.3,Win32,60.0060006,629c4b6caf241d5e6e00bfc0,,,,,,,,,,,,,,,,,,,,threeone,,4,0.7066,,,,,,,,,,,,,,,,,,,,,,,,,,,,,,,,,,"[-0.09019999999999995,0.44300000000000006,0.5371999999999999]","[0.11359999999999992,0.6312,0.5213999999999999]",53.60003662,92,1,0,0,response1disk,17.60003662,-4.800018311,1,0,0,rectangle,17.60003662,-4.800018311,1,0,0,,1,0.0012,0,17.60003662,-4.800018311,1,0,0,0,11,11,77,1,77,first,,,,,,,,,,,,,,,,,,,,,,,,,,,,,,,,,,,,,,,,,,,,,,,,,,,,,,,,
,,,,,,614e155acfb658911e1b16f7,629c52334f6fa95b4ee90ef8,2022-06-05_08h53.42.531,Colour_Asymmetry_Pilot,2022.1.3,Win32,60.0060006,629c4b6caf241d5e6e00bfc0,,,,,,,,,,,,,,,,,,,,threeone,,-4,1.0169,,,,,,,,,,,,,,,,,,,,,,,,,,,,,,,,,,"[-0.48240000000000005,0.3175999999999999,0.2156]","[-0.8198,-0.5138,-0.7492000000000001]",-36.79998779,75.19998169,1,0,0,response7disk,-23.20001221,1.600006104,1,0,0,rectangle,-23.20001221,1.600006104,1,0,0,,1,0.0007,0,-23.20001221,1.600006104,1,0,0,0,12,12,92,1,11,second,,,,,,,,,,,,,,,,,,,,,,,,,,,,,,,,,,,,,,,,,,,,,,,,,,,,,,,,
,,,,,,614e155acfb658911e1b16f7,629c52334f6fa95b4ee90ef8,2022-06-05_08h53.42.531,Colour_Asymmetry_Pilot,2022.1.3,Win32,60.0060006,629c4b6caf241d5e6e00bfc0,,,,,,,,,,,,,,,,,,,,twoone,,-4,0.7913,,,,,,,,,,,,,,,,,,,,,,,,,,,,,,,,,,"[0.12939999999999996,-0.2864,0.3253999999999999]","[-0.9688,-0.7412000000000001,-0.4902000000000001]",-40.79998779,92,1,0,0,response7disk,-12.79998779,-2.399993896,1,0,0,rectangle,-12.79998779,-2.399993896,1,0,0,,2,0.0035,0,-12.79998779,-2.399993896,1,0,0,0,13,13,16,1,16,first,,,,,,,,,,,,,,,,,,,,,,,,,,,,,,,,,,,,,,,,,,,,,,,,,,,,,,,,
,,,,,,614e155acfb658911e1b16f7,629c52334f6fa95b4ee90ef8,2022-06-05_08h53.42.531,Colour_Asymmetry_Pilot,2022.1.3,Win32,60.0060006,629c4b6caf241d5e6e00bfc0,,,,,,,,,,,,,,,,,,,,threefour,,4,0.8671,,,,,,,,,,,,,,,,,,,,,,,,,,,,,,,,,,"[0.9763999999999999,0.8588,-0.05900000000000005]","[0.9763999999999999,0.8588,-0.05900000000000005]",57.60003662,81.6000061,1,0,0,response1disk,16.79998779,-9.600006104,1,0,0,rectangle,16.79998779,-9.600006104,1,0,0,,1,0.0012,0,16.79998779,-9.600006104,1,0,0,0,14,14,21,1,21,first,,,,,,,,,,,,,,,,,,,,,,,,,,,,,,,,,,,,,,,,,,,,,,,,,,,,,,,,
,,,,,,614e155acfb658911e1b16f7,629c52334f6fa95b4ee90ef8,2022-06-05_08h53.42.531,Colour_Asymmetry_Pilot,2022.1.3,Win32,60.0060006,629c4b6caf241d5e6e00bfc0,,,,,,,,,,,,,,,,,,,,onethree,,4,0.7258,,,,,,,,,,,,,,,,,,,,,,,,,,,,,,,,,,"[-0.38039999999999996,-0.4276,-0.1452]","[-0.9688,-0.4902000000000001,-0.12159999999999993]",42.40002441,99.19998169,1,0,0,response1disk,-19.20001221,4.799987793,1,0,0,rectangle,-19.20001221,4.799987793,1,0,0,,3,0.001,0,-19.20001221,4.799987793,1,0,0,0,15,15,94,1,13,second,,,,,,,,,,,,,,,,,,,,,,,,,,,,,,,,,,,,,,,,,,,,,,,,,,,,,,,,
,,,,,,614e155acfb658911e1b16f7,629c52334f6fa95b4ee90ef8,2022-06-05_08h53.42.531,Colour_Asymmetry_Pilot,2022.1.3,Win32,60.0060006,629c4b6caf241d5e6e00bfc0,,,,,,,,,,,,,,,,,,,,onethree,,-4,0.8104,,,,,,,,,,,,,,,,,,,,,,,,,,,,,,,,,,"[-0.26280000000000003,-0.4746,-0.2158]","[-0.6942,-0.7648,-0.12959999999999994]",-51.20001221,80.79998779,1,0,0,response7disk,-5.599975586,-10.3999939,1,0,0,rectangle,-5.599975586,-10.3999939,1,0,0,,1,0.001,0,-5.599975586,-10.3999939,1,0,0,0,16,16,156,1,75,second,,,,,,,,,,,,,,,,,,,,,,,,,,,,,,,,,,,,,,,,,,,,,,,,,,,,,,,,
,,,,,,614e155acfb658911e1b16f7,629c52334f6fa95b4ee90ef8,2022-06-05_08h53.42.531,Colour_Asymmetry_Pilot,2022.1.3,Win32,60.0060006,629c4b6caf241d5e6e00bfc0,,,,,,,,,,,,,,,,,,,,threefour,,-4,1.5355,,,,,,,,,,,,,,,,,,,,,,,,,,,,,,,,,,"[0.7018,0.7176,0.6155999999999999]","[-0.2942,-0.7648,-0.7492000000000001]",-54.39996338,92,1,0,0,response7disk,-12.79998779,7.199981689,1,0,0,rectangle,-12.79998779,7.199981689,1,0,0,,3,0.0008,0,-12.79998779,7.199981689,1,0,0,0,17,17,88,1,7,second,,,,,,,,,,,,,,,,,,,,,,,,,,,,,,,,,,,,,,,,,,,,,,,,,,,,,,,,
,,,,,,614e155acfb658911e1b16f7,629c52334f6fa95b4ee90ef8,2022-06-05_08h53.42.531,Colour_Asymmetry_Pilot,2022.1.3,Win32,60.0060006,629c4b6caf241d5e6e00bfc0,,,,,,,,,,,,,,,,,,,,onethree,,-4,1.0513,,,,,,,,,,,,,,,,,,,,,,,,,,,,,,,,,,"[0.4196,0.4665999999999999,0.3568]","[-0.050999999999999934,-0.6706000000000001,-0.804]",-44,72.79998779,1,0,0,response7disk,-12.79998779,1.600006104,1,0,0,rectangle,-12.79998779,1.600006104,1,0,0,,3,0.0003,0,-12.79998779,1.600006104,1,0,0,0,18,18,118,1,37,second,,,,,,,,,,,,,,,,,,,,,,,,,,,,,,,,,,,,,,,,,,,,,,,,,,,,,,,,
,,,,,,614e155acfb658911e1b16f7,629c52334f6fa95b4ee90ef8,2022-06-05_08h53.42.531,Colour_Asymmetry_Pilot,2022.1.3,Win32,60.0060006,629c4b6caf241d5e6e00bfc0,,,,,,,,,,,,,,,,,,,,onethree,,-4,0.9011,,,,,,,,,,,,,,,,,,,,,,,,,,,,,,,,,,"[-0.9216,-0.5529999999999999,-0.3962]","[-0.0040000000000000036,0.02739999999999987,-0.08239999999999992]",-40,70.3999939,1,0,0,response7disk,4,-5.600006104,1,0,0,rectangle,4,-5.600006104,1,0,0,,2,0.0011,0,4,-5.600006104,1,0,0,0,19,19,2,1,2,first,,,,,,,,,,,,,,,,,,,,,,,,,,,,,,,,,,,,,,,,,,,,,,,,,,,,,,,,
,,,,,,614e155acfb658911e1b16f7,629c52334f6fa95b4ee90ef8,2022-06-05_08h53.42.531,Colour_Asymmetry_Pilot,2022.1.3,Win32,60.0060006,629c4b6caf241d5e6e00bfc0,,,,,,,,,,,,,,,,,,,,onetwo,,-4,0.8652,,,,,,,,,,,,,,,,,,,,,,,,,,,,,,,,,,"[0.23120000000000007,-0.7726,-0.34120000000000006]","[-0.9296,-0.12959999999999994,-0.043199999999999905]",-48,88,1,0,0,response7disk,-6.399963379,6.399993896,1,0,0,rectangle,-6.399963379,6.399993896,1,0,0,,2,0.0003,0,-6.399963379,6.399993896,1,0,0,0,20,20,106,1,25,second,,,,,,,,,,,,,,,,,,,,,,,,,,,,,,,,,,,,,,,,,,,,,,,,,,,,,,,,
,,,,,,614e155acfb658911e1b16f7,629c52334f6fa95b4ee90ef8,2022-06-05_08h53.42.531,Colour_Asymmetry_Pilot,2022.1.3,Win32,60.0060006,629c4b6caf241d5e6e00bfc0,,,,,,,,,,,,,,,,,,,,twofour,,-4,0.9093,,,,,,,,,,,,,,,,,,,,,,,,,,,,,,,,,,"[-0.4276,0.0038000000000000256,-0.3256]","[-0.24719999999999998,-0.0354000000000001,0.3175999999999999]",-61.59997559,76.79998779,1,0,0,response7disk,8,1.600006104,1,0,0,rectangle,8,1.600006104,1,0,0,,3,0.0016,0,8,1.600006104,1,0,0,0,21,21,27,1,27,first,,,,,,,,,,,,,,,,,,,,,,,,,,,,,,,,,,,,,,,,,,,,,,,,,,,,,,,,
,,,,,,614e155acfb658911e1b16f7,629c52334f6fa95b4ee90ef8,2022-06-05_08h53.42.531,Colour_Asymmetry_Pilot,2022.1.3,Win32,60.0060006,629c4b6caf241d5e6e00bfc0,,,,,,,,,,,,,,,,,,,,fourtwo,,-4,0.7496,,,,,,,,,,,,,,,,,,,,,,,,,,,,,,,,,,"[-0.06680000000000008,-0.45100000000000007,-0.906]","[0.23120000000000007,-0.7726,-0.34120000000000006]",-44.79998779,79.19998169,1,0,0,response7disk,-16.79998779,3.199981689,1,0,0,rectangle,-16.79998779,3.199981689,1,0,0,,3,0.0003,0,-16.79998779,3.199981689,1,0,0,0,22,22,46,1,46,first,,,,,,,,,,,,,,,,,,,,,,,,,,,,,,,,,,,,,,,,,,,,,,,,,,,,,,,,
,,,,,,614e155acfb658911e1b16f7,629c52334f6fa95b4ee90ef8,2022-06-05_08h53.42.531,Colour_Asymmetry_Pilot,2022.1.3,Win32,60.0060006,629c4b6caf241d5e6e00bfc0,,,,,,,,,,,,,,,,,,,,twofour,,4,0.8259,,,,,,,,,,,,,,,,,,,,,,,,,,,,,,,,,,"[-0.06680000000000008,-0.45100000000000007,-0.906]","[0.9686000000000001,0.3802000000000001,0.19999999999999996]",64.79998779,88,1,0,0,response1disk,18.40002441,4,1,0,0,rectangle,18.40002441,4,1,0,0,,3,0.0007,0,18.40002441,4,1,0,0,0,23,23,144,1,63,second,,,,,,,,,,,,,,,,,,,,,,,,,,,,,,,,,,,,,,,,,,,,,,,,,,,,,,,,
