trials.thisRepN,trials.thisTrialN,trials.thisN,trials.thisIndex,trials.ran,Colourcodes,participant,session,date,expName,psychopyVersion,OS,frameRate,study_id,trials_4.thisRepN,trials_4.thisTrialN,trials_4.thisN,trials_4.thisIndex,trials_4.ran,StimulusPos,key_resp.keys,key_resp.rt,key_resp_2.keys,key_resp_2.rt,key_resp_15.keys,key_resp_15.rt,key_resp_17.keys,key_resp_17.rt,key_resp_9.keys,key_resp_9.rt,key_resp_10.keys,key_resp_10.rt,Circle1_col,Ecc,Circle2_col,similarity,response_time,mouse_5.x,mouse_5.y,mouse_5.leftButton,mouse_5.midButton,mouse_5.rightButton,mouse_5.clicked_name,mouse_10.x,mouse_10.y,mouse_10.leftButton,mouse_10.midButton,mouse_10.rightButton,mouse_10.clicked_name,mouse_7.x,mouse_7.y,mouse_7.leftButton,mouse_7.midButton,mouse_7.rightButton,catchnumberprac,mouse_6.x,mouse_6.y,mouse_6.leftButton,mouse_6.midButton,mouse_6.rightButton,duringprac.thisRepN,duringprac.thisTrialN,duringprac.thisN,duringprac.thisIndex,duringprac.ran,mouse_7.clicked_name,catchprac,mouse_6.clicked_name,key_resp_22.keys,key_resp_22.rt,Circle1_colour,Circle2_colour,mouse.x,mouse.y,mouse.leftButton,mouse.midButton,mouse.rightButton,mouse.clicked_name,mouse_2.x,mouse_2.y,mouse_2.leftButton,mouse_2.midButton,mouse_2.rightButton,mouse_2.clicked_name,mouse_3.x,mouse_3.y,mouse_3.leftButton,mouse_3.midButton,mouse_3.rightButton,catchresponse,catchnumber,response_time_catch,Catch,mouse_11.x,mouse_11.y,mouse_11.leftButton,mouse_11.midButton,mouse_11.rightButton,trials_2.thisRepN,trials_2.thisTrialN,trials_2.thisN,trials_2.thisIndex,trials_2.ran,Colourpair,Temporder,mouse_3.clicked_name,mouse_11.clicked_name,trials_3.thisRepN,trials_3.thisTrialN,trials_3.thisN,trials_3.thisIndex,trials_3.ran,textbox.text,mouse_4.x,mouse_4.y,mouse_4.leftButton,mouse_4.midButton,mouse_4.rightButton,mouse_4.clicked_name,textbox_2.text,mouse_8.x,mouse_8.y,mouse_8.leftButton,mouse_8.midButton,mouse_8.rightButton,mouse_8.clicked_name,textbox_3.text,mouse_9.x,mouse_9.y,mouse_9.leftButton,mouse_9.midButton,mouse_9.rightButton,mouse_9.clicked_name,textbox_4.text,mouse_12.x,mouse_12.y,mouse_12.leftButton,mouse_12.midButton,mouse_12.rightButton,mouse_12.clicked_name,textbox_5.text,mouse_13.x,mouse_13.y,mouse_13.leftButton,mouse_13.midButton,mouse_13.rightButton,mouse_13.clicked_name,textbox_6.text,mouse_14.x,mouse_14.y,mouse_14.leftButton,mouse_14.midButton,mouse_14.rightButton,mouse_14.clicked_name,textbox_7.text,mouse_15.x,mouse_15.y,mouse_15.leftButton,mouse_15.midButton,mouse_15.rightButton,mouse_15.clicked_name
0,0,0,20,1,,5f06eefaf3fc742667b4e79d,629c6d10a3993586849c3790,2022-06-05_10h48.40.513,Colour_Asymmetry_Pilot,2022.1.3,Win32,37.515006,629c4b6caf241d5e6e00bfc0,,,,,,,,,,,,,,,,,,,,,,,,,,,,,,,,,,,,,,,,,,,,,,,,,,,,,,,,,,,,,,,,,,,,,,,,,,,,,,,,,,,,,,,,,,,,,,,,,,,,,,,,,,,,,,,,,,,,,,,,,,,,,,,,,,,,,,,,,,,,,,,,,,,
0,1,1,8,1,,5f06eefaf3fc742667b4e79d,629c6d10a3993586849c3790,2022-06-05_10h48.40.513,Colour_Asymmetry_Pilot,2022.1.3,Win32,37.515006,629c4b6caf241d5e6e00bfc0,,,,,,,,,,,,,,,,,,,,,,,,,,,,,,,,,,,,,,,,,,,,,,,,,,,,,,,,,,,,,,,,,,,,,,,,,,,,,,,,,,,,,,,,,,,,,,,,,,,,,,,,,,,,,,,,,,,,,,,,,,,,,,,,,,,,,,,,,,,,,,,,,,,
0,2,2,59,1,,5f06eefaf3fc742667b4e79d,629c6d10a3993586849c3790,2022-06-05_10h48.40.513,Colour_Asymmetry_Pilot,2022.1.3,Win32,37.515006,629c4b6caf241d5e6e00bfc0,,,,,,,,,,,,,,,,,,,,,,,,,,,,,,,,,,,,,,,,,,,,,,,,,,,,,,,,,,,,,,,,,,,,,,,,,,,,,,,,,,,,,,,,,,,,,,,,,,,,,,,,,,,,,,,,,,,,,,,,,,,,,,,,,,,,,,,,,,,,,,,,,,,
0,3,3,75,1,,5f06eefaf3fc742667b4e79d,629c6d10a3993586849c3790,2022-06-05_10h48.40.513,Colour_Asymmetry_Pilot,2022.1.3,Win32,37.515006,629c4b6caf241d5e6e00bfc0,,,,,,,,,,,,,,,,,,,,,,,,,,,,,,,,,,,,,,,,,,,,,,,,,,,,,,,,,,,,,,,,,,,,,,,,,,,,,,,,,,,,,,,,,,,,,,,,,,,,,,,,,,,,,,,,,,,,,,,,,,,,,,,,,,,,,,,,,,,,,,,,,,,
0,4,4,15,1,,5f06eefaf3fc742667b4e79d,629c6d10a3993586849c3790,2022-06-05_10h48.40.513,Colour_Asymmetry_Pilot,2022.1.3,Win32,37.515006,629c4b6caf241d5e6e00bfc0,,,,,,,,,,,,,,,,,,,,,,,,,,,,,,,,,,,,,,,,,,,,,,,,,,,,,,,,,,,,,,,,,,,,,,,,,,,,,,,,,,,,,,,,,,,,,,,,,,,,,,,,,,,,,,,,,,,,,,,,,,,,,,,,,,,,,,,,,,,,,,,,,,,
0,5,5,30,1,,5f06eefaf3fc742667b4e79d,629c6d10a3993586849c3790,2022-06-05_10h48.40.513,Colour_Asymmetry_Pilot,2022.1.3,Win32,37.515006,629c4b6caf241d5e6e00bfc0,,,,,,,,,,,,,,,,,,,,,,,,,,,,,,,,,,,,,,,,,,,,,,,,,,,,,,,,,,,,,,,,,,,,,,,,,,,,,,,,,,,,,,,,,,,,,,,,,,,,,,,,,,,,,,,,,,,,,,,,,,,,,,,,,,,,,,,,,,,,,,,,,,,
0,6,6,0,1,,5f06eefaf3fc742667b4e79d,629c6d10a3993586849c3790,2022-06-05_10h48.40.513,Colour_Asymmetry_Pilot,2022.1.3,Win32,37.515006,629c4b6caf241d5e6e00bfc0,,,,,,,,,,,,,,,,,,,,,,,,,,,,,,,,,,,,,,,,,,,,,,,,,,,,,,,,,,,,,,,,,,,,,,,,,,,,,,,,,,,,,,,,,,,,,,,,,,,,,,,,,,,,,,,,,,,,,,,,,,,,,,,,,,,,,,,,,,,,,,,,,,,
0,7,7,48,1,,5f06eefaf3fc742667b4e79d,629c6d10a3993586849c3790,2022-06-05_10h48.40.513,Colour_Asymmetry_Pilot,2022.1.3,Win32,37.515006,629c4b6caf241d5e6e00bfc0,,,,,,,,,,,,,,,,,,,,,,,,,,,,,,,,,,,,,,,,,,,,,,,,,,,,,,,,,,,,,,,,,,,,,,,,,,,,,,,,,,,,,,,,,,,,,,,,,,,,,,,,,,,,,,,,,,,,,,,,,,,,,,,,,,,,,,,,,,,,,,,,,,,
0,8,8,52,1,,5f06eefaf3fc742667b4e79d,629c6d10a3993586849c3790,2022-06-05_10h48.40.513,Colour_Asymmetry_Pilot,2022.1.3,Win32,37.515006,629c4b6caf241d5e6e00bfc0,,,,,,,,,,,,,,,,,,,,,,,,,,,,,,,,,,,,,,,,,,,,,,,,,,,,,,,,,,,,,,,,,,,,,,,,,,,,,,,,,,,,,,,,,,,,,,,,,,,,,,,,,,,,,,,,,,,,,,,,,,,,,,,,,,,,,,,,,,,,,,,,,,,
0,9,9,27,1,,5f06eefaf3fc742667b4e79d,629c6d10a3993586849c3790,2022-06-05_10h48.40.513,Colour_Asymmetry_Pilot,2022.1.3,Win32,37.515006,629c4b6caf241d5e6e00bfc0,,,,,,,,,,,,,,,,,,,,,,,,,,,,,,,,,,,,,,,,,,,,,,,,,,,,,,,,,,,,,,,,,,,,,,,,,,,,,,,,,,,,,,,,,,,,,,,,,,,,,,,,,,,,,,,,,,,,,,,,,,,,,,,,,,,,,,,,,,,,,,,,,,,
0,10,10,47,1,,5f06eefaf3fc742667b4e79d,629c6d10a3993586849c3790,2022-06-05_10h48.40.513,Colour_Asymmetry_Pilot,2022.1.3,Win32,37.515006,629c4b6caf241d5e6e00bfc0,,,,,,,,,,,,,,,,,,,,,,,,,,,,,,,,,,,,,,,,,,,,,,,,,,,,,,,,,,,,,,,,,,,,,,,,,,,,,,,,,,,,,,,,,,,,,,,,,,,,,,,,,,,,,,,,,,,,,,,,,,,,,,,,,,,,,,,,,,,,,,,,,,,
0,11,11,65,1,,5f06eefaf3fc742667b4e79d,629c6d10a3993586849c3790,2022-06-05_10h48.40.513,Colour_Asymmetry_Pilot,2022.1.3,Win32,37.515006,629c4b6caf241d5e6e00bfc0,,,,,,,,,,,,,,,,,,,,,,,,,,,,,,,,,,,,,,,,,,,,,,,,,,,,,,,,,,,,,,,,,,,,,,,,,,,,,,,,,,,,,,,,,,,,,,,,,,,,,,,,,,,,,,,,,,,,,,,,,,,,,,,,,,,,,,,,,,,,,,,,,,,
0,12,12,58,1,,5f06eefaf3fc742667b4e79d,629c6d10a3993586849c3790,2022-06-05_10h48.40.513,Colour_Asymmetry_Pilot,2022.1.3,Win32,37.515006,629c4b6caf241d5e6e00bfc0,,,,,,,,,,,,,,,,,,,,,,,,,,,,,,,,,,,,,,,,,,,,,,,,,,,,,,,,,,,,,,,,,,,,,,,,,,,,,,,,,,,,,,,,,,,,,,,,,,,,,,,,,,,,,,,,,,,,,,,,,,,,,,,,,,,,,,,,,,,,,,,,,,,
0,13,13,12,1,,5f06eefaf3fc742667b4e79d,629c6d10a3993586849c3790,2022-06-05_10h48.40.513,Colour_Asymmetry_Pilot,2022.1.3,Win32,37.515006,629c4b6caf241d5e6e00bfc0,,,,,,,,,,,,,,,,,,,,,,,,,,,,,,,,,,,,,,,,,,,,,,,,,,,,,,,,,,,,,,,,,,,,,,,,,,,,,,,,,,,,,,,,,,,,,,,,,,,,,,,,,,,,,,,,,,,,,,,,,,,,,,,,,,,,,,,,,,,,,,,,,,,
0,14,14,11,1,,5f06eefaf3fc742667b4e79d,629c6d10a3993586849c3790,2022-06-05_10h48.40.513,Colour_Asymmetry_Pilot,2022.1.3,Win32,37.515006,629c4b6caf241d5e6e00bfc0,,,,,,,,,,,,,,,,,,,,,,,,,,,,,,,,,,,,,,,,,,,,,,,,,,,,,,,,,,,,,,,,,,,,,,,,,,,,,,,,,,,,,,,,,,,,,,,,,,,,,,,,,,,,,,,,,,,,,,,,,,,,,,,,,,,,,,,,,,,,,,,,,,,
0,15,15,21,1,,5f06eefaf3fc742667b4e79d,629c6d10a3993586849c3790,2022-06-05_10h48.40.513,Colour_Asymmetry_Pilot,2022.1.3,Win32,37.515006,629c4b6caf241d5e6e00bfc0,,,,,,,,,,,,,,,,,,,,,,,,,,,,,,,,,,,,,,,,,,,,,,,,,,,,,,,,,,,,,,,,,,,,,,,,,,,,,,,,,,,,,,,,,,,,,,,,,,,,,,,,,,,,,,,,,,,,,,,,,,,,,,,,,,,,,,,,,,,,,,,,,,,
0,16,16,91,1,,5f06eefaf3fc742667b4e79d,629c6d10a3993586849c3790,2022-06-05_10h48.40.513,Colour_Asymmetry_Pilot,2022.1.3,Win32,37.515006,629c4b6caf241d5e6e00bfc0,,,,,,,,,,,,,,,,,,,,,,,,,,,,,,,,,,,,,,,,,,,,,,,,,,,,,,,,,,,,,,,,,,,,,,,,,,,,,,,,,,,,,,,,,,,,,,,,,,,,,,,,,,,,,,,,,,,,,,,,,,,,,,,,,,,,,,,,,,,,,,,,,,,
0,17,17,89,1,,5f06eefaf3fc742667b4e79d,629c6d10a3993586849c3790,2022-06-05_10h48.40.513,Colour_Asymmetry_Pilot,2022.1.3,Win32,37.515006,629c4b6caf241d5e6e00bfc0,,,,,,,,,,,,,,,,,,,,,,,,,,,,,,,,,,,,,,,,,,,,,,,,,,,,,,,,,,,,,,,,,,,,,,,,,,,,,,,,,,,,,,,,,,,,,,,,,,,,,,,,,,,,,,,,,,,,,,,,,,,,,,,,,,,,,,,,,,,,,,,,,,,
0,18,18,92,1,,5f06eefaf3fc742667b4e79d,629c6d10a3993586849c3790,2022-06-05_10h48.40.513,Colour_Asymmetry_Pilot,2022.1.3,Win32,37.515006,629c4b6caf241d5e6e00bfc0,,,,,,,,,,,,,,,,,,,,,,,,,,,,,,,,,,,,,,,,,,,,,,,,,,,,,,,,,,,,,,,,,,,,,,,,,,,,,,,,,,,,,,,,,,,,,,,,,,,,,,,,,,,,,,,,,,,,,,,,,,,,,,,,,,,,,,,,,,,,,,,,,,,
0,19,19,56,1,,5f06eefaf3fc742667b4e79d,629c6d10a3993586849c3790,2022-06-05_10h48.40.513,Colour_Asymmetry_Pilot,2022.1.3,Win32,37.515006,629c4b6caf241d5e6e00bfc0,,,,,,,,,,,,,,,,,,,,,,,,,,,,,,,,,,,,,,,,,,,,,,,,,,,,,,,,,,,,,,,,,,,,,,,,,,,,,,,,,,,,,,,,,,,,,,,,,,,,,,,,,,,,,,,,,,,,,,,,,,,,,,,,,,,,,,,,,,,,,,,,,,,
0,20,20,79,1,,5f06eefaf3fc742667b4e79d,629c6d10a3993586849c3790,2022-06-05_10h48.40.513,Colour_Asymmetry_Pilot,2022.1.3,Win32,37.515006,629c4b6caf241d5e6e00bfc0,,,,,,,,,,,,,,,,,,,,,,,,,,,,,,,,,,,,,,,,,,,,,,,,,,,,,,,,,,,,,,,,,,,,,,,,,,,,,,,,,,,,,,,,,,,,,,,,,,,,,,,,,,,,,,,,,,,,,,,,,,,,,,,,,,,,,,,,,,,,,,,,,,,
0,21,21,1,1,,5f06eefaf3fc742667b4e79d,629c6d10a3993586849c3790,2022-06-05_10h48.40.513,Colour_Asymmetry_Pilot,2022.1.3,Win32,37.515006,629c4b6caf241d5e6e00bfc0,,,,,,,,,,,,,,,,,,,,,,,,,,,,,,,,,,,,,,,,,,,,,,,,,,,,,,,,,,,,,,,,,,,,,,,,,,,,,,,,,,,,,,,,,,,,,,,,,,,,,,,,,,,,,,,,,,,,,,,,,,,,,,,,,,,,,,,,,,,,,,,,,,,
0,22,22,72,1,,5f06eefaf3fc742667b4e79d,629c6d10a3993586849c3790,2022-06-05_10h48.40.513,Colour_Asymmetry_Pilot,2022.1.3,Win32,37.515006,629c4b6caf241d5e6e00bfc0,,,,,,,,,,,,,,,,,,,,,,,,,,,,,,,,,,,,,,,,,,,,,,,,,,,,,,,,,,,,,,,,,,,,,,,,,,,,,,,,,,,,,,,,,,,,,,,,,,,,,,,,,,,,,,,,,,,,,,,,,,,,,,,,,,,,,,,,,,,,,,,,,,,
0,23,23,83,1,,5f06eefaf3fc742667b4e79d,629c6d10a3993586849c3790,2022-06-05_10h48.40.513,Colour_Asymmetry_Pilot,2022.1.3,Win32,37.515006,629c4b6caf241d5e6e00bfc0,,,,,,,,,,,,,,,,,,,,,,,,,,,,,,,,,,,,,,,,,,,,,,,,,,,,,,,,,,,,,,,,,,,,,,,,,,,,,,,,,,,,,,,,,,,,,,,,,,,,,,,,,,,,,,,,,,,,,,,,,,,,,,,,,,,,,,,,,,,,,,,,,,,
0,24,24,43,1,,5f06eefaf3fc742667b4e79d,629c6d10a3993586849c3790,2022-06-05_10h48.40.513,Colour_Asymmetry_Pilot,2022.1.3,Win32,37.515006,629c4b6caf241d5e6e00bfc0,,,,,,,,,,,,,,,,,,,,,,,,,,,,,,,,,,,,,,,,,,,,,,,,,,,,,,,,,,,,,,,,,,,,,,,,,,,,,,,,,,,,,,,,,,,,,,,,,,,,,,,,,,,,,,,,,,,,,,,,,,,,,,,,,,,,,,,,,,,,,,,,,,,
0,25,25,86,1,,5f06eefaf3fc742667b4e79d,629c6d10a3993586849c3790,2022-06-05_10h48.40.513,Colour_Asymmetry_Pilot,2022.1.3,Win32,37.515006,629c4b6caf241d5e6e00bfc0,,,,,,,,,,,,,,,,,,,,,,,,,,,,,,,,,,,,,,,,,,,,,,,,,,,,,,,,,,,,,,,,,,,,,,,,,,,,,,,,,,,,,,,,,,,,,,,,,,,,,,,,,,,,,,,,,,,,,,,,,,,,,,,,,,,,,,,,,,,,,,,,,,,
0,26,26,28,1,,5f06eefaf3fc742667b4e79d,629c6d10a3993586849c3790,2022-06-05_10h48.40.513,Colour_Asymmetry_Pilot,2022.1.3,Win32,37.515006,629c4b6caf241d5e6e00bfc0,,,,,,,,,,,,,,,,,,,,,,,,,,,,,,,,,,,,,,,,,,,,,,,,,,,,,,,,,,,,,,,,,,,,,,,,,,,,,,,,,,,,,,,,,,,,,,,,,,,,,,,,,,,,,,,,,,,,,,,,,,,,,,,,,,,,,,,,,,,,,,,,,,,
0,27,27,37,1,,5f06eefaf3fc742667b4e79d,629c6d10a3993586849c3790,2022-06-05_10h48.40.513,Colour_Asymmetry_Pilot,2022.1.3,Win32,37.515006,629c4b6caf241d5e6e00bfc0,,,,,,,,,,,,,,,,,,,,,,,,,,,,,,,,,,,,,,,,,,,,,,,,,,,,,,,,,,,,,,,,,,,,,,,,,,,,,,,,,,,,,,,,,,,,,,,,,,,,,,,,,,,,,,,,,,,,,,,,,,,,,,,,,,,,,,,,,,,,,,,,,,,
0,28,28,88,1,,5f06eefaf3fc742667b4e79d,629c6d10a3993586849c3790,2022-06-05_10h48.40.513,Colour_Asymmetry_Pilot,2022.1.3,Win32,37.515006,629c4b6caf241d5e6e00bfc0,,,,,,,,,,,,,,,,,,,,,,,,,,,,,,,,,,,,,,,,,,,,,,,,,,,,,,,,,,,,,,,,,,,,,,,,,,,,,,,,,,,,,,,,,,,,,,,,,,,,,,,,,,,,,,,,,,,,,,,,,,,,,,,,,,,,,,,,,,,,,,,,,,,
0,29,29,67,1,,5f06eefaf3fc742667b4e79d,629c6d10a3993586849c3790,2022-06-05_10h48.40.513,Colour_Asymmetry_Pilot,2022.1.3,Win32,37.515006,629c4b6caf241d5e6e00bfc0,,,,,,,,,,,,,,,,,,,,,,,,,,,,,,,,,,,,,,,,,,,,,,,,,,,,,,,,,,,,,,,,,,,,,,,,,,,,,,,,,,,,,,,,,,,,,,,,,,,,,,,,,,,,,,,,,,,,,,,,,,,,,,,,,,,,,,,,,,,,,,,,,,,
0,30,30,66,1,,5f06eefaf3fc742667b4e79d,629c6d10a3993586849c3790,2022-06-05_10h48.40.513,Colour_Asymmetry_Pilot,2022.1.3,Win32,37.515006,629c4b6caf241d5e6e00bfc0,,,,,,,,,,,,,,,,,,,,,,,,,,,,,,,,,,,,,,,,,,,,,,,,,,,,,,,,,,,,,,,,,,,,,,,,,,,,,,,,,,,,,,,,,,,,,,,,,,,,,,,,,,,,,,,,,,,,,,,,,,,,,,,,,,,,,,,,,,,,,,,,,,,
0,31,31,57,1,,5f06eefaf3fc742667b4e79d,629c6d10a3993586849c3790,2022-06-05_10h48.40.513,Colour_Asymmetry_Pilot,2022.1.3,Win32,37.515006,629c4b6caf241d5e6e00bfc0,,,,,,,,,,,,,,,,,,,,,,,,,,,,,,,,,,,,,,,,,,,,,,,,,,,,,,,,,,,,,,,,,,,,,,,,,,,,,,,,,,,,,,,,,,,,,,,,,,,,,,,,,,,,,,,,,,,,,,,,,,,,,,,,,,,,,,,,,,,,,,,,,,,
0,32,32,82,1,,5f06eefaf3fc742667b4e79d,629c6d10a3993586849c3790,2022-06-05_10h48.40.513,Colour_Asymmetry_Pilot,2022.1.3,Win32,37.515006,629c4b6caf241d5e6e00bfc0,,,,,,,,,,,,,,,,,,,,,,,,,,,,,,,,,,,,,,,,,,,,,,,,,,,,,,,,,,,,,,,,,,,,,,,,,,,,,,,,,,,,,,,,,,,,,,,,,,,,,,,,,,,,,,,,,,,,,,,,,,,,,,,,,,,,,,,,,,,,,,,,,,,
0,33,33,61,1,,5f06eefaf3fc742667b4e79d,629c6d10a3993586849c3790,2022-06-05_10h48.40.513,Colour_Asymmetry_Pilot,2022.1.3,Win32,37.515006,629c4b6caf241d5e6e00bfc0,,,,,,,,,,,,,,,,,,,,,,,,,,,,,,,,,,,,,,,,,,,,,,,,,,,,,,,,,,,,,,,,,,,,,,,,,,,,,,,,,,,,,,,,,,,,,,,,,,,,,,,,,,,,,,,,,,,,,,,,,,,,,,,,,,,,,,,,,,,,,,,,,,,
0,34,34,80,1,,5f06eefaf3fc742667b4e79d,629c6d10a3993586849c3790,2022-06-05_10h48.40.513,Colour_Asymmetry_Pilot,2022.1.3,Win32,37.515006,629c4b6caf241d5e6e00bfc0,,,,,,,,,,,,,,,,,,,,,,,,,,,,,,,,,,,,,,,,,,,,,,,,,,,,,,,,,,,,,,,,,,,,,,,,,,,,,,,,,,,,,,,,,,,,,,,,,,,,,,,,,,,,,,,,,,,,,,,,,,,,,,,,,,,,,,,,,,,,,,,,,,,
0,35,35,81,1,,5f06eefaf3fc742667b4e79d,629c6d10a3993586849c3790,2022-06-05_10h48.40.513,Colour_Asymmetry_Pilot,2022.1.3,Win32,37.515006,629c4b6caf241d5e6e00bfc0,,,,,,,,,,,,,,,,,,,,,,,,,,,,,,,,,,,,,,,,,,,,,,,,,,,,,,,,,,,,,,,,,,,,,,,,,,,,,,,,,,,,,,,,,,,,,,,,,,,,,,,,,,,,,,,,,,,,,,,,,,,,,,,,,,,,,,,,,,,,,,,,,,,
0,36,36,32,1,,5f06eefaf3fc742667b4e79d,629c6d10a3993586849c3790,2022-06-05_10h48.40.513,Colour_Asymmetry_Pilot,2022.1.3,Win32,37.515006,629c4b6caf241d5e6e00bfc0,,,,,,,,,,,,,,,,,,,,,,,,,,,,,,,,,,,,,,,,,,,,,,,,,,,,,,,,,,,,,,,,,,,,,,,,,,,,,,,,,,,,,,,,,,,,,,,,,,,,,,,,,,,,,,,,,,,,,,,,,,,,,,,,,,,,,,,,,,,,,,,,,,,
0,37,37,53,1,,5f06eefaf3fc742667b4e79d,629c6d10a3993586849c3790,2022-06-05_10h48.40.513,Colour_Asymmetry_Pilot,2022.1.3,Win32,37.515006,629c4b6caf241d5e6e00bfc0,,,,,,,,,,,,,,,,,,,,,,,,,,,,,,,,,,,,,,,,,,,,,,,,,,,,,,,,,,,,,,,,,,,,,,,,,,,,,,,,,,,,,,,,,,,,,,,,,,,,,,,,,,,,,,,,,,,,,,,,,,,,,,,,,,,,,,,,,,,,,,,,,,,
0,38,38,64,1,,5f06eefaf3fc742667b4e79d,629c6d10a3993586849c3790,2022-06-05_10h48.40.513,Colour_Asymmetry_Pilot,2022.1.3,Win32,37.515006,629c4b6caf241d5e6e00bfc0,,,,,,,,,,,,,,,,,,,,,,,,,,,,,,,,,,,,,,,,,,,,,,,,,,,,,,,,,,,,,,,,,,,,,,,,,,,,,,,,,,,,,,,,,,,,,,,,,,,,,,,,,,,,,,,,,,,,,,,,,,,,,,,,,,,,,,,,,,,,,,,,,,,
0,39,39,19,1,,5f06eefaf3fc742667b4e79d,629c6d10a3993586849c3790,2022-06-05_10h48.40.513,Colour_Asymmetry_Pilot,2022.1.3,Win32,37.515006,629c4b6caf241d5e6e00bfc0,,,,,,,,,,,,,,,,,,,,,,,,,,,,,,,,,,,,,,,,,,,,,,,,,,,,,,,,,,,,,,,,,,,,,,,,,,,,,,,,,,,,,,,,,,,,,,,,,,,,,,,,,,,,,,,,,,,,,,,,,,,,,,,,,,,,,,,,,,,,,,,,,,,
0,40,40,55,1,,5f06eefaf3fc742667b4e79d,629c6d10a3993586849c3790,2022-06-05_10h48.40.513,Colour_Asymmetry_Pilot,2022.1.3,Win32,37.515006,629c4b6caf241d5e6e00bfc0,,,,,,,,,,,,,,,,,,,,,,,,,,,,,,,,,,,,,,,,,,,,,,,,,,,,,,,,,,,,,,,,,,,,,,,,,,,,,,,,,,,,,,,,,,,,,,,,,,,,,,,,,,,,,,,,,,,,,,,,,,,,,,,,,,,,,,,,,,,,,,,,,,,
0,41,41,60,1,,5f06eefaf3fc742667b4e79d,629c6d10a3993586849c3790,2022-06-05_10h48.40.513,Colour_Asymmetry_Pilot,2022.1.3,Win32,37.515006,629c4b6caf241d5e6e00bfc0,,,,,,,,,,,,,,,,,,,,,,,,,,,,,,,,,,,,,,,,,,,,,,,,,,,,,,,,,,,,,,,,,,,,,,,,,,,,,,,,,,,,,,,,,,,,,,,,,,,,,,,,,,,,,,,,,,,,,,,,,,,,,,,,,,,,,,,,,,,,,,,,,,,
0,42,42,29,1,,5f06eefaf3fc742667b4e79d,629c6d10a3993586849c3790,2022-06-05_10h48.40.513,Colour_Asymmetry_Pilot,2022.1.3,Win32,37.515006,629c4b6caf241d5e6e00bfc0,,,,,,,,,,,,,,,,,,,,,,,,,,,,,,,,,,,,,,,,,,,,,,,,,,,,,,,,,,,,,,,,,,,,,,,,,,,,,,,,,,,,,,,,,,,,,,,,,,,,,,,,,,,,,,,,,,,,,,,,,,,,,,,,,,,,,,,,,,,,,,,,,,,
0,43,43,78,1,,5f06eefaf3fc742667b4e79d,629c6d10a3993586849c3790,2022-06-05_10h48.40.513,Colour_Asymmetry_Pilot,2022.1.3,Win32,37.515006,629c4b6caf241d5e6e00bfc0,,,,,,,,,,,,,,,,,,,,,,,,,,,,,,,,,,,,,,,,,,,,,,,,,,,,,,,,,,,,,,,,,,,,,,,,,,,,,,,,,,,,,,,,,,,,,,,,,,,,,,,,,,,,,,,,,,,,,,,,,,,,,,,,,,,,,,,,,,,,,,,,,,,
0,44,44,33,1,,5f06eefaf3fc742667b4e79d,629c6d10a3993586849c3790,2022-06-05_10h48.40.513,Colour_Asymmetry_Pilot,2022.1.3,Win32,37.515006,629c4b6caf241d5e6e00bfc0,,,,,,,,,,,,,,,,,,,,,,,,,,,,,,,,,,,,,,,,,,,,,,,,,,,,,,,,,,,,,,,,,,,,,,,,,,,,,,,,,,,,,,,,,,,,,,,,,,,,,,,,,,,,,,,,,,,,,,,,,,,,,,,,,,,,,,,,,,,,,,,,,,,
0,45,45,76,1,,5f06eefaf3fc742667b4e79d,629c6d10a3993586849c3790,2022-06-05_10h48.40.513,Colour_Asymmetry_Pilot,2022.1.3,Win32,37.515006,629c4b6caf241d5e6e00bfc0,,,,,,,,,,,,,,,,,,,,,,,,,,,,,,,,,,,,,,,,,,,,,,,,,,,,,,,,,,,,,,,,,,,,,,,,,,,,,,,,,,,,,,,,,,,,,,,,,,,,,,,,,,,,,,,,,,,,,,,,,,,,,,,,,,,,,,,,,,,,,,,,,,,
0,46,46,38,1,,5f06eefaf3fc742667b4e79d,629c6d10a3993586849c3790,2022-06-05_10h48.40.513,Colour_Asymmetry_Pilot,2022.1.3,Win32,37.515006,629c4b6caf241d5e6e00bfc0,,,,,,,,,,,,,,,,,,,,,,,,,,,,,,,,,,,,,,,,,,,,,,,,,,,,,,,,,,,,,,,,,,,,,,,,,,,,,,,,,,,,,,,,,,,,,,,,,,,,,,,,,,,,,,,,,,,,,,,,,,,,,,,,,,,,,,,,,,,,,,,,,,,
0,47,47,69,1,,5f06eefaf3fc742667b4e79d,629c6d10a3993586849c3790,2022-06-05_10h48.40.513,Colour_Asymmetry_Pilot,2022.1.3,Win32,37.515006,629c4b6caf241d5e6e00bfc0,,,,,,,,,,,,,,,,,,,,,,,,,,,,,,,,,,,,,,,,,,,,,,,,,,,,,,,,,,,,,,,,,,,,,,,,,,,,,,,,,,,,,,,,,,,,,,,,,,,,,,,,,,,,,,,,,,,,,,,,,,,,,,,,,,,,,,,,,,,,,,,,,,,
0,48,48,18,1,,5f06eefaf3fc742667b4e79d,629c6d10a3993586849c3790,2022-06-05_10h48.40.513,Colour_Asymmetry_Pilot,2022.1.3,Win32,37.515006,629c4b6caf241d5e6e00bfc0,,,,,,,,,,,,,,,,,,,,,,,,,,,,,,,,,,,,,,,,,,,,,,,,,,,,,,,,,,,,,,,,,,,,,,,,,,,,,,,,,,,,,,,,,,,,,,,,,,,,,,,,,,,,,,,,,,,,,,,,,,,,,,,,,,,,,,,,,,,,,,,,,,,
0,49,49,5,1,,5f06eefaf3fc742667b4e79d,629c6d10a3993586849c3790,2022-06-05_10h48.40.513,Colour_Asymmetry_Pilot,2022.1.3,Win32,37.515006,629c4b6caf241d5e6e00bfc0,,,,,,,,,,,,,,,,,,,,,,,,,,,,,,,,,,,,,,,,,,,,,,,,,,,,,,,,,,,,,,,,,,,,,,,,,,,,,,,,,,,,,,,,,,,,,,,,,,,,,,,,,,,,,,,,,,,,,,,,,,,,,,,,,,,,,,,,,,,,,,,,,,,
0,50,50,42,1,,5f06eefaf3fc742667b4e79d,629c6d10a3993586849c3790,2022-06-05_10h48.40.513,Colour_Asymmetry_Pilot,2022.1.3,Win32,37.515006,629c4b6caf241d5e6e00bfc0,,,,,,,,,,,,,,,,,,,,,,,,,,,,,,,,,,,,,,,,,,,,,,,,,,,,,,,,,,,,,,,,,,,,,,,,,,,,,,,,,,,,,,,,,,,,,,,,,,,,,,,,,,,,,,,,,,,,,,,,,,,,,,,,,,,,,,,,,,,,,,,,,,,
0,51,51,31,1,,5f06eefaf3fc742667b4e79d,629c6d10a3993586849c3790,2022-06-05_10h48.40.513,Colour_Asymmetry_Pilot,2022.1.3,Win32,37.515006,629c4b6caf241d5e6e00bfc0,,,,,,,,,,,,,,,,,,,,,,,,,,,,,,,,,,,,,,,,,,,,,,,,,,,,,,,,,,,,,,,,,,,,,,,,,,,,,,,,,,,,,,,,,,,,,,,,,,,,,,,,,,,,,,,,,,,,,,,,,,,,,,,,,,,,,,,,,,,,,,,,,,,
0,52,52,23,1,,5f06eefaf3fc742667b4e79d,629c6d10a3993586849c3790,2022-06-05_10h48.40.513,Colour_Asymmetry_Pilot,2022.1.3,Win32,37.515006,629c4b6caf241d5e6e00bfc0,,,,,,,,,,,,,,,,,,,,,,,,,,,,,,,,,,,,,,,,,,,,,,,,,,,,,,,,,,,,,,,,,,,,,,,,,,,,,,,,,,,,,,,,,,,,,,,,,,,,,,,,,,,,,,,,,,,,,,,,,,,,,,,,,,,,,,,,,,,,,,,,,,,
0,53,53,2,1,,5f06eefaf3fc742667b4e79d,629c6d10a3993586849c3790,2022-06-05_10h48.40.513,Colour_Asymmetry_Pilot,2022.1.3,Win32,37.515006,629c4b6caf241d5e6e00bfc0,,,,,,,,,,,,,,,,,,,,,,,,,,,,,,,,,,,,,,,,,,,,,,,,,,,,,,,,,,,,,,,,,,,,,,,,,,,,,,,,,,,,,,,,,,,,,,,,,,,,,,,,,,,,,,,,,,,,,,,,,,,,,,,,,,,,,,,,,,,,,,,,,,,
0,54,54,13,1,,5f06eefaf3fc742667b4e79d,629c6d10a3993586849c3790,2022-06-05_10h48.40.513,Colour_Asymmetry_Pilot,2022.1.3,Win32,37.515006,629c4b6caf241d5e6e00bfc0,,,,,,,,,,,,,,,,,,,,,,,,,,,,,,,,,,,,,,,,,,,,,,,,,,,,,,,,,,,,,,,,,,,,,,,,,,,,,,,,,,,,,,,,,,,,,,,,,,,,,,,,,,,,,,,,,,,,,,,,,,,,,,,,,,,,,,,,,,,,,,,,,,,
0,55,55,74,1,,5f06eefaf3fc742667b4e79d,629c6d10a3993586849c3790,2022-06-05_10h48.40.513,Colour_Asymmetry_Pilot,2022.1.3,Win32,37.515006,629c4b6caf241d5e6e00bfc0,,,,,,,,,,,,,,,,,,,,,,,,,,,,,,,,,,,,,,,,,,,,,,,,,,,,,,,,,,,,,,,,,,,,,,,,,,,,,,,,,,,,,,,,,,,,,,,,,,,,,,,,,,,,,,,,,,,,,,,,,,,,,,,,,,,,,,,,,,,,,,,,,,,
0,56,56,9,1,,5f06eefaf3fc742667b4e79d,629c6d10a3993586849c3790,2022-06-05_10h48.40.513,Colour_Asymmetry_Pilot,2022.1.3,Win32,37.515006,629c4b6caf241d5e6e00bfc0,,,,,,,,,,,,,,,,,,,,,,,,,,,,,,,,,,,,,,,,,,,,,,,,,,,,,,,,,,,,,,,,,,,,,,,,,,,,,,,,,,,,,,,,,,,,,,,,,,,,,,,,,,,,,,,,,,,,,,,,,,,,,,,,,,,,,,,,,,,,,,,,,,,
0,57,57,73,1,,5f06eefaf3fc742667b4e79d,629c6d10a3993586849c3790,2022-06-05_10h48.40.513,Colour_Asymmetry_Pilot,2022.1.3,Win32,37.515006,629c4b6caf241d5e6e00bfc0,,,,,,,,,,,,,,,,,,,,,,,,,,,,,,,,,,,,,,,,,,,,,,,,,,,,,,,,,,,,,,,,,,,,,,,,,,,,,,,,,,,,,,,,,,,,,,,,,,,,,,,,,,,,,,,,,,,,,,,,,,,,,,,,,,,,,,,,,,,,,,,,,,,
0,58,58,26,1,,5f06eefaf3fc742667b4e79d,629c6d10a3993586849c3790,2022-06-05_10h48.40.513,Colour_Asymmetry_Pilot,2022.1.3,Win32,37.515006,629c4b6caf241d5e6e00bfc0,,,,,,,,,,,,,,,,,,,,,,,,,,,,,,,,,,,,,,,,,,,,,,,,,,,,,,,,,,,,,,,,,,,,,,,,,,,,,,,,,,,,,,,,,,,,,,,,,,,,,,,,,,,,,,,,,,,,,,,,,,,,,,,,,,,,,,,,,,,,,,,,,,,
0,59,59,45,1,,5f06eefaf3fc742667b4e79d,629c6d10a3993586849c3790,2022-06-05_10h48.40.513,Colour_Asymmetry_Pilot,2022.1.3,Win32,37.515006,629c4b6caf241d5e6e00bfc0,,,,,,,,,,,,,,,,,,,,,,,,,,,,,,,,,,,,,,,,,,,,,,,,,,,,,,,,,,,,,,,,,,,,,,,,,,,,,,,,,,,,,,,,,,,,,,,,,,,,,,,,,,,,,,,,,,,,,,,,,,,,,,,,,,,,,,,,,,,,,,,,,,,
0,60,60,71,1,,5f06eefaf3fc742667b4e79d,629c6d10a3993586849c3790,2022-06-05_10h48.40.513,Colour_Asymmetry_Pilot,2022.1.3,Win32,37.515006,629c4b6caf241d5e6e00bfc0,,,,,,,,,,,,,,,,,,,,,,,,,,,,,,,,,,,,,,,,,,,,,,,,,,,,,,,,,,,,,,,,,,,,,,,,,,,,,,,,,,,,,,,,,,,,,,,,,,,,,,,,,,,,,,,,,,,,,,,,,,,,,,,,,,,,,,,,,,,,,,,,,,,
0,61,61,49,1,,5f06eefaf3fc742667b4e79d,629c6d10a3993586849c3790,2022-06-05_10h48.40.513,Colour_Asymmetry_Pilot,2022.1.3,Win32,37.515006,629c4b6caf241d5e6e00bfc0,,,,,,,,,,,,,,,,,,,,,,,,,,,,,,,,,,,,,,,,,,,,,,,,,,,,,,,,,,,,,,,,,,,,,,,,,,,,,,,,,,,,,,,,,,,,,,,,,,,,,,,,,,,,,,,,,,,,,,,,,,,,,,,,,,,,,,,,,,,,,,,,,,,
0,62,62,16,1,,5f06eefaf3fc742667b4e79d,629c6d10a3993586849c3790,2022-06-05_10h48.40.513,Colour_Asymmetry_Pilot,2022.1.3,Win32,37.515006,629c4b6caf241d5e6e00bfc0,,,,,,,,,,,,,,,,,,,,,,,,,,,,,,,,,,,,,,,,,,,,,,,,,,,,,,,,,,,,,,,,,,,,,,,,,,,,,,,,,,,,,,,,,,,,,,,,,,,,,,,,,,,,,,,,,,,,,,,,,,,,,,,,,,,,,,,,,,,,,,,,,,,
0,63,63,51,1,,5f06eefaf3fc742667b4e79d,629c6d10a3993586849c3790,2022-06-05_10h48.40.513,Colour_Asymmetry_Pilot,2022.1.3,Win32,37.515006,629c4b6caf241d5e6e00bfc0,,,,,,,,,,,,,,,,,,,,,,,,,,,,,,,,,,,,,,,,,,,,,,,,,,,,,,,,,,,,,,,,,,,,,,,,,,,,,,,,,,,,,,,,,,,,,,,,,,,,,,,,,,,,,,,,,,,,,,,,,,,,,,,,,,,,,,,,,,,,,,,,,,,
0,64,64,3,1,,5f06eefaf3fc742667b4e79d,629c6d10a3993586849c3790,2022-06-05_10h48.40.513,Colour_Asymmetry_Pilot,2022.1.3,Win32,37.515006,629c4b6caf241d5e6e00bfc0,,,,,,,,,,,,,,,,,,,,,,,,,,,,,,,,,,,,,,,,,,,,,,,,,,,,,,,,,,,,,,,,,,,,,,,,,,,,,,,,,,,,,,,,,,,,,,,,,,,,,,,,,,,,,,,,,,,,,,,,,,,,,,,,,,,,,,,,,,,,,,,,,,,
0,65,65,36,1,,5f06eefaf3fc742667b4e79d,629c6d10a3993586849c3790,2022-06-05_10h48.40.513,Colour_Asymmetry_Pilot,2022.1.3,Win32,37.515006,629c4b6caf241d5e6e00bfc0,,,,,,,,,,,,,,,,,,,,,,,,,,,,,,,,,,,,,,,,,,,,,,,,,,,,,,,,,,,,,,,,,,,,,,,,,,,,,,,,,,,,,,,,,,,,,,,,,,,,,,,,,,,,,,,,,,,,,,,,,,,,,,,,,,,,,,,,,,,,,,,,,,,
0,66,66,44,1,,5f06eefaf3fc742667b4e79d,629c6d10a3993586849c3790,2022-06-05_10h48.40.513,Colour_Asymmetry_Pilot,2022.1.3,Win32,37.515006,629c4b6caf241d5e6e00bfc0,,,,,,,,,,,,,,,,,,,,,,,,,,,,,,,,,,,,,,,,,,,,,,,,,,,,,,,,,,,,,,,,,,,,,,,,,,,,,,,,,,,,,,,,,,,,,,,,,,,,,,,,,,,,,,,,,,,,,,,,,,,,,,,,,,,,,,,,,,,,,,,,,,,
0,67,67,68,1,,5f06eefaf3fc742667b4e79d,629c6d10a3993586849c3790,2022-06-05_10h48.40.513,Colour_Asymmetry_Pilot,2022.1.3,Win32,37.515006,629c4b6caf241d5e6e00bfc0,,,,,,,,,,,,,,,,,,,,,,,,,,,,,,,,,,,,,,,,,,,,,,,,,,,,,,,,,,,,,,,,,,,,,,,,,,,,,,,,,,,,,,,,,,,,,,,,,,,,,,,,,,,,,,,,,,,,,,,,,,,,,,,,,,,,,,,,,,,,,,,,,,,
0,68,68,63,1,,5f06eefaf3fc742667b4e79d,629c6d10a3993586849c3790,2022-06-05_10h48.40.513,Colour_Asymmetry_Pilot,2022.1.3,Win32,37.515006,629c4b6caf241d5e6e00bfc0,,,,,,,,,,,,,,,,,,,,,,,,,,,,,,,,,,,,,,,,,,,,,,,,,,,,,,,,,,,,,,,,,,,,,,,,,,,,,,,,,,,,,,,,,,,,,,,,,,,,,,,,,,,,,,,,,,,,,,,,,,,,,,,,,,,,,,,,,,,,,,,,,,,
0,69,69,10,1,,5f06eefaf3fc742667b4e79d,629c6d10a3993586849c3790,2022-06-05_10h48.40.513,Colour_Asymmetry_Pilot,2022.1.3,Win32,37.515006,629c4b6caf241d5e6e00bfc0,,,,,,,,,,,,,,,,,,,,,,,,,,,,,,,,,,,,,,,,,,,,,,,,,,,,,,,,,,,,,,,,,,,,,,,,,,,,,,,,,,,,,,,,,,,,,,,,,,,,,,,,,,,,,,,,,,,,,,,,,,,,,,,,,,,,,,,,,,,,,,,,,,,
0,70,70,84,1,,5f06eefaf3fc742667b4e79d,629c6d10a3993586849c3790,2022-06-05_10h48.40.513,Colour_Asymmetry_Pilot,2022.1.3,Win32,37.515006,629c4b6caf241d5e6e00bfc0,,,,,,,,,,,,,,,,,,,,,,,,,,,,,,,,,,,,,,,,,,,,,,,,,,,,,,,,,,,,,,,,,,,,,,,,,,,,,,,,,,,,,,,,,,,,,,,,,,,,,,,,,,,,,,,,,,,,,,,,,,,,,,,,,,,,,,,,,,,,,,,,,,,
0,71,71,4,1,,5f06eefaf3fc742667b4e79d,629c6d10a3993586849c3790,2022-06-05_10h48.40.513,Colour_Asymmetry_Pilot,2022.1.3,Win32,37.515006,629c4b6caf241d5e6e00bfc0,,,,,,,,,,,,,,,,,,,,,,,,,,,,,,,,,,,,,,,,,,,,,,,,,,,,,,,,,,,,,,,,,,,,,,,,,,,,,,,,,,,,,,,,,,,,,,,,,,,,,,,,,,,,,,,,,,,,,,,,,,,,,,,,,,,,,,,,,,,,,,,,,,,
0,72,72,14,1,,5f06eefaf3fc742667b4e79d,629c6d10a3993586849c3790,2022-06-05_10h48.40.513,Colour_Asymmetry_Pilot,2022.1.3,Win32,37.515006,629c4b6caf241d5e6e00bfc0,,,,,,,,,,,,,,,,,,,,,,,,,,,,,,,,,,,,,,,,,,,,,,,,,,,,,,,,,,,,,,,,,,,,,,,,,,,,,,,,,,,,,,,,,,,,,,,,,,,,,,,,,,,,,,,,,,,,,,,,,,,,,,,,,,,,,,,,,,,,,,,,,,,
0,73,73,77,1,,5f06eefaf3fc742667b4e79d,629c6d10a3993586849c3790,2022-06-05_10h48.40.513,Colour_Asymmetry_Pilot,2022.1.3,Win32,37.515006,629c4b6caf241d5e6e00bfc0,,,,,,,,,,,,,,,,,,,,,,,,,,,,,,,,,,,,,,,,,,,,,,,,,,,,,,,,,,,,,,,,,,,,,,,,,,,,,,,,,,,,,,,,,,,,,,,,,,,,,,,,,,,,,,,,,,,,,,,,,,,,,,,,,,,,,,,,,,,,,,,,,,,
0,74,74,24,1,,5f06eefaf3fc742667b4e79d,629c6d10a3993586849c3790,2022-06-05_10h48.40.513,Colour_Asymmetry_Pilot,2022.1.3,Win32,37.515006,629c4b6caf241d5e6e00bfc0,,,,,,,,,,,,,,,,,,,,,,,,,,,,,,,,,,,,,,,,,,,,,,,,,,,,,,,,,,,,,,,,,,,,,,,,,,,,,,,,,,,,,,,,,,,,,,,,,,,,,,,,,,,,,,,,,,,,,,,,,,,,,,,,,,,,,,,,,,,,,,,,,,,
0,75,75,35,1,,5f06eefaf3fc742667b4e79d,629c6d10a3993586849c3790,2022-06-05_10h48.40.513,Colour_Asymmetry_Pilot,2022.1.3,Win32,37.515006,629c4b6caf241d5e6e00bfc0,,,,,,,,,,,,,,,,,,,,,,,,,,,,,,,,,,,,,,,,,,,,,,,,,,,,,,,,,,,,,,,,,,,,,,,,,,,,,,,,,,,,,,,,,,,,,,,,,,,,,,,,,,,,,,,,,,,,,,,,,,,,,,,,,,,,,,,,,,,,,,,,,,,
0,76,76,62,1,,5f06eefaf3fc742667b4e79d,629c6d10a3993586849c3790,2022-06-05_10h48.40.513,Colour_Asymmetry_Pilot,2022.1.3,Win32,37.515006,629c4b6caf241d5e6e00bfc0,,,,,,,,,,,,,,,,,,,,,,,,,,,,,,,,,,,,,,,,,,,,,,,,,,,,,,,,,,,,,,,,,,,,,,,,,,,,,,,,,,,,,,,,,,,,,,,,,,,,,,,,,,,,,,,,,,,,,,,,,,,,,,,,,,,,,,,,,,,,,,,,,,,
0,77,77,22,1,,5f06eefaf3fc742667b4e79d,629c6d10a3993586849c3790,2022-06-05_10h48.40.513,Colour_Asymmetry_Pilot,2022.1.3,Win32,37.515006,629c4b6caf241d5e6e00bfc0,,,,,,,,,,,,,,,,,,,,,,,,,,,,,,,,,,,,,,,,,,,,,,,,,,,,,,,,,,,,,,,,,,,,,,,,,,,,,,,,,,,,,,,,,,,,,,,,,,,,,,,,,,,,,,,,,,,,,,,,,,,,,,,,,,,,,,,,,,,,,,,,,,,
0,78,78,41,1,,5f06eefaf3fc742667b4e79d,629c6d10a3993586849c3790,2022-06-05_10h48.40.513,Colour_Asymmetry_Pilot,2022.1.3,Win32,37.515006,629c4b6caf241d5e6e00bfc0,,,,,,,,,,,,,,,,,,,,,,,,,,,,,,,,,,,,,,,,,,,,,,,,,,,,,,,,,,,,,,,,,,,,,,,,,,,,,,,,,,,,,,,,,,,,,,,,,,,,,,,,,,,,,,,,,,,,,,,,,,,,,,,,,,,,,,,,,,,,,,,,,,,
0,79,79,70,1,,5f06eefaf3fc742667b4e79d,629c6d10a3993586849c3790,2022-06-05_10h48.40.513,Colour_Asymmetry_Pilot,2022.1.3,Win32,37.515006,629c4b6caf241d5e6e00bfc0,,,,,,,,,,,,,,,,,,,,,,,,,,,,,,,,,,,,,,,,,,,,,,,,,,,,,,,,,,,,,,,,,,,,,,,,,,,,,,,,,,,,,,,,,,,,,,,,,,,,,,,,,,,,,,,,,,,,,,,,,,,,,,,,,,,,,,,,,,,,,,,,,,,
0,80,80,6,1,,5f06eefaf3fc742667b4e79d,629c6d10a3993586849c3790,2022-06-05_10h48.40.513,Colour_Asymmetry_Pilot,2022.1.3,Win32,37.515006,629c4b6caf241d5e6e00bfc0,,,,,,,,,,,,,,,,,,,,,,,,,,,,,,,,,,,,,,,,,,,,,,,,,,,,,,,,,,,,,,,,,,,,,,,,,,,,,,,,,,,,,,,,,,,,,,,,,,,,,,,,,,,,,,,,,,,,,,,,,,,,,,,,,,,,,,,,,,,,,,,,,,,
0,81,81,54,1,,5f06eefaf3fc742667b4e79d,629c6d10a3993586849c3790,2022-06-05_10h48.40.513,Colour_Asymmetry_Pilot,2022.1.3,Win32,37.515006,629c4b6caf241d5e6e00bfc0,,,,,,,,,,,,,,,,,,,,,,,,,,,,,,,,,,,,,,,,,,,,,,,,,,,,,,,,,,,,,,,,,,,,,,,,,,,,,,,,,,,,,,,,,,,,,,,,,,,,,,,,,,,,,,,,,,,,,,,,,,,,,,,,,,,,,,,,,,,,,,,,,,,
0,82,82,39,1,,5f06eefaf3fc742667b4e79d,629c6d10a3993586849c3790,2022-06-05_10h48.40.513,Colour_Asymmetry_Pilot,2022.1.3,Win32,37.515006,629c4b6caf241d5e6e00bfc0,,,,,,,,,,,,,,,,,,,,,,,,,,,,,,,,,,,,,,,,,,,,,,,,,,,,,,,,,,,,,,,,,,,,,,,,,,,,,,,,,,,,,,,,,,,,,,,,,,,,,,,,,,,,,,,,,,,,,,,,,,,,,,,,,,,,,,,,,,,,,,,,,,,
0,83,83,40,1,,5f06eefaf3fc742667b4e79d,629c6d10a3993586849c3790,2022-06-05_10h48.40.513,Colour_Asymmetry_Pilot,2022.1.3,Win32,37.515006,629c4b6caf241d5e6e00bfc0,,,,,,,,,,,,,,,,,,,,,,,,,,,,,,,,,,,,,,,,,,,,,,,,,,,,,,,,,,,,,,,,,,,,,,,,,,,,,,,,,,,,,,,,,,,,,,,,,,,,,,,,,,,,,,,,,,,,,,,,,,,,,,,,,,,,,,,,,,,,,,,,,,,
0,84,84,50,1,,5f06eefaf3fc742667b4e79d,629c6d10a3993586849c3790,2022-06-05_10h48.40.513,Colour_Asymmetry_Pilot,2022.1.3,Win32,37.515006,629c4b6caf241d5e6e00bfc0,,,,,,,,,,,,,,,,,,,,,,,,,,,,,,,,,,,,,,,,,,,,,,,,,,,,,,,,,,,,,,,,,,,,,,,,,,,,,,,,,,,,,,,,,,,,,,,,,,,,,,,,,,,,,,,,,,,,,,,,,,,,,,,,,,,,,,,,,,,,,,,,,,,
0,85,85,85,1,,5f06eefaf3fc742667b4e79d,629c6d10a3993586849c3790,2022-06-05_10h48.40.513,Colour_Asymmetry_Pilot,2022.1.3,Win32,37.515006,629c4b6caf241d5e6e00bfc0,,,,,,,,,,,,,,,,,,,,,,,,,,,,,,,,,,,,,,,,,,,,,,,,,,,,,,,,,,,,,,,,,,,,,,,,,,,,,,,,,,,,,,,,,,,,,,,,,,,,,,,,,,,,,,,,,,,,,,,,,,,,,,,,,,,,,,,,,,,,,,,,,,,
0,86,86,17,1,,5f06eefaf3fc742667b4e79d,629c6d10a3993586849c3790,2022-06-05_10h48.40.513,Colour_Asymmetry_Pilot,2022.1.3,Win32,37.515006,629c4b6caf241d5e6e00bfc0,,,,,,,,,,,,,,,,,,,,,,,,,,,,,,,,,,,,,,,,,,,,,,,,,,,,,,,,,,,,,,,,,,,,,,,,,,,,,,,,,,,,,,,,,,,,,,,,,,,,,,,,,,,,,,,,,,,,,,,,,,,,,,,,,,,,,,,,,,,,,,,,,,,
0,87,87,87,1,,5f06eefaf3fc742667b4e79d,629c6d10a3993586849c3790,2022-06-05_10h48.40.513,Colour_Asymmetry_Pilot,2022.1.3,Win32,37.515006,629c4b6caf241d5e6e00bfc0,,,,,,,,,,,,,,,,,,,,,,,,,,,,,,,,,,,,,,,,,,,,,,,,,,,,,,,,,,,,,,,,,,,,,,,,,,,,,,,,,,,,,,,,,,,,,,,,,,,,,,,,,,,,,,,,,,,,,,,,,,,,,,,,,,,,,,,,,,,,,,,,,,,
0,88,88,90,1,,5f06eefaf3fc742667b4e79d,629c6d10a3993586849c3790,2022-06-05_10h48.40.513,Colour_Asymmetry_Pilot,2022.1.3,Win32,37.515006,629c4b6caf241d5e6e00bfc0,,,,,,,,,,,,,,,,,,,,,,,,,,,,,,,,,,,,,,,,,,,,,,,,,,,,,,,,,,,,,,,,,,,,,,,,,,,,,,,,,,,,,,,,,,,,,,,,,,,,,,,,,,,,,,,,,,,,,,,,,,,,,,,,,,,,,,,,,,,,,,,,,,,
0,89,89,34,1,,5f06eefaf3fc742667b4e79d,629c6d10a3993586849c3790,2022-06-05_10h48.40.513,Colour_Asymmetry_Pilot,2022.1.3,Win32,37.515006,629c4b6caf241d5e6e00bfc0,,,,,,,,,,,,,,,,,,,,,,,,,,,,,,,,,,,,,,,,,,,,,,,,,,,,,,,,,,,,,,,,,,,,,,,,,,,,,,,,,,,,,,,,,,,,,,,,,,,,,,,,,,,,,,,,,,,,,,,,,,,,,,,,,,,,,,,,,,,,,,,,,,,
0,90,90,25,1,,5f06eefaf3fc742667b4e79d,629c6d10a3993586849c3790,2022-06-05_10h48.40.513,Colour_Asymmetry_Pilot,2022.1.3,Win32,37.515006,629c4b6caf241d5e6e00bfc0,,,,,,,,,,,,,,,,,,,,,,,,,,,,,,,,,,,,,,,,,,,,,,,,,,,,,,,,,,,,,,,,,,,,,,,,,,,,,,,,,,,,,,,,,,,,,,,,,,,,,,,,,,,,,,,,,,,,,,,,,,,,,,,,,,,,,,,,,,,,,,,,,,,
0,91,91,7,1,,5f06eefaf3fc742667b4e79d,629c6d10a3993586849c3790,2022-06-05_10h48.40.513,Colour_Asymmetry_Pilot,2022.1.3,Win32,37.515006,629c4b6caf241d5e6e00bfc0,,,,,,,,,,,,,,,,,,,,,,,,,,,,,,,,,,,,,,,,,,,,,,,,,,,,,,,,,,,,,,,,,,,,,,,,,,,,,,,,,,,,,,,,,,,,,,,,,,,,,,,,,,,,,,,,,,,,,,,,,,,,,,,,,,,,,,,,,,,,,,,,,,,
0,92,92,46,1,,5f06eefaf3fc742667b4e79d,629c6d10a3993586849c3790,2022-06-05_10h48.40.513,Colour_Asymmetry_Pilot,2022.1.3,Win32,37.515006,629c4b6caf241d5e6e00bfc0,,,,,,,,,,,,,,,,,,,,,,,,,,,,,,,,,,,,,,,,,,,,,,,,,,,,,,,,,,,,,,,,,,,,,,,,,,,,,,,,,,,,,,,,,,,,,,,,,,,,,,,,,,,,,,,,,,,,,,,,,,,,,,,,,,,,,,,,,,,,,,,,,,,
,,,,,,5f06eefaf3fc742667b4e79d,629c6d10a3993586849c3790,2022-06-05_10h48.40.513,Colour_Asymmetry_Pilot,2022.1.3,Win32,37.515006,629c4b6caf241d5e6e00bfc0,0,0,0,2,1,twoone,,,,,,,,,,,,,,,,,,,,,,,,,,,,,,,,,,,,,,,,,,,,,,,,,,,,,,,,,,,,,,,,,,,,,,,,,,,,,,,,,,,,,,,,,,,,,,,,,,,,,,,,,,,,,,,,,,,,,,,,,,,,,,,,,,,,,,,,,,,,,
,,,,,,5f06eefaf3fc742667b4e79d,629c6d10a3993586849c3790,2022-06-05_10h48.40.513,Colour_Asymmetry_Pilot,2022.1.3,Win32,37.515006,629c4b6caf241d5e6e00bfc0,0,1,1,110,1,fourtwo,,,,,,,,,,,,,,,,,,,,,,,,,,,,,,,,,,,,,,,,,,,,,,,,,,,,,,,,,,,,,,,,,,,,,,,,,,,,,,,,,,,,,,,,,,,,,,,,,,,,,,,,,,,,,,,,,,,,,,,,,,,,,,,,,,,,,,,,,,,,,
,,,,,,5f06eefaf3fc742667b4e79d,629c6d10a3993586849c3790,2022-06-05_10h48.40.513,Colour_Asymmetry_Pilot,2022.1.3,Win32,37.515006,629c4b6caf241d5e6e00bfc0,0,2,2,83,1,twofour,,,,,,,,,,,,,,,,,,,,,,,,,,,,,,,,,,,,,,,,,,,,,,,,,,,,,,,,,,,,,,,,,,,,,,,,,,,,,,,,,,,,,,,,,,,,,,,,,,,,,,,,,,,,,,,,,,,,,,,,,,,,,,,,,,,,,,,,,,,,,
,,,,,,5f06eefaf3fc742667b4e79d,629c6d10a3993586849c3790,2022-06-05_10h48.40.513,Colour_Asymmetry_Pilot,2022.1.3,Win32,37.515006,629c4b6caf241d5e6e00bfc0,0,3,3,140,1,threeone,,,,,,,,,,,,,,,,,,,,,,,,,,,,,,,,,,,,,,,,,,,,,,,,,,,,,,,,,,,,,,,,,,,,,,,,,,,,,,,,,,,,,,,,,,,,,,,,,,,,,,,,,,,,,,,,,,,,,,,,,,,,,,,,,,,,,,,,,,,,,
,,,,,,5f06eefaf3fc742667b4e79d,629c6d10a3993586849c3790,2022-06-05_10h48.40.513,Colour_Asymmetry_Pilot,2022.1.3,Win32,37.515006,629c4b6caf241d5e6e00bfc0,0,4,4,141,1,threefour,,,,,,,,,,,,,,,,,,,,,,,,,,,,,,,,,,,,,,,,,,,,,,,,,,,,,,,,,,,,,,,,,,,,,,,,,,,,,,,,,,,,,,,,,,,,,,,,,,,,,,,,,,,,,,,,,,,,,,,,,,,,,,,,,,,,,,,,,,,,,
,,,,,,5f06eefaf3fc742667b4e79d,629c6d10a3993586849c3790,2022-06-05_10h48.40.513,Colour_Asymmetry_Pilot,2022.1.3,Win32,37.515006,629c4b6caf241d5e6e00bfc0,0,5,5,81,1,onethree,,,,,,,,,,,,,,,,,,,,,,,,,,,,,,,,,,,,,,,,,,,,,,,,,,,,,,,,,,,,,,,,,,,,,,,,,,,,,,,,,,,,,,,,,,,,,,,,,,,,,,,,,,,,,,,,,,,,,,,,,,,,,,,,,,,,,,,,,,,,,
,,,,,,5f06eefaf3fc742667b4e79d,629c6d10a3993586849c3790,2022-06-05_10h48.40.513,Colour_Asymmetry_Pilot,2022.1.3,Win32,37.515006,629c4b6caf241d5e6e00bfc0,0,6,6,14,1,fourtwo,,,,,,,,,,,,,,,,,,,,,,,,,,,,,,,,,,,,,,,,,,,,,,,,,,,,,,,,,,,,,,,,,,,,,,,,,,,,,,,,,,,,,,,,,,,,,,,,,,,,,,,,,,,,,,,,,,,,,,,,,,,,,,,,,,,,,,,,,,,,,
,,,,,,5f06eefaf3fc742667b4e79d,629c6d10a3993586849c3790,2022-06-05_10h48.40.513,Colour_Asymmetry_Pilot,2022.1.3,Win32,37.515006,629c4b6caf241d5e6e00bfc0,0,7,7,151,1,fourthree,,,,,,,,,,,,,,,,,,,,,,,,,,,,,,,,,,,,,,,,,,,,,,,,,,,,,,,,,,,,,,,,,,,,,,,,,,,,,,,,,,,,,,,,,,,,,,,,,,,,,,,,,,,,,,,,,,,,,,,,,,,,,,,,,,,,,,,,,,,,,
,,,,,,5f06eefaf3fc742667b4e79d,629c6d10a3993586849c3790,2022-06-05_10h48.40.513,Colour_Asymmetry_Pilot,2022.1.3,Win32,37.515006,629c4b6caf241d5e6e00bfc0,0,8,8,132,1,threeone,,,,,,,,,,,,,,,,,,,,,,,,,,,,,,,,,,,,,,,,,,,,,,,,,,,,,,,,,,,,,,,,,,,,,,,,,,,,,,,,,,,,,,,,,,,,,,,,,,,,,,,,,,,,,,,,,,,,,,,,,,,,,,,,,,,,,,,,,,,,,
,,,,,,5f06eefaf3fc742667b4e79d,629c6d10a3993586849c3790,2022-06-05_10h48.40.513,Colour_Asymmetry_Pilot,2022.1.3,Win32,37.515006,629c4b6caf241d5e6e00bfc0,0,9,9,147,1,twofour,,,,,,,,,,,,,,,,,,,,,,,,,,,,,,,,,,,,,,,,,,,,,,,,,,,,,,,,,,,,,,,,,,,,,,,,,,,,,,,,,,,,,,,,,,,,,,,,,,,,,,,,,,,,,,,,,,,,,,,,,,,,,,,,,,,,,,,,,,,,,
,,,,,,5f06eefaf3fc742667b4e79d,629c6d10a3993586849c3790,2022-06-05_10h48.40.513,Colour_Asymmetry_Pilot,2022.1.3,Win32,37.515006,629c4b6caf241d5e6e00bfc0,0,10,10,139,1,twofour,,,,,,,,,,,,,,,,,,,,,,,,,,,,,,,,,,,,,,,,,,,,,,,,,,,,,,,,,,,,,,,,,,,,,,,,,,,,,,,,,,,,,,,,,,,,,,,,,,,,,,,,,,,,,,,,,,,,,,,,,,,,,,,,,,,,,,,,,,,,,
,,,,,,5f06eefaf3fc742667b4e79d,629c6d10a3993586849c3790,2022-06-05_10h48.40.513,Colour_Asymmetry_Pilot,2022.1.3,Win32,37.515006,629c4b6caf241d5e6e00bfc0,0,11,11,20,1,threeone,,,,,,,,,,,,,,,,,,,,,,,,,,,,,,,,,,,,,,,,,,,,,,,,,,,,,,,,,,,,,,,,,,,,,,,,,,,,,,,,,,,,,,,,,,,,,,,,,,,,,,,,,,,,,,,,,,,,,,,,,,,,,,,,,,,,,,,,,,,,,
,,,,,,5f06eefaf3fc742667b4e79d,629c6d10a3993586849c3790,2022-06-05_10h48.40.513,Colour_Asymmetry_Pilot,2022.1.3,Win32,37.515006,629c4b6caf241d5e6e00bfc0,0,12,12,66,1,twoone,,,,,,,,,,,,,,,,,,,,,,,,,,,,,,,,,,,,,,,,,,,,,,,,,,,,,,,,,,,,,,,,,,,,,,,,,,,,,,,,,,,,,,,,,,,,,,,,,,,,,,,,,,,,,,,,,,,,,,,,,,,,,,,,,,,,,,,,,,,,,
,,,,,,5f06eefaf3fc742667b4e79d,629c6d10a3993586849c3790,2022-06-05_10h48.40.513,Colour_Asymmetry_Pilot,2022.1.3,Win32,37.515006,629c4b6caf241d5e6e00bfc0,0,13,13,85,1,threefour,,,,,,,,,,,,,,,,,,,,,,,,,,,,,,,,,,,,,,,,,,,,,,,,,,,,,,,,,,,,,,,,,,,,,,,,,,,,,,,,,,,,,,,,,,,,,,,,,,,,,,,,,,,,,,,,,,,,,,,,,,,,,,,,,,,,,,,,,,,,,
,,,,,,5f06eefaf3fc742667b4e79d,629c6d10a3993586849c3790,2022-06-05_10h48.40.513,Colour_Asymmetry_Pilot,2022.1.3,Win32,37.515006,629c4b6caf241d5e6e00bfc0,0,14,14,130,1,twoone,,,,,,,,,,,,,,,,,,,,,,,,,,,,,,,,,,,,,,,,,,,,,,,,,,,,,,,,,,,,,,,,,,,,,,,,,,,,,,,,,,,,,,,,,,,,,,,,,,,,,,,,,,,,,,,,,,,,,,,,,,,,,,,,,,,,,,,,,,,,,
,,,,,,5f06eefaf3fc742667b4e79d,629c6d10a3993586849c3790,2022-06-05_10h48.40.513,Colour_Asymmetry_Pilot,2022.1.3,Win32,37.515006,629c4b6caf241d5e6e00bfc0,0,15,15,137,1,onethree,,,,,,,,,,,,,,,,,,,,,,,,,,,,,,,,,,,,,,,,,,,,,,,,,,,,,,,,,,,,,,,,,,,,,,,,,,,,,,,,,,,,,,,,,,,,,,,,,,,,,,,,,,,,,,,,,,,,,,,,,,,,,,,,,,,,,,,,,,,,,
,,,,,,5f06eefaf3fc742667b4e79d,629c6d10a3993586849c3790,2022-06-05_10h48.40.513,Colour_Asymmetry_Pilot,2022.1.3,Win32,37.515006,629c4b6caf241d5e6e00bfc0,0,16,16,10,1,twoone,,,,,,,,,,,,,,,,,,,,,,,,,,,,,,,,,,,,,,,,,,,,,,,,,,,,,,,,,,,,,,,,,,,,,,,,,,,,,,,,,,,,,,,,,,,,,,,,,,,,,,,,,,,,,,,,,,,,,,,,,,,,,,,,,,,,,,,,,,,,,
,,,,,,5f06eefaf3fc742667b4e79d,629c6d10a3993586849c3790,2022-06-05_10h48.40.513,Colour_Asymmetry_Pilot,2022.1.3,Win32,37.515006,629c4b6caf241d5e6e00bfc0,0,17,17,87,1,fourthree,,,,,,,,,,,,,,,,,,,,,,,,,,,,,,,,,,,,,,,,,,,,,,,,,,,,,,,,,,,,,,,,,,,,,,,,,,,,,,,,,,,,,,,,,,,,,,,,,,,,,,,,,,,,,,,,,,,,,,,,,,,,,,,,,,,,,,,,,,,,,
,,,,,,5f06eefaf3fc742667b4e79d,629c6d10a3993586849c3790,2022-06-05_10h48.40.513,Colour_Asymmetry_Pilot,2022.1.3,Win32,37.515006,629c4b6caf241d5e6e00bfc0,0,18,18,74,1,twoone,,,,,,,,,,,,,,,,,,,,,,,,,,,,,,,,,,,,,,,,,,,,,,,,,,,,,,,,,,,,,,,,,,,,,,,,,,,,,,,,,,,,,,,,,,,,,,,,,,,,,,,,,,,,,,,,,,,,,,,,,,,,,,,,,,,,,,,,,,,,,
,,,,,,5f06eefaf3fc742667b4e79d,629c6d10a3993586849c3790,2022-06-05_10h48.40.513,Colour_Asymmetry_Pilot,2022.1.3,Win32,37.515006,629c4b6caf241d5e6e00bfc0,0,19,19,109,1,threefour,,,,,,,,,,,,,,,,,,,,,,,,,,,,,,,,,,,,,,,,,,,,,,,,,,,,,,,,,,,,,,,,,,,,,,,,,,,,,,,,,,,,,,,,,,,,,,,,,,,,,,,,,,,,,,,,,,,,,,,,,,,,,,,,,,,,,,,,,,,,,
,,,,,,5f06eefaf3fc742667b4e79d,629c6d10a3993586849c3790,2022-06-05_10h48.40.513,Colour_Asymmetry_Pilot,2022.1.3,Win32,37.515006,629c4b6caf241d5e6e00bfc0,0,20,20,28,1,threeone,,,,,,,,,,,,,,,,,,,,,,,,,,,,,,,,,,,,,,,,,,,,,,,,,,,,,,,,,,,,,,,,,,,,,,,,,,,,,,,,,,,,,,,,,,,,,,,,,,,,,,,,,,,,,,,,,,,,,,,,,,,,,,,,,,,,,,,,,,,,,
,,,,,,5f06eefaf3fc742667b4e79d,629c6d10a3993586849c3790,2022-06-05_10h48.40.513,Colour_Asymmetry_Pilot,2022.1.3,Win32,37.515006,629c4b6caf241d5e6e00bfc0,0,21,21,8,1,onetwo,,,,,,,,,,,,,,,,,,,,,,,,,,,,,,,,,,,,,,,,,,,,,,,,,,,,,,,,,,,,,,,,,,,,,,,,,,,,,,,,,,,,,,,,,,,,,,,,,,,,,,,,,,,,,,,,,,,,,,,,,,,,,,,,,,,,,,,,,,,,,
,,,,,,5f06eefaf3fc742667b4e79d,629c6d10a3993586849c3790,2022-06-05_10h48.40.513,Colour_Asymmetry_Pilot,2022.1.3,Win32,37.515006,629c4b6caf241d5e6e00bfc0,0,22,22,95,1,fourthree,,,,,,,,,,,,,,,,,,,,,,,,,,,,,,,,,,,,,,,,,,,,,,,,,,,,,,,,,,,,,,,,,,,,,,,,,,,,,,,,,,,,,,,,,,,,,,,,,,,,,,,,,,,,,,,,,,,,,,,,,,,,,,,,,,,,,,,,,,,,,
,,,,,,5f06eefaf3fc742667b4e79d,629c6d10a3993586849c3790,2022-06-05_10h48.40.513,Colour_Asymmetry_Pilot,2022.1.3,Win32,37.515006,629c4b6caf241d5e6e00bfc0,0,23,23,11,1,twofour,,,,,,,,,,,,,,,,,,,,,,,,,,,,,,,,,,,,,,,,,,,,,,,,,,,,,,,,,,,,,,,,,,,,,,,,,,,,,,,,,,,,,,,,,,,,,,,,,,,,,,,,,,,,,,,,,,,,,,,,,,,,,,,,,,,,,,,,,,,,,
,,,,,,5f06eefaf3fc742667b4e79d,629c6d10a3993586849c3790,2022-06-05_10h48.40.513,Colour_Asymmetry_Pilot,2022.1.3,Win32,37.515006,629c4b6caf241d5e6e00bfc0,0,24,24,48,1,onetwo,,,,,,,,,,,,,,,,,,,,,,,,,,,,,,,,,,,,,,,,,,,,,,,,,,,,,,,,,,,,,,,,,,,,,,,,,,,,,,,,,,,,,,,,,,,,,,,,,,,,,,,,,,,,,,,,,,,,,,,,,,,,,,,,,,,,,,,,,,,,,
,,,,,,5f06eefaf3fc742667b4e79d,629c6d10a3993586849c3790,2022-06-05_10h48.40.513,Colour_Asymmetry_Pilot,2022.1.3,Win32,37.515006,629c4b6caf241d5e6e00bfc0,0,25,25,13,1,threefour,,,,,,,,,,,,,,,,,,,,,,,,,,,,,,,,,,,,,,,,,,,,,,,,,,,,,,,,,,,,,,,,,,,,,,,,,,,,,,,,,,,,,,,,,,,,,,,,,,,,,,,,,,,,,,,,,,,,,,,,,,,,,,,,,,,,,,,,,,,,,
,,,,,,5f06eefaf3fc742667b4e79d,629c6d10a3993586849c3790,2022-06-05_10h48.40.513,Colour_Asymmetry_Pilot,2022.1.3,Win32,37.515006,629c4b6caf241d5e6e00bfc0,0,26,26,63,1,fourthree,,,,,,,,,,,,,,,,,,,,,,,,,,,,,,,,,,,,,,,,,,,,,,,,,,,,,,,,,,,,,,,,,,,,,,,,,,,,,,,,,,,,,,,,,,,,,,,,,,,,,,,,,,,,,,,,,,,,,,,,,,,,,,,,,,,,,,,,,,,,,
,,,,,,5f06eefaf3fc742667b4e79d,629c6d10a3993586849c3790,2022-06-05_10h48.40.513,Colour_Asymmetry_Pilot,2022.1.3,Win32,37.515006,629c4b6caf241d5e6e00bfc0,0,27,27,133,1,threefour,,,,,,,,,,,,,,,,,,,,,,,,,,,,,,,,,,,,,,,,,,,,,,,,,,,,,,,,,,,,,,,,,,,,,,,,,,,,,,,,,,,,,,,,,,,,,,,,,,,,,,,,,,,,,,,,,,,,,,,,,,,,,,,,,,,,,,,,,,,,,
,,,,,,5f06eefaf3fc742667b4e79d,629c6d10a3993586849c3790,2022-06-05_10h48.40.513,Colour_Asymmetry_Pilot,2022.1.3,Win32,37.515006,629c4b6caf241d5e6e00bfc0,0,28,28,34,1,twoone,,,,,,,,,,,,,,,,,,,,,,,,,,,,,,,,,,,,,,,,,,,,,,,,,,,,,,,,,,,,,,,,,,,,,,,,,,,,,,,,,,,,,,,,,,,,,,,,,,,,,,,,,,,,,,,,,,,,,,,,,,,,,,,,,,,,,,,,,,,,,
,,,,,,5f06eefaf3fc742667b4e79d,629c6d10a3993586849c3790,2022-06-05_10h48.40.513,Colour_Asymmetry_Pilot,2022.1.3,Win32,37.515006,629c4b6caf241d5e6e00bfc0,0,29,29,76,1,threeone,,,,,,,,,,,,,,,,,,,,,,,,,,,,,,,,,,,,,,,,,,,,,,,,,,,,,,,,,,,,,,,,,,,,,,,,,,,,,,,,,,,,,,,,,,,,,,,,,,,,,,,,,,,,,,,,,,,,,,,,,,,,,,,,,,,,,,,,,,,,,
,,,,,,5f06eefaf3fc742667b4e79d,629c6d10a3993586849c3790,2022-06-05_10h48.40.513,Colour_Asymmetry_Pilot,2022.1.3,Win32,37.515006,629c4b6caf241d5e6e00bfc0,0,30,30,49,1,onethree,,,,,,,,,,,,,,,,,,,,,,,,,,,,,,,,,,,,,,,,,,,,,,,,,,,,,,,,,,,,,,,,,,,,,,,,,,,,,,,,,,,,,,,,,,,,,,,,,,,,,,,,,,,,,,,,,,,,,,,,,,,,,,,,,,,,,,,,,,,,,
,,,,,,5f06eefaf3fc742667b4e79d,629c6d10a3993586849c3790,2022-06-05_10h48.40.513,Colour_Asymmetry_Pilot,2022.1.3,Win32,37.515006,629c4b6caf241d5e6e00bfc0,0,31,31,134,1,fourtwo,,,,,,,,,,,,,,,,,,,,,,,,,,,,,,,,,,,,,,,,,,,,,,,,,,,,,,,,,,,,,,,,,,,,,,,,,,,,,,,,,,,,,,,,,,,,,,,,,,,,,,,,,,,,,,,,,,,,,,,,,,,,,,,,,,,,,,,,,,,,,
,,,,,,5f06eefaf3fc742667b4e79d,629c6d10a3993586849c3790,2022-06-05_10h48.40.513,Colour_Asymmetry_Pilot,2022.1.3,Win32,37.515006,629c4b6caf241d5e6e00bfc0,0,32,32,79,1,fourthree,,,,,,,,,,,,,,,,,,,,,,,,,,,,,,,,,,,,,,,,,,,,,,,,,,,,,,,,,,,,,,,,,,,,,,,,,,,,,,,,,,,,,,,,,,,,,,,,,,,,,,,,,,,,,,,,,,,,,,,,,,,,,,,,,,,,,,,,,,,,,
,,,,,,5f06eefaf3fc742667b4e79d,629c6d10a3993586849c3790,2022-06-05_10h48.40.513,Colour_Asymmetry_Pilot,2022.1.3,Win32,37.515006,629c4b6caf241d5e6e00bfc0,0,33,33,104,1,onetwo,,,,,,,,,,,,,,,,,,,,,,,,,,,,,,,,,,,,,,,,,,,,,,,,,,,,,,,,,,,,,,,,,,,,,,,,,,,,,,,,,,,,,,,,,,,,,,,,,,,,,,,,,,,,,,,,,,,,,,,,,,,,,,,,,,,,,,,,,,,,,
,,,,,,5f06eefaf3fc742667b4e79d,629c6d10a3993586849c3790,2022-06-05_10h48.40.513,Colour_Asymmetry_Pilot,2022.1.3,Win32,37.515006,629c4b6caf241d5e6e00bfc0,0,34,34,157,1,threefour,,,,,,,,,,,,,,,,,,,,,,,,,,,,,,,,,,,,,,,,,,,,,,,,,,,,,,,,,,,,,,,,,,,,,,,,,,,,,,,,,,,,,,,,,,,,,,,,,,,,,,,,,,,,,,,,,,,,,,,,,,,,,,,,,,,,,,,,,,,,,
,,,,,,5f06eefaf3fc742667b4e79d,629c6d10a3993586849c3790,2022-06-05_10h48.40.513,Colour_Asymmetry_Pilot,2022.1.3,Win32,37.515006,629c4b6caf241d5e6e00bfc0,0,35,35,117,1,threefour,,,,,,,,,,,,,,,,,,,,,,,,,,,,,,,,,,,,,,,,,,,,,,,,,,,,,,,,,,,,,,,,,,,,,,,,,,,,,,,,,,,,,,,,,,,,,,,,,,,,,,,,,,,,,,,,,,,,,,,,,,,,,,,,,,,,,,,,,,,,,
,,,,,,5f06eefaf3fc742667b4e79d,629c6d10a3993586849c3790,2022-06-05_10h48.40.513,Colour_Asymmetry_Pilot,2022.1.3,Win32,37.515006,629c4b6caf241d5e6e00bfc0,0,36,36,78,1,fourtwo,,,,,,,,,,,,,,,,,,,,,,,,,,,,,,,,,,,,,,,,,,,,,,,,,,,,,,,,,,,,,,,,,,,,,,,,,,,,,,,,,,,,,,,,,,,,,,,,,,,,,,,,,,,,,,,,,,,,,,,,,,,,,,,,,,,,,,,,,,,,,
,,,,,,5f06eefaf3fc742667b4e79d,629c6d10a3993586849c3790,2022-06-05_10h48.40.513,Colour_Asymmetry_Pilot,2022.1.3,Win32,37.515006,629c4b6caf241d5e6e00bfc0,0,37,37,22,1,fourtwo,,,,,,,,,,,,,,,,,,,,,,,,,,,,,,,,,,,,,,,,,,,,,,,,,,,,,,,,,,,,,,,,,,,,,,,,,,,,,,,,,,,,,,,,,,,,,,,,,,,,,,,,,,,,,,,,,,,,,,,,,,,,,,,,,,,,,,,,,,,,,
,,,,,,5f06eefaf3fc742667b4e79d,629c6d10a3993586849c3790,2022-06-05_10h48.40.513,Colour_Asymmetry_Pilot,2022.1.3,Win32,37.515006,629c4b6caf241d5e6e00bfc0,0,38,38,46,1,fourtwo,,,,,,,,,,,,,,,,,,,,,,,,,,,,,,,,,,,,,,,,,,,,,,,,,,,,,,,,,,,,,,,,,,,,,,,,,,,,,,,,,,,,,,,,,,,,,,,,,,,,,,,,,,,,,,,,,,,,,,,,,,,,,,,,,,,,,,,,,,,,,
,,,,,,5f06eefaf3fc742667b4e79d,629c6d10a3993586849c3790,2022-06-05_10h48.40.513,Colour_Asymmetry_Pilot,2022.1.3,Win32,37.515006,629c4b6caf241d5e6e00bfc0,0,39,39,111,1,fourthree,,,,,,,,,,,,,,,,,,,,,,,,,,,,,,,,,,,,,,,,,,,,,,,,,,,,,,,,,,,,,,,,,,,,,,,,,,,,,,,,,,,,,,,,,,,,,,,,,,,,,,,,,,,,,,,,,,,,,,,,,,,,,,,,,,,,,,,,,,,,,
,,,,,,5f06eefaf3fc742667b4e79d,629c6d10a3993586849c3790,2022-06-05_10h48.40.513,Colour_Asymmetry_Pilot,2022.1.3,Win32,37.515006,629c4b6caf241d5e6e00bfc0,0,40,40,94,1,fourtwo,,,,,,,,,,,,,,,,,,,,,,,,,,,,,,,,,,,,,,,,,,,,,,,,,,,,,,,,,,,,,,,,,,,,,,,,,,,,,,,,,,,,,,,,,,,,,,,,,,,,,,,,,,,,,,,,,,,,,,,,,,,,,,,,,,,,,,,,,,,,,
,,,,,,5f06eefaf3fc742667b4e79d,629c6d10a3993586849c3790,2022-06-05_10h48.40.513,Colour_Asymmetry_Pilot,2022.1.3,Win32,37.515006,629c4b6caf241d5e6e00bfc0,0,41,41,126,1,fourtwo,,,,,,,,,,,,,,,,,,,,,,,,,,,,,,,,,,,,,,,,,,,,,,,,,,,,,,,,,,,,,,,,,,,,,,,,,,,,,,,,,,,,,,,,,,,,,,,,,,,,,,,,,,,,,,,,,,,,,,,,,,,,,,,,,,,,,,,,,,,,,
,,,,,,5f06eefaf3fc742667b4e79d,629c6d10a3993586849c3790,2022-06-05_10h48.40.513,Colour_Asymmetry_Pilot,2022.1.3,Win32,37.515006,629c4b6caf241d5e6e00bfc0,0,42,42,146,1,twoone,,,,,,,,,,,,,,,,,,,,,,,,,,,,,,,,,,,,,,,,,,,,,,,,,,,,,,,,,,,,,,,,,,,,,,,,,,,,,,,,,,,,,,,,,,,,,,,,,,,,,,,,,,,,,,,,,,,,,,,,,,,,,,,,,,,,,,,,,,,,,
,,,,,,5f06eefaf3fc742667b4e79d,629c6d10a3993586849c3790,2022-06-05_10h48.40.513,Colour_Asymmetry_Pilot,2022.1.3,Win32,37.515006,629c4b6caf241d5e6e00bfc0,0,43,43,158,1,fourtwo,,,,,,,,,,,,,,,,,,,,,,,,,,,,,,,,,,,,,,,,,,,,,,,,,,,,,,,,,,,,,,,,,,,,,,,,,,,,,,,,,,,,,,,,,,,,,,,,,,,,,,,,,,,,,,,,,,,,,,,,,,,,,,,,,,,,,,,,,,,,,
,,,,,,5f06eefaf3fc742667b4e79d,629c6d10a3993586849c3790,2022-06-05_10h48.40.513,Colour_Asymmetry_Pilot,2022.1.3,Win32,37.515006,629c4b6caf241d5e6e00bfc0,0,44,44,153,1,onethree,,,,,,,,,,,,,,,,,,,,,,,,,,,,,,,,,,,,,,,,,,,,,,,,,,,,,,,,,,,,,,,,,,,,,,,,,,,,,,,,,,,,,,,,,,,,,,,,,,,,,,,,,,,,,,,,,,,,,,,,,,,,,,,,,,,,,,,,,,,,,
,,,,,,5f06eefaf3fc742667b4e79d,629c6d10a3993586849c3790,2022-06-05_10h48.40.513,Colour_Asymmetry_Pilot,2022.1.3,Win32,37.515006,629c4b6caf241d5e6e00bfc0,0,45,45,99,1,twofour,,,,,,,,,,,,,,,,,,,,,,,,,,,,,,,,,,,,,,,,,,,,,,,,,,,,,,,,,,,,,,,,,,,,,,,,,,,,,,,,,,,,,,,,,,,,,,,,,,,,,,,,,,,,,,,,,,,,,,,,,,,,,,,,,,,,,,,,,,,,,
,,,,,,5f06eefaf3fc742667b4e79d,629c6d10a3993586849c3790,2022-06-05_10h48.40.513,Colour_Asymmetry_Pilot,2022.1.3,Win32,37.515006,629c4b6caf241d5e6e00bfc0,0,46,46,116,1,threeone,,,,,,,,,,,,,,,,,,,,,,,,,,,,,,,,,,,,,,,,,,,,,,,,,,,,,,,,,,,,,,,,,,,,,,,,,,,,,,,,,,,,,,,,,,,,,,,,,,,,,,,,,,,,,,,,,,,,,,,,,,,,,,,,,,,,,,,,,,,,,
,,,,,,5f06eefaf3fc742667b4e79d,629c6d10a3993586849c3790,2022-06-05_10h48.40.513,Colour_Asymmetry_Pilot,2022.1.3,Win32,37.515006,629c4b6caf241d5e6e00bfc0,0,47,47,33,1,onethree,,,,,,,,,,,,,,,,,,,,,,,,,,,,,,,,,,,,,,,,,,,,,,,,,,,,,,,,,,,,,,,,,,,,,,,,,,,,,,,,,,,,,,,,,,,,,,,,,,,,,,,,,,,,,,,,,,,,,,,,,,,,,,,,,,,,,,,,,,,,,
,,,,,,5f06eefaf3fc742667b4e79d,629c6d10a3993586849c3790,2022-06-05_10h48.40.513,Colour_Asymmetry_Pilot,2022.1.3,Win32,37.515006,629c4b6caf241d5e6e00bfc0,0,48,48,86,1,fourtwo,,,,,,,,,,,,,,,,,,,,,,,,,,,,,,,,,,,,,,,,,,,,,,,,,,,,,,,,,,,,,,,,,,,,,,,,,,,,,,,,,,,,,,,,,,,,,,,,,,,,,,,,,,,,,,,,,,,,,,,,,,,,,,,,,,,,,,,,,,,,,
,,,,,,5f06eefaf3fc742667b4e79d,629c6d10a3993586849c3790,2022-06-05_10h48.40.513,Colour_Asymmetry_Pilot,2022.1.3,Win32,37.515006,629c4b6caf241d5e6e00bfc0,0,49,49,41,1,onethree,,,,,,,,,,,,,,,,,,,,,,,,,,,,,,,,,,,,,,,,,,,,,,,,,,,,,,,,,,,,,,,,,,,,,,,,,,,,,,,,,,,,,,,,,,,,,,,,,,,,,,,,,,,,,,,,,,,,,,,,,,,,,,,,,,,,,,,,,,,,,
,,,,,,5f06eefaf3fc742667b4e79d,629c6d10a3993586849c3790,2022-06-05_10h48.40.513,Colour_Asymmetry_Pilot,2022.1.3,Win32,37.515006,629c4b6caf241d5e6e00bfc0,0,50,50,156,1,threeone,,,,,,,,,,,,,,,,,,,,,,,,,,,,,,,,,,,,,,,,,,,,,,,,,,,,,,,,,,,,,,,,,,,,,,,,,,,,,,,,,,,,,,,,,,,,,,,,,,,,,,,,,,,,,,,,,,,,,,,,,,,,,,,,,,,,,,,,,,,,,
,,,,,,5f06eefaf3fc742667b4e79d,629c6d10a3993586849c3790,2022-06-05_10h48.40.513,Colour_Asymmetry_Pilot,2022.1.3,Win32,37.515006,629c4b6caf241d5e6e00bfc0,0,51,51,30,1,fourtwo,,,,,,,,,,,,,,,,,,,,,,,,,,,,,,,,,,,,,,,,,,,,,,,,,,,,,,,,,,,,,,,,,,,,,,,,,,,,,,,,,,,,,,,,,,,,,,,,,,,,,,,,,,,,,,,,,,,,,,,,,,,,,,,,,,,,,,,,,,,,,
,,,,,,5f06eefaf3fc742667b4e79d,629c6d10a3993586849c3790,2022-06-05_10h48.40.513,Colour_Asymmetry_Pilot,2022.1.3,Win32,37.515006,629c4b6caf241d5e6e00bfc0,0,52,52,105,1,onethree,,,,,,,,,,,,,,,,,,,,,,,,,,,,,,,,,,,,,,,,,,,,,,,,,,,,,,,,,,,,,,,,,,,,,,,,,,,,,,,,,,,,,,,,,,,,,,,,,,,,,,,,,,,,,,,,,,,,,,,,,,,,,,,,,,,,,,,,,,,,,
,,,,,,5f06eefaf3fc742667b4e79d,629c6d10a3993586849c3790,2022-06-05_10h48.40.513,Colour_Asymmetry_Pilot,2022.1.3,Win32,37.515006,629c4b6caf241d5e6e00bfc0,0,53,53,54,1,fourtwo,,,,,,,,,,,,,,,,,,,,,,,,,,,,,,,,,,,,,,,,,,,,,,,,,,,,,,,,,,,,,,,,,,,,,,,,,,,,,,,,,,,,,,,,,,,,,,,,,,,,,,,,,,,,,,,,,,,,,,,,,,,,,,,,,,,,,,,,,,,,,
,,,,,,5f06eefaf3fc742667b4e79d,629c6d10a3993586849c3790,2022-06-05_10h48.40.513,Colour_Asymmetry_Pilot,2022.1.3,Win32,37.515006,629c4b6caf241d5e6e00bfc0,0,54,54,155,1,twofour,,,,,,,,,,,,,,,,,,,,,,,,,,,,,,,,,,,,,,,,,,,,,,,,,,,,,,,,,,,,,,,,,,,,,,,,,,,,,,,,,,,,,,,,,,,,,,,,,,,,,,,,,,,,,,,,,,,,,,,,,,,,,,,,,,,,,,,,,,,,,
,,,,,,5f06eefaf3fc742667b4e79d,629c6d10a3993586849c3790,2022-06-05_10h48.40.513,Colour_Asymmetry_Pilot,2022.1.3,Win32,37.515006,629c4b6caf241d5e6e00bfc0,0,55,55,93,1,threefour,,,,,,,,,,,,,,,,,,,,,,,,,,,,,,,,,,,,,,,,,,,,,,,,,,,,,,,,,,,,,,,,,,,,,,,,,,,,,,,,,,,,,,,,,,,,,,,,,,,,,,,,,,,,,,,,,,,,,,,,,,,,,,,,,,,,,,,,,,,,,
,,,,,,5f06eefaf3fc742667b4e79d,629c6d10a3993586849c3790,2022-06-05_10h48.40.513,Colour_Asymmetry_Pilot,2022.1.3,Win32,37.515006,629c4b6caf241d5e6e00bfc0,0,56,56,100,1,threeone,,,,,,,,,,,,,,,,,,,,,,,,,,,,,,,,,,,,,,,,,,,,,,,,,,,,,,,,,,,,,,,,,,,,,,,,,,,,,,,,,,,,,,,,,,,,,,,,,,,,,,,,,,,,,,,,,,,,,,,,,,,,,,,,,,,,,,,,,,,,,
,,,,,,5f06eefaf3fc742667b4e79d,629c6d10a3993586849c3790,2022-06-05_10h48.40.513,Colour_Asymmetry_Pilot,2022.1.3,Win32,37.515006,629c4b6caf241d5e6e00bfc0,0,57,57,6,1,fourtwo,,,,,,,,,,,,,,,,,,,,,,,,,,,,,,,,,,,,,,,,,,,,,,,,,,,,,,,,,,,,,,,,,,,,,,,,,,,,,,,,,,,,,,,,,,,,,,,,,,,,,,,,,,,,,,,,,,,,,,,,,,,,,,,,,,,,,,,,,,,,,
,,,,,,5f06eefaf3fc742667b4e79d,629c6d10a3993586849c3790,2022-06-05_10h48.40.513,Colour_Asymmetry_Pilot,2022.1.3,Win32,37.515006,629c4b6caf241d5e6e00bfc0,0,58,58,44,1,threeone,,,,,,,,,,,,,,,,,,,,,,,,,,,,,,,,,,,,,,,,,,,,,,,,,,,,,,,,,,,,,,,,,,,,,,,,,,,,,,,,,,,,,,,,,,,,,,,,,,,,,,,,,,,,,,,,,,,,,,,,,,,,,,,,,,,,,,,,,,,,,
,,,,,,5f06eefaf3fc742667b4e79d,629c6d10a3993586849c3790,2022-06-05_10h48.40.513,Colour_Asymmetry_Pilot,2022.1.3,Win32,37.515006,629c4b6caf241d5e6e00bfc0,0,59,59,89,1,onethree,,,,,,,,,,,,,,,,,,,,,,,,,,,,,,,,,,,,,,,,,,,,,,,,,,,,,,,,,,,,,,,,,,,,,,,,,,,,,,,,,,,,,,,,,,,,,,,,,,,,,,,,,,,,,,,,,,,,,,,,,,,,,,,,,,,,,,,,,,,,,
,,,,,,5f06eefaf3fc742667b4e79d,629c6d10a3993586849c3790,2022-06-05_10h48.40.513,Colour_Asymmetry_Pilot,2022.1.3,Win32,37.515006,629c4b6caf241d5e6e00bfc0,0,60,60,25,1,onethree,,,,,,,,,,,,,,,,,,,,,,,,,,,,,,,,,,,,,,,,,,,,,,,,,,,,,,,,,,,,,,,,,,,,,,,,,,,,,,,,,,,,,,,,,,,,,,,,,,,,,,,,,,,,,,,,,,,,,,,,,,,,,,,,,,,,,,,,,,,,,
,,,,,,5f06eefaf3fc742667b4e79d,629c6d10a3993586849c3790,2022-06-05_10h48.40.513,Colour_Asymmetry_Pilot,2022.1.3,Win32,37.515006,629c4b6caf241d5e6e00bfc0,0,61,61,96,1,onetwo,,,,,,,,,,,,,,,,,,,,,,,,,,,,,,,,,,,,,,,,,,,,,,,,,,,,,,,,,,,,,,,,,,,,,,,,,,,,,,,,,,,,,,,,,,,,,,,,,,,,,,,,,,,,,,,,,,,,,,,,,,,,,,,,,,,,,,,,,,,,,
,,,,,,5f06eefaf3fc742667b4e79d,629c6d10a3993586849c3790,2022-06-05_10h48.40.513,Colour_Asymmetry_Pilot,2022.1.3,Win32,37.515006,629c4b6caf241d5e6e00bfc0,0,62,62,145,1,onethree,,,,,,,,,,,,,,,,,,,,,,,,,,,,,,,,,,,,,,,,,,,,,,,,,,,,,,,,,,,,,,,,,,,,,,,,,,,,,,,,,,,,,,,,,,,,,,,,,,,,,,,,,,,,,,,,,,,,,,,,,,,,,,,,,,,,,,,,,,,,,
,,,,,,5f06eefaf3fc742667b4e79d,629c6d10a3993586849c3790,2022-06-05_10h48.40.513,Colour_Asymmetry_Pilot,2022.1.3,Win32,37.515006,629c4b6caf241d5e6e00bfc0,0,63,63,21,1,threefour,,,,,,,,,,,,,,,,,,,,,,,,,,,,,,,,,,,,,,,,,,,,,,,,,,,,,,,,,,,,,,,,,,,,,,,,,,,,,,,,,,,,,,,,,,,,,,,,,,,,,,,,,,,,,,,,,,,,,,,,,,,,,,,,,,,,,,,,,,,,,
,,,,,,5f06eefaf3fc742667b4e79d,629c6d10a3993586849c3790,2022-06-05_10h48.40.513,Colour_Asymmetry_Pilot,2022.1.3,Win32,37.515006,629c4b6caf241d5e6e00bfc0,0,64,64,136,1,onetwo,,,,,,,,,,,,,,,,,,,,,,,,,,,,,,,,,,,,,,,,,,,,,,,,,,,,,,,,,,,,,,,,,,,,,,,,,,,,,,,,,,,,,,,,,,,,,,,,,,,,,,,,,,,,,,,,,,,,,,,,,,,,,,,,,,,,,,,,,,,,,
,,,,,,5f06eefaf3fc742667b4e79d,629c6d10a3993586849c3790,2022-06-05_10h48.40.513,Colour_Asymmetry_Pilot,2022.1.3,Win32,37.515006,629c4b6caf241d5e6e00bfc0,0,65,65,119,1,fourthree,,,,,,,,,,,,,,,,,,,,,,,,,,,,,,,,,,,,,,,,,,,,,,,,,,,,,,,,,,,,,,,,,,,,,,,,,,,,,,,,,,,,,,,,,,,,,,,,,,,,,,,,,,,,,,,,,,,,,,,,,,,,,,,,,,,,,,,,,,,,,
,,,,,,5f06eefaf3fc742667b4e79d,629c6d10a3993586849c3790,2022-06-05_10h48.40.513,Colour_Asymmetry_Pilot,2022.1.3,Win32,37.515006,629c4b6caf241d5e6e00bfc0,0,66,66,61,1,threefour,,,,,,,,,,,,,,,,,,,,,,,,,,,,,,,,,,,,,,,,,,,,,,,,,,,,,,,,,,,,,,,,,,,,,,,,,,,,,,,,,,,,,,,,,,,,,,,,,,,,,,,,,,,,,,,,,,,,,,,,,,,,,,,,,,,,,,,,,,,,,
,,,,,,5f06eefaf3fc742667b4e79d,629c6d10a3993586849c3790,2022-06-05_10h48.40.513,Colour_Asymmetry_Pilot,2022.1.3,Win32,37.515006,629c4b6caf241d5e6e00bfc0,0,67,67,23,1,fourthree,,,,,,,,,,,,,,,,,,,,,,,,,,,,,,,,,,,,,,,,,,,,,,,,,,,,,,,,,,,,,,,,,,,,,,,,,,,,,,,,,,,,,,,,,,,,,,,,,,,,,,,,,,,,,,,,,,,,,,,,,,,,,,,,,,,,,,,,,,,,,
,,,,,,5f06eefaf3fc742667b4e79d,629c6d10a3993586849c3790,2022-06-05_10h48.40.513,Colour_Asymmetry_Pilot,2022.1.3,Win32,37.515006,629c4b6caf241d5e6e00bfc0,0,68,68,122,1,twoone,,,,,,,,,,,,,,,,,,,,,,,,,,,,,,,,,,,,,,,,,,,,,,,,,,,,,,,,,,,,,,,,,,,,,,,,,,,,,,,,,,,,,,,,,,,,,,,,,,,,,,,,,,,,,,,,,,,,,,,,,,,,,,,,,,,,,,,,,,,,,
,,,,,,5f06eefaf3fc742667b4e79d,629c6d10a3993586849c3790,2022-06-05_10h48.40.513,Colour_Asymmetry_Pilot,2022.1.3,Win32,37.515006,629c4b6caf241d5e6e00bfc0,0,69,69,112,1,onetwo,,,,,,,,,,,,,,,,,,,,,,,,,,,,,,,,,,,,,,,,,,,,,,,,,,,,,,,,,,,,,,,,,,,,,,,,,,,,,,,,,,,,,,,,,,,,,,,,,,,,,,,,,,,,,,,,,,,,,,,,,,,,,,,,,,,,,,,,,,,,,
,,,,,,5f06eefaf3fc742667b4e79d,629c6d10a3993586849c3790,2022-06-05_10h48.40.513,Colour_Asymmetry_Pilot,2022.1.3,Win32,37.515006,629c4b6caf241d5e6e00bfc0,0,70,70,58,1,twoone,,,,,,,,,,,,,,,,,,,,,,,,,,,,,,,,,,,,,,,,,,,,,,,,,,,,,,,,,,,,,,,,,,,,,,,,,,,,,,,,,,,,,,,,,,,,,,,,,,,,,,,,,,,,,,,,,,,,,,,,,,,,,,,,,,,,,,,,,,,,,
,,,,,,5f06eefaf3fc742667b4e79d,629c6d10a3993586849c3790,2022-06-05_10h48.40.513,Colour_Asymmetry_Pilot,2022.1.3,Win32,37.515006,629c4b6caf241d5e6e00bfc0,0,71,71,90,1,twoone,,,,,,,,,,,,,,,,,,,,,,,,,,,,,,,,,,,,,,,,,,,,,,,,,,,,,,,,,,,,,,,,,,,,,,,,,,,,,,,,,,,,,,,,,,,,,,,,,,,,,,,,,,,,,,,,,,,,,,,,,,,,,,,,,,,,,,,,,,,,,
,,,,,,5f06eefaf3fc742667b4e79d,629c6d10a3993586849c3790,2022-06-05_10h48.40.513,Colour_Asymmetry_Pilot,2022.1.3,Win32,37.515006,629c4b6caf241d5e6e00bfc0,0,72,72,24,1,onetwo,,,,,,,,,,,,,,,,,,,,,,,,,,,,,,,,,,,,,,,,,,,,,,,,,,,,,,,,,,,,,,,,,,,,,,,,,,,,,,,,,,,,,,,,,,,,,,,,,,,,,,,,,,,,,,,,,,,,,,,,,,,,,,,,,,,,,,,,,,,,,
,,,,,,5f06eefaf3fc742667b4e79d,629c6d10a3993586849c3790,2022-06-05_10h48.40.513,Colour_Asymmetry_Pilot,2022.1.3,Win32,37.515006,629c4b6caf241d5e6e00bfc0,0,73,73,38,1,fourtwo,,,,,,,,,,,,,,,,,,,,,,,,,,,,,,,,,,,,,,,,,,,,,,,,,,,,,,,,,,,,,,,,,,,,,,,,,,,,,,,,,,,,,,,,,,,,,,,,,,,,,,,,,,,,,,,,,,,,,,,,,,,,,,,,,,,,,,,,,,,,,
,,,,,,5f06eefaf3fc742667b4e79d,629c6d10a3993586849c3790,2022-06-05_10h48.40.513,Colour_Asymmetry_Pilot,2022.1.3,Win32,37.515006,629c4b6caf241d5e6e00bfc0,0,74,74,152,1,onetwo,,,,,,,,,,,,,,,,,,,,,,,,,,,,,,,,,,,,,,,,,,,,,,,,,,,,,,,,,,,,,,,,,,,,,,,,,,,,,,,,,,,,,,,,,,,,,,,,,,,,,,,,,,,,,,,,,,,,,,,,,,,,,,,,,,,,,,,,,,,,,
,,,,,,5f06eefaf3fc742667b4e79d,629c6d10a3993586849c3790,2022-06-05_10h48.40.513,Colour_Asymmetry_Pilot,2022.1.3,Win32,37.515006,629c4b6caf241d5e6e00bfc0,0,75,75,57,1,onethree,,,,,,,,,,,,,,,,,,,,,,,,,,,,,,,,,,,,,,,,,,,,,,,,,,,,,,,,,,,,,,,,,,,,,,,,,,,,,,,,,,,,,,,,,,,,,,,,,,,,,,,,,,,,,,,,,,,,,,,,,,,,,,,,,,,,,,,,,,,,,
,,,,,,5f06eefaf3fc742667b4e79d,629c6d10a3993586849c3790,2022-06-05_10h48.40.513,Colour_Asymmetry_Pilot,2022.1.3,Win32,37.515006,629c4b6caf241d5e6e00bfc0,0,76,76,80,1,onetwo,,,,,,,,,,,,,,,,,,,,,,,,,,,,,,,,,,,,,,,,,,,,,,,,,,,,,,,,,,,,,,,,,,,,,,,,,,,,,,,,,,,,,,,,,,,,,,,,,,,,,,,,,,,,,,,,,,,,,,,,,,,,,,,,,,,,,,,,,,,,,
,,,,,,5f06eefaf3fc742667b4e79d,629c6d10a3993586849c3790,2022-06-05_10h48.40.513,Colour_Asymmetry_Pilot,2022.1.3,Win32,37.515006,629c4b6caf241d5e6e00bfc0,0,77,77,159,1,fourthree,,,,,,,,,,,,,,,,,,,,,,,,,,,,,,,,,,,,,,,,,,,,,,,,,,,,,,,,,,,,,,,,,,,,,,,,,,,,,,,,,,,,,,,,,,,,,,,,,,,,,,,,,,,,,,,,,,,,,,,,,,,,,,,,,,,,,,,,,,,,,
,,,,,,5f06eefaf3fc742667b4e79d,629c6d10a3993586849c3790,2022-06-05_10h48.40.513,Colour_Asymmetry_Pilot,2022.1.3,Win32,37.515006,629c4b6caf241d5e6e00bfc0,0,78,78,129,1,onethree,,,,,,,,,,,,,,,,,,,,,,,,,,,,,,,,,,,,,,,,,,,,,,,,,,,,,,,,,,,,,,,,,,,,,,,,,,,,,,,,,,,,,,,,,,,,,,,,,,,,,,,,,,,,,,,,,,,,,,,,,,,,,,,,,,,,,,,,,,,,,
,,,,,,5f06eefaf3fc742667b4e79d,629c6d10a3993586849c3790,2022-06-05_10h48.40.513,Colour_Asymmetry_Pilot,2022.1.3,Win32,37.515006,629c4b6caf241d5e6e00bfc0,0,79,79,12,1,threeone,,,,,,,,,,,,,,,,,,,,,,,,,,,,,,,,,,,,,,,,,,,,,,,,,,,,,,,,,,,,,,,,,,,,,,,,,,,,,,,,,,,,,,,,,,,,,,,,,,,,,,,,,,,,,,,,,,,,,,,,,,,,,,,,,,,,,,,,,,,,,
,,,,,,5f06eefaf3fc742667b4e79d,629c6d10a3993586849c3790,2022-06-05_10h48.40.513,Colour_Asymmetry_Pilot,2022.1.3,Win32,37.515006,629c4b6caf241d5e6e00bfc0,0,80,80,120,1,onetwo,,,,,,,,,,,,,,,,,,,,,,,,,,,,,,,,,,,,,,,,,,,,,,,,,,,,,,,,,,,,,,,,,,,,,,,,,,,,,,,,,,,,,,,,,,,,,,,,,,,,,,,,,,,,,,,,,,,,,,,,,,,,,,,,,,,,,,,,,,,,,
,,,,,,5f06eefaf3fc742667b4e79d,629c6d10a3993586849c3790,2022-06-05_10h48.40.513,Colour_Asymmetry_Pilot,2022.1.3,Win32,37.515006,629c4b6caf241d5e6e00bfc0,0,81,81,56,1,onetwo,,,,,,,,,,,,,,,,,,,,,,,,,,,,,,,,,,,,,,,,,,,,,,,,,,,,,,,,,,,,,,,,,,,,,,,,,,,,,,,,,,,,,,,,,,,,,,,,,,,,,,,,,,,,,,,,,,,,,,,,,,,,,,,,,,,,,,,,,,,,,
,,,,,,5f06eefaf3fc742667b4e79d,629c6d10a3993586849c3790,2022-06-05_10h48.40.513,Colour_Asymmetry_Pilot,2022.1.3,Win32,37.515006,629c4b6caf241d5e6e00bfc0,0,82,82,52,1,threeone,,,,,,,,,,,,,,,,,,,,,,,,,,,,,,,,,,,,,,,,,,,,,,,,,,,,,,,,,,,,,,,,,,,,,,,,,,,,,,,,,,,,,,,,,,,,,,,,,,,,,,,,,,,,,,,,,,,,,,,,,,,,,,,,,,,,,,,,,,,,,
,,,,,,5f06eefaf3fc742667b4e79d,629c6d10a3993586849c3790,2022-06-05_10h48.40.513,Colour_Asymmetry_Pilot,2022.1.3,Win32,37.515006,629c4b6caf241d5e6e00bfc0,0,83,83,144,1,onetwo,,,,,,,,,,,,,,,,,,,,,,,,,,,,,,,,,,,,,,,,,,,,,,,,,,,,,,,,,,,,,,,,,,,,,,,,,,,,,,,,,,,,,,,,,,,,,,,,,,,,,,,,,,,,,,,,,,,,,,,,,,,,,,,,,,,,,,,,,,,,,
,,,,,,5f06eefaf3fc742667b4e79d,629c6d10a3993586849c3790,2022-06-05_10h48.40.513,Colour_Asymmetry_Pilot,2022.1.3,Win32,37.515006,629c4b6caf241d5e6e00bfc0,0,84,84,17,1,onethree,,,,,,,,,,,,,,,,,,,,,,,,,,,,,,,,,,,,,,,,,,,,,,,,,,,,,,,,,,,,,,,,,,,,,,,,,,,,,,,,,,,,,,,,,,,,,,,,,,,,,,,,,,,,,,,,,,,,,,,,,,,,,,,,,,,,,,,,,,,,,
,,,,,,5f06eefaf3fc742667b4e79d,629c6d10a3993586849c3790,2022-06-05_10h48.40.513,Colour_Asymmetry_Pilot,2022.1.3,Win32,37.515006,629c4b6caf241d5e6e00bfc0,0,85,85,36,1,threeone,,,,,,,,,,,,,,,,,,,,,,,,,,,,,,,,,,,,,,,,,,,,,,,,,,,,,,,,,,,,,,,,,,,,,,,,,,,,,,,,,,,,,,,,,,,,,,,,,,,,,,,,,,,,,,,,,,,,,,,,,,,,,,,,,,,,,,,,,,,,,
,,,,,,5f06eefaf3fc742667b4e79d,629c6d10a3993586849c3790,2022-06-05_10h48.40.513,Colour_Asymmetry_Pilot,2022.1.3,Win32,37.515006,629c4b6caf241d5e6e00bfc0,0,86,86,142,1,fourtwo,,,,,,,,,,,,,,,,,,,,,,,,,,,,,,,,,,,,,,,,,,,,,,,,,,,,,,,,,,,,,,,,,,,,,,,,,,,,,,,,,,,,,,,,,,,,,,,,,,,,,,,,,,,,,,,,,,,,,,,,,,,,,,,,,,,,,,,,,,,,,
,,,,,,5f06eefaf3fc742667b4e79d,629c6d10a3993586849c3790,2022-06-05_10h48.40.513,Colour_Asymmetry_Pilot,2022.1.3,Win32,37.515006,629c4b6caf241d5e6e00bfc0,0,87,87,51,1,twofour,,,,,,,,,,,,,,,,,,,,,,,,,,,,,,,,,,,,,,,,,,,,,,,,,,,,,,,,,,,,,,,,,,,,,,,,,,,,,,,,,,,,,,,,,,,,,,,,,,,,,,,,,,,,,,,,,,,,,,,,,,,,,,,,,,,,,,,,,,,,,
,,,,,,5f06eefaf3fc742667b4e79d,629c6d10a3993586849c3790,2022-06-05_10h48.40.513,Colour_Asymmetry_Pilot,2022.1.3,Win32,37.515006,629c4b6caf241d5e6e00bfc0,0,88,88,118,1,fourtwo,,,,,,,,,,,,,,,,,,,,,,,,,,,,,,,,,,,,,,,,,,,,,,,,,,,,,,,,,,,,,,,,,,,,,,,,,,,,,,,,,,,,,,,,,,,,,,,,,,,,,,,,,,,,,,,,,,,,,,,,,,,,,,,,,,,,,,,,,,,,,
,,,,,,5f06eefaf3fc742667b4e79d,629c6d10a3993586849c3790,2022-06-05_10h48.40.513,Colour_Asymmetry_Pilot,2022.1.3,Win32,37.515006,629c4b6caf241d5e6e00bfc0,0,89,89,3,1,twofour,,,,,,,,,,,,,,,,,,,,,,,,,,,,,,,,,,,,,,,,,,,,,,,,,,,,,,,,,,,,,,,,,,,,,,,,,,,,,,,,,,,,,,,,,,,,,,,,,,,,,,,,,,,,,,,,,,,,,,,,,,,,,,,,,,,,,,,,,,,,,
,,,,,,5f06eefaf3fc742667b4e79d,629c6d10a3993586849c3790,2022-06-05_10h48.40.513,Colour_Asymmetry_Pilot,2022.1.3,Win32,37.515006,629c4b6caf241d5e6e00bfc0,0,90,90,26,1,twoone,,,,,,,,,,,,,,,,,,,,,,,,,,,,,,,,,,,,,,,,,,,,,,,,,,,,,,,,,,,,,,,,,,,,,,,,,,,,,,,,,,,,,,,,,,,,,,,,,,,,,,,,,,,,,,,,,,,,,,,,,,,,,,,,,,,,,,,,,,,,,
,,,,,,5f06eefaf3fc742667b4e79d,629c6d10a3993586849c3790,2022-06-05_10h48.40.513,Colour_Asymmetry_Pilot,2022.1.3,Win32,37.515006,629c4b6caf241d5e6e00bfc0,0,91,91,1,1,onethree,,,,,,,,,,,,,,,,,,,,,,,,,,,,,,,,,,,,,,,,,,,,,,,,,,,,,,,,,,,,,,,,,,,,,,,,,,,,,,,,,,,,,,,,,,,,,,,,,,,,,,,,,,,,,,,,,,,,,,,,,,,,,,,,,,,,,,,,,,,,,
,,,,,,5f06eefaf3fc742667b4e79d,629c6d10a3993586849c3790,2022-06-05_10h48.40.513,Colour_Asymmetry_Pilot,2022.1.3,Win32,37.515006,629c4b6caf241d5e6e00bfc0,0,92,92,149,1,threefour,,,,,,,,,,,,,,,,,,,,,,,,,,,,,,,,,,,,,,,,,,,,,,,,,,,,,,,,,,,,,,,,,,,,,,,,,,,,,,,,,,,,,,,,,,,,,,,,,,,,,,,,,,,,,,,,,,,,,,,,,,,,,,,,,,,,,,,,,,,,,
,,,,,,5f06eefaf3fc742667b4e79d,629c6d10a3993586849c3790,2022-06-05_10h48.40.513,Colour_Asymmetry_Pilot,2022.1.3,Win32,37.515006,629c4b6caf241d5e6e00bfc0,0,93,93,73,1,onethree,,,,,,,,,,,,,,,,,,,,,,,,,,,,,,,,,,,,,,,,,,,,,,,,,,,,,,,,,,,,,,,,,,,,,,,,,,,,,,,,,,,,,,,,,,,,,,,,,,,,,,,,,,,,,,,,,,,,,,,,,,,,,,,,,,,,,,,,,,,,,
,,,,,,5f06eefaf3fc742667b4e79d,629c6d10a3993586849c3790,2022-06-05_10h48.40.513,Colour_Asymmetry_Pilot,2022.1.3,Win32,37.515006,629c4b6caf241d5e6e00bfc0,0,94,94,16,1,onetwo,,,,,,,,,,,,,,,,,,,,,,,,,,,,,,,,,,,,,,,,,,,,,,,,,,,,,,,,,,,,,,,,,,,,,,,,,,,,,,,,,,,,,,,,,,,,,,,,,,,,,,,,,,,,,,,,,,,,,,,,,,,,,,,,,,,,,,,,,,,,,
,,,,,,5f06eefaf3fc742667b4e79d,629c6d10a3993586849c3790,2022-06-05_10h48.40.513,Colour_Asymmetry_Pilot,2022.1.3,Win32,37.515006,629c4b6caf241d5e6e00bfc0,0,95,95,53,1,threefour,,,,,,,,,,,,,,,,,,,,,,,,,,,,,,,,,,,,,,,,,,,,,,,,,,,,,,,,,,,,,,,,,,,,,,,,,,,,,,,,,,,,,,,,,,,,,,,,,,,,,,,,,,,,,,,,,,,,,,,,,,,,,,,,,,,,,,,,,,,,,
,,,,,,5f06eefaf3fc742667b4e79d,629c6d10a3993586849c3790,2022-06-05_10h48.40.513,Colour_Asymmetry_Pilot,2022.1.3,Win32,37.515006,629c4b6caf241d5e6e00bfc0,0,96,96,40,1,onetwo,,,,,,,,,,,,,,,,,,,,,,,,,,,,,,,,,,,,,,,,,,,,,,,,,,,,,,,,,,,,,,,,,,,,,,,,,,,,,,,,,,,,,,,,,,,,,,,,,,,,,,,,,,,,,,,,,,,,,,,,,,,,,,,,,,,,,,,,,,,,,
,,,,,,5f06eefaf3fc742667b4e79d,629c6d10a3993586849c3790,2022-06-05_10h48.40.513,Colour_Asymmetry_Pilot,2022.1.3,Win32,37.515006,629c4b6caf241d5e6e00bfc0,0,97,97,148,1,threeone,,,,,,,,,,,,,,,,,,,,,,,,,,,,,,,,,,,,,,,,,,,,,,,,,,,,,,,,,,,,,,,,,,,,,,,,,,,,,,,,,,,,,,,,,,,,,,,,,,,,,,,,,,,,,,,,,,,,,,,,,,,,,,,,,,,,,,,,,,,,,
,,,,,,5f06eefaf3fc742667b4e79d,629c6d10a3993586849c3790,2022-06-05_10h48.40.513,Colour_Asymmetry_Pilot,2022.1.3,Win32,37.515006,629c4b6caf241d5e6e00bfc0,0,98,98,161,1,onethree,,,,,,,,,,,,,,,,,,,,,,,,,,,,,,,,,,,,,,,,,,,,,,,,,,,,,,,,,,,,,,,,,,,,,,,,,,,,,,,,,,,,,,,,,,,,,,,,,,,,,,,,,,,,,,,,,,,,,,,,,,,,,,,,,,,,,,,,,,,,,
,,,,,,5f06eefaf3fc742667b4e79d,629c6d10a3993586849c3790,2022-06-05_10h48.40.513,Colour_Asymmetry_Pilot,2022.1.3,Win32,37.515006,629c4b6caf241d5e6e00bfc0,0,99,99,150,1,fourtwo,,,,,,,,,,,,,,,,,,,,,,,,,,,,,,,,,,,,,,,,,,,,,,,,,,,,,,,,,,,,,,,,,,,,,,,,,,,,,,,,,,,,,,,,,,,,,,,,,,,,,,,,,,,,,,,,,,,,,,,,,,,,,,,,,,,,,,,,,,,,,
,,,,,,5f06eefaf3fc742667b4e79d,629c6d10a3993586849c3790,2022-06-05_10h48.40.513,Colour_Asymmetry_Pilot,2022.1.3,Win32,37.515006,629c4b6caf241d5e6e00bfc0,0,100,100,123,1,twofour,,,,,,,,,,,,,,,,,,,,,,,,,,,,,,,,,,,,,,,,,,,,,,,,,,,,,,,,,,,,,,,,,,,,,,,,,,,,,,,,,,,,,,,,,,,,,,,,,,,,,,,,,,,,,,,,,,,,,,,,,,,,,,,,,,,,,,,,,,,,,
,,,,,,5f06eefaf3fc742667b4e79d,629c6d10a3993586849c3790,2022-06-05_10h48.40.513,Colour_Asymmetry_Pilot,2022.1.3,Win32,37.515006,629c4b6caf241d5e6e00bfc0,0,101,101,127,1,fourthree,,,,,,,,,,,,,,,,,,,,,,,,,,,,,,,,,,,,,,,,,,,,,,,,,,,,,,,,,,,,,,,,,,,,,,,,,,,,,,,,,,,,,,,,,,,,,,,,,,,,,,,,,,,,,,,,,,,,,,,,,,,,,,,,,,,,,,,,,,,,,
,,,,,,5f06eefaf3fc742667b4e79d,629c6d10a3993586849c3790,2022-06-05_10h48.40.513,Colour_Asymmetry_Pilot,2022.1.3,Win32,37.515006,629c4b6caf241d5e6e00bfc0,0,102,102,143,1,fourthree,,,,,,,,,,,,,,,,,,,,,,,,,,,,,,,,,,,,,,,,,,,,,,,,,,,,,,,,,,,,,,,,,,,,,,,,,,,,,,,,,,,,,,,,,,,,,,,,,,,,,,,,,,,,,,,,,,,,,,,,,,,,,,,,,,,,,,,,,,,,,
,,,,,,5f06eefaf3fc742667b4e79d,629c6d10a3993586849c3790,2022-06-05_10h48.40.513,Colour_Asymmetry_Pilot,2022.1.3,Win32,37.515006,629c4b6caf241d5e6e00bfc0,0,103,103,115,1,twofour,,,,,,,,,,,,,,,,,,,,,,,,,,,,,,,,,,,,,,,,,,,,,,,,,,,,,,,,,,,,,,,,,,,,,,,,,,,,,,,,,,,,,,,,,,,,,,,,,,,,,,,,,,,,,,,,,,,,,,,,,,,,,,,,,,,,,,,,,,,,,
,,,,,,5f06eefaf3fc742667b4e79d,629c6d10a3993586849c3790,2022-06-05_10h48.40.513,Colour_Asymmetry_Pilot,2022.1.3,Win32,37.515006,629c4b6caf241d5e6e00bfc0,0,104,104,59,1,twofour,,,,,,,,,,,,,,,,,,,,,,,,,,,,,,,,,,,,,,,,,,,,,,,,,,,,,,,,,,,,,,,,,,,,,,,,,,,,,,,,,,,,,,,,,,,,,,,,,,,,,,,,,,,,,,,,,,,,,,,,,,,,,,,,,,,,,,,,,,,,,
,,,,,,5f06eefaf3fc742667b4e79d,629c6d10a3993586849c3790,2022-06-05_10h48.40.513,Colour_Asymmetry_Pilot,2022.1.3,Win32,37.515006,629c4b6caf241d5e6e00bfc0,0,105,105,45,1,threefour,,,,,,,,,,,,,,,,,,,,,,,,,,,,,,,,,,,,,,,,,,,,,,,,,,,,,,,,,,,,,,,,,,,,,,,,,,,,,,,,,,,,,,,,,,,,,,,,,,,,,,,,,,,,,,,,,,,,,,,,,,,,,,,,,,,,,,,,,,,,,
,,,,,,5f06eefaf3fc742667b4e79d,629c6d10a3993586849c3790,2022-06-05_10h48.40.513,Colour_Asymmetry_Pilot,2022.1.3,Win32,37.515006,629c4b6caf241d5e6e00bfc0,0,106,106,154,1,twoone,,,,,,,,,,,,,,,,,,,,,,,,,,,,,,,,,,,,,,,,,,,,,,,,,,,,,,,,,,,,,,,,,,,,,,,,,,,,,,,,,,,,,,,,,,,,,,,,,,,,,,,,,,,,,,,,,,,,,,,,,,,,,,,,,,,,,,,,,,,,,
,,,,,,5f06eefaf3fc742667b4e79d,629c6d10a3993586849c3790,2022-06-05_10h48.40.513,Colour_Asymmetry_Pilot,2022.1.3,Win32,37.515006,629c4b6caf241d5e6e00bfc0,0,107,107,108,1,threeone,,,,,,,,,,,,,,,,,,,,,,,,,,,,,,,,,,,,,,,,,,,,,,,,,,,,,,,,,,,,,,,,,,,,,,,,,,,,,,,,,,,,,,,,,,,,,,,,,,,,,,,,,,,,,,,,,,,,,,,,,,,,,,,,,,,,,,,,,,,,,
,,,,,,5f06eefaf3fc742667b4e79d,629c6d10a3993586849c3790,2022-06-05_10h48.40.513,Colour_Asymmetry_Pilot,2022.1.3,Win32,37.515006,629c4b6caf241d5e6e00bfc0,0,108,108,62,1,fourtwo,,,,,,,,,,,,,,,,,,,,,,,,,,,,,,,,,,,,,,,,,,,,,,,,,,,,,,,,,,,,,,,,,,,,,,,,,,,,,,,,,,,,,,,,,,,,,,,,,,,,,,,,,,,,,,,,,,,,,,,,,,,,,,,,,,,,,,,,,,,,,
,,,,,,5f06eefaf3fc742667b4e79d,629c6d10a3993586849c3790,2022-06-05_10h48.40.513,Colour_Asymmetry_Pilot,2022.1.3,Win32,37.515006,629c4b6caf241d5e6e00bfc0,0,109,109,102,1,fourtwo,,,,,,,,,,,,,,,,,,,,,,,,,,,,,,,,,,,,,,,,,,,,,,,,,,,,,,,,,,,,,,,,,,,,,,,,,,,,,,,,,,,,,,,,,,,,,,,,,,,,,,,,,,,,,,,,,,,,,,,,,,,,,,,,,,,,,,,,,,,,,
,,,,,,5f06eefaf3fc742667b4e79d,629c6d10a3993586849c3790,2022-06-05_10h48.40.513,Colour_Asymmetry_Pilot,2022.1.3,Win32,37.515006,629c4b6caf241d5e6e00bfc0,0,110,110,31,1,fourthree,,,,,,,,,,,,,,,,,,,,,,,,,,,,,,,,,,,,,,,,,,,,,,,,,,,,,,,,,,,,,,,,,,,,,,,,,,,,,,,,,,,,,,,,,,,,,,,,,,,,,,,,,,,,,,,,,,,,,,,,,,,,,,,,,,,,,,,,,,,,,
,,,,,,5f06eefaf3fc742667b4e79d,629c6d10a3993586849c3790,2022-06-05_10h48.40.513,Colour_Asymmetry_Pilot,2022.1.3,Win32,37.515006,629c4b6caf241d5e6e00bfc0,0,111,111,32,1,onetwo,,,,,,,,,,,,,,,,,,,,,,,,,,,,,,,,,,,,,,,,,,,,,,,,,,,,,,,,,,,,,,,,,,,,,,,,,,,,,,,,,,,,,,,,,,,,,,,,,,,,,,,,,,,,,,,,,,,,,,,,,,,,,,,,,,,,,,,,,,,,,
,,,,,,5f06eefaf3fc742667b4e79d,629c6d10a3993586849c3790,2022-06-05_10h48.40.513,Colour_Asymmetry_Pilot,2022.1.3,Win32,37.515006,629c4b6caf241d5e6e00bfc0,0,112,112,65,1,onethree,,,,,,,,,,,,,,,,,,,,,,,,,,,,,,,,,,,,,,,,,,,,,,,,,,,,,,,,,,,,,,,,,,,,,,,,,,,,,,,,,,,,,,,,,,,,,,,,,,,,,,,,,,,,,,,,,,,,,,,,,,,,,,,,,,,,,,,,,,,,,
,,,,,,5f06eefaf3fc742667b4e79d,629c6d10a3993586849c3790,2022-06-05_10h48.40.513,Colour_Asymmetry_Pilot,2022.1.3,Win32,37.515006,629c4b6caf241d5e6e00bfc0,0,113,113,101,1,threefour,,,,,,,,,,,,,,,,,,,,,,,,,,,,,,,,,,,,,,,,,,,,,,,,,,,,,,,,,,,,,,,,,,,,,,,,,,,,,,,,,,,,,,,,,,,,,,,,,,,,,,,,,,,,,,,,,,,,,,,,,,,,,,,,,,,,,,,,,,,,,
,,,,,,5f06eefaf3fc742667b4e79d,629c6d10a3993586849c3790,2022-06-05_10h48.40.513,Colour_Asymmetry_Pilot,2022.1.3,Win32,37.515006,629c4b6caf241d5e6e00bfc0,0,114,114,114,1,twoone,,,,,,,,,,,,,,,,,,,,,,,,,,,,,,,,,,,,,,,,,,,,,,,,,,,,,,,,,,,,,,,,,,,,,,,,,,,,,,,,,,,,,,,,,,,,,,,,,,,,,,,,,,,,,,,,,,,,,,,,,,,,,,,,,,,,,,,,,,,,,
,,,,,,5f06eefaf3fc742667b4e79d,629c6d10a3993586849c3790,2022-06-05_10h48.40.513,Colour_Asymmetry_Pilot,2022.1.3,Win32,37.515006,629c4b6caf241d5e6e00bfc0,0,115,115,7,1,fourthree,,,,,,,,,,,,,,,,,,,,,,,,,,,,,,,,,,,,,,,,,,,,,,,,,,,,,,,,,,,,,,,,,,,,,,,,,,,,,,,,,,,,,,,,,,,,,,,,,,,,,,,,,,,,,,,,,,,,,,,,,,,,,,,,,,,,,,,,,,,,,
,,,,,,5f06eefaf3fc742667b4e79d,629c6d10a3993586849c3790,2022-06-05_10h48.40.513,Colour_Asymmetry_Pilot,2022.1.3,Win32,37.515006,629c4b6caf241d5e6e00bfc0,0,116,116,69,1,threefour,,,,,,,,,,,,,,,,,,,,,,,,,,,,,,,,,,,,,,,,,,,,,,,,,,,,,,,,,,,,,,,,,,,,,,,,,,,,,,,,,,,,,,,,,,,,,,,,,,,,,,,,,,,,,,,,,,,,,,,,,,,,,,,,,,,,,,,,,,,,,
,,,,,,5f06eefaf3fc742667b4e79d,629c6d10a3993586849c3790,2022-06-05_10h48.40.513,Colour_Asymmetry_Pilot,2022.1.3,Win32,37.515006,629c4b6caf241d5e6e00bfc0,0,117,117,160,1,onetwo,,,,,,,,,,,,,,,,,,,,,,,,,,,,,,,,,,,,,,,,,,,,,,,,,,,,,,,,,,,,,,,,,,,,,,,,,,,,,,,,,,,,,,,,,,,,,,,,,,,,,,,,,,,,,,,,,,,,,,,,,,,,,,,,,,,,,,,,,,,,,
,,,,,,5f06eefaf3fc742667b4e79d,629c6d10a3993586849c3790,2022-06-05_10h48.40.513,Colour_Asymmetry_Pilot,2022.1.3,Win32,37.515006,629c4b6caf241d5e6e00bfc0,0,118,118,92,1,threeone,,,,,,,,,,,,,,,,,,,,,,,,,,,,,,,,,,,,,,,,,,,,,,,,,,,,,,,,,,,,,,,,,,,,,,,,,,,,,,,,,,,,,,,,,,,,,,,,,,,,,,,,,,,,,,,,,,,,,,,,,,,,,,,,,,,,,,,,,,,,,
,,,,,,5f06eefaf3fc742667b4e79d,629c6d10a3993586849c3790,2022-06-05_10h48.40.513,Colour_Asymmetry_Pilot,2022.1.3,Win32,37.515006,629c4b6caf241d5e6e00bfc0,0,119,119,4,1,threeone,,,,,,,,,,,,,,,,,,,,,,,,,,,,,,,,,,,,,,,,,,,,,,,,,,,,,,,,,,,,,,,,,,,,,,,,,,,,,,,,,,,,,,,,,,,,,,,,,,,,,,,,,,,,,,,,,,,,,,,,,,,,,,,,,,,,,,,,,,,,,
,,,,,,5f06eefaf3fc742667b4e79d,629c6d10a3993586849c3790,2022-06-05_10h48.40.513,Colour_Asymmetry_Pilot,2022.1.3,Win32,37.515006,629c4b6caf241d5e6e00bfc0,0,120,120,135,1,fourthree,,,,,,,,,,,,,,,,,,,,,,,,,,,,,,,,,,,,,,,,,,,,,,,,,,,,,,,,,,,,,,,,,,,,,,,,,,,,,,,,,,,,,,,,,,,,,,,,,,,,,,,,,,,,,,,,,,,,,,,,,,,,,,,,,,,,,,,,,,,,,
,,,,,,5f06eefaf3fc742667b4e79d,629c6d10a3993586849c3790,2022-06-05_10h48.40.513,Colour_Asymmetry_Pilot,2022.1.3,Win32,37.515006,629c4b6caf241d5e6e00bfc0,0,121,121,67,1,twofour,,,,,,,,,,,,,,,,,,,,,,,,,,,,,,,,,,,,,,,,,,,,,,,,,,,,,,,,,,,,,,,,,,,,,,,,,,,,,,,,,,,,,,,,,,,,,,,,,,,,,,,,,,,,,,,,,,,,,,,,,,,,,,,,,,,,,,,,,,,,,
,,,,,,5f06eefaf3fc742667b4e79d,629c6d10a3993586849c3790,2022-06-05_10h48.40.513,Colour_Asymmetry_Pilot,2022.1.3,Win32,37.515006,629c4b6caf241d5e6e00bfc0,0,122,122,107,1,twofour,,,,,,,,,,,,,,,,,,,,,,,,,,,,,,,,,,,,,,,,,,,,,,,,,,,,,,,,,,,,,,,,,,,,,,,,,,,,,,,,,,,,,,,,,,,,,,,,,,,,,,,,,,,,,,,,,,,,,,,,,,,,,,,,,,,,,,,,,,,,,
,,,,,,5f06eefaf3fc742667b4e79d,629c6d10a3993586849c3790,2022-06-05_10h48.40.513,Colour_Asymmetry_Pilot,2022.1.3,Win32,37.515006,629c4b6caf241d5e6e00bfc0,0,123,123,103,1,fourthree,,,,,,,,,,,,,,,,,,,,,,,,,,,,,,,,,,,,,,,,,,,,,,,,,,,,,,,,,,,,,,,,,,,,,,,,,,,,,,,,,,,,,,,,,,,,,,,,,,,,,,,,,,,,,,,,,,,,,,,,,,,,,,,,,,,,,,,,,,,,,
,,,,,,5f06eefaf3fc742667b4e79d,629c6d10a3993586849c3790,2022-06-05_10h48.40.513,Colour_Asymmetry_Pilot,2022.1.3,Win32,37.515006,629c4b6caf241d5e6e00bfc0,0,124,124,91,1,twofour,,,,,,,,,,,,,,,,,,,,,,,,,,,,,,,,,,,,,,,,,,,,,,,,,,,,,,,,,,,,,,,,,,,,,,,,,,,,,,,,,,,,,,,,,,,,,,,,,,,,,,,,,,,,,,,,,,,,,,,,,,,,,,,,,,,,,,,,,,,,,
,,,,,,5f06eefaf3fc742667b4e79d,629c6d10a3993586849c3790,2022-06-05_10h48.40.513,Colour_Asymmetry_Pilot,2022.1.3,Win32,37.515006,629c4b6caf241d5e6e00bfc0,0,125,125,124,1,threeone,,,,,,,,,,,,,,,,,,,,,,,,,,,,,,,,,,,,,,,,,,,,,,,,,,,,,,,,,,,,,,,,,,,,,,,,,,,,,,,,,,,,,,,,,,,,,,,,,,,,,,,,,,,,,,,,,,,,,,,,,,,,,,,,,,,,,,,,,,,,,
,,,,,,5f06eefaf3fc742667b4e79d,629c6d10a3993586849c3790,2022-06-05_10h48.40.513,Colour_Asymmetry_Pilot,2022.1.3,Win32,37.515006,629c4b6caf241d5e6e00bfc0,0,126,126,82,1,twoone,,,,,,,,,,,,,,,,,,,,,,,,,,,,,,,,,,,,,,,,,,,,,,,,,,,,,,,,,,,,,,,,,,,,,,,,,,,,,,,,,,,,,,,,,,,,,,,,,,,,,,,,,,,,,,,,,,,,,,,,,,,,,,,,,,,,,,,,,,,,,
,,,,,,5f06eefaf3fc742667b4e79d,629c6d10a3993586849c3790,2022-06-05_10h48.40.513,Colour_Asymmetry_Pilot,2022.1.3,Win32,37.515006,629c4b6caf241d5e6e00bfc0,0,127,127,75,1,twofour,,,,,,,,,,,,,,,,,,,,,,,,,,,,,,,,,,,,,,,,,,,,,,,,,,,,,,,,,,,,,,,,,,,,,,,,,,,,,,,,,,,,,,,,,,,,,,,,,,,,,,,,,,,,,,,,,,,,,,,,,,,,,,,,,,,,,,,,,,,,,
,,,,,,5f06eefaf3fc742667b4e79d,629c6d10a3993586849c3790,2022-06-05_10h48.40.513,Colour_Asymmetry_Pilot,2022.1.3,Win32,37.515006,629c4b6caf241d5e6e00bfc0,0,128,128,97,1,onethree,,,,,,,,,,,,,,,,,,,,,,,,,,,,,,,,,,,,,,,,,,,,,,,,,,,,,,,,,,,,,,,,,,,,,,,,,,,,,,,,,,,,,,,,,,,,,,,,,,,,,,,,,,,,,,,,,,,,,,,,,,,,,,,,,,,,,,,,,,,,,
,,,,,,5f06eefaf3fc742667b4e79d,629c6d10a3993586849c3790,2022-06-05_10h48.40.513,Colour_Asymmetry_Pilot,2022.1.3,Win32,37.515006,629c4b6caf241d5e6e00bfc0,0,129,129,43,1,twofour,,,,,,,,,,,,,,,,,,,,,,,,,,,,,,,,,,,,,,,,,,,,,,,,,,,,,,,,,,,,,,,,,,,,,,,,,,,,,,,,,,,,,,,,,,,,,,,,,,,,,,,,,,,,,,,,,,,,,,,,,,,,,,,,,,,,,,,,,,,,,
,,,,,,5f06eefaf3fc742667b4e79d,629c6d10a3993586849c3790,2022-06-05_10h48.40.513,Colour_Asymmetry_Pilot,2022.1.3,Win32,37.515006,629c4b6caf241d5e6e00bfc0,0,130,130,72,1,onetwo,,,,,,,,,,,,,,,,,,,,,,,,,,,,,,,,,,,,,,,,,,,,,,,,,,,,,,,,,,,,,,,,,,,,,,,,,,,,,,,,,,,,,,,,,,,,,,,,,,,,,,,,,,,,,,,,,,,,,,,,,,,,,,,,,,,,,,,,,,,,,
,,,,,,5f06eefaf3fc742667b4e79d,629c6d10a3993586849c3790,2022-06-05_10h48.40.513,Colour_Asymmetry_Pilot,2022.1.3,Win32,37.515006,629c4b6caf241d5e6e00bfc0,0,131,131,138,1,twoone,,,,,,,,,,,,,,,,,,,,,,,,,,,,,,,,,,,,,,,,,,,,,,,,,,,,,,,,,,,,,,,,,,,,,,,,,,,,,,,,,,,,,,,,,,,,,,,,,,,,,,,,,,,,,,,,,,,,,,,,,,,,,,,,,,,,,,,,,,,,,
,,,,,,5f06eefaf3fc742667b4e79d,629c6d10a3993586849c3790,2022-06-05_10h48.40.513,Colour_Asymmetry_Pilot,2022.1.3,Win32,37.515006,629c4b6caf241d5e6e00bfc0,0,132,132,42,1,twoone,,,,,,,,,,,,,,,,,,,,,,,,,,,,,,,,,,,,,,,,,,,,,,,,,,,,,,,,,,,,,,,,,,,,,,,,,,,,,,,,,,,,,,,,,,,,,,,,,,,,,,,,,,,,,,,,,,,,,,,,,,,,,,,,,,,,,,,,,,,,,
,,,,,,5f06eefaf3fc742667b4e79d,629c6d10a3993586849c3790,2022-06-05_10h48.40.513,Colour_Asymmetry_Pilot,2022.1.3,Win32,37.515006,629c4b6caf241d5e6e00bfc0,0,133,133,106,1,twoone,,,,,,,,,,,,,,,,,,,,,,,,,,,,,,,,,,,,,,,,,,,,,,,,,,,,,,,,,,,,,,,,,,,,,,,,,,,,,,,,,,,,,,,,,,,,,,,,,,,,,,,,,,,,,,,,,,,,,,,,,,,,,,,,,,,,,,,,,,,,,
,,,,,,5f06eefaf3fc742667b4e79d,629c6d10a3993586849c3790,2022-06-05_10h48.40.513,Colour_Asymmetry_Pilot,2022.1.3,Win32,37.515006,629c4b6caf241d5e6e00bfc0,0,134,134,19,1,twofour,,,,,,,,,,,,,,,,,,,,,,,,,,,,,,,,,,,,,,,,,,,,,,,,,,,,,,,,,,,,,,,,,,,,,,,,,,,,,,,,,,,,,,,,,,,,,,,,,,,,,,,,,,,,,,,,,,,,,,,,,,,,,,,,,,,,,,,,,,,,,
,,,,,,5f06eefaf3fc742667b4e79d,629c6d10a3993586849c3790,2022-06-05_10h48.40.513,Colour_Asymmetry_Pilot,2022.1.3,Win32,37.515006,629c4b6caf241d5e6e00bfc0,0,135,135,70,1,fourtwo,,,,,,,,,,,,,,,,,,,,,,,,,,,,,,,,,,,,,,,,,,,,,,,,,,,,,,,,,,,,,,,,,,,,,,,,,,,,,,,,,,,,,,,,,,,,,,,,,,,,,,,,,,,,,,,,,,,,,,,,,,,,,,,,,,,,,,,,,,,,,
,,,,,,5f06eefaf3fc742667b4e79d,629c6d10a3993586849c3790,2022-06-05_10h48.40.513,Colour_Asymmetry_Pilot,2022.1.3,Win32,37.515006,629c4b6caf241d5e6e00bfc0,0,136,136,98,1,twoone,,,,,,,,,,,,,,,,,,,,,,,,,,,,,,,,,,,,,,,,,,,,,,,,,,,,,,,,,,,,,,,,,,,,,,,,,,,,,,,,,,,,,,,,,,,,,,,,,,,,,,,,,,,,,,,,,,,,,,,,,,,,,,,,,,,,,,,,,,,,,
,,,,,,5f06eefaf3fc742667b4e79d,629c6d10a3993586849c3790,2022-06-05_10h48.40.513,Colour_Asymmetry_Pilot,2022.1.3,Win32,37.515006,629c4b6caf241d5e6e00bfc0,0,137,137,0,1,onetwo,,,,,,,,,,,,,,,,,,,,,,,,,,,,,,,,,,,,,,,,,,,,,,,,,,,,,,,,,,,,,,,,,,,,,,,,,,,,,,,,,,,,,,,,,,,,,,,,,,,,,,,,,,,,,,,,,,,,,,,,,,,,,,,,,,,,,,,,,,,,,
,,,,,,5f06eefaf3fc742667b4e79d,629c6d10a3993586849c3790,2022-06-05_10h48.40.513,Colour_Asymmetry_Pilot,2022.1.3,Win32,37.515006,629c4b6caf241d5e6e00bfc0,0,138,138,88,1,onetwo,,,,,,,,,,,,,,,,,,,,,,,,,,,,,,,,,,,,,,,,,,,,,,,,,,,,,,,,,,,,,,,,,,,,,,,,,,,,,,,,,,,,,,,,,,,,,,,,,,,,,,,,,,,,,,,,,,,,,,,,,,,,,,,,,,,,,,,,,,,,,
,,,,,,5f06eefaf3fc742667b4e79d,629c6d10a3993586849c3790,2022-06-05_10h48.40.513,Colour_Asymmetry_Pilot,2022.1.3,Win32,37.515006,629c4b6caf241d5e6e00bfc0,0,139,139,27,1,twofour,,,,,,,,,,,,,,,,,,,,,,,,,,,,,,,,,,,,,,,,,,,,,,,,,,,,,,,,,,,,,,,,,,,,,,,,,,,,,,,,,,,,,,,,,,,,,,,,,,,,,,,,,,,,,,,,,,,,,,,,,,,,,,,,,,,,,,,,,,,,,
,,,,,,5f06eefaf3fc742667b4e79d,629c6d10a3993586849c3790,2022-06-05_10h48.40.513,Colour_Asymmetry_Pilot,2022.1.3,Win32,37.515006,629c4b6caf241d5e6e00bfc0,0,140,140,5,1,threefour,,,,,,,,,,,,,,,,,,,,,,,,,,,,,,,,,,,,,,,,,,,,,,,,,,,,,,,,,,,,,,,,,,,,,,,,,,,,,,,,,,,,,,,,,,,,,,,,,,,,,,,,,,,,,,,,,,,,,,,,,,,,,,,,,,,,,,,,,,,,,
,,,,,,5f06eefaf3fc742667b4e79d,629c6d10a3993586849c3790,2022-06-05_10h48.40.513,Colour_Asymmetry_Pilot,2022.1.3,Win32,37.515006,629c4b6caf241d5e6e00bfc0,0,141,141,68,1,threeone,,,,,,,,,,,,,,,,,,,,,,,,,,,,,,,,,,,,,,,,,,,,,,,,,,,,,,,,,,,,,,,,,,,,,,,,,,,,,,,,,,,,,,,,,,,,,,,,,,,,,,,,,,,,,,,,,,,,,,,,,,,,,,,,,,,,,,,,,,,,,
,,,,,,5f06eefaf3fc742667b4e79d,629c6d10a3993586849c3790,2022-06-05_10h48.40.513,Colour_Asymmetry_Pilot,2022.1.3,Win32,37.515006,629c4b6caf241d5e6e00bfc0,0,142,142,84,1,threeone,,,,,,,,,,,,,,,,,,,,,,,,,,,,,,,,,,,,,,,,,,,,,,,,,,,,,,,,,,,,,,,,,,,,,,,,,,,,,,,,,,,,,,,,,,,,,,,,,,,,,,,,,,,,,,,,,,,,,,,,,,,,,,,,,,,,,,,,,,,,,
,,,,,,5f06eefaf3fc742667b4e79d,629c6d10a3993586849c3790,2022-06-05_10h48.40.513,Colour_Asymmetry_Pilot,2022.1.3,Win32,37.515006,629c4b6caf241d5e6e00bfc0,0,143,143,131,1,twofour,,,,,,,,,,,,,,,,,,,,,,,,,,,,,,,,,,,,,,,,,,,,,,,,,,,,,,,,,,,,,,,,,,,,,,,,,,,,,,,,,,,,,,,,,,,,,,,,,,,,,,,,,,,,,,,,,,,,,,,,,,,,,,,,,,,,,,,,,,,,,
,,,,,,5f06eefaf3fc742667b4e79d,629c6d10a3993586849c3790,2022-06-05_10h48.40.513,Colour_Asymmetry_Pilot,2022.1.3,Win32,37.515006,629c4b6caf241d5e6e00bfc0,0,144,144,128,1,onetwo,,,,,,,,,,,,,,,,,,,,,,,,,,,,,,,,,,,,,,,,,,,,,,,,,,,,,,,,,,,,,,,,,,,,,,,,,,,,,,,,,,,,,,,,,,,,,,,,,,,,,,,,,,,,,,,,,,,,,,,,,,,,,,,,,,,,,,,,,,,,,
,,,,,,5f06eefaf3fc742667b4e79d,629c6d10a3993586849c3790,2022-06-05_10h48.40.513,Colour_Asymmetry_Pilot,2022.1.3,Win32,37.515006,629c4b6caf241d5e6e00bfc0,0,145,145,55,1,fourthree,,,,,,,,,,,,,,,,,,,,,,,,,,,,,,,,,,,,,,,,,,,,,,,,,,,,,,,,,,,,,,,,,,,,,,,,,,,,,,,,,,,,,,,,,,,,,,,,,,,,,,,,,,,,,,,,,,,,,,,,,,,,,,,,,,,,,,,,,,,,,
,,,,,,5f06eefaf3fc742667b4e79d,629c6d10a3993586849c3790,2022-06-05_10h48.40.513,Colour_Asymmetry_Pilot,2022.1.3,Win32,37.515006,629c4b6caf241d5e6e00bfc0,0,146,146,47,1,fourthree,,,,,,,,,,,,,,,,,,,,,,,,,,,,,,,,,,,,,,,,,,,,,,,,,,,,,,,,,,,,,,,,,,,,,,,,,,,,,,,,,,,,,,,,,,,,,,,,,,,,,,,,,,,,,,,,,,,,,,,,,,,,,,,,,,,,,,,,,,,,,
,,,,,,5f06eefaf3fc742667b4e79d,629c6d10a3993586849c3790,2022-06-05_10h48.40.513,Colour_Asymmetry_Pilot,2022.1.3,Win32,37.515006,629c4b6caf241d5e6e00bfc0,0,147,147,71,1,fourthree,,,,,,,,,,,,,,,,,,,,,,,,,,,,,,,,,,,,,,,,,,,,,,,,,,,,,,,,,,,,,,,,,,,,,,,,,,,,,,,,,,,,,,,,,,,,,,,,,,,,,,,,,,,,,,,,,,,,,,,,,,,,,,,,,,,,,,,,,,,,,
,,,,,,5f06eefaf3fc742667b4e79d,629c6d10a3993586849c3790,2022-06-05_10h48.40.513,Colour_Asymmetry_Pilot,2022.1.3,Win32,37.515006,629c4b6caf241d5e6e00bfc0,0,148,148,64,1,onetwo,,,,,,,,,,,,,,,,,,,,,,,,,,,,,,,,,,,,,,,,,,,,,,,,,,,,,,,,,,,,,,,,,,,,,,,,,,,,,,,,,,,,,,,,,,,,,,,,,,,,,,,,,,,,,,,,,,,,,,,,,,,,,,,,,,,,,,,,,,,,,
,,,,,,5f06eefaf3fc742667b4e79d,629c6d10a3993586849c3790,2022-06-05_10h48.40.513,Colour_Asymmetry_Pilot,2022.1.3,Win32,37.515006,629c4b6caf241d5e6e00bfc0,0,149,149,15,1,fourthree,,,,,,,,,,,,,,,,,,,,,,,,,,,,,,,,,,,,,,,,,,,,,,,,,,,,,,,,,,,,,,,,,,,,,,,,,,,,,,,,,,,,,,,,,,,,,,,,,,,,,,,,,,,,,,,,,,,,,,,,,,,,,,,,,,,,,,,,,,,,,
,,,,,,5f06eefaf3fc742667b4e79d,629c6d10a3993586849c3790,2022-06-05_10h48.40.513,Colour_Asymmetry_Pilot,2022.1.3,Win32,37.515006,629c4b6caf241d5e6e00bfc0,0,150,150,113,1,onethree,,,,,,,,,,,,,,,,,,,,,,,,,,,,,,,,,,,,,,,,,,,,,,,,,,,,,,,,,,,,,,,,,,,,,,,,,,,,,,,,,,,,,,,,,,,,,,,,,,,,,,,,,,,,,,,,,,,,,,,,,,,,,,,,,,,,,,,,,,,,,
,,,,,,5f06eefaf3fc742667b4e79d,629c6d10a3993586849c3790,2022-06-05_10h48.40.513,Colour_Asymmetry_Pilot,2022.1.3,Win32,37.515006,629c4b6caf241d5e6e00bfc0,0,151,151,35,1,twofour,,,,,,,,,,,,,,,,,,,,,,,,,,,,,,,,,,,,,,,,,,,,,,,,,,,,,,,,,,,,,,,,,,,,,,,,,,,,,,,,,,,,,,,,,,,,,,,,,,,,,,,,,,,,,,,,,,,,,,,,,,,,,,,,,,,,,,,,,,,,,
,,,,,,5f06eefaf3fc742667b4e79d,629c6d10a3993586849c3790,2022-06-05_10h48.40.513,Colour_Asymmetry_Pilot,2022.1.3,Win32,37.515006,629c4b6caf241d5e6e00bfc0,0,152,152,18,1,twoone,,,,,,,,,,,,,,,,,,,,,,,,,,,,,,,,,,,,,,,,,,,,,,,,,,,,,,,,,,,,,,,,,,,,,,,,,,,,,,,,,,,,,,,,,,,,,,,,,,,,,,,,,,,,,,,,,,,,,,,,,,,,,,,,,,,,,,,,,,,,,
,,,,,,5f06eefaf3fc742667b4e79d,629c6d10a3993586849c3790,2022-06-05_10h48.40.513,Colour_Asymmetry_Pilot,2022.1.3,Win32,37.515006,629c4b6caf241d5e6e00bfc0,0,153,153,37,1,threefour,,,,,,,,,,,,,,,,,,,,,,,,,,,,,,,,,,,,,,,,,,,,,,,,,,,,,,,,,,,,,,,,,,,,,,,,,,,,,,,,,,,,,,,,,,,,,,,,,,,,,,,,,,,,,,,,,,,,,,,,,,,,,,,,,,,,,,,,,,,,,
,,,,,,5f06eefaf3fc742667b4e79d,629c6d10a3993586849c3790,2022-06-05_10h48.40.513,Colour_Asymmetry_Pilot,2022.1.3,Win32,37.515006,629c4b6caf241d5e6e00bfc0,0,154,154,9,1,onethree,,,,,,,,,,,,,,,,,,,,,,,,,,,,,,,,,,,,,,,,,,,,,,,,,,,,,,,,,,,,,,,,,,,,,,,,,,,,,,,,,,,,,,,,,,,,,,,,,,,,,,,,,,,,,,,,,,,,,,,,,,,,,,,,,,,,,,,,,,,,,
,,,,,,5f06eefaf3fc742667b4e79d,629c6d10a3993586849c3790,2022-06-05_10h48.40.513,Colour_Asymmetry_Pilot,2022.1.3,Win32,37.515006,629c4b6caf241d5e6e00bfc0,0,155,155,60,1,threeone,,,,,,,,,,,,,,,,,,,,,,,,,,,,,,,,,,,,,,,,,,,,,,,,,,,,,,,,,,,,,,,,,,,,,,,,,,,,,,,,,,,,,,,,,,,,,,,,,,,,,,,,,,,,,,,,,,,,,,,,,,,,,,,,,,,,,,,,,,,,,
,,,,,,5f06eefaf3fc742667b4e79d,629c6d10a3993586849c3790,2022-06-05_10h48.40.513,Colour_Asymmetry_Pilot,2022.1.3,Win32,37.515006,629c4b6caf241d5e6e00bfc0,0,156,156,39,1,fourthree,,,,,,,,,,,,,,,,,,,,,,,,,,,,,,,,,,,,,,,,,,,,,,,,,,,,,,,,,,,,,,,,,,,,,,,,,,,,,,,,,,,,,,,,,,,,,,,,,,,,,,,,,,,,,,,,,,,,,,,,,,,,,,,,,,,,,,,,,,,,,
,,,,,,5f06eefaf3fc742667b4e79d,629c6d10a3993586849c3790,2022-06-05_10h48.40.513,Colour_Asymmetry_Pilot,2022.1.3,Win32,37.515006,629c4b6caf241d5e6e00bfc0,0,157,157,50,1,twoone,,,,,,,,,,,,,,,,,,,,,,,,,,,,,,,,,,,,,,,,,,,,,,,,,,,,,,,,,,,,,,,,,,,,,,,,,,,,,,,,,,,,,,,,,,,,,,,,,,,,,,,,,,,,,,,,,,,,,,,,,,,,,,,,,,,,,,,,,,,,,
,,,,,,5f06eefaf3fc742667b4e79d,629c6d10a3993586849c3790,2022-06-05_10h48.40.513,Colour_Asymmetry_Pilot,2022.1.3,Win32,37.515006,629c4b6caf241d5e6e00bfc0,0,158,158,29,1,threefour,,,,,,,,,,,,,,,,,,,,,,,,,,,,,,,,,,,,,,,,,,,,,,,,,,,,,,,,,,,,,,,,,,,,,,,,,,,,,,,,,,,,,,,,,,,,,,,,,,,,,,,,,,,,,,,,,,,,,,,,,,,,,,,,,,,,,,,,,,,,,
,,,,,,5f06eefaf3fc742667b4e79d,629c6d10a3993586849c3790,2022-06-05_10h48.40.513,Colour_Asymmetry_Pilot,2022.1.3,Win32,37.515006,629c4b6caf241d5e6e00bfc0,0,159,159,125,1,threefour,,,,,,,,,,,,,,,,,,,,,,,,,,,,,,,,,,,,,,,,,,,,,,,,,,,,,,,,,,,,,,,,,,,,,,,,,,,,,,,,,,,,,,,,,,,,,,,,,,,,,,,,,,,,,,,,,,,,,,,,,,,,,,,,,,,,,,,,,,,,,
,,,,,,5f06eefaf3fc742667b4e79d,629c6d10a3993586849c3790,2022-06-05_10h48.40.513,Colour_Asymmetry_Pilot,2022.1.3,Win32,37.515006,629c4b6caf241d5e6e00bfc0,0,160,160,77,1,threefour,,,,,,,,,,,,,,,,,,,,,,,,,,,,,,,,,,,,,,,,,,,,,,,,,,,,,,,,,,,,,,,,,,,,,,,,,,,,,,,,,,,,,,,,,,,,,,,,,,,,,,,,,,,,,,,,,,,,,,,,,,,,,,,,,,,,,,,,,,,,,
,,,,,,5f06eefaf3fc742667b4e79d,629c6d10a3993586849c3790,2022-06-05_10h48.40.513,Colour_Asymmetry_Pilot,2022.1.3,Win32,37.515006,629c4b6caf241d5e6e00bfc0,0,161,161,121,1,onethree,,,,,,,,,,,,,,,,,,,,,,,,,,,,,,,,,,,,,,,,,,,,,,,,,,,,,,,,,,,,,,,,,,,,,,,,,,,,,,,,,,,,,,,,,,,,,,,,,,,,,,,,,,,,,,,,,,,,,,,,,,,,,,,,,,,,,,,,,,,,,
,,,,,,5f06eefaf3fc742667b4e79d,629c6d10a3993586849c3790,2022-06-05_10h48.40.513,Colour_Asymmetry_Pilot,2022.1.3,Win32,37.515006,629c4b6caf241d5e6e00bfc0,,,,,,,space,6.565,space,7.055,space,65.93,space,20.632,space,4.837,space,13.656,"[-0.6,0.16860000000000008,0.44300000000000006]",onetwo,"[-0.7412000000000001,-0.08239999999999992,-0.6864]",4,13.16,38,80,1,0,0,response1disk_5,0,1,1,0,0,rectangle_8,0,1,1,0,0,4,0,1,1,0,0,0,0,0,0,1,,,,,,,,,,,,,,,,,,,,,,,,,,,,,,,,,,,,,,,,,,,,,,,,,,,,,,,,,,,,,,,,,,,,,,,,,,,,,,,,,,,,,,,,,,,,,,,,
,,,,,,5f06eefaf3fc742667b4e79d,629c6d10a3993586849c3790,2022-06-05_10h48.40.513,Colour_Asymmetry_Pilot,2022.1.3,Win32,37.515006,629c4b6caf241d5e6e00bfc0,,,,,,,,,,,,,,,,,,,"[0.0351999999999999,0.41159999999999997,0.0038000000000000256]",threeone,"[0.3802000000000001,0.19199999999999995,-0.6394]",1,5.257,37,-90,1,0,0,response3disk_5,4,0,1,0,0,rectangle_8,38,88,1,0,0,4,-6,-2,1,0,0,1,0,1,0,1,response1disk_7,7,rectangle_4,,,,,,,,,,,,,,,,,,,,,,,,,,,,,,,,,,,,,,,,,,,,,,,,,,,,,,,,,,,,,,,,,,,,,,,,,,,,,,,,,,,,,,,,,,,,,
,,,,,,5f06eefaf3fc742667b4e79d,629c6d10a3993586849c3790,2022-06-05_10h48.40.513,Colour_Asymmetry_Pilot,2022.1.3,Win32,37.515006,629c4b6caf241d5e6e00bfc0,,,,,,,,,,,,,,,,,,,"[-0.24719999999999998,-0.0354000000000001,0.3175999999999999]",onetwo,"[0.3568,-0.20799999999999996,-0.9844]",-2,5.237,-94,-39,1,0,0,response5disk_5,1,-3,1,0,0,rectangle_8,43,81,1,0,0,4,6,-2,1,0,0,2,0,2,0,1,response1disk_7,7,rectangle_4,,,,,,,,,,,,,,,,,,,,,,,,,,,,,,,,,,,,,,,,,,,,,,,,,,,,,,,,,,,,,,,,,,,,,,,,,,,,,,,,,,,,,,,,,,,,,
,,,,,,5f06eefaf3fc742667b4e79d,629c6d10a3993586849c3790,2022-06-05_10h48.40.513,Colour_Asymmetry_Pilot,2022.1.3,Win32,37.515006,629c4b6caf241d5e6e00bfc0,,,,,,,,,,,,,,,,,,,"[-0.050999999999999934,-0.6706000000000001,-0.804]",fourthree,"[0.2784,-0.31000000000000005,-0.5452]",2,3.495,77,-40,1,0,0,response3disk_5,3,11,1,0,0,rectangle_8,3,11,1,0,0,4,3,11,1,0,0,3,0,3,0,1,,,,,,,,,,,,,,,,,,,,,,,,,,,,,,,,,,,,,,,,,,,,,,,,,,,,,,,,,,,,,,,,,,,,,,,,,,,,,,,,,,,,,,,,,,,,,,,,
,,,,,,5f06eefaf3fc742667b4e79d,629c6d10a3993586849c3790,2022-06-05_10h48.40.513,Colour_Asymmetry_Pilot,2022.1.3,Win32,37.515006,629c4b6caf241d5e6e00bfc0,,,,,,,,,,,,,,,,,,,"[-0.9844,-0.9688,-0.9922]",threeone,"[0.9763999999999999,-0.1137999999999999,-0.6314]",-4,2.105,-45,85,1,0,0,response7disk_5,-2,1,1,0,0,rectangle_8,-2,1,1,0,0,4,-2,1,1,0,0,4,0,4,0,1,,,,,,,,,,,,,,,,,,,,,,,,,,,,,,,,,,,,,,,,,,,,,,,,,,,,,,,,,,,,,,,,,,,,,,,,,,,,,,,,,,,,,,,,,,,,,,,,
,,,,,,5f06eefaf3fc742667b4e79d,629c6d10a3993586849c3790,2022-06-05_10h48.40.513,Colour_Asymmetry_Pilot,2022.1.3,Win32,37.515006,629c4b6caf241d5e6e00bfc0,,,,,,,,,,,,,,,,,,,"[0.9213999999999998,0.6391999999999998,-0.9922]",onetwo,"[0.9686000000000001,0.5763999999999998,0.11359999999999992]",2,1.881,67,-35,1,0,0,response3disk_5,-3,4,1,0,0,rectangle_8,-3,4,1,0,0,4,-3,4,1,0,0,5,0,5,0,1,,,,,,,,,,,,,,,,,,,,,,,,,,,,,,,,,,,,,,,,,,,,,,,,,,,,,,,,,,,,,,,,,,,,,,,,,,,,,,,,,,,,,,,,,,,,,,,,
,,,,,,5f06eefaf3fc742667b4e79d,629c6d10a3993586849c3790,2022-06-05_10h48.40.513,Colour_Asymmetry_Pilot,2022.1.3,Win32,37.515006,629c4b6caf241d5e6e00bfc0,,,,,,,,,,,,,,,,,,,"[0.04299999999999993,0.16060000000000008,-0.6628000000000001]",fourthree,"[0.9372,0.20779999999999998,0.2704]",-2,8.662,-88,-42,1,0,0,response5disk_5,-6,-8,1,0,0,rectangle_8,-6,-8,1,0,0,4,-6,-8,1,0,0,6,0,6,0,1,,,,,,,,,,,,,,,,,,,,,,,,,,,,,,,,,,,,,,,,,,,,,,,,,,,,,,,,,,,,,,,,,,,,,,,,,,,,,,,,,,,,,,,,,,,,,,,,
,,,,,,5f06eefaf3fc742667b4e79d,629c6d10a3993586849c3790,2022-06-05_10h48.40.513,Colour_Asymmetry_Pilot,2022.1.3,Win32,37.515006,629c4b6caf241d5e6e00bfc0,,,,,,,,,,,,,,,,,,,,twoone,,-3,2.176,,,,,,,,,,,,,,,,,,,,,,,,,,,,,,,,space,5.148,"[-0.8198,-0.5138,-0.7492000000000001]","[0.19199999999999995,0.18419999999999992,0.5136000000000001]",-84,34,1,0,0,response7disk,-2,4,1,0,0,rectangle,-2,4,1,0,0,,3,0.003,0,-2,4,1,0,0,0,0,0,106,1,25,second,,,,,,,,,,,,,,,,,,,,,,,,,,,,,,,,,,,,,,,,,,,,,,,,,,,,,,,,
,,,,,,5f06eefaf3fc742667b4e79d,629c6d10a3993586849c3790,2022-06-05_10h48.40.513,Colour_Asymmetry_Pilot,2022.1.3,Win32,37.515006,629c4b6caf241d5e6e00bfc0,,,,,,,,,,,,,,,,,,,,fourtwo,,-4,0.978,,,,,,,,,,,,,,,,,,,,,,,,,,,,,,,,,,"[0.9842,0.7409999999999999,-0.6628000000000001]","[-0.4982,-0.2942,-0.0354000000000001]",-50,100,1,0,0,response7disk,6,6,1,0,0,rectangle,6,6,1,0,0,,1,0.003,0,6,6,1,0,0,0,1,1,155,1,74,second,,,,,,,,,,,,,,,,,,,,,,,,,,,,,,,,,,,,,,,,,,,,,,,,,,,,,,,,
,,,,,,5f06eefaf3fc742667b4e79d,629c6d10a3993586849c3790,2022-06-05_10h48.40.513,Colour_Asymmetry_Pilot,2022.1.3,Win32,37.515006,629c4b6caf241d5e6e00bfc0,,,,,,,,,,,,,,,,,,,,twofour,,3,2.892,,,,,,,,,,,,,,,,,,,,,,,,,,,,,,,,,,"[-0.9296,-0.12959999999999994,-0.043199999999999905]","[-0.9138,-0.5296000000000001,-0.5529999999999999]",87,43,1,0,0,response1disk,-9,-3,1,0,0,rectangle,-9,-3,1,0,0,,2,0.002,0,-9,-3,1,0,0,0,2,2,12,1,12,first,,,,,,,,,,,,,,,,,,,,,,,,,,,,,,,,,,,,,,,,,,,,,,,,,,,,,,,,
,,,,,,5f06eefaf3fc742667b4e79d,629c6d10a3993586849c3790,2022-06-05_10h48.40.513,Colour_Asymmetry_Pilot,2022.1.3,Win32,37.515006,629c4b6caf241d5e6e00bfc0,,,,,,,,,,,,,,,,,,,,threeone,,2,1.509,,,,,,,,,,,,,,,,,,,,,,,,,,,,,,,,,,"[0.3881999999999999,-0.23939999999999995,-0.05040000000000011]","[-0.10599999999999998,-0.10599999999999998,0.5841999999999998]",78,-37,1,0,0,response3disk,0,-4,1,0,0,rectangle,0,-4,1,0,0,,1,0.002,0,0,-4,1,0,0,0,3,3,110,1,29,second,,,,,,,,,,,,,,,,,,,,,,,,,,,,,,,,,,,,,,,,,,,,,,,,,,,,,,,,
,,,,,,5f06eefaf3fc742667b4e79d,629c6d10a3993586849c3790,2022-06-05_10h48.40.513,Colour_Asymmetry_Pilot,2022.1.3,Win32,37.515006,629c4b6caf241d5e6e00bfc0,,,,,,,,,,,,,,,,,,,,threefour,,1,1.651,,,,,,,,,,,,,,,,,,,,,,,,,,,,,,,,,,"[0.4196,0.4665999999999999,0.3568]","[0.3802000000000001,0.19199999999999995,-0.6394]",41,-78,1,0,0,response3disk,-7,3,1,0,0,rectangle,-7,3,1,0,0,,3,0.002,0,-7,3,1,0,0,0,4,4,96,1,15,second,,,,,,,,,,,,,,,,,,,,,,,,,,,,,,,,,,,,,,,,,,,,,,,,,,,,,,,,
,,,,,,5f06eefaf3fc742667b4e79d,629c6d10a3993586849c3790,2022-06-05_10h48.40.513,Colour_Asymmetry_Pilot,2022.1.3,Win32,37.515006,629c4b6caf241d5e6e00bfc0,,,,,,,,,,,,,,,,,,,,onethree,,-4,1.619,,,,,,,,,,,,,,,,,,,,,,,,,,,,,,,,,,"[-0.45899999999999996,-0.3256,-0.9374]","[-0.9844,-0.9688,-0.9922]",-35,87,1,0,0,response7disk,0,3,1,0,0,rectangle,0,3,1,0,0,,3,0.001,0,0,3,1,0,0,0,5,5,45,1,45,first,,,,,,,,,,,,,,,,,,,,,,,,,,,,,,,,,,,,,,,,,,,,,,,,,,,,,,,,
,,,,,,5f06eefaf3fc742667b4e79d,629c6d10a3993586849c3790,2022-06-05_10h48.40.513,Colour_Asymmetry_Pilot,2022.1.3,Win32,37.515006,629c4b6caf241d5e6e00bfc0,,,,,,,,,,,,,,,,,,,,fourtwo,,3,2.903,,,,,,,,,,,,,,,,,,,,,,,,,,,,,,,,,,"[0.34099999999999997,0.5841999999999998,-0.9844]","[0.6625999999999999,0.4980000000000002,-0.357]",82,36,1,0,0,response1disk,-1,-5,1,0,0,rectangle,-1,-5,1,0,0,,1,0.003,0,-1,-5,1,0,0,0,6,6,24,1,24,first,,,,,,,,,,,,,,,,,,,,,,,,,,,,,,,,,,,,,,,,,,,,,,,,,,,,,,,,
,,,,,,5f06eefaf3fc742667b4e79d,629c6d10a3993586849c3790,2022-06-05_10h48.40.513,Colour_Asymmetry_Pilot,2022.1.3,Win32,37.515006,629c4b6caf241d5e6e00bfc0,,,,,,,,,,,,,,,,,,,,fourthree,,2,1.496,,,,,,,,,,,,,,,,,,,,,,,,,,,,,,,,,,"[-0.9138,-0.5296000000000001,-0.5529999999999999]","[0.34099999999999997,0.12939999999999996,-0.9766]",86,-42,1,0,0,response3disk,-2,1,1,0,0,rectangle,86,-35,1,0,0,2,2,3.475,1,-9,-6,1,0,0,0,7,7,76,1,76,first,response3disk_3,rectangle,,,,,,,,,,,,,,,,,,,,,,,,,,,,,,,,,,,,,,,,,,,,,,,,,,,,,,
,,,,,,5f06eefaf3fc742667b4e79d,629c6d10a3993586849c3790,2022-06-05_10h48.40.513,Colour_Asymmetry_Pilot,2022.1.3,Win32,37.515006,629c4b6caf241d5e6e00bfc0,,,,,,,,,,,,,,,,,,,,threeone,,-2,3.077,,,,,,,,,,,,,,,,,,,,,,,,,,,,,,,,,,"[-0.45899999999999996,-0.3256,-0.9374]","[-0.4746,-0.0354000000000001,0.5449999999999999]",-84,-40,1,0,0,response5disk,-16,1,1,0,0,rectangle,-16,1,1,0,0,2,1,0.002,0,-16,1,1,0,0,0,8,8,58,1,58,first,,,,,,,,,,,,,,,,,,,,,,,,,,,,,,,,,,,,,,,,,,,,,,,,,,,,,,,,
,,,,,,5f06eefaf3fc742667b4e79d,629c6d10a3993586849c3790,2022-06-05_10h48.40.513,Colour_Asymmetry_Pilot,2022.1.3,Win32,37.515006,629c4b6caf241d5e6e00bfc0,,,,,,,,,,,,,,,,,,,,twofour,,-3,1.289,,,,,,,,,,,,,,,,,,,,,,,,,,,,,,,,,,"[0.9686000000000001,0.5763999999999998,0.11359999999999992]","[-0.5452,-0.608,0.2470000000000001]",-92,35,1,0,0,response7disk,-5,-6,1,0,0,rectangle,-5,-6,1,0,0,2,3,0.002,0,-5,-6,1,0,0,0,9,9,128,1,47,second,,,,,,,,,,,,,,,,,,,,,,,,,,,,,,,,,,,,,,,,,,,,,,,,,,,,,,,,
,,,,,,5f06eefaf3fc742667b4e79d,629c6d10a3993586849c3790,2022-06-05_10h48.40.513,Colour_Asymmetry_Pilot,2022.1.3,Win32,37.515006,629c4b6caf241d5e6e00bfc0,,,,,,,,,,,,,,,,,,,,twofour,,-2,1.235,,,,,,,,,,,,,,,,,,,,,,,,,,,,,,,,,,"[-0.8982,-0.37259999999999993,0.2784]","[0.7018,0.7802,-0.16079999999999994]",-73,-39,1,0,0,response5disk,2,4,1,0,0,rectangle,2,4,1,0,0,2,3,0,0,2,4,1,0,0,0,10,10,100,1,19,second,,,,,,,,,,,,,,,,,,,,,,,,,,,,,,,,,,,,,,,,,,,,,,,,,,,,,,,,
,,,,,,5f06eefaf3fc742667b4e79d,629c6d10a3993586849c3790,2022-06-05_10h48.40.513,Colour_Asymmetry_Pilot,2022.1.3,Win32,37.515006,629c4b6caf241d5e6e00bfc0,,,,,,,,,,,,,,,,,,,,threeone,,3,1.144,,,,,,,,,,,,,,,,,,,,,,,,,,,,,,,,,,"[-0.0040000000000000036,0.02739999999999987,-0.08239999999999992]","[0.04299999999999993,0.16060000000000008,-0.6628000000000001]",85,38,1,0,0,response1disk,-2,-10,1,0,0,rectangle,-2,-10,1,0,0,2,3,0,0,-2,-10,1,0,0,0,11,11,123,1,42,second,,,,,,,,,,,,,,,,,,,,,,,,,,,,,,,,,,,,,,,,,,,,,,,,,,,,,,,,
,,,,,,5f06eefaf3fc742667b4e79d,629c6d10a3993586849c3790,2022-06-05_10h48.40.513,Colour_Asymmetry_Pilot,2022.1.3,Win32,37.515006,629c4b6caf241d5e6e00bfc0,,,,,,,,,,,,,,,,,,,,twoone,,2,1.158,,,,,,,,,,,,,,,,,,,,,,,,,,,,,,,,,,"[-0.45899999999999996,-0.3256,-0.9374]","[0.5528,0.7409999999999999,-0.71]",66,-42,1,0,0,response3disk,0,-5,1,0,0,rectangle,0,-5,1,0,0,2,1,0.001,0,0,-5,1,0,0,0,12,12,20,1,20,first,,,,,,,,,,,,,,,,,,,,,,,,,,,,,,,,,,,,,,,,,,,,,,,,,,,,,,,,
,,,,,,5f06eefaf3fc742667b4e79d,629c6d10a3993586849c3790,2022-06-05_10h48.40.513,Colour_Asymmetry_Pilot,2022.1.3,Win32,37.515006,629c4b6caf241d5e6e00bfc0,,,,,,,,,,,,,,,,,,,,threefour,,1,1.75,,,,,,,,,,,,,,,,,,,,,,,,,,,,,,,,,,"[-0.07459999999999989,0.12139999999999995,-0.9922]","[-0.09019999999999995,0.44300000000000006,0.5371999999999999]",37,-85,1,0,0,response3disk,1,-8,1,0,0,rectangle,1,-8,1,0,0,2,1,0.001,0,1,-8,1,0,0,0,13,13,86,1,5,second,,,,,,,,,,,,,,,,,,,,,,,,,,,,,,,,,,,,,,,,,,,,,,,,,,,,,,,,
,,,,,,5f06eefaf3fc742667b4e79d,629c6d10a3993586849c3790,2022-06-05_10h48.40.513,Colour_Asymmetry_Pilot,2022.1.3,Win32,37.515006,629c4b6caf241d5e6e00bfc0,,,,,,,,,,,,,,,,,,,,twoone,,4,1.415,,,,,,,,,,,,,,,,,,,,,,,,,,,,,,,,,,"[0.34099999999999997,0.12939999999999996,-0.9766]","[0.34099999999999997,0.12939999999999996,-0.9766]",29,70,1,0,0,response1disk,-12,0,1,0,0,rectangle,-12,0,1,0,0,2,1,0,0,-12,0,1,0,0,0,14,14,111,1,30,second,,,,,,,,,,,,,,,,,,,,,,,,,,,,,,,,,,,,,,,,,,,,,,,,,,,,,,,,
,,,,,,5f06eefaf3fc742667b4e79d,629c6d10a3993586849c3790,2022-06-05_10h48.40.513,Colour_Asymmetry_Pilot,2022.1.3,Win32,37.515006,629c4b6caf241d5e6e00bfc0,,,,,,,,,,,,,,,,,,,,onethree,,-2,2.729,,,,,,,,,,,,,,,,,,,,,,,,,,,,,,,,,,"[-0.8982,-0.37259999999999993,0.2784]","[0.9686000000000001,0.5763999999999998,0.11359999999999992]",-84,-41,1,0,0,response5disk,-1,1,1,0,0,rectangle,-1,1,1,0,0,2,1,0,0,-1,1,1,0,0,0,15,15,1,1,1,first,,,,,,,,,,,,,,,,,,,,,,,,,,,,,,,,,,,,,,,,,,,,,,,,,,,,,,,,
,,,,,,5f06eefaf3fc742667b4e79d,629c6d10a3993586849c3790,2022-06-05_10h48.40.513,Colour_Asymmetry_Pilot,2022.1.3,Win32,37.515006,629c4b6caf241d5e6e00bfc0,,,,,,,,,,,,,,,,,,,,twoone,,-3,1.156,,,,,,,,,,,,,,,,,,,,,,,,,,,,,,,,,,"[-0.5452,-0.608,0.2470000000000001]","[0.9686000000000001,0.5763999999999998,0.11359999999999992]",-81,40,1,0,0,response7disk,2,-1,1,0,0,rectangle,2,-1,1,0,0,2,1,0.001,0,2,-1,1,0,0,0,16,16,47,1,47,first,,,,,,,,,,,,,,,,,,,,,,,,,,,,,,,,,,,,,,,,,,,,,,,,,,,,,,,,
,,,,,,5f06eefaf3fc742667b4e79d,629c6d10a3993586849c3790,2022-06-05_10h48.40.513,Colour_Asymmetry_Pilot,2022.1.3,Win32,37.515006,629c4b6caf241d5e6e00bfc0,,,,,,,,,,,,,,,,,,,,fourthree,,3,0.976,,,,,,,,,,,,,,,,,,,,,,,,,,,,,,,,,,"[-0.34920000000000007,-0.702,-0.5216]","[-0.6235999999999999,-0.6786,-0.08239999999999992]",71,46,1,0,0,response1disk,-11,-7,1,0,0,rectangle,-11,-7,1,0,0,2,3,0.002,0,-11,-7,1,0,0,0,17,17,140,1,59,second,,,,,,,,,,,,,,,,,,,,,,,,,,,,,,,,,,,,,,,,,,,,,,,,,,,,,,,,
,,,,,,5f06eefaf3fc742667b4e79d,629c6d10a3993586849c3790,2022-06-05_10h48.40.513,Colour_Asymmetry_Pilot,2022.1.3,Win32,37.515006,629c4b6caf241d5e6e00bfc0,,,,,,,,,,,,,,,,,,,,twoone,,-3,1.482,,,,,,,,,,,,,,,,,,,,,,,,,,,,,,,,,,"[-0.38039999999999996,-0.4276,-0.1452]","[0.9763999999999999,-0.1137999999999999,-0.6314]",-91,33,1,0,0,response7disk,3,-8,1,0,0,rectangle,3,-8,1,0,0,2,1,0.002,0,3,-8,1,0,0,0,18,18,9,1,9,first,,,,,,,,,,,,,,,,,,,,,,,,,,,,,,,,,,,,,,,,,,,,,,,,,,,,,,,,
,,,,,,5f06eefaf3fc742667b4e79d,629c6d10a3993586849c3790,2022-06-05_10h48.40.513,Colour_Asymmetry_Pilot,2022.1.3,Win32,37.515006,629c4b6caf241d5e6e00bfc0,,,,,,,,,,,,,,,,,,,,threefour,,2,1.528,,,,,,,,,,,,,,,,,,,,,,,,,,,,,,,,,,"[-0.24719999999999998,-0.0354000000000001,0.3175999999999999]","[-0.17659999999999998,0.3253999999999999,0.19999999999999996]",78,-32,1,0,0,response3disk,-5,-6,1,0,0,rectangle,-5,-6,1,0,0,2,2,0.002,0,-5,-6,1,0,0,0,19,19,16,1,16,first,,,,,,,,,,,,,,,,,,,,,,,,,,,,,,,,,,,,,,,,,,,,,,,,,,,,,,,,
,,,,,,5f06eefaf3fc742667b4e79d,629c6d10a3993586849c3790,2022-06-05_10h48.40.513,Colour_Asymmetry_Pilot,2022.1.3,Win32,37.515006,629c4b6caf241d5e6e00bfc0,,,,,,,,,,,,,,,,,,,,threeone,,-1,0.981,,,,,,,,,,,,,,,,,,,,,,,,,,,,,,,,,,"[0.5528,0.7409999999999999,-0.71]","[-0.09019999999999995,0.44300000000000006,0.5371999999999999]",-53,-78,1,0,0,response5disk,-13,-3,1,0,0,rectangle,-13,-3,1,0,0,2,1,0.002,0,-13,-3,1,0,0,0,20,20,133,1,52,second,,,,,,,,,,,,,,,,,,,,,,,,,,,,,,,,,,,,,,,,,,,,,,,,,,,,,,,,
,,,,,,5f06eefaf3fc742667b4e79d,629c6d10a3993586849c3790,2022-06-05_10h48.40.513,Colour_Asymmetry_Pilot,2022.1.3,Win32,37.515006,629c4b6caf241d5e6e00bfc0,,,,,,,,,,,,,,,,,,,,onetwo,,4,1.148,,,,,,,,,,,,,,,,,,,,,,,,,,,,,,,,,,"[0.4196,0.4665999999999999,0.3568]","[0.23920000000000008,0.2704,0.16060000000000008]",48,76,1,0,0,response1disk,-1,1,1,0,0,rectangle,-1,1,1,0,0,2,1,0,0,-1,1,1,0,0,0,21,21,72,1,72,first,,,,,,,,,,,,,,,,,,,,,,,,,,,,,,,,,,,,,,,,,,,,,,,,,,,,,,,,
,,,,,,5f06eefaf3fc742667b4e79d,629c6d10a3993586849c3790,2022-06-05_10h48.40.513,Colour_Asymmetry_Pilot,2022.1.3,Win32,37.515006,629c4b6caf241d5e6e00bfc0,,,,,,,,,,,,,,,,,,,,fourthree,,-4,0.905,,,,,,,,,,,,,,,,,,,,,,,,,,,,,,,,,,"[-0.6,0.16860000000000008,0.44300000000000006]","[-0.34920000000000007,-0.702,-0.5216]",-36,87,1,0,0,response7disk,-2,1,1,0,0,rectangle,-2,1,1,0,0,2,1,0,0,-2,1,1,0,0,0,22,22,6,1,6,first,,,,,,,,,,,,,,,,,,,,,,,,,,,,,,,,,,,,,,,,,,,,,,,,,,,,,,,,
,,,,,,5f06eefaf3fc742667b4e79d,629c6d10a3993586849c3790,2022-06-05_10h48.40.513,Colour_Asymmetry_Pilot,2022.1.3,Win32,37.515006,629c4b6caf241d5e6e00bfc0,,,,,,,,,,,,,,,,,,,,twofour,,-1,1.163,,,,,,,,,,,,,,,,,,,,,,,,,,,,,,,,,,"[-0.011800000000000033,-0.906,-0.45100000000000007]","[-0.26280000000000003,-0.2158,-0.3256]",-35,-75,1,0,0,response5disk,-1,6,1,0,0,rectangle,-1,6,1,0,0,2,1,0.001,0,-1,6,1,0,0,0,23,23,49,1,49,first,,,,,,,,,,,,,,,,,,,,,,,,,,,,,,,,,,,,,,,,,,,,,,,,,,,,,,,,
,,,,,,5f06eefaf3fc742667b4e79d,629c6d10a3993586849c3790,2022-06-05_10h48.40.513,Colour_Asymmetry_Pilot,2022.1.3,Win32,37.515006,629c4b6caf241d5e6e00bfc0,,,,,,,,,,,,,,,,,,,,onetwo,,-1,1.946,,,,,,,,,,,,,,,,,,,,,,,,,,,,,,,,,,"[0.3881999999999999,-0.23939999999999995,-0.05040000000000011]","[-0.4982,-0.2942,-0.0354000000000001]",-59,-73,1,0,0,response5disk,7,6,1,0,0,rectangle,7,6,1,0,0,2,2,0.002,0,7,6,1,0,0,0,24,24,151,1,70,second,,,,,,,,,,,,,,,,,,,,,,,,,,,,,,,,,,,,,,,,,,,,,,,,,,,,,,,,
,,,,,,5f06eefaf3fc742667b4e79d,629c6d10a3993586849c3790,2022-06-05_10h48.40.513,Colour_Asymmetry_Pilot,2022.1.3,Win32,37.515006,629c4b6caf241d5e6e00bfc0,,,,,,,,,,,,,,,,,,,,threefour,,-1,0.963,,,,,,,,,,,,,,,,,,,,,,,,,,,,,,,,,,"[-0.0040000000000000036,0.02739999999999987,-0.08239999999999992]","[-0.48240000000000005,0.3175999999999999,0.2156]",-46,-85,1,0,0,response5disk,6,-1,1,0,0,rectangle,6,-1,1,0,0,2,1,0.002,0,6,-1,1,0,0,0,25,25,132,1,51,second,,,,,,,,,,,,,,,,,,,,,,,,,,,,,,,,,,,,,,,,,,,,,,,,,,,,,,,,
,,,,,,5f06eefaf3fc742667b4e79d,629c6d10a3993586849c3790,2022-06-05_10h48.40.513,Colour_Asymmetry_Pilot,2022.1.3,Win32,37.515006,629c4b6caf241d5e6e00bfc0,,,,,,,,,,,,,,,,,,,,fourthree,,-4,0.832,,,,,,,,,,,,,,,,,,,,,,,,,,,,,,,,,,"[-0.01980000000000004,-0.5138,-0.38039999999999996]","[0.5528,0.7409999999999999,-0.71]",-49,64,1,0,0,response7disk,-3,-5,1,0,0,rectangle,-3,-5,1,0,0,2,2,0.002,0,-3,-5,1,0,0,0,26,26,129,1,48,second,,,,,,,,,,,,,,,,,,,,,,,,,,,,,,,,,,,,,,,,,,,,,,,,,,,,,,,,
,,,,,,5f06eefaf3fc742667b4e79d,629c6d10a3993586849c3790,2022-06-05_10h48.40.513,Colour_Asymmetry_Pilot,2022.1.3,Win32,37.515006,629c4b6caf241d5e6e00bfc0,,,,,,,,,,,,,,,,,,,,threefour,,2,0.977,,,,,,,,,,,,,,,,,,,,,,,,,,,,,,,,,,"[-0.9138,-0.5296000000000001,-0.5529999999999999]","[-0.9296,-0.12959999999999994,-0.043199999999999905]",76,-46,1,0,0,response3disk,-4,9,1,0,0,rectangle,-4,9,1,0,0,2,3,0.001,0,-4,9,1,0,0,0,27,27,93,1,12,second,,,,,,,,,,,,,,,,,,,,,,,,,,,,,,,,,,,,,,,,,,,,,,,,,,,,,,,,
,,,,,,5f06eefaf3fc742667b4e79d,629c6d10a3993586849c3790,2022-06-05_10h48.40.513,Colour_Asymmetry_Pilot,2022.1.3,Win32,37.515006,629c4b6caf241d5e6e00bfc0,,,,,,,,,,,,,,,,,,,,twoone,,-2,0.898,,,,,,,,,,,,,,,,,,,,,,,,,,,,,,,,,,"[-0.34920000000000007,-0.702,-0.5216]","[-0.48240000000000005,0.3175999999999999,0.2156]",-81,-39,1,0,0,response5disk,-5,-8,1,0,0,rectangle,77,33,1,0,0,3,3,2.477,1,4,4,1,0,0,0,28,28,55,1,55,first,response1disk_3,rectangle,,,,,,,,,,,,,,,,,,,,,,,,,,,,,,,,,,,,,,,,,,,,,,,,,,,,,,
