trials.thisRepN,trials.thisTrialN,trials.thisN,trials.thisIndex,trials.ran,Colourcodes,participant,session,date,expName,psychopyVersion,OS,frameRate,study_id,trials_4.thisRepN,trials_4.thisTrialN,trials_4.thisN,trials_4.thisIndex,trials_4.ran,StimulusPos,key_resp.keys,key_resp.rt,key_resp_2.keys,key_resp_2.rt,key_resp_15.keys,key_resp_15.rt,key_resp_17.keys,key_resp_17.rt,key_resp_9.keys,key_resp_9.rt,key_resp_10.keys,key_resp_10.rt,Circle1_col,Ecc,Circle2_col,similarity,response_time,mouse_5.x,mouse_5.y,mouse_5.leftButton,mouse_5.midButton,mouse_5.rightButton,mouse_5.clicked_name,mouse_10.x,mouse_10.y,mouse_10.leftButton,mouse_10.midButton,mouse_10.rightButton,mouse_10.clicked_name,mouse_7.x,mouse_7.y,mouse_7.leftButton,mouse_7.midButton,mouse_7.rightButton,catchnumberprac,mouse_6.x,mouse_6.y,mouse_6.leftButton,mouse_6.midButton,mouse_6.rightButton,duringprac.thisRepN,duringprac.thisTrialN,duringprac.thisN,duringprac.thisIndex,duringprac.ran,mouse_7.clicked_name,catchprac,mouse_6.clicked_name,key_resp_22.keys,key_resp_22.rt,Circle1_colour,Circle2_colour,mouse.x,mouse.y,mouse.leftButton,mouse.midButton,mouse.rightButton,mouse.clicked_name,mouse_2.x,mouse_2.y,mouse_2.leftButton,mouse_2.midButton,mouse_2.rightButton,mouse_2.clicked_name,mouse_3.x,mouse_3.y,mouse_3.leftButton,mouse_3.midButton,mouse_3.rightButton,catchresponse,catchnumber,response_time_catch,Catch,mouse_11.x,mouse_11.y,mouse_11.leftButton,mouse_11.midButton,mouse_11.rightButton,trials_2.thisRepN,trials_2.thisTrialN,trials_2.thisN,trials_2.thisIndex,trials_2.ran,Colourpair,Temporder,mouse_3.clicked_name,mouse_11.clicked_name,trials_3.thisRepN,trials_3.thisTrialN,trials_3.thisN,trials_3.thisIndex,trials_3.ran,key_resp_instr_Ishi.keys,key_resp_instr_Ishi.rt,Ishi_trial_keyresp.keys,Ishi_trial_keyresp.rt,Ishi_textbox.text,Ishi_loop.thisRepN,Ishi_loop.thisTrialN,Ishi_loop.thisN,Ishi_loop.thisIndex,Ishi_loop.ran,imageaddress,textbox.text,mouse_4.x,mouse_4.y,mouse_4.leftButton,mouse_4.midButton,mouse_4.rightButton,mouse_4.clicked_name,textbox_2.text,mouse_8.x,mouse_8.y,mouse_8.leftButton,mouse_8.midButton,mouse_8.rightButton,mouse_8.clicked_name,textbox_3.text,mouse_9.x,mouse_9.y,mouse_9.leftButton,mouse_9.midButton,mouse_9.rightButton,mouse_9.clicked_name,textbox_4.text,mouse_12.x,mouse_12.y,mouse_12.leftButton,mouse_12.midButton,mouse_12.rightButton,mouse_12.clicked_name,textbox_5.text,mouse_13.x,mouse_13.y,mouse_13.leftButton,mouse_13.midButton,mouse_13.rightButton,mouse_13.clicked_name,textbox_6.text,mouse_14.x,mouse_14.y,mouse_14.leftButton,mouse_14.midButton,mouse_14.rightButton,mouse_14.clicked_name,textbox_7.text,mouse_15.x,mouse_15.y,mouse_15.leftButton,mouse_15.midButton,mouse_15.rightButton,mouse_15.clicked_name
0,0,0,23,1,,6163df3f316fdfd57f02e51f,62bbfb540ebbeb5d2e6a7de8,2022-06-29_09h12.59.944,Colour_Asymmetry_Pilot,2022.1.3,Win32,60.0024001,62bbe60bf3d75ef465d3e404,,,,,,,,,,,,,,,,,,,,,,,,,,,,,,,,,,,,,,,,,,,,,,,,,,,,,,,,,,,,,,,,,,,,,,,,,,,,,,,,,,,,,,,,,,,,,,,,,,,,,,,,,,,,,,,,,,,,,,,,,,,,,,,,,,,,,,,,,,,,,,,,,,,,,,,,,,,,,,
0,1,1,68,1,,6163df3f316fdfd57f02e51f,62bbfb540ebbeb5d2e6a7de8,2022-06-29_09h12.59.944,Colour_Asymmetry_Pilot,2022.1.3,Win32,60.0024001,62bbe60bf3d75ef465d3e404,,,,,,,,,,,,,,,,,,,,,,,,,,,,,,,,,,,,,,,,,,,,,,,,,,,,,,,,,,,,,,,,,,,,,,,,,,,,,,,,,,,,,,,,,,,,,,,,,,,,,,,,,,,,,,,,,,,,,,,,,,,,,,,,,,,,,,,,,,,,,,,,,,,,,,,,,,,,,,
0,2,2,50,1,,6163df3f316fdfd57f02e51f,62bbfb540ebbeb5d2e6a7de8,2022-06-29_09h12.59.944,Colour_Asymmetry_Pilot,2022.1.3,Win32,60.0024001,62bbe60bf3d75ef465d3e404,,,,,,,,,,,,,,,,,,,,,,,,,,,,,,,,,,,,,,,,,,,,,,,,,,,,,,,,,,,,,,,,,,,,,,,,,,,,,,,,,,,,,,,,,,,,,,,,,,,,,,,,,,,,,,,,,,,,,,,,,,,,,,,,,,,,,,,,,,,,,,,,,,,,,,,,,,,,,,
0,3,3,2,1,,6163df3f316fdfd57f02e51f,62bbfb540ebbeb5d2e6a7de8,2022-06-29_09h12.59.944,Colour_Asymmetry_Pilot,2022.1.3,Win32,60.0024001,62bbe60bf3d75ef465d3e404,,,,,,,,,,,,,,,,,,,,,,,,,,,,,,,,,,,,,,,,,,,,,,,,,,,,,,,,,,,,,,,,,,,,,,,,,,,,,,,,,,,,,,,,,,,,,,,,,,,,,,,,,,,,,,,,,,,,,,,,,,,,,,,,,,,,,,,,,,,,,,,,,,,,,,,,,,,,,,
0,4,4,58,1,,6163df3f316fdfd57f02e51f,62bbfb540ebbeb5d2e6a7de8,2022-06-29_09h12.59.944,Colour_Asymmetry_Pilot,2022.1.3,Win32,60.0024001,62bbe60bf3d75ef465d3e404,,,,,,,,,,,,,,,,,,,,,,,,,,,,,,,,,,,,,,,,,,,,,,,,,,,,,,,,,,,,,,,,,,,,,,,,,,,,,,,,,,,,,,,,,,,,,,,,,,,,,,,,,,,,,,,,,,,,,,,,,,,,,,,,,,,,,,,,,,,,,,,,,,,,,,,,,,,,,,
0,5,5,57,1,,6163df3f316fdfd57f02e51f,62bbfb540ebbeb5d2e6a7de8,2022-06-29_09h12.59.944,Colour_Asymmetry_Pilot,2022.1.3,Win32,60.0024001,62bbe60bf3d75ef465d3e404,,,,,,,,,,,,,,,,,,,,,,,,,,,,,,,,,,,,,,,,,,,,,,,,,,,,,,,,,,,,,,,,,,,,,,,,,,,,,,,,,,,,,,,,,,,,,,,,,,,,,,,,,,,,,,,,,,,,,,,,,,,,,,,,,,,,,,,,,,,,,,,,,,,,,,,,,,,,,,
0,6,6,29,1,,6163df3f316fdfd57f02e51f,62bbfb540ebbeb5d2e6a7de8,2022-06-29_09h12.59.944,Colour_Asymmetry_Pilot,2022.1.3,Win32,60.0024001,62bbe60bf3d75ef465d3e404,,,,,,,,,,,,,,,,,,,,,,,,,,,,,,,,,,,,,,,,,,,,,,,,,,,,,,,,,,,,,,,,,,,,,,,,,,,,,,,,,,,,,,,,,,,,,,,,,,,,,,,,,,,,,,,,,,,,,,,,,,,,,,,,,,,,,,,,,,,,,,,,,,,,,,,,,,,,,,
0,7,7,21,1,,6163df3f316fdfd57f02e51f,62bbfb540ebbeb5d2e6a7de8,2022-06-29_09h12.59.944,Colour_Asymmetry_Pilot,2022.1.3,Win32,60.0024001,62bbe60bf3d75ef465d3e404,,,,,,,,,,,,,,,,,,,,,,,,,,,,,,,,,,,,,,,,,,,,,,,,,,,,,,,,,,,,,,,,,,,,,,,,,,,,,,,,,,,,,,,,,,,,,,,,,,,,,,,,,,,,,,,,,,,,,,,,,,,,,,,,,,,,,,,,,,,,,,,,,,,,,,,,,,,,,,
0,8,8,42,1,,6163df3f316fdfd57f02e51f,62bbfb540ebbeb5d2e6a7de8,2022-06-29_09h12.59.944,Colour_Asymmetry_Pilot,2022.1.3,Win32,60.0024001,62bbe60bf3d75ef465d3e404,,,,,,,,,,,,,,,,,,,,,,,,,,,,,,,,,,,,,,,,,,,,,,,,,,,,,,,,,,,,,,,,,,,,,,,,,,,,,,,,,,,,,,,,,,,,,,,,,,,,,,,,,,,,,,,,,,,,,,,,,,,,,,,,,,,,,,,,,,,,,,,,,,,,,,,,,,,,,,
0,9,9,31,1,,6163df3f316fdfd57f02e51f,62bbfb540ebbeb5d2e6a7de8,2022-06-29_09h12.59.944,Colour_Asymmetry_Pilot,2022.1.3,Win32,60.0024001,62bbe60bf3d75ef465d3e404,,,,,,,,,,,,,,,,,,,,,,,,,,,,,,,,,,,,,,,,,,,,,,,,,,,,,,,,,,,,,,,,,,,,,,,,,,,,,,,,,,,,,,,,,,,,,,,,,,,,,,,,,,,,,,,,,,,,,,,,,,,,,,,,,,,,,,,,,,,,,,,,,,,,,,,,,,,,,,
0,10,10,75,1,,6163df3f316fdfd57f02e51f,62bbfb540ebbeb5d2e6a7de8,2022-06-29_09h12.59.944,Colour_Asymmetry_Pilot,2022.1.3,Win32,60.0024001,62bbe60bf3d75ef465d3e404,,,,,,,,,,,,,,,,,,,,,,,,,,,,,,,,,,,,,,,,,,,,,,,,,,,,,,,,,,,,,,,,,,,,,,,,,,,,,,,,,,,,,,,,,,,,,,,,,,,,,,,,,,,,,,,,,,,,,,,,,,,,,,,,,,,,,,,,,,,,,,,,,,,,,,,,,,,,,,
0,11,11,6,1,,6163df3f316fdfd57f02e51f,62bbfb540ebbeb5d2e6a7de8,2022-06-29_09h12.59.944,Colour_Asymmetry_Pilot,2022.1.3,Win32,60.0024001,62bbe60bf3d75ef465d3e404,,,,,,,,,,,,,,,,,,,,,,,,,,,,,,,,,,,,,,,,,,,,,,,,,,,,,,,,,,,,,,,,,,,,,,,,,,,,,,,,,,,,,,,,,,,,,,,,,,,,,,,,,,,,,,,,,,,,,,,,,,,,,,,,,,,,,,,,,,,,,,,,,,,,,,,,,,,,,,
0,12,12,82,1,,6163df3f316fdfd57f02e51f,62bbfb540ebbeb5d2e6a7de8,2022-06-29_09h12.59.944,Colour_Asymmetry_Pilot,2022.1.3,Win32,60.0024001,62bbe60bf3d75ef465d3e404,,,,,,,,,,,,,,,,,,,,,,,,,,,,,,,,,,,,,,,,,,,,,,,,,,,,,,,,,,,,,,,,,,,,,,,,,,,,,,,,,,,,,,,,,,,,,,,,,,,,,,,,,,,,,,,,,,,,,,,,,,,,,,,,,,,,,,,,,,,,,,,,,,,,,,,,,,,,,,
0,13,13,47,1,,6163df3f316fdfd57f02e51f,62bbfb540ebbeb5d2e6a7de8,2022-06-29_09h12.59.944,Colour_Asymmetry_Pilot,2022.1.3,Win32,60.0024001,62bbe60bf3d75ef465d3e404,,,,,,,,,,,,,,,,,,,,,,,,,,,,,,,,,,,,,,,,,,,,,,,,,,,,,,,,,,,,,,,,,,,,,,,,,,,,,,,,,,,,,,,,,,,,,,,,,,,,,,,,,,,,,,,,,,,,,,,,,,,,,,,,,,,,,,,,,,,,,,,,,,,,,,,,,,,,,,
0,14,14,64,1,,6163df3f316fdfd57f02e51f,62bbfb540ebbeb5d2e6a7de8,2022-06-29_09h12.59.944,Colour_Asymmetry_Pilot,2022.1.3,Win32,60.0024001,62bbe60bf3d75ef465d3e404,,,,,,,,,,,,,,,,,,,,,,,,,,,,,,,,,,,,,,,,,,,,,,,,,,,,,,,,,,,,,,,,,,,,,,,,,,,,,,,,,,,,,,,,,,,,,,,,,,,,,,,,,,,,,,,,,,,,,,,,,,,,,,,,,,,,,,,,,,,,,,,,,,,,,,,,,,,,,,
0,15,15,55,1,,6163df3f316fdfd57f02e51f,62bbfb540ebbeb5d2e6a7de8,2022-06-29_09h12.59.944,Colour_Asymmetry_Pilot,2022.1.3,Win32,60.0024001,62bbe60bf3d75ef465d3e404,,,,,,,,,,,,,,,,,,,,,,,,,,,,,,,,,,,,,,,,,,,,,,,,,,,,,,,,,,,,,,,,,,,,,,,,,,,,,,,,,,,,,,,,,,,,,,,,,,,,,,,,,,,,,,,,,,,,,,,,,,,,,,,,,,,,,,,,,,,,,,,,,,,,,,,,,,,,,,
0,16,16,62,1,,6163df3f316fdfd57f02e51f,62bbfb540ebbeb5d2e6a7de8,2022-06-29_09h12.59.944,Colour_Asymmetry_Pilot,2022.1.3,Win32,60.0024001,62bbe60bf3d75ef465d3e404,,,,,,,,,,,,,,,,,,,,,,,,,,,,,,,,,,,,,,,,,,,,,,,,,,,,,,,,,,,,,,,,,,,,,,,,,,,,,,,,,,,,,,,,,,,,,,,,,,,,,,,,,,,,,,,,,,,,,,,,,,,,,,,,,,,,,,,,,,,,,,,,,,,,,,,,,,,,,,
0,17,17,60,1,,6163df3f316fdfd57f02e51f,62bbfb540ebbeb5d2e6a7de8,2022-06-29_09h12.59.944,Colour_Asymmetry_Pilot,2022.1.3,Win32,60.0024001,62bbe60bf3d75ef465d3e404,,,,,,,,,,,,,,,,,,,,,,,,,,,,,,,,,,,,,,,,,,,,,,,,,,,,,,,,,,,,,,,,,,,,,,,,,,,,,,,,,,,,,,,,,,,,,,,,,,,,,,,,,,,,,,,,,,,,,,,,,,,,,,,,,,,,,,,,,,,,,,,,,,,,,,,,,,,,,,
0,18,18,26,1,,6163df3f316fdfd57f02e51f,62bbfb540ebbeb5d2e6a7de8,2022-06-29_09h12.59.944,Colour_Asymmetry_Pilot,2022.1.3,Win32,60.0024001,62bbe60bf3d75ef465d3e404,,,,,,,,,,,,,,,,,,,,,,,,,,,,,,,,,,,,,,,,,,,,,,,,,,,,,,,,,,,,,,,,,,,,,,,,,,,,,,,,,,,,,,,,,,,,,,,,,,,,,,,,,,,,,,,,,,,,,,,,,,,,,,,,,,,,,,,,,,,,,,,,,,,,,,,,,,,,,,
0,19,19,52,1,,6163df3f316fdfd57f02e51f,62bbfb540ebbeb5d2e6a7de8,2022-06-29_09h12.59.944,Colour_Asymmetry_Pilot,2022.1.3,Win32,60.0024001,62bbe60bf3d75ef465d3e404,,,,,,,,,,,,,,,,,,,,,,,,,,,,,,,,,,,,,,,,,,,,,,,,,,,,,,,,,,,,,,,,,,,,,,,,,,,,,,,,,,,,,,,,,,,,,,,,,,,,,,,,,,,,,,,,,,,,,,,,,,,,,,,,,,,,,,,,,,,,,,,,,,,,,,,,,,,,,,
0,20,20,39,1,,6163df3f316fdfd57f02e51f,62bbfb540ebbeb5d2e6a7de8,2022-06-29_09h12.59.944,Colour_Asymmetry_Pilot,2022.1.3,Win32,60.0024001,62bbe60bf3d75ef465d3e404,,,,,,,,,,,,,,,,,,,,,,,,,,,,,,,,,,,,,,,,,,,,,,,,,,,,,,,,,,,,,,,,,,,,,,,,,,,,,,,,,,,,,,,,,,,,,,,,,,,,,,,,,,,,,,,,,,,,,,,,,,,,,,,,,,,,,,,,,,,,,,,,,,,,,,,,,,,,,,
0,21,21,1,1,,6163df3f316fdfd57f02e51f,62bbfb540ebbeb5d2e6a7de8,2022-06-29_09h12.59.944,Colour_Asymmetry_Pilot,2022.1.3,Win32,60.0024001,62bbe60bf3d75ef465d3e404,,,,,,,,,,,,,,,,,,,,,,,,,,,,,,,,,,,,,,,,,,,,,,,,,,,,,,,,,,,,,,,,,,,,,,,,,,,,,,,,,,,,,,,,,,,,,,,,,,,,,,,,,,,,,,,,,,,,,,,,,,,,,,,,,,,,,,,,,,,,,,,,,,,,,,,,,,,,,,
0,22,22,65,1,,6163df3f316fdfd57f02e51f,62bbfb540ebbeb5d2e6a7de8,2022-06-29_09h12.59.944,Colour_Asymmetry_Pilot,2022.1.3,Win32,60.0024001,62bbe60bf3d75ef465d3e404,,,,,,,,,,,,,,,,,,,,,,,,,,,,,,,,,,,,,,,,,,,,,,,,,,,,,,,,,,,,,,,,,,,,,,,,,,,,,,,,,,,,,,,,,,,,,,,,,,,,,,,,,,,,,,,,,,,,,,,,,,,,,,,,,,,,,,,,,,,,,,,,,,,,,,,,,,,,,,
0,23,23,48,1,,6163df3f316fdfd57f02e51f,62bbfb540ebbeb5d2e6a7de8,2022-06-29_09h12.59.944,Colour_Asymmetry_Pilot,2022.1.3,Win32,60.0024001,62bbe60bf3d75ef465d3e404,,,,,,,,,,,,,,,,,,,,,,,,,,,,,,,,,,,,,,,,,,,,,,,,,,,,,,,,,,,,,,,,,,,,,,,,,,,,,,,,,,,,,,,,,,,,,,,,,,,,,,,,,,,,,,,,,,,,,,,,,,,,,,,,,,,,,,,,,,,,,,,,,,,,,,,,,,,,,,
0,24,24,37,1,,6163df3f316fdfd57f02e51f,62bbfb540ebbeb5d2e6a7de8,2022-06-29_09h12.59.944,Colour_Asymmetry_Pilot,2022.1.3,Win32,60.0024001,62bbe60bf3d75ef465d3e404,,,,,,,,,,,,,,,,,,,,,,,,,,,,,,,,,,,,,,,,,,,,,,,,,,,,,,,,,,,,,,,,,,,,,,,,,,,,,,,,,,,,,,,,,,,,,,,,,,,,,,,,,,,,,,,,,,,,,,,,,,,,,,,,,,,,,,,,,,,,,,,,,,,,,,,,,,,,,,
0,25,25,79,1,,6163df3f316fdfd57f02e51f,62bbfb540ebbeb5d2e6a7de8,2022-06-29_09h12.59.944,Colour_Asymmetry_Pilot,2022.1.3,Win32,60.0024001,62bbe60bf3d75ef465d3e404,,,,,,,,,,,,,,,,,,,,,,,,,,,,,,,,,,,,,,,,,,,,,,,,,,,,,,,,,,,,,,,,,,,,,,,,,,,,,,,,,,,,,,,,,,,,,,,,,,,,,,,,,,,,,,,,,,,,,,,,,,,,,,,,,,,,,,,,,,,,,,,,,,,,,,,,,,,,,,
0,26,26,80,1,,6163df3f316fdfd57f02e51f,62bbfb540ebbeb5d2e6a7de8,2022-06-29_09h12.59.944,Colour_Asymmetry_Pilot,2022.1.3,Win32,60.0024001,62bbe60bf3d75ef465d3e404,,,,,,,,,,,,,,,,,,,,,,,,,,,,,,,,,,,,,,,,,,,,,,,,,,,,,,,,,,,,,,,,,,,,,,,,,,,,,,,,,,,,,,,,,,,,,,,,,,,,,,,,,,,,,,,,,,,,,,,,,,,,,,,,,,,,,,,,,,,,,,,,,,,,,,,,,,,,,,
0,27,27,12,1,,6163df3f316fdfd57f02e51f,62bbfb540ebbeb5d2e6a7de8,2022-06-29_09h12.59.944,Colour_Asymmetry_Pilot,2022.1.3,Win32,60.0024001,62bbe60bf3d75ef465d3e404,,,,,,,,,,,,,,,,,,,,,,,,,,,,,,,,,,,,,,,,,,,,,,,,,,,,,,,,,,,,,,,,,,,,,,,,,,,,,,,,,,,,,,,,,,,,,,,,,,,,,,,,,,,,,,,,,,,,,,,,,,,,,,,,,,,,,,,,,,,,,,,,,,,,,,,,,,,,,,
0,28,28,35,1,,6163df3f316fdfd57f02e51f,62bbfb540ebbeb5d2e6a7de8,2022-06-29_09h12.59.944,Colour_Asymmetry_Pilot,2022.1.3,Win32,60.0024001,62bbe60bf3d75ef465d3e404,,,,,,,,,,,,,,,,,,,,,,,,,,,,,,,,,,,,,,,,,,,,,,,,,,,,,,,,,,,,,,,,,,,,,,,,,,,,,,,,,,,,,,,,,,,,,,,,,,,,,,,,,,,,,,,,,,,,,,,,,,,,,,,,,,,,,,,,,,,,,,,,,,,,,,,,,,,,,,
0,29,29,36,1,,6163df3f316fdfd57f02e51f,62bbfb540ebbeb5d2e6a7de8,2022-06-29_09h12.59.944,Colour_Asymmetry_Pilot,2022.1.3,Win32,60.0024001,62bbe60bf3d75ef465d3e404,,,,,,,,,,,,,,,,,,,,,,,,,,,,,,,,,,,,,,,,,,,,,,,,,,,,,,,,,,,,,,,,,,,,,,,,,,,,,,,,,,,,,,,,,,,,,,,,,,,,,,,,,,,,,,,,,,,,,,,,,,,,,,,,,,,,,,,,,,,,,,,,,,,,,,,,,,,,,,
0,30,30,73,1,,6163df3f316fdfd57f02e51f,62bbfb540ebbeb5d2e6a7de8,2022-06-29_09h12.59.944,Colour_Asymmetry_Pilot,2022.1.3,Win32,60.0024001,62bbe60bf3d75ef465d3e404,,,,,,,,,,,,,,,,,,,,,,,,,,,,,,,,,,,,,,,,,,,,,,,,,,,,,,,,,,,,,,,,,,,,,,,,,,,,,,,,,,,,,,,,,,,,,,,,,,,,,,,,,,,,,,,,,,,,,,,,,,,,,,,,,,,,,,,,,,,,,,,,,,,,,,,,,,,,,,
0,31,31,67,1,,6163df3f316fdfd57f02e51f,62bbfb540ebbeb5d2e6a7de8,2022-06-29_09h12.59.944,Colour_Asymmetry_Pilot,2022.1.3,Win32,60.0024001,62bbe60bf3d75ef465d3e404,,,,,,,,,,,,,,,,,,,,,,,,,,,,,,,,,,,,,,,,,,,,,,,,,,,,,,,,,,,,,,,,,,,,,,,,,,,,,,,,,,,,,,,,,,,,,,,,,,,,,,,,,,,,,,,,,,,,,,,,,,,,,,,,,,,,,,,,,,,,,,,,,,,,,,,,,,,,,,
0,32,32,25,1,,6163df3f316fdfd57f02e51f,62bbfb540ebbeb5d2e6a7de8,2022-06-29_09h12.59.944,Colour_Asymmetry_Pilot,2022.1.3,Win32,60.0024001,62bbe60bf3d75ef465d3e404,,,,,,,,,,,,,,,,,,,,,,,,,,,,,,,,,,,,,,,,,,,,,,,,,,,,,,,,,,,,,,,,,,,,,,,,,,,,,,,,,,,,,,,,,,,,,,,,,,,,,,,,,,,,,,,,,,,,,,,,,,,,,,,,,,,,,,,,,,,,,,,,,,,,,,,,,,,,,,
0,33,33,7,1,,6163df3f316fdfd57f02e51f,62bbfb540ebbeb5d2e6a7de8,2022-06-29_09h12.59.944,Colour_Asymmetry_Pilot,2022.1.3,Win32,60.0024001,62bbe60bf3d75ef465d3e404,,,,,,,,,,,,,,,,,,,,,,,,,,,,,,,,,,,,,,,,,,,,,,,,,,,,,,,,,,,,,,,,,,,,,,,,,,,,,,,,,,,,,,,,,,,,,,,,,,,,,,,,,,,,,,,,,,,,,,,,,,,,,,,,,,,,,,,,,,,,,,,,,,,,,,,,,,,,,,
0,34,34,51,1,,6163df3f316fdfd57f02e51f,62bbfb540ebbeb5d2e6a7de8,2022-06-29_09h12.59.944,Colour_Asymmetry_Pilot,2022.1.3,Win32,60.0024001,62bbe60bf3d75ef465d3e404,,,,,,,,,,,,,,,,,,,,,,,,,,,,,,,,,,,,,,,,,,,,,,,,,,,,,,,,,,,,,,,,,,,,,,,,,,,,,,,,,,,,,,,,,,,,,,,,,,,,,,,,,,,,,,,,,,,,,,,,,,,,,,,,,,,,,,,,,,,,,,,,,,,,,,,,,,,,,,
0,35,35,77,1,,6163df3f316fdfd57f02e51f,62bbfb540ebbeb5d2e6a7de8,2022-06-29_09h12.59.944,Colour_Asymmetry_Pilot,2022.1.3,Win32,60.0024001,62bbe60bf3d75ef465d3e404,,,,,,,,,,,,,,,,,,,,,,,,,,,,,,,,,,,,,,,,,,,,,,,,,,,,,,,,,,,,,,,,,,,,,,,,,,,,,,,,,,,,,,,,,,,,,,,,,,,,,,,,,,,,,,,,,,,,,,,,,,,,,,,,,,,,,,,,,,,,,,,,,,,,,,,,,,,,,,
0,36,36,9,1,,6163df3f316fdfd57f02e51f,62bbfb540ebbeb5d2e6a7de8,2022-06-29_09h12.59.944,Colour_Asymmetry_Pilot,2022.1.3,Win32,60.0024001,62bbe60bf3d75ef465d3e404,,,,,,,,,,,,,,,,,,,,,,,,,,,,,,,,,,,,,,,,,,,,,,,,,,,,,,,,,,,,,,,,,,,,,,,,,,,,,,,,,,,,,,,,,,,,,,,,,,,,,,,,,,,,,,,,,,,,,,,,,,,,,,,,,,,,,,,,,,,,,,,,,,,,,,,,,,,,,,
0,37,37,40,1,,6163df3f316fdfd57f02e51f,62bbfb540ebbeb5d2e6a7de8,2022-06-29_09h12.59.944,Colour_Asymmetry_Pilot,2022.1.3,Win32,60.0024001,62bbe60bf3d75ef465d3e404,,,,,,,,,,,,,,,,,,,,,,,,,,,,,,,,,,,,,,,,,,,,,,,,,,,,,,,,,,,,,,,,,,,,,,,,,,,,,,,,,,,,,,,,,,,,,,,,,,,,,,,,,,,,,,,,,,,,,,,,,,,,,,,,,,,,,,,,,,,,,,,,,,,,,,,,,,,,,,
0,38,38,16,1,,6163df3f316fdfd57f02e51f,62bbfb540ebbeb5d2e6a7de8,2022-06-29_09h12.59.944,Colour_Asymmetry_Pilot,2022.1.3,Win32,60.0024001,62bbe60bf3d75ef465d3e404,,,,,,,,,,,,,,,,,,,,,,,,,,,,,,,,,,,,,,,,,,,,,,,,,,,,,,,,,,,,,,,,,,,,,,,,,,,,,,,,,,,,,,,,,,,,,,,,,,,,,,,,,,,,,,,,,,,,,,,,,,,,,,,,,,,,,,,,,,,,,,,,,,,,,,,,,,,,,,
0,39,39,46,1,,6163df3f316fdfd57f02e51f,62bbfb540ebbeb5d2e6a7de8,2022-06-29_09h12.59.944,Colour_Asymmetry_Pilot,2022.1.3,Win32,60.0024001,62bbe60bf3d75ef465d3e404,,,,,,,,,,,,,,,,,,,,,,,,,,,,,,,,,,,,,,,,,,,,,,,,,,,,,,,,,,,,,,,,,,,,,,,,,,,,,,,,,,,,,,,,,,,,,,,,,,,,,,,,,,,,,,,,,,,,,,,,,,,,,,,,,,,,,,,,,,,,,,,,,,,,,,,,,,,,,,
0,40,40,69,1,,6163df3f316fdfd57f02e51f,62bbfb540ebbeb5d2e6a7de8,2022-06-29_09h12.59.944,Colour_Asymmetry_Pilot,2022.1.3,Win32,60.0024001,62bbe60bf3d75ef465d3e404,,,,,,,,,,,,,,,,,,,,,,,,,,,,,,,,,,,,,,,,,,,,,,,,,,,,,,,,,,,,,,,,,,,,,,,,,,,,,,,,,,,,,,,,,,,,,,,,,,,,,,,,,,,,,,,,,,,,,,,,,,,,,,,,,,,,,,,,,,,,,,,,,,,,,,,,,,,,,,
0,41,41,24,1,,6163df3f316fdfd57f02e51f,62bbfb540ebbeb5d2e6a7de8,2022-06-29_09h12.59.944,Colour_Asymmetry_Pilot,2022.1.3,Win32,60.0024001,62bbe60bf3d75ef465d3e404,,,,,,,,,,,,,,,,,,,,,,,,,,,,,,,,,,,,,,,,,,,,,,,,,,,,,,,,,,,,,,,,,,,,,,,,,,,,,,,,,,,,,,,,,,,,,,,,,,,,,,,,,,,,,,,,,,,,,,,,,,,,,,,,,,,,,,,,,,,,,,,,,,,,,,,,,,,,,,
0,42,42,85,1,,6163df3f316fdfd57f02e51f,62bbfb540ebbeb5d2e6a7de8,2022-06-29_09h12.59.944,Colour_Asymmetry_Pilot,2022.1.3,Win32,60.0024001,62bbe60bf3d75ef465d3e404,,,,,,,,,,,,,,,,,,,,,,,,,,,,,,,,,,,,,,,,,,,,,,,,,,,,,,,,,,,,,,,,,,,,,,,,,,,,,,,,,,,,,,,,,,,,,,,,,,,,,,,,,,,,,,,,,,,,,,,,,,,,,,,,,,,,,,,,,,,,,,,,,,,,,,,,,,,,,,
0,43,43,59,1,,6163df3f316fdfd57f02e51f,62bbfb540ebbeb5d2e6a7de8,2022-06-29_09h12.59.944,Colour_Asymmetry_Pilot,2022.1.3,Win32,60.0024001,62bbe60bf3d75ef465d3e404,,,,,,,,,,,,,,,,,,,,,,,,,,,,,,,,,,,,,,,,,,,,,,,,,,,,,,,,,,,,,,,,,,,,,,,,,,,,,,,,,,,,,,,,,,,,,,,,,,,,,,,,,,,,,,,,,,,,,,,,,,,,,,,,,,,,,,,,,,,,,,,,,,,,,,,,,,,,,,
0,44,44,56,1,,6163df3f316fdfd57f02e51f,62bbfb540ebbeb5d2e6a7de8,2022-06-29_09h12.59.944,Colour_Asymmetry_Pilot,2022.1.3,Win32,60.0024001,62bbe60bf3d75ef465d3e404,,,,,,,,,,,,,,,,,,,,,,,,,,,,,,,,,,,,,,,,,,,,,,,,,,,,,,,,,,,,,,,,,,,,,,,,,,,,,,,,,,,,,,,,,,,,,,,,,,,,,,,,,,,,,,,,,,,,,,,,,,,,,,,,,,,,,,,,,,,,,,,,,,,,,,,,,,,,,,
0,45,45,15,1,,6163df3f316fdfd57f02e51f,62bbfb540ebbeb5d2e6a7de8,2022-06-29_09h12.59.944,Colour_Asymmetry_Pilot,2022.1.3,Win32,60.0024001,62bbe60bf3d75ef465d3e404,,,,,,,,,,,,,,,,,,,,,,,,,,,,,,,,,,,,,,,,,,,,,,,,,,,,,,,,,,,,,,,,,,,,,,,,,,,,,,,,,,,,,,,,,,,,,,,,,,,,,,,,,,,,,,,,,,,,,,,,,,,,,,,,,,,,,,,,,,,,,,,,,,,,,,,,,,,,,,
0,46,46,30,1,,6163df3f316fdfd57f02e51f,62bbfb540ebbeb5d2e6a7de8,2022-06-29_09h12.59.944,Colour_Asymmetry_Pilot,2022.1.3,Win32,60.0024001,62bbe60bf3d75ef465d3e404,,,,,,,,,,,,,,,,,,,,,,,,,,,,,,,,,,,,,,,,,,,,,,,,,,,,,,,,,,,,,,,,,,,,,,,,,,,,,,,,,,,,,,,,,,,,,,,,,,,,,,,,,,,,,,,,,,,,,,,,,,,,,,,,,,,,,,,,,,,,,,,,,,,,,,,,,,,,,,
0,47,47,89,1,,6163df3f316fdfd57f02e51f,62bbfb540ebbeb5d2e6a7de8,2022-06-29_09h12.59.944,Colour_Asymmetry_Pilot,2022.1.3,Win32,60.0024001,62bbe60bf3d75ef465d3e404,,,,,,,,,,,,,,,,,,,,,,,,,,,,,,,,,,,,,,,,,,,,,,,,,,,,,,,,,,,,,,,,,,,,,,,,,,,,,,,,,,,,,,,,,,,,,,,,,,,,,,,,,,,,,,,,,,,,,,,,,,,,,,,,,,,,,,,,,,,,,,,,,,,,,,,,,,,,,,
0,48,48,3,1,,6163df3f316fdfd57f02e51f,62bbfb540ebbeb5d2e6a7de8,2022-06-29_09h12.59.944,Colour_Asymmetry_Pilot,2022.1.3,Win32,60.0024001,62bbe60bf3d75ef465d3e404,,,,,,,,,,,,,,,,,,,,,,,,,,,,,,,,,,,,,,,,,,,,,,,,,,,,,,,,,,,,,,,,,,,,,,,,,,,,,,,,,,,,,,,,,,,,,,,,,,,,,,,,,,,,,,,,,,,,,,,,,,,,,,,,,,,,,,,,,,,,,,,,,,,,,,,,,,,,,,
0,49,49,53,1,,6163df3f316fdfd57f02e51f,62bbfb540ebbeb5d2e6a7de8,2022-06-29_09h12.59.944,Colour_Asymmetry_Pilot,2022.1.3,Win32,60.0024001,62bbe60bf3d75ef465d3e404,,,,,,,,,,,,,,,,,,,,,,,,,,,,,,,,,,,,,,,,,,,,,,,,,,,,,,,,,,,,,,,,,,,,,,,,,,,,,,,,,,,,,,,,,,,,,,,,,,,,,,,,,,,,,,,,,,,,,,,,,,,,,,,,,,,,,,,,,,,,,,,,,,,,,,,,,,,,,,
0,50,50,17,1,,6163df3f316fdfd57f02e51f,62bbfb540ebbeb5d2e6a7de8,2022-06-29_09h12.59.944,Colour_Asymmetry_Pilot,2022.1.3,Win32,60.0024001,62bbe60bf3d75ef465d3e404,,,,,,,,,,,,,,,,,,,,,,,,,,,,,,,,,,,,,,,,,,,,,,,,,,,,,,,,,,,,,,,,,,,,,,,,,,,,,,,,,,,,,,,,,,,,,,,,,,,,,,,,,,,,,,,,,,,,,,,,,,,,,,,,,,,,,,,,,,,,,,,,,,,,,,,,,,,,,,
0,51,51,11,1,,6163df3f316fdfd57f02e51f,62bbfb540ebbeb5d2e6a7de8,2022-06-29_09h12.59.944,Colour_Asymmetry_Pilot,2022.1.3,Win32,60.0024001,62bbe60bf3d75ef465d3e404,,,,,,,,,,,,,,,,,,,,,,,,,,,,,,,,,,,,,,,,,,,,,,,,,,,,,,,,,,,,,,,,,,,,,,,,,,,,,,,,,,,,,,,,,,,,,,,,,,,,,,,,,,,,,,,,,,,,,,,,,,,,,,,,,,,,,,,,,,,,,,,,,,,,,,,,,,,,,,
0,52,52,43,1,,6163df3f316fdfd57f02e51f,62bbfb540ebbeb5d2e6a7de8,2022-06-29_09h12.59.944,Colour_Asymmetry_Pilot,2022.1.3,Win32,60.0024001,62bbe60bf3d75ef465d3e404,,,,,,,,,,,,,,,,,,,,,,,,,,,,,,,,,,,,,,,,,,,,,,,,,,,,,,,,,,,,,,,,,,,,,,,,,,,,,,,,,,,,,,,,,,,,,,,,,,,,,,,,,,,,,,,,,,,,,,,,,,,,,,,,,,,,,,,,,,,,,,,,,,,,,,,,,,,,,,
0,53,53,83,1,,6163df3f316fdfd57f02e51f,62bbfb540ebbeb5d2e6a7de8,2022-06-29_09h12.59.944,Colour_Asymmetry_Pilot,2022.1.3,Win32,60.0024001,62bbe60bf3d75ef465d3e404,,,,,,,,,,,,,,,,,,,,,,,,,,,,,,,,,,,,,,,,,,,,,,,,,,,,,,,,,,,,,,,,,,,,,,,,,,,,,,,,,,,,,,,,,,,,,,,,,,,,,,,,,,,,,,,,,,,,,,,,,,,,,,,,,,,,,,,,,,,,,,,,,,,,,,,,,,,,,,
0,54,54,33,1,,6163df3f316fdfd57f02e51f,62bbfb540ebbeb5d2e6a7de8,2022-06-29_09h12.59.944,Colour_Asymmetry_Pilot,2022.1.3,Win32,60.0024001,62bbe60bf3d75ef465d3e404,,,,,,,,,,,,,,,,,,,,,,,,,,,,,,,,,,,,,,,,,,,,,,,,,,,,,,,,,,,,,,,,,,,,,,,,,,,,,,,,,,,,,,,,,,,,,,,,,,,,,,,,,,,,,,,,,,,,,,,,,,,,,,,,,,,,,,,,,,,,,,,,,,,,,,,,,,,,,,
0,55,55,92,1,,6163df3f316fdfd57f02e51f,62bbfb540ebbeb5d2e6a7de8,2022-06-29_09h12.59.944,Colour_Asymmetry_Pilot,2022.1.3,Win32,60.0024001,62bbe60bf3d75ef465d3e404,,,,,,,,,,,,,,,,,,,,,,,,,,,,,,,,,,,,,,,,,,,,,,,,,,,,,,,,,,,,,,,,,,,,,,,,,,,,,,,,,,,,,,,,,,,,,,,,,,,,,,,,,,,,,,,,,,,,,,,,,,,,,,,,,,,,,,,,,,,,,,,,,,,,,,,,,,,,,,
0,56,56,76,1,,6163df3f316fdfd57f02e51f,62bbfb540ebbeb5d2e6a7de8,2022-06-29_09h12.59.944,Colour_Asymmetry_Pilot,2022.1.3,Win32,60.0024001,62bbe60bf3d75ef465d3e404,,,,,,,,,,,,,,,,,,,,,,,,,,,,,,,,,,,,,,,,,,,,,,,,,,,,,,,,,,,,,,,,,,,,,,,,,,,,,,,,,,,,,,,,,,,,,,,,,,,,,,,,,,,,,,,,,,,,,,,,,,,,,,,,,,,,,,,,,,,,,,,,,,,,,,,,,,,,,,
0,57,57,14,1,,6163df3f316fdfd57f02e51f,62bbfb540ebbeb5d2e6a7de8,2022-06-29_09h12.59.944,Colour_Asymmetry_Pilot,2022.1.3,Win32,60.0024001,62bbe60bf3d75ef465d3e404,,,,,,,,,,,,,,,,,,,,,,,,,,,,,,,,,,,,,,,,,,,,,,,,,,,,,,,,,,,,,,,,,,,,,,,,,,,,,,,,,,,,,,,,,,,,,,,,,,,,,,,,,,,,,,,,,,,,,,,,,,,,,,,,,,,,,,,,,,,,,,,,,,,,,,,,,,,,,,
0,58,58,91,1,,6163df3f316fdfd57f02e51f,62bbfb540ebbeb5d2e6a7de8,2022-06-29_09h12.59.944,Colour_Asymmetry_Pilot,2022.1.3,Win32,60.0024001,62bbe60bf3d75ef465d3e404,,,,,,,,,,,,,,,,,,,,,,,,,,,,,,,,,,,,,,,,,,,,,,,,,,,,,,,,,,,,,,,,,,,,,,,,,,,,,,,,,,,,,,,,,,,,,,,,,,,,,,,,,,,,,,,,,,,,,,,,,,,,,,,,,,,,,,,,,,,,,,,,,,,,,,,,,,,,,,
0,59,59,70,1,,6163df3f316fdfd57f02e51f,62bbfb540ebbeb5d2e6a7de8,2022-06-29_09h12.59.944,Colour_Asymmetry_Pilot,2022.1.3,Win32,60.0024001,62bbe60bf3d75ef465d3e404,,,,,,,,,,,,,,,,,,,,,,,,,,,,,,,,,,,,,,,,,,,,,,,,,,,,,,,,,,,,,,,,,,,,,,,,,,,,,,,,,,,,,,,,,,,,,,,,,,,,,,,,,,,,,,,,,,,,,,,,,,,,,,,,,,,,,,,,,,,,,,,,,,,,,,,,,,,,,,
0,60,60,45,1,,6163df3f316fdfd57f02e51f,62bbfb540ebbeb5d2e6a7de8,2022-06-29_09h12.59.944,Colour_Asymmetry_Pilot,2022.1.3,Win32,60.0024001,62bbe60bf3d75ef465d3e404,,,,,,,,,,,,,,,,,,,,,,,,,,,,,,,,,,,,,,,,,,,,,,,,,,,,,,,,,,,,,,,,,,,,,,,,,,,,,,,,,,,,,,,,,,,,,,,,,,,,,,,,,,,,,,,,,,,,,,,,,,,,,,,,,,,,,,,,,,,,,,,,,,,,,,,,,,,,,,
0,61,61,0,1,,6163df3f316fdfd57f02e51f,62bbfb540ebbeb5d2e6a7de8,2022-06-29_09h12.59.944,Colour_Asymmetry_Pilot,2022.1.3,Win32,60.0024001,62bbe60bf3d75ef465d3e404,,,,,,,,,,,,,,,,,,,,,,,,,,,,,,,,,,,,,,,,,,,,,,,,,,,,,,,,,,,,,,,,,,,,,,,,,,,,,,,,,,,,,,,,,,,,,,,,,,,,,,,,,,,,,,,,,,,,,,,,,,,,,,,,,,,,,,,,,,,,,,,,,,,,,,,,,,,,,,
0,62,62,44,1,,6163df3f316fdfd57f02e51f,62bbfb540ebbeb5d2e6a7de8,2022-06-29_09h12.59.944,Colour_Asymmetry_Pilot,2022.1.3,Win32,60.0024001,62bbe60bf3d75ef465d3e404,,,,,,,,,,,,,,,,,,,,,,,,,,,,,,,,,,,,,,,,,,,,,,,,,,,,,,,,,,,,,,,,,,,,,,,,,,,,,,,,,,,,,,,,,,,,,,,,,,,,,,,,,,,,,,,,,,,,,,,,,,,,,,,,,,,,,,,,,,,,,,,,,,,,,,,,,,,,,,
0,63,63,49,1,,6163df3f316fdfd57f02e51f,62bbfb540ebbeb5d2e6a7de8,2022-06-29_09h12.59.944,Colour_Asymmetry_Pilot,2022.1.3,Win32,60.0024001,62bbe60bf3d75ef465d3e404,,,,,,,,,,,,,,,,,,,,,,,,,,,,,,,,,,,,,,,,,,,,,,,,,,,,,,,,,,,,,,,,,,,,,,,,,,,,,,,,,,,,,,,,,,,,,,,,,,,,,,,,,,,,,,,,,,,,,,,,,,,,,,,,,,,,,,,,,,,,,,,,,,,,,,,,,,,,,,
0,64,64,19,1,,6163df3f316fdfd57f02e51f,62bbfb540ebbeb5d2e6a7de8,2022-06-29_09h12.59.944,Colour_Asymmetry_Pilot,2022.1.3,Win32,60.0024001,62bbe60bf3d75ef465d3e404,,,,,,,,,,,,,,,,,,,,,,,,,,,,,,,,,,,,,,,,,,,,,,,,,,,,,,,,,,,,,,,,,,,,,,,,,,,,,,,,,,,,,,,,,,,,,,,,,,,,,,,,,,,,,,,,,,,,,,,,,,,,,,,,,,,,,,,,,,,,,,,,,,,,,,,,,,,,,,
0,65,65,22,1,,6163df3f316fdfd57f02e51f,62bbfb540ebbeb5d2e6a7de8,2022-06-29_09h12.59.944,Colour_Asymmetry_Pilot,2022.1.3,Win32,60.0024001,62bbe60bf3d75ef465d3e404,,,,,,,,,,,,,,,,,,,,,,,,,,,,,,,,,,,,,,,,,,,,,,,,,,,,,,,,,,,,,,,,,,,,,,,,,,,,,,,,,,,,,,,,,,,,,,,,,,,,,,,,,,,,,,,,,,,,,,,,,,,,,,,,,,,,,,,,,,,,,,,,,,,,,,,,,,,,,,
0,66,66,84,1,,6163df3f316fdfd57f02e51f,62bbfb540ebbeb5d2e6a7de8,2022-06-29_09h12.59.944,Colour_Asymmetry_Pilot,2022.1.3,Win32,60.0024001,62bbe60bf3d75ef465d3e404,,,,,,,,,,,,,,,,,,,,,,,,,,,,,,,,,,,,,,,,,,,,,,,,,,,,,,,,,,,,,,,,,,,,,,,,,,,,,,,,,,,,,,,,,,,,,,,,,,,,,,,,,,,,,,,,,,,,,,,,,,,,,,,,,,,,,,,,,,,,,,,,,,,,,,,,,,,,,,
0,67,67,66,1,,6163df3f316fdfd57f02e51f,62bbfb540ebbeb5d2e6a7de8,2022-06-29_09h12.59.944,Colour_Asymmetry_Pilot,2022.1.3,Win32,60.0024001,62bbe60bf3d75ef465d3e404,,,,,,,,,,,,,,,,,,,,,,,,,,,,,,,,,,,,,,,,,,,,,,,,,,,,,,,,,,,,,,,,,,,,,,,,,,,,,,,,,,,,,,,,,,,,,,,,,,,,,,,,,,,,,,,,,,,,,,,,,,,,,,,,,,,,,,,,,,,,,,,,,,,,,,,,,,,,,,
0,68,68,28,1,,6163df3f316fdfd57f02e51f,62bbfb540ebbeb5d2e6a7de8,2022-06-29_09h12.59.944,Colour_Asymmetry_Pilot,2022.1.3,Win32,60.0024001,62bbe60bf3d75ef465d3e404,,,,,,,,,,,,,,,,,,,,,,,,,,,,,,,,,,,,,,,,,,,,,,,,,,,,,,,,,,,,,,,,,,,,,,,,,,,,,,,,,,,,,,,,,,,,,,,,,,,,,,,,,,,,,,,,,,,,,,,,,,,,,,,,,,,,,,,,,,,,,,,,,,,,,,,,,,,,,,
0,69,69,32,1,,6163df3f316fdfd57f02e51f,62bbfb540ebbeb5d2e6a7de8,2022-06-29_09h12.59.944,Colour_Asymmetry_Pilot,2022.1.3,Win32,60.0024001,62bbe60bf3d75ef465d3e404,,,,,,,,,,,,,,,,,,,,,,,,,,,,,,,,,,,,,,,,,,,,,,,,,,,,,,,,,,,,,,,,,,,,,,,,,,,,,,,,,,,,,,,,,,,,,,,,,,,,,,,,,,,,,,,,,,,,,,,,,,,,,,,,,,,,,,,,,,,,,,,,,,,,,,,,,,,,,,
0,70,70,74,1,,6163df3f316fdfd57f02e51f,62bbfb540ebbeb5d2e6a7de8,2022-06-29_09h12.59.944,Colour_Asymmetry_Pilot,2022.1.3,Win32,60.0024001,62bbe60bf3d75ef465d3e404,,,,,,,,,,,,,,,,,,,,,,,,,,,,,,,,,,,,,,,,,,,,,,,,,,,,,,,,,,,,,,,,,,,,,,,,,,,,,,,,,,,,,,,,,,,,,,,,,,,,,,,,,,,,,,,,,,,,,,,,,,,,,,,,,,,,,,,,,,,,,,,,,,,,,,,,,,,,,,
0,71,71,5,1,,6163df3f316fdfd57f02e51f,62bbfb540ebbeb5d2e6a7de8,2022-06-29_09h12.59.944,Colour_Asymmetry_Pilot,2022.1.3,Win32,60.0024001,62bbe60bf3d75ef465d3e404,,,,,,,,,,,,,,,,,,,,,,,,,,,,,,,,,,,,,,,,,,,,,,,,,,,,,,,,,,,,,,,,,,,,,,,,,,,,,,,,,,,,,,,,,,,,,,,,,,,,,,,,,,,,,,,,,,,,,,,,,,,,,,,,,,,,,,,,,,,,,,,,,,,,,,,,,,,,,,
0,72,72,4,1,,6163df3f316fdfd57f02e51f,62bbfb540ebbeb5d2e6a7de8,2022-06-29_09h12.59.944,Colour_Asymmetry_Pilot,2022.1.3,Win32,60.0024001,62bbe60bf3d75ef465d3e404,,,,,,,,,,,,,,,,,,,,,,,,,,,,,,,,,,,,,,,,,,,,,,,,,,,,,,,,,,,,,,,,,,,,,,,,,,,,,,,,,,,,,,,,,,,,,,,,,,,,,,,,,,,,,,,,,,,,,,,,,,,,,,,,,,,,,,,,,,,,,,,,,,,,,,,,,,,,,,
0,73,73,86,1,,6163df3f316fdfd57f02e51f,62bbfb540ebbeb5d2e6a7de8,2022-06-29_09h12.59.944,Colour_Asymmetry_Pilot,2022.1.3,Win32,60.0024001,62bbe60bf3d75ef465d3e404,,,,,,,,,,,,,,,,,,,,,,,,,,,,,,,,,,,,,,,,,,,,,,,,,,,,,,,,,,,,,,,,,,,,,,,,,,,,,,,,,,,,,,,,,,,,,,,,,,,,,,,,,,,,,,,,,,,,,,,,,,,,,,,,,,,,,,,,,,,,,,,,,,,,,,,,,,,,,,
0,74,74,34,1,,6163df3f316fdfd57f02e51f,62bbfb540ebbeb5d2e6a7de8,2022-06-29_09h12.59.944,Colour_Asymmetry_Pilot,2022.1.3,Win32,60.0024001,62bbe60bf3d75ef465d3e404,,,,,,,,,,,,,,,,,,,,,,,,,,,,,,,,,,,,,,,,,,,,,,,,,,,,,,,,,,,,,,,,,,,,,,,,,,,,,,,,,,,,,,,,,,,,,,,,,,,,,,,,,,,,,,,,,,,,,,,,,,,,,,,,,,,,,,,,,,,,,,,,,,,,,,,,,,,,,,
0,75,75,72,1,,6163df3f316fdfd57f02e51f,62bbfb540ebbeb5d2e6a7de8,2022-06-29_09h12.59.944,Colour_Asymmetry_Pilot,2022.1.3,Win32,60.0024001,62bbe60bf3d75ef465d3e404,,,,,,,,,,,,,,,,,,,,,,,,,,,,,,,,,,,,,,,,,,,,,,,,,,,,,,,,,,,,,,,,,,,,,,,,,,,,,,,,,,,,,,,,,,,,,,,,,,,,,,,,,,,,,,,,,,,,,,,,,,,,,,,,,,,,,,,,,,,,,,,,,,,,,,,,,,,,,,
0,76,76,90,1,,6163df3f316fdfd57f02e51f,62bbfb540ebbeb5d2e6a7de8,2022-06-29_09h12.59.944,Colour_Asymmetry_Pilot,2022.1.3,Win32,60.0024001,62bbe60bf3d75ef465d3e404,,,,,,,,,,,,,,,,,,,,,,,,,,,,,,,,,,,,,,,,,,,,,,,,,,,,,,,,,,,,,,,,,,,,,,,,,,,,,,,,,,,,,,,,,,,,,,,,,,,,,,,,,,,,,,,,,,,,,,,,,,,,,,,,,,,,,,,,,,,,,,,,,,,,,,,,,,,,,,
0,77,77,10,1,,6163df3f316fdfd57f02e51f,62bbfb540ebbeb5d2e6a7de8,2022-06-29_09h12.59.944,Colour_Asymmetry_Pilot,2022.1.3,Win32,60.0024001,62bbe60bf3d75ef465d3e404,,,,,,,,,,,,,,,,,,,,,,,,,,,,,,,,,,,,,,,,,,,,,,,,,,,,,,,,,,,,,,,,,,,,,,,,,,,,,,,,,,,,,,,,,,,,,,,,,,,,,,,,,,,,,,,,,,,,,,,,,,,,,,,,,,,,,,,,,,,,,,,,,,,,,,,,,,,,,,
0,78,78,27,1,,6163df3f316fdfd57f02e51f,62bbfb540ebbeb5d2e6a7de8,2022-06-29_09h12.59.944,Colour_Asymmetry_Pilot,2022.1.3,Win32,60.0024001,62bbe60bf3d75ef465d3e404,,,,,,,,,,,,,,,,,,,,,,,,,,,,,,,,,,,,,,,,,,,,,,,,,,,,,,,,,,,,,,,,,,,,,,,,,,,,,,,,,,,,,,,,,,,,,,,,,,,,,,,,,,,,,,,,,,,,,,,,,,,,,,,,,,,,,,,,,,,,,,,,,,,,,,,,,,,,,,
0,79,79,88,1,,6163df3f316fdfd57f02e51f,62bbfb540ebbeb5d2e6a7de8,2022-06-29_09h12.59.944,Colour_Asymmetry_Pilot,2022.1.3,Win32,60.0024001,62bbe60bf3d75ef465d3e404,,,,,,,,,,,,,,,,,,,,,,,,,,,,,,,,,,,,,,,,,,,,,,,,,,,,,,,,,,,,,,,,,,,,,,,,,,,,,,,,,,,,,,,,,,,,,,,,,,,,,,,,,,,,,,,,,,,,,,,,,,,,,,,,,,,,,,,,,,,,,,,,,,,,,,,,,,,,,,
0,80,80,38,1,,6163df3f316fdfd57f02e51f,62bbfb540ebbeb5d2e6a7de8,2022-06-29_09h12.59.944,Colour_Asymmetry_Pilot,2022.1.3,Win32,60.0024001,62bbe60bf3d75ef465d3e404,,,,,,,,,,,,,,,,,,,,,,,,,,,,,,,,,,,,,,,,,,,,,,,,,,,,,,,,,,,,,,,,,,,,,,,,,,,,,,,,,,,,,,,,,,,,,,,,,,,,,,,,,,,,,,,,,,,,,,,,,,,,,,,,,,,,,,,,,,,,,,,,,,,,,,,,,,,,,,
0,81,81,8,1,,6163df3f316fdfd57f02e51f,62bbfb540ebbeb5d2e6a7de8,2022-06-29_09h12.59.944,Colour_Asymmetry_Pilot,2022.1.3,Win32,60.0024001,62bbe60bf3d75ef465d3e404,,,,,,,,,,,,,,,,,,,,,,,,,,,,,,,,,,,,,,,,,,,,,,,,,,,,,,,,,,,,,,,,,,,,,,,,,,,,,,,,,,,,,,,,,,,,,,,,,,,,,,,,,,,,,,,,,,,,,,,,,,,,,,,,,,,,,,,,,,,,,,,,,,,,,,,,,,,,,,
0,82,82,13,1,,6163df3f316fdfd57f02e51f,62bbfb540ebbeb5d2e6a7de8,2022-06-29_09h12.59.944,Colour_Asymmetry_Pilot,2022.1.3,Win32,60.0024001,62bbe60bf3d75ef465d3e404,,,,,,,,,,,,,,,,,,,,,,,,,,,,,,,,,,,,,,,,,,,,,,,,,,,,,,,,,,,,,,,,,,,,,,,,,,,,,,,,,,,,,,,,,,,,,,,,,,,,,,,,,,,,,,,,,,,,,,,,,,,,,,,,,,,,,,,,,,,,,,,,,,,,,,,,,,,,,,
0,83,83,78,1,,6163df3f316fdfd57f02e51f,62bbfb540ebbeb5d2e6a7de8,2022-06-29_09h12.59.944,Colour_Asymmetry_Pilot,2022.1.3,Win32,60.0024001,62bbe60bf3d75ef465d3e404,,,,,,,,,,,,,,,,,,,,,,,,,,,,,,,,,,,,,,,,,,,,,,,,,,,,,,,,,,,,,,,,,,,,,,,,,,,,,,,,,,,,,,,,,,,,,,,,,,,,,,,,,,,,,,,,,,,,,,,,,,,,,,,,,,,,,,,,,,,,,,,,,,,,,,,,,,,,,,
0,84,84,87,1,,6163df3f316fdfd57f02e51f,62bbfb540ebbeb5d2e6a7de8,2022-06-29_09h12.59.944,Colour_Asymmetry_Pilot,2022.1.3,Win32,60.0024001,62bbe60bf3d75ef465d3e404,,,,,,,,,,,,,,,,,,,,,,,,,,,,,,,,,,,,,,,,,,,,,,,,,,,,,,,,,,,,,,,,,,,,,,,,,,,,,,,,,,,,,,,,,,,,,,,,,,,,,,,,,,,,,,,,,,,,,,,,,,,,,,,,,,,,,,,,,,,,,,,,,,,,,,,,,,,,,,
0,85,85,61,1,,6163df3f316fdfd57f02e51f,62bbfb540ebbeb5d2e6a7de8,2022-06-29_09h12.59.944,Colour_Asymmetry_Pilot,2022.1.3,Win32,60.0024001,62bbe60bf3d75ef465d3e404,,,,,,,,,,,,,,,,,,,,,,,,,,,,,,,,,,,,,,,,,,,,,,,,,,,,,,,,,,,,,,,,,,,,,,,,,,,,,,,,,,,,,,,,,,,,,,,,,,,,,,,,,,,,,,,,,,,,,,,,,,,,,,,,,,,,,,,,,,,,,,,,,,,,,,,,,,,,,,
0,86,86,63,1,,6163df3f316fdfd57f02e51f,62bbfb540ebbeb5d2e6a7de8,2022-06-29_09h12.59.944,Colour_Asymmetry_Pilot,2022.1.3,Win32,60.0024001,62bbe60bf3d75ef465d3e404,,,,,,,,,,,,,,,,,,,,,,,,,,,,,,,,,,,,,,,,,,,,,,,,,,,,,,,,,,,,,,,,,,,,,,,,,,,,,,,,,,,,,,,,,,,,,,,,,,,,,,,,,,,,,,,,,,,,,,,,,,,,,,,,,,,,,,,,,,,,,,,,,,,,,,,,,,,,,,
0,87,87,18,1,,6163df3f316fdfd57f02e51f,62bbfb540ebbeb5d2e6a7de8,2022-06-29_09h12.59.944,Colour_Asymmetry_Pilot,2022.1.3,Win32,60.0024001,62bbe60bf3d75ef465d3e404,,,,,,,,,,,,,,,,,,,,,,,,,,,,,,,,,,,,,,,,,,,,,,,,,,,,,,,,,,,,,,,,,,,,,,,,,,,,,,,,,,,,,,,,,,,,,,,,,,,,,,,,,,,,,,,,,,,,,,,,,,,,,,,,,,,,,,,,,,,,,,,,,,,,,,,,,,,,,,
0,88,88,54,1,,6163df3f316fdfd57f02e51f,62bbfb540ebbeb5d2e6a7de8,2022-06-29_09h12.59.944,Colour_Asymmetry_Pilot,2022.1.3,Win32,60.0024001,62bbe60bf3d75ef465d3e404,,,,,,,,,,,,,,,,,,,,,,,,,,,,,,,,,,,,,,,,,,,,,,,,,,,,,,,,,,,,,,,,,,,,,,,,,,,,,,,,,,,,,,,,,,,,,,,,,,,,,,,,,,,,,,,,,,,,,,,,,,,,,,,,,,,,,,,,,,,,,,,,,,,,,,,,,,,,,,
0,89,89,81,1,,6163df3f316fdfd57f02e51f,62bbfb540ebbeb5d2e6a7de8,2022-06-29_09h12.59.944,Colour_Asymmetry_Pilot,2022.1.3,Win32,60.0024001,62bbe60bf3d75ef465d3e404,,,,,,,,,,,,,,,,,,,,,,,,,,,,,,,,,,,,,,,,,,,,,,,,,,,,,,,,,,,,,,,,,,,,,,,,,,,,,,,,,,,,,,,,,,,,,,,,,,,,,,,,,,,,,,,,,,,,,,,,,,,,,,,,,,,,,,,,,,,,,,,,,,,,,,,,,,,,,,
0,90,90,20,1,,6163df3f316fdfd57f02e51f,62bbfb540ebbeb5d2e6a7de8,2022-06-29_09h12.59.944,Colour_Asymmetry_Pilot,2022.1.3,Win32,60.0024001,62bbe60bf3d75ef465d3e404,,,,,,,,,,,,,,,,,,,,,,,,,,,,,,,,,,,,,,,,,,,,,,,,,,,,,,,,,,,,,,,,,,,,,,,,,,,,,,,,,,,,,,,,,,,,,,,,,,,,,,,,,,,,,,,,,,,,,,,,,,,,,,,,,,,,,,,,,,,,,,,,,,,,,,,,,,,,,,
0,91,91,41,1,,6163df3f316fdfd57f02e51f,62bbfb540ebbeb5d2e6a7de8,2022-06-29_09h12.59.944,Colour_Asymmetry_Pilot,2022.1.3,Win32,60.0024001,62bbe60bf3d75ef465d3e404,,,,,,,,,,,,,,,,,,,,,,,,,,,,,,,,,,,,,,,,,,,,,,,,,,,,,,,,,,,,,,,,,,,,,,,,,,,,,,,,,,,,,,,,,,,,,,,,,,,,,,,,,,,,,,,,,,,,,,,,,,,,,,,,,,,,,,,,,,,,,,,,,,,,,,,,,,,,,,
0,92,92,71,1,,6163df3f316fdfd57f02e51f,62bbfb540ebbeb5d2e6a7de8,2022-06-29_09h12.59.944,Colour_Asymmetry_Pilot,2022.1.3,Win32,60.0024001,62bbe60bf3d75ef465d3e404,,,,,,,,,,,,,,,,,,,,,,,,,,,,,,,,,,,,,,,,,,,,,,,,,,,,,,,,,,,,,,,,,,,,,,,,,,,,,,,,,,,,,,,,,,,,,,,,,,,,,,,,,,,,,,,,,,,,,,,,,,,,,,,,,,,,,,,,,,,,,,,,,,,,,,,,,,,,,,
,,,,,,6163df3f316fdfd57f02e51f,62bbfb540ebbeb5d2e6a7de8,2022-06-29_09h12.59.944,Colour_Asymmetry_Pilot,2022.1.3,Win32,60.0024001,62bbe60bf3d75ef465d3e404,0,0,0,90,1,twoone,,,,,,,,,,,,,,,,,,,,,,,,,,,,,,,,,,,,,,,,,,,,,,,,,,,,,,,,,,,,,,,,,,,,,,,,,,,,,,,,,,,,,,,,,,,,,,,,,,,,,,,,,,,,,,,,,,,,,,,,,,,,,,,,,,,,,,,,,,,,,,,,,,,,,,,,
,,,,,,6163df3f316fdfd57f02e51f,62bbfb540ebbeb5d2e6a7de8,2022-06-29_09h12.59.944,Colour_Asymmetry_Pilot,2022.1.3,Win32,60.0024001,62bbe60bf3d75ef465d3e404,0,1,1,89,1,onethree,,,,,,,,,,,,,,,,,,,,,,,,,,,,,,,,,,,,,,,,,,,,,,,,,,,,,,,,,,,,,,,,,,,,,,,,,,,,,,,,,,,,,,,,,,,,,,,,,,,,,,,,,,,,,,,,,,,,,,,,,,,,,,,,,,,,,,,,,,,,,,,,,,,,,,,,
,,,,,,6163df3f316fdfd57f02e51f,62bbfb540ebbeb5d2e6a7de8,2022-06-29_09h12.59.944,Colour_Asymmetry_Pilot,2022.1.3,Win32,60.0024001,62bbe60bf3d75ef465d3e404,0,2,2,135,1,fourthree,,,,,,,,,,,,,,,,,,,,,,,,,,,,,,,,,,,,,,,,,,,,,,,,,,,,,,,,,,,,,,,,,,,,,,,,,,,,,,,,,,,,,,,,,,,,,,,,,,,,,,,,,,,,,,,,,,,,,,,,,,,,,,,,,,,,,,,,,,,,,,,,,,,,,,,,
,,,,,,6163df3f316fdfd57f02e51f,62bbfb540ebbeb5d2e6a7de8,2022-06-29_09h12.59.944,Colour_Asymmetry_Pilot,2022.1.3,Win32,60.0024001,62bbe60bf3d75ef465d3e404,0,3,3,47,1,fourthree,,,,,,,,,,,,,,,,,,,,,,,,,,,,,,,,,,,,,,,,,,,,,,,,,,,,,,,,,,,,,,,,,,,,,,,,,,,,,,,,,,,,,,,,,,,,,,,,,,,,,,,,,,,,,,,,,,,,,,,,,,,,,,,,,,,,,,,,,,,,,,,,,,,,,,,,
,,,,,,6163df3f316fdfd57f02e51f,62bbfb540ebbeb5d2e6a7de8,2022-06-29_09h12.59.944,Colour_Asymmetry_Pilot,2022.1.3,Win32,60.0024001,62bbe60bf3d75ef465d3e404,0,4,4,126,1,fourtwo,,,,,,,,,,,,,,,,,,,,,,,,,,,,,,,,,,,,,,,,,,,,,,,,,,,,,,,,,,,,,,,,,,,,,,,,,,,,,,,,,,,,,,,,,,,,,,,,,,,,,,,,,,,,,,,,,,,,,,,,,,,,,,,,,,,,,,,,,,,,,,,,,,,,,,,,
,,,,,,6163df3f316fdfd57f02e51f,62bbfb540ebbeb5d2e6a7de8,2022-06-29_09h12.59.944,Colour_Asymmetry_Pilot,2022.1.3,Win32,60.0024001,62bbe60bf3d75ef465d3e404,0,5,5,69,1,threefour,,,,,,,,,,,,,,,,,,,,,,,,,,,,,,,,,,,,,,,,,,,,,,,,,,,,,,,,,,,,,,,,,,,,,,,,,,,,,,,,,,,,,,,,,,,,,,,,,,,,,,,,,,,,,,,,,,,,,,,,,,,,,,,,,,,,,,,,,,,,,,,,,,,,,,,,
,,,,,,6163df3f316fdfd57f02e51f,62bbfb540ebbeb5d2e6a7de8,2022-06-29_09h12.59.944,Colour_Asymmetry_Pilot,2022.1.3,Win32,60.0024001,62bbe60bf3d75ef465d3e404,0,6,6,12,1,threeone,,,,,,,,,,,,,,,,,,,,,,,,,,,,,,,,,,,,,,,,,,,,,,,,,,,,,,,,,,,,,,,,,,,,,,,,,,,,,,,,,,,,,,,,,,,,,,,,,,,,,,,,,,,,,,,,,,,,,,,,,,,,,,,,,,,,,,,,,,,,,,,,,,,,,,,,
,,,,,,6163df3f316fdfd57f02e51f,62bbfb540ebbeb5d2e6a7de8,2022-06-29_09h12.59.944,Colour_Asymmetry_Pilot,2022.1.3,Win32,60.0024001,62bbe60bf3d75ef465d3e404,0,7,7,125,1,threefour,,,,,,,,,,,,,,,,,,,,,,,,,,,,,,,,,,,,,,,,,,,,,,,,,,,,,,,,,,,,,,,,,,,,,,,,,,,,,,,,,,,,,,,,,,,,,,,,,,,,,,,,,,,,,,,,,,,,,,,,,,,,,,,,,,,,,,,,,,,,,,,,,,,,,,,,
,,,,,,6163df3f316fdfd57f02e51f,62bbfb540ebbeb5d2e6a7de8,2022-06-29_09h12.59.944,Colour_Asymmetry_Pilot,2022.1.3,Win32,60.0024001,62bbe60bf3d75ef465d3e404,0,8,8,128,1,onetwo,,,,,,,,,,,,,,,,,,,,,,,,,,,,,,,,,,,,,,,,,,,,,,,,,,,,,,,,,,,,,,,,,,,,,,,,,,,,,,,,,,,,,,,,,,,,,,,,,,,,,,,,,,,,,,,,,,,,,,,,,,,,,,,,,,,,,,,,,,,,,,,,,,,,,,,,
,,,,,,6163df3f316fdfd57f02e51f,62bbfb540ebbeb5d2e6a7de8,2022-06-29_09h12.59.944,Colour_Asymmetry_Pilot,2022.1.3,Win32,60.0024001,62bbe60bf3d75ef465d3e404,0,9,9,154,1,twoone,,,,,,,,,,,,,,,,,,,,,,,,,,,,,,,,,,,,,,,,,,,,,,,,,,,,,,,,,,,,,,,,,,,,,,,,,,,,,,,,,,,,,,,,,,,,,,,,,,,,,,,,,,,,,,,,,,,,,,,,,,,,,,,,,,,,,,,,,,,,,,,,,,,,,,,,
,,,,,,6163df3f316fdfd57f02e51f,62bbfb540ebbeb5d2e6a7de8,2022-06-29_09h12.59.944,Colour_Asymmetry_Pilot,2022.1.3,Win32,60.0024001,62bbe60bf3d75ef465d3e404,0,10,10,1,1,onethree,,,,,,,,,,,,,,,,,,,,,,,,,,,,,,,,,,,,,,,,,,,,,,,,,,,,,,,,,,,,,,,,,,,,,,,,,,,,,,,,,,,,,,,,,,,,,,,,,,,,,,,,,,,,,,,,,,,,,,,,,,,,,,,,,,,,,,,,,,,,,,,,,,,,,,,,
,,,,,,6163df3f316fdfd57f02e51f,62bbfb540ebbeb5d2e6a7de8,2022-06-29_09h12.59.944,Colour_Asymmetry_Pilot,2022.1.3,Win32,60.0024001,62bbe60bf3d75ef465d3e404,0,11,11,31,1,fourthree,,,,,,,,,,,,,,,,,,,,,,,,,,,,,,,,,,,,,,,,,,,,,,,,,,,,,,,,,,,,,,,,,,,,,,,,,,,,,,,,,,,,,,,,,,,,,,,,,,,,,,,,,,,,,,,,,,,,,,,,,,,,,,,,,,,,,,,,,,,,,,,,,,,,,,,,
,,,,,,6163df3f316fdfd57f02e51f,62bbfb540ebbeb5d2e6a7de8,2022-06-29_09h12.59.944,Colour_Asymmetry_Pilot,2022.1.3,Win32,60.0024001,62bbe60bf3d75ef465d3e404,0,12,12,75,1,twofour,,,,,,,,,,,,,,,,,,,,,,,,,,,,,,,,,,,,,,,,,,,,,,,,,,,,,,,,,,,,,,,,,,,,,,,,,,,,,,,,,,,,,,,,,,,,,,,,,,,,,,,,,,,,,,,,,,,,,,,,,,,,,,,,,,,,,,,,,,,,,,,,,,,,,,,,
,,,,,,6163df3f316fdfd57f02e51f,62bbfb540ebbeb5d2e6a7de8,2022-06-29_09h12.59.944,Colour_Asymmetry_Pilot,2022.1.3,Win32,60.0024001,62bbe60bf3d75ef465d3e404,0,13,13,45,1,threefour,,,,,,,,,,,,,,,,,,,,,,,,,,,,,,,,,,,,,,,,,,,,,,,,,,,,,,,,,,,,,,,,,,,,,,,,,,,,,,,,,,,,,,,,,,,,,,,,,,,,,,,,,,,,,,,,,,,,,,,,,,,,,,,,,,,,,,,,,,,,,,,,,,,,,,,,
,,,,,,6163df3f316fdfd57f02e51f,62bbfb540ebbeb5d2e6a7de8,2022-06-29_09h12.59.944,Colour_Asymmetry_Pilot,2022.1.3,Win32,60.0024001,62bbe60bf3d75ef465d3e404,0,14,14,68,1,threeone,,,,,,,,,,,,,,,,,,,,,,,,,,,,,,,,,,,,,,,,,,,,,,,,,,,,,,,,,,,,,,,,,,,,,,,,,,,,,,,,,,,,,,,,,,,,,,,,,,,,,,,,,,,,,,,,,,,,,,,,,,,,,,,,,,,,,,,,,,,,,,,,,,,,,,,,
,,,,,,6163df3f316fdfd57f02e51f,62bbfb540ebbeb5d2e6a7de8,2022-06-29_09h12.59.944,Colour_Asymmetry_Pilot,2022.1.3,Win32,60.0024001,62bbe60bf3d75ef465d3e404,0,15,15,149,1,threefour,,,,,,,,,,,,,,,,,,,,,,,,,,,,,,,,,,,,,,,,,,,,,,,,,,,,,,,,,,,,,,,,,,,,,,,,,,,,,,,,,,,,,,,,,,,,,,,,,,,,,,,,,,,,,,,,,,,,,,,,,,,,,,,,,,,,,,,,,,,,,,,,,,,,,,,,
,,,,,,6163df3f316fdfd57f02e51f,62bbfb540ebbeb5d2e6a7de8,2022-06-29_09h12.59.944,Colour_Asymmetry_Pilot,2022.1.3,Win32,60.0024001,62bbe60bf3d75ef465d3e404,0,16,16,79,1,fourthree,,,,,,,,,,,,,,,,,,,,,,,,,,,,,,,,,,,,,,,,,,,,,,,,,,,,,,,,,,,,,,,,,,,,,,,,,,,,,,,,,,,,,,,,,,,,,,,,,,,,,,,,,,,,,,,,,,,,,,,,,,,,,,,,,,,,,,,,,,,,,,,,,,,,,,,,
,,,,,,6163df3f316fdfd57f02e51f,62bbfb540ebbeb5d2e6a7de8,2022-06-29_09h12.59.944,Colour_Asymmetry_Pilot,2022.1.3,Win32,60.0024001,62bbe60bf3d75ef465d3e404,0,17,17,123,1,twofour,,,,,,,,,,,,,,,,,,,,,,,,,,,,,,,,,,,,,,,,,,,,,,,,,,,,,,,,,,,,,,,,,,,,,,,,,,,,,,,,,,,,,,,,,,,,,,,,,,,,,,,,,,,,,,,,,,,,,,,,,,,,,,,,,,,,,,,,,,,,,,,,,,,,,,,,
,,,,,,6163df3f316fdfd57f02e51f,62bbfb540ebbeb5d2e6a7de8,2022-06-29_09h12.59.944,Colour_Asymmetry_Pilot,2022.1.3,Win32,60.0024001,62bbe60bf3d75ef465d3e404,0,18,18,64,1,onetwo,,,,,,,,,,,,,,,,,,,,,,,,,,,,,,,,,,,,,,,,,,,,,,,,,,,,,,,,,,,,,,,,,,,,,,,,,,,,,,,,,,,,,,,,,,,,,,,,,,,,,,,,,,,,,,,,,,,,,,,,,,,,,,,,,,,,,,,,,,,,,,,,,,,,,,,,
,,,,,,6163df3f316fdfd57f02e51f,62bbfb540ebbeb5d2e6a7de8,2022-06-29_09h12.59.944,Colour_Asymmetry_Pilot,2022.1.3,Win32,60.0024001,62bbe60bf3d75ef465d3e404,0,19,19,6,1,fourtwo,,,,,,,,,,,,,,,,,,,,,,,,,,,,,,,,,,,,,,,,,,,,,,,,,,,,,,,,,,,,,,,,,,,,,,,,,,,,,,,,,,,,,,,,,,,,,,,,,,,,,,,,,,,,,,,,,,,,,,,,,,,,,,,,,,,,,,,,,,,,,,,,,,,,,,,,
,,,,,,6163df3f316fdfd57f02e51f,62bbfb540ebbeb5d2e6a7de8,2022-06-29_09h12.59.944,Colour_Asymmetry_Pilot,2022.1.3,Win32,60.0024001,62bbe60bf3d75ef465d3e404,0,20,20,27,1,twofour,,,,,,,,,,,,,,,,,,,,,,,,,,,,,,,,,,,,,,,,,,,,,,,,,,,,,,,,,,,,,,,,,,,,,,,,,,,,,,,,,,,,,,,,,,,,,,,,,,,,,,,,,,,,,,,,,,,,,,,,,,,,,,,,,,,,,,,,,,,,,,,,,,,,,,,,
,,,,,,6163df3f316fdfd57f02e51f,62bbfb540ebbeb5d2e6a7de8,2022-06-29_09h12.59.944,Colour_Asymmetry_Pilot,2022.1.3,Win32,60.0024001,62bbe60bf3d75ef465d3e404,0,21,21,111,1,fourthree,,,,,,,,,,,,,,,,,,,,,,,,,,,,,,,,,,,,,,,,,,,,,,,,,,,,,,,,,,,,,,,,,,,,,,,,,,,,,,,,,,,,,,,,,,,,,,,,,,,,,,,,,,,,,,,,,,,,,,,,,,,,,,,,,,,,,,,,,,,,,,,,,,,,,,,,
,,,,,,6163df3f316fdfd57f02e51f,62bbfb540ebbeb5d2e6a7de8,2022-06-29_09h12.59.944,Colour_Asymmetry_Pilot,2022.1.3,Win32,60.0024001,62bbe60bf3d75ef465d3e404,0,22,22,50,1,twoone,,,,,,,,,,,,,,,,,,,,,,,,,,,,,,,,,,,,,,,,,,,,,,,,,,,,,,,,,,,,,,,,,,,,,,,,,,,,,,,,,,,,,,,,,,,,,,,,,,,,,,,,,,,,,,,,,,,,,,,,,,,,,,,,,,,,,,,,,,,,,,,,,,,,,,,,
,,,,,,6163df3f316fdfd57f02e51f,62bbfb540ebbeb5d2e6a7de8,2022-06-29_09h12.59.944,Colour_Asymmetry_Pilot,2022.1.3,Win32,60.0024001,62bbe60bf3d75ef465d3e404,0,23,23,5,1,threefour,,,,,,,,,,,,,,,,,,,,,,,,,,,,,,,,,,,,,,,,,,,,,,,,,,,,,,,,,,,,,,,,,,,,,,,,,,,,,,,,,,,,,,,,,,,,,,,,,,,,,,,,,,,,,,,,,,,,,,,,,,,,,,,,,,,,,,,,,,,,,,,,,,,,,,,,
,,,,,,6163df3f316fdfd57f02e51f,62bbfb540ebbeb5d2e6a7de8,2022-06-29_09h12.59.944,Colour_Asymmetry_Pilot,2022.1.3,Win32,60.0024001,62bbe60bf3d75ef465d3e404,0,24,24,78,1,fourtwo,,,,,,,,,,,,,,,,,,,,,,,,,,,,,,,,,,,,,,,,,,,,,,,,,,,,,,,,,,,,,,,,,,,,,,,,,,,,,,,,,,,,,,,,,,,,,,,,,,,,,,,,,,,,,,,,,,,,,,,,,,,,,,,,,,,,,,,,,,,,,,,,,,,,,,,,
,,,,,,6163df3f316fdfd57f02e51f,62bbfb540ebbeb5d2e6a7de8,2022-06-29_09h12.59.944,Colour_Asymmetry_Pilot,2022.1.3,Win32,60.0024001,62bbe60bf3d75ef465d3e404,0,25,25,34,1,twoone,,,,,,,,,,,,,,,,,,,,,,,,,,,,,,,,,,,,,,,,,,,,,,,,,,,,,,,,,,,,,,,,,,,,,,,,,,,,,,,,,,,,,,,,,,,,,,,,,,,,,,,,,,,,,,,,,,,,,,,,,,,,,,,,,,,,,,,,,,,,,,,,,,,,,,,,
,,,,,,6163df3f316fdfd57f02e51f,62bbfb540ebbeb5d2e6a7de8,2022-06-29_09h12.59.944,Colour_Asymmetry_Pilot,2022.1.3,Win32,60.0024001,62bbe60bf3d75ef465d3e404,0,26,26,74,1,twoone,,,,,,,,,,,,,,,,,,,,,,,,,,,,,,,,,,,,,,,,,,,,,,,,,,,,,,,,,,,,,,,,,,,,,,,,,,,,,,,,,,,,,,,,,,,,,,,,,,,,,,,,,,,,,,,,,,,,,,,,,,,,,,,,,,,,,,,,,,,,,,,,,,,,,,,,
,,,,,,6163df3f316fdfd57f02e51f,62bbfb540ebbeb5d2e6a7de8,2022-06-29_09h12.59.944,Colour_Asymmetry_Pilot,2022.1.3,Win32,60.0024001,62bbe60bf3d75ef465d3e404,0,27,27,43,1,twofour,,,,,,,,,,,,,,,,,,,,,,,,,,,,,,,,,,,,,,,,,,,,,,,,,,,,,,,,,,,,,,,,,,,,,,,,,,,,,,,,,,,,,,,,,,,,,,,,,,,,,,,,,,,,,,,,,,,,,,,,,,,,,,,,,,,,,,,,,,,,,,,,,,,,,,,,
,,,,,,6163df3f316fdfd57f02e51f,62bbfb540ebbeb5d2e6a7de8,2022-06-29_09h12.59.944,Colour_Asymmetry_Pilot,2022.1.3,Win32,60.0024001,62bbe60bf3d75ef465d3e404,0,28,28,29,1,threefour,,,,,,,,,,,,,,,,,,,,,,,,,,,,,,,,,,,,,,,,,,,,,,,,,,,,,,,,,,,,,,,,,,,,,,,,,,,,,,,,,,,,,,,,,,,,,,,,,,,,,,,,,,,,,,,,,,,,,,,,,,,,,,,,,,,,,,,,,,,,,,,,,,,,,,,,
,,,,,,6163df3f316fdfd57f02e51f,62bbfb540ebbeb5d2e6a7de8,2022-06-29_09h12.59.944,Colour_Asymmetry_Pilot,2022.1.3,Win32,60.0024001,62bbe60bf3d75ef465d3e404,0,29,29,56,1,onetwo,,,,,,,,,,,,,,,,,,,,,,,,,,,,,,,,,,,,,,,,,,,,,,,,,,,,,,,,,,,,,,,,,,,,,,,,,,,,,,,,,,,,,,,,,,,,,,,,,,,,,,,,,,,,,,,,,,,,,,,,,,,,,,,,,,,,,,,,,,,,,,,,,,,,,,,,
,,,,,,6163df3f316fdfd57f02e51f,62bbfb540ebbeb5d2e6a7de8,2022-06-29_09h12.59.944,Colour_Asymmetry_Pilot,2022.1.3,Win32,60.0024001,62bbe60bf3d75ef465d3e404,0,30,30,65,1,onethree,,,,,,,,,,,,,,,,,,,,,,,,,,,,,,,,,,,,,,,,,,,,,,,,,,,,,,,,,,,,,,,,,,,,,,,,,,,,,,,,,,,,,,,,,,,,,,,,,,,,,,,,,,,,,,,,,,,,,,,,,,,,,,,,,,,,,,,,,,,,,,,,,,,,,,,,
,,,,,,6163df3f316fdfd57f02e51f,62bbfb540ebbeb5d2e6a7de8,2022-06-29_09h12.59.944,Colour_Asymmetry_Pilot,2022.1.3,Win32,60.0024001,62bbe60bf3d75ef465d3e404,0,31,31,161,1,onethree,,,,,,,,,,,,,,,,,,,,,,,,,,,,,,,,,,,,,,,,,,,,,,,,,,,,,,,,,,,,,,,,,,,,,,,,,,,,,,,,,,,,,,,,,,,,,,,,,,,,,,,,,,,,,,,,,,,,,,,,,,,,,,,,,,,,,,,,,,,,,,,,,,,,,,,,
,,,,,,6163df3f316fdfd57f02e51f,62bbfb540ebbeb5d2e6a7de8,2022-06-29_09h12.59.944,Colour_Asymmetry_Pilot,2022.1.3,Win32,60.0024001,62bbe60bf3d75ef465d3e404,0,32,32,108,1,threeone,,,,,,,,,,,,,,,,,,,,,,,,,,,,,,,,,,,,,,,,,,,,,,,,,,,,,,,,,,,,,,,,,,,,,,,,,,,,,,,,,,,,,,,,,,,,,,,,,,,,,,,,,,,,,,,,,,,,,,,,,,,,,,,,,,,,,,,,,,,,,,,,,,,,,,,,
,,,,,,6163df3f316fdfd57f02e51f,62bbfb540ebbeb5d2e6a7de8,2022-06-29_09h12.59.944,Colour_Asymmetry_Pilot,2022.1.3,Win32,60.0024001,62bbe60bf3d75ef465d3e404,0,33,33,46,1,fourtwo,,,,,,,,,,,,,,,,,,,,,,,,,,,,,,,,,,,,,,,,,,,,,,,,,,,,,,,,,,,,,,,,,,,,,,,,,,,,,,,,,,,,,,,,,,,,,,,,,,,,,,,,,,,,,,,,,,,,,,,,,,,,,,,,,,,,,,,,,,,,,,,,,,,,,,,,
,,,,,,6163df3f316fdfd57f02e51f,62bbfb540ebbeb5d2e6a7de8,2022-06-29_09h12.59.944,Colour_Asymmetry_Pilot,2022.1.3,Win32,60.0024001,62bbe60bf3d75ef465d3e404,0,34,34,88,1,onetwo,,,,,,,,,,,,,,,,,,,,,,,,,,,,,,,,,,,,,,,,,,,,,,,,,,,,,,,,,,,,,,,,,,,,,,,,,,,,,,,,,,,,,,,,,,,,,,,,,,,,,,,,,,,,,,,,,,,,,,,,,,,,,,,,,,,,,,,,,,,,,,,,,,,,,,,,
,,,,,,6163df3f316fdfd57f02e51f,62bbfb540ebbeb5d2e6a7de8,2022-06-29_09h12.59.944,Colour_Asymmetry_Pilot,2022.1.3,Win32,60.0024001,62bbe60bf3d75ef465d3e404,0,35,35,153,1,onethree,,,,,,,,,,,,,,,,,,,,,,,,,,,,,,,,,,,,,,,,,,,,,,,,,,,,,,,,,,,,,,,,,,,,,,,,,,,,,,,,,,,,,,,,,,,,,,,,,,,,,,,,,,,,,,,,,,,,,,,,,,,,,,,,,,,,,,,,,,,,,,,,,,,,,,,,
,,,,,,6163df3f316fdfd57f02e51f,62bbfb540ebbeb5d2e6a7de8,2022-06-29_09h12.59.944,Colour_Asymmetry_Pilot,2022.1.3,Win32,60.0024001,62bbe60bf3d75ef465d3e404,0,36,36,137,1,onethree,,,,,,,,,,,,,,,,,,,,,,,,,,,,,,,,,,,,,,,,,,,,,,,,,,,,,,,,,,,,,,,,,,,,,,,,,,,,,,,,,,,,,,,,,,,,,,,,,,,,,,,,,,,,,,,,,,,,,,,,,,,,,,,,,,,,,,,,,,,,,,,,,,,,,,,,
,,,,,,6163df3f316fdfd57f02e51f,62bbfb540ebbeb5d2e6a7de8,2022-06-29_09h12.59.944,Colour_Asymmetry_Pilot,2022.1.3,Win32,60.0024001,62bbe60bf3d75ef465d3e404,0,37,37,21,1,threefour,,,,,,,,,,,,,,,,,,,,,,,,,,,,,,,,,,,,,,,,,,,,,,,,,,,,,,,,,,,,,,,,,,,,,,,,,,,,,,,,,,,,,,,,,,,,,,,,,,,,,,,,,,,,,,,,,,,,,,,,,,,,,,,,,,,,,,,,,,,,,,,,,,,,,,,,
,,,,,,6163df3f316fdfd57f02e51f,62bbfb540ebbeb5d2e6a7de8,2022-06-29_09h12.59.944,Colour_Asymmetry_Pilot,2022.1.3,Win32,60.0024001,62bbe60bf3d75ef465d3e404,0,38,38,122,1,twoone,,,,,,,,,,,,,,,,,,,,,,,,,,,,,,,,,,,,,,,,,,,,,,,,,,,,,,,,,,,,,,,,,,,,,,,,,,,,,,,,,,,,,,,,,,,,,,,,,,,,,,,,,,,,,,,,,,,,,,,,,,,,,,,,,,,,,,,,,,,,,,,,,,,,,,,,
,,,,,,6163df3f316fdfd57f02e51f,62bbfb540ebbeb5d2e6a7de8,2022-06-29_09h12.59.944,Colour_Asymmetry_Pilot,2022.1.3,Win32,60.0024001,62bbe60bf3d75ef465d3e404,0,39,39,145,1,onethree,,,,,,,,,,,,,,,,,,,,,,,,,,,,,,,,,,,,,,,,,,,,,,,,,,,,,,,,,,,,,,,,,,,,,,,,,,,,,,,,,,,,,,,,,,,,,,,,,,,,,,,,,,,,,,,,,,,,,,,,,,,,,,,,,,,,,,,,,,,,,,,,,,,,,,,,
,,,,,,6163df3f316fdfd57f02e51f,62bbfb540ebbeb5d2e6a7de8,2022-06-29_09h12.59.944,Colour_Asymmetry_Pilot,2022.1.3,Win32,60.0024001,62bbe60bf3d75ef465d3e404,0,40,40,143,1,fourthree,,,,,,,,,,,,,,,,,,,,,,,,,,,,,,,,,,,,,,,,,,,,,,,,,,,,,,,,,,,,,,,,,,,,,,,,,,,,,,,,,,,,,,,,,,,,,,,,,,,,,,,,,,,,,,,,,,,,,,,,,,,,,,,,,,,,,,,,,,,,,,,,,,,,,,,,
,,,,,,6163df3f316fdfd57f02e51f,62bbfb540ebbeb5d2e6a7de8,2022-06-29_09h12.59.944,Colour_Asymmetry_Pilot,2022.1.3,Win32,60.0024001,62bbe60bf3d75ef465d3e404,0,41,41,52,1,threeone,,,,,,,,,,,,,,,,,,,,,,,,,,,,,,,,,,,,,,,,,,,,,,,,,,,,,,,,,,,,,,,,,,,,,,,,,,,,,,,,,,,,,,,,,,,,,,,,,,,,,,,,,,,,,,,,,,,,,,,,,,,,,,,,,,,,,,,,,,,,,,,,,,,,,,,,
,,,,,,6163df3f316fdfd57f02e51f,62bbfb540ebbeb5d2e6a7de8,2022-06-29_09h12.59.944,Colour_Asymmetry_Pilot,2022.1.3,Win32,60.0024001,62bbe60bf3d75ef465d3e404,0,42,42,150,1,fourtwo,,,,,,,,,,,,,,,,,,,,,,,,,,,,,,,,,,,,,,,,,,,,,,,,,,,,,,,,,,,,,,,,,,,,,,,,,,,,,,,,,,,,,,,,,,,,,,,,,,,,,,,,,,,,,,,,,,,,,,,,,,,,,,,,,,,,,,,,,,,,,,,,,,,,,,,,
,,,,,,6163df3f316fdfd57f02e51f,62bbfb540ebbeb5d2e6a7de8,2022-06-29_09h12.59.944,Colour_Asymmetry_Pilot,2022.1.3,Win32,60.0024001,62bbe60bf3d75ef465d3e404,0,43,43,109,1,threefour,,,,,,,,,,,,,,,,,,,,,,,,,,,,,,,,,,,,,,,,,,,,,,,,,,,,,,,,,,,,,,,,,,,,,,,,,,,,,,,,,,,,,,,,,,,,,,,,,,,,,,,,,,,,,,,,,,,,,,,,,,,,,,,,,,,,,,,,,,,,,,,,,,,,,,,,
,,,,,,6163df3f316fdfd57f02e51f,62bbfb540ebbeb5d2e6a7de8,2022-06-29_09h12.59.944,Colour_Asymmetry_Pilot,2022.1.3,Win32,60.0024001,62bbe60bf3d75ef465d3e404,0,44,44,106,1,twoone,,,,,,,,,,,,,,,,,,,,,,,,,,,,,,,,,,,,,,,,,,,,,,,,,,,,,,,,,,,,,,,,,,,,,,,,,,,,,,,,,,,,,,,,,,,,,,,,,,,,,,,,,,,,,,,,,,,,,,,,,,,,,,,,,,,,,,,,,,,,,,,,,,,,,,,,
,,,,,,6163df3f316fdfd57f02e51f,62bbfb540ebbeb5d2e6a7de8,2022-06-29_09h12.59.944,Colour_Asymmetry_Pilot,2022.1.3,Win32,60.0024001,62bbe60bf3d75ef465d3e404,0,45,45,41,1,onethree,,,,,,,,,,,,,,,,,,,,,,,,,,,,,,,,,,,,,,,,,,,,,,,,,,,,,,,,,,,,,,,,,,,,,,,,,,,,,,,,,,,,,,,,,,,,,,,,,,,,,,,,,,,,,,,,,,,,,,,,,,,,,,,,,,,,,,,,,,,,,,,,,,,,,,,,
,,,,,,6163df3f316fdfd57f02e51f,62bbfb540ebbeb5d2e6a7de8,2022-06-29_09h12.59.944,Colour_Asymmetry_Pilot,2022.1.3,Win32,60.0024001,62bbe60bf3d75ef465d3e404,0,46,46,63,1,fourthree,,,,,,,,,,,,,,,,,,,,,,,,,,,,,,,,,,,,,,,,,,,,,,,,,,,,,,,,,,,,,,,,,,,,,,,,,,,,,,,,,,,,,,,,,,,,,,,,,,,,,,,,,,,,,,,,,,,,,,,,,,,,,,,,,,,,,,,,,,,,,,,,,,,,,,,,
,,,,,,6163df3f316fdfd57f02e51f,62bbfb540ebbeb5d2e6a7de8,2022-06-29_09h12.59.944,Colour_Asymmetry_Pilot,2022.1.3,Win32,60.0024001,62bbe60bf3d75ef465d3e404,0,47,47,19,1,twofour,,,,,,,,,,,,,,,,,,,,,,,,,,,,,,,,,,,,,,,,,,,,,,,,,,,,,,,,,,,,,,,,,,,,,,,,,,,,,,,,,,,,,,,,,,,,,,,,,,,,,,,,,,,,,,,,,,,,,,,,,,,,,,,,,,,,,,,,,,,,,,,,,,,,,,,,
,,,,,,6163df3f316fdfd57f02e51f,62bbfb540ebbeb5d2e6a7de8,2022-06-29_09h12.59.944,Colour_Asymmetry_Pilot,2022.1.3,Win32,60.0024001,62bbe60bf3d75ef465d3e404,0,48,48,138,1,twoone,,,,,,,,,,,,,,,,,,,,,,,,,,,,,,,,,,,,,,,,,,,,,,,,,,,,,,,,,,,,,,,,,,,,,,,,,,,,,,,,,,,,,,,,,,,,,,,,,,,,,,,,,,,,,,,,,,,,,,,,,,,,,,,,,,,,,,,,,,,,,,,,,,,,,,,,
,,,,,,6163df3f316fdfd57f02e51f,62bbfb540ebbeb5d2e6a7de8,2022-06-29_09h12.59.944,Colour_Asymmetry_Pilot,2022.1.3,Win32,60.0024001,62bbe60bf3d75ef465d3e404,0,49,49,134,1,fourtwo,,,,,,,,,,,,,,,,,,,,,,,,,,,,,,,,,,,,,,,,,,,,,,,,,,,,,,,,,,,,,,,,,,,,,,,,,,,,,,,,,,,,,,,,,,,,,,,,,,,,,,,,,,,,,,,,,,,,,,,,,,,,,,,,,,,,,,,,,,,,,,,,,,,,,,,,
,,,,,,6163df3f316fdfd57f02e51f,62bbfb540ebbeb5d2e6a7de8,2022-06-29_09h12.59.944,Colour_Asymmetry_Pilot,2022.1.3,Win32,60.0024001,62bbe60bf3d75ef465d3e404,0,50,50,101,1,threefour,,,,,,,,,,,,,,,,,,,,,,,,,,,,,,,,,,,,,,,,,,,,,,,,,,,,,,,,,,,,,,,,,,,,,,,,,,,,,,,,,,,,,,,,,,,,,,,,,,,,,,,,,,,,,,,,,,,,,,,,,,,,,,,,,,,,,,,,,,,,,,,,,,,,,,,,
,,,,,,6163df3f316fdfd57f02e51f,62bbfb540ebbeb5d2e6a7de8,2022-06-29_09h12.59.944,Colour_Asymmetry_Pilot,2022.1.3,Win32,60.0024001,62bbe60bf3d75ef465d3e404,0,51,51,114,1,twoone,,,,,,,,,,,,,,,,,,,,,,,,,,,,,,,,,,,,,,,,,,,,,,,,,,,,,,,,,,,,,,,,,,,,,,,,,,,,,,,,,,,,,,,,,,,,,,,,,,,,,,,,,,,,,,,,,,,,,,,,,,,,,,,,,,,,,,,,,,,,,,,,,,,,,,,,
,,,,,,6163df3f316fdfd57f02e51f,62bbfb540ebbeb5d2e6a7de8,2022-06-29_09h12.59.944,Colour_Asymmetry_Pilot,2022.1.3,Win32,60.0024001,62bbe60bf3d75ef465d3e404,0,52,52,9,1,onethree,,,,,,,,,,,,,,,,,,,,,,,,,,,,,,,,,,,,,,,,,,,,,,,,,,,,,,,,,,,,,,,,,,,,,,,,,,,,,,,,,,,,,,,,,,,,,,,,,,,,,,,,,,,,,,,,,,,,,,,,,,,,,,,,,,,,,,,,,,,,,,,,,,,,,,,,
,,,,,,6163df3f316fdfd57f02e51f,62bbfb540ebbeb5d2e6a7de8,2022-06-29_09h12.59.944,Colour_Asymmetry_Pilot,2022.1.3,Win32,60.0024001,62bbe60bf3d75ef465d3e404,0,53,53,59,1,twofour,,,,,,,,,,,,,,,,,,,,,,,,,,,,,,,,,,,,,,,,,,,,,,,,,,,,,,,,,,,,,,,,,,,,,,,,,,,,,,,,,,,,,,,,,,,,,,,,,,,,,,,,,,,,,,,,,,,,,,,,,,,,,,,,,,,,,,,,,,,,,,,,,,,,,,,,
,,,,,,6163df3f316fdfd57f02e51f,62bbfb540ebbeb5d2e6a7de8,2022-06-29_09h12.59.944,Colour_Asymmetry_Pilot,2022.1.3,Win32,60.0024001,62bbe60bf3d75ef465d3e404,0,54,54,54,1,fourtwo,,,,,,,,,,,,,,,,,,,,,,,,,,,,,,,,,,,,,,,,,,,,,,,,,,,,,,,,,,,,,,,,,,,,,,,,,,,,,,,,,,,,,,,,,,,,,,,,,,,,,,,,,,,,,,,,,,,,,,,,,,,,,,,,,,,,,,,,,,,,,,,,,,,,,,,,
,,,,,,6163df3f316fdfd57f02e51f,62bbfb540ebbeb5d2e6a7de8,2022-06-29_09h12.59.944,Colour_Asymmetry_Pilot,2022.1.3,Win32,60.0024001,62bbe60bf3d75ef465d3e404,0,55,55,23,1,fourthree,,,,,,,,,,,,,,,,,,,,,,,,,,,,,,,,,,,,,,,,,,,,,,,,,,,,,,,,,,,,,,,,,,,,,,,,,,,,,,,,,,,,,,,,,,,,,,,,,,,,,,,,,,,,,,,,,,,,,,,,,,,,,,,,,,,,,,,,,,,,,,,,,,,,,,,,
,,,,,,6163df3f316fdfd57f02e51f,62bbfb540ebbeb5d2e6a7de8,2022-06-29_09h12.59.944,Colour_Asymmetry_Pilot,2022.1.3,Win32,60.0024001,62bbe60bf3d75ef465d3e404,0,56,56,83,1,twofour,,,,,,,,,,,,,,,,,,,,,,,,,,,,,,,,,,,,,,,,,,,,,,,,,,,,,,,,,,,,,,,,,,,,,,,,,,,,,,,,,,,,,,,,,,,,,,,,,,,,,,,,,,,,,,,,,,,,,,,,,,,,,,,,,,,,,,,,,,,,,,,,,,,,,,,,
,,,,,,6163df3f316fdfd57f02e51f,62bbfb540ebbeb5d2e6a7de8,2022-06-29_09h12.59.944,Colour_Asymmetry_Pilot,2022.1.3,Win32,60.0024001,62bbe60bf3d75ef465d3e404,0,57,57,87,1,fourthree,,,,,,,,,,,,,,,,,,,,,,,,,,,,,,,,,,,,,,,,,,,,,,,,,,,,,,,,,,,,,,,,,,,,,,,,,,,,,,,,,,,,,,,,,,,,,,,,,,,,,,,,,,,,,,,,,,,,,,,,,,,,,,,,,,,,,,,,,,,,,,,,,,,,,,,,
,,,,,,6163df3f316fdfd57f02e51f,62bbfb540ebbeb5d2e6a7de8,2022-06-29_09h12.59.944,Colour_Asymmetry_Pilot,2022.1.3,Win32,60.0024001,62bbe60bf3d75ef465d3e404,0,58,58,33,1,onethree,,,,,,,,,,,,,,,,,,,,,,,,,,,,,,,,,,,,,,,,,,,,,,,,,,,,,,,,,,,,,,,,,,,,,,,,,,,,,,,,,,,,,,,,,,,,,,,,,,,,,,,,,,,,,,,,,,,,,,,,,,,,,,,,,,,,,,,,,,,,,,,,,,,,,,,,
,,,,,,6163df3f316fdfd57f02e51f,62bbfb540ebbeb5d2e6a7de8,2022-06-29_09h12.59.944,Colour_Asymmetry_Pilot,2022.1.3,Win32,60.0024001,62bbe60bf3d75ef465d3e404,0,59,59,159,1,fourthree,,,,,,,,,,,,,,,,,,,,,,,,,,,,,,,,,,,,,,,,,,,,,,,,,,,,,,,,,,,,,,,,,,,,,,,,,,,,,,,,,,,,,,,,,,,,,,,,,,,,,,,,,,,,,,,,,,,,,,,,,,,,,,,,,,,,,,,,,,,,,,,,,,,,,,,,
,,,,,,6163df3f316fdfd57f02e51f,62bbfb540ebbeb5d2e6a7de8,2022-06-29_09h12.59.944,Colour_Asymmetry_Pilot,2022.1.3,Win32,60.0024001,62bbe60bf3d75ef465d3e404,0,60,60,117,1,threefour,,,,,,,,,,,,,,,,,,,,,,,,,,,,,,,,,,,,,,,,,,,,,,,,,,,,,,,,,,,,,,,,,,,,,,,,,,,,,,,,,,,,,,,,,,,,,,,,,,,,,,,,,,,,,,,,,,,,,,,,,,,,,,,,,,,,,,,,,,,,,,,,,,,,,,,,
,,,,,,6163df3f316fdfd57f02e51f,62bbfb540ebbeb5d2e6a7de8,2022-06-29_09h12.59.944,Colour_Asymmetry_Pilot,2022.1.3,Win32,60.0024001,62bbe60bf3d75ef465d3e404,0,61,61,53,1,threefour,,,,,,,,,,,,,,,,,,,,,,,,,,,,,,,,,,,,,,,,,,,,,,,,,,,,,,,,,,,,,,,,,,,,,,,,,,,,,,,,,,,,,,,,,,,,,,,,,,,,,,,,,,,,,,,,,,,,,,,,,,,,,,,,,,,,,,,,,,,,,,,,,,,,,,,,
,,,,,,6163df3f316fdfd57f02e51f,62bbfb540ebbeb5d2e6a7de8,2022-06-29_09h12.59.944,Colour_Asymmetry_Pilot,2022.1.3,Win32,60.0024001,62bbe60bf3d75ef465d3e404,0,62,62,130,1,twoone,,,,,,,,,,,,,,,,,,,,,,,,,,,,,,,,,,,,,,,,,,,,,,,,,,,,,,,,,,,,,,,,,,,,,,,,,,,,,,,,,,,,,,,,,,,,,,,,,,,,,,,,,,,,,,,,,,,,,,,,,,,,,,,,,,,,,,,,,,,,,,,,,,,,,,,,
,,,,,,6163df3f316fdfd57f02e51f,62bbfb540ebbeb5d2e6a7de8,2022-06-29_09h12.59.944,Colour_Asymmetry_Pilot,2022.1.3,Win32,60.0024001,62bbe60bf3d75ef465d3e404,0,63,63,131,1,twofour,,,,,,,,,,,,,,,,,,,,,,,,,,,,,,,,,,,,,,,,,,,,,,,,,,,,,,,,,,,,,,,,,,,,,,,,,,,,,,,,,,,,,,,,,,,,,,,,,,,,,,,,,,,,,,,,,,,,,,,,,,,,,,,,,,,,,,,,,,,,,,,,,,,,,,,,
,,,,,,6163df3f316fdfd57f02e51f,62bbfb540ebbeb5d2e6a7de8,2022-06-29_09h12.59.944,Colour_Asymmetry_Pilot,2022.1.3,Win32,60.0024001,62bbe60bf3d75ef465d3e404,0,64,64,155,1,twofour,,,,,,,,,,,,,,,,,,,,,,,,,,,,,,,,,,,,,,,,,,,,,,,,,,,,,,,,,,,,,,,,,,,,,,,,,,,,,,,,,,,,,,,,,,,,,,,,,,,,,,,,,,,,,,,,,,,,,,,,,,,,,,,,,,,,,,,,,,,,,,,,,,,,,,,,
,,,,,,6163df3f316fdfd57f02e51f,62bbfb540ebbeb5d2e6a7de8,2022-06-29_09h12.59.944,Colour_Asymmetry_Pilot,2022.1.3,Win32,60.0024001,62bbe60bf3d75ef465d3e404,0,65,65,7,1,fourthree,,,,,,,,,,,,,,,,,,,,,,,,,,,,,,,,,,,,,,,,,,,,,,,,,,,,,,,,,,,,,,,,,,,,,,,,,,,,,,,,,,,,,,,,,,,,,,,,,,,,,,,,,,,,,,,,,,,,,,,,,,,,,,,,,,,,,,,,,,,,,,,,,,,,,,,,
,,,,,,6163df3f316fdfd57f02e51f,62bbfb540ebbeb5d2e6a7de8,2022-06-29_09h12.59.944,Colour_Asymmetry_Pilot,2022.1.3,Win32,60.0024001,62bbe60bf3d75ef465d3e404,0,66,66,80,1,onetwo,,,,,,,,,,,,,,,,,,,,,,,,,,,,,,,,,,,,,,,,,,,,,,,,,,,,,,,,,,,,,,,,,,,,,,,,,,,,,,,,,,,,,,,,,,,,,,,,,,,,,,,,,,,,,,,,,,,,,,,,,,,,,,,,,,,,,,,,,,,,,,,,,,,,,,,,
,,,,,,6163df3f316fdfd57f02e51f,62bbfb540ebbeb5d2e6a7de8,2022-06-29_09h12.59.944,Colour_Asymmetry_Pilot,2022.1.3,Win32,60.0024001,62bbe60bf3d75ef465d3e404,0,67,67,102,1,fourtwo,,,,,,,,,,,,,,,,,,,,,,,,,,,,,,,,,,,,,,,,,,,,,,,,,,,,,,,,,,,,,,,,,,,,,,,,,,,,,,,,,,,,,,,,,,,,,,,,,,,,,,,,,,,,,,,,,,,,,,,,,,,,,,,,,,,,,,,,,,,,,,,,,,,,,,,,
,,,,,,6163df3f316fdfd57f02e51f,62bbfb540ebbeb5d2e6a7de8,2022-06-29_09h12.59.944,Colour_Asymmetry_Pilot,2022.1.3,Win32,60.0024001,62bbe60bf3d75ef465d3e404,0,68,68,84,1,threeone,,,,,,,,,,,,,,,,,,,,,,,,,,,,,,,,,,,,,,,,,,,,,,,,,,,,,,,,,,,,,,,,,,,,,,,,,,,,,,,,,,,,,,,,,,,,,,,,,,,,,,,,,,,,,,,,,,,,,,,,,,,,,,,,,,,,,,,,,,,,,,,,,,,,,,,,
,,,,,,6163df3f316fdfd57f02e51f,62bbfb540ebbeb5d2e6a7de8,2022-06-29_09h12.59.944,Colour_Asymmetry_Pilot,2022.1.3,Win32,60.0024001,62bbe60bf3d75ef465d3e404,0,69,69,156,1,threeone,,,,,,,,,,,,,,,,,,,,,,,,,,,,,,,,,,,,,,,,,,,,,,,,,,,,,,,,,,,,,,,,,,,,,,,,,,,,,,,,,,,,,,,,,,,,,,,,,,,,,,,,,,,,,,,,,,,,,,,,,,,,,,,,,,,,,,,,,,,,,,,,,,,,,,,,
,,,,,,6163df3f316fdfd57f02e51f,62bbfb540ebbeb5d2e6a7de8,2022-06-29_09h12.59.944,Colour_Asymmetry_Pilot,2022.1.3,Win32,60.0024001,62bbe60bf3d75ef465d3e404,0,70,70,103,1,fourthree,,,,,,,,,,,,,,,,,,,,,,,,,,,,,,,,,,,,,,,,,,,,,,,,,,,,,,,,,,,,,,,,,,,,,,,,,,,,,,,,,,,,,,,,,,,,,,,,,,,,,,,,,,,,,,,,,,,,,,,,,,,,,,,,,,,,,,,,,,,,,,,,,,,,,,,,
,,,,,,6163df3f316fdfd57f02e51f,62bbfb540ebbeb5d2e6a7de8,2022-06-29_09h12.59.944,Colour_Asymmetry_Pilot,2022.1.3,Win32,60.0024001,62bbe60bf3d75ef465d3e404,0,71,71,3,1,twofour,,,,,,,,,,,,,,,,,,,,,,,,,,,,,,,,,,,,,,,,,,,,,,,,,,,,,,,,,,,,,,,,,,,,,,,,,,,,,,,,,,,,,,,,,,,,,,,,,,,,,,,,,,,,,,,,,,,,,,,,,,,,,,,,,,,,,,,,,,,,,,,,,,,,,,,,
,,,,,,6163df3f316fdfd57f02e51f,62bbfb540ebbeb5d2e6a7de8,2022-06-29_09h12.59.944,Colour_Asymmetry_Pilot,2022.1.3,Win32,60.0024001,62bbe60bf3d75ef465d3e404,0,72,72,85,1,threefour,,,,,,,,,,,,,,,,,,,,,,,,,,,,,,,,,,,,,,,,,,,,,,,,,,,,,,,,,,,,,,,,,,,,,,,,,,,,,,,,,,,,,,,,,,,,,,,,,,,,,,,,,,,,,,,,,,,,,,,,,,,,,,,,,,,,,,,,,,,,,,,,,,,,,,,,
,,,,,,6163df3f316fdfd57f02e51f,62bbfb540ebbeb5d2e6a7de8,2022-06-29_09h12.59.944,Colour_Asymmetry_Pilot,2022.1.3,Win32,60.0024001,62bbe60bf3d75ef465d3e404,0,73,73,92,1,threeone,,,,,,,,,,,,,,,,,,,,,,,,,,,,,,,,,,,,,,,,,,,,,,,,,,,,,,,,,,,,,,,,,,,,,,,,,,,,,,,,,,,,,,,,,,,,,,,,,,,,,,,,,,,,,,,,,,,,,,,,,,,,,,,,,,,,,,,,,,,,,,,,,,,,,,,,
,,,,,,6163df3f316fdfd57f02e51f,62bbfb540ebbeb5d2e6a7de8,2022-06-29_09h12.59.944,Colour_Asymmetry_Pilot,2022.1.3,Win32,60.0024001,62bbe60bf3d75ef465d3e404,0,74,74,116,1,threeone,,,,,,,,,,,,,,,,,,,,,,,,,,,,,,,,,,,,,,,,,,,,,,,,,,,,,,,,,,,,,,,,,,,,,,,,,,,,,,,,,,,,,,,,,,,,,,,,,,,,,,,,,,,,,,,,,,,,,,,,,,,,,,,,,,,,,,,,,,,,,,,,,,,,,,,,
,,,,,,6163df3f316fdfd57f02e51f,62bbfb540ebbeb5d2e6a7de8,2022-06-29_09h12.59.944,Colour_Asymmetry_Pilot,2022.1.3,Win32,60.0024001,62bbe60bf3d75ef465d3e404,0,75,75,67,1,twofour,,,,,,,,,,,,,,,,,,,,,,,,,,,,,,,,,,,,,,,,,,,,,,,,,,,,,,,,,,,,,,,,,,,,,,,,,,,,,,,,,,,,,,,,,,,,,,,,,,,,,,,,,,,,,,,,,,,,,,,,,,,,,,,,,,,,,,,,,,,,,,,,,,,,,,,,
,,,,,,6163df3f316fdfd57f02e51f,62bbfb540ebbeb5d2e6a7de8,2022-06-29_09h12.59.944,Colour_Asymmetry_Pilot,2022.1.3,Win32,60.0024001,62bbe60bf3d75ef465d3e404,0,76,76,151,1,fourthree,,,,,,,,,,,,,,,,,,,,,,,,,,,,,,,,,,,,,,,,,,,,,,,,,,,,,,,,,,,,,,,,,,,,,,,,,,,,,,,,,,,,,,,,,,,,,,,,,,,,,,,,,,,,,,,,,,,,,,,,,,,,,,,,,,,,,,,,,,,,,,,,,,,,,,,,
,,,,,,6163df3f316fdfd57f02e51f,62bbfb540ebbeb5d2e6a7de8,2022-06-29_09h12.59.944,Colour_Asymmetry_Pilot,2022.1.3,Win32,60.0024001,62bbe60bf3d75ef465d3e404,0,77,77,104,1,onetwo,,,,,,,,,,,,,,,,,,,,,,,,,,,,,,,,,,,,,,,,,,,,,,,,,,,,,,,,,,,,,,,,,,,,,,,,,,,,,,,,,,,,,,,,,,,,,,,,,,,,,,,,,,,,,,,,,,,,,,,,,,,,,,,,,,,,,,,,,,,,,,,,,,,,,,,,
,,,,,,6163df3f316fdfd57f02e51f,62bbfb540ebbeb5d2e6a7de8,2022-06-29_09h12.59.944,Colour_Asymmetry_Pilot,2022.1.3,Win32,60.0024001,62bbe60bf3d75ef465d3e404,0,78,78,148,1,threeone,,,,,,,,,,,,,,,,,,,,,,,,,,,,,,,,,,,,,,,,,,,,,,,,,,,,,,,,,,,,,,,,,,,,,,,,,,,,,,,,,,,,,,,,,,,,,,,,,,,,,,,,,,,,,,,,,,,,,,,,,,,,,,,,,,,,,,,,,,,,,,,,,,,,,,,,
,,,,,,6163df3f316fdfd57f02e51f,62bbfb540ebbeb5d2e6a7de8,2022-06-29_09h12.59.944,Colour_Asymmetry_Pilot,2022.1.3,Win32,60.0024001,62bbe60bf3d75ef465d3e404,0,79,79,0,1,onetwo,,,,,,,,,,,,,,,,,,,,,,,,,,,,,,,,,,,,,,,,,,,,,,,,,,,,,,,,,,,,,,,,,,,,,,,,,,,,,,,,,,,,,,,,,,,,,,,,,,,,,,,,,,,,,,,,,,,,,,,,,,,,,,,,,,,,,,,,,,,,,,,,,,,,,,,,
,,,,,,6163df3f316fdfd57f02e51f,62bbfb540ebbeb5d2e6a7de8,2022-06-29_09h12.59.944,Colour_Asymmetry_Pilot,2022.1.3,Win32,60.0024001,62bbe60bf3d75ef465d3e404,0,80,80,71,1,fourthree,,,,,,,,,,,,,,,,,,,,,,,,,,,,,,,,,,,,,,,,,,,,,,,,,,,,,,,,,,,,,,,,,,,,,,,,,,,,,,,,,,,,,,,,,,,,,,,,,,,,,,,,,,,,,,,,,,,,,,,,,,,,,,,,,,,,,,,,,,,,,,,,,,,,,,,,
,,,,,,6163df3f316fdfd57f02e51f,62bbfb540ebbeb5d2e6a7de8,2022-06-29_09h12.59.944,Colour_Asymmetry_Pilot,2022.1.3,Win32,60.0024001,62bbe60bf3d75ef465d3e404,0,81,81,91,1,twofour,,,,,,,,,,,,,,,,,,,,,,,,,,,,,,,,,,,,,,,,,,,,,,,,,,,,,,,,,,,,,,,,,,,,,,,,,,,,,,,,,,,,,,,,,,,,,,,,,,,,,,,,,,,,,,,,,,,,,,,,,,,,,,,,,,,,,,,,,,,,,,,,,,,,,,,,
,,,,,,6163df3f316fdfd57f02e51f,62bbfb540ebbeb5d2e6a7de8,2022-06-29_09h12.59.944,Colour_Asymmetry_Pilot,2022.1.3,Win32,60.0024001,62bbe60bf3d75ef465d3e404,0,82,82,44,1,threeone,,,,,,,,,,,,,,,,,,,,,,,,,,,,,,,,,,,,,,,,,,,,,,,,,,,,,,,,,,,,,,,,,,,,,,,,,,,,,,,,,,,,,,,,,,,,,,,,,,,,,,,,,,,,,,,,,,,,,,,,,,,,,,,,,,,,,,,,,,,,,,,,,,,,,,,,
,,,,,,6163df3f316fdfd57f02e51f,62bbfb540ebbeb5d2e6a7de8,2022-06-29_09h12.59.944,Colour_Asymmetry_Pilot,2022.1.3,Win32,60.0024001,62bbe60bf3d75ef465d3e404,0,83,83,158,1,fourtwo,,,,,,,,,,,,,,,,,,,,,,,,,,,,,,,,,,,,,,,,,,,,,,,,,,,,,,,,,,,,,,,,,,,,,,,,,,,,,,,,,,,,,,,,,,,,,,,,,,,,,,,,,,,,,,,,,,,,,,,,,,,,,,,,,,,,,,,,,,,,,,,,,,,,,,,,
,,,,,,6163df3f316fdfd57f02e51f,62bbfb540ebbeb5d2e6a7de8,2022-06-29_09h12.59.944,Colour_Asymmetry_Pilot,2022.1.3,Win32,60.0024001,62bbe60bf3d75ef465d3e404,0,84,84,18,1,twoone,,,,,,,,,,,,,,,,,,,,,,,,,,,,,,,,,,,,,,,,,,,,,,,,,,,,,,,,,,,,,,,,,,,,,,,,,,,,,,,,,,,,,,,,,,,,,,,,,,,,,,,,,,,,,,,,,,,,,,,,,,,,,,,,,,,,,,,,,,,,,,,,,,,,,,,,
,,,,,,6163df3f316fdfd57f02e51f,62bbfb540ebbeb5d2e6a7de8,2022-06-29_09h12.59.944,Colour_Asymmetry_Pilot,2022.1.3,Win32,60.0024001,62bbe60bf3d75ef465d3e404,0,85,85,96,1,onetwo,,,,,,,,,,,,,,,,,,,,,,,,,,,,,,,,,,,,,,,,,,,,,,,,,,,,,,,,,,,,,,,,,,,,,,,,,,,,,,,,,,,,,,,,,,,,,,,,,,,,,,,,,,,,,,,,,,,,,,,,,,,,,,,,,,,,,,,,,,,,,,,,,,,,,,,,
,,,,,,6163df3f316fdfd57f02e51f,62bbfb540ebbeb5d2e6a7de8,2022-06-29_09h12.59.944,Colour_Asymmetry_Pilot,2022.1.3,Win32,60.0024001,62bbe60bf3d75ef465d3e404,0,86,86,70,1,fourtwo,,,,,,,,,,,,,,,,,,,,,,,,,,,,,,,,,,,,,,,,,,,,,,,,,,,,,,,,,,,,,,,,,,,,,,,,,,,,,,,,,,,,,,,,,,,,,,,,,,,,,,,,,,,,,,,,,,,,,,,,,,,,,,,,,,,,,,,,,,,,,,,,,,,,,,,,
,,,,,,6163df3f316fdfd57f02e51f,62bbfb540ebbeb5d2e6a7de8,2022-06-29_09h12.59.944,Colour_Asymmetry_Pilot,2022.1.3,Win32,60.0024001,62bbe60bf3d75ef465d3e404,0,87,87,26,1,twoone,,,,,,,,,,,,,,,,,,,,,,,,,,,,,,,,,,,,,,,,,,,,,,,,,,,,,,,,,,,,,,,,,,,,,,,,,,,,,,,,,,,,,,,,,,,,,,,,,,,,,,,,,,,,,,,,,,,,,,,,,,,,,,,,,,,,,,,,,,,,,,,,,,,,,,,,
,,,,,,6163df3f316fdfd57f02e51f,62bbfb540ebbeb5d2e6a7de8,2022-06-29_09h12.59.944,Colour_Asymmetry_Pilot,2022.1.3,Win32,60.0024001,62bbe60bf3d75ef465d3e404,0,88,88,97,1,onethree,,,,,,,,,,,,,,,,,,,,,,,,,,,,,,,,,,,,,,,,,,,,,,,,,,,,,,,,,,,,,,,,,,,,,,,,,,,,,,,,,,,,,,,,,,,,,,,,,,,,,,,,,,,,,,,,,,,,,,,,,,,,,,,,,,,,,,,,,,,,,,,,,,,,,,,,
,,,,,,6163df3f316fdfd57f02e51f,62bbfb540ebbeb5d2e6a7de8,2022-06-29_09h12.59.944,Colour_Asymmetry_Pilot,2022.1.3,Win32,60.0024001,62bbe60bf3d75ef465d3e404,0,89,89,95,1,fourthree,,,,,,,,,,,,,,,,,,,,,,,,,,,,,,,,,,,,,,,,,,,,,,,,,,,,,,,,,,,,,,,,,,,,,,,,,,,,,,,,,,,,,,,,,,,,,,,,,,,,,,,,,,,,,,,,,,,,,,,,,,,,,,,,,,,,,,,,,,,,,,,,,,,,,,,,
,,,,,,6163df3f316fdfd57f02e51f,62bbfb540ebbeb5d2e6a7de8,2022-06-29_09h12.59.944,Colour_Asymmetry_Pilot,2022.1.3,Win32,60.0024001,62bbe60bf3d75ef465d3e404,0,90,90,93,1,threefour,,,,,,,,,,,,,,,,,,,,,,,,,,,,,,,,,,,,,,,,,,,,,,,,,,,,,,,,,,,,,,,,,,,,,,,,,,,,,,,,,,,,,,,,,,,,,,,,,,,,,,,,,,,,,,,,,,,,,,,,,,,,,,,,,,,,,,,,,,,,,,,,,,,,,,,,
,,,,,,6163df3f316fdfd57f02e51f,62bbfb540ebbeb5d2e6a7de8,2022-06-29_09h12.59.944,Colour_Asymmetry_Pilot,2022.1.3,Win32,60.0024001,62bbe60bf3d75ef465d3e404,0,91,91,58,1,twoone,,,,,,,,,,,,,,,,,,,,,,,,,,,,,,,,,,,,,,,,,,,,,,,,,,,,,,,,,,,,,,,,,,,,,,,,,,,,,,,,,,,,,,,,,,,,,,,,,,,,,,,,,,,,,,,,,,,,,,,,,,,,,,,,,,,,,,,,,,,,,,,,,,,,,,,,
,,,,,,6163df3f316fdfd57f02e51f,62bbfb540ebbeb5d2e6a7de8,2022-06-29_09h12.59.944,Colour_Asymmetry_Pilot,2022.1.3,Win32,60.0024001,62bbe60bf3d75ef465d3e404,0,92,92,100,1,threeone,,,,,,,,,,,,,,,,,,,,,,,,,,,,,,,,,,,,,,,,,,,,,,,,,,,,,,,,,,,,,,,,,,,,,,,,,,,,,,,,,,,,,,,,,,,,,,,,,,,,,,,,,,,,,,,,,,,,,,,,,,,,,,,,,,,,,,,,,,,,,,,,,,,,,,,,
,,,,,,6163df3f316fdfd57f02e51f,62bbfb540ebbeb5d2e6a7de8,2022-06-29_09h12.59.944,Colour_Asymmetry_Pilot,2022.1.3,Win32,60.0024001,62bbe60bf3d75ef465d3e404,0,93,93,35,1,twofour,,,,,,,,,,,,,,,,,,,,,,,,,,,,,,,,,,,,,,,,,,,,,,,,,,,,,,,,,,,,,,,,,,,,,,,,,,,,,,,,,,,,,,,,,,,,,,,,,,,,,,,,,,,,,,,,,,,,,,,,,,,,,,,,,,,,,,,,,,,,,,,,,,,,,,,,
,,,,,,6163df3f316fdfd57f02e51f,62bbfb540ebbeb5d2e6a7de8,2022-06-29_09h12.59.944,Colour_Asymmetry_Pilot,2022.1.3,Win32,60.0024001,62bbe60bf3d75ef465d3e404,0,94,94,82,1,twoone,,,,,,,,,,,,,,,,,,,,,,,,,,,,,,,,,,,,,,,,,,,,,,,,,,,,,,,,,,,,,,,,,,,,,,,,,,,,,,,,,,,,,,,,,,,,,,,,,,,,,,,,,,,,,,,,,,,,,,,,,,,,,,,,,,,,,,,,,,,,,,,,,,,,,,,,
,,,,,,6163df3f316fdfd57f02e51f,62bbfb540ebbeb5d2e6a7de8,2022-06-29_09h12.59.944,Colour_Asymmetry_Pilot,2022.1.3,Win32,60.0024001,62bbe60bf3d75ef465d3e404,0,95,95,141,1,threefour,,,,,,,,,,,,,,,,,,,,,,,,,,,,,,,,,,,,,,,,,,,,,,,,,,,,,,,,,,,,,,,,,,,,,,,,,,,,,,,,,,,,,,,,,,,,,,,,,,,,,,,,,,,,,,,,,,,,,,,,,,,,,,,,,,,,,,,,,,,,,,,,,,,,,,,,
,,,,,,6163df3f316fdfd57f02e51f,62bbfb540ebbeb5d2e6a7de8,2022-06-29_09h12.59.944,Colour_Asymmetry_Pilot,2022.1.3,Win32,60.0024001,62bbe60bf3d75ef465d3e404,0,96,96,10,1,twoone,,,,,,,,,,,,,,,,,,,,,,,,,,,,,,,,,,,,,,,,,,,,,,,,,,,,,,,,,,,,,,,,,,,,,,,,,,,,,,,,,,,,,,,,,,,,,,,,,,,,,,,,,,,,,,,,,,,,,,,,,,,,,,,,,,,,,,,,,,,,,,,,,,,,,,,,
,,,,,,6163df3f316fdfd57f02e51f,62bbfb540ebbeb5d2e6a7de8,2022-06-29_09h12.59.944,Colour_Asymmetry_Pilot,2022.1.3,Win32,60.0024001,62bbe60bf3d75ef465d3e404,0,97,97,38,1,fourtwo,,,,,,,,,,,,,,,,,,,,,,,,,,,,,,,,,,,,,,,,,,,,,,,,,,,,,,,,,,,,,,,,,,,,,,,,,,,,,,,,,,,,,,,,,,,,,,,,,,,,,,,,,,,,,,,,,,,,,,,,,,,,,,,,,,,,,,,,,,,,,,,,,,,,,,,,
,,,,,,6163df3f316fdfd57f02e51f,62bbfb540ebbeb5d2e6a7de8,2022-06-29_09h12.59.944,Colour_Asymmetry_Pilot,2022.1.3,Win32,60.0024001,62bbe60bf3d75ef465d3e404,0,98,98,94,1,fourtwo,,,,,,,,,,,,,,,,,,,,,,,,,,,,,,,,,,,,,,,,,,,,,,,,,,,,,,,,,,,,,,,,,,,,,,,,,,,,,,,,,,,,,,,,,,,,,,,,,,,,,,,,,,,,,,,,,,,,,,,,,,,,,,,,,,,,,,,,,,,,,,,,,,,,,,,,
,,,,,,6163df3f316fdfd57f02e51f,62bbfb540ebbeb5d2e6a7de8,2022-06-29_09h12.59.944,Colour_Asymmetry_Pilot,2022.1.3,Win32,60.0024001,62bbe60bf3d75ef465d3e404,0,99,99,60,1,threeone,,,,,,,,,,,,,,,,,,,,,,,,,,,,,,,,,,,,,,,,,,,,,,,,,,,,,,,,,,,,,,,,,,,,,,,,,,,,,,,,,,,,,,,,,,,,,,,,,,,,,,,,,,,,,,,,,,,,,,,,,,,,,,,,,,,,,,,,,,,,,,,,,,,,,,,,
,,,,,,6163df3f316fdfd57f02e51f,62bbfb540ebbeb5d2e6a7de8,2022-06-29_09h12.59.944,Colour_Asymmetry_Pilot,2022.1.3,Win32,60.0024001,62bbe60bf3d75ef465d3e404,0,100,100,124,1,threeone,,,,,,,,,,,,,,,,,,,,,,,,,,,,,,,,,,,,,,,,,,,,,,,,,,,,,,,,,,,,,,,,,,,,,,,,,,,,,,,,,,,,,,,,,,,,,,,,,,,,,,,,,,,,,,,,,,,,,,,,,,,,,,,,,,,,,,,,,,,,,,,,,,,,,,,,
,,,,,,6163df3f316fdfd57f02e51f,62bbfb540ebbeb5d2e6a7de8,2022-06-29_09h12.59.944,Colour_Asymmetry_Pilot,2022.1.3,Win32,60.0024001,62bbe60bf3d75ef465d3e404,0,101,101,120,1,onetwo,,,,,,,,,,,,,,,,,,,,,,,,,,,,,,,,,,,,,,,,,,,,,,,,,,,,,,,,,,,,,,,,,,,,,,,,,,,,,,,,,,,,,,,,,,,,,,,,,,,,,,,,,,,,,,,,,,,,,,,,,,,,,,,,,,,,,,,,,,,,,,,,,,,,,,,,
,,,,,,6163df3f316fdfd57f02e51f,62bbfb540ebbeb5d2e6a7de8,2022-06-29_09h12.59.944,Colour_Asymmetry_Pilot,2022.1.3,Win32,60.0024001,62bbe60bf3d75ef465d3e404,0,102,102,72,1,onetwo,,,,,,,,,,,,,,,,,,,,,,,,,,,,,,,,,,,,,,,,,,,,,,,,,,,,,,,,,,,,,,,,,,,,,,,,,,,,,,,,,,,,,,,,,,,,,,,,,,,,,,,,,,,,,,,,,,,,,,,,,,,,,,,,,,,,,,,,,,,,,,,,,,,,,,,,
,,,,,,6163df3f316fdfd57f02e51f,62bbfb540ebbeb5d2e6a7de8,2022-06-29_09h12.59.944,Colour_Asymmetry_Pilot,2022.1.3,Win32,60.0024001,62bbe60bf3d75ef465d3e404,0,103,103,8,1,onetwo,,,,,,,,,,,,,,,,,,,,,,,,,,,,,,,,,,,,,,,,,,,,,,,,,,,,,,,,,,,,,,,,,,,,,,,,,,,,,,,,,,,,,,,,,,,,,,,,,,,,,,,,,,,,,,,,,,,,,,,,,,,,,,,,,,,,,,,,,,,,,,,,,,,,,,,,
,,,,,,6163df3f316fdfd57f02e51f,62bbfb540ebbeb5d2e6a7de8,2022-06-29_09h12.59.944,Colour_Asymmetry_Pilot,2022.1.3,Win32,60.0024001,62bbe60bf3d75ef465d3e404,0,104,104,30,1,fourtwo,,,,,,,,,,,,,,,,,,,,,,,,,,,,,,,,,,,,,,,,,,,,,,,,,,,,,,,,,,,,,,,,,,,,,,,,,,,,,,,,,,,,,,,,,,,,,,,,,,,,,,,,,,,,,,,,,,,,,,,,,,,,,,,,,,,,,,,,,,,,,,,,,,,,,,,,
,,,,,,6163df3f316fdfd57f02e51f,62bbfb540ebbeb5d2e6a7de8,2022-06-29_09h12.59.944,Colour_Asymmetry_Pilot,2022.1.3,Win32,60.0024001,62bbe60bf3d75ef465d3e404,0,105,105,86,1,fourtwo,,,,,,,,,,,,,,,,,,,,,,,,,,,,,,,,,,,,,,,,,,,,,,,,,,,,,,,,,,,,,,,,,,,,,,,,,,,,,,,,,,,,,,,,,,,,,,,,,,,,,,,,,,,,,,,,,,,,,,,,,,,,,,,,,,,,,,,,,,,,,,,,,,,,,,,,
,,,,,,6163df3f316fdfd57f02e51f,62bbfb540ebbeb5d2e6a7de8,2022-06-29_09h12.59.944,Colour_Asymmetry_Pilot,2022.1.3,Win32,60.0024001,62bbe60bf3d75ef465d3e404,0,106,106,32,1,onetwo,,,,,,,,,,,,,,,,,,,,,,,,,,,,,,,,,,,,,,,,,,,,,,,,,,,,,,,,,,,,,,,,,,,,,,,,,,,,,,,,,,,,,,,,,,,,,,,,,,,,,,,,,,,,,,,,,,,,,,,,,,,,,,,,,,,,,,,,,,,,,,,,,,,,,,,,
,,,,,,6163df3f316fdfd57f02e51f,62bbfb540ebbeb5d2e6a7de8,2022-06-29_09h12.59.944,Colour_Asymmetry_Pilot,2022.1.3,Win32,60.0024001,62bbe60bf3d75ef465d3e404,0,107,107,139,1,twofour,,,,,,,,,,,,,,,,,,,,,,,,,,,,,,,,,,,,,,,,,,,,,,,,,,,,,,,,,,,,,,,,,,,,,,,,,,,,,,,,,,,,,,,,,,,,,,,,,,,,,,,,,,,,,,,,,,,,,,,,,,,,,,,,,,,,,,,,,,,,,,,,,,,,,,,,
,,,,,,6163df3f316fdfd57f02e51f,62bbfb540ebbeb5d2e6a7de8,2022-06-29_09h12.59.944,Colour_Asymmetry_Pilot,2022.1.3,Win32,60.0024001,62bbe60bf3d75ef465d3e404,0,108,108,121,1,onethree,,,,,,,,,,,,,,,,,,,,,,,,,,,,,,,,,,,,,,,,,,,,,,,,,,,,,,,,,,,,,,,,,,,,,,,,,,,,,,,,,,,,,,,,,,,,,,,,,,,,,,,,,,,,,,,,,,,,,,,,,,,,,,,,,,,,,,,,,,,,,,,,,,,,,,,,
,,,,,,6163df3f316fdfd57f02e51f,62bbfb540ebbeb5d2e6a7de8,2022-06-29_09h12.59.944,Colour_Asymmetry_Pilot,2022.1.3,Win32,60.0024001,62bbe60bf3d75ef465d3e404,0,109,109,22,1,fourtwo,,,,,,,,,,,,,,,,,,,,,,,,,,,,,,,,,,,,,,,,,,,,,,,,,,,,,,,,,,,,,,,,,,,,,,,,,,,,,,,,,,,,,,,,,,,,,,,,,,,,,,,,,,,,,,,,,,,,,,,,,,,,,,,,,,,,,,,,,,,,,,,,,,,,,,,,
,,,,,,6163df3f316fdfd57f02e51f,62bbfb540ebbeb5d2e6a7de8,2022-06-29_09h12.59.944,Colour_Asymmetry_Pilot,2022.1.3,Win32,60.0024001,62bbe60bf3d75ef465d3e404,0,110,110,11,1,twofour,,,,,,,,,,,,,,,,,,,,,,,,,,,,,,,,,,,,,,,,,,,,,,,,,,,,,,,,,,,,,,,,,,,,,,,,,,,,,,,,,,,,,,,,,,,,,,,,,,,,,,,,,,,,,,,,,,,,,,,,,,,,,,,,,,,,,,,,,,,,,,,,,,,,,,,,
,,,,,,6163df3f316fdfd57f02e51f,62bbfb540ebbeb5d2e6a7de8,2022-06-29_09h12.59.944,Colour_Asymmetry_Pilot,2022.1.3,Win32,60.0024001,62bbe60bf3d75ef465d3e404,0,111,111,127,1,fourthree,,,,,,,,,,,,,,,,,,,,,,,,,,,,,,,,,,,,,,,,,,,,,,,,,,,,,,,,,,,,,,,,,,,,,,,,,,,,,,,,,,,,,,,,,,,,,,,,,,,,,,,,,,,,,,,,,,,,,,,,,,,,,,,,,,,,,,,,,,,,,,,,,,,,,,,,
,,,,,,6163df3f316fdfd57f02e51f,62bbfb540ebbeb5d2e6a7de8,2022-06-29_09h12.59.944,Colour_Asymmetry_Pilot,2022.1.3,Win32,60.0024001,62bbe60bf3d75ef465d3e404,0,112,112,142,1,fourtwo,,,,,,,,,,,,,,,,,,,,,,,,,,,,,,,,,,,,,,,,,,,,,,,,,,,,,,,,,,,,,,,,,,,,,,,,,,,,,,,,,,,,,,,,,,,,,,,,,,,,,,,,,,,,,,,,,,,,,,,,,,,,,,,,,,,,,,,,,,,,,,,,,,,,,,,,
,,,,,,6163df3f316fdfd57f02e51f,62bbfb540ebbeb5d2e6a7de8,2022-06-29_09h12.59.944,Colour_Asymmetry_Pilot,2022.1.3,Win32,60.0024001,62bbe60bf3d75ef465d3e404,0,113,113,157,1,threefour,,,,,,,,,,,,,,,,,,,,,,,,,,,,,,,,,,,,,,,,,,,,,,,,,,,,,,,,,,,,,,,,,,,,,,,,,,,,,,,,,,,,,,,,,,,,,,,,,,,,,,,,,,,,,,,,,,,,,,,,,,,,,,,,,,,,,,,,,,,,,,,,,,,,,,,,
,,,,,,6163df3f316fdfd57f02e51f,62bbfb540ebbeb5d2e6a7de8,2022-06-29_09h12.59.944,Colour_Asymmetry_Pilot,2022.1.3,Win32,60.0024001,62bbe60bf3d75ef465d3e404,0,114,114,55,1,fourthree,,,,,,,,,,,,,,,,,,,,,,,,,,,,,,,,,,,,,,,,,,,,,,,,,,,,,,,,,,,,,,,,,,,,,,,,,,,,,,,,,,,,,,,,,,,,,,,,,,,,,,,,,,,,,,,,,,,,,,,,,,,,,,,,,,,,,,,,,,,,,,,,,,,,,,,,
,,,,,,6163df3f316fdfd57f02e51f,62bbfb540ebbeb5d2e6a7de8,2022-06-29_09h12.59.944,Colour_Asymmetry_Pilot,2022.1.3,Win32,60.0024001,62bbe60bf3d75ef465d3e404,0,115,115,4,1,threeone,,,,,,,,,,,,,,,,,,,,,,,,,,,,,,,,,,,,,,,,,,,,,,,,,,,,,,,,,,,,,,,,,,,,,,,,,,,,,,,,,,,,,,,,,,,,,,,,,,,,,,,,,,,,,,,,,,,,,,,,,,,,,,,,,,,,,,,,,,,,,,,,,,,,,,,,
,,,,,,6163df3f316fdfd57f02e51f,62bbfb540ebbeb5d2e6a7de8,2022-06-29_09h12.59.944,Colour_Asymmetry_Pilot,2022.1.3,Win32,60.0024001,62bbe60bf3d75ef465d3e404,0,116,116,144,1,onetwo,,,,,,,,,,,,,,,,,,,,,,,,,,,,,,,,,,,,,,,,,,,,,,,,,,,,,,,,,,,,,,,,,,,,,,,,,,,,,,,,,,,,,,,,,,,,,,,,,,,,,,,,,,,,,,,,,,,,,,,,,,,,,,,,,,,,,,,,,,,,,,,,,,,,,,,,
,,,,,,6163df3f316fdfd57f02e51f,62bbfb540ebbeb5d2e6a7de8,2022-06-29_09h12.59.944,Colour_Asymmetry_Pilot,2022.1.3,Win32,60.0024001,62bbe60bf3d75ef465d3e404,0,117,117,133,1,threefour,,,,,,,,,,,,,,,,,,,,,,,,,,,,,,,,,,,,,,,,,,,,,,,,,,,,,,,,,,,,,,,,,,,,,,,,,,,,,,,,,,,,,,,,,,,,,,,,,,,,,,,,,,,,,,,,,,,,,,,,,,,,,,,,,,,,,,,,,,,,,,,,,,,,,,,,
,,,,,,6163df3f316fdfd57f02e51f,62bbfb540ebbeb5d2e6a7de8,2022-06-29_09h12.59.944,Colour_Asymmetry_Pilot,2022.1.3,Win32,60.0024001,62bbe60bf3d75ef465d3e404,0,118,118,39,1,fourthree,,,,,,,,,,,,,,,,,,,,,,,,,,,,,,,,,,,,,,,,,,,,,,,,,,,,,,,,,,,,,,,,,,,,,,,,,,,,,,,,,,,,,,,,,,,,,,,,,,,,,,,,,,,,,,,,,,,,,,,,,,,,,,,,,,,,,,,,,,,,,,,,,,,,,,,,
,,,,,,6163df3f316fdfd57f02e51f,62bbfb540ebbeb5d2e6a7de8,2022-06-29_09h12.59.944,Colour_Asymmetry_Pilot,2022.1.3,Win32,60.0024001,62bbe60bf3d75ef465d3e404,0,119,119,98,1,twoone,,,,,,,,,,,,,,,,,,,,,,,,,,,,,,,,,,,,,,,,,,,,,,,,,,,,,,,,,,,,,,,,,,,,,,,,,,,,,,,,,,,,,,,,,,,,,,,,,,,,,,,,,,,,,,,,,,,,,,,,,,,,,,,,,,,,,,,,,,,,,,,,,,,,,,,,
,,,,,,6163df3f316fdfd57f02e51f,62bbfb540ebbeb5d2e6a7de8,2022-06-29_09h12.59.944,Colour_Asymmetry_Pilot,2022.1.3,Win32,60.0024001,62bbe60bf3d75ef465d3e404,0,120,120,66,1,twoone,,,,,,,,,,,,,,,,,,,,,,,,,,,,,,,,,,,,,,,,,,,,,,,,,,,,,,,,,,,,,,,,,,,,,,,,,,,,,,,,,,,,,,,,,,,,,,,,,,,,,,,,,,,,,,,,,,,,,,,,,,,,,,,,,,,,,,,,,,,,,,,,,,,,,,,,
,,,,,,6163df3f316fdfd57f02e51f,62bbfb540ebbeb5d2e6a7de8,2022-06-29_09h12.59.944,Colour_Asymmetry_Pilot,2022.1.3,Win32,60.0024001,62bbe60bf3d75ef465d3e404,0,121,121,51,1,twofour,,,,,,,,,,,,,,,,,,,,,,,,,,,,,,,,,,,,,,,,,,,,,,,,,,,,,,,,,,,,,,,,,,,,,,,,,,,,,,,,,,,,,,,,,,,,,,,,,,,,,,,,,,,,,,,,,,,,,,,,,,,,,,,,,,,,,,,,,,,,,,,,,,,,,,,,
,,,,,,6163df3f316fdfd57f02e51f,62bbfb540ebbeb5d2e6a7de8,2022-06-29_09h12.59.944,Colour_Asymmetry_Pilot,2022.1.3,Win32,60.0024001,62bbe60bf3d75ef465d3e404,0,122,122,62,1,fourtwo,,,,,,,,,,,,,,,,,,,,,,,,,,,,,,,,,,,,,,,,,,,,,,,,,,,,,,,,,,,,,,,,,,,,,,,,,,,,,,,,,,,,,,,,,,,,,,,,,,,,,,,,,,,,,,,,,,,,,,,,,,,,,,,,,,,,,,,,,,,,,,,,,,,,,,,,
,,,,,,6163df3f316fdfd57f02e51f,62bbfb540ebbeb5d2e6a7de8,2022-06-29_09h12.59.944,Colour_Asymmetry_Pilot,2022.1.3,Win32,60.0024001,62bbe60bf3d75ef465d3e404,0,123,123,136,1,onetwo,,,,,,,,,,,,,,,,,,,,,,,,,,,,,,,,,,,,,,,,,,,,,,,,,,,,,,,,,,,,,,,,,,,,,,,,,,,,,,,,,,,,,,,,,,,,,,,,,,,,,,,,,,,,,,,,,,,,,,,,,,,,,,,,,,,,,,,,,,,,,,,,,,,,,,,,
,,,,,,6163df3f316fdfd57f02e51f,62bbfb540ebbeb5d2e6a7de8,2022-06-29_09h12.59.944,Colour_Asymmetry_Pilot,2022.1.3,Win32,60.0024001,62bbe60bf3d75ef465d3e404,0,124,124,146,1,twoone,,,,,,,,,,,,,,,,,,,,,,,,,,,,,,,,,,,,,,,,,,,,,,,,,,,,,,,,,,,,,,,,,,,,,,,,,,,,,,,,,,,,,,,,,,,,,,,,,,,,,,,,,,,,,,,,,,,,,,,,,,,,,,,,,,,,,,,,,,,,,,,,,,,,,,,,
,,,,,,6163df3f316fdfd57f02e51f,62bbfb540ebbeb5d2e6a7de8,2022-06-29_09h12.59.944,Colour_Asymmetry_Pilot,2022.1.3,Win32,60.0024001,62bbe60bf3d75ef465d3e404,0,125,125,36,1,threeone,,,,,,,,,,,,,,,,,,,,,,,,,,,,,,,,,,,,,,,,,,,,,,,,,,,,,,,,,,,,,,,,,,,,,,,,,,,,,,,,,,,,,,,,,,,,,,,,,,,,,,,,,,,,,,,,,,,,,,,,,,,,,,,,,,,,,,,,,,,,,,,,,,,,,,,,
,,,,,,6163df3f316fdfd57f02e51f,62bbfb540ebbeb5d2e6a7de8,2022-06-29_09h12.59.944,Colour_Asymmetry_Pilot,2022.1.3,Win32,60.0024001,62bbe60bf3d75ef465d3e404,0,126,126,147,1,twofour,,,,,,,,,,,,,,,,,,,,,,,,,,,,,,,,,,,,,,,,,,,,,,,,,,,,,,,,,,,,,,,,,,,,,,,,,,,,,,,,,,,,,,,,,,,,,,,,,,,,,,,,,,,,,,,,,,,,,,,,,,,,,,,,,,,,,,,,,,,,,,,,,,,,,,,,
,,,,,,6163df3f316fdfd57f02e51f,62bbfb540ebbeb5d2e6a7de8,2022-06-29_09h12.59.944,Colour_Asymmetry_Pilot,2022.1.3,Win32,60.0024001,62bbe60bf3d75ef465d3e404,0,127,127,28,1,threeone,,,,,,,,,,,,,,,,,,,,,,,,,,,,,,,,,,,,,,,,,,,,,,,,,,,,,,,,,,,,,,,,,,,,,,,,,,,,,,,,,,,,,,,,,,,,,,,,,,,,,,,,,,,,,,,,,,,,,,,,,,,,,,,,,,,,,,,,,,,,,,,,,,,,,,,,
,,,,,,6163df3f316fdfd57f02e51f,62bbfb540ebbeb5d2e6a7de8,2022-06-29_09h12.59.944,Colour_Asymmetry_Pilot,2022.1.3,Win32,60.0024001,62bbe60bf3d75ef465d3e404,0,128,128,24,1,onetwo,,,,,,,,,,,,,,,,,,,,,,,,,,,,,,,,,,,,,,,,,,,,,,,,,,,,,,,,,,,,,,,,,,,,,,,,,,,,,,,,,,,,,,,,,,,,,,,,,,,,,,,,,,,,,,,,,,,,,,,,,,,,,,,,,,,,,,,,,,,,,,,,,,,,,,,,
,,,,,,6163df3f316fdfd57f02e51f,62bbfb540ebbeb5d2e6a7de8,2022-06-29_09h12.59.944,Colour_Asymmetry_Pilot,2022.1.3,Win32,60.0024001,62bbe60bf3d75ef465d3e404,0,129,129,160,1,onetwo,,,,,,,,,,,,,,,,,,,,,,,,,,,,,,,,,,,,,,,,,,,,,,,,,,,,,,,,,,,,,,,,,,,,,,,,,,,,,,,,,,,,,,,,,,,,,,,,,,,,,,,,,,,,,,,,,,,,,,,,,,,,,,,,,,,,,,,,,,,,,,,,,,,,,,,,
,,,,,,6163df3f316fdfd57f02e51f,62bbfb540ebbeb5d2e6a7de8,2022-06-29_09h12.59.944,Colour_Asymmetry_Pilot,2022.1.3,Win32,60.0024001,62bbe60bf3d75ef465d3e404,0,130,130,25,1,onethree,,,,,,,,,,,,,,,,,,,,,,,,,,,,,,,,,,,,,,,,,,,,,,,,,,,,,,,,,,,,,,,,,,,,,,,,,,,,,,,,,,,,,,,,,,,,,,,,,,,,,,,,,,,,,,,,,,,,,,,,,,,,,,,,,,,,,,,,,,,,,,,,,,,,,,,,
,,,,,,6163df3f316fdfd57f02e51f,62bbfb540ebbeb5d2e6a7de8,2022-06-29_09h12.59.944,Colour_Asymmetry_Pilot,2022.1.3,Win32,60.0024001,62bbe60bf3d75ef465d3e404,0,131,131,105,1,onethree,,,,,,,,,,,,,,,,,,,,,,,,,,,,,,,,,,,,,,,,,,,,,,,,,,,,,,,,,,,,,,,,,,,,,,,,,,,,,,,,,,,,,,,,,,,,,,,,,,,,,,,,,,,,,,,,,,,,,,,,,,,,,,,,,,,,,,,,,,,,,,,,,,,,,,,,
,,,,,,6163df3f316fdfd57f02e51f,62bbfb540ebbeb5d2e6a7de8,2022-06-29_09h12.59.944,Colour_Asymmetry_Pilot,2022.1.3,Win32,60.0024001,62bbe60bf3d75ef465d3e404,0,132,132,13,1,threefour,,,,,,,,,,,,,,,,,,,,,,,,,,,,,,,,,,,,,,,,,,,,,,,,,,,,,,,,,,,,,,,,,,,,,,,,,,,,,,,,,,,,,,,,,,,,,,,,,,,,,,,,,,,,,,,,,,,,,,,,,,,,,,,,,,,,,,,,,,,,,,,,,,,,,,,,
,,,,,,6163df3f316fdfd57f02e51f,62bbfb540ebbeb5d2e6a7de8,2022-06-29_09h12.59.944,Colour_Asymmetry_Pilot,2022.1.3,Win32,60.0024001,62bbe60bf3d75ef465d3e404,0,133,133,20,1,threeone,,,,,,,,,,,,,,,,,,,,,,,,,,,,,,,,,,,,,,,,,,,,,,,,,,,,,,,,,,,,,,,,,,,,,,,,,,,,,,,,,,,,,,,,,,,,,,,,,,,,,,,,,,,,,,,,,,,,,,,,,,,,,,,,,,,,,,,,,,,,,,,,,,,,,,,,
,,,,,,6163df3f316fdfd57f02e51f,62bbfb540ebbeb5d2e6a7de8,2022-06-29_09h12.59.944,Colour_Asymmetry_Pilot,2022.1.3,Win32,60.0024001,62bbe60bf3d75ef465d3e404,0,134,134,49,1,onethree,,,,,,,,,,,,,,,,,,,,,,,,,,,,,,,,,,,,,,,,,,,,,,,,,,,,,,,,,,,,,,,,,,,,,,,,,,,,,,,,,,,,,,,,,,,,,,,,,,,,,,,,,,,,,,,,,,,,,,,,,,,,,,,,,,,,,,,,,,,,,,,,,,,,,,,,
,,,,,,6163df3f316fdfd57f02e51f,62bbfb540ebbeb5d2e6a7de8,2022-06-29_09h12.59.944,Colour_Asymmetry_Pilot,2022.1.3,Win32,60.0024001,62bbe60bf3d75ef465d3e404,0,135,135,48,1,onetwo,,,,,,,,,,,,,,,,,,,,,,,,,,,,,,,,,,,,,,,,,,,,,,,,,,,,,,,,,,,,,,,,,,,,,,,,,,,,,,,,,,,,,,,,,,,,,,,,,,,,,,,,,,,,,,,,,,,,,,,,,,,,,,,,,,,,,,,,,,,,,,,,,,,,,,,,
,,,,,,6163df3f316fdfd57f02e51f,62bbfb540ebbeb5d2e6a7de8,2022-06-29_09h12.59.944,Colour_Asymmetry_Pilot,2022.1.3,Win32,60.0024001,62bbe60bf3d75ef465d3e404,0,136,136,110,1,fourtwo,,,,,,,,,,,,,,,,,,,,,,,,,,,,,,,,,,,,,,,,,,,,,,,,,,,,,,,,,,,,,,,,,,,,,,,,,,,,,,,,,,,,,,,,,,,,,,,,,,,,,,,,,,,,,,,,,,,,,,,,,,,,,,,,,,,,,,,,,,,,,,,,,,,,,,,,
,,,,,,6163df3f316fdfd57f02e51f,62bbfb540ebbeb5d2e6a7de8,2022-06-29_09h12.59.944,Colour_Asymmetry_Pilot,2022.1.3,Win32,60.0024001,62bbe60bf3d75ef465d3e404,0,137,137,57,1,onethree,,,,,,,,,,,,,,,,,,,,,,,,,,,,,,,,,,,,,,,,,,,,,,,,,,,,,,,,,,,,,,,,,,,,,,,,,,,,,,,,,,,,,,,,,,,,,,,,,,,,,,,,,,,,,,,,,,,,,,,,,,,,,,,,,,,,,,,,,,,,,,,,,,,,,,,,
,,,,,,6163df3f316fdfd57f02e51f,62bbfb540ebbeb5d2e6a7de8,2022-06-29_09h12.59.944,Colour_Asymmetry_Pilot,2022.1.3,Win32,60.0024001,62bbe60bf3d75ef465d3e404,0,138,138,37,1,threefour,,,,,,,,,,,,,,,,,,,,,,,,,,,,,,,,,,,,,,,,,,,,,,,,,,,,,,,,,,,,,,,,,,,,,,,,,,,,,,,,,,,,,,,,,,,,,,,,,,,,,,,,,,,,,,,,,,,,,,,,,,,,,,,,,,,,,,,,,,,,,,,,,,,,,,,,
,,,,,,6163df3f316fdfd57f02e51f,62bbfb540ebbeb5d2e6a7de8,2022-06-29_09h12.59.944,Colour_Asymmetry_Pilot,2022.1.3,Win32,60.0024001,62bbe60bf3d75ef465d3e404,0,139,139,112,1,onetwo,,,,,,,,,,,,,,,,,,,,,,,,,,,,,,,,,,,,,,,,,,,,,,,,,,,,,,,,,,,,,,,,,,,,,,,,,,,,,,,,,,,,,,,,,,,,,,,,,,,,,,,,,,,,,,,,,,,,,,,,,,,,,,,,,,,,,,,,,,,,,,,,,,,,,,,,
,,,,,,6163df3f316fdfd57f02e51f,62bbfb540ebbeb5d2e6a7de8,2022-06-29_09h12.59.944,Colour_Asymmetry_Pilot,2022.1.3,Win32,60.0024001,62bbe60bf3d75ef465d3e404,0,140,140,15,1,fourthree,,,,,,,,,,,,,,,,,,,,,,,,,,,,,,,,,,,,,,,,,,,,,,,,,,,,,,,,,,,,,,,,,,,,,,,,,,,,,,,,,,,,,,,,,,,,,,,,,,,,,,,,,,,,,,,,,,,,,,,,,,,,,,,,,,,,,,,,,,,,,,,,,,,,,,,,
,,,,,,6163df3f316fdfd57f02e51f,62bbfb540ebbeb5d2e6a7de8,2022-06-29_09h12.59.944,Colour_Asymmetry_Pilot,2022.1.3,Win32,60.0024001,62bbe60bf3d75ef465d3e404,0,141,141,14,1,fourtwo,,,,,,,,,,,,,,,,,,,,,,,,,,,,,,,,,,,,,,,,,,,,,,,,,,,,,,,,,,,,,,,,,,,,,,,,,,,,,,,,,,,,,,,,,,,,,,,,,,,,,,,,,,,,,,,,,,,,,,,,,,,,,,,,,,,,,,,,,,,,,,,,,,,,,,,,
,,,,,,6163df3f316fdfd57f02e51f,62bbfb540ebbeb5d2e6a7de8,2022-06-29_09h12.59.944,Colour_Asymmetry_Pilot,2022.1.3,Win32,60.0024001,62bbe60bf3d75ef465d3e404,0,142,142,73,1,onethree,,,,,,,,,,,,,,,,,,,,,,,,,,,,,,,,,,,,,,,,,,,,,,,,,,,,,,,,,,,,,,,,,,,,,,,,,,,,,,,,,,,,,,,,,,,,,,,,,,,,,,,,,,,,,,,,,,,,,,,,,,,,,,,,,,,,,,,,,,,,,,,,,,,,,,,,
,,,,,,6163df3f316fdfd57f02e51f,62bbfb540ebbeb5d2e6a7de8,2022-06-29_09h12.59.944,Colour_Asymmetry_Pilot,2022.1.3,Win32,60.0024001,62bbe60bf3d75ef465d3e404,0,143,143,119,1,fourthree,,,,,,,,,,,,,,,,,,,,,,,,,,,,,,,,,,,,,,,,,,,,,,,,,,,,,,,,,,,,,,,,,,,,,,,,,,,,,,,,,,,,,,,,,,,,,,,,,,,,,,,,,,,,,,,,,,,,,,,,,,,,,,,,,,,,,,,,,,,,,,,,,,,,,,,,
,,,,,,6163df3f316fdfd57f02e51f,62bbfb540ebbeb5d2e6a7de8,2022-06-29_09h12.59.944,Colour_Asymmetry_Pilot,2022.1.3,Win32,60.0024001,62bbe60bf3d75ef465d3e404,0,144,144,152,1,onetwo,,,,,,,,,,,,,,,,,,,,,,,,,,,,,,,,,,,,,,,,,,,,,,,,,,,,,,,,,,,,,,,,,,,,,,,,,,,,,,,,,,,,,,,,,,,,,,,,,,,,,,,,,,,,,,,,,,,,,,,,,,,,,,,,,,,,,,,,,,,,,,,,,,,,,,,,
,,,,,,6163df3f316fdfd57f02e51f,62bbfb540ebbeb5d2e6a7de8,2022-06-29_09h12.59.944,Colour_Asymmetry_Pilot,2022.1.3,Win32,60.0024001,62bbe60bf3d75ef465d3e404,0,145,145,81,1,onethree,,,,,,,,,,,,,,,,,,,,,,,,,,,,,,,,,,,,,,,,,,,,,,,,,,,,,,,,,,,,,,,,,,,,,,,,,,,,,,,,,,,,,,,,,,,,,,,,,,,,,,,,,,,,,,,,,,,,,,,,,,,,,,,,,,,,,,,,,,,,,,,,,,,,,,,,
,,,,,,6163df3f316fdfd57f02e51f,62bbfb540ebbeb5d2e6a7de8,2022-06-29_09h12.59.944,Colour_Asymmetry_Pilot,2022.1.3,Win32,60.0024001,62bbe60bf3d75ef465d3e404,0,146,146,140,1,threeone,,,,,,,,,,,,,,,,,,,,,,,,,,,,,,,,,,,,,,,,,,,,,,,,,,,,,,,,,,,,,,,,,,,,,,,,,,,,,,,,,,,,,,,,,,,,,,,,,,,,,,,,,,,,,,,,,,,,,,,,,,,,,,,,,,,,,,,,,,,,,,,,,,,,,,,,
,,,,,,6163df3f316fdfd57f02e51f,62bbfb540ebbeb5d2e6a7de8,2022-06-29_09h12.59.944,Colour_Asymmetry_Pilot,2022.1.3,Win32,60.0024001,62bbe60bf3d75ef465d3e404,0,147,147,107,1,twofour,,,,,,,,,,,,,,,,,,,,,,,,,,,,,,,,,,,,,,,,,,,,,,,,,,,,,,,,,,,,,,,,,,,,,,,,,,,,,,,,,,,,,,,,,,,,,,,,,,,,,,,,,,,,,,,,,,,,,,,,,,,,,,,,,,,,,,,,,,,,,,,,,,,,,,,,
,,,,,,6163df3f316fdfd57f02e51f,62bbfb540ebbeb5d2e6a7de8,2022-06-29_09h12.59.944,Colour_Asymmetry_Pilot,2022.1.3,Win32,60.0024001,62bbe60bf3d75ef465d3e404,0,148,148,129,1,onethree,,,,,,,,,,,,,,,,,,,,,,,,,,,,,,,,,,,,,,,,,,,,,,,,,,,,,,,,,,,,,,,,,,,,,,,,,,,,,,,,,,,,,,,,,,,,,,,,,,,,,,,,,,,,,,,,,,,,,,,,,,,,,,,,,,,,,,,,,,,,,,,,,,,,,,,,
,,,,,,6163df3f316fdfd57f02e51f,62bbfb540ebbeb5d2e6a7de8,2022-06-29_09h12.59.944,Colour_Asymmetry_Pilot,2022.1.3,Win32,60.0024001,62bbe60bf3d75ef465d3e404,0,149,149,77,1,threefour,,,,,,,,,,,,,,,,,,,,,,,,,,,,,,,,,,,,,,,,,,,,,,,,,,,,,,,,,,,,,,,,,,,,,,,,,,,,,,,,,,,,,,,,,,,,,,,,,,,,,,,,,,,,,,,,,,,,,,,,,,,,,,,,,,,,,,,,,,,,,,,,,,,,,,,,
,,,,,,6163df3f316fdfd57f02e51f,62bbfb540ebbeb5d2e6a7de8,2022-06-29_09h12.59.944,Colour_Asymmetry_Pilot,2022.1.3,Win32,60.0024001,62bbe60bf3d75ef465d3e404,0,150,150,17,1,onethree,,,,,,,,,,,,,,,,,,,,,,,,,,,,,,,,,,,,,,,,,,,,,,,,,,,,,,,,,,,,,,,,,,,,,,,,,,,,,,,,,,,,,,,,,,,,,,,,,,,,,,,,,,,,,,,,,,,,,,,,,,,,,,,,,,,,,,,,,,,,,,,,,,,,,,,,
,,,,,,6163df3f316fdfd57f02e51f,62bbfb540ebbeb5d2e6a7de8,2022-06-29_09h12.59.944,Colour_Asymmetry_Pilot,2022.1.3,Win32,60.0024001,62bbe60bf3d75ef465d3e404,0,151,151,61,1,threefour,,,,,,,,,,,,,,,,,,,,,,,,,,,,,,,,,,,,,,,,,,,,,,,,,,,,,,,,,,,,,,,,,,,,,,,,,,,,,,,,,,,,,,,,,,,,,,,,,,,,,,,,,,,,,,,,,,,,,,,,,,,,,,,,,,,,,,,,,,,,,,,,,,,,,,,,
,,,,,,6163df3f316fdfd57f02e51f,62bbfb540ebbeb5d2e6a7de8,2022-06-29_09h12.59.944,Colour_Asymmetry_Pilot,2022.1.3,Win32,60.0024001,62bbe60bf3d75ef465d3e404,0,152,152,42,1,twoone,,,,,,,,,,,,,,,,,,,,,,,,,,,,,,,,,,,,,,,,,,,,,,,,,,,,,,,,,,,,,,,,,,,,,,,,,,,,,,,,,,,,,,,,,,,,,,,,,,,,,,,,,,,,,,,,,,,,,,,,,,,,,,,,,,,,,,,,,,,,,,,,,,,,,,,,
,,,,,,6163df3f316fdfd57f02e51f,62bbfb540ebbeb5d2e6a7de8,2022-06-29_09h12.59.944,Colour_Asymmetry_Pilot,2022.1.3,Win32,60.0024001,62bbe60bf3d75ef465d3e404,0,153,153,99,1,twofour,,,,,,,,,,,,,,,,,,,,,,,,,,,,,,,,,,,,,,,,,,,,,,,,,,,,,,,,,,,,,,,,,,,,,,,,,,,,,,,,,,,,,,,,,,,,,,,,,,,,,,,,,,,,,,,,,,,,,,,,,,,,,,,,,,,,,,,,,,,,,,,,,,,,,,,,
,,,,,,6163df3f316fdfd57f02e51f,62bbfb540ebbeb5d2e6a7de8,2022-06-29_09h12.59.944,Colour_Asymmetry_Pilot,2022.1.3,Win32,60.0024001,62bbe60bf3d75ef465d3e404,0,154,154,40,1,onetwo,,,,,,,,,,,,,,,,,,,,,,,,,,,,,,,,,,,,,,,,,,,,,,,,,,,,,,,,,,,,,,,,,,,,,,,,,,,,,,,,,,,,,,,,,,,,,,,,,,,,,,,,,,,,,,,,,,,,,,,,,,,,,,,,,,,,,,,,,,,,,,,,,,,,,,,,
,,,,,,6163df3f316fdfd57f02e51f,62bbfb540ebbeb5d2e6a7de8,2022-06-29_09h12.59.944,Colour_Asymmetry_Pilot,2022.1.3,Win32,60.0024001,62bbe60bf3d75ef465d3e404,0,155,155,118,1,fourtwo,,,,,,,,,,,,,,,,,,,,,,,,,,,,,,,,,,,,,,,,,,,,,,,,,,,,,,,,,,,,,,,,,,,,,,,,,,,,,,,,,,,,,,,,,,,,,,,,,,,,,,,,,,,,,,,,,,,,,,,,,,,,,,,,,,,,,,,,,,,,,,,,,,,,,,,,
,,,,,,6163df3f316fdfd57f02e51f,62bbfb540ebbeb5d2e6a7de8,2022-06-29_09h12.59.944,Colour_Asymmetry_Pilot,2022.1.3,Win32,60.0024001,62bbe60bf3d75ef465d3e404,0,156,156,113,1,onethree,,,,,,,,,,,,,,,,,,,,,,,,,,,,,,,,,,,,,,,,,,,,,,,,,,,,,,,,,,,,,,,,,,,,,,,,,,,,,,,,,,,,,,,,,,,,,,,,,,,,,,,,,,,,,,,,,,,,,,,,,,,,,,,,,,,,,,,,,,,,,,,,,,,,,,,,
,,,,,,6163df3f316fdfd57f02e51f,62bbfb540ebbeb5d2e6a7de8,2022-06-29_09h12.59.944,Colour_Asymmetry_Pilot,2022.1.3,Win32,60.0024001,62bbe60bf3d75ef465d3e404,0,157,157,16,1,onetwo,,,,,,,,,,,,,,,,,,,,,,,,,,,,,,,,,,,,,,,,,,,,,,,,,,,,,,,,,,,,,,,,,,,,,,,,,,,,,,,,,,,,,,,,,,,,,,,,,,,,,,,,,,,,,,,,,,,,,,,,,,,,,,,,,,,,,,,,,,,,,,,,,,,,,,,,
,,,,,,6163df3f316fdfd57f02e51f,62bbfb540ebbeb5d2e6a7de8,2022-06-29_09h12.59.944,Colour_Asymmetry_Pilot,2022.1.3,Win32,60.0024001,62bbe60bf3d75ef465d3e404,0,158,158,115,1,twofour,,,,,,,,,,,,,,,,,,,,,,,,,,,,,,,,,,,,,,,,,,,,,,,,,,,,,,,,,,,,,,,,,,,,,,,,,,,,,,,,,,,,,,,,,,,,,,,,,,,,,,,,,,,,,,,,,,,,,,,,,,,,,,,,,,,,,,,,,,,,,,,,,,,,,,,,
,,,,,,6163df3f316fdfd57f02e51f,62bbfb540ebbeb5d2e6a7de8,2022-06-29_09h12.59.944,Colour_Asymmetry_Pilot,2022.1.3,Win32,60.0024001,62bbe60bf3d75ef465d3e404,0,159,159,2,1,twoone,,,,,,,,,,,,,,,,,,,,,,,,,,,,,,,,,,,,,,,,,,,,,,,,,,,,,,,,,,,,,,,,,,,,,,,,,,,,,,,,,,,,,,,,,,,,,,,,,,,,,,,,,,,,,,,,,,,,,,,,,,,,,,,,,,,,,,,,,,,,,,,,,,,,,,,,
,,,,,,6163df3f316fdfd57f02e51f,62bbfb540ebbeb5d2e6a7de8,2022-06-29_09h12.59.944,Colour_Asymmetry_Pilot,2022.1.3,Win32,60.0024001,62bbe60bf3d75ef465d3e404,0,160,160,76,1,threeone,,,,,,,,,,,,,,,,,,,,,,,,,,,,,,,,,,,,,,,,,,,,,,,,,,,,,,,,,,,,,,,,,,,,,,,,,,,,,,,,,,,,,,,,,,,,,,,,,,,,,,,,,,,,,,,,,,,,,,,,,,,,,,,,,,,,,,,,,,,,,,,,,,,,,,,,
,,,,,,6163df3f316fdfd57f02e51f,62bbfb540ebbeb5d2e6a7de8,2022-06-29_09h12.59.944,Colour_Asymmetry_Pilot,2022.1.3,Win32,60.0024001,62bbe60bf3d75ef465d3e404,0,161,161,132,1,threeone,,,,,,,,,,,,,,,,,,,,,,,,,,,,,,,,,,,,,,,,,,,,,,,,,,,,,,,,,,,,,,,,,,,,,,,,,,,,,,,,,,,,,,,,,,,,,,,,,,,,,,,,,,,,,,,,,,,,,,,,,,,,,,,,,,,,,,,,,,,,,,,,,,,,,,,,
,,,,,,6163df3f316fdfd57f02e51f,62bbfb540ebbeb5d2e6a7de8,2022-06-29_09h12.59.944,Colour_Asymmetry_Pilot,2022.1.3,Win32,60.0024001,62bbe60bf3d75ef465d3e404,,,,,,,space,10.7642,space,65.0433,space,51.5984,space,10.2782,space,1.9167,space,6.3052,"[0.05879999999999996,0.2784,0.5841999999999998]",fourthree,"[-0.7412000000000001,-0.08239999999999992,-0.6864]",-4,4.6517,-48,70,1,0,0,response7disk_5,1,-4,1,0,0,rectangle_8,1,-4,1,0,0,2,1,-4,1,0,0,0,0,0,0,1,,,,,,,,,,,,,,,,,,,,,,,,,,,,,,,,,,,,,,,,,,,,,,,,,,,,,,,,,,,,,,,,,,,,,,,,,,,,,,,,,,,,,,,,,,,,,,,,,,,,,,,,,,,
,,,,,,6163df3f316fdfd57f02e51f,62bbfb540ebbeb5d2e6a7de8,2022-06-29_09h12.59.944,Colour_Asymmetry_Pilot,2022.1.3,Win32,60.0024001,62bbe60bf3d75ef465d3e404,,,,,,,,,,,,,,,,,,,"[0.9213999999999998,0.6391999999999998,-0.9922]",onethree,"[0.09799999999999986,-0.24719999999999998,0.15280000000000005]",-4,2.184,-37,64,1,0,0,response7disk_5,-9,9,1,0,0,rectangle_8,84,-47,1,0,0,2,-12,-4,1,0,0,1,0,1,0,1,response3disk_7,5,rectangle_4,,,,,,,,,,,,,,,,,,,,,,,,,,,,,,,,,,,,,,,,,,,,,,,,,,,,,,,,,,,,,,,,,,,,,,,,,,,,,,,,,,,,,,,,,,,,,,,,,,,,,,,,
,,,,,,6163df3f316fdfd57f02e51f,62bbfb540ebbeb5d2e6a7de8,2022-06-29_09h12.59.944,Colour_Asymmetry_Pilot,2022.1.3,Win32,60.0024001,62bbe60bf3d75ef465d3e404,,,,,,,,,,,,,,,,,,,"[-0.2942,-0.24719999999999998,-0.357]",onethree,"[-0.8118,-0.8198,-0.5452]",-4,3.0297,-29,56,1,0,0,response7disk_5,-7,8,1,0,0,rectangle_8,-7,8,1,0,0,2,-7,8,1,0,0,2,0,2,0,1,,,,,,,,,,,,,,,,,,,,,,,,,,,,,,,,,,,,,,,,,,,,,,,,,,,,,,,,,,,,,,,,,,,,,,,,,,,,,,,,,,,,,,,,,,,,,,,,,,,,,,,,,,,
,,,,,,6163df3f316fdfd57f02e51f,62bbfb540ebbeb5d2e6a7de8,2022-06-29_09h12.59.944,Colour_Asymmetry_Pilot,2022.1.3,Win32,60.0024001,62bbe60bf3d75ef465d3e404,,,,,,,,,,,,,,,,,,,"[0.23120000000000007,-0.7726,-0.34120000000000006]",fourthree,"[-0.17659999999999998,0.3253999999999999,0.19999999999999996]",-4,1.1503,-26,64,1,0,0,response7disk_5,-3,-2,1,0,0,rectangle_8,67,-40,1,0,0,2,3,4,1,0,0,3,0,3,0,1,response3disk_7,5,rectangle_4,,,,,,,,,,,,,,,,,,,,,,,,,,,,,,,,,,,,,,,,,,,,,,,,,,,,,,,,,,,,,,,,,,,,,,,,,,,,,,,,,,,,,,,,,,,,,,,,,,,,,,,,
,,,,,,6163df3f316fdfd57f02e51f,62bbfb540ebbeb5d2e6a7de8,2022-06-29_09h12.59.944,Colour_Asymmetry_Pilot,2022.1.3,Win32,60.0024001,62bbe60bf3d75ef465d3e404,,,,,,,,,,,,,,,,,,,"[0.0351999999999999,0.41159999999999997,0.0038000000000000256]",fourthree,"[0.19199999999999995,0.18419999999999992,0.5136000000000001]",-4,1.201,-37,86,1,0,0,response7disk_5,-2,7,1,0,0,rectangle_8,-2,7,1,0,0,2,-2,7,1,0,0,4,0,4,0,1,,,,,,,,,,,,,,,,,,,,,,,,,,,,,,,,,,,,,,,,,,,,,,,,,,,,,,,,,,,,,,,,,,,,,,,,,,,,,,,,,,,,,,,,,,,,,,,,,,,,,,,,,,,
,,,,,,6163df3f316fdfd57f02e51f,62bbfb540ebbeb5d2e6a7de8,2022-06-29_09h12.59.944,Colour_Asymmetry_Pilot,2022.1.3,Win32,60.0024001,62bbe60bf3d75ef465d3e404,,,,,,,,,,,,,,,,,,,"[-0.26280000000000003,-0.4746,-0.2158]",fourthree,"[0.18419999999999992,-0.4276,-0.404]",-4,10.0506,-38,74,1,0,0,response7disk_5,4,6,1,0,0,rectangle_8,4,6,1,0,0,2,4,6,1,0,0,5,0,5,0,1,,,,,,,,,,,,,,,,,,,,,,,,,,,,,,,,,,,,,,,,,,,,,,,,,,,,,,,,,,,,,,,,,,,,,,,,,,,,,,,,,,,,,,,,,,,,,,,,,,,,,,,,,,,
,,,,,,6163df3f316fdfd57f02e51f,62bbfb540ebbeb5d2e6a7de8,2022-06-29_09h12.59.944,Colour_Asymmetry_Pilot,2022.1.3,Win32,60.0024001,62bbe60bf3d75ef465d3e404,,,,,,,,,,,,,,,,,,,"[0.34099999999999997,0.12939999999999996,-0.9766]",twofour,"[-0.9844,-0.9688,-0.9922]",-4,4.0979,-38,59,1,0,0,response7disk_5,-10,5,1,0,0,rectangle_8,-10,5,1,0,0,2,-10,5,1,0,0,6,0,6,0,1,,,,,,,,,,,,,,,,,,,,,,,,,,,,,,,,,,,,,,,,,,,,,,,,,,,,,,,,,,,,,,,,,,,,,,,,,,,,,,,,,,,,,,,,,,,,,,,,,,,,,,,,,,,
,,,,,,6163df3f316fdfd57f02e51f,62bbfb540ebbeb5d2e6a7de8,2022-06-29_09h12.59.944,Colour_Asymmetry_Pilot,2022.1.3,Win32,60.0024001,62bbe60bf3d75ef465d3e404,,,,,,,,,,,,,,,,,,,,twoone,,4,1.369,,,,,,,,,,,,,,,,,,,,,,,,,,,,,,,,space,3.1912,"[-0.4902000000000001,0.2704,-0.45899999999999996]","[-0.8198,-0.5138,-0.7492000000000001]",31,71,1,0,0,response1disk,-1,-4,1,0,0,rectangle,-1,-4,1,0,0,,2,0.0015,0,-1,-4,1,0,0,0,0,0,21,1,21,first,,,,,,,,,,,,,,,,,,,,,,,,,,,,,,,,,,,,,,,,,,,,,,,,,,,,,,,,,,,,,,,,,,,
,,,,,,6163df3f316fdfd57f02e51f,62bbfb540ebbeb5d2e6a7de8,2022-06-29_09h12.59.944,Colour_Asymmetry_Pilot,2022.1.3,Win32,60.0024001,62bbe60bf3d75ef465d3e404,,,,,,,,,,,,,,,,,,,,onethree,,-4,0.7138,,,,,,,,,,,,,,,,,,,,,,,,,,,,,,,,,,"[-0.4668,-0.8746,-0.2942]","[0.22340000000000004,-0.9296,-0.7884]",-37,70,1,0,0,response7disk,-2,8,1,0,0,rectangle,-2,8,1,0,0,,3,0.0009,0,-2,8,1,0,0,0,1,1,99,1,18,second,,,,,,,,,,,,,,,,,,,,,,,,,,,,,,,,,,,,,,,,,,,,,,,,,,,,,,,,,,,,,,,,,,,
,,,,,,6163df3f316fdfd57f02e51f,62bbfb540ebbeb5d2e6a7de8,2022-06-29_09h12.59.944,Colour_Asymmetry_Pilot,2022.1.3,Win32,60.0024001,62bbe60bf3d75ef465d3e404,,,,,,,,,,,,,,,,,,,,fourthree,,-4,1.0386,,,,,,,,,,,,,,,,,,,,,,,,,,,,,,,,,,"[-0.4902000000000001,0.2704,-0.45899999999999996]","[0.3568,-0.20799999999999996,-0.9844]",-22,62,1,0,0,response7disk,-12,5,1,0,0,rectangle,-12,5,1,0,0,,3,0.0004,0,-12,5,1,0,0,0,2,2,129,1,48,second,,,,,,,,,,,,,,,,,,,,,,,,,,,,,,,,,,,,,,,,,,,,,,,,,,,,,,,,,,,,,,,,,,,
,,,,,,6163df3f316fdfd57f02e51f,62bbfb540ebbeb5d2e6a7de8,2022-06-29_09h12.59.944,Colour_Asymmetry_Pilot,2022.1.3,Win32,60.0024001,62bbe60bf3d75ef465d3e404,,,,,,,,,,,,,,,,,,,,fourthree,,-4,0.921,,,,,,,,,,,,,,,,,,,,,,,,,,,,,,,,,,"[0.5449999999999999,-0.31000000000000005,-0.0354000000000001]","[0.19199999999999995,0.18419999999999992,0.5136000000000001]",-30,53,1,0,0,response7disk,-6,-8,1,0,0,rectangle,-6,-8,1,0,0,,3,0.0002,0,-6,-8,1,0,0,0,3,3,60,1,60,first,,,,,,,,,,,,,,,,,,,,,,,,,,,,,,,,,,,,,,,,,,,,,,,,,,,,,,,,,,,,,,,,,,,
,,,,,,6163df3f316fdfd57f02e51f,62bbfb540ebbeb5d2e6a7de8,2022-06-29_09h12.59.944,Colour_Asymmetry_Pilot,2022.1.3,Win32,60.0024001,62bbe60bf3d75ef465d3e404,,,,,,,,,,,,,,,,,,,,fourtwo,,-4,4.2715,,,,,,,,,,,,,,,,,,,,,,,,,,,,,,,,,,"[0.6625999999999999,0.4980000000000002,-0.357]","[-0.10599999999999998,-0.10599999999999998,0.5841999999999998]",-26,58,1,0,0,response7disk,-13,12,1,0,0,rectangle,-13,12,1,0,0,,3,0.0002,0,-13,12,1,0,0,0,4,4,121,1,40,second,,,,,,,,,,,,,,,,,,,,,,,,,,,,,,,,,,,,,,,,,,,,,,,,,,,,,,,,,,,,,,,,,,,
,,,,,,6163df3f316fdfd57f02e51f,62bbfb540ebbeb5d2e6a7de8,2022-06-29_09h12.59.944,Colour_Asymmetry_Pilot,2022.1.3,Win32,60.0024001,62bbe60bf3d75ef465d3e404,,,,,,,,,,,,,,,,,,,,threefour,,-4,8.3838,,,,,,,,,,,,,,,,,,,,,,,,,,,,,,,,,,"[0.7176,-0.906,-0.6864]","[0.0351999999999999,0.41159999999999997,0.0038000000000000256]",-19,44,1,0,0,response7disk,-17,6,1,0,0,rectangle,-17,6,1,0,0,,1,0.001,0,-17,6,1,0,0,0,5,5,155,1,74,second,,,,,,,,,,,,,,,,,,,,,,,,,,,,,,,,,,,,,,,,,,,,,,,,,,,,,,,,,,,,,,,,,,,
,,,,,,6163df3f316fdfd57f02e51f,62bbfb540ebbeb5d2e6a7de8,2022-06-29_09h12.59.944,Colour_Asymmetry_Pilot,2022.1.3,Win32,60.0024001,62bbe60bf3d75ef465d3e404,,,,,,,,,,,,,,,,,,,,threeone,,-4,0.6687,,,,,,,,,,,,,,,,,,,,,,,,,,,,,,,,,,"[-0.5922000000000001,-0.7492000000000001,-0.5296000000000001]","[0.9763999999999999,-0.1137999999999999,-0.6314]",-36,57,1,0,0,response7disk,-16,13,1,0,0,rectangle,-16,13,1,0,0,,1,0.0005,0,-16,13,1,0,0,0,6,6,114,1,33,second,,,,,,,,,,,,,,,,,,,,,,,,,,,,,,,,,,,,,,,,,,,,,,,,,,,,,,,,,,,,,,,,,,,
,,,,,,6163df3f316fdfd57f02e51f,62bbfb540ebbeb5d2e6a7de8,2022-06-29_09h12.59.944,Colour_Asymmetry_Pilot,2022.1.3,Win32,60.0024001,62bbe60bf3d75ef465d3e404,,,,,,,,,,,,,,,,,,,,threefour,,-4,0.8122,,,,,,,,,,,,,,,,,,,,,,,,,,,,,,,,,,"[0.7802,-0.23140000000000005,-0.20799999999999996]","[0.4196,0.4665999999999999,0.3568]",-38,83,1,0,0,response7disk,-10,-2,1,0,0,rectangle,-10,-2,1,0,0,,1,0.0003,0,-10,-2,1,0,0,0,7,7,150,1,69,second,,,,,,,,,,,,,,,,,,,,,,,,,,,,,,,,,,,,,,,,,,,,,,,,,,,,,,,,,,,,,,,,,,,
,,,,,,6163df3f316fdfd57f02e51f,62bbfb540ebbeb5d2e6a7de8,2022-06-29_09h12.59.944,Colour_Asymmetry_Pilot,2022.1.3,Win32,60.0024001,62bbe60bf3d75ef465d3e404,,,,,,,,,,,,,,,,,,,,onetwo,,-4,1.3802,,,,,,,,,,,,,,,,,,,,,,,,,,,,,,,,,,"[0.12939999999999996,-0.2864,0.3253999999999999]","[0.9686000000000001,0.5763999999999998,0.11359999999999992]",-26,57,1,0,0,response7disk,-7,-8,1,0,0,rectangle,-7,-8,1,0,0,,1,0.0008,0,-7,-8,1,0,0,0,8,8,35,1,35,first,,,,,,,,,,,,,,,,,,,,,,,,,,,,,,,,,,,,,,,,,,,,,,,,,,,,,,,,,,,,,,,,,,,
,,,,,,6163df3f316fdfd57f02e51f,62bbfb540ebbeb5d2e6a7de8,2022-06-29_09h12.59.944,Colour_Asymmetry_Pilot,2022.1.3,Win32,60.0024001,62bbe60bf3d75ef465d3e404,,,,,,,,,,,,,,,,,,,,twoone,,-4,2.3721,,,,,,,,,,,,,,,,,,,,,,,,,,,,,,,,,,"[-0.17659999999999998,0.3253999999999999,0.19999999999999996]","[-0.8198,-0.5138,-0.7492000000000001]",-26,66,1,0,0,response7disk,-11,13,1,0,0,rectangle,-11,13,1,0,0,,1,0.0003,0,-11,13,1,0,0,0,9,9,87,1,6,second,,,,,,,,,,,,,,,,,,,,,,,,,,,,,,,,,,,,,,,,,,,,,,,,,,,,,,,,,,,,,,,,,,,
,,,,,,6163df3f316fdfd57f02e51f,62bbfb540ebbeb5d2e6a7de8,2022-06-29_09h12.59.944,Colour_Asymmetry_Pilot,2022.1.3,Win32,60.0024001,62bbe60bf3d75ef465d3e404,,,,,,,,,,,,,,,,,,,,onethree,,-4,0.6456,,,,,,,,,,,,,,,,,,,,,,,,,,,,,,,,,,"[-0.45899999999999996,-0.3256,-0.9374]","[0.2784,-0.31000000000000005,-0.5452]",-35,72,1,0,0,response7disk,-23,9,1,0,0,rectangle,-23,9,1,0,0,,2,0.0012,0,-23,9,1,0,0,0,10,10,50,1,50,first,,,,,,,,,,,,,,,,,,,,,,,,,,,,,,,,,,,,,,,,,,,,,,,,,,,,,,,,,,,,,,,,,,,
,,,,,,6163df3f316fdfd57f02e51f,62bbfb540ebbeb5d2e6a7de8,2022-06-29_09h12.59.944,Colour_Asymmetry_Pilot,2022.1.3,Win32,60.0024001,62bbe60bf3d75ef465d3e404,,,,,,,,,,,,,,,,,,,,fourthree,,-4,1.3675,,,,,,,,,,,,,,,,,,,,,,,,,,,,,,,,,,"[-0.6706000000000001,-0.6157999999999999,-0.6786]","[0.9372,0.9450000000000001,0.8980000000000001]",-24,49,1,0,0,response7disk,-18,1,1,0,0,rectangle,-18,1,1,0,0,,3,0.0013,0,-18,1,1,0,0,0,11,11,111,1,30,second,,,,,,,,,,,,,,,,,,,,,,,,,,,,,,,,,,,,,,,,,,,,,,,,,,,,,,,,,,,,,,,,,,,
,,,,,,6163df3f316fdfd57f02e51f,62bbfb540ebbeb5d2e6a7de8,2022-06-29_09h12.59.944,Colour_Asymmetry_Pilot,2022.1.3,Win32,60.0024001,62bbe60bf3d75ef465d3e404,,,,,,,,,,,,,,,,,,,,twofour,,-4,0.8183,,,,,,,,,,,,,,,,,,,,,,,,,,,,,,,,,,"[-0.20799999999999996,-0.655,-0.01980000000000004]","[0.2784,-0.31000000000000005,-0.5452]",-25,43,1,0,0,response7disk,-19,-3,1,0,0,rectangle,-19,-3,1,0,0,,2,0.0014,0,-19,-3,1,0,0,0,12,12,81,1,0,second,,,,,,,,,,,,,,,,,,,,,,,,,,,,,,,,,,,,,,,,,,,,,,,,,,,,,,,,,,,,,,,,,,,
,,,,,,6163df3f316fdfd57f02e51f,62bbfb540ebbeb5d2e6a7de8,2022-06-29_09h12.59.944,Colour_Asymmetry_Pilot,2022.1.3,Win32,60.0024001,62bbe60bf3d75ef465d3e404,,,,,,,,,,,,,,,,,,,,threefour,,-4,0.7958,,,,,,,,,,,,,,,,,,,,,,,,,,,,,,,,,,"[-0.07459999999999989,0.12139999999999995,-0.9922]","[0.40379999999999994,0.09000000000000008,0.44300000000000006]",-19,44,1,0,0,response7disk,-7,12,1,0,0,rectangle,-7,12,1,0,0,,1,0.0017,0,-7,12,1,0,0,0,13,13,156,1,75,second,,,,,,,,,,,,,,,,,,,,,,,,,,,,,,,,,,,,,,,,,,,,,,,,,,,,,,,,,,,,,,,,,,,
,,,,,,6163df3f316fdfd57f02e51f,62bbfb540ebbeb5d2e6a7de8,2022-06-29_09h12.59.944,Colour_Asymmetry_Pilot,2022.1.3,Win32,60.0024001,62bbe60bf3d75ef465d3e404,,,,,,,,,,,,,,,,,,,,threeone,,-4,0.6883,,,,,,,,,,,,,,,,,,,,,,,,,,,,,,,,,,"[-0.26280000000000003,-0.4746,-0.2158]","[-0.24719999999999998,-0.0354000000000001,0.3175999999999999]",-35,66,1,0,0,response7disk,-13,0,1,0,0,rectangle,-13,0,1,0,0,,1,0.0003,0,-13,0,1,0,0,0,14,14,100,1,19,second,,,,,,,,,,,,,,,,,,,,,,,,,,,,,,,,,,,,,,,,,,,,,,,,,,,,,,,,,,,,,,,,,,,
,,,,,,6163df3f316fdfd57f02e51f,62bbfb540ebbeb5d2e6a7de8,2022-06-29_09h12.59.944,Colour_Asymmetry_Pilot,2022.1.3,Win32,60.0024001,62bbe60bf3d75ef465d3e404,,,,,,,,,,,,,,,,,,,,threefour,,-4,2.8845,,,,,,,,,,,,,,,,,,,,,,,,,,,,,,,,,,"[0.19199999999999995,0.18419999999999992,0.5136000000000001]","[0.5449999999999999,-0.31000000000000005,-0.0354000000000001]",-21,50,1,0,0,response7disk,-6,2,1,0,0,rectangle,-6,2,1,0,0,,2,0.0009,0,-6,2,1,0,0,0,15,15,141,1,60,second,,,,,,,,,,,,,,,,,,,,,,,,,,,,,,,,,,,,,,,,,,,,,,,,,,,,,,,,,,,,,,,,,,,
,,,,,,6163df3f316fdfd57f02e51f,62bbfb540ebbeb5d2e6a7de8,2022-06-29_09h12.59.944,Colour_Asymmetry_Pilot,2022.1.3,Win32,60.0024001,62bbe60bf3d75ef465d3e404,,,,,,,,,,,,,,,,,,,,fourthree,,-4,7.41,,,,,,,,,,,,,,,,,,,,,,,,,,,,,,,,,,"[0.8274000000000001,-0.5844,-0.9452]","[-0.26280000000000003,-0.4746,-0.2158]",-34,72,1,0,0,response7disk,-17,3,1,0,0,rectangle,64,-32,1,0,0,2,2,2.2394,1,4,-5,1,0,0,0,16,16,97,1,16,second,response3disk_3,rectangle,,,,,,,,,,,,,,,,,,,,,,,,,,,,,,,,,,,,,,,,,,,,,,,,,,,,,,,,,,,,,,,,,
,,,,,,6163df3f316fdfd57f02e51f,62bbfb540ebbeb5d2e6a7de8,2022-06-29_09h12.59.944,Colour_Asymmetry_Pilot,2022.1.3,Win32,60.0024001,62bbe60bf3d75ef465d3e404,,,,,,,,,,,,,,,,,,,,twofour,,-4,0.7218,,,,,,,,,,,,,,,,,,,,,,,,,,,,,,,,,,"[-0.050999999999999934,-0.6706000000000001,-0.804]","[-0.9216,-0.5529999999999999,-0.3962]",-23,63,1,0,0,response7disk,1,0,1,0,0,rectangle,1,0,1,0,0,2,2,0.0003,0,1,0,1,0,0,0,17,17,138,1,57,second,,,,,,,,,,,,,,,,,,,,,,,,,,,,,,,,,,,,,,,,,,,,,,,,,,,,,,,,,,,,,,,,,,,
,,,,,,6163df3f316fdfd57f02e51f,62bbfb540ebbeb5d2e6a7de8,2022-06-29_09h12.59.944,Colour_Asymmetry_Pilot,2022.1.3,Win32,60.0024001,62bbe60bf3d75ef465d3e404,,,,,,,,,,,,,,,,,,,,onetwo,,2,4.221,,,,,,,,,,,,,,,,,,,,,,,,,,,,,,,,,,"[-0.17659999999999998,-0.2864,-0.8354]","[-0.45899999999999996,-0.3256,-0.9374]",61,-28,1,0,0,response3disk,9,6,1,0,0,rectangle,9,6,1,0,0,2,3,0.0008,0,9,6,1,0,0,0,18,18,133,1,52,second,,,,,,,,,,,,,,,,,,,,,,,,,,,,,,,,,,,,,,,,,,,,,,,,,,,,,,,,,,,,,,,,,,,
,,,,,,6163df3f316fdfd57f02e51f,62bbfb540ebbeb5d2e6a7de8,2022-06-29_09h12.59.944,Colour_Asymmetry_Pilot,2022.1.3,Win32,60.0024001,62bbe60bf3d75ef465d3e404,,,,,,,,,,,,,,,,,,,,fourtwo,,2,1.9547,,,,,,,,,,,,,,,,,,,,,,,,,,,,,,,,,,"[-0.5452,-0.608,0.2470000000000001]","[0.11359999999999992,0.6312,0.5213999999999999]",56,-33,1,0,0,response3disk,2,4,1,0,0,rectangle,2,4,1,0,0,2,2,0.0011,0,2,4,1,0,0,0,19,19,38,1,38,first,,,,,,,,,,,,,,,,,,,,,,,,,,,,,,,,,,,,,,,,,,,,,,,,,,,,,,,,,,,,,,,,,,,
,,,,,,6163df3f316fdfd57f02e51f,62bbfb540ebbeb5d2e6a7de8,2022-06-29_09h12.59.944,Colour_Asymmetry_Pilot,2022.1.3,Win32,60.0024001,62bbe60bf3d75ef465d3e404,,,,,,,,,,,,,,,,,,,,twofour,,-4,1.0555,,,,,,,,,,,,,,,,,,,,,,,,,,,,,,,,,,"[0.2862,0.7802,0.3568]","[0.05879999999999996,0.2784,0.5841999999999998]",-17,52,1,0,0,response7disk,-7,-9,1,0,0,rectangle,-7,-9,1,0,0,2,1,0.0011,0,-7,-9,1,0,0,0,20,20,8,1,8,first,,,,,,,,,,,,,,,,,,,,,,,,,,,,,,,,,,,,,,,,,,,,,,,,,,,,,,,,,,,,,,,,,,,
