trials.thisRepN,trials.thisTrialN,trials.thisN,trials.thisIndex,trials.ran,Colourcodes,participant,session,date,expName,psychopyVersion,OS,frameRate,study_id,trials_4.thisRepN,trials_4.thisTrialN,trials_4.thisN,trials_4.thisIndex,trials_4.ran,StimulusPos,key_resp.keys,key_resp.rt,key_resp_2.keys,key_resp_2.rt,key_resp_15.keys,key_resp_15.rt,key_resp_17.keys,key_resp_17.rt,key_resp_9.keys,key_resp_9.rt,key_resp_10.keys,key_resp_10.rt,Circle1_col,Ecc,Circle2_col,similarity,response_time,mouse_5.x,mouse_5.y,mouse_5.leftButton,mouse_5.midButton,mouse_5.rightButton,mouse_5.clicked_name,mouse_10.x,mouse_10.y,mouse_10.leftButton,mouse_10.midButton,mouse_10.rightButton,mouse_10.clicked_name,mouse_7.x,mouse_7.y,mouse_7.leftButton,mouse_7.midButton,mouse_7.rightButton,catchnumberprac,mouse_6.x,mouse_6.y,mouse_6.leftButton,mouse_6.midButton,mouse_6.rightButton,duringprac.thisRepN,duringprac.thisTrialN,duringprac.thisN,duringprac.thisIndex,duringprac.ran,mouse_7.clicked_name,catchprac,mouse_6.clicked_name,key_resp_22.keys,key_resp_22.rt,Circle1_colour,Circle2_colour,mouse.x,mouse.y,mouse.leftButton,mouse.midButton,mouse.rightButton,mouse.clicked_name,mouse_2.x,mouse_2.y,mouse_2.leftButton,mouse_2.midButton,mouse_2.rightButton,mouse_2.clicked_name,mouse_3.x,mouse_3.y,mouse_3.leftButton,mouse_3.midButton,mouse_3.rightButton,catchresponse,catchnumber,response_time_catch,Catch,mouse_11.x,mouse_11.y,mouse_11.leftButton,mouse_11.midButton,mouse_11.rightButton,trials_2.thisRepN,trials_2.thisTrialN,trials_2.thisN,trials_2.thisIndex,trials_2.ran,Colourpair,Temporder,mouse_3.clicked_name,mouse_11.clicked_name,trials_3.thisRepN,trials_3.thisTrialN,trials_3.thisN,trials_3.thisIndex,trials_3.ran,key_resp_instr_Ishi.keys,key_resp_instr_Ishi.rt,Ishi_trial_keyresp.keys,Ishi_trial_keyresp.rt,Ishi_textbox.text,Ishi_loop.thisRepN,Ishi_loop.thisTrialN,Ishi_loop.thisN,Ishi_loop.thisIndex,Ishi_loop.ran,imageaddress,textbox.text,mouse_4.x,mouse_4.y,mouse_4.leftButton,mouse_4.midButton,mouse_4.rightButton,mouse_4.clicked_name,textbox_2.text,mouse_8.x,mouse_8.y,mouse_8.leftButton,mouse_8.midButton,mouse_8.rightButton,mouse_8.clicked_name,textbox_3.text,mouse_9.x,mouse_9.y,mouse_9.leftButton,mouse_9.midButton,mouse_9.rightButton,mouse_9.clicked_name,textbox_4.text,mouse_12.x,mouse_12.y,mouse_12.leftButton,mouse_12.midButton,mouse_12.rightButton,mouse_12.clicked_name,textbox_5.text,mouse_13.x,mouse_13.y,mouse_13.leftButton,mouse_13.midButton,mouse_13.rightButton,mouse_13.clicked_name,textbox_6.text,mouse_14.x,mouse_14.y,mouse_14.leftButton,mouse_14.midButton,mouse_14.rightButton,mouse_14.clicked_name,textbox_7.text,mouse_15.x,mouse_15.y,mouse_15.leftButton,mouse_15.midButton,mouse_15.rightButton,mouse_15.clicked_name
0,0,0,67,1,,61688c1020949a931ca5f0ca,62bbfb1b6205431a697012b7,2022-06-29_09h15.13.110,Colour_Asymmetry_Pilot,2022.1.3,Win32,60.0528465,62bbe60bf3d75ef465d3e404,,,,,,,,,,,,,,,,,,,,,,,,,,,,,,,,,,,,,,,,,,,,,,,,,,,,,,,,,,,,,,,,,,,,,,,,,,,,,,,,,,,,,,,,,,,,,,,,,,,,,,,,,,,,,,,,,,,,,,,,,,,,,,,,,,,,,,,,,,,,,,,,,,,,,,,,,,,,,,
0,1,1,80,1,,61688c1020949a931ca5f0ca,62bbfb1b6205431a697012b7,2022-06-29_09h15.13.110,Colour_Asymmetry_Pilot,2022.1.3,Win32,60.0528465,62bbe60bf3d75ef465d3e404,,,,,,,,,,,,,,,,,,,,,,,,,,,,,,,,,,,,,,,,,,,,,,,,,,,,,,,,,,,,,,,,,,,,,,,,,,,,,,,,,,,,,,,,,,,,,,,,,,,,,,,,,,,,,,,,,,,,,,,,,,,,,,,,,,,,,,,,,,,,,,,,,,,,,,,,,,,,,,
0,2,2,65,1,,61688c1020949a931ca5f0ca,62bbfb1b6205431a697012b7,2022-06-29_09h15.13.110,Colour_Asymmetry_Pilot,2022.1.3,Win32,60.0528465,62bbe60bf3d75ef465d3e404,,,,,,,,,,,,,,,,,,,,,,,,,,,,,,,,,,,,,,,,,,,,,,,,,,,,,,,,,,,,,,,,,,,,,,,,,,,,,,,,,,,,,,,,,,,,,,,,,,,,,,,,,,,,,,,,,,,,,,,,,,,,,,,,,,,,,,,,,,,,,,,,,,,,,,,,,,,,,,
0,3,3,35,1,,61688c1020949a931ca5f0ca,62bbfb1b6205431a697012b7,2022-06-29_09h15.13.110,Colour_Asymmetry_Pilot,2022.1.3,Win32,60.0528465,62bbe60bf3d75ef465d3e404,,,,,,,,,,,,,,,,,,,,,,,,,,,,,,,,,,,,,,,,,,,,,,,,,,,,,,,,,,,,,,,,,,,,,,,,,,,,,,,,,,,,,,,,,,,,,,,,,,,,,,,,,,,,,,,,,,,,,,,,,,,,,,,,,,,,,,,,,,,,,,,,,,,,,,,,,,,,,,
0,4,4,16,1,,61688c1020949a931ca5f0ca,62bbfb1b6205431a697012b7,2022-06-29_09h15.13.110,Colour_Asymmetry_Pilot,2022.1.3,Win32,60.0528465,62bbe60bf3d75ef465d3e404,,,,,,,,,,,,,,,,,,,,,,,,,,,,,,,,,,,,,,,,,,,,,,,,,,,,,,,,,,,,,,,,,,,,,,,,,,,,,,,,,,,,,,,,,,,,,,,,,,,,,,,,,,,,,,,,,,,,,,,,,,,,,,,,,,,,,,,,,,,,,,,,,,,,,,,,,,,,,,
0,5,5,20,1,,61688c1020949a931ca5f0ca,62bbfb1b6205431a697012b7,2022-06-29_09h15.13.110,Colour_Asymmetry_Pilot,2022.1.3,Win32,60.0528465,62bbe60bf3d75ef465d3e404,,,,,,,,,,,,,,,,,,,,,,,,,,,,,,,,,,,,,,,,,,,,,,,,,,,,,,,,,,,,,,,,,,,,,,,,,,,,,,,,,,,,,,,,,,,,,,,,,,,,,,,,,,,,,,,,,,,,,,,,,,,,,,,,,,,,,,,,,,,,,,,,,,,,,,,,,,,,,,
0,6,6,77,1,,61688c1020949a931ca5f0ca,62bbfb1b6205431a697012b7,2022-06-29_09h15.13.110,Colour_Asymmetry_Pilot,2022.1.3,Win32,60.0528465,62bbe60bf3d75ef465d3e404,,,,,,,,,,,,,,,,,,,,,,,,,,,,,,,,,,,,,,,,,,,,,,,,,,,,,,,,,,,,,,,,,,,,,,,,,,,,,,,,,,,,,,,,,,,,,,,,,,,,,,,,,,,,,,,,,,,,,,,,,,,,,,,,,,,,,,,,,,,,,,,,,,,,,,,,,,,,,,
0,7,7,52,1,,61688c1020949a931ca5f0ca,62bbfb1b6205431a697012b7,2022-06-29_09h15.13.110,Colour_Asymmetry_Pilot,2022.1.3,Win32,60.0528465,62bbe60bf3d75ef465d3e404,,,,,,,,,,,,,,,,,,,,,,,,,,,,,,,,,,,,,,,,,,,,,,,,,,,,,,,,,,,,,,,,,,,,,,,,,,,,,,,,,,,,,,,,,,,,,,,,,,,,,,,,,,,,,,,,,,,,,,,,,,,,,,,,,,,,,,,,,,,,,,,,,,,,,,,,,,,,,,
0,8,8,49,1,,61688c1020949a931ca5f0ca,62bbfb1b6205431a697012b7,2022-06-29_09h15.13.110,Colour_Asymmetry_Pilot,2022.1.3,Win32,60.0528465,62bbe60bf3d75ef465d3e404,,,,,,,,,,,,,,,,,,,,,,,,,,,,,,,,,,,,,,,,,,,,,,,,,,,,,,,,,,,,,,,,,,,,,,,,,,,,,,,,,,,,,,,,,,,,,,,,,,,,,,,,,,,,,,,,,,,,,,,,,,,,,,,,,,,,,,,,,,,,,,,,,,,,,,,,,,,,,,
0,9,9,7,1,,61688c1020949a931ca5f0ca,62bbfb1b6205431a697012b7,2022-06-29_09h15.13.110,Colour_Asymmetry_Pilot,2022.1.3,Win32,60.0528465,62bbe60bf3d75ef465d3e404,,,,,,,,,,,,,,,,,,,,,,,,,,,,,,,,,,,,,,,,,,,,,,,,,,,,,,,,,,,,,,,,,,,,,,,,,,,,,,,,,,,,,,,,,,,,,,,,,,,,,,,,,,,,,,,,,,,,,,,,,,,,,,,,,,,,,,,,,,,,,,,,,,,,,,,,,,,,,,
0,10,10,34,1,,61688c1020949a931ca5f0ca,62bbfb1b6205431a697012b7,2022-06-29_09h15.13.110,Colour_Asymmetry_Pilot,2022.1.3,Win32,60.0528465,62bbe60bf3d75ef465d3e404,,,,,,,,,,,,,,,,,,,,,,,,,,,,,,,,,,,,,,,,,,,,,,,,,,,,,,,,,,,,,,,,,,,,,,,,,,,,,,,,,,,,,,,,,,,,,,,,,,,,,,,,,,,,,,,,,,,,,,,,,,,,,,,,,,,,,,,,,,,,,,,,,,,,,,,,,,,,,,
0,11,11,51,1,,61688c1020949a931ca5f0ca,62bbfb1b6205431a697012b7,2022-06-29_09h15.13.110,Colour_Asymmetry_Pilot,2022.1.3,Win32,60.0528465,62bbe60bf3d75ef465d3e404,,,,,,,,,,,,,,,,,,,,,,,,,,,,,,,,,,,,,,,,,,,,,,,,,,,,,,,,,,,,,,,,,,,,,,,,,,,,,,,,,,,,,,,,,,,,,,,,,,,,,,,,,,,,,,,,,,,,,,,,,,,,,,,,,,,,,,,,,,,,,,,,,,,,,,,,,,,,,,
0,12,12,56,1,,61688c1020949a931ca5f0ca,62bbfb1b6205431a697012b7,2022-06-29_09h15.13.110,Colour_Asymmetry_Pilot,2022.1.3,Win32,60.0528465,62bbe60bf3d75ef465d3e404,,,,,,,,,,,,,,,,,,,,,,,,,,,,,,,,,,,,,,,,,,,,,,,,,,,,,,,,,,,,,,,,,,,,,,,,,,,,,,,,,,,,,,,,,,,,,,,,,,,,,,,,,,,,,,,,,,,,,,,,,,,,,,,,,,,,,,,,,,,,,,,,,,,,,,,,,,,,,,
0,13,13,41,1,,61688c1020949a931ca5f0ca,62bbfb1b6205431a697012b7,2022-06-29_09h15.13.110,Colour_Asymmetry_Pilot,2022.1.3,Win32,60.0528465,62bbe60bf3d75ef465d3e404,,,,,,,,,,,,,,,,,,,,,,,,,,,,,,,,,,,,,,,,,,,,,,,,,,,,,,,,,,,,,,,,,,,,,,,,,,,,,,,,,,,,,,,,,,,,,,,,,,,,,,,,,,,,,,,,,,,,,,,,,,,,,,,,,,,,,,,,,,,,,,,,,,,,,,,,,,,,,,
0,14,14,25,1,,61688c1020949a931ca5f0ca,62bbfb1b6205431a697012b7,2022-06-29_09h15.13.110,Colour_Asymmetry_Pilot,2022.1.3,Win32,60.0528465,62bbe60bf3d75ef465d3e404,,,,,,,,,,,,,,,,,,,,,,,,,,,,,,,,,,,,,,,,,,,,,,,,,,,,,,,,,,,,,,,,,,,,,,,,,,,,,,,,,,,,,,,,,,,,,,,,,,,,,,,,,,,,,,,,,,,,,,,,,,,,,,,,,,,,,,,,,,,,,,,,,,,,,,,,,,,,,,
0,15,15,73,1,,61688c1020949a931ca5f0ca,62bbfb1b6205431a697012b7,2022-06-29_09h15.13.110,Colour_Asymmetry_Pilot,2022.1.3,Win32,60.0528465,62bbe60bf3d75ef465d3e404,,,,,,,,,,,,,,,,,,,,,,,,,,,,,,,,,,,,,,,,,,,,,,,,,,,,,,,,,,,,,,,,,,,,,,,,,,,,,,,,,,,,,,,,,,,,,,,,,,,,,,,,,,,,,,,,,,,,,,,,,,,,,,,,,,,,,,,,,,,,,,,,,,,,,,,,,,,,,,
0,16,16,14,1,,61688c1020949a931ca5f0ca,62bbfb1b6205431a697012b7,2022-06-29_09h15.13.110,Colour_Asymmetry_Pilot,2022.1.3,Win32,60.0528465,62bbe60bf3d75ef465d3e404,,,,,,,,,,,,,,,,,,,,,,,,,,,,,,,,,,,,,,,,,,,,,,,,,,,,,,,,,,,,,,,,,,,,,,,,,,,,,,,,,,,,,,,,,,,,,,,,,,,,,,,,,,,,,,,,,,,,,,,,,,,,,,,,,,,,,,,,,,,,,,,,,,,,,,,,,,,,,,
0,17,17,22,1,,61688c1020949a931ca5f0ca,62bbfb1b6205431a697012b7,2022-06-29_09h15.13.110,Colour_Asymmetry_Pilot,2022.1.3,Win32,60.0528465,62bbe60bf3d75ef465d3e404,,,,,,,,,,,,,,,,,,,,,,,,,,,,,,,,,,,,,,,,,,,,,,,,,,,,,,,,,,,,,,,,,,,,,,,,,,,,,,,,,,,,,,,,,,,,,,,,,,,,,,,,,,,,,,,,,,,,,,,,,,,,,,,,,,,,,,,,,,,,,,,,,,,,,,,,,,,,,,
0,18,18,38,1,,61688c1020949a931ca5f0ca,62bbfb1b6205431a697012b7,2022-06-29_09h15.13.110,Colour_Asymmetry_Pilot,2022.1.3,Win32,60.0528465,62bbe60bf3d75ef465d3e404,,,,,,,,,,,,,,,,,,,,,,,,,,,,,,,,,,,,,,,,,,,,,,,,,,,,,,,,,,,,,,,,,,,,,,,,,,,,,,,,,,,,,,,,,,,,,,,,,,,,,,,,,,,,,,,,,,,,,,,,,,,,,,,,,,,,,,,,,,,,,,,,,,,,,,,,,,,,,,
0,19,19,84,1,,61688c1020949a931ca5f0ca,62bbfb1b6205431a697012b7,2022-06-29_09h15.13.110,Colour_Asymmetry_Pilot,2022.1.3,Win32,60.0528465,62bbe60bf3d75ef465d3e404,,,,,,,,,,,,,,,,,,,,,,,,,,,,,,,,,,,,,,,,,,,,,,,,,,,,,,,,,,,,,,,,,,,,,,,,,,,,,,,,,,,,,,,,,,,,,,,,,,,,,,,,,,,,,,,,,,,,,,,,,,,,,,,,,,,,,,,,,,,,,,,,,,,,,,,,,,,,,,
0,20,20,55,1,,61688c1020949a931ca5f0ca,62bbfb1b6205431a697012b7,2022-06-29_09h15.13.110,Colour_Asymmetry_Pilot,2022.1.3,Win32,60.0528465,62bbe60bf3d75ef465d3e404,,,,,,,,,,,,,,,,,,,,,,,,,,,,,,,,,,,,,,,,,,,,,,,,,,,,,,,,,,,,,,,,,,,,,,,,,,,,,,,,,,,,,,,,,,,,,,,,,,,,,,,,,,,,,,,,,,,,,,,,,,,,,,,,,,,,,,,,,,,,,,,,,,,,,,,,,,,,,,
0,21,21,88,1,,61688c1020949a931ca5f0ca,62bbfb1b6205431a697012b7,2022-06-29_09h15.13.110,Colour_Asymmetry_Pilot,2022.1.3,Win32,60.0528465,62bbe60bf3d75ef465d3e404,,,,,,,,,,,,,,,,,,,,,,,,,,,,,,,,,,,,,,,,,,,,,,,,,,,,,,,,,,,,,,,,,,,,,,,,,,,,,,,,,,,,,,,,,,,,,,,,,,,,,,,,,,,,,,,,,,,,,,,,,,,,,,,,,,,,,,,,,,,,,,,,,,,,,,,,,,,,,,
0,22,22,37,1,,61688c1020949a931ca5f0ca,62bbfb1b6205431a697012b7,2022-06-29_09h15.13.110,Colour_Asymmetry_Pilot,2022.1.3,Win32,60.0528465,62bbe60bf3d75ef465d3e404,,,,,,,,,,,,,,,,,,,,,,,,,,,,,,,,,,,,,,,,,,,,,,,,,,,,,,,,,,,,,,,,,,,,,,,,,,,,,,,,,,,,,,,,,,,,,,,,,,,,,,,,,,,,,,,,,,,,,,,,,,,,,,,,,,,,,,,,,,,,,,,,,,,,,,,,,,,,,,
0,23,23,92,1,,61688c1020949a931ca5f0ca,62bbfb1b6205431a697012b7,2022-06-29_09h15.13.110,Colour_Asymmetry_Pilot,2022.1.3,Win32,60.0528465,62bbe60bf3d75ef465d3e404,,,,,,,,,,,,,,,,,,,,,,,,,,,,,,,,,,,,,,,,,,,,,,,,,,,,,,,,,,,,,,,,,,,,,,,,,,,,,,,,,,,,,,,,,,,,,,,,,,,,,,,,,,,,,,,,,,,,,,,,,,,,,,,,,,,,,,,,,,,,,,,,,,,,,,,,,,,,,,
0,24,24,90,1,,61688c1020949a931ca5f0ca,62bbfb1b6205431a697012b7,2022-06-29_09h15.13.110,Colour_Asymmetry_Pilot,2022.1.3,Win32,60.0528465,62bbe60bf3d75ef465d3e404,,,,,,,,,,,,,,,,,,,,,,,,,,,,,,,,,,,,,,,,,,,,,,,,,,,,,,,,,,,,,,,,,,,,,,,,,,,,,,,,,,,,,,,,,,,,,,,,,,,,,,,,,,,,,,,,,,,,,,,,,,,,,,,,,,,,,,,,,,,,,,,,,,,,,,,,,,,,,,
0,25,25,61,1,,61688c1020949a931ca5f0ca,62bbfb1b6205431a697012b7,2022-06-29_09h15.13.110,Colour_Asymmetry_Pilot,2022.1.3,Win32,60.0528465,62bbe60bf3d75ef465d3e404,,,,,,,,,,,,,,,,,,,,,,,,,,,,,,,,,,,,,,,,,,,,,,,,,,,,,,,,,,,,,,,,,,,,,,,,,,,,,,,,,,,,,,,,,,,,,,,,,,,,,,,,,,,,,,,,,,,,,,,,,,,,,,,,,,,,,,,,,,,,,,,,,,,,,,,,,,,,,,
0,26,26,66,1,,61688c1020949a931ca5f0ca,62bbfb1b6205431a697012b7,2022-06-29_09h15.13.110,Colour_Asymmetry_Pilot,2022.1.3,Win32,60.0528465,62bbe60bf3d75ef465d3e404,,,,,,,,,,,,,,,,,,,,,,,,,,,,,,,,,,,,,,,,,,,,,,,,,,,,,,,,,,,,,,,,,,,,,,,,,,,,,,,,,,,,,,,,,,,,,,,,,,,,,,,,,,,,,,,,,,,,,,,,,,,,,,,,,,,,,,,,,,,,,,,,,,,,,,,,,,,,,,
0,27,27,60,1,,61688c1020949a931ca5f0ca,62bbfb1b6205431a697012b7,2022-06-29_09h15.13.110,Colour_Asymmetry_Pilot,2022.1.3,Win32,60.0528465,62bbe60bf3d75ef465d3e404,,,,,,,,,,,,,,,,,,,,,,,,,,,,,,,,,,,,,,,,,,,,,,,,,,,,,,,,,,,,,,,,,,,,,,,,,,,,,,,,,,,,,,,,,,,,,,,,,,,,,,,,,,,,,,,,,,,,,,,,,,,,,,,,,,,,,,,,,,,,,,,,,,,,,,,,,,,,,,
0,28,28,6,1,,61688c1020949a931ca5f0ca,62bbfb1b6205431a697012b7,2022-06-29_09h15.13.110,Colour_Asymmetry_Pilot,2022.1.3,Win32,60.0528465,62bbe60bf3d75ef465d3e404,,,,,,,,,,,,,,,,,,,,,,,,,,,,,,,,,,,,,,,,,,,,,,,,,,,,,,,,,,,,,,,,,,,,,,,,,,,,,,,,,,,,,,,,,,,,,,,,,,,,,,,,,,,,,,,,,,,,,,,,,,,,,,,,,,,,,,,,,,,,,,,,,,,,,,,,,,,,,,
0,29,29,47,1,,61688c1020949a931ca5f0ca,62bbfb1b6205431a697012b7,2022-06-29_09h15.13.110,Colour_Asymmetry_Pilot,2022.1.3,Win32,60.0528465,62bbe60bf3d75ef465d3e404,,,,,,,,,,,,,,,,,,,,,,,,,,,,,,,,,,,,,,,,,,,,,,,,,,,,,,,,,,,,,,,,,,,,,,,,,,,,,,,,,,,,,,,,,,,,,,,,,,,,,,,,,,,,,,,,,,,,,,,,,,,,,,,,,,,,,,,,,,,,,,,,,,,,,,,,,,,,,,
0,30,30,8,1,,61688c1020949a931ca5f0ca,62bbfb1b6205431a697012b7,2022-06-29_09h15.13.110,Colour_Asymmetry_Pilot,2022.1.3,Win32,60.0528465,62bbe60bf3d75ef465d3e404,,,,,,,,,,,,,,,,,,,,,,,,,,,,,,,,,,,,,,,,,,,,,,,,,,,,,,,,,,,,,,,,,,,,,,,,,,,,,,,,,,,,,,,,,,,,,,,,,,,,,,,,,,,,,,,,,,,,,,,,,,,,,,,,,,,,,,,,,,,,,,,,,,,,,,,,,,,,,,
0,31,31,31,1,,61688c1020949a931ca5f0ca,62bbfb1b6205431a697012b7,2022-06-29_09h15.13.110,Colour_Asymmetry_Pilot,2022.1.3,Win32,60.0528465,62bbe60bf3d75ef465d3e404,,,,,,,,,,,,,,,,,,,,,,,,,,,,,,,,,,,,,,,,,,,,,,,,,,,,,,,,,,,,,,,,,,,,,,,,,,,,,,,,,,,,,,,,,,,,,,,,,,,,,,,,,,,,,,,,,,,,,,,,,,,,,,,,,,,,,,,,,,,,,,,,,,,,,,,,,,,,,,
0,32,32,9,1,,61688c1020949a931ca5f0ca,62bbfb1b6205431a697012b7,2022-06-29_09h15.13.110,Colour_Asymmetry_Pilot,2022.1.3,Win32,60.0528465,62bbe60bf3d75ef465d3e404,,,,,,,,,,,,,,,,,,,,,,,,,,,,,,,,,,,,,,,,,,,,,,,,,,,,,,,,,,,,,,,,,,,,,,,,,,,,,,,,,,,,,,,,,,,,,,,,,,,,,,,,,,,,,,,,,,,,,,,,,,,,,,,,,,,,,,,,,,,,,,,,,,,,,,,,,,,,,,
0,33,33,70,1,,61688c1020949a931ca5f0ca,62bbfb1b6205431a697012b7,2022-06-29_09h15.13.110,Colour_Asymmetry_Pilot,2022.1.3,Win32,60.0528465,62bbe60bf3d75ef465d3e404,,,,,,,,,,,,,,,,,,,,,,,,,,,,,,,,,,,,,,,,,,,,,,,,,,,,,,,,,,,,,,,,,,,,,,,,,,,,,,,,,,,,,,,,,,,,,,,,,,,,,,,,,,,,,,,,,,,,,,,,,,,,,,,,,,,,,,,,,,,,,,,,,,,,,,,,,,,,,,
0,34,34,12,1,,61688c1020949a931ca5f0ca,62bbfb1b6205431a697012b7,2022-06-29_09h15.13.110,Colour_Asymmetry_Pilot,2022.1.3,Win32,60.0528465,62bbe60bf3d75ef465d3e404,,,,,,,,,,,,,,,,,,,,,,,,,,,,,,,,,,,,,,,,,,,,,,,,,,,,,,,,,,,,,,,,,,,,,,,,,,,,,,,,,,,,,,,,,,,,,,,,,,,,,,,,,,,,,,,,,,,,,,,,,,,,,,,,,,,,,,,,,,,,,,,,,,,,,,,,,,,,,,
0,35,35,91,1,,61688c1020949a931ca5f0ca,62bbfb1b6205431a697012b7,2022-06-29_09h15.13.110,Colour_Asymmetry_Pilot,2022.1.3,Win32,60.0528465,62bbe60bf3d75ef465d3e404,,,,,,,,,,,,,,,,,,,,,,,,,,,,,,,,,,,,,,,,,,,,,,,,,,,,,,,,,,,,,,,,,,,,,,,,,,,,,,,,,,,,,,,,,,,,,,,,,,,,,,,,,,,,,,,,,,,,,,,,,,,,,,,,,,,,,,,,,,,,,,,,,,,,,,,,,,,,,,
0,36,36,89,1,,61688c1020949a931ca5f0ca,62bbfb1b6205431a697012b7,2022-06-29_09h15.13.110,Colour_Asymmetry_Pilot,2022.1.3,Win32,60.0528465,62bbe60bf3d75ef465d3e404,,,,,,,,,,,,,,,,,,,,,,,,,,,,,,,,,,,,,,,,,,,,,,,,,,,,,,,,,,,,,,,,,,,,,,,,,,,,,,,,,,,,,,,,,,,,,,,,,,,,,,,,,,,,,,,,,,,,,,,,,,,,,,,,,,,,,,,,,,,,,,,,,,,,,,,,,,,,,,
0,37,37,27,1,,61688c1020949a931ca5f0ca,62bbfb1b6205431a697012b7,2022-06-29_09h15.13.110,Colour_Asymmetry_Pilot,2022.1.3,Win32,60.0528465,62bbe60bf3d75ef465d3e404,,,,,,,,,,,,,,,,,,,,,,,,,,,,,,,,,,,,,,,,,,,,,,,,,,,,,,,,,,,,,,,,,,,,,,,,,,,,,,,,,,,,,,,,,,,,,,,,,,,,,,,,,,,,,,,,,,,,,,,,,,,,,,,,,,,,,,,,,,,,,,,,,,,,,,,,,,,,,,
0,38,38,15,1,,61688c1020949a931ca5f0ca,62bbfb1b6205431a697012b7,2022-06-29_09h15.13.110,Colour_Asymmetry_Pilot,2022.1.3,Win32,60.0528465,62bbe60bf3d75ef465d3e404,,,,,,,,,,,,,,,,,,,,,,,,,,,,,,,,,,,,,,,,,,,,,,,,,,,,,,,,,,,,,,,,,,,,,,,,,,,,,,,,,,,,,,,,,,,,,,,,,,,,,,,,,,,,,,,,,,,,,,,,,,,,,,,,,,,,,,,,,,,,,,,,,,,,,,,,,,,,,,
0,39,39,74,1,,61688c1020949a931ca5f0ca,62bbfb1b6205431a697012b7,2022-06-29_09h15.13.110,Colour_Asymmetry_Pilot,2022.1.3,Win32,60.0528465,62bbe60bf3d75ef465d3e404,,,,,,,,,,,,,,,,,,,,,,,,,,,,,,,,,,,,,,,,,,,,,,,,,,,,,,,,,,,,,,,,,,,,,,,,,,,,,,,,,,,,,,,,,,,,,,,,,,,,,,,,,,,,,,,,,,,,,,,,,,,,,,,,,,,,,,,,,,,,,,,,,,,,,,,,,,,,,,
0,40,40,46,1,,61688c1020949a931ca5f0ca,62bbfb1b6205431a697012b7,2022-06-29_09h15.13.110,Colour_Asymmetry_Pilot,2022.1.3,Win32,60.0528465,62bbe60bf3d75ef465d3e404,,,,,,,,,,,,,,,,,,,,,,,,,,,,,,,,,,,,,,,,,,,,,,,,,,,,,,,,,,,,,,,,,,,,,,,,,,,,,,,,,,,,,,,,,,,,,,,,,,,,,,,,,,,,,,,,,,,,,,,,,,,,,,,,,,,,,,,,,,,,,,,,,,,,,,,,,,,,,,
0,41,41,87,1,,61688c1020949a931ca5f0ca,62bbfb1b6205431a697012b7,2022-06-29_09h15.13.110,Colour_Asymmetry_Pilot,2022.1.3,Win32,60.0528465,62bbe60bf3d75ef465d3e404,,,,,,,,,,,,,,,,,,,,,,,,,,,,,,,,,,,,,,,,,,,,,,,,,,,,,,,,,,,,,,,,,,,,,,,,,,,,,,,,,,,,,,,,,,,,,,,,,,,,,,,,,,,,,,,,,,,,,,,,,,,,,,,,,,,,,,,,,,,,,,,,,,,,,,,,,,,,,,
0,42,42,2,1,,61688c1020949a931ca5f0ca,62bbfb1b6205431a697012b7,2022-06-29_09h15.13.110,Colour_Asymmetry_Pilot,2022.1.3,Win32,60.0528465,62bbe60bf3d75ef465d3e404,,,,,,,,,,,,,,,,,,,,,,,,,,,,,,,,,,,,,,,,,,,,,,,,,,,,,,,,,,,,,,,,,,,,,,,,,,,,,,,,,,,,,,,,,,,,,,,,,,,,,,,,,,,,,,,,,,,,,,,,,,,,,,,,,,,,,,,,,,,,,,,,,,,,,,,,,,,,,,
0,43,43,58,1,,61688c1020949a931ca5f0ca,62bbfb1b6205431a697012b7,2022-06-29_09h15.13.110,Colour_Asymmetry_Pilot,2022.1.3,Win32,60.0528465,62bbe60bf3d75ef465d3e404,,,,,,,,,,,,,,,,,,,,,,,,,,,,,,,,,,,,,,,,,,,,,,,,,,,,,,,,,,,,,,,,,,,,,,,,,,,,,,,,,,,,,,,,,,,,,,,,,,,,,,,,,,,,,,,,,,,,,,,,,,,,,,,,,,,,,,,,,,,,,,,,,,,,,,,,,,,,,,
0,44,44,76,1,,61688c1020949a931ca5f0ca,62bbfb1b6205431a697012b7,2022-06-29_09h15.13.110,Colour_Asymmetry_Pilot,2022.1.3,Win32,60.0528465,62bbe60bf3d75ef465d3e404,,,,,,,,,,,,,,,,,,,,,,,,,,,,,,,,,,,,,,,,,,,,,,,,,,,,,,,,,,,,,,,,,,,,,,,,,,,,,,,,,,,,,,,,,,,,,,,,,,,,,,,,,,,,,,,,,,,,,,,,,,,,,,,,,,,,,,,,,,,,,,,,,,,,,,,,,,,,,,
0,45,45,29,1,,61688c1020949a931ca5f0ca,62bbfb1b6205431a697012b7,2022-06-29_09h15.13.110,Colour_Asymmetry_Pilot,2022.1.3,Win32,60.0528465,62bbe60bf3d75ef465d3e404,,,,,,,,,,,,,,,,,,,,,,,,,,,,,,,,,,,,,,,,,,,,,,,,,,,,,,,,,,,,,,,,,,,,,,,,,,,,,,,,,,,,,,,,,,,,,,,,,,,,,,,,,,,,,,,,,,,,,,,,,,,,,,,,,,,,,,,,,,,,,,,,,,,,,,,,,,,,,,
0,46,46,69,1,,61688c1020949a931ca5f0ca,62bbfb1b6205431a697012b7,2022-06-29_09h15.13.110,Colour_Asymmetry_Pilot,2022.1.3,Win32,60.0528465,62bbe60bf3d75ef465d3e404,,,,,,,,,,,,,,,,,,,,,,,,,,,,,,,,,,,,,,,,,,,,,,,,,,,,,,,,,,,,,,,,,,,,,,,,,,,,,,,,,,,,,,,,,,,,,,,,,,,,,,,,,,,,,,,,,,,,,,,,,,,,,,,,,,,,,,,,,,,,,,,,,,,,,,,,,,,,,,
0,47,47,5,1,,61688c1020949a931ca5f0ca,62bbfb1b6205431a697012b7,2022-06-29_09h15.13.110,Colour_Asymmetry_Pilot,2022.1.3,Win32,60.0528465,62bbe60bf3d75ef465d3e404,,,,,,,,,,,,,,,,,,,,,,,,,,,,,,,,,,,,,,,,,,,,,,,,,,,,,,,,,,,,,,,,,,,,,,,,,,,,,,,,,,,,,,,,,,,,,,,,,,,,,,,,,,,,,,,,,,,,,,,,,,,,,,,,,,,,,,,,,,,,,,,,,,,,,,,,,,,,,,
0,48,48,57,1,,61688c1020949a931ca5f0ca,62bbfb1b6205431a697012b7,2022-06-29_09h15.13.110,Colour_Asymmetry_Pilot,2022.1.3,Win32,60.0528465,62bbe60bf3d75ef465d3e404,,,,,,,,,,,,,,,,,,,,,,,,,,,,,,,,,,,,,,,,,,,,,,,,,,,,,,,,,,,,,,,,,,,,,,,,,,,,,,,,,,,,,,,,,,,,,,,,,,,,,,,,,,,,,,,,,,,,,,,,,,,,,,,,,,,,,,,,,,,,,,,,,,,,,,,,,,,,,,
0,49,49,26,1,,61688c1020949a931ca5f0ca,62bbfb1b6205431a697012b7,2022-06-29_09h15.13.110,Colour_Asymmetry_Pilot,2022.1.3,Win32,60.0528465,62bbe60bf3d75ef465d3e404,,,,,,,,,,,,,,,,,,,,,,,,,,,,,,,,,,,,,,,,,,,,,,,,,,,,,,,,,,,,,,,,,,,,,,,,,,,,,,,,,,,,,,,,,,,,,,,,,,,,,,,,,,,,,,,,,,,,,,,,,,,,,,,,,,,,,,,,,,,,,,,,,,,,,,,,,,,,,,
0,50,50,82,1,,61688c1020949a931ca5f0ca,62bbfb1b6205431a697012b7,2022-06-29_09h15.13.110,Colour_Asymmetry_Pilot,2022.1.3,Win32,60.0528465,62bbe60bf3d75ef465d3e404,,,,,,,,,,,,,,,,,,,,,,,,,,,,,,,,,,,,,,,,,,,,,,,,,,,,,,,,,,,,,,,,,,,,,,,,,,,,,,,,,,,,,,,,,,,,,,,,,,,,,,,,,,,,,,,,,,,,,,,,,,,,,,,,,,,,,,,,,,,,,,,,,,,,,,,,,,,,,,
0,51,51,17,1,,61688c1020949a931ca5f0ca,62bbfb1b6205431a697012b7,2022-06-29_09h15.13.110,Colour_Asymmetry_Pilot,2022.1.3,Win32,60.0528465,62bbe60bf3d75ef465d3e404,,,,,,,,,,,,,,,,,,,,,,,,,,,,,,,,,,,,,,,,,,,,,,,,,,,,,,,,,,,,,,,,,,,,,,,,,,,,,,,,,,,,,,,,,,,,,,,,,,,,,,,,,,,,,,,,,,,,,,,,,,,,,,,,,,,,,,,,,,,,,,,,,,,,,,,,,,,,,,
0,52,52,32,1,,61688c1020949a931ca5f0ca,62bbfb1b6205431a697012b7,2022-06-29_09h15.13.110,Colour_Asymmetry_Pilot,2022.1.3,Win32,60.0528465,62bbe60bf3d75ef465d3e404,,,,,,,,,,,,,,,,,,,,,,,,,,,,,,,,,,,,,,,,,,,,,,,,,,,,,,,,,,,,,,,,,,,,,,,,,,,,,,,,,,,,,,,,,,,,,,,,,,,,,,,,,,,,,,,,,,,,,,,,,,,,,,,,,,,,,,,,,,,,,,,,,,,,,,,,,,,,,,
0,53,53,21,1,,61688c1020949a931ca5f0ca,62bbfb1b6205431a697012b7,2022-06-29_09h15.13.110,Colour_Asymmetry_Pilot,2022.1.3,Win32,60.0528465,62bbe60bf3d75ef465d3e404,,,,,,,,,,,,,,,,,,,,,,,,,,,,,,,,,,,,,,,,,,,,,,,,,,,,,,,,,,,,,,,,,,,,,,,,,,,,,,,,,,,,,,,,,,,,,,,,,,,,,,,,,,,,,,,,,,,,,,,,,,,,,,,,,,,,,,,,,,,,,,,,,,,,,,,,,,,,,,
0,54,54,79,1,,61688c1020949a931ca5f0ca,62bbfb1b6205431a697012b7,2022-06-29_09h15.13.110,Colour_Asymmetry_Pilot,2022.1.3,Win32,60.0528465,62bbe60bf3d75ef465d3e404,,,,,,,,,,,,,,,,,,,,,,,,,,,,,,,,,,,,,,,,,,,,,,,,,,,,,,,,,,,,,,,,,,,,,,,,,,,,,,,,,,,,,,,,,,,,,,,,,,,,,,,,,,,,,,,,,,,,,,,,,,,,,,,,,,,,,,,,,,,,,,,,,,,,,,,,,,,,,,
0,55,55,50,1,,61688c1020949a931ca5f0ca,62bbfb1b6205431a697012b7,2022-06-29_09h15.13.110,Colour_Asymmetry_Pilot,2022.1.3,Win32,60.0528465,62bbe60bf3d75ef465d3e404,,,,,,,,,,,,,,,,,,,,,,,,,,,,,,,,,,,,,,,,,,,,,,,,,,,,,,,,,,,,,,,,,,,,,,,,,,,,,,,,,,,,,,,,,,,,,,,,,,,,,,,,,,,,,,,,,,,,,,,,,,,,,,,,,,,,,,,,,,,,,,,,,,,,,,,,,,,,,,
0,56,56,72,1,,61688c1020949a931ca5f0ca,62bbfb1b6205431a697012b7,2022-06-29_09h15.13.110,Colour_Asymmetry_Pilot,2022.1.3,Win32,60.0528465,62bbe60bf3d75ef465d3e404,,,,,,,,,,,,,,,,,,,,,,,,,,,,,,,,,,,,,,,,,,,,,,,,,,,,,,,,,,,,,,,,,,,,,,,,,,,,,,,,,,,,,,,,,,,,,,,,,,,,,,,,,,,,,,,,,,,,,,,,,,,,,,,,,,,,,,,,,,,,,,,,,,,,,,,,,,,,,,
0,57,57,30,1,,61688c1020949a931ca5f0ca,62bbfb1b6205431a697012b7,2022-06-29_09h15.13.110,Colour_Asymmetry_Pilot,2022.1.3,Win32,60.0528465,62bbe60bf3d75ef465d3e404,,,,,,,,,,,,,,,,,,,,,,,,,,,,,,,,,,,,,,,,,,,,,,,,,,,,,,,,,,,,,,,,,,,,,,,,,,,,,,,,,,,,,,,,,,,,,,,,,,,,,,,,,,,,,,,,,,,,,,,,,,,,,,,,,,,,,,,,,,,,,,,,,,,,,,,,,,,,,,
0,58,58,48,1,,61688c1020949a931ca5f0ca,62bbfb1b6205431a697012b7,2022-06-29_09h15.13.110,Colour_Asymmetry_Pilot,2022.1.3,Win32,60.0528465,62bbe60bf3d75ef465d3e404,,,,,,,,,,,,,,,,,,,,,,,,,,,,,,,,,,,,,,,,,,,,,,,,,,,,,,,,,,,,,,,,,,,,,,,,,,,,,,,,,,,,,,,,,,,,,,,,,,,,,,,,,,,,,,,,,,,,,,,,,,,,,,,,,,,,,,,,,,,,,,,,,,,,,,,,,,,,,,
0,59,59,43,1,,61688c1020949a931ca5f0ca,62bbfb1b6205431a697012b7,2022-06-29_09h15.13.110,Colour_Asymmetry_Pilot,2022.1.3,Win32,60.0528465,62bbe60bf3d75ef465d3e404,,,,,,,,,,,,,,,,,,,,,,,,,,,,,,,,,,,,,,,,,,,,,,,,,,,,,,,,,,,,,,,,,,,,,,,,,,,,,,,,,,,,,,,,,,,,,,,,,,,,,,,,,,,,,,,,,,,,,,,,,,,,,,,,,,,,,,,,,,,,,,,,,,,,,,,,,,,,,,
0,60,60,59,1,,61688c1020949a931ca5f0ca,62bbfb1b6205431a697012b7,2022-06-29_09h15.13.110,Colour_Asymmetry_Pilot,2022.1.3,Win32,60.0528465,62bbe60bf3d75ef465d3e404,,,,,,,,,,,,,,,,,,,,,,,,,,,,,,,,,,,,,,,,,,,,,,,,,,,,,,,,,,,,,,,,,,,,,,,,,,,,,,,,,,,,,,,,,,,,,,,,,,,,,,,,,,,,,,,,,,,,,,,,,,,,,,,,,,,,,,,,,,,,,,,,,,,,,,,,,,,,,,
0,61,61,71,1,,61688c1020949a931ca5f0ca,62bbfb1b6205431a697012b7,2022-06-29_09h15.13.110,Colour_Asymmetry_Pilot,2022.1.3,Win32,60.0528465,62bbe60bf3d75ef465d3e404,,,,,,,,,,,,,,,,,,,,,,,,,,,,,,,,,,,,,,,,,,,,,,,,,,,,,,,,,,,,,,,,,,,,,,,,,,,,,,,,,,,,,,,,,,,,,,,,,,,,,,,,,,,,,,,,,,,,,,,,,,,,,,,,,,,,,,,,,,,,,,,,,,,,,,,,,,,,,,
0,62,62,3,1,,61688c1020949a931ca5f0ca,62bbfb1b6205431a697012b7,2022-06-29_09h15.13.110,Colour_Asymmetry_Pilot,2022.1.3,Win32,60.0528465,62bbe60bf3d75ef465d3e404,,,,,,,,,,,,,,,,,,,,,,,,,,,,,,,,,,,,,,,,,,,,,,,,,,,,,,,,,,,,,,,,,,,,,,,,,,,,,,,,,,,,,,,,,,,,,,,,,,,,,,,,,,,,,,,,,,,,,,,,,,,,,,,,,,,,,,,,,,,,,,,,,,,,,,,,,,,,,,
0,63,63,75,1,,61688c1020949a931ca5f0ca,62bbfb1b6205431a697012b7,2022-06-29_09h15.13.110,Colour_Asymmetry_Pilot,2022.1.3,Win32,60.0528465,62bbe60bf3d75ef465d3e404,,,,,,,,,,,,,,,,,,,,,,,,,,,,,,,,,,,,,,,,,,,,,,,,,,,,,,,,,,,,,,,,,,,,,,,,,,,,,,,,,,,,,,,,,,,,,,,,,,,,,,,,,,,,,,,,,,,,,,,,,,,,,,,,,,,,,,,,,,,,,,,,,,,,,,,,,,,,,,
0,64,64,18,1,,61688c1020949a931ca5f0ca,62bbfb1b6205431a697012b7,2022-06-29_09h15.13.110,Colour_Asymmetry_Pilot,2022.1.3,Win32,60.0528465,62bbe60bf3d75ef465d3e404,,,,,,,,,,,,,,,,,,,,,,,,,,,,,,,,,,,,,,,,,,,,,,,,,,,,,,,,,,,,,,,,,,,,,,,,,,,,,,,,,,,,,,,,,,,,,,,,,,,,,,,,,,,,,,,,,,,,,,,,,,,,,,,,,,,,,,,,,,,,,,,,,,,,,,,,,,,,,,
0,65,65,10,1,,61688c1020949a931ca5f0ca,62bbfb1b6205431a697012b7,2022-06-29_09h15.13.110,Colour_Asymmetry_Pilot,2022.1.3,Win32,60.0528465,62bbe60bf3d75ef465d3e404,,,,,,,,,,,,,,,,,,,,,,,,,,,,,,,,,,,,,,,,,,,,,,,,,,,,,,,,,,,,,,,,,,,,,,,,,,,,,,,,,,,,,,,,,,,,,,,,,,,,,,,,,,,,,,,,,,,,,,,,,,,,,,,,,,,,,,,,,,,,,,,,,,,,,,,,,,,,,,
0,66,66,45,1,,61688c1020949a931ca5f0ca,62bbfb1b6205431a697012b7,2022-06-29_09h15.13.110,Colour_Asymmetry_Pilot,2022.1.3,Win32,60.0528465,62bbe60bf3d75ef465d3e404,,,,,,,,,,,,,,,,,,,,,,,,,,,,,,,,,,,,,,,,,,,,,,,,,,,,,,,,,,,,,,,,,,,,,,,,,,,,,,,,,,,,,,,,,,,,,,,,,,,,,,,,,,,,,,,,,,,,,,,,,,,,,,,,,,,,,,,,,,,,,,,,,,,,,,,,,,,,,,
0,67,67,78,1,,61688c1020949a931ca5f0ca,62bbfb1b6205431a697012b7,2022-06-29_09h15.13.110,Colour_Asymmetry_Pilot,2022.1.3,Win32,60.0528465,62bbe60bf3d75ef465d3e404,,,,,,,,,,,,,,,,,,,,,,,,,,,,,,,,,,,,,,,,,,,,,,,,,,,,,,,,,,,,,,,,,,,,,,,,,,,,,,,,,,,,,,,,,,,,,,,,,,,,,,,,,,,,,,,,,,,,,,,,,,,,,,,,,,,,,,,,,,,,,,,,,,,,,,,,,,,,,,
0,68,68,81,1,,61688c1020949a931ca5f0ca,62bbfb1b6205431a697012b7,2022-06-29_09h15.13.110,Colour_Asymmetry_Pilot,2022.1.3,Win32,60.0528465,62bbe60bf3d75ef465d3e404,,,,,,,,,,,,,,,,,,,,,,,,,,,,,,,,,,,,,,,,,,,,,,,,,,,,,,,,,,,,,,,,,,,,,,,,,,,,,,,,,,,,,,,,,,,,,,,,,,,,,,,,,,,,,,,,,,,,,,,,,,,,,,,,,,,,,,,,,,,,,,,,,,,,,,,,,,,,,,
0,69,69,62,1,,61688c1020949a931ca5f0ca,62bbfb1b6205431a697012b7,2022-06-29_09h15.13.110,Colour_Asymmetry_Pilot,2022.1.3,Win32,60.0528465,62bbe60bf3d75ef465d3e404,,,,,,,,,,,,,,,,,,,,,,,,,,,,,,,,,,,,,,,,,,,,,,,,,,,,,,,,,,,,,,,,,,,,,,,,,,,,,,,,,,,,,,,,,,,,,,,,,,,,,,,,,,,,,,,,,,,,,,,,,,,,,,,,,,,,,,,,,,,,,,,,,,,,,,,,,,,,,,
0,70,70,68,1,,61688c1020949a931ca5f0ca,62bbfb1b6205431a697012b7,2022-06-29_09h15.13.110,Colour_Asymmetry_Pilot,2022.1.3,Win32,60.0528465,62bbe60bf3d75ef465d3e404,,,,,,,,,,,,,,,,,,,,,,,,,,,,,,,,,,,,,,,,,,,,,,,,,,,,,,,,,,,,,,,,,,,,,,,,,,,,,,,,,,,,,,,,,,,,,,,,,,,,,,,,,,,,,,,,,,,,,,,,,,,,,,,,,,,,,,,,,,,,,,,,,,,,,,,,,,,,,,
0,71,71,23,1,,61688c1020949a931ca5f0ca,62bbfb1b6205431a697012b7,2022-06-29_09h15.13.110,Colour_Asymmetry_Pilot,2022.1.3,Win32,60.0528465,62bbe60bf3d75ef465d3e404,,,,,,,,,,,,,,,,,,,,,,,,,,,,,,,,,,,,,,,,,,,,,,,,,,,,,,,,,,,,,,,,,,,,,,,,,,,,,,,,,,,,,,,,,,,,,,,,,,,,,,,,,,,,,,,,,,,,,,,,,,,,,,,,,,,,,,,,,,,,,,,,,,,,,,,,,,,,,,
0,72,72,0,1,,61688c1020949a931ca5f0ca,62bbfb1b6205431a697012b7,2022-06-29_09h15.13.110,Colour_Asymmetry_Pilot,2022.1.3,Win32,60.0528465,62bbe60bf3d75ef465d3e404,,,,,,,,,,,,,,,,,,,,,,,,,,,,,,,,,,,,,,,,,,,,,,,,,,,,,,,,,,,,,,,,,,,,,,,,,,,,,,,,,,,,,,,,,,,,,,,,,,,,,,,,,,,,,,,,,,,,,,,,,,,,,,,,,,,,,,,,,,,,,,,,,,,,,,,,,,,,,,
0,73,73,33,1,,61688c1020949a931ca5f0ca,62bbfb1b6205431a697012b7,2022-06-29_09h15.13.110,Colour_Asymmetry_Pilot,2022.1.3,Win32,60.0528465,62bbe60bf3d75ef465d3e404,,,,,,,,,,,,,,,,,,,,,,,,,,,,,,,,,,,,,,,,,,,,,,,,,,,,,,,,,,,,,,,,,,,,,,,,,,,,,,,,,,,,,,,,,,,,,,,,,,,,,,,,,,,,,,,,,,,,,,,,,,,,,,,,,,,,,,,,,,,,,,,,,,,,,,,,,,,,,,
0,74,74,40,1,,61688c1020949a931ca5f0ca,62bbfb1b6205431a697012b7,2022-06-29_09h15.13.110,Colour_Asymmetry_Pilot,2022.1.3,Win32,60.0528465,62bbe60bf3d75ef465d3e404,,,,,,,,,,,,,,,,,,,,,,,,,,,,,,,,,,,,,,,,,,,,,,,,,,,,,,,,,,,,,,,,,,,,,,,,,,,,,,,,,,,,,,,,,,,,,,,,,,,,,,,,,,,,,,,,,,,,,,,,,,,,,,,,,,,,,,,,,,,,,,,,,,,,,,,,,,,,,,
0,75,75,39,1,,61688c1020949a931ca5f0ca,62bbfb1b6205431a697012b7,2022-06-29_09h15.13.110,Colour_Asymmetry_Pilot,2022.1.3,Win32,60.0528465,62bbe60bf3d75ef465d3e404,,,,,,,,,,,,,,,,,,,,,,,,,,,,,,,,,,,,,,,,,,,,,,,,,,,,,,,,,,,,,,,,,,,,,,,,,,,,,,,,,,,,,,,,,,,,,,,,,,,,,,,,,,,,,,,,,,,,,,,,,,,,,,,,,,,,,,,,,,,,,,,,,,,,,,,,,,,,,,
0,76,76,19,1,,61688c1020949a931ca5f0ca,62bbfb1b6205431a697012b7,2022-06-29_09h15.13.110,Colour_Asymmetry_Pilot,2022.1.3,Win32,60.0528465,62bbe60bf3d75ef465d3e404,,,,,,,,,,,,,,,,,,,,,,,,,,,,,,,,,,,,,,,,,,,,,,,,,,,,,,,,,,,,,,,,,,,,,,,,,,,,,,,,,,,,,,,,,,,,,,,,,,,,,,,,,,,,,,,,,,,,,,,,,,,,,,,,,,,,,,,,,,,,,,,,,,,,,,,,,,,,,,
0,77,77,11,1,,61688c1020949a931ca5f0ca,62bbfb1b6205431a697012b7,2022-06-29_09h15.13.110,Colour_Asymmetry_Pilot,2022.1.3,Win32,60.0528465,62bbe60bf3d75ef465d3e404,,,,,,,,,,,,,,,,,,,,,,,,,,,,,,,,,,,,,,,,,,,,,,,,,,,,,,,,,,,,,,,,,,,,,,,,,,,,,,,,,,,,,,,,,,,,,,,,,,,,,,,,,,,,,,,,,,,,,,,,,,,,,,,,,,,,,,,,,,,,,,,,,,,,,,,,,,,,,,
0,78,78,44,1,,61688c1020949a931ca5f0ca,62bbfb1b6205431a697012b7,2022-06-29_09h15.13.110,Colour_Asymmetry_Pilot,2022.1.3,Win32,60.0528465,62bbe60bf3d75ef465d3e404,,,,,,,,,,,,,,,,,,,,,,,,,,,,,,,,,,,,,,,,,,,,,,,,,,,,,,,,,,,,,,,,,,,,,,,,,,,,,,,,,,,,,,,,,,,,,,,,,,,,,,,,,,,,,,,,,,,,,,,,,,,,,,,,,,,,,,,,,,,,,,,,,,,,,,,,,,,,,,
0,79,79,86,1,,61688c1020949a931ca5f0ca,62bbfb1b6205431a697012b7,2022-06-29_09h15.13.110,Colour_Asymmetry_Pilot,2022.1.3,Win32,60.0528465,62bbe60bf3d75ef465d3e404,,,,,,,,,,,,,,,,,,,,,,,,,,,,,,,,,,,,,,,,,,,,,,,,,,,,,,,,,,,,,,,,,,,,,,,,,,,,,,,,,,,,,,,,,,,,,,,,,,,,,,,,,,,,,,,,,,,,,,,,,,,,,,,,,,,,,,,,,,,,,,,,,,,,,,,,,,,,,,
0,80,80,54,1,,61688c1020949a931ca5f0ca,62bbfb1b6205431a697012b7,2022-06-29_09h15.13.110,Colour_Asymmetry_Pilot,2022.1.3,Win32,60.0528465,62bbe60bf3d75ef465d3e404,,,,,,,,,,,,,,,,,,,,,,,,,,,,,,,,,,,,,,,,,,,,,,,,,,,,,,,,,,,,,,,,,,,,,,,,,,,,,,,,,,,,,,,,,,,,,,,,,,,,,,,,,,,,,,,,,,,,,,,,,,,,,,,,,,,,,,,,,,,,,,,,,,,,,,,,,,,,,,
0,81,81,64,1,,61688c1020949a931ca5f0ca,62bbfb1b6205431a697012b7,2022-06-29_09h15.13.110,Colour_Asymmetry_Pilot,2022.1.3,Win32,60.0528465,62bbe60bf3d75ef465d3e404,,,,,,,,,,,,,,,,,,,,,,,,,,,,,,,,,,,,,,,,,,,,,,,,,,,,,,,,,,,,,,,,,,,,,,,,,,,,,,,,,,,,,,,,,,,,,,,,,,,,,,,,,,,,,,,,,,,,,,,,,,,,,,,,,,,,,,,,,,,,,,,,,,,,,,,,,,,,,,
0,82,82,53,1,,61688c1020949a931ca5f0ca,62bbfb1b6205431a697012b7,2022-06-29_09h15.13.110,Colour_Asymmetry_Pilot,2022.1.3,Win32,60.0528465,62bbe60bf3d75ef465d3e404,,,,,,,,,,,,,,,,,,,,,,,,,,,,,,,,,,,,,,,,,,,,,,,,,,,,,,,,,,,,,,,,,,,,,,,,,,,,,,,,,,,,,,,,,,,,,,,,,,,,,,,,,,,,,,,,,,,,,,,,,,,,,,,,,,,,,,,,,,,,,,,,,,,,,,,,,,,,,,
0,83,83,85,1,,61688c1020949a931ca5f0ca,62bbfb1b6205431a697012b7,2022-06-29_09h15.13.110,Colour_Asymmetry_Pilot,2022.1.3,Win32,60.0528465,62bbe60bf3d75ef465d3e404,,,,,,,,,,,,,,,,,,,,,,,,,,,,,,,,,,,,,,,,,,,,,,,,,,,,,,,,,,,,,,,,,,,,,,,,,,,,,,,,,,,,,,,,,,,,,,,,,,,,,,,,,,,,,,,,,,,,,,,,,,,,,,,,,,,,,,,,,,,,,,,,,,,,,,,,,,,,,,
0,84,84,36,1,,61688c1020949a931ca5f0ca,62bbfb1b6205431a697012b7,2022-06-29_09h15.13.110,Colour_Asymmetry_Pilot,2022.1.3,Win32,60.0528465,62bbe60bf3d75ef465d3e404,,,,,,,,,,,,,,,,,,,,,,,,,,,,,,,,,,,,,,,,,,,,,,,,,,,,,,,,,,,,,,,,,,,,,,,,,,,,,,,,,,,,,,,,,,,,,,,,,,,,,,,,,,,,,,,,,,,,,,,,,,,,,,,,,,,,,,,,,,,,,,,,,,,,,,,,,,,,,,
0,85,85,24,1,,61688c1020949a931ca5f0ca,62bbfb1b6205431a697012b7,2022-06-29_09h15.13.110,Colour_Asymmetry_Pilot,2022.1.3,Win32,60.0528465,62bbe60bf3d75ef465d3e404,,,,,,,,,,,,,,,,,,,,,,,,,,,,,,,,,,,,,,,,,,,,,,,,,,,,,,,,,,,,,,,,,,,,,,,,,,,,,,,,,,,,,,,,,,,,,,,,,,,,,,,,,,,,,,,,,,,,,,,,,,,,,,,,,,,,,,,,,,,,,,,,,,,,,,,,,,,,,,
0,86,86,83,1,,61688c1020949a931ca5f0ca,62bbfb1b6205431a697012b7,2022-06-29_09h15.13.110,Colour_Asymmetry_Pilot,2022.1.3,Win32,60.0528465,62bbe60bf3d75ef465d3e404,,,,,,,,,,,,,,,,,,,,,,,,,,,,,,,,,,,,,,,,,,,,,,,,,,,,,,,,,,,,,,,,,,,,,,,,,,,,,,,,,,,,,,,,,,,,,,,,,,,,,,,,,,,,,,,,,,,,,,,,,,,,,,,,,,,,,,,,,,,,,,,,,,,,,,,,,,,,,,
0,87,87,63,1,,61688c1020949a931ca5f0ca,62bbfb1b6205431a697012b7,2022-06-29_09h15.13.110,Colour_Asymmetry_Pilot,2022.1.3,Win32,60.0528465,62bbe60bf3d75ef465d3e404,,,,,,,,,,,,,,,,,,,,,,,,,,,,,,,,,,,,,,,,,,,,,,,,,,,,,,,,,,,,,,,,,,,,,,,,,,,,,,,,,,,,,,,,,,,,,,,,,,,,,,,,,,,,,,,,,,,,,,,,,,,,,,,,,,,,,,,,,,,,,,,,,,,,,,,,,,,,,,
0,88,88,28,1,,61688c1020949a931ca5f0ca,62bbfb1b6205431a697012b7,2022-06-29_09h15.13.110,Colour_Asymmetry_Pilot,2022.1.3,Win32,60.0528465,62bbe60bf3d75ef465d3e404,,,,,,,,,,,,,,,,,,,,,,,,,,,,,,,,,,,,,,,,,,,,,,,,,,,,,,,,,,,,,,,,,,,,,,,,,,,,,,,,,,,,,,,,,,,,,,,,,,,,,,,,,,,,,,,,,,,,,,,,,,,,,,,,,,,,,,,,,,,,,,,,,,,,,,,,,,,,,,
0,89,89,13,1,,61688c1020949a931ca5f0ca,62bbfb1b6205431a697012b7,2022-06-29_09h15.13.110,Colour_Asymmetry_Pilot,2022.1.3,Win32,60.0528465,62bbe60bf3d75ef465d3e404,,,,,,,,,,,,,,,,,,,,,,,,,,,,,,,,,,,,,,,,,,,,,,,,,,,,,,,,,,,,,,,,,,,,,,,,,,,,,,,,,,,,,,,,,,,,,,,,,,,,,,,,,,,,,,,,,,,,,,,,,,,,,,,,,,,,,,,,,,,,,,,,,,,,,,,,,,,,,,
0,90,90,42,1,,61688c1020949a931ca5f0ca,62bbfb1b6205431a697012b7,2022-06-29_09h15.13.110,Colour_Asymmetry_Pilot,2022.1.3,Win32,60.0528465,62bbe60bf3d75ef465d3e404,,,,,,,,,,,,,,,,,,,,,,,,,,,,,,,,,,,,,,,,,,,,,,,,,,,,,,,,,,,,,,,,,,,,,,,,,,,,,,,,,,,,,,,,,,,,,,,,,,,,,,,,,,,,,,,,,,,,,,,,,,,,,,,,,,,,,,,,,,,,,,,,,,,,,,,,,,,,,,
0,91,91,1,1,,61688c1020949a931ca5f0ca,62bbfb1b6205431a697012b7,2022-06-29_09h15.13.110,Colour_Asymmetry_Pilot,2022.1.3,Win32,60.0528465,62bbe60bf3d75ef465d3e404,,,,,,,,,,,,,,,,,,,,,,,,,,,,,,,,,,,,,,,,,,,,,,,,,,,,,,,,,,,,,,,,,,,,,,,,,,,,,,,,,,,,,,,,,,,,,,,,,,,,,,,,,,,,,,,,,,,,,,,,,,,,,,,,,,,,,,,,,,,,,,,,,,,,,,,,,,,,,,
0,92,92,4,1,,61688c1020949a931ca5f0ca,62bbfb1b6205431a697012b7,2022-06-29_09h15.13.110,Colour_Asymmetry_Pilot,2022.1.3,Win32,60.0528465,62bbe60bf3d75ef465d3e404,,,,,,,,,,,,,,,,,,,,,,,,,,,,,,,,,,,,,,,,,,,,,,,,,,,,,,,,,,,,,,,,,,,,,,,,,,,,,,,,,,,,,,,,,,,,,,,,,,,,,,,,,,,,,,,,,,,,,,,,,,,,,,,,,,,,,,,,,,,,,,,,,,,,,,,,,,,,,,
,,,,,,61688c1020949a931ca5f0ca,62bbfb1b6205431a697012b7,2022-06-29_09h15.13.110,Colour_Asymmetry_Pilot,2022.1.3,Win32,60.0528465,62bbe60bf3d75ef465d3e404,0,0,0,23,1,fourthree,,,,,,,,,,,,,,,,,,,,,,,,,,,,,,,,,,,,,,,,,,,,,,,,,,,,,,,,,,,,,,,,,,,,,,,,,,,,,,,,,,,,,,,,,,,,,,,,,,,,,,,,,,,,,,,,,,,,,,,,,,,,,,,,,,,,,,,,,,,,,,,,,,,,,,,,
,,,,,,61688c1020949a931ca5f0ca,62bbfb1b6205431a697012b7,2022-06-29_09h15.13.110,Colour_Asymmetry_Pilot,2022.1.3,Win32,60.0528465,62bbe60bf3d75ef465d3e404,0,1,1,126,1,fourtwo,,,,,,,,,,,,,,,,,,,,,,,,,,,,,,,,,,,,,,,,,,,,,,,,,,,,,,,,,,,,,,,,,,,,,,,,,,,,,,,,,,,,,,,,,,,,,,,,,,,,,,,,,,,,,,,,,,,,,,,,,,,,,,,,,,,,,,,,,,,,,,,,,,,,,,,,
,,,,,,61688c1020949a931ca5f0ca,62bbfb1b6205431a697012b7,2022-06-29_09h15.13.110,Colour_Asymmetry_Pilot,2022.1.3,Win32,60.0528465,62bbe60bf3d75ef465d3e404,0,2,2,20,1,threeone,,,,,,,,,,,,,,,,,,,,,,,,,,,,,,,,,,,,,,,,,,,,,,,,,,,,,,,,,,,,,,,,,,,,,,,,,,,,,,,,,,,,,,,,,,,,,,,,,,,,,,,,,,,,,,,,,,,,,,,,,,,,,,,,,,,,,,,,,,,,,,,,,,,,,,,,
,,,,,,61688c1020949a931ca5f0ca,62bbfb1b6205431a697012b7,2022-06-29_09h15.13.110,Colour_Asymmetry_Pilot,2022.1.3,Win32,60.0528465,62bbe60bf3d75ef465d3e404,0,3,3,139,1,twofour,,,,,,,,,,,,,,,,,,,,,,,,,,,,,,,,,,,,,,,,,,,,,,,,,,,,,,,,,,,,,,,,,,,,,,,,,,,,,,,,,,,,,,,,,,,,,,,,,,,,,,,,,,,,,,,,,,,,,,,,,,,,,,,,,,,,,,,,,,,,,,,,,,,,,,,,
,,,,,,61688c1020949a931ca5f0ca,62bbfb1b6205431a697012b7,2022-06-29_09h15.13.110,Colour_Asymmetry_Pilot,2022.1.3,Win32,60.0528465,62bbe60bf3d75ef465d3e404,0,4,4,100,1,threeone,,,,,,,,,,,,,,,,,,,,,,,,,,,,,,,,,,,,,,,,,,,,,,,,,,,,,,,,,,,,,,,,,,,,,,,,,,,,,,,,,,,,,,,,,,,,,,,,,,,,,,,,,,,,,,,,,,,,,,,,,,,,,,,,,,,,,,,,,,,,,,,,,,,,,,,,
,,,,,,61688c1020949a931ca5f0ca,62bbfb1b6205431a697012b7,2022-06-29_09h15.13.110,Colour_Asymmetry_Pilot,2022.1.3,Win32,60.0528465,62bbe60bf3d75ef465d3e404,0,5,5,149,1,threefour,,,,,,,,,,,,,,,,,,,,,,,,,,,,,,,,,,,,,,,,,,,,,,,,,,,,,,,,,,,,,,,,,,,,,,,,,,,,,,,,,,,,,,,,,,,,,,,,,,,,,,,,,,,,,,,,,,,,,,,,,,,,,,,,,,,,,,,,,,,,,,,,,,,,,,,,
,,,,,,61688c1020949a931ca5f0ca,62bbfb1b6205431a697012b7,2022-06-29_09h15.13.110,Colour_Asymmetry_Pilot,2022.1.3,Win32,60.0528465,62bbe60bf3d75ef465d3e404,0,6,6,108,1,threeone,,,,,,,,,,,,,,,,,,,,,,,,,,,,,,,,,,,,,,,,,,,,,,,,,,,,,,,,,,,,,,,,,,,,,,,,,,,,,,,,,,,,,,,,,,,,,,,,,,,,,,,,,,,,,,,,,,,,,,,,,,,,,,,,,,,,,,,,,,,,,,,,,,,,,,,,
,,,,,,61688c1020949a931ca5f0ca,62bbfb1b6205431a697012b7,2022-06-29_09h15.13.110,Colour_Asymmetry_Pilot,2022.1.3,Win32,60.0528465,62bbe60bf3d75ef465d3e404,0,7,7,135,1,fourthree,,,,,,,,,,,,,,,,,,,,,,,,,,,,,,,,,,,,,,,,,,,,,,,,,,,,,,,,,,,,,,,,,,,,,,,,,,,,,,,,,,,,,,,,,,,,,,,,,,,,,,,,,,,,,,,,,,,,,,,,,,,,,,,,,,,,,,,,,,,,,,,,,,,,,,,,
,,,,,,61688c1020949a931ca5f0ca,62bbfb1b6205431a697012b7,2022-06-29_09h15.13.110,Colour_Asymmetry_Pilot,2022.1.3,Win32,60.0528465,62bbe60bf3d75ef465d3e404,0,8,8,158,1,fourtwo,,,,,,,,,,,,,,,,,,,,,,,,,,,,,,,,,,,,,,,,,,,,,,,,,,,,,,,,,,,,,,,,,,,,,,,,,,,,,,,,,,,,,,,,,,,,,,,,,,,,,,,,,,,,,,,,,,,,,,,,,,,,,,,,,,,,,,,,,,,,,,,,,,,,,,,,
,,,,,,61688c1020949a931ca5f0ca,62bbfb1b6205431a697012b7,2022-06-29_09h15.13.110,Colour_Asymmetry_Pilot,2022.1.3,Win32,60.0528465,62bbe60bf3d75ef465d3e404,0,9,9,122,1,twoone,,,,,,,,,,,,,,,,,,,,,,,,,,,,,,,,,,,,,,,,,,,,,,,,,,,,,,,,,,,,,,,,,,,,,,,,,,,,,,,,,,,,,,,,,,,,,,,,,,,,,,,,,,,,,,,,,,,,,,,,,,,,,,,,,,,,,,,,,,,,,,,,,,,,,,,,
,,,,,,61688c1020949a931ca5f0ca,62bbfb1b6205431a697012b7,2022-06-29_09h15.13.110,Colour_Asymmetry_Pilot,2022.1.3,Win32,60.0528465,62bbe60bf3d75ef465d3e404,0,10,10,36,1,threeone,,,,,,,,,,,,,,,,,,,,,,,,,,,,,,,,,,,,,,,,,,,,,,,,,,,,,,,,,,,,,,,,,,,,,,,,,,,,,,,,,,,,,,,,,,,,,,,,,,,,,,,,,,,,,,,,,,,,,,,,,,,,,,,,,,,,,,,,,,,,,,,,,,,,,,,,
,,,,,,61688c1020949a931ca5f0ca,62bbfb1b6205431a697012b7,2022-06-29_09h15.13.110,Colour_Asymmetry_Pilot,2022.1.3,Win32,60.0528465,62bbe60bf3d75ef465d3e404,0,11,11,38,1,fourtwo,,,,,,,,,,,,,,,,,,,,,,,,,,,,,,,,,,,,,,,,,,,,,,,,,,,,,,,,,,,,,,,,,,,,,,,,,,,,,,,,,,,,,,,,,,,,,,,,,,,,,,,,,,,,,,,,,,,,,,,,,,,,,,,,,,,,,,,,,,,,,,,,,,,,,,,,
,,,,,,61688c1020949a931ca5f0ca,62bbfb1b6205431a697012b7,2022-06-29_09h15.13.110,Colour_Asymmetry_Pilot,2022.1.3,Win32,60.0528465,62bbe60bf3d75ef465d3e404,0,12,12,161,1,onethree,,,,,,,,,,,,,,,,,,,,,,,,,,,,,,,,,,,,,,,,,,,,,,,,,,,,,,,,,,,,,,,,,,,,,,,,,,,,,,,,,,,,,,,,,,,,,,,,,,,,,,,,,,,,,,,,,,,,,,,,,,,,,,,,,,,,,,,,,,,,,,,,,,,,,,,,
,,,,,,61688c1020949a931ca5f0ca,62bbfb1b6205431a697012b7,2022-06-29_09h15.13.110,Colour_Asymmetry_Pilot,2022.1.3,Win32,60.0528465,62bbe60bf3d75ef465d3e404,0,13,13,16,1,onetwo,,,,,,,,,,,,,,,,,,,,,,,,,,,,,,,,,,,,,,,,,,,,,,,,,,,,,,,,,,,,,,,,,,,,,,,,,,,,,,,,,,,,,,,,,,,,,,,,,,,,,,,,,,,,,,,,,,,,,,,,,,,,,,,,,,,,,,,,,,,,,,,,,,,,,,,,
,,,,,,61688c1020949a931ca5f0ca,62bbfb1b6205431a697012b7,2022-06-29_09h15.13.110,Colour_Asymmetry_Pilot,2022.1.3,Win32,60.0528465,62bbe60bf3d75ef465d3e404,0,14,14,47,1,fourthree,,,,,,,,,,,,,,,,,,,,,,,,,,,,,,,,,,,,,,,,,,,,,,,,,,,,,,,,,,,,,,,,,,,,,,,,,,,,,,,,,,,,,,,,,,,,,,,,,,,,,,,,,,,,,,,,,,,,,,,,,,,,,,,,,,,,,,,,,,,,,,,,,,,,,,,,
,,,,,,61688c1020949a931ca5f0ca,62bbfb1b6205431a697012b7,2022-06-29_09h15.13.110,Colour_Asymmetry_Pilot,2022.1.3,Win32,60.0528465,62bbe60bf3d75ef465d3e404,0,15,15,40,1,onetwo,,,,,,,,,,,,,,,,,,,,,,,,,,,,,,,,,,,,,,,,,,,,,,,,,,,,,,,,,,,,,,,,,,,,,,,,,,,,,,,,,,,,,,,,,,,,,,,,,,,,,,,,,,,,,,,,,,,,,,,,,,,,,,,,,,,,,,,,,,,,,,,,,,,,,,,,
,,,,,,61688c1020949a931ca5f0ca,62bbfb1b6205431a697012b7,2022-06-29_09h15.13.110,Colour_Asymmetry_Pilot,2022.1.3,Win32,60.0528465,62bbe60bf3d75ef465d3e404,0,16,16,78,1,fourtwo,,,,,,,,,,,,,,,,,,,,,,,,,,,,,,,,,,,,,,,,,,,,,,,,,,,,,,,,,,,,,,,,,,,,,,,,,,,,,,,,,,,,,,,,,,,,,,,,,,,,,,,,,,,,,,,,,,,,,,,,,,,,,,,,,,,,,,,,,,,,,,,,,,,,,,,,
,,,,,,61688c1020949a931ca5f0ca,62bbfb1b6205431a697012b7,2022-06-29_09h15.13.110,Colour_Asymmetry_Pilot,2022.1.3,Win32,60.0528465,62bbe60bf3d75ef465d3e404,0,17,17,57,1,onethree,,,,,,,,,,,,,,,,,,,,,,,,,,,,,,,,,,,,,,,,,,,,,,,,,,,,,,,,,,,,,,,,,,,,,,,,,,,,,,,,,,,,,,,,,,,,,,,,,,,,,,,,,,,,,,,,,,,,,,,,,,,,,,,,,,,,,,,,,,,,,,,,,,,,,,,,
,,,,,,61688c1020949a931ca5f0ca,62bbfb1b6205431a697012b7,2022-06-29_09h15.13.110,Colour_Asymmetry_Pilot,2022.1.3,Win32,60.0528465,62bbe60bf3d75ef465d3e404,0,18,18,49,1,onethree,,,,,,,,,,,,,,,,,,,,,,,,,,,,,,,,,,,,,,,,,,,,,,,,,,,,,,,,,,,,,,,,,,,,,,,,,,,,,,,,,,,,,,,,,,,,,,,,,,,,,,,,,,,,,,,,,,,,,,,,,,,,,,,,,,,,,,,,,,,,,,,,,,,,,,,,
,,,,,,61688c1020949a931ca5f0ca,62bbfb1b6205431a697012b7,2022-06-29_09h15.13.110,Colour_Asymmetry_Pilot,2022.1.3,Win32,60.0528465,62bbe60bf3d75ef465d3e404,0,19,19,52,1,threeone,,,,,,,,,,,,,,,,,,,,,,,,,,,,,,,,,,,,,,,,,,,,,,,,,,,,,,,,,,,,,,,,,,,,,,,,,,,,,,,,,,,,,,,,,,,,,,,,,,,,,,,,,,,,,,,,,,,,,,,,,,,,,,,,,,,,,,,,,,,,,,,,,,,,,,,,
,,,,,,61688c1020949a931ca5f0ca,62bbfb1b6205431a697012b7,2022-06-29_09h15.13.110,Colour_Asymmetry_Pilot,2022.1.3,Win32,60.0528465,62bbe60bf3d75ef465d3e404,0,20,20,144,1,onetwo,,,,,,,,,,,,,,,,,,,,,,,,,,,,,,,,,,,,,,,,,,,,,,,,,,,,,,,,,,,,,,,,,,,,,,,,,,,,,,,,,,,,,,,,,,,,,,,,,,,,,,,,,,,,,,,,,,,,,,,,,,,,,,,,,,,,,,,,,,,,,,,,,,,,,,,,
,,,,,,61688c1020949a931ca5f0ca,62bbfb1b6205431a697012b7,2022-06-29_09h15.13.110,Colour_Asymmetry_Pilot,2022.1.3,Win32,60.0528465,62bbe60bf3d75ef465d3e404,0,21,21,64,1,onetwo,,,,,,,,,,,,,,,,,,,,,,,,,,,,,,,,,,,,,,,,,,,,,,,,,,,,,,,,,,,,,,,,,,,,,,,,,,,,,,,,,,,,,,,,,,,,,,,,,,,,,,,,,,,,,,,,,,,,,,,,,,,,,,,,,,,,,,,,,,,,,,,,,,,,,,,,
,,,,,,61688c1020949a931ca5f0ca,62bbfb1b6205431a697012b7,2022-06-29_09h15.13.110,Colour_Asymmetry_Pilot,2022.1.3,Win32,60.0528465,62bbe60bf3d75ef465d3e404,0,22,22,142,1,fourtwo,,,,,,,,,,,,,,,,,,,,,,,,,,,,,,,,,,,,,,,,,,,,,,,,,,,,,,,,,,,,,,,,,,,,,,,,,,,,,,,,,,,,,,,,,,,,,,,,,,,,,,,,,,,,,,,,,,,,,,,,,,,,,,,,,,,,,,,,,,,,,,,,,,,,,,,,
,,,,,,61688c1020949a931ca5f0ca,62bbfb1b6205431a697012b7,2022-06-29_09h15.13.110,Colour_Asymmetry_Pilot,2022.1.3,Win32,60.0528465,62bbe60bf3d75ef465d3e404,0,23,23,151,1,fourthree,,,,,,,,,,,,,,,,,,,,,,,,,,,,,,,,,,,,,,,,,,,,,,,,,,,,,,,,,,,,,,,,,,,,,,,,,,,,,,,,,,,,,,,,,,,,,,,,,,,,,,,,,,,,,,,,,,,,,,,,,,,,,,,,,,,,,,,,,,,,,,,,,,,,,,,,
,,,,,,61688c1020949a931ca5f0ca,62bbfb1b6205431a697012b7,2022-06-29_09h15.13.110,Colour_Asymmetry_Pilot,2022.1.3,Win32,60.0528465,62bbe60bf3d75ef465d3e404,0,24,24,114,1,twoone,,,,,,,,,,,,,,,,,,,,,,,,,,,,,,,,,,,,,,,,,,,,,,,,,,,,,,,,,,,,,,,,,,,,,,,,,,,,,,,,,,,,,,,,,,,,,,,,,,,,,,,,,,,,,,,,,,,,,,,,,,,,,,,,,,,,,,,,,,,,,,,,,,,,,,,,
,,,,,,61688c1020949a931ca5f0ca,62bbfb1b6205431a697012b7,2022-06-29_09h15.13.110,Colour_Asymmetry_Pilot,2022.1.3,Win32,60.0528465,62bbe60bf3d75ef465d3e404,0,25,25,150,1,fourtwo,,,,,,,,,,,,,,,,,,,,,,,,,,,,,,,,,,,,,,,,,,,,,,,,,,,,,,,,,,,,,,,,,,,,,,,,,,,,,,,,,,,,,,,,,,,,,,,,,,,,,,,,,,,,,,,,,,,,,,,,,,,,,,,,,,,,,,,,,,,,,,,,,,,,,,,,
,,,,,,61688c1020949a931ca5f0ca,62bbfb1b6205431a697012b7,2022-06-29_09h15.13.110,Colour_Asymmetry_Pilot,2022.1.3,Win32,60.0528465,62bbe60bf3d75ef465d3e404,0,26,26,46,1,fourtwo,,,,,,,,,,,,,,,,,,,,,,,,,,,,,,,,,,,,,,,,,,,,,,,,,,,,,,,,,,,,,,,,,,,,,,,,,,,,,,,,,,,,,,,,,,,,,,,,,,,,,,,,,,,,,,,,,,,,,,,,,,,,,,,,,,,,,,,,,,,,,,,,,,,,,,,,
,,,,,,61688c1020949a931ca5f0ca,62bbfb1b6205431a697012b7,2022-06-29_09h15.13.110,Colour_Asymmetry_Pilot,2022.1.3,Win32,60.0528465,62bbe60bf3d75ef465d3e404,0,27,27,22,1,fourtwo,,,,,,,,,,,,,,,,,,,,,,,,,,,,,,,,,,,,,,,,,,,,,,,,,,,,,,,,,,,,,,,,,,,,,,,,,,,,,,,,,,,,,,,,,,,,,,,,,,,,,,,,,,,,,,,,,,,,,,,,,,,,,,,,,,,,,,,,,,,,,,,,,,,,,,,,
,,,,,,61688c1020949a931ca5f0ca,62bbfb1b6205431a697012b7,2022-06-29_09h15.13.110,Colour_Asymmetry_Pilot,2022.1.3,Win32,60.0528465,62bbe60bf3d75ef465d3e404,0,28,28,79,1,fourthree,,,,,,,,,,,,,,,,,,,,,,,,,,,,,,,,,,,,,,,,,,,,,,,,,,,,,,,,,,,,,,,,,,,,,,,,,,,,,,,,,,,,,,,,,,,,,,,,,,,,,,,,,,,,,,,,,,,,,,,,,,,,,,,,,,,,,,,,,,,,,,,,,,,,,,,,
,,,,,,61688c1020949a931ca5f0ca,62bbfb1b6205431a697012b7,2022-06-29_09h15.13.110,Colour_Asymmetry_Pilot,2022.1.3,Win32,60.0528465,62bbe60bf3d75ef465d3e404,0,29,29,160,1,onetwo,,,,,,,,,,,,,,,,,,,,,,,,,,,,,,,,,,,,,,,,,,,,,,,,,,,,,,,,,,,,,,,,,,,,,,,,,,,,,,,,,,,,,,,,,,,,,,,,,,,,,,,,,,,,,,,,,,,,,,,,,,,,,,,,,,,,,,,,,,,,,,,,,,,,,,,,
,,,,,,61688c1020949a931ca5f0ca,62bbfb1b6205431a697012b7,2022-06-29_09h15.13.110,Colour_Asymmetry_Pilot,2022.1.3,Win32,60.0528465,62bbe60bf3d75ef465d3e404,0,30,30,18,1,twoone,,,,,,,,,,,,,,,,,,,,,,,,,,,,,,,,,,,,,,,,,,,,,,,,,,,,,,,,,,,,,,,,,,,,,,,,,,,,,,,,,,,,,,,,,,,,,,,,,,,,,,,,,,,,,,,,,,,,,,,,,,,,,,,,,,,,,,,,,,,,,,,,,,,,,,,,
,,,,,,61688c1020949a931ca5f0ca,62bbfb1b6205431a697012b7,2022-06-29_09h15.13.110,Colour_Asymmetry_Pilot,2022.1.3,Win32,60.0528465,62bbe60bf3d75ef465d3e404,0,31,31,109,1,threefour,,,,,,,,,,,,,,,,,,,,,,,,,,,,,,,,,,,,,,,,,,,,,,,,,,,,,,,,,,,,,,,,,,,,,,,,,,,,,,,,,,,,,,,,,,,,,,,,,,,,,,,,,,,,,,,,,,,,,,,,,,,,,,,,,,,,,,,,,,,,,,,,,,,,,,,,
,,,,,,61688c1020949a931ca5f0ca,62bbfb1b6205431a697012b7,2022-06-29_09h15.13.110,Colour_Asymmetry_Pilot,2022.1.3,Win32,60.0528465,62bbe60bf3d75ef465d3e404,0,32,32,124,1,threeone,,,,,,,,,,,,,,,,,,,,,,,,,,,,,,,,,,,,,,,,,,,,,,,,,,,,,,,,,,,,,,,,,,,,,,,,,,,,,,,,,,,,,,,,,,,,,,,,,,,,,,,,,,,,,,,,,,,,,,,,,,,,,,,,,,,,,,,,,,,,,,,,,,,,,,,,
,,,,,,61688c1020949a931ca5f0ca,62bbfb1b6205431a697012b7,2022-06-29_09h15.13.110,Colour_Asymmetry_Pilot,2022.1.3,Win32,60.0528465,62bbe60bf3d75ef465d3e404,0,33,33,12,1,threeone,,,,,,,,,,,,,,,,,,,,,,,,,,,,,,,,,,,,,,,,,,,,,,,,,,,,,,,,,,,,,,,,,,,,,,,,,,,,,,,,,,,,,,,,,,,,,,,,,,,,,,,,,,,,,,,,,,,,,,,,,,,,,,,,,,,,,,,,,,,,,,,,,,,,,,,,
,,,,,,61688c1020949a931ca5f0ca,62bbfb1b6205431a697012b7,2022-06-29_09h15.13.110,Colour_Asymmetry_Pilot,2022.1.3,Win32,60.0528465,62bbe60bf3d75ef465d3e404,0,34,34,76,1,threeone,,,,,,,,,,,,,,,,,,,,,,,,,,,,,,,,,,,,,,,,,,,,,,,,,,,,,,,,,,,,,,,,,,,,,,,,,,,,,,,,,,,,,,,,,,,,,,,,,,,,,,,,,,,,,,,,,,,,,,,,,,,,,,,,,,,,,,,,,,,,,,,,,,,,,,,,
,,,,,,61688c1020949a931ca5f0ca,62bbfb1b6205431a697012b7,2022-06-29_09h15.13.110,Colour_Asymmetry_Pilot,2022.1.3,Win32,60.0528465,62bbe60bf3d75ef465d3e404,0,35,35,8,1,onetwo,,,,,,,,,,,,,,,,,,,,,,,,,,,,,,,,,,,,,,,,,,,,,,,,,,,,,,,,,,,,,,,,,,,,,,,,,,,,,,,,,,,,,,,,,,,,,,,,,,,,,,,,,,,,,,,,,,,,,,,,,,,,,,,,,,,,,,,,,,,,,,,,,,,,,,,,
,,,,,,61688c1020949a931ca5f0ca,62bbfb1b6205431a697012b7,2022-06-29_09h15.13.110,Colour_Asymmetry_Pilot,2022.1.3,Win32,60.0528465,62bbe60bf3d75ef465d3e404,0,36,36,159,1,fourthree,,,,,,,,,,,,,,,,,,,,,,,,,,,,,,,,,,,,,,,,,,,,,,,,,,,,,,,,,,,,,,,,,,,,,,,,,,,,,,,,,,,,,,,,,,,,,,,,,,,,,,,,,,,,,,,,,,,,,,,,,,,,,,,,,,,,,,,,,,,,,,,,,,,,,,,,
,,,,,,61688c1020949a931ca5f0ca,62bbfb1b6205431a697012b7,2022-06-29_09h15.13.110,Colour_Asymmetry_Pilot,2022.1.3,Win32,60.0528465,62bbe60bf3d75ef465d3e404,0,37,37,3,1,twofour,,,,,,,,,,,,,,,,,,,,,,,,,,,,,,,,,,,,,,,,,,,,,,,,,,,,,,,,,,,,,,,,,,,,,,,,,,,,,,,,,,,,,,,,,,,,,,,,,,,,,,,,,,,,,,,,,,,,,,,,,,,,,,,,,,,,,,,,,,,,,,,,,,,,,,,,
,,,,,,61688c1020949a931ca5f0ca,62bbfb1b6205431a697012b7,2022-06-29_09h15.13.110,Colour_Asymmetry_Pilot,2022.1.3,Win32,60.0528465,62bbe60bf3d75ef465d3e404,0,38,38,71,1,fourthree,,,,,,,,,,,,,,,,,,,,,,,,,,,,,,,,,,,,,,,,,,,,,,,,,,,,,,,,,,,,,,,,,,,,,,,,,,,,,,,,,,,,,,,,,,,,,,,,,,,,,,,,,,,,,,,,,,,,,,,,,,,,,,,,,,,,,,,,,,,,,,,,,,,,,,,,
,,,,,,61688c1020949a931ca5f0ca,62bbfb1b6205431a697012b7,2022-06-29_09h15.13.110,Colour_Asymmetry_Pilot,2022.1.3,Win32,60.0528465,62bbe60bf3d75ef465d3e404,0,39,39,101,1,threefour,,,,,,,,,,,,,,,,,,,,,,,,,,,,,,,,,,,,,,,,,,,,,,,,,,,,,,,,,,,,,,,,,,,,,,,,,,,,,,,,,,,,,,,,,,,,,,,,,,,,,,,,,,,,,,,,,,,,,,,,,,,,,,,,,,,,,,,,,,,,,,,,,,,,,,,,
,,,,,,61688c1020949a931ca5f0ca,62bbfb1b6205431a697012b7,2022-06-29_09h15.13.110,Colour_Asymmetry_Pilot,2022.1.3,Win32,60.0528465,62bbe60bf3d75ef465d3e404,0,40,40,128,1,onetwo,,,,,,,,,,,,,,,,,,,,,,,,,,,,,,,,,,,,,,,,,,,,,,,,,,,,,,,,,,,,,,,,,,,,,,,,,,,,,,,,,,,,,,,,,,,,,,,,,,,,,,,,,,,,,,,,,,,,,,,,,,,,,,,,,,,,,,,,,,,,,,,,,,,,,,,,
,,,,,,61688c1020949a931ca5f0ca,62bbfb1b6205431a697012b7,2022-06-29_09h15.13.110,Colour_Asymmetry_Pilot,2022.1.3,Win32,60.0528465,62bbe60bf3d75ef465d3e404,0,41,41,111,1,fourthree,,,,,,,,,,,,,,,,,,,,,,,,,,,,,,,,,,,,,,,,,,,,,,,,,,,,,,,,,,,,,,,,,,,,,,,,,,,,,,,,,,,,,,,,,,,,,,,,,,,,,,,,,,,,,,,,,,,,,,,,,,,,,,,,,,,,,,,,,,,,,,,,,,,,,,,,
,,,,,,61688c1020949a931ca5f0ca,62bbfb1b6205431a697012b7,2022-06-29_09h15.13.110,Colour_Asymmetry_Pilot,2022.1.3,Win32,60.0528465,62bbe60bf3d75ef465d3e404,0,42,42,42,1,twoone,,,,,,,,,,,,,,,,,,,,,,,,,,,,,,,,,,,,,,,,,,,,,,,,,,,,,,,,,,,,,,,,,,,,,,,,,,,,,,,,,,,,,,,,,,,,,,,,,,,,,,,,,,,,,,,,,,,,,,,,,,,,,,,,,,,,,,,,,,,,,,,,,,,,,,,,
,,,,,,61688c1020949a931ca5f0ca,62bbfb1b6205431a697012b7,2022-06-29_09h15.13.110,Colour_Asymmetry_Pilot,2022.1.3,Win32,60.0528465,62bbe60bf3d75ef465d3e404,0,43,43,104,1,onetwo,,,,,,,,,,,,,,,,,,,,,,,,,,,,,,,,,,,,,,,,,,,,,,,,,,,,,,,,,,,,,,,,,,,,,,,,,,,,,,,,,,,,,,,,,,,,,,,,,,,,,,,,,,,,,,,,,,,,,,,,,,,,,,,,,,,,,,,,,,,,,,,,,,,,,,,,
,,,,,,61688c1020949a931ca5f0ca,62bbfb1b6205431a697012b7,2022-06-29_09h15.13.110,Colour_Asymmetry_Pilot,2022.1.3,Win32,60.0528465,62bbe60bf3d75ef465d3e404,0,44,44,89,1,onethree,,,,,,,,,,,,,,,,,,,,,,,,,,,,,,,,,,,,,,,,,,,,,,,,,,,,,,,,,,,,,,,,,,,,,,,,,,,,,,,,,,,,,,,,,,,,,,,,,,,,,,,,,,,,,,,,,,,,,,,,,,,,,,,,,,,,,,,,,,,,,,,,,,,,,,,,
,,,,,,61688c1020949a931ca5f0ca,62bbfb1b6205431a697012b7,2022-06-29_09h15.13.110,Colour_Asymmetry_Pilot,2022.1.3,Win32,60.0528465,62bbe60bf3d75ef465d3e404,0,45,45,1,1,onethree,,,,,,,,,,,,,,,,,,,,,,,,,,,,,,,,,,,,,,,,,,,,,,,,,,,,,,,,,,,,,,,,,,,,,,,,,,,,,,,,,,,,,,,,,,,,,,,,,,,,,,,,,,,,,,,,,,,,,,,,,,,,,,,,,,,,,,,,,,,,,,,,,,,,,,,,
,,,,,,61688c1020949a931ca5f0ca,62bbfb1b6205431a697012b7,2022-06-29_09h15.13.110,Colour_Asymmetry_Pilot,2022.1.3,Win32,60.0528465,62bbe60bf3d75ef465d3e404,0,46,46,133,1,threefour,,,,,,,,,,,,,,,,,,,,,,,,,,,,,,,,,,,,,,,,,,,,,,,,,,,,,,,,,,,,,,,,,,,,,,,,,,,,,,,,,,,,,,,,,,,,,,,,,,,,,,,,,,,,,,,,,,,,,,,,,,,,,,,,,,,,,,,,,,,,,,,,,,,,,,,,
,,,,,,61688c1020949a931ca5f0ca,62bbfb1b6205431a697012b7,2022-06-29_09h15.13.110,Colour_Asymmetry_Pilot,2022.1.3,Win32,60.0528465,62bbe60bf3d75ef465d3e404,0,47,47,74,1,twoone,,,,,,,,,,,,,,,,,,,,,,,,,,,,,,,,,,,,,,,,,,,,,,,,,,,,,,,,,,,,,,,,,,,,,,,,,,,,,,,,,,,,,,,,,,,,,,,,,,,,,,,,,,,,,,,,,,,,,,,,,,,,,,,,,,,,,,,,,,,,,,,,,,,,,,,,
,,,,,,61688c1020949a931ca5f0ca,62bbfb1b6205431a697012b7,2022-06-29_09h15.13.110,Colour_Asymmetry_Pilot,2022.1.3,Win32,60.0528465,62bbe60bf3d75ef465d3e404,0,48,48,50,1,twoone,,,,,,,,,,,,,,,,,,,,,,,,,,,,,,,,,,,,,,,,,,,,,,,,,,,,,,,,,,,,,,,,,,,,,,,,,,,,,,,,,,,,,,,,,,,,,,,,,,,,,,,,,,,,,,,,,,,,,,,,,,,,,,,,,,,,,,,,,,,,,,,,,,,,,,,,
,,,,,,61688c1020949a931ca5f0ca,62bbfb1b6205431a697012b7,2022-06-29_09h15.13.110,Colour_Asymmetry_Pilot,2022.1.3,Win32,60.0528465,62bbe60bf3d75ef465d3e404,0,49,49,155,1,twofour,,,,,,,,,,,,,,,,,,,,,,,,,,,,,,,,,,,,,,,,,,,,,,,,,,,,,,,,,,,,,,,,,,,,,,,,,,,,,,,,,,,,,,,,,,,,,,,,,,,,,,,,,,,,,,,,,,,,,,,,,,,,,,,,,,,,,,,,,,,,,,,,,,,,,,,,
,,,,,,61688c1020949a931ca5f0ca,62bbfb1b6205431a697012b7,2022-06-29_09h15.13.110,Colour_Asymmetry_Pilot,2022.1.3,Win32,60.0528465,62bbe60bf3d75ef465d3e404,0,50,50,13,1,threefour,,,,,,,,,,,,,,,,,,,,,,,,,,,,,,,,,,,,,,,,,,,,,,,,,,,,,,,,,,,,,,,,,,,,,,,,,,,,,,,,,,,,,,,,,,,,,,,,,,,,,,,,,,,,,,,,,,,,,,,,,,,,,,,,,,,,,,,,,,,,,,,,,,,,,,,,
,,,,,,61688c1020949a931ca5f0ca,62bbfb1b6205431a697012b7,2022-06-29_09h15.13.110,Colour_Asymmetry_Pilot,2022.1.3,Win32,60.0528465,62bbe60bf3d75ef465d3e404,0,51,51,43,1,twofour,,,,,,,,,,,,,,,,,,,,,,,,,,,,,,,,,,,,,,,,,,,,,,,,,,,,,,,,,,,,,,,,,,,,,,,,,,,,,,,,,,,,,,,,,,,,,,,,,,,,,,,,,,,,,,,,,,,,,,,,,,,,,,,,,,,,,,,,,,,,,,,,,,,,,,,,
,,,,,,61688c1020949a931ca5f0ca,62bbfb1b6205431a697012b7,2022-06-29_09h15.13.110,Colour_Asymmetry_Pilot,2022.1.3,Win32,60.0528465,62bbe60bf3d75ef465d3e404,0,52,52,154,1,twoone,,,,,,,,,,,,,,,,,,,,,,,,,,,,,,,,,,,,,,,,,,,,,,,,,,,,,,,,,,,,,,,,,,,,,,,,,,,,,,,,,,,,,,,,,,,,,,,,,,,,,,,,,,,,,,,,,,,,,,,,,,,,,,,,,,,,,,,,,,,,,,,,,,,,,,,,
,,,,,,61688c1020949a931ca5f0ca,62bbfb1b6205431a697012b7,2022-06-29_09h15.13.110,Colour_Asymmetry_Pilot,2022.1.3,Win32,60.0528465,62bbe60bf3d75ef465d3e404,0,53,53,130,1,twoone,,,,,,,,,,,,,,,,,,,,,,,,,,,,,,,,,,,,,,,,,,,,,,,,,,,,,,,,,,,,,,,,,,,,,,,,,,,,,,,,,,,,,,,,,,,,,,,,,,,,,,,,,,,,,,,,,,,,,,,,,,,,,,,,,,,,,,,,,,,,,,,,,,,,,,,,
,,,,,,61688c1020949a931ca5f0ca,62bbfb1b6205431a697012b7,2022-06-29_09h15.13.110,Colour_Asymmetry_Pilot,2022.1.3,Win32,60.0528465,62bbe60bf3d75ef465d3e404,0,54,54,24,1,onetwo,,,,,,,,,,,,,,,,,,,,,,,,,,,,,,,,,,,,,,,,,,,,,,,,,,,,,,,,,,,,,,,,,,,,,,,,,,,,,,,,,,,,,,,,,,,,,,,,,,,,,,,,,,,,,,,,,,,,,,,,,,,,,,,,,,,,,,,,,,,,,,,,,,,,,,,,
,,,,,,61688c1020949a931ca5f0ca,62bbfb1b6205431a697012b7,2022-06-29_09h15.13.110,Colour_Asymmetry_Pilot,2022.1.3,Win32,60.0528465,62bbe60bf3d75ef465d3e404,0,55,55,93,1,threefour,,,,,,,,,,,,,,,,,,,,,,,,,,,,,,,,,,,,,,,,,,,,,,,,,,,,,,,,,,,,,,,,,,,,,,,,,,,,,,,,,,,,,,,,,,,,,,,,,,,,,,,,,,,,,,,,,,,,,,,,,,,,,,,,,,,,,,,,,,,,,,,,,,,,,,,,
,,,,,,61688c1020949a931ca5f0ca,62bbfb1b6205431a697012b7,2022-06-29_09h15.13.110,Colour_Asymmetry_Pilot,2022.1.3,Win32,60.0528465,62bbe60bf3d75ef465d3e404,0,56,56,0,1,onetwo,,,,,,,,,,,,,,,,,,,,,,,,,,,,,,,,,,,,,,,,,,,,,,,,,,,,,,,,,,,,,,,,,,,,,,,,,,,,,,,,,,,,,,,,,,,,,,,,,,,,,,,,,,,,,,,,,,,,,,,,,,,,,,,,,,,,,,,,,,,,,,,,,,,,,,,,
,,,,,,61688c1020949a931ca5f0ca,62bbfb1b6205431a697012b7,2022-06-29_09h15.13.110,Colour_Asymmetry_Pilot,2022.1.3,Win32,60.0528465,62bbe60bf3d75ef465d3e404,0,57,57,119,1,fourthree,,,,,,,,,,,,,,,,,,,,,,,,,,,,,,,,,,,,,,,,,,,,,,,,,,,,,,,,,,,,,,,,,,,,,,,,,,,,,,,,,,,,,,,,,,,,,,,,,,,,,,,,,,,,,,,,,,,,,,,,,,,,,,,,,,,,,,,,,,,,,,,,,,,,,,,,
,,,,,,61688c1020949a931ca5f0ca,62bbfb1b6205431a697012b7,2022-06-29_09h15.13.110,Colour_Asymmetry_Pilot,2022.1.3,Win32,60.0528465,62bbe60bf3d75ef465d3e404,0,58,58,30,1,fourtwo,,,,,,,,,,,,,,,,,,,,,,,,,,,,,,,,,,,,,,,,,,,,,,,,,,,,,,,,,,,,,,,,,,,,,,,,,,,,,,,,,,,,,,,,,,,,,,,,,,,,,,,,,,,,,,,,,,,,,,,,,,,,,,,,,,,,,,,,,,,,,,,,,,,,,,,,
,,,,,,61688c1020949a931ca5f0ca,62bbfb1b6205431a697012b7,2022-06-29_09h15.13.110,Colour_Asymmetry_Pilot,2022.1.3,Win32,60.0528465,62bbe60bf3d75ef465d3e404,0,59,59,45,1,threefour,,,,,,,,,,,,,,,,,,,,,,,,,,,,,,,,,,,,,,,,,,,,,,,,,,,,,,,,,,,,,,,,,,,,,,,,,,,,,,,,,,,,,,,,,,,,,,,,,,,,,,,,,,,,,,,,,,,,,,,,,,,,,,,,,,,,,,,,,,,,,,,,,,,,,,,,
,,,,,,61688c1020949a931ca5f0ca,62bbfb1b6205431a697012b7,2022-06-29_09h15.13.110,Colour_Asymmetry_Pilot,2022.1.3,Win32,60.0528465,62bbe60bf3d75ef465d3e404,0,60,60,68,1,threeone,,,,,,,,,,,,,,,,,,,,,,,,,,,,,,,,,,,,,,,,,,,,,,,,,,,,,,,,,,,,,,,,,,,,,,,,,,,,,,,,,,,,,,,,,,,,,,,,,,,,,,,,,,,,,,,,,,,,,,,,,,,,,,,,,,,,,,,,,,,,,,,,,,,,,,,,
,,,,,,61688c1020949a931ca5f0ca,62bbfb1b6205431a697012b7,2022-06-29_09h15.13.110,Colour_Asymmetry_Pilot,2022.1.3,Win32,60.0528465,62bbe60bf3d75ef465d3e404,0,61,61,113,1,onethree,,,,,,,,,,,,,,,,,,,,,,,,,,,,,,,,,,,,,,,,,,,,,,,,,,,,,,,,,,,,,,,,,,,,,,,,,,,,,,,,,,,,,,,,,,,,,,,,,,,,,,,,,,,,,,,,,,,,,,,,,,,,,,,,,,,,,,,,,,,,,,,,,,,,,,,,
,,,,,,61688c1020949a931ca5f0ca,62bbfb1b6205431a697012b7,2022-06-29_09h15.13.110,Colour_Asymmetry_Pilot,2022.1.3,Win32,60.0528465,62bbe60bf3d75ef465d3e404,0,62,62,134,1,fourtwo,,,,,,,,,,,,,,,,,,,,,,,,,,,,,,,,,,,,,,,,,,,,,,,,,,,,,,,,,,,,,,,,,,,,,,,,,,,,,,,,,,,,,,,,,,,,,,,,,,,,,,,,,,,,,,,,,,,,,,,,,,,,,,,,,,,,,,,,,,,,,,,,,,,,,,,,
,,,,,,61688c1020949a931ca5f0ca,62bbfb1b6205431a697012b7,2022-06-29_09h15.13.110,Colour_Asymmetry_Pilot,2022.1.3,Win32,60.0528465,62bbe60bf3d75ef465d3e404,0,63,63,72,1,onetwo,,,,,,,,,,,,,,,,,,,,,,,,,,,,,,,,,,,,,,,,,,,,,,,,,,,,,,,,,,,,,,,,,,,,,,,,,,,,,,,,,,,,,,,,,,,,,,,,,,,,,,,,,,,,,,,,,,,,,,,,,,,,,,,,,,,,,,,,,,,,,,,,,,,,,,,,
,,,,,,61688c1020949a931ca5f0ca,62bbfb1b6205431a697012b7,2022-06-29_09h15.13.110,Colour_Asymmetry_Pilot,2022.1.3,Win32,60.0528465,62bbe60bf3d75ef465d3e404,0,64,64,53,1,threefour,,,,,,,,,,,,,,,,,,,,,,,,,,,,,,,,,,,,,,,,,,,,,,,,,,,,,,,,,,,,,,,,,,,,,,,,,,,,,,,,,,,,,,,,,,,,,,,,,,,,,,,,,,,,,,,,,,,,,,,,,,,,,,,,,,,,,,,,,,,,,,,,,,,,,,,,
,,,,,,61688c1020949a931ca5f0ca,62bbfb1b6205431a697012b7,2022-06-29_09h15.13.110,Colour_Asymmetry_Pilot,2022.1.3,Win32,60.0528465,62bbe60bf3d75ef465d3e404,0,65,65,84,1,threeone,,,,,,,,,,,,,,,,,,,,,,,,,,,,,,,,,,,,,,,,,,,,,,,,,,,,,,,,,,,,,,,,,,,,,,,,,,,,,,,,,,,,,,,,,,,,,,,,,,,,,,,,,,,,,,,,,,,,,,,,,,,,,,,,,,,,,,,,,,,,,,,,,,,,,,,,
,,,,,,61688c1020949a931ca5f0ca,62bbfb1b6205431a697012b7,2022-06-29_09h15.13.110,Colour_Asymmetry_Pilot,2022.1.3,Win32,60.0528465,62bbe60bf3d75ef465d3e404,0,66,66,27,1,twofour,,,,,,,,,,,,,,,,,,,,,,,,,,,,,,,,,,,,,,,,,,,,,,,,,,,,,,,,,,,,,,,,,,,,,,,,,,,,,,,,,,,,,,,,,,,,,,,,,,,,,,,,,,,,,,,,,,,,,,,,,,,,,,,,,,,,,,,,,,,,,,,,,,,,,,,,
,,,,,,61688c1020949a931ca5f0ca,62bbfb1b6205431a697012b7,2022-06-29_09h15.13.110,Colour_Asymmetry_Pilot,2022.1.3,Win32,60.0528465,62bbe60bf3d75ef465d3e404,0,67,67,115,1,twofour,,,,,,,,,,,,,,,,,,,,,,,,,,,,,,,,,,,,,,,,,,,,,,,,,,,,,,,,,,,,,,,,,,,,,,,,,,,,,,,,,,,,,,,,,,,,,,,,,,,,,,,,,,,,,,,,,,,,,,,,,,,,,,,,,,,,,,,,,,,,,,,,,,,,,,,,
,,,,,,61688c1020949a931ca5f0ca,62bbfb1b6205431a697012b7,2022-06-29_09h15.13.110,Colour_Asymmetry_Pilot,2022.1.3,Win32,60.0528465,62bbe60bf3d75ef465d3e404,0,68,68,94,1,fourtwo,,,,,,,,,,,,,,,,,,,,,,,,,,,,,,,,,,,,,,,,,,,,,,,,,,,,,,,,,,,,,,,,,,,,,,,,,,,,,,,,,,,,,,,,,,,,,,,,,,,,,,,,,,,,,,,,,,,,,,,,,,,,,,,,,,,,,,,,,,,,,,,,,,,,,,,,
,,,,,,61688c1020949a931ca5f0ca,62bbfb1b6205431a697012b7,2022-06-29_09h15.13.110,Colour_Asymmetry_Pilot,2022.1.3,Win32,60.0528465,62bbe60bf3d75ef465d3e404,0,69,69,7,1,fourthree,,,,,,,,,,,,,,,,,,,,,,,,,,,,,,,,,,,,,,,,,,,,,,,,,,,,,,,,,,,,,,,,,,,,,,,,,,,,,,,,,,,,,,,,,,,,,,,,,,,,,,,,,,,,,,,,,,,,,,,,,,,,,,,,,,,,,,,,,,,,,,,,,,,,,,,,
,,,,,,61688c1020949a931ca5f0ca,62bbfb1b6205431a697012b7,2022-06-29_09h15.13.110,Colour_Asymmetry_Pilot,2022.1.3,Win32,60.0528465,62bbe60bf3d75ef465d3e404,0,70,70,59,1,twofour,,,,,,,,,,,,,,,,,,,,,,,,,,,,,,,,,,,,,,,,,,,,,,,,,,,,,,,,,,,,,,,,,,,,,,,,,,,,,,,,,,,,,,,,,,,,,,,,,,,,,,,,,,,,,,,,,,,,,,,,,,,,,,,,,,,,,,,,,,,,,,,,,,,,,,,,
,,,,,,61688c1020949a931ca5f0ca,62bbfb1b6205431a697012b7,2022-06-29_09h15.13.110,Colour_Asymmetry_Pilot,2022.1.3,Win32,60.0528465,62bbe60bf3d75ef465d3e404,0,71,71,37,1,threefour,,,,,,,,,,,,,,,,,,,,,,,,,,,,,,,,,,,,,,,,,,,,,,,,,,,,,,,,,,,,,,,,,,,,,,,,,,,,,,,,,,,,,,,,,,,,,,,,,,,,,,,,,,,,,,,,,,,,,,,,,,,,,,,,,,,,,,,,,,,,,,,,,,,,,,,,
,,,,,,61688c1020949a931ca5f0ca,62bbfb1b6205431a697012b7,2022-06-29_09h15.13.110,Colour_Asymmetry_Pilot,2022.1.3,Win32,60.0528465,62bbe60bf3d75ef465d3e404,0,72,72,65,1,onethree,,,,,,,,,,,,,,,,,,,,,,,,,,,,,,,,,,,,,,,,,,,,,,,,,,,,,,,,,,,,,,,,,,,,,,,,,,,,,,,,,,,,,,,,,,,,,,,,,,,,,,,,,,,,,,,,,,,,,,,,,,,,,,,,,,,,,,,,,,,,,,,,,,,,,,,,
,,,,,,61688c1020949a931ca5f0ca,62bbfb1b6205431a697012b7,2022-06-29_09h15.13.110,Colour_Asymmetry_Pilot,2022.1.3,Win32,60.0528465,62bbe60bf3d75ef465d3e404,0,73,73,54,1,fourtwo,,,,,,,,,,,,,,,,,,,,,,,,,,,,,,,,,,,,,,,,,,,,,,,,,,,,,,,,,,,,,,,,,,,,,,,,,,,,,,,,,,,,,,,,,,,,,,,,,,,,,,,,,,,,,,,,,,,,,,,,,,,,,,,,,,,,,,,,,,,,,,,,,,,,,,,,
,,,,,,61688c1020949a931ca5f0ca,62bbfb1b6205431a697012b7,2022-06-29_09h15.13.110,Colour_Asymmetry_Pilot,2022.1.3,Win32,60.0528465,62bbe60bf3d75ef465d3e404,0,74,74,73,1,onethree,,,,,,,,,,,,,,,,,,,,,,,,,,,,,,,,,,,,,,,,,,,,,,,,,,,,,,,,,,,,,,,,,,,,,,,,,,,,,,,,,,,,,,,,,,,,,,,,,,,,,,,,,,,,,,,,,,,,,,,,,,,,,,,,,,,,,,,,,,,,,,,,,,,,,,,,
,,,,,,61688c1020949a931ca5f0ca,62bbfb1b6205431a697012b7,2022-06-29_09h15.13.110,Colour_Asymmetry_Pilot,2022.1.3,Win32,60.0528465,62bbe60bf3d75ef465d3e404,0,75,75,123,1,twofour,,,,,,,,,,,,,,,,,,,,,,,,,,,,,,,,,,,,,,,,,,,,,,,,,,,,,,,,,,,,,,,,,,,,,,,,,,,,,,,,,,,,,,,,,,,,,,,,,,,,,,,,,,,,,,,,,,,,,,,,,,,,,,,,,,,,,,,,,,,,,,,,,,,,,,,,
,,,,,,61688c1020949a931ca5f0ca,62bbfb1b6205431a697012b7,2022-06-29_09h15.13.110,Colour_Asymmetry_Pilot,2022.1.3,Win32,60.0528465,62bbe60bf3d75ef465d3e404,0,76,76,83,1,twofour,,,,,,,,,,,,,,,,,,,,,,,,,,,,,,,,,,,,,,,,,,,,,,,,,,,,,,,,,,,,,,,,,,,,,,,,,,,,,,,,,,,,,,,,,,,,,,,,,,,,,,,,,,,,,,,,,,,,,,,,,,,,,,,,,,,,,,,,,,,,,,,,,,,,,,,,
,,,,,,61688c1020949a931ca5f0ca,62bbfb1b6205431a697012b7,2022-06-29_09h15.13.110,Colour_Asymmetry_Pilot,2022.1.3,Win32,60.0528465,62bbe60bf3d75ef465d3e404,0,77,77,125,1,threefour,,,,,,,,,,,,,,,,,,,,,,,,,,,,,,,,,,,,,,,,,,,,,,,,,,,,,,,,,,,,,,,,,,,,,,,,,,,,,,,,,,,,,,,,,,,,,,,,,,,,,,,,,,,,,,,,,,,,,,,,,,,,,,,,,,,,,,,,,,,,,,,,,,,,,,,,
,,,,,,61688c1020949a931ca5f0ca,62bbfb1b6205431a697012b7,2022-06-29_09h15.13.110,Colour_Asymmetry_Pilot,2022.1.3,Win32,60.0528465,62bbe60bf3d75ef465d3e404,0,78,78,25,1,onethree,,,,,,,,,,,,,,,,,,,,,,,,,,,,,,,,,,,,,,,,,,,,,,,,,,,,,,,,,,,,,,,,,,,,,,,,,,,,,,,,,,,,,,,,,,,,,,,,,,,,,,,,,,,,,,,,,,,,,,,,,,,,,,,,,,,,,,,,,,,,,,,,,,,,,,,,
,,,,,,61688c1020949a931ca5f0ca,62bbfb1b6205431a697012b7,2022-06-29_09h15.13.110,Colour_Asymmetry_Pilot,2022.1.3,Win32,60.0528465,62bbe60bf3d75ef465d3e404,0,79,79,9,1,onethree,,,,,,,,,,,,,,,,,,,,,,,,,,,,,,,,,,,,,,,,,,,,,,,,,,,,,,,,,,,,,,,,,,,,,,,,,,,,,,,,,,,,,,,,,,,,,,,,,,,,,,,,,,,,,,,,,,,,,,,,,,,,,,,,,,,,,,,,,,,,,,,,,,,,,,,,
,,,,,,61688c1020949a931ca5f0ca,62bbfb1b6205431a697012b7,2022-06-29_09h15.13.110,Colour_Asymmetry_Pilot,2022.1.3,Win32,60.0528465,62bbe60bf3d75ef465d3e404,0,80,80,143,1,fourthree,,,,,,,,,,,,,,,,,,,,,,,,,,,,,,,,,,,,,,,,,,,,,,,,,,,,,,,,,,,,,,,,,,,,,,,,,,,,,,,,,,,,,,,,,,,,,,,,,,,,,,,,,,,,,,,,,,,,,,,,,,,,,,,,,,,,,,,,,,,,,,,,,,,,,,,,
,,,,,,61688c1020949a931ca5f0ca,62bbfb1b6205431a697012b7,2022-06-29_09h15.13.110,Colour_Asymmetry_Pilot,2022.1.3,Win32,60.0528465,62bbe60bf3d75ef465d3e404,0,81,81,33,1,onethree,,,,,,,,,,,,,,,,,,,,,,,,,,,,,,,,,,,,,,,,,,,,,,,,,,,,,,,,,,,,,,,,,,,,,,,,,,,,,,,,,,,,,,,,,,,,,,,,,,,,,,,,,,,,,,,,,,,,,,,,,,,,,,,,,,,,,,,,,,,,,,,,,,,,,,,,
,,,,,,61688c1020949a931ca5f0ca,62bbfb1b6205431a697012b7,2022-06-29_09h15.13.110,Colour_Asymmetry_Pilot,2022.1.3,Win32,60.0528465,62bbe60bf3d75ef465d3e404,0,82,82,132,1,threeone,,,,,,,,,,,,,,,,,,,,,,,,,,,,,,,,,,,,,,,,,,,,,,,,,,,,,,,,,,,,,,,,,,,,,,,,,,,,,,,,,,,,,,,,,,,,,,,,,,,,,,,,,,,,,,,,,,,,,,,,,,,,,,,,,,,,,,,,,,,,,,,,,,,,,,,,
,,,,,,61688c1020949a931ca5f0ca,62bbfb1b6205431a697012b7,2022-06-29_09h15.13.110,Colour_Asymmetry_Pilot,2022.1.3,Win32,60.0528465,62bbe60bf3d75ef465d3e404,0,83,83,131,1,twofour,,,,,,,,,,,,,,,,,,,,,,,,,,,,,,,,,,,,,,,,,,,,,,,,,,,,,,,,,,,,,,,,,,,,,,,,,,,,,,,,,,,,,,,,,,,,,,,,,,,,,,,,,,,,,,,,,,,,,,,,,,,,,,,,,,,,,,,,,,,,,,,,,,,,,,,,
,,,,,,61688c1020949a931ca5f0ca,62bbfb1b6205431a697012b7,2022-06-29_09h15.13.110,Colour_Asymmetry_Pilot,2022.1.3,Win32,60.0528465,62bbe60bf3d75ef465d3e404,0,84,84,21,1,threefour,,,,,,,,,,,,,,,,,,,,,,,,,,,,,,,,,,,,,,,,,,,,,,,,,,,,,,,,,,,,,,,,,,,,,,,,,,,,,,,,,,,,,,,,,,,,,,,,,,,,,,,,,,,,,,,,,,,,,,,,,,,,,,,,,,,,,,,,,,,,,,,,,,,,,,,,
,,,,,,61688c1020949a931ca5f0ca,62bbfb1b6205431a697012b7,2022-06-29_09h15.13.110,Colour_Asymmetry_Pilot,2022.1.3,Win32,60.0528465,62bbe60bf3d75ef465d3e404,0,85,85,35,1,twofour,,,,,,,,,,,,,,,,,,,,,,,,,,,,,,,,,,,,,,,,,,,,,,,,,,,,,,,,,,,,,,,,,,,,,,,,,,,,,,,,,,,,,,,,,,,,,,,,,,,,,,,,,,,,,,,,,,,,,,,,,,,,,,,,,,,,,,,,,,,,,,,,,,,,,,,,
,,,,,,61688c1020949a931ca5f0ca,62bbfb1b6205431a697012b7,2022-06-29_09h15.13.110,Colour_Asymmetry_Pilot,2022.1.3,Win32,60.0528465,62bbe60bf3d75ef465d3e404,0,86,86,99,1,twofour,,,,,,,,,,,,,,,,,,,,,,,,,,,,,,,,,,,,,,,,,,,,,,,,,,,,,,,,,,,,,,,,,,,,,,,,,,,,,,,,,,,,,,,,,,,,,,,,,,,,,,,,,,,,,,,,,,,,,,,,,,,,,,,,,,,,,,,,,,,,,,,,,,,,,,,,
,,,,,,61688c1020949a931ca5f0ca,62bbfb1b6205431a697012b7,2022-06-29_09h15.13.110,Colour_Asymmetry_Pilot,2022.1.3,Win32,60.0528465,62bbe60bf3d75ef465d3e404,0,87,87,127,1,fourthree,,,,,,,,,,,,,,,,,,,,,,,,,,,,,,,,,,,,,,,,,,,,,,,,,,,,,,,,,,,,,,,,,,,,,,,,,,,,,,,,,,,,,,,,,,,,,,,,,,,,,,,,,,,,,,,,,,,,,,,,,,,,,,,,,,,,,,,,,,,,,,,,,,,,,,,,
,,,,,,61688c1020949a931ca5f0ca,62bbfb1b6205431a697012b7,2022-06-29_09h15.13.110,Colour_Asymmetry_Pilot,2022.1.3,Win32,60.0528465,62bbe60bf3d75ef465d3e404,0,88,88,96,1,onetwo,,,,,,,,,,,,,,,,,,,,,,,,,,,,,,,,,,,,,,,,,,,,,,,,,,,,,,,,,,,,,,,,,,,,,,,,,,,,,,,,,,,,,,,,,,,,,,,,,,,,,,,,,,,,,,,,,,,,,,,,,,,,,,,,,,,,,,,,,,,,,,,,,,,,,,,,
,,,,,,61688c1020949a931ca5f0ca,62bbfb1b6205431a697012b7,2022-06-29_09h15.13.110,Colour_Asymmetry_Pilot,2022.1.3,Win32,60.0528465,62bbe60bf3d75ef465d3e404,0,89,89,70,1,fourtwo,,,,,,,,,,,,,,,,,,,,,,,,,,,,,,,,,,,,,,,,,,,,,,,,,,,,,,,,,,,,,,,,,,,,,,,,,,,,,,,,,,,,,,,,,,,,,,,,,,,,,,,,,,,,,,,,,,,,,,,,,,,,,,,,,,,,,,,,,,,,,,,,,,,,,,,,
,,,,,,61688c1020949a931ca5f0ca,62bbfb1b6205431a697012b7,2022-06-29_09h15.13.110,Colour_Asymmetry_Pilot,2022.1.3,Win32,60.0528465,62bbe60bf3d75ef465d3e404,0,90,90,17,1,onethree,,,,,,,,,,,,,,,,,,,,,,,,,,,,,,,,,,,,,,,,,,,,,,,,,,,,,,,,,,,,,,,,,,,,,,,,,,,,,,,,,,,,,,,,,,,,,,,,,,,,,,,,,,,,,,,,,,,,,,,,,,,,,,,,,,,,,,,,,,,,,,,,,,,,,,,,
,,,,,,61688c1020949a931ca5f0ca,62bbfb1b6205431a697012b7,2022-06-29_09h15.13.110,Colour_Asymmetry_Pilot,2022.1.3,Win32,60.0528465,62bbe60bf3d75ef465d3e404,0,91,91,103,1,fourthree,,,,,,,,,,,,,,,,,,,,,,,,,,,,,,,,,,,,,,,,,,,,,,,,,,,,,,,,,,,,,,,,,,,,,,,,,,,,,,,,,,,,,,,,,,,,,,,,,,,,,,,,,,,,,,,,,,,,,,,,,,,,,,,,,,,,,,,,,,,,,,,,,,,,,,,,
,,,,,,61688c1020949a931ca5f0ca,62bbfb1b6205431a697012b7,2022-06-29_09h15.13.110,Colour_Asymmetry_Pilot,2022.1.3,Win32,60.0528465,62bbe60bf3d75ef465d3e404,0,92,92,81,1,onethree,,,,,,,,,,,,,,,,,,,,,,,,,,,,,,,,,,,,,,,,,,,,,,,,,,,,,,,,,,,,,,,,,,,,,,,,,,,,,,,,,,,,,,,,,,,,,,,,,,,,,,,,,,,,,,,,,,,,,,,,,,,,,,,,,,,,,,,,,,,,,,,,,,,,,,,,
,,,,,,61688c1020949a931ca5f0ca,62bbfb1b6205431a697012b7,2022-06-29_09h15.13.110,Colour_Asymmetry_Pilot,2022.1.3,Win32,60.0528465,62bbe60bf3d75ef465d3e404,0,93,93,120,1,onetwo,,,,,,,,,,,,,,,,,,,,,,,,,,,,,,,,,,,,,,,,,,,,,,,,,,,,,,,,,,,,,,,,,,,,,,,,,,,,,,,,,,,,,,,,,,,,,,,,,,,,,,,,,,,,,,,,,,,,,,,,,,,,,,,,,,,,,,,,,,,,,,,,,,,,,,,,
,,,,,,61688c1020949a931ca5f0ca,62bbfb1b6205431a697012b7,2022-06-29_09h15.13.110,Colour_Asymmetry_Pilot,2022.1.3,Win32,60.0528465,62bbe60bf3d75ef465d3e404,0,94,94,19,1,twofour,,,,,,,,,,,,,,,,,,,,,,,,,,,,,,,,,,,,,,,,,,,,,,,,,,,,,,,,,,,,,,,,,,,,,,,,,,,,,,,,,,,,,,,,,,,,,,,,,,,,,,,,,,,,,,,,,,,,,,,,,,,,,,,,,,,,,,,,,,,,,,,,,,,,,,,,
,,,,,,61688c1020949a931ca5f0ca,62bbfb1b6205431a697012b7,2022-06-29_09h15.13.110,Colour_Asymmetry_Pilot,2022.1.3,Win32,60.0528465,62bbe60bf3d75ef465d3e404,0,95,95,67,1,twofour,,,,,,,,,,,,,,,,,,,,,,,,,,,,,,,,,,,,,,,,,,,,,,,,,,,,,,,,,,,,,,,,,,,,,,,,,,,,,,,,,,,,,,,,,,,,,,,,,,,,,,,,,,,,,,,,,,,,,,,,,,,,,,,,,,,,,,,,,,,,,,,,,,,,,,,,
,,,,,,61688c1020949a931ca5f0ca,62bbfb1b6205431a697012b7,2022-06-29_09h15.13.110,Colour_Asymmetry_Pilot,2022.1.3,Win32,60.0528465,62bbe60bf3d75ef465d3e404,0,96,96,157,1,threefour,,,,,,,,,,,,,,,,,,,,,,,,,,,,,,,,,,,,,,,,,,,,,,,,,,,,,,,,,,,,,,,,,,,,,,,,,,,,,,,,,,,,,,,,,,,,,,,,,,,,,,,,,,,,,,,,,,,,,,,,,,,,,,,,,,,,,,,,,,,,,,,,,,,,,,,,
,,,,,,61688c1020949a931ca5f0ca,62bbfb1b6205431a697012b7,2022-06-29_09h15.13.110,Colour_Asymmetry_Pilot,2022.1.3,Win32,60.0528465,62bbe60bf3d75ef465d3e404,0,97,97,5,1,threefour,,,,,,,,,,,,,,,,,,,,,,,,,,,,,,,,,,,,,,,,,,,,,,,,,,,,,,,,,,,,,,,,,,,,,,,,,,,,,,,,,,,,,,,,,,,,,,,,,,,,,,,,,,,,,,,,,,,,,,,,,,,,,,,,,,,,,,,,,,,,,,,,,,,,,,,,
,,,,,,61688c1020949a931ca5f0ca,62bbfb1b6205431a697012b7,2022-06-29_09h15.13.110,Colour_Asymmetry_Pilot,2022.1.3,Win32,60.0528465,62bbe60bf3d75ef465d3e404,0,98,98,62,1,fourtwo,,,,,,,,,,,,,,,,,,,,,,,,,,,,,,,,,,,,,,,,,,,,,,,,,,,,,,,,,,,,,,,,,,,,,,,,,,,,,,,,,,,,,,,,,,,,,,,,,,,,,,,,,,,,,,,,,,,,,,,,,,,,,,,,,,,,,,,,,,,,,,,,,,,,,,,,
,,,,,,61688c1020949a931ca5f0ca,62bbfb1b6205431a697012b7,2022-06-29_09h15.13.110,Colour_Asymmetry_Pilot,2022.1.3,Win32,60.0528465,62bbe60bf3d75ef465d3e404,0,99,99,75,1,twofour,,,,,,,,,,,,,,,,,,,,,,,,,,,,,,,,,,,,,,,,,,,,,,,,,,,,,,,,,,,,,,,,,,,,,,,,,,,,,,,,,,,,,,,,,,,,,,,,,,,,,,,,,,,,,,,,,,,,,,,,,,,,,,,,,,,,,,,,,,,,,,,,,,,,,,,,
,,,,,,61688c1020949a931ca5f0ca,62bbfb1b6205431a697012b7,2022-06-29_09h15.13.110,Colour_Asymmetry_Pilot,2022.1.3,Win32,60.0528465,62bbe60bf3d75ef465d3e404,0,100,100,118,1,fourtwo,,,,,,,,,,,,,,,,,,,,,,,,,,,,,,,,,,,,,,,,,,,,,,,,,,,,,,,,,,,,,,,,,,,,,,,,,,,,,,,,,,,,,,,,,,,,,,,,,,,,,,,,,,,,,,,,,,,,,,,,,,,,,,,,,,,,,,,,,,,,,,,,,,,,,,,,
,,,,,,61688c1020949a931ca5f0ca,62bbfb1b6205431a697012b7,2022-06-29_09h15.13.110,Colour_Asymmetry_Pilot,2022.1.3,Win32,60.0528465,62bbe60bf3d75ef465d3e404,0,101,101,145,1,onethree,,,,,,,,,,,,,,,,,,,,,,,,,,,,,,,,,,,,,,,,,,,,,,,,,,,,,,,,,,,,,,,,,,,,,,,,,,,,,,,,,,,,,,,,,,,,,,,,,,,,,,,,,,,,,,,,,,,,,,,,,,,,,,,,,,,,,,,,,,,,,,,,,,,,,,,,
,,,,,,61688c1020949a931ca5f0ca,62bbfb1b6205431a697012b7,2022-06-29_09h15.13.110,Colour_Asymmetry_Pilot,2022.1.3,Win32,60.0528465,62bbe60bf3d75ef465d3e404,0,102,102,106,1,twoone,,,,,,,,,,,,,,,,,,,,,,,,,,,,,,,,,,,,,,,,,,,,,,,,,,,,,,,,,,,,,,,,,,,,,,,,,,,,,,,,,,,,,,,,,,,,,,,,,,,,,,,,,,,,,,,,,,,,,,,,,,,,,,,,,,,,,,,,,,,,,,,,,,,,,,,,
,,,,,,61688c1020949a931ca5f0ca,62bbfb1b6205431a697012b7,2022-06-29_09h15.13.110,Colour_Asymmetry_Pilot,2022.1.3,Win32,60.0528465,62bbe60bf3d75ef465d3e404,0,103,103,97,1,onethree,,,,,,,,,,,,,,,,,,,,,,,,,,,,,,,,,,,,,,,,,,,,,,,,,,,,,,,,,,,,,,,,,,,,,,,,,,,,,,,,,,,,,,,,,,,,,,,,,,,,,,,,,,,,,,,,,,,,,,,,,,,,,,,,,,,,,,,,,,,,,,,,,,,,,,,,
,,,,,,61688c1020949a931ca5f0ca,62bbfb1b6205431a697012b7,2022-06-29_09h15.13.110,Colour_Asymmetry_Pilot,2022.1.3,Win32,60.0528465,62bbe60bf3d75ef465d3e404,0,104,104,10,1,twoone,,,,,,,,,,,,,,,,,,,,,,,,,,,,,,,,,,,,,,,,,,,,,,,,,,,,,,,,,,,,,,,,,,,,,,,,,,,,,,,,,,,,,,,,,,,,,,,,,,,,,,,,,,,,,,,,,,,,,,,,,,,,,,,,,,,,,,,,,,,,,,,,,,,,,,,,
,,,,,,61688c1020949a931ca5f0ca,62bbfb1b6205431a697012b7,2022-06-29_09h15.13.110,Colour_Asymmetry_Pilot,2022.1.3,Win32,60.0528465,62bbe60bf3d75ef465d3e404,0,105,105,117,1,threefour,,,,,,,,,,,,,,,,,,,,,,,,,,,,,,,,,,,,,,,,,,,,,,,,,,,,,,,,,,,,,,,,,,,,,,,,,,,,,,,,,,,,,,,,,,,,,,,,,,,,,,,,,,,,,,,,,,,,,,,,,,,,,,,,,,,,,,,,,,,,,,,,,,,,,,,,
,,,,,,61688c1020949a931ca5f0ca,62bbfb1b6205431a697012b7,2022-06-29_09h15.13.110,Colour_Asymmetry_Pilot,2022.1.3,Win32,60.0528465,62bbe60bf3d75ef465d3e404,0,106,106,48,1,onetwo,,,,,,,,,,,,,,,,,,,,,,,,,,,,,,,,,,,,,,,,,,,,,,,,,,,,,,,,,,,,,,,,,,,,,,,,,,,,,,,,,,,,,,,,,,,,,,,,,,,,,,,,,,,,,,,,,,,,,,,,,,,,,,,,,,,,,,,,,,,,,,,,,,,,,,,,
,,,,,,61688c1020949a931ca5f0ca,62bbfb1b6205431a697012b7,2022-06-29_09h15.13.110,Colour_Asymmetry_Pilot,2022.1.3,Win32,60.0528465,62bbe60bf3d75ef465d3e404,0,107,107,85,1,threefour,,,,,,,,,,,,,,,,,,,,,,,,,,,,,,,,,,,,,,,,,,,,,,,,,,,,,,,,,,,,,,,,,,,,,,,,,,,,,,,,,,,,,,,,,,,,,,,,,,,,,,,,,,,,,,,,,,,,,,,,,,,,,,,,,,,,,,,,,,,,,,,,,,,,,,,,
,,,,,,61688c1020949a931ca5f0ca,62bbfb1b6205431a697012b7,2022-06-29_09h15.13.110,Colour_Asymmetry_Pilot,2022.1.3,Win32,60.0528465,62bbe60bf3d75ef465d3e404,0,108,108,51,1,twofour,,,,,,,,,,,,,,,,,,,,,,,,,,,,,,,,,,,,,,,,,,,,,,,,,,,,,,,,,,,,,,,,,,,,,,,,,,,,,,,,,,,,,,,,,,,,,,,,,,,,,,,,,,,,,,,,,,,,,,,,,,,,,,,,,,,,,,,,,,,,,,,,,,,,,,,,
,,,,,,61688c1020949a931ca5f0ca,62bbfb1b6205431a697012b7,2022-06-29_09h15.13.110,Colour_Asymmetry_Pilot,2022.1.3,Win32,60.0528465,62bbe60bf3d75ef465d3e404,0,109,109,28,1,threeone,,,,,,,,,,,,,,,,,,,,,,,,,,,,,,,,,,,,,,,,,,,,,,,,,,,,,,,,,,,,,,,,,,,,,,,,,,,,,,,,,,,,,,,,,,,,,,,,,,,,,,,,,,,,,,,,,,,,,,,,,,,,,,,,,,,,,,,,,,,,,,,,,,,,,,,,
,,,,,,61688c1020949a931ca5f0ca,62bbfb1b6205431a697012b7,2022-06-29_09h15.13.110,Colour_Asymmetry_Pilot,2022.1.3,Win32,60.0528465,62bbe60bf3d75ef465d3e404,0,110,110,82,1,twoone,,,,,,,,,,,,,,,,,,,,,,,,,,,,,,,,,,,,,,,,,,,,,,,,,,,,,,,,,,,,,,,,,,,,,,,,,,,,,,,,,,,,,,,,,,,,,,,,,,,,,,,,,,,,,,,,,,,,,,,,,,,,,,,,,,,,,,,,,,,,,,,,,,,,,,,,
,,,,,,61688c1020949a931ca5f0ca,62bbfb1b6205431a697012b7,2022-06-29_09h15.13.110,Colour_Asymmetry_Pilot,2022.1.3,Win32,60.0528465,62bbe60bf3d75ef465d3e404,0,111,111,148,1,threeone,,,,,,,,,,,,,,,,,,,,,,,,,,,,,,,,,,,,,,,,,,,,,,,,,,,,,,,,,,,,,,,,,,,,,,,,,,,,,,,,,,,,,,,,,,,,,,,,,,,,,,,,,,,,,,,,,,,,,,,,,,,,,,,,,,,,,,,,,,,,,,,,,,,,,,,,
,,,,,,61688c1020949a931ca5f0ca,62bbfb1b6205431a697012b7,2022-06-29_09h15.13.110,Colour_Asymmetry_Pilot,2022.1.3,Win32,60.0528465,62bbe60bf3d75ef465d3e404,0,112,112,107,1,twofour,,,,,,,,,,,,,,,,,,,,,,,,,,,,,,,,,,,,,,,,,,,,,,,,,,,,,,,,,,,,,,,,,,,,,,,,,,,,,,,,,,,,,,,,,,,,,,,,,,,,,,,,,,,,,,,,,,,,,,,,,,,,,,,,,,,,,,,,,,,,,,,,,,,,,,,,
,,,,,,61688c1020949a931ca5f0ca,62bbfb1b6205431a697012b7,2022-06-29_09h15.13.110,Colour_Asymmetry_Pilot,2022.1.3,Win32,60.0528465,62bbe60bf3d75ef465d3e404,0,113,113,121,1,onethree,,,,,,,,,,,,,,,,,,,,,,,,,,,,,,,,,,,,,,,,,,,,,,,,,,,,,,,,,,,,,,,,,,,,,,,,,,,,,,,,,,,,,,,,,,,,,,,,,,,,,,,,,,,,,,,,,,,,,,,,,,,,,,,,,,,,,,,,,,,,,,,,,,,,,,,,
,,,,,,61688c1020949a931ca5f0ca,62bbfb1b6205431a697012b7,2022-06-29_09h15.13.110,Colour_Asymmetry_Pilot,2022.1.3,Win32,60.0528465,62bbe60bf3d75ef465d3e404,0,114,114,39,1,fourthree,,,,,,,,,,,,,,,,,,,,,,,,,,,,,,,,,,,,,,,,,,,,,,,,,,,,,,,,,,,,,,,,,,,,,,,,,,,,,,,,,,,,,,,,,,,,,,,,,,,,,,,,,,,,,,,,,,,,,,,,,,,,,,,,,,,,,,,,,,,,,,,,,,,,,,,,
,,,,,,61688c1020949a931ca5f0ca,62bbfb1b6205431a697012b7,2022-06-29_09h15.13.110,Colour_Asymmetry_Pilot,2022.1.3,Win32,60.0528465,62bbe60bf3d75ef465d3e404,0,115,115,129,1,onethree,,,,,,,,,,,,,,,,,,,,,,,,,,,,,,,,,,,,,,,,,,,,,,,,,,,,,,,,,,,,,,,,,,,,,,,,,,,,,,,,,,,,,,,,,,,,,,,,,,,,,,,,,,,,,,,,,,,,,,,,,,,,,,,,,,,,,,,,,,,,,,,,,,,,,,,,
,,,,,,61688c1020949a931ca5f0ca,62bbfb1b6205431a697012b7,2022-06-29_09h15.13.110,Colour_Asymmetry_Pilot,2022.1.3,Win32,60.0528465,62bbe60bf3d75ef465d3e404,0,116,116,98,1,twoone,,,,,,,,,,,,,,,,,,,,,,,,,,,,,,,,,,,,,,,,,,,,,,,,,,,,,,,,,,,,,,,,,,,,,,,,,,,,,,,,,,,,,,,,,,,,,,,,,,,,,,,,,,,,,,,,,,,,,,,,,,,,,,,,,,,,,,,,,,,,,,,,,,,,,,,,
,,,,,,61688c1020949a931ca5f0ca,62bbfb1b6205431a697012b7,2022-06-29_09h15.13.110,Colour_Asymmetry_Pilot,2022.1.3,Win32,60.0528465,62bbe60bf3d75ef465d3e404,0,117,117,11,1,twofour,,,,,,,,,,,,,,,,,,,,,,,,,,,,,,,,,,,,,,,,,,,,,,,,,,,,,,,,,,,,,,,,,,,,,,,,,,,,,,,,,,,,,,,,,,,,,,,,,,,,,,,,,,,,,,,,,,,,,,,,,,,,,,,,,,,,,,,,,,,,,,,,,,,,,,,,
,,,,,,61688c1020949a931ca5f0ca,62bbfb1b6205431a697012b7,2022-06-29_09h15.13.110,Colour_Asymmetry_Pilot,2022.1.3,Win32,60.0528465,62bbe60bf3d75ef465d3e404,0,118,118,6,1,fourtwo,,,,,,,,,,,,,,,,,,,,,,,,,,,,,,,,,,,,,,,,,,,,,,,,,,,,,,,,,,,,,,,,,,,,,,,,,,,,,,,,,,,,,,,,,,,,,,,,,,,,,,,,,,,,,,,,,,,,,,,,,,,,,,,,,,,,,,,,,,,,,,,,,,,,,,,,
,,,,,,61688c1020949a931ca5f0ca,62bbfb1b6205431a697012b7,2022-06-29_09h15.13.110,Colour_Asymmetry_Pilot,2022.1.3,Win32,60.0528465,62bbe60bf3d75ef465d3e404,0,119,119,152,1,onetwo,,,,,,,,,,,,,,,,,,,,,,,,,,,,,,,,,,,,,,,,,,,,,,,,,,,,,,,,,,,,,,,,,,,,,,,,,,,,,,,,,,,,,,,,,,,,,,,,,,,,,,,,,,,,,,,,,,,,,,,,,,,,,,,,,,,,,,,,,,,,,,,,,,,,,,,,
,,,,,,61688c1020949a931ca5f0ca,62bbfb1b6205431a697012b7,2022-06-29_09h15.13.110,Colour_Asymmetry_Pilot,2022.1.3,Win32,60.0528465,62bbe60bf3d75ef465d3e404,0,120,120,34,1,twoone,,,,,,,,,,,,,,,,,,,,,,,,,,,,,,,,,,,,,,,,,,,,,,,,,,,,,,,,,,,,,,,,,,,,,,,,,,,,,,,,,,,,,,,,,,,,,,,,,,,,,,,,,,,,,,,,,,,,,,,,,,,,,,,,,,,,,,,,,,,,,,,,,,,,,,,,
,,,,,,61688c1020949a931ca5f0ca,62bbfb1b6205431a697012b7,2022-06-29_09h15.13.110,Colour_Asymmetry_Pilot,2022.1.3,Win32,60.0528465,62bbe60bf3d75ef465d3e404,0,121,121,91,1,twofour,,,,,,,,,,,,,,,,,,,,,,,,,,,,,,,,,,,,,,,,,,,,,,,,,,,,,,,,,,,,,,,,,,,,,,,,,,,,,,,,,,,,,,,,,,,,,,,,,,,,,,,,,,,,,,,,,,,,,,,,,,,,,,,,,,,,,,,,,,,,,,,,,,,,,,,,
,,,,,,61688c1020949a931ca5f0ca,62bbfb1b6205431a697012b7,2022-06-29_09h15.13.110,Colour_Asymmetry_Pilot,2022.1.3,Win32,60.0528465,62bbe60bf3d75ef465d3e404,0,122,122,44,1,threeone,,,,,,,,,,,,,,,,,,,,,,,,,,,,,,,,,,,,,,,,,,,,,,,,,,,,,,,,,,,,,,,,,,,,,,,,,,,,,,,,,,,,,,,,,,,,,,,,,,,,,,,,,,,,,,,,,,,,,,,,,,,,,,,,,,,,,,,,,,,,,,,,,,,,,,,,
,,,,,,61688c1020949a931ca5f0ca,62bbfb1b6205431a697012b7,2022-06-29_09h15.13.110,Colour_Asymmetry_Pilot,2022.1.3,Win32,60.0528465,62bbe60bf3d75ef465d3e404,0,123,123,147,1,twofour,,,,,,,,,,,,,,,,,,,,,,,,,,,,,,,,,,,,,,,,,,,,,,,,,,,,,,,,,,,,,,,,,,,,,,,,,,,,,,,,,,,,,,,,,,,,,,,,,,,,,,,,,,,,,,,,,,,,,,,,,,,,,,,,,,,,,,,,,,,,,,,,,,,,,,,,
,,,,,,61688c1020949a931ca5f0ca,62bbfb1b6205431a697012b7,2022-06-29_09h15.13.110,Colour_Asymmetry_Pilot,2022.1.3,Win32,60.0528465,62bbe60bf3d75ef465d3e404,0,124,124,41,1,onethree,,,,,,,,,,,,,,,,,,,,,,,,,,,,,,,,,,,,,,,,,,,,,,,,,,,,,,,,,,,,,,,,,,,,,,,,,,,,,,,,,,,,,,,,,,,,,,,,,,,,,,,,,,,,,,,,,,,,,,,,,,,,,,,,,,,,,,,,,,,,,,,,,,,,,,,,
,,,,,,61688c1020949a931ca5f0ca,62bbfb1b6205431a697012b7,2022-06-29_09h15.13.110,Colour_Asymmetry_Pilot,2022.1.3,Win32,60.0528465,62bbe60bf3d75ef465d3e404,0,125,125,146,1,twoone,,,,,,,,,,,,,,,,,,,,,,,,,,,,,,,,,,,,,,,,,,,,,,,,,,,,,,,,,,,,,,,,,,,,,,,,,,,,,,,,,,,,,,,,,,,,,,,,,,,,,,,,,,,,,,,,,,,,,,,,,,,,,,,,,,,,,,,,,,,,,,,,,,,,,,,,
,,,,,,61688c1020949a931ca5f0ca,62bbfb1b6205431a697012b7,2022-06-29_09h15.13.110,Colour_Asymmetry_Pilot,2022.1.3,Win32,60.0528465,62bbe60bf3d75ef465d3e404,0,126,126,80,1,onetwo,,,,,,,,,,,,,,,,,,,,,,,,,,,,,,,,,,,,,,,,,,,,,,,,,,,,,,,,,,,,,,,,,,,,,,,,,,,,,,,,,,,,,,,,,,,,,,,,,,,,,,,,,,,,,,,,,,,,,,,,,,,,,,,,,,,,,,,,,,,,,,,,,,,,,,,,
,,,,,,61688c1020949a931ca5f0ca,62bbfb1b6205431a697012b7,2022-06-29_09h15.13.110,Colour_Asymmetry_Pilot,2022.1.3,Win32,60.0528465,62bbe60bf3d75ef465d3e404,0,127,127,138,1,twoone,,,,,,,,,,,,,,,,,,,,,,,,,,,,,,,,,,,,,,,,,,,,,,,,,,,,,,,,,,,,,,,,,,,,,,,,,,,,,,,,,,,,,,,,,,,,,,,,,,,,,,,,,,,,,,,,,,,,,,,,,,,,,,,,,,,,,,,,,,,,,,,,,,,,,,,,
,,,,,,61688c1020949a931ca5f0ca,62bbfb1b6205431a697012b7,2022-06-29_09h15.13.110,Colour_Asymmetry_Pilot,2022.1.3,Win32,60.0528465,62bbe60bf3d75ef465d3e404,0,128,128,14,1,fourtwo,,,,,,,,,,,,,,,,,,,,,,,,,,,,,,,,,,,,,,,,,,,,,,,,,,,,,,,,,,,,,,,,,,,,,,,,,,,,,,,,,,,,,,,,,,,,,,,,,,,,,,,,,,,,,,,,,,,,,,,,,,,,,,,,,,,,,,,,,,,,,,,,,,,,,,,,
,,,,,,61688c1020949a931ca5f0ca,62bbfb1b6205431a697012b7,2022-06-29_09h15.13.110,Colour_Asymmetry_Pilot,2022.1.3,Win32,60.0528465,62bbe60bf3d75ef465d3e404,0,129,129,56,1,onetwo,,,,,,,,,,,,,,,,,,,,,,,,,,,,,,,,,,,,,,,,,,,,,,,,,,,,,,,,,,,,,,,,,,,,,,,,,,,,,,,,,,,,,,,,,,,,,,,,,,,,,,,,,,,,,,,,,,,,,,,,,,,,,,,,,,,,,,,,,,,,,,,,,,,,,,,,
,,,,,,61688c1020949a931ca5f0ca,62bbfb1b6205431a697012b7,2022-06-29_09h15.13.110,Colour_Asymmetry_Pilot,2022.1.3,Win32,60.0528465,62bbe60bf3d75ef465d3e404,0,130,130,55,1,fourthree,,,,,,,,,,,,,,,,,,,,,,,,,,,,,,,,,,,,,,,,,,,,,,,,,,,,,,,,,,,,,,,,,,,,,,,,,,,,,,,,,,,,,,,,,,,,,,,,,,,,,,,,,,,,,,,,,,,,,,,,,,,,,,,,,,,,,,,,,,,,,,,,,,,,,,,,
,,,,,,61688c1020949a931ca5f0ca,62bbfb1b6205431a697012b7,2022-06-29_09h15.13.110,Colour_Asymmetry_Pilot,2022.1.3,Win32,60.0528465,62bbe60bf3d75ef465d3e404,0,131,131,26,1,twoone,,,,,,,,,,,,,,,,,,,,,,,,,,,,,,,,,,,,,,,,,,,,,,,,,,,,,,,,,,,,,,,,,,,,,,,,,,,,,,,,,,,,,,,,,,,,,,,,,,,,,,,,,,,,,,,,,,,,,,,,,,,,,,,,,,,,,,,,,,,,,,,,,,,,,,,,
,,,,,,61688c1020949a931ca5f0ca,62bbfb1b6205431a697012b7,2022-06-29_09h15.13.110,Colour_Asymmetry_Pilot,2022.1.3,Win32,60.0528465,62bbe60bf3d75ef465d3e404,0,132,132,105,1,onethree,,,,,,,,,,,,,,,,,,,,,,,,,,,,,,,,,,,,,,,,,,,,,,,,,,,,,,,,,,,,,,,,,,,,,,,,,,,,,,,,,,,,,,,,,,,,,,,,,,,,,,,,,,,,,,,,,,,,,,,,,,,,,,,,,,,,,,,,,,,,,,,,,,,,,,,,
,,,,,,61688c1020949a931ca5f0ca,62bbfb1b6205431a697012b7,2022-06-29_09h15.13.110,Colour_Asymmetry_Pilot,2022.1.3,Win32,60.0528465,62bbe60bf3d75ef465d3e404,0,133,133,116,1,threeone,,,,,,,,,,,,,,,,,,,,,,,,,,,,,,,,,,,,,,,,,,,,,,,,,,,,,,,,,,,,,,,,,,,,,,,,,,,,,,,,,,,,,,,,,,,,,,,,,,,,,,,,,,,,,,,,,,,,,,,,,,,,,,,,,,,,,,,,,,,,,,,,,,,,,,,,
,,,,,,61688c1020949a931ca5f0ca,62bbfb1b6205431a697012b7,2022-06-29_09h15.13.110,Colour_Asymmetry_Pilot,2022.1.3,Win32,60.0528465,62bbe60bf3d75ef465d3e404,0,134,134,102,1,fourtwo,,,,,,,,,,,,,,,,,,,,,,,,,,,,,,,,,,,,,,,,,,,,,,,,,,,,,,,,,,,,,,,,,,,,,,,,,,,,,,,,,,,,,,,,,,,,,,,,,,,,,,,,,,,,,,,,,,,,,,,,,,,,,,,,,,,,,,,,,,,,,,,,,,,,,,,,
,,,,,,61688c1020949a931ca5f0ca,62bbfb1b6205431a697012b7,2022-06-29_09h15.13.110,Colour_Asymmetry_Pilot,2022.1.3,Win32,60.0528465,62bbe60bf3d75ef465d3e404,0,135,135,4,1,threeone,,,,,,,,,,,,,,,,,,,,,,,,,,,,,,,,,,,,,,,,,,,,,,,,,,,,,,,,,,,,,,,,,,,,,,,,,,,,,,,,,,,,,,,,,,,,,,,,,,,,,,,,,,,,,,,,,,,,,,,,,,,,,,,,,,,,,,,,,,,,,,,,,,,,,,,,
,,,,,,61688c1020949a931ca5f0ca,62bbfb1b6205431a697012b7,2022-06-29_09h15.13.110,Colour_Asymmetry_Pilot,2022.1.3,Win32,60.0528465,62bbe60bf3d75ef465d3e404,0,136,136,141,1,threefour,,,,,,,,,,,,,,,,,,,,,,,,,,,,,,,,,,,,,,,,,,,,,,,,,,,,,,,,,,,,,,,,,,,,,,,,,,,,,,,,,,,,,,,,,,,,,,,,,,,,,,,,,,,,,,,,,,,,,,,,,,,,,,,,,,,,,,,,,,,,,,,,,,,,,,,,
,,,,,,61688c1020949a931ca5f0ca,62bbfb1b6205431a697012b7,2022-06-29_09h15.13.110,Colour_Asymmetry_Pilot,2022.1.3,Win32,60.0528465,62bbe60bf3d75ef465d3e404,0,137,137,32,1,onetwo,,,,,,,,,,,,,,,,,,,,,,,,,,,,,,,,,,,,,,,,,,,,,,,,,,,,,,,,,,,,,,,,,,,,,,,,,,,,,,,,,,,,,,,,,,,,,,,,,,,,,,,,,,,,,,,,,,,,,,,,,,,,,,,,,,,,,,,,,,,,,,,,,,,,,,,,
,,,,,,61688c1020949a931ca5f0ca,62bbfb1b6205431a697012b7,2022-06-29_09h15.13.110,Colour_Asymmetry_Pilot,2022.1.3,Win32,60.0528465,62bbe60bf3d75ef465d3e404,0,138,138,140,1,threeone,,,,,,,,,,,,,,,,,,,,,,,,,,,,,,,,,,,,,,,,,,,,,,,,,,,,,,,,,,,,,,,,,,,,,,,,,,,,,,,,,,,,,,,,,,,,,,,,,,,,,,,,,,,,,,,,,,,,,,,,,,,,,,,,,,,,,,,,,,,,,,,,,,,,,,,,
,,,,,,61688c1020949a931ca5f0ca,62bbfb1b6205431a697012b7,2022-06-29_09h15.13.110,Colour_Asymmetry_Pilot,2022.1.3,Win32,60.0528465,62bbe60bf3d75ef465d3e404,0,139,139,77,1,threefour,,,,,,,,,,,,,,,,,,,,,,,,,,,,,,,,,,,,,,,,,,,,,,,,,,,,,,,,,,,,,,,,,,,,,,,,,,,,,,,,,,,,,,,,,,,,,,,,,,,,,,,,,,,,,,,,,,,,,,,,,,,,,,,,,,,,,,,,,,,,,,,,,,,,,,,,
,,,,,,61688c1020949a931ca5f0ca,62bbfb1b6205431a697012b7,2022-06-29_09h15.13.110,Colour_Asymmetry_Pilot,2022.1.3,Win32,60.0528465,62bbe60bf3d75ef465d3e404,0,140,140,137,1,onethree,,,,,,,,,,,,,,,,,,,,,,,,,,,,,,,,,,,,,,,,,,,,,,,,,,,,,,,,,,,,,,,,,,,,,,,,,,,,,,,,,,,,,,,,,,,,,,,,,,,,,,,,,,,,,,,,,,,,,,,,,,,,,,,,,,,,,,,,,,,,,,,,,,,,,,,,
,,,,,,61688c1020949a931ca5f0ca,62bbfb1b6205431a697012b7,2022-06-29_09h15.13.110,Colour_Asymmetry_Pilot,2022.1.3,Win32,60.0528465,62bbe60bf3d75ef465d3e404,0,141,141,63,1,fourthree,,,,,,,,,,,,,,,,,,,,,,,,,,,,,,,,,,,,,,,,,,,,,,,,,,,,,,,,,,,,,,,,,,,,,,,,,,,,,,,,,,,,,,,,,,,,,,,,,,,,,,,,,,,,,,,,,,,,,,,,,,,,,,,,,,,,,,,,,,,,,,,,,,,,,,,,
,,,,,,61688c1020949a931ca5f0ca,62bbfb1b6205431a697012b7,2022-06-29_09h15.13.110,Colour_Asymmetry_Pilot,2022.1.3,Win32,60.0528465,62bbe60bf3d75ef465d3e404,0,142,142,15,1,fourthree,,,,,,,,,,,,,,,,,,,,,,,,,,,,,,,,,,,,,,,,,,,,,,,,,,,,,,,,,,,,,,,,,,,,,,,,,,,,,,,,,,,,,,,,,,,,,,,,,,,,,,,,,,,,,,,,,,,,,,,,,,,,,,,,,,,,,,,,,,,,,,,,,,,,,,,,
,,,,,,61688c1020949a931ca5f0ca,62bbfb1b6205431a697012b7,2022-06-29_09h15.13.110,Colour_Asymmetry_Pilot,2022.1.3,Win32,60.0528465,62bbe60bf3d75ef465d3e404,0,143,143,156,1,threeone,,,,,,,,,,,,,,,,,,,,,,,,,,,,,,,,,,,,,,,,,,,,,,,,,,,,,,,,,,,,,,,,,,,,,,,,,,,,,,,,,,,,,,,,,,,,,,,,,,,,,,,,,,,,,,,,,,,,,,,,,,,,,,,,,,,,,,,,,,,,,,,,,,,,,,,,
,,,,,,61688c1020949a931ca5f0ca,62bbfb1b6205431a697012b7,2022-06-29_09h15.13.110,Colour_Asymmetry_Pilot,2022.1.3,Win32,60.0528465,62bbe60bf3d75ef465d3e404,0,144,144,86,1,fourtwo,,,,,,,,,,,,,,,,,,,,,,,,,,,,,,,,,,,,,,,,,,,,,,,,,,,,,,,,,,,,,,,,,,,,,,,,,,,,,,,,,,,,,,,,,,,,,,,,,,,,,,,,,,,,,,,,,,,,,,,,,,,,,,,,,,,,,,,,,,,,,,,,,,,,,,,,
,,,,,,61688c1020949a931ca5f0ca,62bbfb1b6205431a697012b7,2022-06-29_09h15.13.110,Colour_Asymmetry_Pilot,2022.1.3,Win32,60.0528465,62bbe60bf3d75ef465d3e404,0,145,145,29,1,threefour,,,,,,,,,,,,,,,,,,,,,,,,,,,,,,,,,,,,,,,,,,,,,,,,,,,,,,,,,,,,,,,,,,,,,,,,,,,,,,,,,,,,,,,,,,,,,,,,,,,,,,,,,,,,,,,,,,,,,,,,,,,,,,,,,,,,,,,,,,,,,,,,,,,,,,,,
,,,,,,61688c1020949a931ca5f0ca,62bbfb1b6205431a697012b7,2022-06-29_09h15.13.110,Colour_Asymmetry_Pilot,2022.1.3,Win32,60.0528465,62bbe60bf3d75ef465d3e404,0,146,146,153,1,onethree,,,,,,,,,,,,,,,,,,,,,,,,,,,,,,,,,,,,,,,,,,,,,,,,,,,,,,,,,,,,,,,,,,,,,,,,,,,,,,,,,,,,,,,,,,,,,,,,,,,,,,,,,,,,,,,,,,,,,,,,,,,,,,,,,,,,,,,,,,,,,,,,,,,,,,,,
,,,,,,61688c1020949a931ca5f0ca,62bbfb1b6205431a697012b7,2022-06-29_09h15.13.110,Colour_Asymmetry_Pilot,2022.1.3,Win32,60.0528465,62bbe60bf3d75ef465d3e404,0,147,147,61,1,threefour,,,,,,,,,,,,,,,,,,,,,,,,,,,,,,,,,,,,,,,,,,,,,,,,,,,,,,,,,,,,,,,,,,,,,,,,,,,,,,,,,,,,,,,,,,,,,,,,,,,,,,,,,,,,,,,,,,,,,,,,,,,,,,,,,,,,,,,,,,,,,,,,,,,,,,,,
,,,,,,61688c1020949a931ca5f0ca,62bbfb1b6205431a697012b7,2022-06-29_09h15.13.110,Colour_Asymmetry_Pilot,2022.1.3,Win32,60.0528465,62bbe60bf3d75ef465d3e404,0,148,148,110,1,fourtwo,,,,,,,,,,,,,,,,,,,,,,,,,,,,,,,,,,,,,,,,,,,,,,,,,,,,,,,,,,,,,,,,,,,,,,,,,,,,,,,,,,,,,,,,,,,,,,,,,,,,,,,,,,,,,,,,,,,,,,,,,,,,,,,,,,,,,,,,,,,,,,,,,,,,,,,,
,,,,,,61688c1020949a931ca5f0ca,62bbfb1b6205431a697012b7,2022-06-29_09h15.13.110,Colour_Asymmetry_Pilot,2022.1.3,Win32,60.0528465,62bbe60bf3d75ef465d3e404,0,149,149,92,1,threeone,,,,,,,,,,,,,,,,,,,,,,,,,,,,,,,,,,,,,,,,,,,,,,,,,,,,,,,,,,,,,,,,,,,,,,,,,,,,,,,,,,,,,,,,,,,,,,,,,,,,,,,,,,,,,,,,,,,,,,,,,,,,,,,,,,,,,,,,,,,,,,,,,,,,,,,,
,,,,,,61688c1020949a931ca5f0ca,62bbfb1b6205431a697012b7,2022-06-29_09h15.13.110,Colour_Asymmetry_Pilot,2022.1.3,Win32,60.0528465,62bbe60bf3d75ef465d3e404,0,150,150,2,1,twoone,,,,,,,,,,,,,,,,,,,,,,,,,,,,,,,,,,,,,,,,,,,,,,,,,,,,,,,,,,,,,,,,,,,,,,,,,,,,,,,,,,,,,,,,,,,,,,,,,,,,,,,,,,,,,,,,,,,,,,,,,,,,,,,,,,,,,,,,,,,,,,,,,,,,,,,,
,,,,,,61688c1020949a931ca5f0ca,62bbfb1b6205431a697012b7,2022-06-29_09h15.13.110,Colour_Asymmetry_Pilot,2022.1.3,Win32,60.0528465,62bbe60bf3d75ef465d3e404,0,151,151,60,1,threeone,,,,,,,,,,,,,,,,,,,,,,,,,,,,,,,,,,,,,,,,,,,,,,,,,,,,,,,,,,,,,,,,,,,,,,,,,,,,,,,,,,,,,,,,,,,,,,,,,,,,,,,,,,,,,,,,,,,,,,,,,,,,,,,,,,,,,,,,,,,,,,,,,,,,,,,,
,,,,,,61688c1020949a931ca5f0ca,62bbfb1b6205431a697012b7,2022-06-29_09h15.13.110,Colour_Asymmetry_Pilot,2022.1.3,Win32,60.0528465,62bbe60bf3d75ef465d3e404,0,152,152,31,1,fourthree,,,,,,,,,,,,,,,,,,,,,,,,,,,,,,,,,,,,,,,,,,,,,,,,,,,,,,,,,,,,,,,,,,,,,,,,,,,,,,,,,,,,,,,,,,,,,,,,,,,,,,,,,,,,,,,,,,,,,,,,,,,,,,,,,,,,,,,,,,,,,,,,,,,,,,,,
,,,,,,61688c1020949a931ca5f0ca,62bbfb1b6205431a697012b7,2022-06-29_09h15.13.110,Colour_Asymmetry_Pilot,2022.1.3,Win32,60.0528465,62bbe60bf3d75ef465d3e404,0,153,153,69,1,threefour,,,,,,,,,,,,,,,,,,,,,,,,,,,,,,,,,,,,,,,,,,,,,,,,,,,,,,,,,,,,,,,,,,,,,,,,,,,,,,,,,,,,,,,,,,,,,,,,,,,,,,,,,,,,,,,,,,,,,,,,,,,,,,,,,,,,,,,,,,,,,,,,,,,,,,,,
,,,,,,61688c1020949a931ca5f0ca,62bbfb1b6205431a697012b7,2022-06-29_09h15.13.110,Colour_Asymmetry_Pilot,2022.1.3,Win32,60.0528465,62bbe60bf3d75ef465d3e404,0,154,154,66,1,twoone,,,,,,,,,,,,,,,,,,,,,,,,,,,,,,,,,,,,,,,,,,,,,,,,,,,,,,,,,,,,,,,,,,,,,,,,,,,,,,,,,,,,,,,,,,,,,,,,,,,,,,,,,,,,,,,,,,,,,,,,,,,,,,,,,,,,,,,,,,,,,,,,,,,,,,,,
,,,,,,61688c1020949a931ca5f0ca,62bbfb1b6205431a697012b7,2022-06-29_09h15.13.110,Colour_Asymmetry_Pilot,2022.1.3,Win32,60.0528465,62bbe60bf3d75ef465d3e404,0,155,155,90,1,twoone,,,,,,,,,,,,,,,,,,,,,,,,,,,,,,,,,,,,,,,,,,,,,,,,,,,,,,,,,,,,,,,,,,,,,,,,,,,,,,,,,,,,,,,,,,,,,,,,,,,,,,,,,,,,,,,,,,,,,,,,,,,,,,,,,,,,,,,,,,,,,,,,,,,,,,,,
,,,,,,61688c1020949a931ca5f0ca,62bbfb1b6205431a697012b7,2022-06-29_09h15.13.110,Colour_Asymmetry_Pilot,2022.1.3,Win32,60.0528465,62bbe60bf3d75ef465d3e404,0,156,156,95,1,fourthree,,,,,,,,,,,,,,,,,,,,,,,,,,,,,,,,,,,,,,,,,,,,,,,,,,,,,,,,,,,,,,,,,,,,,,,,,,,,,,,,,,,,,,,,,,,,,,,,,,,,,,,,,,,,,,,,,,,,,,,,,,,,,,,,,,,,,,,,,,,,,,,,,,,,,,,,
,,,,,,61688c1020949a931ca5f0ca,62bbfb1b6205431a697012b7,2022-06-29_09h15.13.110,Colour_Asymmetry_Pilot,2022.1.3,Win32,60.0528465,62bbe60bf3d75ef465d3e404,0,157,157,112,1,onetwo,,,,,,,,,,,,,,,,,,,,,,,,,,,,,,,,,,,,,,,,,,,,,,,,,,,,,,,,,,,,,,,,,,,,,,,,,,,,,,,,,,,,,,,,,,,,,,,,,,,,,,,,,,,,,,,,,,,,,,,,,,,,,,,,,,,,,,,,,,,,,,,,,,,,,,,,
,,,,,,61688c1020949a931ca5f0ca,62bbfb1b6205431a697012b7,2022-06-29_09h15.13.110,Colour_Asymmetry_Pilot,2022.1.3,Win32,60.0528465,62bbe60bf3d75ef465d3e404,0,158,158,58,1,twoone,,,,,,,,,,,,,,,,,,,,,,,,,,,,,,,,,,,,,,,,,,,,,,,,,,,,,,,,,,,,,,,,,,,,,,,,,,,,,,,,,,,,,,,,,,,,,,,,,,,,,,,,,,,,,,,,,,,,,,,,,,,,,,,,,,,,,,,,,,,,,,,,,,,,,,,,
,,,,,,61688c1020949a931ca5f0ca,62bbfb1b6205431a697012b7,2022-06-29_09h15.13.110,Colour_Asymmetry_Pilot,2022.1.3,Win32,60.0528465,62bbe60bf3d75ef465d3e404,0,159,159,136,1,onetwo,,,,,,,,,,,,,,,,,,,,,,,,,,,,,,,,,,,,,,,,,,,,,,,,,,,,,,,,,,,,,,,,,,,,,,,,,,,,,,,,,,,,,,,,,,,,,,,,,,,,,,,,,,,,,,,,,,,,,,,,,,,,,,,,,,,,,,,,,,,,,,,,,,,,,,,,
,,,,,,61688c1020949a931ca5f0ca,62bbfb1b6205431a697012b7,2022-06-29_09h15.13.110,Colour_Asymmetry_Pilot,2022.1.3,Win32,60.0528465,62bbe60bf3d75ef465d3e404,0,160,160,87,1,fourthree,,,,,,,,,,,,,,,,,,,,,,,,,,,,,,,,,,,,,,,,,,,,,,,,,,,,,,,,,,,,,,,,,,,,,,,,,,,,,,,,,,,,,,,,,,,,,,,,,,,,,,,,,,,,,,,,,,,,,,,,,,,,,,,,,,,,,,,,,,,,,,,,,,,,,,,,
,,,,,,61688c1020949a931ca5f0ca,62bbfb1b6205431a697012b7,2022-06-29_09h15.13.110,Colour_Asymmetry_Pilot,2022.1.3,Win32,60.0528465,62bbe60bf3d75ef465d3e404,0,161,161,88,1,onetwo,,,,,,,,,,,,,,,,,,,,,,,,,,,,,,,,,,,,,,,,,,,,,,,,,,,,,,,,,,,,,,,,,,,,,,,,,,,,,,,,,,,,,,,,,,,,,,,,,,,,,,,,,,,,,,,,,,,,,,,,,,,,,,,,,,,,,,,,,,,,,,,,,,,,,,,,
,,,,,,61688c1020949a931ca5f0ca,62bbfb1b6205431a697012b7,2022-06-29_09h15.13.110,Colour_Asymmetry_Pilot,2022.1.3,Win32,60.0528465,62bbe60bf3d75ef465d3e404,,,,,,,space,14.8033,space,15.5583,space,37.417,space,17.0696,space,2.8493,space,17.016,"[0.37240000000000006,-0.050999999999999934,-0.5216]",twoone,"[0.9686000000000001,0.5763999999999998,0.11359999999999992]",4,17.6813,42.40002441,95.19998169,1,0,0,response1disk_5,-15.20001221,0,1,0,0,rectangle_8,-15.20001221,0,1,0,0,4,-15.20001221,0,1,0,0,0,0,0,0,1,,,,,,,,,,,,,,,,,,,,,,,,,,,,,,,,,,,,,,,,,,,,,,,,,,,,,,,,,,,,,,,,,,,,,,,,,,,,,,,,,,,,,,,,,,,,,,,,,,,,,,,,,,,
,,,,,,61688c1020949a931ca5f0ca,62bbfb1b6205431a697012b7,2022-06-29_09h15.13.110,Colour_Asymmetry_Pilot,2022.1.3,Win32,60.0528465,62bbe60bf3d75ef465d3e404,,,,,,,,,,,,,,,,,,,"[-0.48240000000000005,0.3175999999999999,0.2156]",fourthree,"[0.9686000000000001,0.3802000000000001,0.19999999999999996]",-4,2.8562,-55.20001221,104,1,0,0,response7disk_5,-8,3.199981689,1,0,0,rectangle_8,-8,3.199981689,1,0,0,4,-8,3.199981689,1,0,0,1,0,1,0,1,,,,,,,,,,,,,,,,,,,,,,,,,,,,,,,,,,,,,,,,,,,,,,,,,,,,,,,,,,,,,,,,,,,,,,,,,,,,,,,,,,,,,,,,,,,,,,,,,,,,,,,,,,,
,,,,,,61688c1020949a931ca5f0ca,62bbfb1b6205431a697012b7,2022-06-29_09h15.13.110,Colour_Asymmetry_Pilot,2022.1.3,Win32,60.0528465,62bbe60bf3d75ef465d3e404,,,,,,,,,,,,,,,,,,,"[-0.6942,-0.7648,-0.12959999999999994]",fourthree,"[0.7018,0.7802,-0.16079999999999994]",-4,2.082,-54.39996338,91.19998169,1,0,0,response7disk_5,-2.399963379,-6.400024414,1,0,0,rectangle_8,-2.399963379,-6.400024414,1,0,0,4,-2.399963379,-6.400024414,1,0,0,2,0,2,0,1,,,,,,,,,,,,,,,,,,,,,,,,,,,,,,,,,,,,,,,,,,,,,,,,,,,,,,,,,,,,,,,,,,,,,,,,,,,,,,,,,,,,,,,,,,,,,,,,,,,,,,,,,,,
,,,,,,61688c1020949a931ca5f0ca,62bbfb1b6205431a697012b7,2022-06-29_09h15.13.110,Colour_Asymmetry_Pilot,2022.1.3,Win32,60.0528465,62bbe60bf3d75ef465d3e404,,,,,,,,,,,,,,,,,,,"[-0.24719999999999998,0.5213999999999999,-0.12959999999999994]",fourthree,"[-0.34920000000000007,-0.702,-0.5216]",-4,2.1872,-38.39996338,93.59997559,1,0,0,response7disk_5,-6.399963379,-1.600006104,1,0,0,rectangle_8,-6.399963379,-1.600006104,1,0,0,4,-6.399963379,-1.600006104,1,0,0,3,0,3,0,1,,,,,,,,,,,,,,,,,,,,,,,,,,,,,,,,,,,,,,,,,,,,,,,,,,,,,,,,,,,,,,,,,,,,,,,,,,,,,,,,,,,,,,,,,,,,,,,,,,,,,,,,,,,
,,,,,,61688c1020949a931ca5f0ca,62bbfb1b6205431a697012b7,2022-06-29_09h15.13.110,Colour_Asymmetry_Pilot,2022.1.3,Win32,60.0528465,62bbe60bf3d75ef465d3e404,,,,,,,,,,,,,,,,,,,"[-0.38039999999999996,-0.4276,-0.1452]",onethree,"[-0.6,0.16860000000000008,0.44300000000000006]",-4,2.6939,-56.79998779,108,1,0,0,response7disk_5,-2.399963379,-8,1,0,0,rectangle_8,-2.399963379,-8,1,0,0,4,-2.399963379,-8,1,0,0,4,0,4,0,1,,,,,,,,,,,,,,,,,,,,,,,,,,,,,,,,,,,,,,,,,,,,,,,,,,,,,,,,,,,,,,,,,,,,,,,,,,,,,,,,,,,,,,,,,,,,,,,,,,,,,,,,,,,
,,,,,,61688c1020949a931ca5f0ca,62bbfb1b6205431a697012b7,2022-06-29_09h15.13.110,Colour_Asymmetry_Pilot,2022.1.3,Win32,60.0528465,62bbe60bf3d75ef465d3e404,,,,,,,,,,,,,,,,,,,"[0.37240000000000006,-0.050999999999999934,-0.5216]",onethree,"[-0.9844,-0.9688,-0.9922]",4,2.4656,47.20001221,84,1,0,0,response1disk_5,-0.799987793,4.799987793,1,0,0,rectangle_8,43.20001221,93.59997559,1,0,0,4,-21.59997559,-4,1,0,0,5,0,5,0,1,response1disk_7,7,rectangle_4,,,,,,,,,,,,,,,,,,,,,,,,,,,,,,,,,,,,,,,,,,,,,,,,,,,,,,,,,,,,,,,,,,,,,,,,,,,,,,,,,,,,,,,,,,,,,,,,,,,,,,,,
,,,,,,61688c1020949a931ca5f0ca,62bbfb1b6205431a697012b7,2022-06-29_09h15.13.110,Colour_Asymmetry_Pilot,2022.1.3,Win32,60.0528465,62bbe60bf3d75ef465d3e404,,,,,,,,,,,,,,,,,,,"[-0.011800000000000033,-0.906,-0.45100000000000007]",twoone,"[-0.8982,-0.37259999999999993,0.2784]",-4,2.1326,-49.59997559,111.1999969,1,0,0,response7disk_5,-8.799987793,-1.600006104,1,0,0,rectangle_8,-8.799987793,-1.600006104,1,0,0,4,-8.799987793,-1.600006104,1,0,0,6,0,6,0,1,,,,,,,,,,,,,,,,,,,,,,,,,,,,,,,,,,,,,,,,,,,,,,,,,,,,,,,,,,,,,,,,,,,,,,,,,,,,,,,,,,,,,,,,,,,,,,,,,,,,,,,,,,,
,,,,,,61688c1020949a931ca5f0ca,62bbfb1b6205431a697012b7,2022-06-29_09h15.13.110,Colour_Asymmetry_Pilot,2022.1.3,Win32,60.0528465,62bbe60bf3d75ef465d3e404,,,,,,,,,,,,,,,,,,,,fourthree,,4,2.2134,,,,,,,,,,,,,,,,,,,,,,,,,,,,,,,,space,6.6769,"[-0.8982,-0.37259999999999993,0.2784]","[-0.6706000000000001,-0.6157999999999999,-0.6786]",44.79998779,96.79998779,1,0,0,response1disk,0.799987793,-2.400024414,1,0,0,rectangle,0.799987793,-2.400024414,1,0,0,,1,0.0047,0,0.799987793,-2.400024414,1,0,0,0,0,0,121,1,40,second,,,,,,,,,,,,,,,,,,,,,,,,,,,,,,,,,,,,,,,,,,,,,,,,,,,,,,,,,,,,,,,,,,,
,,,,,,61688c1020949a931ca5f0ca,62bbfb1b6205431a697012b7,2022-06-29_09h15.13.110,Colour_Asymmetry_Pilot,2022.1.3,Win32,60.0528465,62bbe60bf3d75ef465d3e404,,,,,,,,,,,,,,,,,,,,fourtwo,,-4,1.0048,,,,,,,,,,,,,,,,,,,,,,,,,,,,,,,,,,"[-0.30200000000000005,0.14500000000000002,0.2784]","[-0.8198,-0.5138,-0.7492000000000001]",-44.79998779,99.19998169,1,0,0,response7disk,-4,-4.800018311,1,0,0,rectangle,-4,-4.800018311,1,0,0,,2,0.0032,0,-4,-4.800018311,1,0,0,0,1,1,152,1,71,second,,,,,,,,,,,,,,,,,,,,,,,,,,,,,,,,,,,,,,,,,,,,,,,,,,,,,,,,,,,,,,,,,,,
,,,,,,61688c1020949a931ca5f0ca,62bbfb1b6205431a697012b7,2022-06-29_09h15.13.110,Colour_Asymmetry_Pilot,2022.1.3,Win32,60.0528465,62bbe60bf3d75ef465d3e404,,,,,,,,,,,,,,,,,,,,threeone,,4,0.8754,,,,,,,,,,,,,,,,,,,,,,,,,,,,,,,,,,"[0.5449999999999999,-0.31000000000000005,-0.0354000000000001]","[-0.20799999999999996,-0.655,-0.01980000000000004]",31.20001221,80,1,0,0,response1disk,-5.599975586,0,1,0,0,rectangle,-5.599975586,0,1,0,0,,1,0.0021,0,-5.599975586,0,1,0,0,0,2,2,100,1,19,second,,,,,,,,,,,,,,,,,,,,,,,,,,,,,,,,,,,,,,,,,,,,,,,,,,,,,,,,,,,,,,,,,,,
,,,,,,61688c1020949a931ca5f0ca,62bbfb1b6205431a697012b7,2022-06-29_09h15.13.110,Colour_Asymmetry_Pilot,2022.1.3,Win32,60.0528465,62bbe60bf3d75ef465d3e404,,,,,,,,,,,,,,,,,,,,twofour,,4,0.8384,,,,,,,,,,,,,,,,,,,,,,,,,,,,,,,,,,"[0.37240000000000006,0.4980000000000002,-0.2864]","[0.9842,0.7409999999999999,-0.6628000000000001]",52.79998779,95.19998169,1,0,0,response1disk,0.799987793,-7.200012207,1,0,0,rectangle,0.799987793,-7.200012207,1,0,0,,1,0.0004,0,0.799987793,-7.200012207,1,0,0,0,3,3,94,1,13,second,,,,,,,,,,,,,,,,,,,,,,,,,,,,,,,,,,,,,,,,,,,,,,,,,,,,,,,,,,,,,,,,,,,
,,,,,,61688c1020949a931ca5f0ca,62bbfb1b6205431a697012b7,2022-06-29_09h15.13.110,Colour_Asymmetry_Pilot,2022.1.3,Win32,60.0528465,62bbe60bf3d75ef465d3e404,,,,,,,,,,,,,,,,,,,,threeone,,4,1.3669,,,,,,,,,,,,,,,,,,,,,,,,,,,,,,,,,,"[0.0351999999999999,0.41159999999999997,0.0038000000000000256]","[-0.5688,-0.08239999999999992,-0.1844]",44.79998779,108.8000031,1,0,0,response1disk,1.600036621,5.599975586,1,0,0,rectangle,1.600036621,5.599975586,1,0,0,,2,0.003,0,1.600036621,5.599975586,1,0,0,0,4,4,126,1,45,second,,,,,,,,,,,,,,,,,,,,,,,,,,,,,,,,,,,,,,,,,,,,,,,,,,,,,,,,,,,,,,,,,,,
,,,,,,61688c1020949a931ca5f0ca,62bbfb1b6205431a697012b7,2022-06-29_09h15.13.110,Colour_Asymmetry_Pilot,2022.1.3,Win32,60.0528465,62bbe60bf3d75ef465d3e404,,,,,,,,,,,,,,,,,,,,threefour,,-4,0.8648,,,,,,,,,,,,,,,,,,,,,,,,,,,,,,,,,,"[0.23920000000000008,0.2704,0.16060000000000008]","[-0.01980000000000004,-0.5138,-0.38039999999999996]",-69.59997559,115.1999969,1,0,0,response7disk,-10.39996338,-5.600006104,1,0,0,rectangle,-10.39996338,-5.600006104,1,0,0,,3,0.0026,0,-10.39996338,-5.600006104,1,0,0,0,5,5,83,1,2,second,,,,,,,,,,,,,,,,,,,,,,,,,,,,,,,,,,,,,,,,,,,,,,,,,,,,,,,,,,,,,,,,,,,
,,,,,,61688c1020949a931ca5f0ca,62bbfb1b6205431a697012b7,2022-06-29_09h15.13.110,Colour_Asymmetry_Pilot,2022.1.3,Win32,60.0528465,62bbe60bf3d75ef465d3e404,,,,,,,,,,,,,,,,,,,,threeone,,-4,0.9164,,,,,,,,,,,,,,,,,,,,,,,,,,,,,,,,,,"[-0.5922000000000001,-0.7492000000000001,-0.5296000000000001]","[0.6547999999999998,-0.043199999999999905,-0.011800000000000033]",-61.59997559,87.19998169,1,0,0,response7disk,-0.799987793,-2.400024414,1,0,0,rectangle,-0.799987793,-2.400024414,1,0,0,,2,0.0015,0,-0.799987793,-2.400024414,1,0,0,0,6,6,99,1,18,second,,,,,,,,,,,,,,,,,,,,,,,,,,,,,,,,,,,,,,,,,,,,,,,,,,,,,,,,,,,,,,,,,,,
,,,,,,61688c1020949a931ca5f0ca,62bbfb1b6205431a697012b7,2022-06-29_09h15.13.110,Colour_Asymmetry_Pilot,2022.1.3,Win32,60.0528465,62bbe60bf3d75ef465d3e404,,,,,,,,,,,,,,,,,,,,fourthree,,4,0.8017,,,,,,,,,,,,,,,,,,,,,,,,,,,,,,,,,,"[0.2784,-0.31000000000000005,-0.5452]","[1,0.12939999999999996,-1]",52,109.5999756,1,0,0,response1disk,1.600036621,8,1,0,0,rectangle,1.600036621,8,1,0,0,,1,0.0038,0,1.600036621,8,1,0,0,0,7,7,124,1,43,second,,,,,,,,,,,,,,,,,,,,,,,,,,,,,,,,,,,,,,,,,,,,,,,,,,,,,,,,,,,,,,,,,,,
,,,,,,61688c1020949a931ca5f0ca,62bbfb1b6205431a697012b7,2022-06-29_09h15.13.110,Colour_Asymmetry_Pilot,2022.1.3,Win32,60.0528465,62bbe60bf3d75ef465d3e404,,,,,,,,,,,,,,,,,,,,fourtwo,,-4,1.3068,,,,,,,,,,,,,,,,,,,,,,,,,,,,,,,,,,"[-0.09019999999999995,0.44300000000000006,0.5371999999999999]","[0.8115999999999999,-0.0040000000000000036,-0.09819999999999995]",-39.20001221,115.1999969,1,0,0,response7disk,-16.79998779,-1.600006104,1,0,0,rectangle,-16.79998779,-1.600006104,1,0,0,,3,0.0015,0,-16.79998779,-1.600006104,1,0,0,0,8,8,7,1,7,first,,,,,,,,,,,,,,,,,,,,,,,,,,,,,,,,,,,,,,,,,,,,,,,,,,,,,,,,,,,,,,,,,,,
,,,,,,61688c1020949a931ca5f0ca,62bbfb1b6205431a697012b7,2022-06-29_09h15.13.110,Colour_Asymmetry_Pilot,2022.1.3,Win32,60.0528465,62bbe60bf3d75ef465d3e404,,,,,,,,,,,,,,,,,,,,twoone,,4,1.1985,,,,,,,,,,,,,,,,,,,,,,,,,,,,,,,,,,"[-0.9138,-0.5296000000000001,-0.5529999999999999]","[-0.050999999999999934,-0.6706000000000001,-0.804]",47.20001221,102.3999939,1,0,0,response1disk,-4.799987793,-3.200012207,1,0,0,rectangle,-4.799987793,-3.200012207,1,0,0,,2,0.001,0,-4.799987793,-3.200012207,1,0,0,0,9,9,80,1,80,first,,,,,,,,,,,,,,,,,,,,,,,,,,,,,,,,,,,,,,,,,,,,,,,,,,,,,,,,,,,,,,,,,,,
,,,,,,61688c1020949a931ca5f0ca,62bbfb1b6205431a697012b7,2022-06-29_09h15.13.110,Colour_Asymmetry_Pilot,2022.1.3,Win32,60.0528465,62bbe60bf3d75ef465d3e404,,,,,,,,,,,,,,,,,,,,threeone,,4,3.2926,,,,,,,,,,,,,,,,,,,,,,,,,,,,,,,,,,"[-0.0040000000000000036,0.02739999999999987,-0.08239999999999992]","[-0.24719999999999998,-0.0354000000000001,0.3175999999999999]",51.20001221,111.1999969,1,0,0,response1disk,-12.79998779,7.199981689,1,0,0,rectangle,-12.79998779,7.199981689,1,0,0,,3,0.0015,0,-12.79998779,7.199981689,1,0,0,0,10,10,84,1,3,second,,,,,,,,,,,,,,,,,,,,,,,,,,,,,,,,,,,,,,,,,,,,,,,,,,,,,,,,,,,,,,,,,,,
,,,,,,61688c1020949a931ca5f0ca,62bbfb1b6205431a697012b7,2022-06-29_09h15.13.110,Colour_Asymmetry_Pilot,2022.1.3,Win32,60.0528465,62bbe60bf3d75ef465d3e404,,,,,,,,,,,,,,,,,,,,fourtwo,,4,0.8258,,,,,,,,,,,,,,,,,,,,,,,,,,,,,,,,,,"[-0.5452,-0.608,0.2470000000000001]","[0.05879999999999996,0.2784,0.5841999999999998]",68.79998779,105.5999756,1,0,0,response1disk,-7.200012207,2.399993896,1,0,0,rectangle,-7.200012207,2.399993896,1,0,0,,3,0.0005,0,-7.200012207,2.399993896,1,0,0,0,11,11,129,1,48,second,,,,,,,,,,,,,,,,,,,,,,,,,,,,,,,,,,,,,,,,,,,,,,,,,,,,,,,,,,,,,,,,,,,
,,,,,,61688c1020949a931ca5f0ca,62bbfb1b6205431a697012b7,2022-06-29_09h15.13.110,Colour_Asymmetry_Pilot,2022.1.3,Win32,60.0528465,62bbe60bf3d75ef465d3e404,,,,,,,,,,,,,,,,,,,,onethree,,-4,1.1324,,,,,,,,,,,,,,,,,,,,,,,,,,,,,,,,,,"[0.7646000000000002,0.07440000000000002,0.2704]","[-0.0040000000000000036,0.02739999999999987,-0.08239999999999992]",-57.59997559,99.19998169,1,0,0,response7disk,-6.399963379,-3.200012207,1,0,0,rectangle,-6.399963379,-3.200012207,1,0,0,,2,0.0029,0,-6.399963379,-3.200012207,1,0,0,0,12,12,150,1,69,second,,,,,,,,,,,,,,,,,,,,,,,,,,,,,,,,,,,,,,,,,,,,,,,,,,,,,,,,,,,,,,,,,,,
,,,,,,61688c1020949a931ca5f0ca,62bbfb1b6205431a697012b7,2022-06-29_09h15.13.110,Colour_Asymmetry_Pilot,2022.1.3,Win32,60.0528465,62bbe60bf3d75ef465d3e404,,,,,,,,,,,,,,,,,,,,onetwo,,4,1.0159,,,,,,,,,,,,,,,,,,,,,,,,,,,,,,,,,,"[0.7018,0.7802,-0.16079999999999994]","[-0.2942,-0.24719999999999998,-0.357]",50.40002441,120.8000031,1,0,0,response1disk,4,-5.600006104,1,0,0,rectangle,4,-5.600006104,1,0,0,,3,0.0028,0,4,-5.600006104,1,0,0,0,13,13,107,1,26,second,,,,,,,,,,,,,,,,,,,,,,,,,,,,,,,,,,,,,,,,,,,,,,,,,,,,,,,,,,,,,,,,,,,
,,,,,,61688c1020949a931ca5f0ca,62bbfb1b6205431a697012b7,2022-06-29_09h15.13.110,Colour_Asymmetry_Pilot,2022.1.3,Win32,60.0528465,62bbe60bf3d75ef465d3e404,,,,,,,,,,,,,,,,,,,,fourthree,,-4,0.7496,,,,,,,,,,,,,,,,,,,,,,,,,,,,,,,,,,"[0.23920000000000008,0.2704,0.16060000000000008]","[0.7018,0.7802,-0.16079999999999994]",-50.39996338,102.3999939,1,0,0,response7disk,-5.599975586,-5.600006104,1,0,0,rectangle,-5.599975586,-5.600006104,1,0,0,,2,0.0032,0,-5.599975586,-5.600006104,1,0,0,0,14,14,51,1,51,first,,,,,,,,,,,,,,,,,,,,,,,,,,,,,,,,,,,,,,,,,,,,,,,,,,,,,,,,,,,,,,,,,,,
,,,,,,61688c1020949a931ca5f0ca,62bbfb1b6205431a697012b7,2022-06-29_09h15.13.110,Colour_Asymmetry_Pilot,2022.1.3,Win32,60.0528465,62bbe60bf3d75ef465d3e404,,,,,,,,,,,,,,,,,,,,onetwo,,-4,2.2262,,,,,,,,,,,,,,,,,,,,,,,,,,,,,,,,,,"[-0.050999999999999934,-0.6706000000000001,-0.804]","[0.05879999999999996,0.2784,0.5841999999999998]",-46.39996338,108.8000031,1,0,0,response7disk,-0.799987793,-4,1,0,0,rectangle,-0.799987793,-4,1,0,0,,1,0.0016,0,-0.799987793,-4,1,0,0,0,15,15,138,1,57,second,,,,,,,,,,,,,,,,,,,,,,,,,,,,,,,,,,,,,,,,,,,,,,,,,,,,,,,,,,,,,,,,,,,
,,,,,,61688c1020949a931ca5f0ca,62bbfb1b6205431a697012b7,2022-06-29_09h15.13.110,Colour_Asymmetry_Pilot,2022.1.3,Win32,60.0528465,62bbe60bf3d75ef465d3e404,,,,,,,,,,,,,,,,,,,,fourtwo,,-4,0.9429,,,,,,,,,,,,,,,,,,,,,,,,,,,,,,,,,,"[0.4196,0.4665999999999999,0.3568]","[-0.4746,-0.0354000000000001,0.5449999999999999]",-48.79998779,98.3999939,1,0,0,response7disk,-4.799987793,-3.200012207,1,0,0,rectangle,-4.799987793,-3.200012207,1,0,0,,2,0.0015,0,-4.799987793,-3.200012207,1,0,0,0,16,16,4,1,4,first,,,,,,,,,,,,,,,,,,,,,,,,,,,,,,,,,,,,,,,,,,,,,,,,,,,,,,,,,,,,,,,,,,,
,,,,,,61688c1020949a931ca5f0ca,62bbfb1b6205431a697012b7,2022-06-29_09h15.13.110,Colour_Asymmetry_Pilot,2022.1.3,Win32,60.0528465,62bbe60bf3d75ef465d3e404,,,,,,,,,,,,,,,,,,,,onethree,,-4,1.5303,,,,,,,,,,,,,,,,,,,,,,,,,,,,,,,,,,"[0.22340000000000004,-0.9296,-0.7884]","[-0.45899999999999996,-0.3256,-0.9374]",-40,96,1,0,0,response7disk,7.200012207,-4,1,0,0,rectangle,7.200012207,-4,1,0,0,,3,0.0039,0,7.200012207,-4,1,0,0,0,17,17,53,1,53,first,,,,,,,,,,,,,,,,,,,,,,,,,,,,,,,,,,,,,,,,,,,,,,,,,,,,,,,,,,,,,,,,,,,
