trials.thisRepN,trials.thisTrialN,trials.thisN,trials.thisIndex,trials.ran,Colourcodes,participant,session,date,expName,psychopyVersion,OS,frameRate,study_id,trials_4.thisRepN,trials_4.thisTrialN,trials_4.thisN,trials_4.thisIndex,trials_4.ran,StimulusPos,key_resp.keys,key_resp.rt,key_resp_2.keys,key_resp_2.rt,key_resp_15.keys,key_resp_15.rt,key_resp_17.keys,key_resp_17.rt,key_resp_9.keys,key_resp_9.rt,key_resp_10.keys,key_resp_10.rt,Circle1_col,Ecc,Circle2_col,similarity,response_time,mouse_5.x,mouse_5.y,mouse_5.leftButton,mouse_5.midButton,mouse_5.rightButton,mouse_5.clicked_name,mouse_10.x,mouse_10.y,mouse_10.leftButton,mouse_10.midButton,mouse_10.rightButton,mouse_10.clicked_name,mouse_7.x,mouse_7.y,mouse_7.leftButton,mouse_7.midButton,mouse_7.rightButton,mouse_7.clicked_name,catchprac,catchnumberprac,mouse_6.x,mouse_6.y,mouse_6.leftButton,mouse_6.midButton,mouse_6.rightButton,mouse_6.clicked_name,duringprac.thisRepN,duringprac.thisTrialN,duringprac.thisN,duringprac.thisIndex,duringprac.ran,key_resp_22.keys,key_resp_22.rt,Circle1_colour,Circle2_colour,mouse.x,mouse.y,mouse.leftButton,mouse.midButton,mouse.rightButton,mouse.clicked_name,mouse_2.x,mouse_2.y,mouse_2.leftButton,mouse_2.midButton,mouse_2.rightButton,mouse_2.clicked_name,mouse_3.x,mouse_3.y,mouse_3.leftButton,mouse_3.midButton,mouse_3.rightButton,catchresponse,catchnumber,response_time_catch,Catch,mouse_11.x,mouse_11.y,mouse_11.leftButton,mouse_11.midButton,mouse_11.rightButton,trials_2.thisRepN,trials_2.thisTrialN,trials_2.thisN,trials_2.thisIndex,trials_2.ran,Colourpair,Temporder,mouse_3.clicked_name,mouse_11.clicked_name,trials_3.thisRepN,trials_3.thisTrialN,trials_3.thisN,trials_3.thisIndex,trials_3.ran,key_resp_instr_Ishi.keys,key_resp_instr_Ishi.rt,Ishi_trial_keyresp.keys,Ishi_trial_keyresp.rt,Ishi_textbox.text,Ishi_loop.thisRepN,Ishi_loop.thisTrialN,Ishi_loop.thisN,Ishi_loop.thisIndex,Ishi_loop.ran,imageaddress,textbox.text,mouse_4.x,mouse_4.y,mouse_4.leftButton,mouse_4.midButton,mouse_4.rightButton,mouse_4.clicked_name,textbox_2.text,mouse_8.x,mouse_8.y,mouse_8.leftButton,mouse_8.midButton,mouse_8.rightButton,mouse_8.clicked_name,textbox_3.text,mouse_9.x,mouse_9.y,mouse_9.leftButton,mouse_9.midButton,mouse_9.rightButton,mouse_9.clicked_name,textbox_4.text,mouse_12.x,mouse_12.y,mouse_12.leftButton,mouse_12.midButton,mouse_12.rightButton,mouse_12.clicked_name,textbox_5.text,mouse_13.x,mouse_13.y,mouse_13.leftButton,mouse_13.midButton,mouse_13.rightButton,mouse_13.clicked_name,textbox_6.text,mouse_14.x,mouse_14.y,mouse_14.leftButton,mouse_14.midButton,mouse_14.rightButton,mouse_14.clicked_name,textbox_7.text,mouse_15.x,mouse_15.y,mouse_15.leftButton,mouse_15.midButton,mouse_15.rightButton,mouse_15.clicked_name
0,0,0,84,1,,60315645c8c7420a2f1ade9c,62bbfb2f0e15271e2faad414,2022-06-29_09h21.34.541,Colour_Asymmetry_Pilot,2022.1.3,Win32,19.87913486,62bbe60bf3d75ef465d3e404,,,,,,,,,,,,,,,,,,,,,,,,,,,,,,,,,,,,,,,,,,,,,,,,,,,,,,,,,,,,,,,,,,,,,,,,,,,,,,,,,,,,,,,,,,,,,,,,,,,,,,,,,,,,,,,,,,,,,,,,,,,,,,,,,,,,,,,,,,,,,,,,,,,,,,,,,,,,,,
0,1,1,6,1,,60315645c8c7420a2f1ade9c,62bbfb2f0e15271e2faad414,2022-06-29_09h21.34.541,Colour_Asymmetry_Pilot,2022.1.3,Win32,19.87913486,62bbe60bf3d75ef465d3e404,,,,,,,,,,,,,,,,,,,,,,,,,,,,,,,,,,,,,,,,,,,,,,,,,,,,,,,,,,,,,,,,,,,,,,,,,,,,,,,,,,,,,,,,,,,,,,,,,,,,,,,,,,,,,,,,,,,,,,,,,,,,,,,,,,,,,,,,,,,,,,,,,,,,,,,,,,,,,,
0,2,2,63,1,,60315645c8c7420a2f1ade9c,62bbfb2f0e15271e2faad414,2022-06-29_09h21.34.541,Colour_Asymmetry_Pilot,2022.1.3,Win32,19.87913486,62bbe60bf3d75ef465d3e404,,,,,,,,,,,,,,,,,,,,,,,,,,,,,,,,,,,,,,,,,,,,,,,,,,,,,,,,,,,,,,,,,,,,,,,,,,,,,,,,,,,,,,,,,,,,,,,,,,,,,,,,,,,,,,,,,,,,,,,,,,,,,,,,,,,,,,,,,,,,,,,,,,,,,,,,,,,,,,
0,3,3,32,1,,60315645c8c7420a2f1ade9c,62bbfb2f0e15271e2faad414,2022-06-29_09h21.34.541,Colour_Asymmetry_Pilot,2022.1.3,Win32,19.87913486,62bbe60bf3d75ef465d3e404,,,,,,,,,,,,,,,,,,,,,,,,,,,,,,,,,,,,,,,,,,,,,,,,,,,,,,,,,,,,,,,,,,,,,,,,,,,,,,,,,,,,,,,,,,,,,,,,,,,,,,,,,,,,,,,,,,,,,,,,,,,,,,,,,,,,,,,,,,,,,,,,,,,,,,,,,,,,,,
0,4,4,29,1,,60315645c8c7420a2f1ade9c,62bbfb2f0e15271e2faad414,2022-06-29_09h21.34.541,Colour_Asymmetry_Pilot,2022.1.3,Win32,19.87913486,62bbe60bf3d75ef465d3e404,,,,,,,,,,,,,,,,,,,,,,,,,,,,,,,,,,,,,,,,,,,,,,,,,,,,,,,,,,,,,,,,,,,,,,,,,,,,,,,,,,,,,,,,,,,,,,,,,,,,,,,,,,,,,,,,,,,,,,,,,,,,,,,,,,,,,,,,,,,,,,,,,,,,,,,,,,,,,,
0,5,5,90,1,,60315645c8c7420a2f1ade9c,62bbfb2f0e15271e2faad414,2022-06-29_09h21.34.541,Colour_Asymmetry_Pilot,2022.1.3,Win32,19.87913486,62bbe60bf3d75ef465d3e404,,,,,,,,,,,,,,,,,,,,,,,,,,,,,,,,,,,,,,,,,,,,,,,,,,,,,,,,,,,,,,,,,,,,,,,,,,,,,,,,,,,,,,,,,,,,,,,,,,,,,,,,,,,,,,,,,,,,,,,,,,,,,,,,,,,,,,,,,,,,,,,,,,,,,,,,,,,,,,
0,6,6,76,1,,60315645c8c7420a2f1ade9c,62bbfb2f0e15271e2faad414,2022-06-29_09h21.34.541,Colour_Asymmetry_Pilot,2022.1.3,Win32,19.87913486,62bbe60bf3d75ef465d3e404,,,,,,,,,,,,,,,,,,,,,,,,,,,,,,,,,,,,,,,,,,,,,,,,,,,,,,,,,,,,,,,,,,,,,,,,,,,,,,,,,,,,,,,,,,,,,,,,,,,,,,,,,,,,,,,,,,,,,,,,,,,,,,,,,,,,,,,,,,,,,,,,,,,,,,,,,,,,,,
0,7,7,47,1,,60315645c8c7420a2f1ade9c,62bbfb2f0e15271e2faad414,2022-06-29_09h21.34.541,Colour_Asymmetry_Pilot,2022.1.3,Win32,19.87913486,62bbe60bf3d75ef465d3e404,,,,,,,,,,,,,,,,,,,,,,,,,,,,,,,,,,,,,,,,,,,,,,,,,,,,,,,,,,,,,,,,,,,,,,,,,,,,,,,,,,,,,,,,,,,,,,,,,,,,,,,,,,,,,,,,,,,,,,,,,,,,,,,,,,,,,,,,,,,,,,,,,,,,,,,,,,,,,,
0,8,8,64,1,,60315645c8c7420a2f1ade9c,62bbfb2f0e15271e2faad414,2022-06-29_09h21.34.541,Colour_Asymmetry_Pilot,2022.1.3,Win32,19.87913486,62bbe60bf3d75ef465d3e404,,,,,,,,,,,,,,,,,,,,,,,,,,,,,,,,,,,,,,,,,,,,,,,,,,,,,,,,,,,,,,,,,,,,,,,,,,,,,,,,,,,,,,,,,,,,,,,,,,,,,,,,,,,,,,,,,,,,,,,,,,,,,,,,,,,,,,,,,,,,,,,,,,,,,,,,,,,,,,
0,9,9,91,1,,60315645c8c7420a2f1ade9c,62bbfb2f0e15271e2faad414,2022-06-29_09h21.34.541,Colour_Asymmetry_Pilot,2022.1.3,Win32,19.87913486,62bbe60bf3d75ef465d3e404,,,,,,,,,,,,,,,,,,,,,,,,,,,,,,,,,,,,,,,,,,,,,,,,,,,,,,,,,,,,,,,,,,,,,,,,,,,,,,,,,,,,,,,,,,,,,,,,,,,,,,,,,,,,,,,,,,,,,,,,,,,,,,,,,,,,,,,,,,,,,,,,,,,,,,,,,,,,,,
0,10,10,7,1,,60315645c8c7420a2f1ade9c,62bbfb2f0e15271e2faad414,2022-06-29_09h21.34.541,Colour_Asymmetry_Pilot,2022.1.3,Win32,19.87913486,62bbe60bf3d75ef465d3e404,,,,,,,,,,,,,,,,,,,,,,,,,,,,,,,,,,,,,,,,,,,,,,,,,,,,,,,,,,,,,,,,,,,,,,,,,,,,,,,,,,,,,,,,,,,,,,,,,,,,,,,,,,,,,,,,,,,,,,,,,,,,,,,,,,,,,,,,,,,,,,,,,,,,,,,,,,,,,,
0,11,11,85,1,,60315645c8c7420a2f1ade9c,62bbfb2f0e15271e2faad414,2022-06-29_09h21.34.541,Colour_Asymmetry_Pilot,2022.1.3,Win32,19.87913486,62bbe60bf3d75ef465d3e404,,,,,,,,,,,,,,,,,,,,,,,,,,,,,,,,,,,,,,,,,,,,,,,,,,,,,,,,,,,,,,,,,,,,,,,,,,,,,,,,,,,,,,,,,,,,,,,,,,,,,,,,,,,,,,,,,,,,,,,,,,,,,,,,,,,,,,,,,,,,,,,,,,,,,,,,,,,,,,
0,12,12,12,1,,60315645c8c7420a2f1ade9c,62bbfb2f0e15271e2faad414,2022-06-29_09h21.34.541,Colour_Asymmetry_Pilot,2022.1.3,Win32,19.87913486,62bbe60bf3d75ef465d3e404,,,,,,,,,,,,,,,,,,,,,,,,,,,,,,,,,,,,,,,,,,,,,,,,,,,,,,,,,,,,,,,,,,,,,,,,,,,,,,,,,,,,,,,,,,,,,,,,,,,,,,,,,,,,,,,,,,,,,,,,,,,,,,,,,,,,,,,,,,,,,,,,,,,,,,,,,,,,,,
0,13,13,49,1,,60315645c8c7420a2f1ade9c,62bbfb2f0e15271e2faad414,2022-06-29_09h21.34.541,Colour_Asymmetry_Pilot,2022.1.3,Win32,19.87913486,62bbe60bf3d75ef465d3e404,,,,,,,,,,,,,,,,,,,,,,,,,,,,,,,,,,,,,,,,,,,,,,,,,,,,,,,,,,,,,,,,,,,,,,,,,,,,,,,,,,,,,,,,,,,,,,,,,,,,,,,,,,,,,,,,,,,,,,,,,,,,,,,,,,,,,,,,,,,,,,,,,,,,,,,,,,,,,,
0,14,14,23,1,,60315645c8c7420a2f1ade9c,62bbfb2f0e15271e2faad414,2022-06-29_09h21.34.541,Colour_Asymmetry_Pilot,2022.1.3,Win32,19.87913486,62bbe60bf3d75ef465d3e404,,,,,,,,,,,,,,,,,,,,,,,,,,,,,,,,,,,,,,,,,,,,,,,,,,,,,,,,,,,,,,,,,,,,,,,,,,,,,,,,,,,,,,,,,,,,,,,,,,,,,,,,,,,,,,,,,,,,,,,,,,,,,,,,,,,,,,,,,,,,,,,,,,,,,,,,,,,,,,
0,15,15,53,1,,60315645c8c7420a2f1ade9c,62bbfb2f0e15271e2faad414,2022-06-29_09h21.34.541,Colour_Asymmetry_Pilot,2022.1.3,Win32,19.87913486,62bbe60bf3d75ef465d3e404,,,,,,,,,,,,,,,,,,,,,,,,,,,,,,,,,,,,,,,,,,,,,,,,,,,,,,,,,,,,,,,,,,,,,,,,,,,,,,,,,,,,,,,,,,,,,,,,,,,,,,,,,,,,,,,,,,,,,,,,,,,,,,,,,,,,,,,,,,,,,,,,,,,,,,,,,,,,,,
0,16,16,42,1,,60315645c8c7420a2f1ade9c,62bbfb2f0e15271e2faad414,2022-06-29_09h21.34.541,Colour_Asymmetry_Pilot,2022.1.3,Win32,19.87913486,62bbe60bf3d75ef465d3e404,,,,,,,,,,,,,,,,,,,,,,,,,,,,,,,,,,,,,,,,,,,,,,,,,,,,,,,,,,,,,,,,,,,,,,,,,,,,,,,,,,,,,,,,,,,,,,,,,,,,,,,,,,,,,,,,,,,,,,,,,,,,,,,,,,,,,,,,,,,,,,,,,,,,,,,,,,,,,,
0,17,17,56,1,,60315645c8c7420a2f1ade9c,62bbfb2f0e15271e2faad414,2022-06-29_09h21.34.541,Colour_Asymmetry_Pilot,2022.1.3,Win32,19.87913486,62bbe60bf3d75ef465d3e404,,,,,,,,,,,,,,,,,,,,,,,,,,,,,,,,,,,,,,,,,,,,,,,,,,,,,,,,,,,,,,,,,,,,,,,,,,,,,,,,,,,,,,,,,,,,,,,,,,,,,,,,,,,,,,,,,,,,,,,,,,,,,,,,,,,,,,,,,,,,,,,,,,,,,,,,,,,,,,
0,18,18,68,1,,60315645c8c7420a2f1ade9c,62bbfb2f0e15271e2faad414,2022-06-29_09h21.34.541,Colour_Asymmetry_Pilot,2022.1.3,Win32,19.87913486,62bbe60bf3d75ef465d3e404,,,,,,,,,,,,,,,,,,,,,,,,,,,,,,,,,,,,,,,,,,,,,,,,,,,,,,,,,,,,,,,,,,,,,,,,,,,,,,,,,,,,,,,,,,,,,,,,,,,,,,,,,,,,,,,,,,,,,,,,,,,,,,,,,,,,,,,,,,,,,,,,,,,,,,,,,,,,,,
0,19,19,39,1,,60315645c8c7420a2f1ade9c,62bbfb2f0e15271e2faad414,2022-06-29_09h21.34.541,Colour_Asymmetry_Pilot,2022.1.3,Win32,19.87913486,62bbe60bf3d75ef465d3e404,,,,,,,,,,,,,,,,,,,,,,,,,,,,,,,,,,,,,,,,,,,,,,,,,,,,,,,,,,,,,,,,,,,,,,,,,,,,,,,,,,,,,,,,,,,,,,,,,,,,,,,,,,,,,,,,,,,,,,,,,,,,,,,,,,,,,,,,,,,,,,,,,,,,,,,,,,,,,,
0,20,20,89,1,,60315645c8c7420a2f1ade9c,62bbfb2f0e15271e2faad414,2022-06-29_09h21.34.541,Colour_Asymmetry_Pilot,2022.1.3,Win32,19.87913486,62bbe60bf3d75ef465d3e404,,,,,,,,,,,,,,,,,,,,,,,,,,,,,,,,,,,,,,,,,,,,,,,,,,,,,,,,,,,,,,,,,,,,,,,,,,,,,,,,,,,,,,,,,,,,,,,,,,,,,,,,,,,,,,,,,,,,,,,,,,,,,,,,,,,,,,,,,,,,,,,,,,,,,,,,,,,,,,
0,21,21,41,1,,60315645c8c7420a2f1ade9c,62bbfb2f0e15271e2faad414,2022-06-29_09h21.34.541,Colour_Asymmetry_Pilot,2022.1.3,Win32,19.87913486,62bbe60bf3d75ef465d3e404,,,,,,,,,,,,,,,,,,,,,,,,,,,,,,,,,,,,,,,,,,,,,,,,,,,,,,,,,,,,,,,,,,,,,,,,,,,,,,,,,,,,,,,,,,,,,,,,,,,,,,,,,,,,,,,,,,,,,,,,,,,,,,,,,,,,,,,,,,,,,,,,,,,,,,,,,,,,,,
0,22,22,79,1,,60315645c8c7420a2f1ade9c,62bbfb2f0e15271e2faad414,2022-06-29_09h21.34.541,Colour_Asymmetry_Pilot,2022.1.3,Win32,19.87913486,62bbe60bf3d75ef465d3e404,,,,,,,,,,,,,,,,,,,,,,,,,,,,,,,,,,,,,,,,,,,,,,,,,,,,,,,,,,,,,,,,,,,,,,,,,,,,,,,,,,,,,,,,,,,,,,,,,,,,,,,,,,,,,,,,,,,,,,,,,,,,,,,,,,,,,,,,,,,,,,,,,,,,,,,,,,,,,,
0,23,23,71,1,,60315645c8c7420a2f1ade9c,62bbfb2f0e15271e2faad414,2022-06-29_09h21.34.541,Colour_Asymmetry_Pilot,2022.1.3,Win32,19.87913486,62bbe60bf3d75ef465d3e404,,,,,,,,,,,,,,,,,,,,,,,,,,,,,,,,,,,,,,,,,,,,,,,,,,,,,,,,,,,,,,,,,,,,,,,,,,,,,,,,,,,,,,,,,,,,,,,,,,,,,,,,,,,,,,,,,,,,,,,,,,,,,,,,,,,,,,,,,,,,,,,,,,,,,,,,,,,,,,
0,24,24,83,1,,60315645c8c7420a2f1ade9c,62bbfb2f0e15271e2faad414,2022-06-29_09h21.34.541,Colour_Asymmetry_Pilot,2022.1.3,Win32,19.87913486,62bbe60bf3d75ef465d3e404,,,,,,,,,,,,,,,,,,,,,,,,,,,,,,,,,,,,,,,,,,,,,,,,,,,,,,,,,,,,,,,,,,,,,,,,,,,,,,,,,,,,,,,,,,,,,,,,,,,,,,,,,,,,,,,,,,,,,,,,,,,,,,,,,,,,,,,,,,,,,,,,,,,,,,,,,,,,,,
0,25,25,73,1,,60315645c8c7420a2f1ade9c,62bbfb2f0e15271e2faad414,2022-06-29_09h21.34.541,Colour_Asymmetry_Pilot,2022.1.3,Win32,19.87913486,62bbe60bf3d75ef465d3e404,,,,,,,,,,,,,,,,,,,,,,,,,,,,,,,,,,,,,,,,,,,,,,,,,,,,,,,,,,,,,,,,,,,,,,,,,,,,,,,,,,,,,,,,,,,,,,,,,,,,,,,,,,,,,,,,,,,,,,,,,,,,,,,,,,,,,,,,,,,,,,,,,,,,,,,,,,,,,,
0,26,26,13,1,,60315645c8c7420a2f1ade9c,62bbfb2f0e15271e2faad414,2022-06-29_09h21.34.541,Colour_Asymmetry_Pilot,2022.1.3,Win32,19.87913486,62bbe60bf3d75ef465d3e404,,,,,,,,,,,,,,,,,,,,,,,,,,,,,,,,,,,,,,,,,,,,,,,,,,,,,,,,,,,,,,,,,,,,,,,,,,,,,,,,,,,,,,,,,,,,,,,,,,,,,,,,,,,,,,,,,,,,,,,,,,,,,,,,,,,,,,,,,,,,,,,,,,,,,,,,,,,,,,
0,27,27,33,1,,60315645c8c7420a2f1ade9c,62bbfb2f0e15271e2faad414,2022-06-29_09h21.34.541,Colour_Asymmetry_Pilot,2022.1.3,Win32,19.87913486,62bbe60bf3d75ef465d3e404,,,,,,,,,,,,,,,,,,,,,,,,,,,,,,,,,,,,,,,,,,,,,,,,,,,,,,,,,,,,,,,,,,,,,,,,,,,,,,,,,,,,,,,,,,,,,,,,,,,,,,,,,,,,,,,,,,,,,,,,,,,,,,,,,,,,,,,,,,,,,,,,,,,,,,,,,,,,,,
0,28,28,59,1,,60315645c8c7420a2f1ade9c,62bbfb2f0e15271e2faad414,2022-06-29_09h21.34.541,Colour_Asymmetry_Pilot,2022.1.3,Win32,19.87913486,62bbe60bf3d75ef465d3e404,,,,,,,,,,,,,,,,,,,,,,,,,,,,,,,,,,,,,,,,,,,,,,,,,,,,,,,,,,,,,,,,,,,,,,,,,,,,,,,,,,,,,,,,,,,,,,,,,,,,,,,,,,,,,,,,,,,,,,,,,,,,,,,,,,,,,,,,,,,,,,,,,,,,,,,,,,,,,,
0,29,29,3,1,,60315645c8c7420a2f1ade9c,62bbfb2f0e15271e2faad414,2022-06-29_09h21.34.541,Colour_Asymmetry_Pilot,2022.1.3,Win32,19.87913486,62bbe60bf3d75ef465d3e404,,,,,,,,,,,,,,,,,,,,,,,,,,,,,,,,,,,,,,,,,,,,,,,,,,,,,,,,,,,,,,,,,,,,,,,,,,,,,,,,,,,,,,,,,,,,,,,,,,,,,,,,,,,,,,,,,,,,,,,,,,,,,,,,,,,,,,,,,,,,,,,,,,,,,,,,,,,,,,
0,30,30,92,1,,60315645c8c7420a2f1ade9c,62bbfb2f0e15271e2faad414,2022-06-29_09h21.34.541,Colour_Asymmetry_Pilot,2022.1.3,Win32,19.87913486,62bbe60bf3d75ef465d3e404,,,,,,,,,,,,,,,,,,,,,,,,,,,,,,,,,,,,,,,,,,,,,,,,,,,,,,,,,,,,,,,,,,,,,,,,,,,,,,,,,,,,,,,,,,,,,,,,,,,,,,,,,,,,,,,,,,,,,,,,,,,,,,,,,,,,,,,,,,,,,,,,,,,,,,,,,,,,,,
0,31,31,45,1,,60315645c8c7420a2f1ade9c,62bbfb2f0e15271e2faad414,2022-06-29_09h21.34.541,Colour_Asymmetry_Pilot,2022.1.3,Win32,19.87913486,62bbe60bf3d75ef465d3e404,,,,,,,,,,,,,,,,,,,,,,,,,,,,,,,,,,,,,,,,,,,,,,,,,,,,,,,,,,,,,,,,,,,,,,,,,,,,,,,,,,,,,,,,,,,,,,,,,,,,,,,,,,,,,,,,,,,,,,,,,,,,,,,,,,,,,,,,,,,,,,,,,,,,,,,,,,,,,,
0,32,32,17,1,,60315645c8c7420a2f1ade9c,62bbfb2f0e15271e2faad414,2022-06-29_09h21.34.541,Colour_Asymmetry_Pilot,2022.1.3,Win32,19.87913486,62bbe60bf3d75ef465d3e404,,,,,,,,,,,,,,,,,,,,,,,,,,,,,,,,,,,,,,,,,,,,,,,,,,,,,,,,,,,,,,,,,,,,,,,,,,,,,,,,,,,,,,,,,,,,,,,,,,,,,,,,,,,,,,,,,,,,,,,,,,,,,,,,,,,,,,,,,,,,,,,,,,,,,,,,,,,,,,
0,33,33,86,1,,60315645c8c7420a2f1ade9c,62bbfb2f0e15271e2faad414,2022-06-29_09h21.34.541,Colour_Asymmetry_Pilot,2022.1.3,Win32,19.87913486,62bbe60bf3d75ef465d3e404,,,,,,,,,,,,,,,,,,,,,,,,,,,,,,,,,,,,,,,,,,,,,,,,,,,,,,,,,,,,,,,,,,,,,,,,,,,,,,,,,,,,,,,,,,,,,,,,,,,,,,,,,,,,,,,,,,,,,,,,,,,,,,,,,,,,,,,,,,,,,,,,,,,,,,,,,,,,,,
0,34,34,25,1,,60315645c8c7420a2f1ade9c,62bbfb2f0e15271e2faad414,2022-06-29_09h21.34.541,Colour_Asymmetry_Pilot,2022.1.3,Win32,19.87913486,62bbe60bf3d75ef465d3e404,,,,,,,,,,,,,,,,,,,,,,,,,,,,,,,,,,,,,,,,,,,,,,,,,,,,,,,,,,,,,,,,,,,,,,,,,,,,,,,,,,,,,,,,,,,,,,,,,,,,,,,,,,,,,,,,,,,,,,,,,,,,,,,,,,,,,,,,,,,,,,,,,,,,,,,,,,,,,,
0,35,35,16,1,,60315645c8c7420a2f1ade9c,62bbfb2f0e15271e2faad414,2022-06-29_09h21.34.541,Colour_Asymmetry_Pilot,2022.1.3,Win32,19.87913486,62bbe60bf3d75ef465d3e404,,,,,,,,,,,,,,,,,,,,,,,,,,,,,,,,,,,,,,,,,,,,,,,,,,,,,,,,,,,,,,,,,,,,,,,,,,,,,,,,,,,,,,,,,,,,,,,,,,,,,,,,,,,,,,,,,,,,,,,,,,,,,,,,,,,,,,,,,,,,,,,,,,,,,,,,,,,,,,
0,36,36,27,1,,60315645c8c7420a2f1ade9c,62bbfb2f0e15271e2faad414,2022-06-29_09h21.34.541,Colour_Asymmetry_Pilot,2022.1.3,Win32,19.87913486,62bbe60bf3d75ef465d3e404,,,,,,,,,,,,,,,,,,,,,,,,,,,,,,,,,,,,,,,,,,,,,,,,,,,,,,,,,,,,,,,,,,,,,,,,,,,,,,,,,,,,,,,,,,,,,,,,,,,,,,,,,,,,,,,,,,,,,,,,,,,,,,,,,,,,,,,,,,,,,,,,,,,,,,,,,,,,,,
0,37,37,11,1,,60315645c8c7420a2f1ade9c,62bbfb2f0e15271e2faad414,2022-06-29_09h21.34.541,Colour_Asymmetry_Pilot,2022.1.3,Win32,19.87913486,62bbe60bf3d75ef465d3e404,,,,,,,,,,,,,,,,,,,,,,,,,,,,,,,,,,,,,,,,,,,,,,,,,,,,,,,,,,,,,,,,,,,,,,,,,,,,,,,,,,,,,,,,,,,,,,,,,,,,,,,,,,,,,,,,,,,,,,,,,,,,,,,,,,,,,,,,,,,,,,,,,,,,,,,,,,,,,,
0,38,38,54,1,,60315645c8c7420a2f1ade9c,62bbfb2f0e15271e2faad414,2022-06-29_09h21.34.541,Colour_Asymmetry_Pilot,2022.1.3,Win32,19.87913486,62bbe60bf3d75ef465d3e404,,,,,,,,,,,,,,,,,,,,,,,,,,,,,,,,,,,,,,,,,,,,,,,,,,,,,,,,,,,,,,,,,,,,,,,,,,,,,,,,,,,,,,,,,,,,,,,,,,,,,,,,,,,,,,,,,,,,,,,,,,,,,,,,,,,,,,,,,,,,,,,,,,,,,,,,,,,,,,
0,39,39,50,1,,60315645c8c7420a2f1ade9c,62bbfb2f0e15271e2faad414,2022-06-29_09h21.34.541,Colour_Asymmetry_Pilot,2022.1.3,Win32,19.87913486,62bbe60bf3d75ef465d3e404,,,,,,,,,,,,,,,,,,,,,,,,,,,,,,,,,,,,,,,,,,,,,,,,,,,,,,,,,,,,,,,,,,,,,,,,,,,,,,,,,,,,,,,,,,,,,,,,,,,,,,,,,,,,,,,,,,,,,,,,,,,,,,,,,,,,,,,,,,,,,,,,,,,,,,,,,,,,,,
0,40,40,62,1,,60315645c8c7420a2f1ade9c,62bbfb2f0e15271e2faad414,2022-06-29_09h21.34.541,Colour_Asymmetry_Pilot,2022.1.3,Win32,19.87913486,62bbe60bf3d75ef465d3e404,,,,,,,,,,,,,,,,,,,,,,,,,,,,,,,,,,,,,,,,,,,,,,,,,,,,,,,,,,,,,,,,,,,,,,,,,,,,,,,,,,,,,,,,,,,,,,,,,,,,,,,,,,,,,,,,,,,,,,,,,,,,,,,,,,,,,,,,,,,,,,,,,,,,,,,,,,,,,,
0,41,41,44,1,,60315645c8c7420a2f1ade9c,62bbfb2f0e15271e2faad414,2022-06-29_09h21.34.541,Colour_Asymmetry_Pilot,2022.1.3,Win32,19.87913486,62bbe60bf3d75ef465d3e404,,,,,,,,,,,,,,,,,,,,,,,,,,,,,,,,,,,,,,,,,,,,,,,,,,,,,,,,,,,,,,,,,,,,,,,,,,,,,,,,,,,,,,,,,,,,,,,,,,,,,,,,,,,,,,,,,,,,,,,,,,,,,,,,,,,,,,,,,,,,,,,,,,,,,,,,,,,,,,
0,42,42,55,1,,60315645c8c7420a2f1ade9c,62bbfb2f0e15271e2faad414,2022-06-29_09h21.34.541,Colour_Asymmetry_Pilot,2022.1.3,Win32,19.87913486,62bbe60bf3d75ef465d3e404,,,,,,,,,,,,,,,,,,,,,,,,,,,,,,,,,,,,,,,,,,,,,,,,,,,,,,,,,,,,,,,,,,,,,,,,,,,,,,,,,,,,,,,,,,,,,,,,,,,,,,,,,,,,,,,,,,,,,,,,,,,,,,,,,,,,,,,,,,,,,,,,,,,,,,,,,,,,,,
0,43,43,57,1,,60315645c8c7420a2f1ade9c,62bbfb2f0e15271e2faad414,2022-06-29_09h21.34.541,Colour_Asymmetry_Pilot,2022.1.3,Win32,19.87913486,62bbe60bf3d75ef465d3e404,,,,,,,,,,,,,,,,,,,,,,,,,,,,,,,,,,,,,,,,,,,,,,,,,,,,,,,,,,,,,,,,,,,,,,,,,,,,,,,,,,,,,,,,,,,,,,,,,,,,,,,,,,,,,,,,,,,,,,,,,,,,,,,,,,,,,,,,,,,,,,,,,,,,,,,,,,,,,,
0,44,44,10,1,,60315645c8c7420a2f1ade9c,62bbfb2f0e15271e2faad414,2022-06-29_09h21.34.541,Colour_Asymmetry_Pilot,2022.1.3,Win32,19.87913486,62bbe60bf3d75ef465d3e404,,,,,,,,,,,,,,,,,,,,,,,,,,,,,,,,,,,,,,,,,,,,,,,,,,,,,,,,,,,,,,,,,,,,,,,,,,,,,,,,,,,,,,,,,,,,,,,,,,,,,,,,,,,,,,,,,,,,,,,,,,,,,,,,,,,,,,,,,,,,,,,,,,,,,,,,,,,,,,
0,45,45,26,1,,60315645c8c7420a2f1ade9c,62bbfb2f0e15271e2faad414,2022-06-29_09h21.34.541,Colour_Asymmetry_Pilot,2022.1.3,Win32,19.87913486,62bbe60bf3d75ef465d3e404,,,,,,,,,,,,,,,,,,,,,,,,,,,,,,,,,,,,,,,,,,,,,,,,,,,,,,,,,,,,,,,,,,,,,,,,,,,,,,,,,,,,,,,,,,,,,,,,,,,,,,,,,,,,,,,,,,,,,,,,,,,,,,,,,,,,,,,,,,,,,,,,,,,,,,,,,,,,,,
0,46,46,28,1,,60315645c8c7420a2f1ade9c,62bbfb2f0e15271e2faad414,2022-06-29_09h21.34.541,Colour_Asymmetry_Pilot,2022.1.3,Win32,19.87913486,62bbe60bf3d75ef465d3e404,,,,,,,,,,,,,,,,,,,,,,,,,,,,,,,,,,,,,,,,,,,,,,,,,,,,,,,,,,,,,,,,,,,,,,,,,,,,,,,,,,,,,,,,,,,,,,,,,,,,,,,,,,,,,,,,,,,,,,,,,,,,,,,,,,,,,,,,,,,,,,,,,,,,,,,,,,,,,,
0,47,47,78,1,,60315645c8c7420a2f1ade9c,62bbfb2f0e15271e2faad414,2022-06-29_09h21.34.541,Colour_Asymmetry_Pilot,2022.1.3,Win32,19.87913486,62bbe60bf3d75ef465d3e404,,,,,,,,,,,,,,,,,,,,,,,,,,,,,,,,,,,,,,,,,,,,,,,,,,,,,,,,,,,,,,,,,,,,,,,,,,,,,,,,,,,,,,,,,,,,,,,,,,,,,,,,,,,,,,,,,,,,,,,,,,,,,,,,,,,,,,,,,,,,,,,,,,,,,,,,,,,,,,
0,48,48,46,1,,60315645c8c7420a2f1ade9c,62bbfb2f0e15271e2faad414,2022-06-29_09h21.34.541,Colour_Asymmetry_Pilot,2022.1.3,Win32,19.87913486,62bbe60bf3d75ef465d3e404,,,,,,,,,,,,,,,,,,,,,,,,,,,,,,,,,,,,,,,,,,,,,,,,,,,,,,,,,,,,,,,,,,,,,,,,,,,,,,,,,,,,,,,,,,,,,,,,,,,,,,,,,,,,,,,,,,,,,,,,,,,,,,,,,,,,,,,,,,,,,,,,,,,,,,,,,,,,,,
0,49,49,81,1,,60315645c8c7420a2f1ade9c,62bbfb2f0e15271e2faad414,2022-06-29_09h21.34.541,Colour_Asymmetry_Pilot,2022.1.3,Win32,19.87913486,62bbe60bf3d75ef465d3e404,,,,,,,,,,,,,,,,,,,,,,,,,,,,,,,,,,,,,,,,,,,,,,,,,,,,,,,,,,,,,,,,,,,,,,,,,,,,,,,,,,,,,,,,,,,,,,,,,,,,,,,,,,,,,,,,,,,,,,,,,,,,,,,,,,,,,,,,,,,,,,,,,,,,,,,,,,,,,,
0,50,50,52,1,,60315645c8c7420a2f1ade9c,62bbfb2f0e15271e2faad414,2022-06-29_09h21.34.541,Colour_Asymmetry_Pilot,2022.1.3,Win32,19.87913486,62bbe60bf3d75ef465d3e404,,,,,,,,,,,,,,,,,,,,,,,,,,,,,,,,,,,,,,,,,,,,,,,,,,,,,,,,,,,,,,,,,,,,,,,,,,,,,,,,,,,,,,,,,,,,,,,,,,,,,,,,,,,,,,,,,,,,,,,,,,,,,,,,,,,,,,,,,,,,,,,,,,,,,,,,,,,,,,
0,51,51,19,1,,60315645c8c7420a2f1ade9c,62bbfb2f0e15271e2faad414,2022-06-29_09h21.34.541,Colour_Asymmetry_Pilot,2022.1.3,Win32,19.87913486,62bbe60bf3d75ef465d3e404,,,,,,,,,,,,,,,,,,,,,,,,,,,,,,,,,,,,,,,,,,,,,,,,,,,,,,,,,,,,,,,,,,,,,,,,,,,,,,,,,,,,,,,,,,,,,,,,,,,,,,,,,,,,,,,,,,,,,,,,,,,,,,,,,,,,,,,,,,,,,,,,,,,,,,,,,,,,,,
0,52,52,30,1,,60315645c8c7420a2f1ade9c,62bbfb2f0e15271e2faad414,2022-06-29_09h21.34.541,Colour_Asymmetry_Pilot,2022.1.3,Win32,19.87913486,62bbe60bf3d75ef465d3e404,,,,,,,,,,,,,,,,,,,,,,,,,,,,,,,,,,,,,,,,,,,,,,,,,,,,,,,,,,,,,,,,,,,,,,,,,,,,,,,,,,,,,,,,,,,,,,,,,,,,,,,,,,,,,,,,,,,,,,,,,,,,,,,,,,,,,,,,,,,,,,,,,,,,,,,,,,,,,,
0,53,53,69,1,,60315645c8c7420a2f1ade9c,62bbfb2f0e15271e2faad414,2022-06-29_09h21.34.541,Colour_Asymmetry_Pilot,2022.1.3,Win32,19.87913486,62bbe60bf3d75ef465d3e404,,,,,,,,,,,,,,,,,,,,,,,,,,,,,,,,,,,,,,,,,,,,,,,,,,,,,,,,,,,,,,,,,,,,,,,,,,,,,,,,,,,,,,,,,,,,,,,,,,,,,,,,,,,,,,,,,,,,,,,,,,,,,,,,,,,,,,,,,,,,,,,,,,,,,,,,,,,,,,
0,54,54,66,1,,60315645c8c7420a2f1ade9c,62bbfb2f0e15271e2faad414,2022-06-29_09h21.34.541,Colour_Asymmetry_Pilot,2022.1.3,Win32,19.87913486,62bbe60bf3d75ef465d3e404,,,,,,,,,,,,,,,,,,,,,,,,,,,,,,,,,,,,,,,,,,,,,,,,,,,,,,,,,,,,,,,,,,,,,,,,,,,,,,,,,,,,,,,,,,,,,,,,,,,,,,,,,,,,,,,,,,,,,,,,,,,,,,,,,,,,,,,,,,,,,,,,,,,,,,,,,,,,,,
0,55,55,36,1,,60315645c8c7420a2f1ade9c,62bbfb2f0e15271e2faad414,2022-06-29_09h21.34.541,Colour_Asymmetry_Pilot,2022.1.3,Win32,19.87913486,62bbe60bf3d75ef465d3e404,,,,,,,,,,,,,,,,,,,,,,,,,,,,,,,,,,,,,,,,,,,,,,,,,,,,,,,,,,,,,,,,,,,,,,,,,,,,,,,,,,,,,,,,,,,,,,,,,,,,,,,,,,,,,,,,,,,,,,,,,,,,,,,,,,,,,,,,,,,,,,,,,,,,,,,,,,,,,,
0,56,56,48,1,,60315645c8c7420a2f1ade9c,62bbfb2f0e15271e2faad414,2022-06-29_09h21.34.541,Colour_Asymmetry_Pilot,2022.1.3,Win32,19.87913486,62bbe60bf3d75ef465d3e404,,,,,,,,,,,,,,,,,,,,,,,,,,,,,,,,,,,,,,,,,,,,,,,,,,,,,,,,,,,,,,,,,,,,,,,,,,,,,,,,,,,,,,,,,,,,,,,,,,,,,,,,,,,,,,,,,,,,,,,,,,,,,,,,,,,,,,,,,,,,,,,,,,,,,,,,,,,,,,
0,57,57,87,1,,60315645c8c7420a2f1ade9c,62bbfb2f0e15271e2faad414,2022-06-29_09h21.34.541,Colour_Asymmetry_Pilot,2022.1.3,Win32,19.87913486,62bbe60bf3d75ef465d3e404,,,,,,,,,,,,,,,,,,,,,,,,,,,,,,,,,,,,,,,,,,,,,,,,,,,,,,,,,,,,,,,,,,,,,,,,,,,,,,,,,,,,,,,,,,,,,,,,,,,,,,,,,,,,,,,,,,,,,,,,,,,,,,,,,,,,,,,,,,,,,,,,,,,,,,,,,,,,,,
0,58,58,24,1,,60315645c8c7420a2f1ade9c,62bbfb2f0e15271e2faad414,2022-06-29_09h21.34.541,Colour_Asymmetry_Pilot,2022.1.3,Win32,19.87913486,62bbe60bf3d75ef465d3e404,,,,,,,,,,,,,,,,,,,,,,,,,,,,,,,,,,,,,,,,,,,,,,,,,,,,,,,,,,,,,,,,,,,,,,,,,,,,,,,,,,,,,,,,,,,,,,,,,,,,,,,,,,,,,,,,,,,,,,,,,,,,,,,,,,,,,,,,,,,,,,,,,,,,,,,,,,,,,,
0,59,59,21,1,,60315645c8c7420a2f1ade9c,62bbfb2f0e15271e2faad414,2022-06-29_09h21.34.541,Colour_Asymmetry_Pilot,2022.1.3,Win32,19.87913486,62bbe60bf3d75ef465d3e404,,,,,,,,,,,,,,,,,,,,,,,,,,,,,,,,,,,,,,,,,,,,,,,,,,,,,,,,,,,,,,,,,,,,,,,,,,,,,,,,,,,,,,,,,,,,,,,,,,,,,,,,,,,,,,,,,,,,,,,,,,,,,,,,,,,,,,,,,,,,,,,,,,,,,,,,,,,,,,
0,60,60,4,1,,60315645c8c7420a2f1ade9c,62bbfb2f0e15271e2faad414,2022-06-29_09h21.34.541,Colour_Asymmetry_Pilot,2022.1.3,Win32,19.87913486,62bbe60bf3d75ef465d3e404,,,,,,,,,,,,,,,,,,,,,,,,,,,,,,,,,,,,,,,,,,,,,,,,,,,,,,,,,,,,,,,,,,,,,,,,,,,,,,,,,,,,,,,,,,,,,,,,,,,,,,,,,,,,,,,,,,,,,,,,,,,,,,,,,,,,,,,,,,,,,,,,,,,,,,,,,,,,,,
0,61,61,80,1,,60315645c8c7420a2f1ade9c,62bbfb2f0e15271e2faad414,2022-06-29_09h21.34.541,Colour_Asymmetry_Pilot,2022.1.3,Win32,19.87913486,62bbe60bf3d75ef465d3e404,,,,,,,,,,,,,,,,,,,,,,,,,,,,,,,,,,,,,,,,,,,,,,,,,,,,,,,,,,,,,,,,,,,,,,,,,,,,,,,,,,,,,,,,,,,,,,,,,,,,,,,,,,,,,,,,,,,,,,,,,,,,,,,,,,,,,,,,,,,,,,,,,,,,,,,,,,,,,,
0,62,62,43,1,,60315645c8c7420a2f1ade9c,62bbfb2f0e15271e2faad414,2022-06-29_09h21.34.541,Colour_Asymmetry_Pilot,2022.1.3,Win32,19.87913486,62bbe60bf3d75ef465d3e404,,,,,,,,,,,,,,,,,,,,,,,,,,,,,,,,,,,,,,,,,,,,,,,,,,,,,,,,,,,,,,,,,,,,,,,,,,,,,,,,,,,,,,,,,,,,,,,,,,,,,,,,,,,,,,,,,,,,,,,,,,,,,,,,,,,,,,,,,,,,,,,,,,,,,,,,,,,,,,
0,63,63,2,1,,60315645c8c7420a2f1ade9c,62bbfb2f0e15271e2faad414,2022-06-29_09h21.34.541,Colour_Asymmetry_Pilot,2022.1.3,Win32,19.87913486,62bbe60bf3d75ef465d3e404,,,,,,,,,,,,,,,,,,,,,,,,,,,,,,,,,,,,,,,,,,,,,,,,,,,,,,,,,,,,,,,,,,,,,,,,,,,,,,,,,,,,,,,,,,,,,,,,,,,,,,,,,,,,,,,,,,,,,,,,,,,,,,,,,,,,,,,,,,,,,,,,,,,,,,,,,,,,,,
0,64,64,18,1,,60315645c8c7420a2f1ade9c,62bbfb2f0e15271e2faad414,2022-06-29_09h21.34.541,Colour_Asymmetry_Pilot,2022.1.3,Win32,19.87913486,62bbe60bf3d75ef465d3e404,,,,,,,,,,,,,,,,,,,,,,,,,,,,,,,,,,,,,,,,,,,,,,,,,,,,,,,,,,,,,,,,,,,,,,,,,,,,,,,,,,,,,,,,,,,,,,,,,,,,,,,,,,,,,,,,,,,,,,,,,,,,,,,,,,,,,,,,,,,,,,,,,,,,,,,,,,,,,,
0,65,65,61,1,,60315645c8c7420a2f1ade9c,62bbfb2f0e15271e2faad414,2022-06-29_09h21.34.541,Colour_Asymmetry_Pilot,2022.1.3,Win32,19.87913486,62bbe60bf3d75ef465d3e404,,,,,,,,,,,,,,,,,,,,,,,,,,,,,,,,,,,,,,,,,,,,,,,,,,,,,,,,,,,,,,,,,,,,,,,,,,,,,,,,,,,,,,,,,,,,,,,,,,,,,,,,,,,,,,,,,,,,,,,,,,,,,,,,,,,,,,,,,,,,,,,,,,,,,,,,,,,,,,
0,66,66,14,1,,60315645c8c7420a2f1ade9c,62bbfb2f0e15271e2faad414,2022-06-29_09h21.34.541,Colour_Asymmetry_Pilot,2022.1.3,Win32,19.87913486,62bbe60bf3d75ef465d3e404,,,,,,,,,,,,,,,,,,,,,,,,,,,,,,,,,,,,,,,,,,,,,,,,,,,,,,,,,,,,,,,,,,,,,,,,,,,,,,,,,,,,,,,,,,,,,,,,,,,,,,,,,,,,,,,,,,,,,,,,,,,,,,,,,,,,,,,,,,,,,,,,,,,,,,,,,,,,,,
0,67,67,22,1,,60315645c8c7420a2f1ade9c,62bbfb2f0e15271e2faad414,2022-06-29_09h21.34.541,Colour_Asymmetry_Pilot,2022.1.3,Win32,19.87913486,62bbe60bf3d75ef465d3e404,,,,,,,,,,,,,,,,,,,,,,,,,,,,,,,,,,,,,,,,,,,,,,,,,,,,,,,,,,,,,,,,,,,,,,,,,,,,,,,,,,,,,,,,,,,,,,,,,,,,,,,,,,,,,,,,,,,,,,,,,,,,,,,,,,,,,,,,,,,,,,,,,,,,,,,,,,,,,,
0,68,68,40,1,,60315645c8c7420a2f1ade9c,62bbfb2f0e15271e2faad414,2022-06-29_09h21.34.541,Colour_Asymmetry_Pilot,2022.1.3,Win32,19.87913486,62bbe60bf3d75ef465d3e404,,,,,,,,,,,,,,,,,,,,,,,,,,,,,,,,,,,,,,,,,,,,,,,,,,,,,,,,,,,,,,,,,,,,,,,,,,,,,,,,,,,,,,,,,,,,,,,,,,,,,,,,,,,,,,,,,,,,,,,,,,,,,,,,,,,,,,,,,,,,,,,,,,,,,,,,,,,,,,
0,69,69,37,1,,60315645c8c7420a2f1ade9c,62bbfb2f0e15271e2faad414,2022-06-29_09h21.34.541,Colour_Asymmetry_Pilot,2022.1.3,Win32,19.87913486,62bbe60bf3d75ef465d3e404,,,,,,,,,,,,,,,,,,,,,,,,,,,,,,,,,,,,,,,,,,,,,,,,,,,,,,,,,,,,,,,,,,,,,,,,,,,,,,,,,,,,,,,,,,,,,,,,,,,,,,,,,,,,,,,,,,,,,,,,,,,,,,,,,,,,,,,,,,,,,,,,,,,,,,,,,,,,,,
0,70,70,5,1,,60315645c8c7420a2f1ade9c,62bbfb2f0e15271e2faad414,2022-06-29_09h21.34.541,Colour_Asymmetry_Pilot,2022.1.3,Win32,19.87913486,62bbe60bf3d75ef465d3e404,,,,,,,,,,,,,,,,,,,,,,,,,,,,,,,,,,,,,,,,,,,,,,,,,,,,,,,,,,,,,,,,,,,,,,,,,,,,,,,,,,,,,,,,,,,,,,,,,,,,,,,,,,,,,,,,,,,,,,,,,,,,,,,,,,,,,,,,,,,,,,,,,,,,,,,,,,,,,,
0,71,71,60,1,,60315645c8c7420a2f1ade9c,62bbfb2f0e15271e2faad414,2022-06-29_09h21.34.541,Colour_Asymmetry_Pilot,2022.1.3,Win32,19.87913486,62bbe60bf3d75ef465d3e404,,,,,,,,,,,,,,,,,,,,,,,,,,,,,,,,,,,,,,,,,,,,,,,,,,,,,,,,,,,,,,,,,,,,,,,,,,,,,,,,,,,,,,,,,,,,,,,,,,,,,,,,,,,,,,,,,,,,,,,,,,,,,,,,,,,,,,,,,,,,,,,,,,,,,,,,,,,,,,
0,72,72,35,1,,60315645c8c7420a2f1ade9c,62bbfb2f0e15271e2faad414,2022-06-29_09h21.34.541,Colour_Asymmetry_Pilot,2022.1.3,Win32,19.87913486,62bbe60bf3d75ef465d3e404,,,,,,,,,,,,,,,,,,,,,,,,,,,,,,,,,,,,,,,,,,,,,,,,,,,,,,,,,,,,,,,,,,,,,,,,,,,,,,,,,,,,,,,,,,,,,,,,,,,,,,,,,,,,,,,,,,,,,,,,,,,,,,,,,,,,,,,,,,,,,,,,,,,,,,,,,,,,,,
0,73,73,1,1,,60315645c8c7420a2f1ade9c,62bbfb2f0e15271e2faad414,2022-06-29_09h21.34.541,Colour_Asymmetry_Pilot,2022.1.3,Win32,19.87913486,62bbe60bf3d75ef465d3e404,,,,,,,,,,,,,,,,,,,,,,,,,,,,,,,,,,,,,,,,,,,,,,,,,,,,,,,,,,,,,,,,,,,,,,,,,,,,,,,,,,,,,,,,,,,,,,,,,,,,,,,,,,,,,,,,,,,,,,,,,,,,,,,,,,,,,,,,,,,,,,,,,,,,,,,,,,,,,,
0,74,74,8,1,,60315645c8c7420a2f1ade9c,62bbfb2f0e15271e2faad414,2022-06-29_09h21.34.541,Colour_Asymmetry_Pilot,2022.1.3,Win32,19.87913486,62bbe60bf3d75ef465d3e404,,,,,,,,,,,,,,,,,,,,,,,,,,,,,,,,,,,,,,,,,,,,,,,,,,,,,,,,,,,,,,,,,,,,,,,,,,,,,,,,,,,,,,,,,,,,,,,,,,,,,,,,,,,,,,,,,,,,,,,,,,,,,,,,,,,,,,,,,,,,,,,,,,,,,,,,,,,,,,
0,75,75,20,1,,60315645c8c7420a2f1ade9c,62bbfb2f0e15271e2faad414,2022-06-29_09h21.34.541,Colour_Asymmetry_Pilot,2022.1.3,Win32,19.87913486,62bbe60bf3d75ef465d3e404,,,,,,,,,,,,,,,,,,,,,,,,,,,,,,,,,,,,,,,,,,,,,,,,,,,,,,,,,,,,,,,,,,,,,,,,,,,,,,,,,,,,,,,,,,,,,,,,,,,,,,,,,,,,,,,,,,,,,,,,,,,,,,,,,,,,,,,,,,,,,,,,,,,,,,,,,,,,,,
0,76,76,88,1,,60315645c8c7420a2f1ade9c,62bbfb2f0e15271e2faad414,2022-06-29_09h21.34.541,Colour_Asymmetry_Pilot,2022.1.3,Win32,19.87913486,62bbe60bf3d75ef465d3e404,,,,,,,,,,,,,,,,,,,,,,,,,,,,,,,,,,,,,,,,,,,,,,,,,,,,,,,,,,,,,,,,,,,,,,,,,,,,,,,,,,,,,,,,,,,,,,,,,,,,,,,,,,,,,,,,,,,,,,,,,,,,,,,,,,,,,,,,,,,,,,,,,,,,,,,,,,,,,,
0,77,77,9,1,,60315645c8c7420a2f1ade9c,62bbfb2f0e15271e2faad414,2022-06-29_09h21.34.541,Colour_Asymmetry_Pilot,2022.1.3,Win32,19.87913486,62bbe60bf3d75ef465d3e404,,,,,,,,,,,,,,,,,,,,,,,,,,,,,,,,,,,,,,,,,,,,,,,,,,,,,,,,,,,,,,,,,,,,,,,,,,,,,,,,,,,,,,,,,,,,,,,,,,,,,,,,,,,,,,,,,,,,,,,,,,,,,,,,,,,,,,,,,,,,,,,,,,,,,,,,,,,,,,
0,78,78,75,1,,60315645c8c7420a2f1ade9c,62bbfb2f0e15271e2faad414,2022-06-29_09h21.34.541,Colour_Asymmetry_Pilot,2022.1.3,Win32,19.87913486,62bbe60bf3d75ef465d3e404,,,,,,,,,,,,,,,,,,,,,,,,,,,,,,,,,,,,,,,,,,,,,,,,,,,,,,,,,,,,,,,,,,,,,,,,,,,,,,,,,,,,,,,,,,,,,,,,,,,,,,,,,,,,,,,,,,,,,,,,,,,,,,,,,,,,,,,,,,,,,,,,,,,,,,,,,,,,,,
0,79,79,31,1,,60315645c8c7420a2f1ade9c,62bbfb2f0e15271e2faad414,2022-06-29_09h21.34.541,Colour_Asymmetry_Pilot,2022.1.3,Win32,19.87913486,62bbe60bf3d75ef465d3e404,,,,,,,,,,,,,,,,,,,,,,,,,,,,,,,,,,,,,,,,,,,,,,,,,,,,,,,,,,,,,,,,,,,,,,,,,,,,,,,,,,,,,,,,,,,,,,,,,,,,,,,,,,,,,,,,,,,,,,,,,,,,,,,,,,,,,,,,,,,,,,,,,,,,,,,,,,,,,,
0,80,80,38,1,,60315645c8c7420a2f1ade9c,62bbfb2f0e15271e2faad414,2022-06-29_09h21.34.541,Colour_Asymmetry_Pilot,2022.1.3,Win32,19.87913486,62bbe60bf3d75ef465d3e404,,,,,,,,,,,,,,,,,,,,,,,,,,,,,,,,,,,,,,,,,,,,,,,,,,,,,,,,,,,,,,,,,,,,,,,,,,,,,,,,,,,,,,,,,,,,,,,,,,,,,,,,,,,,,,,,,,,,,,,,,,,,,,,,,,,,,,,,,,,,,,,,,,,,,,,,,,,,,,
0,81,81,15,1,,60315645c8c7420a2f1ade9c,62bbfb2f0e15271e2faad414,2022-06-29_09h21.34.541,Colour_Asymmetry_Pilot,2022.1.3,Win32,19.87913486,62bbe60bf3d75ef465d3e404,,,,,,,,,,,,,,,,,,,,,,,,,,,,,,,,,,,,,,,,,,,,,,,,,,,,,,,,,,,,,,,,,,,,,,,,,,,,,,,,,,,,,,,,,,,,,,,,,,,,,,,,,,,,,,,,,,,,,,,,,,,,,,,,,,,,,,,,,,,,,,,,,,,,,,,,,,,,,,
0,82,82,51,1,,60315645c8c7420a2f1ade9c,62bbfb2f0e15271e2faad414,2022-06-29_09h21.34.541,Colour_Asymmetry_Pilot,2022.1.3,Win32,19.87913486,62bbe60bf3d75ef465d3e404,,,,,,,,,,,,,,,,,,,,,,,,,,,,,,,,,,,,,,,,,,,,,,,,,,,,,,,,,,,,,,,,,,,,,,,,,,,,,,,,,,,,,,,,,,,,,,,,,,,,,,,,,,,,,,,,,,,,,,,,,,,,,,,,,,,,,,,,,,,,,,,,,,,,,,,,,,,,,,
0,83,83,0,1,,60315645c8c7420a2f1ade9c,62bbfb2f0e15271e2faad414,2022-06-29_09h21.34.541,Colour_Asymmetry_Pilot,2022.1.3,Win32,19.87913486,62bbe60bf3d75ef465d3e404,,,,,,,,,,,,,,,,,,,,,,,,,,,,,,,,,,,,,,,,,,,,,,,,,,,,,,,,,,,,,,,,,,,,,,,,,,,,,,,,,,,,,,,,,,,,,,,,,,,,,,,,,,,,,,,,,,,,,,,,,,,,,,,,,,,,,,,,,,,,,,,,,,,,,,,,,,,,,,
0,84,84,74,1,,60315645c8c7420a2f1ade9c,62bbfb2f0e15271e2faad414,2022-06-29_09h21.34.541,Colour_Asymmetry_Pilot,2022.1.3,Win32,19.87913486,62bbe60bf3d75ef465d3e404,,,,,,,,,,,,,,,,,,,,,,,,,,,,,,,,,,,,,,,,,,,,,,,,,,,,,,,,,,,,,,,,,,,,,,,,,,,,,,,,,,,,,,,,,,,,,,,,,,,,,,,,,,,,,,,,,,,,,,,,,,,,,,,,,,,,,,,,,,,,,,,,,,,,,,,,,,,,,,
0,85,85,70,1,,60315645c8c7420a2f1ade9c,62bbfb2f0e15271e2faad414,2022-06-29_09h21.34.541,Colour_Asymmetry_Pilot,2022.1.3,Win32,19.87913486,62bbe60bf3d75ef465d3e404,,,,,,,,,,,,,,,,,,,,,,,,,,,,,,,,,,,,,,,,,,,,,,,,,,,,,,,,,,,,,,,,,,,,,,,,,,,,,,,,,,,,,,,,,,,,,,,,,,,,,,,,,,,,,,,,,,,,,,,,,,,,,,,,,,,,,,,,,,,,,,,,,,,,,,,,,,,,,,
0,86,86,34,1,,60315645c8c7420a2f1ade9c,62bbfb2f0e15271e2faad414,2022-06-29_09h21.34.541,Colour_Asymmetry_Pilot,2022.1.3,Win32,19.87913486,62bbe60bf3d75ef465d3e404,,,,,,,,,,,,,,,,,,,,,,,,,,,,,,,,,,,,,,,,,,,,,,,,,,,,,,,,,,,,,,,,,,,,,,,,,,,,,,,,,,,,,,,,,,,,,,,,,,,,,,,,,,,,,,,,,,,,,,,,,,,,,,,,,,,,,,,,,,,,,,,,,,,,,,,,,,,,,,
0,87,87,72,1,,60315645c8c7420a2f1ade9c,62bbfb2f0e15271e2faad414,2022-06-29_09h21.34.541,Colour_Asymmetry_Pilot,2022.1.3,Win32,19.87913486,62bbe60bf3d75ef465d3e404,,,,,,,,,,,,,,,,,,,,,,,,,,,,,,,,,,,,,,,,,,,,,,,,,,,,,,,,,,,,,,,,,,,,,,,,,,,,,,,,,,,,,,,,,,,,,,,,,,,,,,,,,,,,,,,,,,,,,,,,,,,,,,,,,,,,,,,,,,,,,,,,,,,,,,,,,,,,,,
0,88,88,77,1,,60315645c8c7420a2f1ade9c,62bbfb2f0e15271e2faad414,2022-06-29_09h21.34.541,Colour_Asymmetry_Pilot,2022.1.3,Win32,19.87913486,62bbe60bf3d75ef465d3e404,,,,,,,,,,,,,,,,,,,,,,,,,,,,,,,,,,,,,,,,,,,,,,,,,,,,,,,,,,,,,,,,,,,,,,,,,,,,,,,,,,,,,,,,,,,,,,,,,,,,,,,,,,,,,,,,,,,,,,,,,,,,,,,,,,,,,,,,,,,,,,,,,,,,,,,,,,,,,,
0,89,89,67,1,,60315645c8c7420a2f1ade9c,62bbfb2f0e15271e2faad414,2022-06-29_09h21.34.541,Colour_Asymmetry_Pilot,2022.1.3,Win32,19.87913486,62bbe60bf3d75ef465d3e404,,,,,,,,,,,,,,,,,,,,,,,,,,,,,,,,,,,,,,,,,,,,,,,,,,,,,,,,,,,,,,,,,,,,,,,,,,,,,,,,,,,,,,,,,,,,,,,,,,,,,,,,,,,,,,,,,,,,,,,,,,,,,,,,,,,,,,,,,,,,,,,,,,,,,,,,,,,,,,
0,90,90,65,1,,60315645c8c7420a2f1ade9c,62bbfb2f0e15271e2faad414,2022-06-29_09h21.34.541,Colour_Asymmetry_Pilot,2022.1.3,Win32,19.87913486,62bbe60bf3d75ef465d3e404,,,,,,,,,,,,,,,,,,,,,,,,,,,,,,,,,,,,,,,,,,,,,,,,,,,,,,,,,,,,,,,,,,,,,,,,,,,,,,,,,,,,,,,,,,,,,,,,,,,,,,,,,,,,,,,,,,,,,,,,,,,,,,,,,,,,,,,,,,,,,,,,,,,,,,,,,,,,,,
0,91,91,58,1,,60315645c8c7420a2f1ade9c,62bbfb2f0e15271e2faad414,2022-06-29_09h21.34.541,Colour_Asymmetry_Pilot,2022.1.3,Win32,19.87913486,62bbe60bf3d75ef465d3e404,,,,,,,,,,,,,,,,,,,,,,,,,,,,,,,,,,,,,,,,,,,,,,,,,,,,,,,,,,,,,,,,,,,,,,,,,,,,,,,,,,,,,,,,,,,,,,,,,,,,,,,,,,,,,,,,,,,,,,,,,,,,,,,,,,,,,,,,,,,,,,,,,,,,,,,,,,,,,,
0,92,92,82,1,,60315645c8c7420a2f1ade9c,62bbfb2f0e15271e2faad414,2022-06-29_09h21.34.541,Colour_Asymmetry_Pilot,2022.1.3,Win32,19.87913486,62bbe60bf3d75ef465d3e404,,,,,,,,,,,,,,,,,,,,,,,,,,,,,,,,,,,,,,,,,,,,,,,,,,,,,,,,,,,,,,,,,,,,,,,,,,,,,,,,,,,,,,,,,,,,,,,,,,,,,,,,,,,,,,,,,,,,,,,,,,,,,,,,,,,,,,,,,,,,,,,,,,,,,,,,,,,,,,
,,,,,,60315645c8c7420a2f1ade9c,62bbfb2f0e15271e2faad414,2022-06-29_09h21.34.541,Colour_Asymmetry_Pilot,2022.1.3,Win32,19.87913486,62bbe60bf3d75ef465d3e404,0,0,0,6,1,fourtwo,,,,,,,,,,,,,,,,,,,,,,,,,,,,,,,,,,,,,,,,,,,,,,,,,,,,,,,,,,,,,,,,,,,,,,,,,,,,,,,,,,,,,,,,,,,,,,,,,,,,,,,,,,,,,,,,,,,,,,,,,,,,,,,,,,,,,,,,,,,,,,,,,,,,,,,,
,,,,,,60315645c8c7420a2f1ade9c,62bbfb2f0e15271e2faad414,2022-06-29_09h21.34.541,Colour_Asymmetry_Pilot,2022.1.3,Win32,19.87913486,62bbe60bf3d75ef465d3e404,0,1,1,31,1,fourthree,,,,,,,,,,,,,,,,,,,,,,,,,,,,,,,,,,,,,,,,,,,,,,,,,,,,,,,,,,,,,,,,,,,,,,,,,,,,,,,,,,,,,,,,,,,,,,,,,,,,,,,,,,,,,,,,,,,,,,,,,,,,,,,,,,,,,,,,,,,,,,,,,,,,,,,,
,,,,,,60315645c8c7420a2f1ade9c,62bbfb2f0e15271e2faad414,2022-06-29_09h21.34.541,Colour_Asymmetry_Pilot,2022.1.3,Win32,19.87913486,62bbe60bf3d75ef465d3e404,0,2,2,110,1,fourtwo,,,,,,,,,,,,,,,,,,,,,,,,,,,,,,,,,,,,,,,,,,,,,,,,,,,,,,,,,,,,,,,,,,,,,,,,,,,,,,,,,,,,,,,,,,,,,,,,,,,,,,,,,,,,,,,,,,,,,,,,,,,,,,,,,,,,,,,,,,,,,,,,,,,,,,,,
,,,,,,60315645c8c7420a2f1ade9c,62bbfb2f0e15271e2faad414,2022-06-29_09h21.34.541,Colour_Asymmetry_Pilot,2022.1.3,Win32,19.87913486,62bbe60bf3d75ef465d3e404,0,3,3,132,1,threeone,,,,,,,,,,,,,,,,,,,,,,,,,,,,,,,,,,,,,,,,,,,,,,,,,,,,,,,,,,,,,,,,,,,,,,,,,,,,,,,,,,,,,,,,,,,,,,,,,,,,,,,,,,,,,,,,,,,,,,,,,,,,,,,,,,,,,,,,,,,,,,,,,,,,,,,,
,,,,,,60315645c8c7420a2f1ade9c,62bbfb2f0e15271e2faad414,2022-06-29_09h21.34.541,Colour_Asymmetry_Pilot,2022.1.3,Win32,19.87913486,62bbe60bf3d75ef465d3e404,0,4,4,38,1,fourtwo,,,,,,,,,,,,,,,,,,,,,,,,,,,,,,,,,,,,,,,,,,,,,,,,,,,,,,,,,,,,,,,,,,,,,,,,,,,,,,,,,,,,,,,,,,,,,,,,,,,,,,,,,,,,,,,,,,,,,,,,,,,,,,,,,,,,,,,,,,,,,,,,,,,,,,,,
,,,,,,60315645c8c7420a2f1ade9c,62bbfb2f0e15271e2faad414,2022-06-29_09h21.34.541,Colour_Asymmetry_Pilot,2022.1.3,Win32,19.87913486,62bbe60bf3d75ef465d3e404,0,5,5,80,1,onetwo,,,,,,,,,,,,,,,,,,,,,,,,,,,,,,,,,,,,,,,,,,,,,,,,,,,,,,,,,,,,,,,,,,,,,,,,,,,,,,,,,,,,,,,,,,,,,,,,,,,,,,,,,,,,,,,,,,,,,,,,,,,,,,,,,,,,,,,,,,,,,,,,,,,,,,,,
,,,,,,60315645c8c7420a2f1ade9c,62bbfb2f0e15271e2faad414,2022-06-29_09h21.34.541,Colour_Asymmetry_Pilot,2022.1.3,Win32,19.87913486,62bbe60bf3d75ef465d3e404,0,6,6,131,1,twofour,,,,,,,,,,,,,,,,,,,,,,,,,,,,,,,,,,,,,,,,,,,,,,,,,,,,,,,,,,,,,,,,,,,,,,,,,,,,,,,,,,,,,,,,,,,,,,,,,,,,,,,,,,,,,,,,,,,,,,,,,,,,,,,,,,,,,,,,,,,,,,,,,,,,,,,,
,,,,,,60315645c8c7420a2f1ade9c,62bbfb2f0e15271e2faad414,2022-06-29_09h21.34.541,Colour_Asymmetry_Pilot,2022.1.3,Win32,19.87913486,62bbe60bf3d75ef465d3e404,0,7,7,62,1,fourtwo,,,,,,,,,,,,,,,,,,,,,,,,,,,,,,,,,,,,,,,,,,,,,,,,,,,,,,,,,,,,,,,,,,,,,,,,,,,,,,,,,,,,,,,,,,,,,,,,,,,,,,,,,,,,,,,,,,,,,,,,,,,,,,,,,,,,,,,,,,,,,,,,,,,,,,,,
,,,,,,60315645c8c7420a2f1ade9c,62bbfb2f0e15271e2faad414,2022-06-29_09h21.34.541,Colour_Asymmetry_Pilot,2022.1.3,Win32,19.87913486,62bbe60bf3d75ef465d3e404,0,8,8,45,1,threefour,,,,,,,,,,,,,,,,,,,,,,,,,,,,,,,,,,,,,,,,,,,,,,,,,,,,,,,,,,,,,,,,,,,,,,,,,,,,,,,,,,,,,,,,,,,,,,,,,,,,,,,,,,,,,,,,,,,,,,,,,,,,,,,,,,,,,,,,,,,,,,,,,,,,,,,,
,,,,,,60315645c8c7420a2f1ade9c,62bbfb2f0e15271e2faad414,2022-06-29_09h21.34.541,Colour_Asymmetry_Pilot,2022.1.3,Win32,19.87913486,62bbe60bf3d75ef465d3e404,0,9,9,54,1,fourtwo,,,,,,,,,,,,,,,,,,,,,,,,,,,,,,,,,,,,,,,,,,,,,,,,,,,,,,,,,,,,,,,,,,,,,,,,,,,,,,,,,,,,,,,,,,,,,,,,,,,,,,,,,,,,,,,,,,,,,,,,,,,,,,,,,,,,,,,,,,,,,,,,,,,,,,,,
,,,,,,60315645c8c7420a2f1ade9c,62bbfb2f0e15271e2faad414,2022-06-29_09h21.34.541,Colour_Asymmetry_Pilot,2022.1.3,Win32,19.87913486,62bbe60bf3d75ef465d3e404,0,10,10,41,1,onethree,,,,,,,,,,,,,,,,,,,,,,,,,,,,,,,,,,,,,,,,,,,,,,,,,,,,,,,,,,,,,,,,,,,,,,,,,,,,,,,,,,,,,,,,,,,,,,,,,,,,,,,,,,,,,,,,,,,,,,,,,,,,,,,,,,,,,,,,,,,,,,,,,,,,,,,,
,,,,,,60315645c8c7420a2f1ade9c,62bbfb2f0e15271e2faad414,2022-06-29_09h21.34.541,Colour_Asymmetry_Pilot,2022.1.3,Win32,19.87913486,62bbe60bf3d75ef465d3e404,0,11,11,13,1,threefour,,,,,,,,,,,,,,,,,,,,,,,,,,,,,,,,,,,,,,,,,,,,,,,,,,,,,,,,,,,,,,,,,,,,,,,,,,,,,,,,,,,,,,,,,,,,,,,,,,,,,,,,,,,,,,,,,,,,,,,,,,,,,,,,,,,,,,,,,,,,,,,,,,,,,,,,
,,,,,,60315645c8c7420a2f1ade9c,62bbfb2f0e15271e2faad414,2022-06-29_09h21.34.541,Colour_Asymmetry_Pilot,2022.1.3,Win32,19.87913486,62bbe60bf3d75ef465d3e404,0,12,12,150,1,fourtwo,,,,,,,,,,,,,,,,,,,,,,,,,,,,,,,,,,,,,,,,,,,,,,,,,,,,,,,,,,,,,,,,,,,,,,,,,,,,,,,,,,,,,,,,,,,,,,,,,,,,,,,,,,,,,,,,,,,,,,,,,,,,,,,,,,,,,,,,,,,,,,,,,,,,,,,,
,,,,,,60315645c8c7420a2f1ade9c,62bbfb2f0e15271e2faad414,2022-06-29_09h21.34.541,Colour_Asymmetry_Pilot,2022.1.3,Win32,19.87913486,62bbe60bf3d75ef465d3e404,0,13,13,52,1,threeone,,,,,,,,,,,,,,,,,,,,,,,,,,,,,,,,,,,,,,,,,,,,,,,,,,,,,,,,,,,,,,,,,,,,,,,,,,,,,,,,,,,,,,,,,,,,,,,,,,,,,,,,,,,,,,,,,,,,,,,,,,,,,,,,,,,,,,,,,,,,,,,,,,,,,,,,
,,,,,,60315645c8c7420a2f1ade9c,62bbfb2f0e15271e2faad414,2022-06-29_09h21.34.541,Colour_Asymmetry_Pilot,2022.1.3,Win32,19.87913486,62bbe60bf3d75ef465d3e404,0,14,14,139,1,twofour,,,,,,,,,,,,,,,,,,,,,,,,,,,,,,,,,,,,,,,,,,,,,,,,,,,,,,,,,,,,,,,,,,,,,,,,,,,,,,,,,,,,,,,,,,,,,,,,,,,,,,,,,,,,,,,,,,,,,,,,,,,,,,,,,,,,,,,,,,,,,,,,,,,,,,,,
,,,,,,60315645c8c7420a2f1ade9c,62bbfb2f0e15271e2faad414,2022-06-29_09h21.34.541,Colour_Asymmetry_Pilot,2022.1.3,Win32,19.87913486,62bbe60bf3d75ef465d3e404,0,15,15,16,1,onetwo,,,,,,,,,,,,,,,,,,,,,,,,,,,,,,,,,,,,,,,,,,,,,,,,,,,,,,,,,,,,,,,,,,,,,,,,,,,,,,,,,,,,,,,,,,,,,,,,,,,,,,,,,,,,,,,,,,,,,,,,,,,,,,,,,,,,,,,,,,,,,,,,,,,,,,,,
,,,,,,60315645c8c7420a2f1ade9c,62bbfb2f0e15271e2faad414,2022-06-29_09h21.34.541,Colour_Asymmetry_Pilot,2022.1.3,Win32,19.87913486,62bbe60bf3d75ef465d3e404,0,16,16,140,1,threeone,,,,,,,,,,,,,,,,,,,,,,,,,,,,,,,,,,,,,,,,,,,,,,,,,,,,,,,,,,,,,,,,,,,,,,,,,,,,,,,,,,,,,,,,,,,,,,,,,,,,,,,,,,,,,,,,,,,,,,,,,,,,,,,,,,,,,,,,,,,,,,,,,,,,,,,,
,,,,,,60315645c8c7420a2f1ade9c,62bbfb2f0e15271e2faad414,2022-06-29_09h21.34.541,Colour_Asymmetry_Pilot,2022.1.3,Win32,19.87913486,62bbe60bf3d75ef465d3e404,0,17,17,8,1,onetwo,,,,,,,,,,,,,,,,,,,,,,,,,,,,,,,,,,,,,,,,,,,,,,,,,,,,,,,,,,,,,,,,,,,,,,,,,,,,,,,,,,,,,,,,,,,,,,,,,,,,,,,,,,,,,,,,,,,,,,,,,,,,,,,,,,,,,,,,,,,,,,,,,,,,,,,,
,,,,,,60315645c8c7420a2f1ade9c,62bbfb2f0e15271e2faad414,2022-06-29_09h21.34.541,Colour_Asymmetry_Pilot,2022.1.3,Win32,19.87913486,62bbe60bf3d75ef465d3e404,0,18,18,50,1,twoone,,,,,,,,,,,,,,,,,,,,,,,,,,,,,,,,,,,,,,,,,,,,,,,,,,,,,,,,,,,,,,,,,,,,,,,,,,,,,,,,,,,,,,,,,,,,,,,,,,,,,,,,,,,,,,,,,,,,,,,,,,,,,,,,,,,,,,,,,,,,,,,,,,,,,,,,
,,,,,,60315645c8c7420a2f1ade9c,62bbfb2f0e15271e2faad414,2022-06-29_09h21.34.541,Colour_Asymmetry_Pilot,2022.1.3,Win32,19.87913486,62bbe60bf3d75ef465d3e404,0,19,19,84,1,threeone,,,,,,,,,,,,,,,,,,,,,,,,,,,,,,,,,,,,,,,,,,,,,,,,,,,,,,,,,,,,,,,,,,,,,,,,,,,,,,,,,,,,,,,,,,,,,,,,,,,,,,,,,,,,,,,,,,,,,,,,,,,,,,,,,,,,,,,,,,,,,,,,,,,,,,,,
,,,,,,60315645c8c7420a2f1ade9c,62bbfb2f0e15271e2faad414,2022-06-29_09h21.34.541,Colour_Asymmetry_Pilot,2022.1.3,Win32,19.87913486,62bbe60bf3d75ef465d3e404,0,20,20,149,1,threefour,,,,,,,,,,,,,,,,,,,,,,,,,,,,,,,,,,,,,,,,,,,,,,,,,,,,,,,,,,,,,,,,,,,,,,,,,,,,,,,,,,,,,,,,,,,,,,,,,,,,,,,,,,,,,,,,,,,,,,,,,,,,,,,,,,,,,,,,,,,,,,,,,,,,,,,,
,,,,,,60315645c8c7420a2f1ade9c,62bbfb2f0e15271e2faad414,2022-06-29_09h21.34.541,Colour_Asymmetry_Pilot,2022.1.3,Win32,19.87913486,62bbe60bf3d75ef465d3e404,0,21,21,22,1,fourtwo,,,,,,,,,,,,,,,,,,,,,,,,,,,,,,,,,,,,,,,,,,,,,,,,,,,,,,,,,,,,,,,,,,,,,,,,,,,,,,,,,,,,,,,,,,,,,,,,,,,,,,,,,,,,,,,,,,,,,,,,,,,,,,,,,,,,,,,,,,,,,,,,,,,,,,,,
,,,,,,60315645c8c7420a2f1ade9c,62bbfb2f0e15271e2faad414,2022-06-29_09h21.34.541,Colour_Asymmetry_Pilot,2022.1.3,Win32,19.87913486,62bbe60bf3d75ef465d3e404,0,22,22,134,1,fourtwo,,,,,,,,,,,,,,,,,,,,,,,,,,,,,,,,,,,,,,,,,,,,,,,,,,,,,,,,,,,,,,,,,,,,,,,,,,,,,,,,,,,,,,,,,,,,,,,,,,,,,,,,,,,,,,,,,,,,,,,,,,,,,,,,,,,,,,,,,,,,,,,,,,,,,,,,
,,,,,,60315645c8c7420a2f1ade9c,62bbfb2f0e15271e2faad414,2022-06-29_09h21.34.541,Colour_Asymmetry_Pilot,2022.1.3,Win32,19.87913486,62bbe60bf3d75ef465d3e404,0,23,23,85,1,threefour,,,,,,,,,,,,,,,,,,,,,,,,,,,,,,,,,,,,,,,,,,,,,,,,,,,,,,,,,,,,,,,,,,,,,,,,,,,,,,,,,,,,,,,,,,,,,,,,,,,,,,,,,,,,,,,,,,,,,,,,,,,,,,,,,,,,,,,,,,,,,,,,,,,,,,,,
,,,,,,60315645c8c7420a2f1ade9c,62bbfb2f0e15271e2faad414,2022-06-29_09h21.34.541,Colour_Asymmetry_Pilot,2022.1.3,Win32,19.87913486,62bbe60bf3d75ef465d3e404,0,24,24,87,1,fourthree,,,,,,,,,,,,,,,,,,,,,,,,,,,,,,,,,,,,,,,,,,,,,,,,,,,,,,,,,,,,,,,,,,,,,,,,,,,,,,,,,,,,,,,,,,,,,,,,,,,,,,,,,,,,,,,,,,,,,,,,,,,,,,,,,,,,,,,,,,,,,,,,,,,,,,,,
,,,,,,60315645c8c7420a2f1ade9c,62bbfb2f0e15271e2faad414,2022-06-29_09h21.34.541,Colour_Asymmetry_Pilot,2022.1.3,Win32,19.87913486,62bbe60bf3d75ef465d3e404,0,25,25,98,1,twoone,,,,,,,,,,,,,,,,,,,,,,,,,,,,,,,,,,,,,,,,,,,,,,,,,,,,,,,,,,,,,,,,,,,,,,,,,,,,,,,,,,,,,,,,,,,,,,,,,,,,,,,,,,,,,,,,,,,,,,,,,,,,,,,,,,,,,,,,,,,,,,,,,,,,,,,,
,,,,,,60315645c8c7420a2f1ade9c,62bbfb2f0e15271e2faad414,2022-06-29_09h21.34.541,Colour_Asymmetry_Pilot,2022.1.3,Win32,19.87913486,62bbe60bf3d75ef465d3e404,0,26,26,82,1,twoone,,,,,,,,,,,,,,,,,,,,,,,,,,,,,,,,,,,,,,,,,,,,,,,,,,,,,,,,,,,,,,,,,,,,,,,,,,,,,,,,,,,,,,,,,,,,,,,,,,,,,,,,,,,,,,,,,,,,,,,,,,,,,,,,,,,,,,,,,,,,,,,,,,,,,,,,
,,,,,,60315645c8c7420a2f1ade9c,62bbfb2f0e15271e2faad414,2022-06-29_09h21.34.541,Colour_Asymmetry_Pilot,2022.1.3,Win32,19.87913486,62bbe60bf3d75ef465d3e404,0,27,27,113,1,onethree,,,,,,,,,,,,,,,,,,,,,,,,,,,,,,,,,,,,,,,,,,,,,,,,,,,,,,,,,,,,,,,,,,,,,,,,,,,,,,,,,,,,,,,,,,,,,,,,,,,,,,,,,,,,,,,,,,,,,,,,,,,,,,,,,,,,,,,,,,,,,,,,,,,,,,,,
,,,,,,60315645c8c7420a2f1ade9c,62bbfb2f0e15271e2faad414,2022-06-29_09h21.34.541,Colour_Asymmetry_Pilot,2022.1.3,Win32,19.87913486,62bbe60bf3d75ef465d3e404,0,28,28,135,1,fourthree,,,,,,,,,,,,,,,,,,,,,,,,,,,,,,,,,,,,,,,,,,,,,,,,,,,,,,,,,,,,,,,,,,,,,,,,,,,,,,,,,,,,,,,,,,,,,,,,,,,,,,,,,,,,,,,,,,,,,,,,,,,,,,,,,,,,,,,,,,,,,,,,,,,,,,,,
,,,,,,60315645c8c7420a2f1ade9c,62bbfb2f0e15271e2faad414,2022-06-29_09h21.34.541,Colour_Asymmetry_Pilot,2022.1.3,Win32,19.87913486,62bbe60bf3d75ef465d3e404,0,29,29,33,1,onethree,,,,,,,,,,,,,,,,,,,,,,,,,,,,,,,,,,,,,,,,,,,,,,,,,,,,,,,,,,,,,,,,,,,,,,,,,,,,,,,,,,,,,,,,,,,,,,,,,,,,,,,,,,,,,,,,,,,,,,,,,,,,,,,,,,,,,,,,,,,,,,,,,,,,,,,,
,,,,,,60315645c8c7420a2f1ade9c,62bbfb2f0e15271e2faad414,2022-06-29_09h21.34.541,Colour_Asymmetry_Pilot,2022.1.3,Win32,19.87913486,62bbe60bf3d75ef465d3e404,0,30,30,122,1,twoone,,,,,,,,,,,,,,,,,,,,,,,,,,,,,,,,,,,,,,,,,,,,,,,,,,,,,,,,,,,,,,,,,,,,,,,,,,,,,,,,,,,,,,,,,,,,,,,,,,,,,,,,,,,,,,,,,,,,,,,,,,,,,,,,,,,,,,,,,,,,,,,,,,,,,,,,
,,,,,,60315645c8c7420a2f1ade9c,62bbfb2f0e15271e2faad414,2022-06-29_09h21.34.541,Colour_Asymmetry_Pilot,2022.1.3,Win32,19.87913486,62bbe60bf3d75ef465d3e404,0,31,31,25,1,onethree,,,,,,,,,,,,,,,,,,,,,,,,,,,,,,,,,,,,,,,,,,,,,,,,,,,,,,,,,,,,,,,,,,,,,,,,,,,,,,,,,,,,,,,,,,,,,,,,,,,,,,,,,,,,,,,,,,,,,,,,,,,,,,,,,,,,,,,,,,,,,,,,,,,,,,,,
,,,,,,60315645c8c7420a2f1ade9c,62bbfb2f0e15271e2faad414,2022-06-29_09h21.34.541,Colour_Asymmetry_Pilot,2022.1.3,Win32,19.87913486,62bbe60bf3d75ef465d3e404,0,32,32,101,1,threefour,,,,,,,,,,,,,,,,,,,,,,,,,,,,,,,,,,,,,,,,,,,,,,,,,,,,,,,,,,,,,,,,,,,,,,,,,,,,,,,,,,,,,,,,,,,,,,,,,,,,,,,,,,,,,,,,,,,,,,,,,,,,,,,,,,,,,,,,,,,,,,,,,,,,,,,,
,,,,,,60315645c8c7420a2f1ade9c,62bbfb2f0e15271e2faad414,2022-06-29_09h21.34.541,Colour_Asymmetry_Pilot,2022.1.3,Win32,19.87913486,62bbe60bf3d75ef465d3e404,0,33,33,137,1,onethree,,,,,,,,,,,,,,,,,,,,,,,,,,,,,,,,,,,,,,,,,,,,,,,,,,,,,,,,,,,,,,,,,,,,,,,,,,,,,,,,,,,,,,,,,,,,,,,,,,,,,,,,,,,,,,,,,,,,,,,,,,,,,,,,,,,,,,,,,,,,,,,,,,,,,,,,
,,,,,,60315645c8c7420a2f1ade9c,62bbfb2f0e15271e2faad414,2022-06-29_09h21.34.541,Colour_Asymmetry_Pilot,2022.1.3,Win32,19.87913486,62bbe60bf3d75ef465d3e404,0,34,34,71,1,fourthree,,,,,,,,,,,,,,,,,,,,,,,,,,,,,,,,,,,,,,,,,,,,,,,,,,,,,,,,,,,,,,,,,,,,,,,,,,,,,,,,,,,,,,,,,,,,,,,,,,,,,,,,,,,,,,,,,,,,,,,,,,,,,,,,,,,,,,,,,,,,,,,,,,,,,,,,
,,,,,,60315645c8c7420a2f1ade9c,62bbfb2f0e15271e2faad414,2022-06-29_09h21.34.541,Colour_Asymmetry_Pilot,2022.1.3,Win32,19.87913486,62bbe60bf3d75ef465d3e404,0,35,35,142,1,fourtwo,,,,,,,,,,,,,,,,,,,,,,,,,,,,,,,,,,,,,,,,,,,,,,,,,,,,,,,,,,,,,,,,,,,,,,,,,,,,,,,,,,,,,,,,,,,,,,,,,,,,,,,,,,,,,,,,,,,,,,,,,,,,,,,,,,,,,,,,,,,,,,,,,,,,,,,,
,,,,,,60315645c8c7420a2f1ade9c,62bbfb2f0e15271e2faad414,2022-06-29_09h21.34.541,Colour_Asymmetry_Pilot,2022.1.3,Win32,19.87913486,62bbe60bf3d75ef465d3e404,0,36,36,30,1,fourtwo,,,,,,,,,,,,,,,,,,,,,,,,,,,,,,,,,,,,,,,,,,,,,,,,,,,,,,,,,,,,,,,,,,,,,,,,,,,,,,,,,,,,,,,,,,,,,,,,,,,,,,,,,,,,,,,,,,,,,,,,,,,,,,,,,,,,,,,,,,,,,,,,,,,,,,,,
,,,,,,60315645c8c7420a2f1ade9c,62bbfb2f0e15271e2faad414,2022-06-29_09h21.34.541,Colour_Asymmetry_Pilot,2022.1.3,Win32,19.87913486,62bbe60bf3d75ef465d3e404,0,37,37,78,1,fourtwo,,,,,,,,,,,,,,,,,,,,,,,,,,,,,,,,,,,,,,,,,,,,,,,,,,,,,,,,,,,,,,,,,,,,,,,,,,,,,,,,,,,,,,,,,,,,,,,,,,,,,,,,,,,,,,,,,,,,,,,,,,,,,,,,,,,,,,,,,,,,,,,,,,,,,,,,
,,,,,,60315645c8c7420a2f1ade9c,62bbfb2f0e15271e2faad414,2022-06-29_09h21.34.541,Colour_Asymmetry_Pilot,2022.1.3,Win32,19.87913486,62bbe60bf3d75ef465d3e404,0,38,38,72,1,onetwo,,,,,,,,,,,,,,,,,,,,,,,,,,,,,,,,,,,,,,,,,,,,,,,,,,,,,,,,,,,,,,,,,,,,,,,,,,,,,,,,,,,,,,,,,,,,,,,,,,,,,,,,,,,,,,,,,,,,,,,,,,,,,,,,,,,,,,,,,,,,,,,,,,,,,,,,
,,,,,,60315645c8c7420a2f1ade9c,62bbfb2f0e15271e2faad414,2022-06-29_09h21.34.541,Colour_Asymmetry_Pilot,2022.1.3,Win32,19.87913486,62bbe60bf3d75ef465d3e404,0,39,39,109,1,threefour,,,,,,,,,,,,,,,,,,,,,,,,,,,,,,,,,,,,,,,,,,,,,,,,,,,,,,,,,,,,,,,,,,,,,,,,,,,,,,,,,,,,,,,,,,,,,,,,,,,,,,,,,,,,,,,,,,,,,,,,,,,,,,,,,,,,,,,,,,,,,,,,,,,,,,,,
,,,,,,60315645c8c7420a2f1ade9c,62bbfb2f0e15271e2faad414,2022-06-29_09h21.34.541,Colour_Asymmetry_Pilot,2022.1.3,Win32,19.87913486,62bbe60bf3d75ef465d3e404,0,40,40,93,1,threefour,,,,,,,,,,,,,,,,,,,,,,,,,,,,,,,,,,,,,,,,,,,,,,,,,,,,,,,,,,,,,,,,,,,,,,,,,,,,,,,,,,,,,,,,,,,,,,,,,,,,,,,,,,,,,,,,,,,,,,,,,,,,,,,,,,,,,,,,,,,,,,,,,,,,,,,,
,,,,,,60315645c8c7420a2f1ade9c,62bbfb2f0e15271e2faad414,2022-06-29_09h21.34.541,Colour_Asymmetry_Pilot,2022.1.3,Win32,19.87913486,62bbe60bf3d75ef465d3e404,0,41,41,9,1,onethree,,,,,,,,,,,,,,,,,,,,,,,,,,,,,,,,,,,,,,,,,,,,,,,,,,,,,,,,,,,,,,,,,,,,,,,,,,,,,,,,,,,,,,,,,,,,,,,,,,,,,,,,,,,,,,,,,,,,,,,,,,,,,,,,,,,,,,,,,,,,,,,,,,,,,,,,
,,,,,,60315645c8c7420a2f1ade9c,62bbfb2f0e15271e2faad414,2022-06-29_09h21.34.541,Colour_Asymmetry_Pilot,2022.1.3,Win32,19.87913486,62bbe60bf3d75ef465d3e404,0,42,42,7,1,fourthree,,,,,,,,,,,,,,,,,,,,,,,,,,,,,,,,,,,,,,,,,,,,,,,,,,,,,,,,,,,,,,,,,,,,,,,,,,,,,,,,,,,,,,,,,,,,,,,,,,,,,,,,,,,,,,,,,,,,,,,,,,,,,,,,,,,,,,,,,,,,,,,,,,,,,,,,
,,,,,,60315645c8c7420a2f1ade9c,62bbfb2f0e15271e2faad414,2022-06-29_09h21.34.541,Colour_Asymmetry_Pilot,2022.1.3,Win32,19.87913486,62bbe60bf3d75ef465d3e404,0,43,43,40,1,onetwo,,,,,,,,,,,,,,,,,,,,,,,,,,,,,,,,,,,,,,,,,,,,,,,,,,,,,,,,,,,,,,,,,,,,,,,,,,,,,,,,,,,,,,,,,,,,,,,,,,,,,,,,,,,,,,,,,,,,,,,,,,,,,,,,,,,,,,,,,,,,,,,,,,,,,,,,
,,,,,,60315645c8c7420a2f1ade9c,62bbfb2f0e15271e2faad414,2022-06-29_09h21.34.541,Colour_Asymmetry_Pilot,2022.1.3,Win32,19.87913486,62bbe60bf3d75ef465d3e404,0,44,44,118,1,fourtwo,,,,,,,,,,,,,,,,,,,,,,,,,,,,,,,,,,,,,,,,,,,,,,,,,,,,,,,,,,,,,,,,,,,,,,,,,,,,,,,,,,,,,,,,,,,,,,,,,,,,,,,,,,,,,,,,,,,,,,,,,,,,,,,,,,,,,,,,,,,,,,,,,,,,,,,,
,,,,,,60315645c8c7420a2f1ade9c,62bbfb2f0e15271e2faad414,2022-06-29_09h21.34.541,Colour_Asymmetry_Pilot,2022.1.3,Win32,19.87913486,62bbe60bf3d75ef465d3e404,0,45,45,39,1,fourthree,,,,,,,,,,,,,,,,,,,,,,,,,,,,,,,,,,,,,,,,,,,,,,,,,,,,,,,,,,,,,,,,,,,,,,,,,,,,,,,,,,,,,,,,,,,,,,,,,,,,,,,,,,,,,,,,,,,,,,,,,,,,,,,,,,,,,,,,,,,,,,,,,,,,,,,,
,,,,,,60315645c8c7420a2f1ade9c,62bbfb2f0e15271e2faad414,2022-06-29_09h21.34.541,Colour_Asymmetry_Pilot,2022.1.3,Win32,19.87913486,62bbe60bf3d75ef465d3e404,0,46,46,136,1,onetwo,,,,,,,,,,,,,,,,,,,,,,,,,,,,,,,,,,,,,,,,,,,,,,,,,,,,,,,,,,,,,,,,,,,,,,,,,,,,,,,,,,,,,,,,,,,,,,,,,,,,,,,,,,,,,,,,,,,,,,,,,,,,,,,,,,,,,,,,,,,,,,,,,,,,,,,,
,,,,,,60315645c8c7420a2f1ade9c,62bbfb2f0e15271e2faad414,2022-06-29_09h21.34.541,Colour_Asymmetry_Pilot,2022.1.3,Win32,19.87913486,62bbe60bf3d75ef465d3e404,0,47,47,51,1,twofour,,,,,,,,,,,,,,,,,,,,,,,,,,,,,,,,,,,,,,,,,,,,,,,,,,,,,,,,,,,,,,,,,,,,,,,,,,,,,,,,,,,,,,,,,,,,,,,,,,,,,,,,,,,,,,,,,,,,,,,,,,,,,,,,,,,,,,,,,,,,,,,,,,,,,,,,
,,,,,,60315645c8c7420a2f1ade9c,62bbfb2f0e15271e2faad414,2022-06-29_09h21.34.541,Colour_Asymmetry_Pilot,2022.1.3,Win32,19.87913486,62bbe60bf3d75ef465d3e404,0,48,48,32,1,onetwo,,,,,,,,,,,,,,,,,,,,,,,,,,,,,,,,,,,,,,,,,,,,,,,,,,,,,,,,,,,,,,,,,,,,,,,,,,,,,,,,,,,,,,,,,,,,,,,,,,,,,,,,,,,,,,,,,,,,,,,,,,,,,,,,,,,,,,,,,,,,,,,,,,,,,,,,
,,,,,,60315645c8c7420a2f1ade9c,62bbfb2f0e15271e2faad414,2022-06-29_09h21.34.541,Colour_Asymmetry_Pilot,2022.1.3,Win32,19.87913486,62bbe60bf3d75ef465d3e404,0,49,49,160,1,onetwo,,,,,,,,,,,,,,,,,,,,,,,,,,,,,,,,,,,,,,,,,,,,,,,,,,,,,,,,,,,,,,,,,,,,,,,,,,,,,,,,,,,,,,,,,,,,,,,,,,,,,,,,,,,,,,,,,,,,,,,,,,,,,,,,,,,,,,,,,,,,,,,,,,,,,,,,
,,,,,,60315645c8c7420a2f1ade9c,62bbfb2f0e15271e2faad414,2022-06-29_09h21.34.541,Colour_Asymmetry_Pilot,2022.1.3,Win32,19.87913486,62bbe60bf3d75ef465d3e404,0,50,50,97,1,onethree,,,,,,,,,,,,,,,,,,,,,,,,,,,,,,,,,,,,,,,,,,,,,,,,,,,,,,,,,,,,,,,,,,,,,,,,,,,,,,,,,,,,,,,,,,,,,,,,,,,,,,,,,,,,,,,,,,,,,,,,,,,,,,,,,,,,,,,,,,,,,,,,,,,,,,,,
,,,,,,60315645c8c7420a2f1ade9c,62bbfb2f0e15271e2faad414,2022-06-29_09h21.34.541,Colour_Asymmetry_Pilot,2022.1.3,Win32,19.87913486,62bbe60bf3d75ef465d3e404,0,51,51,119,1,fourthree,,,,,,,,,,,,,,,,,,,,,,,,,,,,,,,,,,,,,,,,,,,,,,,,,,,,,,,,,,,,,,,,,,,,,,,,,,,,,,,,,,,,,,,,,,,,,,,,,,,,,,,,,,,,,,,,,,,,,,,,,,,,,,,,,,,,,,,,,,,,,,,,,,,,,,,,
,,,,,,60315645c8c7420a2f1ade9c,62bbfb2f0e15271e2faad414,2022-06-29_09h21.34.541,Colour_Asymmetry_Pilot,2022.1.3,Win32,19.87913486,62bbe60bf3d75ef465d3e404,0,52,52,148,1,threeone,,,,,,,,,,,,,,,,,,,,,,,,,,,,,,,,,,,,,,,,,,,,,,,,,,,,,,,,,,,,,,,,,,,,,,,,,,,,,,,,,,,,,,,,,,,,,,,,,,,,,,,,,,,,,,,,,,,,,,,,,,,,,,,,,,,,,,,,,,,,,,,,,,,,,,,,
,,,,,,60315645c8c7420a2f1ade9c,62bbfb2f0e15271e2faad414,2022-06-29_09h21.34.541,Colour_Asymmetry_Pilot,2022.1.3,Win32,19.87913486,62bbe60bf3d75ef465d3e404,0,53,53,147,1,twofour,,,,,,,,,,,,,,,,,,,,,,,,,,,,,,,,,,,,,,,,,,,,,,,,,,,,,,,,,,,,,,,,,,,,,,,,,,,,,,,,,,,,,,,,,,,,,,,,,,,,,,,,,,,,,,,,,,,,,,,,,,,,,,,,,,,,,,,,,,,,,,,,,,,,,,,,
,,,,,,60315645c8c7420a2f1ade9c,62bbfb2f0e15271e2faad414,2022-06-29_09h21.34.541,Colour_Asymmetry_Pilot,2022.1.3,Win32,19.87913486,62bbe60bf3d75ef465d3e404,0,54,54,121,1,onethree,,,,,,,,,,,,,,,,,,,,,,,,,,,,,,,,,,,,,,,,,,,,,,,,,,,,,,,,,,,,,,,,,,,,,,,,,,,,,,,,,,,,,,,,,,,,,,,,,,,,,,,,,,,,,,,,,,,,,,,,,,,,,,,,,,,,,,,,,,,,,,,,,,,,,,,,
,,,,,,60315645c8c7420a2f1ade9c,62bbfb2f0e15271e2faad414,2022-06-29_09h21.34.541,Colour_Asymmetry_Pilot,2022.1.3,Win32,19.87913486,62bbe60bf3d75ef465d3e404,0,55,55,112,1,onetwo,,,,,,,,,,,,,,,,,,,,,,,,,,,,,,,,,,,,,,,,,,,,,,,,,,,,,,,,,,,,,,,,,,,,,,,,,,,,,,,,,,,,,,,,,,,,,,,,,,,,,,,,,,,,,,,,,,,,,,,,,,,,,,,,,,,,,,,,,,,,,,,,,,,,,,,,
,,,,,,60315645c8c7420a2f1ade9c,62bbfb2f0e15271e2faad414,2022-06-29_09h21.34.541,Colour_Asymmetry_Pilot,2022.1.3,Win32,19.87913486,62bbe60bf3d75ef465d3e404,0,56,56,12,1,threeone,,,,,,,,,,,,,,,,,,,,,,,,,,,,,,,,,,,,,,,,,,,,,,,,,,,,,,,,,,,,,,,,,,,,,,,,,,,,,,,,,,,,,,,,,,,,,,,,,,,,,,,,,,,,,,,,,,,,,,,,,,,,,,,,,,,,,,,,,,,,,,,,,,,,,,,,
,,,,,,60315645c8c7420a2f1ade9c,62bbfb2f0e15271e2faad414,2022-06-29_09h21.34.541,Colour_Asymmetry_Pilot,2022.1.3,Win32,19.87913486,62bbe60bf3d75ef465d3e404,0,57,57,120,1,onetwo,,,,,,,,,,,,,,,,,,,,,,,,,,,,,,,,,,,,,,,,,,,,,,,,,,,,,,,,,,,,,,,,,,,,,,,,,,,,,,,,,,,,,,,,,,,,,,,,,,,,,,,,,,,,,,,,,,,,,,,,,,,,,,,,,,,,,,,,,,,,,,,,,,,,,,,,
,,,,,,60315645c8c7420a2f1ade9c,62bbfb2f0e15271e2faad414,2022-06-29_09h21.34.541,Colour_Asymmetry_Pilot,2022.1.3,Win32,19.87913486,62bbe60bf3d75ef465d3e404,0,58,58,11,1,twofour,,,,,,,,,,,,,,,,,,,,,,,,,,,,,,,,,,,,,,,,,,,,,,,,,,,,,,,,,,,,,,,,,,,,,,,,,,,,,,,,,,,,,,,,,,,,,,,,,,,,,,,,,,,,,,,,,,,,,,,,,,,,,,,,,,,,,,,,,,,,,,,,,,,,,,,,
,,,,,,60315645c8c7420a2f1ade9c,62bbfb2f0e15271e2faad414,2022-06-29_09h21.34.541,Colour_Asymmetry_Pilot,2022.1.3,Win32,19.87913486,62bbe60bf3d75ef465d3e404,0,59,59,157,1,threefour,,,,,,,,,,,,,,,,,,,,,,,,,,,,,,,,,,,,,,,,,,,,,,,,,,,,,,,,,,,,,,,,,,,,,,,,,,,,,,,,,,,,,,,,,,,,,,,,,,,,,,,,,,,,,,,,,,,,,,,,,,,,,,,,,,,,,,,,,,,,,,,,,,,,,,,,
,,,,,,60315645c8c7420a2f1ade9c,62bbfb2f0e15271e2faad414,2022-06-29_09h21.34.541,Colour_Asymmetry_Pilot,2022.1.3,Win32,19.87913486,62bbe60bf3d75ef465d3e404,0,60,60,158,1,fourtwo,,,,,,,,,,,,,,,,,,,,,,,,,,,,,,,,,,,,,,,,,,,,,,,,,,,,,,,,,,,,,,,,,,,,,,,,,,,,,,,,,,,,,,,,,,,,,,,,,,,,,,,,,,,,,,,,,,,,,,,,,,,,,,,,,,,,,,,,,,,,,,,,,,,,,,,,
,,,,,,60315645c8c7420a2f1ade9c,62bbfb2f0e15271e2faad414,2022-06-29_09h21.34.541,Colour_Asymmetry_Pilot,2022.1.3,Win32,19.87913486,62bbe60bf3d75ef465d3e404,0,61,61,81,1,onethree,,,,,,,,,,,,,,,,,,,,,,,,,,,,,,,,,,,,,,,,,,,,,,,,,,,,,,,,,,,,,,,,,,,,,,,,,,,,,,,,,,,,,,,,,,,,,,,,,,,,,,,,,,,,,,,,,,,,,,,,,,,,,,,,,,,,,,,,,,,,,,,,,,,,,,,,
,,,,,,60315645c8c7420a2f1ade9c,62bbfb2f0e15271e2faad414,2022-06-29_09h21.34.541,Colour_Asymmetry_Pilot,2022.1.3,Win32,19.87913486,62bbe60bf3d75ef465d3e404,0,62,62,1,1,onethree,,,,,,,,,,,,,,,,,,,,,,,,,,,,,,,,,,,,,,,,,,,,,,,,,,,,,,,,,,,,,,,,,,,,,,,,,,,,,,,,,,,,,,,,,,,,,,,,,,,,,,,,,,,,,,,,,,,,,,,,,,,,,,,,,,,,,,,,,,,,,,,,,,,,,,,,
,,,,,,60315645c8c7420a2f1ade9c,62bbfb2f0e15271e2faad414,2022-06-29_09h21.34.541,Colour_Asymmetry_Pilot,2022.1.3,Win32,19.87913486,62bbe60bf3d75ef465d3e404,0,63,63,115,1,twofour,,,,,,,,,,,,,,,,,,,,,,,,,,,,,,,,,,,,,,,,,,,,,,,,,,,,,,,,,,,,,,,,,,,,,,,,,,,,,,,,,,,,,,,,,,,,,,,,,,,,,,,,,,,,,,,,,,,,,,,,,,,,,,,,,,,,,,,,,,,,,,,,,,,,,,,,
,,,,,,60315645c8c7420a2f1ade9c,62bbfb2f0e15271e2faad414,2022-06-29_09h21.34.541,Colour_Asymmetry_Pilot,2022.1.3,Win32,19.87913486,62bbe60bf3d75ef465d3e404,0,64,64,67,1,twofour,,,,,,,,,,,,,,,,,,,,,,,,,,,,,,,,,,,,,,,,,,,,,,,,,,,,,,,,,,,,,,,,,,,,,,,,,,,,,,,,,,,,,,,,,,,,,,,,,,,,,,,,,,,,,,,,,,,,,,,,,,,,,,,,,,,,,,,,,,,,,,,,,,,,,,,,
,,,,,,60315645c8c7420a2f1ade9c,62bbfb2f0e15271e2faad414,2022-06-29_09h21.34.541,Colour_Asymmetry_Pilot,2022.1.3,Win32,19.87913486,62bbe60bf3d75ef465d3e404,0,65,65,36,1,threeone,,,,,,,,,,,,,,,,,,,,,,,,,,,,,,,,,,,,,,,,,,,,,,,,,,,,,,,,,,,,,,,,,,,,,,,,,,,,,,,,,,,,,,,,,,,,,,,,,,,,,,,,,,,,,,,,,,,,,,,,,,,,,,,,,,,,,,,,,,,,,,,,,,,,,,,,
,,,,,,60315645c8c7420a2f1ade9c,62bbfb2f0e15271e2faad414,2022-06-29_09h21.34.541,Colour_Asymmetry_Pilot,2022.1.3,Win32,19.87913486,62bbe60bf3d75ef465d3e404,0,66,66,60,1,threeone,,,,,,,,,,,,,,,,,,,,,,,,,,,,,,,,,,,,,,,,,,,,,,,,,,,,,,,,,,,,,,,,,,,,,,,,,,,,,,,,,,,,,,,,,,,,,,,,,,,,,,,,,,,,,,,,,,,,,,,,,,,,,,,,,,,,,,,,,,,,,,,,,,,,,,,,
,,,,,,60315645c8c7420a2f1ade9c,62bbfb2f0e15271e2faad414,2022-06-29_09h21.34.541,Colour_Asymmetry_Pilot,2022.1.3,Win32,19.87913486,62bbe60bf3d75ef465d3e404,0,67,67,104,1,onetwo,,,,,,,,,,,,,,,,,,,,,,,,,,,,,,,,,,,,,,,,,,,,,,,,,,,,,,,,,,,,,,,,,,,,,,,,,,,,,,,,,,,,,,,,,,,,,,,,,,,,,,,,,,,,,,,,,,,,,,,,,,,,,,,,,,,,,,,,,,,,,,,,,,,,,,,,
,,,,,,60315645c8c7420a2f1ade9c,62bbfb2f0e15271e2faad414,2022-06-29_09h21.34.541,Colour_Asymmetry_Pilot,2022.1.3,Win32,19.87913486,62bbe60bf3d75ef465d3e404,0,68,68,24,1,onetwo,,,,,,,,,,,,,,,,,,,,,,,,,,,,,,,,,,,,,,,,,,,,,,,,,,,,,,,,,,,,,,,,,,,,,,,,,,,,,,,,,,,,,,,,,,,,,,,,,,,,,,,,,,,,,,,,,,,,,,,,,,,,,,,,,,,,,,,,,,,,,,,,,,,,,,,,
,,,,,,60315645c8c7420a2f1ade9c,62bbfb2f0e15271e2faad414,2022-06-29_09h21.34.541,Colour_Asymmetry_Pilot,2022.1.3,Win32,19.87913486,62bbe60bf3d75ef465d3e404,0,69,69,44,1,threeone,,,,,,,,,,,,,,,,,,,,,,,,,,,,,,,,,,,,,,,,,,,,,,,,,,,,,,,,,,,,,,,,,,,,,,,,,,,,,,,,,,,,,,,,,,,,,,,,,,,,,,,,,,,,,,,,,,,,,,,,,,,,,,,,,,,,,,,,,,,,,,,,,,,,,,,,
,,,,,,60315645c8c7420a2f1ade9c,62bbfb2f0e15271e2faad414,2022-06-29_09h21.34.541,Colour_Asymmetry_Pilot,2022.1.3,Win32,19.87913486,62bbe60bf3d75ef465d3e404,0,70,70,4,1,threeone,,,,,,,,,,,,,,,,,,,,,,,,,,,,,,,,,,,,,,,,,,,,,,,,,,,,,,,,,,,,,,,,,,,,,,,,,,,,,,,,,,,,,,,,,,,,,,,,,,,,,,,,,,,,,,,,,,,,,,,,,,,,,,,,,,,,,,,,,,,,,,,,,,,,,,,,
,,,,,,60315645c8c7420a2f1ade9c,62bbfb2f0e15271e2faad414,2022-06-29_09h21.34.541,Colour_Asymmetry_Pilot,2022.1.3,Win32,19.87913486,62bbe60bf3d75ef465d3e404,0,71,71,77,1,threefour,,,,,,,,,,,,,,,,,,,,,,,,,,,,,,,,,,,,,,,,,,,,,,,,,,,,,,,,,,,,,,,,,,,,,,,,,,,,,,,,,,,,,,,,,,,,,,,,,,,,,,,,,,,,,,,,,,,,,,,,,,,,,,,,,,,,,,,,,,,,,,,,,,,,,,,,
,,,,,,60315645c8c7420a2f1ade9c,62bbfb2f0e15271e2faad414,2022-06-29_09h21.34.541,Colour_Asymmetry_Pilot,2022.1.3,Win32,19.87913486,62bbe60bf3d75ef465d3e404,0,72,72,48,1,onetwo,,,,,,,,,,,,,,,,,,,,,,,,,,,,,,,,,,,,,,,,,,,,,,,,,,,,,,,,,,,,,,,,,,,,,,,,,,,,,,,,,,,,,,,,,,,,,,,,,,,,,,,,,,,,,,,,,,,,,,,,,,,,,,,,,,,,,,,,,,,,,,,,,,,,,,,,
,,,,,,60315645c8c7420a2f1ade9c,62bbfb2f0e15271e2faad414,2022-06-29_09h21.34.541,Colour_Asymmetry_Pilot,2022.1.3,Win32,19.87913486,62bbe60bf3d75ef465d3e404,0,73,73,155,1,twofour,,,,,,,,,,,,,,,,,,,,,,,,,,,,,,,,,,,,,,,,,,,,,,,,,,,,,,,,,,,,,,,,,,,,,,,,,,,,,,,,,,,,,,,,,,,,,,,,,,,,,,,,,,,,,,,,,,,,,,,,,,,,,,,,,,,,,,,,,,,,,,,,,,,,,,,,
,,,,,,60315645c8c7420a2f1ade9c,62bbfb2f0e15271e2faad414,2022-06-29_09h21.34.541,Colour_Asymmetry_Pilot,2022.1.3,Win32,19.87913486,62bbe60bf3d75ef465d3e404,0,74,74,10,1,twoone,,,,,,,,,,,,,,,,,,,,,,,,,,,,,,,,,,,,,,,,,,,,,,,,,,,,,,,,,,,,,,,,,,,,,,,,,,,,,,,,,,,,,,,,,,,,,,,,,,,,,,,,,,,,,,,,,,,,,,,,,,,,,,,,,,,,,,,,,,,,,,,,,,,,,,,,
,,,,,,60315645c8c7420a2f1ade9c,62bbfb2f0e15271e2faad414,2022-06-29_09h21.34.541,Colour_Asymmetry_Pilot,2022.1.3,Win32,19.87913486,62bbe60bf3d75ef465d3e404,0,75,75,86,1,fourtwo,,,,,,,,,,,,,,,,,,,,,,,,,,,,,,,,,,,,,,,,,,,,,,,,,,,,,,,,,,,,,,,,,,,,,,,,,,,,,,,,,,,,,,,,,,,,,,,,,,,,,,,,,,,,,,,,,,,,,,,,,,,,,,,,,,,,,,,,,,,,,,,,,,,,,,,,
,,,,,,60315645c8c7420a2f1ade9c,62bbfb2f0e15271e2faad414,2022-06-29_09h21.34.541,Colour_Asymmetry_Pilot,2022.1.3,Win32,19.87913486,62bbe60bf3d75ef465d3e404,0,76,76,92,1,threeone,,,,,,,,,,,,,,,,,,,,,,,,,,,,,,,,,,,,,,,,,,,,,,,,,,,,,,,,,,,,,,,,,,,,,,,,,,,,,,,,,,,,,,,,,,,,,,,,,,,,,,,,,,,,,,,,,,,,,,,,,,,,,,,,,,,,,,,,,,,,,,,,,,,,,,,,
,,,,,,60315645c8c7420a2f1ade9c,62bbfb2f0e15271e2faad414,2022-06-29_09h21.34.541,Colour_Asymmetry_Pilot,2022.1.3,Win32,19.87913486,62bbe60bf3d75ef465d3e404,0,77,77,161,1,onethree,,,,,,,,,,,,,,,,,,,,,,,,,,,,,,,,,,,,,,,,,,,,,,,,,,,,,,,,,,,,,,,,,,,,,,,,,,,,,,,,,,,,,,,,,,,,,,,,,,,,,,,,,,,,,,,,,,,,,,,,,,,,,,,,,,,,,,,,,,,,,,,,,,,,,,,,
,,,,,,60315645c8c7420a2f1ade9c,62bbfb2f0e15271e2faad414,2022-06-29_09h21.34.541,Colour_Asymmetry_Pilot,2022.1.3,Win32,19.87913486,62bbe60bf3d75ef465d3e404,0,78,78,79,1,fourthree,,,,,,,,,,,,,,,,,,,,,,,,,,,,,,,,,,,,,,,,,,,,,,,,,,,,,,,,,,,,,,,,,,,,,,,,,,,,,,,,,,,,,,,,,,,,,,,,,,,,,,,,,,,,,,,,,,,,,,,,,,,,,,,,,,,,,,,,,,,,,,,,,,,,,,,,
,,,,,,60315645c8c7420a2f1ade9c,62bbfb2f0e15271e2faad414,2022-06-29_09h21.34.541,Colour_Asymmetry_Pilot,2022.1.3,Win32,19.87913486,62bbe60bf3d75ef465d3e404,0,79,79,114,1,twoone,,,,,,,,,,,,,,,,,,,,,,,,,,,,,,,,,,,,,,,,,,,,,,,,,,,,,,,,,,,,,,,,,,,,,,,,,,,,,,,,,,,,,,,,,,,,,,,,,,,,,,,,,,,,,,,,,,,,,,,,,,,,,,,,,,,,,,,,,,,,,,,,,,,,,,,,
,,,,,,60315645c8c7420a2f1ade9c,62bbfb2f0e15271e2faad414,2022-06-29_09h21.34.541,Colour_Asymmetry_Pilot,2022.1.3,Win32,19.87913486,62bbe60bf3d75ef465d3e404,0,80,80,151,1,fourthree,,,,,,,,,,,,,,,,,,,,,,,,,,,,,,,,,,,,,,,,,,,,,,,,,,,,,,,,,,,,,,,,,,,,,,,,,,,,,,,,,,,,,,,,,,,,,,,,,,,,,,,,,,,,,,,,,,,,,,,,,,,,,,,,,,,,,,,,,,,,,,,,,,,,,,,,
,,,,,,60315645c8c7420a2f1ade9c,62bbfb2f0e15271e2faad414,2022-06-29_09h21.34.541,Colour_Asymmetry_Pilot,2022.1.3,Win32,19.87913486,62bbe60bf3d75ef465d3e404,0,81,81,130,1,twoone,,,,,,,,,,,,,,,,,,,,,,,,,,,,,,,,,,,,,,,,,,,,,,,,,,,,,,,,,,,,,,,,,,,,,,,,,,,,,,,,,,,,,,,,,,,,,,,,,,,,,,,,,,,,,,,,,,,,,,,,,,,,,,,,,,,,,,,,,,,,,,,,,,,,,,,,
,,,,,,60315645c8c7420a2f1ade9c,62bbfb2f0e15271e2faad414,2022-06-29_09h21.34.541,Colour_Asymmetry_Pilot,2022.1.3,Win32,19.87913486,62bbe60bf3d75ef465d3e404,0,82,82,96,1,onetwo,,,,,,,,,,,,,,,,,,,,,,,,,,,,,,,,,,,,,,,,,,,,,,,,,,,,,,,,,,,,,,,,,,,,,,,,,,,,,,,,,,,,,,,,,,,,,,,,,,,,,,,,,,,,,,,,,,,,,,,,,,,,,,,,,,,,,,,,,,,,,,,,,,,,,,,,
,,,,,,60315645c8c7420a2f1ade9c,62bbfb2f0e15271e2faad414,2022-06-29_09h21.34.541,Colour_Asymmetry_Pilot,2022.1.3,Win32,19.87913486,62bbe60bf3d75ef465d3e404,0,83,83,59,1,twofour,,,,,,,,,,,,,,,,,,,,,,,,,,,,,,,,,,,,,,,,,,,,,,,,,,,,,,,,,,,,,,,,,,,,,,,,,,,,,,,,,,,,,,,,,,,,,,,,,,,,,,,,,,,,,,,,,,,,,,,,,,,,,,,,,,,,,,,,,,,,,,,,,,,,,,,,
,,,,,,60315645c8c7420a2f1ade9c,62bbfb2f0e15271e2faad414,2022-06-29_09h21.34.541,Colour_Asymmetry_Pilot,2022.1.3,Win32,19.87913486,62bbe60bf3d75ef465d3e404,0,84,84,128,1,onetwo,,,,,,,,,,,,,,,,,,,,,,,,,,,,,,,,,,,,,,,,,,,,,,,,,,,,,,,,,,,,,,,,,,,,,,,,,,,,,,,,,,,,,,,,,,,,,,,,,,,,,,,,,,,,,,,,,,,,,,,,,,,,,,,,,,,,,,,,,,,,,,,,,,,,,,,,
,,,,,,60315645c8c7420a2f1ade9c,62bbfb2f0e15271e2faad414,2022-06-29_09h21.34.541,Colour_Asymmetry_Pilot,2022.1.3,Win32,19.87913486,62bbe60bf3d75ef465d3e404,0,85,85,23,1,fourthree,,,,,,,,,,,,,,,,,,,,,,,,,,,,,,,,,,,,,,,,,,,,,,,,,,,,,,,,,,,,,,,,,,,,,,,,,,,,,,,,,,,,,,,,,,,,,,,,,,,,,,,,,,,,,,,,,,,,,,,,,,,,,,,,,,,,,,,,,,,,,,,,,,,,,,,,
,,,,,,60315645c8c7420a2f1ade9c,62bbfb2f0e15271e2faad414,2022-06-29_09h21.34.541,Colour_Asymmetry_Pilot,2022.1.3,Win32,19.87913486,62bbe60bf3d75ef465d3e404,0,86,86,75,1,twofour,,,,,,,,,,,,,,,,,,,,,,,,,,,,,,,,,,,,,,,,,,,,,,,,,,,,,,,,,,,,,,,,,,,,,,,,,,,,,,,,,,,,,,,,,,,,,,,,,,,,,,,,,,,,,,,,,,,,,,,,,,,,,,,,,,,,,,,,,,,,,,,,,,,,,,,,
,,,,,,60315645c8c7420a2f1ade9c,62bbfb2f0e15271e2faad414,2022-06-29_09h21.34.541,Colour_Asymmetry_Pilot,2022.1.3,Win32,19.87913486,62bbe60bf3d75ef465d3e404,0,87,87,0,1,onetwo,,,,,,,,,,,,,,,,,,,,,,,,,,,,,,,,,,,,,,,,,,,,,,,,,,,,,,,,,,,,,,,,,,,,,,,,,,,,,,,,,,,,,,,,,,,,,,,,,,,,,,,,,,,,,,,,,,,,,,,,,,,,,,,,,,,,,,,,,,,,,,,,,,,,,,,,
,,,,,,60315645c8c7420a2f1ade9c,62bbfb2f0e15271e2faad414,2022-06-29_09h21.34.541,Colour_Asymmetry_Pilot,2022.1.3,Win32,19.87913486,62bbe60bf3d75ef465d3e404,0,88,88,146,1,twoone,,,,,,,,,,,,,,,,,,,,,,,,,,,,,,,,,,,,,,,,,,,,,,,,,,,,,,,,,,,,,,,,,,,,,,,,,,,,,,,,,,,,,,,,,,,,,,,,,,,,,,,,,,,,,,,,,,,,,,,,,,,,,,,,,,,,,,,,,,,,,,,,,,,,,,,,
,,,,,,60315645c8c7420a2f1ade9c,62bbfb2f0e15271e2faad414,2022-06-29_09h21.34.541,Colour_Asymmetry_Pilot,2022.1.3,Win32,19.87913486,62bbe60bf3d75ef465d3e404,0,89,89,116,1,threeone,,,,,,,,,,,,,,,,,,,,,,,,,,,,,,,,,,,,,,,,,,,,,,,,,,,,,,,,,,,,,,,,,,,,,,,,,,,,,,,,,,,,,,,,,,,,,,,,,,,,,,,,,,,,,,,,,,,,,,,,,,,,,,,,,,,,,,,,,,,,,,,,,,,,,,,,
,,,,,,60315645c8c7420a2f1ade9c,62bbfb2f0e15271e2faad414,2022-06-29_09h21.34.541,Colour_Asymmetry_Pilot,2022.1.3,Win32,19.87913486,62bbe60bf3d75ef465d3e404,0,90,90,64,1,onetwo,,,,,,,,,,,,,,,,,,,,,,,,,,,,,,,,,,,,,,,,,,,,,,,,,,,,,,,,,,,,,,,,,,,,,,,,,,,,,,,,,,,,,,,,,,,,,,,,,,,,,,,,,,,,,,,,,,,,,,,,,,,,,,,,,,,,,,,,,,,,,,,,,,,,,,,,
,,,,,,60315645c8c7420a2f1ade9c,62bbfb2f0e15271e2faad414,2022-06-29_09h21.34.541,Colour_Asymmetry_Pilot,2022.1.3,Win32,19.87913486,62bbe60bf3d75ef465d3e404,0,91,91,35,1,twofour,,,,,,,,,,,,,,,,,,,,,,,,,,,,,,,,,,,,,,,,,,,,,,,,,,,,,,,,,,,,,,,,,,,,,,,,,,,,,,,,,,,,,,,,,,,,,,,,,,,,,,,,,,,,,,,,,,,,,,,,,,,,,,,,,,,,,,,,,,,,,,,,,,,,,,,,
,,,,,,60315645c8c7420a2f1ade9c,62bbfb2f0e15271e2faad414,2022-06-29_09h21.34.541,Colour_Asymmetry_Pilot,2022.1.3,Win32,19.87913486,62bbe60bf3d75ef465d3e404,0,92,92,18,1,twoone,,,,,,,,,,,,,,,,,,,,,,,,,,,,,,,,,,,,,,,,,,,,,,,,,,,,,,,,,,,,,,,,,,,,,,,,,,,,,,,,,,,,,,,,,,,,,,,,,,,,,,,,,,,,,,,,,,,,,,,,,,,,,,,,,,,,,,,,,,,,,,,,,,,,,,,,
,,,,,,60315645c8c7420a2f1ade9c,62bbfb2f0e15271e2faad414,2022-06-29_09h21.34.541,Colour_Asymmetry_Pilot,2022.1.3,Win32,19.87913486,62bbe60bf3d75ef465d3e404,0,93,93,55,1,fourthree,,,,,,,,,,,,,,,,,,,,,,,,,,,,,,,,,,,,,,,,,,,,,,,,,,,,,,,,,,,,,,,,,,,,,,,,,,,,,,,,,,,,,,,,,,,,,,,,,,,,,,,,,,,,,,,,,,,,,,,,,,,,,,,,,,,,,,,,,,,,,,,,,,,,,,,,
,,,,,,60315645c8c7420a2f1ade9c,62bbfb2f0e15271e2faad414,2022-06-29_09h21.34.541,Colour_Asymmetry_Pilot,2022.1.3,Win32,19.87913486,62bbe60bf3d75ef465d3e404,0,94,94,15,1,fourthree,,,,,,,,,,,,,,,,,,,,,,,,,,,,,,,,,,,,,,,,,,,,,,,,,,,,,,,,,,,,,,,,,,,,,,,,,,,,,,,,,,,,,,,,,,,,,,,,,,,,,,,,,,,,,,,,,,,,,,,,,,,,,,,,,,,,,,,,,,,,,,,,,,,,,,,,
,,,,,,60315645c8c7420a2f1ade9c,62bbfb2f0e15271e2faad414,2022-06-29_09h21.34.541,Colour_Asymmetry_Pilot,2022.1.3,Win32,19.87913486,62bbe60bf3d75ef465d3e404,0,95,95,108,1,threeone,,,,,,,,,,,,,,,,,,,,,,,,,,,,,,,,,,,,,,,,,,,,,,,,,,,,,,,,,,,,,,,,,,,,,,,,,,,,,,,,,,,,,,,,,,,,,,,,,,,,,,,,,,,,,,,,,,,,,,,,,,,,,,,,,,,,,,,,,,,,,,,,,,,,,,,,
,,,,,,60315645c8c7420a2f1ade9c,62bbfb2f0e15271e2faad414,2022-06-29_09h21.34.541,Colour_Asymmetry_Pilot,2022.1.3,Win32,19.87913486,62bbe60bf3d75ef465d3e404,0,96,96,125,1,threefour,,,,,,,,,,,,,,,,,,,,,,,,,,,,,,,,,,,,,,,,,,,,,,,,,,,,,,,,,,,,,,,,,,,,,,,,,,,,,,,,,,,,,,,,,,,,,,,,,,,,,,,,,,,,,,,,,,,,,,,,,,,,,,,,,,,,,,,,,,,,,,,,,,,,,,,,
,,,,,,60315645c8c7420a2f1ade9c,62bbfb2f0e15271e2faad414,2022-06-29_09h21.34.541,Colour_Asymmetry_Pilot,2022.1.3,Win32,19.87913486,62bbe60bf3d75ef465d3e404,0,97,97,58,1,twoone,,,,,,,,,,,,,,,,,,,,,,,,,,,,,,,,,,,,,,,,,,,,,,,,,,,,,,,,,,,,,,,,,,,,,,,,,,,,,,,,,,,,,,,,,,,,,,,,,,,,,,,,,,,,,,,,,,,,,,,,,,,,,,,,,,,,,,,,,,,,,,,,,,,,,,,,
,,,,,,60315645c8c7420a2f1ade9c,62bbfb2f0e15271e2faad414,2022-06-29_09h21.34.541,Colour_Asymmetry_Pilot,2022.1.3,Win32,19.87913486,62bbe60bf3d75ef465d3e404,0,98,98,91,1,twofour,,,,,,,,,,,,,,,,,,,,,,,,,,,,,,,,,,,,,,,,,,,,,,,,,,,,,,,,,,,,,,,,,,,,,,,,,,,,,,,,,,,,,,,,,,,,,,,,,,,,,,,,,,,,,,,,,,,,,,,,,,,,,,,,,,,,,,,,,,,,,,,,,,,,,,,,
,,,,,,60315645c8c7420a2f1ade9c,62bbfb2f0e15271e2faad414,2022-06-29_09h21.34.541,Colour_Asymmetry_Pilot,2022.1.3,Win32,19.87913486,62bbe60bf3d75ef465d3e404,0,99,99,14,1,fourtwo,,,,,,,,,,,,,,,,,,,,,,,,,,,,,,,,,,,,,,,,,,,,,,,,,,,,,,,,,,,,,,,,,,,,,,,,,,,,,,,,,,,,,,,,,,,,,,,,,,,,,,,,,,,,,,,,,,,,,,,,,,,,,,,,,,,,,,,,,,,,,,,,,,,,,,,,
,,,,,,60315645c8c7420a2f1ade9c,62bbfb2f0e15271e2faad414,2022-06-29_09h21.34.541,Colour_Asymmetry_Pilot,2022.1.3,Win32,19.87913486,62bbe60bf3d75ef465d3e404,0,100,100,117,1,threefour,,,,,,,,,,,,,,,,,,,,,,,,,,,,,,,,,,,,,,,,,,,,,,,,,,,,,,,,,,,,,,,,,,,,,,,,,,,,,,,,,,,,,,,,,,,,,,,,,,,,,,,,,,,,,,,,,,,,,,,,,,,,,,,,,,,,,,,,,,,,,,,,,,,,,,,,
,,,,,,60315645c8c7420a2f1ade9c,62bbfb2f0e15271e2faad414,2022-06-29_09h21.34.541,Colour_Asymmetry_Pilot,2022.1.3,Win32,19.87913486,62bbe60bf3d75ef465d3e404,0,101,101,76,1,threeone,,,,,,,,,,,,,,,,,,,,,,,,,,,,,,,,,,,,,,,,,,,,,,,,,,,,,,,,,,,,,,,,,,,,,,,,,,,,,,,,,,,,,,,,,,,,,,,,,,,,,,,,,,,,,,,,,,,,,,,,,,,,,,,,,,,,,,,,,,,,,,,,,,,,,,,,
,,,,,,60315645c8c7420a2f1ade9c,62bbfb2f0e15271e2faad414,2022-06-29_09h21.34.541,Colour_Asymmetry_Pilot,2022.1.3,Win32,19.87913486,62bbe60bf3d75ef465d3e404,0,102,102,94,1,fourtwo,,,,,,,,,,,,,,,,,,,,,,,,,,,,,,,,,,,,,,,,,,,,,,,,,,,,,,,,,,,,,,,,,,,,,,,,,,,,,,,,,,,,,,,,,,,,,,,,,,,,,,,,,,,,,,,,,,,,,,,,,,,,,,,,,,,,,,,,,,,,,,,,,,,,,,,,
,,,,,,60315645c8c7420a2f1ade9c,62bbfb2f0e15271e2faad414,2022-06-29_09h21.34.541,Colour_Asymmetry_Pilot,2022.1.3,Win32,19.87913486,62bbe60bf3d75ef465d3e404,0,103,103,111,1,fourthree,,,,,,,,,,,,,,,,,,,,,,,,,,,,,,,,,,,,,,,,,,,,,,,,,,,,,,,,,,,,,,,,,,,,,,,,,,,,,,,,,,,,,,,,,,,,,,,,,,,,,,,,,,,,,,,,,,,,,,,,,,,,,,,,,,,,,,,,,,,,,,,,,,,,,,,,
,,,,,,60315645c8c7420a2f1ade9c,62bbfb2f0e15271e2faad414,2022-06-29_09h21.34.541,Colour_Asymmetry_Pilot,2022.1.3,Win32,19.87913486,62bbe60bf3d75ef465d3e404,0,104,104,57,1,onethree,,,,,,,,,,,,,,,,,,,,,,,,,,,,,,,,,,,,,,,,,,,,,,,,,,,,,,,,,,,,,,,,,,,,,,,,,,,,,,,,,,,,,,,,,,,,,,,,,,,,,,,,,,,,,,,,,,,,,,,,,,,,,,,,,,,,,,,,,,,,,,,,,,,,,,,,
,,,,,,60315645c8c7420a2f1ade9c,62bbfb2f0e15271e2faad414,2022-06-29_09h21.34.541,Colour_Asymmetry_Pilot,2022.1.3,Win32,19.87913486,62bbe60bf3d75ef465d3e404,0,105,105,20,1,threeone,,,,,,,,,,,,,,,,,,,,,,,,,,,,,,,,,,,,,,,,,,,,,,,,,,,,,,,,,,,,,,,,,,,,,,,,,,,,,,,,,,,,,,,,,,,,,,,,,,,,,,,,,,,,,,,,,,,,,,,,,,,,,,,,,,,,,,,,,,,,,,,,,,,,,,,,
,,,,,,60315645c8c7420a2f1ade9c,62bbfb2f0e15271e2faad414,2022-06-29_09h21.34.541,Colour_Asymmetry_Pilot,2022.1.3,Win32,19.87913486,62bbe60bf3d75ef465d3e404,0,106,106,5,1,threefour,,,,,,,,,,,,,,,,,,,,,,,,,,,,,,,,,,,,,,,,,,,,,,,,,,,,,,,,,,,,,,,,,,,,,,,,,,,,,,,,,,,,,,,,,,,,,,,,,,,,,,,,,,,,,,,,,,,,,,,,,,,,,,,,,,,,,,,,,,,,,,,,,,,,,,,,
,,,,,,60315645c8c7420a2f1ade9c,62bbfb2f0e15271e2faad414,2022-06-29_09h21.34.541,Colour_Asymmetry_Pilot,2022.1.3,Win32,19.87913486,62bbe60bf3d75ef465d3e404,0,107,107,90,1,twoone,,,,,,,,,,,,,,,,,,,,,,,,,,,,,,,,,,,,,,,,,,,,,,,,,,,,,,,,,,,,,,,,,,,,,,,,,,,,,,,,,,,,,,,,,,,,,,,,,,,,,,,,,,,,,,,,,,,,,,,,,,,,,,,,,,,,,,,,,,,,,,,,,,,,,,,,
,,,,,,60315645c8c7420a2f1ade9c,62bbfb2f0e15271e2faad414,2022-06-29_09h21.34.541,Colour_Asymmetry_Pilot,2022.1.3,Win32,19.87913486,62bbe60bf3d75ef465d3e404,0,108,108,83,1,twofour,,,,,,,,,,,,,,,,,,,,,,,,,,,,,,,,,,,,,,,,,,,,,,,,,,,,,,,,,,,,,,,,,,,,,,,,,,,,,,,,,,,,,,,,,,,,,,,,,,,,,,,,,,,,,,,,,,,,,,,,,,,,,,,,,,,,,,,,,,,,,,,,,,,,,,,,
,,,,,,60315645c8c7420a2f1ade9c,62bbfb2f0e15271e2faad414,2022-06-29_09h21.34.541,Colour_Asymmetry_Pilot,2022.1.3,Win32,19.87913486,62bbe60bf3d75ef465d3e404,0,109,109,138,1,twoone,,,,,,,,,,,,,,,,,,,,,,,,,,,,,,,,,,,,,,,,,,,,,,,,,,,,,,,,,,,,,,,,,,,,,,,,,,,,,,,,,,,,,,,,,,,,,,,,,,,,,,,,,,,,,,,,,,,,,,,,,,,,,,,,,,,,,,,,,,,,,,,,,,,,,,,,
,,,,,,60315645c8c7420a2f1ade9c,62bbfb2f0e15271e2faad414,2022-06-29_09h21.34.541,Colour_Asymmetry_Pilot,2022.1.3,Win32,19.87913486,62bbe60bf3d75ef465d3e404,0,110,110,99,1,twofour,,,,,,,,,,,,,,,,,,,,,,,,,,,,,,,,,,,,,,,,,,,,,,,,,,,,,,,,,,,,,,,,,,,,,,,,,,,,,,,,,,,,,,,,,,,,,,,,,,,,,,,,,,,,,,,,,,,,,,,,,,,,,,,,,,,,,,,,,,,,,,,,,,,,,,,,
,,,,,,60315645c8c7420a2f1ade9c,62bbfb2f0e15271e2faad414,2022-06-29_09h21.34.541,Colour_Asymmetry_Pilot,2022.1.3,Win32,19.87913486,62bbe60bf3d75ef465d3e404,0,111,111,56,1,onetwo,,,,,,,,,,,,,,,,,,,,,,,,,,,,,,,,,,,,,,,,,,,,,,,,,,,,,,,,,,,,,,,,,,,,,,,,,,,,,,,,,,,,,,,,,,,,,,,,,,,,,,,,,,,,,,,,,,,,,,,,,,,,,,,,,,,,,,,,,,,,,,,,,,,,,,,,
,,,,,,60315645c8c7420a2f1ade9c,62bbfb2f0e15271e2faad414,2022-06-29_09h21.34.541,Colour_Asymmetry_Pilot,2022.1.3,Win32,19.87913486,62bbe60bf3d75ef465d3e404,0,112,112,145,1,onethree,,,,,,,,,,,,,,,,,,,,,,,,,,,,,,,,,,,,,,,,,,,,,,,,,,,,,,,,,,,,,,,,,,,,,,,,,,,,,,,,,,,,,,,,,,,,,,,,,,,,,,,,,,,,,,,,,,,,,,,,,,,,,,,,,,,,,,,,,,,,,,,,,,,,,,,,
,,,,,,60315645c8c7420a2f1ade9c,62bbfb2f0e15271e2faad414,2022-06-29_09h21.34.541,Colour_Asymmetry_Pilot,2022.1.3,Win32,19.87913486,62bbe60bf3d75ef465d3e404,0,113,113,102,1,fourtwo,,,,,,,,,,,,,,,,,,,,,,,,,,,,,,,,,,,,,,,,,,,,,,,,,,,,,,,,,,,,,,,,,,,,,,,,,,,,,,,,,,,,,,,,,,,,,,,,,,,,,,,,,,,,,,,,,,,,,,,,,,,,,,,,,,,,,,,,,,,,,,,,,,,,,,,,
,,,,,,60315645c8c7420a2f1ade9c,62bbfb2f0e15271e2faad414,2022-06-29_09h21.34.541,Colour_Asymmetry_Pilot,2022.1.3,Win32,19.87913486,62bbe60bf3d75ef465d3e404,0,114,114,100,1,threeone,,,,,,,,,,,,,,,,,,,,,,,,,,,,,,,,,,,,,,,,,,,,,,,,,,,,,,,,,,,,,,,,,,,,,,,,,,,,,,,,,,,,,,,,,,,,,,,,,,,,,,,,,,,,,,,,,,,,,,,,,,,,,,,,,,,,,,,,,,,,,,,,,,,,,,,,
,,,,,,60315645c8c7420a2f1ade9c,62bbfb2f0e15271e2faad414,2022-06-29_09h21.34.541,Colour_Asymmetry_Pilot,2022.1.3,Win32,19.87913486,62bbe60bf3d75ef465d3e404,0,115,115,144,1,onetwo,,,,,,,,,,,,,,,,,,,,,,,,,,,,,,,,,,,,,,,,,,,,,,,,,,,,,,,,,,,,,,,,,,,,,,,,,,,,,,,,,,,,,,,,,,,,,,,,,,,,,,,,,,,,,,,,,,,,,,,,,,,,,,,,,,,,,,,,,,,,,,,,,,,,,,,,
,,,,,,60315645c8c7420a2f1ade9c,62bbfb2f0e15271e2faad414,2022-06-29_09h21.34.541,Colour_Asymmetry_Pilot,2022.1.3,Win32,19.87913486,62bbe60bf3d75ef465d3e404,0,116,116,107,1,twofour,,,,,,,,,,,,,,,,,,,,,,,,,,,,,,,,,,,,,,,,,,,,,,,,,,,,,,,,,,,,,,,,,,,,,,,,,,,,,,,,,,,,,,,,,,,,,,,,,,,,,,,,,,,,,,,,,,,,,,,,,,,,,,,,,,,,,,,,,,,,,,,,,,,,,,,,
,,,,,,60315645c8c7420a2f1ade9c,62bbfb2f0e15271e2faad414,2022-06-29_09h21.34.541,Colour_Asymmetry_Pilot,2022.1.3,Win32,19.87913486,62bbe60bf3d75ef465d3e404,0,117,117,89,1,onethree,,,,,,,,,,,,,,,,,,,,,,,,,,,,,,,,,,,,,,,,,,,,,,,,,,,,,,,,,,,,,,,,,,,,,,,,,,,,,,,,,,,,,,,,,,,,,,,,,,,,,,,,,,,,,,,,,,,,,,,,,,,,,,,,,,,,,,,,,,,,,,,,,,,,,,,,
,,,,,,60315645c8c7420a2f1ade9c,62bbfb2f0e15271e2faad414,2022-06-29_09h21.34.541,Colour_Asymmetry_Pilot,2022.1.3,Win32,19.87913486,62bbe60bf3d75ef465d3e404,0,118,118,127,1,fourthree,,,,,,,,,,,,,,,,,,,,,,,,,,,,,,,,,,,,,,,,,,,,,,,,,,,,,,,,,,,,,,,,,,,,,,,,,,,,,,,,,,,,,,,,,,,,,,,,,,,,,,,,,,,,,,,,,,,,,,,,,,,,,,,,,,,,,,,,,,,,,,,,,,,,,,,,
,,,,,,60315645c8c7420a2f1ade9c,62bbfb2f0e15271e2faad414,2022-06-29_09h21.34.541,Colour_Asymmetry_Pilot,2022.1.3,Win32,19.87913486,62bbe60bf3d75ef465d3e404,0,119,119,66,1,twoone,,,,,,,,,,,,,,,,,,,,,,,,,,,,,,,,,,,,,,,,,,,,,,,,,,,,,,,,,,,,,,,,,,,,,,,,,,,,,,,,,,,,,,,,,,,,,,,,,,,,,,,,,,,,,,,,,,,,,,,,,,,,,,,,,,,,,,,,,,,,,,,,,,,,,,,,
,,,,,,60315645c8c7420a2f1ade9c,62bbfb2f0e15271e2faad414,2022-06-29_09h21.34.541,Colour_Asymmetry_Pilot,2022.1.3,Win32,19.87913486,62bbe60bf3d75ef465d3e404,0,120,120,26,1,twoone,,,,,,,,,,,,,,,,,,,,,,,,,,,,,,,,,,,,,,,,,,,,,,,,,,,,,,,,,,,,,,,,,,,,,,,,,,,,,,,,,,,,,,,,,,,,,,,,,,,,,,,,,,,,,,,,,,,,,,,,,,,,,,,,,,,,,,,,,,,,,,,,,,,,,,,,
,,,,,,60315645c8c7420a2f1ade9c,62bbfb2f0e15271e2faad414,2022-06-29_09h21.34.541,Colour_Asymmetry_Pilot,2022.1.3,Win32,19.87913486,62bbe60bf3d75ef465d3e404,0,121,121,88,1,onetwo,,,,,,,,,,,,,,,,,,,,,,,,,,,,,,,,,,,,,,,,,,,,,,,,,,,,,,,,,,,,,,,,,,,,,,,,,,,,,,,,,,,,,,,,,,,,,,,,,,,,,,,,,,,,,,,,,,,,,,,,,,,,,,,,,,,,,,,,,,,,,,,,,,,,,,,,
,,,,,,60315645c8c7420a2f1ade9c,62bbfb2f0e15271e2faad414,2022-06-29_09h21.34.541,Colour_Asymmetry_Pilot,2022.1.3,Win32,19.87913486,62bbe60bf3d75ef465d3e404,0,122,122,47,1,fourthree,,,,,,,,,,,,,,,,,,,,,,,,,,,,,,,,,,,,,,,,,,,,,,,,,,,,,,,,,,,,,,,,,,,,,,,,,,,,,,,,,,,,,,,,,,,,,,,,,,,,,,,,,,,,,,,,,,,,,,,,,,,,,,,,,,,,,,,,,,,,,,,,,,,,,,,,
,,,,,,60315645c8c7420a2f1ade9c,62bbfb2f0e15271e2faad414,2022-06-29_09h21.34.541,Colour_Asymmetry_Pilot,2022.1.3,Win32,19.87913486,62bbe60bf3d75ef465d3e404,0,123,123,156,1,threeone,,,,,,,,,,,,,,,,,,,,,,,,,,,,,,,,,,,,,,,,,,,,,,,,,,,,,,,,,,,,,,,,,,,,,,,,,,,,,,,,,,,,,,,,,,,,,,,,,,,,,,,,,,,,,,,,,,,,,,,,,,,,,,,,,,,,,,,,,,,,,,,,,,,,,,,,
,,,,,,60315645c8c7420a2f1ade9c,62bbfb2f0e15271e2faad414,2022-06-29_09h21.34.541,Colour_Asymmetry_Pilot,2022.1.3,Win32,19.87913486,62bbe60bf3d75ef465d3e404,0,124,124,42,1,twoone,,,,,,,,,,,,,,,,,,,,,,,,,,,,,,,,,,,,,,,,,,,,,,,,,,,,,,,,,,,,,,,,,,,,,,,,,,,,,,,,,,,,,,,,,,,,,,,,,,,,,,,,,,,,,,,,,,,,,,,,,,,,,,,,,,,,,,,,,,,,,,,,,,,,,,,,
,,,,,,60315645c8c7420a2f1ade9c,62bbfb2f0e15271e2faad414,2022-06-29_09h21.34.541,Colour_Asymmetry_Pilot,2022.1.3,Win32,19.87913486,62bbe60bf3d75ef465d3e404,0,125,125,34,1,twoone,,,,,,,,,,,,,,,,,,,,,,,,,,,,,,,,,,,,,,,,,,,,,,,,,,,,,,,,,,,,,,,,,,,,,,,,,,,,,,,,,,,,,,,,,,,,,,,,,,,,,,,,,,,,,,,,,,,,,,,,,,,,,,,,,,,,,,,,,,,,,,,,,,,,,,,,
,,,,,,60315645c8c7420a2f1ade9c,62bbfb2f0e15271e2faad414,2022-06-29_09h21.34.541,Colour_Asymmetry_Pilot,2022.1.3,Win32,19.87913486,62bbe60bf3d75ef465d3e404,0,126,126,105,1,onethree,,,,,,,,,,,,,,,,,,,,,,,,,,,,,,,,,,,,,,,,,,,,,,,,,,,,,,,,,,,,,,,,,,,,,,,,,,,,,,,,,,,,,,,,,,,,,,,,,,,,,,,,,,,,,,,,,,,,,,,,,,,,,,,,,,,,,,,,,,,,,,,,,,,,,,,,
,,,,,,60315645c8c7420a2f1ade9c,62bbfb2f0e15271e2faad414,2022-06-29_09h21.34.541,Colour_Asymmetry_Pilot,2022.1.3,Win32,19.87913486,62bbe60bf3d75ef465d3e404,0,127,127,43,1,twofour,,,,,,,,,,,,,,,,,,,,,,,,,,,,,,,,,,,,,,,,,,,,,,,,,,,,,,,,,,,,,,,,,,,,,,,,,,,,,,,,,,,,,,,,,,,,,,,,,,,,,,,,,,,,,,,,,,,,,,,,,,,,,,,,,,,,,,,,,,,,,,,,,,,,,,,,
,,,,,,60315645c8c7420a2f1ade9c,62bbfb2f0e15271e2faad414,2022-06-29_09h21.34.541,Colour_Asymmetry_Pilot,2022.1.3,Win32,19.87913486,62bbe60bf3d75ef465d3e404,0,128,128,124,1,threeone,,,,,,,,,,,,,,,,,,,,,,,,,,,,,,,,,,,,,,,,,,,,,,,,,,,,,,,,,,,,,,,,,,,,,,,,,,,,,,,,,,,,,,,,,,,,,,,,,,,,,,,,,,,,,,,,,,,,,,,,,,,,,,,,,,,,,,,,,,,,,,,,,,,,,,,,
,,,,,,60315645c8c7420a2f1ade9c,62bbfb2f0e15271e2faad414,2022-06-29_09h21.34.541,Colour_Asymmetry_Pilot,2022.1.3,Win32,19.87913486,62bbe60bf3d75ef465d3e404,0,129,129,63,1,fourthree,,,,,,,,,,,,,,,,,,,,,,,,,,,,,,,,,,,,,,,,,,,,,,,,,,,,,,,,,,,,,,,,,,,,,,,,,,,,,,,,,,,,,,,,,,,,,,,,,,,,,,,,,,,,,,,,,,,,,,,,,,,,,,,,,,,,,,,,,,,,,,,,,,,,,,,,
,,,,,,60315645c8c7420a2f1ade9c,62bbfb2f0e15271e2faad414,2022-06-29_09h21.34.541,Colour_Asymmetry_Pilot,2022.1.3,Win32,19.87913486,62bbe60bf3d75ef465d3e404,0,130,130,143,1,fourthree,,,,,,,,,,,,,,,,,,,,,,,,,,,,,,,,,,,,,,,,,,,,,,,,,,,,,,,,,,,,,,,,,,,,,,,,,,,,,,,,,,,,,,,,,,,,,,,,,,,,,,,,,,,,,,,,,,,,,,,,,,,,,,,,,,,,,,,,,,,,,,,,,,,,,,,,
,,,,,,60315645c8c7420a2f1ade9c,62bbfb2f0e15271e2faad414,2022-06-29_09h21.34.541,Colour_Asymmetry_Pilot,2022.1.3,Win32,19.87913486,62bbe60bf3d75ef465d3e404,0,131,131,126,1,fourtwo,,,,,,,,,,,,,,,,,,,,,,,,,,,,,,,,,,,,,,,,,,,,,,,,,,,,,,,,,,,,,,,,,,,,,,,,,,,,,,,,,,,,,,,,,,,,,,,,,,,,,,,,,,,,,,,,,,,,,,,,,,,,,,,,,,,,,,,,,,,,,,,,,,,,,,,,
,,,,,,60315645c8c7420a2f1ade9c,62bbfb2f0e15271e2faad414,2022-06-29_09h21.34.541,Colour_Asymmetry_Pilot,2022.1.3,Win32,19.87913486,62bbe60bf3d75ef465d3e404,0,132,132,123,1,twofour,,,,,,,,,,,,,,,,,,,,,,,,,,,,,,,,,,,,,,,,,,,,,,,,,,,,,,,,,,,,,,,,,,,,,,,,,,,,,,,,,,,,,,,,,,,,,,,,,,,,,,,,,,,,,,,,,,,,,,,,,,,,,,,,,,,,,,,,,,,,,,,,,,,,,,,,
,,,,,,60315645c8c7420a2f1ade9c,62bbfb2f0e15271e2faad414,2022-06-29_09h21.34.541,Colour_Asymmetry_Pilot,2022.1.3,Win32,19.87913486,62bbe60bf3d75ef465d3e404,0,133,133,61,1,threefour,,,,,,,,,,,,,,,,,,,,,,,,,,,,,,,,,,,,,,,,,,,,,,,,,,,,,,,,,,,,,,,,,,,,,,,,,,,,,,,,,,,,,,,,,,,,,,,,,,,,,,,,,,,,,,,,,,,,,,,,,,,,,,,,,,,,,,,,,,,,,,,,,,,,,,,,
,,,,,,60315645c8c7420a2f1ade9c,62bbfb2f0e15271e2faad414,2022-06-29_09h21.34.541,Colour_Asymmetry_Pilot,2022.1.3,Win32,19.87913486,62bbe60bf3d75ef465d3e404,0,134,134,73,1,onethree,,,,,,,,,,,,,,,,,,,,,,,,,,,,,,,,,,,,,,,,,,,,,,,,,,,,,,,,,,,,,,,,,,,,,,,,,,,,,,,,,,,,,,,,,,,,,,,,,,,,,,,,,,,,,,,,,,,,,,,,,,,,,,,,,,,,,,,,,,,,,,,,,,,,,,,,
,,,,,,60315645c8c7420a2f1ade9c,62bbfb2f0e15271e2faad414,2022-06-29_09h21.34.541,Colour_Asymmetry_Pilot,2022.1.3,Win32,19.87913486,62bbe60bf3d75ef465d3e404,0,135,135,129,1,onethree,,,,,,,,,,,,,,,,,,,,,,,,,,,,,,,,,,,,,,,,,,,,,,,,,,,,,,,,,,,,,,,,,,,,,,,,,,,,,,,,,,,,,,,,,,,,,,,,,,,,,,,,,,,,,,,,,,,,,,,,,,,,,,,,,,,,,,,,,,,,,,,,,,,,,,,,
,,,,,,60315645c8c7420a2f1ade9c,62bbfb2f0e15271e2faad414,2022-06-29_09h21.34.541,Colour_Asymmetry_Pilot,2022.1.3,Win32,19.87913486,62bbe60bf3d75ef465d3e404,0,136,136,21,1,threefour,,,,,,,,,,,,,,,,,,,,,,,,,,,,,,,,,,,,,,,,,,,,,,,,,,,,,,,,,,,,,,,,,,,,,,,,,,,,,,,,,,,,,,,,,,,,,,,,,,,,,,,,,,,,,,,,,,,,,,,,,,,,,,,,,,,,,,,,,,,,,,,,,,,,,,,,
,,,,,,60315645c8c7420a2f1ade9c,62bbfb2f0e15271e2faad414,2022-06-29_09h21.34.541,Colour_Asymmetry_Pilot,2022.1.3,Win32,19.87913486,62bbe60bf3d75ef465d3e404,0,137,137,152,1,onetwo,,,,,,,,,,,,,,,,,,,,,,,,,,,,,,,,,,,,,,,,,,,,,,,,,,,,,,,,,,,,,,,,,,,,,,,,,,,,,,,,,,,,,,,,,,,,,,,,,,,,,,,,,,,,,,,,,,,,,,,,,,,,,,,,,,,,,,,,,,,,,,,,,,,,,,,,
,,,,,,60315645c8c7420a2f1ade9c,62bbfb2f0e15271e2faad414,2022-06-29_09h21.34.541,Colour_Asymmetry_Pilot,2022.1.3,Win32,19.87913486,62bbe60bf3d75ef465d3e404,0,138,138,65,1,onethree,,,,,,,,,,,,,,,,,,,,,,,,,,,,,,,,,,,,,,,,,,,,,,,,,,,,,,,,,,,,,,,,,,,,,,,,,,,,,,,,,,,,,,,,,,,,,,,,,,,,,,,,,,,,,,,,,,,,,,,,,,,,,,,,,,,,,,,,,,,,,,,,,,,,,,,,
,,,,,,60315645c8c7420a2f1ade9c,62bbfb2f0e15271e2faad414,2022-06-29_09h21.34.541,Colour_Asymmetry_Pilot,2022.1.3,Win32,19.87913486,62bbe60bf3d75ef465d3e404,0,139,139,2,1,twoone,,,,,,,,,,,,,,,,,,,,,,,,,,,,,,,,,,,,,,,,,,,,,,,,,,,,,,,,,,,,,,,,,,,,,,,,,,,,,,,,,,,,,,,,,,,,,,,,,,,,,,,,,,,,,,,,,,,,,,,,,,,,,,,,,,,,,,,,,,,,,,,,,,,,,,,,
,,,,,,60315645c8c7420a2f1ade9c,62bbfb2f0e15271e2faad414,2022-06-29_09h21.34.541,Colour_Asymmetry_Pilot,2022.1.3,Win32,19.87913486,62bbe60bf3d75ef465d3e404,0,140,140,103,1,fourthree,,,,,,,,,,,,,,,,,,,,,,,,,,,,,,,,,,,,,,,,,,,,,,,,,,,,,,,,,,,,,,,,,,,,,,,,,,,,,,,,,,,,,,,,,,,,,,,,,,,,,,,,,,,,,,,,,,,,,,,,,,,,,,,,,,,,,,,,,,,,,,,,,,,,,,,,
,,,,,,60315645c8c7420a2f1ade9c,62bbfb2f0e15271e2faad414,2022-06-29_09h21.34.541,Colour_Asymmetry_Pilot,2022.1.3,Win32,19.87913486,62bbe60bf3d75ef465d3e404,0,141,141,69,1,threefour,,,,,,,,,,,,,,,,,,,,,,,,,,,,,,,,,,,,,,,,,,,,,,,,,,,,,,,,,,,,,,,,,,,,,,,,,,,,,,,,,,,,,,,,,,,,,,,,,,,,,,,,,,,,,,,,,,,,,,,,,,,,,,,,,,,,,,,,,,,,,,,,,,,,,,,,
,,,,,,60315645c8c7420a2f1ade9c,62bbfb2f0e15271e2faad414,2022-06-29_09h21.34.541,Colour_Asymmetry_Pilot,2022.1.3,Win32,19.87913486,62bbe60bf3d75ef465d3e404,0,142,142,106,1,twoone,,,,,,,,,,,,,,,,,,,,,,,,,,,,,,,,,,,,,,,,,,,,,,,,,,,,,,,,,,,,,,,,,,,,,,,,,,,,,,,,,,,,,,,,,,,,,,,,,,,,,,,,,,,,,,,,,,,,,,,,,,,,,,,,,,,,,,,,,,,,,,,,,,,,,,,,
,,,,,,60315645c8c7420a2f1ade9c,62bbfb2f0e15271e2faad414,2022-06-29_09h21.34.541,Colour_Asymmetry_Pilot,2022.1.3,Win32,19.87913486,62bbe60bf3d75ef465d3e404,0,143,143,37,1,threefour,,,,,,,,,,,,,,,,,,,,,,,,,,,,,,,,,,,,,,,,,,,,,,,,,,,,,,,,,,,,,,,,,,,,,,,,,,,,,,,,,,,,,,,,,,,,,,,,,,,,,,,,,,,,,,,,,,,,,,,,,,,,,,,,,,,,,,,,,,,,,,,,,,,,,,,,
,,,,,,60315645c8c7420a2f1ade9c,62bbfb2f0e15271e2faad414,2022-06-29_09h21.34.541,Colour_Asymmetry_Pilot,2022.1.3,Win32,19.87913486,62bbe60bf3d75ef465d3e404,0,144,144,159,1,fourthree,,,,,,,,,,,,,,,,,,,,,,,,,,,,,,,,,,,,,,,,,,,,,,,,,,,,,,,,,,,,,,,,,,,,,,,,,,,,,,,,,,,,,,,,,,,,,,,,,,,,,,,,,,,,,,,,,,,,,,,,,,,,,,,,,,,,,,,,,,,,,,,,,,,,,,,,
,,,,,,60315645c8c7420a2f1ade9c,62bbfb2f0e15271e2faad414,2022-06-29_09h21.34.541,Colour_Asymmetry_Pilot,2022.1.3,Win32,19.87913486,62bbe60bf3d75ef465d3e404,0,145,145,70,1,fourtwo,,,,,,,,,,,,,,,,,,,,,,,,,,,,,,,,,,,,,,,,,,,,,,,,,,,,,,,,,,,,,,,,,,,,,,,,,,,,,,,,,,,,,,,,,,,,,,,,,,,,,,,,,,,,,,,,,,,,,,,,,,,,,,,,,,,,,,,,,,,,,,,,,,,,,,,,
,,,,,,60315645c8c7420a2f1ade9c,62bbfb2f0e15271e2faad414,2022-06-29_09h21.34.541,Colour_Asymmetry_Pilot,2022.1.3,Win32,19.87913486,62bbe60bf3d75ef465d3e404,0,146,146,29,1,threefour,,,,,,,,,,,,,,,,,,,,,,,,,,,,,,,,,,,,,,,,,,,,,,,,,,,,,,,,,,,,,,,,,,,,,,,,,,,,,,,,,,,,,,,,,,,,,,,,,,,,,,,,,,,,,,,,,,,,,,,,,,,,,,,,,,,,,,,,,,,,,,,,,,,,,,,,
,,,,,,60315645c8c7420a2f1ade9c,62bbfb2f0e15271e2faad414,2022-06-29_09h21.34.541,Colour_Asymmetry_Pilot,2022.1.3,Win32,19.87913486,62bbe60bf3d75ef465d3e404,0,147,147,153,1,onethree,,,,,,,,,,,,,,,,,,,,,,,,,,,,,,,,,,,,,,,,,,,,,,,,,,,,,,,,,,,,,,,,,,,,,,,,,,,,,,,,,,,,,,,,,,,,,,,,,,,,,,,,,,,,,,,,,,,,,,,,,,,,,,,,,,,,,,,,,,,,,,,,,,,,,,,,
,,,,,,60315645c8c7420a2f1ade9c,62bbfb2f0e15271e2faad414,2022-06-29_09h21.34.541,Colour_Asymmetry_Pilot,2022.1.3,Win32,19.87913486,62bbe60bf3d75ef465d3e404,0,148,148,154,1,twoone,,,,,,,,,,,,,,,,,,,,,,,,,,,,,,,,,,,,,,,,,,,,,,,,,,,,,,,,,,,,,,,,,,,,,,,,,,,,,,,,,,,,,,,,,,,,,,,,,,,,,,,,,,,,,,,,,,,,,,,,,,,,,,,,,,,,,,,,,,,,,,,,,,,,,,,,
,,,,,,60315645c8c7420a2f1ade9c,62bbfb2f0e15271e2faad414,2022-06-29_09h21.34.541,Colour_Asymmetry_Pilot,2022.1.3,Win32,19.87913486,62bbe60bf3d75ef465d3e404,0,149,149,17,1,onethree,,,,,,,,,,,,,,,,,,,,,,,,,,,,,,,,,,,,,,,,,,,,,,,,,,,,,,,,,,,,,,,,,,,,,,,,,,,,,,,,,,,,,,,,,,,,,,,,,,,,,,,,,,,,,,,,,,,,,,,,,,,,,,,,,,,,,,,,,,,,,,,,,,,,,,,,
,,,,,,60315645c8c7420a2f1ade9c,62bbfb2f0e15271e2faad414,2022-06-29_09h21.34.541,Colour_Asymmetry_Pilot,2022.1.3,Win32,19.87913486,62bbe60bf3d75ef465d3e404,0,150,150,46,1,fourtwo,,,,,,,,,,,,,,,,,,,,,,,,,,,,,,,,,,,,,,,,,,,,,,,,,,,,,,,,,,,,,,,,,,,,,,,,,,,,,,,,,,,,,,,,,,,,,,,,,,,,,,,,,,,,,,,,,,,,,,,,,,,,,,,,,,,,,,,,,,,,,,,,,,,,,,,,
,,,,,,60315645c8c7420a2f1ade9c,62bbfb2f0e15271e2faad414,2022-06-29_09h21.34.541,Colour_Asymmetry_Pilot,2022.1.3,Win32,19.87913486,62bbe60bf3d75ef465d3e404,0,151,151,53,1,threefour,,,,,,,,,,,,,,,,,,,,,,,,,,,,,,,,,,,,,,,,,,,,,,,,,,,,,,,,,,,,,,,,,,,,,,,,,,,,,,,,,,,,,,,,,,,,,,,,,,,,,,,,,,,,,,,,,,,,,,,,,,,,,,,,,,,,,,,,,,,,,,,,,,,,,,,,
,,,,,,60315645c8c7420a2f1ade9c,62bbfb2f0e15271e2faad414,2022-06-29_09h21.34.541,Colour_Asymmetry_Pilot,2022.1.3,Win32,19.87913486,62bbe60bf3d75ef465d3e404,0,152,152,49,1,onethree,,,,,,,,,,,,,,,,,,,,,,,,,,,,,,,,,,,,,,,,,,,,,,,,,,,,,,,,,,,,,,,,,,,,,,,,,,,,,,,,,,,,,,,,,,,,,,,,,,,,,,,,,,,,,,,,,,,,,,,,,,,,,,,,,,,,,,,,,,,,,,,,,,,,,,,,
,,,,,,60315645c8c7420a2f1ade9c,62bbfb2f0e15271e2faad414,2022-06-29_09h21.34.541,Colour_Asymmetry_Pilot,2022.1.3,Win32,19.87913486,62bbe60bf3d75ef465d3e404,0,153,153,141,1,threefour,,,,,,,,,,,,,,,,,,,,,,,,,,,,,,,,,,,,,,,,,,,,,,,,,,,,,,,,,,,,,,,,,,,,,,,,,,,,,,,,,,,,,,,,,,,,,,,,,,,,,,,,,,,,,,,,,,,,,,,,,,,,,,,,,,,,,,,,,,,,,,,,,,,,,,,,
,,,,,,60315645c8c7420a2f1ade9c,62bbfb2f0e15271e2faad414,2022-06-29_09h21.34.541,Colour_Asymmetry_Pilot,2022.1.3,Win32,19.87913486,62bbe60bf3d75ef465d3e404,0,154,154,68,1,threeone,,,,,,,,,,,,,,,,,,,,,,,,,,,,,,,,,,,,,,,,,,,,,,,,,,,,,,,,,,,,,,,,,,,,,,,,,,,,,,,,,,,,,,,,,,,,,,,,,,,,,,,,,,,,,,,,,,,,,,,,,,,,,,,,,,,,,,,,,,,,,,,,,,,,,,,,
,,,,,,60315645c8c7420a2f1ade9c,62bbfb2f0e15271e2faad414,2022-06-29_09h21.34.541,Colour_Asymmetry_Pilot,2022.1.3,Win32,19.87913486,62bbe60bf3d75ef465d3e404,0,155,155,28,1,threeone,,,,,,,,,,,,,,,,,,,,,,,,,,,,,,,,,,,,,,,,,,,,,,,,,,,,,,,,,,,,,,,,,,,,,,,,,,,,,,,,,,,,,,,,,,,,,,,,,,,,,,,,,,,,,,,,,,,,,,,,,,,,,,,,,,,,,,,,,,,,,,,,,,,,,,,,
,,,,,,60315645c8c7420a2f1ade9c,62bbfb2f0e15271e2faad414,2022-06-29_09h21.34.541,Colour_Asymmetry_Pilot,2022.1.3,Win32,19.87913486,62bbe60bf3d75ef465d3e404,0,156,156,19,1,twofour,,,,,,,,,,,,,,,,,,,,,,,,,,,,,,,,,,,,,,,,,,,,,,,,,,,,,,,,,,,,,,,,,,,,,,,,,,,,,,,,,,,,,,,,,,,,,,,,,,,,,,,,,,,,,,,,,,,,,,,,,,,,,,,,,,,,,,,,,,,,,,,,,,,,,,,,
,,,,,,60315645c8c7420a2f1ade9c,62bbfb2f0e15271e2faad414,2022-06-29_09h21.34.541,Colour_Asymmetry_Pilot,2022.1.3,Win32,19.87913486,62bbe60bf3d75ef465d3e404,0,157,157,3,1,twofour,,,,,,,,,,,,,,,,,,,,,,,,,,,,,,,,,,,,,,,,,,,,,,,,,,,,,,,,,,,,,,,,,,,,,,,,,,,,,,,,,,,,,,,,,,,,,,,,,,,,,,,,,,,,,,,,,,,,,,,,,,,,,,,,,,,,,,,,,,,,,,,,,,,,,,,,
,,,,,,60315645c8c7420a2f1ade9c,62bbfb2f0e15271e2faad414,2022-06-29_09h21.34.541,Colour_Asymmetry_Pilot,2022.1.3,Win32,19.87913486,62bbe60bf3d75ef465d3e404,0,158,158,133,1,threefour,,,,,,,,,,,,,,,,,,,,,,,,,,,,,,,,,,,,,,,,,,,,,,,,,,,,,,,,,,,,,,,,,,,,,,,,,,,,,,,,,,,,,,,,,,,,,,,,,,,,,,,,,,,,,,,,,,,,,,,,,,,,,,,,,,,,,,,,,,,,,,,,,,,,,,,,
,,,,,,60315645c8c7420a2f1ade9c,62bbfb2f0e15271e2faad414,2022-06-29_09h21.34.541,Colour_Asymmetry_Pilot,2022.1.3,Win32,19.87913486,62bbe60bf3d75ef465d3e404,0,159,159,74,1,twoone,,,,,,,,,,,,,,,,,,,,,,,,,,,,,,,,,,,,,,,,,,,,,,,,,,,,,,,,,,,,,,,,,,,,,,,,,,,,,,,,,,,,,,,,,,,,,,,,,,,,,,,,,,,,,,,,,,,,,,,,,,,,,,,,,,,,,,,,,,,,,,,,,,,,,,,,
,,,,,,60315645c8c7420a2f1ade9c,62bbfb2f0e15271e2faad414,2022-06-29_09h21.34.541,Colour_Asymmetry_Pilot,2022.1.3,Win32,19.87913486,62bbe60bf3d75ef465d3e404,0,160,160,95,1,fourthree,,,,,,,,,,,,,,,,,,,,,,,,,,,,,,,,,,,,,,,,,,,,,,,,,,,,,,,,,,,,,,,,,,,,,,,,,,,,,,,,,,,,,,,,,,,,,,,,,,,,,,,,,,,,,,,,,,,,,,,,,,,,,,,,,,,,,,,,,,,,,,,,,,,,,,,,
,,,,,,60315645c8c7420a2f1ade9c,62bbfb2f0e15271e2faad414,2022-06-29_09h21.34.541,Colour_Asymmetry_Pilot,2022.1.3,Win32,19.87913486,62bbe60bf3d75ef465d3e404,0,161,161,27,1,twofour,,,,,,,,,,,,,,,,,,,,,,,,,,,,,,,,,,,,,,,,,,,,,,,,,,,,,,,,,,,,,,,,,,,,,,,,,,,,,,,,,,,,,,,,,,,,,,,,,,,,,,,,,,,,,,,,,,,,,,,,,,,,,,,,,,,,,,,,,,,,,,,,,,,,,,,,
,,,,,,60315645c8c7420a2f1ade9c,62bbfb2f0e15271e2faad414,2022-06-29_09h21.34.541,Colour_Asymmetry_Pilot,2022.1.3,Win32,19.87913486,62bbe60bf3d75ef465d3e404,,,,,,,space,5.462,space,65.606,space,79.835,space,26.094,space,30.964,space,21.661,"[-0.45899999999999996,-0.3256,-0.9374]",fourthree,"[-0.48240000000000005,0.3175999999999999,0.2156]",3,14.796,97,36,1,0,0,response1disk_5,-11,-4,1,0,0,rectangle_8,79,48,1,0,0,response1disk_7,6,3,-3,1,1,0,0,rectangle_4,0,0,0,0,1,,,,,,,,,,,,,,,,,,,,,,,,,,,,,,,,,,,,,,,,,,,,,,,,,,,,,,,,,,,,,,,,,,,,,,,,,,,,,,,,,,,,,,,,,,,,,,,,,,,,,,,,
,,,,,,60315645c8c7420a2f1ade9c,62bbfb2f0e15271e2faad414,2022-06-29_09h21.34.541,Colour_Asymmetry_Pilot,2022.1.3,Win32,19.87913486,62bbe60bf3d75ef465d3e404,,,,,,,,,,,,,,,,,,,"[0.19199999999999995,0.18419999999999992,0.5136000000000001]",threeone,"[-0.34920000000000007,-0.702,-0.5216]",-2,4.408,-51,-27,1,0,0,response5disk_5,5,11,1,0,0,rectangle_8,5,11,1,0,0,,,3,5,11,1,0,0,,1,0,1,0,1,,,,,,,,,,,,,,,,,,,,,,,,,,,,,,,,,,,,,,,,,,,,,,,,,,,,,,,,,,,,,,,,,,,,,,,,,,,,,,,,,,,,,,,,,,,,,,,,,,,,,,,,
,,,,,,60315645c8c7420a2f1ade9c,62bbfb2f0e15271e2faad414,2022-06-29_09h21.34.541,Colour_Asymmetry_Pilot,2022.1.3,Win32,19.87913486,62bbe60bf3d75ef465d3e404,,,,,,,,,,,,,,,,,,,"[-0.2942,-0.7648,-0.7492000000000001]",threeone,"[0.40379999999999994,0.09000000000000008,0.44300000000000006]",-2,7.043,-70,-42,1,0,0,response5disk_5,-11,-2,1,0,0,rectangle_8,-11,-2,1,0,0,,,3,-11,-2,1,0,0,,2,0,2,0,1,,,,,,,,,,,,,,,,,,,,,,,,,,,,,,,,,,,,,,,,,,,,,,,,,,,,,,,,,,,,,,,,,,,,,,,,,,,,,,,,,,,,,,,,,,,,,,,,,,,,,,,,
,,,,,,60315645c8c7420a2f1ade9c,62bbfb2f0e15271e2faad414,2022-06-29_09h21.34.541,Colour_Asymmetry_Pilot,2022.1.3,Win32,19.87913486,62bbe60bf3d75ef465d3e404,,,,,,,,,,,,,,,,,,,"[0.6547999999999998,-0.043199999999999905,-0.011800000000000033]",threeone,"[-0.10599999999999998,-0.15300000000000002,0.15280000000000005]",-3,3.924,-77,36,1,0,0,response7disk_5,-18,2,1,0,0,rectangle_8,-18,2,1,0,0,,,3,-18,2,1,0,0,,3,0,3,0,1,,,,,,,,,,,,,,,,,,,,,,,,,,,,,,,,,,,,,,,,,,,,,,,,,,,,,,,,,,,,,,,,,,,,,,,,,,,,,,,,,,,,,,,,,,,,,,,,,,,,,,,,
,,,,,,60315645c8c7420a2f1ade9c,62bbfb2f0e15271e2faad414,2022-06-29_09h21.34.541,Colour_Asymmetry_Pilot,2022.1.3,Win32,19.87913486,62bbe60bf3d75ef465d3e404,,,,,,,,,,,,,,,,,,,"[-0.5452,-0.608,0.2470000000000001]",onethree,"[0.11359999999999992,0.6312,0.5213999999999999]",2,8.38,96,-32,1,0,0,response3disk_5,-10,0,1,0,0,rectangle_8,-10,0,1,0,0,,,3,-10,0,1,0,0,,4,0,4,0,1,,,,,,,,,,,,,,,,,,,,,,,,,,,,,,,,,,,,,,,,,,,,,,,,,,,,,,,,,,,,,,,,,,,,,,,,,,,,,,,,,,,,,,,,,,,,,,,,,,,,,,,,
,,,,,,60315645c8c7420a2f1ade9c,62bbfb2f0e15271e2faad414,2022-06-29_09h21.34.541,Colour_Asymmetry_Pilot,2022.1.3,Win32,19.87913486,62bbe60bf3d75ef465d3e404,,,,,,,,,,,,,,,,,,,"[-0.09019999999999995,0.44300000000000006,0.5371999999999999]",onethree,"[-0.4982,-0.2942,-0.0354000000000001]",2,3.189,106,-49,1,0,0,response3disk_5,3,-2,1,0,0,rectangle_8,3,-2,1,0,0,,,3,3,-2,1,0,0,,5,0,5,0,1,,,,,,,,,,,,,,,,,,,,,,,,,,,,,,,,,,,,,,,,,,,,,,,,,,,,,,,,,,,,,,,,,,,,,,,,,,,,,,,,,,,,,,,,,,,,,,,,,,,,,,,,
,,,,,,60315645c8c7420a2f1ade9c,62bbfb2f0e15271e2faad414,2022-06-29_09h21.34.541,Colour_Asymmetry_Pilot,2022.1.3,Win32,19.87913486,62bbe60bf3d75ef465d3e404,,,,,,,,,,,,,,,,,,,"[0.09799999999999986,-0.24719999999999998,0.15280000000000005]",threeone,"[0.9372,0.9450000000000001,0.8980000000000001]",-4,3.988,-51,87,1,0,0,response7disk_5,4,2,1,0,0,rectangle_8,4,2,1,0,0,,,3,4,2,1,0,0,,6,0,6,0,1,,,,,,,,,,,,,,,,,,,,,,,,,,,,,,,,,,,,,,,,,,,,,,,,,,,,,,,,,,,,,,,,,,,,,,,,,,,,,,,,,,,,,,,,,,,,,,,,,,,,,,,,
,,,,,,60315645c8c7420a2f1ade9c,62bbfb2f0e15271e2faad414,2022-06-29_09h21.34.541,Colour_Asymmetry_Pilot,2022.1.3,Win32,19.87913486,62bbe60bf3d75ef465d3e404,,,,,,,,,,,,,,,,,,,,fourtwo,,-2,3.557,,,,,,,,,,,,,,,,,,,,,,,,,,,,,,,,space,11.397,"[-0.011800000000000033,-0.906,-0.45100000000000007]","[-0.4746,-0.0354000000000001,0.5449999999999999]",-84,-38,1,0,0,response5disk,0,9,1,0,0,rectangle,0,9,1,0,0,,1,0.004,0,0,9,1,0,0,0,0,0,94,1,13,second,,,,,,,,,,,,,,,,,,,,,,,,,,,,,,,,,,,,,,,,,,,,,,,,,,,,,,,,,,,,,,,,,,,
,,,,,,60315645c8c7420a2f1ade9c,62bbfb2f0e15271e2faad414,2022-06-29_09h21.34.541,Colour_Asymmetry_Pilot,2022.1.3,Win32,19.87913486,62bbe60bf3d75ef465d3e404,,,,,,,,,,,,,,,,,,,,fourthree,,-2,4.726,,,,,,,,,,,,,,,,,,,,,,,,,,,,,,,,,,"[0.09799999999999986,-0.24719999999999998,0.15280000000000005]","[0.3802000000000001,0.19199999999999995,-0.6394]",-62,-31,1,0,0,response5disk,-7,0,1,0,0,rectangle,-7,0,1,0,0,,2,0.003,0,-7,0,1,0,0,0,1,1,95,1,14,second,,,,,,,,,,,,,,,,,,,,,,,,,,,,,,,,,,,,,,,,,,,,,,,,,,,,,,,,,,,,,,,,,,,
,,,,,,60315645c8c7420a2f1ade9c,62bbfb2f0e15271e2faad414,2022-06-29_09h21.34.541,Colour_Asymmetry_Pilot,2022.1.3,Win32,19.87913486,62bbe60bf3d75ef465d3e404,,,,,,,,,,,,,,,,,,,,fourtwo,,3,1.7,,,,,,,,,,,,,,,,,,,,,,,,,,,,,,,,,,"[-0.9688,-0.38039999999999996,-0.41979999999999995]","[-0.8118,-0.8198,-0.5452]",95,44,1,0,0,response1disk,-12,6,1,0,0,rectangle,-12,6,1,0,0,,2,0.001,0,-12,6,1,0,0,0,2,2,146,1,65,second,,,,,,,,,,,,,,,,,,,,,,,,,,,,,,,,,,,,,,,,,,,,,,,,,,,,,,,,,,,,,,,,,,,
,,,,,,60315645c8c7420a2f1ade9c,62bbfb2f0e15271e2faad414,2022-06-29_09h21.34.541,Colour_Asymmetry_Pilot,2022.1.3,Win32,19.87913486,62bbe60bf3d75ef465d3e404,,,,,,,,,,,,,,,,,,,,threeone,,-2,2.705,,,,,,,,,,,,,,,,,,,,,,,,,,,,,,,,,,"[-0.4668,-0.8746,-0.2942]","[0.34099999999999997,0.5841999999999998,-0.9844]",-76,-38,1,0,0,response5disk,-16,6,1,0,0,rectangle,81,-35,1,0,0,2,2,5.027,1,4,5,1,0,0,0,3,3,159,1,78,second,response3disk_3,rectangle,,,,,,,,,,,,,,,,,,,,,,,,,,,,,,,,,,,,,,,,,,,,,,,,,,,,,,,,,,,,,,,,,
,,,,,,60315645c8c7420a2f1ade9c,62bbfb2f0e15271e2faad414,2022-06-29_09h21.34.541,Colour_Asymmetry_Pilot,2022.1.3,Win32,19.87913486,62bbe60bf3d75ef465d3e404,,,,,,,,,,,,,,,,,,,,fourtwo,,-3,2.633,,,,,,,,,,,,,,,,,,,,,,,,,,,,,,,,,,"[0.40379999999999994,0.09000000000000008,0.44300000000000006]","[-0.8198,-0.5138,-0.7492000000000001]",-90,47,1,0,0,response7disk,-6,13,1,0,0,rectangle,-6,13,1,0,0,2,1,0.005,0,-6,13,1,0,0,0,4,4,90,1,9,second,,,,,,,,,,,,,,,,,,,,,,,,,,,,,,,,,,,,,,,,,,,,,,,,,,,,,,,,,,,,,,,,,,,
,,,,,,60315645c8c7420a2f1ade9c,62bbfb2f0e15271e2faad414,2022-06-29_09h21.34.541,Colour_Asymmetry_Pilot,2022.1.3,Win32,19.87913486,62bbe60bf3d75ef465d3e404,,,,,,,,,,,,,,,,,,,,onetwo,,1,1.811,,,,,,,,,,,,,,,,,,,,,,,,,,,,,,,,,,"[0.5449999999999999,-0.31000000000000005,-0.0354000000000001]","[1,0.12939999999999996,-1]",44,-82,1,0,0,response3disk,-22,8,1,0,0,rectangle,-22,8,1,0,0,2,3,0.002,0,-22,8,1,0,0,0,5,5,123,1,42,second,,,,,,,,,,,,,,,,,,,,,,,,,,,,,,,,,,,,,,,,,,,,,,,,,,,,,,,,,,,,,,,,,,,
,,,,,,60315645c8c7420a2f1ade9c,62bbfb2f0e15271e2faad414,2022-06-29_09h21.34.541,Colour_Asymmetry_Pilot,2022.1.3,Win32,19.87913486,62bbe60bf3d75ef465d3e404,,,,,,,,,,,,,,,,,,,,twofour,,-3,2.567,,,,,,,,,,,,,,,,,,,,,,,,,,,,,,,,,,"[0.2784,-0.31000000000000005,-0.5452]","[0.40379999999999994,0.09000000000000008,0.44300000000000006]",-94,50,1,0,0,response7disk,-13,5,1,0,0,rectangle,-13,5,1,0,0,2,3,0.001,0,-13,5,1,0,0,0,6,6,122,1,41,second,,,,,,,,,,,,,,,,,,,,,,,,,,,,,,,,,,,,,,,,,,,,,,,,,,,,,,,,,,,,,,,,,,,
,,,,,,60315645c8c7420a2f1ade9c,62bbfb2f0e15271e2faad414,2022-06-29_09h21.34.541,Colour_Asymmetry_Pilot,2022.1.3,Win32,19.87913486,62bbe60bf3d75ef465d3e404,,,,,,,,,,,,,,,,,,,,fourtwo,,1,3.278,,,,,,,,,,,,,,,,,,,,,,,,,,,,,,,,,,"[0.18419999999999992,-0.4276,-0.404]","[-0.17659999999999998,-0.2864,-0.8354]",43,-64,1,0,0,response3disk,-16,6,1,0,0,rectangle,-16,6,1,0,0,2,3,0,0,-16,6,1,0,0,0,7,7,79,1,79,first,,,,,,,,,,,,,,,,,,,,,,,,,,,,,,,,,,,,,,,,,,,,,,,,,,,,,,,,,,,,,,,,,,,
,,,,,,60315645c8c7420a2f1ade9c,62bbfb2f0e15271e2faad414,2022-06-29_09h21.34.541,Colour_Asymmetry_Pilot,2022.1.3,Win32,19.87913486,62bbe60bf3d75ef465d3e404,,,,,,,,,,,,,,,,,,,,threefour,,-3,4.13,,,,,,,,,,,,,,,,,,,,,,,,,,,,,,,,,,"[0.4196,0.4665999999999999,0.3568]","[0.7018,0.7802,-0.16079999999999994]",-82,32,1,0,0,response7disk,4,0,1,0,0,rectangle,4,0,1,0,0,2,2,0.002,0,4,0,1,0,0,0,8,8,107,1,26,second,,,,,,,,,,,,,,,,,,,,,,,,,,,,,,,,,,,,,,,,,,,,,,,,,,,,,,,,,,,,,,,,,,,
,,,,,,60315645c8c7420a2f1ade9c,62bbfb2f0e15271e2faad414,2022-06-29_09h21.34.541,Colour_Asymmetry_Pilot,2022.1.3,Win32,19.87913486,62bbe60bf3d75ef465d3e404,,,,,,,,,,,,,,,,,,,,fourtwo,,-2,2.315,,,,,,,,,,,,,,,,,,,,,,,,,,,,,,,,,,"[-0.9688,-0.38039999999999996,-0.41979999999999995]","[0.8115999999999999,-0.0040000000000000036,-0.09819999999999995]",-84,-44,1,0,0,response5disk,-19,-5,1,0,0,rectangle,-19,-5,1,0,0,2,3,0.002,0,-19,-5,1,0,0,0,9,9,81,1,0,second,,,,,,,,,,,,,,,,,,,,,,,,,,,,,,,,,,,,,,,,,,,,,,,,,,,,,,,,,,,,,,,,,,,
,,,,,,60315645c8c7420a2f1ade9c,62bbfb2f0e15271e2faad414,2022-06-29_09h21.34.541,Colour_Asymmetry_Pilot,2022.1.3,Win32,19.87913486,62bbe60bf3d75ef465d3e404,,,,,,,,,,,,,,,,,,,,onethree,,-1,3.438,,,,,,,,,,,,,,,,,,,,,,,,,,,,,,,,,,"[0.6547999999999998,-0.043199999999999905,-0.011800000000000033]","[0.9842,0.7409999999999999,-0.6628000000000001]",-39,-53,1,0,0,response5disk,-19,1,1,0,0,rectangle,-19,1,1,0,0,2,3,0.001,0,-19,1,1,0,0,0,10,10,30,1,30,first,,,,,,,,,,,,,,,,,,,,,,,,,,,,,,,,,,,,,,,,,,,,,,,,,,,,,,,,,,,,,,,,,,,
,,,,,,60315645c8c7420a2f1ade9c,62bbfb2f0e15271e2faad414,2022-06-29_09h21.34.541,Colour_Asymmetry_Pilot,2022.1.3,Win32,19.87913486,62bbe60bf3d75ef465d3e404,,,,,,,,,,,,,,,,,,,,threefour,,-4,2.982,,,,,,,,,,,,,,,,,,,,,,,,,,,,,,,,,,"[-0.6,0.16860000000000008,0.44300000000000006]","[0.6547999999999998,-0.043199999999999905,-0.011800000000000033]",-57,80,1,0,0,response7disk,3,6,1,0,0,rectangle,3,6,1,0,0,2,2,0.002,0,3,6,1,0,0,0,11,11,110,1,29,second,,,,,,,,,,,,,,,,,,,,,,,,,,,,,,,,,,,,,,,,,,,,,,,,,,,,,,,,,,,,,,,,,,,
,,,,,,60315645c8c7420a2f1ade9c,62bbfb2f0e15271e2faad414,2022-06-29_09h21.34.541,Colour_Asymmetry_Pilot,2022.1.3,Win32,19.87913486,62bbe60bf3d75ef465d3e404,,,,,,,,,,,,,,,,,,,,fourtwo,,-3,3.178,,,,,,,,,,,,,,,,,,,,,,,,,,,,,,,,,,"[-0.24719999999999998,0.5213999999999999,-0.12959999999999994]","[0.8274000000000001,-0.5844,-0.9452]",-75,33,1,0,0,response7disk,-21,3,1,0,0,rectangle,-21,3,1,0,0,2,3,0.002,0,-21,3,1,0,0,0,12,12,92,1,11,second,,,,,,,,,,,,,,,,,,,,,,,,,,,,,,,,,,,,,,,,,,,,,,,,,,,,,,,,,,,,,,,,,,,
,,,,,,60315645c8c7420a2f1ade9c,62bbfb2f0e15271e2faad414,2022-06-29_09h21.34.541,Colour_Asymmetry_Pilot,2022.1.3,Win32,19.87913486,62bbe60bf3d75ef465d3e404,,,,,,,,,,,,,,,,,,,,threeone,,-4,2.017,,,,,,,,,,,,,,,,,,,,,,,,,,,,,,,,,,"[0.9763999999999999,0.8588,-0.05900000000000005]","[-0.10599999999999998,-0.10599999999999998,0.5841999999999998]",-47,61,1,0,0,response7disk,5,-3,1,0,0,rectangle,5,-3,1,0,0,2,3,0.001,0,5,-3,1,0,0,0,13,13,8,1,8,first,,,,,,,,,,,,,,,,,,,,,,,,,,,,,,,,,,,,,,,,,,,,,,,,,,,,,,,,,,,,,,,,,,,
,,,,,,60315645c8c7420a2f1ade9c,62bbfb2f0e15271e2faad414,2022-06-29_09h21.34.541,Colour_Asymmetry_Pilot,2022.1.3,Win32,19.87913486,62bbe60bf3d75ef465d3e404,,,,,,,,,,,,,,,,,,,,twofour,,1,5.636,,,,,,,,,,,,,,,,,,,,,,,,,,,,,,,,,,"[-0.9766,-0.6472,0.07440000000000002]","[-0.9844,-0.9688,-0.9922]",25,-101,1,0,0,response3disk,-1,-4,1,0,0,rectangle,-1,-4,1,0,0,2,3,0,0,-1,-4,1,0,0,0,14,14,66,1,66,first,,,,,,,,,,,,,,,,,,,,,,,,,,,,,,,,,,,,,,,,,,,,,,,,,,,,,,,,,,,,,,,,,,,
,,,,,,60315645c8c7420a2f1ade9c,62bbfb2f0e15271e2faad414,2022-06-29_09h21.34.541,Colour_Asymmetry_Pilot,2022.1.3,Win32,19.87913486,62bbe60bf3d75ef465d3e404,,,,,,,,,,,,,,,,,,,,onetwo,,1,3.724,,,,,,,,,,,,,,,,,,,,,,,,,,,,,,,,,,"[-0.17659999999999998,-0.2864,-0.8354]","[0.18419999999999992,-0.4276,-0.404]",33,-90,1,0,0,response3disk,-14,-9,1,0,0,rectangle,69,-34,1,0,0,2,2,4.232,1,4,6,1,0,0,0,15,15,160,1,79,second,response3disk_3,rectangle,,,,,,,,,,,,,,,,,,,,,,,,,,,,,,,,,,,,,,,,,,,,,,,,,,,,,,,,,,,,,,,,,
,,,,,,60315645c8c7420a2f1ade9c,62bbfb2f0e15271e2faad414,2022-06-29_09h21.34.541,Colour_Asymmetry_Pilot,2022.1.3,Win32,19.87913486,62bbe60bf3d75ef465d3e404,,,,,,,,,,,,,,,,,,,,threeone,,2,3.488,,,,,,,,,,,,,,,,,,,,,,,,,,,,,,,,,,"[-0.4276,0.0038000000000000256,-0.3256]","[0.23920000000000008,0.2704,0.16060000000000008]",82,-28,1,0,0,response3disk,-7,6,1,0,0,rectangle,-7,6,1,0,0,2,3,0.002,0,-7,6,1,0,0,0,16,16,45,1,45,first,,,,,,,,,,,,,,,,,,,,,,,,,,,,,,,,,,,,,,,,,,,,,,,,,,,,,,,,,,,,,,,,,,,
,,,,,,60315645c8c7420a2f1ade9c,62bbfb2f0e15271e2faad414,2022-06-29_09h21.34.541,Colour_Asymmetry_Pilot,2022.1.3,Win32,19.87913486,62bbe60bf3d75ef465d3e404,,,,,,,,,,,,,,,,,,,,onetwo,,1,1.784,,,,,,,,,,,,,,,,,,,,,,,,,,,,,,,,,,"[-0.17659999999999998,0.3253999999999999,0.19999999999999996]","[-0.8198,-0.5138,-0.7492000000000001]",57,-102,1,0,0,response3disk,-3,10,1,0,0,rectangle,-3,10,1,0,0,2,1,0.002,0,-3,10,1,0,0,0,17,17,133,1,52,second,,,,,,,,,,,,,,,,,,,,,,,,,,,,,,,,,,,,,,,,,,,,,,,,,,,,,,,,,,,,,,,,,,,
,,,,,,60315645c8c7420a2f1ade9c,62bbfb2f0e15271e2faad414,2022-06-29_09h21.34.541,Colour_Asymmetry_Pilot,2022.1.3,Win32,19.87913486,62bbe60bf3d75ef465d3e404,,,,,,,,,,,,,,,,,,,,twoone,,-2,1.811,,,,,,,,,,,,,,,,,,,,,,,,,,,,,,,,,,"[-0.4982,-0.2942,-0.0354000000000001]","[-0.7412000000000001,-0.08239999999999992,-0.6864]",-82,-53,1,0,0,response5disk,2,-3,1,0,0,rectangle,2,-3,1,0,0,2,2,0.002,0,2,-3,1,0,0,0,18,18,150,1,69,second,,,,,,,,,,,,,,,,,,,,,,,,,,,,,,,,,,,,,,,,,,,,,,,,,,,,,,,,,,,,,,,,,,,
,,,,,,60315645c8c7420a2f1ade9c,62bbfb2f0e15271e2faad414,2022-06-29_09h21.34.541,Colour_Asymmetry_Pilot,2022.1.3,Win32,19.87913486,62bbe60bf3d75ef465d3e404,,,,,,,,,,,,,,,,,,,,threeone,,2,1.494,,,,,,,,,,,,,,,,,,,,,,,,,,,,,,,,,,"[0.6547999999999998,-0.043199999999999905,-0.011800000000000033]","[0.30180000000000007,-0.7884,-0.9844]",85,-56,1,0,0,response3disk,9,-1,1,0,0,rectangle,9,-1,1,0,0,2,1,0.002,0,9,-1,1,0,0,0,19,19,34,1,34,first,,,,,,,,,,,,,,,,,,,,,,,,,,,,,,,,,,,,,,,,,,,,,,,,,,,,,,,,,,,,,,,,,,,
,,,,,,60315645c8c7420a2f1ade9c,62bbfb2f0e15271e2faad414,2022-06-29_09h21.34.541,Colour_Asymmetry_Pilot,2022.1.3,Win32,19.87913486,62bbe60bf3d75ef465d3e404,,,,,,,,,,,,,,,,,,,,threefour,,-3,1.5,,,,,,,,,,,,,,,,,,,,,,,,,,,,,,,,,,"[0.3802000000000001,0.19199999999999995,-0.6394]","[-0.9688,-0.7412000000000001,-0.4902000000000001]",-70,47,1,0,0,response7disk,-21,8,1,0,0,rectangle,-21,8,1,0,0,2,2,0.002,0,-21,8,1,0,0,0,20,20,87,1,6,second,,,,,,,,,,,,,,,,,,,,,,,,,,,,,,,,,,,,,,,,,,,,,,,,,,,,,,,,,,,,,,,,,,,
