trials.thisRepN,trials.thisTrialN,trials.thisN,trials.thisIndex,trials.ran,Colourcodes,participant,session,date,expName,psychopyVersion,OS,frameRate,study_id,trials_4.thisRepN,trials_4.thisTrialN,trials_4.thisN,trials_4.thisIndex,trials_4.ran,StimulusPos,key_resp.keys,key_resp.rt,key_resp_2.keys,key_resp_2.rt,key_resp_15.keys,key_resp_15.rt,key_resp_17.keys,key_resp_17.rt,key_resp_9.keys,key_resp_9.rt,key_resp_10.keys,key_resp_10.rt,Circle1_col,Ecc,Circle2_col,similarity,response_time,mouse_5.x,mouse_5.y,mouse_5.leftButton,mouse_5.midButton,mouse_5.rightButton,mouse_5.clicked_name,mouse_10.x,mouse_10.y,mouse_10.leftButton,mouse_10.midButton,mouse_10.rightButton,mouse_10.clicked_name,mouse_7.x,mouse_7.y,mouse_7.leftButton,mouse_7.midButton,mouse_7.rightButton,catchnumberprac,mouse_6.x,mouse_6.y,mouse_6.leftButton,mouse_6.midButton,mouse_6.rightButton,duringprac.thisRepN,duringprac.thisTrialN,duringprac.thisN,duringprac.thisIndex,duringprac.ran,mouse_7.clicked_name,catchprac,mouse_6.clicked_name,key_resp_22.keys,key_resp_22.rt,Circle1_colour,Circle2_colour,mouse.x,mouse.y,mouse.leftButton,mouse.midButton,mouse.rightButton,mouse.clicked_name,mouse_2.x,mouse_2.y,mouse_2.leftButton,mouse_2.midButton,mouse_2.rightButton,mouse_2.clicked_name,mouse_3.x,mouse_3.y,mouse_3.leftButton,mouse_3.midButton,mouse_3.rightButton,mouse_3.clicked_name,catchresponse,catchnumber,response_time_catch,Catch,mouse_11.x,mouse_11.y,mouse_11.leftButton,mouse_11.midButton,mouse_11.rightButton,mouse_11.clicked_name,trials_2.thisRepN,trials_2.thisTrialN,trials_2.thisN,trials_2.thisIndex,trials_2.ran,Colourpair,Temporder,trials_3.thisRepN,trials_3.thisTrialN,trials_3.thisN,trials_3.thisIndex,trials_3.ran,key_resp_instr_Ishi.keys,key_resp_instr_Ishi.rt,Ishi_trial_keyresp.keys,Ishi_trial_keyresp.rt,Ishi_textbox.text,Ishi_loop.thisRepN,Ishi_loop.thisTrialN,Ishi_loop.thisN,Ishi_loop.thisIndex,Ishi_loop.ran,imageaddress,textbox.text,mouse_4.x,mouse_4.y,mouse_4.leftButton,mouse_4.midButton,mouse_4.rightButton,mouse_4.clicked_name,textbox_2.text,mouse_8.x,mouse_8.y,mouse_8.leftButton,mouse_8.midButton,mouse_8.rightButton,mouse_8.clicked_name,textbox_3.text,mouse_9.x,mouse_9.y,mouse_9.leftButton,mouse_9.midButton,mouse_9.rightButton,mouse_9.clicked_name,textbox_4.text,mouse_12.x,mouse_12.y,mouse_12.leftButton,mouse_12.midButton,mouse_12.rightButton,mouse_12.clicked_name,textbox_5.text,mouse_13.x,mouse_13.y,mouse_13.leftButton,mouse_13.midButton,mouse_13.rightButton,mouse_13.clicked_name,textbox_6.text,mouse_14.x,mouse_14.y,mouse_14.leftButton,mouse_14.midButton,mouse_14.rightButton,mouse_14.clicked_name,textbox_7.text,mouse_15.x,mouse_15.y,mouse_15.leftButton,mouse_15.midButton,mouse_15.rightButton,mouse_15.clicked_name
0,0,0,6,1,,5bf483ac08dffa0001100c09,62bbf9b223cc2669efad1885,2022-06-29_08h14.46.653,Colour_Asymmetry_Pilot,2022.1.3,Win32,59.94844434,62bbe60bf3d75ef465d3e404,,,,,,,,,,,,,,,,,,,,,,,,,,,,,,,,,,,,,,,,,,,,,,,,,,,,,,,,,,,,,,,,,,,,,,,,,,,,,,,,,,,,,,,,,,,,,,,,,,,,,,,,,,,,,,,,,,,,,,,,,,,,,,,,,,,,,,,,,,,,,,,,,,,,,,,,,,,,,,
0,1,1,55,1,,5bf483ac08dffa0001100c09,62bbf9b223cc2669efad1885,2022-06-29_08h14.46.653,Colour_Asymmetry_Pilot,2022.1.3,Win32,59.94844434,62bbe60bf3d75ef465d3e404,,,,,,,,,,,,,,,,,,,,,,,,,,,,,,,,,,,,,,,,,,,,,,,,,,,,,,,,,,,,,,,,,,,,,,,,,,,,,,,,,,,,,,,,,,,,,,,,,,,,,,,,,,,,,,,,,,,,,,,,,,,,,,,,,,,,,,,,,,,,,,,,,,,,,,,,,,,,,,
0,2,2,50,1,,5bf483ac08dffa0001100c09,62bbf9b223cc2669efad1885,2022-06-29_08h14.46.653,Colour_Asymmetry_Pilot,2022.1.3,Win32,59.94844434,62bbe60bf3d75ef465d3e404,,,,,,,,,,,,,,,,,,,,,,,,,,,,,,,,,,,,,,,,,,,,,,,,,,,,,,,,,,,,,,,,,,,,,,,,,,,,,,,,,,,,,,,,,,,,,,,,,,,,,,,,,,,,,,,,,,,,,,,,,,,,,,,,,,,,,,,,,,,,,,,,,,,,,,,,,,,,,,
0,3,3,44,1,,5bf483ac08dffa0001100c09,62bbf9b223cc2669efad1885,2022-06-29_08h14.46.653,Colour_Asymmetry_Pilot,2022.1.3,Win32,59.94844434,62bbe60bf3d75ef465d3e404,,,,,,,,,,,,,,,,,,,,,,,,,,,,,,,,,,,,,,,,,,,,,,,,,,,,,,,,,,,,,,,,,,,,,,,,,,,,,,,,,,,,,,,,,,,,,,,,,,,,,,,,,,,,,,,,,,,,,,,,,,,,,,,,,,,,,,,,,,,,,,,,,,,,,,,,,,,,,,
0,4,4,89,1,,5bf483ac08dffa0001100c09,62bbf9b223cc2669efad1885,2022-06-29_08h14.46.653,Colour_Asymmetry_Pilot,2022.1.3,Win32,59.94844434,62bbe60bf3d75ef465d3e404,,,,,,,,,,,,,,,,,,,,,,,,,,,,,,,,,,,,,,,,,,,,,,,,,,,,,,,,,,,,,,,,,,,,,,,,,,,,,,,,,,,,,,,,,,,,,,,,,,,,,,,,,,,,,,,,,,,,,,,,,,,,,,,,,,,,,,,,,,,,,,,,,,,,,,,,,,,,,,
0,5,5,54,1,,5bf483ac08dffa0001100c09,62bbf9b223cc2669efad1885,2022-06-29_08h14.46.653,Colour_Asymmetry_Pilot,2022.1.3,Win32,59.94844434,62bbe60bf3d75ef465d3e404,,,,,,,,,,,,,,,,,,,,,,,,,,,,,,,,,,,,,,,,,,,,,,,,,,,,,,,,,,,,,,,,,,,,,,,,,,,,,,,,,,,,,,,,,,,,,,,,,,,,,,,,,,,,,,,,,,,,,,,,,,,,,,,,,,,,,,,,,,,,,,,,,,,,,,,,,,,,,,
0,6,6,12,1,,5bf483ac08dffa0001100c09,62bbf9b223cc2669efad1885,2022-06-29_08h14.46.653,Colour_Asymmetry_Pilot,2022.1.3,Win32,59.94844434,62bbe60bf3d75ef465d3e404,,,,,,,,,,,,,,,,,,,,,,,,,,,,,,,,,,,,,,,,,,,,,,,,,,,,,,,,,,,,,,,,,,,,,,,,,,,,,,,,,,,,,,,,,,,,,,,,,,,,,,,,,,,,,,,,,,,,,,,,,,,,,,,,,,,,,,,,,,,,,,,,,,,,,,,,,,,,,,
0,7,7,47,1,,5bf483ac08dffa0001100c09,62bbf9b223cc2669efad1885,2022-06-29_08h14.46.653,Colour_Asymmetry_Pilot,2022.1.3,Win32,59.94844434,62bbe60bf3d75ef465d3e404,,,,,,,,,,,,,,,,,,,,,,,,,,,,,,,,,,,,,,,,,,,,,,,,,,,,,,,,,,,,,,,,,,,,,,,,,,,,,,,,,,,,,,,,,,,,,,,,,,,,,,,,,,,,,,,,,,,,,,,,,,,,,,,,,,,,,,,,,,,,,,,,,,,,,,,,,,,,,,
0,8,8,42,1,,5bf483ac08dffa0001100c09,62bbf9b223cc2669efad1885,2022-06-29_08h14.46.653,Colour_Asymmetry_Pilot,2022.1.3,Win32,59.94844434,62bbe60bf3d75ef465d3e404,,,,,,,,,,,,,,,,,,,,,,,,,,,,,,,,,,,,,,,,,,,,,,,,,,,,,,,,,,,,,,,,,,,,,,,,,,,,,,,,,,,,,,,,,,,,,,,,,,,,,,,,,,,,,,,,,,,,,,,,,,,,,,,,,,,,,,,,,,,,,,,,,,,,,,,,,,,,,,
0,9,9,69,1,,5bf483ac08dffa0001100c09,62bbf9b223cc2669efad1885,2022-06-29_08h14.46.653,Colour_Asymmetry_Pilot,2022.1.3,Win32,59.94844434,62bbe60bf3d75ef465d3e404,,,,,,,,,,,,,,,,,,,,,,,,,,,,,,,,,,,,,,,,,,,,,,,,,,,,,,,,,,,,,,,,,,,,,,,,,,,,,,,,,,,,,,,,,,,,,,,,,,,,,,,,,,,,,,,,,,,,,,,,,,,,,,,,,,,,,,,,,,,,,,,,,,,,,,,,,,,,,,
0,10,10,46,1,,5bf483ac08dffa0001100c09,62bbf9b223cc2669efad1885,2022-06-29_08h14.46.653,Colour_Asymmetry_Pilot,2022.1.3,Win32,59.94844434,62bbe60bf3d75ef465d3e404,,,,,,,,,,,,,,,,,,,,,,,,,,,,,,,,,,,,,,,,,,,,,,,,,,,,,,,,,,,,,,,,,,,,,,,,,,,,,,,,,,,,,,,,,,,,,,,,,,,,,,,,,,,,,,,,,,,,,,,,,,,,,,,,,,,,,,,,,,,,,,,,,,,,,,,,,,,,,,
0,11,11,63,1,,5bf483ac08dffa0001100c09,62bbf9b223cc2669efad1885,2022-06-29_08h14.46.653,Colour_Asymmetry_Pilot,2022.1.3,Win32,59.94844434,62bbe60bf3d75ef465d3e404,,,,,,,,,,,,,,,,,,,,,,,,,,,,,,,,,,,,,,,,,,,,,,,,,,,,,,,,,,,,,,,,,,,,,,,,,,,,,,,,,,,,,,,,,,,,,,,,,,,,,,,,,,,,,,,,,,,,,,,,,,,,,,,,,,,,,,,,,,,,,,,,,,,,,,,,,,,,,,
0,12,12,91,1,,5bf483ac08dffa0001100c09,62bbf9b223cc2669efad1885,2022-06-29_08h14.46.653,Colour_Asymmetry_Pilot,2022.1.3,Win32,59.94844434,62bbe60bf3d75ef465d3e404,,,,,,,,,,,,,,,,,,,,,,,,,,,,,,,,,,,,,,,,,,,,,,,,,,,,,,,,,,,,,,,,,,,,,,,,,,,,,,,,,,,,,,,,,,,,,,,,,,,,,,,,,,,,,,,,,,,,,,,,,,,,,,,,,,,,,,,,,,,,,,,,,,,,,,,,,,,,,,
0,13,13,68,1,,5bf483ac08dffa0001100c09,62bbf9b223cc2669efad1885,2022-06-29_08h14.46.653,Colour_Asymmetry_Pilot,2022.1.3,Win32,59.94844434,62bbe60bf3d75ef465d3e404,,,,,,,,,,,,,,,,,,,,,,,,,,,,,,,,,,,,,,,,,,,,,,,,,,,,,,,,,,,,,,,,,,,,,,,,,,,,,,,,,,,,,,,,,,,,,,,,,,,,,,,,,,,,,,,,,,,,,,,,,,,,,,,,,,,,,,,,,,,,,,,,,,,,,,,,,,,,,,
0,14,14,92,1,,5bf483ac08dffa0001100c09,62bbf9b223cc2669efad1885,2022-06-29_08h14.46.653,Colour_Asymmetry_Pilot,2022.1.3,Win32,59.94844434,62bbe60bf3d75ef465d3e404,,,,,,,,,,,,,,,,,,,,,,,,,,,,,,,,,,,,,,,,,,,,,,,,,,,,,,,,,,,,,,,,,,,,,,,,,,,,,,,,,,,,,,,,,,,,,,,,,,,,,,,,,,,,,,,,,,,,,,,,,,,,,,,,,,,,,,,,,,,,,,,,,,,,,,,,,,,,,,
0,15,15,21,1,,5bf483ac08dffa0001100c09,62bbf9b223cc2669efad1885,2022-06-29_08h14.46.653,Colour_Asymmetry_Pilot,2022.1.3,Win32,59.94844434,62bbe60bf3d75ef465d3e404,,,,,,,,,,,,,,,,,,,,,,,,,,,,,,,,,,,,,,,,,,,,,,,,,,,,,,,,,,,,,,,,,,,,,,,,,,,,,,,,,,,,,,,,,,,,,,,,,,,,,,,,,,,,,,,,,,,,,,,,,,,,,,,,,,,,,,,,,,,,,,,,,,,,,,,,,,,,,,
0,16,16,34,1,,5bf483ac08dffa0001100c09,62bbf9b223cc2669efad1885,2022-06-29_08h14.46.653,Colour_Asymmetry_Pilot,2022.1.3,Win32,59.94844434,62bbe60bf3d75ef465d3e404,,,,,,,,,,,,,,,,,,,,,,,,,,,,,,,,,,,,,,,,,,,,,,,,,,,,,,,,,,,,,,,,,,,,,,,,,,,,,,,,,,,,,,,,,,,,,,,,,,,,,,,,,,,,,,,,,,,,,,,,,,,,,,,,,,,,,,,,,,,,,,,,,,,,,,,,,,,,,,
0,17,17,51,1,,5bf483ac08dffa0001100c09,62bbf9b223cc2669efad1885,2022-06-29_08h14.46.653,Colour_Asymmetry_Pilot,2022.1.3,Win32,59.94844434,62bbe60bf3d75ef465d3e404,,,,,,,,,,,,,,,,,,,,,,,,,,,,,,,,,,,,,,,,,,,,,,,,,,,,,,,,,,,,,,,,,,,,,,,,,,,,,,,,,,,,,,,,,,,,,,,,,,,,,,,,,,,,,,,,,,,,,,,,,,,,,,,,,,,,,,,,,,,,,,,,,,,,,,,,,,,,,,
0,18,18,23,1,,5bf483ac08dffa0001100c09,62bbf9b223cc2669efad1885,2022-06-29_08h14.46.653,Colour_Asymmetry_Pilot,2022.1.3,Win32,59.94844434,62bbe60bf3d75ef465d3e404,,,,,,,,,,,,,,,,,,,,,,,,,,,,,,,,,,,,,,,,,,,,,,,,,,,,,,,,,,,,,,,,,,,,,,,,,,,,,,,,,,,,,,,,,,,,,,,,,,,,,,,,,,,,,,,,,,,,,,,,,,,,,,,,,,,,,,,,,,,,,,,,,,,,,,,,,,,,,,
0,19,19,66,1,,5bf483ac08dffa0001100c09,62bbf9b223cc2669efad1885,2022-06-29_08h14.46.653,Colour_Asymmetry_Pilot,2022.1.3,Win32,59.94844434,62bbe60bf3d75ef465d3e404,,,,,,,,,,,,,,,,,,,,,,,,,,,,,,,,,,,,,,,,,,,,,,,,,,,,,,,,,,,,,,,,,,,,,,,,,,,,,,,,,,,,,,,,,,,,,,,,,,,,,,,,,,,,,,,,,,,,,,,,,,,,,,,,,,,,,,,,,,,,,,,,,,,,,,,,,,,,,,
0,20,20,71,1,,5bf483ac08dffa0001100c09,62bbf9b223cc2669efad1885,2022-06-29_08h14.46.653,Colour_Asymmetry_Pilot,2022.1.3,Win32,59.94844434,62bbe60bf3d75ef465d3e404,,,,,,,,,,,,,,,,,,,,,,,,,,,,,,,,,,,,,,,,,,,,,,,,,,,,,,,,,,,,,,,,,,,,,,,,,,,,,,,,,,,,,,,,,,,,,,,,,,,,,,,,,,,,,,,,,,,,,,,,,,,,,,,,,,,,,,,,,,,,,,,,,,,,,,,,,,,,,,
0,21,21,74,1,,5bf483ac08dffa0001100c09,62bbf9b223cc2669efad1885,2022-06-29_08h14.46.653,Colour_Asymmetry_Pilot,2022.1.3,Win32,59.94844434,62bbe60bf3d75ef465d3e404,,,,,,,,,,,,,,,,,,,,,,,,,,,,,,,,,,,,,,,,,,,,,,,,,,,,,,,,,,,,,,,,,,,,,,,,,,,,,,,,,,,,,,,,,,,,,,,,,,,,,,,,,,,,,,,,,,,,,,,,,,,,,,,,,,,,,,,,,,,,,,,,,,,,,,,,,,,,,,
0,22,22,33,1,,5bf483ac08dffa0001100c09,62bbf9b223cc2669efad1885,2022-06-29_08h14.46.653,Colour_Asymmetry_Pilot,2022.1.3,Win32,59.94844434,62bbe60bf3d75ef465d3e404,,,,,,,,,,,,,,,,,,,,,,,,,,,,,,,,,,,,,,,,,,,,,,,,,,,,,,,,,,,,,,,,,,,,,,,,,,,,,,,,,,,,,,,,,,,,,,,,,,,,,,,,,,,,,,,,,,,,,,,,,,,,,,,,,,,,,,,,,,,,,,,,,,,,,,,,,,,,,,
0,23,23,43,1,,5bf483ac08dffa0001100c09,62bbf9b223cc2669efad1885,2022-06-29_08h14.46.653,Colour_Asymmetry_Pilot,2022.1.3,Win32,59.94844434,62bbe60bf3d75ef465d3e404,,,,,,,,,,,,,,,,,,,,,,,,,,,,,,,,,,,,,,,,,,,,,,,,,,,,,,,,,,,,,,,,,,,,,,,,,,,,,,,,,,,,,,,,,,,,,,,,,,,,,,,,,,,,,,,,,,,,,,,,,,,,,,,,,,,,,,,,,,,,,,,,,,,,,,,,,,,,,,
0,24,24,18,1,,5bf483ac08dffa0001100c09,62bbf9b223cc2669efad1885,2022-06-29_08h14.46.653,Colour_Asymmetry_Pilot,2022.1.3,Win32,59.94844434,62bbe60bf3d75ef465d3e404,,,,,,,,,,,,,,,,,,,,,,,,,,,,,,,,,,,,,,,,,,,,,,,,,,,,,,,,,,,,,,,,,,,,,,,,,,,,,,,,,,,,,,,,,,,,,,,,,,,,,,,,,,,,,,,,,,,,,,,,,,,,,,,,,,,,,,,,,,,,,,,,,,,,,,,,,,,,,,
0,25,25,52,1,,5bf483ac08dffa0001100c09,62bbf9b223cc2669efad1885,2022-06-29_08h14.46.653,Colour_Asymmetry_Pilot,2022.1.3,Win32,59.94844434,62bbe60bf3d75ef465d3e404,,,,,,,,,,,,,,,,,,,,,,,,,,,,,,,,,,,,,,,,,,,,,,,,,,,,,,,,,,,,,,,,,,,,,,,,,,,,,,,,,,,,,,,,,,,,,,,,,,,,,,,,,,,,,,,,,,,,,,,,,,,,,,,,,,,,,,,,,,,,,,,,,,,,,,,,,,,,,,
0,26,26,4,1,,5bf483ac08dffa0001100c09,62bbf9b223cc2669efad1885,2022-06-29_08h14.46.653,Colour_Asymmetry_Pilot,2022.1.3,Win32,59.94844434,62bbe60bf3d75ef465d3e404,,,,,,,,,,,,,,,,,,,,,,,,,,,,,,,,,,,,,,,,,,,,,,,,,,,,,,,,,,,,,,,,,,,,,,,,,,,,,,,,,,,,,,,,,,,,,,,,,,,,,,,,,,,,,,,,,,,,,,,,,,,,,,,,,,,,,,,,,,,,,,,,,,,,,,,,,,,,,,
0,27,27,76,1,,5bf483ac08dffa0001100c09,62bbf9b223cc2669efad1885,2022-06-29_08h14.46.653,Colour_Asymmetry_Pilot,2022.1.3,Win32,59.94844434,62bbe60bf3d75ef465d3e404,,,,,,,,,,,,,,,,,,,,,,,,,,,,,,,,,,,,,,,,,,,,,,,,,,,,,,,,,,,,,,,,,,,,,,,,,,,,,,,,,,,,,,,,,,,,,,,,,,,,,,,,,,,,,,,,,,,,,,,,,,,,,,,,,,,,,,,,,,,,,,,,,,,,,,,,,,,,,,
0,28,28,64,1,,5bf483ac08dffa0001100c09,62bbf9b223cc2669efad1885,2022-06-29_08h14.46.653,Colour_Asymmetry_Pilot,2022.1.3,Win32,59.94844434,62bbe60bf3d75ef465d3e404,,,,,,,,,,,,,,,,,,,,,,,,,,,,,,,,,,,,,,,,,,,,,,,,,,,,,,,,,,,,,,,,,,,,,,,,,,,,,,,,,,,,,,,,,,,,,,,,,,,,,,,,,,,,,,,,,,,,,,,,,,,,,,,,,,,,,,,,,,,,,,,,,,,,,,,,,,,,,,
0,29,29,49,1,,5bf483ac08dffa0001100c09,62bbf9b223cc2669efad1885,2022-06-29_08h14.46.653,Colour_Asymmetry_Pilot,2022.1.3,Win32,59.94844434,62bbe60bf3d75ef465d3e404,,,,,,,,,,,,,,,,,,,,,,,,,,,,,,,,,,,,,,,,,,,,,,,,,,,,,,,,,,,,,,,,,,,,,,,,,,,,,,,,,,,,,,,,,,,,,,,,,,,,,,,,,,,,,,,,,,,,,,,,,,,,,,,,,,,,,,,,,,,,,,,,,,,,,,,,,,,,,,
0,30,30,77,1,,5bf483ac08dffa0001100c09,62bbf9b223cc2669efad1885,2022-06-29_08h14.46.653,Colour_Asymmetry_Pilot,2022.1.3,Win32,59.94844434,62bbe60bf3d75ef465d3e404,,,,,,,,,,,,,,,,,,,,,,,,,,,,,,,,,,,,,,,,,,,,,,,,,,,,,,,,,,,,,,,,,,,,,,,,,,,,,,,,,,,,,,,,,,,,,,,,,,,,,,,,,,,,,,,,,,,,,,,,,,,,,,,,,,,,,,,,,,,,,,,,,,,,,,,,,,,,,,
0,31,31,67,1,,5bf483ac08dffa0001100c09,62bbf9b223cc2669efad1885,2022-06-29_08h14.46.653,Colour_Asymmetry_Pilot,2022.1.3,Win32,59.94844434,62bbe60bf3d75ef465d3e404,,,,,,,,,,,,,,,,,,,,,,,,,,,,,,,,,,,,,,,,,,,,,,,,,,,,,,,,,,,,,,,,,,,,,,,,,,,,,,,,,,,,,,,,,,,,,,,,,,,,,,,,,,,,,,,,,,,,,,,,,,,,,,,,,,,,,,,,,,,,,,,,,,,,,,,,,,,,,,
0,32,32,17,1,,5bf483ac08dffa0001100c09,62bbf9b223cc2669efad1885,2022-06-29_08h14.46.653,Colour_Asymmetry_Pilot,2022.1.3,Win32,59.94844434,62bbe60bf3d75ef465d3e404,,,,,,,,,,,,,,,,,,,,,,,,,,,,,,,,,,,,,,,,,,,,,,,,,,,,,,,,,,,,,,,,,,,,,,,,,,,,,,,,,,,,,,,,,,,,,,,,,,,,,,,,,,,,,,,,,,,,,,,,,,,,,,,,,,,,,,,,,,,,,,,,,,,,,,,,,,,,,,
0,33,33,61,1,,5bf483ac08dffa0001100c09,62bbf9b223cc2669efad1885,2022-06-29_08h14.46.653,Colour_Asymmetry_Pilot,2022.1.3,Win32,59.94844434,62bbe60bf3d75ef465d3e404,,,,,,,,,,,,,,,,,,,,,,,,,,,,,,,,,,,,,,,,,,,,,,,,,,,,,,,,,,,,,,,,,,,,,,,,,,,,,,,,,,,,,,,,,,,,,,,,,,,,,,,,,,,,,,,,,,,,,,,,,,,,,,,,,,,,,,,,,,,,,,,,,,,,,,,,,,,,,,
0,34,34,53,1,,5bf483ac08dffa0001100c09,62bbf9b223cc2669efad1885,2022-06-29_08h14.46.653,Colour_Asymmetry_Pilot,2022.1.3,Win32,59.94844434,62bbe60bf3d75ef465d3e404,,,,,,,,,,,,,,,,,,,,,,,,,,,,,,,,,,,,,,,,,,,,,,,,,,,,,,,,,,,,,,,,,,,,,,,,,,,,,,,,,,,,,,,,,,,,,,,,,,,,,,,,,,,,,,,,,,,,,,,,,,,,,,,,,,,,,,,,,,,,,,,,,,,,,,,,,,,,,,
0,35,35,20,1,,5bf483ac08dffa0001100c09,62bbf9b223cc2669efad1885,2022-06-29_08h14.46.653,Colour_Asymmetry_Pilot,2022.1.3,Win32,59.94844434,62bbe60bf3d75ef465d3e404,,,,,,,,,,,,,,,,,,,,,,,,,,,,,,,,,,,,,,,,,,,,,,,,,,,,,,,,,,,,,,,,,,,,,,,,,,,,,,,,,,,,,,,,,,,,,,,,,,,,,,,,,,,,,,,,,,,,,,,,,,,,,,,,,,,,,,,,,,,,,,,,,,,,,,,,,,,,,,
0,36,36,11,1,,5bf483ac08dffa0001100c09,62bbf9b223cc2669efad1885,2022-06-29_08h14.46.653,Colour_Asymmetry_Pilot,2022.1.3,Win32,59.94844434,62bbe60bf3d75ef465d3e404,,,,,,,,,,,,,,,,,,,,,,,,,,,,,,,,,,,,,,,,,,,,,,,,,,,,,,,,,,,,,,,,,,,,,,,,,,,,,,,,,,,,,,,,,,,,,,,,,,,,,,,,,,,,,,,,,,,,,,,,,,,,,,,,,,,,,,,,,,,,,,,,,,,,,,,,,,,,,,
0,37,37,81,1,,5bf483ac08dffa0001100c09,62bbf9b223cc2669efad1885,2022-06-29_08h14.46.653,Colour_Asymmetry_Pilot,2022.1.3,Win32,59.94844434,62bbe60bf3d75ef465d3e404,,,,,,,,,,,,,,,,,,,,,,,,,,,,,,,,,,,,,,,,,,,,,,,,,,,,,,,,,,,,,,,,,,,,,,,,,,,,,,,,,,,,,,,,,,,,,,,,,,,,,,,,,,,,,,,,,,,,,,,,,,,,,,,,,,,,,,,,,,,,,,,,,,,,,,,,,,,,,,
0,38,38,80,1,,5bf483ac08dffa0001100c09,62bbf9b223cc2669efad1885,2022-06-29_08h14.46.653,Colour_Asymmetry_Pilot,2022.1.3,Win32,59.94844434,62bbe60bf3d75ef465d3e404,,,,,,,,,,,,,,,,,,,,,,,,,,,,,,,,,,,,,,,,,,,,,,,,,,,,,,,,,,,,,,,,,,,,,,,,,,,,,,,,,,,,,,,,,,,,,,,,,,,,,,,,,,,,,,,,,,,,,,,,,,,,,,,,,,,,,,,,,,,,,,,,,,,,,,,,,,,,,,
0,39,39,10,1,,5bf483ac08dffa0001100c09,62bbf9b223cc2669efad1885,2022-06-29_08h14.46.653,Colour_Asymmetry_Pilot,2022.1.3,Win32,59.94844434,62bbe60bf3d75ef465d3e404,,,,,,,,,,,,,,,,,,,,,,,,,,,,,,,,,,,,,,,,,,,,,,,,,,,,,,,,,,,,,,,,,,,,,,,,,,,,,,,,,,,,,,,,,,,,,,,,,,,,,,,,,,,,,,,,,,,,,,,,,,,,,,,,,,,,,,,,,,,,,,,,,,,,,,,,,,,,,,
0,40,40,83,1,,5bf483ac08dffa0001100c09,62bbf9b223cc2669efad1885,2022-06-29_08h14.46.653,Colour_Asymmetry_Pilot,2022.1.3,Win32,59.94844434,62bbe60bf3d75ef465d3e404,,,,,,,,,,,,,,,,,,,,,,,,,,,,,,,,,,,,,,,,,,,,,,,,,,,,,,,,,,,,,,,,,,,,,,,,,,,,,,,,,,,,,,,,,,,,,,,,,,,,,,,,,,,,,,,,,,,,,,,,,,,,,,,,,,,,,,,,,,,,,,,,,,,,,,,,,,,,,,
0,41,41,16,1,,5bf483ac08dffa0001100c09,62bbf9b223cc2669efad1885,2022-06-29_08h14.46.653,Colour_Asymmetry_Pilot,2022.1.3,Win32,59.94844434,62bbe60bf3d75ef465d3e404,,,,,,,,,,,,,,,,,,,,,,,,,,,,,,,,,,,,,,,,,,,,,,,,,,,,,,,,,,,,,,,,,,,,,,,,,,,,,,,,,,,,,,,,,,,,,,,,,,,,,,,,,,,,,,,,,,,,,,,,,,,,,,,,,,,,,,,,,,,,,,,,,,,,,,,,,,,,,,
0,42,42,84,1,,5bf483ac08dffa0001100c09,62bbf9b223cc2669efad1885,2022-06-29_08h14.46.653,Colour_Asymmetry_Pilot,2022.1.3,Win32,59.94844434,62bbe60bf3d75ef465d3e404,,,,,,,,,,,,,,,,,,,,,,,,,,,,,,,,,,,,,,,,,,,,,,,,,,,,,,,,,,,,,,,,,,,,,,,,,,,,,,,,,,,,,,,,,,,,,,,,,,,,,,,,,,,,,,,,,,,,,,,,,,,,,,,,,,,,,,,,,,,,,,,,,,,,,,,,,,,,,,
0,43,43,31,1,,5bf483ac08dffa0001100c09,62bbf9b223cc2669efad1885,2022-06-29_08h14.46.653,Colour_Asymmetry_Pilot,2022.1.3,Win32,59.94844434,62bbe60bf3d75ef465d3e404,,,,,,,,,,,,,,,,,,,,,,,,,,,,,,,,,,,,,,,,,,,,,,,,,,,,,,,,,,,,,,,,,,,,,,,,,,,,,,,,,,,,,,,,,,,,,,,,,,,,,,,,,,,,,,,,,,,,,,,,,,,,,,,,,,,,,,,,,,,,,,,,,,,,,,,,,,,,,,
0,44,44,56,1,,5bf483ac08dffa0001100c09,62bbf9b223cc2669efad1885,2022-06-29_08h14.46.653,Colour_Asymmetry_Pilot,2022.1.3,Win32,59.94844434,62bbe60bf3d75ef465d3e404,,,,,,,,,,,,,,,,,,,,,,,,,,,,,,,,,,,,,,,,,,,,,,,,,,,,,,,,,,,,,,,,,,,,,,,,,,,,,,,,,,,,,,,,,,,,,,,,,,,,,,,,,,,,,,,,,,,,,,,,,,,,,,,,,,,,,,,,,,,,,,,,,,,,,,,,,,,,,,
0,45,45,59,1,,5bf483ac08dffa0001100c09,62bbf9b223cc2669efad1885,2022-06-29_08h14.46.653,Colour_Asymmetry_Pilot,2022.1.3,Win32,59.94844434,62bbe60bf3d75ef465d3e404,,,,,,,,,,,,,,,,,,,,,,,,,,,,,,,,,,,,,,,,,,,,,,,,,,,,,,,,,,,,,,,,,,,,,,,,,,,,,,,,,,,,,,,,,,,,,,,,,,,,,,,,,,,,,,,,,,,,,,,,,,,,,,,,,,,,,,,,,,,,,,,,,,,,,,,,,,,,,,
0,46,46,62,1,,5bf483ac08dffa0001100c09,62bbf9b223cc2669efad1885,2022-06-29_08h14.46.653,Colour_Asymmetry_Pilot,2022.1.3,Win32,59.94844434,62bbe60bf3d75ef465d3e404,,,,,,,,,,,,,,,,,,,,,,,,,,,,,,,,,,,,,,,,,,,,,,,,,,,,,,,,,,,,,,,,,,,,,,,,,,,,,,,,,,,,,,,,,,,,,,,,,,,,,,,,,,,,,,,,,,,,,,,,,,,,,,,,,,,,,,,,,,,,,,,,,,,,,,,,,,,,,,
0,47,47,73,1,,5bf483ac08dffa0001100c09,62bbf9b223cc2669efad1885,2022-06-29_08h14.46.653,Colour_Asymmetry_Pilot,2022.1.3,Win32,59.94844434,62bbe60bf3d75ef465d3e404,,,,,,,,,,,,,,,,,,,,,,,,,,,,,,,,,,,,,,,,,,,,,,,,,,,,,,,,,,,,,,,,,,,,,,,,,,,,,,,,,,,,,,,,,,,,,,,,,,,,,,,,,,,,,,,,,,,,,,,,,,,,,,,,,,,,,,,,,,,,,,,,,,,,,,,,,,,,,,
0,48,48,41,1,,5bf483ac08dffa0001100c09,62bbf9b223cc2669efad1885,2022-06-29_08h14.46.653,Colour_Asymmetry_Pilot,2022.1.3,Win32,59.94844434,62bbe60bf3d75ef465d3e404,,,,,,,,,,,,,,,,,,,,,,,,,,,,,,,,,,,,,,,,,,,,,,,,,,,,,,,,,,,,,,,,,,,,,,,,,,,,,,,,,,,,,,,,,,,,,,,,,,,,,,,,,,,,,,,,,,,,,,,,,,,,,,,,,,,,,,,,,,,,,,,,,,,,,,,,,,,,,,
0,49,49,3,1,,5bf483ac08dffa0001100c09,62bbf9b223cc2669efad1885,2022-06-29_08h14.46.653,Colour_Asymmetry_Pilot,2022.1.3,Win32,59.94844434,62bbe60bf3d75ef465d3e404,,,,,,,,,,,,,,,,,,,,,,,,,,,,,,,,,,,,,,,,,,,,,,,,,,,,,,,,,,,,,,,,,,,,,,,,,,,,,,,,,,,,,,,,,,,,,,,,,,,,,,,,,,,,,,,,,,,,,,,,,,,,,,,,,,,,,,,,,,,,,,,,,,,,,,,,,,,,,,
0,50,50,75,1,,5bf483ac08dffa0001100c09,62bbf9b223cc2669efad1885,2022-06-29_08h14.46.653,Colour_Asymmetry_Pilot,2022.1.3,Win32,59.94844434,62bbe60bf3d75ef465d3e404,,,,,,,,,,,,,,,,,,,,,,,,,,,,,,,,,,,,,,,,,,,,,,,,,,,,,,,,,,,,,,,,,,,,,,,,,,,,,,,,,,,,,,,,,,,,,,,,,,,,,,,,,,,,,,,,,,,,,,,,,,,,,,,,,,,,,,,,,,,,,,,,,,,,,,,,,,,,,,
0,51,51,39,1,,5bf483ac08dffa0001100c09,62bbf9b223cc2669efad1885,2022-06-29_08h14.46.653,Colour_Asymmetry_Pilot,2022.1.3,Win32,59.94844434,62bbe60bf3d75ef465d3e404,,,,,,,,,,,,,,,,,,,,,,,,,,,,,,,,,,,,,,,,,,,,,,,,,,,,,,,,,,,,,,,,,,,,,,,,,,,,,,,,,,,,,,,,,,,,,,,,,,,,,,,,,,,,,,,,,,,,,,,,,,,,,,,,,,,,,,,,,,,,,,,,,,,,,,,,,,,,,,
0,52,52,70,1,,5bf483ac08dffa0001100c09,62bbf9b223cc2669efad1885,2022-06-29_08h14.46.653,Colour_Asymmetry_Pilot,2022.1.3,Win32,59.94844434,62bbe60bf3d75ef465d3e404,,,,,,,,,,,,,,,,,,,,,,,,,,,,,,,,,,,,,,,,,,,,,,,,,,,,,,,,,,,,,,,,,,,,,,,,,,,,,,,,,,,,,,,,,,,,,,,,,,,,,,,,,,,,,,,,,,,,,,,,,,,,,,,,,,,,,,,,,,,,,,,,,,,,,,,,,,,,,,
0,53,53,87,1,,5bf483ac08dffa0001100c09,62bbf9b223cc2669efad1885,2022-06-29_08h14.46.653,Colour_Asymmetry_Pilot,2022.1.3,Win32,59.94844434,62bbe60bf3d75ef465d3e404,,,,,,,,,,,,,,,,,,,,,,,,,,,,,,,,,,,,,,,,,,,,,,,,,,,,,,,,,,,,,,,,,,,,,,,,,,,,,,,,,,,,,,,,,,,,,,,,,,,,,,,,,,,,,,,,,,,,,,,,,,,,,,,,,,,,,,,,,,,,,,,,,,,,,,,,,,,,,,
0,54,54,0,1,,5bf483ac08dffa0001100c09,62bbf9b223cc2669efad1885,2022-06-29_08h14.46.653,Colour_Asymmetry_Pilot,2022.1.3,Win32,59.94844434,62bbe60bf3d75ef465d3e404,,,,,,,,,,,,,,,,,,,,,,,,,,,,,,,,,,,,,,,,,,,,,,,,,,,,,,,,,,,,,,,,,,,,,,,,,,,,,,,,,,,,,,,,,,,,,,,,,,,,,,,,,,,,,,,,,,,,,,,,,,,,,,,,,,,,,,,,,,,,,,,,,,,,,,,,,,,,,,
0,55,55,58,1,,5bf483ac08dffa0001100c09,62bbf9b223cc2669efad1885,2022-06-29_08h14.46.653,Colour_Asymmetry_Pilot,2022.1.3,Win32,59.94844434,62bbe60bf3d75ef465d3e404,,,,,,,,,,,,,,,,,,,,,,,,,,,,,,,,,,,,,,,,,,,,,,,,,,,,,,,,,,,,,,,,,,,,,,,,,,,,,,,,,,,,,,,,,,,,,,,,,,,,,,,,,,,,,,,,,,,,,,,,,,,,,,,,,,,,,,,,,,,,,,,,,,,,,,,,,,,,,,
0,56,56,78,1,,5bf483ac08dffa0001100c09,62bbf9b223cc2669efad1885,2022-06-29_08h14.46.653,Colour_Asymmetry_Pilot,2022.1.3,Win32,59.94844434,62bbe60bf3d75ef465d3e404,,,,,,,,,,,,,,,,,,,,,,,,,,,,,,,,,,,,,,,,,,,,,,,,,,,,,,,,,,,,,,,,,,,,,,,,,,,,,,,,,,,,,,,,,,,,,,,,,,,,,,,,,,,,,,,,,,,,,,,,,,,,,,,,,,,,,,,,,,,,,,,,,,,,,,,,,,,,,,
0,57,57,35,1,,5bf483ac08dffa0001100c09,62bbf9b223cc2669efad1885,2022-06-29_08h14.46.653,Colour_Asymmetry_Pilot,2022.1.3,Win32,59.94844434,62bbe60bf3d75ef465d3e404,,,,,,,,,,,,,,,,,,,,,,,,,,,,,,,,,,,,,,,,,,,,,,,,,,,,,,,,,,,,,,,,,,,,,,,,,,,,,,,,,,,,,,,,,,,,,,,,,,,,,,,,,,,,,,,,,,,,,,,,,,,,,,,,,,,,,,,,,,,,,,,,,,,,,,,,,,,,,,
0,58,58,37,1,,5bf483ac08dffa0001100c09,62bbf9b223cc2669efad1885,2022-06-29_08h14.46.653,Colour_Asymmetry_Pilot,2022.1.3,Win32,59.94844434,62bbe60bf3d75ef465d3e404,,,,,,,,,,,,,,,,,,,,,,,,,,,,,,,,,,,,,,,,,,,,,,,,,,,,,,,,,,,,,,,,,,,,,,,,,,,,,,,,,,,,,,,,,,,,,,,,,,,,,,,,,,,,,,,,,,,,,,,,,,,,,,,,,,,,,,,,,,,,,,,,,,,,,,,,,,,,,,
0,59,59,90,1,,5bf483ac08dffa0001100c09,62bbf9b223cc2669efad1885,2022-06-29_08h14.46.653,Colour_Asymmetry_Pilot,2022.1.3,Win32,59.94844434,62bbe60bf3d75ef465d3e404,,,,,,,,,,,,,,,,,,,,,,,,,,,,,,,,,,,,,,,,,,,,,,,,,,,,,,,,,,,,,,,,,,,,,,,,,,,,,,,,,,,,,,,,,,,,,,,,,,,,,,,,,,,,,,,,,,,,,,,,,,,,,,,,,,,,,,,,,,,,,,,,,,,,,,,,,,,,,,
0,60,60,25,1,,5bf483ac08dffa0001100c09,62bbf9b223cc2669efad1885,2022-06-29_08h14.46.653,Colour_Asymmetry_Pilot,2022.1.3,Win32,59.94844434,62bbe60bf3d75ef465d3e404,,,,,,,,,,,,,,,,,,,,,,,,,,,,,,,,,,,,,,,,,,,,,,,,,,,,,,,,,,,,,,,,,,,,,,,,,,,,,,,,,,,,,,,,,,,,,,,,,,,,,,,,,,,,,,,,,,,,,,,,,,,,,,,,,,,,,,,,,,,,,,,,,,,,,,,,,,,,,,
0,61,61,19,1,,5bf483ac08dffa0001100c09,62bbf9b223cc2669efad1885,2022-06-29_08h14.46.653,Colour_Asymmetry_Pilot,2022.1.3,Win32,59.94844434,62bbe60bf3d75ef465d3e404,,,,,,,,,,,,,,,,,,,,,,,,,,,,,,,,,,,,,,,,,,,,,,,,,,,,,,,,,,,,,,,,,,,,,,,,,,,,,,,,,,,,,,,,,,,,,,,,,,,,,,,,,,,,,,,,,,,,,,,,,,,,,,,,,,,,,,,,,,,,,,,,,,,,,,,,,,,,,,
0,62,62,13,1,,5bf483ac08dffa0001100c09,62bbf9b223cc2669efad1885,2022-06-29_08h14.46.653,Colour_Asymmetry_Pilot,2022.1.3,Win32,59.94844434,62bbe60bf3d75ef465d3e404,,,,,,,,,,,,,,,,,,,,,,,,,,,,,,,,,,,,,,,,,,,,,,,,,,,,,,,,,,,,,,,,,,,,,,,,,,,,,,,,,,,,,,,,,,,,,,,,,,,,,,,,,,,,,,,,,,,,,,,,,,,,,,,,,,,,,,,,,,,,,,,,,,,,,,,,,,,,,,
0,63,63,27,1,,5bf483ac08dffa0001100c09,62bbf9b223cc2669efad1885,2022-06-29_08h14.46.653,Colour_Asymmetry_Pilot,2022.1.3,Win32,59.94844434,62bbe60bf3d75ef465d3e404,,,,,,,,,,,,,,,,,,,,,,,,,,,,,,,,,,,,,,,,,,,,,,,,,,,,,,,,,,,,,,,,,,,,,,,,,,,,,,,,,,,,,,,,,,,,,,,,,,,,,,,,,,,,,,,,,,,,,,,,,,,,,,,,,,,,,,,,,,,,,,,,,,,,,,,,,,,,,,
0,64,64,29,1,,5bf483ac08dffa0001100c09,62bbf9b223cc2669efad1885,2022-06-29_08h14.46.653,Colour_Asymmetry_Pilot,2022.1.3,Win32,59.94844434,62bbe60bf3d75ef465d3e404,,,,,,,,,,,,,,,,,,,,,,,,,,,,,,,,,,,,,,,,,,,,,,,,,,,,,,,,,,,,,,,,,,,,,,,,,,,,,,,,,,,,,,,,,,,,,,,,,,,,,,,,,,,,,,,,,,,,,,,,,,,,,,,,,,,,,,,,,,,,,,,,,,,,,,,,,,,,,,
0,65,65,8,1,,5bf483ac08dffa0001100c09,62bbf9b223cc2669efad1885,2022-06-29_08h14.46.653,Colour_Asymmetry_Pilot,2022.1.3,Win32,59.94844434,62bbe60bf3d75ef465d3e404,,,,,,,,,,,,,,,,,,,,,,,,,,,,,,,,,,,,,,,,,,,,,,,,,,,,,,,,,,,,,,,,,,,,,,,,,,,,,,,,,,,,,,,,,,,,,,,,,,,,,,,,,,,,,,,,,,,,,,,,,,,,,,,,,,,,,,,,,,,,,,,,,,,,,,,,,,,,,,
0,66,66,57,1,,5bf483ac08dffa0001100c09,62bbf9b223cc2669efad1885,2022-06-29_08h14.46.653,Colour_Asymmetry_Pilot,2022.1.3,Win32,59.94844434,62bbe60bf3d75ef465d3e404,,,,,,,,,,,,,,,,,,,,,,,,,,,,,,,,,,,,,,,,,,,,,,,,,,,,,,,,,,,,,,,,,,,,,,,,,,,,,,,,,,,,,,,,,,,,,,,,,,,,,,,,,,,,,,,,,,,,,,,,,,,,,,,,,,,,,,,,,,,,,,,,,,,,,,,,,,,,,,
0,67,67,14,1,,5bf483ac08dffa0001100c09,62bbf9b223cc2669efad1885,2022-06-29_08h14.46.653,Colour_Asymmetry_Pilot,2022.1.3,Win32,59.94844434,62bbe60bf3d75ef465d3e404,,,,,,,,,,,,,,,,,,,,,,,,,,,,,,,,,,,,,,,,,,,,,,,,,,,,,,,,,,,,,,,,,,,,,,,,,,,,,,,,,,,,,,,,,,,,,,,,,,,,,,,,,,,,,,,,,,,,,,,,,,,,,,,,,,,,,,,,,,,,,,,,,,,,,,,,,,,,,,
0,68,68,72,1,,5bf483ac08dffa0001100c09,62bbf9b223cc2669efad1885,2022-06-29_08h14.46.653,Colour_Asymmetry_Pilot,2022.1.3,Win32,59.94844434,62bbe60bf3d75ef465d3e404,,,,,,,,,,,,,,,,,,,,,,,,,,,,,,,,,,,,,,,,,,,,,,,,,,,,,,,,,,,,,,,,,,,,,,,,,,,,,,,,,,,,,,,,,,,,,,,,,,,,,,,,,,,,,,,,,,,,,,,,,,,,,,,,,,,,,,,,,,,,,,,,,,,,,,,,,,,,,,
0,69,69,30,1,,5bf483ac08dffa0001100c09,62bbf9b223cc2669efad1885,2022-06-29_08h14.46.653,Colour_Asymmetry_Pilot,2022.1.3,Win32,59.94844434,62bbe60bf3d75ef465d3e404,,,,,,,,,,,,,,,,,,,,,,,,,,,,,,,,,,,,,,,,,,,,,,,,,,,,,,,,,,,,,,,,,,,,,,,,,,,,,,,,,,,,,,,,,,,,,,,,,,,,,,,,,,,,,,,,,,,,,,,,,,,,,,,,,,,,,,,,,,,,,,,,,,,,,,,,,,,,,,
0,70,70,15,1,,5bf483ac08dffa0001100c09,62bbf9b223cc2669efad1885,2022-06-29_08h14.46.653,Colour_Asymmetry_Pilot,2022.1.3,Win32,59.94844434,62bbe60bf3d75ef465d3e404,,,,,,,,,,,,,,,,,,,,,,,,,,,,,,,,,,,,,,,,,,,,,,,,,,,,,,,,,,,,,,,,,,,,,,,,,,,,,,,,,,,,,,,,,,,,,,,,,,,,,,,,,,,,,,,,,,,,,,,,,,,,,,,,,,,,,,,,,,,,,,,,,,,,,,,,,,,,,,
0,71,71,9,1,,5bf483ac08dffa0001100c09,62bbf9b223cc2669efad1885,2022-06-29_08h14.46.653,Colour_Asymmetry_Pilot,2022.1.3,Win32,59.94844434,62bbe60bf3d75ef465d3e404,,,,,,,,,,,,,,,,,,,,,,,,,,,,,,,,,,,,,,,,,,,,,,,,,,,,,,,,,,,,,,,,,,,,,,,,,,,,,,,,,,,,,,,,,,,,,,,,,,,,,,,,,,,,,,,,,,,,,,,,,,,,,,,,,,,,,,,,,,,,,,,,,,,,,,,,,,,,,,
0,72,72,86,1,,5bf483ac08dffa0001100c09,62bbf9b223cc2669efad1885,2022-06-29_08h14.46.653,Colour_Asymmetry_Pilot,2022.1.3,Win32,59.94844434,62bbe60bf3d75ef465d3e404,,,,,,,,,,,,,,,,,,,,,,,,,,,,,,,,,,,,,,,,,,,,,,,,,,,,,,,,,,,,,,,,,,,,,,,,,,,,,,,,,,,,,,,,,,,,,,,,,,,,,,,,,,,,,,,,,,,,,,,,,,,,,,,,,,,,,,,,,,,,,,,,,,,,,,,,,,,,,,
0,73,73,24,1,,5bf483ac08dffa0001100c09,62bbf9b223cc2669efad1885,2022-06-29_08h14.46.653,Colour_Asymmetry_Pilot,2022.1.3,Win32,59.94844434,62bbe60bf3d75ef465d3e404,,,,,,,,,,,,,,,,,,,,,,,,,,,,,,,,,,,,,,,,,,,,,,,,,,,,,,,,,,,,,,,,,,,,,,,,,,,,,,,,,,,,,,,,,,,,,,,,,,,,,,,,,,,,,,,,,,,,,,,,,,,,,,,,,,,,,,,,,,,,,,,,,,,,,,,,,,,,,,
0,74,74,5,1,,5bf483ac08dffa0001100c09,62bbf9b223cc2669efad1885,2022-06-29_08h14.46.653,Colour_Asymmetry_Pilot,2022.1.3,Win32,59.94844434,62bbe60bf3d75ef465d3e404,,,,,,,,,,,,,,,,,,,,,,,,,,,,,,,,,,,,,,,,,,,,,,,,,,,,,,,,,,,,,,,,,,,,,,,,,,,,,,,,,,,,,,,,,,,,,,,,,,,,,,,,,,,,,,,,,,,,,,,,,,,,,,,,,,,,,,,,,,,,,,,,,,,,,,,,,,,,,,
0,75,75,85,1,,5bf483ac08dffa0001100c09,62bbf9b223cc2669efad1885,2022-06-29_08h14.46.653,Colour_Asymmetry_Pilot,2022.1.3,Win32,59.94844434,62bbe60bf3d75ef465d3e404,,,,,,,,,,,,,,,,,,,,,,,,,,,,,,,,,,,,,,,,,,,,,,,,,,,,,,,,,,,,,,,,,,,,,,,,,,,,,,,,,,,,,,,,,,,,,,,,,,,,,,,,,,,,,,,,,,,,,,,,,,,,,,,,,,,,,,,,,,,,,,,,,,,,,,,,,,,,,,
0,76,76,45,1,,5bf483ac08dffa0001100c09,62bbf9b223cc2669efad1885,2022-06-29_08h14.46.653,Colour_Asymmetry_Pilot,2022.1.3,Win32,59.94844434,62bbe60bf3d75ef465d3e404,,,,,,,,,,,,,,,,,,,,,,,,,,,,,,,,,,,,,,,,,,,,,,,,,,,,,,,,,,,,,,,,,,,,,,,,,,,,,,,,,,,,,,,,,,,,,,,,,,,,,,,,,,,,,,,,,,,,,,,,,,,,,,,,,,,,,,,,,,,,,,,,,,,,,,,,,,,,,,
0,77,77,82,1,,5bf483ac08dffa0001100c09,62bbf9b223cc2669efad1885,2022-06-29_08h14.46.653,Colour_Asymmetry_Pilot,2022.1.3,Win32,59.94844434,62bbe60bf3d75ef465d3e404,,,,,,,,,,,,,,,,,,,,,,,,,,,,,,,,,,,,,,,,,,,,,,,,,,,,,,,,,,,,,,,,,,,,,,,,,,,,,,,,,,,,,,,,,,,,,,,,,,,,,,,,,,,,,,,,,,,,,,,,,,,,,,,,,,,,,,,,,,,,,,,,,,,,,,,,,,,,,,
0,78,78,48,1,,5bf483ac08dffa0001100c09,62bbf9b223cc2669efad1885,2022-06-29_08h14.46.653,Colour_Asymmetry_Pilot,2022.1.3,Win32,59.94844434,62bbe60bf3d75ef465d3e404,,,,,,,,,,,,,,,,,,,,,,,,,,,,,,,,,,,,,,,,,,,,,,,,,,,,,,,,,,,,,,,,,,,,,,,,,,,,,,,,,,,,,,,,,,,,,,,,,,,,,,,,,,,,,,,,,,,,,,,,,,,,,,,,,,,,,,,,,,,,,,,,,,,,,,,,,,,,,,
0,79,79,26,1,,5bf483ac08dffa0001100c09,62bbf9b223cc2669efad1885,2022-06-29_08h14.46.653,Colour_Asymmetry_Pilot,2022.1.3,Win32,59.94844434,62bbe60bf3d75ef465d3e404,,,,,,,,,,,,,,,,,,,,,,,,,,,,,,,,,,,,,,,,,,,,,,,,,,,,,,,,,,,,,,,,,,,,,,,,,,,,,,,,,,,,,,,,,,,,,,,,,,,,,,,,,,,,,,,,,,,,,,,,,,,,,,,,,,,,,,,,,,,,,,,,,,,,,,,,,,,,,,
0,80,80,40,1,,5bf483ac08dffa0001100c09,62bbf9b223cc2669efad1885,2022-06-29_08h14.46.653,Colour_Asymmetry_Pilot,2022.1.3,Win32,59.94844434,62bbe60bf3d75ef465d3e404,,,,,,,,,,,,,,,,,,,,,,,,,,,,,,,,,,,,,,,,,,,,,,,,,,,,,,,,,,,,,,,,,,,,,,,,,,,,,,,,,,,,,,,,,,,,,,,,,,,,,,,,,,,,,,,,,,,,,,,,,,,,,,,,,,,,,,,,,,,,,,,,,,,,,,,,,,,,,,
0,81,81,38,1,,5bf483ac08dffa0001100c09,62bbf9b223cc2669efad1885,2022-06-29_08h14.46.653,Colour_Asymmetry_Pilot,2022.1.3,Win32,59.94844434,62bbe60bf3d75ef465d3e404,,,,,,,,,,,,,,,,,,,,,,,,,,,,,,,,,,,,,,,,,,,,,,,,,,,,,,,,,,,,,,,,,,,,,,,,,,,,,,,,,,,,,,,,,,,,,,,,,,,,,,,,,,,,,,,,,,,,,,,,,,,,,,,,,,,,,,,,,,,,,,,,,,,,,,,,,,,,,,
0,82,82,22,1,,5bf483ac08dffa0001100c09,62bbf9b223cc2669efad1885,2022-06-29_08h14.46.653,Colour_Asymmetry_Pilot,2022.1.3,Win32,59.94844434,62bbe60bf3d75ef465d3e404,,,,,,,,,,,,,,,,,,,,,,,,,,,,,,,,,,,,,,,,,,,,,,,,,,,,,,,,,,,,,,,,,,,,,,,,,,,,,,,,,,,,,,,,,,,,,,,,,,,,,,,,,,,,,,,,,,,,,,,,,,,,,,,,,,,,,,,,,,,,,,,,,,,,,,,,,,,,,,
0,83,83,7,1,,5bf483ac08dffa0001100c09,62bbf9b223cc2669efad1885,2022-06-29_08h14.46.653,Colour_Asymmetry_Pilot,2022.1.3,Win32,59.94844434,62bbe60bf3d75ef465d3e404,,,,,,,,,,,,,,,,,,,,,,,,,,,,,,,,,,,,,,,,,,,,,,,,,,,,,,,,,,,,,,,,,,,,,,,,,,,,,,,,,,,,,,,,,,,,,,,,,,,,,,,,,,,,,,,,,,,,,,,,,,,,,,,,,,,,,,,,,,,,,,,,,,,,,,,,,,,,,,
0,84,84,1,1,,5bf483ac08dffa0001100c09,62bbf9b223cc2669efad1885,2022-06-29_08h14.46.653,Colour_Asymmetry_Pilot,2022.1.3,Win32,59.94844434,62bbe60bf3d75ef465d3e404,,,,,,,,,,,,,,,,,,,,,,,,,,,,,,,,,,,,,,,,,,,,,,,,,,,,,,,,,,,,,,,,,,,,,,,,,,,,,,,,,,,,,,,,,,,,,,,,,,,,,,,,,,,,,,,,,,,,,,,,,,,,,,,,,,,,,,,,,,,,,,,,,,,,,,,,,,,,,,
0,85,85,32,1,,5bf483ac08dffa0001100c09,62bbf9b223cc2669efad1885,2022-06-29_08h14.46.653,Colour_Asymmetry_Pilot,2022.1.3,Win32,59.94844434,62bbe60bf3d75ef465d3e404,,,,,,,,,,,,,,,,,,,,,,,,,,,,,,,,,,,,,,,,,,,,,,,,,,,,,,,,,,,,,,,,,,,,,,,,,,,,,,,,,,,,,,,,,,,,,,,,,,,,,,,,,,,,,,,,,,,,,,,,,,,,,,,,,,,,,,,,,,,,,,,,,,,,,,,,,,,,,,
0,86,86,88,1,,5bf483ac08dffa0001100c09,62bbf9b223cc2669efad1885,2022-06-29_08h14.46.653,Colour_Asymmetry_Pilot,2022.1.3,Win32,59.94844434,62bbe60bf3d75ef465d3e404,,,,,,,,,,,,,,,,,,,,,,,,,,,,,,,,,,,,,,,,,,,,,,,,,,,,,,,,,,,,,,,,,,,,,,,,,,,,,,,,,,,,,,,,,,,,,,,,,,,,,,,,,,,,,,,,,,,,,,,,,,,,,,,,,,,,,,,,,,,,,,,,,,,,,,,,,,,,,,
0,87,87,28,1,,5bf483ac08dffa0001100c09,62bbf9b223cc2669efad1885,2022-06-29_08h14.46.653,Colour_Asymmetry_Pilot,2022.1.3,Win32,59.94844434,62bbe60bf3d75ef465d3e404,,,,,,,,,,,,,,,,,,,,,,,,,,,,,,,,,,,,,,,,,,,,,,,,,,,,,,,,,,,,,,,,,,,,,,,,,,,,,,,,,,,,,,,,,,,,,,,,,,,,,,,,,,,,,,,,,,,,,,,,,,,,,,,,,,,,,,,,,,,,,,,,,,,,,,,,,,,,,,
0,88,88,79,1,,5bf483ac08dffa0001100c09,62bbf9b223cc2669efad1885,2022-06-29_08h14.46.653,Colour_Asymmetry_Pilot,2022.1.3,Win32,59.94844434,62bbe60bf3d75ef465d3e404,,,,,,,,,,,,,,,,,,,,,,,,,,,,,,,,,,,,,,,,,,,,,,,,,,,,,,,,,,,,,,,,,,,,,,,,,,,,,,,,,,,,,,,,,,,,,,,,,,,,,,,,,,,,,,,,,,,,,,,,,,,,,,,,,,,,,,,,,,,,,,,,,,,,,,,,,,,,,,
0,89,89,65,1,,5bf483ac08dffa0001100c09,62bbf9b223cc2669efad1885,2022-06-29_08h14.46.653,Colour_Asymmetry_Pilot,2022.1.3,Win32,59.94844434,62bbe60bf3d75ef465d3e404,,,,,,,,,,,,,,,,,,,,,,,,,,,,,,,,,,,,,,,,,,,,,,,,,,,,,,,,,,,,,,,,,,,,,,,,,,,,,,,,,,,,,,,,,,,,,,,,,,,,,,,,,,,,,,,,,,,,,,,,,,,,,,,,,,,,,,,,,,,,,,,,,,,,,,,,,,,,,,
0,90,90,36,1,,5bf483ac08dffa0001100c09,62bbf9b223cc2669efad1885,2022-06-29_08h14.46.653,Colour_Asymmetry_Pilot,2022.1.3,Win32,59.94844434,62bbe60bf3d75ef465d3e404,,,,,,,,,,,,,,,,,,,,,,,,,,,,,,,,,,,,,,,,,,,,,,,,,,,,,,,,,,,,,,,,,,,,,,,,,,,,,,,,,,,,,,,,,,,,,,,,,,,,,,,,,,,,,,,,,,,,,,,,,,,,,,,,,,,,,,,,,,,,,,,,,,,,,,,,,,,,,,
0,91,91,2,1,,5bf483ac08dffa0001100c09,62bbf9b223cc2669efad1885,2022-06-29_08h14.46.653,Colour_Asymmetry_Pilot,2022.1.3,Win32,59.94844434,62bbe60bf3d75ef465d3e404,,,,,,,,,,,,,,,,,,,,,,,,,,,,,,,,,,,,,,,,,,,,,,,,,,,,,,,,,,,,,,,,,,,,,,,,,,,,,,,,,,,,,,,,,,,,,,,,,,,,,,,,,,,,,,,,,,,,,,,,,,,,,,,,,,,,,,,,,,,,,,,,,,,,,,,,,,,,,,
0,92,92,60,1,,5bf483ac08dffa0001100c09,62bbf9b223cc2669efad1885,2022-06-29_08h14.46.653,Colour_Asymmetry_Pilot,2022.1.3,Win32,59.94844434,62bbe60bf3d75ef465d3e404,,,,,,,,,,,,,,,,,,,,,,,,,,,,,,,,,,,,,,,,,,,,,,,,,,,,,,,,,,,,,,,,,,,,,,,,,,,,,,,,,,,,,,,,,,,,,,,,,,,,,,,,,,,,,,,,,,,,,,,,,,,,,,,,,,,,,,,,,,,,,,,,,,,,,,,,,,,,,,
,,,,,,5bf483ac08dffa0001100c09,62bbf9b223cc2669efad1885,2022-06-29_08h14.46.653,Colour_Asymmetry_Pilot,2022.1.3,Win32,59.94844434,62bbe60bf3d75ef465d3e404,0,0,0,78,1,fourtwo,,,,,,,,,,,,,,,,,,,,,,,,,,,,,,,,,,,,,,,,,,,,,,,,,,,,,,,,,,,,,,,,,,,,,,,,,,,,,,,,,,,,,,,,,,,,,,,,,,,,,,,,,,,,,,,,,,,,,,,,,,,,,,,,,,,,,,,,,,,,,,,,,,,,,,,,
,,,,,,5bf483ac08dffa0001100c09,62bbf9b223cc2669efad1885,2022-06-29_08h14.46.653,Colour_Asymmetry_Pilot,2022.1.3,Win32,59.94844434,62bbe60bf3d75ef465d3e404,0,1,1,38,1,fourtwo,,,,,,,,,,,,,,,,,,,,,,,,,,,,,,,,,,,,,,,,,,,,,,,,,,,,,,,,,,,,,,,,,,,,,,,,,,,,,,,,,,,,,,,,,,,,,,,,,,,,,,,,,,,,,,,,,,,,,,,,,,,,,,,,,,,,,,,,,,,,,,,,,,,,,,,,
,,,,,,5bf483ac08dffa0001100c09,62bbf9b223cc2669efad1885,2022-06-29_08h14.46.653,Colour_Asymmetry_Pilot,2022.1.3,Win32,59.94844434,62bbe60bf3d75ef465d3e404,0,2,2,138,1,twoone,,,,,,,,,,,,,,,,,,,,,,,,,,,,,,,,,,,,,,,,,,,,,,,,,,,,,,,,,,,,,,,,,,,,,,,,,,,,,,,,,,,,,,,,,,,,,,,,,,,,,,,,,,,,,,,,,,,,,,,,,,,,,,,,,,,,,,,,,,,,,,,,,,,,,,,,
,,,,,,5bf483ac08dffa0001100c09,62bbf9b223cc2669efad1885,2022-06-29_08h14.46.653,Colour_Asymmetry_Pilot,2022.1.3,Win32,59.94844434,62bbe60bf3d75ef465d3e404,0,3,3,45,1,threefour,,,,,,,,,,,,,,,,,,,,,,,,,,,,,,,,,,,,,,,,,,,,,,,,,,,,,,,,,,,,,,,,,,,,,,,,,,,,,,,,,,,,,,,,,,,,,,,,,,,,,,,,,,,,,,,,,,,,,,,,,,,,,,,,,,,,,,,,,,,,,,,,,,,,,,,,
,,,,,,5bf483ac08dffa0001100c09,62bbf9b223cc2669efad1885,2022-06-29_08h14.46.653,Colour_Asymmetry_Pilot,2022.1.3,Win32,59.94844434,62bbe60bf3d75ef465d3e404,0,4,4,91,1,twofour,,,,,,,,,,,,,,,,,,,,,,,,,,,,,,,,,,,,,,,,,,,,,,,,,,,,,,,,,,,,,,,,,,,,,,,,,,,,,,,,,,,,,,,,,,,,,,,,,,,,,,,,,,,,,,,,,,,,,,,,,,,,,,,,,,,,,,,,,,,,,,,,,,,,,,,,
,,,,,,5bf483ac08dffa0001100c09,62bbf9b223cc2669efad1885,2022-06-29_08h14.46.653,Colour_Asymmetry_Pilot,2022.1.3,Win32,59.94844434,62bbe60bf3d75ef465d3e404,0,5,5,117,1,threefour,,,,,,,,,,,,,,,,,,,,,,,,,,,,,,,,,,,,,,,,,,,,,,,,,,,,,,,,,,,,,,,,,,,,,,,,,,,,,,,,,,,,,,,,,,,,,,,,,,,,,,,,,,,,,,,,,,,,,,,,,,,,,,,,,,,,,,,,,,,,,,,,,,,,,,,,
,,,,,,5bf483ac08dffa0001100c09,62bbf9b223cc2669efad1885,2022-06-29_08h14.46.653,Colour_Asymmetry_Pilot,2022.1.3,Win32,59.94844434,62bbe60bf3d75ef465d3e404,0,6,6,44,1,threeone,,,,,,,,,,,,,,,,,,,,,,,,,,,,,,,,,,,,,,,,,,,,,,,,,,,,,,,,,,,,,,,,,,,,,,,,,,,,,,,,,,,,,,,,,,,,,,,,,,,,,,,,,,,,,,,,,,,,,,,,,,,,,,,,,,,,,,,,,,,,,,,,,,,,,,,,
,,,,,,5bf483ac08dffa0001100c09,62bbf9b223cc2669efad1885,2022-06-29_08h14.46.653,Colour_Asymmetry_Pilot,2022.1.3,Win32,59.94844434,62bbe60bf3d75ef465d3e404,0,7,7,129,1,onethree,,,,,,,,,,,,,,,,,,,,,,,,,,,,,,,,,,,,,,,,,,,,,,,,,,,,,,,,,,,,,,,,,,,,,,,,,,,,,,,,,,,,,,,,,,,,,,,,,,,,,,,,,,,,,,,,,,,,,,,,,,,,,,,,,,,,,,,,,,,,,,,,,,,,,,,,
,,,,,,5bf483ac08dffa0001100c09,62bbf9b223cc2669efad1885,2022-06-29_08h14.46.653,Colour_Asymmetry_Pilot,2022.1.3,Win32,59.94844434,62bbe60bf3d75ef465d3e404,0,8,8,135,1,fourthree,,,,,,,,,,,,,,,,,,,,,,,,,,,,,,,,,,,,,,,,,,,,,,,,,,,,,,,,,,,,,,,,,,,,,,,,,,,,,,,,,,,,,,,,,,,,,,,,,,,,,,,,,,,,,,,,,,,,,,,,,,,,,,,,,,,,,,,,,,,,,,,,,,,,,,,,
,,,,,,5bf483ac08dffa0001100c09,62bbf9b223cc2669efad1885,2022-06-29_08h14.46.653,Colour_Asymmetry_Pilot,2022.1.3,Win32,59.94844434,62bbe60bf3d75ef465d3e404,0,9,9,101,1,threefour,,,,,,,,,,,,,,,,,,,,,,,,,,,,,,,,,,,,,,,,,,,,,,,,,,,,,,,,,,,,,,,,,,,,,,,,,,,,,,,,,,,,,,,,,,,,,,,,,,,,,,,,,,,,,,,,,,,,,,,,,,,,,,,,,,,,,,,,,,,,,,,,,,,,,,,,
,,,,,,5bf483ac08dffa0001100c09,62bbf9b223cc2669efad1885,2022-06-29_08h14.46.653,Colour_Asymmetry_Pilot,2022.1.3,Win32,59.94844434,62bbe60bf3d75ef465d3e404,0,10,10,60,1,threeone,,,,,,,,,,,,,,,,,,,,,,,,,,,,,,,,,,,,,,,,,,,,,,,,,,,,,,,,,,,,,,,,,,,,,,,,,,,,,,,,,,,,,,,,,,,,,,,,,,,,,,,,,,,,,,,,,,,,,,,,,,,,,,,,,,,,,,,,,,,,,,,,,,,,,,,,
,,,,,,5bf483ac08dffa0001100c09,62bbf9b223cc2669efad1885,2022-06-29_08h14.46.653,Colour_Asymmetry_Pilot,2022.1.3,Win32,59.94844434,62bbe60bf3d75ef465d3e404,0,11,11,107,1,twofour,,,,,,,,,,,,,,,,,,,,,,,,,,,,,,,,,,,,,,,,,,,,,,,,,,,,,,,,,,,,,,,,,,,,,,,,,,,,,,,,,,,,,,,,,,,,,,,,,,,,,,,,,,,,,,,,,,,,,,,,,,,,,,,,,,,,,,,,,,,,,,,,,,,,,,,,
,,,,,,5bf483ac08dffa0001100c09,62bbf9b223cc2669efad1885,2022-06-29_08h14.46.653,Colour_Asymmetry_Pilot,2022.1.3,Win32,59.94844434,62bbe60bf3d75ef465d3e404,0,12,12,46,1,fourtwo,,,,,,,,,,,,,,,,,,,,,,,,,,,,,,,,,,,,,,,,,,,,,,,,,,,,,,,,,,,,,,,,,,,,,,,,,,,,,,,,,,,,,,,,,,,,,,,,,,,,,,,,,,,,,,,,,,,,,,,,,,,,,,,,,,,,,,,,,,,,,,,,,,,,,,,,
,,,,,,5bf483ac08dffa0001100c09,62bbf9b223cc2669efad1885,2022-06-29_08h14.46.653,Colour_Asymmetry_Pilot,2022.1.3,Win32,59.94844434,62bbe60bf3d75ef465d3e404,0,13,13,89,1,onethree,,,,,,,,,,,,,,,,,,,,,,,,,,,,,,,,,,,,,,,,,,,,,,,,,,,,,,,,,,,,,,,,,,,,,,,,,,,,,,,,,,,,,,,,,,,,,,,,,,,,,,,,,,,,,,,,,,,,,,,,,,,,,,,,,,,,,,,,,,,,,,,,,,,,,,,,
,,,,,,5bf483ac08dffa0001100c09,62bbf9b223cc2669efad1885,2022-06-29_08h14.46.653,Colour_Asymmetry_Pilot,2022.1.3,Win32,59.94844434,62bbe60bf3d75ef465d3e404,0,14,14,139,1,twofour,,,,,,,,,,,,,,,,,,,,,,,,,,,,,,,,,,,,,,,,,,,,,,,,,,,,,,,,,,,,,,,,,,,,,,,,,,,,,,,,,,,,,,,,,,,,,,,,,,,,,,,,,,,,,,,,,,,,,,,,,,,,,,,,,,,,,,,,,,,,,,,,,,,,,,,,
,,,,,,5bf483ac08dffa0001100c09,62bbf9b223cc2669efad1885,2022-06-29_08h14.46.653,Colour_Asymmetry_Pilot,2022.1.3,Win32,59.94844434,62bbe60bf3d75ef465d3e404,0,15,15,111,1,fourthree,,,,,,,,,,,,,,,,,,,,,,,,,,,,,,,,,,,,,,,,,,,,,,,,,,,,,,,,,,,,,,,,,,,,,,,,,,,,,,,,,,,,,,,,,,,,,,,,,,,,,,,,,,,,,,,,,,,,,,,,,,,,,,,,,,,,,,,,,,,,,,,,,,,,,,,,
,,,,,,5bf483ac08dffa0001100c09,62bbf9b223cc2669efad1885,2022-06-29_08h14.46.653,Colour_Asymmetry_Pilot,2022.1.3,Win32,59.94844434,62bbe60bf3d75ef465d3e404,0,16,16,39,1,fourthree,,,,,,,,,,,,,,,,,,,,,,,,,,,,,,,,,,,,,,,,,,,,,,,,,,,,,,,,,,,,,,,,,,,,,,,,,,,,,,,,,,,,,,,,,,,,,,,,,,,,,,,,,,,,,,,,,,,,,,,,,,,,,,,,,,,,,,,,,,,,,,,,,,,,,,,,
,,,,,,5bf483ac08dffa0001100c09,62bbf9b223cc2669efad1885,2022-06-29_08h14.46.653,Colour_Asymmetry_Pilot,2022.1.3,Win32,59.94844434,62bbe60bf3d75ef465d3e404,0,17,17,120,1,onetwo,,,,,,,,,,,,,,,,,,,,,,,,,,,,,,,,,,,,,,,,,,,,,,,,,,,,,,,,,,,,,,,,,,,,,,,,,,,,,,,,,,,,,,,,,,,,,,,,,,,,,,,,,,,,,,,,,,,,,,,,,,,,,,,,,,,,,,,,,,,,,,,,,,,,,,,,
,,,,,,5bf483ac08dffa0001100c09,62bbf9b223cc2669efad1885,2022-06-29_08h14.46.653,Colour_Asymmetry_Pilot,2022.1.3,Win32,59.94844434,62bbe60bf3d75ef465d3e404,0,18,18,140,1,threeone,,,,,,,,,,,,,,,,,,,,,,,,,,,,,,,,,,,,,,,,,,,,,,,,,,,,,,,,,,,,,,,,,,,,,,,,,,,,,,,,,,,,,,,,,,,,,,,,,,,,,,,,,,,,,,,,,,,,,,,,,,,,,,,,,,,,,,,,,,,,,,,,,,,,,,,,
,,,,,,5bf483ac08dffa0001100c09,62bbf9b223cc2669efad1885,2022-06-29_08h14.46.653,Colour_Asymmetry_Pilot,2022.1.3,Win32,59.94844434,62bbe60bf3d75ef465d3e404,0,19,19,125,1,threefour,,,,,,,,,,,,,,,,,,,,,,,,,,,,,,,,,,,,,,,,,,,,,,,,,,,,,,,,,,,,,,,,,,,,,,,,,,,,,,,,,,,,,,,,,,,,,,,,,,,,,,,,,,,,,,,,,,,,,,,,,,,,,,,,,,,,,,,,,,,,,,,,,,,,,,,,
,,,,,,5bf483ac08dffa0001100c09,62bbf9b223cc2669efad1885,2022-06-29_08h14.46.653,Colour_Asymmetry_Pilot,2022.1.3,Win32,59.94844434,62bbe60bf3d75ef465d3e404,0,20,20,69,1,threefour,,,,,,,,,,,,,,,,,,,,,,,,,,,,,,,,,,,,,,,,,,,,,,,,,,,,,,,,,,,,,,,,,,,,,,,,,,,,,,,,,,,,,,,,,,,,,,,,,,,,,,,,,,,,,,,,,,,,,,,,,,,,,,,,,,,,,,,,,,,,,,,,,,,,,,,,
,,,,,,5bf483ac08dffa0001100c09,62bbf9b223cc2669efad1885,2022-06-29_08h14.46.653,Colour_Asymmetry_Pilot,2022.1.3,Win32,59.94844434,62bbe60bf3d75ef465d3e404,0,21,21,58,1,twoone,,,,,,,,,,,,,,,,,,,,,,,,,,,,,,,,,,,,,,,,,,,,,,,,,,,,,,,,,,,,,,,,,,,,,,,,,,,,,,,,,,,,,,,,,,,,,,,,,,,,,,,,,,,,,,,,,,,,,,,,,,,,,,,,,,,,,,,,,,,,,,,,,,,,,,,,
,,,,,,5bf483ac08dffa0001100c09,62bbf9b223cc2669efad1885,2022-06-29_08h14.46.653,Colour_Asymmetry_Pilot,2022.1.3,Win32,59.94844434,62bbe60bf3d75ef465d3e404,0,22,22,130,1,twoone,,,,,,,,,,,,,,,,,,,,,,,,,,,,,,,,,,,,,,,,,,,,,,,,,,,,,,,,,,,,,,,,,,,,,,,,,,,,,,,,,,,,,,,,,,,,,,,,,,,,,,,,,,,,,,,,,,,,,,,,,,,,,,,,,,,,,,,,,,,,,,,,,,,,,,,,
,,,,,,5bf483ac08dffa0001100c09,62bbf9b223cc2669efad1885,2022-06-29_08h14.46.653,Colour_Asymmetry_Pilot,2022.1.3,Win32,59.94844434,62bbe60bf3d75ef465d3e404,0,23,23,14,1,fourtwo,,,,,,,,,,,,,,,,,,,,,,,,,,,,,,,,,,,,,,,,,,,,,,,,,,,,,,,,,,,,,,,,,,,,,,,,,,,,,,,,,,,,,,,,,,,,,,,,,,,,,,,,,,,,,,,,,,,,,,,,,,,,,,,,,,,,,,,,,,,,,,,,,,,,,,,,
,,,,,,5bf483ac08dffa0001100c09,62bbf9b223cc2669efad1885,2022-06-29_08h14.46.653,Colour_Asymmetry_Pilot,2022.1.3,Win32,59.94844434,62bbe60bf3d75ef465d3e404,0,24,24,25,1,onethree,,,,,,,,,,,,,,,,,,,,,,,,,,,,,,,,,,,,,,,,,,,,,,,,,,,,,,,,,,,,,,,,,,,,,,,,,,,,,,,,,,,,,,,,,,,,,,,,,,,,,,,,,,,,,,,,,,,,,,,,,,,,,,,,,,,,,,,,,,,,,,,,,,,,,,,,
,,,,,,5bf483ac08dffa0001100c09,62bbf9b223cc2669efad1885,2022-06-29_08h14.46.653,Colour_Asymmetry_Pilot,2022.1.3,Win32,59.94844434,62bbe60bf3d75ef465d3e404,0,25,25,5,1,threefour,,,,,,,,,,,,,,,,,,,,,,,,,,,,,,,,,,,,,,,,,,,,,,,,,,,,,,,,,,,,,,,,,,,,,,,,,,,,,,,,,,,,,,,,,,,,,,,,,,,,,,,,,,,,,,,,,,,,,,,,,,,,,,,,,,,,,,,,,,,,,,,,,,,,,,,,
,,,,,,5bf483ac08dffa0001100c09,62bbf9b223cc2669efad1885,2022-06-29_08h14.46.653,Colour_Asymmetry_Pilot,2022.1.3,Win32,59.94844434,62bbe60bf3d75ef465d3e404,0,26,26,147,1,twofour,,,,,,,,,,,,,,,,,,,,,,,,,,,,,,,,,,,,,,,,,,,,,,,,,,,,,,,,,,,,,,,,,,,,,,,,,,,,,,,,,,,,,,,,,,,,,,,,,,,,,,,,,,,,,,,,,,,,,,,,,,,,,,,,,,,,,,,,,,,,,,,,,,,,,,,,
,,,,,,5bf483ac08dffa0001100c09,62bbf9b223cc2669efad1885,2022-06-29_08h14.46.653,Colour_Asymmetry_Pilot,2022.1.3,Win32,59.94844434,62bbe60bf3d75ef465d3e404,0,27,27,82,1,twoone,,,,,,,,,,,,,,,,,,,,,,,,,,,,,,,,,,,,,,,,,,,,,,,,,,,,,,,,,,,,,,,,,,,,,,,,,,,,,,,,,,,,,,,,,,,,,,,,,,,,,,,,,,,,,,,,,,,,,,,,,,,,,,,,,,,,,,,,,,,,,,,,,,,,,,,,
,,,,,,5bf483ac08dffa0001100c09,62bbf9b223cc2669efad1885,2022-06-29_08h14.46.653,Colour_Asymmetry_Pilot,2022.1.3,Win32,59.94844434,62bbe60bf3d75ef465d3e404,0,28,28,57,1,onethree,,,,,,,,,,,,,,,,,,,,,,,,,,,,,,,,,,,,,,,,,,,,,,,,,,,,,,,,,,,,,,,,,,,,,,,,,,,,,,,,,,,,,,,,,,,,,,,,,,,,,,,,,,,,,,,,,,,,,,,,,,,,,,,,,,,,,,,,,,,,,,,,,,,,,,,,
,,,,,,5bf483ac08dffa0001100c09,62bbf9b223cc2669efad1885,2022-06-29_08h14.46.653,Colour_Asymmetry_Pilot,2022.1.3,Win32,59.94844434,62bbe60bf3d75ef465d3e404,0,29,29,108,1,threeone,,,,,,,,,,,,,,,,,,,,,,,,,,,,,,,,,,,,,,,,,,,,,,,,,,,,,,,,,,,,,,,,,,,,,,,,,,,,,,,,,,,,,,,,,,,,,,,,,,,,,,,,,,,,,,,,,,,,,,,,,,,,,,,,,,,,,,,,,,,,,,,,,,,,,,,,
,,,,,,5bf483ac08dffa0001100c09,62bbf9b223cc2669efad1885,2022-06-29_08h14.46.653,Colour_Asymmetry_Pilot,2022.1.3,Win32,59.94844434,62bbe60bf3d75ef465d3e404,0,30,30,23,1,fourthree,,,,,,,,,,,,,,,,,,,,,,,,,,,,,,,,,,,,,,,,,,,,,,,,,,,,,,,,,,,,,,,,,,,,,,,,,,,,,,,,,,,,,,,,,,,,,,,,,,,,,,,,,,,,,,,,,,,,,,,,,,,,,,,,,,,,,,,,,,,,,,,,,,,,,,,,
,,,,,,5bf483ac08dffa0001100c09,62bbf9b223cc2669efad1885,2022-06-29_08h14.46.653,Colour_Asymmetry_Pilot,2022.1.3,Win32,59.94844434,62bbe60bf3d75ef465d3e404,0,31,31,0,1,onetwo,,,,,,,,,,,,,,,,,,,,,,,,,,,,,,,,,,,,,,,,,,,,,,,,,,,,,,,,,,,,,,,,,,,,,,,,,,,,,,,,,,,,,,,,,,,,,,,,,,,,,,,,,,,,,,,,,,,,,,,,,,,,,,,,,,,,,,,,,,,,,,,,,,,,,,,,
,,,,,,5bf483ac08dffa0001100c09,62bbf9b223cc2669efad1885,2022-06-29_08h14.46.653,Colour_Asymmetry_Pilot,2022.1.3,Win32,59.94844434,62bbe60bf3d75ef465d3e404,0,32,32,47,1,fourthree,,,,,,,,,,,,,,,,,,,,,,,,,,,,,,,,,,,,,,,,,,,,,,,,,,,,,,,,,,,,,,,,,,,,,,,,,,,,,,,,,,,,,,,,,,,,,,,,,,,,,,,,,,,,,,,,,,,,,,,,,,,,,,,,,,,,,,,,,,,,,,,,,,,,,,,,
,,,,,,5bf483ac08dffa0001100c09,62bbf9b223cc2669efad1885,2022-06-29_08h14.46.653,Colour_Asymmetry_Pilot,2022.1.3,Win32,59.94844434,62bbe60bf3d75ef465d3e404,0,33,33,37,1,threefour,,,,,,,,,,,,,,,,,,,,,,,,,,,,,,,,,,,,,,,,,,,,,,,,,,,,,,,,,,,,,,,,,,,,,,,,,,,,,,,,,,,,,,,,,,,,,,,,,,,,,,,,,,,,,,,,,,,,,,,,,,,,,,,,,,,,,,,,,,,,,,,,,,,,,,,,
,,,,,,5bf483ac08dffa0001100c09,62bbf9b223cc2669efad1885,2022-06-29_08h14.46.653,Colour_Asymmetry_Pilot,2022.1.3,Win32,59.94844434,62bbe60bf3d75ef465d3e404,0,34,34,49,1,onethree,,,,,,,,,,,,,,,,,,,,,,,,,,,,,,,,,,,,,,,,,,,,,,,,,,,,,,,,,,,,,,,,,,,,,,,,,,,,,,,,,,,,,,,,,,,,,,,,,,,,,,,,,,,,,,,,,,,,,,,,,,,,,,,,,,,,,,,,,,,,,,,,,,,,,,,,
,,,,,,5bf483ac08dffa0001100c09,62bbf9b223cc2669efad1885,2022-06-29_08h14.46.653,Colour_Asymmetry_Pilot,2022.1.3,Win32,59.94844434,62bbe60bf3d75ef465d3e404,0,35,35,84,1,threeone,,,,,,,,,,,,,,,,,,,,,,,,,,,,,,,,,,,,,,,,,,,,,,,,,,,,,,,,,,,,,,,,,,,,,,,,,,,,,,,,,,,,,,,,,,,,,,,,,,,,,,,,,,,,,,,,,,,,,,,,,,,,,,,,,,,,,,,,,,,,,,,,,,,,,,,,
,,,,,,5bf483ac08dffa0001100c09,62bbf9b223cc2669efad1885,2022-06-29_08h14.46.653,Colour_Asymmetry_Pilot,2022.1.3,Win32,59.94844434,62bbe60bf3d75ef465d3e404,0,36,36,2,1,twoone,,,,,,,,,,,,,,,,,,,,,,,,,,,,,,,,,,,,,,,,,,,,,,,,,,,,,,,,,,,,,,,,,,,,,,,,,,,,,,,,,,,,,,,,,,,,,,,,,,,,,,,,,,,,,,,,,,,,,,,,,,,,,,,,,,,,,,,,,,,,,,,,,,,,,,,,
,,,,,,5bf483ac08dffa0001100c09,62bbf9b223cc2669efad1885,2022-06-29_08h14.46.653,Colour_Asymmetry_Pilot,2022.1.3,Win32,59.94844434,62bbe60bf3d75ef465d3e404,0,37,37,76,1,threeone,,,,,,,,,,,,,,,,,,,,,,,,,,,,,,,,,,,,,,,,,,,,,,,,,,,,,,,,,,,,,,,,,,,,,,,,,,,,,,,,,,,,,,,,,,,,,,,,,,,,,,,,,,,,,,,,,,,,,,,,,,,,,,,,,,,,,,,,,,,,,,,,,,,,,,,,
,,,,,,5bf483ac08dffa0001100c09,62bbf9b223cc2669efad1885,2022-06-29_08h14.46.653,Colour_Asymmetry_Pilot,2022.1.3,Win32,59.94844434,62bbe60bf3d75ef465d3e404,0,38,38,149,1,threefour,,,,,,,,,,,,,,,,,,,,,,,,,,,,,,,,,,,,,,,,,,,,,,,,,,,,,,,,,,,,,,,,,,,,,,,,,,,,,,,,,,,,,,,,,,,,,,,,,,,,,,,,,,,,,,,,,,,,,,,,,,,,,,,,,,,,,,,,,,,,,,,,,,,,,,,,
,,,,,,5bf483ac08dffa0001100c09,62bbf9b223cc2669efad1885,2022-06-29_08h14.46.653,Colour_Asymmetry_Pilot,2022.1.3,Win32,59.94844434,62bbe60bf3d75ef465d3e404,0,39,39,133,1,threefour,,,,,,,,,,,,,,,,,,,,,,,,,,,,,,,,,,,,,,,,,,,,,,,,,,,,,,,,,,,,,,,,,,,,,,,,,,,,,,,,,,,,,,,,,,,,,,,,,,,,,,,,,,,,,,,,,,,,,,,,,,,,,,,,,,,,,,,,,,,,,,,,,,,,,,,,
,,,,,,5bf483ac08dffa0001100c09,62bbf9b223cc2669efad1885,2022-06-29_08h14.46.653,Colour_Asymmetry_Pilot,2022.1.3,Win32,59.94844434,62bbe60bf3d75ef465d3e404,0,40,40,68,1,threeone,,,,,,,,,,,,,,,,,,,,,,,,,,,,,,,,,,,,,,,,,,,,,,,,,,,,,,,,,,,,,,,,,,,,,,,,,,,,,,,,,,,,,,,,,,,,,,,,,,,,,,,,,,,,,,,,,,,,,,,,,,,,,,,,,,,,,,,,,,,,,,,,,,,,,,,,
,,,,,,5bf483ac08dffa0001100c09,62bbf9b223cc2669efad1885,2022-06-29_08h14.46.653,Colour_Asymmetry_Pilot,2022.1.3,Win32,59.94844434,62bbe60bf3d75ef465d3e404,0,41,41,99,1,twofour,,,,,,,,,,,,,,,,,,,,,,,,,,,,,,,,,,,,,,,,,,,,,,,,,,,,,,,,,,,,,,,,,,,,,,,,,,,,,,,,,,,,,,,,,,,,,,,,,,,,,,,,,,,,,,,,,,,,,,,,,,,,,,,,,,,,,,,,,,,,,,,,,,,,,,,,
,,,,,,5bf483ac08dffa0001100c09,62bbf9b223cc2669efad1885,2022-06-29_08h14.46.653,Colour_Asymmetry_Pilot,2022.1.3,Win32,59.94844434,62bbe60bf3d75ef465d3e404,0,42,42,29,1,threefour,,,,,,,,,,,,,,,,,,,,,,,,,,,,,,,,,,,,,,,,,,,,,,,,,,,,,,,,,,,,,,,,,,,,,,,,,,,,,,,,,,,,,,,,,,,,,,,,,,,,,,,,,,,,,,,,,,,,,,,,,,,,,,,,,,,,,,,,,,,,,,,,,,,,,,,,
,,,,,,5bf483ac08dffa0001100c09,62bbf9b223cc2669efad1885,2022-06-29_08h14.46.653,Colour_Asymmetry_Pilot,2022.1.3,Win32,59.94844434,62bbe60bf3d75ef465d3e404,0,43,43,9,1,onethree,,,,,,,,,,,,,,,,,,,,,,,,,,,,,,,,,,,,,,,,,,,,,,,,,,,,,,,,,,,,,,,,,,,,,,,,,,,,,,,,,,,,,,,,,,,,,,,,,,,,,,,,,,,,,,,,,,,,,,,,,,,,,,,,,,,,,,,,,,,,,,,,,,,,,,,,
,,,,,,5bf483ac08dffa0001100c09,62bbf9b223cc2669efad1885,2022-06-29_08h14.46.653,Colour_Asymmetry_Pilot,2022.1.3,Win32,59.94844434,62bbe60bf3d75ef465d3e404,0,44,44,110,1,fourtwo,,,,,,,,,,,,,,,,,,,,,,,,,,,,,,,,,,,,,,,,,,,,,,,,,,,,,,,,,,,,,,,,,,,,,,,,,,,,,,,,,,,,,,,,,,,,,,,,,,,,,,,,,,,,,,,,,,,,,,,,,,,,,,,,,,,,,,,,,,,,,,,,,,,,,,,,
,,,,,,5bf483ac08dffa0001100c09,62bbf9b223cc2669efad1885,2022-06-29_08h14.46.653,Colour_Asymmetry_Pilot,2022.1.3,Win32,59.94844434,62bbe60bf3d75ef465d3e404,0,45,45,13,1,threefour,,,,,,,,,,,,,,,,,,,,,,,,,,,,,,,,,,,,,,,,,,,,,,,,,,,,,,,,,,,,,,,,,,,,,,,,,,,,,,,,,,,,,,,,,,,,,,,,,,,,,,,,,,,,,,,,,,,,,,,,,,,,,,,,,,,,,,,,,,,,,,,,,,,,,,,,
,,,,,,5bf483ac08dffa0001100c09,62bbf9b223cc2669efad1885,2022-06-29_08h14.46.653,Colour_Asymmetry_Pilot,2022.1.3,Win32,59.94844434,62bbe60bf3d75ef465d3e404,0,46,46,143,1,fourthree,,,,,,,,,,,,,,,,,,,,,,,,,,,,,,,,,,,,,,,,,,,,,,,,,,,,,,,,,,,,,,,,,,,,,,,,,,,,,,,,,,,,,,,,,,,,,,,,,,,,,,,,,,,,,,,,,,,,,,,,,,,,,,,,,,,,,,,,,,,,,,,,,,,,,,,,
,,,,,,5bf483ac08dffa0001100c09,62bbf9b223cc2669efad1885,2022-06-29_08h14.46.653,Colour_Asymmetry_Pilot,2022.1.3,Win32,59.94844434,62bbe60bf3d75ef465d3e404,0,47,47,48,1,onetwo,,,,,,,,,,,,,,,,,,,,,,,,,,,,,,,,,,,,,,,,,,,,,,,,,,,,,,,,,,,,,,,,,,,,,,,,,,,,,,,,,,,,,,,,,,,,,,,,,,,,,,,,,,,,,,,,,,,,,,,,,,,,,,,,,,,,,,,,,,,,,,,,,,,,,,,,
,,,,,,5bf483ac08dffa0001100c09,62bbf9b223cc2669efad1885,2022-06-29_08h14.46.653,Colour_Asymmetry_Pilot,2022.1.3,Win32,59.94844434,62bbe60bf3d75ef465d3e404,0,48,48,27,1,twofour,,,,,,,,,,,,,,,,,,,,,,,,,,,,,,,,,,,,,,,,,,,,,,,,,,,,,,,,,,,,,,,,,,,,,,,,,,,,,,,,,,,,,,,,,,,,,,,,,,,,,,,,,,,,,,,,,,,,,,,,,,,,,,,,,,,,,,,,,,,,,,,,,,,,,,,,
,,,,,,5bf483ac08dffa0001100c09,62bbf9b223cc2669efad1885,2022-06-29_08h14.46.653,Colour_Asymmetry_Pilot,2022.1.3,Win32,59.94844434,62bbe60bf3d75ef465d3e404,0,49,49,132,1,threeone,,,,,,,,,,,,,,,,,,,,,,,,,,,,,,,,,,,,,,,,,,,,,,,,,,,,,,,,,,,,,,,,,,,,,,,,,,,,,,,,,,,,,,,,,,,,,,,,,,,,,,,,,,,,,,,,,,,,,,,,,,,,,,,,,,,,,,,,,,,,,,,,,,,,,,,,
,,,,,,5bf483ac08dffa0001100c09,62bbf9b223cc2669efad1885,2022-06-29_08h14.46.653,Colour_Asymmetry_Pilot,2022.1.3,Win32,59.94844434,62bbe60bf3d75ef465d3e404,0,50,50,154,1,twoone,,,,,,,,,,,,,,,,,,,,,,,,,,,,,,,,,,,,,,,,,,,,,,,,,,,,,,,,,,,,,,,,,,,,,,,,,,,,,,,,,,,,,,,,,,,,,,,,,,,,,,,,,,,,,,,,,,,,,,,,,,,,,,,,,,,,,,,,,,,,,,,,,,,,,,,,
,,,,,,5bf483ac08dffa0001100c09,62bbf9b223cc2669efad1885,2022-06-29_08h14.46.653,Colour_Asymmetry_Pilot,2022.1.3,Win32,59.94844434,62bbe60bf3d75ef465d3e404,0,51,51,92,1,threeone,,,,,,,,,,,,,,,,,,,,,,,,,,,,,,,,,,,,,,,,,,,,,,,,,,,,,,,,,,,,,,,,,,,,,,,,,,,,,,,,,,,,,,,,,,,,,,,,,,,,,,,,,,,,,,,,,,,,,,,,,,,,,,,,,,,,,,,,,,,,,,,,,,,,,,,,
,,,,,,5bf483ac08dffa0001100c09,62bbf9b223cc2669efad1885,2022-06-29_08h14.46.653,Colour_Asymmetry_Pilot,2022.1.3,Win32,59.94844434,62bbe60bf3d75ef465d3e404,0,52,52,142,1,fourtwo,,,,,,,,,,,,,,,,,,,,,,,,,,,,,,,,,,,,,,,,,,,,,,,,,,,,,,,,,,,,,,,,,,,,,,,,,,,,,,,,,,,,,,,,,,,,,,,,,,,,,,,,,,,,,,,,,,,,,,,,,,,,,,,,,,,,,,,,,,,,,,,,,,,,,,,,
,,,,,,5bf483ac08dffa0001100c09,62bbf9b223cc2669efad1885,2022-06-29_08h14.46.653,Colour_Asymmetry_Pilot,2022.1.3,Win32,59.94844434,62bbe60bf3d75ef465d3e404,0,53,53,115,1,twofour,,,,,,,,,,,,,,,,,,,,,,,,,,,,,,,,,,,,,,,,,,,,,,,,,,,,,,,,,,,,,,,,,,,,,,,,,,,,,,,,,,,,,,,,,,,,,,,,,,,,,,,,,,,,,,,,,,,,,,,,,,,,,,,,,,,,,,,,,,,,,,,,,,,,,,,,
,,,,,,5bf483ac08dffa0001100c09,62bbf9b223cc2669efad1885,2022-06-29_08h14.46.653,Colour_Asymmetry_Pilot,2022.1.3,Win32,59.94844434,62bbe60bf3d75ef465d3e404,0,54,54,109,1,threefour,,,,,,,,,,,,,,,,,,,,,,,,,,,,,,,,,,,,,,,,,,,,,,,,,,,,,,,,,,,,,,,,,,,,,,,,,,,,,,,,,,,,,,,,,,,,,,,,,,,,,,,,,,,,,,,,,,,,,,,,,,,,,,,,,,,,,,,,,,,,,,,,,,,,,,,,
,,,,,,5bf483ac08dffa0001100c09,62bbf9b223cc2669efad1885,2022-06-29_08h14.46.653,Colour_Asymmetry_Pilot,2022.1.3,Win32,59.94844434,62bbe60bf3d75ef465d3e404,0,55,55,131,1,twofour,,,,,,,,,,,,,,,,,,,,,,,,,,,,,,,,,,,,,,,,,,,,,,,,,,,,,,,,,,,,,,,,,,,,,,,,,,,,,,,,,,,,,,,,,,,,,,,,,,,,,,,,,,,,,,,,,,,,,,,,,,,,,,,,,,,,,,,,,,,,,,,,,,,,,,,,
,,,,,,5bf483ac08dffa0001100c09,62bbf9b223cc2669efad1885,2022-06-29_08h14.46.653,Colour_Asymmetry_Pilot,2022.1.3,Win32,59.94844434,62bbe60bf3d75ef465d3e404,0,56,56,51,1,twofour,,,,,,,,,,,,,,,,,,,,,,,,,,,,,,,,,,,,,,,,,,,,,,,,,,,,,,,,,,,,,,,,,,,,,,,,,,,,,,,,,,,,,,,,,,,,,,,,,,,,,,,,,,,,,,,,,,,,,,,,,,,,,,,,,,,,,,,,,,,,,,,,,,,,,,,,
,,,,,,5bf483ac08dffa0001100c09,62bbf9b223cc2669efad1885,2022-06-29_08h14.46.653,Colour_Asymmetry_Pilot,2022.1.3,Win32,59.94844434,62bbe60bf3d75ef465d3e404,0,57,57,3,1,twofour,,,,,,,,,,,,,,,,,,,,,,,,,,,,,,,,,,,,,,,,,,,,,,,,,,,,,,,,,,,,,,,,,,,,,,,,,,,,,,,,,,,,,,,,,,,,,,,,,,,,,,,,,,,,,,,,,,,,,,,,,,,,,,,,,,,,,,,,,,,,,,,,,,,,,,,,
,,,,,,5bf483ac08dffa0001100c09,62bbf9b223cc2669efad1885,2022-06-29_08h14.46.653,Colour_Asymmetry_Pilot,2022.1.3,Win32,59.94844434,62bbe60bf3d75ef465d3e404,0,58,58,112,1,onetwo,,,,,,,,,,,,,,,,,,,,,,,,,,,,,,,,,,,,,,,,,,,,,,,,,,,,,,,,,,,,,,,,,,,,,,,,,,,,,,,,,,,,,,,,,,,,,,,,,,,,,,,,,,,,,,,,,,,,,,,,,,,,,,,,,,,,,,,,,,,,,,,,,,,,,,,,
,,,,,,5bf483ac08dffa0001100c09,62bbf9b223cc2669efad1885,2022-06-29_08h14.46.653,Colour_Asymmetry_Pilot,2022.1.3,Win32,59.94844434,62bbe60bf3d75ef465d3e404,0,59,59,16,1,onetwo,,,,,,,,,,,,,,,,,,,,,,,,,,,,,,,,,,,,,,,,,,,,,,,,,,,,,,,,,,,,,,,,,,,,,,,,,,,,,,,,,,,,,,,,,,,,,,,,,,,,,,,,,,,,,,,,,,,,,,,,,,,,,,,,,,,,,,,,,,,,,,,,,,,,,,,,
,,,,,,5bf483ac08dffa0001100c09,62bbf9b223cc2669efad1885,2022-06-29_08h14.46.653,Colour_Asymmetry_Pilot,2022.1.3,Win32,59.94844434,62bbe60bf3d75ef465d3e404,0,60,60,144,1,onetwo,,,,,,,,,,,,,,,,,,,,,,,,,,,,,,,,,,,,,,,,,,,,,,,,,,,,,,,,,,,,,,,,,,,,,,,,,,,,,,,,,,,,,,,,,,,,,,,,,,,,,,,,,,,,,,,,,,,,,,,,,,,,,,,,,,,,,,,,,,,,,,,,,,,,,,,,
,,,,,,5bf483ac08dffa0001100c09,62bbf9b223cc2669efad1885,2022-06-29_08h14.46.653,Colour_Asymmetry_Pilot,2022.1.3,Win32,59.94844434,62bbe60bf3d75ef465d3e404,0,61,61,118,1,fourtwo,,,,,,,,,,,,,,,,,,,,,,,,,,,,,,,,,,,,,,,,,,,,,,,,,,,,,,,,,,,,,,,,,,,,,,,,,,,,,,,,,,,,,,,,,,,,,,,,,,,,,,,,,,,,,,,,,,,,,,,,,,,,,,,,,,,,,,,,,,,,,,,,,,,,,,,,
,,,,,,5bf483ac08dffa0001100c09,62bbf9b223cc2669efad1885,2022-06-29_08h14.46.653,Colour_Asymmetry_Pilot,2022.1.3,Win32,59.94844434,62bbe60bf3d75ef465d3e404,0,62,62,136,1,onetwo,,,,,,,,,,,,,,,,,,,,,,,,,,,,,,,,,,,,,,,,,,,,,,,,,,,,,,,,,,,,,,,,,,,,,,,,,,,,,,,,,,,,,,,,,,,,,,,,,,,,,,,,,,,,,,,,,,,,,,,,,,,,,,,,,,,,,,,,,,,,,,,,,,,,,,,,
,,,,,,5bf483ac08dffa0001100c09,62bbf9b223cc2669efad1885,2022-06-29_08h14.46.653,Colour_Asymmetry_Pilot,2022.1.3,Win32,59.94844434,62bbe60bf3d75ef465d3e404,0,63,63,19,1,twofour,,,,,,,,,,,,,,,,,,,,,,,,,,,,,,,,,,,,,,,,,,,,,,,,,,,,,,,,,,,,,,,,,,,,,,,,,,,,,,,,,,,,,,,,,,,,,,,,,,,,,,,,,,,,,,,,,,,,,,,,,,,,,,,,,,,,,,,,,,,,,,,,,,,,,,,,
,,,,,,5bf483ac08dffa0001100c09,62bbf9b223cc2669efad1885,2022-06-29_08h14.46.653,Colour_Asymmetry_Pilot,2022.1.3,Win32,59.94844434,62bbe60bf3d75ef465d3e404,0,64,64,17,1,onethree,,,,,,,,,,,,,,,,,,,,,,,,,,,,,,,,,,,,,,,,,,,,,,,,,,,,,,,,,,,,,,,,,,,,,,,,,,,,,,,,,,,,,,,,,,,,,,,,,,,,,,,,,,,,,,,,,,,,,,,,,,,,,,,,,,,,,,,,,,,,,,,,,,,,,,,,
,,,,,,5bf483ac08dffa0001100c09,62bbf9b223cc2669efad1885,2022-06-29_08h14.46.653,Colour_Asymmetry_Pilot,2022.1.3,Win32,59.94844434,62bbe60bf3d75ef465d3e404,0,65,65,146,1,twoone,,,,,,,,,,,,,,,,,,,,,,,,,,,,,,,,,,,,,,,,,,,,,,,,,,,,,,,,,,,,,,,,,,,,,,,,,,,,,,,,,,,,,,,,,,,,,,,,,,,,,,,,,,,,,,,,,,,,,,,,,,,,,,,,,,,,,,,,,,,,,,,,,,,,,,,,
,,,,,,5bf483ac08dffa0001100c09,62bbf9b223cc2669efad1885,2022-06-29_08h14.46.653,Colour_Asymmetry_Pilot,2022.1.3,Win32,59.94844434,62bbe60bf3d75ef465d3e404,0,66,66,106,1,twoone,,,,,,,,,,,,,,,,,,,,,,,,,,,,,,,,,,,,,,,,,,,,,,,,,,,,,,,,,,,,,,,,,,,,,,,,,,,,,,,,,,,,,,,,,,,,,,,,,,,,,,,,,,,,,,,,,,,,,,,,,,,,,,,,,,,,,,,,,,,,,,,,,,,,,,,,
,,,,,,5bf483ac08dffa0001100c09,62bbf9b223cc2669efad1885,2022-06-29_08h14.46.653,Colour_Asymmetry_Pilot,2022.1.3,Win32,59.94844434,62bbe60bf3d75ef465d3e404,0,67,67,97,1,onethree,,,,,,,,,,,,,,,,,,,,,,,,,,,,,,,,,,,,,,,,,,,,,,,,,,,,,,,,,,,,,,,,,,,,,,,,,,,,,,,,,,,,,,,,,,,,,,,,,,,,,,,,,,,,,,,,,,,,,,,,,,,,,,,,,,,,,,,,,,,,,,,,,,,,,,,,
,,,,,,5bf483ac08dffa0001100c09,62bbf9b223cc2669efad1885,2022-06-29_08h14.46.653,Colour_Asymmetry_Pilot,2022.1.3,Win32,59.94844434,62bbe60bf3d75ef465d3e404,0,68,68,56,1,onetwo,,,,,,,,,,,,,,,,,,,,,,,,,,,,,,,,,,,,,,,,,,,,,,,,,,,,,,,,,,,,,,,,,,,,,,,,,,,,,,,,,,,,,,,,,,,,,,,,,,,,,,,,,,,,,,,,,,,,,,,,,,,,,,,,,,,,,,,,,,,,,,,,,,,,,,,,
,,,,,,5bf483ac08dffa0001100c09,62bbf9b223cc2669efad1885,2022-06-29_08h14.46.653,Colour_Asymmetry_Pilot,2022.1.3,Win32,59.94844434,62bbe60bf3d75ef465d3e404,0,69,69,59,1,twofour,,,,,,,,,,,,,,,,,,,,,,,,,,,,,,,,,,,,,,,,,,,,,,,,,,,,,,,,,,,,,,,,,,,,,,,,,,,,,,,,,,,,,,,,,,,,,,,,,,,,,,,,,,,,,,,,,,,,,,,,,,,,,,,,,,,,,,,,,,,,,,,,,,,,,,,,
,,,,,,5bf483ac08dffa0001100c09,62bbf9b223cc2669efad1885,2022-06-29_08h14.46.653,Colour_Asymmetry_Pilot,2022.1.3,Win32,59.94844434,62bbe60bf3d75ef465d3e404,0,70,70,71,1,fourthree,,,,,,,,,,,,,,,,,,,,,,,,,,,,,,,,,,,,,,,,,,,,,,,,,,,,,,,,,,,,,,,,,,,,,,,,,,,,,,,,,,,,,,,,,,,,,,,,,,,,,,,,,,,,,,,,,,,,,,,,,,,,,,,,,,,,,,,,,,,,,,,,,,,,,,,,
,,,,,,5bf483ac08dffa0001100c09,62bbf9b223cc2669efad1885,2022-06-29_08h14.46.653,Colour_Asymmetry_Pilot,2022.1.3,Win32,59.94844434,62bbe60bf3d75ef465d3e404,0,71,71,1,1,onethree,,,,,,,,,,,,,,,,,,,,,,,,,,,,,,,,,,,,,,,,,,,,,,,,,,,,,,,,,,,,,,,,,,,,,,,,,,,,,,,,,,,,,,,,,,,,,,,,,,,,,,,,,,,,,,,,,,,,,,,,,,,,,,,,,,,,,,,,,,,,,,,,,,,,,,,,
,,,,,,5bf483ac08dffa0001100c09,62bbf9b223cc2669efad1885,2022-06-29_08h14.46.653,Colour_Asymmetry_Pilot,2022.1.3,Win32,59.94844434,62bbe60bf3d75ef465d3e404,0,72,72,150,1,fourtwo,,,,,,,,,,,,,,,,,,,,,,,,,,,,,,,,,,,,,,,,,,,,,,,,,,,,,,,,,,,,,,,,,,,,,,,,,,,,,,,,,,,,,,,,,,,,,,,,,,,,,,,,,,,,,,,,,,,,,,,,,,,,,,,,,,,,,,,,,,,,,,,,,,,,,,,,
,,,,,,5bf483ac08dffa0001100c09,62bbf9b223cc2669efad1885,2022-06-29_08h14.46.653,Colour_Asymmetry_Pilot,2022.1.3,Win32,59.94844434,62bbe60bf3d75ef465d3e404,0,73,73,66,1,twoone,,,,,,,,,,,,,,,,,,,,,,,,,,,,,,,,,,,,,,,,,,,,,,,,,,,,,,,,,,,,,,,,,,,,,,,,,,,,,,,,,,,,,,,,,,,,,,,,,,,,,,,,,,,,,,,,,,,,,,,,,,,,,,,,,,,,,,,,,,,,,,,,,,,,,,,,
,,,,,,5bf483ac08dffa0001100c09,62bbf9b223cc2669efad1885,2022-06-29_08h14.46.653,Colour_Asymmetry_Pilot,2022.1.3,Win32,59.94844434,62bbe60bf3d75ef465d3e404,0,74,74,65,1,onethree,,,,,,,,,,,,,,,,,,,,,,,,,,,,,,,,,,,,,,,,,,,,,,,,,,,,,,,,,,,,,,,,,,,,,,,,,,,,,,,,,,,,,,,,,,,,,,,,,,,,,,,,,,,,,,,,,,,,,,,,,,,,,,,,,,,,,,,,,,,,,,,,,,,,,,,,
,,,,,,5bf483ac08dffa0001100c09,62bbf9b223cc2669efad1885,2022-06-29_08h14.46.653,Colour_Asymmetry_Pilot,2022.1.3,Win32,59.94844434,62bbe60bf3d75ef465d3e404,0,75,75,95,1,fourthree,,,,,,,,,,,,,,,,,,,,,,,,,,,,,,,,,,,,,,,,,,,,,,,,,,,,,,,,,,,,,,,,,,,,,,,,,,,,,,,,,,,,,,,,,,,,,,,,,,,,,,,,,,,,,,,,,,,,,,,,,,,,,,,,,,,,,,,,,,,,,,,,,,,,,,,,
,,,,,,5bf483ac08dffa0001100c09,62bbf9b223cc2669efad1885,2022-06-29_08h14.46.653,Colour_Asymmetry_Pilot,2022.1.3,Win32,59.94844434,62bbe60bf3d75ef465d3e404,0,76,76,8,1,onetwo,,,,,,,,,,,,,,,,,,,,,,,,,,,,,,,,,,,,,,,,,,,,,,,,,,,,,,,,,,,,,,,,,,,,,,,,,,,,,,,,,,,,,,,,,,,,,,,,,,,,,,,,,,,,,,,,,,,,,,,,,,,,,,,,,,,,,,,,,,,,,,,,,,,,,,,,
,,,,,,5bf483ac08dffa0001100c09,62bbf9b223cc2669efad1885,2022-06-29_08h14.46.653,Colour_Asymmetry_Pilot,2022.1.3,Win32,59.94844434,62bbe60bf3d75ef465d3e404,0,77,77,26,1,twoone,,,,,,,,,,,,,,,,,,,,,,,,,,,,,,,,,,,,,,,,,,,,,,,,,,,,,,,,,,,,,,,,,,,,,,,,,,,,,,,,,,,,,,,,,,,,,,,,,,,,,,,,,,,,,,,,,,,,,,,,,,,,,,,,,,,,,,,,,,,,,,,,,,,,,,,,
,,,,,,5bf483ac08dffa0001100c09,62bbf9b223cc2669efad1885,2022-06-29_08h14.46.653,Colour_Asymmetry_Pilot,2022.1.3,Win32,59.94844434,62bbe60bf3d75ef465d3e404,0,78,78,88,1,onetwo,,,,,,,,,,,,,,,,,,,,,,,,,,,,,,,,,,,,,,,,,,,,,,,,,,,,,,,,,,,,,,,,,,,,,,,,,,,,,,,,,,,,,,,,,,,,,,,,,,,,,,,,,,,,,,,,,,,,,,,,,,,,,,,,,,,,,,,,,,,,,,,,,,,,,,,,
,,,,,,5bf483ac08dffa0001100c09,62bbf9b223cc2669efad1885,2022-06-29_08h14.46.653,Colour_Asymmetry_Pilot,2022.1.3,Win32,59.94844434,62bbe60bf3d75ef465d3e404,0,79,79,96,1,onetwo,,,,,,,,,,,,,,,,,,,,,,,,,,,,,,,,,,,,,,,,,,,,,,,,,,,,,,,,,,,,,,,,,,,,,,,,,,,,,,,,,,,,,,,,,,,,,,,,,,,,,,,,,,,,,,,,,,,,,,,,,,,,,,,,,,,,,,,,,,,,,,,,,,,,,,,,
,,,,,,5bf483ac08dffa0001100c09,62bbf9b223cc2669efad1885,2022-06-29_08h14.46.653,Colour_Asymmetry_Pilot,2022.1.3,Win32,59.94844434,62bbe60bf3d75ef465d3e404,0,80,80,123,1,twofour,,,,,,,,,,,,,,,,,,,,,,,,,,,,,,,,,,,,,,,,,,,,,,,,,,,,,,,,,,,,,,,,,,,,,,,,,,,,,,,,,,,,,,,,,,,,,,,,,,,,,,,,,,,,,,,,,,,,,,,,,,,,,,,,,,,,,,,,,,,,,,,,,,,,,,,,
,,,,,,5bf483ac08dffa0001100c09,62bbf9b223cc2669efad1885,2022-06-29_08h14.46.653,Colour_Asymmetry_Pilot,2022.1.3,Win32,59.94844434,62bbe60bf3d75ef465d3e404,0,81,81,72,1,onetwo,,,,,,,,,,,,,,,,,,,,,,,,,,,,,,,,,,,,,,,,,,,,,,,,,,,,,,,,,,,,,,,,,,,,,,,,,,,,,,,,,,,,,,,,,,,,,,,,,,,,,,,,,,,,,,,,,,,,,,,,,,,,,,,,,,,,,,,,,,,,,,,,,,,,,,,,
,,,,,,5bf483ac08dffa0001100c09,62bbf9b223cc2669efad1885,2022-06-29_08h14.46.653,Colour_Asymmetry_Pilot,2022.1.3,Win32,59.94844434,62bbe60bf3d75ef465d3e404,0,82,82,53,1,threefour,,,,,,,,,,,,,,,,,,,,,,,,,,,,,,,,,,,,,,,,,,,,,,,,,,,,,,,,,,,,,,,,,,,,,,,,,,,,,,,,,,,,,,,,,,,,,,,,,,,,,,,,,,,,,,,,,,,,,,,,,,,,,,,,,,,,,,,,,,,,,,,,,,,,,,,,
,,,,,,5bf483ac08dffa0001100c09,62bbf9b223cc2669efad1885,2022-06-29_08h14.46.653,Colour_Asymmetry_Pilot,2022.1.3,Win32,59.94844434,62bbe60bf3d75ef465d3e404,0,83,83,102,1,fourtwo,,,,,,,,,,,,,,,,,,,,,,,,,,,,,,,,,,,,,,,,,,,,,,,,,,,,,,,,,,,,,,,,,,,,,,,,,,,,,,,,,,,,,,,,,,,,,,,,,,,,,,,,,,,,,,,,,,,,,,,,,,,,,,,,,,,,,,,,,,,,,,,,,,,,,,,,
,,,,,,5bf483ac08dffa0001100c09,62bbf9b223cc2669efad1885,2022-06-29_08h14.46.653,Colour_Asymmetry_Pilot,2022.1.3,Win32,59.94844434,62bbe60bf3d75ef465d3e404,0,84,84,104,1,onetwo,,,,,,,,,,,,,,,,,,,,,,,,,,,,,,,,,,,,,,,,,,,,,,,,,,,,,,,,,,,,,,,,,,,,,,,,,,,,,,,,,,,,,,,,,,,,,,,,,,,,,,,,,,,,,,,,,,,,,,,,,,,,,,,,,,,,,,,,,,,,,,,,,,,,,,,,
,,,,,,5bf483ac08dffa0001100c09,62bbf9b223cc2669efad1885,2022-06-29_08h14.46.653,Colour_Asymmetry_Pilot,2022.1.3,Win32,59.94844434,62bbe60bf3d75ef465d3e404,0,85,85,159,1,fourthree,,,,,,,,,,,,,,,,,,,,,,,,,,,,,,,,,,,,,,,,,,,,,,,,,,,,,,,,,,,,,,,,,,,,,,,,,,,,,,,,,,,,,,,,,,,,,,,,,,,,,,,,,,,,,,,,,,,,,,,,,,,,,,,,,,,,,,,,,,,,,,,,,,,,,,,,
,,,,,,5bf483ac08dffa0001100c09,62bbf9b223cc2669efad1885,2022-06-29_08h14.46.653,Colour_Asymmetry_Pilot,2022.1.3,Win32,59.94844434,62bbe60bf3d75ef465d3e404,0,86,86,113,1,onethree,,,,,,,,,,,,,,,,,,,,,,,,,,,,,,,,,,,,,,,,,,,,,,,,,,,,,,,,,,,,,,,,,,,,,,,,,,,,,,,,,,,,,,,,,,,,,,,,,,,,,,,,,,,,,,,,,,,,,,,,,,,,,,,,,,,,,,,,,,,,,,,,,,,,,,,,
,,,,,,5bf483ac08dffa0001100c09,62bbf9b223cc2669efad1885,2022-06-29_08h14.46.653,Colour_Asymmetry_Pilot,2022.1.3,Win32,59.94844434,62bbe60bf3d75ef465d3e404,0,87,87,18,1,twoone,,,,,,,,,,,,,,,,,,,,,,,,,,,,,,,,,,,,,,,,,,,,,,,,,,,,,,,,,,,,,,,,,,,,,,,,,,,,,,,,,,,,,,,,,,,,,,,,,,,,,,,,,,,,,,,,,,,,,,,,,,,,,,,,,,,,,,,,,,,,,,,,,,,,,,,,
,,,,,,5bf483ac08dffa0001100c09,62bbf9b223cc2669efad1885,2022-06-29_08h14.46.653,Colour_Asymmetry_Pilot,2022.1.3,Win32,59.94844434,62bbe60bf3d75ef465d3e404,0,88,88,141,1,threefour,,,,,,,,,,,,,,,,,,,,,,,,,,,,,,,,,,,,,,,,,,,,,,,,,,,,,,,,,,,,,,,,,,,,,,,,,,,,,,,,,,,,,,,,,,,,,,,,,,,,,,,,,,,,,,,,,,,,,,,,,,,,,,,,,,,,,,,,,,,,,,,,,,,,,,,,
,,,,,,5bf483ac08dffa0001100c09,62bbf9b223cc2669efad1885,2022-06-29_08h14.46.653,Colour_Asymmetry_Pilot,2022.1.3,Win32,59.94844434,62bbe60bf3d75ef465d3e404,0,89,89,122,1,twoone,,,,,,,,,,,,,,,,,,,,,,,,,,,,,,,,,,,,,,,,,,,,,,,,,,,,,,,,,,,,,,,,,,,,,,,,,,,,,,,,,,,,,,,,,,,,,,,,,,,,,,,,,,,,,,,,,,,,,,,,,,,,,,,,,,,,,,,,,,,,,,,,,,,,,,,,
,,,,,,5bf483ac08dffa0001100c09,62bbf9b223cc2669efad1885,2022-06-29_08h14.46.653,Colour_Asymmetry_Pilot,2022.1.3,Win32,59.94844434,62bbe60bf3d75ef465d3e404,0,90,90,155,1,twofour,,,,,,,,,,,,,,,,,,,,,,,,,,,,,,,,,,,,,,,,,,,,,,,,,,,,,,,,,,,,,,,,,,,,,,,,,,,,,,,,,,,,,,,,,,,,,,,,,,,,,,,,,,,,,,,,,,,,,,,,,,,,,,,,,,,,,,,,,,,,,,,,,,,,,,,,
,,,,,,5bf483ac08dffa0001100c09,62bbf9b223cc2669efad1885,2022-06-29_08h14.46.653,Colour_Asymmetry_Pilot,2022.1.3,Win32,59.94844434,62bbe60bf3d75ef465d3e404,0,91,91,151,1,fourthree,,,,,,,,,,,,,,,,,,,,,,,,,,,,,,,,,,,,,,,,,,,,,,,,,,,,,,,,,,,,,,,,,,,,,,,,,,,,,,,,,,,,,,,,,,,,,,,,,,,,,,,,,,,,,,,,,,,,,,,,,,,,,,,,,,,,,,,,,,,,,,,,,,,,,,,,
,,,,,,5bf483ac08dffa0001100c09,62bbf9b223cc2669efad1885,2022-06-29_08h14.46.653,Colour_Asymmetry_Pilot,2022.1.3,Win32,59.94844434,62bbe60bf3d75ef465d3e404,0,92,92,70,1,fourtwo,,,,,,,,,,,,,,,,,,,,,,,,,,,,,,,,,,,,,,,,,,,,,,,,,,,,,,,,,,,,,,,,,,,,,,,,,,,,,,,,,,,,,,,,,,,,,,,,,,,,,,,,,,,,,,,,,,,,,,,,,,,,,,,,,,,,,,,,,,,,,,,,,,,,,,,,
,,,,,,5bf483ac08dffa0001100c09,62bbf9b223cc2669efad1885,2022-06-29_08h14.46.653,Colour_Asymmetry_Pilot,2022.1.3,Win32,59.94844434,62bbe60bf3d75ef465d3e404,0,93,93,86,1,fourtwo,,,,,,,,,,,,,,,,,,,,,,,,,,,,,,,,,,,,,,,,,,,,,,,,,,,,,,,,,,,,,,,,,,,,,,,,,,,,,,,,,,,,,,,,,,,,,,,,,,,,,,,,,,,,,,,,,,,,,,,,,,,,,,,,,,,,,,,,,,,,,,,,,,,,,,,,
,,,,,,5bf483ac08dffa0001100c09,62bbf9b223cc2669efad1885,2022-06-29_08h14.46.653,Colour_Asymmetry_Pilot,2022.1.3,Win32,59.94844434,62bbe60bf3d75ef465d3e404,0,94,94,83,1,twofour,,,,,,,,,,,,,,,,,,,,,,,,,,,,,,,,,,,,,,,,,,,,,,,,,,,,,,,,,,,,,,,,,,,,,,,,,,,,,,,,,,,,,,,,,,,,,,,,,,,,,,,,,,,,,,,,,,,,,,,,,,,,,,,,,,,,,,,,,,,,,,,,,,,,,,,,
,,,,,,5bf483ac08dffa0001100c09,62bbf9b223cc2669efad1885,2022-06-29_08h14.46.653,Colour_Asymmetry_Pilot,2022.1.3,Win32,59.94844434,62bbe60bf3d75ef465d3e404,0,95,95,145,1,onethree,,,,,,,,,,,,,,,,,,,,,,,,,,,,,,,,,,,,,,,,,,,,,,,,,,,,,,,,,,,,,,,,,,,,,,,,,,,,,,,,,,,,,,,,,,,,,,,,,,,,,,,,,,,,,,,,,,,,,,,,,,,,,,,,,,,,,,,,,,,,,,,,,,,,,,,,
,,,,,,5bf483ac08dffa0001100c09,62bbf9b223cc2669efad1885,2022-06-29_08h14.46.653,Colour_Asymmetry_Pilot,2022.1.3,Win32,59.94844434,62bbe60bf3d75ef465d3e404,0,96,96,153,1,onethree,,,,,,,,,,,,,,,,,,,,,,,,,,,,,,,,,,,,,,,,,,,,,,,,,,,,,,,,,,,,,,,,,,,,,,,,,,,,,,,,,,,,,,,,,,,,,,,,,,,,,,,,,,,,,,,,,,,,,,,,,,,,,,,,,,,,,,,,,,,,,,,,,,,,,,,,
,,,,,,5bf483ac08dffa0001100c09,62bbf9b223cc2669efad1885,2022-06-29_08h14.46.653,Colour_Asymmetry_Pilot,2022.1.3,Win32,59.94844434,62bbe60bf3d75ef465d3e404,0,97,97,158,1,fourtwo,,,,,,,,,,,,,,,,,,,,,,,,,,,,,,,,,,,,,,,,,,,,,,,,,,,,,,,,,,,,,,,,,,,,,,,,,,,,,,,,,,,,,,,,,,,,,,,,,,,,,,,,,,,,,,,,,,,,,,,,,,,,,,,,,,,,,,,,,,,,,,,,,,,,,,,,
,,,,,,5bf483ac08dffa0001100c09,62bbf9b223cc2669efad1885,2022-06-29_08h14.46.653,Colour_Asymmetry_Pilot,2022.1.3,Win32,59.94844434,62bbe60bf3d75ef465d3e404,0,98,98,32,1,onetwo,,,,,,,,,,,,,,,,,,,,,,,,,,,,,,,,,,,,,,,,,,,,,,,,,,,,,,,,,,,,,,,,,,,,,,,,,,,,,,,,,,,,,,,,,,,,,,,,,,,,,,,,,,,,,,,,,,,,,,,,,,,,,,,,,,,,,,,,,,,,,,,,,,,,,,,,
,,,,,,5bf483ac08dffa0001100c09,62bbf9b223cc2669efad1885,2022-06-29_08h14.46.653,Colour_Asymmetry_Pilot,2022.1.3,Win32,59.94844434,62bbe60bf3d75ef465d3e404,0,99,99,30,1,fourtwo,,,,,,,,,,,,,,,,,,,,,,,,,,,,,,,,,,,,,,,,,,,,,,,,,,,,,,,,,,,,,,,,,,,,,,,,,,,,,,,,,,,,,,,,,,,,,,,,,,,,,,,,,,,,,,,,,,,,,,,,,,,,,,,,,,,,,,,,,,,,,,,,,,,,,,,,
,,,,,,5bf483ac08dffa0001100c09,62bbf9b223cc2669efad1885,2022-06-29_08h14.46.653,Colour_Asymmetry_Pilot,2022.1.3,Win32,59.94844434,62bbe60bf3d75ef465d3e404,0,100,100,157,1,threefour,,,,,,,,,,,,,,,,,,,,,,,,,,,,,,,,,,,,,,,,,,,,,,,,,,,,,,,,,,,,,,,,,,,,,,,,,,,,,,,,,,,,,,,,,,,,,,,,,,,,,,,,,,,,,,,,,,,,,,,,,,,,,,,,,,,,,,,,,,,,,,,,,,,,,,,,
,,,,,,5bf483ac08dffa0001100c09,62bbf9b223cc2669efad1885,2022-06-29_08h14.46.653,Colour_Asymmetry_Pilot,2022.1.3,Win32,59.94844434,62bbe60bf3d75ef465d3e404,0,101,101,148,1,threeone,,,,,,,,,,,,,,,,,,,,,,,,,,,,,,,,,,,,,,,,,,,,,,,,,,,,,,,,,,,,,,,,,,,,,,,,,,,,,,,,,,,,,,,,,,,,,,,,,,,,,,,,,,,,,,,,,,,,,,,,,,,,,,,,,,,,,,,,,,,,,,,,,,,,,,,,
,,,,,,5bf483ac08dffa0001100c09,62bbf9b223cc2669efad1885,2022-06-29_08h14.46.653,Colour_Asymmetry_Pilot,2022.1.3,Win32,59.94844434,62bbe60bf3d75ef465d3e404,0,102,102,77,1,threefour,,,,,,,,,,,,,,,,,,,,,,,,,,,,,,,,,,,,,,,,,,,,,,,,,,,,,,,,,,,,,,,,,,,,,,,,,,,,,,,,,,,,,,,,,,,,,,,,,,,,,,,,,,,,,,,,,,,,,,,,,,,,,,,,,,,,,,,,,,,,,,,,,,,,,,,,
,,,,,,5bf483ac08dffa0001100c09,62bbf9b223cc2669efad1885,2022-06-29_08h14.46.653,Colour_Asymmetry_Pilot,2022.1.3,Win32,59.94844434,62bbe60bf3d75ef465d3e404,0,103,103,90,1,twoone,,,,,,,,,,,,,,,,,,,,,,,,,,,,,,,,,,,,,,,,,,,,,,,,,,,,,,,,,,,,,,,,,,,,,,,,,,,,,,,,,,,,,,,,,,,,,,,,,,,,,,,,,,,,,,,,,,,,,,,,,,,,,,,,,,,,,,,,,,,,,,,,,,,,,,,,
,,,,,,5bf483ac08dffa0001100c09,62bbf9b223cc2669efad1885,2022-06-29_08h14.46.653,Colour_Asymmetry_Pilot,2022.1.3,Win32,59.94844434,62bbe60bf3d75ef465d3e404,0,104,104,75,1,twofour,,,,,,,,,,,,,,,,,,,,,,,,,,,,,,,,,,,,,,,,,,,,,,,,,,,,,,,,,,,,,,,,,,,,,,,,,,,,,,,,,,,,,,,,,,,,,,,,,,,,,,,,,,,,,,,,,,,,,,,,,,,,,,,,,,,,,,,,,,,,,,,,,,,,,,,,
,,,,,,5bf483ac08dffa0001100c09,62bbf9b223cc2669efad1885,2022-06-29_08h14.46.653,Colour_Asymmetry_Pilot,2022.1.3,Win32,59.94844434,62bbe60bf3d75ef465d3e404,0,105,105,103,1,fourthree,,,,,,,,,,,,,,,,,,,,,,,,,,,,,,,,,,,,,,,,,,,,,,,,,,,,,,,,,,,,,,,,,,,,,,,,,,,,,,,,,,,,,,,,,,,,,,,,,,,,,,,,,,,,,,,,,,,,,,,,,,,,,,,,,,,,,,,,,,,,,,,,,,,,,,,,
,,,,,,5bf483ac08dffa0001100c09,62bbf9b223cc2669efad1885,2022-06-29_08h14.46.653,Colour_Asymmetry_Pilot,2022.1.3,Win32,59.94844434,62bbe60bf3d75ef465d3e404,0,106,106,137,1,onethree,,,,,,,,,,,,,,,,,,,,,,,,,,,,,,,,,,,,,,,,,,,,,,,,,,,,,,,,,,,,,,,,,,,,,,,,,,,,,,,,,,,,,,,,,,,,,,,,,,,,,,,,,,,,,,,,,,,,,,,,,,,,,,,,,,,,,,,,,,,,,,,,,,,,,,,,
,,,,,,5bf483ac08dffa0001100c09,62bbf9b223cc2669efad1885,2022-06-29_08h14.46.653,Colour_Asymmetry_Pilot,2022.1.3,Win32,59.94844434,62bbe60bf3d75ef465d3e404,0,107,107,40,1,onetwo,,,,,,,,,,,,,,,,,,,,,,,,,,,,,,,,,,,,,,,,,,,,,,,,,,,,,,,,,,,,,,,,,,,,,,,,,,,,,,,,,,,,,,,,,,,,,,,,,,,,,,,,,,,,,,,,,,,,,,,,,,,,,,,,,,,,,,,,,,,,,,,,,,,,,,,,
,,,,,,5bf483ac08dffa0001100c09,62bbf9b223cc2669efad1885,2022-06-29_08h14.46.653,Colour_Asymmetry_Pilot,2022.1.3,Win32,59.94844434,62bbe60bf3d75ef465d3e404,0,108,108,63,1,fourthree,,,,,,,,,,,,,,,,,,,,,,,,,,,,,,,,,,,,,,,,,,,,,,,,,,,,,,,,,,,,,,,,,,,,,,,,,,,,,,,,,,,,,,,,,,,,,,,,,,,,,,,,,,,,,,,,,,,,,,,,,,,,,,,,,,,,,,,,,,,,,,,,,,,,,,,,
,,,,,,5bf483ac08dffa0001100c09,62bbf9b223cc2669efad1885,2022-06-29_08h14.46.653,Colour_Asymmetry_Pilot,2022.1.3,Win32,59.94844434,62bbe60bf3d75ef465d3e404,0,109,109,128,1,onetwo,,,,,,,,,,,,,,,,,,,,,,,,,,,,,,,,,,,,,,,,,,,,,,,,,,,,,,,,,,,,,,,,,,,,,,,,,,,,,,,,,,,,,,,,,,,,,,,,,,,,,,,,,,,,,,,,,,,,,,,,,,,,,,,,,,,,,,,,,,,,,,,,,,,,,,,,
,,,,,,5bf483ac08dffa0001100c09,62bbf9b223cc2669efad1885,2022-06-29_08h14.46.653,Colour_Asymmetry_Pilot,2022.1.3,Win32,59.94844434,62bbe60bf3d75ef465d3e404,0,110,110,33,1,onethree,,,,,,,,,,,,,,,,,,,,,,,,,,,,,,,,,,,,,,,,,,,,,,,,,,,,,,,,,,,,,,,,,,,,,,,,,,,,,,,,,,,,,,,,,,,,,,,,,,,,,,,,,,,,,,,,,,,,,,,,,,,,,,,,,,,,,,,,,,,,,,,,,,,,,,,,
,,,,,,5bf483ac08dffa0001100c09,62bbf9b223cc2669efad1885,2022-06-29_08h14.46.653,Colour_Asymmetry_Pilot,2022.1.3,Win32,59.94844434,62bbe60bf3d75ef465d3e404,0,111,111,105,1,onethree,,,,,,,,,,,,,,,,,,,,,,,,,,,,,,,,,,,,,,,,,,,,,,,,,,,,,,,,,,,,,,,,,,,,,,,,,,,,,,,,,,,,,,,,,,,,,,,,,,,,,,,,,,,,,,,,,,,,,,,,,,,,,,,,,,,,,,,,,,,,,,,,,,,,,,,,
,,,,,,5bf483ac08dffa0001100c09,62bbf9b223cc2669efad1885,2022-06-29_08h14.46.653,Colour_Asymmetry_Pilot,2022.1.3,Win32,59.94844434,62bbe60bf3d75ef465d3e404,0,112,112,160,1,onetwo,,,,,,,,,,,,,,,,,,,,,,,,,,,,,,,,,,,,,,,,,,,,,,,,,,,,,,,,,,,,,,,,,,,,,,,,,,,,,,,,,,,,,,,,,,,,,,,,,,,,,,,,,,,,,,,,,,,,,,,,,,,,,,,,,,,,,,,,,,,,,,,,,,,,,,,,
,,,,,,5bf483ac08dffa0001100c09,62bbf9b223cc2669efad1885,2022-06-29_08h14.46.653,Colour_Asymmetry_Pilot,2022.1.3,Win32,59.94844434,62bbe60bf3d75ef465d3e404,0,113,113,152,1,onetwo,,,,,,,,,,,,,,,,,,,,,,,,,,,,,,,,,,,,,,,,,,,,,,,,,,,,,,,,,,,,,,,,,,,,,,,,,,,,,,,,,,,,,,,,,,,,,,,,,,,,,,,,,,,,,,,,,,,,,,,,,,,,,,,,,,,,,,,,,,,,,,,,,,,,,,,,
,,,,,,5bf483ac08dffa0001100c09,62bbf9b223cc2669efad1885,2022-06-29_08h14.46.653,Colour_Asymmetry_Pilot,2022.1.3,Win32,59.94844434,62bbe60bf3d75ef465d3e404,0,114,114,114,1,twoone,,,,,,,,,,,,,,,,,,,,,,,,,,,,,,,,,,,,,,,,,,,,,,,,,,,,,,,,,,,,,,,,,,,,,,,,,,,,,,,,,,,,,,,,,,,,,,,,,,,,,,,,,,,,,,,,,,,,,,,,,,,,,,,,,,,,,,,,,,,,,,,,,,,,,,,,
,,,,,,5bf483ac08dffa0001100c09,62bbf9b223cc2669efad1885,2022-06-29_08h14.46.653,Colour_Asymmetry_Pilot,2022.1.3,Win32,59.94844434,62bbe60bf3d75ef465d3e404,0,115,115,64,1,onetwo,,,,,,,,,,,,,,,,,,,,,,,,,,,,,,,,,,,,,,,,,,,,,,,,,,,,,,,,,,,,,,,,,,,,,,,,,,,,,,,,,,,,,,,,,,,,,,,,,,,,,,,,,,,,,,,,,,,,,,,,,,,,,,,,,,,,,,,,,,,,,,,,,,,,,,,,
,,,,,,5bf483ac08dffa0001100c09,62bbf9b223cc2669efad1885,2022-06-29_08h14.46.653,Colour_Asymmetry_Pilot,2022.1.3,Win32,59.94844434,62bbe60bf3d75ef465d3e404,0,116,116,81,1,onethree,,,,,,,,,,,,,,,,,,,,,,,,,,,,,,,,,,,,,,,,,,,,,,,,,,,,,,,,,,,,,,,,,,,,,,,,,,,,,,,,,,,,,,,,,,,,,,,,,,,,,,,,,,,,,,,,,,,,,,,,,,,,,,,,,,,,,,,,,,,,,,,,,,,,,,,,
,,,,,,5bf483ac08dffa0001100c09,62bbf9b223cc2669efad1885,2022-06-29_08h14.46.653,Colour_Asymmetry_Pilot,2022.1.3,Win32,59.94844434,62bbe60bf3d75ef465d3e404,0,117,117,161,1,onethree,,,,,,,,,,,,,,,,,,,,,,,,,,,,,,,,,,,,,,,,,,,,,,,,,,,,,,,,,,,,,,,,,,,,,,,,,,,,,,,,,,,,,,,,,,,,,,,,,,,,,,,,,,,,,,,,,,,,,,,,,,,,,,,,,,,,,,,,,,,,,,,,,,,,,,,,
,,,,,,5bf483ac08dffa0001100c09,62bbf9b223cc2669efad1885,2022-06-29_08h14.46.653,Colour_Asymmetry_Pilot,2022.1.3,Win32,59.94844434,62bbe60bf3d75ef465d3e404,0,118,118,50,1,twoone,,,,,,,,,,,,,,,,,,,,,,,,,,,,,,,,,,,,,,,,,,,,,,,,,,,,,,,,,,,,,,,,,,,,,,,,,,,,,,,,,,,,,,,,,,,,,,,,,,,,,,,,,,,,,,,,,,,,,,,,,,,,,,,,,,,,,,,,,,,,,,,,,,,,,,,,
,,,,,,5bf483ac08dffa0001100c09,62bbf9b223cc2669efad1885,2022-06-29_08h14.46.653,Colour_Asymmetry_Pilot,2022.1.3,Win32,59.94844434,62bbe60bf3d75ef465d3e404,0,119,119,67,1,twofour,,,,,,,,,,,,,,,,,,,,,,,,,,,,,,,,,,,,,,,,,,,,,,,,,,,,,,,,,,,,,,,,,,,,,,,,,,,,,,,,,,,,,,,,,,,,,,,,,,,,,,,,,,,,,,,,,,,,,,,,,,,,,,,,,,,,,,,,,,,,,,,,,,,,,,,,
,,,,,,5bf483ac08dffa0001100c09,62bbf9b223cc2669efad1885,2022-06-29_08h14.46.653,Colour_Asymmetry_Pilot,2022.1.3,Win32,59.94844434,62bbe60bf3d75ef465d3e404,0,120,120,94,1,fourtwo,,,,,,,,,,,,,,,,,,,,,,,,,,,,,,,,,,,,,,,,,,,,,,,,,,,,,,,,,,,,,,,,,,,,,,,,,,,,,,,,,,,,,,,,,,,,,,,,,,,,,,,,,,,,,,,,,,,,,,,,,,,,,,,,,,,,,,,,,,,,,,,,,,,,,,,,
,,,,,,5bf483ac08dffa0001100c09,62bbf9b223cc2669efad1885,2022-06-29_08h14.46.653,Colour_Asymmetry_Pilot,2022.1.3,Win32,59.94844434,62bbe60bf3d75ef465d3e404,0,121,121,61,1,threefour,,,,,,,,,,,,,,,,,,,,,,,,,,,,,,,,,,,,,,,,,,,,,,,,,,,,,,,,,,,,,,,,,,,,,,,,,,,,,,,,,,,,,,,,,,,,,,,,,,,,,,,,,,,,,,,,,,,,,,,,,,,,,,,,,,,,,,,,,,,,,,,,,,,,,,,,
,,,,,,5bf483ac08dffa0001100c09,62bbf9b223cc2669efad1885,2022-06-29_08h14.46.653,Colour_Asymmetry_Pilot,2022.1.3,Win32,59.94844434,62bbe60bf3d75ef465d3e404,0,122,122,43,1,twofour,,,,,,,,,,,,,,,,,,,,,,,,,,,,,,,,,,,,,,,,,,,,,,,,,,,,,,,,,,,,,,,,,,,,,,,,,,,,,,,,,,,,,,,,,,,,,,,,,,,,,,,,,,,,,,,,,,,,,,,,,,,,,,,,,,,,,,,,,,,,,,,,,,,,,,,,
,,,,,,5bf483ac08dffa0001100c09,62bbf9b223cc2669efad1885,2022-06-29_08h14.46.653,Colour_Asymmetry_Pilot,2022.1.3,Win32,59.94844434,62bbe60bf3d75ef465d3e404,0,123,123,41,1,onethree,,,,,,,,,,,,,,,,,,,,,,,,,,,,,,,,,,,,,,,,,,,,,,,,,,,,,,,,,,,,,,,,,,,,,,,,,,,,,,,,,,,,,,,,,,,,,,,,,,,,,,,,,,,,,,,,,,,,,,,,,,,,,,,,,,,,,,,,,,,,,,,,,,,,,,,,
,,,,,,5bf483ac08dffa0001100c09,62bbf9b223cc2669efad1885,2022-06-29_08h14.46.653,Colour_Asymmetry_Pilot,2022.1.3,Win32,59.94844434,62bbe60bf3d75ef465d3e404,0,124,124,36,1,threeone,,,,,,,,,,,,,,,,,,,,,,,,,,,,,,,,,,,,,,,,,,,,,,,,,,,,,,,,,,,,,,,,,,,,,,,,,,,,,,,,,,,,,,,,,,,,,,,,,,,,,,,,,,,,,,,,,,,,,,,,,,,,,,,,,,,,,,,,,,,,,,,,,,,,,,,,
,,,,,,5bf483ac08dffa0001100c09,62bbf9b223cc2669efad1885,2022-06-29_08h14.46.653,Colour_Asymmetry_Pilot,2022.1.3,Win32,59.94844434,62bbe60bf3d75ef465d3e404,0,125,125,126,1,fourtwo,,,,,,,,,,,,,,,,,,,,,,,,,,,,,,,,,,,,,,,,,,,,,,,,,,,,,,,,,,,,,,,,,,,,,,,,,,,,,,,,,,,,,,,,,,,,,,,,,,,,,,,,,,,,,,,,,,,,,,,,,,,,,,,,,,,,,,,,,,,,,,,,,,,,,,,,
,,,,,,5bf483ac08dffa0001100c09,62bbf9b223cc2669efad1885,2022-06-29_08h14.46.653,Colour_Asymmetry_Pilot,2022.1.3,Win32,59.94844434,62bbe60bf3d75ef465d3e404,0,126,126,31,1,fourthree,,,,,,,,,,,,,,,,,,,,,,,,,,,,,,,,,,,,,,,,,,,,,,,,,,,,,,,,,,,,,,,,,,,,,,,,,,,,,,,,,,,,,,,,,,,,,,,,,,,,,,,,,,,,,,,,,,,,,,,,,,,,,,,,,,,,,,,,,,,,,,,,,,,,,,,,
,,,,,,5bf483ac08dffa0001100c09,62bbf9b223cc2669efad1885,2022-06-29_08h14.46.653,Colour_Asymmetry_Pilot,2022.1.3,Win32,59.94844434,62bbe60bf3d75ef465d3e404,0,127,127,134,1,fourtwo,,,,,,,,,,,,,,,,,,,,,,,,,,,,,,,,,,,,,,,,,,,,,,,,,,,,,,,,,,,,,,,,,,,,,,,,,,,,,,,,,,,,,,,,,,,,,,,,,,,,,,,,,,,,,,,,,,,,,,,,,,,,,,,,,,,,,,,,,,,,,,,,,,,,,,,,
,,,,,,5bf483ac08dffa0001100c09,62bbf9b223cc2669efad1885,2022-06-29_08h14.46.653,Colour_Asymmetry_Pilot,2022.1.3,Win32,59.94844434,62bbe60bf3d75ef465d3e404,0,128,128,127,1,fourthree,,,,,,,,,,,,,,,,,,,,,,,,,,,,,,,,,,,,,,,,,,,,,,,,,,,,,,,,,,,,,,,,,,,,,,,,,,,,,,,,,,,,,,,,,,,,,,,,,,,,,,,,,,,,,,,,,,,,,,,,,,,,,,,,,,,,,,,,,,,,,,,,,,,,,,,,
,,,,,,5bf483ac08dffa0001100c09,62bbf9b223cc2669efad1885,2022-06-29_08h14.46.653,Colour_Asymmetry_Pilot,2022.1.3,Win32,59.94844434,62bbe60bf3d75ef465d3e404,0,129,129,156,1,threeone,,,,,,,,,,,,,,,,,,,,,,,,,,,,,,,,,,,,,,,,,,,,,,,,,,,,,,,,,,,,,,,,,,,,,,,,,,,,,,,,,,,,,,,,,,,,,,,,,,,,,,,,,,,,,,,,,,,,,,,,,,,,,,,,,,,,,,,,,,,,,,,,,,,,,,,,
,,,,,,5bf483ac08dffa0001100c09,62bbf9b223cc2669efad1885,2022-06-29_08h14.46.653,Colour_Asymmetry_Pilot,2022.1.3,Win32,59.94844434,62bbe60bf3d75ef465d3e404,0,130,130,7,1,fourthree,,,,,,,,,,,,,,,,,,,,,,,,,,,,,,,,,,,,,,,,,,,,,,,,,,,,,,,,,,,,,,,,,,,,,,,,,,,,,,,,,,,,,,,,,,,,,,,,,,,,,,,,,,,,,,,,,,,,,,,,,,,,,,,,,,,,,,,,,,,,,,,,,,,,,,,,
,,,,,,5bf483ac08dffa0001100c09,62bbf9b223cc2669efad1885,2022-06-29_08h14.46.653,Colour_Asymmetry_Pilot,2022.1.3,Win32,59.94844434,62bbe60bf3d75ef465d3e404,0,131,131,54,1,fourtwo,,,,,,,,,,,,,,,,,,,,,,,,,,,,,,,,,,,,,,,,,,,,,,,,,,,,,,,,,,,,,,,,,,,,,,,,,,,,,,,,,,,,,,,,,,,,,,,,,,,,,,,,,,,,,,,,,,,,,,,,,,,,,,,,,,,,,,,,,,,,,,,,,,,,,,,,
,,,,,,5bf483ac08dffa0001100c09,62bbf9b223cc2669efad1885,2022-06-29_08h14.46.653,Colour_Asymmetry_Pilot,2022.1.3,Win32,59.94844434,62bbe60bf3d75ef465d3e404,0,132,132,55,1,fourthree,,,,,,,,,,,,,,,,,,,,,,,,,,,,,,,,,,,,,,,,,,,,,,,,,,,,,,,,,,,,,,,,,,,,,,,,,,,,,,,,,,,,,,,,,,,,,,,,,,,,,,,,,,,,,,,,,,,,,,,,,,,,,,,,,,,,,,,,,,,,,,,,,,,,,,,,
,,,,,,5bf483ac08dffa0001100c09,62bbf9b223cc2669efad1885,2022-06-29_08h14.46.653,Colour_Asymmetry_Pilot,2022.1.3,Win32,59.94844434,62bbe60bf3d75ef465d3e404,0,133,133,85,1,threefour,,,,,,,,,,,,,,,,,,,,,,,,,,,,,,,,,,,,,,,,,,,,,,,,,,,,,,,,,,,,,,,,,,,,,,,,,,,,,,,,,,,,,,,,,,,,,,,,,,,,,,,,,,,,,,,,,,,,,,,,,,,,,,,,,,,,,,,,,,,,,,,,,,,,,,,,
,,,,,,5bf483ac08dffa0001100c09,62bbf9b223cc2669efad1885,2022-06-29_08h14.46.653,Colour_Asymmetry_Pilot,2022.1.3,Win32,59.94844434,62bbe60bf3d75ef465d3e404,0,134,134,119,1,fourthree,,,,,,,,,,,,,,,,,,,,,,,,,,,,,,,,,,,,,,,,,,,,,,,,,,,,,,,,,,,,,,,,,,,,,,,,,,,,,,,,,,,,,,,,,,,,,,,,,,,,,,,,,,,,,,,,,,,,,,,,,,,,,,,,,,,,,,,,,,,,,,,,,,,,,,,,
,,,,,,5bf483ac08dffa0001100c09,62bbf9b223cc2669efad1885,2022-06-29_08h14.46.653,Colour_Asymmetry_Pilot,2022.1.3,Win32,59.94844434,62bbe60bf3d75ef465d3e404,0,135,135,4,1,threeone,,,,,,,,,,,,,,,,,,,,,,,,,,,,,,,,,,,,,,,,,,,,,,,,,,,,,,,,,,,,,,,,,,,,,,,,,,,,,,,,,,,,,,,,,,,,,,,,,,,,,,,,,,,,,,,,,,,,,,,,,,,,,,,,,,,,,,,,,,,,,,,,,,,,,,,,
,,,,,,5bf483ac08dffa0001100c09,62bbf9b223cc2669efad1885,2022-06-29_08h14.46.653,Colour_Asymmetry_Pilot,2022.1.3,Win32,59.94844434,62bbe60bf3d75ef465d3e404,0,136,136,98,1,twoone,,,,,,,,,,,,,,,,,,,,,,,,,,,,,,,,,,,,,,,,,,,,,,,,,,,,,,,,,,,,,,,,,,,,,,,,,,,,,,,,,,,,,,,,,,,,,,,,,,,,,,,,,,,,,,,,,,,,,,,,,,,,,,,,,,,,,,,,,,,,,,,,,,,,,,,,
,,,,,,5bf483ac08dffa0001100c09,62bbf9b223cc2669efad1885,2022-06-29_08h14.46.653,Colour_Asymmetry_Pilot,2022.1.3,Win32,59.94844434,62bbe60bf3d75ef465d3e404,0,137,137,20,1,threeone,,,,,,,,,,,,,,,,,,,,,,,,,,,,,,,,,,,,,,,,,,,,,,,,,,,,,,,,,,,,,,,,,,,,,,,,,,,,,,,,,,,,,,,,,,,,,,,,,,,,,,,,,,,,,,,,,,,,,,,,,,,,,,,,,,,,,,,,,,,,,,,,,,,,,,,,
,,,,,,5bf483ac08dffa0001100c09,62bbf9b223cc2669efad1885,2022-06-29_08h14.46.653,Colour_Asymmetry_Pilot,2022.1.3,Win32,59.94844434,62bbe60bf3d75ef465d3e404,0,138,138,11,1,twofour,,,,,,,,,,,,,,,,,,,,,,,,,,,,,,,,,,,,,,,,,,,,,,,,,,,,,,,,,,,,,,,,,,,,,,,,,,,,,,,,,,,,,,,,,,,,,,,,,,,,,,,,,,,,,,,,,,,,,,,,,,,,,,,,,,,,,,,,,,,,,,,,,,,,,,,,
,,,,,,5bf483ac08dffa0001100c09,62bbf9b223cc2669efad1885,2022-06-29_08h14.46.653,Colour_Asymmetry_Pilot,2022.1.3,Win32,59.94844434,62bbe60bf3d75ef465d3e404,0,139,139,22,1,fourtwo,,,,,,,,,,,,,,,,,,,,,,,,,,,,,,,,,,,,,,,,,,,,,,,,,,,,,,,,,,,,,,,,,,,,,,,,,,,,,,,,,,,,,,,,,,,,,,,,,,,,,,,,,,,,,,,,,,,,,,,,,,,,,,,,,,,,,,,,,,,,,,,,,,,,,,,,
,,,,,,5bf483ac08dffa0001100c09,62bbf9b223cc2669efad1885,2022-06-29_08h14.46.653,Colour_Asymmetry_Pilot,2022.1.3,Win32,59.94844434,62bbe60bf3d75ef465d3e404,0,140,140,79,1,fourthree,,,,,,,,,,,,,,,,,,,,,,,,,,,,,,,,,,,,,,,,,,,,,,,,,,,,,,,,,,,,,,,,,,,,,,,,,,,,,,,,,,,,,,,,,,,,,,,,,,,,,,,,,,,,,,,,,,,,,,,,,,,,,,,,,,,,,,,,,,,,,,,,,,,,,,,,
,,,,,,5bf483ac08dffa0001100c09,62bbf9b223cc2669efad1885,2022-06-29_08h14.46.653,Colour_Asymmetry_Pilot,2022.1.3,Win32,59.94844434,62bbe60bf3d75ef465d3e404,0,141,141,121,1,onethree,,,,,,,,,,,,,,,,,,,,,,,,,,,,,,,,,,,,,,,,,,,,,,,,,,,,,,,,,,,,,,,,,,,,,,,,,,,,,,,,,,,,,,,,,,,,,,,,,,,,,,,,,,,,,,,,,,,,,,,,,,,,,,,,,,,,,,,,,,,,,,,,,,,,,,,,
,,,,,,5bf483ac08dffa0001100c09,62bbf9b223cc2669efad1885,2022-06-29_08h14.46.653,Colour_Asymmetry_Pilot,2022.1.3,Win32,59.94844434,62bbe60bf3d75ef465d3e404,0,142,142,34,1,twoone,,,,,,,,,,,,,,,,,,,,,,,,,,,,,,,,,,,,,,,,,,,,,,,,,,,,,,,,,,,,,,,,,,,,,,,,,,,,,,,,,,,,,,,,,,,,,,,,,,,,,,,,,,,,,,,,,,,,,,,,,,,,,,,,,,,,,,,,,,,,,,,,,,,,,,,,
,,,,,,5bf483ac08dffa0001100c09,62bbf9b223cc2669efad1885,2022-06-29_08h14.46.653,Colour_Asymmetry_Pilot,2022.1.3,Win32,59.94844434,62bbe60bf3d75ef465d3e404,0,143,143,28,1,threeone,,,,,,,,,,,,,,,,,,,,,,,,,,,,,,,,,,,,,,,,,,,,,,,,,,,,,,,,,,,,,,,,,,,,,,,,,,,,,,,,,,,,,,,,,,,,,,,,,,,,,,,,,,,,,,,,,,,,,,,,,,,,,,,,,,,,,,,,,,,,,,,,,,,,,,,,
,,,,,,5bf483ac08dffa0001100c09,62bbf9b223cc2669efad1885,2022-06-29_08h14.46.653,Colour_Asymmetry_Pilot,2022.1.3,Win32,59.94844434,62bbe60bf3d75ef465d3e404,0,144,144,116,1,threeone,,,,,,,,,,,,,,,,,,,,,,,,,,,,,,,,,,,,,,,,,,,,,,,,,,,,,,,,,,,,,,,,,,,,,,,,,,,,,,,,,,,,,,,,,,,,,,,,,,,,,,,,,,,,,,,,,,,,,,,,,,,,,,,,,,,,,,,,,,,,,,,,,,,,,,,,
,,,,,,5bf483ac08dffa0001100c09,62bbf9b223cc2669efad1885,2022-06-29_08h14.46.653,Colour_Asymmetry_Pilot,2022.1.3,Win32,59.94844434,62bbe60bf3d75ef465d3e404,0,145,145,42,1,twoone,,,,,,,,,,,,,,,,,,,,,,,,,,,,,,,,,,,,,,,,,,,,,,,,,,,,,,,,,,,,,,,,,,,,,,,,,,,,,,,,,,,,,,,,,,,,,,,,,,,,,,,,,,,,,,,,,,,,,,,,,,,,,,,,,,,,,,,,,,,,,,,,,,,,,,,,
,,,,,,5bf483ac08dffa0001100c09,62bbf9b223cc2669efad1885,2022-06-29_08h14.46.653,Colour_Asymmetry_Pilot,2022.1.3,Win32,59.94844434,62bbe60bf3d75ef465d3e404,0,146,146,80,1,onetwo,,,,,,,,,,,,,,,,,,,,,,,,,,,,,,,,,,,,,,,,,,,,,,,,,,,,,,,,,,,,,,,,,,,,,,,,,,,,,,,,,,,,,,,,,,,,,,,,,,,,,,,,,,,,,,,,,,,,,,,,,,,,,,,,,,,,,,,,,,,,,,,,,,,,,,,,
,,,,,,5bf483ac08dffa0001100c09,62bbf9b223cc2669efad1885,2022-06-29_08h14.46.653,Colour_Asymmetry_Pilot,2022.1.3,Win32,59.94844434,62bbe60bf3d75ef465d3e404,0,147,147,15,1,fourthree,,,,,,,,,,,,,,,,,,,,,,,,,,,,,,,,,,,,,,,,,,,,,,,,,,,,,,,,,,,,,,,,,,,,,,,,,,,,,,,,,,,,,,,,,,,,,,,,,,,,,,,,,,,,,,,,,,,,,,,,,,,,,,,,,,,,,,,,,,,,,,,,,,,,,,,,
,,,,,,5bf483ac08dffa0001100c09,62bbf9b223cc2669efad1885,2022-06-29_08h14.46.653,Colour_Asymmetry_Pilot,2022.1.3,Win32,59.94844434,62bbe60bf3d75ef465d3e404,0,148,148,35,1,twofour,,,,,,,,,,,,,,,,,,,,,,,,,,,,,,,,,,,,,,,,,,,,,,,,,,,,,,,,,,,,,,,,,,,,,,,,,,,,,,,,,,,,,,,,,,,,,,,,,,,,,,,,,,,,,,,,,,,,,,,,,,,,,,,,,,,,,,,,,,,,,,,,,,,,,,,,
,,,,,,5bf483ac08dffa0001100c09,62bbf9b223cc2669efad1885,2022-06-29_08h14.46.653,Colour_Asymmetry_Pilot,2022.1.3,Win32,59.94844434,62bbe60bf3d75ef465d3e404,0,149,149,52,1,threeone,,,,,,,,,,,,,,,,,,,,,,,,,,,,,,,,,,,,,,,,,,,,,,,,,,,,,,,,,,,,,,,,,,,,,,,,,,,,,,,,,,,,,,,,,,,,,,,,,,,,,,,,,,,,,,,,,,,,,,,,,,,,,,,,,,,,,,,,,,,,,,,,,,,,,,,,
,,,,,,5bf483ac08dffa0001100c09,62bbf9b223cc2669efad1885,2022-06-29_08h14.46.653,Colour_Asymmetry_Pilot,2022.1.3,Win32,59.94844434,62bbe60bf3d75ef465d3e404,0,150,150,93,1,threefour,,,,,,,,,,,,,,,,,,,,,,,,,,,,,,,,,,,,,,,,,,,,,,,,,,,,,,,,,,,,,,,,,,,,,,,,,,,,,,,,,,,,,,,,,,,,,,,,,,,,,,,,,,,,,,,,,,,,,,,,,,,,,,,,,,,,,,,,,,,,,,,,,,,,,,,,
,,,,,,5bf483ac08dffa0001100c09,62bbf9b223cc2669efad1885,2022-06-29_08h14.46.653,Colour_Asymmetry_Pilot,2022.1.3,Win32,59.94844434,62bbe60bf3d75ef465d3e404,0,151,151,24,1,onetwo,,,,,,,,,,,,,,,,,,,,,,,,,,,,,,,,,,,,,,,,,,,,,,,,,,,,,,,,,,,,,,,,,,,,,,,,,,,,,,,,,,,,,,,,,,,,,,,,,,,,,,,,,,,,,,,,,,,,,,,,,,,,,,,,,,,,,,,,,,,,,,,,,,,,,,,,
,,,,,,5bf483ac08dffa0001100c09,62bbf9b223cc2669efad1885,2022-06-29_08h14.46.653,Colour_Asymmetry_Pilot,2022.1.3,Win32,59.94844434,62bbe60bf3d75ef465d3e404,0,152,152,21,1,threefour,,,,,,,,,,,,,,,,,,,,,,,,,,,,,,,,,,,,,,,,,,,,,,,,,,,,,,,,,,,,,,,,,,,,,,,,,,,,,,,,,,,,,,,,,,,,,,,,,,,,,,,,,,,,,,,,,,,,,,,,,,,,,,,,,,,,,,,,,,,,,,,,,,,,,,,,
,,,,,,5bf483ac08dffa0001100c09,62bbf9b223cc2669efad1885,2022-06-29_08h14.46.653,Colour_Asymmetry_Pilot,2022.1.3,Win32,59.94844434,62bbe60bf3d75ef465d3e404,0,153,153,124,1,threeone,,,,,,,,,,,,,,,,,,,,,,,,,,,,,,,,,,,,,,,,,,,,,,,,,,,,,,,,,,,,,,,,,,,,,,,,,,,,,,,,,,,,,,,,,,,,,,,,,,,,,,,,,,,,,,,,,,,,,,,,,,,,,,,,,,,,,,,,,,,,,,,,,,,,,,,,
,,,,,,5bf483ac08dffa0001100c09,62bbf9b223cc2669efad1885,2022-06-29_08h14.46.653,Colour_Asymmetry_Pilot,2022.1.3,Win32,59.94844434,62bbe60bf3d75ef465d3e404,0,154,154,73,1,onethree,,,,,,,,,,,,,,,,,,,,,,,,,,,,,,,,,,,,,,,,,,,,,,,,,,,,,,,,,,,,,,,,,,,,,,,,,,,,,,,,,,,,,,,,,,,,,,,,,,,,,,,,,,,,,,,,,,,,,,,,,,,,,,,,,,,,,,,,,,,,,,,,,,,,,,,,
,,,,,,5bf483ac08dffa0001100c09,62bbf9b223cc2669efad1885,2022-06-29_08h14.46.653,Colour_Asymmetry_Pilot,2022.1.3,Win32,59.94844434,62bbe60bf3d75ef465d3e404,0,155,155,87,1,fourthree,,,,,,,,,,,,,,,,,,,,,,,,,,,,,,,,,,,,,,,,,,,,,,,,,,,,,,,,,,,,,,,,,,,,,,,,,,,,,,,,,,,,,,,,,,,,,,,,,,,,,,,,,,,,,,,,,,,,,,,,,,,,,,,,,,,,,,,,,,,,,,,,,,,,,,,,
,,,,,,5bf483ac08dffa0001100c09,62bbf9b223cc2669efad1885,2022-06-29_08h14.46.653,Colour_Asymmetry_Pilot,2022.1.3,Win32,59.94844434,62bbe60bf3d75ef465d3e404,0,156,156,74,1,twoone,,,,,,,,,,,,,,,,,,,,,,,,,,,,,,,,,,,,,,,,,,,,,,,,,,,,,,,,,,,,,,,,,,,,,,,,,,,,,,,,,,,,,,,,,,,,,,,,,,,,,,,,,,,,,,,,,,,,,,,,,,,,,,,,,,,,,,,,,,,,,,,,,,,,,,,,
,,,,,,5bf483ac08dffa0001100c09,62bbf9b223cc2669efad1885,2022-06-29_08h14.46.653,Colour_Asymmetry_Pilot,2022.1.3,Win32,59.94844434,62bbe60bf3d75ef465d3e404,0,157,157,62,1,fourtwo,,,,,,,,,,,,,,,,,,,,,,,,,,,,,,,,,,,,,,,,,,,,,,,,,,,,,,,,,,,,,,,,,,,,,,,,,,,,,,,,,,,,,,,,,,,,,,,,,,,,,,,,,,,,,,,,,,,,,,,,,,,,,,,,,,,,,,,,,,,,,,,,,,,,,,,,
,,,,,,5bf483ac08dffa0001100c09,62bbf9b223cc2669efad1885,2022-06-29_08h14.46.653,Colour_Asymmetry_Pilot,2022.1.3,Win32,59.94844434,62bbe60bf3d75ef465d3e404,0,158,158,6,1,fourtwo,,,,,,,,,,,,,,,,,,,,,,,,,,,,,,,,,,,,,,,,,,,,,,,,,,,,,,,,,,,,,,,,,,,,,,,,,,,,,,,,,,,,,,,,,,,,,,,,,,,,,,,,,,,,,,,,,,,,,,,,,,,,,,,,,,,,,,,,,,,,,,,,,,,,,,,,
,,,,,,5bf483ac08dffa0001100c09,62bbf9b223cc2669efad1885,2022-06-29_08h14.46.653,Colour_Asymmetry_Pilot,2022.1.3,Win32,59.94844434,62bbe60bf3d75ef465d3e404,0,159,159,12,1,threeone,,,,,,,,,,,,,,,,,,,,,,,,,,,,,,,,,,,,,,,,,,,,,,,,,,,,,,,,,,,,,,,,,,,,,,,,,,,,,,,,,,,,,,,,,,,,,,,,,,,,,,,,,,,,,,,,,,,,,,,,,,,,,,,,,,,,,,,,,,,,,,,,,,,,,,,,
,,,,,,5bf483ac08dffa0001100c09,62bbf9b223cc2669efad1885,2022-06-29_08h14.46.653,Colour_Asymmetry_Pilot,2022.1.3,Win32,59.94844434,62bbe60bf3d75ef465d3e404,0,160,160,100,1,threeone,,,,,,,,,,,,,,,,,,,,,,,,,,,,,,,,,,,,,,,,,,,,,,,,,,,,,,,,,,,,,,,,,,,,,,,,,,,,,,,,,,,,,,,,,,,,,,,,,,,,,,,,,,,,,,,,,,,,,,,,,,,,,,,,,,,,,,,,,,,,,,,,,,,,,,,,
,,,,,,5bf483ac08dffa0001100c09,62bbf9b223cc2669efad1885,2022-06-29_08h14.46.653,Colour_Asymmetry_Pilot,2022.1.3,Win32,59.94844434,62bbe60bf3d75ef465d3e404,0,161,161,10,1,twoone,,,,,,,,,,,,,,,,,,,,,,,,,,,,,,,,,,,,,,,,,,,,,,,,,,,,,,,,,,,,,,,,,,,,,,,,,,,,,,,,,,,,,,,,,,,,,,,,,,,,,,,,,,,,,,,,,,,,,,,,,,,,,,,,,,,,,,,,,,,,,,,,,,,,,,,,
,,,,,,5bf483ac08dffa0001100c09,62bbf9b223cc2669efad1885,2022-06-29_08h14.46.653,Colour_Asymmetry_Pilot,2022.1.3,Win32,59.94844434,62bbe60bf3d75ef465d3e404,,,,,,,space,4.344,space,58.0257,space,147.6557,space,41.6269,space,1.3146,space,4.0223,"[-0.48240000000000005,0.3175999999999999,0.2156]",twoone,"[0.796,0.2156,-0.27859999999999996]",-3,6.5573,-68.66662598,34.66665649,1,0,0,response7disk_5,2,8,1,0,0,rectangle_8,2,8,1,0,0,2,2,8,1,0,0,0,0,0,0,1,,,,,,,,,,,,,,,,,,,,,,,,,,,,,,,,,,,,,,,,,,,,,,,,,,,,,,,,,,,,,,,,,,,,,,,,,,,,,,,,,,,,,,,,,,,,,,,,,,,,,,,,,,,
,,,,,,5bf483ac08dffa0001100c09,62bbf9b223cc2669efad1885,2022-06-29_08h14.46.653,Colour_Asymmetry_Pilot,2022.1.3,Win32,59.94844434,62bbe60bf3d75ef465d3e404,,,,,,,,,,,,,,,,,,,"[-0.5922000000000001,-0.7492000000000001,-0.5296000000000001]",twofour,"[-0.2942,-0.7648,-0.7492000000000001]",3,2.6888,74,22.66665649,1,0,0,response1disk_5,0,1.333312988,1,0,0,rectangle_8,0,1.333312988,1,0,0,2,0,1.333312988,1,0,0,1,0,1,0,1,,,,,,,,,,,,,,,,,,,,,,,,,,,,,,,,,,,,,,,,,,,,,,,,,,,,,,,,,,,,,,,,,,,,,,,,,,,,,,,,,,,,,,,,,,,,,,,,,,,,,,,,,,,
,,,,,,5bf483ac08dffa0001100c09,62bbf9b223cc2669efad1885,2022-06-29_08h14.46.653,Colour_Asymmetry_Pilot,2022.1.3,Win32,59.94844434,62bbe60bf3d75ef465d3e404,,,,,,,,,,,,,,,,,,,"[0.9213999999999998,0.6391999999999998,-0.9922]",threefour,"[0.5449999999999999,-0.31000000000000005,-0.0354000000000001]",-3,4.5138,-58,14.66665649,1,0,0,response7disk_5,6,-6.666687012,1,0,0,rectangle_8,6,-6.666687012,1,0,0,2,6,-6.666687012,1,0,0,2,0,2,0,1,,,,,,,,,,,,,,,,,,,,,,,,,,,,,,,,,,,,,,,,,,,,,,,,,,,,,,,,,,,,,,,,,,,,,,,,,,,,,,,,,,,,,,,,,,,,,,,,,,,,,,,,,,,
,,,,,,5bf483ac08dffa0001100c09,62bbf9b223cc2669efad1885,2022-06-29_08h14.46.653,Colour_Asymmetry_Pilot,2022.1.3,Win32,59.94844434,62bbe60bf3d75ef465d3e404,,,,,,,,,,,,,,,,,,,"[-0.5922000000000001,-0.7492000000000001,-0.5296000000000001]",fourthree,"[-0.06680000000000008,-0.45100000000000007,-0.906]",2,1.6492,62.66668701,-40.66668701,1,0,0,response3disk_5,-6.666625977,1.333312988,1,0,0,rectangle_8,-6.666625977,1.333312988,1,0,0,2,-6.666625977,1.333312988,1,0,0,3,0,3,0,1,,,,,,,,,,,,,,,,,,,,,,,,,,,,,,,,,,,,,,,,,,,,,,,,,,,,,,,,,,,,,,,,,,,,,,,,,,,,,,,,,,,,,,,,,,,,,,,,,,,,,,,,,,,
,,,,,,5bf483ac08dffa0001100c09,62bbf9b223cc2669efad1885,2022-06-29_08h14.46.653,Colour_Asymmetry_Pilot,2022.1.3,Win32,59.94844434,62bbe60bf3d75ef465d3e404,,,,,,,,,,,,,,,,,,,"[0.18419999999999992,-0.4276,-0.404]",twofour,"[-0.09019999999999995,0.44300000000000006,0.5371999999999999]",-3,1.8325,-33.33331299,29.33331299,1,0,0,response7disk_5,3.333374023,-4,1,0,0,rectangle_8,3.333374023,-4,1,0,0,2,3.333374023,-4,1,0,0,4,0,4,0,1,,,,,,,,,,,,,,,,,,,,,,,,,,,,,,,,,,,,,,,,,,,,,,,,,,,,,,,,,,,,,,,,,,,,,,,,,,,,,,,,,,,,,,,,,,,,,,,,,,,,,,,,,,,
,,,,,,5bf483ac08dffa0001100c09,62bbf9b223cc2669efad1885,2022-06-29_08h14.46.653,Colour_Asymmetry_Pilot,2022.1.3,Win32,59.94844434,62bbe60bf3d75ef465d3e404,,,,,,,,,,,,,,,,,,,"[-0.38039999999999996,-0.4276,-0.1452]",threeone,"[-0.4746,-0.0354000000000001,0.5449999999999999]",3,1.6103,86,45.33331299,1,0,0,response1disk_5,-2.666625977,1.333312988,1,0,0,rectangle_8,71.33337402,-34.66668701,1,0,0,2,-1.333312988,2.666656494,1,0,0,5,0,5,0,1,response3disk_7,5,rectangle_4,,,,,,,,,,,,,,,,,,,,,,,,,,,,,,,,,,,,,,,,,,,,,,,,,,,,,,,,,,,,,,,,,,,,,,,,,,,,,,,,,,,,,,,,,,,,,,,,,,,,,,,,
,,,,,,5bf483ac08dffa0001100c09,62bbf9b223cc2669efad1885,2022-06-29_08h14.46.653,Colour_Asymmetry_Pilot,2022.1.3,Win32,59.94844434,62bbe60bf3d75ef465d3e404,,,,,,,,,,,,,,,,,,,"[-0.10599999999999998,-0.15300000000000002,0.15280000000000005]",threefour,"[0.9686000000000001,0.3802000000000001,0.19999999999999996]",1,1.4809,35.33337402,-64,1,0,0,response3disk_5,-0.666625977,2.666656494,1,0,0,rectangle_8,-0.666625977,2.666656494,1,0,0,2,-0.666625977,2.666656494,1,0,0,6,0,6,0,1,,,,,,,,,,,,,,,,,,,,,,,,,,,,,,,,,,,,,,,,,,,,,,,,,,,,,,,,,,,,,,,,,,,,,,,,,,,,,,,,,,,,,,,,,,,,,,,,,,,,,,,,,,,
,,,,,,5bf483ac08dffa0001100c09,62bbf9b223cc2669efad1885,2022-06-29_08h14.46.653,Colour_Asymmetry_Pilot,2022.1.3,Win32,59.94844434,62bbe60bf3d75ef465d3e404,,,,,,,,,,,,,,,,,,,,fourtwo,,4,1.1165,,,,,,,,,,,,,,,,,,,,,,,,,,,,,,,,space,3.5339,"[0.11359999999999992,0.6312,0.5213999999999999]","[0.11359999999999992,0.6312,0.5213999999999999]",38.66668701,68.66665649,1,0,0,response1disk,-2.666625977,-3.333343506,1,0,0,rectangle,40,-76.66668701,1,0,0,response3disk_3,1,1,2.5338,1,-0.666625977,-0.666687012,1,0,0,rectangle,0,0,0,161,1,80,second,,,,,,,,,,,,,,,,,,,,,,,,,,,,,,,,,,,,,,,,,,,,,,,,,,,,,,,,,,,,,,,,,
,,,,,,5bf483ac08dffa0001100c09,62bbf9b223cc2669efad1885,2022-06-29_08h14.46.653,Colour_Asymmetry_Pilot,2022.1.3,Win32,59.94844434,62bbe60bf3d75ef465d3e404,,,,,,,,,,,,,,,,,,,,fourtwo,,2,1.1108,,,,,,,,,,,,,,,,,,,,,,,,,,,,,,,,,,"[0.2784,-0.31000000000000005,-0.5452]","[0.9686000000000001,0.5763999999999998,0.11359999999999992]",60.66668701,-32.66668701,1,0,0,response3disk,6.666687012,0,1,0,0,rectangle,6.666687012,0,1,0,0,,1,1,0.0004,0,6.666687012,0,1,0,0,,0,1,1,108,1,27,second,,,,,,,,,,,,,,,,,,,,,,,,,,,,,,,,,,,,,,,,,,,,,,,,,,,,,,,,,,,,,,,,,
,,,,,,5bf483ac08dffa0001100c09,62bbf9b223cc2669efad1885,2022-06-29_08h14.46.653,Colour_Asymmetry_Pilot,2022.1.3,Win32,59.94844434,62bbe60bf3d75ef465d3e404,,,,,,,,,,,,,,,,,,,,twoone,,4,1.0687,,,,,,,,,,,,,,,,,,,,,,,,,,,,,,,,,,"[-0.9688,-0.4902000000000001,-0.12159999999999993]","[-0.9688,-0.4902000000000001,-0.12159999999999993]",36,75.33331299,1,0,0,response1disk,8,1.333312988,1,0,0,rectangle,8,1.333312988,1,0,0,,1,1,0.0002,0,8,1.333312988,1,0,0,,0,2,2,17,1,17,first,,,,,,,,,,,,,,,,,,,,,,,,,,,,,,,,,,,,,,,,,,,,,,,,,,,,,,,,,,,,,,,,,
,,,,,,5bf483ac08dffa0001100c09,62bbf9b223cc2669efad1885,2022-06-29_08h14.46.653,Colour_Asymmetry_Pilot,2022.1.3,Win32,59.94844434,62bbe60bf3d75ef465d3e404,,,,,,,,,,,,,,,,,,,,threefour,,-1,1.2325,,,,,,,,,,,,,,,,,,,,,,,,,,,,,,,,,,"[0.9842,0.7409999999999999,-0.6628000000000001]","[0.05879999999999996,0.2784,0.5841999999999998]",-34,-72,1,0,0,response5disk,-6.666625977,4,1,0,0,rectangle,82,40.66665649,1,0,0,response1disk_3,3,3,3.0312,1,-4.666625977,3.333312988,1,0,0,rectangle,0,3,3,104,1,23,second,,,,,,,,,,,,,,,,,,,,,,,,,,,,,,,,,,,,,,,,,,,,,,,,,,,,,,,,,,,,,,,,,
,,,,,,5bf483ac08dffa0001100c09,62bbf9b223cc2669efad1885,2022-06-29_08h14.46.653,Colour_Asymmetry_Pilot,2022.1.3,Win32,59.94844434,62bbe60bf3d75ef465d3e404,,,,,,,,,,,,,,,,,,,,twofour,,1,1.3552,,,,,,,,,,,,,,,,,,,,,,,,,,,,,,,,,,"[0.8274000000000001,-0.5844,-0.9452]","[0.40379999999999994,0.09000000000000008,0.44300000000000006]",54.66668701,-70.66668701,1,0,0,response3disk,13.33337402,-6.666687012,1,0,0,rectangle,13.33337402,-6.666687012,1,0,0,,3,2,0.0014,0,13.33337402,-6.666687012,1,0,0,,0,4,4,120,1,39,second,,,,,,,,,,,,,,,,,,,,,,,,,,,,,,,,,,,,,,,,,,,,,,,,,,,,,,,,,,,,,,,,,
,,,,,,5bf483ac08dffa0001100c09,62bbf9b223cc2669efad1885,2022-06-29_08h14.46.653,Colour_Asymmetry_Pilot,2022.1.3,Win32,59.94844434,62bbe60bf3d75ef465d3e404,,,,,,,,,,,,,,,,,,,,threefour,,2,84.0909,,,,,,,,,,,,,,,,,,,,,,,,,,,,,,,,,,"[-0.4902000000000001,0.2704,-0.45899999999999996]","[-0.4746,-0.0354000000000001,0.5449999999999999]",74.66668701,-15.33334351,1,0,0,response3disk,4,8.666656494,1,0,0,rectangle,4,8.666656494,1,0,0,,3,1,0.001,0,4,8.666656494,1,0,0,,0,5,5,133,1,52,second,,,,,,,,,,,,,,,,,,,,,,,,,,,,,,,,,,,,,,,,,,,,,,,,,,,,,,,,,,,,,,,,,
,,,,,,5bf483ac08dffa0001100c09,62bbf9b223cc2669efad1885,2022-06-29_08h14.46.653,Colour_Asymmetry_Pilot,2022.1.3,Win32,59.94844434,62bbe60bf3d75ef465d3e404,,,,,,,,,,,,,,,,,,,,threeone,,-1,1.7509,,,,,,,,,,,,,,,,,,,,,,,,,,,,,,,,,,"[0.6547999999999998,-0.043199999999999905,-0.011800000000000033]","[-0.0040000000000000036,0.02739999999999987,-0.08239999999999992]",-32.66662598,-86,1,0,0,response5disk,10,-2,1,0,0,rectangle,10,-2,1,0,0,,3,1,0.0009,0,10,-2,1,0,0,,0,6,6,157,1,76,second,,,,,,,,,,,,,,,,,,,,,,,,,,,,,,,,,,,,,,,,,,,,,,,,,,,,,,,,,,,,,,,,,
,,,,,,5bf483ac08dffa0001100c09,62bbf9b223cc2669efad1885,2022-06-29_08h14.46.653,Colour_Asymmetry_Pilot,2022.1.3,Win32,59.94844434,62bbe60bf3d75ef465d3e404,,,,,,,,,,,,,,,,,,,,onethree,,2,13.0564,,,,,,,,,,,,,,,,,,,,,,,,,,,,,,,,,,"[-0.24719999999999998,-0.0354000000000001,0.3175999999999999]","[0.09799999999999986,-0.24719999999999998,0.15280000000000005]",60.66668701,-40,1,0,0,response3disk,4.666687012,-2,1,0,0,rectangle,26,-70.66668701,1,0,0,response3disk_3,1,1,2.4652,1,4.666687012,-5.333343506,1,0,0,rectangle,0,7,7,97,1,16,second,,,,,,,,,,,,,,,,,,,,,,,,,,,,,,,,,,,,,,,,,,,,,,,,,,,,,,,,,,,,,,,,,
,,,,,,5bf483ac08dffa0001100c09,62bbf9b223cc2669efad1885,2022-06-29_08h14.46.653,Colour_Asymmetry_Pilot,2022.1.3,Win32,59.94844434,62bbe60bf3d75ef465d3e404,,,,,,,,,,,,,,,,,,,,fourthree,,-2,1.9821,,,,,,,,,,,,,,,,,,,,,,,,,,,,,,,,,,"[-0.38039999999999996,-0.4276,-0.1452]","[0.04299999999999993,0.16060000000000008,-0.6628000000000001]",-79.33331299,-58,1,0,0,response5disk,16.66668701,-4.666687012,1,0,0,rectangle,16.66668701,-4.666687012,1,0,0,,1,1,0.0008,0,16.66668701,-4.666687012,1,0,0,,0,8,8,14,1,14,first,,,,,,,,,,,,,,,,,,,,,,,,,,,,,,,,,,,,,,,,,,,,,,,,,,,,,,,,,,,,,,,,,
,,,,,,5bf483ac08dffa0001100c09,62bbf9b223cc2669efad1885,2022-06-29_08h14.46.653,Colour_Asymmetry_Pilot,2022.1.3,Win32,59.94844434,62bbe60bf3d75ef465d3e404,,,,,,,,,,,,,,,,,,,,threefour,,2,1.1331,,,,,,,,,,,,,,,,,,,,,,,,,,,,,,,,,,"[-0.5452,-0.608,0.2470000000000001]","[-0.9138,-0.5296000000000001,-0.5529999999999999]",70.66668701,-25.33334351,1,0,0,response3disk,26.66668701,-3.333343506,1,0,0,rectangle,26.66668701,-3.333343506,1,0,0,,1,1,0.0026,0,26.66668701,-3.333343506,1,0,0,,0,9,9,51,1,51,first,,,,,,,,,,,,,,,,,,,,,,,,,,,,,,,,,,,,,,,,,,,,,,,,,,,,,,,,,,,,,,,,,
,,,,,,5bf483ac08dffa0001100c09,62bbf9b223cc2669efad1885,2022-06-29_08h14.46.653,Colour_Asymmetry_Pilot,2022.1.3,Win32,59.94844434,62bbe60bf3d75ef465d3e404,,,,,,,,,,,,,,,,,,,,threeone,,-2,1.0156,,,,,,,,,,,,,,,,,,,,,,,,,,,,,,,,,,"[0.30180000000000007,-0.7884,-0.9844]","[0.6625999999999999,0.4980000000000002,-0.357]",-70.66662598,-32.66668701,1,0,0,response5disk,-22,-10,1,0,0,rectangle,-22,-10,1,0,0,,1,2,0.0018,0,-22,-10,1,0,0,,0,10,10,128,1,47,second,,,,,,,,,,,,,,,,,,,,,,,,,,,,,,,,,,,,,,,,,,,,,,,,,,,,,,,,,,,,,,,,,
,,,,,,5bf483ac08dffa0001100c09,62bbf9b223cc2669efad1885,2022-06-29_08h14.46.653,Colour_Asymmetry_Pilot,2022.1.3,Win32,59.94844434,62bbe60bf3d75ef465d3e404,,,,,,,,,,,,,,,,,,,,twofour,,4,0.7165,,,,,,,,,,,,,,,,,,,,,,,,,,,,,,,,,,"[-0.4902000000000001,0.2704,-0.45899999999999996]","[-0.4902000000000001,0.2704,-0.45899999999999996]",26,52,1,0,0,response1disk,-4.666625977,2,1,0,0,rectangle,-4.666625977,2,1,0,0,,1,1,0.0018,0,-4.666625977,2,1,0,0,,0,11,11,18,1,18,first,,,,,,,,,,,,,,,,,,,,,,,,,,,,,,,,,,,,,,,,,,,,,,,,,,,,,,,,,,,,,,,,,
,,,,,,5bf483ac08dffa0001100c09,62bbf9b223cc2669efad1885,2022-06-29_08h14.46.653,Colour_Asymmetry_Pilot,2022.1.3,Win32,59.94844434,62bbe60bf3d75ef465d3e404,,,,,,,,,,,,,,,,,,,,fourtwo,,3,2.0147,,,,,,,,,,,,,,,,,,,,,,,,,,,,,,,,,,"[-0.4276,0.0038000000000000256,-0.3256]","[-0.2942,-0.24719999999999998,-0.357]",86,29.33331299,1,0,0,response1disk,17.33337402,4,1,0,0,rectangle,17.33337402,4,1,0,0,,1,2,0.0017,0,17.33337402,4,1,0,0,,0,12,12,150,1,69,second,,,,,,,,,,,,,,,,,,,,,,,,,,,,,,,,,,,,,,,,,,,,,,,,,,,,,,,,,,,,,,,,,
,,,,,,5bf483ac08dffa0001100c09,62bbf9b223cc2669efad1885,2022-06-29_08h14.46.653,Colour_Asymmetry_Pilot,2022.1.3,Win32,59.94844434,62bbe60bf3d75ef465d3e404,,,,,,,,,,,,,,,,,,,,onethree,,-1,2.3209,,,,,,,,,,,,,,,,,,,,,,,,,,,,,,,,,,"[0.04299999999999993,0.16060000000000008,-0.6628000000000001]","[-0.8982,-0.37259999999999993,0.2784]",-53.33331299,-80.66668701,1,0,0,response5disk,-2,-10.66668701,1,0,0,rectangle,-2,-10.66668701,1,0,0,,1,1,0.001,0,-2,-10.66668701,1,0,0,,0,13,13,0,1,0,first,,,,,,,,,,,,,,,,,,,,,,,,,,,,,,,,,,,,,,,,,,,,,,,,,,,,,,,,,,,,,,,,,
,,,,,,5bf483ac08dffa0001100c09,62bbf9b223cc2669efad1885,2022-06-29_08h14.46.653,Colour_Asymmetry_Pilot,2022.1.3,Win32,59.94844434,62bbe60bf3d75ef465d3e404,,,,,,,,,,,,,,,,,,,,twofour,,-2,3.4821,,,,,,,,,,,,,,,,,,,,,,,,,,,,,,,,,,"[-0.2942,-0.7648,-0.7492000000000001]","[-0.4276,0.0038000000000000256,-0.3256]",-66,-38,1,0,0,response5disk,12,2.666656494,1,0,0,rectangle,12,2.666656494,1,0,0,,1,3,0.0014,0,12,2.666656494,1,0,0,,0,14,14,93,1,12,second,,,,,,,,,,,,,,,,,,,,,,,,,,,,,,,,,,,,,,,,,,,,,,,,,,,,,,,,,,,,,,,,,
,,,,,,5bf483ac08dffa0001100c09,62bbf9b223cc2669efad1885,2022-06-29_08h14.46.653,Colour_Asymmetry_Pilot,2022.1.3,Win32,59.94844434,62bbe60bf3d75ef465d3e404,,,,,,,,,,,,,,,,,,,,fourthree,,1,6.6616,,,,,,,,,,,,,,,,,,,,,,,,,,,,,,,,,,"[0.3881999999999999,-0.23939999999999995,-0.05040000000000011]","[-0.8982,-0.37259999999999993,0.2784]",40,-84,1,0,0,response3disk,-2.666625977,12,1,0,0,rectangle,-2.666625977,12,1,0,0,,1,3,0.0002,0,-2.666625977,12,1,0,0,,0,15,15,126,1,45,second,,,,,,,,,,,,,,,,,,,,,,,,,,,,,,,,,,,,,,,,,,,,,,,,,,,,,,,,,,,,,,,,,
,,,,,,5bf483ac08dffa0001100c09,62bbf9b223cc2669efad1885,2022-06-29_08h14.46.653,Colour_Asymmetry_Pilot,2022.1.3,Win32,59.94844434,62bbe60bf3d75ef465d3e404,,,,,,,,,,,,,,,,,,,,fourthree,,-3,1.1487,,,,,,,,,,,,,,,,,,,,,,,,,,,,,,,,,,"[-0.09019999999999995,0.44300000000000006,0.5371999999999999]","[0.7802,-0.23140000000000005,-0.20799999999999996]",-62.66662598,26.66665649,1,0,0,response7disk,5.333374023,-1.333343506,1,0,0,rectangle,5.333374023,-1.333343506,1,0,0,,1,3,0.0007,0,5.333374023,-1.333343506,1,0,0,,0,16,16,15,1,15,first,,,,,,,,,,,,,,,,,,,,,,,,,,,,,,,,,,,,,,,,,,,,,,,,,,,,,,,,,,,,,,,,,
,,,,,,5bf483ac08dffa0001100c09,62bbf9b223cc2669efad1885,2022-06-29_08h14.46.653,Colour_Asymmetry_Pilot,2022.1.3,Win32,59.94844434,62bbe60bf3d75ef465d3e404,,,,,,,,,,,,,,,,,,,,onetwo,,-2,0.8868,,,,,,,,,,,,,,,,,,,,,,,,,,,,,,,,,,"[0.6547999999999998,-0.043199999999999905,-0.011800000000000033]","[-0.8982,-0.37259999999999993,0.2784]",-68.66662598,-28.66668701,1,0,0,response5disk,-20,6,1,0,0,rectangle,-20,6,1,0,0,,1,2,0.0018,0,-20,6,1,0,0,,0,17,17,151,1,70,second,,,,,,,,,,,,,,,,,,,,,,,,,,,,,,,,,,,,,,,,,,,,,,,,,,,,,,,,,,,,,,,,,
