trials.thisRepN,trials.thisTrialN,trials.thisN,trials.thisIndex,trials.ran,Colourcodes,participant,session,date,expName,psychopyVersion,OS,frameRate,study_id,trials_4.thisRepN,trials_4.thisTrialN,trials_4.thisN,trials_4.thisIndex,trials_4.ran,StimulusPos,key_resp.keys,key_resp.rt,key_resp_2.keys,key_resp_2.rt,key_resp_15.keys,key_resp_15.rt,key_resp_17.keys,key_resp_17.rt,key_resp_9.keys,key_resp_9.rt,key_resp_10.keys,key_resp_10.rt,Circle1_col,Ecc,Circle2_col,similarity,response_time,mouse_5.x,mouse_5.y,mouse_5.leftButton,mouse_5.midButton,mouse_5.rightButton,mouse_5.clicked_name,mouse_10.x,mouse_10.y,mouse_10.leftButton,mouse_10.midButton,mouse_10.rightButton,mouse_10.clicked_name,mouse_7.x,mouse_7.y,mouse_7.leftButton,mouse_7.midButton,mouse_7.rightButton,catchnumberprac,mouse_6.x,mouse_6.y,mouse_6.leftButton,mouse_6.midButton,mouse_6.rightButton,duringprac.thisRepN,duringprac.thisTrialN,duringprac.thisN,duringprac.thisIndex,duringprac.ran,mouse_7.clicked_name,catchprac,mouse_6.clicked_name,key_resp_22.keys,key_resp_22.rt,Circle1_colour,Circle2_colour,mouse.x,mouse.y,mouse.leftButton,mouse.midButton,mouse.rightButton,mouse.clicked_name,mouse_2.x,mouse_2.y,mouse_2.leftButton,mouse_2.midButton,mouse_2.rightButton,mouse_2.clicked_name,mouse_3.x,mouse_3.y,mouse_3.leftButton,mouse_3.midButton,mouse_3.rightButton,catchresponse,catchnumber,response_time_catch,Catch,mouse_11.x,mouse_11.y,mouse_11.leftButton,mouse_11.midButton,mouse_11.rightButton,trials_2.thisRepN,trials_2.thisTrialN,trials_2.thisN,trials_2.thisIndex,trials_2.ran,Colourpair,Temporder,mouse_3.clicked_name,mouse_11.clicked_name,trials_3.thisRepN,trials_3.thisTrialN,trials_3.thisN,trials_3.thisIndex,trials_3.ran,key_resp_instr_Ishi.keys,key_resp_instr_Ishi.rt,Ishi_trial_keyresp.keys,Ishi_trial_keyresp.rt,Ishi_textbox.text,Ishi_loop.thisRepN,Ishi_loop.thisTrialN,Ishi_loop.thisN,Ishi_loop.thisIndex,Ishi_loop.ran,imageaddress,textbox.text,mouse_4.x,mouse_4.y,mouse_4.leftButton,mouse_4.midButton,mouse_4.rightButton,mouse_4.clicked_name,textbox_2.text,mouse_8.x,mouse_8.y,mouse_8.leftButton,mouse_8.midButton,mouse_8.rightButton,mouse_8.clicked_name,textbox_3.text,mouse_9.x,mouse_9.y,mouse_9.leftButton,mouse_9.midButton,mouse_9.rightButton,mouse_9.clicked_name,textbox_4.text,mouse_12.x,mouse_12.y,mouse_12.leftButton,mouse_12.midButton,mouse_12.rightButton,mouse_12.clicked_name,textbox_5.text,mouse_13.x,mouse_13.y,mouse_13.leftButton,mouse_13.midButton,mouse_13.rightButton,mouse_13.clicked_name,textbox_6.text,mouse_14.x,mouse_14.y,mouse_14.leftButton,mouse_14.midButton,mouse_14.rightButton,textbox_7.text,mouse_15.x,mouse_15.y,mouse_15.leftButton,mouse_15.midButton,mouse_15.rightButton,mouse_15.clicked_name
0,0,0,85,1,,5f82fd997dab234303560326,62bbfa1cb9fec65e60764b23,2022-06-29_10h07.34.672,Colour_Asymmetry_Pilot,2022.1.3,Win32,59.11912504,62bbe60bf3d75ef465d3e404,,,,,,,,,,,,,,,,,,,,,,,,,,,,,,,,,,,,,,,,,,,,,,,,,,,,,,,,,,,,,,,,,,,,,,,,,,,,,,,,,,,,,,,,,,,,,,,,,,,,,,,,,,,,,,,,,,,,,,,,,,,,,,,,,,,,,,,,,,,,,,,,,,,,,,,,,,,,,
0,1,1,92,1,,5f82fd997dab234303560326,62bbfa1cb9fec65e60764b23,2022-06-29_10h07.34.672,Colour_Asymmetry_Pilot,2022.1.3,Win32,59.11912504,62bbe60bf3d75ef465d3e404,,,,,,,,,,,,,,,,,,,,,,,,,,,,,,,,,,,,,,,,,,,,,,,,,,,,,,,,,,,,,,,,,,,,,,,,,,,,,,,,,,,,,,,,,,,,,,,,,,,,,,,,,,,,,,,,,,,,,,,,,,,,,,,,,,,,,,,,,,,,,,,,,,,,,,,,,,,,,
0,2,2,57,1,,5f82fd997dab234303560326,62bbfa1cb9fec65e60764b23,2022-06-29_10h07.34.672,Colour_Asymmetry_Pilot,2022.1.3,Win32,59.11912504,62bbe60bf3d75ef465d3e404,,,,,,,,,,,,,,,,,,,,,,,,,,,,,,,,,,,,,,,,,,,,,,,,,,,,,,,,,,,,,,,,,,,,,,,,,,,,,,,,,,,,,,,,,,,,,,,,,,,,,,,,,,,,,,,,,,,,,,,,,,,,,,,,,,,,,,,,,,,,,,,,,,,,,,,,,,,,,
0,3,3,16,1,,5f82fd997dab234303560326,62bbfa1cb9fec65e60764b23,2022-06-29_10h07.34.672,Colour_Asymmetry_Pilot,2022.1.3,Win32,59.11912504,62bbe60bf3d75ef465d3e404,,,,,,,,,,,,,,,,,,,,,,,,,,,,,,,,,,,,,,,,,,,,,,,,,,,,,,,,,,,,,,,,,,,,,,,,,,,,,,,,,,,,,,,,,,,,,,,,,,,,,,,,,,,,,,,,,,,,,,,,,,,,,,,,,,,,,,,,,,,,,,,,,,,,,,,,,,,,,
0,4,4,20,1,,5f82fd997dab234303560326,62bbfa1cb9fec65e60764b23,2022-06-29_10h07.34.672,Colour_Asymmetry_Pilot,2022.1.3,Win32,59.11912504,62bbe60bf3d75ef465d3e404,,,,,,,,,,,,,,,,,,,,,,,,,,,,,,,,,,,,,,,,,,,,,,,,,,,,,,,,,,,,,,,,,,,,,,,,,,,,,,,,,,,,,,,,,,,,,,,,,,,,,,,,,,,,,,,,,,,,,,,,,,,,,,,,,,,,,,,,,,,,,,,,,,,,,,,,,,,,,
0,5,5,4,1,,5f82fd997dab234303560326,62bbfa1cb9fec65e60764b23,2022-06-29_10h07.34.672,Colour_Asymmetry_Pilot,2022.1.3,Win32,59.11912504,62bbe60bf3d75ef465d3e404,,,,,,,,,,,,,,,,,,,,,,,,,,,,,,,,,,,,,,,,,,,,,,,,,,,,,,,,,,,,,,,,,,,,,,,,,,,,,,,,,,,,,,,,,,,,,,,,,,,,,,,,,,,,,,,,,,,,,,,,,,,,,,,,,,,,,,,,,,,,,,,,,,,,,,,,,,,,,
0,6,6,13,1,,5f82fd997dab234303560326,62bbfa1cb9fec65e60764b23,2022-06-29_10h07.34.672,Colour_Asymmetry_Pilot,2022.1.3,Win32,59.11912504,62bbe60bf3d75ef465d3e404,,,,,,,,,,,,,,,,,,,,,,,,,,,,,,,,,,,,,,,,,,,,,,,,,,,,,,,,,,,,,,,,,,,,,,,,,,,,,,,,,,,,,,,,,,,,,,,,,,,,,,,,,,,,,,,,,,,,,,,,,,,,,,,,,,,,,,,,,,,,,,,,,,,,,,,,,,,,,
0,7,7,9,1,,5f82fd997dab234303560326,62bbfa1cb9fec65e60764b23,2022-06-29_10h07.34.672,Colour_Asymmetry_Pilot,2022.1.3,Win32,59.11912504,62bbe60bf3d75ef465d3e404,,,,,,,,,,,,,,,,,,,,,,,,,,,,,,,,,,,,,,,,,,,,,,,,,,,,,,,,,,,,,,,,,,,,,,,,,,,,,,,,,,,,,,,,,,,,,,,,,,,,,,,,,,,,,,,,,,,,,,,,,,,,,,,,,,,,,,,,,,,,,,,,,,,,,,,,,,,,,
0,8,8,64,1,,5f82fd997dab234303560326,62bbfa1cb9fec65e60764b23,2022-06-29_10h07.34.672,Colour_Asymmetry_Pilot,2022.1.3,Win32,59.11912504,62bbe60bf3d75ef465d3e404,,,,,,,,,,,,,,,,,,,,,,,,,,,,,,,,,,,,,,,,,,,,,,,,,,,,,,,,,,,,,,,,,,,,,,,,,,,,,,,,,,,,,,,,,,,,,,,,,,,,,,,,,,,,,,,,,,,,,,,,,,,,,,,,,,,,,,,,,,,,,,,,,,,,,,,,,,,,,
0,9,9,55,1,,5f82fd997dab234303560326,62bbfa1cb9fec65e60764b23,2022-06-29_10h07.34.672,Colour_Asymmetry_Pilot,2022.1.3,Win32,59.11912504,62bbe60bf3d75ef465d3e404,,,,,,,,,,,,,,,,,,,,,,,,,,,,,,,,,,,,,,,,,,,,,,,,,,,,,,,,,,,,,,,,,,,,,,,,,,,,,,,,,,,,,,,,,,,,,,,,,,,,,,,,,,,,,,,,,,,,,,,,,,,,,,,,,,,,,,,,,,,,,,,,,,,,,,,,,,,,,
0,10,10,56,1,,5f82fd997dab234303560326,62bbfa1cb9fec65e60764b23,2022-06-29_10h07.34.672,Colour_Asymmetry_Pilot,2022.1.3,Win32,59.11912504,62bbe60bf3d75ef465d3e404,,,,,,,,,,,,,,,,,,,,,,,,,,,,,,,,,,,,,,,,,,,,,,,,,,,,,,,,,,,,,,,,,,,,,,,,,,,,,,,,,,,,,,,,,,,,,,,,,,,,,,,,,,,,,,,,,,,,,,,,,,,,,,,,,,,,,,,,,,,,,,,,,,,,,,,,,,,,,
0,11,11,39,1,,5f82fd997dab234303560326,62bbfa1cb9fec65e60764b23,2022-06-29_10h07.34.672,Colour_Asymmetry_Pilot,2022.1.3,Win32,59.11912504,62bbe60bf3d75ef465d3e404,,,,,,,,,,,,,,,,,,,,,,,,,,,,,,,,,,,,,,,,,,,,,,,,,,,,,,,,,,,,,,,,,,,,,,,,,,,,,,,,,,,,,,,,,,,,,,,,,,,,,,,,,,,,,,,,,,,,,,,,,,,,,,,,,,,,,,,,,,,,,,,,,,,,,,,,,,,,,
0,12,12,35,1,,5f82fd997dab234303560326,62bbfa1cb9fec65e60764b23,2022-06-29_10h07.34.672,Colour_Asymmetry_Pilot,2022.1.3,Win32,59.11912504,62bbe60bf3d75ef465d3e404,,,,,,,,,,,,,,,,,,,,,,,,,,,,,,,,,,,,,,,,,,,,,,,,,,,,,,,,,,,,,,,,,,,,,,,,,,,,,,,,,,,,,,,,,,,,,,,,,,,,,,,,,,,,,,,,,,,,,,,,,,,,,,,,,,,,,,,,,,,,,,,,,,,,,,,,,,,,,
0,13,13,81,1,,5f82fd997dab234303560326,62bbfa1cb9fec65e60764b23,2022-06-29_10h07.34.672,Colour_Asymmetry_Pilot,2022.1.3,Win32,59.11912504,62bbe60bf3d75ef465d3e404,,,,,,,,,,,,,,,,,,,,,,,,,,,,,,,,,,,,,,,,,,,,,,,,,,,,,,,,,,,,,,,,,,,,,,,,,,,,,,,,,,,,,,,,,,,,,,,,,,,,,,,,,,,,,,,,,,,,,,,,,,,,,,,,,,,,,,,,,,,,,,,,,,,,,,,,,,,,,
0,14,14,5,1,,5f82fd997dab234303560326,62bbfa1cb9fec65e60764b23,2022-06-29_10h07.34.672,Colour_Asymmetry_Pilot,2022.1.3,Win32,59.11912504,62bbe60bf3d75ef465d3e404,,,,,,,,,,,,,,,,,,,,,,,,,,,,,,,,,,,,,,,,,,,,,,,,,,,,,,,,,,,,,,,,,,,,,,,,,,,,,,,,,,,,,,,,,,,,,,,,,,,,,,,,,,,,,,,,,,,,,,,,,,,,,,,,,,,,,,,,,,,,,,,,,,,,,,,,,,,,,
0,15,15,22,1,,5f82fd997dab234303560326,62bbfa1cb9fec65e60764b23,2022-06-29_10h07.34.672,Colour_Asymmetry_Pilot,2022.1.3,Win32,59.11912504,62bbe60bf3d75ef465d3e404,,,,,,,,,,,,,,,,,,,,,,,,,,,,,,,,,,,,,,,,,,,,,,,,,,,,,,,,,,,,,,,,,,,,,,,,,,,,,,,,,,,,,,,,,,,,,,,,,,,,,,,,,,,,,,,,,,,,,,,,,,,,,,,,,,,,,,,,,,,,,,,,,,,,,,,,,,,,,
0,16,16,53,1,,5f82fd997dab234303560326,62bbfa1cb9fec65e60764b23,2022-06-29_10h07.34.672,Colour_Asymmetry_Pilot,2022.1.3,Win32,59.11912504,62bbe60bf3d75ef465d3e404,,,,,,,,,,,,,,,,,,,,,,,,,,,,,,,,,,,,,,,,,,,,,,,,,,,,,,,,,,,,,,,,,,,,,,,,,,,,,,,,,,,,,,,,,,,,,,,,,,,,,,,,,,,,,,,,,,,,,,,,,,,,,,,,,,,,,,,,,,,,,,,,,,,,,,,,,,,,,
0,17,17,77,1,,5f82fd997dab234303560326,62bbfa1cb9fec65e60764b23,2022-06-29_10h07.34.672,Colour_Asymmetry_Pilot,2022.1.3,Win32,59.11912504,62bbe60bf3d75ef465d3e404,,,,,,,,,,,,,,,,,,,,,,,,,,,,,,,,,,,,,,,,,,,,,,,,,,,,,,,,,,,,,,,,,,,,,,,,,,,,,,,,,,,,,,,,,,,,,,,,,,,,,,,,,,,,,,,,,,,,,,,,,,,,,,,,,,,,,,,,,,,,,,,,,,,,,,,,,,,,,
0,18,18,6,1,,5f82fd997dab234303560326,62bbfa1cb9fec65e60764b23,2022-06-29_10h07.34.672,Colour_Asymmetry_Pilot,2022.1.3,Win32,59.11912504,62bbe60bf3d75ef465d3e404,,,,,,,,,,,,,,,,,,,,,,,,,,,,,,,,,,,,,,,,,,,,,,,,,,,,,,,,,,,,,,,,,,,,,,,,,,,,,,,,,,,,,,,,,,,,,,,,,,,,,,,,,,,,,,,,,,,,,,,,,,,,,,,,,,,,,,,,,,,,,,,,,,,,,,,,,,,,,
0,19,19,50,1,,5f82fd997dab234303560326,62bbfa1cb9fec65e60764b23,2022-06-29_10h07.34.672,Colour_Asymmetry_Pilot,2022.1.3,Win32,59.11912504,62bbe60bf3d75ef465d3e404,,,,,,,,,,,,,,,,,,,,,,,,,,,,,,,,,,,,,,,,,,,,,,,,,,,,,,,,,,,,,,,,,,,,,,,,,,,,,,,,,,,,,,,,,,,,,,,,,,,,,,,,,,,,,,,,,,,,,,,,,,,,,,,,,,,,,,,,,,,,,,,,,,,,,,,,,,,,,
0,20,20,48,1,,5f82fd997dab234303560326,62bbfa1cb9fec65e60764b23,2022-06-29_10h07.34.672,Colour_Asymmetry_Pilot,2022.1.3,Win32,59.11912504,62bbe60bf3d75ef465d3e404,,,,,,,,,,,,,,,,,,,,,,,,,,,,,,,,,,,,,,,,,,,,,,,,,,,,,,,,,,,,,,,,,,,,,,,,,,,,,,,,,,,,,,,,,,,,,,,,,,,,,,,,,,,,,,,,,,,,,,,,,,,,,,,,,,,,,,,,,,,,,,,,,,,,,,,,,,,,,
0,21,21,68,1,,5f82fd997dab234303560326,62bbfa1cb9fec65e60764b23,2022-06-29_10h07.34.672,Colour_Asymmetry_Pilot,2022.1.3,Win32,59.11912504,62bbe60bf3d75ef465d3e404,,,,,,,,,,,,,,,,,,,,,,,,,,,,,,,,,,,,,,,,,,,,,,,,,,,,,,,,,,,,,,,,,,,,,,,,,,,,,,,,,,,,,,,,,,,,,,,,,,,,,,,,,,,,,,,,,,,,,,,,,,,,,,,,,,,,,,,,,,,,,,,,,,,,,,,,,,,,,
0,22,22,62,1,,5f82fd997dab234303560326,62bbfa1cb9fec65e60764b23,2022-06-29_10h07.34.672,Colour_Asymmetry_Pilot,2022.1.3,Win32,59.11912504,62bbe60bf3d75ef465d3e404,,,,,,,,,,,,,,,,,,,,,,,,,,,,,,,,,,,,,,,,,,,,,,,,,,,,,,,,,,,,,,,,,,,,,,,,,,,,,,,,,,,,,,,,,,,,,,,,,,,,,,,,,,,,,,,,,,,,,,,,,,,,,,,,,,,,,,,,,,,,,,,,,,,,,,,,,,,,,
0,23,23,42,1,,5f82fd997dab234303560326,62bbfa1cb9fec65e60764b23,2022-06-29_10h07.34.672,Colour_Asymmetry_Pilot,2022.1.3,Win32,59.11912504,62bbe60bf3d75ef465d3e404,,,,,,,,,,,,,,,,,,,,,,,,,,,,,,,,,,,,,,,,,,,,,,,,,,,,,,,,,,,,,,,,,,,,,,,,,,,,,,,,,,,,,,,,,,,,,,,,,,,,,,,,,,,,,,,,,,,,,,,,,,,,,,,,,,,,,,,,,,,,,,,,,,,,,,,,,,,,,
0,24,24,49,1,,5f82fd997dab234303560326,62bbfa1cb9fec65e60764b23,2022-06-29_10h07.34.672,Colour_Asymmetry_Pilot,2022.1.3,Win32,59.11912504,62bbe60bf3d75ef465d3e404,,,,,,,,,,,,,,,,,,,,,,,,,,,,,,,,,,,,,,,,,,,,,,,,,,,,,,,,,,,,,,,,,,,,,,,,,,,,,,,,,,,,,,,,,,,,,,,,,,,,,,,,,,,,,,,,,,,,,,,,,,,,,,,,,,,,,,,,,,,,,,,,,,,,,,,,,,,,,
0,25,25,58,1,,5f82fd997dab234303560326,62bbfa1cb9fec65e60764b23,2022-06-29_10h07.34.672,Colour_Asymmetry_Pilot,2022.1.3,Win32,59.11912504,62bbe60bf3d75ef465d3e404,,,,,,,,,,,,,,,,,,,,,,,,,,,,,,,,,,,,,,,,,,,,,,,,,,,,,,,,,,,,,,,,,,,,,,,,,,,,,,,,,,,,,,,,,,,,,,,,,,,,,,,,,,,,,,,,,,,,,,,,,,,,,,,,,,,,,,,,,,,,,,,,,,,,,,,,,,,,,
0,26,26,82,1,,5f82fd997dab234303560326,62bbfa1cb9fec65e60764b23,2022-06-29_10h07.34.672,Colour_Asymmetry_Pilot,2022.1.3,Win32,59.11912504,62bbe60bf3d75ef465d3e404,,,,,,,,,,,,,,,,,,,,,,,,,,,,,,,,,,,,,,,,,,,,,,,,,,,,,,,,,,,,,,,,,,,,,,,,,,,,,,,,,,,,,,,,,,,,,,,,,,,,,,,,,,,,,,,,,,,,,,,,,,,,,,,,,,,,,,,,,,,,,,,,,,,,,,,,,,,,,
0,27,27,69,1,,5f82fd997dab234303560326,62bbfa1cb9fec65e60764b23,2022-06-29_10h07.34.672,Colour_Asymmetry_Pilot,2022.1.3,Win32,59.11912504,62bbe60bf3d75ef465d3e404,,,,,,,,,,,,,,,,,,,,,,,,,,,,,,,,,,,,,,,,,,,,,,,,,,,,,,,,,,,,,,,,,,,,,,,,,,,,,,,,,,,,,,,,,,,,,,,,,,,,,,,,,,,,,,,,,,,,,,,,,,,,,,,,,,,,,,,,,,,,,,,,,,,,,,,,,,,,,
0,28,28,59,1,,5f82fd997dab234303560326,62bbfa1cb9fec65e60764b23,2022-06-29_10h07.34.672,Colour_Asymmetry_Pilot,2022.1.3,Win32,59.11912504,62bbe60bf3d75ef465d3e404,,,,,,,,,,,,,,,,,,,,,,,,,,,,,,,,,,,,,,,,,,,,,,,,,,,,,,,,,,,,,,,,,,,,,,,,,,,,,,,,,,,,,,,,,,,,,,,,,,,,,,,,,,,,,,,,,,,,,,,,,,,,,,,,,,,,,,,,,,,,,,,,,,,,,,,,,,,,,
0,29,29,32,1,,5f82fd997dab234303560326,62bbfa1cb9fec65e60764b23,2022-06-29_10h07.34.672,Colour_Asymmetry_Pilot,2022.1.3,Win32,59.11912504,62bbe60bf3d75ef465d3e404,,,,,,,,,,,,,,,,,,,,,,,,,,,,,,,,,,,,,,,,,,,,,,,,,,,,,,,,,,,,,,,,,,,,,,,,,,,,,,,,,,,,,,,,,,,,,,,,,,,,,,,,,,,,,,,,,,,,,,,,,,,,,,,,,,,,,,,,,,,,,,,,,,,,,,,,,,,,,
0,30,30,67,1,,5f82fd997dab234303560326,62bbfa1cb9fec65e60764b23,2022-06-29_10h07.34.672,Colour_Asymmetry_Pilot,2022.1.3,Win32,59.11912504,62bbe60bf3d75ef465d3e404,,,,,,,,,,,,,,,,,,,,,,,,,,,,,,,,,,,,,,,,,,,,,,,,,,,,,,,,,,,,,,,,,,,,,,,,,,,,,,,,,,,,,,,,,,,,,,,,,,,,,,,,,,,,,,,,,,,,,,,,,,,,,,,,,,,,,,,,,,,,,,,,,,,,,,,,,,,,,
0,31,31,8,1,,5f82fd997dab234303560326,62bbfa1cb9fec65e60764b23,2022-06-29_10h07.34.672,Colour_Asymmetry_Pilot,2022.1.3,Win32,59.11912504,62bbe60bf3d75ef465d3e404,,,,,,,,,,,,,,,,,,,,,,,,,,,,,,,,,,,,,,,,,,,,,,,,,,,,,,,,,,,,,,,,,,,,,,,,,,,,,,,,,,,,,,,,,,,,,,,,,,,,,,,,,,,,,,,,,,,,,,,,,,,,,,,,,,,,,,,,,,,,,,,,,,,,,,,,,,,,,
0,32,32,40,1,,5f82fd997dab234303560326,62bbfa1cb9fec65e60764b23,2022-06-29_10h07.34.672,Colour_Asymmetry_Pilot,2022.1.3,Win32,59.11912504,62bbe60bf3d75ef465d3e404,,,,,,,,,,,,,,,,,,,,,,,,,,,,,,,,,,,,,,,,,,,,,,,,,,,,,,,,,,,,,,,,,,,,,,,,,,,,,,,,,,,,,,,,,,,,,,,,,,,,,,,,,,,,,,,,,,,,,,,,,,,,,,,,,,,,,,,,,,,,,,,,,,,,,,,,,,,,,
0,33,33,60,1,,5f82fd997dab234303560326,62bbfa1cb9fec65e60764b23,2022-06-29_10h07.34.672,Colour_Asymmetry_Pilot,2022.1.3,Win32,59.11912504,62bbe60bf3d75ef465d3e404,,,,,,,,,,,,,,,,,,,,,,,,,,,,,,,,,,,,,,,,,,,,,,,,,,,,,,,,,,,,,,,,,,,,,,,,,,,,,,,,,,,,,,,,,,,,,,,,,,,,,,,,,,,,,,,,,,,,,,,,,,,,,,,,,,,,,,,,,,,,,,,,,,,,,,,,,,,,,
0,34,34,86,1,,5f82fd997dab234303560326,62bbfa1cb9fec65e60764b23,2022-06-29_10h07.34.672,Colour_Asymmetry_Pilot,2022.1.3,Win32,59.11912504,62bbe60bf3d75ef465d3e404,,,,,,,,,,,,,,,,,,,,,,,,,,,,,,,,,,,,,,,,,,,,,,,,,,,,,,,,,,,,,,,,,,,,,,,,,,,,,,,,,,,,,,,,,,,,,,,,,,,,,,,,,,,,,,,,,,,,,,,,,,,,,,,,,,,,,,,,,,,,,,,,,,,,,,,,,,,,,
0,35,35,36,1,,5f82fd997dab234303560326,62bbfa1cb9fec65e60764b23,2022-06-29_10h07.34.672,Colour_Asymmetry_Pilot,2022.1.3,Win32,59.11912504,62bbe60bf3d75ef465d3e404,,,,,,,,,,,,,,,,,,,,,,,,,,,,,,,,,,,,,,,,,,,,,,,,,,,,,,,,,,,,,,,,,,,,,,,,,,,,,,,,,,,,,,,,,,,,,,,,,,,,,,,,,,,,,,,,,,,,,,,,,,,,,,,,,,,,,,,,,,,,,,,,,,,,,,,,,,,,,
0,36,36,21,1,,5f82fd997dab234303560326,62bbfa1cb9fec65e60764b23,2022-06-29_10h07.34.672,Colour_Asymmetry_Pilot,2022.1.3,Win32,59.11912504,62bbe60bf3d75ef465d3e404,,,,,,,,,,,,,,,,,,,,,,,,,,,,,,,,,,,,,,,,,,,,,,,,,,,,,,,,,,,,,,,,,,,,,,,,,,,,,,,,,,,,,,,,,,,,,,,,,,,,,,,,,,,,,,,,,,,,,,,,,,,,,,,,,,,,,,,,,,,,,,,,,,,,,,,,,,,,,
0,37,37,37,1,,5f82fd997dab234303560326,62bbfa1cb9fec65e60764b23,2022-06-29_10h07.34.672,Colour_Asymmetry_Pilot,2022.1.3,Win32,59.11912504,62bbe60bf3d75ef465d3e404,,,,,,,,,,,,,,,,,,,,,,,,,,,,,,,,,,,,,,,,,,,,,,,,,,,,,,,,,,,,,,,,,,,,,,,,,,,,,,,,,,,,,,,,,,,,,,,,,,,,,,,,,,,,,,,,,,,,,,,,,,,,,,,,,,,,,,,,,,,,,,,,,,,,,,,,,,,,,
0,38,38,19,1,,5f82fd997dab234303560326,62bbfa1cb9fec65e60764b23,2022-06-29_10h07.34.672,Colour_Asymmetry_Pilot,2022.1.3,Win32,59.11912504,62bbe60bf3d75ef465d3e404,,,,,,,,,,,,,,,,,,,,,,,,,,,,,,,,,,,,,,,,,,,,,,,,,,,,,,,,,,,,,,,,,,,,,,,,,,,,,,,,,,,,,,,,,,,,,,,,,,,,,,,,,,,,,,,,,,,,,,,,,,,,,,,,,,,,,,,,,,,,,,,,,,,,,,,,,,,,,
0,39,39,30,1,,5f82fd997dab234303560326,62bbfa1cb9fec65e60764b23,2022-06-29_10h07.34.672,Colour_Asymmetry_Pilot,2022.1.3,Win32,59.11912504,62bbe60bf3d75ef465d3e404,,,,,,,,,,,,,,,,,,,,,,,,,,,,,,,,,,,,,,,,,,,,,,,,,,,,,,,,,,,,,,,,,,,,,,,,,,,,,,,,,,,,,,,,,,,,,,,,,,,,,,,,,,,,,,,,,,,,,,,,,,,,,,,,,,,,,,,,,,,,,,,,,,,,,,,,,,,,,
0,40,40,66,1,,5f82fd997dab234303560326,62bbfa1cb9fec65e60764b23,2022-06-29_10h07.34.672,Colour_Asymmetry_Pilot,2022.1.3,Win32,59.11912504,62bbe60bf3d75ef465d3e404,,,,,,,,,,,,,,,,,,,,,,,,,,,,,,,,,,,,,,,,,,,,,,,,,,,,,,,,,,,,,,,,,,,,,,,,,,,,,,,,,,,,,,,,,,,,,,,,,,,,,,,,,,,,,,,,,,,,,,,,,,,,,,,,,,,,,,,,,,,,,,,,,,,,,,,,,,,,,
0,41,41,44,1,,5f82fd997dab234303560326,62bbfa1cb9fec65e60764b23,2022-06-29_10h07.34.672,Colour_Asymmetry_Pilot,2022.1.3,Win32,59.11912504,62bbe60bf3d75ef465d3e404,,,,,,,,,,,,,,,,,,,,,,,,,,,,,,,,,,,,,,,,,,,,,,,,,,,,,,,,,,,,,,,,,,,,,,,,,,,,,,,,,,,,,,,,,,,,,,,,,,,,,,,,,,,,,,,,,,,,,,,,,,,,,,,,,,,,,,,,,,,,,,,,,,,,,,,,,,,,,
0,42,42,76,1,,5f82fd997dab234303560326,62bbfa1cb9fec65e60764b23,2022-06-29_10h07.34.672,Colour_Asymmetry_Pilot,2022.1.3,Win32,59.11912504,62bbe60bf3d75ef465d3e404,,,,,,,,,,,,,,,,,,,,,,,,,,,,,,,,,,,,,,,,,,,,,,,,,,,,,,,,,,,,,,,,,,,,,,,,,,,,,,,,,,,,,,,,,,,,,,,,,,,,,,,,,,,,,,,,,,,,,,,,,,,,,,,,,,,,,,,,,,,,,,,,,,,,,,,,,,,,,
0,43,43,33,1,,5f82fd997dab234303560326,62bbfa1cb9fec65e60764b23,2022-06-29_10h07.34.672,Colour_Asymmetry_Pilot,2022.1.3,Win32,59.11912504,62bbe60bf3d75ef465d3e404,,,,,,,,,,,,,,,,,,,,,,,,,,,,,,,,,,,,,,,,,,,,,,,,,,,,,,,,,,,,,,,,,,,,,,,,,,,,,,,,,,,,,,,,,,,,,,,,,,,,,,,,,,,,,,,,,,,,,,,,,,,,,,,,,,,,,,,,,,,,,,,,,,,,,,,,,,,,,
0,44,44,75,1,,5f82fd997dab234303560326,62bbfa1cb9fec65e60764b23,2022-06-29_10h07.34.672,Colour_Asymmetry_Pilot,2022.1.3,Win32,59.11912504,62bbe60bf3d75ef465d3e404,,,,,,,,,,,,,,,,,,,,,,,,,,,,,,,,,,,,,,,,,,,,,,,,,,,,,,,,,,,,,,,,,,,,,,,,,,,,,,,,,,,,,,,,,,,,,,,,,,,,,,,,,,,,,,,,,,,,,,,,,,,,,,,,,,,,,,,,,,,,,,,,,,,,,,,,,,,,,
0,45,45,89,1,,5f82fd997dab234303560326,62bbfa1cb9fec65e60764b23,2022-06-29_10h07.34.672,Colour_Asymmetry_Pilot,2022.1.3,Win32,59.11912504,62bbe60bf3d75ef465d3e404,,,,,,,,,,,,,,,,,,,,,,,,,,,,,,,,,,,,,,,,,,,,,,,,,,,,,,,,,,,,,,,,,,,,,,,,,,,,,,,,,,,,,,,,,,,,,,,,,,,,,,,,,,,,,,,,,,,,,,,,,,,,,,,,,,,,,,,,,,,,,,,,,,,,,,,,,,,,,
0,46,46,10,1,,5f82fd997dab234303560326,62bbfa1cb9fec65e60764b23,2022-06-29_10h07.34.672,Colour_Asymmetry_Pilot,2022.1.3,Win32,59.11912504,62bbe60bf3d75ef465d3e404,,,,,,,,,,,,,,,,,,,,,,,,,,,,,,,,,,,,,,,,,,,,,,,,,,,,,,,,,,,,,,,,,,,,,,,,,,,,,,,,,,,,,,,,,,,,,,,,,,,,,,,,,,,,,,,,,,,,,,,,,,,,,,,,,,,,,,,,,,,,,,,,,,,,,,,,,,,,,
0,47,47,12,1,,5f82fd997dab234303560326,62bbfa1cb9fec65e60764b23,2022-06-29_10h07.34.672,Colour_Asymmetry_Pilot,2022.1.3,Win32,59.11912504,62bbe60bf3d75ef465d3e404,,,,,,,,,,,,,,,,,,,,,,,,,,,,,,,,,,,,,,,,,,,,,,,,,,,,,,,,,,,,,,,,,,,,,,,,,,,,,,,,,,,,,,,,,,,,,,,,,,,,,,,,,,,,,,,,,,,,,,,,,,,,,,,,,,,,,,,,,,,,,,,,,,,,,,,,,,,,,
0,48,48,15,1,,5f82fd997dab234303560326,62bbfa1cb9fec65e60764b23,2022-06-29_10h07.34.672,Colour_Asymmetry_Pilot,2022.1.3,Win32,59.11912504,62bbe60bf3d75ef465d3e404,,,,,,,,,,,,,,,,,,,,,,,,,,,,,,,,,,,,,,,,,,,,,,,,,,,,,,,,,,,,,,,,,,,,,,,,,,,,,,,,,,,,,,,,,,,,,,,,,,,,,,,,,,,,,,,,,,,,,,,,,,,,,,,,,,,,,,,,,,,,,,,,,,,,,,,,,,,,,
0,49,49,26,1,,5f82fd997dab234303560326,62bbfa1cb9fec65e60764b23,2022-06-29_10h07.34.672,Colour_Asymmetry_Pilot,2022.1.3,Win32,59.11912504,62bbe60bf3d75ef465d3e404,,,,,,,,,,,,,,,,,,,,,,,,,,,,,,,,,,,,,,,,,,,,,,,,,,,,,,,,,,,,,,,,,,,,,,,,,,,,,,,,,,,,,,,,,,,,,,,,,,,,,,,,,,,,,,,,,,,,,,,,,,,,,,,,,,,,,,,,,,,,,,,,,,,,,,,,,,,,,
0,50,50,24,1,,5f82fd997dab234303560326,62bbfa1cb9fec65e60764b23,2022-06-29_10h07.34.672,Colour_Asymmetry_Pilot,2022.1.3,Win32,59.11912504,62bbe60bf3d75ef465d3e404,,,,,,,,,,,,,,,,,,,,,,,,,,,,,,,,,,,,,,,,,,,,,,,,,,,,,,,,,,,,,,,,,,,,,,,,,,,,,,,,,,,,,,,,,,,,,,,,,,,,,,,,,,,,,,,,,,,,,,,,,,,,,,,,,,,,,,,,,,,,,,,,,,,,,,,,,,,,,
0,51,51,2,1,,5f82fd997dab234303560326,62bbfa1cb9fec65e60764b23,2022-06-29_10h07.34.672,Colour_Asymmetry_Pilot,2022.1.3,Win32,59.11912504,62bbe60bf3d75ef465d3e404,,,,,,,,,,,,,,,,,,,,,,,,,,,,,,,,,,,,,,,,,,,,,,,,,,,,,,,,,,,,,,,,,,,,,,,,,,,,,,,,,,,,,,,,,,,,,,,,,,,,,,,,,,,,,,,,,,,,,,,,,,,,,,,,,,,,,,,,,,,,,,,,,,,,,,,,,,,,,
0,52,52,29,1,,5f82fd997dab234303560326,62bbfa1cb9fec65e60764b23,2022-06-29_10h07.34.672,Colour_Asymmetry_Pilot,2022.1.3,Win32,59.11912504,62bbe60bf3d75ef465d3e404,,,,,,,,,,,,,,,,,,,,,,,,,,,,,,,,,,,,,,,,,,,,,,,,,,,,,,,,,,,,,,,,,,,,,,,,,,,,,,,,,,,,,,,,,,,,,,,,,,,,,,,,,,,,,,,,,,,,,,,,,,,,,,,,,,,,,,,,,,,,,,,,,,,,,,,,,,,,,
0,53,53,17,1,,5f82fd997dab234303560326,62bbfa1cb9fec65e60764b23,2022-06-29_10h07.34.672,Colour_Asymmetry_Pilot,2022.1.3,Win32,59.11912504,62bbe60bf3d75ef465d3e404,,,,,,,,,,,,,,,,,,,,,,,,,,,,,,,,,,,,,,,,,,,,,,,,,,,,,,,,,,,,,,,,,,,,,,,,,,,,,,,,,,,,,,,,,,,,,,,,,,,,,,,,,,,,,,,,,,,,,,,,,,,,,,,,,,,,,,,,,,,,,,,,,,,,,,,,,,,,,
0,54,54,83,1,,5f82fd997dab234303560326,62bbfa1cb9fec65e60764b23,2022-06-29_10h07.34.672,Colour_Asymmetry_Pilot,2022.1.3,Win32,59.11912504,62bbe60bf3d75ef465d3e404,,,,,,,,,,,,,,,,,,,,,,,,,,,,,,,,,,,,,,,,,,,,,,,,,,,,,,,,,,,,,,,,,,,,,,,,,,,,,,,,,,,,,,,,,,,,,,,,,,,,,,,,,,,,,,,,,,,,,,,,,,,,,,,,,,,,,,,,,,,,,,,,,,,,,,,,,,,,,
0,55,55,91,1,,5f82fd997dab234303560326,62bbfa1cb9fec65e60764b23,2022-06-29_10h07.34.672,Colour_Asymmetry_Pilot,2022.1.3,Win32,59.11912504,62bbe60bf3d75ef465d3e404,,,,,,,,,,,,,,,,,,,,,,,,,,,,,,,,,,,,,,,,,,,,,,,,,,,,,,,,,,,,,,,,,,,,,,,,,,,,,,,,,,,,,,,,,,,,,,,,,,,,,,,,,,,,,,,,,,,,,,,,,,,,,,,,,,,,,,,,,,,,,,,,,,,,,,,,,,,,,
0,56,56,80,1,,5f82fd997dab234303560326,62bbfa1cb9fec65e60764b23,2022-06-29_10h07.34.672,Colour_Asymmetry_Pilot,2022.1.3,Win32,59.11912504,62bbe60bf3d75ef465d3e404,,,,,,,,,,,,,,,,,,,,,,,,,,,,,,,,,,,,,,,,,,,,,,,,,,,,,,,,,,,,,,,,,,,,,,,,,,,,,,,,,,,,,,,,,,,,,,,,,,,,,,,,,,,,,,,,,,,,,,,,,,,,,,,,,,,,,,,,,,,,,,,,,,,,,,,,,,,,,
0,57,57,46,1,,5f82fd997dab234303560326,62bbfa1cb9fec65e60764b23,2022-06-29_10h07.34.672,Colour_Asymmetry_Pilot,2022.1.3,Win32,59.11912504,62bbe60bf3d75ef465d3e404,,,,,,,,,,,,,,,,,,,,,,,,,,,,,,,,,,,,,,,,,,,,,,,,,,,,,,,,,,,,,,,,,,,,,,,,,,,,,,,,,,,,,,,,,,,,,,,,,,,,,,,,,,,,,,,,,,,,,,,,,,,,,,,,,,,,,,,,,,,,,,,,,,,,,,,,,,,,,
0,58,58,41,1,,5f82fd997dab234303560326,62bbfa1cb9fec65e60764b23,2022-06-29_10h07.34.672,Colour_Asymmetry_Pilot,2022.1.3,Win32,59.11912504,62bbe60bf3d75ef465d3e404,,,,,,,,,,,,,,,,,,,,,,,,,,,,,,,,,,,,,,,,,,,,,,,,,,,,,,,,,,,,,,,,,,,,,,,,,,,,,,,,,,,,,,,,,,,,,,,,,,,,,,,,,,,,,,,,,,,,,,,,,,,,,,,,,,,,,,,,,,,,,,,,,,,,,,,,,,,,,
0,59,59,25,1,,5f82fd997dab234303560326,62bbfa1cb9fec65e60764b23,2022-06-29_10h07.34.672,Colour_Asymmetry_Pilot,2022.1.3,Win32,59.11912504,62bbe60bf3d75ef465d3e404,,,,,,,,,,,,,,,,,,,,,,,,,,,,,,,,,,,,,,,,,,,,,,,,,,,,,,,,,,,,,,,,,,,,,,,,,,,,,,,,,,,,,,,,,,,,,,,,,,,,,,,,,,,,,,,,,,,,,,,,,,,,,,,,,,,,,,,,,,,,,,,,,,,,,,,,,,,,,
0,60,60,18,1,,5f82fd997dab234303560326,62bbfa1cb9fec65e60764b23,2022-06-29_10h07.34.672,Colour_Asymmetry_Pilot,2022.1.3,Win32,59.11912504,62bbe60bf3d75ef465d3e404,,,,,,,,,,,,,,,,,,,,,,,,,,,,,,,,,,,,,,,,,,,,,,,,,,,,,,,,,,,,,,,,,,,,,,,,,,,,,,,,,,,,,,,,,,,,,,,,,,,,,,,,,,,,,,,,,,,,,,,,,,,,,,,,,,,,,,,,,,,,,,,,,,,,,,,,,,,,,
0,61,61,43,1,,5f82fd997dab234303560326,62bbfa1cb9fec65e60764b23,2022-06-29_10h07.34.672,Colour_Asymmetry_Pilot,2022.1.3,Win32,59.11912504,62bbe60bf3d75ef465d3e404,,,,,,,,,,,,,,,,,,,,,,,,,,,,,,,,,,,,,,,,,,,,,,,,,,,,,,,,,,,,,,,,,,,,,,,,,,,,,,,,,,,,,,,,,,,,,,,,,,,,,,,,,,,,,,,,,,,,,,,,,,,,,,,,,,,,,,,,,,,,,,,,,,,,,,,,,,,,,
0,62,62,38,1,,5f82fd997dab234303560326,62bbfa1cb9fec65e60764b23,2022-06-29_10h07.34.672,Colour_Asymmetry_Pilot,2022.1.3,Win32,59.11912504,62bbe60bf3d75ef465d3e404,,,,,,,,,,,,,,,,,,,,,,,,,,,,,,,,,,,,,,,,,,,,,,,,,,,,,,,,,,,,,,,,,,,,,,,,,,,,,,,,,,,,,,,,,,,,,,,,,,,,,,,,,,,,,,,,,,,,,,,,,,,,,,,,,,,,,,,,,,,,,,,,,,,,,,,,,,,,,
0,63,63,71,1,,5f82fd997dab234303560326,62bbfa1cb9fec65e60764b23,2022-06-29_10h07.34.672,Colour_Asymmetry_Pilot,2022.1.3,Win32,59.11912504,62bbe60bf3d75ef465d3e404,,,,,,,,,,,,,,,,,,,,,,,,,,,,,,,,,,,,,,,,,,,,,,,,,,,,,,,,,,,,,,,,,,,,,,,,,,,,,,,,,,,,,,,,,,,,,,,,,,,,,,,,,,,,,,,,,,,,,,,,,,,,,,,,,,,,,,,,,,,,,,,,,,,,,,,,,,,,,
0,64,64,61,1,,5f82fd997dab234303560326,62bbfa1cb9fec65e60764b23,2022-06-29_10h07.34.672,Colour_Asymmetry_Pilot,2022.1.3,Win32,59.11912504,62bbe60bf3d75ef465d3e404,,,,,,,,,,,,,,,,,,,,,,,,,,,,,,,,,,,,,,,,,,,,,,,,,,,,,,,,,,,,,,,,,,,,,,,,,,,,,,,,,,,,,,,,,,,,,,,,,,,,,,,,,,,,,,,,,,,,,,,,,,,,,,,,,,,,,,,,,,,,,,,,,,,,,,,,,,,,,
0,65,65,23,1,,5f82fd997dab234303560326,62bbfa1cb9fec65e60764b23,2022-06-29_10h07.34.672,Colour_Asymmetry_Pilot,2022.1.3,Win32,59.11912504,62bbe60bf3d75ef465d3e404,,,,,,,,,,,,,,,,,,,,,,,,,,,,,,,,,,,,,,,,,,,,,,,,,,,,,,,,,,,,,,,,,,,,,,,,,,,,,,,,,,,,,,,,,,,,,,,,,,,,,,,,,,,,,,,,,,,,,,,,,,,,,,,,,,,,,,,,,,,,,,,,,,,,,,,,,,,,,
0,66,66,74,1,,5f82fd997dab234303560326,62bbfa1cb9fec65e60764b23,2022-06-29_10h07.34.672,Colour_Asymmetry_Pilot,2022.1.3,Win32,59.11912504,62bbe60bf3d75ef465d3e404,,,,,,,,,,,,,,,,,,,,,,,,,,,,,,,,,,,,,,,,,,,,,,,,,,,,,,,,,,,,,,,,,,,,,,,,,,,,,,,,,,,,,,,,,,,,,,,,,,,,,,,,,,,,,,,,,,,,,,,,,,,,,,,,,,,,,,,,,,,,,,,,,,,,,,,,,,,,,
0,67,67,51,1,,5f82fd997dab234303560326,62bbfa1cb9fec65e60764b23,2022-06-29_10h07.34.672,Colour_Asymmetry_Pilot,2022.1.3,Win32,59.11912504,62bbe60bf3d75ef465d3e404,,,,,,,,,,,,,,,,,,,,,,,,,,,,,,,,,,,,,,,,,,,,,,,,,,,,,,,,,,,,,,,,,,,,,,,,,,,,,,,,,,,,,,,,,,,,,,,,,,,,,,,,,,,,,,,,,,,,,,,,,,,,,,,,,,,,,,,,,,,,,,,,,,,,,,,,,,,,,
0,68,68,7,1,,5f82fd997dab234303560326,62bbfa1cb9fec65e60764b23,2022-06-29_10h07.34.672,Colour_Asymmetry_Pilot,2022.1.3,Win32,59.11912504,62bbe60bf3d75ef465d3e404,,,,,,,,,,,,,,,,,,,,,,,,,,,,,,,,,,,,,,,,,,,,,,,,,,,,,,,,,,,,,,,,,,,,,,,,,,,,,,,,,,,,,,,,,,,,,,,,,,,,,,,,,,,,,,,,,,,,,,,,,,,,,,,,,,,,,,,,,,,,,,,,,,,,,,,,,,,,,
0,69,69,45,1,,5f82fd997dab234303560326,62bbfa1cb9fec65e60764b23,2022-06-29_10h07.34.672,Colour_Asymmetry_Pilot,2022.1.3,Win32,59.11912504,62bbe60bf3d75ef465d3e404,,,,,,,,,,,,,,,,,,,,,,,,,,,,,,,,,,,,,,,,,,,,,,,,,,,,,,,,,,,,,,,,,,,,,,,,,,,,,,,,,,,,,,,,,,,,,,,,,,,,,,,,,,,,,,,,,,,,,,,,,,,,,,,,,,,,,,,,,,,,,,,,,,,,,,,,,,,,,
0,70,70,27,1,,5f82fd997dab234303560326,62bbfa1cb9fec65e60764b23,2022-06-29_10h07.34.672,Colour_Asymmetry_Pilot,2022.1.3,Win32,59.11912504,62bbe60bf3d75ef465d3e404,,,,,,,,,,,,,,,,,,,,,,,,,,,,,,,,,,,,,,,,,,,,,,,,,,,,,,,,,,,,,,,,,,,,,,,,,,,,,,,,,,,,,,,,,,,,,,,,,,,,,,,,,,,,,,,,,,,,,,,,,,,,,,,,,,,,,,,,,,,,,,,,,,,,,,,,,,,,,
0,71,71,14,1,,5f82fd997dab234303560326,62bbfa1cb9fec65e60764b23,2022-06-29_10h07.34.672,Colour_Asymmetry_Pilot,2022.1.3,Win32,59.11912504,62bbe60bf3d75ef465d3e404,,,,,,,,,,,,,,,,,,,,,,,,,,,,,,,,,,,,,,,,,,,,,,,,,,,,,,,,,,,,,,,,,,,,,,,,,,,,,,,,,,,,,,,,,,,,,,,,,,,,,,,,,,,,,,,,,,,,,,,,,,,,,,,,,,,,,,,,,,,,,,,,,,,,,,,,,,,,,
0,72,72,79,1,,5f82fd997dab234303560326,62bbfa1cb9fec65e60764b23,2022-06-29_10h07.34.672,Colour_Asymmetry_Pilot,2022.1.3,Win32,59.11912504,62bbe60bf3d75ef465d3e404,,,,,,,,,,,,,,,,,,,,,,,,,,,,,,,,,,,,,,,,,,,,,,,,,,,,,,,,,,,,,,,,,,,,,,,,,,,,,,,,,,,,,,,,,,,,,,,,,,,,,,,,,,,,,,,,,,,,,,,,,,,,,,,,,,,,,,,,,,,,,,,,,,,,,,,,,,,,,
0,73,73,88,1,,5f82fd997dab234303560326,62bbfa1cb9fec65e60764b23,2022-06-29_10h07.34.672,Colour_Asymmetry_Pilot,2022.1.3,Win32,59.11912504,62bbe60bf3d75ef465d3e404,,,,,,,,,,,,,,,,,,,,,,,,,,,,,,,,,,,,,,,,,,,,,,,,,,,,,,,,,,,,,,,,,,,,,,,,,,,,,,,,,,,,,,,,,,,,,,,,,,,,,,,,,,,,,,,,,,,,,,,,,,,,,,,,,,,,,,,,,,,,,,,,,,,,,,,,,,,,,
0,74,74,34,1,,5f82fd997dab234303560326,62bbfa1cb9fec65e60764b23,2022-06-29_10h07.34.672,Colour_Asymmetry_Pilot,2022.1.3,Win32,59.11912504,62bbe60bf3d75ef465d3e404,,,,,,,,,,,,,,,,,,,,,,,,,,,,,,,,,,,,,,,,,,,,,,,,,,,,,,,,,,,,,,,,,,,,,,,,,,,,,,,,,,,,,,,,,,,,,,,,,,,,,,,,,,,,,,,,,,,,,,,,,,,,,,,,,,,,,,,,,,,,,,,,,,,,,,,,,,,,,
0,75,75,1,1,,5f82fd997dab234303560326,62bbfa1cb9fec65e60764b23,2022-06-29_10h07.34.672,Colour_Asymmetry_Pilot,2022.1.3,Win32,59.11912504,62bbe60bf3d75ef465d3e404,,,,,,,,,,,,,,,,,,,,,,,,,,,,,,,,,,,,,,,,,,,,,,,,,,,,,,,,,,,,,,,,,,,,,,,,,,,,,,,,,,,,,,,,,,,,,,,,,,,,,,,,,,,,,,,,,,,,,,,,,,,,,,,,,,,,,,,,,,,,,,,,,,,,,,,,,,,,,
0,76,76,78,1,,5f82fd997dab234303560326,62bbfa1cb9fec65e60764b23,2022-06-29_10h07.34.672,Colour_Asymmetry_Pilot,2022.1.3,Win32,59.11912504,62bbe60bf3d75ef465d3e404,,,,,,,,,,,,,,,,,,,,,,,,,,,,,,,,,,,,,,,,,,,,,,,,,,,,,,,,,,,,,,,,,,,,,,,,,,,,,,,,,,,,,,,,,,,,,,,,,,,,,,,,,,,,,,,,,,,,,,,,,,,,,,,,,,,,,,,,,,,,,,,,,,,,,,,,,,,,,
0,77,77,65,1,,5f82fd997dab234303560326,62bbfa1cb9fec65e60764b23,2022-06-29_10h07.34.672,Colour_Asymmetry_Pilot,2022.1.3,Win32,59.11912504,62bbe60bf3d75ef465d3e404,,,,,,,,,,,,,,,,,,,,,,,,,,,,,,,,,,,,,,,,,,,,,,,,,,,,,,,,,,,,,,,,,,,,,,,,,,,,,,,,,,,,,,,,,,,,,,,,,,,,,,,,,,,,,,,,,,,,,,,,,,,,,,,,,,,,,,,,,,,,,,,,,,,,,,,,,,,,,
0,78,78,54,1,,5f82fd997dab234303560326,62bbfa1cb9fec65e60764b23,2022-06-29_10h07.34.672,Colour_Asymmetry_Pilot,2022.1.3,Win32,59.11912504,62bbe60bf3d75ef465d3e404,,,,,,,,,,,,,,,,,,,,,,,,,,,,,,,,,,,,,,,,,,,,,,,,,,,,,,,,,,,,,,,,,,,,,,,,,,,,,,,,,,,,,,,,,,,,,,,,,,,,,,,,,,,,,,,,,,,,,,,,,,,,,,,,,,,,,,,,,,,,,,,,,,,,,,,,,,,,,
0,79,79,70,1,,5f82fd997dab234303560326,62bbfa1cb9fec65e60764b23,2022-06-29_10h07.34.672,Colour_Asymmetry_Pilot,2022.1.3,Win32,59.11912504,62bbe60bf3d75ef465d3e404,,,,,,,,,,,,,,,,,,,,,,,,,,,,,,,,,,,,,,,,,,,,,,,,,,,,,,,,,,,,,,,,,,,,,,,,,,,,,,,,,,,,,,,,,,,,,,,,,,,,,,,,,,,,,,,,,,,,,,,,,,,,,,,,,,,,,,,,,,,,,,,,,,,,,,,,,,,,,
0,80,80,52,1,,5f82fd997dab234303560326,62bbfa1cb9fec65e60764b23,2022-06-29_10h07.34.672,Colour_Asymmetry_Pilot,2022.1.3,Win32,59.11912504,62bbe60bf3d75ef465d3e404,,,,,,,,,,,,,,,,,,,,,,,,,,,,,,,,,,,,,,,,,,,,,,,,,,,,,,,,,,,,,,,,,,,,,,,,,,,,,,,,,,,,,,,,,,,,,,,,,,,,,,,,,,,,,,,,,,,,,,,,,,,,,,,,,,,,,,,,,,,,,,,,,,,,,,,,,,,,,
0,81,81,87,1,,5f82fd997dab234303560326,62bbfa1cb9fec65e60764b23,2022-06-29_10h07.34.672,Colour_Asymmetry_Pilot,2022.1.3,Win32,59.11912504,62bbe60bf3d75ef465d3e404,,,,,,,,,,,,,,,,,,,,,,,,,,,,,,,,,,,,,,,,,,,,,,,,,,,,,,,,,,,,,,,,,,,,,,,,,,,,,,,,,,,,,,,,,,,,,,,,,,,,,,,,,,,,,,,,,,,,,,,,,,,,,,,,,,,,,,,,,,,,,,,,,,,,,,,,,,,,,
0,82,82,0,1,,5f82fd997dab234303560326,62bbfa1cb9fec65e60764b23,2022-06-29_10h07.34.672,Colour_Asymmetry_Pilot,2022.1.3,Win32,59.11912504,62bbe60bf3d75ef465d3e404,,,,,,,,,,,,,,,,,,,,,,,,,,,,,,,,,,,,,,,,,,,,,,,,,,,,,,,,,,,,,,,,,,,,,,,,,,,,,,,,,,,,,,,,,,,,,,,,,,,,,,,,,,,,,,,,,,,,,,,,,,,,,,,,,,,,,,,,,,,,,,,,,,,,,,,,,,,,,
0,83,83,63,1,,5f82fd997dab234303560326,62bbfa1cb9fec65e60764b23,2022-06-29_10h07.34.672,Colour_Asymmetry_Pilot,2022.1.3,Win32,59.11912504,62bbe60bf3d75ef465d3e404,,,,,,,,,,,,,,,,,,,,,,,,,,,,,,,,,,,,,,,,,,,,,,,,,,,,,,,,,,,,,,,,,,,,,,,,,,,,,,,,,,,,,,,,,,,,,,,,,,,,,,,,,,,,,,,,,,,,,,,,,,,,,,,,,,,,,,,,,,,,,,,,,,,,,,,,,,,,,
0,84,84,3,1,,5f82fd997dab234303560326,62bbfa1cb9fec65e60764b23,2022-06-29_10h07.34.672,Colour_Asymmetry_Pilot,2022.1.3,Win32,59.11912504,62bbe60bf3d75ef465d3e404,,,,,,,,,,,,,,,,,,,,,,,,,,,,,,,,,,,,,,,,,,,,,,,,,,,,,,,,,,,,,,,,,,,,,,,,,,,,,,,,,,,,,,,,,,,,,,,,,,,,,,,,,,,,,,,,,,,,,,,,,,,,,,,,,,,,,,,,,,,,,,,,,,,,,,,,,,,,,
0,85,85,11,1,,5f82fd997dab234303560326,62bbfa1cb9fec65e60764b23,2022-06-29_10h07.34.672,Colour_Asymmetry_Pilot,2022.1.3,Win32,59.11912504,62bbe60bf3d75ef465d3e404,,,,,,,,,,,,,,,,,,,,,,,,,,,,,,,,,,,,,,,,,,,,,,,,,,,,,,,,,,,,,,,,,,,,,,,,,,,,,,,,,,,,,,,,,,,,,,,,,,,,,,,,,,,,,,,,,,,,,,,,,,,,,,,,,,,,,,,,,,,,,,,,,,,,,,,,,,,,,
0,86,86,31,1,,5f82fd997dab234303560326,62bbfa1cb9fec65e60764b23,2022-06-29_10h07.34.672,Colour_Asymmetry_Pilot,2022.1.3,Win32,59.11912504,62bbe60bf3d75ef465d3e404,,,,,,,,,,,,,,,,,,,,,,,,,,,,,,,,,,,,,,,,,,,,,,,,,,,,,,,,,,,,,,,,,,,,,,,,,,,,,,,,,,,,,,,,,,,,,,,,,,,,,,,,,,,,,,,,,,,,,,,,,,,,,,,,,,,,,,,,,,,,,,,,,,,,,,,,,,,,,
0,87,87,72,1,,5f82fd997dab234303560326,62bbfa1cb9fec65e60764b23,2022-06-29_10h07.34.672,Colour_Asymmetry_Pilot,2022.1.3,Win32,59.11912504,62bbe60bf3d75ef465d3e404,,,,,,,,,,,,,,,,,,,,,,,,,,,,,,,,,,,,,,,,,,,,,,,,,,,,,,,,,,,,,,,,,,,,,,,,,,,,,,,,,,,,,,,,,,,,,,,,,,,,,,,,,,,,,,,,,,,,,,,,,,,,,,,,,,,,,,,,,,,,,,,,,,,,,,,,,,,,,
0,88,88,28,1,,5f82fd997dab234303560326,62bbfa1cb9fec65e60764b23,2022-06-29_10h07.34.672,Colour_Asymmetry_Pilot,2022.1.3,Win32,59.11912504,62bbe60bf3d75ef465d3e404,,,,,,,,,,,,,,,,,,,,,,,,,,,,,,,,,,,,,,,,,,,,,,,,,,,,,,,,,,,,,,,,,,,,,,,,,,,,,,,,,,,,,,,,,,,,,,,,,,,,,,,,,,,,,,,,,,,,,,,,,,,,,,,,,,,,,,,,,,,,,,,,,,,,,,,,,,,,,
0,89,89,47,1,,5f82fd997dab234303560326,62bbfa1cb9fec65e60764b23,2022-06-29_10h07.34.672,Colour_Asymmetry_Pilot,2022.1.3,Win32,59.11912504,62bbe60bf3d75ef465d3e404,,,,,,,,,,,,,,,,,,,,,,,,,,,,,,,,,,,,,,,,,,,,,,,,,,,,,,,,,,,,,,,,,,,,,,,,,,,,,,,,,,,,,,,,,,,,,,,,,,,,,,,,,,,,,,,,,,,,,,,,,,,,,,,,,,,,,,,,,,,,,,,,,,,,,,,,,,,,,
0,90,90,90,1,,5f82fd997dab234303560326,62bbfa1cb9fec65e60764b23,2022-06-29_10h07.34.672,Colour_Asymmetry_Pilot,2022.1.3,Win32,59.11912504,62bbe60bf3d75ef465d3e404,,,,,,,,,,,,,,,,,,,,,,,,,,,,,,,,,,,,,,,,,,,,,,,,,,,,,,,,,,,,,,,,,,,,,,,,,,,,,,,,,,,,,,,,,,,,,,,,,,,,,,,,,,,,,,,,,,,,,,,,,,,,,,,,,,,,,,,,,,,,,,,,,,,,,,,,,,,,,
0,91,91,73,1,,5f82fd997dab234303560326,62bbfa1cb9fec65e60764b23,2022-06-29_10h07.34.672,Colour_Asymmetry_Pilot,2022.1.3,Win32,59.11912504,62bbe60bf3d75ef465d3e404,,,,,,,,,,,,,,,,,,,,,,,,,,,,,,,,,,,,,,,,,,,,,,,,,,,,,,,,,,,,,,,,,,,,,,,,,,,,,,,,,,,,,,,,,,,,,,,,,,,,,,,,,,,,,,,,,,,,,,,,,,,,,,,,,,,,,,,,,,,,,,,,,,,,,,,,,,,,,
0,92,92,84,1,,5f82fd997dab234303560326,62bbfa1cb9fec65e60764b23,2022-06-29_10h07.34.672,Colour_Asymmetry_Pilot,2022.1.3,Win32,59.11912504,62bbe60bf3d75ef465d3e404,,,,,,,,,,,,,,,,,,,,,,,,,,,,,,,,,,,,,,,,,,,,,,,,,,,,,,,,,,,,,,,,,,,,,,,,,,,,,,,,,,,,,,,,,,,,,,,,,,,,,,,,,,,,,,,,,,,,,,,,,,,,,,,,,,,,,,,,,,,,,,,,,,,,,,,,,,,,,
,,,,,,5f82fd997dab234303560326,62bbfa1cb9fec65e60764b23,2022-06-29_10h07.34.672,Colour_Asymmetry_Pilot,2022.1.3,Win32,59.11912504,62bbe60bf3d75ef465d3e404,0,0,0,50,1,twoone,,,,,,,,,,,,,,,,,,,,,,,,,,,,,,,,,,,,,,,,,,,,,,,,,,,,,,,,,,,,,,,,,,,,,,,,,,,,,,,,,,,,,,,,,,,,,,,,,,,,,,,,,,,,,,,,,,,,,,,,,,,,,,,,,,,,,,,,,,,,,,,,,,,,,,,
,,,,,,5f82fd997dab234303560326,62bbfa1cb9fec65e60764b23,2022-06-29_10h07.34.672,Colour_Asymmetry_Pilot,2022.1.3,Win32,59.11912504,62bbe60bf3d75ef465d3e404,0,1,1,13,1,threefour,,,,,,,,,,,,,,,,,,,,,,,,,,,,,,,,,,,,,,,,,,,,,,,,,,,,,,,,,,,,,,,,,,,,,,,,,,,,,,,,,,,,,,,,,,,,,,,,,,,,,,,,,,,,,,,,,,,,,,,,,,,,,,,,,,,,,,,,,,,,,,,,,,,,,,,
,,,,,,5f82fd997dab234303560326,62bbfa1cb9fec65e60764b23,2022-06-29_10h07.34.672,Colour_Asymmetry_Pilot,2022.1.3,Win32,59.11912504,62bbe60bf3d75ef465d3e404,0,2,2,14,1,fourtwo,,,,,,,,,,,,,,,,,,,,,,,,,,,,,,,,,,,,,,,,,,,,,,,,,,,,,,,,,,,,,,,,,,,,,,,,,,,,,,,,,,,,,,,,,,,,,,,,,,,,,,,,,,,,,,,,,,,,,,,,,,,,,,,,,,,,,,,,,,,,,,,,,,,,,,,
,,,,,,5f82fd997dab234303560326,62bbfa1cb9fec65e60764b23,2022-06-29_10h07.34.672,Colour_Asymmetry_Pilot,2022.1.3,Win32,59.11912504,62bbe60bf3d75ef465d3e404,0,3,3,45,1,threefour,,,,,,,,,,,,,,,,,,,,,,,,,,,,,,,,,,,,,,,,,,,,,,,,,,,,,,,,,,,,,,,,,,,,,,,,,,,,,,,,,,,,,,,,,,,,,,,,,,,,,,,,,,,,,,,,,,,,,,,,,,,,,,,,,,,,,,,,,,,,,,,,,,,,,,,
,,,,,,5f82fd997dab234303560326,62bbfa1cb9fec65e60764b23,2022-06-29_10h07.34.672,Colour_Asymmetry_Pilot,2022.1.3,Win32,59.11912504,62bbe60bf3d75ef465d3e404,0,4,4,77,1,threefour,,,,,,,,,,,,,,,,,,,,,,,,,,,,,,,,,,,,,,,,,,,,,,,,,,,,,,,,,,,,,,,,,,,,,,,,,,,,,,,,,,,,,,,,,,,,,,,,,,,,,,,,,,,,,,,,,,,,,,,,,,,,,,,,,,,,,,,,,,,,,,,,,,,,,,,
,,,,,,5f82fd997dab234303560326,62bbfa1cb9fec65e60764b23,2022-06-29_10h07.34.672,Colour_Asymmetry_Pilot,2022.1.3,Win32,59.11912504,62bbe60bf3d75ef465d3e404,0,5,5,63,1,fourthree,,,,,,,,,,,,,,,,,,,,,,,,,,,,,,,,,,,,,,,,,,,,,,,,,,,,,,,,,,,,,,,,,,,,,,,,,,,,,,,,,,,,,,,,,,,,,,,,,,,,,,,,,,,,,,,,,,,,,,,,,,,,,,,,,,,,,,,,,,,,,,,,,,,,,,,
,,,,,,5f82fd997dab234303560326,62bbfa1cb9fec65e60764b23,2022-06-29_10h07.34.672,Colour_Asymmetry_Pilot,2022.1.3,Win32,59.11912504,62bbe60bf3d75ef465d3e404,0,6,6,79,1,fourthree,,,,,,,,,,,,,,,,,,,,,,,,,,,,,,,,,,,,,,,,,,,,,,,,,,,,,,,,,,,,,,,,,,,,,,,,,,,,,,,,,,,,,,,,,,,,,,,,,,,,,,,,,,,,,,,,,,,,,,,,,,,,,,,,,,,,,,,,,,,,,,,,,,,,,,,
,,,,,,5f82fd997dab234303560326,62bbfa1cb9fec65e60764b23,2022-06-29_10h07.34.672,Colour_Asymmetry_Pilot,2022.1.3,Win32,59.11912504,62bbe60bf3d75ef465d3e404,0,7,7,88,1,onetwo,,,,,,,,,,,,,,,,,,,,,,,,,,,,,,,,,,,,,,,,,,,,,,,,,,,,,,,,,,,,,,,,,,,,,,,,,,,,,,,,,,,,,,,,,,,,,,,,,,,,,,,,,,,,,,,,,,,,,,,,,,,,,,,,,,,,,,,,,,,,,,,,,,,,,,,
,,,,,,5f82fd997dab234303560326,62bbfa1cb9fec65e60764b23,2022-06-29_10h07.34.672,Colour_Asymmetry_Pilot,2022.1.3,Win32,59.11912504,62bbe60bf3d75ef465d3e404,0,8,8,156,1,threeone,,,,,,,,,,,,,,,,,,,,,,,,,,,,,,,,,,,,,,,,,,,,,,,,,,,,,,,,,,,,,,,,,,,,,,,,,,,,,,,,,,,,,,,,,,,,,,,,,,,,,,,,,,,,,,,,,,,,,,,,,,,,,,,,,,,,,,,,,,,,,,,,,,,,,,,
,,,,,,5f82fd997dab234303560326,62bbfa1cb9fec65e60764b23,2022-06-29_10h07.34.672,Colour_Asymmetry_Pilot,2022.1.3,Win32,59.11912504,62bbe60bf3d75ef465d3e404,0,9,9,107,1,twofour,,,,,,,,,,,,,,,,,,,,,,,,,,,,,,,,,,,,,,,,,,,,,,,,,,,,,,,,,,,,,,,,,,,,,,,,,,,,,,,,,,,,,,,,,,,,,,,,,,,,,,,,,,,,,,,,,,,,,,,,,,,,,,,,,,,,,,,,,,,,,,,,,,,,,,,
,,,,,,5f82fd997dab234303560326,62bbfa1cb9fec65e60764b23,2022-06-29_10h07.34.672,Colour_Asymmetry_Pilot,2022.1.3,Win32,59.11912504,62bbe60bf3d75ef465d3e404,0,10,10,74,1,twoone,,,,,,,,,,,,,,,,,,,,,,,,,,,,,,,,,,,,,,,,,,,,,,,,,,,,,,,,,,,,,,,,,,,,,,,,,,,,,,,,,,,,,,,,,,,,,,,,,,,,,,,,,,,,,,,,,,,,,,,,,,,,,,,,,,,,,,,,,,,,,,,,,,,,,,,
,,,,,,5f82fd997dab234303560326,62bbfa1cb9fec65e60764b23,2022-06-29_10h07.34.672,Colour_Asymmetry_Pilot,2022.1.3,Win32,59.11912504,62bbe60bf3d75ef465d3e404,0,11,11,41,1,onethree,,,,,,,,,,,,,,,,,,,,,,,,,,,,,,,,,,,,,,,,,,,,,,,,,,,,,,,,,,,,,,,,,,,,,,,,,,,,,,,,,,,,,,,,,,,,,,,,,,,,,,,,,,,,,,,,,,,,,,,,,,,,,,,,,,,,,,,,,,,,,,,,,,,,,,,
,,,,,,5f82fd997dab234303560326,62bbfa1cb9fec65e60764b23,2022-06-29_10h07.34.672,Colour_Asymmetry_Pilot,2022.1.3,Win32,59.11912504,62bbe60bf3d75ef465d3e404,0,12,12,142,1,fourtwo,,,,,,,,,,,,,,,,,,,,,,,,,,,,,,,,,,,,,,,,,,,,,,,,,,,,,,,,,,,,,,,,,,,,,,,,,,,,,,,,,,,,,,,,,,,,,,,,,,,,,,,,,,,,,,,,,,,,,,,,,,,,,,,,,,,,,,,,,,,,,,,,,,,,,,,
,,,,,,5f82fd997dab234303560326,62bbfa1cb9fec65e60764b23,2022-06-29_10h07.34.672,Colour_Asymmetry_Pilot,2022.1.3,Win32,59.11912504,62bbe60bf3d75ef465d3e404,0,13,13,40,1,onetwo,,,,,,,,,,,,,,,,,,,,,,,,,,,,,,,,,,,,,,,,,,,,,,,,,,,,,,,,,,,,,,,,,,,,,,,,,,,,,,,,,,,,,,,,,,,,,,,,,,,,,,,,,,,,,,,,,,,,,,,,,,,,,,,,,,,,,,,,,,,,,,,,,,,,,,,
,,,,,,5f82fd997dab234303560326,62bbfa1cb9fec65e60764b23,2022-06-29_10h07.34.672,Colour_Asymmetry_Pilot,2022.1.3,Win32,59.11912504,62bbe60bf3d75ef465d3e404,0,14,14,106,1,twoone,,,,,,,,,,,,,,,,,,,,,,,,,,,,,,,,,,,,,,,,,,,,,,,,,,,,,,,,,,,,,,,,,,,,,,,,,,,,,,,,,,,,,,,,,,,,,,,,,,,,,,,,,,,,,,,,,,,,,,,,,,,,,,,,,,,,,,,,,,,,,,,,,,,,,,,
,,,,,,5f82fd997dab234303560326,62bbfa1cb9fec65e60764b23,2022-06-29_10h07.34.672,Colour_Asymmetry_Pilot,2022.1.3,Win32,59.11912504,62bbe60bf3d75ef465d3e404,0,15,15,158,1,fourtwo,,,,,,,,,,,,,,,,,,,,,,,,,,,,,,,,,,,,,,,,,,,,,,,,,,,,,,,,,,,,,,,,,,,,,,,,,,,,,,,,,,,,,,,,,,,,,,,,,,,,,,,,,,,,,,,,,,,,,,,,,,,,,,,,,,,,,,,,,,,,,,,,,,,,,,,
,,,,,,5f82fd997dab234303560326,62bbfa1cb9fec65e60764b23,2022-06-29_10h07.34.672,Colour_Asymmetry_Pilot,2022.1.3,Win32,59.11912504,62bbe60bf3d75ef465d3e404,0,16,16,81,1,onethree,,,,,,,,,,,,,,,,,,,,,,,,,,,,,,,,,,,,,,,,,,,,,,,,,,,,,,,,,,,,,,,,,,,,,,,,,,,,,,,,,,,,,,,,,,,,,,,,,,,,,,,,,,,,,,,,,,,,,,,,,,,,,,,,,,,,,,,,,,,,,,,,,,,,,,,
,,,,,,5f82fd997dab234303560326,62bbfa1cb9fec65e60764b23,2022-06-29_10h07.34.672,Colour_Asymmetry_Pilot,2022.1.3,Win32,59.11912504,62bbe60bf3d75ef465d3e404,0,17,17,151,1,fourthree,,,,,,,,,,,,,,,,,,,,,,,,,,,,,,,,,,,,,,,,,,,,,,,,,,,,,,,,,,,,,,,,,,,,,,,,,,,,,,,,,,,,,,,,,,,,,,,,,,,,,,,,,,,,,,,,,,,,,,,,,,,,,,,,,,,,,,,,,,,,,,,,,,,,,,,
,,,,,,5f82fd997dab234303560326,62bbfa1cb9fec65e60764b23,2022-06-29_10h07.34.672,Colour_Asymmetry_Pilot,2022.1.3,Win32,59.11912504,62bbe60bf3d75ef465d3e404,0,18,18,57,1,onethree,,,,,,,,,,,,,,,,,,,,,,,,,,,,,,,,,,,,,,,,,,,,,,,,,,,,,,,,,,,,,,,,,,,,,,,,,,,,,,,,,,,,,,,,,,,,,,,,,,,,,,,,,,,,,,,,,,,,,,,,,,,,,,,,,,,,,,,,,,,,,,,,,,,,,,,
,,,,,,5f82fd997dab234303560326,62bbfa1cb9fec65e60764b23,2022-06-29_10h07.34.672,Colour_Asymmetry_Pilot,2022.1.3,Win32,59.11912504,62bbe60bf3d75ef465d3e404,0,19,19,61,1,threefour,,,,,,,,,,,,,,,,,,,,,,,,,,,,,,,,,,,,,,,,,,,,,,,,,,,,,,,,,,,,,,,,,,,,,,,,,,,,,,,,,,,,,,,,,,,,,,,,,,,,,,,,,,,,,,,,,,,,,,,,,,,,,,,,,,,,,,,,,,,,,,,,,,,,,,,
,,,,,,5f82fd997dab234303560326,62bbfa1cb9fec65e60764b23,2022-06-29_10h07.34.672,Colour_Asymmetry_Pilot,2022.1.3,Win32,59.11912504,62bbe60bf3d75ef465d3e404,0,20,20,120,1,onetwo,,,,,,,,,,,,,,,,,,,,,,,,,,,,,,,,,,,,,,,,,,,,,,,,,,,,,,,,,,,,,,,,,,,,,,,,,,,,,,,,,,,,,,,,,,,,,,,,,,,,,,,,,,,,,,,,,,,,,,,,,,,,,,,,,,,,,,,,,,,,,,,,,,,,,,,
,,,,,,5f82fd997dab234303560326,62bbfa1cb9fec65e60764b23,2022-06-29_10h07.34.672,Colour_Asymmetry_Pilot,2022.1.3,Win32,59.11912504,62bbe60bf3d75ef465d3e404,0,21,21,21,1,threefour,,,,,,,,,,,,,,,,,,,,,,,,,,,,,,,,,,,,,,,,,,,,,,,,,,,,,,,,,,,,,,,,,,,,,,,,,,,,,,,,,,,,,,,,,,,,,,,,,,,,,,,,,,,,,,,,,,,,,,,,,,,,,,,,,,,,,,,,,,,,,,,,,,,,,,,
,,,,,,5f82fd997dab234303560326,62bbfa1cb9fec65e60764b23,2022-06-29_10h07.34.672,Colour_Asymmetry_Pilot,2022.1.3,Win32,59.11912504,62bbe60bf3d75ef465d3e404,0,22,22,139,1,twofour,,,,,,,,,,,,,,,,,,,,,,,,,,,,,,,,,,,,,,,,,,,,,,,,,,,,,,,,,,,,,,,,,,,,,,,,,,,,,,,,,,,,,,,,,,,,,,,,,,,,,,,,,,,,,,,,,,,,,,,,,,,,,,,,,,,,,,,,,,,,,,,,,,,,,,,
,,,,,,5f82fd997dab234303560326,62bbfa1cb9fec65e60764b23,2022-06-29_10h07.34.672,Colour_Asymmetry_Pilot,2022.1.3,Win32,59.11912504,62bbe60bf3d75ef465d3e404,0,23,23,103,1,fourthree,,,,,,,,,,,,,,,,,,,,,,,,,,,,,,,,,,,,,,,,,,,,,,,,,,,,,,,,,,,,,,,,,,,,,,,,,,,,,,,,,,,,,,,,,,,,,,,,,,,,,,,,,,,,,,,,,,,,,,,,,,,,,,,,,,,,,,,,,,,,,,,,,,,,,,,
,,,,,,5f82fd997dab234303560326,62bbfa1cb9fec65e60764b23,2022-06-29_10h07.34.672,Colour_Asymmetry_Pilot,2022.1.3,Win32,59.11912504,62bbe60bf3d75ef465d3e404,0,24,24,55,1,fourthree,,,,,,,,,,,,,,,,,,,,,,,,,,,,,,,,,,,,,,,,,,,,,,,,,,,,,,,,,,,,,,,,,,,,,,,,,,,,,,,,,,,,,,,,,,,,,,,,,,,,,,,,,,,,,,,,,,,,,,,,,,,,,,,,,,,,,,,,,,,,,,,,,,,,,,,
,,,,,,5f82fd997dab234303560326,62bbfa1cb9fec65e60764b23,2022-06-29_10h07.34.672,Colour_Asymmetry_Pilot,2022.1.3,Win32,59.11912504,62bbe60bf3d75ef465d3e404,0,25,25,92,1,threeone,,,,,,,,,,,,,,,,,,,,,,,,,,,,,,,,,,,,,,,,,,,,,,,,,,,,,,,,,,,,,,,,,,,,,,,,,,,,,,,,,,,,,,,,,,,,,,,,,,,,,,,,,,,,,,,,,,,,,,,,,,,,,,,,,,,,,,,,,,,,,,,,,,,,,,,
,,,,,,5f82fd997dab234303560326,62bbfa1cb9fec65e60764b23,2022-06-29_10h07.34.672,Colour_Asymmetry_Pilot,2022.1.3,Win32,59.11912504,62bbe60bf3d75ef465d3e404,0,26,26,112,1,onetwo,,,,,,,,,,,,,,,,,,,,,,,,,,,,,,,,,,,,,,,,,,,,,,,,,,,,,,,,,,,,,,,,,,,,,,,,,,,,,,,,,,,,,,,,,,,,,,,,,,,,,,,,,,,,,,,,,,,,,,,,,,,,,,,,,,,,,,,,,,,,,,,,,,,,,,,
,,,,,,5f82fd997dab234303560326,62bbfa1cb9fec65e60764b23,2022-06-29_10h07.34.672,Colour_Asymmetry_Pilot,2022.1.3,Win32,59.11912504,62bbe60bf3d75ef465d3e404,0,27,27,62,1,fourtwo,,,,,,,,,,,,,,,,,,,,,,,,,,,,,,,,,,,,,,,,,,,,,,,,,,,,,,,,,,,,,,,,,,,,,,,,,,,,,,,,,,,,,,,,,,,,,,,,,,,,,,,,,,,,,,,,,,,,,,,,,,,,,,,,,,,,,,,,,,,,,,,,,,,,,,,
,,,,,,5f82fd997dab234303560326,62bbfa1cb9fec65e60764b23,2022-06-29_10h07.34.672,Colour_Asymmetry_Pilot,2022.1.3,Win32,59.11912504,62bbe60bf3d75ef465d3e404,0,28,28,109,1,threefour,,,,,,,,,,,,,,,,,,,,,,,,,,,,,,,,,,,,,,,,,,,,,,,,,,,,,,,,,,,,,,,,,,,,,,,,,,,,,,,,,,,,,,,,,,,,,,,,,,,,,,,,,,,,,,,,,,,,,,,,,,,,,,,,,,,,,,,,,,,,,,,,,,,,,,,
,,,,,,5f82fd997dab234303560326,62bbfa1cb9fec65e60764b23,2022-06-29_10h07.34.672,Colour_Asymmetry_Pilot,2022.1.3,Win32,59.11912504,62bbe60bf3d75ef465d3e404,0,29,29,161,1,onethree,,,,,,,,,,,,,,,,,,,,,,,,,,,,,,,,,,,,,,,,,,,,,,,,,,,,,,,,,,,,,,,,,,,,,,,,,,,,,,,,,,,,,,,,,,,,,,,,,,,,,,,,,,,,,,,,,,,,,,,,,,,,,,,,,,,,,,,,,,,,,,,,,,,,,,,
,,,,,,5f82fd997dab234303560326,62bbfa1cb9fec65e60764b23,2022-06-29_10h07.34.672,Colour_Asymmetry_Pilot,2022.1.3,Win32,59.11912504,62bbe60bf3d75ef465d3e404,0,30,30,102,1,fourtwo,,,,,,,,,,,,,,,,,,,,,,,,,,,,,,,,,,,,,,,,,,,,,,,,,,,,,,,,,,,,,,,,,,,,,,,,,,,,,,,,,,,,,,,,,,,,,,,,,,,,,,,,,,,,,,,,,,,,,,,,,,,,,,,,,,,,,,,,,,,,,,,,,,,,,,,
,,,,,,5f82fd997dab234303560326,62bbfa1cb9fec65e60764b23,2022-06-29_10h07.34.672,Colour_Asymmetry_Pilot,2022.1.3,Win32,59.11912504,62bbe60bf3d75ef465d3e404,0,31,31,60,1,threeone,,,,,,,,,,,,,,,,,,,,,,,,,,,,,,,,,,,,,,,,,,,,,,,,,,,,,,,,,,,,,,,,,,,,,,,,,,,,,,,,,,,,,,,,,,,,,,,,,,,,,,,,,,,,,,,,,,,,,,,,,,,,,,,,,,,,,,,,,,,,,,,,,,,,,,,
,,,,,,5f82fd997dab234303560326,62bbfa1cb9fec65e60764b23,2022-06-29_10h07.34.672,Colour_Asymmetry_Pilot,2022.1.3,Win32,59.11912504,62bbe60bf3d75ef465d3e404,0,32,32,141,1,threefour,,,,,,,,,,,,,,,,,,,,,,,,,,,,,,,,,,,,,,,,,,,,,,,,,,,,,,,,,,,,,,,,,,,,,,,,,,,,,,,,,,,,,,,,,,,,,,,,,,,,,,,,,,,,,,,,,,,,,,,,,,,,,,,,,,,,,,,,,,,,,,,,,,,,,,,
,,,,,,5f82fd997dab234303560326,62bbfa1cb9fec65e60764b23,2022-06-29_10h07.34.672,Colour_Asymmetry_Pilot,2022.1.3,Win32,59.11912504,62bbe60bf3d75ef465d3e404,0,33,33,152,1,onetwo,,,,,,,,,,,,,,,,,,,,,,,,,,,,,,,,,,,,,,,,,,,,,,,,,,,,,,,,,,,,,,,,,,,,,,,,,,,,,,,,,,,,,,,,,,,,,,,,,,,,,,,,,,,,,,,,,,,,,,,,,,,,,,,,,,,,,,,,,,,,,,,,,,,,,,,
,,,,,,5f82fd997dab234303560326,62bbfa1cb9fec65e60764b23,2022-06-29_10h07.34.672,Colour_Asymmetry_Pilot,2022.1.3,Win32,59.11912504,62bbe60bf3d75ef465d3e404,0,34,34,101,1,threefour,,,,,,,,,,,,,,,,,,,,,,,,,,,,,,,,,,,,,,,,,,,,,,,,,,,,,,,,,,,,,,,,,,,,,,,,,,,,,,,,,,,,,,,,,,,,,,,,,,,,,,,,,,,,,,,,,,,,,,,,,,,,,,,,,,,,,,,,,,,,,,,,,,,,,,,
,,,,,,5f82fd997dab234303560326,62bbfa1cb9fec65e60764b23,2022-06-29_10h07.34.672,Colour_Asymmetry_Pilot,2022.1.3,Win32,59.11912504,62bbe60bf3d75ef465d3e404,0,35,35,34,1,twoone,,,,,,,,,,,,,,,,,,,,,,,,,,,,,,,,,,,,,,,,,,,,,,,,,,,,,,,,,,,,,,,,,,,,,,,,,,,,,,,,,,,,,,,,,,,,,,,,,,,,,,,,,,,,,,,,,,,,,,,,,,,,,,,,,,,,,,,,,,,,,,,,,,,,,,,
,,,,,,5f82fd997dab234303560326,62bbfa1cb9fec65e60764b23,2022-06-29_10h07.34.672,Colour_Asymmetry_Pilot,2022.1.3,Win32,59.11912504,62bbe60bf3d75ef465d3e404,0,36,36,124,1,threeone,,,,,,,,,,,,,,,,,,,,,,,,,,,,,,,,,,,,,,,,,,,,,,,,,,,,,,,,,,,,,,,,,,,,,,,,,,,,,,,,,,,,,,,,,,,,,,,,,,,,,,,,,,,,,,,,,,,,,,,,,,,,,,,,,,,,,,,,,,,,,,,,,,,,,,,
,,,,,,5f82fd997dab234303560326,62bbfa1cb9fec65e60764b23,2022-06-29_10h07.34.672,Colour_Asymmetry_Pilot,2022.1.3,Win32,59.11912504,62bbe60bf3d75ef465d3e404,0,37,37,78,1,fourtwo,,,,,,,,,,,,,,,,,,,,,,,,,,,,,,,,,,,,,,,,,,,,,,,,,,,,,,,,,,,,,,,,,,,,,,,,,,,,,,,,,,,,,,,,,,,,,,,,,,,,,,,,,,,,,,,,,,,,,,,,,,,,,,,,,,,,,,,,,,,,,,,,,,,,,,,
,,,,,,5f82fd997dab234303560326,62bbfa1cb9fec65e60764b23,2022-06-29_10h07.34.672,Colour_Asymmetry_Pilot,2022.1.3,Win32,59.11912504,62bbe60bf3d75ef465d3e404,0,38,38,87,1,fourthree,,,,,,,,,,,,,,,,,,,,,,,,,,,,,,,,,,,,,,,,,,,,,,,,,,,,,,,,,,,,,,,,,,,,,,,,,,,,,,,,,,,,,,,,,,,,,,,,,,,,,,,,,,,,,,,,,,,,,,,,,,,,,,,,,,,,,,,,,,,,,,,,,,,,,,,
,,,,,,5f82fd997dab234303560326,62bbfa1cb9fec65e60764b23,2022-06-29_10h07.34.672,Colour_Asymmetry_Pilot,2022.1.3,Win32,59.11912504,62bbe60bf3d75ef465d3e404,0,39,39,38,1,fourtwo,,,,,,,,,,,,,,,,,,,,,,,,,,,,,,,,,,,,,,,,,,,,,,,,,,,,,,,,,,,,,,,,,,,,,,,,,,,,,,,,,,,,,,,,,,,,,,,,,,,,,,,,,,,,,,,,,,,,,,,,,,,,,,,,,,,,,,,,,,,,,,,,,,,,,,,
,,,,,,5f82fd997dab234303560326,62bbfa1cb9fec65e60764b23,2022-06-29_10h07.34.672,Colour_Asymmetry_Pilot,2022.1.3,Win32,59.11912504,62bbe60bf3d75ef465d3e404,0,40,40,29,1,threefour,,,,,,,,,,,,,,,,,,,,,,,,,,,,,,,,,,,,,,,,,,,,,,,,,,,,,,,,,,,,,,,,,,,,,,,,,,,,,,,,,,,,,,,,,,,,,,,,,,,,,,,,,,,,,,,,,,,,,,,,,,,,,,,,,,,,,,,,,,,,,,,,,,,,,,,
,,,,,,5f82fd997dab234303560326,62bbfa1cb9fec65e60764b23,2022-06-29_10h07.34.672,Colour_Asymmetry_Pilot,2022.1.3,Win32,59.11912504,62bbe60bf3d75ef465d3e404,0,41,41,24,1,onetwo,,,,,,,,,,,,,,,,,,,,,,,,,,,,,,,,,,,,,,,,,,,,,,,,,,,,,,,,,,,,,,,,,,,,,,,,,,,,,,,,,,,,,,,,,,,,,,,,,,,,,,,,,,,,,,,,,,,,,,,,,,,,,,,,,,,,,,,,,,,,,,,,,,,,,,,
,,,,,,5f82fd997dab234303560326,62bbfa1cb9fec65e60764b23,2022-06-29_10h07.34.672,Colour_Asymmetry_Pilot,2022.1.3,Win32,59.11912504,62bbe60bf3d75ef465d3e404,0,42,42,149,1,threefour,,,,,,,,,,,,,,,,,,,,,,,,,,,,,,,,,,,,,,,,,,,,,,,,,,,,,,,,,,,,,,,,,,,,,,,,,,,,,,,,,,,,,,,,,,,,,,,,,,,,,,,,,,,,,,,,,,,,,,,,,,,,,,,,,,,,,,,,,,,,,,,,,,,,,,,
,,,,,,5f82fd997dab234303560326,62bbfa1cb9fec65e60764b23,2022-06-29_10h07.34.672,Colour_Asymmetry_Pilot,2022.1.3,Win32,59.11912504,62bbe60bf3d75ef465d3e404,0,43,43,153,1,onethree,,,,,,,,,,,,,,,,,,,,,,,,,,,,,,,,,,,,,,,,,,,,,,,,,,,,,,,,,,,,,,,,,,,,,,,,,,,,,,,,,,,,,,,,,,,,,,,,,,,,,,,,,,,,,,,,,,,,,,,,,,,,,,,,,,,,,,,,,,,,,,,,,,,,,,,
,,,,,,5f82fd997dab234303560326,62bbfa1cb9fec65e60764b23,2022-06-29_10h07.34.672,Colour_Asymmetry_Pilot,2022.1.3,Win32,59.11912504,62bbe60bf3d75ef465d3e404,0,44,44,39,1,fourthree,,,,,,,,,,,,,,,,,,,,,,,,,,,,,,,,,,,,,,,,,,,,,,,,,,,,,,,,,,,,,,,,,,,,,,,,,,,,,,,,,,,,,,,,,,,,,,,,,,,,,,,,,,,,,,,,,,,,,,,,,,,,,,,,,,,,,,,,,,,,,,,,,,,,,,,
,,,,,,5f82fd997dab234303560326,62bbfa1cb9fec65e60764b23,2022-06-29_10h07.34.672,Colour_Asymmetry_Pilot,2022.1.3,Win32,59.11912504,62bbe60bf3d75ef465d3e404,0,45,45,115,1,twofour,,,,,,,,,,,,,,,,,,,,,,,,,,,,,,,,,,,,,,,,,,,,,,,,,,,,,,,,,,,,,,,,,,,,,,,,,,,,,,,,,,,,,,,,,,,,,,,,,,,,,,,,,,,,,,,,,,,,,,,,,,,,,,,,,,,,,,,,,,,,,,,,,,,,,,,
,,,,,,5f82fd997dab234303560326,62bbfa1cb9fec65e60764b23,2022-06-29_10h07.34.672,Colour_Asymmetry_Pilot,2022.1.3,Win32,59.11912504,62bbe60bf3d75ef465d3e404,0,46,46,113,1,onethree,,,,,,,,,,,,,,,,,,,,,,,,,,,,,,,,,,,,,,,,,,,,,,,,,,,,,,,,,,,,,,,,,,,,,,,,,,,,,,,,,,,,,,,,,,,,,,,,,,,,,,,,,,,,,,,,,,,,,,,,,,,,,,,,,,,,,,,,,,,,,,,,,,,,,,,
,,,,,,5f82fd997dab234303560326,62bbfa1cb9fec65e60764b23,2022-06-29_10h07.34.672,Colour_Asymmetry_Pilot,2022.1.3,Win32,59.11912504,62bbe60bf3d75ef465d3e404,0,47,47,42,1,twoone,,,,,,,,,,,,,,,,,,,,,,,,,,,,,,,,,,,,,,,,,,,,,,,,,,,,,,,,,,,,,,,,,,,,,,,,,,,,,,,,,,,,,,,,,,,,,,,,,,,,,,,,,,,,,,,,,,,,,,,,,,,,,,,,,,,,,,,,,,,,,,,,,,,,,,,
,,,,,,5f82fd997dab234303560326,62bbfa1cb9fec65e60764b23,2022-06-29_10h07.34.672,Colour_Asymmetry_Pilot,2022.1.3,Win32,59.11912504,62bbe60bf3d75ef465d3e404,0,48,48,76,1,threeone,,,,,,,,,,,,,,,,,,,,,,,,,,,,,,,,,,,,,,,,,,,,,,,,,,,,,,,,,,,,,,,,,,,,,,,,,,,,,,,,,,,,,,,,,,,,,,,,,,,,,,,,,,,,,,,,,,,,,,,,,,,,,,,,,,,,,,,,,,,,,,,,,,,,,,,
,,,,,,5f82fd997dab234303560326,62bbfa1cb9fec65e60764b23,2022-06-29_10h07.34.672,Colour_Asymmetry_Pilot,2022.1.3,Win32,59.11912504,62bbe60bf3d75ef465d3e404,0,49,49,2,1,twoone,,,,,,,,,,,,,,,,,,,,,,,,,,,,,,,,,,,,,,,,,,,,,,,,,,,,,,,,,,,,,,,,,,,,,,,,,,,,,,,,,,,,,,,,,,,,,,,,,,,,,,,,,,,,,,,,,,,,,,,,,,,,,,,,,,,,,,,,,,,,,,,,,,,,,,,
,,,,,,5f82fd997dab234303560326,62bbfa1cb9fec65e60764b23,2022-06-29_10h07.34.672,Colour_Asymmetry_Pilot,2022.1.3,Win32,59.11912504,62bbe60bf3d75ef465d3e404,0,50,50,54,1,fourtwo,,,,,,,,,,,,,,,,,,,,,,,,,,,,,,,,,,,,,,,,,,,,,,,,,,,,,,,,,,,,,,,,,,,,,,,,,,,,,,,,,,,,,,,,,,,,,,,,,,,,,,,,,,,,,,,,,,,,,,,,,,,,,,,,,,,,,,,,,,,,,,,,,,,,,,,
,,,,,,5f82fd997dab234303560326,62bbfa1cb9fec65e60764b23,2022-06-29_10h07.34.672,Colour_Asymmetry_Pilot,2022.1.3,Win32,59.11912504,62bbe60bf3d75ef465d3e404,0,51,51,128,1,onetwo,,,,,,,,,,,,,,,,,,,,,,,,,,,,,,,,,,,,,,,,,,,,,,,,,,,,,,,,,,,,,,,,,,,,,,,,,,,,,,,,,,,,,,,,,,,,,,,,,,,,,,,,,,,,,,,,,,,,,,,,,,,,,,,,,,,,,,,,,,,,,,,,,,,,,,,
,,,,,,5f82fd997dab234303560326,62bbfa1cb9fec65e60764b23,2022-06-29_10h07.34.672,Colour_Asymmetry_Pilot,2022.1.3,Win32,59.11912504,62bbe60bf3d75ef465d3e404,0,52,52,82,1,twoone,,,,,,,,,,,,,,,,,,,,,,,,,,,,,,,,,,,,,,,,,,,,,,,,,,,,,,,,,,,,,,,,,,,,,,,,,,,,,,,,,,,,,,,,,,,,,,,,,,,,,,,,,,,,,,,,,,,,,,,,,,,,,,,,,,,,,,,,,,,,,,,,,,,,,,,
,,,,,,5f82fd997dab234303560326,62bbfa1cb9fec65e60764b23,2022-06-29_10h07.34.672,Colour_Asymmetry_Pilot,2022.1.3,Win32,59.11912504,62bbe60bf3d75ef465d3e404,0,53,53,28,1,threeone,,,,,,,,,,,,,,,,,,,,,,,,,,,,,,,,,,,,,,,,,,,,,,,,,,,,,,,,,,,,,,,,,,,,,,,,,,,,,,,,,,,,,,,,,,,,,,,,,,,,,,,,,,,,,,,,,,,,,,,,,,,,,,,,,,,,,,,,,,,,,,,,,,,,,,,
,,,,,,5f82fd997dab234303560326,62bbfa1cb9fec65e60764b23,2022-06-29_10h07.34.672,Colour_Asymmetry_Pilot,2022.1.3,Win32,59.11912504,62bbe60bf3d75ef465d3e404,0,54,54,91,1,twofour,,,,,,,,,,,,,,,,,,,,,,,,,,,,,,,,,,,,,,,,,,,,,,,,,,,,,,,,,,,,,,,,,,,,,,,,,,,,,,,,,,,,,,,,,,,,,,,,,,,,,,,,,,,,,,,,,,,,,,,,,,,,,,,,,,,,,,,,,,,,,,,,,,,,,,,
,,,,,,5f82fd997dab234303560326,62bbfa1cb9fec65e60764b23,2022-06-29_10h07.34.672,Colour_Asymmetry_Pilot,2022.1.3,Win32,59.11912504,62bbe60bf3d75ef465d3e404,0,55,55,129,1,onethree,,,,,,,,,,,,,,,,,,,,,,,,,,,,,,,,,,,,,,,,,,,,,,,,,,,,,,,,,,,,,,,,,,,,,,,,,,,,,,,,,,,,,,,,,,,,,,,,,,,,,,,,,,,,,,,,,,,,,,,,,,,,,,,,,,,,,,,,,,,,,,,,,,,,,,,
,,,,,,5f82fd997dab234303560326,62bbfa1cb9fec65e60764b23,2022-06-29_10h07.34.672,Colour_Asymmetry_Pilot,2022.1.3,Win32,59.11912504,62bbe60bf3d75ef465d3e404,0,56,56,143,1,fourthree,,,,,,,,,,,,,,,,,,,,,,,,,,,,,,,,,,,,,,,,,,,,,,,,,,,,,,,,,,,,,,,,,,,,,,,,,,,,,,,,,,,,,,,,,,,,,,,,,,,,,,,,,,,,,,,,,,,,,,,,,,,,,,,,,,,,,,,,,,,,,,,,,,,,,,,
,,,,,,5f82fd997dab234303560326,62bbfa1cb9fec65e60764b23,2022-06-29_10h07.34.672,Colour_Asymmetry_Pilot,2022.1.3,Win32,59.11912504,62bbe60bf3d75ef465d3e404,0,57,57,25,1,onethree,,,,,,,,,,,,,,,,,,,,,,,,,,,,,,,,,,,,,,,,,,,,,,,,,,,,,,,,,,,,,,,,,,,,,,,,,,,,,,,,,,,,,,,,,,,,,,,,,,,,,,,,,,,,,,,,,,,,,,,,,,,,,,,,,,,,,,,,,,,,,,,,,,,,,,,
,,,,,,5f82fd997dab234303560326,62bbfa1cb9fec65e60764b23,2022-06-29_10h07.34.672,Colour_Asymmetry_Pilot,2022.1.3,Win32,59.11912504,62bbe60bf3d75ef465d3e404,0,58,58,10,1,twoone,,,,,,,,,,,,,,,,,,,,,,,,,,,,,,,,,,,,,,,,,,,,,,,,,,,,,,,,,,,,,,,,,,,,,,,,,,,,,,,,,,,,,,,,,,,,,,,,,,,,,,,,,,,,,,,,,,,,,,,,,,,,,,,,,,,,,,,,,,,,,,,,,,,,,,,
,,,,,,5f82fd997dab234303560326,62bbfa1cb9fec65e60764b23,2022-06-29_10h07.34.672,Colour_Asymmetry_Pilot,2022.1.3,Win32,59.11912504,62bbe60bf3d75ef465d3e404,0,59,59,136,1,onetwo,,,,,,,,,,,,,,,,,,,,,,,,,,,,,,,,,,,,,,,,,,,,,,,,,,,,,,,,,,,,,,,,,,,,,,,,,,,,,,,,,,,,,,,,,,,,,,,,,,,,,,,,,,,,,,,,,,,,,,,,,,,,,,,,,,,,,,,,,,,,,,,,,,,,,,,
,,,,,,5f82fd997dab234303560326,62bbfa1cb9fec65e60764b23,2022-06-29_10h07.34.672,Colour_Asymmetry_Pilot,2022.1.3,Win32,59.11912504,62bbe60bf3d75ef465d3e404,0,60,60,8,1,onetwo,,,,,,,,,,,,,,,,,,,,,,,,,,,,,,,,,,,,,,,,,,,,,,,,,,,,,,,,,,,,,,,,,,,,,,,,,,,,,,,,,,,,,,,,,,,,,,,,,,,,,,,,,,,,,,,,,,,,,,,,,,,,,,,,,,,,,,,,,,,,,,,,,,,,,,,
,,,,,,5f82fd997dab234303560326,62bbfa1cb9fec65e60764b23,2022-06-29_10h07.34.672,Colour_Asymmetry_Pilot,2022.1.3,Win32,59.11912504,62bbe60bf3d75ef465d3e404,0,61,61,6,1,fourtwo,,,,,,,,,,,,,,,,,,,,,,,,,,,,,,,,,,,,,,,,,,,,,,,,,,,,,,,,,,,,,,,,,,,,,,,,,,,,,,,,,,,,,,,,,,,,,,,,,,,,,,,,,,,,,,,,,,,,,,,,,,,,,,,,,,,,,,,,,,,,,,,,,,,,,,,
,,,,,,5f82fd997dab234303560326,62bbfa1cb9fec65e60764b23,2022-06-29_10h07.34.672,Colour_Asymmetry_Pilot,2022.1.3,Win32,59.11912504,62bbe60bf3d75ef465d3e404,0,62,62,16,1,onetwo,,,,,,,,,,,,,,,,,,,,,,,,,,,,,,,,,,,,,,,,,,,,,,,,,,,,,,,,,,,,,,,,,,,,,,,,,,,,,,,,,,,,,,,,,,,,,,,,,,,,,,,,,,,,,,,,,,,,,,,,,,,,,,,,,,,,,,,,,,,,,,,,,,,,,,,
,,,,,,5f82fd997dab234303560326,62bbfa1cb9fec65e60764b23,2022-06-29_10h07.34.672,Colour_Asymmetry_Pilot,2022.1.3,Win32,59.11912504,62bbe60bf3d75ef465d3e404,0,63,63,147,1,twofour,,,,,,,,,,,,,,,,,,,,,,,,,,,,,,,,,,,,,,,,,,,,,,,,,,,,,,,,,,,,,,,,,,,,,,,,,,,,,,,,,,,,,,,,,,,,,,,,,,,,,,,,,,,,,,,,,,,,,,,,,,,,,,,,,,,,,,,,,,,,,,,,,,,,,,,
,,,,,,5f82fd997dab234303560326,62bbfa1cb9fec65e60764b23,2022-06-29_10h07.34.672,Colour_Asymmetry_Pilot,2022.1.3,Win32,59.11912504,62bbe60bf3d75ef465d3e404,0,64,64,52,1,threeone,,,,,,,,,,,,,,,,,,,,,,,,,,,,,,,,,,,,,,,,,,,,,,,,,,,,,,,,,,,,,,,,,,,,,,,,,,,,,,,,,,,,,,,,,,,,,,,,,,,,,,,,,,,,,,,,,,,,,,,,,,,,,,,,,,,,,,,,,,,,,,,,,,,,,,,
,,,,,,5f82fd997dab234303560326,62bbfa1cb9fec65e60764b23,2022-06-29_10h07.34.672,Colour_Asymmetry_Pilot,2022.1.3,Win32,59.11912504,62bbe60bf3d75ef465d3e404,0,65,65,26,1,twoone,,,,,,,,,,,,,,,,,,,,,,,,,,,,,,,,,,,,,,,,,,,,,,,,,,,,,,,,,,,,,,,,,,,,,,,,,,,,,,,,,,,,,,,,,,,,,,,,,,,,,,,,,,,,,,,,,,,,,,,,,,,,,,,,,,,,,,,,,,,,,,,,,,,,,,,
,,,,,,5f82fd997dab234303560326,62bbfa1cb9fec65e60764b23,2022-06-29_10h07.34.672,Colour_Asymmetry_Pilot,2022.1.3,Win32,59.11912504,62bbe60bf3d75ef465d3e404,0,66,66,118,1,fourtwo,,,,,,,,,,,,,,,,,,,,,,,,,,,,,,,,,,,,,,,,,,,,,,,,,,,,,,,,,,,,,,,,,,,,,,,,,,,,,,,,,,,,,,,,,,,,,,,,,,,,,,,,,,,,,,,,,,,,,,,,,,,,,,,,,,,,,,,,,,,,,,,,,,,,,,,
,,,,,,5f82fd997dab234303560326,62bbfa1cb9fec65e60764b23,2022-06-29_10h07.34.672,Colour_Asymmetry_Pilot,2022.1.3,Win32,59.11912504,62bbe60bf3d75ef465d3e404,0,67,67,155,1,twofour,,,,,,,,,,,,,,,,,,,,,,,,,,,,,,,,,,,,,,,,,,,,,,,,,,,,,,,,,,,,,,,,,,,,,,,,,,,,,,,,,,,,,,,,,,,,,,,,,,,,,,,,,,,,,,,,,,,,,,,,,,,,,,,,,,,,,,,,,,,,,,,,,,,,,,,
,,,,,,5f82fd997dab234303560326,62bbfa1cb9fec65e60764b23,2022-06-29_10h07.34.672,Colour_Asymmetry_Pilot,2022.1.3,Win32,59.11912504,62bbe60bf3d75ef465d3e404,0,68,68,97,1,onethree,,,,,,,,,,,,,,,,,,,,,,,,,,,,,,,,,,,,,,,,,,,,,,,,,,,,,,,,,,,,,,,,,,,,,,,,,,,,,,,,,,,,,,,,,,,,,,,,,,,,,,,,,,,,,,,,,,,,,,,,,,,,,,,,,,,,,,,,,,,,,,,,,,,,,,,
,,,,,,5f82fd997dab234303560326,62bbfa1cb9fec65e60764b23,2022-06-29_10h07.34.672,Colour_Asymmetry_Pilot,2022.1.3,Win32,59.11912504,62bbe60bf3d75ef465d3e404,0,69,69,4,1,threeone,,,,,,,,,,,,,,,,,,,,,,,,,,,,,,,,,,,,,,,,,,,,,,,,,,,,,,,,,,,,,,,,,,,,,,,,,,,,,,,,,,,,,,,,,,,,,,,,,,,,,,,,,,,,,,,,,,,,,,,,,,,,,,,,,,,,,,,,,,,,,,,,,,,,,,,
,,,,,,5f82fd997dab234303560326,62bbfa1cb9fec65e60764b23,2022-06-29_10h07.34.672,Colour_Asymmetry_Pilot,2022.1.3,Win32,59.11912504,62bbe60bf3d75ef465d3e404,0,70,70,144,1,onetwo,,,,,,,,,,,,,,,,,,,,,,,,,,,,,,,,,,,,,,,,,,,,,,,,,,,,,,,,,,,,,,,,,,,,,,,,,,,,,,,,,,,,,,,,,,,,,,,,,,,,,,,,,,,,,,,,,,,,,,,,,,,,,,,,,,,,,,,,,,,,,,,,,,,,,,,
,,,,,,5f82fd997dab234303560326,62bbfa1cb9fec65e60764b23,2022-06-29_10h07.34.672,Colour_Asymmetry_Pilot,2022.1.3,Win32,59.11912504,62bbe60bf3d75ef465d3e404,0,71,71,159,1,fourthree,,,,,,,,,,,,,,,,,,,,,,,,,,,,,,,,,,,,,,,,,,,,,,,,,,,,,,,,,,,,,,,,,,,,,,,,,,,,,,,,,,,,,,,,,,,,,,,,,,,,,,,,,,,,,,,,,,,,,,,,,,,,,,,,,,,,,,,,,,,,,,,,,,,,,,,
,,,,,,5f82fd997dab234303560326,62bbfa1cb9fec65e60764b23,2022-06-29_10h07.34.672,Colour_Asymmetry_Pilot,2022.1.3,Win32,59.11912504,62bbe60bf3d75ef465d3e404,0,72,72,125,1,threefour,,,,,,,,,,,,,,,,,,,,,,,,,,,,,,,,,,,,,,,,,,,,,,,,,,,,,,,,,,,,,,,,,,,,,,,,,,,,,,,,,,,,,,,,,,,,,,,,,,,,,,,,,,,,,,,,,,,,,,,,,,,,,,,,,,,,,,,,,,,,,,,,,,,,,,,
,,,,,,5f82fd997dab234303560326,62bbfa1cb9fec65e60764b23,2022-06-29_10h07.34.672,Colour_Asymmetry_Pilot,2022.1.3,Win32,59.11912504,62bbe60bf3d75ef465d3e404,0,73,73,47,1,fourthree,,,,,,,,,,,,,,,,,,,,,,,,,,,,,,,,,,,,,,,,,,,,,,,,,,,,,,,,,,,,,,,,,,,,,,,,,,,,,,,,,,,,,,,,,,,,,,,,,,,,,,,,,,,,,,,,,,,,,,,,,,,,,,,,,,,,,,,,,,,,,,,,,,,,,,,
,,,,,,5f82fd997dab234303560326,62bbfa1cb9fec65e60764b23,2022-06-29_10h07.34.672,Colour_Asymmetry_Pilot,2022.1.3,Win32,59.11912504,62bbe60bf3d75ef465d3e404,0,74,74,90,1,twoone,,,,,,,,,,,,,,,,,,,,,,,,,,,,,,,,,,,,,,,,,,,,,,,,,,,,,,,,,,,,,,,,,,,,,,,,,,,,,,,,,,,,,,,,,,,,,,,,,,,,,,,,,,,,,,,,,,,,,,,,,,,,,,,,,,,,,,,,,,,,,,,,,,,,,,,
,,,,,,5f82fd997dab234303560326,62bbfa1cb9fec65e60764b23,2022-06-29_10h07.34.672,Colour_Asymmetry_Pilot,2022.1.3,Win32,59.11912504,62bbe60bf3d75ef465d3e404,0,75,75,95,1,fourthree,,,,,,,,,,,,,,,,,,,,,,,,,,,,,,,,,,,,,,,,,,,,,,,,,,,,,,,,,,,,,,,,,,,,,,,,,,,,,,,,,,,,,,,,,,,,,,,,,,,,,,,,,,,,,,,,,,,,,,,,,,,,,,,,,,,,,,,,,,,,,,,,,,,,,,,
,,,,,,5f82fd997dab234303560326,62bbfa1cb9fec65e60764b23,2022-06-29_10h07.34.672,Colour_Asymmetry_Pilot,2022.1.3,Win32,59.11912504,62bbe60bf3d75ef465d3e404,0,76,76,46,1,fourtwo,,,,,,,,,,,,,,,,,,,,,,,,,,,,,,,,,,,,,,,,,,,,,,,,,,,,,,,,,,,,,,,,,,,,,,,,,,,,,,,,,,,,,,,,,,,,,,,,,,,,,,,,,,,,,,,,,,,,,,,,,,,,,,,,,,,,,,,,,,,,,,,,,,,,,,,
,,,,,,5f82fd997dab234303560326,62bbfa1cb9fec65e60764b23,2022-06-29_10h07.34.672,Colour_Asymmetry_Pilot,2022.1.3,Win32,59.11912504,62bbe60bf3d75ef465d3e404,0,77,77,58,1,twoone,,,,,,,,,,,,,,,,,,,,,,,,,,,,,,,,,,,,,,,,,,,,,,,,,,,,,,,,,,,,,,,,,,,,,,,,,,,,,,,,,,,,,,,,,,,,,,,,,,,,,,,,,,,,,,,,,,,,,,,,,,,,,,,,,,,,,,,,,,,,,,,,,,,,,,,
,,,,,,5f82fd997dab234303560326,62bbfa1cb9fec65e60764b23,2022-06-29_10h07.34.672,Colour_Asymmetry_Pilot,2022.1.3,Win32,59.11912504,62bbe60bf3d75ef465d3e404,0,78,78,135,1,fourthree,,,,,,,,,,,,,,,,,,,,,,,,,,,,,,,,,,,,,,,,,,,,,,,,,,,,,,,,,,,,,,,,,,,,,,,,,,,,,,,,,,,,,,,,,,,,,,,,,,,,,,,,,,,,,,,,,,,,,,,,,,,,,,,,,,,,,,,,,,,,,,,,,,,,,,,
,,,,,,5f82fd997dab234303560326,62bbfa1cb9fec65e60764b23,2022-06-29_10h07.34.672,Colour_Asymmetry_Pilot,2022.1.3,Win32,59.11912504,62bbe60bf3d75ef465d3e404,0,79,79,116,1,threeone,,,,,,,,,,,,,,,,,,,,,,,,,,,,,,,,,,,,,,,,,,,,,,,,,,,,,,,,,,,,,,,,,,,,,,,,,,,,,,,,,,,,,,,,,,,,,,,,,,,,,,,,,,,,,,,,,,,,,,,,,,,,,,,,,,,,,,,,,,,,,,,,,,,,,,,
,,,,,,5f82fd997dab234303560326,62bbfa1cb9fec65e60764b23,2022-06-29_10h07.34.672,Colour_Asymmetry_Pilot,2022.1.3,Win32,59.11912504,62bbe60bf3d75ef465d3e404,0,80,80,5,1,threefour,,,,,,,,,,,,,,,,,,,,,,,,,,,,,,,,,,,,,,,,,,,,,,,,,,,,,,,,,,,,,,,,,,,,,,,,,,,,,,,,,,,,,,,,,,,,,,,,,,,,,,,,,,,,,,,,,,,,,,,,,,,,,,,,,,,,,,,,,,,,,,,,,,,,,,,
,,,,,,5f82fd997dab234303560326,62bbfa1cb9fec65e60764b23,2022-06-29_10h07.34.672,Colour_Asymmetry_Pilot,2022.1.3,Win32,59.11912504,62bbe60bf3d75ef465d3e404,0,81,81,121,1,onethree,,,,,,,,,,,,,,,,,,,,,,,,,,,,,,,,,,,,,,,,,,,,,,,,,,,,,,,,,,,,,,,,,,,,,,,,,,,,,,,,,,,,,,,,,,,,,,,,,,,,,,,,,,,,,,,,,,,,,,,,,,,,,,,,,,,,,,,,,,,,,,,,,,,,,,,
,,,,,,5f82fd997dab234303560326,62bbfa1cb9fec65e60764b23,2022-06-29_10h07.34.672,Colour_Asymmetry_Pilot,2022.1.3,Win32,59.11912504,62bbe60bf3d75ef465d3e404,0,82,82,85,1,threefour,,,,,,,,,,,,,,,,,,,,,,,,,,,,,,,,,,,,,,,,,,,,,,,,,,,,,,,,,,,,,,,,,,,,,,,,,,,,,,,,,,,,,,,,,,,,,,,,,,,,,,,,,,,,,,,,,,,,,,,,,,,,,,,,,,,,,,,,,,,,,,,,,,,,,,,
,,,,,,5f82fd997dab234303560326,62bbfa1cb9fec65e60764b23,2022-06-29_10h07.34.672,Colour_Asymmetry_Pilot,2022.1.3,Win32,59.11912504,62bbe60bf3d75ef465d3e404,0,83,83,51,1,twofour,,,,,,,,,,,,,,,,,,,,,,,,,,,,,,,,,,,,,,,,,,,,,,,,,,,,,,,,,,,,,,,,,,,,,,,,,,,,,,,,,,,,,,,,,,,,,,,,,,,,,,,,,,,,,,,,,,,,,,,,,,,,,,,,,,,,,,,,,,,,,,,,,,,,,,,
,,,,,,5f82fd997dab234303560326,62bbfa1cb9fec65e60764b23,2022-06-29_10h07.34.672,Colour_Asymmetry_Pilot,2022.1.3,Win32,59.11912504,62bbe60bf3d75ef465d3e404,0,84,84,17,1,onethree,,,,,,,,,,,,,,,,,,,,,,,,,,,,,,,,,,,,,,,,,,,,,,,,,,,,,,,,,,,,,,,,,,,,,,,,,,,,,,,,,,,,,,,,,,,,,,,,,,,,,,,,,,,,,,,,,,,,,,,,,,,,,,,,,,,,,,,,,,,,,,,,,,,,,,,
,,,,,,5f82fd997dab234303560326,62bbfa1cb9fec65e60764b23,2022-06-29_10h07.34.672,Colour_Asymmetry_Pilot,2022.1.3,Win32,59.11912504,62bbe60bf3d75ef465d3e404,0,85,85,133,1,threefour,,,,,,,,,,,,,,,,,,,,,,,,,,,,,,,,,,,,,,,,,,,,,,,,,,,,,,,,,,,,,,,,,,,,,,,,,,,,,,,,,,,,,,,,,,,,,,,,,,,,,,,,,,,,,,,,,,,,,,,,,,,,,,,,,,,,,,,,,,,,,,,,,,,,,,,
,,,,,,5f82fd997dab234303560326,62bbfa1cb9fec65e60764b23,2022-06-29_10h07.34.672,Colour_Asymmetry_Pilot,2022.1.3,Win32,59.11912504,62bbe60bf3d75ef465d3e404,0,86,86,72,1,onetwo,,,,,,,,,,,,,,,,,,,,,,,,,,,,,,,,,,,,,,,,,,,,,,,,,,,,,,,,,,,,,,,,,,,,,,,,,,,,,,,,,,,,,,,,,,,,,,,,,,,,,,,,,,,,,,,,,,,,,,,,,,,,,,,,,,,,,,,,,,,,,,,,,,,,,,,
,,,,,,5f82fd997dab234303560326,62bbfa1cb9fec65e60764b23,2022-06-29_10h07.34.672,Colour_Asymmetry_Pilot,2022.1.3,Win32,59.11912504,62bbe60bf3d75ef465d3e404,0,87,87,48,1,onetwo,,,,,,,,,,,,,,,,,,,,,,,,,,,,,,,,,,,,,,,,,,,,,,,,,,,,,,,,,,,,,,,,,,,,,,,,,,,,,,,,,,,,,,,,,,,,,,,,,,,,,,,,,,,,,,,,,,,,,,,,,,,,,,,,,,,,,,,,,,,,,,,,,,,,,,,
,,,,,,5f82fd997dab234303560326,62bbfa1cb9fec65e60764b23,2022-06-29_10h07.34.672,Colour_Asymmetry_Pilot,2022.1.3,Win32,59.11912504,62bbe60bf3d75ef465d3e404,0,88,88,119,1,fourthree,,,,,,,,,,,,,,,,,,,,,,,,,,,,,,,,,,,,,,,,,,,,,,,,,,,,,,,,,,,,,,,,,,,,,,,,,,,,,,,,,,,,,,,,,,,,,,,,,,,,,,,,,,,,,,,,,,,,,,,,,,,,,,,,,,,,,,,,,,,,,,,,,,,,,,,
,,,,,,5f82fd997dab234303560326,62bbfa1cb9fec65e60764b23,2022-06-29_10h07.34.672,Colour_Asymmetry_Pilot,2022.1.3,Win32,59.11912504,62bbe60bf3d75ef465d3e404,0,89,89,122,1,twoone,,,,,,,,,,,,,,,,,,,,,,,,,,,,,,,,,,,,,,,,,,,,,,,,,,,,,,,,,,,,,,,,,,,,,,,,,,,,,,,,,,,,,,,,,,,,,,,,,,,,,,,,,,,,,,,,,,,,,,,,,,,,,,,,,,,,,,,,,,,,,,,,,,,,,,,
,,,,,,5f82fd997dab234303560326,62bbfa1cb9fec65e60764b23,2022-06-29_10h07.34.672,Colour_Asymmetry_Pilot,2022.1.3,Win32,59.11912504,62bbe60bf3d75ef465d3e404,0,90,90,126,1,fourtwo,,,,,,,,,,,,,,,,,,,,,,,,,,,,,,,,,,,,,,,,,,,,,,,,,,,,,,,,,,,,,,,,,,,,,,,,,,,,,,,,,,,,,,,,,,,,,,,,,,,,,,,,,,,,,,,,,,,,,,,,,,,,,,,,,,,,,,,,,,,,,,,,,,,,,,,
,,,,,,5f82fd997dab234303560326,62bbfa1cb9fec65e60764b23,2022-06-29_10h07.34.672,Colour_Asymmetry_Pilot,2022.1.3,Win32,59.11912504,62bbe60bf3d75ef465d3e404,0,91,91,117,1,threefour,,,,,,,,,,,,,,,,,,,,,,,,,,,,,,,,,,,,,,,,,,,,,,,,,,,,,,,,,,,,,,,,,,,,,,,,,,,,,,,,,,,,,,,,,,,,,,,,,,,,,,,,,,,,,,,,,,,,,,,,,,,,,,,,,,,,,,,,,,,,,,,,,,,,,,,
,,,,,,5f82fd997dab234303560326,62bbfa1cb9fec65e60764b23,2022-06-29_10h07.34.672,Colour_Asymmetry_Pilot,2022.1.3,Win32,59.11912504,62bbe60bf3d75ef465d3e404,0,92,92,93,1,threefour,,,,,,,,,,,,,,,,,,,,,,,,,,,,,,,,,,,,,,,,,,,,,,,,,,,,,,,,,,,,,,,,,,,,,,,,,,,,,,,,,,,,,,,,,,,,,,,,,,,,,,,,,,,,,,,,,,,,,,,,,,,,,,,,,,,,,,,,,,,,,,,,,,,,,,,
,,,,,,5f82fd997dab234303560326,62bbfa1cb9fec65e60764b23,2022-06-29_10h07.34.672,Colour_Asymmetry_Pilot,2022.1.3,Win32,59.11912504,62bbe60bf3d75ef465d3e404,0,93,93,69,1,threefour,,,,,,,,,,,,,,,,,,,,,,,,,,,,,,,,,,,,,,,,,,,,,,,,,,,,,,,,,,,,,,,,,,,,,,,,,,,,,,,,,,,,,,,,,,,,,,,,,,,,,,,,,,,,,,,,,,,,,,,,,,,,,,,,,,,,,,,,,,,,,,,,,,,,,,,
,,,,,,5f82fd997dab234303560326,62bbfa1cb9fec65e60764b23,2022-06-29_10h07.34.672,Colour_Asymmetry_Pilot,2022.1.3,Win32,59.11912504,62bbe60bf3d75ef465d3e404,0,94,94,127,1,fourthree,,,,,,,,,,,,,,,,,,,,,,,,,,,,,,,,,,,,,,,,,,,,,,,,,,,,,,,,,,,,,,,,,,,,,,,,,,,,,,,,,,,,,,,,,,,,,,,,,,,,,,,,,,,,,,,,,,,,,,,,,,,,,,,,,,,,,,,,,,,,,,,,,,,,,,,
,,,,,,5f82fd997dab234303560326,62bbfa1cb9fec65e60764b23,2022-06-29_10h07.34.672,Colour_Asymmetry_Pilot,2022.1.3,Win32,59.11912504,62bbe60bf3d75ef465d3e404,0,95,95,94,1,fourtwo,,,,,,,,,,,,,,,,,,,,,,,,,,,,,,,,,,,,,,,,,,,,,,,,,,,,,,,,,,,,,,,,,,,,,,,,,,,,,,,,,,,,,,,,,,,,,,,,,,,,,,,,,,,,,,,,,,,,,,,,,,,,,,,,,,,,,,,,,,,,,,,,,,,,,,,
,,,,,,5f82fd997dab234303560326,62bbfa1cb9fec65e60764b23,2022-06-29_10h07.34.672,Colour_Asymmetry_Pilot,2022.1.3,Win32,59.11912504,62bbe60bf3d75ef465d3e404,0,96,96,132,1,threeone,,,,,,,,,,,,,,,,,,,,,,,,,,,,,,,,,,,,,,,,,,,,,,,,,,,,,,,,,,,,,,,,,,,,,,,,,,,,,,,,,,,,,,,,,,,,,,,,,,,,,,,,,,,,,,,,,,,,,,,,,,,,,,,,,,,,,,,,,,,,,,,,,,,,,,,
,,,,,,5f82fd997dab234303560326,62bbfa1cb9fec65e60764b23,2022-06-29_10h07.34.672,Colour_Asymmetry_Pilot,2022.1.3,Win32,59.11912504,62bbe60bf3d75ef465d3e404,0,97,97,96,1,onetwo,,,,,,,,,,,,,,,,,,,,,,,,,,,,,,,,,,,,,,,,,,,,,,,,,,,,,,,,,,,,,,,,,,,,,,,,,,,,,,,,,,,,,,,,,,,,,,,,,,,,,,,,,,,,,,,,,,,,,,,,,,,,,,,,,,,,,,,,,,,,,,,,,,,,,,,
,,,,,,5f82fd997dab234303560326,62bbfa1cb9fec65e60764b23,2022-06-29_10h07.34.672,Colour_Asymmetry_Pilot,2022.1.3,Win32,59.11912504,62bbe60bf3d75ef465d3e404,0,98,98,12,1,threeone,,,,,,,,,,,,,,,,,,,,,,,,,,,,,,,,,,,,,,,,,,,,,,,,,,,,,,,,,,,,,,,,,,,,,,,,,,,,,,,,,,,,,,,,,,,,,,,,,,,,,,,,,,,,,,,,,,,,,,,,,,,,,,,,,,,,,,,,,,,,,,,,,,,,,,,
,,,,,,5f82fd997dab234303560326,62bbfa1cb9fec65e60764b23,2022-06-29_10h07.34.672,Colour_Asymmetry_Pilot,2022.1.3,Win32,59.11912504,62bbe60bf3d75ef465d3e404,0,99,99,73,1,onethree,,,,,,,,,,,,,,,,,,,,,,,,,,,,,,,,,,,,,,,,,,,,,,,,,,,,,,,,,,,,,,,,,,,,,,,,,,,,,,,,,,,,,,,,,,,,,,,,,,,,,,,,,,,,,,,,,,,,,,,,,,,,,,,,,,,,,,,,,,,,,,,,,,,,,,,
,,,,,,5f82fd997dab234303560326,62bbfa1cb9fec65e60764b23,2022-06-29_10h07.34.672,Colour_Asymmetry_Pilot,2022.1.3,Win32,59.11912504,62bbe60bf3d75ef465d3e404,0,100,100,134,1,fourtwo,,,,,,,,,,,,,,,,,,,,,,,,,,,,,,,,,,,,,,,,,,,,,,,,,,,,,,,,,,,,,,,,,,,,,,,,,,,,,,,,,,,,,,,,,,,,,,,,,,,,,,,,,,,,,,,,,,,,,,,,,,,,,,,,,,,,,,,,,,,,,,,,,,,,,,,
,,,,,,5f82fd997dab234303560326,62bbfa1cb9fec65e60764b23,2022-06-29_10h07.34.672,Colour_Asymmetry_Pilot,2022.1.3,Win32,59.11912504,62bbe60bf3d75ef465d3e404,0,101,101,130,1,twoone,,,,,,,,,,,,,,,,,,,,,,,,,,,,,,,,,,,,,,,,,,,,,,,,,,,,,,,,,,,,,,,,,,,,,,,,,,,,,,,,,,,,,,,,,,,,,,,,,,,,,,,,,,,,,,,,,,,,,,,,,,,,,,,,,,,,,,,,,,,,,,,,,,,,,,,
,,,,,,5f82fd997dab234303560326,62bbfa1cb9fec65e60764b23,2022-06-29_10h07.34.672,Colour_Asymmetry_Pilot,2022.1.3,Win32,59.11912504,62bbe60bf3d75ef465d3e404,0,102,102,80,1,onetwo,,,,,,,,,,,,,,,,,,,,,,,,,,,,,,,,,,,,,,,,,,,,,,,,,,,,,,,,,,,,,,,,,,,,,,,,,,,,,,,,,,,,,,,,,,,,,,,,,,,,,,,,,,,,,,,,,,,,,,,,,,,,,,,,,,,,,,,,,,,,,,,,,,,,,,,
,,,,,,5f82fd997dab234303560326,62bbfa1cb9fec65e60764b23,2022-06-29_10h07.34.672,Colour_Asymmetry_Pilot,2022.1.3,Win32,59.11912504,62bbe60bf3d75ef465d3e404,0,103,103,68,1,threeone,,,,,,,,,,,,,,,,,,,,,,,,,,,,,,,,,,,,,,,,,,,,,,,,,,,,,,,,,,,,,,,,,,,,,,,,,,,,,,,,,,,,,,,,,,,,,,,,,,,,,,,,,,,,,,,,,,,,,,,,,,,,,,,,,,,,,,,,,,,,,,,,,,,,,,,
,,,,,,5f82fd997dab234303560326,62bbfa1cb9fec65e60764b23,2022-06-29_10h07.34.672,Colour_Asymmetry_Pilot,2022.1.3,Win32,59.11912504,62bbe60bf3d75ef465d3e404,0,104,104,160,1,onetwo,,,,,,,,,,,,,,,,,,,,,,,,,,,,,,,,,,,,,,,,,,,,,,,,,,,,,,,,,,,,,,,,,,,,,,,,,,,,,,,,,,,,,,,,,,,,,,,,,,,,,,,,,,,,,,,,,,,,,,,,,,,,,,,,,,,,,,,,,,,,,,,,,,,,,,,
,,,,,,5f82fd997dab234303560326,62bbfa1cb9fec65e60764b23,2022-06-29_10h07.34.672,Colour_Asymmetry_Pilot,2022.1.3,Win32,59.11912504,62bbe60bf3d75ef465d3e404,0,105,105,99,1,twofour,,,,,,,,,,,,,,,,,,,,,,,,,,,,,,,,,,,,,,,,,,,,,,,,,,,,,,,,,,,,,,,,,,,,,,,,,,,,,,,,,,,,,,,,,,,,,,,,,,,,,,,,,,,,,,,,,,,,,,,,,,,,,,,,,,,,,,,,,,,,,,,,,,,,,,,
,,,,,,5f82fd997dab234303560326,62bbfa1cb9fec65e60764b23,2022-06-29_10h07.34.672,Colour_Asymmetry_Pilot,2022.1.3,Win32,59.11912504,62bbe60bf3d75ef465d3e404,0,106,106,148,1,threeone,,,,,,,,,,,,,,,,,,,,,,,,,,,,,,,,,,,,,,,,,,,,,,,,,,,,,,,,,,,,,,,,,,,,,,,,,,,,,,,,,,,,,,,,,,,,,,,,,,,,,,,,,,,,,,,,,,,,,,,,,,,,,,,,,,,,,,,,,,,,,,,,,,,,,,,
,,,,,,5f82fd997dab234303560326,62bbfa1cb9fec65e60764b23,2022-06-29_10h07.34.672,Colour_Asymmetry_Pilot,2022.1.3,Win32,59.11912504,62bbe60bf3d75ef465d3e404,0,107,107,64,1,onetwo,,,,,,,,,,,,,,,,,,,,,,,,,,,,,,,,,,,,,,,,,,,,,,,,,,,,,,,,,,,,,,,,,,,,,,,,,,,,,,,,,,,,,,,,,,,,,,,,,,,,,,,,,,,,,,,,,,,,,,,,,,,,,,,,,,,,,,,,,,,,,,,,,,,,,,,
,,,,,,5f82fd997dab234303560326,62bbfa1cb9fec65e60764b23,2022-06-29_10h07.34.672,Colour_Asymmetry_Pilot,2022.1.3,Win32,59.11912504,62bbe60bf3d75ef465d3e404,0,108,108,30,1,fourtwo,,,,,,,,,,,,,,,,,,,,,,,,,,,,,,,,,,,,,,,,,,,,,,,,,,,,,,,,,,,,,,,,,,,,,,,,,,,,,,,,,,,,,,,,,,,,,,,,,,,,,,,,,,,,,,,,,,,,,,,,,,,,,,,,,,,,,,,,,,,,,,,,,,,,,,,
,,,,,,5f82fd997dab234303560326,62bbfa1cb9fec65e60764b23,2022-06-29_10h07.34.672,Colour_Asymmetry_Pilot,2022.1.3,Win32,59.11912504,62bbe60bf3d75ef465d3e404,0,109,109,111,1,fourthree,,,,,,,,,,,,,,,,,,,,,,,,,,,,,,,,,,,,,,,,,,,,,,,,,,,,,,,,,,,,,,,,,,,,,,,,,,,,,,,,,,,,,,,,,,,,,,,,,,,,,,,,,,,,,,,,,,,,,,,,,,,,,,,,,,,,,,,,,,,,,,,,,,,,,,,
,,,,,,5f82fd997dab234303560326,62bbfa1cb9fec65e60764b23,2022-06-29_10h07.34.672,Colour_Asymmetry_Pilot,2022.1.3,Win32,59.11912504,62bbe60bf3d75ef465d3e404,0,110,110,22,1,fourtwo,,,,,,,,,,,,,,,,,,,,,,,,,,,,,,,,,,,,,,,,,,,,,,,,,,,,,,,,,,,,,,,,,,,,,,,,,,,,,,,,,,,,,,,,,,,,,,,,,,,,,,,,,,,,,,,,,,,,,,,,,,,,,,,,,,,,,,,,,,,,,,,,,,,,,,,
,,,,,,5f82fd997dab234303560326,62bbfa1cb9fec65e60764b23,2022-06-29_10h07.34.672,Colour_Asymmetry_Pilot,2022.1.3,Win32,59.11912504,62bbe60bf3d75ef465d3e404,0,111,111,44,1,threeone,,,,,,,,,,,,,,,,,,,,,,,,,,,,,,,,,,,,,,,,,,,,,,,,,,,,,,,,,,,,,,,,,,,,,,,,,,,,,,,,,,,,,,,,,,,,,,,,,,,,,,,,,,,,,,,,,,,,,,,,,,,,,,,,,,,,,,,,,,,,,,,,,,,,,,,
,,,,,,5f82fd997dab234303560326,62bbfa1cb9fec65e60764b23,2022-06-29_10h07.34.672,Colour_Asymmetry_Pilot,2022.1.3,Win32,59.11912504,62bbe60bf3d75ef465d3e404,0,112,112,157,1,threefour,,,,,,,,,,,,,,,,,,,,,,,,,,,,,,,,,,,,,,,,,,,,,,,,,,,,,,,,,,,,,,,,,,,,,,,,,,,,,,,,,,,,,,,,,,,,,,,,,,,,,,,,,,,,,,,,,,,,,,,,,,,,,,,,,,,,,,,,,,,,,,,,,,,,,,,
,,,,,,5f82fd997dab234303560326,62bbfa1cb9fec65e60764b23,2022-06-29_10h07.34.672,Colour_Asymmetry_Pilot,2022.1.3,Win32,59.11912504,62bbe60bf3d75ef465d3e404,0,113,113,49,1,onethree,,,,,,,,,,,,,,,,,,,,,,,,,,,,,,,,,,,,,,,,,,,,,,,,,,,,,,,,,,,,,,,,,,,,,,,,,,,,,,,,,,,,,,,,,,,,,,,,,,,,,,,,,,,,,,,,,,,,,,,,,,,,,,,,,,,,,,,,,,,,,,,,,,,,,,,
,,,,,,5f82fd997dab234303560326,62bbfa1cb9fec65e60764b23,2022-06-29_10h07.34.672,Colour_Asymmetry_Pilot,2022.1.3,Win32,59.11912504,62bbe60bf3d75ef465d3e404,0,114,114,150,1,fourtwo,,,,,,,,,,,,,,,,,,,,,,,,,,,,,,,,,,,,,,,,,,,,,,,,,,,,,,,,,,,,,,,,,,,,,,,,,,,,,,,,,,,,,,,,,,,,,,,,,,,,,,,,,,,,,,,,,,,,,,,,,,,,,,,,,,,,,,,,,,,,,,,,,,,,,,,
,,,,,,5f82fd997dab234303560326,62bbfa1cb9fec65e60764b23,2022-06-29_10h07.34.672,Colour_Asymmetry_Pilot,2022.1.3,Win32,59.11912504,62bbe60bf3d75ef465d3e404,0,115,115,19,1,twofour,,,,,,,,,,,,,,,,,,,,,,,,,,,,,,,,,,,,,,,,,,,,,,,,,,,,,,,,,,,,,,,,,,,,,,,,,,,,,,,,,,,,,,,,,,,,,,,,,,,,,,,,,,,,,,,,,,,,,,,,,,,,,,,,,,,,,,,,,,,,,,,,,,,,,,,
,,,,,,5f82fd997dab234303560326,62bbfa1cb9fec65e60764b23,2022-06-29_10h07.34.672,Colour_Asymmetry_Pilot,2022.1.3,Win32,59.11912504,62bbe60bf3d75ef465d3e404,0,116,116,32,1,onetwo,,,,,,,,,,,,,,,,,,,,,,,,,,,,,,,,,,,,,,,,,,,,,,,,,,,,,,,,,,,,,,,,,,,,,,,,,,,,,,,,,,,,,,,,,,,,,,,,,,,,,,,,,,,,,,,,,,,,,,,,,,,,,,,,,,,,,,,,,,,,,,,,,,,,,,,
,,,,,,5f82fd997dab234303560326,62bbfa1cb9fec65e60764b23,2022-06-29_10h07.34.672,Colour_Asymmetry_Pilot,2022.1.3,Win32,59.11912504,62bbe60bf3d75ef465d3e404,0,117,117,137,1,onethree,,,,,,,,,,,,,,,,,,,,,,,,,,,,,,,,,,,,,,,,,,,,,,,,,,,,,,,,,,,,,,,,,,,,,,,,,,,,,,,,,,,,,,,,,,,,,,,,,,,,,,,,,,,,,,,,,,,,,,,,,,,,,,,,,,,,,,,,,,,,,,,,,,,,,,,
,,,,,,5f82fd997dab234303560326,62bbfa1cb9fec65e60764b23,2022-06-29_10h07.34.672,Colour_Asymmetry_Pilot,2022.1.3,Win32,59.11912504,62bbe60bf3d75ef465d3e404,0,118,118,105,1,onethree,,,,,,,,,,,,,,,,,,,,,,,,,,,,,,,,,,,,,,,,,,,,,,,,,,,,,,,,,,,,,,,,,,,,,,,,,,,,,,,,,,,,,,,,,,,,,,,,,,,,,,,,,,,,,,,,,,,,,,,,,,,,,,,,,,,,,,,,,,,,,,,,,,,,,,,
,,,,,,5f82fd997dab234303560326,62bbfa1cb9fec65e60764b23,2022-06-29_10h07.34.672,Colour_Asymmetry_Pilot,2022.1.3,Win32,59.11912504,62bbe60bf3d75ef465d3e404,0,119,119,33,1,onethree,,,,,,,,,,,,,,,,,,,,,,,,,,,,,,,,,,,,,,,,,,,,,,,,,,,,,,,,,,,,,,,,,,,,,,,,,,,,,,,,,,,,,,,,,,,,,,,,,,,,,,,,,,,,,,,,,,,,,,,,,,,,,,,,,,,,,,,,,,,,,,,,,,,,,,,
,,,,,,5f82fd997dab234303560326,62bbfa1cb9fec65e60764b23,2022-06-29_10h07.34.672,Colour_Asymmetry_Pilot,2022.1.3,Win32,59.11912504,62bbe60bf3d75ef465d3e404,0,120,120,9,1,onethree,,,,,,,,,,,,,,,,,,,,,,,,,,,,,,,,,,,,,,,,,,,,,,,,,,,,,,,,,,,,,,,,,,,,,,,,,,,,,,,,,,,,,,,,,,,,,,,,,,,,,,,,,,,,,,,,,,,,,,,,,,,,,,,,,,,,,,,,,,,,,,,,,,,,,,,
,,,,,,5f82fd997dab234303560326,62bbfa1cb9fec65e60764b23,2022-06-29_10h07.34.672,Colour_Asymmetry_Pilot,2022.1.3,Win32,59.11912504,62bbe60bf3d75ef465d3e404,0,121,121,83,1,twofour,,,,,,,,,,,,,,,,,,,,,,,,,,,,,,,,,,,,,,,,,,,,,,,,,,,,,,,,,,,,,,,,,,,,,,,,,,,,,,,,,,,,,,,,,,,,,,,,,,,,,,,,,,,,,,,,,,,,,,,,,,,,,,,,,,,,,,,,,,,,,,,,,,,,,,,
,,,,,,5f82fd997dab234303560326,62bbfa1cb9fec65e60764b23,2022-06-29_10h07.34.672,Colour_Asymmetry_Pilot,2022.1.3,Win32,59.11912504,62bbe60bf3d75ef465d3e404,0,122,122,15,1,fourthree,,,,,,,,,,,,,,,,,,,,,,,,,,,,,,,,,,,,,,,,,,,,,,,,,,,,,,,,,,,,,,,,,,,,,,,,,,,,,,,,,,,,,,,,,,,,,,,,,,,,,,,,,,,,,,,,,,,,,,,,,,,,,,,,,,,,,,,,,,,,,,,,,,,,,,,
,,,,,,5f82fd997dab234303560326,62bbfa1cb9fec65e60764b23,2022-06-29_10h07.34.672,Colour_Asymmetry_Pilot,2022.1.3,Win32,59.11912504,62bbe60bf3d75ef465d3e404,0,123,123,75,1,twofour,,,,,,,,,,,,,,,,,,,,,,,,,,,,,,,,,,,,,,,,,,,,,,,,,,,,,,,,,,,,,,,,,,,,,,,,,,,,,,,,,,,,,,,,,,,,,,,,,,,,,,,,,,,,,,,,,,,,,,,,,,,,,,,,,,,,,,,,,,,,,,,,,,,,,,,
,,,,,,5f82fd997dab234303560326,62bbfa1cb9fec65e60764b23,2022-06-29_10h07.34.672,Colour_Asymmetry_Pilot,2022.1.3,Win32,59.11912504,62bbe60bf3d75ef465d3e404,0,124,124,65,1,onethree,,,,,,,,,,,,,,,,,,,,,,,,,,,,,,,,,,,,,,,,,,,,,,,,,,,,,,,,,,,,,,,,,,,,,,,,,,,,,,,,,,,,,,,,,,,,,,,,,,,,,,,,,,,,,,,,,,,,,,,,,,,,,,,,,,,,,,,,,,,,,,,,,,,,,,,
,,,,,,5f82fd997dab234303560326,62bbfa1cb9fec65e60764b23,2022-06-29_10h07.34.672,Colour_Asymmetry_Pilot,2022.1.3,Win32,59.11912504,62bbe60bf3d75ef465d3e404,0,125,125,27,1,twofour,,,,,,,,,,,,,,,,,,,,,,,,,,,,,,,,,,,,,,,,,,,,,,,,,,,,,,,,,,,,,,,,,,,,,,,,,,,,,,,,,,,,,,,,,,,,,,,,,,,,,,,,,,,,,,,,,,,,,,,,,,,,,,,,,,,,,,,,,,,,,,,,,,,,,,,
,,,,,,5f82fd997dab234303560326,62bbfa1cb9fec65e60764b23,2022-06-29_10h07.34.672,Colour_Asymmetry_Pilot,2022.1.3,Win32,59.11912504,62bbe60bf3d75ef465d3e404,0,126,126,86,1,fourtwo,,,,,,,,,,,,,,,,,,,,,,,,,,,,,,,,,,,,,,,,,,,,,,,,,,,,,,,,,,,,,,,,,,,,,,,,,,,,,,,,,,,,,,,,,,,,,,,,,,,,,,,,,,,,,,,,,,,,,,,,,,,,,,,,,,,,,,,,,,,,,,,,,,,,,,,
,,,,,,5f82fd997dab234303560326,62bbfa1cb9fec65e60764b23,2022-06-29_10h07.34.672,Colour_Asymmetry_Pilot,2022.1.3,Win32,59.11912504,62bbe60bf3d75ef465d3e404,0,127,127,53,1,threefour,,,,,,,,,,,,,,,,,,,,,,,,,,,,,,,,,,,,,,,,,,,,,,,,,,,,,,,,,,,,,,,,,,,,,,,,,,,,,,,,,,,,,,,,,,,,,,,,,,,,,,,,,,,,,,,,,,,,,,,,,,,,,,,,,,,,,,,,,,,,,,,,,,,,,,,
,,,,,,5f82fd997dab234303560326,62bbfa1cb9fec65e60764b23,2022-06-29_10h07.34.672,Colour_Asymmetry_Pilot,2022.1.3,Win32,59.11912504,62bbe60bf3d75ef465d3e404,0,128,128,20,1,threeone,,,,,,,,,,,,,,,,,,,,,,,,,,,,,,,,,,,,,,,,,,,,,,,,,,,,,,,,,,,,,,,,,,,,,,,,,,,,,,,,,,,,,,,,,,,,,,,,,,,,,,,,,,,,,,,,,,,,,,,,,,,,,,,,,,,,,,,,,,,,,,,,,,,,,,,
,,,,,,5f82fd997dab234303560326,62bbfa1cb9fec65e60764b23,2022-06-29_10h07.34.672,Colour_Asymmetry_Pilot,2022.1.3,Win32,59.11912504,62bbe60bf3d75ef465d3e404,0,129,129,3,1,twofour,,,,,,,,,,,,,,,,,,,,,,,,,,,,,,,,,,,,,,,,,,,,,,,,,,,,,,,,,,,,,,,,,,,,,,,,,,,,,,,,,,,,,,,,,,,,,,,,,,,,,,,,,,,,,,,,,,,,,,,,,,,,,,,,,,,,,,,,,,,,,,,,,,,,,,,
,,,,,,5f82fd997dab234303560326,62bbfa1cb9fec65e60764b23,2022-06-29_10h07.34.672,Colour_Asymmetry_Pilot,2022.1.3,Win32,59.11912504,62bbe60bf3d75ef465d3e404,0,130,130,59,1,twofour,,,,,,,,,,,,,,,,,,,,,,,,,,,,,,,,,,,,,,,,,,,,,,,,,,,,,,,,,,,,,,,,,,,,,,,,,,,,,,,,,,,,,,,,,,,,,,,,,,,,,,,,,,,,,,,,,,,,,,,,,,,,,,,,,,,,,,,,,,,,,,,,,,,,,,,
,,,,,,5f82fd997dab234303560326,62bbfa1cb9fec65e60764b23,2022-06-29_10h07.34.672,Colour_Asymmetry_Pilot,2022.1.3,Win32,59.11912504,62bbe60bf3d75ef465d3e404,0,131,131,67,1,twofour,,,,,,,,,,,,,,,,,,,,,,,,,,,,,,,,,,,,,,,,,,,,,,,,,,,,,,,,,,,,,,,,,,,,,,,,,,,,,,,,,,,,,,,,,,,,,,,,,,,,,,,,,,,,,,,,,,,,,,,,,,,,,,,,,,,,,,,,,,,,,,,,,,,,,,,
,,,,,,5f82fd997dab234303560326,62bbfa1cb9fec65e60764b23,2022-06-29_10h07.34.672,Colour_Asymmetry_Pilot,2022.1.3,Win32,59.11912504,62bbe60bf3d75ef465d3e404,0,132,132,11,1,twofour,,,,,,,,,,,,,,,,,,,,,,,,,,,,,,,,,,,,,,,,,,,,,,,,,,,,,,,,,,,,,,,,,,,,,,,,,,,,,,,,,,,,,,,,,,,,,,,,,,,,,,,,,,,,,,,,,,,,,,,,,,,,,,,,,,,,,,,,,,,,,,,,,,,,,,,
,,,,,,5f82fd997dab234303560326,62bbfa1cb9fec65e60764b23,2022-06-29_10h07.34.672,Colour_Asymmetry_Pilot,2022.1.3,Win32,59.11912504,62bbe60bf3d75ef465d3e404,0,133,133,108,1,threeone,,,,,,,,,,,,,,,,,,,,,,,,,,,,,,,,,,,,,,,,,,,,,,,,,,,,,,,,,,,,,,,,,,,,,,,,,,,,,,,,,,,,,,,,,,,,,,,,,,,,,,,,,,,,,,,,,,,,,,,,,,,,,,,,,,,,,,,,,,,,,,,,,,,,,,,
,,,,,,5f82fd997dab234303560326,62bbfa1cb9fec65e60764b23,2022-06-29_10h07.34.672,Colour_Asymmetry_Pilot,2022.1.3,Win32,59.11912504,62bbe60bf3d75ef465d3e404,0,134,134,1,1,onethree,,,,,,,,,,,,,,,,,,,,,,,,,,,,,,,,,,,,,,,,,,,,,,,,,,,,,,,,,,,,,,,,,,,,,,,,,,,,,,,,,,,,,,,,,,,,,,,,,,,,,,,,,,,,,,,,,,,,,,,,,,,,,,,,,,,,,,,,,,,,,,,,,,,,,,,
,,,,,,5f82fd997dab234303560326,62bbfa1cb9fec65e60764b23,2022-06-29_10h07.34.672,Colour_Asymmetry_Pilot,2022.1.3,Win32,59.11912504,62bbe60bf3d75ef465d3e404,0,135,135,71,1,fourthree,,,,,,,,,,,,,,,,,,,,,,,,,,,,,,,,,,,,,,,,,,,,,,,,,,,,,,,,,,,,,,,,,,,,,,,,,,,,,,,,,,,,,,,,,,,,,,,,,,,,,,,,,,,,,,,,,,,,,,,,,,,,,,,,,,,,,,,,,,,,,,,,,,,,,,,
,,,,,,5f82fd997dab234303560326,62bbfa1cb9fec65e60764b23,2022-06-29_10h07.34.672,Colour_Asymmetry_Pilot,2022.1.3,Win32,59.11912504,62bbe60bf3d75ef465d3e404,0,136,136,138,1,twoone,,,,,,,,,,,,,,,,,,,,,,,,,,,,,,,,,,,,,,,,,,,,,,,,,,,,,,,,,,,,,,,,,,,,,,,,,,,,,,,,,,,,,,,,,,,,,,,,,,,,,,,,,,,,,,,,,,,,,,,,,,,,,,,,,,,,,,,,,,,,,,,,,,,,,,,
,,,,,,5f82fd997dab234303560326,62bbfa1cb9fec65e60764b23,2022-06-29_10h07.34.672,Colour_Asymmetry_Pilot,2022.1.3,Win32,59.11912504,62bbe60bf3d75ef465d3e404,0,137,137,100,1,threeone,,,,,,,,,,,,,,,,,,,,,,,,,,,,,,,,,,,,,,,,,,,,,,,,,,,,,,,,,,,,,,,,,,,,,,,,,,,,,,,,,,,,,,,,,,,,,,,,,,,,,,,,,,,,,,,,,,,,,,,,,,,,,,,,,,,,,,,,,,,,,,,,,,,,,,,
,,,,,,5f82fd997dab234303560326,62bbfa1cb9fec65e60764b23,2022-06-29_10h07.34.672,Colour_Asymmetry_Pilot,2022.1.3,Win32,59.11912504,62bbe60bf3d75ef465d3e404,0,138,138,66,1,twoone,,,,,,,,,,,,,,,,,,,,,,,,,,,,,,,,,,,,,,,,,,,,,,,,,,,,,,,,,,,,,,,,,,,,,,,,,,,,,,,,,,,,,,,,,,,,,,,,,,,,,,,,,,,,,,,,,,,,,,,,,,,,,,,,,,,,,,,,,,,,,,,,,,,,,,,
,,,,,,5f82fd997dab234303560326,62bbfa1cb9fec65e60764b23,2022-06-29_10h07.34.672,Colour_Asymmetry_Pilot,2022.1.3,Win32,59.11912504,62bbe60bf3d75ef465d3e404,0,139,139,89,1,onethree,,,,,,,,,,,,,,,,,,,,,,,,,,,,,,,,,,,,,,,,,,,,,,,,,,,,,,,,,,,,,,,,,,,,,,,,,,,,,,,,,,,,,,,,,,,,,,,,,,,,,,,,,,,,,,,,,,,,,,,,,,,,,,,,,,,,,,,,,,,,,,,,,,,,,,,
,,,,,,5f82fd997dab234303560326,62bbfa1cb9fec65e60764b23,2022-06-29_10h07.34.672,Colour_Asymmetry_Pilot,2022.1.3,Win32,59.11912504,62bbe60bf3d75ef465d3e404,0,140,140,114,1,twoone,,,,,,,,,,,,,,,,,,,,,,,,,,,,,,,,,,,,,,,,,,,,,,,,,,,,,,,,,,,,,,,,,,,,,,,,,,,,,,,,,,,,,,,,,,,,,,,,,,,,,,,,,,,,,,,,,,,,,,,,,,,,,,,,,,,,,,,,,,,,,,,,,,,,,,,
,,,,,,5f82fd997dab234303560326,62bbfa1cb9fec65e60764b23,2022-06-29_10h07.34.672,Colour_Asymmetry_Pilot,2022.1.3,Win32,59.11912504,62bbe60bf3d75ef465d3e404,0,141,141,145,1,onethree,,,,,,,,,,,,,,,,,,,,,,,,,,,,,,,,,,,,,,,,,,,,,,,,,,,,,,,,,,,,,,,,,,,,,,,,,,,,,,,,,,,,,,,,,,,,,,,,,,,,,,,,,,,,,,,,,,,,,,,,,,,,,,,,,,,,,,,,,,,,,,,,,,,,,,,
,,,,,,5f82fd997dab234303560326,62bbfa1cb9fec65e60764b23,2022-06-29_10h07.34.672,Colour_Asymmetry_Pilot,2022.1.3,Win32,59.11912504,62bbe60bf3d75ef465d3e404,0,142,142,7,1,fourthree,,,,,,,,,,,,,,,,,,,,,,,,,,,,,,,,,,,,,,,,,,,,,,,,,,,,,,,,,,,,,,,,,,,,,,,,,,,,,,,,,,,,,,,,,,,,,,,,,,,,,,,,,,,,,,,,,,,,,,,,,,,,,,,,,,,,,,,,,,,,,,,,,,,,,,,
,,,,,,5f82fd997dab234303560326,62bbfa1cb9fec65e60764b23,2022-06-29_10h07.34.672,Colour_Asymmetry_Pilot,2022.1.3,Win32,59.11912504,62bbe60bf3d75ef465d3e404,0,143,143,36,1,threeone,,,,,,,,,,,,,,,,,,,,,,,,,,,,,,,,,,,,,,,,,,,,,,,,,,,,,,,,,,,,,,,,,,,,,,,,,,,,,,,,,,,,,,,,,,,,,,,,,,,,,,,,,,,,,,,,,,,,,,,,,,,,,,,,,,,,,,,,,,,,,,,,,,,,,,,
,,,,,,5f82fd997dab234303560326,62bbfa1cb9fec65e60764b23,2022-06-29_10h07.34.672,Colour_Asymmetry_Pilot,2022.1.3,Win32,59.11912504,62bbe60bf3d75ef465d3e404,0,144,144,37,1,threefour,,,,,,,,,,,,,,,,,,,,,,,,,,,,,,,,,,,,,,,,,,,,,,,,,,,,,,,,,,,,,,,,,,,,,,,,,,,,,,,,,,,,,,,,,,,,,,,,,,,,,,,,,,,,,,,,,,,,,,,,,,,,,,,,,,,,,,,,,,,,,,,,,,,,,,,
,,,,,,5f82fd997dab234303560326,62bbfa1cb9fec65e60764b23,2022-06-29_10h07.34.672,Colour_Asymmetry_Pilot,2022.1.3,Win32,59.11912504,62bbe60bf3d75ef465d3e404,0,145,145,70,1,fourtwo,,,,,,,,,,,,,,,,,,,,,,,,,,,,,,,,,,,,,,,,,,,,,,,,,,,,,,,,,,,,,,,,,,,,,,,,,,,,,,,,,,,,,,,,,,,,,,,,,,,,,,,,,,,,,,,,,,,,,,,,,,,,,,,,,,,,,,,,,,,,,,,,,,,,,,,
,,,,,,5f82fd997dab234303560326,62bbfa1cb9fec65e60764b23,2022-06-29_10h07.34.672,Colour_Asymmetry_Pilot,2022.1.3,Win32,59.11912504,62bbe60bf3d75ef465d3e404,0,146,146,110,1,fourtwo,,,,,,,,,,,,,,,,,,,,,,,,,,,,,,,,,,,,,,,,,,,,,,,,,,,,,,,,,,,,,,,,,,,,,,,,,,,,,,,,,,,,,,,,,,,,,,,,,,,,,,,,,,,,,,,,,,,,,,,,,,,,,,,,,,,,,,,,,,,,,,,,,,,,,,,
,,,,,,5f82fd997dab234303560326,62bbfa1cb9fec65e60764b23,2022-06-29_10h07.34.672,Colour_Asymmetry_Pilot,2022.1.3,Win32,59.11912504,62bbe60bf3d75ef465d3e404,0,147,147,31,1,fourthree,,,,,,,,,,,,,,,,,,,,,,,,,,,,,,,,,,,,,,,,,,,,,,,,,,,,,,,,,,,,,,,,,,,,,,,,,,,,,,,,,,,,,,,,,,,,,,,,,,,,,,,,,,,,,,,,,,,,,,,,,,,,,,,,,,,,,,,,,,,,,,,,,,,,,,,
,,,,,,5f82fd997dab234303560326,62bbfa1cb9fec65e60764b23,2022-06-29_10h07.34.672,Colour_Asymmetry_Pilot,2022.1.3,Win32,59.11912504,62bbe60bf3d75ef465d3e404,0,148,148,131,1,twofour,,,,,,,,,,,,,,,,,,,,,,,,,,,,,,,,,,,,,,,,,,,,,,,,,,,,,,,,,,,,,,,,,,,,,,,,,,,,,,,,,,,,,,,,,,,,,,,,,,,,,,,,,,,,,,,,,,,,,,,,,,,,,,,,,,,,,,,,,,,,,,,,,,,,,,,
,,,,,,5f82fd997dab234303560326,62bbfa1cb9fec65e60764b23,2022-06-29_10h07.34.672,Colour_Asymmetry_Pilot,2022.1.3,Win32,59.11912504,62bbe60bf3d75ef465d3e404,0,149,149,23,1,fourthree,,,,,,,,,,,,,,,,,,,,,,,,,,,,,,,,,,,,,,,,,,,,,,,,,,,,,,,,,,,,,,,,,,,,,,,,,,,,,,,,,,,,,,,,,,,,,,,,,,,,,,,,,,,,,,,,,,,,,,,,,,,,,,,,,,,,,,,,,,,,,,,,,,,,,,,
,,,,,,5f82fd997dab234303560326,62bbfa1cb9fec65e60764b23,2022-06-29_10h07.34.672,Colour_Asymmetry_Pilot,2022.1.3,Win32,59.11912504,62bbe60bf3d75ef465d3e404,0,150,150,43,1,twofour,,,,,,,,,,,,,,,,,,,,,,,,,,,,,,,,,,,,,,,,,,,,,,,,,,,,,,,,,,,,,,,,,,,,,,,,,,,,,,,,,,,,,,,,,,,,,,,,,,,,,,,,,,,,,,,,,,,,,,,,,,,,,,,,,,,,,,,,,,,,,,,,,,,,,,,
,,,,,,5f82fd997dab234303560326,62bbfa1cb9fec65e60764b23,2022-06-29_10h07.34.672,Colour_Asymmetry_Pilot,2022.1.3,Win32,59.11912504,62bbe60bf3d75ef465d3e404,0,151,151,104,1,onetwo,,,,,,,,,,,,,,,,,,,,,,,,,,,,,,,,,,,,,,,,,,,,,,,,,,,,,,,,,,,,,,,,,,,,,,,,,,,,,,,,,,,,,,,,,,,,,,,,,,,,,,,,,,,,,,,,,,,,,,,,,,,,,,,,,,,,,,,,,,,,,,,,,,,,,,,
,,,,,,5f82fd997dab234303560326,62bbfa1cb9fec65e60764b23,2022-06-29_10h07.34.672,Colour_Asymmetry_Pilot,2022.1.3,Win32,59.11912504,62bbe60bf3d75ef465d3e404,0,152,152,140,1,threeone,,,,,,,,,,,,,,,,,,,,,,,,,,,,,,,,,,,,,,,,,,,,,,,,,,,,,,,,,,,,,,,,,,,,,,,,,,,,,,,,,,,,,,,,,,,,,,,,,,,,,,,,,,,,,,,,,,,,,,,,,,,,,,,,,,,,,,,,,,,,,,,,,,,,,,,
,,,,,,5f82fd997dab234303560326,62bbfa1cb9fec65e60764b23,2022-06-29_10h07.34.672,Colour_Asymmetry_Pilot,2022.1.3,Win32,59.11912504,62bbe60bf3d75ef465d3e404,0,153,153,35,1,twofour,,,,,,,,,,,,,,,,,,,,,,,,,,,,,,,,,,,,,,,,,,,,,,,,,,,,,,,,,,,,,,,,,,,,,,,,,,,,,,,,,,,,,,,,,,,,,,,,,,,,,,,,,,,,,,,,,,,,,,,,,,,,,,,,,,,,,,,,,,,,,,,,,,,,,,,
,,,,,,5f82fd997dab234303560326,62bbfa1cb9fec65e60764b23,2022-06-29_10h07.34.672,Colour_Asymmetry_Pilot,2022.1.3,Win32,59.11912504,62bbe60bf3d75ef465d3e404,0,154,154,123,1,twofour,,,,,,,,,,,,,,,,,,,,,,,,,,,,,,,,,,,,,,,,,,,,,,,,,,,,,,,,,,,,,,,,,,,,,,,,,,,,,,,,,,,,,,,,,,,,,,,,,,,,,,,,,,,,,,,,,,,,,,,,,,,,,,,,,,,,,,,,,,,,,,,,,,,,,,,
,,,,,,5f82fd997dab234303560326,62bbfa1cb9fec65e60764b23,2022-06-29_10h07.34.672,Colour_Asymmetry_Pilot,2022.1.3,Win32,59.11912504,62bbe60bf3d75ef465d3e404,0,155,155,56,1,onetwo,,,,,,,,,,,,,,,,,,,,,,,,,,,,,,,,,,,,,,,,,,,,,,,,,,,,,,,,,,,,,,,,,,,,,,,,,,,,,,,,,,,,,,,,,,,,,,,,,,,,,,,,,,,,,,,,,,,,,,,,,,,,,,,,,,,,,,,,,,,,,,,,,,,,,,,
,,,,,,5f82fd997dab234303560326,62bbfa1cb9fec65e60764b23,2022-06-29_10h07.34.672,Colour_Asymmetry_Pilot,2022.1.3,Win32,59.11912504,62bbe60bf3d75ef465d3e404,0,156,156,98,1,twoone,,,,,,,,,,,,,,,,,,,,,,,,,,,,,,,,,,,,,,,,,,,,,,,,,,,,,,,,,,,,,,,,,,,,,,,,,,,,,,,,,,,,,,,,,,,,,,,,,,,,,,,,,,,,,,,,,,,,,,,,,,,,,,,,,,,,,,,,,,,,,,,,,,,,,,,
,,,,,,5f82fd997dab234303560326,62bbfa1cb9fec65e60764b23,2022-06-29_10h07.34.672,Colour_Asymmetry_Pilot,2022.1.3,Win32,59.11912504,62bbe60bf3d75ef465d3e404,0,157,157,84,1,threeone,,,,,,,,,,,,,,,,,,,,,,,,,,,,,,,,,,,,,,,,,,,,,,,,,,,,,,,,,,,,,,,,,,,,,,,,,,,,,,,,,,,,,,,,,,,,,,,,,,,,,,,,,,,,,,,,,,,,,,,,,,,,,,,,,,,,,,,,,,,,,,,,,,,,,,,
,,,,,,5f82fd997dab234303560326,62bbfa1cb9fec65e60764b23,2022-06-29_10h07.34.672,Colour_Asymmetry_Pilot,2022.1.3,Win32,59.11912504,62bbe60bf3d75ef465d3e404,0,158,158,0,1,onetwo,,,,,,,,,,,,,,,,,,,,,,,,,,,,,,,,,,,,,,,,,,,,,,,,,,,,,,,,,,,,,,,,,,,,,,,,,,,,,,,,,,,,,,,,,,,,,,,,,,,,,,,,,,,,,,,,,,,,,,,,,,,,,,,,,,,,,,,,,,,,,,,,,,,,,,,
,,,,,,5f82fd997dab234303560326,62bbfa1cb9fec65e60764b23,2022-06-29_10h07.34.672,Colour_Asymmetry_Pilot,2022.1.3,Win32,59.11912504,62bbe60bf3d75ef465d3e404,0,159,159,146,1,twoone,,,,,,,,,,,,,,,,,,,,,,,,,,,,,,,,,,,,,,,,,,,,,,,,,,,,,,,,,,,,,,,,,,,,,,,,,,,,,,,,,,,,,,,,,,,,,,,,,,,,,,,,,,,,,,,,,,,,,,,,,,,,,,,,,,,,,,,,,,,,,,,,,,,,,,,
,,,,,,5f82fd997dab234303560326,62bbfa1cb9fec65e60764b23,2022-06-29_10h07.34.672,Colour_Asymmetry_Pilot,2022.1.3,Win32,59.11912504,62bbe60bf3d75ef465d3e404,0,160,160,18,1,twoone,,,,,,,,,,,,,,,,,,,,,,,,,,,,,,,,,,,,,,,,,,,,,,,,,,,,,,,,,,,,,,,,,,,,,,,,,,,,,,,,,,,,,,,,,,,,,,,,,,,,,,,,,,,,,,,,,,,,,,,,,,,,,,,,,,,,,,,,,,,,,,,,,,,,,,,
,,,,,,5f82fd997dab234303560326,62bbfa1cb9fec65e60764b23,2022-06-29_10h07.34.672,Colour_Asymmetry_Pilot,2022.1.3,Win32,59.11912504,62bbe60bf3d75ef465d3e404,0,161,161,154,1,twoone,,,,,,,,,,,,,,,,,,,,,,,,,,,,,,,,,,,,,,,,,,,,,,,,,,,,,,,,,,,,,,,,,,,,,,,,,,,,,,,,,,,,,,,,,,,,,,,,,,,,,,,,,,,,,,,,,,,,,,,,,,,,,,,,,,,,,,,,,,,,,,,,,,,,,,,
,,,,,,5f82fd997dab234303560326,62bbfa1cb9fec65e60764b23,2022-06-29_10h07.34.672,Colour_Asymmetry_Pilot,2022.1.3,Win32,59.11912504,62bbe60bf3d75ef465d3e404,,,,,,,space,2.1098,space,6.0288,space,37.2478,space,13.8864,space,1.8297,space,7.9098,"[0.04299999999999993,0.16060000000000008,-0.6628000000000001]",onetwo,"[-0.9766,-0.6472,0.07440000000000002]",-4,9.4283,-42,96.66665649,1,0,0,response7disk_5,-1.333312988,3.333312988,1,0,0,rectangle_8,-1.333312988,3.333312988,1,0,0,3,-1.333312988,3.333312988,1,0,0,0,0,0,0,1,,,,,,,,,,,,,,,,,,,,,,,,,,,,,,,,,,,,,,,,,,,,,,,,,,,,,,,,,,,,,,,,,,,,,,,,,,,,,,,,,,,,,,,,,,,,,,,,,,,,,,,,,,
,,,,,,5f82fd997dab234303560326,62bbfa1cb9fec65e60764b23,2022-06-29_10h07.34.672,Colour_Asymmetry_Pilot,2022.1.3,Win32,59.11912504,62bbe60bf3d75ef465d3e404,,,,,,,,,,,,,,,,,,,"[-0.9216,-0.5529999999999999,-0.3962]",onethree,"[0.23120000000000007,-0.7726,-0.34120000000000006]",-4,2.73,-29.33331299,56,1,0,0,response7disk_5,-3.333312988,4,1,0,0,rectangle_8,-3.333312988,4,1,0,0,3,-3.333312988,4,1,0,0,1,0,1,0,1,,,,,,,,,,,,,,,,,,,,,,,,,,,,,,,,,,,,,,,,,,,,,,,,,,,,,,,,,,,,,,,,,,,,,,,,,,,,,,,,,,,,,,,,,,,,,,,,,,,,,,,,,,
,,,,,,5f82fd997dab234303560326,62bbfa1cb9fec65e60764b23,2022-06-29_10h07.34.672,Colour_Asymmetry_Pilot,2022.1.3,Win32,59.11912504,62bbe60bf3d75ef465d3e404,,,,,,,,,,,,,,,,,,,"[-0.20799999999999996,-0.655,-0.01980000000000004]",threefour,"[0.34099999999999997,0.12939999999999996,-0.9766]",-4,1.3993,-25.33331299,71.33331299,1,0,0,response7disk_5,12.66668701,5.333312988,1,0,0,rectangle_8,84,40,1,0,0,3,9.333374023,2,1,0,0,2,0,2,0,1,response1disk_7,6,rectangle_4,,,,,,,,,,,,,,,,,,,,,,,,,,,,,,,,,,,,,,,,,,,,,,,,,,,,,,,,,,,,,,,,,,,,,,,,,,,,,,,,,,,,,,,,,,,,,,,,,,,,,,,
,,,,,,5f82fd997dab234303560326,62bbfa1cb9fec65e60764b23,2022-06-29_10h07.34.672,Colour_Asymmetry_Pilot,2022.1.3,Win32,59.11912504,62bbe60bf3d75ef465d3e404,,,,,,,,,,,,,,,,,,,"[0.9686000000000001,0.3802000000000001,0.19999999999999996]",threefour,"[0.6547999999999998,-0.043199999999999905,-0.011800000000000033]",3,3.0721,95.33337402,35.33331299,1,0,0,response1disk_5,2,-1.333343506,1,0,0,rectangle_8,96.66668701,44.66665649,1,0,0,3,-3.333312988,5.333312988,1,0,0,3,0,3,0,1,response1disk_7,6,rectangle_4,,,,,,,,,,,,,,,,,,,,,,,,,,,,,,,,,,,,,,,,,,,,,,,,,,,,,,,,,,,,,,,,,,,,,,,,,,,,,,,,,,,,,,,,,,,,,,,,,,,,,,,
,,,,,,5f82fd997dab234303560326,62bbfa1cb9fec65e60764b23,2022-06-29_10h07.34.672,Colour_Asymmetry_Pilot,2022.1.3,Win32,59.11912504,62bbe60bf3d75ef465d3e404,,,,,,,,,,,,,,,,,,,"[0.9763999999999999,-0.1137999999999999,-0.6314]",twoone,"[0.3802000000000001,0.19199999999999995,-0.6394]",2,1.7154,82.66668701,-39.33334351,1,0,0,response3disk_5,1.333374023,8,1,0,0,rectangle_8,1.333374023,8,1,0,0,3,1.333374023,8,1,0,0,4,0,4,0,1,,,,,,,,,,,,,,,,,,,,,,,,,,,,,,,,,,,,,,,,,,,,,,,,,,,,,,,,,,,,,,,,,,,,,,,,,,,,,,,,,,,,,,,,,,,,,,,,,,,,,,,,,,
,,,,,,5f82fd997dab234303560326,62bbfa1cb9fec65e60764b23,2022-06-29_10h07.34.672,Colour_Asymmetry_Pilot,2022.1.3,Win32,59.11912504,62bbe60bf3d75ef465d3e404,,,,,,,,,,,,,,,,,,,"[-0.9688,-0.7412000000000001,-0.4902000000000001]",twoone,"[-0.09019999999999995,0.44300000000000006,0.5371999999999999]",1,2.0488,38,-93.33334351,1,0,0,response3disk_5,-12,7.333312988,1,0,0,rectangle_8,-12,7.333312988,1,0,0,3,-12,7.333312988,1,0,0,5,0,5,0,1,,,,,,,,,,,,,,,,,,,,,,,,,,,,,,,,,,,,,,,,,,,,,,,,,,,,,,,,,,,,,,,,,,,,,,,,,,,,,,,,,,,,,,,,,,,,,,,,,,,,,,,,,,
,,,,,,5f82fd997dab234303560326,62bbfa1cb9fec65e60764b23,2022-06-29_10h07.34.672,Colour_Asymmetry_Pilot,2022.1.3,Win32,59.11912504,62bbe60bf3d75ef465d3e404,,,,,,,,,,,,,,,,,,,"[0.7176,-0.906,-0.6864]",onetwo,"[-0.4746,-0.0354000000000001,0.5449999999999999]",-3,0.9993,-74.66662598,52,1,0,0,response7disk_5,0.666687012,-0.666687012,1,0,0,rectangle_8,0.666687012,-0.666687012,1,0,0,3,0.666687012,-0.666687012,1,0,0,6,0,6,0,1,,,,,,,,,,,,,,,,,,,,,,,,,,,,,,,,,,,,,,,,,,,,,,,,,,,,,,,,,,,,,,,,,,,,,,,,,,,,,,,,,,,,,,,,,,,,,,,,,,,,,,,,,,
,,,,,,5f82fd997dab234303560326,62bbfa1cb9fec65e60764b23,2022-06-29_10h07.34.672,Colour_Asymmetry_Pilot,2022.1.3,Win32,59.11912504,62bbe60bf3d75ef465d3e404,,,,,,,,,,,,,,,,,,,,twoone,,3,0.7338,,,,,,,,,,,,,,,,,,,,,,,,,,,,,,,,space,3.2322,"[0.12939999999999996,-0.2864,0.3253999999999999]","[0.09799999999999986,-0.24719999999999998,0.15280000000000005]",82.66668701,40,1,0,0,response1disk,-4.666625977,6.666656494,1,0,0,rectangle,-4.666625977,6.666656494,1,0,0,,2,0.0063,0,-4.666625977,6.666656494,1,0,0,0,0,0,118,1,37,second,,,,,,,,,,,,,,,,,,,,,,,,,,,,,,,,,,,,,,,,,,,,,,,,,,,,,,,,,,,,,,,,,,
,,,,,,5f82fd997dab234303560326,62bbfa1cb9fec65e60764b23,2022-06-29_10h07.34.672,Colour_Asymmetry_Pilot,2022.1.3,Win32,59.11912504,62bbe60bf3d75ef465d3e404,,,,,,,,,,,,,,,,,,,,threefour,,-1,0.6827,,,,,,,,,,,,,,,,,,,,,,,,,,,,,,,,,,"[0.2784,-0.31000000000000005,-0.5452]","[0.9372,0.20779999999999998,0.2704]",-30,-69.33334351,1,0,0,response5disk,3.333374023,7.333312988,1,0,0,rectangle,3.333374023,7.333312988,1,0,0,,2,0.0008,0,3.333374023,7.333312988,1,0,0,0,1,1,46,1,46,first,,,,,,,,,,,,,,,,,,,,,,,,,,,,,,,,,,,,,,,,,,,,,,,,,,,,,,,,,,,,,,,,,,
,,,,,,5f82fd997dab234303560326,62bbfa1cb9fec65e60764b23,2022-06-29_10h07.34.672,Colour_Asymmetry_Pilot,2022.1.3,Win32,59.11912504,62bbe60bf3d75ef465d3e404,,,,,,,,,,,,,,,,,,,,fourtwo,,-1,1.7655,,,,,,,,,,,,,,,,,,,,,,,,,,,,,,,,,,"[-0.10599999999999998,-0.10599999999999998,0.5841999999999998]","[-0.9216,-0.5529999999999999,-0.3962]",-37.33331299,-83.33334351,1,0,0,response5disk,-5.333312988,-2.666687012,1,0,0,rectangle,-5.333312988,-2.666687012,1,0,0,,3,0.0045,0,-5.333312988,-2.666687012,1,0,0,0,2,2,68,1,68,first,,,,,,,,,,,,,,,,,,,,,,,,,,,,,,,,,,,,,,,,,,,,,,,,,,,,,,,,,,,,,,,,,,
,,,,,,5f82fd997dab234303560326,62bbfa1cb9fec65e60764b23,2022-06-29_10h07.34.672,Colour_Asymmetry_Pilot,2022.1.3,Win32,59.11912504,62bbe60bf3d75ef465d3e404,,,,,,,,,,,,,,,,,,,,threefour,,-2,0.5835,,,,,,,,,,,,,,,,,,,,,,,,,,,,,,,,,,"[-0.10599999999999998,-0.15300000000000002,0.15280000000000005]","[0.11359999999999992,0.6312,0.5213999999999999]",-77.33331299,-29.33334351,1,0,0,response5disk,8,5.333312988,1,0,0,rectangle,8,5.333312988,1,0,0,,2,0.0024,0,8,5.333312988,1,0,0,0,3,3,119,1,38,second,,,,,,,,,,,,,,,,,,,,,,,,,,,,,,,,,,,,,,,,,,,,,,,,,,,,,,,,,,,,,,,,,,
,,,,,,5f82fd997dab234303560326,62bbfa1cb9fec65e60764b23,2022-06-29_10h07.34.672,Colour_Asymmetry_Pilot,2022.1.3,Win32,59.11912504,62bbe60bf3d75ef465d3e404,,,,,,,,,,,,,,,,,,,,threefour,,-3,0.533,,,,,,,,,,,,,,,,,,,,,,,,,,,,,,,,,,"[0.19199999999999995,0.18419999999999992,0.5136000000000001]","[-0.4276,0.0038000000000000256,-0.3256]",-74,38.66665649,1,0,0,response7disk,-14,2,1,0,0,rectangle,-14,2,1,0,0,,3,0.0041,0,-14,2,1,0,0,0,4,4,30,1,30,first,,,,,,,,,,,,,,,,,,,,,,,,,,,,,,,,,,,,,,,,,,,,,,,,,,,,,,,,,,,,,,,,,,
,,,,,,5f82fd997dab234303560326,62bbfa1cb9fec65e60764b23,2022-06-29_10h07.34.672,Colour_Asymmetry_Pilot,2022.1.3,Win32,59.11912504,62bbe60bf3d75ef465d3e404,,,,,,,,,,,,,,,,,,,,fourthree,,1,0.5486,,,,,,,,,,,,,,,,,,,,,,,,,,,,,,,,,,"[-0.30200000000000005,0.14500000000000002,0.2784]","[-0.9216,-0.5529999999999999,-0.3962]",30,-74.66668701,1,0,0,response3disk,-10,4,1,0,0,rectangle,-10,4,1,0,0,,2,0.0035,0,-10,4,1,0,0,0,5,5,79,1,79,first,,,,,,,,,,,,,,,,,,,,,,,,,,,,,,,,,,,,,,,,,,,,,,,,,,,,,,,,,,,,,,,,,,
,,,,,,5f82fd997dab234303560326,62bbfa1cb9fec65e60764b23,2022-06-29_10h07.34.672,Colour_Asymmetry_Pilot,2022.1.3,Win32,59.11912504,62bbe60bf3d75ef465d3e404,,,,,,,,,,,,,,,,,,,,fourthree,,-1,0.5835,,,,,,,,,,,,,,,,,,,,,,,,,,,,,,,,,,"[-0.9688,-0.38039999999999996,-0.41979999999999995]","[-0.6,0.16860000000000008,0.44300000000000006]",-45.33331299,-76,1,0,0,response5disk,0.666687012,4.666656494,1,0,0,rectangle,0.666687012,4.666656494,1,0,0,,2,0.0008,0,0.666687012,4.666656494,1,0,0,0,6,6,110,1,29,second,,,,,,,,,,,,,,,,,,,,,,,,,,,,,,,,,,,,,,,,,,,,,,,,,,,,,,,,,,,,,,,,,,
,,,,,,5f82fd997dab234303560326,62bbfa1cb9fec65e60764b23,2022-06-29_10h07.34.672,Colour_Asymmetry_Pilot,2022.1.3,Win32,59.11912504,62bbe60bf3d75ef465d3e404,,,,,,,,,,,,,,,,,,,,onetwo,,-3,0.5832,,,,,,,,,,,,,,,,,,,,,,,,,,,,,,,,,,"[-0.26280000000000003,-0.2158,-0.3256]","[0.12939999999999996,-0.2864,0.3253999999999999]",-80.66662598,54,1,0,0,response7disk,-4.666625977,0.666656494,1,0,0,rectangle,-4.666625977,0.666656494,1,0,0,,1,0.0033,0,-4.666625977,0.666656494,1,0,0,0,7,7,52,1,52,first,,,,,,,,,,,,,,,,,,,,,,,,,,,,,,,,,,,,,,,,,,,,,,,,,,,,,,,,,,,,,,,,,,
,,,,,,5f82fd997dab234303560326,62bbfa1cb9fec65e60764b23,2022-06-29_10h07.34.672,Colour_Asymmetry_Pilot,2022.1.3,Win32,59.11912504,62bbe60bf3d75ef465d3e404,,,,,,,,,,,,,,,,,,,,threeone,,-3,0.4663,,,,,,,,,,,,,,,,,,,,,,,,,,,,,,,,,,"[0.09799999999999986,-0.24719999999999998,0.15280000000000005]","[0.9686000000000001,0.3802000000000001,0.19999999999999996]",-74,47.33331299,1,0,0,response7disk,-14.66662598,6,1,0,0,rectangle,-14.66662598,6,1,0,0,,1,0.0011,0,-14.66662598,6,1,0,0,0,8,8,154,1,73,second,,,,,,,,,,,,,,,,,,,,,,,,,,,,,,,,,,,,,,,,,,,,,,,,,,,,,,,,,,,,,,,,,,
,,,,,,5f82fd997dab234303560326,62bbfa1cb9fec65e60764b23,2022-06-29_10h07.34.672,Colour_Asymmetry_Pilot,2022.1.3,Win32,59.11912504,62bbe60bf3d75ef465d3e404,,,,,,,,,,,,,,,,,,,,twofour,,-4,0.4659,,,,,,,,,,,,,,,,,,,,,,,,,,,,,,,,,,"[-0.17659999999999998,-0.2864,-0.8354]","[-0.4668,-0.8746,-0.2942]",-50,109.3333282,1,0,0,response7disk,-12,9.333312988,1,0,0,rectangle,-12,9.333312988,1,0,0,,3,0.0016,0,-12,9.333312988,1,0,0,0,9,9,20,1,20,first,,,,,,,,,,,,,,,,,,,,,,,,,,,,,,,,,,,,,,,,,,,,,,,,,,,,,,,,,,,,,,,,,,
,,,,,,5f82fd997dab234303560326,62bbfa1cb9fec65e60764b23,2022-06-29_10h07.34.672,Colour_Asymmetry_Pilot,2022.1.3,Win32,59.11912504,62bbe60bf3d75ef465d3e404,,,,,,,,,,,,,,,,,,,,twoone,,-4,0.467,,,,,,,,,,,,,,,,,,,,,,,,,,,,,,,,,,"[0.04299999999999993,0.16060000000000008,-0.6628000000000001]","[-0.38039999999999996,-0.4276,-0.1452]",-50,100.6666565,1,0,0,response7disk,-6.666625977,4,1,0,0,rectangle,-6.666625977,4,1,0,0,,2,0.0033,0,-6.666625977,4,1,0,0,0,10,10,91,1,10,second,,,,,,,,,,,,,,,,,,,,,,,,,,,,,,,,,,,,,,,,,,,,,,,,,,,,,,,,,,,,,,,,,,
,,,,,,5f82fd997dab234303560326,62bbfa1cb9fec65e60764b23,2022-06-29_10h07.34.672,Colour_Asymmetry_Pilot,2022.1.3,Win32,59.11912504,62bbe60bf3d75ef465d3e404,,,,,,,,,,,,,,,,,,,,onethree,,-2,1.0829,,,,,,,,,,,,,,,,,,,,,,,,,,,,,,,,,,"[-0.9138,-0.5296000000000001,-0.5529999999999999]","[-0.2942,-0.24719999999999998,-0.357]",-82,-46.66668701,1,0,0,response5disk,-0.666625977,13.33331299,1,0,0,rectangle,-0.666625977,13.33331299,1,0,0,,2,0.0004,0,-0.666625977,13.33331299,1,0,0,0,11,11,105,1,24,second,,,,,,,,,,,,,,,,,,,,,,,,,,,,,,,,,,,,,,,,,,,,,,,,,,,,,,,,,,,,,,,,,,
,,,,,,5f82fd997dab234303560326,62bbfa1cb9fec65e60764b23,2022-06-29_10h07.34.672,Colour_Asymmetry_Pilot,2022.1.3,Win32,59.11912504,62bbe60bf3d75ef465d3e404,,,,,,,,,,,,,,,,,,,,fourtwo,,-4,0.483,,,,,,,,,,,,,,,,,,,,,,,,,,,,,,,,,,"[0.09799999999999986,-0.24719999999999998,0.15280000000000005]","[0.9842,0.7409999999999999,-0.6628000000000001]",-31.33331299,61.33331299,1,0,0,response7disk,-2,3.333312988,1,0,0,rectangle,-2,3.333312988,1,0,0,,3,0.0031,0,-2,3.333312988,1,0,0,0,12,12,62,1,62,first,,,,,,,,,,,,,,,,,,,,,,,,,,,,,,,,,,,,,,,,,,,,,,,,,,,,,,,,,,,,,,,,,,
,,,,,,5f82fd997dab234303560326,62bbfa1cb9fec65e60764b23,2022-06-29_10h07.34.672,Colour_Asymmetry_Pilot,2022.1.3,Win32,59.11912504,62bbe60bf3d75ef465d3e404,,,,,,,,,,,,,,,,,,,,onetwo,,-4,0.4157,,,,,,,,,,,,,,,,,,,,,,,,,,,,,,,,,,"[-0.9138,-0.5296000000000001,-0.5529999999999999]","[0.7176,-0.906,-0.6864]",-38,98,1,0,0,response7disk,-10.66662598,-4,1,0,0,rectangle,-10.66662598,-4,1,0,0,,3,0.0005,0,-10.66662598,-4,1,0,0,0,13,13,9,1,9,first,,,,,,,,,,,,,,,,,,,,,,,,,,,,,,,,,,,,,,,,,,,,,,,,,,,,,,,,,,,,,,,,,,
,,,,,,5f82fd997dab234303560326,62bbfa1cb9fec65e60764b23,2022-06-29_10h07.34.672,Colour_Asymmetry_Pilot,2022.1.3,Win32,59.11912504,62bbe60bf3d75ef465d3e404,,,,,,,,,,,,,,,,,,,,twoone,,-3,1.0311,,,,,,,,,,,,,,,,,,,,,,,,,,,,,,,,,,"[-0.6706000000000001,-0.6157999999999999,-0.6786]","[-0.24719999999999998,-0.0354000000000001,0.3175999999999999]",-69.33331299,52,1,0,0,response7disk,-6.666625977,-5.333343506,1,0,0,rectangle,-6.666625977,-5.333343506,1,0,0,,1,0.0035,0,-6.666625977,-5.333343506,1,0,0,0,14,14,114,1,33,second,,,,,,,,,,,,,,,,,,,,,,,,,,,,,,,,,,,,,,,,,,,,,,,,,,,,,,,,,,,,,,,,,,
,,,,,,5f82fd997dab234303560326,62bbfa1cb9fec65e60764b23,2022-06-29_10h07.34.672,Colour_Asymmetry_Pilot,2022.1.3,Win32,59.11912504,62bbe60bf3d75ef465d3e404,,,,,,,,,,,,,,,,,,,,fourtwo,,-1,1.0492,,,,,,,,,,,,,,,,,,,,,,,,,,,,,,,,,,"[0.7802,-0.23140000000000005,-0.20799999999999996]","[0.796,0.2156,-0.27859999999999996]",-28.66662598,-84.66668701,1,0,0,response5disk,7.333374023,-3.333343506,1,0,0,rectangle,7.333374023,-3.333343506,1,0,0,,1,0.0004,0,7.333374023,-3.333343506,1,0,0,0,15,15,3,1,3,first,,,,,,,,,,,,,,,,,,,,,,,,,,,,,,,,,,,,,,,,,,,,,,,,,,,,,,,,,,,,,,,,,,
,,,,,,5f82fd997dab234303560326,62bbfa1cb9fec65e60764b23,2022-06-29_10h07.34.672,Colour_Asymmetry_Pilot,2022.1.3,Win32,59.11912504,62bbe60bf3d75ef465d3e404,,,,,,,,,,,,,,,,,,,,onethree,,-3,0.6147,,,,,,,,,,,,,,,,,,,,,,,,,,,,,,,,,,"[0.6625999999999999,0.4980000000000002,-0.357]","[0.18419999999999992,-0.4276,-0.404]",-78.66662598,53.33331299,1,0,0,response7disk,-21.33331299,-3.333343506,1,0,0,rectangle,-21.33331299,-3.333343506,1,0,0,,3,0.0016,0,-21.33331299,-3.333343506,1,0,0,0,16,16,51,1,51,first,,,,,,,,,,,,,,,,,,,,,,,,,,,,,,,,,,,,,,,,,,,,,,,,,,,,,,,,,,,,,,,,,,
,,,,,,5f82fd997dab234303560326,62bbfa1cb9fec65e60764b23,2022-06-29_10h07.34.672,Colour_Asymmetry_Pilot,2022.1.3,Win32,59.11912504,62bbe60bf3d75ef465d3e404,,,,,,,,,,,,,,,,,,,,fourthree,,-4,0.3661,,,,,,,,,,,,,,,,,,,,,,,,,,,,,,,,,,"[-0.5688,-0.08239999999999992,-0.1844]","[0.12939999999999996,-0.2864,0.3253999999999999]",-43.33331299,80,1,0,0,response7disk,-13.33331299,-8,1,0,0,rectangle,-13.33331299,-8,1,0,0,,3,0.0006,0,-13.33331299,-8,1,0,0,0,17,17,47,1,47,first,,,,,,,,,,,,,,,,,,,,,,,,,,,,,,,,,,,,,,,,,,,,,,,,,,,,,,,,,,,,,,,,,,
,,,,,,5f82fd997dab234303560326,62bbfa1cb9fec65e60764b23,2022-06-29_10h07.34.672,Colour_Asymmetry_Pilot,2022.1.3,Win32,59.11912504,62bbe60bf3d75ef465d3e404,,,,,,,,,,,,,,,,,,,,onethree,,-4,0.5,,,,,,,,,,,,,,,,,,,,,,,,,,,,,,,,,,"[0.8274000000000001,-0.5844,-0.9452]","[-0.8118,-0.8198,-0.5452]",-50.66662598,90.66665649,1,0,0,response7disk,-4,-3.333343506,1,0,0,rectangle,-4,-3.333343506,1,0,0,,1,0.0029,0,-4,-3.333343506,1,0,0,0,18,18,112,1,31,second,,,,,,,,,,,,,,,,,,,,,,,,,,,,,,,,,,,,,,,,,,,,,,,,,,,,,,,,,,,,,,,,,,
