trials.thisRepN,trials.thisTrialN,trials.thisN,trials.thisIndex,trials.ran,Colourcodes,participant,session,date,expName,psychopyVersion,OS,frameRate,study_id,trials_4.thisRepN,trials_4.thisTrialN,trials_4.thisN,trials_4.thisIndex,trials_4.ran,StimulusPos,key_resp.keys,key_resp.rt,key_resp_2.keys,key_resp_2.rt,key_resp_15.keys,key_resp_15.rt,key_resp_17.keys,key_resp_17.rt,key_resp_9.keys,key_resp_9.rt,key_resp_10.keys,key_resp_10.rt,Circle1_col,Ecc,Circle2_col,similarity,response_time,mouse_5.x,mouse_5.y,mouse_5.leftButton,mouse_5.midButton,mouse_5.rightButton,mouse_5.clicked_name,mouse_10.x,mouse_10.y,mouse_10.leftButton,mouse_10.midButton,mouse_10.rightButton,mouse_10.clicked_name,mouse_7.x,mouse_7.y,mouse_7.leftButton,mouse_7.midButton,mouse_7.rightButton,mouse_7.clicked_name,catchprac,catchnumberprac,mouse_6.x,mouse_6.y,mouse_6.leftButton,mouse_6.midButton,mouse_6.rightButton,mouse_6.clicked_name,duringprac.thisRepN,duringprac.thisTrialN,duringprac.thisN,duringprac.thisIndex,duringprac.ran,key_resp_22.keys,key_resp_22.rt,Circle1_colour,Circle2_colour,mouse.x,mouse.y,mouse.leftButton,mouse.midButton,mouse.rightButton,mouse.clicked_name,mouse_2.x,mouse_2.y,mouse_2.leftButton,mouse_2.midButton,mouse_2.rightButton,mouse_2.clicked_name,mouse_3.x,mouse_3.y,mouse_3.leftButton,mouse_3.midButton,mouse_3.rightButton,catchresponse,catchnumber,response_time_catch,Catch,mouse_11.x,mouse_11.y,mouse_11.leftButton,mouse_11.midButton,mouse_11.rightButton,trials_2.thisRepN,trials_2.thisTrialN,trials_2.thisN,trials_2.thisIndex,trials_2.ran,Colourpair,Temporder,mouse_3.clicked_name,mouse_11.clicked_name,trials_3.thisRepN,trials_3.thisTrialN,trials_3.thisN,trials_3.thisIndex,trials_3.ran,key_resp_instr_Ishi.keys,key_resp_instr_Ishi.rt,Ishi_trial_keyresp.keys,Ishi_trial_keyresp.rt,Ishi_textbox.text,Ishi_loop.thisRepN,Ishi_loop.thisTrialN,Ishi_loop.thisN,Ishi_loop.thisIndex,Ishi_loop.ran,imageaddress,textbox.text,mouse_4.x,mouse_4.y,mouse_4.leftButton,mouse_4.midButton,mouse_4.rightButton,mouse_4.clicked_name,textbox_2.text,mouse_8.x,mouse_8.y,mouse_8.leftButton,mouse_8.midButton,mouse_8.rightButton,mouse_8.clicked_name,textbox_3.text,mouse_9.x,mouse_9.y,mouse_9.leftButton,mouse_9.midButton,mouse_9.rightButton,mouse_9.clicked_name,textbox_4.text,mouse_12.x,mouse_12.y,mouse_12.leftButton,mouse_12.midButton,mouse_12.rightButton,mouse_12.clicked_name,textbox_5.text,mouse_13.x,mouse_13.y,mouse_13.leftButton,mouse_13.midButton,mouse_13.rightButton,mouse_13.clicked_name,textbox_6.text,mouse_14.x,mouse_14.y,mouse_14.leftButton,mouse_14.midButton,mouse_14.rightButton,textbox_7.text,mouse_15.x,mouse_15.y,mouse_15.leftButton,mouse_15.midButton,mouse_15.rightButton,mouse_15.clicked_name
0,0,0,49,1,,610bc158e2949bf76f127802,62bbf9c4e1b67965ba07d590,2022-06-29_09h30.05.915,Colour_Asymmetry_Pilot,2022.1.3,Win32,60.03842459,62bbe60bf3d75ef465d3e404,,,,,,,,,,,,,,,,,,,,,,,,,,,,,,,,,,,,,,,,,,,,,,,,,,,,,,,,,,,,,,,,,,,,,,,,,,,,,,,,,,,,,,,,,,,,,,,,,,,,,,,,,,,,,,,,,,,,,,,,,,,,,,,,,,,,,,,,,,,,,,,,,,,,,,,,,,,,,
0,1,1,48,1,,610bc158e2949bf76f127802,62bbf9c4e1b67965ba07d590,2022-06-29_09h30.05.915,Colour_Asymmetry_Pilot,2022.1.3,Win32,60.03842459,62bbe60bf3d75ef465d3e404,,,,,,,,,,,,,,,,,,,,,,,,,,,,,,,,,,,,,,,,,,,,,,,,,,,,,,,,,,,,,,,,,,,,,,,,,,,,,,,,,,,,,,,,,,,,,,,,,,,,,,,,,,,,,,,,,,,,,,,,,,,,,,,,,,,,,,,,,,,,,,,,,,,,,,,,,,,,,
0,2,2,2,1,,610bc158e2949bf76f127802,62bbf9c4e1b67965ba07d590,2022-06-29_09h30.05.915,Colour_Asymmetry_Pilot,2022.1.3,Win32,60.03842459,62bbe60bf3d75ef465d3e404,,,,,,,,,,,,,,,,,,,,,,,,,,,,,,,,,,,,,,,,,,,,,,,,,,,,,,,,,,,,,,,,,,,,,,,,,,,,,,,,,,,,,,,,,,,,,,,,,,,,,,,,,,,,,,,,,,,,,,,,,,,,,,,,,,,,,,,,,,,,,,,,,,,,,,,,,,,,,
0,3,3,9,1,,610bc158e2949bf76f127802,62bbf9c4e1b67965ba07d590,2022-06-29_09h30.05.915,Colour_Asymmetry_Pilot,2022.1.3,Win32,60.03842459,62bbe60bf3d75ef465d3e404,,,,,,,,,,,,,,,,,,,,,,,,,,,,,,,,,,,,,,,,,,,,,,,,,,,,,,,,,,,,,,,,,,,,,,,,,,,,,,,,,,,,,,,,,,,,,,,,,,,,,,,,,,,,,,,,,,,,,,,,,,,,,,,,,,,,,,,,,,,,,,,,,,,,,,,,,,,,,
0,4,4,22,1,,610bc158e2949bf76f127802,62bbf9c4e1b67965ba07d590,2022-06-29_09h30.05.915,Colour_Asymmetry_Pilot,2022.1.3,Win32,60.03842459,62bbe60bf3d75ef465d3e404,,,,,,,,,,,,,,,,,,,,,,,,,,,,,,,,,,,,,,,,,,,,,,,,,,,,,,,,,,,,,,,,,,,,,,,,,,,,,,,,,,,,,,,,,,,,,,,,,,,,,,,,,,,,,,,,,,,,,,,,,,,,,,,,,,,,,,,,,,,,,,,,,,,,,,,,,,,,,
0,5,5,13,1,,610bc158e2949bf76f127802,62bbf9c4e1b67965ba07d590,2022-06-29_09h30.05.915,Colour_Asymmetry_Pilot,2022.1.3,Win32,60.03842459,62bbe60bf3d75ef465d3e404,,,,,,,,,,,,,,,,,,,,,,,,,,,,,,,,,,,,,,,,,,,,,,,,,,,,,,,,,,,,,,,,,,,,,,,,,,,,,,,,,,,,,,,,,,,,,,,,,,,,,,,,,,,,,,,,,,,,,,,,,,,,,,,,,,,,,,,,,,,,,,,,,,,,,,,,,,,,,
0,6,6,70,1,,610bc158e2949bf76f127802,62bbf9c4e1b67965ba07d590,2022-06-29_09h30.05.915,Colour_Asymmetry_Pilot,2022.1.3,Win32,60.03842459,62bbe60bf3d75ef465d3e404,,,,,,,,,,,,,,,,,,,,,,,,,,,,,,,,,,,,,,,,,,,,,,,,,,,,,,,,,,,,,,,,,,,,,,,,,,,,,,,,,,,,,,,,,,,,,,,,,,,,,,,,,,,,,,,,,,,,,,,,,,,,,,,,,,,,,,,,,,,,,,,,,,,,,,,,,,,,,
0,7,7,55,1,,610bc158e2949bf76f127802,62bbf9c4e1b67965ba07d590,2022-06-29_09h30.05.915,Colour_Asymmetry_Pilot,2022.1.3,Win32,60.03842459,62bbe60bf3d75ef465d3e404,,,,,,,,,,,,,,,,,,,,,,,,,,,,,,,,,,,,,,,,,,,,,,,,,,,,,,,,,,,,,,,,,,,,,,,,,,,,,,,,,,,,,,,,,,,,,,,,,,,,,,,,,,,,,,,,,,,,,,,,,,,,,,,,,,,,,,,,,,,,,,,,,,,,,,,,,,,,,
0,8,8,45,1,,610bc158e2949bf76f127802,62bbf9c4e1b67965ba07d590,2022-06-29_09h30.05.915,Colour_Asymmetry_Pilot,2022.1.3,Win32,60.03842459,62bbe60bf3d75ef465d3e404,,,,,,,,,,,,,,,,,,,,,,,,,,,,,,,,,,,,,,,,,,,,,,,,,,,,,,,,,,,,,,,,,,,,,,,,,,,,,,,,,,,,,,,,,,,,,,,,,,,,,,,,,,,,,,,,,,,,,,,,,,,,,,,,,,,,,,,,,,,,,,,,,,,,,,,,,,,,,
0,9,9,31,1,,610bc158e2949bf76f127802,62bbf9c4e1b67965ba07d590,2022-06-29_09h30.05.915,Colour_Asymmetry_Pilot,2022.1.3,Win32,60.03842459,62bbe60bf3d75ef465d3e404,,,,,,,,,,,,,,,,,,,,,,,,,,,,,,,,,,,,,,,,,,,,,,,,,,,,,,,,,,,,,,,,,,,,,,,,,,,,,,,,,,,,,,,,,,,,,,,,,,,,,,,,,,,,,,,,,,,,,,,,,,,,,,,,,,,,,,,,,,,,,,,,,,,,,,,,,,,,,
0,10,10,69,1,,610bc158e2949bf76f127802,62bbf9c4e1b67965ba07d590,2022-06-29_09h30.05.915,Colour_Asymmetry_Pilot,2022.1.3,Win32,60.03842459,62bbe60bf3d75ef465d3e404,,,,,,,,,,,,,,,,,,,,,,,,,,,,,,,,,,,,,,,,,,,,,,,,,,,,,,,,,,,,,,,,,,,,,,,,,,,,,,,,,,,,,,,,,,,,,,,,,,,,,,,,,,,,,,,,,,,,,,,,,,,,,,,,,,,,,,,,,,,,,,,,,,,,,,,,,,,,,
0,11,11,24,1,,610bc158e2949bf76f127802,62bbf9c4e1b67965ba07d590,2022-06-29_09h30.05.915,Colour_Asymmetry_Pilot,2022.1.3,Win32,60.03842459,62bbe60bf3d75ef465d3e404,,,,,,,,,,,,,,,,,,,,,,,,,,,,,,,,,,,,,,,,,,,,,,,,,,,,,,,,,,,,,,,,,,,,,,,,,,,,,,,,,,,,,,,,,,,,,,,,,,,,,,,,,,,,,,,,,,,,,,,,,,,,,,,,,,,,,,,,,,,,,,,,,,,,,,,,,,,,,
0,12,12,82,1,,610bc158e2949bf76f127802,62bbf9c4e1b67965ba07d590,2022-06-29_09h30.05.915,Colour_Asymmetry_Pilot,2022.1.3,Win32,60.03842459,62bbe60bf3d75ef465d3e404,,,,,,,,,,,,,,,,,,,,,,,,,,,,,,,,,,,,,,,,,,,,,,,,,,,,,,,,,,,,,,,,,,,,,,,,,,,,,,,,,,,,,,,,,,,,,,,,,,,,,,,,,,,,,,,,,,,,,,,,,,,,,,,,,,,,,,,,,,,,,,,,,,,,,,,,,,,,,
0,13,13,58,1,,610bc158e2949bf76f127802,62bbf9c4e1b67965ba07d590,2022-06-29_09h30.05.915,Colour_Asymmetry_Pilot,2022.1.3,Win32,60.03842459,62bbe60bf3d75ef465d3e404,,,,,,,,,,,,,,,,,,,,,,,,,,,,,,,,,,,,,,,,,,,,,,,,,,,,,,,,,,,,,,,,,,,,,,,,,,,,,,,,,,,,,,,,,,,,,,,,,,,,,,,,,,,,,,,,,,,,,,,,,,,,,,,,,,,,,,,,,,,,,,,,,,,,,,,,,,,,,
0,14,14,62,1,,610bc158e2949bf76f127802,62bbf9c4e1b67965ba07d590,2022-06-29_09h30.05.915,Colour_Asymmetry_Pilot,2022.1.3,Win32,60.03842459,62bbe60bf3d75ef465d3e404,,,,,,,,,,,,,,,,,,,,,,,,,,,,,,,,,,,,,,,,,,,,,,,,,,,,,,,,,,,,,,,,,,,,,,,,,,,,,,,,,,,,,,,,,,,,,,,,,,,,,,,,,,,,,,,,,,,,,,,,,,,,,,,,,,,,,,,,,,,,,,,,,,,,,,,,,,,,,
0,15,15,59,1,,610bc158e2949bf76f127802,62bbf9c4e1b67965ba07d590,2022-06-29_09h30.05.915,Colour_Asymmetry_Pilot,2022.1.3,Win32,60.03842459,62bbe60bf3d75ef465d3e404,,,,,,,,,,,,,,,,,,,,,,,,,,,,,,,,,,,,,,,,,,,,,,,,,,,,,,,,,,,,,,,,,,,,,,,,,,,,,,,,,,,,,,,,,,,,,,,,,,,,,,,,,,,,,,,,,,,,,,,,,,,,,,,,,,,,,,,,,,,,,,,,,,,,,,,,,,,,,
0,16,16,14,1,,610bc158e2949bf76f127802,62bbf9c4e1b67965ba07d590,2022-06-29_09h30.05.915,Colour_Asymmetry_Pilot,2022.1.3,Win32,60.03842459,62bbe60bf3d75ef465d3e404,,,,,,,,,,,,,,,,,,,,,,,,,,,,,,,,,,,,,,,,,,,,,,,,,,,,,,,,,,,,,,,,,,,,,,,,,,,,,,,,,,,,,,,,,,,,,,,,,,,,,,,,,,,,,,,,,,,,,,,,,,,,,,,,,,,,,,,,,,,,,,,,,,,,,,,,,,,,,
0,17,17,34,1,,610bc158e2949bf76f127802,62bbf9c4e1b67965ba07d590,2022-06-29_09h30.05.915,Colour_Asymmetry_Pilot,2022.1.3,Win32,60.03842459,62bbe60bf3d75ef465d3e404,,,,,,,,,,,,,,,,,,,,,,,,,,,,,,,,,,,,,,,,,,,,,,,,,,,,,,,,,,,,,,,,,,,,,,,,,,,,,,,,,,,,,,,,,,,,,,,,,,,,,,,,,,,,,,,,,,,,,,,,,,,,,,,,,,,,,,,,,,,,,,,,,,,,,,,,,,,,,
0,18,18,80,1,,610bc158e2949bf76f127802,62bbf9c4e1b67965ba07d590,2022-06-29_09h30.05.915,Colour_Asymmetry_Pilot,2022.1.3,Win32,60.03842459,62bbe60bf3d75ef465d3e404,,,,,,,,,,,,,,,,,,,,,,,,,,,,,,,,,,,,,,,,,,,,,,,,,,,,,,,,,,,,,,,,,,,,,,,,,,,,,,,,,,,,,,,,,,,,,,,,,,,,,,,,,,,,,,,,,,,,,,,,,,,,,,,,,,,,,,,,,,,,,,,,,,,,,,,,,,,,,
0,19,19,12,1,,610bc158e2949bf76f127802,62bbf9c4e1b67965ba07d590,2022-06-29_09h30.05.915,Colour_Asymmetry_Pilot,2022.1.3,Win32,60.03842459,62bbe60bf3d75ef465d3e404,,,,,,,,,,,,,,,,,,,,,,,,,,,,,,,,,,,,,,,,,,,,,,,,,,,,,,,,,,,,,,,,,,,,,,,,,,,,,,,,,,,,,,,,,,,,,,,,,,,,,,,,,,,,,,,,,,,,,,,,,,,,,,,,,,,,,,,,,,,,,,,,,,,,,,,,,,,,,
0,20,20,43,1,,610bc158e2949bf76f127802,62bbf9c4e1b67965ba07d590,2022-06-29_09h30.05.915,Colour_Asymmetry_Pilot,2022.1.3,Win32,60.03842459,62bbe60bf3d75ef465d3e404,,,,,,,,,,,,,,,,,,,,,,,,,,,,,,,,,,,,,,,,,,,,,,,,,,,,,,,,,,,,,,,,,,,,,,,,,,,,,,,,,,,,,,,,,,,,,,,,,,,,,,,,,,,,,,,,,,,,,,,,,,,,,,,,,,,,,,,,,,,,,,,,,,,,,,,,,,,,,
0,21,21,10,1,,610bc158e2949bf76f127802,62bbf9c4e1b67965ba07d590,2022-06-29_09h30.05.915,Colour_Asymmetry_Pilot,2022.1.3,Win32,60.03842459,62bbe60bf3d75ef465d3e404,,,,,,,,,,,,,,,,,,,,,,,,,,,,,,,,,,,,,,,,,,,,,,,,,,,,,,,,,,,,,,,,,,,,,,,,,,,,,,,,,,,,,,,,,,,,,,,,,,,,,,,,,,,,,,,,,,,,,,,,,,,,,,,,,,,,,,,,,,,,,,,,,,,,,,,,,,,,,
0,22,22,88,1,,610bc158e2949bf76f127802,62bbf9c4e1b67965ba07d590,2022-06-29_09h30.05.915,Colour_Asymmetry_Pilot,2022.1.3,Win32,60.03842459,62bbe60bf3d75ef465d3e404,,,,,,,,,,,,,,,,,,,,,,,,,,,,,,,,,,,,,,,,,,,,,,,,,,,,,,,,,,,,,,,,,,,,,,,,,,,,,,,,,,,,,,,,,,,,,,,,,,,,,,,,,,,,,,,,,,,,,,,,,,,,,,,,,,,,,,,,,,,,,,,,,,,,,,,,,,,,,
0,23,23,65,1,,610bc158e2949bf76f127802,62bbf9c4e1b67965ba07d590,2022-06-29_09h30.05.915,Colour_Asymmetry_Pilot,2022.1.3,Win32,60.03842459,62bbe60bf3d75ef465d3e404,,,,,,,,,,,,,,,,,,,,,,,,,,,,,,,,,,,,,,,,,,,,,,,,,,,,,,,,,,,,,,,,,,,,,,,,,,,,,,,,,,,,,,,,,,,,,,,,,,,,,,,,,,,,,,,,,,,,,,,,,,,,,,,,,,,,,,,,,,,,,,,,,,,,,,,,,,,,,
0,24,24,28,1,,610bc158e2949bf76f127802,62bbf9c4e1b67965ba07d590,2022-06-29_09h30.05.915,Colour_Asymmetry_Pilot,2022.1.3,Win32,60.03842459,62bbe60bf3d75ef465d3e404,,,,,,,,,,,,,,,,,,,,,,,,,,,,,,,,,,,,,,,,,,,,,,,,,,,,,,,,,,,,,,,,,,,,,,,,,,,,,,,,,,,,,,,,,,,,,,,,,,,,,,,,,,,,,,,,,,,,,,,,,,,,,,,,,,,,,,,,,,,,,,,,,,,,,,,,,,,,,
0,25,25,1,1,,610bc158e2949bf76f127802,62bbf9c4e1b67965ba07d590,2022-06-29_09h30.05.915,Colour_Asymmetry_Pilot,2022.1.3,Win32,60.03842459,62bbe60bf3d75ef465d3e404,,,,,,,,,,,,,,,,,,,,,,,,,,,,,,,,,,,,,,,,,,,,,,,,,,,,,,,,,,,,,,,,,,,,,,,,,,,,,,,,,,,,,,,,,,,,,,,,,,,,,,,,,,,,,,,,,,,,,,,,,,,,,,,,,,,,,,,,,,,,,,,,,,,,,,,,,,,,,
0,26,26,64,1,,610bc158e2949bf76f127802,62bbf9c4e1b67965ba07d590,2022-06-29_09h30.05.915,Colour_Asymmetry_Pilot,2022.1.3,Win32,60.03842459,62bbe60bf3d75ef465d3e404,,,,,,,,,,,,,,,,,,,,,,,,,,,,,,,,,,,,,,,,,,,,,,,,,,,,,,,,,,,,,,,,,,,,,,,,,,,,,,,,,,,,,,,,,,,,,,,,,,,,,,,,,,,,,,,,,,,,,,,,,,,,,,,,,,,,,,,,,,,,,,,,,,,,,,,,,,,,,
0,27,27,68,1,,610bc158e2949bf76f127802,62bbf9c4e1b67965ba07d590,2022-06-29_09h30.05.915,Colour_Asymmetry_Pilot,2022.1.3,Win32,60.03842459,62bbe60bf3d75ef465d3e404,,,,,,,,,,,,,,,,,,,,,,,,,,,,,,,,,,,,,,,,,,,,,,,,,,,,,,,,,,,,,,,,,,,,,,,,,,,,,,,,,,,,,,,,,,,,,,,,,,,,,,,,,,,,,,,,,,,,,,,,,,,,,,,,,,,,,,,,,,,,,,,,,,,,,,,,,,,,,
0,28,28,84,1,,610bc158e2949bf76f127802,62bbf9c4e1b67965ba07d590,2022-06-29_09h30.05.915,Colour_Asymmetry_Pilot,2022.1.3,Win32,60.03842459,62bbe60bf3d75ef465d3e404,,,,,,,,,,,,,,,,,,,,,,,,,,,,,,,,,,,,,,,,,,,,,,,,,,,,,,,,,,,,,,,,,,,,,,,,,,,,,,,,,,,,,,,,,,,,,,,,,,,,,,,,,,,,,,,,,,,,,,,,,,,,,,,,,,,,,,,,,,,,,,,,,,,,,,,,,,,,,
0,29,29,76,1,,610bc158e2949bf76f127802,62bbf9c4e1b67965ba07d590,2022-06-29_09h30.05.915,Colour_Asymmetry_Pilot,2022.1.3,Win32,60.03842459,62bbe60bf3d75ef465d3e404,,,,,,,,,,,,,,,,,,,,,,,,,,,,,,,,,,,,,,,,,,,,,,,,,,,,,,,,,,,,,,,,,,,,,,,,,,,,,,,,,,,,,,,,,,,,,,,,,,,,,,,,,,,,,,,,,,,,,,,,,,,,,,,,,,,,,,,,,,,,,,,,,,,,,,,,,,,,,
0,30,30,52,1,,610bc158e2949bf76f127802,62bbf9c4e1b67965ba07d590,2022-06-29_09h30.05.915,Colour_Asymmetry_Pilot,2022.1.3,Win32,60.03842459,62bbe60bf3d75ef465d3e404,,,,,,,,,,,,,,,,,,,,,,,,,,,,,,,,,,,,,,,,,,,,,,,,,,,,,,,,,,,,,,,,,,,,,,,,,,,,,,,,,,,,,,,,,,,,,,,,,,,,,,,,,,,,,,,,,,,,,,,,,,,,,,,,,,,,,,,,,,,,,,,,,,,,,,,,,,,,,
0,31,31,37,1,,610bc158e2949bf76f127802,62bbf9c4e1b67965ba07d590,2022-06-29_09h30.05.915,Colour_Asymmetry_Pilot,2022.1.3,Win32,60.03842459,62bbe60bf3d75ef465d3e404,,,,,,,,,,,,,,,,,,,,,,,,,,,,,,,,,,,,,,,,,,,,,,,,,,,,,,,,,,,,,,,,,,,,,,,,,,,,,,,,,,,,,,,,,,,,,,,,,,,,,,,,,,,,,,,,,,,,,,,,,,,,,,,,,,,,,,,,,,,,,,,,,,,,,,,,,,,,,
0,32,32,51,1,,610bc158e2949bf76f127802,62bbf9c4e1b67965ba07d590,2022-06-29_09h30.05.915,Colour_Asymmetry_Pilot,2022.1.3,Win32,60.03842459,62bbe60bf3d75ef465d3e404,,,,,,,,,,,,,,,,,,,,,,,,,,,,,,,,,,,,,,,,,,,,,,,,,,,,,,,,,,,,,,,,,,,,,,,,,,,,,,,,,,,,,,,,,,,,,,,,,,,,,,,,,,,,,,,,,,,,,,,,,,,,,,,,,,,,,,,,,,,,,,,,,,,,,,,,,,,,,
0,33,33,19,1,,610bc158e2949bf76f127802,62bbf9c4e1b67965ba07d590,2022-06-29_09h30.05.915,Colour_Asymmetry_Pilot,2022.1.3,Win32,60.03842459,62bbe60bf3d75ef465d3e404,,,,,,,,,,,,,,,,,,,,,,,,,,,,,,,,,,,,,,,,,,,,,,,,,,,,,,,,,,,,,,,,,,,,,,,,,,,,,,,,,,,,,,,,,,,,,,,,,,,,,,,,,,,,,,,,,,,,,,,,,,,,,,,,,,,,,,,,,,,,,,,,,,,,,,,,,,,,,
0,34,34,6,1,,610bc158e2949bf76f127802,62bbf9c4e1b67965ba07d590,2022-06-29_09h30.05.915,Colour_Asymmetry_Pilot,2022.1.3,Win32,60.03842459,62bbe60bf3d75ef465d3e404,,,,,,,,,,,,,,,,,,,,,,,,,,,,,,,,,,,,,,,,,,,,,,,,,,,,,,,,,,,,,,,,,,,,,,,,,,,,,,,,,,,,,,,,,,,,,,,,,,,,,,,,,,,,,,,,,,,,,,,,,,,,,,,,,,,,,,,,,,,,,,,,,,,,,,,,,,,,,
0,35,35,50,1,,610bc158e2949bf76f127802,62bbf9c4e1b67965ba07d590,2022-06-29_09h30.05.915,Colour_Asymmetry_Pilot,2022.1.3,Win32,60.03842459,62bbe60bf3d75ef465d3e404,,,,,,,,,,,,,,,,,,,,,,,,,,,,,,,,,,,,,,,,,,,,,,,,,,,,,,,,,,,,,,,,,,,,,,,,,,,,,,,,,,,,,,,,,,,,,,,,,,,,,,,,,,,,,,,,,,,,,,,,,,,,,,,,,,,,,,,,,,,,,,,,,,,,,,,,,,,,,
0,36,36,33,1,,610bc158e2949bf76f127802,62bbf9c4e1b67965ba07d590,2022-06-29_09h30.05.915,Colour_Asymmetry_Pilot,2022.1.3,Win32,60.03842459,62bbe60bf3d75ef465d3e404,,,,,,,,,,,,,,,,,,,,,,,,,,,,,,,,,,,,,,,,,,,,,,,,,,,,,,,,,,,,,,,,,,,,,,,,,,,,,,,,,,,,,,,,,,,,,,,,,,,,,,,,,,,,,,,,,,,,,,,,,,,,,,,,,,,,,,,,,,,,,,,,,,,,,,,,,,,,,
0,37,37,41,1,,610bc158e2949bf76f127802,62bbf9c4e1b67965ba07d590,2022-06-29_09h30.05.915,Colour_Asymmetry_Pilot,2022.1.3,Win32,60.03842459,62bbe60bf3d75ef465d3e404,,,,,,,,,,,,,,,,,,,,,,,,,,,,,,,,,,,,,,,,,,,,,,,,,,,,,,,,,,,,,,,,,,,,,,,,,,,,,,,,,,,,,,,,,,,,,,,,,,,,,,,,,,,,,,,,,,,,,,,,,,,,,,,,,,,,,,,,,,,,,,,,,,,,,,,,,,,,,
0,38,38,74,1,,610bc158e2949bf76f127802,62bbf9c4e1b67965ba07d590,2022-06-29_09h30.05.915,Colour_Asymmetry_Pilot,2022.1.3,Win32,60.03842459,62bbe60bf3d75ef465d3e404,,,,,,,,,,,,,,,,,,,,,,,,,,,,,,,,,,,,,,,,,,,,,,,,,,,,,,,,,,,,,,,,,,,,,,,,,,,,,,,,,,,,,,,,,,,,,,,,,,,,,,,,,,,,,,,,,,,,,,,,,,,,,,,,,,,,,,,,,,,,,,,,,,,,,,,,,,,,,
0,39,39,15,1,,610bc158e2949bf76f127802,62bbf9c4e1b67965ba07d590,2022-06-29_09h30.05.915,Colour_Asymmetry_Pilot,2022.1.3,Win32,60.03842459,62bbe60bf3d75ef465d3e404,,,,,,,,,,,,,,,,,,,,,,,,,,,,,,,,,,,,,,,,,,,,,,,,,,,,,,,,,,,,,,,,,,,,,,,,,,,,,,,,,,,,,,,,,,,,,,,,,,,,,,,,,,,,,,,,,,,,,,,,,,,,,,,,,,,,,,,,,,,,,,,,,,,,,,,,,,,,,
0,40,40,47,1,,610bc158e2949bf76f127802,62bbf9c4e1b67965ba07d590,2022-06-29_09h30.05.915,Colour_Asymmetry_Pilot,2022.1.3,Win32,60.03842459,62bbe60bf3d75ef465d3e404,,,,,,,,,,,,,,,,,,,,,,,,,,,,,,,,,,,,,,,,,,,,,,,,,,,,,,,,,,,,,,,,,,,,,,,,,,,,,,,,,,,,,,,,,,,,,,,,,,,,,,,,,,,,,,,,,,,,,,,,,,,,,,,,,,,,,,,,,,,,,,,,,,,,,,,,,,,,,
0,41,41,40,1,,610bc158e2949bf76f127802,62bbf9c4e1b67965ba07d590,2022-06-29_09h30.05.915,Colour_Asymmetry_Pilot,2022.1.3,Win32,60.03842459,62bbe60bf3d75ef465d3e404,,,,,,,,,,,,,,,,,,,,,,,,,,,,,,,,,,,,,,,,,,,,,,,,,,,,,,,,,,,,,,,,,,,,,,,,,,,,,,,,,,,,,,,,,,,,,,,,,,,,,,,,,,,,,,,,,,,,,,,,,,,,,,,,,,,,,,,,,,,,,,,,,,,,,,,,,,,,,
0,42,42,77,1,,610bc158e2949bf76f127802,62bbf9c4e1b67965ba07d590,2022-06-29_09h30.05.915,Colour_Asymmetry_Pilot,2022.1.3,Win32,60.03842459,62bbe60bf3d75ef465d3e404,,,,,,,,,,,,,,,,,,,,,,,,,,,,,,,,,,,,,,,,,,,,,,,,,,,,,,,,,,,,,,,,,,,,,,,,,,,,,,,,,,,,,,,,,,,,,,,,,,,,,,,,,,,,,,,,,,,,,,,,,,,,,,,,,,,,,,,,,,,,,,,,,,,,,,,,,,,,,
0,43,43,23,1,,610bc158e2949bf76f127802,62bbf9c4e1b67965ba07d590,2022-06-29_09h30.05.915,Colour_Asymmetry_Pilot,2022.1.3,Win32,60.03842459,62bbe60bf3d75ef465d3e404,,,,,,,,,,,,,,,,,,,,,,,,,,,,,,,,,,,,,,,,,,,,,,,,,,,,,,,,,,,,,,,,,,,,,,,,,,,,,,,,,,,,,,,,,,,,,,,,,,,,,,,,,,,,,,,,,,,,,,,,,,,,,,,,,,,,,,,,,,,,,,,,,,,,,,,,,,,,,
0,44,44,79,1,,610bc158e2949bf76f127802,62bbf9c4e1b67965ba07d590,2022-06-29_09h30.05.915,Colour_Asymmetry_Pilot,2022.1.3,Win32,60.03842459,62bbe60bf3d75ef465d3e404,,,,,,,,,,,,,,,,,,,,,,,,,,,,,,,,,,,,,,,,,,,,,,,,,,,,,,,,,,,,,,,,,,,,,,,,,,,,,,,,,,,,,,,,,,,,,,,,,,,,,,,,,,,,,,,,,,,,,,,,,,,,,,,,,,,,,,,,,,,,,,,,,,,,,,,,,,,,,
0,45,45,38,1,,610bc158e2949bf76f127802,62bbf9c4e1b67965ba07d590,2022-06-29_09h30.05.915,Colour_Asymmetry_Pilot,2022.1.3,Win32,60.03842459,62bbe60bf3d75ef465d3e404,,,,,,,,,,,,,,,,,,,,,,,,,,,,,,,,,,,,,,,,,,,,,,,,,,,,,,,,,,,,,,,,,,,,,,,,,,,,,,,,,,,,,,,,,,,,,,,,,,,,,,,,,,,,,,,,,,,,,,,,,,,,,,,,,,,,,,,,,,,,,,,,,,,,,,,,,,,,,
0,46,46,42,1,,610bc158e2949bf76f127802,62bbf9c4e1b67965ba07d590,2022-06-29_09h30.05.915,Colour_Asymmetry_Pilot,2022.1.3,Win32,60.03842459,62bbe60bf3d75ef465d3e404,,,,,,,,,,,,,,,,,,,,,,,,,,,,,,,,,,,,,,,,,,,,,,,,,,,,,,,,,,,,,,,,,,,,,,,,,,,,,,,,,,,,,,,,,,,,,,,,,,,,,,,,,,,,,,,,,,,,,,,,,,,,,,,,,,,,,,,,,,,,,,,,,,,,,,,,,,,,,
0,47,47,81,1,,610bc158e2949bf76f127802,62bbf9c4e1b67965ba07d590,2022-06-29_09h30.05.915,Colour_Asymmetry_Pilot,2022.1.3,Win32,60.03842459,62bbe60bf3d75ef465d3e404,,,,,,,,,,,,,,,,,,,,,,,,,,,,,,,,,,,,,,,,,,,,,,,,,,,,,,,,,,,,,,,,,,,,,,,,,,,,,,,,,,,,,,,,,,,,,,,,,,,,,,,,,,,,,,,,,,,,,,,,,,,,,,,,,,,,,,,,,,,,,,,,,,,,,,,,,,,,,
0,48,48,27,1,,610bc158e2949bf76f127802,62bbf9c4e1b67965ba07d590,2022-06-29_09h30.05.915,Colour_Asymmetry_Pilot,2022.1.3,Win32,60.03842459,62bbe60bf3d75ef465d3e404,,,,,,,,,,,,,,,,,,,,,,,,,,,,,,,,,,,,,,,,,,,,,,,,,,,,,,,,,,,,,,,,,,,,,,,,,,,,,,,,,,,,,,,,,,,,,,,,,,,,,,,,,,,,,,,,,,,,,,,,,,,,,,,,,,,,,,,,,,,,,,,,,,,,,,,,,,,,,
0,49,49,91,1,,610bc158e2949bf76f127802,62bbf9c4e1b67965ba07d590,2022-06-29_09h30.05.915,Colour_Asymmetry_Pilot,2022.1.3,Win32,60.03842459,62bbe60bf3d75ef465d3e404,,,,,,,,,,,,,,,,,,,,,,,,,,,,,,,,,,,,,,,,,,,,,,,,,,,,,,,,,,,,,,,,,,,,,,,,,,,,,,,,,,,,,,,,,,,,,,,,,,,,,,,,,,,,,,,,,,,,,,,,,,,,,,,,,,,,,,,,,,,,,,,,,,,,,,,,,,,,,
0,50,50,78,1,,610bc158e2949bf76f127802,62bbf9c4e1b67965ba07d590,2022-06-29_09h30.05.915,Colour_Asymmetry_Pilot,2022.1.3,Win32,60.03842459,62bbe60bf3d75ef465d3e404,,,,,,,,,,,,,,,,,,,,,,,,,,,,,,,,,,,,,,,,,,,,,,,,,,,,,,,,,,,,,,,,,,,,,,,,,,,,,,,,,,,,,,,,,,,,,,,,,,,,,,,,,,,,,,,,,,,,,,,,,,,,,,,,,,,,,,,,,,,,,,,,,,,,,,,,,,,,,
0,51,51,57,1,,610bc158e2949bf76f127802,62bbf9c4e1b67965ba07d590,2022-06-29_09h30.05.915,Colour_Asymmetry_Pilot,2022.1.3,Win32,60.03842459,62bbe60bf3d75ef465d3e404,,,,,,,,,,,,,,,,,,,,,,,,,,,,,,,,,,,,,,,,,,,,,,,,,,,,,,,,,,,,,,,,,,,,,,,,,,,,,,,,,,,,,,,,,,,,,,,,,,,,,,,,,,,,,,,,,,,,,,,,,,,,,,,,,,,,,,,,,,,,,,,,,,,,,,,,,,,,,
0,52,52,26,1,,610bc158e2949bf76f127802,62bbf9c4e1b67965ba07d590,2022-06-29_09h30.05.915,Colour_Asymmetry_Pilot,2022.1.3,Win32,60.03842459,62bbe60bf3d75ef465d3e404,,,,,,,,,,,,,,,,,,,,,,,,,,,,,,,,,,,,,,,,,,,,,,,,,,,,,,,,,,,,,,,,,,,,,,,,,,,,,,,,,,,,,,,,,,,,,,,,,,,,,,,,,,,,,,,,,,,,,,,,,,,,,,,,,,,,,,,,,,,,,,,,,,,,,,,,,,,,,
0,53,53,30,1,,610bc158e2949bf76f127802,62bbf9c4e1b67965ba07d590,2022-06-29_09h30.05.915,Colour_Asymmetry_Pilot,2022.1.3,Win32,60.03842459,62bbe60bf3d75ef465d3e404,,,,,,,,,,,,,,,,,,,,,,,,,,,,,,,,,,,,,,,,,,,,,,,,,,,,,,,,,,,,,,,,,,,,,,,,,,,,,,,,,,,,,,,,,,,,,,,,,,,,,,,,,,,,,,,,,,,,,,,,,,,,,,,,,,,,,,,,,,,,,,,,,,,,,,,,,,,,,
0,54,54,67,1,,610bc158e2949bf76f127802,62bbf9c4e1b67965ba07d590,2022-06-29_09h30.05.915,Colour_Asymmetry_Pilot,2022.1.3,Win32,60.03842459,62bbe60bf3d75ef465d3e404,,,,,,,,,,,,,,,,,,,,,,,,,,,,,,,,,,,,,,,,,,,,,,,,,,,,,,,,,,,,,,,,,,,,,,,,,,,,,,,,,,,,,,,,,,,,,,,,,,,,,,,,,,,,,,,,,,,,,,,,,,,,,,,,,,,,,,,,,,,,,,,,,,,,,,,,,,,,,
0,55,55,85,1,,610bc158e2949bf76f127802,62bbf9c4e1b67965ba07d590,2022-06-29_09h30.05.915,Colour_Asymmetry_Pilot,2022.1.3,Win32,60.03842459,62bbe60bf3d75ef465d3e404,,,,,,,,,,,,,,,,,,,,,,,,,,,,,,,,,,,,,,,,,,,,,,,,,,,,,,,,,,,,,,,,,,,,,,,,,,,,,,,,,,,,,,,,,,,,,,,,,,,,,,,,,,,,,,,,,,,,,,,,,,,,,,,,,,,,,,,,,,,,,,,,,,,,,,,,,,,,,
0,56,56,29,1,,610bc158e2949bf76f127802,62bbf9c4e1b67965ba07d590,2022-06-29_09h30.05.915,Colour_Asymmetry_Pilot,2022.1.3,Win32,60.03842459,62bbe60bf3d75ef465d3e404,,,,,,,,,,,,,,,,,,,,,,,,,,,,,,,,,,,,,,,,,,,,,,,,,,,,,,,,,,,,,,,,,,,,,,,,,,,,,,,,,,,,,,,,,,,,,,,,,,,,,,,,,,,,,,,,,,,,,,,,,,,,,,,,,,,,,,,,,,,,,,,,,,,,,,,,,,,,,
0,57,57,61,1,,610bc158e2949bf76f127802,62bbf9c4e1b67965ba07d590,2022-06-29_09h30.05.915,Colour_Asymmetry_Pilot,2022.1.3,Win32,60.03842459,62bbe60bf3d75ef465d3e404,,,,,,,,,,,,,,,,,,,,,,,,,,,,,,,,,,,,,,,,,,,,,,,,,,,,,,,,,,,,,,,,,,,,,,,,,,,,,,,,,,,,,,,,,,,,,,,,,,,,,,,,,,,,,,,,,,,,,,,,,,,,,,,,,,,,,,,,,,,,,,,,,,,,,,,,,,,,,
0,58,58,89,1,,610bc158e2949bf76f127802,62bbf9c4e1b67965ba07d590,2022-06-29_09h30.05.915,Colour_Asymmetry_Pilot,2022.1.3,Win32,60.03842459,62bbe60bf3d75ef465d3e404,,,,,,,,,,,,,,,,,,,,,,,,,,,,,,,,,,,,,,,,,,,,,,,,,,,,,,,,,,,,,,,,,,,,,,,,,,,,,,,,,,,,,,,,,,,,,,,,,,,,,,,,,,,,,,,,,,,,,,,,,,,,,,,,,,,,,,,,,,,,,,,,,,,,,,,,,,,,,
0,59,59,92,1,,610bc158e2949bf76f127802,62bbf9c4e1b67965ba07d590,2022-06-29_09h30.05.915,Colour_Asymmetry_Pilot,2022.1.3,Win32,60.03842459,62bbe60bf3d75ef465d3e404,,,,,,,,,,,,,,,,,,,,,,,,,,,,,,,,,,,,,,,,,,,,,,,,,,,,,,,,,,,,,,,,,,,,,,,,,,,,,,,,,,,,,,,,,,,,,,,,,,,,,,,,,,,,,,,,,,,,,,,,,,,,,,,,,,,,,,,,,,,,,,,,,,,,,,,,,,,,,
0,60,60,60,1,,610bc158e2949bf76f127802,62bbf9c4e1b67965ba07d590,2022-06-29_09h30.05.915,Colour_Asymmetry_Pilot,2022.1.3,Win32,60.03842459,62bbe60bf3d75ef465d3e404,,,,,,,,,,,,,,,,,,,,,,,,,,,,,,,,,,,,,,,,,,,,,,,,,,,,,,,,,,,,,,,,,,,,,,,,,,,,,,,,,,,,,,,,,,,,,,,,,,,,,,,,,,,,,,,,,,,,,,,,,,,,,,,,,,,,,,,,,,,,,,,,,,,,,,,,,,,,,
0,61,61,7,1,,610bc158e2949bf76f127802,62bbf9c4e1b67965ba07d590,2022-06-29_09h30.05.915,Colour_Asymmetry_Pilot,2022.1.3,Win32,60.03842459,62bbe60bf3d75ef465d3e404,,,,,,,,,,,,,,,,,,,,,,,,,,,,,,,,,,,,,,,,,,,,,,,,,,,,,,,,,,,,,,,,,,,,,,,,,,,,,,,,,,,,,,,,,,,,,,,,,,,,,,,,,,,,,,,,,,,,,,,,,,,,,,,,,,,,,,,,,,,,,,,,,,,,,,,,,,,,,
0,62,62,83,1,,610bc158e2949bf76f127802,62bbf9c4e1b67965ba07d590,2022-06-29_09h30.05.915,Colour_Asymmetry_Pilot,2022.1.3,Win32,60.03842459,62bbe60bf3d75ef465d3e404,,,,,,,,,,,,,,,,,,,,,,,,,,,,,,,,,,,,,,,,,,,,,,,,,,,,,,,,,,,,,,,,,,,,,,,,,,,,,,,,,,,,,,,,,,,,,,,,,,,,,,,,,,,,,,,,,,,,,,,,,,,,,,,,,,,,,,,,,,,,,,,,,,,,,,,,,,,,,
0,63,63,20,1,,610bc158e2949bf76f127802,62bbf9c4e1b67965ba07d590,2022-06-29_09h30.05.915,Colour_Asymmetry_Pilot,2022.1.3,Win32,60.03842459,62bbe60bf3d75ef465d3e404,,,,,,,,,,,,,,,,,,,,,,,,,,,,,,,,,,,,,,,,,,,,,,,,,,,,,,,,,,,,,,,,,,,,,,,,,,,,,,,,,,,,,,,,,,,,,,,,,,,,,,,,,,,,,,,,,,,,,,,,,,,,,,,,,,,,,,,,,,,,,,,,,,,,,,,,,,,,,
0,64,64,66,1,,610bc158e2949bf76f127802,62bbf9c4e1b67965ba07d590,2022-06-29_09h30.05.915,Colour_Asymmetry_Pilot,2022.1.3,Win32,60.03842459,62bbe60bf3d75ef465d3e404,,,,,,,,,,,,,,,,,,,,,,,,,,,,,,,,,,,,,,,,,,,,,,,,,,,,,,,,,,,,,,,,,,,,,,,,,,,,,,,,,,,,,,,,,,,,,,,,,,,,,,,,,,,,,,,,,,,,,,,,,,,,,,,,,,,,,,,,,,,,,,,,,,,,,,,,,,,,,
0,65,65,5,1,,610bc158e2949bf76f127802,62bbf9c4e1b67965ba07d590,2022-06-29_09h30.05.915,Colour_Asymmetry_Pilot,2022.1.3,Win32,60.03842459,62bbe60bf3d75ef465d3e404,,,,,,,,,,,,,,,,,,,,,,,,,,,,,,,,,,,,,,,,,,,,,,,,,,,,,,,,,,,,,,,,,,,,,,,,,,,,,,,,,,,,,,,,,,,,,,,,,,,,,,,,,,,,,,,,,,,,,,,,,,,,,,,,,,,,,,,,,,,,,,,,,,,,,,,,,,,,,
0,66,66,56,1,,610bc158e2949bf76f127802,62bbf9c4e1b67965ba07d590,2022-06-29_09h30.05.915,Colour_Asymmetry_Pilot,2022.1.3,Win32,60.03842459,62bbe60bf3d75ef465d3e404,,,,,,,,,,,,,,,,,,,,,,,,,,,,,,,,,,,,,,,,,,,,,,,,,,,,,,,,,,,,,,,,,,,,,,,,,,,,,,,,,,,,,,,,,,,,,,,,,,,,,,,,,,,,,,,,,,,,,,,,,,,,,,,,,,,,,,,,,,,,,,,,,,,,,,,,,,,,,
0,67,67,18,1,,610bc158e2949bf76f127802,62bbf9c4e1b67965ba07d590,2022-06-29_09h30.05.915,Colour_Asymmetry_Pilot,2022.1.3,Win32,60.03842459,62bbe60bf3d75ef465d3e404,,,,,,,,,,,,,,,,,,,,,,,,,,,,,,,,,,,,,,,,,,,,,,,,,,,,,,,,,,,,,,,,,,,,,,,,,,,,,,,,,,,,,,,,,,,,,,,,,,,,,,,,,,,,,,,,,,,,,,,,,,,,,,,,,,,,,,,,,,,,,,,,,,,,,,,,,,,,,
0,68,68,3,1,,610bc158e2949bf76f127802,62bbf9c4e1b67965ba07d590,2022-06-29_09h30.05.915,Colour_Asymmetry_Pilot,2022.1.3,Win32,60.03842459,62bbe60bf3d75ef465d3e404,,,,,,,,,,,,,,,,,,,,,,,,,,,,,,,,,,,,,,,,,,,,,,,,,,,,,,,,,,,,,,,,,,,,,,,,,,,,,,,,,,,,,,,,,,,,,,,,,,,,,,,,,,,,,,,,,,,,,,,,,,,,,,,,,,,,,,,,,,,,,,,,,,,,,,,,,,,,,
0,69,69,54,1,,610bc158e2949bf76f127802,62bbf9c4e1b67965ba07d590,2022-06-29_09h30.05.915,Colour_Asymmetry_Pilot,2022.1.3,Win32,60.03842459,62bbe60bf3d75ef465d3e404,,,,,,,,,,,,,,,,,,,,,,,,,,,,,,,,,,,,,,,,,,,,,,,,,,,,,,,,,,,,,,,,,,,,,,,,,,,,,,,,,,,,,,,,,,,,,,,,,,,,,,,,,,,,,,,,,,,,,,,,,,,,,,,,,,,,,,,,,,,,,,,,,,,,,,,,,,,,,
0,70,70,90,1,,610bc158e2949bf76f127802,62bbf9c4e1b67965ba07d590,2022-06-29_09h30.05.915,Colour_Asymmetry_Pilot,2022.1.3,Win32,60.03842459,62bbe60bf3d75ef465d3e404,,,,,,,,,,,,,,,,,,,,,,,,,,,,,,,,,,,,,,,,,,,,,,,,,,,,,,,,,,,,,,,,,,,,,,,,,,,,,,,,,,,,,,,,,,,,,,,,,,,,,,,,,,,,,,,,,,,,,,,,,,,,,,,,,,,,,,,,,,,,,,,,,,,,,,,,,,,,,
0,71,71,16,1,,610bc158e2949bf76f127802,62bbf9c4e1b67965ba07d590,2022-06-29_09h30.05.915,Colour_Asymmetry_Pilot,2022.1.3,Win32,60.03842459,62bbe60bf3d75ef465d3e404,,,,,,,,,,,,,,,,,,,,,,,,,,,,,,,,,,,,,,,,,,,,,,,,,,,,,,,,,,,,,,,,,,,,,,,,,,,,,,,,,,,,,,,,,,,,,,,,,,,,,,,,,,,,,,,,,,,,,,,,,,,,,,,,,,,,,,,,,,,,,,,,,,,,,,,,,,,,,
0,72,72,63,1,,610bc158e2949bf76f127802,62bbf9c4e1b67965ba07d590,2022-06-29_09h30.05.915,Colour_Asymmetry_Pilot,2022.1.3,Win32,60.03842459,62bbe60bf3d75ef465d3e404,,,,,,,,,,,,,,,,,,,,,,,,,,,,,,,,,,,,,,,,,,,,,,,,,,,,,,,,,,,,,,,,,,,,,,,,,,,,,,,,,,,,,,,,,,,,,,,,,,,,,,,,,,,,,,,,,,,,,,,,,,,,,,,,,,,,,,,,,,,,,,,,,,,,,,,,,,,,,
0,73,73,53,1,,610bc158e2949bf76f127802,62bbf9c4e1b67965ba07d590,2022-06-29_09h30.05.915,Colour_Asymmetry_Pilot,2022.1.3,Win32,60.03842459,62bbe60bf3d75ef465d3e404,,,,,,,,,,,,,,,,,,,,,,,,,,,,,,,,,,,,,,,,,,,,,,,,,,,,,,,,,,,,,,,,,,,,,,,,,,,,,,,,,,,,,,,,,,,,,,,,,,,,,,,,,,,,,,,,,,,,,,,,,,,,,,,,,,,,,,,,,,,,,,,,,,,,,,,,,,,,,
0,74,74,11,1,,610bc158e2949bf76f127802,62bbf9c4e1b67965ba07d590,2022-06-29_09h30.05.915,Colour_Asymmetry_Pilot,2022.1.3,Win32,60.03842459,62bbe60bf3d75ef465d3e404,,,,,,,,,,,,,,,,,,,,,,,,,,,,,,,,,,,,,,,,,,,,,,,,,,,,,,,,,,,,,,,,,,,,,,,,,,,,,,,,,,,,,,,,,,,,,,,,,,,,,,,,,,,,,,,,,,,,,,,,,,,,,,,,,,,,,,,,,,,,,,,,,,,,,,,,,,,,,
0,75,75,21,1,,610bc158e2949bf76f127802,62bbf9c4e1b67965ba07d590,2022-06-29_09h30.05.915,Colour_Asymmetry_Pilot,2022.1.3,Win32,60.03842459,62bbe60bf3d75ef465d3e404,,,,,,,,,,,,,,,,,,,,,,,,,,,,,,,,,,,,,,,,,,,,,,,,,,,,,,,,,,,,,,,,,,,,,,,,,,,,,,,,,,,,,,,,,,,,,,,,,,,,,,,,,,,,,,,,,,,,,,,,,,,,,,,,,,,,,,,,,,,,,,,,,,,,,,,,,,,,,
0,76,76,35,1,,610bc158e2949bf76f127802,62bbf9c4e1b67965ba07d590,2022-06-29_09h30.05.915,Colour_Asymmetry_Pilot,2022.1.3,Win32,60.03842459,62bbe60bf3d75ef465d3e404,,,,,,,,,,,,,,,,,,,,,,,,,,,,,,,,,,,,,,,,,,,,,,,,,,,,,,,,,,,,,,,,,,,,,,,,,,,,,,,,,,,,,,,,,,,,,,,,,,,,,,,,,,,,,,,,,,,,,,,,,,,,,,,,,,,,,,,,,,,,,,,,,,,,,,,,,,,,,
0,77,77,75,1,,610bc158e2949bf76f127802,62bbf9c4e1b67965ba07d590,2022-06-29_09h30.05.915,Colour_Asymmetry_Pilot,2022.1.3,Win32,60.03842459,62bbe60bf3d75ef465d3e404,,,,,,,,,,,,,,,,,,,,,,,,,,,,,,,,,,,,,,,,,,,,,,,,,,,,,,,,,,,,,,,,,,,,,,,,,,,,,,,,,,,,,,,,,,,,,,,,,,,,,,,,,,,,,,,,,,,,,,,,,,,,,,,,,,,,,,,,,,,,,,,,,,,,,,,,,,,,,
0,78,78,25,1,,610bc158e2949bf76f127802,62bbf9c4e1b67965ba07d590,2022-06-29_09h30.05.915,Colour_Asymmetry_Pilot,2022.1.3,Win32,60.03842459,62bbe60bf3d75ef465d3e404,,,,,,,,,,,,,,,,,,,,,,,,,,,,,,,,,,,,,,,,,,,,,,,,,,,,,,,,,,,,,,,,,,,,,,,,,,,,,,,,,,,,,,,,,,,,,,,,,,,,,,,,,,,,,,,,,,,,,,,,,,,,,,,,,,,,,,,,,,,,,,,,,,,,,,,,,,,,,
0,79,79,4,1,,610bc158e2949bf76f127802,62bbf9c4e1b67965ba07d590,2022-06-29_09h30.05.915,Colour_Asymmetry_Pilot,2022.1.3,Win32,60.03842459,62bbe60bf3d75ef465d3e404,,,,,,,,,,,,,,,,,,,,,,,,,,,,,,,,,,,,,,,,,,,,,,,,,,,,,,,,,,,,,,,,,,,,,,,,,,,,,,,,,,,,,,,,,,,,,,,,,,,,,,,,,,,,,,,,,,,,,,,,,,,,,,,,,,,,,,,,,,,,,,,,,,,,,,,,,,,,,
0,80,80,44,1,,610bc158e2949bf76f127802,62bbf9c4e1b67965ba07d590,2022-06-29_09h30.05.915,Colour_Asymmetry_Pilot,2022.1.3,Win32,60.03842459,62bbe60bf3d75ef465d3e404,,,,,,,,,,,,,,,,,,,,,,,,,,,,,,,,,,,,,,,,,,,,,,,,,,,,,,,,,,,,,,,,,,,,,,,,,,,,,,,,,,,,,,,,,,,,,,,,,,,,,,,,,,,,,,,,,,,,,,,,,,,,,,,,,,,,,,,,,,,,,,,,,,,,,,,,,,,,,
0,81,81,73,1,,610bc158e2949bf76f127802,62bbf9c4e1b67965ba07d590,2022-06-29_09h30.05.915,Colour_Asymmetry_Pilot,2022.1.3,Win32,60.03842459,62bbe60bf3d75ef465d3e404,,,,,,,,,,,,,,,,,,,,,,,,,,,,,,,,,,,,,,,,,,,,,,,,,,,,,,,,,,,,,,,,,,,,,,,,,,,,,,,,,,,,,,,,,,,,,,,,,,,,,,,,,,,,,,,,,,,,,,,,,,,,,,,,,,,,,,,,,,,,,,,,,,,,,,,,,,,,,
0,82,82,72,1,,610bc158e2949bf76f127802,62bbf9c4e1b67965ba07d590,2022-06-29_09h30.05.915,Colour_Asymmetry_Pilot,2022.1.3,Win32,60.03842459,62bbe60bf3d75ef465d3e404,,,,,,,,,,,,,,,,,,,,,,,,,,,,,,,,,,,,,,,,,,,,,,,,,,,,,,,,,,,,,,,,,,,,,,,,,,,,,,,,,,,,,,,,,,,,,,,,,,,,,,,,,,,,,,,,,,,,,,,,,,,,,,,,,,,,,,,,,,,,,,,,,,,,,,,,,,,,,
0,83,83,17,1,,610bc158e2949bf76f127802,62bbf9c4e1b67965ba07d590,2022-06-29_09h30.05.915,Colour_Asymmetry_Pilot,2022.1.3,Win32,60.03842459,62bbe60bf3d75ef465d3e404,,,,,,,,,,,,,,,,,,,,,,,,,,,,,,,,,,,,,,,,,,,,,,,,,,,,,,,,,,,,,,,,,,,,,,,,,,,,,,,,,,,,,,,,,,,,,,,,,,,,,,,,,,,,,,,,,,,,,,,,,,,,,,,,,,,,,,,,,,,,,,,,,,,,,,,,,,,,,
0,84,84,46,1,,610bc158e2949bf76f127802,62bbf9c4e1b67965ba07d590,2022-06-29_09h30.05.915,Colour_Asymmetry_Pilot,2022.1.3,Win32,60.03842459,62bbe60bf3d75ef465d3e404,,,,,,,,,,,,,,,,,,,,,,,,,,,,,,,,,,,,,,,,,,,,,,,,,,,,,,,,,,,,,,,,,,,,,,,,,,,,,,,,,,,,,,,,,,,,,,,,,,,,,,,,,,,,,,,,,,,,,,,,,,,,,,,,,,,,,,,,,,,,,,,,,,,,,,,,,,,,,
0,85,85,8,1,,610bc158e2949bf76f127802,62bbf9c4e1b67965ba07d590,2022-06-29_09h30.05.915,Colour_Asymmetry_Pilot,2022.1.3,Win32,60.03842459,62bbe60bf3d75ef465d3e404,,,,,,,,,,,,,,,,,,,,,,,,,,,,,,,,,,,,,,,,,,,,,,,,,,,,,,,,,,,,,,,,,,,,,,,,,,,,,,,,,,,,,,,,,,,,,,,,,,,,,,,,,,,,,,,,,,,,,,,,,,,,,,,,,,,,,,,,,,,,,,,,,,,,,,,,,,,,,
0,86,86,71,1,,610bc158e2949bf76f127802,62bbf9c4e1b67965ba07d590,2022-06-29_09h30.05.915,Colour_Asymmetry_Pilot,2022.1.3,Win32,60.03842459,62bbe60bf3d75ef465d3e404,,,,,,,,,,,,,,,,,,,,,,,,,,,,,,,,,,,,,,,,,,,,,,,,,,,,,,,,,,,,,,,,,,,,,,,,,,,,,,,,,,,,,,,,,,,,,,,,,,,,,,,,,,,,,,,,,,,,,,,,,,,,,,,,,,,,,,,,,,,,,,,,,,,,,,,,,,,,,
0,87,87,86,1,,610bc158e2949bf76f127802,62bbf9c4e1b67965ba07d590,2022-06-29_09h30.05.915,Colour_Asymmetry_Pilot,2022.1.3,Win32,60.03842459,62bbe60bf3d75ef465d3e404,,,,,,,,,,,,,,,,,,,,,,,,,,,,,,,,,,,,,,,,,,,,,,,,,,,,,,,,,,,,,,,,,,,,,,,,,,,,,,,,,,,,,,,,,,,,,,,,,,,,,,,,,,,,,,,,,,,,,,,,,,,,,,,,,,,,,,,,,,,,,,,,,,,,,,,,,,,,,
0,88,88,0,1,,610bc158e2949bf76f127802,62bbf9c4e1b67965ba07d590,2022-06-29_09h30.05.915,Colour_Asymmetry_Pilot,2022.1.3,Win32,60.03842459,62bbe60bf3d75ef465d3e404,,,,,,,,,,,,,,,,,,,,,,,,,,,,,,,,,,,,,,,,,,,,,,,,,,,,,,,,,,,,,,,,,,,,,,,,,,,,,,,,,,,,,,,,,,,,,,,,,,,,,,,,,,,,,,,,,,,,,,,,,,,,,,,,,,,,,,,,,,,,,,,,,,,,,,,,,,,,,
0,89,89,39,1,,610bc158e2949bf76f127802,62bbf9c4e1b67965ba07d590,2022-06-29_09h30.05.915,Colour_Asymmetry_Pilot,2022.1.3,Win32,60.03842459,62bbe60bf3d75ef465d3e404,,,,,,,,,,,,,,,,,,,,,,,,,,,,,,,,,,,,,,,,,,,,,,,,,,,,,,,,,,,,,,,,,,,,,,,,,,,,,,,,,,,,,,,,,,,,,,,,,,,,,,,,,,,,,,,,,,,,,,,,,,,,,,,,,,,,,,,,,,,,,,,,,,,,,,,,,,,,,
0,90,90,32,1,,610bc158e2949bf76f127802,62bbf9c4e1b67965ba07d590,2022-06-29_09h30.05.915,Colour_Asymmetry_Pilot,2022.1.3,Win32,60.03842459,62bbe60bf3d75ef465d3e404,,,,,,,,,,,,,,,,,,,,,,,,,,,,,,,,,,,,,,,,,,,,,,,,,,,,,,,,,,,,,,,,,,,,,,,,,,,,,,,,,,,,,,,,,,,,,,,,,,,,,,,,,,,,,,,,,,,,,,,,,,,,,,,,,,,,,,,,,,,,,,,,,,,,,,,,,,,,,
0,91,91,87,1,,610bc158e2949bf76f127802,62bbf9c4e1b67965ba07d590,2022-06-29_09h30.05.915,Colour_Asymmetry_Pilot,2022.1.3,Win32,60.03842459,62bbe60bf3d75ef465d3e404,,,,,,,,,,,,,,,,,,,,,,,,,,,,,,,,,,,,,,,,,,,,,,,,,,,,,,,,,,,,,,,,,,,,,,,,,,,,,,,,,,,,,,,,,,,,,,,,,,,,,,,,,,,,,,,,,,,,,,,,,,,,,,,,,,,,,,,,,,,,,,,,,,,,,,,,,,,,,
0,92,92,36,1,,610bc158e2949bf76f127802,62bbf9c4e1b67965ba07d590,2022-06-29_09h30.05.915,Colour_Asymmetry_Pilot,2022.1.3,Win32,60.03842459,62bbe60bf3d75ef465d3e404,,,,,,,,,,,,,,,,,,,,,,,,,,,,,,,,,,,,,,,,,,,,,,,,,,,,,,,,,,,,,,,,,,,,,,,,,,,,,,,,,,,,,,,,,,,,,,,,,,,,,,,,,,,,,,,,,,,,,,,,,,,,,,,,,,,,,,,,,,,,,,,,,,,,,,,,,,,,,
,,,,,,610bc158e2949bf76f127802,62bbf9c4e1b67965ba07d590,2022-06-29_09h30.05.915,Colour_Asymmetry_Pilot,2022.1.3,Win32,60.03842459,62bbe60bf3d75ef465d3e404,0,0,0,148,1,threeone,,,,,,,,,,,,,,,,,,,,,,,,,,,,,,,,,,,,,,,,,,,,,,,,,,,,,,,,,,,,,,,,,,,,,,,,,,,,,,,,,,,,,,,,,,,,,,,,,,,,,,,,,,,,,,,,,,,,,,,,,,,,,,,,,,,,,,,,,,,,,,,,,,,,,,,
,,,,,,610bc158e2949bf76f127802,62bbf9c4e1b67965ba07d590,2022-06-29_09h30.05.915,Colour_Asymmetry_Pilot,2022.1.3,Win32,60.03842459,62bbe60bf3d75ef465d3e404,0,1,1,34,1,twoone,,,,,,,,,,,,,,,,,,,,,,,,,,,,,,,,,,,,,,,,,,,,,,,,,,,,,,,,,,,,,,,,,,,,,,,,,,,,,,,,,,,,,,,,,,,,,,,,,,,,,,,,,,,,,,,,,,,,,,,,,,,,,,,,,,,,,,,,,,,,,,,,,,,,,,,
,,,,,,610bc158e2949bf76f127802,62bbf9c4e1b67965ba07d590,2022-06-29_09h30.05.915,Colour_Asymmetry_Pilot,2022.1.3,Win32,60.03842459,62bbe60bf3d75ef465d3e404,0,2,2,25,1,onethree,,,,,,,,,,,,,,,,,,,,,,,,,,,,,,,,,,,,,,,,,,,,,,,,,,,,,,,,,,,,,,,,,,,,,,,,,,,,,,,,,,,,,,,,,,,,,,,,,,,,,,,,,,,,,,,,,,,,,,,,,,,,,,,,,,,,,,,,,,,,,,,,,,,,,,,
,,,,,,610bc158e2949bf76f127802,62bbf9c4e1b67965ba07d590,2022-06-29_09h30.05.915,Colour_Asymmetry_Pilot,2022.1.3,Win32,60.03842459,62bbe60bf3d75ef465d3e404,0,3,3,1,1,onethree,,,,,,,,,,,,,,,,,,,,,,,,,,,,,,,,,,,,,,,,,,,,,,,,,,,,,,,,,,,,,,,,,,,,,,,,,,,,,,,,,,,,,,,,,,,,,,,,,,,,,,,,,,,,,,,,,,,,,,,,,,,,,,,,,,,,,,,,,,,,,,,,,,,,,,,
,,,,,,610bc158e2949bf76f127802,62bbf9c4e1b67965ba07d590,2022-06-29_09h30.05.915,Colour_Asymmetry_Pilot,2022.1.3,Win32,60.03842459,62bbe60bf3d75ef465d3e404,0,4,4,32,1,onetwo,,,,,,,,,,,,,,,,,,,,,,,,,,,,,,,,,,,,,,,,,,,,,,,,,,,,,,,,,,,,,,,,,,,,,,,,,,,,,,,,,,,,,,,,,,,,,,,,,,,,,,,,,,,,,,,,,,,,,,,,,,,,,,,,,,,,,,,,,,,,,,,,,,,,,,,
,,,,,,610bc158e2949bf76f127802,62bbf9c4e1b67965ba07d590,2022-06-29_09h30.05.915,Colour_Asymmetry_Pilot,2022.1.3,Win32,60.03842459,62bbe60bf3d75ef465d3e404,0,5,5,69,1,threefour,,,,,,,,,,,,,,,,,,,,,,,,,,,,,,,,,,,,,,,,,,,,,,,,,,,,,,,,,,,,,,,,,,,,,,,,,,,,,,,,,,,,,,,,,,,,,,,,,,,,,,,,,,,,,,,,,,,,,,,,,,,,,,,,,,,,,,,,,,,,,,,,,,,,,,,
,,,,,,610bc158e2949bf76f127802,62bbf9c4e1b67965ba07d590,2022-06-29_09h30.05.915,Colour_Asymmetry_Pilot,2022.1.3,Win32,60.03842459,62bbe60bf3d75ef465d3e404,0,6,6,109,1,threefour,,,,,,,,,,,,,,,,,,,,,,,,,,,,,,,,,,,,,,,,,,,,,,,,,,,,,,,,,,,,,,,,,,,,,,,,,,,,,,,,,,,,,,,,,,,,,,,,,,,,,,,,,,,,,,,,,,,,,,,,,,,,,,,,,,,,,,,,,,,,,,,,,,,,,,,
,,,,,,610bc158e2949bf76f127802,62bbf9c4e1b67965ba07d590,2022-06-29_09h30.05.915,Colour_Asymmetry_Pilot,2022.1.3,Win32,60.03842459,62bbe60bf3d75ef465d3e404,0,7,7,139,1,twofour,,,,,,,,,,,,,,,,,,,,,,,,,,,,,,,,,,,,,,,,,,,,,,,,,,,,,,,,,,,,,,,,,,,,,,,,,,,,,,,,,,,,,,,,,,,,,,,,,,,,,,,,,,,,,,,,,,,,,,,,,,,,,,,,,,,,,,,,,,,,,,,,,,,,,,,
,,,,,,610bc158e2949bf76f127802,62bbf9c4e1b67965ba07d590,2022-06-29_09h30.05.915,Colour_Asymmetry_Pilot,2022.1.3,Win32,60.03842459,62bbe60bf3d75ef465d3e404,0,8,8,38,1,fourtwo,,,,,,,,,,,,,,,,,,,,,,,,,,,,,,,,,,,,,,,,,,,,,,,,,,,,,,,,,,,,,,,,,,,,,,,,,,,,,,,,,,,,,,,,,,,,,,,,,,,,,,,,,,,,,,,,,,,,,,,,,,,,,,,,,,,,,,,,,,,,,,,,,,,,,,,
,,,,,,610bc158e2949bf76f127802,62bbf9c4e1b67965ba07d590,2022-06-29_09h30.05.915,Colour_Asymmetry_Pilot,2022.1.3,Win32,60.03842459,62bbe60bf3d75ef465d3e404,0,9,9,79,1,fourthree,,,,,,,,,,,,,,,,,,,,,,,,,,,,,,,,,,,,,,,,,,,,,,,,,,,,,,,,,,,,,,,,,,,,,,,,,,,,,,,,,,,,,,,,,,,,,,,,,,,,,,,,,,,,,,,,,,,,,,,,,,,,,,,,,,,,,,,,,,,,,,,,,,,,,,,
,,,,,,610bc158e2949bf76f127802,62bbf9c4e1b67965ba07d590,2022-06-29_09h30.05.915,Colour_Asymmetry_Pilot,2022.1.3,Win32,60.03842459,62bbe60bf3d75ef465d3e404,0,10,10,138,1,twoone,,,,,,,,,,,,,,,,,,,,,,,,,,,,,,,,,,,,,,,,,,,,,,,,,,,,,,,,,,,,,,,,,,,,,,,,,,,,,,,,,,,,,,,,,,,,,,,,,,,,,,,,,,,,,,,,,,,,,,,,,,,,,,,,,,,,,,,,,,,,,,,,,,,,,,,
,,,,,,610bc158e2949bf76f127802,62bbf9c4e1b67965ba07d590,2022-06-29_09h30.05.915,Colour_Asymmetry_Pilot,2022.1.3,Win32,60.03842459,62bbe60bf3d75ef465d3e404,0,11,11,103,1,fourthree,,,,,,,,,,,,,,,,,,,,,,,,,,,,,,,,,,,,,,,,,,,,,,,,,,,,,,,,,,,,,,,,,,,,,,,,,,,,,,,,,,,,,,,,,,,,,,,,,,,,,,,,,,,,,,,,,,,,,,,,,,,,,,,,,,,,,,,,,,,,,,,,,,,,,,,
,,,,,,610bc158e2949bf76f127802,62bbf9c4e1b67965ba07d590,2022-06-29_09h30.05.915,Colour_Asymmetry_Pilot,2022.1.3,Win32,60.03842459,62bbe60bf3d75ef465d3e404,0,12,12,52,1,threeone,,,,,,,,,,,,,,,,,,,,,,,,,,,,,,,,,,,,,,,,,,,,,,,,,,,,,,,,,,,,,,,,,,,,,,,,,,,,,,,,,,,,,,,,,,,,,,,,,,,,,,,,,,,,,,,,,,,,,,,,,,,,,,,,,,,,,,,,,,,,,,,,,,,,,,,
,,,,,,610bc158e2949bf76f127802,62bbf9c4e1b67965ba07d590,2022-06-29_09h30.05.915,Colour_Asymmetry_Pilot,2022.1.3,Win32,60.03842459,62bbe60bf3d75ef465d3e404,0,13,13,74,1,twoone,,,,,,,,,,,,,,,,,,,,,,,,,,,,,,,,,,,,,,,,,,,,,,,,,,,,,,,,,,,,,,,,,,,,,,,,,,,,,,,,,,,,,,,,,,,,,,,,,,,,,,,,,,,,,,,,,,,,,,,,,,,,,,,,,,,,,,,,,,,,,,,,,,,,,,,
,,,,,,610bc158e2949bf76f127802,62bbf9c4e1b67965ba07d590,2022-06-29_09h30.05.915,Colour_Asymmetry_Pilot,2022.1.3,Win32,60.03842459,62bbe60bf3d75ef465d3e404,0,14,14,26,1,twoone,,,,,,,,,,,,,,,,,,,,,,,,,,,,,,,,,,,,,,,,,,,,,,,,,,,,,,,,,,,,,,,,,,,,,,,,,,,,,,,,,,,,,,,,,,,,,,,,,,,,,,,,,,,,,,,,,,,,,,,,,,,,,,,,,,,,,,,,,,,,,,,,,,,,,,,
,,,,,,610bc158e2949bf76f127802,62bbf9c4e1b67965ba07d590,2022-06-29_09h30.05.915,Colour_Asymmetry_Pilot,2022.1.3,Win32,60.03842459,62bbe60bf3d75ef465d3e404,0,15,15,70,1,fourtwo,,,,,,,,,,,,,,,,,,,,,,,,,,,,,,,,,,,,,,,,,,,,,,,,,,,,,,,,,,,,,,,,,,,,,,,,,,,,,,,,,,,,,,,,,,,,,,,,,,,,,,,,,,,,,,,,,,,,,,,,,,,,,,,,,,,,,,,,,,,,,,,,,,,,,,,
,,,,,,610bc158e2949bf76f127802,62bbf9c4e1b67965ba07d590,2022-06-29_09h30.05.915,Colour_Asymmetry_Pilot,2022.1.3,Win32,60.03842459,62bbe60bf3d75ef465d3e404,0,16,16,48,1,onetwo,,,,,,,,,,,,,,,,,,,,,,,,,,,,,,,,,,,,,,,,,,,,,,,,,,,,,,,,,,,,,,,,,,,,,,,,,,,,,,,,,,,,,,,,,,,,,,,,,,,,,,,,,,,,,,,,,,,,,,,,,,,,,,,,,,,,,,,,,,,,,,,,,,,,,,,
,,,,,,610bc158e2949bf76f127802,62bbf9c4e1b67965ba07d590,2022-06-29_09h30.05.915,Colour_Asymmetry_Pilot,2022.1.3,Win32,60.03842459,62bbe60bf3d75ef465d3e404,0,17,17,158,1,fourtwo,,,,,,,,,,,,,,,,,,,,,,,,,,,,,,,,,,,,,,,,,,,,,,,,,,,,,,,,,,,,,,,,,,,,,,,,,,,,,,,,,,,,,,,,,,,,,,,,,,,,,,,,,,,,,,,,,,,,,,,,,,,,,,,,,,,,,,,,,,,,,,,,,,,,,,,
,,,,,,610bc158e2949bf76f127802,62bbf9c4e1b67965ba07d590,2022-06-29_09h30.05.915,Colour_Asymmetry_Pilot,2022.1.3,Win32,60.03842459,62bbe60bf3d75ef465d3e404,0,18,18,27,1,twofour,,,,,,,,,,,,,,,,,,,,,,,,,,,,,,,,,,,,,,,,,,,,,,,,,,,,,,,,,,,,,,,,,,,,,,,,,,,,,,,,,,,,,,,,,,,,,,,,,,,,,,,,,,,,,,,,,,,,,,,,,,,,,,,,,,,,,,,,,,,,,,,,,,,,,,,
,,,,,,610bc158e2949bf76f127802,62bbf9c4e1b67965ba07d590,2022-06-29_09h30.05.915,Colour_Asymmetry_Pilot,2022.1.3,Win32,60.03842459,62bbe60bf3d75ef465d3e404,0,19,19,159,1,fourthree,,,,,,,,,,,,,,,,,,,,,,,,,,,,,,,,,,,,,,,,,,,,,,,,,,,,,,,,,,,,,,,,,,,,,,,,,,,,,,,,,,,,,,,,,,,,,,,,,,,,,,,,,,,,,,,,,,,,,,,,,,,,,,,,,,,,,,,,,,,,,,,,,,,,,,,
,,,,,,610bc158e2949bf76f127802,62bbf9c4e1b67965ba07d590,2022-06-29_09h30.05.915,Colour_Asymmetry_Pilot,2022.1.3,Win32,60.03842459,62bbe60bf3d75ef465d3e404,0,20,20,156,1,threeone,,,,,,,,,,,,,,,,,,,,,,,,,,,,,,,,,,,,,,,,,,,,,,,,,,,,,,,,,,,,,,,,,,,,,,,,,,,,,,,,,,,,,,,,,,,,,,,,,,,,,,,,,,,,,,,,,,,,,,,,,,,,,,,,,,,,,,,,,,,,,,,,,,,,,,,
,,,,,,610bc158e2949bf76f127802,62bbf9c4e1b67965ba07d590,2022-06-29_09h30.05.915,Colour_Asymmetry_Pilot,2022.1.3,Win32,60.03842459,62bbe60bf3d75ef465d3e404,0,21,21,66,1,twoone,,,,,,,,,,,,,,,,,,,,,,,,,,,,,,,,,,,,,,,,,,,,,,,,,,,,,,,,,,,,,,,,,,,,,,,,,,,,,,,,,,,,,,,,,,,,,,,,,,,,,,,,,,,,,,,,,,,,,,,,,,,,,,,,,,,,,,,,,,,,,,,,,,,,,,,
,,,,,,610bc158e2949bf76f127802,62bbf9c4e1b67965ba07d590,2022-06-29_09h30.05.915,Colour_Asymmetry_Pilot,2022.1.3,Win32,60.03842459,62bbe60bf3d75ef465d3e404,0,22,22,17,1,onethree,,,,,,,,,,,,,,,,,,,,,,,,,,,,,,,,,,,,,,,,,,,,,,,,,,,,,,,,,,,,,,,,,,,,,,,,,,,,,,,,,,,,,,,,,,,,,,,,,,,,,,,,,,,,,,,,,,,,,,,,,,,,,,,,,,,,,,,,,,,,,,,,,,,,,,,
,,,,,,610bc158e2949bf76f127802,62bbf9c4e1b67965ba07d590,2022-06-29_09h30.05.915,Colour_Asymmetry_Pilot,2022.1.3,Win32,60.03842459,62bbe60bf3d75ef465d3e404,0,23,23,134,1,fourtwo,,,,,,,,,,,,,,,,,,,,,,,,,,,,,,,,,,,,,,,,,,,,,,,,,,,,,,,,,,,,,,,,,,,,,,,,,,,,,,,,,,,,,,,,,,,,,,,,,,,,,,,,,,,,,,,,,,,,,,,,,,,,,,,,,,,,,,,,,,,,,,,,,,,,,,,
,,,,,,610bc158e2949bf76f127802,62bbf9c4e1b67965ba07d590,2022-06-29_09h30.05.915,Colour_Asymmetry_Pilot,2022.1.3,Win32,60.03842459,62bbe60bf3d75ef465d3e404,0,24,24,59,1,twofour,,,,,,,,,,,,,,,,,,,,,,,,,,,,,,,,,,,,,,,,,,,,,,,,,,,,,,,,,,,,,,,,,,,,,,,,,,,,,,,,,,,,,,,,,,,,,,,,,,,,,,,,,,,,,,,,,,,,,,,,,,,,,,,,,,,,,,,,,,,,,,,,,,,,,,,
,,,,,,610bc158e2949bf76f127802,62bbf9c4e1b67965ba07d590,2022-06-29_09h30.05.915,Colour_Asymmetry_Pilot,2022.1.3,Win32,60.03842459,62bbe60bf3d75ef465d3e404,0,25,25,106,1,twoone,,,,,,,,,,,,,,,,,,,,,,,,,,,,,,,,,,,,,,,,,,,,,,,,,,,,,,,,,,,,,,,,,,,,,,,,,,,,,,,,,,,,,,,,,,,,,,,,,,,,,,,,,,,,,,,,,,,,,,,,,,,,,,,,,,,,,,,,,,,,,,,,,,,,,,,
,,,,,,610bc158e2949bf76f127802,62bbf9c4e1b67965ba07d590,2022-06-29_09h30.05.915,Colour_Asymmetry_Pilot,2022.1.3,Win32,60.03842459,62bbe60bf3d75ef465d3e404,0,26,26,161,1,onethree,,,,,,,,,,,,,,,,,,,,,,,,,,,,,,,,,,,,,,,,,,,,,,,,,,,,,,,,,,,,,,,,,,,,,,,,,,,,,,,,,,,,,,,,,,,,,,,,,,,,,,,,,,,,,,,,,,,,,,,,,,,,,,,,,,,,,,,,,,,,,,,,,,,,,,,
,,,,,,610bc158e2949bf76f127802,62bbf9c4e1b67965ba07d590,2022-06-29_09h30.05.915,Colour_Asymmetry_Pilot,2022.1.3,Win32,60.03842459,62bbe60bf3d75ef465d3e404,0,27,27,53,1,threefour,,,,,,,,,,,,,,,,,,,,,,,,,,,,,,,,,,,,,,,,,,,,,,,,,,,,,,,,,,,,,,,,,,,,,,,,,,,,,,,,,,,,,,,,,,,,,,,,,,,,,,,,,,,,,,,,,,,,,,,,,,,,,,,,,,,,,,,,,,,,,,,,,,,,,,,
,,,,,,610bc158e2949bf76f127802,62bbf9c4e1b67965ba07d590,2022-06-29_09h30.05.915,Colour_Asymmetry_Pilot,2022.1.3,Win32,60.03842459,62bbe60bf3d75ef465d3e404,0,28,28,58,1,twoone,,,,,,,,,,,,,,,,,,,,,,,,,,,,,,,,,,,,,,,,,,,,,,,,,,,,,,,,,,,,,,,,,,,,,,,,,,,,,,,,,,,,,,,,,,,,,,,,,,,,,,,,,,,,,,,,,,,,,,,,,,,,,,,,,,,,,,,,,,,,,,,,,,,,,,,
,,,,,,610bc158e2949bf76f127802,62bbf9c4e1b67965ba07d590,2022-06-29_09h30.05.915,Colour_Asymmetry_Pilot,2022.1.3,Win32,60.03842459,62bbe60bf3d75ef465d3e404,0,29,29,131,1,twofour,,,,,,,,,,,,,,,,,,,,,,,,,,,,,,,,,,,,,,,,,,,,,,,,,,,,,,,,,,,,,,,,,,,,,,,,,,,,,,,,,,,,,,,,,,,,,,,,,,,,,,,,,,,,,,,,,,,,,,,,,,,,,,,,,,,,,,,,,,,,,,,,,,,,,,,
,,,,,,610bc158e2949bf76f127802,62bbf9c4e1b67965ba07d590,2022-06-29_09h30.05.915,Colour_Asymmetry_Pilot,2022.1.3,Win32,60.03842459,62bbe60bf3d75ef465d3e404,0,30,30,9,1,onethree,,,,,,,,,,,,,,,,,,,,,,,,,,,,,,,,,,,,,,,,,,,,,,,,,,,,,,,,,,,,,,,,,,,,,,,,,,,,,,,,,,,,,,,,,,,,,,,,,,,,,,,,,,,,,,,,,,,,,,,,,,,,,,,,,,,,,,,,,,,,,,,,,,,,,,,
,,,,,,610bc158e2949bf76f127802,62bbf9c4e1b67965ba07d590,2022-06-29_09h30.05.915,Colour_Asymmetry_Pilot,2022.1.3,Win32,60.03842459,62bbe60bf3d75ef465d3e404,0,31,31,36,1,threeone,,,,,,,,,,,,,,,,,,,,,,,,,,,,,,,,,,,,,,,,,,,,,,,,,,,,,,,,,,,,,,,,,,,,,,,,,,,,,,,,,,,,,,,,,,,,,,,,,,,,,,,,,,,,,,,,,,,,,,,,,,,,,,,,,,,,,,,,,,,,,,,,,,,,,,,
,,,,,,610bc158e2949bf76f127802,62bbf9c4e1b67965ba07d590,2022-06-29_09h30.05.915,Colour_Asymmetry_Pilot,2022.1.3,Win32,60.03842459,62bbe60bf3d75ef465d3e404,0,32,32,43,1,twofour,,,,,,,,,,,,,,,,,,,,,,,,,,,,,,,,,,,,,,,,,,,,,,,,,,,,,,,,,,,,,,,,,,,,,,,,,,,,,,,,,,,,,,,,,,,,,,,,,,,,,,,,,,,,,,,,,,,,,,,,,,,,,,,,,,,,,,,,,,,,,,,,,,,,,,,
,,,,,,610bc158e2949bf76f127802,62bbf9c4e1b67965ba07d590,2022-06-29_09h30.05.915,Colour_Asymmetry_Pilot,2022.1.3,Win32,60.03842459,62bbe60bf3d75ef465d3e404,0,33,33,51,1,twofour,,,,,,,,,,,,,,,,,,,,,,,,,,,,,,,,,,,,,,,,,,,,,,,,,,,,,,,,,,,,,,,,,,,,,,,,,,,,,,,,,,,,,,,,,,,,,,,,,,,,,,,,,,,,,,,,,,,,,,,,,,,,,,,,,,,,,,,,,,,,,,,,,,,,,,,
,,,,,,610bc158e2949bf76f127802,62bbf9c4e1b67965ba07d590,2022-06-29_09h30.05.915,Colour_Asymmetry_Pilot,2022.1.3,Win32,60.03842459,62bbe60bf3d75ef465d3e404,0,34,34,88,1,onetwo,,,,,,,,,,,,,,,,,,,,,,,,,,,,,,,,,,,,,,,,,,,,,,,,,,,,,,,,,,,,,,,,,,,,,,,,,,,,,,,,,,,,,,,,,,,,,,,,,,,,,,,,,,,,,,,,,,,,,,,,,,,,,,,,,,,,,,,,,,,,,,,,,,,,,,,
,,,,,,610bc158e2949bf76f127802,62bbf9c4e1b67965ba07d590,2022-06-29_09h30.05.915,Colour_Asymmetry_Pilot,2022.1.3,Win32,60.03842459,62bbe60bf3d75ef465d3e404,0,35,35,101,1,threefour,,,,,,,,,,,,,,,,,,,,,,,,,,,,,,,,,,,,,,,,,,,,,,,,,,,,,,,,,,,,,,,,,,,,,,,,,,,,,,,,,,,,,,,,,,,,,,,,,,,,,,,,,,,,,,,,,,,,,,,,,,,,,,,,,,,,,,,,,,,,,,,,,,,,,,,
,,,,,,610bc158e2949bf76f127802,62bbf9c4e1b67965ba07d590,2022-06-29_09h30.05.915,Colour_Asymmetry_Pilot,2022.1.3,Win32,60.03842459,62bbe60bf3d75ef465d3e404,0,36,36,77,1,threefour,,,,,,,,,,,,,,,,,,,,,,,,,,,,,,,,,,,,,,,,,,,,,,,,,,,,,,,,,,,,,,,,,,,,,,,,,,,,,,,,,,,,,,,,,,,,,,,,,,,,,,,,,,,,,,,,,,,,,,,,,,,,,,,,,,,,,,,,,,,,,,,,,,,,,,,
,,,,,,610bc158e2949bf76f127802,62bbf9c4e1b67965ba07d590,2022-06-29_09h30.05.915,Colour_Asymmetry_Pilot,2022.1.3,Win32,60.03842459,62bbe60bf3d75ef465d3e404,0,37,37,65,1,onethree,,,,,,,,,,,,,,,,,,,,,,,,,,,,,,,,,,,,,,,,,,,,,,,,,,,,,,,,,,,,,,,,,,,,,,,,,,,,,,,,,,,,,,,,,,,,,,,,,,,,,,,,,,,,,,,,,,,,,,,,,,,,,,,,,,,,,,,,,,,,,,,,,,,,,,,
,,,,,,610bc158e2949bf76f127802,62bbf9c4e1b67965ba07d590,2022-06-29_09h30.05.915,Colour_Asymmetry_Pilot,2022.1.3,Win32,60.03842459,62bbe60bf3d75ef465d3e404,0,38,38,37,1,threefour,,,,,,,,,,,,,,,,,,,,,,,,,,,,,,,,,,,,,,,,,,,,,,,,,,,,,,,,,,,,,,,,,,,,,,,,,,,,,,,,,,,,,,,,,,,,,,,,,,,,,,,,,,,,,,,,,,,,,,,,,,,,,,,,,,,,,,,,,,,,,,,,,,,,,,,
,,,,,,610bc158e2949bf76f127802,62bbf9c4e1b67965ba07d590,2022-06-29_09h30.05.915,Colour_Asymmetry_Pilot,2022.1.3,Win32,60.03842459,62bbe60bf3d75ef465d3e404,0,39,39,16,1,onetwo,,,,,,,,,,,,,,,,,,,,,,,,,,,,,,,,,,,,,,,,,,,,,,,,,,,,,,,,,,,,,,,,,,,,,,,,,,,,,,,,,,,,,,,,,,,,,,,,,,,,,,,,,,,,,,,,,,,,,,,,,,,,,,,,,,,,,,,,,,,,,,,,,,,,,,,
,,,,,,610bc158e2949bf76f127802,62bbf9c4e1b67965ba07d590,2022-06-29_09h30.05.915,Colour_Asymmetry_Pilot,2022.1.3,Win32,60.03842459,62bbe60bf3d75ef465d3e404,0,40,40,147,1,twofour,,,,,,,,,,,,,,,,,,,,,,,,,,,,,,,,,,,,,,,,,,,,,,,,,,,,,,,,,,,,,,,,,,,,,,,,,,,,,,,,,,,,,,,,,,,,,,,,,,,,,,,,,,,,,,,,,,,,,,,,,,,,,,,,,,,,,,,,,,,,,,,,,,,,,,,
,,,,,,610bc158e2949bf76f127802,62bbf9c4e1b67965ba07d590,2022-06-29_09h30.05.915,Colour_Asymmetry_Pilot,2022.1.3,Win32,60.03842459,62bbe60bf3d75ef465d3e404,0,41,41,125,1,threefour,,,,,,,,,,,,,,,,,,,,,,,,,,,,,,,,,,,,,,,,,,,,,,,,,,,,,,,,,,,,,,,,,,,,,,,,,,,,,,,,,,,,,,,,,,,,,,,,,,,,,,,,,,,,,,,,,,,,,,,,,,,,,,,,,,,,,,,,,,,,,,,,,,,,,,,
,,,,,,610bc158e2949bf76f127802,62bbf9c4e1b67965ba07d590,2022-06-29_09h30.05.915,Colour_Asymmetry_Pilot,2022.1.3,Win32,60.03842459,62bbe60bf3d75ef465d3e404,0,42,42,102,1,fourtwo,,,,,,,,,,,,,,,,,,,,,,,,,,,,,,,,,,,,,,,,,,,,,,,,,,,,,,,,,,,,,,,,,,,,,,,,,,,,,,,,,,,,,,,,,,,,,,,,,,,,,,,,,,,,,,,,,,,,,,,,,,,,,,,,,,,,,,,,,,,,,,,,,,,,,,,
,,,,,,610bc158e2949bf76f127802,62bbf9c4e1b67965ba07d590,2022-06-29_09h30.05.915,Colour_Asymmetry_Pilot,2022.1.3,Win32,60.03842459,62bbe60bf3d75ef465d3e404,0,43,43,24,1,onetwo,,,,,,,,,,,,,,,,,,,,,,,,,,,,,,,,,,,,,,,,,,,,,,,,,,,,,,,,,,,,,,,,,,,,,,,,,,,,,,,,,,,,,,,,,,,,,,,,,,,,,,,,,,,,,,,,,,,,,,,,,,,,,,,,,,,,,,,,,,,,,,,,,,,,,,,
,,,,,,610bc158e2949bf76f127802,62bbf9c4e1b67965ba07d590,2022-06-29_09h30.05.915,Colour_Asymmetry_Pilot,2022.1.3,Win32,60.03842459,62bbe60bf3d75ef465d3e404,0,44,44,160,1,onetwo,,,,,,,,,,,,,,,,,,,,,,,,,,,,,,,,,,,,,,,,,,,,,,,,,,,,,,,,,,,,,,,,,,,,,,,,,,,,,,,,,,,,,,,,,,,,,,,,,,,,,,,,,,,,,,,,,,,,,,,,,,,,,,,,,,,,,,,,,,,,,,,,,,,,,,,
,,,,,,610bc158e2949bf76f127802,62bbf9c4e1b67965ba07d590,2022-06-29_09h30.05.915,Colour_Asymmetry_Pilot,2022.1.3,Win32,60.03842459,62bbe60bf3d75ef465d3e404,0,45,45,110,1,fourtwo,,,,,,,,,,,,,,,,,,,,,,,,,,,,,,,,,,,,,,,,,,,,,,,,,,,,,,,,,,,,,,,,,,,,,,,,,,,,,,,,,,,,,,,,,,,,,,,,,,,,,,,,,,,,,,,,,,,,,,,,,,,,,,,,,,,,,,,,,,,,,,,,,,,,,,,
,,,,,,610bc158e2949bf76f127802,62bbf9c4e1b67965ba07d590,2022-06-29_09h30.05.915,Colour_Asymmetry_Pilot,2022.1.3,Win32,60.03842459,62bbe60bf3d75ef465d3e404,0,46,46,31,1,fourthree,,,,,,,,,,,,,,,,,,,,,,,,,,,,,,,,,,,,,,,,,,,,,,,,,,,,,,,,,,,,,,,,,,,,,,,,,,,,,,,,,,,,,,,,,,,,,,,,,,,,,,,,,,,,,,,,,,,,,,,,,,,,,,,,,,,,,,,,,,,,,,,,,,,,,,,
,,,,,,610bc158e2949bf76f127802,62bbf9c4e1b67965ba07d590,2022-06-29_09h30.05.915,Colour_Asymmetry_Pilot,2022.1.3,Win32,60.03842459,62bbe60bf3d75ef465d3e404,0,47,47,121,1,onethree,,,,,,,,,,,,,,,,,,,,,,,,,,,,,,,,,,,,,,,,,,,,,,,,,,,,,,,,,,,,,,,,,,,,,,,,,,,,,,,,,,,,,,,,,,,,,,,,,,,,,,,,,,,,,,,,,,,,,,,,,,,,,,,,,,,,,,,,,,,,,,,,,,,,,,,
,,,,,,610bc158e2949bf76f127802,62bbf9c4e1b67965ba07d590,2022-06-29_09h30.05.915,Colour_Asymmetry_Pilot,2022.1.3,Win32,60.03842459,62bbe60bf3d75ef465d3e404,0,48,48,76,1,threeone,,,,,,,,,,,,,,,,,,,,,,,,,,,,,,,,,,,,,,,,,,,,,,,,,,,,,,,,,,,,,,,,,,,,,,,,,,,,,,,,,,,,,,,,,,,,,,,,,,,,,,,,,,,,,,,,,,,,,,,,,,,,,,,,,,,,,,,,,,,,,,,,,,,,,,,
,,,,,,610bc158e2949bf76f127802,62bbf9c4e1b67965ba07d590,2022-06-29_09h30.05.915,Colour_Asymmetry_Pilot,2022.1.3,Win32,60.03842459,62bbe60bf3d75ef465d3e404,0,49,49,85,1,threefour,,,,,,,,,,,,,,,,,,,,,,,,,,,,,,,,,,,,,,,,,,,,,,,,,,,,,,,,,,,,,,,,,,,,,,,,,,,,,,,,,,,,,,,,,,,,,,,,,,,,,,,,,,,,,,,,,,,,,,,,,,,,,,,,,,,,,,,,,,,,,,,,,,,,,,,
,,,,,,610bc158e2949bf76f127802,62bbf9c4e1b67965ba07d590,2022-06-29_09h30.05.915,Colour_Asymmetry_Pilot,2022.1.3,Win32,60.03842459,62bbe60bf3d75ef465d3e404,0,50,50,155,1,twofour,,,,,,,,,,,,,,,,,,,,,,,,,,,,,,,,,,,,,,,,,,,,,,,,,,,,,,,,,,,,,,,,,,,,,,,,,,,,,,,,,,,,,,,,,,,,,,,,,,,,,,,,,,,,,,,,,,,,,,,,,,,,,,,,,,,,,,,,,,,,,,,,,,,,,,,
,,,,,,610bc158e2949bf76f127802,62bbf9c4e1b67965ba07d590,2022-06-29_09h30.05.915,Colour_Asymmetry_Pilot,2022.1.3,Win32,60.03842459,62bbe60bf3d75ef465d3e404,0,51,51,107,1,twofour,,,,,,,,,,,,,,,,,,,,,,,,,,,,,,,,,,,,,,,,,,,,,,,,,,,,,,,,,,,,,,,,,,,,,,,,,,,,,,,,,,,,,,,,,,,,,,,,,,,,,,,,,,,,,,,,,,,,,,,,,,,,,,,,,,,,,,,,,,,,,,,,,,,,,,,
,,,,,,610bc158e2949bf76f127802,62bbf9c4e1b67965ba07d590,2022-06-29_09h30.05.915,Colour_Asymmetry_Pilot,2022.1.3,Win32,60.03842459,62bbe60bf3d75ef465d3e404,0,52,52,54,1,fourtwo,,,,,,,,,,,,,,,,,,,,,,,,,,,,,,,,,,,,,,,,,,,,,,,,,,,,,,,,,,,,,,,,,,,,,,,,,,,,,,,,,,,,,,,,,,,,,,,,,,,,,,,,,,,,,,,,,,,,,,,,,,,,,,,,,,,,,,,,,,,,,,,,,,,,,,,
,,,,,,610bc158e2949bf76f127802,62bbf9c4e1b67965ba07d590,2022-06-29_09h30.05.915,Colour_Asymmetry_Pilot,2022.1.3,Win32,60.03842459,62bbe60bf3d75ef465d3e404,0,53,53,146,1,twoone,,,,,,,,,,,,,,,,,,,,,,,,,,,,,,,,,,,,,,,,,,,,,,,,,,,,,,,,,,,,,,,,,,,,,,,,,,,,,,,,,,,,,,,,,,,,,,,,,,,,,,,,,,,,,,,,,,,,,,,,,,,,,,,,,,,,,,,,,,,,,,,,,,,,,,,
,,,,,,610bc158e2949bf76f127802,62bbf9c4e1b67965ba07d590,2022-06-29_09h30.05.915,Colour_Asymmetry_Pilot,2022.1.3,Win32,60.03842459,62bbe60bf3d75ef465d3e404,0,54,54,136,1,onetwo,,,,,,,,,,,,,,,,,,,,,,,,,,,,,,,,,,,,,,,,,,,,,,,,,,,,,,,,,,,,,,,,,,,,,,,,,,,,,,,,,,,,,,,,,,,,,,,,,,,,,,,,,,,,,,,,,,,,,,,,,,,,,,,,,,,,,,,,,,,,,,,,,,,,,,,
,,,,,,610bc158e2949bf76f127802,62bbf9c4e1b67965ba07d590,2022-06-29_09h30.05.915,Colour_Asymmetry_Pilot,2022.1.3,Win32,60.03842459,62bbe60bf3d75ef465d3e404,0,55,55,55,1,fourthree,,,,,,,,,,,,,,,,,,,,,,,,,,,,,,,,,,,,,,,,,,,,,,,,,,,,,,,,,,,,,,,,,,,,,,,,,,,,,,,,,,,,,,,,,,,,,,,,,,,,,,,,,,,,,,,,,,,,,,,,,,,,,,,,,,,,,,,,,,,,,,,,,,,,,,,
,,,,,,610bc158e2949bf76f127802,62bbf9c4e1b67965ba07d590,2022-06-29_09h30.05.915,Colour_Asymmetry_Pilot,2022.1.3,Win32,60.03842459,62bbe60bf3d75ef465d3e404,0,56,56,30,1,fourtwo,,,,,,,,,,,,,,,,,,,,,,,,,,,,,,,,,,,,,,,,,,,,,,,,,,,,,,,,,,,,,,,,,,,,,,,,,,,,,,,,,,,,,,,,,,,,,,,,,,,,,,,,,,,,,,,,,,,,,,,,,,,,,,,,,,,,,,,,,,,,,,,,,,,,,,,
,,,,,,610bc158e2949bf76f127802,62bbf9c4e1b67965ba07d590,2022-06-29_09h30.05.915,Colour_Asymmetry_Pilot,2022.1.3,Win32,60.03842459,62bbe60bf3d75ef465d3e404,0,57,57,71,1,fourthree,,,,,,,,,,,,,,,,,,,,,,,,,,,,,,,,,,,,,,,,,,,,,,,,,,,,,,,,,,,,,,,,,,,,,,,,,,,,,,,,,,,,,,,,,,,,,,,,,,,,,,,,,,,,,,,,,,,,,,,,,,,,,,,,,,,,,,,,,,,,,,,,,,,,,,,
,,,,,,610bc158e2949bf76f127802,62bbf9c4e1b67965ba07d590,2022-06-29_09h30.05.915,Colour_Asymmetry_Pilot,2022.1.3,Win32,60.03842459,62bbe60bf3d75ef465d3e404,0,58,58,97,1,onethree,,,,,,,,,,,,,,,,,,,,,,,,,,,,,,,,,,,,,,,,,,,,,,,,,,,,,,,,,,,,,,,,,,,,,,,,,,,,,,,,,,,,,,,,,,,,,,,,,,,,,,,,,,,,,,,,,,,,,,,,,,,,,,,,,,,,,,,,,,,,,,,,,,,,,,,
,,,,,,610bc158e2949bf76f127802,62bbf9c4e1b67965ba07d590,2022-06-29_09h30.05.915,Colour_Asymmetry_Pilot,2022.1.3,Win32,60.03842459,62bbe60bf3d75ef465d3e404,0,59,59,7,1,fourthree,,,,,,,,,,,,,,,,,,,,,,,,,,,,,,,,,,,,,,,,,,,,,,,,,,,,,,,,,,,,,,,,,,,,,,,,,,,,,,,,,,,,,,,,,,,,,,,,,,,,,,,,,,,,,,,,,,,,,,,,,,,,,,,,,,,,,,,,,,,,,,,,,,,,,,,
,,,,,,610bc158e2949bf76f127802,62bbf9c4e1b67965ba07d590,2022-06-29_09h30.05.915,Colour_Asymmetry_Pilot,2022.1.3,Win32,60.03842459,62bbe60bf3d75ef465d3e404,0,60,60,133,1,threefour,,,,,,,,,,,,,,,,,,,,,,,,,,,,,,,,,,,,,,,,,,,,,,,,,,,,,,,,,,,,,,,,,,,,,,,,,,,,,,,,,,,,,,,,,,,,,,,,,,,,,,,,,,,,,,,,,,,,,,,,,,,,,,,,,,,,,,,,,,,,,,,,,,,,,,,
,,,,,,610bc158e2949bf76f127802,62bbf9c4e1b67965ba07d590,2022-06-29_09h30.05.915,Colour_Asymmetry_Pilot,2022.1.3,Win32,60.03842459,62bbe60bf3d75ef465d3e404,0,61,61,20,1,threeone,,,,,,,,,,,,,,,,,,,,,,,,,,,,,,,,,,,,,,,,,,,,,,,,,,,,,,,,,,,,,,,,,,,,,,,,,,,,,,,,,,,,,,,,,,,,,,,,,,,,,,,,,,,,,,,,,,,,,,,,,,,,,,,,,,,,,,,,,,,,,,,,,,,,,,,
,,,,,,610bc158e2949bf76f127802,62bbf9c4e1b67965ba07d590,2022-06-29_09h30.05.915,Colour_Asymmetry_Pilot,2022.1.3,Win32,60.03842459,62bbe60bf3d75ef465d3e404,0,62,62,111,1,fourthree,,,,,,,,,,,,,,,,,,,,,,,,,,,,,,,,,,,,,,,,,,,,,,,,,,,,,,,,,,,,,,,,,,,,,,,,,,,,,,,,,,,,,,,,,,,,,,,,,,,,,,,,,,,,,,,,,,,,,,,,,,,,,,,,,,,,,,,,,,,,,,,,,,,,,,,
,,,,,,610bc158e2949bf76f127802,62bbf9c4e1b67965ba07d590,2022-06-29_09h30.05.915,Colour_Asymmetry_Pilot,2022.1.3,Win32,60.03842459,62bbe60bf3d75ef465d3e404,0,63,63,61,1,threefour,,,,,,,,,,,,,,,,,,,,,,,,,,,,,,,,,,,,,,,,,,,,,,,,,,,,,,,,,,,,,,,,,,,,,,,,,,,,,,,,,,,,,,,,,,,,,,,,,,,,,,,,,,,,,,,,,,,,,,,,,,,,,,,,,,,,,,,,,,,,,,,,,,,,,,,
,,,,,,610bc158e2949bf76f127802,62bbf9c4e1b67965ba07d590,2022-06-29_09h30.05.915,Colour_Asymmetry_Pilot,2022.1.3,Win32,60.03842459,62bbe60bf3d75ef465d3e404,0,64,64,140,1,threeone,,,,,,,,,,,,,,,,,,,,,,,,,,,,,,,,,,,,,,,,,,,,,,,,,,,,,,,,,,,,,,,,,,,,,,,,,,,,,,,,,,,,,,,,,,,,,,,,,,,,,,,,,,,,,,,,,,,,,,,,,,,,,,,,,,,,,,,,,,,,,,,,,,,,,,,
,,,,,,610bc158e2949bf76f127802,62bbf9c4e1b67965ba07d590,2022-06-29_09h30.05.915,Colour_Asymmetry_Pilot,2022.1.3,Win32,60.03842459,62bbe60bf3d75ef465d3e404,0,65,65,45,1,threefour,,,,,,,,,,,,,,,,,,,,,,,,,,,,,,,,,,,,,,,,,,,,,,,,,,,,,,,,,,,,,,,,,,,,,,,,,,,,,,,,,,,,,,,,,,,,,,,,,,,,,,,,,,,,,,,,,,,,,,,,,,,,,,,,,,,,,,,,,,,,,,,,,,,,,,,
,,,,,,610bc158e2949bf76f127802,62bbf9c4e1b67965ba07d590,2022-06-29_09h30.05.915,Colour_Asymmetry_Pilot,2022.1.3,Win32,60.03842459,62bbe60bf3d75ef465d3e404,0,66,66,18,1,twoone,,,,,,,,,,,,,,,,,,,,,,,,,,,,,,,,,,,,,,,,,,,,,,,,,,,,,,,,,,,,,,,,,,,,,,,,,,,,,,,,,,,,,,,,,,,,,,,,,,,,,,,,,,,,,,,,,,,,,,,,,,,,,,,,,,,,,,,,,,,,,,,,,,,,,,,
,,,,,,610bc158e2949bf76f127802,62bbf9c4e1b67965ba07d590,2022-06-29_09h30.05.915,Colour_Asymmetry_Pilot,2022.1.3,Win32,60.03842459,62bbe60bf3d75ef465d3e404,0,67,67,22,1,fourtwo,,,,,,,,,,,,,,,,,,,,,,,,,,,,,,,,,,,,,,,,,,,,,,,,,,,,,,,,,,,,,,,,,,,,,,,,,,,,,,,,,,,,,,,,,,,,,,,,,,,,,,,,,,,,,,,,,,,,,,,,,,,,,,,,,,,,,,,,,,,,,,,,,,,,,,,
,,,,,,610bc158e2949bf76f127802,62bbf9c4e1b67965ba07d590,2022-06-29_09h30.05.915,Colour_Asymmetry_Pilot,2022.1.3,Win32,60.03842459,62bbe60bf3d75ef465d3e404,0,68,68,8,1,onetwo,,,,,,,,,,,,,,,,,,,,,,,,,,,,,,,,,,,,,,,,,,,,,,,,,,,,,,,,,,,,,,,,,,,,,,,,,,,,,,,,,,,,,,,,,,,,,,,,,,,,,,,,,,,,,,,,,,,,,,,,,,,,,,,,,,,,,,,,,,,,,,,,,,,,,,,
,,,,,,610bc158e2949bf76f127802,62bbf9c4e1b67965ba07d590,2022-06-29_09h30.05.915,Colour_Asymmetry_Pilot,2022.1.3,Win32,60.03842459,62bbe60bf3d75ef465d3e404,0,69,69,78,1,fourtwo,,,,,,,,,,,,,,,,,,,,,,,,,,,,,,,,,,,,,,,,,,,,,,,,,,,,,,,,,,,,,,,,,,,,,,,,,,,,,,,,,,,,,,,,,,,,,,,,,,,,,,,,,,,,,,,,,,,,,,,,,,,,,,,,,,,,,,,,,,,,,,,,,,,,,,,
,,,,,,610bc158e2949bf76f127802,62bbf9c4e1b67965ba07d590,2022-06-29_09h30.05.915,Colour_Asymmetry_Pilot,2022.1.3,Win32,60.03842459,62bbe60bf3d75ef465d3e404,0,70,70,123,1,twofour,,,,,,,,,,,,,,,,,,,,,,,,,,,,,,,,,,,,,,,,,,,,,,,,,,,,,,,,,,,,,,,,,,,,,,,,,,,,,,,,,,,,,,,,,,,,,,,,,,,,,,,,,,,,,,,,,,,,,,,,,,,,,,,,,,,,,,,,,,,,,,,,,,,,,,,
,,,,,,610bc158e2949bf76f127802,62bbf9c4e1b67965ba07d590,2022-06-29_09h30.05.915,Colour_Asymmetry_Pilot,2022.1.3,Win32,60.03842459,62bbe60bf3d75ef465d3e404,0,71,71,10,1,twoone,,,,,,,,,,,,,,,,,,,,,,,,,,,,,,,,,,,,,,,,,,,,,,,,,,,,,,,,,,,,,,,,,,,,,,,,,,,,,,,,,,,,,,,,,,,,,,,,,,,,,,,,,,,,,,,,,,,,,,,,,,,,,,,,,,,,,,,,,,,,,,,,,,,,,,,
,,,,,,610bc158e2949bf76f127802,62bbf9c4e1b67965ba07d590,2022-06-29_09h30.05.915,Colour_Asymmetry_Pilot,2022.1.3,Win32,60.03842459,62bbe60bf3d75ef465d3e404,0,72,72,0,1,onetwo,,,,,,,,,,,,,,,,,,,,,,,,,,,,,,,,,,,,,,,,,,,,,,,,,,,,,,,,,,,,,,,,,,,,,,,,,,,,,,,,,,,,,,,,,,,,,,,,,,,,,,,,,,,,,,,,,,,,,,,,,,,,,,,,,,,,,,,,,,,,,,,,,,,,,,,
,,,,,,610bc158e2949bf76f127802,62bbf9c4e1b67965ba07d590,2022-06-29_09h30.05.915,Colour_Asymmetry_Pilot,2022.1.3,Win32,60.03842459,62bbe60bf3d75ef465d3e404,0,73,73,105,1,onethree,,,,,,,,,,,,,,,,,,,,,,,,,,,,,,,,,,,,,,,,,,,,,,,,,,,,,,,,,,,,,,,,,,,,,,,,,,,,,,,,,,,,,,,,,,,,,,,,,,,,,,,,,,,,,,,,,,,,,,,,,,,,,,,,,,,,,,,,,,,,,,,,,,,,,,,
,,,,,,610bc158e2949bf76f127802,62bbf9c4e1b67965ba07d590,2022-06-29_09h30.05.915,Colour_Asymmetry_Pilot,2022.1.3,Win32,60.03842459,62bbe60bf3d75ef465d3e404,0,74,74,19,1,twofour,,,,,,,,,,,,,,,,,,,,,,,,,,,,,,,,,,,,,,,,,,,,,,,,,,,,,,,,,,,,,,,,,,,,,,,,,,,,,,,,,,,,,,,,,,,,,,,,,,,,,,,,,,,,,,,,,,,,,,,,,,,,,,,,,,,,,,,,,,,,,,,,,,,,,,,
,,,,,,610bc158e2949bf76f127802,62bbf9c4e1b67965ba07d590,2022-06-29_09h30.05.915,Colour_Asymmetry_Pilot,2022.1.3,Win32,60.03842459,62bbe60bf3d75ef465d3e404,0,75,75,141,1,threefour,,,,,,,,,,,,,,,,,,,,,,,,,,,,,,,,,,,,,,,,,,,,,,,,,,,,,,,,,,,,,,,,,,,,,,,,,,,,,,,,,,,,,,,,,,,,,,,,,,,,,,,,,,,,,,,,,,,,,,,,,,,,,,,,,,,,,,,,,,,,,,,,,,,,,,,
,,,,,,610bc158e2949bf76f127802,62bbf9c4e1b67965ba07d590,2022-06-29_09h30.05.915,Colour_Asymmetry_Pilot,2022.1.3,Win32,60.03842459,62bbe60bf3d75ef465d3e404,0,76,76,63,1,fourthree,,,,,,,,,,,,,,,,,,,,,,,,,,,,,,,,,,,,,,,,,,,,,,,,,,,,,,,,,,,,,,,,,,,,,,,,,,,,,,,,,,,,,,,,,,,,,,,,,,,,,,,,,,,,,,,,,,,,,,,,,,,,,,,,,,,,,,,,,,,,,,,,,,,,,,,
,,,,,,610bc158e2949bf76f127802,62bbf9c4e1b67965ba07d590,2022-06-29_09h30.05.915,Colour_Asymmetry_Pilot,2022.1.3,Win32,60.03842459,62bbe60bf3d75ef465d3e404,0,77,77,47,1,fourthree,,,,,,,,,,,,,,,,,,,,,,,,,,,,,,,,,,,,,,,,,,,,,,,,,,,,,,,,,,,,,,,,,,,,,,,,,,,,,,,,,,,,,,,,,,,,,,,,,,,,,,,,,,,,,,,,,,,,,,,,,,,,,,,,,,,,,,,,,,,,,,,,,,,,,,,
,,,,,,610bc158e2949bf76f127802,62bbf9c4e1b67965ba07d590,2022-06-29_09h30.05.915,Colour_Asymmetry_Pilot,2022.1.3,Win32,60.03842459,62bbe60bf3d75ef465d3e404,0,78,78,154,1,twoone,,,,,,,,,,,,,,,,,,,,,,,,,,,,,,,,,,,,,,,,,,,,,,,,,,,,,,,,,,,,,,,,,,,,,,,,,,,,,,,,,,,,,,,,,,,,,,,,,,,,,,,,,,,,,,,,,,,,,,,,,,,,,,,,,,,,,,,,,,,,,,,,,,,,,,,
,,,,,,610bc158e2949bf76f127802,62bbf9c4e1b67965ba07d590,2022-06-29_09h30.05.915,Colour_Asymmetry_Pilot,2022.1.3,Win32,60.03842459,62bbe60bf3d75ef465d3e404,0,79,79,35,1,twofour,,,,,,,,,,,,,,,,,,,,,,,,,,,,,,,,,,,,,,,,,,,,,,,,,,,,,,,,,,,,,,,,,,,,,,,,,,,,,,,,,,,,,,,,,,,,,,,,,,,,,,,,,,,,,,,,,,,,,,,,,,,,,,,,,,,,,,,,,,,,,,,,,,,,,,,
,,,,,,610bc158e2949bf76f127802,62bbf9c4e1b67965ba07d590,2022-06-29_09h30.05.915,Colour_Asymmetry_Pilot,2022.1.3,Win32,60.03842459,62bbe60bf3d75ef465d3e404,0,80,80,94,1,fourtwo,,,,,,,,,,,,,,,,,,,,,,,,,,,,,,,,,,,,,,,,,,,,,,,,,,,,,,,,,,,,,,,,,,,,,,,,,,,,,,,,,,,,,,,,,,,,,,,,,,,,,,,,,,,,,,,,,,,,,,,,,,,,,,,,,,,,,,,,,,,,,,,,,,,,,,,
,,,,,,610bc158e2949bf76f127802,62bbf9c4e1b67965ba07d590,2022-06-29_09h30.05.915,Colour_Asymmetry_Pilot,2022.1.3,Win32,60.03842459,62bbe60bf3d75ef465d3e404,0,81,81,60,1,threeone,,,,,,,,,,,,,,,,,,,,,,,,,,,,,,,,,,,,,,,,,,,,,,,,,,,,,,,,,,,,,,,,,,,,,,,,,,,,,,,,,,,,,,,,,,,,,,,,,,,,,,,,,,,,,,,,,,,,,,,,,,,,,,,,,,,,,,,,,,,,,,,,,,,,,,,
,,,,,,610bc158e2949bf76f127802,62bbf9c4e1b67965ba07d590,2022-06-29_09h30.05.915,Colour_Asymmetry_Pilot,2022.1.3,Win32,60.03842459,62bbe60bf3d75ef465d3e404,0,82,82,99,1,twofour,,,,,,,,,,,,,,,,,,,,,,,,,,,,,,,,,,,,,,,,,,,,,,,,,,,,,,,,,,,,,,,,,,,,,,,,,,,,,,,,,,,,,,,,,,,,,,,,,,,,,,,,,,,,,,,,,,,,,,,,,,,,,,,,,,,,,,,,,,,,,,,,,,,,,,,
,,,,,,610bc158e2949bf76f127802,62bbf9c4e1b67965ba07d590,2022-06-29_09h30.05.915,Colour_Asymmetry_Pilot,2022.1.3,Win32,60.03842459,62bbe60bf3d75ef465d3e404,0,83,83,73,1,onethree,,,,,,,,,,,,,,,,,,,,,,,,,,,,,,,,,,,,,,,,,,,,,,,,,,,,,,,,,,,,,,,,,,,,,,,,,,,,,,,,,,,,,,,,,,,,,,,,,,,,,,,,,,,,,,,,,,,,,,,,,,,,,,,,,,,,,,,,,,,,,,,,,,,,,,,
,,,,,,610bc158e2949bf76f127802,62bbf9c4e1b67965ba07d590,2022-06-29_09h30.05.915,Colour_Asymmetry_Pilot,2022.1.3,Win32,60.03842459,62bbe60bf3d75ef465d3e404,0,84,84,87,1,fourthree,,,,,,,,,,,,,,,,,,,,,,,,,,,,,,,,,,,,,,,,,,,,,,,,,,,,,,,,,,,,,,,,,,,,,,,,,,,,,,,,,,,,,,,,,,,,,,,,,,,,,,,,,,,,,,,,,,,,,,,,,,,,,,,,,,,,,,,,,,,,,,,,,,,,,,,
,,,,,,610bc158e2949bf76f127802,62bbf9c4e1b67965ba07d590,2022-06-29_09h30.05.915,Colour_Asymmetry_Pilot,2022.1.3,Win32,60.03842459,62bbe60bf3d75ef465d3e404,0,85,85,130,1,twoone,,,,,,,,,,,,,,,,,,,,,,,,,,,,,,,,,,,,,,,,,,,,,,,,,,,,,,,,,,,,,,,,,,,,,,,,,,,,,,,,,,,,,,,,,,,,,,,,,,,,,,,,,,,,,,,,,,,,,,,,,,,,,,,,,,,,,,,,,,,,,,,,,,,,,,,
,,,,,,610bc158e2949bf76f127802,62bbf9c4e1b67965ba07d590,2022-06-29_09h30.05.915,Colour_Asymmetry_Pilot,2022.1.3,Win32,60.03842459,62bbe60bf3d75ef465d3e404,0,86,86,96,1,onetwo,,,,,,,,,,,,,,,,,,,,,,,,,,,,,,,,,,,,,,,,,,,,,,,,,,,,,,,,,,,,,,,,,,,,,,,,,,,,,,,,,,,,,,,,,,,,,,,,,,,,,,,,,,,,,,,,,,,,,,,,,,,,,,,,,,,,,,,,,,,,,,,,,,,,,,,
,,,,,,610bc158e2949bf76f127802,62bbf9c4e1b67965ba07d590,2022-06-29_09h30.05.915,Colour_Asymmetry_Pilot,2022.1.3,Win32,60.03842459,62bbe60bf3d75ef465d3e404,0,87,87,129,1,onethree,,,,,,,,,,,,,,,,,,,,,,,,,,,,,,,,,,,,,,,,,,,,,,,,,,,,,,,,,,,,,,,,,,,,,,,,,,,,,,,,,,,,,,,,,,,,,,,,,,,,,,,,,,,,,,,,,,,,,,,,,,,,,,,,,,,,,,,,,,,,,,,,,,,,,,,
,,,,,,610bc158e2949bf76f127802,62bbf9c4e1b67965ba07d590,2022-06-29_09h30.05.915,Colour_Asymmetry_Pilot,2022.1.3,Win32,60.03842459,62bbe60bf3d75ef465d3e404,0,88,88,135,1,fourthree,,,,,,,,,,,,,,,,,,,,,,,,,,,,,,,,,,,,,,,,,,,,,,,,,,,,,,,,,,,,,,,,,,,,,,,,,,,,,,,,,,,,,,,,,,,,,,,,,,,,,,,,,,,,,,,,,,,,,,,,,,,,,,,,,,,,,,,,,,,,,,,,,,,,,,,
,,,,,,610bc158e2949bf76f127802,62bbf9c4e1b67965ba07d590,2022-06-29_09h30.05.915,Colour_Asymmetry_Pilot,2022.1.3,Win32,60.03842459,62bbe60bf3d75ef465d3e404,0,89,89,157,1,threefour,,,,,,,,,,,,,,,,,,,,,,,,,,,,,,,,,,,,,,,,,,,,,,,,,,,,,,,,,,,,,,,,,,,,,,,,,,,,,,,,,,,,,,,,,,,,,,,,,,,,,,,,,,,,,,,,,,,,,,,,,,,,,,,,,,,,,,,,,,,,,,,,,,,,,,,
,,,,,,610bc158e2949bf76f127802,62bbf9c4e1b67965ba07d590,2022-06-29_09h30.05.915,Colour_Asymmetry_Pilot,2022.1.3,Win32,60.03842459,62bbe60bf3d75ef465d3e404,0,90,90,64,1,onetwo,,,,,,,,,,,,,,,,,,,,,,,,,,,,,,,,,,,,,,,,,,,,,,,,,,,,,,,,,,,,,,,,,,,,,,,,,,,,,,,,,,,,,,,,,,,,,,,,,,,,,,,,,,,,,,,,,,,,,,,,,,,,,,,,,,,,,,,,,,,,,,,,,,,,,,,
,,,,,,610bc158e2949bf76f127802,62bbf9c4e1b67965ba07d590,2022-06-29_09h30.05.915,Colour_Asymmetry_Pilot,2022.1.3,Win32,60.03842459,62bbe60bf3d75ef465d3e404,0,91,91,56,1,onetwo,,,,,,,,,,,,,,,,,,,,,,,,,,,,,,,,,,,,,,,,,,,,,,,,,,,,,,,,,,,,,,,,,,,,,,,,,,,,,,,,,,,,,,,,,,,,,,,,,,,,,,,,,,,,,,,,,,,,,,,,,,,,,,,,,,,,,,,,,,,,,,,,,,,,,,,
,,,,,,610bc158e2949bf76f127802,62bbf9c4e1b67965ba07d590,2022-06-29_09h30.05.915,Colour_Asymmetry_Pilot,2022.1.3,Win32,60.03842459,62bbe60bf3d75ef465d3e404,0,92,92,81,1,onethree,,,,,,,,,,,,,,,,,,,,,,,,,,,,,,,,,,,,,,,,,,,,,,,,,,,,,,,,,,,,,,,,,,,,,,,,,,,,,,,,,,,,,,,,,,,,,,,,,,,,,,,,,,,,,,,,,,,,,,,,,,,,,,,,,,,,,,,,,,,,,,,,,,,,,,,
,,,,,,610bc158e2949bf76f127802,62bbf9c4e1b67965ba07d590,2022-06-29_09h30.05.915,Colour_Asymmetry_Pilot,2022.1.3,Win32,60.03842459,62bbe60bf3d75ef465d3e404,0,93,93,152,1,onetwo,,,,,,,,,,,,,,,,,,,,,,,,,,,,,,,,,,,,,,,,,,,,,,,,,,,,,,,,,,,,,,,,,,,,,,,,,,,,,,,,,,,,,,,,,,,,,,,,,,,,,,,,,,,,,,,,,,,,,,,,,,,,,,,,,,,,,,,,,,,,,,,,,,,,,,,
,,,,,,610bc158e2949bf76f127802,62bbf9c4e1b67965ba07d590,2022-06-29_09h30.05.915,Colour_Asymmetry_Pilot,2022.1.3,Win32,60.03842459,62bbe60bf3d75ef465d3e404,0,94,94,116,1,threeone,,,,,,,,,,,,,,,,,,,,,,,,,,,,,,,,,,,,,,,,,,,,,,,,,,,,,,,,,,,,,,,,,,,,,,,,,,,,,,,,,,,,,,,,,,,,,,,,,,,,,,,,,,,,,,,,,,,,,,,,,,,,,,,,,,,,,,,,,,,,,,,,,,,,,,,
,,,,,,610bc158e2949bf76f127802,62bbf9c4e1b67965ba07d590,2022-06-29_09h30.05.915,Colour_Asymmetry_Pilot,2022.1.3,Win32,60.03842459,62bbe60bf3d75ef465d3e404,0,95,95,93,1,threefour,,,,,,,,,,,,,,,,,,,,,,,,,,,,,,,,,,,,,,,,,,,,,,,,,,,,,,,,,,,,,,,,,,,,,,,,,,,,,,,,,,,,,,,,,,,,,,,,,,,,,,,,,,,,,,,,,,,,,,,,,,,,,,,,,,,,,,,,,,,,,,,,,,,,,,,
,,,,,,610bc158e2949bf76f127802,62bbf9c4e1b67965ba07d590,2022-06-29_09h30.05.915,Colour_Asymmetry_Pilot,2022.1.3,Win32,60.03842459,62bbe60bf3d75ef465d3e404,0,96,96,149,1,threefour,,,,,,,,,,,,,,,,,,,,,,,,,,,,,,,,,,,,,,,,,,,,,,,,,,,,,,,,,,,,,,,,,,,,,,,,,,,,,,,,,,,,,,,,,,,,,,,,,,,,,,,,,,,,,,,,,,,,,,,,,,,,,,,,,,,,,,,,,,,,,,,,,,,,,,,
,,,,,,610bc158e2949bf76f127802,62bbf9c4e1b67965ba07d590,2022-06-29_09h30.05.915,Colour_Asymmetry_Pilot,2022.1.3,Win32,60.03842459,62bbe60bf3d75ef465d3e404,0,97,97,144,1,onetwo,,,,,,,,,,,,,,,,,,,,,,,,,,,,,,,,,,,,,,,,,,,,,,,,,,,,,,,,,,,,,,,,,,,,,,,,,,,,,,,,,,,,,,,,,,,,,,,,,,,,,,,,,,,,,,,,,,,,,,,,,,,,,,,,,,,,,,,,,,,,,,,,,,,,,,,
,,,,,,610bc158e2949bf76f127802,62bbf9c4e1b67965ba07d590,2022-06-29_09h30.05.915,Colour_Asymmetry_Pilot,2022.1.3,Win32,60.03842459,62bbe60bf3d75ef465d3e404,0,98,98,92,1,threeone,,,,,,,,,,,,,,,,,,,,,,,,,,,,,,,,,,,,,,,,,,,,,,,,,,,,,,,,,,,,,,,,,,,,,,,,,,,,,,,,,,,,,,,,,,,,,,,,,,,,,,,,,,,,,,,,,,,,,,,,,,,,,,,,,,,,,,,,,,,,,,,,,,,,,,,
,,,,,,610bc158e2949bf76f127802,62bbf9c4e1b67965ba07d590,2022-06-29_09h30.05.915,Colour_Asymmetry_Pilot,2022.1.3,Win32,60.03842459,62bbe60bf3d75ef465d3e404,0,99,99,50,1,twoone,,,,,,,,,,,,,,,,,,,,,,,,,,,,,,,,,,,,,,,,,,,,,,,,,,,,,,,,,,,,,,,,,,,,,,,,,,,,,,,,,,,,,,,,,,,,,,,,,,,,,,,,,,,,,,,,,,,,,,,,,,,,,,,,,,,,,,,,,,,,,,,,,,,,,,,
,,,,,,610bc158e2949bf76f127802,62bbf9c4e1b67965ba07d590,2022-06-29_09h30.05.915,Colour_Asymmetry_Pilot,2022.1.3,Win32,60.03842459,62bbe60bf3d75ef465d3e404,0,100,100,39,1,fourthree,,,,,,,,,,,,,,,,,,,,,,,,,,,,,,,,,,,,,,,,,,,,,,,,,,,,,,,,,,,,,,,,,,,,,,,,,,,,,,,,,,,,,,,,,,,,,,,,,,,,,,,,,,,,,,,,,,,,,,,,,,,,,,,,,,,,,,,,,,,,,,,,,,,,,,,
,,,,,,610bc158e2949bf76f127802,62bbf9c4e1b67965ba07d590,2022-06-29_09h30.05.915,Colour_Asymmetry_Pilot,2022.1.3,Win32,60.03842459,62bbe60bf3d75ef465d3e404,0,101,101,91,1,twofour,,,,,,,,,,,,,,,,,,,,,,,,,,,,,,,,,,,,,,,,,,,,,,,,,,,,,,,,,,,,,,,,,,,,,,,,,,,,,,,,,,,,,,,,,,,,,,,,,,,,,,,,,,,,,,,,,,,,,,,,,,,,,,,,,,,,,,,,,,,,,,,,,,,,,,,
,,,,,,610bc158e2949bf76f127802,62bbf9c4e1b67965ba07d590,2022-06-29_09h30.05.915,Colour_Asymmetry_Pilot,2022.1.3,Win32,60.03842459,62bbe60bf3d75ef465d3e404,0,102,102,13,1,threefour,,,,,,,,,,,,,,,,,,,,,,,,,,,,,,,,,,,,,,,,,,,,,,,,,,,,,,,,,,,,,,,,,,,,,,,,,,,,,,,,,,,,,,,,,,,,,,,,,,,,,,,,,,,,,,,,,,,,,,,,,,,,,,,,,,,,,,,,,,,,,,,,,,,,,,,
,,,,,,610bc158e2949bf76f127802,62bbf9c4e1b67965ba07d590,2022-06-29_09h30.05.915,Colour_Asymmetry_Pilot,2022.1.3,Win32,60.03842459,62bbe60bf3d75ef465d3e404,0,103,103,62,1,fourtwo,,,,,,,,,,,,,,,,,,,,,,,,,,,,,,,,,,,,,,,,,,,,,,,,,,,,,,,,,,,,,,,,,,,,,,,,,,,,,,,,,,,,,,,,,,,,,,,,,,,,,,,,,,,,,,,,,,,,,,,,,,,,,,,,,,,,,,,,,,,,,,,,,,,,,,,
,,,,,,610bc158e2949bf76f127802,62bbf9c4e1b67965ba07d590,2022-06-29_09h30.05.915,Colour_Asymmetry_Pilot,2022.1.3,Win32,60.03842459,62bbe60bf3d75ef465d3e404,0,104,104,89,1,onethree,,,,,,,,,,,,,,,,,,,,,,,,,,,,,,,,,,,,,,,,,,,,,,,,,,,,,,,,,,,,,,,,,,,,,,,,,,,,,,,,,,,,,,,,,,,,,,,,,,,,,,,,,,,,,,,,,,,,,,,,,,,,,,,,,,,,,,,,,,,,,,,,,,,,,,,
,,,,,,610bc158e2949bf76f127802,62bbf9c4e1b67965ba07d590,2022-06-29_09h30.05.915,Colour_Asymmetry_Pilot,2022.1.3,Win32,60.03842459,62bbe60bf3d75ef465d3e404,0,105,105,12,1,threeone,,,,,,,,,,,,,,,,,,,,,,,,,,,,,,,,,,,,,,,,,,,,,,,,,,,,,,,,,,,,,,,,,,,,,,,,,,,,,,,,,,,,,,,,,,,,,,,,,,,,,,,,,,,,,,,,,,,,,,,,,,,,,,,,,,,,,,,,,,,,,,,,,,,,,,,
,,,,,,610bc158e2949bf76f127802,62bbf9c4e1b67965ba07d590,2022-06-29_09h30.05.915,Colour_Asymmetry_Pilot,2022.1.3,Win32,60.03842459,62bbe60bf3d75ef465d3e404,0,106,106,28,1,threeone,,,,,,,,,,,,,,,,,,,,,,,,,,,,,,,,,,,,,,,,,,,,,,,,,,,,,,,,,,,,,,,,,,,,,,,,,,,,,,,,,,,,,,,,,,,,,,,,,,,,,,,,,,,,,,,,,,,,,,,,,,,,,,,,,,,,,,,,,,,,,,,,,,,,,,,
,,,,,,610bc158e2949bf76f127802,62bbf9c4e1b67965ba07d590,2022-06-29_09h30.05.915,Colour_Asymmetry_Pilot,2022.1.3,Win32,60.03842459,62bbe60bf3d75ef465d3e404,0,107,107,128,1,onetwo,,,,,,,,,,,,,,,,,,,,,,,,,,,,,,,,,,,,,,,,,,,,,,,,,,,,,,,,,,,,,,,,,,,,,,,,,,,,,,,,,,,,,,,,,,,,,,,,,,,,,,,,,,,,,,,,,,,,,,,,,,,,,,,,,,,,,,,,,,,,,,,,,,,,,,,
,,,,,,610bc158e2949bf76f127802,62bbf9c4e1b67965ba07d590,2022-06-29_09h30.05.915,Colour_Asymmetry_Pilot,2022.1.3,Win32,60.03842459,62bbe60bf3d75ef465d3e404,0,108,108,86,1,fourtwo,,,,,,,,,,,,,,,,,,,,,,,,,,,,,,,,,,,,,,,,,,,,,,,,,,,,,,,,,,,,,,,,,,,,,,,,,,,,,,,,,,,,,,,,,,,,,,,,,,,,,,,,,,,,,,,,,,,,,,,,,,,,,,,,,,,,,,,,,,,,,,,,,,,,,,,
,,,,,,610bc158e2949bf76f127802,62bbf9c4e1b67965ba07d590,2022-06-29_09h30.05.915,Colour_Asymmetry_Pilot,2022.1.3,Win32,60.03842459,62bbe60bf3d75ef465d3e404,0,109,109,104,1,onetwo,,,,,,,,,,,,,,,,,,,,,,,,,,,,,,,,,,,,,,,,,,,,,,,,,,,,,,,,,,,,,,,,,,,,,,,,,,,,,,,,,,,,,,,,,,,,,,,,,,,,,,,,,,,,,,,,,,,,,,,,,,,,,,,,,,,,,,,,,,,,,,,,,,,,,,,
,,,,,,610bc158e2949bf76f127802,62bbf9c4e1b67965ba07d590,2022-06-29_09h30.05.915,Colour_Asymmetry_Pilot,2022.1.3,Win32,60.03842459,62bbe60bf3d75ef465d3e404,0,110,110,126,1,fourtwo,,,,,,,,,,,,,,,,,,,,,,,,,,,,,,,,,,,,,,,,,,,,,,,,,,,,,,,,,,,,,,,,,,,,,,,,,,,,,,,,,,,,,,,,,,,,,,,,,,,,,,,,,,,,,,,,,,,,,,,,,,,,,,,,,,,,,,,,,,,,,,,,,,,,,,,
,,,,,,610bc158e2949bf76f127802,62bbf9c4e1b67965ba07d590,2022-06-29_09h30.05.915,Colour_Asymmetry_Pilot,2022.1.3,Win32,60.03842459,62bbe60bf3d75ef465d3e404,0,111,111,122,1,twoone,,,,,,,,,,,,,,,,,,,,,,,,,,,,,,,,,,,,,,,,,,,,,,,,,,,,,,,,,,,,,,,,,,,,,,,,,,,,,,,,,,,,,,,,,,,,,,,,,,,,,,,,,,,,,,,,,,,,,,,,,,,,,,,,,,,,,,,,,,,,,,,,,,,,,,,
,,,,,,610bc158e2949bf76f127802,62bbf9c4e1b67965ba07d590,2022-06-29_09h30.05.915,Colour_Asymmetry_Pilot,2022.1.3,Win32,60.03842459,62bbe60bf3d75ef465d3e404,0,112,112,14,1,fourtwo,,,,,,,,,,,,,,,,,,,,,,,,,,,,,,,,,,,,,,,,,,,,,,,,,,,,,,,,,,,,,,,,,,,,,,,,,,,,,,,,,,,,,,,,,,,,,,,,,,,,,,,,,,,,,,,,,,,,,,,,,,,,,,,,,,,,,,,,,,,,,,,,,,,,,,,
,,,,,,610bc158e2949bf76f127802,62bbf9c4e1b67965ba07d590,2022-06-29_09h30.05.915,Colour_Asymmetry_Pilot,2022.1.3,Win32,60.03842459,62bbe60bf3d75ef465d3e404,0,113,113,11,1,twofour,,,,,,,,,,,,,,,,,,,,,,,,,,,,,,,,,,,,,,,,,,,,,,,,,,,,,,,,,,,,,,,,,,,,,,,,,,,,,,,,,,,,,,,,,,,,,,,,,,,,,,,,,,,,,,,,,,,,,,,,,,,,,,,,,,,,,,,,,,,,,,,,,,,,,,,
,,,,,,610bc158e2949bf76f127802,62bbf9c4e1b67965ba07d590,2022-06-29_09h30.05.915,Colour_Asymmetry_Pilot,2022.1.3,Win32,60.03842459,62bbe60bf3d75ef465d3e404,0,114,114,84,1,threeone,,,,,,,,,,,,,,,,,,,,,,,,,,,,,,,,,,,,,,,,,,,,,,,,,,,,,,,,,,,,,,,,,,,,,,,,,,,,,,,,,,,,,,,,,,,,,,,,,,,,,,,,,,,,,,,,,,,,,,,,,,,,,,,,,,,,,,,,,,,,,,,,,,,,,,,
,,,,,,610bc158e2949bf76f127802,62bbf9c4e1b67965ba07d590,2022-06-29_09h30.05.915,Colour_Asymmetry_Pilot,2022.1.3,Win32,60.03842459,62bbe60bf3d75ef465d3e404,0,115,115,80,1,onetwo,,,,,,,,,,,,,,,,,,,,,,,,,,,,,,,,,,,,,,,,,,,,,,,,,,,,,,,,,,,,,,,,,,,,,,,,,,,,,,,,,,,,,,,,,,,,,,,,,,,,,,,,,,,,,,,,,,,,,,,,,,,,,,,,,,,,,,,,,,,,,,,,,,,,,,,
,,,,,,610bc158e2949bf76f127802,62bbf9c4e1b67965ba07d590,2022-06-29_09h30.05.915,Colour_Asymmetry_Pilot,2022.1.3,Win32,60.03842459,62bbe60bf3d75ef465d3e404,0,116,116,41,1,onethree,,,,,,,,,,,,,,,,,,,,,,,,,,,,,,,,,,,,,,,,,,,,,,,,,,,,,,,,,,,,,,,,,,,,,,,,,,,,,,,,,,,,,,,,,,,,,,,,,,,,,,,,,,,,,,,,,,,,,,,,,,,,,,,,,,,,,,,,,,,,,,,,,,,,,,,
,,,,,,610bc158e2949bf76f127802,62bbf9c4e1b67965ba07d590,2022-06-29_09h30.05.915,Colour_Asymmetry_Pilot,2022.1.3,Win32,60.03842459,62bbe60bf3d75ef465d3e404,0,117,117,49,1,onethree,,,,,,,,,,,,,,,,,,,,,,,,,,,,,,,,,,,,,,,,,,,,,,,,,,,,,,,,,,,,,,,,,,,,,,,,,,,,,,,,,,,,,,,,,,,,,,,,,,,,,,,,,,,,,,,,,,,,,,,,,,,,,,,,,,,,,,,,,,,,,,,,,,,,,,,
,,,,,,610bc158e2949bf76f127802,62bbf9c4e1b67965ba07d590,2022-06-29_09h30.05.915,Colour_Asymmetry_Pilot,2022.1.3,Win32,60.03842459,62bbe60bf3d75ef465d3e404,0,118,118,82,1,twoone,,,,,,,,,,,,,,,,,,,,,,,,,,,,,,,,,,,,,,,,,,,,,,,,,,,,,,,,,,,,,,,,,,,,,,,,,,,,,,,,,,,,,,,,,,,,,,,,,,,,,,,,,,,,,,,,,,,,,,,,,,,,,,,,,,,,,,,,,,,,,,,,,,,,,,,
,,,,,,610bc158e2949bf76f127802,62bbf9c4e1b67965ba07d590,2022-06-29_09h30.05.915,Colour_Asymmetry_Pilot,2022.1.3,Win32,60.03842459,62bbe60bf3d75ef465d3e404,0,119,119,124,1,threeone,,,,,,,,,,,,,,,,,,,,,,,,,,,,,,,,,,,,,,,,,,,,,,,,,,,,,,,,,,,,,,,,,,,,,,,,,,,,,,,,,,,,,,,,,,,,,,,,,,,,,,,,,,,,,,,,,,,,,,,,,,,,,,,,,,,,,,,,,,,,,,,,,,,,,,,
,,,,,,610bc158e2949bf76f127802,62bbf9c4e1b67965ba07d590,2022-06-29_09h30.05.915,Colour_Asymmetry_Pilot,2022.1.3,Win32,60.03842459,62bbe60bf3d75ef465d3e404,0,120,120,83,1,twofour,,,,,,,,,,,,,,,,,,,,,,,,,,,,,,,,,,,,,,,,,,,,,,,,,,,,,,,,,,,,,,,,,,,,,,,,,,,,,,,,,,,,,,,,,,,,,,,,,,,,,,,,,,,,,,,,,,,,,,,,,,,,,,,,,,,,,,,,,,,,,,,,,,,,,,,
,,,,,,610bc158e2949bf76f127802,62bbf9c4e1b67965ba07d590,2022-06-29_09h30.05.915,Colour_Asymmetry_Pilot,2022.1.3,Win32,60.03842459,62bbe60bf3d75ef465d3e404,0,121,121,114,1,twoone,,,,,,,,,,,,,,,,,,,,,,,,,,,,,,,,,,,,,,,,,,,,,,,,,,,,,,,,,,,,,,,,,,,,,,,,,,,,,,,,,,,,,,,,,,,,,,,,,,,,,,,,,,,,,,,,,,,,,,,,,,,,,,,,,,,,,,,,,,,,,,,,,,,,,,,
,,,,,,610bc158e2949bf76f127802,62bbf9c4e1b67965ba07d590,2022-06-29_09h30.05.915,Colour_Asymmetry_Pilot,2022.1.3,Win32,60.03842459,62bbe60bf3d75ef465d3e404,0,122,122,67,1,twofour,,,,,,,,,,,,,,,,,,,,,,,,,,,,,,,,,,,,,,,,,,,,,,,,,,,,,,,,,,,,,,,,,,,,,,,,,,,,,,,,,,,,,,,,,,,,,,,,,,,,,,,,,,,,,,,,,,,,,,,,,,,,,,,,,,,,,,,,,,,,,,,,,,,,,,,
,,,,,,610bc158e2949bf76f127802,62bbf9c4e1b67965ba07d590,2022-06-29_09h30.05.915,Colour_Asymmetry_Pilot,2022.1.3,Win32,60.03842459,62bbe60bf3d75ef465d3e404,0,123,123,42,1,twoone,,,,,,,,,,,,,,,,,,,,,,,,,,,,,,,,,,,,,,,,,,,,,,,,,,,,,,,,,,,,,,,,,,,,,,,,,,,,,,,,,,,,,,,,,,,,,,,,,,,,,,,,,,,,,,,,,,,,,,,,,,,,,,,,,,,,,,,,,,,,,,,,,,,,,,,
,,,,,,610bc158e2949bf76f127802,62bbf9c4e1b67965ba07d590,2022-06-29_09h30.05.915,Colour_Asymmetry_Pilot,2022.1.3,Win32,60.03842459,62bbe60bf3d75ef465d3e404,0,124,124,98,1,twoone,,,,,,,,,,,,,,,,,,,,,,,,,,,,,,,,,,,,,,,,,,,,,,,,,,,,,,,,,,,,,,,,,,,,,,,,,,,,,,,,,,,,,,,,,,,,,,,,,,,,,,,,,,,,,,,,,,,,,,,,,,,,,,,,,,,,,,,,,,,,,,,,,,,,,,,
,,,,,,610bc158e2949bf76f127802,62bbf9c4e1b67965ba07d590,2022-06-29_09h30.05.915,Colour_Asymmetry_Pilot,2022.1.3,Win32,60.03842459,62bbe60bf3d75ef465d3e404,0,125,125,72,1,onetwo,,,,,,,,,,,,,,,,,,,,,,,,,,,,,,,,,,,,,,,,,,,,,,,,,,,,,,,,,,,,,,,,,,,,,,,,,,,,,,,,,,,,,,,,,,,,,,,,,,,,,,,,,,,,,,,,,,,,,,,,,,,,,,,,,,,,,,,,,,,,,,,,,,,,,,,
,,,,,,610bc158e2949bf76f127802,62bbf9c4e1b67965ba07d590,2022-06-29_09h30.05.915,Colour_Asymmetry_Pilot,2022.1.3,Win32,60.03842459,62bbe60bf3d75ef465d3e404,0,126,126,118,1,fourtwo,,,,,,,,,,,,,,,,,,,,,,,,,,,,,,,,,,,,,,,,,,,,,,,,,,,,,,,,,,,,,,,,,,,,,,,,,,,,,,,,,,,,,,,,,,,,,,,,,,,,,,,,,,,,,,,,,,,,,,,,,,,,,,,,,,,,,,,,,,,,,,,,,,,,,,,
,,,,,,610bc158e2949bf76f127802,62bbf9c4e1b67965ba07d590,2022-06-29_09h30.05.915,Colour_Asymmetry_Pilot,2022.1.3,Win32,60.03842459,62bbe60bf3d75ef465d3e404,0,127,127,112,1,onetwo,,,,,,,,,,,,,,,,,,,,,,,,,,,,,,,,,,,,,,,,,,,,,,,,,,,,,,,,,,,,,,,,,,,,,,,,,,,,,,,,,,,,,,,,,,,,,,,,,,,,,,,,,,,,,,,,,,,,,,,,,,,,,,,,,,,,,,,,,,,,,,,,,,,,,,,
,,,,,,610bc158e2949bf76f127802,62bbf9c4e1b67965ba07d590,2022-06-29_09h30.05.915,Colour_Asymmetry_Pilot,2022.1.3,Win32,60.03842459,62bbe60bf3d75ef465d3e404,0,128,128,46,1,fourtwo,,,,,,,,,,,,,,,,,,,,,,,,,,,,,,,,,,,,,,,,,,,,,,,,,,,,,,,,,,,,,,,,,,,,,,,,,,,,,,,,,,,,,,,,,,,,,,,,,,,,,,,,,,,,,,,,,,,,,,,,,,,,,,,,,,,,,,,,,,,,,,,,,,,,,,,
,,,,,,610bc158e2949bf76f127802,62bbf9c4e1b67965ba07d590,2022-06-29_09h30.05.915,Colour_Asymmetry_Pilot,2022.1.3,Win32,60.03842459,62bbe60bf3d75ef465d3e404,0,129,129,132,1,threeone,,,,,,,,,,,,,,,,,,,,,,,,,,,,,,,,,,,,,,,,,,,,,,,,,,,,,,,,,,,,,,,,,,,,,,,,,,,,,,,,,,,,,,,,,,,,,,,,,,,,,,,,,,,,,,,,,,,,,,,,,,,,,,,,,,,,,,,,,,,,,,,,,,,,,,,
,,,,,,610bc158e2949bf76f127802,62bbf9c4e1b67965ba07d590,2022-06-29_09h30.05.915,Colour_Asymmetry_Pilot,2022.1.3,Win32,60.03842459,62bbe60bf3d75ef465d3e404,0,130,130,151,1,fourthree,,,,,,,,,,,,,,,,,,,,,,,,,,,,,,,,,,,,,,,,,,,,,,,,,,,,,,,,,,,,,,,,,,,,,,,,,,,,,,,,,,,,,,,,,,,,,,,,,,,,,,,,,,,,,,,,,,,,,,,,,,,,,,,,,,,,,,,,,,,,,,,,,,,,,,,
,,,,,,610bc158e2949bf76f127802,62bbf9c4e1b67965ba07d590,2022-06-29_09h30.05.915,Colour_Asymmetry_Pilot,2022.1.3,Win32,60.03842459,62bbe60bf3d75ef465d3e404,0,131,131,57,1,onethree,,,,,,,,,,,,,,,,,,,,,,,,,,,,,,,,,,,,,,,,,,,,,,,,,,,,,,,,,,,,,,,,,,,,,,,,,,,,,,,,,,,,,,,,,,,,,,,,,,,,,,,,,,,,,,,,,,,,,,,,,,,,,,,,,,,,,,,,,,,,,,,,,,,,,,,
,,,,,,610bc158e2949bf76f127802,62bbf9c4e1b67965ba07d590,2022-06-29_09h30.05.915,Colour_Asymmetry_Pilot,2022.1.3,Win32,60.03842459,62bbe60bf3d75ef465d3e404,0,132,132,127,1,fourthree,,,,,,,,,,,,,,,,,,,,,,,,,,,,,,,,,,,,,,,,,,,,,,,,,,,,,,,,,,,,,,,,,,,,,,,,,,,,,,,,,,,,,,,,,,,,,,,,,,,,,,,,,,,,,,,,,,,,,,,,,,,,,,,,,,,,,,,,,,,,,,,,,,,,,,,
,,,,,,610bc158e2949bf76f127802,62bbf9c4e1b67965ba07d590,2022-06-29_09h30.05.915,Colour_Asymmetry_Pilot,2022.1.3,Win32,60.03842459,62bbe60bf3d75ef465d3e404,0,133,133,15,1,fourthree,,,,,,,,,,,,,,,,,,,,,,,,,,,,,,,,,,,,,,,,,,,,,,,,,,,,,,,,,,,,,,,,,,,,,,,,,,,,,,,,,,,,,,,,,,,,,,,,,,,,,,,,,,,,,,,,,,,,,,,,,,,,,,,,,,,,,,,,,,,,,,,,,,,,,,,
,,,,,,610bc158e2949bf76f127802,62bbf9c4e1b67965ba07d590,2022-06-29_09h30.05.915,Colour_Asymmetry_Pilot,2022.1.3,Win32,60.03842459,62bbe60bf3d75ef465d3e404,0,134,134,117,1,threefour,,,,,,,,,,,,,,,,,,,,,,,,,,,,,,,,,,,,,,,,,,,,,,,,,,,,,,,,,,,,,,,,,,,,,,,,,,,,,,,,,,,,,,,,,,,,,,,,,,,,,,,,,,,,,,,,,,,,,,,,,,,,,,,,,,,,,,,,,,,,,,,,,,,,,,,
,,,,,,610bc158e2949bf76f127802,62bbf9c4e1b67965ba07d590,2022-06-29_09h30.05.915,Colour_Asymmetry_Pilot,2022.1.3,Win32,60.03842459,62bbe60bf3d75ef465d3e404,0,135,135,143,1,fourthree,,,,,,,,,,,,,,,,,,,,,,,,,,,,,,,,,,,,,,,,,,,,,,,,,,,,,,,,,,,,,,,,,,,,,,,,,,,,,,,,,,,,,,,,,,,,,,,,,,,,,,,,,,,,,,,,,,,,,,,,,,,,,,,,,,,,,,,,,,,,,,,,,,,,,,,
,,,,,,610bc158e2949bf76f127802,62bbf9c4e1b67965ba07d590,2022-06-29_09h30.05.915,Colour_Asymmetry_Pilot,2022.1.3,Win32,60.03842459,62bbe60bf3d75ef465d3e404,0,136,136,153,1,onethree,,,,,,,,,,,,,,,,,,,,,,,,,,,,,,,,,,,,,,,,,,,,,,,,,,,,,,,,,,,,,,,,,,,,,,,,,,,,,,,,,,,,,,,,,,,,,,,,,,,,,,,,,,,,,,,,,,,,,,,,,,,,,,,,,,,,,,,,,,,,,,,,,,,,,,,
,,,,,,610bc158e2949bf76f127802,62bbf9c4e1b67965ba07d590,2022-06-29_09h30.05.915,Colour_Asymmetry_Pilot,2022.1.3,Win32,60.03842459,62bbe60bf3d75ef465d3e404,0,137,137,108,1,threeone,,,,,,,,,,,,,,,,,,,,,,,,,,,,,,,,,,,,,,,,,,,,,,,,,,,,,,,,,,,,,,,,,,,,,,,,,,,,,,,,,,,,,,,,,,,,,,,,,,,,,,,,,,,,,,,,,,,,,,,,,,,,,,,,,,,,,,,,,,,,,,,,,,,,,,,
,,,,,,610bc158e2949bf76f127802,62bbf9c4e1b67965ba07d590,2022-06-29_09h30.05.915,Colour_Asymmetry_Pilot,2022.1.3,Win32,60.03842459,62bbe60bf3d75ef465d3e404,0,138,138,119,1,fourthree,,,,,,,,,,,,,,,,,,,,,,,,,,,,,,,,,,,,,,,,,,,,,,,,,,,,,,,,,,,,,,,,,,,,,,,,,,,,,,,,,,,,,,,,,,,,,,,,,,,,,,,,,,,,,,,,,,,,,,,,,,,,,,,,,,,,,,,,,,,,,,,,,,,,,,,
,,,,,,610bc158e2949bf76f127802,62bbf9c4e1b67965ba07d590,2022-06-29_09h30.05.915,Colour_Asymmetry_Pilot,2022.1.3,Win32,60.03842459,62bbe60bf3d75ef465d3e404,0,139,139,120,1,onetwo,,,,,,,,,,,,,,,,,,,,,,,,,,,,,,,,,,,,,,,,,,,,,,,,,,,,,,,,,,,,,,,,,,,,,,,,,,,,,,,,,,,,,,,,,,,,,,,,,,,,,,,,,,,,,,,,,,,,,,,,,,,,,,,,,,,,,,,,,,,,,,,,,,,,,,,
,,,,,,610bc158e2949bf76f127802,62bbf9c4e1b67965ba07d590,2022-06-29_09h30.05.915,Colour_Asymmetry_Pilot,2022.1.3,Win32,60.03842459,62bbe60bf3d75ef465d3e404,0,140,140,23,1,fourthree,,,,,,,,,,,,,,,,,,,,,,,,,,,,,,,,,,,,,,,,,,,,,,,,,,,,,,,,,,,,,,,,,,,,,,,,,,,,,,,,,,,,,,,,,,,,,,,,,,,,,,,,,,,,,,,,,,,,,,,,,,,,,,,,,,,,,,,,,,,,,,,,,,,,,,,
,,,,,,610bc158e2949bf76f127802,62bbf9c4e1b67965ba07d590,2022-06-29_09h30.05.915,Colour_Asymmetry_Pilot,2022.1.3,Win32,60.03842459,62bbe60bf3d75ef465d3e404,0,141,141,150,1,fourtwo,,,,,,,,,,,,,,,,,,,,,,,,,,,,,,,,,,,,,,,,,,,,,,,,,,,,,,,,,,,,,,,,,,,,,,,,,,,,,,,,,,,,,,,,,,,,,,,,,,,,,,,,,,,,,,,,,,,,,,,,,,,,,,,,,,,,,,,,,,,,,,,,,,,,,,,
,,,,,,610bc158e2949bf76f127802,62bbf9c4e1b67965ba07d590,2022-06-29_09h30.05.915,Colour_Asymmetry_Pilot,2022.1.3,Win32,60.03842459,62bbe60bf3d75ef465d3e404,0,142,142,29,1,threefour,,,,,,,,,,,,,,,,,,,,,,,,,,,,,,,,,,,,,,,,,,,,,,,,,,,,,,,,,,,,,,,,,,,,,,,,,,,,,,,,,,,,,,,,,,,,,,,,,,,,,,,,,,,,,,,,,,,,,,,,,,,,,,,,,,,,,,,,,,,,,,,,,,,,,,,
,,,,,,610bc158e2949bf76f127802,62bbf9c4e1b67965ba07d590,2022-06-29_09h30.05.915,Colour_Asymmetry_Pilot,2022.1.3,Win32,60.03842459,62bbe60bf3d75ef465d3e404,0,143,143,100,1,threeone,,,,,,,,,,,,,,,,,,,,,,,,,,,,,,,,,,,,,,,,,,,,,,,,,,,,,,,,,,,,,,,,,,,,,,,,,,,,,,,,,,,,,,,,,,,,,,,,,,,,,,,,,,,,,,,,,,,,,,,,,,,,,,,,,,,,,,,,,,,,,,,,,,,,,,,
,,,,,,610bc158e2949bf76f127802,62bbf9c4e1b67965ba07d590,2022-06-29_09h30.05.915,Colour_Asymmetry_Pilot,2022.1.3,Win32,60.03842459,62bbe60bf3d75ef465d3e404,0,144,144,145,1,onethree,,,,,,,,,,,,,,,,,,,,,,,,,,,,,,,,,,,,,,,,,,,,,,,,,,,,,,,,,,,,,,,,,,,,,,,,,,,,,,,,,,,,,,,,,,,,,,,,,,,,,,,,,,,,,,,,,,,,,,,,,,,,,,,,,,,,,,,,,,,,,,,,,,,,,,,
,,,,,,610bc158e2949bf76f127802,62bbf9c4e1b67965ba07d590,2022-06-29_09h30.05.915,Colour_Asymmetry_Pilot,2022.1.3,Win32,60.03842459,62bbe60bf3d75ef465d3e404,0,145,145,137,1,onethree,,,,,,,,,,,,,,,,,,,,,,,,,,,,,,,,,,,,,,,,,,,,,,,,,,,,,,,,,,,,,,,,,,,,,,,,,,,,,,,,,,,,,,,,,,,,,,,,,,,,,,,,,,,,,,,,,,,,,,,,,,,,,,,,,,,,,,,,,,,,,,,,,,,,,,,
,,,,,,610bc158e2949bf76f127802,62bbf9c4e1b67965ba07d590,2022-06-29_09h30.05.915,Colour_Asymmetry_Pilot,2022.1.3,Win32,60.03842459,62bbe60bf3d75ef465d3e404,0,146,146,2,1,twoone,,,,,,,,,,,,,,,,,,,,,,,,,,,,,,,,,,,,,,,,,,,,,,,,,,,,,,,,,,,,,,,,,,,,,,,,,,,,,,,,,,,,,,,,,,,,,,,,,,,,,,,,,,,,,,,,,,,,,,,,,,,,,,,,,,,,,,,,,,,,,,,,,,,,,,,
,,,,,,610bc158e2949bf76f127802,62bbf9c4e1b67965ba07d590,2022-06-29_09h30.05.915,Colour_Asymmetry_Pilot,2022.1.3,Win32,60.03842459,62bbe60bf3d75ef465d3e404,0,147,147,115,1,twofour,,,,,,,,,,,,,,,,,,,,,,,,,,,,,,,,,,,,,,,,,,,,,,,,,,,,,,,,,,,,,,,,,,,,,,,,,,,,,,,,,,,,,,,,,,,,,,,,,,,,,,,,,,,,,,,,,,,,,,,,,,,,,,,,,,,,,,,,,,,,,,,,,,,,,,,
,,,,,,610bc158e2949bf76f127802,62bbf9c4e1b67965ba07d590,2022-06-29_09h30.05.915,Colour_Asymmetry_Pilot,2022.1.3,Win32,60.03842459,62bbe60bf3d75ef465d3e404,0,148,148,142,1,fourtwo,,,,,,,,,,,,,,,,,,,,,,,,,,,,,,,,,,,,,,,,,,,,,,,,,,,,,,,,,,,,,,,,,,,,,,,,,,,,,,,,,,,,,,,,,,,,,,,,,,,,,,,,,,,,,,,,,,,,,,,,,,,,,,,,,,,,,,,,,,,,,,,,,,,,,,,
,,,,,,610bc158e2949bf76f127802,62bbf9c4e1b67965ba07d590,2022-06-29_09h30.05.915,Colour_Asymmetry_Pilot,2022.1.3,Win32,60.03842459,62bbe60bf3d75ef465d3e404,0,149,149,21,1,threefour,,,,,,,,,,,,,,,,,,,,,,,,,,,,,,,,,,,,,,,,,,,,,,,,,,,,,,,,,,,,,,,,,,,,,,,,,,,,,,,,,,,,,,,,,,,,,,,,,,,,,,,,,,,,,,,,,,,,,,,,,,,,,,,,,,,,,,,,,,,,,,,,,,,,,,,
,,,,,,610bc158e2949bf76f127802,62bbf9c4e1b67965ba07d590,2022-06-29_09h30.05.915,Colour_Asymmetry_Pilot,2022.1.3,Win32,60.03842459,62bbe60bf3d75ef465d3e404,0,150,150,33,1,onethree,,,,,,,,,,,,,,,,,,,,,,,,,,,,,,,,,,,,,,,,,,,,,,,,,,,,,,,,,,,,,,,,,,,,,,,,,,,,,,,,,,,,,,,,,,,,,,,,,,,,,,,,,,,,,,,,,,,,,,,,,,,,,,,,,,,,,,,,,,,,,,,,,,,,,,,
,,,,,,610bc158e2949bf76f127802,62bbf9c4e1b67965ba07d590,2022-06-29_09h30.05.915,Colour_Asymmetry_Pilot,2022.1.3,Win32,60.03842459,62bbe60bf3d75ef465d3e404,0,151,151,6,1,fourtwo,,,,,,,,,,,,,,,,,,,,,,,,,,,,,,,,,,,,,,,,,,,,,,,,,,,,,,,,,,,,,,,,,,,,,,,,,,,,,,,,,,,,,,,,,,,,,,,,,,,,,,,,,,,,,,,,,,,,,,,,,,,,,,,,,,,,,,,,,,,,,,,,,,,,,,,
,,,,,,610bc158e2949bf76f127802,62bbf9c4e1b67965ba07d590,2022-06-29_09h30.05.915,Colour_Asymmetry_Pilot,2022.1.3,Win32,60.03842459,62bbe60bf3d75ef465d3e404,0,152,152,5,1,threefour,,,,,,,,,,,,,,,,,,,,,,,,,,,,,,,,,,,,,,,,,,,,,,,,,,,,,,,,,,,,,,,,,,,,,,,,,,,,,,,,,,,,,,,,,,,,,,,,,,,,,,,,,,,,,,,,,,,,,,,,,,,,,,,,,,,,,,,,,,,,,,,,,,,,,,,
,,,,,,610bc158e2949bf76f127802,62bbf9c4e1b67965ba07d590,2022-06-29_09h30.05.915,Colour_Asymmetry_Pilot,2022.1.3,Win32,60.03842459,62bbe60bf3d75ef465d3e404,0,153,153,40,1,onetwo,,,,,,,,,,,,,,,,,,,,,,,,,,,,,,,,,,,,,,,,,,,,,,,,,,,,,,,,,,,,,,,,,,,,,,,,,,,,,,,,,,,,,,,,,,,,,,,,,,,,,,,,,,,,,,,,,,,,,,,,,,,,,,,,,,,,,,,,,,,,,,,,,,,,,,,
,,,,,,610bc158e2949bf76f127802,62bbf9c4e1b67965ba07d590,2022-06-29_09h30.05.915,Colour_Asymmetry_Pilot,2022.1.3,Win32,60.03842459,62bbe60bf3d75ef465d3e404,0,154,154,68,1,threeone,,,,,,,,,,,,,,,,,,,,,,,,,,,,,,,,,,,,,,,,,,,,,,,,,,,,,,,,,,,,,,,,,,,,,,,,,,,,,,,,,,,,,,,,,,,,,,,,,,,,,,,,,,,,,,,,,,,,,,,,,,,,,,,,,,,,,,,,,,,,,,,,,,,,,,,
,,,,,,610bc158e2949bf76f127802,62bbf9c4e1b67965ba07d590,2022-06-29_09h30.05.915,Colour_Asymmetry_Pilot,2022.1.3,Win32,60.03842459,62bbe60bf3d75ef465d3e404,0,155,155,90,1,twoone,,,,,,,,,,,,,,,,,,,,,,,,,,,,,,,,,,,,,,,,,,,,,,,,,,,,,,,,,,,,,,,,,,,,,,,,,,,,,,,,,,,,,,,,,,,,,,,,,,,,,,,,,,,,,,,,,,,,,,,,,,,,,,,,,,,,,,,,,,,,,,,,,,,,,,,
,,,,,,610bc158e2949bf76f127802,62bbf9c4e1b67965ba07d590,2022-06-29_09h30.05.915,Colour_Asymmetry_Pilot,2022.1.3,Win32,60.03842459,62bbe60bf3d75ef465d3e404,0,156,156,3,1,twofour,,,,,,,,,,,,,,,,,,,,,,,,,,,,,,,,,,,,,,,,,,,,,,,,,,,,,,,,,,,,,,,,,,,,,,,,,,,,,,,,,,,,,,,,,,,,,,,,,,,,,,,,,,,,,,,,,,,,,,,,,,,,,,,,,,,,,,,,,,,,,,,,,,,,,,,
,,,,,,610bc158e2949bf76f127802,62bbf9c4e1b67965ba07d590,2022-06-29_09h30.05.915,Colour_Asymmetry_Pilot,2022.1.3,Win32,60.03842459,62bbe60bf3d75ef465d3e404,0,157,157,4,1,threeone,,,,,,,,,,,,,,,,,,,,,,,,,,,,,,,,,,,,,,,,,,,,,,,,,,,,,,,,,,,,,,,,,,,,,,,,,,,,,,,,,,,,,,,,,,,,,,,,,,,,,,,,,,,,,,,,,,,,,,,,,,,,,,,,,,,,,,,,,,,,,,,,,,,,,,,
,,,,,,610bc158e2949bf76f127802,62bbf9c4e1b67965ba07d590,2022-06-29_09h30.05.915,Colour_Asymmetry_Pilot,2022.1.3,Win32,60.03842459,62bbe60bf3d75ef465d3e404,0,158,158,113,1,onethree,,,,,,,,,,,,,,,,,,,,,,,,,,,,,,,,,,,,,,,,,,,,,,,,,,,,,,,,,,,,,,,,,,,,,,,,,,,,,,,,,,,,,,,,,,,,,,,,,,,,,,,,,,,,,,,,,,,,,,,,,,,,,,,,,,,,,,,,,,,,,,,,,,,,,,,
,,,,,,610bc158e2949bf76f127802,62bbf9c4e1b67965ba07d590,2022-06-29_09h30.05.915,Colour_Asymmetry_Pilot,2022.1.3,Win32,60.03842459,62bbe60bf3d75ef465d3e404,0,159,159,75,1,twofour,,,,,,,,,,,,,,,,,,,,,,,,,,,,,,,,,,,,,,,,,,,,,,,,,,,,,,,,,,,,,,,,,,,,,,,,,,,,,,,,,,,,,,,,,,,,,,,,,,,,,,,,,,,,,,,,,,,,,,,,,,,,,,,,,,,,,,,,,,,,,,,,,,,,,,,
,,,,,,610bc158e2949bf76f127802,62bbf9c4e1b67965ba07d590,2022-06-29_09h30.05.915,Colour_Asymmetry_Pilot,2022.1.3,Win32,60.03842459,62bbe60bf3d75ef465d3e404,0,160,160,44,1,threeone,,,,,,,,,,,,,,,,,,,,,,,,,,,,,,,,,,,,,,,,,,,,,,,,,,,,,,,,,,,,,,,,,,,,,,,,,,,,,,,,,,,,,,,,,,,,,,,,,,,,,,,,,,,,,,,,,,,,,,,,,,,,,,,,,,,,,,,,,,,,,,,,,,,,,,,
,,,,,,610bc158e2949bf76f127802,62bbf9c4e1b67965ba07d590,2022-06-29_09h30.05.915,Colour_Asymmetry_Pilot,2022.1.3,Win32,60.03842459,62bbe60bf3d75ef465d3e404,0,161,161,95,1,fourthree,,,,,,,,,,,,,,,,,,,,,,,,,,,,,,,,,,,,,,,,,,,,,,,,,,,,,,,,,,,,,,,,,,,,,,,,,,,,,,,,,,,,,,,,,,,,,,,,,,,,,,,,,,,,,,,,,,,,,,,,,,,,,,,,,,,,,,,,,,,,,,,,,,,,,,,
,,,,,,610bc158e2949bf76f127802,62bbf9c4e1b67965ba07d590,2022-06-29_09h30.05.915,Colour_Asymmetry_Pilot,2022.1.3,Win32,60.03842459,62bbe60bf3d75ef465d3e404,,,,,,,space,6.022900001,space,12.2904,space,58.9391,space,24.4417,space,4.152700001,space,5.9449,"[-0.4902000000000001,0.2704,-0.45899999999999996]",twofour,"[-0.6235999999999999,-0.6786,-0.08239999999999992]",-2,40.4417,-85,-37,1,0,0,response5disk_5,3,-1,1,0,0,rectangle_8,51,107,1,0,0,response1disk_7,7,4,-6,1,1,0,0,rectangle_4,0,0,0,0,1,,,,,,,,,,,,,,,,,,,,,,,,,,,,,,,,,,,,,,,,,,,,,,,,,,,,,,,,,,,,,,,,,,,,,,,,,,,,,,,,,,,,,,,,,,,,,,,,,,,,,,,
,,,,,,610bc158e2949bf76f127802,62bbf9c4e1b67965ba07d590,2022-06-29_09h30.05.915,Colour_Asymmetry_Pilot,2022.1.3,Win32,60.03842459,62bbe60bf3d75ef465d3e404,,,,,,,,,,,,,,,,,,,"[0.23120000000000007,-0.7726,-0.34120000000000006]",threeone,"[-0.2942,-0.24719999999999998,-0.357]",-2,21.975,-72,-21,1,0,0,response5disk_5,-3,2,1,0,0,rectangle_8,-3,2,1,0,0,,,4,-3,2,1,0,0,,1,0,1,0,1,,,,,,,,,,,,,,,,,,,,,,,,,,,,,,,,,,,,,,,,,,,,,,,,,,,,,,,,,,,,,,,,,,,,,,,,,,,,,,,,,,,,,,,,,,,,,,,,,,,,,,,
,,,,,,610bc158e2949bf76f127802,62bbf9c4e1b67965ba07d590,2022-06-29_09h30.05.915,Colour_Asymmetry_Pilot,2022.1.3,Win32,60.03842459,62bbe60bf3d75ef465d3e404,,,,,,,,,,,,,,,,,,,"[-0.09019999999999995,0.44300000000000006,0.5371999999999999]",fourtwo,"[-0.011800000000000033,-0.906,-0.45100000000000007]",-1,6.8772,-34,-63,1,0,0,response5disk_5,-2,1,1,0,0,rectangle_8,-2,1,1,0,0,,,4,-2,1,1,0,0,,2,0,2,0,1,,,,,,,,,,,,,,,,,,,,,,,,,,,,,,,,,,,,,,,,,,,,,,,,,,,,,,,,,,,,,,,,,,,,,,,,,,,,,,,,,,,,,,,,,,,,,,,,,,,,,,,
,,,,,,610bc158e2949bf76f127802,62bbf9c4e1b67965ba07d590,2022-06-29_09h30.05.915,Colour_Asymmetry_Pilot,2022.1.3,Win32,60.03842459,62bbe60bf3d75ef465d3e404,,,,,,,,,,,,,,,,,,,"[-0.6235999999999999,-0.6786,-0.08239999999999992]",twoone,"[-0.0040000000000000036,0.02739999999999987,-0.08239999999999992]",-4,7.5327,-48,80,1,0,0,response7disk_5,2,9,1,0,0,rectangle_8,38,88,1,0,0,response1disk_7,7,4,-7,3,1,0,0,rectangle_4,3,0,3,0,1,,,,,,,,,,,,,,,,,,,,,,,,,,,,,,,,,,,,,,,,,,,,,,,,,,,,,,,,,,,,,,,,,,,,,,,,,,,,,,,,,,,,,,,,,,,,,,,,,,,,,,,
,,,,,,610bc158e2949bf76f127802,62bbf9c4e1b67965ba07d590,2022-06-29_09h30.05.915,Colour_Asymmetry_Pilot,2022.1.3,Win32,60.03842459,62bbe60bf3d75ef465d3e404,,,,,,,,,,,,,,,,,,,"[-0.2942,-0.7648,-0.7492000000000001]",fourtwo,"[-0.4902000000000001,0.2704,-0.45899999999999996]",-4,6.275599999,-53,76,1,0,0,response7disk_5,0,4,1,0,0,rectangle_8,0,4,1,0,0,,,4,0,4,1,0,0,,4,0,4,0,1,,,,,,,,,,,,,,,,,,,,,,,,,,,,,,,,,,,,,,,,,,,,,,,,,,,,,,,,,,,,,,,,,,,,,,,,,,,,,,,,,,,,,,,,,,,,,,,,,,,,,,,
,,,,,,610bc158e2949bf76f127802,62bbf9c4e1b67965ba07d590,2022-06-29_09h30.05.915,Colour_Asymmetry_Pilot,2022.1.3,Win32,60.03842459,62bbe60bf3d75ef465d3e404,,,,,,,,,,,,,,,,,,,"[0.9763999999999999,0.30979999999999985,-0.6786]",threefour,"[-0.011800000000000033,-0.906,-0.45100000000000007]",-2,12.3358,-84,-30,1,0,0,response5disk_5,0,-2,1,0,0,rectangle_8,0,-2,1,0,0,,,4,0,-2,1,0,0,,5,0,5,0,1,,,,,,,,,,,,,,,,,,,,,,,,,,,,,,,,,,,,,,,,,,,,,,,,,,,,,,,,,,,,,,,,,,,,,,,,,,,,,,,,,,,,,,,,,,,,,,,,,,,,,,,
,,,,,,610bc158e2949bf76f127802,62bbf9c4e1b67965ba07d590,2022-06-29_09h30.05.915,Colour_Asymmetry_Pilot,2022.1.3,Win32,60.03842459,62bbe60bf3d75ef465d3e404,,,,,,,,,,,,,,,,,,,"[0.7802,-0.23140000000000005,-0.20799999999999996]",fourthree,"[0.23920000000000008,0.2704,0.16060000000000008]",-3,10.3015,-88,35,1,0,0,response7disk_5,-3,1,1,0,0,rectangle_8,-3,1,1,0,0,,,4,-3,1,1,0,0,,6,0,6,0,1,,,,,,,,,,,,,,,,,,,,,,,,,,,,,,,,,,,,,,,,,,,,,,,,,,,,,,,,,,,,,,,,,,,,,,,,,,,,,,,,,,,,,,,,,,,,,,,,,,,,,,,
,,,,,,610bc158e2949bf76f127802,62bbf9c4e1b67965ba07d590,2022-06-29_09h30.05.915,Colour_Asymmetry_Pilot,2022.1.3,Win32,60.03842459,62bbe60bf3d75ef465d3e404,,,,,,,,,,,,,,,,,,,,threeone,,2,13.3331,,,,,,,,,,,,,,,,,,,,,,,,,,,,,,,,space,37.839,"[-0.9688,-0.4902000000000001,-0.12159999999999993]","[-0.5688,-0.08239999999999992,-0.1844]",86,-40.5,1,0,0,response3disk,-7,4.5,1,0,0,rectangle,-7,4.5,1,0,0,,3,0.061900001,0,-7,4.5,1,0,0,0,0,0,113,1,32,second,,,,,,,,,,,,,,,,,,,,,,,,,,,,,,,,,,,,,,,,,,,,,,,,,,,,,,,,,,,,,,,,,,
,,,,,,610bc158e2949bf76f127802,62bbf9c4e1b67965ba07d590,2022-06-29_09h30.05.915,Colour_Asymmetry_Pilot,2022.1.3,Win32,60.03842459,62bbe60bf3d75ef465d3e404,,,,,,,,,,,,,,,,,,,,twoone,,-2,5.5192,,,,,,,,,,,,,,,,,,,,,,,,,,,,,,,,,,"[-0.6,0.16860000000000008,0.44300000000000006]","[0.8115999999999999,-0.0040000000000000036,-0.09819999999999995]",-75,-44.5,1,0,0,response5disk,3,0.5,1,0,0,rectangle,3,0.5,1,0,0,,1,0.0075,0,3,0.5,1,0,0,0,1,1,19,1,19,first,,,,,,,,,,,,,,,,,,,,,,,,,,,,,,,,,,,,,,,,,,,,,,,,,,,,,,,,,,,,,,,,,,
,,,,,,610bc158e2949bf76f127802,62bbf9c4e1b67965ba07d590,2022-06-29_09h30.05.915,Colour_Asymmetry_Pilot,2022.1.3,Win32,60.03842459,62bbe60bf3d75ef465d3e404,,,,,,,,,,,,,,,,,,,,onethree,,-4,3.8968,,,,,,,,,,,,,,,,,,,,,,,,,,,,,,,,,,"[-0.10599999999999998,-0.15300000000000002,0.15280000000000005]","[0.0351999999999999,0.41159999999999997,0.0038000000000000256]",-31,84.5,1,0,0,response7disk,-3,4.5,1,0,0,rectangle,-3,4.5,1,0,0,,1,0.000599999,0,-3,4.5,1,0,0,0,2,2,112,1,31,second,,,,,,,,,,,,,,,,,,,,,,,,,,,,,,,,,,,,,,,,,,,,,,,,,,,,,,,,,,,,,,,,,,
,,,,,,610bc158e2949bf76f127802,62bbf9c4e1b67965ba07d590,2022-06-29_09h30.05.915,Colour_Asymmetry_Pilot,2022.1.3,Win32,60.03842459,62bbe60bf3d75ef465d3e404,,,,,,,,,,,,,,,,,,,,onethree,,-1,8.205200001,,,,,,,,,,,,,,,,,,,,,,,,,,,,,,,,,,"[-0.2942,-0.24719999999999998,-0.357]","[-0.5688,-0.08239999999999992,-0.1844]",-47,-75.5,1,0,0,response5disk,-5,-3.5,1,0,0,rectangle,-5,-3.5,1,0,0,,2,0.0015,0,-5,-3.5,1,0,0,0,3,3,83,1,2,second,,,,,,,,,,,,,,,,,,,,,,,,,,,,,,,,,,,,,,,,,,,,,,,,,,,,,,,,,,,,,,,,,,
,,,,,,610bc158e2949bf76f127802,62bbf9c4e1b67965ba07d590,2022-06-29_09h30.05.915,Colour_Asymmetry_Pilot,2022.1.3,Win32,60.03842459,62bbe60bf3d75ef465d3e404,,,,,,,,,,,,,,,,,,,,onetwo,,-3,2.3135,,,,,,,,,,,,,,,,,,,,,,,,,,,,,,,,,,"[-0.4668,-0.8746,-0.2942]","[-0.9844,-0.9688,-0.9922]",-102,67.5,1,0,0,response7disk,8,0.5,1,0,0,rectangle,8,0.5,1,0,0,,3,0.0021,0,8,0.5,1,0,0,0,4,4,118,1,37,second,,,,,,,,,,,,,,,,,,,,,,,,,,,,,,,,,,,,,,,,,,,,,,,,,,,,,,,,,,,,,,,,,,
,,,,,,610bc158e2949bf76f127802,62bbf9c4e1b67965ba07d590,2022-06-29_09h30.05.915,Colour_Asymmetry_Pilot,2022.1.3,Win32,60.03842459,62bbe60bf3d75ef465d3e404,,,,,,,,,,,,,,,,,,,,threefour,,-2,4.6551,,,,,,,,,,,,,,,,,,,,,,,,,,,,,,,,,,"[-0.9138,-0.5296000000000001,-0.5529999999999999]","[-0.10599999999999998,-0.15300000000000002,0.15280000000000005]",-57,-26.5,1,0,0,response5disk,5,4.5,1,0,0,rectangle,5,4.5,1,0,0,,1,0.002,0,5,4.5,1,0,0,0,5,5,140,1,59,second,,,,,,,,,,,,,,,,,,,,,,,,,,,,,,,,,,,,,,,,,,,,,,,,,,,,,,,,,,,,,,,,,,
,,,,,,610bc158e2949bf76f127802,62bbf9c4e1b67965ba07d590,2022-06-29_09h30.05.915,Colour_Asymmetry_Pilot,2022.1.3,Win32,60.03842459,62bbe60bf3d75ef465d3e404,,,,,,,,,,,,,,,,,,,,threefour,,-4,3.551900001,,,,,,,,,,,,,,,,,,,,,,,,,,,,,,,,,,"[0.9763999999999999,0.8588,-0.05900000000000005]","[-0.9766,-0.34920000000000007,0.2156]",-36,94.5,1,0,0,response7disk,-2,3.5,1,0,0,rectangle,-2,3.5,1,0,0,,3,0.002,0,-2,3.5,1,0,0,0,6,6,62,1,62,first,,,,,,,,,,,,,,,,,,,,,,,,,,,,,,,,,,,,,,,,,,,,,,,,,,,,,,,,,,,,,,,,,,
,,,,,,610bc158e2949bf76f127802,62bbf9c4e1b67965ba07d590,2022-06-29_09h30.05.915,Colour_Asymmetry_Pilot,2022.1.3,Win32,60.03842459,62bbe60bf3d75ef465d3e404,,,,,,,,,,,,,,,,,,,,twofour,,-3,5.912700001,,,,,,,,,,,,,,,,,,,,,,,,,,,,,,,,,,"[0.23920000000000008,0.2704,0.16060000000000008]","[-0.01980000000000004,-0.5138,-0.38039999999999996]",-90,47.5,1,0,0,response7disk,6,1.5,1,0,0,rectangle,6,1.5,1,0,0,,3,0.000599999,0,6,1.5,1,0,0,0,7,7,39,1,39,first,,,,,,,,,,,,,,,,,,,,,,,,,,,,,,,,,,,,,,,,,,,,,,,,,,,,,,,,,,,,,,,,,,
,,,,,,610bc158e2949bf76f127802,62bbf9c4e1b67965ba07d590,2022-06-29_09h30.05.915,Colour_Asymmetry_Pilot,2022.1.3,Win32,60.03842459,62bbe60bf3d75ef465d3e404,,,,,,,,,,,,,,,,,,,,fourtwo,,2,4.0875,,,,,,,,,,,,,,,,,,,,,,,,,,,,,,,,,,"[-0.24719999999999998,-0.0354000000000001,0.3175999999999999]","[-0.4982,-0.2942,-0.0354000000000001]",48,-22.5,1,0,0,response3disk,0,11.5,1,0,0,rectangle,0,11.5,1,0,0,,1,0.0019,0,0,11.5,1,0,0,0,8,8,129,1,48,second,,,,,,,,,,,,,,,,,,,,,,,,,,,,,,,,,,,,,,,,,,,,,,,,,,,,,,,,,,,,,,,,,,
,,,,,,610bc158e2949bf76f127802,62bbf9c4e1b67965ba07d590,2022-06-29_09h30.05.915,Colour_Asymmetry_Pilot,2022.1.3,Win32,60.03842459,62bbe60bf3d75ef465d3e404,,,,,,,,,,,,,,,,,,,,fourthree,,-4,4.6462,,,,,,,,,,,,,,,,,,,,,,,,,,,,,,,,,,"[-0.06680000000000008,-0.45100000000000007,-0.906]","[0.8115999999999999,-0.0040000000000000036,-0.09819999999999995]",-66,104.5,1,0,0,response7disk,-4,1.5,1,0,0,rectangle,-4,1.5,1,0,0,,2,0.0018,0,-4,1.5,1,0,0,0,9,9,101,1,20,second,,,,,,,,,,,,,,,,,,,,,,,,,,,,,,,,,,,,,,,,,,,,,,,,,,,,,,,,,,,,,,,,,,
,,,,,,610bc158e2949bf76f127802,62bbf9c4e1b67965ba07d590,2022-06-29_09h30.05.915,Colour_Asymmetry_Pilot,2022.1.3,Win32,60.03842459,62bbe60bf3d75ef465d3e404,,,,,,,,,,,,,,,,,,,,twoone,,-4,2.0214,,,,,,,,,,,,,,,,,,,,,,,,,,,,,,,,,,"[0.7802,-0.23140000000000005,-0.20799999999999996]","[-0.6942,-0.7648,-0.12959999999999994]",-35,68.5,1,0,0,response7disk,-5,3.5,1,0,0,rectangle,-5,3.5,1,0,0,,3,0.0017,0,-5,3.5,1,0,0,0,10,10,26,1,26,first,,,,,,,,,,,,,,,,,,,,,,,,,,,,,,,,,,,,,,,,,,,,,,,,,,,,,,,,,,,,,,,,,,
,,,,,,610bc158e2949bf76f127802,62bbf9c4e1b67965ba07d590,2022-06-29_09h30.05.915,Colour_Asymmetry_Pilot,2022.1.3,Win32,60.03842459,62bbe60bf3d75ef465d3e404,,,,,,,,,,,,,,,,,,,,fourthree,,-4,3.7685,,,,,,,,,,,,,,,,,,,,,,,,,,,,,,,,,,"[0.9686000000000001,0.5763999999999998,0.11359999999999992]","[-0.8198,-0.5138,-0.7492000000000001]",-40,100.5,1,0,0,response7disk,-11,7.5,1,0,0,rectangle,-11,7.5,1,0,0,,3,0.000700001,0,-11,7.5,1,0,0,0,11,11,27,1,27,first,,,,,,,,,,,,,,,,,,,,,,,,,,,,,,,,,,,,,,,,,,,,,,,,,,,,,,,,,,,,,,,,,,
,,,,,,610bc158e2949bf76f127802,62bbf9c4e1b67965ba07d590,2022-06-29_09h30.05.915,Colour_Asymmetry_Pilot,2022.1.3,Win32,60.03842459,62bbe60bf3d75ef465d3e404,,,,,,,,,,,,,,,,,,,,threeone,,-4,2.400299999,,,,,,,,,,,,,,,,,,,,,,,,,,,,,,,,,,"[-0.6235999999999999,-0.6786,-0.08239999999999992]","[-0.17659999999999998,-0.2864,-0.8354]",-30,50.5,1,0,0,response7disk,-8,9.5,1,0,0,rectangle,-8,9.5,1,0,0,,1,0.0039,0,-8,9.5,1,0,0,0,12,12,125,1,44,second,,,,,,,,,,,,,,,,,,,,,,,,,,,,,,,,,,,,,,,,,,,,,,,,,,,,,,,,,,,,,,,,,,
,,,,,,610bc158e2949bf76f127802,62bbf9c4e1b67965ba07d590,2022-06-29_09h30.05.915,Colour_Asymmetry_Pilot,2022.1.3,Win32,60.03842459,62bbe60bf3d75ef465d3e404,,,,,,,,,,,,,,,,,,,,twoone,,-3,3.3672,,,,,,,,,,,,,,,,,,,,,,,,,,,,,,,,,,"[-0.4276,0.0038000000000000256,-0.3256]","[0.3568,-0.20799999999999996,-0.9844]",-77,48.5,1,0,0,response7disk,1,4.5,1,0,0,rectangle,1,4.5,1,0,0,,1,0.001,0,1,4.5,1,0,0,0,13,13,91,1,10,second,,,,,,,,,,,,,,,,,,,,,,,,,,,,,,,,,,,,,,,,,,,,,,,,,,,,,,,,,,,,,,,,,,
,,,,,,610bc158e2949bf76f127802,62bbf9c4e1b67965ba07d590,2022-06-29_09h30.05.915,Colour_Asymmetry_Pilot,2022.1.3,Win32,60.03842459,62bbe60bf3d75ef465d3e404,,,,,,,,,,,,,,,,,,,,twoone,,-4,2.417400001,,,,,,,,,,,,,,,,,,,,,,,,,,,,,,,,,,"[-0.9766,-0.6472,0.07440000000000002]","[-0.2942,-0.24719999999999998,-0.357]",-43,65.5,1,0,0,response7disk,-12,1.5,1,0,0,rectangle,-12,1.5,1,0,0,,1,0.0019,0,-12,1.5,1,0,0,0,14,14,131,1,50,second,,,,,,,,,,,,,,,,,,,,,,,,,,,,,,,,,,,,,,,,,,,,,,,,,,,,,,,,,,,,,,,,,,
,,,,,,610bc158e2949bf76f127802,62bbf9c4e1b67965ba07d590,2022-06-29_09h30.05.915,Colour_Asymmetry_Pilot,2022.1.3,Win32,60.03842459,62bbe60bf3d75ef465d3e404,,,,,,,,,,,,,,,,,,,,fourtwo,,-3,5.3683,,,,,,,,,,,,,,,,,,,,,,,,,,,,,,,,,,"[-0.9766,-0.6472,0.07440000000000002]","[0.12939999999999996,-0.2864,0.3253999999999999]",-112,31.5,1,0,0,response7disk,-2,4.5,1,0,0,rectangle,-2,4.5,1,0,0,,2,0.001799999,0,-2,4.5,1,0,0,0,15,15,158,1,77,second,,,,,,,,,,,,,,,,,,,,,,,,,,,,,,,,,,,,,,,,,,,,,,,,,,,,,,,,,,,,,,,,,,
,,,,,,610bc158e2949bf76f127802,62bbf9c4e1b67965ba07d590,2022-06-29_09h30.05.915,Colour_Asymmetry_Pilot,2022.1.3,Win32,60.03842459,62bbe60bf3d75ef465d3e404,,,,,,,,,,,,,,,,,,,,onetwo,,-4,2.097,,,,,,,,,,,,,,,,,,,,,,,,,,,,,,,,,,"[-0.01980000000000004,-0.5138,-0.38039999999999996]","[-0.9688,-0.38039999999999996,-0.41979999999999995]",-34,55.5,1,0,0,response7disk,-6,11.5,1,0,0,rectangle,-6,11.5,1,0,0,,1,0.0016,0,-6,11.5,1,0,0,0,16,16,116,1,35,second,,,,,,,,,,,,,,,,,,,,,,,,,,,,,,,,,,,,,,,,,,,,,,,,,,,,,,,,,,,,,,,,,,
,,,,,,610bc158e2949bf76f127802,62bbf9c4e1b67965ba07d590,2022-06-29_09h30.05.915,Colour_Asymmetry_Pilot,2022.1.3,Win32,60.03842459,62bbe60bf3d75ef465d3e404,,,,,,,,,,,,,,,,,,,,fourtwo,,-3,2.2832,,,,,,,,,,,,,,,,,,,,,,,,,,,,,,,,,,"[-0.9688,-0.38039999999999996,-0.41979999999999995]","[-0.01980000000000004,-0.5138,-0.38039999999999996]",-81,52.5,1,0,0,response7disk,-1,5.5,1,0,0,rectangle,-1,5.5,1,0,0,,3,0.0019,0,-1,5.5,1,0,0,0,17,17,35,1,35,first,,,,,,,,,,,,,,,,,,,,,,,,,,,,,,,,,,,,,,,,,,,,,,,,,,,,,,,,,,,,,,,,,,
,,,,,,610bc158e2949bf76f127802,62bbf9c4e1b67965ba07d590,2022-06-29_09h30.05.915,Colour_Asymmetry_Pilot,2022.1.3,Win32,60.03842459,62bbe60bf3d75ef465d3e404,,,,,,,,,,,,,,,,,,,,twofour,,-4,2.5037,,,,,,,,,,,,,,,,,,,,,,,,,,,,,,,,,,"[0.9763999999999999,0.30979999999999985,-0.6786]","[-0.9138,-0.5296000000000001,-0.5529999999999999]",-38,107.5,1,0,0,response7disk,-4,9.5,1,0,0,rectangle,-4,9.5,1,0,0,,2,0.0205,0,-4,9.5,1,0,0,0,18,18,56,1,56,first,,,,,,,,,,,,,,,,,,,,,,,,,,,,,,,,,,,,,,,,,,,,,,,,,,,,,,,,,,,,,,,,,,
,,,,,,610bc158e2949bf76f127802,62bbf9c4e1b67965ba07d590,2022-06-29_09h30.05.915,Colour_Asymmetry_Pilot,2022.1.3,Win32,60.03842459,62bbe60bf3d75ef465d3e404,,,,,,,,,,,,,,,,,,,,fourthree,,-4,1.9116,,,,,,,,,,,,,,,,,,,,,,,,,,,,,,,,,,"[-0.17659999999999998,-0.2864,-0.8354]","[-0.6235999999999999,-0.6786,-0.08239999999999992]",-28,104.5,1,0,0,response7disk,-8,6.5,1,0,0,rectangle,-8,6.5,1,0,0,,2,0.000900001,0,-8,6.5,1,0,0,0,19,19,44,1,44,first,,,,,,,,,,,,,,,,,,,,,,,,,,,,,,,,,,,,,,,,,,,,,,,,,,,,,,,,,,,,,,,,,,
,,,,,,610bc158e2949bf76f127802,62bbf9c4e1b67965ba07d590,2022-06-29_09h30.05.915,Colour_Asymmetry_Pilot,2022.1.3,Win32,60.03842459,62bbe60bf3d75ef465d3e404,,,,,,,,,,,,,,,,,,,,threeone,,-4,1.9672,,,,,,,,,,,,,,,,,,,,,,,,,,,,,,,,,,"[0.12939999999999996,-0.2864,0.3253999999999999]","[-0.9766,-0.6472,0.07440000000000002]",-50,70.5,1,0,0,response7disk,-6,6.5,1,0,0,rectangle,-6,6.5,1,0,0,,1,0.0015,0,-6,6.5,1,0,0,0,20,20,77,1,77,first,,,,,,,,,,,,,,,,,,,,,,,,,,,,,,,,,,,,,,,,,,,,,,,,,,,,,,,,,,,,,,,,,,
