trials.thisRepN,trials.thisTrialN,trials.thisN,trials.thisIndex,trials.ran,Colourcodes,participant,session,date,expName,psychopyVersion,OS,frameRate,study_id,trials_4.thisRepN,trials_4.thisTrialN,trials_4.thisN,trials_4.thisIndex,trials_4.ran,StimulusPos,key_resp.keys,key_resp.rt,key_resp_2.keys,key_resp_2.rt,key_resp_15.keys,key_resp_15.rt,key_resp_17.keys,key_resp_17.rt,key_resp_9.keys,key_resp_9.rt,key_resp_10.keys,key_resp_10.rt,Circle1_col,Ecc,Circle2_col,similarity,response_time,mouse_5.x,mouse_5.y,mouse_5.leftButton,mouse_5.midButton,mouse_5.rightButton,mouse_5.clicked_name,mouse_10.x,mouse_10.y,mouse_10.leftButton,mouse_10.midButton,mouse_10.rightButton,mouse_10.clicked_name,mouse_7.x,mouse_7.y,mouse_7.leftButton,mouse_7.midButton,mouse_7.rightButton,mouse_7.clicked_name,catchprac,catchnumberprac,mouse_6.x,mouse_6.y,mouse_6.leftButton,mouse_6.midButton,mouse_6.rightButton,mouse_6.clicked_name,duringprac.thisRepN,duringprac.thisTrialN,duringprac.thisN,duringprac.thisIndex,duringprac.ran,key_resp_22.keys,key_resp_22.rt,Circle1_colour,Circle2_colour,mouse.x,mouse.y,mouse.leftButton,mouse.midButton,mouse.rightButton,mouse.clicked_name,mouse_2.x,mouse_2.y,mouse_2.leftButton,mouse_2.midButton,mouse_2.rightButton,mouse_2.clicked_name,mouse_3.x,mouse_3.y,mouse_3.leftButton,mouse_3.midButton,mouse_3.rightButton,catchresponse,catchnumber,response_time_catch,Catch,mouse_11.x,mouse_11.y,mouse_11.leftButton,mouse_11.midButton,mouse_11.rightButton,trials_2.thisRepN,trials_2.thisTrialN,trials_2.thisN,trials_2.thisIndex,trials_2.ran,Colourpair,Temporder,mouse_3.clicked_name,mouse_11.clicked_name,trials_3.thisRepN,trials_3.thisTrialN,trials_3.thisN,trials_3.thisIndex,trials_3.ran,key_resp_instr_Ishi.keys,key_resp_instr_Ishi.rt,Ishi_trial_keyresp.keys,Ishi_trial_keyresp.rt,Ishi_textbox.text,Ishi_loop.thisRepN,Ishi_loop.thisTrialN,Ishi_loop.thisN,Ishi_loop.thisIndex,Ishi_loop.ran,imageaddress,textbox.text,mouse_4.x,mouse_4.y,mouse_4.leftButton,mouse_4.midButton,mouse_4.rightButton,mouse_4.clicked_name,textbox_2.text,mouse_8.x,mouse_8.y,mouse_8.leftButton,mouse_8.midButton,mouse_8.rightButton,mouse_8.clicked_name,textbox_3.text,mouse_9.x,mouse_9.y,mouse_9.leftButton,mouse_9.midButton,mouse_9.rightButton,mouse_9.clicked_name,textbox_4.text,mouse_12.x,mouse_12.y,mouse_12.leftButton,mouse_12.midButton,mouse_12.rightButton,mouse_12.clicked_name,textbox_5.text,mouse_13.x,mouse_13.y,mouse_13.leftButton,mouse_13.midButton,mouse_13.rightButton,mouse_13.clicked_name,textbox_6.text,mouse_14.x,mouse_14.y,mouse_14.leftButton,mouse_14.midButton,mouse_14.rightButton,mouse_14.clicked_name,textbox_7.text,mouse_15.x,mouse_15.y,mouse_15.leftButton,mouse_15.midButton,mouse_15.rightButton,mouse_15.clicked_name
0,0,0,91,1,,615c453806ba1a372800c832,62bbf94902033623e37e4b30,2022-06-29_09h04.29.654,Colour_Asymmetry_Pilot,2022.1.3,Win32,60.0276127,62bbe60bf3d75ef465d3e404,,,,,,,,,,,,,,,,,,,,,,,,,,,,,,,,,,,,,,,,,,,,,,,,,,,,,,,,,,,,,,,,,,,,,,,,,,,,,,,,,,,,,,,,,,,,,,,,,,,,,,,,,,,,,,,,,,,,,,,,,,,,,,,,,,,,,,,,,,,,,,,,,,,,,,,,,,,,,,
0,1,1,22,1,,615c453806ba1a372800c832,62bbf94902033623e37e4b30,2022-06-29_09h04.29.654,Colour_Asymmetry_Pilot,2022.1.3,Win32,60.0276127,62bbe60bf3d75ef465d3e404,,,,,,,,,,,,,,,,,,,,,,,,,,,,,,,,,,,,,,,,,,,,,,,,,,,,,,,,,,,,,,,,,,,,,,,,,,,,,,,,,,,,,,,,,,,,,,,,,,,,,,,,,,,,,,,,,,,,,,,,,,,,,,,,,,,,,,,,,,,,,,,,,,,,,,,,,,,,,,
0,2,2,85,1,,615c453806ba1a372800c832,62bbf94902033623e37e4b30,2022-06-29_09h04.29.654,Colour_Asymmetry_Pilot,2022.1.3,Win32,60.0276127,62bbe60bf3d75ef465d3e404,,,,,,,,,,,,,,,,,,,,,,,,,,,,,,,,,,,,,,,,,,,,,,,,,,,,,,,,,,,,,,,,,,,,,,,,,,,,,,,,,,,,,,,,,,,,,,,,,,,,,,,,,,,,,,,,,,,,,,,,,,,,,,,,,,,,,,,,,,,,,,,,,,,,,,,,,,,,,,
0,3,3,26,1,,615c453806ba1a372800c832,62bbf94902033623e37e4b30,2022-06-29_09h04.29.654,Colour_Asymmetry_Pilot,2022.1.3,Win32,60.0276127,62bbe60bf3d75ef465d3e404,,,,,,,,,,,,,,,,,,,,,,,,,,,,,,,,,,,,,,,,,,,,,,,,,,,,,,,,,,,,,,,,,,,,,,,,,,,,,,,,,,,,,,,,,,,,,,,,,,,,,,,,,,,,,,,,,,,,,,,,,,,,,,,,,,,,,,,,,,,,,,,,,,,,,,,,,,,,,,
0,4,4,34,1,,615c453806ba1a372800c832,62bbf94902033623e37e4b30,2022-06-29_09h04.29.654,Colour_Asymmetry_Pilot,2022.1.3,Win32,60.0276127,62bbe60bf3d75ef465d3e404,,,,,,,,,,,,,,,,,,,,,,,,,,,,,,,,,,,,,,,,,,,,,,,,,,,,,,,,,,,,,,,,,,,,,,,,,,,,,,,,,,,,,,,,,,,,,,,,,,,,,,,,,,,,,,,,,,,,,,,,,,,,,,,,,,,,,,,,,,,,,,,,,,,,,,,,,,,,,,
0,5,5,54,1,,615c453806ba1a372800c832,62bbf94902033623e37e4b30,2022-06-29_09h04.29.654,Colour_Asymmetry_Pilot,2022.1.3,Win32,60.0276127,62bbe60bf3d75ef465d3e404,,,,,,,,,,,,,,,,,,,,,,,,,,,,,,,,,,,,,,,,,,,,,,,,,,,,,,,,,,,,,,,,,,,,,,,,,,,,,,,,,,,,,,,,,,,,,,,,,,,,,,,,,,,,,,,,,,,,,,,,,,,,,,,,,,,,,,,,,,,,,,,,,,,,,,,,,,,,,,
0,6,6,89,1,,615c453806ba1a372800c832,62bbf94902033623e37e4b30,2022-06-29_09h04.29.654,Colour_Asymmetry_Pilot,2022.1.3,Win32,60.0276127,62bbe60bf3d75ef465d3e404,,,,,,,,,,,,,,,,,,,,,,,,,,,,,,,,,,,,,,,,,,,,,,,,,,,,,,,,,,,,,,,,,,,,,,,,,,,,,,,,,,,,,,,,,,,,,,,,,,,,,,,,,,,,,,,,,,,,,,,,,,,,,,,,,,,,,,,,,,,,,,,,,,,,,,,,,,,,,,
0,7,7,47,1,,615c453806ba1a372800c832,62bbf94902033623e37e4b30,2022-06-29_09h04.29.654,Colour_Asymmetry_Pilot,2022.1.3,Win32,60.0276127,62bbe60bf3d75ef465d3e404,,,,,,,,,,,,,,,,,,,,,,,,,,,,,,,,,,,,,,,,,,,,,,,,,,,,,,,,,,,,,,,,,,,,,,,,,,,,,,,,,,,,,,,,,,,,,,,,,,,,,,,,,,,,,,,,,,,,,,,,,,,,,,,,,,,,,,,,,,,,,,,,,,,,,,,,,,,,,,
0,8,8,10,1,,615c453806ba1a372800c832,62bbf94902033623e37e4b30,2022-06-29_09h04.29.654,Colour_Asymmetry_Pilot,2022.1.3,Win32,60.0276127,62bbe60bf3d75ef465d3e404,,,,,,,,,,,,,,,,,,,,,,,,,,,,,,,,,,,,,,,,,,,,,,,,,,,,,,,,,,,,,,,,,,,,,,,,,,,,,,,,,,,,,,,,,,,,,,,,,,,,,,,,,,,,,,,,,,,,,,,,,,,,,,,,,,,,,,,,,,,,,,,,,,,,,,,,,,,,,,
0,9,9,57,1,,615c453806ba1a372800c832,62bbf94902033623e37e4b30,2022-06-29_09h04.29.654,Colour_Asymmetry_Pilot,2022.1.3,Win32,60.0276127,62bbe60bf3d75ef465d3e404,,,,,,,,,,,,,,,,,,,,,,,,,,,,,,,,,,,,,,,,,,,,,,,,,,,,,,,,,,,,,,,,,,,,,,,,,,,,,,,,,,,,,,,,,,,,,,,,,,,,,,,,,,,,,,,,,,,,,,,,,,,,,,,,,,,,,,,,,,,,,,,,,,,,,,,,,,,,,,
0,10,10,61,1,,615c453806ba1a372800c832,62bbf94902033623e37e4b30,2022-06-29_09h04.29.654,Colour_Asymmetry_Pilot,2022.1.3,Win32,60.0276127,62bbe60bf3d75ef465d3e404,,,,,,,,,,,,,,,,,,,,,,,,,,,,,,,,,,,,,,,,,,,,,,,,,,,,,,,,,,,,,,,,,,,,,,,,,,,,,,,,,,,,,,,,,,,,,,,,,,,,,,,,,,,,,,,,,,,,,,,,,,,,,,,,,,,,,,,,,,,,,,,,,,,,,,,,,,,,,,
0,11,11,29,1,,615c453806ba1a372800c832,62bbf94902033623e37e4b30,2022-06-29_09h04.29.654,Colour_Asymmetry_Pilot,2022.1.3,Win32,60.0276127,62bbe60bf3d75ef465d3e404,,,,,,,,,,,,,,,,,,,,,,,,,,,,,,,,,,,,,,,,,,,,,,,,,,,,,,,,,,,,,,,,,,,,,,,,,,,,,,,,,,,,,,,,,,,,,,,,,,,,,,,,,,,,,,,,,,,,,,,,,,,,,,,,,,,,,,,,,,,,,,,,,,,,,,,,,,,,,,
0,12,12,60,1,,615c453806ba1a372800c832,62bbf94902033623e37e4b30,2022-06-29_09h04.29.654,Colour_Asymmetry_Pilot,2022.1.3,Win32,60.0276127,62bbe60bf3d75ef465d3e404,,,,,,,,,,,,,,,,,,,,,,,,,,,,,,,,,,,,,,,,,,,,,,,,,,,,,,,,,,,,,,,,,,,,,,,,,,,,,,,,,,,,,,,,,,,,,,,,,,,,,,,,,,,,,,,,,,,,,,,,,,,,,,,,,,,,,,,,,,,,,,,,,,,,,,,,,,,,,,
0,13,13,88,1,,615c453806ba1a372800c832,62bbf94902033623e37e4b30,2022-06-29_09h04.29.654,Colour_Asymmetry_Pilot,2022.1.3,Win32,60.0276127,62bbe60bf3d75ef465d3e404,,,,,,,,,,,,,,,,,,,,,,,,,,,,,,,,,,,,,,,,,,,,,,,,,,,,,,,,,,,,,,,,,,,,,,,,,,,,,,,,,,,,,,,,,,,,,,,,,,,,,,,,,,,,,,,,,,,,,,,,,,,,,,,,,,,,,,,,,,,,,,,,,,,,,,,,,,,,,,
0,14,14,48,1,,615c453806ba1a372800c832,62bbf94902033623e37e4b30,2022-06-29_09h04.29.654,Colour_Asymmetry_Pilot,2022.1.3,Win32,60.0276127,62bbe60bf3d75ef465d3e404,,,,,,,,,,,,,,,,,,,,,,,,,,,,,,,,,,,,,,,,,,,,,,,,,,,,,,,,,,,,,,,,,,,,,,,,,,,,,,,,,,,,,,,,,,,,,,,,,,,,,,,,,,,,,,,,,,,,,,,,,,,,,,,,,,,,,,,,,,,,,,,,,,,,,,,,,,,,,,
0,15,15,24,1,,615c453806ba1a372800c832,62bbf94902033623e37e4b30,2022-06-29_09h04.29.654,Colour_Asymmetry_Pilot,2022.1.3,Win32,60.0276127,62bbe60bf3d75ef465d3e404,,,,,,,,,,,,,,,,,,,,,,,,,,,,,,,,,,,,,,,,,,,,,,,,,,,,,,,,,,,,,,,,,,,,,,,,,,,,,,,,,,,,,,,,,,,,,,,,,,,,,,,,,,,,,,,,,,,,,,,,,,,,,,,,,,,,,,,,,,,,,,,,,,,,,,,,,,,,,,
0,16,16,79,1,,615c453806ba1a372800c832,62bbf94902033623e37e4b30,2022-06-29_09h04.29.654,Colour_Asymmetry_Pilot,2022.1.3,Win32,60.0276127,62bbe60bf3d75ef465d3e404,,,,,,,,,,,,,,,,,,,,,,,,,,,,,,,,,,,,,,,,,,,,,,,,,,,,,,,,,,,,,,,,,,,,,,,,,,,,,,,,,,,,,,,,,,,,,,,,,,,,,,,,,,,,,,,,,,,,,,,,,,,,,,,,,,,,,,,,,,,,,,,,,,,,,,,,,,,,,,
0,17,17,1,1,,615c453806ba1a372800c832,62bbf94902033623e37e4b30,2022-06-29_09h04.29.654,Colour_Asymmetry_Pilot,2022.1.3,Win32,60.0276127,62bbe60bf3d75ef465d3e404,,,,,,,,,,,,,,,,,,,,,,,,,,,,,,,,,,,,,,,,,,,,,,,,,,,,,,,,,,,,,,,,,,,,,,,,,,,,,,,,,,,,,,,,,,,,,,,,,,,,,,,,,,,,,,,,,,,,,,,,,,,,,,,,,,,,,,,,,,,,,,,,,,,,,,,,,,,,,,
0,18,18,52,1,,615c453806ba1a372800c832,62bbf94902033623e37e4b30,2022-06-29_09h04.29.654,Colour_Asymmetry_Pilot,2022.1.3,Win32,60.0276127,62bbe60bf3d75ef465d3e404,,,,,,,,,,,,,,,,,,,,,,,,,,,,,,,,,,,,,,,,,,,,,,,,,,,,,,,,,,,,,,,,,,,,,,,,,,,,,,,,,,,,,,,,,,,,,,,,,,,,,,,,,,,,,,,,,,,,,,,,,,,,,,,,,,,,,,,,,,,,,,,,,,,,,,,,,,,,,,
0,19,19,18,1,,615c453806ba1a372800c832,62bbf94902033623e37e4b30,2022-06-29_09h04.29.654,Colour_Asymmetry_Pilot,2022.1.3,Win32,60.0276127,62bbe60bf3d75ef465d3e404,,,,,,,,,,,,,,,,,,,,,,,,,,,,,,,,,,,,,,,,,,,,,,,,,,,,,,,,,,,,,,,,,,,,,,,,,,,,,,,,,,,,,,,,,,,,,,,,,,,,,,,,,,,,,,,,,,,,,,,,,,,,,,,,,,,,,,,,,,,,,,,,,,,,,,,,,,,,,,
0,20,20,66,1,,615c453806ba1a372800c832,62bbf94902033623e37e4b30,2022-06-29_09h04.29.654,Colour_Asymmetry_Pilot,2022.1.3,Win32,60.0276127,62bbe60bf3d75ef465d3e404,,,,,,,,,,,,,,,,,,,,,,,,,,,,,,,,,,,,,,,,,,,,,,,,,,,,,,,,,,,,,,,,,,,,,,,,,,,,,,,,,,,,,,,,,,,,,,,,,,,,,,,,,,,,,,,,,,,,,,,,,,,,,,,,,,,,,,,,,,,,,,,,,,,,,,,,,,,,,,
0,21,21,70,1,,615c453806ba1a372800c832,62bbf94902033623e37e4b30,2022-06-29_09h04.29.654,Colour_Asymmetry_Pilot,2022.1.3,Win32,60.0276127,62bbe60bf3d75ef465d3e404,,,,,,,,,,,,,,,,,,,,,,,,,,,,,,,,,,,,,,,,,,,,,,,,,,,,,,,,,,,,,,,,,,,,,,,,,,,,,,,,,,,,,,,,,,,,,,,,,,,,,,,,,,,,,,,,,,,,,,,,,,,,,,,,,,,,,,,,,,,,,,,,,,,,,,,,,,,,,,
0,22,22,90,1,,615c453806ba1a372800c832,62bbf94902033623e37e4b30,2022-06-29_09h04.29.654,Colour_Asymmetry_Pilot,2022.1.3,Win32,60.0276127,62bbe60bf3d75ef465d3e404,,,,,,,,,,,,,,,,,,,,,,,,,,,,,,,,,,,,,,,,,,,,,,,,,,,,,,,,,,,,,,,,,,,,,,,,,,,,,,,,,,,,,,,,,,,,,,,,,,,,,,,,,,,,,,,,,,,,,,,,,,,,,,,,,,,,,,,,,,,,,,,,,,,,,,,,,,,,,,
0,23,23,44,1,,615c453806ba1a372800c832,62bbf94902033623e37e4b30,2022-06-29_09h04.29.654,Colour_Asymmetry_Pilot,2022.1.3,Win32,60.0276127,62bbe60bf3d75ef465d3e404,,,,,,,,,,,,,,,,,,,,,,,,,,,,,,,,,,,,,,,,,,,,,,,,,,,,,,,,,,,,,,,,,,,,,,,,,,,,,,,,,,,,,,,,,,,,,,,,,,,,,,,,,,,,,,,,,,,,,,,,,,,,,,,,,,,,,,,,,,,,,,,,,,,,,,,,,,,,,,
0,24,24,68,1,,615c453806ba1a372800c832,62bbf94902033623e37e4b30,2022-06-29_09h04.29.654,Colour_Asymmetry_Pilot,2022.1.3,Win32,60.0276127,62bbe60bf3d75ef465d3e404,,,,,,,,,,,,,,,,,,,,,,,,,,,,,,,,,,,,,,,,,,,,,,,,,,,,,,,,,,,,,,,,,,,,,,,,,,,,,,,,,,,,,,,,,,,,,,,,,,,,,,,,,,,,,,,,,,,,,,,,,,,,,,,,,,,,,,,,,,,,,,,,,,,,,,,,,,,,,,
0,25,25,46,1,,615c453806ba1a372800c832,62bbf94902033623e37e4b30,2022-06-29_09h04.29.654,Colour_Asymmetry_Pilot,2022.1.3,Win32,60.0276127,62bbe60bf3d75ef465d3e404,,,,,,,,,,,,,,,,,,,,,,,,,,,,,,,,,,,,,,,,,,,,,,,,,,,,,,,,,,,,,,,,,,,,,,,,,,,,,,,,,,,,,,,,,,,,,,,,,,,,,,,,,,,,,,,,,,,,,,,,,,,,,,,,,,,,,,,,,,,,,,,,,,,,,,,,,,,,,,
0,26,26,35,1,,615c453806ba1a372800c832,62bbf94902033623e37e4b30,2022-06-29_09h04.29.654,Colour_Asymmetry_Pilot,2022.1.3,Win32,60.0276127,62bbe60bf3d75ef465d3e404,,,,,,,,,,,,,,,,,,,,,,,,,,,,,,,,,,,,,,,,,,,,,,,,,,,,,,,,,,,,,,,,,,,,,,,,,,,,,,,,,,,,,,,,,,,,,,,,,,,,,,,,,,,,,,,,,,,,,,,,,,,,,,,,,,,,,,,,,,,,,,,,,,,,,,,,,,,,,,
0,27,27,28,1,,615c453806ba1a372800c832,62bbf94902033623e37e4b30,2022-06-29_09h04.29.654,Colour_Asymmetry_Pilot,2022.1.3,Win32,60.0276127,62bbe60bf3d75ef465d3e404,,,,,,,,,,,,,,,,,,,,,,,,,,,,,,,,,,,,,,,,,,,,,,,,,,,,,,,,,,,,,,,,,,,,,,,,,,,,,,,,,,,,,,,,,,,,,,,,,,,,,,,,,,,,,,,,,,,,,,,,,,,,,,,,,,,,,,,,,,,,,,,,,,,,,,,,,,,,,,
0,28,28,71,1,,615c453806ba1a372800c832,62bbf94902033623e37e4b30,2022-06-29_09h04.29.654,Colour_Asymmetry_Pilot,2022.1.3,Win32,60.0276127,62bbe60bf3d75ef465d3e404,,,,,,,,,,,,,,,,,,,,,,,,,,,,,,,,,,,,,,,,,,,,,,,,,,,,,,,,,,,,,,,,,,,,,,,,,,,,,,,,,,,,,,,,,,,,,,,,,,,,,,,,,,,,,,,,,,,,,,,,,,,,,,,,,,,,,,,,,,,,,,,,,,,,,,,,,,,,,,
0,29,29,9,1,,615c453806ba1a372800c832,62bbf94902033623e37e4b30,2022-06-29_09h04.29.654,Colour_Asymmetry_Pilot,2022.1.3,Win32,60.0276127,62bbe60bf3d75ef465d3e404,,,,,,,,,,,,,,,,,,,,,,,,,,,,,,,,,,,,,,,,,,,,,,,,,,,,,,,,,,,,,,,,,,,,,,,,,,,,,,,,,,,,,,,,,,,,,,,,,,,,,,,,,,,,,,,,,,,,,,,,,,,,,,,,,,,,,,,,,,,,,,,,,,,,,,,,,,,,,,
0,30,30,16,1,,615c453806ba1a372800c832,62bbf94902033623e37e4b30,2022-06-29_09h04.29.654,Colour_Asymmetry_Pilot,2022.1.3,Win32,60.0276127,62bbe60bf3d75ef465d3e404,,,,,,,,,,,,,,,,,,,,,,,,,,,,,,,,,,,,,,,,,,,,,,,,,,,,,,,,,,,,,,,,,,,,,,,,,,,,,,,,,,,,,,,,,,,,,,,,,,,,,,,,,,,,,,,,,,,,,,,,,,,,,,,,,,,,,,,,,,,,,,,,,,,,,,,,,,,,,,
0,31,31,80,1,,615c453806ba1a372800c832,62bbf94902033623e37e4b30,2022-06-29_09h04.29.654,Colour_Asymmetry_Pilot,2022.1.3,Win32,60.0276127,62bbe60bf3d75ef465d3e404,,,,,,,,,,,,,,,,,,,,,,,,,,,,,,,,,,,,,,,,,,,,,,,,,,,,,,,,,,,,,,,,,,,,,,,,,,,,,,,,,,,,,,,,,,,,,,,,,,,,,,,,,,,,,,,,,,,,,,,,,,,,,,,,,,,,,,,,,,,,,,,,,,,,,,,,,,,,,,
0,32,32,23,1,,615c453806ba1a372800c832,62bbf94902033623e37e4b30,2022-06-29_09h04.29.654,Colour_Asymmetry_Pilot,2022.1.3,Win32,60.0276127,62bbe60bf3d75ef465d3e404,,,,,,,,,,,,,,,,,,,,,,,,,,,,,,,,,,,,,,,,,,,,,,,,,,,,,,,,,,,,,,,,,,,,,,,,,,,,,,,,,,,,,,,,,,,,,,,,,,,,,,,,,,,,,,,,,,,,,,,,,,,,,,,,,,,,,,,,,,,,,,,,,,,,,,,,,,,,,,
0,33,33,14,1,,615c453806ba1a372800c832,62bbf94902033623e37e4b30,2022-06-29_09h04.29.654,Colour_Asymmetry_Pilot,2022.1.3,Win32,60.0276127,62bbe60bf3d75ef465d3e404,,,,,,,,,,,,,,,,,,,,,,,,,,,,,,,,,,,,,,,,,,,,,,,,,,,,,,,,,,,,,,,,,,,,,,,,,,,,,,,,,,,,,,,,,,,,,,,,,,,,,,,,,,,,,,,,,,,,,,,,,,,,,,,,,,,,,,,,,,,,,,,,,,,,,,,,,,,,,,
0,34,34,31,1,,615c453806ba1a372800c832,62bbf94902033623e37e4b30,2022-06-29_09h04.29.654,Colour_Asymmetry_Pilot,2022.1.3,Win32,60.0276127,62bbe60bf3d75ef465d3e404,,,,,,,,,,,,,,,,,,,,,,,,,,,,,,,,,,,,,,,,,,,,,,,,,,,,,,,,,,,,,,,,,,,,,,,,,,,,,,,,,,,,,,,,,,,,,,,,,,,,,,,,,,,,,,,,,,,,,,,,,,,,,,,,,,,,,,,,,,,,,,,,,,,,,,,,,,,,,,
0,35,35,32,1,,615c453806ba1a372800c832,62bbf94902033623e37e4b30,2022-06-29_09h04.29.654,Colour_Asymmetry_Pilot,2022.1.3,Win32,60.0276127,62bbe60bf3d75ef465d3e404,,,,,,,,,,,,,,,,,,,,,,,,,,,,,,,,,,,,,,,,,,,,,,,,,,,,,,,,,,,,,,,,,,,,,,,,,,,,,,,,,,,,,,,,,,,,,,,,,,,,,,,,,,,,,,,,,,,,,,,,,,,,,,,,,,,,,,,,,,,,,,,,,,,,,,,,,,,,,,
0,36,36,45,1,,615c453806ba1a372800c832,62bbf94902033623e37e4b30,2022-06-29_09h04.29.654,Colour_Asymmetry_Pilot,2022.1.3,Win32,60.0276127,62bbe60bf3d75ef465d3e404,,,,,,,,,,,,,,,,,,,,,,,,,,,,,,,,,,,,,,,,,,,,,,,,,,,,,,,,,,,,,,,,,,,,,,,,,,,,,,,,,,,,,,,,,,,,,,,,,,,,,,,,,,,,,,,,,,,,,,,,,,,,,,,,,,,,,,,,,,,,,,,,,,,,,,,,,,,,,,
0,37,37,84,1,,615c453806ba1a372800c832,62bbf94902033623e37e4b30,2022-06-29_09h04.29.654,Colour_Asymmetry_Pilot,2022.1.3,Win32,60.0276127,62bbe60bf3d75ef465d3e404,,,,,,,,,,,,,,,,,,,,,,,,,,,,,,,,,,,,,,,,,,,,,,,,,,,,,,,,,,,,,,,,,,,,,,,,,,,,,,,,,,,,,,,,,,,,,,,,,,,,,,,,,,,,,,,,,,,,,,,,,,,,,,,,,,,,,,,,,,,,,,,,,,,,,,,,,,,,,,
0,38,38,92,1,,615c453806ba1a372800c832,62bbf94902033623e37e4b30,2022-06-29_09h04.29.654,Colour_Asymmetry_Pilot,2022.1.3,Win32,60.0276127,62bbe60bf3d75ef465d3e404,,,,,,,,,,,,,,,,,,,,,,,,,,,,,,,,,,,,,,,,,,,,,,,,,,,,,,,,,,,,,,,,,,,,,,,,,,,,,,,,,,,,,,,,,,,,,,,,,,,,,,,,,,,,,,,,,,,,,,,,,,,,,,,,,,,,,,,,,,,,,,,,,,,,,,,,,,,,,,
0,39,39,86,1,,615c453806ba1a372800c832,62bbf94902033623e37e4b30,2022-06-29_09h04.29.654,Colour_Asymmetry_Pilot,2022.1.3,Win32,60.0276127,62bbe60bf3d75ef465d3e404,,,,,,,,,,,,,,,,,,,,,,,,,,,,,,,,,,,,,,,,,,,,,,,,,,,,,,,,,,,,,,,,,,,,,,,,,,,,,,,,,,,,,,,,,,,,,,,,,,,,,,,,,,,,,,,,,,,,,,,,,,,,,,,,,,,,,,,,,,,,,,,,,,,,,,,,,,,,,,
0,40,40,82,1,,615c453806ba1a372800c832,62bbf94902033623e37e4b30,2022-06-29_09h04.29.654,Colour_Asymmetry_Pilot,2022.1.3,Win32,60.0276127,62bbe60bf3d75ef465d3e404,,,,,,,,,,,,,,,,,,,,,,,,,,,,,,,,,,,,,,,,,,,,,,,,,,,,,,,,,,,,,,,,,,,,,,,,,,,,,,,,,,,,,,,,,,,,,,,,,,,,,,,,,,,,,,,,,,,,,,,,,,,,,,,,,,,,,,,,,,,,,,,,,,,,,,,,,,,,,,
0,41,41,6,1,,615c453806ba1a372800c832,62bbf94902033623e37e4b30,2022-06-29_09h04.29.654,Colour_Asymmetry_Pilot,2022.1.3,Win32,60.0276127,62bbe60bf3d75ef465d3e404,,,,,,,,,,,,,,,,,,,,,,,,,,,,,,,,,,,,,,,,,,,,,,,,,,,,,,,,,,,,,,,,,,,,,,,,,,,,,,,,,,,,,,,,,,,,,,,,,,,,,,,,,,,,,,,,,,,,,,,,,,,,,,,,,,,,,,,,,,,,,,,,,,,,,,,,,,,,,,
0,42,42,19,1,,615c453806ba1a372800c832,62bbf94902033623e37e4b30,2022-06-29_09h04.29.654,Colour_Asymmetry_Pilot,2022.1.3,Win32,60.0276127,62bbe60bf3d75ef465d3e404,,,,,,,,,,,,,,,,,,,,,,,,,,,,,,,,,,,,,,,,,,,,,,,,,,,,,,,,,,,,,,,,,,,,,,,,,,,,,,,,,,,,,,,,,,,,,,,,,,,,,,,,,,,,,,,,,,,,,,,,,,,,,,,,,,,,,,,,,,,,,,,,,,,,,,,,,,,,,,
0,43,43,25,1,,615c453806ba1a372800c832,62bbf94902033623e37e4b30,2022-06-29_09h04.29.654,Colour_Asymmetry_Pilot,2022.1.3,Win32,60.0276127,62bbe60bf3d75ef465d3e404,,,,,,,,,,,,,,,,,,,,,,,,,,,,,,,,,,,,,,,,,,,,,,,,,,,,,,,,,,,,,,,,,,,,,,,,,,,,,,,,,,,,,,,,,,,,,,,,,,,,,,,,,,,,,,,,,,,,,,,,,,,,,,,,,,,,,,,,,,,,,,,,,,,,,,,,,,,,,,
0,44,44,51,1,,615c453806ba1a372800c832,62bbf94902033623e37e4b30,2022-06-29_09h04.29.654,Colour_Asymmetry_Pilot,2022.1.3,Win32,60.0276127,62bbe60bf3d75ef465d3e404,,,,,,,,,,,,,,,,,,,,,,,,,,,,,,,,,,,,,,,,,,,,,,,,,,,,,,,,,,,,,,,,,,,,,,,,,,,,,,,,,,,,,,,,,,,,,,,,,,,,,,,,,,,,,,,,,,,,,,,,,,,,,,,,,,,,,,,,,,,,,,,,,,,,,,,,,,,,,,
0,45,45,55,1,,615c453806ba1a372800c832,62bbf94902033623e37e4b30,2022-06-29_09h04.29.654,Colour_Asymmetry_Pilot,2022.1.3,Win32,60.0276127,62bbe60bf3d75ef465d3e404,,,,,,,,,,,,,,,,,,,,,,,,,,,,,,,,,,,,,,,,,,,,,,,,,,,,,,,,,,,,,,,,,,,,,,,,,,,,,,,,,,,,,,,,,,,,,,,,,,,,,,,,,,,,,,,,,,,,,,,,,,,,,,,,,,,,,,,,,,,,,,,,,,,,,,,,,,,,,,
0,46,46,65,1,,615c453806ba1a372800c832,62bbf94902033623e37e4b30,2022-06-29_09h04.29.654,Colour_Asymmetry_Pilot,2022.1.3,Win32,60.0276127,62bbe60bf3d75ef465d3e404,,,,,,,,,,,,,,,,,,,,,,,,,,,,,,,,,,,,,,,,,,,,,,,,,,,,,,,,,,,,,,,,,,,,,,,,,,,,,,,,,,,,,,,,,,,,,,,,,,,,,,,,,,,,,,,,,,,,,,,,,,,,,,,,,,,,,,,,,,,,,,,,,,,,,,,,,,,,,,
0,47,47,83,1,,615c453806ba1a372800c832,62bbf94902033623e37e4b30,2022-06-29_09h04.29.654,Colour_Asymmetry_Pilot,2022.1.3,Win32,60.0276127,62bbe60bf3d75ef465d3e404,,,,,,,,,,,,,,,,,,,,,,,,,,,,,,,,,,,,,,,,,,,,,,,,,,,,,,,,,,,,,,,,,,,,,,,,,,,,,,,,,,,,,,,,,,,,,,,,,,,,,,,,,,,,,,,,,,,,,,,,,,,,,,,,,,,,,,,,,,,,,,,,,,,,,,,,,,,,,,
0,48,48,53,1,,615c453806ba1a372800c832,62bbf94902033623e37e4b30,2022-06-29_09h04.29.654,Colour_Asymmetry_Pilot,2022.1.3,Win32,60.0276127,62bbe60bf3d75ef465d3e404,,,,,,,,,,,,,,,,,,,,,,,,,,,,,,,,,,,,,,,,,,,,,,,,,,,,,,,,,,,,,,,,,,,,,,,,,,,,,,,,,,,,,,,,,,,,,,,,,,,,,,,,,,,,,,,,,,,,,,,,,,,,,,,,,,,,,,,,,,,,,,,,,,,,,,,,,,,,,,
0,49,49,64,1,,615c453806ba1a372800c832,62bbf94902033623e37e4b30,2022-06-29_09h04.29.654,Colour_Asymmetry_Pilot,2022.1.3,Win32,60.0276127,62bbe60bf3d75ef465d3e404,,,,,,,,,,,,,,,,,,,,,,,,,,,,,,,,,,,,,,,,,,,,,,,,,,,,,,,,,,,,,,,,,,,,,,,,,,,,,,,,,,,,,,,,,,,,,,,,,,,,,,,,,,,,,,,,,,,,,,,,,,,,,,,,,,,,,,,,,,,,,,,,,,,,,,,,,,,,,,
0,50,50,39,1,,615c453806ba1a372800c832,62bbf94902033623e37e4b30,2022-06-29_09h04.29.654,Colour_Asymmetry_Pilot,2022.1.3,Win32,60.0276127,62bbe60bf3d75ef465d3e404,,,,,,,,,,,,,,,,,,,,,,,,,,,,,,,,,,,,,,,,,,,,,,,,,,,,,,,,,,,,,,,,,,,,,,,,,,,,,,,,,,,,,,,,,,,,,,,,,,,,,,,,,,,,,,,,,,,,,,,,,,,,,,,,,,,,,,,,,,,,,,,,,,,,,,,,,,,,,,
0,51,51,62,1,,615c453806ba1a372800c832,62bbf94902033623e37e4b30,2022-06-29_09h04.29.654,Colour_Asymmetry_Pilot,2022.1.3,Win32,60.0276127,62bbe60bf3d75ef465d3e404,,,,,,,,,,,,,,,,,,,,,,,,,,,,,,,,,,,,,,,,,,,,,,,,,,,,,,,,,,,,,,,,,,,,,,,,,,,,,,,,,,,,,,,,,,,,,,,,,,,,,,,,,,,,,,,,,,,,,,,,,,,,,,,,,,,,,,,,,,,,,,,,,,,,,,,,,,,,,,
0,52,52,38,1,,615c453806ba1a372800c832,62bbf94902033623e37e4b30,2022-06-29_09h04.29.654,Colour_Asymmetry_Pilot,2022.1.3,Win32,60.0276127,62bbe60bf3d75ef465d3e404,,,,,,,,,,,,,,,,,,,,,,,,,,,,,,,,,,,,,,,,,,,,,,,,,,,,,,,,,,,,,,,,,,,,,,,,,,,,,,,,,,,,,,,,,,,,,,,,,,,,,,,,,,,,,,,,,,,,,,,,,,,,,,,,,,,,,,,,,,,,,,,,,,,,,,,,,,,,,,
0,53,53,72,1,,615c453806ba1a372800c832,62bbf94902033623e37e4b30,2022-06-29_09h04.29.654,Colour_Asymmetry_Pilot,2022.1.3,Win32,60.0276127,62bbe60bf3d75ef465d3e404,,,,,,,,,,,,,,,,,,,,,,,,,,,,,,,,,,,,,,,,,,,,,,,,,,,,,,,,,,,,,,,,,,,,,,,,,,,,,,,,,,,,,,,,,,,,,,,,,,,,,,,,,,,,,,,,,,,,,,,,,,,,,,,,,,,,,,,,,,,,,,,,,,,,,,,,,,,,,,
0,54,54,7,1,,615c453806ba1a372800c832,62bbf94902033623e37e4b30,2022-06-29_09h04.29.654,Colour_Asymmetry_Pilot,2022.1.3,Win32,60.0276127,62bbe60bf3d75ef465d3e404,,,,,,,,,,,,,,,,,,,,,,,,,,,,,,,,,,,,,,,,,,,,,,,,,,,,,,,,,,,,,,,,,,,,,,,,,,,,,,,,,,,,,,,,,,,,,,,,,,,,,,,,,,,,,,,,,,,,,,,,,,,,,,,,,,,,,,,,,,,,,,,,,,,,,,,,,,,,,,
0,55,55,50,1,,615c453806ba1a372800c832,62bbf94902033623e37e4b30,2022-06-29_09h04.29.654,Colour_Asymmetry_Pilot,2022.1.3,Win32,60.0276127,62bbe60bf3d75ef465d3e404,,,,,,,,,,,,,,,,,,,,,,,,,,,,,,,,,,,,,,,,,,,,,,,,,,,,,,,,,,,,,,,,,,,,,,,,,,,,,,,,,,,,,,,,,,,,,,,,,,,,,,,,,,,,,,,,,,,,,,,,,,,,,,,,,,,,,,,,,,,,,,,,,,,,,,,,,,,,,,
0,56,56,69,1,,615c453806ba1a372800c832,62bbf94902033623e37e4b30,2022-06-29_09h04.29.654,Colour_Asymmetry_Pilot,2022.1.3,Win32,60.0276127,62bbe60bf3d75ef465d3e404,,,,,,,,,,,,,,,,,,,,,,,,,,,,,,,,,,,,,,,,,,,,,,,,,,,,,,,,,,,,,,,,,,,,,,,,,,,,,,,,,,,,,,,,,,,,,,,,,,,,,,,,,,,,,,,,,,,,,,,,,,,,,,,,,,,,,,,,,,,,,,,,,,,,,,,,,,,,,,
0,57,57,8,1,,615c453806ba1a372800c832,62bbf94902033623e37e4b30,2022-06-29_09h04.29.654,Colour_Asymmetry_Pilot,2022.1.3,Win32,60.0276127,62bbe60bf3d75ef465d3e404,,,,,,,,,,,,,,,,,,,,,,,,,,,,,,,,,,,,,,,,,,,,,,,,,,,,,,,,,,,,,,,,,,,,,,,,,,,,,,,,,,,,,,,,,,,,,,,,,,,,,,,,,,,,,,,,,,,,,,,,,,,,,,,,,,,,,,,,,,,,,,,,,,,,,,,,,,,,,,
0,58,58,37,1,,615c453806ba1a372800c832,62bbf94902033623e37e4b30,2022-06-29_09h04.29.654,Colour_Asymmetry_Pilot,2022.1.3,Win32,60.0276127,62bbe60bf3d75ef465d3e404,,,,,,,,,,,,,,,,,,,,,,,,,,,,,,,,,,,,,,,,,,,,,,,,,,,,,,,,,,,,,,,,,,,,,,,,,,,,,,,,,,,,,,,,,,,,,,,,,,,,,,,,,,,,,,,,,,,,,,,,,,,,,,,,,,,,,,,,,,,,,,,,,,,,,,,,,,,,,,
0,59,59,56,1,,615c453806ba1a372800c832,62bbf94902033623e37e4b30,2022-06-29_09h04.29.654,Colour_Asymmetry_Pilot,2022.1.3,Win32,60.0276127,62bbe60bf3d75ef465d3e404,,,,,,,,,,,,,,,,,,,,,,,,,,,,,,,,,,,,,,,,,,,,,,,,,,,,,,,,,,,,,,,,,,,,,,,,,,,,,,,,,,,,,,,,,,,,,,,,,,,,,,,,,,,,,,,,,,,,,,,,,,,,,,,,,,,,,,,,,,,,,,,,,,,,,,,,,,,,,,
0,60,60,12,1,,615c453806ba1a372800c832,62bbf94902033623e37e4b30,2022-06-29_09h04.29.654,Colour_Asymmetry_Pilot,2022.1.3,Win32,60.0276127,62bbe60bf3d75ef465d3e404,,,,,,,,,,,,,,,,,,,,,,,,,,,,,,,,,,,,,,,,,,,,,,,,,,,,,,,,,,,,,,,,,,,,,,,,,,,,,,,,,,,,,,,,,,,,,,,,,,,,,,,,,,,,,,,,,,,,,,,,,,,,,,,,,,,,,,,,,,,,,,,,,,,,,,,,,,,,,,
0,61,61,40,1,,615c453806ba1a372800c832,62bbf94902033623e37e4b30,2022-06-29_09h04.29.654,Colour_Asymmetry_Pilot,2022.1.3,Win32,60.0276127,62bbe60bf3d75ef465d3e404,,,,,,,,,,,,,,,,,,,,,,,,,,,,,,,,,,,,,,,,,,,,,,,,,,,,,,,,,,,,,,,,,,,,,,,,,,,,,,,,,,,,,,,,,,,,,,,,,,,,,,,,,,,,,,,,,,,,,,,,,,,,,,,,,,,,,,,,,,,,,,,,,,,,,,,,,,,,,,
0,62,62,30,1,,615c453806ba1a372800c832,62bbf94902033623e37e4b30,2022-06-29_09h04.29.654,Colour_Asymmetry_Pilot,2022.1.3,Win32,60.0276127,62bbe60bf3d75ef465d3e404,,,,,,,,,,,,,,,,,,,,,,,,,,,,,,,,,,,,,,,,,,,,,,,,,,,,,,,,,,,,,,,,,,,,,,,,,,,,,,,,,,,,,,,,,,,,,,,,,,,,,,,,,,,,,,,,,,,,,,,,,,,,,,,,,,,,,,,,,,,,,,,,,,,,,,,,,,,,,,
0,63,63,49,1,,615c453806ba1a372800c832,62bbf94902033623e37e4b30,2022-06-29_09h04.29.654,Colour_Asymmetry_Pilot,2022.1.3,Win32,60.0276127,62bbe60bf3d75ef465d3e404,,,,,,,,,,,,,,,,,,,,,,,,,,,,,,,,,,,,,,,,,,,,,,,,,,,,,,,,,,,,,,,,,,,,,,,,,,,,,,,,,,,,,,,,,,,,,,,,,,,,,,,,,,,,,,,,,,,,,,,,,,,,,,,,,,,,,,,,,,,,,,,,,,,,,,,,,,,,,,
0,64,64,2,1,,615c453806ba1a372800c832,62bbf94902033623e37e4b30,2022-06-29_09h04.29.654,Colour_Asymmetry_Pilot,2022.1.3,Win32,60.0276127,62bbe60bf3d75ef465d3e404,,,,,,,,,,,,,,,,,,,,,,,,,,,,,,,,,,,,,,,,,,,,,,,,,,,,,,,,,,,,,,,,,,,,,,,,,,,,,,,,,,,,,,,,,,,,,,,,,,,,,,,,,,,,,,,,,,,,,,,,,,,,,,,,,,,,,,,,,,,,,,,,,,,,,,,,,,,,,,
0,65,65,33,1,,615c453806ba1a372800c832,62bbf94902033623e37e4b30,2022-06-29_09h04.29.654,Colour_Asymmetry_Pilot,2022.1.3,Win32,60.0276127,62bbe60bf3d75ef465d3e404,,,,,,,,,,,,,,,,,,,,,,,,,,,,,,,,,,,,,,,,,,,,,,,,,,,,,,,,,,,,,,,,,,,,,,,,,,,,,,,,,,,,,,,,,,,,,,,,,,,,,,,,,,,,,,,,,,,,,,,,,,,,,,,,,,,,,,,,,,,,,,,,,,,,,,,,,,,,,,
0,66,66,77,1,,615c453806ba1a372800c832,62bbf94902033623e37e4b30,2022-06-29_09h04.29.654,Colour_Asymmetry_Pilot,2022.1.3,Win32,60.0276127,62bbe60bf3d75ef465d3e404,,,,,,,,,,,,,,,,,,,,,,,,,,,,,,,,,,,,,,,,,,,,,,,,,,,,,,,,,,,,,,,,,,,,,,,,,,,,,,,,,,,,,,,,,,,,,,,,,,,,,,,,,,,,,,,,,,,,,,,,,,,,,,,,,,,,,,,,,,,,,,,,,,,,,,,,,,,,,,
0,67,67,15,1,,615c453806ba1a372800c832,62bbf94902033623e37e4b30,2022-06-29_09h04.29.654,Colour_Asymmetry_Pilot,2022.1.3,Win32,60.0276127,62bbe60bf3d75ef465d3e404,,,,,,,,,,,,,,,,,,,,,,,,,,,,,,,,,,,,,,,,,,,,,,,,,,,,,,,,,,,,,,,,,,,,,,,,,,,,,,,,,,,,,,,,,,,,,,,,,,,,,,,,,,,,,,,,,,,,,,,,,,,,,,,,,,,,,,,,,,,,,,,,,,,,,,,,,,,,,,
0,68,68,74,1,,615c453806ba1a372800c832,62bbf94902033623e37e4b30,2022-06-29_09h04.29.654,Colour_Asymmetry_Pilot,2022.1.3,Win32,60.0276127,62bbe60bf3d75ef465d3e404,,,,,,,,,,,,,,,,,,,,,,,,,,,,,,,,,,,,,,,,,,,,,,,,,,,,,,,,,,,,,,,,,,,,,,,,,,,,,,,,,,,,,,,,,,,,,,,,,,,,,,,,,,,,,,,,,,,,,,,,,,,,,,,,,,,,,,,,,,,,,,,,,,,,,,,,,,,,,,
0,69,69,4,1,,615c453806ba1a372800c832,62bbf94902033623e37e4b30,2022-06-29_09h04.29.654,Colour_Asymmetry_Pilot,2022.1.3,Win32,60.0276127,62bbe60bf3d75ef465d3e404,,,,,,,,,,,,,,,,,,,,,,,,,,,,,,,,,,,,,,,,,,,,,,,,,,,,,,,,,,,,,,,,,,,,,,,,,,,,,,,,,,,,,,,,,,,,,,,,,,,,,,,,,,,,,,,,,,,,,,,,,,,,,,,,,,,,,,,,,,,,,,,,,,,,,,,,,,,,,,
0,70,70,11,1,,615c453806ba1a372800c832,62bbf94902033623e37e4b30,2022-06-29_09h04.29.654,Colour_Asymmetry_Pilot,2022.1.3,Win32,60.0276127,62bbe60bf3d75ef465d3e404,,,,,,,,,,,,,,,,,,,,,,,,,,,,,,,,,,,,,,,,,,,,,,,,,,,,,,,,,,,,,,,,,,,,,,,,,,,,,,,,,,,,,,,,,,,,,,,,,,,,,,,,,,,,,,,,,,,,,,,,,,,,,,,,,,,,,,,,,,,,,,,,,,,,,,,,,,,,,,
0,71,71,36,1,,615c453806ba1a372800c832,62bbf94902033623e37e4b30,2022-06-29_09h04.29.654,Colour_Asymmetry_Pilot,2022.1.3,Win32,60.0276127,62bbe60bf3d75ef465d3e404,,,,,,,,,,,,,,,,,,,,,,,,,,,,,,,,,,,,,,,,,,,,,,,,,,,,,,,,,,,,,,,,,,,,,,,,,,,,,,,,,,,,,,,,,,,,,,,,,,,,,,,,,,,,,,,,,,,,,,,,,,,,,,,,,,,,,,,,,,,,,,,,,,,,,,,,,,,,,,
0,72,72,41,1,,615c453806ba1a372800c832,62bbf94902033623e37e4b30,2022-06-29_09h04.29.654,Colour_Asymmetry_Pilot,2022.1.3,Win32,60.0276127,62bbe60bf3d75ef465d3e404,,,,,,,,,,,,,,,,,,,,,,,,,,,,,,,,,,,,,,,,,,,,,,,,,,,,,,,,,,,,,,,,,,,,,,,,,,,,,,,,,,,,,,,,,,,,,,,,,,,,,,,,,,,,,,,,,,,,,,,,,,,,,,,,,,,,,,,,,,,,,,,,,,,,,,,,,,,,,,
0,73,73,78,1,,615c453806ba1a372800c832,62bbf94902033623e37e4b30,2022-06-29_09h04.29.654,Colour_Asymmetry_Pilot,2022.1.3,Win32,60.0276127,62bbe60bf3d75ef465d3e404,,,,,,,,,,,,,,,,,,,,,,,,,,,,,,,,,,,,,,,,,,,,,,,,,,,,,,,,,,,,,,,,,,,,,,,,,,,,,,,,,,,,,,,,,,,,,,,,,,,,,,,,,,,,,,,,,,,,,,,,,,,,,,,,,,,,,,,,,,,,,,,,,,,,,,,,,,,,,,
0,74,74,75,1,,615c453806ba1a372800c832,62bbf94902033623e37e4b30,2022-06-29_09h04.29.654,Colour_Asymmetry_Pilot,2022.1.3,Win32,60.0276127,62bbe60bf3d75ef465d3e404,,,,,,,,,,,,,,,,,,,,,,,,,,,,,,,,,,,,,,,,,,,,,,,,,,,,,,,,,,,,,,,,,,,,,,,,,,,,,,,,,,,,,,,,,,,,,,,,,,,,,,,,,,,,,,,,,,,,,,,,,,,,,,,,,,,,,,,,,,,,,,,,,,,,,,,,,,,,,,
0,75,75,21,1,,615c453806ba1a372800c832,62bbf94902033623e37e4b30,2022-06-29_09h04.29.654,Colour_Asymmetry_Pilot,2022.1.3,Win32,60.0276127,62bbe60bf3d75ef465d3e404,,,,,,,,,,,,,,,,,,,,,,,,,,,,,,,,,,,,,,,,,,,,,,,,,,,,,,,,,,,,,,,,,,,,,,,,,,,,,,,,,,,,,,,,,,,,,,,,,,,,,,,,,,,,,,,,,,,,,,,,,,,,,,,,,,,,,,,,,,,,,,,,,,,,,,,,,,,,,,
0,76,76,0,1,,615c453806ba1a372800c832,62bbf94902033623e37e4b30,2022-06-29_09h04.29.654,Colour_Asymmetry_Pilot,2022.1.3,Win32,60.0276127,62bbe60bf3d75ef465d3e404,,,,,,,,,,,,,,,,,,,,,,,,,,,,,,,,,,,,,,,,,,,,,,,,,,,,,,,,,,,,,,,,,,,,,,,,,,,,,,,,,,,,,,,,,,,,,,,,,,,,,,,,,,,,,,,,,,,,,,,,,,,,,,,,,,,,,,,,,,,,,,,,,,,,,,,,,,,,,,
0,77,77,43,1,,615c453806ba1a372800c832,62bbf94902033623e37e4b30,2022-06-29_09h04.29.654,Colour_Asymmetry_Pilot,2022.1.3,Win32,60.0276127,62bbe60bf3d75ef465d3e404,,,,,,,,,,,,,,,,,,,,,,,,,,,,,,,,,,,,,,,,,,,,,,,,,,,,,,,,,,,,,,,,,,,,,,,,,,,,,,,,,,,,,,,,,,,,,,,,,,,,,,,,,,,,,,,,,,,,,,,,,,,,,,,,,,,,,,,,,,,,,,,,,,,,,,,,,,,,,,
0,78,78,87,1,,615c453806ba1a372800c832,62bbf94902033623e37e4b30,2022-06-29_09h04.29.654,Colour_Asymmetry_Pilot,2022.1.3,Win32,60.0276127,62bbe60bf3d75ef465d3e404,,,,,,,,,,,,,,,,,,,,,,,,,,,,,,,,,,,,,,,,,,,,,,,,,,,,,,,,,,,,,,,,,,,,,,,,,,,,,,,,,,,,,,,,,,,,,,,,,,,,,,,,,,,,,,,,,,,,,,,,,,,,,,,,,,,,,,,,,,,,,,,,,,,,,,,,,,,,,,
0,79,79,13,1,,615c453806ba1a372800c832,62bbf94902033623e37e4b30,2022-06-29_09h04.29.654,Colour_Asymmetry_Pilot,2022.1.3,Win32,60.0276127,62bbe60bf3d75ef465d3e404,,,,,,,,,,,,,,,,,,,,,,,,,,,,,,,,,,,,,,,,,,,,,,,,,,,,,,,,,,,,,,,,,,,,,,,,,,,,,,,,,,,,,,,,,,,,,,,,,,,,,,,,,,,,,,,,,,,,,,,,,,,,,,,,,,,,,,,,,,,,,,,,,,,,,,,,,,,,,,
0,80,80,59,1,,615c453806ba1a372800c832,62bbf94902033623e37e4b30,2022-06-29_09h04.29.654,Colour_Asymmetry_Pilot,2022.1.3,Win32,60.0276127,62bbe60bf3d75ef465d3e404,,,,,,,,,,,,,,,,,,,,,,,,,,,,,,,,,,,,,,,,,,,,,,,,,,,,,,,,,,,,,,,,,,,,,,,,,,,,,,,,,,,,,,,,,,,,,,,,,,,,,,,,,,,,,,,,,,,,,,,,,,,,,,,,,,,,,,,,,,,,,,,,,,,,,,,,,,,,,,
0,81,81,27,1,,615c453806ba1a372800c832,62bbf94902033623e37e4b30,2022-06-29_09h04.29.654,Colour_Asymmetry_Pilot,2022.1.3,Win32,60.0276127,62bbe60bf3d75ef465d3e404,,,,,,,,,,,,,,,,,,,,,,,,,,,,,,,,,,,,,,,,,,,,,,,,,,,,,,,,,,,,,,,,,,,,,,,,,,,,,,,,,,,,,,,,,,,,,,,,,,,,,,,,,,,,,,,,,,,,,,,,,,,,,,,,,,,,,,,,,,,,,,,,,,,,,,,,,,,,,,
0,82,82,17,1,,615c453806ba1a372800c832,62bbf94902033623e37e4b30,2022-06-29_09h04.29.654,Colour_Asymmetry_Pilot,2022.1.3,Win32,60.0276127,62bbe60bf3d75ef465d3e404,,,,,,,,,,,,,,,,,,,,,,,,,,,,,,,,,,,,,,,,,,,,,,,,,,,,,,,,,,,,,,,,,,,,,,,,,,,,,,,,,,,,,,,,,,,,,,,,,,,,,,,,,,,,,,,,,,,,,,,,,,,,,,,,,,,,,,,,,,,,,,,,,,,,,,,,,,,,,,
0,83,83,42,1,,615c453806ba1a372800c832,62bbf94902033623e37e4b30,2022-06-29_09h04.29.654,Colour_Asymmetry_Pilot,2022.1.3,Win32,60.0276127,62bbe60bf3d75ef465d3e404,,,,,,,,,,,,,,,,,,,,,,,,,,,,,,,,,,,,,,,,,,,,,,,,,,,,,,,,,,,,,,,,,,,,,,,,,,,,,,,,,,,,,,,,,,,,,,,,,,,,,,,,,,,,,,,,,,,,,,,,,,,,,,,,,,,,,,,,,,,,,,,,,,,,,,,,,,,,,,
0,84,84,67,1,,615c453806ba1a372800c832,62bbf94902033623e37e4b30,2022-06-29_09h04.29.654,Colour_Asymmetry_Pilot,2022.1.3,Win32,60.0276127,62bbe60bf3d75ef465d3e404,,,,,,,,,,,,,,,,,,,,,,,,,,,,,,,,,,,,,,,,,,,,,,,,,,,,,,,,,,,,,,,,,,,,,,,,,,,,,,,,,,,,,,,,,,,,,,,,,,,,,,,,,,,,,,,,,,,,,,,,,,,,,,,,,,,,,,,,,,,,,,,,,,,,,,,,,,,,,,
0,85,85,73,1,,615c453806ba1a372800c832,62bbf94902033623e37e4b30,2022-06-29_09h04.29.654,Colour_Asymmetry_Pilot,2022.1.3,Win32,60.0276127,62bbe60bf3d75ef465d3e404,,,,,,,,,,,,,,,,,,,,,,,,,,,,,,,,,,,,,,,,,,,,,,,,,,,,,,,,,,,,,,,,,,,,,,,,,,,,,,,,,,,,,,,,,,,,,,,,,,,,,,,,,,,,,,,,,,,,,,,,,,,,,,,,,,,,,,,,,,,,,,,,,,,,,,,,,,,,,,
0,86,86,20,1,,615c453806ba1a372800c832,62bbf94902033623e37e4b30,2022-06-29_09h04.29.654,Colour_Asymmetry_Pilot,2022.1.3,Win32,60.0276127,62bbe60bf3d75ef465d3e404,,,,,,,,,,,,,,,,,,,,,,,,,,,,,,,,,,,,,,,,,,,,,,,,,,,,,,,,,,,,,,,,,,,,,,,,,,,,,,,,,,,,,,,,,,,,,,,,,,,,,,,,,,,,,,,,,,,,,,,,,,,,,,,,,,,,,,,,,,,,,,,,,,,,,,,,,,,,,,
0,87,87,63,1,,615c453806ba1a372800c832,62bbf94902033623e37e4b30,2022-06-29_09h04.29.654,Colour_Asymmetry_Pilot,2022.1.3,Win32,60.0276127,62bbe60bf3d75ef465d3e404,,,,,,,,,,,,,,,,,,,,,,,,,,,,,,,,,,,,,,,,,,,,,,,,,,,,,,,,,,,,,,,,,,,,,,,,,,,,,,,,,,,,,,,,,,,,,,,,,,,,,,,,,,,,,,,,,,,,,,,,,,,,,,,,,,,,,,,,,,,,,,,,,,,,,,,,,,,,,,
0,88,88,5,1,,615c453806ba1a372800c832,62bbf94902033623e37e4b30,2022-06-29_09h04.29.654,Colour_Asymmetry_Pilot,2022.1.3,Win32,60.0276127,62bbe60bf3d75ef465d3e404,,,,,,,,,,,,,,,,,,,,,,,,,,,,,,,,,,,,,,,,,,,,,,,,,,,,,,,,,,,,,,,,,,,,,,,,,,,,,,,,,,,,,,,,,,,,,,,,,,,,,,,,,,,,,,,,,,,,,,,,,,,,,,,,,,,,,,,,,,,,,,,,,,,,,,,,,,,,,,
0,89,89,76,1,,615c453806ba1a372800c832,62bbf94902033623e37e4b30,2022-06-29_09h04.29.654,Colour_Asymmetry_Pilot,2022.1.3,Win32,60.0276127,62bbe60bf3d75ef465d3e404,,,,,,,,,,,,,,,,,,,,,,,,,,,,,,,,,,,,,,,,,,,,,,,,,,,,,,,,,,,,,,,,,,,,,,,,,,,,,,,,,,,,,,,,,,,,,,,,,,,,,,,,,,,,,,,,,,,,,,,,,,,,,,,,,,,,,,,,,,,,,,,,,,,,,,,,,,,,,,
0,90,90,81,1,,615c453806ba1a372800c832,62bbf94902033623e37e4b30,2022-06-29_09h04.29.654,Colour_Asymmetry_Pilot,2022.1.3,Win32,60.0276127,62bbe60bf3d75ef465d3e404,,,,,,,,,,,,,,,,,,,,,,,,,,,,,,,,,,,,,,,,,,,,,,,,,,,,,,,,,,,,,,,,,,,,,,,,,,,,,,,,,,,,,,,,,,,,,,,,,,,,,,,,,,,,,,,,,,,,,,,,,,,,,,,,,,,,,,,,,,,,,,,,,,,,,,,,,,,,,,
0,91,91,3,1,,615c453806ba1a372800c832,62bbf94902033623e37e4b30,2022-06-29_09h04.29.654,Colour_Asymmetry_Pilot,2022.1.3,Win32,60.0276127,62bbe60bf3d75ef465d3e404,,,,,,,,,,,,,,,,,,,,,,,,,,,,,,,,,,,,,,,,,,,,,,,,,,,,,,,,,,,,,,,,,,,,,,,,,,,,,,,,,,,,,,,,,,,,,,,,,,,,,,,,,,,,,,,,,,,,,,,,,,,,,,,,,,,,,,,,,,,,,,,,,,,,,,,,,,,,,,
0,92,92,58,1,,615c453806ba1a372800c832,62bbf94902033623e37e4b30,2022-06-29_09h04.29.654,Colour_Asymmetry_Pilot,2022.1.3,Win32,60.0276127,62bbe60bf3d75ef465d3e404,,,,,,,,,,,,,,,,,,,,,,,,,,,,,,,,,,,,,,,,,,,,,,,,,,,,,,,,,,,,,,,,,,,,,,,,,,,,,,,,,,,,,,,,,,,,,,,,,,,,,,,,,,,,,,,,,,,,,,,,,,,,,,,,,,,,,,,,,,,,,,,,,,,,,,,,,,,,,,
,,,,,,615c453806ba1a372800c832,62bbf94902033623e37e4b30,2022-06-29_09h04.29.654,Colour_Asymmetry_Pilot,2022.1.3,Win32,60.0276127,62bbe60bf3d75ef465d3e404,0,0,0,49,1,onethree,,,,,,,,,,,,,,,,,,,,,,,,,,,,,,,,,,,,,,,,,,,,,,,,,,,,,,,,,,,,,,,,,,,,,,,,,,,,,,,,,,,,,,,,,,,,,,,,,,,,,,,,,,,,,,,,,,,,,,,,,,,,,,,,,,,,,,,,,,,,,,,,,,,,,,,,
,,,,,,615c453806ba1a372800c832,62bbf94902033623e37e4b30,2022-06-29_09h04.29.654,Colour_Asymmetry_Pilot,2022.1.3,Win32,60.0276127,62bbe60bf3d75ef465d3e404,0,1,1,15,1,fourthree,,,,,,,,,,,,,,,,,,,,,,,,,,,,,,,,,,,,,,,,,,,,,,,,,,,,,,,,,,,,,,,,,,,,,,,,,,,,,,,,,,,,,,,,,,,,,,,,,,,,,,,,,,,,,,,,,,,,,,,,,,,,,,,,,,,,,,,,,,,,,,,,,,,,,,,,
,,,,,,615c453806ba1a372800c832,62bbf94902033623e37e4b30,2022-06-29_09h04.29.654,Colour_Asymmetry_Pilot,2022.1.3,Win32,60.0276127,62bbe60bf3d75ef465d3e404,0,2,2,112,1,onetwo,,,,,,,,,,,,,,,,,,,,,,,,,,,,,,,,,,,,,,,,,,,,,,,,,,,,,,,,,,,,,,,,,,,,,,,,,,,,,,,,,,,,,,,,,,,,,,,,,,,,,,,,,,,,,,,,,,,,,,,,,,,,,,,,,,,,,,,,,,,,,,,,,,,,,,,,
,,,,,,615c453806ba1a372800c832,62bbf94902033623e37e4b30,2022-06-29_09h04.29.654,Colour_Asymmetry_Pilot,2022.1.3,Win32,60.0276127,62bbe60bf3d75ef465d3e404,0,3,3,80,1,onetwo,,,,,,,,,,,,,,,,,,,,,,,,,,,,,,,,,,,,,,,,,,,,,,,,,,,,,,,,,,,,,,,,,,,,,,,,,,,,,,,,,,,,,,,,,,,,,,,,,,,,,,,,,,,,,,,,,,,,,,,,,,,,,,,,,,,,,,,,,,,,,,,,,,,,,,,,
,,,,,,615c453806ba1a372800c832,62bbf94902033623e37e4b30,2022-06-29_09h04.29.654,Colour_Asymmetry_Pilot,2022.1.3,Win32,60.0276127,62bbe60bf3d75ef465d3e404,0,4,4,101,1,threefour,,,,,,,,,,,,,,,,,,,,,,,,,,,,,,,,,,,,,,,,,,,,,,,,,,,,,,,,,,,,,,,,,,,,,,,,,,,,,,,,,,,,,,,,,,,,,,,,,,,,,,,,,,,,,,,,,,,,,,,,,,,,,,,,,,,,,,,,,,,,,,,,,,,,,,,,
,,,,,,615c453806ba1a372800c832,62bbf94902033623e37e4b30,2022-06-29_09h04.29.654,Colour_Asymmetry_Pilot,2022.1.3,Win32,60.0276127,62bbe60bf3d75ef465d3e404,0,5,5,77,1,threefour,,,,,,,,,,,,,,,,,,,,,,,,,,,,,,,,,,,,,,,,,,,,,,,,,,,,,,,,,,,,,,,,,,,,,,,,,,,,,,,,,,,,,,,,,,,,,,,,,,,,,,,,,,,,,,,,,,,,,,,,,,,,,,,,,,,,,,,,,,,,,,,,,,,,,,,,
,,,,,,615c453806ba1a372800c832,62bbf94902033623e37e4b30,2022-06-29_09h04.29.654,Colour_Asymmetry_Pilot,2022.1.3,Win32,60.0276127,62bbe60bf3d75ef465d3e404,0,6,6,135,1,fourthree,,,,,,,,,,,,,,,,,,,,,,,,,,,,,,,,,,,,,,,,,,,,,,,,,,,,,,,,,,,,,,,,,,,,,,,,,,,,,,,,,,,,,,,,,,,,,,,,,,,,,,,,,,,,,,,,,,,,,,,,,,,,,,,,,,,,,,,,,,,,,,,,,,,,,,,,
,,,,,,615c453806ba1a372800c832,62bbf94902033623e37e4b30,2022-06-29_09h04.29.654,Colour_Asymmetry_Pilot,2022.1.3,Win32,60.0276127,62bbe60bf3d75ef465d3e404,0,7,7,78,1,fourtwo,,,,,,,,,,,,,,,,,,,,,,,,,,,,,,,,,,,,,,,,,,,,,,,,,,,,,,,,,,,,,,,,,,,,,,,,,,,,,,,,,,,,,,,,,,,,,,,,,,,,,,,,,,,,,,,,,,,,,,,,,,,,,,,,,,,,,,,,,,,,,,,,,,,,,,,,
,,,,,,615c453806ba1a372800c832,62bbf94902033623e37e4b30,2022-06-29_09h04.29.654,Colour_Asymmetry_Pilot,2022.1.3,Win32,60.0276127,62bbe60bf3d75ef465d3e404,0,8,8,139,1,twofour,,,,,,,,,,,,,,,,,,,,,,,,,,,,,,,,,,,,,,,,,,,,,,,,,,,,,,,,,,,,,,,,,,,,,,,,,,,,,,,,,,,,,,,,,,,,,,,,,,,,,,,,,,,,,,,,,,,,,,,,,,,,,,,,,,,,,,,,,,,,,,,,,,,,,,,,
,,,,,,615c453806ba1a372800c832,62bbf94902033623e37e4b30,2022-06-29_09h04.29.654,Colour_Asymmetry_Pilot,2022.1.3,Win32,60.0276127,62bbe60bf3d75ef465d3e404,0,9,9,132,1,threeone,,,,,,,,,,,,,,,,,,,,,,,,,,,,,,,,,,,,,,,,,,,,,,,,,,,,,,,,,,,,,,,,,,,,,,,,,,,,,,,,,,,,,,,,,,,,,,,,,,,,,,,,,,,,,,,,,,,,,,,,,,,,,,,,,,,,,,,,,,,,,,,,,,,,,,,,
,,,,,,615c453806ba1a372800c832,62bbf94902033623e37e4b30,2022-06-29_09h04.29.654,Colour_Asymmetry_Pilot,2022.1.3,Win32,60.0276127,62bbe60bf3d75ef465d3e404,0,10,10,26,1,twoone,,,,,,,,,,,,,,,,,,,,,,,,,,,,,,,,,,,,,,,,,,,,,,,,,,,,,,,,,,,,,,,,,,,,,,,,,,,,,,,,,,,,,,,,,,,,,,,,,,,,,,,,,,,,,,,,,,,,,,,,,,,,,,,,,,,,,,,,,,,,,,,,,,,,,,,,
,,,,,,615c453806ba1a372800c832,62bbf94902033623e37e4b30,2022-06-29_09h04.29.654,Colour_Asymmetry_Pilot,2022.1.3,Win32,60.0276127,62bbe60bf3d75ef465d3e404,0,11,11,161,1,onethree,,,,,,,,,,,,,,,,,,,,,,,,,,,,,,,,,,,,,,,,,,,,,,,,,,,,,,,,,,,,,,,,,,,,,,,,,,,,,,,,,,,,,,,,,,,,,,,,,,,,,,,,,,,,,,,,,,,,,,,,,,,,,,,,,,,,,,,,,,,,,,,,,,,,,,,,
,,,,,,615c453806ba1a372800c832,62bbf94902033623e37e4b30,2022-06-29_09h04.29.654,Colour_Asymmetry_Pilot,2022.1.3,Win32,60.0276127,62bbe60bf3d75ef465d3e404,0,12,12,48,1,onetwo,,,,,,,,,,,,,,,,,,,,,,,,,,,,,,,,,,,,,,,,,,,,,,,,,,,,,,,,,,,,,,,,,,,,,,,,,,,,,,,,,,,,,,,,,,,,,,,,,,,,,,,,,,,,,,,,,,,,,,,,,,,,,,,,,,,,,,,,,,,,,,,,,,,,,,,,
,,,,,,615c453806ba1a372800c832,62bbf94902033623e37e4b30,2022-06-29_09h04.29.654,Colour_Asymmetry_Pilot,2022.1.3,Win32,60.0276127,62bbe60bf3d75ef465d3e404,0,13,13,119,1,fourthree,,,,,,,,,,,,,,,,,,,,,,,,,,,,,,,,,,,,,,,,,,,,,,,,,,,,,,,,,,,,,,,,,,,,,,,,,,,,,,,,,,,,,,,,,,,,,,,,,,,,,,,,,,,,,,,,,,,,,,,,,,,,,,,,,,,,,,,,,,,,,,,,,,,,,,,,
,,,,,,615c453806ba1a372800c832,62bbf94902033623e37e4b30,2022-06-29_09h04.29.654,Colour_Asymmetry_Pilot,2022.1.3,Win32,60.0276127,62bbe60bf3d75ef465d3e404,0,14,14,102,1,fourtwo,,,,,,,,,,,,,,,,,,,,,,,,,,,,,,,,,,,,,,,,,,,,,,,,,,,,,,,,,,,,,,,,,,,,,,,,,,,,,,,,,,,,,,,,,,,,,,,,,,,,,,,,,,,,,,,,,,,,,,,,,,,,,,,,,,,,,,,,,,,,,,,,,,,,,,,,
,,,,,,615c453806ba1a372800c832,62bbf94902033623e37e4b30,2022-06-29_09h04.29.654,Colour_Asymmetry_Pilot,2022.1.3,Win32,60.0276127,62bbe60bf3d75ef465d3e404,0,15,15,37,1,threefour,,,,,,,,,,,,,,,,,,,,,,,,,,,,,,,,,,,,,,,,,,,,,,,,,,,,,,,,,,,,,,,,,,,,,,,,,,,,,,,,,,,,,,,,,,,,,,,,,,,,,,,,,,,,,,,,,,,,,,,,,,,,,,,,,,,,,,,,,,,,,,,,,,,,,,,,
,,,,,,615c453806ba1a372800c832,62bbf94902033623e37e4b30,2022-06-29_09h04.29.654,Colour_Asymmetry_Pilot,2022.1.3,Win32,60.0276127,62bbe60bf3d75ef465d3e404,0,16,16,11,1,twofour,,,,,,,,,,,,,,,,,,,,,,,,,,,,,,,,,,,,,,,,,,,,,,,,,,,,,,,,,,,,,,,,,,,,,,,,,,,,,,,,,,,,,,,,,,,,,,,,,,,,,,,,,,,,,,,,,,,,,,,,,,,,,,,,,,,,,,,,,,,,,,,,,,,,,,,,
,,,,,,615c453806ba1a372800c832,62bbf94902033623e37e4b30,2022-06-29_09h04.29.654,Colour_Asymmetry_Pilot,2022.1.3,Win32,60.0276127,62bbe60bf3d75ef465d3e404,0,17,17,65,1,onethree,,,,,,,,,,,,,,,,,,,,,,,,,,,,,,,,,,,,,,,,,,,,,,,,,,,,,,,,,,,,,,,,,,,,,,,,,,,,,,,,,,,,,,,,,,,,,,,,,,,,,,,,,,,,,,,,,,,,,,,,,,,,,,,,,,,,,,,,,,,,,,,,,,,,,,,,
,,,,,,615c453806ba1a372800c832,62bbf94902033623e37e4b30,2022-06-29_09h04.29.654,Colour_Asymmetry_Pilot,2022.1.3,Win32,60.0276127,62bbe60bf3d75ef465d3e404,0,18,18,3,1,twofour,,,,,,,,,,,,,,,,,,,,,,,,,,,,,,,,,,,,,,,,,,,,,,,,,,,,,,,,,,,,,,,,,,,,,,,,,,,,,,,,,,,,,,,,,,,,,,,,,,,,,,,,,,,,,,,,,,,,,,,,,,,,,,,,,,,,,,,,,,,,,,,,,,,,,,,,
,,,,,,615c453806ba1a372800c832,62bbf94902033623e37e4b30,2022-06-29_09h04.29.654,Colour_Asymmetry_Pilot,2022.1.3,Win32,60.0276127,62bbe60bf3d75ef465d3e404,0,19,19,124,1,threeone,,,,,,,,,,,,,,,,,,,,,,,,,,,,,,,,,,,,,,,,,,,,,,,,,,,,,,,,,,,,,,,,,,,,,,,,,,,,,,,,,,,,,,,,,,,,,,,,,,,,,,,,,,,,,,,,,,,,,,,,,,,,,,,,,,,,,,,,,,,,,,,,,,,,,,,,
,,,,,,615c453806ba1a372800c832,62bbf94902033623e37e4b30,2022-06-29_09h04.29.654,Colour_Asymmetry_Pilot,2022.1.3,Win32,60.0276127,62bbe60bf3d75ef465d3e404,0,20,20,109,1,threefour,,,,,,,,,,,,,,,,,,,,,,,,,,,,,,,,,,,,,,,,,,,,,,,,,,,,,,,,,,,,,,,,,,,,,,,,,,,,,,,,,,,,,,,,,,,,,,,,,,,,,,,,,,,,,,,,,,,,,,,,,,,,,,,,,,,,,,,,,,,,,,,,,,,,,,,,
,,,,,,615c453806ba1a372800c832,62bbf94902033623e37e4b30,2022-06-29_09h04.29.654,Colour_Asymmetry_Pilot,2022.1.3,Win32,60.0276127,62bbe60bf3d75ef465d3e404,0,21,21,123,1,twofour,,,,,,,,,,,,,,,,,,,,,,,,,,,,,,,,,,,,,,,,,,,,,,,,,,,,,,,,,,,,,,,,,,,,,,,,,,,,,,,,,,,,,,,,,,,,,,,,,,,,,,,,,,,,,,,,,,,,,,,,,,,,,,,,,,,,,,,,,,,,,,,,,,,,,,,,
,,,,,,615c453806ba1a372800c832,62bbf94902033623e37e4b30,2022-06-29_09h04.29.654,Colour_Asymmetry_Pilot,2022.1.3,Win32,60.0276127,62bbe60bf3d75ef465d3e404,0,22,22,18,1,twoone,,,,,,,,,,,,,,,,,,,,,,,,,,,,,,,,,,,,,,,,,,,,,,,,,,,,,,,,,,,,,,,,,,,,,,,,,,,,,,,,,,,,,,,,,,,,,,,,,,,,,,,,,,,,,,,,,,,,,,,,,,,,,,,,,,,,,,,,,,,,,,,,,,,,,,,,
,,,,,,615c453806ba1a372800c832,62bbf94902033623e37e4b30,2022-06-29_09h04.29.654,Colour_Asymmetry_Pilot,2022.1.3,Win32,60.0276127,62bbe60bf3d75ef465d3e404,0,23,23,12,1,threeone,,,,,,,,,,,,,,,,,,,,,,,,,,,,,,,,,,,,,,,,,,,,,,,,,,,,,,,,,,,,,,,,,,,,,,,,,,,,,,,,,,,,,,,,,,,,,,,,,,,,,,,,,,,,,,,,,,,,,,,,,,,,,,,,,,,,,,,,,,,,,,,,,,,,,,,,
,,,,,,615c453806ba1a372800c832,62bbf94902033623e37e4b30,2022-06-29_09h04.29.654,Colour_Asymmetry_Pilot,2022.1.3,Win32,60.0276127,62bbe60bf3d75ef465d3e404,0,24,24,117,1,threefour,,,,,,,,,,,,,,,,,,,,,,,,,,,,,,,,,,,,,,,,,,,,,,,,,,,,,,,,,,,,,,,,,,,,,,,,,,,,,,,,,,,,,,,,,,,,,,,,,,,,,,,,,,,,,,,,,,,,,,,,,,,,,,,,,,,,,,,,,,,,,,,,,,,,,,,,
,,,,,,615c453806ba1a372800c832,62bbf94902033623e37e4b30,2022-06-29_09h04.29.654,Colour_Asymmetry_Pilot,2022.1.3,Win32,60.0276127,62bbe60bf3d75ef465d3e404,0,25,25,44,1,threeone,,,,,,,,,,,,,,,,,,,,,,,,,,,,,,,,,,,,,,,,,,,,,,,,,,,,,,,,,,,,,,,,,,,,,,,,,,,,,,,,,,,,,,,,,,,,,,,,,,,,,,,,,,,,,,,,,,,,,,,,,,,,,,,,,,,,,,,,,,,,,,,,,,,,,,,,
,,,,,,615c453806ba1a372800c832,62bbf94902033623e37e4b30,2022-06-29_09h04.29.654,Colour_Asymmetry_Pilot,2022.1.3,Win32,60.0276127,62bbe60bf3d75ef465d3e404,0,26,26,27,1,twofour,,,,,,,,,,,,,,,,,,,,,,,,,,,,,,,,,,,,,,,,,,,,,,,,,,,,,,,,,,,,,,,,,,,,,,,,,,,,,,,,,,,,,,,,,,,,,,,,,,,,,,,,,,,,,,,,,,,,,,,,,,,,,,,,,,,,,,,,,,,,,,,,,,,,,,,,
,,,,,,615c453806ba1a372800c832,62bbf94902033623e37e4b30,2022-06-29_09h04.29.654,Colour_Asymmetry_Pilot,2022.1.3,Win32,60.0276127,62bbe60bf3d75ef465d3e404,0,27,27,10,1,twoone,,,,,,,,,,,,,,,,,,,,,,,,,,,,,,,,,,,,,,,,,,,,,,,,,,,,,,,,,,,,,,,,,,,,,,,,,,,,,,,,,,,,,,,,,,,,,,,,,,,,,,,,,,,,,,,,,,,,,,,,,,,,,,,,,,,,,,,,,,,,,,,,,,,,,,,,
,,,,,,615c453806ba1a372800c832,62bbf94902033623e37e4b30,2022-06-29_09h04.29.654,Colour_Asymmetry_Pilot,2022.1.3,Win32,60.0276127,62bbe60bf3d75ef465d3e404,0,28,28,134,1,fourtwo,,,,,,,,,,,,,,,,,,,,,,,,,,,,,,,,,,,,,,,,,,,,,,,,,,,,,,,,,,,,,,,,,,,,,,,,,,,,,,,,,,,,,,,,,,,,,,,,,,,,,,,,,,,,,,,,,,,,,,,,,,,,,,,,,,,,,,,,,,,,,,,,,,,,,,,,
,,,,,,615c453806ba1a372800c832,62bbf94902033623e37e4b30,2022-06-29_09h04.29.654,Colour_Asymmetry_Pilot,2022.1.3,Win32,60.0276127,62bbe60bf3d75ef465d3e404,0,29,29,73,1,onethree,,,,,,,,,,,,,,,,,,,,,,,,,,,,,,,,,,,,,,,,,,,,,,,,,,,,,,,,,,,,,,,,,,,,,,,,,,,,,,,,,,,,,,,,,,,,,,,,,,,,,,,,,,,,,,,,,,,,,,,,,,,,,,,,,,,,,,,,,,,,,,,,,,,,,,,,
,,,,,,615c453806ba1a372800c832,62bbf94902033623e37e4b30,2022-06-29_09h04.29.654,Colour_Asymmetry_Pilot,2022.1.3,Win32,60.0276127,62bbe60bf3d75ef465d3e404,0,30,30,28,1,threeone,,,,,,,,,,,,,,,,,,,,,,,,,,,,,,,,,,,,,,,,,,,,,,,,,,,,,,,,,,,,,,,,,,,,,,,,,,,,,,,,,,,,,,,,,,,,,,,,,,,,,,,,,,,,,,,,,,,,,,,,,,,,,,,,,,,,,,,,,,,,,,,,,,,,,,,,
,,,,,,615c453806ba1a372800c832,62bbf94902033623e37e4b30,2022-06-29_09h04.29.654,Colour_Asymmetry_Pilot,2022.1.3,Win32,60.0276127,62bbe60bf3d75ef465d3e404,0,31,31,113,1,onethree,,,,,,,,,,,,,,,,,,,,,,,,,,,,,,,,,,,,,,,,,,,,,,,,,,,,,,,,,,,,,,,,,,,,,,,,,,,,,,,,,,,,,,,,,,,,,,,,,,,,,,,,,,,,,,,,,,,,,,,,,,,,,,,,,,,,,,,,,,,,,,,,,,,,,,,,
,,,,,,615c453806ba1a372800c832,62bbf94902033623e37e4b30,2022-06-29_09h04.29.654,Colour_Asymmetry_Pilot,2022.1.3,Win32,60.0276127,62bbe60bf3d75ef465d3e404,0,32,32,51,1,twofour,,,,,,,,,,,,,,,,,,,,,,,,,,,,,,,,,,,,,,,,,,,,,,,,,,,,,,,,,,,,,,,,,,,,,,,,,,,,,,,,,,,,,,,,,,,,,,,,,,,,,,,,,,,,,,,,,,,,,,,,,,,,,,,,,,,,,,,,,,,,,,,,,,,,,,,,
,,,,,,615c453806ba1a372800c832,62bbf94902033623e37e4b30,2022-06-29_09h04.29.654,Colour_Asymmetry_Pilot,2022.1.3,Win32,60.0276127,62bbe60bf3d75ef465d3e404,0,33,33,81,1,onethree,,,,,,,,,,,,,,,,,,,,,,,,,,,,,,,,,,,,,,,,,,,,,,,,,,,,,,,,,,,,,,,,,,,,,,,,,,,,,,,,,,,,,,,,,,,,,,,,,,,,,,,,,,,,,,,,,,,,,,,,,,,,,,,,,,,,,,,,,,,,,,,,,,,,,,,,
,,,,,,615c453806ba1a372800c832,62bbf94902033623e37e4b30,2022-06-29_09h04.29.654,Colour_Asymmetry_Pilot,2022.1.3,Win32,60.0276127,62bbe60bf3d75ef465d3e404,0,34,34,59,1,twofour,,,,,,,,,,,,,,,,,,,,,,,,,,,,,,,,,,,,,,,,,,,,,,,,,,,,,,,,,,,,,,,,,,,,,,,,,,,,,,,,,,,,,,,,,,,,,,,,,,,,,,,,,,,,,,,,,,,,,,,,,,,,,,,,,,,,,,,,,,,,,,,,,,,,,,,,
,,,,,,615c453806ba1a372800c832,62bbf94902033623e37e4b30,2022-06-29_09h04.29.654,Colour_Asymmetry_Pilot,2022.1.3,Win32,60.0276127,62bbe60bf3d75ef465d3e404,0,35,35,82,1,twoone,,,,,,,,,,,,,,,,,,,,,,,,,,,,,,,,,,,,,,,,,,,,,,,,,,,,,,,,,,,,,,,,,,,,,,,,,,,,,,,,,,,,,,,,,,,,,,,,,,,,,,,,,,,,,,,,,,,,,,,,,,,,,,,,,,,,,,,,,,,,,,,,,,,,,,,,
,,,,,,615c453806ba1a372800c832,62bbf94902033623e37e4b30,2022-06-29_09h04.29.654,Colour_Asymmetry_Pilot,2022.1.3,Win32,60.0276127,62bbe60bf3d75ef465d3e404,0,36,36,144,1,onetwo,,,,,,,,,,,,,,,,,,,,,,,,,,,,,,,,,,,,,,,,,,,,,,,,,,,,,,,,,,,,,,,,,,,,,,,,,,,,,,,,,,,,,,,,,,,,,,,,,,,,,,,,,,,,,,,,,,,,,,,,,,,,,,,,,,,,,,,,,,,,,,,,,,,,,,,,
,,,,,,615c453806ba1a372800c832,62bbf94902033623e37e4b30,2022-06-29_09h04.29.654,Colour_Asymmetry_Pilot,2022.1.3,Win32,60.0276127,62bbe60bf3d75ef465d3e404,0,37,37,54,1,fourtwo,,,,,,,,,,,,,,,,,,,,,,,,,,,,,,,,,,,,,,,,,,,,,,,,,,,,,,,,,,,,,,,,,,,,,,,,,,,,,,,,,,,,,,,,,,,,,,,,,,,,,,,,,,,,,,,,,,,,,,,,,,,,,,,,,,,,,,,,,,,,,,,,,,,,,,,,
,,,,,,615c453806ba1a372800c832,62bbf94902033623e37e4b30,2022-06-29_09h04.29.654,Colour_Asymmetry_Pilot,2022.1.3,Win32,60.0276127,62bbe60bf3d75ef465d3e404,0,38,38,159,1,fourthree,,,,,,,,,,,,,,,,,,,,,,,,,,,,,,,,,,,,,,,,,,,,,,,,,,,,,,,,,,,,,,,,,,,,,,,,,,,,,,,,,,,,,,,,,,,,,,,,,,,,,,,,,,,,,,,,,,,,,,,,,,,,,,,,,,,,,,,,,,,,,,,,,,,,,,,,
,,,,,,615c453806ba1a372800c832,62bbf94902033623e37e4b30,2022-06-29_09h04.29.654,Colour_Asymmetry_Pilot,2022.1.3,Win32,60.0276127,62bbe60bf3d75ef465d3e404,0,39,39,149,1,threefour,,,,,,,,,,,,,,,,,,,,,,,,,,,,,,,,,,,,,,,,,,,,,,,,,,,,,,,,,,,,,,,,,,,,,,,,,,,,,,,,,,,,,,,,,,,,,,,,,,,,,,,,,,,,,,,,,,,,,,,,,,,,,,,,,,,,,,,,,,,,,,,,,,,,,,,,
,,,,,,615c453806ba1a372800c832,62bbf94902033623e37e4b30,2022-06-29_09h04.29.654,Colour_Asymmetry_Pilot,2022.1.3,Win32,60.0276127,62bbe60bf3d75ef465d3e404,0,40,40,14,1,fourtwo,,,,,,,,,,,,,,,,,,,,,,,,,,,,,,,,,,,,,,,,,,,,,,,,,,,,,,,,,,,,,,,,,,,,,,,,,,,,,,,,,,,,,,,,,,,,,,,,,,,,,,,,,,,,,,,,,,,,,,,,,,,,,,,,,,,,,,,,,,,,,,,,,,,,,,,,
,,,,,,615c453806ba1a372800c832,62bbf94902033623e37e4b30,2022-06-29_09h04.29.654,Colour_Asymmetry_Pilot,2022.1.3,Win32,60.0276127,62bbe60bf3d75ef465d3e404,0,41,41,39,1,fourthree,,,,,,,,,,,,,,,,,,,,,,,,,,,,,,,,,,,,,,,,,,,,,,,,,,,,,,,,,,,,,,,,,,,,,,,,,,,,,,,,,,,,,,,,,,,,,,,,,,,,,,,,,,,,,,,,,,,,,,,,,,,,,,,,,,,,,,,,,,,,,,,,,,,,,,,,
,,,,,,615c453806ba1a372800c832,62bbf94902033623e37e4b30,2022-06-29_09h04.29.654,Colour_Asymmetry_Pilot,2022.1.3,Win32,60.0276127,62bbe60bf3d75ef465d3e404,0,42,42,56,1,onetwo,,,,,,,,,,,,,,,,,,,,,,,,,,,,,,,,,,,,,,,,,,,,,,,,,,,,,,,,,,,,,,,,,,,,,,,,,,,,,,,,,,,,,,,,,,,,,,,,,,,,,,,,,,,,,,,,,,,,,,,,,,,,,,,,,,,,,,,,,,,,,,,,,,,,,,,,
,,,,,,615c453806ba1a372800c832,62bbf94902033623e37e4b30,2022-06-29_09h04.29.654,Colour_Asymmetry_Pilot,2022.1.3,Win32,60.0276127,62bbe60bf3d75ef465d3e404,0,43,43,116,1,threeone,,,,,,,,,,,,,,,,,,,,,,,,,,,,,,,,,,,,,,,,,,,,,,,,,,,,,,,,,,,,,,,,,,,,,,,,,,,,,,,,,,,,,,,,,,,,,,,,,,,,,,,,,,,,,,,,,,,,,,,,,,,,,,,,,,,,,,,,,,,,,,,,,,,,,,,,
,,,,,,615c453806ba1a372800c832,62bbf94902033623e37e4b30,2022-06-29_09h04.29.654,Colour_Asymmetry_Pilot,2022.1.3,Win32,60.0276127,62bbe60bf3d75ef465d3e404,0,44,44,1,1,onethree,,,,,,,,,,,,,,,,,,,,,,,,,,,,,,,,,,,,,,,,,,,,,,,,,,,,,,,,,,,,,,,,,,,,,,,,,,,,,,,,,,,,,,,,,,,,,,,,,,,,,,,,,,,,,,,,,,,,,,,,,,,,,,,,,,,,,,,,,,,,,,,,,,,,,,,,
,,,,,,615c453806ba1a372800c832,62bbf94902033623e37e4b30,2022-06-29_09h04.29.654,Colour_Asymmetry_Pilot,2022.1.3,Win32,60.0276127,62bbe60bf3d75ef465d3e404,0,45,45,66,1,twoone,,,,,,,,,,,,,,,,,,,,,,,,,,,,,,,,,,,,,,,,,,,,,,,,,,,,,,,,,,,,,,,,,,,,,,,,,,,,,,,,,,,,,,,,,,,,,,,,,,,,,,,,,,,,,,,,,,,,,,,,,,,,,,,,,,,,,,,,,,,,,,,,,,,,,,,,
,,,,,,615c453806ba1a372800c832,62bbf94902033623e37e4b30,2022-06-29_09h04.29.654,Colour_Asymmetry_Pilot,2022.1.3,Win32,60.0276127,62bbe60bf3d75ef465d3e404,0,46,46,53,1,threefour,,,,,,,,,,,,,,,,,,,,,,,,,,,,,,,,,,,,,,,,,,,,,,,,,,,,,,,,,,,,,,,,,,,,,,,,,,,,,,,,,,,,,,,,,,,,,,,,,,,,,,,,,,,,,,,,,,,,,,,,,,,,,,,,,,,,,,,,,,,,,,,,,,,,,,,,
,,,,,,615c453806ba1a372800c832,62bbf94902033623e37e4b30,2022-06-29_09h04.29.654,Colour_Asymmetry_Pilot,2022.1.3,Win32,60.0276127,62bbe60bf3d75ef465d3e404,0,47,47,143,1,fourthree,,,,,,,,,,,,,,,,,,,,,,,,,,,,,,,,,,,,,,,,,,,,,,,,,,,,,,,,,,,,,,,,,,,,,,,,,,,,,,,,,,,,,,,,,,,,,,,,,,,,,,,,,,,,,,,,,,,,,,,,,,,,,,,,,,,,,,,,,,,,,,,,,,,,,,,,
,,,,,,615c453806ba1a372800c832,62bbf94902033623e37e4b30,2022-06-29_09h04.29.654,Colour_Asymmetry_Pilot,2022.1.3,Win32,60.0276127,62bbe60bf3d75ef465d3e404,0,48,48,104,1,onetwo,,,,,,,,,,,,,,,,,,,,,,,,,,,,,,,,,,,,,,,,,,,,,,,,,,,,,,,,,,,,,,,,,,,,,,,,,,,,,,,,,,,,,,,,,,,,,,,,,,,,,,,,,,,,,,,,,,,,,,,,,,,,,,,,,,,,,,,,,,,,,,,,,,,,,,,,
,,,,,,615c453806ba1a372800c832,62bbf94902033623e37e4b30,2022-06-29_09h04.29.654,Colour_Asymmetry_Pilot,2022.1.3,Win32,60.0276127,62bbe60bf3d75ef465d3e404,0,49,49,131,1,twofour,,,,,,,,,,,,,,,,,,,,,,,,,,,,,,,,,,,,,,,,,,,,,,,,,,,,,,,,,,,,,,,,,,,,,,,,,,,,,,,,,,,,,,,,,,,,,,,,,,,,,,,,,,,,,,,,,,,,,,,,,,,,,,,,,,,,,,,,,,,,,,,,,,,,,,,,
,,,,,,615c453806ba1a372800c832,62bbf94902033623e37e4b30,2022-06-29_09h04.29.654,Colour_Asymmetry_Pilot,2022.1.3,Win32,60.0276127,62bbe60bf3d75ef465d3e404,0,50,50,133,1,threefour,,,,,,,,,,,,,,,,,,,,,,,,,,,,,,,,,,,,,,,,,,,,,,,,,,,,,,,,,,,,,,,,,,,,,,,,,,,,,,,,,,,,,,,,,,,,,,,,,,,,,,,,,,,,,,,,,,,,,,,,,,,,,,,,,,,,,,,,,,,,,,,,,,,,,,,,
,,,,,,615c453806ba1a372800c832,62bbf94902033623e37e4b30,2022-06-29_09h04.29.654,Colour_Asymmetry_Pilot,2022.1.3,Win32,60.0276127,62bbe60bf3d75ef465d3e404,0,51,51,45,1,threefour,,,,,,,,,,,,,,,,,,,,,,,,,,,,,,,,,,,,,,,,,,,,,,,,,,,,,,,,,,,,,,,,,,,,,,,,,,,,,,,,,,,,,,,,,,,,,,,,,,,,,,,,,,,,,,,,,,,,,,,,,,,,,,,,,,,,,,,,,,,,,,,,,,,,,,,,
,,,,,,615c453806ba1a372800c832,62bbf94902033623e37e4b30,2022-06-29_09h04.29.654,Colour_Asymmetry_Pilot,2022.1.3,Win32,60.0276127,62bbe60bf3d75ef465d3e404,0,52,52,96,1,onetwo,,,,,,,,,,,,,,,,,,,,,,,,,,,,,,,,,,,,,,,,,,,,,,,,,,,,,,,,,,,,,,,,,,,,,,,,,,,,,,,,,,,,,,,,,,,,,,,,,,,,,,,,,,,,,,,,,,,,,,,,,,,,,,,,,,,,,,,,,,,,,,,,,,,,,,,,
,,,,,,615c453806ba1a372800c832,62bbf94902033623e37e4b30,2022-06-29_09h04.29.654,Colour_Asymmetry_Pilot,2022.1.3,Win32,60.0276127,62bbe60bf3d75ef465d3e404,0,53,53,153,1,onethree,,,,,,,,,,,,,,,,,,,,,,,,,,,,,,,,,,,,,,,,,,,,,,,,,,,,,,,,,,,,,,,,,,,,,,,,,,,,,,,,,,,,,,,,,,,,,,,,,,,,,,,,,,,,,,,,,,,,,,,,,,,,,,,,,,,,,,,,,,,,,,,,,,,,,,,,
,,,,,,615c453806ba1a372800c832,62bbf94902033623e37e4b30,2022-06-29_09h04.29.654,Colour_Asymmetry_Pilot,2022.1.3,Win32,60.0276127,62bbe60bf3d75ef465d3e404,0,54,54,21,1,threefour,,,,,,,,,,,,,,,,,,,,,,,,,,,,,,,,,,,,,,,,,,,,,,,,,,,,,,,,,,,,,,,,,,,,,,,,,,,,,,,,,,,,,,,,,,,,,,,,,,,,,,,,,,,,,,,,,,,,,,,,,,,,,,,,,,,,,,,,,,,,,,,,,,,,,,,,
,,,,,,615c453806ba1a372800c832,62bbf94902033623e37e4b30,2022-06-29_09h04.29.654,Colour_Asymmetry_Pilot,2022.1.3,Win32,60.0276127,62bbe60bf3d75ef465d3e404,0,55,55,40,1,onetwo,,,,,,,,,,,,,,,,,,,,,,,,,,,,,,,,,,,,,,,,,,,,,,,,,,,,,,,,,,,,,,,,,,,,,,,,,,,,,,,,,,,,,,,,,,,,,,,,,,,,,,,,,,,,,,,,,,,,,,,,,,,,,,,,,,,,,,,,,,,,,,,,,,,,,,,,
,,,,,,615c453806ba1a372800c832,62bbf94902033623e37e4b30,2022-06-29_09h04.29.654,Colour_Asymmetry_Pilot,2022.1.3,Win32,60.0276127,62bbe60bf3d75ef465d3e404,0,56,56,84,1,threeone,,,,,,,,,,,,,,,,,,,,,,,,,,,,,,,,,,,,,,,,,,,,,,,,,,,,,,,,,,,,,,,,,,,,,,,,,,,,,,,,,,,,,,,,,,,,,,,,,,,,,,,,,,,,,,,,,,,,,,,,,,,,,,,,,,,,,,,,,,,,,,,,,,,,,,,,
,,,,,,615c453806ba1a372800c832,62bbf94902033623e37e4b30,2022-06-29_09h04.29.654,Colour_Asymmetry_Pilot,2022.1.3,Win32,60.0276127,62bbe60bf3d75ef465d3e404,0,57,57,23,1,fourthree,,,,,,,,,,,,,,,,,,,,,,,,,,,,,,,,,,,,,,,,,,,,,,,,,,,,,,,,,,,,,,,,,,,,,,,,,,,,,,,,,,,,,,,,,,,,,,,,,,,,,,,,,,,,,,,,,,,,,,,,,,,,,,,,,,,,,,,,,,,,,,,,,,,,,,,,
,,,,,,615c453806ba1a372800c832,62bbf94902033623e37e4b30,2022-06-29_09h04.29.654,Colour_Asymmetry_Pilot,2022.1.3,Win32,60.0276127,62bbe60bf3d75ef465d3e404,0,58,58,100,1,threeone,,,,,,,,,,,,,,,,,,,,,,,,,,,,,,,,,,,,,,,,,,,,,,,,,,,,,,,,,,,,,,,,,,,,,,,,,,,,,,,,,,,,,,,,,,,,,,,,,,,,,,,,,,,,,,,,,,,,,,,,,,,,,,,,,,,,,,,,,,,,,,,,,,,,,,,,
,,,,,,615c453806ba1a372800c832,62bbf94902033623e37e4b30,2022-06-29_09h04.29.654,Colour_Asymmetry_Pilot,2022.1.3,Win32,60.0276127,62bbe60bf3d75ef465d3e404,0,59,59,25,1,onethree,,,,,,,,,,,,,,,,,,,,,,,,,,,,,,,,,,,,,,,,,,,,,,,,,,,,,,,,,,,,,,,,,,,,,,,,,,,,,,,,,,,,,,,,,,,,,,,,,,,,,,,,,,,,,,,,,,,,,,,,,,,,,,,,,,,,,,,,,,,,,,,,,,,,,,,,
,,,,,,615c453806ba1a372800c832,62bbf94902033623e37e4b30,2022-06-29_09h04.29.654,Colour_Asymmetry_Pilot,2022.1.3,Win32,60.0276127,62bbe60bf3d75ef465d3e404,0,60,60,58,1,twoone,,,,,,,,,,,,,,,,,,,,,,,,,,,,,,,,,,,,,,,,,,,,,,,,,,,,,,,,,,,,,,,,,,,,,,,,,,,,,,,,,,,,,,,,,,,,,,,,,,,,,,,,,,,,,,,,,,,,,,,,,,,,,,,,,,,,,,,,,,,,,,,,,,,,,,,,
,,,,,,615c453806ba1a372800c832,62bbf94902033623e37e4b30,2022-06-29_09h04.29.654,Colour_Asymmetry_Pilot,2022.1.3,Win32,60.0276127,62bbe60bf3d75ef465d3e404,0,61,61,130,1,twoone,,,,,,,,,,,,,,,,,,,,,,,,,,,,,,,,,,,,,,,,,,,,,,,,,,,,,,,,,,,,,,,,,,,,,,,,,,,,,,,,,,,,,,,,,,,,,,,,,,,,,,,,,,,,,,,,,,,,,,,,,,,,,,,,,,,,,,,,,,,,,,,,,,,,,,,,
,,,,,,615c453806ba1a372800c832,62bbf94902033623e37e4b30,2022-06-29_09h04.29.654,Colour_Asymmetry_Pilot,2022.1.3,Win32,60.0276127,62bbe60bf3d75ef465d3e404,0,62,62,31,1,fourthree,,,,,,,,,,,,,,,,,,,,,,,,,,,,,,,,,,,,,,,,,,,,,,,,,,,,,,,,,,,,,,,,,,,,,,,,,,,,,,,,,,,,,,,,,,,,,,,,,,,,,,,,,,,,,,,,,,,,,,,,,,,,,,,,,,,,,,,,,,,,,,,,,,,,,,,,
,,,,,,615c453806ba1a372800c832,62bbf94902033623e37e4b30,2022-06-29_09h04.29.654,Colour_Asymmetry_Pilot,2022.1.3,Win32,60.0276127,62bbe60bf3d75ef465d3e404,0,63,63,145,1,onethree,,,,,,,,,,,,,,,,,,,,,,,,,,,,,,,,,,,,,,,,,,,,,,,,,,,,,,,,,,,,,,,,,,,,,,,,,,,,,,,,,,,,,,,,,,,,,,,,,,,,,,,,,,,,,,,,,,,,,,,,,,,,,,,,,,,,,,,,,,,,,,,,,,,,,,,,
,,,,,,615c453806ba1a372800c832,62bbf94902033623e37e4b30,2022-06-29_09h04.29.654,Colour_Asymmetry_Pilot,2022.1.3,Win32,60.0276127,62bbe60bf3d75ef465d3e404,0,64,64,87,1,fourthree,,,,,,,,,,,,,,,,,,,,,,,,,,,,,,,,,,,,,,,,,,,,,,,,,,,,,,,,,,,,,,,,,,,,,,,,,,,,,,,,,,,,,,,,,,,,,,,,,,,,,,,,,,,,,,,,,,,,,,,,,,,,,,,,,,,,,,,,,,,,,,,,,,,,,,,,
,,,,,,615c453806ba1a372800c832,62bbf94902033623e37e4b30,2022-06-29_09h04.29.654,Colour_Asymmetry_Pilot,2022.1.3,Win32,60.0276127,62bbe60bf3d75ef465d3e404,0,65,65,158,1,fourtwo,,,,,,,,,,,,,,,,,,,,,,,,,,,,,,,,,,,,,,,,,,,,,,,,,,,,,,,,,,,,,,,,,,,,,,,,,,,,,,,,,,,,,,,,,,,,,,,,,,,,,,,,,,,,,,,,,,,,,,,,,,,,,,,,,,,,,,,,,,,,,,,,,,,,,,,,
,,,,,,615c453806ba1a372800c832,62bbf94902033623e37e4b30,2022-06-29_09h04.29.654,Colour_Asymmetry_Pilot,2022.1.3,Win32,60.0276127,62bbe60bf3d75ef465d3e404,0,66,66,24,1,onetwo,,,,,,,,,,,,,,,,,,,,,,,,,,,,,,,,,,,,,,,,,,,,,,,,,,,,,,,,,,,,,,,,,,,,,,,,,,,,,,,,,,,,,,,,,,,,,,,,,,,,,,,,,,,,,,,,,,,,,,,,,,,,,,,,,,,,,,,,,,,,,,,,,,,,,,,,
,,,,,,615c453806ba1a372800c832,62bbf94902033623e37e4b30,2022-06-29_09h04.29.654,Colour_Asymmetry_Pilot,2022.1.3,Win32,60.0276127,62bbe60bf3d75ef465d3e404,0,67,67,0,1,onetwo,,,,,,,,,,,,,,,,,,,,,,,,,,,,,,,,,,,,,,,,,,,,,,,,,,,,,,,,,,,,,,,,,,,,,,,,,,,,,,,,,,,,,,,,,,,,,,,,,,,,,,,,,,,,,,,,,,,,,,,,,,,,,,,,,,,,,,,,,,,,,,,,,,,,,,,,
,,,,,,615c453806ba1a372800c832,62bbf94902033623e37e4b30,2022-06-29_09h04.29.654,Colour_Asymmetry_Pilot,2022.1.3,Win32,60.0276127,62bbe60bf3d75ef465d3e404,0,68,68,42,1,twoone,,,,,,,,,,,,,,,,,,,,,,,,,,,,,,,,,,,,,,,,,,,,,,,,,,,,,,,,,,,,,,,,,,,,,,,,,,,,,,,,,,,,,,,,,,,,,,,,,,,,,,,,,,,,,,,,,,,,,,,,,,,,,,,,,,,,,,,,,,,,,,,,,,,,,,,,
,,,,,,615c453806ba1a372800c832,62bbf94902033623e37e4b30,2022-06-29_09h04.29.654,Colour_Asymmetry_Pilot,2022.1.3,Win32,60.0276127,62bbe60bf3d75ef465d3e404,0,69,69,151,1,fourthree,,,,,,,,,,,,,,,,,,,,,,,,,,,,,,,,,,,,,,,,,,,,,,,,,,,,,,,,,,,,,,,,,,,,,,,,,,,,,,,,,,,,,,,,,,,,,,,,,,,,,,,,,,,,,,,,,,,,,,,,,,,,,,,,,,,,,,,,,,,,,,,,,,,,,,,,
,,,,,,615c453806ba1a372800c832,62bbf94902033623e37e4b30,2022-06-29_09h04.29.654,Colour_Asymmetry_Pilot,2022.1.3,Win32,60.0276127,62bbe60bf3d75ef465d3e404,0,70,70,97,1,onethree,,,,,,,,,,,,,,,,,,,,,,,,,,,,,,,,,,,,,,,,,,,,,,,,,,,,,,,,,,,,,,,,,,,,,,,,,,,,,,,,,,,,,,,,,,,,,,,,,,,,,,,,,,,,,,,,,,,,,,,,,,,,,,,,,,,,,,,,,,,,,,,,,,,,,,,,
,,,,,,615c453806ba1a372800c832,62bbf94902033623e37e4b30,2022-06-29_09h04.29.654,Colour_Asymmetry_Pilot,2022.1.3,Win32,60.0276127,62bbe60bf3d75ef465d3e404,0,71,71,88,1,onetwo,,,,,,,,,,,,,,,,,,,,,,,,,,,,,,,,,,,,,,,,,,,,,,,,,,,,,,,,,,,,,,,,,,,,,,,,,,,,,,,,,,,,,,,,,,,,,,,,,,,,,,,,,,,,,,,,,,,,,,,,,,,,,,,,,,,,,,,,,,,,,,,,,,,,,,,,
,,,,,,615c453806ba1a372800c832,62bbf94902033623e37e4b30,2022-06-29_09h04.29.654,Colour_Asymmetry_Pilot,2022.1.3,Win32,60.0276127,62bbe60bf3d75ef465d3e404,0,72,72,155,1,twofour,,,,,,,,,,,,,,,,,,,,,,,,,,,,,,,,,,,,,,,,,,,,,,,,,,,,,,,,,,,,,,,,,,,,,,,,,,,,,,,,,,,,,,,,,,,,,,,,,,,,,,,,,,,,,,,,,,,,,,,,,,,,,,,,,,,,,,,,,,,,,,,,,,,,,,,,
,,,,,,615c453806ba1a372800c832,62bbf94902033623e37e4b30,2022-06-29_09h04.29.654,Colour_Asymmetry_Pilot,2022.1.3,Win32,60.0276127,62bbe60bf3d75ef465d3e404,0,73,73,137,1,onethree,,,,,,,,,,,,,,,,,,,,,,,,,,,,,,,,,,,,,,,,,,,,,,,,,,,,,,,,,,,,,,,,,,,,,,,,,,,,,,,,,,,,,,,,,,,,,,,,,,,,,,,,,,,,,,,,,,,,,,,,,,,,,,,,,,,,,,,,,,,,,,,,,,,,,,,,
,,,,,,615c453806ba1a372800c832,62bbf94902033623e37e4b30,2022-06-29_09h04.29.654,Colour_Asymmetry_Pilot,2022.1.3,Win32,60.0276127,62bbe60bf3d75ef465d3e404,0,74,74,20,1,threeone,,,,,,,,,,,,,,,,,,,,,,,,,,,,,,,,,,,,,,,,,,,,,,,,,,,,,,,,,,,,,,,,,,,,,,,,,,,,,,,,,,,,,,,,,,,,,,,,,,,,,,,,,,,,,,,,,,,,,,,,,,,,,,,,,,,,,,,,,,,,,,,,,,,,,,,,
,,,,,,615c453806ba1a372800c832,62bbf94902033623e37e4b30,2022-06-29_09h04.29.654,Colour_Asymmetry_Pilot,2022.1.3,Win32,60.0276127,62bbe60bf3d75ef465d3e404,0,75,75,9,1,onethree,,,,,,,,,,,,,,,,,,,,,,,,,,,,,,,,,,,,,,,,,,,,,,,,,,,,,,,,,,,,,,,,,,,,,,,,,,,,,,,,,,,,,,,,,,,,,,,,,,,,,,,,,,,,,,,,,,,,,,,,,,,,,,,,,,,,,,,,,,,,,,,,,,,,,,,,
,,,,,,615c453806ba1a372800c832,62bbf94902033623e37e4b30,2022-06-29_09h04.29.654,Colour_Asymmetry_Pilot,2022.1.3,Win32,60.0276127,62bbe60bf3d75ef465d3e404,0,76,76,103,1,fourthree,,,,,,,,,,,,,,,,,,,,,,,,,,,,,,,,,,,,,,,,,,,,,,,,,,,,,,,,,,,,,,,,,,,,,,,,,,,,,,,,,,,,,,,,,,,,,,,,,,,,,,,,,,,,,,,,,,,,,,,,,,,,,,,,,,,,,,,,,,,,,,,,,,,,,,,,
,,,,,,615c453806ba1a372800c832,62bbf94902033623e37e4b30,2022-06-29_09h04.29.654,Colour_Asymmetry_Pilot,2022.1.3,Win32,60.0276127,62bbe60bf3d75ef465d3e404,0,77,77,92,1,threeone,,,,,,,,,,,,,,,,,,,,,,,,,,,,,,,,,,,,,,,,,,,,,,,,,,,,,,,,,,,,,,,,,,,,,,,,,,,,,,,,,,,,,,,,,,,,,,,,,,,,,,,,,,,,,,,,,,,,,,,,,,,,,,,,,,,,,,,,,,,,,,,,,,,,,,,,
,,,,,,615c453806ba1a372800c832,62bbf94902033623e37e4b30,2022-06-29_09h04.29.654,Colour_Asymmetry_Pilot,2022.1.3,Win32,60.0276127,62bbe60bf3d75ef465d3e404,0,78,78,35,1,twofour,,,,,,,,,,,,,,,,,,,,,,,,,,,,,,,,,,,,,,,,,,,,,,,,,,,,,,,,,,,,,,,,,,,,,,,,,,,,,,,,,,,,,,,,,,,,,,,,,,,,,,,,,,,,,,,,,,,,,,,,,,,,,,,,,,,,,,,,,,,,,,,,,,,,,,,,
,,,,,,615c453806ba1a372800c832,62bbf94902033623e37e4b30,2022-06-29_09h04.29.654,Colour_Asymmetry_Pilot,2022.1.3,Win32,60.0276127,62bbe60bf3d75ef465d3e404,0,79,79,64,1,onetwo,,,,,,,,,,,,,,,,,,,,,,,,,,,,,,,,,,,,,,,,,,,,,,,,,,,,,,,,,,,,,,,,,,,,,,,,,,,,,,,,,,,,,,,,,,,,,,,,,,,,,,,,,,,,,,,,,,,,,,,,,,,,,,,,,,,,,,,,,,,,,,,,,,,,,,,,
,,,,,,615c453806ba1a372800c832,62bbf94902033623e37e4b30,2022-06-29_09h04.29.654,Colour_Asymmetry_Pilot,2022.1.3,Win32,60.0276127,62bbe60bf3d75ef465d3e404,0,80,80,142,1,fourtwo,,,,,,,,,,,,,,,,,,,,,,,,,,,,,,,,,,,,,,,,,,,,,,,,,,,,,,,,,,,,,,,,,,,,,,,,,,,,,,,,,,,,,,,,,,,,,,,,,,,,,,,,,,,,,,,,,,,,,,,,,,,,,,,,,,,,,,,,,,,,,,,,,,,,,,,,
,,,,,,615c453806ba1a372800c832,62bbf94902033623e37e4b30,2022-06-29_09h04.29.654,Colour_Asymmetry_Pilot,2022.1.3,Win32,60.0276127,62bbe60bf3d75ef465d3e404,0,81,81,93,1,threefour,,,,,,,,,,,,,,,,,,,,,,,,,,,,,,,,,,,,,,,,,,,,,,,,,,,,,,,,,,,,,,,,,,,,,,,,,,,,,,,,,,,,,,,,,,,,,,,,,,,,,,,,,,,,,,,,,,,,,,,,,,,,,,,,,,,,,,,,,,,,,,,,,,,,,,,,
,,,,,,615c453806ba1a372800c832,62bbf94902033623e37e4b30,2022-06-29_09h04.29.654,Colour_Asymmetry_Pilot,2022.1.3,Win32,60.0276127,62bbe60bf3d75ef465d3e404,0,82,82,2,1,twoone,,,,,,,,,,,,,,,,,,,,,,,,,,,,,,,,,,,,,,,,,,,,,,,,,,,,,,,,,,,,,,,,,,,,,,,,,,,,,,,,,,,,,,,,,,,,,,,,,,,,,,,,,,,,,,,,,,,,,,,,,,,,,,,,,,,,,,,,,,,,,,,,,,,,,,,,
,,,,,,615c453806ba1a372800c832,62bbf94902033623e37e4b30,2022-06-29_09h04.29.654,Colour_Asymmetry_Pilot,2022.1.3,Win32,60.0276127,62bbe60bf3d75ef465d3e404,0,83,83,122,1,twoone,,,,,,,,,,,,,,,,,,,,,,,,,,,,,,,,,,,,,,,,,,,,,,,,,,,,,,,,,,,,,,,,,,,,,,,,,,,,,,,,,,,,,,,,,,,,,,,,,,,,,,,,,,,,,,,,,,,,,,,,,,,,,,,,,,,,,,,,,,,,,,,,,,,,,,,,
,,,,,,615c453806ba1a372800c832,62bbf94902033623e37e4b30,2022-06-29_09h04.29.654,Colour_Asymmetry_Pilot,2022.1.3,Win32,60.0276127,62bbe60bf3d75ef465d3e404,0,84,84,152,1,onetwo,,,,,,,,,,,,,,,,,,,,,,,,,,,,,,,,,,,,,,,,,,,,,,,,,,,,,,,,,,,,,,,,,,,,,,,,,,,,,,,,,,,,,,,,,,,,,,,,,,,,,,,,,,,,,,,,,,,,,,,,,,,,,,,,,,,,,,,,,,,,,,,,,,,,,,,,
,,,,,,615c453806ba1a372800c832,62bbf94902033623e37e4b30,2022-06-29_09h04.29.654,Colour_Asymmetry_Pilot,2022.1.3,Win32,60.0276127,62bbe60bf3d75ef465d3e404,0,85,85,128,1,onetwo,,,,,,,,,,,,,,,,,,,,,,,,,,,,,,,,,,,,,,,,,,,,,,,,,,,,,,,,,,,,,,,,,,,,,,,,,,,,,,,,,,,,,,,,,,,,,,,,,,,,,,,,,,,,,,,,,,,,,,,,,,,,,,,,,,,,,,,,,,,,,,,,,,,,,,,,
,,,,,,615c453806ba1a372800c832,62bbf94902033623e37e4b30,2022-06-29_09h04.29.654,Colour_Asymmetry_Pilot,2022.1.3,Win32,60.0276127,62bbe60bf3d75ef465d3e404,0,86,86,111,1,fourthree,,,,,,,,,,,,,,,,,,,,,,,,,,,,,,,,,,,,,,,,,,,,,,,,,,,,,,,,,,,,,,,,,,,,,,,,,,,,,,,,,,,,,,,,,,,,,,,,,,,,,,,,,,,,,,,,,,,,,,,,,,,,,,,,,,,,,,,,,,,,,,,,,,,,,,,,
,,,,,,615c453806ba1a372800c832,62bbf94902033623e37e4b30,2022-06-29_09h04.29.654,Colour_Asymmetry_Pilot,2022.1.3,Win32,60.0276127,62bbe60bf3d75ef465d3e404,0,87,87,52,1,threeone,,,,,,,,,,,,,,,,,,,,,,,,,,,,,,,,,,,,,,,,,,,,,,,,,,,,,,,,,,,,,,,,,,,,,,,,,,,,,,,,,,,,,,,,,,,,,,,,,,,,,,,,,,,,,,,,,,,,,,,,,,,,,,,,,,,,,,,,,,,,,,,,,,,,,,,,
,,,,,,615c453806ba1a372800c832,62bbf94902033623e37e4b30,2022-06-29_09h04.29.654,Colour_Asymmetry_Pilot,2022.1.3,Win32,60.0276127,62bbe60bf3d75ef465d3e404,0,88,88,70,1,fourtwo,,,,,,,,,,,,,,,,,,,,,,,,,,,,,,,,,,,,,,,,,,,,,,,,,,,,,,,,,,,,,,,,,,,,,,,,,,,,,,,,,,,,,,,,,,,,,,,,,,,,,,,,,,,,,,,,,,,,,,,,,,,,,,,,,,,,,,,,,,,,,,,,,,,,,,,,
,,,,,,615c453806ba1a372800c832,62bbf94902033623e37e4b30,2022-06-29_09h04.29.654,Colour_Asymmetry_Pilot,2022.1.3,Win32,60.0276127,62bbe60bf3d75ef465d3e404,0,89,89,90,1,twoone,,,,,,,,,,,,,,,,,,,,,,,,,,,,,,,,,,,,,,,,,,,,,,,,,,,,,,,,,,,,,,,,,,,,,,,,,,,,,,,,,,,,,,,,,,,,,,,,,,,,,,,,,,,,,,,,,,,,,,,,,,,,,,,,,,,,,,,,,,,,,,,,,,,,,,,,
,,,,,,615c453806ba1a372800c832,62bbf94902033623e37e4b30,2022-06-29_09h04.29.654,Colour_Asymmetry_Pilot,2022.1.3,Win32,60.0276127,62bbe60bf3d75ef465d3e404,0,90,90,150,1,fourtwo,,,,,,,,,,,,,,,,,,,,,,,,,,,,,,,,,,,,,,,,,,,,,,,,,,,,,,,,,,,,,,,,,,,,,,,,,,,,,,,,,,,,,,,,,,,,,,,,,,,,,,,,,,,,,,,,,,,,,,,,,,,,,,,,,,,,,,,,,,,,,,,,,,,,,,,,
,,,,,,615c453806ba1a372800c832,62bbf94902033623e37e4b30,2022-06-29_09h04.29.654,Colour_Asymmetry_Pilot,2022.1.3,Win32,60.0276127,62bbe60bf3d75ef465d3e404,0,91,91,13,1,threefour,,,,,,,,,,,,,,,,,,,,,,,,,,,,,,,,,,,,,,,,,,,,,,,,,,,,,,,,,,,,,,,,,,,,,,,,,,,,,,,,,,,,,,,,,,,,,,,,,,,,,,,,,,,,,,,,,,,,,,,,,,,,,,,,,,,,,,,,,,,,,,,,,,,,,,,,
,,,,,,615c453806ba1a372800c832,62bbf94902033623e37e4b30,2022-06-29_09h04.29.654,Colour_Asymmetry_Pilot,2022.1.3,Win32,60.0276127,62bbe60bf3d75ef465d3e404,0,92,92,30,1,fourtwo,,,,,,,,,,,,,,,,,,,,,,,,,,,,,,,,,,,,,,,,,,,,,,,,,,,,,,,,,,,,,,,,,,,,,,,,,,,,,,,,,,,,,,,,,,,,,,,,,,,,,,,,,,,,,,,,,,,,,,,,,,,,,,,,,,,,,,,,,,,,,,,,,,,,,,,,
,,,,,,615c453806ba1a372800c832,62bbf94902033623e37e4b30,2022-06-29_09h04.29.654,Colour_Asymmetry_Pilot,2022.1.3,Win32,60.0276127,62bbe60bf3d75ef465d3e404,0,93,93,126,1,fourtwo,,,,,,,,,,,,,,,,,,,,,,,,,,,,,,,,,,,,,,,,,,,,,,,,,,,,,,,,,,,,,,,,,,,,,,,,,,,,,,,,,,,,,,,,,,,,,,,,,,,,,,,,,,,,,,,,,,,,,,,,,,,,,,,,,,,,,,,,,,,,,,,,,,,,,,,,
,,,,,,615c453806ba1a372800c832,62bbf94902033623e37e4b30,2022-06-29_09h04.29.654,Colour_Asymmetry_Pilot,2022.1.3,Win32,60.0276127,62bbe60bf3d75ef465d3e404,0,94,94,69,1,threefour,,,,,,,,,,,,,,,,,,,,,,,,,,,,,,,,,,,,,,,,,,,,,,,,,,,,,,,,,,,,,,,,,,,,,,,,,,,,,,,,,,,,,,,,,,,,,,,,,,,,,,,,,,,,,,,,,,,,,,,,,,,,,,,,,,,,,,,,,,,,,,,,,,,,,,,,
,,,,,,615c453806ba1a372800c832,62bbf94902033623e37e4b30,2022-06-29_09h04.29.654,Colour_Asymmetry_Pilot,2022.1.3,Win32,60.0276127,62bbe60bf3d75ef465d3e404,0,95,95,98,1,twoone,,,,,,,,,,,,,,,,,,,,,,,,,,,,,,,,,,,,,,,,,,,,,,,,,,,,,,,,,,,,,,,,,,,,,,,,,,,,,,,,,,,,,,,,,,,,,,,,,,,,,,,,,,,,,,,,,,,,,,,,,,,,,,,,,,,,,,,,,,,,,,,,,,,,,,,,
,,,,,,615c453806ba1a372800c832,62bbf94902033623e37e4b30,2022-06-29_09h04.29.654,Colour_Asymmetry_Pilot,2022.1.3,Win32,60.0276127,62bbe60bf3d75ef465d3e404,0,96,96,29,1,threefour,,,,,,,,,,,,,,,,,,,,,,,,,,,,,,,,,,,,,,,,,,,,,,,,,,,,,,,,,,,,,,,,,,,,,,,,,,,,,,,,,,,,,,,,,,,,,,,,,,,,,,,,,,,,,,,,,,,,,,,,,,,,,,,,,,,,,,,,,,,,,,,,,,,,,,,,
,,,,,,615c453806ba1a372800c832,62bbf94902033623e37e4b30,2022-06-29_09h04.29.654,Colour_Asymmetry_Pilot,2022.1.3,Win32,60.0276127,62bbe60bf3d75ef465d3e404,0,97,97,5,1,threefour,,,,,,,,,,,,,,,,,,,,,,,,,,,,,,,,,,,,,,,,,,,,,,,,,,,,,,,,,,,,,,,,,,,,,,,,,,,,,,,,,,,,,,,,,,,,,,,,,,,,,,,,,,,,,,,,,,,,,,,,,,,,,,,,,,,,,,,,,,,,,,,,,,,,,,,,
,,,,,,615c453806ba1a372800c832,62bbf94902033623e37e4b30,2022-06-29_09h04.29.654,Colour_Asymmetry_Pilot,2022.1.3,Win32,60.0276127,62bbe60bf3d75ef465d3e404,0,98,98,46,1,fourtwo,,,,,,,,,,,,,,,,,,,,,,,,,,,,,,,,,,,,,,,,,,,,,,,,,,,,,,,,,,,,,,,,,,,,,,,,,,,,,,,,,,,,,,,,,,,,,,,,,,,,,,,,,,,,,,,,,,,,,,,,,,,,,,,,,,,,,,,,,,,,,,,,,,,,,,,,
,,,,,,615c453806ba1a372800c832,62bbf94902033623e37e4b30,2022-06-29_09h04.29.654,Colour_Asymmetry_Pilot,2022.1.3,Win32,60.0276127,62bbe60bf3d75ef465d3e404,0,99,99,110,1,fourtwo,,,,,,,,,,,,,,,,,,,,,,,,,,,,,,,,,,,,,,,,,,,,,,,,,,,,,,,,,,,,,,,,,,,,,,,,,,,,,,,,,,,,,,,,,,,,,,,,,,,,,,,,,,,,,,,,,,,,,,,,,,,,,,,,,,,,,,,,,,,,,,,,,,,,,,,,
,,,,,,615c453806ba1a372800c832,62bbf94902033623e37e4b30,2022-06-29_09h04.29.654,Colour_Asymmetry_Pilot,2022.1.3,Win32,60.0276127,62bbe60bf3d75ef465d3e404,0,100,100,129,1,onethree,,,,,,,,,,,,,,,,,,,,,,,,,,,,,,,,,,,,,,,,,,,,,,,,,,,,,,,,,,,,,,,,,,,,,,,,,,,,,,,,,,,,,,,,,,,,,,,,,,,,,,,,,,,,,,,,,,,,,,,,,,,,,,,,,,,,,,,,,,,,,,,,,,,,,,,,
,,,,,,615c453806ba1a372800c832,62bbf94902033623e37e4b30,2022-06-29_09h04.29.654,Colour_Asymmetry_Pilot,2022.1.3,Win32,60.0276127,62bbe60bf3d75ef465d3e404,0,101,101,57,1,onethree,,,,,,,,,,,,,,,,,,,,,,,,,,,,,,,,,,,,,,,,,,,,,,,,,,,,,,,,,,,,,,,,,,,,,,,,,,,,,,,,,,,,,,,,,,,,,,,,,,,,,,,,,,,,,,,,,,,,,,,,,,,,,,,,,,,,,,,,,,,,,,,,,,,,,,,,
,,,,,,615c453806ba1a372800c832,62bbf94902033623e37e4b30,2022-06-29_09h04.29.654,Colour_Asymmetry_Pilot,2022.1.3,Win32,60.0276127,62bbe60bf3d75ef465d3e404,0,102,102,157,1,threefour,,,,,,,,,,,,,,,,,,,,,,,,,,,,,,,,,,,,,,,,,,,,,,,,,,,,,,,,,,,,,,,,,,,,,,,,,,,,,,,,,,,,,,,,,,,,,,,,,,,,,,,,,,,,,,,,,,,,,,,,,,,,,,,,,,,,,,,,,,,,,,,,,,,,,,,,
,,,,,,615c453806ba1a372800c832,62bbf94902033623e37e4b30,2022-06-29_09h04.29.654,Colour_Asymmetry_Pilot,2022.1.3,Win32,60.0276127,62bbe60bf3d75ef465d3e404,0,103,103,43,1,twofour,,,,,,,,,,,,,,,,,,,,,,,,,,,,,,,,,,,,,,,,,,,,,,,,,,,,,,,,,,,,,,,,,,,,,,,,,,,,,,,,,,,,,,,,,,,,,,,,,,,,,,,,,,,,,,,,,,,,,,,,,,,,,,,,,,,,,,,,,,,,,,,,,,,,,,,,
,,,,,,615c453806ba1a372800c832,62bbf94902033623e37e4b30,2022-06-29_09h04.29.654,Colour_Asymmetry_Pilot,2022.1.3,Win32,60.0276127,62bbe60bf3d75ef465d3e404,0,104,104,127,1,fourthree,,,,,,,,,,,,,,,,,,,,,,,,,,,,,,,,,,,,,,,,,,,,,,,,,,,,,,,,,,,,,,,,,,,,,,,,,,,,,,,,,,,,,,,,,,,,,,,,,,,,,,,,,,,,,,,,,,,,,,,,,,,,,,,,,,,,,,,,,,,,,,,,,,,,,,,,
,,,,,,615c453806ba1a372800c832,62bbf94902033623e37e4b30,2022-06-29_09h04.29.654,Colour_Asymmetry_Pilot,2022.1.3,Win32,60.0276127,62bbe60bf3d75ef465d3e404,0,105,105,140,1,threeone,,,,,,,,,,,,,,,,,,,,,,,,,,,,,,,,,,,,,,,,,,,,,,,,,,,,,,,,,,,,,,,,,,,,,,,,,,,,,,,,,,,,,,,,,,,,,,,,,,,,,,,,,,,,,,,,,,,,,,,,,,,,,,,,,,,,,,,,,,,,,,,,,,,,,,,,
,,,,,,615c453806ba1a372800c832,62bbf94902033623e37e4b30,2022-06-29_09h04.29.654,Colour_Asymmetry_Pilot,2022.1.3,Win32,60.0276127,62bbe60bf3d75ef465d3e404,0,106,106,136,1,onetwo,,,,,,,,,,,,,,,,,,,,,,,,,,,,,,,,,,,,,,,,,,,,,,,,,,,,,,,,,,,,,,,,,,,,,,,,,,,,,,,,,,,,,,,,,,,,,,,,,,,,,,,,,,,,,,,,,,,,,,,,,,,,,,,,,,,,,,,,,,,,,,,,,,,,,,,,
,,,,,,615c453806ba1a372800c832,62bbf94902033623e37e4b30,2022-06-29_09h04.29.654,Colour_Asymmetry_Pilot,2022.1.3,Win32,60.0276127,62bbe60bf3d75ef465d3e404,0,107,107,138,1,twoone,,,,,,,,,,,,,,,,,,,,,,,,,,,,,,,,,,,,,,,,,,,,,,,,,,,,,,,,,,,,,,,,,,,,,,,,,,,,,,,,,,,,,,,,,,,,,,,,,,,,,,,,,,,,,,,,,,,,,,,,,,,,,,,,,,,,,,,,,,,,,,,,,,,,,,,,
,,,,,,615c453806ba1a372800c832,62bbf94902033623e37e4b30,2022-06-29_09h04.29.654,Colour_Asymmetry_Pilot,2022.1.3,Win32,60.0276127,62bbe60bf3d75ef465d3e404,0,108,108,17,1,onethree,,,,,,,,,,,,,,,,,,,,,,,,,,,,,,,,,,,,,,,,,,,,,,,,,,,,,,,,,,,,,,,,,,,,,,,,,,,,,,,,,,,,,,,,,,,,,,,,,,,,,,,,,,,,,,,,,,,,,,,,,,,,,,,,,,,,,,,,,,,,,,,,,,,,,,,,
,,,,,,615c453806ba1a372800c832,62bbf94902033623e37e4b30,2022-06-29_09h04.29.654,Colour_Asymmetry_Pilot,2022.1.3,Win32,60.0276127,62bbe60bf3d75ef465d3e404,0,109,109,50,1,twoone,,,,,,,,,,,,,,,,,,,,,,,,,,,,,,,,,,,,,,,,,,,,,,,,,,,,,,,,,,,,,,,,,,,,,,,,,,,,,,,,,,,,,,,,,,,,,,,,,,,,,,,,,,,,,,,,,,,,,,,,,,,,,,,,,,,,,,,,,,,,,,,,,,,,,,,,
,,,,,,615c453806ba1a372800c832,62bbf94902033623e37e4b30,2022-06-29_09h04.29.654,Colour_Asymmetry_Pilot,2022.1.3,Win32,60.0276127,62bbe60bf3d75ef465d3e404,0,110,110,32,1,onetwo,,,,,,,,,,,,,,,,,,,,,,,,,,,,,,,,,,,,,,,,,,,,,,,,,,,,,,,,,,,,,,,,,,,,,,,,,,,,,,,,,,,,,,,,,,,,,,,,,,,,,,,,,,,,,,,,,,,,,,,,,,,,,,,,,,,,,,,,,,,,,,,,,,,,,,,,
,,,,,,615c453806ba1a372800c832,62bbf94902033623e37e4b30,2022-06-29_09h04.29.654,Colour_Asymmetry_Pilot,2022.1.3,Win32,60.0276127,62bbe60bf3d75ef465d3e404,0,111,111,61,1,threefour,,,,,,,,,,,,,,,,,,,,,,,,,,,,,,,,,,,,,,,,,,,,,,,,,,,,,,,,,,,,,,,,,,,,,,,,,,,,,,,,,,,,,,,,,,,,,,,,,,,,,,,,,,,,,,,,,,,,,,,,,,,,,,,,,,,,,,,,,,,,,,,,,,,,,,,,
,,,,,,615c453806ba1a372800c832,62bbf94902033623e37e4b30,2022-06-29_09h04.29.654,Colour_Asymmetry_Pilot,2022.1.3,Win32,60.0276127,62bbe60bf3d75ef465d3e404,0,112,112,105,1,onethree,,,,,,,,,,,,,,,,,,,,,,,,,,,,,,,,,,,,,,,,,,,,,,,,,,,,,,,,,,,,,,,,,,,,,,,,,,,,,,,,,,,,,,,,,,,,,,,,,,,,,,,,,,,,,,,,,,,,,,,,,,,,,,,,,,,,,,,,,,,,,,,,,,,,,,,,
,,,,,,615c453806ba1a372800c832,62bbf94902033623e37e4b30,2022-06-29_09h04.29.654,Colour_Asymmetry_Pilot,2022.1.3,Win32,60.0276127,62bbe60bf3d75ef465d3e404,0,113,113,147,1,twofour,,,,,,,,,,,,,,,,,,,,,,,,,,,,,,,,,,,,,,,,,,,,,,,,,,,,,,,,,,,,,,,,,,,,,,,,,,,,,,,,,,,,,,,,,,,,,,,,,,,,,,,,,,,,,,,,,,,,,,,,,,,,,,,,,,,,,,,,,,,,,,,,,,,,,,,,
,,,,,,615c453806ba1a372800c832,62bbf94902033623e37e4b30,2022-06-29_09h04.29.654,Colour_Asymmetry_Pilot,2022.1.3,Win32,60.0276127,62bbe60bf3d75ef465d3e404,0,114,114,148,1,threeone,,,,,,,,,,,,,,,,,,,,,,,,,,,,,,,,,,,,,,,,,,,,,,,,,,,,,,,,,,,,,,,,,,,,,,,,,,,,,,,,,,,,,,,,,,,,,,,,,,,,,,,,,,,,,,,,,,,,,,,,,,,,,,,,,,,,,,,,,,,,,,,,,,,,,,,,
,,,,,,615c453806ba1a372800c832,62bbf94902033623e37e4b30,2022-06-29_09h04.29.654,Colour_Asymmetry_Pilot,2022.1.3,Win32,60.0276127,62bbe60bf3d75ef465d3e404,0,115,115,118,1,fourtwo,,,,,,,,,,,,,,,,,,,,,,,,,,,,,,,,,,,,,,,,,,,,,,,,,,,,,,,,,,,,,,,,,,,,,,,,,,,,,,,,,,,,,,,,,,,,,,,,,,,,,,,,,,,,,,,,,,,,,,,,,,,,,,,,,,,,,,,,,,,,,,,,,,,,,,,,
,,,,,,615c453806ba1a372800c832,62bbf94902033623e37e4b30,2022-06-29_09h04.29.654,Colour_Asymmetry_Pilot,2022.1.3,Win32,60.0276127,62bbe60bf3d75ef465d3e404,0,116,116,108,1,threeone,,,,,,,,,,,,,,,,,,,,,,,,,,,,,,,,,,,,,,,,,,,,,,,,,,,,,,,,,,,,,,,,,,,,,,,,,,,,,,,,,,,,,,,,,,,,,,,,,,,,,,,,,,,,,,,,,,,,,,,,,,,,,,,,,,,,,,,,,,,,,,,,,,,,,,,,
,,,,,,615c453806ba1a372800c832,62bbf94902033623e37e4b30,2022-06-29_09h04.29.654,Colour_Asymmetry_Pilot,2022.1.3,Win32,60.0276127,62bbe60bf3d75ef465d3e404,0,117,117,75,1,twofour,,,,,,,,,,,,,,,,,,,,,,,,,,,,,,,,,,,,,,,,,,,,,,,,,,,,,,,,,,,,,,,,,,,,,,,,,,,,,,,,,,,,,,,,,,,,,,,,,,,,,,,,,,,,,,,,,,,,,,,,,,,,,,,,,,,,,,,,,,,,,,,,,,,,,,,,
,,,,,,615c453806ba1a372800c832,62bbf94902033623e37e4b30,2022-06-29_09h04.29.654,Colour_Asymmetry_Pilot,2022.1.3,Win32,60.0276127,62bbe60bf3d75ef465d3e404,0,118,118,62,1,fourtwo,,,,,,,,,,,,,,,,,,,,,,,,,,,,,,,,,,,,,,,,,,,,,,,,,,,,,,,,,,,,,,,,,,,,,,,,,,,,,,,,,,,,,,,,,,,,,,,,,,,,,,,,,,,,,,,,,,,,,,,,,,,,,,,,,,,,,,,,,,,,,,,,,,,,,,,,
,,,,,,615c453806ba1a372800c832,62bbf94902033623e37e4b30,2022-06-29_09h04.29.654,Colour_Asymmetry_Pilot,2022.1.3,Win32,60.0276127,62bbe60bf3d75ef465d3e404,0,119,119,91,1,twofour,,,,,,,,,,,,,,,,,,,,,,,,,,,,,,,,,,,,,,,,,,,,,,,,,,,,,,,,,,,,,,,,,,,,,,,,,,,,,,,,,,,,,,,,,,,,,,,,,,,,,,,,,,,,,,,,,,,,,,,,,,,,,,,,,,,,,,,,,,,,,,,,,,,,,,,,
,,,,,,615c453806ba1a372800c832,62bbf94902033623e37e4b30,2022-06-29_09h04.29.654,Colour_Asymmetry_Pilot,2022.1.3,Win32,60.0276127,62bbe60bf3d75ef465d3e404,0,120,120,76,1,threeone,,,,,,,,,,,,,,,,,,,,,,,,,,,,,,,,,,,,,,,,,,,,,,,,,,,,,,,,,,,,,,,,,,,,,,,,,,,,,,,,,,,,,,,,,,,,,,,,,,,,,,,,,,,,,,,,,,,,,,,,,,,,,,,,,,,,,,,,,,,,,,,,,,,,,,,,
,,,,,,615c453806ba1a372800c832,62bbf94902033623e37e4b30,2022-06-29_09h04.29.654,Colour_Asymmetry_Pilot,2022.1.3,Win32,60.0276127,62bbe60bf3d75ef465d3e404,0,121,121,7,1,fourthree,,,,,,,,,,,,,,,,,,,,,,,,,,,,,,,,,,,,,,,,,,,,,,,,,,,,,,,,,,,,,,,,,,,,,,,,,,,,,,,,,,,,,,,,,,,,,,,,,,,,,,,,,,,,,,,,,,,,,,,,,,,,,,,,,,,,,,,,,,,,,,,,,,,,,,,,
,,,,,,615c453806ba1a372800c832,62bbf94902033623e37e4b30,2022-06-29_09h04.29.654,Colour_Asymmetry_Pilot,2022.1.3,Win32,60.0276127,62bbe60bf3d75ef465d3e404,0,122,122,120,1,onetwo,,,,,,,,,,,,,,,,,,,,,,,,,,,,,,,,,,,,,,,,,,,,,,,,,,,,,,,,,,,,,,,,,,,,,,,,,,,,,,,,,,,,,,,,,,,,,,,,,,,,,,,,,,,,,,,,,,,,,,,,,,,,,,,,,,,,,,,,,,,,,,,,,,,,,,,,
,,,,,,615c453806ba1a372800c832,62bbf94902033623e37e4b30,2022-06-29_09h04.29.654,Colour_Asymmetry_Pilot,2022.1.3,Win32,60.0276127,62bbe60bf3d75ef465d3e404,0,123,123,146,1,twoone,,,,,,,,,,,,,,,,,,,,,,,,,,,,,,,,,,,,,,,,,,,,,,,,,,,,,,,,,,,,,,,,,,,,,,,,,,,,,,,,,,,,,,,,,,,,,,,,,,,,,,,,,,,,,,,,,,,,,,,,,,,,,,,,,,,,,,,,,,,,,,,,,,,,,,,,
,,,,,,615c453806ba1a372800c832,62bbf94902033623e37e4b30,2022-06-29_09h04.29.654,Colour_Asymmetry_Pilot,2022.1.3,Win32,60.0276127,62bbe60bf3d75ef465d3e404,0,124,124,63,1,fourthree,,,,,,,,,,,,,,,,,,,,,,,,,,,,,,,,,,,,,,,,,,,,,,,,,,,,,,,,,,,,,,,,,,,,,,,,,,,,,,,,,,,,,,,,,,,,,,,,,,,,,,,,,,,,,,,,,,,,,,,,,,,,,,,,,,,,,,,,,,,,,,,,,,,,,,,,
,,,,,,615c453806ba1a372800c832,62bbf94902033623e37e4b30,2022-06-29_09h04.29.654,Colour_Asymmetry_Pilot,2022.1.3,Win32,60.0276127,62bbe60bf3d75ef465d3e404,0,125,125,47,1,fourthree,,,,,,,,,,,,,,,,,,,,,,,,,,,,,,,,,,,,,,,,,,,,,,,,,,,,,,,,,,,,,,,,,,,,,,,,,,,,,,,,,,,,,,,,,,,,,,,,,,,,,,,,,,,,,,,,,,,,,,,,,,,,,,,,,,,,,,,,,,,,,,,,,,,,,,,,
,,,,,,615c453806ba1a372800c832,62bbf94902033623e37e4b30,2022-06-29_09h04.29.654,Colour_Asymmetry_Pilot,2022.1.3,Win32,60.0276127,62bbe60bf3d75ef465d3e404,0,126,126,154,1,twoone,,,,,,,,,,,,,,,,,,,,,,,,,,,,,,,,,,,,,,,,,,,,,,,,,,,,,,,,,,,,,,,,,,,,,,,,,,,,,,,,,,,,,,,,,,,,,,,,,,,,,,,,,,,,,,,,,,,,,,,,,,,,,,,,,,,,,,,,,,,,,,,,,,,,,,,,
,,,,,,615c453806ba1a372800c832,62bbf94902033623e37e4b30,2022-06-29_09h04.29.654,Colour_Asymmetry_Pilot,2022.1.3,Win32,60.0276127,62bbe60bf3d75ef465d3e404,0,127,127,38,1,fourtwo,,,,,,,,,,,,,,,,,,,,,,,,,,,,,,,,,,,,,,,,,,,,,,,,,,,,,,,,,,,,,,,,,,,,,,,,,,,,,,,,,,,,,,,,,,,,,,,,,,,,,,,,,,,,,,,,,,,,,,,,,,,,,,,,,,,,,,,,,,,,,,,,,,,,,,,,
,,,,,,615c453806ba1a372800c832,62bbf94902033623e37e4b30,2022-06-29_09h04.29.654,Colour_Asymmetry_Pilot,2022.1.3,Win32,60.0276127,62bbe60bf3d75ef465d3e404,0,128,128,74,1,twoone,,,,,,,,,,,,,,,,,,,,,,,,,,,,,,,,,,,,,,,,,,,,,,,,,,,,,,,,,,,,,,,,,,,,,,,,,,,,,,,,,,,,,,,,,,,,,,,,,,,,,,,,,,,,,,,,,,,,,,,,,,,,,,,,,,,,,,,,,,,,,,,,,,,,,,,,
,,,,,,615c453806ba1a372800c832,62bbf94902033623e37e4b30,2022-06-29_09h04.29.654,Colour_Asymmetry_Pilot,2022.1.3,Win32,60.0276127,62bbe60bf3d75ef465d3e404,0,129,129,19,1,twofour,,,,,,,,,,,,,,,,,,,,,,,,,,,,,,,,,,,,,,,,,,,,,,,,,,,,,,,,,,,,,,,,,,,,,,,,,,,,,,,,,,,,,,,,,,,,,,,,,,,,,,,,,,,,,,,,,,,,,,,,,,,,,,,,,,,,,,,,,,,,,,,,,,,,,,,,
,,,,,,615c453806ba1a372800c832,62bbf94902033623e37e4b30,2022-06-29_09h04.29.654,Colour_Asymmetry_Pilot,2022.1.3,Win32,60.0276127,62bbe60bf3d75ef465d3e404,0,130,130,86,1,fourtwo,,,,,,,,,,,,,,,,,,,,,,,,,,,,,,,,,,,,,,,,,,,,,,,,,,,,,,,,,,,,,,,,,,,,,,,,,,,,,,,,,,,,,,,,,,,,,,,,,,,,,,,,,,,,,,,,,,,,,,,,,,,,,,,,,,,,,,,,,,,,,,,,,,,,,,,,
,,,,,,615c453806ba1a372800c832,62bbf94902033623e37e4b30,2022-06-29_09h04.29.654,Colour_Asymmetry_Pilot,2022.1.3,Win32,60.0276127,62bbe60bf3d75ef465d3e404,0,131,131,115,1,twofour,,,,,,,,,,,,,,,,,,,,,,,,,,,,,,,,,,,,,,,,,,,,,,,,,,,,,,,,,,,,,,,,,,,,,,,,,,,,,,,,,,,,,,,,,,,,,,,,,,,,,,,,,,,,,,,,,,,,,,,,,,,,,,,,,,,,,,,,,,,,,,,,,,,,,,,,
,,,,,,615c453806ba1a372800c832,62bbf94902033623e37e4b30,2022-06-29_09h04.29.654,Colour_Asymmetry_Pilot,2022.1.3,Win32,60.0276127,62bbe60bf3d75ef465d3e404,0,132,132,83,1,twofour,,,,,,,,,,,,,,,,,,,,,,,,,,,,,,,,,,,,,,,,,,,,,,,,,,,,,,,,,,,,,,,,,,,,,,,,,,,,,,,,,,,,,,,,,,,,,,,,,,,,,,,,,,,,,,,,,,,,,,,,,,,,,,,,,,,,,,,,,,,,,,,,,,,,,,,,
,,,,,,615c453806ba1a372800c832,62bbf94902033623e37e4b30,2022-06-29_09h04.29.654,Colour_Asymmetry_Pilot,2022.1.3,Win32,60.0276127,62bbe60bf3d75ef465d3e404,0,133,133,55,1,fourthree,,,,,,,,,,,,,,,,,,,,,,,,,,,,,,,,,,,,,,,,,,,,,,,,,,,,,,,,,,,,,,,,,,,,,,,,,,,,,,,,,,,,,,,,,,,,,,,,,,,,,,,,,,,,,,,,,,,,,,,,,,,,,,,,,,,,,,,,,,,,,,,,,,,,,,,,
,,,,,,615c453806ba1a372800c832,62bbf94902033623e37e4b30,2022-06-29_09h04.29.654,Colour_Asymmetry_Pilot,2022.1.3,Win32,60.0276127,62bbe60bf3d75ef465d3e404,0,134,134,99,1,twofour,,,,,,,,,,,,,,,,,,,,,,,,,,,,,,,,,,,,,,,,,,,,,,,,,,,,,,,,,,,,,,,,,,,,,,,,,,,,,,,,,,,,,,,,,,,,,,,,,,,,,,,,,,,,,,,,,,,,,,,,,,,,,,,,,,,,,,,,,,,,,,,,,,,,,,,,
,,,,,,615c453806ba1a372800c832,62bbf94902033623e37e4b30,2022-06-29_09h04.29.654,Colour_Asymmetry_Pilot,2022.1.3,Win32,60.0276127,62bbe60bf3d75ef465d3e404,0,135,135,107,1,twofour,,,,,,,,,,,,,,,,,,,,,,,,,,,,,,,,,,,,,,,,,,,,,,,,,,,,,,,,,,,,,,,,,,,,,,,,,,,,,,,,,,,,,,,,,,,,,,,,,,,,,,,,,,,,,,,,,,,,,,,,,,,,,,,,,,,,,,,,,,,,,,,,,,,,,,,,
,,,,,,615c453806ba1a372800c832,62bbf94902033623e37e4b30,2022-06-29_09h04.29.654,Colour_Asymmetry_Pilot,2022.1.3,Win32,60.0276127,62bbe60bf3d75ef465d3e404,0,136,136,89,1,onethree,,,,,,,,,,,,,,,,,,,,,,,,,,,,,,,,,,,,,,,,,,,,,,,,,,,,,,,,,,,,,,,,,,,,,,,,,,,,,,,,,,,,,,,,,,,,,,,,,,,,,,,,,,,,,,,,,,,,,,,,,,,,,,,,,,,,,,,,,,,,,,,,,,,,,,,,
,,,,,,615c453806ba1a372800c832,62bbf94902033623e37e4b30,2022-06-29_09h04.29.654,Colour_Asymmetry_Pilot,2022.1.3,Win32,60.0276127,62bbe60bf3d75ef465d3e404,0,137,137,8,1,onetwo,,,,,,,,,,,,,,,,,,,,,,,,,,,,,,,,,,,,,,,,,,,,,,,,,,,,,,,,,,,,,,,,,,,,,,,,,,,,,,,,,,,,,,,,,,,,,,,,,,,,,,,,,,,,,,,,,,,,,,,,,,,,,,,,,,,,,,,,,,,,,,,,,,,,,,,,
,,,,,,615c453806ba1a372800c832,62bbf94902033623e37e4b30,2022-06-29_09h04.29.654,Colour_Asymmetry_Pilot,2022.1.3,Win32,60.0276127,62bbe60bf3d75ef465d3e404,0,138,138,60,1,threeone,,,,,,,,,,,,,,,,,,,,,,,,,,,,,,,,,,,,,,,,,,,,,,,,,,,,,,,,,,,,,,,,,,,,,,,,,,,,,,,,,,,,,,,,,,,,,,,,,,,,,,,,,,,,,,,,,,,,,,,,,,,,,,,,,,,,,,,,,,,,,,,,,,,,,,,,
,,,,,,615c453806ba1a372800c832,62bbf94902033623e37e4b30,2022-06-29_09h04.29.654,Colour_Asymmetry_Pilot,2022.1.3,Win32,60.0276127,62bbe60bf3d75ef465d3e404,0,139,139,6,1,fourtwo,,,,,,,,,,,,,,,,,,,,,,,,,,,,,,,,,,,,,,,,,,,,,,,,,,,,,,,,,,,,,,,,,,,,,,,,,,,,,,,,,,,,,,,,,,,,,,,,,,,,,,,,,,,,,,,,,,,,,,,,,,,,,,,,,,,,,,,,,,,,,,,,,,,,,,,,
,,,,,,615c453806ba1a372800c832,62bbf94902033623e37e4b30,2022-06-29_09h04.29.654,Colour_Asymmetry_Pilot,2022.1.3,Win32,60.0276127,62bbe60bf3d75ef465d3e404,0,140,140,141,1,threefour,,,,,,,,,,,,,,,,,,,,,,,,,,,,,,,,,,,,,,,,,,,,,,,,,,,,,,,,,,,,,,,,,,,,,,,,,,,,,,,,,,,,,,,,,,,,,,,,,,,,,,,,,,,,,,,,,,,,,,,,,,,,,,,,,,,,,,,,,,,,,,,,,,,,,,,,
,,,,,,615c453806ba1a372800c832,62bbf94902033623e37e4b30,2022-06-29_09h04.29.654,Colour_Asymmetry_Pilot,2022.1.3,Win32,60.0276127,62bbe60bf3d75ef465d3e404,0,141,141,22,1,fourtwo,,,,,,,,,,,,,,,,,,,,,,,,,,,,,,,,,,,,,,,,,,,,,,,,,,,,,,,,,,,,,,,,,,,,,,,,,,,,,,,,,,,,,,,,,,,,,,,,,,,,,,,,,,,,,,,,,,,,,,,,,,,,,,,,,,,,,,,,,,,,,,,,,,,,,,,,
,,,,,,615c453806ba1a372800c832,62bbf94902033623e37e4b30,2022-06-29_09h04.29.654,Colour_Asymmetry_Pilot,2022.1.3,Win32,60.0276127,62bbe60bf3d75ef465d3e404,0,142,142,68,1,threeone,,,,,,,,,,,,,,,,,,,,,,,,,,,,,,,,,,,,,,,,,,,,,,,,,,,,,,,,,,,,,,,,,,,,,,,,,,,,,,,,,,,,,,,,,,,,,,,,,,,,,,,,,,,,,,,,,,,,,,,,,,,,,,,,,,,,,,,,,,,,,,,,,,,,,,,,
,,,,,,615c453806ba1a372800c832,62bbf94902033623e37e4b30,2022-06-29_09h04.29.654,Colour_Asymmetry_Pilot,2022.1.3,Win32,60.0276127,62bbe60bf3d75ef465d3e404,0,143,143,94,1,fourtwo,,,,,,,,,,,,,,,,,,,,,,,,,,,,,,,,,,,,,,,,,,,,,,,,,,,,,,,,,,,,,,,,,,,,,,,,,,,,,,,,,,,,,,,,,,,,,,,,,,,,,,,,,,,,,,,,,,,,,,,,,,,,,,,,,,,,,,,,,,,,,,,,,,,,,,,,
,,,,,,615c453806ba1a372800c832,62bbf94902033623e37e4b30,2022-06-29_09h04.29.654,Colour_Asymmetry_Pilot,2022.1.3,Win32,60.0276127,62bbe60bf3d75ef465d3e404,0,144,144,36,1,threeone,,,,,,,,,,,,,,,,,,,,,,,,,,,,,,,,,,,,,,,,,,,,,,,,,,,,,,,,,,,,,,,,,,,,,,,,,,,,,,,,,,,,,,,,,,,,,,,,,,,,,,,,,,,,,,,,,,,,,,,,,,,,,,,,,,,,,,,,,,,,,,,,,,,,,,,,
,,,,,,615c453806ba1a372800c832,62bbf94902033623e37e4b30,2022-06-29_09h04.29.654,Colour_Asymmetry_Pilot,2022.1.3,Win32,60.0276127,62bbe60bf3d75ef465d3e404,0,145,145,72,1,onetwo,,,,,,,,,,,,,,,,,,,,,,,,,,,,,,,,,,,,,,,,,,,,,,,,,,,,,,,,,,,,,,,,,,,,,,,,,,,,,,,,,,,,,,,,,,,,,,,,,,,,,,,,,,,,,,,,,,,,,,,,,,,,,,,,,,,,,,,,,,,,,,,,,,,,,,,,
,,,,,,615c453806ba1a372800c832,62bbf94902033623e37e4b30,2022-06-29_09h04.29.654,Colour_Asymmetry_Pilot,2022.1.3,Win32,60.0276127,62bbe60bf3d75ef465d3e404,0,146,146,160,1,onetwo,,,,,,,,,,,,,,,,,,,,,,,,,,,,,,,,,,,,,,,,,,,,,,,,,,,,,,,,,,,,,,,,,,,,,,,,,,,,,,,,,,,,,,,,,,,,,,,,,,,,,,,,,,,,,,,,,,,,,,,,,,,,,,,,,,,,,,,,,,,,,,,,,,,,,,,,
,,,,,,615c453806ba1a372800c832,62bbf94902033623e37e4b30,2022-06-29_09h04.29.654,Colour_Asymmetry_Pilot,2022.1.3,Win32,60.0276127,62bbe60bf3d75ef465d3e404,0,147,147,41,1,onethree,,,,,,,,,,,,,,,,,,,,,,,,,,,,,,,,,,,,,,,,,,,,,,,,,,,,,,,,,,,,,,,,,,,,,,,,,,,,,,,,,,,,,,,,,,,,,,,,,,,,,,,,,,,,,,,,,,,,,,,,,,,,,,,,,,,,,,,,,,,,,,,,,,,,,,,,
,,,,,,615c453806ba1a372800c832,62bbf94902033623e37e4b30,2022-06-29_09h04.29.654,Colour_Asymmetry_Pilot,2022.1.3,Win32,60.0276127,62bbe60bf3d75ef465d3e404,0,148,148,114,1,twoone,,,,,,,,,,,,,,,,,,,,,,,,,,,,,,,,,,,,,,,,,,,,,,,,,,,,,,,,,,,,,,,,,,,,,,,,,,,,,,,,,,,,,,,,,,,,,,,,,,,,,,,,,,,,,,,,,,,,,,,,,,,,,,,,,,,,,,,,,,,,,,,,,,,,,,,,
,,,,,,615c453806ba1a372800c832,62bbf94902033623e37e4b30,2022-06-29_09h04.29.654,Colour_Asymmetry_Pilot,2022.1.3,Win32,60.0276127,62bbe60bf3d75ef465d3e404,0,149,149,34,1,twoone,,,,,,,,,,,,,,,,,,,,,,,,,,,,,,,,,,,,,,,,,,,,,,,,,,,,,,,,,,,,,,,,,,,,,,,,,,,,,,,,,,,,,,,,,,,,,,,,,,,,,,,,,,,,,,,,,,,,,,,,,,,,,,,,,,,,,,,,,,,,,,,,,,,,,,,,
,,,,,,615c453806ba1a372800c832,62bbf94902033623e37e4b30,2022-06-29_09h04.29.654,Colour_Asymmetry_Pilot,2022.1.3,Win32,60.0276127,62bbe60bf3d75ef465d3e404,0,150,150,16,1,onetwo,,,,,,,,,,,,,,,,,,,,,,,,,,,,,,,,,,,,,,,,,,,,,,,,,,,,,,,,,,,,,,,,,,,,,,,,,,,,,,,,,,,,,,,,,,,,,,,,,,,,,,,,,,,,,,,,,,,,,,,,,,,,,,,,,,,,,,,,,,,,,,,,,,,,,,,,
,,,,,,615c453806ba1a372800c832,62bbf94902033623e37e4b30,2022-06-29_09h04.29.654,Colour_Asymmetry_Pilot,2022.1.3,Win32,60.0276127,62bbe60bf3d75ef465d3e404,0,151,151,95,1,fourthree,,,,,,,,,,,,,,,,,,,,,,,,,,,,,,,,,,,,,,,,,,,,,,,,,,,,,,,,,,,,,,,,,,,,,,,,,,,,,,,,,,,,,,,,,,,,,,,,,,,,,,,,,,,,,,,,,,,,,,,,,,,,,,,,,,,,,,,,,,,,,,,,,,,,,,,,
,,,,,,615c453806ba1a372800c832,62bbf94902033623e37e4b30,2022-06-29_09h04.29.654,Colour_Asymmetry_Pilot,2022.1.3,Win32,60.0276127,62bbe60bf3d75ef465d3e404,0,152,152,67,1,twofour,,,,,,,,,,,,,,,,,,,,,,,,,,,,,,,,,,,,,,,,,,,,,,,,,,,,,,,,,,,,,,,,,,,,,,,,,,,,,,,,,,,,,,,,,,,,,,,,,,,,,,,,,,,,,,,,,,,,,,,,,,,,,,,,,,,,,,,,,,,,,,,,,,,,,,,,
,,,,,,615c453806ba1a372800c832,62bbf94902033623e37e4b30,2022-06-29_09h04.29.654,Colour_Asymmetry_Pilot,2022.1.3,Win32,60.0276127,62bbe60bf3d75ef465d3e404,0,153,153,106,1,twoone,,,,,,,,,,,,,,,,,,,,,,,,,,,,,,,,,,,,,,,,,,,,,,,,,,,,,,,,,,,,,,,,,,,,,,,,,,,,,,,,,,,,,,,,,,,,,,,,,,,,,,,,,,,,,,,,,,,,,,,,,,,,,,,,,,,,,,,,,,,,,,,,,,,,,,,,
,,,,,,615c453806ba1a372800c832,62bbf94902033623e37e4b30,2022-06-29_09h04.29.654,Colour_Asymmetry_Pilot,2022.1.3,Win32,60.0276127,62bbe60bf3d75ef465d3e404,0,154,154,121,1,onethree,,,,,,,,,,,,,,,,,,,,,,,,,,,,,,,,,,,,,,,,,,,,,,,,,,,,,,,,,,,,,,,,,,,,,,,,,,,,,,,,,,,,,,,,,,,,,,,,,,,,,,,,,,,,,,,,,,,,,,,,,,,,,,,,,,,,,,,,,,,,,,,,,,,,,,,,
,,,,,,615c453806ba1a372800c832,62bbf94902033623e37e4b30,2022-06-29_09h04.29.654,Colour_Asymmetry_Pilot,2022.1.3,Win32,60.0276127,62bbe60bf3d75ef465d3e404,0,155,155,79,1,fourthree,,,,,,,,,,,,,,,,,,,,,,,,,,,,,,,,,,,,,,,,,,,,,,,,,,,,,,,,,,,,,,,,,,,,,,,,,,,,,,,,,,,,,,,,,,,,,,,,,,,,,,,,,,,,,,,,,,,,,,,,,,,,,,,,,,,,,,,,,,,,,,,,,,,,,,,,
,,,,,,615c453806ba1a372800c832,62bbf94902033623e37e4b30,2022-06-29_09h04.29.654,Colour_Asymmetry_Pilot,2022.1.3,Win32,60.0276127,62bbe60bf3d75ef465d3e404,0,156,156,125,1,threefour,,,,,,,,,,,,,,,,,,,,,,,,,,,,,,,,,,,,,,,,,,,,,,,,,,,,,,,,,,,,,,,,,,,,,,,,,,,,,,,,,,,,,,,,,,,,,,,,,,,,,,,,,,,,,,,,,,,,,,,,,,,,,,,,,,,,,,,,,,,,,,,,,,,,,,,,
,,,,,,615c453806ba1a372800c832,62bbf94902033623e37e4b30,2022-06-29_09h04.29.654,Colour_Asymmetry_Pilot,2022.1.3,Win32,60.0276127,62bbe60bf3d75ef465d3e404,0,157,157,33,1,onethree,,,,,,,,,,,,,,,,,,,,,,,,,,,,,,,,,,,,,,,,,,,,,,,,,,,,,,,,,,,,,,,,,,,,,,,,,,,,,,,,,,,,,,,,,,,,,,,,,,,,,,,,,,,,,,,,,,,,,,,,,,,,,,,,,,,,,,,,,,,,,,,,,,,,,,,,
,,,,,,615c453806ba1a372800c832,62bbf94902033623e37e4b30,2022-06-29_09h04.29.654,Colour_Asymmetry_Pilot,2022.1.3,Win32,60.0276127,62bbe60bf3d75ef465d3e404,0,158,158,4,1,threeone,,,,,,,,,,,,,,,,,,,,,,,,,,,,,,,,,,,,,,,,,,,,,,,,,,,,,,,,,,,,,,,,,,,,,,,,,,,,,,,,,,,,,,,,,,,,,,,,,,,,,,,,,,,,,,,,,,,,,,,,,,,,,,,,,,,,,,,,,,,,,,,,,,,,,,,,
,,,,,,615c453806ba1a372800c832,62bbf94902033623e37e4b30,2022-06-29_09h04.29.654,Colour_Asymmetry_Pilot,2022.1.3,Win32,60.0276127,62bbe60bf3d75ef465d3e404,0,159,159,71,1,fourthree,,,,,,,,,,,,,,,,,,,,,,,,,,,,,,,,,,,,,,,,,,,,,,,,,,,,,,,,,,,,,,,,,,,,,,,,,,,,,,,,,,,,,,,,,,,,,,,,,,,,,,,,,,,,,,,,,,,,,,,,,,,,,,,,,,,,,,,,,,,,,,,,,,,,,,,,
,,,,,,615c453806ba1a372800c832,62bbf94902033623e37e4b30,2022-06-29_09h04.29.654,Colour_Asymmetry_Pilot,2022.1.3,Win32,60.0276127,62bbe60bf3d75ef465d3e404,0,160,160,85,1,threefour,,,,,,,,,,,,,,,,,,,,,,,,,,,,,,,,,,,,,,,,,,,,,,,,,,,,,,,,,,,,,,,,,,,,,,,,,,,,,,,,,,,,,,,,,,,,,,,,,,,,,,,,,,,,,,,,,,,,,,,,,,,,,,,,,,,,,,,,,,,,,,,,,,,,,,,,
,,,,,,615c453806ba1a372800c832,62bbf94902033623e37e4b30,2022-06-29_09h04.29.654,Colour_Asymmetry_Pilot,2022.1.3,Win32,60.0276127,62bbe60bf3d75ef465d3e404,0,161,161,156,1,threeone,,,,,,,,,,,,,,,,,,,,,,,,,,,,,,,,,,,,,,,,,,,,,,,,,,,,,,,,,,,,,,,,,,,,,,,,,,,,,,,,,,,,,,,,,,,,,,,,,,,,,,,,,,,,,,,,,,,,,,,,,,,,,,,,,,,,,,,,,,,,,,,,,,,,,,,,
,,,,,,615c453806ba1a372800c832,62bbf94902033623e37e4b30,2022-06-29_09h04.29.654,Colour_Asymmetry_Pilot,2022.1.3,Win32,60.0276127,62bbe60bf3d75ef465d3e404,,,,,,,space,3.1425,space,15.8942,space,45.9093,space,29.6248,space,13.0455,space,6.6056,"[-0.30200000000000005,0.14500000000000002,0.2784]",threeone,"[-0.07459999999999989,0.12139999999999995,-0.9922]",-4,11.3322,-53.33331299,82.66665649,1,0,0,response7disk_5,-6.666625977,4,1,0,0,rectangle_8,49.33337402,-78.66668701,1,0,0,response3disk_7,4,1,20,-6,1,0,0,rectangle_4,0,0,0,0,1,,,,,,,,,,,,,,,,,,,,,,,,,,,,,,,,,,,,,,,,,,,,,,,,,,,,,,,,,,,,,,,,,,,,,,,,,,,,,,,,,,,,,,,,,,,,,,,,,,,,,,,,
,,,,,,615c453806ba1a372800c832,62bbf94902033623e37e4b30,2022-06-29_09h04.29.654,Colour_Asymmetry_Pilot,2022.1.3,Win32,60.0276127,62bbe60bf3d75ef465d3e404,,,,,,,,,,,,,,,,,,,"[-0.24719999999999998,-0.0354000000000001,0.3175999999999999]",twoone,"[0.9763999999999999,0.8588,-0.05900000000000005]",-4,1.7284,-33.33331299,63.33331299,1,0,0,response7disk_5,-1.333312988,-4.666687012,1,0,0,rectangle_8,-1.333312988,-4.666687012,1,0,0,,,1,-1.333312988,-4.666687012,1,0,0,,1,0,1,0,1,,,,,,,,,,,,,,,,,,,,,,,,,,,,,,,,,,,,,,,,,,,,,,,,,,,,,,,,,,,,,,,,,,,,,,,,,,,,,,,,,,,,,,,,,,,,,,,,,,,,,,,,
,,,,,,615c453806ba1a372800c832,62bbf94902033623e37e4b30,2022-06-29_09h04.29.654,Colour_Asymmetry_Pilot,2022.1.3,Win32,60.0276127,62bbe60bf3d75ef465d3e404,,,,,,,,,,,,,,,,,,,"[-0.6706000000000001,-0.6157999999999999,-0.6786]",fourtwo,"[-0.9216,-0.5529999999999999,-0.3962]",4,3.087,34.66668701,72,1,0,0,response1disk_5,-7.333312988,8.666656494,1,0,0,rectangle_8,-7.333312988,8.666656494,1,0,0,,,1,-7.333312988,8.666656494,1,0,0,,2,0,2,0,1,,,,,,,,,,,,,,,,,,,,,,,,,,,,,,,,,,,,,,,,,,,,,,,,,,,,,,,,,,,,,,,,,,,,,,,,,,,,,,,,,,,,,,,,,,,,,,,,,,,,,,,,
,,,,,,615c453806ba1a372800c832,62bbf94902033623e37e4b30,2022-06-29_09h04.29.654,Colour_Asymmetry_Pilot,2022.1.3,Win32,60.0276127,62bbe60bf3d75ef465d3e404,,,,,,,,,,,,,,,,,,,"[0.3881999999999999,-0.23939999999999995,-0.05040000000000011]",fourthree,"[0.37240000000000006,0.4980000000000002,-0.2864]",-4,2.0958,-32,86,1,0,0,response7disk_5,-14.66662598,7.333312988,1,0,0,rectangle_8,-14.66662598,7.333312988,1,0,0,,,1,-14.66662598,7.333312988,1,0,0,,3,0,3,0,1,,,,,,,,,,,,,,,,,,,,,,,,,,,,,,,,,,,,,,,,,,,,,,,,,,,,,,,,,,,,,,,,,,,,,,,,,,,,,,,,,,,,,,,,,,,,,,,,,,,,,,,,
,,,,,,615c453806ba1a372800c832,62bbf94902033623e37e4b30,2022-06-29_09h04.29.654,Colour_Asymmetry_Pilot,2022.1.3,Win32,60.0276127,62bbe60bf3d75ef465d3e404,,,,,,,,,,,,,,,,,,,"[0.6547999999999998,-0.043199999999999905,-0.011800000000000033]",twoone,"[-0.6235999999999999,-0.6786,-0.08239999999999992]",-4,1.501,-39.33331299,90.66665649,1,0,0,response7disk_5,-10,-0.666687012,1,0,0,rectangle_8,-10,-0.666687012,1,0,0,,,1,-10,-0.666687012,1,0,0,,4,0,4,0,1,,,,,,,,,,,,,,,,,,,,,,,,,,,,,,,,,,,,,,,,,,,,,,,,,,,,,,,,,,,,,,,,,,,,,,,,,,,,,,,,,,,,,,,,,,,,,,,,,,,,,,,,
,,,,,,615c453806ba1a372800c832,62bbf94902033623e37e4b30,2022-06-29_09h04.29.654,Colour_Asymmetry_Pilot,2022.1.3,Win32,60.0276127,62bbe60bf3d75ef465d3e404,,,,,,,,,,,,,,,,,,,"[-0.06680000000000008,-0.45100000000000007,-0.906]",twoone,"[-0.48240000000000005,0.3175999999999999,0.2156]",-4,1.8847,-40.66662598,88,1,0,0,response7disk_5,-0.666625977,-1.333343506,1,0,0,rectangle_8,28,-81.33334351,1,0,0,response3disk_7,4,1,6,8.666656494,1,0,0,rectangle_4,5,0,5,0,1,,,,,,,,,,,,,,,,,,,,,,,,,,,,,,,,,,,,,,,,,,,,,,,,,,,,,,,,,,,,,,,,,,,,,,,,,,,,,,,,,,,,,,,,,,,,,,,,,,,,,,,,
,,,,,,615c453806ba1a372800c832,62bbf94902033623e37e4b30,2022-06-29_09h04.29.654,Colour_Asymmetry_Pilot,2022.1.3,Win32,60.0276127,62bbe60bf3d75ef465d3e404,,,,,,,,,,,,,,,,,,,"[0.34099999999999997,0.12939999999999996,-0.9766]",twoone,"[-0.01980000000000004,-0.5138,-0.38039999999999996]",-4,0.9989,-38.66662598,83.33331299,1,0,0,response7disk_5,-8,-7.333343506,1,0,0,rectangle_8,-8,-7.333343506,1,0,0,,,1,-8,-7.333343506,1,0,0,,6,0,6,0,1,,,,,,,,,,,,,,,,,,,,,,,,,,,,,,,,,,,,,,,,,,,,,,,,,,,,,,,,,,,,,,,,,,,,,,,,,,,,,,,,,,,,,,,,,,,,,,,,,,,,,,,,
,,,,,,615c453806ba1a372800c832,62bbf94902033623e37e4b30,2022-06-29_09h04.29.654,Colour_Asymmetry_Pilot,2022.1.3,Win32,60.0276127,62bbe60bf3d75ef465d3e404,,,,,,,,,,,,,,,,,,,,onethree,,4,2.506,,,,,,,,,,,,,,,,,,,,,,,,,,,,,,,,space,4.6594,"[0.9763999999999999,0.30979999999999985,-0.6786]","[0.8274000000000001,-0.5844,-0.9452]",23.33337402,78.66665649,1,0,0,response1disk,-16,4,1,0,0,rectangle,-16,4,1,0,0,,1,0.0026,0,-16,4,1,0,0,0,0,0,68,1,68,first,,,,,,,,,,,,,,,,,,,,,,,,,,,,,,,,,,,,,,,,,,,,,,,,,,,,,,,,,,,,,,,,,,,
,,,,,,615c453806ba1a372800c832,62bbf94902033623e37e4b30,2022-06-29_09h04.29.654,Colour_Asymmetry_Pilot,2022.1.3,Win32,60.0276127,62bbe60bf3d75ef465d3e404,,,,,,,,,,,,,,,,,,,,fourthree,,4,0.7188,,,,,,,,,,,,,,,,,,,,,,,,,,,,,,,,,,"[-0.24719999999999998,-0.0354000000000001,0.3175999999999999]","[-0.6942,-0.7648,-0.12959999999999994]",26.66668701,80.66665649,1,0,0,response1disk,-8,2,1,0,0,rectangle,-8,2,1,0,0,,1,0.0009,0,-8,2,1,0,0,0,1,1,79,1,79,first,,,,,,,,,,,,,,,,,,,,,,,,,,,,,,,,,,,,,,,,,,,,,,,,,,,,,,,,,,,,,,,,,,,
,,,,,,615c453806ba1a372800c832,62bbf94902033623e37e4b30,2022-06-29_09h04.29.654,Colour_Asymmetry_Pilot,2022.1.3,Win32,60.0276127,62bbe60bf3d75ef465d3e404,,,,,,,,,,,,,,,,,,,,onetwo,,-4,0.6172,,,,,,,,,,,,,,,,,,,,,,,,,,,,,,,,,,"[0.7802,-0.23140000000000005,-0.20799999999999996]","[-0.9844,-0.9688,-0.9922]",-43.33331299,94,1,0,0,response7disk,-2.666625977,5.333312988,1,0,0,rectangle,-2.666625977,5.333312988,1,0,0,,1,0.0002,0,-2.666625977,5.333312988,1,0,0,0,2,2,94,1,13,second,,,,,,,,,,,,,,,,,,,,,,,,,,,,,,,,,,,,,,,,,,,,,,,,,,,,,,,,,,,,,,,,,,,
,,,,,,615c453806ba1a372800c832,62bbf94902033623e37e4b30,2022-06-29_09h04.29.654,Colour_Asymmetry_Pilot,2022.1.3,Win32,60.0276127,62bbe60bf3d75ef465d3e404,,,,,,,,,,,,,,,,,,,,onetwo,,4,0.7844,,,,,,,,,,,,,,,,,,,,,,,,,,,,,,,,,,"[-0.9296,-0.12959999999999994,-0.043199999999999905]","[-0.26280000000000003,-0.4746,-0.2158]",35.33337402,103.333313,1,0,0,response1disk,-4.666625977,3.333312988,1,0,0,rectangle,-4.666625977,3.333312988,1,0,0,,1,0.0003,0,-4.666625977,3.333312988,1,0,0,0,3,3,105,1,24,second,,,,,,,,,,,,,,,,,,,,,,,,,,,,,,,,,,,,,,,,,,,,,,,,,,,,,,,,,,,,,,,,,,,
,,,,,,615c453806ba1a372800c832,62bbf94902033623e37e4b30,2022-06-29_09h04.29.654,Colour_Asymmetry_Pilot,2022.1.3,Win32,60.0276127,62bbe60bf3d75ef465d3e404,,,,,,,,,,,,,,,,,,,,threefour,,-4,0.8679,,,,,,,,,,,,,,,,,,,,,,,,,,,,,,,,,,"[-0.9688,-0.4902000000000001,-0.12159999999999993]","[-0.17659999999999998,-0.2864,-0.8354]",-37.33331299,91.33331299,1,0,0,response7disk,-8.666625977,14,1,0,0,rectangle,-8.666625977,14,1,0,0,,2,0.0017,0,-8.666625977,14,1,0,0,0,4,4,6,1,6,first,,,,,,,,,,,,,,,,,,,,,,,,,,,,,,,,,,,,,,,,,,,,,,,,,,,,,,,,,,,,,,,,,,,
,,,,,,615c453806ba1a372800c832,62bbf94902033623e37e4b30,2022-06-29_09h04.29.654,Colour_Asymmetry_Pilot,2022.1.3,Win32,60.0276127,62bbe60bf3d75ef465d3e404,,,,,,,,,,,,,,,,,,,,threefour,,4,2.2873,,,,,,,,,,,,,,,,,,,,,,,,,,,,,,,,,,"[-0.9688,-0.38039999999999996,-0.41979999999999995]","[-0.10599999999999998,-0.10599999999999998,0.5841999999999998]",25.33337402,79.33331299,1,0,0,response1disk,-5.333312988,11.33331299,1,0,0,rectangle,-5.333312988,11.33331299,1,0,0,,3,0.0011,0,-5.333312988,11.33331299,1,0,0,0,5,5,59,1,59,first,,,,,,,,,,,,,,,,,,,,,,,,,,,,,,,,,,,,,,,,,,,,,,,,,,,,,,,,,,,,,,,,,,,
,,,,,,615c453806ba1a372800c832,62bbf94902033623e37e4b30,2022-06-29_09h04.29.654,Colour_Asymmetry_Pilot,2022.1.3,Win32,60.0276127,62bbe60bf3d75ef465d3e404,,,,,,,,,,,,,,,,,,,,fourthree,,-4,0.6198,,,,,,,,,,,,,,,,,,,,,,,,,,,,,,,,,,"[-0.17659999999999998,0.3253999999999999,0.19999999999999996]","[0.7646000000000002,0.07440000000000002,0.2704]",-35.33331299,64.66665649,1,0,0,response7disk,-8,0,1,0,0,rectangle,-8,0,1,0,0,,2,0.0016,0,-8,0,1,0,0,0,6,6,154,1,73,second,,,,,,,,,,,,,,,,,,,,,,,,,,,,,,,,,,,,,,,,,,,,,,,,,,,,,,,,,,,,,,,,,,,
,,,,,,615c453806ba1a372800c832,62bbf94902033623e37e4b30,2022-06-29_09h04.29.654,Colour_Asymmetry_Pilot,2022.1.3,Win32,60.0276127,62bbe60bf3d75ef465d3e404,,,,,,,,,,,,,,,,,,,,fourtwo,,4,1.4198,,,,,,,,,,,,,,,,,,,,,,,,,,,,,,,,,,"[-0.5688,-0.08239999999999992,-0.1844]","[-0.5688,-0.08239999999999992,-0.1844]",50,96.66665649,1,0,0,response1disk,0,4.666656494,1,0,0,rectangle,0,4.666656494,1,0,0,,2,0.0004,0,0,4.666656494,1,0,0,0,7,7,3,1,3,first,,,,,,,,,,,,,,,,,,,,,,,,,,,,,,,,,,,,,,,,,,,,,,,,,,,,,,,,,,,,,,,,,,,
,,,,,,615c453806ba1a372800c832,62bbf94902033623e37e4b30,2022-06-29_09h04.29.654,Colour_Asymmetry_Pilot,2022.1.3,Win32,60.0276127,62bbe60bf3d75ef465d3e404,,,,,,,,,,,,,,,,,,,,twofour,,4,2.5883,,,,,,,,,,,,,,,,,,,,,,,,,,,,,,,,,,"[0.34099999999999997,0.5841999999999998,-0.9844]","[-0.6706000000000001,-0.6157999999999999,-0.6786]",20,88,1,0,0,response1disk,-8.666625977,2,1,0,0,rectangle,-8.666625977,2,1,0,0,,1,0.0011,0,-8.666625977,2,1,0,0,0,8,8,139,1,58,second,,,,,,,,,,,,,,,,,,,,,,,,,,,,,,,,,,,,,,,,,,,,,,,,,,,,,,,,,,,,,,,,,,,
,,,,,,615c453806ba1a372800c832,62bbf94902033623e37e4b30,2022-06-29_09h04.29.654,Colour_Asymmetry_Pilot,2022.1.3,Win32,60.0276127,62bbe60bf3d75ef465d3e404,,,,,,,,,,,,,,,,,,,,threeone,,-4,0.6297,,,,,,,,,,,,,,,,,,,,,,,,,,,,,,,,,,"[0.34099999999999997,0.5841999999999998,-0.9844]","[-0.06680000000000008,-0.45100000000000007,-0.906]",-46.66662598,101.333313,1,0,0,response7disk,0.666687012,8,1,0,0,rectangle,0.666687012,8,1,0,0,,1,0.0005,0,0.666687012,8,1,0,0,0,9,9,38,1,38,first,,,,,,,,,,,,,,,,,,,,,,,,,,,,,,,,,,,,,,,,,,,,,,,,,,,,,,,,,,,,,,,,,,,
,,,,,,615c453806ba1a372800c832,62bbf94902033623e37e4b30,2022-06-29_09h04.29.654,Colour_Asymmetry_Pilot,2022.1.3,Win32,60.0276127,62bbe60bf3d75ef465d3e404,,,,,,,,,,,,,,,,,,,,twoone,,4,0.5797,,,,,,,,,,,,,,,,,,,,,,,,,,,,,,,,,,"[0.23920000000000008,0.2704,0.16060000000000008]","[0.11359999999999992,0.6312,0.5213999999999999]",40.66668701,86.66665649,1,0,0,response1disk,2.666687012,-3.333343506,1,0,0,rectangle,2.666687012,-3.333343506,1,0,0,,1,0.0002,0,2.666687012,-3.333343506,1,0,0,0,10,10,112,1,31,second,,,,,,,,,,,,,,,,,,,,,,,,,,,,,,,,,,,,,,,,,,,,,,,,,,,,,,,,,,,,,,,,,,,
,,,,,,615c453806ba1a372800c832,62bbf94902033623e37e4b30,2022-06-29_09h04.29.654,Colour_Asymmetry_Pilot,2022.1.3,Win32,60.0276127,62bbe60bf3d75ef465d3e404,,,,,,,,,,,,,,,,,,,,onethree,,-4,0.4506,,,,,,,,,,,,,,,,,,,,,,,,,,,,,,,,,,"[-0.7412000000000001,-0.08239999999999992,-0.6864]","[-0.30200000000000005,0.14500000000000002,0.2784]",-35.33331299,64.66665649,1,0,0,response7disk,-9.333312988,9.333312988,1,0,0,rectangle,-9.333312988,9.333312988,1,0,0,,3,0.0015,0,-9.333312988,9.333312988,1,0,0,0,11,11,4,1,4,first,,,,,,,,,,,,,,,,,,,,,,,,,,,,,,,,,,,,,,,,,,,,,,,,,,,,,,,,,,,,,,,,,,,
,,,,,,615c453806ba1a372800c832,62bbf94902033623e37e4b30,2022-06-29_09h04.29.654,Colour_Asymmetry_Pilot,2022.1.3,Win32,60.0276127,62bbe60bf3d75ef465d3e404,,,,,,,,,,,,,,,,,,,,onetwo,,4,0.3804,,,,,,,,,,,,,,,,,,,,,,,,,,,,,,,,,,"[0.9213999999999998,0.6391999999999998,-0.9922]","[-0.07459999999999989,0.12139999999999995,-0.9922]",30,70.66665649,1,0,0,response1disk,4.666687012,-1.333343506,1,0,0,rectangle,4.666687012,-1.333343506,1,0,0,,2,0.0015,0,4.666687012,-1.333343506,1,0,0,0,12,12,23,1,23,first,,,,,,,,,,,,,,,,,,,,,,,,,,,,,,,,,,,,,,,,,,,,,,,,,,,,,,,,,,,,,,,,,,,
,,,,,,615c453806ba1a372800c832,62bbf94902033623e37e4b30,2022-06-29_09h04.29.654,Colour_Asymmetry_Pilot,2022.1.3,Win32,60.0276127,62bbe60bf3d75ef465d3e404,,,,,,,,,,,,,,,,,,,,fourthree,,-4,0.6675,,,,,,,,,,,,,,,,,,,,,,,,,,,,,,,,,,"[0.34099999999999997,0.5841999999999998,-0.9844]","[0.8274000000000001,-0.5844,-0.9452]",-27.33331299,80.66665649,1,0,0,response7disk,-1.333312988,12,1,0,0,rectangle,-1.333312988,12,1,0,0,,2,0.0012,0,-1.333312988,12,1,0,0,0,13,13,138,1,57,second,,,,,,,,,,,,,,,,,,,,,,,,,,,,,,,,,,,,,,,,,,,,,,,,,,,,,,,,,,,,,,,,,,,
,,,,,,615c453806ba1a372800c832,62bbf94902033623e37e4b30,2022-06-29_09h04.29.654,Colour_Asymmetry_Pilot,2022.1.3,Win32,60.0276127,62bbe60bf3d75ef465d3e404,,,,,,,,,,,,,,,,,,,,fourtwo,,-4,1.5352,,,,,,,,,,,,,,,,,,,,,,,,,,,,,,,,,,"[-0.6235999999999999,-0.6786,-0.08239999999999992]","[0.9842,0.7409999999999999,-0.6628000000000001]",-66,98,1,0,0,response7disk,-9.333312988,10,1,0,0,rectangle,-9.333312988,10,1,0,0,,3,0.0014,0,-9.333312988,10,1,0,0,0,14,14,40,1,40,first,,,,,,,,,,,,,,,,,,,,,,,,,,,,,,,,,,,,,,,,,,,,,,,,,,,,,,,,,,,,,,,,,,,
,,,,,,615c453806ba1a372800c832,62bbf94902033623e37e4b30,2022-06-29_09h04.29.654,Colour_Asymmetry_Pilot,2022.1.3,Win32,60.0276127,62bbe60bf3d75ef465d3e404,,,,,,,,,,,,,,,,,,,,threefour,,4,0.6586,,,,,,,,,,,,,,,,,,,,,,,,,,,,,,,,,,"[-0.9216,-0.5529999999999999,-0.3962]","[-0.9138,-0.5296000000000001,-0.5529999999999999]",27.33337402,113.3333282,1,0,0,response1disk,-5.333312988,6.666656494,1,0,0,rectangle,-5.333312988,6.666656494,1,0,0,,3,0.0006,0,-5.333312988,6.666656494,1,0,0,0,15,15,82,1,1,second,,,,,,,,,,,,,,,,,,,,,,,,,,,,,,,,,,,,,,,,,,,,,,,,,,,,,,,,,,,,,,,,,,,
,,,,,,615c453806ba1a372800c832,62bbf94902033623e37e4b30,2022-06-29_09h04.29.654,Colour_Asymmetry_Pilot,2022.1.3,Win32,60.0276127,62bbe60bf3d75ef465d3e404,,,,,,,,,,,,,,,,,,,,twofour,,-4,0.5157,,,,,,,,,,,,,,,,,,,,,,,,,,,,,,,,,,"[-0.9138,-0.5296000000000001,-0.5529999999999999]","[0.30180000000000007,-0.7884,-0.9844]",-31.33331299,74.66665649,1,0,0,response7disk,-6.666625977,-1.333343506,1,0,0,rectangle,-6.666625977,-1.333343506,1,0,0,,3,0.0002,0,-6.666625977,-1.333343506,1,0,0,0,16,16,116,1,35,second,,,,,,,,,,,,,,,,,,,,,,,,,,,,,,,,,,,,,,,,,,,,,,,,,,,,,,,,,,,,,,,,,,,
,,,,,,615c453806ba1a372800c832,62bbf94902033623e37e4b30,2022-06-29_09h04.29.654,Colour_Asymmetry_Pilot,2022.1.3,Win32,60.0276127,62bbe60bf3d75ef465d3e404,,,,,,,,,,,,,,,,,,,,onethree,,-4,0.5434,,,,,,,,,,,,,,,,,,,,,,,,,,,,,,,,,,"[0.5449999999999999,-0.31000000000000005,-0.0354000000000001]","[-0.24719999999999998,0.5213999999999999,-0.12959999999999994]",-30.66662598,84.66665649,1,0,0,response7disk,-13.33331299,6.666656494,1,0,0,rectangle,-13.33331299,6.666656494,1,0,0,,2,0.0009,0,-13.33331299,6.666656494,1,0,0,0,17,17,96,1,15,second,,,,,,,,,,,,,,,,,,,,,,,,,,,,,,,,,,,,,,,,,,,,,,,,,,,,,,,,,,,,,,,,,,,
