trials.thisRepN,trials.thisTrialN,trials.thisN,trials.thisIndex,trials.ran,Colourcodes,participant,session,date,expName,psychopyVersion,OS,frameRate,study_id,trials_4.thisRepN,trials_4.thisTrialN,trials_4.thisN,trials_4.thisIndex,trials_4.ran,StimulusPos,key_resp.keys,key_resp.rt,key_resp_2.keys,key_resp_2.rt,key_resp_15.keys,key_resp_15.rt,key_resp_17.keys,key_resp_17.rt,key_resp_9.keys,key_resp_9.rt,key_resp_10.keys,key_resp_10.rt,Circle1_col,Ecc,Circle2_col,similarity,response_time,mouse_5.x,mouse_5.y,mouse_5.leftButton,mouse_5.midButton,mouse_5.rightButton,mouse_5.clicked_name,mouse_10.x,mouse_10.y,mouse_10.leftButton,mouse_10.midButton,mouse_10.rightButton,mouse_10.clicked_name,mouse_7.x,mouse_7.y,mouse_7.leftButton,mouse_7.midButton,mouse_7.rightButton,catchnumberprac,mouse_6.x,mouse_6.y,mouse_6.leftButton,mouse_6.midButton,mouse_6.rightButton,duringprac.thisRepN,duringprac.thisTrialN,duringprac.thisN,duringprac.thisIndex,duringprac.ran,mouse_7.clicked_name,catchprac,mouse_6.clicked_name,key_resp_22.keys,key_resp_22.rt,Circle1_colour,Circle2_colour,mouse.x,mouse.y,mouse.leftButton,mouse.midButton,mouse.rightButton,mouse.clicked_name,mouse_2.x,mouse_2.y,mouse_2.leftButton,mouse_2.midButton,mouse_2.rightButton,mouse_2.clicked_name,mouse_3.x,mouse_3.y,mouse_3.leftButton,mouse_3.midButton,mouse_3.rightButton,catchresponse,catchnumber,response_time_catch,Catch,mouse_11.x,mouse_11.y,mouse_11.leftButton,mouse_11.midButton,mouse_11.rightButton,trials_2.thisRepN,trials_2.thisTrialN,trials_2.thisN,trials_2.thisIndex,trials_2.ran,Colourpair,Temporder,mouse_3.clicked_name,mouse_11.clicked_name,trials_3.thisRepN,trials_3.thisTrialN,trials_3.thisN,trials_3.thisIndex,trials_3.ran,key_resp_instr_Ishi.keys,key_resp_instr_Ishi.rt,Ishi_trial_keyresp.keys,Ishi_trial_keyresp.rt,Ishi_textbox.text,Ishi_loop.thisRepN,Ishi_loop.thisTrialN,Ishi_loop.thisN,Ishi_loop.thisIndex,Ishi_loop.ran,imageaddress,textbox.text,mouse_4.x,mouse_4.y,mouse_4.leftButton,mouse_4.midButton,mouse_4.rightButton,mouse_4.clicked_name,textbox_2.text,mouse_8.x,mouse_8.y,mouse_8.leftButton,mouse_8.midButton,mouse_8.rightButton,mouse_8.clicked_name,textbox_3.text,mouse_9.x,mouse_9.y,mouse_9.leftButton,mouse_9.midButton,mouse_9.rightButton,mouse_9.clicked_name,textbox_4.text,mouse_12.x,mouse_12.y,mouse_12.leftButton,mouse_12.midButton,mouse_12.rightButton,mouse_12.clicked_name,textbox_5.text,mouse_13.x,mouse_13.y,mouse_13.leftButton,mouse_13.midButton,mouse_13.rightButton,mouse_13.clicked_name,textbox_6.text,mouse_14.x,mouse_14.y,mouse_14.leftButton,mouse_14.midButton,mouse_14.rightButton,mouse_14.clicked_name,textbox_7.text,mouse_15.x,mouse_15.y,mouse_15.leftButton,mouse_15.midButton,mouse_15.rightButton,mouse_15.clicked_name
0,0,0,12,1,,611e8692e058689f82cc9423,62bbfae3452d53574f6592e6,2022-06-29_09h17.59.589,Colour_Asymmetry_Pilot,2022.1.3,Win32,19.990005,62bbe60bf3d75ef465d3e404,,,,,,,,,,,,,,,,,,,,,,,,,,,,,,,,,,,,,,,,,,,,,,,,,,,,,,,,,,,,,,,,,,,,,,,,,,,,,,,,,,,,,,,,,,,,,,,,,,,,,,,,,,,,,,,,,,,,,,,,,,,,,,,,,,,,,,,,,,,,,,,,,,,,,,,,,,,,,,
0,1,1,17,1,,611e8692e058689f82cc9423,62bbfae3452d53574f6592e6,2022-06-29_09h17.59.589,Colour_Asymmetry_Pilot,2022.1.3,Win32,19.990005,62bbe60bf3d75ef465d3e404,,,,,,,,,,,,,,,,,,,,,,,,,,,,,,,,,,,,,,,,,,,,,,,,,,,,,,,,,,,,,,,,,,,,,,,,,,,,,,,,,,,,,,,,,,,,,,,,,,,,,,,,,,,,,,,,,,,,,,,,,,,,,,,,,,,,,,,,,,,,,,,,,,,,,,,,,,,,,,
0,2,2,25,1,,611e8692e058689f82cc9423,62bbfae3452d53574f6592e6,2022-06-29_09h17.59.589,Colour_Asymmetry_Pilot,2022.1.3,Win32,19.990005,62bbe60bf3d75ef465d3e404,,,,,,,,,,,,,,,,,,,,,,,,,,,,,,,,,,,,,,,,,,,,,,,,,,,,,,,,,,,,,,,,,,,,,,,,,,,,,,,,,,,,,,,,,,,,,,,,,,,,,,,,,,,,,,,,,,,,,,,,,,,,,,,,,,,,,,,,,,,,,,,,,,,,,,,,,,,,,,
0,3,3,40,1,,611e8692e058689f82cc9423,62bbfae3452d53574f6592e6,2022-06-29_09h17.59.589,Colour_Asymmetry_Pilot,2022.1.3,Win32,19.990005,62bbe60bf3d75ef465d3e404,,,,,,,,,,,,,,,,,,,,,,,,,,,,,,,,,,,,,,,,,,,,,,,,,,,,,,,,,,,,,,,,,,,,,,,,,,,,,,,,,,,,,,,,,,,,,,,,,,,,,,,,,,,,,,,,,,,,,,,,,,,,,,,,,,,,,,,,,,,,,,,,,,,,,,,,,,,,,,
0,4,4,55,1,,611e8692e058689f82cc9423,62bbfae3452d53574f6592e6,2022-06-29_09h17.59.589,Colour_Asymmetry_Pilot,2022.1.3,Win32,19.990005,62bbe60bf3d75ef465d3e404,,,,,,,,,,,,,,,,,,,,,,,,,,,,,,,,,,,,,,,,,,,,,,,,,,,,,,,,,,,,,,,,,,,,,,,,,,,,,,,,,,,,,,,,,,,,,,,,,,,,,,,,,,,,,,,,,,,,,,,,,,,,,,,,,,,,,,,,,,,,,,,,,,,,,,,,,,,,,,
0,5,5,62,1,,611e8692e058689f82cc9423,62bbfae3452d53574f6592e6,2022-06-29_09h17.59.589,Colour_Asymmetry_Pilot,2022.1.3,Win32,19.990005,62bbe60bf3d75ef465d3e404,,,,,,,,,,,,,,,,,,,,,,,,,,,,,,,,,,,,,,,,,,,,,,,,,,,,,,,,,,,,,,,,,,,,,,,,,,,,,,,,,,,,,,,,,,,,,,,,,,,,,,,,,,,,,,,,,,,,,,,,,,,,,,,,,,,,,,,,,,,,,,,,,,,,,,,,,,,,,,
0,6,6,37,1,,611e8692e058689f82cc9423,62bbfae3452d53574f6592e6,2022-06-29_09h17.59.589,Colour_Asymmetry_Pilot,2022.1.3,Win32,19.990005,62bbe60bf3d75ef465d3e404,,,,,,,,,,,,,,,,,,,,,,,,,,,,,,,,,,,,,,,,,,,,,,,,,,,,,,,,,,,,,,,,,,,,,,,,,,,,,,,,,,,,,,,,,,,,,,,,,,,,,,,,,,,,,,,,,,,,,,,,,,,,,,,,,,,,,,,,,,,,,,,,,,,,,,,,,,,,,,
0,7,7,83,1,,611e8692e058689f82cc9423,62bbfae3452d53574f6592e6,2022-06-29_09h17.59.589,Colour_Asymmetry_Pilot,2022.1.3,Win32,19.990005,62bbe60bf3d75ef465d3e404,,,,,,,,,,,,,,,,,,,,,,,,,,,,,,,,,,,,,,,,,,,,,,,,,,,,,,,,,,,,,,,,,,,,,,,,,,,,,,,,,,,,,,,,,,,,,,,,,,,,,,,,,,,,,,,,,,,,,,,,,,,,,,,,,,,,,,,,,,,,,,,,,,,,,,,,,,,,,,
0,8,8,48,1,,611e8692e058689f82cc9423,62bbfae3452d53574f6592e6,2022-06-29_09h17.59.589,Colour_Asymmetry_Pilot,2022.1.3,Win32,19.990005,62bbe60bf3d75ef465d3e404,,,,,,,,,,,,,,,,,,,,,,,,,,,,,,,,,,,,,,,,,,,,,,,,,,,,,,,,,,,,,,,,,,,,,,,,,,,,,,,,,,,,,,,,,,,,,,,,,,,,,,,,,,,,,,,,,,,,,,,,,,,,,,,,,,,,,,,,,,,,,,,,,,,,,,,,,,,,,,
0,9,9,43,1,,611e8692e058689f82cc9423,62bbfae3452d53574f6592e6,2022-06-29_09h17.59.589,Colour_Asymmetry_Pilot,2022.1.3,Win32,19.990005,62bbe60bf3d75ef465d3e404,,,,,,,,,,,,,,,,,,,,,,,,,,,,,,,,,,,,,,,,,,,,,,,,,,,,,,,,,,,,,,,,,,,,,,,,,,,,,,,,,,,,,,,,,,,,,,,,,,,,,,,,,,,,,,,,,,,,,,,,,,,,,,,,,,,,,,,,,,,,,,,,,,,,,,,,,,,,,,
0,10,10,56,1,,611e8692e058689f82cc9423,62bbfae3452d53574f6592e6,2022-06-29_09h17.59.589,Colour_Asymmetry_Pilot,2022.1.3,Win32,19.990005,62bbe60bf3d75ef465d3e404,,,,,,,,,,,,,,,,,,,,,,,,,,,,,,,,,,,,,,,,,,,,,,,,,,,,,,,,,,,,,,,,,,,,,,,,,,,,,,,,,,,,,,,,,,,,,,,,,,,,,,,,,,,,,,,,,,,,,,,,,,,,,,,,,,,,,,,,,,,,,,,,,,,,,,,,,,,,,,
0,11,11,0,1,,611e8692e058689f82cc9423,62bbfae3452d53574f6592e6,2022-06-29_09h17.59.589,Colour_Asymmetry_Pilot,2022.1.3,Win32,19.990005,62bbe60bf3d75ef465d3e404,,,,,,,,,,,,,,,,,,,,,,,,,,,,,,,,,,,,,,,,,,,,,,,,,,,,,,,,,,,,,,,,,,,,,,,,,,,,,,,,,,,,,,,,,,,,,,,,,,,,,,,,,,,,,,,,,,,,,,,,,,,,,,,,,,,,,,,,,,,,,,,,,,,,,,,,,,,,,,
0,12,12,32,1,,611e8692e058689f82cc9423,62bbfae3452d53574f6592e6,2022-06-29_09h17.59.589,Colour_Asymmetry_Pilot,2022.1.3,Win32,19.990005,62bbe60bf3d75ef465d3e404,,,,,,,,,,,,,,,,,,,,,,,,,,,,,,,,,,,,,,,,,,,,,,,,,,,,,,,,,,,,,,,,,,,,,,,,,,,,,,,,,,,,,,,,,,,,,,,,,,,,,,,,,,,,,,,,,,,,,,,,,,,,,,,,,,,,,,,,,,,,,,,,,,,,,,,,,,,,,,
0,13,13,7,1,,611e8692e058689f82cc9423,62bbfae3452d53574f6592e6,2022-06-29_09h17.59.589,Colour_Asymmetry_Pilot,2022.1.3,Win32,19.990005,62bbe60bf3d75ef465d3e404,,,,,,,,,,,,,,,,,,,,,,,,,,,,,,,,,,,,,,,,,,,,,,,,,,,,,,,,,,,,,,,,,,,,,,,,,,,,,,,,,,,,,,,,,,,,,,,,,,,,,,,,,,,,,,,,,,,,,,,,,,,,,,,,,,,,,,,,,,,,,,,,,,,,,,,,,,,,,,
0,14,14,27,1,,611e8692e058689f82cc9423,62bbfae3452d53574f6592e6,2022-06-29_09h17.59.589,Colour_Asymmetry_Pilot,2022.1.3,Win32,19.990005,62bbe60bf3d75ef465d3e404,,,,,,,,,,,,,,,,,,,,,,,,,,,,,,,,,,,,,,,,,,,,,,,,,,,,,,,,,,,,,,,,,,,,,,,,,,,,,,,,,,,,,,,,,,,,,,,,,,,,,,,,,,,,,,,,,,,,,,,,,,,,,,,,,,,,,,,,,,,,,,,,,,,,,,,,,,,,,,
0,15,15,39,1,,611e8692e058689f82cc9423,62bbfae3452d53574f6592e6,2022-06-29_09h17.59.589,Colour_Asymmetry_Pilot,2022.1.3,Win32,19.990005,62bbe60bf3d75ef465d3e404,,,,,,,,,,,,,,,,,,,,,,,,,,,,,,,,,,,,,,,,,,,,,,,,,,,,,,,,,,,,,,,,,,,,,,,,,,,,,,,,,,,,,,,,,,,,,,,,,,,,,,,,,,,,,,,,,,,,,,,,,,,,,,,,,,,,,,,,,,,,,,,,,,,,,,,,,,,,,,
0,16,16,34,1,,611e8692e058689f82cc9423,62bbfae3452d53574f6592e6,2022-06-29_09h17.59.589,Colour_Asymmetry_Pilot,2022.1.3,Win32,19.990005,62bbe60bf3d75ef465d3e404,,,,,,,,,,,,,,,,,,,,,,,,,,,,,,,,,,,,,,,,,,,,,,,,,,,,,,,,,,,,,,,,,,,,,,,,,,,,,,,,,,,,,,,,,,,,,,,,,,,,,,,,,,,,,,,,,,,,,,,,,,,,,,,,,,,,,,,,,,,,,,,,,,,,,,,,,,,,,,
0,17,17,63,1,,611e8692e058689f82cc9423,62bbfae3452d53574f6592e6,2022-06-29_09h17.59.589,Colour_Asymmetry_Pilot,2022.1.3,Win32,19.990005,62bbe60bf3d75ef465d3e404,,,,,,,,,,,,,,,,,,,,,,,,,,,,,,,,,,,,,,,,,,,,,,,,,,,,,,,,,,,,,,,,,,,,,,,,,,,,,,,,,,,,,,,,,,,,,,,,,,,,,,,,,,,,,,,,,,,,,,,,,,,,,,,,,,,,,,,,,,,,,,,,,,,,,,,,,,,,,,
0,18,18,64,1,,611e8692e058689f82cc9423,62bbfae3452d53574f6592e6,2022-06-29_09h17.59.589,Colour_Asymmetry_Pilot,2022.1.3,Win32,19.990005,62bbe60bf3d75ef465d3e404,,,,,,,,,,,,,,,,,,,,,,,,,,,,,,,,,,,,,,,,,,,,,,,,,,,,,,,,,,,,,,,,,,,,,,,,,,,,,,,,,,,,,,,,,,,,,,,,,,,,,,,,,,,,,,,,,,,,,,,,,,,,,,,,,,,,,,,,,,,,,,,,,,,,,,,,,,,,,,
0,19,19,68,1,,611e8692e058689f82cc9423,62bbfae3452d53574f6592e6,2022-06-29_09h17.59.589,Colour_Asymmetry_Pilot,2022.1.3,Win32,19.990005,62bbe60bf3d75ef465d3e404,,,,,,,,,,,,,,,,,,,,,,,,,,,,,,,,,,,,,,,,,,,,,,,,,,,,,,,,,,,,,,,,,,,,,,,,,,,,,,,,,,,,,,,,,,,,,,,,,,,,,,,,,,,,,,,,,,,,,,,,,,,,,,,,,,,,,,,,,,,,,,,,,,,,,,,,,,,,,,
0,20,20,41,1,,611e8692e058689f82cc9423,62bbfae3452d53574f6592e6,2022-06-29_09h17.59.589,Colour_Asymmetry_Pilot,2022.1.3,Win32,19.990005,62bbe60bf3d75ef465d3e404,,,,,,,,,,,,,,,,,,,,,,,,,,,,,,,,,,,,,,,,,,,,,,,,,,,,,,,,,,,,,,,,,,,,,,,,,,,,,,,,,,,,,,,,,,,,,,,,,,,,,,,,,,,,,,,,,,,,,,,,,,,,,,,,,,,,,,,,,,,,,,,,,,,,,,,,,,,,,,
0,21,21,29,1,,611e8692e058689f82cc9423,62bbfae3452d53574f6592e6,2022-06-29_09h17.59.589,Colour_Asymmetry_Pilot,2022.1.3,Win32,19.990005,62bbe60bf3d75ef465d3e404,,,,,,,,,,,,,,,,,,,,,,,,,,,,,,,,,,,,,,,,,,,,,,,,,,,,,,,,,,,,,,,,,,,,,,,,,,,,,,,,,,,,,,,,,,,,,,,,,,,,,,,,,,,,,,,,,,,,,,,,,,,,,,,,,,,,,,,,,,,,,,,,,,,,,,,,,,,,,,
0,22,22,80,1,,611e8692e058689f82cc9423,62bbfae3452d53574f6592e6,2022-06-29_09h17.59.589,Colour_Asymmetry_Pilot,2022.1.3,Win32,19.990005,62bbe60bf3d75ef465d3e404,,,,,,,,,,,,,,,,,,,,,,,,,,,,,,,,,,,,,,,,,,,,,,,,,,,,,,,,,,,,,,,,,,,,,,,,,,,,,,,,,,,,,,,,,,,,,,,,,,,,,,,,,,,,,,,,,,,,,,,,,,,,,,,,,,,,,,,,,,,,,,,,,,,,,,,,,,,,,,
0,23,23,65,1,,611e8692e058689f82cc9423,62bbfae3452d53574f6592e6,2022-06-29_09h17.59.589,Colour_Asymmetry_Pilot,2022.1.3,Win32,19.990005,62bbe60bf3d75ef465d3e404,,,,,,,,,,,,,,,,,,,,,,,,,,,,,,,,,,,,,,,,,,,,,,,,,,,,,,,,,,,,,,,,,,,,,,,,,,,,,,,,,,,,,,,,,,,,,,,,,,,,,,,,,,,,,,,,,,,,,,,,,,,,,,,,,,,,,,,,,,,,,,,,,,,,,,,,,,,,,,
0,24,24,10,1,,611e8692e058689f82cc9423,62bbfae3452d53574f6592e6,2022-06-29_09h17.59.589,Colour_Asymmetry_Pilot,2022.1.3,Win32,19.990005,62bbe60bf3d75ef465d3e404,,,,,,,,,,,,,,,,,,,,,,,,,,,,,,,,,,,,,,,,,,,,,,,,,,,,,,,,,,,,,,,,,,,,,,,,,,,,,,,,,,,,,,,,,,,,,,,,,,,,,,,,,,,,,,,,,,,,,,,,,,,,,,,,,,,,,,,,,,,,,,,,,,,,,,,,,,,,,,
0,25,25,21,1,,611e8692e058689f82cc9423,62bbfae3452d53574f6592e6,2022-06-29_09h17.59.589,Colour_Asymmetry_Pilot,2022.1.3,Win32,19.990005,62bbe60bf3d75ef465d3e404,,,,,,,,,,,,,,,,,,,,,,,,,,,,,,,,,,,,,,,,,,,,,,,,,,,,,,,,,,,,,,,,,,,,,,,,,,,,,,,,,,,,,,,,,,,,,,,,,,,,,,,,,,,,,,,,,,,,,,,,,,,,,,,,,,,,,,,,,,,,,,,,,,,,,,,,,,,,,,
0,26,26,51,1,,611e8692e058689f82cc9423,62bbfae3452d53574f6592e6,2022-06-29_09h17.59.589,Colour_Asymmetry_Pilot,2022.1.3,Win32,19.990005,62bbe60bf3d75ef465d3e404,,,,,,,,,,,,,,,,,,,,,,,,,,,,,,,,,,,,,,,,,,,,,,,,,,,,,,,,,,,,,,,,,,,,,,,,,,,,,,,,,,,,,,,,,,,,,,,,,,,,,,,,,,,,,,,,,,,,,,,,,,,,,,,,,,,,,,,,,,,,,,,,,,,,,,,,,,,,,,
0,27,27,78,1,,611e8692e058689f82cc9423,62bbfae3452d53574f6592e6,2022-06-29_09h17.59.589,Colour_Asymmetry_Pilot,2022.1.3,Win32,19.990005,62bbe60bf3d75ef465d3e404,,,,,,,,,,,,,,,,,,,,,,,,,,,,,,,,,,,,,,,,,,,,,,,,,,,,,,,,,,,,,,,,,,,,,,,,,,,,,,,,,,,,,,,,,,,,,,,,,,,,,,,,,,,,,,,,,,,,,,,,,,,,,,,,,,,,,,,,,,,,,,,,,,,,,,,,,,,,,,
0,28,28,86,1,,611e8692e058689f82cc9423,62bbfae3452d53574f6592e6,2022-06-29_09h17.59.589,Colour_Asymmetry_Pilot,2022.1.3,Win32,19.990005,62bbe60bf3d75ef465d3e404,,,,,,,,,,,,,,,,,,,,,,,,,,,,,,,,,,,,,,,,,,,,,,,,,,,,,,,,,,,,,,,,,,,,,,,,,,,,,,,,,,,,,,,,,,,,,,,,,,,,,,,,,,,,,,,,,,,,,,,,,,,,,,,,,,,,,,,,,,,,,,,,,,,,,,,,,,,,,,
0,29,29,60,1,,611e8692e058689f82cc9423,62bbfae3452d53574f6592e6,2022-06-29_09h17.59.589,Colour_Asymmetry_Pilot,2022.1.3,Win32,19.990005,62bbe60bf3d75ef465d3e404,,,,,,,,,,,,,,,,,,,,,,,,,,,,,,,,,,,,,,,,,,,,,,,,,,,,,,,,,,,,,,,,,,,,,,,,,,,,,,,,,,,,,,,,,,,,,,,,,,,,,,,,,,,,,,,,,,,,,,,,,,,,,,,,,,,,,,,,,,,,,,,,,,,,,,,,,,,,,,
0,30,30,22,1,,611e8692e058689f82cc9423,62bbfae3452d53574f6592e6,2022-06-29_09h17.59.589,Colour_Asymmetry_Pilot,2022.1.3,Win32,19.990005,62bbe60bf3d75ef465d3e404,,,,,,,,,,,,,,,,,,,,,,,,,,,,,,,,,,,,,,,,,,,,,,,,,,,,,,,,,,,,,,,,,,,,,,,,,,,,,,,,,,,,,,,,,,,,,,,,,,,,,,,,,,,,,,,,,,,,,,,,,,,,,,,,,,,,,,,,,,,,,,,,,,,,,,,,,,,,,,
0,31,31,35,1,,611e8692e058689f82cc9423,62bbfae3452d53574f6592e6,2022-06-29_09h17.59.589,Colour_Asymmetry_Pilot,2022.1.3,Win32,19.990005,62bbe60bf3d75ef465d3e404,,,,,,,,,,,,,,,,,,,,,,,,,,,,,,,,,,,,,,,,,,,,,,,,,,,,,,,,,,,,,,,,,,,,,,,,,,,,,,,,,,,,,,,,,,,,,,,,,,,,,,,,,,,,,,,,,,,,,,,,,,,,,,,,,,,,,,,,,,,,,,,,,,,,,,,,,,,,,,
0,32,32,76,1,,611e8692e058689f82cc9423,62bbfae3452d53574f6592e6,2022-06-29_09h17.59.589,Colour_Asymmetry_Pilot,2022.1.3,Win32,19.990005,62bbe60bf3d75ef465d3e404,,,,,,,,,,,,,,,,,,,,,,,,,,,,,,,,,,,,,,,,,,,,,,,,,,,,,,,,,,,,,,,,,,,,,,,,,,,,,,,,,,,,,,,,,,,,,,,,,,,,,,,,,,,,,,,,,,,,,,,,,,,,,,,,,,,,,,,,,,,,,,,,,,,,,,,,,,,,,,
0,33,33,30,1,,611e8692e058689f82cc9423,62bbfae3452d53574f6592e6,2022-06-29_09h17.59.589,Colour_Asymmetry_Pilot,2022.1.3,Win32,19.990005,62bbe60bf3d75ef465d3e404,,,,,,,,,,,,,,,,,,,,,,,,,,,,,,,,,,,,,,,,,,,,,,,,,,,,,,,,,,,,,,,,,,,,,,,,,,,,,,,,,,,,,,,,,,,,,,,,,,,,,,,,,,,,,,,,,,,,,,,,,,,,,,,,,,,,,,,,,,,,,,,,,,,,,,,,,,,,,,
0,34,34,61,1,,611e8692e058689f82cc9423,62bbfae3452d53574f6592e6,2022-06-29_09h17.59.589,Colour_Asymmetry_Pilot,2022.1.3,Win32,19.990005,62bbe60bf3d75ef465d3e404,,,,,,,,,,,,,,,,,,,,,,,,,,,,,,,,,,,,,,,,,,,,,,,,,,,,,,,,,,,,,,,,,,,,,,,,,,,,,,,,,,,,,,,,,,,,,,,,,,,,,,,,,,,,,,,,,,,,,,,,,,,,,,,,,,,,,,,,,,,,,,,,,,,,,,,,,,,,,,
0,35,35,45,1,,611e8692e058689f82cc9423,62bbfae3452d53574f6592e6,2022-06-29_09h17.59.589,Colour_Asymmetry_Pilot,2022.1.3,Win32,19.990005,62bbe60bf3d75ef465d3e404,,,,,,,,,,,,,,,,,,,,,,,,,,,,,,,,,,,,,,,,,,,,,,,,,,,,,,,,,,,,,,,,,,,,,,,,,,,,,,,,,,,,,,,,,,,,,,,,,,,,,,,,,,,,,,,,,,,,,,,,,,,,,,,,,,,,,,,,,,,,,,,,,,,,,,,,,,,,,,
0,36,36,50,1,,611e8692e058689f82cc9423,62bbfae3452d53574f6592e6,2022-06-29_09h17.59.589,Colour_Asymmetry_Pilot,2022.1.3,Win32,19.990005,62bbe60bf3d75ef465d3e404,,,,,,,,,,,,,,,,,,,,,,,,,,,,,,,,,,,,,,,,,,,,,,,,,,,,,,,,,,,,,,,,,,,,,,,,,,,,,,,,,,,,,,,,,,,,,,,,,,,,,,,,,,,,,,,,,,,,,,,,,,,,,,,,,,,,,,,,,,,,,,,,,,,,,,,,,,,,,,
0,37,37,81,1,,611e8692e058689f82cc9423,62bbfae3452d53574f6592e6,2022-06-29_09h17.59.589,Colour_Asymmetry_Pilot,2022.1.3,Win32,19.990005,62bbe60bf3d75ef465d3e404,,,,,,,,,,,,,,,,,,,,,,,,,,,,,,,,,,,,,,,,,,,,,,,,,,,,,,,,,,,,,,,,,,,,,,,,,,,,,,,,,,,,,,,,,,,,,,,,,,,,,,,,,,,,,,,,,,,,,,,,,,,,,,,,,,,,,,,,,,,,,,,,,,,,,,,,,,,,,,
0,38,38,16,1,,611e8692e058689f82cc9423,62bbfae3452d53574f6592e6,2022-06-29_09h17.59.589,Colour_Asymmetry_Pilot,2022.1.3,Win32,19.990005,62bbe60bf3d75ef465d3e404,,,,,,,,,,,,,,,,,,,,,,,,,,,,,,,,,,,,,,,,,,,,,,,,,,,,,,,,,,,,,,,,,,,,,,,,,,,,,,,,,,,,,,,,,,,,,,,,,,,,,,,,,,,,,,,,,,,,,,,,,,,,,,,,,,,,,,,,,,,,,,,,,,,,,,,,,,,,,,
0,39,39,59,1,,611e8692e058689f82cc9423,62bbfae3452d53574f6592e6,2022-06-29_09h17.59.589,Colour_Asymmetry_Pilot,2022.1.3,Win32,19.990005,62bbe60bf3d75ef465d3e404,,,,,,,,,,,,,,,,,,,,,,,,,,,,,,,,,,,,,,,,,,,,,,,,,,,,,,,,,,,,,,,,,,,,,,,,,,,,,,,,,,,,,,,,,,,,,,,,,,,,,,,,,,,,,,,,,,,,,,,,,,,,,,,,,,,,,,,,,,,,,,,,,,,,,,,,,,,,,,
0,40,40,49,1,,611e8692e058689f82cc9423,62bbfae3452d53574f6592e6,2022-06-29_09h17.59.589,Colour_Asymmetry_Pilot,2022.1.3,Win32,19.990005,62bbe60bf3d75ef465d3e404,,,,,,,,,,,,,,,,,,,,,,,,,,,,,,,,,,,,,,,,,,,,,,,,,,,,,,,,,,,,,,,,,,,,,,,,,,,,,,,,,,,,,,,,,,,,,,,,,,,,,,,,,,,,,,,,,,,,,,,,,,,,,,,,,,,,,,,,,,,,,,,,,,,,,,,,,,,,,,
0,41,41,24,1,,611e8692e058689f82cc9423,62bbfae3452d53574f6592e6,2022-06-29_09h17.59.589,Colour_Asymmetry_Pilot,2022.1.3,Win32,19.990005,62bbe60bf3d75ef465d3e404,,,,,,,,,,,,,,,,,,,,,,,,,,,,,,,,,,,,,,,,,,,,,,,,,,,,,,,,,,,,,,,,,,,,,,,,,,,,,,,,,,,,,,,,,,,,,,,,,,,,,,,,,,,,,,,,,,,,,,,,,,,,,,,,,,,,,,,,,,,,,,,,,,,,,,,,,,,,,,
0,42,42,1,1,,611e8692e058689f82cc9423,62bbfae3452d53574f6592e6,2022-06-29_09h17.59.589,Colour_Asymmetry_Pilot,2022.1.3,Win32,19.990005,62bbe60bf3d75ef465d3e404,,,,,,,,,,,,,,,,,,,,,,,,,,,,,,,,,,,,,,,,,,,,,,,,,,,,,,,,,,,,,,,,,,,,,,,,,,,,,,,,,,,,,,,,,,,,,,,,,,,,,,,,,,,,,,,,,,,,,,,,,,,,,,,,,,,,,,,,,,,,,,,,,,,,,,,,,,,,,,
0,43,43,85,1,,611e8692e058689f82cc9423,62bbfae3452d53574f6592e6,2022-06-29_09h17.59.589,Colour_Asymmetry_Pilot,2022.1.3,Win32,19.990005,62bbe60bf3d75ef465d3e404,,,,,,,,,,,,,,,,,,,,,,,,,,,,,,,,,,,,,,,,,,,,,,,,,,,,,,,,,,,,,,,,,,,,,,,,,,,,,,,,,,,,,,,,,,,,,,,,,,,,,,,,,,,,,,,,,,,,,,,,,,,,,,,,,,,,,,,,,,,,,,,,,,,,,,,,,,,,,,
0,44,44,11,1,,611e8692e058689f82cc9423,62bbfae3452d53574f6592e6,2022-06-29_09h17.59.589,Colour_Asymmetry_Pilot,2022.1.3,Win32,19.990005,62bbe60bf3d75ef465d3e404,,,,,,,,,,,,,,,,,,,,,,,,,,,,,,,,,,,,,,,,,,,,,,,,,,,,,,,,,,,,,,,,,,,,,,,,,,,,,,,,,,,,,,,,,,,,,,,,,,,,,,,,,,,,,,,,,,,,,,,,,,,,,,,,,,,,,,,,,,,,,,,,,,,,,,,,,,,,,,
0,45,45,72,1,,611e8692e058689f82cc9423,62bbfae3452d53574f6592e6,2022-06-29_09h17.59.589,Colour_Asymmetry_Pilot,2022.1.3,Win32,19.990005,62bbe60bf3d75ef465d3e404,,,,,,,,,,,,,,,,,,,,,,,,,,,,,,,,,,,,,,,,,,,,,,,,,,,,,,,,,,,,,,,,,,,,,,,,,,,,,,,,,,,,,,,,,,,,,,,,,,,,,,,,,,,,,,,,,,,,,,,,,,,,,,,,,,,,,,,,,,,,,,,,,,,,,,,,,,,,,,
0,46,46,47,1,,611e8692e058689f82cc9423,62bbfae3452d53574f6592e6,2022-06-29_09h17.59.589,Colour_Asymmetry_Pilot,2022.1.3,Win32,19.990005,62bbe60bf3d75ef465d3e404,,,,,,,,,,,,,,,,,,,,,,,,,,,,,,,,,,,,,,,,,,,,,,,,,,,,,,,,,,,,,,,,,,,,,,,,,,,,,,,,,,,,,,,,,,,,,,,,,,,,,,,,,,,,,,,,,,,,,,,,,,,,,,,,,,,,,,,,,,,,,,,,,,,,,,,,,,,,,,
0,47,47,66,1,,611e8692e058689f82cc9423,62bbfae3452d53574f6592e6,2022-06-29_09h17.59.589,Colour_Asymmetry_Pilot,2022.1.3,Win32,19.990005,62bbe60bf3d75ef465d3e404,,,,,,,,,,,,,,,,,,,,,,,,,,,,,,,,,,,,,,,,,,,,,,,,,,,,,,,,,,,,,,,,,,,,,,,,,,,,,,,,,,,,,,,,,,,,,,,,,,,,,,,,,,,,,,,,,,,,,,,,,,,,,,,,,,,,,,,,,,,,,,,,,,,,,,,,,,,,,,
0,48,48,75,1,,611e8692e058689f82cc9423,62bbfae3452d53574f6592e6,2022-06-29_09h17.59.589,Colour_Asymmetry_Pilot,2022.1.3,Win32,19.990005,62bbe60bf3d75ef465d3e404,,,,,,,,,,,,,,,,,,,,,,,,,,,,,,,,,,,,,,,,,,,,,,,,,,,,,,,,,,,,,,,,,,,,,,,,,,,,,,,,,,,,,,,,,,,,,,,,,,,,,,,,,,,,,,,,,,,,,,,,,,,,,,,,,,,,,,,,,,,,,,,,,,,,,,,,,,,,,,
0,49,49,87,1,,611e8692e058689f82cc9423,62bbfae3452d53574f6592e6,2022-06-29_09h17.59.589,Colour_Asymmetry_Pilot,2022.1.3,Win32,19.990005,62bbe60bf3d75ef465d3e404,,,,,,,,,,,,,,,,,,,,,,,,,,,,,,,,,,,,,,,,,,,,,,,,,,,,,,,,,,,,,,,,,,,,,,,,,,,,,,,,,,,,,,,,,,,,,,,,,,,,,,,,,,,,,,,,,,,,,,,,,,,,,,,,,,,,,,,,,,,,,,,,,,,,,,,,,,,,,,
0,50,50,58,1,,611e8692e058689f82cc9423,62bbfae3452d53574f6592e6,2022-06-29_09h17.59.589,Colour_Asymmetry_Pilot,2022.1.3,Win32,19.990005,62bbe60bf3d75ef465d3e404,,,,,,,,,,,,,,,,,,,,,,,,,,,,,,,,,,,,,,,,,,,,,,,,,,,,,,,,,,,,,,,,,,,,,,,,,,,,,,,,,,,,,,,,,,,,,,,,,,,,,,,,,,,,,,,,,,,,,,,,,,,,,,,,,,,,,,,,,,,,,,,,,,,,,,,,,,,,,,
0,51,51,70,1,,611e8692e058689f82cc9423,62bbfae3452d53574f6592e6,2022-06-29_09h17.59.589,Colour_Asymmetry_Pilot,2022.1.3,Win32,19.990005,62bbe60bf3d75ef465d3e404,,,,,,,,,,,,,,,,,,,,,,,,,,,,,,,,,,,,,,,,,,,,,,,,,,,,,,,,,,,,,,,,,,,,,,,,,,,,,,,,,,,,,,,,,,,,,,,,,,,,,,,,,,,,,,,,,,,,,,,,,,,,,,,,,,,,,,,,,,,,,,,,,,,,,,,,,,,,,,
0,52,52,9,1,,611e8692e058689f82cc9423,62bbfae3452d53574f6592e6,2022-06-29_09h17.59.589,Colour_Asymmetry_Pilot,2022.1.3,Win32,19.990005,62bbe60bf3d75ef465d3e404,,,,,,,,,,,,,,,,,,,,,,,,,,,,,,,,,,,,,,,,,,,,,,,,,,,,,,,,,,,,,,,,,,,,,,,,,,,,,,,,,,,,,,,,,,,,,,,,,,,,,,,,,,,,,,,,,,,,,,,,,,,,,,,,,,,,,,,,,,,,,,,,,,,,,,,,,,,,,,
0,53,53,33,1,,611e8692e058689f82cc9423,62bbfae3452d53574f6592e6,2022-06-29_09h17.59.589,Colour_Asymmetry_Pilot,2022.1.3,Win32,19.990005,62bbe60bf3d75ef465d3e404,,,,,,,,,,,,,,,,,,,,,,,,,,,,,,,,,,,,,,,,,,,,,,,,,,,,,,,,,,,,,,,,,,,,,,,,,,,,,,,,,,,,,,,,,,,,,,,,,,,,,,,,,,,,,,,,,,,,,,,,,,,,,,,,,,,,,,,,,,,,,,,,,,,,,,,,,,,,,,
0,54,54,44,1,,611e8692e058689f82cc9423,62bbfae3452d53574f6592e6,2022-06-29_09h17.59.589,Colour_Asymmetry_Pilot,2022.1.3,Win32,19.990005,62bbe60bf3d75ef465d3e404,,,,,,,,,,,,,,,,,,,,,,,,,,,,,,,,,,,,,,,,,,,,,,,,,,,,,,,,,,,,,,,,,,,,,,,,,,,,,,,,,,,,,,,,,,,,,,,,,,,,,,,,,,,,,,,,,,,,,,,,,,,,,,,,,,,,,,,,,,,,,,,,,,,,,,,,,,,,,,
0,55,55,77,1,,611e8692e058689f82cc9423,62bbfae3452d53574f6592e6,2022-06-29_09h17.59.589,Colour_Asymmetry_Pilot,2022.1.3,Win32,19.990005,62bbe60bf3d75ef465d3e404,,,,,,,,,,,,,,,,,,,,,,,,,,,,,,,,,,,,,,,,,,,,,,,,,,,,,,,,,,,,,,,,,,,,,,,,,,,,,,,,,,,,,,,,,,,,,,,,,,,,,,,,,,,,,,,,,,,,,,,,,,,,,,,,,,,,,,,,,,,,,,,,,,,,,,,,,,,,,,
0,56,56,67,1,,611e8692e058689f82cc9423,62bbfae3452d53574f6592e6,2022-06-29_09h17.59.589,Colour_Asymmetry_Pilot,2022.1.3,Win32,19.990005,62bbe60bf3d75ef465d3e404,,,,,,,,,,,,,,,,,,,,,,,,,,,,,,,,,,,,,,,,,,,,,,,,,,,,,,,,,,,,,,,,,,,,,,,,,,,,,,,,,,,,,,,,,,,,,,,,,,,,,,,,,,,,,,,,,,,,,,,,,,,,,,,,,,,,,,,,,,,,,,,,,,,,,,,,,,,,,,
0,57,57,20,1,,611e8692e058689f82cc9423,62bbfae3452d53574f6592e6,2022-06-29_09h17.59.589,Colour_Asymmetry_Pilot,2022.1.3,Win32,19.990005,62bbe60bf3d75ef465d3e404,,,,,,,,,,,,,,,,,,,,,,,,,,,,,,,,,,,,,,,,,,,,,,,,,,,,,,,,,,,,,,,,,,,,,,,,,,,,,,,,,,,,,,,,,,,,,,,,,,,,,,,,,,,,,,,,,,,,,,,,,,,,,,,,,,,,,,,,,,,,,,,,,,,,,,,,,,,,,,
0,58,58,2,1,,611e8692e058689f82cc9423,62bbfae3452d53574f6592e6,2022-06-29_09h17.59.589,Colour_Asymmetry_Pilot,2022.1.3,Win32,19.990005,62bbe60bf3d75ef465d3e404,,,,,,,,,,,,,,,,,,,,,,,,,,,,,,,,,,,,,,,,,,,,,,,,,,,,,,,,,,,,,,,,,,,,,,,,,,,,,,,,,,,,,,,,,,,,,,,,,,,,,,,,,,,,,,,,,,,,,,,,,,,,,,,,,,,,,,,,,,,,,,,,,,,,,,,,,,,,,,
0,59,59,73,1,,611e8692e058689f82cc9423,62bbfae3452d53574f6592e6,2022-06-29_09h17.59.589,Colour_Asymmetry_Pilot,2022.1.3,Win32,19.990005,62bbe60bf3d75ef465d3e404,,,,,,,,,,,,,,,,,,,,,,,,,,,,,,,,,,,,,,,,,,,,,,,,,,,,,,,,,,,,,,,,,,,,,,,,,,,,,,,,,,,,,,,,,,,,,,,,,,,,,,,,,,,,,,,,,,,,,,,,,,,,,,,,,,,,,,,,,,,,,,,,,,,,,,,,,,,,,,
0,60,60,13,1,,611e8692e058689f82cc9423,62bbfae3452d53574f6592e6,2022-06-29_09h17.59.589,Colour_Asymmetry_Pilot,2022.1.3,Win32,19.990005,62bbe60bf3d75ef465d3e404,,,,,,,,,,,,,,,,,,,,,,,,,,,,,,,,,,,,,,,,,,,,,,,,,,,,,,,,,,,,,,,,,,,,,,,,,,,,,,,,,,,,,,,,,,,,,,,,,,,,,,,,,,,,,,,,,,,,,,,,,,,,,,,,,,,,,,,,,,,,,,,,,,,,,,,,,,,,,,
0,61,61,69,1,,611e8692e058689f82cc9423,62bbfae3452d53574f6592e6,2022-06-29_09h17.59.589,Colour_Asymmetry_Pilot,2022.1.3,Win32,19.990005,62bbe60bf3d75ef465d3e404,,,,,,,,,,,,,,,,,,,,,,,,,,,,,,,,,,,,,,,,,,,,,,,,,,,,,,,,,,,,,,,,,,,,,,,,,,,,,,,,,,,,,,,,,,,,,,,,,,,,,,,,,,,,,,,,,,,,,,,,,,,,,,,,,,,,,,,,,,,,,,,,,,,,,,,,,,,,,,
0,62,62,92,1,,611e8692e058689f82cc9423,62bbfae3452d53574f6592e6,2022-06-29_09h17.59.589,Colour_Asymmetry_Pilot,2022.1.3,Win32,19.990005,62bbe60bf3d75ef465d3e404,,,,,,,,,,,,,,,,,,,,,,,,,,,,,,,,,,,,,,,,,,,,,,,,,,,,,,,,,,,,,,,,,,,,,,,,,,,,,,,,,,,,,,,,,,,,,,,,,,,,,,,,,,,,,,,,,,,,,,,,,,,,,,,,,,,,,,,,,,,,,,,,,,,,,,,,,,,,,,
0,63,63,3,1,,611e8692e058689f82cc9423,62bbfae3452d53574f6592e6,2022-06-29_09h17.59.589,Colour_Asymmetry_Pilot,2022.1.3,Win32,19.990005,62bbe60bf3d75ef465d3e404,,,,,,,,,,,,,,,,,,,,,,,,,,,,,,,,,,,,,,,,,,,,,,,,,,,,,,,,,,,,,,,,,,,,,,,,,,,,,,,,,,,,,,,,,,,,,,,,,,,,,,,,,,,,,,,,,,,,,,,,,,,,,,,,,,,,,,,,,,,,,,,,,,,,,,,,,,,,,,
0,64,64,91,1,,611e8692e058689f82cc9423,62bbfae3452d53574f6592e6,2022-06-29_09h17.59.589,Colour_Asymmetry_Pilot,2022.1.3,Win32,19.990005,62bbe60bf3d75ef465d3e404,,,,,,,,,,,,,,,,,,,,,,,,,,,,,,,,,,,,,,,,,,,,,,,,,,,,,,,,,,,,,,,,,,,,,,,,,,,,,,,,,,,,,,,,,,,,,,,,,,,,,,,,,,,,,,,,,,,,,,,,,,,,,,,,,,,,,,,,,,,,,,,,,,,,,,,,,,,,,,
0,65,65,15,1,,611e8692e058689f82cc9423,62bbfae3452d53574f6592e6,2022-06-29_09h17.59.589,Colour_Asymmetry_Pilot,2022.1.3,Win32,19.990005,62bbe60bf3d75ef465d3e404,,,,,,,,,,,,,,,,,,,,,,,,,,,,,,,,,,,,,,,,,,,,,,,,,,,,,,,,,,,,,,,,,,,,,,,,,,,,,,,,,,,,,,,,,,,,,,,,,,,,,,,,,,,,,,,,,,,,,,,,,,,,,,,,,,,,,,,,,,,,,,,,,,,,,,,,,,,,,,
0,66,66,88,1,,611e8692e058689f82cc9423,62bbfae3452d53574f6592e6,2022-06-29_09h17.59.589,Colour_Asymmetry_Pilot,2022.1.3,Win32,19.990005,62bbe60bf3d75ef465d3e404,,,,,,,,,,,,,,,,,,,,,,,,,,,,,,,,,,,,,,,,,,,,,,,,,,,,,,,,,,,,,,,,,,,,,,,,,,,,,,,,,,,,,,,,,,,,,,,,,,,,,,,,,,,,,,,,,,,,,,,,,,,,,,,,,,,,,,,,,,,,,,,,,,,,,,,,,,,,,,
0,67,67,90,1,,611e8692e058689f82cc9423,62bbfae3452d53574f6592e6,2022-06-29_09h17.59.589,Colour_Asymmetry_Pilot,2022.1.3,Win32,19.990005,62bbe60bf3d75ef465d3e404,,,,,,,,,,,,,,,,,,,,,,,,,,,,,,,,,,,,,,,,,,,,,,,,,,,,,,,,,,,,,,,,,,,,,,,,,,,,,,,,,,,,,,,,,,,,,,,,,,,,,,,,,,,,,,,,,,,,,,,,,,,,,,,,,,,,,,,,,,,,,,,,,,,,,,,,,,,,,,
0,68,68,74,1,,611e8692e058689f82cc9423,62bbfae3452d53574f6592e6,2022-06-29_09h17.59.589,Colour_Asymmetry_Pilot,2022.1.3,Win32,19.990005,62bbe60bf3d75ef465d3e404,,,,,,,,,,,,,,,,,,,,,,,,,,,,,,,,,,,,,,,,,,,,,,,,,,,,,,,,,,,,,,,,,,,,,,,,,,,,,,,,,,,,,,,,,,,,,,,,,,,,,,,,,,,,,,,,,,,,,,,,,,,,,,,,,,,,,,,,,,,,,,,,,,,,,,,,,,,,,,
0,69,69,26,1,,611e8692e058689f82cc9423,62bbfae3452d53574f6592e6,2022-06-29_09h17.59.589,Colour_Asymmetry_Pilot,2022.1.3,Win32,19.990005,62bbe60bf3d75ef465d3e404,,,,,,,,,,,,,,,,,,,,,,,,,,,,,,,,,,,,,,,,,,,,,,,,,,,,,,,,,,,,,,,,,,,,,,,,,,,,,,,,,,,,,,,,,,,,,,,,,,,,,,,,,,,,,,,,,,,,,,,,,,,,,,,,,,,,,,,,,,,,,,,,,,,,,,,,,,,,,,
0,70,70,23,1,,611e8692e058689f82cc9423,62bbfae3452d53574f6592e6,2022-06-29_09h17.59.589,Colour_Asymmetry_Pilot,2022.1.3,Win32,19.990005,62bbe60bf3d75ef465d3e404,,,,,,,,,,,,,,,,,,,,,,,,,,,,,,,,,,,,,,,,,,,,,,,,,,,,,,,,,,,,,,,,,,,,,,,,,,,,,,,,,,,,,,,,,,,,,,,,,,,,,,,,,,,,,,,,,,,,,,,,,,,,,,,,,,,,,,,,,,,,,,,,,,,,,,,,,,,,,,
0,71,71,8,1,,611e8692e058689f82cc9423,62bbfae3452d53574f6592e6,2022-06-29_09h17.59.589,Colour_Asymmetry_Pilot,2022.1.3,Win32,19.990005,62bbe60bf3d75ef465d3e404,,,,,,,,,,,,,,,,,,,,,,,,,,,,,,,,,,,,,,,,,,,,,,,,,,,,,,,,,,,,,,,,,,,,,,,,,,,,,,,,,,,,,,,,,,,,,,,,,,,,,,,,,,,,,,,,,,,,,,,,,,,,,,,,,,,,,,,,,,,,,,,,,,,,,,,,,,,,,,
0,72,72,57,1,,611e8692e058689f82cc9423,62bbfae3452d53574f6592e6,2022-06-29_09h17.59.589,Colour_Asymmetry_Pilot,2022.1.3,Win32,19.990005,62bbe60bf3d75ef465d3e404,,,,,,,,,,,,,,,,,,,,,,,,,,,,,,,,,,,,,,,,,,,,,,,,,,,,,,,,,,,,,,,,,,,,,,,,,,,,,,,,,,,,,,,,,,,,,,,,,,,,,,,,,,,,,,,,,,,,,,,,,,,,,,,,,,,,,,,,,,,,,,,,,,,,,,,,,,,,,,
0,73,73,79,1,,611e8692e058689f82cc9423,62bbfae3452d53574f6592e6,2022-06-29_09h17.59.589,Colour_Asymmetry_Pilot,2022.1.3,Win32,19.990005,62bbe60bf3d75ef465d3e404,,,,,,,,,,,,,,,,,,,,,,,,,,,,,,,,,,,,,,,,,,,,,,,,,,,,,,,,,,,,,,,,,,,,,,,,,,,,,,,,,,,,,,,,,,,,,,,,,,,,,,,,,,,,,,,,,,,,,,,,,,,,,,,,,,,,,,,,,,,,,,,,,,,,,,,,,,,,,,
0,74,74,54,1,,611e8692e058689f82cc9423,62bbfae3452d53574f6592e6,2022-06-29_09h17.59.589,Colour_Asymmetry_Pilot,2022.1.3,Win32,19.990005,62bbe60bf3d75ef465d3e404,,,,,,,,,,,,,,,,,,,,,,,,,,,,,,,,,,,,,,,,,,,,,,,,,,,,,,,,,,,,,,,,,,,,,,,,,,,,,,,,,,,,,,,,,,,,,,,,,,,,,,,,,,,,,,,,,,,,,,,,,,,,,,,,,,,,,,,,,,,,,,,,,,,,,,,,,,,,,,
0,75,75,53,1,,611e8692e058689f82cc9423,62bbfae3452d53574f6592e6,2022-06-29_09h17.59.589,Colour_Asymmetry_Pilot,2022.1.3,Win32,19.990005,62bbe60bf3d75ef465d3e404,,,,,,,,,,,,,,,,,,,,,,,,,,,,,,,,,,,,,,,,,,,,,,,,,,,,,,,,,,,,,,,,,,,,,,,,,,,,,,,,,,,,,,,,,,,,,,,,,,,,,,,,,,,,,,,,,,,,,,,,,,,,,,,,,,,,,,,,,,,,,,,,,,,,,,,,,,,,,,
0,76,76,46,1,,611e8692e058689f82cc9423,62bbfae3452d53574f6592e6,2022-06-29_09h17.59.589,Colour_Asymmetry_Pilot,2022.1.3,Win32,19.990005,62bbe60bf3d75ef465d3e404,,,,,,,,,,,,,,,,,,,,,,,,,,,,,,,,,,,,,,,,,,,,,,,,,,,,,,,,,,,,,,,,,,,,,,,,,,,,,,,,,,,,,,,,,,,,,,,,,,,,,,,,,,,,,,,,,,,,,,,,,,,,,,,,,,,,,,,,,,,,,,,,,,,,,,,,,,,,,,
0,77,77,89,1,,611e8692e058689f82cc9423,62bbfae3452d53574f6592e6,2022-06-29_09h17.59.589,Colour_Asymmetry_Pilot,2022.1.3,Win32,19.990005,62bbe60bf3d75ef465d3e404,,,,,,,,,,,,,,,,,,,,,,,,,,,,,,,,,,,,,,,,,,,,,,,,,,,,,,,,,,,,,,,,,,,,,,,,,,,,,,,,,,,,,,,,,,,,,,,,,,,,,,,,,,,,,,,,,,,,,,,,,,,,,,,,,,,,,,,,,,,,,,,,,,,,,,,,,,,,,,
0,78,78,71,1,,611e8692e058689f82cc9423,62bbfae3452d53574f6592e6,2022-06-29_09h17.59.589,Colour_Asymmetry_Pilot,2022.1.3,Win32,19.990005,62bbe60bf3d75ef465d3e404,,,,,,,,,,,,,,,,,,,,,,,,,,,,,,,,,,,,,,,,,,,,,,,,,,,,,,,,,,,,,,,,,,,,,,,,,,,,,,,,,,,,,,,,,,,,,,,,,,,,,,,,,,,,,,,,,,,,,,,,,,,,,,,,,,,,,,,,,,,,,,,,,,,,,,,,,,,,,,
0,79,79,84,1,,611e8692e058689f82cc9423,62bbfae3452d53574f6592e6,2022-06-29_09h17.59.589,Colour_Asymmetry_Pilot,2022.1.3,Win32,19.990005,62bbe60bf3d75ef465d3e404,,,,,,,,,,,,,,,,,,,,,,,,,,,,,,,,,,,,,,,,,,,,,,,,,,,,,,,,,,,,,,,,,,,,,,,,,,,,,,,,,,,,,,,,,,,,,,,,,,,,,,,,,,,,,,,,,,,,,,,,,,,,,,,,,,,,,,,,,,,,,,,,,,,,,,,,,,,,,,
0,80,80,6,1,,611e8692e058689f82cc9423,62bbfae3452d53574f6592e6,2022-06-29_09h17.59.589,Colour_Asymmetry_Pilot,2022.1.3,Win32,19.990005,62bbe60bf3d75ef465d3e404,,,,,,,,,,,,,,,,,,,,,,,,,,,,,,,,,,,,,,,,,,,,,,,,,,,,,,,,,,,,,,,,,,,,,,,,,,,,,,,,,,,,,,,,,,,,,,,,,,,,,,,,,,,,,,,,,,,,,,,,,,,,,,,,,,,,,,,,,,,,,,,,,,,,,,,,,,,,,,
0,81,81,31,1,,611e8692e058689f82cc9423,62bbfae3452d53574f6592e6,2022-06-29_09h17.59.589,Colour_Asymmetry_Pilot,2022.1.3,Win32,19.990005,62bbe60bf3d75ef465d3e404,,,,,,,,,,,,,,,,,,,,,,,,,,,,,,,,,,,,,,,,,,,,,,,,,,,,,,,,,,,,,,,,,,,,,,,,,,,,,,,,,,,,,,,,,,,,,,,,,,,,,,,,,,,,,,,,,,,,,,,,,,,,,,,,,,,,,,,,,,,,,,,,,,,,,,,,,,,,,,
0,82,82,38,1,,611e8692e058689f82cc9423,62bbfae3452d53574f6592e6,2022-06-29_09h17.59.589,Colour_Asymmetry_Pilot,2022.1.3,Win32,19.990005,62bbe60bf3d75ef465d3e404,,,,,,,,,,,,,,,,,,,,,,,,,,,,,,,,,,,,,,,,,,,,,,,,,,,,,,,,,,,,,,,,,,,,,,,,,,,,,,,,,,,,,,,,,,,,,,,,,,,,,,,,,,,,,,,,,,,,,,,,,,,,,,,,,,,,,,,,,,,,,,,,,,,,,,,,,,,,,,
0,83,83,19,1,,611e8692e058689f82cc9423,62bbfae3452d53574f6592e6,2022-06-29_09h17.59.589,Colour_Asymmetry_Pilot,2022.1.3,Win32,19.990005,62bbe60bf3d75ef465d3e404,,,,,,,,,,,,,,,,,,,,,,,,,,,,,,,,,,,,,,,,,,,,,,,,,,,,,,,,,,,,,,,,,,,,,,,,,,,,,,,,,,,,,,,,,,,,,,,,,,,,,,,,,,,,,,,,,,,,,,,,,,,,,,,,,,,,,,,,,,,,,,,,,,,,,,,,,,,,,,
0,84,84,4,1,,611e8692e058689f82cc9423,62bbfae3452d53574f6592e6,2022-06-29_09h17.59.589,Colour_Asymmetry_Pilot,2022.1.3,Win32,19.990005,62bbe60bf3d75ef465d3e404,,,,,,,,,,,,,,,,,,,,,,,,,,,,,,,,,,,,,,,,,,,,,,,,,,,,,,,,,,,,,,,,,,,,,,,,,,,,,,,,,,,,,,,,,,,,,,,,,,,,,,,,,,,,,,,,,,,,,,,,,,,,,,,,,,,,,,,,,,,,,,,,,,,,,,,,,,,,,,
0,85,85,52,1,,611e8692e058689f82cc9423,62bbfae3452d53574f6592e6,2022-06-29_09h17.59.589,Colour_Asymmetry_Pilot,2022.1.3,Win32,19.990005,62bbe60bf3d75ef465d3e404,,,,,,,,,,,,,,,,,,,,,,,,,,,,,,,,,,,,,,,,,,,,,,,,,,,,,,,,,,,,,,,,,,,,,,,,,,,,,,,,,,,,,,,,,,,,,,,,,,,,,,,,,,,,,,,,,,,,,,,,,,,,,,,,,,,,,,,,,,,,,,,,,,,,,,,,,,,,,,
0,86,86,42,1,,611e8692e058689f82cc9423,62bbfae3452d53574f6592e6,2022-06-29_09h17.59.589,Colour_Asymmetry_Pilot,2022.1.3,Win32,19.990005,62bbe60bf3d75ef465d3e404,,,,,,,,,,,,,,,,,,,,,,,,,,,,,,,,,,,,,,,,,,,,,,,,,,,,,,,,,,,,,,,,,,,,,,,,,,,,,,,,,,,,,,,,,,,,,,,,,,,,,,,,,,,,,,,,,,,,,,,,,,,,,,,,,,,,,,,,,,,,,,,,,,,,,,,,,,,,,,
0,87,87,14,1,,611e8692e058689f82cc9423,62bbfae3452d53574f6592e6,2022-06-29_09h17.59.589,Colour_Asymmetry_Pilot,2022.1.3,Win32,19.990005,62bbe60bf3d75ef465d3e404,,,,,,,,,,,,,,,,,,,,,,,,,,,,,,,,,,,,,,,,,,,,,,,,,,,,,,,,,,,,,,,,,,,,,,,,,,,,,,,,,,,,,,,,,,,,,,,,,,,,,,,,,,,,,,,,,,,,,,,,,,,,,,,,,,,,,,,,,,,,,,,,,,,,,,,,,,,,,,
0,88,88,82,1,,611e8692e058689f82cc9423,62bbfae3452d53574f6592e6,2022-06-29_09h17.59.589,Colour_Asymmetry_Pilot,2022.1.3,Win32,19.990005,62bbe60bf3d75ef465d3e404,,,,,,,,,,,,,,,,,,,,,,,,,,,,,,,,,,,,,,,,,,,,,,,,,,,,,,,,,,,,,,,,,,,,,,,,,,,,,,,,,,,,,,,,,,,,,,,,,,,,,,,,,,,,,,,,,,,,,,,,,,,,,,,,,,,,,,,,,,,,,,,,,,,,,,,,,,,,,,
0,89,89,18,1,,611e8692e058689f82cc9423,62bbfae3452d53574f6592e6,2022-06-29_09h17.59.589,Colour_Asymmetry_Pilot,2022.1.3,Win32,19.990005,62bbe60bf3d75ef465d3e404,,,,,,,,,,,,,,,,,,,,,,,,,,,,,,,,,,,,,,,,,,,,,,,,,,,,,,,,,,,,,,,,,,,,,,,,,,,,,,,,,,,,,,,,,,,,,,,,,,,,,,,,,,,,,,,,,,,,,,,,,,,,,,,,,,,,,,,,,,,,,,,,,,,,,,,,,,,,,,
0,90,90,5,1,,611e8692e058689f82cc9423,62bbfae3452d53574f6592e6,2022-06-29_09h17.59.589,Colour_Asymmetry_Pilot,2022.1.3,Win32,19.990005,62bbe60bf3d75ef465d3e404,,,,,,,,,,,,,,,,,,,,,,,,,,,,,,,,,,,,,,,,,,,,,,,,,,,,,,,,,,,,,,,,,,,,,,,,,,,,,,,,,,,,,,,,,,,,,,,,,,,,,,,,,,,,,,,,,,,,,,,,,,,,,,,,,,,,,,,,,,,,,,,,,,,,,,,,,,,,,,
0,91,91,36,1,,611e8692e058689f82cc9423,62bbfae3452d53574f6592e6,2022-06-29_09h17.59.589,Colour_Asymmetry_Pilot,2022.1.3,Win32,19.990005,62bbe60bf3d75ef465d3e404,,,,,,,,,,,,,,,,,,,,,,,,,,,,,,,,,,,,,,,,,,,,,,,,,,,,,,,,,,,,,,,,,,,,,,,,,,,,,,,,,,,,,,,,,,,,,,,,,,,,,,,,,,,,,,,,,,,,,,,,,,,,,,,,,,,,,,,,,,,,,,,,,,,,,,,,,,,,,,
0,92,92,28,1,,611e8692e058689f82cc9423,62bbfae3452d53574f6592e6,2022-06-29_09h17.59.589,Colour_Asymmetry_Pilot,2022.1.3,Win32,19.990005,62bbe60bf3d75ef465d3e404,,,,,,,,,,,,,,,,,,,,,,,,,,,,,,,,,,,,,,,,,,,,,,,,,,,,,,,,,,,,,,,,,,,,,,,,,,,,,,,,,,,,,,,,,,,,,,,,,,,,,,,,,,,,,,,,,,,,,,,,,,,,,,,,,,,,,,,,,,,,,,,,,,,,,,,,,,,,,,
,,,,,,611e8692e058689f82cc9423,62bbfae3452d53574f6592e6,2022-06-29_09h17.59.589,Colour_Asymmetry_Pilot,2022.1.3,Win32,19.990005,62bbe60bf3d75ef465d3e404,0,0,0,86,1,fourtwo,,,,,,,,,,,,,,,,,,,,,,,,,,,,,,,,,,,,,,,,,,,,,,,,,,,,,,,,,,,,,,,,,,,,,,,,,,,,,,,,,,,,,,,,,,,,,,,,,,,,,,,,,,,,,,,,,,,,,,,,,,,,,,,,,,,,,,,,,,,,,,,,,,,,,,,,
,,,,,,611e8692e058689f82cc9423,62bbfae3452d53574f6592e6,2022-06-29_09h17.59.589,Colour_Asymmetry_Pilot,2022.1.3,Win32,19.990005,62bbe60bf3d75ef465d3e404,0,1,1,159,1,fourthree,,,,,,,,,,,,,,,,,,,,,,,,,,,,,,,,,,,,,,,,,,,,,,,,,,,,,,,,,,,,,,,,,,,,,,,,,,,,,,,,,,,,,,,,,,,,,,,,,,,,,,,,,,,,,,,,,,,,,,,,,,,,,,,,,,,,,,,,,,,,,,,,,,,,,,,,
,,,,,,611e8692e058689f82cc9423,62bbfae3452d53574f6592e6,2022-06-29_09h17.59.589,Colour_Asymmetry_Pilot,2022.1.3,Win32,19.990005,62bbe60bf3d75ef465d3e404,0,2,2,44,1,threeone,,,,,,,,,,,,,,,,,,,,,,,,,,,,,,,,,,,,,,,,,,,,,,,,,,,,,,,,,,,,,,,,,,,,,,,,,,,,,,,,,,,,,,,,,,,,,,,,,,,,,,,,,,,,,,,,,,,,,,,,,,,,,,,,,,,,,,,,,,,,,,,,,,,,,,,,
,,,,,,611e8692e058689f82cc9423,62bbfae3452d53574f6592e6,2022-06-29_09h17.59.589,Colour_Asymmetry_Pilot,2022.1.3,Win32,19.990005,62bbe60bf3d75ef465d3e404,0,3,3,97,1,onethree,,,,,,,,,,,,,,,,,,,,,,,,,,,,,,,,,,,,,,,,,,,,,,,,,,,,,,,,,,,,,,,,,,,,,,,,,,,,,,,,,,,,,,,,,,,,,,,,,,,,,,,,,,,,,,,,,,,,,,,,,,,,,,,,,,,,,,,,,,,,,,,,,,,,,,,,
,,,,,,611e8692e058689f82cc9423,62bbfae3452d53574f6592e6,2022-06-29_09h17.59.589,Colour_Asymmetry_Pilot,2022.1.3,Win32,19.990005,62bbe60bf3d75ef465d3e404,0,4,4,5,1,threefour,,,,,,,,,,,,,,,,,,,,,,,,,,,,,,,,,,,,,,,,,,,,,,,,,,,,,,,,,,,,,,,,,,,,,,,,,,,,,,,,,,,,,,,,,,,,,,,,,,,,,,,,,,,,,,,,,,,,,,,,,,,,,,,,,,,,,,,,,,,,,,,,,,,,,,,,
,,,,,,611e8692e058689f82cc9423,62bbfae3452d53574f6592e6,2022-06-29_09h17.59.589,Colour_Asymmetry_Pilot,2022.1.3,Win32,19.990005,62bbe60bf3d75ef465d3e404,0,5,5,68,1,threeone,,,,,,,,,,,,,,,,,,,,,,,,,,,,,,,,,,,,,,,,,,,,,,,,,,,,,,,,,,,,,,,,,,,,,,,,,,,,,,,,,,,,,,,,,,,,,,,,,,,,,,,,,,,,,,,,,,,,,,,,,,,,,,,,,,,,,,,,,,,,,,,,,,,,,,,,
,,,,,,611e8692e058689f82cc9423,62bbfae3452d53574f6592e6,2022-06-29_09h17.59.589,Colour_Asymmetry_Pilot,2022.1.3,Win32,19.990005,62bbe60bf3d75ef465d3e404,0,6,6,27,1,twofour,,,,,,,,,,,,,,,,,,,,,,,,,,,,,,,,,,,,,,,,,,,,,,,,,,,,,,,,,,,,,,,,,,,,,,,,,,,,,,,,,,,,,,,,,,,,,,,,,,,,,,,,,,,,,,,,,,,,,,,,,,,,,,,,,,,,,,,,,,,,,,,,,,,,,,,,
,,,,,,611e8692e058689f82cc9423,62bbfae3452d53574f6592e6,2022-06-29_09h17.59.589,Colour_Asymmetry_Pilot,2022.1.3,Win32,19.990005,62bbe60bf3d75ef465d3e404,0,7,7,115,1,twofour,,,,,,,,,,,,,,,,,,,,,,,,,,,,,,,,,,,,,,,,,,,,,,,,,,,,,,,,,,,,,,,,,,,,,,,,,,,,,,,,,,,,,,,,,,,,,,,,,,,,,,,,,,,,,,,,,,,,,,,,,,,,,,,,,,,,,,,,,,,,,,,,,,,,,,,,
,,,,,,611e8692e058689f82cc9423,62bbfae3452d53574f6592e6,2022-06-29_09h17.59.589,Colour_Asymmetry_Pilot,2022.1.3,Win32,19.990005,62bbe60bf3d75ef465d3e404,0,8,8,69,1,threefour,,,,,,,,,,,,,,,,,,,,,,,,,,,,,,,,,,,,,,,,,,,,,,,,,,,,,,,,,,,,,,,,,,,,,,,,,,,,,,,,,,,,,,,,,,,,,,,,,,,,,,,,,,,,,,,,,,,,,,,,,,,,,,,,,,,,,,,,,,,,,,,,,,,,,,,,
,,,,,,611e8692e058689f82cc9423,62bbfae3452d53574f6592e6,2022-06-29_09h17.59.589,Colour_Asymmetry_Pilot,2022.1.3,Win32,19.990005,62bbe60bf3d75ef465d3e404,0,9,9,28,1,threeone,,,,,,,,,,,,,,,,,,,,,,,,,,,,,,,,,,,,,,,,,,,,,,,,,,,,,,,,,,,,,,,,,,,,,,,,,,,,,,,,,,,,,,,,,,,,,,,,,,,,,,,,,,,,,,,,,,,,,,,,,,,,,,,,,,,,,,,,,,,,,,,,,,,,,,,,
,,,,,,611e8692e058689f82cc9423,62bbfae3452d53574f6592e6,2022-06-29_09h17.59.589,Colour_Asymmetry_Pilot,2022.1.3,Win32,19.990005,62bbe60bf3d75ef465d3e404,0,10,10,81,1,onethree,,,,,,,,,,,,,,,,,,,,,,,,,,,,,,,,,,,,,,,,,,,,,,,,,,,,,,,,,,,,,,,,,,,,,,,,,,,,,,,,,,,,,,,,,,,,,,,,,,,,,,,,,,,,,,,,,,,,,,,,,,,,,,,,,,,,,,,,,,,,,,,,,,,,,,,,
,,,,,,611e8692e058689f82cc9423,62bbfae3452d53574f6592e6,2022-06-29_09h17.59.589,Colour_Asymmetry_Pilot,2022.1.3,Win32,19.990005,62bbe60bf3d75ef465d3e404,0,11,11,50,1,twoone,,,,,,,,,,,,,,,,,,,,,,,,,,,,,,,,,,,,,,,,,,,,,,,,,,,,,,,,,,,,,,,,,,,,,,,,,,,,,,,,,,,,,,,,,,,,,,,,,,,,,,,,,,,,,,,,,,,,,,,,,,,,,,,,,,,,,,,,,,,,,,,,,,,,,,,,
,,,,,,611e8692e058689f82cc9423,62bbfae3452d53574f6592e6,2022-06-29_09h17.59.589,Colour_Asymmetry_Pilot,2022.1.3,Win32,19.990005,62bbe60bf3d75ef465d3e404,0,12,12,55,1,fourthree,,,,,,,,,,,,,,,,,,,,,,,,,,,,,,,,,,,,,,,,,,,,,,,,,,,,,,,,,,,,,,,,,,,,,,,,,,,,,,,,,,,,,,,,,,,,,,,,,,,,,,,,,,,,,,,,,,,,,,,,,,,,,,,,,,,,,,,,,,,,,,,,,,,,,,,,
,,,,,,611e8692e058689f82cc9423,62bbfae3452d53574f6592e6,2022-06-29_09h17.59.589,Colour_Asymmetry_Pilot,2022.1.3,Win32,19.990005,62bbe60bf3d75ef465d3e404,0,13,13,35,1,twofour,,,,,,,,,,,,,,,,,,,,,,,,,,,,,,,,,,,,,,,,,,,,,,,,,,,,,,,,,,,,,,,,,,,,,,,,,,,,,,,,,,,,,,,,,,,,,,,,,,,,,,,,,,,,,,,,,,,,,,,,,,,,,,,,,,,,,,,,,,,,,,,,,,,,,,,,
,,,,,,611e8692e058689f82cc9423,62bbfae3452d53574f6592e6,2022-06-29_09h17.59.589,Colour_Asymmetry_Pilot,2022.1.3,Win32,19.990005,62bbe60bf3d75ef465d3e404,0,14,14,54,1,fourtwo,,,,,,,,,,,,,,,,,,,,,,,,,,,,,,,,,,,,,,,,,,,,,,,,,,,,,,,,,,,,,,,,,,,,,,,,,,,,,,,,,,,,,,,,,,,,,,,,,,,,,,,,,,,,,,,,,,,,,,,,,,,,,,,,,,,,,,,,,,,,,,,,,,,,,,,,
,,,,,,611e8692e058689f82cc9423,62bbfae3452d53574f6592e6,2022-06-29_09h17.59.589,Colour_Asymmetry_Pilot,2022.1.3,Win32,19.990005,62bbe60bf3d75ef465d3e404,0,15,15,121,1,onethree,,,,,,,,,,,,,,,,,,,,,,,,,,,,,,,,,,,,,,,,,,,,,,,,,,,,,,,,,,,,,,,,,,,,,,,,,,,,,,,,,,,,,,,,,,,,,,,,,,,,,,,,,,,,,,,,,,,,,,,,,,,,,,,,,,,,,,,,,,,,,,,,,,,,,,,,
,,,,,,611e8692e058689f82cc9423,62bbfae3452d53574f6592e6,2022-06-29_09h17.59.589,Colour_Asymmetry_Pilot,2022.1.3,Win32,19.990005,62bbe60bf3d75ef465d3e404,0,16,16,151,1,fourthree,,,,,,,,,,,,,,,,,,,,,,,,,,,,,,,,,,,,,,,,,,,,,,,,,,,,,,,,,,,,,,,,,,,,,,,,,,,,,,,,,,,,,,,,,,,,,,,,,,,,,,,,,,,,,,,,,,,,,,,,,,,,,,,,,,,,,,,,,,,,,,,,,,,,,,,,
,,,,,,611e8692e058689f82cc9423,62bbfae3452d53574f6592e6,2022-06-29_09h17.59.589,Colour_Asymmetry_Pilot,2022.1.3,Win32,19.990005,62bbe60bf3d75ef465d3e404,0,17,17,135,1,fourthree,,,,,,,,,,,,,,,,,,,,,,,,,,,,,,,,,,,,,,,,,,,,,,,,,,,,,,,,,,,,,,,,,,,,,,,,,,,,,,,,,,,,,,,,,,,,,,,,,,,,,,,,,,,,,,,,,,,,,,,,,,,,,,,,,,,,,,,,,,,,,,,,,,,,,,,,
,,,,,,611e8692e058689f82cc9423,62bbfae3452d53574f6592e6,2022-06-29_09h17.59.589,Colour_Asymmetry_Pilot,2022.1.3,Win32,19.990005,62bbe60bf3d75ef465d3e404,0,18,18,31,1,fourthree,,,,,,,,,,,,,,,,,,,,,,,,,,,,,,,,,,,,,,,,,,,,,,,,,,,,,,,,,,,,,,,,,,,,,,,,,,,,,,,,,,,,,,,,,,,,,,,,,,,,,,,,,,,,,,,,,,,,,,,,,,,,,,,,,,,,,,,,,,,,,,,,,,,,,,,,
,,,,,,611e8692e058689f82cc9423,62bbfae3452d53574f6592e6,2022-06-29_09h17.59.589,Colour_Asymmetry_Pilot,2022.1.3,Win32,19.990005,62bbe60bf3d75ef465d3e404,0,19,19,96,1,onetwo,,,,,,,,,,,,,,,,,,,,,,,,,,,,,,,,,,,,,,,,,,,,,,,,,,,,,,,,,,,,,,,,,,,,,,,,,,,,,,,,,,,,,,,,,,,,,,,,,,,,,,,,,,,,,,,,,,,,,,,,,,,,,,,,,,,,,,,,,,,,,,,,,,,,,,,,
,,,,,,611e8692e058689f82cc9423,62bbfae3452d53574f6592e6,2022-06-29_09h17.59.589,Colour_Asymmetry_Pilot,2022.1.3,Win32,19.990005,62bbe60bf3d75ef465d3e404,0,20,20,25,1,onethree,,,,,,,,,,,,,,,,,,,,,,,,,,,,,,,,,,,,,,,,,,,,,,,,,,,,,,,,,,,,,,,,,,,,,,,,,,,,,,,,,,,,,,,,,,,,,,,,,,,,,,,,,,,,,,,,,,,,,,,,,,,,,,,,,,,,,,,,,,,,,,,,,,,,,,,,
,,,,,,611e8692e058689f82cc9423,62bbfae3452d53574f6592e6,2022-06-29_09h17.59.589,Colour_Asymmetry_Pilot,2022.1.3,Win32,19.990005,62bbe60bf3d75ef465d3e404,0,21,21,56,1,onetwo,,,,,,,,,,,,,,,,,,,,,,,,,,,,,,,,,,,,,,,,,,,,,,,,,,,,,,,,,,,,,,,,,,,,,,,,,,,,,,,,,,,,,,,,,,,,,,,,,,,,,,,,,,,,,,,,,,,,,,,,,,,,,,,,,,,,,,,,,,,,,,,,,,,,,,,,
,,,,,,611e8692e058689f82cc9423,62bbfae3452d53574f6592e6,2022-06-29_09h17.59.589,Colour_Asymmetry_Pilot,2022.1.3,Win32,19.990005,62bbe60bf3d75ef465d3e404,0,22,22,99,1,twofour,,,,,,,,,,,,,,,,,,,,,,,,,,,,,,,,,,,,,,,,,,,,,,,,,,,,,,,,,,,,,,,,,,,,,,,,,,,,,,,,,,,,,,,,,,,,,,,,,,,,,,,,,,,,,,,,,,,,,,,,,,,,,,,,,,,,,,,,,,,,,,,,,,,,,,,,
,,,,,,611e8692e058689f82cc9423,62bbfae3452d53574f6592e6,2022-06-29_09h17.59.589,Colour_Asymmetry_Pilot,2022.1.3,Win32,19.990005,62bbe60bf3d75ef465d3e404,0,23,23,132,1,threeone,,,,,,,,,,,,,,,,,,,,,,,,,,,,,,,,,,,,,,,,,,,,,,,,,,,,,,,,,,,,,,,,,,,,,,,,,,,,,,,,,,,,,,,,,,,,,,,,,,,,,,,,,,,,,,,,,,,,,,,,,,,,,,,,,,,,,,,,,,,,,,,,,,,,,,,,
,,,,,,611e8692e058689f82cc9423,62bbfae3452d53574f6592e6,2022-06-29_09h17.59.589,Colour_Asymmetry_Pilot,2022.1.3,Win32,19.990005,62bbe60bf3d75ef465d3e404,0,24,24,134,1,fourtwo,,,,,,,,,,,,,,,,,,,,,,,,,,,,,,,,,,,,,,,,,,,,,,,,,,,,,,,,,,,,,,,,,,,,,,,,,,,,,,,,,,,,,,,,,,,,,,,,,,,,,,,,,,,,,,,,,,,,,,,,,,,,,,,,,,,,,,,,,,,,,,,,,,,,,,,,
,,,,,,611e8692e058689f82cc9423,62bbfae3452d53574f6592e6,2022-06-29_09h17.59.589,Colour_Asymmetry_Pilot,2022.1.3,Win32,19.990005,62bbe60bf3d75ef465d3e404,0,25,25,136,1,onetwo,,,,,,,,,,,,,,,,,,,,,,,,,,,,,,,,,,,,,,,,,,,,,,,,,,,,,,,,,,,,,,,,,,,,,,,,,,,,,,,,,,,,,,,,,,,,,,,,,,,,,,,,,,,,,,,,,,,,,,,,,,,,,,,,,,,,,,,,,,,,,,,,,,,,,,,,
,,,,,,611e8692e058689f82cc9423,62bbfae3452d53574f6592e6,2022-06-29_09h17.59.589,Colour_Asymmetry_Pilot,2022.1.3,Win32,19.990005,62bbe60bf3d75ef465d3e404,0,26,26,110,1,fourtwo,,,,,,,,,,,,,,,,,,,,,,,,,,,,,,,,,,,,,,,,,,,,,,,,,,,,,,,,,,,,,,,,,,,,,,,,,,,,,,,,,,,,,,,,,,,,,,,,,,,,,,,,,,,,,,,,,,,,,,,,,,,,,,,,,,,,,,,,,,,,,,,,,,,,,,,,
,,,,,,611e8692e058689f82cc9423,62bbfae3452d53574f6592e6,2022-06-29_09h17.59.589,Colour_Asymmetry_Pilot,2022.1.3,Win32,19.990005,62bbe60bf3d75ef465d3e404,0,27,27,82,1,twoone,,,,,,,,,,,,,,,,,,,,,,,,,,,,,,,,,,,,,,,,,,,,,,,,,,,,,,,,,,,,,,,,,,,,,,,,,,,,,,,,,,,,,,,,,,,,,,,,,,,,,,,,,,,,,,,,,,,,,,,,,,,,,,,,,,,,,,,,,,,,,,,,,,,,,,,,
,,,,,,611e8692e058689f82cc9423,62bbfae3452d53574f6592e6,2022-06-29_09h17.59.589,Colour_Asymmetry_Pilot,2022.1.3,Win32,19.990005,62bbe60bf3d75ef465d3e404,0,28,28,92,1,threeone,,,,,,,,,,,,,,,,,,,,,,,,,,,,,,,,,,,,,,,,,,,,,,,,,,,,,,,,,,,,,,,,,,,,,,,,,,,,,,,,,,,,,,,,,,,,,,,,,,,,,,,,,,,,,,,,,,,,,,,,,,,,,,,,,,,,,,,,,,,,,,,,,,,,,,,,
,,,,,,611e8692e058689f82cc9423,62bbfae3452d53574f6592e6,2022-06-29_09h17.59.589,Colour_Asymmetry_Pilot,2022.1.3,Win32,19.990005,62bbe60bf3d75ef465d3e404,0,29,29,100,1,threeone,,,,,,,,,,,,,,,,,,,,,,,,,,,,,,,,,,,,,,,,,,,,,,,,,,,,,,,,,,,,,,,,,,,,,,,,,,,,,,,,,,,,,,,,,,,,,,,,,,,,,,,,,,,,,,,,,,,,,,,,,,,,,,,,,,,,,,,,,,,,,,,,,,,,,,,,
,,,,,,611e8692e058689f82cc9423,62bbfae3452d53574f6592e6,2022-06-29_09h17.59.589,Colour_Asymmetry_Pilot,2022.1.3,Win32,19.990005,62bbe60bf3d75ef465d3e404,0,30,30,102,1,fourtwo,,,,,,,,,,,,,,,,,,,,,,,,,,,,,,,,,,,,,,,,,,,,,,,,,,,,,,,,,,,,,,,,,,,,,,,,,,,,,,,,,,,,,,,,,,,,,,,,,,,,,,,,,,,,,,,,,,,,,,,,,,,,,,,,,,,,,,,,,,,,,,,,,,,,,,,,
,,,,,,611e8692e058689f82cc9423,62bbfae3452d53574f6592e6,2022-06-29_09h17.59.589,Colour_Asymmetry_Pilot,2022.1.3,Win32,19.990005,62bbe60bf3d75ef465d3e404,0,31,31,79,1,fourthree,,,,,,,,,,,,,,,,,,,,,,,,,,,,,,,,,,,,,,,,,,,,,,,,,,,,,,,,,,,,,,,,,,,,,,,,,,,,,,,,,,,,,,,,,,,,,,,,,,,,,,,,,,,,,,,,,,,,,,,,,,,,,,,,,,,,,,,,,,,,,,,,,,,,,,,,
,,,,,,611e8692e058689f82cc9423,62bbfae3452d53574f6592e6,2022-06-29_09h17.59.589,Colour_Asymmetry_Pilot,2022.1.3,Win32,19.990005,62bbe60bf3d75ef465d3e404,0,32,32,66,1,twoone,,,,,,,,,,,,,,,,,,,,,,,,,,,,,,,,,,,,,,,,,,,,,,,,,,,,,,,,,,,,,,,,,,,,,,,,,,,,,,,,,,,,,,,,,,,,,,,,,,,,,,,,,,,,,,,,,,,,,,,,,,,,,,,,,,,,,,,,,,,,,,,,,,,,,,,,
,,,,,,611e8692e058689f82cc9423,62bbfae3452d53574f6592e6,2022-06-29_09h17.59.589,Colour_Asymmetry_Pilot,2022.1.3,Win32,19.990005,62bbe60bf3d75ef465d3e404,0,33,33,146,1,twoone,,,,,,,,,,,,,,,,,,,,,,,,,,,,,,,,,,,,,,,,,,,,,,,,,,,,,,,,,,,,,,,,,,,,,,,,,,,,,,,,,,,,,,,,,,,,,,,,,,,,,,,,,,,,,,,,,,,,,,,,,,,,,,,,,,,,,,,,,,,,,,,,,,,,,,,,
,,,,,,611e8692e058689f82cc9423,62bbfae3452d53574f6592e6,2022-06-29_09h17.59.589,Colour_Asymmetry_Pilot,2022.1.3,Win32,19.990005,62bbe60bf3d75ef465d3e404,0,34,34,90,1,twoone,,,,,,,,,,,,,,,,,,,,,,,,,,,,,,,,,,,,,,,,,,,,,,,,,,,,,,,,,,,,,,,,,,,,,,,,,,,,,,,,,,,,,,,,,,,,,,,,,,,,,,,,,,,,,,,,,,,,,,,,,,,,,,,,,,,,,,,,,,,,,,,,,,,,,,,,
,,,,,,611e8692e058689f82cc9423,62bbfae3452d53574f6592e6,2022-06-29_09h17.59.589,Colour_Asymmetry_Pilot,2022.1.3,Win32,19.990005,62bbe60bf3d75ef465d3e404,0,35,35,75,1,twofour,,,,,,,,,,,,,,,,,,,,,,,,,,,,,,,,,,,,,,,,,,,,,,,,,,,,,,,,,,,,,,,,,,,,,,,,,,,,,,,,,,,,,,,,,,,,,,,,,,,,,,,,,,,,,,,,,,,,,,,,,,,,,,,,,,,,,,,,,,,,,,,,,,,,,,,,
,,,,,,611e8692e058689f82cc9423,62bbfae3452d53574f6592e6,2022-06-29_09h17.59.589,Colour_Asymmetry_Pilot,2022.1.3,Win32,19.990005,62bbe60bf3d75ef465d3e404,0,36,36,38,1,fourtwo,,,,,,,,,,,,,,,,,,,,,,,,,,,,,,,,,,,,,,,,,,,,,,,,,,,,,,,,,,,,,,,,,,,,,,,,,,,,,,,,,,,,,,,,,,,,,,,,,,,,,,,,,,,,,,,,,,,,,,,,,,,,,,,,,,,,,,,,,,,,,,,,,,,,,,,,
,,,,,,611e8692e058689f82cc9423,62bbfae3452d53574f6592e6,2022-06-29_09h17.59.589,Colour_Asymmetry_Pilot,2022.1.3,Win32,19.990005,62bbe60bf3d75ef465d3e404,0,37,37,91,1,twofour,,,,,,,,,,,,,,,,,,,,,,,,,,,,,,,,,,,,,,,,,,,,,,,,,,,,,,,,,,,,,,,,,,,,,,,,,,,,,,,,,,,,,,,,,,,,,,,,,,,,,,,,,,,,,,,,,,,,,,,,,,,,,,,,,,,,,,,,,,,,,,,,,,,,,,,,
,,,,,,611e8692e058689f82cc9423,62bbfae3452d53574f6592e6,2022-06-29_09h17.59.589,Colour_Asymmetry_Pilot,2022.1.3,Win32,19.990005,62bbe60bf3d75ef465d3e404,0,38,38,64,1,onetwo,,,,,,,,,,,,,,,,,,,,,,,,,,,,,,,,,,,,,,,,,,,,,,,,,,,,,,,,,,,,,,,,,,,,,,,,,,,,,,,,,,,,,,,,,,,,,,,,,,,,,,,,,,,,,,,,,,,,,,,,,,,,,,,,,,,,,,,,,,,,,,,,,,,,,,,,
,,,,,,611e8692e058689f82cc9423,62bbfae3452d53574f6592e6,2022-06-29_09h17.59.589,Colour_Asymmetry_Pilot,2022.1.3,Win32,19.990005,62bbe60bf3d75ef465d3e404,0,39,39,145,1,onethree,,,,,,,,,,,,,,,,,,,,,,,,,,,,,,,,,,,,,,,,,,,,,,,,,,,,,,,,,,,,,,,,,,,,,,,,,,,,,,,,,,,,,,,,,,,,,,,,,,,,,,,,,,,,,,,,,,,,,,,,,,,,,,,,,,,,,,,,,,,,,,,,,,,,,,,,
,,,,,,611e8692e058689f82cc9423,62bbfae3452d53574f6592e6,2022-06-29_09h17.59.589,Colour_Asymmetry_Pilot,2022.1.3,Win32,19.990005,62bbe60bf3d75ef465d3e404,0,40,40,33,1,onethree,,,,,,,,,,,,,,,,,,,,,,,,,,,,,,,,,,,,,,,,,,,,,,,,,,,,,,,,,,,,,,,,,,,,,,,,,,,,,,,,,,,,,,,,,,,,,,,,,,,,,,,,,,,,,,,,,,,,,,,,,,,,,,,,,,,,,,,,,,,,,,,,,,,,,,,,
,,,,,,611e8692e058689f82cc9423,62bbfae3452d53574f6592e6,2022-06-29_09h17.59.589,Colour_Asymmetry_Pilot,2022.1.3,Win32,19.990005,62bbe60bf3d75ef465d3e404,0,41,41,122,1,twoone,,,,,,,,,,,,,,,,,,,,,,,,,,,,,,,,,,,,,,,,,,,,,,,,,,,,,,,,,,,,,,,,,,,,,,,,,,,,,,,,,,,,,,,,,,,,,,,,,,,,,,,,,,,,,,,,,,,,,,,,,,,,,,,,,,,,,,,,,,,,,,,,,,,,,,,,
,,,,,,611e8692e058689f82cc9423,62bbfae3452d53574f6592e6,2022-06-29_09h17.59.589,Colour_Asymmetry_Pilot,2022.1.3,Win32,19.990005,62bbe60bf3d75ef465d3e404,0,42,42,51,1,twofour,,,,,,,,,,,,,,,,,,,,,,,,,,,,,,,,,,,,,,,,,,,,,,,,,,,,,,,,,,,,,,,,,,,,,,,,,,,,,,,,,,,,,,,,,,,,,,,,,,,,,,,,,,,,,,,,,,,,,,,,,,,,,,,,,,,,,,,,,,,,,,,,,,,,,,,,
,,,,,,611e8692e058689f82cc9423,62bbfae3452d53574f6592e6,2022-06-29_09h17.59.589,Colour_Asymmetry_Pilot,2022.1.3,Win32,19.990005,62bbe60bf3d75ef465d3e404,0,43,43,48,1,onetwo,,,,,,,,,,,,,,,,,,,,,,,,,,,,,,,,,,,,,,,,,,,,,,,,,,,,,,,,,,,,,,,,,,,,,,,,,,,,,,,,,,,,,,,,,,,,,,,,,,,,,,,,,,,,,,,,,,,,,,,,,,,,,,,,,,,,,,,,,,,,,,,,,,,,,,,,
,,,,,,611e8692e058689f82cc9423,62bbfae3452d53574f6592e6,2022-06-29_09h17.59.589,Colour_Asymmetry_Pilot,2022.1.3,Win32,19.990005,62bbe60bf3d75ef465d3e404,0,44,44,114,1,twoone,,,,,,,,,,,,,,,,,,,,,,,,,,,,,,,,,,,,,,,,,,,,,,,,,,,,,,,,,,,,,,,,,,,,,,,,,,,,,,,,,,,,,,,,,,,,,,,,,,,,,,,,,,,,,,,,,,,,,,,,,,,,,,,,,,,,,,,,,,,,,,,,,,,,,,,,
,,,,,,611e8692e058689f82cc9423,62bbfae3452d53574f6592e6,2022-06-29_09h17.59.589,Colour_Asymmetry_Pilot,2022.1.3,Win32,19.990005,62bbe60bf3d75ef465d3e404,0,45,45,93,1,threefour,,,,,,,,,,,,,,,,,,,,,,,,,,,,,,,,,,,,,,,,,,,,,,,,,,,,,,,,,,,,,,,,,,,,,,,,,,,,,,,,,,,,,,,,,,,,,,,,,,,,,,,,,,,,,,,,,,,,,,,,,,,,,,,,,,,,,,,,,,,,,,,,,,,,,,,,
,,,,,,611e8692e058689f82cc9423,62bbfae3452d53574f6592e6,2022-06-29_09h17.59.589,Colour_Asymmetry_Pilot,2022.1.3,Win32,19.990005,62bbe60bf3d75ef465d3e404,0,46,46,158,1,fourtwo,,,,,,,,,,,,,,,,,,,,,,,,,,,,,,,,,,,,,,,,,,,,,,,,,,,,,,,,,,,,,,,,,,,,,,,,,,,,,,,,,,,,,,,,,,,,,,,,,,,,,,,,,,,,,,,,,,,,,,,,,,,,,,,,,,,,,,,,,,,,,,,,,,,,,,,,
,,,,,,611e8692e058689f82cc9423,62bbfae3452d53574f6592e6,2022-06-29_09h17.59.589,Colour_Asymmetry_Pilot,2022.1.3,Win32,19.990005,62bbe60bf3d75ef465d3e404,0,47,47,127,1,fourthree,,,,,,,,,,,,,,,,,,,,,,,,,,,,,,,,,,,,,,,,,,,,,,,,,,,,,,,,,,,,,,,,,,,,,,,,,,,,,,,,,,,,,,,,,,,,,,,,,,,,,,,,,,,,,,,,,,,,,,,,,,,,,,,,,,,,,,,,,,,,,,,,,,,,,,,,
,,,,,,611e8692e058689f82cc9423,62bbfae3452d53574f6592e6,2022-06-29_09h17.59.589,Colour_Asymmetry_Pilot,2022.1.3,Win32,19.990005,62bbe60bf3d75ef465d3e404,0,48,48,140,1,threeone,,,,,,,,,,,,,,,,,,,,,,,,,,,,,,,,,,,,,,,,,,,,,,,,,,,,,,,,,,,,,,,,,,,,,,,,,,,,,,,,,,,,,,,,,,,,,,,,,,,,,,,,,,,,,,,,,,,,,,,,,,,,,,,,,,,,,,,,,,,,,,,,,,,,,,,,
,,,,,,611e8692e058689f82cc9423,62bbfae3452d53574f6592e6,2022-06-29_09h17.59.589,Colour_Asymmetry_Pilot,2022.1.3,Win32,19.990005,62bbe60bf3d75ef465d3e404,0,49,49,4,1,threeone,,,,,,,,,,,,,,,,,,,,,,,,,,,,,,,,,,,,,,,,,,,,,,,,,,,,,,,,,,,,,,,,,,,,,,,,,,,,,,,,,,,,,,,,,,,,,,,,,,,,,,,,,,,,,,,,,,,,,,,,,,,,,,,,,,,,,,,,,,,,,,,,,,,,,,,,
,,,,,,611e8692e058689f82cc9423,62bbfae3452d53574f6592e6,2022-06-29_09h17.59.589,Colour_Asymmetry_Pilot,2022.1.3,Win32,19.990005,62bbe60bf3d75ef465d3e404,0,50,50,34,1,twoone,,,,,,,,,,,,,,,,,,,,,,,,,,,,,,,,,,,,,,,,,,,,,,,,,,,,,,,,,,,,,,,,,,,,,,,,,,,,,,,,,,,,,,,,,,,,,,,,,,,,,,,,,,,,,,,,,,,,,,,,,,,,,,,,,,,,,,,,,,,,,,,,,,,,,,,,
,,,,,,611e8692e058689f82cc9423,62bbfae3452d53574f6592e6,2022-06-29_09h17.59.589,Colour_Asymmetry_Pilot,2022.1.3,Win32,19.990005,62bbe60bf3d75ef465d3e404,0,51,51,147,1,twofour,,,,,,,,,,,,,,,,,,,,,,,,,,,,,,,,,,,,,,,,,,,,,,,,,,,,,,,,,,,,,,,,,,,,,,,,,,,,,,,,,,,,,,,,,,,,,,,,,,,,,,,,,,,,,,,,,,,,,,,,,,,,,,,,,,,,,,,,,,,,,,,,,,,,,,,,
,,,,,,611e8692e058689f82cc9423,62bbfae3452d53574f6592e6,2022-06-29_09h17.59.589,Colour_Asymmetry_Pilot,2022.1.3,Win32,19.990005,62bbe60bf3d75ef465d3e404,0,52,52,11,1,twofour,,,,,,,,,,,,,,,,,,,,,,,,,,,,,,,,,,,,,,,,,,,,,,,,,,,,,,,,,,,,,,,,,,,,,,,,,,,,,,,,,,,,,,,,,,,,,,,,,,,,,,,,,,,,,,,,,,,,,,,,,,,,,,,,,,,,,,,,,,,,,,,,,,,,,,,,
,,,,,,611e8692e058689f82cc9423,62bbfae3452d53574f6592e6,2022-06-29_09h17.59.589,Colour_Asymmetry_Pilot,2022.1.3,Win32,19.990005,62bbe60bf3d75ef465d3e404,0,53,53,95,1,fourthree,,,,,,,,,,,,,,,,,,,,,,,,,,,,,,,,,,,,,,,,,,,,,,,,,,,,,,,,,,,,,,,,,,,,,,,,,,,,,,,,,,,,,,,,,,,,,,,,,,,,,,,,,,,,,,,,,,,,,,,,,,,,,,,,,,,,,,,,,,,,,,,,,,,,,,,,
,,,,,,611e8692e058689f82cc9423,62bbfae3452d53574f6592e6,2022-06-29_09h17.59.589,Colour_Asymmetry_Pilot,2022.1.3,Win32,19.990005,62bbe60bf3d75ef465d3e404,0,54,54,18,1,twoone,,,,,,,,,,,,,,,,,,,,,,,,,,,,,,,,,,,,,,,,,,,,,,,,,,,,,,,,,,,,,,,,,,,,,,,,,,,,,,,,,,,,,,,,,,,,,,,,,,,,,,,,,,,,,,,,,,,,,,,,,,,,,,,,,,,,,,,,,,,,,,,,,,,,,,,,
,,,,,,611e8692e058689f82cc9423,62bbfae3452d53574f6592e6,2022-06-29_09h17.59.589,Colour_Asymmetry_Pilot,2022.1.3,Win32,19.990005,62bbe60bf3d75ef465d3e404,0,55,55,1,1,onethree,,,,,,,,,,,,,,,,,,,,,,,,,,,,,,,,,,,,,,,,,,,,,,,,,,,,,,,,,,,,,,,,,,,,,,,,,,,,,,,,,,,,,,,,,,,,,,,,,,,,,,,,,,,,,,,,,,,,,,,,,,,,,,,,,,,,,,,,,,,,,,,,,,,,,,,,
,,,,,,611e8692e058689f82cc9423,62bbfae3452d53574f6592e6,2022-06-29_09h17.59.589,Colour_Asymmetry_Pilot,2022.1.3,Win32,19.990005,62bbe60bf3d75ef465d3e404,0,56,56,84,1,threeone,,,,,,,,,,,,,,,,,,,,,,,,,,,,,,,,,,,,,,,,,,,,,,,,,,,,,,,,,,,,,,,,,,,,,,,,,,,,,,,,,,,,,,,,,,,,,,,,,,,,,,,,,,,,,,,,,,,,,,,,,,,,,,,,,,,,,,,,,,,,,,,,,,,,,,,,
,,,,,,611e8692e058689f82cc9423,62bbfae3452d53574f6592e6,2022-06-29_09h17.59.589,Colour_Asymmetry_Pilot,2022.1.3,Win32,19.990005,62bbe60bf3d75ef465d3e404,0,57,57,124,1,threeone,,,,,,,,,,,,,,,,,,,,,,,,,,,,,,,,,,,,,,,,,,,,,,,,,,,,,,,,,,,,,,,,,,,,,,,,,,,,,,,,,,,,,,,,,,,,,,,,,,,,,,,,,,,,,,,,,,,,,,,,,,,,,,,,,,,,,,,,,,,,,,,,,,,,,,,,
,,,,,,611e8692e058689f82cc9423,62bbfae3452d53574f6592e6,2022-06-29_09h17.59.589,Colour_Asymmetry_Pilot,2022.1.3,Win32,19.990005,62bbe60bf3d75ef465d3e404,0,58,58,61,1,threefour,,,,,,,,,,,,,,,,,,,,,,,,,,,,,,,,,,,,,,,,,,,,,,,,,,,,,,,,,,,,,,,,,,,,,,,,,,,,,,,,,,,,,,,,,,,,,,,,,,,,,,,,,,,,,,,,,,,,,,,,,,,,,,,,,,,,,,,,,,,,,,,,,,,,,,,,
,,,,,,611e8692e058689f82cc9423,62bbfae3452d53574f6592e6,2022-06-29_09h17.59.589,Colour_Asymmetry_Pilot,2022.1.3,Win32,19.990005,62bbe60bf3d75ef465d3e404,0,59,59,62,1,fourtwo,,,,,,,,,,,,,,,,,,,,,,,,,,,,,,,,,,,,,,,,,,,,,,,,,,,,,,,,,,,,,,,,,,,,,,,,,,,,,,,,,,,,,,,,,,,,,,,,,,,,,,,,,,,,,,,,,,,,,,,,,,,,,,,,,,,,,,,,,,,,,,,,,,,,,,,,
,,,,,,611e8692e058689f82cc9423,62bbfae3452d53574f6592e6,2022-06-29_09h17.59.589,Colour_Asymmetry_Pilot,2022.1.3,Win32,19.990005,62bbe60bf3d75ef465d3e404,0,60,60,58,1,twoone,,,,,,,,,,,,,,,,,,,,,,,,,,,,,,,,,,,,,,,,,,,,,,,,,,,,,,,,,,,,,,,,,,,,,,,,,,,,,,,,,,,,,,,,,,,,,,,,,,,,,,,,,,,,,,,,,,,,,,,,,,,,,,,,,,,,,,,,,,,,,,,,,,,,,,,,
,,,,,,611e8692e058689f82cc9423,62bbfae3452d53574f6592e6,2022-06-29_09h17.59.589,Colour_Asymmetry_Pilot,2022.1.3,Win32,19.990005,62bbe60bf3d75ef465d3e404,0,61,61,15,1,fourthree,,,,,,,,,,,,,,,,,,,,,,,,,,,,,,,,,,,,,,,,,,,,,,,,,,,,,,,,,,,,,,,,,,,,,,,,,,,,,,,,,,,,,,,,,,,,,,,,,,,,,,,,,,,,,,,,,,,,,,,,,,,,,,,,,,,,,,,,,,,,,,,,,,,,,,,,
,,,,,,611e8692e058689f82cc9423,62bbfae3452d53574f6592e6,2022-06-29_09h17.59.589,Colour_Asymmetry_Pilot,2022.1.3,Win32,19.990005,62bbe60bf3d75ef465d3e404,0,62,62,149,1,threefour,,,,,,,,,,,,,,,,,,,,,,,,,,,,,,,,,,,,,,,,,,,,,,,,,,,,,,,,,,,,,,,,,,,,,,,,,,,,,,,,,,,,,,,,,,,,,,,,,,,,,,,,,,,,,,,,,,,,,,,,,,,,,,,,,,,,,,,,,,,,,,,,,,,,,,,,
,,,,,,611e8692e058689f82cc9423,62bbfae3452d53574f6592e6,2022-06-29_09h17.59.589,Colour_Asymmetry_Pilot,2022.1.3,Win32,19.990005,62bbe60bf3d75ef465d3e404,0,63,63,143,1,fourthree,,,,,,,,,,,,,,,,,,,,,,,,,,,,,,,,,,,,,,,,,,,,,,,,,,,,,,,,,,,,,,,,,,,,,,,,,,,,,,,,,,,,,,,,,,,,,,,,,,,,,,,,,,,,,,,,,,,,,,,,,,,,,,,,,,,,,,,,,,,,,,,,,,,,,,,,
,,,,,,611e8692e058689f82cc9423,62bbfae3452d53574f6592e6,2022-06-29_09h17.59.589,Colour_Asymmetry_Pilot,2022.1.3,Win32,19.990005,62bbe60bf3d75ef465d3e404,0,64,64,71,1,fourthree,,,,,,,,,,,,,,,,,,,,,,,,,,,,,,,,,,,,,,,,,,,,,,,,,,,,,,,,,,,,,,,,,,,,,,,,,,,,,,,,,,,,,,,,,,,,,,,,,,,,,,,,,,,,,,,,,,,,,,,,,,,,,,,,,,,,,,,,,,,,,,,,,,,,,,,,
,,,,,,611e8692e058689f82cc9423,62bbfae3452d53574f6592e6,2022-06-29_09h17.59.589,Colour_Asymmetry_Pilot,2022.1.3,Win32,19.990005,62bbe60bf3d75ef465d3e404,0,65,65,45,1,threefour,,,,,,,,,,,,,,,,,,,,,,,,,,,,,,,,,,,,,,,,,,,,,,,,,,,,,,,,,,,,,,,,,,,,,,,,,,,,,,,,,,,,,,,,,,,,,,,,,,,,,,,,,,,,,,,,,,,,,,,,,,,,,,,,,,,,,,,,,,,,,,,,,,,,,,,,
,,,,,,611e8692e058689f82cc9423,62bbfae3452d53574f6592e6,2022-06-29_09h17.59.589,Colour_Asymmetry_Pilot,2022.1.3,Win32,19.990005,62bbe60bf3d75ef465d3e404,0,66,66,154,1,twoone,,,,,,,,,,,,,,,,,,,,,,,,,,,,,,,,,,,,,,,,,,,,,,,,,,,,,,,,,,,,,,,,,,,,,,,,,,,,,,,,,,,,,,,,,,,,,,,,,,,,,,,,,,,,,,,,,,,,,,,,,,,,,,,,,,,,,,,,,,,,,,,,,,,,,,,,
,,,,,,611e8692e058689f82cc9423,62bbfae3452d53574f6592e6,2022-06-29_09h17.59.589,Colour_Asymmetry_Pilot,2022.1.3,Win32,19.990005,62bbe60bf3d75ef465d3e404,0,67,67,13,1,threefour,,,,,,,,,,,,,,,,,,,,,,,,,,,,,,,,,,,,,,,,,,,,,,,,,,,,,,,,,,,,,,,,,,,,,,,,,,,,,,,,,,,,,,,,,,,,,,,,,,,,,,,,,,,,,,,,,,,,,,,,,,,,,,,,,,,,,,,,,,,,,,,,,,,,,,,,
,,,,,,611e8692e058689f82cc9423,62bbfae3452d53574f6592e6,2022-06-29_09h17.59.589,Colour_Asymmetry_Pilot,2022.1.3,Win32,19.990005,62bbe60bf3d75ef465d3e404,0,68,68,148,1,threeone,,,,,,,,,,,,,,,,,,,,,,,,,,,,,,,,,,,,,,,,,,,,,,,,,,,,,,,,,,,,,,,,,,,,,,,,,,,,,,,,,,,,,,,,,,,,,,,,,,,,,,,,,,,,,,,,,,,,,,,,,,,,,,,,,,,,,,,,,,,,,,,,,,,,,,,,
,,,,,,611e8692e058689f82cc9423,62bbfae3452d53574f6592e6,2022-06-29_09h17.59.589,Colour_Asymmetry_Pilot,2022.1.3,Win32,19.990005,62bbe60bf3d75ef465d3e404,0,69,69,17,1,onethree,,,,,,,,,,,,,,,,,,,,,,,,,,,,,,,,,,,,,,,,,,,,,,,,,,,,,,,,,,,,,,,,,,,,,,,,,,,,,,,,,,,,,,,,,,,,,,,,,,,,,,,,,,,,,,,,,,,,,,,,,,,,,,,,,,,,,,,,,,,,,,,,,,,,,,,,
,,,,,,611e8692e058689f82cc9423,62bbfae3452d53574f6592e6,2022-06-29_09h17.59.589,Colour_Asymmetry_Pilot,2022.1.3,Win32,19.990005,62bbe60bf3d75ef465d3e404,0,70,70,141,1,threefour,,,,,,,,,,,,,,,,,,,,,,,,,,,,,,,,,,,,,,,,,,,,,,,,,,,,,,,,,,,,,,,,,,,,,,,,,,,,,,,,,,,,,,,,,,,,,,,,,,,,,,,,,,,,,,,,,,,,,,,,,,,,,,,,,,,,,,,,,,,,,,,,,,,,,,,,
,,,,,,611e8692e058689f82cc9423,62bbfae3452d53574f6592e6,2022-06-29_09h17.59.589,Colour_Asymmetry_Pilot,2022.1.3,Win32,19.990005,62bbe60bf3d75ef465d3e404,0,71,71,10,1,twoone,,,,,,,,,,,,,,,,,,,,,,,,,,,,,,,,,,,,,,,,,,,,,,,,,,,,,,,,,,,,,,,,,,,,,,,,,,,,,,,,,,,,,,,,,,,,,,,,,,,,,,,,,,,,,,,,,,,,,,,,,,,,,,,,,,,,,,,,,,,,,,,,,,,,,,,,
,,,,,,611e8692e058689f82cc9423,62bbfae3452d53574f6592e6,2022-06-29_09h17.59.589,Colour_Asymmetry_Pilot,2022.1.3,Win32,19.990005,62bbe60bf3d75ef465d3e404,0,72,72,120,1,onetwo,,,,,,,,,,,,,,,,,,,,,,,,,,,,,,,,,,,,,,,,,,,,,,,,,,,,,,,,,,,,,,,,,,,,,,,,,,,,,,,,,,,,,,,,,,,,,,,,,,,,,,,,,,,,,,,,,,,,,,,,,,,,,,,,,,,,,,,,,,,,,,,,,,,,,,,,
,,,,,,611e8692e058689f82cc9423,62bbfae3452d53574f6592e6,2022-06-29_09h17.59.589,Colour_Asymmetry_Pilot,2022.1.3,Win32,19.990005,62bbe60bf3d75ef465d3e404,0,73,73,49,1,onethree,,,,,,,,,,,,,,,,,,,,,,,,,,,,,,,,,,,,,,,,,,,,,,,,,,,,,,,,,,,,,,,,,,,,,,,,,,,,,,,,,,,,,,,,,,,,,,,,,,,,,,,,,,,,,,,,,,,,,,,,,,,,,,,,,,,,,,,,,,,,,,,,,,,,,,,,
,,,,,,611e8692e058689f82cc9423,62bbfae3452d53574f6592e6,2022-06-29_09h17.59.589,Colour_Asymmetry_Pilot,2022.1.3,Win32,19.990005,62bbe60bf3d75ef465d3e404,0,74,74,24,1,onetwo,,,,,,,,,,,,,,,,,,,,,,,,,,,,,,,,,,,,,,,,,,,,,,,,,,,,,,,,,,,,,,,,,,,,,,,,,,,,,,,,,,,,,,,,,,,,,,,,,,,,,,,,,,,,,,,,,,,,,,,,,,,,,,,,,,,,,,,,,,,,,,,,,,,,,,,,
,,,,,,611e8692e058689f82cc9423,62bbfae3452d53574f6592e6,2022-06-29_09h17.59.589,Colour_Asymmetry_Pilot,2022.1.3,Win32,19.990005,62bbe60bf3d75ef465d3e404,0,75,75,111,1,fourthree,,,,,,,,,,,,,,,,,,,,,,,,,,,,,,,,,,,,,,,,,,,,,,,,,,,,,,,,,,,,,,,,,,,,,,,,,,,,,,,,,,,,,,,,,,,,,,,,,,,,,,,,,,,,,,,,,,,,,,,,,,,,,,,,,,,,,,,,,,,,,,,,,,,,,,,,
,,,,,,611e8692e058689f82cc9423,62bbfae3452d53574f6592e6,2022-06-29_09h17.59.589,Colour_Asymmetry_Pilot,2022.1.3,Win32,19.990005,62bbe60bf3d75ef465d3e404,0,76,76,103,1,fourthree,,,,,,,,,,,,,,,,,,,,,,,,,,,,,,,,,,,,,,,,,,,,,,,,,,,,,,,,,,,,,,,,,,,,,,,,,,,,,,,,,,,,,,,,,,,,,,,,,,,,,,,,,,,,,,,,,,,,,,,,,,,,,,,,,,,,,,,,,,,,,,,,,,,,,,,,
,,,,,,611e8692e058689f82cc9423,62bbfae3452d53574f6592e6,2022-06-29_09h17.59.589,Colour_Asymmetry_Pilot,2022.1.3,Win32,19.990005,62bbe60bf3d75ef465d3e404,0,77,77,59,1,twofour,,,,,,,,,,,,,,,,,,,,,,,,,,,,,,,,,,,,,,,,,,,,,,,,,,,,,,,,,,,,,,,,,,,,,,,,,,,,,,,,,,,,,,,,,,,,,,,,,,,,,,,,,,,,,,,,,,,,,,,,,,,,,,,,,,,,,,,,,,,,,,,,,,,,,,,,
,,,,,,611e8692e058689f82cc9423,62bbfae3452d53574f6592e6,2022-06-29_09h17.59.589,Colour_Asymmetry_Pilot,2022.1.3,Win32,19.990005,62bbe60bf3d75ef465d3e404,0,78,78,155,1,twofour,,,,,,,,,,,,,,,,,,,,,,,,,,,,,,,,,,,,,,,,,,,,,,,,,,,,,,,,,,,,,,,,,,,,,,,,,,,,,,,,,,,,,,,,,,,,,,,,,,,,,,,,,,,,,,,,,,,,,,,,,,,,,,,,,,,,,,,,,,,,,,,,,,,,,,,,
,,,,,,611e8692e058689f82cc9423,62bbfae3452d53574f6592e6,2022-06-29_09h17.59.589,Colour_Asymmetry_Pilot,2022.1.3,Win32,19.990005,62bbe60bf3d75ef465d3e404,0,79,79,144,1,onetwo,,,,,,,,,,,,,,,,,,,,,,,,,,,,,,,,,,,,,,,,,,,,,,,,,,,,,,,,,,,,,,,,,,,,,,,,,,,,,,,,,,,,,,,,,,,,,,,,,,,,,,,,,,,,,,,,,,,,,,,,,,,,,,,,,,,,,,,,,,,,,,,,,,,,,,,,
,,,,,,611e8692e058689f82cc9423,62bbfae3452d53574f6592e6,2022-06-29_09h17.59.589,Colour_Asymmetry_Pilot,2022.1.3,Win32,19.990005,62bbe60bf3d75ef465d3e404,0,80,80,150,1,fourtwo,,,,,,,,,,,,,,,,,,,,,,,,,,,,,,,,,,,,,,,,,,,,,,,,,,,,,,,,,,,,,,,,,,,,,,,,,,,,,,,,,,,,,,,,,,,,,,,,,,,,,,,,,,,,,,,,,,,,,,,,,,,,,,,,,,,,,,,,,,,,,,,,,,,,,,,,
,,,,,,611e8692e058689f82cc9423,62bbfae3452d53574f6592e6,2022-06-29_09h17.59.589,Colour_Asymmetry_Pilot,2022.1.3,Win32,19.990005,62bbe60bf3d75ef465d3e404,0,81,81,104,1,onetwo,,,,,,,,,,,,,,,,,,,,,,,,,,,,,,,,,,,,,,,,,,,,,,,,,,,,,,,,,,,,,,,,,,,,,,,,,,,,,,,,,,,,,,,,,,,,,,,,,,,,,,,,,,,,,,,,,,,,,,,,,,,,,,,,,,,,,,,,,,,,,,,,,,,,,,,,
,,,,,,611e8692e058689f82cc9423,62bbfae3452d53574f6592e6,2022-06-29_09h17.59.589,Colour_Asymmetry_Pilot,2022.1.3,Win32,19.990005,62bbe60bf3d75ef465d3e404,0,82,82,12,1,threeone,,,,,,,,,,,,,,,,,,,,,,,,,,,,,,,,,,,,,,,,,,,,,,,,,,,,,,,,,,,,,,,,,,,,,,,,,,,,,,,,,,,,,,,,,,,,,,,,,,,,,,,,,,,,,,,,,,,,,,,,,,,,,,,,,,,,,,,,,,,,,,,,,,,,,,,,
,,,,,,611e8692e058689f82cc9423,62bbfae3452d53574f6592e6,2022-06-29_09h17.59.589,Colour_Asymmetry_Pilot,2022.1.3,Win32,19.990005,62bbe60bf3d75ef465d3e404,0,83,83,109,1,threefour,,,,,,,,,,,,,,,,,,,,,,,,,,,,,,,,,,,,,,,,,,,,,,,,,,,,,,,,,,,,,,,,,,,,,,,,,,,,,,,,,,,,,,,,,,,,,,,,,,,,,,,,,,,,,,,,,,,,,,,,,,,,,,,,,,,,,,,,,,,,,,,,,,,,,,,,
,,,,,,611e8692e058689f82cc9423,62bbfae3452d53574f6592e6,2022-06-29_09h17.59.589,Colour_Asymmetry_Pilot,2022.1.3,Win32,19.990005,62bbe60bf3d75ef465d3e404,0,84,84,22,1,fourtwo,,,,,,,,,,,,,,,,,,,,,,,,,,,,,,,,,,,,,,,,,,,,,,,,,,,,,,,,,,,,,,,,,,,,,,,,,,,,,,,,,,,,,,,,,,,,,,,,,,,,,,,,,,,,,,,,,,,,,,,,,,,,,,,,,,,,,,,,,,,,,,,,,,,,,,,,
,,,,,,611e8692e058689f82cc9423,62bbfae3452d53574f6592e6,2022-06-29_09h17.59.589,Colour_Asymmetry_Pilot,2022.1.3,Win32,19.990005,62bbe60bf3d75ef465d3e404,0,85,85,156,1,threeone,,,,,,,,,,,,,,,,,,,,,,,,,,,,,,,,,,,,,,,,,,,,,,,,,,,,,,,,,,,,,,,,,,,,,,,,,,,,,,,,,,,,,,,,,,,,,,,,,,,,,,,,,,,,,,,,,,,,,,,,,,,,,,,,,,,,,,,,,,,,,,,,,,,,,,,,
,,,,,,611e8692e058689f82cc9423,62bbfae3452d53574f6592e6,2022-06-29_09h17.59.589,Colour_Asymmetry_Pilot,2022.1.3,Win32,19.990005,62bbe60bf3d75ef465d3e404,0,86,86,153,1,onethree,,,,,,,,,,,,,,,,,,,,,,,,,,,,,,,,,,,,,,,,,,,,,,,,,,,,,,,,,,,,,,,,,,,,,,,,,,,,,,,,,,,,,,,,,,,,,,,,,,,,,,,,,,,,,,,,,,,,,,,,,,,,,,,,,,,,,,,,,,,,,,,,,,,,,,,,
,,,,,,611e8692e058689f82cc9423,62bbfae3452d53574f6592e6,2022-06-29_09h17.59.589,Colour_Asymmetry_Pilot,2022.1.3,Win32,19.990005,62bbe60bf3d75ef465d3e404,0,87,87,117,1,threefour,,,,,,,,,,,,,,,,,,,,,,,,,,,,,,,,,,,,,,,,,,,,,,,,,,,,,,,,,,,,,,,,,,,,,,,,,,,,,,,,,,,,,,,,,,,,,,,,,,,,,,,,,,,,,,,,,,,,,,,,,,,,,,,,,,,,,,,,,,,,,,,,,,,,,,,,
,,,,,,611e8692e058689f82cc9423,62bbfae3452d53574f6592e6,2022-06-29_09h17.59.589,Colour_Asymmetry_Pilot,2022.1.3,Win32,19.990005,62bbe60bf3d75ef465d3e404,0,88,88,3,1,twofour,,,,,,,,,,,,,,,,,,,,,,,,,,,,,,,,,,,,,,,,,,,,,,,,,,,,,,,,,,,,,,,,,,,,,,,,,,,,,,,,,,,,,,,,,,,,,,,,,,,,,,,,,,,,,,,,,,,,,,,,,,,,,,,,,,,,,,,,,,,,,,,,,,,,,,,,
,,,,,,611e8692e058689f82cc9423,62bbfae3452d53574f6592e6,2022-06-29_09h17.59.589,Colour_Asymmetry_Pilot,2022.1.3,Win32,19.990005,62bbe60bf3d75ef465d3e404,0,89,89,138,1,twoone,,,,,,,,,,,,,,,,,,,,,,,,,,,,,,,,,,,,,,,,,,,,,,,,,,,,,,,,,,,,,,,,,,,,,,,,,,,,,,,,,,,,,,,,,,,,,,,,,,,,,,,,,,,,,,,,,,,,,,,,,,,,,,,,,,,,,,,,,,,,,,,,,,,,,,,,
,,,,,,611e8692e058689f82cc9423,62bbfae3452d53574f6592e6,2022-06-29_09h17.59.589,Colour_Asymmetry_Pilot,2022.1.3,Win32,19.990005,62bbe60bf3d75ef465d3e404,0,90,90,137,1,onethree,,,,,,,,,,,,,,,,,,,,,,,,,,,,,,,,,,,,,,,,,,,,,,,,,,,,,,,,,,,,,,,,,,,,,,,,,,,,,,,,,,,,,,,,,,,,,,,,,,,,,,,,,,,,,,,,,,,,,,,,,,,,,,,,,,,,,,,,,,,,,,,,,,,,,,,,
,,,,,,611e8692e058689f82cc9423,62bbfae3452d53574f6592e6,2022-06-29_09h17.59.589,Colour_Asymmetry_Pilot,2022.1.3,Win32,19.990005,62bbe60bf3d75ef465d3e404,0,91,91,46,1,fourtwo,,,,,,,,,,,,,,,,,,,,,,,,,,,,,,,,,,,,,,,,,,,,,,,,,,,,,,,,,,,,,,,,,,,,,,,,,,,,,,,,,,,,,,,,,,,,,,,,,,,,,,,,,,,,,,,,,,,,,,,,,,,,,,,,,,,,,,,,,,,,,,,,,,,,,,,,
,,,,,,611e8692e058689f82cc9423,62bbfae3452d53574f6592e6,2022-06-29_09h17.59.589,Colour_Asymmetry_Pilot,2022.1.3,Win32,19.990005,62bbe60bf3d75ef465d3e404,0,92,92,9,1,onethree,,,,,,,,,,,,,,,,,,,,,,,,,,,,,,,,,,,,,,,,,,,,,,,,,,,,,,,,,,,,,,,,,,,,,,,,,,,,,,,,,,,,,,,,,,,,,,,,,,,,,,,,,,,,,,,,,,,,,,,,,,,,,,,,,,,,,,,,,,,,,,,,,,,,,,,,
,,,,,,611e8692e058689f82cc9423,62bbfae3452d53574f6592e6,2022-06-29_09h17.59.589,Colour_Asymmetry_Pilot,2022.1.3,Win32,19.990005,62bbe60bf3d75ef465d3e404,0,93,93,161,1,onethree,,,,,,,,,,,,,,,,,,,,,,,,,,,,,,,,,,,,,,,,,,,,,,,,,,,,,,,,,,,,,,,,,,,,,,,,,,,,,,,,,,,,,,,,,,,,,,,,,,,,,,,,,,,,,,,,,,,,,,,,,,,,,,,,,,,,,,,,,,,,,,,,,,,,,,,,
,,,,,,611e8692e058689f82cc9423,62bbfae3452d53574f6592e6,2022-06-29_09h17.59.589,Colour_Asymmetry_Pilot,2022.1.3,Win32,19.990005,62bbe60bf3d75ef465d3e404,0,94,94,129,1,onethree,,,,,,,,,,,,,,,,,,,,,,,,,,,,,,,,,,,,,,,,,,,,,,,,,,,,,,,,,,,,,,,,,,,,,,,,,,,,,,,,,,,,,,,,,,,,,,,,,,,,,,,,,,,,,,,,,,,,,,,,,,,,,,,,,,,,,,,,,,,,,,,,,,,,,,,,
,,,,,,611e8692e058689f82cc9423,62bbfae3452d53574f6592e6,2022-06-29_09h17.59.589,Colour_Asymmetry_Pilot,2022.1.3,Win32,19.990005,62bbe60bf3d75ef465d3e404,0,95,95,30,1,fourtwo,,,,,,,,,,,,,,,,,,,,,,,,,,,,,,,,,,,,,,,,,,,,,,,,,,,,,,,,,,,,,,,,,,,,,,,,,,,,,,,,,,,,,,,,,,,,,,,,,,,,,,,,,,,,,,,,,,,,,,,,,,,,,,,,,,,,,,,,,,,,,,,,,,,,,,,,
,,,,,,611e8692e058689f82cc9423,62bbfae3452d53574f6592e6,2022-06-29_09h17.59.589,Colour_Asymmetry_Pilot,2022.1.3,Win32,19.990005,62bbe60bf3d75ef465d3e404,0,96,96,126,1,fourtwo,,,,,,,,,,,,,,,,,,,,,,,,,,,,,,,,,,,,,,,,,,,,,,,,,,,,,,,,,,,,,,,,,,,,,,,,,,,,,,,,,,,,,,,,,,,,,,,,,,,,,,,,,,,,,,,,,,,,,,,,,,,,,,,,,,,,,,,,,,,,,,,,,,,,,,,,
,,,,,,611e8692e058689f82cc9423,62bbfae3452d53574f6592e6,2022-06-29_09h17.59.589,Colour_Asymmetry_Pilot,2022.1.3,Win32,19.990005,62bbe60bf3d75ef465d3e404,0,97,97,139,1,twofour,,,,,,,,,,,,,,,,,,,,,,,,,,,,,,,,,,,,,,,,,,,,,,,,,,,,,,,,,,,,,,,,,,,,,,,,,,,,,,,,,,,,,,,,,,,,,,,,,,,,,,,,,,,,,,,,,,,,,,,,,,,,,,,,,,,,,,,,,,,,,,,,,,,,,,,,
,,,,,,611e8692e058689f82cc9423,62bbfae3452d53574f6592e6,2022-06-29_09h17.59.589,Colour_Asymmetry_Pilot,2022.1.3,Win32,19.990005,62bbe60bf3d75ef465d3e404,0,98,98,131,1,twofour,,,,,,,,,,,,,,,,,,,,,,,,,,,,,,,,,,,,,,,,,,,,,,,,,,,,,,,,,,,,,,,,,,,,,,,,,,,,,,,,,,,,,,,,,,,,,,,,,,,,,,,,,,,,,,,,,,,,,,,,,,,,,,,,,,,,,,,,,,,,,,,,,,,,,,,,
,,,,,,611e8692e058689f82cc9423,62bbfae3452d53574f6592e6,2022-06-29_09h17.59.589,Colour_Asymmetry_Pilot,2022.1.3,Win32,19.990005,62bbe60bf3d75ef465d3e404,0,99,99,26,1,twoone,,,,,,,,,,,,,,,,,,,,,,,,,,,,,,,,,,,,,,,,,,,,,,,,,,,,,,,,,,,,,,,,,,,,,,,,,,,,,,,,,,,,,,,,,,,,,,,,,,,,,,,,,,,,,,,,,,,,,,,,,,,,,,,,,,,,,,,,,,,,,,,,,,,,,,,,
,,,,,,611e8692e058689f82cc9423,62bbfae3452d53574f6592e6,2022-06-29_09h17.59.589,Colour_Asymmetry_Pilot,2022.1.3,Win32,19.990005,62bbe60bf3d75ef465d3e404,0,100,100,42,1,twoone,,,,,,,,,,,,,,,,,,,,,,,,,,,,,,,,,,,,,,,,,,,,,,,,,,,,,,,,,,,,,,,,,,,,,,,,,,,,,,,,,,,,,,,,,,,,,,,,,,,,,,,,,,,,,,,,,,,,,,,,,,,,,,,,,,,,,,,,,,,,,,,,,,,,,,,,
,,,,,,611e8692e058689f82cc9423,62bbfae3452d53574f6592e6,2022-06-29_09h17.59.589,Colour_Asymmetry_Pilot,2022.1.3,Win32,19.990005,62bbe60bf3d75ef465d3e404,0,101,101,20,1,threeone,,,,,,,,,,,,,,,,,,,,,,,,,,,,,,,,,,,,,,,,,,,,,,,,,,,,,,,,,,,,,,,,,,,,,,,,,,,,,,,,,,,,,,,,,,,,,,,,,,,,,,,,,,,,,,,,,,,,,,,,,,,,,,,,,,,,,,,,,,,,,,,,,,,,,,,,
,,,,,,611e8692e058689f82cc9423,62bbfae3452d53574f6592e6,2022-06-29_09h17.59.589,Colour_Asymmetry_Pilot,2022.1.3,Win32,19.990005,62bbe60bf3d75ef465d3e404,0,102,102,76,1,threeone,,,,,,,,,,,,,,,,,,,,,,,,,,,,,,,,,,,,,,,,,,,,,,,,,,,,,,,,,,,,,,,,,,,,,,,,,,,,,,,,,,,,,,,,,,,,,,,,,,,,,,,,,,,,,,,,,,,,,,,,,,,,,,,,,,,,,,,,,,,,,,,,,,,,,,,,
,,,,,,611e8692e058689f82cc9423,62bbfae3452d53574f6592e6,2022-06-29_09h17.59.589,Colour_Asymmetry_Pilot,2022.1.3,Win32,19.990005,62bbe60bf3d75ef465d3e404,0,103,103,87,1,fourthree,,,,,,,,,,,,,,,,,,,,,,,,,,,,,,,,,,,,,,,,,,,,,,,,,,,,,,,,,,,,,,,,,,,,,,,,,,,,,,,,,,,,,,,,,,,,,,,,,,,,,,,,,,,,,,,,,,,,,,,,,,,,,,,,,,,,,,,,,,,,,,,,,,,,,,,,
,,,,,,611e8692e058689f82cc9423,62bbfae3452d53574f6592e6,2022-06-29_09h17.59.589,Colour_Asymmetry_Pilot,2022.1.3,Win32,19.990005,62bbe60bf3d75ef465d3e404,0,104,104,98,1,twoone,,,,,,,,,,,,,,,,,,,,,,,,,,,,,,,,,,,,,,,,,,,,,,,,,,,,,,,,,,,,,,,,,,,,,,,,,,,,,,,,,,,,,,,,,,,,,,,,,,,,,,,,,,,,,,,,,,,,,,,,,,,,,,,,,,,,,,,,,,,,,,,,,,,,,,,,
,,,,,,611e8692e058689f82cc9423,62bbfae3452d53574f6592e6,2022-06-29_09h17.59.589,Colour_Asymmetry_Pilot,2022.1.3,Win32,19.990005,62bbe60bf3d75ef465d3e404,0,105,105,113,1,onethree,,,,,,,,,,,,,,,,,,,,,,,,,,,,,,,,,,,,,,,,,,,,,,,,,,,,,,,,,,,,,,,,,,,,,,,,,,,,,,,,,,,,,,,,,,,,,,,,,,,,,,,,,,,,,,,,,,,,,,,,,,,,,,,,,,,,,,,,,,,,,,,,,,,,,,,,
,,,,,,611e8692e058689f82cc9423,62bbfae3452d53574f6592e6,2022-06-29_09h17.59.589,Colour_Asymmetry_Pilot,2022.1.3,Win32,19.990005,62bbe60bf3d75ef465d3e404,0,106,106,41,1,onethree,,,,,,,,,,,,,,,,,,,,,,,,,,,,,,,,,,,,,,,,,,,,,,,,,,,,,,,,,,,,,,,,,,,,,,,,,,,,,,,,,,,,,,,,,,,,,,,,,,,,,,,,,,,,,,,,,,,,,,,,,,,,,,,,,,,,,,,,,,,,,,,,,,,,,,,,
,,,,,,611e8692e058689f82cc9423,62bbfae3452d53574f6592e6,2022-06-29_09h17.59.589,Colour_Asymmetry_Pilot,2022.1.3,Win32,19.990005,62bbe60bf3d75ef465d3e404,0,107,107,8,1,onetwo,,,,,,,,,,,,,,,,,,,,,,,,,,,,,,,,,,,,,,,,,,,,,,,,,,,,,,,,,,,,,,,,,,,,,,,,,,,,,,,,,,,,,,,,,,,,,,,,,,,,,,,,,,,,,,,,,,,,,,,,,,,,,,,,,,,,,,,,,,,,,,,,,,,,,,,,
,,,,,,611e8692e058689f82cc9423,62bbfae3452d53574f6592e6,2022-06-29_09h17.59.589,Colour_Asymmetry_Pilot,2022.1.3,Win32,19.990005,62bbe60bf3d75ef465d3e404,0,108,108,119,1,fourthree,,,,,,,,,,,,,,,,,,,,,,,,,,,,,,,,,,,,,,,,,,,,,,,,,,,,,,,,,,,,,,,,,,,,,,,,,,,,,,,,,,,,,,,,,,,,,,,,,,,,,,,,,,,,,,,,,,,,,,,,,,,,,,,,,,,,,,,,,,,,,,,,,,,,,,,,
,,,,,,611e8692e058689f82cc9423,62bbfae3452d53574f6592e6,2022-06-29_09h17.59.589,Colour_Asymmetry_Pilot,2022.1.3,Win32,19.990005,62bbe60bf3d75ef465d3e404,0,109,109,125,1,threefour,,,,,,,,,,,,,,,,,,,,,,,,,,,,,,,,,,,,,,,,,,,,,,,,,,,,,,,,,,,,,,,,,,,,,,,,,,,,,,,,,,,,,,,,,,,,,,,,,,,,,,,,,,,,,,,,,,,,,,,,,,,,,,,,,,,,,,,,,,,,,,,,,,,,,,,,
,,,,,,611e8692e058689f82cc9423,62bbfae3452d53574f6592e6,2022-06-29_09h17.59.589,Colour_Asymmetry_Pilot,2022.1.3,Win32,19.990005,62bbe60bf3d75ef465d3e404,0,110,110,77,1,threefour,,,,,,,,,,,,,,,,,,,,,,,,,,,,,,,,,,,,,,,,,,,,,,,,,,,,,,,,,,,,,,,,,,,,,,,,,,,,,,,,,,,,,,,,,,,,,,,,,,,,,,,,,,,,,,,,,,,,,,,,,,,,,,,,,,,,,,,,,,,,,,,,,,,,,,,,
,,,,,,611e8692e058689f82cc9423,62bbfae3452d53574f6592e6,2022-06-29_09h17.59.589,Colour_Asymmetry_Pilot,2022.1.3,Win32,19.990005,62bbe60bf3d75ef465d3e404,0,111,111,0,1,onetwo,,,,,,,,,,,,,,,,,,,,,,,,,,,,,,,,,,,,,,,,,,,,,,,,,,,,,,,,,,,,,,,,,,,,,,,,,,,,,,,,,,,,,,,,,,,,,,,,,,,,,,,,,,,,,,,,,,,,,,,,,,,,,,,,,,,,,,,,,,,,,,,,,,,,,,,,
,,,,,,611e8692e058689f82cc9423,62bbfae3452d53574f6592e6,2022-06-29_09h17.59.589,Colour_Asymmetry_Pilot,2022.1.3,Win32,19.990005,62bbe60bf3d75ef465d3e404,0,112,112,6,1,fourtwo,,,,,,,,,,,,,,,,,,,,,,,,,,,,,,,,,,,,,,,,,,,,,,,,,,,,,,,,,,,,,,,,,,,,,,,,,,,,,,,,,,,,,,,,,,,,,,,,,,,,,,,,,,,,,,,,,,,,,,,,,,,,,,,,,,,,,,,,,,,,,,,,,,,,,,,,
,,,,,,611e8692e058689f82cc9423,62bbfae3452d53574f6592e6,2022-06-29_09h17.59.589,Colour_Asymmetry_Pilot,2022.1.3,Win32,19.990005,62bbe60bf3d75ef465d3e404,0,113,113,53,1,threefour,,,,,,,,,,,,,,,,,,,,,,,,,,,,,,,,,,,,,,,,,,,,,,,,,,,,,,,,,,,,,,,,,,,,,,,,,,,,,,,,,,,,,,,,,,,,,,,,,,,,,,,,,,,,,,,,,,,,,,,,,,,,,,,,,,,,,,,,,,,,,,,,,,,,,,,,
,,,,,,611e8692e058689f82cc9423,62bbfae3452d53574f6592e6,2022-06-29_09h17.59.589,Colour_Asymmetry_Pilot,2022.1.3,Win32,19.990005,62bbe60bf3d75ef465d3e404,0,114,114,112,1,onetwo,,,,,,,,,,,,,,,,,,,,,,,,,,,,,,,,,,,,,,,,,,,,,,,,,,,,,,,,,,,,,,,,,,,,,,,,,,,,,,,,,,,,,,,,,,,,,,,,,,,,,,,,,,,,,,,,,,,,,,,,,,,,,,,,,,,,,,,,,,,,,,,,,,,,,,,,
,,,,,,611e8692e058689f82cc9423,62bbfae3452d53574f6592e6,2022-06-29_09h17.59.589,Colour_Asymmetry_Pilot,2022.1.3,Win32,19.990005,62bbe60bf3d75ef465d3e404,0,115,115,67,1,twofour,,,,,,,,,,,,,,,,,,,,,,,,,,,,,,,,,,,,,,,,,,,,,,,,,,,,,,,,,,,,,,,,,,,,,,,,,,,,,,,,,,,,,,,,,,,,,,,,,,,,,,,,,,,,,,,,,,,,,,,,,,,,,,,,,,,,,,,,,,,,,,,,,,,,,,,,
,,,,,,611e8692e058689f82cc9423,62bbfae3452d53574f6592e6,2022-06-29_09h17.59.589,Colour_Asymmetry_Pilot,2022.1.3,Win32,19.990005,62bbe60bf3d75ef465d3e404,0,116,116,78,1,fourtwo,,,,,,,,,,,,,,,,,,,,,,,,,,,,,,,,,,,,,,,,,,,,,,,,,,,,,,,,,,,,,,,,,,,,,,,,,,,,,,,,,,,,,,,,,,,,,,,,,,,,,,,,,,,,,,,,,,,,,,,,,,,,,,,,,,,,,,,,,,,,,,,,,,,,,,,,
,,,,,,611e8692e058689f82cc9423,62bbfae3452d53574f6592e6,2022-06-29_09h17.59.589,Colour_Asymmetry_Pilot,2022.1.3,Win32,19.990005,62bbe60bf3d75ef465d3e404,0,117,117,130,1,twoone,,,,,,,,,,,,,,,,,,,,,,,,,,,,,,,,,,,,,,,,,,,,,,,,,,,,,,,,,,,,,,,,,,,,,,,,,,,,,,,,,,,,,,,,,,,,,,,,,,,,,,,,,,,,,,,,,,,,,,,,,,,,,,,,,,,,,,,,,,,,,,,,,,,,,,,,
,,,,,,611e8692e058689f82cc9423,62bbfae3452d53574f6592e6,2022-06-29_09h17.59.589,Colour_Asymmetry_Pilot,2022.1.3,Win32,19.990005,62bbe60bf3d75ef465d3e404,0,118,118,74,1,twoone,,,,,,,,,,,,,,,,,,,,,,,,,,,,,,,,,,,,,,,,,,,,,,,,,,,,,,,,,,,,,,,,,,,,,,,,,,,,,,,,,,,,,,,,,,,,,,,,,,,,,,,,,,,,,,,,,,,,,,,,,,,,,,,,,,,,,,,,,,,,,,,,,,,,,,,,
,,,,,,611e8692e058689f82cc9423,62bbfae3452d53574f6592e6,2022-06-29_09h17.59.589,Colour_Asymmetry_Pilot,2022.1.3,Win32,19.990005,62bbe60bf3d75ef465d3e404,0,119,119,88,1,onetwo,,,,,,,,,,,,,,,,,,,,,,,,,,,,,,,,,,,,,,,,,,,,,,,,,,,,,,,,,,,,,,,,,,,,,,,,,,,,,,,,,,,,,,,,,,,,,,,,,,,,,,,,,,,,,,,,,,,,,,,,,,,,,,,,,,,,,,,,,,,,,,,,,,,,,,,,
,,,,,,611e8692e058689f82cc9423,62bbfae3452d53574f6592e6,2022-06-29_09h17.59.589,Colour_Asymmetry_Pilot,2022.1.3,Win32,19.990005,62bbe60bf3d75ef465d3e404,0,120,120,39,1,fourthree,,,,,,,,,,,,,,,,,,,,,,,,,,,,,,,,,,,,,,,,,,,,,,,,,,,,,,,,,,,,,,,,,,,,,,,,,,,,,,,,,,,,,,,,,,,,,,,,,,,,,,,,,,,,,,,,,,,,,,,,,,,,,,,,,,,,,,,,,,,,,,,,,,,,,,,,
,,,,,,611e8692e058689f82cc9423,62bbfae3452d53574f6592e6,2022-06-29_09h17.59.589,Colour_Asymmetry_Pilot,2022.1.3,Win32,19.990005,62bbe60bf3d75ef465d3e404,0,121,121,2,1,twoone,,,,,,,,,,,,,,,,,,,,,,,,,,,,,,,,,,,,,,,,,,,,,,,,,,,,,,,,,,,,,,,,,,,,,,,,,,,,,,,,,,,,,,,,,,,,,,,,,,,,,,,,,,,,,,,,,,,,,,,,,,,,,,,,,,,,,,,,,,,,,,,,,,,,,,,,
,,,,,,611e8692e058689f82cc9423,62bbfae3452d53574f6592e6,2022-06-29_09h17.59.589,Colour_Asymmetry_Pilot,2022.1.3,Win32,19.990005,62bbe60bf3d75ef465d3e404,0,122,122,89,1,onethree,,,,,,,,,,,,,,,,,,,,,,,,,,,,,,,,,,,,,,,,,,,,,,,,,,,,,,,,,,,,,,,,,,,,,,,,,,,,,,,,,,,,,,,,,,,,,,,,,,,,,,,,,,,,,,,,,,,,,,,,,,,,,,,,,,,,,,,,,,,,,,,,,,,,,,,,
,,,,,,611e8692e058689f82cc9423,62bbfae3452d53574f6592e6,2022-06-29_09h17.59.589,Colour_Asymmetry_Pilot,2022.1.3,Win32,19.990005,62bbe60bf3d75ef465d3e404,0,123,123,40,1,onetwo,,,,,,,,,,,,,,,,,,,,,,,,,,,,,,,,,,,,,,,,,,,,,,,,,,,,,,,,,,,,,,,,,,,,,,,,,,,,,,,,,,,,,,,,,,,,,,,,,,,,,,,,,,,,,,,,,,,,,,,,,,,,,,,,,,,,,,,,,,,,,,,,,,,,,,,,
,,,,,,611e8692e058689f82cc9423,62bbfae3452d53574f6592e6,2022-06-29_09h17.59.589,Colour_Asymmetry_Pilot,2022.1.3,Win32,19.990005,62bbe60bf3d75ef465d3e404,0,124,124,36,1,threeone,,,,,,,,,,,,,,,,,,,,,,,,,,,,,,,,,,,,,,,,,,,,,,,,,,,,,,,,,,,,,,,,,,,,,,,,,,,,,,,,,,,,,,,,,,,,,,,,,,,,,,,,,,,,,,,,,,,,,,,,,,,,,,,,,,,,,,,,,,,,,,,,,,,,,,,,
,,,,,,611e8692e058689f82cc9423,62bbfae3452d53574f6592e6,2022-06-29_09h17.59.589,Colour_Asymmetry_Pilot,2022.1.3,Win32,19.990005,62bbe60bf3d75ef465d3e404,0,125,125,73,1,onethree,,,,,,,,,,,,,,,,,,,,,,,,,,,,,,,,,,,,,,,,,,,,,,,,,,,,,,,,,,,,,,,,,,,,,,,,,,,,,,,,,,,,,,,,,,,,,,,,,,,,,,,,,,,,,,,,,,,,,,,,,,,,,,,,,,,,,,,,,,,,,,,,,,,,,,,,
,,,,,,611e8692e058689f82cc9423,62bbfae3452d53574f6592e6,2022-06-29_09h17.59.589,Colour_Asymmetry_Pilot,2022.1.3,Win32,19.990005,62bbe60bf3d75ef465d3e404,0,126,126,142,1,fourtwo,,,,,,,,,,,,,,,,,,,,,,,,,,,,,,,,,,,,,,,,,,,,,,,,,,,,,,,,,,,,,,,,,,,,,,,,,,,,,,,,,,,,,,,,,,,,,,,,,,,,,,,,,,,,,,,,,,,,,,,,,,,,,,,,,,,,,,,,,,,,,,,,,,,,,,,,
,,,,,,611e8692e058689f82cc9423,62bbfae3452d53574f6592e6,2022-06-29_09h17.59.589,Colour_Asymmetry_Pilot,2022.1.3,Win32,19.990005,62bbe60bf3d75ef465d3e404,0,127,127,94,1,fourtwo,,,,,,,,,,,,,,,,,,,,,,,,,,,,,,,,,,,,,,,,,,,,,,,,,,,,,,,,,,,,,,,,,,,,,,,,,,,,,,,,,,,,,,,,,,,,,,,,,,,,,,,,,,,,,,,,,,,,,,,,,,,,,,,,,,,,,,,,,,,,,,,,,,,,,,,,
,,,,,,611e8692e058689f82cc9423,62bbfae3452d53574f6592e6,2022-06-29_09h17.59.589,Colour_Asymmetry_Pilot,2022.1.3,Win32,19.990005,62bbe60bf3d75ef465d3e404,0,128,128,52,1,threeone,,,,,,,,,,,,,,,,,,,,,,,,,,,,,,,,,,,,,,,,,,,,,,,,,,,,,,,,,,,,,,,,,,,,,,,,,,,,,,,,,,,,,,,,,,,,,,,,,,,,,,,,,,,,,,,,,,,,,,,,,,,,,,,,,,,,,,,,,,,,,,,,,,,,,,,,
,,,,,,611e8692e058689f82cc9423,62bbfae3452d53574f6592e6,2022-06-29_09h17.59.589,Colour_Asymmetry_Pilot,2022.1.3,Win32,19.990005,62bbe60bf3d75ef465d3e404,0,129,129,16,1,onetwo,,,,,,,,,,,,,,,,,,,,,,,,,,,,,,,,,,,,,,,,,,,,,,,,,,,,,,,,,,,,,,,,,,,,,,,,,,,,,,,,,,,,,,,,,,,,,,,,,,,,,,,,,,,,,,,,,,,,,,,,,,,,,,,,,,,,,,,,,,,,,,,,,,,,,,,,
,,,,,,611e8692e058689f82cc9423,62bbfae3452d53574f6592e6,2022-06-29_09h17.59.589,Colour_Asymmetry_Pilot,2022.1.3,Win32,19.990005,62bbe60bf3d75ef465d3e404,0,130,130,80,1,onetwo,,,,,,,,,,,,,,,,,,,,,,,,,,,,,,,,,,,,,,,,,,,,,,,,,,,,,,,,,,,,,,,,,,,,,,,,,,,,,,,,,,,,,,,,,,,,,,,,,,,,,,,,,,,,,,,,,,,,,,,,,,,,,,,,,,,,,,,,,,,,,,,,,,,,,,,,
,,,,,,611e8692e058689f82cc9423,62bbfae3452d53574f6592e6,2022-06-29_09h17.59.589,Colour_Asymmetry_Pilot,2022.1.3,Win32,19.990005,62bbe60bf3d75ef465d3e404,0,131,131,128,1,onetwo,,,,,,,,,,,,,,,,,,,,,,,,,,,,,,,,,,,,,,,,,,,,,,,,,,,,,,,,,,,,,,,,,,,,,,,,,,,,,,,,,,,,,,,,,,,,,,,,,,,,,,,,,,,,,,,,,,,,,,,,,,,,,,,,,,,,,,,,,,,,,,,,,,,,,,,,
,,,,,,611e8692e058689f82cc9423,62bbfae3452d53574f6592e6,2022-06-29_09h17.59.589,Colour_Asymmetry_Pilot,2022.1.3,Win32,19.990005,62bbe60bf3d75ef465d3e404,0,132,132,108,1,threeone,,,,,,,,,,,,,,,,,,,,,,,,,,,,,,,,,,,,,,,,,,,,,,,,,,,,,,,,,,,,,,,,,,,,,,,,,,,,,,,,,,,,,,,,,,,,,,,,,,,,,,,,,,,,,,,,,,,,,,,,,,,,,,,,,,,,,,,,,,,,,,,,,,,,,,,,
,,,,,,611e8692e058689f82cc9423,62bbfae3452d53574f6592e6,2022-06-29_09h17.59.589,Colour_Asymmetry_Pilot,2022.1.3,Win32,19.990005,62bbe60bf3d75ef465d3e404,0,133,133,57,1,onethree,,,,,,,,,,,,,,,,,,,,,,,,,,,,,,,,,,,,,,,,,,,,,,,,,,,,,,,,,,,,,,,,,,,,,,,,,,,,,,,,,,,,,,,,,,,,,,,,,,,,,,,,,,,,,,,,,,,,,,,,,,,,,,,,,,,,,,,,,,,,,,,,,,,,,,,,
,,,,,,611e8692e058689f82cc9423,62bbfae3452d53574f6592e6,2022-06-29_09h17.59.589,Colour_Asymmetry_Pilot,2022.1.3,Win32,19.990005,62bbe60bf3d75ef465d3e404,0,134,134,47,1,fourthree,,,,,,,,,,,,,,,,,,,,,,,,,,,,,,,,,,,,,,,,,,,,,,,,,,,,,,,,,,,,,,,,,,,,,,,,,,,,,,,,,,,,,,,,,,,,,,,,,,,,,,,,,,,,,,,,,,,,,,,,,,,,,,,,,,,,,,,,,,,,,,,,,,,,,,,,
,,,,,,611e8692e058689f82cc9423,62bbfae3452d53574f6592e6,2022-06-29_09h17.59.589,Colour_Asymmetry_Pilot,2022.1.3,Win32,19.990005,62bbe60bf3d75ef465d3e404,0,135,135,43,1,twofour,,,,,,,,,,,,,,,,,,,,,,,,,,,,,,,,,,,,,,,,,,,,,,,,,,,,,,,,,,,,,,,,,,,,,,,,,,,,,,,,,,,,,,,,,,,,,,,,,,,,,,,,,,,,,,,,,,,,,,,,,,,,,,,,,,,,,,,,,,,,,,,,,,,,,,,,
,,,,,,611e8692e058689f82cc9423,62bbfae3452d53574f6592e6,2022-06-29_09h17.59.589,Colour_Asymmetry_Pilot,2022.1.3,Win32,19.990005,62bbe60bf3d75ef465d3e404,0,136,136,105,1,onethree,,,,,,,,,,,,,,,,,,,,,,,,,,,,,,,,,,,,,,,,,,,,,,,,,,,,,,,,,,,,,,,,,,,,,,,,,,,,,,,,,,,,,,,,,,,,,,,,,,,,,,,,,,,,,,,,,,,,,,,,,,,,,,,,,,,,,,,,,,,,,,,,,,,,,,,,
,,,,,,611e8692e058689f82cc9423,62bbfae3452d53574f6592e6,2022-06-29_09h17.59.589,Colour_Asymmetry_Pilot,2022.1.3,Win32,19.990005,62bbe60bf3d75ef465d3e404,0,137,137,63,1,fourthree,,,,,,,,,,,,,,,,,,,,,,,,,,,,,,,,,,,,,,,,,,,,,,,,,,,,,,,,,,,,,,,,,,,,,,,,,,,,,,,,,,,,,,,,,,,,,,,,,,,,,,,,,,,,,,,,,,,,,,,,,,,,,,,,,,,,,,,,,,,,,,,,,,,,,,,,
,,,,,,611e8692e058689f82cc9423,62bbfae3452d53574f6592e6,2022-06-29_09h17.59.589,Colour_Asymmetry_Pilot,2022.1.3,Win32,19.990005,62bbe60bf3d75ef465d3e404,0,138,138,23,1,fourthree,,,,,,,,,,,,,,,,,,,,,,,,,,,,,,,,,,,,,,,,,,,,,,,,,,,,,,,,,,,,,,,,,,,,,,,,,,,,,,,,,,,,,,,,,,,,,,,,,,,,,,,,,,,,,,,,,,,,,,,,,,,,,,,,,,,,,,,,,,,,,,,,,,,,,,,,
,,,,,,611e8692e058689f82cc9423,62bbfae3452d53574f6592e6,2022-06-29_09h17.59.589,Colour_Asymmetry_Pilot,2022.1.3,Win32,19.990005,62bbe60bf3d75ef465d3e404,0,139,139,83,1,twofour,,,,,,,,,,,,,,,,,,,,,,,,,,,,,,,,,,,,,,,,,,,,,,,,,,,,,,,,,,,,,,,,,,,,,,,,,,,,,,,,,,,,,,,,,,,,,,,,,,,,,,,,,,,,,,,,,,,,,,,,,,,,,,,,,,,,,,,,,,,,,,,,,,,,,,,,
,,,,,,611e8692e058689f82cc9423,62bbfae3452d53574f6592e6,2022-06-29_09h17.59.589,Colour_Asymmetry_Pilot,2022.1.3,Win32,19.990005,62bbe60bf3d75ef465d3e404,0,140,140,152,1,onetwo,,,,,,,,,,,,,,,,,,,,,,,,,,,,,,,,,,,,,,,,,,,,,,,,,,,,,,,,,,,,,,,,,,,,,,,,,,,,,,,,,,,,,,,,,,,,,,,,,,,,,,,,,,,,,,,,,,,,,,,,,,,,,,,,,,,,,,,,,,,,,,,,,,,,,,,,
,,,,,,611e8692e058689f82cc9423,62bbfae3452d53574f6592e6,2022-06-29_09h17.59.589,Colour_Asymmetry_Pilot,2022.1.3,Win32,19.990005,62bbe60bf3d75ef465d3e404,0,141,141,160,1,onetwo,,,,,,,,,,,,,,,,,,,,,,,,,,,,,,,,,,,,,,,,,,,,,,,,,,,,,,,,,,,,,,,,,,,,,,,,,,,,,,,,,,,,,,,,,,,,,,,,,,,,,,,,,,,,,,,,,,,,,,,,,,,,,,,,,,,,,,,,,,,,,,,,,,,,,,,,
,,,,,,611e8692e058689f82cc9423,62bbfae3452d53574f6592e6,2022-06-29_09h17.59.589,Colour_Asymmetry_Pilot,2022.1.3,Win32,19.990005,62bbe60bf3d75ef465d3e404,0,142,142,101,1,threefour,,,,,,,,,,,,,,,,,,,,,,,,,,,,,,,,,,,,,,,,,,,,,,,,,,,,,,,,,,,,,,,,,,,,,,,,,,,,,,,,,,,,,,,,,,,,,,,,,,,,,,,,,,,,,,,,,,,,,,,,,,,,,,,,,,,,,,,,,,,,,,,,,,,,,,,,
,,,,,,611e8692e058689f82cc9423,62bbfae3452d53574f6592e6,2022-06-29_09h17.59.589,Colour_Asymmetry_Pilot,2022.1.3,Win32,19.990005,62bbe60bf3d75ef465d3e404,0,143,143,29,1,threefour,,,,,,,,,,,,,,,,,,,,,,,,,,,,,,,,,,,,,,,,,,,,,,,,,,,,,,,,,,,,,,,,,,,,,,,,,,,,,,,,,,,,,,,,,,,,,,,,,,,,,,,,,,,,,,,,,,,,,,,,,,,,,,,,,,,,,,,,,,,,,,,,,,,,,,,,
,,,,,,611e8692e058689f82cc9423,62bbfae3452d53574f6592e6,2022-06-29_09h17.59.589,Colour_Asymmetry_Pilot,2022.1.3,Win32,19.990005,62bbe60bf3d75ef465d3e404,0,144,144,106,1,twoone,,,,,,,,,,,,,,,,,,,,,,,,,,,,,,,,,,,,,,,,,,,,,,,,,,,,,,,,,,,,,,,,,,,,,,,,,,,,,,,,,,,,,,,,,,,,,,,,,,,,,,,,,,,,,,,,,,,,,,,,,,,,,,,,,,,,,,,,,,,,,,,,,,,,,,,,
,,,,,,611e8692e058689f82cc9423,62bbfae3452d53574f6592e6,2022-06-29_09h17.59.589,Colour_Asymmetry_Pilot,2022.1.3,Win32,19.990005,62bbe60bf3d75ef465d3e404,0,145,145,118,1,fourtwo,,,,,,,,,,,,,,,,,,,,,,,,,,,,,,,,,,,,,,,,,,,,,,,,,,,,,,,,,,,,,,,,,,,,,,,,,,,,,,,,,,,,,,,,,,,,,,,,,,,,,,,,,,,,,,,,,,,,,,,,,,,,,,,,,,,,,,,,,,,,,,,,,,,,,,,,
,,,,,,611e8692e058689f82cc9423,62bbfae3452d53574f6592e6,2022-06-29_09h17.59.589,Colour_Asymmetry_Pilot,2022.1.3,Win32,19.990005,62bbe60bf3d75ef465d3e404,0,146,146,37,1,threefour,,,,,,,,,,,,,,,,,,,,,,,,,,,,,,,,,,,,,,,,,,,,,,,,,,,,,,,,,,,,,,,,,,,,,,,,,,,,,,,,,,,,,,,,,,,,,,,,,,,,,,,,,,,,,,,,,,,,,,,,,,,,,,,,,,,,,,,,,,,,,,,,,,,,,,,,
,,,,,,611e8692e058689f82cc9423,62bbfae3452d53574f6592e6,2022-06-29_09h17.59.589,Colour_Asymmetry_Pilot,2022.1.3,Win32,19.990005,62bbe60bf3d75ef465d3e404,0,147,147,70,1,fourtwo,,,,,,,,,,,,,,,,,,,,,,,,,,,,,,,,,,,,,,,,,,,,,,,,,,,,,,,,,,,,,,,,,,,,,,,,,,,,,,,,,,,,,,,,,,,,,,,,,,,,,,,,,,,,,,,,,,,,,,,,,,,,,,,,,,,,,,,,,,,,,,,,,,,,,,,,
,,,,,,611e8692e058689f82cc9423,62bbfae3452d53574f6592e6,2022-06-29_09h17.59.589,Colour_Asymmetry_Pilot,2022.1.3,Win32,19.990005,62bbe60bf3d75ef465d3e404,0,148,148,32,1,onetwo,,,,,,,,,,,,,,,,,,,,,,,,,,,,,,,,,,,,,,,,,,,,,,,,,,,,,,,,,,,,,,,,,,,,,,,,,,,,,,,,,,,,,,,,,,,,,,,,,,,,,,,,,,,,,,,,,,,,,,,,,,,,,,,,,,,,,,,,,,,,,,,,,,,,,,,,
,,,,,,611e8692e058689f82cc9423,62bbfae3452d53574f6592e6,2022-06-29_09h17.59.589,Colour_Asymmetry_Pilot,2022.1.3,Win32,19.990005,62bbe60bf3d75ef465d3e404,0,149,149,116,1,threeone,,,,,,,,,,,,,,,,,,,,,,,,,,,,,,,,,,,,,,,,,,,,,,,,,,,,,,,,,,,,,,,,,,,,,,,,,,,,,,,,,,,,,,,,,,,,,,,,,,,,,,,,,,,,,,,,,,,,,,,,,,,,,,,,,,,,,,,,,,,,,,,,,,,,,,,,
,,,,,,611e8692e058689f82cc9423,62bbfae3452d53574f6592e6,2022-06-29_09h17.59.589,Colour_Asymmetry_Pilot,2022.1.3,Win32,19.990005,62bbe60bf3d75ef465d3e404,0,150,150,14,1,fourtwo,,,,,,,,,,,,,,,,,,,,,,,,,,,,,,,,,,,,,,,,,,,,,,,,,,,,,,,,,,,,,,,,,,,,,,,,,,,,,,,,,,,,,,,,,,,,,,,,,,,,,,,,,,,,,,,,,,,,,,,,,,,,,,,,,,,,,,,,,,,,,,,,,,,,,,,,
,,,,,,611e8692e058689f82cc9423,62bbfae3452d53574f6592e6,2022-06-29_09h17.59.589,Colour_Asymmetry_Pilot,2022.1.3,Win32,19.990005,62bbe60bf3d75ef465d3e404,0,151,151,19,1,twofour,,,,,,,,,,,,,,,,,,,,,,,,,,,,,,,,,,,,,,,,,,,,,,,,,,,,,,,,,,,,,,,,,,,,,,,,,,,,,,,,,,,,,,,,,,,,,,,,,,,,,,,,,,,,,,,,,,,,,,,,,,,,,,,,,,,,,,,,,,,,,,,,,,,,,,,,
,,,,,,611e8692e058689f82cc9423,62bbfae3452d53574f6592e6,2022-06-29_09h17.59.589,Colour_Asymmetry_Pilot,2022.1.3,Win32,19.990005,62bbe60bf3d75ef465d3e404,0,152,152,21,1,threefour,,,,,,,,,,,,,,,,,,,,,,,,,,,,,,,,,,,,,,,,,,,,,,,,,,,,,,,,,,,,,,,,,,,,,,,,,,,,,,,,,,,,,,,,,,,,,,,,,,,,,,,,,,,,,,,,,,,,,,,,,,,,,,,,,,,,,,,,,,,,,,,,,,,,,,,,
,,,,,,611e8692e058689f82cc9423,62bbfae3452d53574f6592e6,2022-06-29_09h17.59.589,Colour_Asymmetry_Pilot,2022.1.3,Win32,19.990005,62bbe60bf3d75ef465d3e404,0,153,153,107,1,twofour,,,,,,,,,,,,,,,,,,,,,,,,,,,,,,,,,,,,,,,,,,,,,,,,,,,,,,,,,,,,,,,,,,,,,,,,,,,,,,,,,,,,,,,,,,,,,,,,,,,,,,,,,,,,,,,,,,,,,,,,,,,,,,,,,,,,,,,,,,,,,,,,,,,,,,,,
,,,,,,611e8692e058689f82cc9423,62bbfae3452d53574f6592e6,2022-06-29_09h17.59.589,Colour_Asymmetry_Pilot,2022.1.3,Win32,19.990005,62bbe60bf3d75ef465d3e404,0,154,154,60,1,threeone,,,,,,,,,,,,,,,,,,,,,,,,,,,,,,,,,,,,,,,,,,,,,,,,,,,,,,,,,,,,,,,,,,,,,,,,,,,,,,,,,,,,,,,,,,,,,,,,,,,,,,,,,,,,,,,,,,,,,,,,,,,,,,,,,,,,,,,,,,,,,,,,,,,,,,,,
,,,,,,611e8692e058689f82cc9423,62bbfae3452d53574f6592e6,2022-06-29_09h17.59.589,Colour_Asymmetry_Pilot,2022.1.3,Win32,19.990005,62bbe60bf3d75ef465d3e404,0,155,155,133,1,threefour,,,,,,,,,,,,,,,,,,,,,,,,,,,,,,,,,,,,,,,,,,,,,,,,,,,,,,,,,,,,,,,,,,,,,,,,,,,,,,,,,,,,,,,,,,,,,,,,,,,,,,,,,,,,,,,,,,,,,,,,,,,,,,,,,,,,,,,,,,,,,,,,,,,,,,,,
,,,,,,611e8692e058689f82cc9423,62bbfae3452d53574f6592e6,2022-06-29_09h17.59.589,Colour_Asymmetry_Pilot,2022.1.3,Win32,19.990005,62bbe60bf3d75ef465d3e404,0,156,156,72,1,onetwo,,,,,,,,,,,,,,,,,,,,,,,,,,,,,,,,,,,,,,,,,,,,,,,,,,,,,,,,,,,,,,,,,,,,,,,,,,,,,,,,,,,,,,,,,,,,,,,,,,,,,,,,,,,,,,,,,,,,,,,,,,,,,,,,,,,,,,,,,,,,,,,,,,,,,,,,
,,,,,,611e8692e058689f82cc9423,62bbfae3452d53574f6592e6,2022-06-29_09h17.59.589,Colour_Asymmetry_Pilot,2022.1.3,Win32,19.990005,62bbe60bf3d75ef465d3e404,0,157,157,65,1,onethree,,,,,,,,,,,,,,,,,,,,,,,,,,,,,,,,,,,,,,,,,,,,,,,,,,,,,,,,,,,,,,,,,,,,,,,,,,,,,,,,,,,,,,,,,,,,,,,,,,,,,,,,,,,,,,,,,,,,,,,,,,,,,,,,,,,,,,,,,,,,,,,,,,,,,,,,
,,,,,,611e8692e058689f82cc9423,62bbfae3452d53574f6592e6,2022-06-29_09h17.59.589,Colour_Asymmetry_Pilot,2022.1.3,Win32,19.990005,62bbe60bf3d75ef465d3e404,0,158,158,157,1,threefour,,,,,,,,,,,,,,,,,,,,,,,,,,,,,,,,,,,,,,,,,,,,,,,,,,,,,,,,,,,,,,,,,,,,,,,,,,,,,,,,,,,,,,,,,,,,,,,,,,,,,,,,,,,,,,,,,,,,,,,,,,,,,,,,,,,,,,,,,,,,,,,,,,,,,,,,
,,,,,,611e8692e058689f82cc9423,62bbfae3452d53574f6592e6,2022-06-29_09h17.59.589,Colour_Asymmetry_Pilot,2022.1.3,Win32,19.990005,62bbe60bf3d75ef465d3e404,0,159,159,85,1,threefour,,,,,,,,,,,,,,,,,,,,,,,,,,,,,,,,,,,,,,,,,,,,,,,,,,,,,,,,,,,,,,,,,,,,,,,,,,,,,,,,,,,,,,,,,,,,,,,,,,,,,,,,,,,,,,,,,,,,,,,,,,,,,,,,,,,,,,,,,,,,,,,,,,,,,,,,
,,,,,,611e8692e058689f82cc9423,62bbfae3452d53574f6592e6,2022-06-29_09h17.59.589,Colour_Asymmetry_Pilot,2022.1.3,Win32,19.990005,62bbe60bf3d75ef465d3e404,0,160,160,123,1,twofour,,,,,,,,,,,,,,,,,,,,,,,,,,,,,,,,,,,,,,,,,,,,,,,,,,,,,,,,,,,,,,,,,,,,,,,,,,,,,,,,,,,,,,,,,,,,,,,,,,,,,,,,,,,,,,,,,,,,,,,,,,,,,,,,,,,,,,,,,,,,,,,,,,,,,,,,
,,,,,,611e8692e058689f82cc9423,62bbfae3452d53574f6592e6,2022-06-29_09h17.59.589,Colour_Asymmetry_Pilot,2022.1.3,Win32,19.990005,62bbe60bf3d75ef465d3e404,0,161,161,7,1,fourthree,,,,,,,,,,,,,,,,,,,,,,,,,,,,,,,,,,,,,,,,,,,,,,,,,,,,,,,,,,,,,,,,,,,,,,,,,,,,,,,,,,,,,,,,,,,,,,,,,,,,,,,,,,,,,,,,,,,,,,,,,,,,,,,,,,,,,,,,,,,,,,,,,,,,,,,,
,,,,,,611e8692e058689f82cc9423,62bbfae3452d53574f6592e6,2022-06-29_09h17.59.589,Colour_Asymmetry_Pilot,2022.1.3,Win32,19.990005,62bbe60bf3d75ef465d3e404,,,,,,,space,2.0136,space,31.3433,space,42.081,space,24.71,space,11.2796,space,13.8539,"[0.37240000000000006,0.4980000000000002,-0.2864]",fourthree,"[0.796,0.2156,-0.27859999999999996]",-4,9.1767,-34,86,1,0,0,response7disk_5,-15,1,1,0,0,rectangle_8,-15,1,1,0,0,2,-15,1,1,0,0,0,0,0,0,1,,,,,,,,,,,,,,,,,,,,,,,,,,,,,,,,,,,,,,,,,,,,,,,,,,,,,,,,,,,,,,,,,,,,,,,,,,,,,,,,,,,,,,,,,,,,,,,,,,,,,,,,,,,
,,,,,,611e8692e058689f82cc9423,62bbfae3452d53574f6592e6,2022-06-29_09h17.59.589,Colour_Asymmetry_Pilot,2022.1.3,Win32,19.990005,62bbe60bf3d75ef465d3e404,,,,,,,,,,,,,,,,,,,"[0.9763999999999999,-0.1137999999999999,-0.6314]",onethree,"[0.23120000000000007,-0.7726,-0.34120000000000006]",-1,8.2231,-32,-34,1,0,0,response5disk_5,-9,5,1,0,0,rectangle_8,-9,5,1,0,0,2,-9,5,1,0,0,1,0,1,0,1,,,,,,,,,,,,,,,,,,,,,,,,,,,,,,,,,,,,,,,,,,,,,,,,,,,,,,,,,,,,,,,,,,,,,,,,,,,,,,,,,,,,,,,,,,,,,,,,,,,,,,,,,,,
,,,,,,611e8692e058689f82cc9423,62bbfae3452d53574f6592e6,2022-06-29_09h17.59.589,Colour_Asymmetry_Pilot,2022.1.3,Win32,19.990005,62bbe60bf3d75ef465d3e404,,,,,,,,,,,,,,,,,,,"[-0.10599999999999998,-0.15300000000000002,0.15280000000000005]",fourthree,"[0.2862,0.7802,0.3568]",-1,3.0795,-45,-86,1,0,0,response5disk_5,1,9,1,0,0,rectangle_8,1,9,1,0,0,2,1,9,1,0,0,2,0,2,0,1,,,,,,,,,,,,,,,,,,,,,,,,,,,,,,,,,,,,,,,,,,,,,,,,,,,,,,,,,,,,,,,,,,,,,,,,,,,,,,,,,,,,,,,,,,,,,,,,,,,,,,,,,,,
,,,,,,611e8692e058689f82cc9423,62bbfae3452d53574f6592e6,2022-06-29_09h17.59.589,Colour_Asymmetry_Pilot,2022.1.3,Win32,19.990005,62bbe60bf3d75ef465d3e404,,,,,,,,,,,,,,,,,,,"[-0.9688,-0.38039999999999996,-0.41979999999999995]",twofour,"[-0.6706000000000001,-0.6157999999999999,-0.6786]",2,4.4534,66,-23,1,0,0,response3disk_5,10,-2,1,0,0,rectangle_8,88,-37,1,0,0,2,10,0,1,0,0,3,0,3,0,1,response3disk_7,5,rectangle_4,,,,,,,,,,,,,,,,,,,,,,,,,,,,,,,,,,,,,,,,,,,,,,,,,,,,,,,,,,,,,,,,,,,,,,,,,,,,,,,,,,,,,,,,,,,,,,,,,,,,,,,,
,,,,,,611e8692e058689f82cc9423,62bbfae3452d53574f6592e6,2022-06-29_09h17.59.589,Colour_Asymmetry_Pilot,2022.1.3,Win32,19.990005,62bbe60bf3d75ef465d3e404,,,,,,,,,,,,,,,,,,,"[-0.9766,-0.34920000000000007,0.2156]",fourthree,"[0.23120000000000007,-0.7726,-0.34120000000000006]",-3,2.9847,-73,32,1,0,0,response7disk_5,4,14,1,0,0,rectangle_8,4,14,1,0,0,2,4,14,1,0,0,4,0,4,0,1,,,,,,,,,,,,,,,,,,,,,,,,,,,,,,,,,,,,,,,,,,,,,,,,,,,,,,,,,,,,,,,,,,,,,,,,,,,,,,,,,,,,,,,,,,,,,,,,,,,,,,,,,,,
,,,,,,611e8692e058689f82cc9423,62bbfae3452d53574f6592e6,2022-06-29_09h17.59.589,Colour_Asymmetry_Pilot,2022.1.3,Win32,19.990005,62bbe60bf3d75ef465d3e404,,,,,,,,,,,,,,,,,,,"[0.37240000000000006,-0.050999999999999934,-0.5216]",twoone,"[0.34099999999999997,0.5841999999999998,-0.9844]",1,4.8939,19,-103,1,0,0,response3disk_5,-2,6,1,0,0,rectangle_8,55,-23,1,0,0,2,2,12,1,0,0,5,0,5,0,1,response3disk_7,5,rectangle_4,,,,,,,,,,,,,,,,,,,,,,,,,,,,,,,,,,,,,,,,,,,,,,,,,,,,,,,,,,,,,,,,,,,,,,,,,,,,,,,,,,,,,,,,,,,,,,,,,,,,,,,,
,,,,,,611e8692e058689f82cc9423,62bbfae3452d53574f6592e6,2022-06-29_09h17.59.589,Colour_Asymmetry_Pilot,2022.1.3,Win32,19.990005,62bbe60bf3d75ef465d3e404,,,,,,,,,,,,,,,,,,,"[0.6625999999999999,0.4980000000000002,-0.357]",twoone,"[0.19199999999999995,0.18419999999999992,0.5136000000000001]",-1,2.3826,-30,-97,1,0,0,response5disk_5,1,-10,1,0,0,rectangle_8,1,-10,1,0,0,2,1,-10,1,0,0,6,0,6,0,1,,,,,,,,,,,,,,,,,,,,,,,,,,,,,,,,,,,,,,,,,,,,,,,,,,,,,,,,,,,,,,,,,,,,,,,,,,,,,,,,,,,,,,,,,,,,,,,,,,,,,,,,,,,
,,,,,,611e8692e058689f82cc9423,62bbfae3452d53574f6592e6,2022-06-29_09h17.59.589,Colour_Asymmetry_Pilot,2022.1.3,Win32,19.990005,62bbe60bf3d75ef465d3e404,,,,,,,,,,,,,,,,,,,,fourtwo,,-1,13.6922,,,,,,,,,,,,,,,,,,,,,,,,,,,,,,,,space,7.7761,"[0.9763999999999999,-0.1137999999999999,-0.6314]","[-0.6235999999999999,-0.6786,-0.08239999999999992]",-36,-94,1,0,0,response5disk,-4,-2,1,0,0,rectangle,-4,-2,1,0,0,,2,0.0081,0,-4,-2,1,0,0,0,0,0,102,1,21,second,,,,,,,,,,,,,,,,,,,,,,,,,,,,,,,,,,,,,,,,,,,,,,,,,,,,,,,,,,,,,,,,,,,
,,,,,,611e8692e058689f82cc9423,62bbfae3452d53574f6592e6,2022-06-29_09h17.59.589,Colour_Asymmetry_Pilot,2022.1.3,Win32,19.990005,62bbe60bf3d75ef465d3e404,,,,,,,,,,,,,,,,,,,,fourthree,,1,1.5676,,,,,,,,,,,,,,,,,,,,,,,,,,,,,,,,,,"[0.11359999999999992,0.6312,0.5213999999999999]","[-0.9296,-0.12959999999999994,-0.043199999999999905]",40,-81,1,0,0,response3disk,7,-8,1,0,0,rectangle,7,-8,1,0,0,,2,0.0007,0,7,-8,1,0,0,0,1,1,140,1,59,second,,,,,,,,,,,,,,,,,,,,,,,,,,,,,,,,,,,,,,,,,,,,,,,,,,,,,,,,,,,,,,,,,,,
,,,,,,611e8692e058689f82cc9423,62bbfae3452d53574f6592e6,2022-06-29_09h17.59.589,Colour_Asymmetry_Pilot,2022.1.3,Win32,19.990005,62bbe60bf3d75ef465d3e404,,,,,,,,,,,,,,,,,,,,threeone,,-1,2.2887,,,,,,,,,,,,,,,,,,,,,,,,,,,,,,,,,,"[-0.17659999999999998,-0.2864,-0.8354]","[0.2862,0.7802,0.3568]",-40,-64,1,0,0,response5disk,-25,-7,1,0,0,rectangle,29,-97,1,0,0,1,1,9.108,1,4,8,1,0,0,0,2,2,11,1,11,first,response3disk_3,rectangle,,,,,,,,,,,,,,,,,,,,,,,,,,,,,,,,,,,,,,,,,,,,,,,,,,,,,,,,,,,,,,,,,
,,,,,,611e8692e058689f82cc9423,62bbfae3452d53574f6592e6,2022-06-29_09h17.59.589,Colour_Asymmetry_Pilot,2022.1.3,Win32,19.990005,62bbe60bf3d75ef465d3e404,,,,,,,,,,,,,,,,,,,,onethree,,-3,1.9954,,,,,,,,,,,,,,,,,,,,,,,,,,,,,,,,,,"[0.05879999999999996,0.2784,0.5841999999999998]","[0.6625999999999999,0.4980000000000002,-0.357]",-98,72,1,0,0,response7disk,-14,8,1,0,0,rectangle,-14,8,1,0,0,1,2,0.0032,0,-14,8,1,0,0,0,3,3,98,1,17,second,,,,,,,,,,,,,,,,,,,,,,,,,,,,,,,,,,,,,,,,,,,,,,,,,,,,,,,,,,,,,,,,,,,
,,,,,,611e8692e058689f82cc9423,62bbfae3452d53574f6592e6,2022-06-29_09h17.59.589,Colour_Asymmetry_Pilot,2022.1.3,Win32,19.990005,62bbe60bf3d75ef465d3e404,,,,,,,,,,,,,,,,,,,,threefour,,-1,2.1751,,,,,,,,,,,,,,,,,,,,,,,,,,,,,,,,,,"[0.04299999999999993,0.16060000000000008,-0.6628000000000001]","[0.22340000000000004,-0.9296,-0.7884]",-17,-94,1,0,0,response5disk,7,-3,1,0,0,rectangle,7,-3,1,0,0,1,1,0.0031,0,7,-3,1,0,0,0,4,4,42,1,42,first,,,,,,,,,,,,,,,,,,,,,,,,,,,,,,,,,,,,,,,,,,,,,,,,,,,,,,,,,,,,,,,,,,,
,,,,,,611e8692e058689f82cc9423,62bbfae3452d53574f6592e6,2022-06-29_09h17.59.589,Colour_Asymmetry_Pilot,2022.1.3,Win32,19.990005,62bbe60bf3d75ef465d3e404,,,,,,,,,,,,,,,,,,,,threeone,,1,5.1255,,,,,,,,,,,,,,,,,,,,,,,,,,,,,,,,,,"[-0.0040000000000000036,0.02739999999999987,-0.08239999999999992]","[0.05879999999999996,0.2784,0.5841999999999998]",21,-85,1,0,0,response3disk,6,-5,1,0,0,rectangle,6,-5,1,0,0,1,1,0.0006,0,6,-5,1,0,0,0,5,5,96,1,15,second,,,,,,,,,,,,,,,,,,,,,,,,,,,,,,,,,,,,,,,,,,,,,,,,,,,,,,,,,,,,,,,,,,,
,,,,,,611e8692e058689f82cc9423,62bbfae3452d53574f6592e6,2022-06-29_09h17.59.589,Colour_Asymmetry_Pilot,2022.1.3,Win32,19.990005,62bbe60bf3d75ef465d3e404,,,,,,,,,,,,,,,,,,,,twofour,,-1,2.1484,,,,,,,,,,,,,,,,,,,,,,,,,,,,,,,,,,"[-0.6706000000000001,-0.6157999999999999,-0.6786]","[-0.26280000000000003,-0.4746,-0.2158]",-22,-90,1,0,0,response5disk,-2,-1,1,0,0,rectangle,-2,-1,1,0,0,1,1,0.0007,0,-2,-1,1,0,0,0,6,6,88,1,7,second,,,,,,,,,,,,,,,,,,,,,,,,,,,,,,,,,,,,,,,,,,,,,,,,,,,,,,,,,,,,,,,,,,,
,,,,,,611e8692e058689f82cc9423,62bbfae3452d53574f6592e6,2022-06-29_09h17.59.589,Colour_Asymmetry_Pilot,2022.1.3,Win32,19.990005,62bbe60bf3d75ef465d3e404,,,,,,,,,,,,,,,,,,,,twofour,,-2,2.5919,,,,,,,,,,,,,,,,,,,,,,,,,,,,,,,,,,"[0.9763999999999999,0.8588,-0.05900000000000005]","[-0.30200000000000005,0.14500000000000002,0.2784]",-69,-37,1,0,0,response5disk,-2,6,1,0,0,rectangle,-2,6,1,0,0,1,1,0.0007,0,-2,6,1,0,0,0,7,7,2,1,2,first,,,,,,,,,,,,,,,,,,,,,,,,,,,,,,,,,,,,,,,,,,,,,,,,,,,,,,,,,,,,,,,,,,,
,,,,,,611e8692e058689f82cc9423,62bbfae3452d53574f6592e6,2022-06-29_09h17.59.589,Colour_Asymmetry_Pilot,2022.1.3,Win32,19.990005,62bbe60bf3d75ef465d3e404,,,,,,,,,,,,,,,,,,,,threefour,,-4,1.3386,,,,,,,,,,,,,,,,,,,,,,,,,,,,,,,,,,"[-0.07459999999999989,0.12139999999999995,-0.9922]","[-0.4668,-0.8746,-0.2942]",-41,71,1,0,0,response7disk,-12,7,1,0,0,rectangle,-12,7,1,0,0,1,3,0.0033,0,-12,7,1,0,0,0,8,8,14,1,14,first,,,,,,,,,,,,,,,,,,,,,,,,,,,,,,,,,,,,,,,,,,,,,,,,,,,,,,,,,,,,,,,,,,,
,,,,,,611e8692e058689f82cc9423,62bbfae3452d53574f6592e6,2022-06-29_09h17.59.589,Colour_Asymmetry_Pilot,2022.1.3,Win32,19.990005,62bbe60bf3d75ef465d3e404,,,,,,,,,,,,,,,,,,,,threeone,,-1,2.0611,,,,,,,,,,,,,,,,,,,,,,,,,,,,,,,,,,"[0.23920000000000008,0.2704,0.16060000000000008]","[0.04299999999999993,0.16060000000000008,-0.6628000000000001]",-35,-66,1,0,0,response5disk,-6,0,1,0,0,rectangle,-6,0,1,0,0,1,1,0.0034,0,-6,0,1,0,0,0,9,9,157,1,76,second,,,,,,,,,,,,,,,,,,,,,,,,,,,,,,,,,,,,,,,,,,,,,,,,,,,,,,,,,,,,,,,,,,,
,,,,,,611e8692e058689f82cc9423,62bbfae3452d53574f6592e6,2022-06-29_09h17.59.589,Colour_Asymmetry_Pilot,2022.1.3,Win32,19.990005,62bbe60bf3d75ef465d3e404,,,,,,,,,,,,,,,,,,,,onethree,,-1,2.6339,,,,,,,,,,,,,,,,,,,,,,,,,,,,,,,,,,"[-0.26280000000000003,-0.4746,-0.2158]","[-0.6706000000000001,-0.6157999999999999,-0.6786]",-22,-104,1,0,0,response5disk,3,-6,1,0,0,rectangle,3,-6,1,0,0,1,1,0.0009,0,3,-6,1,0,0,0,10,10,7,1,7,first,,,,,,,,,,,,,,,,,,,,,,,,,,,,,,,,,,,,,,,,,,,,,,,,,,,,,,,,,,,,,,,,,,,
,,,,,,611e8692e058689f82cc9423,62bbfae3452d53574f6592e6,2022-06-29_09h17.59.589,Colour_Asymmetry_Pilot,2022.1.3,Win32,19.990005,62bbe60bf3d75ef465d3e404,,,,,,,,,,,,,,,,,,,,twoone,,4,1.3289,,,,,,,,,,,,,,,,,,,,,,,,,,,,,,,,,,"[-0.10599999999999998,-0.10599999999999998,0.5841999999999998]","[-0.9216,-0.5529999999999999,-0.3962]",39,72,1,0,0,response1disk,-17,0,1,0,0,rectangle,-17,0,1,0,0,1,1,0.0007,0,-17,0,1,0,0,0,11,11,31,1,31,first,,,,,,,,,,,,,,,,,,,,,,,,,,,,,,,,,,,,,,,,,,,,,,,,,,,,,,,,,,,,,,,,,,,
,,,,,,611e8692e058689f82cc9423,62bbfae3452d53574f6592e6,2022-06-29_09h17.59.589,Colour_Asymmetry_Pilot,2022.1.3,Win32,19.990005,62bbe60bf3d75ef465d3e404,,,,,,,,,,,,,,,,,,,,fourthree,,-4,1.3223,,,,,,,,,,,,,,,,,,,,,,,,,,,,,,,,,,"[-0.26280000000000003,-0.2158,-0.3256]","[0.7176,-0.906,-0.6864]",-36,59,1,0,0,response7disk,-11,8,1,0,0,rectangle,-11,8,1,0,0,1,1,0.0005,0,-11,8,1,0,0,0,12,12,49,1,49,first,,,,,,,,,,,,,,,,,,,,,,,,,,,,,,,,,,,,,,,,,,,,,,,,,,,,,,,,,,,,,,,,,,,
,,,,,,611e8692e058689f82cc9423,62bbfae3452d53574f6592e6,2022-06-29_09h17.59.589,Colour_Asymmetry_Pilot,2022.1.3,Win32,19.990005,62bbe60bf3d75ef465d3e404,,,,,,,,,,,,,,,,,,,,twofour,,-1,1.2144,,,,,,,,,,,,,,,,,,,,,,,,,,,,,,,,,,"[-0.4902000000000001,0.2704,-0.45899999999999996]","[-0.26280000000000003,-0.4746,-0.2158]",-37,-99,1,0,0,response5disk,0,-7,1,0,0,rectangle,0,-7,1,0,0,1,3,0.0035,0,0,-7,1,0,0,0,13,13,29,1,29,first,,,,,,,,,,,,,,,,,,,,,,,,,,,,,,,,,,,,,,,,,,,,,,,,,,,,,,,,,,,,,,,,,,,
,,,,,,611e8692e058689f82cc9423,62bbfae3452d53574f6592e6,2022-06-29_09h17.59.589,Colour_Asymmetry_Pilot,2022.1.3,Win32,19.990005,62bbe60bf3d75ef465d3e404,,,,,,,,,,,,,,,,,,,,fourtwo,,-4,1.2323,,,,,,,,,,,,,,,,,,,,,,,,,,,,,,,,,,"[-0.48240000000000005,0.3175999999999999,0.2156]","[0.22340000000000004,-0.9296,-0.7884]",-62,91,1,0,0,response7disk,-4,0,1,0,0,rectangle,-4,0,1,0,0,1,3,0.0006,0,-4,0,1,0,0,0,14,14,61,1,61,first,,,,,,,,,,,,,,,,,,,,,,,,,,,,,,,,,,,,,,,,,,,,,,,,,,,,,,,,,,,,,,,,,,,
,,,,,,611e8692e058689f82cc9423,62bbfae3452d53574f6592e6,2022-06-29_09h17.59.589,Colour_Asymmetry_Pilot,2022.1.3,Win32,19.990005,62bbe60bf3d75ef465d3e404,,,,,,,,,,,,,,,,,,,,onethree,,-2,1.6113,,,,,,,,,,,,,,,,,,,,,,,,,,,,,,,,,,"[-0.9216,-0.5529999999999999,-0.3962]","[-0.10599999999999998,-0.10599999999999998,0.5841999999999998]",-67,-56,1,0,0,response5disk,1,5,1,0,0,rectangle,1,5,1,0,0,1,3,0.0006,0,1,5,1,0,0,0,15,15,112,1,31,second,,,,,,,,,,,,,,,,,,,,,,,,,,,,,,,,,,,,,,,,,,,,,,,,,,,,,,,,,,,,,,,,,,,
,,,,,,611e8692e058689f82cc9423,62bbfae3452d53574f6592e6,2022-06-29_09h17.59.589,Colour_Asymmetry_Pilot,2022.1.3,Win32,19.990005,62bbe60bf3d75ef465d3e404,,,,,,,,,,,,,,,,,,,,fourthree,,1,1.7378,,,,,,,,,,,,,,,,,,,,,,,,,,,,,,,,,,"[-0.48240000000000005,0.3175999999999999,0.2156]","[-0.6942,-0.7648,-0.12959999999999994]",27,-91,1,0,0,response3disk,-6,-3,1,0,0,rectangle,-6,-3,1,0,0,1,2,0.0039,0,-6,-3,1,0,0,0,16,16,52,1,52,first,,,,,,,,,,,,,,,,,,,,,,,,,,,,,,,,,,,,,,,,,,,,,,,,,,,,,,,,,,,,,,,,,,,
,,,,,,611e8692e058689f82cc9423,62bbfae3452d53574f6592e6,2022-06-29_09h17.59.589,Colour_Asymmetry_Pilot,2022.1.3,Win32,19.990005,62bbe60bf3d75ef465d3e404,,,,,,,,,,,,,,,,,,,,fourthree,,-3,1.3108,,,,,,,,,,,,,,,,,,,,,,,,,,,,,,,,,,"[0.04299999999999993,0.16060000000000008,-0.6628000000000001]","[0.23920000000000008,0.2704,0.16060000000000008]",-82,55,1,0,0,response7disk,4,8,1,0,0,rectangle,71,-42,1,0,0,2,2,3.4843,1,9,2,1,0,0,0,17,17,76,1,76,first,response3disk_3,rectangle,,,,,,,,,,,,,,,,,,,,,,,,,,,,,,,,,,,,,,,,,,,,,,,,,,,,,,,,,,,,,,,,,
,,,,,,611e8692e058689f82cc9423,62bbfae3452d53574f6592e6,2022-06-29_09h17.59.589,Colour_Asymmetry_Pilot,2022.1.3,Win32,19.990005,62bbe60bf3d75ef465d3e404,,,,,,,,,,,,,,,,,,,,fourthree,,4,1.4539,,,,,,,,,,,,,,,,,,,,,,,,,,,,,,,,,,"[0.34099999999999997,0.12939999999999996,-0.9766]","[0.34099999999999997,0.12939999999999996,-0.9766]",37,115,1,0,0,response1disk,0,-3,1,0,0,rectangle,0,-3,1,0,0,2,2,0.0006,0,0,-3,1,0,0,0,18,18,141,1,60,second,,,,,,,,,,,,,,,,,,,,,,,,,,,,,,,,,,,,,,,,,,,,,,,,,,,,,,,,,,,,,,,,,,,
,,,,,,611e8692e058689f82cc9423,62bbfae3452d53574f6592e6,2022-06-29_09h17.59.589,Colour_Asymmetry_Pilot,2022.1.3,Win32,19.990005,62bbe60bf3d75ef465d3e404,,,,,,,,,,,,,,,,,,,,onetwo,,-2,1.2418,,,,,,,,,,,,,,,,,,,,,,,,,,,,,,,,,,"[0.37240000000000006,-0.050999999999999934,-0.5216]","[-0.9296,-0.12959999999999994,-0.043199999999999905]",-52,-34,1,0,0,response5disk,-17,-5,1,0,0,rectangle,-17,-5,1,0,0,2,1,0.003,0,-17,-5,1,0,0,0,19,19,58,1,58,first,,,,,,,,,,,,,,,,,,,,,,,,,,,,,,,,,,,,,,,,,,,,,,,,,,,,,,,,,,,,,,,,,,,
,,,,,,611e8692e058689f82cc9423,62bbfae3452d53574f6592e6,2022-06-29_09h17.59.589,Colour_Asymmetry_Pilot,2022.1.3,Win32,19.990005,62bbe60bf3d75ef465d3e404,,,,,,,,,,,,,,,,,,,,onethree,,2,4.211,,,,,,,,,,,,,,,,,,,,,,,,,,,,,,,,,,"[-0.7412000000000001,-0.08239999999999992,-0.6864]","[-0.0040000000000000036,0.02739999999999987,-0.08239999999999992]",62,-27,1,0,0,response3disk,11,10,1,0,0,rectangle,11,10,1,0,0,2,3,0.0035,0,11,10,1,0,0,0,20,20,132,1,51,second,,,,,,,,,,,,,,,,,,,,,,,,,,,,,,,,,,,,,,,,,,,,,,,,,,,,,,,,,,,,,,,,,,,
,,,,,,611e8692e058689f82cc9423,62bbfae3452d53574f6592e6,2022-06-29_09h17.59.589,Colour_Asymmetry_Pilot,2022.1.3,Win32,19.990005,62bbe60bf3d75ef465d3e404,,,,,,,,,,,,,,,,,,,,onetwo,,-2,1.9437,,,,,,,,,,,,,,,,,,,,,,,,,,,,,,,,,,"[-0.09019999999999995,0.44300000000000006,0.5371999999999999]","[0.7176,-0.906,-0.6864]",-51,-27,1,0,0,response5disk,-5,4,1,0,0,rectangle,-5,4,1,0,0,2,3,0.0019,0,-5,4,1,0,0,0,21,21,126,1,45,second,,,,,,,,,,,,,,,,,,,,,,,,,,,,,,,,,,,,,,,,,,,,,,,,,,,,,,,,,,,,,,,,,,,
