trials.thisRepN,trials.thisTrialN,trials.thisN,trials.thisIndex,trials.ran,Colourcodes,participant,session,date,expName,psychopyVersion,OS,frameRate,study_id,trials_4.thisRepN,trials_4.thisTrialN,trials_4.thisN,trials_4.thisIndex,trials_4.ran,StimulusPos,key_resp.keys,key_resp.rt,key_resp_2.keys,key_resp_2.rt,key_resp_15.keys,key_resp_15.rt,key_resp_17.keys,key_resp_17.rt,key_resp_9.keys,key_resp_9.rt,key_resp_10.keys,key_resp_10.rt,Circle1_col,Ecc,Circle2_col,similarity,response_time,mouse_5.x,mouse_5.y,mouse_5.leftButton,mouse_5.midButton,mouse_5.rightButton,mouse_5.clicked_name,mouse_10.x,mouse_10.y,mouse_10.leftButton,mouse_10.midButton,mouse_10.rightButton,mouse_10.clicked_name,mouse_7.x,mouse_7.y,mouse_7.leftButton,mouse_7.midButton,mouse_7.rightButton,mouse_7.clicked_name,catchprac,catchnumberprac,mouse_6.x,mouse_6.y,mouse_6.leftButton,mouse_6.midButton,mouse_6.rightButton,mouse_6.clicked_name,duringprac.thisRepN,duringprac.thisTrialN,duringprac.thisN,duringprac.thisIndex,duringprac.ran,key_resp_22.keys,key_resp_22.rt,Circle1_colour,Circle2_colour,mouse.x,mouse.y,mouse.leftButton,mouse.midButton,mouse.rightButton,mouse.clicked_name,mouse_2.x,mouse_2.y,mouse_2.leftButton,mouse_2.midButton,mouse_2.rightButton,mouse_2.clicked_name,mouse_3.x,mouse_3.y,mouse_3.leftButton,mouse_3.midButton,mouse_3.rightButton,catchresponse,catchnumber,response_time_catch,Catch,mouse_11.x,mouse_11.y,mouse_11.leftButton,mouse_11.midButton,mouse_11.rightButton,trials_2.thisRepN,trials_2.thisTrialN,trials_2.thisN,trials_2.thisIndex,trials_2.ran,Colourpair,Temporder,mouse_3.clicked_name,mouse_11.clicked_name,trials_3.thisRepN,trials_3.thisTrialN,trials_3.thisN,trials_3.thisIndex,trials_3.ran,key_resp_instr_Ishi.keys,key_resp_instr_Ishi.rt,Ishi_trial_keyresp.keys,Ishi_trial_keyresp.rt,Ishi_textbox.text,Ishi_loop.thisRepN,Ishi_loop.thisTrialN,Ishi_loop.thisN,Ishi_loop.thisIndex,Ishi_loop.ran,imageaddress,textbox.text,mouse_4.x,mouse_4.y,mouse_4.leftButton,mouse_4.midButton,mouse_4.rightButton,mouse_4.clicked_name,textbox_2.text,mouse_8.x,mouse_8.y,mouse_8.leftButton,mouse_8.midButton,mouse_8.rightButton,mouse_8.clicked_name,textbox_3.text,mouse_9.x,mouse_9.y,mouse_9.leftButton,mouse_9.midButton,mouse_9.rightButton,mouse_9.clicked_name,textbox_4.text,mouse_12.x,mouse_12.y,mouse_12.leftButton,mouse_12.midButton,mouse_12.rightButton,mouse_12.clicked_name,textbox_5.text,mouse_13.x,mouse_13.y,mouse_13.leftButton,mouse_13.midButton,mouse_13.rightButton,mouse_13.clicked_name,textbox_6.text,mouse_14.x,mouse_14.y,mouse_14.leftButton,mouse_14.midButton,mouse_14.rightButton,mouse_14.clicked_name,textbox_7.text,mouse_15.x,mouse_15.y,mouse_15.leftButton,mouse_15.midButton,mouse_15.rightButton
0,0,0,25,1,,616d50472a9af48a47847e01,62bbfe8cbe1a341178826034,2022-06-29_09h26.43.501,Colour_Asymmetry_Pilot,2022.1.3,Win32,60.14314067,62bbe60bf3d75ef465d3e404,,,,,,,,,,,,,,,,,,,,,,,,,,,,,,,,,,,,,,,,,,,,,,,,,,,,,,,,,,,,,,,,,,,,,,,,,,,,,,,,,,,,,,,,,,,,,,,,,,,,,,,,,,,,,,,,,,,,,,,,,,,,,,,,,,,,,,,,,,,,,,,,,,,,,,,,,,,,,
0,1,1,27,1,,616d50472a9af48a47847e01,62bbfe8cbe1a341178826034,2022-06-29_09h26.43.501,Colour_Asymmetry_Pilot,2022.1.3,Win32,60.14314067,62bbe60bf3d75ef465d3e404,,,,,,,,,,,,,,,,,,,,,,,,,,,,,,,,,,,,,,,,,,,,,,,,,,,,,,,,,,,,,,,,,,,,,,,,,,,,,,,,,,,,,,,,,,,,,,,,,,,,,,,,,,,,,,,,,,,,,,,,,,,,,,,,,,,,,,,,,,,,,,,,,,,,,,,,,,,,,
0,2,2,8,1,,616d50472a9af48a47847e01,62bbfe8cbe1a341178826034,2022-06-29_09h26.43.501,Colour_Asymmetry_Pilot,2022.1.3,Win32,60.14314067,62bbe60bf3d75ef465d3e404,,,,,,,,,,,,,,,,,,,,,,,,,,,,,,,,,,,,,,,,,,,,,,,,,,,,,,,,,,,,,,,,,,,,,,,,,,,,,,,,,,,,,,,,,,,,,,,,,,,,,,,,,,,,,,,,,,,,,,,,,,,,,,,,,,,,,,,,,,,,,,,,,,,,,,,,,,,,,
0,3,3,63,1,,616d50472a9af48a47847e01,62bbfe8cbe1a341178826034,2022-06-29_09h26.43.501,Colour_Asymmetry_Pilot,2022.1.3,Win32,60.14314067,62bbe60bf3d75ef465d3e404,,,,,,,,,,,,,,,,,,,,,,,,,,,,,,,,,,,,,,,,,,,,,,,,,,,,,,,,,,,,,,,,,,,,,,,,,,,,,,,,,,,,,,,,,,,,,,,,,,,,,,,,,,,,,,,,,,,,,,,,,,,,,,,,,,,,,,,,,,,,,,,,,,,,,,,,,,,,,
0,4,4,61,1,,616d50472a9af48a47847e01,62bbfe8cbe1a341178826034,2022-06-29_09h26.43.501,Colour_Asymmetry_Pilot,2022.1.3,Win32,60.14314067,62bbe60bf3d75ef465d3e404,,,,,,,,,,,,,,,,,,,,,,,,,,,,,,,,,,,,,,,,,,,,,,,,,,,,,,,,,,,,,,,,,,,,,,,,,,,,,,,,,,,,,,,,,,,,,,,,,,,,,,,,,,,,,,,,,,,,,,,,,,,,,,,,,,,,,,,,,,,,,,,,,,,,,,,,,,,,,
0,5,5,6,1,,616d50472a9af48a47847e01,62bbfe8cbe1a341178826034,2022-06-29_09h26.43.501,Colour_Asymmetry_Pilot,2022.1.3,Win32,60.14314067,62bbe60bf3d75ef465d3e404,,,,,,,,,,,,,,,,,,,,,,,,,,,,,,,,,,,,,,,,,,,,,,,,,,,,,,,,,,,,,,,,,,,,,,,,,,,,,,,,,,,,,,,,,,,,,,,,,,,,,,,,,,,,,,,,,,,,,,,,,,,,,,,,,,,,,,,,,,,,,,,,,,,,,,,,,,,,,
0,6,6,16,1,,616d50472a9af48a47847e01,62bbfe8cbe1a341178826034,2022-06-29_09h26.43.501,Colour_Asymmetry_Pilot,2022.1.3,Win32,60.14314067,62bbe60bf3d75ef465d3e404,,,,,,,,,,,,,,,,,,,,,,,,,,,,,,,,,,,,,,,,,,,,,,,,,,,,,,,,,,,,,,,,,,,,,,,,,,,,,,,,,,,,,,,,,,,,,,,,,,,,,,,,,,,,,,,,,,,,,,,,,,,,,,,,,,,,,,,,,,,,,,,,,,,,,,,,,,,,,
0,7,7,13,1,,616d50472a9af48a47847e01,62bbfe8cbe1a341178826034,2022-06-29_09h26.43.501,Colour_Asymmetry_Pilot,2022.1.3,Win32,60.14314067,62bbe60bf3d75ef465d3e404,,,,,,,,,,,,,,,,,,,,,,,,,,,,,,,,,,,,,,,,,,,,,,,,,,,,,,,,,,,,,,,,,,,,,,,,,,,,,,,,,,,,,,,,,,,,,,,,,,,,,,,,,,,,,,,,,,,,,,,,,,,,,,,,,,,,,,,,,,,,,,,,,,,,,,,,,,,,,
0,8,8,58,1,,616d50472a9af48a47847e01,62bbfe8cbe1a341178826034,2022-06-29_09h26.43.501,Colour_Asymmetry_Pilot,2022.1.3,Win32,60.14314067,62bbe60bf3d75ef465d3e404,,,,,,,,,,,,,,,,,,,,,,,,,,,,,,,,,,,,,,,,,,,,,,,,,,,,,,,,,,,,,,,,,,,,,,,,,,,,,,,,,,,,,,,,,,,,,,,,,,,,,,,,,,,,,,,,,,,,,,,,,,,,,,,,,,,,,,,,,,,,,,,,,,,,,,,,,,,,,
0,9,9,35,1,,616d50472a9af48a47847e01,62bbfe8cbe1a341178826034,2022-06-29_09h26.43.501,Colour_Asymmetry_Pilot,2022.1.3,Win32,60.14314067,62bbe60bf3d75ef465d3e404,,,,,,,,,,,,,,,,,,,,,,,,,,,,,,,,,,,,,,,,,,,,,,,,,,,,,,,,,,,,,,,,,,,,,,,,,,,,,,,,,,,,,,,,,,,,,,,,,,,,,,,,,,,,,,,,,,,,,,,,,,,,,,,,,,,,,,,,,,,,,,,,,,,,,,,,,,,,,
0,10,10,64,1,,616d50472a9af48a47847e01,62bbfe8cbe1a341178826034,2022-06-29_09h26.43.501,Colour_Asymmetry_Pilot,2022.1.3,Win32,60.14314067,62bbe60bf3d75ef465d3e404,,,,,,,,,,,,,,,,,,,,,,,,,,,,,,,,,,,,,,,,,,,,,,,,,,,,,,,,,,,,,,,,,,,,,,,,,,,,,,,,,,,,,,,,,,,,,,,,,,,,,,,,,,,,,,,,,,,,,,,,,,,,,,,,,,,,,,,,,,,,,,,,,,,,,,,,,,,,,
0,11,11,47,1,,616d50472a9af48a47847e01,62bbfe8cbe1a341178826034,2022-06-29_09h26.43.501,Colour_Asymmetry_Pilot,2022.1.3,Win32,60.14314067,62bbe60bf3d75ef465d3e404,,,,,,,,,,,,,,,,,,,,,,,,,,,,,,,,,,,,,,,,,,,,,,,,,,,,,,,,,,,,,,,,,,,,,,,,,,,,,,,,,,,,,,,,,,,,,,,,,,,,,,,,,,,,,,,,,,,,,,,,,,,,,,,,,,,,,,,,,,,,,,,,,,,,,,,,,,,,,
0,12,12,85,1,,616d50472a9af48a47847e01,62bbfe8cbe1a341178826034,2022-06-29_09h26.43.501,Colour_Asymmetry_Pilot,2022.1.3,Win32,60.14314067,62bbe60bf3d75ef465d3e404,,,,,,,,,,,,,,,,,,,,,,,,,,,,,,,,,,,,,,,,,,,,,,,,,,,,,,,,,,,,,,,,,,,,,,,,,,,,,,,,,,,,,,,,,,,,,,,,,,,,,,,,,,,,,,,,,,,,,,,,,,,,,,,,,,,,,,,,,,,,,,,,,,,,,,,,,,,,,
0,13,13,14,1,,616d50472a9af48a47847e01,62bbfe8cbe1a341178826034,2022-06-29_09h26.43.501,Colour_Asymmetry_Pilot,2022.1.3,Win32,60.14314067,62bbe60bf3d75ef465d3e404,,,,,,,,,,,,,,,,,,,,,,,,,,,,,,,,,,,,,,,,,,,,,,,,,,,,,,,,,,,,,,,,,,,,,,,,,,,,,,,,,,,,,,,,,,,,,,,,,,,,,,,,,,,,,,,,,,,,,,,,,,,,,,,,,,,,,,,,,,,,,,,,,,,,,,,,,,,,,
0,14,14,12,1,,616d50472a9af48a47847e01,62bbfe8cbe1a341178826034,2022-06-29_09h26.43.501,Colour_Asymmetry_Pilot,2022.1.3,Win32,60.14314067,62bbe60bf3d75ef465d3e404,,,,,,,,,,,,,,,,,,,,,,,,,,,,,,,,,,,,,,,,,,,,,,,,,,,,,,,,,,,,,,,,,,,,,,,,,,,,,,,,,,,,,,,,,,,,,,,,,,,,,,,,,,,,,,,,,,,,,,,,,,,,,,,,,,,,,,,,,,,,,,,,,,,,,,,,,,,,,
0,15,15,36,1,,616d50472a9af48a47847e01,62bbfe8cbe1a341178826034,2022-06-29_09h26.43.501,Colour_Asymmetry_Pilot,2022.1.3,Win32,60.14314067,62bbe60bf3d75ef465d3e404,,,,,,,,,,,,,,,,,,,,,,,,,,,,,,,,,,,,,,,,,,,,,,,,,,,,,,,,,,,,,,,,,,,,,,,,,,,,,,,,,,,,,,,,,,,,,,,,,,,,,,,,,,,,,,,,,,,,,,,,,,,,,,,,,,,,,,,,,,,,,,,,,,,,,,,,,,,,,
0,16,16,31,1,,616d50472a9af48a47847e01,62bbfe8cbe1a341178826034,2022-06-29_09h26.43.501,Colour_Asymmetry_Pilot,2022.1.3,Win32,60.14314067,62bbe60bf3d75ef465d3e404,,,,,,,,,,,,,,,,,,,,,,,,,,,,,,,,,,,,,,,,,,,,,,,,,,,,,,,,,,,,,,,,,,,,,,,,,,,,,,,,,,,,,,,,,,,,,,,,,,,,,,,,,,,,,,,,,,,,,,,,,,,,,,,,,,,,,,,,,,,,,,,,,,,,,,,,,,,,,
0,17,17,4,1,,616d50472a9af48a47847e01,62bbfe8cbe1a341178826034,2022-06-29_09h26.43.501,Colour_Asymmetry_Pilot,2022.1.3,Win32,60.14314067,62bbe60bf3d75ef465d3e404,,,,,,,,,,,,,,,,,,,,,,,,,,,,,,,,,,,,,,,,,,,,,,,,,,,,,,,,,,,,,,,,,,,,,,,,,,,,,,,,,,,,,,,,,,,,,,,,,,,,,,,,,,,,,,,,,,,,,,,,,,,,,,,,,,,,,,,,,,,,,,,,,,,,,,,,,,,,,
0,18,18,51,1,,616d50472a9af48a47847e01,62bbfe8cbe1a341178826034,2022-06-29_09h26.43.501,Colour_Asymmetry_Pilot,2022.1.3,Win32,60.14314067,62bbe60bf3d75ef465d3e404,,,,,,,,,,,,,,,,,,,,,,,,,,,,,,,,,,,,,,,,,,,,,,,,,,,,,,,,,,,,,,,,,,,,,,,,,,,,,,,,,,,,,,,,,,,,,,,,,,,,,,,,,,,,,,,,,,,,,,,,,,,,,,,,,,,,,,,,,,,,,,,,,,,,,,,,,,,,,
0,19,19,79,1,,616d50472a9af48a47847e01,62bbfe8cbe1a341178826034,2022-06-29_09h26.43.501,Colour_Asymmetry_Pilot,2022.1.3,Win32,60.14314067,62bbe60bf3d75ef465d3e404,,,,,,,,,,,,,,,,,,,,,,,,,,,,,,,,,,,,,,,,,,,,,,,,,,,,,,,,,,,,,,,,,,,,,,,,,,,,,,,,,,,,,,,,,,,,,,,,,,,,,,,,,,,,,,,,,,,,,,,,,,,,,,,,,,,,,,,,,,,,,,,,,,,,,,,,,,,,,
0,20,20,90,1,,616d50472a9af48a47847e01,62bbfe8cbe1a341178826034,2022-06-29_09h26.43.501,Colour_Asymmetry_Pilot,2022.1.3,Win32,60.14314067,62bbe60bf3d75ef465d3e404,,,,,,,,,,,,,,,,,,,,,,,,,,,,,,,,,,,,,,,,,,,,,,,,,,,,,,,,,,,,,,,,,,,,,,,,,,,,,,,,,,,,,,,,,,,,,,,,,,,,,,,,,,,,,,,,,,,,,,,,,,,,,,,,,,,,,,,,,,,,,,,,,,,,,,,,,,,,,
0,21,21,73,1,,616d50472a9af48a47847e01,62bbfe8cbe1a341178826034,2022-06-29_09h26.43.501,Colour_Asymmetry_Pilot,2022.1.3,Win32,60.14314067,62bbe60bf3d75ef465d3e404,,,,,,,,,,,,,,,,,,,,,,,,,,,,,,,,,,,,,,,,,,,,,,,,,,,,,,,,,,,,,,,,,,,,,,,,,,,,,,,,,,,,,,,,,,,,,,,,,,,,,,,,,,,,,,,,,,,,,,,,,,,,,,,,,,,,,,,,,,,,,,,,,,,,,,,,,,,,,
0,22,22,86,1,,616d50472a9af48a47847e01,62bbfe8cbe1a341178826034,2022-06-29_09h26.43.501,Colour_Asymmetry_Pilot,2022.1.3,Win32,60.14314067,62bbe60bf3d75ef465d3e404,,,,,,,,,,,,,,,,,,,,,,,,,,,,,,,,,,,,,,,,,,,,,,,,,,,,,,,,,,,,,,,,,,,,,,,,,,,,,,,,,,,,,,,,,,,,,,,,,,,,,,,,,,,,,,,,,,,,,,,,,,,,,,,,,,,,,,,,,,,,,,,,,,,,,,,,,,,,,
0,23,23,39,1,,616d50472a9af48a47847e01,62bbfe8cbe1a341178826034,2022-06-29_09h26.43.501,Colour_Asymmetry_Pilot,2022.1.3,Win32,60.14314067,62bbe60bf3d75ef465d3e404,,,,,,,,,,,,,,,,,,,,,,,,,,,,,,,,,,,,,,,,,,,,,,,,,,,,,,,,,,,,,,,,,,,,,,,,,,,,,,,,,,,,,,,,,,,,,,,,,,,,,,,,,,,,,,,,,,,,,,,,,,,,,,,,,,,,,,,,,,,,,,,,,,,,,,,,,,,,,
0,24,24,53,1,,616d50472a9af48a47847e01,62bbfe8cbe1a341178826034,2022-06-29_09h26.43.501,Colour_Asymmetry_Pilot,2022.1.3,Win32,60.14314067,62bbe60bf3d75ef465d3e404,,,,,,,,,,,,,,,,,,,,,,,,,,,,,,,,,,,,,,,,,,,,,,,,,,,,,,,,,,,,,,,,,,,,,,,,,,,,,,,,,,,,,,,,,,,,,,,,,,,,,,,,,,,,,,,,,,,,,,,,,,,,,,,,,,,,,,,,,,,,,,,,,,,,,,,,,,,,,
0,25,25,62,1,,616d50472a9af48a47847e01,62bbfe8cbe1a341178826034,2022-06-29_09h26.43.501,Colour_Asymmetry_Pilot,2022.1.3,Win32,60.14314067,62bbe60bf3d75ef465d3e404,,,,,,,,,,,,,,,,,,,,,,,,,,,,,,,,,,,,,,,,,,,,,,,,,,,,,,,,,,,,,,,,,,,,,,,,,,,,,,,,,,,,,,,,,,,,,,,,,,,,,,,,,,,,,,,,,,,,,,,,,,,,,,,,,,,,,,,,,,,,,,,,,,,,,,,,,,,,,
0,26,26,15,1,,616d50472a9af48a47847e01,62bbfe8cbe1a341178826034,2022-06-29_09h26.43.501,Colour_Asymmetry_Pilot,2022.1.3,Win32,60.14314067,62bbe60bf3d75ef465d3e404,,,,,,,,,,,,,,,,,,,,,,,,,,,,,,,,,,,,,,,,,,,,,,,,,,,,,,,,,,,,,,,,,,,,,,,,,,,,,,,,,,,,,,,,,,,,,,,,,,,,,,,,,,,,,,,,,,,,,,,,,,,,,,,,,,,,,,,,,,,,,,,,,,,,,,,,,,,,,
0,27,27,71,1,,616d50472a9af48a47847e01,62bbfe8cbe1a341178826034,2022-06-29_09h26.43.501,Colour_Asymmetry_Pilot,2022.1.3,Win32,60.14314067,62bbe60bf3d75ef465d3e404,,,,,,,,,,,,,,,,,,,,,,,,,,,,,,,,,,,,,,,,,,,,,,,,,,,,,,,,,,,,,,,,,,,,,,,,,,,,,,,,,,,,,,,,,,,,,,,,,,,,,,,,,,,,,,,,,,,,,,,,,,,,,,,,,,,,,,,,,,,,,,,,,,,,,,,,,,,,,
0,28,28,30,1,,616d50472a9af48a47847e01,62bbfe8cbe1a341178826034,2022-06-29_09h26.43.501,Colour_Asymmetry_Pilot,2022.1.3,Win32,60.14314067,62bbe60bf3d75ef465d3e404,,,,,,,,,,,,,,,,,,,,,,,,,,,,,,,,,,,,,,,,,,,,,,,,,,,,,,,,,,,,,,,,,,,,,,,,,,,,,,,,,,,,,,,,,,,,,,,,,,,,,,,,,,,,,,,,,,,,,,,,,,,,,,,,,,,,,,,,,,,,,,,,,,,,,,,,,,,,,
0,29,29,59,1,,616d50472a9af48a47847e01,62bbfe8cbe1a341178826034,2022-06-29_09h26.43.501,Colour_Asymmetry_Pilot,2022.1.3,Win32,60.14314067,62bbe60bf3d75ef465d3e404,,,,,,,,,,,,,,,,,,,,,,,,,,,,,,,,,,,,,,,,,,,,,,,,,,,,,,,,,,,,,,,,,,,,,,,,,,,,,,,,,,,,,,,,,,,,,,,,,,,,,,,,,,,,,,,,,,,,,,,,,,,,,,,,,,,,,,,,,,,,,,,,,,,,,,,,,,,,,
0,30,30,42,1,,616d50472a9af48a47847e01,62bbfe8cbe1a341178826034,2022-06-29_09h26.43.501,Colour_Asymmetry_Pilot,2022.1.3,Win32,60.14314067,62bbe60bf3d75ef465d3e404,,,,,,,,,,,,,,,,,,,,,,,,,,,,,,,,,,,,,,,,,,,,,,,,,,,,,,,,,,,,,,,,,,,,,,,,,,,,,,,,,,,,,,,,,,,,,,,,,,,,,,,,,,,,,,,,,,,,,,,,,,,,,,,,,,,,,,,,,,,,,,,,,,,,,,,,,,,,,
0,31,31,75,1,,616d50472a9af48a47847e01,62bbfe8cbe1a341178826034,2022-06-29_09h26.43.501,Colour_Asymmetry_Pilot,2022.1.3,Win32,60.14314067,62bbe60bf3d75ef465d3e404,,,,,,,,,,,,,,,,,,,,,,,,,,,,,,,,,,,,,,,,,,,,,,,,,,,,,,,,,,,,,,,,,,,,,,,,,,,,,,,,,,,,,,,,,,,,,,,,,,,,,,,,,,,,,,,,,,,,,,,,,,,,,,,,,,,,,,,,,,,,,,,,,,,,,,,,,,,,,
0,32,32,81,1,,616d50472a9af48a47847e01,62bbfe8cbe1a341178826034,2022-06-29_09h26.43.501,Colour_Asymmetry_Pilot,2022.1.3,Win32,60.14314067,62bbe60bf3d75ef465d3e404,,,,,,,,,,,,,,,,,,,,,,,,,,,,,,,,,,,,,,,,,,,,,,,,,,,,,,,,,,,,,,,,,,,,,,,,,,,,,,,,,,,,,,,,,,,,,,,,,,,,,,,,,,,,,,,,,,,,,,,,,,,,,,,,,,,,,,,,,,,,,,,,,,,,,,,,,,,,,
0,33,33,44,1,,616d50472a9af48a47847e01,62bbfe8cbe1a341178826034,2022-06-29_09h26.43.501,Colour_Asymmetry_Pilot,2022.1.3,Win32,60.14314067,62bbe60bf3d75ef465d3e404,,,,,,,,,,,,,,,,,,,,,,,,,,,,,,,,,,,,,,,,,,,,,,,,,,,,,,,,,,,,,,,,,,,,,,,,,,,,,,,,,,,,,,,,,,,,,,,,,,,,,,,,,,,,,,,,,,,,,,,,,,,,,,,,,,,,,,,,,,,,,,,,,,,,,,,,,,,,,
0,34,34,66,1,,616d50472a9af48a47847e01,62bbfe8cbe1a341178826034,2022-06-29_09h26.43.501,Colour_Asymmetry_Pilot,2022.1.3,Win32,60.14314067,62bbe60bf3d75ef465d3e404,,,,,,,,,,,,,,,,,,,,,,,,,,,,,,,,,,,,,,,,,,,,,,,,,,,,,,,,,,,,,,,,,,,,,,,,,,,,,,,,,,,,,,,,,,,,,,,,,,,,,,,,,,,,,,,,,,,,,,,,,,,,,,,,,,,,,,,,,,,,,,,,,,,,,,,,,,,,,
0,35,35,17,1,,616d50472a9af48a47847e01,62bbfe8cbe1a341178826034,2022-06-29_09h26.43.501,Colour_Asymmetry_Pilot,2022.1.3,Win32,60.14314067,62bbe60bf3d75ef465d3e404,,,,,,,,,,,,,,,,,,,,,,,,,,,,,,,,,,,,,,,,,,,,,,,,,,,,,,,,,,,,,,,,,,,,,,,,,,,,,,,,,,,,,,,,,,,,,,,,,,,,,,,,,,,,,,,,,,,,,,,,,,,,,,,,,,,,,,,,,,,,,,,,,,,,,,,,,,,,,
0,36,36,92,1,,616d50472a9af48a47847e01,62bbfe8cbe1a341178826034,2022-06-29_09h26.43.501,Colour_Asymmetry_Pilot,2022.1.3,Win32,60.14314067,62bbe60bf3d75ef465d3e404,,,,,,,,,,,,,,,,,,,,,,,,,,,,,,,,,,,,,,,,,,,,,,,,,,,,,,,,,,,,,,,,,,,,,,,,,,,,,,,,,,,,,,,,,,,,,,,,,,,,,,,,,,,,,,,,,,,,,,,,,,,,,,,,,,,,,,,,,,,,,,,,,,,,,,,,,,,,,
0,37,37,89,1,,616d50472a9af48a47847e01,62bbfe8cbe1a341178826034,2022-06-29_09h26.43.501,Colour_Asymmetry_Pilot,2022.1.3,Win32,60.14314067,62bbe60bf3d75ef465d3e404,,,,,,,,,,,,,,,,,,,,,,,,,,,,,,,,,,,,,,,,,,,,,,,,,,,,,,,,,,,,,,,,,,,,,,,,,,,,,,,,,,,,,,,,,,,,,,,,,,,,,,,,,,,,,,,,,,,,,,,,,,,,,,,,,,,,,,,,,,,,,,,,,,,,,,,,,,,,,
0,38,38,87,1,,616d50472a9af48a47847e01,62bbfe8cbe1a341178826034,2022-06-29_09h26.43.501,Colour_Asymmetry_Pilot,2022.1.3,Win32,60.14314067,62bbe60bf3d75ef465d3e404,,,,,,,,,,,,,,,,,,,,,,,,,,,,,,,,,,,,,,,,,,,,,,,,,,,,,,,,,,,,,,,,,,,,,,,,,,,,,,,,,,,,,,,,,,,,,,,,,,,,,,,,,,,,,,,,,,,,,,,,,,,,,,,,,,,,,,,,,,,,,,,,,,,,,,,,,,,,,
0,39,39,88,1,,616d50472a9af48a47847e01,62bbfe8cbe1a341178826034,2022-06-29_09h26.43.501,Colour_Asymmetry_Pilot,2022.1.3,Win32,60.14314067,62bbe60bf3d75ef465d3e404,,,,,,,,,,,,,,,,,,,,,,,,,,,,,,,,,,,,,,,,,,,,,,,,,,,,,,,,,,,,,,,,,,,,,,,,,,,,,,,,,,,,,,,,,,,,,,,,,,,,,,,,,,,,,,,,,,,,,,,,,,,,,,,,,,,,,,,,,,,,,,,,,,,,,,,,,,,,,
0,40,40,23,1,,616d50472a9af48a47847e01,62bbfe8cbe1a341178826034,2022-06-29_09h26.43.501,Colour_Asymmetry_Pilot,2022.1.3,Win32,60.14314067,62bbe60bf3d75ef465d3e404,,,,,,,,,,,,,,,,,,,,,,,,,,,,,,,,,,,,,,,,,,,,,,,,,,,,,,,,,,,,,,,,,,,,,,,,,,,,,,,,,,,,,,,,,,,,,,,,,,,,,,,,,,,,,,,,,,,,,,,,,,,,,,,,,,,,,,,,,,,,,,,,,,,,,,,,,,,,,
0,41,41,74,1,,616d50472a9af48a47847e01,62bbfe8cbe1a341178826034,2022-06-29_09h26.43.501,Colour_Asymmetry_Pilot,2022.1.3,Win32,60.14314067,62bbe60bf3d75ef465d3e404,,,,,,,,,,,,,,,,,,,,,,,,,,,,,,,,,,,,,,,,,,,,,,,,,,,,,,,,,,,,,,,,,,,,,,,,,,,,,,,,,,,,,,,,,,,,,,,,,,,,,,,,,,,,,,,,,,,,,,,,,,,,,,,,,,,,,,,,,,,,,,,,,,,,,,,,,,,,,
0,42,42,46,1,,616d50472a9af48a47847e01,62bbfe8cbe1a341178826034,2022-06-29_09h26.43.501,Colour_Asymmetry_Pilot,2022.1.3,Win32,60.14314067,62bbe60bf3d75ef465d3e404,,,,,,,,,,,,,,,,,,,,,,,,,,,,,,,,,,,,,,,,,,,,,,,,,,,,,,,,,,,,,,,,,,,,,,,,,,,,,,,,,,,,,,,,,,,,,,,,,,,,,,,,,,,,,,,,,,,,,,,,,,,,,,,,,,,,,,,,,,,,,,,,,,,,,,,,,,,,,
0,43,43,3,1,,616d50472a9af48a47847e01,62bbfe8cbe1a341178826034,2022-06-29_09h26.43.501,Colour_Asymmetry_Pilot,2022.1.3,Win32,60.14314067,62bbe60bf3d75ef465d3e404,,,,,,,,,,,,,,,,,,,,,,,,,,,,,,,,,,,,,,,,,,,,,,,,,,,,,,,,,,,,,,,,,,,,,,,,,,,,,,,,,,,,,,,,,,,,,,,,,,,,,,,,,,,,,,,,,,,,,,,,,,,,,,,,,,,,,,,,,,,,,,,,,,,,,,,,,,,,,
0,44,44,80,1,,616d50472a9af48a47847e01,62bbfe8cbe1a341178826034,2022-06-29_09h26.43.501,Colour_Asymmetry_Pilot,2022.1.3,Win32,60.14314067,62bbe60bf3d75ef465d3e404,,,,,,,,,,,,,,,,,,,,,,,,,,,,,,,,,,,,,,,,,,,,,,,,,,,,,,,,,,,,,,,,,,,,,,,,,,,,,,,,,,,,,,,,,,,,,,,,,,,,,,,,,,,,,,,,,,,,,,,,,,,,,,,,,,,,,,,,,,,,,,,,,,,,,,,,,,,,,
0,45,45,19,1,,616d50472a9af48a47847e01,62bbfe8cbe1a341178826034,2022-06-29_09h26.43.501,Colour_Asymmetry_Pilot,2022.1.3,Win32,60.14314067,62bbe60bf3d75ef465d3e404,,,,,,,,,,,,,,,,,,,,,,,,,,,,,,,,,,,,,,,,,,,,,,,,,,,,,,,,,,,,,,,,,,,,,,,,,,,,,,,,,,,,,,,,,,,,,,,,,,,,,,,,,,,,,,,,,,,,,,,,,,,,,,,,,,,,,,,,,,,,,,,,,,,,,,,,,,,,,
0,46,46,7,1,,616d50472a9af48a47847e01,62bbfe8cbe1a341178826034,2022-06-29_09h26.43.501,Colour_Asymmetry_Pilot,2022.1.3,Win32,60.14314067,62bbe60bf3d75ef465d3e404,,,,,,,,,,,,,,,,,,,,,,,,,,,,,,,,,,,,,,,,,,,,,,,,,,,,,,,,,,,,,,,,,,,,,,,,,,,,,,,,,,,,,,,,,,,,,,,,,,,,,,,,,,,,,,,,,,,,,,,,,,,,,,,,,,,,,,,,,,,,,,,,,,,,,,,,,,,,,
0,47,47,43,1,,616d50472a9af48a47847e01,62bbfe8cbe1a341178826034,2022-06-29_09h26.43.501,Colour_Asymmetry_Pilot,2022.1.3,Win32,60.14314067,62bbe60bf3d75ef465d3e404,,,,,,,,,,,,,,,,,,,,,,,,,,,,,,,,,,,,,,,,,,,,,,,,,,,,,,,,,,,,,,,,,,,,,,,,,,,,,,,,,,,,,,,,,,,,,,,,,,,,,,,,,,,,,,,,,,,,,,,,,,,,,,,,,,,,,,,,,,,,,,,,,,,,,,,,,,,,,
0,48,48,20,1,,616d50472a9af48a47847e01,62bbfe8cbe1a341178826034,2022-06-29_09h26.43.501,Colour_Asymmetry_Pilot,2022.1.3,Win32,60.14314067,62bbe60bf3d75ef465d3e404,,,,,,,,,,,,,,,,,,,,,,,,,,,,,,,,,,,,,,,,,,,,,,,,,,,,,,,,,,,,,,,,,,,,,,,,,,,,,,,,,,,,,,,,,,,,,,,,,,,,,,,,,,,,,,,,,,,,,,,,,,,,,,,,,,,,,,,,,,,,,,,,,,,,,,,,,,,,,
0,49,49,26,1,,616d50472a9af48a47847e01,62bbfe8cbe1a341178826034,2022-06-29_09h26.43.501,Colour_Asymmetry_Pilot,2022.1.3,Win32,60.14314067,62bbe60bf3d75ef465d3e404,,,,,,,,,,,,,,,,,,,,,,,,,,,,,,,,,,,,,,,,,,,,,,,,,,,,,,,,,,,,,,,,,,,,,,,,,,,,,,,,,,,,,,,,,,,,,,,,,,,,,,,,,,,,,,,,,,,,,,,,,,,,,,,,,,,,,,,,,,,,,,,,,,,,,,,,,,,,,
0,50,50,56,1,,616d50472a9af48a47847e01,62bbfe8cbe1a341178826034,2022-06-29_09h26.43.501,Colour_Asymmetry_Pilot,2022.1.3,Win32,60.14314067,62bbe60bf3d75ef465d3e404,,,,,,,,,,,,,,,,,,,,,,,,,,,,,,,,,,,,,,,,,,,,,,,,,,,,,,,,,,,,,,,,,,,,,,,,,,,,,,,,,,,,,,,,,,,,,,,,,,,,,,,,,,,,,,,,,,,,,,,,,,,,,,,,,,,,,,,,,,,,,,,,,,,,,,,,,,,,,
0,51,51,55,1,,616d50472a9af48a47847e01,62bbfe8cbe1a341178826034,2022-06-29_09h26.43.501,Colour_Asymmetry_Pilot,2022.1.3,Win32,60.14314067,62bbe60bf3d75ef465d3e404,,,,,,,,,,,,,,,,,,,,,,,,,,,,,,,,,,,,,,,,,,,,,,,,,,,,,,,,,,,,,,,,,,,,,,,,,,,,,,,,,,,,,,,,,,,,,,,,,,,,,,,,,,,,,,,,,,,,,,,,,,,,,,,,,,,,,,,,,,,,,,,,,,,,,,,,,,,,,
0,52,52,68,1,,616d50472a9af48a47847e01,62bbfe8cbe1a341178826034,2022-06-29_09h26.43.501,Colour_Asymmetry_Pilot,2022.1.3,Win32,60.14314067,62bbe60bf3d75ef465d3e404,,,,,,,,,,,,,,,,,,,,,,,,,,,,,,,,,,,,,,,,,,,,,,,,,,,,,,,,,,,,,,,,,,,,,,,,,,,,,,,,,,,,,,,,,,,,,,,,,,,,,,,,,,,,,,,,,,,,,,,,,,,,,,,,,,,,,,,,,,,,,,,,,,,,,,,,,,,,,
0,53,53,9,1,,616d50472a9af48a47847e01,62bbfe8cbe1a341178826034,2022-06-29_09h26.43.501,Colour_Asymmetry_Pilot,2022.1.3,Win32,60.14314067,62bbe60bf3d75ef465d3e404,,,,,,,,,,,,,,,,,,,,,,,,,,,,,,,,,,,,,,,,,,,,,,,,,,,,,,,,,,,,,,,,,,,,,,,,,,,,,,,,,,,,,,,,,,,,,,,,,,,,,,,,,,,,,,,,,,,,,,,,,,,,,,,,,,,,,,,,,,,,,,,,,,,,,,,,,,,,,
0,54,54,40,1,,616d50472a9af48a47847e01,62bbfe8cbe1a341178826034,2022-06-29_09h26.43.501,Colour_Asymmetry_Pilot,2022.1.3,Win32,60.14314067,62bbe60bf3d75ef465d3e404,,,,,,,,,,,,,,,,,,,,,,,,,,,,,,,,,,,,,,,,,,,,,,,,,,,,,,,,,,,,,,,,,,,,,,,,,,,,,,,,,,,,,,,,,,,,,,,,,,,,,,,,,,,,,,,,,,,,,,,,,,,,,,,,,,,,,,,,,,,,,,,,,,,,,,,,,,,,,
0,55,55,1,1,,616d50472a9af48a47847e01,62bbfe8cbe1a341178826034,2022-06-29_09h26.43.501,Colour_Asymmetry_Pilot,2022.1.3,Win32,60.14314067,62bbe60bf3d75ef465d3e404,,,,,,,,,,,,,,,,,,,,,,,,,,,,,,,,,,,,,,,,,,,,,,,,,,,,,,,,,,,,,,,,,,,,,,,,,,,,,,,,,,,,,,,,,,,,,,,,,,,,,,,,,,,,,,,,,,,,,,,,,,,,,,,,,,,,,,,,,,,,,,,,,,,,,,,,,,,,,
0,56,56,10,1,,616d50472a9af48a47847e01,62bbfe8cbe1a341178826034,2022-06-29_09h26.43.501,Colour_Asymmetry_Pilot,2022.1.3,Win32,60.14314067,62bbe60bf3d75ef465d3e404,,,,,,,,,,,,,,,,,,,,,,,,,,,,,,,,,,,,,,,,,,,,,,,,,,,,,,,,,,,,,,,,,,,,,,,,,,,,,,,,,,,,,,,,,,,,,,,,,,,,,,,,,,,,,,,,,,,,,,,,,,,,,,,,,,,,,,,,,,,,,,,,,,,,,,,,,,,,,
0,57,57,32,1,,616d50472a9af48a47847e01,62bbfe8cbe1a341178826034,2022-06-29_09h26.43.501,Colour_Asymmetry_Pilot,2022.1.3,Win32,60.14314067,62bbe60bf3d75ef465d3e404,,,,,,,,,,,,,,,,,,,,,,,,,,,,,,,,,,,,,,,,,,,,,,,,,,,,,,,,,,,,,,,,,,,,,,,,,,,,,,,,,,,,,,,,,,,,,,,,,,,,,,,,,,,,,,,,,,,,,,,,,,,,,,,,,,,,,,,,,,,,,,,,,,,,,,,,,,,,,
0,58,58,78,1,,616d50472a9af48a47847e01,62bbfe8cbe1a341178826034,2022-06-29_09h26.43.501,Colour_Asymmetry_Pilot,2022.1.3,Win32,60.14314067,62bbe60bf3d75ef465d3e404,,,,,,,,,,,,,,,,,,,,,,,,,,,,,,,,,,,,,,,,,,,,,,,,,,,,,,,,,,,,,,,,,,,,,,,,,,,,,,,,,,,,,,,,,,,,,,,,,,,,,,,,,,,,,,,,,,,,,,,,,,,,,,,,,,,,,,,,,,,,,,,,,,,,,,,,,,,,,
0,59,59,84,1,,616d50472a9af48a47847e01,62bbfe8cbe1a341178826034,2022-06-29_09h26.43.501,Colour_Asymmetry_Pilot,2022.1.3,Win32,60.14314067,62bbe60bf3d75ef465d3e404,,,,,,,,,,,,,,,,,,,,,,,,,,,,,,,,,,,,,,,,,,,,,,,,,,,,,,,,,,,,,,,,,,,,,,,,,,,,,,,,,,,,,,,,,,,,,,,,,,,,,,,,,,,,,,,,,,,,,,,,,,,,,,,,,,,,,,,,,,,,,,,,,,,,,,,,,,,,,
0,60,60,60,1,,616d50472a9af48a47847e01,62bbfe8cbe1a341178826034,2022-06-29_09h26.43.501,Colour_Asymmetry_Pilot,2022.1.3,Win32,60.14314067,62bbe60bf3d75ef465d3e404,,,,,,,,,,,,,,,,,,,,,,,,,,,,,,,,,,,,,,,,,,,,,,,,,,,,,,,,,,,,,,,,,,,,,,,,,,,,,,,,,,,,,,,,,,,,,,,,,,,,,,,,,,,,,,,,,,,,,,,,,,,,,,,,,,,,,,,,,,,,,,,,,,,,,,,,,,,,,
0,61,61,70,1,,616d50472a9af48a47847e01,62bbfe8cbe1a341178826034,2022-06-29_09h26.43.501,Colour_Asymmetry_Pilot,2022.1.3,Win32,60.14314067,62bbe60bf3d75ef465d3e404,,,,,,,,,,,,,,,,,,,,,,,,,,,,,,,,,,,,,,,,,,,,,,,,,,,,,,,,,,,,,,,,,,,,,,,,,,,,,,,,,,,,,,,,,,,,,,,,,,,,,,,,,,,,,,,,,,,,,,,,,,,,,,,,,,,,,,,,,,,,,,,,,,,,,,,,,,,,,
0,62,62,21,1,,616d50472a9af48a47847e01,62bbfe8cbe1a341178826034,2022-06-29_09h26.43.501,Colour_Asymmetry_Pilot,2022.1.3,Win32,60.14314067,62bbe60bf3d75ef465d3e404,,,,,,,,,,,,,,,,,,,,,,,,,,,,,,,,,,,,,,,,,,,,,,,,,,,,,,,,,,,,,,,,,,,,,,,,,,,,,,,,,,,,,,,,,,,,,,,,,,,,,,,,,,,,,,,,,,,,,,,,,,,,,,,,,,,,,,,,,,,,,,,,,,,,,,,,,,,,,
0,63,63,2,1,,616d50472a9af48a47847e01,62bbfe8cbe1a341178826034,2022-06-29_09h26.43.501,Colour_Asymmetry_Pilot,2022.1.3,Win32,60.14314067,62bbe60bf3d75ef465d3e404,,,,,,,,,,,,,,,,,,,,,,,,,,,,,,,,,,,,,,,,,,,,,,,,,,,,,,,,,,,,,,,,,,,,,,,,,,,,,,,,,,,,,,,,,,,,,,,,,,,,,,,,,,,,,,,,,,,,,,,,,,,,,,,,,,,,,,,,,,,,,,,,,,,,,,,,,,,,,
0,64,64,54,1,,616d50472a9af48a47847e01,62bbfe8cbe1a341178826034,2022-06-29_09h26.43.501,Colour_Asymmetry_Pilot,2022.1.3,Win32,60.14314067,62bbe60bf3d75ef465d3e404,,,,,,,,,,,,,,,,,,,,,,,,,,,,,,,,,,,,,,,,,,,,,,,,,,,,,,,,,,,,,,,,,,,,,,,,,,,,,,,,,,,,,,,,,,,,,,,,,,,,,,,,,,,,,,,,,,,,,,,,,,,,,,,,,,,,,,,,,,,,,,,,,,,,,,,,,,,,,
0,65,65,83,1,,616d50472a9af48a47847e01,62bbfe8cbe1a341178826034,2022-06-29_09h26.43.501,Colour_Asymmetry_Pilot,2022.1.3,Win32,60.14314067,62bbe60bf3d75ef465d3e404,,,,,,,,,,,,,,,,,,,,,,,,,,,,,,,,,,,,,,,,,,,,,,,,,,,,,,,,,,,,,,,,,,,,,,,,,,,,,,,,,,,,,,,,,,,,,,,,,,,,,,,,,,,,,,,,,,,,,,,,,,,,,,,,,,,,,,,,,,,,,,,,,,,,,,,,,,,,,
0,66,66,37,1,,616d50472a9af48a47847e01,62bbfe8cbe1a341178826034,2022-06-29_09h26.43.501,Colour_Asymmetry_Pilot,2022.1.3,Win32,60.14314067,62bbe60bf3d75ef465d3e404,,,,,,,,,,,,,,,,,,,,,,,,,,,,,,,,,,,,,,,,,,,,,,,,,,,,,,,,,,,,,,,,,,,,,,,,,,,,,,,,,,,,,,,,,,,,,,,,,,,,,,,,,,,,,,,,,,,,,,,,,,,,,,,,,,,,,,,,,,,,,,,,,,,,,,,,,,,,,
0,67,67,76,1,,616d50472a9af48a47847e01,62bbfe8cbe1a341178826034,2022-06-29_09h26.43.501,Colour_Asymmetry_Pilot,2022.1.3,Win32,60.14314067,62bbe60bf3d75ef465d3e404,,,,,,,,,,,,,,,,,,,,,,,,,,,,,,,,,,,,,,,,,,,,,,,,,,,,,,,,,,,,,,,,,,,,,,,,,,,,,,,,,,,,,,,,,,,,,,,,,,,,,,,,,,,,,,,,,,,,,,,,,,,,,,,,,,,,,,,,,,,,,,,,,,,,,,,,,,,,,
0,68,68,24,1,,616d50472a9af48a47847e01,62bbfe8cbe1a341178826034,2022-06-29_09h26.43.501,Colour_Asymmetry_Pilot,2022.1.3,Win32,60.14314067,62bbe60bf3d75ef465d3e404,,,,,,,,,,,,,,,,,,,,,,,,,,,,,,,,,,,,,,,,,,,,,,,,,,,,,,,,,,,,,,,,,,,,,,,,,,,,,,,,,,,,,,,,,,,,,,,,,,,,,,,,,,,,,,,,,,,,,,,,,,,,,,,,,,,,,,,,,,,,,,,,,,,,,,,,,,,,,
0,69,69,50,1,,616d50472a9af48a47847e01,62bbfe8cbe1a341178826034,2022-06-29_09h26.43.501,Colour_Asymmetry_Pilot,2022.1.3,Win32,60.14314067,62bbe60bf3d75ef465d3e404,,,,,,,,,,,,,,,,,,,,,,,,,,,,,,,,,,,,,,,,,,,,,,,,,,,,,,,,,,,,,,,,,,,,,,,,,,,,,,,,,,,,,,,,,,,,,,,,,,,,,,,,,,,,,,,,,,,,,,,,,,,,,,,,,,,,,,,,,,,,,,,,,,,,,,,,,,,,,
0,70,70,48,1,,616d50472a9af48a47847e01,62bbfe8cbe1a341178826034,2022-06-29_09h26.43.501,Colour_Asymmetry_Pilot,2022.1.3,Win32,60.14314067,62bbe60bf3d75ef465d3e404,,,,,,,,,,,,,,,,,,,,,,,,,,,,,,,,,,,,,,,,,,,,,,,,,,,,,,,,,,,,,,,,,,,,,,,,,,,,,,,,,,,,,,,,,,,,,,,,,,,,,,,,,,,,,,,,,,,,,,,,,,,,,,,,,,,,,,,,,,,,,,,,,,,,,,,,,,,,,
0,71,71,41,1,,616d50472a9af48a47847e01,62bbfe8cbe1a341178826034,2022-06-29_09h26.43.501,Colour_Asymmetry_Pilot,2022.1.3,Win32,60.14314067,62bbe60bf3d75ef465d3e404,,,,,,,,,,,,,,,,,,,,,,,,,,,,,,,,,,,,,,,,,,,,,,,,,,,,,,,,,,,,,,,,,,,,,,,,,,,,,,,,,,,,,,,,,,,,,,,,,,,,,,,,,,,,,,,,,,,,,,,,,,,,,,,,,,,,,,,,,,,,,,,,,,,,,,,,,,,,,
0,72,72,33,1,,616d50472a9af48a47847e01,62bbfe8cbe1a341178826034,2022-06-29_09h26.43.501,Colour_Asymmetry_Pilot,2022.1.3,Win32,60.14314067,62bbe60bf3d75ef465d3e404,,,,,,,,,,,,,,,,,,,,,,,,,,,,,,,,,,,,,,,,,,,,,,,,,,,,,,,,,,,,,,,,,,,,,,,,,,,,,,,,,,,,,,,,,,,,,,,,,,,,,,,,,,,,,,,,,,,,,,,,,,,,,,,,,,,,,,,,,,,,,,,,,,,,,,,,,,,,,
0,73,73,34,1,,616d50472a9af48a47847e01,62bbfe8cbe1a341178826034,2022-06-29_09h26.43.501,Colour_Asymmetry_Pilot,2022.1.3,Win32,60.14314067,62bbe60bf3d75ef465d3e404,,,,,,,,,,,,,,,,,,,,,,,,,,,,,,,,,,,,,,,,,,,,,,,,,,,,,,,,,,,,,,,,,,,,,,,,,,,,,,,,,,,,,,,,,,,,,,,,,,,,,,,,,,,,,,,,,,,,,,,,,,,,,,,,,,,,,,,,,,,,,,,,,,,,,,,,,,,,,
0,74,74,91,1,,616d50472a9af48a47847e01,62bbfe8cbe1a341178826034,2022-06-29_09h26.43.501,Colour_Asymmetry_Pilot,2022.1.3,Win32,60.14314067,62bbe60bf3d75ef465d3e404,,,,,,,,,,,,,,,,,,,,,,,,,,,,,,,,,,,,,,,,,,,,,,,,,,,,,,,,,,,,,,,,,,,,,,,,,,,,,,,,,,,,,,,,,,,,,,,,,,,,,,,,,,,,,,,,,,,,,,,,,,,,,,,,,,,,,,,,,,,,,,,,,,,,,,,,,,,,,
0,75,75,29,1,,616d50472a9af48a47847e01,62bbfe8cbe1a341178826034,2022-06-29_09h26.43.501,Colour_Asymmetry_Pilot,2022.1.3,Win32,60.14314067,62bbe60bf3d75ef465d3e404,,,,,,,,,,,,,,,,,,,,,,,,,,,,,,,,,,,,,,,,,,,,,,,,,,,,,,,,,,,,,,,,,,,,,,,,,,,,,,,,,,,,,,,,,,,,,,,,,,,,,,,,,,,,,,,,,,,,,,,,,,,,,,,,,,,,,,,,,,,,,,,,,,,,,,,,,,,,,
0,76,76,72,1,,616d50472a9af48a47847e01,62bbfe8cbe1a341178826034,2022-06-29_09h26.43.501,Colour_Asymmetry_Pilot,2022.1.3,Win32,60.14314067,62bbe60bf3d75ef465d3e404,,,,,,,,,,,,,,,,,,,,,,,,,,,,,,,,,,,,,,,,,,,,,,,,,,,,,,,,,,,,,,,,,,,,,,,,,,,,,,,,,,,,,,,,,,,,,,,,,,,,,,,,,,,,,,,,,,,,,,,,,,,,,,,,,,,,,,,,,,,,,,,,,,,,,,,,,,,,,
0,77,77,69,1,,616d50472a9af48a47847e01,62bbfe8cbe1a341178826034,2022-06-29_09h26.43.501,Colour_Asymmetry_Pilot,2022.1.3,Win32,60.14314067,62bbe60bf3d75ef465d3e404,,,,,,,,,,,,,,,,,,,,,,,,,,,,,,,,,,,,,,,,,,,,,,,,,,,,,,,,,,,,,,,,,,,,,,,,,,,,,,,,,,,,,,,,,,,,,,,,,,,,,,,,,,,,,,,,,,,,,,,,,,,,,,,,,,,,,,,,,,,,,,,,,,,,,,,,,,,,,
0,78,78,11,1,,616d50472a9af48a47847e01,62bbfe8cbe1a341178826034,2022-06-29_09h26.43.501,Colour_Asymmetry_Pilot,2022.1.3,Win32,60.14314067,62bbe60bf3d75ef465d3e404,,,,,,,,,,,,,,,,,,,,,,,,,,,,,,,,,,,,,,,,,,,,,,,,,,,,,,,,,,,,,,,,,,,,,,,,,,,,,,,,,,,,,,,,,,,,,,,,,,,,,,,,,,,,,,,,,,,,,,,,,,,,,,,,,,,,,,,,,,,,,,,,,,,,,,,,,,,,,
0,79,79,28,1,,616d50472a9af48a47847e01,62bbfe8cbe1a341178826034,2022-06-29_09h26.43.501,Colour_Asymmetry_Pilot,2022.1.3,Win32,60.14314067,62bbe60bf3d75ef465d3e404,,,,,,,,,,,,,,,,,,,,,,,,,,,,,,,,,,,,,,,,,,,,,,,,,,,,,,,,,,,,,,,,,,,,,,,,,,,,,,,,,,,,,,,,,,,,,,,,,,,,,,,,,,,,,,,,,,,,,,,,,,,,,,,,,,,,,,,,,,,,,,,,,,,,,,,,,,,,,
0,80,80,22,1,,616d50472a9af48a47847e01,62bbfe8cbe1a341178826034,2022-06-29_09h26.43.501,Colour_Asymmetry_Pilot,2022.1.3,Win32,60.14314067,62bbe60bf3d75ef465d3e404,,,,,,,,,,,,,,,,,,,,,,,,,,,,,,,,,,,,,,,,,,,,,,,,,,,,,,,,,,,,,,,,,,,,,,,,,,,,,,,,,,,,,,,,,,,,,,,,,,,,,,,,,,,,,,,,,,,,,,,,,,,,,,,,,,,,,,,,,,,,,,,,,,,,,,,,,,,,,
0,81,81,0,1,,616d50472a9af48a47847e01,62bbfe8cbe1a341178826034,2022-06-29_09h26.43.501,Colour_Asymmetry_Pilot,2022.1.3,Win32,60.14314067,62bbe60bf3d75ef465d3e404,,,,,,,,,,,,,,,,,,,,,,,,,,,,,,,,,,,,,,,,,,,,,,,,,,,,,,,,,,,,,,,,,,,,,,,,,,,,,,,,,,,,,,,,,,,,,,,,,,,,,,,,,,,,,,,,,,,,,,,,,,,,,,,,,,,,,,,,,,,,,,,,,,,,,,,,,,,,,
0,82,82,67,1,,616d50472a9af48a47847e01,62bbfe8cbe1a341178826034,2022-06-29_09h26.43.501,Colour_Asymmetry_Pilot,2022.1.3,Win32,60.14314067,62bbe60bf3d75ef465d3e404,,,,,,,,,,,,,,,,,,,,,,,,,,,,,,,,,,,,,,,,,,,,,,,,,,,,,,,,,,,,,,,,,,,,,,,,,,,,,,,,,,,,,,,,,,,,,,,,,,,,,,,,,,,,,,,,,,,,,,,,,,,,,,,,,,,,,,,,,,,,,,,,,,,,,,,,,,,,,
0,83,83,18,1,,616d50472a9af48a47847e01,62bbfe8cbe1a341178826034,2022-06-29_09h26.43.501,Colour_Asymmetry_Pilot,2022.1.3,Win32,60.14314067,62bbe60bf3d75ef465d3e404,,,,,,,,,,,,,,,,,,,,,,,,,,,,,,,,,,,,,,,,,,,,,,,,,,,,,,,,,,,,,,,,,,,,,,,,,,,,,,,,,,,,,,,,,,,,,,,,,,,,,,,,,,,,,,,,,,,,,,,,,,,,,,,,,,,,,,,,,,,,,,,,,,,,,,,,,,,,,
0,84,84,82,1,,616d50472a9af48a47847e01,62bbfe8cbe1a341178826034,2022-06-29_09h26.43.501,Colour_Asymmetry_Pilot,2022.1.3,Win32,60.14314067,62bbe60bf3d75ef465d3e404,,,,,,,,,,,,,,,,,,,,,,,,,,,,,,,,,,,,,,,,,,,,,,,,,,,,,,,,,,,,,,,,,,,,,,,,,,,,,,,,,,,,,,,,,,,,,,,,,,,,,,,,,,,,,,,,,,,,,,,,,,,,,,,,,,,,,,,,,,,,,,,,,,,,,,,,,,,,,
0,85,85,65,1,,616d50472a9af48a47847e01,62bbfe8cbe1a341178826034,2022-06-29_09h26.43.501,Colour_Asymmetry_Pilot,2022.1.3,Win32,60.14314067,62bbe60bf3d75ef465d3e404,,,,,,,,,,,,,,,,,,,,,,,,,,,,,,,,,,,,,,,,,,,,,,,,,,,,,,,,,,,,,,,,,,,,,,,,,,,,,,,,,,,,,,,,,,,,,,,,,,,,,,,,,,,,,,,,,,,,,,,,,,,,,,,,,,,,,,,,,,,,,,,,,,,,,,,,,,,,,
0,86,86,57,1,,616d50472a9af48a47847e01,62bbfe8cbe1a341178826034,2022-06-29_09h26.43.501,Colour_Asymmetry_Pilot,2022.1.3,Win32,60.14314067,62bbe60bf3d75ef465d3e404,,,,,,,,,,,,,,,,,,,,,,,,,,,,,,,,,,,,,,,,,,,,,,,,,,,,,,,,,,,,,,,,,,,,,,,,,,,,,,,,,,,,,,,,,,,,,,,,,,,,,,,,,,,,,,,,,,,,,,,,,,,,,,,,,,,,,,,,,,,,,,,,,,,,,,,,,,,,,
0,87,87,45,1,,616d50472a9af48a47847e01,62bbfe8cbe1a341178826034,2022-06-29_09h26.43.501,Colour_Asymmetry_Pilot,2022.1.3,Win32,60.14314067,62bbe60bf3d75ef465d3e404,,,,,,,,,,,,,,,,,,,,,,,,,,,,,,,,,,,,,,,,,,,,,,,,,,,,,,,,,,,,,,,,,,,,,,,,,,,,,,,,,,,,,,,,,,,,,,,,,,,,,,,,,,,,,,,,,,,,,,,,,,,,,,,,,,,,,,,,,,,,,,,,,,,,,,,,,,,,,
0,88,88,38,1,,616d50472a9af48a47847e01,62bbfe8cbe1a341178826034,2022-06-29_09h26.43.501,Colour_Asymmetry_Pilot,2022.1.3,Win32,60.14314067,62bbe60bf3d75ef465d3e404,,,,,,,,,,,,,,,,,,,,,,,,,,,,,,,,,,,,,,,,,,,,,,,,,,,,,,,,,,,,,,,,,,,,,,,,,,,,,,,,,,,,,,,,,,,,,,,,,,,,,,,,,,,,,,,,,,,,,,,,,,,,,,,,,,,,,,,,,,,,,,,,,,,,,,,,,,,,,
0,89,89,77,1,,616d50472a9af48a47847e01,62bbfe8cbe1a341178826034,2022-06-29_09h26.43.501,Colour_Asymmetry_Pilot,2022.1.3,Win32,60.14314067,62bbe60bf3d75ef465d3e404,,,,,,,,,,,,,,,,,,,,,,,,,,,,,,,,,,,,,,,,,,,,,,,,,,,,,,,,,,,,,,,,,,,,,,,,,,,,,,,,,,,,,,,,,,,,,,,,,,,,,,,,,,,,,,,,,,,,,,,,,,,,,,,,,,,,,,,,,,,,,,,,,,,,,,,,,,,,,
0,90,90,52,1,,616d50472a9af48a47847e01,62bbfe8cbe1a341178826034,2022-06-29_09h26.43.501,Colour_Asymmetry_Pilot,2022.1.3,Win32,60.14314067,62bbe60bf3d75ef465d3e404,,,,,,,,,,,,,,,,,,,,,,,,,,,,,,,,,,,,,,,,,,,,,,,,,,,,,,,,,,,,,,,,,,,,,,,,,,,,,,,,,,,,,,,,,,,,,,,,,,,,,,,,,,,,,,,,,,,,,,,,,,,,,,,,,,,,,,,,,,,,,,,,,,,,,,,,,,,,,
0,91,91,5,1,,616d50472a9af48a47847e01,62bbfe8cbe1a341178826034,2022-06-29_09h26.43.501,Colour_Asymmetry_Pilot,2022.1.3,Win32,60.14314067,62bbe60bf3d75ef465d3e404,,,,,,,,,,,,,,,,,,,,,,,,,,,,,,,,,,,,,,,,,,,,,,,,,,,,,,,,,,,,,,,,,,,,,,,,,,,,,,,,,,,,,,,,,,,,,,,,,,,,,,,,,,,,,,,,,,,,,,,,,,,,,,,,,,,,,,,,,,,,,,,,,,,,,,,,,,,,,
0,92,92,49,1,,616d50472a9af48a47847e01,62bbfe8cbe1a341178826034,2022-06-29_09h26.43.501,Colour_Asymmetry_Pilot,2022.1.3,Win32,60.14314067,62bbe60bf3d75ef465d3e404,,,,,,,,,,,,,,,,,,,,,,,,,,,,,,,,,,,,,,,,,,,,,,,,,,,,,,,,,,,,,,,,,,,,,,,,,,,,,,,,,,,,,,,,,,,,,,,,,,,,,,,,,,,,,,,,,,,,,,,,,,,,,,,,,,,,,,,,,,,,,,,,,,,,,,,,,,,,,
,,,,,,616d50472a9af48a47847e01,62bbfe8cbe1a341178826034,2022-06-29_09h26.43.501,Colour_Asymmetry_Pilot,2022.1.3,Win32,60.14314067,62bbe60bf3d75ef465d3e404,0,0,0,18,1,twoone,,,,,,,,,,,,,,,,,,,,,,,,,,,,,,,,,,,,,,,,,,,,,,,,,,,,,,,,,,,,,,,,,,,,,,,,,,,,,,,,,,,,,,,,,,,,,,,,,,,,,,,,,,,,,,,,,,,,,,,,,,,,,,,,,,,,,,,,,,,,,,,,,,,,,,,
,,,,,,616d50472a9af48a47847e01,62bbfe8cbe1a341178826034,2022-06-29_09h26.43.501,Colour_Asymmetry_Pilot,2022.1.3,Win32,60.14314067,62bbe60bf3d75ef465d3e404,0,1,1,9,1,onethree,,,,,,,,,,,,,,,,,,,,,,,,,,,,,,,,,,,,,,,,,,,,,,,,,,,,,,,,,,,,,,,,,,,,,,,,,,,,,,,,,,,,,,,,,,,,,,,,,,,,,,,,,,,,,,,,,,,,,,,,,,,,,,,,,,,,,,,,,,,,,,,,,,,,,,,
,,,,,,616d50472a9af48a47847e01,62bbfe8cbe1a341178826034,2022-06-29_09h26.43.501,Colour_Asymmetry_Pilot,2022.1.3,Win32,60.14314067,62bbe60bf3d75ef465d3e404,0,2,2,61,1,threefour,,,,,,,,,,,,,,,,,,,,,,,,,,,,,,,,,,,,,,,,,,,,,,,,,,,,,,,,,,,,,,,,,,,,,,,,,,,,,,,,,,,,,,,,,,,,,,,,,,,,,,,,,,,,,,,,,,,,,,,,,,,,,,,,,,,,,,,,,,,,,,,,,,,,,,,
,,,,,,616d50472a9af48a47847e01,62bbfe8cbe1a341178826034,2022-06-29_09h26.43.501,Colour_Asymmetry_Pilot,2022.1.3,Win32,60.14314067,62bbe60bf3d75ef465d3e404,0,3,3,159,1,fourthree,,,,,,,,,,,,,,,,,,,,,,,,,,,,,,,,,,,,,,,,,,,,,,,,,,,,,,,,,,,,,,,,,,,,,,,,,,,,,,,,,,,,,,,,,,,,,,,,,,,,,,,,,,,,,,,,,,,,,,,,,,,,,,,,,,,,,,,,,,,,,,,,,,,,,,,
,,,,,,616d50472a9af48a47847e01,62bbfe8cbe1a341178826034,2022-06-29_09h26.43.501,Colour_Asymmetry_Pilot,2022.1.3,Win32,60.14314067,62bbe60bf3d75ef465d3e404,0,4,4,40,1,onetwo,,,,,,,,,,,,,,,,,,,,,,,,,,,,,,,,,,,,,,,,,,,,,,,,,,,,,,,,,,,,,,,,,,,,,,,,,,,,,,,,,,,,,,,,,,,,,,,,,,,,,,,,,,,,,,,,,,,,,,,,,,,,,,,,,,,,,,,,,,,,,,,,,,,,,,,
,,,,,,616d50472a9af48a47847e01,62bbfe8cbe1a341178826034,2022-06-29_09h26.43.501,Colour_Asymmetry_Pilot,2022.1.3,Win32,60.14314067,62bbe60bf3d75ef465d3e404,0,5,5,17,1,onethree,,,,,,,,,,,,,,,,,,,,,,,,,,,,,,,,,,,,,,,,,,,,,,,,,,,,,,,,,,,,,,,,,,,,,,,,,,,,,,,,,,,,,,,,,,,,,,,,,,,,,,,,,,,,,,,,,,,,,,,,,,,,,,,,,,,,,,,,,,,,,,,,,,,,,,,
,,,,,,616d50472a9af48a47847e01,62bbfe8cbe1a341178826034,2022-06-29_09h26.43.501,Colour_Asymmetry_Pilot,2022.1.3,Win32,60.14314067,62bbe60bf3d75ef465d3e404,0,6,6,151,1,fourthree,,,,,,,,,,,,,,,,,,,,,,,,,,,,,,,,,,,,,,,,,,,,,,,,,,,,,,,,,,,,,,,,,,,,,,,,,,,,,,,,,,,,,,,,,,,,,,,,,,,,,,,,,,,,,,,,,,,,,,,,,,,,,,,,,,,,,,,,,,,,,,,,,,,,,,,
,,,,,,616d50472a9af48a47847e01,62bbfe8cbe1a341178826034,2022-06-29_09h26.43.501,Colour_Asymmetry_Pilot,2022.1.3,Win32,60.14314067,62bbe60bf3d75ef465d3e404,0,7,7,125,1,threefour,,,,,,,,,,,,,,,,,,,,,,,,,,,,,,,,,,,,,,,,,,,,,,,,,,,,,,,,,,,,,,,,,,,,,,,,,,,,,,,,,,,,,,,,,,,,,,,,,,,,,,,,,,,,,,,,,,,,,,,,,,,,,,,,,,,,,,,,,,,,,,,,,,,,,,,
,,,,,,616d50472a9af48a47847e01,62bbfe8cbe1a341178826034,2022-06-29_09h26.43.501,Colour_Asymmetry_Pilot,2022.1.3,Win32,60.14314067,62bbe60bf3d75ef465d3e404,0,8,8,8,1,onetwo,,,,,,,,,,,,,,,,,,,,,,,,,,,,,,,,,,,,,,,,,,,,,,,,,,,,,,,,,,,,,,,,,,,,,,,,,,,,,,,,,,,,,,,,,,,,,,,,,,,,,,,,,,,,,,,,,,,,,,,,,,,,,,,,,,,,,,,,,,,,,,,,,,,,,,,
,,,,,,616d50472a9af48a47847e01,62bbfe8cbe1a341178826034,2022-06-29_09h26.43.501,Colour_Asymmetry_Pilot,2022.1.3,Win32,60.14314067,62bbe60bf3d75ef465d3e404,0,9,9,64,1,onetwo,,,,,,,,,,,,,,,,,,,,,,,,,,,,,,,,,,,,,,,,,,,,,,,,,,,,,,,,,,,,,,,,,,,,,,,,,,,,,,,,,,,,,,,,,,,,,,,,,,,,,,,,,,,,,,,,,,,,,,,,,,,,,,,,,,,,,,,,,,,,,,,,,,,,,,,
,,,,,,616d50472a9af48a47847e01,62bbfe8cbe1a341178826034,2022-06-29_09h26.43.501,Colour_Asymmetry_Pilot,2022.1.3,Win32,60.14314067,62bbe60bf3d75ef465d3e404,0,10,10,67,1,twofour,,,,,,,,,,,,,,,,,,,,,,,,,,,,,,,,,,,,,,,,,,,,,,,,,,,,,,,,,,,,,,,,,,,,,,,,,,,,,,,,,,,,,,,,,,,,,,,,,,,,,,,,,,,,,,,,,,,,,,,,,,,,,,,,,,,,,,,,,,,,,,,,,,,,,,,
,,,,,,616d50472a9af48a47847e01,62bbfe8cbe1a341178826034,2022-06-29_09h26.43.501,Colour_Asymmetry_Pilot,2022.1.3,Win32,60.14314067,62bbe60bf3d75ef465d3e404,0,11,11,129,1,onethree,,,,,,,,,,,,,,,,,,,,,,,,,,,,,,,,,,,,,,,,,,,,,,,,,,,,,,,,,,,,,,,,,,,,,,,,,,,,,,,,,,,,,,,,,,,,,,,,,,,,,,,,,,,,,,,,,,,,,,,,,,,,,,,,,,,,,,,,,,,,,,,,,,,,,,,
,,,,,,616d50472a9af48a47847e01,62bbfe8cbe1a341178826034,2022-06-29_09h26.43.501,Colour_Asymmetry_Pilot,2022.1.3,Win32,60.14314067,62bbe60bf3d75ef465d3e404,0,12,12,124,1,threeone,,,,,,,,,,,,,,,,,,,,,,,,,,,,,,,,,,,,,,,,,,,,,,,,,,,,,,,,,,,,,,,,,,,,,,,,,,,,,,,,,,,,,,,,,,,,,,,,,,,,,,,,,,,,,,,,,,,,,,,,,,,,,,,,,,,,,,,,,,,,,,,,,,,,,,,
,,,,,,616d50472a9af48a47847e01,62bbfe8cbe1a341178826034,2022-06-29_09h26.43.501,Colour_Asymmetry_Pilot,2022.1.3,Win32,60.14314067,62bbe60bf3d75ef465d3e404,0,13,13,118,1,fourtwo,,,,,,,,,,,,,,,,,,,,,,,,,,,,,,,,,,,,,,,,,,,,,,,,,,,,,,,,,,,,,,,,,,,,,,,,,,,,,,,,,,,,,,,,,,,,,,,,,,,,,,,,,,,,,,,,,,,,,,,,,,,,,,,,,,,,,,,,,,,,,,,,,,,,,,,
,,,,,,616d50472a9af48a47847e01,62bbfe8cbe1a341178826034,2022-06-29_09h26.43.501,Colour_Asymmetry_Pilot,2022.1.3,Win32,60.14314067,62bbe60bf3d75ef465d3e404,0,14,14,84,1,threeone,,,,,,,,,,,,,,,,,,,,,,,,,,,,,,,,,,,,,,,,,,,,,,,,,,,,,,,,,,,,,,,,,,,,,,,,,,,,,,,,,,,,,,,,,,,,,,,,,,,,,,,,,,,,,,,,,,,,,,,,,,,,,,,,,,,,,,,,,,,,,,,,,,,,,,,
,,,,,,616d50472a9af48a47847e01,62bbfe8cbe1a341178826034,2022-06-29_09h26.43.501,Colour_Asymmetry_Pilot,2022.1.3,Win32,60.14314067,62bbe60bf3d75ef465d3e404,0,15,15,92,1,threeone,,,,,,,,,,,,,,,,,,,,,,,,,,,,,,,,,,,,,,,,,,,,,,,,,,,,,,,,,,,,,,,,,,,,,,,,,,,,,,,,,,,,,,,,,,,,,,,,,,,,,,,,,,,,,,,,,,,,,,,,,,,,,,,,,,,,,,,,,,,,,,,,,,,,,,,
,,,,,,616d50472a9af48a47847e01,62bbfe8cbe1a341178826034,2022-06-29_09h26.43.501,Colour_Asymmetry_Pilot,2022.1.3,Win32,60.14314067,62bbe60bf3d75ef465d3e404,0,16,16,85,1,threefour,,,,,,,,,,,,,,,,,,,,,,,,,,,,,,,,,,,,,,,,,,,,,,,,,,,,,,,,,,,,,,,,,,,,,,,,,,,,,,,,,,,,,,,,,,,,,,,,,,,,,,,,,,,,,,,,,,,,,,,,,,,,,,,,,,,,,,,,,,,,,,,,,,,,,,,
,,,,,,616d50472a9af48a47847e01,62bbfe8cbe1a341178826034,2022-06-29_09h26.43.501,Colour_Asymmetry_Pilot,2022.1.3,Win32,60.14314067,62bbe60bf3d75ef465d3e404,0,17,17,37,1,threefour,,,,,,,,,,,,,,,,,,,,,,,,,,,,,,,,,,,,,,,,,,,,,,,,,,,,,,,,,,,,,,,,,,,,,,,,,,,,,,,,,,,,,,,,,,,,,,,,,,,,,,,,,,,,,,,,,,,,,,,,,,,,,,,,,,,,,,,,,,,,,,,,,,,,,,,
,,,,,,616d50472a9af48a47847e01,62bbfe8cbe1a341178826034,2022-06-29_09h26.43.501,Colour_Asymmetry_Pilot,2022.1.3,Win32,60.14314067,62bbe60bf3d75ef465d3e404,0,18,18,30,1,fourtwo,,,,,,,,,,,,,,,,,,,,,,,,,,,,,,,,,,,,,,,,,,,,,,,,,,,,,,,,,,,,,,,,,,,,,,,,,,,,,,,,,,,,,,,,,,,,,,,,,,,,,,,,,,,,,,,,,,,,,,,,,,,,,,,,,,,,,,,,,,,,,,,,,,,,,,,
,,,,,,616d50472a9af48a47847e01,62bbfe8cbe1a341178826034,2022-06-29_09h26.43.501,Colour_Asymmetry_Pilot,2022.1.3,Win32,60.14314067,62bbe60bf3d75ef465d3e404,0,19,19,60,1,threeone,,,,,,,,,,,,,,,,,,,,,,,,,,,,,,,,,,,,,,,,,,,,,,,,,,,,,,,,,,,,,,,,,,,,,,,,,,,,,,,,,,,,,,,,,,,,,,,,,,,,,,,,,,,,,,,,,,,,,,,,,,,,,,,,,,,,,,,,,,,,,,,,,,,,,,,
,,,,,,616d50472a9af48a47847e01,62bbfe8cbe1a341178826034,2022-06-29_09h26.43.501,Colour_Asymmetry_Pilot,2022.1.3,Win32,60.14314067,62bbe60bf3d75ef465d3e404,0,20,20,74,1,twoone,,,,,,,,,,,,,,,,,,,,,,,,,,,,,,,,,,,,,,,,,,,,,,,,,,,,,,,,,,,,,,,,,,,,,,,,,,,,,,,,,,,,,,,,,,,,,,,,,,,,,,,,,,,,,,,,,,,,,,,,,,,,,,,,,,,,,,,,,,,,,,,,,,,,,,,
,,,,,,616d50472a9af48a47847e01,62bbfe8cbe1a341178826034,2022-06-29_09h26.43.501,Colour_Asymmetry_Pilot,2022.1.3,Win32,60.14314067,62bbe60bf3d75ef465d3e404,0,21,21,99,1,twofour,,,,,,,,,,,,,,,,,,,,,,,,,,,,,,,,,,,,,,,,,,,,,,,,,,,,,,,,,,,,,,,,,,,,,,,,,,,,,,,,,,,,,,,,,,,,,,,,,,,,,,,,,,,,,,,,,,,,,,,,,,,,,,,,,,,,,,,,,,,,,,,,,,,,,,,
,,,,,,616d50472a9af48a47847e01,62bbfe8cbe1a341178826034,2022-06-29_09h26.43.501,Colour_Asymmetry_Pilot,2022.1.3,Win32,60.14314067,62bbe60bf3d75ef465d3e404,0,22,22,34,1,twoone,,,,,,,,,,,,,,,,,,,,,,,,,,,,,,,,,,,,,,,,,,,,,,,,,,,,,,,,,,,,,,,,,,,,,,,,,,,,,,,,,,,,,,,,,,,,,,,,,,,,,,,,,,,,,,,,,,,,,,,,,,,,,,,,,,,,,,,,,,,,,,,,,,,,,,,
,,,,,,616d50472a9af48a47847e01,62bbfe8cbe1a341178826034,2022-06-29_09h26.43.501,Colour_Asymmetry_Pilot,2022.1.3,Win32,60.14314067,62bbe60bf3d75ef465d3e404,0,23,23,70,1,fourtwo,,,,,,,,,,,,,,,,,,,,,,,,,,,,,,,,,,,,,,,,,,,,,,,,,,,,,,,,,,,,,,,,,,,,,,,,,,,,,,,,,,,,,,,,,,,,,,,,,,,,,,,,,,,,,,,,,,,,,,,,,,,,,,,,,,,,,,,,,,,,,,,,,,,,,,,
,,,,,,616d50472a9af48a47847e01,62bbfe8cbe1a341178826034,2022-06-29_09h26.43.501,Colour_Asymmetry_Pilot,2022.1.3,Win32,60.14314067,62bbe60bf3d75ef465d3e404,0,24,24,102,1,fourtwo,,,,,,,,,,,,,,,,,,,,,,,,,,,,,,,,,,,,,,,,,,,,,,,,,,,,,,,,,,,,,,,,,,,,,,,,,,,,,,,,,,,,,,,,,,,,,,,,,,,,,,,,,,,,,,,,,,,,,,,,,,,,,,,,,,,,,,,,,,,,,,,,,,,,,,,
,,,,,,616d50472a9af48a47847e01,62bbfe8cbe1a341178826034,2022-06-29_09h26.43.501,Colour_Asymmetry_Pilot,2022.1.3,Win32,60.14314067,62bbe60bf3d75ef465d3e404,0,25,25,71,1,fourthree,,,,,,,,,,,,,,,,,,,,,,,,,,,,,,,,,,,,,,,,,,,,,,,,,,,,,,,,,,,,,,,,,,,,,,,,,,,,,,,,,,,,,,,,,,,,,,,,,,,,,,,,,,,,,,,,,,,,,,,,,,,,,,,,,,,,,,,,,,,,,,,,,,,,,,,
,,,,,,616d50472a9af48a47847e01,62bbfe8cbe1a341178826034,2022-06-29_09h26.43.501,Colour_Asymmetry_Pilot,2022.1.3,Win32,60.14314067,62bbe60bf3d75ef465d3e404,0,26,26,140,1,threeone,,,,,,,,,,,,,,,,,,,,,,,,,,,,,,,,,,,,,,,,,,,,,,,,,,,,,,,,,,,,,,,,,,,,,,,,,,,,,,,,,,,,,,,,,,,,,,,,,,,,,,,,,,,,,,,,,,,,,,,,,,,,,,,,,,,,,,,,,,,,,,,,,,,,,,,
,,,,,,616d50472a9af48a47847e01,62bbfe8cbe1a341178826034,2022-06-29_09h26.43.501,Colour_Asymmetry_Pilot,2022.1.3,Win32,60.14314067,62bbe60bf3d75ef465d3e404,0,27,27,127,1,fourthree,,,,,,,,,,,,,,,,,,,,,,,,,,,,,,,,,,,,,,,,,,,,,,,,,,,,,,,,,,,,,,,,,,,,,,,,,,,,,,,,,,,,,,,,,,,,,,,,,,,,,,,,,,,,,,,,,,,,,,,,,,,,,,,,,,,,,,,,,,,,,,,,,,,,,,,
,,,,,,616d50472a9af48a47847e01,62bbfe8cbe1a341178826034,2022-06-29_09h26.43.501,Colour_Asymmetry_Pilot,2022.1.3,Win32,60.14314067,62bbe60bf3d75ef465d3e404,0,28,28,32,1,onetwo,,,,,,,,,,,,,,,,,,,,,,,,,,,,,,,,,,,,,,,,,,,,,,,,,,,,,,,,,,,,,,,,,,,,,,,,,,,,,,,,,,,,,,,,,,,,,,,,,,,,,,,,,,,,,,,,,,,,,,,,,,,,,,,,,,,,,,,,,,,,,,,,,,,,,,,
,,,,,,616d50472a9af48a47847e01,62bbfe8cbe1a341178826034,2022-06-29_09h26.43.501,Colour_Asymmetry_Pilot,2022.1.3,Win32,60.14314067,62bbe60bf3d75ef465d3e404,0,29,29,78,1,fourtwo,,,,,,,,,,,,,,,,,,,,,,,,,,,,,,,,,,,,,,,,,,,,,,,,,,,,,,,,,,,,,,,,,,,,,,,,,,,,,,,,,,,,,,,,,,,,,,,,,,,,,,,,,,,,,,,,,,,,,,,,,,,,,,,,,,,,,,,,,,,,,,,,,,,,,,,
,,,,,,616d50472a9af48a47847e01,62bbfe8cbe1a341178826034,2022-06-29_09h26.43.501,Colour_Asymmetry_Pilot,2022.1.3,Win32,60.14314067,62bbe60bf3d75ef465d3e404,0,30,30,137,1,onethree,,,,,,,,,,,,,,,,,,,,,,,,,,,,,,,,,,,,,,,,,,,,,,,,,,,,,,,,,,,,,,,,,,,,,,,,,,,,,,,,,,,,,,,,,,,,,,,,,,,,,,,,,,,,,,,,,,,,,,,,,,,,,,,,,,,,,,,,,,,,,,,,,,,,,,,
,,,,,,616d50472a9af48a47847e01,62bbfe8cbe1a341178826034,2022-06-29_09h26.43.501,Colour_Asymmetry_Pilot,2022.1.3,Win32,60.14314067,62bbe60bf3d75ef465d3e404,0,31,31,42,1,twoone,,,,,,,,,,,,,,,,,,,,,,,,,,,,,,,,,,,,,,,,,,,,,,,,,,,,,,,,,,,,,,,,,,,,,,,,,,,,,,,,,,,,,,,,,,,,,,,,,,,,,,,,,,,,,,,,,,,,,,,,,,,,,,,,,,,,,,,,,,,,,,,,,,,,,,,
,,,,,,616d50472a9af48a47847e01,62bbfe8cbe1a341178826034,2022-06-29_09h26.43.501,Colour_Asymmetry_Pilot,2022.1.3,Win32,60.14314067,62bbe60bf3d75ef465d3e404,0,32,32,50,1,twoone,,,,,,,,,,,,,,,,,,,,,,,,,,,,,,,,,,,,,,,,,,,,,,,,,,,,,,,,,,,,,,,,,,,,,,,,,,,,,,,,,,,,,,,,,,,,,,,,,,,,,,,,,,,,,,,,,,,,,,,,,,,,,,,,,,,,,,,,,,,,,,,,,,,,,,,
,,,,,,616d50472a9af48a47847e01,62bbfe8cbe1a341178826034,2022-06-29_09h26.43.501,Colour_Asymmetry_Pilot,2022.1.3,Win32,60.14314067,62bbe60bf3d75ef465d3e404,0,33,33,145,1,onethree,,,,,,,,,,,,,,,,,,,,,,,,,,,,,,,,,,,,,,,,,,,,,,,,,,,,,,,,,,,,,,,,,,,,,,,,,,,,,,,,,,,,,,,,,,,,,,,,,,,,,,,,,,,,,,,,,,,,,,,,,,,,,,,,,,,,,,,,,,,,,,,,,,,,,,,
,,,,,,616d50472a9af48a47847e01,62bbfe8cbe1a341178826034,2022-06-29_09h26.43.501,Colour_Asymmetry_Pilot,2022.1.3,Win32,60.14314067,62bbe60bf3d75ef465d3e404,0,34,34,21,1,threefour,,,,,,,,,,,,,,,,,,,,,,,,,,,,,,,,,,,,,,,,,,,,,,,,,,,,,,,,,,,,,,,,,,,,,,,,,,,,,,,,,,,,,,,,,,,,,,,,,,,,,,,,,,,,,,,,,,,,,,,,,,,,,,,,,,,,,,,,,,,,,,,,,,,,,,,
,,,,,,616d50472a9af48a47847e01,62bbfe8cbe1a341178826034,2022-06-29_09h26.43.501,Colour_Asymmetry_Pilot,2022.1.3,Win32,60.14314067,62bbe60bf3d75ef465d3e404,0,35,35,109,1,threefour,,,,,,,,,,,,,,,,,,,,,,,,,,,,,,,,,,,,,,,,,,,,,,,,,,,,,,,,,,,,,,,,,,,,,,,,,,,,,,,,,,,,,,,,,,,,,,,,,,,,,,,,,,,,,,,,,,,,,,,,,,,,,,,,,,,,,,,,,,,,,,,,,,,,,,,
,,,,,,616d50472a9af48a47847e01,62bbfe8cbe1a341178826034,2022-06-29_09h26.43.501,Colour_Asymmetry_Pilot,2022.1.3,Win32,60.14314067,62bbe60bf3d75ef465d3e404,0,36,36,128,1,onetwo,,,,,,,,,,,,,,,,,,,,,,,,,,,,,,,,,,,,,,,,,,,,,,,,,,,,,,,,,,,,,,,,,,,,,,,,,,,,,,,,,,,,,,,,,,,,,,,,,,,,,,,,,,,,,,,,,,,,,,,,,,,,,,,,,,,,,,,,,,,,,,,,,,,,,,,
,,,,,,616d50472a9af48a47847e01,62bbfe8cbe1a341178826034,2022-06-29_09h26.43.501,Colour_Asymmetry_Pilot,2022.1.3,Win32,60.14314067,62bbe60bf3d75ef465d3e404,0,37,37,25,1,onethree,,,,,,,,,,,,,,,,,,,,,,,,,,,,,,,,,,,,,,,,,,,,,,,,,,,,,,,,,,,,,,,,,,,,,,,,,,,,,,,,,,,,,,,,,,,,,,,,,,,,,,,,,,,,,,,,,,,,,,,,,,,,,,,,,,,,,,,,,,,,,,,,,,,,,,,
,,,,,,616d50472a9af48a47847e01,62bbfe8cbe1a341178826034,2022-06-29_09h26.43.501,Colour_Asymmetry_Pilot,2022.1.3,Win32,60.14314067,62bbe60bf3d75ef465d3e404,0,38,38,23,1,fourthree,,,,,,,,,,,,,,,,,,,,,,,,,,,,,,,,,,,,,,,,,,,,,,,,,,,,,,,,,,,,,,,,,,,,,,,,,,,,,,,,,,,,,,,,,,,,,,,,,,,,,,,,,,,,,,,,,,,,,,,,,,,,,,,,,,,,,,,,,,,,,,,,,,,,,,,
,,,,,,616d50472a9af48a47847e01,62bbfe8cbe1a341178826034,2022-06-29_09h26.43.501,Colour_Asymmetry_Pilot,2022.1.3,Win32,60.14314067,62bbe60bf3d75ef465d3e404,0,39,39,41,1,onethree,,,,,,,,,,,,,,,,,,,,,,,,,,,,,,,,,,,,,,,,,,,,,,,,,,,,,,,,,,,,,,,,,,,,,,,,,,,,,,,,,,,,,,,,,,,,,,,,,,,,,,,,,,,,,,,,,,,,,,,,,,,,,,,,,,,,,,,,,,,,,,,,,,,,,,,
,,,,,,616d50472a9af48a47847e01,62bbfe8cbe1a341178826034,2022-06-29_09h26.43.501,Colour_Asymmetry_Pilot,2022.1.3,Win32,60.14314067,62bbe60bf3d75ef465d3e404,0,40,40,87,1,fourthree,,,,,,,,,,,,,,,,,,,,,,,,,,,,,,,,,,,,,,,,,,,,,,,,,,,,,,,,,,,,,,,,,,,,,,,,,,,,,,,,,,,,,,,,,,,,,,,,,,,,,,,,,,,,,,,,,,,,,,,,,,,,,,,,,,,,,,,,,,,,,,,,,,,,,,,
,,,,,,616d50472a9af48a47847e01,62bbfe8cbe1a341178826034,2022-06-29_09h26.43.501,Colour_Asymmetry_Pilot,2022.1.3,Win32,60.14314067,62bbe60bf3d75ef465d3e404,0,41,41,20,1,threeone,,,,,,,,,,,,,,,,,,,,,,,,,,,,,,,,,,,,,,,,,,,,,,,,,,,,,,,,,,,,,,,,,,,,,,,,,,,,,,,,,,,,,,,,,,,,,,,,,,,,,,,,,,,,,,,,,,,,,,,,,,,,,,,,,,,,,,,,,,,,,,,,,,,,,,,
,,,,,,616d50472a9af48a47847e01,62bbfe8cbe1a341178826034,2022-06-29_09h26.43.501,Colour_Asymmetry_Pilot,2022.1.3,Win32,60.14314067,62bbe60bf3d75ef465d3e404,0,42,42,31,1,fourthree,,,,,,,,,,,,,,,,,,,,,,,,,,,,,,,,,,,,,,,,,,,,,,,,,,,,,,,,,,,,,,,,,,,,,,,,,,,,,,,,,,,,,,,,,,,,,,,,,,,,,,,,,,,,,,,,,,,,,,,,,,,,,,,,,,,,,,,,,,,,,,,,,,,,,,,
,,,,,,616d50472a9af48a47847e01,62bbfe8cbe1a341178826034,2022-06-29_09h26.43.501,Colour_Asymmetry_Pilot,2022.1.3,Win32,60.14314067,62bbe60bf3d75ef465d3e404,0,43,43,52,1,threeone,,,,,,,,,,,,,,,,,,,,,,,,,,,,,,,,,,,,,,,,,,,,,,,,,,,,,,,,,,,,,,,,,,,,,,,,,,,,,,,,,,,,,,,,,,,,,,,,,,,,,,,,,,,,,,,,,,,,,,,,,,,,,,,,,,,,,,,,,,,,,,,,,,,,,,,
,,,,,,616d50472a9af48a47847e01,62bbfe8cbe1a341178826034,2022-06-29_09h26.43.501,Colour_Asymmetry_Pilot,2022.1.3,Win32,60.14314067,62bbe60bf3d75ef465d3e404,0,44,44,126,1,fourtwo,,,,,,,,,,,,,,,,,,,,,,,,,,,,,,,,,,,,,,,,,,,,,,,,,,,,,,,,,,,,,,,,,,,,,,,,,,,,,,,,,,,,,,,,,,,,,,,,,,,,,,,,,,,,,,,,,,,,,,,,,,,,,,,,,,,,,,,,,,,,,,,,,,,,,,,
,,,,,,616d50472a9af48a47847e01,62bbfe8cbe1a341178826034,2022-06-29_09h26.43.501,Colour_Asymmetry_Pilot,2022.1.3,Win32,60.14314067,62bbe60bf3d75ef465d3e404,0,45,45,89,1,onethree,,,,,,,,,,,,,,,,,,,,,,,,,,,,,,,,,,,,,,,,,,,,,,,,,,,,,,,,,,,,,,,,,,,,,,,,,,,,,,,,,,,,,,,,,,,,,,,,,,,,,,,,,,,,,,,,,,,,,,,,,,,,,,,,,,,,,,,,,,,,,,,,,,,,,,,
,,,,,,616d50472a9af48a47847e01,62bbfe8cbe1a341178826034,2022-06-29_09h26.43.501,Colour_Asymmetry_Pilot,2022.1.3,Win32,60.14314067,62bbe60bf3d75ef465d3e404,0,46,46,120,1,onetwo,,,,,,,,,,,,,,,,,,,,,,,,,,,,,,,,,,,,,,,,,,,,,,,,,,,,,,,,,,,,,,,,,,,,,,,,,,,,,,,,,,,,,,,,,,,,,,,,,,,,,,,,,,,,,,,,,,,,,,,,,,,,,,,,,,,,,,,,,,,,,,,,,,,,,,,
,,,,,,616d50472a9af48a47847e01,62bbfe8cbe1a341178826034,2022-06-29_09h26.43.501,Colour_Asymmetry_Pilot,2022.1.3,Win32,60.14314067,62bbe60bf3d75ef465d3e404,0,47,47,13,1,threefour,,,,,,,,,,,,,,,,,,,,,,,,,,,,,,,,,,,,,,,,,,,,,,,,,,,,,,,,,,,,,,,,,,,,,,,,,,,,,,,,,,,,,,,,,,,,,,,,,,,,,,,,,,,,,,,,,,,,,,,,,,,,,,,,,,,,,,,,,,,,,,,,,,,,,,,
,,,,,,616d50472a9af48a47847e01,62bbfe8cbe1a341178826034,2022-06-29_09h26.43.501,Colour_Asymmetry_Pilot,2022.1.3,Win32,60.14314067,62bbe60bf3d75ef465d3e404,0,48,48,101,1,threefour,,,,,,,,,,,,,,,,,,,,,,,,,,,,,,,,,,,,,,,,,,,,,,,,,,,,,,,,,,,,,,,,,,,,,,,,,,,,,,,,,,,,,,,,,,,,,,,,,,,,,,,,,,,,,,,,,,,,,,,,,,,,,,,,,,,,,,,,,,,,,,,,,,,,,,,
,,,,,,616d50472a9af48a47847e01,62bbfe8cbe1a341178826034,2022-06-29_09h26.43.501,Colour_Asymmetry_Pilot,2022.1.3,Win32,60.14314067,62bbe60bf3d75ef465d3e404,0,49,49,2,1,twoone,,,,,,,,,,,,,,,,,,,,,,,,,,,,,,,,,,,,,,,,,,,,,,,,,,,,,,,,,,,,,,,,,,,,,,,,,,,,,,,,,,,,,,,,,,,,,,,,,,,,,,,,,,,,,,,,,,,,,,,,,,,,,,,,,,,,,,,,,,,,,,,,,,,,,,,
,,,,,,616d50472a9af48a47847e01,62bbfe8cbe1a341178826034,2022-06-29_09h26.43.501,Colour_Asymmetry_Pilot,2022.1.3,Win32,60.14314067,62bbe60bf3d75ef465d3e404,0,50,50,96,1,onetwo,,,,,,,,,,,,,,,,,,,,,,,,,,,,,,,,,,,,,,,,,,,,,,,,,,,,,,,,,,,,,,,,,,,,,,,,,,,,,,,,,,,,,,,,,,,,,,,,,,,,,,,,,,,,,,,,,,,,,,,,,,,,,,,,,,,,,,,,,,,,,,,,,,,,,,,
,,,,,,616d50472a9af48a47847e01,62bbfe8cbe1a341178826034,2022-06-29_09h26.43.501,Colour_Asymmetry_Pilot,2022.1.3,Win32,60.14314067,62bbe60bf3d75ef465d3e404,0,51,51,26,1,twoone,,,,,,,,,,,,,,,,,,,,,,,,,,,,,,,,,,,,,,,,,,,,,,,,,,,,,,,,,,,,,,,,,,,,,,,,,,,,,,,,,,,,,,,,,,,,,,,,,,,,,,,,,,,,,,,,,,,,,,,,,,,,,,,,,,,,,,,,,,,,,,,,,,,,,,,
,,,,,,616d50472a9af48a47847e01,62bbfe8cbe1a341178826034,2022-06-29_09h26.43.501,Colour_Asymmetry_Pilot,2022.1.3,Win32,60.14314067,62bbe60bf3d75ef465d3e404,0,52,52,134,1,fourtwo,,,,,,,,,,,,,,,,,,,,,,,,,,,,,,,,,,,,,,,,,,,,,,,,,,,,,,,,,,,,,,,,,,,,,,,,,,,,,,,,,,,,,,,,,,,,,,,,,,,,,,,,,,,,,,,,,,,,,,,,,,,,,,,,,,,,,,,,,,,,,,,,,,,,,,,
,,,,,,616d50472a9af48a47847e01,62bbfe8cbe1a341178826034,2022-06-29_09h26.43.501,Colour_Asymmetry_Pilot,2022.1.3,Win32,60.14314067,62bbe60bf3d75ef465d3e404,0,53,53,104,1,onetwo,,,,,,,,,,,,,,,,,,,,,,,,,,,,,,,,,,,,,,,,,,,,,,,,,,,,,,,,,,,,,,,,,,,,,,,,,,,,,,,,,,,,,,,,,,,,,,,,,,,,,,,,,,,,,,,,,,,,,,,,,,,,,,,,,,,,,,,,,,,,,,,,,,,,,,,
,,,,,,616d50472a9af48a47847e01,62bbfe8cbe1a341178826034,2022-06-29_09h26.43.501,Colour_Asymmetry_Pilot,2022.1.3,Win32,60.14314067,62bbe60bf3d75ef465d3e404,0,54,54,0,1,onetwo,,,,,,,,,,,,,,,,,,,,,,,,,,,,,,,,,,,,,,,,,,,,,,,,,,,,,,,,,,,,,,,,,,,,,,,,,,,,,,,,,,,,,,,,,,,,,,,,,,,,,,,,,,,,,,,,,,,,,,,,,,,,,,,,,,,,,,,,,,,,,,,,,,,,,,,
,,,,,,616d50472a9af48a47847e01,62bbfe8cbe1a341178826034,2022-06-29_09h26.43.501,Colour_Asymmetry_Pilot,2022.1.3,Win32,60.14314067,62bbe60bf3d75ef465d3e404,0,55,55,115,1,twofour,,,,,,,,,,,,,,,,,,,,,,,,,,,,,,,,,,,,,,,,,,,,,,,,,,,,,,,,,,,,,,,,,,,,,,,,,,,,,,,,,,,,,,,,,,,,,,,,,,,,,,,,,,,,,,,,,,,,,,,,,,,,,,,,,,,,,,,,,,,,,,,,,,,,,,,
,,,,,,616d50472a9af48a47847e01,62bbfe8cbe1a341178826034,2022-06-29_09h26.43.501,Colour_Asymmetry_Pilot,2022.1.3,Win32,60.14314067,62bbe60bf3d75ef465d3e404,0,56,56,98,1,twoone,,,,,,,,,,,,,,,,,,,,,,,,,,,,,,,,,,,,,,,,,,,,,,,,,,,,,,,,,,,,,,,,,,,,,,,,,,,,,,,,,,,,,,,,,,,,,,,,,,,,,,,,,,,,,,,,,,,,,,,,,,,,,,,,,,,,,,,,,,,,,,,,,,,,,,,
,,,,,,616d50472a9af48a47847e01,62bbfe8cbe1a341178826034,2022-06-29_09h26.43.501,Colour_Asymmetry_Pilot,2022.1.3,Win32,60.14314067,62bbe60bf3d75ef465d3e404,0,57,57,97,1,onethree,,,,,,,,,,,,,,,,,,,,,,,,,,,,,,,,,,,,,,,,,,,,,,,,,,,,,,,,,,,,,,,,,,,,,,,,,,,,,,,,,,,,,,,,,,,,,,,,,,,,,,,,,,,,,,,,,,,,,,,,,,,,,,,,,,,,,,,,,,,,,,,,,,,,,,,
,,,,,,616d50472a9af48a47847e01,62bbfe8cbe1a341178826034,2022-06-29_09h26.43.501,Colour_Asymmetry_Pilot,2022.1.3,Win32,60.14314067,62bbe60bf3d75ef465d3e404,0,58,58,16,1,onetwo,,,,,,,,,,,,,,,,,,,,,,,,,,,,,,,,,,,,,,,,,,,,,,,,,,,,,,,,,,,,,,,,,,,,,,,,,,,,,,,,,,,,,,,,,,,,,,,,,,,,,,,,,,,,,,,,,,,,,,,,,,,,,,,,,,,,,,,,,,,,,,,,,,,,,,,
,,,,,,616d50472a9af48a47847e01,62bbfe8cbe1a341178826034,2022-06-29_09h26.43.501,Colour_Asymmetry_Pilot,2022.1.3,Win32,60.14314067,62bbe60bf3d75ef465d3e404,0,59,59,27,1,twofour,,,,,,,,,,,,,,,,,,,,,,,,,,,,,,,,,,,,,,,,,,,,,,,,,,,,,,,,,,,,,,,,,,,,,,,,,,,,,,,,,,,,,,,,,,,,,,,,,,,,,,,,,,,,,,,,,,,,,,,,,,,,,,,,,,,,,,,,,,,,,,,,,,,,,,,
,,,,,,616d50472a9af48a47847e01,62bbfe8cbe1a341178826034,2022-06-29_09h26.43.501,Colour_Asymmetry_Pilot,2022.1.3,Win32,60.14314067,62bbe60bf3d75ef465d3e404,0,60,60,47,1,fourthree,,,,,,,,,,,,,,,,,,,,,,,,,,,,,,,,,,,,,,,,,,,,,,,,,,,,,,,,,,,,,,,,,,,,,,,,,,,,,,,,,,,,,,,,,,,,,,,,,,,,,,,,,,,,,,,,,,,,,,,,,,,,,,,,,,,,,,,,,,,,,,,,,,,,,,,
,,,,,,616d50472a9af48a47847e01,62bbfe8cbe1a341178826034,2022-06-29_09h26.43.501,Colour_Asymmetry_Pilot,2022.1.3,Win32,60.14314067,62bbe60bf3d75ef465d3e404,0,61,61,160,1,onetwo,,,,,,,,,,,,,,,,,,,,,,,,,,,,,,,,,,,,,,,,,,,,,,,,,,,,,,,,,,,,,,,,,,,,,,,,,,,,,,,,,,,,,,,,,,,,,,,,,,,,,,,,,,,,,,,,,,,,,,,,,,,,,,,,,,,,,,,,,,,,,,,,,,,,,,,
,,,,,,616d50472a9af48a47847e01,62bbfe8cbe1a341178826034,2022-06-29_09h26.43.501,Colour_Asymmetry_Pilot,2022.1.3,Win32,60.14314067,62bbe60bf3d75ef465d3e404,0,62,62,79,1,fourthree,,,,,,,,,,,,,,,,,,,,,,,,,,,,,,,,,,,,,,,,,,,,,,,,,,,,,,,,,,,,,,,,,,,,,,,,,,,,,,,,,,,,,,,,,,,,,,,,,,,,,,,,,,,,,,,,,,,,,,,,,,,,,,,,,,,,,,,,,,,,,,,,,,,,,,,
,,,,,,616d50472a9af48a47847e01,62bbfe8cbe1a341178826034,2022-06-29_09h26.43.501,Colour_Asymmetry_Pilot,2022.1.3,Win32,60.14314067,62bbe60bf3d75ef465d3e404,0,63,63,155,1,twofour,,,,,,,,,,,,,,,,,,,,,,,,,,,,,,,,,,,,,,,,,,,,,,,,,,,,,,,,,,,,,,,,,,,,,,,,,,,,,,,,,,,,,,,,,,,,,,,,,,,,,,,,,,,,,,,,,,,,,,,,,,,,,,,,,,,,,,,,,,,,,,,,,,,,,,,
,,,,,,616d50472a9af48a47847e01,62bbfe8cbe1a341178826034,2022-06-29_09h26.43.501,Colour_Asymmetry_Pilot,2022.1.3,Win32,60.14314067,62bbe60bf3d75ef465d3e404,0,64,64,103,1,fourthree,,,,,,,,,,,,,,,,,,,,,,,,,,,,,,,,,,,,,,,,,,,,,,,,,,,,,,,,,,,,,,,,,,,,,,,,,,,,,,,,,,,,,,,,,,,,,,,,,,,,,,,,,,,,,,,,,,,,,,,,,,,,,,,,,,,,,,,,,,,,,,,,,,,,,,,
,,,,,,616d50472a9af48a47847e01,62bbfe8cbe1a341178826034,2022-06-29_09h26.43.501,Colour_Asymmetry_Pilot,2022.1.3,Win32,60.14314067,62bbe60bf3d75ef465d3e404,0,65,65,94,1,fourtwo,,,,,,,,,,,,,,,,,,,,,,,,,,,,,,,,,,,,,,,,,,,,,,,,,,,,,,,,,,,,,,,,,,,,,,,,,,,,,,,,,,,,,,,,,,,,,,,,,,,,,,,,,,,,,,,,,,,,,,,,,,,,,,,,,,,,,,,,,,,,,,,,,,,,,,,
,,,,,,616d50472a9af48a47847e01,62bbfe8cbe1a341178826034,2022-06-29_09h26.43.501,Colour_Asymmetry_Pilot,2022.1.3,Win32,60.14314067,62bbe60bf3d75ef465d3e404,0,66,66,136,1,onetwo,,,,,,,,,,,,,,,,,,,,,,,,,,,,,,,,,,,,,,,,,,,,,,,,,,,,,,,,,,,,,,,,,,,,,,,,,,,,,,,,,,,,,,,,,,,,,,,,,,,,,,,,,,,,,,,,,,,,,,,,,,,,,,,,,,,,,,,,,,,,,,,,,,,,,,,
,,,,,,616d50472a9af48a47847e01,62bbfe8cbe1a341178826034,2022-06-29_09h26.43.501,Colour_Asymmetry_Pilot,2022.1.3,Win32,60.14314067,62bbe60bf3d75ef465d3e404,0,67,67,3,1,twofour,,,,,,,,,,,,,,,,,,,,,,,,,,,,,,,,,,,,,,,,,,,,,,,,,,,,,,,,,,,,,,,,,,,,,,,,,,,,,,,,,,,,,,,,,,,,,,,,,,,,,,,,,,,,,,,,,,,,,,,,,,,,,,,,,,,,,,,,,,,,,,,,,,,,,,,
,,,,,,616d50472a9af48a47847e01,62bbfe8cbe1a341178826034,2022-06-29_09h26.43.501,Colour_Asymmetry_Pilot,2022.1.3,Win32,60.14314067,62bbe60bf3d75ef465d3e404,0,68,68,80,1,onetwo,,,,,,,,,,,,,,,,,,,,,,,,,,,,,,,,,,,,,,,,,,,,,,,,,,,,,,,,,,,,,,,,,,,,,,,,,,,,,,,,,,,,,,,,,,,,,,,,,,,,,,,,,,,,,,,,,,,,,,,,,,,,,,,,,,,,,,,,,,,,,,,,,,,,,,,
,,,,,,616d50472a9af48a47847e01,62bbfe8cbe1a341178826034,2022-06-29_09h26.43.501,Colour_Asymmetry_Pilot,2022.1.3,Win32,60.14314067,62bbe60bf3d75ef465d3e404,0,69,69,66,1,twoone,,,,,,,,,,,,,,,,,,,,,,,,,,,,,,,,,,,,,,,,,,,,,,,,,,,,,,,,,,,,,,,,,,,,,,,,,,,,,,,,,,,,,,,,,,,,,,,,,,,,,,,,,,,,,,,,,,,,,,,,,,,,,,,,,,,,,,,,,,,,,,,,,,,,,,,
,,,,,,616d50472a9af48a47847e01,62bbfe8cbe1a341178826034,2022-06-29_09h26.43.501,Colour_Asymmetry_Pilot,2022.1.3,Win32,60.14314067,62bbe60bf3d75ef465d3e404,0,70,70,24,1,onetwo,,,,,,,,,,,,,,,,,,,,,,,,,,,,,,,,,,,,,,,,,,,,,,,,,,,,,,,,,,,,,,,,,,,,,,,,,,,,,,,,,,,,,,,,,,,,,,,,,,,,,,,,,,,,,,,,,,,,,,,,,,,,,,,,,,,,,,,,,,,,,,,,,,,,,,,
,,,,,,616d50472a9af48a47847e01,62bbfe8cbe1a341178826034,2022-06-29_09h26.43.501,Colour_Asymmetry_Pilot,2022.1.3,Win32,60.14314067,62bbe60bf3d75ef465d3e404,0,71,71,150,1,fourtwo,,,,,,,,,,,,,,,,,,,,,,,,,,,,,,,,,,,,,,,,,,,,,,,,,,,,,,,,,,,,,,,,,,,,,,,,,,,,,,,,,,,,,,,,,,,,,,,,,,,,,,,,,,,,,,,,,,,,,,,,,,,,,,,,,,,,,,,,,,,,,,,,,,,,,,,
,,,,,,616d50472a9af48a47847e01,62bbfe8cbe1a341178826034,2022-06-29_09h26.43.501,Colour_Asymmetry_Pilot,2022.1.3,Win32,60.14314067,62bbe60bf3d75ef465d3e404,0,72,72,122,1,twoone,,,,,,,,,,,,,,,,,,,,,,,,,,,,,,,,,,,,,,,,,,,,,,,,,,,,,,,,,,,,,,,,,,,,,,,,,,,,,,,,,,,,,,,,,,,,,,,,,,,,,,,,,,,,,,,,,,,,,,,,,,,,,,,,,,,,,,,,,,,,,,,,,,,,,,,
,,,,,,616d50472a9af48a47847e01,62bbfe8cbe1a341178826034,2022-06-29_09h26.43.501,Colour_Asymmetry_Pilot,2022.1.3,Win32,60.14314067,62bbe60bf3d75ef465d3e404,0,73,73,1,1,onethree,,,,,,,,,,,,,,,,,,,,,,,,,,,,,,,,,,,,,,,,,,,,,,,,,,,,,,,,,,,,,,,,,,,,,,,,,,,,,,,,,,,,,,,,,,,,,,,,,,,,,,,,,,,,,,,,,,,,,,,,,,,,,,,,,,,,,,,,,,,,,,,,,,,,,,,
,,,,,,616d50472a9af48a47847e01,62bbfe8cbe1a341178826034,2022-06-29_09h26.43.501,Colour_Asymmetry_Pilot,2022.1.3,Win32,60.14314067,62bbe60bf3d75ef465d3e404,0,74,74,36,1,threeone,,,,,,,,,,,,,,,,,,,,,,,,,,,,,,,,,,,,,,,,,,,,,,,,,,,,,,,,,,,,,,,,,,,,,,,,,,,,,,,,,,,,,,,,,,,,,,,,,,,,,,,,,,,,,,,,,,,,,,,,,,,,,,,,,,,,,,,,,,,,,,,,,,,,,,,
,,,,,,616d50472a9af48a47847e01,62bbfe8cbe1a341178826034,2022-06-29_09h26.43.501,Colour_Asymmetry_Pilot,2022.1.3,Win32,60.14314067,62bbe60bf3d75ef465d3e404,0,75,75,112,1,onetwo,,,,,,,,,,,,,,,,,,,,,,,,,,,,,,,,,,,,,,,,,,,,,,,,,,,,,,,,,,,,,,,,,,,,,,,,,,,,,,,,,,,,,,,,,,,,,,,,,,,,,,,,,,,,,,,,,,,,,,,,,,,,,,,,,,,,,,,,,,,,,,,,,,,,,,,
,,,,,,616d50472a9af48a47847e01,62bbfe8cbe1a341178826034,2022-06-29_09h26.43.501,Colour_Asymmetry_Pilot,2022.1.3,Win32,60.14314067,62bbe60bf3d75ef465d3e404,0,76,76,75,1,twofour,,,,,,,,,,,,,,,,,,,,,,,,,,,,,,,,,,,,,,,,,,,,,,,,,,,,,,,,,,,,,,,,,,,,,,,,,,,,,,,,,,,,,,,,,,,,,,,,,,,,,,,,,,,,,,,,,,,,,,,,,,,,,,,,,,,,,,,,,,,,,,,,,,,,,,,
,,,,,,616d50472a9af48a47847e01,62bbfe8cbe1a341178826034,2022-06-29_09h26.43.501,Colour_Asymmetry_Pilot,2022.1.3,Win32,60.14314067,62bbe60bf3d75ef465d3e404,0,77,77,28,1,threeone,,,,,,,,,,,,,,,,,,,,,,,,,,,,,,,,,,,,,,,,,,,,,,,,,,,,,,,,,,,,,,,,,,,,,,,,,,,,,,,,,,,,,,,,,,,,,,,,,,,,,,,,,,,,,,,,,,,,,,,,,,,,,,,,,,,,,,,,,,,,,,,,,,,,,,,
,,,,,,616d50472a9af48a47847e01,62bbfe8cbe1a341178826034,2022-06-29_09h26.43.501,Colour_Asymmetry_Pilot,2022.1.3,Win32,60.14314067,62bbe60bf3d75ef465d3e404,0,78,78,161,1,onethree,,,,,,,,,,,,,,,,,,,,,,,,,,,,,,,,,,,,,,,,,,,,,,,,,,,,,,,,,,,,,,,,,,,,,,,,,,,,,,,,,,,,,,,,,,,,,,,,,,,,,,,,,,,,,,,,,,,,,,,,,,,,,,,,,,,,,,,,,,,,,,,,,,,,,,,
,,,,,,616d50472a9af48a47847e01,62bbfe8cbe1a341178826034,2022-06-29_09h26.43.501,Colour_Asymmetry_Pilot,2022.1.3,Win32,60.14314067,62bbe60bf3d75ef465d3e404,0,79,79,69,1,threefour,,,,,,,,,,,,,,,,,,,,,,,,,,,,,,,,,,,,,,,,,,,,,,,,,,,,,,,,,,,,,,,,,,,,,,,,,,,,,,,,,,,,,,,,,,,,,,,,,,,,,,,,,,,,,,,,,,,,,,,,,,,,,,,,,,,,,,,,,,,,,,,,,,,,,,,
,,,,,,616d50472a9af48a47847e01,62bbfe8cbe1a341178826034,2022-06-29_09h26.43.501,Colour_Asymmetry_Pilot,2022.1.3,Win32,60.14314067,62bbe60bf3d75ef465d3e404,0,80,80,56,1,onetwo,,,,,,,,,,,,,,,,,,,,,,,,,,,,,,,,,,,,,,,,,,,,,,,,,,,,,,,,,,,,,,,,,,,,,,,,,,,,,,,,,,,,,,,,,,,,,,,,,,,,,,,,,,,,,,,,,,,,,,,,,,,,,,,,,,,,,,,,,,,,,,,,,,,,,,,
,,,,,,616d50472a9af48a47847e01,62bbfe8cbe1a341178826034,2022-06-29_09h26.43.501,Colour_Asymmetry_Pilot,2022.1.3,Win32,60.14314067,62bbe60bf3d75ef465d3e404,0,81,81,153,1,onethree,,,,,,,,,,,,,,,,,,,,,,,,,,,,,,,,,,,,,,,,,,,,,,,,,,,,,,,,,,,,,,,,,,,,,,,,,,,,,,,,,,,,,,,,,,,,,,,,,,,,,,,,,,,,,,,,,,,,,,,,,,,,,,,,,,,,,,,,,,,,,,,,,,,,,,,
,,,,,,616d50472a9af48a47847e01,62bbfe8cbe1a341178826034,2022-06-29_09h26.43.501,Colour_Asymmetry_Pilot,2022.1.3,Win32,60.14314067,62bbe60bf3d75ef465d3e404,0,82,82,5,1,threefour,,,,,,,,,,,,,,,,,,,,,,,,,,,,,,,,,,,,,,,,,,,,,,,,,,,,,,,,,,,,,,,,,,,,,,,,,,,,,,,,,,,,,,,,,,,,,,,,,,,,,,,,,,,,,,,,,,,,,,,,,,,,,,,,,,,,,,,,,,,,,,,,,,,,,,,
,,,,,,616d50472a9af48a47847e01,62bbfe8cbe1a341178826034,2022-06-29_09h26.43.501,Colour_Asymmetry_Pilot,2022.1.3,Win32,60.14314067,62bbe60bf3d75ef465d3e404,0,83,83,6,1,fourtwo,,,,,,,,,,,,,,,,,,,,,,,,,,,,,,,,,,,,,,,,,,,,,,,,,,,,,,,,,,,,,,,,,,,,,,,,,,,,,,,,,,,,,,,,,,,,,,,,,,,,,,,,,,,,,,,,,,,,,,,,,,,,,,,,,,,,,,,,,,,,,,,,,,,,,,,
,,,,,,616d50472a9af48a47847e01,62bbfe8cbe1a341178826034,2022-06-29_09h26.43.501,Colour_Asymmetry_Pilot,2022.1.3,Win32,60.14314067,62bbe60bf3d75ef465d3e404,0,84,84,130,1,twoone,,,,,,,,,,,,,,,,,,,,,,,,,,,,,,,,,,,,,,,,,,,,,,,,,,,,,,,,,,,,,,,,,,,,,,,,,,,,,,,,,,,,,,,,,,,,,,,,,,,,,,,,,,,,,,,,,,,,,,,,,,,,,,,,,,,,,,,,,,,,,,,,,,,,,,,
,,,,,,616d50472a9af48a47847e01,62bbfe8cbe1a341178826034,2022-06-29_09h26.43.501,Colour_Asymmetry_Pilot,2022.1.3,Win32,60.14314067,62bbe60bf3d75ef465d3e404,0,85,85,53,1,threefour,,,,,,,,,,,,,,,,,,,,,,,,,,,,,,,,,,,,,,,,,,,,,,,,,,,,,,,,,,,,,,,,,,,,,,,,,,,,,,,,,,,,,,,,,,,,,,,,,,,,,,,,,,,,,,,,,,,,,,,,,,,,,,,,,,,,,,,,,,,,,,,,,,,,,,,
,,,,,,616d50472a9af48a47847e01,62bbfe8cbe1a341178826034,2022-06-29_09h26.43.501,Colour_Asymmetry_Pilot,2022.1.3,Win32,60.14314067,62bbe60bf3d75ef465d3e404,0,86,86,119,1,fourthree,,,,,,,,,,,,,,,,,,,,,,,,,,,,,,,,,,,,,,,,,,,,,,,,,,,,,,,,,,,,,,,,,,,,,,,,,,,,,,,,,,,,,,,,,,,,,,,,,,,,,,,,,,,,,,,,,,,,,,,,,,,,,,,,,,,,,,,,,,,,,,,,,,,,,,,
,,,,,,616d50472a9af48a47847e01,62bbfe8cbe1a341178826034,2022-06-29_09h26.43.501,Colour_Asymmetry_Pilot,2022.1.3,Win32,60.14314067,62bbe60bf3d75ef465d3e404,0,87,87,135,1,fourthree,,,,,,,,,,,,,,,,,,,,,,,,,,,,,,,,,,,,,,,,,,,,,,,,,,,,,,,,,,,,,,,,,,,,,,,,,,,,,,,,,,,,,,,,,,,,,,,,,,,,,,,,,,,,,,,,,,,,,,,,,,,,,,,,,,,,,,,,,,,,,,,,,,,,,,,
,,,,,,616d50472a9af48a47847e01,62bbfe8cbe1a341178826034,2022-06-29_09h26.43.501,Colour_Asymmetry_Pilot,2022.1.3,Win32,60.14314067,62bbe60bf3d75ef465d3e404,0,88,88,7,1,fourthree,,,,,,,,,,,,,,,,,,,,,,,,,,,,,,,,,,,,,,,,,,,,,,,,,,,,,,,,,,,,,,,,,,,,,,,,,,,,,,,,,,,,,,,,,,,,,,,,,,,,,,,,,,,,,,,,,,,,,,,,,,,,,,,,,,,,,,,,,,,,,,,,,,,,,,,
,,,,,,616d50472a9af48a47847e01,62bbfe8cbe1a341178826034,2022-06-29_09h26.43.501,Colour_Asymmetry_Pilot,2022.1.3,Win32,60.14314067,62bbe60bf3d75ef465d3e404,0,89,89,4,1,threeone,,,,,,,,,,,,,,,,,,,,,,,,,,,,,,,,,,,,,,,,,,,,,,,,,,,,,,,,,,,,,,,,,,,,,,,,,,,,,,,,,,,,,,,,,,,,,,,,,,,,,,,,,,,,,,,,,,,,,,,,,,,,,,,,,,,,,,,,,,,,,,,,,,,,,,,
,,,,,,616d50472a9af48a47847e01,62bbfe8cbe1a341178826034,2022-06-29_09h26.43.501,Colour_Asymmetry_Pilot,2022.1.3,Win32,60.14314067,62bbe60bf3d75ef465d3e404,0,90,90,154,1,twoone,,,,,,,,,,,,,,,,,,,,,,,,,,,,,,,,,,,,,,,,,,,,,,,,,,,,,,,,,,,,,,,,,,,,,,,,,,,,,,,,,,,,,,,,,,,,,,,,,,,,,,,,,,,,,,,,,,,,,,,,,,,,,,,,,,,,,,,,,,,,,,,,,,,,,,,
,,,,,,616d50472a9af48a47847e01,62bbfe8cbe1a341178826034,2022-06-29_09h26.43.501,Colour_Asymmetry_Pilot,2022.1.3,Win32,60.14314067,62bbe60bf3d75ef465d3e404,0,91,91,93,1,threefour,,,,,,,,,,,,,,,,,,,,,,,,,,,,,,,,,,,,,,,,,,,,,,,,,,,,,,,,,,,,,,,,,,,,,,,,,,,,,,,,,,,,,,,,,,,,,,,,,,,,,,,,,,,,,,,,,,,,,,,,,,,,,,,,,,,,,,,,,,,,,,,,,,,,,,,
,,,,,,616d50472a9af48a47847e01,62bbfe8cbe1a341178826034,2022-06-29_09h26.43.501,Colour_Asymmetry_Pilot,2022.1.3,Win32,60.14314067,62bbe60bf3d75ef465d3e404,0,92,92,35,1,twofour,,,,,,,,,,,,,,,,,,,,,,,,,,,,,,,,,,,,,,,,,,,,,,,,,,,,,,,,,,,,,,,,,,,,,,,,,,,,,,,,,,,,,,,,,,,,,,,,,,,,,,,,,,,,,,,,,,,,,,,,,,,,,,,,,,,,,,,,,,,,,,,,,,,,,,,
,,,,,,616d50472a9af48a47847e01,62bbfe8cbe1a341178826034,2022-06-29_09h26.43.501,Colour_Asymmetry_Pilot,2022.1.3,Win32,60.14314067,62bbe60bf3d75ef465d3e404,0,93,93,12,1,threeone,,,,,,,,,,,,,,,,,,,,,,,,,,,,,,,,,,,,,,,,,,,,,,,,,,,,,,,,,,,,,,,,,,,,,,,,,,,,,,,,,,,,,,,,,,,,,,,,,,,,,,,,,,,,,,,,,,,,,,,,,,,,,,,,,,,,,,,,,,,,,,,,,,,,,,,
,,,,,,616d50472a9af48a47847e01,62bbfe8cbe1a341178826034,2022-06-29_09h26.43.501,Colour_Asymmetry_Pilot,2022.1.3,Win32,60.14314067,62bbe60bf3d75ef465d3e404,0,94,94,141,1,threefour,,,,,,,,,,,,,,,,,,,,,,,,,,,,,,,,,,,,,,,,,,,,,,,,,,,,,,,,,,,,,,,,,,,,,,,,,,,,,,,,,,,,,,,,,,,,,,,,,,,,,,,,,,,,,,,,,,,,,,,,,,,,,,,,,,,,,,,,,,,,,,,,,,,,,,,
,,,,,,616d50472a9af48a47847e01,62bbfe8cbe1a341178826034,2022-06-29_09h26.43.501,Colour_Asymmetry_Pilot,2022.1.3,Win32,60.14314067,62bbe60bf3d75ef465d3e404,0,95,95,76,1,threeone,,,,,,,,,,,,,,,,,,,,,,,,,,,,,,,,,,,,,,,,,,,,,,,,,,,,,,,,,,,,,,,,,,,,,,,,,,,,,,,,,,,,,,,,,,,,,,,,,,,,,,,,,,,,,,,,,,,,,,,,,,,,,,,,,,,,,,,,,,,,,,,,,,,,,,,
,,,,,,616d50472a9af48a47847e01,62bbfe8cbe1a341178826034,2022-06-29_09h26.43.501,Colour_Asymmetry_Pilot,2022.1.3,Win32,60.14314067,62bbe60bf3d75ef465d3e404,0,96,96,44,1,threeone,,,,,,,,,,,,,,,,,,,,,,,,,,,,,,,,,,,,,,,,,,,,,,,,,,,,,,,,,,,,,,,,,,,,,,,,,,,,,,,,,,,,,,,,,,,,,,,,,,,,,,,,,,,,,,,,,,,,,,,,,,,,,,,,,,,,,,,,,,,,,,,,,,,,,,,
,,,,,,616d50472a9af48a47847e01,62bbfe8cbe1a341178826034,2022-06-29_09h26.43.501,Colour_Asymmetry_Pilot,2022.1.3,Win32,60.14314067,62bbe60bf3d75ef465d3e404,0,97,97,111,1,fourthree,,,,,,,,,,,,,,,,,,,,,,,,,,,,,,,,,,,,,,,,,,,,,,,,,,,,,,,,,,,,,,,,,,,,,,,,,,,,,,,,,,,,,,,,,,,,,,,,,,,,,,,,,,,,,,,,,,,,,,,,,,,,,,,,,,,,,,,,,,,,,,,,,,,,,,,
,,,,,,616d50472a9af48a47847e01,62bbfe8cbe1a341178826034,2022-06-29_09h26.43.501,Colour_Asymmetry_Pilot,2022.1.3,Win32,60.14314067,62bbe60bf3d75ef465d3e404,0,98,98,62,1,fourtwo,,,,,,,,,,,,,,,,,,,,,,,,,,,,,,,,,,,,,,,,,,,,,,,,,,,,,,,,,,,,,,,,,,,,,,,,,,,,,,,,,,,,,,,,,,,,,,,,,,,,,,,,,,,,,,,,,,,,,,,,,,,,,,,,,,,,,,,,,,,,,,,,,,,,,,,
,,,,,,616d50472a9af48a47847e01,62bbfe8cbe1a341178826034,2022-06-29_09h26.43.501,Colour_Asymmetry_Pilot,2022.1.3,Win32,60.14314067,62bbe60bf3d75ef465d3e404,0,99,99,95,1,fourthree,,,,,,,,,,,,,,,,,,,,,,,,,,,,,,,,,,,,,,,,,,,,,,,,,,,,,,,,,,,,,,,,,,,,,,,,,,,,,,,,,,,,,,,,,,,,,,,,,,,,,,,,,,,,,,,,,,,,,,,,,,,,,,,,,,,,,,,,,,,,,,,,,,,,,,,
,,,,,,616d50472a9af48a47847e01,62bbfe8cbe1a341178826034,2022-06-29_09h26.43.501,Colour_Asymmetry_Pilot,2022.1.3,Win32,60.14314067,62bbe60bf3d75ef465d3e404,0,100,100,77,1,threefour,,,,,,,,,,,,,,,,,,,,,,,,,,,,,,,,,,,,,,,,,,,,,,,,,,,,,,,,,,,,,,,,,,,,,,,,,,,,,,,,,,,,,,,,,,,,,,,,,,,,,,,,,,,,,,,,,,,,,,,,,,,,,,,,,,,,,,,,,,,,,,,,,,,,,,,
,,,,,,616d50472a9af48a47847e01,62bbfe8cbe1a341178826034,2022-06-29_09h26.43.501,Colour_Asymmetry_Pilot,2022.1.3,Win32,60.14314067,62bbe60bf3d75ef465d3e404,0,101,101,33,1,onethree,,,,,,,,,,,,,,,,,,,,,,,,,,,,,,,,,,,,,,,,,,,,,,,,,,,,,,,,,,,,,,,,,,,,,,,,,,,,,,,,,,,,,,,,,,,,,,,,,,,,,,,,,,,,,,,,,,,,,,,,,,,,,,,,,,,,,,,,,,,,,,,,,,,,,,,
,,,,,,616d50472a9af48a47847e01,62bbfe8cbe1a341178826034,2022-06-29_09h26.43.501,Colour_Asymmetry_Pilot,2022.1.3,Win32,60.14314067,62bbe60bf3d75ef465d3e404,0,102,102,83,1,twofour,,,,,,,,,,,,,,,,,,,,,,,,,,,,,,,,,,,,,,,,,,,,,,,,,,,,,,,,,,,,,,,,,,,,,,,,,,,,,,,,,,,,,,,,,,,,,,,,,,,,,,,,,,,,,,,,,,,,,,,,,,,,,,,,,,,,,,,,,,,,,,,,,,,,,,,
,,,,,,616d50472a9af48a47847e01,62bbfe8cbe1a341178826034,2022-06-29_09h26.43.501,Colour_Asymmetry_Pilot,2022.1.3,Win32,60.14314067,62bbe60bf3d75ef465d3e404,0,103,103,114,1,twoone,,,,,,,,,,,,,,,,,,,,,,,,,,,,,,,,,,,,,,,,,,,,,,,,,,,,,,,,,,,,,,,,,,,,,,,,,,,,,,,,,,,,,,,,,,,,,,,,,,,,,,,,,,,,,,,,,,,,,,,,,,,,,,,,,,,,,,,,,,,,,,,,,,,,,,,
,,,,,,616d50472a9af48a47847e01,62bbfe8cbe1a341178826034,2022-06-29_09h26.43.501,Colour_Asymmetry_Pilot,2022.1.3,Win32,60.14314067,62bbe60bf3d75ef465d3e404,0,104,104,91,1,twofour,,,,,,,,,,,,,,,,,,,,,,,,,,,,,,,,,,,,,,,,,,,,,,,,,,,,,,,,,,,,,,,,,,,,,,,,,,,,,,,,,,,,,,,,,,,,,,,,,,,,,,,,,,,,,,,,,,,,,,,,,,,,,,,,,,,,,,,,,,,,,,,,,,,,,,,
,,,,,,616d50472a9af48a47847e01,62bbfe8cbe1a341178826034,2022-06-29_09h26.43.501,Colour_Asymmetry_Pilot,2022.1.3,Win32,60.14314067,62bbe60bf3d75ef465d3e404,0,105,105,22,1,fourtwo,,,,,,,,,,,,,,,,,,,,,,,,,,,,,,,,,,,,,,,,,,,,,,,,,,,,,,,,,,,,,,,,,,,,,,,,,,,,,,,,,,,,,,,,,,,,,,,,,,,,,,,,,,,,,,,,,,,,,,,,,,,,,,,,,,,,,,,,,,,,,,,,,,,,,,,
,,,,,,616d50472a9af48a47847e01,62bbfe8cbe1a341178826034,2022-06-29_09h26.43.501,Colour_Asymmetry_Pilot,2022.1.3,Win32,60.14314067,62bbe60bf3d75ef465d3e404,0,106,106,156,1,threeone,,,,,,,,,,,,,,,,,,,,,,,,,,,,,,,,,,,,,,,,,,,,,,,,,,,,,,,,,,,,,,,,,,,,,,,,,,,,,,,,,,,,,,,,,,,,,,,,,,,,,,,,,,,,,,,,,,,,,,,,,,,,,,,,,,,,,,,,,,,,,,,,,,,,,,,
,,,,,,616d50472a9af48a47847e01,62bbfe8cbe1a341178826034,2022-06-29_09h26.43.501,Colour_Asymmetry_Pilot,2022.1.3,Win32,60.14314067,62bbe60bf3d75ef465d3e404,0,107,107,29,1,threefour,,,,,,,,,,,,,,,,,,,,,,,,,,,,,,,,,,,,,,,,,,,,,,,,,,,,,,,,,,,,,,,,,,,,,,,,,,,,,,,,,,,,,,,,,,,,,,,,,,,,,,,,,,,,,,,,,,,,,,,,,,,,,,,,,,,,,,,,,,,,,,,,,,,,,,,
,,,,,,616d50472a9af48a47847e01,62bbfe8cbe1a341178826034,2022-06-29_09h26.43.501,Colour_Asymmetry_Pilot,2022.1.3,Win32,60.14314067,62bbe60bf3d75ef465d3e404,0,108,108,19,1,twofour,,,,,,,,,,,,,,,,,,,,,,,,,,,,,,,,,,,,,,,,,,,,,,,,,,,,,,,,,,,,,,,,,,,,,,,,,,,,,,,,,,,,,,,,,,,,,,,,,,,,,,,,,,,,,,,,,,,,,,,,,,,,,,,,,,,,,,,,,,,,,,,,,,,,,,,
,,,,,,616d50472a9af48a47847e01,62bbfe8cbe1a341178826034,2022-06-29_09h26.43.501,Colour_Asymmetry_Pilot,2022.1.3,Win32,60.14314067,62bbe60bf3d75ef465d3e404,0,109,109,54,1,fourtwo,,,,,,,,,,,,,,,,,,,,,,,,,,,,,,,,,,,,,,,,,,,,,,,,,,,,,,,,,,,,,,,,,,,,,,,,,,,,,,,,,,,,,,,,,,,,,,,,,,,,,,,,,,,,,,,,,,,,,,,,,,,,,,,,,,,,,,,,,,,,,,,,,,,,,,,
,,,,,,616d50472a9af48a47847e01,62bbfe8cbe1a341178826034,2022-06-29_09h26.43.501,Colour_Asymmetry_Pilot,2022.1.3,Win32,60.14314067,62bbe60bf3d75ef465d3e404,0,110,110,132,1,threeone,,,,,,,,,,,,,,,,,,,,,,,,,,,,,,,,,,,,,,,,,,,,,,,,,,,,,,,,,,,,,,,,,,,,,,,,,,,,,,,,,,,,,,,,,,,,,,,,,,,,,,,,,,,,,,,,,,,,,,,,,,,,,,,,,,,,,,,,,,,,,,,,,,,,,,,
,,,,,,616d50472a9af48a47847e01,62bbfe8cbe1a341178826034,2022-06-29_09h26.43.501,Colour_Asymmetry_Pilot,2022.1.3,Win32,60.14314067,62bbe60bf3d75ef465d3e404,0,111,111,146,1,twoone,,,,,,,,,,,,,,,,,,,,,,,,,,,,,,,,,,,,,,,,,,,,,,,,,,,,,,,,,,,,,,,,,,,,,,,,,,,,,,,,,,,,,,,,,,,,,,,,,,,,,,,,,,,,,,,,,,,,,,,,,,,,,,,,,,,,,,,,,,,,,,,,,,,,,,,
,,,,,,616d50472a9af48a47847e01,62bbfe8cbe1a341178826034,2022-06-29_09h26.43.501,Colour_Asymmetry_Pilot,2022.1.3,Win32,60.14314067,62bbe60bf3d75ef465d3e404,0,112,112,48,1,onetwo,,,,,,,,,,,,,,,,,,,,,,,,,,,,,,,,,,,,,,,,,,,,,,,,,,,,,,,,,,,,,,,,,,,,,,,,,,,,,,,,,,,,,,,,,,,,,,,,,,,,,,,,,,,,,,,,,,,,,,,,,,,,,,,,,,,,,,,,,,,,,,,,,,,,,,,
,,,,,,616d50472a9af48a47847e01,62bbfe8cbe1a341178826034,2022-06-29_09h26.43.501,Colour_Asymmetry_Pilot,2022.1.3,Win32,60.14314067,62bbe60bf3d75ef465d3e404,0,113,113,57,1,onethree,,,,,,,,,,,,,,,,,,,,,,,,,,,,,,,,,,,,,,,,,,,,,,,,,,,,,,,,,,,,,,,,,,,,,,,,,,,,,,,,,,,,,,,,,,,,,,,,,,,,,,,,,,,,,,,,,,,,,,,,,,,,,,,,,,,,,,,,,,,,,,,,,,,,,,,
,,,,,,616d50472a9af48a47847e01,62bbfe8cbe1a341178826034,2022-06-29_09h26.43.501,Colour_Asymmetry_Pilot,2022.1.3,Win32,60.14314067,62bbe60bf3d75ef465d3e404,0,114,114,39,1,fourthree,,,,,,,,,,,,,,,,,,,,,,,,,,,,,,,,,,,,,,,,,,,,,,,,,,,,,,,,,,,,,,,,,,,,,,,,,,,,,,,,,,,,,,,,,,,,,,,,,,,,,,,,,,,,,,,,,,,,,,,,,,,,,,,,,,,,,,,,,,,,,,,,,,,,,,,
,,,,,,616d50472a9af48a47847e01,62bbfe8cbe1a341178826034,2022-06-29_09h26.43.501,Colour_Asymmetry_Pilot,2022.1.3,Win32,60.14314067,62bbe60bf3d75ef465d3e404,0,115,115,149,1,threefour,,,,,,,,,,,,,,,,,,,,,,,,,,,,,,,,,,,,,,,,,,,,,,,,,,,,,,,,,,,,,,,,,,,,,,,,,,,,,,,,,,,,,,,,,,,,,,,,,,,,,,,,,,,,,,,,,,,,,,,,,,,,,,,,,,,,,,,,,,,,,,,,,,,,,,,
,,,,,,616d50472a9af48a47847e01,62bbfe8cbe1a341178826034,2022-06-29_09h26.43.501,Colour_Asymmetry_Pilot,2022.1.3,Win32,60.14314067,62bbe60bf3d75ef465d3e404,0,116,116,138,1,twoone,,,,,,,,,,,,,,,,,,,,,,,,,,,,,,,,,,,,,,,,,,,,,,,,,,,,,,,,,,,,,,,,,,,,,,,,,,,,,,,,,,,,,,,,,,,,,,,,,,,,,,,,,,,,,,,,,,,,,,,,,,,,,,,,,,,,,,,,,,,,,,,,,,,,,,,
,,,,,,616d50472a9af48a47847e01,62bbfe8cbe1a341178826034,2022-06-29_09h26.43.501,Colour_Asymmetry_Pilot,2022.1.3,Win32,60.14314067,62bbe60bf3d75ef465d3e404,0,117,117,113,1,onethree,,,,,,,,,,,,,,,,,,,,,,,,,,,,,,,,,,,,,,,,,,,,,,,,,,,,,,,,,,,,,,,,,,,,,,,,,,,,,,,,,,,,,,,,,,,,,,,,,,,,,,,,,,,,,,,,,,,,,,,,,,,,,,,,,,,,,,,,,,,,,,,,,,,,,,,
,,,,,,616d50472a9af48a47847e01,62bbfe8cbe1a341178826034,2022-06-29_09h26.43.501,Colour_Asymmetry_Pilot,2022.1.3,Win32,60.14314067,62bbe60bf3d75ef465d3e404,0,118,118,117,1,threefour,,,,,,,,,,,,,,,,,,,,,,,,,,,,,,,,,,,,,,,,,,,,,,,,,,,,,,,,,,,,,,,,,,,,,,,,,,,,,,,,,,,,,,,,,,,,,,,,,,,,,,,,,,,,,,,,,,,,,,,,,,,,,,,,,,,,,,,,,,,,,,,,,,,,,,,
,,,,,,616d50472a9af48a47847e01,62bbfe8cbe1a341178826034,2022-06-29_09h26.43.501,Colour_Asymmetry_Pilot,2022.1.3,Win32,60.14314067,62bbe60bf3d75ef465d3e404,0,119,119,15,1,fourthree,,,,,,,,,,,,,,,,,,,,,,,,,,,,,,,,,,,,,,,,,,,,,,,,,,,,,,,,,,,,,,,,,,,,,,,,,,,,,,,,,,,,,,,,,,,,,,,,,,,,,,,,,,,,,,,,,,,,,,,,,,,,,,,,,,,,,,,,,,,,,,,,,,,,,,,
,,,,,,616d50472a9af48a47847e01,62bbfe8cbe1a341178826034,2022-06-29_09h26.43.501,Colour_Asymmetry_Pilot,2022.1.3,Win32,60.14314067,62bbe60bf3d75ef465d3e404,0,120,120,90,1,twoone,,,,,,,,,,,,,,,,,,,,,,,,,,,,,,,,,,,,,,,,,,,,,,,,,,,,,,,,,,,,,,,,,,,,,,,,,,,,,,,,,,,,,,,,,,,,,,,,,,,,,,,,,,,,,,,,,,,,,,,,,,,,,,,,,,,,,,,,,,,,,,,,,,,,,,,
,,,,,,616d50472a9af48a47847e01,62bbfe8cbe1a341178826034,2022-06-29_09h26.43.501,Colour_Asymmetry_Pilot,2022.1.3,Win32,60.14314067,62bbe60bf3d75ef465d3e404,0,121,121,10,1,twoone,,,,,,,,,,,,,,,,,,,,,,,,,,,,,,,,,,,,,,,,,,,,,,,,,,,,,,,,,,,,,,,,,,,,,,,,,,,,,,,,,,,,,,,,,,,,,,,,,,,,,,,,,,,,,,,,,,,,,,,,,,,,,,,,,,,,,,,,,,,,,,,,,,,,,,,
,,,,,,616d50472a9af48a47847e01,62bbfe8cbe1a341178826034,2022-06-29_09h26.43.501,Colour_Asymmetry_Pilot,2022.1.3,Win32,60.14314067,62bbe60bf3d75ef465d3e404,0,122,122,45,1,threefour,,,,,,,,,,,,,,,,,,,,,,,,,,,,,,,,,,,,,,,,,,,,,,,,,,,,,,,,,,,,,,,,,,,,,,,,,,,,,,,,,,,,,,,,,,,,,,,,,,,,,,,,,,,,,,,,,,,,,,,,,,,,,,,,,,,,,,,,,,,,,,,,,,,,,,,
,,,,,,616d50472a9af48a47847e01,62bbfe8cbe1a341178826034,2022-06-29_09h26.43.501,Colour_Asymmetry_Pilot,2022.1.3,Win32,60.14314067,62bbe60bf3d75ef465d3e404,0,123,123,38,1,fourtwo,,,,,,,,,,,,,,,,,,,,,,,,,,,,,,,,,,,,,,,,,,,,,,,,,,,,,,,,,,,,,,,,,,,,,,,,,,,,,,,,,,,,,,,,,,,,,,,,,,,,,,,,,,,,,,,,,,,,,,,,,,,,,,,,,,,,,,,,,,,,,,,,,,,,,,,
,,,,,,616d50472a9af48a47847e01,62bbfe8cbe1a341178826034,2022-06-29_09h26.43.501,Colour_Asymmetry_Pilot,2022.1.3,Win32,60.14314067,62bbe60bf3d75ef465d3e404,0,124,124,144,1,onetwo,,,,,,,,,,,,,,,,,,,,,,,,,,,,,,,,,,,,,,,,,,,,,,,,,,,,,,,,,,,,,,,,,,,,,,,,,,,,,,,,,,,,,,,,,,,,,,,,,,,,,,,,,,,,,,,,,,,,,,,,,,,,,,,,,,,,,,,,,,,,,,,,,,,,,,,
,,,,,,616d50472a9af48a47847e01,62bbfe8cbe1a341178826034,2022-06-29_09h26.43.501,Colour_Asymmetry_Pilot,2022.1.3,Win32,60.14314067,62bbe60bf3d75ef465d3e404,0,125,125,157,1,threefour,,,,,,,,,,,,,,,,,,,,,,,,,,,,,,,,,,,,,,,,,,,,,,,,,,,,,,,,,,,,,,,,,,,,,,,,,,,,,,,,,,,,,,,,,,,,,,,,,,,,,,,,,,,,,,,,,,,,,,,,,,,,,,,,,,,,,,,,,,,,,,,,,,,,,,,
,,,,,,616d50472a9af48a47847e01,62bbfe8cbe1a341178826034,2022-06-29_09h26.43.501,Colour_Asymmetry_Pilot,2022.1.3,Win32,60.14314067,62bbe60bf3d75ef465d3e404,0,126,126,11,1,twofour,,,,,,,,,,,,,,,,,,,,,,,,,,,,,,,,,,,,,,,,,,,,,,,,,,,,,,,,,,,,,,,,,,,,,,,,,,,,,,,,,,,,,,,,,,,,,,,,,,,,,,,,,,,,,,,,,,,,,,,,,,,,,,,,,,,,,,,,,,,,,,,,,,,,,,,
,,,,,,616d50472a9af48a47847e01,62bbfe8cbe1a341178826034,2022-06-29_09h26.43.501,Colour_Asymmetry_Pilot,2022.1.3,Win32,60.14314067,62bbe60bf3d75ef465d3e404,0,127,127,51,1,twofour,,,,,,,,,,,,,,,,,,,,,,,,,,,,,,,,,,,,,,,,,,,,,,,,,,,,,,,,,,,,,,,,,,,,,,,,,,,,,,,,,,,,,,,,,,,,,,,,,,,,,,,,,,,,,,,,,,,,,,,,,,,,,,,,,,,,,,,,,,,,,,,,,,,,,,,
,,,,,,616d50472a9af48a47847e01,62bbfe8cbe1a341178826034,2022-06-29_09h26.43.501,Colour_Asymmetry_Pilot,2022.1.3,Win32,60.14314067,62bbe60bf3d75ef465d3e404,0,128,128,152,1,onetwo,,,,,,,,,,,,,,,,,,,,,,,,,,,,,,,,,,,,,,,,,,,,,,,,,,,,,,,,,,,,,,,,,,,,,,,,,,,,,,,,,,,,,,,,,,,,,,,,,,,,,,,,,,,,,,,,,,,,,,,,,,,,,,,,,,,,,,,,,,,,,,,,,,,,,,,
,,,,,,616d50472a9af48a47847e01,62bbfe8cbe1a341178826034,2022-06-29_09h26.43.501,Colour_Asymmetry_Pilot,2022.1.3,Win32,60.14314067,62bbe60bf3d75ef465d3e404,0,129,129,73,1,onethree,,,,,,,,,,,,,,,,,,,,,,,,,,,,,,,,,,,,,,,,,,,,,,,,,,,,,,,,,,,,,,,,,,,,,,,,,,,,,,,,,,,,,,,,,,,,,,,,,,,,,,,,,,,,,,,,,,,,,,,,,,,,,,,,,,,,,,,,,,,,,,,,,,,,,,,
,,,,,,616d50472a9af48a47847e01,62bbfe8cbe1a341178826034,2022-06-29_09h26.43.501,Colour_Asymmetry_Pilot,2022.1.3,Win32,60.14314067,62bbe60bf3d75ef465d3e404,0,130,130,131,1,twofour,,,,,,,,,,,,,,,,,,,,,,,,,,,,,,,,,,,,,,,,,,,,,,,,,,,,,,,,,,,,,,,,,,,,,,,,,,,,,,,,,,,,,,,,,,,,,,,,,,,,,,,,,,,,,,,,,,,,,,,,,,,,,,,,,,,,,,,,,,,,,,,,,,,,,,,
,,,,,,616d50472a9af48a47847e01,62bbfe8cbe1a341178826034,2022-06-29_09h26.43.501,Colour_Asymmetry_Pilot,2022.1.3,Win32,60.14314067,62bbe60bf3d75ef465d3e404,0,131,131,142,1,fourtwo,,,,,,,,,,,,,,,,,,,,,,,,,,,,,,,,,,,,,,,,,,,,,,,,,,,,,,,,,,,,,,,,,,,,,,,,,,,,,,,,,,,,,,,,,,,,,,,,,,,,,,,,,,,,,,,,,,,,,,,,,,,,,,,,,,,,,,,,,,,,,,,,,,,,,,,
,,,,,,616d50472a9af48a47847e01,62bbfe8cbe1a341178826034,2022-06-29_09h26.43.501,Colour_Asymmetry_Pilot,2022.1.3,Win32,60.14314067,62bbe60bf3d75ef465d3e404,0,132,132,59,1,twofour,,,,,,,,,,,,,,,,,,,,,,,,,,,,,,,,,,,,,,,,,,,,,,,,,,,,,,,,,,,,,,,,,,,,,,,,,,,,,,,,,,,,,,,,,,,,,,,,,,,,,,,,,,,,,,,,,,,,,,,,,,,,,,,,,,,,,,,,,,,,,,,,,,,,,,,
,,,,,,616d50472a9af48a47847e01,62bbfe8cbe1a341178826034,2022-06-29_09h26.43.501,Colour_Asymmetry_Pilot,2022.1.3,Win32,60.14314067,62bbe60bf3d75ef465d3e404,0,133,133,121,1,onethree,,,,,,,,,,,,,,,,,,,,,,,,,,,,,,,,,,,,,,,,,,,,,,,,,,,,,,,,,,,,,,,,,,,,,,,,,,,,,,,,,,,,,,,,,,,,,,,,,,,,,,,,,,,,,,,,,,,,,,,,,,,,,,,,,,,,,,,,,,,,,,,,,,,,,,,
,,,,,,616d50472a9af48a47847e01,62bbfe8cbe1a341178826034,2022-06-29_09h26.43.501,Colour_Asymmetry_Pilot,2022.1.3,Win32,60.14314067,62bbe60bf3d75ef465d3e404,0,134,134,68,1,threeone,,,,,,,,,,,,,,,,,,,,,,,,,,,,,,,,,,,,,,,,,,,,,,,,,,,,,,,,,,,,,,,,,,,,,,,,,,,,,,,,,,,,,,,,,,,,,,,,,,,,,,,,,,,,,,,,,,,,,,,,,,,,,,,,,,,,,,,,,,,,,,,,,,,,,,,
,,,,,,616d50472a9af48a47847e01,62bbfe8cbe1a341178826034,2022-06-29_09h26.43.501,Colour_Asymmetry_Pilot,2022.1.3,Win32,60.14314067,62bbe60bf3d75ef465d3e404,0,135,135,106,1,twoone,,,,,,,,,,,,,,,,,,,,,,,,,,,,,,,,,,,,,,,,,,,,,,,,,,,,,,,,,,,,,,,,,,,,,,,,,,,,,,,,,,,,,,,,,,,,,,,,,,,,,,,,,,,,,,,,,,,,,,,,,,,,,,,,,,,,,,,,,,,,,,,,,,,,,,,
,,,,,,616d50472a9af48a47847e01,62bbfe8cbe1a341178826034,2022-06-29_09h26.43.501,Colour_Asymmetry_Pilot,2022.1.3,Win32,60.14314067,62bbe60bf3d75ef465d3e404,0,136,136,81,1,onethree,,,,,,,,,,,,,,,,,,,,,,,,,,,,,,,,,,,,,,,,,,,,,,,,,,,,,,,,,,,,,,,,,,,,,,,,,,,,,,,,,,,,,,,,,,,,,,,,,,,,,,,,,,,,,,,,,,,,,,,,,,,,,,,,,,,,,,,,,,,,,,,,,,,,,,,
,,,,,,616d50472a9af48a47847e01,62bbfe8cbe1a341178826034,2022-06-29_09h26.43.501,Colour_Asymmetry_Pilot,2022.1.3,Win32,60.14314067,62bbe60bf3d75ef465d3e404,0,137,137,108,1,threeone,,,,,,,,,,,,,,,,,,,,,,,,,,,,,,,,,,,,,,,,,,,,,,,,,,,,,,,,,,,,,,,,,,,,,,,,,,,,,,,,,,,,,,,,,,,,,,,,,,,,,,,,,,,,,,,,,,,,,,,,,,,,,,,,,,,,,,,,,,,,,,,,,,,,,,,
,,,,,,616d50472a9af48a47847e01,62bbfe8cbe1a341178826034,2022-06-29_09h26.43.501,Colour_Asymmetry_Pilot,2022.1.3,Win32,60.14314067,62bbe60bf3d75ef465d3e404,0,138,138,148,1,threeone,,,,,,,,,,,,,,,,,,,,,,,,,,,,,,,,,,,,,,,,,,,,,,,,,,,,,,,,,,,,,,,,,,,,,,,,,,,,,,,,,,,,,,,,,,,,,,,,,,,,,,,,,,,,,,,,,,,,,,,,,,,,,,,,,,,,,,,,,,,,,,,,,,,,,,,
,,,,,,616d50472a9af48a47847e01,62bbfe8cbe1a341178826034,2022-06-29_09h26.43.501,Colour_Asymmetry_Pilot,2022.1.3,Win32,60.14314067,62bbe60bf3d75ef465d3e404,0,139,139,158,1,fourtwo,,,,,,,,,,,,,,,,,,,,,,,,,,,,,,,,,,,,,,,,,,,,,,,,,,,,,,,,,,,,,,,,,,,,,,,,,,,,,,,,,,,,,,,,,,,,,,,,,,,,,,,,,,,,,,,,,,,,,,,,,,,,,,,,,,,,,,,,,,,,,,,,,,,,,,,
,,,,,,616d50472a9af48a47847e01,62bbfe8cbe1a341178826034,2022-06-29_09h26.43.501,Colour_Asymmetry_Pilot,2022.1.3,Win32,60.14314067,62bbe60bf3d75ef465d3e404,0,140,140,88,1,onetwo,,,,,,,,,,,,,,,,,,,,,,,,,,,,,,,,,,,,,,,,,,,,,,,,,,,,,,,,,,,,,,,,,,,,,,,,,,,,,,,,,,,,,,,,,,,,,,,,,,,,,,,,,,,,,,,,,,,,,,,,,,,,,,,,,,,,,,,,,,,,,,,,,,,,,,,
,,,,,,616d50472a9af48a47847e01,62bbfe8cbe1a341178826034,2022-06-29_09h26.43.501,Colour_Asymmetry_Pilot,2022.1.3,Win32,60.14314067,62bbe60bf3d75ef465d3e404,0,141,141,63,1,fourthree,,,,,,,,,,,,,,,,,,,,,,,,,,,,,,,,,,,,,,,,,,,,,,,,,,,,,,,,,,,,,,,,,,,,,,,,,,,,,,,,,,,,,,,,,,,,,,,,,,,,,,,,,,,,,,,,,,,,,,,,,,,,,,,,,,,,,,,,,,,,,,,,,,,,,,,
,,,,,,616d50472a9af48a47847e01,62bbfe8cbe1a341178826034,2022-06-29_09h26.43.501,Colour_Asymmetry_Pilot,2022.1.3,Win32,60.14314067,62bbe60bf3d75ef465d3e404,0,142,142,49,1,onethree,,,,,,,,,,,,,,,,,,,,,,,,,,,,,,,,,,,,,,,,,,,,,,,,,,,,,,,,,,,,,,,,,,,,,,,,,,,,,,,,,,,,,,,,,,,,,,,,,,,,,,,,,,,,,,,,,,,,,,,,,,,,,,,,,,,,,,,,,,,,,,,,,,,,,,,
,,,,,,616d50472a9af48a47847e01,62bbfe8cbe1a341178826034,2022-06-29_09h26.43.501,Colour_Asymmetry_Pilot,2022.1.3,Win32,60.14314067,62bbe60bf3d75ef465d3e404,0,143,143,123,1,twofour,,,,,,,,,,,,,,,,,,,,,,,,,,,,,,,,,,,,,,,,,,,,,,,,,,,,,,,,,,,,,,,,,,,,,,,,,,,,,,,,,,,,,,,,,,,,,,,,,,,,,,,,,,,,,,,,,,,,,,,,,,,,,,,,,,,,,,,,,,,,,,,,,,,,,,,
,,,,,,616d50472a9af48a47847e01,62bbfe8cbe1a341178826034,2022-06-29_09h26.43.501,Colour_Asymmetry_Pilot,2022.1.3,Win32,60.14314067,62bbe60bf3d75ef465d3e404,0,144,144,105,1,onethree,,,,,,,,,,,,,,,,,,,,,,,,,,,,,,,,,,,,,,,,,,,,,,,,,,,,,,,,,,,,,,,,,,,,,,,,,,,,,,,,,,,,,,,,,,,,,,,,,,,,,,,,,,,,,,,,,,,,,,,,,,,,,,,,,,,,,,,,,,,,,,,,,,,,,,,
,,,,,,616d50472a9af48a47847e01,62bbfe8cbe1a341178826034,2022-06-29_09h26.43.501,Colour_Asymmetry_Pilot,2022.1.3,Win32,60.14314067,62bbe60bf3d75ef465d3e404,0,145,145,46,1,fourtwo,,,,,,,,,,,,,,,,,,,,,,,,,,,,,,,,,,,,,,,,,,,,,,,,,,,,,,,,,,,,,,,,,,,,,,,,,,,,,,,,,,,,,,,,,,,,,,,,,,,,,,,,,,,,,,,,,,,,,,,,,,,,,,,,,,,,,,,,,,,,,,,,,,,,,,,
,,,,,,616d50472a9af48a47847e01,62bbfe8cbe1a341178826034,2022-06-29_09h26.43.501,Colour_Asymmetry_Pilot,2022.1.3,Win32,60.14314067,62bbe60bf3d75ef465d3e404,0,146,146,100,1,threeone,,,,,,,,,,,,,,,,,,,,,,,,,,,,,,,,,,,,,,,,,,,,,,,,,,,,,,,,,,,,,,,,,,,,,,,,,,,,,,,,,,,,,,,,,,,,,,,,,,,,,,,,,,,,,,,,,,,,,,,,,,,,,,,,,,,,,,,,,,,,,,,,,,,,,,,
,,,,,,616d50472a9af48a47847e01,62bbfe8cbe1a341178826034,2022-06-29_09h26.43.501,Colour_Asymmetry_Pilot,2022.1.3,Win32,60.14314067,62bbe60bf3d75ef465d3e404,0,147,147,86,1,fourtwo,,,,,,,,,,,,,,,,,,,,,,,,,,,,,,,,,,,,,,,,,,,,,,,,,,,,,,,,,,,,,,,,,,,,,,,,,,,,,,,,,,,,,,,,,,,,,,,,,,,,,,,,,,,,,,,,,,,,,,,,,,,,,,,,,,,,,,,,,,,,,,,,,,,,,,,
,,,,,,616d50472a9af48a47847e01,62bbfe8cbe1a341178826034,2022-06-29_09h26.43.501,Colour_Asymmetry_Pilot,2022.1.3,Win32,60.14314067,62bbe60bf3d75ef465d3e404,0,148,148,58,1,twoone,,,,,,,,,,,,,,,,,,,,,,,,,,,,,,,,,,,,,,,,,,,,,,,,,,,,,,,,,,,,,,,,,,,,,,,,,,,,,,,,,,,,,,,,,,,,,,,,,,,,,,,,,,,,,,,,,,,,,,,,,,,,,,,,,,,,,,,,,,,,,,,,,,,,,,,
,,,,,,616d50472a9af48a47847e01,62bbfe8cbe1a341178826034,2022-06-29_09h26.43.501,Colour_Asymmetry_Pilot,2022.1.3,Win32,60.14314067,62bbe60bf3d75ef465d3e404,0,149,149,43,1,twofour,,,,,,,,,,,,,,,,,,,,,,,,,,,,,,,,,,,,,,,,,,,,,,,,,,,,,,,,,,,,,,,,,,,,,,,,,,,,,,,,,,,,,,,,,,,,,,,,,,,,,,,,,,,,,,,,,,,,,,,,,,,,,,,,,,,,,,,,,,,,,,,,,,,,,,,
,,,,,,616d50472a9af48a47847e01,62bbfe8cbe1a341178826034,2022-06-29_09h26.43.501,Colour_Asymmetry_Pilot,2022.1.3,Win32,60.14314067,62bbe60bf3d75ef465d3e404,0,150,150,143,1,fourthree,,,,,,,,,,,,,,,,,,,,,,,,,,,,,,,,,,,,,,,,,,,,,,,,,,,,,,,,,,,,,,,,,,,,,,,,,,,,,,,,,,,,,,,,,,,,,,,,,,,,,,,,,,,,,,,,,,,,,,,,,,,,,,,,,,,,,,,,,,,,,,,,,,,,,,,
,,,,,,616d50472a9af48a47847e01,62bbfe8cbe1a341178826034,2022-06-29_09h26.43.501,Colour_Asymmetry_Pilot,2022.1.3,Win32,60.14314067,62bbe60bf3d75ef465d3e404,0,151,151,147,1,twofour,,,,,,,,,,,,,,,,,,,,,,,,,,,,,,,,,,,,,,,,,,,,,,,,,,,,,,,,,,,,,,,,,,,,,,,,,,,,,,,,,,,,,,,,,,,,,,,,,,,,,,,,,,,,,,,,,,,,,,,,,,,,,,,,,,,,,,,,,,,,,,,,,,,,,,,
,,,,,,616d50472a9af48a47847e01,62bbfe8cbe1a341178826034,2022-06-29_09h26.43.501,Colour_Asymmetry_Pilot,2022.1.3,Win32,60.14314067,62bbe60bf3d75ef465d3e404,0,152,152,116,1,threeone,,,,,,,,,,,,,,,,,,,,,,,,,,,,,,,,,,,,,,,,,,,,,,,,,,,,,,,,,,,,,,,,,,,,,,,,,,,,,,,,,,,,,,,,,,,,,,,,,,,,,,,,,,,,,,,,,,,,,,,,,,,,,,,,,,,,,,,,,,,,,,,,,,,,,,,
,,,,,,616d50472a9af48a47847e01,62bbfe8cbe1a341178826034,2022-06-29_09h26.43.501,Colour_Asymmetry_Pilot,2022.1.3,Win32,60.14314067,62bbe60bf3d75ef465d3e404,0,153,153,133,1,threefour,,,,,,,,,,,,,,,,,,,,,,,,,,,,,,,,,,,,,,,,,,,,,,,,,,,,,,,,,,,,,,,,,,,,,,,,,,,,,,,,,,,,,,,,,,,,,,,,,,,,,,,,,,,,,,,,,,,,,,,,,,,,,,,,,,,,,,,,,,,,,,,,,,,,,,,
,,,,,,616d50472a9af48a47847e01,62bbfe8cbe1a341178826034,2022-06-29_09h26.43.501,Colour_Asymmetry_Pilot,2022.1.3,Win32,60.14314067,62bbe60bf3d75ef465d3e404,0,154,154,55,1,fourthree,,,,,,,,,,,,,,,,,,,,,,,,,,,,,,,,,,,,,,,,,,,,,,,,,,,,,,,,,,,,,,,,,,,,,,,,,,,,,,,,,,,,,,,,,,,,,,,,,,,,,,,,,,,,,,,,,,,,,,,,,,,,,,,,,,,,,,,,,,,,,,,,,,,,,,,
,,,,,,616d50472a9af48a47847e01,62bbfe8cbe1a341178826034,2022-06-29_09h26.43.501,Colour_Asymmetry_Pilot,2022.1.3,Win32,60.14314067,62bbe60bf3d75ef465d3e404,0,155,155,107,1,twofour,,,,,,,,,,,,,,,,,,,,,,,,,,,,,,,,,,,,,,,,,,,,,,,,,,,,,,,,,,,,,,,,,,,,,,,,,,,,,,,,,,,,,,,,,,,,,,,,,,,,,,,,,,,,,,,,,,,,,,,,,,,,,,,,,,,,,,,,,,,,,,,,,,,,,,,
,,,,,,616d50472a9af48a47847e01,62bbfe8cbe1a341178826034,2022-06-29_09h26.43.501,Colour_Asymmetry_Pilot,2022.1.3,Win32,60.14314067,62bbe60bf3d75ef465d3e404,0,156,156,65,1,onethree,,,,,,,,,,,,,,,,,,,,,,,,,,,,,,,,,,,,,,,,,,,,,,,,,,,,,,,,,,,,,,,,,,,,,,,,,,,,,,,,,,,,,,,,,,,,,,,,,,,,,,,,,,,,,,,,,,,,,,,,,,,,,,,,,,,,,,,,,,,,,,,,,,,,,,,
,,,,,,616d50472a9af48a47847e01,62bbfe8cbe1a341178826034,2022-06-29_09h26.43.501,Colour_Asymmetry_Pilot,2022.1.3,Win32,60.14314067,62bbe60bf3d75ef465d3e404,0,157,157,139,1,twofour,,,,,,,,,,,,,,,,,,,,,,,,,,,,,,,,,,,,,,,,,,,,,,,,,,,,,,,,,,,,,,,,,,,,,,,,,,,,,,,,,,,,,,,,,,,,,,,,,,,,,,,,,,,,,,,,,,,,,,,,,,,,,,,,,,,,,,,,,,,,,,,,,,,,,,,
,,,,,,616d50472a9af48a47847e01,62bbfe8cbe1a341178826034,2022-06-29_09h26.43.501,Colour_Asymmetry_Pilot,2022.1.3,Win32,60.14314067,62bbe60bf3d75ef465d3e404,0,158,158,72,1,onetwo,,,,,,,,,,,,,,,,,,,,,,,,,,,,,,,,,,,,,,,,,,,,,,,,,,,,,,,,,,,,,,,,,,,,,,,,,,,,,,,,,,,,,,,,,,,,,,,,,,,,,,,,,,,,,,,,,,,,,,,,,,,,,,,,,,,,,,,,,,,,,,,,,,,,,,,
,,,,,,616d50472a9af48a47847e01,62bbfe8cbe1a341178826034,2022-06-29_09h26.43.501,Colour_Asymmetry_Pilot,2022.1.3,Win32,60.14314067,62bbe60bf3d75ef465d3e404,0,159,159,14,1,fourtwo,,,,,,,,,,,,,,,,,,,,,,,,,,,,,,,,,,,,,,,,,,,,,,,,,,,,,,,,,,,,,,,,,,,,,,,,,,,,,,,,,,,,,,,,,,,,,,,,,,,,,,,,,,,,,,,,,,,,,,,,,,,,,,,,,,,,,,,,,,,,,,,,,,,,,,,
,,,,,,616d50472a9af48a47847e01,62bbfe8cbe1a341178826034,2022-06-29_09h26.43.501,Colour_Asymmetry_Pilot,2022.1.3,Win32,60.14314067,62bbe60bf3d75ef465d3e404,0,160,160,110,1,fourtwo,,,,,,,,,,,,,,,,,,,,,,,,,,,,,,,,,,,,,,,,,,,,,,,,,,,,,,,,,,,,,,,,,,,,,,,,,,,,,,,,,,,,,,,,,,,,,,,,,,,,,,,,,,,,,,,,,,,,,,,,,,,,,,,,,,,,,,,,,,,,,,,,,,,,,,,
,,,,,,616d50472a9af48a47847e01,62bbfe8cbe1a341178826034,2022-06-29_09h26.43.501,Colour_Asymmetry_Pilot,2022.1.3,Win32,60.14314067,62bbe60bf3d75ef465d3e404,0,161,161,82,1,twoone,,,,,,,,,,,,,,,,,,,,,,,,,,,,,,,,,,,,,,,,,,,,,,,,,,,,,,,,,,,,,,,,,,,,,,,,,,,,,,,,,,,,,,,,,,,,,,,,,,,,,,,,,,,,,,,,,,,,,,,,,,,,,,,,,,,,,,,,,,,,,,,,,,,,,,,
,,,,,,616d50472a9af48a47847e01,62bbfe8cbe1a341178826034,2022-06-29_09h26.43.501,Colour_Asymmetry_Pilot,2022.1.3,Win32,60.14314067,62bbe60bf3d75ef465d3e404,,,,,,,space,5.2931,space,26.4974,space,37.1337,space,9.6469,space,4.7206,space,4.5517,"[-0.17659999999999998,-0.2864,-0.8354]",twofour,"[-0.26280000000000003,-0.4746,-0.2158]",4,11.7652,72,103,1,0,0,response1disk_5,1,3,1,0,0,rectangle_8,110,44,1,0,0,response1disk_7,6,3,0,3,1,0,0,rectangle_4,0,0,0,0,1,,,,,,,,,,,,,,,,,,,,,,,,,,,,,,,,,,,,,,,,,,,,,,,,,,,,,,,,,,,,,,,,,,,,,,,,,,,,,,,,,,,,,,,,,,,,,,,,,,,,,,,
,,,,,,616d50472a9af48a47847e01,62bbfe8cbe1a341178826034,2022-06-29_09h26.43.501,Colour_Asymmetry_Pilot,2022.1.3,Win32,60.14314067,62bbe60bf3d75ef465d3e404,,,,,,,,,,,,,,,,,,,"[-0.9138,-0.5296000000000001,-0.5529999999999999]",threefour,"[-0.4668,-0.8746,-0.2942]",1,3.8341,57,-74,1,0,0,response3disk_5,0,0,1,0,0,rectangle_8,0,0,1,0,0,,,3,0,0,1,0,0,,1,0,1,0,1,,,,,,,,,,,,,,,,,,,,,,,,,,,,,,,,,,,,,,,,,,,,,,,,,,,,,,,,,,,,,,,,,,,,,,,,,,,,,,,,,,,,,,,,,,,,,,,,,,,,,,,
,,,,,,616d50472a9af48a47847e01,62bbfe8cbe1a341178826034,2022-06-29_09h26.43.501,Colour_Asymmetry_Pilot,2022.1.3,Win32,60.14314067,62bbe60bf3d75ef465d3e404,,,,,,,,,,,,,,,,,,,"[0.9763999999999999,0.30979999999999985,-0.6786]",threeone,"[-0.24719999999999998,0.5213999999999999,-0.12959999999999994]",-4,4.3102,-82,111,1,0,0,response7disk_5,-3,-1,1,0,0,rectangle_8,-3,-1,1,0,0,,,3,-3,-1,1,0,0,,2,0,2,0,1,,,,,,,,,,,,,,,,,,,,,,,,,,,,,,,,,,,,,,,,,,,,,,,,,,,,,,,,,,,,,,,,,,,,,,,,,,,,,,,,,,,,,,,,,,,,,,,,,,,,,,,
,,,,,,616d50472a9af48a47847e01,62bbfe8cbe1a341178826034,2022-06-29_09h26.43.501,Colour_Asymmetry_Pilot,2022.1.3,Win32,60.14314067,62bbe60bf3d75ef465d3e404,,,,,,,,,,,,,,,,,,,"[-0.9766,-0.34920000000000007,0.2156]",twoone,"[-0.4746,-0.0354000000000001,0.5449999999999999]",4,2.5035,44,105,1,0,0,response1disk_5,7,2,1,0,0,rectangle_8,7,2,1,0,0,,,3,7,2,1,0,0,,3,0,3,0,1,,,,,,,,,,,,,,,,,,,,,,,,,,,,,,,,,,,,,,,,,,,,,,,,,,,,,,,,,,,,,,,,,,,,,,,,,,,,,,,,,,,,,,,,,,,,,,,,,,,,,,,
,,,,,,616d50472a9af48a47847e01,62bbfe8cbe1a341178826034,2022-06-29_09h26.43.501,Colour_Asymmetry_Pilot,2022.1.3,Win32,60.14314067,62bbe60bf3d75ef465d3e404,,,,,,,,,,,,,,,,,,,"[-0.8982,-0.37259999999999993,0.2784]",onetwo,"[0.5449999999999999,-0.31000000000000005,-0.0354000000000001]",-4,3.3336,-57,132,1,0,0,response7disk_5,-13,6,1,0,0,rectangle_8,-13,6,1,0,0,,,3,-13,6,1,0,0,,4,0,4,0,1,,,,,,,,,,,,,,,,,,,,,,,,,,,,,,,,,,,,,,,,,,,,,,,,,,,,,,,,,,,,,,,,,,,,,,,,,,,,,,,,,,,,,,,,,,,,,,,,,,,,,,,
,,,,,,616d50472a9af48a47847e01,62bbfe8cbe1a341178826034,2022-06-29_09h26.43.501,Colour_Asymmetry_Pilot,2022.1.3,Win32,60.14314067,62bbe60bf3d75ef465d3e404,,,,,,,,,,,,,,,,,,,"[-0.17659999999999998,-0.2864,-0.8354]",twofour,"[-0.6942,-0.7648,-0.12959999999999994]",-4,0.8717,-51,111,1,0,0,response7disk_5,15,5,1,0,0,rectangle_8,15,5,1,0,0,,,3,15,5,1,0,0,,5,0,5,0,1,,,,,,,,,,,,,,,,,,,,,,,,,,,,,,,,,,,,,,,,,,,,,,,,,,,,,,,,,,,,,,,,,,,,,,,,,,,,,,,,,,,,,,,,,,,,,,,,,,,,,,,
,,,,,,616d50472a9af48a47847e01,62bbfe8cbe1a341178826034,2022-06-29_09h26.43.501,Colour_Asymmetry_Pilot,2022.1.3,Win32,60.14314067,62bbe60bf3d75ef465d3e404,,,,,,,,,,,,,,,,,,,"[-0.45899999999999996,-0.3256,-0.9374]",threefour,"[-0.9766,-0.6472,0.07440000000000002]",-4,0.7333,-69,113,1,0,0,response7disk_5,9,-3,1,0,0,rectangle_8,9,-3,1,0,0,,,3,9,-3,1,0,0,,6,0,6,0,1,,,,,,,,,,,,,,,,,,,,,,,,,,,,,,,,,,,,,,,,,,,,,,,,,,,,,,,,,,,,,,,,,,,,,,,,,,,,,,,,,,,,,,,,,,,,,,,,,,,,,,,
,,,,,,616d50472a9af48a47847e01,62bbfe8cbe1a341178826034,2022-06-29_09h26.43.501,Colour_Asymmetry_Pilot,2022.1.3,Win32,60.14314067,62bbe60bf3d75ef465d3e404,,,,,,,,,,,,,,,,,,,,twoone,,1,2.7,,,,,,,,,,,,,,,,,,,,,,,,,,,,,,,,space,3.7515,"[-0.4982,-0.2942,-0.0354000000000001]","[-0.6706000000000001,-0.6157999999999999,-0.6786]",40,-62,1,0,0,response3disk,3,12,1,0,0,rectangle,3,12,1,0,0,,1,0.0037,0,3,12,1,0,0,0,0,0,126,1,45,second,,,,,,,,,,,,,,,,,,,,,,,,,,,,,,,,,,,,,,,,,,,,,,,,,,,,,,,,,,,,,,,,,,
,,,,,,616d50472a9af48a47847e01,62bbfe8cbe1a341178826034,2022-06-29_09h26.43.501,Colour_Asymmetry_Pilot,2022.1.3,Win32,60.14314067,62bbe60bf3d75ef465d3e404,,,,,,,,,,,,,,,,,,,,onethree,,-4,1.0173,,,,,,,,,,,,,,,,,,,,,,,,,,,,,,,,,,"[-0.9296,-0.12959999999999994,-0.043199999999999905]","[0.30180000000000007,-0.7884,-0.9844]",-61,93,1,0,0,response7disk,27,2,1,0,0,rectangle,27,2,1,0,0,,3,0.0017,0,27,2,1,0,0,0,1,1,42,1,42,first,,,,,,,,,,,,,,,,,,,,,,,,,,,,,,,,,,,,,,,,,,,,,,,,,,,,,,,,,,,,,,,,,,
,,,,,,616d50472a9af48a47847e01,62bbfe8cbe1a341178826034,2022-06-29_09h26.43.501,Colour_Asymmetry_Pilot,2022.1.3,Win32,60.14314067,62bbe60bf3d75ef465d3e404,,,,,,,,,,,,,,,,,,,,threefour,,-3,1.1486,,,,,,,,,,,,,,,,,,,,,,,,,,,,,,,,,,"[0.6547999999999998,-0.043199999999999905,-0.011800000000000033]","[-0.07459999999999989,0.12139999999999995,-0.9922]",-85,50,1,0,0,response7disk,12,1,1,0,0,rectangle,12,1,1,0,0,,1,0.003,0,12,1,1,0,0,0,2,2,154,1,73,second,,,,,,,,,,,,,,,,,,,,,,,,,,,,,,,,,,,,,,,,,,,,,,,,,,,,,,,,,,,,,,,,,,
,,,,,,616d50472a9af48a47847e01,62bbfe8cbe1a341178826034,2022-06-29_09h26.43.501,Colour_Asymmetry_Pilot,2022.1.3,Win32,60.14314067,62bbe60bf3d75ef465d3e404,,,,,,,,,,,,,,,,,,,,fourthree,,-3,2.6327,,,,,,,,,,,,,,,,,,,,,,,,,,,,,,,,,,"[-0.9296,-0.12959999999999994,-0.043199999999999905]","[-0.0040000000000000036,0.02739999999999987,-0.08239999999999992]",-99,42,1,0,0,response7disk,4,-4,1,0,0,rectangle,4,-4,1,0,0,,1,0.0002,0,4,-4,1,0,0,0,3,3,62,1,62,first,,,,,,,,,,,,,,,,,,,,,,,,,,,,,,,,,,,,,,,,,,,,,,,,,,,,,,,,,,,,,,,,,,
,,,,,,616d50472a9af48a47847e01,62bbfe8cbe1a341178826034,2022-06-29_09h26.43.501,Colour_Asymmetry_Pilot,2022.1.3,Win32,60.14314067,62bbe60bf3d75ef465d3e404,,,,,,,,,,,,,,,,,,,,onetwo,,-3,1.793,,,,,,,,,,,,,,,,,,,,,,,,,,,,,,,,,,"[0.8115999999999999,-0.0040000000000000036,-0.09819999999999995]","[-0.20799999999999996,-0.655,-0.01980000000000004]",-91,37,1,0,0,response7disk,1,-7,1,0,0,rectangle,1,-7,1,0,0,,3,0.0023,0,1,-7,1,0,0,0,4,4,157,1,76,second,,,,,,,,,,,,,,,,,,,,,,,,,,,,,,,,,,,,,,,,,,,,,,,,,,,,,,,,,,,,,,,,,,
,,,,,,616d50472a9af48a47847e01,62bbfe8cbe1a341178826034,2022-06-29_09h26.43.501,Colour_Asymmetry_Pilot,2022.1.3,Win32,60.14314067,62bbe60bf3d75ef465d3e404,,,,,,,,,,,,,,,,,,,,onethree,,-4,0.5668,,,,,,,,,,,,,,,,,,,,,,,,,,,,,,,,,,"[0.30180000000000007,-0.7884,-0.9844]","[-0.9296,-0.12959999999999994,-0.043199999999999905]",-55,103,1,0,0,response7disk,11,-2,1,0,0,rectangle,11,-2,1,0,0,,3,0.0005,0,11,-2,1,0,0,0,5,5,123,1,42,second,,,,,,,,,,,,,,,,,,,,,,,,,,,,,,,,,,,,,,,,,,,,,,,,,,,,,,,,,,,,,,,,,,
,,,,,,616d50472a9af48a47847e01,62bbfe8cbe1a341178826034,2022-06-29_09h26.43.501,Colour_Asymmetry_Pilot,2022.1.3,Win32,60.14314067,62bbe60bf3d75ef465d3e404,,,,,,,,,,,,,,,,,,,,fourthree,,2,1.1502,,,,,,,,,,,,,,,,,,,,,,,,,,,,,,,,,,"[-0.26280000000000003,-0.4746,-0.2158]","[0.7646000000000002,0.07440000000000002,0.2704]",111,-45,1,0,0,response3disk,-6,-3,1,0,0,rectangle,-6,-3,1,0,0,,1,0.0026,0,-6,-3,1,0,0,0,6,6,79,1,79,first,,,,,,,,,,,,,,,,,,,,,,,,,,,,,,,,,,,,,,,,,,,,,,,,,,,,,,,,,,,,,,,,,,
,,,,,,616d50472a9af48a47847e01,62bbfe8cbe1a341178826034,2022-06-29_09h26.43.501,Colour_Asymmetry_Pilot,2022.1.3,Win32,60.14314067,62bbe60bf3d75ef465d3e404,,,,,,,,,,,,,,,,,,,,threefour,,-3,0.75,,,,,,,,,,,,,,,,,,,,,,,,,,,,,,,,,,"[0.3568,-0.20799999999999996,-0.9844]","[-0.24719999999999998,-0.0354000000000001,0.3175999999999999]",-94,56,1,0,0,response7disk,7,-8,1,0,0,rectangle,7,-8,1,0,0,,2,0.0012,0,7,-8,1,0,0,0,7,7,111,1,30,second,,,,,,,,,,,,,,,,,,,,,,,,,,,,,,,,,,,,,,,,,,,,,,,,,,,,,,,,,,,,,,,,,,
,,,,,,616d50472a9af48a47847e01,62bbfe8cbe1a341178826034,2022-06-29_09h26.43.501,Colour_Asymmetry_Pilot,2022.1.3,Win32,60.14314067,62bbe60bf3d75ef465d3e404,,,,,,,,,,,,,,,,,,,,onetwo,,3,1.3429,,,,,,,,,,,,,,,,,,,,,,,,,,,,,,,,,,"[0.37240000000000006,-0.050999999999999934,-0.5216]","[0.7018,0.7802,-0.16079999999999994]",107,36,1,0,0,response1disk,-6,-2,1,0,0,rectangle,-6,-2,1,0,0,,3,0.0015,0,-6,-2,1,0,0,0,8,8,12,1,12,first,,,,,,,,,,,,,,,,,,,,,,,,,,,,,,,,,,,,,,,,,,,,,,,,,,,,,,,,,,,,,,,,,,
,,,,,,616d50472a9af48a47847e01,62bbfe8cbe1a341178826034,2022-06-29_09h26.43.501,Colour_Asymmetry_Pilot,2022.1.3,Win32,60.14314067,62bbe60bf3d75ef465d3e404,,,,,,,,,,,,,,,,,,,,onetwo,,-1,1.9524,,,,,,,,,,,,,,,,,,,,,,,,,,,,,,,,,,"[0.7802,-0.23140000000000005,-0.20799999999999996]","[-0.17659999999999998,-0.2864,-0.8354]",-35,-89,1,0,0,response5disk,2,6,1,0,0,rectangle,2,6,1,0,0,,3,0.0005,0,2,6,1,0,0,0,9,9,114,1,33,second,,,,,,,,,,,,,,,,,,,,,,,,,,,,,,,,,,,,,,,,,,,,,,,,,,,,,,,,,,,,,,,,,,
,,,,,,616d50472a9af48a47847e01,62bbfe8cbe1a341178826034,2022-06-29_09h26.43.501,Colour_Asymmetry_Pilot,2022.1.3,Win32,60.14314067,62bbe60bf3d75ef465d3e404,,,,,,,,,,,,,,,,,,,,twofour,,-3,1.2256,,,,,,,,,,,,,,,,,,,,,,,,,,,,,,,,,,"[-0.17659999999999998,-0.2864,-0.8354]","[-0.6,0.16860000000000008,0.44300000000000006]",-88,42,1,0,0,response7disk,4,2,1,0,0,rectangle,4,2,1,0,0,,2,0.0012,0,4,2,1,0,0,0,10,10,142,1,61,second,,,,,,,,,,,,,,,,,,,,,,,,,,,,,,,,,,,,,,,,,,,,,,,,,,,,,,,,,,,,,,,,,,
,,,,,,616d50472a9af48a47847e01,62bbfe8cbe1a341178826034,2022-06-29_09h26.43.501,Colour_Asymmetry_Pilot,2022.1.3,Win32,60.14314067,62bbe60bf3d75ef465d3e404,,,,,,,,,,,,,,,,,,,,onethree,,-4,0.6177,,,,,,,,,,,,,,,,,,,,,,,,,,,,,,,,,,"[0.796,0.2156,-0.27859999999999996]","[-0.9688,-0.4902000000000001,-0.12159999999999993]",-28,76,1,0,0,response7disk,2,-4,1,0,0,rectangle,2,-4,1,0,0,,2,0.0004,0,2,-4,1,0,0,0,11,11,91,1,10,second,,,,,,,,,,,,,,,,,,,,,,,,,,,,,,,,,,,,,,,,,,,,,,,,,,,,,,,,,,,,,,,,,,
,,,,,,616d50472a9af48a47847e01,62bbfe8cbe1a341178826034,2022-06-29_09h26.43.501,Colour_Asymmetry_Pilot,2022.1.3,Win32,60.14314067,62bbe60bf3d75ef465d3e404,,,,,,,,,,,,,,,,,,,,threeone,,-4,0.4582,,,,,,,,,,,,,,,,,,,,,,,,,,,,,,,,,,"[-0.5452,-0.608,0.2470000000000001]","[0.796,0.2156,-0.27859999999999996]",-58,80,1,0,0,response7disk,-8,-1,1,0,0,rectangle,-8,-1,1,0,0,,3,0.0012,0,-8,-1,1,0,0,0,12,12,3,1,3,first,,,,,,,,,,,,,,,,,,,,,,,,,,,,,,,,,,,,,,,,,,,,,,,,,,,,,,,,,,,,,,,,,,
,,,,,,616d50472a9af48a47847e01,62bbfe8cbe1a341178826034,2022-06-29_09h26.43.501,Colour_Asymmetry_Pilot,2022.1.3,Win32,60.14314067,62bbe60bf3d75ef465d3e404,,,,,,,,,,,,,,,,,,,,fourtwo,,2,1.7424,,,,,,,,,,,,,,,,,,,,,,,,,,,,,,,,,,"[-0.2942,-0.7648,-0.7492000000000001]","[0.9372,0.20779999999999998,0.2704]",90,-46,1,0,0,response3disk,12,-7,1,0,0,rectangle,12,-7,1,0,0,,1,0.0032,0,12,-7,1,0,0,0,13,13,83,1,2,second,,,,,,,,,,,,,,,,,,,,,,,,,,,,,,,,,,,,,,,,,,,,,,,,,,,,,,,,,,,,,,,,,,
,,,,,,616d50472a9af48a47847e01,62bbfe8cbe1a341178826034,2022-06-29_09h26.43.501,Colour_Asymmetry_Pilot,2022.1.3,Win32,60.14314067,62bbe60bf3d75ef465d3e404,,,,,,,,,,,,,,,,,,,,threeone,,-4,0.4504,,,,,,,,,,,,,,,,,,,,,,,,,,,,,,,,,,"[0.40379999999999994,0.09000000000000008,0.44300000000000006]","[-0.7412000000000001,-0.08239999999999992,-0.6864]",-71,114,1,0,0,response7disk,-2,4,1,0,0,rectangle,-2,4,1,0,0,,1,0.0005,0,-2,4,1,0,0,0,14,14,46,1,46,first,,,,,,,,,,,,,,,,,,,,,,,,,,,,,,,,,,,,,,,,,,,,,,,,,,,,,,,,,,,,,,,,,,
,,,,,,616d50472a9af48a47847e01,62bbfe8cbe1a341178826034,2022-06-29_09h26.43.501,Colour_Asymmetry_Pilot,2022.1.3,Win32,60.14314067,62bbe60bf3d75ef465d3e404,,,,,,,,,,,,,,,,,,,,threeone,,-4,0.4828,,,,,,,,,,,,,,,,,,,,,,,,,,,,,,,,,,"[0.3881999999999999,-0.23939999999999995,-0.05040000000000011]","[0.34099999999999997,0.12939999999999996,-0.9766]",-57,106,1,0,0,response7disk,-3,-1,1,0,0,rectangle,-3,-1,1,0,0,,1,0.0002,0,-3,-1,1,0,0,0,15,15,40,1,40,first,,,,,,,,,,,,,,,,,,,,,,,,,,,,,,,,,,,,,,,,,,,,,,,,,,,,,,,,,,,,,,,,,,
,,,,,,616d50472a9af48a47847e01,62bbfe8cbe1a341178826034,2022-06-29_09h26.43.501,Colour_Asymmetry_Pilot,2022.1.3,Win32,60.14314067,62bbe60bf3d75ef465d3e404,,,,,,,,,,,,,,,,,,,,threefour,,-4,0.4504,,,,,,,,,,,,,,,,,,,,,,,,,,,,,,,,,,"[0.7176,-0.906,-0.6864]","[0.2862,0.7802,0.3568]",-53,101,1,0,0,response7disk,7,2,1,0,0,rectangle,7,2,1,0,0,,3,0.0022,0,7,2,1,0,0,0,16,16,148,1,67,second,,,,,,,,,,,,,,,,,,,,,,,,,,,,,,,,,,,,,,,,,,,,,,,,,,,,,,,,,,,,,,,,,,
,,,,,,616d50472a9af48a47847e01,62bbfe8cbe1a341178826034,2022-06-29_09h26.43.501,Colour_Asymmetry_Pilot,2022.1.3,Win32,60.14314067,62bbe60bf3d75ef465d3e404,,,,,,,,,,,,,,,,,,,,threefour,,3,0.9504,,,,,,,,,,,,,,,,,,,,,,,,,,,,,,,,,,"[0.12939999999999996,-0.2864,0.3253999999999999]","[0.19199999999999995,0.18419999999999992,0.5136000000000001]",105,41,1,0,0,response1disk,7,-1,1,0,0,rectangle,7,-1,1,0,0,,2,0.0022,0,7,-1,1,0,0,0,17,17,147,1,66,second,,,,,,,,,,,,,,,,,,,,,,,,,,,,,,,,,,,,,,,,,,,,,,,,,,,,,,,,,,,,,,,,,,
,,,,,,616d50472a9af48a47847e01,62bbfe8cbe1a341178826034,2022-06-29_09h26.43.501,Colour_Asymmetry_Pilot,2022.1.3,Win32,60.14314067,62bbe60bf3d75ef465d3e404,,,,,,,,,,,,,,,,,,,,fourtwo,,3,0.8499,,,,,,,,,,,,,,,,,,,,,,,,,,,,,,,,,,"[-0.8982,-0.37259999999999993,0.2784]","[-0.6235999999999999,-0.6786,-0.08239999999999992]",103,31,1,0,0,response1disk,23,-18,1,0,0,rectangle,23,-18,1,0,0,2,2,0.0003,0,23,-18,1,0,0,0,18,18,95,1,14,second,,,,,,,,,,,,,,,,,,,,,,,,,,,,,,,,,,,,,,,,,,,,,,,,,,,,,,,,,,,,,,,,,,
,,,,,,616d50472a9af48a47847e01,62bbfe8cbe1a341178826034,2022-06-29_09h26.43.501,Colour_Asymmetry_Pilot,2022.1.3,Win32,60.14314067,62bbe60bf3d75ef465d3e404,,,,,,,,,,,,,,,,,,,,threeone,,-4,0.3004,,,,,,,,,,,,,,,,,,,,,,,,,,,,,,,,,,"[0.6625999999999999,0.4980000000000002,-0.357]","[-0.9688,-0.38039999999999996,-0.41979999999999995]",-43,97,1,0,0,response7disk,-7,-8,1,0,0,rectangle,-7,-8,1,0,0,2,2,0.0008,0,-7,-8,1,0,0,0,19,19,113,1,32,second,,,,,,,,,,,,,,,,,,,,,,,,,,,,,,,,,,,,,,,,,,,,,,,,,,,,,,,,,,,,,,,,,,
,,,,,,616d50472a9af48a47847e01,62bbfe8cbe1a341178826034,2022-06-29_09h26.43.501,Colour_Asymmetry_Pilot,2022.1.3,Win32,60.14314067,62bbe60bf3d75ef465d3e404,,,,,,,,,,,,,,,,,,,,twoone,,-1,1.733,,,,,,,,,,,,,,,,,,,,,,,,,,,,,,,,,,"[0.40379999999999994,0.09000000000000008,0.44300000000000006]","[0.9372,0.20779999999999998,0.2704]",-23,-74,1,0,0,response5disk,3,-14,1,0,0,rectangle,3,-14,1,0,0,2,2,0.0001,0,3,-14,1,0,0,0,20,20,20,1,20,first,,,,,,,,,,,,,,,,,,,,,,,,,,,,,,,,,,,,,,,,,,,,,,,,,,,,,,,,,,,,,,,,,,
,,,,,,616d50472a9af48a47847e01,62bbfe8cbe1a341178826034,2022-06-29_09h26.43.501,Colour_Asymmetry_Pilot,2022.1.3,Win32,60.14314067,62bbe60bf3d75ef465d3e404,,,,,,,,,,,,,,,,,,,,twofour,,3,1.0495,,,,,,,,,,,,,,,,,,,,,,,,,,,,,,,,,,"[0.8115999999999999,-0.0040000000000000036,-0.09819999999999995]","[-0.2942,-0.7648,-0.7492000000000001]",87,51,1,0,0,response1disk,7,5,1,0,0,rectangle,7,5,1,0,0,2,2,0.0003,0,7,5,1,0,0,0,21,21,129,1,48,second,,,,,,,,,,,,,,,,,,,,,,,,,,,,,,,,,,,,,,,,,,,,,,,,,,,,,,,,,,,,,,,,,,
