trials.thisRepN,trials.thisTrialN,trials.thisN,trials.thisIndex,trials.ran,Colourcodes,participant,session,date,expName,psychopyVersion,OS,frameRate,study_id,trials_4.thisRepN,trials_4.thisTrialN,trials_4.thisN,trials_4.thisIndex,trials_4.ran,StimulusPos,key_resp.keys,key_resp.rt,key_resp_2.keys,key_resp_2.rt,key_resp_15.keys,key_resp_15.rt,key_resp_17.keys,key_resp_17.rt,key_resp_9.keys,key_resp_9.rt,key_resp_10.keys,key_resp_10.rt,Circle1_col,Ecc,Circle2_col,similarity,response_time,mouse_5.x,mouse_5.y,mouse_5.leftButton,mouse_5.midButton,mouse_5.rightButton,mouse_5.clicked_name,mouse_10.x,mouse_10.y,mouse_10.leftButton,mouse_10.midButton,mouse_10.rightButton,mouse_10.clicked_name,mouse_7.x,mouse_7.y,mouse_7.leftButton,mouse_7.midButton,mouse_7.rightButton,catchnumberprac,mouse_6.x,mouse_6.y,mouse_6.leftButton,mouse_6.midButton,mouse_6.rightButton,duringprac.thisRepN,duringprac.thisTrialN,duringprac.thisN,duringprac.thisIndex,duringprac.ran,mouse_7.clicked_name,catchprac,mouse_6.clicked_name,key_resp_22.keys,key_resp_22.rt,Circle1_colour,Circle2_colour,mouse.x,mouse.y,mouse.leftButton,mouse.midButton,mouse.rightButton,mouse.clicked_name,mouse_2.x,mouse_2.y,mouse_2.leftButton,mouse_2.midButton,mouse_2.rightButton,mouse_2.clicked_name,mouse_3.x,mouse_3.y,mouse_3.leftButton,mouse_3.midButton,mouse_3.rightButton,catchresponse,catchnumber,response_time_catch,Catch,mouse_11.x,mouse_11.y,mouse_11.leftButton,mouse_11.midButton,mouse_11.rightButton,trials_2.thisRepN,trials_2.thisTrialN,trials_2.thisN,trials_2.thisIndex,trials_2.ran,Colourpair,Temporder,mouse_3.clicked_name,mouse_11.clicked_name,trials_3.thisRepN,trials_3.thisTrialN,trials_3.thisN,trials_3.thisIndex,trials_3.ran,key_resp_instr_Ishi.keys,key_resp_instr_Ishi.rt,Ishi_trial_keyresp.keys,Ishi_trial_keyresp.rt,Ishi_textbox.text,Ishi_loop.thisRepN,Ishi_loop.thisTrialN,Ishi_loop.thisN,Ishi_loop.thisIndex,Ishi_loop.ran,imageaddress,textbox.text,mouse_4.x,mouse_4.y,mouse_4.leftButton,mouse_4.midButton,mouse_4.rightButton,mouse_4.clicked_name,textbox_2.text,mouse_8.x,mouse_8.y,mouse_8.leftButton,mouse_8.midButton,mouse_8.rightButton,mouse_8.clicked_name,textbox_3.text,mouse_9.x,mouse_9.y,mouse_9.leftButton,mouse_9.midButton,mouse_9.rightButton,mouse_9.clicked_name,textbox_4.text,mouse_12.x,mouse_12.y,mouse_12.leftButton,mouse_12.midButton,mouse_12.rightButton,mouse_12.clicked_name,textbox_5.text,mouse_13.x,mouse_13.y,mouse_13.leftButton,mouse_13.midButton,mouse_13.rightButton,mouse_13.clicked_name,textbox_6.text,mouse_14.x,mouse_14.y,mouse_14.leftButton,mouse_14.midButton,mouse_14.rightButton,mouse_14.clicked_name,textbox_7.text,mouse_15.x,mouse_15.y,mouse_15.leftButton,mouse_15.midButton,mouse_15.rightButton,mouse_15.clicked_name
0,0,0,9,1,,59e5a69916ecc200016fefdb,62bbfa0f1ce067b5633dbc61,2022-06-29_02h09.12.718,Colour_Asymmetry_Pilot,2022.1.3,Win32,29.89536622,62bbe60bf3d75ef465d3e404,,,,,,,,,,,,,,,,,,,,,,,,,,,,,,,,,,,,,,,,,,,,,,,,,,,,,,,,,,,,,,,,,,,,,,,,,,,,,,,,,,,,,,,,,,,,,,,,,,,,,,,,,,,,,,,,,,,,,,,,,,,,,,,,,,,,,,,,,,,,,,,,,,,,,,,,,,,,,,
0,1,1,45,1,,59e5a69916ecc200016fefdb,62bbfa0f1ce067b5633dbc61,2022-06-29_02h09.12.718,Colour_Asymmetry_Pilot,2022.1.3,Win32,29.89536622,62bbe60bf3d75ef465d3e404,,,,,,,,,,,,,,,,,,,,,,,,,,,,,,,,,,,,,,,,,,,,,,,,,,,,,,,,,,,,,,,,,,,,,,,,,,,,,,,,,,,,,,,,,,,,,,,,,,,,,,,,,,,,,,,,,,,,,,,,,,,,,,,,,,,,,,,,,,,,,,,,,,,,,,,,,,,,,,
0,2,2,71,1,,59e5a69916ecc200016fefdb,62bbfa0f1ce067b5633dbc61,2022-06-29_02h09.12.718,Colour_Asymmetry_Pilot,2022.1.3,Win32,29.89536622,62bbe60bf3d75ef465d3e404,,,,,,,,,,,,,,,,,,,,,,,,,,,,,,,,,,,,,,,,,,,,,,,,,,,,,,,,,,,,,,,,,,,,,,,,,,,,,,,,,,,,,,,,,,,,,,,,,,,,,,,,,,,,,,,,,,,,,,,,,,,,,,,,,,,,,,,,,,,,,,,,,,,,,,,,,,,,,,
0,3,3,64,1,,59e5a69916ecc200016fefdb,62bbfa0f1ce067b5633dbc61,2022-06-29_02h09.12.718,Colour_Asymmetry_Pilot,2022.1.3,Win32,29.89536622,62bbe60bf3d75ef465d3e404,,,,,,,,,,,,,,,,,,,,,,,,,,,,,,,,,,,,,,,,,,,,,,,,,,,,,,,,,,,,,,,,,,,,,,,,,,,,,,,,,,,,,,,,,,,,,,,,,,,,,,,,,,,,,,,,,,,,,,,,,,,,,,,,,,,,,,,,,,,,,,,,,,,,,,,,,,,,,,
0,4,4,68,1,,59e5a69916ecc200016fefdb,62bbfa0f1ce067b5633dbc61,2022-06-29_02h09.12.718,Colour_Asymmetry_Pilot,2022.1.3,Win32,29.89536622,62bbe60bf3d75ef465d3e404,,,,,,,,,,,,,,,,,,,,,,,,,,,,,,,,,,,,,,,,,,,,,,,,,,,,,,,,,,,,,,,,,,,,,,,,,,,,,,,,,,,,,,,,,,,,,,,,,,,,,,,,,,,,,,,,,,,,,,,,,,,,,,,,,,,,,,,,,,,,,,,,,,,,,,,,,,,,,,
0,5,5,89,1,,59e5a69916ecc200016fefdb,62bbfa0f1ce067b5633dbc61,2022-06-29_02h09.12.718,Colour_Asymmetry_Pilot,2022.1.3,Win32,29.89536622,62bbe60bf3d75ef465d3e404,,,,,,,,,,,,,,,,,,,,,,,,,,,,,,,,,,,,,,,,,,,,,,,,,,,,,,,,,,,,,,,,,,,,,,,,,,,,,,,,,,,,,,,,,,,,,,,,,,,,,,,,,,,,,,,,,,,,,,,,,,,,,,,,,,,,,,,,,,,,,,,,,,,,,,,,,,,,,,
0,6,6,51,1,,59e5a69916ecc200016fefdb,62bbfa0f1ce067b5633dbc61,2022-06-29_02h09.12.718,Colour_Asymmetry_Pilot,2022.1.3,Win32,29.89536622,62bbe60bf3d75ef465d3e404,,,,,,,,,,,,,,,,,,,,,,,,,,,,,,,,,,,,,,,,,,,,,,,,,,,,,,,,,,,,,,,,,,,,,,,,,,,,,,,,,,,,,,,,,,,,,,,,,,,,,,,,,,,,,,,,,,,,,,,,,,,,,,,,,,,,,,,,,,,,,,,,,,,,,,,,,,,,,,
0,7,7,7,1,,59e5a69916ecc200016fefdb,62bbfa0f1ce067b5633dbc61,2022-06-29_02h09.12.718,Colour_Asymmetry_Pilot,2022.1.3,Win32,29.89536622,62bbe60bf3d75ef465d3e404,,,,,,,,,,,,,,,,,,,,,,,,,,,,,,,,,,,,,,,,,,,,,,,,,,,,,,,,,,,,,,,,,,,,,,,,,,,,,,,,,,,,,,,,,,,,,,,,,,,,,,,,,,,,,,,,,,,,,,,,,,,,,,,,,,,,,,,,,,,,,,,,,,,,,,,,,,,,,,
0,8,8,58,1,,59e5a69916ecc200016fefdb,62bbfa0f1ce067b5633dbc61,2022-06-29_02h09.12.718,Colour_Asymmetry_Pilot,2022.1.3,Win32,29.89536622,62bbe60bf3d75ef465d3e404,,,,,,,,,,,,,,,,,,,,,,,,,,,,,,,,,,,,,,,,,,,,,,,,,,,,,,,,,,,,,,,,,,,,,,,,,,,,,,,,,,,,,,,,,,,,,,,,,,,,,,,,,,,,,,,,,,,,,,,,,,,,,,,,,,,,,,,,,,,,,,,,,,,,,,,,,,,,,,
0,9,9,19,1,,59e5a69916ecc200016fefdb,62bbfa0f1ce067b5633dbc61,2022-06-29_02h09.12.718,Colour_Asymmetry_Pilot,2022.1.3,Win32,29.89536622,62bbe60bf3d75ef465d3e404,,,,,,,,,,,,,,,,,,,,,,,,,,,,,,,,,,,,,,,,,,,,,,,,,,,,,,,,,,,,,,,,,,,,,,,,,,,,,,,,,,,,,,,,,,,,,,,,,,,,,,,,,,,,,,,,,,,,,,,,,,,,,,,,,,,,,,,,,,,,,,,,,,,,,,,,,,,,,,
0,10,10,91,1,,59e5a69916ecc200016fefdb,62bbfa0f1ce067b5633dbc61,2022-06-29_02h09.12.718,Colour_Asymmetry_Pilot,2022.1.3,Win32,29.89536622,62bbe60bf3d75ef465d3e404,,,,,,,,,,,,,,,,,,,,,,,,,,,,,,,,,,,,,,,,,,,,,,,,,,,,,,,,,,,,,,,,,,,,,,,,,,,,,,,,,,,,,,,,,,,,,,,,,,,,,,,,,,,,,,,,,,,,,,,,,,,,,,,,,,,,,,,,,,,,,,,,,,,,,,,,,,,,,,
0,11,11,59,1,,59e5a69916ecc200016fefdb,62bbfa0f1ce067b5633dbc61,2022-06-29_02h09.12.718,Colour_Asymmetry_Pilot,2022.1.3,Win32,29.89536622,62bbe60bf3d75ef465d3e404,,,,,,,,,,,,,,,,,,,,,,,,,,,,,,,,,,,,,,,,,,,,,,,,,,,,,,,,,,,,,,,,,,,,,,,,,,,,,,,,,,,,,,,,,,,,,,,,,,,,,,,,,,,,,,,,,,,,,,,,,,,,,,,,,,,,,,,,,,,,,,,,,,,,,,,,,,,,,,
0,12,12,22,1,,59e5a69916ecc200016fefdb,62bbfa0f1ce067b5633dbc61,2022-06-29_02h09.12.718,Colour_Asymmetry_Pilot,2022.1.3,Win32,29.89536622,62bbe60bf3d75ef465d3e404,,,,,,,,,,,,,,,,,,,,,,,,,,,,,,,,,,,,,,,,,,,,,,,,,,,,,,,,,,,,,,,,,,,,,,,,,,,,,,,,,,,,,,,,,,,,,,,,,,,,,,,,,,,,,,,,,,,,,,,,,,,,,,,,,,,,,,,,,,,,,,,,,,,,,,,,,,,,,,
0,13,13,15,1,,59e5a69916ecc200016fefdb,62bbfa0f1ce067b5633dbc61,2022-06-29_02h09.12.718,Colour_Asymmetry_Pilot,2022.1.3,Win32,29.89536622,62bbe60bf3d75ef465d3e404,,,,,,,,,,,,,,,,,,,,,,,,,,,,,,,,,,,,,,,,,,,,,,,,,,,,,,,,,,,,,,,,,,,,,,,,,,,,,,,,,,,,,,,,,,,,,,,,,,,,,,,,,,,,,,,,,,,,,,,,,,,,,,,,,,,,,,,,,,,,,,,,,,,,,,,,,,,,,,
0,14,14,44,1,,59e5a69916ecc200016fefdb,62bbfa0f1ce067b5633dbc61,2022-06-29_02h09.12.718,Colour_Asymmetry_Pilot,2022.1.3,Win32,29.89536622,62bbe60bf3d75ef465d3e404,,,,,,,,,,,,,,,,,,,,,,,,,,,,,,,,,,,,,,,,,,,,,,,,,,,,,,,,,,,,,,,,,,,,,,,,,,,,,,,,,,,,,,,,,,,,,,,,,,,,,,,,,,,,,,,,,,,,,,,,,,,,,,,,,,,,,,,,,,,,,,,,,,,,,,,,,,,,,,
0,15,15,12,1,,59e5a69916ecc200016fefdb,62bbfa0f1ce067b5633dbc61,2022-06-29_02h09.12.718,Colour_Asymmetry_Pilot,2022.1.3,Win32,29.89536622,62bbe60bf3d75ef465d3e404,,,,,,,,,,,,,,,,,,,,,,,,,,,,,,,,,,,,,,,,,,,,,,,,,,,,,,,,,,,,,,,,,,,,,,,,,,,,,,,,,,,,,,,,,,,,,,,,,,,,,,,,,,,,,,,,,,,,,,,,,,,,,,,,,,,,,,,,,,,,,,,,,,,,,,,,,,,,,,
0,16,16,18,1,,59e5a69916ecc200016fefdb,62bbfa0f1ce067b5633dbc61,2022-06-29_02h09.12.718,Colour_Asymmetry_Pilot,2022.1.3,Win32,29.89536622,62bbe60bf3d75ef465d3e404,,,,,,,,,,,,,,,,,,,,,,,,,,,,,,,,,,,,,,,,,,,,,,,,,,,,,,,,,,,,,,,,,,,,,,,,,,,,,,,,,,,,,,,,,,,,,,,,,,,,,,,,,,,,,,,,,,,,,,,,,,,,,,,,,,,,,,,,,,,,,,,,,,,,,,,,,,,,,,
0,17,17,37,1,,59e5a69916ecc200016fefdb,62bbfa0f1ce067b5633dbc61,2022-06-29_02h09.12.718,Colour_Asymmetry_Pilot,2022.1.3,Win32,29.89536622,62bbe60bf3d75ef465d3e404,,,,,,,,,,,,,,,,,,,,,,,,,,,,,,,,,,,,,,,,,,,,,,,,,,,,,,,,,,,,,,,,,,,,,,,,,,,,,,,,,,,,,,,,,,,,,,,,,,,,,,,,,,,,,,,,,,,,,,,,,,,,,,,,,,,,,,,,,,,,,,,,,,,,,,,,,,,,,,
0,18,18,76,1,,59e5a69916ecc200016fefdb,62bbfa0f1ce067b5633dbc61,2022-06-29_02h09.12.718,Colour_Asymmetry_Pilot,2022.1.3,Win32,29.89536622,62bbe60bf3d75ef465d3e404,,,,,,,,,,,,,,,,,,,,,,,,,,,,,,,,,,,,,,,,,,,,,,,,,,,,,,,,,,,,,,,,,,,,,,,,,,,,,,,,,,,,,,,,,,,,,,,,,,,,,,,,,,,,,,,,,,,,,,,,,,,,,,,,,,,,,,,,,,,,,,,,,,,,,,,,,,,,,,
0,19,19,84,1,,59e5a69916ecc200016fefdb,62bbfa0f1ce067b5633dbc61,2022-06-29_02h09.12.718,Colour_Asymmetry_Pilot,2022.1.3,Win32,29.89536622,62bbe60bf3d75ef465d3e404,,,,,,,,,,,,,,,,,,,,,,,,,,,,,,,,,,,,,,,,,,,,,,,,,,,,,,,,,,,,,,,,,,,,,,,,,,,,,,,,,,,,,,,,,,,,,,,,,,,,,,,,,,,,,,,,,,,,,,,,,,,,,,,,,,,,,,,,,,,,,,,,,,,,,,,,,,,,,,
0,20,20,14,1,,59e5a69916ecc200016fefdb,62bbfa0f1ce067b5633dbc61,2022-06-29_02h09.12.718,Colour_Asymmetry_Pilot,2022.1.3,Win32,29.89536622,62bbe60bf3d75ef465d3e404,,,,,,,,,,,,,,,,,,,,,,,,,,,,,,,,,,,,,,,,,,,,,,,,,,,,,,,,,,,,,,,,,,,,,,,,,,,,,,,,,,,,,,,,,,,,,,,,,,,,,,,,,,,,,,,,,,,,,,,,,,,,,,,,,,,,,,,,,,,,,,,,,,,,,,,,,,,,,,
0,21,21,56,1,,59e5a69916ecc200016fefdb,62bbfa0f1ce067b5633dbc61,2022-06-29_02h09.12.718,Colour_Asymmetry_Pilot,2022.1.3,Win32,29.89536622,62bbe60bf3d75ef465d3e404,,,,,,,,,,,,,,,,,,,,,,,,,,,,,,,,,,,,,,,,,,,,,,,,,,,,,,,,,,,,,,,,,,,,,,,,,,,,,,,,,,,,,,,,,,,,,,,,,,,,,,,,,,,,,,,,,,,,,,,,,,,,,,,,,,,,,,,,,,,,,,,,,,,,,,,,,,,,,,
0,22,22,67,1,,59e5a69916ecc200016fefdb,62bbfa0f1ce067b5633dbc61,2022-06-29_02h09.12.718,Colour_Asymmetry_Pilot,2022.1.3,Win32,29.89536622,62bbe60bf3d75ef465d3e404,,,,,,,,,,,,,,,,,,,,,,,,,,,,,,,,,,,,,,,,,,,,,,,,,,,,,,,,,,,,,,,,,,,,,,,,,,,,,,,,,,,,,,,,,,,,,,,,,,,,,,,,,,,,,,,,,,,,,,,,,,,,,,,,,,,,,,,,,,,,,,,,,,,,,,,,,,,,,,
0,23,23,90,1,,59e5a69916ecc200016fefdb,62bbfa0f1ce067b5633dbc61,2022-06-29_02h09.12.718,Colour_Asymmetry_Pilot,2022.1.3,Win32,29.89536622,62bbe60bf3d75ef465d3e404,,,,,,,,,,,,,,,,,,,,,,,,,,,,,,,,,,,,,,,,,,,,,,,,,,,,,,,,,,,,,,,,,,,,,,,,,,,,,,,,,,,,,,,,,,,,,,,,,,,,,,,,,,,,,,,,,,,,,,,,,,,,,,,,,,,,,,,,,,,,,,,,,,,,,,,,,,,,,,
0,24,24,8,1,,59e5a69916ecc200016fefdb,62bbfa0f1ce067b5633dbc61,2022-06-29_02h09.12.718,Colour_Asymmetry_Pilot,2022.1.3,Win32,29.89536622,62bbe60bf3d75ef465d3e404,,,,,,,,,,,,,,,,,,,,,,,,,,,,,,,,,,,,,,,,,,,,,,,,,,,,,,,,,,,,,,,,,,,,,,,,,,,,,,,,,,,,,,,,,,,,,,,,,,,,,,,,,,,,,,,,,,,,,,,,,,,,,,,,,,,,,,,,,,,,,,,,,,,,,,,,,,,,,,
0,25,25,27,1,,59e5a69916ecc200016fefdb,62bbfa0f1ce067b5633dbc61,2022-06-29_02h09.12.718,Colour_Asymmetry_Pilot,2022.1.3,Win32,29.89536622,62bbe60bf3d75ef465d3e404,,,,,,,,,,,,,,,,,,,,,,,,,,,,,,,,,,,,,,,,,,,,,,,,,,,,,,,,,,,,,,,,,,,,,,,,,,,,,,,,,,,,,,,,,,,,,,,,,,,,,,,,,,,,,,,,,,,,,,,,,,,,,,,,,,,,,,,,,,,,,,,,,,,,,,,,,,,,,,
0,26,26,4,1,,59e5a69916ecc200016fefdb,62bbfa0f1ce067b5633dbc61,2022-06-29_02h09.12.718,Colour_Asymmetry_Pilot,2022.1.3,Win32,29.89536622,62bbe60bf3d75ef465d3e404,,,,,,,,,,,,,,,,,,,,,,,,,,,,,,,,,,,,,,,,,,,,,,,,,,,,,,,,,,,,,,,,,,,,,,,,,,,,,,,,,,,,,,,,,,,,,,,,,,,,,,,,,,,,,,,,,,,,,,,,,,,,,,,,,,,,,,,,,,,,,,,,,,,,,,,,,,,,,,
0,27,27,73,1,,59e5a69916ecc200016fefdb,62bbfa0f1ce067b5633dbc61,2022-06-29_02h09.12.718,Colour_Asymmetry_Pilot,2022.1.3,Win32,29.89536622,62bbe60bf3d75ef465d3e404,,,,,,,,,,,,,,,,,,,,,,,,,,,,,,,,,,,,,,,,,,,,,,,,,,,,,,,,,,,,,,,,,,,,,,,,,,,,,,,,,,,,,,,,,,,,,,,,,,,,,,,,,,,,,,,,,,,,,,,,,,,,,,,,,,,,,,,,,,,,,,,,,,,,,,,,,,,,,,
0,28,28,36,1,,59e5a69916ecc200016fefdb,62bbfa0f1ce067b5633dbc61,2022-06-29_02h09.12.718,Colour_Asymmetry_Pilot,2022.1.3,Win32,29.89536622,62bbe60bf3d75ef465d3e404,,,,,,,,,,,,,,,,,,,,,,,,,,,,,,,,,,,,,,,,,,,,,,,,,,,,,,,,,,,,,,,,,,,,,,,,,,,,,,,,,,,,,,,,,,,,,,,,,,,,,,,,,,,,,,,,,,,,,,,,,,,,,,,,,,,,,,,,,,,,,,,,,,,,,,,,,,,,,,
0,29,29,29,1,,59e5a69916ecc200016fefdb,62bbfa0f1ce067b5633dbc61,2022-06-29_02h09.12.718,Colour_Asymmetry_Pilot,2022.1.3,Win32,29.89536622,62bbe60bf3d75ef465d3e404,,,,,,,,,,,,,,,,,,,,,,,,,,,,,,,,,,,,,,,,,,,,,,,,,,,,,,,,,,,,,,,,,,,,,,,,,,,,,,,,,,,,,,,,,,,,,,,,,,,,,,,,,,,,,,,,,,,,,,,,,,,,,,,,,,,,,,,,,,,,,,,,,,,,,,,,,,,,,,
0,30,30,83,1,,59e5a69916ecc200016fefdb,62bbfa0f1ce067b5633dbc61,2022-06-29_02h09.12.718,Colour_Asymmetry_Pilot,2022.1.3,Win32,29.89536622,62bbe60bf3d75ef465d3e404,,,,,,,,,,,,,,,,,,,,,,,,,,,,,,,,,,,,,,,,,,,,,,,,,,,,,,,,,,,,,,,,,,,,,,,,,,,,,,,,,,,,,,,,,,,,,,,,,,,,,,,,,,,,,,,,,,,,,,,,,,,,,,,,,,,,,,,,,,,,,,,,,,,,,,,,,,,,,,
0,31,31,70,1,,59e5a69916ecc200016fefdb,62bbfa0f1ce067b5633dbc61,2022-06-29_02h09.12.718,Colour_Asymmetry_Pilot,2022.1.3,Win32,29.89536622,62bbe60bf3d75ef465d3e404,,,,,,,,,,,,,,,,,,,,,,,,,,,,,,,,,,,,,,,,,,,,,,,,,,,,,,,,,,,,,,,,,,,,,,,,,,,,,,,,,,,,,,,,,,,,,,,,,,,,,,,,,,,,,,,,,,,,,,,,,,,,,,,,,,,,,,,,,,,,,,,,,,,,,,,,,,,,,,
0,32,32,61,1,,59e5a69916ecc200016fefdb,62bbfa0f1ce067b5633dbc61,2022-06-29_02h09.12.718,Colour_Asymmetry_Pilot,2022.1.3,Win32,29.89536622,62bbe60bf3d75ef465d3e404,,,,,,,,,,,,,,,,,,,,,,,,,,,,,,,,,,,,,,,,,,,,,,,,,,,,,,,,,,,,,,,,,,,,,,,,,,,,,,,,,,,,,,,,,,,,,,,,,,,,,,,,,,,,,,,,,,,,,,,,,,,,,,,,,,,,,,,,,,,,,,,,,,,,,,,,,,,,,,
0,33,33,46,1,,59e5a69916ecc200016fefdb,62bbfa0f1ce067b5633dbc61,2022-06-29_02h09.12.718,Colour_Asymmetry_Pilot,2022.1.3,Win32,29.89536622,62bbe60bf3d75ef465d3e404,,,,,,,,,,,,,,,,,,,,,,,,,,,,,,,,,,,,,,,,,,,,,,,,,,,,,,,,,,,,,,,,,,,,,,,,,,,,,,,,,,,,,,,,,,,,,,,,,,,,,,,,,,,,,,,,,,,,,,,,,,,,,,,,,,,,,,,,,,,,,,,,,,,,,,,,,,,,,,
0,34,34,11,1,,59e5a69916ecc200016fefdb,62bbfa0f1ce067b5633dbc61,2022-06-29_02h09.12.718,Colour_Asymmetry_Pilot,2022.1.3,Win32,29.89536622,62bbe60bf3d75ef465d3e404,,,,,,,,,,,,,,,,,,,,,,,,,,,,,,,,,,,,,,,,,,,,,,,,,,,,,,,,,,,,,,,,,,,,,,,,,,,,,,,,,,,,,,,,,,,,,,,,,,,,,,,,,,,,,,,,,,,,,,,,,,,,,,,,,,,,,,,,,,,,,,,,,,,,,,,,,,,,,,
0,35,35,43,1,,59e5a69916ecc200016fefdb,62bbfa0f1ce067b5633dbc61,2022-06-29_02h09.12.718,Colour_Asymmetry_Pilot,2022.1.3,Win32,29.89536622,62bbe60bf3d75ef465d3e404,,,,,,,,,,,,,,,,,,,,,,,,,,,,,,,,,,,,,,,,,,,,,,,,,,,,,,,,,,,,,,,,,,,,,,,,,,,,,,,,,,,,,,,,,,,,,,,,,,,,,,,,,,,,,,,,,,,,,,,,,,,,,,,,,,,,,,,,,,,,,,,,,,,,,,,,,,,,,,
0,36,36,78,1,,59e5a69916ecc200016fefdb,62bbfa0f1ce067b5633dbc61,2022-06-29_02h09.12.718,Colour_Asymmetry_Pilot,2022.1.3,Win32,29.89536622,62bbe60bf3d75ef465d3e404,,,,,,,,,,,,,,,,,,,,,,,,,,,,,,,,,,,,,,,,,,,,,,,,,,,,,,,,,,,,,,,,,,,,,,,,,,,,,,,,,,,,,,,,,,,,,,,,,,,,,,,,,,,,,,,,,,,,,,,,,,,,,,,,,,,,,,,,,,,,,,,,,,,,,,,,,,,,,,
0,37,37,48,1,,59e5a69916ecc200016fefdb,62bbfa0f1ce067b5633dbc61,2022-06-29_02h09.12.718,Colour_Asymmetry_Pilot,2022.1.3,Win32,29.89536622,62bbe60bf3d75ef465d3e404,,,,,,,,,,,,,,,,,,,,,,,,,,,,,,,,,,,,,,,,,,,,,,,,,,,,,,,,,,,,,,,,,,,,,,,,,,,,,,,,,,,,,,,,,,,,,,,,,,,,,,,,,,,,,,,,,,,,,,,,,,,,,,,,,,,,,,,,,,,,,,,,,,,,,,,,,,,,,,
0,38,38,32,1,,59e5a69916ecc200016fefdb,62bbfa0f1ce067b5633dbc61,2022-06-29_02h09.12.718,Colour_Asymmetry_Pilot,2022.1.3,Win32,29.89536622,62bbe60bf3d75ef465d3e404,,,,,,,,,,,,,,,,,,,,,,,,,,,,,,,,,,,,,,,,,,,,,,,,,,,,,,,,,,,,,,,,,,,,,,,,,,,,,,,,,,,,,,,,,,,,,,,,,,,,,,,,,,,,,,,,,,,,,,,,,,,,,,,,,,,,,,,,,,,,,,,,,,,,,,,,,,,,,,
0,39,39,17,1,,59e5a69916ecc200016fefdb,62bbfa0f1ce067b5633dbc61,2022-06-29_02h09.12.718,Colour_Asymmetry_Pilot,2022.1.3,Win32,29.89536622,62bbe60bf3d75ef465d3e404,,,,,,,,,,,,,,,,,,,,,,,,,,,,,,,,,,,,,,,,,,,,,,,,,,,,,,,,,,,,,,,,,,,,,,,,,,,,,,,,,,,,,,,,,,,,,,,,,,,,,,,,,,,,,,,,,,,,,,,,,,,,,,,,,,,,,,,,,,,,,,,,,,,,,,,,,,,,,,
0,40,40,13,1,,59e5a69916ecc200016fefdb,62bbfa0f1ce067b5633dbc61,2022-06-29_02h09.12.718,Colour_Asymmetry_Pilot,2022.1.3,Win32,29.89536622,62bbe60bf3d75ef465d3e404,,,,,,,,,,,,,,,,,,,,,,,,,,,,,,,,,,,,,,,,,,,,,,,,,,,,,,,,,,,,,,,,,,,,,,,,,,,,,,,,,,,,,,,,,,,,,,,,,,,,,,,,,,,,,,,,,,,,,,,,,,,,,,,,,,,,,,,,,,,,,,,,,,,,,,,,,,,,,,
0,41,41,63,1,,59e5a69916ecc200016fefdb,62bbfa0f1ce067b5633dbc61,2022-06-29_02h09.12.718,Colour_Asymmetry_Pilot,2022.1.3,Win32,29.89536622,62bbe60bf3d75ef465d3e404,,,,,,,,,,,,,,,,,,,,,,,,,,,,,,,,,,,,,,,,,,,,,,,,,,,,,,,,,,,,,,,,,,,,,,,,,,,,,,,,,,,,,,,,,,,,,,,,,,,,,,,,,,,,,,,,,,,,,,,,,,,,,,,,,,,,,,,,,,,,,,,,,,,,,,,,,,,,,,
0,42,42,50,1,,59e5a69916ecc200016fefdb,62bbfa0f1ce067b5633dbc61,2022-06-29_02h09.12.718,Colour_Asymmetry_Pilot,2022.1.3,Win32,29.89536622,62bbe60bf3d75ef465d3e404,,,,,,,,,,,,,,,,,,,,,,,,,,,,,,,,,,,,,,,,,,,,,,,,,,,,,,,,,,,,,,,,,,,,,,,,,,,,,,,,,,,,,,,,,,,,,,,,,,,,,,,,,,,,,,,,,,,,,,,,,,,,,,,,,,,,,,,,,,,,,,,,,,,,,,,,,,,,,,
0,43,43,74,1,,59e5a69916ecc200016fefdb,62bbfa0f1ce067b5633dbc61,2022-06-29_02h09.12.718,Colour_Asymmetry_Pilot,2022.1.3,Win32,29.89536622,62bbe60bf3d75ef465d3e404,,,,,,,,,,,,,,,,,,,,,,,,,,,,,,,,,,,,,,,,,,,,,,,,,,,,,,,,,,,,,,,,,,,,,,,,,,,,,,,,,,,,,,,,,,,,,,,,,,,,,,,,,,,,,,,,,,,,,,,,,,,,,,,,,,,,,,,,,,,,,,,,,,,,,,,,,,,,,,
0,44,44,5,1,,59e5a69916ecc200016fefdb,62bbfa0f1ce067b5633dbc61,2022-06-29_02h09.12.718,Colour_Asymmetry_Pilot,2022.1.3,Win32,29.89536622,62bbe60bf3d75ef465d3e404,,,,,,,,,,,,,,,,,,,,,,,,,,,,,,,,,,,,,,,,,,,,,,,,,,,,,,,,,,,,,,,,,,,,,,,,,,,,,,,,,,,,,,,,,,,,,,,,,,,,,,,,,,,,,,,,,,,,,,,,,,,,,,,,,,,,,,,,,,,,,,,,,,,,,,,,,,,,,,
0,45,45,33,1,,59e5a69916ecc200016fefdb,62bbfa0f1ce067b5633dbc61,2022-06-29_02h09.12.718,Colour_Asymmetry_Pilot,2022.1.3,Win32,29.89536622,62bbe60bf3d75ef465d3e404,,,,,,,,,,,,,,,,,,,,,,,,,,,,,,,,,,,,,,,,,,,,,,,,,,,,,,,,,,,,,,,,,,,,,,,,,,,,,,,,,,,,,,,,,,,,,,,,,,,,,,,,,,,,,,,,,,,,,,,,,,,,,,,,,,,,,,,,,,,,,,,,,,,,,,,,,,,,,,
0,46,46,54,1,,59e5a69916ecc200016fefdb,62bbfa0f1ce067b5633dbc61,2022-06-29_02h09.12.718,Colour_Asymmetry_Pilot,2022.1.3,Win32,29.89536622,62bbe60bf3d75ef465d3e404,,,,,,,,,,,,,,,,,,,,,,,,,,,,,,,,,,,,,,,,,,,,,,,,,,,,,,,,,,,,,,,,,,,,,,,,,,,,,,,,,,,,,,,,,,,,,,,,,,,,,,,,,,,,,,,,,,,,,,,,,,,,,,,,,,,,,,,,,,,,,,,,,,,,,,,,,,,,,,
0,47,47,2,1,,59e5a69916ecc200016fefdb,62bbfa0f1ce067b5633dbc61,2022-06-29_02h09.12.718,Colour_Asymmetry_Pilot,2022.1.3,Win32,29.89536622,62bbe60bf3d75ef465d3e404,,,,,,,,,,,,,,,,,,,,,,,,,,,,,,,,,,,,,,,,,,,,,,,,,,,,,,,,,,,,,,,,,,,,,,,,,,,,,,,,,,,,,,,,,,,,,,,,,,,,,,,,,,,,,,,,,,,,,,,,,,,,,,,,,,,,,,,,,,,,,,,,,,,,,,,,,,,,,,
0,48,48,66,1,,59e5a69916ecc200016fefdb,62bbfa0f1ce067b5633dbc61,2022-06-29_02h09.12.718,Colour_Asymmetry_Pilot,2022.1.3,Win32,29.89536622,62bbe60bf3d75ef465d3e404,,,,,,,,,,,,,,,,,,,,,,,,,,,,,,,,,,,,,,,,,,,,,,,,,,,,,,,,,,,,,,,,,,,,,,,,,,,,,,,,,,,,,,,,,,,,,,,,,,,,,,,,,,,,,,,,,,,,,,,,,,,,,,,,,,,,,,,,,,,,,,,,,,,,,,,,,,,,,,
0,49,49,21,1,,59e5a69916ecc200016fefdb,62bbfa0f1ce067b5633dbc61,2022-06-29_02h09.12.718,Colour_Asymmetry_Pilot,2022.1.3,Win32,29.89536622,62bbe60bf3d75ef465d3e404,,,,,,,,,,,,,,,,,,,,,,,,,,,,,,,,,,,,,,,,,,,,,,,,,,,,,,,,,,,,,,,,,,,,,,,,,,,,,,,,,,,,,,,,,,,,,,,,,,,,,,,,,,,,,,,,,,,,,,,,,,,,,,,,,,,,,,,,,,,,,,,,,,,,,,,,,,,,,,
0,50,50,75,1,,59e5a69916ecc200016fefdb,62bbfa0f1ce067b5633dbc61,2022-06-29_02h09.12.718,Colour_Asymmetry_Pilot,2022.1.3,Win32,29.89536622,62bbe60bf3d75ef465d3e404,,,,,,,,,,,,,,,,,,,,,,,,,,,,,,,,,,,,,,,,,,,,,,,,,,,,,,,,,,,,,,,,,,,,,,,,,,,,,,,,,,,,,,,,,,,,,,,,,,,,,,,,,,,,,,,,,,,,,,,,,,,,,,,,,,,,,,,,,,,,,,,,,,,,,,,,,,,,,,
0,51,51,88,1,,59e5a69916ecc200016fefdb,62bbfa0f1ce067b5633dbc61,2022-06-29_02h09.12.718,Colour_Asymmetry_Pilot,2022.1.3,Win32,29.89536622,62bbe60bf3d75ef465d3e404,,,,,,,,,,,,,,,,,,,,,,,,,,,,,,,,,,,,,,,,,,,,,,,,,,,,,,,,,,,,,,,,,,,,,,,,,,,,,,,,,,,,,,,,,,,,,,,,,,,,,,,,,,,,,,,,,,,,,,,,,,,,,,,,,,,,,,,,,,,,,,,,,,,,,,,,,,,,,,
0,52,52,52,1,,59e5a69916ecc200016fefdb,62bbfa0f1ce067b5633dbc61,2022-06-29_02h09.12.718,Colour_Asymmetry_Pilot,2022.1.3,Win32,29.89536622,62bbe60bf3d75ef465d3e404,,,,,,,,,,,,,,,,,,,,,,,,,,,,,,,,,,,,,,,,,,,,,,,,,,,,,,,,,,,,,,,,,,,,,,,,,,,,,,,,,,,,,,,,,,,,,,,,,,,,,,,,,,,,,,,,,,,,,,,,,,,,,,,,,,,,,,,,,,,,,,,,,,,,,,,,,,,,,,
0,53,53,23,1,,59e5a69916ecc200016fefdb,62bbfa0f1ce067b5633dbc61,2022-06-29_02h09.12.718,Colour_Asymmetry_Pilot,2022.1.3,Win32,29.89536622,62bbe60bf3d75ef465d3e404,,,,,,,,,,,,,,,,,,,,,,,,,,,,,,,,,,,,,,,,,,,,,,,,,,,,,,,,,,,,,,,,,,,,,,,,,,,,,,,,,,,,,,,,,,,,,,,,,,,,,,,,,,,,,,,,,,,,,,,,,,,,,,,,,,,,,,,,,,,,,,,,,,,,,,,,,,,,,,
0,54,54,42,1,,59e5a69916ecc200016fefdb,62bbfa0f1ce067b5633dbc61,2022-06-29_02h09.12.718,Colour_Asymmetry_Pilot,2022.1.3,Win32,29.89536622,62bbe60bf3d75ef465d3e404,,,,,,,,,,,,,,,,,,,,,,,,,,,,,,,,,,,,,,,,,,,,,,,,,,,,,,,,,,,,,,,,,,,,,,,,,,,,,,,,,,,,,,,,,,,,,,,,,,,,,,,,,,,,,,,,,,,,,,,,,,,,,,,,,,,,,,,,,,,,,,,,,,,,,,,,,,,,,,
0,55,55,40,1,,59e5a69916ecc200016fefdb,62bbfa0f1ce067b5633dbc61,2022-06-29_02h09.12.718,Colour_Asymmetry_Pilot,2022.1.3,Win32,29.89536622,62bbe60bf3d75ef465d3e404,,,,,,,,,,,,,,,,,,,,,,,,,,,,,,,,,,,,,,,,,,,,,,,,,,,,,,,,,,,,,,,,,,,,,,,,,,,,,,,,,,,,,,,,,,,,,,,,,,,,,,,,,,,,,,,,,,,,,,,,,,,,,,,,,,,,,,,,,,,,,,,,,,,,,,,,,,,,,,
0,56,56,80,1,,59e5a69916ecc200016fefdb,62bbfa0f1ce067b5633dbc61,2022-06-29_02h09.12.718,Colour_Asymmetry_Pilot,2022.1.3,Win32,29.89536622,62bbe60bf3d75ef465d3e404,,,,,,,,,,,,,,,,,,,,,,,,,,,,,,,,,,,,,,,,,,,,,,,,,,,,,,,,,,,,,,,,,,,,,,,,,,,,,,,,,,,,,,,,,,,,,,,,,,,,,,,,,,,,,,,,,,,,,,,,,,,,,,,,,,,,,,,,,,,,,,,,,,,,,,,,,,,,,,
0,57,57,26,1,,59e5a69916ecc200016fefdb,62bbfa0f1ce067b5633dbc61,2022-06-29_02h09.12.718,Colour_Asymmetry_Pilot,2022.1.3,Win32,29.89536622,62bbe60bf3d75ef465d3e404,,,,,,,,,,,,,,,,,,,,,,,,,,,,,,,,,,,,,,,,,,,,,,,,,,,,,,,,,,,,,,,,,,,,,,,,,,,,,,,,,,,,,,,,,,,,,,,,,,,,,,,,,,,,,,,,,,,,,,,,,,,,,,,,,,,,,,,,,,,,,,,,,,,,,,,,,,,,,,
0,58,58,47,1,,59e5a69916ecc200016fefdb,62bbfa0f1ce067b5633dbc61,2022-06-29_02h09.12.718,Colour_Asymmetry_Pilot,2022.1.3,Win32,29.89536622,62bbe60bf3d75ef465d3e404,,,,,,,,,,,,,,,,,,,,,,,,,,,,,,,,,,,,,,,,,,,,,,,,,,,,,,,,,,,,,,,,,,,,,,,,,,,,,,,,,,,,,,,,,,,,,,,,,,,,,,,,,,,,,,,,,,,,,,,,,,,,,,,,,,,,,,,,,,,,,,,,,,,,,,,,,,,,,,
0,59,59,0,1,,59e5a69916ecc200016fefdb,62bbfa0f1ce067b5633dbc61,2022-06-29_02h09.12.718,Colour_Asymmetry_Pilot,2022.1.3,Win32,29.89536622,62bbe60bf3d75ef465d3e404,,,,,,,,,,,,,,,,,,,,,,,,,,,,,,,,,,,,,,,,,,,,,,,,,,,,,,,,,,,,,,,,,,,,,,,,,,,,,,,,,,,,,,,,,,,,,,,,,,,,,,,,,,,,,,,,,,,,,,,,,,,,,,,,,,,,,,,,,,,,,,,,,,,,,,,,,,,,,,
0,60,60,34,1,,59e5a69916ecc200016fefdb,62bbfa0f1ce067b5633dbc61,2022-06-29_02h09.12.718,Colour_Asymmetry_Pilot,2022.1.3,Win32,29.89536622,62bbe60bf3d75ef465d3e404,,,,,,,,,,,,,,,,,,,,,,,,,,,,,,,,,,,,,,,,,,,,,,,,,,,,,,,,,,,,,,,,,,,,,,,,,,,,,,,,,,,,,,,,,,,,,,,,,,,,,,,,,,,,,,,,,,,,,,,,,,,,,,,,,,,,,,,,,,,,,,,,,,,,,,,,,,,,,,
0,61,61,85,1,,59e5a69916ecc200016fefdb,62bbfa0f1ce067b5633dbc61,2022-06-29_02h09.12.718,Colour_Asymmetry_Pilot,2022.1.3,Win32,29.89536622,62bbe60bf3d75ef465d3e404,,,,,,,,,,,,,,,,,,,,,,,,,,,,,,,,,,,,,,,,,,,,,,,,,,,,,,,,,,,,,,,,,,,,,,,,,,,,,,,,,,,,,,,,,,,,,,,,,,,,,,,,,,,,,,,,,,,,,,,,,,,,,,,,,,,,,,,,,,,,,,,,,,,,,,,,,,,,,,
0,62,62,35,1,,59e5a69916ecc200016fefdb,62bbfa0f1ce067b5633dbc61,2022-06-29_02h09.12.718,Colour_Asymmetry_Pilot,2022.1.3,Win32,29.89536622,62bbe60bf3d75ef465d3e404,,,,,,,,,,,,,,,,,,,,,,,,,,,,,,,,,,,,,,,,,,,,,,,,,,,,,,,,,,,,,,,,,,,,,,,,,,,,,,,,,,,,,,,,,,,,,,,,,,,,,,,,,,,,,,,,,,,,,,,,,,,,,,,,,,,,,,,,,,,,,,,,,,,,,,,,,,,,,,
0,63,63,16,1,,59e5a69916ecc200016fefdb,62bbfa0f1ce067b5633dbc61,2022-06-29_02h09.12.718,Colour_Asymmetry_Pilot,2022.1.3,Win32,29.89536622,62bbe60bf3d75ef465d3e404,,,,,,,,,,,,,,,,,,,,,,,,,,,,,,,,,,,,,,,,,,,,,,,,,,,,,,,,,,,,,,,,,,,,,,,,,,,,,,,,,,,,,,,,,,,,,,,,,,,,,,,,,,,,,,,,,,,,,,,,,,,,,,,,,,,,,,,,,,,,,,,,,,,,,,,,,,,,,,
0,64,64,1,1,,59e5a69916ecc200016fefdb,62bbfa0f1ce067b5633dbc61,2022-06-29_02h09.12.718,Colour_Asymmetry_Pilot,2022.1.3,Win32,29.89536622,62bbe60bf3d75ef465d3e404,,,,,,,,,,,,,,,,,,,,,,,,,,,,,,,,,,,,,,,,,,,,,,,,,,,,,,,,,,,,,,,,,,,,,,,,,,,,,,,,,,,,,,,,,,,,,,,,,,,,,,,,,,,,,,,,,,,,,,,,,,,,,,,,,,,,,,,,,,,,,,,,,,,,,,,,,,,,,,
0,65,65,57,1,,59e5a69916ecc200016fefdb,62bbfa0f1ce067b5633dbc61,2022-06-29_02h09.12.718,Colour_Asymmetry_Pilot,2022.1.3,Win32,29.89536622,62bbe60bf3d75ef465d3e404,,,,,,,,,,,,,,,,,,,,,,,,,,,,,,,,,,,,,,,,,,,,,,,,,,,,,,,,,,,,,,,,,,,,,,,,,,,,,,,,,,,,,,,,,,,,,,,,,,,,,,,,,,,,,,,,,,,,,,,,,,,,,,,,,,,,,,,,,,,,,,,,,,,,,,,,,,,,,,
0,66,66,86,1,,59e5a69916ecc200016fefdb,62bbfa0f1ce067b5633dbc61,2022-06-29_02h09.12.718,Colour_Asymmetry_Pilot,2022.1.3,Win32,29.89536622,62bbe60bf3d75ef465d3e404,,,,,,,,,,,,,,,,,,,,,,,,,,,,,,,,,,,,,,,,,,,,,,,,,,,,,,,,,,,,,,,,,,,,,,,,,,,,,,,,,,,,,,,,,,,,,,,,,,,,,,,,,,,,,,,,,,,,,,,,,,,,,,,,,,,,,,,,,,,,,,,,,,,,,,,,,,,,,,
0,67,67,38,1,,59e5a69916ecc200016fefdb,62bbfa0f1ce067b5633dbc61,2022-06-29_02h09.12.718,Colour_Asymmetry_Pilot,2022.1.3,Win32,29.89536622,62bbe60bf3d75ef465d3e404,,,,,,,,,,,,,,,,,,,,,,,,,,,,,,,,,,,,,,,,,,,,,,,,,,,,,,,,,,,,,,,,,,,,,,,,,,,,,,,,,,,,,,,,,,,,,,,,,,,,,,,,,,,,,,,,,,,,,,,,,,,,,,,,,,,,,,,,,,,,,,,,,,,,,,,,,,,,,,
0,68,68,6,1,,59e5a69916ecc200016fefdb,62bbfa0f1ce067b5633dbc61,2022-06-29_02h09.12.718,Colour_Asymmetry_Pilot,2022.1.3,Win32,29.89536622,62bbe60bf3d75ef465d3e404,,,,,,,,,,,,,,,,,,,,,,,,,,,,,,,,,,,,,,,,,,,,,,,,,,,,,,,,,,,,,,,,,,,,,,,,,,,,,,,,,,,,,,,,,,,,,,,,,,,,,,,,,,,,,,,,,,,,,,,,,,,,,,,,,,,,,,,,,,,,,,,,,,,,,,,,,,,,,,
0,69,69,30,1,,59e5a69916ecc200016fefdb,62bbfa0f1ce067b5633dbc61,2022-06-29_02h09.12.718,Colour_Asymmetry_Pilot,2022.1.3,Win32,29.89536622,62bbe60bf3d75ef465d3e404,,,,,,,,,,,,,,,,,,,,,,,,,,,,,,,,,,,,,,,,,,,,,,,,,,,,,,,,,,,,,,,,,,,,,,,,,,,,,,,,,,,,,,,,,,,,,,,,,,,,,,,,,,,,,,,,,,,,,,,,,,,,,,,,,,,,,,,,,,,,,,,,,,,,,,,,,,,,,,
0,70,70,60,1,,59e5a69916ecc200016fefdb,62bbfa0f1ce067b5633dbc61,2022-06-29_02h09.12.718,Colour_Asymmetry_Pilot,2022.1.3,Win32,29.89536622,62bbe60bf3d75ef465d3e404,,,,,,,,,,,,,,,,,,,,,,,,,,,,,,,,,,,,,,,,,,,,,,,,,,,,,,,,,,,,,,,,,,,,,,,,,,,,,,,,,,,,,,,,,,,,,,,,,,,,,,,,,,,,,,,,,,,,,,,,,,,,,,,,,,,,,,,,,,,,,,,,,,,,,,,,,,,,,,
0,71,71,69,1,,59e5a69916ecc200016fefdb,62bbfa0f1ce067b5633dbc61,2022-06-29_02h09.12.718,Colour_Asymmetry_Pilot,2022.1.3,Win32,29.89536622,62bbe60bf3d75ef465d3e404,,,,,,,,,,,,,,,,,,,,,,,,,,,,,,,,,,,,,,,,,,,,,,,,,,,,,,,,,,,,,,,,,,,,,,,,,,,,,,,,,,,,,,,,,,,,,,,,,,,,,,,,,,,,,,,,,,,,,,,,,,,,,,,,,,,,,,,,,,,,,,,,,,,,,,,,,,,,,,
0,72,72,3,1,,59e5a69916ecc200016fefdb,62bbfa0f1ce067b5633dbc61,2022-06-29_02h09.12.718,Colour_Asymmetry_Pilot,2022.1.3,Win32,29.89536622,62bbe60bf3d75ef465d3e404,,,,,,,,,,,,,,,,,,,,,,,,,,,,,,,,,,,,,,,,,,,,,,,,,,,,,,,,,,,,,,,,,,,,,,,,,,,,,,,,,,,,,,,,,,,,,,,,,,,,,,,,,,,,,,,,,,,,,,,,,,,,,,,,,,,,,,,,,,,,,,,,,,,,,,,,,,,,,,
0,73,73,24,1,,59e5a69916ecc200016fefdb,62bbfa0f1ce067b5633dbc61,2022-06-29_02h09.12.718,Colour_Asymmetry_Pilot,2022.1.3,Win32,29.89536622,62bbe60bf3d75ef465d3e404,,,,,,,,,,,,,,,,,,,,,,,,,,,,,,,,,,,,,,,,,,,,,,,,,,,,,,,,,,,,,,,,,,,,,,,,,,,,,,,,,,,,,,,,,,,,,,,,,,,,,,,,,,,,,,,,,,,,,,,,,,,,,,,,,,,,,,,,,,,,,,,,,,,,,,,,,,,,,,
0,74,74,87,1,,59e5a69916ecc200016fefdb,62bbfa0f1ce067b5633dbc61,2022-06-29_02h09.12.718,Colour_Asymmetry_Pilot,2022.1.3,Win32,29.89536622,62bbe60bf3d75ef465d3e404,,,,,,,,,,,,,,,,,,,,,,,,,,,,,,,,,,,,,,,,,,,,,,,,,,,,,,,,,,,,,,,,,,,,,,,,,,,,,,,,,,,,,,,,,,,,,,,,,,,,,,,,,,,,,,,,,,,,,,,,,,,,,,,,,,,,,,,,,,,,,,,,,,,,,,,,,,,,,,
0,75,75,79,1,,59e5a69916ecc200016fefdb,62bbfa0f1ce067b5633dbc61,2022-06-29_02h09.12.718,Colour_Asymmetry_Pilot,2022.1.3,Win32,29.89536622,62bbe60bf3d75ef465d3e404,,,,,,,,,,,,,,,,,,,,,,,,,,,,,,,,,,,,,,,,,,,,,,,,,,,,,,,,,,,,,,,,,,,,,,,,,,,,,,,,,,,,,,,,,,,,,,,,,,,,,,,,,,,,,,,,,,,,,,,,,,,,,,,,,,,,,,,,,,,,,,,,,,,,,,,,,,,,,,
0,76,76,55,1,,59e5a69916ecc200016fefdb,62bbfa0f1ce067b5633dbc61,2022-06-29_02h09.12.718,Colour_Asymmetry_Pilot,2022.1.3,Win32,29.89536622,62bbe60bf3d75ef465d3e404,,,,,,,,,,,,,,,,,,,,,,,,,,,,,,,,,,,,,,,,,,,,,,,,,,,,,,,,,,,,,,,,,,,,,,,,,,,,,,,,,,,,,,,,,,,,,,,,,,,,,,,,,,,,,,,,,,,,,,,,,,,,,,,,,,,,,,,,,,,,,,,,,,,,,,,,,,,,,,
0,77,77,41,1,,59e5a69916ecc200016fefdb,62bbfa0f1ce067b5633dbc61,2022-06-29_02h09.12.718,Colour_Asymmetry_Pilot,2022.1.3,Win32,29.89536622,62bbe60bf3d75ef465d3e404,,,,,,,,,,,,,,,,,,,,,,,,,,,,,,,,,,,,,,,,,,,,,,,,,,,,,,,,,,,,,,,,,,,,,,,,,,,,,,,,,,,,,,,,,,,,,,,,,,,,,,,,,,,,,,,,,,,,,,,,,,,,,,,,,,,,,,,,,,,,,,,,,,,,,,,,,,,,,,
0,78,78,31,1,,59e5a69916ecc200016fefdb,62bbfa0f1ce067b5633dbc61,2022-06-29_02h09.12.718,Colour_Asymmetry_Pilot,2022.1.3,Win32,29.89536622,62bbe60bf3d75ef465d3e404,,,,,,,,,,,,,,,,,,,,,,,,,,,,,,,,,,,,,,,,,,,,,,,,,,,,,,,,,,,,,,,,,,,,,,,,,,,,,,,,,,,,,,,,,,,,,,,,,,,,,,,,,,,,,,,,,,,,,,,,,,,,,,,,,,,,,,,,,,,,,,,,,,,,,,,,,,,,,,
0,79,79,65,1,,59e5a69916ecc200016fefdb,62bbfa0f1ce067b5633dbc61,2022-06-29_02h09.12.718,Colour_Asymmetry_Pilot,2022.1.3,Win32,29.89536622,62bbe60bf3d75ef465d3e404,,,,,,,,,,,,,,,,,,,,,,,,,,,,,,,,,,,,,,,,,,,,,,,,,,,,,,,,,,,,,,,,,,,,,,,,,,,,,,,,,,,,,,,,,,,,,,,,,,,,,,,,,,,,,,,,,,,,,,,,,,,,,,,,,,,,,,,,,,,,,,,,,,,,,,,,,,,,,,
0,80,80,81,1,,59e5a69916ecc200016fefdb,62bbfa0f1ce067b5633dbc61,2022-06-29_02h09.12.718,Colour_Asymmetry_Pilot,2022.1.3,Win32,29.89536622,62bbe60bf3d75ef465d3e404,,,,,,,,,,,,,,,,,,,,,,,,,,,,,,,,,,,,,,,,,,,,,,,,,,,,,,,,,,,,,,,,,,,,,,,,,,,,,,,,,,,,,,,,,,,,,,,,,,,,,,,,,,,,,,,,,,,,,,,,,,,,,,,,,,,,,,,,,,,,,,,,,,,,,,,,,,,,,,
0,81,81,92,1,,59e5a69916ecc200016fefdb,62bbfa0f1ce067b5633dbc61,2022-06-29_02h09.12.718,Colour_Asymmetry_Pilot,2022.1.3,Win32,29.89536622,62bbe60bf3d75ef465d3e404,,,,,,,,,,,,,,,,,,,,,,,,,,,,,,,,,,,,,,,,,,,,,,,,,,,,,,,,,,,,,,,,,,,,,,,,,,,,,,,,,,,,,,,,,,,,,,,,,,,,,,,,,,,,,,,,,,,,,,,,,,,,,,,,,,,,,,,,,,,,,,,,,,,,,,,,,,,,,,
0,82,82,20,1,,59e5a69916ecc200016fefdb,62bbfa0f1ce067b5633dbc61,2022-06-29_02h09.12.718,Colour_Asymmetry_Pilot,2022.1.3,Win32,29.89536622,62bbe60bf3d75ef465d3e404,,,,,,,,,,,,,,,,,,,,,,,,,,,,,,,,,,,,,,,,,,,,,,,,,,,,,,,,,,,,,,,,,,,,,,,,,,,,,,,,,,,,,,,,,,,,,,,,,,,,,,,,,,,,,,,,,,,,,,,,,,,,,,,,,,,,,,,,,,,,,,,,,,,,,,,,,,,,,,
0,83,83,72,1,,59e5a69916ecc200016fefdb,62bbfa0f1ce067b5633dbc61,2022-06-29_02h09.12.718,Colour_Asymmetry_Pilot,2022.1.3,Win32,29.89536622,62bbe60bf3d75ef465d3e404,,,,,,,,,,,,,,,,,,,,,,,,,,,,,,,,,,,,,,,,,,,,,,,,,,,,,,,,,,,,,,,,,,,,,,,,,,,,,,,,,,,,,,,,,,,,,,,,,,,,,,,,,,,,,,,,,,,,,,,,,,,,,,,,,,,,,,,,,,,,,,,,,,,,,,,,,,,,,,
0,84,84,28,1,,59e5a69916ecc200016fefdb,62bbfa0f1ce067b5633dbc61,2022-06-29_02h09.12.718,Colour_Asymmetry_Pilot,2022.1.3,Win32,29.89536622,62bbe60bf3d75ef465d3e404,,,,,,,,,,,,,,,,,,,,,,,,,,,,,,,,,,,,,,,,,,,,,,,,,,,,,,,,,,,,,,,,,,,,,,,,,,,,,,,,,,,,,,,,,,,,,,,,,,,,,,,,,,,,,,,,,,,,,,,,,,,,,,,,,,,,,,,,,,,,,,,,,,,,,,,,,,,,,,
0,85,85,62,1,,59e5a69916ecc200016fefdb,62bbfa0f1ce067b5633dbc61,2022-06-29_02h09.12.718,Colour_Asymmetry_Pilot,2022.1.3,Win32,29.89536622,62bbe60bf3d75ef465d3e404,,,,,,,,,,,,,,,,,,,,,,,,,,,,,,,,,,,,,,,,,,,,,,,,,,,,,,,,,,,,,,,,,,,,,,,,,,,,,,,,,,,,,,,,,,,,,,,,,,,,,,,,,,,,,,,,,,,,,,,,,,,,,,,,,,,,,,,,,,,,,,,,,,,,,,,,,,,,,,
0,86,86,49,1,,59e5a69916ecc200016fefdb,62bbfa0f1ce067b5633dbc61,2022-06-29_02h09.12.718,Colour_Asymmetry_Pilot,2022.1.3,Win32,29.89536622,62bbe60bf3d75ef465d3e404,,,,,,,,,,,,,,,,,,,,,,,,,,,,,,,,,,,,,,,,,,,,,,,,,,,,,,,,,,,,,,,,,,,,,,,,,,,,,,,,,,,,,,,,,,,,,,,,,,,,,,,,,,,,,,,,,,,,,,,,,,,,,,,,,,,,,,,,,,,,,,,,,,,,,,,,,,,,,,
0,87,87,25,1,,59e5a69916ecc200016fefdb,62bbfa0f1ce067b5633dbc61,2022-06-29_02h09.12.718,Colour_Asymmetry_Pilot,2022.1.3,Win32,29.89536622,62bbe60bf3d75ef465d3e404,,,,,,,,,,,,,,,,,,,,,,,,,,,,,,,,,,,,,,,,,,,,,,,,,,,,,,,,,,,,,,,,,,,,,,,,,,,,,,,,,,,,,,,,,,,,,,,,,,,,,,,,,,,,,,,,,,,,,,,,,,,,,,,,,,,,,,,,,,,,,,,,,,,,,,,,,,,,,,
0,88,88,10,1,,59e5a69916ecc200016fefdb,62bbfa0f1ce067b5633dbc61,2022-06-29_02h09.12.718,Colour_Asymmetry_Pilot,2022.1.3,Win32,29.89536622,62bbe60bf3d75ef465d3e404,,,,,,,,,,,,,,,,,,,,,,,,,,,,,,,,,,,,,,,,,,,,,,,,,,,,,,,,,,,,,,,,,,,,,,,,,,,,,,,,,,,,,,,,,,,,,,,,,,,,,,,,,,,,,,,,,,,,,,,,,,,,,,,,,,,,,,,,,,,,,,,,,,,,,,,,,,,,,,
0,89,89,39,1,,59e5a69916ecc200016fefdb,62bbfa0f1ce067b5633dbc61,2022-06-29_02h09.12.718,Colour_Asymmetry_Pilot,2022.1.3,Win32,29.89536622,62bbe60bf3d75ef465d3e404,,,,,,,,,,,,,,,,,,,,,,,,,,,,,,,,,,,,,,,,,,,,,,,,,,,,,,,,,,,,,,,,,,,,,,,,,,,,,,,,,,,,,,,,,,,,,,,,,,,,,,,,,,,,,,,,,,,,,,,,,,,,,,,,,,,,,,,,,,,,,,,,,,,,,,,,,,,,,,
0,90,90,82,1,,59e5a69916ecc200016fefdb,62bbfa0f1ce067b5633dbc61,2022-06-29_02h09.12.718,Colour_Asymmetry_Pilot,2022.1.3,Win32,29.89536622,62bbe60bf3d75ef465d3e404,,,,,,,,,,,,,,,,,,,,,,,,,,,,,,,,,,,,,,,,,,,,,,,,,,,,,,,,,,,,,,,,,,,,,,,,,,,,,,,,,,,,,,,,,,,,,,,,,,,,,,,,,,,,,,,,,,,,,,,,,,,,,,,,,,,,,,,,,,,,,,,,,,,,,,,,,,,,,,
0,91,91,77,1,,59e5a69916ecc200016fefdb,62bbfa0f1ce067b5633dbc61,2022-06-29_02h09.12.718,Colour_Asymmetry_Pilot,2022.1.3,Win32,29.89536622,62bbe60bf3d75ef465d3e404,,,,,,,,,,,,,,,,,,,,,,,,,,,,,,,,,,,,,,,,,,,,,,,,,,,,,,,,,,,,,,,,,,,,,,,,,,,,,,,,,,,,,,,,,,,,,,,,,,,,,,,,,,,,,,,,,,,,,,,,,,,,,,,,,,,,,,,,,,,,,,,,,,,,,,,,,,,,,,
0,92,92,53,1,,59e5a69916ecc200016fefdb,62bbfa0f1ce067b5633dbc61,2022-06-29_02h09.12.718,Colour_Asymmetry_Pilot,2022.1.3,Win32,29.89536622,62bbe60bf3d75ef465d3e404,,,,,,,,,,,,,,,,,,,,,,,,,,,,,,,,,,,,,,,,,,,,,,,,,,,,,,,,,,,,,,,,,,,,,,,,,,,,,,,,,,,,,,,,,,,,,,,,,,,,,,,,,,,,,,,,,,,,,,,,,,,,,,,,,,,,,,,,,,,,,,,,,,,,,,,,,,,,,,
,,,,,,59e5a69916ecc200016fefdb,62bbfa0f1ce067b5633dbc61,2022-06-29_02h09.12.718,Colour_Asymmetry_Pilot,2022.1.3,Win32,29.89536622,62bbe60bf3d75ef465d3e404,0,0,0,76,1,threeone,,,,,,,,,,,,,,,,,,,,,,,,,,,,,,,,,,,,,,,,,,,,,,,,,,,,,,,,,,,,,,,,,,,,,,,,,,,,,,,,,,,,,,,,,,,,,,,,,,,,,,,,,,,,,,,,,,,,,,,,,,,,,,,,,,,,,,,,,,,,,,,,,,,,,,,,
,,,,,,59e5a69916ecc200016fefdb,62bbfa0f1ce067b5633dbc61,2022-06-29_02h09.12.718,Colour_Asymmetry_Pilot,2022.1.3,Win32,29.89536622,62bbe60bf3d75ef465d3e404,0,1,1,115,1,twofour,,,,,,,,,,,,,,,,,,,,,,,,,,,,,,,,,,,,,,,,,,,,,,,,,,,,,,,,,,,,,,,,,,,,,,,,,,,,,,,,,,,,,,,,,,,,,,,,,,,,,,,,,,,,,,,,,,,,,,,,,,,,,,,,,,,,,,,,,,,,,,,,,,,,,,,,
,,,,,,59e5a69916ecc200016fefdb,62bbfa0f1ce067b5633dbc61,2022-06-29_02h09.12.718,Colour_Asymmetry_Pilot,2022.1.3,Win32,29.89536622,62bbe60bf3d75ef465d3e404,0,2,2,102,1,fourtwo,,,,,,,,,,,,,,,,,,,,,,,,,,,,,,,,,,,,,,,,,,,,,,,,,,,,,,,,,,,,,,,,,,,,,,,,,,,,,,,,,,,,,,,,,,,,,,,,,,,,,,,,,,,,,,,,,,,,,,,,,,,,,,,,,,,,,,,,,,,,,,,,,,,,,,,,
,,,,,,59e5a69916ecc200016fefdb,62bbfa0f1ce067b5633dbc61,2022-06-29_02h09.12.718,Colour_Asymmetry_Pilot,2022.1.3,Win32,29.89536622,62bbe60bf3d75ef465d3e404,0,3,3,129,1,onethree,,,,,,,,,,,,,,,,,,,,,,,,,,,,,,,,,,,,,,,,,,,,,,,,,,,,,,,,,,,,,,,,,,,,,,,,,,,,,,,,,,,,,,,,,,,,,,,,,,,,,,,,,,,,,,,,,,,,,,,,,,,,,,,,,,,,,,,,,,,,,,,,,,,,,,,,
,,,,,,59e5a69916ecc200016fefdb,62bbfa0f1ce067b5633dbc61,2022-06-29_02h09.12.718,Colour_Asymmetry_Pilot,2022.1.3,Win32,29.89536622,62bbe60bf3d75ef465d3e404,0,4,4,43,1,twofour,,,,,,,,,,,,,,,,,,,,,,,,,,,,,,,,,,,,,,,,,,,,,,,,,,,,,,,,,,,,,,,,,,,,,,,,,,,,,,,,,,,,,,,,,,,,,,,,,,,,,,,,,,,,,,,,,,,,,,,,,,,,,,,,,,,,,,,,,,,,,,,,,,,,,,,,
,,,,,,59e5a69916ecc200016fefdb,62bbfa0f1ce067b5633dbc61,2022-06-29_02h09.12.718,Colour_Asymmetry_Pilot,2022.1.3,Win32,29.89536622,62bbe60bf3d75ef465d3e404,0,5,5,4,1,threeone,,,,,,,,,,,,,,,,,,,,,,,,,,,,,,,,,,,,,,,,,,,,,,,,,,,,,,,,,,,,,,,,,,,,,,,,,,,,,,,,,,,,,,,,,,,,,,,,,,,,,,,,,,,,,,,,,,,,,,,,,,,,,,,,,,,,,,,,,,,,,,,,,,,,,,,,
,,,,,,59e5a69916ecc200016fefdb,62bbfa0f1ce067b5633dbc61,2022-06-29_02h09.12.718,Colour_Asymmetry_Pilot,2022.1.3,Win32,29.89536622,62bbe60bf3d75ef465d3e404,0,6,6,105,1,onethree,,,,,,,,,,,,,,,,,,,,,,,,,,,,,,,,,,,,,,,,,,,,,,,,,,,,,,,,,,,,,,,,,,,,,,,,,,,,,,,,,,,,,,,,,,,,,,,,,,,,,,,,,,,,,,,,,,,,,,,,,,,,,,,,,,,,,,,,,,,,,,,,,,,,,,,,
,,,,,,59e5a69916ecc200016fefdb,62bbfa0f1ce067b5633dbc61,2022-06-29_02h09.12.718,Colour_Asymmetry_Pilot,2022.1.3,Win32,29.89536622,62bbe60bf3d75ef465d3e404,0,7,7,89,1,onethree,,,,,,,,,,,,,,,,,,,,,,,,,,,,,,,,,,,,,,,,,,,,,,,,,,,,,,,,,,,,,,,,,,,,,,,,,,,,,,,,,,,,,,,,,,,,,,,,,,,,,,,,,,,,,,,,,,,,,,,,,,,,,,,,,,,,,,,,,,,,,,,,,,,,,,,,
,,,,,,59e5a69916ecc200016fefdb,62bbfa0f1ce067b5633dbc61,2022-06-29_02h09.12.718,Colour_Asymmetry_Pilot,2022.1.3,Win32,29.89536622,62bbe60bf3d75ef465d3e404,0,8,8,28,1,threeone,,,,,,,,,,,,,,,,,,,,,,,,,,,,,,,,,,,,,,,,,,,,,,,,,,,,,,,,,,,,,,,,,,,,,,,,,,,,,,,,,,,,,,,,,,,,,,,,,,,,,,,,,,,,,,,,,,,,,,,,,,,,,,,,,,,,,,,,,,,,,,,,,,,,,,,,
,,,,,,59e5a69916ecc200016fefdb,62bbfa0f1ce067b5633dbc61,2022-06-29_02h09.12.718,Colour_Asymmetry_Pilot,2022.1.3,Win32,29.89536622,62bbe60bf3d75ef465d3e404,0,9,9,132,1,threeone,,,,,,,,,,,,,,,,,,,,,,,,,,,,,,,,,,,,,,,,,,,,,,,,,,,,,,,,,,,,,,,,,,,,,,,,,,,,,,,,,,,,,,,,,,,,,,,,,,,,,,,,,,,,,,,,,,,,,,,,,,,,,,,,,,,,,,,,,,,,,,,,,,,,,,,,
,,,,,,59e5a69916ecc200016fefdb,62bbfa0f1ce067b5633dbc61,2022-06-29_02h09.12.718,Colour_Asymmetry_Pilot,2022.1.3,Win32,29.89536622,62bbe60bf3d75ef465d3e404,0,10,10,60,1,threeone,,,,,,,,,,,,,,,,,,,,,,,,,,,,,,,,,,,,,,,,,,,,,,,,,,,,,,,,,,,,,,,,,,,,,,,,,,,,,,,,,,,,,,,,,,,,,,,,,,,,,,,,,,,,,,,,,,,,,,,,,,,,,,,,,,,,,,,,,,,,,,,,,,,,,,,,
,,,,,,59e5a69916ecc200016fefdb,62bbfa0f1ce067b5633dbc61,2022-06-29_02h09.12.718,Colour_Asymmetry_Pilot,2022.1.3,Win32,29.89536622,62bbe60bf3d75ef465d3e404,0,11,11,57,1,onethree,,,,,,,,,,,,,,,,,,,,,,,,,,,,,,,,,,,,,,,,,,,,,,,,,,,,,,,,,,,,,,,,,,,,,,,,,,,,,,,,,,,,,,,,,,,,,,,,,,,,,,,,,,,,,,,,,,,,,,,,,,,,,,,,,,,,,,,,,,,,,,,,,,,,,,,,
,,,,,,59e5a69916ecc200016fefdb,62bbfa0f1ce067b5633dbc61,2022-06-29_02h09.12.718,Colour_Asymmetry_Pilot,2022.1.3,Win32,29.89536622,62bbe60bf3d75ef465d3e404,0,12,12,95,1,fourthree,,,,,,,,,,,,,,,,,,,,,,,,,,,,,,,,,,,,,,,,,,,,,,,,,,,,,,,,,,,,,,,,,,,,,,,,,,,,,,,,,,,,,,,,,,,,,,,,,,,,,,,,,,,,,,,,,,,,,,,,,,,,,,,,,,,,,,,,,,,,,,,,,,,,,,,,
,,,,,,59e5a69916ecc200016fefdb,62bbfa0f1ce067b5633dbc61,2022-06-29_02h09.12.718,Colour_Asymmetry_Pilot,2022.1.3,Win32,29.89536622,62bbe60bf3d75ef465d3e404,0,13,13,17,1,onethree,,,,,,,,,,,,,,,,,,,,,,,,,,,,,,,,,,,,,,,,,,,,,,,,,,,,,,,,,,,,,,,,,,,,,,,,,,,,,,,,,,,,,,,,,,,,,,,,,,,,,,,,,,,,,,,,,,,,,,,,,,,,,,,,,,,,,,,,,,,,,,,,,,,,,,,,
,,,,,,59e5a69916ecc200016fefdb,62bbfa0f1ce067b5633dbc61,2022-06-29_02h09.12.718,Colour_Asymmetry_Pilot,2022.1.3,Win32,29.89536622,62bbe60bf3d75ef465d3e404,0,14,14,21,1,threefour,,,,,,,,,,,,,,,,,,,,,,,,,,,,,,,,,,,,,,,,,,,,,,,,,,,,,,,,,,,,,,,,,,,,,,,,,,,,,,,,,,,,,,,,,,,,,,,,,,,,,,,,,,,,,,,,,,,,,,,,,,,,,,,,,,,,,,,,,,,,,,,,,,,,,,,,
,,,,,,59e5a69916ecc200016fefdb,62bbfa0f1ce067b5633dbc61,2022-06-29_02h09.12.718,Colour_Asymmetry_Pilot,2022.1.3,Win32,29.89536622,62bbe60bf3d75ef465d3e404,0,15,15,153,1,onethree,,,,,,,,,,,,,,,,,,,,,,,,,,,,,,,,,,,,,,,,,,,,,,,,,,,,,,,,,,,,,,,,,,,,,,,,,,,,,,,,,,,,,,,,,,,,,,,,,,,,,,,,,,,,,,,,,,,,,,,,,,,,,,,,,,,,,,,,,,,,,,,,,,,,,,,,
,,,,,,59e5a69916ecc200016fefdb,62bbfa0f1ce067b5633dbc61,2022-06-29_02h09.12.718,Colour_Asymmetry_Pilot,2022.1.3,Win32,29.89536622,62bbe60bf3d75ef465d3e404,0,16,16,11,1,twofour,,,,,,,,,,,,,,,,,,,,,,,,,,,,,,,,,,,,,,,,,,,,,,,,,,,,,,,,,,,,,,,,,,,,,,,,,,,,,,,,,,,,,,,,,,,,,,,,,,,,,,,,,,,,,,,,,,,,,,,,,,,,,,,,,,,,,,,,,,,,,,,,,,,,,,,,
,,,,,,59e5a69916ecc200016fefdb,62bbfa0f1ce067b5633dbc61,2022-06-29_02h09.12.718,Colour_Asymmetry_Pilot,2022.1.3,Win32,29.89536622,62bbe60bf3d75ef465d3e404,0,17,17,53,1,threefour,,,,,,,,,,,,,,,,,,,,,,,,,,,,,,,,,,,,,,,,,,,,,,,,,,,,,,,,,,,,,,,,,,,,,,,,,,,,,,,,,,,,,,,,,,,,,,,,,,,,,,,,,,,,,,,,,,,,,,,,,,,,,,,,,,,,,,,,,,,,,,,,,,,,,,,,
,,,,,,59e5a69916ecc200016fefdb,62bbfa0f1ce067b5633dbc61,2022-06-29_02h09.12.718,Colour_Asymmetry_Pilot,2022.1.3,Win32,29.89536622,62bbe60bf3d75ef465d3e404,0,18,18,49,1,onethree,,,,,,,,,,,,,,,,,,,,,,,,,,,,,,,,,,,,,,,,,,,,,,,,,,,,,,,,,,,,,,,,,,,,,,,,,,,,,,,,,,,,,,,,,,,,,,,,,,,,,,,,,,,,,,,,,,,,,,,,,,,,,,,,,,,,,,,,,,,,,,,,,,,,,,,,
,,,,,,59e5a69916ecc200016fefdb,62bbfa0f1ce067b5633dbc61,2022-06-29_02h09.12.718,Colour_Asymmetry_Pilot,2022.1.3,Win32,29.89536622,62bbe60bf3d75ef465d3e404,0,19,19,25,1,onethree,,,,,,,,,,,,,,,,,,,,,,,,,,,,,,,,,,,,,,,,,,,,,,,,,,,,,,,,,,,,,,,,,,,,,,,,,,,,,,,,,,,,,,,,,,,,,,,,,,,,,,,,,,,,,,,,,,,,,,,,,,,,,,,,,,,,,,,,,,,,,,,,,,,,,,,,
,,,,,,59e5a69916ecc200016fefdb,62bbfa0f1ce067b5633dbc61,2022-06-29_02h09.12.718,Colour_Asymmetry_Pilot,2022.1.3,Win32,29.89536622,62bbe60bf3d75ef465d3e404,0,20,20,113,1,onethree,,,,,,,,,,,,,,,,,,,,,,,,,,,,,,,,,,,,,,,,,,,,,,,,,,,,,,,,,,,,,,,,,,,,,,,,,,,,,,,,,,,,,,,,,,,,,,,,,,,,,,,,,,,,,,,,,,,,,,,,,,,,,,,,,,,,,,,,,,,,,,,,,,,,,,,,
,,,,,,59e5a69916ecc200016fefdb,62bbfa0f1ce067b5633dbc61,2022-06-29_02h09.12.718,Colour_Asymmetry_Pilot,2022.1.3,Win32,29.89536622,62bbe60bf3d75ef465d3e404,0,21,21,100,1,threeone,,,,,,,,,,,,,,,,,,,,,,,,,,,,,,,,,,,,,,,,,,,,,,,,,,,,,,,,,,,,,,,,,,,,,,,,,,,,,,,,,,,,,,,,,,,,,,,,,,,,,,,,,,,,,,,,,,,,,,,,,,,,,,,,,,,,,,,,,,,,,,,,,,,,,,,,
,,,,,,59e5a69916ecc200016fefdb,62bbfa0f1ce067b5633dbc61,2022-06-29_02h09.12.718,Colour_Asymmetry_Pilot,2022.1.3,Win32,29.89536622,62bbe60bf3d75ef465d3e404,0,22,22,0,1,onetwo,,,,,,,,,,,,,,,,,,,,,,,,,,,,,,,,,,,,,,,,,,,,,,,,,,,,,,,,,,,,,,,,,,,,,,,,,,,,,,,,,,,,,,,,,,,,,,,,,,,,,,,,,,,,,,,,,,,,,,,,,,,,,,,,,,,,,,,,,,,,,,,,,,,,,,,,
,,,,,,59e5a69916ecc200016fefdb,62bbfa0f1ce067b5633dbc61,2022-06-29_02h09.12.718,Colour_Asymmetry_Pilot,2022.1.3,Win32,29.89536622,62bbe60bf3d75ef465d3e404,0,23,23,147,1,twofour,,,,,,,,,,,,,,,,,,,,,,,,,,,,,,,,,,,,,,,,,,,,,,,,,,,,,,,,,,,,,,,,,,,,,,,,,,,,,,,,,,,,,,,,,,,,,,,,,,,,,,,,,,,,,,,,,,,,,,,,,,,,,,,,,,,,,,,,,,,,,,,,,,,,,,,,
,,,,,,59e5a69916ecc200016fefdb,62bbfa0f1ce067b5633dbc61,2022-06-29_02h09.12.718,Colour_Asymmetry_Pilot,2022.1.3,Win32,29.89536622,62bbe60bf3d75ef465d3e404,0,24,24,64,1,onetwo,,,,,,,,,,,,,,,,,,,,,,,,,,,,,,,,,,,,,,,,,,,,,,,,,,,,,,,,,,,,,,,,,,,,,,,,,,,,,,,,,,,,,,,,,,,,,,,,,,,,,,,,,,,,,,,,,,,,,,,,,,,,,,,,,,,,,,,,,,,,,,,,,,,,,,,,
,,,,,,59e5a69916ecc200016fefdb,62bbfa0f1ce067b5633dbc61,2022-06-29_02h09.12.718,Colour_Asymmetry_Pilot,2022.1.3,Win32,29.89536622,62bbe60bf3d75ef465d3e404,0,25,25,125,1,threefour,,,,,,,,,,,,,,,,,,,,,,,,,,,,,,,,,,,,,,,,,,,,,,,,,,,,,,,,,,,,,,,,,,,,,,,,,,,,,,,,,,,,,,,,,,,,,,,,,,,,,,,,,,,,,,,,,,,,,,,,,,,,,,,,,,,,,,,,,,,,,,,,,,,,,,,,
,,,,,,59e5a69916ecc200016fefdb,62bbfa0f1ce067b5633dbc61,2022-06-29_02h09.12.718,Colour_Asymmetry_Pilot,2022.1.3,Win32,29.89536622,62bbe60bf3d75ef465d3e404,0,26,26,142,1,fourtwo,,,,,,,,,,,,,,,,,,,,,,,,,,,,,,,,,,,,,,,,,,,,,,,,,,,,,,,,,,,,,,,,,,,,,,,,,,,,,,,,,,,,,,,,,,,,,,,,,,,,,,,,,,,,,,,,,,,,,,,,,,,,,,,,,,,,,,,,,,,,,,,,,,,,,,,,
,,,,,,59e5a69916ecc200016fefdb,62bbfa0f1ce067b5633dbc61,2022-06-29_02h09.12.718,Colour_Asymmetry_Pilot,2022.1.3,Win32,29.89536622,62bbe60bf3d75ef465d3e404,0,27,27,108,1,threeone,,,,,,,,,,,,,,,,,,,,,,,,,,,,,,,,,,,,,,,,,,,,,,,,,,,,,,,,,,,,,,,,,,,,,,,,,,,,,,,,,,,,,,,,,,,,,,,,,,,,,,,,,,,,,,,,,,,,,,,,,,,,,,,,,,,,,,,,,,,,,,,,,,,,,,,,
,,,,,,59e5a69916ecc200016fefdb,62bbfa0f1ce067b5633dbc61,2022-06-29_02h09.12.718,Colour_Asymmetry_Pilot,2022.1.3,Win32,29.89536622,62bbe60bf3d75ef465d3e404,0,28,28,96,1,onetwo,,,,,,,,,,,,,,,,,,,,,,,,,,,,,,,,,,,,,,,,,,,,,,,,,,,,,,,,,,,,,,,,,,,,,,,,,,,,,,,,,,,,,,,,,,,,,,,,,,,,,,,,,,,,,,,,,,,,,,,,,,,,,,,,,,,,,,,,,,,,,,,,,,,,,,,,
,,,,,,59e5a69916ecc200016fefdb,62bbfa0f1ce067b5633dbc61,2022-06-29_02h09.12.718,Colour_Asymmetry_Pilot,2022.1.3,Win32,29.89536622,62bbe60bf3d75ef465d3e404,0,29,29,133,1,threefour,,,,,,,,,,,,,,,,,,,,,,,,,,,,,,,,,,,,,,,,,,,,,,,,,,,,,,,,,,,,,,,,,,,,,,,,,,,,,,,,,,,,,,,,,,,,,,,,,,,,,,,,,,,,,,,,,,,,,,,,,,,,,,,,,,,,,,,,,,,,,,,,,,,,,,,,
,,,,,,59e5a69916ecc200016fefdb,62bbfa0f1ce067b5633dbc61,2022-06-29_02h09.12.718,Colour_Asymmetry_Pilot,2022.1.3,Win32,29.89536622,62bbe60bf3d75ef465d3e404,0,30,30,27,1,twofour,,,,,,,,,,,,,,,,,,,,,,,,,,,,,,,,,,,,,,,,,,,,,,,,,,,,,,,,,,,,,,,,,,,,,,,,,,,,,,,,,,,,,,,,,,,,,,,,,,,,,,,,,,,,,,,,,,,,,,,,,,,,,,,,,,,,,,,,,,,,,,,,,,,,,,,,
,,,,,,59e5a69916ecc200016fefdb,62bbfa0f1ce067b5633dbc61,2022-06-29_02h09.12.718,Colour_Asymmetry_Pilot,2022.1.3,Win32,29.89536622,62bbe60bf3d75ef465d3e404,0,31,31,38,1,fourtwo,,,,,,,,,,,,,,,,,,,,,,,,,,,,,,,,,,,,,,,,,,,,,,,,,,,,,,,,,,,,,,,,,,,,,,,,,,,,,,,,,,,,,,,,,,,,,,,,,,,,,,,,,,,,,,,,,,,,,,,,,,,,,,,,,,,,,,,,,,,,,,,,,,,,,,,,
,,,,,,59e5a69916ecc200016fefdb,62bbfa0f1ce067b5633dbc61,2022-06-29_02h09.12.718,Colour_Asymmetry_Pilot,2022.1.3,Win32,29.89536622,62bbe60bf3d75ef465d3e404,0,32,32,56,1,onetwo,,,,,,,,,,,,,,,,,,,,,,,,,,,,,,,,,,,,,,,,,,,,,,,,,,,,,,,,,,,,,,,,,,,,,,,,,,,,,,,,,,,,,,,,,,,,,,,,,,,,,,,,,,,,,,,,,,,,,,,,,,,,,,,,,,,,,,,,,,,,,,,,,,,,,,,,
,,,,,,59e5a69916ecc200016fefdb,62bbfa0f1ce067b5633dbc61,2022-06-29_02h09.12.718,Colour_Asymmetry_Pilot,2022.1.3,Win32,29.89536622,62bbe60bf3d75ef465d3e404,0,33,33,48,1,onetwo,,,,,,,,,,,,,,,,,,,,,,,,,,,,,,,,,,,,,,,,,,,,,,,,,,,,,,,,,,,,,,,,,,,,,,,,,,,,,,,,,,,,,,,,,,,,,,,,,,,,,,,,,,,,,,,,,,,,,,,,,,,,,,,,,,,,,,,,,,,,,,,,,,,,,,,,
,,,,,,59e5a69916ecc200016fefdb,62bbfa0f1ce067b5633dbc61,2022-06-29_02h09.12.718,Colour_Asymmetry_Pilot,2022.1.3,Win32,29.89536622,62bbe60bf3d75ef465d3e404,0,34,34,86,1,fourtwo,,,,,,,,,,,,,,,,,,,,,,,,,,,,,,,,,,,,,,,,,,,,,,,,,,,,,,,,,,,,,,,,,,,,,,,,,,,,,,,,,,,,,,,,,,,,,,,,,,,,,,,,,,,,,,,,,,,,,,,,,,,,,,,,,,,,,,,,,,,,,,,,,,,,,,,,
,,,,,,59e5a69916ecc200016fefdb,62bbfa0f1ce067b5633dbc61,2022-06-29_02h09.12.718,Colour_Asymmetry_Pilot,2022.1.3,Win32,29.89536622,62bbe60bf3d75ef465d3e404,0,35,35,36,1,threeone,,,,,,,,,,,,,,,,,,,,,,,,,,,,,,,,,,,,,,,,,,,,,,,,,,,,,,,,,,,,,,,,,,,,,,,,,,,,,,,,,,,,,,,,,,,,,,,,,,,,,,,,,,,,,,,,,,,,,,,,,,,,,,,,,,,,,,,,,,,,,,,,,,,,,,,,
,,,,,,59e5a69916ecc200016fefdb,62bbfa0f1ce067b5633dbc61,2022-06-29_02h09.12.718,Colour_Asymmetry_Pilot,2022.1.3,Win32,29.89536622,62bbe60bf3d75ef465d3e404,0,36,36,83,1,twofour,,,,,,,,,,,,,,,,,,,,,,,,,,,,,,,,,,,,,,,,,,,,,,,,,,,,,,,,,,,,,,,,,,,,,,,,,,,,,,,,,,,,,,,,,,,,,,,,,,,,,,,,,,,,,,,,,,,,,,,,,,,,,,,,,,,,,,,,,,,,,,,,,,,,,,,,
,,,,,,59e5a69916ecc200016fefdb,62bbfa0f1ce067b5633dbc61,2022-06-29_02h09.12.718,Colour_Asymmetry_Pilot,2022.1.3,Win32,29.89536622,62bbe60bf3d75ef465d3e404,0,37,37,41,1,onethree,,,,,,,,,,,,,,,,,,,,,,,,,,,,,,,,,,,,,,,,,,,,,,,,,,,,,,,,,,,,,,,,,,,,,,,,,,,,,,,,,,,,,,,,,,,,,,,,,,,,,,,,,,,,,,,,,,,,,,,,,,,,,,,,,,,,,,,,,,,,,,,,,,,,,,,,
,,,,,,59e5a69916ecc200016fefdb,62bbfa0f1ce067b5633dbc61,2022-06-29_02h09.12.718,Colour_Asymmetry_Pilot,2022.1.3,Win32,29.89536622,62bbe60bf3d75ef465d3e404,0,38,38,127,1,fourthree,,,,,,,,,,,,,,,,,,,,,,,,,,,,,,,,,,,,,,,,,,,,,,,,,,,,,,,,,,,,,,,,,,,,,,,,,,,,,,,,,,,,,,,,,,,,,,,,,,,,,,,,,,,,,,,,,,,,,,,,,,,,,,,,,,,,,,,,,,,,,,,,,,,,,,,,
,,,,,,59e5a69916ecc200016fefdb,62bbfa0f1ce067b5633dbc61,2022-06-29_02h09.12.718,Colour_Asymmetry_Pilot,2022.1.3,Win32,29.89536622,62bbe60bf3d75ef465d3e404,0,39,39,137,1,onethree,,,,,,,,,,,,,,,,,,,,,,,,,,,,,,,,,,,,,,,,,,,,,,,,,,,,,,,,,,,,,,,,,,,,,,,,,,,,,,,,,,,,,,,,,,,,,,,,,,,,,,,,,,,,,,,,,,,,,,,,,,,,,,,,,,,,,,,,,,,,,,,,,,,,,,,,
,,,,,,59e5a69916ecc200016fefdb,62bbfa0f1ce067b5633dbc61,2022-06-29_02h09.12.718,Colour_Asymmetry_Pilot,2022.1.3,Win32,29.89536622,62bbe60bf3d75ef465d3e404,0,40,40,70,1,fourtwo,,,,,,,,,,,,,,,,,,,,,,,,,,,,,,,,,,,,,,,,,,,,,,,,,,,,,,,,,,,,,,,,,,,,,,,,,,,,,,,,,,,,,,,,,,,,,,,,,,,,,,,,,,,,,,,,,,,,,,,,,,,,,,,,,,,,,,,,,,,,,,,,,,,,,,,,
,,,,,,59e5a69916ecc200016fefdb,62bbfa0f1ce067b5633dbc61,2022-06-29_02h09.12.718,Colour_Asymmetry_Pilot,2022.1.3,Win32,29.89536622,62bbe60bf3d75ef465d3e404,0,41,41,103,1,fourthree,,,,,,,,,,,,,,,,,,,,,,,,,,,,,,,,,,,,,,,,,,,,,,,,,,,,,,,,,,,,,,,,,,,,,,,,,,,,,,,,,,,,,,,,,,,,,,,,,,,,,,,,,,,,,,,,,,,,,,,,,,,,,,,,,,,,,,,,,,,,,,,,,,,,,,,,
,,,,,,59e5a69916ecc200016fefdb,62bbfa0f1ce067b5633dbc61,2022-06-29_02h09.12.718,Colour_Asymmetry_Pilot,2022.1.3,Win32,29.89536622,62bbe60bf3d75ef465d3e404,0,42,42,135,1,fourthree,,,,,,,,,,,,,,,,,,,,,,,,,,,,,,,,,,,,,,,,,,,,,,,,,,,,,,,,,,,,,,,,,,,,,,,,,,,,,,,,,,,,,,,,,,,,,,,,,,,,,,,,,,,,,,,,,,,,,,,,,,,,,,,,,,,,,,,,,,,,,,,,,,,,,,,,
,,,,,,59e5a69916ecc200016fefdb,62bbfa0f1ce067b5633dbc61,2022-06-29_02h09.12.718,Colour_Asymmetry_Pilot,2022.1.3,Win32,29.89536622,62bbe60bf3d75ef465d3e404,0,43,43,150,1,fourtwo,,,,,,,,,,,,,,,,,,,,,,,,,,,,,,,,,,,,,,,,,,,,,,,,,,,,,,,,,,,,,,,,,,,,,,,,,,,,,,,,,,,,,,,,,,,,,,,,,,,,,,,,,,,,,,,,,,,,,,,,,,,,,,,,,,,,,,,,,,,,,,,,,,,,,,,,
,,,,,,59e5a69916ecc200016fefdb,62bbfa0f1ce067b5633dbc61,2022-06-29_02h09.12.718,Colour_Asymmetry_Pilot,2022.1.3,Win32,29.89536622,62bbe60bf3d75ef465d3e404,0,44,44,62,1,fourtwo,,,,,,,,,,,,,,,,,,,,,,,,,,,,,,,,,,,,,,,,,,,,,,,,,,,,,,,,,,,,,,,,,,,,,,,,,,,,,,,,,,,,,,,,,,,,,,,,,,,,,,,,,,,,,,,,,,,,,,,,,,,,,,,,,,,,,,,,,,,,,,,,,,,,,,,,
,,,,,,59e5a69916ecc200016fefdb,62bbfa0f1ce067b5633dbc61,2022-06-29_02h09.12.718,Colour_Asymmetry_Pilot,2022.1.3,Win32,29.89536622,62bbe60bf3d75ef465d3e404,0,45,45,149,1,threefour,,,,,,,,,,,,,,,,,,,,,,,,,,,,,,,,,,,,,,,,,,,,,,,,,,,,,,,,,,,,,,,,,,,,,,,,,,,,,,,,,,,,,,,,,,,,,,,,,,,,,,,,,,,,,,,,,,,,,,,,,,,,,,,,,,,,,,,,,,,,,,,,,,,,,,,,
,,,,,,59e5a69916ecc200016fefdb,62bbfa0f1ce067b5633dbc61,2022-06-29_02h09.12.718,Colour_Asymmetry_Pilot,2022.1.3,Win32,29.89536622,62bbe60bf3d75ef465d3e404,0,46,46,51,1,twofour,,,,,,,,,,,,,,,,,,,,,,,,,,,,,,,,,,,,,,,,,,,,,,,,,,,,,,,,,,,,,,,,,,,,,,,,,,,,,,,,,,,,,,,,,,,,,,,,,,,,,,,,,,,,,,,,,,,,,,,,,,,,,,,,,,,,,,,,,,,,,,,,,,,,,,,,
,,,,,,59e5a69916ecc200016fefdb,62bbfa0f1ce067b5633dbc61,2022-06-29_02h09.12.718,Colour_Asymmetry_Pilot,2022.1.3,Win32,29.89536622,62bbe60bf3d75ef465d3e404,0,47,47,112,1,onetwo,,,,,,,,,,,,,,,,,,,,,,,,,,,,,,,,,,,,,,,,,,,,,,,,,,,,,,,,,,,,,,,,,,,,,,,,,,,,,,,,,,,,,,,,,,,,,,,,,,,,,,,,,,,,,,,,,,,,,,,,,,,,,,,,,,,,,,,,,,,,,,,,,,,,,,,,
,,,,,,59e5a69916ecc200016fefdb,62bbfa0f1ce067b5633dbc61,2022-06-29_02h09.12.718,Colour_Asymmetry_Pilot,2022.1.3,Win32,29.89536622,62bbe60bf3d75ef465d3e404,0,48,48,122,1,twoone,,,,,,,,,,,,,,,,,,,,,,,,,,,,,,,,,,,,,,,,,,,,,,,,,,,,,,,,,,,,,,,,,,,,,,,,,,,,,,,,,,,,,,,,,,,,,,,,,,,,,,,,,,,,,,,,,,,,,,,,,,,,,,,,,,,,,,,,,,,,,,,,,,,,,,,,
,,,,,,59e5a69916ecc200016fefdb,62bbfa0f1ce067b5633dbc61,2022-06-29_02h09.12.718,Colour_Asymmetry_Pilot,2022.1.3,Win32,29.89536622,62bbe60bf3d75ef465d3e404,0,49,49,75,1,twofour,,,,,,,,,,,,,,,,,,,,,,,,,,,,,,,,,,,,,,,,,,,,,,,,,,,,,,,,,,,,,,,,,,,,,,,,,,,,,,,,,,,,,,,,,,,,,,,,,,,,,,,,,,,,,,,,,,,,,,,,,,,,,,,,,,,,,,,,,,,,,,,,,,,,,,,,
,,,,,,59e5a69916ecc200016fefdb,62bbfa0f1ce067b5633dbc61,2022-06-29_02h09.12.718,Colour_Asymmetry_Pilot,2022.1.3,Win32,29.89536622,62bbe60bf3d75ef465d3e404,0,50,50,107,1,twofour,,,,,,,,,,,,,,,,,,,,,,,,,,,,,,,,,,,,,,,,,,,,,,,,,,,,,,,,,,,,,,,,,,,,,,,,,,,,,,,,,,,,,,,,,,,,,,,,,,,,,,,,,,,,,,,,,,,,,,,,,,,,,,,,,,,,,,,,,,,,,,,,,,,,,,,,
,,,,,,59e5a69916ecc200016fefdb,62bbfa0f1ce067b5633dbc61,2022-06-29_02h09.12.718,Colour_Asymmetry_Pilot,2022.1.3,Win32,29.89536622,62bbe60bf3d75ef465d3e404,0,51,51,131,1,twofour,,,,,,,,,,,,,,,,,,,,,,,,,,,,,,,,,,,,,,,,,,,,,,,,,,,,,,,,,,,,,,,,,,,,,,,,,,,,,,,,,,,,,,,,,,,,,,,,,,,,,,,,,,,,,,,,,,,,,,,,,,,,,,,,,,,,,,,,,,,,,,,,,,,,,,,,
,,,,,,59e5a69916ecc200016fefdb,62bbfa0f1ce067b5633dbc61,2022-06-29_02h09.12.718,Colour_Asymmetry_Pilot,2022.1.3,Win32,29.89536622,62bbe60bf3d75ef465d3e404,0,52,52,148,1,threeone,,,,,,,,,,,,,,,,,,,,,,,,,,,,,,,,,,,,,,,,,,,,,,,,,,,,,,,,,,,,,,,,,,,,,,,,,,,,,,,,,,,,,,,,,,,,,,,,,,,,,,,,,,,,,,,,,,,,,,,,,,,,,,,,,,,,,,,,,,,,,,,,,,,,,,,,
,,,,,,59e5a69916ecc200016fefdb,62bbfa0f1ce067b5633dbc61,2022-06-29_02h09.12.718,Colour_Asymmetry_Pilot,2022.1.3,Win32,29.89536622,62bbe60bf3d75ef465d3e404,0,53,53,140,1,threeone,,,,,,,,,,,,,,,,,,,,,,,,,,,,,,,,,,,,,,,,,,,,,,,,,,,,,,,,,,,,,,,,,,,,,,,,,,,,,,,,,,,,,,,,,,,,,,,,,,,,,,,,,,,,,,,,,,,,,,,,,,,,,,,,,,,,,,,,,,,,,,,,,,,,,,,,
,,,,,,59e5a69916ecc200016fefdb,62bbfa0f1ce067b5633dbc61,2022-06-29_02h09.12.718,Colour_Asymmetry_Pilot,2022.1.3,Win32,29.89536622,62bbe60bf3d75ef465d3e404,0,54,54,29,1,threefour,,,,,,,,,,,,,,,,,,,,,,,,,,,,,,,,,,,,,,,,,,,,,,,,,,,,,,,,,,,,,,,,,,,,,,,,,,,,,,,,,,,,,,,,,,,,,,,,,,,,,,,,,,,,,,,,,,,,,,,,,,,,,,,,,,,,,,,,,,,,,,,,,,,,,,,,
,,,,,,59e5a69916ecc200016fefdb,62bbfa0f1ce067b5633dbc61,2022-06-29_02h09.12.718,Colour_Asymmetry_Pilot,2022.1.3,Win32,29.89536622,62bbe60bf3d75ef465d3e404,0,55,55,157,1,threefour,,,,,,,,,,,,,,,,,,,,,,,,,,,,,,,,,,,,,,,,,,,,,,,,,,,,,,,,,,,,,,,,,,,,,,,,,,,,,,,,,,,,,,,,,,,,,,,,,,,,,,,,,,,,,,,,,,,,,,,,,,,,,,,,,,,,,,,,,,,,,,,,,,,,,,,,
,,,,,,59e5a69916ecc200016fefdb,62bbfa0f1ce067b5633dbc61,2022-06-29_02h09.12.718,Colour_Asymmetry_Pilot,2022.1.3,Win32,29.89536622,62bbe60bf3d75ef465d3e404,0,56,56,31,1,fourthree,,,,,,,,,,,,,,,,,,,,,,,,,,,,,,,,,,,,,,,,,,,,,,,,,,,,,,,,,,,,,,,,,,,,,,,,,,,,,,,,,,,,,,,,,,,,,,,,,,,,,,,,,,,,,,,,,,,,,,,,,,,,,,,,,,,,,,,,,,,,,,,,,,,,,,,,
,,,,,,59e5a69916ecc200016fefdb,62bbfa0f1ce067b5633dbc61,2022-06-29_02h09.12.718,Colour_Asymmetry_Pilot,2022.1.3,Win32,29.89536622,62bbe60bf3d75ef465d3e404,0,57,57,146,1,twoone,,,,,,,,,,,,,,,,,,,,,,,,,,,,,,,,,,,,,,,,,,,,,,,,,,,,,,,,,,,,,,,,,,,,,,,,,,,,,,,,,,,,,,,,,,,,,,,,,,,,,,,,,,,,,,,,,,,,,,,,,,,,,,,,,,,,,,,,,,,,,,,,,,,,,,,,
,,,,,,59e5a69916ecc200016fefdb,62bbfa0f1ce067b5633dbc61,2022-06-29_02h09.12.718,Colour_Asymmetry_Pilot,2022.1.3,Win32,29.89536622,62bbe60bf3d75ef465d3e404,0,58,58,65,1,onethree,,,,,,,,,,,,,,,,,,,,,,,,,,,,,,,,,,,,,,,,,,,,,,,,,,,,,,,,,,,,,,,,,,,,,,,,,,,,,,,,,,,,,,,,,,,,,,,,,,,,,,,,,,,,,,,,,,,,,,,,,,,,,,,,,,,,,,,,,,,,,,,,,,,,,,,,
,,,,,,59e5a69916ecc200016fefdb,62bbfa0f1ce067b5633dbc61,2022-06-29_02h09.12.718,Colour_Asymmetry_Pilot,2022.1.3,Win32,29.89536622,62bbe60bf3d75ef465d3e404,0,59,59,9,1,onethree,,,,,,,,,,,,,,,,,,,,,,,,,,,,,,,,,,,,,,,,,,,,,,,,,,,,,,,,,,,,,,,,,,,,,,,,,,,,,,,,,,,,,,,,,,,,,,,,,,,,,,,,,,,,,,,,,,,,,,,,,,,,,,,,,,,,,,,,,,,,,,,,,,,,,,,,
,,,,,,59e5a69916ecc200016fefdb,62bbfa0f1ce067b5633dbc61,2022-06-29_02h09.12.718,Colour_Asymmetry_Pilot,2022.1.3,Win32,29.89536622,62bbe60bf3d75ef465d3e404,0,60,60,79,1,fourthree,,,,,,,,,,,,,,,,,,,,,,,,,,,,,,,,,,,,,,,,,,,,,,,,,,,,,,,,,,,,,,,,,,,,,,,,,,,,,,,,,,,,,,,,,,,,,,,,,,,,,,,,,,,,,,,,,,,,,,,,,,,,,,,,,,,,,,,,,,,,,,,,,,,,,,,,
,,,,,,59e5a69916ecc200016fefdb,62bbfa0f1ce067b5633dbc61,2022-06-29_02h09.12.718,Colour_Asymmetry_Pilot,2022.1.3,Win32,29.89536622,62bbe60bf3d75ef465d3e404,0,61,61,136,1,onetwo,,,,,,,,,,,,,,,,,,,,,,,,,,,,,,,,,,,,,,,,,,,,,,,,,,,,,,,,,,,,,,,,,,,,,,,,,,,,,,,,,,,,,,,,,,,,,,,,,,,,,,,,,,,,,,,,,,,,,,,,,,,,,,,,,,,,,,,,,,,,,,,,,,,,,,,,
,,,,,,59e5a69916ecc200016fefdb,62bbfa0f1ce067b5633dbc61,2022-06-29_02h09.12.718,Colour_Asymmetry_Pilot,2022.1.3,Win32,29.89536622,62bbe60bf3d75ef465d3e404,0,62,62,19,1,twofour,,,,,,,,,,,,,,,,,,,,,,,,,,,,,,,,,,,,,,,,,,,,,,,,,,,,,,,,,,,,,,,,,,,,,,,,,,,,,,,,,,,,,,,,,,,,,,,,,,,,,,,,,,,,,,,,,,,,,,,,,,,,,,,,,,,,,,,,,,,,,,,,,,,,,,,,
,,,,,,59e5a69916ecc200016fefdb,62bbfa0f1ce067b5633dbc61,2022-06-29_02h09.12.718,Colour_Asymmetry_Pilot,2022.1.3,Win32,29.89536622,62bbe60bf3d75ef465d3e404,0,63,63,23,1,fourthree,,,,,,,,,,,,,,,,,,,,,,,,,,,,,,,,,,,,,,,,,,,,,,,,,,,,,,,,,,,,,,,,,,,,,,,,,,,,,,,,,,,,,,,,,,,,,,,,,,,,,,,,,,,,,,,,,,,,,,,,,,,,,,,,,,,,,,,,,,,,,,,,,,,,,,,,
,,,,,,59e5a69916ecc200016fefdb,62bbfa0f1ce067b5633dbc61,2022-06-29_02h09.12.718,Colour_Asymmetry_Pilot,2022.1.3,Win32,29.89536622,62bbe60bf3d75ef465d3e404,0,64,64,118,1,fourtwo,,,,,,,,,,,,,,,,,,,,,,,,,,,,,,,,,,,,,,,,,,,,,,,,,,,,,,,,,,,,,,,,,,,,,,,,,,,,,,,,,,,,,,,,,,,,,,,,,,,,,,,,,,,,,,,,,,,,,,,,,,,,,,,,,,,,,,,,,,,,,,,,,,,,,,,,
,,,,,,59e5a69916ecc200016fefdb,62bbfa0f1ce067b5633dbc61,2022-06-29_02h09.12.718,Colour_Asymmetry_Pilot,2022.1.3,Win32,29.89536622,62bbe60bf3d75ef465d3e404,0,65,65,40,1,onetwo,,,,,,,,,,,,,,,,,,,,,,,,,,,,,,,,,,,,,,,,,,,,,,,,,,,,,,,,,,,,,,,,,,,,,,,,,,,,,,,,,,,,,,,,,,,,,,,,,,,,,,,,,,,,,,,,,,,,,,,,,,,,,,,,,,,,,,,,,,,,,,,,,,,,,,,,
,,,,,,59e5a69916ecc200016fefdb,62bbfa0f1ce067b5633dbc61,2022-06-29_02h09.12.718,Colour_Asymmetry_Pilot,2022.1.3,Win32,29.89536622,62bbe60bf3d75ef465d3e404,0,66,66,34,1,twoone,,,,,,,,,,,,,,,,,,,,,,,,,,,,,,,,,,,,,,,,,,,,,,,,,,,,,,,,,,,,,,,,,,,,,,,,,,,,,,,,,,,,,,,,,,,,,,,,,,,,,,,,,,,,,,,,,,,,,,,,,,,,,,,,,,,,,,,,,,,,,,,,,,,,,,,,
,,,,,,59e5a69916ecc200016fefdb,62bbfa0f1ce067b5633dbc61,2022-06-29_02h09.12.718,Colour_Asymmetry_Pilot,2022.1.3,Win32,29.89536622,62bbe60bf3d75ef465d3e404,0,67,67,93,1,threefour,,,,,,,,,,,,,,,,,,,,,,,,,,,,,,,,,,,,,,,,,,,,,,,,,,,,,,,,,,,,,,,,,,,,,,,,,,,,,,,,,,,,,,,,,,,,,,,,,,,,,,,,,,,,,,,,,,,,,,,,,,,,,,,,,,,,,,,,,,,,,,,,,,,,,,,,
,,,,,,59e5a69916ecc200016fefdb,62bbfa0f1ce067b5633dbc61,2022-06-29_02h09.12.718,Colour_Asymmetry_Pilot,2022.1.3,Win32,29.89536622,62bbe60bf3d75ef465d3e404,0,68,68,54,1,fourtwo,,,,,,,,,,,,,,,,,,,,,,,,,,,,,,,,,,,,,,,,,,,,,,,,,,,,,,,,,,,,,,,,,,,,,,,,,,,,,,,,,,,,,,,,,,,,,,,,,,,,,,,,,,,,,,,,,,,,,,,,,,,,,,,,,,,,,,,,,,,,,,,,,,,,,,,,
,,,,,,59e5a69916ecc200016fefdb,62bbfa0f1ce067b5633dbc61,2022-06-29_02h09.12.718,Colour_Asymmetry_Pilot,2022.1.3,Win32,29.89536622,62bbe60bf3d75ef465d3e404,0,69,69,80,1,onetwo,,,,,,,,,,,,,,,,,,,,,,,,,,,,,,,,,,,,,,,,,,,,,,,,,,,,,,,,,,,,,,,,,,,,,,,,,,,,,,,,,,,,,,,,,,,,,,,,,,,,,,,,,,,,,,,,,,,,,,,,,,,,,,,,,,,,,,,,,,,,,,,,,,,,,,,,
,,,,,,59e5a69916ecc200016fefdb,62bbfa0f1ce067b5633dbc61,2022-06-29_02h09.12.718,Colour_Asymmetry_Pilot,2022.1.3,Win32,29.89536622,62bbe60bf3d75ef465d3e404,0,70,70,141,1,threefour,,,,,,,,,,,,,,,,,,,,,,,,,,,,,,,,,,,,,,,,,,,,,,,,,,,,,,,,,,,,,,,,,,,,,,,,,,,,,,,,,,,,,,,,,,,,,,,,,,,,,,,,,,,,,,,,,,,,,,,,,,,,,,,,,,,,,,,,,,,,,,,,,,,,,,,,
,,,,,,59e5a69916ecc200016fefdb,62bbfa0f1ce067b5633dbc61,2022-06-29_02h09.12.718,Colour_Asymmetry_Pilot,2022.1.3,Win32,29.89536622,62bbe60bf3d75ef465d3e404,0,71,71,55,1,fourthree,,,,,,,,,,,,,,,,,,,,,,,,,,,,,,,,,,,,,,,,,,,,,,,,,,,,,,,,,,,,,,,,,,,,,,,,,,,,,,,,,,,,,,,,,,,,,,,,,,,,,,,,,,,,,,,,,,,,,,,,,,,,,,,,,,,,,,,,,,,,,,,,,,,,,,,,
,,,,,,59e5a69916ecc200016fefdb,62bbfa0f1ce067b5633dbc61,2022-06-29_02h09.12.718,Colour_Asymmetry_Pilot,2022.1.3,Win32,29.89536622,62bbe60bf3d75ef465d3e404,0,72,72,94,1,fourtwo,,,,,,,,,,,,,,,,,,,,,,,,,,,,,,,,,,,,,,,,,,,,,,,,,,,,,,,,,,,,,,,,,,,,,,,,,,,,,,,,,,,,,,,,,,,,,,,,,,,,,,,,,,,,,,,,,,,,,,,,,,,,,,,,,,,,,,,,,,,,,,,,,,,,,,,,
,,,,,,59e5a69916ecc200016fefdb,62bbfa0f1ce067b5633dbc61,2022-06-29_02h09.12.718,Colour_Asymmetry_Pilot,2022.1.3,Win32,29.89536622,62bbe60bf3d75ef465d3e404,0,73,73,92,1,threeone,,,,,,,,,,,,,,,,,,,,,,,,,,,,,,,,,,,,,,,,,,,,,,,,,,,,,,,,,,,,,,,,,,,,,,,,,,,,,,,,,,,,,,,,,,,,,,,,,,,,,,,,,,,,,,,,,,,,,,,,,,,,,,,,,,,,,,,,,,,,,,,,,,,,,,,,
,,,,,,59e5a69916ecc200016fefdb,62bbfa0f1ce067b5633dbc61,2022-06-29_02h09.12.718,Colour_Asymmetry_Pilot,2022.1.3,Win32,29.89536622,62bbe60bf3d75ef465d3e404,0,74,74,111,1,fourthree,,,,,,,,,,,,,,,,,,,,,,,,,,,,,,,,,,,,,,,,,,,,,,,,,,,,,,,,,,,,,,,,,,,,,,,,,,,,,,,,,,,,,,,,,,,,,,,,,,,,,,,,,,,,,,,,,,,,,,,,,,,,,,,,,,,,,,,,,,,,,,,,,,,,,,,,
,,,,,,59e5a69916ecc200016fefdb,62bbfa0f1ce067b5633dbc61,2022-06-29_02h09.12.718,Colour_Asymmetry_Pilot,2022.1.3,Win32,29.89536622,62bbe60bf3d75ef465d3e404,0,75,75,106,1,twoone,,,,,,,,,,,,,,,,,,,,,,,,,,,,,,,,,,,,,,,,,,,,,,,,,,,,,,,,,,,,,,,,,,,,,,,,,,,,,,,,,,,,,,,,,,,,,,,,,,,,,,,,,,,,,,,,,,,,,,,,,,,,,,,,,,,,,,,,,,,,,,,,,,,,,,,,
,,,,,,59e5a69916ecc200016fefdb,62bbfa0f1ce067b5633dbc61,2022-06-29_02h09.12.718,Colour_Asymmetry_Pilot,2022.1.3,Win32,29.89536622,62bbe60bf3d75ef465d3e404,0,76,76,7,1,fourthree,,,,,,,,,,,,,,,,,,,,,,,,,,,,,,,,,,,,,,,,,,,,,,,,,,,,,,,,,,,,,,,,,,,,,,,,,,,,,,,,,,,,,,,,,,,,,,,,,,,,,,,,,,,,,,,,,,,,,,,,,,,,,,,,,,,,,,,,,,,,,,,,,,,,,,,,
,,,,,,59e5a69916ecc200016fefdb,62bbfa0f1ce067b5633dbc61,2022-06-29_02h09.12.718,Colour_Asymmetry_Pilot,2022.1.3,Win32,29.89536622,62bbe60bf3d75ef465d3e404,0,77,77,61,1,threefour,,,,,,,,,,,,,,,,,,,,,,,,,,,,,,,,,,,,,,,,,,,,,,,,,,,,,,,,,,,,,,,,,,,,,,,,,,,,,,,,,,,,,,,,,,,,,,,,,,,,,,,,,,,,,,,,,,,,,,,,,,,,,,,,,,,,,,,,,,,,,,,,,,,,,,,,
,,,,,,59e5a69916ecc200016fefdb,62bbfa0f1ce067b5633dbc61,2022-06-29_02h09.12.718,Colour_Asymmetry_Pilot,2022.1.3,Win32,29.89536622,62bbe60bf3d75ef465d3e404,0,78,78,155,1,twofour,,,,,,,,,,,,,,,,,,,,,,,,,,,,,,,,,,,,,,,,,,,,,,,,,,,,,,,,,,,,,,,,,,,,,,,,,,,,,,,,,,,,,,,,,,,,,,,,,,,,,,,,,,,,,,,,,,,,,,,,,,,,,,,,,,,,,,,,,,,,,,,,,,,,,,,,
,,,,,,59e5a69916ecc200016fefdb,62bbfa0f1ce067b5633dbc61,2022-06-29_02h09.12.718,Colour_Asymmetry_Pilot,2022.1.3,Win32,29.89536622,62bbe60bf3d75ef465d3e404,0,79,79,10,1,twoone,,,,,,,,,,,,,,,,,,,,,,,,,,,,,,,,,,,,,,,,,,,,,,,,,,,,,,,,,,,,,,,,,,,,,,,,,,,,,,,,,,,,,,,,,,,,,,,,,,,,,,,,,,,,,,,,,,,,,,,,,,,,,,,,,,,,,,,,,,,,,,,,,,,,,,,,
,,,,,,59e5a69916ecc200016fefdb,62bbfa0f1ce067b5633dbc61,2022-06-29_02h09.12.718,Colour_Asymmetry_Pilot,2022.1.3,Win32,29.89536622,62bbe60bf3d75ef465d3e404,0,80,80,37,1,threefour,,,,,,,,,,,,,,,,,,,,,,,,,,,,,,,,,,,,,,,,,,,,,,,,,,,,,,,,,,,,,,,,,,,,,,,,,,,,,,,,,,,,,,,,,,,,,,,,,,,,,,,,,,,,,,,,,,,,,,,,,,,,,,,,,,,,,,,,,,,,,,,,,,,,,,,,
,,,,,,59e5a69916ecc200016fefdb,62bbfa0f1ce067b5633dbc61,2022-06-29_02h09.12.718,Colour_Asymmetry_Pilot,2022.1.3,Win32,29.89536622,62bbe60bf3d75ef465d3e404,0,81,81,6,1,fourtwo,,,,,,,,,,,,,,,,,,,,,,,,,,,,,,,,,,,,,,,,,,,,,,,,,,,,,,,,,,,,,,,,,,,,,,,,,,,,,,,,,,,,,,,,,,,,,,,,,,,,,,,,,,,,,,,,,,,,,,,,,,,,,,,,,,,,,,,,,,,,,,,,,,,,,,,,
,,,,,,59e5a69916ecc200016fefdb,62bbfa0f1ce067b5633dbc61,2022-06-29_02h09.12.718,Colour_Asymmetry_Pilot,2022.1.3,Win32,29.89536622,62bbe60bf3d75ef465d3e404,0,82,82,44,1,threeone,,,,,,,,,,,,,,,,,,,,,,,,,,,,,,,,,,,,,,,,,,,,,,,,,,,,,,,,,,,,,,,,,,,,,,,,,,,,,,,,,,,,,,,,,,,,,,,,,,,,,,,,,,,,,,,,,,,,,,,,,,,,,,,,,,,,,,,,,,,,,,,,,,,,,,,,
,,,,,,59e5a69916ecc200016fefdb,62bbfa0f1ce067b5633dbc61,2022-06-29_02h09.12.718,Colour_Asymmetry_Pilot,2022.1.3,Win32,29.89536622,62bbe60bf3d75ef465d3e404,0,83,83,81,1,onethree,,,,,,,,,,,,,,,,,,,,,,,,,,,,,,,,,,,,,,,,,,,,,,,,,,,,,,,,,,,,,,,,,,,,,,,,,,,,,,,,,,,,,,,,,,,,,,,,,,,,,,,,,,,,,,,,,,,,,,,,,,,,,,,,,,,,,,,,,,,,,,,,,,,,,,,,
,,,,,,59e5a69916ecc200016fefdb,62bbfa0f1ce067b5633dbc61,2022-06-29_02h09.12.718,Colour_Asymmetry_Pilot,2022.1.3,Win32,29.89536622,62bbe60bf3d75ef465d3e404,0,84,84,1,1,onethree,,,,,,,,,,,,,,,,,,,,,,,,,,,,,,,,,,,,,,,,,,,,,,,,,,,,,,,,,,,,,,,,,,,,,,,,,,,,,,,,,,,,,,,,,,,,,,,,,,,,,,,,,,,,,,,,,,,,,,,,,,,,,,,,,,,,,,,,,,,,,,,,,,,,,,,,
,,,,,,59e5a69916ecc200016fefdb,62bbfa0f1ce067b5633dbc61,2022-06-29_02h09.12.718,Colour_Asymmetry_Pilot,2022.1.3,Win32,29.89536622,62bbe60bf3d75ef465d3e404,0,85,85,71,1,fourthree,,,,,,,,,,,,,,,,,,,,,,,,,,,,,,,,,,,,,,,,,,,,,,,,,,,,,,,,,,,,,,,,,,,,,,,,,,,,,,,,,,,,,,,,,,,,,,,,,,,,,,,,,,,,,,,,,,,,,,,,,,,,,,,,,,,,,,,,,,,,,,,,,,,,,,,,
,,,,,,59e5a69916ecc200016fefdb,62bbfa0f1ce067b5633dbc61,2022-06-29_02h09.12.718,Colour_Asymmetry_Pilot,2022.1.3,Win32,29.89536622,62bbe60bf3d75ef465d3e404,0,86,86,45,1,threefour,,,,,,,,,,,,,,,,,,,,,,,,,,,,,,,,,,,,,,,,,,,,,,,,,,,,,,,,,,,,,,,,,,,,,,,,,,,,,,,,,,,,,,,,,,,,,,,,,,,,,,,,,,,,,,,,,,,,,,,,,,,,,,,,,,,,,,,,,,,,,,,,,,,,,,,,
,,,,,,59e5a69916ecc200016fefdb,62bbfa0f1ce067b5633dbc61,2022-06-29_02h09.12.718,Colour_Asymmetry_Pilot,2022.1.3,Win32,29.89536622,62bbe60bf3d75ef465d3e404,0,87,87,154,1,twoone,,,,,,,,,,,,,,,,,,,,,,,,,,,,,,,,,,,,,,,,,,,,,,,,,,,,,,,,,,,,,,,,,,,,,,,,,,,,,,,,,,,,,,,,,,,,,,,,,,,,,,,,,,,,,,,,,,,,,,,,,,,,,,,,,,,,,,,,,,,,,,,,,,,,,,,,
,,,,,,59e5a69916ecc200016fefdb,62bbfa0f1ce067b5633dbc61,2022-06-29_02h09.12.718,Colour_Asymmetry_Pilot,2022.1.3,Win32,29.89536622,62bbe60bf3d75ef465d3e404,0,88,88,66,1,twoone,,,,,,,,,,,,,,,,,,,,,,,,,,,,,,,,,,,,,,,,,,,,,,,,,,,,,,,,,,,,,,,,,,,,,,,,,,,,,,,,,,,,,,,,,,,,,,,,,,,,,,,,,,,,,,,,,,,,,,,,,,,,,,,,,,,,,,,,,,,,,,,,,,,,,,,,
,,,,,,59e5a69916ecc200016fefdb,62bbfa0f1ce067b5633dbc61,2022-06-29_02h09.12.718,Colour_Asymmetry_Pilot,2022.1.3,Win32,29.89536622,62bbe60bf3d75ef465d3e404,0,89,89,26,1,twoone,,,,,,,,,,,,,,,,,,,,,,,,,,,,,,,,,,,,,,,,,,,,,,,,,,,,,,,,,,,,,,,,,,,,,,,,,,,,,,,,,,,,,,,,,,,,,,,,,,,,,,,,,,,,,,,,,,,,,,,,,,,,,,,,,,,,,,,,,,,,,,,,,,,,,,,,
,,,,,,59e5a69916ecc200016fefdb,62bbfa0f1ce067b5633dbc61,2022-06-29_02h09.12.718,Colour_Asymmetry_Pilot,2022.1.3,Win32,29.89536622,62bbe60bf3d75ef465d3e404,0,90,90,5,1,threefour,,,,,,,,,,,,,,,,,,,,,,,,,,,,,,,,,,,,,,,,,,,,,,,,,,,,,,,,,,,,,,,,,,,,,,,,,,,,,,,,,,,,,,,,,,,,,,,,,,,,,,,,,,,,,,,,,,,,,,,,,,,,,,,,,,,,,,,,,,,,,,,,,,,,,,,,
,,,,,,59e5a69916ecc200016fefdb,62bbfa0f1ce067b5633dbc61,2022-06-29_02h09.12.718,Colour_Asymmetry_Pilot,2022.1.3,Win32,29.89536622,62bbe60bf3d75ef465d3e404,0,91,91,159,1,fourthree,,,,,,,,,,,,,,,,,,,,,,,,,,,,,,,,,,,,,,,,,,,,,,,,,,,,,,,,,,,,,,,,,,,,,,,,,,,,,,,,,,,,,,,,,,,,,,,,,,,,,,,,,,,,,,,,,,,,,,,,,,,,,,,,,,,,,,,,,,,,,,,,,,,,,,,,
,,,,,,59e5a69916ecc200016fefdb,62bbfa0f1ce067b5633dbc61,2022-06-29_02h09.12.718,Colour_Asymmetry_Pilot,2022.1.3,Win32,29.89536622,62bbe60bf3d75ef465d3e404,0,92,92,13,1,threefour,,,,,,,,,,,,,,,,,,,,,,,,,,,,,,,,,,,,,,,,,,,,,,,,,,,,,,,,,,,,,,,,,,,,,,,,,,,,,,,,,,,,,,,,,,,,,,,,,,,,,,,,,,,,,,,,,,,,,,,,,,,,,,,,,,,,,,,,,,,,,,,,,,,,,,,,
,,,,,,59e5a69916ecc200016fefdb,62bbfa0f1ce067b5633dbc61,2022-06-29_02h09.12.718,Colour_Asymmetry_Pilot,2022.1.3,Win32,29.89536622,62bbe60bf3d75ef465d3e404,0,93,93,32,1,onetwo,,,,,,,,,,,,,,,,,,,,,,,,,,,,,,,,,,,,,,,,,,,,,,,,,,,,,,,,,,,,,,,,,,,,,,,,,,,,,,,,,,,,,,,,,,,,,,,,,,,,,,,,,,,,,,,,,,,,,,,,,,,,,,,,,,,,,,,,,,,,,,,,,,,,,,,,
,,,,,,59e5a69916ecc200016fefdb,62bbfa0f1ce067b5633dbc61,2022-06-29_02h09.12.718,Colour_Asymmetry_Pilot,2022.1.3,Win32,29.89536622,62bbe60bf3d75ef465d3e404,0,94,94,116,1,threeone,,,,,,,,,,,,,,,,,,,,,,,,,,,,,,,,,,,,,,,,,,,,,,,,,,,,,,,,,,,,,,,,,,,,,,,,,,,,,,,,,,,,,,,,,,,,,,,,,,,,,,,,,,,,,,,,,,,,,,,,,,,,,,,,,,,,,,,,,,,,,,,,,,,,,,,,
,,,,,,59e5a69916ecc200016fefdb,62bbfa0f1ce067b5633dbc61,2022-06-29_02h09.12.718,Colour_Asymmetry_Pilot,2022.1.3,Win32,29.89536622,62bbe60bf3d75ef465d3e404,0,95,95,87,1,fourthree,,,,,,,,,,,,,,,,,,,,,,,,,,,,,,,,,,,,,,,,,,,,,,,,,,,,,,,,,,,,,,,,,,,,,,,,,,,,,,,,,,,,,,,,,,,,,,,,,,,,,,,,,,,,,,,,,,,,,,,,,,,,,,,,,,,,,,,,,,,,,,,,,,,,,,,,
,,,,,,59e5a69916ecc200016fefdb,62bbfa0f1ce067b5633dbc61,2022-06-29_02h09.12.718,Colour_Asymmetry_Pilot,2022.1.3,Win32,29.89536622,62bbe60bf3d75ef465d3e404,0,96,96,143,1,fourthree,,,,,,,,,,,,,,,,,,,,,,,,,,,,,,,,,,,,,,,,,,,,,,,,,,,,,,,,,,,,,,,,,,,,,,,,,,,,,,,,,,,,,,,,,,,,,,,,,,,,,,,,,,,,,,,,,,,,,,,,,,,,,,,,,,,,,,,,,,,,,,,,,,,,,,,,
,,,,,,59e5a69916ecc200016fefdb,62bbfa0f1ce067b5633dbc61,2022-06-29_02h09.12.718,Colour_Asymmetry_Pilot,2022.1.3,Win32,29.89536622,62bbe60bf3d75ef465d3e404,0,97,97,30,1,fourtwo,,,,,,,,,,,,,,,,,,,,,,,,,,,,,,,,,,,,,,,,,,,,,,,,,,,,,,,,,,,,,,,,,,,,,,,,,,,,,,,,,,,,,,,,,,,,,,,,,,,,,,,,,,,,,,,,,,,,,,,,,,,,,,,,,,,,,,,,,,,,,,,,,,,,,,,,
,,,,,,59e5a69916ecc200016fefdb,62bbfa0f1ce067b5633dbc61,2022-06-29_02h09.12.718,Colour_Asymmetry_Pilot,2022.1.3,Win32,29.89536622,62bbe60bf3d75ef465d3e404,0,98,98,68,1,threeone,,,,,,,,,,,,,,,,,,,,,,,,,,,,,,,,,,,,,,,,,,,,,,,,,,,,,,,,,,,,,,,,,,,,,,,,,,,,,,,,,,,,,,,,,,,,,,,,,,,,,,,,,,,,,,,,,,,,,,,,,,,,,,,,,,,,,,,,,,,,,,,,,,,,,,,,
,,,,,,59e5a69916ecc200016fefdb,62bbfa0f1ce067b5633dbc61,2022-06-29_02h09.12.718,Colour_Asymmetry_Pilot,2022.1.3,Win32,29.89536622,62bbe60bf3d75ef465d3e404,0,99,99,161,1,onethree,,,,,,,,,,,,,,,,,,,,,,,,,,,,,,,,,,,,,,,,,,,,,,,,,,,,,,,,,,,,,,,,,,,,,,,,,,,,,,,,,,,,,,,,,,,,,,,,,,,,,,,,,,,,,,,,,,,,,,,,,,,,,,,,,,,,,,,,,,,,,,,,,,,,,,,,
,,,,,,59e5a69916ecc200016fefdb,62bbfa0f1ce067b5633dbc61,2022-06-29_02h09.12.718,Colour_Asymmetry_Pilot,2022.1.3,Win32,29.89536622,62bbe60bf3d75ef465d3e404,0,100,100,18,1,twoone,,,,,,,,,,,,,,,,,,,,,,,,,,,,,,,,,,,,,,,,,,,,,,,,,,,,,,,,,,,,,,,,,,,,,,,,,,,,,,,,,,,,,,,,,,,,,,,,,,,,,,,,,,,,,,,,,,,,,,,,,,,,,,,,,,,,,,,,,,,,,,,,,,,,,,,,
,,,,,,59e5a69916ecc200016fefdb,62bbfa0f1ce067b5633dbc61,2022-06-29_02h09.12.718,Colour_Asymmetry_Pilot,2022.1.3,Win32,29.89536622,62bbe60bf3d75ef465d3e404,0,101,101,139,1,twofour,,,,,,,,,,,,,,,,,,,,,,,,,,,,,,,,,,,,,,,,,,,,,,,,,,,,,,,,,,,,,,,,,,,,,,,,,,,,,,,,,,,,,,,,,,,,,,,,,,,,,,,,,,,,,,,,,,,,,,,,,,,,,,,,,,,,,,,,,,,,,,,,,,,,,,,,
,,,,,,59e5a69916ecc200016fefdb,62bbfa0f1ce067b5633dbc61,2022-06-29_02h09.12.718,Colour_Asymmetry_Pilot,2022.1.3,Win32,29.89536622,62bbe60bf3d75ef465d3e404,0,102,102,134,1,fourtwo,,,,,,,,,,,,,,,,,,,,,,,,,,,,,,,,,,,,,,,,,,,,,,,,,,,,,,,,,,,,,,,,,,,,,,,,,,,,,,,,,,,,,,,,,,,,,,,,,,,,,,,,,,,,,,,,,,,,,,,,,,,,,,,,,,,,,,,,,,,,,,,,,,,,,,,,
,,,,,,59e5a69916ecc200016fefdb,62bbfa0f1ce067b5633dbc61,2022-06-29_02h09.12.718,Colour_Asymmetry_Pilot,2022.1.3,Win32,29.89536622,62bbe60bf3d75ef465d3e404,0,103,103,138,1,twoone,,,,,,,,,,,,,,,,,,,,,,,,,,,,,,,,,,,,,,,,,,,,,,,,,,,,,,,,,,,,,,,,,,,,,,,,,,,,,,,,,,,,,,,,,,,,,,,,,,,,,,,,,,,,,,,,,,,,,,,,,,,,,,,,,,,,,,,,,,,,,,,,,,,,,,,,
,,,,,,59e5a69916ecc200016fefdb,62bbfa0f1ce067b5633dbc61,2022-06-29_02h09.12.718,Colour_Asymmetry_Pilot,2022.1.3,Win32,29.89536622,62bbe60bf3d75ef465d3e404,0,104,104,114,1,twoone,,,,,,,,,,,,,,,,,,,,,,,,,,,,,,,,,,,,,,,,,,,,,,,,,,,,,,,,,,,,,,,,,,,,,,,,,,,,,,,,,,,,,,,,,,,,,,,,,,,,,,,,,,,,,,,,,,,,,,,,,,,,,,,,,,,,,,,,,,,,,,,,,,,,,,,,
,,,,,,59e5a69916ecc200016fefdb,62bbfa0f1ce067b5633dbc61,2022-06-29_02h09.12.718,Colour_Asymmetry_Pilot,2022.1.3,Win32,29.89536622,62bbe60bf3d75ef465d3e404,0,105,105,77,1,threefour,,,,,,,,,,,,,,,,,,,,,,,,,,,,,,,,,,,,,,,,,,,,,,,,,,,,,,,,,,,,,,,,,,,,,,,,,,,,,,,,,,,,,,,,,,,,,,,,,,,,,,,,,,,,,,,,,,,,,,,,,,,,,,,,,,,,,,,,,,,,,,,,,,,,,,,,
,,,,,,59e5a69916ecc200016fefdb,62bbfa0f1ce067b5633dbc61,2022-06-29_02h09.12.718,Colour_Asymmetry_Pilot,2022.1.3,Win32,29.89536622,62bbe60bf3d75ef465d3e404,0,106,106,82,1,twoone,,,,,,,,,,,,,,,,,,,,,,,,,,,,,,,,,,,,,,,,,,,,,,,,,,,,,,,,,,,,,,,,,,,,,,,,,,,,,,,,,,,,,,,,,,,,,,,,,,,,,,,,,,,,,,,,,,,,,,,,,,,,,,,,,,,,,,,,,,,,,,,,,,,,,,,,
,,,,,,59e5a69916ecc200016fefdb,62bbfa0f1ce067b5633dbc61,2022-06-29_02h09.12.718,Colour_Asymmetry_Pilot,2022.1.3,Win32,29.89536622,62bbe60bf3d75ef465d3e404,0,107,107,24,1,onetwo,,,,,,,,,,,,,,,,,,,,,,,,,,,,,,,,,,,,,,,,,,,,,,,,,,,,,,,,,,,,,,,,,,,,,,,,,,,,,,,,,,,,,,,,,,,,,,,,,,,,,,,,,,,,,,,,,,,,,,,,,,,,,,,,,,,,,,,,,,,,,,,,,,,,,,,,
,,,,,,59e5a69916ecc200016fefdb,62bbfa0f1ce067b5633dbc61,2022-06-29_02h09.12.718,Colour_Asymmetry_Pilot,2022.1.3,Win32,29.89536622,62bbe60bf3d75ef465d3e404,0,108,108,156,1,threeone,,,,,,,,,,,,,,,,,,,,,,,,,,,,,,,,,,,,,,,,,,,,,,,,,,,,,,,,,,,,,,,,,,,,,,,,,,,,,,,,,,,,,,,,,,,,,,,,,,,,,,,,,,,,,,,,,,,,,,,,,,,,,,,,,,,,,,,,,,,,,,,,,,,,,,,,
,,,,,,59e5a69916ecc200016fefdb,62bbfa0f1ce067b5633dbc61,2022-06-29_02h09.12.718,Colour_Asymmetry_Pilot,2022.1.3,Win32,29.89536622,62bbe60bf3d75ef465d3e404,0,109,109,110,1,fourtwo,,,,,,,,,,,,,,,,,,,,,,,,,,,,,,,,,,,,,,,,,,,,,,,,,,,,,,,,,,,,,,,,,,,,,,,,,,,,,,,,,,,,,,,,,,,,,,,,,,,,,,,,,,,,,,,,,,,,,,,,,,,,,,,,,,,,,,,,,,,,,,,,,,,,,,,,
,,,,,,59e5a69916ecc200016fefdb,62bbfa0f1ce067b5633dbc61,2022-06-29_02h09.12.718,Colour_Asymmetry_Pilot,2022.1.3,Win32,29.89536622,62bbe60bf3d75ef465d3e404,0,110,110,47,1,fourthree,,,,,,,,,,,,,,,,,,,,,,,,,,,,,,,,,,,,,,,,,,,,,,,,,,,,,,,,,,,,,,,,,,,,,,,,,,,,,,,,,,,,,,,,,,,,,,,,,,,,,,,,,,,,,,,,,,,,,,,,,,,,,,,,,,,,,,,,,,,,,,,,,,,,,,,,
,,,,,,59e5a69916ecc200016fefdb,62bbfa0f1ce067b5633dbc61,2022-06-29_02h09.12.718,Colour_Asymmetry_Pilot,2022.1.3,Win32,29.89536622,62bbe60bf3d75ef465d3e404,0,111,111,69,1,threefour,,,,,,,,,,,,,,,,,,,,,,,,,,,,,,,,,,,,,,,,,,,,,,,,,,,,,,,,,,,,,,,,,,,,,,,,,,,,,,,,,,,,,,,,,,,,,,,,,,,,,,,,,,,,,,,,,,,,,,,,,,,,,,,,,,,,,,,,,,,,,,,,,,,,,,,,
,,,,,,59e5a69916ecc200016fefdb,62bbfa0f1ce067b5633dbc61,2022-06-29_02h09.12.718,Colour_Asymmetry_Pilot,2022.1.3,Win32,29.89536622,62bbe60bf3d75ef465d3e404,0,112,112,2,1,twoone,,,,,,,,,,,,,,,,,,,,,,,,,,,,,,,,,,,,,,,,,,,,,,,,,,,,,,,,,,,,,,,,,,,,,,,,,,,,,,,,,,,,,,,,,,,,,,,,,,,,,,,,,,,,,,,,,,,,,,,,,,,,,,,,,,,,,,,,,,,,,,,,,,,,,,,,
,,,,,,59e5a69916ecc200016fefdb,62bbfa0f1ce067b5633dbc61,2022-06-29_02h09.12.718,Colour_Asymmetry_Pilot,2022.1.3,Win32,29.89536622,62bbe60bf3d75ef465d3e404,0,113,113,58,1,twoone,,,,,,,,,,,,,,,,,,,,,,,,,,,,,,,,,,,,,,,,,,,,,,,,,,,,,,,,,,,,,,,,,,,,,,,,,,,,,,,,,,,,,,,,,,,,,,,,,,,,,,,,,,,,,,,,,,,,,,,,,,,,,,,,,,,,,,,,,,,,,,,,,,,,,,,,
,,,,,,59e5a69916ecc200016fefdb,62bbfa0f1ce067b5633dbc61,2022-06-29_02h09.12.718,Colour_Asymmetry_Pilot,2022.1.3,Win32,29.89536622,62bbe60bf3d75ef465d3e404,0,114,114,12,1,threeone,,,,,,,,,,,,,,,,,,,,,,,,,,,,,,,,,,,,,,,,,,,,,,,,,,,,,,,,,,,,,,,,,,,,,,,,,,,,,,,,,,,,,,,,,,,,,,,,,,,,,,,,,,,,,,,,,,,,,,,,,,,,,,,,,,,,,,,,,,,,,,,,,,,,,,,,
,,,,,,59e5a69916ecc200016fefdb,62bbfa0f1ce067b5633dbc61,2022-06-29_02h09.12.718,Colour_Asymmetry_Pilot,2022.1.3,Win32,29.89536622,62bbe60bf3d75ef465d3e404,0,115,115,67,1,twofour,,,,,,,,,,,,,,,,,,,,,,,,,,,,,,,,,,,,,,,,,,,,,,,,,,,,,,,,,,,,,,,,,,,,,,,,,,,,,,,,,,,,,,,,,,,,,,,,,,,,,,,,,,,,,,,,,,,,,,,,,,,,,,,,,,,,,,,,,,,,,,,,,,,,,,,,
,,,,,,59e5a69916ecc200016fefdb,62bbfa0f1ce067b5633dbc61,2022-06-29_02h09.12.718,Colour_Asymmetry_Pilot,2022.1.3,Win32,29.89536622,62bbe60bf3d75ef465d3e404,0,116,116,73,1,onethree,,,,,,,,,,,,,,,,,,,,,,,,,,,,,,,,,,,,,,,,,,,,,,,,,,,,,,,,,,,,,,,,,,,,,,,,,,,,,,,,,,,,,,,,,,,,,,,,,,,,,,,,,,,,,,,,,,,,,,,,,,,,,,,,,,,,,,,,,,,,,,,,,,,,,,,,
,,,,,,59e5a69916ecc200016fefdb,62bbfa0f1ce067b5633dbc61,2022-06-29_02h09.12.718,Colour_Asymmetry_Pilot,2022.1.3,Win32,29.89536622,62bbe60bf3d75ef465d3e404,0,117,117,120,1,onetwo,,,,,,,,,,,,,,,,,,,,,,,,,,,,,,,,,,,,,,,,,,,,,,,,,,,,,,,,,,,,,,,,,,,,,,,,,,,,,,,,,,,,,,,,,,,,,,,,,,,,,,,,,,,,,,,,,,,,,,,,,,,,,,,,,,,,,,,,,,,,,,,,,,,,,,,,
,,,,,,59e5a69916ecc200016fefdb,62bbfa0f1ce067b5633dbc61,2022-06-29_02h09.12.718,Colour_Asymmetry_Pilot,2022.1.3,Win32,29.89536622,62bbe60bf3d75ef465d3e404,0,118,118,14,1,fourtwo,,,,,,,,,,,,,,,,,,,,,,,,,,,,,,,,,,,,,,,,,,,,,,,,,,,,,,,,,,,,,,,,,,,,,,,,,,,,,,,,,,,,,,,,,,,,,,,,,,,,,,,,,,,,,,,,,,,,,,,,,,,,,,,,,,,,,,,,,,,,,,,,,,,,,,,,
,,,,,,59e5a69916ecc200016fefdb,62bbfa0f1ce067b5633dbc61,2022-06-29_02h09.12.718,Colour_Asymmetry_Pilot,2022.1.3,Win32,29.89536622,62bbe60bf3d75ef465d3e404,0,119,119,151,1,fourthree,,,,,,,,,,,,,,,,,,,,,,,,,,,,,,,,,,,,,,,,,,,,,,,,,,,,,,,,,,,,,,,,,,,,,,,,,,,,,,,,,,,,,,,,,,,,,,,,,,,,,,,,,,,,,,,,,,,,,,,,,,,,,,,,,,,,,,,,,,,,,,,,,,,,,,,,
,,,,,,59e5a69916ecc200016fefdb,62bbfa0f1ce067b5633dbc61,2022-06-29_02h09.12.718,Colour_Asymmetry_Pilot,2022.1.3,Win32,29.89536622,62bbe60bf3d75ef465d3e404,0,120,120,46,1,fourtwo,,,,,,,,,,,,,,,,,,,,,,,,,,,,,,,,,,,,,,,,,,,,,,,,,,,,,,,,,,,,,,,,,,,,,,,,,,,,,,,,,,,,,,,,,,,,,,,,,,,,,,,,,,,,,,,,,,,,,,,,,,,,,,,,,,,,,,,,,,,,,,,,,,,,,,,,
,,,,,,59e5a69916ecc200016fefdb,62bbfa0f1ce067b5633dbc61,2022-06-29_02h09.12.718,Colour_Asymmetry_Pilot,2022.1.3,Win32,29.89536622,62bbe60bf3d75ef465d3e404,0,121,121,145,1,onethree,,,,,,,,,,,,,,,,,,,,,,,,,,,,,,,,,,,,,,,,,,,,,,,,,,,,,,,,,,,,,,,,,,,,,,,,,,,,,,,,,,,,,,,,,,,,,,,,,,,,,,,,,,,,,,,,,,,,,,,,,,,,,,,,,,,,,,,,,,,,,,,,,,,,,,,,
,,,,,,59e5a69916ecc200016fefdb,62bbfa0f1ce067b5633dbc61,2022-06-29_02h09.12.718,Colour_Asymmetry_Pilot,2022.1.3,Win32,29.89536622,62bbe60bf3d75ef465d3e404,0,122,122,109,1,threefour,,,,,,,,,,,,,,,,,,,,,,,,,,,,,,,,,,,,,,,,,,,,,,,,,,,,,,,,,,,,,,,,,,,,,,,,,,,,,,,,,,,,,,,,,,,,,,,,,,,,,,,,,,,,,,,,,,,,,,,,,,,,,,,,,,,,,,,,,,,,,,,,,,,,,,,,
,,,,,,59e5a69916ecc200016fefdb,62bbfa0f1ce067b5633dbc61,2022-06-29_02h09.12.718,Colour_Asymmetry_Pilot,2022.1.3,Win32,29.89536622,62bbe60bf3d75ef465d3e404,0,123,123,144,1,onetwo,,,,,,,,,,,,,,,,,,,,,,,,,,,,,,,,,,,,,,,,,,,,,,,,,,,,,,,,,,,,,,,,,,,,,,,,,,,,,,,,,,,,,,,,,,,,,,,,,,,,,,,,,,,,,,,,,,,,,,,,,,,,,,,,,,,,,,,,,,,,,,,,,,,,,,,,
,,,,,,59e5a69916ecc200016fefdb,62bbfa0f1ce067b5633dbc61,2022-06-29_02h09.12.718,Colour_Asymmetry_Pilot,2022.1.3,Win32,29.89536622,62bbe60bf3d75ef465d3e404,0,124,124,39,1,fourthree,,,,,,,,,,,,,,,,,,,,,,,,,,,,,,,,,,,,,,,,,,,,,,,,,,,,,,,,,,,,,,,,,,,,,,,,,,,,,,,,,,,,,,,,,,,,,,,,,,,,,,,,,,,,,,,,,,,,,,,,,,,,,,,,,,,,,,,,,,,,,,,,,,,,,,,,
,,,,,,59e5a69916ecc200016fefdb,62bbfa0f1ce067b5633dbc61,2022-06-29_02h09.12.718,Colour_Asymmetry_Pilot,2022.1.3,Win32,29.89536622,62bbe60bf3d75ef465d3e404,0,125,125,123,1,twofour,,,,,,,,,,,,,,,,,,,,,,,,,,,,,,,,,,,,,,,,,,,,,,,,,,,,,,,,,,,,,,,,,,,,,,,,,,,,,,,,,,,,,,,,,,,,,,,,,,,,,,,,,,,,,,,,,,,,,,,,,,,,,,,,,,,,,,,,,,,,,,,,,,,,,,,,
,,,,,,59e5a69916ecc200016fefdb,62bbfa0f1ce067b5633dbc61,2022-06-29_02h09.12.718,Colour_Asymmetry_Pilot,2022.1.3,Win32,29.89536622,62bbe60bf3d75ef465d3e404,0,126,126,117,1,threefour,,,,,,,,,,,,,,,,,,,,,,,,,,,,,,,,,,,,,,,,,,,,,,,,,,,,,,,,,,,,,,,,,,,,,,,,,,,,,,,,,,,,,,,,,,,,,,,,,,,,,,,,,,,,,,,,,,,,,,,,,,,,,,,,,,,,,,,,,,,,,,,,,,,,,,,,
,,,,,,59e5a69916ecc200016fefdb,62bbfa0f1ce067b5633dbc61,2022-06-29_02h09.12.718,Colour_Asymmetry_Pilot,2022.1.3,Win32,29.89536622,62bbe60bf3d75ef465d3e404,0,127,127,16,1,onetwo,,,,,,,,,,,,,,,,,,,,,,,,,,,,,,,,,,,,,,,,,,,,,,,,,,,,,,,,,,,,,,,,,,,,,,,,,,,,,,,,,,,,,,,,,,,,,,,,,,,,,,,,,,,,,,,,,,,,,,,,,,,,,,,,,,,,,,,,,,,,,,,,,,,,,,,,
,,,,,,59e5a69916ecc200016fefdb,62bbfa0f1ce067b5633dbc61,2022-06-29_02h09.12.718,Colour_Asymmetry_Pilot,2022.1.3,Win32,29.89536622,62bbe60bf3d75ef465d3e404,0,128,128,20,1,threeone,,,,,,,,,,,,,,,,,,,,,,,,,,,,,,,,,,,,,,,,,,,,,,,,,,,,,,,,,,,,,,,,,,,,,,,,,,,,,,,,,,,,,,,,,,,,,,,,,,,,,,,,,,,,,,,,,,,,,,,,,,,,,,,,,,,,,,,,,,,,,,,,,,,,,,,,
,,,,,,59e5a69916ecc200016fefdb,62bbfa0f1ce067b5633dbc61,2022-06-29_02h09.12.718,Colour_Asymmetry_Pilot,2022.1.3,Win32,29.89536622,62bbe60bf3d75ef465d3e404,0,129,129,50,1,twoone,,,,,,,,,,,,,,,,,,,,,,,,,,,,,,,,,,,,,,,,,,,,,,,,,,,,,,,,,,,,,,,,,,,,,,,,,,,,,,,,,,,,,,,,,,,,,,,,,,,,,,,,,,,,,,,,,,,,,,,,,,,,,,,,,,,,,,,,,,,,,,,,,,,,,,,,
,,,,,,59e5a69916ecc200016fefdb,62bbfa0f1ce067b5633dbc61,2022-06-29_02h09.12.718,Colour_Asymmetry_Pilot,2022.1.3,Win32,29.89536622,62bbe60bf3d75ef465d3e404,0,130,130,59,1,twofour,,,,,,,,,,,,,,,,,,,,,,,,,,,,,,,,,,,,,,,,,,,,,,,,,,,,,,,,,,,,,,,,,,,,,,,,,,,,,,,,,,,,,,,,,,,,,,,,,,,,,,,,,,,,,,,,,,,,,,,,,,,,,,,,,,,,,,,,,,,,,,,,,,,,,,,,
,,,,,,59e5a69916ecc200016fefdb,62bbfa0f1ce067b5633dbc61,2022-06-29_02h09.12.718,Colour_Asymmetry_Pilot,2022.1.3,Win32,29.89536622,62bbe60bf3d75ef465d3e404,0,131,131,33,1,onethree,,,,,,,,,,,,,,,,,,,,,,,,,,,,,,,,,,,,,,,,,,,,,,,,,,,,,,,,,,,,,,,,,,,,,,,,,,,,,,,,,,,,,,,,,,,,,,,,,,,,,,,,,,,,,,,,,,,,,,,,,,,,,,,,,,,,,,,,,,,,,,,,,,,,,,,,
,,,,,,59e5a69916ecc200016fefdb,62bbfa0f1ce067b5633dbc61,2022-06-29_02h09.12.718,Colour_Asymmetry_Pilot,2022.1.3,Win32,29.89536622,62bbe60bf3d75ef465d3e404,0,132,132,119,1,fourthree,,,,,,,,,,,,,,,,,,,,,,,,,,,,,,,,,,,,,,,,,,,,,,,,,,,,,,,,,,,,,,,,,,,,,,,,,,,,,,,,,,,,,,,,,,,,,,,,,,,,,,,,,,,,,,,,,,,,,,,,,,,,,,,,,,,,,,,,,,,,,,,,,,,,,,,,
,,,,,,59e5a69916ecc200016fefdb,62bbfa0f1ce067b5633dbc61,2022-06-29_02h09.12.718,Colour_Asymmetry_Pilot,2022.1.3,Win32,29.89536622,62bbe60bf3d75ef465d3e404,0,133,133,35,1,twofour,,,,,,,,,,,,,,,,,,,,,,,,,,,,,,,,,,,,,,,,,,,,,,,,,,,,,,,,,,,,,,,,,,,,,,,,,,,,,,,,,,,,,,,,,,,,,,,,,,,,,,,,,,,,,,,,,,,,,,,,,,,,,,,,,,,,,,,,,,,,,,,,,,,,,,,,
,,,,,,59e5a69916ecc200016fefdb,62bbfa0f1ce067b5633dbc61,2022-06-29_02h09.12.718,Colour_Asymmetry_Pilot,2022.1.3,Win32,29.89536622,62bbe60bf3d75ef465d3e404,0,134,134,98,1,twoone,,,,,,,,,,,,,,,,,,,,,,,,,,,,,,,,,,,,,,,,,,,,,,,,,,,,,,,,,,,,,,,,,,,,,,,,,,,,,,,,,,,,,,,,,,,,,,,,,,,,,,,,,,,,,,,,,,,,,,,,,,,,,,,,,,,,,,,,,,,,,,,,,,,,,,,,
,,,,,,59e5a69916ecc200016fefdb,62bbfa0f1ce067b5633dbc61,2022-06-29_02h09.12.718,Colour_Asymmetry_Pilot,2022.1.3,Win32,29.89536622,62bbe60bf3d75ef465d3e404,0,135,135,52,1,threeone,,,,,,,,,,,,,,,,,,,,,,,,,,,,,,,,,,,,,,,,,,,,,,,,,,,,,,,,,,,,,,,,,,,,,,,,,,,,,,,,,,,,,,,,,,,,,,,,,,,,,,,,,,,,,,,,,,,,,,,,,,,,,,,,,,,,,,,,,,,,,,,,,,,,,,,,
,,,,,,59e5a69916ecc200016fefdb,62bbfa0f1ce067b5633dbc61,2022-06-29_02h09.12.718,Colour_Asymmetry_Pilot,2022.1.3,Win32,29.89536622,62bbe60bf3d75ef465d3e404,0,136,136,85,1,threefour,,,,,,,,,,,,,,,,,,,,,,,,,,,,,,,,,,,,,,,,,,,,,,,,,,,,,,,,,,,,,,,,,,,,,,,,,,,,,,,,,,,,,,,,,,,,,,,,,,,,,,,,,,,,,,,,,,,,,,,,,,,,,,,,,,,,,,,,,,,,,,,,,,,,,,,,
,,,,,,59e5a69916ecc200016fefdb,62bbfa0f1ce067b5633dbc61,2022-06-29_02h09.12.718,Colour_Asymmetry_Pilot,2022.1.3,Win32,29.89536622,62bbe60bf3d75ef465d3e404,0,137,137,101,1,threefour,,,,,,,,,,,,,,,,,,,,,,,,,,,,,,,,,,,,,,,,,,,,,,,,,,,,,,,,,,,,,,,,,,,,,,,,,,,,,,,,,,,,,,,,,,,,,,,,,,,,,,,,,,,,,,,,,,,,,,,,,,,,,,,,,,,,,,,,,,,,,,,,,,,,,,,,
,,,,,,59e5a69916ecc200016fefdb,62bbfa0f1ce067b5633dbc61,2022-06-29_02h09.12.718,Colour_Asymmetry_Pilot,2022.1.3,Win32,29.89536622,62bbe60bf3d75ef465d3e404,0,138,138,78,1,fourtwo,,,,,,,,,,,,,,,,,,,,,,,,,,,,,,,,,,,,,,,,,,,,,,,,,,,,,,,,,,,,,,,,,,,,,,,,,,,,,,,,,,,,,,,,,,,,,,,,,,,,,,,,,,,,,,,,,,,,,,,,,,,,,,,,,,,,,,,,,,,,,,,,,,,,,,,,
,,,,,,59e5a69916ecc200016fefdb,62bbfa0f1ce067b5633dbc61,2022-06-29_02h09.12.718,Colour_Asymmetry_Pilot,2022.1.3,Win32,29.89536622,62bbe60bf3d75ef465d3e404,0,139,139,160,1,onetwo,,,,,,,,,,,,,,,,,,,,,,,,,,,,,,,,,,,,,,,,,,,,,,,,,,,,,,,,,,,,,,,,,,,,,,,,,,,,,,,,,,,,,,,,,,,,,,,,,,,,,,,,,,,,,,,,,,,,,,,,,,,,,,,,,,,,,,,,,,,,,,,,,,,,,,,,
,,,,,,59e5a69916ecc200016fefdb,62bbfa0f1ce067b5633dbc61,2022-06-29_02h09.12.718,Colour_Asymmetry_Pilot,2022.1.3,Win32,29.89536622,62bbe60bf3d75ef465d3e404,0,140,140,128,1,onetwo,,,,,,,,,,,,,,,,,,,,,,,,,,,,,,,,,,,,,,,,,,,,,,,,,,,,,,,,,,,,,,,,,,,,,,,,,,,,,,,,,,,,,,,,,,,,,,,,,,,,,,,,,,,,,,,,,,,,,,,,,,,,,,,,,,,,,,,,,,,,,,,,,,,,,,,,
,,,,,,59e5a69916ecc200016fefdb,62bbfa0f1ce067b5633dbc61,2022-06-29_02h09.12.718,Colour_Asymmetry_Pilot,2022.1.3,Win32,29.89536622,62bbe60bf3d75ef465d3e404,0,141,141,90,1,twoone,,,,,,,,,,,,,,,,,,,,,,,,,,,,,,,,,,,,,,,,,,,,,,,,,,,,,,,,,,,,,,,,,,,,,,,,,,,,,,,,,,,,,,,,,,,,,,,,,,,,,,,,,,,,,,,,,,,,,,,,,,,,,,,,,,,,,,,,,,,,,,,,,,,,,,,,
,,,,,,59e5a69916ecc200016fefdb,62bbfa0f1ce067b5633dbc61,2022-06-29_02h09.12.718,Colour_Asymmetry_Pilot,2022.1.3,Win32,29.89536622,62bbe60bf3d75ef465d3e404,0,142,142,121,1,onethree,,,,,,,,,,,,,,,,,,,,,,,,,,,,,,,,,,,,,,,,,,,,,,,,,,,,,,,,,,,,,,,,,,,,,,,,,,,,,,,,,,,,,,,,,,,,,,,,,,,,,,,,,,,,,,,,,,,,,,,,,,,,,,,,,,,,,,,,,,,,,,,,,,,,,,,,
,,,,,,59e5a69916ecc200016fefdb,62bbfa0f1ce067b5633dbc61,2022-06-29_02h09.12.718,Colour_Asymmetry_Pilot,2022.1.3,Win32,29.89536622,62bbe60bf3d75ef465d3e404,0,143,143,99,1,twofour,,,,,,,,,,,,,,,,,,,,,,,,,,,,,,,,,,,,,,,,,,,,,,,,,,,,,,,,,,,,,,,,,,,,,,,,,,,,,,,,,,,,,,,,,,,,,,,,,,,,,,,,,,,,,,,,,,,,,,,,,,,,,,,,,,,,,,,,,,,,,,,,,,,,,,,,
,,,,,,59e5a69916ecc200016fefdb,62bbfa0f1ce067b5633dbc61,2022-06-29_02h09.12.718,Colour_Asymmetry_Pilot,2022.1.3,Win32,29.89536622,62bbe60bf3d75ef465d3e404,0,144,144,84,1,threeone,,,,,,,,,,,,,,,,,,,,,,,,,,,,,,,,,,,,,,,,,,,,,,,,,,,,,,,,,,,,,,,,,,,,,,,,,,,,,,,,,,,,,,,,,,,,,,,,,,,,,,,,,,,,,,,,,,,,,,,,,,,,,,,,,,,,,,,,,,,,,,,,,,,,,,,,
,,,,,,59e5a69916ecc200016fefdb,62bbfa0f1ce067b5633dbc61,2022-06-29_02h09.12.718,Colour_Asymmetry_Pilot,2022.1.3,Win32,29.89536622,62bbe60bf3d75ef465d3e404,0,145,145,74,1,twoone,,,,,,,,,,,,,,,,,,,,,,,,,,,,,,,,,,,,,,,,,,,,,,,,,,,,,,,,,,,,,,,,,,,,,,,,,,,,,,,,,,,,,,,,,,,,,,,,,,,,,,,,,,,,,,,,,,,,,,,,,,,,,,,,,,,,,,,,,,,,,,,,,,,,,,,,
,,,,,,59e5a69916ecc200016fefdb,62bbfa0f1ce067b5633dbc61,2022-06-29_02h09.12.718,Colour_Asymmetry_Pilot,2022.1.3,Win32,29.89536622,62bbe60bf3d75ef465d3e404,0,146,146,104,1,onetwo,,,,,,,,,,,,,,,,,,,,,,,,,,,,,,,,,,,,,,,,,,,,,,,,,,,,,,,,,,,,,,,,,,,,,,,,,,,,,,,,,,,,,,,,,,,,,,,,,,,,,,,,,,,,,,,,,,,,,,,,,,,,,,,,,,,,,,,,,,,,,,,,,,,,,,,,
,,,,,,59e5a69916ecc200016fefdb,62bbfa0f1ce067b5633dbc61,2022-06-29_02h09.12.718,Colour_Asymmetry_Pilot,2022.1.3,Win32,29.89536622,62bbe60bf3d75ef465d3e404,0,147,147,88,1,onetwo,,,,,,,,,,,,,,,,,,,,,,,,,,,,,,,,,,,,,,,,,,,,,,,,,,,,,,,,,,,,,,,,,,,,,,,,,,,,,,,,,,,,,,,,,,,,,,,,,,,,,,,,,,,,,,,,,,,,,,,,,,,,,,,,,,,,,,,,,,,,,,,,,,,,,,,,
,,,,,,59e5a69916ecc200016fefdb,62bbfa0f1ce067b5633dbc61,2022-06-29_02h09.12.718,Colour_Asymmetry_Pilot,2022.1.3,Win32,29.89536622,62bbe60bf3d75ef465d3e404,0,148,148,126,1,fourtwo,,,,,,,,,,,,,,,,,,,,,,,,,,,,,,,,,,,,,,,,,,,,,,,,,,,,,,,,,,,,,,,,,,,,,,,,,,,,,,,,,,,,,,,,,,,,,,,,,,,,,,,,,,,,,,,,,,,,,,,,,,,,,,,,,,,,,,,,,,,,,,,,,,,,,,,,
,,,,,,59e5a69916ecc200016fefdb,62bbfa0f1ce067b5633dbc61,2022-06-29_02h09.12.718,Colour_Asymmetry_Pilot,2022.1.3,Win32,29.89536622,62bbe60bf3d75ef465d3e404,0,149,149,22,1,fourtwo,,,,,,,,,,,,,,,,,,,,,,,,,,,,,,,,,,,,,,,,,,,,,,,,,,,,,,,,,,,,,,,,,,,,,,,,,,,,,,,,,,,,,,,,,,,,,,,,,,,,,,,,,,,,,,,,,,,,,,,,,,,,,,,,,,,,,,,,,,,,,,,,,,,,,,,,
,,,,,,59e5a69916ecc200016fefdb,62bbfa0f1ce067b5633dbc61,2022-06-29_02h09.12.718,Colour_Asymmetry_Pilot,2022.1.3,Win32,29.89536622,62bbe60bf3d75ef465d3e404,0,150,150,15,1,fourthree,,,,,,,,,,,,,,,,,,,,,,,,,,,,,,,,,,,,,,,,,,,,,,,,,,,,,,,,,,,,,,,,,,,,,,,,,,,,,,,,,,,,,,,,,,,,,,,,,,,,,,,,,,,,,,,,,,,,,,,,,,,,,,,,,,,,,,,,,,,,,,,,,,,,,,,,
,,,,,,59e5a69916ecc200016fefdb,62bbfa0f1ce067b5633dbc61,2022-06-29_02h09.12.718,Colour_Asymmetry_Pilot,2022.1.3,Win32,29.89536622,62bbe60bf3d75ef465d3e404,0,151,151,72,1,onetwo,,,,,,,,,,,,,,,,,,,,,,,,,,,,,,,,,,,,,,,,,,,,,,,,,,,,,,,,,,,,,,,,,,,,,,,,,,,,,,,,,,,,,,,,,,,,,,,,,,,,,,,,,,,,,,,,,,,,,,,,,,,,,,,,,,,,,,,,,,,,,,,,,,,,,,,,
,,,,,,59e5a69916ecc200016fefdb,62bbfa0f1ce067b5633dbc61,2022-06-29_02h09.12.718,Colour_Asymmetry_Pilot,2022.1.3,Win32,29.89536622,62bbe60bf3d75ef465d3e404,0,152,152,124,1,threeone,,,,,,,,,,,,,,,,,,,,,,,,,,,,,,,,,,,,,,,,,,,,,,,,,,,,,,,,,,,,,,,,,,,,,,,,,,,,,,,,,,,,,,,,,,,,,,,,,,,,,,,,,,,,,,,,,,,,,,,,,,,,,,,,,,,,,,,,,,,,,,,,,,,,,,,,
,,,,,,59e5a69916ecc200016fefdb,62bbfa0f1ce067b5633dbc61,2022-06-29_02h09.12.718,Colour_Asymmetry_Pilot,2022.1.3,Win32,29.89536622,62bbe60bf3d75ef465d3e404,0,153,153,158,1,fourtwo,,,,,,,,,,,,,,,,,,,,,,,,,,,,,,,,,,,,,,,,,,,,,,,,,,,,,,,,,,,,,,,,,,,,,,,,,,,,,,,,,,,,,,,,,,,,,,,,,,,,,,,,,,,,,,,,,,,,,,,,,,,,,,,,,,,,,,,,,,,,,,,,,,,,,,,,
,,,,,,59e5a69916ecc200016fefdb,62bbfa0f1ce067b5633dbc61,2022-06-29_02h09.12.718,Colour_Asymmetry_Pilot,2022.1.3,Win32,29.89536622,62bbe60bf3d75ef465d3e404,0,154,154,152,1,onetwo,,,,,,,,,,,,,,,,,,,,,,,,,,,,,,,,,,,,,,,,,,,,,,,,,,,,,,,,,,,,,,,,,,,,,,,,,,,,,,,,,,,,,,,,,,,,,,,,,,,,,,,,,,,,,,,,,,,,,,,,,,,,,,,,,,,,,,,,,,,,,,,,,,,,,,,,
,,,,,,59e5a69916ecc200016fefdb,62bbfa0f1ce067b5633dbc61,2022-06-29_02h09.12.718,Colour_Asymmetry_Pilot,2022.1.3,Win32,29.89536622,62bbe60bf3d75ef465d3e404,0,155,155,8,1,onetwo,,,,,,,,,,,,,,,,,,,,,,,,,,,,,,,,,,,,,,,,,,,,,,,,,,,,,,,,,,,,,,,,,,,,,,,,,,,,,,,,,,,,,,,,,,,,,,,,,,,,,,,,,,,,,,,,,,,,,,,,,,,,,,,,,,,,,,,,,,,,,,,,,,,,,,,,
,,,,,,59e5a69916ecc200016fefdb,62bbfa0f1ce067b5633dbc61,2022-06-29_02h09.12.718,Colour_Asymmetry_Pilot,2022.1.3,Win32,29.89536622,62bbe60bf3d75ef465d3e404,0,156,156,130,1,twoone,,,,,,,,,,,,,,,,,,,,,,,,,,,,,,,,,,,,,,,,,,,,,,,,,,,,,,,,,,,,,,,,,,,,,,,,,,,,,,,,,,,,,,,,,,,,,,,,,,,,,,,,,,,,,,,,,,,,,,,,,,,,,,,,,,,,,,,,,,,,,,,,,,,,,,,,
,,,,,,59e5a69916ecc200016fefdb,62bbfa0f1ce067b5633dbc61,2022-06-29_02h09.12.718,Colour_Asymmetry_Pilot,2022.1.3,Win32,29.89536622,62bbe60bf3d75ef465d3e404,0,157,157,91,1,twofour,,,,,,,,,,,,,,,,,,,,,,,,,,,,,,,,,,,,,,,,,,,,,,,,,,,,,,,,,,,,,,,,,,,,,,,,,,,,,,,,,,,,,,,,,,,,,,,,,,,,,,,,,,,,,,,,,,,,,,,,,,,,,,,,,,,,,,,,,,,,,,,,,,,,,,,,
,,,,,,59e5a69916ecc200016fefdb,62bbfa0f1ce067b5633dbc61,2022-06-29_02h09.12.718,Colour_Asymmetry_Pilot,2022.1.3,Win32,29.89536622,62bbe60bf3d75ef465d3e404,0,158,158,97,1,onethree,,,,,,,,,,,,,,,,,,,,,,,,,,,,,,,,,,,,,,,,,,,,,,,,,,,,,,,,,,,,,,,,,,,,,,,,,,,,,,,,,,,,,,,,,,,,,,,,,,,,,,,,,,,,,,,,,,,,,,,,,,,,,,,,,,,,,,,,,,,,,,,,,,,,,,,,
,,,,,,59e5a69916ecc200016fefdb,62bbfa0f1ce067b5633dbc61,2022-06-29_02h09.12.718,Colour_Asymmetry_Pilot,2022.1.3,Win32,29.89536622,62bbe60bf3d75ef465d3e404,0,159,159,3,1,twofour,,,,,,,,,,,,,,,,,,,,,,,,,,,,,,,,,,,,,,,,,,,,,,,,,,,,,,,,,,,,,,,,,,,,,,,,,,,,,,,,,,,,,,,,,,,,,,,,,,,,,,,,,,,,,,,,,,,,,,,,,,,,,,,,,,,,,,,,,,,,,,,,,,,,,,,,
,,,,,,59e5a69916ecc200016fefdb,62bbfa0f1ce067b5633dbc61,2022-06-29_02h09.12.718,Colour_Asymmetry_Pilot,2022.1.3,Win32,29.89536622,62bbe60bf3d75ef465d3e404,0,160,160,42,1,twoone,,,,,,,,,,,,,,,,,,,,,,,,,,,,,,,,,,,,,,,,,,,,,,,,,,,,,,,,,,,,,,,,,,,,,,,,,,,,,,,,,,,,,,,,,,,,,,,,,,,,,,,,,,,,,,,,,,,,,,,,,,,,,,,,,,,,,,,,,,,,,,,,,,,,,,,,
,,,,,,59e5a69916ecc200016fefdb,62bbfa0f1ce067b5633dbc61,2022-06-29_02h09.12.718,Colour_Asymmetry_Pilot,2022.1.3,Win32,29.89536622,62bbe60bf3d75ef465d3e404,0,161,161,63,1,fourthree,,,,,,,,,,,,,,,,,,,,,,,,,,,,,,,,,,,,,,,,,,,,,,,,,,,,,,,,,,,,,,,,,,,,,,,,,,,,,,,,,,,,,,,,,,,,,,,,,,,,,,,,,,,,,,,,,,,,,,,,,,,,,,,,,,,,,,,,,,,,,,,,,,,,,,,,
,,,,,,59e5a69916ecc200016fefdb,62bbfa0f1ce067b5633dbc61,2022-06-29_02h09.12.718,Colour_Asymmetry_Pilot,2022.1.3,Win32,29.89536622,62bbe60bf3d75ef465d3e404,,,,,,,space,11.532,space,465.244,space,150.3317,space,12.031,space,16.0178,space,21.3634,"[-0.10599999999999998,-0.15300000000000002,0.15280000000000005]",fourthree,"[0.4196,0.4665999999999999,0.3568]",-4,12.1474,-30,97,1,0,0,response7disk_5,0,0,1,0,0,rectangle_8,0,0,1,0,0,2,0,0,1,0,0,0,0,0,0,1,,,,,,,,,,,,,,,,,,,,,,,,,,,,,,,,,,,,,,,,,,,,,,,,,,,,,,,,,,,,,,,,,,,,,,,,,,,,,,,,,,,,,,,,,,,,,,,,,,,,,,,,,,,
,,,,,,59e5a69916ecc200016fefdb,62bbfa0f1ce067b5633dbc61,2022-06-29_02h09.12.718,Colour_Asymmetry_Pilot,2022.1.3,Win32,29.89536622,62bbe60bf3d75ef465d3e404,,,,,,,,,,,,,,,,,,,"[0.5449999999999999,-0.31000000000000005,-0.0354000000000001]",threefour,"[-0.07459999999999989,0.12139999999999995,-0.9922]",-4,3.7144,-29,64,1,0,0,response7disk_5,-6,-4,1,0,0,rectangle_8,77,-42,1,0,0,2,19,-1,1,0,0,1,0,1,0,1,response3disk_7,5,rectangle_4,,,,,,,,,,,,,,,,,,,,,,,,,,,,,,,,,,,,,,,,,,,,,,,,,,,,,,,,,,,,,,,,,,,,,,,,,,,,,,,,,,,,,,,,,,,,,,,,,,,,,,,,
,,,,,,59e5a69916ecc200016fefdb,62bbfa0f1ce067b5633dbc61,2022-06-29_02h09.12.718,Colour_Asymmetry_Pilot,2022.1.3,Win32,29.89536622,62bbe60bf3d75ef465d3e404,,,,,,,,,,,,,,,,,,,"[0.9213999999999998,0.6391999999999998,-0.9922]",onetwo,"[-0.9138,-0.5296000000000001,-0.5529999999999999]",-4,2.789,-27,74,1,0,0,response7disk_5,4,3,1,0,0,rectangle_8,87,-46,1,0,0,2,22,-4,1,0,0,2,0,2,0,1,response3disk_7,5,rectangle_4,,,,,,,,,,,,,,,,,,,,,,,,,,,,,,,,,,,,,,,,,,,,,,,,,,,,,,,,,,,,,,,,,,,,,,,,,,,,,,,,,,,,,,,,,,,,,,,,,,,,,,,,
,,,,,,59e5a69916ecc200016fefdb,62bbfa0f1ce067b5633dbc61,2022-06-29_02h09.12.718,Colour_Asymmetry_Pilot,2022.1.3,Win32,29.89536622,62bbe60bf3d75ef465d3e404,,,,,,,,,,,,,,,,,,,"[0.05879999999999996,0.2784,0.5841999999999998]",onethree,"[0.7018,0.7802,-0.16079999999999994]",-4,2.2257,-25,62,1,0,0,response7disk_5,10,-6,1,0,0,rectangle_8,10,-6,1,0,0,2,10,-6,1,0,0,3,0,3,0,1,,,,,,,,,,,,,,,,,,,,,,,,,,,,,,,,,,,,,,,,,,,,,,,,,,,,,,,,,,,,,,,,,,,,,,,,,,,,,,,,,,,,,,,,,,,,,,,,,,,,,,,,,,,
,,,,,,59e5a69916ecc200016fefdb,62bbfa0f1ce067b5633dbc61,2022-06-29_02h09.12.718,Colour_Asymmetry_Pilot,2022.1.3,Win32,29.89536622,62bbe60bf3d75ef465d3e404,,,,,,,,,,,,,,,,,,,"[-0.20799999999999996,-0.655,-0.01980000000000004]",fourthree,"[0.3568,-0.20799999999999996,-0.9844]",-4,1.7211,-30,67,1,0,0,response7disk_5,-1,-2,1,0,0,rectangle_8,-1,-2,1,0,0,2,-1,-2,1,0,0,4,0,4,0,1,,,,,,,,,,,,,,,,,,,,,,,,,,,,,,,,,,,,,,,,,,,,,,,,,,,,,,,,,,,,,,,,,,,,,,,,,,,,,,,,,,,,,,,,,,,,,,,,,,,,,,,,,,,
,,,,,,59e5a69916ecc200016fefdb,62bbfa0f1ce067b5633dbc61,2022-06-29_02h09.12.718,Colour_Asymmetry_Pilot,2022.1.3,Win32,29.89536622,62bbe60bf3d75ef465d3e404,,,,,,,,,,,,,,,,,,,"[0.09799999999999986,-0.24719999999999998,0.15280000000000005]",threeone,"[0.8115999999999999,-0.0040000000000000036,-0.09819999999999995]",-3,2.6239,-74,28,1,0,0,response7disk_5,-2,-3,1,0,0,rectangle_8,-2,-3,1,0,0,2,-2,-3,1,0,0,5,0,5,0,1,,,,,,,,,,,,,,,,,,,,,,,,,,,,,,,,,,,,,,,,,,,,,,,,,,,,,,,,,,,,,,,,,,,,,,,,,,,,,,,,,,,,,,,,,,,,,,,,,,,,,,,,,,,
,,,,,,59e5a69916ecc200016fefdb,62bbfa0f1ce067b5633dbc61,2022-06-29_02h09.12.718,Colour_Asymmetry_Pilot,2022.1.3,Win32,29.89536622,62bbe60bf3d75ef465d3e404,,,,,,,,,,,,,,,,,,,"[0.8115999999999999,-0.0040000000000000036,-0.09819999999999995]",onethree,"[-0.24719999999999998,0.5213999999999999,-0.12959999999999994]",-2,3.3874,-72,-52,1,0,0,response5disk_5,-1,-6,1,0,0,rectangle_8,-1,-6,1,0,0,2,-1,-6,1,0,0,6,0,6,0,1,,,,,,,,,,,,,,,,,,,,,,,,,,,,,,,,,,,,,,,,,,,,,,,,,,,,,,,,,,,,,,,,,,,,,,,,,,,,,,,,,,,,,,,,,,,,,,,,,,,,,,,,,,,
,,,,,,59e5a69916ecc200016fefdb,62bbfa0f1ce067b5633dbc61,2022-06-29_02h09.12.718,Colour_Asymmetry_Pilot,2022.1.3,Win32,29.89536622,62bbe60bf3d75ef465d3e404,,,,,,,,,,,,,,,,,,,,threeone,,-2,2.2826,,,,,,,,,,,,,,,,,,,,,,,,,,,,,,,,space,20.8691,"[-0.07459999999999989,0.12139999999999995,-0.9922]","[-0.26280000000000003,-0.2158,-0.3256]",-62,-44.5,1,0,0,response5disk,7,-4.5,1,0,0,rectangle,7,-4.5,1,0,0,,2,0.003,0,7,-4.5,1,0,0,0,0,0,61,1,61,first,,,,,,,,,,,,,,,,,,,,,,,,,,,,,,,,,,,,,,,,,,,,,,,,,,,,,,,,,,,,,,,,,,,
,,,,,,59e5a69916ecc200016fefdb,62bbfa0f1ce067b5633dbc61,2022-06-29_02h09.12.718,Colour_Asymmetry_Pilot,2022.1.3,Win32,29.89536622,62bbe60bf3d75ef465d3e404,,,,,,,,,,,,,,,,,,,,twofour,,-1,2.4586,,,,,,,,,,,,,,,,,,,,,,,,,,,,,,,,,,"[0.3802000000000001,0.19199999999999995,-0.6394]","[-0.8982,-0.37259999999999993,0.2784]",-44,-68.5,1,0,0,response5disk,3,0.5,1,0,0,rectangle,3,0.5,1,0,0,,1,0.0009,0,3,0.5,1,0,0,0,1,1,130,1,49,second,,,,,,,,,,,,,,,,,,,,,,,,,,,,,,,,,,,,,,,,,,,,,,,,,,,,,,,,,,,,,,,,,,,
,,,,,,59e5a69916ecc200016fefdb,62bbfa0f1ce067b5633dbc61,2022-06-29_02h09.12.718,Colour_Asymmetry_Pilot,2022.1.3,Win32,29.89536622,62bbe60bf3d75ef465d3e404,,,,,,,,,,,,,,,,,,,,fourtwo,,-4,1.0053,,,,,,,,,,,,,,,,,,,,,,,,,,,,,,,,,,"[-0.9844,-0.9688,-0.9922]","[0.7018,0.7176,0.6155999999999999]",-42,66.5,1,0,0,response7disk,-1,-5.5,1,0,0,rectangle,-1,-5.5,1,0,0,,1,0.0003,0,-1,-5.5,1,0,0,0,2,2,22,1,22,first,,,,,,,,,,,,,,,,,,,,,,,,,,,,,,,,,,,,,,,,,,,,,,,,,,,,,,,,,,,,,,,,,,,
,,,,,,59e5a69916ecc200016fefdb,62bbfa0f1ce067b5633dbc61,2022-06-29_02h09.12.718,Colour_Asymmetry_Pilot,2022.1.3,Win32,29.89536622,62bbe60bf3d75ef465d3e404,,,,,,,,,,,,,,,,,,,,onethree,,-4,1.2168,,,,,,,,,,,,,,,,,,,,,,,,,,,,,,,,,,"[0.34099999999999997,0.5841999999999998,-0.9844]","[-0.6706000000000001,-0.6157999999999999,-0.6786]",-21,68.5,1,0,0,response7disk,4,-7.5,1,0,0,rectangle,4,-7.5,1,0,0,,1,0.0002,0,4,-7.5,1,0,0,0,3,3,153,1,72,second,,,,,,,,,,,,,,,,,,,,,,,,,,,,,,,,,,,,,,,,,,,,,,,,,,,,,,,,,,,,,,,,,,,
,,,,,,59e5a69916ecc200016fefdb,62bbfa0f1ce067b5633dbc61,2022-06-29_02h09.12.718,Colour_Asymmetry_Pilot,2022.1.3,Win32,29.89536622,62bbe60bf3d75ef465d3e404,,,,,,,,,,,,,,,,,,,,twofour,,-2,1.1106,,,,,,,,,,,,,,,,,,,,,,,,,,,,,,,,,,"[0.37240000000000006,-0.050999999999999934,-0.5216]","[-0.9766,-0.34920000000000007,0.2156]",-84,-23.5,1,0,0,response5disk,-6,-7.5,1,0,0,rectangle,-6,-7.5,1,0,0,,1,0.0002,0,-6,-7.5,1,0,0,0,4,4,80,1,80,first,,,,,,,,,,,,,,,,,,,,,,,,,,,,,,,,,,,,,,,,,,,,,,,,,,,,,,,,,,,,,,,,,,,
,,,,,,59e5a69916ecc200016fefdb,62bbfa0f1ce067b5633dbc61,2022-06-29_02h09.12.718,Colour_Asymmetry_Pilot,2022.1.3,Win32,29.89536622,62bbe60bf3d75ef465d3e404,,,,,,,,,,,,,,,,,,,,threeone,,1,3.3784,,,,,,,,,,,,,,,,,,,,,,,,,,,,,,,,,,"[-0.26280000000000003,-0.2158,-0.3256]","[-0.48240000000000005,0.3175999999999999,0.2156]",38,-81.5,1,0,0,response3disk,12,0.5,1,0,0,rectangle,12,0.5,1,0,0,,3,0.0008,0,12,0.5,1,0,0,0,5,5,144,1,63,second,,,,,,,,,,,,,,,,,,,,,,,,,,,,,,,,,,,,,,,,,,,,,,,,,,,,,,,,,,,,,,,,,,,
,,,,,,59e5a69916ecc200016fefdb,62bbfa0f1ce067b5633dbc61,2022-06-29_02h09.12.718,Colour_Asymmetry_Pilot,2022.1.3,Win32,29.89536622,62bbe60bf3d75ef465d3e404,,,,,,,,,,,,,,,,,,,,onethree,,-3,1.0702,,,,,,,,,,,,,,,,,,,,,,,,,,,,,,,,,,"[0.5528,0.7409999999999999,-0.71]","[-0.26280000000000003,-0.4746,-0.2158]",-58,33.5,1,0,0,response7disk,-12,-1.5,1,0,0,rectangle,-12,-1.5,1,0,0,,2,0.0014,0,-12,-1.5,1,0,0,0,6,6,151,1,70,second,,,,,,,,,,,,,,,,,,,,,,,,,,,,,,,,,,,,,,,,,,,,,,,,,,,,,,,,,,,,,,,,,,,
,,,,,,59e5a69916ecc200016fefdb,62bbfa0f1ce067b5633dbc61,2022-06-29_02h09.12.718,Colour_Asymmetry_Pilot,2022.1.3,Win32,29.89536622,62bbe60bf3d75ef465d3e404,,,,,,,,,,,,,,,,,,,,onethree,,-2,1.9141,,,,,,,,,,,,,,,,,,,,,,,,,,,,,,,,,,"[-0.4746,-0.0354000000000001,0.5449999999999999]","[-0.9844,-0.9688,-0.9922]",-75,-58.5,1,0,0,response5disk,-3,-1.5,1,0,0,rectangle,-3,-1.5,1,0,0,,3,0.0015,0,-3,-1.5,1,0,0,0,7,7,17,1,17,first,,,,,,,,,,,,,,,,,,,,,,,,,,,,,,,,,,,,,,,,,,,,,,,,,,,,,,,,,,,,,,,,,,,
,,,,,,59e5a69916ecc200016fefdb,62bbfa0f1ce067b5633dbc61,2022-06-29_02h09.12.718,Colour_Asymmetry_Pilot,2022.1.3,Win32,29.89536622,62bbe60bf3d75ef465d3e404,,,,,,,,,,,,,,,,,,,,threeone,,-3,3.6911,,,,,,,,,,,,,,,,,,,,,,,,,,,,,,,,,,"[0.9213999999999998,0.6391999999999998,-0.9922]","[-0.26280000000000003,-0.2158,-0.3256]",-57,27.5,1,0,0,response7disk,2,-1.5,1,0,0,rectangle,2,-1.5,1,0,0,,2,0.0009,0,2,-1.5,1,0,0,0,8,8,122,1,41,second,,,,,,,,,,,,,,,,,,,,,,,,,,,,,,,,,,,,,,,,,,,,,,,,,,,,,,,,,,,,,,,,,,,
,,,,,,59e5a69916ecc200016fefdb,62bbfa0f1ce067b5633dbc61,2022-06-29_02h09.12.718,Colour_Asymmetry_Pilot,2022.1.3,Win32,29.89536622,62bbe60bf3d75ef465d3e404,,,,,,,,,,,,,,,,,,,,threeone,,-4,2.6971,,,,,,,,,,,,,,,,,,,,,,,,,,,,,,,,,,"[0.04299999999999993,0.16060000000000008,-0.6628000000000001]","[-0.5922000000000001,-0.7492000000000001,-0.5296000000000001]",-36,57.5,1,0,0,response7disk,2,-2.5,1,0,0,rectangle,2,-2.5,1,0,0,,2,0.0004,0,2,-2.5,1,0,0,0,9,9,62,1,62,first,,,,,,,,,,,,,,,,,,,,,,,,,,,,,,,,,,,,,,,,,,,,,,,,,,,,,,,,,,,,,,,,,,,
,,,,,,59e5a69916ecc200016fefdb,62bbfa0f1ce067b5633dbc61,2022-06-29_02h09.12.718,Colour_Asymmetry_Pilot,2022.1.3,Win32,29.89536622,62bbe60bf3d75ef465d3e404,,,,,,,,,,,,,,,,,,,,threeone,,-3,1.5293,,,,,,,,,,,,,,,,,,,,,,,,,,,,,,,,,,"[-0.4746,-0.0354000000000001,0.5449999999999999]","[-0.34920000000000007,-0.702,-0.5216]",-71,31.5,1,0,0,response7disk,11,-8.5,1,0,0,rectangle,11,-8.5,1,0,0,,2,0.0003,0,11,-8.5,1,0,0,0,10,10,82,1,1,second,,,,,,,,,,,,,,,,,,,,,,,,,,,,,,,,,,,,,,,,,,,,,,,,,,,,,,,,,,,,,,,,,,,
,,,,,,59e5a69916ecc200016fefdb,62bbfa0f1ce067b5633dbc61,2022-06-29_02h09.12.718,Colour_Asymmetry_Pilot,2022.1.3,Win32,29.89536622,62bbe60bf3d75ef465d3e404,,,,,,,,,,,,,,,,,,,,onethree,,2,0.9907,,,,,,,,,,,,,,,,,,,,,,,,,,,,,,,,,,"[-0.17659999999999998,-0.2864,-0.8354]","[0.2784,-0.31000000000000005,-0.5452]",77,-53.5,1,0,0,response3disk,10,-3.5,1,0,0,rectangle,10,-3.5,1,0,0,,1,0.001,0,10,-3.5,1,0,0,0,11,11,51,1,51,first,,,,,,,,,,,,,,,,,,,,,,,,,,,,,,,,,,,,,,,,,,,,,,,,,,,,,,,,,,,,,,,,,,,
,,,,,,59e5a69916ecc200016fefdb,62bbfa0f1ce067b5633dbc61,2022-06-29_02h09.12.718,Colour_Asymmetry_Pilot,2022.1.3,Win32,29.89536622,62bbe60bf3d75ef465d3e404,,,,,,,,,,,,,,,,,,,,fourthree,,1,1.2484,,,,,,,,,,,,,,,,,,,,,,,,,,,,,,,,,,"[0.9686000000000001,0.3802000000000001,0.19999999999999996]","[0.9763999999999999,0.30979999999999985,-0.6786]",26,-62.5,1,0,0,response3disk,-2,-0.5,1,0,0,rectangle,-2,-0.5,1,0,0,,1,0.0002,0,-2,-0.5,1,0,0,0,12,12,33,1,33,first,,,,,,,,,,,,,,,,,,,,,,,,,,,,,,,,,,,,,,,,,,,,,,,,,,,,,,,,,,,,,,,,,,,
,,,,,,59e5a69916ecc200016fefdb,62bbfa0f1ce067b5633dbc61,2022-06-29_02h09.12.718,Colour_Asymmetry_Pilot,2022.1.3,Win32,29.89536622,62bbe60bf3d75ef465d3e404,,,,,,,,,,,,,,,,,,,,onethree,,1,0.86,,,,,,,,,,,,,,,,,,,,,,,,,,,,,,,,,,"[0.9372,0.9450000000000001,0.8980000000000001]","[-0.17659999999999998,0.3253999999999999,0.19999999999999996]",40,-66.5,1,0,0,response3disk,9,-1.5,1,0,0,rectangle,9,-1.5,1,0,0,,2,0.0009,0,9,-1.5,1,0,0,0,13,13,108,1,27,second,,,,,,,,,,,,,,,,,,,,,,,,,,,,,,,,,,,,,,,,,,,,,,,,,,,,,,,,,,,,,,,,,,,
,,,,,,59e5a69916ecc200016fefdb,62bbfa0f1ce067b5633dbc61,2022-06-29_02h09.12.718,Colour_Asymmetry_Pilot,2022.1.3,Win32,29.89536622,62bbe60bf3d75ef465d3e404,,,,,,,,,,,,,,,,,,,,threefour,,1,1.2438,,,,,,,,,,,,,,,,,,,,,,,,,,,,,,,,,,"[-0.4668,-0.8746,-0.2942]","[0.23120000000000007,-0.7726,-0.34120000000000006]",45,-63.5,1,0,0,response3disk,15,-8.5,1,0,0,rectangle,15,-8.5,1,0,0,,2,0.0002,0,15,-8.5,1,0,0,0,14,14,95,1,14,second,,,,,,,,,,,,,,,,,,,,,,,,,,,,,,,,,,,,,,,,,,,,,,,,,,,,,,,,,,,,,,,,,,,
,,,,,,59e5a69916ecc200016fefdb,62bbfa0f1ce067b5633dbc61,2022-06-29_02h09.12.718,Colour_Asymmetry_Pilot,2022.1.3,Win32,29.89536622,62bbe60bf3d75ef465d3e404,,,,,,,,,,,,,,,,,,,,onethree,,-1,1.8075,,,,,,,,,,,,,,,,,,,,,,,,,,,,,,,,,,"[-0.2942,-0.24719999999999998,-0.357]","[-0.4982,-0.2942,-0.0354000000000001]",-24,-75.5,1,0,0,response5disk,-9,-6.5,1,0,0,rectangle,-9,-6.5,1,0,0,,1,0.0008,0,-9,-6.5,1,0,0,0,15,15,124,1,43,second,,,,,,,,,,,,,,,,,,,,,,,,,,,,,,,,,,,,,,,,,,,,,,,,,,,,,,,,,,,,,,,,,,,
,,,,,,59e5a69916ecc200016fefdb,62bbfa0f1ce067b5633dbc61,2022-06-29_02h09.12.718,Colour_Asymmetry_Pilot,2022.1.3,Win32,29.89536622,62bbe60bf3d75ef465d3e404,,,,,,,,,,,,,,,,,,,,twofour,,1,0.756,,,,,,,,,,,,,,,,,,,,,,,,,,,,,,,,,,"[-0.7412000000000001,-0.08239999999999992,-0.6864]","[-0.9296,-0.12959999999999994,-0.043199999999999905]",24,-61.5,1,0,0,response3disk,1,-2.5,1,0,0,rectangle,1,-2.5,1,0,0,,2,0.001,0,1,-2.5,1,0,0,0,16,16,158,1,77,second,,,,,,,,,,,,,,,,,,,,,,,,,,,,,,,,,,,,,,,,,,,,,,,,,,,,,,,,,,,,,,,,,,,
,,,,,,59e5a69916ecc200016fefdb,62bbfa0f1ce067b5633dbc61,2022-06-29_02h09.12.718,Colour_Asymmetry_Pilot,2022.1.3,Win32,29.89536622,62bbe60bf3d75ef465d3e404,,,,,,,,,,,,,,,,,,,,threefour,,-1,1.7799,,,,,,,,,,,,,,,,,,,,,,,,,,,,,,,,,,"[-0.7412000000000001,-0.08239999999999992,-0.6864]","[-0.06680000000000008,-0.45100000000000007,-0.906]",-25,-60.5,1,0,0,response5disk,8,-3.5,1,0,0,rectangle,8,-3.5,1,0,0,,1,0.0008,0,8,-3.5,1,0,0,0,17,17,111,1,30,second,,,,,,,,,,,,,,,,,,,,,,,,,,,,,,,,,,,,,,,,,,,,,,,,,,,,,,,,,,,,,,,,,,,
,,,,,,59e5a69916ecc200016fefdb,62bbfa0f1ce067b5633dbc61,2022-06-29_02h09.12.718,Colour_Asymmetry_Pilot,2022.1.3,Win32,29.89536622,62bbe60bf3d75ef465d3e404,,,,,,,,,,,,,,,,,,,,onethree,,1,0.7286,,,,,,,,,,,,,,,,,,,,,,,,,,,,,,,,,,"[-0.8198,-0.5138,-0.7492000000000001]","[0.12939999999999996,-0.2864,0.3253999999999999]",20,-60.5,1,0,0,response3disk,9,-9.5,1,0,0,rectangle,9,-9.5,1,0,0,,1,0.0003,0,9,-9.5,1,0,0,0,18,18,8,1,8,first,,,,,,,,,,,,,,,,,,,,,,,,,,,,,,,,,,,,,,,,,,,,,,,,,,,,,,,,,,,,,,,,,,,
,,,,,,59e5a69916ecc200016fefdb,62bbfa0f1ce067b5633dbc61,2022-06-29_02h09.12.718,Colour_Asymmetry_Pilot,2022.1.3,Win32,29.89536622,62bbe60bf3d75ef465d3e404,,,,,,,,,,,,,,,,,,,,onethree,,-1,1.8455,,,,,,,,,,,,,,,,,,,,,,,,,,,,,,,,,,"[-0.2942,-0.7648,-0.7492000000000001]","[-0.09019999999999995,0.44300000000000006,0.5371999999999999]",-32,-65.5,1,0,0,response5disk,19,-5.5,1,0,0,rectangle,19,-5.5,1,0,0,,3,0.0009,0,19,-5.5,1,0,0,0,19,19,133,1,52,second,,,,,,,,,,,,,,,,,,,,,,,,,,,,,,,,,,,,,,,,,,,,,,,,,,,,,,,,,,,,,,,,,,,
