trials.thisRepN,trials.thisTrialN,trials.thisN,trials.thisIndex,trials.ran,Colourcodes,participant,session,date,expName,psychopyVersion,OS,frameRate,study_id,trials_4.thisRepN,trials_4.thisTrialN,trials_4.thisN,trials_4.thisIndex,trials_4.ran,StimulusPos,key_resp.keys,key_resp.rt,key_resp_2.keys,key_resp_2.rt,key_resp_15.keys,key_resp_15.rt,key_resp_17.keys,key_resp_17.rt,key_resp_9.keys,key_resp_9.rt,key_resp_10.keys,key_resp_10.rt,Circle1_col,Ecc,Circle2_col,similarity,response_time,mouse_5.x,mouse_5.y,mouse_5.leftButton,mouse_5.midButton,mouse_5.rightButton,mouse_5.clicked_name,mouse_10.x,mouse_10.y,mouse_10.leftButton,mouse_10.midButton,mouse_10.rightButton,mouse_10.clicked_name,mouse_7.x,mouse_7.y,mouse_7.leftButton,mouse_7.midButton,mouse_7.rightButton,mouse_7.clicked_name,catchprac,catchnumberprac,mouse_6.x,mouse_6.y,mouse_6.leftButton,mouse_6.midButton,mouse_6.rightButton,mouse_6.clicked_name,duringprac.thisRepN,duringprac.thisTrialN,duringprac.thisN,duringprac.thisIndex,duringprac.ran,key_resp_22.keys,key_resp_22.rt,Circle1_colour,Circle2_colour,mouse.x,mouse.y,mouse.leftButton,mouse.midButton,mouse.rightButton,mouse.clicked_name,mouse_2.x,mouse_2.y,mouse_2.leftButton,mouse_2.midButton,mouse_2.rightButton,mouse_2.clicked_name,mouse_3.x,mouse_3.y,mouse_3.leftButton,mouse_3.midButton,mouse_3.rightButton,catchresponse,catchnumber,response_time_catch,Catch,mouse_11.x,mouse_11.y,mouse_11.leftButton,mouse_11.midButton,mouse_11.rightButton,trials_2.thisRepN,trials_2.thisTrialN,trials_2.thisN,trials_2.thisIndex,trials_2.ran,Colourpair,Temporder,mouse_3.clicked_name,mouse_11.clicked_name,trials_3.thisRepN,trials_3.thisTrialN,trials_3.thisN,trials_3.thisIndex,trials_3.ran,key_resp_instr_Ishi.keys,key_resp_instr_Ishi.rt,Ishi_trial_keyresp.keys,Ishi_trial_keyresp.rt,Ishi_textbox.text,Ishi_loop.thisRepN,Ishi_loop.thisTrialN,Ishi_loop.thisN,Ishi_loop.thisIndex,Ishi_loop.ran,imageaddress,textbox.text,mouse_4.x,mouse_4.y,mouse_4.leftButton,mouse_4.midButton,mouse_4.rightButton,mouse_4.clicked_name,textbox_2.text,mouse_8.x,mouse_8.y,mouse_8.leftButton,mouse_8.midButton,mouse_8.rightButton,mouse_8.clicked_name,textbox_3.text,mouse_9.x,mouse_9.y,mouse_9.leftButton,mouse_9.midButton,mouse_9.rightButton,mouse_9.clicked_name,textbox_4.text,mouse_12.x,mouse_12.y,mouse_12.leftButton,mouse_12.midButton,mouse_12.rightButton,mouse_12.clicked_name,textbox_5.text,mouse_13.x,mouse_13.y,mouse_13.leftButton,mouse_13.midButton,mouse_13.rightButton,mouse_13.clicked_name,textbox_6.text,mouse_14.x,mouse_14.y,mouse_14.leftButton,mouse_14.midButton,mouse_14.rightButton,mouse_14.clicked_name,textbox_7.text,mouse_15.x,mouse_15.y,mouse_15.leftButton,mouse_15.midButton,mouse_15.rightButton,mouse_15.clicked_name
0,0,0,18,1,,5f857edcc4d42502bec40821,62bbf9d772d3464813959fd7,2022-06-29_10h07.24.761,Colour_Asymmetry_Pilot,2022.1.3,Win32,20.00080003,62bbe60bf3d75ef465d3e404,,,,,,,,,,,,,,,,,,,,,,,,,,,,,,,,,,,,,,,,,,,,,,,,,,,,,,,,,,,,,,,,,,,,,,,,,,,,,,,,,,,,,,,,,,,,,,,,,,,,,,,,,,,,,,,,,,,,,,,,,,,,,,,,,,,,,,,,,,,,,,,,,,,,,,,,,,,,,,
0,1,1,32,1,,5f857edcc4d42502bec40821,62bbf9d772d3464813959fd7,2022-06-29_10h07.24.761,Colour_Asymmetry_Pilot,2022.1.3,Win32,20.00080003,62bbe60bf3d75ef465d3e404,,,,,,,,,,,,,,,,,,,,,,,,,,,,,,,,,,,,,,,,,,,,,,,,,,,,,,,,,,,,,,,,,,,,,,,,,,,,,,,,,,,,,,,,,,,,,,,,,,,,,,,,,,,,,,,,,,,,,,,,,,,,,,,,,,,,,,,,,,,,,,,,,,,,,,,,,,,,,,
0,2,2,55,1,,5f857edcc4d42502bec40821,62bbf9d772d3464813959fd7,2022-06-29_10h07.24.761,Colour_Asymmetry_Pilot,2022.1.3,Win32,20.00080003,62bbe60bf3d75ef465d3e404,,,,,,,,,,,,,,,,,,,,,,,,,,,,,,,,,,,,,,,,,,,,,,,,,,,,,,,,,,,,,,,,,,,,,,,,,,,,,,,,,,,,,,,,,,,,,,,,,,,,,,,,,,,,,,,,,,,,,,,,,,,,,,,,,,,,,,,,,,,,,,,,,,,,,,,,,,,,,,
0,3,3,79,1,,5f857edcc4d42502bec40821,62bbf9d772d3464813959fd7,2022-06-29_10h07.24.761,Colour_Asymmetry_Pilot,2022.1.3,Win32,20.00080003,62bbe60bf3d75ef465d3e404,,,,,,,,,,,,,,,,,,,,,,,,,,,,,,,,,,,,,,,,,,,,,,,,,,,,,,,,,,,,,,,,,,,,,,,,,,,,,,,,,,,,,,,,,,,,,,,,,,,,,,,,,,,,,,,,,,,,,,,,,,,,,,,,,,,,,,,,,,,,,,,,,,,,,,,,,,,,,,
0,4,4,43,1,,5f857edcc4d42502bec40821,62bbf9d772d3464813959fd7,2022-06-29_10h07.24.761,Colour_Asymmetry_Pilot,2022.1.3,Win32,20.00080003,62bbe60bf3d75ef465d3e404,,,,,,,,,,,,,,,,,,,,,,,,,,,,,,,,,,,,,,,,,,,,,,,,,,,,,,,,,,,,,,,,,,,,,,,,,,,,,,,,,,,,,,,,,,,,,,,,,,,,,,,,,,,,,,,,,,,,,,,,,,,,,,,,,,,,,,,,,,,,,,,,,,,,,,,,,,,,,,
0,5,5,74,1,,5f857edcc4d42502bec40821,62bbf9d772d3464813959fd7,2022-06-29_10h07.24.761,Colour_Asymmetry_Pilot,2022.1.3,Win32,20.00080003,62bbe60bf3d75ef465d3e404,,,,,,,,,,,,,,,,,,,,,,,,,,,,,,,,,,,,,,,,,,,,,,,,,,,,,,,,,,,,,,,,,,,,,,,,,,,,,,,,,,,,,,,,,,,,,,,,,,,,,,,,,,,,,,,,,,,,,,,,,,,,,,,,,,,,,,,,,,,,,,,,,,,,,,,,,,,,,,
0,6,6,80,1,,5f857edcc4d42502bec40821,62bbf9d772d3464813959fd7,2022-06-29_10h07.24.761,Colour_Asymmetry_Pilot,2022.1.3,Win32,20.00080003,62bbe60bf3d75ef465d3e404,,,,,,,,,,,,,,,,,,,,,,,,,,,,,,,,,,,,,,,,,,,,,,,,,,,,,,,,,,,,,,,,,,,,,,,,,,,,,,,,,,,,,,,,,,,,,,,,,,,,,,,,,,,,,,,,,,,,,,,,,,,,,,,,,,,,,,,,,,,,,,,,,,,,,,,,,,,,,,
0,7,7,17,1,,5f857edcc4d42502bec40821,62bbf9d772d3464813959fd7,2022-06-29_10h07.24.761,Colour_Asymmetry_Pilot,2022.1.3,Win32,20.00080003,62bbe60bf3d75ef465d3e404,,,,,,,,,,,,,,,,,,,,,,,,,,,,,,,,,,,,,,,,,,,,,,,,,,,,,,,,,,,,,,,,,,,,,,,,,,,,,,,,,,,,,,,,,,,,,,,,,,,,,,,,,,,,,,,,,,,,,,,,,,,,,,,,,,,,,,,,,,,,,,,,,,,,,,,,,,,,,,
0,8,8,29,1,,5f857edcc4d42502bec40821,62bbf9d772d3464813959fd7,2022-06-29_10h07.24.761,Colour_Asymmetry_Pilot,2022.1.3,Win32,20.00080003,62bbe60bf3d75ef465d3e404,,,,,,,,,,,,,,,,,,,,,,,,,,,,,,,,,,,,,,,,,,,,,,,,,,,,,,,,,,,,,,,,,,,,,,,,,,,,,,,,,,,,,,,,,,,,,,,,,,,,,,,,,,,,,,,,,,,,,,,,,,,,,,,,,,,,,,,,,,,,,,,,,,,,,,,,,,,,,,
0,9,9,24,1,,5f857edcc4d42502bec40821,62bbf9d772d3464813959fd7,2022-06-29_10h07.24.761,Colour_Asymmetry_Pilot,2022.1.3,Win32,20.00080003,62bbe60bf3d75ef465d3e404,,,,,,,,,,,,,,,,,,,,,,,,,,,,,,,,,,,,,,,,,,,,,,,,,,,,,,,,,,,,,,,,,,,,,,,,,,,,,,,,,,,,,,,,,,,,,,,,,,,,,,,,,,,,,,,,,,,,,,,,,,,,,,,,,,,,,,,,,,,,,,,,,,,,,,,,,,,,,,
0,10,10,44,1,,5f857edcc4d42502bec40821,62bbf9d772d3464813959fd7,2022-06-29_10h07.24.761,Colour_Asymmetry_Pilot,2022.1.3,Win32,20.00080003,62bbe60bf3d75ef465d3e404,,,,,,,,,,,,,,,,,,,,,,,,,,,,,,,,,,,,,,,,,,,,,,,,,,,,,,,,,,,,,,,,,,,,,,,,,,,,,,,,,,,,,,,,,,,,,,,,,,,,,,,,,,,,,,,,,,,,,,,,,,,,,,,,,,,,,,,,,,,,,,,,,,,,,,,,,,,,,,
0,11,11,8,1,,5f857edcc4d42502bec40821,62bbf9d772d3464813959fd7,2022-06-29_10h07.24.761,Colour_Asymmetry_Pilot,2022.1.3,Win32,20.00080003,62bbe60bf3d75ef465d3e404,,,,,,,,,,,,,,,,,,,,,,,,,,,,,,,,,,,,,,,,,,,,,,,,,,,,,,,,,,,,,,,,,,,,,,,,,,,,,,,,,,,,,,,,,,,,,,,,,,,,,,,,,,,,,,,,,,,,,,,,,,,,,,,,,,,,,,,,,,,,,,,,,,,,,,,,,,,,,,
0,12,12,15,1,,5f857edcc4d42502bec40821,62bbf9d772d3464813959fd7,2022-06-29_10h07.24.761,Colour_Asymmetry_Pilot,2022.1.3,Win32,20.00080003,62bbe60bf3d75ef465d3e404,,,,,,,,,,,,,,,,,,,,,,,,,,,,,,,,,,,,,,,,,,,,,,,,,,,,,,,,,,,,,,,,,,,,,,,,,,,,,,,,,,,,,,,,,,,,,,,,,,,,,,,,,,,,,,,,,,,,,,,,,,,,,,,,,,,,,,,,,,,,,,,,,,,,,,,,,,,,,,
0,13,13,42,1,,5f857edcc4d42502bec40821,62bbf9d772d3464813959fd7,2022-06-29_10h07.24.761,Colour_Asymmetry_Pilot,2022.1.3,Win32,20.00080003,62bbe60bf3d75ef465d3e404,,,,,,,,,,,,,,,,,,,,,,,,,,,,,,,,,,,,,,,,,,,,,,,,,,,,,,,,,,,,,,,,,,,,,,,,,,,,,,,,,,,,,,,,,,,,,,,,,,,,,,,,,,,,,,,,,,,,,,,,,,,,,,,,,,,,,,,,,,,,,,,,,,,,,,,,,,,,,,
0,14,14,51,1,,5f857edcc4d42502bec40821,62bbf9d772d3464813959fd7,2022-06-29_10h07.24.761,Colour_Asymmetry_Pilot,2022.1.3,Win32,20.00080003,62bbe60bf3d75ef465d3e404,,,,,,,,,,,,,,,,,,,,,,,,,,,,,,,,,,,,,,,,,,,,,,,,,,,,,,,,,,,,,,,,,,,,,,,,,,,,,,,,,,,,,,,,,,,,,,,,,,,,,,,,,,,,,,,,,,,,,,,,,,,,,,,,,,,,,,,,,,,,,,,,,,,,,,,,,,,,,,
0,15,15,46,1,,5f857edcc4d42502bec40821,62bbf9d772d3464813959fd7,2022-06-29_10h07.24.761,Colour_Asymmetry_Pilot,2022.1.3,Win32,20.00080003,62bbe60bf3d75ef465d3e404,,,,,,,,,,,,,,,,,,,,,,,,,,,,,,,,,,,,,,,,,,,,,,,,,,,,,,,,,,,,,,,,,,,,,,,,,,,,,,,,,,,,,,,,,,,,,,,,,,,,,,,,,,,,,,,,,,,,,,,,,,,,,,,,,,,,,,,,,,,,,,,,,,,,,,,,,,,,,,
0,16,16,14,1,,5f857edcc4d42502bec40821,62bbf9d772d3464813959fd7,2022-06-29_10h07.24.761,Colour_Asymmetry_Pilot,2022.1.3,Win32,20.00080003,62bbe60bf3d75ef465d3e404,,,,,,,,,,,,,,,,,,,,,,,,,,,,,,,,,,,,,,,,,,,,,,,,,,,,,,,,,,,,,,,,,,,,,,,,,,,,,,,,,,,,,,,,,,,,,,,,,,,,,,,,,,,,,,,,,,,,,,,,,,,,,,,,,,,,,,,,,,,,,,,,,,,,,,,,,,,,,,
0,17,17,35,1,,5f857edcc4d42502bec40821,62bbf9d772d3464813959fd7,2022-06-29_10h07.24.761,Colour_Asymmetry_Pilot,2022.1.3,Win32,20.00080003,62bbe60bf3d75ef465d3e404,,,,,,,,,,,,,,,,,,,,,,,,,,,,,,,,,,,,,,,,,,,,,,,,,,,,,,,,,,,,,,,,,,,,,,,,,,,,,,,,,,,,,,,,,,,,,,,,,,,,,,,,,,,,,,,,,,,,,,,,,,,,,,,,,,,,,,,,,,,,,,,,,,,,,,,,,,,,,,
0,18,18,68,1,,5f857edcc4d42502bec40821,62bbf9d772d3464813959fd7,2022-06-29_10h07.24.761,Colour_Asymmetry_Pilot,2022.1.3,Win32,20.00080003,62bbe60bf3d75ef465d3e404,,,,,,,,,,,,,,,,,,,,,,,,,,,,,,,,,,,,,,,,,,,,,,,,,,,,,,,,,,,,,,,,,,,,,,,,,,,,,,,,,,,,,,,,,,,,,,,,,,,,,,,,,,,,,,,,,,,,,,,,,,,,,,,,,,,,,,,,,,,,,,,,,,,,,,,,,,,,,,
0,19,19,72,1,,5f857edcc4d42502bec40821,62bbf9d772d3464813959fd7,2022-06-29_10h07.24.761,Colour_Asymmetry_Pilot,2022.1.3,Win32,20.00080003,62bbe60bf3d75ef465d3e404,,,,,,,,,,,,,,,,,,,,,,,,,,,,,,,,,,,,,,,,,,,,,,,,,,,,,,,,,,,,,,,,,,,,,,,,,,,,,,,,,,,,,,,,,,,,,,,,,,,,,,,,,,,,,,,,,,,,,,,,,,,,,,,,,,,,,,,,,,,,,,,,,,,,,,,,,,,,,,
0,20,20,89,1,,5f857edcc4d42502bec40821,62bbf9d772d3464813959fd7,2022-06-29_10h07.24.761,Colour_Asymmetry_Pilot,2022.1.3,Win32,20.00080003,62bbe60bf3d75ef465d3e404,,,,,,,,,,,,,,,,,,,,,,,,,,,,,,,,,,,,,,,,,,,,,,,,,,,,,,,,,,,,,,,,,,,,,,,,,,,,,,,,,,,,,,,,,,,,,,,,,,,,,,,,,,,,,,,,,,,,,,,,,,,,,,,,,,,,,,,,,,,,,,,,,,,,,,,,,,,,,,
0,21,21,49,1,,5f857edcc4d42502bec40821,62bbf9d772d3464813959fd7,2022-06-29_10h07.24.761,Colour_Asymmetry_Pilot,2022.1.3,Win32,20.00080003,62bbe60bf3d75ef465d3e404,,,,,,,,,,,,,,,,,,,,,,,,,,,,,,,,,,,,,,,,,,,,,,,,,,,,,,,,,,,,,,,,,,,,,,,,,,,,,,,,,,,,,,,,,,,,,,,,,,,,,,,,,,,,,,,,,,,,,,,,,,,,,,,,,,,,,,,,,,,,,,,,,,,,,,,,,,,,,,
0,22,22,70,1,,5f857edcc4d42502bec40821,62bbf9d772d3464813959fd7,2022-06-29_10h07.24.761,Colour_Asymmetry_Pilot,2022.1.3,Win32,20.00080003,62bbe60bf3d75ef465d3e404,,,,,,,,,,,,,,,,,,,,,,,,,,,,,,,,,,,,,,,,,,,,,,,,,,,,,,,,,,,,,,,,,,,,,,,,,,,,,,,,,,,,,,,,,,,,,,,,,,,,,,,,,,,,,,,,,,,,,,,,,,,,,,,,,,,,,,,,,,,,,,,,,,,,,,,,,,,,,,
0,23,23,19,1,,5f857edcc4d42502bec40821,62bbf9d772d3464813959fd7,2022-06-29_10h07.24.761,Colour_Asymmetry_Pilot,2022.1.3,Win32,20.00080003,62bbe60bf3d75ef465d3e404,,,,,,,,,,,,,,,,,,,,,,,,,,,,,,,,,,,,,,,,,,,,,,,,,,,,,,,,,,,,,,,,,,,,,,,,,,,,,,,,,,,,,,,,,,,,,,,,,,,,,,,,,,,,,,,,,,,,,,,,,,,,,,,,,,,,,,,,,,,,,,,,,,,,,,,,,,,,,,
0,24,24,37,1,,5f857edcc4d42502bec40821,62bbf9d772d3464813959fd7,2022-06-29_10h07.24.761,Colour_Asymmetry_Pilot,2022.1.3,Win32,20.00080003,62bbe60bf3d75ef465d3e404,,,,,,,,,,,,,,,,,,,,,,,,,,,,,,,,,,,,,,,,,,,,,,,,,,,,,,,,,,,,,,,,,,,,,,,,,,,,,,,,,,,,,,,,,,,,,,,,,,,,,,,,,,,,,,,,,,,,,,,,,,,,,,,,,,,,,,,,,,,,,,,,,,,,,,,,,,,,,,
0,25,25,36,1,,5f857edcc4d42502bec40821,62bbf9d772d3464813959fd7,2022-06-29_10h07.24.761,Colour_Asymmetry_Pilot,2022.1.3,Win32,20.00080003,62bbe60bf3d75ef465d3e404,,,,,,,,,,,,,,,,,,,,,,,,,,,,,,,,,,,,,,,,,,,,,,,,,,,,,,,,,,,,,,,,,,,,,,,,,,,,,,,,,,,,,,,,,,,,,,,,,,,,,,,,,,,,,,,,,,,,,,,,,,,,,,,,,,,,,,,,,,,,,,,,,,,,,,,,,,,,,,
0,26,26,87,1,,5f857edcc4d42502bec40821,62bbf9d772d3464813959fd7,2022-06-29_10h07.24.761,Colour_Asymmetry_Pilot,2022.1.3,Win32,20.00080003,62bbe60bf3d75ef465d3e404,,,,,,,,,,,,,,,,,,,,,,,,,,,,,,,,,,,,,,,,,,,,,,,,,,,,,,,,,,,,,,,,,,,,,,,,,,,,,,,,,,,,,,,,,,,,,,,,,,,,,,,,,,,,,,,,,,,,,,,,,,,,,,,,,,,,,,,,,,,,,,,,,,,,,,,,,,,,,,
0,27,27,30,1,,5f857edcc4d42502bec40821,62bbf9d772d3464813959fd7,2022-06-29_10h07.24.761,Colour_Asymmetry_Pilot,2022.1.3,Win32,20.00080003,62bbe60bf3d75ef465d3e404,,,,,,,,,,,,,,,,,,,,,,,,,,,,,,,,,,,,,,,,,,,,,,,,,,,,,,,,,,,,,,,,,,,,,,,,,,,,,,,,,,,,,,,,,,,,,,,,,,,,,,,,,,,,,,,,,,,,,,,,,,,,,,,,,,,,,,,,,,,,,,,,,,,,,,,,,,,,,,
0,28,28,23,1,,5f857edcc4d42502bec40821,62bbf9d772d3464813959fd7,2022-06-29_10h07.24.761,Colour_Asymmetry_Pilot,2022.1.3,Win32,20.00080003,62bbe60bf3d75ef465d3e404,,,,,,,,,,,,,,,,,,,,,,,,,,,,,,,,,,,,,,,,,,,,,,,,,,,,,,,,,,,,,,,,,,,,,,,,,,,,,,,,,,,,,,,,,,,,,,,,,,,,,,,,,,,,,,,,,,,,,,,,,,,,,,,,,,,,,,,,,,,,,,,,,,,,,,,,,,,,,,
0,29,29,13,1,,5f857edcc4d42502bec40821,62bbf9d772d3464813959fd7,2022-06-29_10h07.24.761,Colour_Asymmetry_Pilot,2022.1.3,Win32,20.00080003,62bbe60bf3d75ef465d3e404,,,,,,,,,,,,,,,,,,,,,,,,,,,,,,,,,,,,,,,,,,,,,,,,,,,,,,,,,,,,,,,,,,,,,,,,,,,,,,,,,,,,,,,,,,,,,,,,,,,,,,,,,,,,,,,,,,,,,,,,,,,,,,,,,,,,,,,,,,,,,,,,,,,,,,,,,,,,,,
0,30,30,11,1,,5f857edcc4d42502bec40821,62bbf9d772d3464813959fd7,2022-06-29_10h07.24.761,Colour_Asymmetry_Pilot,2022.1.3,Win32,20.00080003,62bbe60bf3d75ef465d3e404,,,,,,,,,,,,,,,,,,,,,,,,,,,,,,,,,,,,,,,,,,,,,,,,,,,,,,,,,,,,,,,,,,,,,,,,,,,,,,,,,,,,,,,,,,,,,,,,,,,,,,,,,,,,,,,,,,,,,,,,,,,,,,,,,,,,,,,,,,,,,,,,,,,,,,,,,,,,,,
0,31,31,53,1,,5f857edcc4d42502bec40821,62bbf9d772d3464813959fd7,2022-06-29_10h07.24.761,Colour_Asymmetry_Pilot,2022.1.3,Win32,20.00080003,62bbe60bf3d75ef465d3e404,,,,,,,,,,,,,,,,,,,,,,,,,,,,,,,,,,,,,,,,,,,,,,,,,,,,,,,,,,,,,,,,,,,,,,,,,,,,,,,,,,,,,,,,,,,,,,,,,,,,,,,,,,,,,,,,,,,,,,,,,,,,,,,,,,,,,,,,,,,,,,,,,,,,,,,,,,,,,,
0,32,32,58,1,,5f857edcc4d42502bec40821,62bbf9d772d3464813959fd7,2022-06-29_10h07.24.761,Colour_Asymmetry_Pilot,2022.1.3,Win32,20.00080003,62bbe60bf3d75ef465d3e404,,,,,,,,,,,,,,,,,,,,,,,,,,,,,,,,,,,,,,,,,,,,,,,,,,,,,,,,,,,,,,,,,,,,,,,,,,,,,,,,,,,,,,,,,,,,,,,,,,,,,,,,,,,,,,,,,,,,,,,,,,,,,,,,,,,,,,,,,,,,,,,,,,,,,,,,,,,,,,
0,33,33,48,1,,5f857edcc4d42502bec40821,62bbf9d772d3464813959fd7,2022-06-29_10h07.24.761,Colour_Asymmetry_Pilot,2022.1.3,Win32,20.00080003,62bbe60bf3d75ef465d3e404,,,,,,,,,,,,,,,,,,,,,,,,,,,,,,,,,,,,,,,,,,,,,,,,,,,,,,,,,,,,,,,,,,,,,,,,,,,,,,,,,,,,,,,,,,,,,,,,,,,,,,,,,,,,,,,,,,,,,,,,,,,,,,,,,,,,,,,,,,,,,,,,,,,,,,,,,,,,,,
0,34,34,71,1,,5f857edcc4d42502bec40821,62bbf9d772d3464813959fd7,2022-06-29_10h07.24.761,Colour_Asymmetry_Pilot,2022.1.3,Win32,20.00080003,62bbe60bf3d75ef465d3e404,,,,,,,,,,,,,,,,,,,,,,,,,,,,,,,,,,,,,,,,,,,,,,,,,,,,,,,,,,,,,,,,,,,,,,,,,,,,,,,,,,,,,,,,,,,,,,,,,,,,,,,,,,,,,,,,,,,,,,,,,,,,,,,,,,,,,,,,,,,,,,,,,,,,,,,,,,,,,,
0,35,35,67,1,,5f857edcc4d42502bec40821,62bbf9d772d3464813959fd7,2022-06-29_10h07.24.761,Colour_Asymmetry_Pilot,2022.1.3,Win32,20.00080003,62bbe60bf3d75ef465d3e404,,,,,,,,,,,,,,,,,,,,,,,,,,,,,,,,,,,,,,,,,,,,,,,,,,,,,,,,,,,,,,,,,,,,,,,,,,,,,,,,,,,,,,,,,,,,,,,,,,,,,,,,,,,,,,,,,,,,,,,,,,,,,,,,,,,,,,,,,,,,,,,,,,,,,,,,,,,,,,
0,36,36,41,1,,5f857edcc4d42502bec40821,62bbf9d772d3464813959fd7,2022-06-29_10h07.24.761,Colour_Asymmetry_Pilot,2022.1.3,Win32,20.00080003,62bbe60bf3d75ef465d3e404,,,,,,,,,,,,,,,,,,,,,,,,,,,,,,,,,,,,,,,,,,,,,,,,,,,,,,,,,,,,,,,,,,,,,,,,,,,,,,,,,,,,,,,,,,,,,,,,,,,,,,,,,,,,,,,,,,,,,,,,,,,,,,,,,,,,,,,,,,,,,,,,,,,,,,,,,,,,,,
0,37,37,9,1,,5f857edcc4d42502bec40821,62bbf9d772d3464813959fd7,2022-06-29_10h07.24.761,Colour_Asymmetry_Pilot,2022.1.3,Win32,20.00080003,62bbe60bf3d75ef465d3e404,,,,,,,,,,,,,,,,,,,,,,,,,,,,,,,,,,,,,,,,,,,,,,,,,,,,,,,,,,,,,,,,,,,,,,,,,,,,,,,,,,,,,,,,,,,,,,,,,,,,,,,,,,,,,,,,,,,,,,,,,,,,,,,,,,,,,,,,,,,,,,,,,,,,,,,,,,,,,,
0,38,38,81,1,,5f857edcc4d42502bec40821,62bbf9d772d3464813959fd7,2022-06-29_10h07.24.761,Colour_Asymmetry_Pilot,2022.1.3,Win32,20.00080003,62bbe60bf3d75ef465d3e404,,,,,,,,,,,,,,,,,,,,,,,,,,,,,,,,,,,,,,,,,,,,,,,,,,,,,,,,,,,,,,,,,,,,,,,,,,,,,,,,,,,,,,,,,,,,,,,,,,,,,,,,,,,,,,,,,,,,,,,,,,,,,,,,,,,,,,,,,,,,,,,,,,,,,,,,,,,,,,
0,39,39,10,1,,5f857edcc4d42502bec40821,62bbf9d772d3464813959fd7,2022-06-29_10h07.24.761,Colour_Asymmetry_Pilot,2022.1.3,Win32,20.00080003,62bbe60bf3d75ef465d3e404,,,,,,,,,,,,,,,,,,,,,,,,,,,,,,,,,,,,,,,,,,,,,,,,,,,,,,,,,,,,,,,,,,,,,,,,,,,,,,,,,,,,,,,,,,,,,,,,,,,,,,,,,,,,,,,,,,,,,,,,,,,,,,,,,,,,,,,,,,,,,,,,,,,,,,,,,,,,,,
0,40,40,63,1,,5f857edcc4d42502bec40821,62bbf9d772d3464813959fd7,2022-06-29_10h07.24.761,Colour_Asymmetry_Pilot,2022.1.3,Win32,20.00080003,62bbe60bf3d75ef465d3e404,,,,,,,,,,,,,,,,,,,,,,,,,,,,,,,,,,,,,,,,,,,,,,,,,,,,,,,,,,,,,,,,,,,,,,,,,,,,,,,,,,,,,,,,,,,,,,,,,,,,,,,,,,,,,,,,,,,,,,,,,,,,,,,,,,,,,,,,,,,,,,,,,,,,,,,,,,,,,,
0,41,41,0,1,,5f857edcc4d42502bec40821,62bbf9d772d3464813959fd7,2022-06-29_10h07.24.761,Colour_Asymmetry_Pilot,2022.1.3,Win32,20.00080003,62bbe60bf3d75ef465d3e404,,,,,,,,,,,,,,,,,,,,,,,,,,,,,,,,,,,,,,,,,,,,,,,,,,,,,,,,,,,,,,,,,,,,,,,,,,,,,,,,,,,,,,,,,,,,,,,,,,,,,,,,,,,,,,,,,,,,,,,,,,,,,,,,,,,,,,,,,,,,,,,,,,,,,,,,,,,,,,
0,42,42,3,1,,5f857edcc4d42502bec40821,62bbf9d772d3464813959fd7,2022-06-29_10h07.24.761,Colour_Asymmetry_Pilot,2022.1.3,Win32,20.00080003,62bbe60bf3d75ef465d3e404,,,,,,,,,,,,,,,,,,,,,,,,,,,,,,,,,,,,,,,,,,,,,,,,,,,,,,,,,,,,,,,,,,,,,,,,,,,,,,,,,,,,,,,,,,,,,,,,,,,,,,,,,,,,,,,,,,,,,,,,,,,,,,,,,,,,,,,,,,,,,,,,,,,,,,,,,,,,,,
0,43,43,92,1,,5f857edcc4d42502bec40821,62bbf9d772d3464813959fd7,2022-06-29_10h07.24.761,Colour_Asymmetry_Pilot,2022.1.3,Win32,20.00080003,62bbe60bf3d75ef465d3e404,,,,,,,,,,,,,,,,,,,,,,,,,,,,,,,,,,,,,,,,,,,,,,,,,,,,,,,,,,,,,,,,,,,,,,,,,,,,,,,,,,,,,,,,,,,,,,,,,,,,,,,,,,,,,,,,,,,,,,,,,,,,,,,,,,,,,,,,,,,,,,,,,,,,,,,,,,,,,,
0,44,44,91,1,,5f857edcc4d42502bec40821,62bbf9d772d3464813959fd7,2022-06-29_10h07.24.761,Colour_Asymmetry_Pilot,2022.1.3,Win32,20.00080003,62bbe60bf3d75ef465d3e404,,,,,,,,,,,,,,,,,,,,,,,,,,,,,,,,,,,,,,,,,,,,,,,,,,,,,,,,,,,,,,,,,,,,,,,,,,,,,,,,,,,,,,,,,,,,,,,,,,,,,,,,,,,,,,,,,,,,,,,,,,,,,,,,,,,,,,,,,,,,,,,,,,,,,,,,,,,,,,
0,45,45,40,1,,5f857edcc4d42502bec40821,62bbf9d772d3464813959fd7,2022-06-29_10h07.24.761,Colour_Asymmetry_Pilot,2022.1.3,Win32,20.00080003,62bbe60bf3d75ef465d3e404,,,,,,,,,,,,,,,,,,,,,,,,,,,,,,,,,,,,,,,,,,,,,,,,,,,,,,,,,,,,,,,,,,,,,,,,,,,,,,,,,,,,,,,,,,,,,,,,,,,,,,,,,,,,,,,,,,,,,,,,,,,,,,,,,,,,,,,,,,,,,,,,,,,,,,,,,,,,,,
0,46,46,90,1,,5f857edcc4d42502bec40821,62bbf9d772d3464813959fd7,2022-06-29_10h07.24.761,Colour_Asymmetry_Pilot,2022.1.3,Win32,20.00080003,62bbe60bf3d75ef465d3e404,,,,,,,,,,,,,,,,,,,,,,,,,,,,,,,,,,,,,,,,,,,,,,,,,,,,,,,,,,,,,,,,,,,,,,,,,,,,,,,,,,,,,,,,,,,,,,,,,,,,,,,,,,,,,,,,,,,,,,,,,,,,,,,,,,,,,,,,,,,,,,,,,,,,,,,,,,,,,,
0,47,47,83,1,,5f857edcc4d42502bec40821,62bbf9d772d3464813959fd7,2022-06-29_10h07.24.761,Colour_Asymmetry_Pilot,2022.1.3,Win32,20.00080003,62bbe60bf3d75ef465d3e404,,,,,,,,,,,,,,,,,,,,,,,,,,,,,,,,,,,,,,,,,,,,,,,,,,,,,,,,,,,,,,,,,,,,,,,,,,,,,,,,,,,,,,,,,,,,,,,,,,,,,,,,,,,,,,,,,,,,,,,,,,,,,,,,,,,,,,,,,,,,,,,,,,,,,,,,,,,,,,
0,48,48,25,1,,5f857edcc4d42502bec40821,62bbf9d772d3464813959fd7,2022-06-29_10h07.24.761,Colour_Asymmetry_Pilot,2022.1.3,Win32,20.00080003,62bbe60bf3d75ef465d3e404,,,,,,,,,,,,,,,,,,,,,,,,,,,,,,,,,,,,,,,,,,,,,,,,,,,,,,,,,,,,,,,,,,,,,,,,,,,,,,,,,,,,,,,,,,,,,,,,,,,,,,,,,,,,,,,,,,,,,,,,,,,,,,,,,,,,,,,,,,,,,,,,,,,,,,,,,,,,,,
0,49,49,33,1,,5f857edcc4d42502bec40821,62bbf9d772d3464813959fd7,2022-06-29_10h07.24.761,Colour_Asymmetry_Pilot,2022.1.3,Win32,20.00080003,62bbe60bf3d75ef465d3e404,,,,,,,,,,,,,,,,,,,,,,,,,,,,,,,,,,,,,,,,,,,,,,,,,,,,,,,,,,,,,,,,,,,,,,,,,,,,,,,,,,,,,,,,,,,,,,,,,,,,,,,,,,,,,,,,,,,,,,,,,,,,,,,,,,,,,,,,,,,,,,,,,,,,,,,,,,,,,,
0,50,50,4,1,,5f857edcc4d42502bec40821,62bbf9d772d3464813959fd7,2022-06-29_10h07.24.761,Colour_Asymmetry_Pilot,2022.1.3,Win32,20.00080003,62bbe60bf3d75ef465d3e404,,,,,,,,,,,,,,,,,,,,,,,,,,,,,,,,,,,,,,,,,,,,,,,,,,,,,,,,,,,,,,,,,,,,,,,,,,,,,,,,,,,,,,,,,,,,,,,,,,,,,,,,,,,,,,,,,,,,,,,,,,,,,,,,,,,,,,,,,,,,,,,,,,,,,,,,,,,,,,
0,51,51,50,1,,5f857edcc4d42502bec40821,62bbf9d772d3464813959fd7,2022-06-29_10h07.24.761,Colour_Asymmetry_Pilot,2022.1.3,Win32,20.00080003,62bbe60bf3d75ef465d3e404,,,,,,,,,,,,,,,,,,,,,,,,,,,,,,,,,,,,,,,,,,,,,,,,,,,,,,,,,,,,,,,,,,,,,,,,,,,,,,,,,,,,,,,,,,,,,,,,,,,,,,,,,,,,,,,,,,,,,,,,,,,,,,,,,,,,,,,,,,,,,,,,,,,,,,,,,,,,,,
0,52,52,7,1,,5f857edcc4d42502bec40821,62bbf9d772d3464813959fd7,2022-06-29_10h07.24.761,Colour_Asymmetry_Pilot,2022.1.3,Win32,20.00080003,62bbe60bf3d75ef465d3e404,,,,,,,,,,,,,,,,,,,,,,,,,,,,,,,,,,,,,,,,,,,,,,,,,,,,,,,,,,,,,,,,,,,,,,,,,,,,,,,,,,,,,,,,,,,,,,,,,,,,,,,,,,,,,,,,,,,,,,,,,,,,,,,,,,,,,,,,,,,,,,,,,,,,,,,,,,,,,,
0,53,53,27,1,,5f857edcc4d42502bec40821,62bbf9d772d3464813959fd7,2022-06-29_10h07.24.761,Colour_Asymmetry_Pilot,2022.1.3,Win32,20.00080003,62bbe60bf3d75ef465d3e404,,,,,,,,,,,,,,,,,,,,,,,,,,,,,,,,,,,,,,,,,,,,,,,,,,,,,,,,,,,,,,,,,,,,,,,,,,,,,,,,,,,,,,,,,,,,,,,,,,,,,,,,,,,,,,,,,,,,,,,,,,,,,,,,,,,,,,,,,,,,,,,,,,,,,,,,,,,,,,
0,54,54,88,1,,5f857edcc4d42502bec40821,62bbf9d772d3464813959fd7,2022-06-29_10h07.24.761,Colour_Asymmetry_Pilot,2022.1.3,Win32,20.00080003,62bbe60bf3d75ef465d3e404,,,,,,,,,,,,,,,,,,,,,,,,,,,,,,,,,,,,,,,,,,,,,,,,,,,,,,,,,,,,,,,,,,,,,,,,,,,,,,,,,,,,,,,,,,,,,,,,,,,,,,,,,,,,,,,,,,,,,,,,,,,,,,,,,,,,,,,,,,,,,,,,,,,,,,,,,,,,,,
0,55,55,6,1,,5f857edcc4d42502bec40821,62bbf9d772d3464813959fd7,2022-06-29_10h07.24.761,Colour_Asymmetry_Pilot,2022.1.3,Win32,20.00080003,62bbe60bf3d75ef465d3e404,,,,,,,,,,,,,,,,,,,,,,,,,,,,,,,,,,,,,,,,,,,,,,,,,,,,,,,,,,,,,,,,,,,,,,,,,,,,,,,,,,,,,,,,,,,,,,,,,,,,,,,,,,,,,,,,,,,,,,,,,,,,,,,,,,,,,,,,,,,,,,,,,,,,,,,,,,,,,,
0,56,56,2,1,,5f857edcc4d42502bec40821,62bbf9d772d3464813959fd7,2022-06-29_10h07.24.761,Colour_Asymmetry_Pilot,2022.1.3,Win32,20.00080003,62bbe60bf3d75ef465d3e404,,,,,,,,,,,,,,,,,,,,,,,,,,,,,,,,,,,,,,,,,,,,,,,,,,,,,,,,,,,,,,,,,,,,,,,,,,,,,,,,,,,,,,,,,,,,,,,,,,,,,,,,,,,,,,,,,,,,,,,,,,,,,,,,,,,,,,,,,,,,,,,,,,,,,,,,,,,,,,
0,57,57,31,1,,5f857edcc4d42502bec40821,62bbf9d772d3464813959fd7,2022-06-29_10h07.24.761,Colour_Asymmetry_Pilot,2022.1.3,Win32,20.00080003,62bbe60bf3d75ef465d3e404,,,,,,,,,,,,,,,,,,,,,,,,,,,,,,,,,,,,,,,,,,,,,,,,,,,,,,,,,,,,,,,,,,,,,,,,,,,,,,,,,,,,,,,,,,,,,,,,,,,,,,,,,,,,,,,,,,,,,,,,,,,,,,,,,,,,,,,,,,,,,,,,,,,,,,,,,,,,,,
0,58,58,69,1,,5f857edcc4d42502bec40821,62bbf9d772d3464813959fd7,2022-06-29_10h07.24.761,Colour_Asymmetry_Pilot,2022.1.3,Win32,20.00080003,62bbe60bf3d75ef465d3e404,,,,,,,,,,,,,,,,,,,,,,,,,,,,,,,,,,,,,,,,,,,,,,,,,,,,,,,,,,,,,,,,,,,,,,,,,,,,,,,,,,,,,,,,,,,,,,,,,,,,,,,,,,,,,,,,,,,,,,,,,,,,,,,,,,,,,,,,,,,,,,,,,,,,,,,,,,,,,,
0,59,59,1,1,,5f857edcc4d42502bec40821,62bbf9d772d3464813959fd7,2022-06-29_10h07.24.761,Colour_Asymmetry_Pilot,2022.1.3,Win32,20.00080003,62bbe60bf3d75ef465d3e404,,,,,,,,,,,,,,,,,,,,,,,,,,,,,,,,,,,,,,,,,,,,,,,,,,,,,,,,,,,,,,,,,,,,,,,,,,,,,,,,,,,,,,,,,,,,,,,,,,,,,,,,,,,,,,,,,,,,,,,,,,,,,,,,,,,,,,,,,,,,,,,,,,,,,,,,,,,,,,
0,60,60,20,1,,5f857edcc4d42502bec40821,62bbf9d772d3464813959fd7,2022-06-29_10h07.24.761,Colour_Asymmetry_Pilot,2022.1.3,Win32,20.00080003,62bbe60bf3d75ef465d3e404,,,,,,,,,,,,,,,,,,,,,,,,,,,,,,,,,,,,,,,,,,,,,,,,,,,,,,,,,,,,,,,,,,,,,,,,,,,,,,,,,,,,,,,,,,,,,,,,,,,,,,,,,,,,,,,,,,,,,,,,,,,,,,,,,,,,,,,,,,,,,,,,,,,,,,,,,,,,,,
0,61,61,64,1,,5f857edcc4d42502bec40821,62bbf9d772d3464813959fd7,2022-06-29_10h07.24.761,Colour_Asymmetry_Pilot,2022.1.3,Win32,20.00080003,62bbe60bf3d75ef465d3e404,,,,,,,,,,,,,,,,,,,,,,,,,,,,,,,,,,,,,,,,,,,,,,,,,,,,,,,,,,,,,,,,,,,,,,,,,,,,,,,,,,,,,,,,,,,,,,,,,,,,,,,,,,,,,,,,,,,,,,,,,,,,,,,,,,,,,,,,,,,,,,,,,,,,,,,,,,,,,,
0,62,62,28,1,,5f857edcc4d42502bec40821,62bbf9d772d3464813959fd7,2022-06-29_10h07.24.761,Colour_Asymmetry_Pilot,2022.1.3,Win32,20.00080003,62bbe60bf3d75ef465d3e404,,,,,,,,,,,,,,,,,,,,,,,,,,,,,,,,,,,,,,,,,,,,,,,,,,,,,,,,,,,,,,,,,,,,,,,,,,,,,,,,,,,,,,,,,,,,,,,,,,,,,,,,,,,,,,,,,,,,,,,,,,,,,,,,,,,,,,,,,,,,,,,,,,,,,,,,,,,,,,
0,63,63,73,1,,5f857edcc4d42502bec40821,62bbf9d772d3464813959fd7,2022-06-29_10h07.24.761,Colour_Asymmetry_Pilot,2022.1.3,Win32,20.00080003,62bbe60bf3d75ef465d3e404,,,,,,,,,,,,,,,,,,,,,,,,,,,,,,,,,,,,,,,,,,,,,,,,,,,,,,,,,,,,,,,,,,,,,,,,,,,,,,,,,,,,,,,,,,,,,,,,,,,,,,,,,,,,,,,,,,,,,,,,,,,,,,,,,,,,,,,,,,,,,,,,,,,,,,,,,,,,,,
0,64,64,21,1,,5f857edcc4d42502bec40821,62bbf9d772d3464813959fd7,2022-06-29_10h07.24.761,Colour_Asymmetry_Pilot,2022.1.3,Win32,20.00080003,62bbe60bf3d75ef465d3e404,,,,,,,,,,,,,,,,,,,,,,,,,,,,,,,,,,,,,,,,,,,,,,,,,,,,,,,,,,,,,,,,,,,,,,,,,,,,,,,,,,,,,,,,,,,,,,,,,,,,,,,,,,,,,,,,,,,,,,,,,,,,,,,,,,,,,,,,,,,,,,,,,,,,,,,,,,,,,,
0,65,65,76,1,,5f857edcc4d42502bec40821,62bbf9d772d3464813959fd7,2022-06-29_10h07.24.761,Colour_Asymmetry_Pilot,2022.1.3,Win32,20.00080003,62bbe60bf3d75ef465d3e404,,,,,,,,,,,,,,,,,,,,,,,,,,,,,,,,,,,,,,,,,,,,,,,,,,,,,,,,,,,,,,,,,,,,,,,,,,,,,,,,,,,,,,,,,,,,,,,,,,,,,,,,,,,,,,,,,,,,,,,,,,,,,,,,,,,,,,,,,,,,,,,,,,,,,,,,,,,,,,
0,66,66,52,1,,5f857edcc4d42502bec40821,62bbf9d772d3464813959fd7,2022-06-29_10h07.24.761,Colour_Asymmetry_Pilot,2022.1.3,Win32,20.00080003,62bbe60bf3d75ef465d3e404,,,,,,,,,,,,,,,,,,,,,,,,,,,,,,,,,,,,,,,,,,,,,,,,,,,,,,,,,,,,,,,,,,,,,,,,,,,,,,,,,,,,,,,,,,,,,,,,,,,,,,,,,,,,,,,,,,,,,,,,,,,,,,,,,,,,,,,,,,,,,,,,,,,,,,,,,,,,,,
0,67,67,62,1,,5f857edcc4d42502bec40821,62bbf9d772d3464813959fd7,2022-06-29_10h07.24.761,Colour_Asymmetry_Pilot,2022.1.3,Win32,20.00080003,62bbe60bf3d75ef465d3e404,,,,,,,,,,,,,,,,,,,,,,,,,,,,,,,,,,,,,,,,,,,,,,,,,,,,,,,,,,,,,,,,,,,,,,,,,,,,,,,,,,,,,,,,,,,,,,,,,,,,,,,,,,,,,,,,,,,,,,,,,,,,,,,,,,,,,,,,,,,,,,,,,,,,,,,,,,,,,,
0,68,68,45,1,,5f857edcc4d42502bec40821,62bbf9d772d3464813959fd7,2022-06-29_10h07.24.761,Colour_Asymmetry_Pilot,2022.1.3,Win32,20.00080003,62bbe60bf3d75ef465d3e404,,,,,,,,,,,,,,,,,,,,,,,,,,,,,,,,,,,,,,,,,,,,,,,,,,,,,,,,,,,,,,,,,,,,,,,,,,,,,,,,,,,,,,,,,,,,,,,,,,,,,,,,,,,,,,,,,,,,,,,,,,,,,,,,,,,,,,,,,,,,,,,,,,,,,,,,,,,,,,
0,69,69,66,1,,5f857edcc4d42502bec40821,62bbf9d772d3464813959fd7,2022-06-29_10h07.24.761,Colour_Asymmetry_Pilot,2022.1.3,Win32,20.00080003,62bbe60bf3d75ef465d3e404,,,,,,,,,,,,,,,,,,,,,,,,,,,,,,,,,,,,,,,,,,,,,,,,,,,,,,,,,,,,,,,,,,,,,,,,,,,,,,,,,,,,,,,,,,,,,,,,,,,,,,,,,,,,,,,,,,,,,,,,,,,,,,,,,,,,,,,,,,,,,,,,,,,,,,,,,,,,,,
0,70,70,16,1,,5f857edcc4d42502bec40821,62bbf9d772d3464813959fd7,2022-06-29_10h07.24.761,Colour_Asymmetry_Pilot,2022.1.3,Win32,20.00080003,62bbe60bf3d75ef465d3e404,,,,,,,,,,,,,,,,,,,,,,,,,,,,,,,,,,,,,,,,,,,,,,,,,,,,,,,,,,,,,,,,,,,,,,,,,,,,,,,,,,,,,,,,,,,,,,,,,,,,,,,,,,,,,,,,,,,,,,,,,,,,,,,,,,,,,,,,,,,,,,,,,,,,,,,,,,,,,,
0,71,71,34,1,,5f857edcc4d42502bec40821,62bbf9d772d3464813959fd7,2022-06-29_10h07.24.761,Colour_Asymmetry_Pilot,2022.1.3,Win32,20.00080003,62bbe60bf3d75ef465d3e404,,,,,,,,,,,,,,,,,,,,,,,,,,,,,,,,,,,,,,,,,,,,,,,,,,,,,,,,,,,,,,,,,,,,,,,,,,,,,,,,,,,,,,,,,,,,,,,,,,,,,,,,,,,,,,,,,,,,,,,,,,,,,,,,,,,,,,,,,,,,,,,,,,,,,,,,,,,,,,
0,72,72,85,1,,5f857edcc4d42502bec40821,62bbf9d772d3464813959fd7,2022-06-29_10h07.24.761,Colour_Asymmetry_Pilot,2022.1.3,Win32,20.00080003,62bbe60bf3d75ef465d3e404,,,,,,,,,,,,,,,,,,,,,,,,,,,,,,,,,,,,,,,,,,,,,,,,,,,,,,,,,,,,,,,,,,,,,,,,,,,,,,,,,,,,,,,,,,,,,,,,,,,,,,,,,,,,,,,,,,,,,,,,,,,,,,,,,,,,,,,,,,,,,,,,,,,,,,,,,,,,,,
0,73,73,59,1,,5f857edcc4d42502bec40821,62bbf9d772d3464813959fd7,2022-06-29_10h07.24.761,Colour_Asymmetry_Pilot,2022.1.3,Win32,20.00080003,62bbe60bf3d75ef465d3e404,,,,,,,,,,,,,,,,,,,,,,,,,,,,,,,,,,,,,,,,,,,,,,,,,,,,,,,,,,,,,,,,,,,,,,,,,,,,,,,,,,,,,,,,,,,,,,,,,,,,,,,,,,,,,,,,,,,,,,,,,,,,,,,,,,,,,,,,,,,,,,,,,,,,,,,,,,,,,,
0,74,74,54,1,,5f857edcc4d42502bec40821,62bbf9d772d3464813959fd7,2022-06-29_10h07.24.761,Colour_Asymmetry_Pilot,2022.1.3,Win32,20.00080003,62bbe60bf3d75ef465d3e404,,,,,,,,,,,,,,,,,,,,,,,,,,,,,,,,,,,,,,,,,,,,,,,,,,,,,,,,,,,,,,,,,,,,,,,,,,,,,,,,,,,,,,,,,,,,,,,,,,,,,,,,,,,,,,,,,,,,,,,,,,,,,,,,,,,,,,,,,,,,,,,,,,,,,,,,,,,,,,
0,75,75,61,1,,5f857edcc4d42502bec40821,62bbf9d772d3464813959fd7,2022-06-29_10h07.24.761,Colour_Asymmetry_Pilot,2022.1.3,Win32,20.00080003,62bbe60bf3d75ef465d3e404,,,,,,,,,,,,,,,,,,,,,,,,,,,,,,,,,,,,,,,,,,,,,,,,,,,,,,,,,,,,,,,,,,,,,,,,,,,,,,,,,,,,,,,,,,,,,,,,,,,,,,,,,,,,,,,,,,,,,,,,,,,,,,,,,,,,,,,,,,,,,,,,,,,,,,,,,,,,,,
0,76,76,39,1,,5f857edcc4d42502bec40821,62bbf9d772d3464813959fd7,2022-06-29_10h07.24.761,Colour_Asymmetry_Pilot,2022.1.3,Win32,20.00080003,62bbe60bf3d75ef465d3e404,,,,,,,,,,,,,,,,,,,,,,,,,,,,,,,,,,,,,,,,,,,,,,,,,,,,,,,,,,,,,,,,,,,,,,,,,,,,,,,,,,,,,,,,,,,,,,,,,,,,,,,,,,,,,,,,,,,,,,,,,,,,,,,,,,,,,,,,,,,,,,,,,,,,,,,,,,,,,,
0,77,77,38,1,,5f857edcc4d42502bec40821,62bbf9d772d3464813959fd7,2022-06-29_10h07.24.761,Colour_Asymmetry_Pilot,2022.1.3,Win32,20.00080003,62bbe60bf3d75ef465d3e404,,,,,,,,,,,,,,,,,,,,,,,,,,,,,,,,,,,,,,,,,,,,,,,,,,,,,,,,,,,,,,,,,,,,,,,,,,,,,,,,,,,,,,,,,,,,,,,,,,,,,,,,,,,,,,,,,,,,,,,,,,,,,,,,,,,,,,,,,,,,,,,,,,,,,,,,,,,,,,
0,78,78,56,1,,5f857edcc4d42502bec40821,62bbf9d772d3464813959fd7,2022-06-29_10h07.24.761,Colour_Asymmetry_Pilot,2022.1.3,Win32,20.00080003,62bbe60bf3d75ef465d3e404,,,,,,,,,,,,,,,,,,,,,,,,,,,,,,,,,,,,,,,,,,,,,,,,,,,,,,,,,,,,,,,,,,,,,,,,,,,,,,,,,,,,,,,,,,,,,,,,,,,,,,,,,,,,,,,,,,,,,,,,,,,,,,,,,,,,,,,,,,,,,,,,,,,,,,,,,,,,,,
0,79,79,57,1,,5f857edcc4d42502bec40821,62bbf9d772d3464813959fd7,2022-06-29_10h07.24.761,Colour_Asymmetry_Pilot,2022.1.3,Win32,20.00080003,62bbe60bf3d75ef465d3e404,,,,,,,,,,,,,,,,,,,,,,,,,,,,,,,,,,,,,,,,,,,,,,,,,,,,,,,,,,,,,,,,,,,,,,,,,,,,,,,,,,,,,,,,,,,,,,,,,,,,,,,,,,,,,,,,,,,,,,,,,,,,,,,,,,,,,,,,,,,,,,,,,,,,,,,,,,,,,,
0,80,80,65,1,,5f857edcc4d42502bec40821,62bbf9d772d3464813959fd7,2022-06-29_10h07.24.761,Colour_Asymmetry_Pilot,2022.1.3,Win32,20.00080003,62bbe60bf3d75ef465d3e404,,,,,,,,,,,,,,,,,,,,,,,,,,,,,,,,,,,,,,,,,,,,,,,,,,,,,,,,,,,,,,,,,,,,,,,,,,,,,,,,,,,,,,,,,,,,,,,,,,,,,,,,,,,,,,,,,,,,,,,,,,,,,,,,,,,,,,,,,,,,,,,,,,,,,,,,,,,,,,
0,81,81,75,1,,5f857edcc4d42502bec40821,62bbf9d772d3464813959fd7,2022-06-29_10h07.24.761,Colour_Asymmetry_Pilot,2022.1.3,Win32,20.00080003,62bbe60bf3d75ef465d3e404,,,,,,,,,,,,,,,,,,,,,,,,,,,,,,,,,,,,,,,,,,,,,,,,,,,,,,,,,,,,,,,,,,,,,,,,,,,,,,,,,,,,,,,,,,,,,,,,,,,,,,,,,,,,,,,,,,,,,,,,,,,,,,,,,,,,,,,,,,,,,,,,,,,,,,,,,,,,,,
0,82,82,78,1,,5f857edcc4d42502bec40821,62bbf9d772d3464813959fd7,2022-06-29_10h07.24.761,Colour_Asymmetry_Pilot,2022.1.3,Win32,20.00080003,62bbe60bf3d75ef465d3e404,,,,,,,,,,,,,,,,,,,,,,,,,,,,,,,,,,,,,,,,,,,,,,,,,,,,,,,,,,,,,,,,,,,,,,,,,,,,,,,,,,,,,,,,,,,,,,,,,,,,,,,,,,,,,,,,,,,,,,,,,,,,,,,,,,,,,,,,,,,,,,,,,,,,,,,,,,,,,,
0,83,83,86,1,,5f857edcc4d42502bec40821,62bbf9d772d3464813959fd7,2022-06-29_10h07.24.761,Colour_Asymmetry_Pilot,2022.1.3,Win32,20.00080003,62bbe60bf3d75ef465d3e404,,,,,,,,,,,,,,,,,,,,,,,,,,,,,,,,,,,,,,,,,,,,,,,,,,,,,,,,,,,,,,,,,,,,,,,,,,,,,,,,,,,,,,,,,,,,,,,,,,,,,,,,,,,,,,,,,,,,,,,,,,,,,,,,,,,,,,,,,,,,,,,,,,,,,,,,,,,,,,
0,84,84,82,1,,5f857edcc4d42502bec40821,62bbf9d772d3464813959fd7,2022-06-29_10h07.24.761,Colour_Asymmetry_Pilot,2022.1.3,Win32,20.00080003,62bbe60bf3d75ef465d3e404,,,,,,,,,,,,,,,,,,,,,,,,,,,,,,,,,,,,,,,,,,,,,,,,,,,,,,,,,,,,,,,,,,,,,,,,,,,,,,,,,,,,,,,,,,,,,,,,,,,,,,,,,,,,,,,,,,,,,,,,,,,,,,,,,,,,,,,,,,,,,,,,,,,,,,,,,,,,,,
0,85,85,5,1,,5f857edcc4d42502bec40821,62bbf9d772d3464813959fd7,2022-06-29_10h07.24.761,Colour_Asymmetry_Pilot,2022.1.3,Win32,20.00080003,62bbe60bf3d75ef465d3e404,,,,,,,,,,,,,,,,,,,,,,,,,,,,,,,,,,,,,,,,,,,,,,,,,,,,,,,,,,,,,,,,,,,,,,,,,,,,,,,,,,,,,,,,,,,,,,,,,,,,,,,,,,,,,,,,,,,,,,,,,,,,,,,,,,,,,,,,,,,,,,,,,,,,,,,,,,,,,,
0,86,86,84,1,,5f857edcc4d42502bec40821,62bbf9d772d3464813959fd7,2022-06-29_10h07.24.761,Colour_Asymmetry_Pilot,2022.1.3,Win32,20.00080003,62bbe60bf3d75ef465d3e404,,,,,,,,,,,,,,,,,,,,,,,,,,,,,,,,,,,,,,,,,,,,,,,,,,,,,,,,,,,,,,,,,,,,,,,,,,,,,,,,,,,,,,,,,,,,,,,,,,,,,,,,,,,,,,,,,,,,,,,,,,,,,,,,,,,,,,,,,,,,,,,,,,,,,,,,,,,,,,
0,87,87,12,1,,5f857edcc4d42502bec40821,62bbf9d772d3464813959fd7,2022-06-29_10h07.24.761,Colour_Asymmetry_Pilot,2022.1.3,Win32,20.00080003,62bbe60bf3d75ef465d3e404,,,,,,,,,,,,,,,,,,,,,,,,,,,,,,,,,,,,,,,,,,,,,,,,,,,,,,,,,,,,,,,,,,,,,,,,,,,,,,,,,,,,,,,,,,,,,,,,,,,,,,,,,,,,,,,,,,,,,,,,,,,,,,,,,,,,,,,,,,,,,,,,,,,,,,,,,,,,,,
0,88,88,60,1,,5f857edcc4d42502bec40821,62bbf9d772d3464813959fd7,2022-06-29_10h07.24.761,Colour_Asymmetry_Pilot,2022.1.3,Win32,20.00080003,62bbe60bf3d75ef465d3e404,,,,,,,,,,,,,,,,,,,,,,,,,,,,,,,,,,,,,,,,,,,,,,,,,,,,,,,,,,,,,,,,,,,,,,,,,,,,,,,,,,,,,,,,,,,,,,,,,,,,,,,,,,,,,,,,,,,,,,,,,,,,,,,,,,,,,,,,,,,,,,,,,,,,,,,,,,,,,,
0,89,89,47,1,,5f857edcc4d42502bec40821,62bbf9d772d3464813959fd7,2022-06-29_10h07.24.761,Colour_Asymmetry_Pilot,2022.1.3,Win32,20.00080003,62bbe60bf3d75ef465d3e404,,,,,,,,,,,,,,,,,,,,,,,,,,,,,,,,,,,,,,,,,,,,,,,,,,,,,,,,,,,,,,,,,,,,,,,,,,,,,,,,,,,,,,,,,,,,,,,,,,,,,,,,,,,,,,,,,,,,,,,,,,,,,,,,,,,,,,,,,,,,,,,,,,,,,,,,,,,,,,
0,90,90,26,1,,5f857edcc4d42502bec40821,62bbf9d772d3464813959fd7,2022-06-29_10h07.24.761,Colour_Asymmetry_Pilot,2022.1.3,Win32,20.00080003,62bbe60bf3d75ef465d3e404,,,,,,,,,,,,,,,,,,,,,,,,,,,,,,,,,,,,,,,,,,,,,,,,,,,,,,,,,,,,,,,,,,,,,,,,,,,,,,,,,,,,,,,,,,,,,,,,,,,,,,,,,,,,,,,,,,,,,,,,,,,,,,,,,,,,,,,,,,,,,,,,,,,,,,,,,,,,,,
0,91,91,77,1,,5f857edcc4d42502bec40821,62bbf9d772d3464813959fd7,2022-06-29_10h07.24.761,Colour_Asymmetry_Pilot,2022.1.3,Win32,20.00080003,62bbe60bf3d75ef465d3e404,,,,,,,,,,,,,,,,,,,,,,,,,,,,,,,,,,,,,,,,,,,,,,,,,,,,,,,,,,,,,,,,,,,,,,,,,,,,,,,,,,,,,,,,,,,,,,,,,,,,,,,,,,,,,,,,,,,,,,,,,,,,,,,,,,,,,,,,,,,,,,,,,,,,,,,,,,,,,,
0,92,92,22,1,,5f857edcc4d42502bec40821,62bbf9d772d3464813959fd7,2022-06-29_10h07.24.761,Colour_Asymmetry_Pilot,2022.1.3,Win32,20.00080003,62bbe60bf3d75ef465d3e404,,,,,,,,,,,,,,,,,,,,,,,,,,,,,,,,,,,,,,,,,,,,,,,,,,,,,,,,,,,,,,,,,,,,,,,,,,,,,,,,,,,,,,,,,,,,,,,,,,,,,,,,,,,,,,,,,,,,,,,,,,,,,,,,,,,,,,,,,,,,,,,,,,,,,,,,,,,,,,
,,,,,,5f857edcc4d42502bec40821,62bbf9d772d3464813959fd7,2022-06-29_10h07.24.761,Colour_Asymmetry_Pilot,2022.1.3,Win32,20.00080003,62bbe60bf3d75ef465d3e404,0,0,0,161,1,onethree,,,,,,,,,,,,,,,,,,,,,,,,,,,,,,,,,,,,,,,,,,,,,,,,,,,,,,,,,,,,,,,,,,,,,,,,,,,,,,,,,,,,,,,,,,,,,,,,,,,,,,,,,,,,,,,,,,,,,,,,,,,,,,,,,,,,,,,,,,,,,,,,,,,,,,,,
,,,,,,5f857edcc4d42502bec40821,62bbf9d772d3464813959fd7,2022-06-29_10h07.24.761,Colour_Asymmetry_Pilot,2022.1.3,Win32,20.00080003,62bbe60bf3d75ef465d3e404,0,1,1,42,1,twoone,,,,,,,,,,,,,,,,,,,,,,,,,,,,,,,,,,,,,,,,,,,,,,,,,,,,,,,,,,,,,,,,,,,,,,,,,,,,,,,,,,,,,,,,,,,,,,,,,,,,,,,,,,,,,,,,,,,,,,,,,,,,,,,,,,,,,,,,,,,,,,,,,,,,,,,,
,,,,,,5f857edcc4d42502bec40821,62bbf9d772d3464813959fd7,2022-06-29_10h07.24.761,Colour_Asymmetry_Pilot,2022.1.3,Win32,20.00080003,62bbe60bf3d75ef465d3e404,0,2,2,23,1,fourthree,,,,,,,,,,,,,,,,,,,,,,,,,,,,,,,,,,,,,,,,,,,,,,,,,,,,,,,,,,,,,,,,,,,,,,,,,,,,,,,,,,,,,,,,,,,,,,,,,,,,,,,,,,,,,,,,,,,,,,,,,,,,,,,,,,,,,,,,,,,,,,,,,,,,,,,,
,,,,,,5f857edcc4d42502bec40821,62bbf9d772d3464813959fd7,2022-06-29_10h07.24.761,Colour_Asymmetry_Pilot,2022.1.3,Win32,20.00080003,62bbe60bf3d75ef465d3e404,0,3,3,41,1,onethree,,,,,,,,,,,,,,,,,,,,,,,,,,,,,,,,,,,,,,,,,,,,,,,,,,,,,,,,,,,,,,,,,,,,,,,,,,,,,,,,,,,,,,,,,,,,,,,,,,,,,,,,,,,,,,,,,,,,,,,,,,,,,,,,,,,,,,,,,,,,,,,,,,,,,,,,
,,,,,,5f857edcc4d42502bec40821,62bbf9d772d3464813959fd7,2022-06-29_10h07.24.761,Colour_Asymmetry_Pilot,2022.1.3,Win32,20.00080003,62bbe60bf3d75ef465d3e404,0,4,4,73,1,onethree,,,,,,,,,,,,,,,,,,,,,,,,,,,,,,,,,,,,,,,,,,,,,,,,,,,,,,,,,,,,,,,,,,,,,,,,,,,,,,,,,,,,,,,,,,,,,,,,,,,,,,,,,,,,,,,,,,,,,,,,,,,,,,,,,,,,,,,,,,,,,,,,,,,,,,,,
,,,,,,5f857edcc4d42502bec40821,62bbf9d772d3464813959fd7,2022-06-29_10h07.24.761,Colour_Asymmetry_Pilot,2022.1.3,Win32,20.00080003,62bbe60bf3d75ef465d3e404,0,5,5,0,1,onetwo,,,,,,,,,,,,,,,,,,,,,,,,,,,,,,,,,,,,,,,,,,,,,,,,,,,,,,,,,,,,,,,,,,,,,,,,,,,,,,,,,,,,,,,,,,,,,,,,,,,,,,,,,,,,,,,,,,,,,,,,,,,,,,,,,,,,,,,,,,,,,,,,,,,,,,,,
,,,,,,5f857edcc4d42502bec40821,62bbf9d772d3464813959fd7,2022-06-29_10h07.24.761,Colour_Asymmetry_Pilot,2022.1.3,Win32,20.00080003,62bbe60bf3d75ef465d3e404,0,6,6,49,1,onethree,,,,,,,,,,,,,,,,,,,,,,,,,,,,,,,,,,,,,,,,,,,,,,,,,,,,,,,,,,,,,,,,,,,,,,,,,,,,,,,,,,,,,,,,,,,,,,,,,,,,,,,,,,,,,,,,,,,,,,,,,,,,,,,,,,,,,,,,,,,,,,,,,,,,,,,,
,,,,,,5f857edcc4d42502bec40821,62bbf9d772d3464813959fd7,2022-06-29_10h07.24.761,Colour_Asymmetry_Pilot,2022.1.3,Win32,20.00080003,62bbe60bf3d75ef465d3e404,0,7,7,100,1,threeone,,,,,,,,,,,,,,,,,,,,,,,,,,,,,,,,,,,,,,,,,,,,,,,,,,,,,,,,,,,,,,,,,,,,,,,,,,,,,,,,,,,,,,,,,,,,,,,,,,,,,,,,,,,,,,,,,,,,,,,,,,,,,,,,,,,,,,,,,,,,,,,,,,,,,,,,
,,,,,,5f857edcc4d42502bec40821,62bbf9d772d3464813959fd7,2022-06-29_10h07.24.761,Colour_Asymmetry_Pilot,2022.1.3,Win32,20.00080003,62bbe60bf3d75ef465d3e404,0,8,8,95,1,fourthree,,,,,,,,,,,,,,,,,,,,,,,,,,,,,,,,,,,,,,,,,,,,,,,,,,,,,,,,,,,,,,,,,,,,,,,,,,,,,,,,,,,,,,,,,,,,,,,,,,,,,,,,,,,,,,,,,,,,,,,,,,,,,,,,,,,,,,,,,,,,,,,,,,,,,,,,
,,,,,,5f857edcc4d42502bec40821,62bbf9d772d3464813959fd7,2022-06-29_10h07.24.761,Colour_Asymmetry_Pilot,2022.1.3,Win32,20.00080003,62bbe60bf3d75ef465d3e404,0,9,9,126,1,fourtwo,,,,,,,,,,,,,,,,,,,,,,,,,,,,,,,,,,,,,,,,,,,,,,,,,,,,,,,,,,,,,,,,,,,,,,,,,,,,,,,,,,,,,,,,,,,,,,,,,,,,,,,,,,,,,,,,,,,,,,,,,,,,,,,,,,,,,,,,,,,,,,,,,,,,,,,,
,,,,,,5f857edcc4d42502bec40821,62bbf9d772d3464813959fd7,2022-06-29_10h07.24.761,Colour_Asymmetry_Pilot,2022.1.3,Win32,20.00080003,62bbe60bf3d75ef465d3e404,0,10,10,160,1,onetwo,,,,,,,,,,,,,,,,,,,,,,,,,,,,,,,,,,,,,,,,,,,,,,,,,,,,,,,,,,,,,,,,,,,,,,,,,,,,,,,,,,,,,,,,,,,,,,,,,,,,,,,,,,,,,,,,,,,,,,,,,,,,,,,,,,,,,,,,,,,,,,,,,,,,,,,,
,,,,,,5f857edcc4d42502bec40821,62bbf9d772d3464813959fd7,2022-06-29_10h07.24.761,Colour_Asymmetry_Pilot,2022.1.3,Win32,20.00080003,62bbe60bf3d75ef465d3e404,0,11,11,146,1,twoone,,,,,,,,,,,,,,,,,,,,,,,,,,,,,,,,,,,,,,,,,,,,,,,,,,,,,,,,,,,,,,,,,,,,,,,,,,,,,,,,,,,,,,,,,,,,,,,,,,,,,,,,,,,,,,,,,,,,,,,,,,,,,,,,,,,,,,,,,,,,,,,,,,,,,,,,
,,,,,,5f857edcc4d42502bec40821,62bbf9d772d3464813959fd7,2022-06-29_10h07.24.761,Colour_Asymmetry_Pilot,2022.1.3,Win32,20.00080003,62bbe60bf3d75ef465d3e404,0,12,12,28,1,threeone,,,,,,,,,,,,,,,,,,,,,,,,,,,,,,,,,,,,,,,,,,,,,,,,,,,,,,,,,,,,,,,,,,,,,,,,,,,,,,,,,,,,,,,,,,,,,,,,,,,,,,,,,,,,,,,,,,,,,,,,,,,,,,,,,,,,,,,,,,,,,,,,,,,,,,,,
,,,,,,5f857edcc4d42502bec40821,62bbf9d772d3464813959fd7,2022-06-29_10h07.24.761,Colour_Asymmetry_Pilot,2022.1.3,Win32,20.00080003,62bbe60bf3d75ef465d3e404,0,13,13,38,1,fourtwo,,,,,,,,,,,,,,,,,,,,,,,,,,,,,,,,,,,,,,,,,,,,,,,,,,,,,,,,,,,,,,,,,,,,,,,,,,,,,,,,,,,,,,,,,,,,,,,,,,,,,,,,,,,,,,,,,,,,,,,,,,,,,,,,,,,,,,,,,,,,,,,,,,,,,,,,
,,,,,,5f857edcc4d42502bec40821,62bbf9d772d3464813959fd7,2022-06-29_10h07.24.761,Colour_Asymmetry_Pilot,2022.1.3,Win32,20.00080003,62bbe60bf3d75ef465d3e404,0,14,14,148,1,threeone,,,,,,,,,,,,,,,,,,,,,,,,,,,,,,,,,,,,,,,,,,,,,,,,,,,,,,,,,,,,,,,,,,,,,,,,,,,,,,,,,,,,,,,,,,,,,,,,,,,,,,,,,,,,,,,,,,,,,,,,,,,,,,,,,,,,,,,,,,,,,,,,,,,,,,,,
,,,,,,5f857edcc4d42502bec40821,62bbf9d772d3464813959fd7,2022-06-29_10h07.24.761,Colour_Asymmetry_Pilot,2022.1.3,Win32,20.00080003,62bbe60bf3d75ef465d3e404,0,15,15,4,1,threeone,,,,,,,,,,,,,,,,,,,,,,,,,,,,,,,,,,,,,,,,,,,,,,,,,,,,,,,,,,,,,,,,,,,,,,,,,,,,,,,,,,,,,,,,,,,,,,,,,,,,,,,,,,,,,,,,,,,,,,,,,,,,,,,,,,,,,,,,,,,,,,,,,,,,,,,,
,,,,,,5f857edcc4d42502bec40821,62bbf9d772d3464813959fd7,2022-06-29_10h07.24.761,Colour_Asymmetry_Pilot,2022.1.3,Win32,20.00080003,62bbe60bf3d75ef465d3e404,0,16,16,157,1,threefour,,,,,,,,,,,,,,,,,,,,,,,,,,,,,,,,,,,,,,,,,,,,,,,,,,,,,,,,,,,,,,,,,,,,,,,,,,,,,,,,,,,,,,,,,,,,,,,,,,,,,,,,,,,,,,,,,,,,,,,,,,,,,,,,,,,,,,,,,,,,,,,,,,,,,,,,
,,,,,,5f857edcc4d42502bec40821,62bbf9d772d3464813959fd7,2022-06-29_10h07.24.761,Colour_Asymmetry_Pilot,2022.1.3,Win32,20.00080003,62bbe60bf3d75ef465d3e404,0,17,17,68,1,threeone,,,,,,,,,,,,,,,,,,,,,,,,,,,,,,,,,,,,,,,,,,,,,,,,,,,,,,,,,,,,,,,,,,,,,,,,,,,,,,,,,,,,,,,,,,,,,,,,,,,,,,,,,,,,,,,,,,,,,,,,,,,,,,,,,,,,,,,,,,,,,,,,,,,,,,,,
,,,,,,5f857edcc4d42502bec40821,62bbf9d772d3464813959fd7,2022-06-29_10h07.24.761,Colour_Asymmetry_Pilot,2022.1.3,Win32,20.00080003,62bbe60bf3d75ef465d3e404,0,18,18,135,1,fourthree,,,,,,,,,,,,,,,,,,,,,,,,,,,,,,,,,,,,,,,,,,,,,,,,,,,,,,,,,,,,,,,,,,,,,,,,,,,,,,,,,,,,,,,,,,,,,,,,,,,,,,,,,,,,,,,,,,,,,,,,,,,,,,,,,,,,,,,,,,,,,,,,,,,,,,,,
,,,,,,5f857edcc4d42502bec40821,62bbf9d772d3464813959fd7,2022-06-29_10h07.24.761,Colour_Asymmetry_Pilot,2022.1.3,Win32,20.00080003,62bbe60bf3d75ef465d3e404,0,19,19,65,1,onethree,,,,,,,,,,,,,,,,,,,,,,,,,,,,,,,,,,,,,,,,,,,,,,,,,,,,,,,,,,,,,,,,,,,,,,,,,,,,,,,,,,,,,,,,,,,,,,,,,,,,,,,,,,,,,,,,,,,,,,,,,,,,,,,,,,,,,,,,,,,,,,,,,,,,,,,,
,,,,,,5f857edcc4d42502bec40821,62bbf9d772d3464813959fd7,2022-06-29_10h07.24.761,Colour_Asymmetry_Pilot,2022.1.3,Win32,20.00080003,62bbe60bf3d75ef465d3e404,0,20,20,141,1,threefour,,,,,,,,,,,,,,,,,,,,,,,,,,,,,,,,,,,,,,,,,,,,,,,,,,,,,,,,,,,,,,,,,,,,,,,,,,,,,,,,,,,,,,,,,,,,,,,,,,,,,,,,,,,,,,,,,,,,,,,,,,,,,,,,,,,,,,,,,,,,,,,,,,,,,,,,
,,,,,,5f857edcc4d42502bec40821,62bbf9d772d3464813959fd7,2022-06-29_10h07.24.761,Colour_Asymmetry_Pilot,2022.1.3,Win32,20.00080003,62bbe60bf3d75ef465d3e404,0,21,21,37,1,threefour,,,,,,,,,,,,,,,,,,,,,,,,,,,,,,,,,,,,,,,,,,,,,,,,,,,,,,,,,,,,,,,,,,,,,,,,,,,,,,,,,,,,,,,,,,,,,,,,,,,,,,,,,,,,,,,,,,,,,,,,,,,,,,,,,,,,,,,,,,,,,,,,,,,,,,,,
,,,,,,5f857edcc4d42502bec40821,62bbf9d772d3464813959fd7,2022-06-29_10h07.24.761,Colour_Asymmetry_Pilot,2022.1.3,Win32,20.00080003,62bbe60bf3d75ef465d3e404,0,22,22,18,1,twoone,,,,,,,,,,,,,,,,,,,,,,,,,,,,,,,,,,,,,,,,,,,,,,,,,,,,,,,,,,,,,,,,,,,,,,,,,,,,,,,,,,,,,,,,,,,,,,,,,,,,,,,,,,,,,,,,,,,,,,,,,,,,,,,,,,,,,,,,,,,,,,,,,,,,,,,,
,,,,,,5f857edcc4d42502bec40821,62bbf9d772d3464813959fd7,2022-06-29_10h07.24.761,Colour_Asymmetry_Pilot,2022.1.3,Win32,20.00080003,62bbe60bf3d75ef465d3e404,0,23,23,82,1,twoone,,,,,,,,,,,,,,,,,,,,,,,,,,,,,,,,,,,,,,,,,,,,,,,,,,,,,,,,,,,,,,,,,,,,,,,,,,,,,,,,,,,,,,,,,,,,,,,,,,,,,,,,,,,,,,,,,,,,,,,,,,,,,,,,,,,,,,,,,,,,,,,,,,,,,,,,
,,,,,,5f857edcc4d42502bec40821,62bbf9d772d3464813959fd7,2022-06-29_10h07.24.761,Colour_Asymmetry_Pilot,2022.1.3,Win32,20.00080003,62bbe60bf3d75ef465d3e404,0,24,24,8,1,onetwo,,,,,,,,,,,,,,,,,,,,,,,,,,,,,,,,,,,,,,,,,,,,,,,,,,,,,,,,,,,,,,,,,,,,,,,,,,,,,,,,,,,,,,,,,,,,,,,,,,,,,,,,,,,,,,,,,,,,,,,,,,,,,,,,,,,,,,,,,,,,,,,,,,,,,,,,
,,,,,,5f857edcc4d42502bec40821,62bbf9d772d3464813959fd7,2022-06-29_10h07.24.761,Colour_Asymmetry_Pilot,2022.1.3,Win32,20.00080003,62bbe60bf3d75ef465d3e404,0,25,25,119,1,fourthree,,,,,,,,,,,,,,,,,,,,,,,,,,,,,,,,,,,,,,,,,,,,,,,,,,,,,,,,,,,,,,,,,,,,,,,,,,,,,,,,,,,,,,,,,,,,,,,,,,,,,,,,,,,,,,,,,,,,,,,,,,,,,,,,,,,,,,,,,,,,,,,,,,,,,,,,
,,,,,,5f857edcc4d42502bec40821,62bbf9d772d3464813959fd7,2022-06-29_10h07.24.761,Colour_Asymmetry_Pilot,2022.1.3,Win32,20.00080003,62bbe60bf3d75ef465d3e404,0,26,26,32,1,onetwo,,,,,,,,,,,,,,,,,,,,,,,,,,,,,,,,,,,,,,,,,,,,,,,,,,,,,,,,,,,,,,,,,,,,,,,,,,,,,,,,,,,,,,,,,,,,,,,,,,,,,,,,,,,,,,,,,,,,,,,,,,,,,,,,,,,,,,,,,,,,,,,,,,,,,,,,
,,,,,,5f857edcc4d42502bec40821,62bbf9d772d3464813959fd7,2022-06-29_10h07.24.761,Colour_Asymmetry_Pilot,2022.1.3,Win32,20.00080003,62bbe60bf3d75ef465d3e404,0,27,27,107,1,twofour,,,,,,,,,,,,,,,,,,,,,,,,,,,,,,,,,,,,,,,,,,,,,,,,,,,,,,,,,,,,,,,,,,,,,,,,,,,,,,,,,,,,,,,,,,,,,,,,,,,,,,,,,,,,,,,,,,,,,,,,,,,,,,,,,,,,,,,,,,,,,,,,,,,,,,,,
,,,,,,5f857edcc4d42502bec40821,62bbf9d772d3464813959fd7,2022-06-29_10h07.24.761,Colour_Asymmetry_Pilot,2022.1.3,Win32,20.00080003,62bbe60bf3d75ef465d3e404,0,28,28,77,1,threefour,,,,,,,,,,,,,,,,,,,,,,,,,,,,,,,,,,,,,,,,,,,,,,,,,,,,,,,,,,,,,,,,,,,,,,,,,,,,,,,,,,,,,,,,,,,,,,,,,,,,,,,,,,,,,,,,,,,,,,,,,,,,,,,,,,,,,,,,,,,,,,,,,,,,,,,,
,,,,,,5f857edcc4d42502bec40821,62bbf9d772d3464813959fd7,2022-06-29_10h07.24.761,Colour_Asymmetry_Pilot,2022.1.3,Win32,20.00080003,62bbe60bf3d75ef465d3e404,0,29,29,85,1,threefour,,,,,,,,,,,,,,,,,,,,,,,,,,,,,,,,,,,,,,,,,,,,,,,,,,,,,,,,,,,,,,,,,,,,,,,,,,,,,,,,,,,,,,,,,,,,,,,,,,,,,,,,,,,,,,,,,,,,,,,,,,,,,,,,,,,,,,,,,,,,,,,,,,,,,,,,
,,,,,,5f857edcc4d42502bec40821,62bbf9d772d3464813959fd7,2022-06-29_10h07.24.761,Colour_Asymmetry_Pilot,2022.1.3,Win32,20.00080003,62bbe60bf3d75ef465d3e404,0,30,30,44,1,threeone,,,,,,,,,,,,,,,,,,,,,,,,,,,,,,,,,,,,,,,,,,,,,,,,,,,,,,,,,,,,,,,,,,,,,,,,,,,,,,,,,,,,,,,,,,,,,,,,,,,,,,,,,,,,,,,,,,,,,,,,,,,,,,,,,,,,,,,,,,,,,,,,,,,,,,,,
,,,,,,5f857edcc4d42502bec40821,62bbf9d772d3464813959fd7,2022-06-29_10h07.24.761,Colour_Asymmetry_Pilot,2022.1.3,Win32,20.00080003,62bbe60bf3d75ef465d3e404,0,31,31,155,1,twofour,,,,,,,,,,,,,,,,,,,,,,,,,,,,,,,,,,,,,,,,,,,,,,,,,,,,,,,,,,,,,,,,,,,,,,,,,,,,,,,,,,,,,,,,,,,,,,,,,,,,,,,,,,,,,,,,,,,,,,,,,,,,,,,,,,,,,,,,,,,,,,,,,,,,,,,,
,,,,,,5f857edcc4d42502bec40821,62bbf9d772d3464813959fd7,2022-06-29_10h07.24.761,Colour_Asymmetry_Pilot,2022.1.3,Win32,20.00080003,62bbe60bf3d75ef465d3e404,0,32,32,61,1,threefour,,,,,,,,,,,,,,,,,,,,,,,,,,,,,,,,,,,,,,,,,,,,,,,,,,,,,,,,,,,,,,,,,,,,,,,,,,,,,,,,,,,,,,,,,,,,,,,,,,,,,,,,,,,,,,,,,,,,,,,,,,,,,,,,,,,,,,,,,,,,,,,,,,,,,,,,
,,,,,,5f857edcc4d42502bec40821,62bbf9d772d3464813959fd7,2022-06-29_10h07.24.761,Colour_Asymmetry_Pilot,2022.1.3,Win32,20.00080003,62bbe60bf3d75ef465d3e404,0,33,33,55,1,fourthree,,,,,,,,,,,,,,,,,,,,,,,,,,,,,,,,,,,,,,,,,,,,,,,,,,,,,,,,,,,,,,,,,,,,,,,,,,,,,,,,,,,,,,,,,,,,,,,,,,,,,,,,,,,,,,,,,,,,,,,,,,,,,,,,,,,,,,,,,,,,,,,,,,,,,,,,
,,,,,,5f857edcc4d42502bec40821,62bbf9d772d3464813959fd7,2022-06-29_10h07.24.761,Colour_Asymmetry_Pilot,2022.1.3,Win32,20.00080003,62bbe60bf3d75ef465d3e404,0,34,34,16,1,onetwo,,,,,,,,,,,,,,,,,,,,,,,,,,,,,,,,,,,,,,,,,,,,,,,,,,,,,,,,,,,,,,,,,,,,,,,,,,,,,,,,,,,,,,,,,,,,,,,,,,,,,,,,,,,,,,,,,,,,,,,,,,,,,,,,,,,,,,,,,,,,,,,,,,,,,,,,
,,,,,,5f857edcc4d42502bec40821,62bbf9d772d3464813959fd7,2022-06-29_10h07.24.761,Colour_Asymmetry_Pilot,2022.1.3,Win32,20.00080003,62bbe60bf3d75ef465d3e404,0,35,35,144,1,onetwo,,,,,,,,,,,,,,,,,,,,,,,,,,,,,,,,,,,,,,,,,,,,,,,,,,,,,,,,,,,,,,,,,,,,,,,,,,,,,,,,,,,,,,,,,,,,,,,,,,,,,,,,,,,,,,,,,,,,,,,,,,,,,,,,,,,,,,,,,,,,,,,,,,,,,,,,
,,,,,,5f857edcc4d42502bec40821,62bbf9d772d3464813959fd7,2022-06-29_10h07.24.761,Colour_Asymmetry_Pilot,2022.1.3,Win32,20.00080003,62bbe60bf3d75ef465d3e404,0,36,36,127,1,fourthree,,,,,,,,,,,,,,,,,,,,,,,,,,,,,,,,,,,,,,,,,,,,,,,,,,,,,,,,,,,,,,,,,,,,,,,,,,,,,,,,,,,,,,,,,,,,,,,,,,,,,,,,,,,,,,,,,,,,,,,,,,,,,,,,,,,,,,,,,,,,,,,,,,,,,,,,
,,,,,,5f857edcc4d42502bec40821,62bbf9d772d3464813959fd7,2022-06-29_10h07.24.761,Colour_Asymmetry_Pilot,2022.1.3,Win32,20.00080003,62bbe60bf3d75ef465d3e404,0,37,37,43,1,twofour,,,,,,,,,,,,,,,,,,,,,,,,,,,,,,,,,,,,,,,,,,,,,,,,,,,,,,,,,,,,,,,,,,,,,,,,,,,,,,,,,,,,,,,,,,,,,,,,,,,,,,,,,,,,,,,,,,,,,,,,,,,,,,,,,,,,,,,,,,,,,,,,,,,,,,,,
,,,,,,5f857edcc4d42502bec40821,62bbf9d772d3464813959fd7,2022-06-29_10h07.24.761,Colour_Asymmetry_Pilot,2022.1.3,Win32,20.00080003,62bbe60bf3d75ef465d3e404,0,38,38,136,1,onetwo,,,,,,,,,,,,,,,,,,,,,,,,,,,,,,,,,,,,,,,,,,,,,,,,,,,,,,,,,,,,,,,,,,,,,,,,,,,,,,,,,,,,,,,,,,,,,,,,,,,,,,,,,,,,,,,,,,,,,,,,,,,,,,,,,,,,,,,,,,,,,,,,,,,,,,,,
,,,,,,5f857edcc4d42502bec40821,62bbf9d772d3464813959fd7,2022-06-29_10h07.24.761,Colour_Asymmetry_Pilot,2022.1.3,Win32,20.00080003,62bbe60bf3d75ef465d3e404,0,39,39,50,1,twoone,,,,,,,,,,,,,,,,,,,,,,,,,,,,,,,,,,,,,,,,,,,,,,,,,,,,,,,,,,,,,,,,,,,,,,,,,,,,,,,,,,,,,,,,,,,,,,,,,,,,,,,,,,,,,,,,,,,,,,,,,,,,,,,,,,,,,,,,,,,,,,,,,,,,,,,,
,,,,,,5f857edcc4d42502bec40821,62bbf9d772d3464813959fd7,2022-06-29_10h07.24.761,Colour_Asymmetry_Pilot,2022.1.3,Win32,20.00080003,62bbe60bf3d75ef465d3e404,0,40,40,104,1,onetwo,,,,,,,,,,,,,,,,,,,,,,,,,,,,,,,,,,,,,,,,,,,,,,,,,,,,,,,,,,,,,,,,,,,,,,,,,,,,,,,,,,,,,,,,,,,,,,,,,,,,,,,,,,,,,,,,,,,,,,,,,,,,,,,,,,,,,,,,,,,,,,,,,,,,,,,,
,,,,,,5f857edcc4d42502bec40821,62bbf9d772d3464813959fd7,2022-06-29_10h07.24.761,Colour_Asymmetry_Pilot,2022.1.3,Win32,20.00080003,62bbe60bf3d75ef465d3e404,0,41,41,62,1,fourtwo,,,,,,,,,,,,,,,,,,,,,,,,,,,,,,,,,,,,,,,,,,,,,,,,,,,,,,,,,,,,,,,,,,,,,,,,,,,,,,,,,,,,,,,,,,,,,,,,,,,,,,,,,,,,,,,,,,,,,,,,,,,,,,,,,,,,,,,,,,,,,,,,,,,,,,,,
,,,,,,5f857edcc4d42502bec40821,62bbf9d772d3464813959fd7,2022-06-29_10h07.24.761,Colour_Asymmetry_Pilot,2022.1.3,Win32,20.00080003,62bbe60bf3d75ef465d3e404,0,42,42,156,1,threeone,,,,,,,,,,,,,,,,,,,,,,,,,,,,,,,,,,,,,,,,,,,,,,,,,,,,,,,,,,,,,,,,,,,,,,,,,,,,,,,,,,,,,,,,,,,,,,,,,,,,,,,,,,,,,,,,,,,,,,,,,,,,,,,,,,,,,,,,,,,,,,,,,,,,,,,,
,,,,,,5f857edcc4d42502bec40821,62bbf9d772d3464813959fd7,2022-06-29_10h07.24.761,Colour_Asymmetry_Pilot,2022.1.3,Win32,20.00080003,62bbe60bf3d75ef465d3e404,0,43,43,67,1,twofour,,,,,,,,,,,,,,,,,,,,,,,,,,,,,,,,,,,,,,,,,,,,,,,,,,,,,,,,,,,,,,,,,,,,,,,,,,,,,,,,,,,,,,,,,,,,,,,,,,,,,,,,,,,,,,,,,,,,,,,,,,,,,,,,,,,,,,,,,,,,,,,,,,,,,,,,
,,,,,,5f857edcc4d42502bec40821,62bbf9d772d3464813959fd7,2022-06-29_10h07.24.761,Colour_Asymmetry_Pilot,2022.1.3,Win32,20.00080003,62bbe60bf3d75ef465d3e404,0,44,44,31,1,fourthree,,,,,,,,,,,,,,,,,,,,,,,,,,,,,,,,,,,,,,,,,,,,,,,,,,,,,,,,,,,,,,,,,,,,,,,,,,,,,,,,,,,,,,,,,,,,,,,,,,,,,,,,,,,,,,,,,,,,,,,,,,,,,,,,,,,,,,,,,,,,,,,,,,,,,,,,
,,,,,,5f857edcc4d42502bec40821,62bbf9d772d3464813959fd7,2022-06-29_10h07.24.761,Colour_Asymmetry_Pilot,2022.1.3,Win32,20.00080003,62bbe60bf3d75ef465d3e404,0,45,45,15,1,fourthree,,,,,,,,,,,,,,,,,,,,,,,,,,,,,,,,,,,,,,,,,,,,,,,,,,,,,,,,,,,,,,,,,,,,,,,,,,,,,,,,,,,,,,,,,,,,,,,,,,,,,,,,,,,,,,,,,,,,,,,,,,,,,,,,,,,,,,,,,,,,,,,,,,,,,,,,
,,,,,,5f857edcc4d42502bec40821,62bbf9d772d3464813959fd7,2022-06-29_10h07.24.761,Colour_Asymmetry_Pilot,2022.1.3,Win32,20.00080003,62bbe60bf3d75ef465d3e404,0,46,46,158,1,fourtwo,,,,,,,,,,,,,,,,,,,,,,,,,,,,,,,,,,,,,,,,,,,,,,,,,,,,,,,,,,,,,,,,,,,,,,,,,,,,,,,,,,,,,,,,,,,,,,,,,,,,,,,,,,,,,,,,,,,,,,,,,,,,,,,,,,,,,,,,,,,,,,,,,,,,,,,,
,,,,,,5f857edcc4d42502bec40821,62bbf9d772d3464813959fd7,2022-06-29_10h07.24.761,Colour_Asymmetry_Pilot,2022.1.3,Win32,20.00080003,62bbe60bf3d75ef465d3e404,0,47,47,132,1,threeone,,,,,,,,,,,,,,,,,,,,,,,,,,,,,,,,,,,,,,,,,,,,,,,,,,,,,,,,,,,,,,,,,,,,,,,,,,,,,,,,,,,,,,,,,,,,,,,,,,,,,,,,,,,,,,,,,,,,,,,,,,,,,,,,,,,,,,,,,,,,,,,,,,,,,,,,
,,,,,,5f857edcc4d42502bec40821,62bbf9d772d3464813959fd7,2022-06-29_10h07.24.761,Colour_Asymmetry_Pilot,2022.1.3,Win32,20.00080003,62bbe60bf3d75ef465d3e404,0,48,48,96,1,onetwo,,,,,,,,,,,,,,,,,,,,,,,,,,,,,,,,,,,,,,,,,,,,,,,,,,,,,,,,,,,,,,,,,,,,,,,,,,,,,,,,,,,,,,,,,,,,,,,,,,,,,,,,,,,,,,,,,,,,,,,,,,,,,,,,,,,,,,,,,,,,,,,,,,,,,,,,
,,,,,,5f857edcc4d42502bec40821,62bbf9d772d3464813959fd7,2022-06-29_10h07.24.761,Colour_Asymmetry_Pilot,2022.1.3,Win32,20.00080003,62bbe60bf3d75ef465d3e404,0,49,49,79,1,fourthree,,,,,,,,,,,,,,,,,,,,,,,,,,,,,,,,,,,,,,,,,,,,,,,,,,,,,,,,,,,,,,,,,,,,,,,,,,,,,,,,,,,,,,,,,,,,,,,,,,,,,,,,,,,,,,,,,,,,,,,,,,,,,,,,,,,,,,,,,,,,,,,,,,,,,,,,
,,,,,,5f857edcc4d42502bec40821,62bbf9d772d3464813959fd7,2022-06-29_10h07.24.761,Colour_Asymmetry_Pilot,2022.1.3,Win32,20.00080003,62bbe60bf3d75ef465d3e404,0,50,50,86,1,fourtwo,,,,,,,,,,,,,,,,,,,,,,,,,,,,,,,,,,,,,,,,,,,,,,,,,,,,,,,,,,,,,,,,,,,,,,,,,,,,,,,,,,,,,,,,,,,,,,,,,,,,,,,,,,,,,,,,,,,,,,,,,,,,,,,,,,,,,,,,,,,,,,,,,,,,,,,,
,,,,,,5f857edcc4d42502bec40821,62bbf9d772d3464813959fd7,2022-06-29_10h07.24.761,Colour_Asymmetry_Pilot,2022.1.3,Win32,20.00080003,62bbe60bf3d75ef465d3e404,0,51,51,149,1,threefour,,,,,,,,,,,,,,,,,,,,,,,,,,,,,,,,,,,,,,,,,,,,,,,,,,,,,,,,,,,,,,,,,,,,,,,,,,,,,,,,,,,,,,,,,,,,,,,,,,,,,,,,,,,,,,,,,,,,,,,,,,,,,,,,,,,,,,,,,,,,,,,,,,,,,,,,
,,,,,,5f857edcc4d42502bec40821,62bbf9d772d3464813959fd7,2022-06-29_10h07.24.761,Colour_Asymmetry_Pilot,2022.1.3,Win32,20.00080003,62bbe60bf3d75ef465d3e404,0,52,52,39,1,fourthree,,,,,,,,,,,,,,,,,,,,,,,,,,,,,,,,,,,,,,,,,,,,,,,,,,,,,,,,,,,,,,,,,,,,,,,,,,,,,,,,,,,,,,,,,,,,,,,,,,,,,,,,,,,,,,,,,,,,,,,,,,,,,,,,,,,,,,,,,,,,,,,,,,,,,,,,
,,,,,,5f857edcc4d42502bec40821,62bbf9d772d3464813959fd7,2022-06-29_10h07.24.761,Colour_Asymmetry_Pilot,2022.1.3,Win32,20.00080003,62bbe60bf3d75ef465d3e404,0,53,53,113,1,onethree,,,,,,,,,,,,,,,,,,,,,,,,,,,,,,,,,,,,,,,,,,,,,,,,,,,,,,,,,,,,,,,,,,,,,,,,,,,,,,,,,,,,,,,,,,,,,,,,,,,,,,,,,,,,,,,,,,,,,,,,,,,,,,,,,,,,,,,,,,,,,,,,,,,,,,,,
,,,,,,5f857edcc4d42502bec40821,62bbf9d772d3464813959fd7,2022-06-29_10h07.24.761,Colour_Asymmetry_Pilot,2022.1.3,Win32,20.00080003,62bbe60bf3d75ef465d3e404,0,54,54,20,1,threeone,,,,,,,,,,,,,,,,,,,,,,,,,,,,,,,,,,,,,,,,,,,,,,,,,,,,,,,,,,,,,,,,,,,,,,,,,,,,,,,,,,,,,,,,,,,,,,,,,,,,,,,,,,,,,,,,,,,,,,,,,,,,,,,,,,,,,,,,,,,,,,,,,,,,,,,,
,,,,,,5f857edcc4d42502bec40821,62bbf9d772d3464813959fd7,2022-06-29_10h07.24.761,Colour_Asymmetry_Pilot,2022.1.3,Win32,20.00080003,62bbe60bf3d75ef465d3e404,0,55,55,128,1,onetwo,,,,,,,,,,,,,,,,,,,,,,,,,,,,,,,,,,,,,,,,,,,,,,,,,,,,,,,,,,,,,,,,,,,,,,,,,,,,,,,,,,,,,,,,,,,,,,,,,,,,,,,,,,,,,,,,,,,,,,,,,,,,,,,,,,,,,,,,,,,,,,,,,,,,,,,,
,,,,,,5f857edcc4d42502bec40821,62bbf9d772d3464813959fd7,2022-06-29_10h07.24.761,Colour_Asymmetry_Pilot,2022.1.3,Win32,20.00080003,62bbe60bf3d75ef465d3e404,0,56,56,34,1,twoone,,,,,,,,,,,,,,,,,,,,,,,,,,,,,,,,,,,,,,,,,,,,,,,,,,,,,,,,,,,,,,,,,,,,,,,,,,,,,,,,,,,,,,,,,,,,,,,,,,,,,,,,,,,,,,,,,,,,,,,,,,,,,,,,,,,,,,,,,,,,,,,,,,,,,,,,
,,,,,,5f857edcc4d42502bec40821,62bbf9d772d3464813959fd7,2022-06-29_10h07.24.761,Colour_Asymmetry_Pilot,2022.1.3,Win32,20.00080003,62bbe60bf3d75ef465d3e404,0,57,57,66,1,twoone,,,,,,,,,,,,,,,,,,,,,,,,,,,,,,,,,,,,,,,,,,,,,,,,,,,,,,,,,,,,,,,,,,,,,,,,,,,,,,,,,,,,,,,,,,,,,,,,,,,,,,,,,,,,,,,,,,,,,,,,,,,,,,,,,,,,,,,,,,,,,,,,,,,,,,,,
,,,,,,5f857edcc4d42502bec40821,62bbf9d772d3464813959fd7,2022-06-29_10h07.24.761,Colour_Asymmetry_Pilot,2022.1.3,Win32,20.00080003,62bbe60bf3d75ef465d3e404,0,58,58,116,1,threeone,,,,,,,,,,,,,,,,,,,,,,,,,,,,,,,,,,,,,,,,,,,,,,,,,,,,,,,,,,,,,,,,,,,,,,,,,,,,,,,,,,,,,,,,,,,,,,,,,,,,,,,,,,,,,,,,,,,,,,,,,,,,,,,,,,,,,,,,,,,,,,,,,,,,,,,,
,,,,,,5f857edcc4d42502bec40821,62bbf9d772d3464813959fd7,2022-06-29_10h07.24.761,Colour_Asymmetry_Pilot,2022.1.3,Win32,20.00080003,62bbe60bf3d75ef465d3e404,0,59,59,90,1,twoone,,,,,,,,,,,,,,,,,,,,,,,,,,,,,,,,,,,,,,,,,,,,,,,,,,,,,,,,,,,,,,,,,,,,,,,,,,,,,,,,,,,,,,,,,,,,,,,,,,,,,,,,,,,,,,,,,,,,,,,,,,,,,,,,,,,,,,,,,,,,,,,,,,,,,,,,
,,,,,,5f857edcc4d42502bec40821,62bbf9d772d3464813959fd7,2022-06-29_10h07.24.761,Colour_Asymmetry_Pilot,2022.1.3,Win32,20.00080003,62bbe60bf3d75ef465d3e404,0,60,60,9,1,onethree,,,,,,,,,,,,,,,,,,,,,,,,,,,,,,,,,,,,,,,,,,,,,,,,,,,,,,,,,,,,,,,,,,,,,,,,,,,,,,,,,,,,,,,,,,,,,,,,,,,,,,,,,,,,,,,,,,,,,,,,,,,,,,,,,,,,,,,,,,,,,,,,,,,,,,,,
,,,,,,5f857edcc4d42502bec40821,62bbf9d772d3464813959fd7,2022-06-29_10h07.24.761,Colour_Asymmetry_Pilot,2022.1.3,Win32,20.00080003,62bbe60bf3d75ef465d3e404,0,61,61,11,1,twofour,,,,,,,,,,,,,,,,,,,,,,,,,,,,,,,,,,,,,,,,,,,,,,,,,,,,,,,,,,,,,,,,,,,,,,,,,,,,,,,,,,,,,,,,,,,,,,,,,,,,,,,,,,,,,,,,,,,,,,,,,,,,,,,,,,,,,,,,,,,,,,,,,,,,,,,,
,,,,,,5f857edcc4d42502bec40821,62bbf9d772d3464813959fd7,2022-06-29_10h07.24.761,Colour_Asymmetry_Pilot,2022.1.3,Win32,20.00080003,62bbe60bf3d75ef465d3e404,0,62,62,72,1,onetwo,,,,,,,,,,,,,,,,,,,,,,,,,,,,,,,,,,,,,,,,,,,,,,,,,,,,,,,,,,,,,,,,,,,,,,,,,,,,,,,,,,,,,,,,,,,,,,,,,,,,,,,,,,,,,,,,,,,,,,,,,,,,,,,,,,,,,,,,,,,,,,,,,,,,,,,,
,,,,,,5f857edcc4d42502bec40821,62bbf9d772d3464813959fd7,2022-06-29_10h07.24.761,Colour_Asymmetry_Pilot,2022.1.3,Win32,20.00080003,62bbe60bf3d75ef465d3e404,0,63,63,93,1,threefour,,,,,,,,,,,,,,,,,,,,,,,,,,,,,,,,,,,,,,,,,,,,,,,,,,,,,,,,,,,,,,,,,,,,,,,,,,,,,,,,,,,,,,,,,,,,,,,,,,,,,,,,,,,,,,,,,,,,,,,,,,,,,,,,,,,,,,,,,,,,,,,,,,,,,,,,
,,,,,,5f857edcc4d42502bec40821,62bbf9d772d3464813959fd7,2022-06-29_10h07.24.761,Colour_Asymmetry_Pilot,2022.1.3,Win32,20.00080003,62bbe60bf3d75ef465d3e404,0,64,64,51,1,twofour,,,,,,,,,,,,,,,,,,,,,,,,,,,,,,,,,,,,,,,,,,,,,,,,,,,,,,,,,,,,,,,,,,,,,,,,,,,,,,,,,,,,,,,,,,,,,,,,,,,,,,,,,,,,,,,,,,,,,,,,,,,,,,,,,,,,,,,,,,,,,,,,,,,,,,,,
,,,,,,5f857edcc4d42502bec40821,62bbf9d772d3464813959fd7,2022-06-29_10h07.24.761,Colour_Asymmetry_Pilot,2022.1.3,Win32,20.00080003,62bbe60bf3d75ef465d3e404,0,65,65,138,1,twoone,,,,,,,,,,,,,,,,,,,,,,,,,,,,,,,,,,,,,,,,,,,,,,,,,,,,,,,,,,,,,,,,,,,,,,,,,,,,,,,,,,,,,,,,,,,,,,,,,,,,,,,,,,,,,,,,,,,,,,,,,,,,,,,,,,,,,,,,,,,,,,,,,,,,,,,,
,,,,,,5f857edcc4d42502bec40821,62bbf9d772d3464813959fd7,2022-06-29_10h07.24.761,Colour_Asymmetry_Pilot,2022.1.3,Win32,20.00080003,62bbe60bf3d75ef465d3e404,0,66,66,7,1,fourthree,,,,,,,,,,,,,,,,,,,,,,,,,,,,,,,,,,,,,,,,,,,,,,,,,,,,,,,,,,,,,,,,,,,,,,,,,,,,,,,,,,,,,,,,,,,,,,,,,,,,,,,,,,,,,,,,,,,,,,,,,,,,,,,,,,,,,,,,,,,,,,,,,,,,,,,,
,,,,,,5f857edcc4d42502bec40821,62bbf9d772d3464813959fd7,2022-06-29_10h07.24.761,Colour_Asymmetry_Pilot,2022.1.3,Win32,20.00080003,62bbe60bf3d75ef465d3e404,0,67,67,57,1,onethree,,,,,,,,,,,,,,,,,,,,,,,,,,,,,,,,,,,,,,,,,,,,,,,,,,,,,,,,,,,,,,,,,,,,,,,,,,,,,,,,,,,,,,,,,,,,,,,,,,,,,,,,,,,,,,,,,,,,,,,,,,,,,,,,,,,,,,,,,,,,,,,,,,,,,,,,
,,,,,,5f857edcc4d42502bec40821,62bbf9d772d3464813959fd7,2022-06-29_10h07.24.761,Colour_Asymmetry_Pilot,2022.1.3,Win32,20.00080003,62bbe60bf3d75ef465d3e404,0,68,68,106,1,twoone,,,,,,,,,,,,,,,,,,,,,,,,,,,,,,,,,,,,,,,,,,,,,,,,,,,,,,,,,,,,,,,,,,,,,,,,,,,,,,,,,,,,,,,,,,,,,,,,,,,,,,,,,,,,,,,,,,,,,,,,,,,,,,,,,,,,,,,,,,,,,,,,,,,,,,,,
,,,,,,5f857edcc4d42502bec40821,62bbf9d772d3464813959fd7,2022-06-29_10h07.24.761,Colour_Asymmetry_Pilot,2022.1.3,Win32,20.00080003,62bbe60bf3d75ef465d3e404,0,69,69,117,1,threefour,,,,,,,,,,,,,,,,,,,,,,,,,,,,,,,,,,,,,,,,,,,,,,,,,,,,,,,,,,,,,,,,,,,,,,,,,,,,,,,,,,,,,,,,,,,,,,,,,,,,,,,,,,,,,,,,,,,,,,,,,,,,,,,,,,,,,,,,,,,,,,,,,,,,,,,,
,,,,,,5f857edcc4d42502bec40821,62bbf9d772d3464813959fd7,2022-06-29_10h07.24.761,Colour_Asymmetry_Pilot,2022.1.3,Win32,20.00080003,62bbe60bf3d75ef465d3e404,0,70,70,105,1,onethree,,,,,,,,,,,,,,,,,,,,,,,,,,,,,,,,,,,,,,,,,,,,,,,,,,,,,,,,,,,,,,,,,,,,,,,,,,,,,,,,,,,,,,,,,,,,,,,,,,,,,,,,,,,,,,,,,,,,,,,,,,,,,,,,,,,,,,,,,,,,,,,,,,,,,,,,
,,,,,,5f857edcc4d42502bec40821,62bbf9d772d3464813959fd7,2022-06-29_10h07.24.761,Colour_Asymmetry_Pilot,2022.1.3,Win32,20.00080003,62bbe60bf3d75ef465d3e404,0,71,71,48,1,onetwo,,,,,,,,,,,,,,,,,,,,,,,,,,,,,,,,,,,,,,,,,,,,,,,,,,,,,,,,,,,,,,,,,,,,,,,,,,,,,,,,,,,,,,,,,,,,,,,,,,,,,,,,,,,,,,,,,,,,,,,,,,,,,,,,,,,,,,,,,,,,,,,,,,,,,,,,
,,,,,,5f857edcc4d42502bec40821,62bbf9d772d3464813959fd7,2022-06-29_10h07.24.761,Colour_Asymmetry_Pilot,2022.1.3,Win32,20.00080003,62bbe60bf3d75ef465d3e404,0,72,72,137,1,onethree,,,,,,,,,,,,,,,,,,,,,,,,,,,,,,,,,,,,,,,,,,,,,,,,,,,,,,,,,,,,,,,,,,,,,,,,,,,,,,,,,,,,,,,,,,,,,,,,,,,,,,,,,,,,,,,,,,,,,,,,,,,,,,,,,,,,,,,,,,,,,,,,,,,,,,,,
,,,,,,5f857edcc4d42502bec40821,62bbf9d772d3464813959fd7,2022-06-29_10h07.24.761,Colour_Asymmetry_Pilot,2022.1.3,Win32,20.00080003,62bbe60bf3d75ef465d3e404,0,73,73,10,1,twoone,,,,,,,,,,,,,,,,,,,,,,,,,,,,,,,,,,,,,,,,,,,,,,,,,,,,,,,,,,,,,,,,,,,,,,,,,,,,,,,,,,,,,,,,,,,,,,,,,,,,,,,,,,,,,,,,,,,,,,,,,,,,,,,,,,,,,,,,,,,,,,,,,,,,,,,,
,,,,,,5f857edcc4d42502bec40821,62bbf9d772d3464813959fd7,2022-06-29_10h07.24.761,Colour_Asymmetry_Pilot,2022.1.3,Win32,20.00080003,62bbe60bf3d75ef465d3e404,0,74,74,78,1,fourtwo,,,,,,,,,,,,,,,,,,,,,,,,,,,,,,,,,,,,,,,,,,,,,,,,,,,,,,,,,,,,,,,,,,,,,,,,,,,,,,,,,,,,,,,,,,,,,,,,,,,,,,,,,,,,,,,,,,,,,,,,,,,,,,,,,,,,,,,,,,,,,,,,,,,,,,,,
,,,,,,5f857edcc4d42502bec40821,62bbf9d772d3464813959fd7,2022-06-29_10h07.24.761,Colour_Asymmetry_Pilot,2022.1.3,Win32,20.00080003,62bbe60bf3d75ef465d3e404,0,75,75,124,1,threeone,,,,,,,,,,,,,,,,,,,,,,,,,,,,,,,,,,,,,,,,,,,,,,,,,,,,,,,,,,,,,,,,,,,,,,,,,,,,,,,,,,,,,,,,,,,,,,,,,,,,,,,,,,,,,,,,,,,,,,,,,,,,,,,,,,,,,,,,,,,,,,,,,,,,,,,,
,,,,,,5f857edcc4d42502bec40821,62bbf9d772d3464813959fd7,2022-06-29_10h07.24.761,Colour_Asymmetry_Pilot,2022.1.3,Win32,20.00080003,62bbe60bf3d75ef465d3e404,0,76,76,133,1,threefour,,,,,,,,,,,,,,,,,,,,,,,,,,,,,,,,,,,,,,,,,,,,,,,,,,,,,,,,,,,,,,,,,,,,,,,,,,,,,,,,,,,,,,,,,,,,,,,,,,,,,,,,,,,,,,,,,,,,,,,,,,,,,,,,,,,,,,,,,,,,,,,,,,,,,,,,
,,,,,,5f857edcc4d42502bec40821,62bbf9d772d3464813959fd7,2022-06-29_10h07.24.761,Colour_Asymmetry_Pilot,2022.1.3,Win32,20.00080003,62bbe60bf3d75ef465d3e404,0,77,77,131,1,twofour,,,,,,,,,,,,,,,,,,,,,,,,,,,,,,,,,,,,,,,,,,,,,,,,,,,,,,,,,,,,,,,,,,,,,,,,,,,,,,,,,,,,,,,,,,,,,,,,,,,,,,,,,,,,,,,,,,,,,,,,,,,,,,,,,,,,,,,,,,,,,,,,,,,,,,,,
,,,,,,5f857edcc4d42502bec40821,62bbf9d772d3464813959fd7,2022-06-29_10h07.24.761,Colour_Asymmetry_Pilot,2022.1.3,Win32,20.00080003,62bbe60bf3d75ef465d3e404,0,78,78,33,1,onethree,,,,,,,,,,,,,,,,,,,,,,,,,,,,,,,,,,,,,,,,,,,,,,,,,,,,,,,,,,,,,,,,,,,,,,,,,,,,,,,,,,,,,,,,,,,,,,,,,,,,,,,,,,,,,,,,,,,,,,,,,,,,,,,,,,,,,,,,,,,,,,,,,,,,,,,,
,,,,,,5f857edcc4d42502bec40821,62bbf9d772d3464813959fd7,2022-06-29_10h07.24.761,Colour_Asymmetry_Pilot,2022.1.3,Win32,20.00080003,62bbe60bf3d75ef465d3e404,0,79,79,3,1,twofour,,,,,,,,,,,,,,,,,,,,,,,,,,,,,,,,,,,,,,,,,,,,,,,,,,,,,,,,,,,,,,,,,,,,,,,,,,,,,,,,,,,,,,,,,,,,,,,,,,,,,,,,,,,,,,,,,,,,,,,,,,,,,,,,,,,,,,,,,,,,,,,,,,,,,,,,
,,,,,,5f857edcc4d42502bec40821,62bbf9d772d3464813959fd7,2022-06-29_10h07.24.761,Colour_Asymmetry_Pilot,2022.1.3,Win32,20.00080003,62bbe60bf3d75ef465d3e404,0,80,80,145,1,onethree,,,,,,,,,,,,,,,,,,,,,,,,,,,,,,,,,,,,,,,,,,,,,,,,,,,,,,,,,,,,,,,,,,,,,,,,,,,,,,,,,,,,,,,,,,,,,,,,,,,,,,,,,,,,,,,,,,,,,,,,,,,,,,,,,,,,,,,,,,,,,,,,,,,,,,,,
,,,,,,5f857edcc4d42502bec40821,62bbf9d772d3464813959fd7,2022-06-29_10h07.24.761,Colour_Asymmetry_Pilot,2022.1.3,Win32,20.00080003,62bbe60bf3d75ef465d3e404,0,81,81,140,1,threeone,,,,,,,,,,,,,,,,,,,,,,,,,,,,,,,,,,,,,,,,,,,,,,,,,,,,,,,,,,,,,,,,,,,,,,,,,,,,,,,,,,,,,,,,,,,,,,,,,,,,,,,,,,,,,,,,,,,,,,,,,,,,,,,,,,,,,,,,,,,,,,,,,,,,,,,,
,,,,,,5f857edcc4d42502bec40821,62bbf9d772d3464813959fd7,2022-06-29_10h07.24.761,Colour_Asymmetry_Pilot,2022.1.3,Win32,20.00080003,62bbe60bf3d75ef465d3e404,0,82,82,89,1,onethree,,,,,,,,,,,,,,,,,,,,,,,,,,,,,,,,,,,,,,,,,,,,,,,,,,,,,,,,,,,,,,,,,,,,,,,,,,,,,,,,,,,,,,,,,,,,,,,,,,,,,,,,,,,,,,,,,,,,,,,,,,,,,,,,,,,,,,,,,,,,,,,,,,,,,,,,
,,,,,,5f857edcc4d42502bec40821,62bbf9d772d3464813959fd7,2022-06-29_10h07.24.761,Colour_Asymmetry_Pilot,2022.1.3,Win32,20.00080003,62bbe60bf3d75ef465d3e404,0,83,83,13,1,threefour,,,,,,,,,,,,,,,,,,,,,,,,,,,,,,,,,,,,,,,,,,,,,,,,,,,,,,,,,,,,,,,,,,,,,,,,,,,,,,,,,,,,,,,,,,,,,,,,,,,,,,,,,,,,,,,,,,,,,,,,,,,,,,,,,,,,,,,,,,,,,,,,,,,,,,,,
,,,,,,5f857edcc4d42502bec40821,62bbf9d772d3464813959fd7,2022-06-29_10h07.24.761,Colour_Asymmetry_Pilot,2022.1.3,Win32,20.00080003,62bbe60bf3d75ef465d3e404,0,84,84,153,1,onethree,,,,,,,,,,,,,,,,,,,,,,,,,,,,,,,,,,,,,,,,,,,,,,,,,,,,,,,,,,,,,,,,,,,,,,,,,,,,,,,,,,,,,,,,,,,,,,,,,,,,,,,,,,,,,,,,,,,,,,,,,,,,,,,,,,,,,,,,,,,,,,,,,,,,,,,,
,,,,,,5f857edcc4d42502bec40821,62bbf9d772d3464813959fd7,2022-06-29_10h07.24.761,Colour_Asymmetry_Pilot,2022.1.3,Win32,20.00080003,62bbe60bf3d75ef465d3e404,0,85,85,122,1,twoone,,,,,,,,,,,,,,,,,,,,,,,,,,,,,,,,,,,,,,,,,,,,,,,,,,,,,,,,,,,,,,,,,,,,,,,,,,,,,,,,,,,,,,,,,,,,,,,,,,,,,,,,,,,,,,,,,,,,,,,,,,,,,,,,,,,,,,,,,,,,,,,,,,,,,,,,
,,,,,,5f857edcc4d42502bec40821,62bbf9d772d3464813959fd7,2022-06-29_10h07.24.761,Colour_Asymmetry_Pilot,2022.1.3,Win32,20.00080003,62bbe60bf3d75ef465d3e404,0,86,86,88,1,onetwo,,,,,,,,,,,,,,,,,,,,,,,,,,,,,,,,,,,,,,,,,,,,,,,,,,,,,,,,,,,,,,,,,,,,,,,,,,,,,,,,,,,,,,,,,,,,,,,,,,,,,,,,,,,,,,,,,,,,,,,,,,,,,,,,,,,,,,,,,,,,,,,,,,,,,,,,
,,,,,,5f857edcc4d42502bec40821,62bbf9d772d3464813959fd7,2022-06-29_10h07.24.761,Colour_Asymmetry_Pilot,2022.1.3,Win32,20.00080003,62bbe60bf3d75ef465d3e404,0,87,87,27,1,twofour,,,,,,,,,,,,,,,,,,,,,,,,,,,,,,,,,,,,,,,,,,,,,,,,,,,,,,,,,,,,,,,,,,,,,,,,,,,,,,,,,,,,,,,,,,,,,,,,,,,,,,,,,,,,,,,,,,,,,,,,,,,,,,,,,,,,,,,,,,,,,,,,,,,,,,,,
,,,,,,5f857edcc4d42502bec40821,62bbf9d772d3464813959fd7,2022-06-29_10h07.24.761,Colour_Asymmetry_Pilot,2022.1.3,Win32,20.00080003,62bbe60bf3d75ef465d3e404,0,88,88,118,1,fourtwo,,,,,,,,,,,,,,,,,,,,,,,,,,,,,,,,,,,,,,,,,,,,,,,,,,,,,,,,,,,,,,,,,,,,,,,,,,,,,,,,,,,,,,,,,,,,,,,,,,,,,,,,,,,,,,,,,,,,,,,,,,,,,,,,,,,,,,,,,,,,,,,,,,,,,,,,
,,,,,,5f857edcc4d42502bec40821,62bbf9d772d3464813959fd7,2022-06-29_10h07.24.761,Colour_Asymmetry_Pilot,2022.1.3,Win32,20.00080003,62bbe60bf3d75ef465d3e404,0,89,89,46,1,fourtwo,,,,,,,,,,,,,,,,,,,,,,,,,,,,,,,,,,,,,,,,,,,,,,,,,,,,,,,,,,,,,,,,,,,,,,,,,,,,,,,,,,,,,,,,,,,,,,,,,,,,,,,,,,,,,,,,,,,,,,,,,,,,,,,,,,,,,,,,,,,,,,,,,,,,,,,,
,,,,,,5f857edcc4d42502bec40821,62bbf9d772d3464813959fd7,2022-06-29_10h07.24.761,Colour_Asymmetry_Pilot,2022.1.3,Win32,20.00080003,62bbe60bf3d75ef465d3e404,0,90,90,112,1,onetwo,,,,,,,,,,,,,,,,,,,,,,,,,,,,,,,,,,,,,,,,,,,,,,,,,,,,,,,,,,,,,,,,,,,,,,,,,,,,,,,,,,,,,,,,,,,,,,,,,,,,,,,,,,,,,,,,,,,,,,,,,,,,,,,,,,,,,,,,,,,,,,,,,,,,,,,,
,,,,,,5f857edcc4d42502bec40821,62bbf9d772d3464813959fd7,2022-06-29_10h07.24.761,Colour_Asymmetry_Pilot,2022.1.3,Win32,20.00080003,62bbe60bf3d75ef465d3e404,0,91,91,75,1,twofour,,,,,,,,,,,,,,,,,,,,,,,,,,,,,,,,,,,,,,,,,,,,,,,,,,,,,,,,,,,,,,,,,,,,,,,,,,,,,,,,,,,,,,,,,,,,,,,,,,,,,,,,,,,,,,,,,,,,,,,,,,,,,,,,,,,,,,,,,,,,,,,,,,,,,,,,
,,,,,,5f857edcc4d42502bec40821,62bbf9d772d3464813959fd7,2022-06-29_10h07.24.761,Colour_Asymmetry_Pilot,2022.1.3,Win32,20.00080003,62bbe60bf3d75ef465d3e404,0,92,92,152,1,onetwo,,,,,,,,,,,,,,,,,,,,,,,,,,,,,,,,,,,,,,,,,,,,,,,,,,,,,,,,,,,,,,,,,,,,,,,,,,,,,,,,,,,,,,,,,,,,,,,,,,,,,,,,,,,,,,,,,,,,,,,,,,,,,,,,,,,,,,,,,,,,,,,,,,,,,,,,
,,,,,,5f857edcc4d42502bec40821,62bbf9d772d3464813959fd7,2022-06-29_10h07.24.761,Colour_Asymmetry_Pilot,2022.1.3,Win32,20.00080003,62bbe60bf3d75ef465d3e404,0,93,93,14,1,fourtwo,,,,,,,,,,,,,,,,,,,,,,,,,,,,,,,,,,,,,,,,,,,,,,,,,,,,,,,,,,,,,,,,,,,,,,,,,,,,,,,,,,,,,,,,,,,,,,,,,,,,,,,,,,,,,,,,,,,,,,,,,,,,,,,,,,,,,,,,,,,,,,,,,,,,,,,,
,,,,,,5f857edcc4d42502bec40821,62bbf9d772d3464813959fd7,2022-06-29_10h07.24.761,Colour_Asymmetry_Pilot,2022.1.3,Win32,20.00080003,62bbe60bf3d75ef465d3e404,0,94,94,134,1,fourtwo,,,,,,,,,,,,,,,,,,,,,,,,,,,,,,,,,,,,,,,,,,,,,,,,,,,,,,,,,,,,,,,,,,,,,,,,,,,,,,,,,,,,,,,,,,,,,,,,,,,,,,,,,,,,,,,,,,,,,,,,,,,,,,,,,,,,,,,,,,,,,,,,,,,,,,,,
,,,,,,5f857edcc4d42502bec40821,62bbf9d772d3464813959fd7,2022-06-29_10h07.24.761,Colour_Asymmetry_Pilot,2022.1.3,Win32,20.00080003,62bbe60bf3d75ef465d3e404,0,95,95,159,1,fourthree,,,,,,,,,,,,,,,,,,,,,,,,,,,,,,,,,,,,,,,,,,,,,,,,,,,,,,,,,,,,,,,,,,,,,,,,,,,,,,,,,,,,,,,,,,,,,,,,,,,,,,,,,,,,,,,,,,,,,,,,,,,,,,,,,,,,,,,,,,,,,,,,,,,,,,,,
,,,,,,5f857edcc4d42502bec40821,62bbf9d772d3464813959fd7,2022-06-29_10h07.24.761,Colour_Asymmetry_Pilot,2022.1.3,Win32,20.00080003,62bbe60bf3d75ef465d3e404,0,96,96,56,1,onetwo,,,,,,,,,,,,,,,,,,,,,,,,,,,,,,,,,,,,,,,,,,,,,,,,,,,,,,,,,,,,,,,,,,,,,,,,,,,,,,,,,,,,,,,,,,,,,,,,,,,,,,,,,,,,,,,,,,,,,,,,,,,,,,,,,,,,,,,,,,,,,,,,,,,,,,,,
,,,,,,5f857edcc4d42502bec40821,62bbf9d772d3464813959fd7,2022-06-29_10h07.24.761,Colour_Asymmetry_Pilot,2022.1.3,Win32,20.00080003,62bbe60bf3d75ef465d3e404,0,97,97,110,1,fourtwo,,,,,,,,,,,,,,,,,,,,,,,,,,,,,,,,,,,,,,,,,,,,,,,,,,,,,,,,,,,,,,,,,,,,,,,,,,,,,,,,,,,,,,,,,,,,,,,,,,,,,,,,,,,,,,,,,,,,,,,,,,,,,,,,,,,,,,,,,,,,,,,,,,,,,,,,
,,,,,,5f857edcc4d42502bec40821,62bbf9d772d3464813959fd7,2022-06-29_10h07.24.761,Colour_Asymmetry_Pilot,2022.1.3,Win32,20.00080003,62bbe60bf3d75ef465d3e404,0,98,98,63,1,fourthree,,,,,,,,,,,,,,,,,,,,,,,,,,,,,,,,,,,,,,,,,,,,,,,,,,,,,,,,,,,,,,,,,,,,,,,,,,,,,,,,,,,,,,,,,,,,,,,,,,,,,,,,,,,,,,,,,,,,,,,,,,,,,,,,,,,,,,,,,,,,,,,,,,,,,,,,
,,,,,,5f857edcc4d42502bec40821,62bbf9d772d3464813959fd7,2022-06-29_10h07.24.761,Colour_Asymmetry_Pilot,2022.1.3,Win32,20.00080003,62bbe60bf3d75ef465d3e404,0,99,99,130,1,twoone,,,,,,,,,,,,,,,,,,,,,,,,,,,,,,,,,,,,,,,,,,,,,,,,,,,,,,,,,,,,,,,,,,,,,,,,,,,,,,,,,,,,,,,,,,,,,,,,,,,,,,,,,,,,,,,,,,,,,,,,,,,,,,,,,,,,,,,,,,,,,,,,,,,,,,,,
,,,,,,5f857edcc4d42502bec40821,62bbf9d772d3464813959fd7,2022-06-29_10h07.24.761,Colour_Asymmetry_Pilot,2022.1.3,Win32,20.00080003,62bbe60bf3d75ef465d3e404,0,100,100,97,1,onethree,,,,,,,,,,,,,,,,,,,,,,,,,,,,,,,,,,,,,,,,,,,,,,,,,,,,,,,,,,,,,,,,,,,,,,,,,,,,,,,,,,,,,,,,,,,,,,,,,,,,,,,,,,,,,,,,,,,,,,,,,,,,,,,,,,,,,,,,,,,,,,,,,,,,,,,,
,,,,,,5f857edcc4d42502bec40821,62bbf9d772d3464813959fd7,2022-06-29_10h07.24.761,Colour_Asymmetry_Pilot,2022.1.3,Win32,20.00080003,62bbe60bf3d75ef465d3e404,0,101,101,12,1,threeone,,,,,,,,,,,,,,,,,,,,,,,,,,,,,,,,,,,,,,,,,,,,,,,,,,,,,,,,,,,,,,,,,,,,,,,,,,,,,,,,,,,,,,,,,,,,,,,,,,,,,,,,,,,,,,,,,,,,,,,,,,,,,,,,,,,,,,,,,,,,,,,,,,,,,,,,
,,,,,,5f857edcc4d42502bec40821,62bbf9d772d3464813959fd7,2022-06-29_10h07.24.761,Colour_Asymmetry_Pilot,2022.1.3,Win32,20.00080003,62bbe60bf3d75ef465d3e404,0,102,102,40,1,onetwo,,,,,,,,,,,,,,,,,,,,,,,,,,,,,,,,,,,,,,,,,,,,,,,,,,,,,,,,,,,,,,,,,,,,,,,,,,,,,,,,,,,,,,,,,,,,,,,,,,,,,,,,,,,,,,,,,,,,,,,,,,,,,,,,,,,,,,,,,,,,,,,,,,,,,,,,
,,,,,,5f857edcc4d42502bec40821,62bbf9d772d3464813959fd7,2022-06-29_10h07.24.761,Colour_Asymmetry_Pilot,2022.1.3,Win32,20.00080003,62bbe60bf3d75ef465d3e404,0,103,103,108,1,threeone,,,,,,,,,,,,,,,,,,,,,,,,,,,,,,,,,,,,,,,,,,,,,,,,,,,,,,,,,,,,,,,,,,,,,,,,,,,,,,,,,,,,,,,,,,,,,,,,,,,,,,,,,,,,,,,,,,,,,,,,,,,,,,,,,,,,,,,,,,,,,,,,,,,,,,,,
,,,,,,5f857edcc4d42502bec40821,62bbf9d772d3464813959fd7,2022-06-29_10h07.24.761,Colour_Asymmetry_Pilot,2022.1.3,Win32,20.00080003,62bbe60bf3d75ef465d3e404,0,104,104,45,1,threefour,,,,,,,,,,,,,,,,,,,,,,,,,,,,,,,,,,,,,,,,,,,,,,,,,,,,,,,,,,,,,,,,,,,,,,,,,,,,,,,,,,,,,,,,,,,,,,,,,,,,,,,,,,,,,,,,,,,,,,,,,,,,,,,,,,,,,,,,,,,,,,,,,,,,,,,,
,,,,,,5f857edcc4d42502bec40821,62bbf9d772d3464813959fd7,2022-06-29_10h07.24.761,Colour_Asymmetry_Pilot,2022.1.3,Win32,20.00080003,62bbe60bf3d75ef465d3e404,0,105,105,17,1,onethree,,,,,,,,,,,,,,,,,,,,,,,,,,,,,,,,,,,,,,,,,,,,,,,,,,,,,,,,,,,,,,,,,,,,,,,,,,,,,,,,,,,,,,,,,,,,,,,,,,,,,,,,,,,,,,,,,,,,,,,,,,,,,,,,,,,,,,,,,,,,,,,,,,,,,,,,
,,,,,,5f857edcc4d42502bec40821,62bbf9d772d3464813959fd7,2022-06-29_10h07.24.761,Colour_Asymmetry_Pilot,2022.1.3,Win32,20.00080003,62bbe60bf3d75ef465d3e404,0,106,106,21,1,threefour,,,,,,,,,,,,,,,,,,,,,,,,,,,,,,,,,,,,,,,,,,,,,,,,,,,,,,,,,,,,,,,,,,,,,,,,,,,,,,,,,,,,,,,,,,,,,,,,,,,,,,,,,,,,,,,,,,,,,,,,,,,,,,,,,,,,,,,,,,,,,,,,,,,,,,,,
,,,,,,5f857edcc4d42502bec40821,62bbf9d772d3464813959fd7,2022-06-29_10h07.24.761,Colour_Asymmetry_Pilot,2022.1.3,Win32,20.00080003,62bbe60bf3d75ef465d3e404,0,107,107,1,1,onethree,,,,,,,,,,,,,,,,,,,,,,,,,,,,,,,,,,,,,,,,,,,,,,,,,,,,,,,,,,,,,,,,,,,,,,,,,,,,,,,,,,,,,,,,,,,,,,,,,,,,,,,,,,,,,,,,,,,,,,,,,,,,,,,,,,,,,,,,,,,,,,,,,,,,,,,,
,,,,,,5f857edcc4d42502bec40821,62bbf9d772d3464813959fd7,2022-06-29_10h07.24.761,Colour_Asymmetry_Pilot,2022.1.3,Win32,20.00080003,62bbe60bf3d75ef465d3e404,0,108,108,53,1,threefour,,,,,,,,,,,,,,,,,,,,,,,,,,,,,,,,,,,,,,,,,,,,,,,,,,,,,,,,,,,,,,,,,,,,,,,,,,,,,,,,,,,,,,,,,,,,,,,,,,,,,,,,,,,,,,,,,,,,,,,,,,,,,,,,,,,,,,,,,,,,,,,,,,,,,,,,
,,,,,,5f857edcc4d42502bec40821,62bbf9d772d3464813959fd7,2022-06-29_10h07.24.761,Colour_Asymmetry_Pilot,2022.1.3,Win32,20.00080003,62bbe60bf3d75ef465d3e404,0,109,109,22,1,fourtwo,,,,,,,,,,,,,,,,,,,,,,,,,,,,,,,,,,,,,,,,,,,,,,,,,,,,,,,,,,,,,,,,,,,,,,,,,,,,,,,,,,,,,,,,,,,,,,,,,,,,,,,,,,,,,,,,,,,,,,,,,,,,,,,,,,,,,,,,,,,,,,,,,,,,,,,,
,,,,,,5f857edcc4d42502bec40821,62bbf9d772d3464813959fd7,2022-06-29_10h07.24.761,Colour_Asymmetry_Pilot,2022.1.3,Win32,20.00080003,62bbe60bf3d75ef465d3e404,0,110,110,69,1,threefour,,,,,,,,,,,,,,,,,,,,,,,,,,,,,,,,,,,,,,,,,,,,,,,,,,,,,,,,,,,,,,,,,,,,,,,,,,,,,,,,,,,,,,,,,,,,,,,,,,,,,,,,,,,,,,,,,,,,,,,,,,,,,,,,,,,,,,,,,,,,,,,,,,,,,,,,
,,,,,,5f857edcc4d42502bec40821,62bbf9d772d3464813959fd7,2022-06-29_10h07.24.761,Colour_Asymmetry_Pilot,2022.1.3,Win32,20.00080003,62bbe60bf3d75ef465d3e404,0,111,111,109,1,threefour,,,,,,,,,,,,,,,,,,,,,,,,,,,,,,,,,,,,,,,,,,,,,,,,,,,,,,,,,,,,,,,,,,,,,,,,,,,,,,,,,,,,,,,,,,,,,,,,,,,,,,,,,,,,,,,,,,,,,,,,,,,,,,,,,,,,,,,,,,,,,,,,,,,,,,,,
,,,,,,5f857edcc4d42502bec40821,62bbf9d772d3464813959fd7,2022-06-29_10h07.24.761,Colour_Asymmetry_Pilot,2022.1.3,Win32,20.00080003,62bbe60bf3d75ef465d3e404,0,112,112,54,1,fourtwo,,,,,,,,,,,,,,,,,,,,,,,,,,,,,,,,,,,,,,,,,,,,,,,,,,,,,,,,,,,,,,,,,,,,,,,,,,,,,,,,,,,,,,,,,,,,,,,,,,,,,,,,,,,,,,,,,,,,,,,,,,,,,,,,,,,,,,,,,,,,,,,,,,,,,,,,
,,,,,,5f857edcc4d42502bec40821,62bbf9d772d3464813959fd7,2022-06-29_10h07.24.761,Colour_Asymmetry_Pilot,2022.1.3,Win32,20.00080003,62bbe60bf3d75ef465d3e404,0,113,113,83,1,twofour,,,,,,,,,,,,,,,,,,,,,,,,,,,,,,,,,,,,,,,,,,,,,,,,,,,,,,,,,,,,,,,,,,,,,,,,,,,,,,,,,,,,,,,,,,,,,,,,,,,,,,,,,,,,,,,,,,,,,,,,,,,,,,,,,,,,,,,,,,,,,,,,,,,,,,,,
,,,,,,5f857edcc4d42502bec40821,62bbf9d772d3464813959fd7,2022-06-29_10h07.24.761,Colour_Asymmetry_Pilot,2022.1.3,Win32,20.00080003,62bbe60bf3d75ef465d3e404,0,114,114,47,1,fourthree,,,,,,,,,,,,,,,,,,,,,,,,,,,,,,,,,,,,,,,,,,,,,,,,,,,,,,,,,,,,,,,,,,,,,,,,,,,,,,,,,,,,,,,,,,,,,,,,,,,,,,,,,,,,,,,,,,,,,,,,,,,,,,,,,,,,,,,,,,,,,,,,,,,,,,,,
,,,,,,5f857edcc4d42502bec40821,62bbf9d772d3464813959fd7,2022-06-29_10h07.24.761,Colour_Asymmetry_Pilot,2022.1.3,Win32,20.00080003,62bbe60bf3d75ef465d3e404,0,115,115,35,1,twofour,,,,,,,,,,,,,,,,,,,,,,,,,,,,,,,,,,,,,,,,,,,,,,,,,,,,,,,,,,,,,,,,,,,,,,,,,,,,,,,,,,,,,,,,,,,,,,,,,,,,,,,,,,,,,,,,,,,,,,,,,,,,,,,,,,,,,,,,,,,,,,,,,,,,,,,,
,,,,,,5f857edcc4d42502bec40821,62bbf9d772d3464813959fd7,2022-06-29_10h07.24.761,Colour_Asymmetry_Pilot,2022.1.3,Win32,20.00080003,62bbe60bf3d75ef465d3e404,0,116,116,103,1,fourthree,,,,,,,,,,,,,,,,,,,,,,,,,,,,,,,,,,,,,,,,,,,,,,,,,,,,,,,,,,,,,,,,,,,,,,,,,,,,,,,,,,,,,,,,,,,,,,,,,,,,,,,,,,,,,,,,,,,,,,,,,,,,,,,,,,,,,,,,,,,,,,,,,,,,,,,,
,,,,,,5f857edcc4d42502bec40821,62bbf9d772d3464813959fd7,2022-06-29_10h07.24.761,Colour_Asymmetry_Pilot,2022.1.3,Win32,20.00080003,62bbe60bf3d75ef465d3e404,0,117,117,87,1,fourthree,,,,,,,,,,,,,,,,,,,,,,,,,,,,,,,,,,,,,,,,,,,,,,,,,,,,,,,,,,,,,,,,,,,,,,,,,,,,,,,,,,,,,,,,,,,,,,,,,,,,,,,,,,,,,,,,,,,,,,,,,,,,,,,,,,,,,,,,,,,,,,,,,,,,,,,,
,,,,,,5f857edcc4d42502bec40821,62bbf9d772d3464813959fd7,2022-06-29_10h07.24.761,Colour_Asymmetry_Pilot,2022.1.3,Win32,20.00080003,62bbe60bf3d75ef465d3e404,0,118,118,84,1,threeone,,,,,,,,,,,,,,,,,,,,,,,,,,,,,,,,,,,,,,,,,,,,,,,,,,,,,,,,,,,,,,,,,,,,,,,,,,,,,,,,,,,,,,,,,,,,,,,,,,,,,,,,,,,,,,,,,,,,,,,,,,,,,,,,,,,,,,,,,,,,,,,,,,,,,,,,
,,,,,,5f857edcc4d42502bec40821,62bbf9d772d3464813959fd7,2022-06-29_10h07.24.761,Colour_Asymmetry_Pilot,2022.1.3,Win32,20.00080003,62bbe60bf3d75ef465d3e404,0,119,119,147,1,twofour,,,,,,,,,,,,,,,,,,,,,,,,,,,,,,,,,,,,,,,,,,,,,,,,,,,,,,,,,,,,,,,,,,,,,,,,,,,,,,,,,,,,,,,,,,,,,,,,,,,,,,,,,,,,,,,,,,,,,,,,,,,,,,,,,,,,,,,,,,,,,,,,,,,,,,,,
,,,,,,5f857edcc4d42502bec40821,62bbf9d772d3464813959fd7,2022-06-29_10h07.24.761,Colour_Asymmetry_Pilot,2022.1.3,Win32,20.00080003,62bbe60bf3d75ef465d3e404,0,120,120,19,1,twofour,,,,,,,,,,,,,,,,,,,,,,,,,,,,,,,,,,,,,,,,,,,,,,,,,,,,,,,,,,,,,,,,,,,,,,,,,,,,,,,,,,,,,,,,,,,,,,,,,,,,,,,,,,,,,,,,,,,,,,,,,,,,,,,,,,,,,,,,,,,,,,,,,,,,,,,,
,,,,,,5f857edcc4d42502bec40821,62bbf9d772d3464813959fd7,2022-06-29_10h07.24.761,Colour_Asymmetry_Pilot,2022.1.3,Win32,20.00080003,62bbe60bf3d75ef465d3e404,0,121,121,143,1,fourthree,,,,,,,,,,,,,,,,,,,,,,,,,,,,,,,,,,,,,,,,,,,,,,,,,,,,,,,,,,,,,,,,,,,,,,,,,,,,,,,,,,,,,,,,,,,,,,,,,,,,,,,,,,,,,,,,,,,,,,,,,,,,,,,,,,,,,,,,,,,,,,,,,,,,,,,,
,,,,,,5f857edcc4d42502bec40821,62bbf9d772d3464813959fd7,2022-06-29_10h07.24.761,Colour_Asymmetry_Pilot,2022.1.3,Win32,20.00080003,62bbe60bf3d75ef465d3e404,0,122,122,2,1,twoone,,,,,,,,,,,,,,,,,,,,,,,,,,,,,,,,,,,,,,,,,,,,,,,,,,,,,,,,,,,,,,,,,,,,,,,,,,,,,,,,,,,,,,,,,,,,,,,,,,,,,,,,,,,,,,,,,,,,,,,,,,,,,,,,,,,,,,,,,,,,,,,,,,,,,,,,
,,,,,,5f857edcc4d42502bec40821,62bbf9d772d3464813959fd7,2022-06-29_10h07.24.761,Colour_Asymmetry_Pilot,2022.1.3,Win32,20.00080003,62bbe60bf3d75ef465d3e404,0,123,123,123,1,twofour,,,,,,,,,,,,,,,,,,,,,,,,,,,,,,,,,,,,,,,,,,,,,,,,,,,,,,,,,,,,,,,,,,,,,,,,,,,,,,,,,,,,,,,,,,,,,,,,,,,,,,,,,,,,,,,,,,,,,,,,,,,,,,,,,,,,,,,,,,,,,,,,,,,,,,,,
,,,,,,5f857edcc4d42502bec40821,62bbf9d772d3464813959fd7,2022-06-29_10h07.24.761,Colour_Asymmetry_Pilot,2022.1.3,Win32,20.00080003,62bbe60bf3d75ef465d3e404,0,124,124,121,1,onethree,,,,,,,,,,,,,,,,,,,,,,,,,,,,,,,,,,,,,,,,,,,,,,,,,,,,,,,,,,,,,,,,,,,,,,,,,,,,,,,,,,,,,,,,,,,,,,,,,,,,,,,,,,,,,,,,,,,,,,,,,,,,,,,,,,,,,,,,,,,,,,,,,,,,,,,,
,,,,,,5f857edcc4d42502bec40821,62bbf9d772d3464813959fd7,2022-06-29_10h07.24.761,Colour_Asymmetry_Pilot,2022.1.3,Win32,20.00080003,62bbe60bf3d75ef465d3e404,0,125,125,80,1,onetwo,,,,,,,,,,,,,,,,,,,,,,,,,,,,,,,,,,,,,,,,,,,,,,,,,,,,,,,,,,,,,,,,,,,,,,,,,,,,,,,,,,,,,,,,,,,,,,,,,,,,,,,,,,,,,,,,,,,,,,,,,,,,,,,,,,,,,,,,,,,,,,,,,,,,,,,,
,,,,,,5f857edcc4d42502bec40821,62bbf9d772d3464813959fd7,2022-06-29_10h07.24.761,Colour_Asymmetry_Pilot,2022.1.3,Win32,20.00080003,62bbe60bf3d75ef465d3e404,0,126,126,154,1,twoone,,,,,,,,,,,,,,,,,,,,,,,,,,,,,,,,,,,,,,,,,,,,,,,,,,,,,,,,,,,,,,,,,,,,,,,,,,,,,,,,,,,,,,,,,,,,,,,,,,,,,,,,,,,,,,,,,,,,,,,,,,,,,,,,,,,,,,,,,,,,,,,,,,,,,,,,
,,,,,,5f857edcc4d42502bec40821,62bbf9d772d3464813959fd7,2022-06-29_10h07.24.761,Colour_Asymmetry_Pilot,2022.1.3,Win32,20.00080003,62bbe60bf3d75ef465d3e404,0,127,127,24,1,onetwo,,,,,,,,,,,,,,,,,,,,,,,,,,,,,,,,,,,,,,,,,,,,,,,,,,,,,,,,,,,,,,,,,,,,,,,,,,,,,,,,,,,,,,,,,,,,,,,,,,,,,,,,,,,,,,,,,,,,,,,,,,,,,,,,,,,,,,,,,,,,,,,,,,,,,,,,
,,,,,,5f857edcc4d42502bec40821,62bbf9d772d3464813959fd7,2022-06-29_10h07.24.761,Colour_Asymmetry_Pilot,2022.1.3,Win32,20.00080003,62bbe60bf3d75ef465d3e404,0,128,128,129,1,onethree,,,,,,,,,,,,,,,,,,,,,,,,,,,,,,,,,,,,,,,,,,,,,,,,,,,,,,,,,,,,,,,,,,,,,,,,,,,,,,,,,,,,,,,,,,,,,,,,,,,,,,,,,,,,,,,,,,,,,,,,,,,,,,,,,,,,,,,,,,,,,,,,,,,,,,,,
,,,,,,5f857edcc4d42502bec40821,62bbf9d772d3464813959fd7,2022-06-29_10h07.24.761,Colour_Asymmetry_Pilot,2022.1.3,Win32,20.00080003,62bbe60bf3d75ef465d3e404,0,129,129,114,1,twoone,,,,,,,,,,,,,,,,,,,,,,,,,,,,,,,,,,,,,,,,,,,,,,,,,,,,,,,,,,,,,,,,,,,,,,,,,,,,,,,,,,,,,,,,,,,,,,,,,,,,,,,,,,,,,,,,,,,,,,,,,,,,,,,,,,,,,,,,,,,,,,,,,,,,,,,,
,,,,,,5f857edcc4d42502bec40821,62bbf9d772d3464813959fd7,2022-06-29_10h07.24.761,Colour_Asymmetry_Pilot,2022.1.3,Win32,20.00080003,62bbe60bf3d75ef465d3e404,0,130,130,94,1,fourtwo,,,,,,,,,,,,,,,,,,,,,,,,,,,,,,,,,,,,,,,,,,,,,,,,,,,,,,,,,,,,,,,,,,,,,,,,,,,,,,,,,,,,,,,,,,,,,,,,,,,,,,,,,,,,,,,,,,,,,,,,,,,,,,,,,,,,,,,,,,,,,,,,,,,,,,,,
,,,,,,5f857edcc4d42502bec40821,62bbf9d772d3464813959fd7,2022-06-29_10h07.24.761,Colour_Asymmetry_Pilot,2022.1.3,Win32,20.00080003,62bbe60bf3d75ef465d3e404,0,131,131,26,1,twoone,,,,,,,,,,,,,,,,,,,,,,,,,,,,,,,,,,,,,,,,,,,,,,,,,,,,,,,,,,,,,,,,,,,,,,,,,,,,,,,,,,,,,,,,,,,,,,,,,,,,,,,,,,,,,,,,,,,,,,,,,,,,,,,,,,,,,,,,,,,,,,,,,,,,,,,,
,,,,,,5f857edcc4d42502bec40821,62bbf9d772d3464813959fd7,2022-06-29_10h07.24.761,Colour_Asymmetry_Pilot,2022.1.3,Win32,20.00080003,62bbe60bf3d75ef465d3e404,0,132,132,29,1,threefour,,,,,,,,,,,,,,,,,,,,,,,,,,,,,,,,,,,,,,,,,,,,,,,,,,,,,,,,,,,,,,,,,,,,,,,,,,,,,,,,,,,,,,,,,,,,,,,,,,,,,,,,,,,,,,,,,,,,,,,,,,,,,,,,,,,,,,,,,,,,,,,,,,,,,,,,
,,,,,,5f857edcc4d42502bec40821,62bbf9d772d3464813959fd7,2022-06-29_10h07.24.761,Colour_Asymmetry_Pilot,2022.1.3,Win32,20.00080003,62bbe60bf3d75ef465d3e404,0,133,133,36,1,threeone,,,,,,,,,,,,,,,,,,,,,,,,,,,,,,,,,,,,,,,,,,,,,,,,,,,,,,,,,,,,,,,,,,,,,,,,,,,,,,,,,,,,,,,,,,,,,,,,,,,,,,,,,,,,,,,,,,,,,,,,,,,,,,,,,,,,,,,,,,,,,,,,,,,,,,,,
,,,,,,5f857edcc4d42502bec40821,62bbf9d772d3464813959fd7,2022-06-29_10h07.24.761,Colour_Asymmetry_Pilot,2022.1.3,Win32,20.00080003,62bbe60bf3d75ef465d3e404,0,134,134,74,1,twoone,,,,,,,,,,,,,,,,,,,,,,,,,,,,,,,,,,,,,,,,,,,,,,,,,,,,,,,,,,,,,,,,,,,,,,,,,,,,,,,,,,,,,,,,,,,,,,,,,,,,,,,,,,,,,,,,,,,,,,,,,,,,,,,,,,,,,,,,,,,,,,,,,,,,,,,,
,,,,,,5f857edcc4d42502bec40821,62bbf9d772d3464813959fd7,2022-06-29_10h07.24.761,Colour_Asymmetry_Pilot,2022.1.3,Win32,20.00080003,62bbe60bf3d75ef465d3e404,0,135,135,101,1,threefour,,,,,,,,,,,,,,,,,,,,,,,,,,,,,,,,,,,,,,,,,,,,,,,,,,,,,,,,,,,,,,,,,,,,,,,,,,,,,,,,,,,,,,,,,,,,,,,,,,,,,,,,,,,,,,,,,,,,,,,,,,,,,,,,,,,,,,,,,,,,,,,,,,,,,,,,
,,,,,,5f857edcc4d42502bec40821,62bbf9d772d3464813959fd7,2022-06-29_10h07.24.761,Colour_Asymmetry_Pilot,2022.1.3,Win32,20.00080003,62bbe60bf3d75ef465d3e404,0,136,136,71,1,fourthree,,,,,,,,,,,,,,,,,,,,,,,,,,,,,,,,,,,,,,,,,,,,,,,,,,,,,,,,,,,,,,,,,,,,,,,,,,,,,,,,,,,,,,,,,,,,,,,,,,,,,,,,,,,,,,,,,,,,,,,,,,,,,,,,,,,,,,,,,,,,,,,,,,,,,,,,
,,,,,,5f857edcc4d42502bec40821,62bbf9d772d3464813959fd7,2022-06-29_10h07.24.761,Colour_Asymmetry_Pilot,2022.1.3,Win32,20.00080003,62bbe60bf3d75ef465d3e404,0,137,137,64,1,onetwo,,,,,,,,,,,,,,,,,,,,,,,,,,,,,,,,,,,,,,,,,,,,,,,,,,,,,,,,,,,,,,,,,,,,,,,,,,,,,,,,,,,,,,,,,,,,,,,,,,,,,,,,,,,,,,,,,,,,,,,,,,,,,,,,,,,,,,,,,,,,,,,,,,,,,,,,
,,,,,,5f857edcc4d42502bec40821,62bbf9d772d3464813959fd7,2022-06-29_10h07.24.761,Colour_Asymmetry_Pilot,2022.1.3,Win32,20.00080003,62bbe60bf3d75ef465d3e404,0,138,138,151,1,fourthree,,,,,,,,,,,,,,,,,,,,,,,,,,,,,,,,,,,,,,,,,,,,,,,,,,,,,,,,,,,,,,,,,,,,,,,,,,,,,,,,,,,,,,,,,,,,,,,,,,,,,,,,,,,,,,,,,,,,,,,,,,,,,,,,,,,,,,,,,,,,,,,,,,,,,,,,
,,,,,,5f857edcc4d42502bec40821,62bbf9d772d3464813959fd7,2022-06-29_10h07.24.761,Colour_Asymmetry_Pilot,2022.1.3,Win32,20.00080003,62bbe60bf3d75ef465d3e404,0,139,139,115,1,twofour,,,,,,,,,,,,,,,,,,,,,,,,,,,,,,,,,,,,,,,,,,,,,,,,,,,,,,,,,,,,,,,,,,,,,,,,,,,,,,,,,,,,,,,,,,,,,,,,,,,,,,,,,,,,,,,,,,,,,,,,,,,,,,,,,,,,,,,,,,,,,,,,,,,,,,,,
,,,,,,5f857edcc4d42502bec40821,62bbf9d772d3464813959fd7,2022-06-29_10h07.24.761,Colour_Asymmetry_Pilot,2022.1.3,Win32,20.00080003,62bbe60bf3d75ef465d3e404,0,140,140,125,1,threefour,,,,,,,,,,,,,,,,,,,,,,,,,,,,,,,,,,,,,,,,,,,,,,,,,,,,,,,,,,,,,,,,,,,,,,,,,,,,,,,,,,,,,,,,,,,,,,,,,,,,,,,,,,,,,,,,,,,,,,,,,,,,,,,,,,,,,,,,,,,,,,,,,,,,,,,,
,,,,,,5f857edcc4d42502bec40821,62bbf9d772d3464813959fd7,2022-06-29_10h07.24.761,Colour_Asymmetry_Pilot,2022.1.3,Win32,20.00080003,62bbe60bf3d75ef465d3e404,0,141,141,76,1,threeone,,,,,,,,,,,,,,,,,,,,,,,,,,,,,,,,,,,,,,,,,,,,,,,,,,,,,,,,,,,,,,,,,,,,,,,,,,,,,,,,,,,,,,,,,,,,,,,,,,,,,,,,,,,,,,,,,,,,,,,,,,,,,,,,,,,,,,,,,,,,,,,,,,,,,,,,
,,,,,,5f857edcc4d42502bec40821,62bbf9d772d3464813959fd7,2022-06-29_10h07.24.761,Colour_Asymmetry_Pilot,2022.1.3,Win32,20.00080003,62bbe60bf3d75ef465d3e404,0,142,142,92,1,threeone,,,,,,,,,,,,,,,,,,,,,,,,,,,,,,,,,,,,,,,,,,,,,,,,,,,,,,,,,,,,,,,,,,,,,,,,,,,,,,,,,,,,,,,,,,,,,,,,,,,,,,,,,,,,,,,,,,,,,,,,,,,,,,,,,,,,,,,,,,,,,,,,,,,,,,,,
,,,,,,5f857edcc4d42502bec40821,62bbf9d772d3464813959fd7,2022-06-29_10h07.24.761,Colour_Asymmetry_Pilot,2022.1.3,Win32,20.00080003,62bbe60bf3d75ef465d3e404,0,143,143,52,1,threeone,,,,,,,,,,,,,,,,,,,,,,,,,,,,,,,,,,,,,,,,,,,,,,,,,,,,,,,,,,,,,,,,,,,,,,,,,,,,,,,,,,,,,,,,,,,,,,,,,,,,,,,,,,,,,,,,,,,,,,,,,,,,,,,,,,,,,,,,,,,,,,,,,,,,,,,,
,,,,,,5f857edcc4d42502bec40821,62bbf9d772d3464813959fd7,2022-06-29_10h07.24.761,Colour_Asymmetry_Pilot,2022.1.3,Win32,20.00080003,62bbe60bf3d75ef465d3e404,0,144,144,25,1,onethree,,,,,,,,,,,,,,,,,,,,,,,,,,,,,,,,,,,,,,,,,,,,,,,,,,,,,,,,,,,,,,,,,,,,,,,,,,,,,,,,,,,,,,,,,,,,,,,,,,,,,,,,,,,,,,,,,,,,,,,,,,,,,,,,,,,,,,,,,,,,,,,,,,,,,,,,
,,,,,,5f857edcc4d42502bec40821,62bbf9d772d3464813959fd7,2022-06-29_10h07.24.761,Colour_Asymmetry_Pilot,2022.1.3,Win32,20.00080003,62bbe60bf3d75ef465d3e404,0,145,145,99,1,twofour,,,,,,,,,,,,,,,,,,,,,,,,,,,,,,,,,,,,,,,,,,,,,,,,,,,,,,,,,,,,,,,,,,,,,,,,,,,,,,,,,,,,,,,,,,,,,,,,,,,,,,,,,,,,,,,,,,,,,,,,,,,,,,,,,,,,,,,,,,,,,,,,,,,,,,,,
,,,,,,5f857edcc4d42502bec40821,62bbf9d772d3464813959fd7,2022-06-29_10h07.24.761,Colour_Asymmetry_Pilot,2022.1.3,Win32,20.00080003,62bbe60bf3d75ef465d3e404,0,146,146,139,1,twofour,,,,,,,,,,,,,,,,,,,,,,,,,,,,,,,,,,,,,,,,,,,,,,,,,,,,,,,,,,,,,,,,,,,,,,,,,,,,,,,,,,,,,,,,,,,,,,,,,,,,,,,,,,,,,,,,,,,,,,,,,,,,,,,,,,,,,,,,,,,,,,,,,,,,,,,,
,,,,,,5f857edcc4d42502bec40821,62bbf9d772d3464813959fd7,2022-06-29_10h07.24.761,Colour_Asymmetry_Pilot,2022.1.3,Win32,20.00080003,62bbe60bf3d75ef465d3e404,0,147,147,6,1,fourtwo,,,,,,,,,,,,,,,,,,,,,,,,,,,,,,,,,,,,,,,,,,,,,,,,,,,,,,,,,,,,,,,,,,,,,,,,,,,,,,,,,,,,,,,,,,,,,,,,,,,,,,,,,,,,,,,,,,,,,,,,,,,,,,,,,,,,,,,,,,,,,,,,,,,,,,,,
,,,,,,5f857edcc4d42502bec40821,62bbf9d772d3464813959fd7,2022-06-29_10h07.24.761,Colour_Asymmetry_Pilot,2022.1.3,Win32,20.00080003,62bbe60bf3d75ef465d3e404,0,148,148,150,1,fourtwo,,,,,,,,,,,,,,,,,,,,,,,,,,,,,,,,,,,,,,,,,,,,,,,,,,,,,,,,,,,,,,,,,,,,,,,,,,,,,,,,,,,,,,,,,,,,,,,,,,,,,,,,,,,,,,,,,,,,,,,,,,,,,,,,,,,,,,,,,,,,,,,,,,,,,,,,
,,,,,,5f857edcc4d42502bec40821,62bbf9d772d3464813959fd7,2022-06-29_10h07.24.761,Colour_Asymmetry_Pilot,2022.1.3,Win32,20.00080003,62bbe60bf3d75ef465d3e404,0,149,149,120,1,onetwo,,,,,,,,,,,,,,,,,,,,,,,,,,,,,,,,,,,,,,,,,,,,,,,,,,,,,,,,,,,,,,,,,,,,,,,,,,,,,,,,,,,,,,,,,,,,,,,,,,,,,,,,,,,,,,,,,,,,,,,,,,,,,,,,,,,,,,,,,,,,,,,,,,,,,,,,
,,,,,,5f857edcc4d42502bec40821,62bbf9d772d3464813959fd7,2022-06-29_10h07.24.761,Colour_Asymmetry_Pilot,2022.1.3,Win32,20.00080003,62bbe60bf3d75ef465d3e404,0,150,150,5,1,threefour,,,,,,,,,,,,,,,,,,,,,,,,,,,,,,,,,,,,,,,,,,,,,,,,,,,,,,,,,,,,,,,,,,,,,,,,,,,,,,,,,,,,,,,,,,,,,,,,,,,,,,,,,,,,,,,,,,,,,,,,,,,,,,,,,,,,,,,,,,,,,,,,,,,,,,,,
,,,,,,5f857edcc4d42502bec40821,62bbf9d772d3464813959fd7,2022-06-29_10h07.24.761,Colour_Asymmetry_Pilot,2022.1.3,Win32,20.00080003,62bbe60bf3d75ef465d3e404,0,151,151,81,1,onethree,,,,,,,,,,,,,,,,,,,,,,,,,,,,,,,,,,,,,,,,,,,,,,,,,,,,,,,,,,,,,,,,,,,,,,,,,,,,,,,,,,,,,,,,,,,,,,,,,,,,,,,,,,,,,,,,,,,,,,,,,,,,,,,,,,,,,,,,,,,,,,,,,,,,,,,,
,,,,,,5f857edcc4d42502bec40821,62bbf9d772d3464813959fd7,2022-06-29_10h07.24.761,Colour_Asymmetry_Pilot,2022.1.3,Win32,20.00080003,62bbe60bf3d75ef465d3e404,0,152,152,98,1,twoone,,,,,,,,,,,,,,,,,,,,,,,,,,,,,,,,,,,,,,,,,,,,,,,,,,,,,,,,,,,,,,,,,,,,,,,,,,,,,,,,,,,,,,,,,,,,,,,,,,,,,,,,,,,,,,,,,,,,,,,,,,,,,,,,,,,,,,,,,,,,,,,,,,,,,,,,
,,,,,,5f857edcc4d42502bec40821,62bbf9d772d3464813959fd7,2022-06-29_10h07.24.761,Colour_Asymmetry_Pilot,2022.1.3,Win32,20.00080003,62bbe60bf3d75ef465d3e404,0,153,153,102,1,fourtwo,,,,,,,,,,,,,,,,,,,,,,,,,,,,,,,,,,,,,,,,,,,,,,,,,,,,,,,,,,,,,,,,,,,,,,,,,,,,,,,,,,,,,,,,,,,,,,,,,,,,,,,,,,,,,,,,,,,,,,,,,,,,,,,,,,,,,,,,,,,,,,,,,,,,,,,,
,,,,,,5f857edcc4d42502bec40821,62bbf9d772d3464813959fd7,2022-06-29_10h07.24.761,Colour_Asymmetry_Pilot,2022.1.3,Win32,20.00080003,62bbe60bf3d75ef465d3e404,0,154,154,70,1,fourtwo,,,,,,,,,,,,,,,,,,,,,,,,,,,,,,,,,,,,,,,,,,,,,,,,,,,,,,,,,,,,,,,,,,,,,,,,,,,,,,,,,,,,,,,,,,,,,,,,,,,,,,,,,,,,,,,,,,,,,,,,,,,,,,,,,,,,,,,,,,,,,,,,,,,,,,,,
,,,,,,5f857edcc4d42502bec40821,62bbf9d772d3464813959fd7,2022-06-29_10h07.24.761,Colour_Asymmetry_Pilot,2022.1.3,Win32,20.00080003,62bbe60bf3d75ef465d3e404,0,155,155,30,1,fourtwo,,,,,,,,,,,,,,,,,,,,,,,,,,,,,,,,,,,,,,,,,,,,,,,,,,,,,,,,,,,,,,,,,,,,,,,,,,,,,,,,,,,,,,,,,,,,,,,,,,,,,,,,,,,,,,,,,,,,,,,,,,,,,,,,,,,,,,,,,,,,,,,,,,,,,,,,
,,,,,,5f857edcc4d42502bec40821,62bbf9d772d3464813959fd7,2022-06-29_10h07.24.761,Colour_Asymmetry_Pilot,2022.1.3,Win32,20.00080003,62bbe60bf3d75ef465d3e404,0,156,156,142,1,fourtwo,,,,,,,,,,,,,,,,,,,,,,,,,,,,,,,,,,,,,,,,,,,,,,,,,,,,,,,,,,,,,,,,,,,,,,,,,,,,,,,,,,,,,,,,,,,,,,,,,,,,,,,,,,,,,,,,,,,,,,,,,,,,,,,,,,,,,,,,,,,,,,,,,,,,,,,,
,,,,,,5f857edcc4d42502bec40821,62bbf9d772d3464813959fd7,2022-06-29_10h07.24.761,Colour_Asymmetry_Pilot,2022.1.3,Win32,20.00080003,62bbe60bf3d75ef465d3e404,0,157,157,58,1,twoone,,,,,,,,,,,,,,,,,,,,,,,,,,,,,,,,,,,,,,,,,,,,,,,,,,,,,,,,,,,,,,,,,,,,,,,,,,,,,,,,,,,,,,,,,,,,,,,,,,,,,,,,,,,,,,,,,,,,,,,,,,,,,,,,,,,,,,,,,,,,,,,,,,,,,,,,
,,,,,,5f857edcc4d42502bec40821,62bbf9d772d3464813959fd7,2022-06-29_10h07.24.761,Colour_Asymmetry_Pilot,2022.1.3,Win32,20.00080003,62bbe60bf3d75ef465d3e404,0,158,158,60,1,threeone,,,,,,,,,,,,,,,,,,,,,,,,,,,,,,,,,,,,,,,,,,,,,,,,,,,,,,,,,,,,,,,,,,,,,,,,,,,,,,,,,,,,,,,,,,,,,,,,,,,,,,,,,,,,,,,,,,,,,,,,,,,,,,,,,,,,,,,,,,,,,,,,,,,,,,,,
,,,,,,5f857edcc4d42502bec40821,62bbf9d772d3464813959fd7,2022-06-29_10h07.24.761,Colour_Asymmetry_Pilot,2022.1.3,Win32,20.00080003,62bbe60bf3d75ef465d3e404,0,159,159,59,1,twofour,,,,,,,,,,,,,,,,,,,,,,,,,,,,,,,,,,,,,,,,,,,,,,,,,,,,,,,,,,,,,,,,,,,,,,,,,,,,,,,,,,,,,,,,,,,,,,,,,,,,,,,,,,,,,,,,,,,,,,,,,,,,,,,,,,,,,,,,,,,,,,,,,,,,,,,,
,,,,,,5f857edcc4d42502bec40821,62bbf9d772d3464813959fd7,2022-06-29_10h07.24.761,Colour_Asymmetry_Pilot,2022.1.3,Win32,20.00080003,62bbe60bf3d75ef465d3e404,0,160,160,111,1,fourthree,,,,,,,,,,,,,,,,,,,,,,,,,,,,,,,,,,,,,,,,,,,,,,,,,,,,,,,,,,,,,,,,,,,,,,,,,,,,,,,,,,,,,,,,,,,,,,,,,,,,,,,,,,,,,,,,,,,,,,,,,,,,,,,,,,,,,,,,,,,,,,,,,,,,,,,,
,,,,,,5f857edcc4d42502bec40821,62bbf9d772d3464813959fd7,2022-06-29_10h07.24.761,Colour_Asymmetry_Pilot,2022.1.3,Win32,20.00080003,62bbe60bf3d75ef465d3e404,0,161,161,91,1,twofour,,,,,,,,,,,,,,,,,,,,,,,,,,,,,,,,,,,,,,,,,,,,,,,,,,,,,,,,,,,,,,,,,,,,,,,,,,,,,,,,,,,,,,,,,,,,,,,,,,,,,,,,,,,,,,,,,,,,,,,,,,,,,,,,,,,,,,,,,,,,,,,,,,,,,,,,
,,,,,,5f857edcc4d42502bec40821,62bbf9d772d3464813959fd7,2022-06-29_10h07.24.761,Colour_Asymmetry_Pilot,2022.1.3,Win32,20.00080003,62bbe60bf3d75ef465d3e404,,,,,,,space,4.42,space,9.237,space,25.979,space,6.765,space,3.038,space,5.079,"[0.18419999999999992,-0.4276,-0.404]",threeone,"[-0.10599999999999998,-0.15300000000000002,0.15280000000000005]",3,19.697,113,60.5,1,0,0,response1disk_5,-5,6.5,1,0,0,rectangle_8,60,-68.5,1,0,0,response3disk_7,4,2,-2,-4.5,1,0,0,rectangle_4,0,0,0,0,1,,,,,,,,,,,,,,,,,,,,,,,,,,,,,,,,,,,,,,,,,,,,,,,,,,,,,,,,,,,,,,,,,,,,,,,,,,,,,,,,,,,,,,,,,,,,,,,,,,,,,,,,
,,,,,,5f857edcc4d42502bec40821,62bbf9d772d3464813959fd7,2022-06-29_10h07.24.761,Colour_Asymmetry_Pilot,2022.1.3,Win32,20.00080003,62bbe60bf3d75ef465d3e404,,,,,,,,,,,,,,,,,,,"[0.3568,-0.20799999999999996,-0.9844]",fourthree,"[0.7018,0.7802,-0.16079999999999994]",1,4.135,74,-99.5,1,0,0,response3disk_5,10,-2.5,1,0,0,rectangle_8,10,-2.5,1,0,0,,,2,10,-2.5,1,0,0,,1,0,1,0,1,,,,,,,,,,,,,,,,,,,,,,,,,,,,,,,,,,,,,,,,,,,,,,,,,,,,,,,,,,,,,,,,,,,,,,,,,,,,,,,,,,,,,,,,,,,,,,,,,,,,,,,,
,,,,,,5f857edcc4d42502bec40821,62bbf9d772d3464813959fd7,2022-06-29_10h07.24.761,Colour_Asymmetry_Pilot,2022.1.3,Win32,20.00080003,62bbe60bf3d75ef465d3e404,,,,,,,,,,,,,,,,,,,"[0.11359999999999992,0.6312,0.5213999999999999]",twofour,"[0.3568,-0.20799999999999996,-0.9844]",-4,18.267,-47,62.5,1,0,0,response7disk_5,30,-3.5,1,0,0,rectangle_8,30,-3.5,1,0,0,,,2,30,-3.5,1,0,0,,2,0,2,0,1,,,,,,,,,,,,,,,,,,,,,,,,,,,,,,,,,,,,,,,,,,,,,,,,,,,,,,,,,,,,,,,,,,,,,,,,,,,,,,,,,,,,,,,,,,,,,,,,,,,,,,,,
,,,,,,5f857edcc4d42502bec40821,62bbf9d772d3464813959fd7,2022-06-29_10h07.24.761,Colour_Asymmetry_Pilot,2022.1.3,Win32,20.00080003,62bbe60bf3d75ef465d3e404,,,,,,,,,,,,,,,,,,,"[-0.07459999999999989,0.12139999999999995,-0.9922]",twofour,"[-0.9688,-0.38039999999999996,-0.41979999999999995]",1,2.604,50,-67.5,1,0,0,response3disk_5,-22,-4.5,1,0,0,rectangle_8,61,-84.5,1,0,0,response3disk_7,4,2,23,-15.5,1,0,0,rectangle_4,3,0,3,0,1,,,,,,,,,,,,,,,,,,,,,,,,,,,,,,,,,,,,,,,,,,,,,,,,,,,,,,,,,,,,,,,,,,,,,,,,,,,,,,,,,,,,,,,,,,,,,,,,,,,,,,,,
,,,,,,5f857edcc4d42502bec40821,62bbf9d772d3464813959fd7,2022-06-29_10h07.24.761,Colour_Asymmetry_Pilot,2022.1.3,Win32,20.00080003,62bbe60bf3d75ef465d3e404,,,,,,,,,,,,,,,,,,,"[0.5449999999999999,-0.31000000000000005,-0.0354000000000001]",onetwo,"[0.9372,0.9450000000000001,0.8980000000000001]",-4,3.014,-79,83.5,1,0,0,response7disk_5,-17,-10.5,1,0,0,rectangle_8,-17,-10.5,1,0,0,,,2,-17,-10.5,1,0,0,,4,0,4,0,1,,,,,,,,,,,,,,,,,,,,,,,,,,,,,,,,,,,,,,,,,,,,,,,,,,,,,,,,,,,,,,,,,,,,,,,,,,,,,,,,,,,,,,,,,,,,,,,,,,,,,,,,
,,,,,,5f857edcc4d42502bec40821,62bbf9d772d3464813959fd7,2022-06-29_10h07.24.761,Colour_Asymmetry_Pilot,2022.1.3,Win32,20.00080003,62bbe60bf3d75ef465d3e404,,,,,,,,,,,,,,,,,,,"[-0.01980000000000004,-0.5138,-0.38039999999999996]",onethree,"[0.4196,0.4665999999999999,0.3568]",-3,3.721,-108,91.5,1,0,0,response7disk_5,-9,10.5,1,0,0,rectangle_8,-9,10.5,1,0,0,,,2,-9,10.5,1,0,0,,5,0,5,0,1,,,,,,,,,,,,,,,,,,,,,,,,,,,,,,,,,,,,,,,,,,,,,,,,,,,,,,,,,,,,,,,,,,,,,,,,,,,,,,,,,,,,,,,,,,,,,,,,,,,,,,,,
,,,,,,5f857edcc4d42502bec40821,62bbf9d772d3464813959fd7,2022-06-29_10h07.24.761,Colour_Asymmetry_Pilot,2022.1.3,Win32,20.00080003,62bbe60bf3d75ef465d3e404,,,,,,,,,,,,,,,,,,,"[0.3881999999999999,-0.23939999999999995,-0.05040000000000011]",fourthree,"[0.23120000000000007,-0.7726,-0.34120000000000006]",4,3.542,57,93.5,1,0,0,response1disk_5,-16,12.5,1,0,0,rectangle_8,-16,12.5,1,0,0,,,2,-16,12.5,1,0,0,,6,0,6,0,1,,,,,,,,,,,,,,,,,,,,,,,,,,,,,,,,,,,,,,,,,,,,,,,,,,,,,,,,,,,,,,,,,,,,,,,,,,,,,,,,,,,,,,,,,,,,,,,,,,,,,,,,
,,,,,,5f857edcc4d42502bec40821,62bbf9d772d3464813959fd7,2022-06-29_10h07.24.761,Colour_Asymmetry_Pilot,2022.1.3,Win32,20.00080003,62bbe60bf3d75ef465d3e404,,,,,,,,,,,,,,,,,,,,onethree,,-3,2.308,,,,,,,,,,,,,,,,,,,,,,,,,,,,,,,,space,5.258,"[-0.06680000000000008,-0.45100000000000007,-0.906]","[-0.24719999999999998,-0.0354000000000001,0.3175999999999999]",-105,92.5,1,0,0,response7disk,23,-1.5,1,0,0,rectangle,23,-1.5,1,0,0,,2,0.002,0,23,-1.5,1,0,0,0,0,0,14,1,14,first,,,,,,,,,,,,,,,,,,,,,,,,,,,,,,,,,,,,,,,,,,,,,,,,,,,,,,,,,,,,,,,,,,,
,,,,,,5f857edcc4d42502bec40821,62bbf9d772d3464813959fd7,2022-06-29_10h07.24.761,Colour_Asymmetry_Pilot,2022.1.3,Win32,20.00080003,62bbe60bf3d75ef465d3e404,,,,,,,,,,,,,,,,,,,,twoone,,-4,3.848,,,,,,,,,,,,,,,,,,,,,,,,,,,,,,,,,,"[0.8115999999999999,-0.0040000000000000036,-0.09819999999999995]","[-0.5688,-0.08239999999999992,-0.1844]",-91,100.5,1,0,0,response7disk,5,4.5,1,0,0,rectangle,-114,56.5,1,0,0,-3,3,3.479,1,29,-0.5,1,0,0,0,1,1,76,1,76,first,response7disk_3,rectangle,,,,,,,,,,,,,,,,,,,,,,,,,,,,,,,,,,,,,,,,,,,,,,,,,,,,,,,,,,,,,,,,,
,,,,,,5f857edcc4d42502bec40821,62bbf9d772d3464813959fd7,2022-06-29_10h07.24.761,Colour_Asymmetry_Pilot,2022.1.3,Win32,20.00080003,62bbe60bf3d75ef465d3e404,,,,,,,,,,,,,,,,,,,,fourthree,,-4,2.053,,,,,,,,,,,,,,,,,,,,,,,,,,,,,,,,,,"[-0.07459999999999989,0.12139999999999995,-0.9922]","[0.18419999999999992,-0.4276,-0.404]",-57,88.5,1,0,0,response7disk,0,3.5,1,0,0,rectangle,0,3.5,1,0,0,-3,3,0,0,0,3.5,1,0,0,0,2,2,38,1,38,first,,,,,,,,,,,,,,,,,,,,,,,,,,,,,,,,,,,,,,,,,,,,,,,,,,,,,,,,,,,,,,,,,,,
,,,,,,5f857edcc4d42502bec40821,62bbf9d772d3464813959fd7,2022-06-29_10h07.24.761,Colour_Asymmetry_Pilot,2022.1.3,Win32,20.00080003,62bbe60bf3d75ef465d3e404,,,,,,,,,,,,,,,,,,,,onethree,,-3,3.832,,,,,,,,,,,,,,,,,,,,,,,,,,,,,,,,,,"[0.34099999999999997,0.5841999999999998,-0.9844]","[-0.8118,-0.8198,-0.5452]",-124,43.5,1,0,0,response7disk,-17,-5.5,1,0,0,rectangle,-17,-5.5,1,0,0,-3,3,0,0,-17,-5.5,1,0,0,0,3,3,133,1,52,second,,,,,,,,,,,,,,,,,,,,,,,,,,,,,,,,,,,,,,,,,,,,,,,,,,,,,,,,,,,,,,,,,,,
,,,,,,5f857edcc4d42502bec40821,62bbf9d772d3464813959fd7,2022-06-29_10h07.24.761,Colour_Asymmetry_Pilot,2022.1.3,Win32,20.00080003,62bbe60bf3d75ef465d3e404,,,,,,,,,,,,,,,,,,,,onethree,,-3,2.134,,,,,,,,,,,,,,,,,,,,,,,,,,,,,,,,,,"[0.8274000000000001,-0.5844,-0.9452]","[-0.10599999999999998,-0.10599999999999998,0.5841999999999998]",-108,67.5,1,0,0,response7disk,-16,-1.5,1,0,0,rectangle,-16,-1.5,1,0,0,-3,2,0.001,0,-16,-1.5,1,0,0,0,4,4,27,1,27,first,,,,,,,,,,,,,,,,,,,,,,,,,,,,,,,,,,,,,,,,,,,,,,,,,,,,,,,,,,,,,,,,,,,
,,,,,,5f857edcc4d42502bec40821,62bbf9d772d3464813959fd7,2022-06-29_10h07.24.761,Colour_Asymmetry_Pilot,2022.1.3,Win32,20.00080003,62bbe60bf3d75ef465d3e404,,,,,,,,,,,,,,,,,,,,onetwo,,-3,1.533,,,,,,,,,,,,,,,,,,,,,,,,,,,,,,,,,,"[-0.20799999999999996,-0.655,-0.01980000000000004]","[-0.050999999999999934,-0.6706000000000001,-0.804]",-119,84.5,1,0,0,response7disk,-4,2.5,1,0,0,rectangle,-4,2.5,1,0,0,-3,1,0.001,0,-4,2.5,1,0,0,0,5,5,2,1,2,first,,,,,,,,,,,,,,,,,,,,,,,,,,,,,,,,,,,,,,,,,,,,,,,,,,,,,,,,,,,,,,,,,,,
,,,,,,5f857edcc4d42502bec40821,62bbf9d772d3464813959fd7,2022-06-29_10h07.24.761,Colour_Asymmetry_Pilot,2022.1.3,Win32,20.00080003,62bbe60bf3d75ef465d3e404,,,,,,,,,,,,,,,,,,,,onethree,,4,1.471,,,,,,,,,,,,,,,,,,,,,,,,,,,,,,,,,,"[0.09799999999999986,-0.24719999999999998,0.15280000000000005]","[-0.6942,-0.7648,-0.12959999999999994]",53,77.5,1,0,0,response1disk,-23,-3.5,1,0,0,rectangle,-23,-3.5,1,0,0,-3,1,0,0,-23,-3.5,1,0,0,0,6,6,142,1,61,second,,,,,,,,,,,,,,,,,,,,,,,,,,,,,,,,,,,,,,,,,,,,,,,,,,,,,,,,,,,,,,,,,,,
,,,,,,5f857edcc4d42502bec40821,62bbf9d772d3464813959fd7,2022-06-29_10h07.24.761,Colour_Asymmetry_Pilot,2022.1.3,Win32,20.00080003,62bbe60bf3d75ef465d3e404,,,,,,,,,,,,,,,,,,,,threeone,,-3,1.293,,,,,,,,,,,,,,,,,,,,,,,,,,,,,,,,,,"[0.23120000000000007,-0.7726,-0.34120000000000006]","[0.9763999999999999,0.8588,-0.05900000000000005]",-116,74.5,1,0,0,response7disk,6,9.5,1,0,0,rectangle,6,9.5,1,0,0,-3,3,0.001,0,6,9.5,1,0,0,0,7,7,37,1,37,first,,,,,,,,,,,,,,,,,,,,,,,,,,,,,,,,,,,,,,,,,,,,,,,,,,,,,,,,,,,,,,,,,,,
,,,,,,5f857edcc4d42502bec40821,62bbf9d772d3464813959fd7,2022-06-29_10h07.24.761,Colour_Asymmetry_Pilot,2022.1.3,Win32,20.00080003,62bbe60bf3d75ef465d3e404,,,,,,,,,,,,,,,,,,,,fourthree,,-3,3.188,,,,,,,,,,,,,,,,,,,,,,,,,,,,,,,,,,"[0.22340000000000004,-0.9296,-0.7884]","[0.8115999999999999,-0.0040000000000000036,-0.09819999999999995]",-86,46.5,1,0,0,response7disk,-26,-0.5,1,0,0,rectangle,-26,-0.5,1,0,0,-3,3,0,0,-26,-0.5,1,0,0,0,8,8,51,1,51,first,,,,,,,,,,,,,,,,,,,,,,,,,,,,,,,,,,,,,,,,,,,,,,,,,,,,,,,,,,,,,,,,,,,
,,,,,,5f857edcc4d42502bec40821,62bbf9d772d3464813959fd7,2022-06-29_10h07.24.761,Colour_Asymmetry_Pilot,2022.1.3,Win32,20.00080003,62bbe60bf3d75ef465d3e404,,,,,,,,,,,,,,,,,,,,fourtwo,,1,2.357,,,,,,,,,,,,,,,,,,,,,,,,,,,,,,,,,,"[-0.4902000000000001,0.2704,-0.45899999999999996]","[0.09799999999999986,-0.24719999999999998,0.15280000000000005]",69,-90.5,1,0,0,response3disk,-30,-6.5,1,0,0,rectangle,-30,-6.5,1,0,0,-3,2,0.001,0,-30,-6.5,1,0,0,0,9,9,144,1,63,second,,,,,,,,,,,,,,,,,,,,,,,,,,,,,,,,,,,,,,,,,,,,,,,,,,,,,,,,,,,,,,,,,,,
,,,,,,5f857edcc4d42502bec40821,62bbf9d772d3464813959fd7,2022-06-29_10h07.24.761,Colour_Asymmetry_Pilot,2022.1.3,Win32,20.00080003,62bbe60bf3d75ef465d3e404,,,,,,,,,,,,,,,,,,,,onetwo,,-4,1.21,,,,,,,,,,,,,,,,,,,,,,,,,,,,,,,,,,"[-0.5452,-0.608,0.2470000000000001]","[0.34099999999999997,0.5841999999999998,-0.9844]",-92,98.5,1,0,0,response7disk,-30,4.5,1,0,0,rectangle,-30,4.5,1,0,0,-3,1,0.002,0,-30,4.5,1,0,0,0,10,10,100,1,19,second,,,,,,,,,,,,,,,,,,,,,,,,,,,,,,,,,,,,,,,,,,,,,,,,,,,,,,,,,,,,,,,,,,,
,,,,,,5f857edcc4d42502bec40821,62bbf9d772d3464813959fd7,2022-06-29_10h07.24.761,Colour_Asymmetry_Pilot,2022.1.3,Win32,20.00080003,62bbe60bf3d75ef465d3e404,,,,,,,,,,,,,,,,,,,,twoone,,3,1.201,,,,,,,,,,,,,,,,,,,,,,,,,,,,,,,,,,"[-0.011800000000000033,-0.906,-0.45100000000000007]","[0.7176,-0.906,-0.6864]",98,90.5,1,0,0,response1disk,-38,-6.5,1,0,0,rectangle,-38,-6.5,1,0,0,-3,3,0.001,0,-38,-6.5,1,0,0,0,11,11,92,1,11,second,,,,,,,,,,,,,,,,,,,,,,,,,,,,,,,,,,,,,,,,,,,,,,,,,,,,,,,,,,,,,,,,,,,
,,,,,,5f857edcc4d42502bec40821,62bbf9d772d3464813959fd7,2022-06-29_10h07.24.761,Colour_Asymmetry_Pilot,2022.1.3,Win32,20.00080003,62bbe60bf3d75ef465d3e404,,,,,,,,,,,,,,,,,,,,threeone,,-3,0.942,,,,,,,,,,,,,,,,,,,,,,,,,,,,,,,,,,"[-0.4902000000000001,0.2704,-0.45899999999999996]","[-0.06680000000000008,-0.45100000000000007,-0.906]",-100,78.5,1,0,0,response7disk,-7,-8.5,1,0,0,rectangle,-7,-8.5,1,0,0,-3,1,0.001,0,-7,-8.5,1,0,0,0,12,12,91,1,10,second,,,,,,,,,,,,,,,,,,,,,,,,,,,,,,,,,,,,,,,,,,,,,,,,,,,,,,,,,,,,,,,,,,,
,,,,,,5f857edcc4d42502bec40821,62bbf9d772d3464813959fd7,2022-06-29_10h07.24.761,Colour_Asymmetry_Pilot,2022.1.3,Win32,20.00080003,62bbe60bf3d75ef465d3e404,,,,,,,,,,,,,,,,,,,,fourtwo,,2,3.013,,,,,,,,,,,,,,,,,,,,,,,,,,,,,,,,,,"[-0.30200000000000005,0.14500000000000002,0.2784]","[0.9213999999999998,0.6391999999999998,-0.9922]",109,-100.5,1,0,0,response3disk,-11,-3.5,1,0,0,rectangle,-11,-3.5,1,0,0,-3,1,0,0,-11,-3.5,1,0,0,0,13,13,64,1,64,first,,,,,,,,,,,,,,,,,,,,,,,,,,,,,,,,,,,,,,,,,,,,,,,,,,,,,,,,,,,,,,,,,,,
,,,,,,5f857edcc4d42502bec40821,62bbf9d772d3464813959fd7,2022-06-29_10h07.24.761,Colour_Asymmetry_Pilot,2022.1.3,Win32,20.00080003,62bbe60bf3d75ef465d3e404,,,,,,,,,,,,,,,,,,,,threeone,,-4,1.764,,,,,,,,,,,,,,,,,,,,,,,,,,,,,,,,,,"[-0.26280000000000003,-0.4746,-0.2158]","[-0.050999999999999934,-0.6706000000000001,-0.804]",-67,92.5,1,0,0,response7disk,-34,1.5,1,0,0,rectangle,-34,1.5,1,0,0,-3,3,0.001,0,-34,1.5,1,0,0,0,14,14,65,1,65,first,,,,,,,,,,,,,,,,,,,,,,,,,,,,,,,,,,,,,,,,,,,,,,,,,,,,,,,,,,,,,,,,,,,
,,,,,,5f857edcc4d42502bec40821,62bbf9d772d3464813959fd7,2022-06-29_10h07.24.761,Colour_Asymmetry_Pilot,2022.1.3,Win32,20.00080003,62bbe60bf3d75ef465d3e404,,,,,,,,,,,,,,,,,,,,threeone,,-3,2.325,,,,,,,,,,,,,,,,,,,,,,,,,,,,,,,,,,"[-0.0040000000000000036,0.02739999999999987,-0.08239999999999992]","[0.5528,0.7409999999999999,-0.71]",-113,50.5,1,0,0,response7disk,7,-8.5,1,0,0,rectangle,7,-8.5,1,0,0,-3,1,0.001,0,7,-8.5,1,0,0,0,15,15,21,1,21,first,,,,,,,,,,,,,,,,,,,,,,,,,,,,,,,,,,,,,,,,,,,,,,,,,,,,,,,,,,,,,,,,,,,
,,,,,,5f857edcc4d42502bec40821,62bbf9d772d3464813959fd7,2022-06-29_10h07.24.761,Colour_Asymmetry_Pilot,2022.1.3,Win32,20.00080003,62bbe60bf3d75ef465d3e404,,,,,,,,,,,,,,,,,,,,threefour,,-1,3.422,,,,,,,,,,,,,,,,,,,,,,,,,,,,,,,,,,"[-0.10599999999999998,-0.10599999999999998,0.5841999999999998]","[-0.2942,-0.24719999999999998,-0.357]",-50,-95.5,1,0,0,response5disk,-6,-6.5,1,0,0,rectangle,-6,-6.5,1,0,0,-3,2,0.002,0,-6,-6.5,1,0,0,0,16,16,158,1,77,second,,,,,,,,,,,,,,,,,,,,,,,,,,,,,,,,,,,,,,,,,,,,,,,,,,,,,,,,,,,,,,,,,,,
,,,,,,5f857edcc4d42502bec40821,62bbf9d772d3464813959fd7,2022-06-29_10h07.24.761,Colour_Asymmetry_Pilot,2022.1.3,Win32,20.00080003,62bbe60bf3d75ef465d3e404,,,,,,,,,,,,,,,,,,,,threeone,,-3,0.968,,,,,,,,,,,,,,,,,,,,,,,,,,,,,,,,,,"[0.34099999999999997,0.5841999999999998,-0.9844]","[-0.5452,-0.608,0.2470000000000001]",-94,68.5,1,0,0,response7disk,-13,-4.5,1,0,0,rectangle,-13,-4.5,1,0,0,-3,3,0.001,0,-13,-4.5,1,0,0,0,17,17,19,1,19,first,,,,,,,,,,,,,,,,,,,,,,,,,,,,,,,,,,,,,,,,,,,,,,,,,,,,,,,,,,,,,,,,,,,
,,,,,,5f857edcc4d42502bec40821,62bbf9d772d3464813959fd7,2022-06-29_10h07.24.761,Colour_Asymmetry_Pilot,2022.1.3,Win32,20.00080003,62bbe60bf3d75ef465d3e404,,,,,,,,,,,,,,,,,,,,fourthree,,-1,1.291,,,,,,,,,,,,,,,,,,,,,,,,,,,,,,,,,,"[-0.0040000000000000036,0.02739999999999987,-0.08239999999999992]","[-0.24719999999999998,-0.0354000000000001,0.3175999999999999]",-97,-102.5,1,0,0,response5disk,21,11.5,1,0,0,rectangle,21,11.5,1,0,0,-3,3,0,0,21,11.5,1,0,0,0,18,18,154,1,73,second,,,,,,,,,,,,,,,,,,,,,,,,,,,,,,,,,,,,,,,,,,,,,,,,,,,,,,,,,,,,,,,,,,,
,,,,,,5f857edcc4d42502bec40821,62bbf9d772d3464813959fd7,2022-06-29_10h07.24.761,Colour_Asymmetry_Pilot,2022.1.3,Win32,20.00080003,62bbe60bf3d75ef465d3e404,,,,,,,,,,,,,,,,,,,,onethree,,3,2.416,,,,,,,,,,,,,,,,,,,,,,,,,,,,,,,,,,"[-0.38039999999999996,-0.4276,-0.1452]","[-0.26280000000000003,-0.4746,-0.2158]",74,71.5,1,0,0,response1disk,28,3.5,1,0,0,rectangle,28,3.5,1,0,0,-3,2,0.001,0,28,3.5,1,0,0,0,19,19,13,1,13,first,,,,,,,,,,,,,,,,,,,,,,,,,,,,,,,,,,,,,,,,,,,,,,,,,,,,,,,,,,,,,,,,,,,
