trials.thisRepN,trials.thisTrialN,trials.thisN,trials.thisIndex,trials.ran,Colourcodes,participant,session,date,expName,psychopyVersion,OS,frameRate,study_id,trials_4.thisRepN,trials_4.thisTrialN,trials_4.thisN,trials_4.thisIndex,trials_4.ran,StimulusPos,key_resp.keys,key_resp.rt,key_resp_2.keys,key_resp_2.rt,key_resp_15.keys,key_resp_15.rt,key_resp_17.keys,key_resp_17.rt,key_resp_9.keys,key_resp_9.rt,key_resp_10.keys,key_resp_10.rt,Circle1_col,Ecc,Circle2_col,similarity,response_time,mouse_5.x,mouse_5.y,mouse_5.leftButton,mouse_5.midButton,mouse_5.rightButton,mouse_5.clicked_name,mouse_10.x,mouse_10.y,mouse_10.leftButton,mouse_10.midButton,mouse_10.rightButton,mouse_10.clicked_name,mouse_7.x,mouse_7.y,mouse_7.leftButton,mouse_7.midButton,mouse_7.rightButton,catchnumberprac,mouse_6.x,mouse_6.y,mouse_6.leftButton,mouse_6.midButton,mouse_6.rightButton,duringprac.thisRepN,duringprac.thisTrialN,duringprac.thisN,duringprac.thisIndex,duringprac.ran,mouse_7.clicked_name,catchprac,mouse_6.clicked_name,key_resp_22.keys,key_resp_22.rt,Circle1_colour,Circle2_colour,mouse.x,mouse.y,mouse.leftButton,mouse.midButton,mouse.rightButton,mouse.clicked_name,mouse_2.x,mouse_2.y,mouse_2.leftButton,mouse_2.midButton,mouse_2.rightButton,mouse_2.clicked_name,mouse_3.x,mouse_3.y,mouse_3.leftButton,mouse_3.midButton,mouse_3.rightButton,catchresponse,catchnumber,response_time_catch,Catch,mouse_11.x,mouse_11.y,mouse_11.leftButton,mouse_11.midButton,mouse_11.rightButton,trials_2.thisRepN,trials_2.thisTrialN,trials_2.thisN,trials_2.thisIndex,trials_2.ran,Colourpair,Temporder,mouse_3.clicked_name,mouse_11.clicked_name,trials_3.thisRepN,trials_3.thisTrialN,trials_3.thisN,trials_3.thisIndex,trials_3.ran,key_resp_instr_Ishi.keys,key_resp_instr_Ishi.rt,Ishi_trial_keyresp.keys,Ishi_trial_keyresp.rt,Ishi_textbox.text,Ishi_loop.thisRepN,Ishi_loop.thisTrialN,Ishi_loop.thisN,Ishi_loop.thisIndex,Ishi_loop.ran,imageaddress,textbox.text,mouse_4.x,mouse_4.y,mouse_4.leftButton,mouse_4.midButton,mouse_4.rightButton,mouse_4.clicked_name,textbox_2.text,mouse_8.x,mouse_8.y,mouse_8.leftButton,mouse_8.midButton,mouse_8.rightButton,mouse_8.clicked_name,textbox_3.text,mouse_9.x,mouse_9.y,mouse_9.leftButton,mouse_9.midButton,mouse_9.rightButton,mouse_9.clicked_name,textbox_4.text,mouse_12.x,mouse_12.y,mouse_12.leftButton,mouse_12.midButton,mouse_12.rightButton,mouse_12.clicked_name,textbox_5.text,mouse_13.x,mouse_13.y,mouse_13.leftButton,mouse_13.midButton,mouse_13.rightButton,mouse_13.clicked_name,textbox_6.text,mouse_14.x,mouse_14.y,mouse_14.leftButton,mouse_14.midButton,mouse_14.rightButton,mouse_14.clicked_name,textbox_7.text,mouse_15.x,mouse_15.y,mouse_15.leftButton,mouse_15.midButton,mouse_15.rightButton,mouse_15.clicked_name
0,0,0,48,1,,5c558bdd8925db000118c0a2,62bbfb520ebbeb5d2e6a7de7,2022-06-29_09h12.35.561,Colour_Asymmetry_Pilot,2022.1.3,Win32,60.12144532,62bbe60bf3d75ef465d3e404,,,,,,,,,,,,,,,,,,,,,,,,,,,,,,,,,,,,,,,,,,,,,,,,,,,,,,,,,,,,,,,,,,,,,,,,,,,,,,,,,,,,,,,,,,,,,,,,,,,,,,,,,,,,,,,,,,,,,,,,,,,,,,,,,,,,,,,,,,,,,,,,,,,,,,,,,,,,,,
0,1,1,85,1,,5c558bdd8925db000118c0a2,62bbfb520ebbeb5d2e6a7de7,2022-06-29_09h12.35.561,Colour_Asymmetry_Pilot,2022.1.3,Win32,60.12144532,62bbe60bf3d75ef465d3e404,,,,,,,,,,,,,,,,,,,,,,,,,,,,,,,,,,,,,,,,,,,,,,,,,,,,,,,,,,,,,,,,,,,,,,,,,,,,,,,,,,,,,,,,,,,,,,,,,,,,,,,,,,,,,,,,,,,,,,,,,,,,,,,,,,,,,,,,,,,,,,,,,,,,,,,,,,,,,,
0,2,2,35,1,,5c558bdd8925db000118c0a2,62bbfb520ebbeb5d2e6a7de7,2022-06-29_09h12.35.561,Colour_Asymmetry_Pilot,2022.1.3,Win32,60.12144532,62bbe60bf3d75ef465d3e404,,,,,,,,,,,,,,,,,,,,,,,,,,,,,,,,,,,,,,,,,,,,,,,,,,,,,,,,,,,,,,,,,,,,,,,,,,,,,,,,,,,,,,,,,,,,,,,,,,,,,,,,,,,,,,,,,,,,,,,,,,,,,,,,,,,,,,,,,,,,,,,,,,,,,,,,,,,,,,
0,3,3,13,1,,5c558bdd8925db000118c0a2,62bbfb520ebbeb5d2e6a7de7,2022-06-29_09h12.35.561,Colour_Asymmetry_Pilot,2022.1.3,Win32,60.12144532,62bbe60bf3d75ef465d3e404,,,,,,,,,,,,,,,,,,,,,,,,,,,,,,,,,,,,,,,,,,,,,,,,,,,,,,,,,,,,,,,,,,,,,,,,,,,,,,,,,,,,,,,,,,,,,,,,,,,,,,,,,,,,,,,,,,,,,,,,,,,,,,,,,,,,,,,,,,,,,,,,,,,,,,,,,,,,,,
0,4,4,14,1,,5c558bdd8925db000118c0a2,62bbfb520ebbeb5d2e6a7de7,2022-06-29_09h12.35.561,Colour_Asymmetry_Pilot,2022.1.3,Win32,60.12144532,62bbe60bf3d75ef465d3e404,,,,,,,,,,,,,,,,,,,,,,,,,,,,,,,,,,,,,,,,,,,,,,,,,,,,,,,,,,,,,,,,,,,,,,,,,,,,,,,,,,,,,,,,,,,,,,,,,,,,,,,,,,,,,,,,,,,,,,,,,,,,,,,,,,,,,,,,,,,,,,,,,,,,,,,,,,,,,,
0,5,5,73,1,,5c558bdd8925db000118c0a2,62bbfb520ebbeb5d2e6a7de7,2022-06-29_09h12.35.561,Colour_Asymmetry_Pilot,2022.1.3,Win32,60.12144532,62bbe60bf3d75ef465d3e404,,,,,,,,,,,,,,,,,,,,,,,,,,,,,,,,,,,,,,,,,,,,,,,,,,,,,,,,,,,,,,,,,,,,,,,,,,,,,,,,,,,,,,,,,,,,,,,,,,,,,,,,,,,,,,,,,,,,,,,,,,,,,,,,,,,,,,,,,,,,,,,,,,,,,,,,,,,,,,
0,6,6,70,1,,5c558bdd8925db000118c0a2,62bbfb520ebbeb5d2e6a7de7,2022-06-29_09h12.35.561,Colour_Asymmetry_Pilot,2022.1.3,Win32,60.12144532,62bbe60bf3d75ef465d3e404,,,,,,,,,,,,,,,,,,,,,,,,,,,,,,,,,,,,,,,,,,,,,,,,,,,,,,,,,,,,,,,,,,,,,,,,,,,,,,,,,,,,,,,,,,,,,,,,,,,,,,,,,,,,,,,,,,,,,,,,,,,,,,,,,,,,,,,,,,,,,,,,,,,,,,,,,,,,,,
0,7,7,80,1,,5c558bdd8925db000118c0a2,62bbfb520ebbeb5d2e6a7de7,2022-06-29_09h12.35.561,Colour_Asymmetry_Pilot,2022.1.3,Win32,60.12144532,62bbe60bf3d75ef465d3e404,,,,,,,,,,,,,,,,,,,,,,,,,,,,,,,,,,,,,,,,,,,,,,,,,,,,,,,,,,,,,,,,,,,,,,,,,,,,,,,,,,,,,,,,,,,,,,,,,,,,,,,,,,,,,,,,,,,,,,,,,,,,,,,,,,,,,,,,,,,,,,,,,,,,,,,,,,,,,,
0,8,8,86,1,,5c558bdd8925db000118c0a2,62bbfb520ebbeb5d2e6a7de7,2022-06-29_09h12.35.561,Colour_Asymmetry_Pilot,2022.1.3,Win32,60.12144532,62bbe60bf3d75ef465d3e404,,,,,,,,,,,,,,,,,,,,,,,,,,,,,,,,,,,,,,,,,,,,,,,,,,,,,,,,,,,,,,,,,,,,,,,,,,,,,,,,,,,,,,,,,,,,,,,,,,,,,,,,,,,,,,,,,,,,,,,,,,,,,,,,,,,,,,,,,,,,,,,,,,,,,,,,,,,,,,
0,9,9,43,1,,5c558bdd8925db000118c0a2,62bbfb520ebbeb5d2e6a7de7,2022-06-29_09h12.35.561,Colour_Asymmetry_Pilot,2022.1.3,Win32,60.12144532,62bbe60bf3d75ef465d3e404,,,,,,,,,,,,,,,,,,,,,,,,,,,,,,,,,,,,,,,,,,,,,,,,,,,,,,,,,,,,,,,,,,,,,,,,,,,,,,,,,,,,,,,,,,,,,,,,,,,,,,,,,,,,,,,,,,,,,,,,,,,,,,,,,,,,,,,,,,,,,,,,,,,,,,,,,,,,,,
0,10,10,46,1,,5c558bdd8925db000118c0a2,62bbfb520ebbeb5d2e6a7de7,2022-06-29_09h12.35.561,Colour_Asymmetry_Pilot,2022.1.3,Win32,60.12144532,62bbe60bf3d75ef465d3e404,,,,,,,,,,,,,,,,,,,,,,,,,,,,,,,,,,,,,,,,,,,,,,,,,,,,,,,,,,,,,,,,,,,,,,,,,,,,,,,,,,,,,,,,,,,,,,,,,,,,,,,,,,,,,,,,,,,,,,,,,,,,,,,,,,,,,,,,,,,,,,,,,,,,,,,,,,,,,,
0,11,11,49,1,,5c558bdd8925db000118c0a2,62bbfb520ebbeb5d2e6a7de7,2022-06-29_09h12.35.561,Colour_Asymmetry_Pilot,2022.1.3,Win32,60.12144532,62bbe60bf3d75ef465d3e404,,,,,,,,,,,,,,,,,,,,,,,,,,,,,,,,,,,,,,,,,,,,,,,,,,,,,,,,,,,,,,,,,,,,,,,,,,,,,,,,,,,,,,,,,,,,,,,,,,,,,,,,,,,,,,,,,,,,,,,,,,,,,,,,,,,,,,,,,,,,,,,,,,,,,,,,,,,,,,
0,12,12,19,1,,5c558bdd8925db000118c0a2,62bbfb520ebbeb5d2e6a7de7,2022-06-29_09h12.35.561,Colour_Asymmetry_Pilot,2022.1.3,Win32,60.12144532,62bbe60bf3d75ef465d3e404,,,,,,,,,,,,,,,,,,,,,,,,,,,,,,,,,,,,,,,,,,,,,,,,,,,,,,,,,,,,,,,,,,,,,,,,,,,,,,,,,,,,,,,,,,,,,,,,,,,,,,,,,,,,,,,,,,,,,,,,,,,,,,,,,,,,,,,,,,,,,,,,,,,,,,,,,,,,,,
0,13,13,41,1,,5c558bdd8925db000118c0a2,62bbfb520ebbeb5d2e6a7de7,2022-06-29_09h12.35.561,Colour_Asymmetry_Pilot,2022.1.3,Win32,60.12144532,62bbe60bf3d75ef465d3e404,,,,,,,,,,,,,,,,,,,,,,,,,,,,,,,,,,,,,,,,,,,,,,,,,,,,,,,,,,,,,,,,,,,,,,,,,,,,,,,,,,,,,,,,,,,,,,,,,,,,,,,,,,,,,,,,,,,,,,,,,,,,,,,,,,,,,,,,,,,,,,,,,,,,,,,,,,,,,,
0,14,14,78,1,,5c558bdd8925db000118c0a2,62bbfb520ebbeb5d2e6a7de7,2022-06-29_09h12.35.561,Colour_Asymmetry_Pilot,2022.1.3,Win32,60.12144532,62bbe60bf3d75ef465d3e404,,,,,,,,,,,,,,,,,,,,,,,,,,,,,,,,,,,,,,,,,,,,,,,,,,,,,,,,,,,,,,,,,,,,,,,,,,,,,,,,,,,,,,,,,,,,,,,,,,,,,,,,,,,,,,,,,,,,,,,,,,,,,,,,,,,,,,,,,,,,,,,,,,,,,,,,,,,,,,
0,15,15,17,1,,5c558bdd8925db000118c0a2,62bbfb520ebbeb5d2e6a7de7,2022-06-29_09h12.35.561,Colour_Asymmetry_Pilot,2022.1.3,Win32,60.12144532,62bbe60bf3d75ef465d3e404,,,,,,,,,,,,,,,,,,,,,,,,,,,,,,,,,,,,,,,,,,,,,,,,,,,,,,,,,,,,,,,,,,,,,,,,,,,,,,,,,,,,,,,,,,,,,,,,,,,,,,,,,,,,,,,,,,,,,,,,,,,,,,,,,,,,,,,,,,,,,,,,,,,,,,,,,,,,,,
0,16,16,84,1,,5c558bdd8925db000118c0a2,62bbfb520ebbeb5d2e6a7de7,2022-06-29_09h12.35.561,Colour_Asymmetry_Pilot,2022.1.3,Win32,60.12144532,62bbe60bf3d75ef465d3e404,,,,,,,,,,,,,,,,,,,,,,,,,,,,,,,,,,,,,,,,,,,,,,,,,,,,,,,,,,,,,,,,,,,,,,,,,,,,,,,,,,,,,,,,,,,,,,,,,,,,,,,,,,,,,,,,,,,,,,,,,,,,,,,,,,,,,,,,,,,,,,,,,,,,,,,,,,,,,,
0,17,17,12,1,,5c558bdd8925db000118c0a2,62bbfb520ebbeb5d2e6a7de7,2022-06-29_09h12.35.561,Colour_Asymmetry_Pilot,2022.1.3,Win32,60.12144532,62bbe60bf3d75ef465d3e404,,,,,,,,,,,,,,,,,,,,,,,,,,,,,,,,,,,,,,,,,,,,,,,,,,,,,,,,,,,,,,,,,,,,,,,,,,,,,,,,,,,,,,,,,,,,,,,,,,,,,,,,,,,,,,,,,,,,,,,,,,,,,,,,,,,,,,,,,,,,,,,,,,,,,,,,,,,,,,
0,18,18,82,1,,5c558bdd8925db000118c0a2,62bbfb520ebbeb5d2e6a7de7,2022-06-29_09h12.35.561,Colour_Asymmetry_Pilot,2022.1.3,Win32,60.12144532,62bbe60bf3d75ef465d3e404,,,,,,,,,,,,,,,,,,,,,,,,,,,,,,,,,,,,,,,,,,,,,,,,,,,,,,,,,,,,,,,,,,,,,,,,,,,,,,,,,,,,,,,,,,,,,,,,,,,,,,,,,,,,,,,,,,,,,,,,,,,,,,,,,,,,,,,,,,,,,,,,,,,,,,,,,,,,,,
0,19,19,7,1,,5c558bdd8925db000118c0a2,62bbfb520ebbeb5d2e6a7de7,2022-06-29_09h12.35.561,Colour_Asymmetry_Pilot,2022.1.3,Win32,60.12144532,62bbe60bf3d75ef465d3e404,,,,,,,,,,,,,,,,,,,,,,,,,,,,,,,,,,,,,,,,,,,,,,,,,,,,,,,,,,,,,,,,,,,,,,,,,,,,,,,,,,,,,,,,,,,,,,,,,,,,,,,,,,,,,,,,,,,,,,,,,,,,,,,,,,,,,,,,,,,,,,,,,,,,,,,,,,,,,,
0,20,20,71,1,,5c558bdd8925db000118c0a2,62bbfb520ebbeb5d2e6a7de7,2022-06-29_09h12.35.561,Colour_Asymmetry_Pilot,2022.1.3,Win32,60.12144532,62bbe60bf3d75ef465d3e404,,,,,,,,,,,,,,,,,,,,,,,,,,,,,,,,,,,,,,,,,,,,,,,,,,,,,,,,,,,,,,,,,,,,,,,,,,,,,,,,,,,,,,,,,,,,,,,,,,,,,,,,,,,,,,,,,,,,,,,,,,,,,,,,,,,,,,,,,,,,,,,,,,,,,,,,,,,,,,
0,21,21,9,1,,5c558bdd8925db000118c0a2,62bbfb520ebbeb5d2e6a7de7,2022-06-29_09h12.35.561,Colour_Asymmetry_Pilot,2022.1.3,Win32,60.12144532,62bbe60bf3d75ef465d3e404,,,,,,,,,,,,,,,,,,,,,,,,,,,,,,,,,,,,,,,,,,,,,,,,,,,,,,,,,,,,,,,,,,,,,,,,,,,,,,,,,,,,,,,,,,,,,,,,,,,,,,,,,,,,,,,,,,,,,,,,,,,,,,,,,,,,,,,,,,,,,,,,,,,,,,,,,,,,,,
0,22,22,10,1,,5c558bdd8925db000118c0a2,62bbfb520ebbeb5d2e6a7de7,2022-06-29_09h12.35.561,Colour_Asymmetry_Pilot,2022.1.3,Win32,60.12144532,62bbe60bf3d75ef465d3e404,,,,,,,,,,,,,,,,,,,,,,,,,,,,,,,,,,,,,,,,,,,,,,,,,,,,,,,,,,,,,,,,,,,,,,,,,,,,,,,,,,,,,,,,,,,,,,,,,,,,,,,,,,,,,,,,,,,,,,,,,,,,,,,,,,,,,,,,,,,,,,,,,,,,,,,,,,,,,,
0,23,23,26,1,,5c558bdd8925db000118c0a2,62bbfb520ebbeb5d2e6a7de7,2022-06-29_09h12.35.561,Colour_Asymmetry_Pilot,2022.1.3,Win32,60.12144532,62bbe60bf3d75ef465d3e404,,,,,,,,,,,,,,,,,,,,,,,,,,,,,,,,,,,,,,,,,,,,,,,,,,,,,,,,,,,,,,,,,,,,,,,,,,,,,,,,,,,,,,,,,,,,,,,,,,,,,,,,,,,,,,,,,,,,,,,,,,,,,,,,,,,,,,,,,,,,,,,,,,,,,,,,,,,,,,
0,24,24,50,1,,5c558bdd8925db000118c0a2,62bbfb520ebbeb5d2e6a7de7,2022-06-29_09h12.35.561,Colour_Asymmetry_Pilot,2022.1.3,Win32,60.12144532,62bbe60bf3d75ef465d3e404,,,,,,,,,,,,,,,,,,,,,,,,,,,,,,,,,,,,,,,,,,,,,,,,,,,,,,,,,,,,,,,,,,,,,,,,,,,,,,,,,,,,,,,,,,,,,,,,,,,,,,,,,,,,,,,,,,,,,,,,,,,,,,,,,,,,,,,,,,,,,,,,,,,,,,,,,,,,,,
0,25,25,22,1,,5c558bdd8925db000118c0a2,62bbfb520ebbeb5d2e6a7de7,2022-06-29_09h12.35.561,Colour_Asymmetry_Pilot,2022.1.3,Win32,60.12144532,62bbe60bf3d75ef465d3e404,,,,,,,,,,,,,,,,,,,,,,,,,,,,,,,,,,,,,,,,,,,,,,,,,,,,,,,,,,,,,,,,,,,,,,,,,,,,,,,,,,,,,,,,,,,,,,,,,,,,,,,,,,,,,,,,,,,,,,,,,,,,,,,,,,,,,,,,,,,,,,,,,,,,,,,,,,,,,,
0,26,26,38,1,,5c558bdd8925db000118c0a2,62bbfb520ebbeb5d2e6a7de7,2022-06-29_09h12.35.561,Colour_Asymmetry_Pilot,2022.1.3,Win32,60.12144532,62bbe60bf3d75ef465d3e404,,,,,,,,,,,,,,,,,,,,,,,,,,,,,,,,,,,,,,,,,,,,,,,,,,,,,,,,,,,,,,,,,,,,,,,,,,,,,,,,,,,,,,,,,,,,,,,,,,,,,,,,,,,,,,,,,,,,,,,,,,,,,,,,,,,,,,,,,,,,,,,,,,,,,,,,,,,,,,
0,27,27,89,1,,5c558bdd8925db000118c0a2,62bbfb520ebbeb5d2e6a7de7,2022-06-29_09h12.35.561,Colour_Asymmetry_Pilot,2022.1.3,Win32,60.12144532,62bbe60bf3d75ef465d3e404,,,,,,,,,,,,,,,,,,,,,,,,,,,,,,,,,,,,,,,,,,,,,,,,,,,,,,,,,,,,,,,,,,,,,,,,,,,,,,,,,,,,,,,,,,,,,,,,,,,,,,,,,,,,,,,,,,,,,,,,,,,,,,,,,,,,,,,,,,,,,,,,,,,,,,,,,,,,,,
0,28,28,67,1,,5c558bdd8925db000118c0a2,62bbfb520ebbeb5d2e6a7de7,2022-06-29_09h12.35.561,Colour_Asymmetry_Pilot,2022.1.3,Win32,60.12144532,62bbe60bf3d75ef465d3e404,,,,,,,,,,,,,,,,,,,,,,,,,,,,,,,,,,,,,,,,,,,,,,,,,,,,,,,,,,,,,,,,,,,,,,,,,,,,,,,,,,,,,,,,,,,,,,,,,,,,,,,,,,,,,,,,,,,,,,,,,,,,,,,,,,,,,,,,,,,,,,,,,,,,,,,,,,,,,,
0,29,29,52,1,,5c558bdd8925db000118c0a2,62bbfb520ebbeb5d2e6a7de7,2022-06-29_09h12.35.561,Colour_Asymmetry_Pilot,2022.1.3,Win32,60.12144532,62bbe60bf3d75ef465d3e404,,,,,,,,,,,,,,,,,,,,,,,,,,,,,,,,,,,,,,,,,,,,,,,,,,,,,,,,,,,,,,,,,,,,,,,,,,,,,,,,,,,,,,,,,,,,,,,,,,,,,,,,,,,,,,,,,,,,,,,,,,,,,,,,,,,,,,,,,,,,,,,,,,,,,,,,,,,,,,
0,30,30,6,1,,5c558bdd8925db000118c0a2,62bbfb520ebbeb5d2e6a7de7,2022-06-29_09h12.35.561,Colour_Asymmetry_Pilot,2022.1.3,Win32,60.12144532,62bbe60bf3d75ef465d3e404,,,,,,,,,,,,,,,,,,,,,,,,,,,,,,,,,,,,,,,,,,,,,,,,,,,,,,,,,,,,,,,,,,,,,,,,,,,,,,,,,,,,,,,,,,,,,,,,,,,,,,,,,,,,,,,,,,,,,,,,,,,,,,,,,,,,,,,,,,,,,,,,,,,,,,,,,,,,,,
0,31,31,58,1,,5c558bdd8925db000118c0a2,62bbfb520ebbeb5d2e6a7de7,2022-06-29_09h12.35.561,Colour_Asymmetry_Pilot,2022.1.3,Win32,60.12144532,62bbe60bf3d75ef465d3e404,,,,,,,,,,,,,,,,,,,,,,,,,,,,,,,,,,,,,,,,,,,,,,,,,,,,,,,,,,,,,,,,,,,,,,,,,,,,,,,,,,,,,,,,,,,,,,,,,,,,,,,,,,,,,,,,,,,,,,,,,,,,,,,,,,,,,,,,,,,,,,,,,,,,,,,,,,,,,,
0,32,32,74,1,,5c558bdd8925db000118c0a2,62bbfb520ebbeb5d2e6a7de7,2022-06-29_09h12.35.561,Colour_Asymmetry_Pilot,2022.1.3,Win32,60.12144532,62bbe60bf3d75ef465d3e404,,,,,,,,,,,,,,,,,,,,,,,,,,,,,,,,,,,,,,,,,,,,,,,,,,,,,,,,,,,,,,,,,,,,,,,,,,,,,,,,,,,,,,,,,,,,,,,,,,,,,,,,,,,,,,,,,,,,,,,,,,,,,,,,,,,,,,,,,,,,,,,,,,,,,,,,,,,,,,
0,33,33,54,1,,5c558bdd8925db000118c0a2,62bbfb520ebbeb5d2e6a7de7,2022-06-29_09h12.35.561,Colour_Asymmetry_Pilot,2022.1.3,Win32,60.12144532,62bbe60bf3d75ef465d3e404,,,,,,,,,,,,,,,,,,,,,,,,,,,,,,,,,,,,,,,,,,,,,,,,,,,,,,,,,,,,,,,,,,,,,,,,,,,,,,,,,,,,,,,,,,,,,,,,,,,,,,,,,,,,,,,,,,,,,,,,,,,,,,,,,,,,,,,,,,,,,,,,,,,,,,,,,,,,,,
0,34,34,1,1,,5c558bdd8925db000118c0a2,62bbfb520ebbeb5d2e6a7de7,2022-06-29_09h12.35.561,Colour_Asymmetry_Pilot,2022.1.3,Win32,60.12144532,62bbe60bf3d75ef465d3e404,,,,,,,,,,,,,,,,,,,,,,,,,,,,,,,,,,,,,,,,,,,,,,,,,,,,,,,,,,,,,,,,,,,,,,,,,,,,,,,,,,,,,,,,,,,,,,,,,,,,,,,,,,,,,,,,,,,,,,,,,,,,,,,,,,,,,,,,,,,,,,,,,,,,,,,,,,,,,,
0,35,35,45,1,,5c558bdd8925db000118c0a2,62bbfb520ebbeb5d2e6a7de7,2022-06-29_09h12.35.561,Colour_Asymmetry_Pilot,2022.1.3,Win32,60.12144532,62bbe60bf3d75ef465d3e404,,,,,,,,,,,,,,,,,,,,,,,,,,,,,,,,,,,,,,,,,,,,,,,,,,,,,,,,,,,,,,,,,,,,,,,,,,,,,,,,,,,,,,,,,,,,,,,,,,,,,,,,,,,,,,,,,,,,,,,,,,,,,,,,,,,,,,,,,,,,,,,,,,,,,,,,,,,,,,
0,36,36,57,1,,5c558bdd8925db000118c0a2,62bbfb520ebbeb5d2e6a7de7,2022-06-29_09h12.35.561,Colour_Asymmetry_Pilot,2022.1.3,Win32,60.12144532,62bbe60bf3d75ef465d3e404,,,,,,,,,,,,,,,,,,,,,,,,,,,,,,,,,,,,,,,,,,,,,,,,,,,,,,,,,,,,,,,,,,,,,,,,,,,,,,,,,,,,,,,,,,,,,,,,,,,,,,,,,,,,,,,,,,,,,,,,,,,,,,,,,,,,,,,,,,,,,,,,,,,,,,,,,,,,,,
0,37,37,11,1,,5c558bdd8925db000118c0a2,62bbfb520ebbeb5d2e6a7de7,2022-06-29_09h12.35.561,Colour_Asymmetry_Pilot,2022.1.3,Win32,60.12144532,62bbe60bf3d75ef465d3e404,,,,,,,,,,,,,,,,,,,,,,,,,,,,,,,,,,,,,,,,,,,,,,,,,,,,,,,,,,,,,,,,,,,,,,,,,,,,,,,,,,,,,,,,,,,,,,,,,,,,,,,,,,,,,,,,,,,,,,,,,,,,,,,,,,,,,,,,,,,,,,,,,,,,,,,,,,,,,,
0,38,38,53,1,,5c558bdd8925db000118c0a2,62bbfb520ebbeb5d2e6a7de7,2022-06-29_09h12.35.561,Colour_Asymmetry_Pilot,2022.1.3,Win32,60.12144532,62bbe60bf3d75ef465d3e404,,,,,,,,,,,,,,,,,,,,,,,,,,,,,,,,,,,,,,,,,,,,,,,,,,,,,,,,,,,,,,,,,,,,,,,,,,,,,,,,,,,,,,,,,,,,,,,,,,,,,,,,,,,,,,,,,,,,,,,,,,,,,,,,,,,,,,,,,,,,,,,,,,,,,,,,,,,,,,
0,39,39,21,1,,5c558bdd8925db000118c0a2,62bbfb520ebbeb5d2e6a7de7,2022-06-29_09h12.35.561,Colour_Asymmetry_Pilot,2022.1.3,Win32,60.12144532,62bbe60bf3d75ef465d3e404,,,,,,,,,,,,,,,,,,,,,,,,,,,,,,,,,,,,,,,,,,,,,,,,,,,,,,,,,,,,,,,,,,,,,,,,,,,,,,,,,,,,,,,,,,,,,,,,,,,,,,,,,,,,,,,,,,,,,,,,,,,,,,,,,,,,,,,,,,,,,,,,,,,,,,,,,,,,,,
0,40,40,34,1,,5c558bdd8925db000118c0a2,62bbfb520ebbeb5d2e6a7de7,2022-06-29_09h12.35.561,Colour_Asymmetry_Pilot,2022.1.3,Win32,60.12144532,62bbe60bf3d75ef465d3e404,,,,,,,,,,,,,,,,,,,,,,,,,,,,,,,,,,,,,,,,,,,,,,,,,,,,,,,,,,,,,,,,,,,,,,,,,,,,,,,,,,,,,,,,,,,,,,,,,,,,,,,,,,,,,,,,,,,,,,,,,,,,,,,,,,,,,,,,,,,,,,,,,,,,,,,,,,,,,,
0,41,41,27,1,,5c558bdd8925db000118c0a2,62bbfb520ebbeb5d2e6a7de7,2022-06-29_09h12.35.561,Colour_Asymmetry_Pilot,2022.1.3,Win32,60.12144532,62bbe60bf3d75ef465d3e404,,,,,,,,,,,,,,,,,,,,,,,,,,,,,,,,,,,,,,,,,,,,,,,,,,,,,,,,,,,,,,,,,,,,,,,,,,,,,,,,,,,,,,,,,,,,,,,,,,,,,,,,,,,,,,,,,,,,,,,,,,,,,,,,,,,,,,,,,,,,,,,,,,,,,,,,,,,,,,
0,42,42,44,1,,5c558bdd8925db000118c0a2,62bbfb520ebbeb5d2e6a7de7,2022-06-29_09h12.35.561,Colour_Asymmetry_Pilot,2022.1.3,Win32,60.12144532,62bbe60bf3d75ef465d3e404,,,,,,,,,,,,,,,,,,,,,,,,,,,,,,,,,,,,,,,,,,,,,,,,,,,,,,,,,,,,,,,,,,,,,,,,,,,,,,,,,,,,,,,,,,,,,,,,,,,,,,,,,,,,,,,,,,,,,,,,,,,,,,,,,,,,,,,,,,,,,,,,,,,,,,,,,,,,,,
0,43,43,18,1,,5c558bdd8925db000118c0a2,62bbfb520ebbeb5d2e6a7de7,2022-06-29_09h12.35.561,Colour_Asymmetry_Pilot,2022.1.3,Win32,60.12144532,62bbe60bf3d75ef465d3e404,,,,,,,,,,,,,,,,,,,,,,,,,,,,,,,,,,,,,,,,,,,,,,,,,,,,,,,,,,,,,,,,,,,,,,,,,,,,,,,,,,,,,,,,,,,,,,,,,,,,,,,,,,,,,,,,,,,,,,,,,,,,,,,,,,,,,,,,,,,,,,,,,,,,,,,,,,,,,,
0,44,44,72,1,,5c558bdd8925db000118c0a2,62bbfb520ebbeb5d2e6a7de7,2022-06-29_09h12.35.561,Colour_Asymmetry_Pilot,2022.1.3,Win32,60.12144532,62bbe60bf3d75ef465d3e404,,,,,,,,,,,,,,,,,,,,,,,,,,,,,,,,,,,,,,,,,,,,,,,,,,,,,,,,,,,,,,,,,,,,,,,,,,,,,,,,,,,,,,,,,,,,,,,,,,,,,,,,,,,,,,,,,,,,,,,,,,,,,,,,,,,,,,,,,,,,,,,,,,,,,,,,,,,,,,
0,45,45,65,1,,5c558bdd8925db000118c0a2,62bbfb520ebbeb5d2e6a7de7,2022-06-29_09h12.35.561,Colour_Asymmetry_Pilot,2022.1.3,Win32,60.12144532,62bbe60bf3d75ef465d3e404,,,,,,,,,,,,,,,,,,,,,,,,,,,,,,,,,,,,,,,,,,,,,,,,,,,,,,,,,,,,,,,,,,,,,,,,,,,,,,,,,,,,,,,,,,,,,,,,,,,,,,,,,,,,,,,,,,,,,,,,,,,,,,,,,,,,,,,,,,,,,,,,,,,,,,,,,,,,,,
0,46,46,61,1,,5c558bdd8925db000118c0a2,62bbfb520ebbeb5d2e6a7de7,2022-06-29_09h12.35.561,Colour_Asymmetry_Pilot,2022.1.3,Win32,60.12144532,62bbe60bf3d75ef465d3e404,,,,,,,,,,,,,,,,,,,,,,,,,,,,,,,,,,,,,,,,,,,,,,,,,,,,,,,,,,,,,,,,,,,,,,,,,,,,,,,,,,,,,,,,,,,,,,,,,,,,,,,,,,,,,,,,,,,,,,,,,,,,,,,,,,,,,,,,,,,,,,,,,,,,,,,,,,,,,,
0,47,47,4,1,,5c558bdd8925db000118c0a2,62bbfb520ebbeb5d2e6a7de7,2022-06-29_09h12.35.561,Colour_Asymmetry_Pilot,2022.1.3,Win32,60.12144532,62bbe60bf3d75ef465d3e404,,,,,,,,,,,,,,,,,,,,,,,,,,,,,,,,,,,,,,,,,,,,,,,,,,,,,,,,,,,,,,,,,,,,,,,,,,,,,,,,,,,,,,,,,,,,,,,,,,,,,,,,,,,,,,,,,,,,,,,,,,,,,,,,,,,,,,,,,,,,,,,,,,,,,,,,,,,,,,
0,48,48,87,1,,5c558bdd8925db000118c0a2,62bbfb520ebbeb5d2e6a7de7,2022-06-29_09h12.35.561,Colour_Asymmetry_Pilot,2022.1.3,Win32,60.12144532,62bbe60bf3d75ef465d3e404,,,,,,,,,,,,,,,,,,,,,,,,,,,,,,,,,,,,,,,,,,,,,,,,,,,,,,,,,,,,,,,,,,,,,,,,,,,,,,,,,,,,,,,,,,,,,,,,,,,,,,,,,,,,,,,,,,,,,,,,,,,,,,,,,,,,,,,,,,,,,,,,,,,,,,,,,,,,,,
0,49,49,59,1,,5c558bdd8925db000118c0a2,62bbfb520ebbeb5d2e6a7de7,2022-06-29_09h12.35.561,Colour_Asymmetry_Pilot,2022.1.3,Win32,60.12144532,62bbe60bf3d75ef465d3e404,,,,,,,,,,,,,,,,,,,,,,,,,,,,,,,,,,,,,,,,,,,,,,,,,,,,,,,,,,,,,,,,,,,,,,,,,,,,,,,,,,,,,,,,,,,,,,,,,,,,,,,,,,,,,,,,,,,,,,,,,,,,,,,,,,,,,,,,,,,,,,,,,,,,,,,,,,,,,,
0,50,50,29,1,,5c558bdd8925db000118c0a2,62bbfb520ebbeb5d2e6a7de7,2022-06-29_09h12.35.561,Colour_Asymmetry_Pilot,2022.1.3,Win32,60.12144532,62bbe60bf3d75ef465d3e404,,,,,,,,,,,,,,,,,,,,,,,,,,,,,,,,,,,,,,,,,,,,,,,,,,,,,,,,,,,,,,,,,,,,,,,,,,,,,,,,,,,,,,,,,,,,,,,,,,,,,,,,,,,,,,,,,,,,,,,,,,,,,,,,,,,,,,,,,,,,,,,,,,,,,,,,,,,,,,
0,51,51,90,1,,5c558bdd8925db000118c0a2,62bbfb520ebbeb5d2e6a7de7,2022-06-29_09h12.35.561,Colour_Asymmetry_Pilot,2022.1.3,Win32,60.12144532,62bbe60bf3d75ef465d3e404,,,,,,,,,,,,,,,,,,,,,,,,,,,,,,,,,,,,,,,,,,,,,,,,,,,,,,,,,,,,,,,,,,,,,,,,,,,,,,,,,,,,,,,,,,,,,,,,,,,,,,,,,,,,,,,,,,,,,,,,,,,,,,,,,,,,,,,,,,,,,,,,,,,,,,,,,,,,,,
0,52,52,42,1,,5c558bdd8925db000118c0a2,62bbfb520ebbeb5d2e6a7de7,2022-06-29_09h12.35.561,Colour_Asymmetry_Pilot,2022.1.3,Win32,60.12144532,62bbe60bf3d75ef465d3e404,,,,,,,,,,,,,,,,,,,,,,,,,,,,,,,,,,,,,,,,,,,,,,,,,,,,,,,,,,,,,,,,,,,,,,,,,,,,,,,,,,,,,,,,,,,,,,,,,,,,,,,,,,,,,,,,,,,,,,,,,,,,,,,,,,,,,,,,,,,,,,,,,,,,,,,,,,,,,,
0,53,53,30,1,,5c558bdd8925db000118c0a2,62bbfb520ebbeb5d2e6a7de7,2022-06-29_09h12.35.561,Colour_Asymmetry_Pilot,2022.1.3,Win32,60.12144532,62bbe60bf3d75ef465d3e404,,,,,,,,,,,,,,,,,,,,,,,,,,,,,,,,,,,,,,,,,,,,,,,,,,,,,,,,,,,,,,,,,,,,,,,,,,,,,,,,,,,,,,,,,,,,,,,,,,,,,,,,,,,,,,,,,,,,,,,,,,,,,,,,,,,,,,,,,,,,,,,,,,,,,,,,,,,,,,
0,54,54,24,1,,5c558bdd8925db000118c0a2,62bbfb520ebbeb5d2e6a7de7,2022-06-29_09h12.35.561,Colour_Asymmetry_Pilot,2022.1.3,Win32,60.12144532,62bbe60bf3d75ef465d3e404,,,,,,,,,,,,,,,,,,,,,,,,,,,,,,,,,,,,,,,,,,,,,,,,,,,,,,,,,,,,,,,,,,,,,,,,,,,,,,,,,,,,,,,,,,,,,,,,,,,,,,,,,,,,,,,,,,,,,,,,,,,,,,,,,,,,,,,,,,,,,,,,,,,,,,,,,,,,,,
0,55,55,55,1,,5c558bdd8925db000118c0a2,62bbfb520ebbeb5d2e6a7de7,2022-06-29_09h12.35.561,Colour_Asymmetry_Pilot,2022.1.3,Win32,60.12144532,62bbe60bf3d75ef465d3e404,,,,,,,,,,,,,,,,,,,,,,,,,,,,,,,,,,,,,,,,,,,,,,,,,,,,,,,,,,,,,,,,,,,,,,,,,,,,,,,,,,,,,,,,,,,,,,,,,,,,,,,,,,,,,,,,,,,,,,,,,,,,,,,,,,,,,,,,,,,,,,,,,,,,,,,,,,,,,,
0,56,56,37,1,,5c558bdd8925db000118c0a2,62bbfb520ebbeb5d2e6a7de7,2022-06-29_09h12.35.561,Colour_Asymmetry_Pilot,2022.1.3,Win32,60.12144532,62bbe60bf3d75ef465d3e404,,,,,,,,,,,,,,,,,,,,,,,,,,,,,,,,,,,,,,,,,,,,,,,,,,,,,,,,,,,,,,,,,,,,,,,,,,,,,,,,,,,,,,,,,,,,,,,,,,,,,,,,,,,,,,,,,,,,,,,,,,,,,,,,,,,,,,,,,,,,,,,,,,,,,,,,,,,,,,
0,57,57,77,1,,5c558bdd8925db000118c0a2,62bbfb520ebbeb5d2e6a7de7,2022-06-29_09h12.35.561,Colour_Asymmetry_Pilot,2022.1.3,Win32,60.12144532,62bbe60bf3d75ef465d3e404,,,,,,,,,,,,,,,,,,,,,,,,,,,,,,,,,,,,,,,,,,,,,,,,,,,,,,,,,,,,,,,,,,,,,,,,,,,,,,,,,,,,,,,,,,,,,,,,,,,,,,,,,,,,,,,,,,,,,,,,,,,,,,,,,,,,,,,,,,,,,,,,,,,,,,,,,,,,,,
0,58,58,23,1,,5c558bdd8925db000118c0a2,62bbfb520ebbeb5d2e6a7de7,2022-06-29_09h12.35.561,Colour_Asymmetry_Pilot,2022.1.3,Win32,60.12144532,62bbe60bf3d75ef465d3e404,,,,,,,,,,,,,,,,,,,,,,,,,,,,,,,,,,,,,,,,,,,,,,,,,,,,,,,,,,,,,,,,,,,,,,,,,,,,,,,,,,,,,,,,,,,,,,,,,,,,,,,,,,,,,,,,,,,,,,,,,,,,,,,,,,,,,,,,,,,,,,,,,,,,,,,,,,,,,,
0,59,59,33,1,,5c558bdd8925db000118c0a2,62bbfb520ebbeb5d2e6a7de7,2022-06-29_09h12.35.561,Colour_Asymmetry_Pilot,2022.1.3,Win32,60.12144532,62bbe60bf3d75ef465d3e404,,,,,,,,,,,,,,,,,,,,,,,,,,,,,,,,,,,,,,,,,,,,,,,,,,,,,,,,,,,,,,,,,,,,,,,,,,,,,,,,,,,,,,,,,,,,,,,,,,,,,,,,,,,,,,,,,,,,,,,,,,,,,,,,,,,,,,,,,,,,,,,,,,,,,,,,,,,,,,
0,60,60,91,1,,5c558bdd8925db000118c0a2,62bbfb520ebbeb5d2e6a7de7,2022-06-29_09h12.35.561,Colour_Asymmetry_Pilot,2022.1.3,Win32,60.12144532,62bbe60bf3d75ef465d3e404,,,,,,,,,,,,,,,,,,,,,,,,,,,,,,,,,,,,,,,,,,,,,,,,,,,,,,,,,,,,,,,,,,,,,,,,,,,,,,,,,,,,,,,,,,,,,,,,,,,,,,,,,,,,,,,,,,,,,,,,,,,,,,,,,,,,,,,,,,,,,,,,,,,,,,,,,,,,,,
0,61,61,2,1,,5c558bdd8925db000118c0a2,62bbfb520ebbeb5d2e6a7de7,2022-06-29_09h12.35.561,Colour_Asymmetry_Pilot,2022.1.3,Win32,60.12144532,62bbe60bf3d75ef465d3e404,,,,,,,,,,,,,,,,,,,,,,,,,,,,,,,,,,,,,,,,,,,,,,,,,,,,,,,,,,,,,,,,,,,,,,,,,,,,,,,,,,,,,,,,,,,,,,,,,,,,,,,,,,,,,,,,,,,,,,,,,,,,,,,,,,,,,,,,,,,,,,,,,,,,,,,,,,,,,,
0,62,62,31,1,,5c558bdd8925db000118c0a2,62bbfb520ebbeb5d2e6a7de7,2022-06-29_09h12.35.561,Colour_Asymmetry_Pilot,2022.1.3,Win32,60.12144532,62bbe60bf3d75ef465d3e404,,,,,,,,,,,,,,,,,,,,,,,,,,,,,,,,,,,,,,,,,,,,,,,,,,,,,,,,,,,,,,,,,,,,,,,,,,,,,,,,,,,,,,,,,,,,,,,,,,,,,,,,,,,,,,,,,,,,,,,,,,,,,,,,,,,,,,,,,,,,,,,,,,,,,,,,,,,,,,
0,63,63,25,1,,5c558bdd8925db000118c0a2,62bbfb520ebbeb5d2e6a7de7,2022-06-29_09h12.35.561,Colour_Asymmetry_Pilot,2022.1.3,Win32,60.12144532,62bbe60bf3d75ef465d3e404,,,,,,,,,,,,,,,,,,,,,,,,,,,,,,,,,,,,,,,,,,,,,,,,,,,,,,,,,,,,,,,,,,,,,,,,,,,,,,,,,,,,,,,,,,,,,,,,,,,,,,,,,,,,,,,,,,,,,,,,,,,,,,,,,,,,,,,,,,,,,,,,,,,,,,,,,,,,,,
0,64,64,51,1,,5c558bdd8925db000118c0a2,62bbfb520ebbeb5d2e6a7de7,2022-06-29_09h12.35.561,Colour_Asymmetry_Pilot,2022.1.3,Win32,60.12144532,62bbe60bf3d75ef465d3e404,,,,,,,,,,,,,,,,,,,,,,,,,,,,,,,,,,,,,,,,,,,,,,,,,,,,,,,,,,,,,,,,,,,,,,,,,,,,,,,,,,,,,,,,,,,,,,,,,,,,,,,,,,,,,,,,,,,,,,,,,,,,,,,,,,,,,,,,,,,,,,,,,,,,,,,,,,,,,,
0,65,65,66,1,,5c558bdd8925db000118c0a2,62bbfb520ebbeb5d2e6a7de7,2022-06-29_09h12.35.561,Colour_Asymmetry_Pilot,2022.1.3,Win32,60.12144532,62bbe60bf3d75ef465d3e404,,,,,,,,,,,,,,,,,,,,,,,,,,,,,,,,,,,,,,,,,,,,,,,,,,,,,,,,,,,,,,,,,,,,,,,,,,,,,,,,,,,,,,,,,,,,,,,,,,,,,,,,,,,,,,,,,,,,,,,,,,,,,,,,,,,,,,,,,,,,,,,,,,,,,,,,,,,,,,
0,66,66,15,1,,5c558bdd8925db000118c0a2,62bbfb520ebbeb5d2e6a7de7,2022-06-29_09h12.35.561,Colour_Asymmetry_Pilot,2022.1.3,Win32,60.12144532,62bbe60bf3d75ef465d3e404,,,,,,,,,,,,,,,,,,,,,,,,,,,,,,,,,,,,,,,,,,,,,,,,,,,,,,,,,,,,,,,,,,,,,,,,,,,,,,,,,,,,,,,,,,,,,,,,,,,,,,,,,,,,,,,,,,,,,,,,,,,,,,,,,,,,,,,,,,,,,,,,,,,,,,,,,,,,,,
0,67,67,69,1,,5c558bdd8925db000118c0a2,62bbfb520ebbeb5d2e6a7de7,2022-06-29_09h12.35.561,Colour_Asymmetry_Pilot,2022.1.3,Win32,60.12144532,62bbe60bf3d75ef465d3e404,,,,,,,,,,,,,,,,,,,,,,,,,,,,,,,,,,,,,,,,,,,,,,,,,,,,,,,,,,,,,,,,,,,,,,,,,,,,,,,,,,,,,,,,,,,,,,,,,,,,,,,,,,,,,,,,,,,,,,,,,,,,,,,,,,,,,,,,,,,,,,,,,,,,,,,,,,,,,,
0,68,68,92,1,,5c558bdd8925db000118c0a2,62bbfb520ebbeb5d2e6a7de7,2022-06-29_09h12.35.561,Colour_Asymmetry_Pilot,2022.1.3,Win32,60.12144532,62bbe60bf3d75ef465d3e404,,,,,,,,,,,,,,,,,,,,,,,,,,,,,,,,,,,,,,,,,,,,,,,,,,,,,,,,,,,,,,,,,,,,,,,,,,,,,,,,,,,,,,,,,,,,,,,,,,,,,,,,,,,,,,,,,,,,,,,,,,,,,,,,,,,,,,,,,,,,,,,,,,,,,,,,,,,,,,
0,69,69,83,1,,5c558bdd8925db000118c0a2,62bbfb520ebbeb5d2e6a7de7,2022-06-29_09h12.35.561,Colour_Asymmetry_Pilot,2022.1.3,Win32,60.12144532,62bbe60bf3d75ef465d3e404,,,,,,,,,,,,,,,,,,,,,,,,,,,,,,,,,,,,,,,,,,,,,,,,,,,,,,,,,,,,,,,,,,,,,,,,,,,,,,,,,,,,,,,,,,,,,,,,,,,,,,,,,,,,,,,,,,,,,,,,,,,,,,,,,,,,,,,,,,,,,,,,,,,,,,,,,,,,,,
0,70,70,81,1,,5c558bdd8925db000118c0a2,62bbfb520ebbeb5d2e6a7de7,2022-06-29_09h12.35.561,Colour_Asymmetry_Pilot,2022.1.3,Win32,60.12144532,62bbe60bf3d75ef465d3e404,,,,,,,,,,,,,,,,,,,,,,,,,,,,,,,,,,,,,,,,,,,,,,,,,,,,,,,,,,,,,,,,,,,,,,,,,,,,,,,,,,,,,,,,,,,,,,,,,,,,,,,,,,,,,,,,,,,,,,,,,,,,,,,,,,,,,,,,,,,,,,,,,,,,,,,,,,,,,,
0,71,71,0,1,,5c558bdd8925db000118c0a2,62bbfb520ebbeb5d2e6a7de7,2022-06-29_09h12.35.561,Colour_Asymmetry_Pilot,2022.1.3,Win32,60.12144532,62bbe60bf3d75ef465d3e404,,,,,,,,,,,,,,,,,,,,,,,,,,,,,,,,,,,,,,,,,,,,,,,,,,,,,,,,,,,,,,,,,,,,,,,,,,,,,,,,,,,,,,,,,,,,,,,,,,,,,,,,,,,,,,,,,,,,,,,,,,,,,,,,,,,,,,,,,,,,,,,,,,,,,,,,,,,,,,
0,72,72,40,1,,5c558bdd8925db000118c0a2,62bbfb520ebbeb5d2e6a7de7,2022-06-29_09h12.35.561,Colour_Asymmetry_Pilot,2022.1.3,Win32,60.12144532,62bbe60bf3d75ef465d3e404,,,,,,,,,,,,,,,,,,,,,,,,,,,,,,,,,,,,,,,,,,,,,,,,,,,,,,,,,,,,,,,,,,,,,,,,,,,,,,,,,,,,,,,,,,,,,,,,,,,,,,,,,,,,,,,,,,,,,,,,,,,,,,,,,,,,,,,,,,,,,,,,,,,,,,,,,,,,,,
0,73,73,3,1,,5c558bdd8925db000118c0a2,62bbfb520ebbeb5d2e6a7de7,2022-06-29_09h12.35.561,Colour_Asymmetry_Pilot,2022.1.3,Win32,60.12144532,62bbe60bf3d75ef465d3e404,,,,,,,,,,,,,,,,,,,,,,,,,,,,,,,,,,,,,,,,,,,,,,,,,,,,,,,,,,,,,,,,,,,,,,,,,,,,,,,,,,,,,,,,,,,,,,,,,,,,,,,,,,,,,,,,,,,,,,,,,,,,,,,,,,,,,,,,,,,,,,,,,,,,,,,,,,,,,,
0,74,74,79,1,,5c558bdd8925db000118c0a2,62bbfb520ebbeb5d2e6a7de7,2022-06-29_09h12.35.561,Colour_Asymmetry_Pilot,2022.1.3,Win32,60.12144532,62bbe60bf3d75ef465d3e404,,,,,,,,,,,,,,,,,,,,,,,,,,,,,,,,,,,,,,,,,,,,,,,,,,,,,,,,,,,,,,,,,,,,,,,,,,,,,,,,,,,,,,,,,,,,,,,,,,,,,,,,,,,,,,,,,,,,,,,,,,,,,,,,,,,,,,,,,,,,,,,,,,,,,,,,,,,,,,
0,75,75,20,1,,5c558bdd8925db000118c0a2,62bbfb520ebbeb5d2e6a7de7,2022-06-29_09h12.35.561,Colour_Asymmetry_Pilot,2022.1.3,Win32,60.12144532,62bbe60bf3d75ef465d3e404,,,,,,,,,,,,,,,,,,,,,,,,,,,,,,,,,,,,,,,,,,,,,,,,,,,,,,,,,,,,,,,,,,,,,,,,,,,,,,,,,,,,,,,,,,,,,,,,,,,,,,,,,,,,,,,,,,,,,,,,,,,,,,,,,,,,,,,,,,,,,,,,,,,,,,,,,,,,,,
0,76,76,36,1,,5c558bdd8925db000118c0a2,62bbfb520ebbeb5d2e6a7de7,2022-06-29_09h12.35.561,Colour_Asymmetry_Pilot,2022.1.3,Win32,60.12144532,62bbe60bf3d75ef465d3e404,,,,,,,,,,,,,,,,,,,,,,,,,,,,,,,,,,,,,,,,,,,,,,,,,,,,,,,,,,,,,,,,,,,,,,,,,,,,,,,,,,,,,,,,,,,,,,,,,,,,,,,,,,,,,,,,,,,,,,,,,,,,,,,,,,,,,,,,,,,,,,,,,,,,,,,,,,,,,,
0,77,77,16,1,,5c558bdd8925db000118c0a2,62bbfb520ebbeb5d2e6a7de7,2022-06-29_09h12.35.561,Colour_Asymmetry_Pilot,2022.1.3,Win32,60.12144532,62bbe60bf3d75ef465d3e404,,,,,,,,,,,,,,,,,,,,,,,,,,,,,,,,,,,,,,,,,,,,,,,,,,,,,,,,,,,,,,,,,,,,,,,,,,,,,,,,,,,,,,,,,,,,,,,,,,,,,,,,,,,,,,,,,,,,,,,,,,,,,,,,,,,,,,,,,,,,,,,,,,,,,,,,,,,,,,
0,78,78,76,1,,5c558bdd8925db000118c0a2,62bbfb520ebbeb5d2e6a7de7,2022-06-29_09h12.35.561,Colour_Asymmetry_Pilot,2022.1.3,Win32,60.12144532,62bbe60bf3d75ef465d3e404,,,,,,,,,,,,,,,,,,,,,,,,,,,,,,,,,,,,,,,,,,,,,,,,,,,,,,,,,,,,,,,,,,,,,,,,,,,,,,,,,,,,,,,,,,,,,,,,,,,,,,,,,,,,,,,,,,,,,,,,,,,,,,,,,,,,,,,,,,,,,,,,,,,,,,,,,,,,,,
0,79,79,5,1,,5c558bdd8925db000118c0a2,62bbfb520ebbeb5d2e6a7de7,2022-06-29_09h12.35.561,Colour_Asymmetry_Pilot,2022.1.3,Win32,60.12144532,62bbe60bf3d75ef465d3e404,,,,,,,,,,,,,,,,,,,,,,,,,,,,,,,,,,,,,,,,,,,,,,,,,,,,,,,,,,,,,,,,,,,,,,,,,,,,,,,,,,,,,,,,,,,,,,,,,,,,,,,,,,,,,,,,,,,,,,,,,,,,,,,,,,,,,,,,,,,,,,,,,,,,,,,,,,,,,,
0,80,80,62,1,,5c558bdd8925db000118c0a2,62bbfb520ebbeb5d2e6a7de7,2022-06-29_09h12.35.561,Colour_Asymmetry_Pilot,2022.1.3,Win32,60.12144532,62bbe60bf3d75ef465d3e404,,,,,,,,,,,,,,,,,,,,,,,,,,,,,,,,,,,,,,,,,,,,,,,,,,,,,,,,,,,,,,,,,,,,,,,,,,,,,,,,,,,,,,,,,,,,,,,,,,,,,,,,,,,,,,,,,,,,,,,,,,,,,,,,,,,,,,,,,,,,,,,,,,,,,,,,,,,,,,
0,81,81,88,1,,5c558bdd8925db000118c0a2,62bbfb520ebbeb5d2e6a7de7,2022-06-29_09h12.35.561,Colour_Asymmetry_Pilot,2022.1.3,Win32,60.12144532,62bbe60bf3d75ef465d3e404,,,,,,,,,,,,,,,,,,,,,,,,,,,,,,,,,,,,,,,,,,,,,,,,,,,,,,,,,,,,,,,,,,,,,,,,,,,,,,,,,,,,,,,,,,,,,,,,,,,,,,,,,,,,,,,,,,,,,,,,,,,,,,,,,,,,,,,,,,,,,,,,,,,,,,,,,,,,,,
0,82,82,47,1,,5c558bdd8925db000118c0a2,62bbfb520ebbeb5d2e6a7de7,2022-06-29_09h12.35.561,Colour_Asymmetry_Pilot,2022.1.3,Win32,60.12144532,62bbe60bf3d75ef465d3e404,,,,,,,,,,,,,,,,,,,,,,,,,,,,,,,,,,,,,,,,,,,,,,,,,,,,,,,,,,,,,,,,,,,,,,,,,,,,,,,,,,,,,,,,,,,,,,,,,,,,,,,,,,,,,,,,,,,,,,,,,,,,,,,,,,,,,,,,,,,,,,,,,,,,,,,,,,,,,,
0,83,83,39,1,,5c558bdd8925db000118c0a2,62bbfb520ebbeb5d2e6a7de7,2022-06-29_09h12.35.561,Colour_Asymmetry_Pilot,2022.1.3,Win32,60.12144532,62bbe60bf3d75ef465d3e404,,,,,,,,,,,,,,,,,,,,,,,,,,,,,,,,,,,,,,,,,,,,,,,,,,,,,,,,,,,,,,,,,,,,,,,,,,,,,,,,,,,,,,,,,,,,,,,,,,,,,,,,,,,,,,,,,,,,,,,,,,,,,,,,,,,,,,,,,,,,,,,,,,,,,,,,,,,,,,
0,84,84,60,1,,5c558bdd8925db000118c0a2,62bbfb520ebbeb5d2e6a7de7,2022-06-29_09h12.35.561,Colour_Asymmetry_Pilot,2022.1.3,Win32,60.12144532,62bbe60bf3d75ef465d3e404,,,,,,,,,,,,,,,,,,,,,,,,,,,,,,,,,,,,,,,,,,,,,,,,,,,,,,,,,,,,,,,,,,,,,,,,,,,,,,,,,,,,,,,,,,,,,,,,,,,,,,,,,,,,,,,,,,,,,,,,,,,,,,,,,,,,,,,,,,,,,,,,,,,,,,,,,,,,,,
0,85,85,32,1,,5c558bdd8925db000118c0a2,62bbfb520ebbeb5d2e6a7de7,2022-06-29_09h12.35.561,Colour_Asymmetry_Pilot,2022.1.3,Win32,60.12144532,62bbe60bf3d75ef465d3e404,,,,,,,,,,,,,,,,,,,,,,,,,,,,,,,,,,,,,,,,,,,,,,,,,,,,,,,,,,,,,,,,,,,,,,,,,,,,,,,,,,,,,,,,,,,,,,,,,,,,,,,,,,,,,,,,,,,,,,,,,,,,,,,,,,,,,,,,,,,,,,,,,,,,,,,,,,,,,,
0,86,86,64,1,,5c558bdd8925db000118c0a2,62bbfb520ebbeb5d2e6a7de7,2022-06-29_09h12.35.561,Colour_Asymmetry_Pilot,2022.1.3,Win32,60.12144532,62bbe60bf3d75ef465d3e404,,,,,,,,,,,,,,,,,,,,,,,,,,,,,,,,,,,,,,,,,,,,,,,,,,,,,,,,,,,,,,,,,,,,,,,,,,,,,,,,,,,,,,,,,,,,,,,,,,,,,,,,,,,,,,,,,,,,,,,,,,,,,,,,,,,,,,,,,,,,,,,,,,,,,,,,,,,,,,
0,87,87,8,1,,5c558bdd8925db000118c0a2,62bbfb520ebbeb5d2e6a7de7,2022-06-29_09h12.35.561,Colour_Asymmetry_Pilot,2022.1.3,Win32,60.12144532,62bbe60bf3d75ef465d3e404,,,,,,,,,,,,,,,,,,,,,,,,,,,,,,,,,,,,,,,,,,,,,,,,,,,,,,,,,,,,,,,,,,,,,,,,,,,,,,,,,,,,,,,,,,,,,,,,,,,,,,,,,,,,,,,,,,,,,,,,,,,,,,,,,,,,,,,,,,,,,,,,,,,,,,,,,,,,,,
0,88,88,68,1,,5c558bdd8925db000118c0a2,62bbfb520ebbeb5d2e6a7de7,2022-06-29_09h12.35.561,Colour_Asymmetry_Pilot,2022.1.3,Win32,60.12144532,62bbe60bf3d75ef465d3e404,,,,,,,,,,,,,,,,,,,,,,,,,,,,,,,,,,,,,,,,,,,,,,,,,,,,,,,,,,,,,,,,,,,,,,,,,,,,,,,,,,,,,,,,,,,,,,,,,,,,,,,,,,,,,,,,,,,,,,,,,,,,,,,,,,,,,,,,,,,,,,,,,,,,,,,,,,,,,,
0,89,89,63,1,,5c558bdd8925db000118c0a2,62bbfb520ebbeb5d2e6a7de7,2022-06-29_09h12.35.561,Colour_Asymmetry_Pilot,2022.1.3,Win32,60.12144532,62bbe60bf3d75ef465d3e404,,,,,,,,,,,,,,,,,,,,,,,,,,,,,,,,,,,,,,,,,,,,,,,,,,,,,,,,,,,,,,,,,,,,,,,,,,,,,,,,,,,,,,,,,,,,,,,,,,,,,,,,,,,,,,,,,,,,,,,,,,,,,,,,,,,,,,,,,,,,,,,,,,,,,,,,,,,,,,
0,90,90,75,1,,5c558bdd8925db000118c0a2,62bbfb520ebbeb5d2e6a7de7,2022-06-29_09h12.35.561,Colour_Asymmetry_Pilot,2022.1.3,Win32,60.12144532,62bbe60bf3d75ef465d3e404,,,,,,,,,,,,,,,,,,,,,,,,,,,,,,,,,,,,,,,,,,,,,,,,,,,,,,,,,,,,,,,,,,,,,,,,,,,,,,,,,,,,,,,,,,,,,,,,,,,,,,,,,,,,,,,,,,,,,,,,,,,,,,,,,,,,,,,,,,,,,,,,,,,,,,,,,,,,,,
0,91,91,56,1,,5c558bdd8925db000118c0a2,62bbfb520ebbeb5d2e6a7de7,2022-06-29_09h12.35.561,Colour_Asymmetry_Pilot,2022.1.3,Win32,60.12144532,62bbe60bf3d75ef465d3e404,,,,,,,,,,,,,,,,,,,,,,,,,,,,,,,,,,,,,,,,,,,,,,,,,,,,,,,,,,,,,,,,,,,,,,,,,,,,,,,,,,,,,,,,,,,,,,,,,,,,,,,,,,,,,,,,,,,,,,,,,,,,,,,,,,,,,,,,,,,,,,,,,,,,,,,,,,,,,,
0,92,92,28,1,,5c558bdd8925db000118c0a2,62bbfb520ebbeb5d2e6a7de7,2022-06-29_09h12.35.561,Colour_Asymmetry_Pilot,2022.1.3,Win32,60.12144532,62bbe60bf3d75ef465d3e404,,,,,,,,,,,,,,,,,,,,,,,,,,,,,,,,,,,,,,,,,,,,,,,,,,,,,,,,,,,,,,,,,,,,,,,,,,,,,,,,,,,,,,,,,,,,,,,,,,,,,,,,,,,,,,,,,,,,,,,,,,,,,,,,,,,,,,,,,,,,,,,,,,,,,,,,,,,,,,
,,,,,,5c558bdd8925db000118c0a2,62bbfb520ebbeb5d2e6a7de7,2022-06-29_09h12.35.561,Colour_Asymmetry_Pilot,2022.1.3,Win32,60.12144532,62bbe60bf3d75ef465d3e404,0,0,0,119,1,fourthree,,,,,,,,,,,,,,,,,,,,,,,,,,,,,,,,,,,,,,,,,,,,,,,,,,,,,,,,,,,,,,,,,,,,,,,,,,,,,,,,,,,,,,,,,,,,,,,,,,,,,,,,,,,,,,,,,,,,,,,,,,,,,,,,,,,,,,,,,,,,,,,,,,,,,,,,
,,,,,,5c558bdd8925db000118c0a2,62bbfb520ebbeb5d2e6a7de7,2022-06-29_09h12.35.561,Colour_Asymmetry_Pilot,2022.1.3,Win32,60.12144532,62bbe60bf3d75ef465d3e404,0,1,1,14,1,fourtwo,,,,,,,,,,,,,,,,,,,,,,,,,,,,,,,,,,,,,,,,,,,,,,,,,,,,,,,,,,,,,,,,,,,,,,,,,,,,,,,,,,,,,,,,,,,,,,,,,,,,,,,,,,,,,,,,,,,,,,,,,,,,,,,,,,,,,,,,,,,,,,,,,,,,,,,,
,,,,,,5c558bdd8925db000118c0a2,62bbfb520ebbeb5d2e6a7de7,2022-06-29_09h12.35.561,Colour_Asymmetry_Pilot,2022.1.3,Win32,60.12144532,62bbe60bf3d75ef465d3e404,0,2,2,5,1,threefour,,,,,,,,,,,,,,,,,,,,,,,,,,,,,,,,,,,,,,,,,,,,,,,,,,,,,,,,,,,,,,,,,,,,,,,,,,,,,,,,,,,,,,,,,,,,,,,,,,,,,,,,,,,,,,,,,,,,,,,,,,,,,,,,,,,,,,,,,,,,,,,,,,,,,,,,
,,,,,,5c558bdd8925db000118c0a2,62bbfb520ebbeb5d2e6a7de7,2022-06-29_09h12.35.561,Colour_Asymmetry_Pilot,2022.1.3,Win32,60.12144532,62bbe60bf3d75ef465d3e404,0,3,3,94,1,fourtwo,,,,,,,,,,,,,,,,,,,,,,,,,,,,,,,,,,,,,,,,,,,,,,,,,,,,,,,,,,,,,,,,,,,,,,,,,,,,,,,,,,,,,,,,,,,,,,,,,,,,,,,,,,,,,,,,,,,,,,,,,,,,,,,,,,,,,,,,,,,,,,,,,,,,,,,,
,,,,,,5c558bdd8925db000118c0a2,62bbfb520ebbeb5d2e6a7de7,2022-06-29_09h12.35.561,Colour_Asymmetry_Pilot,2022.1.3,Win32,60.12144532,62bbe60bf3d75ef465d3e404,0,4,4,158,1,fourtwo,,,,,,,,,,,,,,,,,,,,,,,,,,,,,,,,,,,,,,,,,,,,,,,,,,,,,,,,,,,,,,,,,,,,,,,,,,,,,,,,,,,,,,,,,,,,,,,,,,,,,,,,,,,,,,,,,,,,,,,,,,,,,,,,,,,,,,,,,,,,,,,,,,,,,,,,
,,,,,,5c558bdd8925db000118c0a2,62bbfb520ebbeb5d2e6a7de7,2022-06-29_09h12.35.561,Colour_Asymmetry_Pilot,2022.1.3,Win32,60.12144532,62bbe60bf3d75ef465d3e404,0,5,5,139,1,twofour,,,,,,,,,,,,,,,,,,,,,,,,,,,,,,,,,,,,,,,,,,,,,,,,,,,,,,,,,,,,,,,,,,,,,,,,,,,,,,,,,,,,,,,,,,,,,,,,,,,,,,,,,,,,,,,,,,,,,,,,,,,,,,,,,,,,,,,,,,,,,,,,,,,,,,,,
,,,,,,5c558bdd8925db000118c0a2,62bbfb520ebbeb5d2e6a7de7,2022-06-29_09h12.35.561,Colour_Asymmetry_Pilot,2022.1.3,Win32,60.12144532,62bbe60bf3d75ef465d3e404,0,6,6,12,1,threeone,,,,,,,,,,,,,,,,,,,,,,,,,,,,,,,,,,,,,,,,,,,,,,,,,,,,,,,,,,,,,,,,,,,,,,,,,,,,,,,,,,,,,,,,,,,,,,,,,,,,,,,,,,,,,,,,,,,,,,,,,,,,,,,,,,,,,,,,,,,,,,,,,,,,,,,,
,,,,,,5c558bdd8925db000118c0a2,62bbfb520ebbeb5d2e6a7de7,2022-06-29_09h12.35.561,Colour_Asymmetry_Pilot,2022.1.3,Win32,60.12144532,62bbe60bf3d75ef465d3e404,0,7,7,32,1,onetwo,,,,,,,,,,,,,,,,,,,,,,,,,,,,,,,,,,,,,,,,,,,,,,,,,,,,,,,,,,,,,,,,,,,,,,,,,,,,,,,,,,,,,,,,,,,,,,,,,,,,,,,,,,,,,,,,,,,,,,,,,,,,,,,,,,,,,,,,,,,,,,,,,,,,,,,,
,,,,,,5c558bdd8925db000118c0a2,62bbfb520ebbeb5d2e6a7de7,2022-06-29_09h12.35.561,Colour_Asymmetry_Pilot,2022.1.3,Win32,60.12144532,62bbe60bf3d75ef465d3e404,0,8,8,105,1,onethree,,,,,,,,,,,,,,,,,,,,,,,,,,,,,,,,,,,,,,,,,,,,,,,,,,,,,,,,,,,,,,,,,,,,,,,,,,,,,,,,,,,,,,,,,,,,,,,,,,,,,,,,,,,,,,,,,,,,,,,,,,,,,,,,,,,,,,,,,,,,,,,,,,,,,,,,
,,,,,,5c558bdd8925db000118c0a2,62bbfb520ebbeb5d2e6a7de7,2022-06-29_09h12.35.561,Colour_Asymmetry_Pilot,2022.1.3,Win32,60.12144532,62bbe60bf3d75ef465d3e404,0,9,9,28,1,threeone,,,,,,,,,,,,,,,,,,,,,,,,,,,,,,,,,,,,,,,,,,,,,,,,,,,,,,,,,,,,,,,,,,,,,,,,,,,,,,,,,,,,,,,,,,,,,,,,,,,,,,,,,,,,,,,,,,,,,,,,,,,,,,,,,,,,,,,,,,,,,,,,,,,,,,,,
,,,,,,5c558bdd8925db000118c0a2,62bbfb520ebbeb5d2e6a7de7,2022-06-29_09h12.35.561,Colour_Asymmetry_Pilot,2022.1.3,Win32,60.12144532,62bbe60bf3d75ef465d3e404,0,10,10,47,1,fourthree,,,,,,,,,,,,,,,,,,,,,,,,,,,,,,,,,,,,,,,,,,,,,,,,,,,,,,,,,,,,,,,,,,,,,,,,,,,,,,,,,,,,,,,,,,,,,,,,,,,,,,,,,,,,,,,,,,,,,,,,,,,,,,,,,,,,,,,,,,,,,,,,,,,,,,,,
,,,,,,5c558bdd8925db000118c0a2,62bbfb520ebbeb5d2e6a7de7,2022-06-29_09h12.35.561,Colour_Asymmetry_Pilot,2022.1.3,Win32,60.12144532,62bbe60bf3d75ef465d3e404,0,11,11,16,1,onetwo,,,,,,,,,,,,,,,,,,,,,,,,,,,,,,,,,,,,,,,,,,,,,,,,,,,,,,,,,,,,,,,,,,,,,,,,,,,,,,,,,,,,,,,,,,,,,,,,,,,,,,,,,,,,,,,,,,,,,,,,,,,,,,,,,,,,,,,,,,,,,,,,,,,,,,,,
,,,,,,5c558bdd8925db000118c0a2,62bbfb520ebbeb5d2e6a7de7,2022-06-29_09h12.35.561,Colour_Asymmetry_Pilot,2022.1.3,Win32,60.12144532,62bbe60bf3d75ef465d3e404,0,12,12,88,1,onetwo,,,,,,,,,,,,,,,,,,,,,,,,,,,,,,,,,,,,,,,,,,,,,,,,,,,,,,,,,,,,,,,,,,,,,,,,,,,,,,,,,,,,,,,,,,,,,,,,,,,,,,,,,,,,,,,,,,,,,,,,,,,,,,,,,,,,,,,,,,,,,,,,,,,,,,,,
,,,,,,5c558bdd8925db000118c0a2,62bbfb520ebbeb5d2e6a7de7,2022-06-29_09h12.35.561,Colour_Asymmetry_Pilot,2022.1.3,Win32,60.12144532,62bbe60bf3d75ef465d3e404,0,13,13,34,1,twoone,,,,,,,,,,,,,,,,,,,,,,,,,,,,,,,,,,,,,,,,,,,,,,,,,,,,,,,,,,,,,,,,,,,,,,,,,,,,,,,,,,,,,,,,,,,,,,,,,,,,,,,,,,,,,,,,,,,,,,,,,,,,,,,,,,,,,,,,,,,,,,,,,,,,,,,,
,,,,,,5c558bdd8925db000118c0a2,62bbfb520ebbeb5d2e6a7de7,2022-06-29_09h12.35.561,Colour_Asymmetry_Pilot,2022.1.3,Win32,60.12144532,62bbe60bf3d75ef465d3e404,0,14,14,63,1,fourthree,,,,,,,,,,,,,,,,,,,,,,,,,,,,,,,,,,,,,,,,,,,,,,,,,,,,,,,,,,,,,,,,,,,,,,,,,,,,,,,,,,,,,,,,,,,,,,,,,,,,,,,,,,,,,,,,,,,,,,,,,,,,,,,,,,,,,,,,,,,,,,,,,,,,,,,,
,,,,,,5c558bdd8925db000118c0a2,62bbfb520ebbeb5d2e6a7de7,2022-06-29_09h12.35.561,Colour_Asymmetry_Pilot,2022.1.3,Win32,60.12144532,62bbe60bf3d75ef465d3e404,0,15,15,9,1,onethree,,,,,,,,,,,,,,,,,,,,,,,,,,,,,,,,,,,,,,,,,,,,,,,,,,,,,,,,,,,,,,,,,,,,,,,,,,,,,,,,,,,,,,,,,,,,,,,,,,,,,,,,,,,,,,,,,,,,,,,,,,,,,,,,,,,,,,,,,,,,,,,,,,,,,,,,
,,,,,,5c558bdd8925db000118c0a2,62bbfb520ebbeb5d2e6a7de7,2022-06-29_09h12.35.561,Colour_Asymmetry_Pilot,2022.1.3,Win32,60.12144532,62bbe60bf3d75ef465d3e404,0,16,16,111,1,fourthree,,,,,,,,,,,,,,,,,,,,,,,,,,,,,,,,,,,,,,,,,,,,,,,,,,,,,,,,,,,,,,,,,,,,,,,,,,,,,,,,,,,,,,,,,,,,,,,,,,,,,,,,,,,,,,,,,,,,,,,,,,,,,,,,,,,,,,,,,,,,,,,,,,,,,,,,
,,,,,,5c558bdd8925db000118c0a2,62bbfb520ebbeb5d2e6a7de7,2022-06-29_09h12.35.561,Colour_Asymmetry_Pilot,2022.1.3,Win32,60.12144532,62bbe60bf3d75ef465d3e404,0,17,17,96,1,onetwo,,,,,,,,,,,,,,,,,,,,,,,,,,,,,,,,,,,,,,,,,,,,,,,,,,,,,,,,,,,,,,,,,,,,,,,,,,,,,,,,,,,,,,,,,,,,,,,,,,,,,,,,,,,,,,,,,,,,,,,,,,,,,,,,,,,,,,,,,,,,,,,,,,,,,,,,
,,,,,,5c558bdd8925db000118c0a2,62bbfb520ebbeb5d2e6a7de7,2022-06-29_09h12.35.561,Colour_Asymmetry_Pilot,2022.1.3,Win32,60.12144532,62bbe60bf3d75ef465d3e404,0,18,18,126,1,fourtwo,,,,,,,,,,,,,,,,,,,,,,,,,,,,,,,,,,,,,,,,,,,,,,,,,,,,,,,,,,,,,,,,,,,,,,,,,,,,,,,,,,,,,,,,,,,,,,,,,,,,,,,,,,,,,,,,,,,,,,,,,,,,,,,,,,,,,,,,,,,,,,,,,,,,,,,,
,,,,,,5c558bdd8925db000118c0a2,62bbfb520ebbeb5d2e6a7de7,2022-06-29_09h12.35.561,Colour_Asymmetry_Pilot,2022.1.3,Win32,60.12144532,62bbe60bf3d75ef465d3e404,0,19,19,52,1,threeone,,,,,,,,,,,,,,,,,,,,,,,,,,,,,,,,,,,,,,,,,,,,,,,,,,,,,,,,,,,,,,,,,,,,,,,,,,,,,,,,,,,,,,,,,,,,,,,,,,,,,,,,,,,,,,,,,,,,,,,,,,,,,,,,,,,,,,,,,,,,,,,,,,,,,,,,
,,,,,,5c558bdd8925db000118c0a2,62bbfb520ebbeb5d2e6a7de7,2022-06-29_09h12.35.561,Colour_Asymmetry_Pilot,2022.1.3,Win32,60.12144532,62bbe60bf3d75ef465d3e404,0,20,20,23,1,fourthree,,,,,,,,,,,,,,,,,,,,,,,,,,,,,,,,,,,,,,,,,,,,,,,,,,,,,,,,,,,,,,,,,,,,,,,,,,,,,,,,,,,,,,,,,,,,,,,,,,,,,,,,,,,,,,,,,,,,,,,,,,,,,,,,,,,,,,,,,,,,,,,,,,,,,,,,
,,,,,,5c558bdd8925db000118c0a2,62bbfb520ebbeb5d2e6a7de7,2022-06-29_09h12.35.561,Colour_Asymmetry_Pilot,2022.1.3,Win32,60.12144532,62bbe60bf3d75ef465d3e404,0,21,21,19,1,twofour,,,,,,,,,,,,,,,,,,,,,,,,,,,,,,,,,,,,,,,,,,,,,,,,,,,,,,,,,,,,,,,,,,,,,,,,,,,,,,,,,,,,,,,,,,,,,,,,,,,,,,,,,,,,,,,,,,,,,,,,,,,,,,,,,,,,,,,,,,,,,,,,,,,,,,,,
,,,,,,5c558bdd8925db000118c0a2,62bbfb520ebbeb5d2e6a7de7,2022-06-29_09h12.35.561,Colour_Asymmetry_Pilot,2022.1.3,Win32,60.12144532,62bbe60bf3d75ef465d3e404,0,22,22,78,1,fourtwo,,,,,,,,,,,,,,,,,,,,,,,,,,,,,,,,,,,,,,,,,,,,,,,,,,,,,,,,,,,,,,,,,,,,,,,,,,,,,,,,,,,,,,,,,,,,,,,,,,,,,,,,,,,,,,,,,,,,,,,,,,,,,,,,,,,,,,,,,,,,,,,,,,,,,,,,
,,,,,,5c558bdd8925db000118c0a2,62bbfb520ebbeb5d2e6a7de7,2022-06-29_09h12.35.561,Colour_Asymmetry_Pilot,2022.1.3,Win32,60.12144532,62bbe60bf3d75ef465d3e404,0,23,23,124,1,threeone,,,,,,,,,,,,,,,,,,,,,,,,,,,,,,,,,,,,,,,,,,,,,,,,,,,,,,,,,,,,,,,,,,,,,,,,,,,,,,,,,,,,,,,,,,,,,,,,,,,,,,,,,,,,,,,,,,,,,,,,,,,,,,,,,,,,,,,,,,,,,,,,,,,,,,,,
,,,,,,5c558bdd8925db000118c0a2,62bbfb520ebbeb5d2e6a7de7,2022-06-29_09h12.35.561,Colour_Asymmetry_Pilot,2022.1.3,Win32,60.12144532,62bbe60bf3d75ef465d3e404,0,24,24,45,1,threefour,,,,,,,,,,,,,,,,,,,,,,,,,,,,,,,,,,,,,,,,,,,,,,,,,,,,,,,,,,,,,,,,,,,,,,,,,,,,,,,,,,,,,,,,,,,,,,,,,,,,,,,,,,,,,,,,,,,,,,,,,,,,,,,,,,,,,,,,,,,,,,,,,,,,,,,,
,,,,,,5c558bdd8925db000118c0a2,62bbfb520ebbeb5d2e6a7de7,2022-06-29_09h12.35.561,Colour_Asymmetry_Pilot,2022.1.3,Win32,60.12144532,62bbe60bf3d75ef465d3e404,0,25,25,81,1,onethree,,,,,,,,,,,,,,,,,,,,,,,,,,,,,,,,,,,,,,,,,,,,,,,,,,,,,,,,,,,,,,,,,,,,,,,,,,,,,,,,,,,,,,,,,,,,,,,,,,,,,,,,,,,,,,,,,,,,,,,,,,,,,,,,,,,,,,,,,,,,,,,,,,,,,,,,
,,,,,,5c558bdd8925db000118c0a2,62bbfb520ebbeb5d2e6a7de7,2022-06-29_09h12.35.561,Colour_Asymmetry_Pilot,2022.1.3,Win32,60.12144532,62bbe60bf3d75ef465d3e404,0,26,26,136,1,onetwo,,,,,,,,,,,,,,,,,,,,,,,,,,,,,,,,,,,,,,,,,,,,,,,,,,,,,,,,,,,,,,,,,,,,,,,,,,,,,,,,,,,,,,,,,,,,,,,,,,,,,,,,,,,,,,,,,,,,,,,,,,,,,,,,,,,,,,,,,,,,,,,,,,,,,,,,
,,,,,,5c558bdd8925db000118c0a2,62bbfb520ebbeb5d2e6a7de7,2022-06-29_09h12.35.561,Colour_Asymmetry_Pilot,2022.1.3,Win32,60.12144532,62bbe60bf3d75ef465d3e404,0,27,27,48,1,onetwo,,,,,,,,,,,,,,,,,,,,,,,,,,,,,,,,,,,,,,,,,,,,,,,,,,,,,,,,,,,,,,,,,,,,,,,,,,,,,,,,,,,,,,,,,,,,,,,,,,,,,,,,,,,,,,,,,,,,,,,,,,,,,,,,,,,,,,,,,,,,,,,,,,,,,,,,
,,,,,,5c558bdd8925db000118c0a2,62bbfb520ebbeb5d2e6a7de7,2022-06-29_09h12.35.561,Colour_Asymmetry_Pilot,2022.1.3,Win32,60.12144532,62bbe60bf3d75ef465d3e404,0,28,28,61,1,threefour,,,,,,,,,,,,,,,,,,,,,,,,,,,,,,,,,,,,,,,,,,,,,,,,,,,,,,,,,,,,,,,,,,,,,,,,,,,,,,,,,,,,,,,,,,,,,,,,,,,,,,,,,,,,,,,,,,,,,,,,,,,,,,,,,,,,,,,,,,,,,,,,,,,,,,,,
,,,,,,5c558bdd8925db000118c0a2,62bbfb520ebbeb5d2e6a7de7,2022-06-29_09h12.35.561,Colour_Asymmetry_Pilot,2022.1.3,Win32,60.12144532,62bbe60bf3d75ef465d3e404,0,29,29,140,1,threeone,,,,,,,,,,,,,,,,,,,,,,,,,,,,,,,,,,,,,,,,,,,,,,,,,,,,,,,,,,,,,,,,,,,,,,,,,,,,,,,,,,,,,,,,,,,,,,,,,,,,,,,,,,,,,,,,,,,,,,,,,,,,,,,,,,,,,,,,,,,,,,,,,,,,,,,,
,,,,,,5c558bdd8925db000118c0a2,62bbfb520ebbeb5d2e6a7de7,2022-06-29_09h12.35.561,Colour_Asymmetry_Pilot,2022.1.3,Win32,60.12144532,62bbe60bf3d75ef465d3e404,0,30,30,117,1,threefour,,,,,,,,,,,,,,,,,,,,,,,,,,,,,,,,,,,,,,,,,,,,,,,,,,,,,,,,,,,,,,,,,,,,,,,,,,,,,,,,,,,,,,,,,,,,,,,,,,,,,,,,,,,,,,,,,,,,,,,,,,,,,,,,,,,,,,,,,,,,,,,,,,,,,,,,
,,,,,,5c558bdd8925db000118c0a2,62bbfb520ebbeb5d2e6a7de7,2022-06-29_09h12.35.561,Colour_Asymmetry_Pilot,2022.1.3,Win32,60.12144532,62bbe60bf3d75ef465d3e404,0,31,31,90,1,twoone,,,,,,,,,,,,,,,,,,,,,,,,,,,,,,,,,,,,,,,,,,,,,,,,,,,,,,,,,,,,,,,,,,,,,,,,,,,,,,,,,,,,,,,,,,,,,,,,,,,,,,,,,,,,,,,,,,,,,,,,,,,,,,,,,,,,,,,,,,,,,,,,,,,,,,,,
,,,,,,5c558bdd8925db000118c0a2,62bbfb520ebbeb5d2e6a7de7,2022-06-29_09h12.35.561,Colour_Asymmetry_Pilot,2022.1.3,Win32,60.12144532,62bbe60bf3d75ef465d3e404,0,32,32,106,1,twoone,,,,,,,,,,,,,,,,,,,,,,,,,,,,,,,,,,,,,,,,,,,,,,,,,,,,,,,,,,,,,,,,,,,,,,,,,,,,,,,,,,,,,,,,,,,,,,,,,,,,,,,,,,,,,,,,,,,,,,,,,,,,,,,,,,,,,,,,,,,,,,,,,,,,,,,,
,,,,,,5c558bdd8925db000118c0a2,62bbfb520ebbeb5d2e6a7de7,2022-06-29_09h12.35.561,Colour_Asymmetry_Pilot,2022.1.3,Win32,60.12144532,62bbe60bf3d75ef465d3e404,0,33,33,50,1,twoone,,,,,,,,,,,,,,,,,,,,,,,,,,,,,,,,,,,,,,,,,,,,,,,,,,,,,,,,,,,,,,,,,,,,,,,,,,,,,,,,,,,,,,,,,,,,,,,,,,,,,,,,,,,,,,,,,,,,,,,,,,,,,,,,,,,,,,,,,,,,,,,,,,,,,,,,
,,,,,,5c558bdd8925db000118c0a2,62bbfb520ebbeb5d2e6a7de7,2022-06-29_09h12.35.561,Colour_Asymmetry_Pilot,2022.1.3,Win32,60.12144532,62bbe60bf3d75ef465d3e404,0,34,34,60,1,threeone,,,,,,,,,,,,,,,,,,,,,,,,,,,,,,,,,,,,,,,,,,,,,,,,,,,,,,,,,,,,,,,,,,,,,,,,,,,,,,,,,,,,,,,,,,,,,,,,,,,,,,,,,,,,,,,,,,,,,,,,,,,,,,,,,,,,,,,,,,,,,,,,,,,,,,,,
,,,,,,5c558bdd8925db000118c0a2,62bbfb520ebbeb5d2e6a7de7,2022-06-29_09h12.35.561,Colour_Asymmetry_Pilot,2022.1.3,Win32,60.12144532,62bbe60bf3d75ef465d3e404,0,35,35,87,1,fourthree,,,,,,,,,,,,,,,,,,,,,,,,,,,,,,,,,,,,,,,,,,,,,,,,,,,,,,,,,,,,,,,,,,,,,,,,,,,,,,,,,,,,,,,,,,,,,,,,,,,,,,,,,,,,,,,,,,,,,,,,,,,,,,,,,,,,,,,,,,,,,,,,,,,,,,,,
,,,,,,5c558bdd8925db000118c0a2,62bbfb520ebbeb5d2e6a7de7,2022-06-29_09h12.35.561,Colour_Asymmetry_Pilot,2022.1.3,Win32,60.12144532,62bbe60bf3d75ef465d3e404,0,36,36,10,1,twoone,,,,,,,,,,,,,,,,,,,,,,,,,,,,,,,,,,,,,,,,,,,,,,,,,,,,,,,,,,,,,,,,,,,,,,,,,,,,,,,,,,,,,,,,,,,,,,,,,,,,,,,,,,,,,,,,,,,,,,,,,,,,,,,,,,,,,,,,,,,,,,,,,,,,,,,,
,,,,,,5c558bdd8925db000118c0a2,62bbfb520ebbeb5d2e6a7de7,2022-06-29_09h12.35.561,Colour_Asymmetry_Pilot,2022.1.3,Win32,60.12144532,62bbe60bf3d75ef465d3e404,0,37,37,51,1,twofour,,,,,,,,,,,,,,,,,,,,,,,,,,,,,,,,,,,,,,,,,,,,,,,,,,,,,,,,,,,,,,,,,,,,,,,,,,,,,,,,,,,,,,,,,,,,,,,,,,,,,,,,,,,,,,,,,,,,,,,,,,,,,,,,,,,,,,,,,,,,,,,,,,,,,,,,
,,,,,,5c558bdd8925db000118c0a2,62bbfb520ebbeb5d2e6a7de7,2022-06-29_09h12.35.561,Colour_Asymmetry_Pilot,2022.1.3,Win32,60.12144532,62bbe60bf3d75ef465d3e404,0,38,38,121,1,onethree,,,,,,,,,,,,,,,,,,,,,,,,,,,,,,,,,,,,,,,,,,,,,,,,,,,,,,,,,,,,,,,,,,,,,,,,,,,,,,,,,,,,,,,,,,,,,,,,,,,,,,,,,,,,,,,,,,,,,,,,,,,,,,,,,,,,,,,,,,,,,,,,,,,,,,,,
,,,,,,5c558bdd8925db000118c0a2,62bbfb520ebbeb5d2e6a7de7,2022-06-29_09h12.35.561,Colour_Asymmetry_Pilot,2022.1.3,Win32,60.12144532,62bbe60bf3d75ef465d3e404,0,39,39,108,1,threeone,,,,,,,,,,,,,,,,,,,,,,,,,,,,,,,,,,,,,,,,,,,,,,,,,,,,,,,,,,,,,,,,,,,,,,,,,,,,,,,,,,,,,,,,,,,,,,,,,,,,,,,,,,,,,,,,,,,,,,,,,,,,,,,,,,,,,,,,,,,,,,,,,,,,,,,,
,,,,,,5c558bdd8925db000118c0a2,62bbfb520ebbeb5d2e6a7de7,2022-06-29_09h12.35.561,Colour_Asymmetry_Pilot,2022.1.3,Win32,60.12144532,62bbe60bf3d75ef465d3e404,0,40,40,35,1,twofour,,,,,,,,,,,,,,,,,,,,,,,,,,,,,,,,,,,,,,,,,,,,,,,,,,,,,,,,,,,,,,,,,,,,,,,,,,,,,,,,,,,,,,,,,,,,,,,,,,,,,,,,,,,,,,,,,,,,,,,,,,,,,,,,,,,,,,,,,,,,,,,,,,,,,,,,
,,,,,,5c558bdd8925db000118c0a2,62bbfb520ebbeb5d2e6a7de7,2022-06-29_09h12.35.561,Colour_Asymmetry_Pilot,2022.1.3,Win32,60.12144532,62bbe60bf3d75ef465d3e404,0,41,41,4,1,threeone,,,,,,,,,,,,,,,,,,,,,,,,,,,,,,,,,,,,,,,,,,,,,,,,,,,,,,,,,,,,,,,,,,,,,,,,,,,,,,,,,,,,,,,,,,,,,,,,,,,,,,,,,,,,,,,,,,,,,,,,,,,,,,,,,,,,,,,,,,,,,,,,,,,,,,,,
,,,,,,5c558bdd8925db000118c0a2,62bbfb520ebbeb5d2e6a7de7,2022-06-29_09h12.35.561,Colour_Asymmetry_Pilot,2022.1.3,Win32,60.12144532,62bbe60bf3d75ef465d3e404,0,42,42,80,1,onetwo,,,,,,,,,,,,,,,,,,,,,,,,,,,,,,,,,,,,,,,,,,,,,,,,,,,,,,,,,,,,,,,,,,,,,,,,,,,,,,,,,,,,,,,,,,,,,,,,,,,,,,,,,,,,,,,,,,,,,,,,,,,,,,,,,,,,,,,,,,,,,,,,,,,,,,,,
,,,,,,5c558bdd8925db000118c0a2,62bbfb520ebbeb5d2e6a7de7,2022-06-29_09h12.35.561,Colour_Asymmetry_Pilot,2022.1.3,Win32,60.12144532,62bbe60bf3d75ef465d3e404,0,43,43,146,1,twoone,,,,,,,,,,,,,,,,,,,,,,,,,,,,,,,,,,,,,,,,,,,,,,,,,,,,,,,,,,,,,,,,,,,,,,,,,,,,,,,,,,,,,,,,,,,,,,,,,,,,,,,,,,,,,,,,,,,,,,,,,,,,,,,,,,,,,,,,,,,,,,,,,,,,,,,,
,,,,,,5c558bdd8925db000118c0a2,62bbfb520ebbeb5d2e6a7de7,2022-06-29_09h12.35.561,Colour_Asymmetry_Pilot,2022.1.3,Win32,60.12144532,62bbe60bf3d75ef465d3e404,0,44,44,58,1,twoone,,,,,,,,,,,,,,,,,,,,,,,,,,,,,,,,,,,,,,,,,,,,,,,,,,,,,,,,,,,,,,,,,,,,,,,,,,,,,,,,,,,,,,,,,,,,,,,,,,,,,,,,,,,,,,,,,,,,,,,,,,,,,,,,,,,,,,,,,,,,,,,,,,,,,,,,
,,,,,,5c558bdd8925db000118c0a2,62bbfb520ebbeb5d2e6a7de7,2022-06-29_09h12.35.561,Colour_Asymmetry_Pilot,2022.1.3,Win32,60.12144532,62bbe60bf3d75ef465d3e404,0,45,45,65,1,onethree,,,,,,,,,,,,,,,,,,,,,,,,,,,,,,,,,,,,,,,,,,,,,,,,,,,,,,,,,,,,,,,,,,,,,,,,,,,,,,,,,,,,,,,,,,,,,,,,,,,,,,,,,,,,,,,,,,,,,,,,,,,,,,,,,,,,,,,,,,,,,,,,,,,,,,,,
,,,,,,5c558bdd8925db000118c0a2,62bbfb520ebbeb5d2e6a7de7,2022-06-29_09h12.35.561,Colour_Asymmetry_Pilot,2022.1.3,Win32,60.12144532,62bbe60bf3d75ef465d3e404,0,46,46,127,1,fourthree,,,,,,,,,,,,,,,,,,,,,,,,,,,,,,,,,,,,,,,,,,,,,,,,,,,,,,,,,,,,,,,,,,,,,,,,,,,,,,,,,,,,,,,,,,,,,,,,,,,,,,,,,,,,,,,,,,,,,,,,,,,,,,,,,,,,,,,,,,,,,,,,,,,,,,,,
,,,,,,5c558bdd8925db000118c0a2,62bbfb520ebbeb5d2e6a7de7,2022-06-29_09h12.35.561,Colour_Asymmetry_Pilot,2022.1.3,Win32,60.12144532,62bbe60bf3d75ef465d3e404,0,47,47,57,1,onethree,,,,,,,,,,,,,,,,,,,,,,,,,,,,,,,,,,,,,,,,,,,,,,,,,,,,,,,,,,,,,,,,,,,,,,,,,,,,,,,,,,,,,,,,,,,,,,,,,,,,,,,,,,,,,,,,,,,,,,,,,,,,,,,,,,,,,,,,,,,,,,,,,,,,,,,,
,,,,,,5c558bdd8925db000118c0a2,62bbfb520ebbeb5d2e6a7de7,2022-06-29_09h12.35.561,Colour_Asymmetry_Pilot,2022.1.3,Win32,60.12144532,62bbe60bf3d75ef465d3e404,0,48,48,128,1,onetwo,,,,,,,,,,,,,,,,,,,,,,,,,,,,,,,,,,,,,,,,,,,,,,,,,,,,,,,,,,,,,,,,,,,,,,,,,,,,,,,,,,,,,,,,,,,,,,,,,,,,,,,,,,,,,,,,,,,,,,,,,,,,,,,,,,,,,,,,,,,,,,,,,,,,,,,,
,,,,,,5c558bdd8925db000118c0a2,62bbfb520ebbeb5d2e6a7de7,2022-06-29_09h12.35.561,Colour_Asymmetry_Pilot,2022.1.3,Win32,60.12144532,62bbe60bf3d75ef465d3e404,0,49,49,70,1,fourtwo,,,,,,,,,,,,,,,,,,,,,,,,,,,,,,,,,,,,,,,,,,,,,,,,,,,,,,,,,,,,,,,,,,,,,,,,,,,,,,,,,,,,,,,,,,,,,,,,,,,,,,,,,,,,,,,,,,,,,,,,,,,,,,,,,,,,,,,,,,,,,,,,,,,,,,,,
,,,,,,5c558bdd8925db000118c0a2,62bbfb520ebbeb5d2e6a7de7,2022-06-29_09h12.35.561,Colour_Asymmetry_Pilot,2022.1.3,Win32,60.12144532,62bbe60bf3d75ef465d3e404,0,50,50,152,1,onetwo,,,,,,,,,,,,,,,,,,,,,,,,,,,,,,,,,,,,,,,,,,,,,,,,,,,,,,,,,,,,,,,,,,,,,,,,,,,,,,,,,,,,,,,,,,,,,,,,,,,,,,,,,,,,,,,,,,,,,,,,,,,,,,,,,,,,,,,,,,,,,,,,,,,,,,,,
,,,,,,5c558bdd8925db000118c0a2,62bbfb520ebbeb5d2e6a7de7,2022-06-29_09h12.35.561,Colour_Asymmetry_Pilot,2022.1.3,Win32,60.12144532,62bbe60bf3d75ef465d3e404,0,51,51,66,1,twoone,,,,,,,,,,,,,,,,,,,,,,,,,,,,,,,,,,,,,,,,,,,,,,,,,,,,,,,,,,,,,,,,,,,,,,,,,,,,,,,,,,,,,,,,,,,,,,,,,,,,,,,,,,,,,,,,,,,,,,,,,,,,,,,,,,,,,,,,,,,,,,,,,,,,,,,,
,,,,,,5c558bdd8925db000118c0a2,62bbfb520ebbeb5d2e6a7de7,2022-06-29_09h12.35.561,Colour_Asymmetry_Pilot,2022.1.3,Win32,60.12144532,62bbe60bf3d75ef465d3e404,0,52,52,59,1,twofour,,,,,,,,,,,,,,,,,,,,,,,,,,,,,,,,,,,,,,,,,,,,,,,,,,,,,,,,,,,,,,,,,,,,,,,,,,,,,,,,,,,,,,,,,,,,,,,,,,,,,,,,,,,,,,,,,,,,,,,,,,,,,,,,,,,,,,,,,,,,,,,,,,,,,,,,
,,,,,,5c558bdd8925db000118c0a2,62bbfb520ebbeb5d2e6a7de7,2022-06-29_09h12.35.561,Colour_Asymmetry_Pilot,2022.1.3,Win32,60.12144532,62bbe60bf3d75ef465d3e404,0,53,53,24,1,onetwo,,,,,,,,,,,,,,,,,,,,,,,,,,,,,,,,,,,,,,,,,,,,,,,,,,,,,,,,,,,,,,,,,,,,,,,,,,,,,,,,,,,,,,,,,,,,,,,,,,,,,,,,,,,,,,,,,,,,,,,,,,,,,,,,,,,,,,,,,,,,,,,,,,,,,,,,
,,,,,,5c558bdd8925db000118c0a2,62bbfb520ebbeb5d2e6a7de7,2022-06-29_09h12.35.561,Colour_Asymmetry_Pilot,2022.1.3,Win32,60.12144532,62bbe60bf3d75ef465d3e404,0,54,54,41,1,onethree,,,,,,,,,,,,,,,,,,,,,,,,,,,,,,,,,,,,,,,,,,,,,,,,,,,,,,,,,,,,,,,,,,,,,,,,,,,,,,,,,,,,,,,,,,,,,,,,,,,,,,,,,,,,,,,,,,,,,,,,,,,,,,,,,,,,,,,,,,,,,,,,,,,,,,,,
,,,,,,5c558bdd8925db000118c0a2,62bbfb520ebbeb5d2e6a7de7,2022-06-29_09h12.35.561,Colour_Asymmetry_Pilot,2022.1.3,Win32,60.12144532,62bbe60bf3d75ef465d3e404,0,55,55,143,1,fourthree,,,,,,,,,,,,,,,,,,,,,,,,,,,,,,,,,,,,,,,,,,,,,,,,,,,,,,,,,,,,,,,,,,,,,,,,,,,,,,,,,,,,,,,,,,,,,,,,,,,,,,,,,,,,,,,,,,,,,,,,,,,,,,,,,,,,,,,,,,,,,,,,,,,,,,,,
,,,,,,5c558bdd8925db000118c0a2,62bbfb520ebbeb5d2e6a7de7,2022-06-29_09h12.35.561,Colour_Asymmetry_Pilot,2022.1.3,Win32,60.12144532,62bbe60bf3d75ef465d3e404,0,56,56,33,1,onethree,,,,,,,,,,,,,,,,,,,,,,,,,,,,,,,,,,,,,,,,,,,,,,,,,,,,,,,,,,,,,,,,,,,,,,,,,,,,,,,,,,,,,,,,,,,,,,,,,,,,,,,,,,,,,,,,,,,,,,,,,,,,,,,,,,,,,,,,,,,,,,,,,,,,,,,,
,,,,,,5c558bdd8925db000118c0a2,62bbfb520ebbeb5d2e6a7de7,2022-06-29_09h12.35.561,Colour_Asymmetry_Pilot,2022.1.3,Win32,60.12144532,62bbe60bf3d75ef465d3e404,0,57,57,155,1,twofour,,,,,,,,,,,,,,,,,,,,,,,,,,,,,,,,,,,,,,,,,,,,,,,,,,,,,,,,,,,,,,,,,,,,,,,,,,,,,,,,,,,,,,,,,,,,,,,,,,,,,,,,,,,,,,,,,,,,,,,,,,,,,,,,,,,,,,,,,,,,,,,,,,,,,,,,
,,,,,,5c558bdd8925db000118c0a2,62bbfb520ebbeb5d2e6a7de7,2022-06-29_09h12.35.561,Colour_Asymmetry_Pilot,2022.1.3,Win32,60.12144532,62bbe60bf3d75ef465d3e404,0,58,58,112,1,onetwo,,,,,,,,,,,,,,,,,,,,,,,,,,,,,,,,,,,,,,,,,,,,,,,,,,,,,,,,,,,,,,,,,,,,,,,,,,,,,,,,,,,,,,,,,,,,,,,,,,,,,,,,,,,,,,,,,,,,,,,,,,,,,,,,,,,,,,,,,,,,,,,,,,,,,,,,
,,,,,,5c558bdd8925db000118c0a2,62bbfb520ebbeb5d2e6a7de7,2022-06-29_09h12.35.561,Colour_Asymmetry_Pilot,2022.1.3,Win32,60.12144532,62bbe60bf3d75ef465d3e404,0,59,59,134,1,fourtwo,,,,,,,,,,,,,,,,,,,,,,,,,,,,,,,,,,,,,,,,,,,,,,,,,,,,,,,,,,,,,,,,,,,,,,,,,,,,,,,,,,,,,,,,,,,,,,,,,,,,,,,,,,,,,,,,,,,,,,,,,,,,,,,,,,,,,,,,,,,,,,,,,,,,,,,,
,,,,,,5c558bdd8925db000118c0a2,62bbfb520ebbeb5d2e6a7de7,2022-06-29_09h12.35.561,Colour_Asymmetry_Pilot,2022.1.3,Win32,60.12144532,62bbe60bf3d75ef465d3e404,0,60,60,130,1,twoone,,,,,,,,,,,,,,,,,,,,,,,,,,,,,,,,,,,,,,,,,,,,,,,,,,,,,,,,,,,,,,,,,,,,,,,,,,,,,,,,,,,,,,,,,,,,,,,,,,,,,,,,,,,,,,,,,,,,,,,,,,,,,,,,,,,,,,,,,,,,,,,,,,,,,,,,
,,,,,,5c558bdd8925db000118c0a2,62bbfb520ebbeb5d2e6a7de7,2022-06-29_09h12.35.561,Colour_Asymmetry_Pilot,2022.1.3,Win32,60.12144532,62bbe60bf3d75ef465d3e404,0,61,61,79,1,fourthree,,,,,,,,,,,,,,,,,,,,,,,,,,,,,,,,,,,,,,,,,,,,,,,,,,,,,,,,,,,,,,,,,,,,,,,,,,,,,,,,,,,,,,,,,,,,,,,,,,,,,,,,,,,,,,,,,,,,,,,,,,,,,,,,,,,,,,,,,,,,,,,,,,,,,,,,
,,,,,,5c558bdd8925db000118c0a2,62bbfb520ebbeb5d2e6a7de7,2022-06-29_09h12.35.561,Colour_Asymmetry_Pilot,2022.1.3,Win32,60.12144532,62bbe60bf3d75ef465d3e404,0,62,62,99,1,twofour,,,,,,,,,,,,,,,,,,,,,,,,,,,,,,,,,,,,,,,,,,,,,,,,,,,,,,,,,,,,,,,,,,,,,,,,,,,,,,,,,,,,,,,,,,,,,,,,,,,,,,,,,,,,,,,,,,,,,,,,,,,,,,,,,,,,,,,,,,,,,,,,,,,,,,,,
,,,,,,5c558bdd8925db000118c0a2,62bbfb520ebbeb5d2e6a7de7,2022-06-29_09h12.35.561,Colour_Asymmetry_Pilot,2022.1.3,Win32,60.12144532,62bbe60bf3d75ef465d3e404,0,63,63,89,1,onethree,,,,,,,,,,,,,,,,,,,,,,,,,,,,,,,,,,,,,,,,,,,,,,,,,,,,,,,,,,,,,,,,,,,,,,,,,,,,,,,,,,,,,,,,,,,,,,,,,,,,,,,,,,,,,,,,,,,,,,,,,,,,,,,,,,,,,,,,,,,,,,,,,,,,,,,,
,,,,,,5c558bdd8925db000118c0a2,62bbfb520ebbeb5d2e6a7de7,2022-06-29_09h12.35.561,Colour_Asymmetry_Pilot,2022.1.3,Win32,60.12144532,62bbe60bf3d75ef465d3e404,0,64,64,110,1,fourtwo,,,,,,,,,,,,,,,,,,,,,,,,,,,,,,,,,,,,,,,,,,,,,,,,,,,,,,,,,,,,,,,,,,,,,,,,,,,,,,,,,,,,,,,,,,,,,,,,,,,,,,,,,,,,,,,,,,,,,,,,,,,,,,,,,,,,,,,,,,,,,,,,,,,,,,,,
,,,,,,5c558bdd8925db000118c0a2,62bbfb520ebbeb5d2e6a7de7,2022-06-29_09h12.35.561,Colour_Asymmetry_Pilot,2022.1.3,Win32,60.12144532,62bbe60bf3d75ef465d3e404,0,65,65,98,1,twoone,,,,,,,,,,,,,,,,,,,,,,,,,,,,,,,,,,,,,,,,,,,,,,,,,,,,,,,,,,,,,,,,,,,,,,,,,,,,,,,,,,,,,,,,,,,,,,,,,,,,,,,,,,,,,,,,,,,,,,,,,,,,,,,,,,,,,,,,,,,,,,,,,,,,,,,,
,,,,,,5c558bdd8925db000118c0a2,62bbfb520ebbeb5d2e6a7de7,2022-06-29_09h12.35.561,Colour_Asymmetry_Pilot,2022.1.3,Win32,60.12144532,62bbe60bf3d75ef465d3e404,0,66,66,43,1,twofour,,,,,,,,,,,,,,,,,,,,,,,,,,,,,,,,,,,,,,,,,,,,,,,,,,,,,,,,,,,,,,,,,,,,,,,,,,,,,,,,,,,,,,,,,,,,,,,,,,,,,,,,,,,,,,,,,,,,,,,,,,,,,,,,,,,,,,,,,,,,,,,,,,,,,,,,
,,,,,,5c558bdd8925db000118c0a2,62bbfb520ebbeb5d2e6a7de7,2022-06-29_09h12.35.561,Colour_Asymmetry_Pilot,2022.1.3,Win32,60.12144532,62bbe60bf3d75ef465d3e404,0,67,67,69,1,threefour,,,,,,,,,,,,,,,,,,,,,,,,,,,,,,,,,,,,,,,,,,,,,,,,,,,,,,,,,,,,,,,,,,,,,,,,,,,,,,,,,,,,,,,,,,,,,,,,,,,,,,,,,,,,,,,,,,,,,,,,,,,,,,,,,,,,,,,,,,,,,,,,,,,,,,,,
,,,,,,5c558bdd8925db000118c0a2,62bbfb520ebbeb5d2e6a7de7,2022-06-29_09h12.35.561,Colour_Asymmetry_Pilot,2022.1.3,Win32,60.12144532,62bbe60bf3d75ef465d3e404,0,68,68,29,1,threefour,,,,,,,,,,,,,,,,,,,,,,,,,,,,,,,,,,,,,,,,,,,,,,,,,,,,,,,,,,,,,,,,,,,,,,,,,,,,,,,,,,,,,,,,,,,,,,,,,,,,,,,,,,,,,,,,,,,,,,,,,,,,,,,,,,,,,,,,,,,,,,,,,,,,,,,,
,,,,,,5c558bdd8925db000118c0a2,62bbfb520ebbeb5d2e6a7de7,2022-06-29_09h12.35.561,Colour_Asymmetry_Pilot,2022.1.3,Win32,60.12144532,62bbe60bf3d75ef465d3e404,0,69,69,46,1,fourtwo,,,,,,,,,,,,,,,,,,,,,,,,,,,,,,,,,,,,,,,,,,,,,,,,,,,,,,,,,,,,,,,,,,,,,,,,,,,,,,,,,,,,,,,,,,,,,,,,,,,,,,,,,,,,,,,,,,,,,,,,,,,,,,,,,,,,,,,,,,,,,,,,,,,,,,,,
,,,,,,5c558bdd8925db000118c0a2,62bbfb520ebbeb5d2e6a7de7,2022-06-29_09h12.35.561,Colour_Asymmetry_Pilot,2022.1.3,Win32,60.12144532,62bbe60bf3d75ef465d3e404,0,70,70,74,1,twoone,,,,,,,,,,,,,,,,,,,,,,,,,,,,,,,,,,,,,,,,,,,,,,,,,,,,,,,,,,,,,,,,,,,,,,,,,,,,,,,,,,,,,,,,,,,,,,,,,,,,,,,,,,,,,,,,,,,,,,,,,,,,,,,,,,,,,,,,,,,,,,,,,,,,,,,,
,,,,,,5c558bdd8925db000118c0a2,62bbfb520ebbeb5d2e6a7de7,2022-06-29_09h12.35.561,Colour_Asymmetry_Pilot,2022.1.3,Win32,60.12144532,62bbe60bf3d75ef465d3e404,0,71,71,145,1,onethree,,,,,,,,,,,,,,,,,,,,,,,,,,,,,,,,,,,,,,,,,,,,,,,,,,,,,,,,,,,,,,,,,,,,,,,,,,,,,,,,,,,,,,,,,,,,,,,,,,,,,,,,,,,,,,,,,,,,,,,,,,,,,,,,,,,,,,,,,,,,,,,,,,,,,,,,
,,,,,,5c558bdd8925db000118c0a2,62bbfb520ebbeb5d2e6a7de7,2022-06-29_09h12.35.561,Colour_Asymmetry_Pilot,2022.1.3,Win32,60.12144532,62bbe60bf3d75ef465d3e404,0,72,72,11,1,twofour,,,,,,,,,,,,,,,,,,,,,,,,,,,,,,,,,,,,,,,,,,,,,,,,,,,,,,,,,,,,,,,,,,,,,,,,,,,,,,,,,,,,,,,,,,,,,,,,,,,,,,,,,,,,,,,,,,,,,,,,,,,,,,,,,,,,,,,,,,,,,,,,,,,,,,,,
,,,,,,5c558bdd8925db000118c0a2,62bbfb520ebbeb5d2e6a7de7,2022-06-29_09h12.35.561,Colour_Asymmetry_Pilot,2022.1.3,Win32,60.12144532,62bbe60bf3d75ef465d3e404,0,73,73,138,1,twoone,,,,,,,,,,,,,,,,,,,,,,,,,,,,,,,,,,,,,,,,,,,,,,,,,,,,,,,,,,,,,,,,,,,,,,,,,,,,,,,,,,,,,,,,,,,,,,,,,,,,,,,,,,,,,,,,,,,,,,,,,,,,,,,,,,,,,,,,,,,,,,,,,,,,,,,,
,,,,,,5c558bdd8925db000118c0a2,62bbfb520ebbeb5d2e6a7de7,2022-06-29_09h12.35.561,Colour_Asymmetry_Pilot,2022.1.3,Win32,60.12144532,62bbe60bf3d75ef465d3e404,0,74,74,2,1,twoone,,,,,,,,,,,,,,,,,,,,,,,,,,,,,,,,,,,,,,,,,,,,,,,,,,,,,,,,,,,,,,,,,,,,,,,,,,,,,,,,,,,,,,,,,,,,,,,,,,,,,,,,,,,,,,,,,,,,,,,,,,,,,,,,,,,,,,,,,,,,,,,,,,,,,,,,
,,,,,,5c558bdd8925db000118c0a2,62bbfb520ebbeb5d2e6a7de7,2022-06-29_09h12.35.561,Colour_Asymmetry_Pilot,2022.1.3,Win32,60.12144532,62bbe60bf3d75ef465d3e404,0,75,75,54,1,fourtwo,,,,,,,,,,,,,,,,,,,,,,,,,,,,,,,,,,,,,,,,,,,,,,,,,,,,,,,,,,,,,,,,,,,,,,,,,,,,,,,,,,,,,,,,,,,,,,,,,,,,,,,,,,,,,,,,,,,,,,,,,,,,,,,,,,,,,,,,,,,,,,,,,,,,,,,,
,,,,,,5c558bdd8925db000118c0a2,62bbfb520ebbeb5d2e6a7de7,2022-06-29_09h12.35.561,Colour_Asymmetry_Pilot,2022.1.3,Win32,60.12144532,62bbe60bf3d75ef465d3e404,0,76,76,15,1,fourthree,,,,,,,,,,,,,,,,,,,,,,,,,,,,,,,,,,,,,,,,,,,,,,,,,,,,,,,,,,,,,,,,,,,,,,,,,,,,,,,,,,,,,,,,,,,,,,,,,,,,,,,,,,,,,,,,,,,,,,,,,,,,,,,,,,,,,,,,,,,,,,,,,,,,,,,,
,,,,,,5c558bdd8925db000118c0a2,62bbfb520ebbeb5d2e6a7de7,2022-06-29_09h12.35.561,Colour_Asymmetry_Pilot,2022.1.3,Win32,60.12144532,62bbe60bf3d75ef465d3e404,0,77,77,118,1,fourtwo,,,,,,,,,,,,,,,,,,,,,,,,,,,,,,,,,,,,,,,,,,,,,,,,,,,,,,,,,,,,,,,,,,,,,,,,,,,,,,,,,,,,,,,,,,,,,,,,,,,,,,,,,,,,,,,,,,,,,,,,,,,,,,,,,,,,,,,,,,,,,,,,,,,,,,,,
,,,,,,5c558bdd8925db000118c0a2,62bbfb520ebbeb5d2e6a7de7,2022-06-29_09h12.35.561,Colour_Asymmetry_Pilot,2022.1.3,Win32,60.12144532,62bbe60bf3d75ef465d3e404,0,78,78,62,1,fourtwo,,,,,,,,,,,,,,,,,,,,,,,,,,,,,,,,,,,,,,,,,,,,,,,,,,,,,,,,,,,,,,,,,,,,,,,,,,,,,,,,,,,,,,,,,,,,,,,,,,,,,,,,,,,,,,,,,,,,,,,,,,,,,,,,,,,,,,,,,,,,,,,,,,,,,,,,
,,,,,,5c558bdd8925db000118c0a2,62bbfb520ebbeb5d2e6a7de7,2022-06-29_09h12.35.561,Colour_Asymmetry_Pilot,2022.1.3,Win32,60.12144532,62bbe60bf3d75ef465d3e404,0,79,79,83,1,twofour,,,,,,,,,,,,,,,,,,,,,,,,,,,,,,,,,,,,,,,,,,,,,,,,,,,,,,,,,,,,,,,,,,,,,,,,,,,,,,,,,,,,,,,,,,,,,,,,,,,,,,,,,,,,,,,,,,,,,,,,,,,,,,,,,,,,,,,,,,,,,,,,,,,,,,,,
,,,,,,5c558bdd8925db000118c0a2,62bbfb520ebbeb5d2e6a7de7,2022-06-29_09h12.35.561,Colour_Asymmetry_Pilot,2022.1.3,Win32,60.12144532,62bbe60bf3d75ef465d3e404,0,80,80,101,1,threefour,,,,,,,,,,,,,,,,,,,,,,,,,,,,,,,,,,,,,,,,,,,,,,,,,,,,,,,,,,,,,,,,,,,,,,,,,,,,,,,,,,,,,,,,,,,,,,,,,,,,,,,,,,,,,,,,,,,,,,,,,,,,,,,,,,,,,,,,,,,,,,,,,,,,,,,,
,,,,,,5c558bdd8925db000118c0a2,62bbfb520ebbeb5d2e6a7de7,2022-06-29_09h12.35.561,Colour_Asymmetry_Pilot,2022.1.3,Win32,60.12144532,62bbe60bf3d75ef465d3e404,0,81,81,18,1,twoone,,,,,,,,,,,,,,,,,,,,,,,,,,,,,,,,,,,,,,,,,,,,,,,,,,,,,,,,,,,,,,,,,,,,,,,,,,,,,,,,,,,,,,,,,,,,,,,,,,,,,,,,,,,,,,,,,,,,,,,,,,,,,,,,,,,,,,,,,,,,,,,,,,,,,,,,
,,,,,,5c558bdd8925db000118c0a2,62bbfb520ebbeb5d2e6a7de7,2022-06-29_09h12.35.561,Colour_Asymmetry_Pilot,2022.1.3,Win32,60.12144532,62bbe60bf3d75ef465d3e404,0,82,82,123,1,twofour,,,,,,,,,,,,,,,,,,,,,,,,,,,,,,,,,,,,,,,,,,,,,,,,,,,,,,,,,,,,,,,,,,,,,,,,,,,,,,,,,,,,,,,,,,,,,,,,,,,,,,,,,,,,,,,,,,,,,,,,,,,,,,,,,,,,,,,,,,,,,,,,,,,,,,,,
,,,,,,5c558bdd8925db000118c0a2,62bbfb520ebbeb5d2e6a7de7,2022-06-29_09h12.35.561,Colour_Asymmetry_Pilot,2022.1.3,Win32,60.12144532,62bbe60bf3d75ef465d3e404,0,83,83,6,1,fourtwo,,,,,,,,,,,,,,,,,,,,,,,,,,,,,,,,,,,,,,,,,,,,,,,,,,,,,,,,,,,,,,,,,,,,,,,,,,,,,,,,,,,,,,,,,,,,,,,,,,,,,,,,,,,,,,,,,,,,,,,,,,,,,,,,,,,,,,,,,,,,,,,,,,,,,,,,
,,,,,,5c558bdd8925db000118c0a2,62bbfb520ebbeb5d2e6a7de7,2022-06-29_09h12.35.561,Colour_Asymmetry_Pilot,2022.1.3,Win32,60.12144532,62bbe60bf3d75ef465d3e404,0,84,84,142,1,fourtwo,,,,,,,,,,,,,,,,,,,,,,,,,,,,,,,,,,,,,,,,,,,,,,,,,,,,,,,,,,,,,,,,,,,,,,,,,,,,,,,,,,,,,,,,,,,,,,,,,,,,,,,,,,,,,,,,,,,,,,,,,,,,,,,,,,,,,,,,,,,,,,,,,,,,,,,,
,,,,,,5c558bdd8925db000118c0a2,62bbfb520ebbeb5d2e6a7de7,2022-06-29_09h12.35.561,Colour_Asymmetry_Pilot,2022.1.3,Win32,60.12144532,62bbe60bf3d75ef465d3e404,0,85,85,153,1,onethree,,,,,,,,,,,,,,,,,,,,,,,,,,,,,,,,,,,,,,,,,,,,,,,,,,,,,,,,,,,,,,,,,,,,,,,,,,,,,,,,,,,,,,,,,,,,,,,,,,,,,,,,,,,,,,,,,,,,,,,,,,,,,,,,,,,,,,,,,,,,,,,,,,,,,,,,
,,,,,,5c558bdd8925db000118c0a2,62bbfb520ebbeb5d2e6a7de7,2022-06-29_09h12.35.561,Colour_Asymmetry_Pilot,2022.1.3,Win32,60.12144532,62bbe60bf3d75ef465d3e404,0,86,86,39,1,fourthree,,,,,,,,,,,,,,,,,,,,,,,,,,,,,,,,,,,,,,,,,,,,,,,,,,,,,,,,,,,,,,,,,,,,,,,,,,,,,,,,,,,,,,,,,,,,,,,,,,,,,,,,,,,,,,,,,,,,,,,,,,,,,,,,,,,,,,,,,,,,,,,,,,,,,,,,
,,,,,,5c558bdd8925db000118c0a2,62bbfb520ebbeb5d2e6a7de7,2022-06-29_09h12.35.561,Colour_Asymmetry_Pilot,2022.1.3,Win32,60.12144532,62bbe60bf3d75ef465d3e404,0,87,87,132,1,threeone,,,,,,,,,,,,,,,,,,,,,,,,,,,,,,,,,,,,,,,,,,,,,,,,,,,,,,,,,,,,,,,,,,,,,,,,,,,,,,,,,,,,,,,,,,,,,,,,,,,,,,,,,,,,,,,,,,,,,,,,,,,,,,,,,,,,,,,,,,,,,,,,,,,,,,,,
,,,,,,5c558bdd8925db000118c0a2,62bbfb520ebbeb5d2e6a7de7,2022-06-29_09h12.35.561,Colour_Asymmetry_Pilot,2022.1.3,Win32,60.12144532,62bbe60bf3d75ef465d3e404,0,88,88,56,1,onetwo,,,,,,,,,,,,,,,,,,,,,,,,,,,,,,,,,,,,,,,,,,,,,,,,,,,,,,,,,,,,,,,,,,,,,,,,,,,,,,,,,,,,,,,,,,,,,,,,,,,,,,,,,,,,,,,,,,,,,,,,,,,,,,,,,,,,,,,,,,,,,,,,,,,,,,,,
,,,,,,5c558bdd8925db000118c0a2,62bbfb520ebbeb5d2e6a7de7,2022-06-29_09h12.35.561,Colour_Asymmetry_Pilot,2022.1.3,Win32,60.12144532,62bbe60bf3d75ef465d3e404,0,89,89,36,1,threeone,,,,,,,,,,,,,,,,,,,,,,,,,,,,,,,,,,,,,,,,,,,,,,,,,,,,,,,,,,,,,,,,,,,,,,,,,,,,,,,,,,,,,,,,,,,,,,,,,,,,,,,,,,,,,,,,,,,,,,,,,,,,,,,,,,,,,,,,,,,,,,,,,,,,,,,,
,,,,,,5c558bdd8925db000118c0a2,62bbfb520ebbeb5d2e6a7de7,2022-06-29_09h12.35.561,Colour_Asymmetry_Pilot,2022.1.3,Win32,60.12144532,62bbe60bf3d75ef465d3e404,0,90,90,68,1,threeone,,,,,,,,,,,,,,,,,,,,,,,,,,,,,,,,,,,,,,,,,,,,,,,,,,,,,,,,,,,,,,,,,,,,,,,,,,,,,,,,,,,,,,,,,,,,,,,,,,,,,,,,,,,,,,,,,,,,,,,,,,,,,,,,,,,,,,,,,,,,,,,,,,,,,,,,
,,,,,,5c558bdd8925db000118c0a2,62bbfb520ebbeb5d2e6a7de7,2022-06-29_09h12.35.561,Colour_Asymmetry_Pilot,2022.1.3,Win32,60.12144532,62bbe60bf3d75ef465d3e404,0,91,91,21,1,threefour,,,,,,,,,,,,,,,,,,,,,,,,,,,,,,,,,,,,,,,,,,,,,,,,,,,,,,,,,,,,,,,,,,,,,,,,,,,,,,,,,,,,,,,,,,,,,,,,,,,,,,,,,,,,,,,,,,,,,,,,,,,,,,,,,,,,,,,,,,,,,,,,,,,,,,,,
,,,,,,5c558bdd8925db000118c0a2,62bbfb520ebbeb5d2e6a7de7,2022-06-29_09h12.35.561,Colour_Asymmetry_Pilot,2022.1.3,Win32,60.12144532,62bbe60bf3d75ef465d3e404,0,92,92,100,1,threeone,,,,,,,,,,,,,,,,,,,,,,,,,,,,,,,,,,,,,,,,,,,,,,,,,,,,,,,,,,,,,,,,,,,,,,,,,,,,,,,,,,,,,,,,,,,,,,,,,,,,,,,,,,,,,,,,,,,,,,,,,,,,,,,,,,,,,,,,,,,,,,,,,,,,,,,,
,,,,,,5c558bdd8925db000118c0a2,62bbfb520ebbeb5d2e6a7de7,2022-06-29_09h12.35.561,Colour_Asymmetry_Pilot,2022.1.3,Win32,60.12144532,62bbe60bf3d75ef465d3e404,0,93,93,31,1,fourthree,,,,,,,,,,,,,,,,,,,,,,,,,,,,,,,,,,,,,,,,,,,,,,,,,,,,,,,,,,,,,,,,,,,,,,,,,,,,,,,,,,,,,,,,,,,,,,,,,,,,,,,,,,,,,,,,,,,,,,,,,,,,,,,,,,,,,,,,,,,,,,,,,,,,,,,,
,,,,,,5c558bdd8925db000118c0a2,62bbfb520ebbeb5d2e6a7de7,2022-06-29_09h12.35.561,Colour_Asymmetry_Pilot,2022.1.3,Win32,60.12144532,62bbe60bf3d75ef465d3e404,0,94,94,49,1,onethree,,,,,,,,,,,,,,,,,,,,,,,,,,,,,,,,,,,,,,,,,,,,,,,,,,,,,,,,,,,,,,,,,,,,,,,,,,,,,,,,,,,,,,,,,,,,,,,,,,,,,,,,,,,,,,,,,,,,,,,,,,,,,,,,,,,,,,,,,,,,,,,,,,,,,,,,
,,,,,,5c558bdd8925db000118c0a2,62bbfb520ebbeb5d2e6a7de7,2022-06-29_09h12.35.561,Colour_Asymmetry_Pilot,2022.1.3,Win32,60.12144532,62bbe60bf3d75ef465d3e404,0,95,95,26,1,twoone,,,,,,,,,,,,,,,,,,,,,,,,,,,,,,,,,,,,,,,,,,,,,,,,,,,,,,,,,,,,,,,,,,,,,,,,,,,,,,,,,,,,,,,,,,,,,,,,,,,,,,,,,,,,,,,,,,,,,,,,,,,,,,,,,,,,,,,,,,,,,,,,,,,,,,,,
,,,,,,5c558bdd8925db000118c0a2,62bbfb520ebbeb5d2e6a7de7,2022-06-29_09h12.35.561,Colour_Asymmetry_Pilot,2022.1.3,Win32,60.12144532,62bbe60bf3d75ef465d3e404,0,96,96,120,1,onetwo,,,,,,,,,,,,,,,,,,,,,,,,,,,,,,,,,,,,,,,,,,,,,,,,,,,,,,,,,,,,,,,,,,,,,,,,,,,,,,,,,,,,,,,,,,,,,,,,,,,,,,,,,,,,,,,,,,,,,,,,,,,,,,,,,,,,,,,,,,,,,,,,,,,,,,,,
,,,,,,5c558bdd8925db000118c0a2,62bbfb520ebbeb5d2e6a7de7,2022-06-29_09h12.35.561,Colour_Asymmetry_Pilot,2022.1.3,Win32,60.12144532,62bbe60bf3d75ef465d3e404,0,97,97,161,1,onethree,,,,,,,,,,,,,,,,,,,,,,,,,,,,,,,,,,,,,,,,,,,,,,,,,,,,,,,,,,,,,,,,,,,,,,,,,,,,,,,,,,,,,,,,,,,,,,,,,,,,,,,,,,,,,,,,,,,,,,,,,,,,,,,,,,,,,,,,,,,,,,,,,,,,,,,,
,,,,,,5c558bdd8925db000118c0a2,62bbfb520ebbeb5d2e6a7de7,2022-06-29_09h12.35.561,Colour_Asymmetry_Pilot,2022.1.3,Win32,60.12144532,62bbe60bf3d75ef465d3e404,0,98,98,1,1,onethree,,,,,,,,,,,,,,,,,,,,,,,,,,,,,,,,,,,,,,,,,,,,,,,,,,,,,,,,,,,,,,,,,,,,,,,,,,,,,,,,,,,,,,,,,,,,,,,,,,,,,,,,,,,,,,,,,,,,,,,,,,,,,,,,,,,,,,,,,,,,,,,,,,,,,,,,
,,,,,,5c558bdd8925db000118c0a2,62bbfb520ebbeb5d2e6a7de7,2022-06-29_09h12.35.561,Colour_Asymmetry_Pilot,2022.1.3,Win32,60.12144532,62bbe60bf3d75ef465d3e404,0,99,99,135,1,fourthree,,,,,,,,,,,,,,,,,,,,,,,,,,,,,,,,,,,,,,,,,,,,,,,,,,,,,,,,,,,,,,,,,,,,,,,,,,,,,,,,,,,,,,,,,,,,,,,,,,,,,,,,,,,,,,,,,,,,,,,,,,,,,,,,,,,,,,,,,,,,,,,,,,,,,,,,
,,,,,,5c558bdd8925db000118c0a2,62bbfb520ebbeb5d2e6a7de7,2022-06-29_09h12.35.561,Colour_Asymmetry_Pilot,2022.1.3,Win32,60.12144532,62bbe60bf3d75ef465d3e404,0,100,100,72,1,onetwo,,,,,,,,,,,,,,,,,,,,,,,,,,,,,,,,,,,,,,,,,,,,,,,,,,,,,,,,,,,,,,,,,,,,,,,,,,,,,,,,,,,,,,,,,,,,,,,,,,,,,,,,,,,,,,,,,,,,,,,,,,,,,,,,,,,,,,,,,,,,,,,,,,,,,,,,
,,,,,,5c558bdd8925db000118c0a2,62bbfb520ebbeb5d2e6a7de7,2022-06-29_09h12.35.561,Colour_Asymmetry_Pilot,2022.1.3,Win32,60.12144532,62bbe60bf3d75ef465d3e404,0,101,101,103,1,fourthree,,,,,,,,,,,,,,,,,,,,,,,,,,,,,,,,,,,,,,,,,,,,,,,,,,,,,,,,,,,,,,,,,,,,,,,,,,,,,,,,,,,,,,,,,,,,,,,,,,,,,,,,,,,,,,,,,,,,,,,,,,,,,,,,,,,,,,,,,,,,,,,,,,,,,,,,
,,,,,,5c558bdd8925db000118c0a2,62bbfb520ebbeb5d2e6a7de7,2022-06-29_09h12.35.561,Colour_Asymmetry_Pilot,2022.1.3,Win32,60.12144532,62bbe60bf3d75ef465d3e404,0,102,102,107,1,twofour,,,,,,,,,,,,,,,,,,,,,,,,,,,,,,,,,,,,,,,,,,,,,,,,,,,,,,,,,,,,,,,,,,,,,,,,,,,,,,,,,,,,,,,,,,,,,,,,,,,,,,,,,,,,,,,,,,,,,,,,,,,,,,,,,,,,,,,,,,,,,,,,,,,,,,,,
,,,,,,5c558bdd8925db000118c0a2,62bbfb520ebbeb5d2e6a7de7,2022-06-29_09h12.35.561,Colour_Asymmetry_Pilot,2022.1.3,Win32,60.12144532,62bbe60bf3d75ef465d3e404,0,103,103,102,1,fourtwo,,,,,,,,,,,,,,,,,,,,,,,,,,,,,,,,,,,,,,,,,,,,,,,,,,,,,,,,,,,,,,,,,,,,,,,,,,,,,,,,,,,,,,,,,,,,,,,,,,,,,,,,,,,,,,,,,,,,,,,,,,,,,,,,,,,,,,,,,,,,,,,,,,,,,,,,
,,,,,,5c558bdd8925db000118c0a2,62bbfb520ebbeb5d2e6a7de7,2022-06-29_09h12.35.561,Colour_Asymmetry_Pilot,2022.1.3,Win32,60.12144532,62bbe60bf3d75ef465d3e404,0,104,104,84,1,threeone,,,,,,,,,,,,,,,,,,,,,,,,,,,,,,,,,,,,,,,,,,,,,,,,,,,,,,,,,,,,,,,,,,,,,,,,,,,,,,,,,,,,,,,,,,,,,,,,,,,,,,,,,,,,,,,,,,,,,,,,,,,,,,,,,,,,,,,,,,,,,,,,,,,,,,,,
,,,,,,5c558bdd8925db000118c0a2,62bbfb520ebbeb5d2e6a7de7,2022-06-29_09h12.35.561,Colour_Asymmetry_Pilot,2022.1.3,Win32,60.12144532,62bbe60bf3d75ef465d3e404,0,105,105,109,1,threefour,,,,,,,,,,,,,,,,,,,,,,,,,,,,,,,,,,,,,,,,,,,,,,,,,,,,,,,,,,,,,,,,,,,,,,,,,,,,,,,,,,,,,,,,,,,,,,,,,,,,,,,,,,,,,,,,,,,,,,,,,,,,,,,,,,,,,,,,,,,,,,,,,,,,,,,,
,,,,,,5c558bdd8925db000118c0a2,62bbfb520ebbeb5d2e6a7de7,2022-06-29_09h12.35.561,Colour_Asymmetry_Pilot,2022.1.3,Win32,60.12144532,62bbe60bf3d75ef465d3e404,0,106,106,38,1,fourtwo,,,,,,,,,,,,,,,,,,,,,,,,,,,,,,,,,,,,,,,,,,,,,,,,,,,,,,,,,,,,,,,,,,,,,,,,,,,,,,,,,,,,,,,,,,,,,,,,,,,,,,,,,,,,,,,,,,,,,,,,,,,,,,,,,,,,,,,,,,,,,,,,,,,,,,,,
,,,,,,5c558bdd8925db000118c0a2,62bbfb520ebbeb5d2e6a7de7,2022-06-29_09h12.35.561,Colour_Asymmetry_Pilot,2022.1.3,Win32,60.12144532,62bbe60bf3d75ef465d3e404,0,107,107,13,1,threefour,,,,,,,,,,,,,,,,,,,,,,,,,,,,,,,,,,,,,,,,,,,,,,,,,,,,,,,,,,,,,,,,,,,,,,,,,,,,,,,,,,,,,,,,,,,,,,,,,,,,,,,,,,,,,,,,,,,,,,,,,,,,,,,,,,,,,,,,,,,,,,,,,,,,,,,,
,,,,,,5c558bdd8925db000118c0a2,62bbfb520ebbeb5d2e6a7de7,2022-06-29_09h12.35.561,Colour_Asymmetry_Pilot,2022.1.3,Win32,60.12144532,62bbe60bf3d75ef465d3e404,0,108,108,73,1,onethree,,,,,,,,,,,,,,,,,,,,,,,,,,,,,,,,,,,,,,,,,,,,,,,,,,,,,,,,,,,,,,,,,,,,,,,,,,,,,,,,,,,,,,,,,,,,,,,,,,,,,,,,,,,,,,,,,,,,,,,,,,,,,,,,,,,,,,,,,,,,,,,,,,,,,,,,
,,,,,,5c558bdd8925db000118c0a2,62bbfb520ebbeb5d2e6a7de7,2022-06-29_09h12.35.561,Colour_Asymmetry_Pilot,2022.1.3,Win32,60.12144532,62bbe60bf3d75ef465d3e404,0,109,109,131,1,twofour,,,,,,,,,,,,,,,,,,,,,,,,,,,,,,,,,,,,,,,,,,,,,,,,,,,,,,,,,,,,,,,,,,,,,,,,,,,,,,,,,,,,,,,,,,,,,,,,,,,,,,,,,,,,,,,,,,,,,,,,,,,,,,,,,,,,,,,,,,,,,,,,,,,,,,,,
,,,,,,5c558bdd8925db000118c0a2,62bbfb520ebbeb5d2e6a7de7,2022-06-29_09h12.35.561,Colour_Asymmetry_Pilot,2022.1.3,Win32,60.12144532,62bbe60bf3d75ef465d3e404,0,110,110,93,1,threefour,,,,,,,,,,,,,,,,,,,,,,,,,,,,,,,,,,,,,,,,,,,,,,,,,,,,,,,,,,,,,,,,,,,,,,,,,,,,,,,,,,,,,,,,,,,,,,,,,,,,,,,,,,,,,,,,,,,,,,,,,,,,,,,,,,,,,,,,,,,,,,,,,,,,,,,,
,,,,,,5c558bdd8925db000118c0a2,62bbfb520ebbeb5d2e6a7de7,2022-06-29_09h12.35.561,Colour_Asymmetry_Pilot,2022.1.3,Win32,60.12144532,62bbe60bf3d75ef465d3e404,0,111,111,0,1,onetwo,,,,,,,,,,,,,,,,,,,,,,,,,,,,,,,,,,,,,,,,,,,,,,,,,,,,,,,,,,,,,,,,,,,,,,,,,,,,,,,,,,,,,,,,,,,,,,,,,,,,,,,,,,,,,,,,,,,,,,,,,,,,,,,,,,,,,,,,,,,,,,,,,,,,,,,,
,,,,,,5c558bdd8925db000118c0a2,62bbfb520ebbeb5d2e6a7de7,2022-06-29_09h12.35.561,Colour_Asymmetry_Pilot,2022.1.3,Win32,60.12144532,62bbe60bf3d75ef465d3e404,0,112,112,147,1,twofour,,,,,,,,,,,,,,,,,,,,,,,,,,,,,,,,,,,,,,,,,,,,,,,,,,,,,,,,,,,,,,,,,,,,,,,,,,,,,,,,,,,,,,,,,,,,,,,,,,,,,,,,,,,,,,,,,,,,,,,,,,,,,,,,,,,,,,,,,,,,,,,,,,,,,,,,
,,,,,,5c558bdd8925db000118c0a2,62bbfb520ebbeb5d2e6a7de7,2022-06-29_09h12.35.561,Colour_Asymmetry_Pilot,2022.1.3,Win32,60.12144532,62bbe60bf3d75ef465d3e404,0,113,113,95,1,fourthree,,,,,,,,,,,,,,,,,,,,,,,,,,,,,,,,,,,,,,,,,,,,,,,,,,,,,,,,,,,,,,,,,,,,,,,,,,,,,,,,,,,,,,,,,,,,,,,,,,,,,,,,,,,,,,,,,,,,,,,,,,,,,,,,,,,,,,,,,,,,,,,,,,,,,,,,
,,,,,,5c558bdd8925db000118c0a2,62bbfb520ebbeb5d2e6a7de7,2022-06-29_09h12.35.561,Colour_Asymmetry_Pilot,2022.1.3,Win32,60.12144532,62bbe60bf3d75ef465d3e404,0,114,114,53,1,threefour,,,,,,,,,,,,,,,,,,,,,,,,,,,,,,,,,,,,,,,,,,,,,,,,,,,,,,,,,,,,,,,,,,,,,,,,,,,,,,,,,,,,,,,,,,,,,,,,,,,,,,,,,,,,,,,,,,,,,,,,,,,,,,,,,,,,,,,,,,,,,,,,,,,,,,,,
,,,,,,5c558bdd8925db000118c0a2,62bbfb520ebbeb5d2e6a7de7,2022-06-29_09h12.35.561,Colour_Asymmetry_Pilot,2022.1.3,Win32,60.12144532,62bbe60bf3d75ef465d3e404,0,115,115,82,1,twoone,,,,,,,,,,,,,,,,,,,,,,,,,,,,,,,,,,,,,,,,,,,,,,,,,,,,,,,,,,,,,,,,,,,,,,,,,,,,,,,,,,,,,,,,,,,,,,,,,,,,,,,,,,,,,,,,,,,,,,,,,,,,,,,,,,,,,,,,,,,,,,,,,,,,,,,,
,,,,,,5c558bdd8925db000118c0a2,62bbfb520ebbeb5d2e6a7de7,2022-06-29_09h12.35.561,Colour_Asymmetry_Pilot,2022.1.3,Win32,60.12144532,62bbe60bf3d75ef465d3e404,0,116,116,97,1,onethree,,,,,,,,,,,,,,,,,,,,,,,,,,,,,,,,,,,,,,,,,,,,,,,,,,,,,,,,,,,,,,,,,,,,,,,,,,,,,,,,,,,,,,,,,,,,,,,,,,,,,,,,,,,,,,,,,,,,,,,,,,,,,,,,,,,,,,,,,,,,,,,,,,,,,,,,
,,,,,,5c558bdd8925db000118c0a2,62bbfb520ebbeb5d2e6a7de7,2022-06-29_09h12.35.561,Colour_Asymmetry_Pilot,2022.1.3,Win32,60.12144532,62bbe60bf3d75ef465d3e404,0,117,117,40,1,onetwo,,,,,,,,,,,,,,,,,,,,,,,,,,,,,,,,,,,,,,,,,,,,,,,,,,,,,,,,,,,,,,,,,,,,,,,,,,,,,,,,,,,,,,,,,,,,,,,,,,,,,,,,,,,,,,,,,,,,,,,,,,,,,,,,,,,,,,,,,,,,,,,,,,,,,,,,
,,,,,,5c558bdd8925db000118c0a2,62bbfb520ebbeb5d2e6a7de7,2022-06-29_09h12.35.561,Colour_Asymmetry_Pilot,2022.1.3,Win32,60.12144532,62bbe60bf3d75ef465d3e404,0,118,118,148,1,threeone,,,,,,,,,,,,,,,,,,,,,,,,,,,,,,,,,,,,,,,,,,,,,,,,,,,,,,,,,,,,,,,,,,,,,,,,,,,,,,,,,,,,,,,,,,,,,,,,,,,,,,,,,,,,,,,,,,,,,,,,,,,,,,,,,,,,,,,,,,,,,,,,,,,,,,,,
,,,,,,5c558bdd8925db000118c0a2,62bbfb520ebbeb5d2e6a7de7,2022-06-29_09h12.35.561,Colour_Asymmetry_Pilot,2022.1.3,Win32,60.12144532,62bbe60bf3d75ef465d3e404,0,119,119,133,1,threefour,,,,,,,,,,,,,,,,,,,,,,,,,,,,,,,,,,,,,,,,,,,,,,,,,,,,,,,,,,,,,,,,,,,,,,,,,,,,,,,,,,,,,,,,,,,,,,,,,,,,,,,,,,,,,,,,,,,,,,,,,,,,,,,,,,,,,,,,,,,,,,,,,,,,,,,,
,,,,,,5c558bdd8925db000118c0a2,62bbfb520ebbeb5d2e6a7de7,2022-06-29_09h12.35.561,Colour_Asymmetry_Pilot,2022.1.3,Win32,60.12144532,62bbe60bf3d75ef465d3e404,0,120,120,55,1,fourthree,,,,,,,,,,,,,,,,,,,,,,,,,,,,,,,,,,,,,,,,,,,,,,,,,,,,,,,,,,,,,,,,,,,,,,,,,,,,,,,,,,,,,,,,,,,,,,,,,,,,,,,,,,,,,,,,,,,,,,,,,,,,,,,,,,,,,,,,,,,,,,,,,,,,,,,,
,,,,,,5c558bdd8925db000118c0a2,62bbfb520ebbeb5d2e6a7de7,2022-06-29_09h12.35.561,Colour_Asymmetry_Pilot,2022.1.3,Win32,60.12144532,62bbe60bf3d75ef465d3e404,0,121,121,92,1,threeone,,,,,,,,,,,,,,,,,,,,,,,,,,,,,,,,,,,,,,,,,,,,,,,,,,,,,,,,,,,,,,,,,,,,,,,,,,,,,,,,,,,,,,,,,,,,,,,,,,,,,,,,,,,,,,,,,,,,,,,,,,,,,,,,,,,,,,,,,,,,,,,,,,,,,,,,
,,,,,,5c558bdd8925db000118c0a2,62bbfb520ebbeb5d2e6a7de7,2022-06-29_09h12.35.561,Colour_Asymmetry_Pilot,2022.1.3,Win32,60.12144532,62bbe60bf3d75ef465d3e404,0,122,122,30,1,fourtwo,,,,,,,,,,,,,,,,,,,,,,,,,,,,,,,,,,,,,,,,,,,,,,,,,,,,,,,,,,,,,,,,,,,,,,,,,,,,,,,,,,,,,,,,,,,,,,,,,,,,,,,,,,,,,,,,,,,,,,,,,,,,,,,,,,,,,,,,,,,,,,,,,,,,,,,,
,,,,,,5c558bdd8925db000118c0a2,62bbfb520ebbeb5d2e6a7de7,2022-06-29_09h12.35.561,Colour_Asymmetry_Pilot,2022.1.3,Win32,60.12144532,62bbe60bf3d75ef465d3e404,0,123,123,76,1,threeone,,,,,,,,,,,,,,,,,,,,,,,,,,,,,,,,,,,,,,,,,,,,,,,,,,,,,,,,,,,,,,,,,,,,,,,,,,,,,,,,,,,,,,,,,,,,,,,,,,,,,,,,,,,,,,,,,,,,,,,,,,,,,,,,,,,,,,,,,,,,,,,,,,,,,,,,
,,,,,,5c558bdd8925db000118c0a2,62bbfb520ebbeb5d2e6a7de7,2022-06-29_09h12.35.561,Colour_Asymmetry_Pilot,2022.1.3,Win32,60.12144532,62bbe60bf3d75ef465d3e404,0,124,124,125,1,threefour,,,,,,,,,,,,,,,,,,,,,,,,,,,,,,,,,,,,,,,,,,,,,,,,,,,,,,,,,,,,,,,,,,,,,,,,,,,,,,,,,,,,,,,,,,,,,,,,,,,,,,,,,,,,,,,,,,,,,,,,,,,,,,,,,,,,,,,,,,,,,,,,,,,,,,,,
,,,,,,5c558bdd8925db000118c0a2,62bbfb520ebbeb5d2e6a7de7,2022-06-29_09h12.35.561,Colour_Asymmetry_Pilot,2022.1.3,Win32,60.12144532,62bbe60bf3d75ef465d3e404,0,125,125,159,1,fourthree,,,,,,,,,,,,,,,,,,,,,,,,,,,,,,,,,,,,,,,,,,,,,,,,,,,,,,,,,,,,,,,,,,,,,,,,,,,,,,,,,,,,,,,,,,,,,,,,,,,,,,,,,,,,,,,,,,,,,,,,,,,,,,,,,,,,,,,,,,,,,,,,,,,,,,,,
,,,,,,5c558bdd8925db000118c0a2,62bbfb520ebbeb5d2e6a7de7,2022-06-29_09h12.35.561,Colour_Asymmetry_Pilot,2022.1.3,Win32,60.12144532,62bbe60bf3d75ef465d3e404,0,126,126,129,1,onethree,,,,,,,,,,,,,,,,,,,,,,,,,,,,,,,,,,,,,,,,,,,,,,,,,,,,,,,,,,,,,,,,,,,,,,,,,,,,,,,,,,,,,,,,,,,,,,,,,,,,,,,,,,,,,,,,,,,,,,,,,,,,,,,,,,,,,,,,,,,,,,,,,,,,,,,,
,,,,,,5c558bdd8925db000118c0a2,62bbfb520ebbeb5d2e6a7de7,2022-06-29_09h12.35.561,Colour_Asymmetry_Pilot,2022.1.3,Win32,60.12144532,62bbe60bf3d75ef465d3e404,0,127,127,160,1,onetwo,,,,,,,,,,,,,,,,,,,,,,,,,,,,,,,,,,,,,,,,,,,,,,,,,,,,,,,,,,,,,,,,,,,,,,,,,,,,,,,,,,,,,,,,,,,,,,,,,,,,,,,,,,,,,,,,,,,,,,,,,,,,,,,,,,,,,,,,,,,,,,,,,,,,,,,,
,,,,,,5c558bdd8925db000118c0a2,62bbfb520ebbeb5d2e6a7de7,2022-06-29_09h12.35.561,Colour_Asymmetry_Pilot,2022.1.3,Win32,60.12144532,62bbe60bf3d75ef465d3e404,0,128,128,156,1,threeone,,,,,,,,,,,,,,,,,,,,,,,,,,,,,,,,,,,,,,,,,,,,,,,,,,,,,,,,,,,,,,,,,,,,,,,,,,,,,,,,,,,,,,,,,,,,,,,,,,,,,,,,,,,,,,,,,,,,,,,,,,,,,,,,,,,,,,,,,,,,,,,,,,,,,,,,
,,,,,,5c558bdd8925db000118c0a2,62bbfb520ebbeb5d2e6a7de7,2022-06-29_09h12.35.561,Colour_Asymmetry_Pilot,2022.1.3,Win32,60.12144532,62bbe60bf3d75ef465d3e404,0,129,129,7,1,fourthree,,,,,,,,,,,,,,,,,,,,,,,,,,,,,,,,,,,,,,,,,,,,,,,,,,,,,,,,,,,,,,,,,,,,,,,,,,,,,,,,,,,,,,,,,,,,,,,,,,,,,,,,,,,,,,,,,,,,,,,,,,,,,,,,,,,,,,,,,,,,,,,,,,,,,,,,
,,,,,,5c558bdd8925db000118c0a2,62bbfb520ebbeb5d2e6a7de7,2022-06-29_09h12.35.561,Colour_Asymmetry_Pilot,2022.1.3,Win32,60.12144532,62bbe60bf3d75ef465d3e404,0,130,130,122,1,twoone,,,,,,,,,,,,,,,,,,,,,,,,,,,,,,,,,,,,,,,,,,,,,,,,,,,,,,,,,,,,,,,,,,,,,,,,,,,,,,,,,,,,,,,,,,,,,,,,,,,,,,,,,,,,,,,,,,,,,,,,,,,,,,,,,,,,,,,,,,,,,,,,,,,,,,,,
,,,,,,5c558bdd8925db000118c0a2,62bbfb520ebbeb5d2e6a7de7,2022-06-29_09h12.35.561,Colour_Asymmetry_Pilot,2022.1.3,Win32,60.12144532,62bbe60bf3d75ef465d3e404,0,131,131,22,1,fourtwo,,,,,,,,,,,,,,,,,,,,,,,,,,,,,,,,,,,,,,,,,,,,,,,,,,,,,,,,,,,,,,,,,,,,,,,,,,,,,,,,,,,,,,,,,,,,,,,,,,,,,,,,,,,,,,,,,,,,,,,,,,,,,,,,,,,,,,,,,,,,,,,,,,,,,,,,
,,,,,,5c558bdd8925db000118c0a2,62bbfb520ebbeb5d2e6a7de7,2022-06-29_09h12.35.561,Colour_Asymmetry_Pilot,2022.1.3,Win32,60.12144532,62bbe60bf3d75ef465d3e404,0,132,132,114,1,twoone,,,,,,,,,,,,,,,,,,,,,,,,,,,,,,,,,,,,,,,,,,,,,,,,,,,,,,,,,,,,,,,,,,,,,,,,,,,,,,,,,,,,,,,,,,,,,,,,,,,,,,,,,,,,,,,,,,,,,,,,,,,,,,,,,,,,,,,,,,,,,,,,,,,,,,,,
,,,,,,5c558bdd8925db000118c0a2,62bbfb520ebbeb5d2e6a7de7,2022-06-29_09h12.35.561,Colour_Asymmetry_Pilot,2022.1.3,Win32,60.12144532,62bbe60bf3d75ef465d3e404,0,133,133,104,1,onetwo,,,,,,,,,,,,,,,,,,,,,,,,,,,,,,,,,,,,,,,,,,,,,,,,,,,,,,,,,,,,,,,,,,,,,,,,,,,,,,,,,,,,,,,,,,,,,,,,,,,,,,,,,,,,,,,,,,,,,,,,,,,,,,,,,,,,,,,,,,,,,,,,,,,,,,,,
,,,,,,5c558bdd8925db000118c0a2,62bbfb520ebbeb5d2e6a7de7,2022-06-29_09h12.35.561,Colour_Asymmetry_Pilot,2022.1.3,Win32,60.12144532,62bbe60bf3d75ef465d3e404,0,134,134,75,1,twofour,,,,,,,,,,,,,,,,,,,,,,,,,,,,,,,,,,,,,,,,,,,,,,,,,,,,,,,,,,,,,,,,,,,,,,,,,,,,,,,,,,,,,,,,,,,,,,,,,,,,,,,,,,,,,,,,,,,,,,,,,,,,,,,,,,,,,,,,,,,,,,,,,,,,,,,,
,,,,,,5c558bdd8925db000118c0a2,62bbfb520ebbeb5d2e6a7de7,2022-06-29_09h12.35.561,Colour_Asymmetry_Pilot,2022.1.3,Win32,60.12144532,62bbe60bf3d75ef465d3e404,0,135,135,150,1,fourtwo,,,,,,,,,,,,,,,,,,,,,,,,,,,,,,,,,,,,,,,,,,,,,,,,,,,,,,,,,,,,,,,,,,,,,,,,,,,,,,,,,,,,,,,,,,,,,,,,,,,,,,,,,,,,,,,,,,,,,,,,,,,,,,,,,,,,,,,,,,,,,,,,,,,,,,,,
,,,,,,5c558bdd8925db000118c0a2,62bbfb520ebbeb5d2e6a7de7,2022-06-29_09h12.35.561,Colour_Asymmetry_Pilot,2022.1.3,Win32,60.12144532,62bbe60bf3d75ef465d3e404,0,136,136,137,1,onethree,,,,,,,,,,,,,,,,,,,,,,,,,,,,,,,,,,,,,,,,,,,,,,,,,,,,,,,,,,,,,,,,,,,,,,,,,,,,,,,,,,,,,,,,,,,,,,,,,,,,,,,,,,,,,,,,,,,,,,,,,,,,,,,,,,,,,,,,,,,,,,,,,,,,,,,,
,,,,,,5c558bdd8925db000118c0a2,62bbfb520ebbeb5d2e6a7de7,2022-06-29_09h12.35.561,Colour_Asymmetry_Pilot,2022.1.3,Win32,60.12144532,62bbe60bf3d75ef465d3e404,0,137,137,64,1,onetwo,,,,,,,,,,,,,,,,,,,,,,,,,,,,,,,,,,,,,,,,,,,,,,,,,,,,,,,,,,,,,,,,,,,,,,,,,,,,,,,,,,,,,,,,,,,,,,,,,,,,,,,,,,,,,,,,,,,,,,,,,,,,,,,,,,,,,,,,,,,,,,,,,,,,,,,,
,,,,,,5c558bdd8925db000118c0a2,62bbfb520ebbeb5d2e6a7de7,2022-06-29_09h12.35.561,Colour_Asymmetry_Pilot,2022.1.3,Win32,60.12144532,62bbe60bf3d75ef465d3e404,0,138,138,77,1,threefour,,,,,,,,,,,,,,,,,,,,,,,,,,,,,,,,,,,,,,,,,,,,,,,,,,,,,,,,,,,,,,,,,,,,,,,,,,,,,,,,,,,,,,,,,,,,,,,,,,,,,,,,,,,,,,,,,,,,,,,,,,,,,,,,,,,,,,,,,,,,,,,,,,,,,,,,
,,,,,,5c558bdd8925db000118c0a2,62bbfb520ebbeb5d2e6a7de7,2022-06-29_09h12.35.561,Colour_Asymmetry_Pilot,2022.1.3,Win32,60.12144532,62bbe60bf3d75ef465d3e404,0,139,139,115,1,twofour,,,,,,,,,,,,,,,,,,,,,,,,,,,,,,,,,,,,,,,,,,,,,,,,,,,,,,,,,,,,,,,,,,,,,,,,,,,,,,,,,,,,,,,,,,,,,,,,,,,,,,,,,,,,,,,,,,,,,,,,,,,,,,,,,,,,,,,,,,,,,,,,,,,,,,,,
,,,,,,5c558bdd8925db000118c0a2,62bbfb520ebbeb5d2e6a7de7,2022-06-29_09h12.35.561,Colour_Asymmetry_Pilot,2022.1.3,Win32,60.12144532,62bbe60bf3d75ef465d3e404,0,140,140,141,1,threefour,,,,,,,,,,,,,,,,,,,,,,,,,,,,,,,,,,,,,,,,,,,,,,,,,,,,,,,,,,,,,,,,,,,,,,,,,,,,,,,,,,,,,,,,,,,,,,,,,,,,,,,,,,,,,,,,,,,,,,,,,,,,,,,,,,,,,,,,,,,,,,,,,,,,,,,,
,,,,,,5c558bdd8925db000118c0a2,62bbfb520ebbeb5d2e6a7de7,2022-06-29_09h12.35.561,Colour_Asymmetry_Pilot,2022.1.3,Win32,60.12144532,62bbe60bf3d75ef465d3e404,0,141,141,37,1,threefour,,,,,,,,,,,,,,,,,,,,,,,,,,,,,,,,,,,,,,,,,,,,,,,,,,,,,,,,,,,,,,,,,,,,,,,,,,,,,,,,,,,,,,,,,,,,,,,,,,,,,,,,,,,,,,,,,,,,,,,,,,,,,,,,,,,,,,,,,,,,,,,,,,,,,,,,
,,,,,,5c558bdd8925db000118c0a2,62bbfb520ebbeb5d2e6a7de7,2022-06-29_09h12.35.561,Colour_Asymmetry_Pilot,2022.1.3,Win32,60.12144532,62bbe60bf3d75ef465d3e404,0,142,142,149,1,threefour,,,,,,,,,,,,,,,,,,,,,,,,,,,,,,,,,,,,,,,,,,,,,,,,,,,,,,,,,,,,,,,,,,,,,,,,,,,,,,,,,,,,,,,,,,,,,,,,,,,,,,,,,,,,,,,,,,,,,,,,,,,,,,,,,,,,,,,,,,,,,,,,,,,,,,,,
,,,,,,5c558bdd8925db000118c0a2,62bbfb520ebbeb5d2e6a7de7,2022-06-29_09h12.35.561,Colour_Asymmetry_Pilot,2022.1.3,Win32,60.12144532,62bbe60bf3d75ef465d3e404,0,143,143,17,1,onethree,,,,,,,,,,,,,,,,,,,,,,,,,,,,,,,,,,,,,,,,,,,,,,,,,,,,,,,,,,,,,,,,,,,,,,,,,,,,,,,,,,,,,,,,,,,,,,,,,,,,,,,,,,,,,,,,,,,,,,,,,,,,,,,,,,,,,,,,,,,,,,,,,,,,,,,,
,,,,,,5c558bdd8925db000118c0a2,62bbfb520ebbeb5d2e6a7de7,2022-06-29_09h12.35.561,Colour_Asymmetry_Pilot,2022.1.3,Win32,60.12144532,62bbe60bf3d75ef465d3e404,0,144,144,67,1,twofour,,,,,,,,,,,,,,,,,,,,,,,,,,,,,,,,,,,,,,,,,,,,,,,,,,,,,,,,,,,,,,,,,,,,,,,,,,,,,,,,,,,,,,,,,,,,,,,,,,,,,,,,,,,,,,,,,,,,,,,,,,,,,,,,,,,,,,,,,,,,,,,,,,,,,,,,
,,,,,,5c558bdd8925db000118c0a2,62bbfb520ebbeb5d2e6a7de7,2022-06-29_09h12.35.561,Colour_Asymmetry_Pilot,2022.1.3,Win32,60.12144532,62bbe60bf3d75ef465d3e404,0,145,145,116,1,threeone,,,,,,,,,,,,,,,,,,,,,,,,,,,,,,,,,,,,,,,,,,,,,,,,,,,,,,,,,,,,,,,,,,,,,,,,,,,,,,,,,,,,,,,,,,,,,,,,,,,,,,,,,,,,,,,,,,,,,,,,,,,,,,,,,,,,,,,,,,,,,,,,,,,,,,,,
,,,,,,5c558bdd8925db000118c0a2,62bbfb520ebbeb5d2e6a7de7,2022-06-29_09h12.35.561,Colour_Asymmetry_Pilot,2022.1.3,Win32,60.12144532,62bbe60bf3d75ef465d3e404,0,146,146,44,1,threeone,,,,,,,,,,,,,,,,,,,,,,,,,,,,,,,,,,,,,,,,,,,,,,,,,,,,,,,,,,,,,,,,,,,,,,,,,,,,,,,,,,,,,,,,,,,,,,,,,,,,,,,,,,,,,,,,,,,,,,,,,,,,,,,,,,,,,,,,,,,,,,,,,,,,,,,,
,,,,,,5c558bdd8925db000118c0a2,62bbfb520ebbeb5d2e6a7de7,2022-06-29_09h12.35.561,Colour_Asymmetry_Pilot,2022.1.3,Win32,60.12144532,62bbe60bf3d75ef465d3e404,0,147,147,91,1,twofour,,,,,,,,,,,,,,,,,,,,,,,,,,,,,,,,,,,,,,,,,,,,,,,,,,,,,,,,,,,,,,,,,,,,,,,,,,,,,,,,,,,,,,,,,,,,,,,,,,,,,,,,,,,,,,,,,,,,,,,,,,,,,,,,,,,,,,,,,,,,,,,,,,,,,,,,
,,,,,,5c558bdd8925db000118c0a2,62bbfb520ebbeb5d2e6a7de7,2022-06-29_09h12.35.561,Colour_Asymmetry_Pilot,2022.1.3,Win32,60.12144532,62bbe60bf3d75ef465d3e404,0,148,148,86,1,fourtwo,,,,,,,,,,,,,,,,,,,,,,,,,,,,,,,,,,,,,,,,,,,,,,,,,,,,,,,,,,,,,,,,,,,,,,,,,,,,,,,,,,,,,,,,,,,,,,,,,,,,,,,,,,,,,,,,,,,,,,,,,,,,,,,,,,,,,,,,,,,,,,,,,,,,,,,,
,,,,,,5c558bdd8925db000118c0a2,62bbfb520ebbeb5d2e6a7de7,2022-06-29_09h12.35.561,Colour_Asymmetry_Pilot,2022.1.3,Win32,60.12144532,62bbe60bf3d75ef465d3e404,0,149,149,8,1,onetwo,,,,,,,,,,,,,,,,,,,,,,,,,,,,,,,,,,,,,,,,,,,,,,,,,,,,,,,,,,,,,,,,,,,,,,,,,,,,,,,,,,,,,,,,,,,,,,,,,,,,,,,,,,,,,,,,,,,,,,,,,,,,,,,,,,,,,,,,,,,,,,,,,,,,,,,,
,,,,,,5c558bdd8925db000118c0a2,62bbfb520ebbeb5d2e6a7de7,2022-06-29_09h12.35.561,Colour_Asymmetry_Pilot,2022.1.3,Win32,60.12144532,62bbe60bf3d75ef465d3e404,0,150,150,42,1,twoone,,,,,,,,,,,,,,,,,,,,,,,,,,,,,,,,,,,,,,,,,,,,,,,,,,,,,,,,,,,,,,,,,,,,,,,,,,,,,,,,,,,,,,,,,,,,,,,,,,,,,,,,,,,,,,,,,,,,,,,,,,,,,,,,,,,,,,,,,,,,,,,,,,,,,,,,
,,,,,,5c558bdd8925db000118c0a2,62bbfb520ebbeb5d2e6a7de7,2022-06-29_09h12.35.561,Colour_Asymmetry_Pilot,2022.1.3,Win32,60.12144532,62bbe60bf3d75ef465d3e404,0,151,151,144,1,onetwo,,,,,,,,,,,,,,,,,,,,,,,,,,,,,,,,,,,,,,,,,,,,,,,,,,,,,,,,,,,,,,,,,,,,,,,,,,,,,,,,,,,,,,,,,,,,,,,,,,,,,,,,,,,,,,,,,,,,,,,,,,,,,,,,,,,,,,,,,,,,,,,,,,,,,,,,
,,,,,,5c558bdd8925db000118c0a2,62bbfb520ebbeb5d2e6a7de7,2022-06-29_09h12.35.561,Colour_Asymmetry_Pilot,2022.1.3,Win32,60.12144532,62bbe60bf3d75ef465d3e404,0,152,152,157,1,threefour,,,,,,,,,,,,,,,,,,,,,,,,,,,,,,,,,,,,,,,,,,,,,,,,,,,,,,,,,,,,,,,,,,,,,,,,,,,,,,,,,,,,,,,,,,,,,,,,,,,,,,,,,,,,,,,,,,,,,,,,,,,,,,,,,,,,,,,,,,,,,,,,,,,,,,,,
,,,,,,5c558bdd8925db000118c0a2,62bbfb520ebbeb5d2e6a7de7,2022-06-29_09h12.35.561,Colour_Asymmetry_Pilot,2022.1.3,Win32,60.12144532,62bbe60bf3d75ef465d3e404,0,153,153,25,1,onethree,,,,,,,,,,,,,,,,,,,,,,,,,,,,,,,,,,,,,,,,,,,,,,,,,,,,,,,,,,,,,,,,,,,,,,,,,,,,,,,,,,,,,,,,,,,,,,,,,,,,,,,,,,,,,,,,,,,,,,,,,,,,,,,,,,,,,,,,,,,,,,,,,,,,,,,,
,,,,,,5c558bdd8925db000118c0a2,62bbfb520ebbeb5d2e6a7de7,2022-06-29_09h12.35.561,Colour_Asymmetry_Pilot,2022.1.3,Win32,60.12144532,62bbe60bf3d75ef465d3e404,0,154,154,154,1,twoone,,,,,,,,,,,,,,,,,,,,,,,,,,,,,,,,,,,,,,,,,,,,,,,,,,,,,,,,,,,,,,,,,,,,,,,,,,,,,,,,,,,,,,,,,,,,,,,,,,,,,,,,,,,,,,,,,,,,,,,,,,,,,,,,,,,,,,,,,,,,,,,,,,,,,,,,
,,,,,,5c558bdd8925db000118c0a2,62bbfb520ebbeb5d2e6a7de7,2022-06-29_09h12.35.561,Colour_Asymmetry_Pilot,2022.1.3,Win32,60.12144532,62bbe60bf3d75ef465d3e404,0,155,155,20,1,threeone,,,,,,,,,,,,,,,,,,,,,,,,,,,,,,,,,,,,,,,,,,,,,,,,,,,,,,,,,,,,,,,,,,,,,,,,,,,,,,,,,,,,,,,,,,,,,,,,,,,,,,,,,,,,,,,,,,,,,,,,,,,,,,,,,,,,,,,,,,,,,,,,,,,,,,,,
,,,,,,5c558bdd8925db000118c0a2,62bbfb520ebbeb5d2e6a7de7,2022-06-29_09h12.35.561,Colour_Asymmetry_Pilot,2022.1.3,Win32,60.12144532,62bbe60bf3d75ef465d3e404,0,156,156,27,1,twofour,,,,,,,,,,,,,,,,,,,,,,,,,,,,,,,,,,,,,,,,,,,,,,,,,,,,,,,,,,,,,,,,,,,,,,,,,,,,,,,,,,,,,,,,,,,,,,,,,,,,,,,,,,,,,,,,,,,,,,,,,,,,,,,,,,,,,,,,,,,,,,,,,,,,,,,,
,,,,,,5c558bdd8925db000118c0a2,62bbfb520ebbeb5d2e6a7de7,2022-06-29_09h12.35.561,Colour_Asymmetry_Pilot,2022.1.3,Win32,60.12144532,62bbe60bf3d75ef465d3e404,0,157,157,3,1,twofour,,,,,,,,,,,,,,,,,,,,,,,,,,,,,,,,,,,,,,,,,,,,,,,,,,,,,,,,,,,,,,,,,,,,,,,,,,,,,,,,,,,,,,,,,,,,,,,,,,,,,,,,,,,,,,,,,,,,,,,,,,,,,,,,,,,,,,,,,,,,,,,,,,,,,,,,
,,,,,,5c558bdd8925db000118c0a2,62bbfb520ebbeb5d2e6a7de7,2022-06-29_09h12.35.561,Colour_Asymmetry_Pilot,2022.1.3,Win32,60.12144532,62bbe60bf3d75ef465d3e404,0,158,158,113,1,onethree,,,,,,,,,,,,,,,,,,,,,,,,,,,,,,,,,,,,,,,,,,,,,,,,,,,,,,,,,,,,,,,,,,,,,,,,,,,,,,,,,,,,,,,,,,,,,,,,,,,,,,,,,,,,,,,,,,,,,,,,,,,,,,,,,,,,,,,,,,,,,,,,,,,,,,,,
,,,,,,5c558bdd8925db000118c0a2,62bbfb520ebbeb5d2e6a7de7,2022-06-29_09h12.35.561,Colour_Asymmetry_Pilot,2022.1.3,Win32,60.12144532,62bbe60bf3d75ef465d3e404,0,159,159,151,1,fourthree,,,,,,,,,,,,,,,,,,,,,,,,,,,,,,,,,,,,,,,,,,,,,,,,,,,,,,,,,,,,,,,,,,,,,,,,,,,,,,,,,,,,,,,,,,,,,,,,,,,,,,,,,,,,,,,,,,,,,,,,,,,,,,,,,,,,,,,,,,,,,,,,,,,,,,,,
,,,,,,5c558bdd8925db000118c0a2,62bbfb520ebbeb5d2e6a7de7,2022-06-29_09h12.35.561,Colour_Asymmetry_Pilot,2022.1.3,Win32,60.12144532,62bbe60bf3d75ef465d3e404,0,160,160,85,1,threefour,,,,,,,,,,,,,,,,,,,,,,,,,,,,,,,,,,,,,,,,,,,,,,,,,,,,,,,,,,,,,,,,,,,,,,,,,,,,,,,,,,,,,,,,,,,,,,,,,,,,,,,,,,,,,,,,,,,,,,,,,,,,,,,,,,,,,,,,,,,,,,,,,,,,,,,,
,,,,,,5c558bdd8925db000118c0a2,62bbfb520ebbeb5d2e6a7de7,2022-06-29_09h12.35.561,Colour_Asymmetry_Pilot,2022.1.3,Win32,60.12144532,62bbe60bf3d75ef465d3e404,0,161,161,71,1,fourthree,,,,,,,,,,,,,,,,,,,,,,,,,,,,,,,,,,,,,,,,,,,,,,,,,,,,,,,,,,,,,,,,,,,,,,,,,,,,,,,,,,,,,,,,,,,,,,,,,,,,,,,,,,,,,,,,,,,,,,,,,,,,,,,,,,,,,,,,,,,,,,,,,,,,,,,,
,,,,,,5c558bdd8925db000118c0a2,62bbfb520ebbeb5d2e6a7de7,2022-06-29_09h12.35.561,Colour_Asymmetry_Pilot,2022.1.3,Win32,60.12144532,62bbe60bf3d75ef465d3e404,,,,,,,space,630.433,space,7.6114,space,156.6803,space,24.5387,space,2.5547,space,5.5936,"[0.9686000000000001,0.5763999999999998,0.11359999999999992]",twofour,"[0.8274000000000001,-0.5844,-0.9452]",4,15.9993,65,123.5,1,0,0,response1disk_5,-1,1.5,1,0,0,rectangle_8,-1,1.5,1,0,0,2,-1,1.5,1,0,0,0,0,0,0,1,,,,,,,,,,,,,,,,,,,,,,,,,,,,,,,,,,,,,,,,,,,,,,,,,,,,,,,,,,,,,,,,,,,,,,,,,,,,,,,,,,,,,,,,,,,,,,,,,,,,,,,,,,,
,,,,,,5c558bdd8925db000118c0a2,62bbfb520ebbeb5d2e6a7de7,2022-06-29_09h12.35.561,Colour_Asymmetry_Pilot,2022.1.3,Win32,60.12144532,62bbe60bf3d75ef465d3e404,,,,,,,,,,,,,,,,,,,"[0.11359999999999992,0.6312,0.5213999999999999]",onetwo,"[-0.050999999999999934,-0.6706000000000001,-0.804]",4,6.9975,57,135.5,1,0,0,response1disk_5,1,3.5,1,0,0,rectangle_8,127,-49.5,1,0,0,2,-27,-11.5,1,0,0,1,0,1,0,1,response3disk_7,5,rectangle_4,,,,,,,,,,,,,,,,,,,,,,,,,,,,,,,,,,,,,,,,,,,,,,,,,,,,,,,,,,,,,,,,,,,,,,,,,,,,,,,,,,,,,,,,,,,,,,,,,,,,,,,,
,,,,,,5c558bdd8925db000118c0a2,62bbfb520ebbeb5d2e6a7de7,2022-06-29_09h12.35.561,Colour_Asymmetry_Pilot,2022.1.3,Win32,60.12144532,62bbe60bf3d75ef465d3e404,,,,,,,,,,,,,,,,,,,"[0.9372,0.20779999999999998,0.2704]",twofour,"[-0.10599999999999998,-0.10599999999999998,0.5841999999999998]",-4,1.9513,-93,139.5,1,0,0,response7disk_5,15,-4.5,1,0,0,rectangle_8,15,-4.5,1,0,0,2,15,-4.5,1,0,0,2,0,2,0,1,,,,,,,,,,,,,,,,,,,,,,,,,,,,,,,,,,,,,,,,,,,,,,,,,,,,,,,,,,,,,,,,,,,,,,,,,,,,,,,,,,,,,,,,,,,,,,,,,,,,,,,,,,,
,,,,,,5c558bdd8925db000118c0a2,62bbfb520ebbeb5d2e6a7de7,2022-06-29_09h12.35.561,Colour_Asymmetry_Pilot,2022.1.3,Win32,60.12144532,62bbe60bf3d75ef465d3e404,,,,,,,,,,,,,,,,,,,"[-0.6,0.16860000000000008,0.44300000000000006]",twoone,"[0.40379999999999994,0.09000000000000008,0.44300000000000006]",-3,1.7724,-94,46.5,1,0,0,response7disk_5,-23,-3.5,1,0,0,rectangle_8,113,-61.5,1,0,0,2,6,-11.5,1,0,0,3,0,3,0,1,response3disk_7,5,rectangle_4,,,,,,,,,,,,,,,,,,,,,,,,,,,,,,,,,,,,,,,,,,,,,,,,,,,,,,,,,,,,,,,,,,,,,,,,,,,,,,,,,,,,,,,,,,,,,,,,,,,,,,,,
,,,,,,5c558bdd8925db000118c0a2,62bbfb520ebbeb5d2e6a7de7,2022-06-29_09h12.35.561,Colour_Asymmetry_Pilot,2022.1.3,Win32,60.12144532,62bbe60bf3d75ef465d3e404,,,,,,,,,,,,,,,,,,,"[0.5449999999999999,-0.31000000000000005,-0.0354000000000001]",fourthree,"[-0.2942,-0.24719999999999998,-0.357]",-4,1.9126,-61,116.5,1,0,0,response7disk_5,-20,2.5,1,0,0,rectangle_8,-20,2.5,1,0,0,2,-20,2.5,1,0,0,4,0,4,0,1,,,,,,,,,,,,,,,,,,,,,,,,,,,,,,,,,,,,,,,,,,,,,,,,,,,,,,,,,,,,,,,,,,,,,,,,,,,,,,,,,,,,,,,,,,,,,,,,,,,,,,,,,,,
,,,,,,5c558bdd8925db000118c0a2,62bbfb520ebbeb5d2e6a7de7,2022-06-29_09h12.35.561,Colour_Asymmetry_Pilot,2022.1.3,Win32,60.12144532,62bbe60bf3d75ef465d3e404,,,,,,,,,,,,,,,,,,,"[0.2784,-0.31000000000000005,-0.5452]",onetwo,"[-0.07459999999999989,0.12139999999999995,-0.9922]",-3,1.7906,-123,62.5,1,0,0,response7disk_5,0,-9.5,1,0,0,rectangle_8,0,-9.5,1,0,0,2,0,-9.5,1,0,0,5,0,5,0,1,,,,,,,,,,,,,,,,,,,,,,,,,,,,,,,,,,,,,,,,,,,,,,,,,,,,,,,,,,,,,,,,,,,,,,,,,,,,,,,,,,,,,,,,,,,,,,,,,,,,,,,,,,,
,,,,,,5c558bdd8925db000118c0a2,62bbfb520ebbeb5d2e6a7de7,2022-06-29_09h12.35.561,Colour_Asymmetry_Pilot,2022.1.3,Win32,60.12144532,62bbe60bf3d75ef465d3e404,,,,,,,,,,,,,,,,,,,"[0.7802,-0.23140000000000005,-0.20799999999999996]",threeone,"[1,0.12939999999999996,-1]",-3,1.6595,-107,74.5,1,0,0,response7disk_5,-2,-6.5,1,0,0,rectangle_8,-2,-6.5,1,0,0,2,-2,-6.5,1,0,0,6,0,6,0,1,,,,,,,,,,,,,,,,,,,,,,,,,,,,,,,,,,,,,,,,,,,,,,,,,,,,,,,,,,,,,,,,,,,,,,,,,,,,,,,,,,,,,,,,,,,,,,,,,,,,,,,,,,,
,,,,,,5c558bdd8925db000118c0a2,62bbfb520ebbeb5d2e6a7de7,2022-06-29_09h12.35.561,Colour_Asymmetry_Pilot,2022.1.3,Win32,60.12144532,62bbe60bf3d75ef465d3e404,,,,,,,,,,,,,,,,,,,,fourthree,,-4,1.2213,,,,,,,,,,,,,,,,,,,,,,,,,,,,,,,,space,43.8517,"[0.3881999999999999,-0.23939999999999995,-0.05040000000000011]","[-0.9216,-0.5529999999999999,-0.3962]",-59,138.5,1,0,0,response7disk,-1,4.5,1,0,0,rectangle,-1,4.5,1,0,0,,2,0.002,0,-1,4.5,1,0,0,0,0,0,98,1,17,second,,,,,,,,,,,,,,,,,,,,,,,,,,,,,,,,,,,,,,,,,,,,,,,,,,,,,,,,,,,,,,,,,,,
,,,,,,5c558bdd8925db000118c0a2,62bbfb520ebbeb5d2e6a7de7,2022-06-29_09h12.35.561,Colour_Asymmetry_Pilot,2022.1.3,Win32,60.12144532,62bbe60bf3d75ef465d3e404,,,,,,,,,,,,,,,,,,,,fourtwo,,-4,0.7648,,,,,,,,,,,,,,,,,,,,,,,,,,,,,,,,,,"[1,0.12939999999999996,-1]","[-0.9688,-0.38039999999999996,-0.41979999999999995]",-47,111.5,1,0,0,response7disk,-15,4.5,1,0,0,rectangle,51,-117.5,1,0,0,1,1,5.3898,1,-15,-14.5,1,0,0,0,1,1,159,1,78,second,response3disk_3,rectangle,,,,,,,,,,,,,,,,,,,,,,,,,,,,,,,,,,,,,,,,,,,,,,,,,,,,,,,,,,,,,,,,,
,,,,,,5c558bdd8925db000118c0a2,62bbfb520ebbeb5d2e6a7de7,2022-06-29_09h12.35.561,Colour_Asymmetry_Pilot,2022.1.3,Win32,60.12144532,62bbe60bf3d75ef465d3e404,,,,,,,,,,,,,,,,,,,,threefour,,-3,2.5438,,,,,,,,,,,,,,,,,,,,,,,,,,,,,,,,,,"[-0.09019999999999995,0.44300000000000006,0.5371999999999999]","[-0.7412000000000001,-0.08239999999999992,-0.6864]",-110,48.5,1,0,0,response7disk,15,2.5,1,0,0,rectangle,15,2.5,1,0,0,1,2,0.0013,0,15,2.5,1,0,0,0,2,2,107,1,26,second,,,,,,,,,,,,,,,,,,,,,,,,,,,,,,,,,,,,,,,,,,,,,,,,,,,,,,,,,,,,,,,,,,,
,,,,,,5c558bdd8925db000118c0a2,62bbfb520ebbeb5d2e6a7de7,2022-06-29_09h12.35.561,Colour_Asymmetry_Pilot,2022.1.3,Win32,60.12144532,62bbe60bf3d75ef465d3e404,,,,,,,,,,,,,,,,,,,,fourtwo,,1,3.4557,,,,,,,,,,,,,,,,,,,,,,,,,,,,,,,,,,"[0.2862,0.7802,0.3568]","[0.7018,0.7176,0.6155999999999999]",43,-112.5,1,0,0,response3disk,-24,6.5,1,0,0,rectangle,-24,6.5,1,0,0,1,1,0.0008,0,-24,6.5,1,0,0,0,3,3,0,1,0,first,,,,,,,,,,,,,,,,,,,,,,,,,,,,,,,,,,,,,,,,,,,,,,,,,,,,,,,,,,,,,,,,,,,
,,,,,,5c558bdd8925db000118c0a2,62bbfb520ebbeb5d2e6a7de7,2022-06-29_09h12.35.561,Colour_Asymmetry_Pilot,2022.1.3,Win32,60.12144532,62bbe60bf3d75ef465d3e404,,,,,,,,,,,,,,,,,,,,fourtwo,,1,1.1105,,,,,,,,,,,,,,,,,,,,,,,,,,,,,,,,,,"[0.37240000000000006,-0.050999999999999934,-0.5216]","[0.9213999999999998,0.6391999999999998,-0.9922]",53,-96.5,1,0,0,response3disk,-14,-2.5,1,0,0,rectangle,-14,-2.5,1,0,0,1,1,0.0003,0,-14,-2.5,1,0,0,0,4,4,61,1,61,first,,,,,,,,,,,,,,,,,,,,,,,,,,,,,,,,,,,,,,,,,,,,,,,,,,,,,,,,,,,,,,,,,,,
,,,,,,5c558bdd8925db000118c0a2,62bbfb520ebbeb5d2e6a7de7,2022-06-29_09h12.35.561,Colour_Asymmetry_Pilot,2022.1.3,Win32,60.12144532,62bbe60bf3d75ef465d3e404,,,,,,,,,,,,,,,,,,,,twofour,,-2,1.2549,,,,,,,,,,,,,,,,,,,,,,,,,,,,,,,,,,"[0.9686000000000001,0.5763999999999998,0.11359999999999992]","[-0.050999999999999934,-0.6706000000000001,-0.804]",-102,-53.5,1,0,0,response5disk,9,-1.5,1,0,0,rectangle,9,-1.5,1,0,0,1,2,0.0014,0,9,-1.5,1,0,0,0,5,5,16,1,16,first,,,,,,,,,,,,,,,,,,,,,,,,,,,,,,,,,,,,,,,,,,,,,,,,,,,,,,,,,,,,,,,,,,,
,,,,,,5c558bdd8925db000118c0a2,62bbfb520ebbeb5d2e6a7de7,2022-06-29_09h12.35.561,Colour_Asymmetry_Pilot,2022.1.3,Win32,60.12144532,62bbe60bf3d75ef465d3e404,,,,,,,,,,,,,,,,,,,,threeone,,-1,6.9018,,,,,,,,,,,,,,,,,,,,,,,,,,,,,,,,,,"[-0.0040000000000000036,0.02739999999999987,-0.08239999999999992]","[0.7018,0.7802,-0.16079999999999994]",-28,-116.5,1,0,0,response5disk,-14,-14.5,1,0,0,rectangle,-14,-14.5,1,0,0,1,3,0.0013,0,-14,-14.5,1,0,0,0,6,6,58,1,58,first,,,,,,,,,,,,,,,,,,,,,,,,,,,,,,,,,,,,,,,,,,,,,,,,,,,,,,,,,,,,,,,,,,,
,,,,,,5c558bdd8925db000118c0a2,62bbfb520ebbeb5d2e6a7de7,2022-06-29_09h12.35.561,Colour_Asymmetry_Pilot,2022.1.3,Win32,60.12144532,62bbe60bf3d75ef465d3e404,,,,,,,,,,,,,,,,,,,,onetwo,,-4,1.0323,,,,,,,,,,,,,,,,,,,,,,,,,,,,,,,,,,"[0.34099999999999997,0.12939999999999996,-0.9766]","[0.9372,0.20779999999999998,0.2704]",-83,110.5,1,0,0,response7disk,14,5.5,1,0,0,rectangle,14,5.5,1,0,0,1,1,0.0014,0,14,5.5,1,0,0,0,7,7,115,1,34,second,,,,,,,,,,,,,,,,,,,,,,,,,,,,,,,,,,,,,,,,,,,,,,,,,,,,,,,,,,,,,,,,,,,
,,,,,,5c558bdd8925db000118c0a2,62bbfb520ebbeb5d2e6a7de7,2022-06-29_09h12.35.561,Colour_Asymmetry_Pilot,2022.1.3,Win32,60.12144532,62bbe60bf3d75ef465d3e404,,,,,,,,,,,,,,,,,,,,onethree,,-3,1.1297,,,,,,,,,,,,,,,,,,,,,,,,,,,,,,,,,,"[-0.38039999999999996,-0.4276,-0.1452]","[-0.06680000000000008,-0.45100000000000007,-0.906]",-90,44.5,1,0,0,response7disk,-6,-6.5,1,0,0,rectangle,-6,-6.5,1,0,0,1,1,0.0004,0,-6,-6.5,1,0,0,0,8,8,137,1,56,second,,,,,,,,,,,,,,,,,,,,,,,,,,,,,,,,,,,,,,,,,,,,,,,,,,,,,,,,,,,,,,,,,,,
,,,,,,5c558bdd8925db000118c0a2,62bbfb520ebbeb5d2e6a7de7,2022-06-29_09h12.35.561,Colour_Asymmetry_Pilot,2022.1.3,Win32,60.12144532,62bbe60bf3d75ef465d3e404,,,,,,,,,,,,,,,,,,,,threeone,,3,1.8639,,,,,,,,,,,,,,,,,,,,,,,,,,,,,,,,,,"[-0.34920000000000007,-0.702,-0.5216]","[0.23120000000000007,-0.7726,-0.34120000000000006]",107,57.5,1,0,0,response1disk,-16,1.5,1,0,0,rectangle,-16,1.5,1,0,0,1,2,0.0008,0,-16,1.5,1,0,0,0,9,9,53,1,53,first,,,,,,,,,,,,,,,,,,,,,,,,,,,,,,,,,,,,,,,,,,,,,,,,,,,,,,,,,,,,,,,,,,,
,,,,,,5c558bdd8925db000118c0a2,62bbfb520ebbeb5d2e6a7de7,2022-06-29_09h12.35.561,Colour_Asymmetry_Pilot,2022.1.3,Win32,60.12144532,62bbe60bf3d75ef465d3e404,,,,,,,,,,,,,,,,,,,,fourthree,,4,1.0423,,,,,,,,,,,,,,,,,,,,,,,,,,,,,,,,,,"[-0.6235999999999999,-0.6786,-0.08239999999999992]","[-0.20799999999999996,-0.655,-0.01980000000000004]",66,88.5,1,0,0,response1disk,-2,-1.5,1,0,0,rectangle,-2,-1.5,1,0,0,1,1,0.0016,0,-2,-1.5,1,0,0,0,10,10,103,1,22,second,,,,,,,,,,,,,,,,,,,,,,,,,,,,,,,,,,,,,,,,,,,,,,,,,,,,,,,,,,,,,,,,,,,
,,,,,,5c558bdd8925db000118c0a2,62bbfb520ebbeb5d2e6a7de7,2022-06-29_09h12.35.561,Colour_Asymmetry_Pilot,2022.1.3,Win32,60.12144532,62bbe60bf3d75ef465d3e404,,,,,,,,,,,,,,,,,,,,onetwo,,1,2.0925,,,,,,,,,,,,,,,,,,,,,,,,,,,,,,,,,,"[-0.01980000000000004,-0.5138,-0.38039999999999996]","[0.19199999999999995,0.18419999999999992,0.5136000000000001]",29,-93.5,1,0,0,response3disk,-18,-10.5,1,0,0,rectangle,-18,-10.5,1,0,0,1,3,0.0012,0,-18,-10.5,1,0,0,0,11,11,15,1,15,first,,,,,,,,,,,,,,,,,,,,,,,,,,,,,,,,,,,,,,,,,,,,,,,,,,,,,,,,,,,,,,,,,,,
,,,,,,5c558bdd8925db000118c0a2,62bbfb520ebbeb5d2e6a7de7,2022-06-29_09h12.35.561,Colour_Asymmetry_Pilot,2022.1.3,Win32,60.12144532,62bbe60bf3d75ef465d3e404,,,,,,,,,,,,,,,,,,,,onetwo,,-1,2.1744,,,,,,,,,,,,,,,,,,,,,,,,,,,,,,,,,,"[-0.9216,-0.5529999999999999,-0.3962]","[-0.0040000000000000036,0.02739999999999987,-0.08239999999999992]",-33,-113.5,1,0,0,response5disk,-11,0.5,1,0,0,rectangle,-11,0.5,1,0,0,1,1,0.001,0,-11,0.5,1,0,0,0,12,12,122,1,41,second,,,,,,,,,,,,,,,,,,,,,,,,,,,,,,,,,,,,,,,,,,,,,,,,,,,,,,,,,,,,,,,,,,,
,,,,,,5c558bdd8925db000118c0a2,62bbfb520ebbeb5d2e6a7de7,2022-06-29_09h12.35.561,Colour_Asymmetry_Pilot,2022.1.3,Win32,60.12144532,62bbe60bf3d75ef465d3e404,,,,,,,,,,,,,,,,,,,,twoone,,-2,2.8063,,,,,,,,,,,,,,,,,,,,,,,,,,,,,,,,,,"[-0.06680000000000008,-0.45100000000000007,-0.906]","[-0.38039999999999996,-0.4276,-0.1452]",-110,-66.5,1,0,0,response5disk,-16,2.5,1,0,0,rectangle,-16,2.5,1,0,0,1,1,0.0002,0,-16,2.5,1,0,0,0,13,13,56,1,56,first,,,,,,,,,,,,,,,,,,,,,,,,,,,,,,,,,,,,,,,,,,,,,,,,,,,,,,,,,,,,,,,,,,,
,,,,,,5c558bdd8925db000118c0a2,62bbfb520ebbeb5d2e6a7de7,2022-06-29_09h12.35.561,Colour_Asymmetry_Pilot,2022.1.3,Win32,60.12144532,62bbe60bf3d75ef465d3e404,,,,,,,,,,,,,,,,,,,,fourthree,,-4,1.1169,,,,,,,,,,,,,,,,,,,,,,,,,,,,,,,,,,"[0.7802,-0.23140000000000005,-0.20799999999999996]","[-0.9296,-0.12959999999999994,-0.043199999999999905]",-44,113.5,1,0,0,response7disk,14,1.5,1,0,0,rectangle,14,1.5,1,0,0,1,3,0.0013,0,14,1.5,1,0,0,0,14,14,105,1,24,second,,,,,,,,,,,,,,,,,,,,,,,,,,,,,,,,,,,,,,,,,,,,,,,,,,,,,,,,,,,,,,,,,,,
,,,,,,5c558bdd8925db000118c0a2,62bbfb520ebbeb5d2e6a7de7,2022-06-29_09h12.35.561,Colour_Asymmetry_Pilot,2022.1.3,Win32,60.12144532,62bbe60bf3d75ef465d3e404,,,,,,,,,,,,,,,,,,,,onethree,,3,1.5369,,,,,,,,,,,,,,,,,,,,,,,,,,,,,,,,,,"[-0.011800000000000033,-0.906,-0.45100000000000007]","[-0.26280000000000003,-0.4746,-0.2158]",119,51.5,1,0,0,response1disk,-30,-11.5,1,0,0,rectangle,-30,-11.5,1,0,0,1,3,0.0003,0,-30,-11.5,1,0,0,0,15,15,10,1,10,first,,,,,,,,,,,,,,,,,,,,,,,,,,,,,,,,,,,,,,,,,,,,,,,,,,,,,,,,,,,,,,,,,,,
,,,,,,5c558bdd8925db000118c0a2,62bbfb520ebbeb5d2e6a7de7,2022-06-29_09h12.35.561,Colour_Asymmetry_Pilot,2022.1.3,Win32,60.12144532,62bbe60bf3d75ef465d3e404,,,,,,,,,,,,,,,,,,,,fourthree,,3,2.4206,,,,,,,,,,,,,,,,,,,,,,,,,,,,,,,,,,"[0.37240000000000006,-0.050999999999999934,-0.5216]","[-0.06680000000000008,-0.45100000000000007,-0.906]",112,74.5,1,0,0,response1disk,-33,-10.5,1,0,0,rectangle,-33,-10.5,1,0,0,1,2,0.001,0,-33,-10.5,1,0,0,0,16,16,49,1,49,first,,,,,,,,,,,,,,,,,,,,,,,,,,,,,,,,,,,,,,,,,,,,,,,,,,,,,,,,,,,,,,,,,,,
,,,,,,5c558bdd8925db000118c0a2,62bbfb520ebbeb5d2e6a7de7,2022-06-29_09h12.35.561,Colour_Asymmetry_Pilot,2022.1.3,Win32,60.12144532,62bbe60bf3d75ef465d3e404,,,,,,,,,,,,,,,,,,,,onetwo,,-2,1.4691,,,,,,,,,,,,,,,,,,,,,,,,,,,,,,,,,,"[0.40379999999999994,0.09000000000000008,0.44300000000000006]","[0.04299999999999993,0.16060000000000008,-0.6628000000000001]",-129,-36.5,1,0,0,response5disk,-15,-9.5,1,0,0,rectangle,-15,-9.5,1,0,0,1,3,0.001,0,-15,-9.5,1,0,0,0,17,17,75,1,75,first,,,,,,,,,,,,,,,,,,,,,,,,,,,,,,,,,,,,,,,,,,,,,,,,,,,,,,,,,,,,,,,,,,,
,,,,,,5c558bdd8925db000118c0a2,62bbfb520ebbeb5d2e6a7de7,2022-06-29_09h12.35.561,Colour_Asymmetry_Pilot,2022.1.3,Win32,60.12144532,62bbe60bf3d75ef465d3e404,,,,,,,,,,,,,,,,,,,,fourtwo,,-4,0.9064,,,,,,,,,,,,,,,,,,,,,,,,,,,,,,,,,,"[0.11359999999999992,0.6312,0.5213999999999999]","[0.22340000000000004,-0.9296,-0.7884]",-66,124.5,1,0,0,response7disk,5,-9.5,1,0,0,rectangle,5,-9.5,1,0,0,1,2,0.0011,0,5,-9.5,1,0,0,0,18,18,64,1,64,first,,,,,,,,,,,,,,,,,,,,,,,,,,,,,,,,,,,,,,,,,,,,,,,,,,,,,,,,,,,,,,,,,,,
,,,,,,5c558bdd8925db000118c0a2,62bbfb520ebbeb5d2e6a7de7,2022-06-29_09h12.35.561,Colour_Asymmetry_Pilot,2022.1.3,Win32,60.12144532,62bbe60bf3d75ef465d3e404,,,,,,,,,,,,,,,,,,,,threeone,,-3,0.6586,,,,,,,,,,,,,,,,,,,,,,,,,,,,,,,,,,"[-0.9766,-0.6472,0.07440000000000002]","[-0.26280000000000003,-0.2158,-0.3256]",-90,53.5,1,0,0,response7disk,-10,-1.5,1,0,0,rectangle,-10,-1.5,1,0,0,1,1,0.001,0,-10,-1.5,1,0,0,0,19,19,62,1,62,first,,,,,,,,,,,,,,,,,,,,,,,,,,,,,,,,,,,,,,,,,,,,,,,,,,,,,,,,,,,,,,,,,,,
