trials.thisRepN,trials.thisTrialN,trials.thisN,trials.thisIndex,trials.ran,Colourcodes,participant,session,date,expName,psychopyVersion,OS,frameRate,study_id,trials_4.thisRepN,trials_4.thisTrialN,trials_4.thisN,trials_4.thisIndex,trials_4.ran,StimulusPos,key_resp.keys,key_resp.rt,key_resp_2.keys,key_resp_2.rt,key_resp_15.keys,key_resp_15.rt,key_resp_17.keys,key_resp_17.rt,key_resp_9.keys,key_resp_9.rt,key_resp_10.keys,key_resp_10.rt,Circle1_col,Ecc,Circle2_col,similarity,response_time,mouse_5.x,mouse_5.y,mouse_5.leftButton,mouse_5.midButton,mouse_5.rightButton,mouse_5.clicked_name,mouse_10.x,mouse_10.y,mouse_10.leftButton,mouse_10.midButton,mouse_10.rightButton,mouse_10.clicked_name,mouse_7.x,mouse_7.y,mouse_7.leftButton,mouse_7.midButton,mouse_7.rightButton,catchnumberprac,mouse_6.x,mouse_6.y,mouse_6.leftButton,mouse_6.midButton,mouse_6.rightButton,duringprac.thisRepN,duringprac.thisTrialN,duringprac.thisN,duringprac.thisIndex,duringprac.ran,mouse_7.clicked_name,catchprac,mouse_6.clicked_name,key_resp_22.keys,key_resp_22.rt,Circle1_colour,Circle2_colour,mouse.x,mouse.y,mouse.leftButton,mouse.midButton,mouse.rightButton,mouse.clicked_name,mouse_2.x,mouse_2.y,mouse_2.leftButton,mouse_2.midButton,mouse_2.rightButton,mouse_2.clicked_name,mouse_3.x,mouse_3.y,mouse_3.leftButton,mouse_3.midButton,mouse_3.rightButton,catchresponse,catchnumber,response_time_catch,Catch,mouse_11.x,mouse_11.y,mouse_11.leftButton,mouse_11.midButton,mouse_11.rightButton,trials_2.thisRepN,trials_2.thisTrialN,trials_2.thisN,trials_2.thisIndex,trials_2.ran,Colourpair,Temporder,mouse_3.clicked_name,mouse_11.clicked_name,trials_3.thisRepN,trials_3.thisTrialN,trials_3.thisN,trials_3.thisIndex,trials_3.ran,key_resp_instr_Ishi.keys,key_resp_instr_Ishi.rt,Ishi_trial_keyresp.keys,Ishi_trial_keyresp.rt,Ishi_textbox.text,Ishi_loop.thisRepN,Ishi_loop.thisTrialN,Ishi_loop.thisN,Ishi_loop.thisIndex,Ishi_loop.ran,imageaddress,textbox.text,mouse_4.x,mouse_4.y,mouse_4.leftButton,mouse_4.midButton,mouse_4.rightButton,mouse_4.clicked_name,textbox_2.text,mouse_8.x,mouse_8.y,mouse_8.leftButton,mouse_8.midButton,mouse_8.rightButton,mouse_8.clicked_name,textbox_3.text,mouse_9.x,mouse_9.y,mouse_9.leftButton,mouse_9.midButton,mouse_9.rightButton,mouse_9.clicked_name,textbox_4.text,mouse_12.x,mouse_12.y,mouse_12.leftButton,mouse_12.midButton,mouse_12.rightButton,mouse_12.clicked_name,textbox_5.text,mouse_13.x,mouse_13.y,mouse_13.leftButton,mouse_13.midButton,mouse_13.rightButton,mouse_13.clicked_name,textbox_6.text,mouse_14.x,mouse_14.y,mouse_14.leftButton,mouse_14.midButton,mouse_14.rightButton,mouse_14.clicked_name,textbox_7.text,mouse_15.x,mouse_15.y,mouse_15.leftButton,mouse_15.midButton,mouse_15.rightButton,mouse_15.clicked_name
0,0,0,31,1,,5e938e072a4ce9077f8157b9,62bbfb58b3608de7fe7fbc0b,2022-06-29_02h18.42.606,Colour_Asymmetry_Pilot,2022.1.3,Win32,60.99420555,62bbe60bf3d75ef465d3e404,,,,,,,,,,,,,,,,,,,,,,,,,,,,,,,,,,,,,,,,,,,,,,,,,,,,,,,,,,,,,,,,,,,,,,,,,,,,,,,,,,,,,,,,,,,,,,,,,,,,,,,,,,,,,,,,,,,,,,,,,,,,,,,,,,,,,,,,,,,,,,,,,,,,,,,,,,,,,,
0,1,1,25,1,,5e938e072a4ce9077f8157b9,62bbfb58b3608de7fe7fbc0b,2022-06-29_02h18.42.606,Colour_Asymmetry_Pilot,2022.1.3,Win32,60.99420555,62bbe60bf3d75ef465d3e404,,,,,,,,,,,,,,,,,,,,,,,,,,,,,,,,,,,,,,,,,,,,,,,,,,,,,,,,,,,,,,,,,,,,,,,,,,,,,,,,,,,,,,,,,,,,,,,,,,,,,,,,,,,,,,,,,,,,,,,,,,,,,,,,,,,,,,,,,,,,,,,,,,,,,,,,,,,,,,
0,2,2,67,1,,5e938e072a4ce9077f8157b9,62bbfb58b3608de7fe7fbc0b,2022-06-29_02h18.42.606,Colour_Asymmetry_Pilot,2022.1.3,Win32,60.99420555,62bbe60bf3d75ef465d3e404,,,,,,,,,,,,,,,,,,,,,,,,,,,,,,,,,,,,,,,,,,,,,,,,,,,,,,,,,,,,,,,,,,,,,,,,,,,,,,,,,,,,,,,,,,,,,,,,,,,,,,,,,,,,,,,,,,,,,,,,,,,,,,,,,,,,,,,,,,,,,,,,,,,,,,,,,,,,,,
0,3,3,27,1,,5e938e072a4ce9077f8157b9,62bbfb58b3608de7fe7fbc0b,2022-06-29_02h18.42.606,Colour_Asymmetry_Pilot,2022.1.3,Win32,60.99420555,62bbe60bf3d75ef465d3e404,,,,,,,,,,,,,,,,,,,,,,,,,,,,,,,,,,,,,,,,,,,,,,,,,,,,,,,,,,,,,,,,,,,,,,,,,,,,,,,,,,,,,,,,,,,,,,,,,,,,,,,,,,,,,,,,,,,,,,,,,,,,,,,,,,,,,,,,,,,,,,,,,,,,,,,,,,,,,,
0,4,4,83,1,,5e938e072a4ce9077f8157b9,62bbfb58b3608de7fe7fbc0b,2022-06-29_02h18.42.606,Colour_Asymmetry_Pilot,2022.1.3,Win32,60.99420555,62bbe60bf3d75ef465d3e404,,,,,,,,,,,,,,,,,,,,,,,,,,,,,,,,,,,,,,,,,,,,,,,,,,,,,,,,,,,,,,,,,,,,,,,,,,,,,,,,,,,,,,,,,,,,,,,,,,,,,,,,,,,,,,,,,,,,,,,,,,,,,,,,,,,,,,,,,,,,,,,,,,,,,,,,,,,,,,
0,5,5,6,1,,5e938e072a4ce9077f8157b9,62bbfb58b3608de7fe7fbc0b,2022-06-29_02h18.42.606,Colour_Asymmetry_Pilot,2022.1.3,Win32,60.99420555,62bbe60bf3d75ef465d3e404,,,,,,,,,,,,,,,,,,,,,,,,,,,,,,,,,,,,,,,,,,,,,,,,,,,,,,,,,,,,,,,,,,,,,,,,,,,,,,,,,,,,,,,,,,,,,,,,,,,,,,,,,,,,,,,,,,,,,,,,,,,,,,,,,,,,,,,,,,,,,,,,,,,,,,,,,,,,,,
0,6,6,74,1,,5e938e072a4ce9077f8157b9,62bbfb58b3608de7fe7fbc0b,2022-06-29_02h18.42.606,Colour_Asymmetry_Pilot,2022.1.3,Win32,60.99420555,62bbe60bf3d75ef465d3e404,,,,,,,,,,,,,,,,,,,,,,,,,,,,,,,,,,,,,,,,,,,,,,,,,,,,,,,,,,,,,,,,,,,,,,,,,,,,,,,,,,,,,,,,,,,,,,,,,,,,,,,,,,,,,,,,,,,,,,,,,,,,,,,,,,,,,,,,,,,,,,,,,,,,,,,,,,,,,,
0,7,7,46,1,,5e938e072a4ce9077f8157b9,62bbfb58b3608de7fe7fbc0b,2022-06-29_02h18.42.606,Colour_Asymmetry_Pilot,2022.1.3,Win32,60.99420555,62bbe60bf3d75ef465d3e404,,,,,,,,,,,,,,,,,,,,,,,,,,,,,,,,,,,,,,,,,,,,,,,,,,,,,,,,,,,,,,,,,,,,,,,,,,,,,,,,,,,,,,,,,,,,,,,,,,,,,,,,,,,,,,,,,,,,,,,,,,,,,,,,,,,,,,,,,,,,,,,,,,,,,,,,,,,,,,
0,8,8,4,1,,5e938e072a4ce9077f8157b9,62bbfb58b3608de7fe7fbc0b,2022-06-29_02h18.42.606,Colour_Asymmetry_Pilot,2022.1.3,Win32,60.99420555,62bbe60bf3d75ef465d3e404,,,,,,,,,,,,,,,,,,,,,,,,,,,,,,,,,,,,,,,,,,,,,,,,,,,,,,,,,,,,,,,,,,,,,,,,,,,,,,,,,,,,,,,,,,,,,,,,,,,,,,,,,,,,,,,,,,,,,,,,,,,,,,,,,,,,,,,,,,,,,,,,,,,,,,,,,,,,,,
0,9,9,58,1,,5e938e072a4ce9077f8157b9,62bbfb58b3608de7fe7fbc0b,2022-06-29_02h18.42.606,Colour_Asymmetry_Pilot,2022.1.3,Win32,60.99420555,62bbe60bf3d75ef465d3e404,,,,,,,,,,,,,,,,,,,,,,,,,,,,,,,,,,,,,,,,,,,,,,,,,,,,,,,,,,,,,,,,,,,,,,,,,,,,,,,,,,,,,,,,,,,,,,,,,,,,,,,,,,,,,,,,,,,,,,,,,,,,,,,,,,,,,,,,,,,,,,,,,,,,,,,,,,,,,,
0,10,10,1,1,,5e938e072a4ce9077f8157b9,62bbfb58b3608de7fe7fbc0b,2022-06-29_02h18.42.606,Colour_Asymmetry_Pilot,2022.1.3,Win32,60.99420555,62bbe60bf3d75ef465d3e404,,,,,,,,,,,,,,,,,,,,,,,,,,,,,,,,,,,,,,,,,,,,,,,,,,,,,,,,,,,,,,,,,,,,,,,,,,,,,,,,,,,,,,,,,,,,,,,,,,,,,,,,,,,,,,,,,,,,,,,,,,,,,,,,,,,,,,,,,,,,,,,,,,,,,,,,,,,,,,
0,11,11,39,1,,5e938e072a4ce9077f8157b9,62bbfb58b3608de7fe7fbc0b,2022-06-29_02h18.42.606,Colour_Asymmetry_Pilot,2022.1.3,Win32,60.99420555,62bbe60bf3d75ef465d3e404,,,,,,,,,,,,,,,,,,,,,,,,,,,,,,,,,,,,,,,,,,,,,,,,,,,,,,,,,,,,,,,,,,,,,,,,,,,,,,,,,,,,,,,,,,,,,,,,,,,,,,,,,,,,,,,,,,,,,,,,,,,,,,,,,,,,,,,,,,,,,,,,,,,,,,,,,,,,,,
0,12,12,43,1,,5e938e072a4ce9077f8157b9,62bbfb58b3608de7fe7fbc0b,2022-06-29_02h18.42.606,Colour_Asymmetry_Pilot,2022.1.3,Win32,60.99420555,62bbe60bf3d75ef465d3e404,,,,,,,,,,,,,,,,,,,,,,,,,,,,,,,,,,,,,,,,,,,,,,,,,,,,,,,,,,,,,,,,,,,,,,,,,,,,,,,,,,,,,,,,,,,,,,,,,,,,,,,,,,,,,,,,,,,,,,,,,,,,,,,,,,,,,,,,,,,,,,,,,,,,,,,,,,,,,,
0,13,13,12,1,,5e938e072a4ce9077f8157b9,62bbfb58b3608de7fe7fbc0b,2022-06-29_02h18.42.606,Colour_Asymmetry_Pilot,2022.1.3,Win32,60.99420555,62bbe60bf3d75ef465d3e404,,,,,,,,,,,,,,,,,,,,,,,,,,,,,,,,,,,,,,,,,,,,,,,,,,,,,,,,,,,,,,,,,,,,,,,,,,,,,,,,,,,,,,,,,,,,,,,,,,,,,,,,,,,,,,,,,,,,,,,,,,,,,,,,,,,,,,,,,,,,,,,,,,,,,,,,,,,,,,
0,14,14,75,1,,5e938e072a4ce9077f8157b9,62bbfb58b3608de7fe7fbc0b,2022-06-29_02h18.42.606,Colour_Asymmetry_Pilot,2022.1.3,Win32,60.99420555,62bbe60bf3d75ef465d3e404,,,,,,,,,,,,,,,,,,,,,,,,,,,,,,,,,,,,,,,,,,,,,,,,,,,,,,,,,,,,,,,,,,,,,,,,,,,,,,,,,,,,,,,,,,,,,,,,,,,,,,,,,,,,,,,,,,,,,,,,,,,,,,,,,,,,,,,,,,,,,,,,,,,,,,,,,,,,,,
0,15,15,73,1,,5e938e072a4ce9077f8157b9,62bbfb58b3608de7fe7fbc0b,2022-06-29_02h18.42.606,Colour_Asymmetry_Pilot,2022.1.3,Win32,60.99420555,62bbe60bf3d75ef465d3e404,,,,,,,,,,,,,,,,,,,,,,,,,,,,,,,,,,,,,,,,,,,,,,,,,,,,,,,,,,,,,,,,,,,,,,,,,,,,,,,,,,,,,,,,,,,,,,,,,,,,,,,,,,,,,,,,,,,,,,,,,,,,,,,,,,,,,,,,,,,,,,,,,,,,,,,,,,,,,,
0,16,16,32,1,,5e938e072a4ce9077f8157b9,62bbfb58b3608de7fe7fbc0b,2022-06-29_02h18.42.606,Colour_Asymmetry_Pilot,2022.1.3,Win32,60.99420555,62bbe60bf3d75ef465d3e404,,,,,,,,,,,,,,,,,,,,,,,,,,,,,,,,,,,,,,,,,,,,,,,,,,,,,,,,,,,,,,,,,,,,,,,,,,,,,,,,,,,,,,,,,,,,,,,,,,,,,,,,,,,,,,,,,,,,,,,,,,,,,,,,,,,,,,,,,,,,,,,,,,,,,,,,,,,,,,
0,17,17,2,1,,5e938e072a4ce9077f8157b9,62bbfb58b3608de7fe7fbc0b,2022-06-29_02h18.42.606,Colour_Asymmetry_Pilot,2022.1.3,Win32,60.99420555,62bbe60bf3d75ef465d3e404,,,,,,,,,,,,,,,,,,,,,,,,,,,,,,,,,,,,,,,,,,,,,,,,,,,,,,,,,,,,,,,,,,,,,,,,,,,,,,,,,,,,,,,,,,,,,,,,,,,,,,,,,,,,,,,,,,,,,,,,,,,,,,,,,,,,,,,,,,,,,,,,,,,,,,,,,,,,,,
0,18,18,13,1,,5e938e072a4ce9077f8157b9,62bbfb58b3608de7fe7fbc0b,2022-06-29_02h18.42.606,Colour_Asymmetry_Pilot,2022.1.3,Win32,60.99420555,62bbe60bf3d75ef465d3e404,,,,,,,,,,,,,,,,,,,,,,,,,,,,,,,,,,,,,,,,,,,,,,,,,,,,,,,,,,,,,,,,,,,,,,,,,,,,,,,,,,,,,,,,,,,,,,,,,,,,,,,,,,,,,,,,,,,,,,,,,,,,,,,,,,,,,,,,,,,,,,,,,,,,,,,,,,,,,,
0,19,19,48,1,,5e938e072a4ce9077f8157b9,62bbfb58b3608de7fe7fbc0b,2022-06-29_02h18.42.606,Colour_Asymmetry_Pilot,2022.1.3,Win32,60.99420555,62bbe60bf3d75ef465d3e404,,,,,,,,,,,,,,,,,,,,,,,,,,,,,,,,,,,,,,,,,,,,,,,,,,,,,,,,,,,,,,,,,,,,,,,,,,,,,,,,,,,,,,,,,,,,,,,,,,,,,,,,,,,,,,,,,,,,,,,,,,,,,,,,,,,,,,,,,,,,,,,,,,,,,,,,,,,,,,
0,20,20,37,1,,5e938e072a4ce9077f8157b9,62bbfb58b3608de7fe7fbc0b,2022-06-29_02h18.42.606,Colour_Asymmetry_Pilot,2022.1.3,Win32,60.99420555,62bbe60bf3d75ef465d3e404,,,,,,,,,,,,,,,,,,,,,,,,,,,,,,,,,,,,,,,,,,,,,,,,,,,,,,,,,,,,,,,,,,,,,,,,,,,,,,,,,,,,,,,,,,,,,,,,,,,,,,,,,,,,,,,,,,,,,,,,,,,,,,,,,,,,,,,,,,,,,,,,,,,,,,,,,,,,,,
0,21,21,34,1,,5e938e072a4ce9077f8157b9,62bbfb58b3608de7fe7fbc0b,2022-06-29_02h18.42.606,Colour_Asymmetry_Pilot,2022.1.3,Win32,60.99420555,62bbe60bf3d75ef465d3e404,,,,,,,,,,,,,,,,,,,,,,,,,,,,,,,,,,,,,,,,,,,,,,,,,,,,,,,,,,,,,,,,,,,,,,,,,,,,,,,,,,,,,,,,,,,,,,,,,,,,,,,,,,,,,,,,,,,,,,,,,,,,,,,,,,,,,,,,,,,,,,,,,,,,,,,,,,,,,,
0,22,22,54,1,,5e938e072a4ce9077f8157b9,62bbfb58b3608de7fe7fbc0b,2022-06-29_02h18.42.606,Colour_Asymmetry_Pilot,2022.1.3,Win32,60.99420555,62bbe60bf3d75ef465d3e404,,,,,,,,,,,,,,,,,,,,,,,,,,,,,,,,,,,,,,,,,,,,,,,,,,,,,,,,,,,,,,,,,,,,,,,,,,,,,,,,,,,,,,,,,,,,,,,,,,,,,,,,,,,,,,,,,,,,,,,,,,,,,,,,,,,,,,,,,,,,,,,,,,,,,,,,,,,,,,
0,23,23,79,1,,5e938e072a4ce9077f8157b9,62bbfb58b3608de7fe7fbc0b,2022-06-29_02h18.42.606,Colour_Asymmetry_Pilot,2022.1.3,Win32,60.99420555,62bbe60bf3d75ef465d3e404,,,,,,,,,,,,,,,,,,,,,,,,,,,,,,,,,,,,,,,,,,,,,,,,,,,,,,,,,,,,,,,,,,,,,,,,,,,,,,,,,,,,,,,,,,,,,,,,,,,,,,,,,,,,,,,,,,,,,,,,,,,,,,,,,,,,,,,,,,,,,,,,,,,,,,,,,,,,,,
0,24,24,78,1,,5e938e072a4ce9077f8157b9,62bbfb58b3608de7fe7fbc0b,2022-06-29_02h18.42.606,Colour_Asymmetry_Pilot,2022.1.3,Win32,60.99420555,62bbe60bf3d75ef465d3e404,,,,,,,,,,,,,,,,,,,,,,,,,,,,,,,,,,,,,,,,,,,,,,,,,,,,,,,,,,,,,,,,,,,,,,,,,,,,,,,,,,,,,,,,,,,,,,,,,,,,,,,,,,,,,,,,,,,,,,,,,,,,,,,,,,,,,,,,,,,,,,,,,,,,,,,,,,,,,,
0,25,25,69,1,,5e938e072a4ce9077f8157b9,62bbfb58b3608de7fe7fbc0b,2022-06-29_02h18.42.606,Colour_Asymmetry_Pilot,2022.1.3,Win32,60.99420555,62bbe60bf3d75ef465d3e404,,,,,,,,,,,,,,,,,,,,,,,,,,,,,,,,,,,,,,,,,,,,,,,,,,,,,,,,,,,,,,,,,,,,,,,,,,,,,,,,,,,,,,,,,,,,,,,,,,,,,,,,,,,,,,,,,,,,,,,,,,,,,,,,,,,,,,,,,,,,,,,,,,,,,,,,,,,,,,
0,26,26,8,1,,5e938e072a4ce9077f8157b9,62bbfb58b3608de7fe7fbc0b,2022-06-29_02h18.42.606,Colour_Asymmetry_Pilot,2022.1.3,Win32,60.99420555,62bbe60bf3d75ef465d3e404,,,,,,,,,,,,,,,,,,,,,,,,,,,,,,,,,,,,,,,,,,,,,,,,,,,,,,,,,,,,,,,,,,,,,,,,,,,,,,,,,,,,,,,,,,,,,,,,,,,,,,,,,,,,,,,,,,,,,,,,,,,,,,,,,,,,,,,,,,,,,,,,,,,,,,,,,,,,,,
0,27,27,41,1,,5e938e072a4ce9077f8157b9,62bbfb58b3608de7fe7fbc0b,2022-06-29_02h18.42.606,Colour_Asymmetry_Pilot,2022.1.3,Win32,60.99420555,62bbe60bf3d75ef465d3e404,,,,,,,,,,,,,,,,,,,,,,,,,,,,,,,,,,,,,,,,,,,,,,,,,,,,,,,,,,,,,,,,,,,,,,,,,,,,,,,,,,,,,,,,,,,,,,,,,,,,,,,,,,,,,,,,,,,,,,,,,,,,,,,,,,,,,,,,,,,,,,,,,,,,,,,,,,,,,,
0,28,28,5,1,,5e938e072a4ce9077f8157b9,62bbfb58b3608de7fe7fbc0b,2022-06-29_02h18.42.606,Colour_Asymmetry_Pilot,2022.1.3,Win32,60.99420555,62bbe60bf3d75ef465d3e404,,,,,,,,,,,,,,,,,,,,,,,,,,,,,,,,,,,,,,,,,,,,,,,,,,,,,,,,,,,,,,,,,,,,,,,,,,,,,,,,,,,,,,,,,,,,,,,,,,,,,,,,,,,,,,,,,,,,,,,,,,,,,,,,,,,,,,,,,,,,,,,,,,,,,,,,,,,,,,
0,29,29,88,1,,5e938e072a4ce9077f8157b9,62bbfb58b3608de7fe7fbc0b,2022-06-29_02h18.42.606,Colour_Asymmetry_Pilot,2022.1.3,Win32,60.99420555,62bbe60bf3d75ef465d3e404,,,,,,,,,,,,,,,,,,,,,,,,,,,,,,,,,,,,,,,,,,,,,,,,,,,,,,,,,,,,,,,,,,,,,,,,,,,,,,,,,,,,,,,,,,,,,,,,,,,,,,,,,,,,,,,,,,,,,,,,,,,,,,,,,,,,,,,,,,,,,,,,,,,,,,,,,,,,,,
0,30,30,62,1,,5e938e072a4ce9077f8157b9,62bbfb58b3608de7fe7fbc0b,2022-06-29_02h18.42.606,Colour_Asymmetry_Pilot,2022.1.3,Win32,60.99420555,62bbe60bf3d75ef465d3e404,,,,,,,,,,,,,,,,,,,,,,,,,,,,,,,,,,,,,,,,,,,,,,,,,,,,,,,,,,,,,,,,,,,,,,,,,,,,,,,,,,,,,,,,,,,,,,,,,,,,,,,,,,,,,,,,,,,,,,,,,,,,,,,,,,,,,,,,,,,,,,,,,,,,,,,,,,,,,,
0,31,31,56,1,,5e938e072a4ce9077f8157b9,62bbfb58b3608de7fe7fbc0b,2022-06-29_02h18.42.606,Colour_Asymmetry_Pilot,2022.1.3,Win32,60.99420555,62bbe60bf3d75ef465d3e404,,,,,,,,,,,,,,,,,,,,,,,,,,,,,,,,,,,,,,,,,,,,,,,,,,,,,,,,,,,,,,,,,,,,,,,,,,,,,,,,,,,,,,,,,,,,,,,,,,,,,,,,,,,,,,,,,,,,,,,,,,,,,,,,,,,,,,,,,,,,,,,,,,,,,,,,,,,,,,
0,32,32,86,1,,5e938e072a4ce9077f8157b9,62bbfb58b3608de7fe7fbc0b,2022-06-29_02h18.42.606,Colour_Asymmetry_Pilot,2022.1.3,Win32,60.99420555,62bbe60bf3d75ef465d3e404,,,,,,,,,,,,,,,,,,,,,,,,,,,,,,,,,,,,,,,,,,,,,,,,,,,,,,,,,,,,,,,,,,,,,,,,,,,,,,,,,,,,,,,,,,,,,,,,,,,,,,,,,,,,,,,,,,,,,,,,,,,,,,,,,,,,,,,,,,,,,,,,,,,,,,,,,,,,,,
0,33,33,49,1,,5e938e072a4ce9077f8157b9,62bbfb58b3608de7fe7fbc0b,2022-06-29_02h18.42.606,Colour_Asymmetry_Pilot,2022.1.3,Win32,60.99420555,62bbe60bf3d75ef465d3e404,,,,,,,,,,,,,,,,,,,,,,,,,,,,,,,,,,,,,,,,,,,,,,,,,,,,,,,,,,,,,,,,,,,,,,,,,,,,,,,,,,,,,,,,,,,,,,,,,,,,,,,,,,,,,,,,,,,,,,,,,,,,,,,,,,,,,,,,,,,,,,,,,,,,,,,,,,,,,,
0,34,34,9,1,,5e938e072a4ce9077f8157b9,62bbfb58b3608de7fe7fbc0b,2022-06-29_02h18.42.606,Colour_Asymmetry_Pilot,2022.1.3,Win32,60.99420555,62bbe60bf3d75ef465d3e404,,,,,,,,,,,,,,,,,,,,,,,,,,,,,,,,,,,,,,,,,,,,,,,,,,,,,,,,,,,,,,,,,,,,,,,,,,,,,,,,,,,,,,,,,,,,,,,,,,,,,,,,,,,,,,,,,,,,,,,,,,,,,,,,,,,,,,,,,,,,,,,,,,,,,,,,,,,,,,
0,35,35,33,1,,5e938e072a4ce9077f8157b9,62bbfb58b3608de7fe7fbc0b,2022-06-29_02h18.42.606,Colour_Asymmetry_Pilot,2022.1.3,Win32,60.99420555,62bbe60bf3d75ef465d3e404,,,,,,,,,,,,,,,,,,,,,,,,,,,,,,,,,,,,,,,,,,,,,,,,,,,,,,,,,,,,,,,,,,,,,,,,,,,,,,,,,,,,,,,,,,,,,,,,,,,,,,,,,,,,,,,,,,,,,,,,,,,,,,,,,,,,,,,,,,,,,,,,,,,,,,,,,,,,,,
0,36,36,29,1,,5e938e072a4ce9077f8157b9,62bbfb58b3608de7fe7fbc0b,2022-06-29_02h18.42.606,Colour_Asymmetry_Pilot,2022.1.3,Win32,60.99420555,62bbe60bf3d75ef465d3e404,,,,,,,,,,,,,,,,,,,,,,,,,,,,,,,,,,,,,,,,,,,,,,,,,,,,,,,,,,,,,,,,,,,,,,,,,,,,,,,,,,,,,,,,,,,,,,,,,,,,,,,,,,,,,,,,,,,,,,,,,,,,,,,,,,,,,,,,,,,,,,,,,,,,,,,,,,,,,,
0,37,37,57,1,,5e938e072a4ce9077f8157b9,62bbfb58b3608de7fe7fbc0b,2022-06-29_02h18.42.606,Colour_Asymmetry_Pilot,2022.1.3,Win32,60.99420555,62bbe60bf3d75ef465d3e404,,,,,,,,,,,,,,,,,,,,,,,,,,,,,,,,,,,,,,,,,,,,,,,,,,,,,,,,,,,,,,,,,,,,,,,,,,,,,,,,,,,,,,,,,,,,,,,,,,,,,,,,,,,,,,,,,,,,,,,,,,,,,,,,,,,,,,,,,,,,,,,,,,,,,,,,,,,,,,
0,38,38,55,1,,5e938e072a4ce9077f8157b9,62bbfb58b3608de7fe7fbc0b,2022-06-29_02h18.42.606,Colour_Asymmetry_Pilot,2022.1.3,Win32,60.99420555,62bbe60bf3d75ef465d3e404,,,,,,,,,,,,,,,,,,,,,,,,,,,,,,,,,,,,,,,,,,,,,,,,,,,,,,,,,,,,,,,,,,,,,,,,,,,,,,,,,,,,,,,,,,,,,,,,,,,,,,,,,,,,,,,,,,,,,,,,,,,,,,,,,,,,,,,,,,,,,,,,,,,,,,,,,,,,,,
0,39,39,61,1,,5e938e072a4ce9077f8157b9,62bbfb58b3608de7fe7fbc0b,2022-06-29_02h18.42.606,Colour_Asymmetry_Pilot,2022.1.3,Win32,60.99420555,62bbe60bf3d75ef465d3e404,,,,,,,,,,,,,,,,,,,,,,,,,,,,,,,,,,,,,,,,,,,,,,,,,,,,,,,,,,,,,,,,,,,,,,,,,,,,,,,,,,,,,,,,,,,,,,,,,,,,,,,,,,,,,,,,,,,,,,,,,,,,,,,,,,,,,,,,,,,,,,,,,,,,,,,,,,,,,,
0,40,40,22,1,,5e938e072a4ce9077f8157b9,62bbfb58b3608de7fe7fbc0b,2022-06-29_02h18.42.606,Colour_Asymmetry_Pilot,2022.1.3,Win32,60.99420555,62bbe60bf3d75ef465d3e404,,,,,,,,,,,,,,,,,,,,,,,,,,,,,,,,,,,,,,,,,,,,,,,,,,,,,,,,,,,,,,,,,,,,,,,,,,,,,,,,,,,,,,,,,,,,,,,,,,,,,,,,,,,,,,,,,,,,,,,,,,,,,,,,,,,,,,,,,,,,,,,,,,,,,,,,,,,,,,
0,41,41,45,1,,5e938e072a4ce9077f8157b9,62bbfb58b3608de7fe7fbc0b,2022-06-29_02h18.42.606,Colour_Asymmetry_Pilot,2022.1.3,Win32,60.99420555,62bbe60bf3d75ef465d3e404,,,,,,,,,,,,,,,,,,,,,,,,,,,,,,,,,,,,,,,,,,,,,,,,,,,,,,,,,,,,,,,,,,,,,,,,,,,,,,,,,,,,,,,,,,,,,,,,,,,,,,,,,,,,,,,,,,,,,,,,,,,,,,,,,,,,,,,,,,,,,,,,,,,,,,,,,,,,,,
0,42,42,71,1,,5e938e072a4ce9077f8157b9,62bbfb58b3608de7fe7fbc0b,2022-06-29_02h18.42.606,Colour_Asymmetry_Pilot,2022.1.3,Win32,60.99420555,62bbe60bf3d75ef465d3e404,,,,,,,,,,,,,,,,,,,,,,,,,,,,,,,,,,,,,,,,,,,,,,,,,,,,,,,,,,,,,,,,,,,,,,,,,,,,,,,,,,,,,,,,,,,,,,,,,,,,,,,,,,,,,,,,,,,,,,,,,,,,,,,,,,,,,,,,,,,,,,,,,,,,,,,,,,,,,,
0,43,43,36,1,,5e938e072a4ce9077f8157b9,62bbfb58b3608de7fe7fbc0b,2022-06-29_02h18.42.606,Colour_Asymmetry_Pilot,2022.1.3,Win32,60.99420555,62bbe60bf3d75ef465d3e404,,,,,,,,,,,,,,,,,,,,,,,,,,,,,,,,,,,,,,,,,,,,,,,,,,,,,,,,,,,,,,,,,,,,,,,,,,,,,,,,,,,,,,,,,,,,,,,,,,,,,,,,,,,,,,,,,,,,,,,,,,,,,,,,,,,,,,,,,,,,,,,,,,,,,,,,,,,,,,
0,44,44,23,1,,5e938e072a4ce9077f8157b9,62bbfb58b3608de7fe7fbc0b,2022-06-29_02h18.42.606,Colour_Asymmetry_Pilot,2022.1.3,Win32,60.99420555,62bbe60bf3d75ef465d3e404,,,,,,,,,,,,,,,,,,,,,,,,,,,,,,,,,,,,,,,,,,,,,,,,,,,,,,,,,,,,,,,,,,,,,,,,,,,,,,,,,,,,,,,,,,,,,,,,,,,,,,,,,,,,,,,,,,,,,,,,,,,,,,,,,,,,,,,,,,,,,,,,,,,,,,,,,,,,,,
0,45,45,77,1,,5e938e072a4ce9077f8157b9,62bbfb58b3608de7fe7fbc0b,2022-06-29_02h18.42.606,Colour_Asymmetry_Pilot,2022.1.3,Win32,60.99420555,62bbe60bf3d75ef465d3e404,,,,,,,,,,,,,,,,,,,,,,,,,,,,,,,,,,,,,,,,,,,,,,,,,,,,,,,,,,,,,,,,,,,,,,,,,,,,,,,,,,,,,,,,,,,,,,,,,,,,,,,,,,,,,,,,,,,,,,,,,,,,,,,,,,,,,,,,,,,,,,,,,,,,,,,,,,,,,,
0,46,46,84,1,,5e938e072a4ce9077f8157b9,62bbfb58b3608de7fe7fbc0b,2022-06-29_02h18.42.606,Colour_Asymmetry_Pilot,2022.1.3,Win32,60.99420555,62bbe60bf3d75ef465d3e404,,,,,,,,,,,,,,,,,,,,,,,,,,,,,,,,,,,,,,,,,,,,,,,,,,,,,,,,,,,,,,,,,,,,,,,,,,,,,,,,,,,,,,,,,,,,,,,,,,,,,,,,,,,,,,,,,,,,,,,,,,,,,,,,,,,,,,,,,,,,,,,,,,,,,,,,,,,,,,
0,47,47,17,1,,5e938e072a4ce9077f8157b9,62bbfb58b3608de7fe7fbc0b,2022-06-29_02h18.42.606,Colour_Asymmetry_Pilot,2022.1.3,Win32,60.99420555,62bbe60bf3d75ef465d3e404,,,,,,,,,,,,,,,,,,,,,,,,,,,,,,,,,,,,,,,,,,,,,,,,,,,,,,,,,,,,,,,,,,,,,,,,,,,,,,,,,,,,,,,,,,,,,,,,,,,,,,,,,,,,,,,,,,,,,,,,,,,,,,,,,,,,,,,,,,,,,,,,,,,,,,,,,,,,,,
0,48,48,65,1,,5e938e072a4ce9077f8157b9,62bbfb58b3608de7fe7fbc0b,2022-06-29_02h18.42.606,Colour_Asymmetry_Pilot,2022.1.3,Win32,60.99420555,62bbe60bf3d75ef465d3e404,,,,,,,,,,,,,,,,,,,,,,,,,,,,,,,,,,,,,,,,,,,,,,,,,,,,,,,,,,,,,,,,,,,,,,,,,,,,,,,,,,,,,,,,,,,,,,,,,,,,,,,,,,,,,,,,,,,,,,,,,,,,,,,,,,,,,,,,,,,,,,,,,,,,,,,,,,,,,,
0,49,49,18,1,,5e938e072a4ce9077f8157b9,62bbfb58b3608de7fe7fbc0b,2022-06-29_02h18.42.606,Colour_Asymmetry_Pilot,2022.1.3,Win32,60.99420555,62bbe60bf3d75ef465d3e404,,,,,,,,,,,,,,,,,,,,,,,,,,,,,,,,,,,,,,,,,,,,,,,,,,,,,,,,,,,,,,,,,,,,,,,,,,,,,,,,,,,,,,,,,,,,,,,,,,,,,,,,,,,,,,,,,,,,,,,,,,,,,,,,,,,,,,,,,,,,,,,,,,,,,,,,,,,,,,
0,50,50,28,1,,5e938e072a4ce9077f8157b9,62bbfb58b3608de7fe7fbc0b,2022-06-29_02h18.42.606,Colour_Asymmetry_Pilot,2022.1.3,Win32,60.99420555,62bbe60bf3d75ef465d3e404,,,,,,,,,,,,,,,,,,,,,,,,,,,,,,,,,,,,,,,,,,,,,,,,,,,,,,,,,,,,,,,,,,,,,,,,,,,,,,,,,,,,,,,,,,,,,,,,,,,,,,,,,,,,,,,,,,,,,,,,,,,,,,,,,,,,,,,,,,,,,,,,,,,,,,,,,,,,,,
0,51,51,35,1,,5e938e072a4ce9077f8157b9,62bbfb58b3608de7fe7fbc0b,2022-06-29_02h18.42.606,Colour_Asymmetry_Pilot,2022.1.3,Win32,60.99420555,62bbe60bf3d75ef465d3e404,,,,,,,,,,,,,,,,,,,,,,,,,,,,,,,,,,,,,,,,,,,,,,,,,,,,,,,,,,,,,,,,,,,,,,,,,,,,,,,,,,,,,,,,,,,,,,,,,,,,,,,,,,,,,,,,,,,,,,,,,,,,,,,,,,,,,,,,,,,,,,,,,,,,,,,,,,,,,,
0,52,52,91,1,,5e938e072a4ce9077f8157b9,62bbfb58b3608de7fe7fbc0b,2022-06-29_02h18.42.606,Colour_Asymmetry_Pilot,2022.1.3,Win32,60.99420555,62bbe60bf3d75ef465d3e404,,,,,,,,,,,,,,,,,,,,,,,,,,,,,,,,,,,,,,,,,,,,,,,,,,,,,,,,,,,,,,,,,,,,,,,,,,,,,,,,,,,,,,,,,,,,,,,,,,,,,,,,,,,,,,,,,,,,,,,,,,,,,,,,,,,,,,,,,,,,,,,,,,,,,,,,,,,,,,
0,53,53,63,1,,5e938e072a4ce9077f8157b9,62bbfb58b3608de7fe7fbc0b,2022-06-29_02h18.42.606,Colour_Asymmetry_Pilot,2022.1.3,Win32,60.99420555,62bbe60bf3d75ef465d3e404,,,,,,,,,,,,,,,,,,,,,,,,,,,,,,,,,,,,,,,,,,,,,,,,,,,,,,,,,,,,,,,,,,,,,,,,,,,,,,,,,,,,,,,,,,,,,,,,,,,,,,,,,,,,,,,,,,,,,,,,,,,,,,,,,,,,,,,,,,,,,,,,,,,,,,,,,,,,,,
0,54,54,90,1,,5e938e072a4ce9077f8157b9,62bbfb58b3608de7fe7fbc0b,2022-06-29_02h18.42.606,Colour_Asymmetry_Pilot,2022.1.3,Win32,60.99420555,62bbe60bf3d75ef465d3e404,,,,,,,,,,,,,,,,,,,,,,,,,,,,,,,,,,,,,,,,,,,,,,,,,,,,,,,,,,,,,,,,,,,,,,,,,,,,,,,,,,,,,,,,,,,,,,,,,,,,,,,,,,,,,,,,,,,,,,,,,,,,,,,,,,,,,,,,,,,,,,,,,,,,,,,,,,,,,,
0,55,55,72,1,,5e938e072a4ce9077f8157b9,62bbfb58b3608de7fe7fbc0b,2022-06-29_02h18.42.606,Colour_Asymmetry_Pilot,2022.1.3,Win32,60.99420555,62bbe60bf3d75ef465d3e404,,,,,,,,,,,,,,,,,,,,,,,,,,,,,,,,,,,,,,,,,,,,,,,,,,,,,,,,,,,,,,,,,,,,,,,,,,,,,,,,,,,,,,,,,,,,,,,,,,,,,,,,,,,,,,,,,,,,,,,,,,,,,,,,,,,,,,,,,,,,,,,,,,,,,,,,,,,,,,
0,56,56,7,1,,5e938e072a4ce9077f8157b9,62bbfb58b3608de7fe7fbc0b,2022-06-29_02h18.42.606,Colour_Asymmetry_Pilot,2022.1.3,Win32,60.99420555,62bbe60bf3d75ef465d3e404,,,,,,,,,,,,,,,,,,,,,,,,,,,,,,,,,,,,,,,,,,,,,,,,,,,,,,,,,,,,,,,,,,,,,,,,,,,,,,,,,,,,,,,,,,,,,,,,,,,,,,,,,,,,,,,,,,,,,,,,,,,,,,,,,,,,,,,,,,,,,,,,,,,,,,,,,,,,,,
0,57,57,53,1,,5e938e072a4ce9077f8157b9,62bbfb58b3608de7fe7fbc0b,2022-06-29_02h18.42.606,Colour_Asymmetry_Pilot,2022.1.3,Win32,60.99420555,62bbe60bf3d75ef465d3e404,,,,,,,,,,,,,,,,,,,,,,,,,,,,,,,,,,,,,,,,,,,,,,,,,,,,,,,,,,,,,,,,,,,,,,,,,,,,,,,,,,,,,,,,,,,,,,,,,,,,,,,,,,,,,,,,,,,,,,,,,,,,,,,,,,,,,,,,,,,,,,,,,,,,,,,,,,,,,,
0,58,58,11,1,,5e938e072a4ce9077f8157b9,62bbfb58b3608de7fe7fbc0b,2022-06-29_02h18.42.606,Colour_Asymmetry_Pilot,2022.1.3,Win32,60.99420555,62bbe60bf3d75ef465d3e404,,,,,,,,,,,,,,,,,,,,,,,,,,,,,,,,,,,,,,,,,,,,,,,,,,,,,,,,,,,,,,,,,,,,,,,,,,,,,,,,,,,,,,,,,,,,,,,,,,,,,,,,,,,,,,,,,,,,,,,,,,,,,,,,,,,,,,,,,,,,,,,,,,,,,,,,,,,,,,
0,59,59,51,1,,5e938e072a4ce9077f8157b9,62bbfb58b3608de7fe7fbc0b,2022-06-29_02h18.42.606,Colour_Asymmetry_Pilot,2022.1.3,Win32,60.99420555,62bbe60bf3d75ef465d3e404,,,,,,,,,,,,,,,,,,,,,,,,,,,,,,,,,,,,,,,,,,,,,,,,,,,,,,,,,,,,,,,,,,,,,,,,,,,,,,,,,,,,,,,,,,,,,,,,,,,,,,,,,,,,,,,,,,,,,,,,,,,,,,,,,,,,,,,,,,,,,,,,,,,,,,,,,,,,,,
0,60,60,60,1,,5e938e072a4ce9077f8157b9,62bbfb58b3608de7fe7fbc0b,2022-06-29_02h18.42.606,Colour_Asymmetry_Pilot,2022.1.3,Win32,60.99420555,62bbe60bf3d75ef465d3e404,,,,,,,,,,,,,,,,,,,,,,,,,,,,,,,,,,,,,,,,,,,,,,,,,,,,,,,,,,,,,,,,,,,,,,,,,,,,,,,,,,,,,,,,,,,,,,,,,,,,,,,,,,,,,,,,,,,,,,,,,,,,,,,,,,,,,,,,,,,,,,,,,,,,,,,,,,,,,,
0,61,61,64,1,,5e938e072a4ce9077f8157b9,62bbfb58b3608de7fe7fbc0b,2022-06-29_02h18.42.606,Colour_Asymmetry_Pilot,2022.1.3,Win32,60.99420555,62bbe60bf3d75ef465d3e404,,,,,,,,,,,,,,,,,,,,,,,,,,,,,,,,,,,,,,,,,,,,,,,,,,,,,,,,,,,,,,,,,,,,,,,,,,,,,,,,,,,,,,,,,,,,,,,,,,,,,,,,,,,,,,,,,,,,,,,,,,,,,,,,,,,,,,,,,,,,,,,,,,,,,,,,,,,,,,
0,62,62,44,1,,5e938e072a4ce9077f8157b9,62bbfb58b3608de7fe7fbc0b,2022-06-29_02h18.42.606,Colour_Asymmetry_Pilot,2022.1.3,Win32,60.99420555,62bbe60bf3d75ef465d3e404,,,,,,,,,,,,,,,,,,,,,,,,,,,,,,,,,,,,,,,,,,,,,,,,,,,,,,,,,,,,,,,,,,,,,,,,,,,,,,,,,,,,,,,,,,,,,,,,,,,,,,,,,,,,,,,,,,,,,,,,,,,,,,,,,,,,,,,,,,,,,,,,,,,,,,,,,,,,,,
0,63,63,70,1,,5e938e072a4ce9077f8157b9,62bbfb58b3608de7fe7fbc0b,2022-06-29_02h18.42.606,Colour_Asymmetry_Pilot,2022.1.3,Win32,60.99420555,62bbe60bf3d75ef465d3e404,,,,,,,,,,,,,,,,,,,,,,,,,,,,,,,,,,,,,,,,,,,,,,,,,,,,,,,,,,,,,,,,,,,,,,,,,,,,,,,,,,,,,,,,,,,,,,,,,,,,,,,,,,,,,,,,,,,,,,,,,,,,,,,,,,,,,,,,,,,,,,,,,,,,,,,,,,,,,,
0,64,64,20,1,,5e938e072a4ce9077f8157b9,62bbfb58b3608de7fe7fbc0b,2022-06-29_02h18.42.606,Colour_Asymmetry_Pilot,2022.1.3,Win32,60.99420555,62bbe60bf3d75ef465d3e404,,,,,,,,,,,,,,,,,,,,,,,,,,,,,,,,,,,,,,,,,,,,,,,,,,,,,,,,,,,,,,,,,,,,,,,,,,,,,,,,,,,,,,,,,,,,,,,,,,,,,,,,,,,,,,,,,,,,,,,,,,,,,,,,,,,,,,,,,,,,,,,,,,,,,,,,,,,,,,
0,65,65,26,1,,5e938e072a4ce9077f8157b9,62bbfb58b3608de7fe7fbc0b,2022-06-29_02h18.42.606,Colour_Asymmetry_Pilot,2022.1.3,Win32,60.99420555,62bbe60bf3d75ef465d3e404,,,,,,,,,,,,,,,,,,,,,,,,,,,,,,,,,,,,,,,,,,,,,,,,,,,,,,,,,,,,,,,,,,,,,,,,,,,,,,,,,,,,,,,,,,,,,,,,,,,,,,,,,,,,,,,,,,,,,,,,,,,,,,,,,,,,,,,,,,,,,,,,,,,,,,,,,,,,,,
0,66,66,50,1,,5e938e072a4ce9077f8157b9,62bbfb58b3608de7fe7fbc0b,2022-06-29_02h18.42.606,Colour_Asymmetry_Pilot,2022.1.3,Win32,60.99420555,62bbe60bf3d75ef465d3e404,,,,,,,,,,,,,,,,,,,,,,,,,,,,,,,,,,,,,,,,,,,,,,,,,,,,,,,,,,,,,,,,,,,,,,,,,,,,,,,,,,,,,,,,,,,,,,,,,,,,,,,,,,,,,,,,,,,,,,,,,,,,,,,,,,,,,,,,,,,,,,,,,,,,,,,,,,,,,,
0,67,67,81,1,,5e938e072a4ce9077f8157b9,62bbfb58b3608de7fe7fbc0b,2022-06-29_02h18.42.606,Colour_Asymmetry_Pilot,2022.1.3,Win32,60.99420555,62bbe60bf3d75ef465d3e404,,,,,,,,,,,,,,,,,,,,,,,,,,,,,,,,,,,,,,,,,,,,,,,,,,,,,,,,,,,,,,,,,,,,,,,,,,,,,,,,,,,,,,,,,,,,,,,,,,,,,,,,,,,,,,,,,,,,,,,,,,,,,,,,,,,,,,,,,,,,,,,,,,,,,,,,,,,,,,
0,68,68,85,1,,5e938e072a4ce9077f8157b9,62bbfb58b3608de7fe7fbc0b,2022-06-29_02h18.42.606,Colour_Asymmetry_Pilot,2022.1.3,Win32,60.99420555,62bbe60bf3d75ef465d3e404,,,,,,,,,,,,,,,,,,,,,,,,,,,,,,,,,,,,,,,,,,,,,,,,,,,,,,,,,,,,,,,,,,,,,,,,,,,,,,,,,,,,,,,,,,,,,,,,,,,,,,,,,,,,,,,,,,,,,,,,,,,,,,,,,,,,,,,,,,,,,,,,,,,,,,,,,,,,,,
0,69,69,66,1,,5e938e072a4ce9077f8157b9,62bbfb58b3608de7fe7fbc0b,2022-06-29_02h18.42.606,Colour_Asymmetry_Pilot,2022.1.3,Win32,60.99420555,62bbe60bf3d75ef465d3e404,,,,,,,,,,,,,,,,,,,,,,,,,,,,,,,,,,,,,,,,,,,,,,,,,,,,,,,,,,,,,,,,,,,,,,,,,,,,,,,,,,,,,,,,,,,,,,,,,,,,,,,,,,,,,,,,,,,,,,,,,,,,,,,,,,,,,,,,,,,,,,,,,,,,,,,,,,,,,,
0,70,70,92,1,,5e938e072a4ce9077f8157b9,62bbfb58b3608de7fe7fbc0b,2022-06-29_02h18.42.606,Colour_Asymmetry_Pilot,2022.1.3,Win32,60.99420555,62bbe60bf3d75ef465d3e404,,,,,,,,,,,,,,,,,,,,,,,,,,,,,,,,,,,,,,,,,,,,,,,,,,,,,,,,,,,,,,,,,,,,,,,,,,,,,,,,,,,,,,,,,,,,,,,,,,,,,,,,,,,,,,,,,,,,,,,,,,,,,,,,,,,,,,,,,,,,,,,,,,,,,,,,,,,,,,
0,71,71,14,1,,5e938e072a4ce9077f8157b9,62bbfb58b3608de7fe7fbc0b,2022-06-29_02h18.42.606,Colour_Asymmetry_Pilot,2022.1.3,Win32,60.99420555,62bbe60bf3d75ef465d3e404,,,,,,,,,,,,,,,,,,,,,,,,,,,,,,,,,,,,,,,,,,,,,,,,,,,,,,,,,,,,,,,,,,,,,,,,,,,,,,,,,,,,,,,,,,,,,,,,,,,,,,,,,,,,,,,,,,,,,,,,,,,,,,,,,,,,,,,,,,,,,,,,,,,,,,,,,,,,,,
0,72,72,59,1,,5e938e072a4ce9077f8157b9,62bbfb58b3608de7fe7fbc0b,2022-06-29_02h18.42.606,Colour_Asymmetry_Pilot,2022.1.3,Win32,60.99420555,62bbe60bf3d75ef465d3e404,,,,,,,,,,,,,,,,,,,,,,,,,,,,,,,,,,,,,,,,,,,,,,,,,,,,,,,,,,,,,,,,,,,,,,,,,,,,,,,,,,,,,,,,,,,,,,,,,,,,,,,,,,,,,,,,,,,,,,,,,,,,,,,,,,,,,,,,,,,,,,,,,,,,,,,,,,,,,,
0,73,73,15,1,,5e938e072a4ce9077f8157b9,62bbfb58b3608de7fe7fbc0b,2022-06-29_02h18.42.606,Colour_Asymmetry_Pilot,2022.1.3,Win32,60.99420555,62bbe60bf3d75ef465d3e404,,,,,,,,,,,,,,,,,,,,,,,,,,,,,,,,,,,,,,,,,,,,,,,,,,,,,,,,,,,,,,,,,,,,,,,,,,,,,,,,,,,,,,,,,,,,,,,,,,,,,,,,,,,,,,,,,,,,,,,,,,,,,,,,,,,,,,,,,,,,,,,,,,,,,,,,,,,,,,
0,74,74,3,1,,5e938e072a4ce9077f8157b9,62bbfb58b3608de7fe7fbc0b,2022-06-29_02h18.42.606,Colour_Asymmetry_Pilot,2022.1.3,Win32,60.99420555,62bbe60bf3d75ef465d3e404,,,,,,,,,,,,,,,,,,,,,,,,,,,,,,,,,,,,,,,,,,,,,,,,,,,,,,,,,,,,,,,,,,,,,,,,,,,,,,,,,,,,,,,,,,,,,,,,,,,,,,,,,,,,,,,,,,,,,,,,,,,,,,,,,,,,,,,,,,,,,,,,,,,,,,,,,,,,,,
0,75,75,40,1,,5e938e072a4ce9077f8157b9,62bbfb58b3608de7fe7fbc0b,2022-06-29_02h18.42.606,Colour_Asymmetry_Pilot,2022.1.3,Win32,60.99420555,62bbe60bf3d75ef465d3e404,,,,,,,,,,,,,,,,,,,,,,,,,,,,,,,,,,,,,,,,,,,,,,,,,,,,,,,,,,,,,,,,,,,,,,,,,,,,,,,,,,,,,,,,,,,,,,,,,,,,,,,,,,,,,,,,,,,,,,,,,,,,,,,,,,,,,,,,,,,,,,,,,,,,,,,,,,,,,,
0,76,76,52,1,,5e938e072a4ce9077f8157b9,62bbfb58b3608de7fe7fbc0b,2022-06-29_02h18.42.606,Colour_Asymmetry_Pilot,2022.1.3,Win32,60.99420555,62bbe60bf3d75ef465d3e404,,,,,,,,,,,,,,,,,,,,,,,,,,,,,,,,,,,,,,,,,,,,,,,,,,,,,,,,,,,,,,,,,,,,,,,,,,,,,,,,,,,,,,,,,,,,,,,,,,,,,,,,,,,,,,,,,,,,,,,,,,,,,,,,,,,,,,,,,,,,,,,,,,,,,,,,,,,,,,
0,77,77,68,1,,5e938e072a4ce9077f8157b9,62bbfb58b3608de7fe7fbc0b,2022-06-29_02h18.42.606,Colour_Asymmetry_Pilot,2022.1.3,Win32,60.99420555,62bbe60bf3d75ef465d3e404,,,,,,,,,,,,,,,,,,,,,,,,,,,,,,,,,,,,,,,,,,,,,,,,,,,,,,,,,,,,,,,,,,,,,,,,,,,,,,,,,,,,,,,,,,,,,,,,,,,,,,,,,,,,,,,,,,,,,,,,,,,,,,,,,,,,,,,,,,,,,,,,,,,,,,,,,,,,,,
0,78,78,80,1,,5e938e072a4ce9077f8157b9,62bbfb58b3608de7fe7fbc0b,2022-06-29_02h18.42.606,Colour_Asymmetry_Pilot,2022.1.3,Win32,60.99420555,62bbe60bf3d75ef465d3e404,,,,,,,,,,,,,,,,,,,,,,,,,,,,,,,,,,,,,,,,,,,,,,,,,,,,,,,,,,,,,,,,,,,,,,,,,,,,,,,,,,,,,,,,,,,,,,,,,,,,,,,,,,,,,,,,,,,,,,,,,,,,,,,,,,,,,,,,,,,,,,,,,,,,,,,,,,,,,,
0,79,79,47,1,,5e938e072a4ce9077f8157b9,62bbfb58b3608de7fe7fbc0b,2022-06-29_02h18.42.606,Colour_Asymmetry_Pilot,2022.1.3,Win32,60.99420555,62bbe60bf3d75ef465d3e404,,,,,,,,,,,,,,,,,,,,,,,,,,,,,,,,,,,,,,,,,,,,,,,,,,,,,,,,,,,,,,,,,,,,,,,,,,,,,,,,,,,,,,,,,,,,,,,,,,,,,,,,,,,,,,,,,,,,,,,,,,,,,,,,,,,,,,,,,,,,,,,,,,,,,,,,,,,,,,
0,80,80,87,1,,5e938e072a4ce9077f8157b9,62bbfb58b3608de7fe7fbc0b,2022-06-29_02h18.42.606,Colour_Asymmetry_Pilot,2022.1.3,Win32,60.99420555,62bbe60bf3d75ef465d3e404,,,,,,,,,,,,,,,,,,,,,,,,,,,,,,,,,,,,,,,,,,,,,,,,,,,,,,,,,,,,,,,,,,,,,,,,,,,,,,,,,,,,,,,,,,,,,,,,,,,,,,,,,,,,,,,,,,,,,,,,,,,,,,,,,,,,,,,,,,,,,,,,,,,,,,,,,,,,,,
0,81,81,19,1,,5e938e072a4ce9077f8157b9,62bbfb58b3608de7fe7fbc0b,2022-06-29_02h18.42.606,Colour_Asymmetry_Pilot,2022.1.3,Win32,60.99420555,62bbe60bf3d75ef465d3e404,,,,,,,,,,,,,,,,,,,,,,,,,,,,,,,,,,,,,,,,,,,,,,,,,,,,,,,,,,,,,,,,,,,,,,,,,,,,,,,,,,,,,,,,,,,,,,,,,,,,,,,,,,,,,,,,,,,,,,,,,,,,,,,,,,,,,,,,,,,,,,,,,,,,,,,,,,,,,,
0,82,82,24,1,,5e938e072a4ce9077f8157b9,62bbfb58b3608de7fe7fbc0b,2022-06-29_02h18.42.606,Colour_Asymmetry_Pilot,2022.1.3,Win32,60.99420555,62bbe60bf3d75ef465d3e404,,,,,,,,,,,,,,,,,,,,,,,,,,,,,,,,,,,,,,,,,,,,,,,,,,,,,,,,,,,,,,,,,,,,,,,,,,,,,,,,,,,,,,,,,,,,,,,,,,,,,,,,,,,,,,,,,,,,,,,,,,,,,,,,,,,,,,,,,,,,,,,,,,,,,,,,,,,,,,
0,83,83,42,1,,5e938e072a4ce9077f8157b9,62bbfb58b3608de7fe7fbc0b,2022-06-29_02h18.42.606,Colour_Asymmetry_Pilot,2022.1.3,Win32,60.99420555,62bbe60bf3d75ef465d3e404,,,,,,,,,,,,,,,,,,,,,,,,,,,,,,,,,,,,,,,,,,,,,,,,,,,,,,,,,,,,,,,,,,,,,,,,,,,,,,,,,,,,,,,,,,,,,,,,,,,,,,,,,,,,,,,,,,,,,,,,,,,,,,,,,,,,,,,,,,,,,,,,,,,,,,,,,,,,,,
0,84,84,30,1,,5e938e072a4ce9077f8157b9,62bbfb58b3608de7fe7fbc0b,2022-06-29_02h18.42.606,Colour_Asymmetry_Pilot,2022.1.3,Win32,60.99420555,62bbe60bf3d75ef465d3e404,,,,,,,,,,,,,,,,,,,,,,,,,,,,,,,,,,,,,,,,,,,,,,,,,,,,,,,,,,,,,,,,,,,,,,,,,,,,,,,,,,,,,,,,,,,,,,,,,,,,,,,,,,,,,,,,,,,,,,,,,,,,,,,,,,,,,,,,,,,,,,,,,,,,,,,,,,,,,,
0,85,85,89,1,,5e938e072a4ce9077f8157b9,62bbfb58b3608de7fe7fbc0b,2022-06-29_02h18.42.606,Colour_Asymmetry_Pilot,2022.1.3,Win32,60.99420555,62bbe60bf3d75ef465d3e404,,,,,,,,,,,,,,,,,,,,,,,,,,,,,,,,,,,,,,,,,,,,,,,,,,,,,,,,,,,,,,,,,,,,,,,,,,,,,,,,,,,,,,,,,,,,,,,,,,,,,,,,,,,,,,,,,,,,,,,,,,,,,,,,,,,,,,,,,,,,,,,,,,,,,,,,,,,,,,
0,86,86,82,1,,5e938e072a4ce9077f8157b9,62bbfb58b3608de7fe7fbc0b,2022-06-29_02h18.42.606,Colour_Asymmetry_Pilot,2022.1.3,Win32,60.99420555,62bbe60bf3d75ef465d3e404,,,,,,,,,,,,,,,,,,,,,,,,,,,,,,,,,,,,,,,,,,,,,,,,,,,,,,,,,,,,,,,,,,,,,,,,,,,,,,,,,,,,,,,,,,,,,,,,,,,,,,,,,,,,,,,,,,,,,,,,,,,,,,,,,,,,,,,,,,,,,,,,,,,,,,,,,,,,,,
0,87,87,38,1,,5e938e072a4ce9077f8157b9,62bbfb58b3608de7fe7fbc0b,2022-06-29_02h18.42.606,Colour_Asymmetry_Pilot,2022.1.3,Win32,60.99420555,62bbe60bf3d75ef465d3e404,,,,,,,,,,,,,,,,,,,,,,,,,,,,,,,,,,,,,,,,,,,,,,,,,,,,,,,,,,,,,,,,,,,,,,,,,,,,,,,,,,,,,,,,,,,,,,,,,,,,,,,,,,,,,,,,,,,,,,,,,,,,,,,,,,,,,,,,,,,,,,,,,,,,,,,,,,,,,,
0,88,88,21,1,,5e938e072a4ce9077f8157b9,62bbfb58b3608de7fe7fbc0b,2022-06-29_02h18.42.606,Colour_Asymmetry_Pilot,2022.1.3,Win32,60.99420555,62bbe60bf3d75ef465d3e404,,,,,,,,,,,,,,,,,,,,,,,,,,,,,,,,,,,,,,,,,,,,,,,,,,,,,,,,,,,,,,,,,,,,,,,,,,,,,,,,,,,,,,,,,,,,,,,,,,,,,,,,,,,,,,,,,,,,,,,,,,,,,,,,,,,,,,,,,,,,,,,,,,,,,,,,,,,,,,
0,89,89,76,1,,5e938e072a4ce9077f8157b9,62bbfb58b3608de7fe7fbc0b,2022-06-29_02h18.42.606,Colour_Asymmetry_Pilot,2022.1.3,Win32,60.99420555,62bbe60bf3d75ef465d3e404,,,,,,,,,,,,,,,,,,,,,,,,,,,,,,,,,,,,,,,,,,,,,,,,,,,,,,,,,,,,,,,,,,,,,,,,,,,,,,,,,,,,,,,,,,,,,,,,,,,,,,,,,,,,,,,,,,,,,,,,,,,,,,,,,,,,,,,,,,,,,,,,,,,,,,,,,,,,,,
0,90,90,16,1,,5e938e072a4ce9077f8157b9,62bbfb58b3608de7fe7fbc0b,2022-06-29_02h18.42.606,Colour_Asymmetry_Pilot,2022.1.3,Win32,60.99420555,62bbe60bf3d75ef465d3e404,,,,,,,,,,,,,,,,,,,,,,,,,,,,,,,,,,,,,,,,,,,,,,,,,,,,,,,,,,,,,,,,,,,,,,,,,,,,,,,,,,,,,,,,,,,,,,,,,,,,,,,,,,,,,,,,,,,,,,,,,,,,,,,,,,,,,,,,,,,,,,,,,,,,,,,,,,,,,,
0,91,91,0,1,,5e938e072a4ce9077f8157b9,62bbfb58b3608de7fe7fbc0b,2022-06-29_02h18.42.606,Colour_Asymmetry_Pilot,2022.1.3,Win32,60.99420555,62bbe60bf3d75ef465d3e404,,,,,,,,,,,,,,,,,,,,,,,,,,,,,,,,,,,,,,,,,,,,,,,,,,,,,,,,,,,,,,,,,,,,,,,,,,,,,,,,,,,,,,,,,,,,,,,,,,,,,,,,,,,,,,,,,,,,,,,,,,,,,,,,,,,,,,,,,,,,,,,,,,,,,,,,,,,,,,
0,92,92,10,1,,5e938e072a4ce9077f8157b9,62bbfb58b3608de7fe7fbc0b,2022-06-29_02h18.42.606,Colour_Asymmetry_Pilot,2022.1.3,Win32,60.99420555,62bbe60bf3d75ef465d3e404,,,,,,,,,,,,,,,,,,,,,,,,,,,,,,,,,,,,,,,,,,,,,,,,,,,,,,,,,,,,,,,,,,,,,,,,,,,,,,,,,,,,,,,,,,,,,,,,,,,,,,,,,,,,,,,,,,,,,,,,,,,,,,,,,,,,,,,,,,,,,,,,,,,,,,,,,,,,,,
,,,,,,5e938e072a4ce9077f8157b9,62bbfb58b3608de7fe7fbc0b,2022-06-29_02h18.42.606,Colour_Asymmetry_Pilot,2022.1.3,Win32,60.99420555,62bbe60bf3d75ef465d3e404,0,0,0,4,1,threeone,,,,,,,,,,,,,,,,,,,,,,,,,,,,,,,,,,,,,,,,,,,,,,,,,,,,,,,,,,,,,,,,,,,,,,,,,,,,,,,,,,,,,,,,,,,,,,,,,,,,,,,,,,,,,,,,,,,,,,,,,,,,,,,,,,,,,,,,,,,,,,,,,,,,,,,,
,,,,,,5e938e072a4ce9077f8157b9,62bbfb58b3608de7fe7fbc0b,2022-06-29_02h18.42.606,Colour_Asymmetry_Pilot,2022.1.3,Win32,60.99420555,62bbe60bf3d75ef465d3e404,0,1,1,30,1,fourtwo,,,,,,,,,,,,,,,,,,,,,,,,,,,,,,,,,,,,,,,,,,,,,,,,,,,,,,,,,,,,,,,,,,,,,,,,,,,,,,,,,,,,,,,,,,,,,,,,,,,,,,,,,,,,,,,,,,,,,,,,,,,,,,,,,,,,,,,,,,,,,,,,,,,,,,,,
,,,,,,5e938e072a4ce9077f8157b9,62bbfb58b3608de7fe7fbc0b,2022-06-29_02h18.42.606,Colour_Asymmetry_Pilot,2022.1.3,Win32,60.99420555,62bbe60bf3d75ef465d3e404,0,2,2,160,1,onetwo,,,,,,,,,,,,,,,,,,,,,,,,,,,,,,,,,,,,,,,,,,,,,,,,,,,,,,,,,,,,,,,,,,,,,,,,,,,,,,,,,,,,,,,,,,,,,,,,,,,,,,,,,,,,,,,,,,,,,,,,,,,,,,,,,,,,,,,,,,,,,,,,,,,,,,,,
,,,,,,5e938e072a4ce9077f8157b9,62bbfb58b3608de7fe7fbc0b,2022-06-29_02h18.42.606,Colour_Asymmetry_Pilot,2022.1.3,Win32,60.99420555,62bbe60bf3d75ef465d3e404,0,3,3,147,1,twofour,,,,,,,,,,,,,,,,,,,,,,,,,,,,,,,,,,,,,,,,,,,,,,,,,,,,,,,,,,,,,,,,,,,,,,,,,,,,,,,,,,,,,,,,,,,,,,,,,,,,,,,,,,,,,,,,,,,,,,,,,,,,,,,,,,,,,,,,,,,,,,,,,,,,,,,,
,,,,,,5e938e072a4ce9077f8157b9,62bbfb58b3608de7fe7fbc0b,2022-06-29_02h18.42.606,Colour_Asymmetry_Pilot,2022.1.3,Win32,60.99420555,62bbe60bf3d75ef465d3e404,0,4,4,84,1,threeone,,,,,,,,,,,,,,,,,,,,,,,,,,,,,,,,,,,,,,,,,,,,,,,,,,,,,,,,,,,,,,,,,,,,,,,,,,,,,,,,,,,,,,,,,,,,,,,,,,,,,,,,,,,,,,,,,,,,,,,,,,,,,,,,,,,,,,,,,,,,,,,,,,,,,,,,
,,,,,,5e938e072a4ce9077f8157b9,62bbfb58b3608de7fe7fbc0b,2022-06-29_02h18.42.606,Colour_Asymmetry_Pilot,2022.1.3,Win32,60.99420555,62bbe60bf3d75ef465d3e404,0,5,5,136,1,onetwo,,,,,,,,,,,,,,,,,,,,,,,,,,,,,,,,,,,,,,,,,,,,,,,,,,,,,,,,,,,,,,,,,,,,,,,,,,,,,,,,,,,,,,,,,,,,,,,,,,,,,,,,,,,,,,,,,,,,,,,,,,,,,,,,,,,,,,,,,,,,,,,,,,,,,,,,
,,,,,,5e938e072a4ce9077f8157b9,62bbfb58b3608de7fe7fbc0b,2022-06-29_02h18.42.606,Colour_Asymmetry_Pilot,2022.1.3,Win32,60.99420555,62bbe60bf3d75ef465d3e404,0,6,6,111,1,fourthree,,,,,,,,,,,,,,,,,,,,,,,,,,,,,,,,,,,,,,,,,,,,,,,,,,,,,,,,,,,,,,,,,,,,,,,,,,,,,,,,,,,,,,,,,,,,,,,,,,,,,,,,,,,,,,,,,,,,,,,,,,,,,,,,,,,,,,,,,,,,,,,,,,,,,,,,
,,,,,,5e938e072a4ce9077f8157b9,62bbfb58b3608de7fe7fbc0b,2022-06-29_02h18.42.606,Colour_Asymmetry_Pilot,2022.1.3,Win32,60.99420555,62bbe60bf3d75ef465d3e404,0,7,7,94,1,fourtwo,,,,,,,,,,,,,,,,,,,,,,,,,,,,,,,,,,,,,,,,,,,,,,,,,,,,,,,,,,,,,,,,,,,,,,,,,,,,,,,,,,,,,,,,,,,,,,,,,,,,,,,,,,,,,,,,,,,,,,,,,,,,,,,,,,,,,,,,,,,,,,,,,,,,,,,,
,,,,,,5e938e072a4ce9077f8157b9,62bbfb58b3608de7fe7fbc0b,2022-06-29_02h18.42.606,Colour_Asymmetry_Pilot,2022.1.3,Win32,60.99420555,62bbe60bf3d75ef465d3e404,0,8,8,69,1,threefour,,,,,,,,,,,,,,,,,,,,,,,,,,,,,,,,,,,,,,,,,,,,,,,,,,,,,,,,,,,,,,,,,,,,,,,,,,,,,,,,,,,,,,,,,,,,,,,,,,,,,,,,,,,,,,,,,,,,,,,,,,,,,,,,,,,,,,,,,,,,,,,,,,,,,,,,
,,,,,,5e938e072a4ce9077f8157b9,62bbfb58b3608de7fe7fbc0b,2022-06-29_02h18.42.606,Colour_Asymmetry_Pilot,2022.1.3,Win32,60.99420555,62bbe60bf3d75ef465d3e404,0,9,9,83,1,twofour,,,,,,,,,,,,,,,,,,,,,,,,,,,,,,,,,,,,,,,,,,,,,,,,,,,,,,,,,,,,,,,,,,,,,,,,,,,,,,,,,,,,,,,,,,,,,,,,,,,,,,,,,,,,,,,,,,,,,,,,,,,,,,,,,,,,,,,,,,,,,,,,,,,,,,,,
,,,,,,5e938e072a4ce9077f8157b9,62bbfb58b3608de7fe7fbc0b,2022-06-29_02h18.42.606,Colour_Asymmetry_Pilot,2022.1.3,Win32,60.99420555,62bbe60bf3d75ef465d3e404,0,10,10,44,1,threeone,,,,,,,,,,,,,,,,,,,,,,,,,,,,,,,,,,,,,,,,,,,,,,,,,,,,,,,,,,,,,,,,,,,,,,,,,,,,,,,,,,,,,,,,,,,,,,,,,,,,,,,,,,,,,,,,,,,,,,,,,,,,,,,,,,,,,,,,,,,,,,,,,,,,,,,,
,,,,,,5e938e072a4ce9077f8157b9,62bbfb58b3608de7fe7fbc0b,2022-06-29_02h18.42.606,Colour_Asymmetry_Pilot,2022.1.3,Win32,60.99420555,62bbe60bf3d75ef465d3e404,0,11,11,63,1,fourthree,,,,,,,,,,,,,,,,,,,,,,,,,,,,,,,,,,,,,,,,,,,,,,,,,,,,,,,,,,,,,,,,,,,,,,,,,,,,,,,,,,,,,,,,,,,,,,,,,,,,,,,,,,,,,,,,,,,,,,,,,,,,,,,,,,,,,,,,,,,,,,,,,,,,,,,,
,,,,,,5e938e072a4ce9077f8157b9,62bbfb58b3608de7fe7fbc0b,2022-06-29_02h18.42.606,Colour_Asymmetry_Pilot,2022.1.3,Win32,60.99420555,62bbe60bf3d75ef465d3e404,0,12,12,71,1,fourthree,,,,,,,,,,,,,,,,,,,,,,,,,,,,,,,,,,,,,,,,,,,,,,,,,,,,,,,,,,,,,,,,,,,,,,,,,,,,,,,,,,,,,,,,,,,,,,,,,,,,,,,,,,,,,,,,,,,,,,,,,,,,,,,,,,,,,,,,,,,,,,,,,,,,,,,,
,,,,,,5e938e072a4ce9077f8157b9,62bbfb58b3608de7fe7fbc0b,2022-06-29_02h18.42.606,Colour_Asymmetry_Pilot,2022.1.3,Win32,60.99420555,62bbe60bf3d75ef465d3e404,0,13,13,5,1,threefour,,,,,,,,,,,,,,,,,,,,,,,,,,,,,,,,,,,,,,,,,,,,,,,,,,,,,,,,,,,,,,,,,,,,,,,,,,,,,,,,,,,,,,,,,,,,,,,,,,,,,,,,,,,,,,,,,,,,,,,,,,,,,,,,,,,,,,,,,,,,,,,,,,,,,,,,
,,,,,,5e938e072a4ce9077f8157b9,62bbfb58b3608de7fe7fbc0b,2022-06-29_02h18.42.606,Colour_Asymmetry_Pilot,2022.1.3,Win32,60.99420555,62bbe60bf3d75ef465d3e404,0,14,14,93,1,threefour,,,,,,,,,,,,,,,,,,,,,,,,,,,,,,,,,,,,,,,,,,,,,,,,,,,,,,,,,,,,,,,,,,,,,,,,,,,,,,,,,,,,,,,,,,,,,,,,,,,,,,,,,,,,,,,,,,,,,,,,,,,,,,,,,,,,,,,,,,,,,,,,,,,,,,,,
,,,,,,5e938e072a4ce9077f8157b9,62bbfb58b3608de7fe7fbc0b,2022-06-29_02h18.42.606,Colour_Asymmetry_Pilot,2022.1.3,Win32,60.99420555,62bbe60bf3d75ef465d3e404,0,15,15,47,1,fourthree,,,,,,,,,,,,,,,,,,,,,,,,,,,,,,,,,,,,,,,,,,,,,,,,,,,,,,,,,,,,,,,,,,,,,,,,,,,,,,,,,,,,,,,,,,,,,,,,,,,,,,,,,,,,,,,,,,,,,,,,,,,,,,,,,,,,,,,,,,,,,,,,,,,,,,,,
,,,,,,5e938e072a4ce9077f8157b9,62bbfb58b3608de7fe7fbc0b,2022-06-29_02h18.42.606,Colour_Asymmetry_Pilot,2022.1.3,Win32,60.99420555,62bbe60bf3d75ef465d3e404,0,16,16,72,1,onetwo,,,,,,,,,,,,,,,,,,,,,,,,,,,,,,,,,,,,,,,,,,,,,,,,,,,,,,,,,,,,,,,,,,,,,,,,,,,,,,,,,,,,,,,,,,,,,,,,,,,,,,,,,,,,,,,,,,,,,,,,,,,,,,,,,,,,,,,,,,,,,,,,,,,,,,,,
,,,,,,5e938e072a4ce9077f8157b9,62bbfb58b3608de7fe7fbc0b,2022-06-29_02h18.42.606,Colour_Asymmetry_Pilot,2022.1.3,Win32,60.99420555,62bbe60bf3d75ef465d3e404,0,17,17,65,1,onethree,,,,,,,,,,,,,,,,,,,,,,,,,,,,,,,,,,,,,,,,,,,,,,,,,,,,,,,,,,,,,,,,,,,,,,,,,,,,,,,,,,,,,,,,,,,,,,,,,,,,,,,,,,,,,,,,,,,,,,,,,,,,,,,,,,,,,,,,,,,,,,,,,,,,,,,,
,,,,,,5e938e072a4ce9077f8157b9,62bbfb58b3608de7fe7fbc0b,2022-06-29_02h18.42.606,Colour_Asymmetry_Pilot,2022.1.3,Win32,60.99420555,62bbe60bf3d75ef465d3e404,0,18,18,6,1,fourtwo,,,,,,,,,,,,,,,,,,,,,,,,,,,,,,,,,,,,,,,,,,,,,,,,,,,,,,,,,,,,,,,,,,,,,,,,,,,,,,,,,,,,,,,,,,,,,,,,,,,,,,,,,,,,,,,,,,,,,,,,,,,,,,,,,,,,,,,,,,,,,,,,,,,,,,,,
,,,,,,5e938e072a4ce9077f8157b9,62bbfb58b3608de7fe7fbc0b,2022-06-29_02h18.42.606,Colour_Asymmetry_Pilot,2022.1.3,Win32,60.99420555,62bbe60bf3d75ef465d3e404,0,19,19,112,1,onetwo,,,,,,,,,,,,,,,,,,,,,,,,,,,,,,,,,,,,,,,,,,,,,,,,,,,,,,,,,,,,,,,,,,,,,,,,,,,,,,,,,,,,,,,,,,,,,,,,,,,,,,,,,,,,,,,,,,,,,,,,,,,,,,,,,,,,,,,,,,,,,,,,,,,,,,,,
,,,,,,5e938e072a4ce9077f8157b9,62bbfb58b3608de7fe7fbc0b,2022-06-29_02h18.42.606,Colour_Asymmetry_Pilot,2022.1.3,Win32,60.99420555,62bbe60bf3d75ef465d3e404,0,20,20,145,1,onethree,,,,,,,,,,,,,,,,,,,,,,,,,,,,,,,,,,,,,,,,,,,,,,,,,,,,,,,,,,,,,,,,,,,,,,,,,,,,,,,,,,,,,,,,,,,,,,,,,,,,,,,,,,,,,,,,,,,,,,,,,,,,,,,,,,,,,,,,,,,,,,,,,,,,,,,,
,,,,,,5e938e072a4ce9077f8157b9,62bbfb58b3608de7fe7fbc0b,2022-06-29_02h18.42.606,Colour_Asymmetry_Pilot,2022.1.3,Win32,60.99420555,62bbe60bf3d75ef465d3e404,0,21,21,22,1,fourtwo,,,,,,,,,,,,,,,,,,,,,,,,,,,,,,,,,,,,,,,,,,,,,,,,,,,,,,,,,,,,,,,,,,,,,,,,,,,,,,,,,,,,,,,,,,,,,,,,,,,,,,,,,,,,,,,,,,,,,,,,,,,,,,,,,,,,,,,,,,,,,,,,,,,,,,,,
,,,,,,5e938e072a4ce9077f8157b9,62bbfb58b3608de7fe7fbc0b,2022-06-29_02h18.42.606,Colour_Asymmetry_Pilot,2022.1.3,Win32,60.99420555,62bbe60bf3d75ef465d3e404,0,22,22,119,1,fourthree,,,,,,,,,,,,,,,,,,,,,,,,,,,,,,,,,,,,,,,,,,,,,,,,,,,,,,,,,,,,,,,,,,,,,,,,,,,,,,,,,,,,,,,,,,,,,,,,,,,,,,,,,,,,,,,,,,,,,,,,,,,,,,,,,,,,,,,,,,,,,,,,,,,,,,,,
,,,,,,5e938e072a4ce9077f8157b9,62bbfb58b3608de7fe7fbc0b,2022-06-29_02h18.42.606,Colour_Asymmetry_Pilot,2022.1.3,Win32,60.99420555,62bbe60bf3d75ef465d3e404,0,23,23,37,1,threefour,,,,,,,,,,,,,,,,,,,,,,,,,,,,,,,,,,,,,,,,,,,,,,,,,,,,,,,,,,,,,,,,,,,,,,,,,,,,,,,,,,,,,,,,,,,,,,,,,,,,,,,,,,,,,,,,,,,,,,,,,,,,,,,,,,,,,,,,,,,,,,,,,,,,,,,,
,,,,,,5e938e072a4ce9077f8157b9,62bbfb58b3608de7fe7fbc0b,2022-06-29_02h18.42.606,Colour_Asymmetry_Pilot,2022.1.3,Win32,60.99420555,62bbe60bf3d75ef465d3e404,0,24,24,103,1,fourthree,,,,,,,,,,,,,,,,,,,,,,,,,,,,,,,,,,,,,,,,,,,,,,,,,,,,,,,,,,,,,,,,,,,,,,,,,,,,,,,,,,,,,,,,,,,,,,,,,,,,,,,,,,,,,,,,,,,,,,,,,,,,,,,,,,,,,,,,,,,,,,,,,,,,,,,,
,,,,,,5e938e072a4ce9077f8157b9,62bbfb58b3608de7fe7fbc0b,2022-06-29_02h18.42.606,Colour_Asymmetry_Pilot,2022.1.3,Win32,60.99420555,62bbe60bf3d75ef465d3e404,0,25,25,122,1,twoone,,,,,,,,,,,,,,,,,,,,,,,,,,,,,,,,,,,,,,,,,,,,,,,,,,,,,,,,,,,,,,,,,,,,,,,,,,,,,,,,,,,,,,,,,,,,,,,,,,,,,,,,,,,,,,,,,,,,,,,,,,,,,,,,,,,,,,,,,,,,,,,,,,,,,,,,
,,,,,,5e938e072a4ce9077f8157b9,62bbfb58b3608de7fe7fbc0b,2022-06-29_02h18.42.606,Colour_Asymmetry_Pilot,2022.1.3,Win32,60.99420555,62bbe60bf3d75ef465d3e404,0,26,26,132,1,threeone,,,,,,,,,,,,,,,,,,,,,,,,,,,,,,,,,,,,,,,,,,,,,,,,,,,,,,,,,,,,,,,,,,,,,,,,,,,,,,,,,,,,,,,,,,,,,,,,,,,,,,,,,,,,,,,,,,,,,,,,,,,,,,,,,,,,,,,,,,,,,,,,,,,,,,,,
,,,,,,5e938e072a4ce9077f8157b9,62bbfb58b3608de7fe7fbc0b,2022-06-29_02h18.42.606,Colour_Asymmetry_Pilot,2022.1.3,Win32,60.99420555,62bbe60bf3d75ef465d3e404,0,27,27,67,1,twofour,,,,,,,,,,,,,,,,,,,,,,,,,,,,,,,,,,,,,,,,,,,,,,,,,,,,,,,,,,,,,,,,,,,,,,,,,,,,,,,,,,,,,,,,,,,,,,,,,,,,,,,,,,,,,,,,,,,,,,,,,,,,,,,,,,,,,,,,,,,,,,,,,,,,,,,,
,,,,,,5e938e072a4ce9077f8157b9,62bbfb58b3608de7fe7fbc0b,2022-06-29_02h18.42.606,Colour_Asymmetry_Pilot,2022.1.3,Win32,60.99420555,62bbe60bf3d75ef465d3e404,0,28,28,86,1,fourtwo,,,,,,,,,,,,,,,,,,,,,,,,,,,,,,,,,,,,,,,,,,,,,,,,,,,,,,,,,,,,,,,,,,,,,,,,,,,,,,,,,,,,,,,,,,,,,,,,,,,,,,,,,,,,,,,,,,,,,,,,,,,,,,,,,,,,,,,,,,,,,,,,,,,,,,,,
,,,,,,5e938e072a4ce9077f8157b9,62bbfb58b3608de7fe7fbc0b,2022-06-29_02h18.42.606,Colour_Asymmetry_Pilot,2022.1.3,Win32,60.99420555,62bbe60bf3d75ef465d3e404,0,29,29,11,1,twofour,,,,,,,,,,,,,,,,,,,,,,,,,,,,,,,,,,,,,,,,,,,,,,,,,,,,,,,,,,,,,,,,,,,,,,,,,,,,,,,,,,,,,,,,,,,,,,,,,,,,,,,,,,,,,,,,,,,,,,,,,,,,,,,,,,,,,,,,,,,,,,,,,,,,,,,,
,,,,,,5e938e072a4ce9077f8157b9,62bbfb58b3608de7fe7fbc0b,2022-06-29_02h18.42.606,Colour_Asymmetry_Pilot,2022.1.3,Win32,60.99420555,62bbe60bf3d75ef465d3e404,0,30,30,41,1,onethree,,,,,,,,,,,,,,,,,,,,,,,,,,,,,,,,,,,,,,,,,,,,,,,,,,,,,,,,,,,,,,,,,,,,,,,,,,,,,,,,,,,,,,,,,,,,,,,,,,,,,,,,,,,,,,,,,,,,,,,,,,,,,,,,,,,,,,,,,,,,,,,,,,,,,,,,
,,,,,,5e938e072a4ce9077f8157b9,62bbfb58b3608de7fe7fbc0b,2022-06-29_02h18.42.606,Colour_Asymmetry_Pilot,2022.1.3,Win32,60.99420555,62bbe60bf3d75ef465d3e404,0,31,31,62,1,fourtwo,,,,,,,,,,,,,,,,,,,,,,,,,,,,,,,,,,,,,,,,,,,,,,,,,,,,,,,,,,,,,,,,,,,,,,,,,,,,,,,,,,,,,,,,,,,,,,,,,,,,,,,,,,,,,,,,,,,,,,,,,,,,,,,,,,,,,,,,,,,,,,,,,,,,,,,,
,,,,,,5e938e072a4ce9077f8157b9,62bbfb58b3608de7fe7fbc0b,2022-06-29_02h18.42.606,Colour_Asymmetry_Pilot,2022.1.3,Win32,60.99420555,62bbe60bf3d75ef465d3e404,0,32,32,3,1,twofour,,,,,,,,,,,,,,,,,,,,,,,,,,,,,,,,,,,,,,,,,,,,,,,,,,,,,,,,,,,,,,,,,,,,,,,,,,,,,,,,,,,,,,,,,,,,,,,,,,,,,,,,,,,,,,,,,,,,,,,,,,,,,,,,,,,,,,,,,,,,,,,,,,,,,,,,
,,,,,,5e938e072a4ce9077f8157b9,62bbfb58b3608de7fe7fbc0b,2022-06-29_02h18.42.606,Colour_Asymmetry_Pilot,2022.1.3,Win32,60.99420555,62bbe60bf3d75ef465d3e404,0,33,33,143,1,fourthree,,,,,,,,,,,,,,,,,,,,,,,,,,,,,,,,,,,,,,,,,,,,,,,,,,,,,,,,,,,,,,,,,,,,,,,,,,,,,,,,,,,,,,,,,,,,,,,,,,,,,,,,,,,,,,,,,,,,,,,,,,,,,,,,,,,,,,,,,,,,,,,,,,,,,,,,
,,,,,,5e938e072a4ce9077f8157b9,62bbfb58b3608de7fe7fbc0b,2022-06-29_02h18.42.606,Colour_Asymmetry_Pilot,2022.1.3,Win32,60.99420555,62bbe60bf3d75ef465d3e404,0,34,34,48,1,onetwo,,,,,,,,,,,,,,,,,,,,,,,,,,,,,,,,,,,,,,,,,,,,,,,,,,,,,,,,,,,,,,,,,,,,,,,,,,,,,,,,,,,,,,,,,,,,,,,,,,,,,,,,,,,,,,,,,,,,,,,,,,,,,,,,,,,,,,,,,,,,,,,,,,,,,,,,
,,,,,,5e938e072a4ce9077f8157b9,62bbfb58b3608de7fe7fbc0b,2022-06-29_02h18.42.606,Colour_Asymmetry_Pilot,2022.1.3,Win32,60.99420555,62bbe60bf3d75ef465d3e404,0,35,35,152,1,onetwo,,,,,,,,,,,,,,,,,,,,,,,,,,,,,,,,,,,,,,,,,,,,,,,,,,,,,,,,,,,,,,,,,,,,,,,,,,,,,,,,,,,,,,,,,,,,,,,,,,,,,,,,,,,,,,,,,,,,,,,,,,,,,,,,,,,,,,,,,,,,,,,,,,,,,,,,
,,,,,,5e938e072a4ce9077f8157b9,62bbfb58b3608de7fe7fbc0b,2022-06-29_02h18.42.606,Colour_Asymmetry_Pilot,2022.1.3,Win32,60.99420555,62bbe60bf3d75ef465d3e404,0,36,36,61,1,threefour,,,,,,,,,,,,,,,,,,,,,,,,,,,,,,,,,,,,,,,,,,,,,,,,,,,,,,,,,,,,,,,,,,,,,,,,,,,,,,,,,,,,,,,,,,,,,,,,,,,,,,,,,,,,,,,,,,,,,,,,,,,,,,,,,,,,,,,,,,,,,,,,,,,,,,,,
,,,,,,5e938e072a4ce9077f8157b9,62bbfb58b3608de7fe7fbc0b,2022-06-29_02h18.42.606,Colour_Asymmetry_Pilot,2022.1.3,Win32,60.99420555,62bbe60bf3d75ef465d3e404,0,37,37,130,1,twoone,,,,,,,,,,,,,,,,,,,,,,,,,,,,,,,,,,,,,,,,,,,,,,,,,,,,,,,,,,,,,,,,,,,,,,,,,,,,,,,,,,,,,,,,,,,,,,,,,,,,,,,,,,,,,,,,,,,,,,,,,,,,,,,,,,,,,,,,,,,,,,,,,,,,,,,,
,,,,,,5e938e072a4ce9077f8157b9,62bbfb58b3608de7fe7fbc0b,2022-06-29_02h18.42.606,Colour_Asymmetry_Pilot,2022.1.3,Win32,60.99420555,62bbe60bf3d75ef465d3e404,0,38,38,49,1,onethree,,,,,,,,,,,,,,,,,,,,,,,,,,,,,,,,,,,,,,,,,,,,,,,,,,,,,,,,,,,,,,,,,,,,,,,,,,,,,,,,,,,,,,,,,,,,,,,,,,,,,,,,,,,,,,,,,,,,,,,,,,,,,,,,,,,,,,,,,,,,,,,,,,,,,,,,
,,,,,,5e938e072a4ce9077f8157b9,62bbfb58b3608de7fe7fbc0b,2022-06-29_02h18.42.606,Colour_Asymmetry_Pilot,2022.1.3,Win32,60.99420555,62bbe60bf3d75ef465d3e404,0,39,39,97,1,onethree,,,,,,,,,,,,,,,,,,,,,,,,,,,,,,,,,,,,,,,,,,,,,,,,,,,,,,,,,,,,,,,,,,,,,,,,,,,,,,,,,,,,,,,,,,,,,,,,,,,,,,,,,,,,,,,,,,,,,,,,,,,,,,,,,,,,,,,,,,,,,,,,,,,,,,,,
,,,,,,5e938e072a4ce9077f8157b9,62bbfb58b3608de7fe7fbc0b,2022-06-29_02h18.42.606,Colour_Asymmetry_Pilot,2022.1.3,Win32,60.99420555,62bbe60bf3d75ef465d3e404,0,40,40,115,1,twofour,,,,,,,,,,,,,,,,,,,,,,,,,,,,,,,,,,,,,,,,,,,,,,,,,,,,,,,,,,,,,,,,,,,,,,,,,,,,,,,,,,,,,,,,,,,,,,,,,,,,,,,,,,,,,,,,,,,,,,,,,,,,,,,,,,,,,,,,,,,,,,,,,,,,,,,,
,,,,,,5e938e072a4ce9077f8157b9,62bbfb58b3608de7fe7fbc0b,2022-06-29_02h18.42.606,Colour_Asymmetry_Pilot,2022.1.3,Win32,60.99420555,62bbe60bf3d75ef465d3e404,0,41,41,139,1,twofour,,,,,,,,,,,,,,,,,,,,,,,,,,,,,,,,,,,,,,,,,,,,,,,,,,,,,,,,,,,,,,,,,,,,,,,,,,,,,,,,,,,,,,,,,,,,,,,,,,,,,,,,,,,,,,,,,,,,,,,,,,,,,,,,,,,,,,,,,,,,,,,,,,,,,,,,
,,,,,,5e938e072a4ce9077f8157b9,62bbfb58b3608de7fe7fbc0b,2022-06-29_02h18.42.606,Colour_Asymmetry_Pilot,2022.1.3,Win32,60.99420555,62bbe60bf3d75ef465d3e404,0,42,42,25,1,onethree,,,,,,,,,,,,,,,,,,,,,,,,,,,,,,,,,,,,,,,,,,,,,,,,,,,,,,,,,,,,,,,,,,,,,,,,,,,,,,,,,,,,,,,,,,,,,,,,,,,,,,,,,,,,,,,,,,,,,,,,,,,,,,,,,,,,,,,,,,,,,,,,,,,,,,,,
,,,,,,5e938e072a4ce9077f8157b9,62bbfb58b3608de7fe7fbc0b,2022-06-29_02h18.42.606,Colour_Asymmetry_Pilot,2022.1.3,Win32,60.99420555,62bbe60bf3d75ef465d3e404,0,43,43,133,1,threefour,,,,,,,,,,,,,,,,,,,,,,,,,,,,,,,,,,,,,,,,,,,,,,,,,,,,,,,,,,,,,,,,,,,,,,,,,,,,,,,,,,,,,,,,,,,,,,,,,,,,,,,,,,,,,,,,,,,,,,,,,,,,,,,,,,,,,,,,,,,,,,,,,,,,,,,,
,,,,,,5e938e072a4ce9077f8157b9,62bbfb58b3608de7fe7fbc0b,2022-06-29_02h18.42.606,Colour_Asymmetry_Pilot,2022.1.3,Win32,60.99420555,62bbe60bf3d75ef465d3e404,0,44,44,77,1,threefour,,,,,,,,,,,,,,,,,,,,,,,,,,,,,,,,,,,,,,,,,,,,,,,,,,,,,,,,,,,,,,,,,,,,,,,,,,,,,,,,,,,,,,,,,,,,,,,,,,,,,,,,,,,,,,,,,,,,,,,,,,,,,,,,,,,,,,,,,,,,,,,,,,,,,,,,
,,,,,,5e938e072a4ce9077f8157b9,62bbfb58b3608de7fe7fbc0b,2022-06-29_02h18.42.606,Colour_Asymmetry_Pilot,2022.1.3,Win32,60.99420555,62bbe60bf3d75ef465d3e404,0,45,45,21,1,threefour,,,,,,,,,,,,,,,,,,,,,,,,,,,,,,,,,,,,,,,,,,,,,,,,,,,,,,,,,,,,,,,,,,,,,,,,,,,,,,,,,,,,,,,,,,,,,,,,,,,,,,,,,,,,,,,,,,,,,,,,,,,,,,,,,,,,,,,,,,,,,,,,,,,,,,,,
,,,,,,5e938e072a4ce9077f8157b9,62bbfb58b3608de7fe7fbc0b,2022-06-29_02h18.42.606,Colour_Asymmetry_Pilot,2022.1.3,Win32,60.99420555,62bbe60bf3d75ef465d3e404,0,46,46,12,1,threeone,,,,,,,,,,,,,,,,,,,,,,,,,,,,,,,,,,,,,,,,,,,,,,,,,,,,,,,,,,,,,,,,,,,,,,,,,,,,,,,,,,,,,,,,,,,,,,,,,,,,,,,,,,,,,,,,,,,,,,,,,,,,,,,,,,,,,,,,,,,,,,,,,,,,,,,,
,,,,,,5e938e072a4ce9077f8157b9,62bbfb58b3608de7fe7fbc0b,2022-06-29_02h18.42.606,Colour_Asymmetry_Pilot,2022.1.3,Win32,60.99420555,62bbe60bf3d75ef465d3e404,0,47,47,73,1,onethree,,,,,,,,,,,,,,,,,,,,,,,,,,,,,,,,,,,,,,,,,,,,,,,,,,,,,,,,,,,,,,,,,,,,,,,,,,,,,,,,,,,,,,,,,,,,,,,,,,,,,,,,,,,,,,,,,,,,,,,,,,,,,,,,,,,,,,,,,,,,,,,,,,,,,,,,
,,,,,,5e938e072a4ce9077f8157b9,62bbfb58b3608de7fe7fbc0b,2022-06-29_02h18.42.606,Colour_Asymmetry_Pilot,2022.1.3,Win32,60.99420555,62bbe60bf3d75ef465d3e404,0,48,48,140,1,threeone,,,,,,,,,,,,,,,,,,,,,,,,,,,,,,,,,,,,,,,,,,,,,,,,,,,,,,,,,,,,,,,,,,,,,,,,,,,,,,,,,,,,,,,,,,,,,,,,,,,,,,,,,,,,,,,,,,,,,,,,,,,,,,,,,,,,,,,,,,,,,,,,,,,,,,,,
,,,,,,5e938e072a4ce9077f8157b9,62bbfb58b3608de7fe7fbc0b,2022-06-29_02h18.42.606,Colour_Asymmetry_Pilot,2022.1.3,Win32,60.99420555,62bbe60bf3d75ef465d3e404,0,49,49,87,1,fourthree,,,,,,,,,,,,,,,,,,,,,,,,,,,,,,,,,,,,,,,,,,,,,,,,,,,,,,,,,,,,,,,,,,,,,,,,,,,,,,,,,,,,,,,,,,,,,,,,,,,,,,,,,,,,,,,,,,,,,,,,,,,,,,,,,,,,,,,,,,,,,,,,,,,,,,,,
,,,,,,5e938e072a4ce9077f8157b9,62bbfb58b3608de7fe7fbc0b,2022-06-29_02h18.42.606,Colour_Asymmetry_Pilot,2022.1.3,Win32,60.99420555,62bbe60bf3d75ef465d3e404,0,50,50,141,1,threefour,,,,,,,,,,,,,,,,,,,,,,,,,,,,,,,,,,,,,,,,,,,,,,,,,,,,,,,,,,,,,,,,,,,,,,,,,,,,,,,,,,,,,,,,,,,,,,,,,,,,,,,,,,,,,,,,,,,,,,,,,,,,,,,,,,,,,,,,,,,,,,,,,,,,,,,,
,,,,,,5e938e072a4ce9077f8157b9,62bbfb58b3608de7fe7fbc0b,2022-06-29_02h18.42.606,Colour_Asymmetry_Pilot,2022.1.3,Win32,60.99420555,62bbe60bf3d75ef465d3e404,0,51,51,27,1,twofour,,,,,,,,,,,,,,,,,,,,,,,,,,,,,,,,,,,,,,,,,,,,,,,,,,,,,,,,,,,,,,,,,,,,,,,,,,,,,,,,,,,,,,,,,,,,,,,,,,,,,,,,,,,,,,,,,,,,,,,,,,,,,,,,,,,,,,,,,,,,,,,,,,,,,,,,
,,,,,,5e938e072a4ce9077f8157b9,62bbfb58b3608de7fe7fbc0b,2022-06-29_02h18.42.606,Colour_Asymmetry_Pilot,2022.1.3,Win32,60.99420555,62bbe60bf3d75ef465d3e404,0,52,52,1,1,onethree,,,,,,,,,,,,,,,,,,,,,,,,,,,,,,,,,,,,,,,,,,,,,,,,,,,,,,,,,,,,,,,,,,,,,,,,,,,,,,,,,,,,,,,,,,,,,,,,,,,,,,,,,,,,,,,,,,,,,,,,,,,,,,,,,,,,,,,,,,,,,,,,,,,,,,,,
,,,,,,5e938e072a4ce9077f8157b9,62bbfb58b3608de7fe7fbc0b,2022-06-29_02h18.42.606,Colour_Asymmetry_Pilot,2022.1.3,Win32,60.99420555,62bbe60bf3d75ef465d3e404,0,53,53,126,1,fourtwo,,,,,,,,,,,,,,,,,,,,,,,,,,,,,,,,,,,,,,,,,,,,,,,,,,,,,,,,,,,,,,,,,,,,,,,,,,,,,,,,,,,,,,,,,,,,,,,,,,,,,,,,,,,,,,,,,,,,,,,,,,,,,,,,,,,,,,,,,,,,,,,,,,,,,,,,
,,,,,,5e938e072a4ce9077f8157b9,62bbfb58b3608de7fe7fbc0b,2022-06-29_02h18.42.606,Colour_Asymmetry_Pilot,2022.1.3,Win32,60.99420555,62bbe60bf3d75ef465d3e404,0,54,54,50,1,twoone,,,,,,,,,,,,,,,,,,,,,,,,,,,,,,,,,,,,,,,,,,,,,,,,,,,,,,,,,,,,,,,,,,,,,,,,,,,,,,,,,,,,,,,,,,,,,,,,,,,,,,,,,,,,,,,,,,,,,,,,,,,,,,,,,,,,,,,,,,,,,,,,,,,,,,,,
,,,,,,5e938e072a4ce9077f8157b9,62bbfb58b3608de7fe7fbc0b,2022-06-29_02h18.42.606,Colour_Asymmetry_Pilot,2022.1.3,Win32,60.99420555,62bbe60bf3d75ef465d3e404,0,55,55,151,1,fourthree,,,,,,,,,,,,,,,,,,,,,,,,,,,,,,,,,,,,,,,,,,,,,,,,,,,,,,,,,,,,,,,,,,,,,,,,,,,,,,,,,,,,,,,,,,,,,,,,,,,,,,,,,,,,,,,,,,,,,,,,,,,,,,,,,,,,,,,,,,,,,,,,,,,,,,,,
,,,,,,5e938e072a4ce9077f8157b9,62bbfb58b3608de7fe7fbc0b,2022-06-29_02h18.42.606,Colour_Asymmetry_Pilot,2022.1.3,Win32,60.99420555,62bbe60bf3d75ef465d3e404,0,56,56,157,1,threefour,,,,,,,,,,,,,,,,,,,,,,,,,,,,,,,,,,,,,,,,,,,,,,,,,,,,,,,,,,,,,,,,,,,,,,,,,,,,,,,,,,,,,,,,,,,,,,,,,,,,,,,,,,,,,,,,,,,,,,,,,,,,,,,,,,,,,,,,,,,,,,,,,,,,,,,,
,,,,,,5e938e072a4ce9077f8157b9,62bbfb58b3608de7fe7fbc0b,2022-06-29_02h18.42.606,Colour_Asymmetry_Pilot,2022.1.3,Win32,60.99420555,62bbe60bf3d75ef465d3e404,0,57,57,9,1,onethree,,,,,,,,,,,,,,,,,,,,,,,,,,,,,,,,,,,,,,,,,,,,,,,,,,,,,,,,,,,,,,,,,,,,,,,,,,,,,,,,,,,,,,,,,,,,,,,,,,,,,,,,,,,,,,,,,,,,,,,,,,,,,,,,,,,,,,,,,,,,,,,,,,,,,,,,
,,,,,,5e938e072a4ce9077f8157b9,62bbfb58b3608de7fe7fbc0b,2022-06-29_02h18.42.606,Colour_Asymmetry_Pilot,2022.1.3,Win32,60.99420555,62bbe60bf3d75ef465d3e404,0,58,58,70,1,fourtwo,,,,,,,,,,,,,,,,,,,,,,,,,,,,,,,,,,,,,,,,,,,,,,,,,,,,,,,,,,,,,,,,,,,,,,,,,,,,,,,,,,,,,,,,,,,,,,,,,,,,,,,,,,,,,,,,,,,,,,,,,,,,,,,,,,,,,,,,,,,,,,,,,,,,,,,,
,,,,,,5e938e072a4ce9077f8157b9,62bbfb58b3608de7fe7fbc0b,2022-06-29_02h18.42.606,Colour_Asymmetry_Pilot,2022.1.3,Win32,60.99420555,62bbe60bf3d75ef465d3e404,0,59,59,43,1,twofour,,,,,,,,,,,,,,,,,,,,,,,,,,,,,,,,,,,,,,,,,,,,,,,,,,,,,,,,,,,,,,,,,,,,,,,,,,,,,,,,,,,,,,,,,,,,,,,,,,,,,,,,,,,,,,,,,,,,,,,,,,,,,,,,,,,,,,,,,,,,,,,,,,,,,,,,
,,,,,,5e938e072a4ce9077f8157b9,62bbfb58b3608de7fe7fbc0b,2022-06-29_02h18.42.606,Colour_Asymmetry_Pilot,2022.1.3,Win32,60.99420555,62bbe60bf3d75ef465d3e404,0,60,60,78,1,fourtwo,,,,,,,,,,,,,,,,,,,,,,,,,,,,,,,,,,,,,,,,,,,,,,,,,,,,,,,,,,,,,,,,,,,,,,,,,,,,,,,,,,,,,,,,,,,,,,,,,,,,,,,,,,,,,,,,,,,,,,,,,,,,,,,,,,,,,,,,,,,,,,,,,,,,,,,,
,,,,,,5e938e072a4ce9077f8157b9,62bbfb58b3608de7fe7fbc0b,2022-06-29_02h18.42.606,Colour_Asymmetry_Pilot,2022.1.3,Win32,60.99420555,62bbe60bf3d75ef465d3e404,0,61,61,8,1,onetwo,,,,,,,,,,,,,,,,,,,,,,,,,,,,,,,,,,,,,,,,,,,,,,,,,,,,,,,,,,,,,,,,,,,,,,,,,,,,,,,,,,,,,,,,,,,,,,,,,,,,,,,,,,,,,,,,,,,,,,,,,,,,,,,,,,,,,,,,,,,,,,,,,,,,,,,,
,,,,,,5e938e072a4ce9077f8157b9,62bbfb58b3608de7fe7fbc0b,2022-06-29_02h18.42.606,Colour_Asymmetry_Pilot,2022.1.3,Win32,60.99420555,62bbe60bf3d75ef465d3e404,0,62,62,42,1,twoone,,,,,,,,,,,,,,,,,,,,,,,,,,,,,,,,,,,,,,,,,,,,,,,,,,,,,,,,,,,,,,,,,,,,,,,,,,,,,,,,,,,,,,,,,,,,,,,,,,,,,,,,,,,,,,,,,,,,,,,,,,,,,,,,,,,,,,,,,,,,,,,,,,,,,,,,
,,,,,,5e938e072a4ce9077f8157b9,62bbfb58b3608de7fe7fbc0b,2022-06-29_02h18.42.606,Colour_Asymmetry_Pilot,2022.1.3,Win32,60.99420555,62bbe60bf3d75ef465d3e404,0,63,63,81,1,onethree,,,,,,,,,,,,,,,,,,,,,,,,,,,,,,,,,,,,,,,,,,,,,,,,,,,,,,,,,,,,,,,,,,,,,,,,,,,,,,,,,,,,,,,,,,,,,,,,,,,,,,,,,,,,,,,,,,,,,,,,,,,,,,,,,,,,,,,,,,,,,,,,,,,,,,,,
,,,,,,5e938e072a4ce9077f8157b9,62bbfb58b3608de7fe7fbc0b,2022-06-29_02h18.42.606,Colour_Asymmetry_Pilot,2022.1.3,Win32,60.99420555,62bbe60bf3d75ef465d3e404,0,64,64,155,1,twofour,,,,,,,,,,,,,,,,,,,,,,,,,,,,,,,,,,,,,,,,,,,,,,,,,,,,,,,,,,,,,,,,,,,,,,,,,,,,,,,,,,,,,,,,,,,,,,,,,,,,,,,,,,,,,,,,,,,,,,,,,,,,,,,,,,,,,,,,,,,,,,,,,,,,,,,,
,,,,,,5e938e072a4ce9077f8157b9,62bbfb58b3608de7fe7fbc0b,2022-06-29_02h18.42.606,Colour_Asymmetry_Pilot,2022.1.3,Win32,60.99420555,62bbe60bf3d75ef465d3e404,0,65,65,20,1,threeone,,,,,,,,,,,,,,,,,,,,,,,,,,,,,,,,,,,,,,,,,,,,,,,,,,,,,,,,,,,,,,,,,,,,,,,,,,,,,,,,,,,,,,,,,,,,,,,,,,,,,,,,,,,,,,,,,,,,,,,,,,,,,,,,,,,,,,,,,,,,,,,,,,,,,,,,
,,,,,,5e938e072a4ce9077f8157b9,62bbfb58b3608de7fe7fbc0b,2022-06-29_02h18.42.606,Colour_Asymmetry_Pilot,2022.1.3,Win32,60.99420555,62bbe60bf3d75ef465d3e404,0,66,66,55,1,fourthree,,,,,,,,,,,,,,,,,,,,,,,,,,,,,,,,,,,,,,,,,,,,,,,,,,,,,,,,,,,,,,,,,,,,,,,,,,,,,,,,,,,,,,,,,,,,,,,,,,,,,,,,,,,,,,,,,,,,,,,,,,,,,,,,,,,,,,,,,,,,,,,,,,,,,,,,
,,,,,,5e938e072a4ce9077f8157b9,62bbfb58b3608de7fe7fbc0b,2022-06-29_02h18.42.606,Colour_Asymmetry_Pilot,2022.1.3,Win32,60.99420555,62bbe60bf3d75ef465d3e404,0,67,67,127,1,fourthree,,,,,,,,,,,,,,,,,,,,,,,,,,,,,,,,,,,,,,,,,,,,,,,,,,,,,,,,,,,,,,,,,,,,,,,,,,,,,,,,,,,,,,,,,,,,,,,,,,,,,,,,,,,,,,,,,,,,,,,,,,,,,,,,,,,,,,,,,,,,,,,,,,,,,,,,
,,,,,,5e938e072a4ce9077f8157b9,62bbfb58b3608de7fe7fbc0b,2022-06-29_02h18.42.606,Colour_Asymmetry_Pilot,2022.1.3,Win32,60.99420555,62bbe60bf3d75ef465d3e404,0,68,68,0,1,onetwo,,,,,,,,,,,,,,,,,,,,,,,,,,,,,,,,,,,,,,,,,,,,,,,,,,,,,,,,,,,,,,,,,,,,,,,,,,,,,,,,,,,,,,,,,,,,,,,,,,,,,,,,,,,,,,,,,,,,,,,,,,,,,,,,,,,,,,,,,,,,,,,,,,,,,,,,
,,,,,,5e938e072a4ce9077f8157b9,62bbfb58b3608de7fe7fbc0b,2022-06-29_02h18.42.606,Colour_Asymmetry_Pilot,2022.1.3,Win32,60.99420555,62bbe60bf3d75ef465d3e404,0,69,69,85,1,threefour,,,,,,,,,,,,,,,,,,,,,,,,,,,,,,,,,,,,,,,,,,,,,,,,,,,,,,,,,,,,,,,,,,,,,,,,,,,,,,,,,,,,,,,,,,,,,,,,,,,,,,,,,,,,,,,,,,,,,,,,,,,,,,,,,,,,,,,,,,,,,,,,,,,,,,,,
,,,,,,5e938e072a4ce9077f8157b9,62bbfb58b3608de7fe7fbc0b,2022-06-29_02h18.42.606,Colour_Asymmetry_Pilot,2022.1.3,Win32,60.99420555,62bbe60bf3d75ef465d3e404,0,70,70,135,1,fourthree,,,,,,,,,,,,,,,,,,,,,,,,,,,,,,,,,,,,,,,,,,,,,,,,,,,,,,,,,,,,,,,,,,,,,,,,,,,,,,,,,,,,,,,,,,,,,,,,,,,,,,,,,,,,,,,,,,,,,,,,,,,,,,,,,,,,,,,,,,,,,,,,,,,,,,,,
,,,,,,5e938e072a4ce9077f8157b9,62bbfb58b3608de7fe7fbc0b,2022-06-29_02h18.42.606,Colour_Asymmetry_Pilot,2022.1.3,Win32,60.99420555,62bbe60bf3d75ef465d3e404,0,71,71,137,1,onethree,,,,,,,,,,,,,,,,,,,,,,,,,,,,,,,,,,,,,,,,,,,,,,,,,,,,,,,,,,,,,,,,,,,,,,,,,,,,,,,,,,,,,,,,,,,,,,,,,,,,,,,,,,,,,,,,,,,,,,,,,,,,,,,,,,,,,,,,,,,,,,,,,,,,,,,,
,,,,,,5e938e072a4ce9077f8157b9,62bbfb58b3608de7fe7fbc0b,2022-06-29_02h18.42.606,Colour_Asymmetry_Pilot,2022.1.3,Win32,60.99420555,62bbe60bf3d75ef465d3e404,0,72,72,114,1,twoone,,,,,,,,,,,,,,,,,,,,,,,,,,,,,,,,,,,,,,,,,,,,,,,,,,,,,,,,,,,,,,,,,,,,,,,,,,,,,,,,,,,,,,,,,,,,,,,,,,,,,,,,,,,,,,,,,,,,,,,,,,,,,,,,,,,,,,,,,,,,,,,,,,,,,,,,
,,,,,,5e938e072a4ce9077f8157b9,62bbfb58b3608de7fe7fbc0b,2022-06-29_02h18.42.606,Colour_Asymmetry_Pilot,2022.1.3,Win32,60.99420555,62bbe60bf3d75ef465d3e404,0,73,73,128,1,onetwo,,,,,,,,,,,,,,,,,,,,,,,,,,,,,,,,,,,,,,,,,,,,,,,,,,,,,,,,,,,,,,,,,,,,,,,,,,,,,,,,,,,,,,,,,,,,,,,,,,,,,,,,,,,,,,,,,,,,,,,,,,,,,,,,,,,,,,,,,,,,,,,,,,,,,,,,
,,,,,,5e938e072a4ce9077f8157b9,62bbfb58b3608de7fe7fbc0b,2022-06-29_02h18.42.606,Colour_Asymmetry_Pilot,2022.1.3,Win32,60.99420555,62bbe60bf3d75ef465d3e404,0,74,74,146,1,twoone,,,,,,,,,,,,,,,,,,,,,,,,,,,,,,,,,,,,,,,,,,,,,,,,,,,,,,,,,,,,,,,,,,,,,,,,,,,,,,,,,,,,,,,,,,,,,,,,,,,,,,,,,,,,,,,,,,,,,,,,,,,,,,,,,,,,,,,,,,,,,,,,,,,,,,,,
,,,,,,5e938e072a4ce9077f8157b9,62bbfb58b3608de7fe7fbc0b,2022-06-29_02h18.42.606,Colour_Asymmetry_Pilot,2022.1.3,Win32,60.99420555,62bbe60bf3d75ef465d3e404,0,75,75,59,1,twofour,,,,,,,,,,,,,,,,,,,,,,,,,,,,,,,,,,,,,,,,,,,,,,,,,,,,,,,,,,,,,,,,,,,,,,,,,,,,,,,,,,,,,,,,,,,,,,,,,,,,,,,,,,,,,,,,,,,,,,,,,,,,,,,,,,,,,,,,,,,,,,,,,,,,,,,,
,,,,,,5e938e072a4ce9077f8157b9,62bbfb58b3608de7fe7fbc0b,2022-06-29_02h18.42.606,Colour_Asymmetry_Pilot,2022.1.3,Win32,60.99420555,62bbe60bf3d75ef465d3e404,0,76,76,121,1,onethree,,,,,,,,,,,,,,,,,,,,,,,,,,,,,,,,,,,,,,,,,,,,,,,,,,,,,,,,,,,,,,,,,,,,,,,,,,,,,,,,,,,,,,,,,,,,,,,,,,,,,,,,,,,,,,,,,,,,,,,,,,,,,,,,,,,,,,,,,,,,,,,,,,,,,,,,
,,,,,,5e938e072a4ce9077f8157b9,62bbfb58b3608de7fe7fbc0b,2022-06-29_02h18.42.606,Colour_Asymmetry_Pilot,2022.1.3,Win32,60.99420555,62bbe60bf3d75ef465d3e404,0,77,77,156,1,threeone,,,,,,,,,,,,,,,,,,,,,,,,,,,,,,,,,,,,,,,,,,,,,,,,,,,,,,,,,,,,,,,,,,,,,,,,,,,,,,,,,,,,,,,,,,,,,,,,,,,,,,,,,,,,,,,,,,,,,,,,,,,,,,,,,,,,,,,,,,,,,,,,,,,,,,,,
,,,,,,5e938e072a4ce9077f8157b9,62bbfb58b3608de7fe7fbc0b,2022-06-29_02h18.42.606,Colour_Asymmetry_Pilot,2022.1.3,Win32,60.99420555,62bbe60bf3d75ef465d3e404,0,78,78,33,1,onethree,,,,,,,,,,,,,,,,,,,,,,,,,,,,,,,,,,,,,,,,,,,,,,,,,,,,,,,,,,,,,,,,,,,,,,,,,,,,,,,,,,,,,,,,,,,,,,,,,,,,,,,,,,,,,,,,,,,,,,,,,,,,,,,,,,,,,,,,,,,,,,,,,,,,,,,,
,,,,,,5e938e072a4ce9077f8157b9,62bbfb58b3608de7fe7fbc0b,2022-06-29_02h18.42.606,Colour_Asymmetry_Pilot,2022.1.3,Win32,60.99420555,62bbe60bf3d75ef465d3e404,0,79,79,118,1,fourtwo,,,,,,,,,,,,,,,,,,,,,,,,,,,,,,,,,,,,,,,,,,,,,,,,,,,,,,,,,,,,,,,,,,,,,,,,,,,,,,,,,,,,,,,,,,,,,,,,,,,,,,,,,,,,,,,,,,,,,,,,,,,,,,,,,,,,,,,,,,,,,,,,,,,,,,,,
,,,,,,5e938e072a4ce9077f8157b9,62bbfb58b3608de7fe7fbc0b,2022-06-29_02h18.42.606,Colour_Asymmetry_Pilot,2022.1.3,Win32,60.99420555,62bbe60bf3d75ef465d3e404,0,80,80,89,1,onethree,,,,,,,,,,,,,,,,,,,,,,,,,,,,,,,,,,,,,,,,,,,,,,,,,,,,,,,,,,,,,,,,,,,,,,,,,,,,,,,,,,,,,,,,,,,,,,,,,,,,,,,,,,,,,,,,,,,,,,,,,,,,,,,,,,,,,,,,,,,,,,,,,,,,,,,,
,,,,,,5e938e072a4ce9077f8157b9,62bbfb58b3608de7fe7fbc0b,2022-06-29_02h18.42.606,Colour_Asymmetry_Pilot,2022.1.3,Win32,60.99420555,62bbe60bf3d75ef465d3e404,0,81,81,144,1,onetwo,,,,,,,,,,,,,,,,,,,,,,,,,,,,,,,,,,,,,,,,,,,,,,,,,,,,,,,,,,,,,,,,,,,,,,,,,,,,,,,,,,,,,,,,,,,,,,,,,,,,,,,,,,,,,,,,,,,,,,,,,,,,,,,,,,,,,,,,,,,,,,,,,,,,,,,,
,,,,,,5e938e072a4ce9077f8157b9,62bbfb58b3608de7fe7fbc0b,2022-06-29_02h18.42.606,Colour_Asymmetry_Pilot,2022.1.3,Win32,60.99420555,62bbe60bf3d75ef465d3e404,0,82,82,46,1,fourtwo,,,,,,,,,,,,,,,,,,,,,,,,,,,,,,,,,,,,,,,,,,,,,,,,,,,,,,,,,,,,,,,,,,,,,,,,,,,,,,,,,,,,,,,,,,,,,,,,,,,,,,,,,,,,,,,,,,,,,,,,,,,,,,,,,,,,,,,,,,,,,,,,,,,,,,,,
,,,,,,5e938e072a4ce9077f8157b9,62bbfb58b3608de7fe7fbc0b,2022-06-29_02h18.42.606,Colour_Asymmetry_Pilot,2022.1.3,Win32,60.99420555,62bbe60bf3d75ef465d3e404,0,83,83,54,1,fourtwo,,,,,,,,,,,,,,,,,,,,,,,,,,,,,,,,,,,,,,,,,,,,,,,,,,,,,,,,,,,,,,,,,,,,,,,,,,,,,,,,,,,,,,,,,,,,,,,,,,,,,,,,,,,,,,,,,,,,,,,,,,,,,,,,,,,,,,,,,,,,,,,,,,,,,,,,
,,,,,,5e938e072a4ce9077f8157b9,62bbfb58b3608de7fe7fbc0b,2022-06-29_02h18.42.606,Colour_Asymmetry_Pilot,2022.1.3,Win32,60.99420555,62bbe60bf3d75ef465d3e404,0,84,84,134,1,fourtwo,,,,,,,,,,,,,,,,,,,,,,,,,,,,,,,,,,,,,,,,,,,,,,,,,,,,,,,,,,,,,,,,,,,,,,,,,,,,,,,,,,,,,,,,,,,,,,,,,,,,,,,,,,,,,,,,,,,,,,,,,,,,,,,,,,,,,,,,,,,,,,,,,,,,,,,,
,,,,,,5e938e072a4ce9077f8157b9,62bbfb58b3608de7fe7fbc0b,2022-06-29_02h18.42.606,Colour_Asymmetry_Pilot,2022.1.3,Win32,60.99420555,62bbe60bf3d75ef465d3e404,0,85,85,150,1,fourtwo,,,,,,,,,,,,,,,,,,,,,,,,,,,,,,,,,,,,,,,,,,,,,,,,,,,,,,,,,,,,,,,,,,,,,,,,,,,,,,,,,,,,,,,,,,,,,,,,,,,,,,,,,,,,,,,,,,,,,,,,,,,,,,,,,,,,,,,,,,,,,,,,,,,,,,,,
,,,,,,5e938e072a4ce9077f8157b9,62bbfb58b3608de7fe7fbc0b,2022-06-29_02h18.42.606,Colour_Asymmetry_Pilot,2022.1.3,Win32,60.99420555,62bbe60bf3d75ef465d3e404,0,86,86,92,1,threeone,,,,,,,,,,,,,,,,,,,,,,,,,,,,,,,,,,,,,,,,,,,,,,,,,,,,,,,,,,,,,,,,,,,,,,,,,,,,,,,,,,,,,,,,,,,,,,,,,,,,,,,,,,,,,,,,,,,,,,,,,,,,,,,,,,,,,,,,,,,,,,,,,,,,,,,,
,,,,,,5e938e072a4ce9077f8157b9,62bbfb58b3608de7fe7fbc0b,2022-06-29_02h18.42.606,Colour_Asymmetry_Pilot,2022.1.3,Win32,60.99420555,62bbe60bf3d75ef465d3e404,0,87,87,39,1,fourthree,,,,,,,,,,,,,,,,,,,,,,,,,,,,,,,,,,,,,,,,,,,,,,,,,,,,,,,,,,,,,,,,,,,,,,,,,,,,,,,,,,,,,,,,,,,,,,,,,,,,,,,,,,,,,,,,,,,,,,,,,,,,,,,,,,,,,,,,,,,,,,,,,,,,,,,,
,,,,,,5e938e072a4ce9077f8157b9,62bbfb58b3608de7fe7fbc0b,2022-06-29_02h18.42.606,Colour_Asymmetry_Pilot,2022.1.3,Win32,60.99420555,62bbe60bf3d75ef465d3e404,0,88,88,117,1,threefour,,,,,,,,,,,,,,,,,,,,,,,,,,,,,,,,,,,,,,,,,,,,,,,,,,,,,,,,,,,,,,,,,,,,,,,,,,,,,,,,,,,,,,,,,,,,,,,,,,,,,,,,,,,,,,,,,,,,,,,,,,,,,,,,,,,,,,,,,,,,,,,,,,,,,,,,
,,,,,,5e938e072a4ce9077f8157b9,62bbfb58b3608de7fe7fbc0b,2022-06-29_02h18.42.606,Colour_Asymmetry_Pilot,2022.1.3,Win32,60.99420555,62bbe60bf3d75ef465d3e404,0,89,89,149,1,threefour,,,,,,,,,,,,,,,,,,,,,,,,,,,,,,,,,,,,,,,,,,,,,,,,,,,,,,,,,,,,,,,,,,,,,,,,,,,,,,,,,,,,,,,,,,,,,,,,,,,,,,,,,,,,,,,,,,,,,,,,,,,,,,,,,,,,,,,,,,,,,,,,,,,,,,,,
,,,,,,5e938e072a4ce9077f8157b9,62bbfb58b3608de7fe7fbc0b,2022-06-29_02h18.42.606,Colour_Asymmetry_Pilot,2022.1.3,Win32,60.99420555,62bbe60bf3d75ef465d3e404,0,90,90,31,1,fourthree,,,,,,,,,,,,,,,,,,,,,,,,,,,,,,,,,,,,,,,,,,,,,,,,,,,,,,,,,,,,,,,,,,,,,,,,,,,,,,,,,,,,,,,,,,,,,,,,,,,,,,,,,,,,,,,,,,,,,,,,,,,,,,,,,,,,,,,,,,,,,,,,,,,,,,,,
,,,,,,5e938e072a4ce9077f8157b9,62bbfb58b3608de7fe7fbc0b,2022-06-29_02h18.42.606,Colour_Asymmetry_Pilot,2022.1.3,Win32,60.99420555,62bbe60bf3d75ef465d3e404,0,91,91,29,1,threefour,,,,,,,,,,,,,,,,,,,,,,,,,,,,,,,,,,,,,,,,,,,,,,,,,,,,,,,,,,,,,,,,,,,,,,,,,,,,,,,,,,,,,,,,,,,,,,,,,,,,,,,,,,,,,,,,,,,,,,,,,,,,,,,,,,,,,,,,,,,,,,,,,,,,,,,,
,,,,,,5e938e072a4ce9077f8157b9,62bbfb58b3608de7fe7fbc0b,2022-06-29_02h18.42.606,Colour_Asymmetry_Pilot,2022.1.3,Win32,60.99420555,62bbe60bf3d75ef465d3e404,0,92,92,74,1,twoone,,,,,,,,,,,,,,,,,,,,,,,,,,,,,,,,,,,,,,,,,,,,,,,,,,,,,,,,,,,,,,,,,,,,,,,,,,,,,,,,,,,,,,,,,,,,,,,,,,,,,,,,,,,,,,,,,,,,,,,,,,,,,,,,,,,,,,,,,,,,,,,,,,,,,,,,
,,,,,,5e938e072a4ce9077f8157b9,62bbfb58b3608de7fe7fbc0b,2022-06-29_02h18.42.606,Colour_Asymmetry_Pilot,2022.1.3,Win32,60.99420555,62bbe60bf3d75ef465d3e404,0,93,93,124,1,threeone,,,,,,,,,,,,,,,,,,,,,,,,,,,,,,,,,,,,,,,,,,,,,,,,,,,,,,,,,,,,,,,,,,,,,,,,,,,,,,,,,,,,,,,,,,,,,,,,,,,,,,,,,,,,,,,,,,,,,,,,,,,,,,,,,,,,,,,,,,,,,,,,,,,,,,,,
,,,,,,5e938e072a4ce9077f8157b9,62bbfb58b3608de7fe7fbc0b,2022-06-29_02h18.42.606,Colour_Asymmetry_Pilot,2022.1.3,Win32,60.99420555,62bbe60bf3d75ef465d3e404,0,94,94,38,1,fourtwo,,,,,,,,,,,,,,,,,,,,,,,,,,,,,,,,,,,,,,,,,,,,,,,,,,,,,,,,,,,,,,,,,,,,,,,,,,,,,,,,,,,,,,,,,,,,,,,,,,,,,,,,,,,,,,,,,,,,,,,,,,,,,,,,,,,,,,,,,,,,,,,,,,,,,,,,
,,,,,,5e938e072a4ce9077f8157b9,62bbfb58b3608de7fe7fbc0b,2022-06-29_02h18.42.606,Colour_Asymmetry_Pilot,2022.1.3,Win32,60.99420555,62bbe60bf3d75ef465d3e404,0,95,95,58,1,twoone,,,,,,,,,,,,,,,,,,,,,,,,,,,,,,,,,,,,,,,,,,,,,,,,,,,,,,,,,,,,,,,,,,,,,,,,,,,,,,,,,,,,,,,,,,,,,,,,,,,,,,,,,,,,,,,,,,,,,,,,,,,,,,,,,,,,,,,,,,,,,,,,,,,,,,,,
,,,,,,5e938e072a4ce9077f8157b9,62bbfb58b3608de7fe7fbc0b,2022-06-29_02h18.42.606,Colour_Asymmetry_Pilot,2022.1.3,Win32,60.99420555,62bbe60bf3d75ef465d3e404,0,96,96,129,1,onethree,,,,,,,,,,,,,,,,,,,,,,,,,,,,,,,,,,,,,,,,,,,,,,,,,,,,,,,,,,,,,,,,,,,,,,,,,,,,,,,,,,,,,,,,,,,,,,,,,,,,,,,,,,,,,,,,,,,,,,,,,,,,,,,,,,,,,,,,,,,,,,,,,,,,,,,,
,,,,,,5e938e072a4ce9077f8157b9,62bbfb58b3608de7fe7fbc0b,2022-06-29_02h18.42.606,Colour_Asymmetry_Pilot,2022.1.3,Win32,60.99420555,62bbe60bf3d75ef465d3e404,0,97,97,90,1,twoone,,,,,,,,,,,,,,,,,,,,,,,,,,,,,,,,,,,,,,,,,,,,,,,,,,,,,,,,,,,,,,,,,,,,,,,,,,,,,,,,,,,,,,,,,,,,,,,,,,,,,,,,,,,,,,,,,,,,,,,,,,,,,,,,,,,,,,,,,,,,,,,,,,,,,,,,
,,,,,,5e938e072a4ce9077f8157b9,62bbfb58b3608de7fe7fbc0b,2022-06-29_02h18.42.606,Colour_Asymmetry_Pilot,2022.1.3,Win32,60.99420555,62bbe60bf3d75ef465d3e404,0,98,98,106,1,twoone,,,,,,,,,,,,,,,,,,,,,,,,,,,,,,,,,,,,,,,,,,,,,,,,,,,,,,,,,,,,,,,,,,,,,,,,,,,,,,,,,,,,,,,,,,,,,,,,,,,,,,,,,,,,,,,,,,,,,,,,,,,,,,,,,,,,,,,,,,,,,,,,,,,,,,,,
,,,,,,5e938e072a4ce9077f8157b9,62bbfb58b3608de7fe7fbc0b,2022-06-29_02h18.42.606,Colour_Asymmetry_Pilot,2022.1.3,Win32,60.99420555,62bbe60bf3d75ef465d3e404,0,99,99,7,1,fourthree,,,,,,,,,,,,,,,,,,,,,,,,,,,,,,,,,,,,,,,,,,,,,,,,,,,,,,,,,,,,,,,,,,,,,,,,,,,,,,,,,,,,,,,,,,,,,,,,,,,,,,,,,,,,,,,,,,,,,,,,,,,,,,,,,,,,,,,,,,,,,,,,,,,,,,,,
,,,,,,5e938e072a4ce9077f8157b9,62bbfb58b3608de7fe7fbc0b,2022-06-29_02h18.42.606,Colour_Asymmetry_Pilot,2022.1.3,Win32,60.99420555,62bbe60bf3d75ef465d3e404,0,100,100,19,1,twofour,,,,,,,,,,,,,,,,,,,,,,,,,,,,,,,,,,,,,,,,,,,,,,,,,,,,,,,,,,,,,,,,,,,,,,,,,,,,,,,,,,,,,,,,,,,,,,,,,,,,,,,,,,,,,,,,,,,,,,,,,,,,,,,,,,,,,,,,,,,,,,,,,,,,,,,,
,,,,,,5e938e072a4ce9077f8157b9,62bbfb58b3608de7fe7fbc0b,2022-06-29_02h18.42.606,Colour_Asymmetry_Pilot,2022.1.3,Win32,60.99420555,62bbe60bf3d75ef465d3e404,0,101,101,51,1,twofour,,,,,,,,,,,,,,,,,,,,,,,,,,,,,,,,,,,,,,,,,,,,,,,,,,,,,,,,,,,,,,,,,,,,,,,,,,,,,,,,,,,,,,,,,,,,,,,,,,,,,,,,,,,,,,,,,,,,,,,,,,,,,,,,,,,,,,,,,,,,,,,,,,,,,,,,
,,,,,,5e938e072a4ce9077f8157b9,62bbfb58b3608de7fe7fbc0b,2022-06-29_02h18.42.606,Colour_Asymmetry_Pilot,2022.1.3,Win32,60.99420555,62bbe60bf3d75ef465d3e404,0,102,102,17,1,onethree,,,,,,,,,,,,,,,,,,,,,,,,,,,,,,,,,,,,,,,,,,,,,,,,,,,,,,,,,,,,,,,,,,,,,,,,,,,,,,,,,,,,,,,,,,,,,,,,,,,,,,,,,,,,,,,,,,,,,,,,,,,,,,,,,,,,,,,,,,,,,,,,,,,,,,,,
,,,,,,5e938e072a4ce9077f8157b9,62bbfb58b3608de7fe7fbc0b,2022-06-29_02h18.42.606,Colour_Asymmetry_Pilot,2022.1.3,Win32,60.99420555,62bbe60bf3d75ef465d3e404,0,103,103,107,1,twofour,,,,,,,,,,,,,,,,,,,,,,,,,,,,,,,,,,,,,,,,,,,,,,,,,,,,,,,,,,,,,,,,,,,,,,,,,,,,,,,,,,,,,,,,,,,,,,,,,,,,,,,,,,,,,,,,,,,,,,,,,,,,,,,,,,,,,,,,,,,,,,,,,,,,,,,,
,,,,,,5e938e072a4ce9077f8157b9,62bbfb58b3608de7fe7fbc0b,2022-06-29_02h18.42.606,Colour_Asymmetry_Pilot,2022.1.3,Win32,60.99420555,62bbe60bf3d75ef465d3e404,0,104,104,36,1,threeone,,,,,,,,,,,,,,,,,,,,,,,,,,,,,,,,,,,,,,,,,,,,,,,,,,,,,,,,,,,,,,,,,,,,,,,,,,,,,,,,,,,,,,,,,,,,,,,,,,,,,,,,,,,,,,,,,,,,,,,,,,,,,,,,,,,,,,,,,,,,,,,,,,,,,,,,
,,,,,,5e938e072a4ce9077f8157b9,62bbfb58b3608de7fe7fbc0b,2022-06-29_02h18.42.606,Colour_Asymmetry_Pilot,2022.1.3,Win32,60.99420555,62bbe60bf3d75ef465d3e404,0,105,105,35,1,twofour,,,,,,,,,,,,,,,,,,,,,,,,,,,,,,,,,,,,,,,,,,,,,,,,,,,,,,,,,,,,,,,,,,,,,,,,,,,,,,,,,,,,,,,,,,,,,,,,,,,,,,,,,,,,,,,,,,,,,,,,,,,,,,,,,,,,,,,,,,,,,,,,,,,,,,,,
,,,,,,5e938e072a4ce9077f8157b9,62bbfb58b3608de7fe7fbc0b,2022-06-29_02h18.42.606,Colour_Asymmetry_Pilot,2022.1.3,Win32,60.99420555,62bbe60bf3d75ef465d3e404,0,106,106,53,1,threefour,,,,,,,,,,,,,,,,,,,,,,,,,,,,,,,,,,,,,,,,,,,,,,,,,,,,,,,,,,,,,,,,,,,,,,,,,,,,,,,,,,,,,,,,,,,,,,,,,,,,,,,,,,,,,,,,,,,,,,,,,,,,,,,,,,,,,,,,,,,,,,,,,,,,,,,,
,,,,,,5e938e072a4ce9077f8157b9,62bbfb58b3608de7fe7fbc0b,2022-06-29_02h18.42.606,Colour_Asymmetry_Pilot,2022.1.3,Win32,60.99420555,62bbe60bf3d75ef465d3e404,0,107,107,96,1,onetwo,,,,,,,,,,,,,,,,,,,,,,,,,,,,,,,,,,,,,,,,,,,,,,,,,,,,,,,,,,,,,,,,,,,,,,,,,,,,,,,,,,,,,,,,,,,,,,,,,,,,,,,,,,,,,,,,,,,,,,,,,,,,,,,,,,,,,,,,,,,,,,,,,,,,,,,,
,,,,,,5e938e072a4ce9077f8157b9,62bbfb58b3608de7fe7fbc0b,2022-06-29_02h18.42.606,Colour_Asymmetry_Pilot,2022.1.3,Win32,60.99420555,62bbe60bf3d75ef465d3e404,0,108,108,64,1,onetwo,,,,,,,,,,,,,,,,,,,,,,,,,,,,,,,,,,,,,,,,,,,,,,,,,,,,,,,,,,,,,,,,,,,,,,,,,,,,,,,,,,,,,,,,,,,,,,,,,,,,,,,,,,,,,,,,,,,,,,,,,,,,,,,,,,,,,,,,,,,,,,,,,,,,,,,,
,,,,,,5e938e072a4ce9077f8157b9,62bbfb58b3608de7fe7fbc0b,2022-06-29_02h18.42.606,Colour_Asymmetry_Pilot,2022.1.3,Win32,60.99420555,62bbe60bf3d75ef465d3e404,0,109,109,98,1,twoone,,,,,,,,,,,,,,,,,,,,,,,,,,,,,,,,,,,,,,,,,,,,,,,,,,,,,,,,,,,,,,,,,,,,,,,,,,,,,,,,,,,,,,,,,,,,,,,,,,,,,,,,,,,,,,,,,,,,,,,,,,,,,,,,,,,,,,,,,,,,,,,,,,,,,,,,
,,,,,,5e938e072a4ce9077f8157b9,62bbfb58b3608de7fe7fbc0b,2022-06-29_02h18.42.606,Colour_Asymmetry_Pilot,2022.1.3,Win32,60.99420555,62bbe60bf3d75ef465d3e404,0,110,110,68,1,threeone,,,,,,,,,,,,,,,,,,,,,,,,,,,,,,,,,,,,,,,,,,,,,,,,,,,,,,,,,,,,,,,,,,,,,,,,,,,,,,,,,,,,,,,,,,,,,,,,,,,,,,,,,,,,,,,,,,,,,,,,,,,,,,,,,,,,,,,,,,,,,,,,,,,,,,,,
,,,,,,5e938e072a4ce9077f8157b9,62bbfb58b3608de7fe7fbc0b,2022-06-29_02h18.42.606,Colour_Asymmetry_Pilot,2022.1.3,Win32,60.99420555,62bbe60bf3d75ef465d3e404,0,111,111,159,1,fourthree,,,,,,,,,,,,,,,,,,,,,,,,,,,,,,,,,,,,,,,,,,,,,,,,,,,,,,,,,,,,,,,,,,,,,,,,,,,,,,,,,,,,,,,,,,,,,,,,,,,,,,,,,,,,,,,,,,,,,,,,,,,,,,,,,,,,,,,,,,,,,,,,,,,,,,,,
,,,,,,5e938e072a4ce9077f8157b9,62bbfb58b3608de7fe7fbc0b,2022-06-29_02h18.42.606,Colour_Asymmetry_Pilot,2022.1.3,Win32,60.99420555,62bbe60bf3d75ef465d3e404,0,112,112,142,1,fourtwo,,,,,,,,,,,,,,,,,,,,,,,,,,,,,,,,,,,,,,,,,,,,,,,,,,,,,,,,,,,,,,,,,,,,,,,,,,,,,,,,,,,,,,,,,,,,,,,,,,,,,,,,,,,,,,,,,,,,,,,,,,,,,,,,,,,,,,,,,,,,,,,,,,,,,,,,
,,,,,,5e938e072a4ce9077f8157b9,62bbfb58b3608de7fe7fbc0b,2022-06-29_02h18.42.606,Colour_Asymmetry_Pilot,2022.1.3,Win32,60.99420555,62bbe60bf3d75ef465d3e404,0,113,113,113,1,onethree,,,,,,,,,,,,,,,,,,,,,,,,,,,,,,,,,,,,,,,,,,,,,,,,,,,,,,,,,,,,,,,,,,,,,,,,,,,,,,,,,,,,,,,,,,,,,,,,,,,,,,,,,,,,,,,,,,,,,,,,,,,,,,,,,,,,,,,,,,,,,,,,,,,,,,,,
,,,,,,5e938e072a4ce9077f8157b9,62bbfb58b3608de7fe7fbc0b,2022-06-29_02h18.42.606,Colour_Asymmetry_Pilot,2022.1.3,Win32,60.99420555,62bbe60bf3d75ef465d3e404,0,114,114,76,1,threeone,,,,,,,,,,,,,,,,,,,,,,,,,,,,,,,,,,,,,,,,,,,,,,,,,,,,,,,,,,,,,,,,,,,,,,,,,,,,,,,,,,,,,,,,,,,,,,,,,,,,,,,,,,,,,,,,,,,,,,,,,,,,,,,,,,,,,,,,,,,,,,,,,,,,,,,,
,,,,,,5e938e072a4ce9077f8157b9,62bbfb58b3608de7fe7fbc0b,2022-06-29_02h18.42.606,Colour_Asymmetry_Pilot,2022.1.3,Win32,60.99420555,62bbe60bf3d75ef465d3e404,0,115,115,79,1,fourthree,,,,,,,,,,,,,,,,,,,,,,,,,,,,,,,,,,,,,,,,,,,,,,,,,,,,,,,,,,,,,,,,,,,,,,,,,,,,,,,,,,,,,,,,,,,,,,,,,,,,,,,,,,,,,,,,,,,,,,,,,,,,,,,,,,,,,,,,,,,,,,,,,,,,,,,,
,,,,,,5e938e072a4ce9077f8157b9,62bbfb58b3608de7fe7fbc0b,2022-06-29_02h18.42.606,Colour_Asymmetry_Pilot,2022.1.3,Win32,60.99420555,62bbe60bf3d75ef465d3e404,0,116,116,99,1,twofour,,,,,,,,,,,,,,,,,,,,,,,,,,,,,,,,,,,,,,,,,,,,,,,,,,,,,,,,,,,,,,,,,,,,,,,,,,,,,,,,,,,,,,,,,,,,,,,,,,,,,,,,,,,,,,,,,,,,,,,,,,,,,,,,,,,,,,,,,,,,,,,,,,,,,,,,
,,,,,,5e938e072a4ce9077f8157b9,62bbfb58b3608de7fe7fbc0b,2022-06-29_02h18.42.606,Colour_Asymmetry_Pilot,2022.1.3,Win32,60.99420555,62bbe60bf3d75ef465d3e404,0,117,117,123,1,twofour,,,,,,,,,,,,,,,,,,,,,,,,,,,,,,,,,,,,,,,,,,,,,,,,,,,,,,,,,,,,,,,,,,,,,,,,,,,,,,,,,,,,,,,,,,,,,,,,,,,,,,,,,,,,,,,,,,,,,,,,,,,,,,,,,,,,,,,,,,,,,,,,,,,,,,,,
,,,,,,5e938e072a4ce9077f8157b9,62bbfb58b3608de7fe7fbc0b,2022-06-29_02h18.42.606,Colour_Asymmetry_Pilot,2022.1.3,Win32,60.99420555,62bbe60bf3d75ef465d3e404,0,118,118,16,1,onetwo,,,,,,,,,,,,,,,,,,,,,,,,,,,,,,,,,,,,,,,,,,,,,,,,,,,,,,,,,,,,,,,,,,,,,,,,,,,,,,,,,,,,,,,,,,,,,,,,,,,,,,,,,,,,,,,,,,,,,,,,,,,,,,,,,,,,,,,,,,,,,,,,,,,,,,,,
,,,,,,5e938e072a4ce9077f8157b9,62bbfb58b3608de7fe7fbc0b,2022-06-29_02h18.42.606,Colour_Asymmetry_Pilot,2022.1.3,Win32,60.99420555,62bbe60bf3d75ef465d3e404,0,119,119,10,1,twoone,,,,,,,,,,,,,,,,,,,,,,,,,,,,,,,,,,,,,,,,,,,,,,,,,,,,,,,,,,,,,,,,,,,,,,,,,,,,,,,,,,,,,,,,,,,,,,,,,,,,,,,,,,,,,,,,,,,,,,,,,,,,,,,,,,,,,,,,,,,,,,,,,,,,,,,,
,,,,,,5e938e072a4ce9077f8157b9,62bbfb58b3608de7fe7fbc0b,2022-06-29_02h18.42.606,Colour_Asymmetry_Pilot,2022.1.3,Win32,60.99420555,62bbe60bf3d75ef465d3e404,0,120,120,95,1,fourthree,,,,,,,,,,,,,,,,,,,,,,,,,,,,,,,,,,,,,,,,,,,,,,,,,,,,,,,,,,,,,,,,,,,,,,,,,,,,,,,,,,,,,,,,,,,,,,,,,,,,,,,,,,,,,,,,,,,,,,,,,,,,,,,,,,,,,,,,,,,,,,,,,,,,,,,,
,,,,,,5e938e072a4ce9077f8157b9,62bbfb58b3608de7fe7fbc0b,2022-06-29_02h18.42.606,Colour_Asymmetry_Pilot,2022.1.3,Win32,60.99420555,62bbe60bf3d75ef465d3e404,0,121,121,14,1,fourtwo,,,,,,,,,,,,,,,,,,,,,,,,,,,,,,,,,,,,,,,,,,,,,,,,,,,,,,,,,,,,,,,,,,,,,,,,,,,,,,,,,,,,,,,,,,,,,,,,,,,,,,,,,,,,,,,,,,,,,,,,,,,,,,,,,,,,,,,,,,,,,,,,,,,,,,,,
,,,,,,5e938e072a4ce9077f8157b9,62bbfb58b3608de7fe7fbc0b,2022-06-29_02h18.42.606,Colour_Asymmetry_Pilot,2022.1.3,Win32,60.99420555,62bbe60bf3d75ef465d3e404,0,122,122,32,1,onetwo,,,,,,,,,,,,,,,,,,,,,,,,,,,,,,,,,,,,,,,,,,,,,,,,,,,,,,,,,,,,,,,,,,,,,,,,,,,,,,,,,,,,,,,,,,,,,,,,,,,,,,,,,,,,,,,,,,,,,,,,,,,,,,,,,,,,,,,,,,,,,,,,,,,,,,,,
,,,,,,5e938e072a4ce9077f8157b9,62bbfb58b3608de7fe7fbc0b,2022-06-29_02h18.42.606,Colour_Asymmetry_Pilot,2022.1.3,Win32,60.99420555,62bbe60bf3d75ef465d3e404,0,123,123,109,1,threefour,,,,,,,,,,,,,,,,,,,,,,,,,,,,,,,,,,,,,,,,,,,,,,,,,,,,,,,,,,,,,,,,,,,,,,,,,,,,,,,,,,,,,,,,,,,,,,,,,,,,,,,,,,,,,,,,,,,,,,,,,,,,,,,,,,,,,,,,,,,,,,,,,,,,,,,,
,,,,,,5e938e072a4ce9077f8157b9,62bbfb58b3608de7fe7fbc0b,2022-06-29_02h18.42.606,Colour_Asymmetry_Pilot,2022.1.3,Win32,60.99420555,62bbe60bf3d75ef465d3e404,0,124,124,105,1,onethree,,,,,,,,,,,,,,,,,,,,,,,,,,,,,,,,,,,,,,,,,,,,,,,,,,,,,,,,,,,,,,,,,,,,,,,,,,,,,,,,,,,,,,,,,,,,,,,,,,,,,,,,,,,,,,,,,,,,,,,,,,,,,,,,,,,,,,,,,,,,,,,,,,,,,,,,
,,,,,,5e938e072a4ce9077f8157b9,62bbfb58b3608de7fe7fbc0b,2022-06-29_02h18.42.606,Colour_Asymmetry_Pilot,2022.1.3,Win32,60.99420555,62bbe60bf3d75ef465d3e404,0,125,125,154,1,twoone,,,,,,,,,,,,,,,,,,,,,,,,,,,,,,,,,,,,,,,,,,,,,,,,,,,,,,,,,,,,,,,,,,,,,,,,,,,,,,,,,,,,,,,,,,,,,,,,,,,,,,,,,,,,,,,,,,,,,,,,,,,,,,,,,,,,,,,,,,,,,,,,,,,,,,,,
,,,,,,5e938e072a4ce9077f8157b9,62bbfb58b3608de7fe7fbc0b,2022-06-29_02h18.42.606,Colour_Asymmetry_Pilot,2022.1.3,Win32,60.99420555,62bbe60bf3d75ef465d3e404,0,126,126,108,1,threeone,,,,,,,,,,,,,,,,,,,,,,,,,,,,,,,,,,,,,,,,,,,,,,,,,,,,,,,,,,,,,,,,,,,,,,,,,,,,,,,,,,,,,,,,,,,,,,,,,,,,,,,,,,,,,,,,,,,,,,,,,,,,,,,,,,,,,,,,,,,,,,,,,,,,,,,,
,,,,,,5e938e072a4ce9077f8157b9,62bbfb58b3608de7fe7fbc0b,2022-06-29_02h18.42.606,Colour_Asymmetry_Pilot,2022.1.3,Win32,60.99420555,62bbe60bf3d75ef465d3e404,0,127,127,120,1,onetwo,,,,,,,,,,,,,,,,,,,,,,,,,,,,,,,,,,,,,,,,,,,,,,,,,,,,,,,,,,,,,,,,,,,,,,,,,,,,,,,,,,,,,,,,,,,,,,,,,,,,,,,,,,,,,,,,,,,,,,,,,,,,,,,,,,,,,,,,,,,,,,,,,,,,,,,,
,,,,,,5e938e072a4ce9077f8157b9,62bbfb58b3608de7fe7fbc0b,2022-06-29_02h18.42.606,Colour_Asymmetry_Pilot,2022.1.3,Win32,60.99420555,62bbe60bf3d75ef465d3e404,0,128,128,60,1,threeone,,,,,,,,,,,,,,,,,,,,,,,,,,,,,,,,,,,,,,,,,,,,,,,,,,,,,,,,,,,,,,,,,,,,,,,,,,,,,,,,,,,,,,,,,,,,,,,,,,,,,,,,,,,,,,,,,,,,,,,,,,,,,,,,,,,,,,,,,,,,,,,,,,,,,,,,
,,,,,,5e938e072a4ce9077f8157b9,62bbfb58b3608de7fe7fbc0b,2022-06-29_02h18.42.606,Colour_Asymmetry_Pilot,2022.1.3,Win32,60.99420555,62bbe60bf3d75ef465d3e404,0,129,129,101,1,threefour,,,,,,,,,,,,,,,,,,,,,,,,,,,,,,,,,,,,,,,,,,,,,,,,,,,,,,,,,,,,,,,,,,,,,,,,,,,,,,,,,,,,,,,,,,,,,,,,,,,,,,,,,,,,,,,,,,,,,,,,,,,,,,,,,,,,,,,,,,,,,,,,,,,,,,,,
,,,,,,5e938e072a4ce9077f8157b9,62bbfb58b3608de7fe7fbc0b,2022-06-29_02h18.42.606,Colour_Asymmetry_Pilot,2022.1.3,Win32,60.99420555,62bbe60bf3d75ef465d3e404,0,130,130,75,1,twofour,,,,,,,,,,,,,,,,,,,,,,,,,,,,,,,,,,,,,,,,,,,,,,,,,,,,,,,,,,,,,,,,,,,,,,,,,,,,,,,,,,,,,,,,,,,,,,,,,,,,,,,,,,,,,,,,,,,,,,,,,,,,,,,,,,,,,,,,,,,,,,,,,,,,,,,,
,,,,,,5e938e072a4ce9077f8157b9,62bbfb58b3608de7fe7fbc0b,2022-06-29_02h18.42.606,Colour_Asymmetry_Pilot,2022.1.3,Win32,60.99420555,62bbe60bf3d75ef465d3e404,0,131,131,57,1,onethree,,,,,,,,,,,,,,,,,,,,,,,,,,,,,,,,,,,,,,,,,,,,,,,,,,,,,,,,,,,,,,,,,,,,,,,,,,,,,,,,,,,,,,,,,,,,,,,,,,,,,,,,,,,,,,,,,,,,,,,,,,,,,,,,,,,,,,,,,,,,,,,,,,,,,,,,
,,,,,,5e938e072a4ce9077f8157b9,62bbfb58b3608de7fe7fbc0b,2022-06-29_02h18.42.606,Colour_Asymmetry_Pilot,2022.1.3,Win32,60.99420555,62bbe60bf3d75ef465d3e404,0,132,132,131,1,twofour,,,,,,,,,,,,,,,,,,,,,,,,,,,,,,,,,,,,,,,,,,,,,,,,,,,,,,,,,,,,,,,,,,,,,,,,,,,,,,,,,,,,,,,,,,,,,,,,,,,,,,,,,,,,,,,,,,,,,,,,,,,,,,,,,,,,,,,,,,,,,,,,,,,,,,,,
,,,,,,5e938e072a4ce9077f8157b9,62bbfb58b3608de7fe7fbc0b,2022-06-29_02h18.42.606,Colour_Asymmetry_Pilot,2022.1.3,Win32,60.99420555,62bbe60bf3d75ef465d3e404,0,133,133,26,1,twoone,,,,,,,,,,,,,,,,,,,,,,,,,,,,,,,,,,,,,,,,,,,,,,,,,,,,,,,,,,,,,,,,,,,,,,,,,,,,,,,,,,,,,,,,,,,,,,,,,,,,,,,,,,,,,,,,,,,,,,,,,,,,,,,,,,,,,,,,,,,,,,,,,,,,,,,,
,,,,,,5e938e072a4ce9077f8157b9,62bbfb58b3608de7fe7fbc0b,2022-06-29_02h18.42.606,Colour_Asymmetry_Pilot,2022.1.3,Win32,60.99420555,62bbe60bf3d75ef465d3e404,0,134,134,15,1,fourthree,,,,,,,,,,,,,,,,,,,,,,,,,,,,,,,,,,,,,,,,,,,,,,,,,,,,,,,,,,,,,,,,,,,,,,,,,,,,,,,,,,,,,,,,,,,,,,,,,,,,,,,,,,,,,,,,,,,,,,,,,,,,,,,,,,,,,,,,,,,,,,,,,,,,,,,,
,,,,,,5e938e072a4ce9077f8157b9,62bbfb58b3608de7fe7fbc0b,2022-06-29_02h18.42.606,Colour_Asymmetry_Pilot,2022.1.3,Win32,60.99420555,62bbe60bf3d75ef465d3e404,0,135,135,110,1,fourtwo,,,,,,,,,,,,,,,,,,,,,,,,,,,,,,,,,,,,,,,,,,,,,,,,,,,,,,,,,,,,,,,,,,,,,,,,,,,,,,,,,,,,,,,,,,,,,,,,,,,,,,,,,,,,,,,,,,,,,,,,,,,,,,,,,,,,,,,,,,,,,,,,,,,,,,,,
,,,,,,5e938e072a4ce9077f8157b9,62bbfb58b3608de7fe7fbc0b,2022-06-29_02h18.42.606,Colour_Asymmetry_Pilot,2022.1.3,Win32,60.99420555,62bbe60bf3d75ef465d3e404,0,136,136,56,1,onetwo,,,,,,,,,,,,,,,,,,,,,,,,,,,,,,,,,,,,,,,,,,,,,,,,,,,,,,,,,,,,,,,,,,,,,,,,,,,,,,,,,,,,,,,,,,,,,,,,,,,,,,,,,,,,,,,,,,,,,,,,,,,,,,,,,,,,,,,,,,,,,,,,,,,,,,,,
,,,,,,5e938e072a4ce9077f8157b9,62bbfb58b3608de7fe7fbc0b,2022-06-29_02h18.42.606,Colour_Asymmetry_Pilot,2022.1.3,Win32,60.99420555,62bbe60bf3d75ef465d3e404,0,137,137,34,1,twoone,,,,,,,,,,,,,,,,,,,,,,,,,,,,,,,,,,,,,,,,,,,,,,,,,,,,,,,,,,,,,,,,,,,,,,,,,,,,,,,,,,,,,,,,,,,,,,,,,,,,,,,,,,,,,,,,,,,,,,,,,,,,,,,,,,,,,,,,,,,,,,,,,,,,,,,,
,,,,,,5e938e072a4ce9077f8157b9,62bbfb58b3608de7fe7fbc0b,2022-06-29_02h18.42.606,Colour_Asymmetry_Pilot,2022.1.3,Win32,60.99420555,62bbe60bf3d75ef465d3e404,0,138,138,91,1,twofour,,,,,,,,,,,,,,,,,,,,,,,,,,,,,,,,,,,,,,,,,,,,,,,,,,,,,,,,,,,,,,,,,,,,,,,,,,,,,,,,,,,,,,,,,,,,,,,,,,,,,,,,,,,,,,,,,,,,,,,,,,,,,,,,,,,,,,,,,,,,,,,,,,,,,,,,
,,,,,,5e938e072a4ce9077f8157b9,62bbfb58b3608de7fe7fbc0b,2022-06-29_02h18.42.606,Colour_Asymmetry_Pilot,2022.1.3,Win32,60.99420555,62bbe60bf3d75ef465d3e404,0,139,139,100,1,threeone,,,,,,,,,,,,,,,,,,,,,,,,,,,,,,,,,,,,,,,,,,,,,,,,,,,,,,,,,,,,,,,,,,,,,,,,,,,,,,,,,,,,,,,,,,,,,,,,,,,,,,,,,,,,,,,,,,,,,,,,,,,,,,,,,,,,,,,,,,,,,,,,,,,,,,,,
,,,,,,5e938e072a4ce9077f8157b9,62bbfb58b3608de7fe7fbc0b,2022-06-29_02h18.42.606,Colour_Asymmetry_Pilot,2022.1.3,Win32,60.99420555,62bbe60bf3d75ef465d3e404,0,140,140,66,1,twoone,,,,,,,,,,,,,,,,,,,,,,,,,,,,,,,,,,,,,,,,,,,,,,,,,,,,,,,,,,,,,,,,,,,,,,,,,,,,,,,,,,,,,,,,,,,,,,,,,,,,,,,,,,,,,,,,,,,,,,,,,,,,,,,,,,,,,,,,,,,,,,,,,,,,,,,,
,,,,,,5e938e072a4ce9077f8157b9,62bbfb58b3608de7fe7fbc0b,2022-06-29_02h18.42.606,Colour_Asymmetry_Pilot,2022.1.3,Win32,60.99420555,62bbe60bf3d75ef465d3e404,0,141,141,28,1,threeone,,,,,,,,,,,,,,,,,,,,,,,,,,,,,,,,,,,,,,,,,,,,,,,,,,,,,,,,,,,,,,,,,,,,,,,,,,,,,,,,,,,,,,,,,,,,,,,,,,,,,,,,,,,,,,,,,,,,,,,,,,,,,,,,,,,,,,,,,,,,,,,,,,,,,,,,
,,,,,,5e938e072a4ce9077f8157b9,62bbfb58b3608de7fe7fbc0b,2022-06-29_02h18.42.606,Colour_Asymmetry_Pilot,2022.1.3,Win32,60.99420555,62bbe60bf3d75ef465d3e404,0,142,142,40,1,onetwo,,,,,,,,,,,,,,,,,,,,,,,,,,,,,,,,,,,,,,,,,,,,,,,,,,,,,,,,,,,,,,,,,,,,,,,,,,,,,,,,,,,,,,,,,,,,,,,,,,,,,,,,,,,,,,,,,,,,,,,,,,,,,,,,,,,,,,,,,,,,,,,,,,,,,,,,
,,,,,,5e938e072a4ce9077f8157b9,62bbfb58b3608de7fe7fbc0b,2022-06-29_02h18.42.606,Colour_Asymmetry_Pilot,2022.1.3,Win32,60.99420555,62bbe60bf3d75ef465d3e404,0,143,143,138,1,twoone,,,,,,,,,,,,,,,,,,,,,,,,,,,,,,,,,,,,,,,,,,,,,,,,,,,,,,,,,,,,,,,,,,,,,,,,,,,,,,,,,,,,,,,,,,,,,,,,,,,,,,,,,,,,,,,,,,,,,,,,,,,,,,,,,,,,,,,,,,,,,,,,,,,,,,,,
,,,,,,5e938e072a4ce9077f8157b9,62bbfb58b3608de7fe7fbc0b,2022-06-29_02h18.42.606,Colour_Asymmetry_Pilot,2022.1.3,Win32,60.99420555,62bbe60bf3d75ef465d3e404,0,144,144,80,1,onetwo,,,,,,,,,,,,,,,,,,,,,,,,,,,,,,,,,,,,,,,,,,,,,,,,,,,,,,,,,,,,,,,,,,,,,,,,,,,,,,,,,,,,,,,,,,,,,,,,,,,,,,,,,,,,,,,,,,,,,,,,,,,,,,,,,,,,,,,,,,,,,,,,,,,,,,,,
,,,,,,5e938e072a4ce9077f8157b9,62bbfb58b3608de7fe7fbc0b,2022-06-29_02h18.42.606,Colour_Asymmetry_Pilot,2022.1.3,Win32,60.99420555,62bbe60bf3d75ef465d3e404,0,145,145,2,1,twoone,,,,,,,,,,,,,,,,,,,,,,,,,,,,,,,,,,,,,,,,,,,,,,,,,,,,,,,,,,,,,,,,,,,,,,,,,,,,,,,,,,,,,,,,,,,,,,,,,,,,,,,,,,,,,,,,,,,,,,,,,,,,,,,,,,,,,,,,,,,,,,,,,,,,,,,,
,,,,,,5e938e072a4ce9077f8157b9,62bbfb58b3608de7fe7fbc0b,2022-06-29_02h18.42.606,Colour_Asymmetry_Pilot,2022.1.3,Win32,60.99420555,62bbe60bf3d75ef465d3e404,0,146,146,102,1,fourtwo,,,,,,,,,,,,,,,,,,,,,,,,,,,,,,,,,,,,,,,,,,,,,,,,,,,,,,,,,,,,,,,,,,,,,,,,,,,,,,,,,,,,,,,,,,,,,,,,,,,,,,,,,,,,,,,,,,,,,,,,,,,,,,,,,,,,,,,,,,,,,,,,,,,,,,,,
,,,,,,5e938e072a4ce9077f8157b9,62bbfb58b3608de7fe7fbc0b,2022-06-29_02h18.42.606,Colour_Asymmetry_Pilot,2022.1.3,Win32,60.99420555,62bbe60bf3d75ef465d3e404,0,147,147,18,1,twoone,,,,,,,,,,,,,,,,,,,,,,,,,,,,,,,,,,,,,,,,,,,,,,,,,,,,,,,,,,,,,,,,,,,,,,,,,,,,,,,,,,,,,,,,,,,,,,,,,,,,,,,,,,,,,,,,,,,,,,,,,,,,,,,,,,,,,,,,,,,,,,,,,,,,,,,,
,,,,,,5e938e072a4ce9077f8157b9,62bbfb58b3608de7fe7fbc0b,2022-06-29_02h18.42.606,Colour_Asymmetry_Pilot,2022.1.3,Win32,60.99420555,62bbe60bf3d75ef465d3e404,0,148,148,125,1,threefour,,,,,,,,,,,,,,,,,,,,,,,,,,,,,,,,,,,,,,,,,,,,,,,,,,,,,,,,,,,,,,,,,,,,,,,,,,,,,,,,,,,,,,,,,,,,,,,,,,,,,,,,,,,,,,,,,,,,,,,,,,,,,,,,,,,,,,,,,,,,,,,,,,,,,,,,
,,,,,,5e938e072a4ce9077f8157b9,62bbfb58b3608de7fe7fbc0b,2022-06-29_02h18.42.606,Colour_Asymmetry_Pilot,2022.1.3,Win32,60.99420555,62bbe60bf3d75ef465d3e404,0,149,149,82,1,twoone,,,,,,,,,,,,,,,,,,,,,,,,,,,,,,,,,,,,,,,,,,,,,,,,,,,,,,,,,,,,,,,,,,,,,,,,,,,,,,,,,,,,,,,,,,,,,,,,,,,,,,,,,,,,,,,,,,,,,,,,,,,,,,,,,,,,,,,,,,,,,,,,,,,,,,,,
,,,,,,5e938e072a4ce9077f8157b9,62bbfb58b3608de7fe7fbc0b,2022-06-29_02h18.42.606,Colour_Asymmetry_Pilot,2022.1.3,Win32,60.99420555,62bbe60bf3d75ef465d3e404,0,150,150,104,1,onetwo,,,,,,,,,,,,,,,,,,,,,,,,,,,,,,,,,,,,,,,,,,,,,,,,,,,,,,,,,,,,,,,,,,,,,,,,,,,,,,,,,,,,,,,,,,,,,,,,,,,,,,,,,,,,,,,,,,,,,,,,,,,,,,,,,,,,,,,,,,,,,,,,,,,,,,,,
,,,,,,5e938e072a4ce9077f8157b9,62bbfb58b3608de7fe7fbc0b,2022-06-29_02h18.42.606,Colour_Asymmetry_Pilot,2022.1.3,Win32,60.99420555,62bbe60bf3d75ef465d3e404,0,151,151,153,1,onethree,,,,,,,,,,,,,,,,,,,,,,,,,,,,,,,,,,,,,,,,,,,,,,,,,,,,,,,,,,,,,,,,,,,,,,,,,,,,,,,,,,,,,,,,,,,,,,,,,,,,,,,,,,,,,,,,,,,,,,,,,,,,,,,,,,,,,,,,,,,,,,,,,,,,,,,,
,,,,,,5e938e072a4ce9077f8157b9,62bbfb58b3608de7fe7fbc0b,2022-06-29_02h18.42.606,Colour_Asymmetry_Pilot,2022.1.3,Win32,60.99420555,62bbe60bf3d75ef465d3e404,0,152,152,45,1,threefour,,,,,,,,,,,,,,,,,,,,,,,,,,,,,,,,,,,,,,,,,,,,,,,,,,,,,,,,,,,,,,,,,,,,,,,,,,,,,,,,,,,,,,,,,,,,,,,,,,,,,,,,,,,,,,,,,,,,,,,,,,,,,,,,,,,,,,,,,,,,,,,,,,,,,,,,
,,,,,,5e938e072a4ce9077f8157b9,62bbfb58b3608de7fe7fbc0b,2022-06-29_02h18.42.606,Colour_Asymmetry_Pilot,2022.1.3,Win32,60.99420555,62bbe60bf3d75ef465d3e404,0,153,153,116,1,threeone,,,,,,,,,,,,,,,,,,,,,,,,,,,,,,,,,,,,,,,,,,,,,,,,,,,,,,,,,,,,,,,,,,,,,,,,,,,,,,,,,,,,,,,,,,,,,,,,,,,,,,,,,,,,,,,,,,,,,,,,,,,,,,,,,,,,,,,,,,,,,,,,,,,,,,,,
,,,,,,5e938e072a4ce9077f8157b9,62bbfb58b3608de7fe7fbc0b,2022-06-29_02h18.42.606,Colour_Asymmetry_Pilot,2022.1.3,Win32,60.99420555,62bbe60bf3d75ef465d3e404,0,154,154,23,1,fourthree,,,,,,,,,,,,,,,,,,,,,,,,,,,,,,,,,,,,,,,,,,,,,,,,,,,,,,,,,,,,,,,,,,,,,,,,,,,,,,,,,,,,,,,,,,,,,,,,,,,,,,,,,,,,,,,,,,,,,,,,,,,,,,,,,,,,,,,,,,,,,,,,,,,,,,,,
,,,,,,5e938e072a4ce9077f8157b9,62bbfb58b3608de7fe7fbc0b,2022-06-29_02h18.42.606,Colour_Asymmetry_Pilot,2022.1.3,Win32,60.99420555,62bbe60bf3d75ef465d3e404,0,155,155,52,1,threeone,,,,,,,,,,,,,,,,,,,,,,,,,,,,,,,,,,,,,,,,,,,,,,,,,,,,,,,,,,,,,,,,,,,,,,,,,,,,,,,,,,,,,,,,,,,,,,,,,,,,,,,,,,,,,,,,,,,,,,,,,,,,,,,,,,,,,,,,,,,,,,,,,,,,,,,,
,,,,,,5e938e072a4ce9077f8157b9,62bbfb58b3608de7fe7fbc0b,2022-06-29_02h18.42.606,Colour_Asymmetry_Pilot,2022.1.3,Win32,60.99420555,62bbe60bf3d75ef465d3e404,0,156,156,24,1,onetwo,,,,,,,,,,,,,,,,,,,,,,,,,,,,,,,,,,,,,,,,,,,,,,,,,,,,,,,,,,,,,,,,,,,,,,,,,,,,,,,,,,,,,,,,,,,,,,,,,,,,,,,,,,,,,,,,,,,,,,,,,,,,,,,,,,,,,,,,,,,,,,,,,,,,,,,,
,,,,,,5e938e072a4ce9077f8157b9,62bbfb58b3608de7fe7fbc0b,2022-06-29_02h18.42.606,Colour_Asymmetry_Pilot,2022.1.3,Win32,60.99420555,62bbe60bf3d75ef465d3e404,0,157,157,161,1,onethree,,,,,,,,,,,,,,,,,,,,,,,,,,,,,,,,,,,,,,,,,,,,,,,,,,,,,,,,,,,,,,,,,,,,,,,,,,,,,,,,,,,,,,,,,,,,,,,,,,,,,,,,,,,,,,,,,,,,,,,,,,,,,,,,,,,,,,,,,,,,,,,,,,,,,,,,
,,,,,,5e938e072a4ce9077f8157b9,62bbfb58b3608de7fe7fbc0b,2022-06-29_02h18.42.606,Colour_Asymmetry_Pilot,2022.1.3,Win32,60.99420555,62bbe60bf3d75ef465d3e404,0,158,158,158,1,fourtwo,,,,,,,,,,,,,,,,,,,,,,,,,,,,,,,,,,,,,,,,,,,,,,,,,,,,,,,,,,,,,,,,,,,,,,,,,,,,,,,,,,,,,,,,,,,,,,,,,,,,,,,,,,,,,,,,,,,,,,,,,,,,,,,,,,,,,,,,,,,,,,,,,,,,,,,,
,,,,,,5e938e072a4ce9077f8157b9,62bbfb58b3608de7fe7fbc0b,2022-06-29_02h18.42.606,Colour_Asymmetry_Pilot,2022.1.3,Win32,60.99420555,62bbe60bf3d75ef465d3e404,0,159,159,148,1,threeone,,,,,,,,,,,,,,,,,,,,,,,,,,,,,,,,,,,,,,,,,,,,,,,,,,,,,,,,,,,,,,,,,,,,,,,,,,,,,,,,,,,,,,,,,,,,,,,,,,,,,,,,,,,,,,,,,,,,,,,,,,,,,,,,,,,,,,,,,,,,,,,,,,,,,,,,
,,,,,,5e938e072a4ce9077f8157b9,62bbfb58b3608de7fe7fbc0b,2022-06-29_02h18.42.606,Colour_Asymmetry_Pilot,2022.1.3,Win32,60.99420555,62bbe60bf3d75ef465d3e404,0,160,160,13,1,threefour,,,,,,,,,,,,,,,,,,,,,,,,,,,,,,,,,,,,,,,,,,,,,,,,,,,,,,,,,,,,,,,,,,,,,,,,,,,,,,,,,,,,,,,,,,,,,,,,,,,,,,,,,,,,,,,,,,,,,,,,,,,,,,,,,,,,,,,,,,,,,,,,,,,,,,,,
,,,,,,5e938e072a4ce9077f8157b9,62bbfb58b3608de7fe7fbc0b,2022-06-29_02h18.42.606,Colour_Asymmetry_Pilot,2022.1.3,Win32,60.99420555,62bbe60bf3d75ef465d3e404,0,161,161,88,1,onetwo,,,,,,,,,,,,,,,,,,,,,,,,,,,,,,,,,,,,,,,,,,,,,,,,,,,,,,,,,,,,,,,,,,,,,,,,,,,,,,,,,,,,,,,,,,,,,,,,,,,,,,,,,,,,,,,,,,,,,,,,,,,,,,,,,,,,,,,,,,,,,,,,,,,,,,,,
,,,,,,5e938e072a4ce9077f8157b9,62bbfb58b3608de7fe7fbc0b,2022-06-29_02h18.42.606,Colour_Asymmetry_Pilot,2022.1.3,Win32,60.99420555,62bbe60bf3d75ef465d3e404,,,,,,,space,5.0912,space,25.7102,space,217.4102,space,32.0923,space,12.4089,space,321.9194,"[0.7018,0.7176,0.6155999999999999]",fourthree,"[-0.6235999999999999,-0.6786,-0.08239999999999992]",-4,12.9192,-50.72210693,95.3888855,1,0,0,response7disk_5,12.61114502,5.388824463,1,0,0,rectangle_8,12.61114502,5.388824463,1,0,0,4,12.61114502,5.388824463,1,0,0,0,0,0,0,1,,,,,,,,,,,,,,,,,,,,,,,,,,,,,,,,,,,,,,,,,,,,,,,,,,,,,,,,,,,,,,,,,,,,,,,,,,,,,,,,,,,,,,,,,,,,,,,,,,,,,,,,,,,
,,,,,,5e938e072a4ce9077f8157b9,62bbfb58b3608de7fe7fbc0b,2022-06-29_02h18.42.606,Colour_Asymmetry_Pilot,2022.1.3,Win32,60.99420555,62bbe60bf3d75ef465d3e404,,,,,,,,,,,,,,,,,,,"[-0.9766,-0.34920000000000007,0.2156]",threeone,"[0.9372,0.20779999999999998,0.2704]",-4,6.1592,-38.49987793,95.3888855,1,0,0,response7disk_5,3.722229004,-2.388916016,1,0,0,rectangle_8,44.83337402,95.3888855,1,0,0,4,15.94445801,9.833312988,1,0,0,1,0,1,0,1,response1disk_7,7,rectangle_4,,,,,,,,,,,,,,,,,,,,,,,,,,,,,,,,,,,,,,,,,,,,,,,,,,,,,,,,,,,,,,,,,,,,,,,,,,,,,,,,,,,,,,,,,,,,,,,,,,,,,,,,
,,,,,,5e938e072a4ce9077f8157b9,62bbfb58b3608de7fe7fbc0b,2022-06-29_02h18.42.606,Colour_Asymmetry_Pilot,2022.1.3,Win32,60.99420555,62bbe60bf3d75ef465d3e404,,,,,,,,,,,,,,,,,,,"[-0.9138,-0.5296000000000001,-0.5529999999999999]",onetwo,"[0.9763999999999999,0.8588,-0.05900000000000005]",-4,4.4769,-26.277771,67.61105347,1,0,0,response7disk_5,-4.055541992,-7.944458008,1,0,0,rectangle_8,67.05560303,116.5,1,0,0,4,13.722229,-5.722229004,1,0,0,2,0,2,0,1,response1disk_7,7,rectangle_4,,,,,,,,,,,,,,,,,,,,,,,,,,,,,,,,,,,,,,,,,,,,,,,,,,,,,,,,,,,,,,,,,,,,,,,,,,,,,,,,,,,,,,,,,,,,,,,,,,,,,,,,
,,,,,,5e938e072a4ce9077f8157b9,62bbfb58b3608de7fe7fbc0b,2022-06-29_02h18.42.606,Colour_Asymmetry_Pilot,2022.1.3,Win32,60.99420555,62bbe60bf3d75ef465d3e404,,,,,,,,,,,,,,,,,,,"[0.9372,0.20779999999999998,0.2704]",threeone,"[-0.07459999999999989,0.12139999999999995,-0.9922]",-4,1.8677,-45.16662598,100.9444275,1,0,0,response7disk_5,7.055603027,0.94442749,1,0,0,rectangle_8,7.055603027,0.94442749,1,0,0,4,7.055603027,0.94442749,1,0,0,3,0,3,0,1,,,,,,,,,,,,,,,,,,,,,,,,,,,,,,,,,,,,,,,,,,,,,,,,,,,,,,,,,,,,,,,,,,,,,,,,,,,,,,,,,,,,,,,,,,,,,,,,,,,,,,,,,,,
,,,,,,5e938e072a4ce9077f8157b9,62bbfb58b3608de7fe7fbc0b,2022-06-29_02h18.42.606,Colour_Asymmetry_Pilot,2022.1.3,Win32,60.99420555,62bbe60bf3d75ef465d3e404,,,,,,,,,,,,,,,,,,,"[0.9763999999999999,-0.1137999999999999,-0.6314]",onethree,"[0.3568,-0.20799999999999996,-0.9844]",2,5.0948,88.16668701,-37.94445801,1,0,0,response3disk_5,32.61114502,-4.611175537,1,0,0,rectangle_8,32.61114502,-4.611175537,1,0,0,4,32.61114502,-4.611175537,1,0,0,4,0,4,0,1,,,,,,,,,,,,,,,,,,,,,,,,,,,,,,,,,,,,,,,,,,,,,,,,,,,,,,,,,,,,,,,,,,,,,,,,,,,,,,,,,,,,,,,,,,,,,,,,,,,,,,,,,,,
,,,,,,5e938e072a4ce9077f8157b9,62bbfb58b3608de7fe7fbc0b,2022-06-29_02h18.42.606,Colour_Asymmetry_Pilot,2022.1.3,Win32,60.99420555,62bbe60bf3d75ef465d3e404,,,,,,,,,,,,,,,,,,,"[-0.9688,-0.4902000000000001,-0.12159999999999993]",threefour,"[-0.34920000000000007,-0.702,-0.5216]",-3,4.0301,-54.05554199,37.61108398,1,0,0,response7disk_5,-18.49987793,-0.166687012,1,0,0,rectangle_8,-18.49987793,-0.166687012,1,0,0,4,-18.49987793,-0.166687012,1,0,0,5,0,5,0,1,,,,,,,,,,,,,,,,,,,,,,,,,,,,,,,,,,,,,,,,,,,,,,,,,,,,,,,,,,,,,,,,,,,,,,,,,,,,,,,,,,,,,,,,,,,,,,,,,,,,,,,,,,,
,,,,,,5e938e072a4ce9077f8157b9,62bbfb58b3608de7fe7fbc0b,2022-06-29_02h18.42.606,Colour_Asymmetry_Pilot,2022.1.3,Win32,60.99420555,62bbe60bf3d75ef465d3e404,,,,,,,,,,,,,,,,,,,"[-0.4982,-0.2942,-0.0354000000000001]",twofour,"[0.7802,-0.23140000000000005,-0.20799999999999996]",-4,1.4175,-37.38885498,73.16665649,1,0,0,response7disk_5,9.277893066,-3.500061035,1,0,0,rectangle_8,9.277893066,-3.500061035,1,0,0,4,9.277893066,-3.500061035,1,0,0,6,0,6,0,1,,,,,,,,,,,,,,,,,,,,,,,,,,,,,,,,,,,,,,,,,,,,,,,,,,,,,,,,,,,,,,,,,,,,,,,,,,,,,,,,,,,,,,,,,,,,,,,,,,,,,,,,,,,
,,,,,,5e938e072a4ce9077f8157b9,62bbfb58b3608de7fe7fbc0b,2022-06-29_02h18.42.606,Colour_Asymmetry_Pilot,2022.1.3,Win32,60.99420555,62bbe60bf3d75ef465d3e404,,,,,,,,,,,,,,,,,,,,threeone,,2,5.4328,,,,,,,,,,,,,,,,,,,,,,,,,,,,,,,,space,4.7601,"[0.9842,0.7409999999999999,-0.6628000000000001]","[1,0.12939999999999996,-1]",92.61114502,-41.27780151,1,0,0,response3disk,30.38891602,6.499938965,1,0,0,rectangle,30.38891602,6.499938965,1,0,0,,1,0.002,0,30.38891602,6.499938965,1,0,0,0,0,0,17,1,17,first,,,,,,,,,,,,,,,,,,,,,,,,,,,,,,,,,,,,,,,,,,,,,,,,,,,,,,,,,,,,,,,,,,,
,,,,,,5e938e072a4ce9077f8157b9,62bbfb58b3608de7fe7fbc0b,2022-06-29_02h18.42.606,Colour_Asymmetry_Pilot,2022.1.3,Win32,60.99420555,62bbe60bf3d75ef465d3e404,,,,,,,,,,,,,,,,,,,,fourtwo,,1,4.3988,,,,,,,,,,,,,,,,,,,,,,,,,,,,,,,,,,"[-0.4276,0.0038000000000000256,-0.3256]","[-0.9688,-0.38039999999999996,-0.41979999999999995]",60.38891602,-92.38891602,1,0,0,response3disk,-0.722106934,-6.833343506,1,0,0,rectangle,91.50012207,54.277771,1,0,0,3,3,2.1447,1,-1.833312988,-4.611175537,1,0,0,0,1,1,159,1,78,second,response1disk_3,rectangle,,,,,,,,,,,,,,,,,,,,,,,,,,,,,,,,,,,,,,,,,,,,,,,,,,,,,,,,,,,,,,,,,
,,,,,,5e938e072a4ce9077f8157b9,62bbfb58b3608de7fe7fbc0b,2022-06-29_02h18.42.606,Colour_Asymmetry_Pilot,2022.1.3,Win32,60.99420555,62bbe60bf3d75ef465d3e404,,,,,,,,,,,,,,,,,,,,onetwo,,-4,1.6657,,,,,,,,,,,,,,,,,,,,,,,,,,,,,,,,,,"[0.12939999999999996,-0.2864,0.3253999999999999]","[-0.24719999999999998,0.5213999999999999,-0.12959999999999994]",-46.277771,78.72219849,1,0,0,response7disk,8.166687012,-9.05557251,1,0,0,rectangle,8.166687012,-9.05557251,1,0,0,3,2,0.0011,0,8.166687012,-9.05557251,1,0,0,0,2,2,101,1,20,second,,,,,,,,,,,,,,,,,,,,,,,,,,,,,,,,,,,,,,,,,,,,,,,,,,,,,,,,,,,,,,,,,,,
,,,,,,5e938e072a4ce9077f8157b9,62bbfb58b3608de7fe7fbc0b,2022-06-29_02h18.42.606,Colour_Asymmetry_Pilot,2022.1.3,Win32,60.99420555,62bbe60bf3d75ef465d3e404,,,,,,,,,,,,,,,,,,,,twofour,,3,0.8666,,,,,,,,,,,,,,,,,,,,,,,,,,,,,,,,,,"[-0.4982,-0.2942,-0.0354000000000001]","[-0.9216,-0.5529999999999999,-0.3962]",93.72235107,45.3888855,1,0,0,response1disk,13.722229,-7.944458008,1,0,0,rectangle,13.722229,-7.944458008,1,0,0,3,3,0.0038,0,13.722229,-7.944458008,1,0,0,0,3,3,84,1,3,second,,,,,,,,,,,,,,,,,,,,,,,,,,,,,,,,,,,,,,,,,,,,,,,,,,,,,,,,,,,,,,,,,,,
,,,,,,5e938e072a4ce9077f8157b9,62bbfb58b3608de7fe7fbc0b,2022-06-29_02h18.42.606,Colour_Asymmetry_Pilot,2022.1.3,Win32,60.99420555,62bbe60bf3d75ef465d3e404,,,,,,,,,,,,,,,,,,,,threeone,,-4,1.1325,,,,,,,,,,,,,,,,,,,,,,,,,,,,,,,,,,"[-0.9766,-0.6472,0.07440000000000002]","[-0.011800000000000033,-0.906,-0.45100000000000007]",-41.83331299,79.83331299,1,0,0,response7disk,-2.944396973,-1.277801514,1,0,0,rectangle,-2.944396973,-1.277801514,1,0,0,3,1,0.0011,0,-2.944396973,-1.277801514,1,0,0,0,4,4,6,1,6,first,,,,,,,,,,,,,,,,,,,,,,,,,,,,,,,,,,,,,,,,,,,,,,,,,,,,,,,,,,,,,,,,,,,
,,,,,,5e938e072a4ce9077f8157b9,62bbfb58b3608de7fe7fbc0b,2022-06-29_02h18.42.606,Colour_Asymmetry_Pilot,2022.1.3,Win32,60.99420555,62bbe60bf3d75ef465d3e404,,,,,,,,,,,,,,,,,,,,onetwo,,-4,1.1332,,,,,,,,,,,,,,,,,,,,,,,,,,,,,,,,,,"[0.11359999999999992,0.6312,0.5213999999999999]","[-0.8118,-0.8198,-0.5452]",-38.49987793,62.05554199,1,0,0,response7disk,-7.38885498,4.277770996,1,0,0,rectangle,-7.38885498,4.277770996,1,0,0,3,3,0.001,0,-7.38885498,4.277770996,1,0,0,0,5,5,41,1,41,first,,,,,,,,,,,,,,,,,,,,,,,,,,,,,,,,,,,,,,,,,,,,,,,,,,,,,,,,,,,,,,,,,,,
,,,,,,5e938e072a4ce9077f8157b9,62bbfb58b3608de7fe7fbc0b,2022-06-29_02h18.42.606,Colour_Asymmetry_Pilot,2022.1.3,Win32,60.99420555,62bbe60bf3d75ef465d3e404,,,,,,,,,,,,,,,,,,,,fourthree,,-2,3.4975,,,,,,,,,,,,,,,,,,,,,,,,,,,,,,,,,,"[-0.6235999999999999,-0.6786,-0.08239999999999992]","[0.05879999999999996,0.2784,0.5841999999999998]",-61.83331299,-41.27780151,1,0,0,response5disk,7.055603027,-5.722229004,1,0,0,rectangle,7.055603027,-5.722229004,1,0,0,3,3,0.0008,0,7.055603027,-5.722229004,1,0,0,0,6,6,139,1,58,second,,,,,,,,,,,,,,,,,,,,,,,,,,,,,,,,,,,,,,,,,,,,,,,,,,,,,,,,,,,,,,,,,,,
,,,,,,5e938e072a4ce9077f8157b9,62bbfb58b3608de7fe7fbc0b,2022-06-29_02h18.42.606,Colour_Asymmetry_Pilot,2022.1.3,Win32,60.99420555,62bbe60bf3d75ef465d3e404,,,,,,,,,,,,,,,,,,,,fourtwo,,-4,0.7844,,,,,,,,,,,,,,,,,,,,,,,,,,,,,,,,,,"[0.7018,0.7176,0.6155999999999999]","[0.0351999999999999,0.41159999999999997,0.0038000000000000256]",-32.94439697,87.61105347,1,0,0,response7disk,5.944458008,2.055541992,1,0,0,rectangle,5.944458008,2.055541992,1,0,0,3,3,0.0002,0,5.944458008,2.055541992,1,0,0,0,7,7,125,1,44,second,,,,,,,,,,,,,,,,,,,,,,,,,,,,,,,,,,,,,,,,,,,,,,,,,,,,,,,,,,,,,,,,,,,
,,,,,,5e938e072a4ce9077f8157b9,62bbfb58b3608de7fe7fbc0b,2022-06-29_02h18.42.606,Colour_Asymmetry_Pilot,2022.1.3,Win32,60.99420555,62bbe60bf3d75ef465d3e404,,,,,,,,,,,,,,,,,,,,threefour,,-4,0.6292,,,,,,,,,,,,,,,,,,,,,,,,,,,,,,,,,,"[0.09799999999999986,-0.24719999999999998,0.15280000000000005]","[0.8274000000000001,-0.5844,-0.9452]",-19.61108398,56.49993896,1,0,0,response7disk,5.944458008,5.388824463,1,0,0,rectangle,5.944458008,5.388824463,1,0,0,3,1,0.0026,0,5.944458008,5.388824463,1,0,0,0,8,8,37,1,37,first,,,,,,,,,,,,,,,,,,,,,,,,,,,,,,,,,,,,,,,,,,,,,,,,,,,,,,,,,,,,,,,,,,,
,,,,,,5e938e072a4ce9077f8157b9,62bbfb58b3608de7fe7fbc0b,2022-06-29_02h18.42.606,Colour_Asymmetry_Pilot,2022.1.3,Win32,60.99420555,62bbe60bf3d75ef465d3e404,,,,,,,,,,,,,,,,,,,,twofour,,-4,0.7245,,,,,,,,,,,,,,,,,,,,,,,,,,,,,,,,,,"[0.34099999999999997,0.5841999999999998,-0.9844]","[-0.8982,-0.37259999999999993,0.2784]",-27.38885498,52.05554199,1,0,0,response7disk,1.50012207,4.277770996,1,0,0,rectangle,1.50012207,4.277770996,1,0,0,3,2,0.0021,0,1.50012207,4.277770996,1,0,0,0,9,9,112,1,31,second,,,,,,,,,,,,,,,,,,,,,,,,,,,,,,,,,,,,,,,,,,,,,,,,,,,,,,,,,,,,,,,,,,,
,,,,,,5e938e072a4ce9077f8157b9,62bbfb58b3608de7fe7fbc0b,2022-06-29_02h18.42.606,Colour_Asymmetry_Pilot,2022.1.3,Win32,60.99420555,62bbe60bf3d75ef465d3e404,,,,,,,,,,,,,,,,,,,,threeone,,-4,1.2995,,,,,,,,,,,,,,,,,,,,,,,,,,,,,,,,,,"[-0.9296,-0.12959999999999994,-0.043199999999999905]","[-0.9216,-0.5529999999999999,-0.3962]",-28.49987793,46.49993896,1,0,0,response7disk,-1.833312988,-3.500061035,1,0,0,rectangle,-1.833312988,-3.500061035,1,0,0,3,1,0.0033,0,-1.833312988,-3.500061035,1,0,0,0,10,10,19,1,19,first,,,,,,,,,,,,,,,,,,,,,,,,,,,,,,,,,,,,,,,,,,,,,,,,,,,,,,,,,,,,,,,,,,,
,,,,,,5e938e072a4ce9077f8157b9,62bbfb58b3608de7fe7fbc0b,2022-06-29_02h18.42.606,Colour_Asymmetry_Pilot,2022.1.3,Win32,60.99420555,62bbe60bf3d75ef465d3e404,,,,,,,,,,,,,,,,,,,,fourthree,,-4,0.8396,,,,,,,,,,,,,,,,,,,,,,,,,,,,,,,,,,"[-0.2942,-0.24719999999999998,-0.357]","[0.9763999999999999,0.30979999999999985,-0.6786]",-37.38885498,57.61105347,1,0,0,response7disk,0.388916016,7.611083984,1,0,0,rectangle,0.388916016,7.611083984,1,0,0,3,1,9.99999E-05,0,0.388916016,7.611083984,1,0,0,0,11,11,107,1,26,second,,,,,,,,,,,,,,,,,,,,,,,,,,,,,,,,,,,,,,,,,,,,,,,,,,,,,,,,,,,,,,,,,,,
,,,,,,5e938e072a4ce9077f8157b9,62bbfb58b3608de7fe7fbc0b,2022-06-29_02h18.42.606,Colour_Asymmetry_Pilot,2022.1.3,Win32,60.99420555,62bbe60bf3d75ef465d3e404,,,,,,,,,,,,,,,,,,,,fourthree,,-4,0.4505,,,,,,,,,,,,,,,,,,,,,,,,,,,,,,,,,,"[-0.5688,-0.08239999999999992,-0.1844]","[0.9763999999999999,0.8588,-0.05900000000000005]",-28.49987793,66.49993896,1,0,0,response7disk,4.833374023,8.722198486,1,0,0,rectangle,4.833374023,8.722198486,1,0,0,3,1,0.0004,0,4.833374023,8.722198486,1,0,0,0,12,12,149,1,68,second,,,,,,,,,,,,,,,,,,,,,,,,,,,,,,,,,,,,,,,,,,,,,,,,,,,,,,,,,,,,,,,,,,,
,,,,,,5e938e072a4ce9077f8157b9,62bbfb58b3608de7fe7fbc0b,2022-06-29_02h18.42.606,Colour_Asymmetry_Pilot,2022.1.3,Win32,60.99420555,62bbe60bf3d75ef465d3e404,,,,,,,,,,,,,,,,,,,,threefour,,-4,0.7326,,,,,,,,,,,,,,,,,,,,,,,,,,,,,,,,,,"[0.11359999999999992,0.6312,0.5213999999999999]","[1,0.12939999999999996,-1]",-26.277771,62.05554199,1,0,0,response7disk,0.388916016,14.277771,1,0,0,rectangle,0.388916016,14.277771,1,0,0,3,3,0.0016,0,0.388916016,14.277771,1,0,0,0,13,13,66,1,66,first,,,,,,,,,,,,,,,,,,,,,,,,,,,,,,,,,,,,,,,,,,,,,,,,,,,,,,,,,,,,,,,,,,,
,,,,,,5e938e072a4ce9077f8157b9,62bbfb58b3608de7fe7fbc0b,2022-06-29_02h18.42.606,Colour_Asymmetry_Pilot,2022.1.3,Win32,60.99420555,62bbe60bf3d75ef465d3e404,,,,,,,,,,,,,,,,,,,,threefour,,-4,0.5319,,,,,,,,,,,,,,,,,,,,,,,,,,,,,,,,,,"[-0.24719999999999998,0.5213999999999999,-0.12959999999999994]","[0.12939999999999996,-0.2864,0.3253999999999999]",-35.16662598,63.16665649,1,0,0,response7disk,10.38891602,-6.833343506,1,0,0,rectangle,10.38891602,-6.833343506,1,0,0,3,1,0.0027,0,10.38891602,-6.833343506,1,0,0,0,14,14,20,1,20,first,,,,,,,,,,,,,,,,,,,,,,,,,,,,,,,,,,,,,,,,,,,,,,,,,,,,,,,,,,,,,,,,,,,
,,,,,,5e938e072a4ce9077f8157b9,62bbfb58b3608de7fe7fbc0b,2022-06-29_02h18.42.606,Colour_Asymmetry_Pilot,2022.1.3,Win32,60.99420555,62bbe60bf3d75ef465d3e404,,,,,,,,,,,,,,,,,,,,fourthree,,-4,0.5325,,,,,,,,,,,,,,,,,,,,,,,,,,,,,,,,,,"[-0.6235999999999999,-0.6786,-0.08239999999999992]","[0.5449999999999999,-0.31000000000000005,-0.0354000000000001]",-25.16662598,55.3888855,1,0,0,response7disk,-0.722106934,10.94442749,1,0,0,rectangle,-0.722106934,10.94442749,1,0,0,3,3,0.0016,0,-0.722106934,10.94442749,1,0,0,0,15,15,39,1,39,first,,,,,,,,,,,,,,,,,,,,,,,,,,,,,,,,,,,,,,,,,,,,,,,,,,,,,,,,,,,,,,,,,,,
,,,,,,5e938e072a4ce9077f8157b9,62bbfb58b3608de7fe7fbc0b,2022-06-29_02h18.42.606,Colour_Asymmetry_Pilot,2022.1.3,Win32,60.99420555,62bbe60bf3d75ef465d3e404,,,,,,,,,,,,,,,,,,,,onetwo,,-4,0.4485,,,,,,,,,,,,,,,,,,,,,,,,,,,,,,,,,,"[-0.5688,-0.08239999999999992,-0.1844]","[0.9372,0.20779999999999998,0.2704]",-48.49987793,83.16665649,1,0,0,response7disk,4.833374023,-0.166687012,1,0,0,rectangle,4.833374023,-0.166687012,1,0,0,3,1,0.0011,0,4.833374023,-0.166687012,1,0,0,0,16,16,83,1,2,second,,,,,,,,,,,,,,,,,,,,,,,,,,,,,,,,,,,,,,,,,,,,,,,,,,,,,,,,,,,,,,,,,,,
