trials.thisRepN,trials.thisTrialN,trials.thisN,trials.thisIndex,trials.ran,Colourcodes,participant,session,date,expName,psychopyVersion,OS,frameRate,study_id,trials_4.thisRepN,trials_4.thisTrialN,trials_4.thisN,trials_4.thisIndex,trials_4.ran,StimulusPos,key_resp.keys,key_resp.rt,key_resp_2.keys,key_resp_2.rt,key_resp_15.keys,key_resp_15.rt,key_resp_17.keys,key_resp_17.rt,key_resp_9.keys,key_resp_9.rt,key_resp_10.keys,key_resp_10.rt,Circle1_col,Ecc,Circle2_col,similarity,response_time,mouse_5.x,mouse_5.y,mouse_5.leftButton,mouse_5.midButton,mouse_5.rightButton,mouse_5.clicked_name,mouse_10.x,mouse_10.y,mouse_10.leftButton,mouse_10.midButton,mouse_10.rightButton,mouse_10.clicked_name,mouse_7.x,mouse_7.y,mouse_7.leftButton,mouse_7.midButton,mouse_7.rightButton,catchnumberprac,mouse_6.x,mouse_6.y,mouse_6.leftButton,mouse_6.midButton,mouse_6.rightButton,duringprac.thisRepN,duringprac.thisTrialN,duringprac.thisN,duringprac.thisIndex,duringprac.ran,mouse_7.clicked_name,catchprac,mouse_6.clicked_name,key_resp_22.keys,key_resp_22.rt,Circle1_colour,Circle2_colour,mouse.x,mouse.y,mouse.leftButton,mouse.midButton,mouse.rightButton,mouse.clicked_name,mouse_2.x,mouse_2.y,mouse_2.leftButton,mouse_2.midButton,mouse_2.rightButton,mouse_2.clicked_name,mouse_3.x,mouse_3.y,mouse_3.leftButton,mouse_3.midButton,mouse_3.rightButton,catchresponse,catchnumber,response_time_catch,Catch,mouse_11.x,mouse_11.y,mouse_11.leftButton,mouse_11.midButton,mouse_11.rightButton,trials_2.thisRepN,trials_2.thisTrialN,trials_2.thisN,trials_2.thisIndex,trials_2.ran,Colourpair,Temporder,mouse_3.clicked_name,mouse_11.clicked_name,trials_3.thisRepN,trials_3.thisTrialN,trials_3.thisN,trials_3.thisIndex,trials_3.ran,key_resp_instr_Ishi.keys,key_resp_instr_Ishi.rt,Ishi_trial_keyresp.keys,Ishi_trial_keyresp.rt,Ishi_textbox.text,Ishi_loop.thisRepN,Ishi_loop.thisTrialN,Ishi_loop.thisN,Ishi_loop.thisIndex,Ishi_loop.ran,imageaddress,textbox.text,mouse_4.x,mouse_4.y,mouse_4.leftButton,mouse_4.midButton,mouse_4.rightButton,mouse_4.clicked_name,textbox_2.text,mouse_8.x,mouse_8.y,mouse_8.leftButton,mouse_8.midButton,mouse_8.rightButton,mouse_8.clicked_name,textbox_3.text,mouse_9.x,mouse_9.y,mouse_9.leftButton,mouse_9.midButton,mouse_9.rightButton,mouse_9.clicked_name,textbox_4.text,mouse_12.x,mouse_12.y,mouse_12.leftButton,mouse_12.midButton,mouse_12.rightButton,mouse_12.clicked_name,textbox_5.text,mouse_13.x,mouse_13.y,mouse_13.leftButton,mouse_13.midButton,mouse_13.rightButton,mouse_13.clicked_name,textbox_6.text,mouse_14.x,mouse_14.y,mouse_14.leftButton,mouse_14.midButton,mouse_14.rightButton,mouse_14.clicked_name,textbox_7.text,mouse_15.x,mouse_15.y,mouse_15.leftButton,mouse_15.midButton,mouse_15.rightButton,mouse_15.clicked_name
0,0,0,73,1,,617071ff5db0c4852d3c1bb5,62bbfab973dcda4f2d176001,2022-06-29_09h10.37.150,Colour_Asymmetry_Pilot,2022.1.3,Win32,60.14675809,62bbe60bf3d75ef465d3e404,,,,,,,,,,,,,,,,,,,,,,,,,,,,,,,,,,,,,,,,,,,,,,,,,,,,,,,,,,,,,,,,,,,,,,,,,,,,,,,,,,,,,,,,,,,,,,,,,,,,,,,,,,,,,,,,,,,,,,,,,,,,,,,,,,,,,,,,,,,,,,,,,,,,,,,,,,,,,,
0,1,1,76,1,,617071ff5db0c4852d3c1bb5,62bbfab973dcda4f2d176001,2022-06-29_09h10.37.150,Colour_Asymmetry_Pilot,2022.1.3,Win32,60.14675809,62bbe60bf3d75ef465d3e404,,,,,,,,,,,,,,,,,,,,,,,,,,,,,,,,,,,,,,,,,,,,,,,,,,,,,,,,,,,,,,,,,,,,,,,,,,,,,,,,,,,,,,,,,,,,,,,,,,,,,,,,,,,,,,,,,,,,,,,,,,,,,,,,,,,,,,,,,,,,,,,,,,,,,,,,,,,,,,
0,2,2,4,1,,617071ff5db0c4852d3c1bb5,62bbfab973dcda4f2d176001,2022-06-29_09h10.37.150,Colour_Asymmetry_Pilot,2022.1.3,Win32,60.14675809,62bbe60bf3d75ef465d3e404,,,,,,,,,,,,,,,,,,,,,,,,,,,,,,,,,,,,,,,,,,,,,,,,,,,,,,,,,,,,,,,,,,,,,,,,,,,,,,,,,,,,,,,,,,,,,,,,,,,,,,,,,,,,,,,,,,,,,,,,,,,,,,,,,,,,,,,,,,,,,,,,,,,,,,,,,,,,,,
0,3,3,83,1,,617071ff5db0c4852d3c1bb5,62bbfab973dcda4f2d176001,2022-06-29_09h10.37.150,Colour_Asymmetry_Pilot,2022.1.3,Win32,60.14675809,62bbe60bf3d75ef465d3e404,,,,,,,,,,,,,,,,,,,,,,,,,,,,,,,,,,,,,,,,,,,,,,,,,,,,,,,,,,,,,,,,,,,,,,,,,,,,,,,,,,,,,,,,,,,,,,,,,,,,,,,,,,,,,,,,,,,,,,,,,,,,,,,,,,,,,,,,,,,,,,,,,,,,,,,,,,,,,,
0,4,4,37,1,,617071ff5db0c4852d3c1bb5,62bbfab973dcda4f2d176001,2022-06-29_09h10.37.150,Colour_Asymmetry_Pilot,2022.1.3,Win32,60.14675809,62bbe60bf3d75ef465d3e404,,,,,,,,,,,,,,,,,,,,,,,,,,,,,,,,,,,,,,,,,,,,,,,,,,,,,,,,,,,,,,,,,,,,,,,,,,,,,,,,,,,,,,,,,,,,,,,,,,,,,,,,,,,,,,,,,,,,,,,,,,,,,,,,,,,,,,,,,,,,,,,,,,,,,,,,,,,,,,
0,5,5,39,1,,617071ff5db0c4852d3c1bb5,62bbfab973dcda4f2d176001,2022-06-29_09h10.37.150,Colour_Asymmetry_Pilot,2022.1.3,Win32,60.14675809,62bbe60bf3d75ef465d3e404,,,,,,,,,,,,,,,,,,,,,,,,,,,,,,,,,,,,,,,,,,,,,,,,,,,,,,,,,,,,,,,,,,,,,,,,,,,,,,,,,,,,,,,,,,,,,,,,,,,,,,,,,,,,,,,,,,,,,,,,,,,,,,,,,,,,,,,,,,,,,,,,,,,,,,,,,,,,,,
0,6,6,29,1,,617071ff5db0c4852d3c1bb5,62bbfab973dcda4f2d176001,2022-06-29_09h10.37.150,Colour_Asymmetry_Pilot,2022.1.3,Win32,60.14675809,62bbe60bf3d75ef465d3e404,,,,,,,,,,,,,,,,,,,,,,,,,,,,,,,,,,,,,,,,,,,,,,,,,,,,,,,,,,,,,,,,,,,,,,,,,,,,,,,,,,,,,,,,,,,,,,,,,,,,,,,,,,,,,,,,,,,,,,,,,,,,,,,,,,,,,,,,,,,,,,,,,,,,,,,,,,,,,,
0,7,7,2,1,,617071ff5db0c4852d3c1bb5,62bbfab973dcda4f2d176001,2022-06-29_09h10.37.150,Colour_Asymmetry_Pilot,2022.1.3,Win32,60.14675809,62bbe60bf3d75ef465d3e404,,,,,,,,,,,,,,,,,,,,,,,,,,,,,,,,,,,,,,,,,,,,,,,,,,,,,,,,,,,,,,,,,,,,,,,,,,,,,,,,,,,,,,,,,,,,,,,,,,,,,,,,,,,,,,,,,,,,,,,,,,,,,,,,,,,,,,,,,,,,,,,,,,,,,,,,,,,,,,
0,8,8,91,1,,617071ff5db0c4852d3c1bb5,62bbfab973dcda4f2d176001,2022-06-29_09h10.37.150,Colour_Asymmetry_Pilot,2022.1.3,Win32,60.14675809,62bbe60bf3d75ef465d3e404,,,,,,,,,,,,,,,,,,,,,,,,,,,,,,,,,,,,,,,,,,,,,,,,,,,,,,,,,,,,,,,,,,,,,,,,,,,,,,,,,,,,,,,,,,,,,,,,,,,,,,,,,,,,,,,,,,,,,,,,,,,,,,,,,,,,,,,,,,,,,,,,,,,,,,,,,,,,,,
0,9,9,15,1,,617071ff5db0c4852d3c1bb5,62bbfab973dcda4f2d176001,2022-06-29_09h10.37.150,Colour_Asymmetry_Pilot,2022.1.3,Win32,60.14675809,62bbe60bf3d75ef465d3e404,,,,,,,,,,,,,,,,,,,,,,,,,,,,,,,,,,,,,,,,,,,,,,,,,,,,,,,,,,,,,,,,,,,,,,,,,,,,,,,,,,,,,,,,,,,,,,,,,,,,,,,,,,,,,,,,,,,,,,,,,,,,,,,,,,,,,,,,,,,,,,,,,,,,,,,,,,,,,,
0,10,10,9,1,,617071ff5db0c4852d3c1bb5,62bbfab973dcda4f2d176001,2022-06-29_09h10.37.150,Colour_Asymmetry_Pilot,2022.1.3,Win32,60.14675809,62bbe60bf3d75ef465d3e404,,,,,,,,,,,,,,,,,,,,,,,,,,,,,,,,,,,,,,,,,,,,,,,,,,,,,,,,,,,,,,,,,,,,,,,,,,,,,,,,,,,,,,,,,,,,,,,,,,,,,,,,,,,,,,,,,,,,,,,,,,,,,,,,,,,,,,,,,,,,,,,,,,,,,,,,,,,,,,
0,11,11,89,1,,617071ff5db0c4852d3c1bb5,62bbfab973dcda4f2d176001,2022-06-29_09h10.37.150,Colour_Asymmetry_Pilot,2022.1.3,Win32,60.14675809,62bbe60bf3d75ef465d3e404,,,,,,,,,,,,,,,,,,,,,,,,,,,,,,,,,,,,,,,,,,,,,,,,,,,,,,,,,,,,,,,,,,,,,,,,,,,,,,,,,,,,,,,,,,,,,,,,,,,,,,,,,,,,,,,,,,,,,,,,,,,,,,,,,,,,,,,,,,,,,,,,,,,,,,,,,,,,,,
0,12,12,65,1,,617071ff5db0c4852d3c1bb5,62bbfab973dcda4f2d176001,2022-06-29_09h10.37.150,Colour_Asymmetry_Pilot,2022.1.3,Win32,60.14675809,62bbe60bf3d75ef465d3e404,,,,,,,,,,,,,,,,,,,,,,,,,,,,,,,,,,,,,,,,,,,,,,,,,,,,,,,,,,,,,,,,,,,,,,,,,,,,,,,,,,,,,,,,,,,,,,,,,,,,,,,,,,,,,,,,,,,,,,,,,,,,,,,,,,,,,,,,,,,,,,,,,,,,,,,,,,,,,,
0,13,13,88,1,,617071ff5db0c4852d3c1bb5,62bbfab973dcda4f2d176001,2022-06-29_09h10.37.150,Colour_Asymmetry_Pilot,2022.1.3,Win32,60.14675809,62bbe60bf3d75ef465d3e404,,,,,,,,,,,,,,,,,,,,,,,,,,,,,,,,,,,,,,,,,,,,,,,,,,,,,,,,,,,,,,,,,,,,,,,,,,,,,,,,,,,,,,,,,,,,,,,,,,,,,,,,,,,,,,,,,,,,,,,,,,,,,,,,,,,,,,,,,,,,,,,,,,,,,,,,,,,,,,
0,14,14,56,1,,617071ff5db0c4852d3c1bb5,62bbfab973dcda4f2d176001,2022-06-29_09h10.37.150,Colour_Asymmetry_Pilot,2022.1.3,Win32,60.14675809,62bbe60bf3d75ef465d3e404,,,,,,,,,,,,,,,,,,,,,,,,,,,,,,,,,,,,,,,,,,,,,,,,,,,,,,,,,,,,,,,,,,,,,,,,,,,,,,,,,,,,,,,,,,,,,,,,,,,,,,,,,,,,,,,,,,,,,,,,,,,,,,,,,,,,,,,,,,,,,,,,,,,,,,,,,,,,,,
0,15,15,51,1,,617071ff5db0c4852d3c1bb5,62bbfab973dcda4f2d176001,2022-06-29_09h10.37.150,Colour_Asymmetry_Pilot,2022.1.3,Win32,60.14675809,62bbe60bf3d75ef465d3e404,,,,,,,,,,,,,,,,,,,,,,,,,,,,,,,,,,,,,,,,,,,,,,,,,,,,,,,,,,,,,,,,,,,,,,,,,,,,,,,,,,,,,,,,,,,,,,,,,,,,,,,,,,,,,,,,,,,,,,,,,,,,,,,,,,,,,,,,,,,,,,,,,,,,,,,,,,,,,,
0,16,16,1,1,,617071ff5db0c4852d3c1bb5,62bbfab973dcda4f2d176001,2022-06-29_09h10.37.150,Colour_Asymmetry_Pilot,2022.1.3,Win32,60.14675809,62bbe60bf3d75ef465d3e404,,,,,,,,,,,,,,,,,,,,,,,,,,,,,,,,,,,,,,,,,,,,,,,,,,,,,,,,,,,,,,,,,,,,,,,,,,,,,,,,,,,,,,,,,,,,,,,,,,,,,,,,,,,,,,,,,,,,,,,,,,,,,,,,,,,,,,,,,,,,,,,,,,,,,,,,,,,,,,
0,17,17,52,1,,617071ff5db0c4852d3c1bb5,62bbfab973dcda4f2d176001,2022-06-29_09h10.37.150,Colour_Asymmetry_Pilot,2022.1.3,Win32,60.14675809,62bbe60bf3d75ef465d3e404,,,,,,,,,,,,,,,,,,,,,,,,,,,,,,,,,,,,,,,,,,,,,,,,,,,,,,,,,,,,,,,,,,,,,,,,,,,,,,,,,,,,,,,,,,,,,,,,,,,,,,,,,,,,,,,,,,,,,,,,,,,,,,,,,,,,,,,,,,,,,,,,,,,,,,,,,,,,,,
0,18,18,42,1,,617071ff5db0c4852d3c1bb5,62bbfab973dcda4f2d176001,2022-06-29_09h10.37.150,Colour_Asymmetry_Pilot,2022.1.3,Win32,60.14675809,62bbe60bf3d75ef465d3e404,,,,,,,,,,,,,,,,,,,,,,,,,,,,,,,,,,,,,,,,,,,,,,,,,,,,,,,,,,,,,,,,,,,,,,,,,,,,,,,,,,,,,,,,,,,,,,,,,,,,,,,,,,,,,,,,,,,,,,,,,,,,,,,,,,,,,,,,,,,,,,,,,,,,,,,,,,,,,,
0,19,19,20,1,,617071ff5db0c4852d3c1bb5,62bbfab973dcda4f2d176001,2022-06-29_09h10.37.150,Colour_Asymmetry_Pilot,2022.1.3,Win32,60.14675809,62bbe60bf3d75ef465d3e404,,,,,,,,,,,,,,,,,,,,,,,,,,,,,,,,,,,,,,,,,,,,,,,,,,,,,,,,,,,,,,,,,,,,,,,,,,,,,,,,,,,,,,,,,,,,,,,,,,,,,,,,,,,,,,,,,,,,,,,,,,,,,,,,,,,,,,,,,,,,,,,,,,,,,,,,,,,,,,
0,20,20,53,1,,617071ff5db0c4852d3c1bb5,62bbfab973dcda4f2d176001,2022-06-29_09h10.37.150,Colour_Asymmetry_Pilot,2022.1.3,Win32,60.14675809,62bbe60bf3d75ef465d3e404,,,,,,,,,,,,,,,,,,,,,,,,,,,,,,,,,,,,,,,,,,,,,,,,,,,,,,,,,,,,,,,,,,,,,,,,,,,,,,,,,,,,,,,,,,,,,,,,,,,,,,,,,,,,,,,,,,,,,,,,,,,,,,,,,,,,,,,,,,,,,,,,,,,,,,,,,,,,,,
0,21,21,62,1,,617071ff5db0c4852d3c1bb5,62bbfab973dcda4f2d176001,2022-06-29_09h10.37.150,Colour_Asymmetry_Pilot,2022.1.3,Win32,60.14675809,62bbe60bf3d75ef465d3e404,,,,,,,,,,,,,,,,,,,,,,,,,,,,,,,,,,,,,,,,,,,,,,,,,,,,,,,,,,,,,,,,,,,,,,,,,,,,,,,,,,,,,,,,,,,,,,,,,,,,,,,,,,,,,,,,,,,,,,,,,,,,,,,,,,,,,,,,,,,,,,,,,,,,,,,,,,,,,,
0,22,22,84,1,,617071ff5db0c4852d3c1bb5,62bbfab973dcda4f2d176001,2022-06-29_09h10.37.150,Colour_Asymmetry_Pilot,2022.1.3,Win32,60.14675809,62bbe60bf3d75ef465d3e404,,,,,,,,,,,,,,,,,,,,,,,,,,,,,,,,,,,,,,,,,,,,,,,,,,,,,,,,,,,,,,,,,,,,,,,,,,,,,,,,,,,,,,,,,,,,,,,,,,,,,,,,,,,,,,,,,,,,,,,,,,,,,,,,,,,,,,,,,,,,,,,,,,,,,,,,,,,,,,
0,23,23,3,1,,617071ff5db0c4852d3c1bb5,62bbfab973dcda4f2d176001,2022-06-29_09h10.37.150,Colour_Asymmetry_Pilot,2022.1.3,Win32,60.14675809,62bbe60bf3d75ef465d3e404,,,,,,,,,,,,,,,,,,,,,,,,,,,,,,,,,,,,,,,,,,,,,,,,,,,,,,,,,,,,,,,,,,,,,,,,,,,,,,,,,,,,,,,,,,,,,,,,,,,,,,,,,,,,,,,,,,,,,,,,,,,,,,,,,,,,,,,,,,,,,,,,,,,,,,,,,,,,,,
0,24,24,14,1,,617071ff5db0c4852d3c1bb5,62bbfab973dcda4f2d176001,2022-06-29_09h10.37.150,Colour_Asymmetry_Pilot,2022.1.3,Win32,60.14675809,62bbe60bf3d75ef465d3e404,,,,,,,,,,,,,,,,,,,,,,,,,,,,,,,,,,,,,,,,,,,,,,,,,,,,,,,,,,,,,,,,,,,,,,,,,,,,,,,,,,,,,,,,,,,,,,,,,,,,,,,,,,,,,,,,,,,,,,,,,,,,,,,,,,,,,,,,,,,,,,,,,,,,,,,,,,,,,,
0,25,25,27,1,,617071ff5db0c4852d3c1bb5,62bbfab973dcda4f2d176001,2022-06-29_09h10.37.150,Colour_Asymmetry_Pilot,2022.1.3,Win32,60.14675809,62bbe60bf3d75ef465d3e404,,,,,,,,,,,,,,,,,,,,,,,,,,,,,,,,,,,,,,,,,,,,,,,,,,,,,,,,,,,,,,,,,,,,,,,,,,,,,,,,,,,,,,,,,,,,,,,,,,,,,,,,,,,,,,,,,,,,,,,,,,,,,,,,,,,,,,,,,,,,,,,,,,,,,,,,,,,,,,
0,26,26,25,1,,617071ff5db0c4852d3c1bb5,62bbfab973dcda4f2d176001,2022-06-29_09h10.37.150,Colour_Asymmetry_Pilot,2022.1.3,Win32,60.14675809,62bbe60bf3d75ef465d3e404,,,,,,,,,,,,,,,,,,,,,,,,,,,,,,,,,,,,,,,,,,,,,,,,,,,,,,,,,,,,,,,,,,,,,,,,,,,,,,,,,,,,,,,,,,,,,,,,,,,,,,,,,,,,,,,,,,,,,,,,,,,,,,,,,,,,,,,,,,,,,,,,,,,,,,,,,,,,,,
0,27,27,17,1,,617071ff5db0c4852d3c1bb5,62bbfab973dcda4f2d176001,2022-06-29_09h10.37.150,Colour_Asymmetry_Pilot,2022.1.3,Win32,60.14675809,62bbe60bf3d75ef465d3e404,,,,,,,,,,,,,,,,,,,,,,,,,,,,,,,,,,,,,,,,,,,,,,,,,,,,,,,,,,,,,,,,,,,,,,,,,,,,,,,,,,,,,,,,,,,,,,,,,,,,,,,,,,,,,,,,,,,,,,,,,,,,,,,,,,,,,,,,,,,,,,,,,,,,,,,,,,,,,,
0,28,28,79,1,,617071ff5db0c4852d3c1bb5,62bbfab973dcda4f2d176001,2022-06-29_09h10.37.150,Colour_Asymmetry_Pilot,2022.1.3,Win32,60.14675809,62bbe60bf3d75ef465d3e404,,,,,,,,,,,,,,,,,,,,,,,,,,,,,,,,,,,,,,,,,,,,,,,,,,,,,,,,,,,,,,,,,,,,,,,,,,,,,,,,,,,,,,,,,,,,,,,,,,,,,,,,,,,,,,,,,,,,,,,,,,,,,,,,,,,,,,,,,,,,,,,,,,,,,,,,,,,,,,
0,29,29,77,1,,617071ff5db0c4852d3c1bb5,62bbfab973dcda4f2d176001,2022-06-29_09h10.37.150,Colour_Asymmetry_Pilot,2022.1.3,Win32,60.14675809,62bbe60bf3d75ef465d3e404,,,,,,,,,,,,,,,,,,,,,,,,,,,,,,,,,,,,,,,,,,,,,,,,,,,,,,,,,,,,,,,,,,,,,,,,,,,,,,,,,,,,,,,,,,,,,,,,,,,,,,,,,,,,,,,,,,,,,,,,,,,,,,,,,,,,,,,,,,,,,,,,,,,,,,,,,,,,,,
0,30,30,10,1,,617071ff5db0c4852d3c1bb5,62bbfab973dcda4f2d176001,2022-06-29_09h10.37.150,Colour_Asymmetry_Pilot,2022.1.3,Win32,60.14675809,62bbe60bf3d75ef465d3e404,,,,,,,,,,,,,,,,,,,,,,,,,,,,,,,,,,,,,,,,,,,,,,,,,,,,,,,,,,,,,,,,,,,,,,,,,,,,,,,,,,,,,,,,,,,,,,,,,,,,,,,,,,,,,,,,,,,,,,,,,,,,,,,,,,,,,,,,,,,,,,,,,,,,,,,,,,,,,,
0,31,31,40,1,,617071ff5db0c4852d3c1bb5,62bbfab973dcda4f2d176001,2022-06-29_09h10.37.150,Colour_Asymmetry_Pilot,2022.1.3,Win32,60.14675809,62bbe60bf3d75ef465d3e404,,,,,,,,,,,,,,,,,,,,,,,,,,,,,,,,,,,,,,,,,,,,,,,,,,,,,,,,,,,,,,,,,,,,,,,,,,,,,,,,,,,,,,,,,,,,,,,,,,,,,,,,,,,,,,,,,,,,,,,,,,,,,,,,,,,,,,,,,,,,,,,,,,,,,,,,,,,,,,
0,32,32,34,1,,617071ff5db0c4852d3c1bb5,62bbfab973dcda4f2d176001,2022-06-29_09h10.37.150,Colour_Asymmetry_Pilot,2022.1.3,Win32,60.14675809,62bbe60bf3d75ef465d3e404,,,,,,,,,,,,,,,,,,,,,,,,,,,,,,,,,,,,,,,,,,,,,,,,,,,,,,,,,,,,,,,,,,,,,,,,,,,,,,,,,,,,,,,,,,,,,,,,,,,,,,,,,,,,,,,,,,,,,,,,,,,,,,,,,,,,,,,,,,,,,,,,,,,,,,,,,,,,,,
0,33,33,0,1,,617071ff5db0c4852d3c1bb5,62bbfab973dcda4f2d176001,2022-06-29_09h10.37.150,Colour_Asymmetry_Pilot,2022.1.3,Win32,60.14675809,62bbe60bf3d75ef465d3e404,,,,,,,,,,,,,,,,,,,,,,,,,,,,,,,,,,,,,,,,,,,,,,,,,,,,,,,,,,,,,,,,,,,,,,,,,,,,,,,,,,,,,,,,,,,,,,,,,,,,,,,,,,,,,,,,,,,,,,,,,,,,,,,,,,,,,,,,,,,,,,,,,,,,,,,,,,,,,,
0,34,34,23,1,,617071ff5db0c4852d3c1bb5,62bbfab973dcda4f2d176001,2022-06-29_09h10.37.150,Colour_Asymmetry_Pilot,2022.1.3,Win32,60.14675809,62bbe60bf3d75ef465d3e404,,,,,,,,,,,,,,,,,,,,,,,,,,,,,,,,,,,,,,,,,,,,,,,,,,,,,,,,,,,,,,,,,,,,,,,,,,,,,,,,,,,,,,,,,,,,,,,,,,,,,,,,,,,,,,,,,,,,,,,,,,,,,,,,,,,,,,,,,,,,,,,,,,,,,,,,,,,,,,
0,35,35,8,1,,617071ff5db0c4852d3c1bb5,62bbfab973dcda4f2d176001,2022-06-29_09h10.37.150,Colour_Asymmetry_Pilot,2022.1.3,Win32,60.14675809,62bbe60bf3d75ef465d3e404,,,,,,,,,,,,,,,,,,,,,,,,,,,,,,,,,,,,,,,,,,,,,,,,,,,,,,,,,,,,,,,,,,,,,,,,,,,,,,,,,,,,,,,,,,,,,,,,,,,,,,,,,,,,,,,,,,,,,,,,,,,,,,,,,,,,,,,,,,,,,,,,,,,,,,,,,,,,,,
0,36,36,61,1,,617071ff5db0c4852d3c1bb5,62bbfab973dcda4f2d176001,2022-06-29_09h10.37.150,Colour_Asymmetry_Pilot,2022.1.3,Win32,60.14675809,62bbe60bf3d75ef465d3e404,,,,,,,,,,,,,,,,,,,,,,,,,,,,,,,,,,,,,,,,,,,,,,,,,,,,,,,,,,,,,,,,,,,,,,,,,,,,,,,,,,,,,,,,,,,,,,,,,,,,,,,,,,,,,,,,,,,,,,,,,,,,,,,,,,,,,,,,,,,,,,,,,,,,,,,,,,,,,,
0,37,37,63,1,,617071ff5db0c4852d3c1bb5,62bbfab973dcda4f2d176001,2022-06-29_09h10.37.150,Colour_Asymmetry_Pilot,2022.1.3,Win32,60.14675809,62bbe60bf3d75ef465d3e404,,,,,,,,,,,,,,,,,,,,,,,,,,,,,,,,,,,,,,,,,,,,,,,,,,,,,,,,,,,,,,,,,,,,,,,,,,,,,,,,,,,,,,,,,,,,,,,,,,,,,,,,,,,,,,,,,,,,,,,,,,,,,,,,,,,,,,,,,,,,,,,,,,,,,,,,,,,,,,
0,38,38,12,1,,617071ff5db0c4852d3c1bb5,62bbfab973dcda4f2d176001,2022-06-29_09h10.37.150,Colour_Asymmetry_Pilot,2022.1.3,Win32,60.14675809,62bbe60bf3d75ef465d3e404,,,,,,,,,,,,,,,,,,,,,,,,,,,,,,,,,,,,,,,,,,,,,,,,,,,,,,,,,,,,,,,,,,,,,,,,,,,,,,,,,,,,,,,,,,,,,,,,,,,,,,,,,,,,,,,,,,,,,,,,,,,,,,,,,,,,,,,,,,,,,,,,,,,,,,,,,,,,,,
0,39,39,80,1,,617071ff5db0c4852d3c1bb5,62bbfab973dcda4f2d176001,2022-06-29_09h10.37.150,Colour_Asymmetry_Pilot,2022.1.3,Win32,60.14675809,62bbe60bf3d75ef465d3e404,,,,,,,,,,,,,,,,,,,,,,,,,,,,,,,,,,,,,,,,,,,,,,,,,,,,,,,,,,,,,,,,,,,,,,,,,,,,,,,,,,,,,,,,,,,,,,,,,,,,,,,,,,,,,,,,,,,,,,,,,,,,,,,,,,,,,,,,,,,,,,,,,,,,,,,,,,,,,,
0,40,40,60,1,,617071ff5db0c4852d3c1bb5,62bbfab973dcda4f2d176001,2022-06-29_09h10.37.150,Colour_Asymmetry_Pilot,2022.1.3,Win32,60.14675809,62bbe60bf3d75ef465d3e404,,,,,,,,,,,,,,,,,,,,,,,,,,,,,,,,,,,,,,,,,,,,,,,,,,,,,,,,,,,,,,,,,,,,,,,,,,,,,,,,,,,,,,,,,,,,,,,,,,,,,,,,,,,,,,,,,,,,,,,,,,,,,,,,,,,,,,,,,,,,,,,,,,,,,,,,,,,,,,
0,41,41,82,1,,617071ff5db0c4852d3c1bb5,62bbfab973dcda4f2d176001,2022-06-29_09h10.37.150,Colour_Asymmetry_Pilot,2022.1.3,Win32,60.14675809,62bbe60bf3d75ef465d3e404,,,,,,,,,,,,,,,,,,,,,,,,,,,,,,,,,,,,,,,,,,,,,,,,,,,,,,,,,,,,,,,,,,,,,,,,,,,,,,,,,,,,,,,,,,,,,,,,,,,,,,,,,,,,,,,,,,,,,,,,,,,,,,,,,,,,,,,,,,,,,,,,,,,,,,,,,,,,,,
0,42,42,35,1,,617071ff5db0c4852d3c1bb5,62bbfab973dcda4f2d176001,2022-06-29_09h10.37.150,Colour_Asymmetry_Pilot,2022.1.3,Win32,60.14675809,62bbe60bf3d75ef465d3e404,,,,,,,,,,,,,,,,,,,,,,,,,,,,,,,,,,,,,,,,,,,,,,,,,,,,,,,,,,,,,,,,,,,,,,,,,,,,,,,,,,,,,,,,,,,,,,,,,,,,,,,,,,,,,,,,,,,,,,,,,,,,,,,,,,,,,,,,,,,,,,,,,,,,,,,,,,,,,,
0,43,43,50,1,,617071ff5db0c4852d3c1bb5,62bbfab973dcda4f2d176001,2022-06-29_09h10.37.150,Colour_Asymmetry_Pilot,2022.1.3,Win32,60.14675809,62bbe60bf3d75ef465d3e404,,,,,,,,,,,,,,,,,,,,,,,,,,,,,,,,,,,,,,,,,,,,,,,,,,,,,,,,,,,,,,,,,,,,,,,,,,,,,,,,,,,,,,,,,,,,,,,,,,,,,,,,,,,,,,,,,,,,,,,,,,,,,,,,,,,,,,,,,,,,,,,,,,,,,,,,,,,,,,
0,44,44,22,1,,617071ff5db0c4852d3c1bb5,62bbfab973dcda4f2d176001,2022-06-29_09h10.37.150,Colour_Asymmetry_Pilot,2022.1.3,Win32,60.14675809,62bbe60bf3d75ef465d3e404,,,,,,,,,,,,,,,,,,,,,,,,,,,,,,,,,,,,,,,,,,,,,,,,,,,,,,,,,,,,,,,,,,,,,,,,,,,,,,,,,,,,,,,,,,,,,,,,,,,,,,,,,,,,,,,,,,,,,,,,,,,,,,,,,,,,,,,,,,,,,,,,,,,,,,,,,,,,,,
0,45,45,67,1,,617071ff5db0c4852d3c1bb5,62bbfab973dcda4f2d176001,2022-06-29_09h10.37.150,Colour_Asymmetry_Pilot,2022.1.3,Win32,60.14675809,62bbe60bf3d75ef465d3e404,,,,,,,,,,,,,,,,,,,,,,,,,,,,,,,,,,,,,,,,,,,,,,,,,,,,,,,,,,,,,,,,,,,,,,,,,,,,,,,,,,,,,,,,,,,,,,,,,,,,,,,,,,,,,,,,,,,,,,,,,,,,,,,,,,,,,,,,,,,,,,,,,,,,,,,,,,,,,,
0,46,46,30,1,,617071ff5db0c4852d3c1bb5,62bbfab973dcda4f2d176001,2022-06-29_09h10.37.150,Colour_Asymmetry_Pilot,2022.1.3,Win32,60.14675809,62bbe60bf3d75ef465d3e404,,,,,,,,,,,,,,,,,,,,,,,,,,,,,,,,,,,,,,,,,,,,,,,,,,,,,,,,,,,,,,,,,,,,,,,,,,,,,,,,,,,,,,,,,,,,,,,,,,,,,,,,,,,,,,,,,,,,,,,,,,,,,,,,,,,,,,,,,,,,,,,,,,,,,,,,,,,,,,
0,47,47,86,1,,617071ff5db0c4852d3c1bb5,62bbfab973dcda4f2d176001,2022-06-29_09h10.37.150,Colour_Asymmetry_Pilot,2022.1.3,Win32,60.14675809,62bbe60bf3d75ef465d3e404,,,,,,,,,,,,,,,,,,,,,,,,,,,,,,,,,,,,,,,,,,,,,,,,,,,,,,,,,,,,,,,,,,,,,,,,,,,,,,,,,,,,,,,,,,,,,,,,,,,,,,,,,,,,,,,,,,,,,,,,,,,,,,,,,,,,,,,,,,,,,,,,,,,,,,,,,,,,,,
0,48,48,90,1,,617071ff5db0c4852d3c1bb5,62bbfab973dcda4f2d176001,2022-06-29_09h10.37.150,Colour_Asymmetry_Pilot,2022.1.3,Win32,60.14675809,62bbe60bf3d75ef465d3e404,,,,,,,,,,,,,,,,,,,,,,,,,,,,,,,,,,,,,,,,,,,,,,,,,,,,,,,,,,,,,,,,,,,,,,,,,,,,,,,,,,,,,,,,,,,,,,,,,,,,,,,,,,,,,,,,,,,,,,,,,,,,,,,,,,,,,,,,,,,,,,,,,,,,,,,,,,,,,,
0,49,49,45,1,,617071ff5db0c4852d3c1bb5,62bbfab973dcda4f2d176001,2022-06-29_09h10.37.150,Colour_Asymmetry_Pilot,2022.1.3,Win32,60.14675809,62bbe60bf3d75ef465d3e404,,,,,,,,,,,,,,,,,,,,,,,,,,,,,,,,,,,,,,,,,,,,,,,,,,,,,,,,,,,,,,,,,,,,,,,,,,,,,,,,,,,,,,,,,,,,,,,,,,,,,,,,,,,,,,,,,,,,,,,,,,,,,,,,,,,,,,,,,,,,,,,,,,,,,,,,,,,,,,
0,50,50,13,1,,617071ff5db0c4852d3c1bb5,62bbfab973dcda4f2d176001,2022-06-29_09h10.37.150,Colour_Asymmetry_Pilot,2022.1.3,Win32,60.14675809,62bbe60bf3d75ef465d3e404,,,,,,,,,,,,,,,,,,,,,,,,,,,,,,,,,,,,,,,,,,,,,,,,,,,,,,,,,,,,,,,,,,,,,,,,,,,,,,,,,,,,,,,,,,,,,,,,,,,,,,,,,,,,,,,,,,,,,,,,,,,,,,,,,,,,,,,,,,,,,,,,,,,,,,,,,,,,,,
0,51,51,78,1,,617071ff5db0c4852d3c1bb5,62bbfab973dcda4f2d176001,2022-06-29_09h10.37.150,Colour_Asymmetry_Pilot,2022.1.3,Win32,60.14675809,62bbe60bf3d75ef465d3e404,,,,,,,,,,,,,,,,,,,,,,,,,,,,,,,,,,,,,,,,,,,,,,,,,,,,,,,,,,,,,,,,,,,,,,,,,,,,,,,,,,,,,,,,,,,,,,,,,,,,,,,,,,,,,,,,,,,,,,,,,,,,,,,,,,,,,,,,,,,,,,,,,,,,,,,,,,,,,,
0,52,52,72,1,,617071ff5db0c4852d3c1bb5,62bbfab973dcda4f2d176001,2022-06-29_09h10.37.150,Colour_Asymmetry_Pilot,2022.1.3,Win32,60.14675809,62bbe60bf3d75ef465d3e404,,,,,,,,,,,,,,,,,,,,,,,,,,,,,,,,,,,,,,,,,,,,,,,,,,,,,,,,,,,,,,,,,,,,,,,,,,,,,,,,,,,,,,,,,,,,,,,,,,,,,,,,,,,,,,,,,,,,,,,,,,,,,,,,,,,,,,,,,,,,,,,,,,,,,,,,,,,,,,
0,53,53,68,1,,617071ff5db0c4852d3c1bb5,62bbfab973dcda4f2d176001,2022-06-29_09h10.37.150,Colour_Asymmetry_Pilot,2022.1.3,Win32,60.14675809,62bbe60bf3d75ef465d3e404,,,,,,,,,,,,,,,,,,,,,,,,,,,,,,,,,,,,,,,,,,,,,,,,,,,,,,,,,,,,,,,,,,,,,,,,,,,,,,,,,,,,,,,,,,,,,,,,,,,,,,,,,,,,,,,,,,,,,,,,,,,,,,,,,,,,,,,,,,,,,,,,,,,,,,,,,,,,,,
0,54,54,44,1,,617071ff5db0c4852d3c1bb5,62bbfab973dcda4f2d176001,2022-06-29_09h10.37.150,Colour_Asymmetry_Pilot,2022.1.3,Win32,60.14675809,62bbe60bf3d75ef465d3e404,,,,,,,,,,,,,,,,,,,,,,,,,,,,,,,,,,,,,,,,,,,,,,,,,,,,,,,,,,,,,,,,,,,,,,,,,,,,,,,,,,,,,,,,,,,,,,,,,,,,,,,,,,,,,,,,,,,,,,,,,,,,,,,,,,,,,,,,,,,,,,,,,,,,,,,,,,,,,,
0,55,55,28,1,,617071ff5db0c4852d3c1bb5,62bbfab973dcda4f2d176001,2022-06-29_09h10.37.150,Colour_Asymmetry_Pilot,2022.1.3,Win32,60.14675809,62bbe60bf3d75ef465d3e404,,,,,,,,,,,,,,,,,,,,,,,,,,,,,,,,,,,,,,,,,,,,,,,,,,,,,,,,,,,,,,,,,,,,,,,,,,,,,,,,,,,,,,,,,,,,,,,,,,,,,,,,,,,,,,,,,,,,,,,,,,,,,,,,,,,,,,,,,,,,,,,,,,,,,,,,,,,,,,
0,56,56,87,1,,617071ff5db0c4852d3c1bb5,62bbfab973dcda4f2d176001,2022-06-29_09h10.37.150,Colour_Asymmetry_Pilot,2022.1.3,Win32,60.14675809,62bbe60bf3d75ef465d3e404,,,,,,,,,,,,,,,,,,,,,,,,,,,,,,,,,,,,,,,,,,,,,,,,,,,,,,,,,,,,,,,,,,,,,,,,,,,,,,,,,,,,,,,,,,,,,,,,,,,,,,,,,,,,,,,,,,,,,,,,,,,,,,,,,,,,,,,,,,,,,,,,,,,,,,,,,,,,,,
0,57,57,66,1,,617071ff5db0c4852d3c1bb5,62bbfab973dcda4f2d176001,2022-06-29_09h10.37.150,Colour_Asymmetry_Pilot,2022.1.3,Win32,60.14675809,62bbe60bf3d75ef465d3e404,,,,,,,,,,,,,,,,,,,,,,,,,,,,,,,,,,,,,,,,,,,,,,,,,,,,,,,,,,,,,,,,,,,,,,,,,,,,,,,,,,,,,,,,,,,,,,,,,,,,,,,,,,,,,,,,,,,,,,,,,,,,,,,,,,,,,,,,,,,,,,,,,,,,,,,,,,,,,,
0,58,58,32,1,,617071ff5db0c4852d3c1bb5,62bbfab973dcda4f2d176001,2022-06-29_09h10.37.150,Colour_Asymmetry_Pilot,2022.1.3,Win32,60.14675809,62bbe60bf3d75ef465d3e404,,,,,,,,,,,,,,,,,,,,,,,,,,,,,,,,,,,,,,,,,,,,,,,,,,,,,,,,,,,,,,,,,,,,,,,,,,,,,,,,,,,,,,,,,,,,,,,,,,,,,,,,,,,,,,,,,,,,,,,,,,,,,,,,,,,,,,,,,,,,,,,,,,,,,,,,,,,,,,
0,59,59,24,1,,617071ff5db0c4852d3c1bb5,62bbfab973dcda4f2d176001,2022-06-29_09h10.37.150,Colour_Asymmetry_Pilot,2022.1.3,Win32,60.14675809,62bbe60bf3d75ef465d3e404,,,,,,,,,,,,,,,,,,,,,,,,,,,,,,,,,,,,,,,,,,,,,,,,,,,,,,,,,,,,,,,,,,,,,,,,,,,,,,,,,,,,,,,,,,,,,,,,,,,,,,,,,,,,,,,,,,,,,,,,,,,,,,,,,,,,,,,,,,,,,,,,,,,,,,,,,,,,,,
0,60,60,74,1,,617071ff5db0c4852d3c1bb5,62bbfab973dcda4f2d176001,2022-06-29_09h10.37.150,Colour_Asymmetry_Pilot,2022.1.3,Win32,60.14675809,62bbe60bf3d75ef465d3e404,,,,,,,,,,,,,,,,,,,,,,,,,,,,,,,,,,,,,,,,,,,,,,,,,,,,,,,,,,,,,,,,,,,,,,,,,,,,,,,,,,,,,,,,,,,,,,,,,,,,,,,,,,,,,,,,,,,,,,,,,,,,,,,,,,,,,,,,,,,,,,,,,,,,,,,,,,,,,,
0,61,61,70,1,,617071ff5db0c4852d3c1bb5,62bbfab973dcda4f2d176001,2022-06-29_09h10.37.150,Colour_Asymmetry_Pilot,2022.1.3,Win32,60.14675809,62bbe60bf3d75ef465d3e404,,,,,,,,,,,,,,,,,,,,,,,,,,,,,,,,,,,,,,,,,,,,,,,,,,,,,,,,,,,,,,,,,,,,,,,,,,,,,,,,,,,,,,,,,,,,,,,,,,,,,,,,,,,,,,,,,,,,,,,,,,,,,,,,,,,,,,,,,,,,,,,,,,,,,,,,,,,,,,
0,62,62,36,1,,617071ff5db0c4852d3c1bb5,62bbfab973dcda4f2d176001,2022-06-29_09h10.37.150,Colour_Asymmetry_Pilot,2022.1.3,Win32,60.14675809,62bbe60bf3d75ef465d3e404,,,,,,,,,,,,,,,,,,,,,,,,,,,,,,,,,,,,,,,,,,,,,,,,,,,,,,,,,,,,,,,,,,,,,,,,,,,,,,,,,,,,,,,,,,,,,,,,,,,,,,,,,,,,,,,,,,,,,,,,,,,,,,,,,,,,,,,,,,,,,,,,,,,,,,,,,,,,,,
0,63,63,47,1,,617071ff5db0c4852d3c1bb5,62bbfab973dcda4f2d176001,2022-06-29_09h10.37.150,Colour_Asymmetry_Pilot,2022.1.3,Win32,60.14675809,62bbe60bf3d75ef465d3e404,,,,,,,,,,,,,,,,,,,,,,,,,,,,,,,,,,,,,,,,,,,,,,,,,,,,,,,,,,,,,,,,,,,,,,,,,,,,,,,,,,,,,,,,,,,,,,,,,,,,,,,,,,,,,,,,,,,,,,,,,,,,,,,,,,,,,,,,,,,,,,,,,,,,,,,,,,,,,,
0,64,64,64,1,,617071ff5db0c4852d3c1bb5,62bbfab973dcda4f2d176001,2022-06-29_09h10.37.150,Colour_Asymmetry_Pilot,2022.1.3,Win32,60.14675809,62bbe60bf3d75ef465d3e404,,,,,,,,,,,,,,,,,,,,,,,,,,,,,,,,,,,,,,,,,,,,,,,,,,,,,,,,,,,,,,,,,,,,,,,,,,,,,,,,,,,,,,,,,,,,,,,,,,,,,,,,,,,,,,,,,,,,,,,,,,,,,,,,,,,,,,,,,,,,,,,,,,,,,,,,,,,,,,
0,65,65,57,1,,617071ff5db0c4852d3c1bb5,62bbfab973dcda4f2d176001,2022-06-29_09h10.37.150,Colour_Asymmetry_Pilot,2022.1.3,Win32,60.14675809,62bbe60bf3d75ef465d3e404,,,,,,,,,,,,,,,,,,,,,,,,,,,,,,,,,,,,,,,,,,,,,,,,,,,,,,,,,,,,,,,,,,,,,,,,,,,,,,,,,,,,,,,,,,,,,,,,,,,,,,,,,,,,,,,,,,,,,,,,,,,,,,,,,,,,,,,,,,,,,,,,,,,,,,,,,,,,,,
0,66,66,58,1,,617071ff5db0c4852d3c1bb5,62bbfab973dcda4f2d176001,2022-06-29_09h10.37.150,Colour_Asymmetry_Pilot,2022.1.3,Win32,60.14675809,62bbe60bf3d75ef465d3e404,,,,,,,,,,,,,,,,,,,,,,,,,,,,,,,,,,,,,,,,,,,,,,,,,,,,,,,,,,,,,,,,,,,,,,,,,,,,,,,,,,,,,,,,,,,,,,,,,,,,,,,,,,,,,,,,,,,,,,,,,,,,,,,,,,,,,,,,,,,,,,,,,,,,,,,,,,,,,,
0,67,67,19,1,,617071ff5db0c4852d3c1bb5,62bbfab973dcda4f2d176001,2022-06-29_09h10.37.150,Colour_Asymmetry_Pilot,2022.1.3,Win32,60.14675809,62bbe60bf3d75ef465d3e404,,,,,,,,,,,,,,,,,,,,,,,,,,,,,,,,,,,,,,,,,,,,,,,,,,,,,,,,,,,,,,,,,,,,,,,,,,,,,,,,,,,,,,,,,,,,,,,,,,,,,,,,,,,,,,,,,,,,,,,,,,,,,,,,,,,,,,,,,,,,,,,,,,,,,,,,,,,,,,
0,68,68,21,1,,617071ff5db0c4852d3c1bb5,62bbfab973dcda4f2d176001,2022-06-29_09h10.37.150,Colour_Asymmetry_Pilot,2022.1.3,Win32,60.14675809,62bbe60bf3d75ef465d3e404,,,,,,,,,,,,,,,,,,,,,,,,,,,,,,,,,,,,,,,,,,,,,,,,,,,,,,,,,,,,,,,,,,,,,,,,,,,,,,,,,,,,,,,,,,,,,,,,,,,,,,,,,,,,,,,,,,,,,,,,,,,,,,,,,,,,,,,,,,,,,,,,,,,,,,,,,,,,,,
0,69,69,49,1,,617071ff5db0c4852d3c1bb5,62bbfab973dcda4f2d176001,2022-06-29_09h10.37.150,Colour_Asymmetry_Pilot,2022.1.3,Win32,60.14675809,62bbe60bf3d75ef465d3e404,,,,,,,,,,,,,,,,,,,,,,,,,,,,,,,,,,,,,,,,,,,,,,,,,,,,,,,,,,,,,,,,,,,,,,,,,,,,,,,,,,,,,,,,,,,,,,,,,,,,,,,,,,,,,,,,,,,,,,,,,,,,,,,,,,,,,,,,,,,,,,,,,,,,,,,,,,,,,,
0,70,70,48,1,,617071ff5db0c4852d3c1bb5,62bbfab973dcda4f2d176001,2022-06-29_09h10.37.150,Colour_Asymmetry_Pilot,2022.1.3,Win32,60.14675809,62bbe60bf3d75ef465d3e404,,,,,,,,,,,,,,,,,,,,,,,,,,,,,,,,,,,,,,,,,,,,,,,,,,,,,,,,,,,,,,,,,,,,,,,,,,,,,,,,,,,,,,,,,,,,,,,,,,,,,,,,,,,,,,,,,,,,,,,,,,,,,,,,,,,,,,,,,,,,,,,,,,,,,,,,,,,,,,
0,71,71,16,1,,617071ff5db0c4852d3c1bb5,62bbfab973dcda4f2d176001,2022-06-29_09h10.37.150,Colour_Asymmetry_Pilot,2022.1.3,Win32,60.14675809,62bbe60bf3d75ef465d3e404,,,,,,,,,,,,,,,,,,,,,,,,,,,,,,,,,,,,,,,,,,,,,,,,,,,,,,,,,,,,,,,,,,,,,,,,,,,,,,,,,,,,,,,,,,,,,,,,,,,,,,,,,,,,,,,,,,,,,,,,,,,,,,,,,,,,,,,,,,,,,,,,,,,,,,,,,,,,,,
0,72,72,5,1,,617071ff5db0c4852d3c1bb5,62bbfab973dcda4f2d176001,2022-06-29_09h10.37.150,Colour_Asymmetry_Pilot,2022.1.3,Win32,60.14675809,62bbe60bf3d75ef465d3e404,,,,,,,,,,,,,,,,,,,,,,,,,,,,,,,,,,,,,,,,,,,,,,,,,,,,,,,,,,,,,,,,,,,,,,,,,,,,,,,,,,,,,,,,,,,,,,,,,,,,,,,,,,,,,,,,,,,,,,,,,,,,,,,,,,,,,,,,,,,,,,,,,,,,,,,,,,,,,,
0,73,73,46,1,,617071ff5db0c4852d3c1bb5,62bbfab973dcda4f2d176001,2022-06-29_09h10.37.150,Colour_Asymmetry_Pilot,2022.1.3,Win32,60.14675809,62bbe60bf3d75ef465d3e404,,,,,,,,,,,,,,,,,,,,,,,,,,,,,,,,,,,,,,,,,,,,,,,,,,,,,,,,,,,,,,,,,,,,,,,,,,,,,,,,,,,,,,,,,,,,,,,,,,,,,,,,,,,,,,,,,,,,,,,,,,,,,,,,,,,,,,,,,,,,,,,,,,,,,,,,,,,,,,
0,74,74,59,1,,617071ff5db0c4852d3c1bb5,62bbfab973dcda4f2d176001,2022-06-29_09h10.37.150,Colour_Asymmetry_Pilot,2022.1.3,Win32,60.14675809,62bbe60bf3d75ef465d3e404,,,,,,,,,,,,,,,,,,,,,,,,,,,,,,,,,,,,,,,,,,,,,,,,,,,,,,,,,,,,,,,,,,,,,,,,,,,,,,,,,,,,,,,,,,,,,,,,,,,,,,,,,,,,,,,,,,,,,,,,,,,,,,,,,,,,,,,,,,,,,,,,,,,,,,,,,,,,,,
0,75,75,81,1,,617071ff5db0c4852d3c1bb5,62bbfab973dcda4f2d176001,2022-06-29_09h10.37.150,Colour_Asymmetry_Pilot,2022.1.3,Win32,60.14675809,62bbe60bf3d75ef465d3e404,,,,,,,,,,,,,,,,,,,,,,,,,,,,,,,,,,,,,,,,,,,,,,,,,,,,,,,,,,,,,,,,,,,,,,,,,,,,,,,,,,,,,,,,,,,,,,,,,,,,,,,,,,,,,,,,,,,,,,,,,,,,,,,,,,,,,,,,,,,,,,,,,,,,,,,,,,,,,,
0,76,76,54,1,,617071ff5db0c4852d3c1bb5,62bbfab973dcda4f2d176001,2022-06-29_09h10.37.150,Colour_Asymmetry_Pilot,2022.1.3,Win32,60.14675809,62bbe60bf3d75ef465d3e404,,,,,,,,,,,,,,,,,,,,,,,,,,,,,,,,,,,,,,,,,,,,,,,,,,,,,,,,,,,,,,,,,,,,,,,,,,,,,,,,,,,,,,,,,,,,,,,,,,,,,,,,,,,,,,,,,,,,,,,,,,,,,,,,,,,,,,,,,,,,,,,,,,,,,,,,,,,,,,
0,77,77,7,1,,617071ff5db0c4852d3c1bb5,62bbfab973dcda4f2d176001,2022-06-29_09h10.37.150,Colour_Asymmetry_Pilot,2022.1.3,Win32,60.14675809,62bbe60bf3d75ef465d3e404,,,,,,,,,,,,,,,,,,,,,,,,,,,,,,,,,,,,,,,,,,,,,,,,,,,,,,,,,,,,,,,,,,,,,,,,,,,,,,,,,,,,,,,,,,,,,,,,,,,,,,,,,,,,,,,,,,,,,,,,,,,,,,,,,,,,,,,,,,,,,,,,,,,,,,,,,,,,,,
0,78,78,33,1,,617071ff5db0c4852d3c1bb5,62bbfab973dcda4f2d176001,2022-06-29_09h10.37.150,Colour_Asymmetry_Pilot,2022.1.3,Win32,60.14675809,62bbe60bf3d75ef465d3e404,,,,,,,,,,,,,,,,,,,,,,,,,,,,,,,,,,,,,,,,,,,,,,,,,,,,,,,,,,,,,,,,,,,,,,,,,,,,,,,,,,,,,,,,,,,,,,,,,,,,,,,,,,,,,,,,,,,,,,,,,,,,,,,,,,,,,,,,,,,,,,,,,,,,,,,,,,,,,,
0,79,79,6,1,,617071ff5db0c4852d3c1bb5,62bbfab973dcda4f2d176001,2022-06-29_09h10.37.150,Colour_Asymmetry_Pilot,2022.1.3,Win32,60.14675809,62bbe60bf3d75ef465d3e404,,,,,,,,,,,,,,,,,,,,,,,,,,,,,,,,,,,,,,,,,,,,,,,,,,,,,,,,,,,,,,,,,,,,,,,,,,,,,,,,,,,,,,,,,,,,,,,,,,,,,,,,,,,,,,,,,,,,,,,,,,,,,,,,,,,,,,,,,,,,,,,,,,,,,,,,,,,,,,
0,80,80,26,1,,617071ff5db0c4852d3c1bb5,62bbfab973dcda4f2d176001,2022-06-29_09h10.37.150,Colour_Asymmetry_Pilot,2022.1.3,Win32,60.14675809,62bbe60bf3d75ef465d3e404,,,,,,,,,,,,,,,,,,,,,,,,,,,,,,,,,,,,,,,,,,,,,,,,,,,,,,,,,,,,,,,,,,,,,,,,,,,,,,,,,,,,,,,,,,,,,,,,,,,,,,,,,,,,,,,,,,,,,,,,,,,,,,,,,,,,,,,,,,,,,,,,,,,,,,,,,,,,,,
0,81,81,69,1,,617071ff5db0c4852d3c1bb5,62bbfab973dcda4f2d176001,2022-06-29_09h10.37.150,Colour_Asymmetry_Pilot,2022.1.3,Win32,60.14675809,62bbe60bf3d75ef465d3e404,,,,,,,,,,,,,,,,,,,,,,,,,,,,,,,,,,,,,,,,,,,,,,,,,,,,,,,,,,,,,,,,,,,,,,,,,,,,,,,,,,,,,,,,,,,,,,,,,,,,,,,,,,,,,,,,,,,,,,,,,,,,,,,,,,,,,,,,,,,,,,,,,,,,,,,,,,,,,,
0,82,82,75,1,,617071ff5db0c4852d3c1bb5,62bbfab973dcda4f2d176001,2022-06-29_09h10.37.150,Colour_Asymmetry_Pilot,2022.1.3,Win32,60.14675809,62bbe60bf3d75ef465d3e404,,,,,,,,,,,,,,,,,,,,,,,,,,,,,,,,,,,,,,,,,,,,,,,,,,,,,,,,,,,,,,,,,,,,,,,,,,,,,,,,,,,,,,,,,,,,,,,,,,,,,,,,,,,,,,,,,,,,,,,,,,,,,,,,,,,,,,,,,,,,,,,,,,,,,,,,,,,,,,
0,83,83,92,1,,617071ff5db0c4852d3c1bb5,62bbfab973dcda4f2d176001,2022-06-29_09h10.37.150,Colour_Asymmetry_Pilot,2022.1.3,Win32,60.14675809,62bbe60bf3d75ef465d3e404,,,,,,,,,,,,,,,,,,,,,,,,,,,,,,,,,,,,,,,,,,,,,,,,,,,,,,,,,,,,,,,,,,,,,,,,,,,,,,,,,,,,,,,,,,,,,,,,,,,,,,,,,,,,,,,,,,,,,,,,,,,,,,,,,,,,,,,,,,,,,,,,,,,,,,,,,,,,,,
0,84,84,71,1,,617071ff5db0c4852d3c1bb5,62bbfab973dcda4f2d176001,2022-06-29_09h10.37.150,Colour_Asymmetry_Pilot,2022.1.3,Win32,60.14675809,62bbe60bf3d75ef465d3e404,,,,,,,,,,,,,,,,,,,,,,,,,,,,,,,,,,,,,,,,,,,,,,,,,,,,,,,,,,,,,,,,,,,,,,,,,,,,,,,,,,,,,,,,,,,,,,,,,,,,,,,,,,,,,,,,,,,,,,,,,,,,,,,,,,,,,,,,,,,,,,,,,,,,,,,,,,,,,,
0,85,85,18,1,,617071ff5db0c4852d3c1bb5,62bbfab973dcda4f2d176001,2022-06-29_09h10.37.150,Colour_Asymmetry_Pilot,2022.1.3,Win32,60.14675809,62bbe60bf3d75ef465d3e404,,,,,,,,,,,,,,,,,,,,,,,,,,,,,,,,,,,,,,,,,,,,,,,,,,,,,,,,,,,,,,,,,,,,,,,,,,,,,,,,,,,,,,,,,,,,,,,,,,,,,,,,,,,,,,,,,,,,,,,,,,,,,,,,,,,,,,,,,,,,,,,,,,,,,,,,,,,,,,
0,86,86,55,1,,617071ff5db0c4852d3c1bb5,62bbfab973dcda4f2d176001,2022-06-29_09h10.37.150,Colour_Asymmetry_Pilot,2022.1.3,Win32,60.14675809,62bbe60bf3d75ef465d3e404,,,,,,,,,,,,,,,,,,,,,,,,,,,,,,,,,,,,,,,,,,,,,,,,,,,,,,,,,,,,,,,,,,,,,,,,,,,,,,,,,,,,,,,,,,,,,,,,,,,,,,,,,,,,,,,,,,,,,,,,,,,,,,,,,,,,,,,,,,,,,,,,,,,,,,,,,,,,,,
0,87,87,31,1,,617071ff5db0c4852d3c1bb5,62bbfab973dcda4f2d176001,2022-06-29_09h10.37.150,Colour_Asymmetry_Pilot,2022.1.3,Win32,60.14675809,62bbe60bf3d75ef465d3e404,,,,,,,,,,,,,,,,,,,,,,,,,,,,,,,,,,,,,,,,,,,,,,,,,,,,,,,,,,,,,,,,,,,,,,,,,,,,,,,,,,,,,,,,,,,,,,,,,,,,,,,,,,,,,,,,,,,,,,,,,,,,,,,,,,,,,,,,,,,,,,,,,,,,,,,,,,,,,,
0,88,88,41,1,,617071ff5db0c4852d3c1bb5,62bbfab973dcda4f2d176001,2022-06-29_09h10.37.150,Colour_Asymmetry_Pilot,2022.1.3,Win32,60.14675809,62bbe60bf3d75ef465d3e404,,,,,,,,,,,,,,,,,,,,,,,,,,,,,,,,,,,,,,,,,,,,,,,,,,,,,,,,,,,,,,,,,,,,,,,,,,,,,,,,,,,,,,,,,,,,,,,,,,,,,,,,,,,,,,,,,,,,,,,,,,,,,,,,,,,,,,,,,,,,,,,,,,,,,,,,,,,,,,
0,89,89,43,1,,617071ff5db0c4852d3c1bb5,62bbfab973dcda4f2d176001,2022-06-29_09h10.37.150,Colour_Asymmetry_Pilot,2022.1.3,Win32,60.14675809,62bbe60bf3d75ef465d3e404,,,,,,,,,,,,,,,,,,,,,,,,,,,,,,,,,,,,,,,,,,,,,,,,,,,,,,,,,,,,,,,,,,,,,,,,,,,,,,,,,,,,,,,,,,,,,,,,,,,,,,,,,,,,,,,,,,,,,,,,,,,,,,,,,,,,,,,,,,,,,,,,,,,,,,,,,,,,,,
0,90,90,38,1,,617071ff5db0c4852d3c1bb5,62bbfab973dcda4f2d176001,2022-06-29_09h10.37.150,Colour_Asymmetry_Pilot,2022.1.3,Win32,60.14675809,62bbe60bf3d75ef465d3e404,,,,,,,,,,,,,,,,,,,,,,,,,,,,,,,,,,,,,,,,,,,,,,,,,,,,,,,,,,,,,,,,,,,,,,,,,,,,,,,,,,,,,,,,,,,,,,,,,,,,,,,,,,,,,,,,,,,,,,,,,,,,,,,,,,,,,,,,,,,,,,,,,,,,,,,,,,,,,,
0,91,91,11,1,,617071ff5db0c4852d3c1bb5,62bbfab973dcda4f2d176001,2022-06-29_09h10.37.150,Colour_Asymmetry_Pilot,2022.1.3,Win32,60.14675809,62bbe60bf3d75ef465d3e404,,,,,,,,,,,,,,,,,,,,,,,,,,,,,,,,,,,,,,,,,,,,,,,,,,,,,,,,,,,,,,,,,,,,,,,,,,,,,,,,,,,,,,,,,,,,,,,,,,,,,,,,,,,,,,,,,,,,,,,,,,,,,,,,,,,,,,,,,,,,,,,,,,,,,,,,,,,,,,
0,92,92,85,1,,617071ff5db0c4852d3c1bb5,62bbfab973dcda4f2d176001,2022-06-29_09h10.37.150,Colour_Asymmetry_Pilot,2022.1.3,Win32,60.14675809,62bbe60bf3d75ef465d3e404,,,,,,,,,,,,,,,,,,,,,,,,,,,,,,,,,,,,,,,,,,,,,,,,,,,,,,,,,,,,,,,,,,,,,,,,,,,,,,,,,,,,,,,,,,,,,,,,,,,,,,,,,,,,,,,,,,,,,,,,,,,,,,,,,,,,,,,,,,,,,,,,,,,,,,,,,,,,,,
,,,,,,617071ff5db0c4852d3c1bb5,62bbfab973dcda4f2d176001,2022-06-29_09h10.37.150,Colour_Asymmetry_Pilot,2022.1.3,Win32,60.14675809,62bbe60bf3d75ef465d3e404,0,0,0,87,1,fourthree,,,,,,,,,,,,,,,,,,,,,,,,,,,,,,,,,,,,,,,,,,,,,,,,,,,,,,,,,,,,,,,,,,,,,,,,,,,,,,,,,,,,,,,,,,,,,,,,,,,,,,,,,,,,,,,,,,,,,,,,,,,,,,,,,,,,,,,,,,,,,,,,,,,,,,,,
,,,,,,617071ff5db0c4852d3c1bb5,62bbfab973dcda4f2d176001,2022-06-29_09h10.37.150,Colour_Asymmetry_Pilot,2022.1.3,Win32,60.14675809,62bbe60bf3d75ef465d3e404,0,1,1,10,1,twoone,,,,,,,,,,,,,,,,,,,,,,,,,,,,,,,,,,,,,,,,,,,,,,,,,,,,,,,,,,,,,,,,,,,,,,,,,,,,,,,,,,,,,,,,,,,,,,,,,,,,,,,,,,,,,,,,,,,,,,,,,,,,,,,,,,,,,,,,,,,,,,,,,,,,,,,,
,,,,,,617071ff5db0c4852d3c1bb5,62bbfab973dcda4f2d176001,2022-06-29_09h10.37.150,Colour_Asymmetry_Pilot,2022.1.3,Win32,60.14675809,62bbe60bf3d75ef465d3e404,0,2,2,154,1,twoone,,,,,,,,,,,,,,,,,,,,,,,,,,,,,,,,,,,,,,,,,,,,,,,,,,,,,,,,,,,,,,,,,,,,,,,,,,,,,,,,,,,,,,,,,,,,,,,,,,,,,,,,,,,,,,,,,,,,,,,,,,,,,,,,,,,,,,,,,,,,,,,,,,,,,,,,
,,,,,,617071ff5db0c4852d3c1bb5,62bbfab973dcda4f2d176001,2022-06-29_09h10.37.150,Colour_Asymmetry_Pilot,2022.1.3,Win32,60.14675809,62bbe60bf3d75ef465d3e404,0,3,3,91,1,twofour,,,,,,,,,,,,,,,,,,,,,,,,,,,,,,,,,,,,,,,,,,,,,,,,,,,,,,,,,,,,,,,,,,,,,,,,,,,,,,,,,,,,,,,,,,,,,,,,,,,,,,,,,,,,,,,,,,,,,,,,,,,,,,,,,,,,,,,,,,,,,,,,,,,,,,,,
,,,,,,617071ff5db0c4852d3c1bb5,62bbfab973dcda4f2d176001,2022-06-29_09h10.37.150,Colour_Asymmetry_Pilot,2022.1.3,Win32,60.14675809,62bbe60bf3d75ef465d3e404,0,4,4,17,1,onethree,,,,,,,,,,,,,,,,,,,,,,,,,,,,,,,,,,,,,,,,,,,,,,,,,,,,,,,,,,,,,,,,,,,,,,,,,,,,,,,,,,,,,,,,,,,,,,,,,,,,,,,,,,,,,,,,,,,,,,,,,,,,,,,,,,,,,,,,,,,,,,,,,,,,,,,,
,,,,,,617071ff5db0c4852d3c1bb5,62bbfab973dcda4f2d176001,2022-06-29_09h10.37.150,Colour_Asymmetry_Pilot,2022.1.3,Win32,60.14675809,62bbe60bf3d75ef465d3e404,0,5,5,20,1,threeone,,,,,,,,,,,,,,,,,,,,,,,,,,,,,,,,,,,,,,,,,,,,,,,,,,,,,,,,,,,,,,,,,,,,,,,,,,,,,,,,,,,,,,,,,,,,,,,,,,,,,,,,,,,,,,,,,,,,,,,,,,,,,,,,,,,,,,,,,,,,,,,,,,,,,,,,
,,,,,,617071ff5db0c4852d3c1bb5,62bbfab973dcda4f2d176001,2022-06-29_09h10.37.150,Colour_Asymmetry_Pilot,2022.1.3,Win32,60.14675809,62bbe60bf3d75ef465d3e404,0,6,6,103,1,fourthree,,,,,,,,,,,,,,,,,,,,,,,,,,,,,,,,,,,,,,,,,,,,,,,,,,,,,,,,,,,,,,,,,,,,,,,,,,,,,,,,,,,,,,,,,,,,,,,,,,,,,,,,,,,,,,,,,,,,,,,,,,,,,,,,,,,,,,,,,,,,,,,,,,,,,,,,
,,,,,,617071ff5db0c4852d3c1bb5,62bbfab973dcda4f2d176001,2022-06-29_09h10.37.150,Colour_Asymmetry_Pilot,2022.1.3,Win32,60.14675809,62bbe60bf3d75ef465d3e404,0,7,7,93,1,threefour,,,,,,,,,,,,,,,,,,,,,,,,,,,,,,,,,,,,,,,,,,,,,,,,,,,,,,,,,,,,,,,,,,,,,,,,,,,,,,,,,,,,,,,,,,,,,,,,,,,,,,,,,,,,,,,,,,,,,,,,,,,,,,,,,,,,,,,,,,,,,,,,,,,,,,,,
,,,,,,617071ff5db0c4852d3c1bb5,62bbfab973dcda4f2d176001,2022-06-29_09h10.37.150,Colour_Asymmetry_Pilot,2022.1.3,Win32,60.14675809,62bbe60bf3d75ef465d3e404,0,8,8,58,1,twoone,,,,,,,,,,,,,,,,,,,,,,,,,,,,,,,,,,,,,,,,,,,,,,,,,,,,,,,,,,,,,,,,,,,,,,,,,,,,,,,,,,,,,,,,,,,,,,,,,,,,,,,,,,,,,,,,,,,,,,,,,,,,,,,,,,,,,,,,,,,,,,,,,,,,,,,,
,,,,,,617071ff5db0c4852d3c1bb5,62bbfab973dcda4f2d176001,2022-06-29_09h10.37.150,Colour_Asymmetry_Pilot,2022.1.3,Win32,60.14675809,62bbe60bf3d75ef465d3e404,0,9,9,89,1,onethree,,,,,,,,,,,,,,,,,,,,,,,,,,,,,,,,,,,,,,,,,,,,,,,,,,,,,,,,,,,,,,,,,,,,,,,,,,,,,,,,,,,,,,,,,,,,,,,,,,,,,,,,,,,,,,,,,,,,,,,,,,,,,,,,,,,,,,,,,,,,,,,,,,,,,,,,
,,,,,,617071ff5db0c4852d3c1bb5,62bbfab973dcda4f2d176001,2022-06-29_09h10.37.150,Colour_Asymmetry_Pilot,2022.1.3,Win32,60.14675809,62bbe60bf3d75ef465d3e404,0,10,10,1,1,onethree,,,,,,,,,,,,,,,,,,,,,,,,,,,,,,,,,,,,,,,,,,,,,,,,,,,,,,,,,,,,,,,,,,,,,,,,,,,,,,,,,,,,,,,,,,,,,,,,,,,,,,,,,,,,,,,,,,,,,,,,,,,,,,,,,,,,,,,,,,,,,,,,,,,,,,,,
,,,,,,617071ff5db0c4852d3c1bb5,62bbfab973dcda4f2d176001,2022-06-29_09h10.37.150,Colour_Asymmetry_Pilot,2022.1.3,Win32,60.14675809,62bbe60bf3d75ef465d3e404,0,11,11,95,1,fourthree,,,,,,,,,,,,,,,,,,,,,,,,,,,,,,,,,,,,,,,,,,,,,,,,,,,,,,,,,,,,,,,,,,,,,,,,,,,,,,,,,,,,,,,,,,,,,,,,,,,,,,,,,,,,,,,,,,,,,,,,,,,,,,,,,,,,,,,,,,,,,,,,,,,,,,,,
,,,,,,617071ff5db0c4852d3c1bb5,62bbfab973dcda4f2d176001,2022-06-29_09h10.37.150,Colour_Asymmetry_Pilot,2022.1.3,Win32,60.14675809,62bbe60bf3d75ef465d3e404,0,12,12,140,1,threeone,,,,,,,,,,,,,,,,,,,,,,,,,,,,,,,,,,,,,,,,,,,,,,,,,,,,,,,,,,,,,,,,,,,,,,,,,,,,,,,,,,,,,,,,,,,,,,,,,,,,,,,,,,,,,,,,,,,,,,,,,,,,,,,,,,,,,,,,,,,,,,,,,,,,,,,,
,,,,,,617071ff5db0c4852d3c1bb5,62bbfab973dcda4f2d176001,2022-06-29_09h10.37.150,Colour_Asymmetry_Pilot,2022.1.3,Win32,60.14675809,62bbe60bf3d75ef465d3e404,0,13,13,50,1,twoone,,,,,,,,,,,,,,,,,,,,,,,,,,,,,,,,,,,,,,,,,,,,,,,,,,,,,,,,,,,,,,,,,,,,,,,,,,,,,,,,,,,,,,,,,,,,,,,,,,,,,,,,,,,,,,,,,,,,,,,,,,,,,,,,,,,,,,,,,,,,,,,,,,,,,,,,
,,,,,,617071ff5db0c4852d3c1bb5,62bbfab973dcda4f2d176001,2022-06-29_09h10.37.150,Colour_Asymmetry_Pilot,2022.1.3,Win32,60.14675809,62bbe60bf3d75ef465d3e404,0,14,14,11,1,twofour,,,,,,,,,,,,,,,,,,,,,,,,,,,,,,,,,,,,,,,,,,,,,,,,,,,,,,,,,,,,,,,,,,,,,,,,,,,,,,,,,,,,,,,,,,,,,,,,,,,,,,,,,,,,,,,,,,,,,,,,,,,,,,,,,,,,,,,,,,,,,,,,,,,,,,,,
,,,,,,617071ff5db0c4852d3c1bb5,62bbfab973dcda4f2d176001,2022-06-29_09h10.37.150,Colour_Asymmetry_Pilot,2022.1.3,Win32,60.14675809,62bbe60bf3d75ef465d3e404,0,15,15,47,1,fourthree,,,,,,,,,,,,,,,,,,,,,,,,,,,,,,,,,,,,,,,,,,,,,,,,,,,,,,,,,,,,,,,,,,,,,,,,,,,,,,,,,,,,,,,,,,,,,,,,,,,,,,,,,,,,,,,,,,,,,,,,,,,,,,,,,,,,,,,,,,,,,,,,,,,,,,,,
,,,,,,617071ff5db0c4852d3c1bb5,62bbfab973dcda4f2d176001,2022-06-29_09h10.37.150,Colour_Asymmetry_Pilot,2022.1.3,Win32,60.14675809,62bbe60bf3d75ef465d3e404,0,16,16,149,1,threefour,,,,,,,,,,,,,,,,,,,,,,,,,,,,,,,,,,,,,,,,,,,,,,,,,,,,,,,,,,,,,,,,,,,,,,,,,,,,,,,,,,,,,,,,,,,,,,,,,,,,,,,,,,,,,,,,,,,,,,,,,,,,,,,,,,,,,,,,,,,,,,,,,,,,,,,,
,,,,,,617071ff5db0c4852d3c1bb5,62bbfab973dcda4f2d176001,2022-06-29_09h10.37.150,Colour_Asymmetry_Pilot,2022.1.3,Win32,60.14675809,62bbe60bf3d75ef465d3e404,0,17,17,9,1,onethree,,,,,,,,,,,,,,,,,,,,,,,,,,,,,,,,,,,,,,,,,,,,,,,,,,,,,,,,,,,,,,,,,,,,,,,,,,,,,,,,,,,,,,,,,,,,,,,,,,,,,,,,,,,,,,,,,,,,,,,,,,,,,,,,,,,,,,,,,,,,,,,,,,,,,,,,
,,,,,,617071ff5db0c4852d3c1bb5,62bbfab973dcda4f2d176001,2022-06-29_09h10.37.150,Colour_Asymmetry_Pilot,2022.1.3,Win32,60.14675809,62bbe60bf3d75ef465d3e404,0,18,18,100,1,threeone,,,,,,,,,,,,,,,,,,,,,,,,,,,,,,,,,,,,,,,,,,,,,,,,,,,,,,,,,,,,,,,,,,,,,,,,,,,,,,,,,,,,,,,,,,,,,,,,,,,,,,,,,,,,,,,,,,,,,,,,,,,,,,,,,,,,,,,,,,,,,,,,,,,,,,,,
,,,,,,617071ff5db0c4852d3c1bb5,62bbfab973dcda4f2d176001,2022-06-29_09h10.37.150,Colour_Asymmetry_Pilot,2022.1.3,Win32,60.14675809,62bbe60bf3d75ef465d3e404,0,19,19,64,1,onetwo,,,,,,,,,,,,,,,,,,,,,,,,,,,,,,,,,,,,,,,,,,,,,,,,,,,,,,,,,,,,,,,,,,,,,,,,,,,,,,,,,,,,,,,,,,,,,,,,,,,,,,,,,,,,,,,,,,,,,,,,,,,,,,,,,,,,,,,,,,,,,,,,,,,,,,,,
,,,,,,617071ff5db0c4852d3c1bb5,62bbfab973dcda4f2d176001,2022-06-29_09h10.37.150,Colour_Asymmetry_Pilot,2022.1.3,Win32,60.14675809,62bbe60bf3d75ef465d3e404,0,20,20,118,1,fourtwo,,,,,,,,,,,,,,,,,,,,,,,,,,,,,,,,,,,,,,,,,,,,,,,,,,,,,,,,,,,,,,,,,,,,,,,,,,,,,,,,,,,,,,,,,,,,,,,,,,,,,,,,,,,,,,,,,,,,,,,,,,,,,,,,,,,,,,,,,,,,,,,,,,,,,,,,
,,,,,,617071ff5db0c4852d3c1bb5,62bbfab973dcda4f2d176001,2022-06-29_09h10.37.150,Colour_Asymmetry_Pilot,2022.1.3,Win32,60.14675809,62bbe60bf3d75ef465d3e404,0,21,21,25,1,onethree,,,,,,,,,,,,,,,,,,,,,,,,,,,,,,,,,,,,,,,,,,,,,,,,,,,,,,,,,,,,,,,,,,,,,,,,,,,,,,,,,,,,,,,,,,,,,,,,,,,,,,,,,,,,,,,,,,,,,,,,,,,,,,,,,,,,,,,,,,,,,,,,,,,,,,,,
,,,,,,617071ff5db0c4852d3c1bb5,62bbfab973dcda4f2d176001,2022-06-29_09h10.37.150,Colour_Asymmetry_Pilot,2022.1.3,Win32,60.14675809,62bbe60bf3d75ef465d3e404,0,22,22,150,1,fourtwo,,,,,,,,,,,,,,,,,,,,,,,,,,,,,,,,,,,,,,,,,,,,,,,,,,,,,,,,,,,,,,,,,,,,,,,,,,,,,,,,,,,,,,,,,,,,,,,,,,,,,,,,,,,,,,,,,,,,,,,,,,,,,,,,,,,,,,,,,,,,,,,,,,,,,,,,
,,,,,,617071ff5db0c4852d3c1bb5,62bbfab973dcda4f2d176001,2022-06-29_09h10.37.150,Colour_Asymmetry_Pilot,2022.1.3,Win32,60.14675809,62bbe60bf3d75ef465d3e404,0,23,23,119,1,fourthree,,,,,,,,,,,,,,,,,,,,,,,,,,,,,,,,,,,,,,,,,,,,,,,,,,,,,,,,,,,,,,,,,,,,,,,,,,,,,,,,,,,,,,,,,,,,,,,,,,,,,,,,,,,,,,,,,,,,,,,,,,,,,,,,,,,,,,,,,,,,,,,,,,,,,,,,
,,,,,,617071ff5db0c4852d3c1bb5,62bbfab973dcda4f2d176001,2022-06-29_09h10.37.150,Colour_Asymmetry_Pilot,2022.1.3,Win32,60.14675809,62bbe60bf3d75ef465d3e404,0,24,24,98,1,twoone,,,,,,,,,,,,,,,,,,,,,,,,,,,,,,,,,,,,,,,,,,,,,,,,,,,,,,,,,,,,,,,,,,,,,,,,,,,,,,,,,,,,,,,,,,,,,,,,,,,,,,,,,,,,,,,,,,,,,,,,,,,,,,,,,,,,,,,,,,,,,,,,,,,,,,,,
,,,,,,617071ff5db0c4852d3c1bb5,62bbfab973dcda4f2d176001,2022-06-29_09h10.37.150,Colour_Asymmetry_Pilot,2022.1.3,Win32,60.14675809,62bbe60bf3d75ef465d3e404,0,25,25,148,1,threeone,,,,,,,,,,,,,,,,,,,,,,,,,,,,,,,,,,,,,,,,,,,,,,,,,,,,,,,,,,,,,,,,,,,,,,,,,,,,,,,,,,,,,,,,,,,,,,,,,,,,,,,,,,,,,,,,,,,,,,,,,,,,,,,,,,,,,,,,,,,,,,,,,,,,,,,,
,,,,,,617071ff5db0c4852d3c1bb5,62bbfab973dcda4f2d176001,2022-06-29_09h10.37.150,Colour_Asymmetry_Pilot,2022.1.3,Win32,60.14675809,62bbe60bf3d75ef465d3e404,0,26,26,55,1,fourthree,,,,,,,,,,,,,,,,,,,,,,,,,,,,,,,,,,,,,,,,,,,,,,,,,,,,,,,,,,,,,,,,,,,,,,,,,,,,,,,,,,,,,,,,,,,,,,,,,,,,,,,,,,,,,,,,,,,,,,,,,,,,,,,,,,,,,,,,,,,,,,,,,,,,,,,,
,,,,,,617071ff5db0c4852d3c1bb5,62bbfab973dcda4f2d176001,2022-06-29_09h10.37.150,Colour_Asymmetry_Pilot,2022.1.3,Win32,60.14675809,62bbe60bf3d75ef465d3e404,0,27,27,53,1,threefour,,,,,,,,,,,,,,,,,,,,,,,,,,,,,,,,,,,,,,,,,,,,,,,,,,,,,,,,,,,,,,,,,,,,,,,,,,,,,,,,,,,,,,,,,,,,,,,,,,,,,,,,,,,,,,,,,,,,,,,,,,,,,,,,,,,,,,,,,,,,,,,,,,,,,,,,
,,,,,,617071ff5db0c4852d3c1bb5,62bbfab973dcda4f2d176001,2022-06-29_09h10.37.150,Colour_Asymmetry_Pilot,2022.1.3,Win32,60.14675809,62bbe60bf3d75ef465d3e404,0,28,28,92,1,threeone,,,,,,,,,,,,,,,,,,,,,,,,,,,,,,,,,,,,,,,,,,,,,,,,,,,,,,,,,,,,,,,,,,,,,,,,,,,,,,,,,,,,,,,,,,,,,,,,,,,,,,,,,,,,,,,,,,,,,,,,,,,,,,,,,,,,,,,,,,,,,,,,,,,,,,,,
,,,,,,617071ff5db0c4852d3c1bb5,62bbfab973dcda4f2d176001,2022-06-29_09h10.37.150,Colour_Asymmetry_Pilot,2022.1.3,Win32,60.14675809,62bbe60bf3d75ef465d3e404,0,29,29,23,1,fourthree,,,,,,,,,,,,,,,,,,,,,,,,,,,,,,,,,,,,,,,,,,,,,,,,,,,,,,,,,,,,,,,,,,,,,,,,,,,,,,,,,,,,,,,,,,,,,,,,,,,,,,,,,,,,,,,,,,,,,,,,,,,,,,,,,,,,,,,,,,,,,,,,,,,,,,,,
,,,,,,617071ff5db0c4852d3c1bb5,62bbfab973dcda4f2d176001,2022-06-29_09h10.37.150,Colour_Asymmetry_Pilot,2022.1.3,Win32,60.14675809,62bbe60bf3d75ef465d3e404,0,30,30,86,1,fourtwo,,,,,,,,,,,,,,,,,,,,,,,,,,,,,,,,,,,,,,,,,,,,,,,,,,,,,,,,,,,,,,,,,,,,,,,,,,,,,,,,,,,,,,,,,,,,,,,,,,,,,,,,,,,,,,,,,,,,,,,,,,,,,,,,,,,,,,,,,,,,,,,,,,,,,,,,
,,,,,,617071ff5db0c4852d3c1bb5,62bbfab973dcda4f2d176001,2022-06-29_09h10.37.150,Colour_Asymmetry_Pilot,2022.1.3,Win32,60.14675809,62bbe60bf3d75ef465d3e404,0,31,31,107,1,twofour,,,,,,,,,,,,,,,,,,,,,,,,,,,,,,,,,,,,,,,,,,,,,,,,,,,,,,,,,,,,,,,,,,,,,,,,,,,,,,,,,,,,,,,,,,,,,,,,,,,,,,,,,,,,,,,,,,,,,,,,,,,,,,,,,,,,,,,,,,,,,,,,,,,,,,,,
,,,,,,617071ff5db0c4852d3c1bb5,62bbfab973dcda4f2d176001,2022-06-29_09h10.37.150,Colour_Asymmetry_Pilot,2022.1.3,Win32,60.14675809,62bbe60bf3d75ef465d3e404,0,32,32,104,1,onetwo,,,,,,,,,,,,,,,,,,,,,,,,,,,,,,,,,,,,,,,,,,,,,,,,,,,,,,,,,,,,,,,,,,,,,,,,,,,,,,,,,,,,,,,,,,,,,,,,,,,,,,,,,,,,,,,,,,,,,,,,,,,,,,,,,,,,,,,,,,,,,,,,,,,,,,,,
,,,,,,617071ff5db0c4852d3c1bb5,62bbfab973dcda4f2d176001,2022-06-29_09h10.37.150,Colour_Asymmetry_Pilot,2022.1.3,Win32,60.14675809,62bbe60bf3d75ef465d3e404,0,33,33,152,1,onetwo,,,,,,,,,,,,,,,,,,,,,,,,,,,,,,,,,,,,,,,,,,,,,,,,,,,,,,,,,,,,,,,,,,,,,,,,,,,,,,,,,,,,,,,,,,,,,,,,,,,,,,,,,,,,,,,,,,,,,,,,,,,,,,,,,,,,,,,,,,,,,,,,,,,,,,,,
,,,,,,617071ff5db0c4852d3c1bb5,62bbfab973dcda4f2d176001,2022-06-29_09h10.37.150,Colour_Asymmetry_Pilot,2022.1.3,Win32,60.14675809,62bbe60bf3d75ef465d3e404,0,34,34,94,1,fourtwo,,,,,,,,,,,,,,,,,,,,,,,,,,,,,,,,,,,,,,,,,,,,,,,,,,,,,,,,,,,,,,,,,,,,,,,,,,,,,,,,,,,,,,,,,,,,,,,,,,,,,,,,,,,,,,,,,,,,,,,,,,,,,,,,,,,,,,,,,,,,,,,,,,,,,,,,
,,,,,,617071ff5db0c4852d3c1bb5,62bbfab973dcda4f2d176001,2022-06-29_09h10.37.150,Colour_Asymmetry_Pilot,2022.1.3,Win32,60.14675809,62bbe60bf3d75ef465d3e404,0,35,35,30,1,fourtwo,,,,,,,,,,,,,,,,,,,,,,,,,,,,,,,,,,,,,,,,,,,,,,,,,,,,,,,,,,,,,,,,,,,,,,,,,,,,,,,,,,,,,,,,,,,,,,,,,,,,,,,,,,,,,,,,,,,,,,,,,,,,,,,,,,,,,,,,,,,,,,,,,,,,,,,,
,,,,,,617071ff5db0c4852d3c1bb5,62bbfab973dcda4f2d176001,2022-06-29_09h10.37.150,Colour_Asymmetry_Pilot,2022.1.3,Win32,60.14675809,62bbe60bf3d75ef465d3e404,0,36,36,45,1,threefour,,,,,,,,,,,,,,,,,,,,,,,,,,,,,,,,,,,,,,,,,,,,,,,,,,,,,,,,,,,,,,,,,,,,,,,,,,,,,,,,,,,,,,,,,,,,,,,,,,,,,,,,,,,,,,,,,,,,,,,,,,,,,,,,,,,,,,,,,,,,,,,,,,,,,,,,
,,,,,,617071ff5db0c4852d3c1bb5,62bbfab973dcda4f2d176001,2022-06-29_09h10.37.150,Colour_Asymmetry_Pilot,2022.1.3,Win32,60.14675809,62bbe60bf3d75ef465d3e404,0,37,37,22,1,fourtwo,,,,,,,,,,,,,,,,,,,,,,,,,,,,,,,,,,,,,,,,,,,,,,,,,,,,,,,,,,,,,,,,,,,,,,,,,,,,,,,,,,,,,,,,,,,,,,,,,,,,,,,,,,,,,,,,,,,,,,,,,,,,,,,,,,,,,,,,,,,,,,,,,,,,,,,,
,,,,,,617071ff5db0c4852d3c1bb5,62bbfab973dcda4f2d176001,2022-06-29_09h10.37.150,Colour_Asymmetry_Pilot,2022.1.3,Win32,60.14675809,62bbe60bf3d75ef465d3e404,0,38,38,113,1,onethree,,,,,,,,,,,,,,,,,,,,,,,,,,,,,,,,,,,,,,,,,,,,,,,,,,,,,,,,,,,,,,,,,,,,,,,,,,,,,,,,,,,,,,,,,,,,,,,,,,,,,,,,,,,,,,,,,,,,,,,,,,,,,,,,,,,,,,,,,,,,,,,,,,,,,,,,
,,,,,,617071ff5db0c4852d3c1bb5,62bbfab973dcda4f2d176001,2022-06-29_09h10.37.150,Colour_Asymmetry_Pilot,2022.1.3,Win32,60.14675809,62bbe60bf3d75ef465d3e404,0,39,39,29,1,threefour,,,,,,,,,,,,,,,,,,,,,,,,,,,,,,,,,,,,,,,,,,,,,,,,,,,,,,,,,,,,,,,,,,,,,,,,,,,,,,,,,,,,,,,,,,,,,,,,,,,,,,,,,,,,,,,,,,,,,,,,,,,,,,,,,,,,,,,,,,,,,,,,,,,,,,,,
,,,,,,617071ff5db0c4852d3c1bb5,62bbfab973dcda4f2d176001,2022-06-29_09h10.37.150,Colour_Asymmetry_Pilot,2022.1.3,Win32,60.14675809,62bbe60bf3d75ef465d3e404,0,40,40,7,1,fourthree,,,,,,,,,,,,,,,,,,,,,,,,,,,,,,,,,,,,,,,,,,,,,,,,,,,,,,,,,,,,,,,,,,,,,,,,,,,,,,,,,,,,,,,,,,,,,,,,,,,,,,,,,,,,,,,,,,,,,,,,,,,,,,,,,,,,,,,,,,,,,,,,,,,,,,,,
,,,,,,617071ff5db0c4852d3c1bb5,62bbfab973dcda4f2d176001,2022-06-29_09h10.37.150,Colour_Asymmetry_Pilot,2022.1.3,Win32,60.14675809,62bbe60bf3d75ef465d3e404,0,41,41,160,1,onetwo,,,,,,,,,,,,,,,,,,,,,,,,,,,,,,,,,,,,,,,,,,,,,,,,,,,,,,,,,,,,,,,,,,,,,,,,,,,,,,,,,,,,,,,,,,,,,,,,,,,,,,,,,,,,,,,,,,,,,,,,,,,,,,,,,,,,,,,,,,,,,,,,,,,,,,,,
,,,,,,617071ff5db0c4852d3c1bb5,62bbfab973dcda4f2d176001,2022-06-29_09h10.37.150,Colour_Asymmetry_Pilot,2022.1.3,Win32,60.14675809,62bbe60bf3d75ef465d3e404,0,42,42,141,1,threefour,,,,,,,,,,,,,,,,,,,,,,,,,,,,,,,,,,,,,,,,,,,,,,,,,,,,,,,,,,,,,,,,,,,,,,,,,,,,,,,,,,,,,,,,,,,,,,,,,,,,,,,,,,,,,,,,,,,,,,,,,,,,,,,,,,,,,,,,,,,,,,,,,,,,,,,,
,,,,,,617071ff5db0c4852d3c1bb5,62bbfab973dcda4f2d176001,2022-06-29_09h10.37.150,Colour_Asymmetry_Pilot,2022.1.3,Win32,60.14675809,62bbe60bf3d75ef465d3e404,0,43,43,67,1,twofour,,,,,,,,,,,,,,,,,,,,,,,,,,,,,,,,,,,,,,,,,,,,,,,,,,,,,,,,,,,,,,,,,,,,,,,,,,,,,,,,,,,,,,,,,,,,,,,,,,,,,,,,,,,,,,,,,,,,,,,,,,,,,,,,,,,,,,,,,,,,,,,,,,,,,,,,
,,,,,,617071ff5db0c4852d3c1bb5,62bbfab973dcda4f2d176001,2022-06-29_09h10.37.150,Colour_Asymmetry_Pilot,2022.1.3,Win32,60.14675809,62bbe60bf3d75ef465d3e404,0,44,44,68,1,threeone,,,,,,,,,,,,,,,,,,,,,,,,,,,,,,,,,,,,,,,,,,,,,,,,,,,,,,,,,,,,,,,,,,,,,,,,,,,,,,,,,,,,,,,,,,,,,,,,,,,,,,,,,,,,,,,,,,,,,,,,,,,,,,,,,,,,,,,,,,,,,,,,,,,,,,,,
,,,,,,617071ff5db0c4852d3c1bb5,62bbfab973dcda4f2d176001,2022-06-29_09h10.37.150,Colour_Asymmetry_Pilot,2022.1.3,Win32,60.14675809,62bbe60bf3d75ef465d3e404,0,45,45,57,1,onethree,,,,,,,,,,,,,,,,,,,,,,,,,,,,,,,,,,,,,,,,,,,,,,,,,,,,,,,,,,,,,,,,,,,,,,,,,,,,,,,,,,,,,,,,,,,,,,,,,,,,,,,,,,,,,,,,,,,,,,,,,,,,,,,,,,,,,,,,,,,,,,,,,,,,,,,,
,,,,,,617071ff5db0c4852d3c1bb5,62bbfab973dcda4f2d176001,2022-06-29_09h10.37.150,Colour_Asymmetry_Pilot,2022.1.3,Win32,60.14675809,62bbe60bf3d75ef465d3e404,0,46,46,40,1,onetwo,,,,,,,,,,,,,,,,,,,,,,,,,,,,,,,,,,,,,,,,,,,,,,,,,,,,,,,,,,,,,,,,,,,,,,,,,,,,,,,,,,,,,,,,,,,,,,,,,,,,,,,,,,,,,,,,,,,,,,,,,,,,,,,,,,,,,,,,,,,,,,,,,,,,,,,,
,,,,,,617071ff5db0c4852d3c1bb5,62bbfab973dcda4f2d176001,2022-06-29_09h10.37.150,Colour_Asymmetry_Pilot,2022.1.3,Win32,60.14675809,62bbe60bf3d75ef465d3e404,0,47,47,8,1,onetwo,,,,,,,,,,,,,,,,,,,,,,,,,,,,,,,,,,,,,,,,,,,,,,,,,,,,,,,,,,,,,,,,,,,,,,,,,,,,,,,,,,,,,,,,,,,,,,,,,,,,,,,,,,,,,,,,,,,,,,,,,,,,,,,,,,,,,,,,,,,,,,,,,,,,,,,,
,,,,,,617071ff5db0c4852d3c1bb5,62bbfab973dcda4f2d176001,2022-06-29_09h10.37.150,Colour_Asymmetry_Pilot,2022.1.3,Win32,60.14675809,62bbe60bf3d75ef465d3e404,0,48,48,71,1,fourthree,,,,,,,,,,,,,,,,,,,,,,,,,,,,,,,,,,,,,,,,,,,,,,,,,,,,,,,,,,,,,,,,,,,,,,,,,,,,,,,,,,,,,,,,,,,,,,,,,,,,,,,,,,,,,,,,,,,,,,,,,,,,,,,,,,,,,,,,,,,,,,,,,,,,,,,,
,,,,,,617071ff5db0c4852d3c1bb5,62bbfab973dcda4f2d176001,2022-06-29_09h10.37.150,Colour_Asymmetry_Pilot,2022.1.3,Win32,60.14675809,62bbe60bf3d75ef465d3e404,0,49,49,73,1,onethree,,,,,,,,,,,,,,,,,,,,,,,,,,,,,,,,,,,,,,,,,,,,,,,,,,,,,,,,,,,,,,,,,,,,,,,,,,,,,,,,,,,,,,,,,,,,,,,,,,,,,,,,,,,,,,,,,,,,,,,,,,,,,,,,,,,,,,,,,,,,,,,,,,,,,,,,
,,,,,,617071ff5db0c4852d3c1bb5,62bbfab973dcda4f2d176001,2022-06-29_09h10.37.150,Colour_Asymmetry_Pilot,2022.1.3,Win32,60.14675809,62bbe60bf3d75ef465d3e404,0,50,50,27,1,twofour,,,,,,,,,,,,,,,,,,,,,,,,,,,,,,,,,,,,,,,,,,,,,,,,,,,,,,,,,,,,,,,,,,,,,,,,,,,,,,,,,,,,,,,,,,,,,,,,,,,,,,,,,,,,,,,,,,,,,,,,,,,,,,,,,,,,,,,,,,,,,,,,,,,,,,,,
,,,,,,617071ff5db0c4852d3c1bb5,62bbfab973dcda4f2d176001,2022-06-29_09h10.37.150,Colour_Asymmetry_Pilot,2022.1.3,Win32,60.14675809,62bbe60bf3d75ef465d3e404,0,51,51,137,1,onethree,,,,,,,,,,,,,,,,,,,,,,,,,,,,,,,,,,,,,,,,,,,,,,,,,,,,,,,,,,,,,,,,,,,,,,,,,,,,,,,,,,,,,,,,,,,,,,,,,,,,,,,,,,,,,,,,,,,,,,,,,,,,,,,,,,,,,,,,,,,,,,,,,,,,,,,,
,,,,,,617071ff5db0c4852d3c1bb5,62bbfab973dcda4f2d176001,2022-06-29_09h10.37.150,Colour_Asymmetry_Pilot,2022.1.3,Win32,60.14675809,62bbe60bf3d75ef465d3e404,0,52,52,69,1,threefour,,,,,,,,,,,,,,,,,,,,,,,,,,,,,,,,,,,,,,,,,,,,,,,,,,,,,,,,,,,,,,,,,,,,,,,,,,,,,,,,,,,,,,,,,,,,,,,,,,,,,,,,,,,,,,,,,,,,,,,,,,,,,,,,,,,,,,,,,,,,,,,,,,,,,,,,
,,,,,,617071ff5db0c4852d3c1bb5,62bbfab973dcda4f2d176001,2022-06-29_09h10.37.150,Colour_Asymmetry_Pilot,2022.1.3,Win32,60.14675809,62bbe60bf3d75ef465d3e404,0,53,53,134,1,fourtwo,,,,,,,,,,,,,,,,,,,,,,,,,,,,,,,,,,,,,,,,,,,,,,,,,,,,,,,,,,,,,,,,,,,,,,,,,,,,,,,,,,,,,,,,,,,,,,,,,,,,,,,,,,,,,,,,,,,,,,,,,,,,,,,,,,,,,,,,,,,,,,,,,,,,,,,,
,,,,,,617071ff5db0c4852d3c1bb5,62bbfab973dcda4f2d176001,2022-06-29_09h10.37.150,Colour_Asymmetry_Pilot,2022.1.3,Win32,60.14675809,62bbe60bf3d75ef465d3e404,0,54,54,14,1,fourtwo,,,,,,,,,,,,,,,,,,,,,,,,,,,,,,,,,,,,,,,,,,,,,,,,,,,,,,,,,,,,,,,,,,,,,,,,,,,,,,,,,,,,,,,,,,,,,,,,,,,,,,,,,,,,,,,,,,,,,,,,,,,,,,,,,,,,,,,,,,,,,,,,,,,,,,,,
,,,,,,617071ff5db0c4852d3c1bb5,62bbfab973dcda4f2d176001,2022-06-29_09h10.37.150,Colour_Asymmetry_Pilot,2022.1.3,Win32,60.14675809,62bbe60bf3d75ef465d3e404,0,55,55,24,1,onetwo,,,,,,,,,,,,,,,,,,,,,,,,,,,,,,,,,,,,,,,,,,,,,,,,,,,,,,,,,,,,,,,,,,,,,,,,,,,,,,,,,,,,,,,,,,,,,,,,,,,,,,,,,,,,,,,,,,,,,,,,,,,,,,,,,,,,,,,,,,,,,,,,,,,,,,,,
,,,,,,617071ff5db0c4852d3c1bb5,62bbfab973dcda4f2d176001,2022-06-29_09h10.37.150,Colour_Asymmetry_Pilot,2022.1.3,Win32,60.14675809,62bbe60bf3d75ef465d3e404,0,56,56,33,1,onethree,,,,,,,,,,,,,,,,,,,,,,,,,,,,,,,,,,,,,,,,,,,,,,,,,,,,,,,,,,,,,,,,,,,,,,,,,,,,,,,,,,,,,,,,,,,,,,,,,,,,,,,,,,,,,,,,,,,,,,,,,,,,,,,,,,,,,,,,,,,,,,,,,,,,,,,,
,,,,,,617071ff5db0c4852d3c1bb5,62bbfab973dcda4f2d176001,2022-06-29_09h10.37.150,Colour_Asymmetry_Pilot,2022.1.3,Win32,60.14675809,62bbe60bf3d75ef465d3e404,0,57,57,142,1,fourtwo,,,,,,,,,,,,,,,,,,,,,,,,,,,,,,,,,,,,,,,,,,,,,,,,,,,,,,,,,,,,,,,,,,,,,,,,,,,,,,,,,,,,,,,,,,,,,,,,,,,,,,,,,,,,,,,,,,,,,,,,,,,,,,,,,,,,,,,,,,,,,,,,,,,,,,,,
,,,,,,617071ff5db0c4852d3c1bb5,62bbfab973dcda4f2d176001,2022-06-29_09h10.37.150,Colour_Asymmetry_Pilot,2022.1.3,Win32,60.14675809,62bbe60bf3d75ef465d3e404,0,58,58,35,1,twofour,,,,,,,,,,,,,,,,,,,,,,,,,,,,,,,,,,,,,,,,,,,,,,,,,,,,,,,,,,,,,,,,,,,,,,,,,,,,,,,,,,,,,,,,,,,,,,,,,,,,,,,,,,,,,,,,,,,,,,,,,,,,,,,,,,,,,,,,,,,,,,,,,,,,,,,,
,,,,,,617071ff5db0c4852d3c1bb5,62bbfab973dcda4f2d176001,2022-06-29_09h10.37.150,Colour_Asymmetry_Pilot,2022.1.3,Win32,60.14675809,62bbe60bf3d75ef465d3e404,0,59,59,54,1,fourtwo,,,,,,,,,,,,,,,,,,,,,,,,,,,,,,,,,,,,,,,,,,,,,,,,,,,,,,,,,,,,,,,,,,,,,,,,,,,,,,,,,,,,,,,,,,,,,,,,,,,,,,,,,,,,,,,,,,,,,,,,,,,,,,,,,,,,,,,,,,,,,,,,,,,,,,,,
,,,,,,617071ff5db0c4852d3c1bb5,62bbfab973dcda4f2d176001,2022-06-29_09h10.37.150,Colour_Asymmetry_Pilot,2022.1.3,Win32,60.14675809,62bbe60bf3d75ef465d3e404,0,60,60,12,1,threeone,,,,,,,,,,,,,,,,,,,,,,,,,,,,,,,,,,,,,,,,,,,,,,,,,,,,,,,,,,,,,,,,,,,,,,,,,,,,,,,,,,,,,,,,,,,,,,,,,,,,,,,,,,,,,,,,,,,,,,,,,,,,,,,,,,,,,,,,,,,,,,,,,,,,,,,,
,,,,,,617071ff5db0c4852d3c1bb5,62bbfab973dcda4f2d176001,2022-06-29_09h10.37.150,Colour_Asymmetry_Pilot,2022.1.3,Win32,60.14675809,62bbe60bf3d75ef465d3e404,0,61,61,6,1,fourtwo,,,,,,,,,,,,,,,,,,,,,,,,,,,,,,,,,,,,,,,,,,,,,,,,,,,,,,,,,,,,,,,,,,,,,,,,,,,,,,,,,,,,,,,,,,,,,,,,,,,,,,,,,,,,,,,,,,,,,,,,,,,,,,,,,,,,,,,,,,,,,,,,,,,,,,,,
,,,,,,617071ff5db0c4852d3c1bb5,62bbfab973dcda4f2d176001,2022-06-29_09h10.37.150,Colour_Asymmetry_Pilot,2022.1.3,Win32,60.14675809,62bbe60bf3d75ef465d3e404,0,62,62,5,1,threefour,,,,,,,,,,,,,,,,,,,,,,,,,,,,,,,,,,,,,,,,,,,,,,,,,,,,,,,,,,,,,,,,,,,,,,,,,,,,,,,,,,,,,,,,,,,,,,,,,,,,,,,,,,,,,,,,,,,,,,,,,,,,,,,,,,,,,,,,,,,,,,,,,,,,,,,,
,,,,,,617071ff5db0c4852d3c1bb5,62bbfab973dcda4f2d176001,2022-06-29_09h10.37.150,Colour_Asymmetry_Pilot,2022.1.3,Win32,60.14675809,62bbe60bf3d75ef465d3e404,0,63,63,110,1,fourtwo,,,,,,,,,,,,,,,,,,,,,,,,,,,,,,,,,,,,,,,,,,,,,,,,,,,,,,,,,,,,,,,,,,,,,,,,,,,,,,,,,,,,,,,,,,,,,,,,,,,,,,,,,,,,,,,,,,,,,,,,,,,,,,,,,,,,,,,,,,,,,,,,,,,,,,,,
,,,,,,617071ff5db0c4852d3c1bb5,62bbfab973dcda4f2d176001,2022-06-29_09h10.37.150,Colour_Asymmetry_Pilot,2022.1.3,Win32,60.14675809,62bbe60bf3d75ef465d3e404,0,64,64,132,1,threeone,,,,,,,,,,,,,,,,,,,,,,,,,,,,,,,,,,,,,,,,,,,,,,,,,,,,,,,,,,,,,,,,,,,,,,,,,,,,,,,,,,,,,,,,,,,,,,,,,,,,,,,,,,,,,,,,,,,,,,,,,,,,,,,,,,,,,,,,,,,,,,,,,,,,,,,,
,,,,,,617071ff5db0c4852d3c1bb5,62bbfab973dcda4f2d176001,2022-06-29_09h10.37.150,Colour_Asymmetry_Pilot,2022.1.3,Win32,60.14675809,62bbe60bf3d75ef465d3e404,0,65,65,109,1,threefour,,,,,,,,,,,,,,,,,,,,,,,,,,,,,,,,,,,,,,,,,,,,,,,,,,,,,,,,,,,,,,,,,,,,,,,,,,,,,,,,,,,,,,,,,,,,,,,,,,,,,,,,,,,,,,,,,,,,,,,,,,,,,,,,,,,,,,,,,,,,,,,,,,,,,,,,
,,,,,,617071ff5db0c4852d3c1bb5,62bbfab973dcda4f2d176001,2022-06-29_09h10.37.150,Colour_Asymmetry_Pilot,2022.1.3,Win32,60.14675809,62bbe60bf3d75ef465d3e404,0,66,66,111,1,fourthree,,,,,,,,,,,,,,,,,,,,,,,,,,,,,,,,,,,,,,,,,,,,,,,,,,,,,,,,,,,,,,,,,,,,,,,,,,,,,,,,,,,,,,,,,,,,,,,,,,,,,,,,,,,,,,,,,,,,,,,,,,,,,,,,,,,,,,,,,,,,,,,,,,,,,,,,
,,,,,,617071ff5db0c4852d3c1bb5,62bbfab973dcda4f2d176001,2022-06-29_09h10.37.150,Colour_Asymmetry_Pilot,2022.1.3,Win32,60.14675809,62bbe60bf3d75ef465d3e404,0,67,67,121,1,onethree,,,,,,,,,,,,,,,,,,,,,,,,,,,,,,,,,,,,,,,,,,,,,,,,,,,,,,,,,,,,,,,,,,,,,,,,,,,,,,,,,,,,,,,,,,,,,,,,,,,,,,,,,,,,,,,,,,,,,,,,,,,,,,,,,,,,,,,,,,,,,,,,,,,,,,,,
,,,,,,617071ff5db0c4852d3c1bb5,62bbfab973dcda4f2d176001,2022-06-29_09h10.37.150,Colour_Asymmetry_Pilot,2022.1.3,Win32,60.14675809,62bbe60bf3d75ef465d3e404,0,68,68,84,1,threeone,,,,,,,,,,,,,,,,,,,,,,,,,,,,,,,,,,,,,,,,,,,,,,,,,,,,,,,,,,,,,,,,,,,,,,,,,,,,,,,,,,,,,,,,,,,,,,,,,,,,,,,,,,,,,,,,,,,,,,,,,,,,,,,,,,,,,,,,,,,,,,,,,,,,,,,,
,,,,,,617071ff5db0c4852d3c1bb5,62bbfab973dcda4f2d176001,2022-06-29_09h10.37.150,Colour_Asymmetry_Pilot,2022.1.3,Win32,60.14675809,62bbe60bf3d75ef465d3e404,0,69,69,155,1,twofour,,,,,,,,,,,,,,,,,,,,,,,,,,,,,,,,,,,,,,,,,,,,,,,,,,,,,,,,,,,,,,,,,,,,,,,,,,,,,,,,,,,,,,,,,,,,,,,,,,,,,,,,,,,,,,,,,,,,,,,,,,,,,,,,,,,,,,,,,,,,,,,,,,,,,,,,
,,,,,,617071ff5db0c4852d3c1bb5,62bbfab973dcda4f2d176001,2022-06-29_09h10.37.150,Colour_Asymmetry_Pilot,2022.1.3,Win32,60.14675809,62bbe60bf3d75ef465d3e404,0,70,70,36,1,threeone,,,,,,,,,,,,,,,,,,,,,,,,,,,,,,,,,,,,,,,,,,,,,,,,,,,,,,,,,,,,,,,,,,,,,,,,,,,,,,,,,,,,,,,,,,,,,,,,,,,,,,,,,,,,,,,,,,,,,,,,,,,,,,,,,,,,,,,,,,,,,,,,,,,,,,,,
,,,,,,617071ff5db0c4852d3c1bb5,62bbfab973dcda4f2d176001,2022-06-29_09h10.37.150,Colour_Asymmetry_Pilot,2022.1.3,Win32,60.14675809,62bbe60bf3d75ef465d3e404,0,71,71,59,1,twofour,,,,,,,,,,,,,,,,,,,,,,,,,,,,,,,,,,,,,,,,,,,,,,,,,,,,,,,,,,,,,,,,,,,,,,,,,,,,,,,,,,,,,,,,,,,,,,,,,,,,,,,,,,,,,,,,,,,,,,,,,,,,,,,,,,,,,,,,,,,,,,,,,,,,,,,,
,,,,,,617071ff5db0c4852d3c1bb5,62bbfab973dcda4f2d176001,2022-06-29_09h10.37.150,Colour_Asymmetry_Pilot,2022.1.3,Win32,60.14675809,62bbe60bf3d75ef465d3e404,0,72,72,126,1,fourtwo,,,,,,,,,,,,,,,,,,,,,,,,,,,,,,,,,,,,,,,,,,,,,,,,,,,,,,,,,,,,,,,,,,,,,,,,,,,,,,,,,,,,,,,,,,,,,,,,,,,,,,,,,,,,,,,,,,,,,,,,,,,,,,,,,,,,,,,,,,,,,,,,,,,,,,,,
,,,,,,617071ff5db0c4852d3c1bb5,62bbfab973dcda4f2d176001,2022-06-29_09h10.37.150,Colour_Asymmetry_Pilot,2022.1.3,Win32,60.14675809,62bbe60bf3d75ef465d3e404,0,73,73,145,1,onethree,,,,,,,,,,,,,,,,,,,,,,,,,,,,,,,,,,,,,,,,,,,,,,,,,,,,,,,,,,,,,,,,,,,,,,,,,,,,,,,,,,,,,,,,,,,,,,,,,,,,,,,,,,,,,,,,,,,,,,,,,,,,,,,,,,,,,,,,,,,,,,,,,,,,,,,,
,,,,,,617071ff5db0c4852d3c1bb5,62bbfab973dcda4f2d176001,2022-06-29_09h10.37.150,Colour_Asymmetry_Pilot,2022.1.3,Win32,60.14675809,62bbe60bf3d75ef465d3e404,0,74,74,49,1,onethree,,,,,,,,,,,,,,,,,,,,,,,,,,,,,,,,,,,,,,,,,,,,,,,,,,,,,,,,,,,,,,,,,,,,,,,,,,,,,,,,,,,,,,,,,,,,,,,,,,,,,,,,,,,,,,,,,,,,,,,,,,,,,,,,,,,,,,,,,,,,,,,,,,,,,,,,
,,,,,,617071ff5db0c4852d3c1bb5,62bbfab973dcda4f2d176001,2022-06-29_09h10.37.150,Colour_Asymmetry_Pilot,2022.1.3,Win32,60.14675809,62bbe60bf3d75ef465d3e404,0,75,75,117,1,threefour,,,,,,,,,,,,,,,,,,,,,,,,,,,,,,,,,,,,,,,,,,,,,,,,,,,,,,,,,,,,,,,,,,,,,,,,,,,,,,,,,,,,,,,,,,,,,,,,,,,,,,,,,,,,,,,,,,,,,,,,,,,,,,,,,,,,,,,,,,,,,,,,,,,,,,,,
,,,,,,617071ff5db0c4852d3c1bb5,62bbfab973dcda4f2d176001,2022-06-29_09h10.37.150,Colour_Asymmetry_Pilot,2022.1.3,Win32,60.14675809,62bbe60bf3d75ef465d3e404,0,76,76,101,1,threefour,,,,,,,,,,,,,,,,,,,,,,,,,,,,,,,,,,,,,,,,,,,,,,,,,,,,,,,,,,,,,,,,,,,,,,,,,,,,,,,,,,,,,,,,,,,,,,,,,,,,,,,,,,,,,,,,,,,,,,,,,,,,,,,,,,,,,,,,,,,,,,,,,,,,,,,,
,,,,,,617071ff5db0c4852d3c1bb5,62bbfab973dcda4f2d176001,2022-06-29_09h10.37.150,Colour_Asymmetry_Pilot,2022.1.3,Win32,60.14675809,62bbe60bf3d75ef465d3e404,0,77,77,66,1,twoone,,,,,,,,,,,,,,,,,,,,,,,,,,,,,,,,,,,,,,,,,,,,,,,,,,,,,,,,,,,,,,,,,,,,,,,,,,,,,,,,,,,,,,,,,,,,,,,,,,,,,,,,,,,,,,,,,,,,,,,,,,,,,,,,,,,,,,,,,,,,,,,,,,,,,,,,
,,,,,,617071ff5db0c4852d3c1bb5,62bbfab973dcda4f2d176001,2022-06-29_09h10.37.150,Colour_Asymmetry_Pilot,2022.1.3,Win32,60.14675809,62bbe60bf3d75ef465d3e404,0,78,78,82,1,twoone,,,,,,,,,,,,,,,,,,,,,,,,,,,,,,,,,,,,,,,,,,,,,,,,,,,,,,,,,,,,,,,,,,,,,,,,,,,,,,,,,,,,,,,,,,,,,,,,,,,,,,,,,,,,,,,,,,,,,,,,,,,,,,,,,,,,,,,,,,,,,,,,,,,,,,,,
,,,,,,617071ff5db0c4852d3c1bb5,62bbfab973dcda4f2d176001,2022-06-29_09h10.37.150,Colour_Asymmetry_Pilot,2022.1.3,Win32,60.14675809,62bbe60bf3d75ef465d3e404,0,79,79,74,1,twoone,,,,,,,,,,,,,,,,,,,,,,,,,,,,,,,,,,,,,,,,,,,,,,,,,,,,,,,,,,,,,,,,,,,,,,,,,,,,,,,,,,,,,,,,,,,,,,,,,,,,,,,,,,,,,,,,,,,,,,,,,,,,,,,,,,,,,,,,,,,,,,,,,,,,,,,,
,,,,,,617071ff5db0c4852d3c1bb5,62bbfab973dcda4f2d176001,2022-06-29_09h10.37.150,Colour_Asymmetry_Pilot,2022.1.3,Win32,60.14675809,62bbe60bf3d75ef465d3e404,0,80,80,78,1,fourtwo,,,,,,,,,,,,,,,,,,,,,,,,,,,,,,,,,,,,,,,,,,,,,,,,,,,,,,,,,,,,,,,,,,,,,,,,,,,,,,,,,,,,,,,,,,,,,,,,,,,,,,,,,,,,,,,,,,,,,,,,,,,,,,,,,,,,,,,,,,,,,,,,,,,,,,,,
,,,,,,617071ff5db0c4852d3c1bb5,62bbfab973dcda4f2d176001,2022-06-29_09h10.37.150,Colour_Asymmetry_Pilot,2022.1.3,Win32,60.14675809,62bbe60bf3d75ef465d3e404,0,81,81,102,1,fourtwo,,,,,,,,,,,,,,,,,,,,,,,,,,,,,,,,,,,,,,,,,,,,,,,,,,,,,,,,,,,,,,,,,,,,,,,,,,,,,,,,,,,,,,,,,,,,,,,,,,,,,,,,,,,,,,,,,,,,,,,,,,,,,,,,,,,,,,,,,,,,,,,,,,,,,,,,
,,,,,,617071ff5db0c4852d3c1bb5,62bbfab973dcda4f2d176001,2022-06-29_09h10.37.150,Colour_Asymmetry_Pilot,2022.1.3,Win32,60.14675809,62bbe60bf3d75ef465d3e404,0,82,82,75,1,twofour,,,,,,,,,,,,,,,,,,,,,,,,,,,,,,,,,,,,,,,,,,,,,,,,,,,,,,,,,,,,,,,,,,,,,,,,,,,,,,,,,,,,,,,,,,,,,,,,,,,,,,,,,,,,,,,,,,,,,,,,,,,,,,,,,,,,,,,,,,,,,,,,,,,,,,,,
,,,,,,617071ff5db0c4852d3c1bb5,62bbfab973dcda4f2d176001,2022-06-29_09h10.37.150,Colour_Asymmetry_Pilot,2022.1.3,Win32,60.14675809,62bbe60bf3d75ef465d3e404,0,83,83,18,1,twoone,,,,,,,,,,,,,,,,,,,,,,,,,,,,,,,,,,,,,,,,,,,,,,,,,,,,,,,,,,,,,,,,,,,,,,,,,,,,,,,,,,,,,,,,,,,,,,,,,,,,,,,,,,,,,,,,,,,,,,,,,,,,,,,,,,,,,,,,,,,,,,,,,,,,,,,,
,,,,,,617071ff5db0c4852d3c1bb5,62bbfab973dcda4f2d176001,2022-06-29_09h10.37.150,Colour_Asymmetry_Pilot,2022.1.3,Win32,60.14675809,62bbe60bf3d75ef465d3e404,0,84,84,136,1,onetwo,,,,,,,,,,,,,,,,,,,,,,,,,,,,,,,,,,,,,,,,,,,,,,,,,,,,,,,,,,,,,,,,,,,,,,,,,,,,,,,,,,,,,,,,,,,,,,,,,,,,,,,,,,,,,,,,,,,,,,,,,,,,,,,,,,,,,,,,,,,,,,,,,,,,,,,,
,,,,,,617071ff5db0c4852d3c1bb5,62bbfab973dcda4f2d176001,2022-06-29_09h10.37.150,Colour_Asymmetry_Pilot,2022.1.3,Win32,60.14675809,62bbe60bf3d75ef465d3e404,0,85,85,153,1,onethree,,,,,,,,,,,,,,,,,,,,,,,,,,,,,,,,,,,,,,,,,,,,,,,,,,,,,,,,,,,,,,,,,,,,,,,,,,,,,,,,,,,,,,,,,,,,,,,,,,,,,,,,,,,,,,,,,,,,,,,,,,,,,,,,,,,,,,,,,,,,,,,,,,,,,,,,
,,,,,,617071ff5db0c4852d3c1bb5,62bbfab973dcda4f2d176001,2022-06-29_09h10.37.150,Colour_Asymmetry_Pilot,2022.1.3,Win32,60.14675809,62bbe60bf3d75ef465d3e404,0,86,86,130,1,twoone,,,,,,,,,,,,,,,,,,,,,,,,,,,,,,,,,,,,,,,,,,,,,,,,,,,,,,,,,,,,,,,,,,,,,,,,,,,,,,,,,,,,,,,,,,,,,,,,,,,,,,,,,,,,,,,,,,,,,,,,,,,,,,,,,,,,,,,,,,,,,,,,,,,,,,,,
,,,,,,617071ff5db0c4852d3c1bb5,62bbfab973dcda4f2d176001,2022-06-29_09h10.37.150,Colour_Asymmetry_Pilot,2022.1.3,Win32,60.14675809,62bbe60bf3d75ef465d3e404,0,87,87,108,1,threeone,,,,,,,,,,,,,,,,,,,,,,,,,,,,,,,,,,,,,,,,,,,,,,,,,,,,,,,,,,,,,,,,,,,,,,,,,,,,,,,,,,,,,,,,,,,,,,,,,,,,,,,,,,,,,,,,,,,,,,,,,,,,,,,,,,,,,,,,,,,,,,,,,,,,,,,,
,,,,,,617071ff5db0c4852d3c1bb5,62bbfab973dcda4f2d176001,2022-06-29_09h10.37.150,Colour_Asymmetry_Pilot,2022.1.3,Win32,60.14675809,62bbe60bf3d75ef465d3e404,0,88,88,99,1,twofour,,,,,,,,,,,,,,,,,,,,,,,,,,,,,,,,,,,,,,,,,,,,,,,,,,,,,,,,,,,,,,,,,,,,,,,,,,,,,,,,,,,,,,,,,,,,,,,,,,,,,,,,,,,,,,,,,,,,,,,,,,,,,,,,,,,,,,,,,,,,,,,,,,,,,,,,
,,,,,,617071ff5db0c4852d3c1bb5,62bbfab973dcda4f2d176001,2022-06-29_09h10.37.150,Colour_Asymmetry_Pilot,2022.1.3,Win32,60.14675809,62bbe60bf3d75ef465d3e404,0,89,89,79,1,fourthree,,,,,,,,,,,,,,,,,,,,,,,,,,,,,,,,,,,,,,,,,,,,,,,,,,,,,,,,,,,,,,,,,,,,,,,,,,,,,,,,,,,,,,,,,,,,,,,,,,,,,,,,,,,,,,,,,,,,,,,,,,,,,,,,,,,,,,,,,,,,,,,,,,,,,,,,
,,,,,,617071ff5db0c4852d3c1bb5,62bbfab973dcda4f2d176001,2022-06-29_09h10.37.150,Colour_Asymmetry_Pilot,2022.1.3,Win32,60.14675809,62bbe60bf3d75ef465d3e404,0,90,90,51,1,twofour,,,,,,,,,,,,,,,,,,,,,,,,,,,,,,,,,,,,,,,,,,,,,,,,,,,,,,,,,,,,,,,,,,,,,,,,,,,,,,,,,,,,,,,,,,,,,,,,,,,,,,,,,,,,,,,,,,,,,,,,,,,,,,,,,,,,,,,,,,,,,,,,,,,,,,,,
,,,,,,617071ff5db0c4852d3c1bb5,62bbfab973dcda4f2d176001,2022-06-29_09h10.37.150,Colour_Asymmetry_Pilot,2022.1.3,Win32,60.14675809,62bbe60bf3d75ef465d3e404,0,91,91,26,1,twoone,,,,,,,,,,,,,,,,,,,,,,,,,,,,,,,,,,,,,,,,,,,,,,,,,,,,,,,,,,,,,,,,,,,,,,,,,,,,,,,,,,,,,,,,,,,,,,,,,,,,,,,,,,,,,,,,,,,,,,,,,,,,,,,,,,,,,,,,,,,,,,,,,,,,,,,,
,,,,,,617071ff5db0c4852d3c1bb5,62bbfab973dcda4f2d176001,2022-06-29_09h10.37.150,Colour_Asymmetry_Pilot,2022.1.3,Win32,60.14675809,62bbe60bf3d75ef465d3e404,0,92,92,105,1,onethree,,,,,,,,,,,,,,,,,,,,,,,,,,,,,,,,,,,,,,,,,,,,,,,,,,,,,,,,,,,,,,,,,,,,,,,,,,,,,,,,,,,,,,,,,,,,,,,,,,,,,,,,,,,,,,,,,,,,,,,,,,,,,,,,,,,,,,,,,,,,,,,,,,,,,,,,
,,,,,,617071ff5db0c4852d3c1bb5,62bbfab973dcda4f2d176001,2022-06-29_09h10.37.150,Colour_Asymmetry_Pilot,2022.1.3,Win32,60.14675809,62bbe60bf3d75ef465d3e404,0,93,93,135,1,fourthree,,,,,,,,,,,,,,,,,,,,,,,,,,,,,,,,,,,,,,,,,,,,,,,,,,,,,,,,,,,,,,,,,,,,,,,,,,,,,,,,,,,,,,,,,,,,,,,,,,,,,,,,,,,,,,,,,,,,,,,,,,,,,,,,,,,,,,,,,,,,,,,,,,,,,,,,
,,,,,,617071ff5db0c4852d3c1bb5,62bbfab973dcda4f2d176001,2022-06-29_09h10.37.150,Colour_Asymmetry_Pilot,2022.1.3,Win32,60.14675809,62bbe60bf3d75ef465d3e404,0,94,94,62,1,fourtwo,,,,,,,,,,,,,,,,,,,,,,,,,,,,,,,,,,,,,,,,,,,,,,,,,,,,,,,,,,,,,,,,,,,,,,,,,,,,,,,,,,,,,,,,,,,,,,,,,,,,,,,,,,,,,,,,,,,,,,,,,,,,,,,,,,,,,,,,,,,,,,,,,,,,,,,,
,,,,,,617071ff5db0c4852d3c1bb5,62bbfab973dcda4f2d176001,2022-06-29_09h10.37.150,Colour_Asymmetry_Pilot,2022.1.3,Win32,60.14675809,62bbe60bf3d75ef465d3e404,0,95,95,41,1,onethree,,,,,,,,,,,,,,,,,,,,,,,,,,,,,,,,,,,,,,,,,,,,,,,,,,,,,,,,,,,,,,,,,,,,,,,,,,,,,,,,,,,,,,,,,,,,,,,,,,,,,,,,,,,,,,,,,,,,,,,,,,,,,,,,,,,,,,,,,,,,,,,,,,,,,,,,
,,,,,,617071ff5db0c4852d3c1bb5,62bbfab973dcda4f2d176001,2022-06-29_09h10.37.150,Colour_Asymmetry_Pilot,2022.1.3,Win32,60.14675809,62bbe60bf3d75ef465d3e404,0,96,96,147,1,twofour,,,,,,,,,,,,,,,,,,,,,,,,,,,,,,,,,,,,,,,,,,,,,,,,,,,,,,,,,,,,,,,,,,,,,,,,,,,,,,,,,,,,,,,,,,,,,,,,,,,,,,,,,,,,,,,,,,,,,,,,,,,,,,,,,,,,,,,,,,,,,,,,,,,,,,,,
,,,,,,617071ff5db0c4852d3c1bb5,62bbfab973dcda4f2d176001,2022-06-29_09h10.37.150,Colour_Asymmetry_Pilot,2022.1.3,Win32,60.14675809,62bbe60bf3d75ef465d3e404,0,97,97,131,1,twofour,,,,,,,,,,,,,,,,,,,,,,,,,,,,,,,,,,,,,,,,,,,,,,,,,,,,,,,,,,,,,,,,,,,,,,,,,,,,,,,,,,,,,,,,,,,,,,,,,,,,,,,,,,,,,,,,,,,,,,,,,,,,,,,,,,,,,,,,,,,,,,,,,,,,,,,,
,,,,,,617071ff5db0c4852d3c1bb5,62bbfab973dcda4f2d176001,2022-06-29_09h10.37.150,Colour_Asymmetry_Pilot,2022.1.3,Win32,60.14675809,62bbe60bf3d75ef465d3e404,0,98,98,44,1,threeone,,,,,,,,,,,,,,,,,,,,,,,,,,,,,,,,,,,,,,,,,,,,,,,,,,,,,,,,,,,,,,,,,,,,,,,,,,,,,,,,,,,,,,,,,,,,,,,,,,,,,,,,,,,,,,,,,,,,,,,,,,,,,,,,,,,,,,,,,,,,,,,,,,,,,,,,
,,,,,,617071ff5db0c4852d3c1bb5,62bbfab973dcda4f2d176001,2022-06-29_09h10.37.150,Colour_Asymmetry_Pilot,2022.1.3,Win32,60.14675809,62bbe60bf3d75ef465d3e404,0,99,99,21,1,threefour,,,,,,,,,,,,,,,,,,,,,,,,,,,,,,,,,,,,,,,,,,,,,,,,,,,,,,,,,,,,,,,,,,,,,,,,,,,,,,,,,,,,,,,,,,,,,,,,,,,,,,,,,,,,,,,,,,,,,,,,,,,,,,,,,,,,,,,,,,,,,,,,,,,,,,,,
,,,,,,617071ff5db0c4852d3c1bb5,62bbfab973dcda4f2d176001,2022-06-29_09h10.37.150,Colour_Asymmetry_Pilot,2022.1.3,Win32,60.14675809,62bbe60bf3d75ef465d3e404,0,100,100,133,1,threefour,,,,,,,,,,,,,,,,,,,,,,,,,,,,,,,,,,,,,,,,,,,,,,,,,,,,,,,,,,,,,,,,,,,,,,,,,,,,,,,,,,,,,,,,,,,,,,,,,,,,,,,,,,,,,,,,,,,,,,,,,,,,,,,,,,,,,,,,,,,,,,,,,,,,,,,,
,,,,,,617071ff5db0c4852d3c1bb5,62bbfab973dcda4f2d176001,2022-06-29_09h10.37.150,Colour_Asymmetry_Pilot,2022.1.3,Win32,60.14675809,62bbe60bf3d75ef465d3e404,0,101,101,158,1,fourtwo,,,,,,,,,,,,,,,,,,,,,,,,,,,,,,,,,,,,,,,,,,,,,,,,,,,,,,,,,,,,,,,,,,,,,,,,,,,,,,,,,,,,,,,,,,,,,,,,,,,,,,,,,,,,,,,,,,,,,,,,,,,,,,,,,,,,,,,,,,,,,,,,,,,,,,,,
,,,,,,617071ff5db0c4852d3c1bb5,62bbfab973dcda4f2d176001,2022-06-29_09h10.37.150,Colour_Asymmetry_Pilot,2022.1.3,Win32,60.14675809,62bbe60bf3d75ef465d3e404,0,102,102,61,1,threefour,,,,,,,,,,,,,,,,,,,,,,,,,,,,,,,,,,,,,,,,,,,,,,,,,,,,,,,,,,,,,,,,,,,,,,,,,,,,,,,,,,,,,,,,,,,,,,,,,,,,,,,,,,,,,,,,,,,,,,,,,,,,,,,,,,,,,,,,,,,,,,,,,,,,,,,,
,,,,,,617071ff5db0c4852d3c1bb5,62bbfab973dcda4f2d176001,2022-06-29_09h10.37.150,Colour_Asymmetry_Pilot,2022.1.3,Win32,60.14675809,62bbe60bf3d75ef465d3e404,0,103,103,46,1,fourtwo,,,,,,,,,,,,,,,,,,,,,,,,,,,,,,,,,,,,,,,,,,,,,,,,,,,,,,,,,,,,,,,,,,,,,,,,,,,,,,,,,,,,,,,,,,,,,,,,,,,,,,,,,,,,,,,,,,,,,,,,,,,,,,,,,,,,,,,,,,,,,,,,,,,,,,,,
,,,,,,617071ff5db0c4852d3c1bb5,62bbfab973dcda4f2d176001,2022-06-29_09h10.37.150,Colour_Asymmetry_Pilot,2022.1.3,Win32,60.14675809,62bbe60bf3d75ef465d3e404,0,104,104,139,1,twofour,,,,,,,,,,,,,,,,,,,,,,,,,,,,,,,,,,,,,,,,,,,,,,,,,,,,,,,,,,,,,,,,,,,,,,,,,,,,,,,,,,,,,,,,,,,,,,,,,,,,,,,,,,,,,,,,,,,,,,,,,,,,,,,,,,,,,,,,,,,,,,,,,,,,,,,,
,,,,,,617071ff5db0c4852d3c1bb5,62bbfab973dcda4f2d176001,2022-06-29_09h10.37.150,Colour_Asymmetry_Pilot,2022.1.3,Win32,60.14675809,62bbe60bf3d75ef465d3e404,0,105,105,161,1,onethree,,,,,,,,,,,,,,,,,,,,,,,,,,,,,,,,,,,,,,,,,,,,,,,,,,,,,,,,,,,,,,,,,,,,,,,,,,,,,,,,,,,,,,,,,,,,,,,,,,,,,,,,,,,,,,,,,,,,,,,,,,,,,,,,,,,,,,,,,,,,,,,,,,,,,,,,
,,,,,,617071ff5db0c4852d3c1bb5,62bbfab973dcda4f2d176001,2022-06-29_09h10.37.150,Colour_Asymmetry_Pilot,2022.1.3,Win32,60.14675809,62bbe60bf3d75ef465d3e404,0,106,106,97,1,onethree,,,,,,,,,,,,,,,,,,,,,,,,,,,,,,,,,,,,,,,,,,,,,,,,,,,,,,,,,,,,,,,,,,,,,,,,,,,,,,,,,,,,,,,,,,,,,,,,,,,,,,,,,,,,,,,,,,,,,,,,,,,,,,,,,,,,,,,,,,,,,,,,,,,,,,,,
,,,,,,617071ff5db0c4852d3c1bb5,62bbfab973dcda4f2d176001,2022-06-29_09h10.37.150,Colour_Asymmetry_Pilot,2022.1.3,Win32,60.14675809,62bbe60bf3d75ef465d3e404,0,107,107,39,1,fourthree,,,,,,,,,,,,,,,,,,,,,,,,,,,,,,,,,,,,,,,,,,,,,,,,,,,,,,,,,,,,,,,,,,,,,,,,,,,,,,,,,,,,,,,,,,,,,,,,,,,,,,,,,,,,,,,,,,,,,,,,,,,,,,,,,,,,,,,,,,,,,,,,,,,,,,,,
,,,,,,617071ff5db0c4852d3c1bb5,62bbfab973dcda4f2d176001,2022-06-29_09h10.37.150,Colour_Asymmetry_Pilot,2022.1.3,Win32,60.14675809,62bbe60bf3d75ef465d3e404,0,108,108,129,1,onethree,,,,,,,,,,,,,,,,,,,,,,,,,,,,,,,,,,,,,,,,,,,,,,,,,,,,,,,,,,,,,,,,,,,,,,,,,,,,,,,,,,,,,,,,,,,,,,,,,,,,,,,,,,,,,,,,,,,,,,,,,,,,,,,,,,,,,,,,,,,,,,,,,,,,,,,,
,,,,,,617071ff5db0c4852d3c1bb5,62bbfab973dcda4f2d176001,2022-06-29_09h10.37.150,Colour_Asymmetry_Pilot,2022.1.3,Win32,60.14675809,62bbe60bf3d75ef465d3e404,0,109,109,32,1,onetwo,,,,,,,,,,,,,,,,,,,,,,,,,,,,,,,,,,,,,,,,,,,,,,,,,,,,,,,,,,,,,,,,,,,,,,,,,,,,,,,,,,,,,,,,,,,,,,,,,,,,,,,,,,,,,,,,,,,,,,,,,,,,,,,,,,,,,,,,,,,,,,,,,,,,,,,,
,,,,,,617071ff5db0c4852d3c1bb5,62bbfab973dcda4f2d176001,2022-06-29_09h10.37.150,Colour_Asymmetry_Pilot,2022.1.3,Win32,60.14675809,62bbe60bf3d75ef465d3e404,0,110,110,56,1,onetwo,,,,,,,,,,,,,,,,,,,,,,,,,,,,,,,,,,,,,,,,,,,,,,,,,,,,,,,,,,,,,,,,,,,,,,,,,,,,,,,,,,,,,,,,,,,,,,,,,,,,,,,,,,,,,,,,,,,,,,,,,,,,,,,,,,,,,,,,,,,,,,,,,,,,,,,,
,,,,,,617071ff5db0c4852d3c1bb5,62bbfab973dcda4f2d176001,2022-06-29_09h10.37.150,Colour_Asymmetry_Pilot,2022.1.3,Win32,60.14675809,62bbe60bf3d75ef465d3e404,0,111,111,34,1,twoone,,,,,,,,,,,,,,,,,,,,,,,,,,,,,,,,,,,,,,,,,,,,,,,,,,,,,,,,,,,,,,,,,,,,,,,,,,,,,,,,,,,,,,,,,,,,,,,,,,,,,,,,,,,,,,,,,,,,,,,,,,,,,,,,,,,,,,,,,,,,,,,,,,,,,,,,
,,,,,,617071ff5db0c4852d3c1bb5,62bbfab973dcda4f2d176001,2022-06-29_09h10.37.150,Colour_Asymmetry_Pilot,2022.1.3,Win32,60.14675809,62bbe60bf3d75ef465d3e404,0,112,112,77,1,threefour,,,,,,,,,,,,,,,,,,,,,,,,,,,,,,,,,,,,,,,,,,,,,,,,,,,,,,,,,,,,,,,,,,,,,,,,,,,,,,,,,,,,,,,,,,,,,,,,,,,,,,,,,,,,,,,,,,,,,,,,,,,,,,,,,,,,,,,,,,,,,,,,,,,,,,,,
,,,,,,617071ff5db0c4852d3c1bb5,62bbfab973dcda4f2d176001,2022-06-29_09h10.37.150,Colour_Asymmetry_Pilot,2022.1.3,Win32,60.14675809,62bbe60bf3d75ef465d3e404,0,113,113,76,1,threeone,,,,,,,,,,,,,,,,,,,,,,,,,,,,,,,,,,,,,,,,,,,,,,,,,,,,,,,,,,,,,,,,,,,,,,,,,,,,,,,,,,,,,,,,,,,,,,,,,,,,,,,,,,,,,,,,,,,,,,,,,,,,,,,,,,,,,,,,,,,,,,,,,,,,,,,,
,,,,,,617071ff5db0c4852d3c1bb5,62bbfab973dcda4f2d176001,2022-06-29_09h10.37.150,Colour_Asymmetry_Pilot,2022.1.3,Win32,60.14675809,62bbe60bf3d75ef465d3e404,0,114,114,65,1,onethree,,,,,,,,,,,,,,,,,,,,,,,,,,,,,,,,,,,,,,,,,,,,,,,,,,,,,,,,,,,,,,,,,,,,,,,,,,,,,,,,,,,,,,,,,,,,,,,,,,,,,,,,,,,,,,,,,,,,,,,,,,,,,,,,,,,,,,,,,,,,,,,,,,,,,,,,
,,,,,,617071ff5db0c4852d3c1bb5,62bbfab973dcda4f2d176001,2022-06-29_09h10.37.150,Colour_Asymmetry_Pilot,2022.1.3,Win32,60.14675809,62bbe60bf3d75ef465d3e404,0,115,115,13,1,threefour,,,,,,,,,,,,,,,,,,,,,,,,,,,,,,,,,,,,,,,,,,,,,,,,,,,,,,,,,,,,,,,,,,,,,,,,,,,,,,,,,,,,,,,,,,,,,,,,,,,,,,,,,,,,,,,,,,,,,,,,,,,,,,,,,,,,,,,,,,,,,,,,,,,,,,,,
,,,,,,617071ff5db0c4852d3c1bb5,62bbfab973dcda4f2d176001,2022-06-29_09h10.37.150,Colour_Asymmetry_Pilot,2022.1.3,Win32,60.14675809,62bbe60bf3d75ef465d3e404,0,116,116,124,1,threeone,,,,,,,,,,,,,,,,,,,,,,,,,,,,,,,,,,,,,,,,,,,,,,,,,,,,,,,,,,,,,,,,,,,,,,,,,,,,,,,,,,,,,,,,,,,,,,,,,,,,,,,,,,,,,,,,,,,,,,,,,,,,,,,,,,,,,,,,,,,,,,,,,,,,,,,,
,,,,,,617071ff5db0c4852d3c1bb5,62bbfab973dcda4f2d176001,2022-06-29_09h10.37.150,Colour_Asymmetry_Pilot,2022.1.3,Win32,60.14675809,62bbe60bf3d75ef465d3e404,0,117,117,156,1,threeone,,,,,,,,,,,,,,,,,,,,,,,,,,,,,,,,,,,,,,,,,,,,,,,,,,,,,,,,,,,,,,,,,,,,,,,,,,,,,,,,,,,,,,,,,,,,,,,,,,,,,,,,,,,,,,,,,,,,,,,,,,,,,,,,,,,,,,,,,,,,,,,,,,,,,,,,
,,,,,,617071ff5db0c4852d3c1bb5,62bbfab973dcda4f2d176001,2022-06-29_09h10.37.150,Colour_Asymmetry_Pilot,2022.1.3,Win32,60.14675809,62bbe60bf3d75ef465d3e404,0,118,118,72,1,onetwo,,,,,,,,,,,,,,,,,,,,,,,,,,,,,,,,,,,,,,,,,,,,,,,,,,,,,,,,,,,,,,,,,,,,,,,,,,,,,,,,,,,,,,,,,,,,,,,,,,,,,,,,,,,,,,,,,,,,,,,,,,,,,,,,,,,,,,,,,,,,,,,,,,,,,,,,
,,,,,,617071ff5db0c4852d3c1bb5,62bbfab973dcda4f2d176001,2022-06-29_09h10.37.150,Colour_Asymmetry_Pilot,2022.1.3,Win32,60.14675809,62bbe60bf3d75ef465d3e404,0,119,119,157,1,threefour,,,,,,,,,,,,,,,,,,,,,,,,,,,,,,,,,,,,,,,,,,,,,,,,,,,,,,,,,,,,,,,,,,,,,,,,,,,,,,,,,,,,,,,,,,,,,,,,,,,,,,,,,,,,,,,,,,,,,,,,,,,,,,,,,,,,,,,,,,,,,,,,,,,,,,,,
,,,,,,617071ff5db0c4852d3c1bb5,62bbfab973dcda4f2d176001,2022-06-29_09h10.37.150,Colour_Asymmetry_Pilot,2022.1.3,Win32,60.14675809,62bbe60bf3d75ef465d3e404,0,120,120,120,1,onetwo,,,,,,,,,,,,,,,,,,,,,,,,,,,,,,,,,,,,,,,,,,,,,,,,,,,,,,,,,,,,,,,,,,,,,,,,,,,,,,,,,,,,,,,,,,,,,,,,,,,,,,,,,,,,,,,,,,,,,,,,,,,,,,,,,,,,,,,,,,,,,,,,,,,,,,,,
,,,,,,617071ff5db0c4852d3c1bb5,62bbfab973dcda4f2d176001,2022-06-29_09h10.37.150,Colour_Asymmetry_Pilot,2022.1.3,Win32,60.14675809,62bbe60bf3d75ef465d3e404,0,121,121,112,1,onetwo,,,,,,,,,,,,,,,,,,,,,,,,,,,,,,,,,,,,,,,,,,,,,,,,,,,,,,,,,,,,,,,,,,,,,,,,,,,,,,,,,,,,,,,,,,,,,,,,,,,,,,,,,,,,,,,,,,,,,,,,,,,,,,,,,,,,,,,,,,,,,,,,,,,,,,,,
,,,,,,617071ff5db0c4852d3c1bb5,62bbfab973dcda4f2d176001,2022-06-29_09h10.37.150,Colour_Asymmetry_Pilot,2022.1.3,Win32,60.14675809,62bbe60bf3d75ef465d3e404,0,122,122,116,1,threeone,,,,,,,,,,,,,,,,,,,,,,,,,,,,,,,,,,,,,,,,,,,,,,,,,,,,,,,,,,,,,,,,,,,,,,,,,,,,,,,,,,,,,,,,,,,,,,,,,,,,,,,,,,,,,,,,,,,,,,,,,,,,,,,,,,,,,,,,,,,,,,,,,,,,,,,,
,,,,,,617071ff5db0c4852d3c1bb5,62bbfab973dcda4f2d176001,2022-06-29_09h10.37.150,Colour_Asymmetry_Pilot,2022.1.3,Win32,60.14675809,62bbe60bf3d75ef465d3e404,0,123,123,43,1,twofour,,,,,,,,,,,,,,,,,,,,,,,,,,,,,,,,,,,,,,,,,,,,,,,,,,,,,,,,,,,,,,,,,,,,,,,,,,,,,,,,,,,,,,,,,,,,,,,,,,,,,,,,,,,,,,,,,,,,,,,,,,,,,,,,,,,,,,,,,,,,,,,,,,,,,,,,
,,,,,,617071ff5db0c4852d3c1bb5,62bbfab973dcda4f2d176001,2022-06-29_09h10.37.150,Colour_Asymmetry_Pilot,2022.1.3,Win32,60.14675809,62bbe60bf3d75ef465d3e404,0,124,124,114,1,twoone,,,,,,,,,,,,,,,,,,,,,,,,,,,,,,,,,,,,,,,,,,,,,,,,,,,,,,,,,,,,,,,,,,,,,,,,,,,,,,,,,,,,,,,,,,,,,,,,,,,,,,,,,,,,,,,,,,,,,,,,,,,,,,,,,,,,,,,,,,,,,,,,,,,,,,,,
,,,,,,617071ff5db0c4852d3c1bb5,62bbfab973dcda4f2d176001,2022-06-29_09h10.37.150,Colour_Asymmetry_Pilot,2022.1.3,Win32,60.14675809,62bbe60bf3d75ef465d3e404,0,125,125,4,1,threeone,,,,,,,,,,,,,,,,,,,,,,,,,,,,,,,,,,,,,,,,,,,,,,,,,,,,,,,,,,,,,,,,,,,,,,,,,,,,,,,,,,,,,,,,,,,,,,,,,,,,,,,,,,,,,,,,,,,,,,,,,,,,,,,,,,,,,,,,,,,,,,,,,,,,,,,,
,,,,,,617071ff5db0c4852d3c1bb5,62bbfab973dcda4f2d176001,2022-06-29_09h10.37.150,Colour_Asymmetry_Pilot,2022.1.3,Win32,60.14675809,62bbe60bf3d75ef465d3e404,0,126,126,90,1,twoone,,,,,,,,,,,,,,,,,,,,,,,,,,,,,,,,,,,,,,,,,,,,,,,,,,,,,,,,,,,,,,,,,,,,,,,,,,,,,,,,,,,,,,,,,,,,,,,,,,,,,,,,,,,,,,,,,,,,,,,,,,,,,,,,,,,,,,,,,,,,,,,,,,,,,,,,
,,,,,,617071ff5db0c4852d3c1bb5,62bbfab973dcda4f2d176001,2022-06-29_09h10.37.150,Colour_Asymmetry_Pilot,2022.1.3,Win32,60.14675809,62bbe60bf3d75ef465d3e404,0,127,127,16,1,onetwo,,,,,,,,,,,,,,,,,,,,,,,,,,,,,,,,,,,,,,,,,,,,,,,,,,,,,,,,,,,,,,,,,,,,,,,,,,,,,,,,,,,,,,,,,,,,,,,,,,,,,,,,,,,,,,,,,,,,,,,,,,,,,,,,,,,,,,,,,,,,,,,,,,,,,,,,
,,,,,,617071ff5db0c4852d3c1bb5,62bbfab973dcda4f2d176001,2022-06-29_09h10.37.150,Colour_Asymmetry_Pilot,2022.1.3,Win32,60.14675809,62bbe60bf3d75ef465d3e404,0,128,128,146,1,twoone,,,,,,,,,,,,,,,,,,,,,,,,,,,,,,,,,,,,,,,,,,,,,,,,,,,,,,,,,,,,,,,,,,,,,,,,,,,,,,,,,,,,,,,,,,,,,,,,,,,,,,,,,,,,,,,,,,,,,,,,,,,,,,,,,,,,,,,,,,,,,,,,,,,,,,,,
,,,,,,617071ff5db0c4852d3c1bb5,62bbfab973dcda4f2d176001,2022-06-29_09h10.37.150,Colour_Asymmetry_Pilot,2022.1.3,Win32,60.14675809,62bbe60bf3d75ef465d3e404,0,129,129,70,1,fourtwo,,,,,,,,,,,,,,,,,,,,,,,,,,,,,,,,,,,,,,,,,,,,,,,,,,,,,,,,,,,,,,,,,,,,,,,,,,,,,,,,,,,,,,,,,,,,,,,,,,,,,,,,,,,,,,,,,,,,,,,,,,,,,,,,,,,,,,,,,,,,,,,,,,,,,,,,
,,,,,,617071ff5db0c4852d3c1bb5,62bbfab973dcda4f2d176001,2022-06-29_09h10.37.150,Colour_Asymmetry_Pilot,2022.1.3,Win32,60.14675809,62bbe60bf3d75ef465d3e404,0,130,130,127,1,fourthree,,,,,,,,,,,,,,,,,,,,,,,,,,,,,,,,,,,,,,,,,,,,,,,,,,,,,,,,,,,,,,,,,,,,,,,,,,,,,,,,,,,,,,,,,,,,,,,,,,,,,,,,,,,,,,,,,,,,,,,,,,,,,,,,,,,,,,,,,,,,,,,,,,,,,,,,
,,,,,,617071ff5db0c4852d3c1bb5,62bbfab973dcda4f2d176001,2022-06-29_09h10.37.150,Colour_Asymmetry_Pilot,2022.1.3,Win32,60.14675809,62bbe60bf3d75ef465d3e404,0,131,131,123,1,twofour,,,,,,,,,,,,,,,,,,,,,,,,,,,,,,,,,,,,,,,,,,,,,,,,,,,,,,,,,,,,,,,,,,,,,,,,,,,,,,,,,,,,,,,,,,,,,,,,,,,,,,,,,,,,,,,,,,,,,,,,,,,,,,,,,,,,,,,,,,,,,,,,,,,,,,,,
,,,,,,617071ff5db0c4852d3c1bb5,62bbfab973dcda4f2d176001,2022-06-29_09h10.37.150,Colour_Asymmetry_Pilot,2022.1.3,Win32,60.14675809,62bbe60bf3d75ef465d3e404,0,132,132,0,1,onetwo,,,,,,,,,,,,,,,,,,,,,,,,,,,,,,,,,,,,,,,,,,,,,,,,,,,,,,,,,,,,,,,,,,,,,,,,,,,,,,,,,,,,,,,,,,,,,,,,,,,,,,,,,,,,,,,,,,,,,,,,,,,,,,,,,,,,,,,,,,,,,,,,,,,,,,,,
,,,,,,617071ff5db0c4852d3c1bb5,62bbfab973dcda4f2d176001,2022-06-29_09h10.37.150,Colour_Asymmetry_Pilot,2022.1.3,Win32,60.14675809,62bbe60bf3d75ef465d3e404,0,133,133,15,1,fourthree,,,,,,,,,,,,,,,,,,,,,,,,,,,,,,,,,,,,,,,,,,,,,,,,,,,,,,,,,,,,,,,,,,,,,,,,,,,,,,,,,,,,,,,,,,,,,,,,,,,,,,,,,,,,,,,,,,,,,,,,,,,,,,,,,,,,,,,,,,,,,,,,,,,,,,,,
,,,,,,617071ff5db0c4852d3c1bb5,62bbfab973dcda4f2d176001,2022-06-29_09h10.37.150,Colour_Asymmetry_Pilot,2022.1.3,Win32,60.14675809,62bbe60bf3d75ef465d3e404,0,134,134,88,1,onetwo,,,,,,,,,,,,,,,,,,,,,,,,,,,,,,,,,,,,,,,,,,,,,,,,,,,,,,,,,,,,,,,,,,,,,,,,,,,,,,,,,,,,,,,,,,,,,,,,,,,,,,,,,,,,,,,,,,,,,,,,,,,,,,,,,,,,,,,,,,,,,,,,,,,,,,,,
,,,,,,617071ff5db0c4852d3c1bb5,62bbfab973dcda4f2d176001,2022-06-29_09h10.37.150,Colour_Asymmetry_Pilot,2022.1.3,Win32,60.14675809,62bbe60bf3d75ef465d3e404,0,135,135,125,1,threefour,,,,,,,,,,,,,,,,,,,,,,,,,,,,,,,,,,,,,,,,,,,,,,,,,,,,,,,,,,,,,,,,,,,,,,,,,,,,,,,,,,,,,,,,,,,,,,,,,,,,,,,,,,,,,,,,,,,,,,,,,,,,,,,,,,,,,,,,,,,,,,,,,,,,,,,,
,,,,,,617071ff5db0c4852d3c1bb5,62bbfab973dcda4f2d176001,2022-06-29_09h10.37.150,Colour_Asymmetry_Pilot,2022.1.3,Win32,60.14675809,62bbe60bf3d75ef465d3e404,0,136,136,138,1,twoone,,,,,,,,,,,,,,,,,,,,,,,,,,,,,,,,,,,,,,,,,,,,,,,,,,,,,,,,,,,,,,,,,,,,,,,,,,,,,,,,,,,,,,,,,,,,,,,,,,,,,,,,,,,,,,,,,,,,,,,,,,,,,,,,,,,,,,,,,,,,,,,,,,,,,,,,
,,,,,,617071ff5db0c4852d3c1bb5,62bbfab973dcda4f2d176001,2022-06-29_09h10.37.150,Colour_Asymmetry_Pilot,2022.1.3,Win32,60.14675809,62bbe60bf3d75ef465d3e404,0,137,137,143,1,fourthree,,,,,,,,,,,,,,,,,,,,,,,,,,,,,,,,,,,,,,,,,,,,,,,,,,,,,,,,,,,,,,,,,,,,,,,,,,,,,,,,,,,,,,,,,,,,,,,,,,,,,,,,,,,,,,,,,,,,,,,,,,,,,,,,,,,,,,,,,,,,,,,,,,,,,,,,
,,,,,,617071ff5db0c4852d3c1bb5,62bbfab973dcda4f2d176001,2022-06-29_09h10.37.150,Colour_Asymmetry_Pilot,2022.1.3,Win32,60.14675809,62bbe60bf3d75ef465d3e404,0,138,138,85,1,threefour,,,,,,,,,,,,,,,,,,,,,,,,,,,,,,,,,,,,,,,,,,,,,,,,,,,,,,,,,,,,,,,,,,,,,,,,,,,,,,,,,,,,,,,,,,,,,,,,,,,,,,,,,,,,,,,,,,,,,,,,,,,,,,,,,,,,,,,,,,,,,,,,,,,,,,,,
,,,,,,617071ff5db0c4852d3c1bb5,62bbfab973dcda4f2d176001,2022-06-29_09h10.37.150,Colour_Asymmetry_Pilot,2022.1.3,Win32,60.14675809,62bbe60bf3d75ef465d3e404,0,139,139,38,1,fourtwo,,,,,,,,,,,,,,,,,,,,,,,,,,,,,,,,,,,,,,,,,,,,,,,,,,,,,,,,,,,,,,,,,,,,,,,,,,,,,,,,,,,,,,,,,,,,,,,,,,,,,,,,,,,,,,,,,,,,,,,,,,,,,,,,,,,,,,,,,,,,,,,,,,,,,,,,
,,,,,,617071ff5db0c4852d3c1bb5,62bbfab973dcda4f2d176001,2022-06-29_09h10.37.150,Colour_Asymmetry_Pilot,2022.1.3,Win32,60.14675809,62bbe60bf3d75ef465d3e404,0,140,140,37,1,threefour,,,,,,,,,,,,,,,,,,,,,,,,,,,,,,,,,,,,,,,,,,,,,,,,,,,,,,,,,,,,,,,,,,,,,,,,,,,,,,,,,,,,,,,,,,,,,,,,,,,,,,,,,,,,,,,,,,,,,,,,,,,,,,,,,,,,,,,,,,,,,,,,,,,,,,,,
,,,,,,617071ff5db0c4852d3c1bb5,62bbfab973dcda4f2d176001,2022-06-29_09h10.37.150,Colour_Asymmetry_Pilot,2022.1.3,Win32,60.14675809,62bbe60bf3d75ef465d3e404,0,141,141,28,1,threeone,,,,,,,,,,,,,,,,,,,,,,,,,,,,,,,,,,,,,,,,,,,,,,,,,,,,,,,,,,,,,,,,,,,,,,,,,,,,,,,,,,,,,,,,,,,,,,,,,,,,,,,,,,,,,,,,,,,,,,,,,,,,,,,,,,,,,,,,,,,,,,,,,,,,,,,,
,,,,,,617071ff5db0c4852d3c1bb5,62bbfab973dcda4f2d176001,2022-06-29_09h10.37.150,Colour_Asymmetry_Pilot,2022.1.3,Win32,60.14675809,62bbe60bf3d75ef465d3e404,0,142,142,42,1,twoone,,,,,,,,,,,,,,,,,,,,,,,,,,,,,,,,,,,,,,,,,,,,,,,,,,,,,,,,,,,,,,,,,,,,,,,,,,,,,,,,,,,,,,,,,,,,,,,,,,,,,,,,,,,,,,,,,,,,,,,,,,,,,,,,,,,,,,,,,,,,,,,,,,,,,,,,
,,,,,,617071ff5db0c4852d3c1bb5,62bbfab973dcda4f2d176001,2022-06-29_09h10.37.150,Colour_Asymmetry_Pilot,2022.1.3,Win32,60.14675809,62bbe60bf3d75ef465d3e404,0,143,143,80,1,onetwo,,,,,,,,,,,,,,,,,,,,,,,,,,,,,,,,,,,,,,,,,,,,,,,,,,,,,,,,,,,,,,,,,,,,,,,,,,,,,,,,,,,,,,,,,,,,,,,,,,,,,,,,,,,,,,,,,,,,,,,,,,,,,,,,,,,,,,,,,,,,,,,,,,,,,,,,
,,,,,,617071ff5db0c4852d3c1bb5,62bbfab973dcda4f2d176001,2022-06-29_09h10.37.150,Colour_Asymmetry_Pilot,2022.1.3,Win32,60.14675809,62bbe60bf3d75ef465d3e404,0,144,144,83,1,twofour,,,,,,,,,,,,,,,,,,,,,,,,,,,,,,,,,,,,,,,,,,,,,,,,,,,,,,,,,,,,,,,,,,,,,,,,,,,,,,,,,,,,,,,,,,,,,,,,,,,,,,,,,,,,,,,,,,,,,,,,,,,,,,,,,,,,,,,,,,,,,,,,,,,,,,,,
,,,,,,617071ff5db0c4852d3c1bb5,62bbfab973dcda4f2d176001,2022-06-29_09h10.37.150,Colour_Asymmetry_Pilot,2022.1.3,Win32,60.14675809,62bbe60bf3d75ef465d3e404,0,145,145,48,1,onetwo,,,,,,,,,,,,,,,,,,,,,,,,,,,,,,,,,,,,,,,,,,,,,,,,,,,,,,,,,,,,,,,,,,,,,,,,,,,,,,,,,,,,,,,,,,,,,,,,,,,,,,,,,,,,,,,,,,,,,,,,,,,,,,,,,,,,,,,,,,,,,,,,,,,,,,,,
,,,,,,617071ff5db0c4852d3c1bb5,62bbfab973dcda4f2d176001,2022-06-29_09h10.37.150,Colour_Asymmetry_Pilot,2022.1.3,Win32,60.14675809,62bbe60bf3d75ef465d3e404,0,146,146,31,1,fourthree,,,,,,,,,,,,,,,,,,,,,,,,,,,,,,,,,,,,,,,,,,,,,,,,,,,,,,,,,,,,,,,,,,,,,,,,,,,,,,,,,,,,,,,,,,,,,,,,,,,,,,,,,,,,,,,,,,,,,,,,,,,,,,,,,,,,,,,,,,,,,,,,,,,,,,,,
,,,,,,617071ff5db0c4852d3c1bb5,62bbfab973dcda4f2d176001,2022-06-29_09h10.37.150,Colour_Asymmetry_Pilot,2022.1.3,Win32,60.14675809,62bbe60bf3d75ef465d3e404,0,147,147,3,1,twofour,,,,,,,,,,,,,,,,,,,,,,,,,,,,,,,,,,,,,,,,,,,,,,,,,,,,,,,,,,,,,,,,,,,,,,,,,,,,,,,,,,,,,,,,,,,,,,,,,,,,,,,,,,,,,,,,,,,,,,,,,,,,,,,,,,,,,,,,,,,,,,,,,,,,,,,,
,,,,,,617071ff5db0c4852d3c1bb5,62bbfab973dcda4f2d176001,2022-06-29_09h10.37.150,Colour_Asymmetry_Pilot,2022.1.3,Win32,60.14675809,62bbe60bf3d75ef465d3e404,0,148,148,63,1,fourthree,,,,,,,,,,,,,,,,,,,,,,,,,,,,,,,,,,,,,,,,,,,,,,,,,,,,,,,,,,,,,,,,,,,,,,,,,,,,,,,,,,,,,,,,,,,,,,,,,,,,,,,,,,,,,,,,,,,,,,,,,,,,,,,,,,,,,,,,,,,,,,,,,,,,,,,,
,,,,,,617071ff5db0c4852d3c1bb5,62bbfab973dcda4f2d176001,2022-06-29_09h10.37.150,Colour_Asymmetry_Pilot,2022.1.3,Win32,60.14675809,62bbe60bf3d75ef465d3e404,0,149,149,115,1,twofour,,,,,,,,,,,,,,,,,,,,,,,,,,,,,,,,,,,,,,,,,,,,,,,,,,,,,,,,,,,,,,,,,,,,,,,,,,,,,,,,,,,,,,,,,,,,,,,,,,,,,,,,,,,,,,,,,,,,,,,,,,,,,,,,,,,,,,,,,,,,,,,,,,,,,,,,
,,,,,,617071ff5db0c4852d3c1bb5,62bbfab973dcda4f2d176001,2022-06-29_09h10.37.150,Colour_Asymmetry_Pilot,2022.1.3,Win32,60.14675809,62bbe60bf3d75ef465d3e404,0,150,150,159,1,fourthree,,,,,,,,,,,,,,,,,,,,,,,,,,,,,,,,,,,,,,,,,,,,,,,,,,,,,,,,,,,,,,,,,,,,,,,,,,,,,,,,,,,,,,,,,,,,,,,,,,,,,,,,,,,,,,,,,,,,,,,,,,,,,,,,,,,,,,,,,,,,,,,,,,,,,,,,
,,,,,,617071ff5db0c4852d3c1bb5,62bbfab973dcda4f2d176001,2022-06-29_09h10.37.150,Colour_Asymmetry_Pilot,2022.1.3,Win32,60.14675809,62bbe60bf3d75ef465d3e404,0,151,151,19,1,twofour,,,,,,,,,,,,,,,,,,,,,,,,,,,,,,,,,,,,,,,,,,,,,,,,,,,,,,,,,,,,,,,,,,,,,,,,,,,,,,,,,,,,,,,,,,,,,,,,,,,,,,,,,,,,,,,,,,,,,,,,,,,,,,,,,,,,,,,,,,,,,,,,,,,,,,,,
,,,,,,617071ff5db0c4852d3c1bb5,62bbfab973dcda4f2d176001,2022-06-29_09h10.37.150,Colour_Asymmetry_Pilot,2022.1.3,Win32,60.14675809,62bbe60bf3d75ef465d3e404,0,152,152,144,1,onetwo,,,,,,,,,,,,,,,,,,,,,,,,,,,,,,,,,,,,,,,,,,,,,,,,,,,,,,,,,,,,,,,,,,,,,,,,,,,,,,,,,,,,,,,,,,,,,,,,,,,,,,,,,,,,,,,,,,,,,,,,,,,,,,,,,,,,,,,,,,,,,,,,,,,,,,,,
,,,,,,617071ff5db0c4852d3c1bb5,62bbfab973dcda4f2d176001,2022-06-29_09h10.37.150,Colour_Asymmetry_Pilot,2022.1.3,Win32,60.14675809,62bbe60bf3d75ef465d3e404,0,153,153,52,1,threeone,,,,,,,,,,,,,,,,,,,,,,,,,,,,,,,,,,,,,,,,,,,,,,,,,,,,,,,,,,,,,,,,,,,,,,,,,,,,,,,,,,,,,,,,,,,,,,,,,,,,,,,,,,,,,,,,,,,,,,,,,,,,,,,,,,,,,,,,,,,,,,,,,,,,,,,,
,,,,,,617071ff5db0c4852d3c1bb5,62bbfab973dcda4f2d176001,2022-06-29_09h10.37.150,Colour_Asymmetry_Pilot,2022.1.3,Win32,60.14675809,62bbe60bf3d75ef465d3e404,0,154,154,122,1,twoone,,,,,,,,,,,,,,,,,,,,,,,,,,,,,,,,,,,,,,,,,,,,,,,,,,,,,,,,,,,,,,,,,,,,,,,,,,,,,,,,,,,,,,,,,,,,,,,,,,,,,,,,,,,,,,,,,,,,,,,,,,,,,,,,,,,,,,,,,,,,,,,,,,,,,,,,
,,,,,,617071ff5db0c4852d3c1bb5,62bbfab973dcda4f2d176001,2022-06-29_09h10.37.150,Colour_Asymmetry_Pilot,2022.1.3,Win32,60.14675809,62bbe60bf3d75ef465d3e404,0,155,155,96,1,onetwo,,,,,,,,,,,,,,,,,,,,,,,,,,,,,,,,,,,,,,,,,,,,,,,,,,,,,,,,,,,,,,,,,,,,,,,,,,,,,,,,,,,,,,,,,,,,,,,,,,,,,,,,,,,,,,,,,,,,,,,,,,,,,,,,,,,,,,,,,,,,,,,,,,,,,,,,
,,,,,,617071ff5db0c4852d3c1bb5,62bbfab973dcda4f2d176001,2022-06-29_09h10.37.150,Colour_Asymmetry_Pilot,2022.1.3,Win32,60.14675809,62bbe60bf3d75ef465d3e404,0,156,156,151,1,fourthree,,,,,,,,,,,,,,,,,,,,,,,,,,,,,,,,,,,,,,,,,,,,,,,,,,,,,,,,,,,,,,,,,,,,,,,,,,,,,,,,,,,,,,,,,,,,,,,,,,,,,,,,,,,,,,,,,,,,,,,,,,,,,,,,,,,,,,,,,,,,,,,,,,,,,,,,
,,,,,,617071ff5db0c4852d3c1bb5,62bbfab973dcda4f2d176001,2022-06-29_09h10.37.150,Colour_Asymmetry_Pilot,2022.1.3,Win32,60.14675809,62bbe60bf3d75ef465d3e404,0,157,157,81,1,onethree,,,,,,,,,,,,,,,,,,,,,,,,,,,,,,,,,,,,,,,,,,,,,,,,,,,,,,,,,,,,,,,,,,,,,,,,,,,,,,,,,,,,,,,,,,,,,,,,,,,,,,,,,,,,,,,,,,,,,,,,,,,,,,,,,,,,,,,,,,,,,,,,,,,,,,,,
,,,,,,617071ff5db0c4852d3c1bb5,62bbfab973dcda4f2d176001,2022-06-29_09h10.37.150,Colour_Asymmetry_Pilot,2022.1.3,Win32,60.14675809,62bbe60bf3d75ef465d3e404,0,158,158,106,1,twoone,,,,,,,,,,,,,,,,,,,,,,,,,,,,,,,,,,,,,,,,,,,,,,,,,,,,,,,,,,,,,,,,,,,,,,,,,,,,,,,,,,,,,,,,,,,,,,,,,,,,,,,,,,,,,,,,,,,,,,,,,,,,,,,,,,,,,,,,,,,,,,,,,,,,,,,,
,,,,,,617071ff5db0c4852d3c1bb5,62bbfab973dcda4f2d176001,2022-06-29_09h10.37.150,Colour_Asymmetry_Pilot,2022.1.3,Win32,60.14675809,62bbe60bf3d75ef465d3e404,0,159,159,128,1,onetwo,,,,,,,,,,,,,,,,,,,,,,,,,,,,,,,,,,,,,,,,,,,,,,,,,,,,,,,,,,,,,,,,,,,,,,,,,,,,,,,,,,,,,,,,,,,,,,,,,,,,,,,,,,,,,,,,,,,,,,,,,,,,,,,,,,,,,,,,,,,,,,,,,,,,,,,,
,,,,,,617071ff5db0c4852d3c1bb5,62bbfab973dcda4f2d176001,2022-06-29_09h10.37.150,Colour_Asymmetry_Pilot,2022.1.3,Win32,60.14675809,62bbe60bf3d75ef465d3e404,0,160,160,60,1,threeone,,,,,,,,,,,,,,,,,,,,,,,,,,,,,,,,,,,,,,,,,,,,,,,,,,,,,,,,,,,,,,,,,,,,,,,,,,,,,,,,,,,,,,,,,,,,,,,,,,,,,,,,,,,,,,,,,,,,,,,,,,,,,,,,,,,,,,,,,,,,,,,,,,,,,,,,
,,,,,,617071ff5db0c4852d3c1bb5,62bbfab973dcda4f2d176001,2022-06-29_09h10.37.150,Colour_Asymmetry_Pilot,2022.1.3,Win32,60.14675809,62bbe60bf3d75ef465d3e404,0,161,161,2,1,twoone,,,,,,,,,,,,,,,,,,,,,,,,,,,,,,,,,,,,,,,,,,,,,,,,,,,,,,,,,,,,,,,,,,,,,,,,,,,,,,,,,,,,,,,,,,,,,,,,,,,,,,,,,,,,,,,,,,,,,,,,,,,,,,,,,,,,,,,,,,,,,,,,,,,,,,,,
,,,,,,617071ff5db0c4852d3c1bb5,62bbfab973dcda4f2d176001,2022-06-29_09h10.37.150,Colour_Asymmetry_Pilot,2022.1.3,Win32,60.14675809,62bbe60bf3d75ef465d3e404,,,,,,,space,9.8783,space,33.5891,space,126.3614,space,73.9199,space,40.4298,space,16.5684,"[0.3802000000000001,0.19199999999999995,-0.6394]",onethree,"[-0.26280000000000003,-0.4746,-0.2158]",-4,4.229,-48,95,1,0,0,response7disk_5,0,-4,1,0,0,rectangle_8,0,-4,1,0,0,2,0,-4,1,0,0,0,0,0,0,1,,,,,,,,,,,,,,,,,,,,,,,,,,,,,,,,,,,,,,,,,,,,,,,,,,,,,,,,,,,,,,,,,,,,,,,,,,,,,,,,,,,,,,,,,,,,,,,,,,,,,,,,,,,
,,,,,,617071ff5db0c4852d3c1bb5,62bbfab973dcda4f2d176001,2022-06-29_09h10.37.150,Colour_Asymmetry_Pilot,2022.1.3,Win32,60.14675809,62bbe60bf3d75ef465d3e404,,,,,,,,,,,,,,,,,,,"[-0.48240000000000005,0.3175999999999999,0.2156]",threefour,"[-0.2942,-0.24719999999999998,-0.357]",-4,26.7773,-38,62,1,0,0,response7disk_5,2,0,1,0,0,rectangle_8,2,0,1,0,0,2,2,0,1,0,0,1,0,1,0,1,,,,,,,,,,,,,,,,,,,,,,,,,,,,,,,,,,,,,,,,,,,,,,,,,,,,,,,,,,,,,,,,,,,,,,,,,,,,,,,,,,,,,,,,,,,,,,,,,,,,,,,,,,,
,,,,,,617071ff5db0c4852d3c1bb5,62bbfab973dcda4f2d176001,2022-06-29_09h10.37.150,Colour_Asymmetry_Pilot,2022.1.3,Win32,60.14675809,62bbe60bf3d75ef465d3e404,,,,,,,,,,,,,,,,,,,"[0.7176,-0.906,-0.6864]",fourtwo,"[0.9763999999999999,0.8588,-0.05900000000000005]",-1,11.5484,-40,-70,1,0,0,response5disk_5,0,1,1,0,0,rectangle_8,90,-34,1,0,0,2,-5,5,1,0,0,2,0,2,0,1,response3disk_7,5,rectangle_4,,,,,,,,,,,,,,,,,,,,,,,,,,,,,,,,,,,,,,,,,,,,,,,,,,,,,,,,,,,,,,,,,,,,,,,,,,,,,,,,,,,,,,,,,,,,,,,,,,,,,,,,
,,,,,,617071ff5db0c4852d3c1bb5,62bbfab973dcda4f2d176001,2022-06-29_09h10.37.150,Colour_Asymmetry_Pilot,2022.1.3,Win32,60.14675809,62bbe60bf3d75ef465d3e404,,,,,,,,,,,,,,,,,,,"[0.6547999999999998,-0.043199999999999905,-0.011800000000000033]",fourtwo,"[0.3802000000000001,0.19199999999999995,-0.6394]",-1,3.315,-45,-78,1,0,0,response5disk_5,-1,0,1,0,0,rectangle_8,-1,0,1,0,0,2,-1,0,1,0,0,3,0,3,0,1,,,,,,,,,,,,,,,,,,,,,,,,,,,,,,,,,,,,,,,,,,,,,,,,,,,,,,,,,,,,,,,,,,,,,,,,,,,,,,,,,,,,,,,,,,,,,,,,,,,,,,,,,,,
,,,,,,617071ff5db0c4852d3c1bb5,62bbfab973dcda4f2d176001,2022-06-29_09h10.37.150,Colour_Asymmetry_Pilot,2022.1.3,Win32,60.14675809,62bbe60bf3d75ef465d3e404,,,,,,,,,,,,,,,,,,,"[0.9686000000000001,0.5763999999999998,0.11359999999999992]",onetwo,"[-0.38039999999999996,-0.4276,-0.1452]",-1,8.7942,-45,-70,1,0,0,response5disk_5,1,-1,1,0,0,rectangle_8,76,-32,1,0,0,2,-6,5,1,0,0,4,0,4,0,1,response3disk_7,5,rectangle_4,,,,,,,,,,,,,,,,,,,,,,,,,,,,,,,,,,,,,,,,,,,,,,,,,,,,,,,,,,,,,,,,,,,,,,,,,,,,,,,,,,,,,,,,,,,,,,,,,,,,,,,,
,,,,,,617071ff5db0c4852d3c1bb5,62bbfab973dcda4f2d176001,2022-06-29_09h10.37.150,Colour_Asymmetry_Pilot,2022.1.3,Win32,60.14675809,62bbe60bf3d75ef465d3e404,,,,,,,,,,,,,,,,,,,"[-0.5688,-0.08239999999999992,-0.1844]",fourthree,"[0.9372,0.9450000000000001,0.8980000000000001]",-1,3.6986,-48,-86,1,0,0,response5disk_5,-4,-3,1,0,0,rectangle_8,-4,-3,1,0,0,2,-4,-3,1,0,0,5,0,5,0,1,,,,,,,,,,,,,,,,,,,,,,,,,,,,,,,,,,,,,,,,,,,,,,,,,,,,,,,,,,,,,,,,,,,,,,,,,,,,,,,,,,,,,,,,,,,,,,,,,,,,,,,,,,,
,,,,,,617071ff5db0c4852d3c1bb5,62bbfab973dcda4f2d176001,2022-06-29_09h10.37.150,Colour_Asymmetry_Pilot,2022.1.3,Win32,60.14675809,62bbe60bf3d75ef465d3e404,,,,,,,,,,,,,,,,,,,"[-0.4746,-0.0354000000000001,0.5449999999999999]",twofour,"[0.5449999999999999,-0.31000000000000005,-0.0354000000000001]",-1,4.6129,-37,-66,1,0,0,response5disk_5,1,-1,1,0,0,rectangle_8,1,-1,1,0,0,2,1,-1,1,0,0,6,0,6,0,1,,,,,,,,,,,,,,,,,,,,,,,,,,,,,,,,,,,,,,,,,,,,,,,,,,,,,,,,,,,,,,,,,,,,,,,,,,,,,,,,,,,,,,,,,,,,,,,,,,,,,,,,,,,
,,,,,,617071ff5db0c4852d3c1bb5,62bbfab973dcda4f2d176001,2022-06-29_09h10.37.150,Colour_Asymmetry_Pilot,2022.1.3,Win32,60.14675809,62bbe60bf3d75ef465d3e404,,,,,,,,,,,,,,,,,,,,fourthree,,-4,17.3248,,,,,,,,,,,,,,,,,,,,,,,,,,,,,,,,space,8.6428,"[-0.050999999999999934,-0.6706000000000001,-0.804]","[-0.06680000000000008,-0.45100000000000007,-0.906]",-40,76,1,0,0,response7disk,3,5,1,0,0,rectangle,3,5,1,0,0,,1,0.0042,0,3,5,1,0,0,0,0,0,32,1,32,first,,,,,,,,,,,,,,,,,,,,,,,,,,,,,,,,,,,,,,,,,,,,,,,,,,,,,,,,,,,,,,,,,,,
,,,,,,617071ff5db0c4852d3c1bb5,62bbfab973dcda4f2d176001,2022-06-29_09h10.37.150,Colour_Asymmetry_Pilot,2022.1.3,Win32,60.14675809,62bbe60bf3d75ef465d3e404,,,,,,,,,,,,,,,,,,,,twoone,,-1,1.6499,,,,,,,,,,,,,,,,,,,,,,,,,,,,,,,,,,"[-0.9138,-0.5296000000000001,-0.5529999999999999]","[-0.24719999999999998,-0.0354000000000001,0.3175999999999999]",-41,-76,1,0,0,response5disk,-3,-1,0,0,1,rectangle,-3,-1,0,0,1,,2,0.0021,0,-3,-1,0,0,1,0,1,1,94,1,13,second,,,,,,,,,,,,,,,,,,,,,,,,,,,,,,,,,,,,,,,,,,,,,,,,,,,,,,,,,,,,,,,,,,,
,,,,,,617071ff5db0c4852d3c1bb5,62bbfab973dcda4f2d176001,2022-06-29_09h10.37.150,Colour_Asymmetry_Pilot,2022.1.3,Win32,60.14675809,62bbe60bf3d75ef465d3e404,,,,,,,,,,,,,,,,,,,,twoone,,-1,2.9201,,,,,,,,,,,,,,,,,,,,,,,,,,,,,,,,,,"[0.9372,0.9450000000000001,0.8980000000000001]","[-0.17659999999999998,-0.2864,-0.8354]",-55,-76,1,0,0,response5disk,-1,8,1,0,0,rectangle,89,36,0,0,1,3,3,4.3464,1,-8,3,0,0,1,0,2,2,159,1,78,second,response1disk_3,rectangle,,,,,,,,,,,,,,,,,,,,,,,,,,,,,,,,,,,,,,,,,,,,,,,,,,,,,,,,,,,,,,,,,
,,,,,,617071ff5db0c4852d3c1bb5,62bbfab973dcda4f2d176001,2022-06-29_09h10.37.150,Colour_Asymmetry_Pilot,2022.1.3,Win32,60.14675809,62bbe60bf3d75ef465d3e404,,,,,,,,,,,,,,,,,,,,twofour,,-1,4.0637,,,,,,,,,,,,,,,,,,,,,,,,,,,,,,,,,,"[-0.9688,-0.7412000000000001,-0.4902000000000001]","[0.796,0.2156,-0.27859999999999996]",-47,-78,1,0,0,response5disk,-2,0,0,0,1,rectangle,-2,0,0,0,1,3,1,0.0019,0,-2,0,0,0,1,0,3,3,24,1,24,first,,,,,,,,,,,,,,,,,,,,,,,,,,,,,,,,,,,,,,,,,,,,,,,,,,,,,,,,,,,,,,,,,,,
,,,,,,617071ff5db0c4852d3c1bb5,62bbfab973dcda4f2d176001,2022-06-29_09h10.37.150,Colour_Asymmetry_Pilot,2022.1.3,Win32,60.14675809,62bbe60bf3d75ef465d3e404,,,,,,,,,,,,,,,,,,,,onethree,,-1,4.5329,,,,,,,,,,,,,,,,,,,,,,,,,,,,,,,,,,"[-0.26280000000000003,-0.2158,-0.3256]","[-0.24719999999999998,-0.0354000000000001,0.3175999999999999]",-35,-74,1,0,0,response5disk,-6,-8,0,0,1,rectangle,-6,-8,0,0,1,3,1,0.0002,0,-6,-8,0,0,1,0,4,4,33,1,33,first,,,,,,,,,,,,,,,,,,,,,,,,,,,,,,,,,,,,,,,,,,,,,,,,,,,,,,,,,,,,,,,,,,,
,,,,,,617071ff5db0c4852d3c1bb5,62bbfab973dcda4f2d176001,2022-06-29_09h10.37.150,Colour_Asymmetry_Pilot,2022.1.3,Win32,60.14675809,62bbe60bf3d75ef465d3e404,,,,,,,,,,,,,,,,,,,,threeone,,-1,2.8176,,,,,,,,,,,,,,,,,,,,,,,,,,,,,,,,,,"[-0.2942,-0.24719999999999998,-0.357]","[-0.07459999999999989,0.12139999999999995,-0.9922]",-56,-85,1,0,0,response5disk,-3,2,0,0,1,rectangle,-3,2,0,0,1,3,2,0.0012,0,-3,2,0,0,1,0,5,5,46,1,46,first,,,,,,,,,,,,,,,,,,,,,,,,,,,,,,,,,,,,,,,,,,,,,,,,,,,,,,,,,,,,,,,,,,,
,,,,,,617071ff5db0c4852d3c1bb5,62bbfab973dcda4f2d176001,2022-06-29_09h10.37.150,Colour_Asymmetry_Pilot,2022.1.3,Win32,60.14675809,62bbe60bf3d75ef465d3e404,,,,,,,,,,,,,,,,,,,,fourthree,,-1,2.9306,,,,,,,,,,,,,,,,,,,,,,,,,,,,,,,,,,"[-0.09019999999999995,0.44300000000000006,0.5371999999999999]","[-0.6706000000000001,-0.6157999999999999,-0.6786]",-54,-85,1,0,0,response5disk,-12,-3,1,0,0,rectangle,-12,-3,1,0,0,3,1,0.0013,0,-12,-3,1,0,0,0,6,6,117,1,36,second,,,,,,,,,,,,,,,,,,,,,,,,,,,,,,,,,,,,,,,,,,,,,,,,,,,,,,,,,,,,,,,,,,,
,,,,,,617071ff5db0c4852d3c1bb5,62bbfab973dcda4f2d176001,2022-06-29_09h10.37.150,Colour_Asymmetry_Pilot,2022.1.3,Win32,60.14675809,62bbe60bf3d75ef465d3e404,,,,,,,,,,,,,,,,,,,,threefour,,-1,1.8169,,,,,,,,,,,,,,,,,,,,,,,,,,,,,,,,,,"[-0.4746,-0.0354000000000001,0.5449999999999999]","[0.9763999999999999,0.8588,-0.05900000000000005]",-35,-74,1,0,0,response5disk,-5,-1,1,0,0,rectangle,-5,-1,1,0,0,3,1,0.0003,0,-5,-1,1,0,0,0,7,7,125,1,44,second,,,,,,,,,,,,,,,,,,,,,,,,,,,,,,,,,,,,,,,,,,,,,,,,,,,,,,,,,,,,,,,,,,,
,,,,,,617071ff5db0c4852d3c1bb5,62bbfab973dcda4f2d176001,2022-06-29_09h10.37.150,Colour_Asymmetry_Pilot,2022.1.3,Win32,60.14675809,62bbe60bf3d75ef465d3e404,,,,,,,,,,,,,,,,,,,,twoone,,-1,1.2335,,,,,,,,,,,,,,,,,,,,,,,,,,,,,,,,,,"[0.40379999999999994,0.09000000000000008,0.44300000000000006]","[0.796,0.2156,-0.27859999999999996]",-39,-61,1,0,0,response5disk,-11,4,1,0,0,rectangle,-11,4,1,0,0,3,1,0.0003,0,-11,4,1,0,0,0,8,8,138,1,57,second,,,,,,,,,,,,,,,,,,,,,,,,,,,,,,,,,,,,,,,,,,,,,,,,,,,,,,,,,,,,,,,,,,,
,,,,,,617071ff5db0c4852d3c1bb5,62bbfab973dcda4f2d176001,2022-06-29_09h10.37.150,Colour_Asymmetry_Pilot,2022.1.3,Win32,60.14675809,62bbe60bf3d75ef465d3e404,,,,,,,,,,,,,,,,,,,,onethree,,-1,5.0974,,,,,,,,,,,,,,,,,,,,,,,,,,,,,,,,,,"[-0.0040000000000000036,0.02739999999999987,-0.08239999999999992]","[1,0.12939999999999996,-1]",-48,-72,1,0,0,response5disk,-5,1,1,0,0,rectangle,-5,1,1,0,0,3,2,0.0022,0,-5,1,1,0,0,0,9,9,156,1,75,second,,,,,,,,,,,,,,,,,,,,,,,,,,,,,,,,,,,,,,,,,,,,,,,,,,,,,,,,,,,,,,,,,,,
,,,,,,617071ff5db0c4852d3c1bb5,62bbfab973dcda4f2d176001,2022-06-29_09h10.37.150,Colour_Asymmetry_Pilot,2022.1.3,Win32,60.14675809,62bbe60bf3d75ef465d3e404,,,,,,,,,,,,,,,,,,,,onethree,,-1,6.5633,,,,,,,,,,,,,,,,,,,,,,,,,,,,,,,,,,"[0.37240000000000006,0.4980000000000002,-0.2864]","[0.796,0.2156,-0.27859999999999996]",-33,-63,1,0,0,response5disk,-2,-1,0,0,1,rectangle,-2,-1,0,0,1,3,1,0.0013,0,-2,-1,0,0,1,0,10,10,8,1,8,first,,,,,,,,,,,,,,,,,,,,,,,,,,,,,,,,,,,,,,,,,,,,,,,,,,,,,,,,,,,,,,,,,,,
,,,,,,617071ff5db0c4852d3c1bb5,62bbfab973dcda4f2d176001,2022-06-29_09h10.37.150,Colour_Asymmetry_Pilot,2022.1.3,Win32,60.14675809,62bbe60bf3d75ef465d3e404,,,,,,,,,,,,,,,,,,,,fourthree,,2,4.8267,,,,,,,,,,,,,,,,,,,,,,,,,,,,,,,,,,"[0.09799999999999986,-0.24719999999999998,0.15280000000000005]","[0.19199999999999995,0.18419999999999992,0.5136000000000001]",94,-27,1,0,0,response3disk,1,1,1,0,0,rectangle,1,1,1,0,0,3,1,0.0003,0,1,1,1,0,0,0,11,11,129,1,48,second,,,,,,,,,,,,,,,,,,,,,,,,,,,,,,,,,,,,,,,,,,,,,,,,,,,,,,,,,,,,,,,,,,,
,,,,,,617071ff5db0c4852d3c1bb5,62bbfab973dcda4f2d176001,2022-06-29_09h10.37.150,Colour_Asymmetry_Pilot,2022.1.3,Win32,60.14675809,62bbe60bf3d75ef465d3e404,,,,,,,,,,,,,,,,,,,,threeone,,-1,1.1344,,,,,,,,,,,,,,,,,,,,,,,,,,,,,,,,,,"[-0.5922000000000001,-0.7492000000000001,-0.5296000000000001]","[-0.050999999999999934,-0.6706000000000001,-0.804]",-42,-62,1,0,0,response5disk,-2,-1,0,0,1,rectangle,-2,-1,0,0,1,3,2,0.0028,0,-2,-1,0,0,1,0,12,12,146,1,65,second,,,,,,,,,,,,,,,,,,,,,,,,,,,,,,,,,,,,,,,,,,,,,,,,,,,,,,,,,,,,,,,,,,,
,,,,,,617071ff5db0c4852d3c1bb5,62bbfab973dcda4f2d176001,2022-06-29_09h10.37.150,Colour_Asymmetry_Pilot,2022.1.3,Win32,60.14675809,62bbe60bf3d75ef465d3e404,,,,,,,,,,,,,,,,,,,,twoone,,-1,2.1586,,,,,,,,,,,,,,,,,,,,,,,,,,,,,,,,,,"[0.796,0.2156,-0.27859999999999996]","[-0.4982,-0.2942,-0.0354000000000001]",-50,-67,1,0,0,response5disk,-3,1,0,0,1,rectangle,-3,1,0,0,1,3,2,0.0002,0,-3,1,0,0,1,0,13,13,26,1,26,first,,,,,,,,,,,,,,,,,,,,,,,,,,,,,,,,,,,,,,,,,,,,,,,,,,,,,,,,,,,,,,,,,,,
,,,,,,617071ff5db0c4852d3c1bb5,62bbfab973dcda4f2d176001,2022-06-29_09h10.37.150,Colour_Asymmetry_Pilot,2022.1.3,Win32,60.14675809,62bbe60bf3d75ef465d3e404,,,,,,,,,,,,,,,,,,,,twofour,,-1,3.7849,,,,,,,,,,,,,,,,,,,,,,,,,,,,,,,,,,"[-0.6,0.16860000000000008,0.44300000000000006]","[0.34099999999999997,0.12939999999999996,-0.9766]",-55,-94,1,0,0,response5disk,2,4,1,0,0,rectangle,2,4,1,0,0,3,1,0.0014,0,2,4,1,0,0,0,14,14,92,1,11,second,,,,,,,,,,,,,,,,,,,,,,,,,,,,,,,,,,,,,,,,,,,,,,,,,,,,,,,,,,,,,,,,,,,
,,,,,,617071ff5db0c4852d3c1bb5,62bbfab973dcda4f2d176001,2022-06-29_09h10.37.150,Colour_Asymmetry_Pilot,2022.1.3,Win32,60.14675809,62bbe60bf3d75ef465d3e404,,,,,,,,,,,,,,,,,,,,fourthree,,-1,1.2017,,,,,,,,,,,,,,,,,,,,,,,,,,,,,,,,,,"[0.12939999999999996,-0.2864,0.3253999999999999]","[-0.26280000000000003,-0.2158,-0.3256]",-31,-67,1,0,0,response5disk,-6,-10,1,0,0,rectangle,76,-41,0,0,1,2,2,5.7601,1,-6,-1,1,0,0,0,15,15,161,1,80,second,response3disk_3,rectangle,,,,,,,,,,,,,,,,,,,,,,,,,,,,,,,,,,,,,,,,,,,,,,,,,,,,,,,,,,,,,,,,,
,,,,,,617071ff5db0c4852d3c1bb5,62bbfab973dcda4f2d176001,2022-06-29_09h10.37.150,Colour_Asymmetry_Pilot,2022.1.3,Win32,60.14675809,62bbe60bf3d75ef465d3e404,,,,,,,,,,,,,,,,,,,,threefour,,1,4.0136,,,,,,,,,,,,,,,,,,,,,,,,,,,,,,,,,,"[1,0.12939999999999996,-1]","[-0.0040000000000000036,0.02739999999999987,-0.08239999999999992]",30,-64,1,0,0,response3disk,-2,-3,1,0,0,rectangle,-2,-3,1,0,0,2,1,0.0013,0,-2,-3,1,0,0,0,16,16,75,1,75,first,,,,,,,,,,,,,,,,,,,,,,,,,,,,,,,,,,,,,,,,,,,,,,,,,,,,,,,,,,,,,,,,,,,
,,,,,,617071ff5db0c4852d3c1bb5,62bbfab973dcda4f2d176001,2022-06-29_09h10.37.150,Colour_Asymmetry_Pilot,2022.1.3,Win32,60.14675809,62bbe60bf3d75ef465d3e404,,,,,,,,,,,,,,,,,,,,onethree,,-1,1.1845,,,,,,,,,,,,,,,,,,,,,,,,,,,,,,,,,,"[0.37240000000000006,-0.050999999999999934,-0.5216]","[0.30180000000000007,-0.7884,-0.9844]",-37,-55,1,0,0,response5disk,-1,9,1,0,0,rectangle,-1,9,1,0,0,2,2,0.0012,0,-1,9,1,0,0,0,17,17,124,1,43,second,,,,,,,,,,,,,,,,,,,,,,,,,,,,,,,,,,,,,,,,,,,,,,,,,,,,,,,,,,,,,,,,,,,
,,,,,,617071ff5db0c4852d3c1bb5,62bbfab973dcda4f2d176001,2022-06-29_09h10.37.150,Colour_Asymmetry_Pilot,2022.1.3,Win32,60.14675809,62bbe60bf3d75ef465d3e404,,,,,,,,,,,,,,,,,,,,threeone,,-1,0.9428,,,,,,,,,,,,,,,,,,,,,,,,,,,,,,,,,,"[0.2862,0.7802,0.3568]","[-0.8118,-0.8198,-0.5452]",-41,-69,1,0,0,response5disk,4,-2,1,0,0,rectangle,4,-2,1,0,0,2,3,0.0015,0,4,-2,1,0,0,0,18,18,157,1,76,second,,,,,,,,,,,,,,,,,,,,,,,,,,,,,,,,,,,,,,,,,,,,,,,,,,,,,,,,,,,,,,,,,,,
,,,,,,617071ff5db0c4852d3c1bb5,62bbfab973dcda4f2d176001,2022-06-29_09h10.37.150,Colour_Asymmetry_Pilot,2022.1.3,Win32,60.14675809,62bbe60bf3d75ef465d3e404,,,,,,,,,,,,,,,,,,,,onetwo,,-1,1.2058,,,,,,,,,,,,,,,,,,,,,,,,,,,,,,,,,,"[0.3881999999999999,-0.23939999999999995,-0.05040000000000011]","[-0.10599999999999998,-0.15300000000000002,0.15280000000000005]",-37,-41,1,0,0,response5disk,-3,-1,1,0,0,rectangle,-3,-1,1,0,0,2,3,0.0002,0,-3,-1,1,0,0,0,19,19,54,1,54,first,,,,,,,,,,,,,,,,,,,,,,,,,,,,,,,,,,,,,,,,,,,,,,,,,,,,,,,,,,,,,,,,,,,
,,,,,,617071ff5db0c4852d3c1bb5,62bbfab973dcda4f2d176001,2022-06-29_09h10.37.150,Colour_Asymmetry_Pilot,2022.1.3,Win32,60.14675809,62bbe60bf3d75ef465d3e404,,,,,,,,,,,,,,,,,,,,fourtwo,,-1,1.3519,,,,,,,,,,,,,,,,,,,,,,,,,,,,,,,,,,"[0.2862,0.7802,0.3568]","[0.9213999999999998,0.6391999999999998,-0.9922]",-37,-66,1,0,0,response5disk,-4,-5,0,0,1,rectangle,-4,-5,0,0,1,2,2,0.0014,0,-4,-5,0,0,1,0,20,20,4,1,4,first,,,,,,,,,,,,,,,,,,,,,,,,,,,,,,,,,,,,,,,,,,,,,,,,,,,,,,,,,,,,,,,,,,,
