trials.thisRepN,trials.thisTrialN,trials.thisN,trials.thisIndex,trials.ran,Colourcodes,participant,session,date,expName,psychopyVersion,OS,frameRate,study_id,trials_4.thisRepN,trials_4.thisTrialN,trials_4.thisN,trials_4.thisIndex,trials_4.ran,StimulusPos,key_resp.keys,key_resp.rt,key_resp_2.keys,key_resp_2.rt,key_resp_15.keys,key_resp_15.rt,key_resp_17.keys,key_resp_17.rt,key_resp_9.keys,key_resp_9.rt,key_resp_10.keys,key_resp_10.rt,Circle1_col,Ecc,Circle2_col,similarity,response_time,mouse_5.x,mouse_5.y,mouse_5.leftButton,mouse_5.midButton,mouse_5.rightButton,mouse_5.clicked_name,mouse_10.x,mouse_10.y,mouse_10.leftButton,mouse_10.midButton,mouse_10.rightButton,mouse_10.clicked_name,mouse_7.x,mouse_7.y,mouse_7.leftButton,mouse_7.midButton,mouse_7.rightButton,catchnumberprac,mouse_6.x,mouse_6.y,mouse_6.leftButton,mouse_6.midButton,mouse_6.rightButton,duringprac.thisRepN,duringprac.thisTrialN,duringprac.thisN,duringprac.thisIndex,duringprac.ran,mouse_7.clicked_name,catchprac,mouse_6.clicked_name,key_resp_22.keys,key_resp_22.rt,Circle1_colour,Circle2_colour,mouse.x,mouse.y,mouse.leftButton,mouse.midButton,mouse.rightButton,mouse.clicked_name,mouse_2.x,mouse_2.y,mouse_2.leftButton,mouse_2.midButton,mouse_2.rightButton,mouse_2.clicked_name,mouse_3.x,mouse_3.y,mouse_3.leftButton,mouse_3.midButton,mouse_3.rightButton,catchresponse,catchnumber,response_time_catch,Catch,mouse_11.x,mouse_11.y,mouse_11.leftButton,mouse_11.midButton,mouse_11.rightButton,trials_2.thisRepN,trials_2.thisTrialN,trials_2.thisN,trials_2.thisIndex,trials_2.ran,Colourpair,Temporder,mouse_3.clicked_name,mouse_11.clicked_name,trials_3.thisRepN,trials_3.thisTrialN,trials_3.thisN,trials_3.thisIndex,trials_3.ran,key_resp_instr_Ishi.keys,key_resp_instr_Ishi.rt,Ishi_trial_keyresp.keys,Ishi_trial_keyresp.rt,Ishi_textbox.text,Ishi_loop.thisRepN,Ishi_loop.thisTrialN,Ishi_loop.thisN,Ishi_loop.thisIndex,Ishi_loop.ran,imageaddress,textbox.text,mouse_4.x,mouse_4.y,mouse_4.leftButton,mouse_4.midButton,mouse_4.rightButton,mouse_4.clicked_name,textbox_2.text,mouse_8.x,mouse_8.y,mouse_8.leftButton,mouse_8.midButton,mouse_8.rightButton,mouse_8.clicked_name,textbox_3.text,mouse_9.x,mouse_9.y,mouse_9.leftButton,mouse_9.midButton,mouse_9.rightButton,mouse_9.clicked_name,textbox_4.text,mouse_12.x,mouse_12.y,mouse_12.leftButton,mouse_12.midButton,mouse_12.rightButton,mouse_12.clicked_name,textbox_5.text,mouse_13.x,mouse_13.y,mouse_13.leftButton,mouse_13.midButton,mouse_13.rightButton,mouse_13.clicked_name,textbox_6.text,mouse_14.x,mouse_14.y,mouse_14.leftButton,mouse_14.midButton,mouse_14.rightButton,mouse_14.clicked_name,textbox_7.text,mouse_15.x,mouse_15.y,mouse_15.leftButton,mouse_15.midButton,mouse_15.rightButton,mouse_15.clicked_name
0,0,0,91,1,,616906751ffc9107b0236aa0,62bbfb486ef624f4e415c7b9,2022-06-29_09h13.11.415,Colour_Asymmetry_Pilot,2022.1.3,Win32,59.79073244,62bbe60bf3d75ef465d3e404,,,,,,,,,,,,,,,,,,,,,,,,,,,,,,,,,,,,,,,,,,,,,,,,,,,,,,,,,,,,,,,,,,,,,,,,,,,,,,,,,,,,,,,,,,,,,,,,,,,,,,,,,,,,,,,,,,,,,,,,,,,,,,,,,,,,,,,,,,,,,,,,,,,,,,,,,,,,,,
0,1,1,2,1,,616906751ffc9107b0236aa0,62bbfb486ef624f4e415c7b9,2022-06-29_09h13.11.415,Colour_Asymmetry_Pilot,2022.1.3,Win32,59.79073244,62bbe60bf3d75ef465d3e404,,,,,,,,,,,,,,,,,,,,,,,,,,,,,,,,,,,,,,,,,,,,,,,,,,,,,,,,,,,,,,,,,,,,,,,,,,,,,,,,,,,,,,,,,,,,,,,,,,,,,,,,,,,,,,,,,,,,,,,,,,,,,,,,,,,,,,,,,,,,,,,,,,,,,,,,,,,,,,
0,2,2,81,1,,616906751ffc9107b0236aa0,62bbfb486ef624f4e415c7b9,2022-06-29_09h13.11.415,Colour_Asymmetry_Pilot,2022.1.3,Win32,59.79073244,62bbe60bf3d75ef465d3e404,,,,,,,,,,,,,,,,,,,,,,,,,,,,,,,,,,,,,,,,,,,,,,,,,,,,,,,,,,,,,,,,,,,,,,,,,,,,,,,,,,,,,,,,,,,,,,,,,,,,,,,,,,,,,,,,,,,,,,,,,,,,,,,,,,,,,,,,,,,,,,,,,,,,,,,,,,,,,,
0,3,3,71,1,,616906751ffc9107b0236aa0,62bbfb486ef624f4e415c7b9,2022-06-29_09h13.11.415,Colour_Asymmetry_Pilot,2022.1.3,Win32,59.79073244,62bbe60bf3d75ef465d3e404,,,,,,,,,,,,,,,,,,,,,,,,,,,,,,,,,,,,,,,,,,,,,,,,,,,,,,,,,,,,,,,,,,,,,,,,,,,,,,,,,,,,,,,,,,,,,,,,,,,,,,,,,,,,,,,,,,,,,,,,,,,,,,,,,,,,,,,,,,,,,,,,,,,,,,,,,,,,,,
0,4,4,89,1,,616906751ffc9107b0236aa0,62bbfb486ef624f4e415c7b9,2022-06-29_09h13.11.415,Colour_Asymmetry_Pilot,2022.1.3,Win32,59.79073244,62bbe60bf3d75ef465d3e404,,,,,,,,,,,,,,,,,,,,,,,,,,,,,,,,,,,,,,,,,,,,,,,,,,,,,,,,,,,,,,,,,,,,,,,,,,,,,,,,,,,,,,,,,,,,,,,,,,,,,,,,,,,,,,,,,,,,,,,,,,,,,,,,,,,,,,,,,,,,,,,,,,,,,,,,,,,,,,
0,5,5,56,1,,616906751ffc9107b0236aa0,62bbfb486ef624f4e415c7b9,2022-06-29_09h13.11.415,Colour_Asymmetry_Pilot,2022.1.3,Win32,59.79073244,62bbe60bf3d75ef465d3e404,,,,,,,,,,,,,,,,,,,,,,,,,,,,,,,,,,,,,,,,,,,,,,,,,,,,,,,,,,,,,,,,,,,,,,,,,,,,,,,,,,,,,,,,,,,,,,,,,,,,,,,,,,,,,,,,,,,,,,,,,,,,,,,,,,,,,,,,,,,,,,,,,,,,,,,,,,,,,,
0,6,6,40,1,,616906751ffc9107b0236aa0,62bbfb486ef624f4e415c7b9,2022-06-29_09h13.11.415,Colour_Asymmetry_Pilot,2022.1.3,Win32,59.79073244,62bbe60bf3d75ef465d3e404,,,,,,,,,,,,,,,,,,,,,,,,,,,,,,,,,,,,,,,,,,,,,,,,,,,,,,,,,,,,,,,,,,,,,,,,,,,,,,,,,,,,,,,,,,,,,,,,,,,,,,,,,,,,,,,,,,,,,,,,,,,,,,,,,,,,,,,,,,,,,,,,,,,,,,,,,,,,,,
0,7,7,17,1,,616906751ffc9107b0236aa0,62bbfb486ef624f4e415c7b9,2022-06-29_09h13.11.415,Colour_Asymmetry_Pilot,2022.1.3,Win32,59.79073244,62bbe60bf3d75ef465d3e404,,,,,,,,,,,,,,,,,,,,,,,,,,,,,,,,,,,,,,,,,,,,,,,,,,,,,,,,,,,,,,,,,,,,,,,,,,,,,,,,,,,,,,,,,,,,,,,,,,,,,,,,,,,,,,,,,,,,,,,,,,,,,,,,,,,,,,,,,,,,,,,,,,,,,,,,,,,,,,
0,8,8,88,1,,616906751ffc9107b0236aa0,62bbfb486ef624f4e415c7b9,2022-06-29_09h13.11.415,Colour_Asymmetry_Pilot,2022.1.3,Win32,59.79073244,62bbe60bf3d75ef465d3e404,,,,,,,,,,,,,,,,,,,,,,,,,,,,,,,,,,,,,,,,,,,,,,,,,,,,,,,,,,,,,,,,,,,,,,,,,,,,,,,,,,,,,,,,,,,,,,,,,,,,,,,,,,,,,,,,,,,,,,,,,,,,,,,,,,,,,,,,,,,,,,,,,,,,,,,,,,,,,,
0,9,9,26,1,,616906751ffc9107b0236aa0,62bbfb486ef624f4e415c7b9,2022-06-29_09h13.11.415,Colour_Asymmetry_Pilot,2022.1.3,Win32,59.79073244,62bbe60bf3d75ef465d3e404,,,,,,,,,,,,,,,,,,,,,,,,,,,,,,,,,,,,,,,,,,,,,,,,,,,,,,,,,,,,,,,,,,,,,,,,,,,,,,,,,,,,,,,,,,,,,,,,,,,,,,,,,,,,,,,,,,,,,,,,,,,,,,,,,,,,,,,,,,,,,,,,,,,,,,,,,,,,,,
0,10,10,63,1,,616906751ffc9107b0236aa0,62bbfb486ef624f4e415c7b9,2022-06-29_09h13.11.415,Colour_Asymmetry_Pilot,2022.1.3,Win32,59.79073244,62bbe60bf3d75ef465d3e404,,,,,,,,,,,,,,,,,,,,,,,,,,,,,,,,,,,,,,,,,,,,,,,,,,,,,,,,,,,,,,,,,,,,,,,,,,,,,,,,,,,,,,,,,,,,,,,,,,,,,,,,,,,,,,,,,,,,,,,,,,,,,,,,,,,,,,,,,,,,,,,,,,,,,,,,,,,,,,
0,11,11,0,1,,616906751ffc9107b0236aa0,62bbfb486ef624f4e415c7b9,2022-06-29_09h13.11.415,Colour_Asymmetry_Pilot,2022.1.3,Win32,59.79073244,62bbe60bf3d75ef465d3e404,,,,,,,,,,,,,,,,,,,,,,,,,,,,,,,,,,,,,,,,,,,,,,,,,,,,,,,,,,,,,,,,,,,,,,,,,,,,,,,,,,,,,,,,,,,,,,,,,,,,,,,,,,,,,,,,,,,,,,,,,,,,,,,,,,,,,,,,,,,,,,,,,,,,,,,,,,,,,,
0,12,12,46,1,,616906751ffc9107b0236aa0,62bbfb486ef624f4e415c7b9,2022-06-29_09h13.11.415,Colour_Asymmetry_Pilot,2022.1.3,Win32,59.79073244,62bbe60bf3d75ef465d3e404,,,,,,,,,,,,,,,,,,,,,,,,,,,,,,,,,,,,,,,,,,,,,,,,,,,,,,,,,,,,,,,,,,,,,,,,,,,,,,,,,,,,,,,,,,,,,,,,,,,,,,,,,,,,,,,,,,,,,,,,,,,,,,,,,,,,,,,,,,,,,,,,,,,,,,,,,,,,,,
0,13,13,53,1,,616906751ffc9107b0236aa0,62bbfb486ef624f4e415c7b9,2022-06-29_09h13.11.415,Colour_Asymmetry_Pilot,2022.1.3,Win32,59.79073244,62bbe60bf3d75ef465d3e404,,,,,,,,,,,,,,,,,,,,,,,,,,,,,,,,,,,,,,,,,,,,,,,,,,,,,,,,,,,,,,,,,,,,,,,,,,,,,,,,,,,,,,,,,,,,,,,,,,,,,,,,,,,,,,,,,,,,,,,,,,,,,,,,,,,,,,,,,,,,,,,,,,,,,,,,,,,,,,
0,14,14,57,1,,616906751ffc9107b0236aa0,62bbfb486ef624f4e415c7b9,2022-06-29_09h13.11.415,Colour_Asymmetry_Pilot,2022.1.3,Win32,59.79073244,62bbe60bf3d75ef465d3e404,,,,,,,,,,,,,,,,,,,,,,,,,,,,,,,,,,,,,,,,,,,,,,,,,,,,,,,,,,,,,,,,,,,,,,,,,,,,,,,,,,,,,,,,,,,,,,,,,,,,,,,,,,,,,,,,,,,,,,,,,,,,,,,,,,,,,,,,,,,,,,,,,,,,,,,,,,,,,,
0,15,15,25,1,,616906751ffc9107b0236aa0,62bbfb486ef624f4e415c7b9,2022-06-29_09h13.11.415,Colour_Asymmetry_Pilot,2022.1.3,Win32,59.79073244,62bbe60bf3d75ef465d3e404,,,,,,,,,,,,,,,,,,,,,,,,,,,,,,,,,,,,,,,,,,,,,,,,,,,,,,,,,,,,,,,,,,,,,,,,,,,,,,,,,,,,,,,,,,,,,,,,,,,,,,,,,,,,,,,,,,,,,,,,,,,,,,,,,,,,,,,,,,,,,,,,,,,,,,,,,,,,,,
0,16,16,67,1,,616906751ffc9107b0236aa0,62bbfb486ef624f4e415c7b9,2022-06-29_09h13.11.415,Colour_Asymmetry_Pilot,2022.1.3,Win32,59.79073244,62bbe60bf3d75ef465d3e404,,,,,,,,,,,,,,,,,,,,,,,,,,,,,,,,,,,,,,,,,,,,,,,,,,,,,,,,,,,,,,,,,,,,,,,,,,,,,,,,,,,,,,,,,,,,,,,,,,,,,,,,,,,,,,,,,,,,,,,,,,,,,,,,,,,,,,,,,,,,,,,,,,,,,,,,,,,,,,
0,17,17,13,1,,616906751ffc9107b0236aa0,62bbfb486ef624f4e415c7b9,2022-06-29_09h13.11.415,Colour_Asymmetry_Pilot,2022.1.3,Win32,59.79073244,62bbe60bf3d75ef465d3e404,,,,,,,,,,,,,,,,,,,,,,,,,,,,,,,,,,,,,,,,,,,,,,,,,,,,,,,,,,,,,,,,,,,,,,,,,,,,,,,,,,,,,,,,,,,,,,,,,,,,,,,,,,,,,,,,,,,,,,,,,,,,,,,,,,,,,,,,,,,,,,,,,,,,,,,,,,,,,,
0,18,18,86,1,,616906751ffc9107b0236aa0,62bbfb486ef624f4e415c7b9,2022-06-29_09h13.11.415,Colour_Asymmetry_Pilot,2022.1.3,Win32,59.79073244,62bbe60bf3d75ef465d3e404,,,,,,,,,,,,,,,,,,,,,,,,,,,,,,,,,,,,,,,,,,,,,,,,,,,,,,,,,,,,,,,,,,,,,,,,,,,,,,,,,,,,,,,,,,,,,,,,,,,,,,,,,,,,,,,,,,,,,,,,,,,,,,,,,,,,,,,,,,,,,,,,,,,,,,,,,,,,,,
0,19,19,92,1,,616906751ffc9107b0236aa0,62bbfb486ef624f4e415c7b9,2022-06-29_09h13.11.415,Colour_Asymmetry_Pilot,2022.1.3,Win32,59.79073244,62bbe60bf3d75ef465d3e404,,,,,,,,,,,,,,,,,,,,,,,,,,,,,,,,,,,,,,,,,,,,,,,,,,,,,,,,,,,,,,,,,,,,,,,,,,,,,,,,,,,,,,,,,,,,,,,,,,,,,,,,,,,,,,,,,,,,,,,,,,,,,,,,,,,,,,,,,,,,,,,,,,,,,,,,,,,,,,
0,20,20,39,1,,616906751ffc9107b0236aa0,62bbfb486ef624f4e415c7b9,2022-06-29_09h13.11.415,Colour_Asymmetry_Pilot,2022.1.3,Win32,59.79073244,62bbe60bf3d75ef465d3e404,,,,,,,,,,,,,,,,,,,,,,,,,,,,,,,,,,,,,,,,,,,,,,,,,,,,,,,,,,,,,,,,,,,,,,,,,,,,,,,,,,,,,,,,,,,,,,,,,,,,,,,,,,,,,,,,,,,,,,,,,,,,,,,,,,,,,,,,,,,,,,,,,,,,,,,,,,,,,,
0,21,21,15,1,,616906751ffc9107b0236aa0,62bbfb486ef624f4e415c7b9,2022-06-29_09h13.11.415,Colour_Asymmetry_Pilot,2022.1.3,Win32,59.79073244,62bbe60bf3d75ef465d3e404,,,,,,,,,,,,,,,,,,,,,,,,,,,,,,,,,,,,,,,,,,,,,,,,,,,,,,,,,,,,,,,,,,,,,,,,,,,,,,,,,,,,,,,,,,,,,,,,,,,,,,,,,,,,,,,,,,,,,,,,,,,,,,,,,,,,,,,,,,,,,,,,,,,,,,,,,,,,,,
0,22,22,50,1,,616906751ffc9107b0236aa0,62bbfb486ef624f4e415c7b9,2022-06-29_09h13.11.415,Colour_Asymmetry_Pilot,2022.1.3,Win32,59.79073244,62bbe60bf3d75ef465d3e404,,,,,,,,,,,,,,,,,,,,,,,,,,,,,,,,,,,,,,,,,,,,,,,,,,,,,,,,,,,,,,,,,,,,,,,,,,,,,,,,,,,,,,,,,,,,,,,,,,,,,,,,,,,,,,,,,,,,,,,,,,,,,,,,,,,,,,,,,,,,,,,,,,,,,,,,,,,,,,
0,23,23,79,1,,616906751ffc9107b0236aa0,62bbfb486ef624f4e415c7b9,2022-06-29_09h13.11.415,Colour_Asymmetry_Pilot,2022.1.3,Win32,59.79073244,62bbe60bf3d75ef465d3e404,,,,,,,,,,,,,,,,,,,,,,,,,,,,,,,,,,,,,,,,,,,,,,,,,,,,,,,,,,,,,,,,,,,,,,,,,,,,,,,,,,,,,,,,,,,,,,,,,,,,,,,,,,,,,,,,,,,,,,,,,,,,,,,,,,,,,,,,,,,,,,,,,,,,,,,,,,,,,,
0,24,24,1,1,,616906751ffc9107b0236aa0,62bbfb486ef624f4e415c7b9,2022-06-29_09h13.11.415,Colour_Asymmetry_Pilot,2022.1.3,Win32,59.79073244,62bbe60bf3d75ef465d3e404,,,,,,,,,,,,,,,,,,,,,,,,,,,,,,,,,,,,,,,,,,,,,,,,,,,,,,,,,,,,,,,,,,,,,,,,,,,,,,,,,,,,,,,,,,,,,,,,,,,,,,,,,,,,,,,,,,,,,,,,,,,,,,,,,,,,,,,,,,,,,,,,,,,,,,,,,,,,,,
0,25,25,62,1,,616906751ffc9107b0236aa0,62bbfb486ef624f4e415c7b9,2022-06-29_09h13.11.415,Colour_Asymmetry_Pilot,2022.1.3,Win32,59.79073244,62bbe60bf3d75ef465d3e404,,,,,,,,,,,,,,,,,,,,,,,,,,,,,,,,,,,,,,,,,,,,,,,,,,,,,,,,,,,,,,,,,,,,,,,,,,,,,,,,,,,,,,,,,,,,,,,,,,,,,,,,,,,,,,,,,,,,,,,,,,,,,,,,,,,,,,,,,,,,,,,,,,,,,,,,,,,,,,
0,26,26,4,1,,616906751ffc9107b0236aa0,62bbfb486ef624f4e415c7b9,2022-06-29_09h13.11.415,Colour_Asymmetry_Pilot,2022.1.3,Win32,59.79073244,62bbe60bf3d75ef465d3e404,,,,,,,,,,,,,,,,,,,,,,,,,,,,,,,,,,,,,,,,,,,,,,,,,,,,,,,,,,,,,,,,,,,,,,,,,,,,,,,,,,,,,,,,,,,,,,,,,,,,,,,,,,,,,,,,,,,,,,,,,,,,,,,,,,,,,,,,,,,,,,,,,,,,,,,,,,,,,,
0,27,27,75,1,,616906751ffc9107b0236aa0,62bbfb486ef624f4e415c7b9,2022-06-29_09h13.11.415,Colour_Asymmetry_Pilot,2022.1.3,Win32,59.79073244,62bbe60bf3d75ef465d3e404,,,,,,,,,,,,,,,,,,,,,,,,,,,,,,,,,,,,,,,,,,,,,,,,,,,,,,,,,,,,,,,,,,,,,,,,,,,,,,,,,,,,,,,,,,,,,,,,,,,,,,,,,,,,,,,,,,,,,,,,,,,,,,,,,,,,,,,,,,,,,,,,,,,,,,,,,,,,,,
0,28,28,61,1,,616906751ffc9107b0236aa0,62bbfb486ef624f4e415c7b9,2022-06-29_09h13.11.415,Colour_Asymmetry_Pilot,2022.1.3,Win32,59.79073244,62bbe60bf3d75ef465d3e404,,,,,,,,,,,,,,,,,,,,,,,,,,,,,,,,,,,,,,,,,,,,,,,,,,,,,,,,,,,,,,,,,,,,,,,,,,,,,,,,,,,,,,,,,,,,,,,,,,,,,,,,,,,,,,,,,,,,,,,,,,,,,,,,,,,,,,,,,,,,,,,,,,,,,,,,,,,,,,
0,29,29,3,1,,616906751ffc9107b0236aa0,62bbfb486ef624f4e415c7b9,2022-06-29_09h13.11.415,Colour_Asymmetry_Pilot,2022.1.3,Win32,59.79073244,62bbe60bf3d75ef465d3e404,,,,,,,,,,,,,,,,,,,,,,,,,,,,,,,,,,,,,,,,,,,,,,,,,,,,,,,,,,,,,,,,,,,,,,,,,,,,,,,,,,,,,,,,,,,,,,,,,,,,,,,,,,,,,,,,,,,,,,,,,,,,,,,,,,,,,,,,,,,,,,,,,,,,,,,,,,,,,,
0,30,30,7,1,,616906751ffc9107b0236aa0,62bbfb486ef624f4e415c7b9,2022-06-29_09h13.11.415,Colour_Asymmetry_Pilot,2022.1.3,Win32,59.79073244,62bbe60bf3d75ef465d3e404,,,,,,,,,,,,,,,,,,,,,,,,,,,,,,,,,,,,,,,,,,,,,,,,,,,,,,,,,,,,,,,,,,,,,,,,,,,,,,,,,,,,,,,,,,,,,,,,,,,,,,,,,,,,,,,,,,,,,,,,,,,,,,,,,,,,,,,,,,,,,,,,,,,,,,,,,,,,,,
0,31,31,64,1,,616906751ffc9107b0236aa0,62bbfb486ef624f4e415c7b9,2022-06-29_09h13.11.415,Colour_Asymmetry_Pilot,2022.1.3,Win32,59.79073244,62bbe60bf3d75ef465d3e404,,,,,,,,,,,,,,,,,,,,,,,,,,,,,,,,,,,,,,,,,,,,,,,,,,,,,,,,,,,,,,,,,,,,,,,,,,,,,,,,,,,,,,,,,,,,,,,,,,,,,,,,,,,,,,,,,,,,,,,,,,,,,,,,,,,,,,,,,,,,,,,,,,,,,,,,,,,,,,
0,32,32,19,1,,616906751ffc9107b0236aa0,62bbfb486ef624f4e415c7b9,2022-06-29_09h13.11.415,Colour_Asymmetry_Pilot,2022.1.3,Win32,59.79073244,62bbe60bf3d75ef465d3e404,,,,,,,,,,,,,,,,,,,,,,,,,,,,,,,,,,,,,,,,,,,,,,,,,,,,,,,,,,,,,,,,,,,,,,,,,,,,,,,,,,,,,,,,,,,,,,,,,,,,,,,,,,,,,,,,,,,,,,,,,,,,,,,,,,,,,,,,,,,,,,,,,,,,,,,,,,,,,,
0,33,33,6,1,,616906751ffc9107b0236aa0,62bbfb486ef624f4e415c7b9,2022-06-29_09h13.11.415,Colour_Asymmetry_Pilot,2022.1.3,Win32,59.79073244,62bbe60bf3d75ef465d3e404,,,,,,,,,,,,,,,,,,,,,,,,,,,,,,,,,,,,,,,,,,,,,,,,,,,,,,,,,,,,,,,,,,,,,,,,,,,,,,,,,,,,,,,,,,,,,,,,,,,,,,,,,,,,,,,,,,,,,,,,,,,,,,,,,,,,,,,,,,,,,,,,,,,,,,,,,,,,,,
0,34,34,48,1,,616906751ffc9107b0236aa0,62bbfb486ef624f4e415c7b9,2022-06-29_09h13.11.415,Colour_Asymmetry_Pilot,2022.1.3,Win32,59.79073244,62bbe60bf3d75ef465d3e404,,,,,,,,,,,,,,,,,,,,,,,,,,,,,,,,,,,,,,,,,,,,,,,,,,,,,,,,,,,,,,,,,,,,,,,,,,,,,,,,,,,,,,,,,,,,,,,,,,,,,,,,,,,,,,,,,,,,,,,,,,,,,,,,,,,,,,,,,,,,,,,,,,,,,,,,,,,,,,
0,35,35,16,1,,616906751ffc9107b0236aa0,62bbfb486ef624f4e415c7b9,2022-06-29_09h13.11.415,Colour_Asymmetry_Pilot,2022.1.3,Win32,59.79073244,62bbe60bf3d75ef465d3e404,,,,,,,,,,,,,,,,,,,,,,,,,,,,,,,,,,,,,,,,,,,,,,,,,,,,,,,,,,,,,,,,,,,,,,,,,,,,,,,,,,,,,,,,,,,,,,,,,,,,,,,,,,,,,,,,,,,,,,,,,,,,,,,,,,,,,,,,,,,,,,,,,,,,,,,,,,,,,,
0,36,36,68,1,,616906751ffc9107b0236aa0,62bbfb486ef624f4e415c7b9,2022-06-29_09h13.11.415,Colour_Asymmetry_Pilot,2022.1.3,Win32,59.79073244,62bbe60bf3d75ef465d3e404,,,,,,,,,,,,,,,,,,,,,,,,,,,,,,,,,,,,,,,,,,,,,,,,,,,,,,,,,,,,,,,,,,,,,,,,,,,,,,,,,,,,,,,,,,,,,,,,,,,,,,,,,,,,,,,,,,,,,,,,,,,,,,,,,,,,,,,,,,,,,,,,,,,,,,,,,,,,,,
0,37,37,87,1,,616906751ffc9107b0236aa0,62bbfb486ef624f4e415c7b9,2022-06-29_09h13.11.415,Colour_Asymmetry_Pilot,2022.1.3,Win32,59.79073244,62bbe60bf3d75ef465d3e404,,,,,,,,,,,,,,,,,,,,,,,,,,,,,,,,,,,,,,,,,,,,,,,,,,,,,,,,,,,,,,,,,,,,,,,,,,,,,,,,,,,,,,,,,,,,,,,,,,,,,,,,,,,,,,,,,,,,,,,,,,,,,,,,,,,,,,,,,,,,,,,,,,,,,,,,,,,,,,
0,38,38,23,1,,616906751ffc9107b0236aa0,62bbfb486ef624f4e415c7b9,2022-06-29_09h13.11.415,Colour_Asymmetry_Pilot,2022.1.3,Win32,59.79073244,62bbe60bf3d75ef465d3e404,,,,,,,,,,,,,,,,,,,,,,,,,,,,,,,,,,,,,,,,,,,,,,,,,,,,,,,,,,,,,,,,,,,,,,,,,,,,,,,,,,,,,,,,,,,,,,,,,,,,,,,,,,,,,,,,,,,,,,,,,,,,,,,,,,,,,,,,,,,,,,,,,,,,,,,,,,,,,,
0,39,39,24,1,,616906751ffc9107b0236aa0,62bbfb486ef624f4e415c7b9,2022-06-29_09h13.11.415,Colour_Asymmetry_Pilot,2022.1.3,Win32,59.79073244,62bbe60bf3d75ef465d3e404,,,,,,,,,,,,,,,,,,,,,,,,,,,,,,,,,,,,,,,,,,,,,,,,,,,,,,,,,,,,,,,,,,,,,,,,,,,,,,,,,,,,,,,,,,,,,,,,,,,,,,,,,,,,,,,,,,,,,,,,,,,,,,,,,,,,,,,,,,,,,,,,,,,,,,,,,,,,,,
0,40,40,12,1,,616906751ffc9107b0236aa0,62bbfb486ef624f4e415c7b9,2022-06-29_09h13.11.415,Colour_Asymmetry_Pilot,2022.1.3,Win32,59.79073244,62bbe60bf3d75ef465d3e404,,,,,,,,,,,,,,,,,,,,,,,,,,,,,,,,,,,,,,,,,,,,,,,,,,,,,,,,,,,,,,,,,,,,,,,,,,,,,,,,,,,,,,,,,,,,,,,,,,,,,,,,,,,,,,,,,,,,,,,,,,,,,,,,,,,,,,,,,,,,,,,,,,,,,,,,,,,,,,
0,41,41,8,1,,616906751ffc9107b0236aa0,62bbfb486ef624f4e415c7b9,2022-06-29_09h13.11.415,Colour_Asymmetry_Pilot,2022.1.3,Win32,59.79073244,62bbe60bf3d75ef465d3e404,,,,,,,,,,,,,,,,,,,,,,,,,,,,,,,,,,,,,,,,,,,,,,,,,,,,,,,,,,,,,,,,,,,,,,,,,,,,,,,,,,,,,,,,,,,,,,,,,,,,,,,,,,,,,,,,,,,,,,,,,,,,,,,,,,,,,,,,,,,,,,,,,,,,,,,,,,,,,,
0,42,42,52,1,,616906751ffc9107b0236aa0,62bbfb486ef624f4e415c7b9,2022-06-29_09h13.11.415,Colour_Asymmetry_Pilot,2022.1.3,Win32,59.79073244,62bbe60bf3d75ef465d3e404,,,,,,,,,,,,,,,,,,,,,,,,,,,,,,,,,,,,,,,,,,,,,,,,,,,,,,,,,,,,,,,,,,,,,,,,,,,,,,,,,,,,,,,,,,,,,,,,,,,,,,,,,,,,,,,,,,,,,,,,,,,,,,,,,,,,,,,,,,,,,,,,,,,,,,,,,,,,,,
0,43,43,37,1,,616906751ffc9107b0236aa0,62bbfb486ef624f4e415c7b9,2022-06-29_09h13.11.415,Colour_Asymmetry_Pilot,2022.1.3,Win32,59.79073244,62bbe60bf3d75ef465d3e404,,,,,,,,,,,,,,,,,,,,,,,,,,,,,,,,,,,,,,,,,,,,,,,,,,,,,,,,,,,,,,,,,,,,,,,,,,,,,,,,,,,,,,,,,,,,,,,,,,,,,,,,,,,,,,,,,,,,,,,,,,,,,,,,,,,,,,,,,,,,,,,,,,,,,,,,,,,,,,
0,44,44,49,1,,616906751ffc9107b0236aa0,62bbfb486ef624f4e415c7b9,2022-06-29_09h13.11.415,Colour_Asymmetry_Pilot,2022.1.3,Win32,59.79073244,62bbe60bf3d75ef465d3e404,,,,,,,,,,,,,,,,,,,,,,,,,,,,,,,,,,,,,,,,,,,,,,,,,,,,,,,,,,,,,,,,,,,,,,,,,,,,,,,,,,,,,,,,,,,,,,,,,,,,,,,,,,,,,,,,,,,,,,,,,,,,,,,,,,,,,,,,,,,,,,,,,,,,,,,,,,,,,,
0,45,45,51,1,,616906751ffc9107b0236aa0,62bbfb486ef624f4e415c7b9,2022-06-29_09h13.11.415,Colour_Asymmetry_Pilot,2022.1.3,Win32,59.79073244,62bbe60bf3d75ef465d3e404,,,,,,,,,,,,,,,,,,,,,,,,,,,,,,,,,,,,,,,,,,,,,,,,,,,,,,,,,,,,,,,,,,,,,,,,,,,,,,,,,,,,,,,,,,,,,,,,,,,,,,,,,,,,,,,,,,,,,,,,,,,,,,,,,,,,,,,,,,,,,,,,,,,,,,,,,,,,,,
0,46,46,60,1,,616906751ffc9107b0236aa0,62bbfb486ef624f4e415c7b9,2022-06-29_09h13.11.415,Colour_Asymmetry_Pilot,2022.1.3,Win32,59.79073244,62bbe60bf3d75ef465d3e404,,,,,,,,,,,,,,,,,,,,,,,,,,,,,,,,,,,,,,,,,,,,,,,,,,,,,,,,,,,,,,,,,,,,,,,,,,,,,,,,,,,,,,,,,,,,,,,,,,,,,,,,,,,,,,,,,,,,,,,,,,,,,,,,,,,,,,,,,,,,,,,,,,,,,,,,,,,,,,
0,47,47,42,1,,616906751ffc9107b0236aa0,62bbfb486ef624f4e415c7b9,2022-06-29_09h13.11.415,Colour_Asymmetry_Pilot,2022.1.3,Win32,59.79073244,62bbe60bf3d75ef465d3e404,,,,,,,,,,,,,,,,,,,,,,,,,,,,,,,,,,,,,,,,,,,,,,,,,,,,,,,,,,,,,,,,,,,,,,,,,,,,,,,,,,,,,,,,,,,,,,,,,,,,,,,,,,,,,,,,,,,,,,,,,,,,,,,,,,,,,,,,,,,,,,,,,,,,,,,,,,,,,,
0,48,48,31,1,,616906751ffc9107b0236aa0,62bbfb486ef624f4e415c7b9,2022-06-29_09h13.11.415,Colour_Asymmetry_Pilot,2022.1.3,Win32,59.79073244,62bbe60bf3d75ef465d3e404,,,,,,,,,,,,,,,,,,,,,,,,,,,,,,,,,,,,,,,,,,,,,,,,,,,,,,,,,,,,,,,,,,,,,,,,,,,,,,,,,,,,,,,,,,,,,,,,,,,,,,,,,,,,,,,,,,,,,,,,,,,,,,,,,,,,,,,,,,,,,,,,,,,,,,,,,,,,,,
0,49,49,43,1,,616906751ffc9107b0236aa0,62bbfb486ef624f4e415c7b9,2022-06-29_09h13.11.415,Colour_Asymmetry_Pilot,2022.1.3,Win32,59.79073244,62bbe60bf3d75ef465d3e404,,,,,,,,,,,,,,,,,,,,,,,,,,,,,,,,,,,,,,,,,,,,,,,,,,,,,,,,,,,,,,,,,,,,,,,,,,,,,,,,,,,,,,,,,,,,,,,,,,,,,,,,,,,,,,,,,,,,,,,,,,,,,,,,,,,,,,,,,,,,,,,,,,,,,,,,,,,,,,
0,50,50,59,1,,616906751ffc9107b0236aa0,62bbfb486ef624f4e415c7b9,2022-06-29_09h13.11.415,Colour_Asymmetry_Pilot,2022.1.3,Win32,59.79073244,62bbe60bf3d75ef465d3e404,,,,,,,,,,,,,,,,,,,,,,,,,,,,,,,,,,,,,,,,,,,,,,,,,,,,,,,,,,,,,,,,,,,,,,,,,,,,,,,,,,,,,,,,,,,,,,,,,,,,,,,,,,,,,,,,,,,,,,,,,,,,,,,,,,,,,,,,,,,,,,,,,,,,,,,,,,,,,,
0,51,51,36,1,,616906751ffc9107b0236aa0,62bbfb486ef624f4e415c7b9,2022-06-29_09h13.11.415,Colour_Asymmetry_Pilot,2022.1.3,Win32,59.79073244,62bbe60bf3d75ef465d3e404,,,,,,,,,,,,,,,,,,,,,,,,,,,,,,,,,,,,,,,,,,,,,,,,,,,,,,,,,,,,,,,,,,,,,,,,,,,,,,,,,,,,,,,,,,,,,,,,,,,,,,,,,,,,,,,,,,,,,,,,,,,,,,,,,,,,,,,,,,,,,,,,,,,,,,,,,,,,,,
0,52,52,73,1,,616906751ffc9107b0236aa0,62bbfb486ef624f4e415c7b9,2022-06-29_09h13.11.415,Colour_Asymmetry_Pilot,2022.1.3,Win32,59.79073244,62bbe60bf3d75ef465d3e404,,,,,,,,,,,,,,,,,,,,,,,,,,,,,,,,,,,,,,,,,,,,,,,,,,,,,,,,,,,,,,,,,,,,,,,,,,,,,,,,,,,,,,,,,,,,,,,,,,,,,,,,,,,,,,,,,,,,,,,,,,,,,,,,,,,,,,,,,,,,,,,,,,,,,,,,,,,,,,
0,53,53,45,1,,616906751ffc9107b0236aa0,62bbfb486ef624f4e415c7b9,2022-06-29_09h13.11.415,Colour_Asymmetry_Pilot,2022.1.3,Win32,59.79073244,62bbe60bf3d75ef465d3e404,,,,,,,,,,,,,,,,,,,,,,,,,,,,,,,,,,,,,,,,,,,,,,,,,,,,,,,,,,,,,,,,,,,,,,,,,,,,,,,,,,,,,,,,,,,,,,,,,,,,,,,,,,,,,,,,,,,,,,,,,,,,,,,,,,,,,,,,,,,,,,,,,,,,,,,,,,,,,,
0,54,54,65,1,,616906751ffc9107b0236aa0,62bbfb486ef624f4e415c7b9,2022-06-29_09h13.11.415,Colour_Asymmetry_Pilot,2022.1.3,Win32,59.79073244,62bbe60bf3d75ef465d3e404,,,,,,,,,,,,,,,,,,,,,,,,,,,,,,,,,,,,,,,,,,,,,,,,,,,,,,,,,,,,,,,,,,,,,,,,,,,,,,,,,,,,,,,,,,,,,,,,,,,,,,,,,,,,,,,,,,,,,,,,,,,,,,,,,,,,,,,,,,,,,,,,,,,,,,,,,,,,,,
0,55,55,33,1,,616906751ffc9107b0236aa0,62bbfb486ef624f4e415c7b9,2022-06-29_09h13.11.415,Colour_Asymmetry_Pilot,2022.1.3,Win32,59.79073244,62bbe60bf3d75ef465d3e404,,,,,,,,,,,,,,,,,,,,,,,,,,,,,,,,,,,,,,,,,,,,,,,,,,,,,,,,,,,,,,,,,,,,,,,,,,,,,,,,,,,,,,,,,,,,,,,,,,,,,,,,,,,,,,,,,,,,,,,,,,,,,,,,,,,,,,,,,,,,,,,,,,,,,,,,,,,,,,
0,56,56,38,1,,616906751ffc9107b0236aa0,62bbfb486ef624f4e415c7b9,2022-06-29_09h13.11.415,Colour_Asymmetry_Pilot,2022.1.3,Win32,59.79073244,62bbe60bf3d75ef465d3e404,,,,,,,,,,,,,,,,,,,,,,,,,,,,,,,,,,,,,,,,,,,,,,,,,,,,,,,,,,,,,,,,,,,,,,,,,,,,,,,,,,,,,,,,,,,,,,,,,,,,,,,,,,,,,,,,,,,,,,,,,,,,,,,,,,,,,,,,,,,,,,,,,,,,,,,,,,,,,,
0,57,57,14,1,,616906751ffc9107b0236aa0,62bbfb486ef624f4e415c7b9,2022-06-29_09h13.11.415,Colour_Asymmetry_Pilot,2022.1.3,Win32,59.79073244,62bbe60bf3d75ef465d3e404,,,,,,,,,,,,,,,,,,,,,,,,,,,,,,,,,,,,,,,,,,,,,,,,,,,,,,,,,,,,,,,,,,,,,,,,,,,,,,,,,,,,,,,,,,,,,,,,,,,,,,,,,,,,,,,,,,,,,,,,,,,,,,,,,,,,,,,,,,,,,,,,,,,,,,,,,,,,,,
0,58,58,22,1,,616906751ffc9107b0236aa0,62bbfb486ef624f4e415c7b9,2022-06-29_09h13.11.415,Colour_Asymmetry_Pilot,2022.1.3,Win32,59.79073244,62bbe60bf3d75ef465d3e404,,,,,,,,,,,,,,,,,,,,,,,,,,,,,,,,,,,,,,,,,,,,,,,,,,,,,,,,,,,,,,,,,,,,,,,,,,,,,,,,,,,,,,,,,,,,,,,,,,,,,,,,,,,,,,,,,,,,,,,,,,,,,,,,,,,,,,,,,,,,,,,,,,,,,,,,,,,,,,
0,59,59,21,1,,616906751ffc9107b0236aa0,62bbfb486ef624f4e415c7b9,2022-06-29_09h13.11.415,Colour_Asymmetry_Pilot,2022.1.3,Win32,59.79073244,62bbe60bf3d75ef465d3e404,,,,,,,,,,,,,,,,,,,,,,,,,,,,,,,,,,,,,,,,,,,,,,,,,,,,,,,,,,,,,,,,,,,,,,,,,,,,,,,,,,,,,,,,,,,,,,,,,,,,,,,,,,,,,,,,,,,,,,,,,,,,,,,,,,,,,,,,,,,,,,,,,,,,,,,,,,,,,,
0,60,60,58,1,,616906751ffc9107b0236aa0,62bbfb486ef624f4e415c7b9,2022-06-29_09h13.11.415,Colour_Asymmetry_Pilot,2022.1.3,Win32,59.79073244,62bbe60bf3d75ef465d3e404,,,,,,,,,,,,,,,,,,,,,,,,,,,,,,,,,,,,,,,,,,,,,,,,,,,,,,,,,,,,,,,,,,,,,,,,,,,,,,,,,,,,,,,,,,,,,,,,,,,,,,,,,,,,,,,,,,,,,,,,,,,,,,,,,,,,,,,,,,,,,,,,,,,,,,,,,,,,,,
0,61,61,70,1,,616906751ffc9107b0236aa0,62bbfb486ef624f4e415c7b9,2022-06-29_09h13.11.415,Colour_Asymmetry_Pilot,2022.1.3,Win32,59.79073244,62bbe60bf3d75ef465d3e404,,,,,,,,,,,,,,,,,,,,,,,,,,,,,,,,,,,,,,,,,,,,,,,,,,,,,,,,,,,,,,,,,,,,,,,,,,,,,,,,,,,,,,,,,,,,,,,,,,,,,,,,,,,,,,,,,,,,,,,,,,,,,,,,,,,,,,,,,,,,,,,,,,,,,,,,,,,,,,
0,62,62,9,1,,616906751ffc9107b0236aa0,62bbfb486ef624f4e415c7b9,2022-06-29_09h13.11.415,Colour_Asymmetry_Pilot,2022.1.3,Win32,59.79073244,62bbe60bf3d75ef465d3e404,,,,,,,,,,,,,,,,,,,,,,,,,,,,,,,,,,,,,,,,,,,,,,,,,,,,,,,,,,,,,,,,,,,,,,,,,,,,,,,,,,,,,,,,,,,,,,,,,,,,,,,,,,,,,,,,,,,,,,,,,,,,,,,,,,,,,,,,,,,,,,,,,,,,,,,,,,,,,,
0,63,63,54,1,,616906751ffc9107b0236aa0,62bbfb486ef624f4e415c7b9,2022-06-29_09h13.11.415,Colour_Asymmetry_Pilot,2022.1.3,Win32,59.79073244,62bbe60bf3d75ef465d3e404,,,,,,,,,,,,,,,,,,,,,,,,,,,,,,,,,,,,,,,,,,,,,,,,,,,,,,,,,,,,,,,,,,,,,,,,,,,,,,,,,,,,,,,,,,,,,,,,,,,,,,,,,,,,,,,,,,,,,,,,,,,,,,,,,,,,,,,,,,,,,,,,,,,,,,,,,,,,,,
0,64,64,35,1,,616906751ffc9107b0236aa0,62bbfb486ef624f4e415c7b9,2022-06-29_09h13.11.415,Colour_Asymmetry_Pilot,2022.1.3,Win32,59.79073244,62bbe60bf3d75ef465d3e404,,,,,,,,,,,,,,,,,,,,,,,,,,,,,,,,,,,,,,,,,,,,,,,,,,,,,,,,,,,,,,,,,,,,,,,,,,,,,,,,,,,,,,,,,,,,,,,,,,,,,,,,,,,,,,,,,,,,,,,,,,,,,,,,,,,,,,,,,,,,,,,,,,,,,,,,,,,,,,
0,65,65,30,1,,616906751ffc9107b0236aa0,62bbfb486ef624f4e415c7b9,2022-06-29_09h13.11.415,Colour_Asymmetry_Pilot,2022.1.3,Win32,59.79073244,62bbe60bf3d75ef465d3e404,,,,,,,,,,,,,,,,,,,,,,,,,,,,,,,,,,,,,,,,,,,,,,,,,,,,,,,,,,,,,,,,,,,,,,,,,,,,,,,,,,,,,,,,,,,,,,,,,,,,,,,,,,,,,,,,,,,,,,,,,,,,,,,,,,,,,,,,,,,,,,,,,,,,,,,,,,,,,,
0,66,66,29,1,,616906751ffc9107b0236aa0,62bbfb486ef624f4e415c7b9,2022-06-29_09h13.11.415,Colour_Asymmetry_Pilot,2022.1.3,Win32,59.79073244,62bbe60bf3d75ef465d3e404,,,,,,,,,,,,,,,,,,,,,,,,,,,,,,,,,,,,,,,,,,,,,,,,,,,,,,,,,,,,,,,,,,,,,,,,,,,,,,,,,,,,,,,,,,,,,,,,,,,,,,,,,,,,,,,,,,,,,,,,,,,,,,,,,,,,,,,,,,,,,,,,,,,,,,,,,,,,,,
0,67,67,20,1,,616906751ffc9107b0236aa0,62bbfb486ef624f4e415c7b9,2022-06-29_09h13.11.415,Colour_Asymmetry_Pilot,2022.1.3,Win32,59.79073244,62bbe60bf3d75ef465d3e404,,,,,,,,,,,,,,,,,,,,,,,,,,,,,,,,,,,,,,,,,,,,,,,,,,,,,,,,,,,,,,,,,,,,,,,,,,,,,,,,,,,,,,,,,,,,,,,,,,,,,,,,,,,,,,,,,,,,,,,,,,,,,,,,,,,,,,,,,,,,,,,,,,,,,,,,,,,,,,
0,68,68,69,1,,616906751ffc9107b0236aa0,62bbfb486ef624f4e415c7b9,2022-06-29_09h13.11.415,Colour_Asymmetry_Pilot,2022.1.3,Win32,59.79073244,62bbe60bf3d75ef465d3e404,,,,,,,,,,,,,,,,,,,,,,,,,,,,,,,,,,,,,,,,,,,,,,,,,,,,,,,,,,,,,,,,,,,,,,,,,,,,,,,,,,,,,,,,,,,,,,,,,,,,,,,,,,,,,,,,,,,,,,,,,,,,,,,,,,,,,,,,,,,,,,,,,,,,,,,,,,,,,,
0,69,69,76,1,,616906751ffc9107b0236aa0,62bbfb486ef624f4e415c7b9,2022-06-29_09h13.11.415,Colour_Asymmetry_Pilot,2022.1.3,Win32,59.79073244,62bbe60bf3d75ef465d3e404,,,,,,,,,,,,,,,,,,,,,,,,,,,,,,,,,,,,,,,,,,,,,,,,,,,,,,,,,,,,,,,,,,,,,,,,,,,,,,,,,,,,,,,,,,,,,,,,,,,,,,,,,,,,,,,,,,,,,,,,,,,,,,,,,,,,,,,,,,,,,,,,,,,,,,,,,,,,,,
0,70,70,44,1,,616906751ffc9107b0236aa0,62bbfb486ef624f4e415c7b9,2022-06-29_09h13.11.415,Colour_Asymmetry_Pilot,2022.1.3,Win32,59.79073244,62bbe60bf3d75ef465d3e404,,,,,,,,,,,,,,,,,,,,,,,,,,,,,,,,,,,,,,,,,,,,,,,,,,,,,,,,,,,,,,,,,,,,,,,,,,,,,,,,,,,,,,,,,,,,,,,,,,,,,,,,,,,,,,,,,,,,,,,,,,,,,,,,,,,,,,,,,,,,,,,,,,,,,,,,,,,,,,
0,71,71,41,1,,616906751ffc9107b0236aa0,62bbfb486ef624f4e415c7b9,2022-06-29_09h13.11.415,Colour_Asymmetry_Pilot,2022.1.3,Win32,59.79073244,62bbe60bf3d75ef465d3e404,,,,,,,,,,,,,,,,,,,,,,,,,,,,,,,,,,,,,,,,,,,,,,,,,,,,,,,,,,,,,,,,,,,,,,,,,,,,,,,,,,,,,,,,,,,,,,,,,,,,,,,,,,,,,,,,,,,,,,,,,,,,,,,,,,,,,,,,,,,,,,,,,,,,,,,,,,,,,,
0,72,72,66,1,,616906751ffc9107b0236aa0,62bbfb486ef624f4e415c7b9,2022-06-29_09h13.11.415,Colour_Asymmetry_Pilot,2022.1.3,Win32,59.79073244,62bbe60bf3d75ef465d3e404,,,,,,,,,,,,,,,,,,,,,,,,,,,,,,,,,,,,,,,,,,,,,,,,,,,,,,,,,,,,,,,,,,,,,,,,,,,,,,,,,,,,,,,,,,,,,,,,,,,,,,,,,,,,,,,,,,,,,,,,,,,,,,,,,,,,,,,,,,,,,,,,,,,,,,,,,,,,,,
0,73,73,27,1,,616906751ffc9107b0236aa0,62bbfb486ef624f4e415c7b9,2022-06-29_09h13.11.415,Colour_Asymmetry_Pilot,2022.1.3,Win32,59.79073244,62bbe60bf3d75ef465d3e404,,,,,,,,,,,,,,,,,,,,,,,,,,,,,,,,,,,,,,,,,,,,,,,,,,,,,,,,,,,,,,,,,,,,,,,,,,,,,,,,,,,,,,,,,,,,,,,,,,,,,,,,,,,,,,,,,,,,,,,,,,,,,,,,,,,,,,,,,,,,,,,,,,,,,,,,,,,,,,
0,74,74,55,1,,616906751ffc9107b0236aa0,62bbfb486ef624f4e415c7b9,2022-06-29_09h13.11.415,Colour_Asymmetry_Pilot,2022.1.3,Win32,59.79073244,62bbe60bf3d75ef465d3e404,,,,,,,,,,,,,,,,,,,,,,,,,,,,,,,,,,,,,,,,,,,,,,,,,,,,,,,,,,,,,,,,,,,,,,,,,,,,,,,,,,,,,,,,,,,,,,,,,,,,,,,,,,,,,,,,,,,,,,,,,,,,,,,,,,,,,,,,,,,,,,,,,,,,,,,,,,,,,,
0,75,75,74,1,,616906751ffc9107b0236aa0,62bbfb486ef624f4e415c7b9,2022-06-29_09h13.11.415,Colour_Asymmetry_Pilot,2022.1.3,Win32,59.79073244,62bbe60bf3d75ef465d3e404,,,,,,,,,,,,,,,,,,,,,,,,,,,,,,,,,,,,,,,,,,,,,,,,,,,,,,,,,,,,,,,,,,,,,,,,,,,,,,,,,,,,,,,,,,,,,,,,,,,,,,,,,,,,,,,,,,,,,,,,,,,,,,,,,,,,,,,,,,,,,,,,,,,,,,,,,,,,,,
0,76,76,84,1,,616906751ffc9107b0236aa0,62bbfb486ef624f4e415c7b9,2022-06-29_09h13.11.415,Colour_Asymmetry_Pilot,2022.1.3,Win32,59.79073244,62bbe60bf3d75ef465d3e404,,,,,,,,,,,,,,,,,,,,,,,,,,,,,,,,,,,,,,,,,,,,,,,,,,,,,,,,,,,,,,,,,,,,,,,,,,,,,,,,,,,,,,,,,,,,,,,,,,,,,,,,,,,,,,,,,,,,,,,,,,,,,,,,,,,,,,,,,,,,,,,,,,,,,,,,,,,,,,
0,77,77,28,1,,616906751ffc9107b0236aa0,62bbfb486ef624f4e415c7b9,2022-06-29_09h13.11.415,Colour_Asymmetry_Pilot,2022.1.3,Win32,59.79073244,62bbe60bf3d75ef465d3e404,,,,,,,,,,,,,,,,,,,,,,,,,,,,,,,,,,,,,,,,,,,,,,,,,,,,,,,,,,,,,,,,,,,,,,,,,,,,,,,,,,,,,,,,,,,,,,,,,,,,,,,,,,,,,,,,,,,,,,,,,,,,,,,,,,,,,,,,,,,,,,,,,,,,,,,,,,,,,,
0,78,78,77,1,,616906751ffc9107b0236aa0,62bbfb486ef624f4e415c7b9,2022-06-29_09h13.11.415,Colour_Asymmetry_Pilot,2022.1.3,Win32,59.79073244,62bbe60bf3d75ef465d3e404,,,,,,,,,,,,,,,,,,,,,,,,,,,,,,,,,,,,,,,,,,,,,,,,,,,,,,,,,,,,,,,,,,,,,,,,,,,,,,,,,,,,,,,,,,,,,,,,,,,,,,,,,,,,,,,,,,,,,,,,,,,,,,,,,,,,,,,,,,,,,,,,,,,,,,,,,,,,,,
0,79,79,80,1,,616906751ffc9107b0236aa0,62bbfb486ef624f4e415c7b9,2022-06-29_09h13.11.415,Colour_Asymmetry_Pilot,2022.1.3,Win32,59.79073244,62bbe60bf3d75ef465d3e404,,,,,,,,,,,,,,,,,,,,,,,,,,,,,,,,,,,,,,,,,,,,,,,,,,,,,,,,,,,,,,,,,,,,,,,,,,,,,,,,,,,,,,,,,,,,,,,,,,,,,,,,,,,,,,,,,,,,,,,,,,,,,,,,,,,,,,,,,,,,,,,,,,,,,,,,,,,,,,
0,80,80,90,1,,616906751ffc9107b0236aa0,62bbfb486ef624f4e415c7b9,2022-06-29_09h13.11.415,Colour_Asymmetry_Pilot,2022.1.3,Win32,59.79073244,62bbe60bf3d75ef465d3e404,,,,,,,,,,,,,,,,,,,,,,,,,,,,,,,,,,,,,,,,,,,,,,,,,,,,,,,,,,,,,,,,,,,,,,,,,,,,,,,,,,,,,,,,,,,,,,,,,,,,,,,,,,,,,,,,,,,,,,,,,,,,,,,,,,,,,,,,,,,,,,,,,,,,,,,,,,,,,,
0,81,81,78,1,,616906751ffc9107b0236aa0,62bbfb486ef624f4e415c7b9,2022-06-29_09h13.11.415,Colour_Asymmetry_Pilot,2022.1.3,Win32,59.79073244,62bbe60bf3d75ef465d3e404,,,,,,,,,,,,,,,,,,,,,,,,,,,,,,,,,,,,,,,,,,,,,,,,,,,,,,,,,,,,,,,,,,,,,,,,,,,,,,,,,,,,,,,,,,,,,,,,,,,,,,,,,,,,,,,,,,,,,,,,,,,,,,,,,,,,,,,,,,,,,,,,,,,,,,,,,,,,,,
0,82,82,83,1,,616906751ffc9107b0236aa0,62bbfb486ef624f4e415c7b9,2022-06-29_09h13.11.415,Colour_Asymmetry_Pilot,2022.1.3,Win32,59.79073244,62bbe60bf3d75ef465d3e404,,,,,,,,,,,,,,,,,,,,,,,,,,,,,,,,,,,,,,,,,,,,,,,,,,,,,,,,,,,,,,,,,,,,,,,,,,,,,,,,,,,,,,,,,,,,,,,,,,,,,,,,,,,,,,,,,,,,,,,,,,,,,,,,,,,,,,,,,,,,,,,,,,,,,,,,,,,,,,
0,83,83,34,1,,616906751ffc9107b0236aa0,62bbfb486ef624f4e415c7b9,2022-06-29_09h13.11.415,Colour_Asymmetry_Pilot,2022.1.3,Win32,59.79073244,62bbe60bf3d75ef465d3e404,,,,,,,,,,,,,,,,,,,,,,,,,,,,,,,,,,,,,,,,,,,,,,,,,,,,,,,,,,,,,,,,,,,,,,,,,,,,,,,,,,,,,,,,,,,,,,,,,,,,,,,,,,,,,,,,,,,,,,,,,,,,,,,,,,,,,,,,,,,,,,,,,,,,,,,,,,,,,,
0,84,84,32,1,,616906751ffc9107b0236aa0,62bbfb486ef624f4e415c7b9,2022-06-29_09h13.11.415,Colour_Asymmetry_Pilot,2022.1.3,Win32,59.79073244,62bbe60bf3d75ef465d3e404,,,,,,,,,,,,,,,,,,,,,,,,,,,,,,,,,,,,,,,,,,,,,,,,,,,,,,,,,,,,,,,,,,,,,,,,,,,,,,,,,,,,,,,,,,,,,,,,,,,,,,,,,,,,,,,,,,,,,,,,,,,,,,,,,,,,,,,,,,,,,,,,,,,,,,,,,,,,,,
0,85,85,85,1,,616906751ffc9107b0236aa0,62bbfb486ef624f4e415c7b9,2022-06-29_09h13.11.415,Colour_Asymmetry_Pilot,2022.1.3,Win32,59.79073244,62bbe60bf3d75ef465d3e404,,,,,,,,,,,,,,,,,,,,,,,,,,,,,,,,,,,,,,,,,,,,,,,,,,,,,,,,,,,,,,,,,,,,,,,,,,,,,,,,,,,,,,,,,,,,,,,,,,,,,,,,,,,,,,,,,,,,,,,,,,,,,,,,,,,,,,,,,,,,,,,,,,,,,,,,,,,,,,
0,86,86,72,1,,616906751ffc9107b0236aa0,62bbfb486ef624f4e415c7b9,2022-06-29_09h13.11.415,Colour_Asymmetry_Pilot,2022.1.3,Win32,59.79073244,62bbe60bf3d75ef465d3e404,,,,,,,,,,,,,,,,,,,,,,,,,,,,,,,,,,,,,,,,,,,,,,,,,,,,,,,,,,,,,,,,,,,,,,,,,,,,,,,,,,,,,,,,,,,,,,,,,,,,,,,,,,,,,,,,,,,,,,,,,,,,,,,,,,,,,,,,,,,,,,,,,,,,,,,,,,,,,,
0,87,87,82,1,,616906751ffc9107b0236aa0,62bbfb486ef624f4e415c7b9,2022-06-29_09h13.11.415,Colour_Asymmetry_Pilot,2022.1.3,Win32,59.79073244,62bbe60bf3d75ef465d3e404,,,,,,,,,,,,,,,,,,,,,,,,,,,,,,,,,,,,,,,,,,,,,,,,,,,,,,,,,,,,,,,,,,,,,,,,,,,,,,,,,,,,,,,,,,,,,,,,,,,,,,,,,,,,,,,,,,,,,,,,,,,,,,,,,,,,,,,,,,,,,,,,,,,,,,,,,,,,,,
0,88,88,5,1,,616906751ffc9107b0236aa0,62bbfb486ef624f4e415c7b9,2022-06-29_09h13.11.415,Colour_Asymmetry_Pilot,2022.1.3,Win32,59.79073244,62bbe60bf3d75ef465d3e404,,,,,,,,,,,,,,,,,,,,,,,,,,,,,,,,,,,,,,,,,,,,,,,,,,,,,,,,,,,,,,,,,,,,,,,,,,,,,,,,,,,,,,,,,,,,,,,,,,,,,,,,,,,,,,,,,,,,,,,,,,,,,,,,,,,,,,,,,,,,,,,,,,,,,,,,,,,,,,
0,89,89,10,1,,616906751ffc9107b0236aa0,62bbfb486ef624f4e415c7b9,2022-06-29_09h13.11.415,Colour_Asymmetry_Pilot,2022.1.3,Win32,59.79073244,62bbe60bf3d75ef465d3e404,,,,,,,,,,,,,,,,,,,,,,,,,,,,,,,,,,,,,,,,,,,,,,,,,,,,,,,,,,,,,,,,,,,,,,,,,,,,,,,,,,,,,,,,,,,,,,,,,,,,,,,,,,,,,,,,,,,,,,,,,,,,,,,,,,,,,,,,,,,,,,,,,,,,,,,,,,,,,,
0,90,90,47,1,,616906751ffc9107b0236aa0,62bbfb486ef624f4e415c7b9,2022-06-29_09h13.11.415,Colour_Asymmetry_Pilot,2022.1.3,Win32,59.79073244,62bbe60bf3d75ef465d3e404,,,,,,,,,,,,,,,,,,,,,,,,,,,,,,,,,,,,,,,,,,,,,,,,,,,,,,,,,,,,,,,,,,,,,,,,,,,,,,,,,,,,,,,,,,,,,,,,,,,,,,,,,,,,,,,,,,,,,,,,,,,,,,,,,,,,,,,,,,,,,,,,,,,,,,,,,,,,,,
0,91,91,11,1,,616906751ffc9107b0236aa0,62bbfb486ef624f4e415c7b9,2022-06-29_09h13.11.415,Colour_Asymmetry_Pilot,2022.1.3,Win32,59.79073244,62bbe60bf3d75ef465d3e404,,,,,,,,,,,,,,,,,,,,,,,,,,,,,,,,,,,,,,,,,,,,,,,,,,,,,,,,,,,,,,,,,,,,,,,,,,,,,,,,,,,,,,,,,,,,,,,,,,,,,,,,,,,,,,,,,,,,,,,,,,,,,,,,,,,,,,,,,,,,,,,,,,,,,,,,,,,,,,
0,92,92,18,1,,616906751ffc9107b0236aa0,62bbfb486ef624f4e415c7b9,2022-06-29_09h13.11.415,Colour_Asymmetry_Pilot,2022.1.3,Win32,59.79073244,62bbe60bf3d75ef465d3e404,,,,,,,,,,,,,,,,,,,,,,,,,,,,,,,,,,,,,,,,,,,,,,,,,,,,,,,,,,,,,,,,,,,,,,,,,,,,,,,,,,,,,,,,,,,,,,,,,,,,,,,,,,,,,,,,,,,,,,,,,,,,,,,,,,,,,,,,,,,,,,,,,,,,,,,,,,,,,,
,,,,,,616906751ffc9107b0236aa0,62bbfb486ef624f4e415c7b9,2022-06-29_09h13.11.415,Colour_Asymmetry_Pilot,2022.1.3,Win32,59.79073244,62bbe60bf3d75ef465d3e404,0,0,0,48,1,onetwo,,,,,,,,,,,,,,,,,,,,,,,,,,,,,,,,,,,,,,,,,,,,,,,,,,,,,,,,,,,,,,,,,,,,,,,,,,,,,,,,,,,,,,,,,,,,,,,,,,,,,,,,,,,,,,,,,,,,,,,,,,,,,,,,,,,,,,,,,,,,,,,,,,,,,,,,
,,,,,,616906751ffc9107b0236aa0,62bbfb486ef624f4e415c7b9,2022-06-29_09h13.11.415,Colour_Asymmetry_Pilot,2022.1.3,Win32,59.79073244,62bbe60bf3d75ef465d3e404,0,1,1,153,1,onethree,,,,,,,,,,,,,,,,,,,,,,,,,,,,,,,,,,,,,,,,,,,,,,,,,,,,,,,,,,,,,,,,,,,,,,,,,,,,,,,,,,,,,,,,,,,,,,,,,,,,,,,,,,,,,,,,,,,,,,,,,,,,,,,,,,,,,,,,,,,,,,,,,,,,,,,,
,,,,,,616906751ffc9107b0236aa0,62bbfb486ef624f4e415c7b9,2022-06-29_09h13.11.415,Colour_Asymmetry_Pilot,2022.1.3,Win32,59.79073244,62bbe60bf3d75ef465d3e404,0,2,2,4,1,threeone,,,,,,,,,,,,,,,,,,,,,,,,,,,,,,,,,,,,,,,,,,,,,,,,,,,,,,,,,,,,,,,,,,,,,,,,,,,,,,,,,,,,,,,,,,,,,,,,,,,,,,,,,,,,,,,,,,,,,,,,,,,,,,,,,,,,,,,,,,,,,,,,,,,,,,,,
,,,,,,616906751ffc9107b0236aa0,62bbfb486ef624f4e415c7b9,2022-06-29_09h13.11.415,Colour_Asymmetry_Pilot,2022.1.3,Win32,59.79073244,62bbe60bf3d75ef465d3e404,0,3,3,23,1,fourthree,,,,,,,,,,,,,,,,,,,,,,,,,,,,,,,,,,,,,,,,,,,,,,,,,,,,,,,,,,,,,,,,,,,,,,,,,,,,,,,,,,,,,,,,,,,,,,,,,,,,,,,,,,,,,,,,,,,,,,,,,,,,,,,,,,,,,,,,,,,,,,,,,,,,,,,,
,,,,,,616906751ffc9107b0236aa0,62bbfb486ef624f4e415c7b9,2022-06-29_09h13.11.415,Colour_Asymmetry_Pilot,2022.1.3,Win32,59.79073244,62bbe60bf3d75ef465d3e404,0,4,4,8,1,onetwo,,,,,,,,,,,,,,,,,,,,,,,,,,,,,,,,,,,,,,,,,,,,,,,,,,,,,,,,,,,,,,,,,,,,,,,,,,,,,,,,,,,,,,,,,,,,,,,,,,,,,,,,,,,,,,,,,,,,,,,,,,,,,,,,,,,,,,,,,,,,,,,,,,,,,,,,
,,,,,,616906751ffc9107b0236aa0,62bbfb486ef624f4e415c7b9,2022-06-29_09h13.11.415,Colour_Asymmetry_Pilot,2022.1.3,Win32,59.79073244,62bbe60bf3d75ef465d3e404,0,5,5,106,1,twoone,,,,,,,,,,,,,,,,,,,,,,,,,,,,,,,,,,,,,,,,,,,,,,,,,,,,,,,,,,,,,,,,,,,,,,,,,,,,,,,,,,,,,,,,,,,,,,,,,,,,,,,,,,,,,,,,,,,,,,,,,,,,,,,,,,,,,,,,,,,,,,,,,,,,,,,,
,,,,,,616906751ffc9107b0236aa0,62bbfb486ef624f4e415c7b9,2022-06-29_09h13.11.415,Colour_Asymmetry_Pilot,2022.1.3,Win32,59.79073244,62bbe60bf3d75ef465d3e404,0,6,6,155,1,twofour,,,,,,,,,,,,,,,,,,,,,,,,,,,,,,,,,,,,,,,,,,,,,,,,,,,,,,,,,,,,,,,,,,,,,,,,,,,,,,,,,,,,,,,,,,,,,,,,,,,,,,,,,,,,,,,,,,,,,,,,,,,,,,,,,,,,,,,,,,,,,,,,,,,,,,,,
,,,,,,616906751ffc9107b0236aa0,62bbfb486ef624f4e415c7b9,2022-06-29_09h13.11.415,Colour_Asymmetry_Pilot,2022.1.3,Win32,59.79073244,62bbe60bf3d75ef465d3e404,0,7,7,115,1,twofour,,,,,,,,,,,,,,,,,,,,,,,,,,,,,,,,,,,,,,,,,,,,,,,,,,,,,,,,,,,,,,,,,,,,,,,,,,,,,,,,,,,,,,,,,,,,,,,,,,,,,,,,,,,,,,,,,,,,,,,,,,,,,,,,,,,,,,,,,,,,,,,,,,,,,,,,
,,,,,,616906751ffc9107b0236aa0,62bbfb486ef624f4e415c7b9,2022-06-29_09h13.11.415,Colour_Asymmetry_Pilot,2022.1.3,Win32,59.79073244,62bbe60bf3d75ef465d3e404,0,8,8,52,1,threeone,,,,,,,,,,,,,,,,,,,,,,,,,,,,,,,,,,,,,,,,,,,,,,,,,,,,,,,,,,,,,,,,,,,,,,,,,,,,,,,,,,,,,,,,,,,,,,,,,,,,,,,,,,,,,,,,,,,,,,,,,,,,,,,,,,,,,,,,,,,,,,,,,,,,,,,,
,,,,,,616906751ffc9107b0236aa0,62bbfb486ef624f4e415c7b9,2022-06-29_09h13.11.415,Colour_Asymmetry_Pilot,2022.1.3,Win32,59.79073244,62bbe60bf3d75ef465d3e404,0,9,9,113,1,onethree,,,,,,,,,,,,,,,,,,,,,,,,,,,,,,,,,,,,,,,,,,,,,,,,,,,,,,,,,,,,,,,,,,,,,,,,,,,,,,,,,,,,,,,,,,,,,,,,,,,,,,,,,,,,,,,,,,,,,,,,,,,,,,,,,,,,,,,,,,,,,,,,,,,,,,,,
,,,,,,616906751ffc9107b0236aa0,62bbfb486ef624f4e415c7b9,2022-06-29_09h13.11.415,Colour_Asymmetry_Pilot,2022.1.3,Win32,59.79073244,62bbe60bf3d75ef465d3e404,0,10,10,28,1,threeone,,,,,,,,,,,,,,,,,,,,,,,,,,,,,,,,,,,,,,,,,,,,,,,,,,,,,,,,,,,,,,,,,,,,,,,,,,,,,,,,,,,,,,,,,,,,,,,,,,,,,,,,,,,,,,,,,,,,,,,,,,,,,,,,,,,,,,,,,,,,,,,,,,,,,,,,
,,,,,,616906751ffc9107b0236aa0,62bbfb486ef624f4e415c7b9,2022-06-29_09h13.11.415,Colour_Asymmetry_Pilot,2022.1.3,Win32,59.79073244,62bbe60bf3d75ef465d3e404,0,11,11,111,1,fourthree,,,,,,,,,,,,,,,,,,,,,,,,,,,,,,,,,,,,,,,,,,,,,,,,,,,,,,,,,,,,,,,,,,,,,,,,,,,,,,,,,,,,,,,,,,,,,,,,,,,,,,,,,,,,,,,,,,,,,,,,,,,,,,,,,,,,,,,,,,,,,,,,,,,,,,,,
,,,,,,616906751ffc9107b0236aa0,62bbfb486ef624f4e415c7b9,2022-06-29_09h13.11.415,Colour_Asymmetry_Pilot,2022.1.3,Win32,59.79073244,62bbe60bf3d75ef465d3e404,0,12,12,59,1,twofour,,,,,,,,,,,,,,,,,,,,,,,,,,,,,,,,,,,,,,,,,,,,,,,,,,,,,,,,,,,,,,,,,,,,,,,,,,,,,,,,,,,,,,,,,,,,,,,,,,,,,,,,,,,,,,,,,,,,,,,,,,,,,,,,,,,,,,,,,,,,,,,,,,,,,,,,
,,,,,,616906751ffc9107b0236aa0,62bbfb486ef624f4e415c7b9,2022-06-29_09h13.11.415,Colour_Asymmetry_Pilot,2022.1.3,Win32,59.79073244,62bbe60bf3d75ef465d3e404,0,13,13,107,1,twofour,,,,,,,,,,,,,,,,,,,,,,,,,,,,,,,,,,,,,,,,,,,,,,,,,,,,,,,,,,,,,,,,,,,,,,,,,,,,,,,,,,,,,,,,,,,,,,,,,,,,,,,,,,,,,,,,,,,,,,,,,,,,,,,,,,,,,,,,,,,,,,,,,,,,,,,,
,,,,,,616906751ffc9107b0236aa0,62bbfb486ef624f4e415c7b9,2022-06-29_09h13.11.415,Colour_Asymmetry_Pilot,2022.1.3,Win32,59.79073244,62bbe60bf3d75ef465d3e404,0,14,14,61,1,threefour,,,,,,,,,,,,,,,,,,,,,,,,,,,,,,,,,,,,,,,,,,,,,,,,,,,,,,,,,,,,,,,,,,,,,,,,,,,,,,,,,,,,,,,,,,,,,,,,,,,,,,,,,,,,,,,,,,,,,,,,,,,,,,,,,,,,,,,,,,,,,,,,,,,,,,,,
,,,,,,616906751ffc9107b0236aa0,62bbfb486ef624f4e415c7b9,2022-06-29_09h13.11.415,Colour_Asymmetry_Pilot,2022.1.3,Win32,59.79073244,62bbe60bf3d75ef465d3e404,0,15,15,69,1,threefour,,,,,,,,,,,,,,,,,,,,,,,,,,,,,,,,,,,,,,,,,,,,,,,,,,,,,,,,,,,,,,,,,,,,,,,,,,,,,,,,,,,,,,,,,,,,,,,,,,,,,,,,,,,,,,,,,,,,,,,,,,,,,,,,,,,,,,,,,,,,,,,,,,,,,,,,
,,,,,,616906751ffc9107b0236aa0,62bbfb486ef624f4e415c7b9,2022-06-29_09h13.11.415,Colour_Asymmetry_Pilot,2022.1.3,Win32,59.79073244,62bbe60bf3d75ef465d3e404,0,16,16,128,1,onetwo,,,,,,,,,,,,,,,,,,,,,,,,,,,,,,,,,,,,,,,,,,,,,,,,,,,,,,,,,,,,,,,,,,,,,,,,,,,,,,,,,,,,,,,,,,,,,,,,,,,,,,,,,,,,,,,,,,,,,,,,,,,,,,,,,,,,,,,,,,,,,,,,,,,,,,,,
,,,,,,616906751ffc9107b0236aa0,62bbfb486ef624f4e415c7b9,2022-06-29_09h13.11.415,Colour_Asymmetry_Pilot,2022.1.3,Win32,59.79073244,62bbe60bf3d75ef465d3e404,0,17,17,0,1,onetwo,,,,,,,,,,,,,,,,,,,,,,,,,,,,,,,,,,,,,,,,,,,,,,,,,,,,,,,,,,,,,,,,,,,,,,,,,,,,,,,,,,,,,,,,,,,,,,,,,,,,,,,,,,,,,,,,,,,,,,,,,,,,,,,,,,,,,,,,,,,,,,,,,,,,,,,,
,,,,,,616906751ffc9107b0236aa0,62bbfb486ef624f4e415c7b9,2022-06-29_09h13.11.415,Colour_Asymmetry_Pilot,2022.1.3,Win32,59.79073244,62bbe60bf3d75ef465d3e404,0,18,18,53,1,threefour,,,,,,,,,,,,,,,,,,,,,,,,,,,,,,,,,,,,,,,,,,,,,,,,,,,,,,,,,,,,,,,,,,,,,,,,,,,,,,,,,,,,,,,,,,,,,,,,,,,,,,,,,,,,,,,,,,,,,,,,,,,,,,,,,,,,,,,,,,,,,,,,,,,,,,,,
,,,,,,616906751ffc9107b0236aa0,62bbfb486ef624f4e415c7b9,2022-06-29_09h13.11.415,Colour_Asymmetry_Pilot,2022.1.3,Win32,59.79073244,62bbe60bf3d75ef465d3e404,0,19,19,79,1,fourthree,,,,,,,,,,,,,,,,,,,,,,,,,,,,,,,,,,,,,,,,,,,,,,,,,,,,,,,,,,,,,,,,,,,,,,,,,,,,,,,,,,,,,,,,,,,,,,,,,,,,,,,,,,,,,,,,,,,,,,,,,,,,,,,,,,,,,,,,,,,,,,,,,,,,,,,,
,,,,,,616906751ffc9107b0236aa0,62bbfb486ef624f4e415c7b9,2022-06-29_09h13.11.415,Colour_Asymmetry_Pilot,2022.1.3,Win32,59.79073244,62bbe60bf3d75ef465d3e404,0,20,20,7,1,fourthree,,,,,,,,,,,,,,,,,,,,,,,,,,,,,,,,,,,,,,,,,,,,,,,,,,,,,,,,,,,,,,,,,,,,,,,,,,,,,,,,,,,,,,,,,,,,,,,,,,,,,,,,,,,,,,,,,,,,,,,,,,,,,,,,,,,,,,,,,,,,,,,,,,,,,,,,
,,,,,,616906751ffc9107b0236aa0,62bbfb486ef624f4e415c7b9,2022-06-29_09h13.11.415,Colour_Asymmetry_Pilot,2022.1.3,Win32,59.79073244,62bbe60bf3d75ef465d3e404,0,21,21,71,1,fourthree,,,,,,,,,,,,,,,,,,,,,,,,,,,,,,,,,,,,,,,,,,,,,,,,,,,,,,,,,,,,,,,,,,,,,,,,,,,,,,,,,,,,,,,,,,,,,,,,,,,,,,,,,,,,,,,,,,,,,,,,,,,,,,,,,,,,,,,,,,,,,,,,,,,,,,,,
,,,,,,616906751ffc9107b0236aa0,62bbfb486ef624f4e415c7b9,2022-06-29_09h13.11.415,Colour_Asymmetry_Pilot,2022.1.3,Win32,59.79073244,62bbe60bf3d75ef465d3e404,0,22,22,120,1,onetwo,,,,,,,,,,,,,,,,,,,,,,,,,,,,,,,,,,,,,,,,,,,,,,,,,,,,,,,,,,,,,,,,,,,,,,,,,,,,,,,,,,,,,,,,,,,,,,,,,,,,,,,,,,,,,,,,,,,,,,,,,,,,,,,,,,,,,,,,,,,,,,,,,,,,,,,,
,,,,,,616906751ffc9107b0236aa0,62bbfb486ef624f4e415c7b9,2022-06-29_09h13.11.415,Colour_Asymmetry_Pilot,2022.1.3,Win32,59.79073244,62bbe60bf3d75ef465d3e404,0,23,23,103,1,fourthree,,,,,,,,,,,,,,,,,,,,,,,,,,,,,,,,,,,,,,,,,,,,,,,,,,,,,,,,,,,,,,,,,,,,,,,,,,,,,,,,,,,,,,,,,,,,,,,,,,,,,,,,,,,,,,,,,,,,,,,,,,,,,,,,,,,,,,,,,,,,,,,,,,,,,,,,
,,,,,,616906751ffc9107b0236aa0,62bbfb486ef624f4e415c7b9,2022-06-29_09h13.11.415,Colour_Asymmetry_Pilot,2022.1.3,Win32,59.79073244,62bbe60bf3d75ef465d3e404,0,24,24,56,1,onetwo,,,,,,,,,,,,,,,,,,,,,,,,,,,,,,,,,,,,,,,,,,,,,,,,,,,,,,,,,,,,,,,,,,,,,,,,,,,,,,,,,,,,,,,,,,,,,,,,,,,,,,,,,,,,,,,,,,,,,,,,,,,,,,,,,,,,,,,,,,,,,,,,,,,,,,,,
,,,,,,616906751ffc9107b0236aa0,62bbfb486ef624f4e415c7b9,2022-06-29_09h13.11.415,Colour_Asymmetry_Pilot,2022.1.3,Win32,59.79073244,62bbe60bf3d75ef465d3e404,0,25,25,57,1,onethree,,,,,,,,,,,,,,,,,,,,,,,,,,,,,,,,,,,,,,,,,,,,,,,,,,,,,,,,,,,,,,,,,,,,,,,,,,,,,,,,,,,,,,,,,,,,,,,,,,,,,,,,,,,,,,,,,,,,,,,,,,,,,,,,,,,,,,,,,,,,,,,,,,,,,,,,
,,,,,,616906751ffc9107b0236aa0,62bbfb486ef624f4e415c7b9,2022-06-29_09h13.11.415,Colour_Asymmetry_Pilot,2022.1.3,Win32,59.79073244,62bbe60bf3d75ef465d3e404,0,26,26,100,1,threeone,,,,,,,,,,,,,,,,,,,,,,,,,,,,,,,,,,,,,,,,,,,,,,,,,,,,,,,,,,,,,,,,,,,,,,,,,,,,,,,,,,,,,,,,,,,,,,,,,,,,,,,,,,,,,,,,,,,,,,,,,,,,,,,,,,,,,,,,,,,,,,,,,,,,,,,,
,,,,,,616906751ffc9107b0236aa0,62bbfb486ef624f4e415c7b9,2022-06-29_09h13.11.415,Colour_Asymmetry_Pilot,2022.1.3,Win32,59.79073244,62bbe60bf3d75ef465d3e404,0,27,27,140,1,threeone,,,,,,,,,,,,,,,,,,,,,,,,,,,,,,,,,,,,,,,,,,,,,,,,,,,,,,,,,,,,,,,,,,,,,,,,,,,,,,,,,,,,,,,,,,,,,,,,,,,,,,,,,,,,,,,,,,,,,,,,,,,,,,,,,,,,,,,,,,,,,,,,,,,,,,,,
,,,,,,616906751ffc9107b0236aa0,62bbfb486ef624f4e415c7b9,2022-06-29_09h13.11.415,Colour_Asymmetry_Pilot,2022.1.3,Win32,59.79073244,62bbe60bf3d75ef465d3e404,0,28,28,66,1,twoone,,,,,,,,,,,,,,,,,,,,,,,,,,,,,,,,,,,,,,,,,,,,,,,,,,,,,,,,,,,,,,,,,,,,,,,,,,,,,,,,,,,,,,,,,,,,,,,,,,,,,,,,,,,,,,,,,,,,,,,,,,,,,,,,,,,,,,,,,,,,,,,,,,,,,,,,
,,,,,,616906751ffc9107b0236aa0,62bbfb486ef624f4e415c7b9,2022-06-29_09h13.11.415,Colour_Asymmetry_Pilot,2022.1.3,Win32,59.79073244,62bbe60bf3d75ef465d3e404,0,29,29,94,1,fourtwo,,,,,,,,,,,,,,,,,,,,,,,,,,,,,,,,,,,,,,,,,,,,,,,,,,,,,,,,,,,,,,,,,,,,,,,,,,,,,,,,,,,,,,,,,,,,,,,,,,,,,,,,,,,,,,,,,,,,,,,,,,,,,,,,,,,,,,,,,,,,,,,,,,,,,,,,
,,,,,,616906751ffc9107b0236aa0,62bbfb486ef624f4e415c7b9,2022-06-29_09h13.11.415,Colour_Asymmetry_Pilot,2022.1.3,Win32,59.79073244,62bbe60bf3d75ef465d3e404,0,30,30,46,1,fourtwo,,,,,,,,,,,,,,,,,,,,,,,,,,,,,,,,,,,,,,,,,,,,,,,,,,,,,,,,,,,,,,,,,,,,,,,,,,,,,,,,,,,,,,,,,,,,,,,,,,,,,,,,,,,,,,,,,,,,,,,,,,,,,,,,,,,,,,,,,,,,,,,,,,,,,,,,
,,,,,,616906751ffc9107b0236aa0,62bbfb486ef624f4e415c7b9,2022-06-29_09h13.11.415,Colour_Asymmetry_Pilot,2022.1.3,Win32,59.79073244,62bbe60bf3d75ef465d3e404,0,31,31,87,1,fourthree,,,,,,,,,,,,,,,,,,,,,,,,,,,,,,,,,,,,,,,,,,,,,,,,,,,,,,,,,,,,,,,,,,,,,,,,,,,,,,,,,,,,,,,,,,,,,,,,,,,,,,,,,,,,,,,,,,,,,,,,,,,,,,,,,,,,,,,,,,,,,,,,,,,,,,,,
,,,,,,616906751ffc9107b0236aa0,62bbfb486ef624f4e415c7b9,2022-06-29_09h13.11.415,Colour_Asymmetry_Pilot,2022.1.3,Win32,59.79073244,62bbe60bf3d75ef465d3e404,0,32,32,92,1,threeone,,,,,,,,,,,,,,,,,,,,,,,,,,,,,,,,,,,,,,,,,,,,,,,,,,,,,,,,,,,,,,,,,,,,,,,,,,,,,,,,,,,,,,,,,,,,,,,,,,,,,,,,,,,,,,,,,,,,,,,,,,,,,,,,,,,,,,,,,,,,,,,,,,,,,,,,
,,,,,,616906751ffc9107b0236aa0,62bbfb486ef624f4e415c7b9,2022-06-29_09h13.11.415,Colour_Asymmetry_Pilot,2022.1.3,Win32,59.79073244,62bbe60bf3d75ef465d3e404,0,33,33,158,1,fourtwo,,,,,,,,,,,,,,,,,,,,,,,,,,,,,,,,,,,,,,,,,,,,,,,,,,,,,,,,,,,,,,,,,,,,,,,,,,,,,,,,,,,,,,,,,,,,,,,,,,,,,,,,,,,,,,,,,,,,,,,,,,,,,,,,,,,,,,,,,,,,,,,,,,,,,,,,
,,,,,,616906751ffc9107b0236aa0,62bbfb486ef624f4e415c7b9,2022-06-29_09h13.11.415,Colour_Asymmetry_Pilot,2022.1.3,Win32,59.79073244,62bbe60bf3d75ef465d3e404,0,34,34,116,1,threeone,,,,,,,,,,,,,,,,,,,,,,,,,,,,,,,,,,,,,,,,,,,,,,,,,,,,,,,,,,,,,,,,,,,,,,,,,,,,,,,,,,,,,,,,,,,,,,,,,,,,,,,,,,,,,,,,,,,,,,,,,,,,,,,,,,,,,,,,,,,,,,,,,,,,,,,,
,,,,,,616906751ffc9107b0236aa0,62bbfb486ef624f4e415c7b9,2022-06-29_09h13.11.415,Colour_Asymmetry_Pilot,2022.1.3,Win32,59.79073244,62bbe60bf3d75ef465d3e404,0,35,35,11,1,twofour,,,,,,,,,,,,,,,,,,,,,,,,,,,,,,,,,,,,,,,,,,,,,,,,,,,,,,,,,,,,,,,,,,,,,,,,,,,,,,,,,,,,,,,,,,,,,,,,,,,,,,,,,,,,,,,,,,,,,,,,,,,,,,,,,,,,,,,,,,,,,,,,,,,,,,,,
,,,,,,616906751ffc9107b0236aa0,62bbfb486ef624f4e415c7b9,2022-06-29_09h13.11.415,Colour_Asymmetry_Pilot,2022.1.3,Win32,59.79073244,62bbe60bf3d75ef465d3e404,0,36,36,91,1,twofour,,,,,,,,,,,,,,,,,,,,,,,,,,,,,,,,,,,,,,,,,,,,,,,,,,,,,,,,,,,,,,,,,,,,,,,,,,,,,,,,,,,,,,,,,,,,,,,,,,,,,,,,,,,,,,,,,,,,,,,,,,,,,,,,,,,,,,,,,,,,,,,,,,,,,,,,
,,,,,,616906751ffc9107b0236aa0,62bbfb486ef624f4e415c7b9,2022-06-29_09h13.11.415,Colour_Asymmetry_Pilot,2022.1.3,Win32,59.79073244,62bbe60bf3d75ef465d3e404,0,37,37,80,1,onetwo,,,,,,,,,,,,,,,,,,,,,,,,,,,,,,,,,,,,,,,,,,,,,,,,,,,,,,,,,,,,,,,,,,,,,,,,,,,,,,,,,,,,,,,,,,,,,,,,,,,,,,,,,,,,,,,,,,,,,,,,,,,,,,,,,,,,,,,,,,,,,,,,,,,,,,,,
,,,,,,616906751ffc9107b0236aa0,62bbfb486ef624f4e415c7b9,2022-06-29_09h13.11.415,Colour_Asymmetry_Pilot,2022.1.3,Win32,59.79073244,62bbe60bf3d75ef465d3e404,0,38,38,24,1,onetwo,,,,,,,,,,,,,,,,,,,,,,,,,,,,,,,,,,,,,,,,,,,,,,,,,,,,,,,,,,,,,,,,,,,,,,,,,,,,,,,,,,,,,,,,,,,,,,,,,,,,,,,,,,,,,,,,,,,,,,,,,,,,,,,,,,,,,,,,,,,,,,,,,,,,,,,,
,,,,,,616906751ffc9107b0236aa0,62bbfb486ef624f4e415c7b9,2022-06-29_09h13.11.415,Colour_Asymmetry_Pilot,2022.1.3,Win32,59.79073244,62bbe60bf3d75ef465d3e404,0,39,39,112,1,onetwo,,,,,,,,,,,,,,,,,,,,,,,,,,,,,,,,,,,,,,,,,,,,,,,,,,,,,,,,,,,,,,,,,,,,,,,,,,,,,,,,,,,,,,,,,,,,,,,,,,,,,,,,,,,,,,,,,,,,,,,,,,,,,,,,,,,,,,,,,,,,,,,,,,,,,,,,
,,,,,,616906751ffc9107b0236aa0,62bbfb486ef624f4e415c7b9,2022-06-29_09h13.11.415,Colour_Asymmetry_Pilot,2022.1.3,Win32,59.79073244,62bbe60bf3d75ef465d3e404,0,40,40,88,1,onetwo,,,,,,,,,,,,,,,,,,,,,,,,,,,,,,,,,,,,,,,,,,,,,,,,,,,,,,,,,,,,,,,,,,,,,,,,,,,,,,,,,,,,,,,,,,,,,,,,,,,,,,,,,,,,,,,,,,,,,,,,,,,,,,,,,,,,,,,,,,,,,,,,,,,,,,,,
,,,,,,616906751ffc9107b0236aa0,62bbfb486ef624f4e415c7b9,2022-06-29_09h13.11.415,Colour_Asymmetry_Pilot,2022.1.3,Win32,59.79073244,62bbe60bf3d75ef465d3e404,0,41,41,150,1,fourtwo,,,,,,,,,,,,,,,,,,,,,,,,,,,,,,,,,,,,,,,,,,,,,,,,,,,,,,,,,,,,,,,,,,,,,,,,,,,,,,,,,,,,,,,,,,,,,,,,,,,,,,,,,,,,,,,,,,,,,,,,,,,,,,,,,,,,,,,,,,,,,,,,,,,,,,,,
,,,,,,616906751ffc9107b0236aa0,62bbfb486ef624f4e415c7b9,2022-06-29_09h13.11.415,Colour_Asymmetry_Pilot,2022.1.3,Win32,59.79073244,62bbe60bf3d75ef465d3e404,0,42,42,68,1,threeone,,,,,,,,,,,,,,,,,,,,,,,,,,,,,,,,,,,,,,,,,,,,,,,,,,,,,,,,,,,,,,,,,,,,,,,,,,,,,,,,,,,,,,,,,,,,,,,,,,,,,,,,,,,,,,,,,,,,,,,,,,,,,,,,,,,,,,,,,,,,,,,,,,,,,,,,
,,,,,,616906751ffc9107b0236aa0,62bbfb486ef624f4e415c7b9,2022-06-29_09h13.11.415,Colour_Asymmetry_Pilot,2022.1.3,Win32,59.79073244,62bbe60bf3d75ef465d3e404,0,43,43,75,1,twofour,,,,,,,,,,,,,,,,,,,,,,,,,,,,,,,,,,,,,,,,,,,,,,,,,,,,,,,,,,,,,,,,,,,,,,,,,,,,,,,,,,,,,,,,,,,,,,,,,,,,,,,,,,,,,,,,,,,,,,,,,,,,,,,,,,,,,,,,,,,,,,,,,,,,,,,,
,,,,,,616906751ffc9107b0236aa0,62bbfb486ef624f4e415c7b9,2022-06-29_09h13.11.415,Colour_Asymmetry_Pilot,2022.1.3,Win32,59.79073244,62bbe60bf3d75ef465d3e404,0,44,44,157,1,threefour,,,,,,,,,,,,,,,,,,,,,,,,,,,,,,,,,,,,,,,,,,,,,,,,,,,,,,,,,,,,,,,,,,,,,,,,,,,,,,,,,,,,,,,,,,,,,,,,,,,,,,,,,,,,,,,,,,,,,,,,,,,,,,,,,,,,,,,,,,,,,,,,,,,,,,,,
,,,,,,616906751ffc9107b0236aa0,62bbfb486ef624f4e415c7b9,2022-06-29_09h13.11.415,Colour_Asymmetry_Pilot,2022.1.3,Win32,59.79073244,62bbe60bf3d75ef465d3e404,0,45,45,45,1,threefour,,,,,,,,,,,,,,,,,,,,,,,,,,,,,,,,,,,,,,,,,,,,,,,,,,,,,,,,,,,,,,,,,,,,,,,,,,,,,,,,,,,,,,,,,,,,,,,,,,,,,,,,,,,,,,,,,,,,,,,,,,,,,,,,,,,,,,,,,,,,,,,,,,,,,,,,
,,,,,,616906751ffc9107b0236aa0,62bbfb486ef624f4e415c7b9,2022-06-29_09h13.11.415,Colour_Asymmetry_Pilot,2022.1.3,Win32,59.79073244,62bbe60bf3d75ef465d3e404,0,46,46,43,1,twofour,,,,,,,,,,,,,,,,,,,,,,,,,,,,,,,,,,,,,,,,,,,,,,,,,,,,,,,,,,,,,,,,,,,,,,,,,,,,,,,,,,,,,,,,,,,,,,,,,,,,,,,,,,,,,,,,,,,,,,,,,,,,,,,,,,,,,,,,,,,,,,,,,,,,,,,,
,,,,,,616906751ffc9107b0236aa0,62bbfb486ef624f4e415c7b9,2022-06-29_09h13.11.415,Colour_Asymmetry_Pilot,2022.1.3,Win32,59.79073244,62bbe60bf3d75ef465d3e404,0,47,47,25,1,onethree,,,,,,,,,,,,,,,,,,,,,,,,,,,,,,,,,,,,,,,,,,,,,,,,,,,,,,,,,,,,,,,,,,,,,,,,,,,,,,,,,,,,,,,,,,,,,,,,,,,,,,,,,,,,,,,,,,,,,,,,,,,,,,,,,,,,,,,,,,,,,,,,,,,,,,,,
,,,,,,616906751ffc9107b0236aa0,62bbfb486ef624f4e415c7b9,2022-06-29_09h13.11.415,Colour_Asymmetry_Pilot,2022.1.3,Win32,59.79073244,62bbe60bf3d75ef465d3e404,0,48,48,5,1,threefour,,,,,,,,,,,,,,,,,,,,,,,,,,,,,,,,,,,,,,,,,,,,,,,,,,,,,,,,,,,,,,,,,,,,,,,,,,,,,,,,,,,,,,,,,,,,,,,,,,,,,,,,,,,,,,,,,,,,,,,,,,,,,,,,,,,,,,,,,,,,,,,,,,,,,,,,
,,,,,,616906751ffc9107b0236aa0,62bbfb486ef624f4e415c7b9,2022-06-29_09h13.11.415,Colour_Asymmetry_Pilot,2022.1.3,Win32,59.79073244,62bbe60bf3d75ef465d3e404,0,49,49,2,1,twoone,,,,,,,,,,,,,,,,,,,,,,,,,,,,,,,,,,,,,,,,,,,,,,,,,,,,,,,,,,,,,,,,,,,,,,,,,,,,,,,,,,,,,,,,,,,,,,,,,,,,,,,,,,,,,,,,,,,,,,,,,,,,,,,,,,,,,,,,,,,,,,,,,,,,,,,,
,,,,,,616906751ffc9107b0236aa0,62bbfb486ef624f4e415c7b9,2022-06-29_09h13.11.415,Colour_Asymmetry_Pilot,2022.1.3,Win32,59.79073244,62bbe60bf3d75ef465d3e404,0,50,50,38,1,fourtwo,,,,,,,,,,,,,,,,,,,,,,,,,,,,,,,,,,,,,,,,,,,,,,,,,,,,,,,,,,,,,,,,,,,,,,,,,,,,,,,,,,,,,,,,,,,,,,,,,,,,,,,,,,,,,,,,,,,,,,,,,,,,,,,,,,,,,,,,,,,,,,,,,,,,,,,,
,,,,,,616906751ffc9107b0236aa0,62bbfb486ef624f4e415c7b9,2022-06-29_09h13.11.415,Colour_Asymmetry_Pilot,2022.1.3,Win32,59.79073244,62bbe60bf3d75ef465d3e404,0,51,51,104,1,onetwo,,,,,,,,,,,,,,,,,,,,,,,,,,,,,,,,,,,,,,,,,,,,,,,,,,,,,,,,,,,,,,,,,,,,,,,,,,,,,,,,,,,,,,,,,,,,,,,,,,,,,,,,,,,,,,,,,,,,,,,,,,,,,,,,,,,,,,,,,,,,,,,,,,,,,,,,
,,,,,,616906751ffc9107b0236aa0,62bbfb486ef624f4e415c7b9,2022-06-29_09h13.11.415,Colour_Asymmetry_Pilot,2022.1.3,Win32,59.79073244,62bbe60bf3d75ef465d3e404,0,52,52,99,1,twofour,,,,,,,,,,,,,,,,,,,,,,,,,,,,,,,,,,,,,,,,,,,,,,,,,,,,,,,,,,,,,,,,,,,,,,,,,,,,,,,,,,,,,,,,,,,,,,,,,,,,,,,,,,,,,,,,,,,,,,,,,,,,,,,,,,,,,,,,,,,,,,,,,,,,,,,,
,,,,,,616906751ffc9107b0236aa0,62bbfb486ef624f4e415c7b9,2022-06-29_09h13.11.415,Colour_Asymmetry_Pilot,2022.1.3,Win32,59.79073244,62bbe60bf3d75ef465d3e404,0,53,53,33,1,onethree,,,,,,,,,,,,,,,,,,,,,,,,,,,,,,,,,,,,,,,,,,,,,,,,,,,,,,,,,,,,,,,,,,,,,,,,,,,,,,,,,,,,,,,,,,,,,,,,,,,,,,,,,,,,,,,,,,,,,,,,,,,,,,,,,,,,,,,,,,,,,,,,,,,,,,,,
,,,,,,616906751ffc9107b0236aa0,62bbfb486ef624f4e415c7b9,2022-06-29_09h13.11.415,Colour_Asymmetry_Pilot,2022.1.3,Win32,59.79073244,62bbe60bf3d75ef465d3e404,0,54,54,9,1,onethree,,,,,,,,,,,,,,,,,,,,,,,,,,,,,,,,,,,,,,,,,,,,,,,,,,,,,,,,,,,,,,,,,,,,,,,,,,,,,,,,,,,,,,,,,,,,,,,,,,,,,,,,,,,,,,,,,,,,,,,,,,,,,,,,,,,,,,,,,,,,,,,,,,,,,,,,
,,,,,,616906751ffc9107b0236aa0,62bbfb486ef624f4e415c7b9,2022-06-29_09h13.11.415,Colour_Asymmetry_Pilot,2022.1.3,Win32,59.79073244,62bbe60bf3d75ef465d3e404,0,55,55,72,1,onetwo,,,,,,,,,,,,,,,,,,,,,,,,,,,,,,,,,,,,,,,,,,,,,,,,,,,,,,,,,,,,,,,,,,,,,,,,,,,,,,,,,,,,,,,,,,,,,,,,,,,,,,,,,,,,,,,,,,,,,,,,,,,,,,,,,,,,,,,,,,,,,,,,,,,,,,,,
,,,,,,616906751ffc9107b0236aa0,62bbfb486ef624f4e415c7b9,2022-06-29_09h13.11.415,Colour_Asymmetry_Pilot,2022.1.3,Win32,59.79073244,62bbe60bf3d75ef465d3e404,0,56,56,30,1,fourtwo,,,,,,,,,,,,,,,,,,,,,,,,,,,,,,,,,,,,,,,,,,,,,,,,,,,,,,,,,,,,,,,,,,,,,,,,,,,,,,,,,,,,,,,,,,,,,,,,,,,,,,,,,,,,,,,,,,,,,,,,,,,,,,,,,,,,,,,,,,,,,,,,,,,,,,,,
,,,,,,616906751ffc9107b0236aa0,62bbfb486ef624f4e415c7b9,2022-06-29_09h13.11.415,Colour_Asymmetry_Pilot,2022.1.3,Win32,59.79073244,62bbe60bf3d75ef465d3e404,0,57,57,148,1,threeone,,,,,,,,,,,,,,,,,,,,,,,,,,,,,,,,,,,,,,,,,,,,,,,,,,,,,,,,,,,,,,,,,,,,,,,,,,,,,,,,,,,,,,,,,,,,,,,,,,,,,,,,,,,,,,,,,,,,,,,,,,,,,,,,,,,,,,,,,,,,,,,,,,,,,,,,
,,,,,,616906751ffc9107b0236aa0,62bbfb486ef624f4e415c7b9,2022-06-29_09h13.11.415,Colour_Asymmetry_Pilot,2022.1.3,Win32,59.79073244,62bbe60bf3d75ef465d3e404,0,58,58,93,1,threefour,,,,,,,,,,,,,,,,,,,,,,,,,,,,,,,,,,,,,,,,,,,,,,,,,,,,,,,,,,,,,,,,,,,,,,,,,,,,,,,,,,,,,,,,,,,,,,,,,,,,,,,,,,,,,,,,,,,,,,,,,,,,,,,,,,,,,,,,,,,,,,,,,,,,,,,,
,,,,,,616906751ffc9107b0236aa0,62bbfb486ef624f4e415c7b9,2022-06-29_09h13.11.415,Colour_Asymmetry_Pilot,2022.1.3,Win32,59.79073244,62bbe60bf3d75ef465d3e404,0,59,59,144,1,onetwo,,,,,,,,,,,,,,,,,,,,,,,,,,,,,,,,,,,,,,,,,,,,,,,,,,,,,,,,,,,,,,,,,,,,,,,,,,,,,,,,,,,,,,,,,,,,,,,,,,,,,,,,,,,,,,,,,,,,,,,,,,,,,,,,,,,,,,,,,,,,,,,,,,,,,,,,
,,,,,,616906751ffc9107b0236aa0,62bbfb486ef624f4e415c7b9,2022-06-29_09h13.11.415,Colour_Asymmetry_Pilot,2022.1.3,Win32,59.79073244,62bbe60bf3d75ef465d3e404,0,60,60,143,1,fourthree,,,,,,,,,,,,,,,,,,,,,,,,,,,,,,,,,,,,,,,,,,,,,,,,,,,,,,,,,,,,,,,,,,,,,,,,,,,,,,,,,,,,,,,,,,,,,,,,,,,,,,,,,,,,,,,,,,,,,,,,,,,,,,,,,,,,,,,,,,,,,,,,,,,,,,,,
,,,,,,616906751ffc9107b0236aa0,62bbfb486ef624f4e415c7b9,2022-06-29_09h13.11.415,Colour_Asymmetry_Pilot,2022.1.3,Win32,59.79073244,62bbe60bf3d75ef465d3e404,0,61,61,160,1,onetwo,,,,,,,,,,,,,,,,,,,,,,,,,,,,,,,,,,,,,,,,,,,,,,,,,,,,,,,,,,,,,,,,,,,,,,,,,,,,,,,,,,,,,,,,,,,,,,,,,,,,,,,,,,,,,,,,,,,,,,,,,,,,,,,,,,,,,,,,,,,,,,,,,,,,,,,,
,,,,,,616906751ffc9107b0236aa0,62bbfb486ef624f4e415c7b9,2022-06-29_09h13.11.415,Colour_Asymmetry_Pilot,2022.1.3,Win32,59.79073244,62bbe60bf3d75ef465d3e404,0,62,62,62,1,fourtwo,,,,,,,,,,,,,,,,,,,,,,,,,,,,,,,,,,,,,,,,,,,,,,,,,,,,,,,,,,,,,,,,,,,,,,,,,,,,,,,,,,,,,,,,,,,,,,,,,,,,,,,,,,,,,,,,,,,,,,,,,,,,,,,,,,,,,,,,,,,,,,,,,,,,,,,,
,,,,,,616906751ffc9107b0236aa0,62bbfb486ef624f4e415c7b9,2022-06-29_09h13.11.415,Colour_Asymmetry_Pilot,2022.1.3,Win32,59.79073244,62bbe60bf3d75ef465d3e404,0,63,63,145,1,onethree,,,,,,,,,,,,,,,,,,,,,,,,,,,,,,,,,,,,,,,,,,,,,,,,,,,,,,,,,,,,,,,,,,,,,,,,,,,,,,,,,,,,,,,,,,,,,,,,,,,,,,,,,,,,,,,,,,,,,,,,,,,,,,,,,,,,,,,,,,,,,,,,,,,,,,,,
,,,,,,616906751ffc9107b0236aa0,62bbfb486ef624f4e415c7b9,2022-06-29_09h13.11.415,Colour_Asymmetry_Pilot,2022.1.3,Win32,59.79073244,62bbe60bf3d75ef465d3e404,0,64,64,154,1,twoone,,,,,,,,,,,,,,,,,,,,,,,,,,,,,,,,,,,,,,,,,,,,,,,,,,,,,,,,,,,,,,,,,,,,,,,,,,,,,,,,,,,,,,,,,,,,,,,,,,,,,,,,,,,,,,,,,,,,,,,,,,,,,,,,,,,,,,,,,,,,,,,,,,,,,,,,
,,,,,,616906751ffc9107b0236aa0,62bbfb486ef624f4e415c7b9,2022-06-29_09h13.11.415,Colour_Asymmetry_Pilot,2022.1.3,Win32,59.79073244,62bbe60bf3d75ef465d3e404,0,65,65,86,1,fourtwo,,,,,,,,,,,,,,,,,,,,,,,,,,,,,,,,,,,,,,,,,,,,,,,,,,,,,,,,,,,,,,,,,,,,,,,,,,,,,,,,,,,,,,,,,,,,,,,,,,,,,,,,,,,,,,,,,,,,,,,,,,,,,,,,,,,,,,,,,,,,,,,,,,,,,,,,
,,,,,,616906751ffc9107b0236aa0,62bbfb486ef624f4e415c7b9,2022-06-29_09h13.11.415,Colour_Asymmetry_Pilot,2022.1.3,Win32,59.79073244,62bbe60bf3d75ef465d3e404,0,66,66,26,1,twoone,,,,,,,,,,,,,,,,,,,,,,,,,,,,,,,,,,,,,,,,,,,,,,,,,,,,,,,,,,,,,,,,,,,,,,,,,,,,,,,,,,,,,,,,,,,,,,,,,,,,,,,,,,,,,,,,,,,,,,,,,,,,,,,,,,,,,,,,,,,,,,,,,,,,,,,,
,,,,,,616906751ffc9107b0236aa0,62bbfb486ef624f4e415c7b9,2022-06-29_09h13.11.415,Colour_Asymmetry_Pilot,2022.1.3,Win32,59.79073244,62bbe60bf3d75ef465d3e404,0,67,67,1,1,onethree,,,,,,,,,,,,,,,,,,,,,,,,,,,,,,,,,,,,,,,,,,,,,,,,,,,,,,,,,,,,,,,,,,,,,,,,,,,,,,,,,,,,,,,,,,,,,,,,,,,,,,,,,,,,,,,,,,,,,,,,,,,,,,,,,,,,,,,,,,,,,,,,,,,,,,,,
,,,,,,616906751ffc9107b0236aa0,62bbfb486ef624f4e415c7b9,2022-06-29_09h13.11.415,Colour_Asymmetry_Pilot,2022.1.3,Win32,59.79073244,62bbe60bf3d75ef465d3e404,0,68,68,81,1,onethree,,,,,,,,,,,,,,,,,,,,,,,,,,,,,,,,,,,,,,,,,,,,,,,,,,,,,,,,,,,,,,,,,,,,,,,,,,,,,,,,,,,,,,,,,,,,,,,,,,,,,,,,,,,,,,,,,,,,,,,,,,,,,,,,,,,,,,,,,,,,,,,,,,,,,,,,
,,,,,,616906751ffc9107b0236aa0,62bbfb486ef624f4e415c7b9,2022-06-29_09h13.11.415,Colour_Asymmetry_Pilot,2022.1.3,Win32,59.79073244,62bbe60bf3d75ef465d3e404,0,69,69,117,1,threefour,,,,,,,,,,,,,,,,,,,,,,,,,,,,,,,,,,,,,,,,,,,,,,,,,,,,,,,,,,,,,,,,,,,,,,,,,,,,,,,,,,,,,,,,,,,,,,,,,,,,,,,,,,,,,,,,,,,,,,,,,,,,,,,,,,,,,,,,,,,,,,,,,,,,,,,,
,,,,,,616906751ffc9107b0236aa0,62bbfb486ef624f4e415c7b9,2022-06-29_09h13.11.415,Colour_Asymmetry_Pilot,2022.1.3,Win32,59.79073244,62bbe60bf3d75ef465d3e404,0,70,70,105,1,onethree,,,,,,,,,,,,,,,,,,,,,,,,,,,,,,,,,,,,,,,,,,,,,,,,,,,,,,,,,,,,,,,,,,,,,,,,,,,,,,,,,,,,,,,,,,,,,,,,,,,,,,,,,,,,,,,,,,,,,,,,,,,,,,,,,,,,,,,,,,,,,,,,,,,,,,,,
,,,,,,616906751ffc9107b0236aa0,62bbfb486ef624f4e415c7b9,2022-06-29_09h13.11.415,Colour_Asymmetry_Pilot,2022.1.3,Win32,59.79073244,62bbe60bf3d75ef465d3e404,0,71,71,124,1,threeone,,,,,,,,,,,,,,,,,,,,,,,,,,,,,,,,,,,,,,,,,,,,,,,,,,,,,,,,,,,,,,,,,,,,,,,,,,,,,,,,,,,,,,,,,,,,,,,,,,,,,,,,,,,,,,,,,,,,,,,,,,,,,,,,,,,,,,,,,,,,,,,,,,,,,,,,
,,,,,,616906751ffc9107b0236aa0,62bbfb486ef624f4e415c7b9,2022-06-29_09h13.11.415,Colour_Asymmetry_Pilot,2022.1.3,Win32,59.79073244,62bbe60bf3d75ef465d3e404,0,72,72,17,1,onethree,,,,,,,,,,,,,,,,,,,,,,,,,,,,,,,,,,,,,,,,,,,,,,,,,,,,,,,,,,,,,,,,,,,,,,,,,,,,,,,,,,,,,,,,,,,,,,,,,,,,,,,,,,,,,,,,,,,,,,,,,,,,,,,,,,,,,,,,,,,,,,,,,,,,,,,,
,,,,,,616906751ffc9107b0236aa0,62bbfb486ef624f4e415c7b9,2022-06-29_09h13.11.415,Colour_Asymmetry_Pilot,2022.1.3,Win32,59.79073244,62bbe60bf3d75ef465d3e404,0,73,73,55,1,fourthree,,,,,,,,,,,,,,,,,,,,,,,,,,,,,,,,,,,,,,,,,,,,,,,,,,,,,,,,,,,,,,,,,,,,,,,,,,,,,,,,,,,,,,,,,,,,,,,,,,,,,,,,,,,,,,,,,,,,,,,,,,,,,,,,,,,,,,,,,,,,,,,,,,,,,,,,
,,,,,,616906751ffc9107b0236aa0,62bbfb486ef624f4e415c7b9,2022-06-29_09h13.11.415,Colour_Asymmetry_Pilot,2022.1.3,Win32,59.79073244,62bbe60bf3d75ef465d3e404,0,74,74,41,1,onethree,,,,,,,,,,,,,,,,,,,,,,,,,,,,,,,,,,,,,,,,,,,,,,,,,,,,,,,,,,,,,,,,,,,,,,,,,,,,,,,,,,,,,,,,,,,,,,,,,,,,,,,,,,,,,,,,,,,,,,,,,,,,,,,,,,,,,,,,,,,,,,,,,,,,,,,,
,,,,,,616906751ffc9107b0236aa0,62bbfb486ef624f4e415c7b9,2022-06-29_09h13.11.415,Colour_Asymmetry_Pilot,2022.1.3,Win32,59.79073244,62bbe60bf3d75ef465d3e404,0,75,75,156,1,threeone,,,,,,,,,,,,,,,,,,,,,,,,,,,,,,,,,,,,,,,,,,,,,,,,,,,,,,,,,,,,,,,,,,,,,,,,,,,,,,,,,,,,,,,,,,,,,,,,,,,,,,,,,,,,,,,,,,,,,,,,,,,,,,,,,,,,,,,,,,,,,,,,,,,,,,,,
,,,,,,616906751ffc9107b0236aa0,62bbfb486ef624f4e415c7b9,2022-06-29_09h13.11.415,Colour_Asymmetry_Pilot,2022.1.3,Win32,59.79073244,62bbe60bf3d75ef465d3e404,0,76,76,58,1,twoone,,,,,,,,,,,,,,,,,,,,,,,,,,,,,,,,,,,,,,,,,,,,,,,,,,,,,,,,,,,,,,,,,,,,,,,,,,,,,,,,,,,,,,,,,,,,,,,,,,,,,,,,,,,,,,,,,,,,,,,,,,,,,,,,,,,,,,,,,,,,,,,,,,,,,,,,
,,,,,,616906751ffc9107b0236aa0,62bbfb486ef624f4e415c7b9,2022-06-29_09h13.11.415,Colour_Asymmetry_Pilot,2022.1.3,Win32,59.79073244,62bbe60bf3d75ef465d3e404,0,77,77,122,1,twoone,,,,,,,,,,,,,,,,,,,,,,,,,,,,,,,,,,,,,,,,,,,,,,,,,,,,,,,,,,,,,,,,,,,,,,,,,,,,,,,,,,,,,,,,,,,,,,,,,,,,,,,,,,,,,,,,,,,,,,,,,,,,,,,,,,,,,,,,,,,,,,,,,,,,,,,,
,,,,,,616906751ffc9107b0236aa0,62bbfb486ef624f4e415c7b9,2022-06-29_09h13.11.415,Colour_Asymmetry_Pilot,2022.1.3,Win32,59.79073244,62bbe60bf3d75ef465d3e404,0,78,78,12,1,threeone,,,,,,,,,,,,,,,,,,,,,,,,,,,,,,,,,,,,,,,,,,,,,,,,,,,,,,,,,,,,,,,,,,,,,,,,,,,,,,,,,,,,,,,,,,,,,,,,,,,,,,,,,,,,,,,,,,,,,,,,,,,,,,,,,,,,,,,,,,,,,,,,,,,,,,,,
,,,,,,616906751ffc9107b0236aa0,62bbfb486ef624f4e415c7b9,2022-06-29_09h13.11.415,Colour_Asymmetry_Pilot,2022.1.3,Win32,59.79073244,62bbe60bf3d75ef465d3e404,0,79,79,36,1,threeone,,,,,,,,,,,,,,,,,,,,,,,,,,,,,,,,,,,,,,,,,,,,,,,,,,,,,,,,,,,,,,,,,,,,,,,,,,,,,,,,,,,,,,,,,,,,,,,,,,,,,,,,,,,,,,,,,,,,,,,,,,,,,,,,,,,,,,,,,,,,,,,,,,,,,,,,
,,,,,,616906751ffc9107b0236aa0,62bbfb486ef624f4e415c7b9,2022-06-29_09h13.11.415,Colour_Asymmetry_Pilot,2022.1.3,Win32,59.79073244,62bbe60bf3d75ef465d3e404,0,80,80,146,1,twoone,,,,,,,,,,,,,,,,,,,,,,,,,,,,,,,,,,,,,,,,,,,,,,,,,,,,,,,,,,,,,,,,,,,,,,,,,,,,,,,,,,,,,,,,,,,,,,,,,,,,,,,,,,,,,,,,,,,,,,,,,,,,,,,,,,,,,,,,,,,,,,,,,,,,,,,,
,,,,,,616906751ffc9107b0236aa0,62bbfb486ef624f4e415c7b9,2022-06-29_09h13.11.415,Colour_Asymmetry_Pilot,2022.1.3,Win32,59.79073244,62bbe60bf3d75ef465d3e404,0,81,81,20,1,threeone,,,,,,,,,,,,,,,,,,,,,,,,,,,,,,,,,,,,,,,,,,,,,,,,,,,,,,,,,,,,,,,,,,,,,,,,,,,,,,,,,,,,,,,,,,,,,,,,,,,,,,,,,,,,,,,,,,,,,,,,,,,,,,,,,,,,,,,,,,,,,,,,,,,,,,,,
,,,,,,616906751ffc9107b0236aa0,62bbfb486ef624f4e415c7b9,2022-06-29_09h13.11.415,Colour_Asymmetry_Pilot,2022.1.3,Win32,59.79073244,62bbe60bf3d75ef465d3e404,0,82,82,39,1,fourthree,,,,,,,,,,,,,,,,,,,,,,,,,,,,,,,,,,,,,,,,,,,,,,,,,,,,,,,,,,,,,,,,,,,,,,,,,,,,,,,,,,,,,,,,,,,,,,,,,,,,,,,,,,,,,,,,,,,,,,,,,,,,,,,,,,,,,,,,,,,,,,,,,,,,,,,,
,,,,,,616906751ffc9107b0236aa0,62bbfb486ef624f4e415c7b9,2022-06-29_09h13.11.415,Colour_Asymmetry_Pilot,2022.1.3,Win32,59.79073244,62bbe60bf3d75ef465d3e404,0,83,83,44,1,threeone,,,,,,,,,,,,,,,,,,,,,,,,,,,,,,,,,,,,,,,,,,,,,,,,,,,,,,,,,,,,,,,,,,,,,,,,,,,,,,,,,,,,,,,,,,,,,,,,,,,,,,,,,,,,,,,,,,,,,,,,,,,,,,,,,,,,,,,,,,,,,,,,,,,,,,,,
,,,,,,616906751ffc9107b0236aa0,62bbfb486ef624f4e415c7b9,2022-06-29_09h13.11.415,Colour_Asymmetry_Pilot,2022.1.3,Win32,59.79073244,62bbe60bf3d75ef465d3e404,0,84,84,3,1,twofour,,,,,,,,,,,,,,,,,,,,,,,,,,,,,,,,,,,,,,,,,,,,,,,,,,,,,,,,,,,,,,,,,,,,,,,,,,,,,,,,,,,,,,,,,,,,,,,,,,,,,,,,,,,,,,,,,,,,,,,,,,,,,,,,,,,,,,,,,,,,,,,,,,,,,,,,
,,,,,,616906751ffc9107b0236aa0,62bbfb486ef624f4e415c7b9,2022-06-29_09h13.11.415,Colour_Asymmetry_Pilot,2022.1.3,Win32,59.79073244,62bbe60bf3d75ef465d3e404,0,85,85,50,1,twoone,,,,,,,,,,,,,,,,,,,,,,,,,,,,,,,,,,,,,,,,,,,,,,,,,,,,,,,,,,,,,,,,,,,,,,,,,,,,,,,,,,,,,,,,,,,,,,,,,,,,,,,,,,,,,,,,,,,,,,,,,,,,,,,,,,,,,,,,,,,,,,,,,,,,,,,,
,,,,,,616906751ffc9107b0236aa0,62bbfb486ef624f4e415c7b9,2022-06-29_09h13.11.415,Colour_Asymmetry_Pilot,2022.1.3,Win32,59.79073244,62bbe60bf3d75ef465d3e404,0,86,86,13,1,threefour,,,,,,,,,,,,,,,,,,,,,,,,,,,,,,,,,,,,,,,,,,,,,,,,,,,,,,,,,,,,,,,,,,,,,,,,,,,,,,,,,,,,,,,,,,,,,,,,,,,,,,,,,,,,,,,,,,,,,,,,,,,,,,,,,,,,,,,,,,,,,,,,,,,,,,,,
,,,,,,616906751ffc9107b0236aa0,62bbfb486ef624f4e415c7b9,2022-06-29_09h13.11.415,Colour_Asymmetry_Pilot,2022.1.3,Win32,59.79073244,62bbe60bf3d75ef465d3e404,0,87,87,27,1,twofour,,,,,,,,,,,,,,,,,,,,,,,,,,,,,,,,,,,,,,,,,,,,,,,,,,,,,,,,,,,,,,,,,,,,,,,,,,,,,,,,,,,,,,,,,,,,,,,,,,,,,,,,,,,,,,,,,,,,,,,,,,,,,,,,,,,,,,,,,,,,,,,,,,,,,,,,
,,,,,,616906751ffc9107b0236aa0,62bbfb486ef624f4e415c7b9,2022-06-29_09h13.11.415,Colour_Asymmetry_Pilot,2022.1.3,Win32,59.79073244,62bbe60bf3d75ef465d3e404,0,88,88,67,1,twofour,,,,,,,,,,,,,,,,,,,,,,,,,,,,,,,,,,,,,,,,,,,,,,,,,,,,,,,,,,,,,,,,,,,,,,,,,,,,,,,,,,,,,,,,,,,,,,,,,,,,,,,,,,,,,,,,,,,,,,,,,,,,,,,,,,,,,,,,,,,,,,,,,,,,,,,,
,,,,,,616906751ffc9107b0236aa0,62bbfb486ef624f4e415c7b9,2022-06-29_09h13.11.415,Colour_Asymmetry_Pilot,2022.1.3,Win32,59.79073244,62bbe60bf3d75ef465d3e404,0,89,89,89,1,onethree,,,,,,,,,,,,,,,,,,,,,,,,,,,,,,,,,,,,,,,,,,,,,,,,,,,,,,,,,,,,,,,,,,,,,,,,,,,,,,,,,,,,,,,,,,,,,,,,,,,,,,,,,,,,,,,,,,,,,,,,,,,,,,,,,,,,,,,,,,,,,,,,,,,,,,,,
,,,,,,616906751ffc9107b0236aa0,62bbfb486ef624f4e415c7b9,2022-06-29_09h13.11.415,Colour_Asymmetry_Pilot,2022.1.3,Win32,59.79073244,62bbe60bf3d75ef465d3e404,0,90,90,141,1,threefour,,,,,,,,,,,,,,,,,,,,,,,,,,,,,,,,,,,,,,,,,,,,,,,,,,,,,,,,,,,,,,,,,,,,,,,,,,,,,,,,,,,,,,,,,,,,,,,,,,,,,,,,,,,,,,,,,,,,,,,,,,,,,,,,,,,,,,,,,,,,,,,,,,,,,,,,
,,,,,,616906751ffc9107b0236aa0,62bbfb486ef624f4e415c7b9,2022-06-29_09h13.11.415,Colour_Asymmetry_Pilot,2022.1.3,Win32,59.79073244,62bbe60bf3d75ef465d3e404,0,91,91,102,1,fourtwo,,,,,,,,,,,,,,,,,,,,,,,,,,,,,,,,,,,,,,,,,,,,,,,,,,,,,,,,,,,,,,,,,,,,,,,,,,,,,,,,,,,,,,,,,,,,,,,,,,,,,,,,,,,,,,,,,,,,,,,,,,,,,,,,,,,,,,,,,,,,,,,,,,,,,,,,
,,,,,,616906751ffc9107b0236aa0,62bbfb486ef624f4e415c7b9,2022-06-29_09h13.11.415,Colour_Asymmetry_Pilot,2022.1.3,Win32,59.79073244,62bbe60bf3d75ef465d3e404,0,92,92,119,1,fourthree,,,,,,,,,,,,,,,,,,,,,,,,,,,,,,,,,,,,,,,,,,,,,,,,,,,,,,,,,,,,,,,,,,,,,,,,,,,,,,,,,,,,,,,,,,,,,,,,,,,,,,,,,,,,,,,,,,,,,,,,,,,,,,,,,,,,,,,,,,,,,,,,,,,,,,,,
,,,,,,616906751ffc9107b0236aa0,62bbfb486ef624f4e415c7b9,2022-06-29_09h13.11.415,Colour_Asymmetry_Pilot,2022.1.3,Win32,59.79073244,62bbe60bf3d75ef465d3e404,0,93,93,161,1,onethree,,,,,,,,,,,,,,,,,,,,,,,,,,,,,,,,,,,,,,,,,,,,,,,,,,,,,,,,,,,,,,,,,,,,,,,,,,,,,,,,,,,,,,,,,,,,,,,,,,,,,,,,,,,,,,,,,,,,,,,,,,,,,,,,,,,,,,,,,,,,,,,,,,,,,,,,
,,,,,,616906751ffc9107b0236aa0,62bbfb486ef624f4e415c7b9,2022-06-29_09h13.11.415,Colour_Asymmetry_Pilot,2022.1.3,Win32,59.79073244,62bbe60bf3d75ef465d3e404,0,94,94,137,1,onethree,,,,,,,,,,,,,,,,,,,,,,,,,,,,,,,,,,,,,,,,,,,,,,,,,,,,,,,,,,,,,,,,,,,,,,,,,,,,,,,,,,,,,,,,,,,,,,,,,,,,,,,,,,,,,,,,,,,,,,,,,,,,,,,,,,,,,,,,,,,,,,,,,,,,,,,,
,,,,,,616906751ffc9107b0236aa0,62bbfb486ef624f4e415c7b9,2022-06-29_09h13.11.415,Colour_Asymmetry_Pilot,2022.1.3,Win32,59.79073244,62bbe60bf3d75ef465d3e404,0,95,95,21,1,threefour,,,,,,,,,,,,,,,,,,,,,,,,,,,,,,,,,,,,,,,,,,,,,,,,,,,,,,,,,,,,,,,,,,,,,,,,,,,,,,,,,,,,,,,,,,,,,,,,,,,,,,,,,,,,,,,,,,,,,,,,,,,,,,,,,,,,,,,,,,,,,,,,,,,,,,,,
,,,,,,616906751ffc9107b0236aa0,62bbfb486ef624f4e415c7b9,2022-06-29_09h13.11.415,Colour_Asymmetry_Pilot,2022.1.3,Win32,59.79073244,62bbe60bf3d75ef465d3e404,0,96,96,49,1,onethree,,,,,,,,,,,,,,,,,,,,,,,,,,,,,,,,,,,,,,,,,,,,,,,,,,,,,,,,,,,,,,,,,,,,,,,,,,,,,,,,,,,,,,,,,,,,,,,,,,,,,,,,,,,,,,,,,,,,,,,,,,,,,,,,,,,,,,,,,,,,,,,,,,,,,,,,
,,,,,,616906751ffc9107b0236aa0,62bbfb486ef624f4e415c7b9,2022-06-29_09h13.11.415,Colour_Asymmetry_Pilot,2022.1.3,Win32,59.79073244,62bbe60bf3d75ef465d3e404,0,97,97,159,1,fourthree,,,,,,,,,,,,,,,,,,,,,,,,,,,,,,,,,,,,,,,,,,,,,,,,,,,,,,,,,,,,,,,,,,,,,,,,,,,,,,,,,,,,,,,,,,,,,,,,,,,,,,,,,,,,,,,,,,,,,,,,,,,,,,,,,,,,,,,,,,,,,,,,,,,,,,,,
,,,,,,616906751ffc9107b0236aa0,62bbfb486ef624f4e415c7b9,2022-06-29_09h13.11.415,Colour_Asymmetry_Pilot,2022.1.3,Win32,59.79073244,62bbe60bf3d75ef465d3e404,0,98,98,134,1,fourtwo,,,,,,,,,,,,,,,,,,,,,,,,,,,,,,,,,,,,,,,,,,,,,,,,,,,,,,,,,,,,,,,,,,,,,,,,,,,,,,,,,,,,,,,,,,,,,,,,,,,,,,,,,,,,,,,,,,,,,,,,,,,,,,,,,,,,,,,,,,,,,,,,,,,,,,,,
,,,,,,616906751ffc9107b0236aa0,62bbfb486ef624f4e415c7b9,2022-06-29_09h13.11.415,Colour_Asymmetry_Pilot,2022.1.3,Win32,59.79073244,62bbe60bf3d75ef465d3e404,0,99,99,83,1,twofour,,,,,,,,,,,,,,,,,,,,,,,,,,,,,,,,,,,,,,,,,,,,,,,,,,,,,,,,,,,,,,,,,,,,,,,,,,,,,,,,,,,,,,,,,,,,,,,,,,,,,,,,,,,,,,,,,,,,,,,,,,,,,,,,,,,,,,,,,,,,,,,,,,,,,,,,
,,,,,,616906751ffc9107b0236aa0,62bbfb486ef624f4e415c7b9,2022-06-29_09h13.11.415,Colour_Asymmetry_Pilot,2022.1.3,Win32,59.79073244,62bbe60bf3d75ef465d3e404,0,100,100,129,1,onethree,,,,,,,,,,,,,,,,,,,,,,,,,,,,,,,,,,,,,,,,,,,,,,,,,,,,,,,,,,,,,,,,,,,,,,,,,,,,,,,,,,,,,,,,,,,,,,,,,,,,,,,,,,,,,,,,,,,,,,,,,,,,,,,,,,,,,,,,,,,,,,,,,,,,,,,,
,,,,,,616906751ffc9107b0236aa0,62bbfb486ef624f4e415c7b9,2022-06-29_09h13.11.415,Colour_Asymmetry_Pilot,2022.1.3,Win32,59.79073244,62bbe60bf3d75ef465d3e404,0,101,101,151,1,fourthree,,,,,,,,,,,,,,,,,,,,,,,,,,,,,,,,,,,,,,,,,,,,,,,,,,,,,,,,,,,,,,,,,,,,,,,,,,,,,,,,,,,,,,,,,,,,,,,,,,,,,,,,,,,,,,,,,,,,,,,,,,,,,,,,,,,,,,,,,,,,,,,,,,,,,,,,
,,,,,,616906751ffc9107b0236aa0,62bbfb486ef624f4e415c7b9,2022-06-29_09h13.11.415,Colour_Asymmetry_Pilot,2022.1.3,Win32,59.79073244,62bbe60bf3d75ef465d3e404,0,102,102,138,1,twoone,,,,,,,,,,,,,,,,,,,,,,,,,,,,,,,,,,,,,,,,,,,,,,,,,,,,,,,,,,,,,,,,,,,,,,,,,,,,,,,,,,,,,,,,,,,,,,,,,,,,,,,,,,,,,,,,,,,,,,,,,,,,,,,,,,,,,,,,,,,,,,,,,,,,,,,,
,,,,,,616906751ffc9107b0236aa0,62bbfb486ef624f4e415c7b9,2022-06-29_09h13.11.415,Colour_Asymmetry_Pilot,2022.1.3,Win32,59.79073244,62bbe60bf3d75ef465d3e404,0,103,103,98,1,twoone,,,,,,,,,,,,,,,,,,,,,,,,,,,,,,,,,,,,,,,,,,,,,,,,,,,,,,,,,,,,,,,,,,,,,,,,,,,,,,,,,,,,,,,,,,,,,,,,,,,,,,,,,,,,,,,,,,,,,,,,,,,,,,,,,,,,,,,,,,,,,,,,,,,,,,,,
,,,,,,616906751ffc9107b0236aa0,62bbfb486ef624f4e415c7b9,2022-06-29_09h13.11.415,Colour_Asymmetry_Pilot,2022.1.3,Win32,59.79073244,62bbe60bf3d75ef465d3e404,0,104,104,64,1,onetwo,,,,,,,,,,,,,,,,,,,,,,,,,,,,,,,,,,,,,,,,,,,,,,,,,,,,,,,,,,,,,,,,,,,,,,,,,,,,,,,,,,,,,,,,,,,,,,,,,,,,,,,,,,,,,,,,,,,,,,,,,,,,,,,,,,,,,,,,,,,,,,,,,,,,,,,,
,,,,,,616906751ffc9107b0236aa0,62bbfb486ef624f4e415c7b9,2022-06-29_09h13.11.415,Colour_Asymmetry_Pilot,2022.1.3,Win32,59.79073244,62bbe60bf3d75ef465d3e404,0,105,105,60,1,threeone,,,,,,,,,,,,,,,,,,,,,,,,,,,,,,,,,,,,,,,,,,,,,,,,,,,,,,,,,,,,,,,,,,,,,,,,,,,,,,,,,,,,,,,,,,,,,,,,,,,,,,,,,,,,,,,,,,,,,,,,,,,,,,,,,,,,,,,,,,,,,,,,,,,,,,,,
,,,,,,616906751ffc9107b0236aa0,62bbfb486ef624f4e415c7b9,2022-06-29_09h13.11.415,Colour_Asymmetry_Pilot,2022.1.3,Win32,59.79073244,62bbe60bf3d75ef465d3e404,0,106,106,139,1,twofour,,,,,,,,,,,,,,,,,,,,,,,,,,,,,,,,,,,,,,,,,,,,,,,,,,,,,,,,,,,,,,,,,,,,,,,,,,,,,,,,,,,,,,,,,,,,,,,,,,,,,,,,,,,,,,,,,,,,,,,,,,,,,,,,,,,,,,,,,,,,,,,,,,,,,,,,
,,,,,,616906751ffc9107b0236aa0,62bbfb486ef624f4e415c7b9,2022-06-29_09h13.11.415,Colour_Asymmetry_Pilot,2022.1.3,Win32,59.79073244,62bbe60bf3d75ef465d3e404,0,107,107,37,1,threefour,,,,,,,,,,,,,,,,,,,,,,,,,,,,,,,,,,,,,,,,,,,,,,,,,,,,,,,,,,,,,,,,,,,,,,,,,,,,,,,,,,,,,,,,,,,,,,,,,,,,,,,,,,,,,,,,,,,,,,,,,,,,,,,,,,,,,,,,,,,,,,,,,,,,,,,,
,,,,,,616906751ffc9107b0236aa0,62bbfb486ef624f4e415c7b9,2022-06-29_09h13.11.415,Colour_Asymmetry_Pilot,2022.1.3,Win32,59.79073244,62bbe60bf3d75ef465d3e404,0,108,108,6,1,fourtwo,,,,,,,,,,,,,,,,,,,,,,,,,,,,,,,,,,,,,,,,,,,,,,,,,,,,,,,,,,,,,,,,,,,,,,,,,,,,,,,,,,,,,,,,,,,,,,,,,,,,,,,,,,,,,,,,,,,,,,,,,,,,,,,,,,,,,,,,,,,,,,,,,,,,,,,,
,,,,,,616906751ffc9107b0236aa0,62bbfb486ef624f4e415c7b9,2022-06-29_09h13.11.415,Colour_Asymmetry_Pilot,2022.1.3,Win32,59.79073244,62bbe60bf3d75ef465d3e404,0,109,109,70,1,fourtwo,,,,,,,,,,,,,,,,,,,,,,,,,,,,,,,,,,,,,,,,,,,,,,,,,,,,,,,,,,,,,,,,,,,,,,,,,,,,,,,,,,,,,,,,,,,,,,,,,,,,,,,,,,,,,,,,,,,,,,,,,,,,,,,,,,,,,,,,,,,,,,,,,,,,,,,,
,,,,,,616906751ffc9107b0236aa0,62bbfb486ef624f4e415c7b9,2022-06-29_09h13.11.415,Colour_Asymmetry_Pilot,2022.1.3,Win32,59.79073244,62bbe60bf3d75ef465d3e404,0,110,110,109,1,threefour,,,,,,,,,,,,,,,,,,,,,,,,,,,,,,,,,,,,,,,,,,,,,,,,,,,,,,,,,,,,,,,,,,,,,,,,,,,,,,,,,,,,,,,,,,,,,,,,,,,,,,,,,,,,,,,,,,,,,,,,,,,,,,,,,,,,,,,,,,,,,,,,,,,,,,,,
,,,,,,616906751ffc9107b0236aa0,62bbfb486ef624f4e415c7b9,2022-06-29_09h13.11.415,Colour_Asymmetry_Pilot,2022.1.3,Win32,59.79073244,62bbe60bf3d75ef465d3e404,0,111,111,110,1,fourtwo,,,,,,,,,,,,,,,,,,,,,,,,,,,,,,,,,,,,,,,,,,,,,,,,,,,,,,,,,,,,,,,,,,,,,,,,,,,,,,,,,,,,,,,,,,,,,,,,,,,,,,,,,,,,,,,,,,,,,,,,,,,,,,,,,,,,,,,,,,,,,,,,,,,,,,,,
,,,,,,616906751ffc9107b0236aa0,62bbfb486ef624f4e415c7b9,2022-06-29_09h13.11.415,Colour_Asymmetry_Pilot,2022.1.3,Win32,59.79073244,62bbe60bf3d75ef465d3e404,0,112,112,123,1,twofour,,,,,,,,,,,,,,,,,,,,,,,,,,,,,,,,,,,,,,,,,,,,,,,,,,,,,,,,,,,,,,,,,,,,,,,,,,,,,,,,,,,,,,,,,,,,,,,,,,,,,,,,,,,,,,,,,,,,,,,,,,,,,,,,,,,,,,,,,,,,,,,,,,,,,,,,
,,,,,,616906751ffc9107b0236aa0,62bbfb486ef624f4e415c7b9,2022-06-29_09h13.11.415,Colour_Asymmetry_Pilot,2022.1.3,Win32,59.79073244,62bbe60bf3d75ef465d3e404,0,113,113,126,1,fourtwo,,,,,,,,,,,,,,,,,,,,,,,,,,,,,,,,,,,,,,,,,,,,,,,,,,,,,,,,,,,,,,,,,,,,,,,,,,,,,,,,,,,,,,,,,,,,,,,,,,,,,,,,,,,,,,,,,,,,,,,,,,,,,,,,,,,,,,,,,,,,,,,,,,,,,,,,
,,,,,,616906751ffc9107b0236aa0,62bbfb486ef624f4e415c7b9,2022-06-29_09h13.11.415,Colour_Asymmetry_Pilot,2022.1.3,Win32,59.79073244,62bbe60bf3d75ef465d3e404,0,114,114,65,1,onethree,,,,,,,,,,,,,,,,,,,,,,,,,,,,,,,,,,,,,,,,,,,,,,,,,,,,,,,,,,,,,,,,,,,,,,,,,,,,,,,,,,,,,,,,,,,,,,,,,,,,,,,,,,,,,,,,,,,,,,,,,,,,,,,,,,,,,,,,,,,,,,,,,,,,,,,,
,,,,,,616906751ffc9107b0236aa0,62bbfb486ef624f4e415c7b9,2022-06-29_09h13.11.415,Colour_Asymmetry_Pilot,2022.1.3,Win32,59.79073244,62bbe60bf3d75ef465d3e404,0,115,115,97,1,onethree,,,,,,,,,,,,,,,,,,,,,,,,,,,,,,,,,,,,,,,,,,,,,,,,,,,,,,,,,,,,,,,,,,,,,,,,,,,,,,,,,,,,,,,,,,,,,,,,,,,,,,,,,,,,,,,,,,,,,,,,,,,,,,,,,,,,,,,,,,,,,,,,,,,,,,,,
,,,,,,616906751ffc9107b0236aa0,62bbfb486ef624f4e415c7b9,2022-06-29_09h13.11.415,Colour_Asymmetry_Pilot,2022.1.3,Win32,59.79073244,62bbe60bf3d75ef465d3e404,0,116,116,152,1,onetwo,,,,,,,,,,,,,,,,,,,,,,,,,,,,,,,,,,,,,,,,,,,,,,,,,,,,,,,,,,,,,,,,,,,,,,,,,,,,,,,,,,,,,,,,,,,,,,,,,,,,,,,,,,,,,,,,,,,,,,,,,,,,,,,,,,,,,,,,,,,,,,,,,,,,,,,,
,,,,,,616906751ffc9107b0236aa0,62bbfb486ef624f4e415c7b9,2022-06-29_09h13.11.415,Colour_Asymmetry_Pilot,2022.1.3,Win32,59.79073244,62bbe60bf3d75ef465d3e404,0,117,117,77,1,threefour,,,,,,,,,,,,,,,,,,,,,,,,,,,,,,,,,,,,,,,,,,,,,,,,,,,,,,,,,,,,,,,,,,,,,,,,,,,,,,,,,,,,,,,,,,,,,,,,,,,,,,,,,,,,,,,,,,,,,,,,,,,,,,,,,,,,,,,,,,,,,,,,,,,,,,,,
,,,,,,616906751ffc9107b0236aa0,62bbfb486ef624f4e415c7b9,2022-06-29_09h13.11.415,Colour_Asymmetry_Pilot,2022.1.3,Win32,59.79073244,62bbe60bf3d75ef465d3e404,0,118,118,132,1,threeone,,,,,,,,,,,,,,,,,,,,,,,,,,,,,,,,,,,,,,,,,,,,,,,,,,,,,,,,,,,,,,,,,,,,,,,,,,,,,,,,,,,,,,,,,,,,,,,,,,,,,,,,,,,,,,,,,,,,,,,,,,,,,,,,,,,,,,,,,,,,,,,,,,,,,,,,
,,,,,,616906751ffc9107b0236aa0,62bbfb486ef624f4e415c7b9,2022-06-29_09h13.11.415,Colour_Asymmetry_Pilot,2022.1.3,Win32,59.79073244,62bbe60bf3d75ef465d3e404,0,119,119,78,1,fourtwo,,,,,,,,,,,,,,,,,,,,,,,,,,,,,,,,,,,,,,,,,,,,,,,,,,,,,,,,,,,,,,,,,,,,,,,,,,,,,,,,,,,,,,,,,,,,,,,,,,,,,,,,,,,,,,,,,,,,,,,,,,,,,,,,,,,,,,,,,,,,,,,,,,,,,,,,
,,,,,,616906751ffc9107b0236aa0,62bbfb486ef624f4e415c7b9,2022-06-29_09h13.11.415,Colour_Asymmetry_Pilot,2022.1.3,Win32,59.79073244,62bbe60bf3d75ef465d3e404,0,120,120,54,1,fourtwo,,,,,,,,,,,,,,,,,,,,,,,,,,,,,,,,,,,,,,,,,,,,,,,,,,,,,,,,,,,,,,,,,,,,,,,,,,,,,,,,,,,,,,,,,,,,,,,,,,,,,,,,,,,,,,,,,,,,,,,,,,,,,,,,,,,,,,,,,,,,,,,,,,,,,,,,
,,,,,,616906751ffc9107b0236aa0,62bbfb486ef624f4e415c7b9,2022-06-29_09h13.11.415,Colour_Asymmetry_Pilot,2022.1.3,Win32,59.79073244,62bbe60bf3d75ef465d3e404,0,121,121,15,1,fourthree,,,,,,,,,,,,,,,,,,,,,,,,,,,,,,,,,,,,,,,,,,,,,,,,,,,,,,,,,,,,,,,,,,,,,,,,,,,,,,,,,,,,,,,,,,,,,,,,,,,,,,,,,,,,,,,,,,,,,,,,,,,,,,,,,,,,,,,,,,,,,,,,,,,,,,,,
,,,,,,616906751ffc9107b0236aa0,62bbfb486ef624f4e415c7b9,2022-06-29_09h13.11.415,Colour_Asymmetry_Pilot,2022.1.3,Win32,59.79073244,62bbe60bf3d75ef465d3e404,0,122,122,76,1,threeone,,,,,,,,,,,,,,,,,,,,,,,,,,,,,,,,,,,,,,,,,,,,,,,,,,,,,,,,,,,,,,,,,,,,,,,,,,,,,,,,,,,,,,,,,,,,,,,,,,,,,,,,,,,,,,,,,,,,,,,,,,,,,,,,,,,,,,,,,,,,,,,,,,,,,,,,
,,,,,,616906751ffc9107b0236aa0,62bbfb486ef624f4e415c7b9,2022-06-29_09h13.11.415,Colour_Asymmetry_Pilot,2022.1.3,Win32,59.79073244,62bbe60bf3d75ef465d3e404,0,123,123,34,1,twoone,,,,,,,,,,,,,,,,,,,,,,,,,,,,,,,,,,,,,,,,,,,,,,,,,,,,,,,,,,,,,,,,,,,,,,,,,,,,,,,,,,,,,,,,,,,,,,,,,,,,,,,,,,,,,,,,,,,,,,,,,,,,,,,,,,,,,,,,,,,,,,,,,,,,,,,,
,,,,,,616906751ffc9107b0236aa0,62bbfb486ef624f4e415c7b9,2022-06-29_09h13.11.415,Colour_Asymmetry_Pilot,2022.1.3,Win32,59.79073244,62bbe60bf3d75ef465d3e404,0,124,124,125,1,threefour,,,,,,,,,,,,,,,,,,,,,,,,,,,,,,,,,,,,,,,,,,,,,,,,,,,,,,,,,,,,,,,,,,,,,,,,,,,,,,,,,,,,,,,,,,,,,,,,,,,,,,,,,,,,,,,,,,,,,,,,,,,,,,,,,,,,,,,,,,,,,,,,,,,,,,,,
,,,,,,616906751ffc9107b0236aa0,62bbfb486ef624f4e415c7b9,2022-06-29_09h13.11.415,Colour_Asymmetry_Pilot,2022.1.3,Win32,59.79073244,62bbe60bf3d75ef465d3e404,0,125,125,19,1,twofour,,,,,,,,,,,,,,,,,,,,,,,,,,,,,,,,,,,,,,,,,,,,,,,,,,,,,,,,,,,,,,,,,,,,,,,,,,,,,,,,,,,,,,,,,,,,,,,,,,,,,,,,,,,,,,,,,,,,,,,,,,,,,,,,,,,,,,,,,,,,,,,,,,,,,,,,
,,,,,,616906751ffc9107b0236aa0,62bbfb486ef624f4e415c7b9,2022-06-29_09h13.11.415,Colour_Asymmetry_Pilot,2022.1.3,Win32,59.79073244,62bbe60bf3d75ef465d3e404,0,126,126,35,1,twofour,,,,,,,,,,,,,,,,,,,,,,,,,,,,,,,,,,,,,,,,,,,,,,,,,,,,,,,,,,,,,,,,,,,,,,,,,,,,,,,,,,,,,,,,,,,,,,,,,,,,,,,,,,,,,,,,,,,,,,,,,,,,,,,,,,,,,,,,,,,,,,,,,,,,,,,,
,,,,,,616906751ffc9107b0236aa0,62bbfb486ef624f4e415c7b9,2022-06-29_09h13.11.415,Colour_Asymmetry_Pilot,2022.1.3,Win32,59.79073244,62bbe60bf3d75ef465d3e404,0,127,127,95,1,fourthree,,,,,,,,,,,,,,,,,,,,,,,,,,,,,,,,,,,,,,,,,,,,,,,,,,,,,,,,,,,,,,,,,,,,,,,,,,,,,,,,,,,,,,,,,,,,,,,,,,,,,,,,,,,,,,,,,,,,,,,,,,,,,,,,,,,,,,,,,,,,,,,,,,,,,,,,
,,,,,,616906751ffc9107b0236aa0,62bbfb486ef624f4e415c7b9,2022-06-29_09h13.11.415,Colour_Asymmetry_Pilot,2022.1.3,Win32,59.79073244,62bbe60bf3d75ef465d3e404,0,128,128,149,1,threefour,,,,,,,,,,,,,,,,,,,,,,,,,,,,,,,,,,,,,,,,,,,,,,,,,,,,,,,,,,,,,,,,,,,,,,,,,,,,,,,,,,,,,,,,,,,,,,,,,,,,,,,,,,,,,,,,,,,,,,,,,,,,,,,,,,,,,,,,,,,,,,,,,,,,,,,,
,,,,,,616906751ffc9107b0236aa0,62bbfb486ef624f4e415c7b9,2022-06-29_09h13.11.415,Colour_Asymmetry_Pilot,2022.1.3,Win32,59.79073244,62bbe60bf3d75ef465d3e404,0,129,129,10,1,twoone,,,,,,,,,,,,,,,,,,,,,,,,,,,,,,,,,,,,,,,,,,,,,,,,,,,,,,,,,,,,,,,,,,,,,,,,,,,,,,,,,,,,,,,,,,,,,,,,,,,,,,,,,,,,,,,,,,,,,,,,,,,,,,,,,,,,,,,,,,,,,,,,,,,,,,,,
,,,,,,616906751ffc9107b0236aa0,62bbfb486ef624f4e415c7b9,2022-06-29_09h13.11.415,Colour_Asymmetry_Pilot,2022.1.3,Win32,59.79073244,62bbe60bf3d75ef465d3e404,0,130,130,40,1,onetwo,,,,,,,,,,,,,,,,,,,,,,,,,,,,,,,,,,,,,,,,,,,,,,,,,,,,,,,,,,,,,,,,,,,,,,,,,,,,,,,,,,,,,,,,,,,,,,,,,,,,,,,,,,,,,,,,,,,,,,,,,,,,,,,,,,,,,,,,,,,,,,,,,,,,,,,,
,,,,,,616906751ffc9107b0236aa0,62bbfb486ef624f4e415c7b9,2022-06-29_09h13.11.415,Colour_Asymmetry_Pilot,2022.1.3,Win32,59.79073244,62bbe60bf3d75ef465d3e404,0,131,131,74,1,twoone,,,,,,,,,,,,,,,,,,,,,,,,,,,,,,,,,,,,,,,,,,,,,,,,,,,,,,,,,,,,,,,,,,,,,,,,,,,,,,,,,,,,,,,,,,,,,,,,,,,,,,,,,,,,,,,,,,,,,,,,,,,,,,,,,,,,,,,,,,,,,,,,,,,,,,,,
,,,,,,616906751ffc9107b0236aa0,62bbfb486ef624f4e415c7b9,2022-06-29_09h13.11.415,Colour_Asymmetry_Pilot,2022.1.3,Win32,59.79073244,62bbe60bf3d75ef465d3e404,0,132,132,16,1,onetwo,,,,,,,,,,,,,,,,,,,,,,,,,,,,,,,,,,,,,,,,,,,,,,,,,,,,,,,,,,,,,,,,,,,,,,,,,,,,,,,,,,,,,,,,,,,,,,,,,,,,,,,,,,,,,,,,,,,,,,,,,,,,,,,,,,,,,,,,,,,,,,,,,,,,,,,,
,,,,,,616906751ffc9107b0236aa0,62bbfb486ef624f4e415c7b9,2022-06-29_09h13.11.415,Colour_Asymmetry_Pilot,2022.1.3,Win32,59.79073244,62bbe60bf3d75ef465d3e404,0,133,133,85,1,threefour,,,,,,,,,,,,,,,,,,,,,,,,,,,,,,,,,,,,,,,,,,,,,,,,,,,,,,,,,,,,,,,,,,,,,,,,,,,,,,,,,,,,,,,,,,,,,,,,,,,,,,,,,,,,,,,,,,,,,,,,,,,,,,,,,,,,,,,,,,,,,,,,,,,,,,,,
,,,,,,616906751ffc9107b0236aa0,62bbfb486ef624f4e415c7b9,2022-06-29_09h13.11.415,Colour_Asymmetry_Pilot,2022.1.3,Win32,59.79073244,62bbe60bf3d75ef465d3e404,0,134,134,130,1,twoone,,,,,,,,,,,,,,,,,,,,,,,,,,,,,,,,,,,,,,,,,,,,,,,,,,,,,,,,,,,,,,,,,,,,,,,,,,,,,,,,,,,,,,,,,,,,,,,,,,,,,,,,,,,,,,,,,,,,,,,,,,,,,,,,,,,,,,,,,,,,,,,,,,,,,,,,
,,,,,,616906751ffc9107b0236aa0,62bbfb486ef624f4e415c7b9,2022-06-29_09h13.11.415,Colour_Asymmetry_Pilot,2022.1.3,Win32,59.79073244,62bbe60bf3d75ef465d3e404,0,135,135,101,1,threefour,,,,,,,,,,,,,,,,,,,,,,,,,,,,,,,,,,,,,,,,,,,,,,,,,,,,,,,,,,,,,,,,,,,,,,,,,,,,,,,,,,,,,,,,,,,,,,,,,,,,,,,,,,,,,,,,,,,,,,,,,,,,,,,,,,,,,,,,,,,,,,,,,,,,,,,,
,,,,,,616906751ffc9107b0236aa0,62bbfb486ef624f4e415c7b9,2022-06-29_09h13.11.415,Colour_Asymmetry_Pilot,2022.1.3,Win32,59.79073244,62bbe60bf3d75ef465d3e404,0,136,136,136,1,onetwo,,,,,,,,,,,,,,,,,,,,,,,,,,,,,,,,,,,,,,,,,,,,,,,,,,,,,,,,,,,,,,,,,,,,,,,,,,,,,,,,,,,,,,,,,,,,,,,,,,,,,,,,,,,,,,,,,,,,,,,,,,,,,,,,,,,,,,,,,,,,,,,,,,,,,,,,
,,,,,,616906751ffc9107b0236aa0,62bbfb486ef624f4e415c7b9,2022-06-29_09h13.11.415,Colour_Asymmetry_Pilot,2022.1.3,Win32,59.79073244,62bbe60bf3d75ef465d3e404,0,137,137,63,1,fourthree,,,,,,,,,,,,,,,,,,,,,,,,,,,,,,,,,,,,,,,,,,,,,,,,,,,,,,,,,,,,,,,,,,,,,,,,,,,,,,,,,,,,,,,,,,,,,,,,,,,,,,,,,,,,,,,,,,,,,,,,,,,,,,,,,,,,,,,,,,,,,,,,,,,,,,,,
,,,,,,616906751ffc9107b0236aa0,62bbfb486ef624f4e415c7b9,2022-06-29_09h13.11.415,Colour_Asymmetry_Pilot,2022.1.3,Win32,59.79073244,62bbe60bf3d75ef465d3e404,0,138,138,96,1,onetwo,,,,,,,,,,,,,,,,,,,,,,,,,,,,,,,,,,,,,,,,,,,,,,,,,,,,,,,,,,,,,,,,,,,,,,,,,,,,,,,,,,,,,,,,,,,,,,,,,,,,,,,,,,,,,,,,,,,,,,,,,,,,,,,,,,,,,,,,,,,,,,,,,,,,,,,,
,,,,,,616906751ffc9107b0236aa0,62bbfb486ef624f4e415c7b9,2022-06-29_09h13.11.415,Colour_Asymmetry_Pilot,2022.1.3,Win32,59.79073244,62bbe60bf3d75ef465d3e404,0,139,139,142,1,fourtwo,,,,,,,,,,,,,,,,,,,,,,,,,,,,,,,,,,,,,,,,,,,,,,,,,,,,,,,,,,,,,,,,,,,,,,,,,,,,,,,,,,,,,,,,,,,,,,,,,,,,,,,,,,,,,,,,,,,,,,,,,,,,,,,,,,,,,,,,,,,,,,,,,,,,,,,,
,,,,,,616906751ffc9107b0236aa0,62bbfb486ef624f4e415c7b9,2022-06-29_09h13.11.415,Colour_Asymmetry_Pilot,2022.1.3,Win32,59.79073244,62bbe60bf3d75ef465d3e404,0,140,140,108,1,threeone,,,,,,,,,,,,,,,,,,,,,,,,,,,,,,,,,,,,,,,,,,,,,,,,,,,,,,,,,,,,,,,,,,,,,,,,,,,,,,,,,,,,,,,,,,,,,,,,,,,,,,,,,,,,,,,,,,,,,,,,,,,,,,,,,,,,,,,,,,,,,,,,,,,,,,,,
,,,,,,616906751ffc9107b0236aa0,62bbfb486ef624f4e415c7b9,2022-06-29_09h13.11.415,Colour_Asymmetry_Pilot,2022.1.3,Win32,59.79073244,62bbe60bf3d75ef465d3e404,0,141,141,47,1,fourthree,,,,,,,,,,,,,,,,,,,,,,,,,,,,,,,,,,,,,,,,,,,,,,,,,,,,,,,,,,,,,,,,,,,,,,,,,,,,,,,,,,,,,,,,,,,,,,,,,,,,,,,,,,,,,,,,,,,,,,,,,,,,,,,,,,,,,,,,,,,,,,,,,,,,,,,,
,,,,,,616906751ffc9107b0236aa0,62bbfb486ef624f4e415c7b9,2022-06-29_09h13.11.415,Colour_Asymmetry_Pilot,2022.1.3,Win32,59.79073244,62bbe60bf3d75ef465d3e404,0,142,142,42,1,twoone,,,,,,,,,,,,,,,,,,,,,,,,,,,,,,,,,,,,,,,,,,,,,,,,,,,,,,,,,,,,,,,,,,,,,,,,,,,,,,,,,,,,,,,,,,,,,,,,,,,,,,,,,,,,,,,,,,,,,,,,,,,,,,,,,,,,,,,,,,,,,,,,,,,,,,,,
,,,,,,616906751ffc9107b0236aa0,62bbfb486ef624f4e415c7b9,2022-06-29_09h13.11.415,Colour_Asymmetry_Pilot,2022.1.3,Win32,59.79073244,62bbe60bf3d75ef465d3e404,0,143,143,135,1,fourthree,,,,,,,,,,,,,,,,,,,,,,,,,,,,,,,,,,,,,,,,,,,,,,,,,,,,,,,,,,,,,,,,,,,,,,,,,,,,,,,,,,,,,,,,,,,,,,,,,,,,,,,,,,,,,,,,,,,,,,,,,,,,,,,,,,,,,,,,,,,,,,,,,,,,,,,,
,,,,,,616906751ffc9107b0236aa0,62bbfb486ef624f4e415c7b9,2022-06-29_09h13.11.415,Colour_Asymmetry_Pilot,2022.1.3,Win32,59.79073244,62bbe60bf3d75ef465d3e404,0,144,144,90,1,twoone,,,,,,,,,,,,,,,,,,,,,,,,,,,,,,,,,,,,,,,,,,,,,,,,,,,,,,,,,,,,,,,,,,,,,,,,,,,,,,,,,,,,,,,,,,,,,,,,,,,,,,,,,,,,,,,,,,,,,,,,,,,,,,,,,,,,,,,,,,,,,,,,,,,,,,,,
,,,,,,616906751ffc9107b0236aa0,62bbfb486ef624f4e415c7b9,2022-06-29_09h13.11.415,Colour_Asymmetry_Pilot,2022.1.3,Win32,59.79073244,62bbe60bf3d75ef465d3e404,0,145,145,121,1,onethree,,,,,,,,,,,,,,,,,,,,,,,,,,,,,,,,,,,,,,,,,,,,,,,,,,,,,,,,,,,,,,,,,,,,,,,,,,,,,,,,,,,,,,,,,,,,,,,,,,,,,,,,,,,,,,,,,,,,,,,,,,,,,,,,,,,,,,,,,,,,,,,,,,,,,,,,
,,,,,,616906751ffc9107b0236aa0,62bbfb486ef624f4e415c7b9,2022-06-29_09h13.11.415,Colour_Asymmetry_Pilot,2022.1.3,Win32,59.79073244,62bbe60bf3d75ef465d3e404,0,146,146,133,1,threefour,,,,,,,,,,,,,,,,,,,,,,,,,,,,,,,,,,,,,,,,,,,,,,,,,,,,,,,,,,,,,,,,,,,,,,,,,,,,,,,,,,,,,,,,,,,,,,,,,,,,,,,,,,,,,,,,,,,,,,,,,,,,,,,,,,,,,,,,,,,,,,,,,,,,,,,,
,,,,,,616906751ffc9107b0236aa0,62bbfb486ef624f4e415c7b9,2022-06-29_09h13.11.415,Colour_Asymmetry_Pilot,2022.1.3,Win32,59.79073244,62bbe60bf3d75ef465d3e404,0,147,147,29,1,threefour,,,,,,,,,,,,,,,,,,,,,,,,,,,,,,,,,,,,,,,,,,,,,,,,,,,,,,,,,,,,,,,,,,,,,,,,,,,,,,,,,,,,,,,,,,,,,,,,,,,,,,,,,,,,,,,,,,,,,,,,,,,,,,,,,,,,,,,,,,,,,,,,,,,,,,,,
,,,,,,616906751ffc9107b0236aa0,62bbfb486ef624f4e415c7b9,2022-06-29_09h13.11.415,Colour_Asymmetry_Pilot,2022.1.3,Win32,59.79073244,62bbe60bf3d75ef465d3e404,0,148,148,51,1,twofour,,,,,,,,,,,,,,,,,,,,,,,,,,,,,,,,,,,,,,,,,,,,,,,,,,,,,,,,,,,,,,,,,,,,,,,,,,,,,,,,,,,,,,,,,,,,,,,,,,,,,,,,,,,,,,,,,,,,,,,,,,,,,,,,,,,,,,,,,,,,,,,,,,,,,,,,
,,,,,,616906751ffc9107b0236aa0,62bbfb486ef624f4e415c7b9,2022-06-29_09h13.11.415,Colour_Asymmetry_Pilot,2022.1.3,Win32,59.79073244,62bbe60bf3d75ef465d3e404,0,149,149,31,1,fourthree,,,,,,,,,,,,,,,,,,,,,,,,,,,,,,,,,,,,,,,,,,,,,,,,,,,,,,,,,,,,,,,,,,,,,,,,,,,,,,,,,,,,,,,,,,,,,,,,,,,,,,,,,,,,,,,,,,,,,,,,,,,,,,,,,,,,,,,,,,,,,,,,,,,,,,,,
,,,,,,616906751ffc9107b0236aa0,62bbfb486ef624f4e415c7b9,2022-06-29_09h13.11.415,Colour_Asymmetry_Pilot,2022.1.3,Win32,59.79073244,62bbe60bf3d75ef465d3e404,0,150,150,84,1,threeone,,,,,,,,,,,,,,,,,,,,,,,,,,,,,,,,,,,,,,,,,,,,,,,,,,,,,,,,,,,,,,,,,,,,,,,,,,,,,,,,,,,,,,,,,,,,,,,,,,,,,,,,,,,,,,,,,,,,,,,,,,,,,,,,,,,,,,,,,,,,,,,,,,,,,,,,
,,,,,,616906751ffc9107b0236aa0,62bbfb486ef624f4e415c7b9,2022-06-29_09h13.11.415,Colour_Asymmetry_Pilot,2022.1.3,Win32,59.79073244,62bbe60bf3d75ef465d3e404,0,151,151,73,1,onethree,,,,,,,,,,,,,,,,,,,,,,,,,,,,,,,,,,,,,,,,,,,,,,,,,,,,,,,,,,,,,,,,,,,,,,,,,,,,,,,,,,,,,,,,,,,,,,,,,,,,,,,,,,,,,,,,,,,,,,,,,,,,,,,,,,,,,,,,,,,,,,,,,,,,,,,,
,,,,,,616906751ffc9107b0236aa0,62bbfb486ef624f4e415c7b9,2022-06-29_09h13.11.415,Colour_Asymmetry_Pilot,2022.1.3,Win32,59.79073244,62bbe60bf3d75ef465d3e404,0,152,152,127,1,fourthree,,,,,,,,,,,,,,,,,,,,,,,,,,,,,,,,,,,,,,,,,,,,,,,,,,,,,,,,,,,,,,,,,,,,,,,,,,,,,,,,,,,,,,,,,,,,,,,,,,,,,,,,,,,,,,,,,,,,,,,,,,,,,,,,,,,,,,,,,,,,,,,,,,,,,,,,
,,,,,,616906751ffc9107b0236aa0,62bbfb486ef624f4e415c7b9,2022-06-29_09h13.11.415,Colour_Asymmetry_Pilot,2022.1.3,Win32,59.79073244,62bbe60bf3d75ef465d3e404,0,153,153,32,1,onetwo,,,,,,,,,,,,,,,,,,,,,,,,,,,,,,,,,,,,,,,,,,,,,,,,,,,,,,,,,,,,,,,,,,,,,,,,,,,,,,,,,,,,,,,,,,,,,,,,,,,,,,,,,,,,,,,,,,,,,,,,,,,,,,,,,,,,,,,,,,,,,,,,,,,,,,,,
,,,,,,616906751ffc9107b0236aa0,62bbfb486ef624f4e415c7b9,2022-06-29_09h13.11.415,Colour_Asymmetry_Pilot,2022.1.3,Win32,59.79073244,62bbe60bf3d75ef465d3e404,0,154,154,147,1,twofour,,,,,,,,,,,,,,,,,,,,,,,,,,,,,,,,,,,,,,,,,,,,,,,,,,,,,,,,,,,,,,,,,,,,,,,,,,,,,,,,,,,,,,,,,,,,,,,,,,,,,,,,,,,,,,,,,,,,,,,,,,,,,,,,,,,,,,,,,,,,,,,,,,,,,,,,
,,,,,,616906751ffc9107b0236aa0,62bbfb486ef624f4e415c7b9,2022-06-29_09h13.11.415,Colour_Asymmetry_Pilot,2022.1.3,Win32,59.79073244,62bbe60bf3d75ef465d3e404,0,155,155,14,1,fourtwo,,,,,,,,,,,,,,,,,,,,,,,,,,,,,,,,,,,,,,,,,,,,,,,,,,,,,,,,,,,,,,,,,,,,,,,,,,,,,,,,,,,,,,,,,,,,,,,,,,,,,,,,,,,,,,,,,,,,,,,,,,,,,,,,,,,,,,,,,,,,,,,,,,,,,,,,
,,,,,,616906751ffc9107b0236aa0,62bbfb486ef624f4e415c7b9,2022-06-29_09h13.11.415,Colour_Asymmetry_Pilot,2022.1.3,Win32,59.79073244,62bbe60bf3d75ef465d3e404,0,156,156,114,1,twoone,,,,,,,,,,,,,,,,,,,,,,,,,,,,,,,,,,,,,,,,,,,,,,,,,,,,,,,,,,,,,,,,,,,,,,,,,,,,,,,,,,,,,,,,,,,,,,,,,,,,,,,,,,,,,,,,,,,,,,,,,,,,,,,,,,,,,,,,,,,,,,,,,,,,,,,,
,,,,,,616906751ffc9107b0236aa0,62bbfb486ef624f4e415c7b9,2022-06-29_09h13.11.415,Colour_Asymmetry_Pilot,2022.1.3,Win32,59.79073244,62bbe60bf3d75ef465d3e404,0,157,157,18,1,twoone,,,,,,,,,,,,,,,,,,,,,,,,,,,,,,,,,,,,,,,,,,,,,,,,,,,,,,,,,,,,,,,,,,,,,,,,,,,,,,,,,,,,,,,,,,,,,,,,,,,,,,,,,,,,,,,,,,,,,,,,,,,,,,,,,,,,,,,,,,,,,,,,,,,,,,,,
,,,,,,616906751ffc9107b0236aa0,62bbfb486ef624f4e415c7b9,2022-06-29_09h13.11.415,Colour_Asymmetry_Pilot,2022.1.3,Win32,59.79073244,62bbe60bf3d75ef465d3e404,0,158,158,118,1,fourtwo,,,,,,,,,,,,,,,,,,,,,,,,,,,,,,,,,,,,,,,,,,,,,,,,,,,,,,,,,,,,,,,,,,,,,,,,,,,,,,,,,,,,,,,,,,,,,,,,,,,,,,,,,,,,,,,,,,,,,,,,,,,,,,,,,,,,,,,,,,,,,,,,,,,,,,,,
,,,,,,616906751ffc9107b0236aa0,62bbfb486ef624f4e415c7b9,2022-06-29_09h13.11.415,Colour_Asymmetry_Pilot,2022.1.3,Win32,59.79073244,62bbe60bf3d75ef465d3e404,0,159,159,131,1,twofour,,,,,,,,,,,,,,,,,,,,,,,,,,,,,,,,,,,,,,,,,,,,,,,,,,,,,,,,,,,,,,,,,,,,,,,,,,,,,,,,,,,,,,,,,,,,,,,,,,,,,,,,,,,,,,,,,,,,,,,,,,,,,,,,,,,,,,,,,,,,,,,,,,,,,,,,
,,,,,,616906751ffc9107b0236aa0,62bbfb486ef624f4e415c7b9,2022-06-29_09h13.11.415,Colour_Asymmetry_Pilot,2022.1.3,Win32,59.79073244,62bbe60bf3d75ef465d3e404,0,160,160,22,1,fourtwo,,,,,,,,,,,,,,,,,,,,,,,,,,,,,,,,,,,,,,,,,,,,,,,,,,,,,,,,,,,,,,,,,,,,,,,,,,,,,,,,,,,,,,,,,,,,,,,,,,,,,,,,,,,,,,,,,,,,,,,,,,,,,,,,,,,,,,,,,,,,,,,,,,,,,,,,
,,,,,,616906751ffc9107b0236aa0,62bbfb486ef624f4e415c7b9,2022-06-29_09h13.11.415,Colour_Asymmetry_Pilot,2022.1.3,Win32,59.79073244,62bbe60bf3d75ef465d3e404,0,161,161,82,1,twoone,,,,,,,,,,,,,,,,,,,,,,,,,,,,,,,,,,,,,,,,,,,,,,,,,,,,,,,,,,,,,,,,,,,,,,,,,,,,,,,,,,,,,,,,,,,,,,,,,,,,,,,,,,,,,,,,,,,,,,,,,,,,,,,,,,,,,,,,,,,,,,,,,,,,,,,,
,,,,,,616906751ffc9107b0236aa0,62bbfb486ef624f4e415c7b9,2022-06-29_09h13.11.415,Colour_Asymmetry_Pilot,2022.1.3,Win32,59.79073244,62bbe60bf3d75ef465d3e404,,,,,,,space,6.4107,space,46.8131,space,38.8014,space,10,space,9.9196,space,6.0216,"[-0.01980000000000004,-0.5138,-0.38039999999999996]",threefour,"[-0.8198,-0.5138,-0.7492000000000001]",-4,21.0247,-35,72,1,0,0,response7disk_5,10,-2,1,0,0,rectangle_8,10,-2,1,0,0,3,10,-2,1,0,0,0,0,0,0,1,,,,,,,,,,,,,,,,,,,,,,,,,,,,,,,,,,,,,,,,,,,,,,,,,,,,,,,,,,,,,,,,,,,,,,,,,,,,,,,,,,,,,,,,,,,,,,,,,,,,,,,,,,,
,,,,,,616906751ffc9107b0236aa0,62bbfb486ef624f4e415c7b9,2022-06-29_09h13.11.415,Colour_Asymmetry_Pilot,2022.1.3,Win32,59.79073244,62bbe60bf3d75ef465d3e404,,,,,,,,,,,,,,,,,,,"[0.23120000000000007,-0.7726,-0.34120000000000006]",onethree,"[-0.5452,-0.608,0.2470000000000001]",-4,1.1734,-35,66,1,0,0,response7disk_5,-7,9,1,0,0,rectangle_8,91,38,1,0,0,3,32,-6,1,0,0,1,0,1,0,1,response1disk_7,6,rectangle_4,,,,,,,,,,,,,,,,,,,,,,,,,,,,,,,,,,,,,,,,,,,,,,,,,,,,,,,,,,,,,,,,,,,,,,,,,,,,,,,,,,,,,,,,,,,,,,,,,,,,,,,,
,,,,,,616906751ffc9107b0236aa0,62bbfb486ef624f4e415c7b9,2022-06-29_09h13.11.415,Colour_Asymmetry_Pilot,2022.1.3,Win32,59.79073244,62bbe60bf3d75ef465d3e404,,,,,,,,,,,,,,,,,,,"[-0.0040000000000000036,0.02739999999999987,-0.08239999999999992]",twofour,"[-0.8198,-0.5138,-0.7492000000000001]",-4,3.9808,-23,83,1,0,0,response7disk_5,-7,1,1,0,0,rectangle_8,-7,1,1,0,0,3,-7,1,1,0,0,2,0,2,0,1,,,,,,,,,,,,,,,,,,,,,,,,,,,,,,,,,,,,,,,,,,,,,,,,,,,,,,,,,,,,,,,,,,,,,,,,,,,,,,,,,,,,,,,,,,,,,,,,,,,,,,,,,,,
,,,,,,616906751ffc9107b0236aa0,62bbfb486ef624f4e415c7b9,2022-06-29_09h13.11.415,Colour_Asymmetry_Pilot,2022.1.3,Win32,59.79073244,62bbe60bf3d75ef465d3e404,,,,,,,,,,,,,,,,,,,"[0.30180000000000007,-0.7884,-0.9844]",onethree,"[-0.24719999999999998,-0.0354000000000001,0.3175999999999999]",-4,0.9701,-30,83,1,0,0,response7disk_5,3,9,1,0,0,rectangle_8,3,9,1,0,0,3,3,9,1,0,0,3,0,3,0,1,,,,,,,,,,,,,,,,,,,,,,,,,,,,,,,,,,,,,,,,,,,,,,,,,,,,,,,,,,,,,,,,,,,,,,,,,,,,,,,,,,,,,,,,,,,,,,,,,,,,,,,,,,,
,,,,,,616906751ffc9107b0236aa0,62bbfb486ef624f4e415c7b9,2022-06-29_09h13.11.415,Colour_Asymmetry_Pilot,2022.1.3,Win32,59.79073244,62bbe60bf3d75ef465d3e404,,,,,,,,,,,,,,,,,,,"[0.11359999999999992,0.6312,0.5213999999999999]",onethree,"[-0.24719999999999998,0.5213999999999999,-0.12959999999999994]",-4,0.7024,-32,65,1,0,0,response7disk_5,-15,-5,1,0,0,rectangle_8,-15,-5,1,0,0,3,-15,-5,1,0,0,4,0,4,0,1,,,,,,,,,,,,,,,,,,,,,,,,,,,,,,,,,,,,,,,,,,,,,,,,,,,,,,,,,,,,,,,,,,,,,,,,,,,,,,,,,,,,,,,,,,,,,,,,,,,,,,,,,,,
,,,,,,616906751ffc9107b0236aa0,62bbfb486ef624f4e415c7b9,2022-06-29_09h13.11.415,Colour_Asymmetry_Pilot,2022.1.3,Win32,59.79073244,62bbe60bf3d75ef465d3e404,,,,,,,,,,,,,,,,,,,"[0.9686000000000001,0.5763999999999998,0.11359999999999992]",fourtwo,"[0.40379999999999994,0.09000000000000008,0.44300000000000006]",-3,1.0192,-74,40,1,0,0,response7disk_5,-14,10,1,0,0,rectangle_8,68,51,1,0,0,3,11,3,1,0,0,5,0,5,0,1,response1disk_7,6,rectangle_4,,,,,,,,,,,,,,,,,,,,,,,,,,,,,,,,,,,,,,,,,,,,,,,,,,,,,,,,,,,,,,,,,,,,,,,,,,,,,,,,,,,,,,,,,,,,,,,,,,,,,,,,
,,,,,,616906751ffc9107b0236aa0,62bbfb486ef624f4e415c7b9,2022-06-29_09h13.11.415,Colour_Asymmetry_Pilot,2022.1.3,Win32,59.79073244,62bbe60bf3d75ef465d3e404,,,,,,,,,,,,,,,,,,,"[0.37240000000000006,-0.050999999999999934,-0.5216]",twofour,"[-0.5452,-0.608,0.2470000000000001]",-4,1.8918,-35,75,1,0,0,response7disk_5,-10,-5,1,0,0,rectangle_8,-10,-5,1,0,0,3,-10,-5,1,0,0,6,0,6,0,1,,,,,,,,,,,,,,,,,,,,,,,,,,,,,,,,,,,,,,,,,,,,,,,,,,,,,,,,,,,,,,,,,,,,,,,,,,,,,,,,,,,,,,,,,,,,,,,,,,,,,,,,,,,
,,,,,,616906751ffc9107b0236aa0,62bbfb486ef624f4e415c7b9,2022-06-29_09h13.11.415,Colour_Asymmetry_Pilot,2022.1.3,Win32,59.79073244,62bbe60bf3d75ef465d3e404,,,,,,,,,,,,,,,,,,,,onetwo,,-3,1.1045,,,,,,,,,,,,,,,,,,,,,,,,,,,,,,,,space,5.9698,"[0.9686000000000001,0.5763999999999998,0.11359999999999992]","[0.2862,0.7802,0.3568]",-64,42,1,0,0,response7disk,-13,13,1,0,0,rectangle,-13,13,1,0,0,,2,0.0019,0,-13,13,1,0,0,0,0,0,23,1,23,first,,,,,,,,,,,,,,,,,,,,,,,,,,,,,,,,,,,,,,,,,,,,,,,,,,,,,,,,,,,,,,,,,,,
,,,,,,616906751ffc9107b0236aa0,62bbfb486ef624f4e415c7b9,2022-06-29_09h13.11.415,Colour_Asymmetry_Pilot,2022.1.3,Win32,59.79073244,62bbe60bf3d75ef465d3e404,,,,,,,,,,,,,,,,,,,,onethree,,-3,1.3047,,,,,,,,,,,,,,,,,,,,,,,,,,,,,,,,,,"[0.2862,0.7802,0.3568]","[0.04299999999999993,0.16060000000000008,-0.6628000000000001]",-43,36,1,0,0,response7disk,-17,-4,1,0,0,rectangle,-17,-4,1,0,0,,1,0.0013,0,-17,-4,1,0,0,0,1,1,130,1,49,second,,,,,,,,,,,,,,,,,,,,,,,,,,,,,,,,,,,,,,,,,,,,,,,,,,,,,,,,,,,,,,,,,,,
,,,,,,616906751ffc9107b0236aa0,62bbfb486ef624f4e415c7b9,2022-06-29_09h13.11.415,Colour_Asymmetry_Pilot,2022.1.3,Win32,59.79073244,62bbe60bf3d75ef465d3e404,,,,,,,,,,,,,,,,,,,,threeone,,-4,0.5674,,,,,,,,,,,,,,,,,,,,,,,,,,,,,,,,,,"[0.30180000000000007,-0.7884,-0.9844]","[-0.20799999999999996,-0.655,-0.01980000000000004]",-40,71,1,0,0,response7disk,-16,8,1,0,0,rectangle,-16,8,1,0,0,,3,0.0008,0,-16,8,1,0,0,0,2,2,14,1,14,first,,,,,,,,,,,,,,,,,,,,,,,,,,,,,,,,,,,,,,,,,,,,,,,,,,,,,,,,,,,,,,,,,,,
,,,,,,616906751ffc9107b0236aa0,62bbfb486ef624f4e415c7b9,2022-06-29_09h13.11.415,Colour_Asymmetry_Pilot,2022.1.3,Win32,59.79073244,62bbe60bf3d75ef465d3e404,,,,,,,,,,,,,,,,,,,,fourthree,,-4,1.3908,,,,,,,,,,,,,,,,,,,,,,,,,,,,,,,,,,"[-0.20799999999999996,-0.655,-0.01980000000000004]","[0.2784,-0.31000000000000005,-0.5452]",-18,78,1,0,0,response7disk,-6,10,1,0,0,rectangle,-22,-65,1,0,0,-1,1,4.2818,1,-7,9,1,0,0,0,3,3,55,1,55,first,response5disk_3,rectangle,,,,,,,,,,,,,,,,,,,,,,,,,,,,,,,,,,,,,,,,,,,,,,,,,,,,,,,,,,,,,,,,,
,,,,,,616906751ffc9107b0236aa0,62bbfb486ef624f4e415c7b9,2022-06-29_09h13.11.415,Colour_Asymmetry_Pilot,2022.1.3,Win32,59.79073244,62bbe60bf3d75ef465d3e404,,,,,,,,,,,,,,,,,,,,onetwo,,-3,0.8029,,,,,,,,,,,,,,,,,,,,,,,,,,,,,,,,,,"[-0.17659999999999998,0.3253999999999999,0.19999999999999996]","[0.37240000000000006,-0.050999999999999934,-0.5216]",-63,45,1,0,0,response7disk,23,4,1,0,0,rectangle,23,4,1,0,0,-1,2,0.0011,0,23,4,1,0,0,0,4,4,60,1,60,first,,,,,,,,,,,,,,,,,,,,,,,,,,,,,,,,,,,,,,,,,,,,,,,,,,,,,,,,,,,,,,,,,,,
,,,,,,616906751ffc9107b0236aa0,62bbfb486ef624f4e415c7b9,2022-06-29_09h13.11.415,Colour_Asymmetry_Pilot,2022.1.3,Win32,59.79073244,62bbe60bf3d75ef465d3e404,,,,,,,,,,,,,,,,,,,,twoone,,-4,0.6183,,,,,,,,,,,,,,,,,,,,,,,,,,,,,,,,,,"[-0.4982,-0.2942,-0.0354000000000001]","[-0.050999999999999934,-0.6706000000000001,-0.804]",-43,66,1,0,0,response7disk,14,-9,1,0,0,rectangle,14,-9,1,0,0,-1,3,0.0008,0,14,-9,1,0,0,0,5,5,93,1,12,second,,,,,,,,,,,,,,,,,,,,,,,,,,,,,,,,,,,,,,,,,,,,,,,,,,,,,,,,,,,,,,,,,,,
,,,,,,616906751ffc9107b0236aa0,62bbfb486ef624f4e415c7b9,2022-06-29_09h13.11.415,Colour_Asymmetry_Pilot,2022.1.3,Win32,59.79073244,62bbe60bf3d75ef465d3e404,,,,,,,,,,,,,,,,,,,,twofour,,-4,4.2511,,,,,,,,,,,,,,,,,,,,,,,,,,,,,,,,,,"[-0.8982,-0.37259999999999993,0.2784]","[0.34099999999999997,0.12939999999999996,-0.9766]",-27,60,1,0,0,response7disk,18,-10,1,0,0,rectangle,18,-10,1,0,0,-1,2,0.0009,0,18,-10,1,0,0,0,6,6,16,1,16,first,,,,,,,,,,,,,,,,,,,,,,,,,,,,,,,,,,,,,,,,,,,,,,,,,,,,,,,,,,,,,,,,,,,
,,,,,,616906751ffc9107b0236aa0,62bbfb486ef624f4e415c7b9,2022-06-29_09h13.11.415,Colour_Asymmetry_Pilot,2022.1.3,Win32,59.79073244,62bbe60bf3d75ef465d3e404,,,,,,,,,,,,,,,,,,,,twofour,,-3,1.0377,,,,,,,,,,,,,,,,,,,,,,,,,,,,,,,,,,"[-0.9296,-0.12959999999999994,-0.043199999999999905]","[0.40379999999999994,0.09000000000000008,0.44300000000000006]",-59,40,1,0,0,response7disk,18,7,1,0,0,rectangle,18,7,1,0,0,-1,1,0.001,0,18,7,1,0,0,0,7,7,156,1,75,second,,,,,,,,,,,,,,,,,,,,,,,,,,,,,,,,,,,,,,,,,,,,,,,,,,,,,,,,,,,,,,,,,,,
,,,,,,616906751ffc9107b0236aa0,62bbfb486ef624f4e415c7b9,2022-06-29_09h13.11.415,Colour_Asymmetry_Pilot,2022.1.3,Win32,59.79073244,62bbe60bf3d75ef465d3e404,,,,,,,,,,,,,,,,,,,,threeone,,-4,0.5491,,,,,,,,,,,,,,,,,,,,,,,,,,,,,,,,,,"[-0.4668,-0.8746,-0.2942]","[-0.24719999999999998,0.5213999999999999,-0.12959999999999994]",-62,82,1,0,0,response7disk,6,-1,1,0,0,rectangle,6,-1,1,0,0,-1,1,0.0001,0,6,-1,1,0,0,0,8,8,81,1,0,second,,,,,,,,,,,,,,,,,,,,,,,,,,,,,,,,,,,,,,,,,,,,,,,,,,,,,,,,,,,,,,,,,,,
,,,,,,616906751ffc9107b0236aa0,62bbfb486ef624f4e415c7b9,2022-06-29_09h13.11.415,Colour_Asymmetry_Pilot,2022.1.3,Win32,59.79073244,62bbe60bf3d75ef465d3e404,,,,,,,,,,,,,,,,,,,,onethree,,-4,0.4022,,,,,,,,,,,,,,,,,,,,,,,,,,,,,,,,,,"[0.18419999999999992,-0.4276,-0.404]","[-0.9216,-0.5529999999999999,-0.3962]",-45,94,1,0,0,response7disk,2,10,1,0,0,rectangle,2,10,1,0,0,-1,1,0.0002,0,2,10,1,0,0,0,9,9,88,1,7,second,,,,,,,,,,,,,,,,,,,,,,,,,,,,,,,,,,,,,,,,,,,,,,,,,,,,,,,,,,,,,,,,,,,
,,,,,,616906751ffc9107b0236aa0,62bbfb486ef624f4e415c7b9,2022-06-29_09h13.11.415,Colour_Asymmetry_Pilot,2022.1.3,Win32,59.79073244,62bbe60bf3d75ef465d3e404,,,,,,,,,,,,,,,,,,,,threeone,,-2,2.8602,,,,,,,,,,,,,,,,,,,,,,,,,,,,,,,,,,"[0.19199999999999995,0.18419999999999992,0.5136000000000001]","[0.7018,0.7176,0.6155999999999999]",-90,-37,1,0,0,response5disk,-2,2,1,0,0,rectangle,-2,2,1,0,0,-1,3,0.0019,0,-2,2,1,0,0,0,10,10,108,1,27,second,,,,,,,,,,,,,,,,,,,,,,,,,,,,,,,,,,,,,,,,,,,,,,,,,,,,,,,,,,,,,,,,,,,
,,,,,,616906751ffc9107b0236aa0,62bbfb486ef624f4e415c7b9,2022-06-29_09h13.11.415,Colour_Asymmetry_Pilot,2022.1.3,Win32,59.79073244,62bbe60bf3d75ef465d3e404,,,,,,,,,,,,,,,,,,,,fourthree,,-4,0.9701,,,,,,,,,,,,,,,,,,,,,,,,,,,,,,,,,,"[0.0351999999999999,0.41159999999999997,0.0038000000000000256]","[-0.26280000000000003,-0.4746,-0.2158]",-40,56,1,0,0,response7disk,-9,12,1,0,0,rectangle,-9,12,1,0,0,-1,3,0.0003,0,-9,12,1,0,0,0,11,11,120,1,39,second,,,,,,,,,,,,,,,,,,,,,,,,,,,,,,,,,,,,,,,,,,,,,,,,,,,,,,,,,,,,,,,,,,,
,,,,,,616906751ffc9107b0236aa0,62bbfb486ef624f4e415c7b9,2022-06-29_09h13.11.415,Colour_Asymmetry_Pilot,2022.1.3,Win32,59.79073244,62bbe60bf3d75ef465d3e404,,,,,,,,,,,,,,,,,,,,twofour,,3,0.6827,,,,,,,,,,,,,,,,,,,,,,,,,,,,,,,,,,"[0.9763999999999999,0.30979999999999985,-0.6786]","[-0.8118,-0.8198,-0.5452]",55,41,1,0,0,response1disk,10,12,1,0,0,rectangle,10,12,1,0,0,-1,3,0.0003,0,10,12,1,0,0,0,12,12,138,1,57,second,,,,,,,,,,,,,,,,,,,,,,,,,,,,,,,,,,,,,,,,,,,,,,,,,,,,,,,,,,,,,,,,,,,
,,,,,,616906751ffc9107b0236aa0,62bbfb486ef624f4e415c7b9,2022-06-29_09h13.11.415,Colour_Asymmetry_Pilot,2022.1.3,Win32,59.79073244,62bbe60bf3d75ef465d3e404,,,,,,,,,,,,,,,,,,,,twofour,,-4,2.9298,,,,,,,,,,,,,,,,,,,,,,,,,,,,,,,,,,"[0.9372,0.20779999999999998,0.2704]","[-0.06680000000000008,-0.45100000000000007,-0.906]",-35,56,1,0,0,response7disk,10,-4,1,0,0,rectangle,10,-4,1,0,0,-1,3,0.0002,0,10,-4,1,0,0,0,13,13,31,1,31,first,,,,,,,,,,,,,,,,,,,,,,,,,,,,,,,,,,,,,,,,,,,,,,,,,,,,,,,,,,,,,,,,,,,
,,,,,,616906751ffc9107b0236aa0,62bbfb486ef624f4e415c7b9,2022-06-29_09h13.11.415,Colour_Asymmetry_Pilot,2022.1.3,Win32,59.79073244,62bbe60bf3d75ef465d3e404,,,,,,,,,,,,,,,,,,,,threefour,,-4,5.2686,,,,,,,,,,,,,,,,,,,,,,,,,,,,,,,,,,"[0.9372,0.20779999999999998,0.2704]","[-0.9688,-0.4902000000000001,-0.12159999999999993]",-26,52,1,0,0,response7disk,3,-2,1,0,0,rectangle,3,-2,1,0,0,-1,1,0.0017,0,3,-2,1,0,0,0,14,14,83,1,2,second,,,,,,,,,,,,,,,,,,,,,,,,,,,,,,,,,,,,,,,,,,,,,,,,,,,,,,,,,,,,,,,,,,,
,,,,,,616906751ffc9107b0236aa0,62bbfb486ef624f4e415c7b9,2022-06-29_09h13.11.415,Colour_Asymmetry_Pilot,2022.1.3,Win32,59.79073244,62bbe60bf3d75ef465d3e404,,,,,,,,,,,,,,,,,,,,threefour,,-4,0.7362,,,,,,,,,,,,,,,,,,,,,,,,,,,,,,,,,,"[0.4196,0.4665999999999999,0.3568]","[0.22340000000000004,-0.9296,-0.7884]",-43,61,1,0,0,response7disk,-3,5,1,0,0,rectangle,-3,5,1,0,0,-1,3,0.0007,0,-3,5,1,0,0,0,15,15,103,1,22,second,,,,,,,,,,,,,,,,,,,,,,,,,,,,,,,,,,,,,,,,,,,,,,,,,,,,,,,,,,,,,,,,,,,
,,,,,,616906751ffc9107b0236aa0,62bbfb486ef624f4e415c7b9,2022-06-29_09h13.11.415,Colour_Asymmetry_Pilot,2022.1.3,Win32,59.79073244,62bbe60bf3d75ef465d3e404,,,,,,,,,,,,,,,,,,,,onetwo,,-4,0.4183,,,,,,,,,,,,,,,,,,,,,,,,,,,,,,,,,,"[-0.5688,-0.08239999999999992,-0.1844]","[-0.5452,-0.608,0.2470000000000001]",-21,73,1,0,0,response7disk,17,-12,1,0,0,rectangle,95,40,1,0,0,3,3,3.1291,1,-3,5,1,0,0,0,16,16,36,1,36,first,response1disk_3,rectangle,,,,,,,,,,,,,,,,,,,,,,,,,,,,,,,,,,,,,,,,,,,,,,,,,,,,,,,,,,,,,,,,,
,,,,,,616906751ffc9107b0236aa0,62bbfb486ef624f4e415c7b9,2022-06-29_09h13.11.415,Colour_Asymmetry_Pilot,2022.1.3,Win32,59.79073244,62bbe60bf3d75ef465d3e404,,,,,,,,,,,,,,,,,,,,onetwo,,4,1.6073,,,,,,,,,,,,,,,,,,,,,,,,,,,,,,,,,,"[-0.9766,-0.34920000000000007,0.2156]","[-0.8982,-0.37259999999999993,0.2784]",29,69,1,0,0,response1disk,21,-1,1,0,0,rectangle,21,-1,1,0,0,3,3,0.0002,0,21,-1,1,0,0,0,17,17,51,1,51,first,,,,,,,,,,,,,,,,,,,,,,,,,,,,,,,,,,,,,,,,,,,,,,,,,,,,,,,,,,,,,,,,,,,
,,,,,,616906751ffc9107b0236aa0,62bbfb486ef624f4e415c7b9,2022-06-29_09h13.11.415,Colour_Asymmetry_Pilot,2022.1.3,Win32,59.79073244,62bbe60bf3d75ef465d3e404,,,,,,,,,,,,,,,,,,,,threefour,,-4,0.5019,,,,,,,,,,,,,,,,,,,,,,,,,,,,,,,,,,"[0.9372,0.20779999999999998,0.2704]","[-0.9216,-0.5529999999999999,-0.3962]",-24,56,1,0,0,response7disk,-1,9,1,0,0,rectangle,-1,9,1,0,0,3,3,0.0002,0,-1,9,1,0,0,0,18,18,140,1,59,second,,,,,,,,,,,,,,,,,,,,,,,,,,,,,,,,,,,,,,,,,,,,,,,,,,,,,,,,,,,,,,,,,,,
,,,,,,616906751ffc9107b0236aa0,62bbfb486ef624f4e415c7b9,2022-06-29_09h13.11.415,Colour_Asymmetry_Pilot,2022.1.3,Win32,59.79073244,62bbe60bf3d75ef465d3e404,,,,,,,,,,,,,,,,,,,,fourthree,,-4,0.4348,,,,,,,,,,,,,,,,,,,,,,,,,,,,,,,,,,"[-0.01980000000000004,-0.5138,-0.38039999999999996]","[-0.9766,-0.34920000000000007,0.2156]",-29,65,1,0,0,response7disk,-13,-3,1,0,0,rectangle,-13,-3,1,0,0,3,2,0.0009,0,-13,-3,1,0,0,0,19,19,142,1,61,second,,,,,,,,,,,,,,,,,,,,,,,,,,,,,,,,,,,,,,,,,,,,,,,,,,,,,,,,,,,,,,,,,,,
,,,,,,616906751ffc9107b0236aa0,62bbfb486ef624f4e415c7b9,2022-06-29_09h13.11.415,Colour_Asymmetry_Pilot,2022.1.3,Win32,59.79073244,62bbe60bf3d75ef465d3e404,,,,,,,,,,,,,,,,,,,,fourthree,,-4,0.3824,,,,,,,,,,,,,,,,,,,,,,,,,,,,,,,,,,"[-0.30200000000000005,0.14500000000000002,0.2784]","[0.5449999999999999,-0.31000000000000005,-0.0354000000000001]",-22,62,1,0,0,response7disk,-10,4,1,0,0,rectangle,-10,4,1,0,0,3,2,0.0003,0,-10,4,1,0,0,0,20,20,8,1,8,first,,,,,,,,,,,,,,,,,,,,,,,,,,,,,,,,,,,,,,,,,,,,,,,,,,,,,,,,,,,,,,,,,,,
