trials.thisRepN,trials.thisTrialN,trials.thisN,trials.thisIndex,trials.ran,Colourcodes,participant,session,date,expName,psychopyVersion,OS,frameRate,study_id,trials_4.thisRepN,trials_4.thisTrialN,trials_4.thisN,trials_4.thisIndex,trials_4.ran,StimulusPos,key_resp.keys,key_resp.rt,key_resp_2.keys,key_resp_2.rt,key_resp_15.keys,key_resp_15.rt,key_resp_17.keys,key_resp_17.rt,key_resp_9.keys,key_resp_9.rt,key_resp_10.keys,key_resp_10.rt,Circle1_col,Ecc,Circle2_col,similarity,response_time,mouse_5.x,mouse_5.y,mouse_5.leftButton,mouse_5.midButton,mouse_5.rightButton,mouse_5.clicked_name,mouse_10.x,mouse_10.y,mouse_10.leftButton,mouse_10.midButton,mouse_10.rightButton,mouse_10.clicked_name,mouse_7.x,mouse_7.y,mouse_7.leftButton,mouse_7.midButton,mouse_7.rightButton,mouse_7.clicked_name,catchprac,catchnumberprac,mouse_6.x,mouse_6.y,mouse_6.leftButton,mouse_6.midButton,mouse_6.rightButton,mouse_6.clicked_name,duringprac.thisRepN,duringprac.thisTrialN,duringprac.thisN,duringprac.thisIndex,duringprac.ran,key_resp_22.keys,key_resp_22.rt,Circle1_colour,Circle2_colour,mouse.x,mouse.y,mouse.leftButton,mouse.midButton,mouse.rightButton,mouse.clicked_name,mouse_2.x,mouse_2.y,mouse_2.leftButton,mouse_2.midButton,mouse_2.rightButton,mouse_2.clicked_name,mouse_3.x,mouse_3.y,mouse_3.leftButton,mouse_3.midButton,mouse_3.rightButton,catchresponse,catchnumber,response_time_catch,Catch,mouse_11.x,mouse_11.y,mouse_11.leftButton,mouse_11.midButton,mouse_11.rightButton,trials_2.thisRepN,trials_2.thisTrialN,trials_2.thisN,trials_2.thisIndex,trials_2.ran,Colourpair,Temporder,mouse_3.clicked_name,mouse_11.clicked_name,trials_3.thisRepN,trials_3.thisTrialN,trials_3.thisN,trials_3.thisIndex,trials_3.ran,key_resp_instr_Ishi.keys,key_resp_instr_Ishi.rt,Ishi_trial_keyresp.keys,Ishi_trial_keyresp.rt,Ishi_textbox.text,Ishi_loop.thisRepN,Ishi_loop.thisTrialN,Ishi_loop.thisN,Ishi_loop.thisIndex,Ishi_loop.ran,imageaddress,textbox.text,mouse_4.x,mouse_4.y,mouse_4.leftButton,mouse_4.midButton,mouse_4.rightButton,mouse_4.clicked_name,textbox_2.text,mouse_8.x,mouse_8.y,mouse_8.leftButton,mouse_8.midButton,mouse_8.rightButton,mouse_8.clicked_name,textbox_3.text,mouse_9.x,mouse_9.y,mouse_9.leftButton,mouse_9.midButton,mouse_9.rightButton,mouse_9.clicked_name,textbox_4.text,mouse_12.x,mouse_12.y,mouse_12.leftButton,mouse_12.midButton,mouse_12.rightButton,mouse_12.clicked_name,textbox_5.text,mouse_13.x,mouse_13.y,mouse_13.leftButton,mouse_13.midButton,mouse_13.rightButton,mouse_13.clicked_name,textbox_6.text,mouse_14.x,mouse_14.y,mouse_14.leftButton,mouse_14.midButton,mouse_14.rightButton,mouse_14.clicked_name,textbox_7.text,mouse_15.x,mouse_15.y,mouse_15.leftButton,mouse_15.midButton,mouse_15.rightButton,mouse_15.clicked_name
0,0,0,19,1,,60e911d8667eccfdd32a590e,62bbfb270e15271e2faad413,2022-06-29_19h12.13.607,Colour_Asymmetry_Pilot,2022.1.3,Win32,59.91970759,62bbe60bf3d75ef465d3e404,,,,,,,,,,,,,,,,,,,,,,,,,,,,,,,,,,,,,,,,,,,,,,,,,,,,,,,,,,,,,,,,,,,,,,,,,,,,,,,,,,,,,,,,,,,,,,,,,,,,,,,,,,,,,,,,,,,,,,,,,,,,,,,,,,,,,,,,,,,,,,,,,,,,,,,,,,,,,,
0,1,1,57,1,,60e911d8667eccfdd32a590e,62bbfb270e15271e2faad413,2022-06-29_19h12.13.607,Colour_Asymmetry_Pilot,2022.1.3,Win32,59.91970759,62bbe60bf3d75ef465d3e404,,,,,,,,,,,,,,,,,,,,,,,,,,,,,,,,,,,,,,,,,,,,,,,,,,,,,,,,,,,,,,,,,,,,,,,,,,,,,,,,,,,,,,,,,,,,,,,,,,,,,,,,,,,,,,,,,,,,,,,,,,,,,,,,,,,,,,,,,,,,,,,,,,,,,,,,,,,,,,
0,2,2,84,1,,60e911d8667eccfdd32a590e,62bbfb270e15271e2faad413,2022-06-29_19h12.13.607,Colour_Asymmetry_Pilot,2022.1.3,Win32,59.91970759,62bbe60bf3d75ef465d3e404,,,,,,,,,,,,,,,,,,,,,,,,,,,,,,,,,,,,,,,,,,,,,,,,,,,,,,,,,,,,,,,,,,,,,,,,,,,,,,,,,,,,,,,,,,,,,,,,,,,,,,,,,,,,,,,,,,,,,,,,,,,,,,,,,,,,,,,,,,,,,,,,,,,,,,,,,,,,,,
0,3,3,56,1,,60e911d8667eccfdd32a590e,62bbfb270e15271e2faad413,2022-06-29_19h12.13.607,Colour_Asymmetry_Pilot,2022.1.3,Win32,59.91970759,62bbe60bf3d75ef465d3e404,,,,,,,,,,,,,,,,,,,,,,,,,,,,,,,,,,,,,,,,,,,,,,,,,,,,,,,,,,,,,,,,,,,,,,,,,,,,,,,,,,,,,,,,,,,,,,,,,,,,,,,,,,,,,,,,,,,,,,,,,,,,,,,,,,,,,,,,,,,,,,,,,,,,,,,,,,,,,,
0,4,4,33,1,,60e911d8667eccfdd32a590e,62bbfb270e15271e2faad413,2022-06-29_19h12.13.607,Colour_Asymmetry_Pilot,2022.1.3,Win32,59.91970759,62bbe60bf3d75ef465d3e404,,,,,,,,,,,,,,,,,,,,,,,,,,,,,,,,,,,,,,,,,,,,,,,,,,,,,,,,,,,,,,,,,,,,,,,,,,,,,,,,,,,,,,,,,,,,,,,,,,,,,,,,,,,,,,,,,,,,,,,,,,,,,,,,,,,,,,,,,,,,,,,,,,,,,,,,,,,,,,
0,5,5,3,1,,60e911d8667eccfdd32a590e,62bbfb270e15271e2faad413,2022-06-29_19h12.13.607,Colour_Asymmetry_Pilot,2022.1.3,Win32,59.91970759,62bbe60bf3d75ef465d3e404,,,,,,,,,,,,,,,,,,,,,,,,,,,,,,,,,,,,,,,,,,,,,,,,,,,,,,,,,,,,,,,,,,,,,,,,,,,,,,,,,,,,,,,,,,,,,,,,,,,,,,,,,,,,,,,,,,,,,,,,,,,,,,,,,,,,,,,,,,,,,,,,,,,,,,,,,,,,,,
0,6,6,27,1,,60e911d8667eccfdd32a590e,62bbfb270e15271e2faad413,2022-06-29_19h12.13.607,Colour_Asymmetry_Pilot,2022.1.3,Win32,59.91970759,62bbe60bf3d75ef465d3e404,,,,,,,,,,,,,,,,,,,,,,,,,,,,,,,,,,,,,,,,,,,,,,,,,,,,,,,,,,,,,,,,,,,,,,,,,,,,,,,,,,,,,,,,,,,,,,,,,,,,,,,,,,,,,,,,,,,,,,,,,,,,,,,,,,,,,,,,,,,,,,,,,,,,,,,,,,,,,,
0,7,7,40,1,,60e911d8667eccfdd32a590e,62bbfb270e15271e2faad413,2022-06-29_19h12.13.607,Colour_Asymmetry_Pilot,2022.1.3,Win32,59.91970759,62bbe60bf3d75ef465d3e404,,,,,,,,,,,,,,,,,,,,,,,,,,,,,,,,,,,,,,,,,,,,,,,,,,,,,,,,,,,,,,,,,,,,,,,,,,,,,,,,,,,,,,,,,,,,,,,,,,,,,,,,,,,,,,,,,,,,,,,,,,,,,,,,,,,,,,,,,,,,,,,,,,,,,,,,,,,,,,
0,8,8,82,1,,60e911d8667eccfdd32a590e,62bbfb270e15271e2faad413,2022-06-29_19h12.13.607,Colour_Asymmetry_Pilot,2022.1.3,Win32,59.91970759,62bbe60bf3d75ef465d3e404,,,,,,,,,,,,,,,,,,,,,,,,,,,,,,,,,,,,,,,,,,,,,,,,,,,,,,,,,,,,,,,,,,,,,,,,,,,,,,,,,,,,,,,,,,,,,,,,,,,,,,,,,,,,,,,,,,,,,,,,,,,,,,,,,,,,,,,,,,,,,,,,,,,,,,,,,,,,,,
0,9,9,8,1,,60e911d8667eccfdd32a590e,62bbfb270e15271e2faad413,2022-06-29_19h12.13.607,Colour_Asymmetry_Pilot,2022.1.3,Win32,59.91970759,62bbe60bf3d75ef465d3e404,,,,,,,,,,,,,,,,,,,,,,,,,,,,,,,,,,,,,,,,,,,,,,,,,,,,,,,,,,,,,,,,,,,,,,,,,,,,,,,,,,,,,,,,,,,,,,,,,,,,,,,,,,,,,,,,,,,,,,,,,,,,,,,,,,,,,,,,,,,,,,,,,,,,,,,,,,,,,,
0,10,10,37,1,,60e911d8667eccfdd32a590e,62bbfb270e15271e2faad413,2022-06-29_19h12.13.607,Colour_Asymmetry_Pilot,2022.1.3,Win32,59.91970759,62bbe60bf3d75ef465d3e404,,,,,,,,,,,,,,,,,,,,,,,,,,,,,,,,,,,,,,,,,,,,,,,,,,,,,,,,,,,,,,,,,,,,,,,,,,,,,,,,,,,,,,,,,,,,,,,,,,,,,,,,,,,,,,,,,,,,,,,,,,,,,,,,,,,,,,,,,,,,,,,,,,,,,,,,,,,,,,
0,11,11,68,1,,60e911d8667eccfdd32a590e,62bbfb270e15271e2faad413,2022-06-29_19h12.13.607,Colour_Asymmetry_Pilot,2022.1.3,Win32,59.91970759,62bbe60bf3d75ef465d3e404,,,,,,,,,,,,,,,,,,,,,,,,,,,,,,,,,,,,,,,,,,,,,,,,,,,,,,,,,,,,,,,,,,,,,,,,,,,,,,,,,,,,,,,,,,,,,,,,,,,,,,,,,,,,,,,,,,,,,,,,,,,,,,,,,,,,,,,,,,,,,,,,,,,,,,,,,,,,,,
0,12,12,12,1,,60e911d8667eccfdd32a590e,62bbfb270e15271e2faad413,2022-06-29_19h12.13.607,Colour_Asymmetry_Pilot,2022.1.3,Win32,59.91970759,62bbe60bf3d75ef465d3e404,,,,,,,,,,,,,,,,,,,,,,,,,,,,,,,,,,,,,,,,,,,,,,,,,,,,,,,,,,,,,,,,,,,,,,,,,,,,,,,,,,,,,,,,,,,,,,,,,,,,,,,,,,,,,,,,,,,,,,,,,,,,,,,,,,,,,,,,,,,,,,,,,,,,,,,,,,,,,,
0,13,13,1,1,,60e911d8667eccfdd32a590e,62bbfb270e15271e2faad413,2022-06-29_19h12.13.607,Colour_Asymmetry_Pilot,2022.1.3,Win32,59.91970759,62bbe60bf3d75ef465d3e404,,,,,,,,,,,,,,,,,,,,,,,,,,,,,,,,,,,,,,,,,,,,,,,,,,,,,,,,,,,,,,,,,,,,,,,,,,,,,,,,,,,,,,,,,,,,,,,,,,,,,,,,,,,,,,,,,,,,,,,,,,,,,,,,,,,,,,,,,,,,,,,,,,,,,,,,,,,,,,
0,14,14,86,1,,60e911d8667eccfdd32a590e,62bbfb270e15271e2faad413,2022-06-29_19h12.13.607,Colour_Asymmetry_Pilot,2022.1.3,Win32,59.91970759,62bbe60bf3d75ef465d3e404,,,,,,,,,,,,,,,,,,,,,,,,,,,,,,,,,,,,,,,,,,,,,,,,,,,,,,,,,,,,,,,,,,,,,,,,,,,,,,,,,,,,,,,,,,,,,,,,,,,,,,,,,,,,,,,,,,,,,,,,,,,,,,,,,,,,,,,,,,,,,,,,,,,,,,,,,,,,,,
0,15,15,91,1,,60e911d8667eccfdd32a590e,62bbfb270e15271e2faad413,2022-06-29_19h12.13.607,Colour_Asymmetry_Pilot,2022.1.3,Win32,59.91970759,62bbe60bf3d75ef465d3e404,,,,,,,,,,,,,,,,,,,,,,,,,,,,,,,,,,,,,,,,,,,,,,,,,,,,,,,,,,,,,,,,,,,,,,,,,,,,,,,,,,,,,,,,,,,,,,,,,,,,,,,,,,,,,,,,,,,,,,,,,,,,,,,,,,,,,,,,,,,,,,,,,,,,,,,,,,,,,,
0,16,16,7,1,,60e911d8667eccfdd32a590e,62bbfb270e15271e2faad413,2022-06-29_19h12.13.607,Colour_Asymmetry_Pilot,2022.1.3,Win32,59.91970759,62bbe60bf3d75ef465d3e404,,,,,,,,,,,,,,,,,,,,,,,,,,,,,,,,,,,,,,,,,,,,,,,,,,,,,,,,,,,,,,,,,,,,,,,,,,,,,,,,,,,,,,,,,,,,,,,,,,,,,,,,,,,,,,,,,,,,,,,,,,,,,,,,,,,,,,,,,,,,,,,,,,,,,,,,,,,,,,
0,17,17,6,1,,60e911d8667eccfdd32a590e,62bbfb270e15271e2faad413,2022-06-29_19h12.13.607,Colour_Asymmetry_Pilot,2022.1.3,Win32,59.91970759,62bbe60bf3d75ef465d3e404,,,,,,,,,,,,,,,,,,,,,,,,,,,,,,,,,,,,,,,,,,,,,,,,,,,,,,,,,,,,,,,,,,,,,,,,,,,,,,,,,,,,,,,,,,,,,,,,,,,,,,,,,,,,,,,,,,,,,,,,,,,,,,,,,,,,,,,,,,,,,,,,,,,,,,,,,,,,,,
0,18,18,66,1,,60e911d8667eccfdd32a590e,62bbfb270e15271e2faad413,2022-06-29_19h12.13.607,Colour_Asymmetry_Pilot,2022.1.3,Win32,59.91970759,62bbe60bf3d75ef465d3e404,,,,,,,,,,,,,,,,,,,,,,,,,,,,,,,,,,,,,,,,,,,,,,,,,,,,,,,,,,,,,,,,,,,,,,,,,,,,,,,,,,,,,,,,,,,,,,,,,,,,,,,,,,,,,,,,,,,,,,,,,,,,,,,,,,,,,,,,,,,,,,,,,,,,,,,,,,,,,,
0,19,19,70,1,,60e911d8667eccfdd32a590e,62bbfb270e15271e2faad413,2022-06-29_19h12.13.607,Colour_Asymmetry_Pilot,2022.1.3,Win32,59.91970759,62bbe60bf3d75ef465d3e404,,,,,,,,,,,,,,,,,,,,,,,,,,,,,,,,,,,,,,,,,,,,,,,,,,,,,,,,,,,,,,,,,,,,,,,,,,,,,,,,,,,,,,,,,,,,,,,,,,,,,,,,,,,,,,,,,,,,,,,,,,,,,,,,,,,,,,,,,,,,,,,,,,,,,,,,,,,,,,
0,20,20,55,1,,60e911d8667eccfdd32a590e,62bbfb270e15271e2faad413,2022-06-29_19h12.13.607,Colour_Asymmetry_Pilot,2022.1.3,Win32,59.91970759,62bbe60bf3d75ef465d3e404,,,,,,,,,,,,,,,,,,,,,,,,,,,,,,,,,,,,,,,,,,,,,,,,,,,,,,,,,,,,,,,,,,,,,,,,,,,,,,,,,,,,,,,,,,,,,,,,,,,,,,,,,,,,,,,,,,,,,,,,,,,,,,,,,,,,,,,,,,,,,,,,,,,,,,,,,,,,,,
0,21,21,71,1,,60e911d8667eccfdd32a590e,62bbfb270e15271e2faad413,2022-06-29_19h12.13.607,Colour_Asymmetry_Pilot,2022.1.3,Win32,59.91970759,62bbe60bf3d75ef465d3e404,,,,,,,,,,,,,,,,,,,,,,,,,,,,,,,,,,,,,,,,,,,,,,,,,,,,,,,,,,,,,,,,,,,,,,,,,,,,,,,,,,,,,,,,,,,,,,,,,,,,,,,,,,,,,,,,,,,,,,,,,,,,,,,,,,,,,,,,,,,,,,,,,,,,,,,,,,,,,,
0,22,22,92,1,,60e911d8667eccfdd32a590e,62bbfb270e15271e2faad413,2022-06-29_19h12.13.607,Colour_Asymmetry_Pilot,2022.1.3,Win32,59.91970759,62bbe60bf3d75ef465d3e404,,,,,,,,,,,,,,,,,,,,,,,,,,,,,,,,,,,,,,,,,,,,,,,,,,,,,,,,,,,,,,,,,,,,,,,,,,,,,,,,,,,,,,,,,,,,,,,,,,,,,,,,,,,,,,,,,,,,,,,,,,,,,,,,,,,,,,,,,,,,,,,,,,,,,,,,,,,,,,
0,23,23,51,1,,60e911d8667eccfdd32a590e,62bbfb270e15271e2faad413,2022-06-29_19h12.13.607,Colour_Asymmetry_Pilot,2022.1.3,Win32,59.91970759,62bbe60bf3d75ef465d3e404,,,,,,,,,,,,,,,,,,,,,,,,,,,,,,,,,,,,,,,,,,,,,,,,,,,,,,,,,,,,,,,,,,,,,,,,,,,,,,,,,,,,,,,,,,,,,,,,,,,,,,,,,,,,,,,,,,,,,,,,,,,,,,,,,,,,,,,,,,,,,,,,,,,,,,,,,,,,,,
0,24,24,25,1,,60e911d8667eccfdd32a590e,62bbfb270e15271e2faad413,2022-06-29_19h12.13.607,Colour_Asymmetry_Pilot,2022.1.3,Win32,59.91970759,62bbe60bf3d75ef465d3e404,,,,,,,,,,,,,,,,,,,,,,,,,,,,,,,,,,,,,,,,,,,,,,,,,,,,,,,,,,,,,,,,,,,,,,,,,,,,,,,,,,,,,,,,,,,,,,,,,,,,,,,,,,,,,,,,,,,,,,,,,,,,,,,,,,,,,,,,,,,,,,,,,,,,,,,,,,,,,,
0,25,25,65,1,,60e911d8667eccfdd32a590e,62bbfb270e15271e2faad413,2022-06-29_19h12.13.607,Colour_Asymmetry_Pilot,2022.1.3,Win32,59.91970759,62bbe60bf3d75ef465d3e404,,,,,,,,,,,,,,,,,,,,,,,,,,,,,,,,,,,,,,,,,,,,,,,,,,,,,,,,,,,,,,,,,,,,,,,,,,,,,,,,,,,,,,,,,,,,,,,,,,,,,,,,,,,,,,,,,,,,,,,,,,,,,,,,,,,,,,,,,,,,,,,,,,,,,,,,,,,,,,
0,26,26,60,1,,60e911d8667eccfdd32a590e,62bbfb270e15271e2faad413,2022-06-29_19h12.13.607,Colour_Asymmetry_Pilot,2022.1.3,Win32,59.91970759,62bbe60bf3d75ef465d3e404,,,,,,,,,,,,,,,,,,,,,,,,,,,,,,,,,,,,,,,,,,,,,,,,,,,,,,,,,,,,,,,,,,,,,,,,,,,,,,,,,,,,,,,,,,,,,,,,,,,,,,,,,,,,,,,,,,,,,,,,,,,,,,,,,,,,,,,,,,,,,,,,,,,,,,,,,,,,,,
0,27,27,75,1,,60e911d8667eccfdd32a590e,62bbfb270e15271e2faad413,2022-06-29_19h12.13.607,Colour_Asymmetry_Pilot,2022.1.3,Win32,59.91970759,62bbe60bf3d75ef465d3e404,,,,,,,,,,,,,,,,,,,,,,,,,,,,,,,,,,,,,,,,,,,,,,,,,,,,,,,,,,,,,,,,,,,,,,,,,,,,,,,,,,,,,,,,,,,,,,,,,,,,,,,,,,,,,,,,,,,,,,,,,,,,,,,,,,,,,,,,,,,,,,,,,,,,,,,,,,,,,,
0,28,28,67,1,,60e911d8667eccfdd32a590e,62bbfb270e15271e2faad413,2022-06-29_19h12.13.607,Colour_Asymmetry_Pilot,2022.1.3,Win32,59.91970759,62bbe60bf3d75ef465d3e404,,,,,,,,,,,,,,,,,,,,,,,,,,,,,,,,,,,,,,,,,,,,,,,,,,,,,,,,,,,,,,,,,,,,,,,,,,,,,,,,,,,,,,,,,,,,,,,,,,,,,,,,,,,,,,,,,,,,,,,,,,,,,,,,,,,,,,,,,,,,,,,,,,,,,,,,,,,,,,
0,29,29,14,1,,60e911d8667eccfdd32a590e,62bbfb270e15271e2faad413,2022-06-29_19h12.13.607,Colour_Asymmetry_Pilot,2022.1.3,Win32,59.91970759,62bbe60bf3d75ef465d3e404,,,,,,,,,,,,,,,,,,,,,,,,,,,,,,,,,,,,,,,,,,,,,,,,,,,,,,,,,,,,,,,,,,,,,,,,,,,,,,,,,,,,,,,,,,,,,,,,,,,,,,,,,,,,,,,,,,,,,,,,,,,,,,,,,,,,,,,,,,,,,,,,,,,,,,,,,,,,,,
0,30,30,28,1,,60e911d8667eccfdd32a590e,62bbfb270e15271e2faad413,2022-06-29_19h12.13.607,Colour_Asymmetry_Pilot,2022.1.3,Win32,59.91970759,62bbe60bf3d75ef465d3e404,,,,,,,,,,,,,,,,,,,,,,,,,,,,,,,,,,,,,,,,,,,,,,,,,,,,,,,,,,,,,,,,,,,,,,,,,,,,,,,,,,,,,,,,,,,,,,,,,,,,,,,,,,,,,,,,,,,,,,,,,,,,,,,,,,,,,,,,,,,,,,,,,,,,,,,,,,,,,,
0,31,31,54,1,,60e911d8667eccfdd32a590e,62bbfb270e15271e2faad413,2022-06-29_19h12.13.607,Colour_Asymmetry_Pilot,2022.1.3,Win32,59.91970759,62bbe60bf3d75ef465d3e404,,,,,,,,,,,,,,,,,,,,,,,,,,,,,,,,,,,,,,,,,,,,,,,,,,,,,,,,,,,,,,,,,,,,,,,,,,,,,,,,,,,,,,,,,,,,,,,,,,,,,,,,,,,,,,,,,,,,,,,,,,,,,,,,,,,,,,,,,,,,,,,,,,,,,,,,,,,,,,
0,32,32,44,1,,60e911d8667eccfdd32a590e,62bbfb270e15271e2faad413,2022-06-29_19h12.13.607,Colour_Asymmetry_Pilot,2022.1.3,Win32,59.91970759,62bbe60bf3d75ef465d3e404,,,,,,,,,,,,,,,,,,,,,,,,,,,,,,,,,,,,,,,,,,,,,,,,,,,,,,,,,,,,,,,,,,,,,,,,,,,,,,,,,,,,,,,,,,,,,,,,,,,,,,,,,,,,,,,,,,,,,,,,,,,,,,,,,,,,,,,,,,,,,,,,,,,,,,,,,,,,,,
0,33,33,77,1,,60e911d8667eccfdd32a590e,62bbfb270e15271e2faad413,2022-06-29_19h12.13.607,Colour_Asymmetry_Pilot,2022.1.3,Win32,59.91970759,62bbe60bf3d75ef465d3e404,,,,,,,,,,,,,,,,,,,,,,,,,,,,,,,,,,,,,,,,,,,,,,,,,,,,,,,,,,,,,,,,,,,,,,,,,,,,,,,,,,,,,,,,,,,,,,,,,,,,,,,,,,,,,,,,,,,,,,,,,,,,,,,,,,,,,,,,,,,,,,,,,,,,,,,,,,,,,,
0,34,34,5,1,,60e911d8667eccfdd32a590e,62bbfb270e15271e2faad413,2022-06-29_19h12.13.607,Colour_Asymmetry_Pilot,2022.1.3,Win32,59.91970759,62bbe60bf3d75ef465d3e404,,,,,,,,,,,,,,,,,,,,,,,,,,,,,,,,,,,,,,,,,,,,,,,,,,,,,,,,,,,,,,,,,,,,,,,,,,,,,,,,,,,,,,,,,,,,,,,,,,,,,,,,,,,,,,,,,,,,,,,,,,,,,,,,,,,,,,,,,,,,,,,,,,,,,,,,,,,,,,
0,35,35,20,1,,60e911d8667eccfdd32a590e,62bbfb270e15271e2faad413,2022-06-29_19h12.13.607,Colour_Asymmetry_Pilot,2022.1.3,Win32,59.91970759,62bbe60bf3d75ef465d3e404,,,,,,,,,,,,,,,,,,,,,,,,,,,,,,,,,,,,,,,,,,,,,,,,,,,,,,,,,,,,,,,,,,,,,,,,,,,,,,,,,,,,,,,,,,,,,,,,,,,,,,,,,,,,,,,,,,,,,,,,,,,,,,,,,,,,,,,,,,,,,,,,,,,,,,,,,,,,,,
0,36,36,18,1,,60e911d8667eccfdd32a590e,62bbfb270e15271e2faad413,2022-06-29_19h12.13.607,Colour_Asymmetry_Pilot,2022.1.3,Win32,59.91970759,62bbe60bf3d75ef465d3e404,,,,,,,,,,,,,,,,,,,,,,,,,,,,,,,,,,,,,,,,,,,,,,,,,,,,,,,,,,,,,,,,,,,,,,,,,,,,,,,,,,,,,,,,,,,,,,,,,,,,,,,,,,,,,,,,,,,,,,,,,,,,,,,,,,,,,,,,,,,,,,,,,,,,,,,,,,,,,,
0,37,37,61,1,,60e911d8667eccfdd32a590e,62bbfb270e15271e2faad413,2022-06-29_19h12.13.607,Colour_Asymmetry_Pilot,2022.1.3,Win32,59.91970759,62bbe60bf3d75ef465d3e404,,,,,,,,,,,,,,,,,,,,,,,,,,,,,,,,,,,,,,,,,,,,,,,,,,,,,,,,,,,,,,,,,,,,,,,,,,,,,,,,,,,,,,,,,,,,,,,,,,,,,,,,,,,,,,,,,,,,,,,,,,,,,,,,,,,,,,,,,,,,,,,,,,,,,,,,,,,,,,
0,38,38,21,1,,60e911d8667eccfdd32a590e,62bbfb270e15271e2faad413,2022-06-29_19h12.13.607,Colour_Asymmetry_Pilot,2022.1.3,Win32,59.91970759,62bbe60bf3d75ef465d3e404,,,,,,,,,,,,,,,,,,,,,,,,,,,,,,,,,,,,,,,,,,,,,,,,,,,,,,,,,,,,,,,,,,,,,,,,,,,,,,,,,,,,,,,,,,,,,,,,,,,,,,,,,,,,,,,,,,,,,,,,,,,,,,,,,,,,,,,,,,,,,,,,,,,,,,,,,,,,,,
0,39,39,47,1,,60e911d8667eccfdd32a590e,62bbfb270e15271e2faad413,2022-06-29_19h12.13.607,Colour_Asymmetry_Pilot,2022.1.3,Win32,59.91970759,62bbe60bf3d75ef465d3e404,,,,,,,,,,,,,,,,,,,,,,,,,,,,,,,,,,,,,,,,,,,,,,,,,,,,,,,,,,,,,,,,,,,,,,,,,,,,,,,,,,,,,,,,,,,,,,,,,,,,,,,,,,,,,,,,,,,,,,,,,,,,,,,,,,,,,,,,,,,,,,,,,,,,,,,,,,,,,,
0,40,40,4,1,,60e911d8667eccfdd32a590e,62bbfb270e15271e2faad413,2022-06-29_19h12.13.607,Colour_Asymmetry_Pilot,2022.1.3,Win32,59.91970759,62bbe60bf3d75ef465d3e404,,,,,,,,,,,,,,,,,,,,,,,,,,,,,,,,,,,,,,,,,,,,,,,,,,,,,,,,,,,,,,,,,,,,,,,,,,,,,,,,,,,,,,,,,,,,,,,,,,,,,,,,,,,,,,,,,,,,,,,,,,,,,,,,,,,,,,,,,,,,,,,,,,,,,,,,,,,,,,
0,41,41,83,1,,60e911d8667eccfdd32a590e,62bbfb270e15271e2faad413,2022-06-29_19h12.13.607,Colour_Asymmetry_Pilot,2022.1.3,Win32,59.91970759,62bbe60bf3d75ef465d3e404,,,,,,,,,,,,,,,,,,,,,,,,,,,,,,,,,,,,,,,,,,,,,,,,,,,,,,,,,,,,,,,,,,,,,,,,,,,,,,,,,,,,,,,,,,,,,,,,,,,,,,,,,,,,,,,,,,,,,,,,,,,,,,,,,,,,,,,,,,,,,,,,,,,,,,,,,,,,,,
0,42,42,26,1,,60e911d8667eccfdd32a590e,62bbfb270e15271e2faad413,2022-06-29_19h12.13.607,Colour_Asymmetry_Pilot,2022.1.3,Win32,59.91970759,62bbe60bf3d75ef465d3e404,,,,,,,,,,,,,,,,,,,,,,,,,,,,,,,,,,,,,,,,,,,,,,,,,,,,,,,,,,,,,,,,,,,,,,,,,,,,,,,,,,,,,,,,,,,,,,,,,,,,,,,,,,,,,,,,,,,,,,,,,,,,,,,,,,,,,,,,,,,,,,,,,,,,,,,,,,,,,,
0,43,43,81,1,,60e911d8667eccfdd32a590e,62bbfb270e15271e2faad413,2022-06-29_19h12.13.607,Colour_Asymmetry_Pilot,2022.1.3,Win32,59.91970759,62bbe60bf3d75ef465d3e404,,,,,,,,,,,,,,,,,,,,,,,,,,,,,,,,,,,,,,,,,,,,,,,,,,,,,,,,,,,,,,,,,,,,,,,,,,,,,,,,,,,,,,,,,,,,,,,,,,,,,,,,,,,,,,,,,,,,,,,,,,,,,,,,,,,,,,,,,,,,,,,,,,,,,,,,,,,,,,
0,44,44,24,1,,60e911d8667eccfdd32a590e,62bbfb270e15271e2faad413,2022-06-29_19h12.13.607,Colour_Asymmetry_Pilot,2022.1.3,Win32,59.91970759,62bbe60bf3d75ef465d3e404,,,,,,,,,,,,,,,,,,,,,,,,,,,,,,,,,,,,,,,,,,,,,,,,,,,,,,,,,,,,,,,,,,,,,,,,,,,,,,,,,,,,,,,,,,,,,,,,,,,,,,,,,,,,,,,,,,,,,,,,,,,,,,,,,,,,,,,,,,,,,,,,,,,,,,,,,,,,,,
0,45,45,38,1,,60e911d8667eccfdd32a590e,62bbfb270e15271e2faad413,2022-06-29_19h12.13.607,Colour_Asymmetry_Pilot,2022.1.3,Win32,59.91970759,62bbe60bf3d75ef465d3e404,,,,,,,,,,,,,,,,,,,,,,,,,,,,,,,,,,,,,,,,,,,,,,,,,,,,,,,,,,,,,,,,,,,,,,,,,,,,,,,,,,,,,,,,,,,,,,,,,,,,,,,,,,,,,,,,,,,,,,,,,,,,,,,,,,,,,,,,,,,,,,,,,,,,,,,,,,,,,,
0,46,46,41,1,,60e911d8667eccfdd32a590e,62bbfb270e15271e2faad413,2022-06-29_19h12.13.607,Colour_Asymmetry_Pilot,2022.1.3,Win32,59.91970759,62bbe60bf3d75ef465d3e404,,,,,,,,,,,,,,,,,,,,,,,,,,,,,,,,,,,,,,,,,,,,,,,,,,,,,,,,,,,,,,,,,,,,,,,,,,,,,,,,,,,,,,,,,,,,,,,,,,,,,,,,,,,,,,,,,,,,,,,,,,,,,,,,,,,,,,,,,,,,,,,,,,,,,,,,,,,,,,
0,47,47,13,1,,60e911d8667eccfdd32a590e,62bbfb270e15271e2faad413,2022-06-29_19h12.13.607,Colour_Asymmetry_Pilot,2022.1.3,Win32,59.91970759,62bbe60bf3d75ef465d3e404,,,,,,,,,,,,,,,,,,,,,,,,,,,,,,,,,,,,,,,,,,,,,,,,,,,,,,,,,,,,,,,,,,,,,,,,,,,,,,,,,,,,,,,,,,,,,,,,,,,,,,,,,,,,,,,,,,,,,,,,,,,,,,,,,,,,,,,,,,,,,,,,,,,,,,,,,,,,,,
0,48,48,74,1,,60e911d8667eccfdd32a590e,62bbfb270e15271e2faad413,2022-06-29_19h12.13.607,Colour_Asymmetry_Pilot,2022.1.3,Win32,59.91970759,62bbe60bf3d75ef465d3e404,,,,,,,,,,,,,,,,,,,,,,,,,,,,,,,,,,,,,,,,,,,,,,,,,,,,,,,,,,,,,,,,,,,,,,,,,,,,,,,,,,,,,,,,,,,,,,,,,,,,,,,,,,,,,,,,,,,,,,,,,,,,,,,,,,,,,,,,,,,,,,,,,,,,,,,,,,,,,,
0,49,49,53,1,,60e911d8667eccfdd32a590e,62bbfb270e15271e2faad413,2022-06-29_19h12.13.607,Colour_Asymmetry_Pilot,2022.1.3,Win32,59.91970759,62bbe60bf3d75ef465d3e404,,,,,,,,,,,,,,,,,,,,,,,,,,,,,,,,,,,,,,,,,,,,,,,,,,,,,,,,,,,,,,,,,,,,,,,,,,,,,,,,,,,,,,,,,,,,,,,,,,,,,,,,,,,,,,,,,,,,,,,,,,,,,,,,,,,,,,,,,,,,,,,,,,,,,,,,,,,,,,
0,50,50,79,1,,60e911d8667eccfdd32a590e,62bbfb270e15271e2faad413,2022-06-29_19h12.13.607,Colour_Asymmetry_Pilot,2022.1.3,Win32,59.91970759,62bbe60bf3d75ef465d3e404,,,,,,,,,,,,,,,,,,,,,,,,,,,,,,,,,,,,,,,,,,,,,,,,,,,,,,,,,,,,,,,,,,,,,,,,,,,,,,,,,,,,,,,,,,,,,,,,,,,,,,,,,,,,,,,,,,,,,,,,,,,,,,,,,,,,,,,,,,,,,,,,,,,,,,,,,,,,,,
0,51,51,34,1,,60e911d8667eccfdd32a590e,62bbfb270e15271e2faad413,2022-06-29_19h12.13.607,Colour_Asymmetry_Pilot,2022.1.3,Win32,59.91970759,62bbe60bf3d75ef465d3e404,,,,,,,,,,,,,,,,,,,,,,,,,,,,,,,,,,,,,,,,,,,,,,,,,,,,,,,,,,,,,,,,,,,,,,,,,,,,,,,,,,,,,,,,,,,,,,,,,,,,,,,,,,,,,,,,,,,,,,,,,,,,,,,,,,,,,,,,,,,,,,,,,,,,,,,,,,,,,,
0,52,52,87,1,,60e911d8667eccfdd32a590e,62bbfb270e15271e2faad413,2022-06-29_19h12.13.607,Colour_Asymmetry_Pilot,2022.1.3,Win32,59.91970759,62bbe60bf3d75ef465d3e404,,,,,,,,,,,,,,,,,,,,,,,,,,,,,,,,,,,,,,,,,,,,,,,,,,,,,,,,,,,,,,,,,,,,,,,,,,,,,,,,,,,,,,,,,,,,,,,,,,,,,,,,,,,,,,,,,,,,,,,,,,,,,,,,,,,,,,,,,,,,,,,,,,,,,,,,,,,,,,
0,53,53,17,1,,60e911d8667eccfdd32a590e,62bbfb270e15271e2faad413,2022-06-29_19h12.13.607,Colour_Asymmetry_Pilot,2022.1.3,Win32,59.91970759,62bbe60bf3d75ef465d3e404,,,,,,,,,,,,,,,,,,,,,,,,,,,,,,,,,,,,,,,,,,,,,,,,,,,,,,,,,,,,,,,,,,,,,,,,,,,,,,,,,,,,,,,,,,,,,,,,,,,,,,,,,,,,,,,,,,,,,,,,,,,,,,,,,,,,,,,,,,,,,,,,,,,,,,,,,,,,,,
0,54,54,31,1,,60e911d8667eccfdd32a590e,62bbfb270e15271e2faad413,2022-06-29_19h12.13.607,Colour_Asymmetry_Pilot,2022.1.3,Win32,59.91970759,62bbe60bf3d75ef465d3e404,,,,,,,,,,,,,,,,,,,,,,,,,,,,,,,,,,,,,,,,,,,,,,,,,,,,,,,,,,,,,,,,,,,,,,,,,,,,,,,,,,,,,,,,,,,,,,,,,,,,,,,,,,,,,,,,,,,,,,,,,,,,,,,,,,,,,,,,,,,,,,,,,,,,,,,,,,,,,,
0,55,55,16,1,,60e911d8667eccfdd32a590e,62bbfb270e15271e2faad413,2022-06-29_19h12.13.607,Colour_Asymmetry_Pilot,2022.1.3,Win32,59.91970759,62bbe60bf3d75ef465d3e404,,,,,,,,,,,,,,,,,,,,,,,,,,,,,,,,,,,,,,,,,,,,,,,,,,,,,,,,,,,,,,,,,,,,,,,,,,,,,,,,,,,,,,,,,,,,,,,,,,,,,,,,,,,,,,,,,,,,,,,,,,,,,,,,,,,,,,,,,,,,,,,,,,,,,,,,,,,,,,
0,56,56,63,1,,60e911d8667eccfdd32a590e,62bbfb270e15271e2faad413,2022-06-29_19h12.13.607,Colour_Asymmetry_Pilot,2022.1.3,Win32,59.91970759,62bbe60bf3d75ef465d3e404,,,,,,,,,,,,,,,,,,,,,,,,,,,,,,,,,,,,,,,,,,,,,,,,,,,,,,,,,,,,,,,,,,,,,,,,,,,,,,,,,,,,,,,,,,,,,,,,,,,,,,,,,,,,,,,,,,,,,,,,,,,,,,,,,,,,,,,,,,,,,,,,,,,,,,,,,,,,,,
0,57,57,29,1,,60e911d8667eccfdd32a590e,62bbfb270e15271e2faad413,2022-06-29_19h12.13.607,Colour_Asymmetry_Pilot,2022.1.3,Win32,59.91970759,62bbe60bf3d75ef465d3e404,,,,,,,,,,,,,,,,,,,,,,,,,,,,,,,,,,,,,,,,,,,,,,,,,,,,,,,,,,,,,,,,,,,,,,,,,,,,,,,,,,,,,,,,,,,,,,,,,,,,,,,,,,,,,,,,,,,,,,,,,,,,,,,,,,,,,,,,,,,,,,,,,,,,,,,,,,,,,,
0,58,58,49,1,,60e911d8667eccfdd32a590e,62bbfb270e15271e2faad413,2022-06-29_19h12.13.607,Colour_Asymmetry_Pilot,2022.1.3,Win32,59.91970759,62bbe60bf3d75ef465d3e404,,,,,,,,,,,,,,,,,,,,,,,,,,,,,,,,,,,,,,,,,,,,,,,,,,,,,,,,,,,,,,,,,,,,,,,,,,,,,,,,,,,,,,,,,,,,,,,,,,,,,,,,,,,,,,,,,,,,,,,,,,,,,,,,,,,,,,,,,,,,,,,,,,,,,,,,,,,,,,
0,59,59,52,1,,60e911d8667eccfdd32a590e,62bbfb270e15271e2faad413,2022-06-29_19h12.13.607,Colour_Asymmetry_Pilot,2022.1.3,Win32,59.91970759,62bbe60bf3d75ef465d3e404,,,,,,,,,,,,,,,,,,,,,,,,,,,,,,,,,,,,,,,,,,,,,,,,,,,,,,,,,,,,,,,,,,,,,,,,,,,,,,,,,,,,,,,,,,,,,,,,,,,,,,,,,,,,,,,,,,,,,,,,,,,,,,,,,,,,,,,,,,,,,,,,,,,,,,,,,,,,,,
0,60,60,32,1,,60e911d8667eccfdd32a590e,62bbfb270e15271e2faad413,2022-06-29_19h12.13.607,Colour_Asymmetry_Pilot,2022.1.3,Win32,59.91970759,62bbe60bf3d75ef465d3e404,,,,,,,,,,,,,,,,,,,,,,,,,,,,,,,,,,,,,,,,,,,,,,,,,,,,,,,,,,,,,,,,,,,,,,,,,,,,,,,,,,,,,,,,,,,,,,,,,,,,,,,,,,,,,,,,,,,,,,,,,,,,,,,,,,,,,,,,,,,,,,,,,,,,,,,,,,,,,,
0,61,61,73,1,,60e911d8667eccfdd32a590e,62bbfb270e15271e2faad413,2022-06-29_19h12.13.607,Colour_Asymmetry_Pilot,2022.1.3,Win32,59.91970759,62bbe60bf3d75ef465d3e404,,,,,,,,,,,,,,,,,,,,,,,,,,,,,,,,,,,,,,,,,,,,,,,,,,,,,,,,,,,,,,,,,,,,,,,,,,,,,,,,,,,,,,,,,,,,,,,,,,,,,,,,,,,,,,,,,,,,,,,,,,,,,,,,,,,,,,,,,,,,,,,,,,,,,,,,,,,,,,
0,62,62,11,1,,60e911d8667eccfdd32a590e,62bbfb270e15271e2faad413,2022-06-29_19h12.13.607,Colour_Asymmetry_Pilot,2022.1.3,Win32,59.91970759,62bbe60bf3d75ef465d3e404,,,,,,,,,,,,,,,,,,,,,,,,,,,,,,,,,,,,,,,,,,,,,,,,,,,,,,,,,,,,,,,,,,,,,,,,,,,,,,,,,,,,,,,,,,,,,,,,,,,,,,,,,,,,,,,,,,,,,,,,,,,,,,,,,,,,,,,,,,,,,,,,,,,,,,,,,,,,,,
0,63,63,2,1,,60e911d8667eccfdd32a590e,62bbfb270e15271e2faad413,2022-06-29_19h12.13.607,Colour_Asymmetry_Pilot,2022.1.3,Win32,59.91970759,62bbe60bf3d75ef465d3e404,,,,,,,,,,,,,,,,,,,,,,,,,,,,,,,,,,,,,,,,,,,,,,,,,,,,,,,,,,,,,,,,,,,,,,,,,,,,,,,,,,,,,,,,,,,,,,,,,,,,,,,,,,,,,,,,,,,,,,,,,,,,,,,,,,,,,,,,,,,,,,,,,,,,,,,,,,,,,,
0,64,64,22,1,,60e911d8667eccfdd32a590e,62bbfb270e15271e2faad413,2022-06-29_19h12.13.607,Colour_Asymmetry_Pilot,2022.1.3,Win32,59.91970759,62bbe60bf3d75ef465d3e404,,,,,,,,,,,,,,,,,,,,,,,,,,,,,,,,,,,,,,,,,,,,,,,,,,,,,,,,,,,,,,,,,,,,,,,,,,,,,,,,,,,,,,,,,,,,,,,,,,,,,,,,,,,,,,,,,,,,,,,,,,,,,,,,,,,,,,,,,,,,,,,,,,,,,,,,,,,,,,
0,65,65,85,1,,60e911d8667eccfdd32a590e,62bbfb270e15271e2faad413,2022-06-29_19h12.13.607,Colour_Asymmetry_Pilot,2022.1.3,Win32,59.91970759,62bbe60bf3d75ef465d3e404,,,,,,,,,,,,,,,,,,,,,,,,,,,,,,,,,,,,,,,,,,,,,,,,,,,,,,,,,,,,,,,,,,,,,,,,,,,,,,,,,,,,,,,,,,,,,,,,,,,,,,,,,,,,,,,,,,,,,,,,,,,,,,,,,,,,,,,,,,,,,,,,,,,,,,,,,,,,,,
0,66,66,39,1,,60e911d8667eccfdd32a590e,62bbfb270e15271e2faad413,2022-06-29_19h12.13.607,Colour_Asymmetry_Pilot,2022.1.3,Win32,59.91970759,62bbe60bf3d75ef465d3e404,,,,,,,,,,,,,,,,,,,,,,,,,,,,,,,,,,,,,,,,,,,,,,,,,,,,,,,,,,,,,,,,,,,,,,,,,,,,,,,,,,,,,,,,,,,,,,,,,,,,,,,,,,,,,,,,,,,,,,,,,,,,,,,,,,,,,,,,,,,,,,,,,,,,,,,,,,,,,,
0,67,67,72,1,,60e911d8667eccfdd32a590e,62bbfb270e15271e2faad413,2022-06-29_19h12.13.607,Colour_Asymmetry_Pilot,2022.1.3,Win32,59.91970759,62bbe60bf3d75ef465d3e404,,,,,,,,,,,,,,,,,,,,,,,,,,,,,,,,,,,,,,,,,,,,,,,,,,,,,,,,,,,,,,,,,,,,,,,,,,,,,,,,,,,,,,,,,,,,,,,,,,,,,,,,,,,,,,,,,,,,,,,,,,,,,,,,,,,,,,,,,,,,,,,,,,,,,,,,,,,,,,
0,68,68,64,1,,60e911d8667eccfdd32a590e,62bbfb270e15271e2faad413,2022-06-29_19h12.13.607,Colour_Asymmetry_Pilot,2022.1.3,Win32,59.91970759,62bbe60bf3d75ef465d3e404,,,,,,,,,,,,,,,,,,,,,,,,,,,,,,,,,,,,,,,,,,,,,,,,,,,,,,,,,,,,,,,,,,,,,,,,,,,,,,,,,,,,,,,,,,,,,,,,,,,,,,,,,,,,,,,,,,,,,,,,,,,,,,,,,,,,,,,,,,,,,,,,,,,,,,,,,,,,,,
0,69,69,35,1,,60e911d8667eccfdd32a590e,62bbfb270e15271e2faad413,2022-06-29_19h12.13.607,Colour_Asymmetry_Pilot,2022.1.3,Win32,59.91970759,62bbe60bf3d75ef465d3e404,,,,,,,,,,,,,,,,,,,,,,,,,,,,,,,,,,,,,,,,,,,,,,,,,,,,,,,,,,,,,,,,,,,,,,,,,,,,,,,,,,,,,,,,,,,,,,,,,,,,,,,,,,,,,,,,,,,,,,,,,,,,,,,,,,,,,,,,,,,,,,,,,,,,,,,,,,,,,,
0,70,70,23,1,,60e911d8667eccfdd32a590e,62bbfb270e15271e2faad413,2022-06-29_19h12.13.607,Colour_Asymmetry_Pilot,2022.1.3,Win32,59.91970759,62bbe60bf3d75ef465d3e404,,,,,,,,,,,,,,,,,,,,,,,,,,,,,,,,,,,,,,,,,,,,,,,,,,,,,,,,,,,,,,,,,,,,,,,,,,,,,,,,,,,,,,,,,,,,,,,,,,,,,,,,,,,,,,,,,,,,,,,,,,,,,,,,,,,,,,,,,,,,,,,,,,,,,,,,,,,,,,
0,71,71,59,1,,60e911d8667eccfdd32a590e,62bbfb270e15271e2faad413,2022-06-29_19h12.13.607,Colour_Asymmetry_Pilot,2022.1.3,Win32,59.91970759,62bbe60bf3d75ef465d3e404,,,,,,,,,,,,,,,,,,,,,,,,,,,,,,,,,,,,,,,,,,,,,,,,,,,,,,,,,,,,,,,,,,,,,,,,,,,,,,,,,,,,,,,,,,,,,,,,,,,,,,,,,,,,,,,,,,,,,,,,,,,,,,,,,,,,,,,,,,,,,,,,,,,,,,,,,,,,,,
0,72,72,45,1,,60e911d8667eccfdd32a590e,62bbfb270e15271e2faad413,2022-06-29_19h12.13.607,Colour_Asymmetry_Pilot,2022.1.3,Win32,59.91970759,62bbe60bf3d75ef465d3e404,,,,,,,,,,,,,,,,,,,,,,,,,,,,,,,,,,,,,,,,,,,,,,,,,,,,,,,,,,,,,,,,,,,,,,,,,,,,,,,,,,,,,,,,,,,,,,,,,,,,,,,,,,,,,,,,,,,,,,,,,,,,,,,,,,,,,,,,,,,,,,,,,,,,,,,,,,,,,,
0,73,73,58,1,,60e911d8667eccfdd32a590e,62bbfb270e15271e2faad413,2022-06-29_19h12.13.607,Colour_Asymmetry_Pilot,2022.1.3,Win32,59.91970759,62bbe60bf3d75ef465d3e404,,,,,,,,,,,,,,,,,,,,,,,,,,,,,,,,,,,,,,,,,,,,,,,,,,,,,,,,,,,,,,,,,,,,,,,,,,,,,,,,,,,,,,,,,,,,,,,,,,,,,,,,,,,,,,,,,,,,,,,,,,,,,,,,,,,,,,,,,,,,,,,,,,,,,,,,,,,,,,
0,74,74,46,1,,60e911d8667eccfdd32a590e,62bbfb270e15271e2faad413,2022-06-29_19h12.13.607,Colour_Asymmetry_Pilot,2022.1.3,Win32,59.91970759,62bbe60bf3d75ef465d3e404,,,,,,,,,,,,,,,,,,,,,,,,,,,,,,,,,,,,,,,,,,,,,,,,,,,,,,,,,,,,,,,,,,,,,,,,,,,,,,,,,,,,,,,,,,,,,,,,,,,,,,,,,,,,,,,,,,,,,,,,,,,,,,,,,,,,,,,,,,,,,,,,,,,,,,,,,,,,,,
0,75,75,90,1,,60e911d8667eccfdd32a590e,62bbfb270e15271e2faad413,2022-06-29_19h12.13.607,Colour_Asymmetry_Pilot,2022.1.3,Win32,59.91970759,62bbe60bf3d75ef465d3e404,,,,,,,,,,,,,,,,,,,,,,,,,,,,,,,,,,,,,,,,,,,,,,,,,,,,,,,,,,,,,,,,,,,,,,,,,,,,,,,,,,,,,,,,,,,,,,,,,,,,,,,,,,,,,,,,,,,,,,,,,,,,,,,,,,,,,,,,,,,,,,,,,,,,,,,,,,,,,,
0,76,76,9,1,,60e911d8667eccfdd32a590e,62bbfb270e15271e2faad413,2022-06-29_19h12.13.607,Colour_Asymmetry_Pilot,2022.1.3,Win32,59.91970759,62bbe60bf3d75ef465d3e404,,,,,,,,,,,,,,,,,,,,,,,,,,,,,,,,,,,,,,,,,,,,,,,,,,,,,,,,,,,,,,,,,,,,,,,,,,,,,,,,,,,,,,,,,,,,,,,,,,,,,,,,,,,,,,,,,,,,,,,,,,,,,,,,,,,,,,,,,,,,,,,,,,,,,,,,,,,,,,
0,77,77,80,1,,60e911d8667eccfdd32a590e,62bbfb270e15271e2faad413,2022-06-29_19h12.13.607,Colour_Asymmetry_Pilot,2022.1.3,Win32,59.91970759,62bbe60bf3d75ef465d3e404,,,,,,,,,,,,,,,,,,,,,,,,,,,,,,,,,,,,,,,,,,,,,,,,,,,,,,,,,,,,,,,,,,,,,,,,,,,,,,,,,,,,,,,,,,,,,,,,,,,,,,,,,,,,,,,,,,,,,,,,,,,,,,,,,,,,,,,,,,,,,,,,,,,,,,,,,,,,,,
0,78,78,89,1,,60e911d8667eccfdd32a590e,62bbfb270e15271e2faad413,2022-06-29_19h12.13.607,Colour_Asymmetry_Pilot,2022.1.3,Win32,59.91970759,62bbe60bf3d75ef465d3e404,,,,,,,,,,,,,,,,,,,,,,,,,,,,,,,,,,,,,,,,,,,,,,,,,,,,,,,,,,,,,,,,,,,,,,,,,,,,,,,,,,,,,,,,,,,,,,,,,,,,,,,,,,,,,,,,,,,,,,,,,,,,,,,,,,,,,,,,,,,,,,,,,,,,,,,,,,,,,,
0,79,79,10,1,,60e911d8667eccfdd32a590e,62bbfb270e15271e2faad413,2022-06-29_19h12.13.607,Colour_Asymmetry_Pilot,2022.1.3,Win32,59.91970759,62bbe60bf3d75ef465d3e404,,,,,,,,,,,,,,,,,,,,,,,,,,,,,,,,,,,,,,,,,,,,,,,,,,,,,,,,,,,,,,,,,,,,,,,,,,,,,,,,,,,,,,,,,,,,,,,,,,,,,,,,,,,,,,,,,,,,,,,,,,,,,,,,,,,,,,,,,,,,,,,,,,,,,,,,,,,,,,
0,80,80,36,1,,60e911d8667eccfdd32a590e,62bbfb270e15271e2faad413,2022-06-29_19h12.13.607,Colour_Asymmetry_Pilot,2022.1.3,Win32,59.91970759,62bbe60bf3d75ef465d3e404,,,,,,,,,,,,,,,,,,,,,,,,,,,,,,,,,,,,,,,,,,,,,,,,,,,,,,,,,,,,,,,,,,,,,,,,,,,,,,,,,,,,,,,,,,,,,,,,,,,,,,,,,,,,,,,,,,,,,,,,,,,,,,,,,,,,,,,,,,,,,,,,,,,,,,,,,,,,,,
0,81,81,50,1,,60e911d8667eccfdd32a590e,62bbfb270e15271e2faad413,2022-06-29_19h12.13.607,Colour_Asymmetry_Pilot,2022.1.3,Win32,59.91970759,62bbe60bf3d75ef465d3e404,,,,,,,,,,,,,,,,,,,,,,,,,,,,,,,,,,,,,,,,,,,,,,,,,,,,,,,,,,,,,,,,,,,,,,,,,,,,,,,,,,,,,,,,,,,,,,,,,,,,,,,,,,,,,,,,,,,,,,,,,,,,,,,,,,,,,,,,,,,,,,,,,,,,,,,,,,,,,,
0,82,82,88,1,,60e911d8667eccfdd32a590e,62bbfb270e15271e2faad413,2022-06-29_19h12.13.607,Colour_Asymmetry_Pilot,2022.1.3,Win32,59.91970759,62bbe60bf3d75ef465d3e404,,,,,,,,,,,,,,,,,,,,,,,,,,,,,,,,,,,,,,,,,,,,,,,,,,,,,,,,,,,,,,,,,,,,,,,,,,,,,,,,,,,,,,,,,,,,,,,,,,,,,,,,,,,,,,,,,,,,,,,,,,,,,,,,,,,,,,,,,,,,,,,,,,,,,,,,,,,,,,
0,83,83,78,1,,60e911d8667eccfdd32a590e,62bbfb270e15271e2faad413,2022-06-29_19h12.13.607,Colour_Asymmetry_Pilot,2022.1.3,Win32,59.91970759,62bbe60bf3d75ef465d3e404,,,,,,,,,,,,,,,,,,,,,,,,,,,,,,,,,,,,,,,,,,,,,,,,,,,,,,,,,,,,,,,,,,,,,,,,,,,,,,,,,,,,,,,,,,,,,,,,,,,,,,,,,,,,,,,,,,,,,,,,,,,,,,,,,,,,,,,,,,,,,,,,,,,,,,,,,,,,,,
0,84,84,15,1,,60e911d8667eccfdd32a590e,62bbfb270e15271e2faad413,2022-06-29_19h12.13.607,Colour_Asymmetry_Pilot,2022.1.3,Win32,59.91970759,62bbe60bf3d75ef465d3e404,,,,,,,,,,,,,,,,,,,,,,,,,,,,,,,,,,,,,,,,,,,,,,,,,,,,,,,,,,,,,,,,,,,,,,,,,,,,,,,,,,,,,,,,,,,,,,,,,,,,,,,,,,,,,,,,,,,,,,,,,,,,,,,,,,,,,,,,,,,,,,,,,,,,,,,,,,,,,,
0,85,85,43,1,,60e911d8667eccfdd32a590e,62bbfb270e15271e2faad413,2022-06-29_19h12.13.607,Colour_Asymmetry_Pilot,2022.1.3,Win32,59.91970759,62bbe60bf3d75ef465d3e404,,,,,,,,,,,,,,,,,,,,,,,,,,,,,,,,,,,,,,,,,,,,,,,,,,,,,,,,,,,,,,,,,,,,,,,,,,,,,,,,,,,,,,,,,,,,,,,,,,,,,,,,,,,,,,,,,,,,,,,,,,,,,,,,,,,,,,,,,,,,,,,,,,,,,,,,,,,,,,
0,86,86,48,1,,60e911d8667eccfdd32a590e,62bbfb270e15271e2faad413,2022-06-29_19h12.13.607,Colour_Asymmetry_Pilot,2022.1.3,Win32,59.91970759,62bbe60bf3d75ef465d3e404,,,,,,,,,,,,,,,,,,,,,,,,,,,,,,,,,,,,,,,,,,,,,,,,,,,,,,,,,,,,,,,,,,,,,,,,,,,,,,,,,,,,,,,,,,,,,,,,,,,,,,,,,,,,,,,,,,,,,,,,,,,,,,,,,,,,,,,,,,,,,,,,,,,,,,,,,,,,,,
0,87,87,42,1,,60e911d8667eccfdd32a590e,62bbfb270e15271e2faad413,2022-06-29_19h12.13.607,Colour_Asymmetry_Pilot,2022.1.3,Win32,59.91970759,62bbe60bf3d75ef465d3e404,,,,,,,,,,,,,,,,,,,,,,,,,,,,,,,,,,,,,,,,,,,,,,,,,,,,,,,,,,,,,,,,,,,,,,,,,,,,,,,,,,,,,,,,,,,,,,,,,,,,,,,,,,,,,,,,,,,,,,,,,,,,,,,,,,,,,,,,,,,,,,,,,,,,,,,,,,,,,,
0,88,88,76,1,,60e911d8667eccfdd32a590e,62bbfb270e15271e2faad413,2022-06-29_19h12.13.607,Colour_Asymmetry_Pilot,2022.1.3,Win32,59.91970759,62bbe60bf3d75ef465d3e404,,,,,,,,,,,,,,,,,,,,,,,,,,,,,,,,,,,,,,,,,,,,,,,,,,,,,,,,,,,,,,,,,,,,,,,,,,,,,,,,,,,,,,,,,,,,,,,,,,,,,,,,,,,,,,,,,,,,,,,,,,,,,,,,,,,,,,,,,,,,,,,,,,,,,,,,,,,,,,
0,89,89,30,1,,60e911d8667eccfdd32a590e,62bbfb270e15271e2faad413,2022-06-29_19h12.13.607,Colour_Asymmetry_Pilot,2022.1.3,Win32,59.91970759,62bbe60bf3d75ef465d3e404,,,,,,,,,,,,,,,,,,,,,,,,,,,,,,,,,,,,,,,,,,,,,,,,,,,,,,,,,,,,,,,,,,,,,,,,,,,,,,,,,,,,,,,,,,,,,,,,,,,,,,,,,,,,,,,,,,,,,,,,,,,,,,,,,,,,,,,,,,,,,,,,,,,,,,,,,,,,,,
0,90,90,62,1,,60e911d8667eccfdd32a590e,62bbfb270e15271e2faad413,2022-06-29_19h12.13.607,Colour_Asymmetry_Pilot,2022.1.3,Win32,59.91970759,62bbe60bf3d75ef465d3e404,,,,,,,,,,,,,,,,,,,,,,,,,,,,,,,,,,,,,,,,,,,,,,,,,,,,,,,,,,,,,,,,,,,,,,,,,,,,,,,,,,,,,,,,,,,,,,,,,,,,,,,,,,,,,,,,,,,,,,,,,,,,,,,,,,,,,,,,,,,,,,,,,,,,,,,,,,,,,,
0,91,91,69,1,,60e911d8667eccfdd32a590e,62bbfb270e15271e2faad413,2022-06-29_19h12.13.607,Colour_Asymmetry_Pilot,2022.1.3,Win32,59.91970759,62bbe60bf3d75ef465d3e404,,,,,,,,,,,,,,,,,,,,,,,,,,,,,,,,,,,,,,,,,,,,,,,,,,,,,,,,,,,,,,,,,,,,,,,,,,,,,,,,,,,,,,,,,,,,,,,,,,,,,,,,,,,,,,,,,,,,,,,,,,,,,,,,,,,,,,,,,,,,,,,,,,,,,,,,,,,,,,
0,92,92,0,1,,60e911d8667eccfdd32a590e,62bbfb270e15271e2faad413,2022-06-29_19h12.13.607,Colour_Asymmetry_Pilot,2022.1.3,Win32,59.91970759,62bbe60bf3d75ef465d3e404,,,,,,,,,,,,,,,,,,,,,,,,,,,,,,,,,,,,,,,,,,,,,,,,,,,,,,,,,,,,,,,,,,,,,,,,,,,,,,,,,,,,,,,,,,,,,,,,,,,,,,,,,,,,,,,,,,,,,,,,,,,,,,,,,,,,,,,,,,,,,,,,,,,,,,,,,,,,,,
,,,,,,60e911d8667eccfdd32a590e,62bbfb270e15271e2faad413,2022-06-29_19h12.13.607,Colour_Asymmetry_Pilot,2022.1.3,Win32,59.91970759,62bbe60bf3d75ef465d3e404,0,0,0,77,1,threefour,,,,,,,,,,,,,,,,,,,,,,,,,,,,,,,,,,,,,,,,,,,,,,,,,,,,,,,,,,,,,,,,,,,,,,,,,,,,,,,,,,,,,,,,,,,,,,,,,,,,,,,,,,,,,,,,,,,,,,,,,,,,,,,,,,,,,,,,,,,,,,,,,,,,,,,,
,,,,,,60e911d8667eccfdd32a590e,62bbfb270e15271e2faad413,2022-06-29_19h12.13.607,Colour_Asymmetry_Pilot,2022.1.3,Win32,59.91970759,62bbe60bf3d75ef465d3e404,0,1,1,85,1,threefour,,,,,,,,,,,,,,,,,,,,,,,,,,,,,,,,,,,,,,,,,,,,,,,,,,,,,,,,,,,,,,,,,,,,,,,,,,,,,,,,,,,,,,,,,,,,,,,,,,,,,,,,,,,,,,,,,,,,,,,,,,,,,,,,,,,,,,,,,,,,,,,,,,,,,,,,
,,,,,,60e911d8667eccfdd32a590e,62bbfb270e15271e2faad413,2022-06-29_19h12.13.607,Colour_Asymmetry_Pilot,2022.1.3,Win32,59.91970759,62bbe60bf3d75ef465d3e404,0,2,2,40,1,onetwo,,,,,,,,,,,,,,,,,,,,,,,,,,,,,,,,,,,,,,,,,,,,,,,,,,,,,,,,,,,,,,,,,,,,,,,,,,,,,,,,,,,,,,,,,,,,,,,,,,,,,,,,,,,,,,,,,,,,,,,,,,,,,,,,,,,,,,,,,,,,,,,,,,,,,,,,
,,,,,,60e911d8667eccfdd32a590e,62bbfb270e15271e2faad413,2022-06-29_19h12.13.607,Colour_Asymmetry_Pilot,2022.1.3,Win32,59.91970759,62bbe60bf3d75ef465d3e404,0,3,3,100,1,threeone,,,,,,,,,,,,,,,,,,,,,,,,,,,,,,,,,,,,,,,,,,,,,,,,,,,,,,,,,,,,,,,,,,,,,,,,,,,,,,,,,,,,,,,,,,,,,,,,,,,,,,,,,,,,,,,,,,,,,,,,,,,,,,,,,,,,,,,,,,,,,,,,,,,,,,,,
,,,,,,60e911d8667eccfdd32a590e,62bbfb270e15271e2faad413,2022-06-29_19h12.13.607,Colour_Asymmetry_Pilot,2022.1.3,Win32,59.91970759,62bbe60bf3d75ef465d3e404,0,4,4,76,1,threeone,,,,,,,,,,,,,,,,,,,,,,,,,,,,,,,,,,,,,,,,,,,,,,,,,,,,,,,,,,,,,,,,,,,,,,,,,,,,,,,,,,,,,,,,,,,,,,,,,,,,,,,,,,,,,,,,,,,,,,,,,,,,,,,,,,,,,,,,,,,,,,,,,,,,,,,,
,,,,,,60e911d8667eccfdd32a590e,62bbfb270e15271e2faad413,2022-06-29_19h12.13.607,Colour_Asymmetry_Pilot,2022.1.3,Win32,59.91970759,62bbe60bf3d75ef465d3e404,0,5,5,101,1,threefour,,,,,,,,,,,,,,,,,,,,,,,,,,,,,,,,,,,,,,,,,,,,,,,,,,,,,,,,,,,,,,,,,,,,,,,,,,,,,,,,,,,,,,,,,,,,,,,,,,,,,,,,,,,,,,,,,,,,,,,,,,,,,,,,,,,,,,,,,,,,,,,,,,,,,,,,
,,,,,,60e911d8667eccfdd32a590e,62bbfb270e15271e2faad413,2022-06-29_19h12.13.607,Colour_Asymmetry_Pilot,2022.1.3,Win32,59.91970759,62bbe60bf3d75ef465d3e404,0,6,6,109,1,threefour,,,,,,,,,,,,,,,,,,,,,,,,,,,,,,,,,,,,,,,,,,,,,,,,,,,,,,,,,,,,,,,,,,,,,,,,,,,,,,,,,,,,,,,,,,,,,,,,,,,,,,,,,,,,,,,,,,,,,,,,,,,,,,,,,,,,,,,,,,,,,,,,,,,,,,,,
,,,,,,60e911d8667eccfdd32a590e,62bbfb270e15271e2faad413,2022-06-29_19h12.13.607,Colour_Asymmetry_Pilot,2022.1.3,Win32,59.91970759,62bbe60bf3d75ef465d3e404,0,7,7,1,1,onethree,,,,,,,,,,,,,,,,,,,,,,,,,,,,,,,,,,,,,,,,,,,,,,,,,,,,,,,,,,,,,,,,,,,,,,,,,,,,,,,,,,,,,,,,,,,,,,,,,,,,,,,,,,,,,,,,,,,,,,,,,,,,,,,,,,,,,,,,,,,,,,,,,,,,,,,,
,,,,,,60e911d8667eccfdd32a590e,62bbfb270e15271e2faad413,2022-06-29_19h12.13.607,Colour_Asymmetry_Pilot,2022.1.3,Win32,59.91970759,62bbe60bf3d75ef465d3e404,0,8,8,110,1,fourtwo,,,,,,,,,,,,,,,,,,,,,,,,,,,,,,,,,,,,,,,,,,,,,,,,,,,,,,,,,,,,,,,,,,,,,,,,,,,,,,,,,,,,,,,,,,,,,,,,,,,,,,,,,,,,,,,,,,,,,,,,,,,,,,,,,,,,,,,,,,,,,,,,,,,,,,,,
,,,,,,60e911d8667eccfdd32a590e,62bbfb270e15271e2faad413,2022-06-29_19h12.13.607,Colour_Asymmetry_Pilot,2022.1.3,Win32,59.91970759,62bbe60bf3d75ef465d3e404,0,9,9,72,1,onetwo,,,,,,,,,,,,,,,,,,,,,,,,,,,,,,,,,,,,,,,,,,,,,,,,,,,,,,,,,,,,,,,,,,,,,,,,,,,,,,,,,,,,,,,,,,,,,,,,,,,,,,,,,,,,,,,,,,,,,,,,,,,,,,,,,,,,,,,,,,,,,,,,,,,,,,,,
,,,,,,60e911d8667eccfdd32a590e,62bbfb270e15271e2faad413,2022-06-29_19h12.13.607,Colour_Asymmetry_Pilot,2022.1.3,Win32,59.91970759,62bbe60bf3d75ef465d3e404,0,10,10,148,1,threeone,,,,,,,,,,,,,,,,,,,,,,,,,,,,,,,,,,,,,,,,,,,,,,,,,,,,,,,,,,,,,,,,,,,,,,,,,,,,,,,,,,,,,,,,,,,,,,,,,,,,,,,,,,,,,,,,,,,,,,,,,,,,,,,,,,,,,,,,,,,,,,,,,,,,,,,,
,,,,,,60e911d8667eccfdd32a590e,62bbfb270e15271e2faad413,2022-06-29_19h12.13.607,Colour_Asymmetry_Pilot,2022.1.3,Win32,59.91970759,62bbe60bf3d75ef465d3e404,0,11,11,83,1,twofour,,,,,,,,,,,,,,,,,,,,,,,,,,,,,,,,,,,,,,,,,,,,,,,,,,,,,,,,,,,,,,,,,,,,,,,,,,,,,,,,,,,,,,,,,,,,,,,,,,,,,,,,,,,,,,,,,,,,,,,,,,,,,,,,,,,,,,,,,,,,,,,,,,,,,,,,
,,,,,,60e911d8667eccfdd32a590e,62bbfb270e15271e2faad413,2022-06-29_19h12.13.607,Colour_Asymmetry_Pilot,2022.1.3,Win32,59.91970759,62bbe60bf3d75ef465d3e404,0,12,12,48,1,onetwo,,,,,,,,,,,,,,,,,,,,,,,,,,,,,,,,,,,,,,,,,,,,,,,,,,,,,,,,,,,,,,,,,,,,,,,,,,,,,,,,,,,,,,,,,,,,,,,,,,,,,,,,,,,,,,,,,,,,,,,,,,,,,,,,,,,,,,,,,,,,,,,,,,,,,,,,
,,,,,,60e911d8667eccfdd32a590e,62bbfb270e15271e2faad413,2022-06-29_19h12.13.607,Colour_Asymmetry_Pilot,2022.1.3,Win32,59.91970759,62bbe60bf3d75ef465d3e404,0,13,13,128,1,onetwo,,,,,,,,,,,,,,,,,,,,,,,,,,,,,,,,,,,,,,,,,,,,,,,,,,,,,,,,,,,,,,,,,,,,,,,,,,,,,,,,,,,,,,,,,,,,,,,,,,,,,,,,,,,,,,,,,,,,,,,,,,,,,,,,,,,,,,,,,,,,,,,,,,,,,,,,
,,,,,,60e911d8667eccfdd32a590e,62bbfb270e15271e2faad413,2022-06-29_19h12.13.607,Colour_Asymmetry_Pilot,2022.1.3,Win32,59.91970759,62bbe60bf3d75ef465d3e404,0,14,14,43,1,twofour,,,,,,,,,,,,,,,,,,,,,,,,,,,,,,,,,,,,,,,,,,,,,,,,,,,,,,,,,,,,,,,,,,,,,,,,,,,,,,,,,,,,,,,,,,,,,,,,,,,,,,,,,,,,,,,,,,,,,,,,,,,,,,,,,,,,,,,,,,,,,,,,,,,,,,,,
,,,,,,60e911d8667eccfdd32a590e,62bbfb270e15271e2faad413,2022-06-29_19h12.13.607,Colour_Asymmetry_Pilot,2022.1.3,Win32,59.91970759,62bbe60bf3d75ef465d3e404,0,15,15,50,1,twoone,,,,,,,,,,,,,,,,,,,,,,,,,,,,,,,,,,,,,,,,,,,,,,,,,,,,,,,,,,,,,,,,,,,,,,,,,,,,,,,,,,,,,,,,,,,,,,,,,,,,,,,,,,,,,,,,,,,,,,,,,,,,,,,,,,,,,,,,,,,,,,,,,,,,,,,,
,,,,,,60e911d8667eccfdd32a590e,62bbfb270e15271e2faad413,2022-06-29_19h12.13.607,Colour_Asymmetry_Pilot,2022.1.3,Win32,59.91970759,62bbe60bf3d75ef465d3e404,0,16,16,104,1,onetwo,,,,,,,,,,,,,,,,,,,,,,,,,,,,,,,,,,,,,,,,,,,,,,,,,,,,,,,,,,,,,,,,,,,,,,,,,,,,,,,,,,,,,,,,,,,,,,,,,,,,,,,,,,,,,,,,,,,,,,,,,,,,,,,,,,,,,,,,,,,,,,,,,,,,,,,,
,,,,,,60e911d8667eccfdd32a590e,62bbfb270e15271e2faad413,2022-06-29_19h12.13.607,Colour_Asymmetry_Pilot,2022.1.3,Win32,59.91970759,62bbe60bf3d75ef465d3e404,0,17,17,73,1,onethree,,,,,,,,,,,,,,,,,,,,,,,,,,,,,,,,,,,,,,,,,,,,,,,,,,,,,,,,,,,,,,,,,,,,,,,,,,,,,,,,,,,,,,,,,,,,,,,,,,,,,,,,,,,,,,,,,,,,,,,,,,,,,,,,,,,,,,,,,,,,,,,,,,,,,,,,
,,,,,,60e911d8667eccfdd32a590e,62bbfb270e15271e2faad413,2022-06-29_19h12.13.607,Colour_Asymmetry_Pilot,2022.1.3,Win32,59.91970759,62bbe60bf3d75ef465d3e404,0,18,18,143,1,fourthree,,,,,,,,,,,,,,,,,,,,,,,,,,,,,,,,,,,,,,,,,,,,,,,,,,,,,,,,,,,,,,,,,,,,,,,,,,,,,,,,,,,,,,,,,,,,,,,,,,,,,,,,,,,,,,,,,,,,,,,,,,,,,,,,,,,,,,,,,,,,,,,,,,,,,,,,
,,,,,,60e911d8667eccfdd32a590e,62bbfb270e15271e2faad413,2022-06-29_19h12.13.607,Colour_Asymmetry_Pilot,2022.1.3,Win32,59.91970759,62bbe60bf3d75ef465d3e404,0,19,19,89,1,onethree,,,,,,,,,,,,,,,,,,,,,,,,,,,,,,,,,,,,,,,,,,,,,,,,,,,,,,,,,,,,,,,,,,,,,,,,,,,,,,,,,,,,,,,,,,,,,,,,,,,,,,,,,,,,,,,,,,,,,,,,,,,,,,,,,,,,,,,,,,,,,,,,,,,,,,,,
,,,,,,60e911d8667eccfdd32a590e,62bbfb270e15271e2faad413,2022-06-29_19h12.13.607,Colour_Asymmetry_Pilot,2022.1.3,Win32,59.91970759,62bbe60bf3d75ef465d3e404,0,20,20,139,1,twofour,,,,,,,,,,,,,,,,,,,,,,,,,,,,,,,,,,,,,,,,,,,,,,,,,,,,,,,,,,,,,,,,,,,,,,,,,,,,,,,,,,,,,,,,,,,,,,,,,,,,,,,,,,,,,,,,,,,,,,,,,,,,,,,,,,,,,,,,,,,,,,,,,,,,,,,,
,,,,,,60e911d8667eccfdd32a590e,62bbfb270e15271e2faad413,2022-06-29_19h12.13.607,Colour_Asymmetry_Pilot,2022.1.3,Win32,59.91970759,62bbe60bf3d75ef465d3e404,0,21,21,87,1,fourthree,,,,,,,,,,,,,,,,,,,,,,,,,,,,,,,,,,,,,,,,,,,,,,,,,,,,,,,,,,,,,,,,,,,,,,,,,,,,,,,,,,,,,,,,,,,,,,,,,,,,,,,,,,,,,,,,,,,,,,,,,,,,,,,,,,,,,,,,,,,,,,,,,,,,,,,,
,,,,,,60e911d8667eccfdd32a590e,62bbfb270e15271e2faad413,2022-06-29_19h12.13.607,Colour_Asymmetry_Pilot,2022.1.3,Win32,59.91970759,62bbe60bf3d75ef465d3e404,0,22,22,145,1,onethree,,,,,,,,,,,,,,,,,,,,,,,,,,,,,,,,,,,,,,,,,,,,,,,,,,,,,,,,,,,,,,,,,,,,,,,,,,,,,,,,,,,,,,,,,,,,,,,,,,,,,,,,,,,,,,,,,,,,,,,,,,,,,,,,,,,,,,,,,,,,,,,,,,,,,,,,
,,,,,,60e911d8667eccfdd32a590e,62bbfb270e15271e2faad413,2022-06-29_19h12.13.607,Colour_Asymmetry_Pilot,2022.1.3,Win32,59.91970759,62bbe60bf3d75ef465d3e404,0,23,23,88,1,onetwo,,,,,,,,,,,,,,,,,,,,,,,,,,,,,,,,,,,,,,,,,,,,,,,,,,,,,,,,,,,,,,,,,,,,,,,,,,,,,,,,,,,,,,,,,,,,,,,,,,,,,,,,,,,,,,,,,,,,,,,,,,,,,,,,,,,,,,,,,,,,,,,,,,,,,,,,
,,,,,,60e911d8667eccfdd32a590e,62bbfb270e15271e2faad413,2022-06-29_19h12.13.607,Colour_Asymmetry_Pilot,2022.1.3,Win32,59.91970759,62bbe60bf3d75ef465d3e404,0,24,24,30,1,fourtwo,,,,,,,,,,,,,,,,,,,,,,,,,,,,,,,,,,,,,,,,,,,,,,,,,,,,,,,,,,,,,,,,,,,,,,,,,,,,,,,,,,,,,,,,,,,,,,,,,,,,,,,,,,,,,,,,,,,,,,,,,,,,,,,,,,,,,,,,,,,,,,,,,,,,,,,,
,,,,,,60e911d8667eccfdd32a590e,62bbfb270e15271e2faad413,2022-06-29_19h12.13.607,Colour_Asymmetry_Pilot,2022.1.3,Win32,59.91970759,62bbe60bf3d75ef465d3e404,0,25,25,129,1,onethree,,,,,,,,,,,,,,,,,,,,,,,,,,,,,,,,,,,,,,,,,,,,,,,,,,,,,,,,,,,,,,,,,,,,,,,,,,,,,,,,,,,,,,,,,,,,,,,,,,,,,,,,,,,,,,,,,,,,,,,,,,,,,,,,,,,,,,,,,,,,,,,,,,,,,,,,
,,,,,,60e911d8667eccfdd32a590e,62bbfb270e15271e2faad413,2022-06-29_19h12.13.607,Colour_Asymmetry_Pilot,2022.1.3,Win32,59.91970759,62bbe60bf3d75ef465d3e404,0,26,26,105,1,onethree,,,,,,,,,,,,,,,,,,,,,,,,,,,,,,,,,,,,,,,,,,,,,,,,,,,,,,,,,,,,,,,,,,,,,,,,,,,,,,,,,,,,,,,,,,,,,,,,,,,,,,,,,,,,,,,,,,,,,,,,,,,,,,,,,,,,,,,,,,,,,,,,,,,,,,,,
,,,,,,60e911d8667eccfdd32a590e,62bbfb270e15271e2faad413,2022-06-29_19h12.13.607,Colour_Asymmetry_Pilot,2022.1.3,Win32,59.91970759,62bbe60bf3d75ef465d3e404,0,27,27,97,1,onethree,,,,,,,,,,,,,,,,,,,,,,,,,,,,,,,,,,,,,,,,,,,,,,,,,,,,,,,,,,,,,,,,,,,,,,,,,,,,,,,,,,,,,,,,,,,,,,,,,,,,,,,,,,,,,,,,,,,,,,,,,,,,,,,,,,,,,,,,,,,,,,,,,,,,,,,,
,,,,,,60e911d8667eccfdd32a590e,62bbfb270e15271e2faad413,2022-06-29_19h12.13.607,Colour_Asymmetry_Pilot,2022.1.3,Win32,59.91970759,62bbe60bf3d75ef465d3e404,0,28,28,38,1,fourtwo,,,,,,,,,,,,,,,,,,,,,,,,,,,,,,,,,,,,,,,,,,,,,,,,,,,,,,,,,,,,,,,,,,,,,,,,,,,,,,,,,,,,,,,,,,,,,,,,,,,,,,,,,,,,,,,,,,,,,,,,,,,,,,,,,,,,,,,,,,,,,,,,,,,,,,,,
,,,,,,60e911d8667eccfdd32a590e,62bbfb270e15271e2faad413,2022-06-29_19h12.13.607,Colour_Asymmetry_Pilot,2022.1.3,Win32,59.91970759,62bbe60bf3d75ef465d3e404,0,29,29,69,1,threefour,,,,,,,,,,,,,,,,,,,,,,,,,,,,,,,,,,,,,,,,,,,,,,,,,,,,,,,,,,,,,,,,,,,,,,,,,,,,,,,,,,,,,,,,,,,,,,,,,,,,,,,,,,,,,,,,,,,,,,,,,,,,,,,,,,,,,,,,,,,,,,,,,,,,,,,,
,,,,,,60e911d8667eccfdd32a590e,62bbfb270e15271e2faad413,2022-06-29_19h12.13.607,Colour_Asymmetry_Pilot,2022.1.3,Win32,59.91970759,62bbe60bf3d75ef465d3e404,0,30,30,32,1,onetwo,,,,,,,,,,,,,,,,,,,,,,,,,,,,,,,,,,,,,,,,,,,,,,,,,,,,,,,,,,,,,,,,,,,,,,,,,,,,,,,,,,,,,,,,,,,,,,,,,,,,,,,,,,,,,,,,,,,,,,,,,,,,,,,,,,,,,,,,,,,,,,,,,,,,,,,,
,,,,,,60e911d8667eccfdd32a590e,62bbfb270e15271e2faad413,2022-06-29_19h12.13.607,Colour_Asymmetry_Pilot,2022.1.3,Win32,59.91970759,62bbe60bf3d75ef465d3e404,0,31,31,122,1,twoone,,,,,,,,,,,,,,,,,,,,,,,,,,,,,,,,,,,,,,,,,,,,,,,,,,,,,,,,,,,,,,,,,,,,,,,,,,,,,,,,,,,,,,,,,,,,,,,,,,,,,,,,,,,,,,,,,,,,,,,,,,,,,,,,,,,,,,,,,,,,,,,,,,,,,,,,
,,,,,,60e911d8667eccfdd32a590e,62bbfb270e15271e2faad413,2022-06-29_19h12.13.607,Colour_Asymmetry_Pilot,2022.1.3,Win32,59.91970759,62bbe60bf3d75ef465d3e404,0,32,32,41,1,onethree,,,,,,,,,,,,,,,,,,,,,,,,,,,,,,,,,,,,,,,,,,,,,,,,,,,,,,,,,,,,,,,,,,,,,,,,,,,,,,,,,,,,,,,,,,,,,,,,,,,,,,,,,,,,,,,,,,,,,,,,,,,,,,,,,,,,,,,,,,,,,,,,,,,,,,,,
,,,,,,60e911d8667eccfdd32a590e,62bbfb270e15271e2faad413,2022-06-29_19h12.13.607,Colour_Asymmetry_Pilot,2022.1.3,Win32,59.91970759,62bbe60bf3d75ef465d3e404,0,33,33,99,1,twofour,,,,,,,,,,,,,,,,,,,,,,,,,,,,,,,,,,,,,,,,,,,,,,,,,,,,,,,,,,,,,,,,,,,,,,,,,,,,,,,,,,,,,,,,,,,,,,,,,,,,,,,,,,,,,,,,,,,,,,,,,,,,,,,,,,,,,,,,,,,,,,,,,,,,,,,,
,,,,,,60e911d8667eccfdd32a590e,62bbfb270e15271e2faad413,2022-06-29_19h12.13.607,Colour_Asymmetry_Pilot,2022.1.3,Win32,59.91970759,62bbe60bf3d75ef465d3e404,0,34,34,8,1,onetwo,,,,,,,,,,,,,,,,,,,,,,,,,,,,,,,,,,,,,,,,,,,,,,,,,,,,,,,,,,,,,,,,,,,,,,,,,,,,,,,,,,,,,,,,,,,,,,,,,,,,,,,,,,,,,,,,,,,,,,,,,,,,,,,,,,,,,,,,,,,,,,,,,,,,,,,,
,,,,,,60e911d8667eccfdd32a590e,62bbfb270e15271e2faad413,2022-06-29_19h12.13.607,Colour_Asymmetry_Pilot,2022.1.3,Win32,59.91970759,62bbe60bf3d75ef465d3e404,0,35,35,126,1,fourtwo,,,,,,,,,,,,,,,,,,,,,,,,,,,,,,,,,,,,,,,,,,,,,,,,,,,,,,,,,,,,,,,,,,,,,,,,,,,,,,,,,,,,,,,,,,,,,,,,,,,,,,,,,,,,,,,,,,,,,,,,,,,,,,,,,,,,,,,,,,,,,,,,,,,,,,,,
,,,,,,60e911d8667eccfdd32a590e,62bbfb270e15271e2faad413,2022-06-29_19h12.13.607,Colour_Asymmetry_Pilot,2022.1.3,Win32,59.91970759,62bbe60bf3d75ef465d3e404,0,36,36,21,1,threefour,,,,,,,,,,,,,,,,,,,,,,,,,,,,,,,,,,,,,,,,,,,,,,,,,,,,,,,,,,,,,,,,,,,,,,,,,,,,,,,,,,,,,,,,,,,,,,,,,,,,,,,,,,,,,,,,,,,,,,,,,,,,,,,,,,,,,,,,,,,,,,,,,,,,,,,,
,,,,,,60e911d8667eccfdd32a590e,62bbfb270e15271e2faad413,2022-06-29_19h12.13.607,Colour_Asymmetry_Pilot,2022.1.3,Win32,59.91970759,62bbe60bf3d75ef465d3e404,0,37,37,27,1,twofour,,,,,,,,,,,,,,,,,,,,,,,,,,,,,,,,,,,,,,,,,,,,,,,,,,,,,,,,,,,,,,,,,,,,,,,,,,,,,,,,,,,,,,,,,,,,,,,,,,,,,,,,,,,,,,,,,,,,,,,,,,,,,,,,,,,,,,,,,,,,,,,,,,,,,,,,
,,,,,,60e911d8667eccfdd32a590e,62bbfb270e15271e2faad413,2022-06-29_19h12.13.607,Colour_Asymmetry_Pilot,2022.1.3,Win32,59.91970759,62bbe60bf3d75ef465d3e404,0,38,38,135,1,fourthree,,,,,,,,,,,,,,,,,,,,,,,,,,,,,,,,,,,,,,,,,,,,,,,,,,,,,,,,,,,,,,,,,,,,,,,,,,,,,,,,,,,,,,,,,,,,,,,,,,,,,,,,,,,,,,,,,,,,,,,,,,,,,,,,,,,,,,,,,,,,,,,,,,,,,,,,
,,,,,,60e911d8667eccfdd32a590e,62bbfb270e15271e2faad413,2022-06-29_19h12.13.607,Colour_Asymmetry_Pilot,2022.1.3,Win32,59.91970759,62bbe60bf3d75ef465d3e404,0,39,39,84,1,threeone,,,,,,,,,,,,,,,,,,,,,,,,,,,,,,,,,,,,,,,,,,,,,,,,,,,,,,,,,,,,,,,,,,,,,,,,,,,,,,,,,,,,,,,,,,,,,,,,,,,,,,,,,,,,,,,,,,,,,,,,,,,,,,,,,,,,,,,,,,,,,,,,,,,,,,,,
,,,,,,60e911d8667eccfdd32a590e,62bbfb270e15271e2faad413,2022-06-29_19h12.13.607,Colour_Asymmetry_Pilot,2022.1.3,Win32,59.91970759,62bbe60bf3d75ef465d3e404,0,40,40,70,1,fourtwo,,,,,,,,,,,,,,,,,,,,,,,,,,,,,,,,,,,,,,,,,,,,,,,,,,,,,,,,,,,,,,,,,,,,,,,,,,,,,,,,,,,,,,,,,,,,,,,,,,,,,,,,,,,,,,,,,,,,,,,,,,,,,,,,,,,,,,,,,,,,,,,,,,,,,,,,
,,,,,,60e911d8667eccfdd32a590e,62bbfb270e15271e2faad413,2022-06-29_19h12.13.607,Colour_Asymmetry_Pilot,2022.1.3,Win32,59.91970759,62bbe60bf3d75ef465d3e404,0,41,41,17,1,onethree,,,,,,,,,,,,,,,,,,,,,,,,,,,,,,,,,,,,,,,,,,,,,,,,,,,,,,,,,,,,,,,,,,,,,,,,,,,,,,,,,,,,,,,,,,,,,,,,,,,,,,,,,,,,,,,,,,,,,,,,,,,,,,,,,,,,,,,,,,,,,,,,,,,,,,,,
,,,,,,60e911d8667eccfdd32a590e,62bbfb270e15271e2faad413,2022-06-29_19h12.13.607,Colour_Asymmetry_Pilot,2022.1.3,Win32,59.91970759,62bbe60bf3d75ef465d3e404,0,42,42,35,1,twofour,,,,,,,,,,,,,,,,,,,,,,,,,,,,,,,,,,,,,,,,,,,,,,,,,,,,,,,,,,,,,,,,,,,,,,,,,,,,,,,,,,,,,,,,,,,,,,,,,,,,,,,,,,,,,,,,,,,,,,,,,,,,,,,,,,,,,,,,,,,,,,,,,,,,,,,,
,,,,,,60e911d8667eccfdd32a590e,62bbfb270e15271e2faad413,2022-06-29_19h12.13.607,Colour_Asymmetry_Pilot,2022.1.3,Win32,59.91970759,62bbe60bf3d75ef465d3e404,0,43,43,92,1,threeone,,,,,,,,,,,,,,,,,,,,,,,,,,,,,,,,,,,,,,,,,,,,,,,,,,,,,,,,,,,,,,,,,,,,,,,,,,,,,,,,,,,,,,,,,,,,,,,,,,,,,,,,,,,,,,,,,,,,,,,,,,,,,,,,,,,,,,,,,,,,,,,,,,,,,,,,
,,,,,,60e911d8667eccfdd32a590e,62bbfb270e15271e2faad413,2022-06-29_19h12.13.607,Colour_Asymmetry_Pilot,2022.1.3,Win32,59.91970759,62bbe60bf3d75ef465d3e404,0,44,44,47,1,fourthree,,,,,,,,,,,,,,,,,,,,,,,,,,,,,,,,,,,,,,,,,,,,,,,,,,,,,,,,,,,,,,,,,,,,,,,,,,,,,,,,,,,,,,,,,,,,,,,,,,,,,,,,,,,,,,,,,,,,,,,,,,,,,,,,,,,,,,,,,,,,,,,,,,,,,,,,
,,,,,,60e911d8667eccfdd32a590e,62bbfb270e15271e2faad413,2022-06-29_19h12.13.607,Colour_Asymmetry_Pilot,2022.1.3,Win32,59.91970759,62bbe60bf3d75ef465d3e404,0,45,45,142,1,fourtwo,,,,,,,,,,,,,,,,,,,,,,,,,,,,,,,,,,,,,,,,,,,,,,,,,,,,,,,,,,,,,,,,,,,,,,,,,,,,,,,,,,,,,,,,,,,,,,,,,,,,,,,,,,,,,,,,,,,,,,,,,,,,,,,,,,,,,,,,,,,,,,,,,,,,,,,,
,,,,,,60e911d8667eccfdd32a590e,62bbfb270e15271e2faad413,2022-06-29_19h12.13.607,Colour_Asymmetry_Pilot,2022.1.3,Win32,59.91970759,62bbe60bf3d75ef465d3e404,0,46,46,111,1,fourthree,,,,,,,,,,,,,,,,,,,,,,,,,,,,,,,,,,,,,,,,,,,,,,,,,,,,,,,,,,,,,,,,,,,,,,,,,,,,,,,,,,,,,,,,,,,,,,,,,,,,,,,,,,,,,,,,,,,,,,,,,,,,,,,,,,,,,,,,,,,,,,,,,,,,,,,,
,,,,,,60e911d8667eccfdd32a590e,62bbfb270e15271e2faad413,2022-06-29_19h12.13.607,Colour_Asymmetry_Pilot,2022.1.3,Win32,59.91970759,62bbe60bf3d75ef465d3e404,0,47,47,13,1,threefour,,,,,,,,,,,,,,,,,,,,,,,,,,,,,,,,,,,,,,,,,,,,,,,,,,,,,,,,,,,,,,,,,,,,,,,,,,,,,,,,,,,,,,,,,,,,,,,,,,,,,,,,,,,,,,,,,,,,,,,,,,,,,,,,,,,,,,,,,,,,,,,,,,,,,,,,
,,,,,,60e911d8667eccfdd32a590e,62bbfb270e15271e2faad413,2022-06-29_19h12.13.607,Colour_Asymmetry_Pilot,2022.1.3,Win32,59.91970759,62bbe60bf3d75ef465d3e404,0,48,48,95,1,fourthree,,,,,,,,,,,,,,,,,,,,,,,,,,,,,,,,,,,,,,,,,,,,,,,,,,,,,,,,,,,,,,,,,,,,,,,,,,,,,,,,,,,,,,,,,,,,,,,,,,,,,,,,,,,,,,,,,,,,,,,,,,,,,,,,,,,,,,,,,,,,,,,,,,,,,,,,
,,,,,,60e911d8667eccfdd32a590e,62bbfb270e15271e2faad413,2022-06-29_19h12.13.607,Colour_Asymmetry_Pilot,2022.1.3,Win32,59.91970759,62bbe60bf3d75ef465d3e404,0,49,49,4,1,threeone,,,,,,,,,,,,,,,,,,,,,,,,,,,,,,,,,,,,,,,,,,,,,,,,,,,,,,,,,,,,,,,,,,,,,,,,,,,,,,,,,,,,,,,,,,,,,,,,,,,,,,,,,,,,,,,,,,,,,,,,,,,,,,,,,,,,,,,,,,,,,,,,,,,,,,,,
,,,,,,60e911d8667eccfdd32a590e,62bbfb270e15271e2faad413,2022-06-29_19h12.13.607,Colour_Asymmetry_Pilot,2022.1.3,Win32,59.91970759,62bbe60bf3d75ef465d3e404,0,50,50,22,1,fourtwo,,,,,,,,,,,,,,,,,,,,,,,,,,,,,,,,,,,,,,,,,,,,,,,,,,,,,,,,,,,,,,,,,,,,,,,,,,,,,,,,,,,,,,,,,,,,,,,,,,,,,,,,,,,,,,,,,,,,,,,,,,,,,,,,,,,,,,,,,,,,,,,,,,,,,,,,
,,,,,,60e911d8667eccfdd32a590e,62bbfb270e15271e2faad413,2022-06-29_19h12.13.607,Colour_Asymmetry_Pilot,2022.1.3,Win32,59.91970759,62bbe60bf3d75ef465d3e404,0,51,51,59,1,twofour,,,,,,,,,,,,,,,,,,,,,,,,,,,,,,,,,,,,,,,,,,,,,,,,,,,,,,,,,,,,,,,,,,,,,,,,,,,,,,,,,,,,,,,,,,,,,,,,,,,,,,,,,,,,,,,,,,,,,,,,,,,,,,,,,,,,,,,,,,,,,,,,,,,,,,,,
,,,,,,60e911d8667eccfdd32a590e,62bbfb270e15271e2faad413,2022-06-29_19h12.13.607,Colour_Asymmetry_Pilot,2022.1.3,Win32,59.91970759,62bbe60bf3d75ef465d3e404,0,52,52,62,1,fourtwo,,,,,,,,,,,,,,,,,,,,,,,,,,,,,,,,,,,,,,,,,,,,,,,,,,,,,,,,,,,,,,,,,,,,,,,,,,,,,,,,,,,,,,,,,,,,,,,,,,,,,,,,,,,,,,,,,,,,,,,,,,,,,,,,,,,,,,,,,,,,,,,,,,,,,,,,
,,,,,,60e911d8667eccfdd32a590e,62bbfb270e15271e2faad413,2022-06-29_19h12.13.607,Colour_Asymmetry_Pilot,2022.1.3,Win32,59.91970759,62bbe60bf3d75ef465d3e404,0,53,53,3,1,twofour,,,,,,,,,,,,,,,,,,,,,,,,,,,,,,,,,,,,,,,,,,,,,,,,,,,,,,,,,,,,,,,,,,,,,,,,,,,,,,,,,,,,,,,,,,,,,,,,,,,,,,,,,,,,,,,,,,,,,,,,,,,,,,,,,,,,,,,,,,,,,,,,,,,,,,,,
,,,,,,60e911d8667eccfdd32a590e,62bbfb270e15271e2faad413,2022-06-29_19h12.13.607,Colour_Asymmetry_Pilot,2022.1.3,Win32,59.91970759,62bbe60bf3d75ef465d3e404,0,54,54,51,1,twofour,,,,,,,,,,,,,,,,,,,,,,,,,,,,,,,,,,,,,,,,,,,,,,,,,,,,,,,,,,,,,,,,,,,,,,,,,,,,,,,,,,,,,,,,,,,,,,,,,,,,,,,,,,,,,,,,,,,,,,,,,,,,,,,,,,,,,,,,,,,,,,,,,,,,,,,,
,,,,,,60e911d8667eccfdd32a590e,62bbfb270e15271e2faad413,2022-06-29_19h12.13.607,Colour_Asymmetry_Pilot,2022.1.3,Win32,59.91970759,62bbe60bf3d75ef465d3e404,0,55,55,44,1,threeone,,,,,,,,,,,,,,,,,,,,,,,,,,,,,,,,,,,,,,,,,,,,,,,,,,,,,,,,,,,,,,,,,,,,,,,,,,,,,,,,,,,,,,,,,,,,,,,,,,,,,,,,,,,,,,,,,,,,,,,,,,,,,,,,,,,,,,,,,,,,,,,,,,,,,,,,
,,,,,,60e911d8667eccfdd32a590e,62bbfb270e15271e2faad413,2022-06-29_19h12.13.607,Colour_Asymmetry_Pilot,2022.1.3,Win32,59.91970759,62bbe60bf3d75ef465d3e404,0,56,56,91,1,twofour,,,,,,,,,,,,,,,,,,,,,,,,,,,,,,,,,,,,,,,,,,,,,,,,,,,,,,,,,,,,,,,,,,,,,,,,,,,,,,,,,,,,,,,,,,,,,,,,,,,,,,,,,,,,,,,,,,,,,,,,,,,,,,,,,,,,,,,,,,,,,,,,,,,,,,,,
,,,,,,60e911d8667eccfdd32a590e,62bbfb270e15271e2faad413,2022-06-29_19h12.13.607,Colour_Asymmetry_Pilot,2022.1.3,Win32,59.91970759,62bbe60bf3d75ef465d3e404,0,57,57,2,1,twoone,,,,,,,,,,,,,,,,,,,,,,,,,,,,,,,,,,,,,,,,,,,,,,,,,,,,,,,,,,,,,,,,,,,,,,,,,,,,,,,,,,,,,,,,,,,,,,,,,,,,,,,,,,,,,,,,,,,,,,,,,,,,,,,,,,,,,,,,,,,,,,,,,,,,,,,,
,,,,,,60e911d8667eccfdd32a590e,62bbfb270e15271e2faad413,2022-06-29_19h12.13.607,Colour_Asymmetry_Pilot,2022.1.3,Win32,59.91970759,62bbe60bf3d75ef465d3e404,0,58,58,31,1,fourthree,,,,,,,,,,,,,,,,,,,,,,,,,,,,,,,,,,,,,,,,,,,,,,,,,,,,,,,,,,,,,,,,,,,,,,,,,,,,,,,,,,,,,,,,,,,,,,,,,,,,,,,,,,,,,,,,,,,,,,,,,,,,,,,,,,,,,,,,,,,,,,,,,,,,,,,,
,,,,,,60e911d8667eccfdd32a590e,62bbfb270e15271e2faad413,2022-06-29_19h12.13.607,Colour_Asymmetry_Pilot,2022.1.3,Win32,59.91970759,62bbe60bf3d75ef465d3e404,0,59,59,78,1,fourtwo,,,,,,,,,,,,,,,,,,,,,,,,,,,,,,,,,,,,,,,,,,,,,,,,,,,,,,,,,,,,,,,,,,,,,,,,,,,,,,,,,,,,,,,,,,,,,,,,,,,,,,,,,,,,,,,,,,,,,,,,,,,,,,,,,,,,,,,,,,,,,,,,,,,,,,,,
,,,,,,60e911d8667eccfdd32a590e,62bbfb270e15271e2faad413,2022-06-29_19h12.13.607,Colour_Asymmetry_Pilot,2022.1.3,Win32,59.91970759,62bbe60bf3d75ef465d3e404,0,60,60,57,1,onethree,,,,,,,,,,,,,,,,,,,,,,,,,,,,,,,,,,,,,,,,,,,,,,,,,,,,,,,,,,,,,,,,,,,,,,,,,,,,,,,,,,,,,,,,,,,,,,,,,,,,,,,,,,,,,,,,,,,,,,,,,,,,,,,,,,,,,,,,,,,,,,,,,,,,,,,,
,,,,,,60e911d8667eccfdd32a590e,62bbfb270e15271e2faad413,2022-06-29_19h12.13.607,Colour_Asymmetry_Pilot,2022.1.3,Win32,59.91970759,62bbe60bf3d75ef465d3e404,0,61,61,153,1,onethree,,,,,,,,,,,,,,,,,,,,,,,,,,,,,,,,,,,,,,,,,,,,,,,,,,,,,,,,,,,,,,,,,,,,,,,,,,,,,,,,,,,,,,,,,,,,,,,,,,,,,,,,,,,,,,,,,,,,,,,,,,,,,,,,,,,,,,,,,,,,,,,,,,,,,,,,
,,,,,,60e911d8667eccfdd32a590e,62bbfb270e15271e2faad413,2022-06-29_19h12.13.607,Colour_Asymmetry_Pilot,2022.1.3,Win32,59.91970759,62bbe60bf3d75ef465d3e404,0,62,62,66,1,twoone,,,,,,,,,,,,,,,,,,,,,,,,,,,,,,,,,,,,,,,,,,,,,,,,,,,,,,,,,,,,,,,,,,,,,,,,,,,,,,,,,,,,,,,,,,,,,,,,,,,,,,,,,,,,,,,,,,,,,,,,,,,,,,,,,,,,,,,,,,,,,,,,,,,,,,,,
,,,,,,60e911d8667eccfdd32a590e,62bbfb270e15271e2faad413,2022-06-29_19h12.13.607,Colour_Asymmetry_Pilot,2022.1.3,Win32,59.91970759,62bbe60bf3d75ef465d3e404,0,63,63,150,1,fourtwo,,,,,,,,,,,,,,,,,,,,,,,,,,,,,,,,,,,,,,,,,,,,,,,,,,,,,,,,,,,,,,,,,,,,,,,,,,,,,,,,,,,,,,,,,,,,,,,,,,,,,,,,,,,,,,,,,,,,,,,,,,,,,,,,,,,,,,,,,,,,,,,,,,,,,,,,
,,,,,,60e911d8667eccfdd32a590e,62bbfb270e15271e2faad413,2022-06-29_19h12.13.607,Colour_Asymmetry_Pilot,2022.1.3,Win32,59.91970759,62bbe60bf3d75ef465d3e404,0,64,64,112,1,onetwo,,,,,,,,,,,,,,,,,,,,,,,,,,,,,,,,,,,,,,,,,,,,,,,,,,,,,,,,,,,,,,,,,,,,,,,,,,,,,,,,,,,,,,,,,,,,,,,,,,,,,,,,,,,,,,,,,,,,,,,,,,,,,,,,,,,,,,,,,,,,,,,,,,,,,,,,
,,,,,,60e911d8667eccfdd32a590e,62bbfb270e15271e2faad413,2022-06-29_19h12.13.607,Colour_Asymmetry_Pilot,2022.1.3,Win32,59.91970759,62bbe60bf3d75ef465d3e404,0,65,65,115,1,twofour,,,,,,,,,,,,,,,,,,,,,,,,,,,,,,,,,,,,,,,,,,,,,,,,,,,,,,,,,,,,,,,,,,,,,,,,,,,,,,,,,,,,,,,,,,,,,,,,,,,,,,,,,,,,,,,,,,,,,,,,,,,,,,,,,,,,,,,,,,,,,,,,,,,,,,,,
,,,,,,60e911d8667eccfdd32a590e,62bbfb270e15271e2faad413,2022-06-29_19h12.13.607,Colour_Asymmetry_Pilot,2022.1.3,Win32,59.91970759,62bbe60bf3d75ef465d3e404,0,66,66,74,1,twoone,,,,,,,,,,,,,,,,,,,,,,,,,,,,,,,,,,,,,,,,,,,,,,,,,,,,,,,,,,,,,,,,,,,,,,,,,,,,,,,,,,,,,,,,,,,,,,,,,,,,,,,,,,,,,,,,,,,,,,,,,,,,,,,,,,,,,,,,,,,,,,,,,,,,,,,,
,,,,,,60e911d8667eccfdd32a590e,62bbfb270e15271e2faad413,2022-06-29_19h12.13.607,Colour_Asymmetry_Pilot,2022.1.3,Win32,59.91970759,62bbe60bf3d75ef465d3e404,0,67,67,29,1,threefour,,,,,,,,,,,,,,,,,,,,,,,,,,,,,,,,,,,,,,,,,,,,,,,,,,,,,,,,,,,,,,,,,,,,,,,,,,,,,,,,,,,,,,,,,,,,,,,,,,,,,,,,,,,,,,,,,,,,,,,,,,,,,,,,,,,,,,,,,,,,,,,,,,,,,,,,
,,,,,,60e911d8667eccfdd32a590e,62bbfb270e15271e2faad413,2022-06-29_19h12.13.607,Colour_Asymmetry_Pilot,2022.1.3,Win32,59.91970759,62bbe60bf3d75ef465d3e404,0,68,68,116,1,threeone,,,,,,,,,,,,,,,,,,,,,,,,,,,,,,,,,,,,,,,,,,,,,,,,,,,,,,,,,,,,,,,,,,,,,,,,,,,,,,,,,,,,,,,,,,,,,,,,,,,,,,,,,,,,,,,,,,,,,,,,,,,,,,,,,,,,,,,,,,,,,,,,,,,,,,,,
,,,,,,60e911d8667eccfdd32a590e,62bbfb270e15271e2faad413,2022-06-29_19h12.13.607,Colour_Asymmetry_Pilot,2022.1.3,Win32,59.91970759,62bbe60bf3d75ef465d3e404,0,69,69,46,1,fourtwo,,,,,,,,,,,,,,,,,,,,,,,,,,,,,,,,,,,,,,,,,,,,,,,,,,,,,,,,,,,,,,,,,,,,,,,,,,,,,,,,,,,,,,,,,,,,,,,,,,,,,,,,,,,,,,,,,,,,,,,,,,,,,,,,,,,,,,,,,,,,,,,,,,,,,,,,
,,,,,,60e911d8667eccfdd32a590e,62bbfb270e15271e2faad413,2022-06-29_19h12.13.607,Colour_Asymmetry_Pilot,2022.1.3,Win32,59.91970759,62bbe60bf3d75ef465d3e404,0,70,70,144,1,onetwo,,,,,,,,,,,,,,,,,,,,,,,,,,,,,,,,,,,,,,,,,,,,,,,,,,,,,,,,,,,,,,,,,,,,,,,,,,,,,,,,,,,,,,,,,,,,,,,,,,,,,,,,,,,,,,,,,,,,,,,,,,,,,,,,,,,,,,,,,,,,,,,,,,,,,,,,
,,,,,,60e911d8667eccfdd32a590e,62bbfb270e15271e2faad413,2022-06-29_19h12.13.607,Colour_Asymmetry_Pilot,2022.1.3,Win32,59.91970759,62bbe60bf3d75ef465d3e404,0,71,71,81,1,onethree,,,,,,,,,,,,,,,,,,,,,,,,,,,,,,,,,,,,,,,,,,,,,,,,,,,,,,,,,,,,,,,,,,,,,,,,,,,,,,,,,,,,,,,,,,,,,,,,,,,,,,,,,,,,,,,,,,,,,,,,,,,,,,,,,,,,,,,,,,,,,,,,,,,,,,,,
,,,,,,60e911d8667eccfdd32a590e,62bbfb270e15271e2faad413,2022-06-29_19h12.13.607,Colour_Asymmetry_Pilot,2022.1.3,Win32,59.91970759,62bbe60bf3d75ef465d3e404,0,72,72,114,1,twoone,,,,,,,,,,,,,,,,,,,,,,,,,,,,,,,,,,,,,,,,,,,,,,,,,,,,,,,,,,,,,,,,,,,,,,,,,,,,,,,,,,,,,,,,,,,,,,,,,,,,,,,,,,,,,,,,,,,,,,,,,,,,,,,,,,,,,,,,,,,,,,,,,,,,,,,,
,,,,,,60e911d8667eccfdd32a590e,62bbfb270e15271e2faad413,2022-06-29_19h12.13.607,Colour_Asymmetry_Pilot,2022.1.3,Win32,59.91970759,62bbe60bf3d75ef465d3e404,0,73,73,154,1,twoone,,,,,,,,,,,,,,,,,,,,,,,,,,,,,,,,,,,,,,,,,,,,,,,,,,,,,,,,,,,,,,,,,,,,,,,,,,,,,,,,,,,,,,,,,,,,,,,,,,,,,,,,,,,,,,,,,,,,,,,,,,,,,,,,,,,,,,,,,,,,,,,,,,,,,,,,
,,,,,,60e911d8667eccfdd32a590e,62bbfb270e15271e2faad413,2022-06-29_19h12.13.607,Colour_Asymmetry_Pilot,2022.1.3,Win32,59.91970759,62bbe60bf3d75ef465d3e404,0,74,74,60,1,threeone,,,,,,,,,,,,,,,,,,,,,,,,,,,,,,,,,,,,,,,,,,,,,,,,,,,,,,,,,,,,,,,,,,,,,,,,,,,,,,,,,,,,,,,,,,,,,,,,,,,,,,,,,,,,,,,,,,,,,,,,,,,,,,,,,,,,,,,,,,,,,,,,,,,,,,,,
,,,,,,60e911d8667eccfdd32a590e,62bbfb270e15271e2faad413,2022-06-29_19h12.13.607,Colour_Asymmetry_Pilot,2022.1.3,Win32,59.91970759,62bbe60bf3d75ef465d3e404,0,75,75,26,1,twoone,,,,,,,,,,,,,,,,,,,,,,,,,,,,,,,,,,,,,,,,,,,,,,,,,,,,,,,,,,,,,,,,,,,,,,,,,,,,,,,,,,,,,,,,,,,,,,,,,,,,,,,,,,,,,,,,,,,,,,,,,,,,,,,,,,,,,,,,,,,,,,,,,,,,,,,,
,,,,,,60e911d8667eccfdd32a590e,62bbfb270e15271e2faad413,2022-06-29_19h12.13.607,Colour_Asymmetry_Pilot,2022.1.3,Win32,59.91970759,62bbe60bf3d75ef465d3e404,0,76,76,137,1,onethree,,,,,,,,,,,,,,,,,,,,,,,,,,,,,,,,,,,,,,,,,,,,,,,,,,,,,,,,,,,,,,,,,,,,,,,,,,,,,,,,,,,,,,,,,,,,,,,,,,,,,,,,,,,,,,,,,,,,,,,,,,,,,,,,,,,,,,,,,,,,,,,,,,,,,,,,
,,,,,,60e911d8667eccfdd32a590e,62bbfb270e15271e2faad413,2022-06-29_19h12.13.607,Colour_Asymmetry_Pilot,2022.1.3,Win32,59.91970759,62bbe60bf3d75ef465d3e404,0,77,77,106,1,twoone,,,,,,,,,,,,,,,,,,,,,,,,,,,,,,,,,,,,,,,,,,,,,,,,,,,,,,,,,,,,,,,,,,,,,,,,,,,,,,,,,,,,,,,,,,,,,,,,,,,,,,,,,,,,,,,,,,,,,,,,,,,,,,,,,,,,,,,,,,,,,,,,,,,,,,,,
,,,,,,60e911d8667eccfdd32a590e,62bbfb270e15271e2faad413,2022-06-29_19h12.13.607,Colour_Asymmetry_Pilot,2022.1.3,Win32,59.91970759,62bbe60bf3d75ef465d3e404,0,78,78,108,1,threeone,,,,,,,,,,,,,,,,,,,,,,,,,,,,,,,,,,,,,,,,,,,,,,,,,,,,,,,,,,,,,,,,,,,,,,,,,,,,,,,,,,,,,,,,,,,,,,,,,,,,,,,,,,,,,,,,,,,,,,,,,,,,,,,,,,,,,,,,,,,,,,,,,,,,,,,,
,,,,,,60e911d8667eccfdd32a590e,62bbfb270e15271e2faad413,2022-06-29_19h12.13.607,Colour_Asymmetry_Pilot,2022.1.3,Win32,59.91970759,62bbe60bf3d75ef465d3e404,0,79,79,7,1,fourthree,,,,,,,,,,,,,,,,,,,,,,,,,,,,,,,,,,,,,,,,,,,,,,,,,,,,,,,,,,,,,,,,,,,,,,,,,,,,,,,,,,,,,,,,,,,,,,,,,,,,,,,,,,,,,,,,,,,,,,,,,,,,,,,,,,,,,,,,,,,,,,,,,,,,,,,,
,,,,,,60e911d8667eccfdd32a590e,62bbfb270e15271e2faad413,2022-06-29_19h12.13.607,Colour_Asymmetry_Pilot,2022.1.3,Win32,59.91970759,62bbe60bf3d75ef465d3e404,0,80,80,5,1,threefour,,,,,,,,,,,,,,,,,,,,,,,,,,,,,,,,,,,,,,,,,,,,,,,,,,,,,,,,,,,,,,,,,,,,,,,,,,,,,,,,,,,,,,,,,,,,,,,,,,,,,,,,,,,,,,,,,,,,,,,,,,,,,,,,,,,,,,,,,,,,,,,,,,,,,,,,
,,,,,,60e911d8667eccfdd32a590e,62bbfb270e15271e2faad413,2022-06-29_19h12.13.607,Colour_Asymmetry_Pilot,2022.1.3,Win32,59.91970759,62bbe60bf3d75ef465d3e404,0,81,81,23,1,fourthree,,,,,,,,,,,,,,,,,,,,,,,,,,,,,,,,,,,,,,,,,,,,,,,,,,,,,,,,,,,,,,,,,,,,,,,,,,,,,,,,,,,,,,,,,,,,,,,,,,,,,,,,,,,,,,,,,,,,,,,,,,,,,,,,,,,,,,,,,,,,,,,,,,,,,,,,
,,,,,,60e911d8667eccfdd32a590e,62bbfb270e15271e2faad413,2022-06-29_19h12.13.607,Colour_Asymmetry_Pilot,2022.1.3,Win32,59.91970759,62bbe60bf3d75ef465d3e404,0,82,82,159,1,fourthree,,,,,,,,,,,,,,,,,,,,,,,,,,,,,,,,,,,,,,,,,,,,,,,,,,,,,,,,,,,,,,,,,,,,,,,,,,,,,,,,,,,,,,,,,,,,,,,,,,,,,,,,,,,,,,,,,,,,,,,,,,,,,,,,,,,,,,,,,,,,,,,,,,,,,,,,
,,,,,,60e911d8667eccfdd32a590e,62bbfb270e15271e2faad413,2022-06-29_19h12.13.607,Colour_Asymmetry_Pilot,2022.1.3,Win32,59.91970759,62bbe60bf3d75ef465d3e404,0,83,83,107,1,twofour,,,,,,,,,,,,,,,,,,,,,,,,,,,,,,,,,,,,,,,,,,,,,,,,,,,,,,,,,,,,,,,,,,,,,,,,,,,,,,,,,,,,,,,,,,,,,,,,,,,,,,,,,,,,,,,,,,,,,,,,,,,,,,,,,,,,,,,,,,,,,,,,,,,,,,,,
,,,,,,60e911d8667eccfdd32a590e,62bbfb270e15271e2faad413,2022-06-29_19h12.13.607,Colour_Asymmetry_Pilot,2022.1.3,Win32,59.91970759,62bbe60bf3d75ef465d3e404,0,84,84,123,1,twofour,,,,,,,,,,,,,,,,,,,,,,,,,,,,,,,,,,,,,,,,,,,,,,,,,,,,,,,,,,,,,,,,,,,,,,,,,,,,,,,,,,,,,,,,,,,,,,,,,,,,,,,,,,,,,,,,,,,,,,,,,,,,,,,,,,,,,,,,,,,,,,,,,,,,,,,,
,,,,,,60e911d8667eccfdd32a590e,62bbfb270e15271e2faad413,2022-06-29_19h12.13.607,Colour_Asymmetry_Pilot,2022.1.3,Win32,59.91970759,62bbe60bf3d75ef465d3e404,0,85,85,9,1,onethree,,,,,,,,,,,,,,,,,,,,,,,,,,,,,,,,,,,,,,,,,,,,,,,,,,,,,,,,,,,,,,,,,,,,,,,,,,,,,,,,,,,,,,,,,,,,,,,,,,,,,,,,,,,,,,,,,,,,,,,,,,,,,,,,,,,,,,,,,,,,,,,,,,,,,,,,
,,,,,,60e911d8667eccfdd32a590e,62bbfb270e15271e2faad413,2022-06-29_19h12.13.607,Colour_Asymmetry_Pilot,2022.1.3,Win32,59.91970759,62bbe60bf3d75ef465d3e404,0,86,86,45,1,threefour,,,,,,,,,,,,,,,,,,,,,,,,,,,,,,,,,,,,,,,,,,,,,,,,,,,,,,,,,,,,,,,,,,,,,,,,,,,,,,,,,,,,,,,,,,,,,,,,,,,,,,,,,,,,,,,,,,,,,,,,,,,,,,,,,,,,,,,,,,,,,,,,,,,,,,,,
,,,,,,60e911d8667eccfdd32a590e,62bbfb270e15271e2faad413,2022-06-29_19h12.13.607,Colour_Asymmetry_Pilot,2022.1.3,Win32,59.91970759,62bbe60bf3d75ef465d3e404,0,87,87,147,1,twofour,,,,,,,,,,,,,,,,,,,,,,,,,,,,,,,,,,,,,,,,,,,,,,,,,,,,,,,,,,,,,,,,,,,,,,,,,,,,,,,,,,,,,,,,,,,,,,,,,,,,,,,,,,,,,,,,,,,,,,,,,,,,,,,,,,,,,,,,,,,,,,,,,,,,,,,,
,,,,,,60e911d8667eccfdd32a590e,62bbfb270e15271e2faad413,2022-06-29_19h12.13.607,Colour_Asymmetry_Pilot,2022.1.3,Win32,59.91970759,62bbe60bf3d75ef465d3e404,0,88,88,53,1,threefour,,,,,,,,,,,,,,,,,,,,,,,,,,,,,,,,,,,,,,,,,,,,,,,,,,,,,,,,,,,,,,,,,,,,,,,,,,,,,,,,,,,,,,,,,,,,,,,,,,,,,,,,,,,,,,,,,,,,,,,,,,,,,,,,,,,,,,,,,,,,,,,,,,,,,,,,
,,,,,,60e911d8667eccfdd32a590e,62bbfb270e15271e2faad413,2022-06-29_19h12.13.607,Colour_Asymmetry_Pilot,2022.1.3,Win32,59.91970759,62bbe60bf3d75ef465d3e404,0,89,89,96,1,onetwo,,,,,,,,,,,,,,,,,,,,,,,,,,,,,,,,,,,,,,,,,,,,,,,,,,,,,,,,,,,,,,,,,,,,,,,,,,,,,,,,,,,,,,,,,,,,,,,,,,,,,,,,,,,,,,,,,,,,,,,,,,,,,,,,,,,,,,,,,,,,,,,,,,,,,,,,
,,,,,,60e911d8667eccfdd32a590e,62bbfb270e15271e2faad413,2022-06-29_19h12.13.607,Colour_Asymmetry_Pilot,2022.1.3,Win32,59.91970759,62bbe60bf3d75ef465d3e404,0,90,90,15,1,fourthree,,,,,,,,,,,,,,,,,,,,,,,,,,,,,,,,,,,,,,,,,,,,,,,,,,,,,,,,,,,,,,,,,,,,,,,,,,,,,,,,,,,,,,,,,,,,,,,,,,,,,,,,,,,,,,,,,,,,,,,,,,,,,,,,,,,,,,,,,,,,,,,,,,,,,,,,
,,,,,,60e911d8667eccfdd32a590e,62bbfb270e15271e2faad413,2022-06-29_19h12.13.607,Colour_Asymmetry_Pilot,2022.1.3,Win32,59.91970759,62bbe60bf3d75ef465d3e404,0,91,91,136,1,onetwo,,,,,,,,,,,,,,,,,,,,,,,,,,,,,,,,,,,,,,,,,,,,,,,,,,,,,,,,,,,,,,,,,,,,,,,,,,,,,,,,,,,,,,,,,,,,,,,,,,,,,,,,,,,,,,,,,,,,,,,,,,,,,,,,,,,,,,,,,,,,,,,,,,,,,,,,
,,,,,,60e911d8667eccfdd32a590e,62bbfb270e15271e2faad413,2022-06-29_19h12.13.607,Colour_Asymmetry_Pilot,2022.1.3,Win32,59.91970759,62bbe60bf3d75ef465d3e404,0,92,92,157,1,threefour,,,,,,,,,,,,,,,,,,,,,,,,,,,,,,,,,,,,,,,,,,,,,,,,,,,,,,,,,,,,,,,,,,,,,,,,,,,,,,,,,,,,,,,,,,,,,,,,,,,,,,,,,,,,,,,,,,,,,,,,,,,,,,,,,,,,,,,,,,,,,,,,,,,,,,,,
,,,,,,60e911d8667eccfdd32a590e,62bbfb270e15271e2faad413,2022-06-29_19h12.13.607,Colour_Asymmetry_Pilot,2022.1.3,Win32,59.91970759,62bbe60bf3d75ef465d3e404,0,93,93,80,1,onetwo,,,,,,,,,,,,,,,,,,,,,,,,,,,,,,,,,,,,,,,,,,,,,,,,,,,,,,,,,,,,,,,,,,,,,,,,,,,,,,,,,,,,,,,,,,,,,,,,,,,,,,,,,,,,,,,,,,,,,,,,,,,,,,,,,,,,,,,,,,,,,,,,,,,,,,,,
,,,,,,60e911d8667eccfdd32a590e,62bbfb270e15271e2faad413,2022-06-29_19h12.13.607,Colour_Asymmetry_Pilot,2022.1.3,Win32,59.91970759,62bbe60bf3d75ef465d3e404,0,94,94,67,1,twofour,,,,,,,,,,,,,,,,,,,,,,,,,,,,,,,,,,,,,,,,,,,,,,,,,,,,,,,,,,,,,,,,,,,,,,,,,,,,,,,,,,,,,,,,,,,,,,,,,,,,,,,,,,,,,,,,,,,,,,,,,,,,,,,,,,,,,,,,,,,,,,,,,,,,,,,,
,,,,,,60e911d8667eccfdd32a590e,62bbfb270e15271e2faad413,2022-06-29_19h12.13.607,Colour_Asymmetry_Pilot,2022.1.3,Win32,59.91970759,62bbe60bf3d75ef465d3e404,0,95,95,121,1,onethree,,,,,,,,,,,,,,,,,,,,,,,,,,,,,,,,,,,,,,,,,,,,,,,,,,,,,,,,,,,,,,,,,,,,,,,,,,,,,,,,,,,,,,,,,,,,,,,,,,,,,,,,,,,,,,,,,,,,,,,,,,,,,,,,,,,,,,,,,,,,,,,,,,,,,,,,
,,,,,,60e911d8667eccfdd32a590e,62bbfb270e15271e2faad413,2022-06-29_19h12.13.607,Colour_Asymmetry_Pilot,2022.1.3,Win32,59.91970759,62bbe60bf3d75ef465d3e404,0,96,96,158,1,fourtwo,,,,,,,,,,,,,,,,,,,,,,,,,,,,,,,,,,,,,,,,,,,,,,,,,,,,,,,,,,,,,,,,,,,,,,,,,,,,,,,,,,,,,,,,,,,,,,,,,,,,,,,,,,,,,,,,,,,,,,,,,,,,,,,,,,,,,,,,,,,,,,,,,,,,,,,,
,,,,,,60e911d8667eccfdd32a590e,62bbfb270e15271e2faad413,2022-06-29_19h12.13.607,Colour_Asymmetry_Pilot,2022.1.3,Win32,59.91970759,62bbe60bf3d75ef465d3e404,0,97,97,155,1,twofour,,,,,,,,,,,,,,,,,,,,,,,,,,,,,,,,,,,,,,,,,,,,,,,,,,,,,,,,,,,,,,,,,,,,,,,,,,,,,,,,,,,,,,,,,,,,,,,,,,,,,,,,,,,,,,,,,,,,,,,,,,,,,,,,,,,,,,,,,,,,,,,,,,,,,,,,
,,,,,,60e911d8667eccfdd32a590e,62bbfb270e15271e2faad413,2022-06-29_19h12.13.607,Colour_Asymmetry_Pilot,2022.1.3,Win32,59.91970759,62bbe60bf3d75ef465d3e404,0,98,98,134,1,fourtwo,,,,,,,,,,,,,,,,,,,,,,,,,,,,,,,,,,,,,,,,,,,,,,,,,,,,,,,,,,,,,,,,,,,,,,,,,,,,,,,,,,,,,,,,,,,,,,,,,,,,,,,,,,,,,,,,,,,,,,,,,,,,,,,,,,,,,,,,,,,,,,,,,,,,,,,,
,,,,,,60e911d8667eccfdd32a590e,62bbfb270e15271e2faad413,2022-06-29_19h12.13.607,Colour_Asymmetry_Pilot,2022.1.3,Win32,59.91970759,62bbe60bf3d75ef465d3e404,0,99,99,14,1,fourtwo,,,,,,,,,,,,,,,,,,,,,,,,,,,,,,,,,,,,,,,,,,,,,,,,,,,,,,,,,,,,,,,,,,,,,,,,,,,,,,,,,,,,,,,,,,,,,,,,,,,,,,,,,,,,,,,,,,,,,,,,,,,,,,,,,,,,,,,,,,,,,,,,,,,,,,,,
,,,,,,60e911d8667eccfdd32a590e,62bbfb270e15271e2faad413,2022-06-29_19h12.13.607,Colour_Asymmetry_Pilot,2022.1.3,Win32,59.91970759,62bbe60bf3d75ef465d3e404,0,100,100,54,1,fourtwo,,,,,,,,,,,,,,,,,,,,,,,,,,,,,,,,,,,,,,,,,,,,,,,,,,,,,,,,,,,,,,,,,,,,,,,,,,,,,,,,,,,,,,,,,,,,,,,,,,,,,,,,,,,,,,,,,,,,,,,,,,,,,,,,,,,,,,,,,,,,,,,,,,,,,,,,
,,,,,,60e911d8667eccfdd32a590e,62bbfb270e15271e2faad413,2022-06-29_19h12.13.607,Colour_Asymmetry_Pilot,2022.1.3,Win32,59.91970759,62bbe60bf3d75ef465d3e404,0,101,101,52,1,threeone,,,,,,,,,,,,,,,,,,,,,,,,,,,,,,,,,,,,,,,,,,,,,,,,,,,,,,,,,,,,,,,,,,,,,,,,,,,,,,,,,,,,,,,,,,,,,,,,,,,,,,,,,,,,,,,,,,,,,,,,,,,,,,,,,,,,,,,,,,,,,,,,,,,,,,,,
,,,,,,60e911d8667eccfdd32a590e,62bbfb270e15271e2faad413,2022-06-29_19h12.13.607,Colour_Asymmetry_Pilot,2022.1.3,Win32,59.91970759,62bbe60bf3d75ef465d3e404,0,102,102,160,1,onetwo,,,,,,,,,,,,,,,,,,,,,,,,,,,,,,,,,,,,,,,,,,,,,,,,,,,,,,,,,,,,,,,,,,,,,,,,,,,,,,,,,,,,,,,,,,,,,,,,,,,,,,,,,,,,,,,,,,,,,,,,,,,,,,,,,,,,,,,,,,,,,,,,,,,,,,,,
,,,,,,60e911d8667eccfdd32a590e,62bbfb270e15271e2faad413,2022-06-29_19h12.13.607,Colour_Asymmetry_Pilot,2022.1.3,Win32,59.91970759,62bbe60bf3d75ef465d3e404,0,103,103,10,1,twoone,,,,,,,,,,,,,,,,,,,,,,,,,,,,,,,,,,,,,,,,,,,,,,,,,,,,,,,,,,,,,,,,,,,,,,,,,,,,,,,,,,,,,,,,,,,,,,,,,,,,,,,,,,,,,,,,,,,,,,,,,,,,,,,,,,,,,,,,,,,,,,,,,,,,,,,,
,,,,,,60e911d8667eccfdd32a590e,62bbfb270e15271e2faad413,2022-06-29_19h12.13.607,Colour_Asymmetry_Pilot,2022.1.3,Win32,59.91970759,62bbe60bf3d75ef465d3e404,0,104,104,124,1,threeone,,,,,,,,,,,,,,,,,,,,,,,,,,,,,,,,,,,,,,,,,,,,,,,,,,,,,,,,,,,,,,,,,,,,,,,,,,,,,,,,,,,,,,,,,,,,,,,,,,,,,,,,,,,,,,,,,,,,,,,,,,,,,,,,,,,,,,,,,,,,,,,,,,,,,,,,
,,,,,,60e911d8667eccfdd32a590e,62bbfb270e15271e2faad413,2022-06-29_19h12.13.607,Colour_Asymmetry_Pilot,2022.1.3,Win32,59.91970759,62bbe60bf3d75ef465d3e404,0,105,105,86,1,fourtwo,,,,,,,,,,,,,,,,,,,,,,,,,,,,,,,,,,,,,,,,,,,,,,,,,,,,,,,,,,,,,,,,,,,,,,,,,,,,,,,,,,,,,,,,,,,,,,,,,,,,,,,,,,,,,,,,,,,,,,,,,,,,,,,,,,,,,,,,,,,,,,,,,,,,,,,,
,,,,,,60e911d8667eccfdd32a590e,62bbfb270e15271e2faad413,2022-06-29_19h12.13.607,Colour_Asymmetry_Pilot,2022.1.3,Win32,59.91970759,62bbe60bf3d75ef465d3e404,0,106,106,34,1,twoone,,,,,,,,,,,,,,,,,,,,,,,,,,,,,,,,,,,,,,,,,,,,,,,,,,,,,,,,,,,,,,,,,,,,,,,,,,,,,,,,,,,,,,,,,,,,,,,,,,,,,,,,,,,,,,,,,,,,,,,,,,,,,,,,,,,,,,,,,,,,,,,,,,,,,,,,
,,,,,,60e911d8667eccfdd32a590e,62bbfb270e15271e2faad413,2022-06-29_19h12.13.607,Colour_Asymmetry_Pilot,2022.1.3,Win32,59.91970759,62bbe60bf3d75ef465d3e404,0,107,107,56,1,onetwo,,,,,,,,,,,,,,,,,,,,,,,,,,,,,,,,,,,,,,,,,,,,,,,,,,,,,,,,,,,,,,,,,,,,,,,,,,,,,,,,,,,,,,,,,,,,,,,,,,,,,,,,,,,,,,,,,,,,,,,,,,,,,,,,,,,,,,,,,,,,,,,,,,,,,,,,
,,,,,,60e911d8667eccfdd32a590e,62bbfb270e15271e2faad413,2022-06-29_19h12.13.607,Colour_Asymmetry_Pilot,2022.1.3,Win32,59.91970759,62bbe60bf3d75ef465d3e404,0,108,108,151,1,fourthree,,,,,,,,,,,,,,,,,,,,,,,,,,,,,,,,,,,,,,,,,,,,,,,,,,,,,,,,,,,,,,,,,,,,,,,,,,,,,,,,,,,,,,,,,,,,,,,,,,,,,,,,,,,,,,,,,,,,,,,,,,,,,,,,,,,,,,,,,,,,,,,,,,,,,,,,
,,,,,,60e911d8667eccfdd32a590e,62bbfb270e15271e2faad413,2022-06-29_19h12.13.607,Colour_Asymmetry_Pilot,2022.1.3,Win32,59.91970759,62bbe60bf3d75ef465d3e404,0,109,109,49,1,onethree,,,,,,,,,,,,,,,,,,,,,,,,,,,,,,,,,,,,,,,,,,,,,,,,,,,,,,,,,,,,,,,,,,,,,,,,,,,,,,,,,,,,,,,,,,,,,,,,,,,,,,,,,,,,,,,,,,,,,,,,,,,,,,,,,,,,,,,,,,,,,,,,,,,,,,,,
,,,,,,60e911d8667eccfdd32a590e,62bbfb270e15271e2faad413,2022-06-29_19h12.13.607,Colour_Asymmetry_Pilot,2022.1.3,Win32,59.91970759,62bbe60bf3d75ef465d3e404,0,110,110,133,1,threefour,,,,,,,,,,,,,,,,,,,,,,,,,,,,,,,,,,,,,,,,,,,,,,,,,,,,,,,,,,,,,,,,,,,,,,,,,,,,,,,,,,,,,,,,,,,,,,,,,,,,,,,,,,,,,,,,,,,,,,,,,,,,,,,,,,,,,,,,,,,,,,,,,,,,,,,,
,,,,,,60e911d8667eccfdd32a590e,62bbfb270e15271e2faad413,2022-06-29_19h12.13.607,Colour_Asymmetry_Pilot,2022.1.3,Win32,59.91970759,62bbe60bf3d75ef465d3e404,0,111,111,28,1,threeone,,,,,,,,,,,,,,,,,,,,,,,,,,,,,,,,,,,,,,,,,,,,,,,,,,,,,,,,,,,,,,,,,,,,,,,,,,,,,,,,,,,,,,,,,,,,,,,,,,,,,,,,,,,,,,,,,,,,,,,,,,,,,,,,,,,,,,,,,,,,,,,,,,,,,,,,
,,,,,,60e911d8667eccfdd32a590e,62bbfb270e15271e2faad413,2022-06-29_19h12.13.607,Colour_Asymmetry_Pilot,2022.1.3,Win32,59.91970759,62bbe60bf3d75ef465d3e404,0,112,112,146,1,twoone,,,,,,,,,,,,,,,,,,,,,,,,,,,,,,,,,,,,,,,,,,,,,,,,,,,,,,,,,,,,,,,,,,,,,,,,,,,,,,,,,,,,,,,,,,,,,,,,,,,,,,,,,,,,,,,,,,,,,,,,,,,,,,,,,,,,,,,,,,,,,,,,,,,,,,,,
,,,,,,60e911d8667eccfdd32a590e,62bbfb270e15271e2faad413,2022-06-29_19h12.13.607,Colour_Asymmetry_Pilot,2022.1.3,Win32,59.91970759,62bbe60bf3d75ef465d3e404,0,113,113,152,1,onetwo,,,,,,,,,,,,,,,,,,,,,,,,,,,,,,,,,,,,,,,,,,,,,,,,,,,,,,,,,,,,,,,,,,,,,,,,,,,,,,,,,,,,,,,,,,,,,,,,,,,,,,,,,,,,,,,,,,,,,,,,,,,,,,,,,,,,,,,,,,,,,,,,,,,,,,,,
,,,,,,60e911d8667eccfdd32a590e,62bbfb270e15271e2faad413,2022-06-29_19h12.13.607,Colour_Asymmetry_Pilot,2022.1.3,Win32,59.91970759,62bbe60bf3d75ef465d3e404,0,114,114,55,1,fourthree,,,,,,,,,,,,,,,,,,,,,,,,,,,,,,,,,,,,,,,,,,,,,,,,,,,,,,,,,,,,,,,,,,,,,,,,,,,,,,,,,,,,,,,,,,,,,,,,,,,,,,,,,,,,,,,,,,,,,,,,,,,,,,,,,,,,,,,,,,,,,,,,,,,,,,,,
,,,,,,60e911d8667eccfdd32a590e,62bbfb270e15271e2faad413,2022-06-29_19h12.13.607,Colour_Asymmetry_Pilot,2022.1.3,Win32,59.91970759,62bbe60bf3d75ef465d3e404,0,115,115,79,1,fourthree,,,,,,,,,,,,,,,,,,,,,,,,,,,,,,,,,,,,,,,,,,,,,,,,,,,,,,,,,,,,,,,,,,,,,,,,,,,,,,,,,,,,,,,,,,,,,,,,,,,,,,,,,,,,,,,,,,,,,,,,,,,,,,,,,,,,,,,,,,,,,,,,,,,,,,,,
,,,,,,60e911d8667eccfdd32a590e,62bbfb270e15271e2faad413,2022-06-29_19h12.13.607,Colour_Asymmetry_Pilot,2022.1.3,Win32,59.91970759,62bbe60bf3d75ef465d3e404,0,116,116,132,1,threeone,,,,,,,,,,,,,,,,,,,,,,,,,,,,,,,,,,,,,,,,,,,,,,,,,,,,,,,,,,,,,,,,,,,,,,,,,,,,,,,,,,,,,,,,,,,,,,,,,,,,,,,,,,,,,,,,,,,,,,,,,,,,,,,,,,,,,,,,,,,,,,,,,,,,,,,,
,,,,,,60e911d8667eccfdd32a590e,62bbfb270e15271e2faad413,2022-06-29_19h12.13.607,Colour_Asymmetry_Pilot,2022.1.3,Win32,59.91970759,62bbe60bf3d75ef465d3e404,0,117,117,64,1,onetwo,,,,,,,,,,,,,,,,,,,,,,,,,,,,,,,,,,,,,,,,,,,,,,,,,,,,,,,,,,,,,,,,,,,,,,,,,,,,,,,,,,,,,,,,,,,,,,,,,,,,,,,,,,,,,,,,,,,,,,,,,,,,,,,,,,,,,,,,,,,,,,,,,,,,,,,,
,,,,,,60e911d8667eccfdd32a590e,62bbfb270e15271e2faad413,2022-06-29_19h12.13.607,Colour_Asymmetry_Pilot,2022.1.3,Win32,59.91970759,62bbe60bf3d75ef465d3e404,0,118,118,33,1,onethree,,,,,,,,,,,,,,,,,,,,,,,,,,,,,,,,,,,,,,,,,,,,,,,,,,,,,,,,,,,,,,,,,,,,,,,,,,,,,,,,,,,,,,,,,,,,,,,,,,,,,,,,,,,,,,,,,,,,,,,,,,,,,,,,,,,,,,,,,,,,,,,,,,,,,,,,
,,,,,,60e911d8667eccfdd32a590e,62bbfb270e15271e2faad413,2022-06-29_19h12.13.607,Colour_Asymmetry_Pilot,2022.1.3,Win32,59.91970759,62bbe60bf3d75ef465d3e404,0,119,119,25,1,onethree,,,,,,,,,,,,,,,,,,,,,,,,,,,,,,,,,,,,,,,,,,,,,,,,,,,,,,,,,,,,,,,,,,,,,,,,,,,,,,,,,,,,,,,,,,,,,,,,,,,,,,,,,,,,,,,,,,,,,,,,,,,,,,,,,,,,,,,,,,,,,,,,,,,,,,,,
,,,,,,60e911d8667eccfdd32a590e,62bbfb270e15271e2faad413,2022-06-29_19h12.13.607,Colour_Asymmetry_Pilot,2022.1.3,Win32,59.91970759,62bbe60bf3d75ef465d3e404,0,120,120,119,1,fourthree,,,,,,,,,,,,,,,,,,,,,,,,,,,,,,,,,,,,,,,,,,,,,,,,,,,,,,,,,,,,,,,,,,,,,,,,,,,,,,,,,,,,,,,,,,,,,,,,,,,,,,,,,,,,,,,,,,,,,,,,,,,,,,,,,,,,,,,,,,,,,,,,,,,,,,,,
,,,,,,60e911d8667eccfdd32a590e,62bbfb270e15271e2faad413,2022-06-29_19h12.13.607,Colour_Asymmetry_Pilot,2022.1.3,Win32,59.91970759,62bbe60bf3d75ef465d3e404,0,121,121,90,1,twoone,,,,,,,,,,,,,,,,,,,,,,,,,,,,,,,,,,,,,,,,,,,,,,,,,,,,,,,,,,,,,,,,,,,,,,,,,,,,,,,,,,,,,,,,,,,,,,,,,,,,,,,,,,,,,,,,,,,,,,,,,,,,,,,,,,,,,,,,,,,,,,,,,,,,,,,,
,,,,,,60e911d8667eccfdd32a590e,62bbfb270e15271e2faad413,2022-06-29_19h12.13.607,Colour_Asymmetry_Pilot,2022.1.3,Win32,59.91970759,62bbe60bf3d75ef465d3e404,0,122,122,113,1,onethree,,,,,,,,,,,,,,,,,,,,,,,,,,,,,,,,,,,,,,,,,,,,,,,,,,,,,,,,,,,,,,,,,,,,,,,,,,,,,,,,,,,,,,,,,,,,,,,,,,,,,,,,,,,,,,,,,,,,,,,,,,,,,,,,,,,,,,,,,,,,,,,,,,,,,,,,
,,,,,,60e911d8667eccfdd32a590e,62bbfb270e15271e2faad413,2022-06-29_19h12.13.607,Colour_Asymmetry_Pilot,2022.1.3,Win32,59.91970759,62bbe60bf3d75ef465d3e404,0,123,123,6,1,fourtwo,,,,,,,,,,,,,,,,,,,,,,,,,,,,,,,,,,,,,,,,,,,,,,,,,,,,,,,,,,,,,,,,,,,,,,,,,,,,,,,,,,,,,,,,,,,,,,,,,,,,,,,,,,,,,,,,,,,,,,,,,,,,,,,,,,,,,,,,,,,,,,,,,,,,,,,,
,,,,,,60e911d8667eccfdd32a590e,62bbfb270e15271e2faad413,2022-06-29_19h12.13.607,Colour_Asymmetry_Pilot,2022.1.3,Win32,59.91970759,62bbe60bf3d75ef465d3e404,0,124,124,24,1,onetwo,,,,,,,,,,,,,,,,,,,,,,,,,,,,,,,,,,,,,,,,,,,,,,,,,,,,,,,,,,,,,,,,,,,,,,,,,,,,,,,,,,,,,,,,,,,,,,,,,,,,,,,,,,,,,,,,,,,,,,,,,,,,,,,,,,,,,,,,,,,,,,,,,,,,,,,,
,,,,,,60e911d8667eccfdd32a590e,62bbfb270e15271e2faad413,2022-06-29_19h12.13.607,Colour_Asymmetry_Pilot,2022.1.3,Win32,59.91970759,62bbe60bf3d75ef465d3e404,0,125,125,120,1,onetwo,,,,,,,,,,,,,,,,,,,,,,,,,,,,,,,,,,,,,,,,,,,,,,,,,,,,,,,,,,,,,,,,,,,,,,,,,,,,,,,,,,,,,,,,,,,,,,,,,,,,,,,,,,,,,,,,,,,,,,,,,,,,,,,,,,,,,,,,,,,,,,,,,,,,,,,,
,,,,,,60e911d8667eccfdd32a590e,62bbfb270e15271e2faad413,2022-06-29_19h12.13.607,Colour_Asymmetry_Pilot,2022.1.3,Win32,59.91970759,62bbe60bf3d75ef465d3e404,0,126,126,141,1,threefour,,,,,,,,,,,,,,,,,,,,,,,,,,,,,,,,,,,,,,,,,,,,,,,,,,,,,,,,,,,,,,,,,,,,,,,,,,,,,,,,,,,,,,,,,,,,,,,,,,,,,,,,,,,,,,,,,,,,,,,,,,,,,,,,,,,,,,,,,,,,,,,,,,,,,,,,
,,,,,,60e911d8667eccfdd32a590e,62bbfb270e15271e2faad413,2022-06-29_19h12.13.607,Colour_Asymmetry_Pilot,2022.1.3,Win32,59.91970759,62bbe60bf3d75ef465d3e404,0,127,127,102,1,fourtwo,,,,,,,,,,,,,,,,,,,,,,,,,,,,,,,,,,,,,,,,,,,,,,,,,,,,,,,,,,,,,,,,,,,,,,,,,,,,,,,,,,,,,,,,,,,,,,,,,,,,,,,,,,,,,,,,,,,,,,,,,,,,,,,,,,,,,,,,,,,,,,,,,,,,,,,,
,,,,,,60e911d8667eccfdd32a590e,62bbfb270e15271e2faad413,2022-06-29_19h12.13.607,Colour_Asymmetry_Pilot,2022.1.3,Win32,59.91970759,62bbe60bf3d75ef465d3e404,0,128,128,140,1,threeone,,,,,,,,,,,,,,,,,,,,,,,,,,,,,,,,,,,,,,,,,,,,,,,,,,,,,,,,,,,,,,,,,,,,,,,,,,,,,,,,,,,,,,,,,,,,,,,,,,,,,,,,,,,,,,,,,,,,,,,,,,,,,,,,,,,,,,,,,,,,,,,,,,,,,,,,
,,,,,,60e911d8667eccfdd32a590e,62bbfb270e15271e2faad413,2022-06-29_19h12.13.607,Colour_Asymmetry_Pilot,2022.1.3,Win32,59.91970759,62bbe60bf3d75ef465d3e404,0,129,129,0,1,onetwo,,,,,,,,,,,,,,,,,,,,,,,,,,,,,,,,,,,,,,,,,,,,,,,,,,,,,,,,,,,,,,,,,,,,,,,,,,,,,,,,,,,,,,,,,,,,,,,,,,,,,,,,,,,,,,,,,,,,,,,,,,,,,,,,,,,,,,,,,,,,,,,,,,,,,,,,
,,,,,,60e911d8667eccfdd32a590e,62bbfb270e15271e2faad413,2022-06-29_19h12.13.607,Colour_Asymmetry_Pilot,2022.1.3,Win32,59.91970759,62bbe60bf3d75ef465d3e404,0,130,130,127,1,fourthree,,,,,,,,,,,,,,,,,,,,,,,,,,,,,,,,,,,,,,,,,,,,,,,,,,,,,,,,,,,,,,,,,,,,,,,,,,,,,,,,,,,,,,,,,,,,,,,,,,,,,,,,,,,,,,,,,,,,,,,,,,,,,,,,,,,,,,,,,,,,,,,,,,,,,,,,
,,,,,,60e911d8667eccfdd32a590e,62bbfb270e15271e2faad413,2022-06-29_19h12.13.607,Colour_Asymmetry_Pilot,2022.1.3,Win32,59.91970759,62bbe60bf3d75ef465d3e404,0,131,131,12,1,threeone,,,,,,,,,,,,,,,,,,,,,,,,,,,,,,,,,,,,,,,,,,,,,,,,,,,,,,,,,,,,,,,,,,,,,,,,,,,,,,,,,,,,,,,,,,,,,,,,,,,,,,,,,,,,,,,,,,,,,,,,,,,,,,,,,,,,,,,,,,,,,,,,,,,,,,,,
,,,,,,60e911d8667eccfdd32a590e,62bbfb270e15271e2faad413,2022-06-29_19h12.13.607,Colour_Asymmetry_Pilot,2022.1.3,Win32,59.91970759,62bbe60bf3d75ef465d3e404,0,132,132,65,1,onethree,,,,,,,,,,,,,,,,,,,,,,,,,,,,,,,,,,,,,,,,,,,,,,,,,,,,,,,,,,,,,,,,,,,,,,,,,,,,,,,,,,,,,,,,,,,,,,,,,,,,,,,,,,,,,,,,,,,,,,,,,,,,,,,,,,,,,,,,,,,,,,,,,,,,,,,,
,,,,,,60e911d8667eccfdd32a590e,62bbfb270e15271e2faad413,2022-06-29_19h12.13.607,Colour_Asymmetry_Pilot,2022.1.3,Win32,59.91970759,62bbe60bf3d75ef465d3e404,0,133,133,131,1,twofour,,,,,,,,,,,,,,,,,,,,,,,,,,,,,,,,,,,,,,,,,,,,,,,,,,,,,,,,,,,,,,,,,,,,,,,,,,,,,,,,,,,,,,,,,,,,,,,,,,,,,,,,,,,,,,,,,,,,,,,,,,,,,,,,,,,,,,,,,,,,,,,,,,,,,,,,
,,,,,,60e911d8667eccfdd32a590e,62bbfb270e15271e2faad413,2022-06-29_19h12.13.607,Colour_Asymmetry_Pilot,2022.1.3,Win32,59.91970759,62bbe60bf3d75ef465d3e404,0,134,134,156,1,threeone,,,,,,,,,,,,,,,,,,,,,,,,,,,,,,,,,,,,,,,,,,,,,,,,,,,,,,,,,,,,,,,,,,,,,,,,,,,,,,,,,,,,,,,,,,,,,,,,,,,,,,,,,,,,,,,,,,,,,,,,,,,,,,,,,,,,,,,,,,,,,,,,,,,,,,,,
,,,,,,60e911d8667eccfdd32a590e,62bbfb270e15271e2faad413,2022-06-29_19h12.13.607,Colour_Asymmetry_Pilot,2022.1.3,Win32,59.91970759,62bbe60bf3d75ef465d3e404,0,135,135,75,1,twofour,,,,,,,,,,,,,,,,,,,,,,,,,,,,,,,,,,,,,,,,,,,,,,,,,,,,,,,,,,,,,,,,,,,,,,,,,,,,,,,,,,,,,,,,,,,,,,,,,,,,,,,,,,,,,,,,,,,,,,,,,,,,,,,,,,,,,,,,,,,,,,,,,,,,,,,,
,,,,,,60e911d8667eccfdd32a590e,62bbfb270e15271e2faad413,2022-06-29_19h12.13.607,Colour_Asymmetry_Pilot,2022.1.3,Win32,59.91970759,62bbe60bf3d75ef465d3e404,0,136,136,130,1,twoone,,,,,,,,,,,,,,,,,,,,,,,,,,,,,,,,,,,,,,,,,,,,,,,,,,,,,,,,,,,,,,,,,,,,,,,,,,,,,,,,,,,,,,,,,,,,,,,,,,,,,,,,,,,,,,,,,,,,,,,,,,,,,,,,,,,,,,,,,,,,,,,,,,,,,,,,
,,,,,,60e911d8667eccfdd32a590e,62bbfb270e15271e2faad413,2022-06-29_19h12.13.607,Colour_Asymmetry_Pilot,2022.1.3,Win32,59.91970759,62bbe60bf3d75ef465d3e404,0,137,137,138,1,twoone,,,,,,,,,,,,,,,,,,,,,,,,,,,,,,,,,,,,,,,,,,,,,,,,,,,,,,,,,,,,,,,,,,,,,,,,,,,,,,,,,,,,,,,,,,,,,,,,,,,,,,,,,,,,,,,,,,,,,,,,,,,,,,,,,,,,,,,,,,,,,,,,,,,,,,,,
,,,,,,60e911d8667eccfdd32a590e,62bbfb270e15271e2faad413,2022-06-29_19h12.13.607,Colour_Asymmetry_Pilot,2022.1.3,Win32,59.91970759,62bbe60bf3d75ef465d3e404,0,138,138,117,1,threefour,,,,,,,,,,,,,,,,,,,,,,,,,,,,,,,,,,,,,,,,,,,,,,,,,,,,,,,,,,,,,,,,,,,,,,,,,,,,,,,,,,,,,,,,,,,,,,,,,,,,,,,,,,,,,,,,,,,,,,,,,,,,,,,,,,,,,,,,,,,,,,,,,,,,,,,,
,,,,,,60e911d8667eccfdd32a590e,62bbfb270e15271e2faad413,2022-06-29_19h12.13.607,Colour_Asymmetry_Pilot,2022.1.3,Win32,59.91970759,62bbe60bf3d75ef465d3e404,0,139,139,93,1,threefour,,,,,,,,,,,,,,,,,,,,,,,,,,,,,,,,,,,,,,,,,,,,,,,,,,,,,,,,,,,,,,,,,,,,,,,,,,,,,,,,,,,,,,,,,,,,,,,,,,,,,,,,,,,,,,,,,,,,,,,,,,,,,,,,,,,,,,,,,,,,,,,,,,,,,,,,
,,,,,,60e911d8667eccfdd32a590e,62bbfb270e15271e2faad413,2022-06-29_19h12.13.607,Colour_Asymmetry_Pilot,2022.1.3,Win32,59.91970759,62bbe60bf3d75ef465d3e404,0,140,140,118,1,fourtwo,,,,,,,,,,,,,,,,,,,,,,,,,,,,,,,,,,,,,,,,,,,,,,,,,,,,,,,,,,,,,,,,,,,,,,,,,,,,,,,,,,,,,,,,,,,,,,,,,,,,,,,,,,,,,,,,,,,,,,,,,,,,,,,,,,,,,,,,,,,,,,,,,,,,,,,,
,,,,,,60e911d8667eccfdd32a590e,62bbfb270e15271e2faad413,2022-06-29_19h12.13.607,Colour_Asymmetry_Pilot,2022.1.3,Win32,59.91970759,62bbe60bf3d75ef465d3e404,0,141,141,11,1,twofour,,,,,,,,,,,,,,,,,,,,,,,,,,,,,,,,,,,,,,,,,,,,,,,,,,,,,,,,,,,,,,,,,,,,,,,,,,,,,,,,,,,,,,,,,,,,,,,,,,,,,,,,,,,,,,,,,,,,,,,,,,,,,,,,,,,,,,,,,,,,,,,,,,,,,,,,
,,,,,,60e911d8667eccfdd32a590e,62bbfb270e15271e2faad413,2022-06-29_19h12.13.607,Colour_Asymmetry_Pilot,2022.1.3,Win32,59.91970759,62bbe60bf3d75ef465d3e404,0,142,142,36,1,threeone,,,,,,,,,,,,,,,,,,,,,,,,,,,,,,,,,,,,,,,,,,,,,,,,,,,,,,,,,,,,,,,,,,,,,,,,,,,,,,,,,,,,,,,,,,,,,,,,,,,,,,,,,,,,,,,,,,,,,,,,,,,,,,,,,,,,,,,,,,,,,,,,,,,,,,,,
,,,,,,60e911d8667eccfdd32a590e,62bbfb270e15271e2faad413,2022-06-29_19h12.13.607,Colour_Asymmetry_Pilot,2022.1.3,Win32,59.91970759,62bbe60bf3d75ef465d3e404,0,143,143,82,1,twoone,,,,,,,,,,,,,,,,,,,,,,,,,,,,,,,,,,,,,,,,,,,,,,,,,,,,,,,,,,,,,,,,,,,,,,,,,,,,,,,,,,,,,,,,,,,,,,,,,,,,,,,,,,,,,,,,,,,,,,,,,,,,,,,,,,,,,,,,,,,,,,,,,,,,,,,,
,,,,,,60e911d8667eccfdd32a590e,62bbfb270e15271e2faad413,2022-06-29_19h12.13.607,Colour_Asymmetry_Pilot,2022.1.3,Win32,59.91970759,62bbe60bf3d75ef465d3e404,0,144,144,19,1,twofour,,,,,,,,,,,,,,,,,,,,,,,,,,,,,,,,,,,,,,,,,,,,,,,,,,,,,,,,,,,,,,,,,,,,,,,,,,,,,,,,,,,,,,,,,,,,,,,,,,,,,,,,,,,,,,,,,,,,,,,,,,,,,,,,,,,,,,,,,,,,,,,,,,,,,,,,
,,,,,,60e911d8667eccfdd32a590e,62bbfb270e15271e2faad413,2022-06-29_19h12.13.607,Colour_Asymmetry_Pilot,2022.1.3,Win32,59.91970759,62bbe60bf3d75ef465d3e404,0,145,145,16,1,onetwo,,,,,,,,,,,,,,,,,,,,,,,,,,,,,,,,,,,,,,,,,,,,,,,,,,,,,,,,,,,,,,,,,,,,,,,,,,,,,,,,,,,,,,,,,,,,,,,,,,,,,,,,,,,,,,,,,,,,,,,,,,,,,,,,,,,,,,,,,,,,,,,,,,,,,,,,
,,,,,,60e911d8667eccfdd32a590e,62bbfb270e15271e2faad413,2022-06-29_19h12.13.607,Colour_Asymmetry_Pilot,2022.1.3,Win32,59.91970759,62bbe60bf3d75ef465d3e404,0,146,146,61,1,threefour,,,,,,,,,,,,,,,,,,,,,,,,,,,,,,,,,,,,,,,,,,,,,,,,,,,,,,,,,,,,,,,,,,,,,,,,,,,,,,,,,,,,,,,,,,,,,,,,,,,,,,,,,,,,,,,,,,,,,,,,,,,,,,,,,,,,,,,,,,,,,,,,,,,,,,,,
,,,,,,60e911d8667eccfdd32a590e,62bbfb270e15271e2faad413,2022-06-29_19h12.13.607,Colour_Asymmetry_Pilot,2022.1.3,Win32,59.91970759,62bbe60bf3d75ef465d3e404,0,147,147,149,1,threefour,,,,,,,,,,,,,,,,,,,,,,,,,,,,,,,,,,,,,,,,,,,,,,,,,,,,,,,,,,,,,,,,,,,,,,,,,,,,,,,,,,,,,,,,,,,,,,,,,,,,,,,,,,,,,,,,,,,,,,,,,,,,,,,,,,,,,,,,,,,,,,,,,,,,,,,,
,,,,,,60e911d8667eccfdd32a590e,62bbfb270e15271e2faad413,2022-06-29_19h12.13.607,Colour_Asymmetry_Pilot,2022.1.3,Win32,59.91970759,62bbe60bf3d75ef465d3e404,0,148,148,98,1,twoone,,,,,,,,,,,,,,,,,,,,,,,,,,,,,,,,,,,,,,,,,,,,,,,,,,,,,,,,,,,,,,,,,,,,,,,,,,,,,,,,,,,,,,,,,,,,,,,,,,,,,,,,,,,,,,,,,,,,,,,,,,,,,,,,,,,,,,,,,,,,,,,,,,,,,,,,
,,,,,,60e911d8667eccfdd32a590e,62bbfb270e15271e2faad413,2022-06-29_19h12.13.607,Colour_Asymmetry_Pilot,2022.1.3,Win32,59.91970759,62bbe60bf3d75ef465d3e404,0,149,149,39,1,fourthree,,,,,,,,,,,,,,,,,,,,,,,,,,,,,,,,,,,,,,,,,,,,,,,,,,,,,,,,,,,,,,,,,,,,,,,,,,,,,,,,,,,,,,,,,,,,,,,,,,,,,,,,,,,,,,,,,,,,,,,,,,,,,,,,,,,,,,,,,,,,,,,,,,,,,,,,
,,,,,,60e911d8667eccfdd32a590e,62bbfb270e15271e2faad413,2022-06-29_19h12.13.607,Colour_Asymmetry_Pilot,2022.1.3,Win32,59.91970759,62bbe60bf3d75ef465d3e404,0,150,150,37,1,threefour,,,,,,,,,,,,,,,,,,,,,,,,,,,,,,,,,,,,,,,,,,,,,,,,,,,,,,,,,,,,,,,,,,,,,,,,,,,,,,,,,,,,,,,,,,,,,,,,,,,,,,,,,,,,,,,,,,,,,,,,,,,,,,,,,,,,,,,,,,,,,,,,,,,,,,,,
,,,,,,60e911d8667eccfdd32a590e,62bbfb270e15271e2faad413,2022-06-29_19h12.13.607,Colour_Asymmetry_Pilot,2022.1.3,Win32,59.91970759,62bbe60bf3d75ef465d3e404,0,151,151,63,1,fourthree,,,,,,,,,,,,,,,,,,,,,,,,,,,,,,,,,,,,,,,,,,,,,,,,,,,,,,,,,,,,,,,,,,,,,,,,,,,,,,,,,,,,,,,,,,,,,,,,,,,,,,,,,,,,,,,,,,,,,,,,,,,,,,,,,,,,,,,,,,,,,,,,,,,,,,,,
,,,,,,60e911d8667eccfdd32a590e,62bbfb270e15271e2faad413,2022-06-29_19h12.13.607,Colour_Asymmetry_Pilot,2022.1.3,Win32,59.91970759,62bbe60bf3d75ef465d3e404,0,152,152,103,1,fourthree,,,,,,,,,,,,,,,,,,,,,,,,,,,,,,,,,,,,,,,,,,,,,,,,,,,,,,,,,,,,,,,,,,,,,,,,,,,,,,,,,,,,,,,,,,,,,,,,,,,,,,,,,,,,,,,,,,,,,,,,,,,,,,,,,,,,,,,,,,,,,,,,,,,,,,,,
,,,,,,60e911d8667eccfdd32a590e,62bbfb270e15271e2faad413,2022-06-29_19h12.13.607,Colour_Asymmetry_Pilot,2022.1.3,Win32,59.91970759,62bbe60bf3d75ef465d3e404,0,153,153,125,1,threefour,,,,,,,,,,,,,,,,,,,,,,,,,,,,,,,,,,,,,,,,,,,,,,,,,,,,,,,,,,,,,,,,,,,,,,,,,,,,,,,,,,,,,,,,,,,,,,,,,,,,,,,,,,,,,,,,,,,,,,,,,,,,,,,,,,,,,,,,,,,,,,,,,,,,,,,,
,,,,,,60e911d8667eccfdd32a590e,62bbfb270e15271e2faad413,2022-06-29_19h12.13.607,Colour_Asymmetry_Pilot,2022.1.3,Win32,59.91970759,62bbe60bf3d75ef465d3e404,0,154,154,20,1,threeone,,,,,,,,,,,,,,,,,,,,,,,,,,,,,,,,,,,,,,,,,,,,,,,,,,,,,,,,,,,,,,,,,,,,,,,,,,,,,,,,,,,,,,,,,,,,,,,,,,,,,,,,,,,,,,,,,,,,,,,,,,,,,,,,,,,,,,,,,,,,,,,,,,,,,,,,
,,,,,,60e911d8667eccfdd32a590e,62bbfb270e15271e2faad413,2022-06-29_19h12.13.607,Colour_Asymmetry_Pilot,2022.1.3,Win32,59.91970759,62bbe60bf3d75ef465d3e404,0,155,155,58,1,twoone,,,,,,,,,,,,,,,,,,,,,,,,,,,,,,,,,,,,,,,,,,,,,,,,,,,,,,,,,,,,,,,,,,,,,,,,,,,,,,,,,,,,,,,,,,,,,,,,,,,,,,,,,,,,,,,,,,,,,,,,,,,,,,,,,,,,,,,,,,,,,,,,,,,,,,,,
,,,,,,60e911d8667eccfdd32a590e,62bbfb270e15271e2faad413,2022-06-29_19h12.13.607,Colour_Asymmetry_Pilot,2022.1.3,Win32,59.91970759,62bbe60bf3d75ef465d3e404,0,156,156,42,1,twoone,,,,,,,,,,,,,,,,,,,,,,,,,,,,,,,,,,,,,,,,,,,,,,,,,,,,,,,,,,,,,,,,,,,,,,,,,,,,,,,,,,,,,,,,,,,,,,,,,,,,,,,,,,,,,,,,,,,,,,,,,,,,,,,,,,,,,,,,,,,,,,,,,,,,,,,,
,,,,,,60e911d8667eccfdd32a590e,62bbfb270e15271e2faad413,2022-06-29_19h12.13.607,Colour_Asymmetry_Pilot,2022.1.3,Win32,59.91970759,62bbe60bf3d75ef465d3e404,0,157,157,94,1,fourtwo,,,,,,,,,,,,,,,,,,,,,,,,,,,,,,,,,,,,,,,,,,,,,,,,,,,,,,,,,,,,,,,,,,,,,,,,,,,,,,,,,,,,,,,,,,,,,,,,,,,,,,,,,,,,,,,,,,,,,,,,,,,,,,,,,,,,,,,,,,,,,,,,,,,,,,,,
,,,,,,60e911d8667eccfdd32a590e,62bbfb270e15271e2faad413,2022-06-29_19h12.13.607,Colour_Asymmetry_Pilot,2022.1.3,Win32,59.91970759,62bbe60bf3d75ef465d3e404,0,158,158,68,1,threeone,,,,,,,,,,,,,,,,,,,,,,,,,,,,,,,,,,,,,,,,,,,,,,,,,,,,,,,,,,,,,,,,,,,,,,,,,,,,,,,,,,,,,,,,,,,,,,,,,,,,,,,,,,,,,,,,,,,,,,,,,,,,,,,,,,,,,,,,,,,,,,,,,,,,,,,,
,,,,,,60e911d8667eccfdd32a590e,62bbfb270e15271e2faad413,2022-06-29_19h12.13.607,Colour_Asymmetry_Pilot,2022.1.3,Win32,59.91970759,62bbe60bf3d75ef465d3e404,0,159,159,18,1,twoone,,,,,,,,,,,,,,,,,,,,,,,,,,,,,,,,,,,,,,,,,,,,,,,,,,,,,,,,,,,,,,,,,,,,,,,,,,,,,,,,,,,,,,,,,,,,,,,,,,,,,,,,,,,,,,,,,,,,,,,,,,,,,,,,,,,,,,,,,,,,,,,,,,,,,,,,
,,,,,,60e911d8667eccfdd32a590e,62bbfb270e15271e2faad413,2022-06-29_19h12.13.607,Colour_Asymmetry_Pilot,2022.1.3,Win32,59.91970759,62bbe60bf3d75ef465d3e404,0,160,160,161,1,onethree,,,,,,,,,,,,,,,,,,,,,,,,,,,,,,,,,,,,,,,,,,,,,,,,,,,,,,,,,,,,,,,,,,,,,,,,,,,,,,,,,,,,,,,,,,,,,,,,,,,,,,,,,,,,,,,,,,,,,,,,,,,,,,,,,,,,,,,,,,,,,,,,,,,,,,,,
,,,,,,60e911d8667eccfdd32a590e,62bbfb270e15271e2faad413,2022-06-29_19h12.13.607,Colour_Asymmetry_Pilot,2022.1.3,Win32,59.91970759,62bbe60bf3d75ef465d3e404,0,161,161,71,1,fourthree,,,,,,,,,,,,,,,,,,,,,,,,,,,,,,,,,,,,,,,,,,,,,,,,,,,,,,,,,,,,,,,,,,,,,,,,,,,,,,,,,,,,,,,,,,,,,,,,,,,,,,,,,,,,,,,,,,,,,,,,,,,,,,,,,,,,,,,,,,,,,,,,,,,,,,,,
,,,,,,60e911d8667eccfdd32a590e,62bbfb270e15271e2faad413,2022-06-29_19h12.13.607,Colour_Asymmetry_Pilot,2022.1.3,Win32,59.91970759,62bbe60bf3d75ef465d3e404,,,,,,,space,1.7427,space,7.7833,space,52.9569,space,35.9955,space,1.5093,space,3.5457,"[0.23120000000000007,-0.7726,-0.34120000000000006]",threeone,"[0.09799999999999986,-0.24719999999999998,0.15280000000000005]",2,12.9275,105,-57,1,0,0,response3disk_5,6,-9,1,0,0,rectangle_8,58,119,1,0,0,response1disk_7,7,4,-7,-3,1,0,0,rectangle_4,0,0,0,0,1,,,,,,,,,,,,,,,,,,,,,,,,,,,,,,,,,,,,,,,,,,,,,,,,,,,,,,,,,,,,,,,,,,,,,,,,,,,,,,,,,,,,,,,,,,,,,,,,,,,,,,,,
,,,,,,60e911d8667eccfdd32a590e,62bbfb270e15271e2faad413,2022-06-29_19h12.13.607,Colour_Asymmetry_Pilot,2022.1.3,Win32,59.91970759,62bbe60bf3d75ef465d3e404,,,,,,,,,,,,,,,,,,,"[-0.30200000000000005,0.14500000000000002,0.2784]",fourthree,"[0.19199999999999995,0.18419999999999992,0.5136000000000001]",-2,3.3502,-101,-45,1,0,0,response5disk_5,-27,6,1,0,0,rectangle_8,-27,6,1,0,0,,,4,-27,6,1,0,0,,1,0,1,0,1,,,,,,,,,,,,,,,,,,,,,,,,,,,,,,,,,,,,,,,,,,,,,,,,,,,,,,,,,,,,,,,,,,,,,,,,,,,,,,,,,,,,,,,,,,,,,,,,,,,,,,,,
,,,,,,60e911d8667eccfdd32a590e,62bbfb270e15271e2faad413,2022-06-29_19h12.13.607,Colour_Asymmetry_Pilot,2022.1.3,Win32,59.91970759,62bbe60bf3d75ef465d3e404,,,,,,,,,,,,,,,,,,,"[-0.6942,-0.7648,-0.12959999999999994]",onethree,"[0.3802000000000001,0.19199999999999995,-0.6394]",-1,2.267,-64,-120,1,0,0,response5disk_5,-6,-1,1,0,0,rectangle_8,-6,-1,1,0,0,,,4,-6,-1,1,0,0,,2,0,2,0,1,,,,,,,,,,,,,,,,,,,,,,,,,,,,,,,,,,,,,,,,,,,,,,,,,,,,,,,,,,,,,,,,,,,,,,,,,,,,,,,,,,,,,,,,,,,,,,,,,,,,,,,,
,,,,,,60e911d8667eccfdd32a590e,62bbfb270e15271e2faad413,2022-06-29_19h12.13.607,Colour_Asymmetry_Pilot,2022.1.3,Win32,59.91970759,62bbe60bf3d75ef465d3e404,,,,,,,,,,,,,,,,,,,"[-0.9766,-0.6472,0.07440000000000002]",onetwo,"[0.30180000000000007,-0.7884,-0.9844]",-4,3.3665,-63,113,1,0,0,response7disk_5,-3,7,1,0,0,rectangle_8,-3,7,1,0,0,,,4,-3,7,1,0,0,,3,0,3,0,1,,,,,,,,,,,,,,,,,,,,,,,,,,,,,,,,,,,,,,,,,,,,,,,,,,,,,,,,,,,,,,,,,,,,,,,,,,,,,,,,,,,,,,,,,,,,,,,,,,,,,,,,
,,,,,,60e911d8667eccfdd32a590e,62bbfb270e15271e2faad413,2022-06-29_19h12.13.607,Colour_Asymmetry_Pilot,2022.1.3,Win32,59.91970759,62bbe60bf3d75ef465d3e404,,,,,,,,,,,,,,,,,,,"[0.18419999999999992,-0.4276,-0.404]",onethree,"[-0.01980000000000004,-0.5138,-0.38039999999999996]",-1,3.0163,-42,-114,1,0,0,response5disk_5,-2,-2,1,0,0,rectangle_8,-2,-2,1,0,0,,,4,-2,-2,1,0,0,,4,0,4,0,1,,,,,,,,,,,,,,,,,,,,,,,,,,,,,,,,,,,,,,,,,,,,,,,,,,,,,,,,,,,,,,,,,,,,,,,,,,,,,,,,,,,,,,,,,,,,,,,,,,,,,,,,
,,,,,,60e911d8667eccfdd32a590e,62bbfb270e15271e2faad413,2022-06-29_19h12.13.607,Colour_Asymmetry_Pilot,2022.1.3,Win32,59.91970759,62bbe60bf3d75ef465d3e404,,,,,,,,,,,,,,,,,,,"[-0.5922000000000001,-0.7492000000000001,-0.5296000000000001]",fourtwo,"[0.8274000000000001,-0.5844,-0.9452]",-4,1.9717,-68,100,1,0,0,response7disk_5,-37,-1,1,0,0,rectangle_8,-37,-1,1,0,0,,,4,-37,-1,1,0,0,,5,0,5,0,1,,,,,,,,,,,,,,,,,,,,,,,,,,,,,,,,,,,,,,,,,,,,,,,,,,,,,,,,,,,,,,,,,,,,,,,,,,,,,,,,,,,,,,,,,,,,,,,,,,,,,,,,
,,,,,,60e911d8667eccfdd32a590e,62bbfb270e15271e2faad413,2022-06-29_19h12.13.607,Colour_Asymmetry_Pilot,2022.1.3,Win32,59.91970759,62bbe60bf3d75ef465d3e404,,,,,,,,,,,,,,,,,,,"[-0.8198,-0.5138,-0.7492000000000001]",twoone,"[-0.38039999999999996,-0.4276,-0.1452]",-4,2.2507,-71,125,1,0,0,response7disk_5,-5,-6,1,0,0,rectangle_8,-5,-6,1,0,0,,,4,-5,-6,1,0,0,,6,0,6,0,1,,,,,,,,,,,,,,,,,,,,,,,,,,,,,,,,,,,,,,,,,,,,,,,,,,,,,,,,,,,,,,,,,,,,,,,,,,,,,,,,,,,,,,,,,,,,,,,,,,,,,,,,
,,,,,,60e911d8667eccfdd32a590e,62bbfb270e15271e2faad413,2022-06-29_19h12.13.607,Colour_Asymmetry_Pilot,2022.1.3,Win32,59.91970759,62bbe60bf3d75ef465d3e404,,,,,,,,,,,,,,,,,,,,threefour,,-4,1.7164,,,,,,,,,,,,,,,,,,,,,,,,,,,,,,,,space,2.7714,"[-0.9688,-0.7412000000000001,-0.4902000000000001]","[0.04299999999999993,0.16060000000000008,-0.6628000000000001]",-56,106,1,0,0,response7disk,-4,5,1,0,0,rectangle,-4,5,1,0,0,,2,0.0026,0,-4,5,1,0,0,0,0,0,95,1,14,second,,,,,,,,,,,,,,,,,,,,,,,,,,,,,,,,,,,,,,,,,,,,,,,,,,,,,,,,,,,,,,,,,,,
,,,,,,60e911d8667eccfdd32a590e,62bbfb270e15271e2faad413,2022-06-29_19h12.13.607,Colour_Asymmetry_Pilot,2022.1.3,Win32,59.91970759,62bbe60bf3d75ef465d3e404,,,,,,,,,,,,,,,,,,,,threefour,,-4,0.7667,,,,,,,,,,,,,,,,,,,,,,,,,,,,,,,,,,"[0.8274000000000001,-0.5844,-0.9452]","[0.7018,0.7176,0.6155999999999999]",-65,117,1,0,0,response7disk,-4,-1,1,0,0,rectangle,-4,-1,1,0,0,,2,0.0002,0,-4,-1,1,0,0,0,1,1,77,1,77,first,,,,,,,,,,,,,,,,,,,,,,,,,,,,,,,,,,,,,,,,,,,,,,,,,,,,,,,,,,,,,,,,,,,
,,,,,,60e911d8667eccfdd32a590e,62bbfb270e15271e2faad413,2022-06-29_19h12.13.607,Colour_Asymmetry_Pilot,2022.1.3,Win32,59.91970759,62bbe60bf3d75ef465d3e404,,,,,,,,,,,,,,,,,,,,onetwo,,4,1.6669,,,,,,,,,,,,,,,,,,,,,,,,,,,,,,,,,,"[-0.9688,-0.7412000000000001,-0.4902000000000001]","[-0.6235999999999999,-0.6786,-0.08239999999999992]",68,107,1,0,0,response1disk,-10,-11,1,0,0,rectangle,-10,-11,1,0,0,,1,0.0017,0,-10,-11,1,0,0,0,2,2,106,1,25,second,,,,,,,,,,,,,,,,,,,,,,,,,,,,,,,,,,,,,,,,,,,,,,,,,,,,,,,,,,,,,,,,,,,
,,,,,,60e911d8667eccfdd32a590e,62bbfb270e15271e2faad413,2022-06-29_19h12.13.607,Colour_Asymmetry_Pilot,2022.1.3,Win32,59.91970759,62bbe60bf3d75ef465d3e404,,,,,,,,,,,,,,,,,,,,threeone,,3,1.1169,,,,,,,,,,,,,,,,,,,,,,,,,,,,,,,,,,"[-0.45899999999999996,-0.3256,-0.9374]","[-0.45899999999999996,-0.3256,-0.9374]",96,64,1,0,0,response1disk,-8,2,1,0,0,rectangle,-8,2,1,0,0,,2,0.0017,0,-8,2,1,0,0,0,3,3,15,1,15,first,,,,,,,,,,,,,,,,,,,,,,,,,,,,,,,,,,,,,,,,,,,,,,,,,,,,,,,,,,,,,,,,,,,
,,,,,,60e911d8667eccfdd32a590e,62bbfb270e15271e2faad413,2022-06-29_19h12.13.607,Colour_Asymmetry_Pilot,2022.1.3,Win32,59.91970759,62bbe60bf3d75ef465d3e404,,,,,,,,,,,,,,,,,,,,threeone,,-4,0.5326,,,,,,,,,,,,,,,,,,,,,,,,,,,,,,,,,,"[-0.17659999999999998,0.3253999999999999,0.19999999999999996]","[-0.17659999999999998,-0.2864,-0.8354]",-69,111,1,0,0,response7disk,-11,2,1,0,0,rectangle,-11,2,1,0,0,,1,0.0017,0,-11,2,1,0,0,0,4,4,73,1,73,first,,,,,,,,,,,,,,,,,,,,,,,,,,,,,,,,,,,,,,,,,,,,,,,,,,,,,,,,,,,,,,,,,,,
,,,,,,60e911d8667eccfdd32a590e,62bbfb270e15271e2faad413,2022-06-29_19h12.13.607,Colour_Asymmetry_Pilot,2022.1.3,Win32,59.91970759,62bbe60bf3d75ef465d3e404,,,,,,,,,,,,,,,,,,,,threefour,,-4,1.7341,,,,,,,,,,,,,,,,,,,,,,,,,,,,,,,,,,"[-0.38039999999999996,-0.4276,-0.1452]","[-0.2942,-0.7648,-0.7492000000000001]",-54,116,1,0,0,response7disk,-10,-10,1,0,0,rectangle,-10,-10,1,0,0,,3,0.0017,0,-10,-10,1,0,0,0,5,5,140,1,59,second,,,,,,,,,,,,,,,,,,,,,,,,,,,,,,,,,,,,,,,,,,,,,,,,,,,,,,,,,,,,,,,,,,,
,,,,,,60e911d8667eccfdd32a590e,62bbfb270e15271e2faad413,2022-06-29_19h12.13.607,Colour_Asymmetry_Pilot,2022.1.3,Win32,59.91970759,62bbe60bf3d75ef465d3e404,,,,,,,,,,,,,,,,,,,,threefour,,-4,0.4505,,,,,,,,,,,,,,,,,,,,,,,,,,,,,,,,,,"[0.9842,0.7409999999999999,-0.6628000000000001]","[-0.9844,-0.9688,-0.9922]",-58,95,1,0,0,response7disk,-7,0,1,0,0,rectangle,-7,0,1,0,0,,2,0.0017,0,-7,0,1,0,0,0,6,6,79,1,79,first,,,,,,,,,,,,,,,,,,,,,,,,,,,,,,,,,,,,,,,,,,,,,,,,,,,,,,,,,,,,,,,,,,,
,,,,,,60e911d8667eccfdd32a590e,62bbfb270e15271e2faad413,2022-06-29_19h12.13.607,Colour_Asymmetry_Pilot,2022.1.3,Win32,59.91970759,62bbe60bf3d75ef465d3e404,,,,,,,,,,,,,,,,,,,,onethree,,-4,0.3837,,,,,,,,,,,,,,,,,,,,,,,,,,,,,,,,,,"[-0.06680000000000008,-0.45100000000000007,-0.906]","[-0.5922000000000001,-0.7492000000000001,-0.5296000000000001]",-76,107,1,0,0,response7disk,5,7,1,0,0,rectangle,5,7,1,0,0,,3,0.0019,0,5,7,1,0,0,0,7,7,9,1,9,first,,,,,,,,,,,,,,,,,,,,,,,,,,,,,,,,,,,,,,,,,,,,,,,,,,,,,,,,,,,,,,,,,,,
,,,,,,60e911d8667eccfdd32a590e,62bbfb270e15271e2faad413,2022-06-29_19h12.13.607,Colour_Asymmetry_Pilot,2022.1.3,Win32,59.91970759,62bbe60bf3d75ef465d3e404,,,,,,,,,,,,,,,,,,,,fourtwo,,-4,0.3667,,,,,,,,,,,,,,,,,,,,,,,,,,,,,,,,,,"[-0.9688,-0.38039999999999996,-0.41979999999999995]","[0.7018,0.7176,0.6155999999999999]",-56,92,1,0,0,response7disk,-11,13,1,0,0,rectangle,-11,13,1,0,0,,3,0.0002,0,-11,13,1,0,0,0,8,8,142,1,61,second,,,,,,,,,,,,,,,,,,,,,,,,,,,,,,,,,,,,,,,,,,,,,,,,,,,,,,,,,,,,,,,,,,,
,,,,,,60e911d8667eccfdd32a590e,62bbfb270e15271e2faad413,2022-06-29_19h12.13.607,Colour_Asymmetry_Pilot,2022.1.3,Win32,59.91970759,62bbe60bf3d75ef465d3e404,,,,,,,,,,,,,,,,,,,,onetwo,,-4,0.3337,,,,,,,,,,,,,,,,,,,,,,,,,,,,,,,,,,"[0.9686000000000001,0.5763999999999998,0.11359999999999992]","[-0.6706000000000001,-0.6157999999999999,-0.6786]",-61,83,1,0,0,response7disk,-2,-1,1,0,0,rectangle,-2,-1,1,0,0,,1,0.0016,0,-2,-1,1,0,0,0,9,9,91,1,10,second,,,,,,,,,,,,,,,,,,,,,,,,,,,,,,,,,,,,,,,,,,,,,,,,,,,,,,,,,,,,,,,,,,,
,,,,,,60e911d8667eccfdd32a590e,62bbfb270e15271e2faad413,2022-06-29_19h12.13.607,Colour_Asymmetry_Pilot,2022.1.3,Win32,59.91970759,62bbe60bf3d75ef465d3e404,,,,,,,,,,,,,,,,,,,,threeone,,-4,0.533,,,,,,,,,,,,,,,,,,,,,,,,,,,,,,,,,,"[-0.24719999999999998,0.5213999999999999,-0.12959999999999994]","[0.30180000000000007,-0.7884,-0.9844]",-59,110,1,0,0,response7disk,-13,1,1,0,0,rectangle,-13,1,1,0,0,,2,0.0016,0,-13,1,1,0,0,0,10,10,6,1,6,first,,,,,,,,,,,,,,,,,,,,,,,,,,,,,,,,,,,,,,,,,,,,,,,,,,,,,,,,,,,,,,,,,,,
,,,,,,60e911d8667eccfdd32a590e,62bbfb270e15271e2faad413,2022-06-29_19h12.13.607,Colour_Asymmetry_Pilot,2022.1.3,Win32,59.91970759,62bbe60bf3d75ef465d3e404,,,,,,,,,,,,,,,,,,,,twofour,,-4,0.4169,,,,,,,,,,,,,,,,,,,,,,,,,,,,,,,,,,"[-0.4982,-0.2942,-0.0354000000000001]","[0.7018,0.7802,-0.16079999999999994]",-56,108,1,0,0,response7disk,-10,7,1,0,0,rectangle,-10,7,1,0,0,,3,0.0016,0,-10,7,1,0,0,0,11,11,156,1,75,second,,,,,,,,,,,,,,,,,,,,,,,,,,,,,,,,,,,,,,,,,,,,,,,,,,,,,,,,,,,,,,,,,,,
,,,,,,60e911d8667eccfdd32a590e,62bbfb270e15271e2faad413,2022-06-29_19h12.13.607,Colour_Asymmetry_Pilot,2022.1.3,Win32,59.91970759,62bbe60bf3d75ef465d3e404,,,,,,,,,,,,,,,,,,,,onetwo,,-4,0.7336,,,,,,,,,,,,,,,,,,,,,,,,,,,,,,,,,,"[0.34099999999999997,0.5841999999999998,-0.9844]","[0.7646000000000002,0.07440000000000002,0.2704]",-58,101,1,0,0,response7disk,-4,-3,1,0,0,rectangle,-4,-3,1,0,0,,1,0.0017,0,-4,-3,1,0,0,0,12,12,94,1,13,second,,,,,,,,,,,,,,,,,,,,,,,,,,,,,,,,,,,,,,,,,,,,,,,,,,,,,,,,,,,,,,,,,,,
,,,,,,60e911d8667eccfdd32a590e,62bbfb270e15271e2faad413,2022-06-29_19h12.13.607,Colour_Asymmetry_Pilot,2022.1.3,Win32,59.91970759,62bbe60bf3d75ef465d3e404,,,,,,,,,,,,,,,,,,,,onetwo,,-3,0.6162,,,,,,,,,,,,,,,,,,,,,,,,,,,,,,,,,,"[-0.9138,-0.5296000000000001,-0.5529999999999999]","[-0.07459999999999989,0.12139999999999995,-0.9922]",-84,38,1,0,0,response7disk,4,-15,1,0,0,rectangle,4,-15,1,0,0,,1,0.0022,0,4,-15,1,0,0,0,13,13,118,1,37,second,,,,,,,,,,,,,,,,,,,,,,,,,,,,,,,,,,,,,,,,,,,,,,,,,,,,,,,,,,,,,,,,,,,
,,,,,,60e911d8667eccfdd32a590e,62bbfb270e15271e2faad413,2022-06-29_19h12.13.607,Colour_Asymmetry_Pilot,2022.1.3,Win32,59.91970759,62bbe60bf3d75ef465d3e404,,,,,,,,,,,,,,,,,,,,twofour,,-3,1.4665,,,,,,,,,,,,,,,,,,,,,,,,,,,,,,,,,,"[0.3802000000000001,0.19199999999999995,-0.6394]","[0.9842,0.7409999999999999,-0.6628000000000001]",-107,46,1,0,0,response7disk,-2,-6,1,0,0,rectangle,-2,-6,1,0,0,,3,0.0016,0,-2,-6,1,0,0,0,14,14,93,1,12,second,,,,,,,,,,,,,,,,,,,,,,,,,,,,,,,,,,,,,,,,,,,,,,,,,,,,,,,,,,,,,,,,,,,
,,,,,,60e911d8667eccfdd32a590e,62bbfb270e15271e2faad413,2022-06-29_19h12.13.607,Colour_Asymmetry_Pilot,2022.1.3,Win32,59.91970759,62bbe60bf3d75ef465d3e404,,,,,,,,,,,,,,,,,,,,twoone,,-4,0.6334,,,,,,,,,,,,,,,,,,,,,,,,,,,,,,,,,,"[-0.9688,-0.4902000000000001,-0.12159999999999993]","[0.7018,0.7802,-0.16079999999999994]",-57,98,1,0,0,response7disk,-28,11,1,0,0,rectangle,-28,11,1,0,0,,1,0.0015,0,-28,11,1,0,0,0,15,15,113,1,32,second,,,,,,,,,,,,,,,,,,,,,,,,,,,,,,,,,,,,,,,,,,,,,,,,,,,,,,,,,,,,,,,,,,,
,,,,,,60e911d8667eccfdd32a590e,62bbfb270e15271e2faad413,2022-06-29_19h12.13.607,Colour_Asymmetry_Pilot,2022.1.3,Win32,59.91970759,62bbe60bf3d75ef465d3e404,,,,,,,,,,,,,,,,,,,,onetwo,,-4,0.3166,,,,,,,,,,,,,,,,,,,,,,,,,,,,,,,,,,"[0.7176,-0.906,-0.6864]","[-0.9688,-0.4902000000000001,-0.12159999999999993]",-62,91,1,0,0,response7disk,-4,-9,1,0,0,rectangle,-4,-9,1,0,0,,1,0.0003,0,-4,-9,1,0,0,0,16,16,122,1,41,second,,,,,,,,,,,,,,,,,,,,,,,,,,,,,,,,,,,,,,,,,,,,,,,,,,,,,,,,,,,,,,,,,,,
,,,,,,60e911d8667eccfdd32a590e,62bbfb270e15271e2faad413,2022-06-29_19h12.13.607,Colour_Asymmetry_Pilot,2022.1.3,Win32,59.91970759,62bbe60bf3d75ef465d3e404,,,,,,,,,,,,,,,,,,,,onethree,,-4,0.4494,,,,,,,,,,,,,,,,,,,,,,,,,,,,,,,,,,"[0.12939999999999996,-0.2864,0.3253999999999999]","[-0.8118,-0.8198,-0.5452]",-54,91,1,0,0,response7disk,2,-6,1,0,0,rectangle,2,-6,1,0,0,,3,0.0016,0,2,-6,1,0,0,0,17,17,5,1,5,first,,,,,,,,,,,,,,,,,,,,,,,,,,,,,,,,,,,,,,,,,,,,,,,,,,,,,,,,,,,,,,,,,,,
,,,,,,60e911d8667eccfdd32a590e,62bbfb270e15271e2faad413,2022-06-29_19h12.13.607,Colour_Asymmetry_Pilot,2022.1.3,Win32,59.91970759,62bbe60bf3d75ef465d3e404,,,,,,,,,,,,,,,,,,,,fourthree,,-3,0.8169,,,,,,,,,,,,,,,,,,,,,,,,,,,,,,,,,,"[-0.09019999999999995,0.44300000000000006,0.5371999999999999]","[-0.26280000000000003,-0.2158,-0.3256]",-99,37,1,0,0,response7disk,-11,-6,1,0,0,rectangle,-11,-6,1,0,0,,2,0.0011,0,-11,-6,1,0,0,0,18,18,23,1,23,first,,,,,,,,,,,,,,,,,,,,,,,,,,,,,,,,,,,,,,,,,,,,,,,,,,,,,,,,,,,,,,,,,,,
,,,,,,60e911d8667eccfdd32a590e,62bbfb270e15271e2faad413,2022-06-29_19h12.13.607,Colour_Asymmetry_Pilot,2022.1.3,Win32,59.91970759,62bbe60bf3d75ef465d3e404,,,,,,,,,,,,,,,,,,,,onethree,,-4,0.4508,,,,,,,,,,,,,,,,,,,,,,,,,,,,,,,,,,"[0.796,0.2156,-0.27859999999999996]","[-0.9296,-0.12959999999999994,-0.043199999999999905]",-53,106,1,0,0,response7disk,1,7,1,0,0,rectangle,1,7,1,0,0,,1,0.0017,0,1,7,1,0,0,0,19,19,7,1,7,first,,,,,,,,,,,,,,,,,,,,,,,,,,,,,,,,,,,,,,,,,,,,,,,,,,,,,,,,,,,,,,,,,,,
,,,,,,60e911d8667eccfdd32a590e,62bbfb270e15271e2faad413,2022-06-29_19h12.13.607,Colour_Asymmetry_Pilot,2022.1.3,Win32,59.91970759,62bbe60bf3d75ef465d3e404,,,,,,,,,,,,,,,,,,,,twofour,,-4,0.3165,,,,,,,,,,,,,,,,,,,,,,,,,,,,,,,,,,"[-0.9688,-0.4902000000000001,-0.12159999999999993]","[0.7176,-0.906,-0.6864]",-57,94,1,0,0,response7disk,-20,8,1,0,0,rectangle,-20,8,1,0,0,,2,0.0021,0,-20,8,1,0,0,0,20,20,41,1,41,first,,,,,,,,,,,,,,,,,,,,,,,,,,,,,,,,,,,,,,,,,,,,,,,,,,,,,,,,,,,,,,,,,,,
