trials.thisRepN,trials.thisTrialN,trials.thisN,trials.thisIndex,trials.ran,Colourcodes,participant,session,date,expName,psychopyVersion,OS,frameRate,study_id,trials_4.thisRepN,trials_4.thisTrialN,trials_4.thisN,trials_4.thisIndex,trials_4.ran,StimulusPos,key_resp.keys,key_resp.rt,key_resp_2.keys,key_resp_2.rt,key_resp_15.keys,key_resp_15.rt,key_resp_17.keys,key_resp_17.rt,key_resp_9.keys,key_resp_9.rt,key_resp_10.keys,key_resp_10.rt,Circle1_col,Ecc,Circle2_col,similarity,response_time,mouse_5.x,mouse_5.y,mouse_5.leftButton,mouse_5.midButton,mouse_5.rightButton,mouse_5.clicked_name,mouse_10.x,mouse_10.y,mouse_10.leftButton,mouse_10.midButton,mouse_10.rightButton,mouse_10.clicked_name,mouse_7.x,mouse_7.y,mouse_7.leftButton,mouse_7.midButton,mouse_7.rightButton,mouse_7.clicked_name,catchprac,catchnumberprac,mouse_6.x,mouse_6.y,mouse_6.leftButton,mouse_6.midButton,mouse_6.rightButton,mouse_6.clicked_name,duringprac.thisRepN,duringprac.thisTrialN,duringprac.thisN,duringprac.thisIndex,duringprac.ran,key_resp_22.keys,key_resp_22.rt,Circle1_colour,Circle2_colour,mouse.x,mouse.y,mouse.leftButton,mouse.midButton,mouse.rightButton,mouse.clicked_name,mouse_2.x,mouse_2.y,mouse_2.leftButton,mouse_2.midButton,mouse_2.rightButton,mouse_2.clicked_name,mouse_3.x,mouse_3.y,mouse_3.leftButton,mouse_3.midButton,mouse_3.rightButton,catchresponse,catchnumber,response_time_catch,Catch,mouse_11.x,mouse_11.y,mouse_11.leftButton,mouse_11.midButton,mouse_11.rightButton,trials_2.thisRepN,trials_2.thisTrialN,trials_2.thisN,trials_2.thisIndex,trials_2.ran,Colourpair,Temporder,mouse_3.clicked_name,mouse_11.clicked_name,trials_3.thisRepN,trials_3.thisTrialN,trials_3.thisN,trials_3.thisIndex,trials_3.ran,key_resp_instr_Ishi.keys,key_resp_instr_Ishi.rt,Ishi_trial_keyresp.keys,Ishi_trial_keyresp.rt,Ishi_textbox.text,Ishi_loop.thisRepN,Ishi_loop.thisTrialN,Ishi_loop.thisN,Ishi_loop.thisIndex,Ishi_loop.ran,imageaddress,textbox.text,mouse_4.x,mouse_4.y,mouse_4.leftButton,mouse_4.midButton,mouse_4.rightButton,mouse_4.clicked_name,textbox_2.text,mouse_8.x,mouse_8.y,mouse_8.leftButton,mouse_8.midButton,mouse_8.rightButton,mouse_8.clicked_name,textbox_3.text,mouse_9.x,mouse_9.y,mouse_9.leftButton,mouse_9.midButton,mouse_9.rightButton,mouse_9.clicked_name,textbox_4.text,mouse_12.x,mouse_12.y,mouse_12.leftButton,mouse_12.midButton,mouse_12.rightButton,mouse_12.clicked_name,textbox_5.text,mouse_13.x,mouse_13.y,mouse_13.leftButton,mouse_13.midButton,mouse_13.rightButton,mouse_13.clicked_name,textbox_6.text,mouse_14.x,mouse_14.y,mouse_14.leftButton,mouse_14.midButton,mouse_14.rightButton,mouse_14.clicked_name,textbox_7.text,mouse_15.x,mouse_15.y,mouse_15.leftButton,mouse_15.midButton,mouse_15.rightButton,mouse_15.clicked_name
0,0,0,65,1,,5b0d0beed282ff00015b9972,62b2ac991bc9707e87f00ac2,2022-06-21_22h47.02.967,Colour_Asymmetry_Pilot,2022.1.3,Win32,60.0024001,62b2a6a25f2ba72662469a01,,,,,,,,,,,,,,,,,,,,,,,,,,,,,,,,,,,,,,,,,,,,,,,,,,,,,,,,,,,,,,,,,,,,,,,,,,,,,,,,,,,,,,,,,,,,,,,,,,,,,,,,,,,,,,,,,,,,,,,,,,,,,,,,,,,,,,,,,,,,,,,,,,,,,,,,,,,,,,
0,1,1,72,1,,5b0d0beed282ff00015b9972,62b2ac991bc9707e87f00ac2,2022-06-21_22h47.02.967,Colour_Asymmetry_Pilot,2022.1.3,Win32,60.0024001,62b2a6a25f2ba72662469a01,,,,,,,,,,,,,,,,,,,,,,,,,,,,,,,,,,,,,,,,,,,,,,,,,,,,,,,,,,,,,,,,,,,,,,,,,,,,,,,,,,,,,,,,,,,,,,,,,,,,,,,,,,,,,,,,,,,,,,,,,,,,,,,,,,,,,,,,,,,,,,,,,,,,,,,,,,,,,,
0,2,2,86,1,,5b0d0beed282ff00015b9972,62b2ac991bc9707e87f00ac2,2022-06-21_22h47.02.967,Colour_Asymmetry_Pilot,2022.1.3,Win32,60.0024001,62b2a6a25f2ba72662469a01,,,,,,,,,,,,,,,,,,,,,,,,,,,,,,,,,,,,,,,,,,,,,,,,,,,,,,,,,,,,,,,,,,,,,,,,,,,,,,,,,,,,,,,,,,,,,,,,,,,,,,,,,,,,,,,,,,,,,,,,,,,,,,,,,,,,,,,,,,,,,,,,,,,,,,,,,,,,,,
0,3,3,54,1,,5b0d0beed282ff00015b9972,62b2ac991bc9707e87f00ac2,2022-06-21_22h47.02.967,Colour_Asymmetry_Pilot,2022.1.3,Win32,60.0024001,62b2a6a25f2ba72662469a01,,,,,,,,,,,,,,,,,,,,,,,,,,,,,,,,,,,,,,,,,,,,,,,,,,,,,,,,,,,,,,,,,,,,,,,,,,,,,,,,,,,,,,,,,,,,,,,,,,,,,,,,,,,,,,,,,,,,,,,,,,,,,,,,,,,,,,,,,,,,,,,,,,,,,,,,,,,,,,
0,4,4,63,1,,5b0d0beed282ff00015b9972,62b2ac991bc9707e87f00ac2,2022-06-21_22h47.02.967,Colour_Asymmetry_Pilot,2022.1.3,Win32,60.0024001,62b2a6a25f2ba72662469a01,,,,,,,,,,,,,,,,,,,,,,,,,,,,,,,,,,,,,,,,,,,,,,,,,,,,,,,,,,,,,,,,,,,,,,,,,,,,,,,,,,,,,,,,,,,,,,,,,,,,,,,,,,,,,,,,,,,,,,,,,,,,,,,,,,,,,,,,,,,,,,,,,,,,,,,,,,,,,,
0,5,5,73,1,,5b0d0beed282ff00015b9972,62b2ac991bc9707e87f00ac2,2022-06-21_22h47.02.967,Colour_Asymmetry_Pilot,2022.1.3,Win32,60.0024001,62b2a6a25f2ba72662469a01,,,,,,,,,,,,,,,,,,,,,,,,,,,,,,,,,,,,,,,,,,,,,,,,,,,,,,,,,,,,,,,,,,,,,,,,,,,,,,,,,,,,,,,,,,,,,,,,,,,,,,,,,,,,,,,,,,,,,,,,,,,,,,,,,,,,,,,,,,,,,,,,,,,,,,,,,,,,,,
0,6,6,8,1,,5b0d0beed282ff00015b9972,62b2ac991bc9707e87f00ac2,2022-06-21_22h47.02.967,Colour_Asymmetry_Pilot,2022.1.3,Win32,60.0024001,62b2a6a25f2ba72662469a01,,,,,,,,,,,,,,,,,,,,,,,,,,,,,,,,,,,,,,,,,,,,,,,,,,,,,,,,,,,,,,,,,,,,,,,,,,,,,,,,,,,,,,,,,,,,,,,,,,,,,,,,,,,,,,,,,,,,,,,,,,,,,,,,,,,,,,,,,,,,,,,,,,,,,,,,,,,,,,
0,7,7,39,1,,5b0d0beed282ff00015b9972,62b2ac991bc9707e87f00ac2,2022-06-21_22h47.02.967,Colour_Asymmetry_Pilot,2022.1.3,Win32,60.0024001,62b2a6a25f2ba72662469a01,,,,,,,,,,,,,,,,,,,,,,,,,,,,,,,,,,,,,,,,,,,,,,,,,,,,,,,,,,,,,,,,,,,,,,,,,,,,,,,,,,,,,,,,,,,,,,,,,,,,,,,,,,,,,,,,,,,,,,,,,,,,,,,,,,,,,,,,,,,,,,,,,,,,,,,,,,,,,,
0,8,8,27,1,,5b0d0beed282ff00015b9972,62b2ac991bc9707e87f00ac2,2022-06-21_22h47.02.967,Colour_Asymmetry_Pilot,2022.1.3,Win32,60.0024001,62b2a6a25f2ba72662469a01,,,,,,,,,,,,,,,,,,,,,,,,,,,,,,,,,,,,,,,,,,,,,,,,,,,,,,,,,,,,,,,,,,,,,,,,,,,,,,,,,,,,,,,,,,,,,,,,,,,,,,,,,,,,,,,,,,,,,,,,,,,,,,,,,,,,,,,,,,,,,,,,,,,,,,,,,,,,,,
0,9,9,79,1,,5b0d0beed282ff00015b9972,62b2ac991bc9707e87f00ac2,2022-06-21_22h47.02.967,Colour_Asymmetry_Pilot,2022.1.3,Win32,60.0024001,62b2a6a25f2ba72662469a01,,,,,,,,,,,,,,,,,,,,,,,,,,,,,,,,,,,,,,,,,,,,,,,,,,,,,,,,,,,,,,,,,,,,,,,,,,,,,,,,,,,,,,,,,,,,,,,,,,,,,,,,,,,,,,,,,,,,,,,,,,,,,,,,,,,,,,,,,,,,,,,,,,,,,,,,,,,,,,
0,10,10,22,1,,5b0d0beed282ff00015b9972,62b2ac991bc9707e87f00ac2,2022-06-21_22h47.02.967,Colour_Asymmetry_Pilot,2022.1.3,Win32,60.0024001,62b2a6a25f2ba72662469a01,,,,,,,,,,,,,,,,,,,,,,,,,,,,,,,,,,,,,,,,,,,,,,,,,,,,,,,,,,,,,,,,,,,,,,,,,,,,,,,,,,,,,,,,,,,,,,,,,,,,,,,,,,,,,,,,,,,,,,,,,,,,,,,,,,,,,,,,,,,,,,,,,,,,,,,,,,,,,,
0,11,11,18,1,,5b0d0beed282ff00015b9972,62b2ac991bc9707e87f00ac2,2022-06-21_22h47.02.967,Colour_Asymmetry_Pilot,2022.1.3,Win32,60.0024001,62b2a6a25f2ba72662469a01,,,,,,,,,,,,,,,,,,,,,,,,,,,,,,,,,,,,,,,,,,,,,,,,,,,,,,,,,,,,,,,,,,,,,,,,,,,,,,,,,,,,,,,,,,,,,,,,,,,,,,,,,,,,,,,,,,,,,,,,,,,,,,,,,,,,,,,,,,,,,,,,,,,,,,,,,,,,,,
0,12,12,58,1,,5b0d0beed282ff00015b9972,62b2ac991bc9707e87f00ac2,2022-06-21_22h47.02.967,Colour_Asymmetry_Pilot,2022.1.3,Win32,60.0024001,62b2a6a25f2ba72662469a01,,,,,,,,,,,,,,,,,,,,,,,,,,,,,,,,,,,,,,,,,,,,,,,,,,,,,,,,,,,,,,,,,,,,,,,,,,,,,,,,,,,,,,,,,,,,,,,,,,,,,,,,,,,,,,,,,,,,,,,,,,,,,,,,,,,,,,,,,,,,,,,,,,,,,,,,,,,,,,
0,13,13,0,1,,5b0d0beed282ff00015b9972,62b2ac991bc9707e87f00ac2,2022-06-21_22h47.02.967,Colour_Asymmetry_Pilot,2022.1.3,Win32,60.0024001,62b2a6a25f2ba72662469a01,,,,,,,,,,,,,,,,,,,,,,,,,,,,,,,,,,,,,,,,,,,,,,,,,,,,,,,,,,,,,,,,,,,,,,,,,,,,,,,,,,,,,,,,,,,,,,,,,,,,,,,,,,,,,,,,,,,,,,,,,,,,,,,,,,,,,,,,,,,,,,,,,,,,,,,,,,,,,,
0,14,14,17,1,,5b0d0beed282ff00015b9972,62b2ac991bc9707e87f00ac2,2022-06-21_22h47.02.967,Colour_Asymmetry_Pilot,2022.1.3,Win32,60.0024001,62b2a6a25f2ba72662469a01,,,,,,,,,,,,,,,,,,,,,,,,,,,,,,,,,,,,,,,,,,,,,,,,,,,,,,,,,,,,,,,,,,,,,,,,,,,,,,,,,,,,,,,,,,,,,,,,,,,,,,,,,,,,,,,,,,,,,,,,,,,,,,,,,,,,,,,,,,,,,,,,,,,,,,,,,,,,,,
0,15,15,34,1,,5b0d0beed282ff00015b9972,62b2ac991bc9707e87f00ac2,2022-06-21_22h47.02.967,Colour_Asymmetry_Pilot,2022.1.3,Win32,60.0024001,62b2a6a25f2ba72662469a01,,,,,,,,,,,,,,,,,,,,,,,,,,,,,,,,,,,,,,,,,,,,,,,,,,,,,,,,,,,,,,,,,,,,,,,,,,,,,,,,,,,,,,,,,,,,,,,,,,,,,,,,,,,,,,,,,,,,,,,,,,,,,,,,,,,,,,,,,,,,,,,,,,,,,,,,,,,,,,
0,16,16,51,1,,5b0d0beed282ff00015b9972,62b2ac991bc9707e87f00ac2,2022-06-21_22h47.02.967,Colour_Asymmetry_Pilot,2022.1.3,Win32,60.0024001,62b2a6a25f2ba72662469a01,,,,,,,,,,,,,,,,,,,,,,,,,,,,,,,,,,,,,,,,,,,,,,,,,,,,,,,,,,,,,,,,,,,,,,,,,,,,,,,,,,,,,,,,,,,,,,,,,,,,,,,,,,,,,,,,,,,,,,,,,,,,,,,,,,,,,,,,,,,,,,,,,,,,,,,,,,,,,,
0,17,17,16,1,,5b0d0beed282ff00015b9972,62b2ac991bc9707e87f00ac2,2022-06-21_22h47.02.967,Colour_Asymmetry_Pilot,2022.1.3,Win32,60.0024001,62b2a6a25f2ba72662469a01,,,,,,,,,,,,,,,,,,,,,,,,,,,,,,,,,,,,,,,,,,,,,,,,,,,,,,,,,,,,,,,,,,,,,,,,,,,,,,,,,,,,,,,,,,,,,,,,,,,,,,,,,,,,,,,,,,,,,,,,,,,,,,,,,,,,,,,,,,,,,,,,,,,,,,,,,,,,,,
0,18,18,52,1,,5b0d0beed282ff00015b9972,62b2ac991bc9707e87f00ac2,2022-06-21_22h47.02.967,Colour_Asymmetry_Pilot,2022.1.3,Win32,60.0024001,62b2a6a25f2ba72662469a01,,,,,,,,,,,,,,,,,,,,,,,,,,,,,,,,,,,,,,,,,,,,,,,,,,,,,,,,,,,,,,,,,,,,,,,,,,,,,,,,,,,,,,,,,,,,,,,,,,,,,,,,,,,,,,,,,,,,,,,,,,,,,,,,,,,,,,,,,,,,,,,,,,,,,,,,,,,,,,
0,19,19,48,1,,5b0d0beed282ff00015b9972,62b2ac991bc9707e87f00ac2,2022-06-21_22h47.02.967,Colour_Asymmetry_Pilot,2022.1.3,Win32,60.0024001,62b2a6a25f2ba72662469a01,,,,,,,,,,,,,,,,,,,,,,,,,,,,,,,,,,,,,,,,,,,,,,,,,,,,,,,,,,,,,,,,,,,,,,,,,,,,,,,,,,,,,,,,,,,,,,,,,,,,,,,,,,,,,,,,,,,,,,,,,,,,,,,,,,,,,,,,,,,,,,,,,,,,,,,,,,,,,,
0,20,20,77,1,,5b0d0beed282ff00015b9972,62b2ac991bc9707e87f00ac2,2022-06-21_22h47.02.967,Colour_Asymmetry_Pilot,2022.1.3,Win32,60.0024001,62b2a6a25f2ba72662469a01,,,,,,,,,,,,,,,,,,,,,,,,,,,,,,,,,,,,,,,,,,,,,,,,,,,,,,,,,,,,,,,,,,,,,,,,,,,,,,,,,,,,,,,,,,,,,,,,,,,,,,,,,,,,,,,,,,,,,,,,,,,,,,,,,,,,,,,,,,,,,,,,,,,,,,,,,,,,,,
0,21,21,42,1,,5b0d0beed282ff00015b9972,62b2ac991bc9707e87f00ac2,2022-06-21_22h47.02.967,Colour_Asymmetry_Pilot,2022.1.3,Win32,60.0024001,62b2a6a25f2ba72662469a01,,,,,,,,,,,,,,,,,,,,,,,,,,,,,,,,,,,,,,,,,,,,,,,,,,,,,,,,,,,,,,,,,,,,,,,,,,,,,,,,,,,,,,,,,,,,,,,,,,,,,,,,,,,,,,,,,,,,,,,,,,,,,,,,,,,,,,,,,,,,,,,,,,,,,,,,,,,,,,
0,22,22,84,1,,5b0d0beed282ff00015b9972,62b2ac991bc9707e87f00ac2,2022-06-21_22h47.02.967,Colour_Asymmetry_Pilot,2022.1.3,Win32,60.0024001,62b2a6a25f2ba72662469a01,,,,,,,,,,,,,,,,,,,,,,,,,,,,,,,,,,,,,,,,,,,,,,,,,,,,,,,,,,,,,,,,,,,,,,,,,,,,,,,,,,,,,,,,,,,,,,,,,,,,,,,,,,,,,,,,,,,,,,,,,,,,,,,,,,,,,,,,,,,,,,,,,,,,,,,,,,,,,,
0,23,23,10,1,,5b0d0beed282ff00015b9972,62b2ac991bc9707e87f00ac2,2022-06-21_22h47.02.967,Colour_Asymmetry_Pilot,2022.1.3,Win32,60.0024001,62b2a6a25f2ba72662469a01,,,,,,,,,,,,,,,,,,,,,,,,,,,,,,,,,,,,,,,,,,,,,,,,,,,,,,,,,,,,,,,,,,,,,,,,,,,,,,,,,,,,,,,,,,,,,,,,,,,,,,,,,,,,,,,,,,,,,,,,,,,,,,,,,,,,,,,,,,,,,,,,,,,,,,,,,,,,,,
0,24,24,57,1,,5b0d0beed282ff00015b9972,62b2ac991bc9707e87f00ac2,2022-06-21_22h47.02.967,Colour_Asymmetry_Pilot,2022.1.3,Win32,60.0024001,62b2a6a25f2ba72662469a01,,,,,,,,,,,,,,,,,,,,,,,,,,,,,,,,,,,,,,,,,,,,,,,,,,,,,,,,,,,,,,,,,,,,,,,,,,,,,,,,,,,,,,,,,,,,,,,,,,,,,,,,,,,,,,,,,,,,,,,,,,,,,,,,,,,,,,,,,,,,,,,,,,,,,,,,,,,,,,
0,25,25,43,1,,5b0d0beed282ff00015b9972,62b2ac991bc9707e87f00ac2,2022-06-21_22h47.02.967,Colour_Asymmetry_Pilot,2022.1.3,Win32,60.0024001,62b2a6a25f2ba72662469a01,,,,,,,,,,,,,,,,,,,,,,,,,,,,,,,,,,,,,,,,,,,,,,,,,,,,,,,,,,,,,,,,,,,,,,,,,,,,,,,,,,,,,,,,,,,,,,,,,,,,,,,,,,,,,,,,,,,,,,,,,,,,,,,,,,,,,,,,,,,,,,,,,,,,,,,,,,,,,,
0,26,26,35,1,,5b0d0beed282ff00015b9972,62b2ac991bc9707e87f00ac2,2022-06-21_22h47.02.967,Colour_Asymmetry_Pilot,2022.1.3,Win32,60.0024001,62b2a6a25f2ba72662469a01,,,,,,,,,,,,,,,,,,,,,,,,,,,,,,,,,,,,,,,,,,,,,,,,,,,,,,,,,,,,,,,,,,,,,,,,,,,,,,,,,,,,,,,,,,,,,,,,,,,,,,,,,,,,,,,,,,,,,,,,,,,,,,,,,,,,,,,,,,,,,,,,,,,,,,,,,,,,,,
0,27,27,49,1,,5b0d0beed282ff00015b9972,62b2ac991bc9707e87f00ac2,2022-06-21_22h47.02.967,Colour_Asymmetry_Pilot,2022.1.3,Win32,60.0024001,62b2a6a25f2ba72662469a01,,,,,,,,,,,,,,,,,,,,,,,,,,,,,,,,,,,,,,,,,,,,,,,,,,,,,,,,,,,,,,,,,,,,,,,,,,,,,,,,,,,,,,,,,,,,,,,,,,,,,,,,,,,,,,,,,,,,,,,,,,,,,,,,,,,,,,,,,,,,,,,,,,,,,,,,,,,,,,
0,28,28,87,1,,5b0d0beed282ff00015b9972,62b2ac991bc9707e87f00ac2,2022-06-21_22h47.02.967,Colour_Asymmetry_Pilot,2022.1.3,Win32,60.0024001,62b2a6a25f2ba72662469a01,,,,,,,,,,,,,,,,,,,,,,,,,,,,,,,,,,,,,,,,,,,,,,,,,,,,,,,,,,,,,,,,,,,,,,,,,,,,,,,,,,,,,,,,,,,,,,,,,,,,,,,,,,,,,,,,,,,,,,,,,,,,,,,,,,,,,,,,,,,,,,,,,,,,,,,,,,,,,,
0,29,29,91,1,,5b0d0beed282ff00015b9972,62b2ac991bc9707e87f00ac2,2022-06-21_22h47.02.967,Colour_Asymmetry_Pilot,2022.1.3,Win32,60.0024001,62b2a6a25f2ba72662469a01,,,,,,,,,,,,,,,,,,,,,,,,,,,,,,,,,,,,,,,,,,,,,,,,,,,,,,,,,,,,,,,,,,,,,,,,,,,,,,,,,,,,,,,,,,,,,,,,,,,,,,,,,,,,,,,,,,,,,,,,,,,,,,,,,,,,,,,,,,,,,,,,,,,,,,,,,,,,,,
0,30,30,50,1,,5b0d0beed282ff00015b9972,62b2ac991bc9707e87f00ac2,2022-06-21_22h47.02.967,Colour_Asymmetry_Pilot,2022.1.3,Win32,60.0024001,62b2a6a25f2ba72662469a01,,,,,,,,,,,,,,,,,,,,,,,,,,,,,,,,,,,,,,,,,,,,,,,,,,,,,,,,,,,,,,,,,,,,,,,,,,,,,,,,,,,,,,,,,,,,,,,,,,,,,,,,,,,,,,,,,,,,,,,,,,,,,,,,,,,,,,,,,,,,,,,,,,,,,,,,,,,,,,
0,31,31,2,1,,5b0d0beed282ff00015b9972,62b2ac991bc9707e87f00ac2,2022-06-21_22h47.02.967,Colour_Asymmetry_Pilot,2022.1.3,Win32,60.0024001,62b2a6a25f2ba72662469a01,,,,,,,,,,,,,,,,,,,,,,,,,,,,,,,,,,,,,,,,,,,,,,,,,,,,,,,,,,,,,,,,,,,,,,,,,,,,,,,,,,,,,,,,,,,,,,,,,,,,,,,,,,,,,,,,,,,,,,,,,,,,,,,,,,,,,,,,,,,,,,,,,,,,,,,,,,,,,,
0,32,32,20,1,,5b0d0beed282ff00015b9972,62b2ac991bc9707e87f00ac2,2022-06-21_22h47.02.967,Colour_Asymmetry_Pilot,2022.1.3,Win32,60.0024001,62b2a6a25f2ba72662469a01,,,,,,,,,,,,,,,,,,,,,,,,,,,,,,,,,,,,,,,,,,,,,,,,,,,,,,,,,,,,,,,,,,,,,,,,,,,,,,,,,,,,,,,,,,,,,,,,,,,,,,,,,,,,,,,,,,,,,,,,,,,,,,,,,,,,,,,,,,,,,,,,,,,,,,,,,,,,,,
0,33,33,6,1,,5b0d0beed282ff00015b9972,62b2ac991bc9707e87f00ac2,2022-06-21_22h47.02.967,Colour_Asymmetry_Pilot,2022.1.3,Win32,60.0024001,62b2a6a25f2ba72662469a01,,,,,,,,,,,,,,,,,,,,,,,,,,,,,,,,,,,,,,,,,,,,,,,,,,,,,,,,,,,,,,,,,,,,,,,,,,,,,,,,,,,,,,,,,,,,,,,,,,,,,,,,,,,,,,,,,,,,,,,,,,,,,,,,,,,,,,,,,,,,,,,,,,,,,,,,,,,,,,
0,34,34,9,1,,5b0d0beed282ff00015b9972,62b2ac991bc9707e87f00ac2,2022-06-21_22h47.02.967,Colour_Asymmetry_Pilot,2022.1.3,Win32,60.0024001,62b2a6a25f2ba72662469a01,,,,,,,,,,,,,,,,,,,,,,,,,,,,,,,,,,,,,,,,,,,,,,,,,,,,,,,,,,,,,,,,,,,,,,,,,,,,,,,,,,,,,,,,,,,,,,,,,,,,,,,,,,,,,,,,,,,,,,,,,,,,,,,,,,,,,,,,,,,,,,,,,,,,,,,,,,,,,,
0,35,35,74,1,,5b0d0beed282ff00015b9972,62b2ac991bc9707e87f00ac2,2022-06-21_22h47.02.967,Colour_Asymmetry_Pilot,2022.1.3,Win32,60.0024001,62b2a6a25f2ba72662469a01,,,,,,,,,,,,,,,,,,,,,,,,,,,,,,,,,,,,,,,,,,,,,,,,,,,,,,,,,,,,,,,,,,,,,,,,,,,,,,,,,,,,,,,,,,,,,,,,,,,,,,,,,,,,,,,,,,,,,,,,,,,,,,,,,,,,,,,,,,,,,,,,,,,,,,,,,,,,,,
0,36,36,82,1,,5b0d0beed282ff00015b9972,62b2ac991bc9707e87f00ac2,2022-06-21_22h47.02.967,Colour_Asymmetry_Pilot,2022.1.3,Win32,60.0024001,62b2a6a25f2ba72662469a01,,,,,,,,,,,,,,,,,,,,,,,,,,,,,,,,,,,,,,,,,,,,,,,,,,,,,,,,,,,,,,,,,,,,,,,,,,,,,,,,,,,,,,,,,,,,,,,,,,,,,,,,,,,,,,,,,,,,,,,,,,,,,,,,,,,,,,,,,,,,,,,,,,,,,,,,,,,,,,
0,37,37,30,1,,5b0d0beed282ff00015b9972,62b2ac991bc9707e87f00ac2,2022-06-21_22h47.02.967,Colour_Asymmetry_Pilot,2022.1.3,Win32,60.0024001,62b2a6a25f2ba72662469a01,,,,,,,,,,,,,,,,,,,,,,,,,,,,,,,,,,,,,,,,,,,,,,,,,,,,,,,,,,,,,,,,,,,,,,,,,,,,,,,,,,,,,,,,,,,,,,,,,,,,,,,,,,,,,,,,,,,,,,,,,,,,,,,,,,,,,,,,,,,,,,,,,,,,,,,,,,,,,,
0,38,38,44,1,,5b0d0beed282ff00015b9972,62b2ac991bc9707e87f00ac2,2022-06-21_22h47.02.967,Colour_Asymmetry_Pilot,2022.1.3,Win32,60.0024001,62b2a6a25f2ba72662469a01,,,,,,,,,,,,,,,,,,,,,,,,,,,,,,,,,,,,,,,,,,,,,,,,,,,,,,,,,,,,,,,,,,,,,,,,,,,,,,,,,,,,,,,,,,,,,,,,,,,,,,,,,,,,,,,,,,,,,,,,,,,,,,,,,,,,,,,,,,,,,,,,,,,,,,,,,,,,,,
0,39,39,33,1,,5b0d0beed282ff00015b9972,62b2ac991bc9707e87f00ac2,2022-06-21_22h47.02.967,Colour_Asymmetry_Pilot,2022.1.3,Win32,60.0024001,62b2a6a25f2ba72662469a01,,,,,,,,,,,,,,,,,,,,,,,,,,,,,,,,,,,,,,,,,,,,,,,,,,,,,,,,,,,,,,,,,,,,,,,,,,,,,,,,,,,,,,,,,,,,,,,,,,,,,,,,,,,,,,,,,,,,,,,,,,,,,,,,,,,,,,,,,,,,,,,,,,,,,,,,,,,,,,
0,40,40,62,1,,5b0d0beed282ff00015b9972,62b2ac991bc9707e87f00ac2,2022-06-21_22h47.02.967,Colour_Asymmetry_Pilot,2022.1.3,Win32,60.0024001,62b2a6a25f2ba72662469a01,,,,,,,,,,,,,,,,,,,,,,,,,,,,,,,,,,,,,,,,,,,,,,,,,,,,,,,,,,,,,,,,,,,,,,,,,,,,,,,,,,,,,,,,,,,,,,,,,,,,,,,,,,,,,,,,,,,,,,,,,,,,,,,,,,,,,,,,,,,,,,,,,,,,,,,,,,,,,,
0,41,41,78,1,,5b0d0beed282ff00015b9972,62b2ac991bc9707e87f00ac2,2022-06-21_22h47.02.967,Colour_Asymmetry_Pilot,2022.1.3,Win32,60.0024001,62b2a6a25f2ba72662469a01,,,,,,,,,,,,,,,,,,,,,,,,,,,,,,,,,,,,,,,,,,,,,,,,,,,,,,,,,,,,,,,,,,,,,,,,,,,,,,,,,,,,,,,,,,,,,,,,,,,,,,,,,,,,,,,,,,,,,,,,,,,,,,,,,,,,,,,,,,,,,,,,,,,,,,,,,,,,,,
0,42,42,31,1,,5b0d0beed282ff00015b9972,62b2ac991bc9707e87f00ac2,2022-06-21_22h47.02.967,Colour_Asymmetry_Pilot,2022.1.3,Win32,60.0024001,62b2a6a25f2ba72662469a01,,,,,,,,,,,,,,,,,,,,,,,,,,,,,,,,,,,,,,,,,,,,,,,,,,,,,,,,,,,,,,,,,,,,,,,,,,,,,,,,,,,,,,,,,,,,,,,,,,,,,,,,,,,,,,,,,,,,,,,,,,,,,,,,,,,,,,,,,,,,,,,,,,,,,,,,,,,,,,
0,43,43,26,1,,5b0d0beed282ff00015b9972,62b2ac991bc9707e87f00ac2,2022-06-21_22h47.02.967,Colour_Asymmetry_Pilot,2022.1.3,Win32,60.0024001,62b2a6a25f2ba72662469a01,,,,,,,,,,,,,,,,,,,,,,,,,,,,,,,,,,,,,,,,,,,,,,,,,,,,,,,,,,,,,,,,,,,,,,,,,,,,,,,,,,,,,,,,,,,,,,,,,,,,,,,,,,,,,,,,,,,,,,,,,,,,,,,,,,,,,,,,,,,,,,,,,,,,,,,,,,,,,,
0,44,44,67,1,,5b0d0beed282ff00015b9972,62b2ac991bc9707e87f00ac2,2022-06-21_22h47.02.967,Colour_Asymmetry_Pilot,2022.1.3,Win32,60.0024001,62b2a6a25f2ba72662469a01,,,,,,,,,,,,,,,,,,,,,,,,,,,,,,,,,,,,,,,,,,,,,,,,,,,,,,,,,,,,,,,,,,,,,,,,,,,,,,,,,,,,,,,,,,,,,,,,,,,,,,,,,,,,,,,,,,,,,,,,,,,,,,,,,,,,,,,,,,,,,,,,,,,,,,,,,,,,,,
0,45,45,40,1,,5b0d0beed282ff00015b9972,62b2ac991bc9707e87f00ac2,2022-06-21_22h47.02.967,Colour_Asymmetry_Pilot,2022.1.3,Win32,60.0024001,62b2a6a25f2ba72662469a01,,,,,,,,,,,,,,,,,,,,,,,,,,,,,,,,,,,,,,,,,,,,,,,,,,,,,,,,,,,,,,,,,,,,,,,,,,,,,,,,,,,,,,,,,,,,,,,,,,,,,,,,,,,,,,,,,,,,,,,,,,,,,,,,,,,,,,,,,,,,,,,,,,,,,,,,,,,,,,
0,46,46,23,1,,5b0d0beed282ff00015b9972,62b2ac991bc9707e87f00ac2,2022-06-21_22h47.02.967,Colour_Asymmetry_Pilot,2022.1.3,Win32,60.0024001,62b2a6a25f2ba72662469a01,,,,,,,,,,,,,,,,,,,,,,,,,,,,,,,,,,,,,,,,,,,,,,,,,,,,,,,,,,,,,,,,,,,,,,,,,,,,,,,,,,,,,,,,,,,,,,,,,,,,,,,,,,,,,,,,,,,,,,,,,,,,,,,,,,,,,,,,,,,,,,,,,,,,,,,,,,,,,,
0,47,47,1,1,,5b0d0beed282ff00015b9972,62b2ac991bc9707e87f00ac2,2022-06-21_22h47.02.967,Colour_Asymmetry_Pilot,2022.1.3,Win32,60.0024001,62b2a6a25f2ba72662469a01,,,,,,,,,,,,,,,,,,,,,,,,,,,,,,,,,,,,,,,,,,,,,,,,,,,,,,,,,,,,,,,,,,,,,,,,,,,,,,,,,,,,,,,,,,,,,,,,,,,,,,,,,,,,,,,,,,,,,,,,,,,,,,,,,,,,,,,,,,,,,,,,,,,,,,,,,,,,,,
0,48,48,29,1,,5b0d0beed282ff00015b9972,62b2ac991bc9707e87f00ac2,2022-06-21_22h47.02.967,Colour_Asymmetry_Pilot,2022.1.3,Win32,60.0024001,62b2a6a25f2ba72662469a01,,,,,,,,,,,,,,,,,,,,,,,,,,,,,,,,,,,,,,,,,,,,,,,,,,,,,,,,,,,,,,,,,,,,,,,,,,,,,,,,,,,,,,,,,,,,,,,,,,,,,,,,,,,,,,,,,,,,,,,,,,,,,,,,,,,,,,,,,,,,,,,,,,,,,,,,,,,,,,
0,49,49,83,1,,5b0d0beed282ff00015b9972,62b2ac991bc9707e87f00ac2,2022-06-21_22h47.02.967,Colour_Asymmetry_Pilot,2022.1.3,Win32,60.0024001,62b2a6a25f2ba72662469a01,,,,,,,,,,,,,,,,,,,,,,,,,,,,,,,,,,,,,,,,,,,,,,,,,,,,,,,,,,,,,,,,,,,,,,,,,,,,,,,,,,,,,,,,,,,,,,,,,,,,,,,,,,,,,,,,,,,,,,,,,,,,,,,,,,,,,,,,,,,,,,,,,,,,,,,,,,,,,,
0,50,50,68,1,,5b0d0beed282ff00015b9972,62b2ac991bc9707e87f00ac2,2022-06-21_22h47.02.967,Colour_Asymmetry_Pilot,2022.1.3,Win32,60.0024001,62b2a6a25f2ba72662469a01,,,,,,,,,,,,,,,,,,,,,,,,,,,,,,,,,,,,,,,,,,,,,,,,,,,,,,,,,,,,,,,,,,,,,,,,,,,,,,,,,,,,,,,,,,,,,,,,,,,,,,,,,,,,,,,,,,,,,,,,,,,,,,,,,,,,,,,,,,,,,,,,,,,,,,,,,,,,,,
0,51,51,25,1,,5b0d0beed282ff00015b9972,62b2ac991bc9707e87f00ac2,2022-06-21_22h47.02.967,Colour_Asymmetry_Pilot,2022.1.3,Win32,60.0024001,62b2a6a25f2ba72662469a01,,,,,,,,,,,,,,,,,,,,,,,,,,,,,,,,,,,,,,,,,,,,,,,,,,,,,,,,,,,,,,,,,,,,,,,,,,,,,,,,,,,,,,,,,,,,,,,,,,,,,,,,,,,,,,,,,,,,,,,,,,,,,,,,,,,,,,,,,,,,,,,,,,,,,,,,,,,,,,
0,52,52,28,1,,5b0d0beed282ff00015b9972,62b2ac991bc9707e87f00ac2,2022-06-21_22h47.02.967,Colour_Asymmetry_Pilot,2022.1.3,Win32,60.0024001,62b2a6a25f2ba72662469a01,,,,,,,,,,,,,,,,,,,,,,,,,,,,,,,,,,,,,,,,,,,,,,,,,,,,,,,,,,,,,,,,,,,,,,,,,,,,,,,,,,,,,,,,,,,,,,,,,,,,,,,,,,,,,,,,,,,,,,,,,,,,,,,,,,,,,,,,,,,,,,,,,,,,,,,,,,,,,,
0,53,53,75,1,,5b0d0beed282ff00015b9972,62b2ac991bc9707e87f00ac2,2022-06-21_22h47.02.967,Colour_Asymmetry_Pilot,2022.1.3,Win32,60.0024001,62b2a6a25f2ba72662469a01,,,,,,,,,,,,,,,,,,,,,,,,,,,,,,,,,,,,,,,,,,,,,,,,,,,,,,,,,,,,,,,,,,,,,,,,,,,,,,,,,,,,,,,,,,,,,,,,,,,,,,,,,,,,,,,,,,,,,,,,,,,,,,,,,,,,,,,,,,,,,,,,,,,,,,,,,,,,,,
0,54,54,13,1,,5b0d0beed282ff00015b9972,62b2ac991bc9707e87f00ac2,2022-06-21_22h47.02.967,Colour_Asymmetry_Pilot,2022.1.3,Win32,60.0024001,62b2a6a25f2ba72662469a01,,,,,,,,,,,,,,,,,,,,,,,,,,,,,,,,,,,,,,,,,,,,,,,,,,,,,,,,,,,,,,,,,,,,,,,,,,,,,,,,,,,,,,,,,,,,,,,,,,,,,,,,,,,,,,,,,,,,,,,,,,,,,,,,,,,,,,,,,,,,,,,,,,,,,,,,,,,,,,
0,55,55,41,1,,5b0d0beed282ff00015b9972,62b2ac991bc9707e87f00ac2,2022-06-21_22h47.02.967,Colour_Asymmetry_Pilot,2022.1.3,Win32,60.0024001,62b2a6a25f2ba72662469a01,,,,,,,,,,,,,,,,,,,,,,,,,,,,,,,,,,,,,,,,,,,,,,,,,,,,,,,,,,,,,,,,,,,,,,,,,,,,,,,,,,,,,,,,,,,,,,,,,,,,,,,,,,,,,,,,,,,,,,,,,,,,,,,,,,,,,,,,,,,,,,,,,,,,,,,,,,,,,,
0,56,56,24,1,,5b0d0beed282ff00015b9972,62b2ac991bc9707e87f00ac2,2022-06-21_22h47.02.967,Colour_Asymmetry_Pilot,2022.1.3,Win32,60.0024001,62b2a6a25f2ba72662469a01,,,,,,,,,,,,,,,,,,,,,,,,,,,,,,,,,,,,,,,,,,,,,,,,,,,,,,,,,,,,,,,,,,,,,,,,,,,,,,,,,,,,,,,,,,,,,,,,,,,,,,,,,,,,,,,,,,,,,,,,,,,,,,,,,,,,,,,,,,,,,,,,,,,,,,,,,,,,,,
0,57,57,69,1,,5b0d0beed282ff00015b9972,62b2ac991bc9707e87f00ac2,2022-06-21_22h47.02.967,Colour_Asymmetry_Pilot,2022.1.3,Win32,60.0024001,62b2a6a25f2ba72662469a01,,,,,,,,,,,,,,,,,,,,,,,,,,,,,,,,,,,,,,,,,,,,,,,,,,,,,,,,,,,,,,,,,,,,,,,,,,,,,,,,,,,,,,,,,,,,,,,,,,,,,,,,,,,,,,,,,,,,,,,,,,,,,,,,,,,,,,,,,,,,,,,,,,,,,,,,,,,,,,
0,58,58,5,1,,5b0d0beed282ff00015b9972,62b2ac991bc9707e87f00ac2,2022-06-21_22h47.02.967,Colour_Asymmetry_Pilot,2022.1.3,Win32,60.0024001,62b2a6a25f2ba72662469a01,,,,,,,,,,,,,,,,,,,,,,,,,,,,,,,,,,,,,,,,,,,,,,,,,,,,,,,,,,,,,,,,,,,,,,,,,,,,,,,,,,,,,,,,,,,,,,,,,,,,,,,,,,,,,,,,,,,,,,,,,,,,,,,,,,,,,,,,,,,,,,,,,,,,,,,,,,,,,,
0,59,59,21,1,,5b0d0beed282ff00015b9972,62b2ac991bc9707e87f00ac2,2022-06-21_22h47.02.967,Colour_Asymmetry_Pilot,2022.1.3,Win32,60.0024001,62b2a6a25f2ba72662469a01,,,,,,,,,,,,,,,,,,,,,,,,,,,,,,,,,,,,,,,,,,,,,,,,,,,,,,,,,,,,,,,,,,,,,,,,,,,,,,,,,,,,,,,,,,,,,,,,,,,,,,,,,,,,,,,,,,,,,,,,,,,,,,,,,,,,,,,,,,,,,,,,,,,,,,,,,,,,,,
0,60,60,71,1,,5b0d0beed282ff00015b9972,62b2ac991bc9707e87f00ac2,2022-06-21_22h47.02.967,Colour_Asymmetry_Pilot,2022.1.3,Win32,60.0024001,62b2a6a25f2ba72662469a01,,,,,,,,,,,,,,,,,,,,,,,,,,,,,,,,,,,,,,,,,,,,,,,,,,,,,,,,,,,,,,,,,,,,,,,,,,,,,,,,,,,,,,,,,,,,,,,,,,,,,,,,,,,,,,,,,,,,,,,,,,,,,,,,,,,,,,,,,,,,,,,,,,,,,,,,,,,,,,
0,61,61,4,1,,5b0d0beed282ff00015b9972,62b2ac991bc9707e87f00ac2,2022-06-21_22h47.02.967,Colour_Asymmetry_Pilot,2022.1.3,Win32,60.0024001,62b2a6a25f2ba72662469a01,,,,,,,,,,,,,,,,,,,,,,,,,,,,,,,,,,,,,,,,,,,,,,,,,,,,,,,,,,,,,,,,,,,,,,,,,,,,,,,,,,,,,,,,,,,,,,,,,,,,,,,,,,,,,,,,,,,,,,,,,,,,,,,,,,,,,,,,,,,,,,,,,,,,,,,,,,,,,,
0,62,62,60,1,,5b0d0beed282ff00015b9972,62b2ac991bc9707e87f00ac2,2022-06-21_22h47.02.967,Colour_Asymmetry_Pilot,2022.1.3,Win32,60.0024001,62b2a6a25f2ba72662469a01,,,,,,,,,,,,,,,,,,,,,,,,,,,,,,,,,,,,,,,,,,,,,,,,,,,,,,,,,,,,,,,,,,,,,,,,,,,,,,,,,,,,,,,,,,,,,,,,,,,,,,,,,,,,,,,,,,,,,,,,,,,,,,,,,,,,,,,,,,,,,,,,,,,,,,,,,,,,,,
0,63,63,56,1,,5b0d0beed282ff00015b9972,62b2ac991bc9707e87f00ac2,2022-06-21_22h47.02.967,Colour_Asymmetry_Pilot,2022.1.3,Win32,60.0024001,62b2a6a25f2ba72662469a01,,,,,,,,,,,,,,,,,,,,,,,,,,,,,,,,,,,,,,,,,,,,,,,,,,,,,,,,,,,,,,,,,,,,,,,,,,,,,,,,,,,,,,,,,,,,,,,,,,,,,,,,,,,,,,,,,,,,,,,,,,,,,,,,,,,,,,,,,,,,,,,,,,,,,,,,,,,,,,
0,64,64,15,1,,5b0d0beed282ff00015b9972,62b2ac991bc9707e87f00ac2,2022-06-21_22h47.02.967,Colour_Asymmetry_Pilot,2022.1.3,Win32,60.0024001,62b2a6a25f2ba72662469a01,,,,,,,,,,,,,,,,,,,,,,,,,,,,,,,,,,,,,,,,,,,,,,,,,,,,,,,,,,,,,,,,,,,,,,,,,,,,,,,,,,,,,,,,,,,,,,,,,,,,,,,,,,,,,,,,,,,,,,,,,,,,,,,,,,,,,,,,,,,,,,,,,,,,,,,,,,,,,,
0,65,65,76,1,,5b0d0beed282ff00015b9972,62b2ac991bc9707e87f00ac2,2022-06-21_22h47.02.967,Colour_Asymmetry_Pilot,2022.1.3,Win32,60.0024001,62b2a6a25f2ba72662469a01,,,,,,,,,,,,,,,,,,,,,,,,,,,,,,,,,,,,,,,,,,,,,,,,,,,,,,,,,,,,,,,,,,,,,,,,,,,,,,,,,,,,,,,,,,,,,,,,,,,,,,,,,,,,,,,,,,,,,,,,,,,,,,,,,,,,,,,,,,,,,,,,,,,,,,,,,,,,,,
0,66,66,53,1,,5b0d0beed282ff00015b9972,62b2ac991bc9707e87f00ac2,2022-06-21_22h47.02.967,Colour_Asymmetry_Pilot,2022.1.3,Win32,60.0024001,62b2a6a25f2ba72662469a01,,,,,,,,,,,,,,,,,,,,,,,,,,,,,,,,,,,,,,,,,,,,,,,,,,,,,,,,,,,,,,,,,,,,,,,,,,,,,,,,,,,,,,,,,,,,,,,,,,,,,,,,,,,,,,,,,,,,,,,,,,,,,,,,,,,,,,,,,,,,,,,,,,,,,,,,,,,,,,
0,67,67,38,1,,5b0d0beed282ff00015b9972,62b2ac991bc9707e87f00ac2,2022-06-21_22h47.02.967,Colour_Asymmetry_Pilot,2022.1.3,Win32,60.0024001,62b2a6a25f2ba72662469a01,,,,,,,,,,,,,,,,,,,,,,,,,,,,,,,,,,,,,,,,,,,,,,,,,,,,,,,,,,,,,,,,,,,,,,,,,,,,,,,,,,,,,,,,,,,,,,,,,,,,,,,,,,,,,,,,,,,,,,,,,,,,,,,,,,,,,,,,,,,,,,,,,,,,,,,,,,,,,,
0,68,68,12,1,,5b0d0beed282ff00015b9972,62b2ac991bc9707e87f00ac2,2022-06-21_22h47.02.967,Colour_Asymmetry_Pilot,2022.1.3,Win32,60.0024001,62b2a6a25f2ba72662469a01,,,,,,,,,,,,,,,,,,,,,,,,,,,,,,,,,,,,,,,,,,,,,,,,,,,,,,,,,,,,,,,,,,,,,,,,,,,,,,,,,,,,,,,,,,,,,,,,,,,,,,,,,,,,,,,,,,,,,,,,,,,,,,,,,,,,,,,,,,,,,,,,,,,,,,,,,,,,,,
0,69,69,92,1,,5b0d0beed282ff00015b9972,62b2ac991bc9707e87f00ac2,2022-06-21_22h47.02.967,Colour_Asymmetry_Pilot,2022.1.3,Win32,60.0024001,62b2a6a25f2ba72662469a01,,,,,,,,,,,,,,,,,,,,,,,,,,,,,,,,,,,,,,,,,,,,,,,,,,,,,,,,,,,,,,,,,,,,,,,,,,,,,,,,,,,,,,,,,,,,,,,,,,,,,,,,,,,,,,,,,,,,,,,,,,,,,,,,,,,,,,,,,,,,,,,,,,,,,,,,,,,,,,
0,70,70,11,1,,5b0d0beed282ff00015b9972,62b2ac991bc9707e87f00ac2,2022-06-21_22h47.02.967,Colour_Asymmetry_Pilot,2022.1.3,Win32,60.0024001,62b2a6a25f2ba72662469a01,,,,,,,,,,,,,,,,,,,,,,,,,,,,,,,,,,,,,,,,,,,,,,,,,,,,,,,,,,,,,,,,,,,,,,,,,,,,,,,,,,,,,,,,,,,,,,,,,,,,,,,,,,,,,,,,,,,,,,,,,,,,,,,,,,,,,,,,,,,,,,,,,,,,,,,,,,,,,,
0,71,71,45,1,,5b0d0beed282ff00015b9972,62b2ac991bc9707e87f00ac2,2022-06-21_22h47.02.967,Colour_Asymmetry_Pilot,2022.1.3,Win32,60.0024001,62b2a6a25f2ba72662469a01,,,,,,,,,,,,,,,,,,,,,,,,,,,,,,,,,,,,,,,,,,,,,,,,,,,,,,,,,,,,,,,,,,,,,,,,,,,,,,,,,,,,,,,,,,,,,,,,,,,,,,,,,,,,,,,,,,,,,,,,,,,,,,,,,,,,,,,,,,,,,,,,,,,,,,,,,,,,,,
0,72,72,36,1,,5b0d0beed282ff00015b9972,62b2ac991bc9707e87f00ac2,2022-06-21_22h47.02.967,Colour_Asymmetry_Pilot,2022.1.3,Win32,60.0024001,62b2a6a25f2ba72662469a01,,,,,,,,,,,,,,,,,,,,,,,,,,,,,,,,,,,,,,,,,,,,,,,,,,,,,,,,,,,,,,,,,,,,,,,,,,,,,,,,,,,,,,,,,,,,,,,,,,,,,,,,,,,,,,,,,,,,,,,,,,,,,,,,,,,,,,,,,,,,,,,,,,,,,,,,,,,,,,
0,73,73,90,1,,5b0d0beed282ff00015b9972,62b2ac991bc9707e87f00ac2,2022-06-21_22h47.02.967,Colour_Asymmetry_Pilot,2022.1.3,Win32,60.0024001,62b2a6a25f2ba72662469a01,,,,,,,,,,,,,,,,,,,,,,,,,,,,,,,,,,,,,,,,,,,,,,,,,,,,,,,,,,,,,,,,,,,,,,,,,,,,,,,,,,,,,,,,,,,,,,,,,,,,,,,,,,,,,,,,,,,,,,,,,,,,,,,,,,,,,,,,,,,,,,,,,,,,,,,,,,,,,,
0,74,74,7,1,,5b0d0beed282ff00015b9972,62b2ac991bc9707e87f00ac2,2022-06-21_22h47.02.967,Colour_Asymmetry_Pilot,2022.1.3,Win32,60.0024001,62b2a6a25f2ba72662469a01,,,,,,,,,,,,,,,,,,,,,,,,,,,,,,,,,,,,,,,,,,,,,,,,,,,,,,,,,,,,,,,,,,,,,,,,,,,,,,,,,,,,,,,,,,,,,,,,,,,,,,,,,,,,,,,,,,,,,,,,,,,,,,,,,,,,,,,,,,,,,,,,,,,,,,,,,,,,,,
0,75,75,80,1,,5b0d0beed282ff00015b9972,62b2ac991bc9707e87f00ac2,2022-06-21_22h47.02.967,Colour_Asymmetry_Pilot,2022.1.3,Win32,60.0024001,62b2a6a25f2ba72662469a01,,,,,,,,,,,,,,,,,,,,,,,,,,,,,,,,,,,,,,,,,,,,,,,,,,,,,,,,,,,,,,,,,,,,,,,,,,,,,,,,,,,,,,,,,,,,,,,,,,,,,,,,,,,,,,,,,,,,,,,,,,,,,,,,,,,,,,,,,,,,,,,,,,,,,,,,,,,,,,
0,76,76,89,1,,5b0d0beed282ff00015b9972,62b2ac991bc9707e87f00ac2,2022-06-21_22h47.02.967,Colour_Asymmetry_Pilot,2022.1.3,Win32,60.0024001,62b2a6a25f2ba72662469a01,,,,,,,,,,,,,,,,,,,,,,,,,,,,,,,,,,,,,,,,,,,,,,,,,,,,,,,,,,,,,,,,,,,,,,,,,,,,,,,,,,,,,,,,,,,,,,,,,,,,,,,,,,,,,,,,,,,,,,,,,,,,,,,,,,,,,,,,,,,,,,,,,,,,,,,,,,,,,,
0,77,77,81,1,,5b0d0beed282ff00015b9972,62b2ac991bc9707e87f00ac2,2022-06-21_22h47.02.967,Colour_Asymmetry_Pilot,2022.1.3,Win32,60.0024001,62b2a6a25f2ba72662469a01,,,,,,,,,,,,,,,,,,,,,,,,,,,,,,,,,,,,,,,,,,,,,,,,,,,,,,,,,,,,,,,,,,,,,,,,,,,,,,,,,,,,,,,,,,,,,,,,,,,,,,,,,,,,,,,,,,,,,,,,,,,,,,,,,,,,,,,,,,,,,,,,,,,,,,,,,,,,,,
0,78,78,47,1,,5b0d0beed282ff00015b9972,62b2ac991bc9707e87f00ac2,2022-06-21_22h47.02.967,Colour_Asymmetry_Pilot,2022.1.3,Win32,60.0024001,62b2a6a25f2ba72662469a01,,,,,,,,,,,,,,,,,,,,,,,,,,,,,,,,,,,,,,,,,,,,,,,,,,,,,,,,,,,,,,,,,,,,,,,,,,,,,,,,,,,,,,,,,,,,,,,,,,,,,,,,,,,,,,,,,,,,,,,,,,,,,,,,,,,,,,,,,,,,,,,,,,,,,,,,,,,,,,
0,79,79,55,1,,5b0d0beed282ff00015b9972,62b2ac991bc9707e87f00ac2,2022-06-21_22h47.02.967,Colour_Asymmetry_Pilot,2022.1.3,Win32,60.0024001,62b2a6a25f2ba72662469a01,,,,,,,,,,,,,,,,,,,,,,,,,,,,,,,,,,,,,,,,,,,,,,,,,,,,,,,,,,,,,,,,,,,,,,,,,,,,,,,,,,,,,,,,,,,,,,,,,,,,,,,,,,,,,,,,,,,,,,,,,,,,,,,,,,,,,,,,,,,,,,,,,,,,,,,,,,,,,,
0,80,80,85,1,,5b0d0beed282ff00015b9972,62b2ac991bc9707e87f00ac2,2022-06-21_22h47.02.967,Colour_Asymmetry_Pilot,2022.1.3,Win32,60.0024001,62b2a6a25f2ba72662469a01,,,,,,,,,,,,,,,,,,,,,,,,,,,,,,,,,,,,,,,,,,,,,,,,,,,,,,,,,,,,,,,,,,,,,,,,,,,,,,,,,,,,,,,,,,,,,,,,,,,,,,,,,,,,,,,,,,,,,,,,,,,,,,,,,,,,,,,,,,,,,,,,,,,,,,,,,,,,,,
0,81,81,37,1,,5b0d0beed282ff00015b9972,62b2ac991bc9707e87f00ac2,2022-06-21_22h47.02.967,Colour_Asymmetry_Pilot,2022.1.3,Win32,60.0024001,62b2a6a25f2ba72662469a01,,,,,,,,,,,,,,,,,,,,,,,,,,,,,,,,,,,,,,,,,,,,,,,,,,,,,,,,,,,,,,,,,,,,,,,,,,,,,,,,,,,,,,,,,,,,,,,,,,,,,,,,,,,,,,,,,,,,,,,,,,,,,,,,,,,,,,,,,,,,,,,,,,,,,,,,,,,,,,
0,82,82,59,1,,5b0d0beed282ff00015b9972,62b2ac991bc9707e87f00ac2,2022-06-21_22h47.02.967,Colour_Asymmetry_Pilot,2022.1.3,Win32,60.0024001,62b2a6a25f2ba72662469a01,,,,,,,,,,,,,,,,,,,,,,,,,,,,,,,,,,,,,,,,,,,,,,,,,,,,,,,,,,,,,,,,,,,,,,,,,,,,,,,,,,,,,,,,,,,,,,,,,,,,,,,,,,,,,,,,,,,,,,,,,,,,,,,,,,,,,,,,,,,,,,,,,,,,,,,,,,,,,,
0,83,83,66,1,,5b0d0beed282ff00015b9972,62b2ac991bc9707e87f00ac2,2022-06-21_22h47.02.967,Colour_Asymmetry_Pilot,2022.1.3,Win32,60.0024001,62b2a6a25f2ba72662469a01,,,,,,,,,,,,,,,,,,,,,,,,,,,,,,,,,,,,,,,,,,,,,,,,,,,,,,,,,,,,,,,,,,,,,,,,,,,,,,,,,,,,,,,,,,,,,,,,,,,,,,,,,,,,,,,,,,,,,,,,,,,,,,,,,,,,,,,,,,,,,,,,,,,,,,,,,,,,,,
0,84,84,3,1,,5b0d0beed282ff00015b9972,62b2ac991bc9707e87f00ac2,2022-06-21_22h47.02.967,Colour_Asymmetry_Pilot,2022.1.3,Win32,60.0024001,62b2a6a25f2ba72662469a01,,,,,,,,,,,,,,,,,,,,,,,,,,,,,,,,,,,,,,,,,,,,,,,,,,,,,,,,,,,,,,,,,,,,,,,,,,,,,,,,,,,,,,,,,,,,,,,,,,,,,,,,,,,,,,,,,,,,,,,,,,,,,,,,,,,,,,,,,,,,,,,,,,,,,,,,,,,,,,
0,85,85,46,1,,5b0d0beed282ff00015b9972,62b2ac991bc9707e87f00ac2,2022-06-21_22h47.02.967,Colour_Asymmetry_Pilot,2022.1.3,Win32,60.0024001,62b2a6a25f2ba72662469a01,,,,,,,,,,,,,,,,,,,,,,,,,,,,,,,,,,,,,,,,,,,,,,,,,,,,,,,,,,,,,,,,,,,,,,,,,,,,,,,,,,,,,,,,,,,,,,,,,,,,,,,,,,,,,,,,,,,,,,,,,,,,,,,,,,,,,,,,,,,,,,,,,,,,,,,,,,,,,,
0,86,86,61,1,,5b0d0beed282ff00015b9972,62b2ac991bc9707e87f00ac2,2022-06-21_22h47.02.967,Colour_Asymmetry_Pilot,2022.1.3,Win32,60.0024001,62b2a6a25f2ba72662469a01,,,,,,,,,,,,,,,,,,,,,,,,,,,,,,,,,,,,,,,,,,,,,,,,,,,,,,,,,,,,,,,,,,,,,,,,,,,,,,,,,,,,,,,,,,,,,,,,,,,,,,,,,,,,,,,,,,,,,,,,,,,,,,,,,,,,,,,,,,,,,,,,,,,,,,,,,,,,,,
0,87,87,14,1,,5b0d0beed282ff00015b9972,62b2ac991bc9707e87f00ac2,2022-06-21_22h47.02.967,Colour_Asymmetry_Pilot,2022.1.3,Win32,60.0024001,62b2a6a25f2ba72662469a01,,,,,,,,,,,,,,,,,,,,,,,,,,,,,,,,,,,,,,,,,,,,,,,,,,,,,,,,,,,,,,,,,,,,,,,,,,,,,,,,,,,,,,,,,,,,,,,,,,,,,,,,,,,,,,,,,,,,,,,,,,,,,,,,,,,,,,,,,,,,,,,,,,,,,,,,,,,,,,
0,88,88,19,1,,5b0d0beed282ff00015b9972,62b2ac991bc9707e87f00ac2,2022-06-21_22h47.02.967,Colour_Asymmetry_Pilot,2022.1.3,Win32,60.0024001,62b2a6a25f2ba72662469a01,,,,,,,,,,,,,,,,,,,,,,,,,,,,,,,,,,,,,,,,,,,,,,,,,,,,,,,,,,,,,,,,,,,,,,,,,,,,,,,,,,,,,,,,,,,,,,,,,,,,,,,,,,,,,,,,,,,,,,,,,,,,,,,,,,,,,,,,,,,,,,,,,,,,,,,,,,,,,,
0,89,89,64,1,,5b0d0beed282ff00015b9972,62b2ac991bc9707e87f00ac2,2022-06-21_22h47.02.967,Colour_Asymmetry_Pilot,2022.1.3,Win32,60.0024001,62b2a6a25f2ba72662469a01,,,,,,,,,,,,,,,,,,,,,,,,,,,,,,,,,,,,,,,,,,,,,,,,,,,,,,,,,,,,,,,,,,,,,,,,,,,,,,,,,,,,,,,,,,,,,,,,,,,,,,,,,,,,,,,,,,,,,,,,,,,,,,,,,,,,,,,,,,,,,,,,,,,,,,,,,,,,,,
0,90,90,32,1,,5b0d0beed282ff00015b9972,62b2ac991bc9707e87f00ac2,2022-06-21_22h47.02.967,Colour_Asymmetry_Pilot,2022.1.3,Win32,60.0024001,62b2a6a25f2ba72662469a01,,,,,,,,,,,,,,,,,,,,,,,,,,,,,,,,,,,,,,,,,,,,,,,,,,,,,,,,,,,,,,,,,,,,,,,,,,,,,,,,,,,,,,,,,,,,,,,,,,,,,,,,,,,,,,,,,,,,,,,,,,,,,,,,,,,,,,,,,,,,,,,,,,,,,,,,,,,,,,
0,91,91,70,1,,5b0d0beed282ff00015b9972,62b2ac991bc9707e87f00ac2,2022-06-21_22h47.02.967,Colour_Asymmetry_Pilot,2022.1.3,Win32,60.0024001,62b2a6a25f2ba72662469a01,,,,,,,,,,,,,,,,,,,,,,,,,,,,,,,,,,,,,,,,,,,,,,,,,,,,,,,,,,,,,,,,,,,,,,,,,,,,,,,,,,,,,,,,,,,,,,,,,,,,,,,,,,,,,,,,,,,,,,,,,,,,,,,,,,,,,,,,,,,,,,,,,,,,,,,,,,,,,,
0,92,92,88,1,,5b0d0beed282ff00015b9972,62b2ac991bc9707e87f00ac2,2022-06-21_22h47.02.967,Colour_Asymmetry_Pilot,2022.1.3,Win32,60.0024001,62b2a6a25f2ba72662469a01,,,,,,,,,,,,,,,,,,,,,,,,,,,,,,,,,,,,,,,,,,,,,,,,,,,,,,,,,,,,,,,,,,,,,,,,,,,,,,,,,,,,,,,,,,,,,,,,,,,,,,,,,,,,,,,,,,,,,,,,,,,,,,,,,,,,,,,,,,,,,,,,,,,,,,,,,,,,,,
,,,,,,5b0d0beed282ff00015b9972,62b2ac991bc9707e87f00ac2,2022-06-21_22h47.02.967,Colour_Asymmetry_Pilot,2022.1.3,Win32,60.0024001,62b2a6a25f2ba72662469a01,0,0,0,122,1,twoone,,,,,,,,,,,,,,,,,,,,,,,,,,,,,,,,,,,,,,,,,,,,,,,,,,,,,,,,,,,,,,,,,,,,,,,,,,,,,,,,,,,,,,,,,,,,,,,,,,,,,,,,,,,,,,,,,,,,,,,,,,,,,,,,,,,,,,,,,,,,,,,,,,,,,,,,
,,,,,,5b0d0beed282ff00015b9972,62b2ac991bc9707e87f00ac2,2022-06-21_22h47.02.967,Colour_Asymmetry_Pilot,2022.1.3,Win32,60.0024001,62b2a6a25f2ba72662469a01,0,1,1,98,1,twoone,,,,,,,,,,,,,,,,,,,,,,,,,,,,,,,,,,,,,,,,,,,,,,,,,,,,,,,,,,,,,,,,,,,,,,,,,,,,,,,,,,,,,,,,,,,,,,,,,,,,,,,,,,,,,,,,,,,,,,,,,,,,,,,,,,,,,,,,,,,,,,,,,,,,,,,,
,,,,,,5b0d0beed282ff00015b9972,62b2ac991bc9707e87f00ac2,2022-06-21_22h47.02.967,Colour_Asymmetry_Pilot,2022.1.3,Win32,60.0024001,62b2a6a25f2ba72662469a01,0,2,2,161,1,onethree,,,,,,,,,,,,,,,,,,,,,,,,,,,,,,,,,,,,,,,,,,,,,,,,,,,,,,,,,,,,,,,,,,,,,,,,,,,,,,,,,,,,,,,,,,,,,,,,,,,,,,,,,,,,,,,,,,,,,,,,,,,,,,,,,,,,,,,,,,,,,,,,,,,,,,,,
,,,,,,5b0d0beed282ff00015b9972,62b2ac991bc9707e87f00ac2,2022-06-21_22h47.02.967,Colour_Asymmetry_Pilot,2022.1.3,Win32,60.0024001,62b2a6a25f2ba72662469a01,0,3,3,19,1,twofour,,,,,,,,,,,,,,,,,,,,,,,,,,,,,,,,,,,,,,,,,,,,,,,,,,,,,,,,,,,,,,,,,,,,,,,,,,,,,,,,,,,,,,,,,,,,,,,,,,,,,,,,,,,,,,,,,,,,,,,,,,,,,,,,,,,,,,,,,,,,,,,,,,,,,,,,
,,,,,,5b0d0beed282ff00015b9972,62b2ac991bc9707e87f00ac2,2022-06-21_22h47.02.967,Colour_Asymmetry_Pilot,2022.1.3,Win32,60.0024001,62b2a6a25f2ba72662469a01,0,4,4,99,1,twofour,,,,,,,,,,,,,,,,,,,,,,,,,,,,,,,,,,,,,,,,,,,,,,,,,,,,,,,,,,,,,,,,,,,,,,,,,,,,,,,,,,,,,,,,,,,,,,,,,,,,,,,,,,,,,,,,,,,,,,,,,,,,,,,,,,,,,,,,,,,,,,,,,,,,,,,,
,,,,,,5b0d0beed282ff00015b9972,62b2ac991bc9707e87f00ac2,2022-06-21_22h47.02.967,Colour_Asymmetry_Pilot,2022.1.3,Win32,60.0024001,62b2a6a25f2ba72662469a01,0,5,5,153,1,onethree,,,,,,,,,,,,,,,,,,,,,,,,,,,,,,,,,,,,,,,,,,,,,,,,,,,,,,,,,,,,,,,,,,,,,,,,,,,,,,,,,,,,,,,,,,,,,,,,,,,,,,,,,,,,,,,,,,,,,,,,,,,,,,,,,,,,,,,,,,,,,,,,,,,,,,,,
,,,,,,5b0d0beed282ff00015b9972,62b2ac991bc9707e87f00ac2,2022-06-21_22h47.02.967,Colour_Asymmetry_Pilot,2022.1.3,Win32,60.0024001,62b2a6a25f2ba72662469a01,0,6,6,149,1,threefour,,,,,,,,,,,,,,,,,,,,,,,,,,,,,,,,,,,,,,,,,,,,,,,,,,,,,,,,,,,,,,,,,,,,,,,,,,,,,,,,,,,,,,,,,,,,,,,,,,,,,,,,,,,,,,,,,,,,,,,,,,,,,,,,,,,,,,,,,,,,,,,,,,,,,,,,
,,,,,,5b0d0beed282ff00015b9972,62b2ac991bc9707e87f00ac2,2022-06-21_22h47.02.967,Colour_Asymmetry_Pilot,2022.1.3,Win32,60.0024001,62b2a6a25f2ba72662469a01,0,7,7,138,1,twoone,,,,,,,,,,,,,,,,,,,,,,,,,,,,,,,,,,,,,,,,,,,,,,,,,,,,,,,,,,,,,,,,,,,,,,,,,,,,,,,,,,,,,,,,,,,,,,,,,,,,,,,,,,,,,,,,,,,,,,,,,,,,,,,,,,,,,,,,,,,,,,,,,,,,,,,,
,,,,,,5b0d0beed282ff00015b9972,62b2ac991bc9707e87f00ac2,2022-06-21_22h47.02.967,Colour_Asymmetry_Pilot,2022.1.3,Win32,60.0024001,62b2a6a25f2ba72662469a01,0,8,8,69,1,threefour,,,,,,,,,,,,,,,,,,,,,,,,,,,,,,,,,,,,,,,,,,,,,,,,,,,,,,,,,,,,,,,,,,,,,,,,,,,,,,,,,,,,,,,,,,,,,,,,,,,,,,,,,,,,,,,,,,,,,,,,,,,,,,,,,,,,,,,,,,,,,,,,,,,,,,,,
,,,,,,5b0d0beed282ff00015b9972,62b2ac991bc9707e87f00ac2,2022-06-21_22h47.02.967,Colour_Asymmetry_Pilot,2022.1.3,Win32,60.0024001,62b2a6a25f2ba72662469a01,0,9,9,152,1,onetwo,,,,,,,,,,,,,,,,,,,,,,,,,,,,,,,,,,,,,,,,,,,,,,,,,,,,,,,,,,,,,,,,,,,,,,,,,,,,,,,,,,,,,,,,,,,,,,,,,,,,,,,,,,,,,,,,,,,,,,,,,,,,,,,,,,,,,,,,,,,,,,,,,,,,,,,,
,,,,,,5b0d0beed282ff00015b9972,62b2ac991bc9707e87f00ac2,2022-06-21_22h47.02.967,Colour_Asymmetry_Pilot,2022.1.3,Win32,60.0024001,62b2a6a25f2ba72662469a01,0,10,10,145,1,onethree,,,,,,,,,,,,,,,,,,,,,,,,,,,,,,,,,,,,,,,,,,,,,,,,,,,,,,,,,,,,,,,,,,,,,,,,,,,,,,,,,,,,,,,,,,,,,,,,,,,,,,,,,,,,,,,,,,,,,,,,,,,,,,,,,,,,,,,,,,,,,,,,,,,,,,,,
,,,,,,5b0d0beed282ff00015b9972,62b2ac991bc9707e87f00ac2,2022-06-21_22h47.02.967,Colour_Asymmetry_Pilot,2022.1.3,Win32,60.0024001,62b2a6a25f2ba72662469a01,0,11,11,7,1,fourthree,,,,,,,,,,,,,,,,,,,,,,,,,,,,,,,,,,,,,,,,,,,,,,,,,,,,,,,,,,,,,,,,,,,,,,,,,,,,,,,,,,,,,,,,,,,,,,,,,,,,,,,,,,,,,,,,,,,,,,,,,,,,,,,,,,,,,,,,,,,,,,,,,,,,,,,,
,,,,,,5b0d0beed282ff00015b9972,62b2ac991bc9707e87f00ac2,2022-06-21_22h47.02.967,Colour_Asymmetry_Pilot,2022.1.3,Win32,60.0024001,62b2a6a25f2ba72662469a01,0,12,12,110,1,fourtwo,,,,,,,,,,,,,,,,,,,,,,,,,,,,,,,,,,,,,,,,,,,,,,,,,,,,,,,,,,,,,,,,,,,,,,,,,,,,,,,,,,,,,,,,,,,,,,,,,,,,,,,,,,,,,,,,,,,,,,,,,,,,,,,,,,,,,,,,,,,,,,,,,,,,,,,,
,,,,,,5b0d0beed282ff00015b9972,62b2ac991bc9707e87f00ac2,2022-06-21_22h47.02.967,Colour_Asymmetry_Pilot,2022.1.3,Win32,60.0024001,62b2a6a25f2ba72662469a01,0,13,13,11,1,twofour,,,,,,,,,,,,,,,,,,,,,,,,,,,,,,,,,,,,,,,,,,,,,,,,,,,,,,,,,,,,,,,,,,,,,,,,,,,,,,,,,,,,,,,,,,,,,,,,,,,,,,,,,,,,,,,,,,,,,,,,,,,,,,,,,,,,,,,,,,,,,,,,,,,,,,,,
,,,,,,5b0d0beed282ff00015b9972,62b2ac991bc9707e87f00ac2,2022-06-21_22h47.02.967,Colour_Asymmetry_Pilot,2022.1.3,Win32,60.0024001,62b2a6a25f2ba72662469a01,0,14,14,59,1,twofour,,,,,,,,,,,,,,,,,,,,,,,,,,,,,,,,,,,,,,,,,,,,,,,,,,,,,,,,,,,,,,,,,,,,,,,,,,,,,,,,,,,,,,,,,,,,,,,,,,,,,,,,,,,,,,,,,,,,,,,,,,,,,,,,,,,,,,,,,,,,,,,,,,,,,,,,
,,,,,,5b0d0beed282ff00015b9972,62b2ac991bc9707e87f00ac2,2022-06-21_22h47.02.967,Colour_Asymmetry_Pilot,2022.1.3,Win32,60.0024001,62b2a6a25f2ba72662469a01,0,15,15,155,1,twofour,,,,,,,,,,,,,,,,,,,,,,,,,,,,,,,,,,,,,,,,,,,,,,,,,,,,,,,,,,,,,,,,,,,,,,,,,,,,,,,,,,,,,,,,,,,,,,,,,,,,,,,,,,,,,,,,,,,,,,,,,,,,,,,,,,,,,,,,,,,,,,,,,,,,,,,,
,,,,,,5b0d0beed282ff00015b9972,62b2ac991bc9707e87f00ac2,2022-06-21_22h47.02.967,Colour_Asymmetry_Pilot,2022.1.3,Win32,60.0024001,62b2a6a25f2ba72662469a01,0,16,16,128,1,onetwo,,,,,,,,,,,,,,,,,,,,,,,,,,,,,,,,,,,,,,,,,,,,,,,,,,,,,,,,,,,,,,,,,,,,,,,,,,,,,,,,,,,,,,,,,,,,,,,,,,,,,,,,,,,,,,,,,,,,,,,,,,,,,,,,,,,,,,,,,,,,,,,,,,,,,,,,
,,,,,,5b0d0beed282ff00015b9972,62b2ac991bc9707e87f00ac2,2022-06-21_22h47.02.967,Colour_Asymmetry_Pilot,2022.1.3,Win32,60.0024001,62b2a6a25f2ba72662469a01,0,17,17,134,1,fourtwo,,,,,,,,,,,,,,,,,,,,,,,,,,,,,,,,,,,,,,,,,,,,,,,,,,,,,,,,,,,,,,,,,,,,,,,,,,,,,,,,,,,,,,,,,,,,,,,,,,,,,,,,,,,,,,,,,,,,,,,,,,,,,,,,,,,,,,,,,,,,,,,,,,,,,,,,
,,,,,,5b0d0beed282ff00015b9972,62b2ac991bc9707e87f00ac2,2022-06-21_22h47.02.967,Colour_Asymmetry_Pilot,2022.1.3,Win32,60.0024001,62b2a6a25f2ba72662469a01,0,18,18,144,1,onetwo,,,,,,,,,,,,,,,,,,,,,,,,,,,,,,,,,,,,,,,,,,,,,,,,,,,,,,,,,,,,,,,,,,,,,,,,,,,,,,,,,,,,,,,,,,,,,,,,,,,,,,,,,,,,,,,,,,,,,,,,,,,,,,,,,,,,,,,,,,,,,,,,,,,,,,,,
,,,,,,5b0d0beed282ff00015b9972,62b2ac991bc9707e87f00ac2,2022-06-21_22h47.02.967,Colour_Asymmetry_Pilot,2022.1.3,Win32,60.0024001,62b2a6a25f2ba72662469a01,0,19,19,0,1,onetwo,,,,,,,,,,,,,,,,,,,,,,,,,,,,,,,,,,,,,,,,,,,,,,,,,,,,,,,,,,,,,,,,,,,,,,,,,,,,,,,,,,,,,,,,,,,,,,,,,,,,,,,,,,,,,,,,,,,,,,,,,,,,,,,,,,,,,,,,,,,,,,,,,,,,,,,,
,,,,,,5b0d0beed282ff00015b9972,62b2ac991bc9707e87f00ac2,2022-06-21_22h47.02.967,Colour_Asymmetry_Pilot,2022.1.3,Win32,60.0024001,62b2a6a25f2ba72662469a01,0,20,20,101,1,threefour,,,,,,,,,,,,,,,,,,,,,,,,,,,,,,,,,,,,,,,,,,,,,,,,,,,,,,,,,,,,,,,,,,,,,,,,,,,,,,,,,,,,,,,,,,,,,,,,,,,,,,,,,,,,,,,,,,,,,,,,,,,,,,,,,,,,,,,,,,,,,,,,,,,,,,,,
,,,,,,5b0d0beed282ff00015b9972,62b2ac991bc9707e87f00ac2,2022-06-21_22h47.02.967,Colour_Asymmetry_Pilot,2022.1.3,Win32,60.0024001,62b2a6a25f2ba72662469a01,0,21,21,157,1,threefour,,,,,,,,,,,,,,,,,,,,,,,,,,,,,,,,,,,,,,,,,,,,,,,,,,,,,,,,,,,,,,,,,,,,,,,,,,,,,,,,,,,,,,,,,,,,,,,,,,,,,,,,,,,,,,,,,,,,,,,,,,,,,,,,,,,,,,,,,,,,,,,,,,,,,,,,
,,,,,,5b0d0beed282ff00015b9972,62b2ac991bc9707e87f00ac2,2022-06-21_22h47.02.967,Colour_Asymmetry_Pilot,2022.1.3,Win32,60.0024001,62b2a6a25f2ba72662469a01,0,22,22,21,1,threefour,,,,,,,,,,,,,,,,,,,,,,,,,,,,,,,,,,,,,,,,,,,,,,,,,,,,,,,,,,,,,,,,,,,,,,,,,,,,,,,,,,,,,,,,,,,,,,,,,,,,,,,,,,,,,,,,,,,,,,,,,,,,,,,,,,,,,,,,,,,,,,,,,,,,,,,,
,,,,,,5b0d0beed282ff00015b9972,62b2ac991bc9707e87f00ac2,2022-06-21_22h47.02.967,Colour_Asymmetry_Pilot,2022.1.3,Win32,60.0024001,62b2a6a25f2ba72662469a01,0,23,23,56,1,onetwo,,,,,,,,,,,,,,,,,,,,,,,,,,,,,,,,,,,,,,,,,,,,,,,,,,,,,,,,,,,,,,,,,,,,,,,,,,,,,,,,,,,,,,,,,,,,,,,,,,,,,,,,,,,,,,,,,,,,,,,,,,,,,,,,,,,,,,,,,,,,,,,,,,,,,,,,
,,,,,,5b0d0beed282ff00015b9972,62b2ac991bc9707e87f00ac2,2022-06-21_22h47.02.967,Colour_Asymmetry_Pilot,2022.1.3,Win32,60.0024001,62b2a6a25f2ba72662469a01,0,24,24,87,1,fourthree,,,,,,,,,,,,,,,,,,,,,,,,,,,,,,,,,,,,,,,,,,,,,,,,,,,,,,,,,,,,,,,,,,,,,,,,,,,,,,,,,,,,,,,,,,,,,,,,,,,,,,,,,,,,,,,,,,,,,,,,,,,,,,,,,,,,,,,,,,,,,,,,,,,,,,,,
,,,,,,5b0d0beed282ff00015b9972,62b2ac991bc9707e87f00ac2,2022-06-21_22h47.02.967,Colour_Asymmetry_Pilot,2022.1.3,Win32,60.0024001,62b2a6a25f2ba72662469a01,0,25,25,104,1,onetwo,,,,,,,,,,,,,,,,,,,,,,,,,,,,,,,,,,,,,,,,,,,,,,,,,,,,,,,,,,,,,,,,,,,,,,,,,,,,,,,,,,,,,,,,,,,,,,,,,,,,,,,,,,,,,,,,,,,,,,,,,,,,,,,,,,,,,,,,,,,,,,,,,,,,,,,,
,,,,,,5b0d0beed282ff00015b9972,62b2ac991bc9707e87f00ac2,2022-06-21_22h47.02.967,Colour_Asymmetry_Pilot,2022.1.3,Win32,60.0024001,62b2a6a25f2ba72662469a01,0,26,26,95,1,fourthree,,,,,,,,,,,,,,,,,,,,,,,,,,,,,,,,,,,,,,,,,,,,,,,,,,,,,,,,,,,,,,,,,,,,,,,,,,,,,,,,,,,,,,,,,,,,,,,,,,,,,,,,,,,,,,,,,,,,,,,,,,,,,,,,,,,,,,,,,,,,,,,,,,,,,,,,
,,,,,,5b0d0beed282ff00015b9972,62b2ac991bc9707e87f00ac2,2022-06-21_22h47.02.967,Colour_Asymmetry_Pilot,2022.1.3,Win32,60.0024001,62b2a6a25f2ba72662469a01,0,27,27,44,1,threeone,,,,,,,,,,,,,,,,,,,,,,,,,,,,,,,,,,,,,,,,,,,,,,,,,,,,,,,,,,,,,,,,,,,,,,,,,,,,,,,,,,,,,,,,,,,,,,,,,,,,,,,,,,,,,,,,,,,,,,,,,,,,,,,,,,,,,,,,,,,,,,,,,,,,,,,,
,,,,,,5b0d0beed282ff00015b9972,62b2ac991bc9707e87f00ac2,2022-06-21_22h47.02.967,Colour_Asymmetry_Pilot,2022.1.3,Win32,60.0024001,62b2a6a25f2ba72662469a01,0,28,28,68,1,threeone,,,,,,,,,,,,,,,,,,,,,,,,,,,,,,,,,,,,,,,,,,,,,,,,,,,,,,,,,,,,,,,,,,,,,,,,,,,,,,,,,,,,,,,,,,,,,,,,,,,,,,,,,,,,,,,,,,,,,,,,,,,,,,,,,,,,,,,,,,,,,,,,,,,,,,,,
,,,,,,5b0d0beed282ff00015b9972,62b2ac991bc9707e87f00ac2,2022-06-21_22h47.02.967,Colour_Asymmetry_Pilot,2022.1.3,Win32,60.0024001,62b2a6a25f2ba72662469a01,0,29,29,46,1,fourtwo,,,,,,,,,,,,,,,,,,,,,,,,,,,,,,,,,,,,,,,,,,,,,,,,,,,,,,,,,,,,,,,,,,,,,,,,,,,,,,,,,,,,,,,,,,,,,,,,,,,,,,,,,,,,,,,,,,,,,,,,,,,,,,,,,,,,,,,,,,,,,,,,,,,,,,,,
,,,,,,5b0d0beed282ff00015b9972,62b2ac991bc9707e87f00ac2,2022-06-21_22h47.02.967,Colour_Asymmetry_Pilot,2022.1.3,Win32,60.0024001,62b2a6a25f2ba72662469a01,0,30,30,58,1,twoone,,,,,,,,,,,,,,,,,,,,,,,,,,,,,,,,,,,,,,,,,,,,,,,,,,,,,,,,,,,,,,,,,,,,,,,,,,,,,,,,,,,,,,,,,,,,,,,,,,,,,,,,,,,,,,,,,,,,,,,,,,,,,,,,,,,,,,,,,,,,,,,,,,,,,,,,
,,,,,,5b0d0beed282ff00015b9972,62b2ac991bc9707e87f00ac2,2022-06-21_22h47.02.967,Colour_Asymmetry_Pilot,2022.1.3,Win32,60.0024001,62b2a6a25f2ba72662469a01,0,31,31,141,1,threefour,,,,,,,,,,,,,,,,,,,,,,,,,,,,,,,,,,,,,,,,,,,,,,,,,,,,,,,,,,,,,,,,,,,,,,,,,,,,,,,,,,,,,,,,,,,,,,,,,,,,,,,,,,,,,,,,,,,,,,,,,,,,,,,,,,,,,,,,,,,,,,,,,,,,,,,,
,,,,,,5b0d0beed282ff00015b9972,62b2ac991bc9707e87f00ac2,2022-06-21_22h47.02.967,Colour_Asymmetry_Pilot,2022.1.3,Win32,60.0024001,62b2a6a25f2ba72662469a01,0,32,32,54,1,fourtwo,,,,,,,,,,,,,,,,,,,,,,,,,,,,,,,,,,,,,,,,,,,,,,,,,,,,,,,,,,,,,,,,,,,,,,,,,,,,,,,,,,,,,,,,,,,,,,,,,,,,,,,,,,,,,,,,,,,,,,,,,,,,,,,,,,,,,,,,,,,,,,,,,,,,,,,,
,,,,,,5b0d0beed282ff00015b9972,62b2ac991bc9707e87f00ac2,2022-06-21_22h47.02.967,Colour_Asymmetry_Pilot,2022.1.3,Win32,60.0024001,62b2a6a25f2ba72662469a01,0,33,33,6,1,fourtwo,,,,,,,,,,,,,,,,,,,,,,,,,,,,,,,,,,,,,,,,,,,,,,,,,,,,,,,,,,,,,,,,,,,,,,,,,,,,,,,,,,,,,,,,,,,,,,,,,,,,,,,,,,,,,,,,,,,,,,,,,,,,,,,,,,,,,,,,,,,,,,,,,,,,,,,,
,,,,,,5b0d0beed282ff00015b9972,62b2ac991bc9707e87f00ac2,2022-06-21_22h47.02.967,Colour_Asymmetry_Pilot,2022.1.3,Win32,60.0024001,62b2a6a25f2ba72662469a01,0,34,34,74,1,twoone,,,,,,,,,,,,,,,,,,,,,,,,,,,,,,,,,,,,,,,,,,,,,,,,,,,,,,,,,,,,,,,,,,,,,,,,,,,,,,,,,,,,,,,,,,,,,,,,,,,,,,,,,,,,,,,,,,,,,,,,,,,,,,,,,,,,,,,,,,,,,,,,,,,,,,,,
,,,,,,5b0d0beed282ff00015b9972,62b2ac991bc9707e87f00ac2,2022-06-21_22h47.02.967,Colour_Asymmetry_Pilot,2022.1.3,Win32,60.0024001,62b2a6a25f2ba72662469a01,0,35,35,136,1,onetwo,,,,,,,,,,,,,,,,,,,,,,,,,,,,,,,,,,,,,,,,,,,,,,,,,,,,,,,,,,,,,,,,,,,,,,,,,,,,,,,,,,,,,,,,,,,,,,,,,,,,,,,,,,,,,,,,,,,,,,,,,,,,,,,,,,,,,,,,,,,,,,,,,,,,,,,,
,,,,,,5b0d0beed282ff00015b9972,62b2ac991bc9707e87f00ac2,2022-06-21_22h47.02.967,Colour_Asymmetry_Pilot,2022.1.3,Win32,60.0024001,62b2a6a25f2ba72662469a01,0,36,36,41,1,onethree,,,,,,,,,,,,,,,,,,,,,,,,,,,,,,,,,,,,,,,,,,,,,,,,,,,,,,,,,,,,,,,,,,,,,,,,,,,,,,,,,,,,,,,,,,,,,,,,,,,,,,,,,,,,,,,,,,,,,,,,,,,,,,,,,,,,,,,,,,,,,,,,,,,,,,,,
,,,,,,5b0d0beed282ff00015b9972,62b2ac991bc9707e87f00ac2,2022-06-21_22h47.02.967,Colour_Asymmetry_Pilot,2022.1.3,Win32,60.0024001,62b2a6a25f2ba72662469a01,0,37,37,64,1,onetwo,,,,,,,,,,,,,,,,,,,,,,,,,,,,,,,,,,,,,,,,,,,,,,,,,,,,,,,,,,,,,,,,,,,,,,,,,,,,,,,,,,,,,,,,,,,,,,,,,,,,,,,,,,,,,,,,,,,,,,,,,,,,,,,,,,,,,,,,,,,,,,,,,,,,,,,,
,,,,,,5b0d0beed282ff00015b9972,62b2ac991bc9707e87f00ac2,2022-06-21_22h47.02.967,Colour_Asymmetry_Pilot,2022.1.3,Win32,60.0024001,62b2a6a25f2ba72662469a01,0,38,38,150,1,fourtwo,,,,,,,,,,,,,,,,,,,,,,,,,,,,,,,,,,,,,,,,,,,,,,,,,,,,,,,,,,,,,,,,,,,,,,,,,,,,,,,,,,,,,,,,,,,,,,,,,,,,,,,,,,,,,,,,,,,,,,,,,,,,,,,,,,,,,,,,,,,,,,,,,,,,,,,,
,,,,,,5b0d0beed282ff00015b9972,62b2ac991bc9707e87f00ac2,2022-06-21_22h47.02.967,Colour_Asymmetry_Pilot,2022.1.3,Win32,60.0024001,62b2a6a25f2ba72662469a01,0,39,39,97,1,onethree,,,,,,,,,,,,,,,,,,,,,,,,,,,,,,,,,,,,,,,,,,,,,,,,,,,,,,,,,,,,,,,,,,,,,,,,,,,,,,,,,,,,,,,,,,,,,,,,,,,,,,,,,,,,,,,,,,,,,,,,,,,,,,,,,,,,,,,,,,,,,,,,,,,,,,,,
,,,,,,5b0d0beed282ff00015b9972,62b2ac991bc9707e87f00ac2,2022-06-21_22h47.02.967,Colour_Asymmetry_Pilot,2022.1.3,Win32,60.0024001,62b2a6a25f2ba72662469a01,0,40,40,22,1,fourtwo,,,,,,,,,,,,,,,,,,,,,,,,,,,,,,,,,,,,,,,,,,,,,,,,,,,,,,,,,,,,,,,,,,,,,,,,,,,,,,,,,,,,,,,,,,,,,,,,,,,,,,,,,,,,,,,,,,,,,,,,,,,,,,,,,,,,,,,,,,,,,,,,,,,,,,,,
,,,,,,5b0d0beed282ff00015b9972,62b2ac991bc9707e87f00ac2,2022-06-21_22h47.02.967,Colour_Asymmetry_Pilot,2022.1.3,Win32,60.0024001,62b2a6a25f2ba72662469a01,0,41,41,119,1,fourthree,,,,,,,,,,,,,,,,,,,,,,,,,,,,,,,,,,,,,,,,,,,,,,,,,,,,,,,,,,,,,,,,,,,,,,,,,,,,,,,,,,,,,,,,,,,,,,,,,,,,,,,,,,,,,,,,,,,,,,,,,,,,,,,,,,,,,,,,,,,,,,,,,,,,,,,,
,,,,,,5b0d0beed282ff00015b9972,62b2ac991bc9707e87f00ac2,2022-06-21_22h47.02.967,Colour_Asymmetry_Pilot,2022.1.3,Win32,60.0024001,62b2a6a25f2ba72662469a01,0,42,42,83,1,twofour,,,,,,,,,,,,,,,,,,,,,,,,,,,,,,,,,,,,,,,,,,,,,,,,,,,,,,,,,,,,,,,,,,,,,,,,,,,,,,,,,,,,,,,,,,,,,,,,,,,,,,,,,,,,,,,,,,,,,,,,,,,,,,,,,,,,,,,,,,,,,,,,,,,,,,,,
,,,,,,5b0d0beed282ff00015b9972,62b2ac991bc9707e87f00ac2,2022-06-21_22h47.02.967,Colour_Asymmetry_Pilot,2022.1.3,Win32,60.0024001,62b2a6a25f2ba72662469a01,0,43,43,154,1,twoone,,,,,,,,,,,,,,,,,,,,,,,,,,,,,,,,,,,,,,,,,,,,,,,,,,,,,,,,,,,,,,,,,,,,,,,,,,,,,,,,,,,,,,,,,,,,,,,,,,,,,,,,,,,,,,,,,,,,,,,,,,,,,,,,,,,,,,,,,,,,,,,,,,,,,,,,
,,,,,,5b0d0beed282ff00015b9972,62b2ac991bc9707e87f00ac2,2022-06-21_22h47.02.967,Colour_Asymmetry_Pilot,2022.1.3,Win32,60.0024001,62b2a6a25f2ba72662469a01,0,44,44,113,1,onethree,,,,,,,,,,,,,,,,,,,,,,,,,,,,,,,,,,,,,,,,,,,,,,,,,,,,,,,,,,,,,,,,,,,,,,,,,,,,,,,,,,,,,,,,,,,,,,,,,,,,,,,,,,,,,,,,,,,,,,,,,,,,,,,,,,,,,,,,,,,,,,,,,,,,,,,,
,,,,,,5b0d0beed282ff00015b9972,62b2ac991bc9707e87f00ac2,2022-06-21_22h47.02.967,Colour_Asymmetry_Pilot,2022.1.3,Win32,60.0024001,62b2a6a25f2ba72662469a01,0,45,45,35,1,twofour,,,,,,,,,,,,,,,,,,,,,,,,,,,,,,,,,,,,,,,,,,,,,,,,,,,,,,,,,,,,,,,,,,,,,,,,,,,,,,,,,,,,,,,,,,,,,,,,,,,,,,,,,,,,,,,,,,,,,,,,,,,,,,,,,,,,,,,,,,,,,,,,,,,,,,,,
,,,,,,5b0d0beed282ff00015b9972,62b2ac991bc9707e87f00ac2,2022-06-21_22h47.02.967,Colour_Asymmetry_Pilot,2022.1.3,Win32,60.0024001,62b2a6a25f2ba72662469a01,0,46,46,137,1,onethree,,,,,,,,,,,,,,,,,,,,,,,,,,,,,,,,,,,,,,,,,,,,,,,,,,,,,,,,,,,,,,,,,,,,,,,,,,,,,,,,,,,,,,,,,,,,,,,,,,,,,,,,,,,,,,,,,,,,,,,,,,,,,,,,,,,,,,,,,,,,,,,,,,,,,,,,
,,,,,,5b0d0beed282ff00015b9972,62b2ac991bc9707e87f00ac2,2022-06-21_22h47.02.967,Colour_Asymmetry_Pilot,2022.1.3,Win32,60.0024001,62b2a6a25f2ba72662469a01,0,47,47,47,1,fourthree,,,,,,,,,,,,,,,,,,,,,,,,,,,,,,,,,,,,,,,,,,,,,,,,,,,,,,,,,,,,,,,,,,,,,,,,,,,,,,,,,,,,,,,,,,,,,,,,,,,,,,,,,,,,,,,,,,,,,,,,,,,,,,,,,,,,,,,,,,,,,,,,,,,,,,,,
,,,,,,5b0d0beed282ff00015b9972,62b2ac991bc9707e87f00ac2,2022-06-21_22h47.02.967,Colour_Asymmetry_Pilot,2022.1.3,Win32,60.0024001,62b2a6a25f2ba72662469a01,0,48,48,66,1,twoone,,,,,,,,,,,,,,,,,,,,,,,,,,,,,,,,,,,,,,,,,,,,,,,,,,,,,,,,,,,,,,,,,,,,,,,,,,,,,,,,,,,,,,,,,,,,,,,,,,,,,,,,,,,,,,,,,,,,,,,,,,,,,,,,,,,,,,,,,,,,,,,,,,,,,,,,
,,,,,,5b0d0beed282ff00015b9972,62b2ac991bc9707e87f00ac2,2022-06-21_22h47.02.967,Colour_Asymmetry_Pilot,2022.1.3,Win32,60.0024001,62b2a6a25f2ba72662469a01,0,49,49,60,1,threeone,,,,,,,,,,,,,,,,,,,,,,,,,,,,,,,,,,,,,,,,,,,,,,,,,,,,,,,,,,,,,,,,,,,,,,,,,,,,,,,,,,,,,,,,,,,,,,,,,,,,,,,,,,,,,,,,,,,,,,,,,,,,,,,,,,,,,,,,,,,,,,,,,,,,,,,,
,,,,,,5b0d0beed282ff00015b9972,62b2ac991bc9707e87f00ac2,2022-06-21_22h47.02.967,Colour_Asymmetry_Pilot,2022.1.3,Win32,60.0024001,62b2a6a25f2ba72662469a01,0,50,50,96,1,onetwo,,,,,,,,,,,,,,,,,,,,,,,,,,,,,,,,,,,,,,,,,,,,,,,,,,,,,,,,,,,,,,,,,,,,,,,,,,,,,,,,,,,,,,,,,,,,,,,,,,,,,,,,,,,,,,,,,,,,,,,,,,,,,,,,,,,,,,,,,,,,,,,,,,,,,,,,
,,,,,,5b0d0beed282ff00015b9972,62b2ac991bc9707e87f00ac2,2022-06-21_22h47.02.967,Colour_Asymmetry_Pilot,2022.1.3,Win32,60.0024001,62b2a6a25f2ba72662469a01,0,51,51,139,1,twofour,,,,,,,,,,,,,,,,,,,,,,,,,,,,,,,,,,,,,,,,,,,,,,,,,,,,,,,,,,,,,,,,,,,,,,,,,,,,,,,,,,,,,,,,,,,,,,,,,,,,,,,,,,,,,,,,,,,,,,,,,,,,,,,,,,,,,,,,,,,,,,,,,,,,,,,,
,,,,,,5b0d0beed282ff00015b9972,62b2ac991bc9707e87f00ac2,2022-06-21_22h47.02.967,Colour_Asymmetry_Pilot,2022.1.3,Win32,60.0024001,62b2a6a25f2ba72662469a01,0,52,52,3,1,twofour,,,,,,,,,,,,,,,,,,,,,,,,,,,,,,,,,,,,,,,,,,,,,,,,,,,,,,,,,,,,,,,,,,,,,,,,,,,,,,,,,,,,,,,,,,,,,,,,,,,,,,,,,,,,,,,,,,,,,,,,,,,,,,,,,,,,,,,,,,,,,,,,,,,,,,,,
,,,,,,5b0d0beed282ff00015b9972,62b2ac991bc9707e87f00ac2,2022-06-21_22h47.02.967,Colour_Asymmetry_Pilot,2022.1.3,Win32,60.0024001,62b2a6a25f2ba72662469a01,0,53,53,36,1,threeone,,,,,,,,,,,,,,,,,,,,,,,,,,,,,,,,,,,,,,,,,,,,,,,,,,,,,,,,,,,,,,,,,,,,,,,,,,,,,,,,,,,,,,,,,,,,,,,,,,,,,,,,,,,,,,,,,,,,,,,,,,,,,,,,,,,,,,,,,,,,,,,,,,,,,,,,
,,,,,,5b0d0beed282ff00015b9972,62b2ac991bc9707e87f00ac2,2022-06-21_22h47.02.967,Colour_Asymmetry_Pilot,2022.1.3,Win32,60.0024001,62b2a6a25f2ba72662469a01,0,54,54,117,1,threefour,,,,,,,,,,,,,,,,,,,,,,,,,,,,,,,,,,,,,,,,,,,,,,,,,,,,,,,,,,,,,,,,,,,,,,,,,,,,,,,,,,,,,,,,,,,,,,,,,,,,,,,,,,,,,,,,,,,,,,,,,,,,,,,,,,,,,,,,,,,,,,,,,,,,,,,,
,,,,,,5b0d0beed282ff00015b9972,62b2ac991bc9707e87f00ac2,2022-06-21_22h47.02.967,Colour_Asymmetry_Pilot,2022.1.3,Win32,60.0024001,62b2a6a25f2ba72662469a01,0,55,55,31,1,fourthree,,,,,,,,,,,,,,,,,,,,,,,,,,,,,,,,,,,,,,,,,,,,,,,,,,,,,,,,,,,,,,,,,,,,,,,,,,,,,,,,,,,,,,,,,,,,,,,,,,,,,,,,,,,,,,,,,,,,,,,,,,,,,,,,,,,,,,,,,,,,,,,,,,,,,,,,
,,,,,,5b0d0beed282ff00015b9972,62b2ac991bc9707e87f00ac2,2022-06-21_22h47.02.967,Colour_Asymmetry_Pilot,2022.1.3,Win32,60.0024001,62b2a6a25f2ba72662469a01,0,56,56,43,1,twofour,,,,,,,,,,,,,,,,,,,,,,,,,,,,,,,,,,,,,,,,,,,,,,,,,,,,,,,,,,,,,,,,,,,,,,,,,,,,,,,,,,,,,,,,,,,,,,,,,,,,,,,,,,,,,,,,,,,,,,,,,,,,,,,,,,,,,,,,,,,,,,,,,,,,,,,,
,,,,,,5b0d0beed282ff00015b9972,62b2ac991bc9707e87f00ac2,2022-06-21_22h47.02.967,Colour_Asymmetry_Pilot,2022.1.3,Win32,60.0024001,62b2a6a25f2ba72662469a01,0,57,57,26,1,twoone,,,,,,,,,,,,,,,,,,,,,,,,,,,,,,,,,,,,,,,,,,,,,,,,,,,,,,,,,,,,,,,,,,,,,,,,,,,,,,,,,,,,,,,,,,,,,,,,,,,,,,,,,,,,,,,,,,,,,,,,,,,,,,,,,,,,,,,,,,,,,,,,,,,,,,,,
,,,,,,5b0d0beed282ff00015b9972,62b2ac991bc9707e87f00ac2,2022-06-21_22h47.02.967,Colour_Asymmetry_Pilot,2022.1.3,Win32,60.0024001,62b2a6a25f2ba72662469a01,0,58,58,76,1,threeone,,,,,,,,,,,,,,,,,,,,,,,,,,,,,,,,,,,,,,,,,,,,,,,,,,,,,,,,,,,,,,,,,,,,,,,,,,,,,,,,,,,,,,,,,,,,,,,,,,,,,,,,,,,,,,,,,,,,,,,,,,,,,,,,,,,,,,,,,,,,,,,,,,,,,,,,
,,,,,,5b0d0beed282ff00015b9972,62b2ac991bc9707e87f00ac2,2022-06-21_22h47.02.967,Colour_Asymmetry_Pilot,2022.1.3,Win32,60.0024001,62b2a6a25f2ba72662469a01,0,59,59,29,1,threefour,,,,,,,,,,,,,,,,,,,,,,,,,,,,,,,,,,,,,,,,,,,,,,,,,,,,,,,,,,,,,,,,,,,,,,,,,,,,,,,,,,,,,,,,,,,,,,,,,,,,,,,,,,,,,,,,,,,,,,,,,,,,,,,,,,,,,,,,,,,,,,,,,,,,,,,,
,,,,,,5b0d0beed282ff00015b9972,62b2ac991bc9707e87f00ac2,2022-06-21_22h47.02.967,Colour_Asymmetry_Pilot,2022.1.3,Win32,60.0024001,62b2a6a25f2ba72662469a01,0,60,60,91,1,twofour,,,,,,,,,,,,,,,,,,,,,,,,,,,,,,,,,,,,,,,,,,,,,,,,,,,,,,,,,,,,,,,,,,,,,,,,,,,,,,,,,,,,,,,,,,,,,,,,,,,,,,,,,,,,,,,,,,,,,,,,,,,,,,,,,,,,,,,,,,,,,,,,,,,,,,,,
,,,,,,5b0d0beed282ff00015b9972,62b2ac991bc9707e87f00ac2,2022-06-21_22h47.02.967,Colour_Asymmetry_Pilot,2022.1.3,Win32,60.0024001,62b2a6a25f2ba72662469a01,0,61,61,120,1,onetwo,,,,,,,,,,,,,,,,,,,,,,,,,,,,,,,,,,,,,,,,,,,,,,,,,,,,,,,,,,,,,,,,,,,,,,,,,,,,,,,,,,,,,,,,,,,,,,,,,,,,,,,,,,,,,,,,,,,,,,,,,,,,,,,,,,,,,,,,,,,,,,,,,,,,,,,,
,,,,,,5b0d0beed282ff00015b9972,62b2ac991bc9707e87f00ac2,2022-06-21_22h47.02.967,Colour_Asymmetry_Pilot,2022.1.3,Win32,60.0024001,62b2a6a25f2ba72662469a01,0,62,62,92,1,threeone,,,,,,,,,,,,,,,,,,,,,,,,,,,,,,,,,,,,,,,,,,,,,,,,,,,,,,,,,,,,,,,,,,,,,,,,,,,,,,,,,,,,,,,,,,,,,,,,,,,,,,,,,,,,,,,,,,,,,,,,,,,,,,,,,,,,,,,,,,,,,,,,,,,,,,,,
,,,,,,5b0d0beed282ff00015b9972,62b2ac991bc9707e87f00ac2,2022-06-21_22h47.02.967,Colour_Asymmetry_Pilot,2022.1.3,Win32,60.0024001,62b2a6a25f2ba72662469a01,0,63,63,53,1,threefour,,,,,,,,,,,,,,,,,,,,,,,,,,,,,,,,,,,,,,,,,,,,,,,,,,,,,,,,,,,,,,,,,,,,,,,,,,,,,,,,,,,,,,,,,,,,,,,,,,,,,,,,,,,,,,,,,,,,,,,,,,,,,,,,,,,,,,,,,,,,,,,,,,,,,,,,
,,,,,,5b0d0beed282ff00015b9972,62b2ac991bc9707e87f00ac2,2022-06-21_22h47.02.967,Colour_Asymmetry_Pilot,2022.1.3,Win32,60.0024001,62b2a6a25f2ba72662469a01,0,64,64,156,1,threeone,,,,,,,,,,,,,,,,,,,,,,,,,,,,,,,,,,,,,,,,,,,,,,,,,,,,,,,,,,,,,,,,,,,,,,,,,,,,,,,,,,,,,,,,,,,,,,,,,,,,,,,,,,,,,,,,,,,,,,,,,,,,,,,,,,,,,,,,,,,,,,,,,,,,,,,,
,,,,,,5b0d0beed282ff00015b9972,62b2ac991bc9707e87f00ac2,2022-06-21_22h47.02.967,Colour_Asymmetry_Pilot,2022.1.3,Win32,60.0024001,62b2a6a25f2ba72662469a01,0,65,65,140,1,threeone,,,,,,,,,,,,,,,,,,,,,,,,,,,,,,,,,,,,,,,,,,,,,,,,,,,,,,,,,,,,,,,,,,,,,,,,,,,,,,,,,,,,,,,,,,,,,,,,,,,,,,,,,,,,,,,,,,,,,,,,,,,,,,,,,,,,,,,,,,,,,,,,,,,,,,,,
,,,,,,5b0d0beed282ff00015b9972,62b2ac991bc9707e87f00ac2,2022-06-21_22h47.02.967,Colour_Asymmetry_Pilot,2022.1.3,Win32,60.0024001,62b2a6a25f2ba72662469a01,0,66,66,57,1,onethree,,,,,,,,,,,,,,,,,,,,,,,,,,,,,,,,,,,,,,,,,,,,,,,,,,,,,,,,,,,,,,,,,,,,,,,,,,,,,,,,,,,,,,,,,,,,,,,,,,,,,,,,,,,,,,,,,,,,,,,,,,,,,,,,,,,,,,,,,,,,,,,,,,,,,,,,
,,,,,,5b0d0beed282ff00015b9972,62b2ac991bc9707e87f00ac2,2022-06-21_22h47.02.967,Colour_Asymmetry_Pilot,2022.1.3,Win32,60.0024001,62b2a6a25f2ba72662469a01,0,67,67,33,1,onethree,,,,,,,,,,,,,,,,,,,,,,,,,,,,,,,,,,,,,,,,,,,,,,,,,,,,,,,,,,,,,,,,,,,,,,,,,,,,,,,,,,,,,,,,,,,,,,,,,,,,,,,,,,,,,,,,,,,,,,,,,,,,,,,,,,,,,,,,,,,,,,,,,,,,,,,,
,,,,,,5b0d0beed282ff00015b9972,62b2ac991bc9707e87f00ac2,2022-06-21_22h47.02.967,Colour_Asymmetry_Pilot,2022.1.3,Win32,60.0024001,62b2a6a25f2ba72662469a01,0,68,68,42,1,twoone,,,,,,,,,,,,,,,,,,,,,,,,,,,,,,,,,,,,,,,,,,,,,,,,,,,,,,,,,,,,,,,,,,,,,,,,,,,,,,,,,,,,,,,,,,,,,,,,,,,,,,,,,,,,,,,,,,,,,,,,,,,,,,,,,,,,,,,,,,,,,,,,,,,,,,,,
,,,,,,5b0d0beed282ff00015b9972,62b2ac991bc9707e87f00ac2,2022-06-21_22h47.02.967,Colour_Asymmetry_Pilot,2022.1.3,Win32,60.0024001,62b2a6a25f2ba72662469a01,0,69,69,121,1,onethree,,,,,,,,,,,,,,,,,,,,,,,,,,,,,,,,,,,,,,,,,,,,,,,,,,,,,,,,,,,,,,,,,,,,,,,,,,,,,,,,,,,,,,,,,,,,,,,,,,,,,,,,,,,,,,,,,,,,,,,,,,,,,,,,,,,,,,,,,,,,,,,,,,,,,,,,
,,,,,,5b0d0beed282ff00015b9972,62b2ac991bc9707e87f00ac2,2022-06-21_22h47.02.967,Colour_Asymmetry_Pilot,2022.1.3,Win32,60.0024001,62b2a6a25f2ba72662469a01,0,70,70,132,1,threeone,,,,,,,,,,,,,,,,,,,,,,,,,,,,,,,,,,,,,,,,,,,,,,,,,,,,,,,,,,,,,,,,,,,,,,,,,,,,,,,,,,,,,,,,,,,,,,,,,,,,,,,,,,,,,,,,,,,,,,,,,,,,,,,,,,,,,,,,,,,,,,,,,,,,,,,,
,,,,,,5b0d0beed282ff00015b9972,62b2ac991bc9707e87f00ac2,2022-06-21_22h47.02.967,Colour_Asymmetry_Pilot,2022.1.3,Win32,60.0024001,62b2a6a25f2ba72662469a01,0,71,71,30,1,fourtwo,,,,,,,,,,,,,,,,,,,,,,,,,,,,,,,,,,,,,,,,,,,,,,,,,,,,,,,,,,,,,,,,,,,,,,,,,,,,,,,,,,,,,,,,,,,,,,,,,,,,,,,,,,,,,,,,,,,,,,,,,,,,,,,,,,,,,,,,,,,,,,,,,,,,,,,,
,,,,,,5b0d0beed282ff00015b9972,62b2ac991bc9707e87f00ac2,2022-06-21_22h47.02.967,Colour_Asymmetry_Pilot,2022.1.3,Win32,60.0024001,62b2a6a25f2ba72662469a01,0,72,72,50,1,twoone,,,,,,,,,,,,,,,,,,,,,,,,,,,,,,,,,,,,,,,,,,,,,,,,,,,,,,,,,,,,,,,,,,,,,,,,,,,,,,,,,,,,,,,,,,,,,,,,,,,,,,,,,,,,,,,,,,,,,,,,,,,,,,,,,,,,,,,,,,,,,,,,,,,,,,,,
,,,,,,5b0d0beed282ff00015b9972,62b2ac991bc9707e87f00ac2,2022-06-21_22h47.02.967,Colour_Asymmetry_Pilot,2022.1.3,Win32,60.0024001,62b2a6a25f2ba72662469a01,0,73,73,70,1,fourtwo,,,,,,,,,,,,,,,,,,,,,,,,,,,,,,,,,,,,,,,,,,,,,,,,,,,,,,,,,,,,,,,,,,,,,,,,,,,,,,,,,,,,,,,,,,,,,,,,,,,,,,,,,,,,,,,,,,,,,,,,,,,,,,,,,,,,,,,,,,,,,,,,,,,,,,,,
,,,,,,5b0d0beed282ff00015b9972,62b2ac991bc9707e87f00ac2,2022-06-21_22h47.02.967,Colour_Asymmetry_Pilot,2022.1.3,Win32,60.0024001,62b2a6a25f2ba72662469a01,0,74,74,116,1,threeone,,,,,,,,,,,,,,,,,,,,,,,,,,,,,,,,,,,,,,,,,,,,,,,,,,,,,,,,,,,,,,,,,,,,,,,,,,,,,,,,,,,,,,,,,,,,,,,,,,,,,,,,,,,,,,,,,,,,,,,,,,,,,,,,,,,,,,,,,,,,,,,,,,,,,,,,
,,,,,,5b0d0beed282ff00015b9972,62b2ac991bc9707e87f00ac2,2022-06-21_22h47.02.967,Colour_Asymmetry_Pilot,2022.1.3,Win32,60.0024001,62b2a6a25f2ba72662469a01,0,75,75,34,1,twoone,,,,,,,,,,,,,,,,,,,,,,,,,,,,,,,,,,,,,,,,,,,,,,,,,,,,,,,,,,,,,,,,,,,,,,,,,,,,,,,,,,,,,,,,,,,,,,,,,,,,,,,,,,,,,,,,,,,,,,,,,,,,,,,,,,,,,,,,,,,,,,,,,,,,,,,,
,,,,,,5b0d0beed282ff00015b9972,62b2ac991bc9707e87f00ac2,2022-06-21_22h47.02.967,Colour_Asymmetry_Pilot,2022.1.3,Win32,60.0024001,62b2a6a25f2ba72662469a01,0,76,76,114,1,twoone,,,,,,,,,,,,,,,,,,,,,,,,,,,,,,,,,,,,,,,,,,,,,,,,,,,,,,,,,,,,,,,,,,,,,,,,,,,,,,,,,,,,,,,,,,,,,,,,,,,,,,,,,,,,,,,,,,,,,,,,,,,,,,,,,,,,,,,,,,,,,,,,,,,,,,,,
,,,,,,5b0d0beed282ff00015b9972,62b2ac991bc9707e87f00ac2,2022-06-21_22h47.02.967,Colour_Asymmetry_Pilot,2022.1.3,Win32,60.0024001,62b2a6a25f2ba72662469a01,0,77,77,73,1,onethree,,,,,,,,,,,,,,,,,,,,,,,,,,,,,,,,,,,,,,,,,,,,,,,,,,,,,,,,,,,,,,,,,,,,,,,,,,,,,,,,,,,,,,,,,,,,,,,,,,,,,,,,,,,,,,,,,,,,,,,,,,,,,,,,,,,,,,,,,,,,,,,,,,,,,,,,
,,,,,,5b0d0beed282ff00015b9972,62b2ac991bc9707e87f00ac2,2022-06-21_22h47.02.967,Colour_Asymmetry_Pilot,2022.1.3,Win32,60.0024001,62b2a6a25f2ba72662469a01,0,78,78,90,1,twoone,,,,,,,,,,,,,,,,,,,,,,,,,,,,,,,,,,,,,,,,,,,,,,,,,,,,,,,,,,,,,,,,,,,,,,,,,,,,,,,,,,,,,,,,,,,,,,,,,,,,,,,,,,,,,,,,,,,,,,,,,,,,,,,,,,,,,,,,,,,,,,,,,,,,,,,,
,,,,,,5b0d0beed282ff00015b9972,62b2ac991bc9707e87f00ac2,2022-06-21_22h47.02.967,Colour_Asymmetry_Pilot,2022.1.3,Win32,60.0024001,62b2a6a25f2ba72662469a01,0,79,79,38,1,fourtwo,,,,,,,,,,,,,,,,,,,,,,,,,,,,,,,,,,,,,,,,,,,,,,,,,,,,,,,,,,,,,,,,,,,,,,,,,,,,,,,,,,,,,,,,,,,,,,,,,,,,,,,,,,,,,,,,,,,,,,,,,,,,,,,,,,,,,,,,,,,,,,,,,,,,,,,,
,,,,,,5b0d0beed282ff00015b9972,62b2ac991bc9707e87f00ac2,2022-06-21_22h47.02.967,Colour_Asymmetry_Pilot,2022.1.3,Win32,60.0024001,62b2a6a25f2ba72662469a01,0,80,80,2,1,twoone,,,,,,,,,,,,,,,,,,,,,,,,,,,,,,,,,,,,,,,,,,,,,,,,,,,,,,,,,,,,,,,,,,,,,,,,,,,,,,,,,,,,,,,,,,,,,,,,,,,,,,,,,,,,,,,,,,,,,,,,,,,,,,,,,,,,,,,,,,,,,,,,,,,,,,,,
,,,,,,5b0d0beed282ff00015b9972,62b2ac991bc9707e87f00ac2,2022-06-21_22h47.02.967,Colour_Asymmetry_Pilot,2022.1.3,Win32,60.0024001,62b2a6a25f2ba72662469a01,0,81,81,51,1,twofour,,,,,,,,,,,,,,,,,,,,,,,,,,,,,,,,,,,,,,,,,,,,,,,,,,,,,,,,,,,,,,,,,,,,,,,,,,,,,,,,,,,,,,,,,,,,,,,,,,,,,,,,,,,,,,,,,,,,,,,,,,,,,,,,,,,,,,,,,,,,,,,,,,,,,,,,
,,,,,,5b0d0beed282ff00015b9972,62b2ac991bc9707e87f00ac2,2022-06-21_22h47.02.967,Colour_Asymmetry_Pilot,2022.1.3,Win32,60.0024001,62b2a6a25f2ba72662469a01,0,82,82,146,1,twoone,,,,,,,,,,,,,,,,,,,,,,,,,,,,,,,,,,,,,,,,,,,,,,,,,,,,,,,,,,,,,,,,,,,,,,,,,,,,,,,,,,,,,,,,,,,,,,,,,,,,,,,,,,,,,,,,,,,,,,,,,,,,,,,,,,,,,,,,,,,,,,,,,,,,,,,,
,,,,,,5b0d0beed282ff00015b9972,62b2ac991bc9707e87f00ac2,2022-06-21_22h47.02.967,Colour_Asymmetry_Pilot,2022.1.3,Win32,60.0024001,62b2a6a25f2ba72662469a01,0,83,83,45,1,threefour,,,,,,,,,,,,,,,,,,,,,,,,,,,,,,,,,,,,,,,,,,,,,,,,,,,,,,,,,,,,,,,,,,,,,,,,,,,,,,,,,,,,,,,,,,,,,,,,,,,,,,,,,,,,,,,,,,,,,,,,,,,,,,,,,,,,,,,,,,,,,,,,,,,,,,,,
,,,,,,5b0d0beed282ff00015b9972,62b2ac991bc9707e87f00ac2,2022-06-21_22h47.02.967,Colour_Asymmetry_Pilot,2022.1.3,Win32,60.0024001,62b2a6a25f2ba72662469a01,0,84,84,88,1,onetwo,,,,,,,,,,,,,,,,,,,,,,,,,,,,,,,,,,,,,,,,,,,,,,,,,,,,,,,,,,,,,,,,,,,,,,,,,,,,,,,,,,,,,,,,,,,,,,,,,,,,,,,,,,,,,,,,,,,,,,,,,,,,,,,,,,,,,,,,,,,,,,,,,,,,,,,,
,,,,,,5b0d0beed282ff00015b9972,62b2ac991bc9707e87f00ac2,2022-06-21_22h47.02.967,Colour_Asymmetry_Pilot,2022.1.3,Win32,60.0024001,62b2a6a25f2ba72662469a01,0,85,85,125,1,threefour,,,,,,,,,,,,,,,,,,,,,,,,,,,,,,,,,,,,,,,,,,,,,,,,,,,,,,,,,,,,,,,,,,,,,,,,,,,,,,,,,,,,,,,,,,,,,,,,,,,,,,,,,,,,,,,,,,,,,,,,,,,,,,,,,,,,,,,,,,,,,,,,,,,,,,,,
,,,,,,5b0d0beed282ff00015b9972,62b2ac991bc9707e87f00ac2,2022-06-21_22h47.02.967,Colour_Asymmetry_Pilot,2022.1.3,Win32,60.0024001,62b2a6a25f2ba72662469a01,0,86,86,63,1,fourthree,,,,,,,,,,,,,,,,,,,,,,,,,,,,,,,,,,,,,,,,,,,,,,,,,,,,,,,,,,,,,,,,,,,,,,,,,,,,,,,,,,,,,,,,,,,,,,,,,,,,,,,,,,,,,,,,,,,,,,,,,,,,,,,,,,,,,,,,,,,,,,,,,,,,,,,,
,,,,,,5b0d0beed282ff00015b9972,62b2ac991bc9707e87f00ac2,2022-06-21_22h47.02.967,Colour_Asymmetry_Pilot,2022.1.3,Win32,60.0024001,62b2a6a25f2ba72662469a01,0,87,87,52,1,threeone,,,,,,,,,,,,,,,,,,,,,,,,,,,,,,,,,,,,,,,,,,,,,,,,,,,,,,,,,,,,,,,,,,,,,,,,,,,,,,,,,,,,,,,,,,,,,,,,,,,,,,,,,,,,,,,,,,,,,,,,,,,,,,,,,,,,,,,,,,,,,,,,,,,,,,,,
,,,,,,5b0d0beed282ff00015b9972,62b2ac991bc9707e87f00ac2,2022-06-21_22h47.02.967,Colour_Asymmetry_Pilot,2022.1.3,Win32,60.0024001,62b2a6a25f2ba72662469a01,0,88,88,107,1,twofour,,,,,,,,,,,,,,,,,,,,,,,,,,,,,,,,,,,,,,,,,,,,,,,,,,,,,,,,,,,,,,,,,,,,,,,,,,,,,,,,,,,,,,,,,,,,,,,,,,,,,,,,,,,,,,,,,,,,,,,,,,,,,,,,,,,,,,,,,,,,,,,,,,,,,,,,
,,,,,,5b0d0beed282ff00015b9972,62b2ac991bc9707e87f00ac2,2022-06-21_22h47.02.967,Colour_Asymmetry_Pilot,2022.1.3,Win32,60.0024001,62b2a6a25f2ba72662469a01,0,89,89,85,1,threefour,,,,,,,,,,,,,,,,,,,,,,,,,,,,,,,,,,,,,,,,,,,,,,,,,,,,,,,,,,,,,,,,,,,,,,,,,,,,,,,,,,,,,,,,,,,,,,,,,,,,,,,,,,,,,,,,,,,,,,,,,,,,,,,,,,,,,,,,,,,,,,,,,,,,,,,,
,,,,,,5b0d0beed282ff00015b9972,62b2ac991bc9707e87f00ac2,2022-06-21_22h47.02.967,Colour_Asymmetry_Pilot,2022.1.3,Win32,60.0024001,62b2a6a25f2ba72662469a01,0,90,90,81,1,onethree,,,,,,,,,,,,,,,,,,,,,,,,,,,,,,,,,,,,,,,,,,,,,,,,,,,,,,,,,,,,,,,,,,,,,,,,,,,,,,,,,,,,,,,,,,,,,,,,,,,,,,,,,,,,,,,,,,,,,,,,,,,,,,,,,,,,,,,,,,,,,,,,,,,,,,,,
,,,,,,5b0d0beed282ff00015b9972,62b2ac991bc9707e87f00ac2,2022-06-21_22h47.02.967,Colour_Asymmetry_Pilot,2022.1.3,Win32,60.0024001,62b2a6a25f2ba72662469a01,0,91,91,18,1,twoone,,,,,,,,,,,,,,,,,,,,,,,,,,,,,,,,,,,,,,,,,,,,,,,,,,,,,,,,,,,,,,,,,,,,,,,,,,,,,,,,,,,,,,,,,,,,,,,,,,,,,,,,,,,,,,,,,,,,,,,,,,,,,,,,,,,,,,,,,,,,,,,,,,,,,,,,
,,,,,,5b0d0beed282ff00015b9972,62b2ac991bc9707e87f00ac2,2022-06-21_22h47.02.967,Colour_Asymmetry_Pilot,2022.1.3,Win32,60.0024001,62b2a6a25f2ba72662469a01,0,92,92,126,1,fourtwo,,,,,,,,,,,,,,,,,,,,,,,,,,,,,,,,,,,,,,,,,,,,,,,,,,,,,,,,,,,,,,,,,,,,,,,,,,,,,,,,,,,,,,,,,,,,,,,,,,,,,,,,,,,,,,,,,,,,,,,,,,,,,,,,,,,,,,,,,,,,,,,,,,,,,,,,
,,,,,,5b0d0beed282ff00015b9972,62b2ac991bc9707e87f00ac2,2022-06-21_22h47.02.967,Colour_Asymmetry_Pilot,2022.1.3,Win32,60.0024001,62b2a6a25f2ba72662469a01,0,93,93,123,1,twofour,,,,,,,,,,,,,,,,,,,,,,,,,,,,,,,,,,,,,,,,,,,,,,,,,,,,,,,,,,,,,,,,,,,,,,,,,,,,,,,,,,,,,,,,,,,,,,,,,,,,,,,,,,,,,,,,,,,,,,,,,,,,,,,,,,,,,,,,,,,,,,,,,,,,,,,,
,,,,,,5b0d0beed282ff00015b9972,62b2ac991bc9707e87f00ac2,2022-06-21_22h47.02.967,Colour_Asymmetry_Pilot,2022.1.3,Win32,60.0024001,62b2a6a25f2ba72662469a01,0,94,94,80,1,onetwo,,,,,,,,,,,,,,,,,,,,,,,,,,,,,,,,,,,,,,,,,,,,,,,,,,,,,,,,,,,,,,,,,,,,,,,,,,,,,,,,,,,,,,,,,,,,,,,,,,,,,,,,,,,,,,,,,,,,,,,,,,,,,,,,,,,,,,,,,,,,,,,,,,,,,,,,
,,,,,,5b0d0beed282ff00015b9972,62b2ac991bc9707e87f00ac2,2022-06-21_22h47.02.967,Colour_Asymmetry_Pilot,2022.1.3,Win32,60.0024001,62b2a6a25f2ba72662469a01,0,95,95,151,1,fourthree,,,,,,,,,,,,,,,,,,,,,,,,,,,,,,,,,,,,,,,,,,,,,,,,,,,,,,,,,,,,,,,,,,,,,,,,,,,,,,,,,,,,,,,,,,,,,,,,,,,,,,,,,,,,,,,,,,,,,,,,,,,,,,,,,,,,,,,,,,,,,,,,,,,,,,,,
,,,,,,5b0d0beed282ff00015b9972,62b2ac991bc9707e87f00ac2,2022-06-21_22h47.02.967,Colour_Asymmetry_Pilot,2022.1.3,Win32,60.0024001,62b2a6a25f2ba72662469a01,0,96,96,13,1,threefour,,,,,,,,,,,,,,,,,,,,,,,,,,,,,,,,,,,,,,,,,,,,,,,,,,,,,,,,,,,,,,,,,,,,,,,,,,,,,,,,,,,,,,,,,,,,,,,,,,,,,,,,,,,,,,,,,,,,,,,,,,,,,,,,,,,,,,,,,,,,,,,,,,,,,,,,
,,,,,,5b0d0beed282ff00015b9972,62b2ac991bc9707e87f00ac2,2022-06-21_22h47.02.967,Colour_Asymmetry_Pilot,2022.1.3,Win32,60.0024001,62b2a6a25f2ba72662469a01,0,97,97,16,1,onetwo,,,,,,,,,,,,,,,,,,,,,,,,,,,,,,,,,,,,,,,,,,,,,,,,,,,,,,,,,,,,,,,,,,,,,,,,,,,,,,,,,,,,,,,,,,,,,,,,,,,,,,,,,,,,,,,,,,,,,,,,,,,,,,,,,,,,,,,,,,,,,,,,,,,,,,,,
,,,,,,5b0d0beed282ff00015b9972,62b2ac991bc9707e87f00ac2,2022-06-21_22h47.02.967,Colour_Asymmetry_Pilot,2022.1.3,Win32,60.0024001,62b2a6a25f2ba72662469a01,0,98,98,103,1,fourthree,,,,,,,,,,,,,,,,,,,,,,,,,,,,,,,,,,,,,,,,,,,,,,,,,,,,,,,,,,,,,,,,,,,,,,,,,,,,,,,,,,,,,,,,,,,,,,,,,,,,,,,,,,,,,,,,,,,,,,,,,,,,,,,,,,,,,,,,,,,,,,,,,,,,,,,,
,,,,,,5b0d0beed282ff00015b9972,62b2ac991bc9707e87f00ac2,2022-06-21_22h47.02.967,Colour_Asymmetry_Pilot,2022.1.3,Win32,60.0024001,62b2a6a25f2ba72662469a01,0,99,99,93,1,threefour,,,,,,,,,,,,,,,,,,,,,,,,,,,,,,,,,,,,,,,,,,,,,,,,,,,,,,,,,,,,,,,,,,,,,,,,,,,,,,,,,,,,,,,,,,,,,,,,,,,,,,,,,,,,,,,,,,,,,,,,,,,,,,,,,,,,,,,,,,,,,,,,,,,,,,,,
,,,,,,5b0d0beed282ff00015b9972,62b2ac991bc9707e87f00ac2,2022-06-21_22h47.02.967,Colour_Asymmetry_Pilot,2022.1.3,Win32,60.0024001,62b2a6a25f2ba72662469a01,0,100,100,14,1,fourtwo,,,,,,,,,,,,,,,,,,,,,,,,,,,,,,,,,,,,,,,,,,,,,,,,,,,,,,,,,,,,,,,,,,,,,,,,,,,,,,,,,,,,,,,,,,,,,,,,,,,,,,,,,,,,,,,,,,,,,,,,,,,,,,,,,,,,,,,,,,,,,,,,,,,,,,,,
,,,,,,5b0d0beed282ff00015b9972,62b2ac991bc9707e87f00ac2,2022-06-21_22h47.02.967,Colour_Asymmetry_Pilot,2022.1.3,Win32,60.0024001,62b2a6a25f2ba72662469a01,0,101,101,84,1,threeone,,,,,,,,,,,,,,,,,,,,,,,,,,,,,,,,,,,,,,,,,,,,,,,,,,,,,,,,,,,,,,,,,,,,,,,,,,,,,,,,,,,,,,,,,,,,,,,,,,,,,,,,,,,,,,,,,,,,,,,,,,,,,,,,,,,,,,,,,,,,,,,,,,,,,,,,
,,,,,,5b0d0beed282ff00015b9972,62b2ac991bc9707e87f00ac2,2022-06-21_22h47.02.967,Colour_Asymmetry_Pilot,2022.1.3,Win32,60.0024001,62b2a6a25f2ba72662469a01,0,102,102,27,1,twofour,,,,,,,,,,,,,,,,,,,,,,,,,,,,,,,,,,,,,,,,,,,,,,,,,,,,,,,,,,,,,,,,,,,,,,,,,,,,,,,,,,,,,,,,,,,,,,,,,,,,,,,,,,,,,,,,,,,,,,,,,,,,,,,,,,,,,,,,,,,,,,,,,,,,,,,,
,,,,,,5b0d0beed282ff00015b9972,62b2ac991bc9707e87f00ac2,2022-06-21_22h47.02.967,Colour_Asymmetry_Pilot,2022.1.3,Win32,60.0024001,62b2a6a25f2ba72662469a01,0,103,103,37,1,threefour,,,,,,,,,,,,,,,,,,,,,,,,,,,,,,,,,,,,,,,,,,,,,,,,,,,,,,,,,,,,,,,,,,,,,,,,,,,,,,,,,,,,,,,,,,,,,,,,,,,,,,,,,,,,,,,,,,,,,,,,,,,,,,,,,,,,,,,,,,,,,,,,,,,,,,,,
,,,,,,5b0d0beed282ff00015b9972,62b2ac991bc9707e87f00ac2,2022-06-21_22h47.02.967,Colour_Asymmetry_Pilot,2022.1.3,Win32,60.0024001,62b2a6a25f2ba72662469a01,0,104,104,115,1,twofour,,,,,,,,,,,,,,,,,,,,,,,,,,,,,,,,,,,,,,,,,,,,,,,,,,,,,,,,,,,,,,,,,,,,,,,,,,,,,,,,,,,,,,,,,,,,,,,,,,,,,,,,,,,,,,,,,,,,,,,,,,,,,,,,,,,,,,,,,,,,,,,,,,,,,,,,
,,,,,,5b0d0beed282ff00015b9972,62b2ac991bc9707e87f00ac2,2022-06-21_22h47.02.967,Colour_Asymmetry_Pilot,2022.1.3,Win32,60.0024001,62b2a6a25f2ba72662469a01,0,105,105,15,1,fourthree,,,,,,,,,,,,,,,,,,,,,,,,,,,,,,,,,,,,,,,,,,,,,,,,,,,,,,,,,,,,,,,,,,,,,,,,,,,,,,,,,,,,,,,,,,,,,,,,,,,,,,,,,,,,,,,,,,,,,,,,,,,,,,,,,,,,,,,,,,,,,,,,,,,,,,,,
,,,,,,5b0d0beed282ff00015b9972,62b2ac991bc9707e87f00ac2,2022-06-21_22h47.02.967,Colour_Asymmetry_Pilot,2022.1.3,Win32,60.0024001,62b2a6a25f2ba72662469a01,0,106,106,78,1,fourtwo,,,,,,,,,,,,,,,,,,,,,,,,,,,,,,,,,,,,,,,,,,,,,,,,,,,,,,,,,,,,,,,,,,,,,,,,,,,,,,,,,,,,,,,,,,,,,,,,,,,,,,,,,,,,,,,,,,,,,,,,,,,,,,,,,,,,,,,,,,,,,,,,,,,,,,,,
,,,,,,5b0d0beed282ff00015b9972,62b2ac991bc9707e87f00ac2,2022-06-21_22h47.02.967,Colour_Asymmetry_Pilot,2022.1.3,Win32,60.0024001,62b2a6a25f2ba72662469a01,0,107,107,40,1,onetwo,,,,,,,,,,,,,,,,,,,,,,,,,,,,,,,,,,,,,,,,,,,,,,,,,,,,,,,,,,,,,,,,,,,,,,,,,,,,,,,,,,,,,,,,,,,,,,,,,,,,,,,,,,,,,,,,,,,,,,,,,,,,,,,,,,,,,,,,,,,,,,,,,,,,,,,,
,,,,,,5b0d0beed282ff00015b9972,62b2ac991bc9707e87f00ac2,2022-06-21_22h47.02.967,Colour_Asymmetry_Pilot,2022.1.3,Win32,60.0024001,62b2a6a25f2ba72662469a01,0,108,108,102,1,fourtwo,,,,,,,,,,,,,,,,,,,,,,,,,,,,,,,,,,,,,,,,,,,,,,,,,,,,,,,,,,,,,,,,,,,,,,,,,,,,,,,,,,,,,,,,,,,,,,,,,,,,,,,,,,,,,,,,,,,,,,,,,,,,,,,,,,,,,,,,,,,,,,,,,,,,,,,,
,,,,,,5b0d0beed282ff00015b9972,62b2ac991bc9707e87f00ac2,2022-06-21_22h47.02.967,Colour_Asymmetry_Pilot,2022.1.3,Win32,60.0024001,62b2a6a25f2ba72662469a01,0,109,109,10,1,twoone,,,,,,,,,,,,,,,,,,,,,,,,,,,,,,,,,,,,,,,,,,,,,,,,,,,,,,,,,,,,,,,,,,,,,,,,,,,,,,,,,,,,,,,,,,,,,,,,,,,,,,,,,,,,,,,,,,,,,,,,,,,,,,,,,,,,,,,,,,,,,,,,,,,,,,,,
,,,,,,5b0d0beed282ff00015b9972,62b2ac991bc9707e87f00ac2,2022-06-21_22h47.02.967,Colour_Asymmetry_Pilot,2022.1.3,Win32,60.0024001,62b2a6a25f2ba72662469a01,0,110,110,77,1,threefour,,,,,,,,,,,,,,,,,,,,,,,,,,,,,,,,,,,,,,,,,,,,,,,,,,,,,,,,,,,,,,,,,,,,,,,,,,,,,,,,,,,,,,,,,,,,,,,,,,,,,,,,,,,,,,,,,,,,,,,,,,,,,,,,,,,,,,,,,,,,,,,,,,,,,,,,
,,,,,,5b0d0beed282ff00015b9972,62b2ac991bc9707e87f00ac2,2022-06-21_22h47.02.967,Colour_Asymmetry_Pilot,2022.1.3,Win32,60.0024001,62b2a6a25f2ba72662469a01,0,111,111,159,1,fourthree,,,,,,,,,,,,,,,,,,,,,,,,,,,,,,,,,,,,,,,,,,,,,,,,,,,,,,,,,,,,,,,,,,,,,,,,,,,,,,,,,,,,,,,,,,,,,,,,,,,,,,,,,,,,,,,,,,,,,,,,,,,,,,,,,,,,,,,,,,,,,,,,,,,,,,,,
,,,,,,5b0d0beed282ff00015b9972,62b2ac991bc9707e87f00ac2,2022-06-21_22h47.02.967,Colour_Asymmetry_Pilot,2022.1.3,Win32,60.0024001,62b2a6a25f2ba72662469a01,0,112,112,39,1,fourthree,,,,,,,,,,,,,,,,,,,,,,,,,,,,,,,,,,,,,,,,,,,,,,,,,,,,,,,,,,,,,,,,,,,,,,,,,,,,,,,,,,,,,,,,,,,,,,,,,,,,,,,,,,,,,,,,,,,,,,,,,,,,,,,,,,,,,,,,,,,,,,,,,,,,,,,,
,,,,,,5b0d0beed282ff00015b9972,62b2ac991bc9707e87f00ac2,2022-06-21_22h47.02.967,Colour_Asymmetry_Pilot,2022.1.3,Win32,60.0024001,62b2a6a25f2ba72662469a01,0,113,113,20,1,threeone,,,,,,,,,,,,,,,,,,,,,,,,,,,,,,,,,,,,,,,,,,,,,,,,,,,,,,,,,,,,,,,,,,,,,,,,,,,,,,,,,,,,,,,,,,,,,,,,,,,,,,,,,,,,,,,,,,,,,,,,,,,,,,,,,,,,,,,,,,,,,,,,,,,,,,,,
,,,,,,5b0d0beed282ff00015b9972,62b2ac991bc9707e87f00ac2,2022-06-21_22h47.02.967,Colour_Asymmetry_Pilot,2022.1.3,Win32,60.0024001,62b2a6a25f2ba72662469a01,0,114,114,160,1,onetwo,,,,,,,,,,,,,,,,,,,,,,,,,,,,,,,,,,,,,,,,,,,,,,,,,,,,,,,,,,,,,,,,,,,,,,,,,,,,,,,,,,,,,,,,,,,,,,,,,,,,,,,,,,,,,,,,,,,,,,,,,,,,,,,,,,,,,,,,,,,,,,,,,,,,,,,,
,,,,,,5b0d0beed282ff00015b9972,62b2ac991bc9707e87f00ac2,2022-06-21_22h47.02.967,Colour_Asymmetry_Pilot,2022.1.3,Win32,60.0024001,62b2a6a25f2ba72662469a01,0,115,115,9,1,onethree,,,,,,,,,,,,,,,,,,,,,,,,,,,,,,,,,,,,,,,,,,,,,,,,,,,,,,,,,,,,,,,,,,,,,,,,,,,,,,,,,,,,,,,,,,,,,,,,,,,,,,,,,,,,,,,,,,,,,,,,,,,,,,,,,,,,,,,,,,,,,,,,,,,,,,,,
,,,,,,5b0d0beed282ff00015b9972,62b2ac991bc9707e87f00ac2,2022-06-21_22h47.02.967,Colour_Asymmetry_Pilot,2022.1.3,Win32,60.0024001,62b2a6a25f2ba72662469a01,0,116,116,28,1,threeone,,,,,,,,,,,,,,,,,,,,,,,,,,,,,,,,,,,,,,,,,,,,,,,,,,,,,,,,,,,,,,,,,,,,,,,,,,,,,,,,,,,,,,,,,,,,,,,,,,,,,,,,,,,,,,,,,,,,,,,,,,,,,,,,,,,,,,,,,,,,,,,,,,,,,,,,
,,,,,,5b0d0beed282ff00015b9972,62b2ac991bc9707e87f00ac2,2022-06-21_22h47.02.967,Colour_Asymmetry_Pilot,2022.1.3,Win32,60.0024001,62b2a6a25f2ba72662469a01,0,117,117,118,1,fourtwo,,,,,,,,,,,,,,,,,,,,,,,,,,,,,,,,,,,,,,,,,,,,,,,,,,,,,,,,,,,,,,,,,,,,,,,,,,,,,,,,,,,,,,,,,,,,,,,,,,,,,,,,,,,,,,,,,,,,,,,,,,,,,,,,,,,,,,,,,,,,,,,,,,,,,,,,
,,,,,,5b0d0beed282ff00015b9972,62b2ac991bc9707e87f00ac2,2022-06-21_22h47.02.967,Colour_Asymmetry_Pilot,2022.1.3,Win32,60.0024001,62b2a6a25f2ba72662469a01,0,118,118,143,1,fourthree,,,,,,,,,,,,,,,,,,,,,,,,,,,,,,,,,,,,,,,,,,,,,,,,,,,,,,,,,,,,,,,,,,,,,,,,,,,,,,,,,,,,,,,,,,,,,,,,,,,,,,,,,,,,,,,,,,,,,,,,,,,,,,,,,,,,,,,,,,,,,,,,,,,,,,,,
,,,,,,5b0d0beed282ff00015b9972,62b2ac991bc9707e87f00ac2,2022-06-21_22h47.02.967,Colour_Asymmetry_Pilot,2022.1.3,Win32,60.0024001,62b2a6a25f2ba72662469a01,0,119,119,62,1,fourtwo,,,,,,,,,,,,,,,,,,,,,,,,,,,,,,,,,,,,,,,,,,,,,,,,,,,,,,,,,,,,,,,,,,,,,,,,,,,,,,,,,,,,,,,,,,,,,,,,,,,,,,,,,,,,,,,,,,,,,,,,,,,,,,,,,,,,,,,,,,,,,,,,,,,,,,,,
,,,,,,5b0d0beed282ff00015b9972,62b2ac991bc9707e87f00ac2,2022-06-21_22h47.02.967,Colour_Asymmetry_Pilot,2022.1.3,Win32,60.0024001,62b2a6a25f2ba72662469a01,0,120,120,25,1,onethree,,,,,,,,,,,,,,,,,,,,,,,,,,,,,,,,,,,,,,,,,,,,,,,,,,,,,,,,,,,,,,,,,,,,,,,,,,,,,,,,,,,,,,,,,,,,,,,,,,,,,,,,,,,,,,,,,,,,,,,,,,,,,,,,,,,,,,,,,,,,,,,,,,,,,,,,
,,,,,,5b0d0beed282ff00015b9972,62b2ac991bc9707e87f00ac2,2022-06-21_22h47.02.967,Colour_Asymmetry_Pilot,2022.1.3,Win32,60.0024001,62b2a6a25f2ba72662469a01,0,121,121,55,1,fourthree,,,,,,,,,,,,,,,,,,,,,,,,,,,,,,,,,,,,,,,,,,,,,,,,,,,,,,,,,,,,,,,,,,,,,,,,,,,,,,,,,,,,,,,,,,,,,,,,,,,,,,,,,,,,,,,,,,,,,,,,,,,,,,,,,,,,,,,,,,,,,,,,,,,,,,,,
,,,,,,5b0d0beed282ff00015b9972,62b2ac991bc9707e87f00ac2,2022-06-21_22h47.02.967,Colour_Asymmetry_Pilot,2022.1.3,Win32,60.0024001,62b2a6a25f2ba72662469a01,0,122,122,106,1,twoone,,,,,,,,,,,,,,,,,,,,,,,,,,,,,,,,,,,,,,,,,,,,,,,,,,,,,,,,,,,,,,,,,,,,,,,,,,,,,,,,,,,,,,,,,,,,,,,,,,,,,,,,,,,,,,,,,,,,,,,,,,,,,,,,,,,,,,,,,,,,,,,,,,,,,,,,
,,,,,,5b0d0beed282ff00015b9972,62b2ac991bc9707e87f00ac2,2022-06-21_22h47.02.967,Colour_Asymmetry_Pilot,2022.1.3,Win32,60.0024001,62b2a6a25f2ba72662469a01,0,123,123,147,1,twofour,,,,,,,,,,,,,,,,,,,,,,,,,,,,,,,,,,,,,,,,,,,,,,,,,,,,,,,,,,,,,,,,,,,,,,,,,,,,,,,,,,,,,,,,,,,,,,,,,,,,,,,,,,,,,,,,,,,,,,,,,,,,,,,,,,,,,,,,,,,,,,,,,,,,,,,,
,,,,,,5b0d0beed282ff00015b9972,62b2ac991bc9707e87f00ac2,2022-06-21_22h47.02.967,Colour_Asymmetry_Pilot,2022.1.3,Win32,60.0024001,62b2a6a25f2ba72662469a01,0,124,124,127,1,fourthree,,,,,,,,,,,,,,,,,,,,,,,,,,,,,,,,,,,,,,,,,,,,,,,,,,,,,,,,,,,,,,,,,,,,,,,,,,,,,,,,,,,,,,,,,,,,,,,,,,,,,,,,,,,,,,,,,,,,,,,,,,,,,,,,,,,,,,,,,,,,,,,,,,,,,,,,
,,,,,,5b0d0beed282ff00015b9972,62b2ac991bc9707e87f00ac2,2022-06-21_22h47.02.967,Colour_Asymmetry_Pilot,2022.1.3,Win32,60.0024001,62b2a6a25f2ba72662469a01,0,125,125,8,1,onetwo,,,,,,,,,,,,,,,,,,,,,,,,,,,,,,,,,,,,,,,,,,,,,,,,,,,,,,,,,,,,,,,,,,,,,,,,,,,,,,,,,,,,,,,,,,,,,,,,,,,,,,,,,,,,,,,,,,,,,,,,,,,,,,,,,,,,,,,,,,,,,,,,,,,,,,,,
,,,,,,5b0d0beed282ff00015b9972,62b2ac991bc9707e87f00ac2,2022-06-21_22h47.02.967,Colour_Asymmetry_Pilot,2022.1.3,Win32,60.0024001,62b2a6a25f2ba72662469a01,0,126,126,5,1,threefour,,,,,,,,,,,,,,,,,,,,,,,,,,,,,,,,,,,,,,,,,,,,,,,,,,,,,,,,,,,,,,,,,,,,,,,,,,,,,,,,,,,,,,,,,,,,,,,,,,,,,,,,,,,,,,,,,,,,,,,,,,,,,,,,,,,,,,,,,,,,,,,,,,,,,,,,
,,,,,,5b0d0beed282ff00015b9972,62b2ac991bc9707e87f00ac2,2022-06-21_22h47.02.967,Colour_Asymmetry_Pilot,2022.1.3,Win32,60.0024001,62b2a6a25f2ba72662469a01,0,127,127,86,1,fourtwo,,,,,,,,,,,,,,,,,,,,,,,,,,,,,,,,,,,,,,,,,,,,,,,,,,,,,,,,,,,,,,,,,,,,,,,,,,,,,,,,,,,,,,,,,,,,,,,,,,,,,,,,,,,,,,,,,,,,,,,,,,,,,,,,,,,,,,,,,,,,,,,,,,,,,,,,
,,,,,,5b0d0beed282ff00015b9972,62b2ac991bc9707e87f00ac2,2022-06-21_22h47.02.967,Colour_Asymmetry_Pilot,2022.1.3,Win32,60.0024001,62b2a6a25f2ba72662469a01,0,128,128,158,1,fourtwo,,,,,,,,,,,,,,,,,,,,,,,,,,,,,,,,,,,,,,,,,,,,,,,,,,,,,,,,,,,,,,,,,,,,,,,,,,,,,,,,,,,,,,,,,,,,,,,,,,,,,,,,,,,,,,,,,,,,,,,,,,,,,,,,,,,,,,,,,,,,,,,,,,,,,,,,
,,,,,,5b0d0beed282ff00015b9972,62b2ac991bc9707e87f00ac2,2022-06-21_22h47.02.967,Colour_Asymmetry_Pilot,2022.1.3,Win32,60.0024001,62b2a6a25f2ba72662469a01,0,129,129,75,1,twofour,,,,,,,,,,,,,,,,,,,,,,,,,,,,,,,,,,,,,,,,,,,,,,,,,,,,,,,,,,,,,,,,,,,,,,,,,,,,,,,,,,,,,,,,,,,,,,,,,,,,,,,,,,,,,,,,,,,,,,,,,,,,,,,,,,,,,,,,,,,,,,,,,,,,,,,,
,,,,,,5b0d0beed282ff00015b9972,62b2ac991bc9707e87f00ac2,2022-06-21_22h47.02.967,Colour_Asymmetry_Pilot,2022.1.3,Win32,60.0024001,62b2a6a25f2ba72662469a01,0,130,130,129,1,onethree,,,,,,,,,,,,,,,,,,,,,,,,,,,,,,,,,,,,,,,,,,,,,,,,,,,,,,,,,,,,,,,,,,,,,,,,,,,,,,,,,,,,,,,,,,,,,,,,,,,,,,,,,,,,,,,,,,,,,,,,,,,,,,,,,,,,,,,,,,,,,,,,,,,,,,,,
,,,,,,5b0d0beed282ff00015b9972,62b2ac991bc9707e87f00ac2,2022-06-21_22h47.02.967,Colour_Asymmetry_Pilot,2022.1.3,Win32,60.0024001,62b2a6a25f2ba72662469a01,0,131,131,4,1,threeone,,,,,,,,,,,,,,,,,,,,,,,,,,,,,,,,,,,,,,,,,,,,,,,,,,,,,,,,,,,,,,,,,,,,,,,,,,,,,,,,,,,,,,,,,,,,,,,,,,,,,,,,,,,,,,,,,,,,,,,,,,,,,,,,,,,,,,,,,,,,,,,,,,,,,,,,
,,,,,,5b0d0beed282ff00015b9972,62b2ac991bc9707e87f00ac2,2022-06-21_22h47.02.967,Colour_Asymmetry_Pilot,2022.1.3,Win32,60.0024001,62b2a6a25f2ba72662469a01,0,132,132,32,1,onetwo,,,,,,,,,,,,,,,,,,,,,,,,,,,,,,,,,,,,,,,,,,,,,,,,,,,,,,,,,,,,,,,,,,,,,,,,,,,,,,,,,,,,,,,,,,,,,,,,,,,,,,,,,,,,,,,,,,,,,,,,,,,,,,,,,,,,,,,,,,,,,,,,,,,,,,,,
,,,,,,5b0d0beed282ff00015b9972,62b2ac991bc9707e87f00ac2,2022-06-21_22h47.02.967,Colour_Asymmetry_Pilot,2022.1.3,Win32,60.0024001,62b2a6a25f2ba72662469a01,0,133,133,105,1,onethree,,,,,,,,,,,,,,,,,,,,,,,,,,,,,,,,,,,,,,,,,,,,,,,,,,,,,,,,,,,,,,,,,,,,,,,,,,,,,,,,,,,,,,,,,,,,,,,,,,,,,,,,,,,,,,,,,,,,,,,,,,,,,,,,,,,,,,,,,,,,,,,,,,,,,,,,
,,,,,,5b0d0beed282ff00015b9972,62b2ac991bc9707e87f00ac2,2022-06-21_22h47.02.967,Colour_Asymmetry_Pilot,2022.1.3,Win32,60.0024001,62b2a6a25f2ba72662469a01,0,134,134,72,1,onetwo,,,,,,,,,,,,,,,,,,,,,,,,,,,,,,,,,,,,,,,,,,,,,,,,,,,,,,,,,,,,,,,,,,,,,,,,,,,,,,,,,,,,,,,,,,,,,,,,,,,,,,,,,,,,,,,,,,,,,,,,,,,,,,,,,,,,,,,,,,,,,,,,,,,,,,,,
,,,,,,5b0d0beed282ff00015b9972,62b2ac991bc9707e87f00ac2,2022-06-21_22h47.02.967,Colour_Asymmetry_Pilot,2022.1.3,Win32,60.0024001,62b2a6a25f2ba72662469a01,0,135,135,135,1,fourthree,,,,,,,,,,,,,,,,,,,,,,,,,,,,,,,,,,,,,,,,,,,,,,,,,,,,,,,,,,,,,,,,,,,,,,,,,,,,,,,,,,,,,,,,,,,,,,,,,,,,,,,,,,,,,,,,,,,,,,,,,,,,,,,,,,,,,,,,,,,,,,,,,,,,,,,,
,,,,,,5b0d0beed282ff00015b9972,62b2ac991bc9707e87f00ac2,2022-06-21_22h47.02.967,Colour_Asymmetry_Pilot,2022.1.3,Win32,60.0024001,62b2a6a25f2ba72662469a01,0,136,136,131,1,twofour,,,,,,,,,,,,,,,,,,,,,,,,,,,,,,,,,,,,,,,,,,,,,,,,,,,,,,,,,,,,,,,,,,,,,,,,,,,,,,,,,,,,,,,,,,,,,,,,,,,,,,,,,,,,,,,,,,,,,,,,,,,,,,,,,,,,,,,,,,,,,,,,,,,,,,,,
,,,,,,5b0d0beed282ff00015b9972,62b2ac991bc9707e87f00ac2,2022-06-21_22h47.02.967,Colour_Asymmetry_Pilot,2022.1.3,Win32,60.0024001,62b2a6a25f2ba72662469a01,0,137,137,79,1,fourthree,,,,,,,,,,,,,,,,,,,,,,,,,,,,,,,,,,,,,,,,,,,,,,,,,,,,,,,,,,,,,,,,,,,,,,,,,,,,,,,,,,,,,,,,,,,,,,,,,,,,,,,,,,,,,,,,,,,,,,,,,,,,,,,,,,,,,,,,,,,,,,,,,,,,,,,,
,,,,,,5b0d0beed282ff00015b9972,62b2ac991bc9707e87f00ac2,2022-06-21_22h47.02.967,Colour_Asymmetry_Pilot,2022.1.3,Win32,60.0024001,62b2a6a25f2ba72662469a01,0,138,138,49,1,onethree,,,,,,,,,,,,,,,,,,,,,,,,,,,,,,,,,,,,,,,,,,,,,,,,,,,,,,,,,,,,,,,,,,,,,,,,,,,,,,,,,,,,,,,,,,,,,,,,,,,,,,,,,,,,,,,,,,,,,,,,,,,,,,,,,,,,,,,,,,,,,,,,,,,,,,,,
,,,,,,5b0d0beed282ff00015b9972,62b2ac991bc9707e87f00ac2,2022-06-21_22h47.02.967,Colour_Asymmetry_Pilot,2022.1.3,Win32,60.0024001,62b2a6a25f2ba72662469a01,0,139,139,61,1,threefour,,,,,,,,,,,,,,,,,,,,,,,,,,,,,,,,,,,,,,,,,,,,,,,,,,,,,,,,,,,,,,,,,,,,,,,,,,,,,,,,,,,,,,,,,,,,,,,,,,,,,,,,,,,,,,,,,,,,,,,,,,,,,,,,,,,,,,,,,,,,,,,,,,,,,,,,
,,,,,,5b0d0beed282ff00015b9972,62b2ac991bc9707e87f00ac2,2022-06-21_22h47.02.967,Colour_Asymmetry_Pilot,2022.1.3,Win32,60.0024001,62b2a6a25f2ba72662469a01,0,140,140,48,1,onetwo,,,,,,,,,,,,,,,,,,,,,,,,,,,,,,,,,,,,,,,,,,,,,,,,,,,,,,,,,,,,,,,,,,,,,,,,,,,,,,,,,,,,,,,,,,,,,,,,,,,,,,,,,,,,,,,,,,,,,,,,,,,,,,,,,,,,,,,,,,,,,,,,,,,,,,,,
,,,,,,5b0d0beed282ff00015b9972,62b2ac991bc9707e87f00ac2,2022-06-21_22h47.02.967,Colour_Asymmetry_Pilot,2022.1.3,Win32,60.0024001,62b2a6a25f2ba72662469a01,0,141,141,133,1,threefour,,,,,,,,,,,,,,,,,,,,,,,,,,,,,,,,,,,,,,,,,,,,,,,,,,,,,,,,,,,,,,,,,,,,,,,,,,,,,,,,,,,,,,,,,,,,,,,,,,,,,,,,,,,,,,,,,,,,,,,,,,,,,,,,,,,,,,,,,,,,,,,,,,,,,,,,
,,,,,,5b0d0beed282ff00015b9972,62b2ac991bc9707e87f00ac2,2022-06-21_22h47.02.967,Colour_Asymmetry_Pilot,2022.1.3,Win32,60.0024001,62b2a6a25f2ba72662469a01,0,142,142,12,1,threeone,,,,,,,,,,,,,,,,,,,,,,,,,,,,,,,,,,,,,,,,,,,,,,,,,,,,,,,,,,,,,,,,,,,,,,,,,,,,,,,,,,,,,,,,,,,,,,,,,,,,,,,,,,,,,,,,,,,,,,,,,,,,,,,,,,,,,,,,,,,,,,,,,,,,,,,,
,,,,,,5b0d0beed282ff00015b9972,62b2ac991bc9707e87f00ac2,2022-06-21_22h47.02.967,Colour_Asymmetry_Pilot,2022.1.3,Win32,60.0024001,62b2a6a25f2ba72662469a01,0,143,143,94,1,fourtwo,,,,,,,,,,,,,,,,,,,,,,,,,,,,,,,,,,,,,,,,,,,,,,,,,,,,,,,,,,,,,,,,,,,,,,,,,,,,,,,,,,,,,,,,,,,,,,,,,,,,,,,,,,,,,,,,,,,,,,,,,,,,,,,,,,,,,,,,,,,,,,,,,,,,,,,,
,,,,,,5b0d0beed282ff00015b9972,62b2ac991bc9707e87f00ac2,2022-06-21_22h47.02.967,Colour_Asymmetry_Pilot,2022.1.3,Win32,60.0024001,62b2a6a25f2ba72662469a01,0,144,144,1,1,onethree,,,,,,,,,,,,,,,,,,,,,,,,,,,,,,,,,,,,,,,,,,,,,,,,,,,,,,,,,,,,,,,,,,,,,,,,,,,,,,,,,,,,,,,,,,,,,,,,,,,,,,,,,,,,,,,,,,,,,,,,,,,,,,,,,,,,,,,,,,,,,,,,,,,,,,,,
,,,,,,5b0d0beed282ff00015b9972,62b2ac991bc9707e87f00ac2,2022-06-21_22h47.02.967,Colour_Asymmetry_Pilot,2022.1.3,Win32,60.0024001,62b2a6a25f2ba72662469a01,0,145,145,100,1,threeone,,,,,,,,,,,,,,,,,,,,,,,,,,,,,,,,,,,,,,,,,,,,,,,,,,,,,,,,,,,,,,,,,,,,,,,,,,,,,,,,,,,,,,,,,,,,,,,,,,,,,,,,,,,,,,,,,,,,,,,,,,,,,,,,,,,,,,,,,,,,,,,,,,,,,,,,
,,,,,,5b0d0beed282ff00015b9972,62b2ac991bc9707e87f00ac2,2022-06-21_22h47.02.967,Colour_Asymmetry_Pilot,2022.1.3,Win32,60.0024001,62b2a6a25f2ba72662469a01,0,146,146,111,1,fourthree,,,,,,,,,,,,,,,,,,,,,,,,,,,,,,,,,,,,,,,,,,,,,,,,,,,,,,,,,,,,,,,,,,,,,,,,,,,,,,,,,,,,,,,,,,,,,,,,,,,,,,,,,,,,,,,,,,,,,,,,,,,,,,,,,,,,,,,,,,,,,,,,,,,,,,,,
,,,,,,5b0d0beed282ff00015b9972,62b2ac991bc9707e87f00ac2,2022-06-21_22h47.02.967,Colour_Asymmetry_Pilot,2022.1.3,Win32,60.0024001,62b2a6a25f2ba72662469a01,0,147,147,124,1,threeone,,,,,,,,,,,,,,,,,,,,,,,,,,,,,,,,,,,,,,,,,,,,,,,,,,,,,,,,,,,,,,,,,,,,,,,,,,,,,,,,,,,,,,,,,,,,,,,,,,,,,,,,,,,,,,,,,,,,,,,,,,,,,,,,,,,,,,,,,,,,,,,,,,,,,,,,
,,,,,,5b0d0beed282ff00015b9972,62b2ac991bc9707e87f00ac2,2022-06-21_22h47.02.967,Colour_Asymmetry_Pilot,2022.1.3,Win32,60.0024001,62b2a6a25f2ba72662469a01,0,148,148,71,1,fourthree,,,,,,,,,,,,,,,,,,,,,,,,,,,,,,,,,,,,,,,,,,,,,,,,,,,,,,,,,,,,,,,,,,,,,,,,,,,,,,,,,,,,,,,,,,,,,,,,,,,,,,,,,,,,,,,,,,,,,,,,,,,,,,,,,,,,,,,,,,,,,,,,,,,,,,,,
,,,,,,5b0d0beed282ff00015b9972,62b2ac991bc9707e87f00ac2,2022-06-21_22h47.02.967,Colour_Asymmetry_Pilot,2022.1.3,Win32,60.0024001,62b2a6a25f2ba72662469a01,0,149,149,23,1,fourthree,,,,,,,,,,,,,,,,,,,,,,,,,,,,,,,,,,,,,,,,,,,,,,,,,,,,,,,,,,,,,,,,,,,,,,,,,,,,,,,,,,,,,,,,,,,,,,,,,,,,,,,,,,,,,,,,,,,,,,,,,,,,,,,,,,,,,,,,,,,,,,,,,,,,,,,,
,,,,,,5b0d0beed282ff00015b9972,62b2ac991bc9707e87f00ac2,2022-06-21_22h47.02.967,Colour_Asymmetry_Pilot,2022.1.3,Win32,60.0024001,62b2a6a25f2ba72662469a01,0,150,150,112,1,onetwo,,,,,,,,,,,,,,,,,,,,,,,,,,,,,,,,,,,,,,,,,,,,,,,,,,,,,,,,,,,,,,,,,,,,,,,,,,,,,,,,,,,,,,,,,,,,,,,,,,,,,,,,,,,,,,,,,,,,,,,,,,,,,,,,,,,,,,,,,,,,,,,,,,,,,,,,
,,,,,,5b0d0beed282ff00015b9972,62b2ac991bc9707e87f00ac2,2022-06-21_22h47.02.967,Colour_Asymmetry_Pilot,2022.1.3,Win32,60.0024001,62b2a6a25f2ba72662469a01,0,151,151,148,1,threeone,,,,,,,,,,,,,,,,,,,,,,,,,,,,,,,,,,,,,,,,,,,,,,,,,,,,,,,,,,,,,,,,,,,,,,,,,,,,,,,,,,,,,,,,,,,,,,,,,,,,,,,,,,,,,,,,,,,,,,,,,,,,,,,,,,,,,,,,,,,,,,,,,,,,,,,,
,,,,,,5b0d0beed282ff00015b9972,62b2ac991bc9707e87f00ac2,2022-06-21_22h47.02.967,Colour_Asymmetry_Pilot,2022.1.3,Win32,60.0024001,62b2a6a25f2ba72662469a01,0,152,152,109,1,threefour,,,,,,,,,,,,,,,,,,,,,,,,,,,,,,,,,,,,,,,,,,,,,,,,,,,,,,,,,,,,,,,,,,,,,,,,,,,,,,,,,,,,,,,,,,,,,,,,,,,,,,,,,,,,,,,,,,,,,,,,,,,,,,,,,,,,,,,,,,,,,,,,,,,,,,,,
,,,,,,5b0d0beed282ff00015b9972,62b2ac991bc9707e87f00ac2,2022-06-21_22h47.02.967,Colour_Asymmetry_Pilot,2022.1.3,Win32,60.0024001,62b2a6a25f2ba72662469a01,0,153,153,17,1,onethree,,,,,,,,,,,,,,,,,,,,,,,,,,,,,,,,,,,,,,,,,,,,,,,,,,,,,,,,,,,,,,,,,,,,,,,,,,,,,,,,,,,,,,,,,,,,,,,,,,,,,,,,,,,,,,,,,,,,,,,,,,,,,,,,,,,,,,,,,,,,,,,,,,,,,,,,
,,,,,,5b0d0beed282ff00015b9972,62b2ac991bc9707e87f00ac2,2022-06-21_22h47.02.967,Colour_Asymmetry_Pilot,2022.1.3,Win32,60.0024001,62b2a6a25f2ba72662469a01,0,154,154,142,1,fourtwo,,,,,,,,,,,,,,,,,,,,,,,,,,,,,,,,,,,,,,,,,,,,,,,,,,,,,,,,,,,,,,,,,,,,,,,,,,,,,,,,,,,,,,,,,,,,,,,,,,,,,,,,,,,,,,,,,,,,,,,,,,,,,,,,,,,,,,,,,,,,,,,,,,,,,,,,
,,,,,,5b0d0beed282ff00015b9972,62b2ac991bc9707e87f00ac2,2022-06-21_22h47.02.967,Colour_Asymmetry_Pilot,2022.1.3,Win32,60.0024001,62b2a6a25f2ba72662469a01,0,155,155,65,1,onethree,,,,,,,,,,,,,,,,,,,,,,,,,,,,,,,,,,,,,,,,,,,,,,,,,,,,,,,,,,,,,,,,,,,,,,,,,,,,,,,,,,,,,,,,,,,,,,,,,,,,,,,,,,,,,,,,,,,,,,,,,,,,,,,,,,,,,,,,,,,,,,,,,,,,,,,,
,,,,,,5b0d0beed282ff00015b9972,62b2ac991bc9707e87f00ac2,2022-06-21_22h47.02.967,Colour_Asymmetry_Pilot,2022.1.3,Win32,60.0024001,62b2a6a25f2ba72662469a01,0,156,156,108,1,threeone,,,,,,,,,,,,,,,,,,,,,,,,,,,,,,,,,,,,,,,,,,,,,,,,,,,,,,,,,,,,,,,,,,,,,,,,,,,,,,,,,,,,,,,,,,,,,,,,,,,,,,,,,,,,,,,,,,,,,,,,,,,,,,,,,,,,,,,,,,,,,,,,,,,,,,,,
,,,,,,5b0d0beed282ff00015b9972,62b2ac991bc9707e87f00ac2,2022-06-21_22h47.02.967,Colour_Asymmetry_Pilot,2022.1.3,Win32,60.0024001,62b2a6a25f2ba72662469a01,0,157,157,67,1,twofour,,,,,,,,,,,,,,,,,,,,,,,,,,,,,,,,,,,,,,,,,,,,,,,,,,,,,,,,,,,,,,,,,,,,,,,,,,,,,,,,,,,,,,,,,,,,,,,,,,,,,,,,,,,,,,,,,,,,,,,,,,,,,,,,,,,,,,,,,,,,,,,,,,,,,,,,
,,,,,,5b0d0beed282ff00015b9972,62b2ac991bc9707e87f00ac2,2022-06-21_22h47.02.967,Colour_Asymmetry_Pilot,2022.1.3,Win32,60.0024001,62b2a6a25f2ba72662469a01,0,158,158,24,1,onetwo,,,,,,,,,,,,,,,,,,,,,,,,,,,,,,,,,,,,,,,,,,,,,,,,,,,,,,,,,,,,,,,,,,,,,,,,,,,,,,,,,,,,,,,,,,,,,,,,,,,,,,,,,,,,,,,,,,,,,,,,,,,,,,,,,,,,,,,,,,,,,,,,,,,,,,,,
,,,,,,5b0d0beed282ff00015b9972,62b2ac991bc9707e87f00ac2,2022-06-21_22h47.02.967,Colour_Asymmetry_Pilot,2022.1.3,Win32,60.0024001,62b2a6a25f2ba72662469a01,0,159,159,82,1,twoone,,,,,,,,,,,,,,,,,,,,,,,,,,,,,,,,,,,,,,,,,,,,,,,,,,,,,,,,,,,,,,,,,,,,,,,,,,,,,,,,,,,,,,,,,,,,,,,,,,,,,,,,,,,,,,,,,,,,,,,,,,,,,,,,,,,,,,,,,,,,,,,,,,,,,,,,
,,,,,,5b0d0beed282ff00015b9972,62b2ac991bc9707e87f00ac2,2022-06-21_22h47.02.967,Colour_Asymmetry_Pilot,2022.1.3,Win32,60.0024001,62b2a6a25f2ba72662469a01,0,160,160,89,1,onethree,,,,,,,,,,,,,,,,,,,,,,,,,,,,,,,,,,,,,,,,,,,,,,,,,,,,,,,,,,,,,,,,,,,,,,,,,,,,,,,,,,,,,,,,,,,,,,,,,,,,,,,,,,,,,,,,,,,,,,,,,,,,,,,,,,,,,,,,,,,,,,,,,,,,,,,,
,,,,,,5b0d0beed282ff00015b9972,62b2ac991bc9707e87f00ac2,2022-06-21_22h47.02.967,Colour_Asymmetry_Pilot,2022.1.3,Win32,60.0024001,62b2a6a25f2ba72662469a01,0,161,161,130,1,twoone,,,,,,,,,,,,,,,,,,,,,,,,,,,,,,,,,,,,,,,,,,,,,,,,,,,,,,,,,,,,,,,,,,,,,,,,,,,,,,,,,,,,,,,,,,,,,,,,,,,,,,,,,,,,,,,,,,,,,,,,,,,,,,,,,,,,,,,,,,,,,,,,,,,,,,,,
,,,,,,5b0d0beed282ff00015b9972,62b2ac991bc9707e87f00ac2,2022-06-21_22h47.02.967,Colour_Asymmetry_Pilot,2022.1.3,Win32,60.0024001,62b2a6a25f2ba72662469a01,,,,,,,space,4.1492,space,1.9696,space,19.3628,space,0.1952,space,42.3211,space,1.6956,"[0.6625999999999999,0.4980000000000002,-0.357]",twoone,"[-0.6942,-0.7648,-0.12959999999999994]",-4,6.4389,-49.59997559,78.3999939,1,0,0,response7disk_5,-11.20001221,-4.800018311,1,0,0,rectangle_8,47.20001221,93.59997559,1,0,0,response1disk_7,7,4,-21.59997559,3.199981689,1,0,0,rectangle_4,0,0,0,0,1,,,,,,,,,,,,,,,,,,,,,,,,,,,,,,,,,,,,,,,,,,,,,,,,,,,,,,,,,,,,,,,,,,,,,,,,,,,,,,,,,,,,,,,,,,,,,,,,,,,,,,,,
,,,,,,5b0d0beed282ff00015b9972,62b2ac991bc9707e87f00ac2,2022-06-21_22h47.02.967,Colour_Asymmetry_Pilot,2022.1.3,Win32,60.0024001,62b2a6a25f2ba72662469a01,,,,,,,,,,,,,,,,,,,"[-0.45899999999999996,-0.3256,-0.9374]",threeone,"[0.3802000000000001,0.19199999999999995,-0.6394]",1,3.397,41.60003662,-94.3999939,1,0,0,response3disk_5,5.600036621,4,1,0,0,rectangle_8,5.600036621,4,1,0,0,,,4,5.600036621,4,1,0,0,,1,0,1,0,1,,,,,,,,,,,,,,,,,,,,,,,,,,,,,,,,,,,,,,,,,,,,,,,,,,,,,,,,,,,,,,,,,,,,,,,,,,,,,,,,,,,,,,,,,,,,,,,,,,,,,,,,
,,,,,,5b0d0beed282ff00015b9972,62b2ac991bc9707e87f00ac2,2022-06-21_22h47.02.967,Colour_Asymmetry_Pilot,2022.1.3,Win32,60.0024001,62b2a6a25f2ba72662469a01,,,,,,,,,,,,,,,,,,,"[-0.011800000000000033,-0.906,-0.45100000000000007]",fourtwo,"[0.7802,-0.23140000000000005,-0.20799999999999996]",2,1.4997,96.79998779,-36.80001831,1,0,0,response3disk_5,0,-0.800018311,1,0,0,rectangle_8,0,-0.800018311,1,0,0,,,4,0,-0.800018311,1,0,0,,2,0,2,0,1,,,,,,,,,,,,,,,,,,,,,,,,,,,,,,,,,,,,,,,,,,,,,,,,,,,,,,,,,,,,,,,,,,,,,,,,,,,,,,,,,,,,,,,,,,,,,,,,,,,,,,,,
,,,,,,5b0d0beed282ff00015b9972,62b2ac991bc9707e87f00ac2,2022-06-21_22h47.02.967,Colour_Asymmetry_Pilot,2022.1.3,Win32,60.0024001,62b2a6a25f2ba72662469a01,,,,,,,,,,,,,,,,,,,"[0.05879999999999996,0.2784,0.5841999999999998]",threefour,"[-0.4746,-0.0354000000000001,0.5449999999999999]",3,0.8164,75.20001221,33.59997559,1,0,0,response1disk_5,1.600036621,-0.800018311,1,0,0,rectangle_8,1.600036621,-0.800018311,1,0,0,,,4,1.600036621,-0.800018311,1,0,0,,3,0,3,0,1,,,,,,,,,,,,,,,,,,,,,,,,,,,,,,,,,,,,,,,,,,,,,,,,,,,,,,,,,,,,,,,,,,,,,,,,,,,,,,,,,,,,,,,,,,,,,,,,,,,,,,,,
,,,,,,5b0d0beed282ff00015b9972,62b2ac991bc9707e87f00ac2,2022-06-21_22h47.02.967,Colour_Asymmetry_Pilot,2022.1.3,Win32,60.0024001,62b2a6a25f2ba72662469a01,,,,,,,,,,,,,,,,,,,"[-0.4982,-0.2942,-0.0354000000000001]",twofour,"[0.30180000000000007,-0.7884,-0.9844]",-3,0.9999,-74.39996338,44,1,0,0,response7disk_5,21.60003662,-4.800018311,1,0,0,rectangle_8,21.60003662,-4.800018311,1,0,0,,,4,21.60003662,-4.800018311,1,0,0,,4,0,4,0,1,,,,,,,,,,,,,,,,,,,,,,,,,,,,,,,,,,,,,,,,,,,,,,,,,,,,,,,,,,,,,,,,,,,,,,,,,,,,,,,,,,,,,,,,,,,,,,,,,,,,,,,,
,,,,,,5b0d0beed282ff00015b9972,62b2ac991bc9707e87f00ac2,2022-06-21_22h47.02.967,Colour_Asymmetry_Pilot,2022.1.3,Win32,60.0024001,62b2a6a25f2ba72662469a01,,,,,,,,,,,,,,,,,,,"[-0.30200000000000005,0.14500000000000002,0.2784]",fourtwo,"[-0.10599999999999998,-0.15300000000000002,0.15280000000000005]",3,0.6172,61.60003662,45.59997559,1,0,0,response1disk_5,-15.20001221,0.799987793,1,0,0,rectangle_8,36.79998779,109.5999756,1,0,0,response1disk_7,7,4,1.600036621,-3.200012207,1,0,0,rectangle_4,5,0,5,0,1,,,,,,,,,,,,,,,,,,,,,,,,,,,,,,,,,,,,,,,,,,,,,,,,,,,,,,,,,,,,,,,,,,,,,,,,,,,,,,,,,,,,,,,,,,,,,,,,,,,,,,,,
,,,,,,5b0d0beed282ff00015b9972,62b2ac991bc9707e87f00ac2,2022-06-21_22h47.02.967,Colour_Asymmetry_Pilot,2022.1.3,Win32,60.0024001,62b2a6a25f2ba72662469a01,,,,,,,,,,,,,,,,,,,"[-0.24719999999999998,0.5213999999999999,-0.12959999999999994]",onetwo,"[-0.011800000000000033,-0.906,-0.45100000000000007]",-4,2.0159,-47.20001221,97.59997559,1,0,0,response7disk_5,-0.799987793,12,1,0,0,rectangle_8,-0.799987793,12,1,0,0,,,4,-0.799987793,12,1,0,0,,6,0,6,0,1,,,,,,,,,,,,,,,,,,,,,,,,,,,,,,,,,,,,,,,,,,,,,,,,,,,,,,,,,,,,,,,,,,,,,,,,,,,,,,,,,,,,,,,,,,,,,,,,,,,,,,,,
,,,,,,5b0d0beed282ff00015b9972,62b2ac991bc9707e87f00ac2,2022-06-21_22h47.02.967,Colour_Asymmetry_Pilot,2022.1.3,Win32,60.0024001,62b2a6a25f2ba72662469a01,,,,,,,,,,,,,,,,,,,,twoone,,-2,2.985,,,,,,,,,,,,,,,,,,,,,,,,,,,,,,,,space,223.209,"[-0.48240000000000005,0.3175999999999999,0.2156]","[-0.17659999999999998,-0.2864,-0.8354]",-73.59997559,-59.20001221,1,0,0,response5disk,-11.20001221,-0.800018311,1,0,0,rectangle,-11.20001221,-0.800018311,1,0,0,,1,0.006,0,-11.20001221,-0.800018311,1,0,0,0,0,0,49,1,49,first,,,,,,,,,,,,,,,,,,,,,,,,,,,,,,,,,,,,,,,,,,,,,,,,,,,,,,,,,,,,,,,,,,,
,,,,,,5b0d0beed282ff00015b9972,62b2ac991bc9707e87f00ac2,2022-06-21_22h47.02.967,Colour_Asymmetry_Pilot,2022.1.3,Win32,60.0024001,62b2a6a25f2ba72662469a01,,,,,,,,,,,,,,,,,,,,twoone,,1,0.6169,,,,,,,,,,,,,,,,,,,,,,,,,,,,,,,,,,"[0.9842,0.7409999999999999,-0.6628000000000001]","[-0.4902000000000001,0.2704,-0.45899999999999996]",64,-88.80001831,1,0,0,response3disk,-0.799987793,-2.400024414,1,0,0,rectangle,-0.799987793,-2.400024414,1,0,0,,3,0.0011,0,-0.799987793,-2.400024414,1,0,0,0,1,1,28,1,28,first,,,,,,,,,,,,,,,,,,,,,,,,,,,,,,,,,,,,,,,,,,,,,,,,,,,,,,,,,,,,,,,,,,,
,,,,,,5b0d0beed282ff00015b9972,62b2ac991bc9707e87f00ac2,2022-06-21_22h47.02.967,Colour_Asymmetry_Pilot,2022.1.3,Win32,60.0024001,62b2a6a25f2ba72662469a01,,,,,,,,,,,,,,,,,,,,onethree,,-3,0.8334,,,,,,,,,,,,,,,,,,,,,,,,,,,,,,,,,,"[0.9686000000000001,0.5763999999999998,0.11359999999999992]","[-0.10599999999999998,-0.10599999999999998,0.5841999999999998]",-74.39996338,22.3999939,1,0,0,response7disk,-1.599975586,-8.800018311,1,0,0,rectangle,120.7999878,-59.20001221,1,0,0,2,2,4.2674,1,-7.200012207,0.799987793,1,0,0,0,2,2,36,1,36,first,response3disk_3,rectangle,,,,,,,,,,,,,,,,,,,,,,,,,,,,,,,,,,,,,,,,,,,,,,,,,,,,,,,,,,,,,,,,,
,,,,,,5b0d0beed282ff00015b9972,62b2ac991bc9707e87f00ac2,2022-06-21_22h47.02.967,Colour_Asymmetry_Pilot,2022.1.3,Win32,60.0024001,62b2a6a25f2ba72662469a01,,,,,,,,,,,,,,,,,,,,twofour,,3,0.5667,,,,,,,,,,,,,,,,,,,,,,,,,,,,,,,,,,"[0.22340000000000004,-0.9296,-0.7884]","[0.7176,-0.906,-0.6864]",69.60003662,36,1,0,0,response1disk,1.600036621,-7.200012207,1,0,0,rectangle,1.600036621,-7.200012207,1,0,0,2,3,0.0024,0,1.600036621,-7.200012207,1,0,0,0,3,3,74,1,74,first,,,,,,,,,,,,,,,,,,,,,,,,,,,,,,,,,,,,,,,,,,,,,,,,,,,,,,,,,,,,,,,,,,,
,,,,,,5b0d0beed282ff00015b9972,62b2ac991bc9707e87f00ac2,2022-06-21_22h47.02.967,Colour_Asymmetry_Pilot,2022.1.3,Win32,60.0024001,62b2a6a25f2ba72662469a01,,,,,,,,,,,,,,,,,,,,twofour,,-4,0.7166,,,,,,,,,,,,,,,,,,,,,,,,,,,,,,,,,,"[0.37240000000000006,0.4980000000000002,-0.2864]","[-0.5922000000000001,-0.7492000000000001,-0.5296000000000001]",-59.20001221,105.5999756,1,0,0,response7disk,5.600036621,-3.200012207,1,0,0,rectangle,5.600036621,-3.200012207,1,0,0,2,3,0.0002,0,5.600036621,-3.200012207,1,0,0,0,4,4,66,1,66,first,,,,,,,,,,,,,,,,,,,,,,,,,,,,,,,,,,,,,,,,,,,,,,,,,,,,,,,,,,,,,,,,,,,
,,,,,,5b0d0beed282ff00015b9972,62b2ac991bc9707e87f00ac2,2022-06-21_22h47.02.967,Colour_Asymmetry_Pilot,2022.1.3,Win32,60.0024001,62b2a6a25f2ba72662469a01,,,,,,,,,,,,,,,,,,,,onethree,,-3,0.5163,,,,,,,,,,,,,,,,,,,,,,,,,,,,,,,,,,"[0.19199999999999995,0.18419999999999992,0.5136000000000001]","[0.9842,0.7409999999999999,-0.6628000000000001]",-78.39996338,46.3999939,1,0,0,response7disk,-20,-5.600006104,1,0,0,rectangle,-20,-5.600006104,1,0,0,2,3,0.0007,0,-20,-5.600006104,1,0,0,0,5,5,83,1,2,second,,,,,,,,,,,,,,,,,,,,,,,,,,,,,,,,,,,,,,,,,,,,,,,,,,,,,,,,,,,,,,,,,,,
,,,,,,5b0d0beed282ff00015b9972,62b2ac991bc9707e87f00ac2,2022-06-21_22h47.02.967,Colour_Asymmetry_Pilot,2022.1.3,Win32,60.0024001,62b2a6a25f2ba72662469a01,,,,,,,,,,,,,,,,,,,,threefour,,2,0.4501,,,,,,,,,,,,,,,,,,,,,,,,,,,,,,,,,,"[0.7802,-0.23140000000000005,-0.20799999999999996]","[-0.4668,-0.8746,-0.2942]",87.20001221,-80.80001831,1,0,0,response3disk,14.40002441,1.599975586,1,0,0,rectangle,14.40002441,1.599975586,1,0,0,2,2,0.002,0,14.40002441,1.599975586,1,0,0,0,6,6,106,1,25,second,,,,,,,,,,,,,,,,,,,,,,,,,,,,,,,,,,,,,,,,,,,,,,,,,,,,,,,,,,,,,,,,,,,
,,,,,,5b0d0beed282ff00015b9972,62b2ac991bc9707e87f00ac2,2022-06-21_22h47.02.967,Colour_Asymmetry_Pilot,2022.1.3,Win32,60.0024001,62b2a6a25f2ba72662469a01,,,,,,,,,,,,,,,,,,,,twoone,,3,0.5501,,,,,,,,,,,,,,,,,,,,,,,,,,,,,,,,,,"[-0.34920000000000007,-0.702,-0.5216]","[-0.5452,-0.608,0.2470000000000001]",92.79998779,44,1,0,0,response1disk,19.20001221,-10.40002441,1,0,0,rectangle,19.20001221,-10.40002441,1,0,0,2,1,0.002,0,19.20001221,-10.40002441,1,0,0,0,7,7,84,1,3,second,,,,,,,,,,,,,,,,,,,,,,,,,,,,,,,,,,,,,,,,,,,,,,,,,,,,,,,,,,,,,,,,,,,
,,,,,,5b0d0beed282ff00015b9972,62b2ac991bc9707e87f00ac2,2022-06-21_22h47.02.967,Colour_Asymmetry_Pilot,2022.1.3,Win32,60.0024001,62b2a6a25f2ba72662469a01,,,,,,,,,,,,,,,,,,,,threefour,,-3,1.0053,,,,,,,,,,,,,,,,,,,,,,,,,,,,,,,,,,"[0.34099999999999997,0.5841999999999998,-0.9844]","[0.09799999999999986,-0.24719999999999998,0.15280000000000005]",-78.39996338,30.3999939,1,0,0,response7disk,4.799987793,-8.800018311,1,0,0,rectangle,4.799987793,-8.800018311,1,0,0,2,2,0.0019,0,4.799987793,-8.800018311,1,0,0,0,8,8,69,1,69,first,,,,,,,,,,,,,,,,,,,,,,,,,,,,,,,,,,,,,,,,,,,,,,,,,,,,,,,,,,,,,,,,,,,
,,,,,,5b0d0beed282ff00015b9972,62b2ac991bc9707e87f00ac2,2022-06-21_22h47.02.967,Colour_Asymmetry_Pilot,2022.1.3,Win32,60.0024001,62b2a6a25f2ba72662469a01,,,,,,,,,,,,,,,,,,,,onetwo,,3,0.5169,,,,,,,,,,,,,,,,,,,,,,,,,,,,,,,,,,"[-0.9688,-0.4902000000000001,-0.12159999999999993]","[-0.8118,-0.8198,-0.5452]",78.40002441,28.79998779,1,0,0,response1disk,-6.399963379,-10.40002441,1,0,0,rectangle,-6.399963379,-10.40002441,1,0,0,2,1,0.002,0,-6.399963379,-10.40002441,1,0,0,0,9,9,138,1,57,second,,,,,,,,,,,,,,,,,,,,,,,,,,,,,,,,,,,,,,,,,,,,,,,,,,,,,,,,,,,,,,,,,,,
,,,,,,5b0d0beed282ff00015b9972,62b2ac991bc9707e87f00ac2,2022-06-21_22h47.02.967,Colour_Asymmetry_Pilot,2022.1.3,Win32,60.0024001,62b2a6a25f2ba72662469a01,,,,,,,,,,,,,,,,,,,,onethree,,-2,0.6827,,,,,,,,,,,,,,,,,,,,,,,,,,,,,,,,,,"[0.34099999999999997,0.12939999999999996,-0.9766]","[0.30180000000000007,-0.7884,-0.9844]",-112,-47.20001221,1,0,0,response5disk,24,-1.600006104,1,0,0,rectangle,116,40.79998779,1,0,0,3,3,2.7311,1,-5.599975586,-9.600006104,1,0,0,0,10,10,104,1,23,second,response1disk_3,rectangle,,,,,,,,,,,,,,,,,,,,,,,,,,,,,,,,,,,,,,,,,,,,,,,,,,,,,,,,,,,,,,,,,
,,,,,,5b0d0beed282ff00015b9972,62b2ac991bc9707e87f00ac2,2022-06-21_22h47.02.967,Colour_Asymmetry_Pilot,2022.1.3,Win32,60.0024001,62b2a6a25f2ba72662469a01,,,,,,,,,,,,,,,,,,,,fourthree,,-4,0.8163,,,,,,,,,,,,,,,,,,,,,,,,,,,,,,,,,,"[0.30180000000000007,-0.7884,-0.9844]","[-0.6706000000000001,-0.6157999999999999,-0.6786]",-49.59997559,96.79998779,1,0,0,response7disk,5.600036621,-8,1,0,0,rectangle,5.600036621,-8,1,0,0,3,3,0.0006,0,5.600036621,-8,1,0,0,0,11,11,153,1,72,second,,,,,,,,,,,,,,,,,,,,,,,,,,,,,,,,,,,,,,,,,,,,,,,,,,,,,,,,,,,,,,,,,,,
,,,,,,5b0d0beed282ff00015b9972,62b2ac991bc9707e87f00ac2,2022-06-21_22h47.02.967,Colour_Asymmetry_Pilot,2022.1.3,Win32,60.0024001,62b2a6a25f2ba72662469a01,,,,,,,,,,,,,,,,,,,,fourtwo,,-3,0.4006,,,,,,,,,,,,,,,,,,,,,,,,,,,,,,,,,,"[-0.01980000000000004,-0.5138,-0.38039999999999996]","[-0.5688,-0.08239999999999992,-0.1844]",-75.20001221,40.79998779,1,0,0,response7disk,12,-7.200012207,1,0,0,rectangle,12,-7.200012207,1,0,0,3,2,0.0019,0,12,-7.200012207,1,0,0,0,12,12,81,1,0,second,,,,,,,,,,,,,,,,,,,,,,,,,,,,,,,,,,,,,,,,,,,,,,,,,,,,,,,,,,,,,,,,,,,
,,,,,,5b0d0beed282ff00015b9972,62b2ac991bc9707e87f00ac2,2022-06-21_22h47.02.967,Colour_Asymmetry_Pilot,2022.1.3,Win32,60.0024001,62b2a6a25f2ba72662469a01,,,,,,,,,,,,,,,,,,,,twofour,,-1,0.6994,,,,,,,,,,,,,,,,,,,,,,,,,,,,,,,,,,"[0.9842,0.7409999999999999,-0.6628000000000001]","[0.04299999999999993,0.16060000000000008,-0.6628000000000001]",-64,-66.3999939,1,0,0,response5disk,-10.39996338,-2.400024414,1,0,0,rectangle,-10.39996338,-2.400024414,1,0,0,3,3,0.0012,0,-10.39996338,-2.400024414,1,0,0,0,13,13,141,1,60,second,,,,,,,,,,,,,,,,,,,,,,,,,,,,,,,,,,,,,,,,,,,,,,,,,,,,,,,,,,,,,,,,,,,
,,,,,,5b0d0beed282ff00015b9972,62b2ac991bc9707e87f00ac2,2022-06-21_22h47.02.967,Colour_Asymmetry_Pilot,2022.1.3,Win32,60.0024001,62b2a6a25f2ba72662469a01,,,,,,,,,,,,,,,,,,,,twofour,,3,0.5679,,,,,,,,,,,,,,,,,,,,,,,,,,,,,,,,,,"[0.9686000000000001,0.3802000000000001,0.19999999999999996]","[0.8115999999999999,-0.0040000000000000036,-0.09819999999999995]",82.40002441,36.79998779,1,0,0,response1disk,4,-12.80001831,1,0,0,rectangle,4,-12.80001831,1,0,0,3,2,0.0019,0,4,-12.80001831,1,0,0,0,14,14,42,1,42,first,,,,,,,,,,,,,,,,,,,,,,,,,,,,,,,,,,,,,,,,,,,,,,,,,,,,,,,,,,,,,,,,,,,
,,,,,,5b0d0beed282ff00015b9972,62b2ac991bc9707e87f00ac2,2022-06-21_22h47.02.967,Colour_Asymmetry_Pilot,2022.1.3,Win32,60.0024001,62b2a6a25f2ba72662469a01,,,,,,,,,,,,,,,,,,,,twofour,,-3,0.7326,,,,,,,,,,,,,,,,,,,,,,,,,,,,,,,,,,"[-0.6,0.16860000000000008,0.44300000000000006]","[0.8274000000000001,-0.5844,-0.9452]",-68,46.3999939,1,0,0,response7disk,-1.599975586,7.199981689,1,0,0,rectangle,-1.599975586,7.199981689,1,0,0,3,1,0.001,0,-1.599975586,7.199981689,1,0,0,0,15,15,78,1,78,first,,,,,,,,,,,,,,,,,,,,,,,,,,,,,,,,,,,,,,,,,,,,,,,,,,,,,,,,,,,,,,,,,,,
,,,,,,5b0d0beed282ff00015b9972,62b2ac991bc9707e87f00ac2,2022-06-21_22h47.02.967,Colour_Asymmetry_Pilot,2022.1.3,Win32,60.0024001,62b2a6a25f2ba72662469a01,,,,,,,,,,,,,,,,,,,,onetwo,,1,0.4997,,,,,,,,,,,,,,,,,,,,,,,,,,,,,,,,,,"[0.23920000000000008,0.2704,0.16060000000000008]","[0.34099999999999997,0.5841999999999998,-0.9844]",48.79998779,-88,1,0,0,response3disk,26.40002441,-9.600006104,1,0,0,rectangle,26.40002441,-9.600006104,1,0,0,3,1,0.0002,0,26.40002441,-9.600006104,1,0,0,0,16,16,80,1,80,first,,,,,,,,,,,,,,,,,,,,,,,,,,,,,,,,,,,,,,,,,,,,,,,,,,,,,,,,,,,,,,,,,,,
,,,,,,5b0d0beed282ff00015b9972,62b2ac991bc9707e87f00ac2,2022-06-21_22h47.02.967,Colour_Asymmetry_Pilot,2022.1.3,Win32,60.0024001,62b2a6a25f2ba72662469a01,,,,,,,,,,,,,,,,,,,,fourtwo,,-2,0.6838,,,,,,,,,,,,,,,,,,,,,,,,,,,,,,,,,,"[-0.34920000000000007,-0.702,-0.5216]","[0.9763999999999999,0.30979999999999985,-0.6786]",-77.59997559,-45.6000061,1,0,0,response5disk,4,-6.400024414,1,0,0,rectangle,4,-6.400024414,1,0,0,3,1,1E-04,0,4,-6.400024414,1,0,0,0,17,17,101,1,20,second,,,,,,,,,,,,,,,,,,,,,,,,,,,,,,,,,,,,,,,,,,,,,,,,,,,,,,,,,,,,,,,,,,,
