trials.thisRepN,trials.thisTrialN,trials.thisN,trials.thisIndex,trials.ran,Colourcodes,participant,session,date,expName,psychopyVersion,OS,frameRate,study_id,trials_4.thisRepN,trials_4.thisTrialN,trials_4.thisN,trials_4.thisIndex,trials_4.ran,StimulusPos,key_resp.keys,key_resp.rt,key_resp_2.keys,key_resp_2.rt,key_resp_15.keys,key_resp_15.rt,key_resp_17.keys,key_resp_17.rt,key_resp_9.keys,key_resp_9.rt,key_resp_10.keys,key_resp_10.rt,Circle1_col,Ecc,Circle2_col,similarity,response_time,mouse_5.x,mouse_5.y,mouse_5.leftButton,mouse_5.midButton,mouse_5.rightButton,mouse_5.clicked_name,mouse_10.x,mouse_10.y,mouse_10.leftButton,mouse_10.midButton,mouse_10.rightButton,mouse_10.clicked_name,mouse_7.x,mouse_7.y,mouse_7.leftButton,mouse_7.midButton,mouse_7.rightButton,catchnumberprac,mouse_6.x,mouse_6.y,mouse_6.leftButton,mouse_6.midButton,mouse_6.rightButton,duringprac.thisRepN,duringprac.thisTrialN,duringprac.thisN,duringprac.thisIndex,duringprac.ran,mouse_7.clicked_name,catchprac,mouse_6.clicked_name,key_resp_22.keys,key_resp_22.rt,Circle1_colour,Circle2_colour,mouse.x,mouse.y,mouse.leftButton,mouse.midButton,mouse.rightButton,mouse.clicked_name,mouse_2.x,mouse_2.y,mouse_2.leftButton,mouse_2.midButton,mouse_2.rightButton,mouse_2.clicked_name,mouse_3.x,mouse_3.y,mouse_3.leftButton,mouse_3.midButton,mouse_3.rightButton,catchresponse,catchnumber,response_time_catch,Catch,mouse_11.x,mouse_11.y,mouse_11.leftButton,mouse_11.midButton,mouse_11.rightButton,trials_2.thisRepN,trials_2.thisTrialN,trials_2.thisN,trials_2.thisIndex,trials_2.ran,Colourpair,Temporder,mouse_3.clicked_name,mouse_11.clicked_name,trials_3.thisRepN,trials_3.thisTrialN,trials_3.thisN,trials_3.thisIndex,trials_3.ran,key_resp_instr_Ishi.keys,key_resp_instr_Ishi.rt,Ishi_trial_keyresp.keys,Ishi_trial_keyresp.rt,Ishi_textbox.text,Ishi_loop.thisRepN,Ishi_loop.thisTrialN,Ishi_loop.thisN,Ishi_loop.thisIndex,Ishi_loop.ran,imageaddress,textbox.text,mouse_4.x,mouse_4.y,mouse_4.leftButton,mouse_4.midButton,mouse_4.rightButton,mouse_4.clicked_name,textbox_2.text,mouse_8.x,mouse_8.y,mouse_8.leftButton,mouse_8.midButton,mouse_8.rightButton,mouse_8.clicked_name,textbox_3.text,mouse_9.x,mouse_9.y,mouse_9.leftButton,mouse_9.midButton,mouse_9.rightButton,mouse_9.clicked_name,textbox_4.text,mouse_12.x,mouse_12.y,mouse_12.leftButton,mouse_12.midButton,mouse_12.rightButton,mouse_12.clicked_name,textbox_5.text,mouse_13.x,mouse_13.y,mouse_13.leftButton,mouse_13.midButton,mouse_13.rightButton,mouse_13.clicked_name,textbox_6.text,mouse_14.x,mouse_14.y,mouse_14.leftButton,mouse_14.midButton,mouse_14.rightButton,mouse_14.clicked_name,textbox_7.text,mouse_15.x,mouse_15.y,mouse_15.leftButton,mouse_15.midButton,mouse_15.rightButton,mouse_15.clicked_name
0,0,0,36,1,,6165e0b51a883e9db8cc7146,62bc08e07392ca1a086a7e01,2022-06-29_10h10.55.990,Colour_Asymmetry_Pilot,2022.1.3,Win32,60.0024001,62bbe60bf3d75ef465d3e404,,,,,,,,,,,,,,,,,,,,,,,,,,,,,,,,,,,,,,,,,,,,,,,,,,,,,,,,,,,,,,,,,,,,,,,,,,,,,,,,,,,,,,,,,,,,,,,,,,,,,,,,,,,,,,,,,,,,,,,,,,,,,,,,,,,,,,,,,,,,,,,,,,,,,,,,,,,,,,
0,1,1,68,1,,6165e0b51a883e9db8cc7146,62bc08e07392ca1a086a7e01,2022-06-29_10h10.55.990,Colour_Asymmetry_Pilot,2022.1.3,Win32,60.0024001,62bbe60bf3d75ef465d3e404,,,,,,,,,,,,,,,,,,,,,,,,,,,,,,,,,,,,,,,,,,,,,,,,,,,,,,,,,,,,,,,,,,,,,,,,,,,,,,,,,,,,,,,,,,,,,,,,,,,,,,,,,,,,,,,,,,,,,,,,,,,,,,,,,,,,,,,,,,,,,,,,,,,,,,,,,,,,,,
0,2,2,50,1,,6165e0b51a883e9db8cc7146,62bc08e07392ca1a086a7e01,2022-06-29_10h10.55.990,Colour_Asymmetry_Pilot,2022.1.3,Win32,60.0024001,62bbe60bf3d75ef465d3e404,,,,,,,,,,,,,,,,,,,,,,,,,,,,,,,,,,,,,,,,,,,,,,,,,,,,,,,,,,,,,,,,,,,,,,,,,,,,,,,,,,,,,,,,,,,,,,,,,,,,,,,,,,,,,,,,,,,,,,,,,,,,,,,,,,,,,,,,,,,,,,,,,,,,,,,,,,,,,,
0,3,3,7,1,,6165e0b51a883e9db8cc7146,62bc08e07392ca1a086a7e01,2022-06-29_10h10.55.990,Colour_Asymmetry_Pilot,2022.1.3,Win32,60.0024001,62bbe60bf3d75ef465d3e404,,,,,,,,,,,,,,,,,,,,,,,,,,,,,,,,,,,,,,,,,,,,,,,,,,,,,,,,,,,,,,,,,,,,,,,,,,,,,,,,,,,,,,,,,,,,,,,,,,,,,,,,,,,,,,,,,,,,,,,,,,,,,,,,,,,,,,,,,,,,,,,,,,,,,,,,,,,,,,
0,4,4,53,1,,6165e0b51a883e9db8cc7146,62bc08e07392ca1a086a7e01,2022-06-29_10h10.55.990,Colour_Asymmetry_Pilot,2022.1.3,Win32,60.0024001,62bbe60bf3d75ef465d3e404,,,,,,,,,,,,,,,,,,,,,,,,,,,,,,,,,,,,,,,,,,,,,,,,,,,,,,,,,,,,,,,,,,,,,,,,,,,,,,,,,,,,,,,,,,,,,,,,,,,,,,,,,,,,,,,,,,,,,,,,,,,,,,,,,,,,,,,,,,,,,,,,,,,,,,,,,,,,,,
0,5,5,15,1,,6165e0b51a883e9db8cc7146,62bc08e07392ca1a086a7e01,2022-06-29_10h10.55.990,Colour_Asymmetry_Pilot,2022.1.3,Win32,60.0024001,62bbe60bf3d75ef465d3e404,,,,,,,,,,,,,,,,,,,,,,,,,,,,,,,,,,,,,,,,,,,,,,,,,,,,,,,,,,,,,,,,,,,,,,,,,,,,,,,,,,,,,,,,,,,,,,,,,,,,,,,,,,,,,,,,,,,,,,,,,,,,,,,,,,,,,,,,,,,,,,,,,,,,,,,,,,,,,,
0,6,6,42,1,,6165e0b51a883e9db8cc7146,62bc08e07392ca1a086a7e01,2022-06-29_10h10.55.990,Colour_Asymmetry_Pilot,2022.1.3,Win32,60.0024001,62bbe60bf3d75ef465d3e404,,,,,,,,,,,,,,,,,,,,,,,,,,,,,,,,,,,,,,,,,,,,,,,,,,,,,,,,,,,,,,,,,,,,,,,,,,,,,,,,,,,,,,,,,,,,,,,,,,,,,,,,,,,,,,,,,,,,,,,,,,,,,,,,,,,,,,,,,,,,,,,,,,,,,,,,,,,,,,
0,7,7,21,1,,6165e0b51a883e9db8cc7146,62bc08e07392ca1a086a7e01,2022-06-29_10h10.55.990,Colour_Asymmetry_Pilot,2022.1.3,Win32,60.0024001,62bbe60bf3d75ef465d3e404,,,,,,,,,,,,,,,,,,,,,,,,,,,,,,,,,,,,,,,,,,,,,,,,,,,,,,,,,,,,,,,,,,,,,,,,,,,,,,,,,,,,,,,,,,,,,,,,,,,,,,,,,,,,,,,,,,,,,,,,,,,,,,,,,,,,,,,,,,,,,,,,,,,,,,,,,,,,,,
0,8,8,60,1,,6165e0b51a883e9db8cc7146,62bc08e07392ca1a086a7e01,2022-06-29_10h10.55.990,Colour_Asymmetry_Pilot,2022.1.3,Win32,60.0024001,62bbe60bf3d75ef465d3e404,,,,,,,,,,,,,,,,,,,,,,,,,,,,,,,,,,,,,,,,,,,,,,,,,,,,,,,,,,,,,,,,,,,,,,,,,,,,,,,,,,,,,,,,,,,,,,,,,,,,,,,,,,,,,,,,,,,,,,,,,,,,,,,,,,,,,,,,,,,,,,,,,,,,,,,,,,,,,,
0,9,9,67,1,,6165e0b51a883e9db8cc7146,62bc08e07392ca1a086a7e01,2022-06-29_10h10.55.990,Colour_Asymmetry_Pilot,2022.1.3,Win32,60.0024001,62bbe60bf3d75ef465d3e404,,,,,,,,,,,,,,,,,,,,,,,,,,,,,,,,,,,,,,,,,,,,,,,,,,,,,,,,,,,,,,,,,,,,,,,,,,,,,,,,,,,,,,,,,,,,,,,,,,,,,,,,,,,,,,,,,,,,,,,,,,,,,,,,,,,,,,,,,,,,,,,,,,,,,,,,,,,,,,
0,10,10,57,1,,6165e0b51a883e9db8cc7146,62bc08e07392ca1a086a7e01,2022-06-29_10h10.55.990,Colour_Asymmetry_Pilot,2022.1.3,Win32,60.0024001,62bbe60bf3d75ef465d3e404,,,,,,,,,,,,,,,,,,,,,,,,,,,,,,,,,,,,,,,,,,,,,,,,,,,,,,,,,,,,,,,,,,,,,,,,,,,,,,,,,,,,,,,,,,,,,,,,,,,,,,,,,,,,,,,,,,,,,,,,,,,,,,,,,,,,,,,,,,,,,,,,,,,,,,,,,,,,,,
0,11,11,91,1,,6165e0b51a883e9db8cc7146,62bc08e07392ca1a086a7e01,2022-06-29_10h10.55.990,Colour_Asymmetry_Pilot,2022.1.3,Win32,60.0024001,62bbe60bf3d75ef465d3e404,,,,,,,,,,,,,,,,,,,,,,,,,,,,,,,,,,,,,,,,,,,,,,,,,,,,,,,,,,,,,,,,,,,,,,,,,,,,,,,,,,,,,,,,,,,,,,,,,,,,,,,,,,,,,,,,,,,,,,,,,,,,,,,,,,,,,,,,,,,,,,,,,,,,,,,,,,,,,,
0,12,12,75,1,,6165e0b51a883e9db8cc7146,62bc08e07392ca1a086a7e01,2022-06-29_10h10.55.990,Colour_Asymmetry_Pilot,2022.1.3,Win32,60.0024001,62bbe60bf3d75ef465d3e404,,,,,,,,,,,,,,,,,,,,,,,,,,,,,,,,,,,,,,,,,,,,,,,,,,,,,,,,,,,,,,,,,,,,,,,,,,,,,,,,,,,,,,,,,,,,,,,,,,,,,,,,,,,,,,,,,,,,,,,,,,,,,,,,,,,,,,,,,,,,,,,,,,,,,,,,,,,,,,
0,13,13,44,1,,6165e0b51a883e9db8cc7146,62bc08e07392ca1a086a7e01,2022-06-29_10h10.55.990,Colour_Asymmetry_Pilot,2022.1.3,Win32,60.0024001,62bbe60bf3d75ef465d3e404,,,,,,,,,,,,,,,,,,,,,,,,,,,,,,,,,,,,,,,,,,,,,,,,,,,,,,,,,,,,,,,,,,,,,,,,,,,,,,,,,,,,,,,,,,,,,,,,,,,,,,,,,,,,,,,,,,,,,,,,,,,,,,,,,,,,,,,,,,,,,,,,,,,,,,,,,,,,,,
0,14,14,4,1,,6165e0b51a883e9db8cc7146,62bc08e07392ca1a086a7e01,2022-06-29_10h10.55.990,Colour_Asymmetry_Pilot,2022.1.3,Win32,60.0024001,62bbe60bf3d75ef465d3e404,,,,,,,,,,,,,,,,,,,,,,,,,,,,,,,,,,,,,,,,,,,,,,,,,,,,,,,,,,,,,,,,,,,,,,,,,,,,,,,,,,,,,,,,,,,,,,,,,,,,,,,,,,,,,,,,,,,,,,,,,,,,,,,,,,,,,,,,,,,,,,,,,,,,,,,,,,,,,,
0,15,15,38,1,,6165e0b51a883e9db8cc7146,62bc08e07392ca1a086a7e01,2022-06-29_10h10.55.990,Colour_Asymmetry_Pilot,2022.1.3,Win32,60.0024001,62bbe60bf3d75ef465d3e404,,,,,,,,,,,,,,,,,,,,,,,,,,,,,,,,,,,,,,,,,,,,,,,,,,,,,,,,,,,,,,,,,,,,,,,,,,,,,,,,,,,,,,,,,,,,,,,,,,,,,,,,,,,,,,,,,,,,,,,,,,,,,,,,,,,,,,,,,,,,,,,,,,,,,,,,,,,,,,
0,16,16,48,1,,6165e0b51a883e9db8cc7146,62bc08e07392ca1a086a7e01,2022-06-29_10h10.55.990,Colour_Asymmetry_Pilot,2022.1.3,Win32,60.0024001,62bbe60bf3d75ef465d3e404,,,,,,,,,,,,,,,,,,,,,,,,,,,,,,,,,,,,,,,,,,,,,,,,,,,,,,,,,,,,,,,,,,,,,,,,,,,,,,,,,,,,,,,,,,,,,,,,,,,,,,,,,,,,,,,,,,,,,,,,,,,,,,,,,,,,,,,,,,,,,,,,,,,,,,,,,,,,,,
0,17,17,52,1,,6165e0b51a883e9db8cc7146,62bc08e07392ca1a086a7e01,2022-06-29_10h10.55.990,Colour_Asymmetry_Pilot,2022.1.3,Win32,60.0024001,62bbe60bf3d75ef465d3e404,,,,,,,,,,,,,,,,,,,,,,,,,,,,,,,,,,,,,,,,,,,,,,,,,,,,,,,,,,,,,,,,,,,,,,,,,,,,,,,,,,,,,,,,,,,,,,,,,,,,,,,,,,,,,,,,,,,,,,,,,,,,,,,,,,,,,,,,,,,,,,,,,,,,,,,,,,,,,,
0,18,18,32,1,,6165e0b51a883e9db8cc7146,62bc08e07392ca1a086a7e01,2022-06-29_10h10.55.990,Colour_Asymmetry_Pilot,2022.1.3,Win32,60.0024001,62bbe60bf3d75ef465d3e404,,,,,,,,,,,,,,,,,,,,,,,,,,,,,,,,,,,,,,,,,,,,,,,,,,,,,,,,,,,,,,,,,,,,,,,,,,,,,,,,,,,,,,,,,,,,,,,,,,,,,,,,,,,,,,,,,,,,,,,,,,,,,,,,,,,,,,,,,,,,,,,,,,,,,,,,,,,,,,
0,19,19,90,1,,6165e0b51a883e9db8cc7146,62bc08e07392ca1a086a7e01,2022-06-29_10h10.55.990,Colour_Asymmetry_Pilot,2022.1.3,Win32,60.0024001,62bbe60bf3d75ef465d3e404,,,,,,,,,,,,,,,,,,,,,,,,,,,,,,,,,,,,,,,,,,,,,,,,,,,,,,,,,,,,,,,,,,,,,,,,,,,,,,,,,,,,,,,,,,,,,,,,,,,,,,,,,,,,,,,,,,,,,,,,,,,,,,,,,,,,,,,,,,,,,,,,,,,,,,,,,,,,,,
0,20,20,30,1,,6165e0b51a883e9db8cc7146,62bc08e07392ca1a086a7e01,2022-06-29_10h10.55.990,Colour_Asymmetry_Pilot,2022.1.3,Win32,60.0024001,62bbe60bf3d75ef465d3e404,,,,,,,,,,,,,,,,,,,,,,,,,,,,,,,,,,,,,,,,,,,,,,,,,,,,,,,,,,,,,,,,,,,,,,,,,,,,,,,,,,,,,,,,,,,,,,,,,,,,,,,,,,,,,,,,,,,,,,,,,,,,,,,,,,,,,,,,,,,,,,,,,,,,,,,,,,,,,,
0,21,21,25,1,,6165e0b51a883e9db8cc7146,62bc08e07392ca1a086a7e01,2022-06-29_10h10.55.990,Colour_Asymmetry_Pilot,2022.1.3,Win32,60.0024001,62bbe60bf3d75ef465d3e404,,,,,,,,,,,,,,,,,,,,,,,,,,,,,,,,,,,,,,,,,,,,,,,,,,,,,,,,,,,,,,,,,,,,,,,,,,,,,,,,,,,,,,,,,,,,,,,,,,,,,,,,,,,,,,,,,,,,,,,,,,,,,,,,,,,,,,,,,,,,,,,,,,,,,,,,,,,,,,
0,22,22,66,1,,6165e0b51a883e9db8cc7146,62bc08e07392ca1a086a7e01,2022-06-29_10h10.55.990,Colour_Asymmetry_Pilot,2022.1.3,Win32,60.0024001,62bbe60bf3d75ef465d3e404,,,,,,,,,,,,,,,,,,,,,,,,,,,,,,,,,,,,,,,,,,,,,,,,,,,,,,,,,,,,,,,,,,,,,,,,,,,,,,,,,,,,,,,,,,,,,,,,,,,,,,,,,,,,,,,,,,,,,,,,,,,,,,,,,,,,,,,,,,,,,,,,,,,,,,,,,,,,,,
0,23,23,8,1,,6165e0b51a883e9db8cc7146,62bc08e07392ca1a086a7e01,2022-06-29_10h10.55.990,Colour_Asymmetry_Pilot,2022.1.3,Win32,60.0024001,62bbe60bf3d75ef465d3e404,,,,,,,,,,,,,,,,,,,,,,,,,,,,,,,,,,,,,,,,,,,,,,,,,,,,,,,,,,,,,,,,,,,,,,,,,,,,,,,,,,,,,,,,,,,,,,,,,,,,,,,,,,,,,,,,,,,,,,,,,,,,,,,,,,,,,,,,,,,,,,,,,,,,,,,,,,,,,,
0,24,24,33,1,,6165e0b51a883e9db8cc7146,62bc08e07392ca1a086a7e01,2022-06-29_10h10.55.990,Colour_Asymmetry_Pilot,2022.1.3,Win32,60.0024001,62bbe60bf3d75ef465d3e404,,,,,,,,,,,,,,,,,,,,,,,,,,,,,,,,,,,,,,,,,,,,,,,,,,,,,,,,,,,,,,,,,,,,,,,,,,,,,,,,,,,,,,,,,,,,,,,,,,,,,,,,,,,,,,,,,,,,,,,,,,,,,,,,,,,,,,,,,,,,,,,,,,,,,,,,,,,,,,
0,25,25,92,1,,6165e0b51a883e9db8cc7146,62bc08e07392ca1a086a7e01,2022-06-29_10h10.55.990,Colour_Asymmetry_Pilot,2022.1.3,Win32,60.0024001,62bbe60bf3d75ef465d3e404,,,,,,,,,,,,,,,,,,,,,,,,,,,,,,,,,,,,,,,,,,,,,,,,,,,,,,,,,,,,,,,,,,,,,,,,,,,,,,,,,,,,,,,,,,,,,,,,,,,,,,,,,,,,,,,,,,,,,,,,,,,,,,,,,,,,,,,,,,,,,,,,,,,,,,,,,,,,,,
0,26,26,81,1,,6165e0b51a883e9db8cc7146,62bc08e07392ca1a086a7e01,2022-06-29_10h10.55.990,Colour_Asymmetry_Pilot,2022.1.3,Win32,60.0024001,62bbe60bf3d75ef465d3e404,,,,,,,,,,,,,,,,,,,,,,,,,,,,,,,,,,,,,,,,,,,,,,,,,,,,,,,,,,,,,,,,,,,,,,,,,,,,,,,,,,,,,,,,,,,,,,,,,,,,,,,,,,,,,,,,,,,,,,,,,,,,,,,,,,,,,,,,,,,,,,,,,,,,,,,,,,,,,,
0,27,27,62,1,,6165e0b51a883e9db8cc7146,62bc08e07392ca1a086a7e01,2022-06-29_10h10.55.990,Colour_Asymmetry_Pilot,2022.1.3,Win32,60.0024001,62bbe60bf3d75ef465d3e404,,,,,,,,,,,,,,,,,,,,,,,,,,,,,,,,,,,,,,,,,,,,,,,,,,,,,,,,,,,,,,,,,,,,,,,,,,,,,,,,,,,,,,,,,,,,,,,,,,,,,,,,,,,,,,,,,,,,,,,,,,,,,,,,,,,,,,,,,,,,,,,,,,,,,,,,,,,,,,
0,28,28,1,1,,6165e0b51a883e9db8cc7146,62bc08e07392ca1a086a7e01,2022-06-29_10h10.55.990,Colour_Asymmetry_Pilot,2022.1.3,Win32,60.0024001,62bbe60bf3d75ef465d3e404,,,,,,,,,,,,,,,,,,,,,,,,,,,,,,,,,,,,,,,,,,,,,,,,,,,,,,,,,,,,,,,,,,,,,,,,,,,,,,,,,,,,,,,,,,,,,,,,,,,,,,,,,,,,,,,,,,,,,,,,,,,,,,,,,,,,,,,,,,,,,,,,,,,,,,,,,,,,,,
0,29,29,86,1,,6165e0b51a883e9db8cc7146,62bc08e07392ca1a086a7e01,2022-06-29_10h10.55.990,Colour_Asymmetry_Pilot,2022.1.3,Win32,60.0024001,62bbe60bf3d75ef465d3e404,,,,,,,,,,,,,,,,,,,,,,,,,,,,,,,,,,,,,,,,,,,,,,,,,,,,,,,,,,,,,,,,,,,,,,,,,,,,,,,,,,,,,,,,,,,,,,,,,,,,,,,,,,,,,,,,,,,,,,,,,,,,,,,,,,,,,,,,,,,,,,,,,,,,,,,,,,,,,,
0,30,30,87,1,,6165e0b51a883e9db8cc7146,62bc08e07392ca1a086a7e01,2022-06-29_10h10.55.990,Colour_Asymmetry_Pilot,2022.1.3,Win32,60.0024001,62bbe60bf3d75ef465d3e404,,,,,,,,,,,,,,,,,,,,,,,,,,,,,,,,,,,,,,,,,,,,,,,,,,,,,,,,,,,,,,,,,,,,,,,,,,,,,,,,,,,,,,,,,,,,,,,,,,,,,,,,,,,,,,,,,,,,,,,,,,,,,,,,,,,,,,,,,,,,,,,,,,,,,,,,,,,,,,
0,31,31,39,1,,6165e0b51a883e9db8cc7146,62bc08e07392ca1a086a7e01,2022-06-29_10h10.55.990,Colour_Asymmetry_Pilot,2022.1.3,Win32,60.0024001,62bbe60bf3d75ef465d3e404,,,,,,,,,,,,,,,,,,,,,,,,,,,,,,,,,,,,,,,,,,,,,,,,,,,,,,,,,,,,,,,,,,,,,,,,,,,,,,,,,,,,,,,,,,,,,,,,,,,,,,,,,,,,,,,,,,,,,,,,,,,,,,,,,,,,,,,,,,,,,,,,,,,,,,,,,,,,,,
0,32,32,0,1,,6165e0b51a883e9db8cc7146,62bc08e07392ca1a086a7e01,2022-06-29_10h10.55.990,Colour_Asymmetry_Pilot,2022.1.3,Win32,60.0024001,62bbe60bf3d75ef465d3e404,,,,,,,,,,,,,,,,,,,,,,,,,,,,,,,,,,,,,,,,,,,,,,,,,,,,,,,,,,,,,,,,,,,,,,,,,,,,,,,,,,,,,,,,,,,,,,,,,,,,,,,,,,,,,,,,,,,,,,,,,,,,,,,,,,,,,,,,,,,,,,,,,,,,,,,,,,,,,,
0,33,33,59,1,,6165e0b51a883e9db8cc7146,62bc08e07392ca1a086a7e01,2022-06-29_10h10.55.990,Colour_Asymmetry_Pilot,2022.1.3,Win32,60.0024001,62bbe60bf3d75ef465d3e404,,,,,,,,,,,,,,,,,,,,,,,,,,,,,,,,,,,,,,,,,,,,,,,,,,,,,,,,,,,,,,,,,,,,,,,,,,,,,,,,,,,,,,,,,,,,,,,,,,,,,,,,,,,,,,,,,,,,,,,,,,,,,,,,,,,,,,,,,,,,,,,,,,,,,,,,,,,,,,
0,34,34,11,1,,6165e0b51a883e9db8cc7146,62bc08e07392ca1a086a7e01,2022-06-29_10h10.55.990,Colour_Asymmetry_Pilot,2022.1.3,Win32,60.0024001,62bbe60bf3d75ef465d3e404,,,,,,,,,,,,,,,,,,,,,,,,,,,,,,,,,,,,,,,,,,,,,,,,,,,,,,,,,,,,,,,,,,,,,,,,,,,,,,,,,,,,,,,,,,,,,,,,,,,,,,,,,,,,,,,,,,,,,,,,,,,,,,,,,,,,,,,,,,,,,,,,,,,,,,,,,,,,,,
0,35,35,45,1,,6165e0b51a883e9db8cc7146,62bc08e07392ca1a086a7e01,2022-06-29_10h10.55.990,Colour_Asymmetry_Pilot,2022.1.3,Win32,60.0024001,62bbe60bf3d75ef465d3e404,,,,,,,,,,,,,,,,,,,,,,,,,,,,,,,,,,,,,,,,,,,,,,,,,,,,,,,,,,,,,,,,,,,,,,,,,,,,,,,,,,,,,,,,,,,,,,,,,,,,,,,,,,,,,,,,,,,,,,,,,,,,,,,,,,,,,,,,,,,,,,,,,,,,,,,,,,,,,,
0,36,36,6,1,,6165e0b51a883e9db8cc7146,62bc08e07392ca1a086a7e01,2022-06-29_10h10.55.990,Colour_Asymmetry_Pilot,2022.1.3,Win32,60.0024001,62bbe60bf3d75ef465d3e404,,,,,,,,,,,,,,,,,,,,,,,,,,,,,,,,,,,,,,,,,,,,,,,,,,,,,,,,,,,,,,,,,,,,,,,,,,,,,,,,,,,,,,,,,,,,,,,,,,,,,,,,,,,,,,,,,,,,,,,,,,,,,,,,,,,,,,,,,,,,,,,,,,,,,,,,,,,,,,
0,37,37,46,1,,6165e0b51a883e9db8cc7146,62bc08e07392ca1a086a7e01,2022-06-29_10h10.55.990,Colour_Asymmetry_Pilot,2022.1.3,Win32,60.0024001,62bbe60bf3d75ef465d3e404,,,,,,,,,,,,,,,,,,,,,,,,,,,,,,,,,,,,,,,,,,,,,,,,,,,,,,,,,,,,,,,,,,,,,,,,,,,,,,,,,,,,,,,,,,,,,,,,,,,,,,,,,,,,,,,,,,,,,,,,,,,,,,,,,,,,,,,,,,,,,,,,,,,,,,,,,,,,,,
0,38,38,5,1,,6165e0b51a883e9db8cc7146,62bc08e07392ca1a086a7e01,2022-06-29_10h10.55.990,Colour_Asymmetry_Pilot,2022.1.3,Win32,60.0024001,62bbe60bf3d75ef465d3e404,,,,,,,,,,,,,,,,,,,,,,,,,,,,,,,,,,,,,,,,,,,,,,,,,,,,,,,,,,,,,,,,,,,,,,,,,,,,,,,,,,,,,,,,,,,,,,,,,,,,,,,,,,,,,,,,,,,,,,,,,,,,,,,,,,,,,,,,,,,,,,,,,,,,,,,,,,,,,,
0,39,39,85,1,,6165e0b51a883e9db8cc7146,62bc08e07392ca1a086a7e01,2022-06-29_10h10.55.990,Colour_Asymmetry_Pilot,2022.1.3,Win32,60.0024001,62bbe60bf3d75ef465d3e404,,,,,,,,,,,,,,,,,,,,,,,,,,,,,,,,,,,,,,,,,,,,,,,,,,,,,,,,,,,,,,,,,,,,,,,,,,,,,,,,,,,,,,,,,,,,,,,,,,,,,,,,,,,,,,,,,,,,,,,,,,,,,,,,,,,,,,,,,,,,,,,,,,,,,,,,,,,,,,
0,40,40,10,1,,6165e0b51a883e9db8cc7146,62bc08e07392ca1a086a7e01,2022-06-29_10h10.55.990,Colour_Asymmetry_Pilot,2022.1.3,Win32,60.0024001,62bbe60bf3d75ef465d3e404,,,,,,,,,,,,,,,,,,,,,,,,,,,,,,,,,,,,,,,,,,,,,,,,,,,,,,,,,,,,,,,,,,,,,,,,,,,,,,,,,,,,,,,,,,,,,,,,,,,,,,,,,,,,,,,,,,,,,,,,,,,,,,,,,,,,,,,,,,,,,,,,,,,,,,,,,,,,,,
0,41,41,79,1,,6165e0b51a883e9db8cc7146,62bc08e07392ca1a086a7e01,2022-06-29_10h10.55.990,Colour_Asymmetry_Pilot,2022.1.3,Win32,60.0024001,62bbe60bf3d75ef465d3e404,,,,,,,,,,,,,,,,,,,,,,,,,,,,,,,,,,,,,,,,,,,,,,,,,,,,,,,,,,,,,,,,,,,,,,,,,,,,,,,,,,,,,,,,,,,,,,,,,,,,,,,,,,,,,,,,,,,,,,,,,,,,,,,,,,,,,,,,,,,,,,,,,,,,,,,,,,,,,,
0,42,42,27,1,,6165e0b51a883e9db8cc7146,62bc08e07392ca1a086a7e01,2022-06-29_10h10.55.990,Colour_Asymmetry_Pilot,2022.1.3,Win32,60.0024001,62bbe60bf3d75ef465d3e404,,,,,,,,,,,,,,,,,,,,,,,,,,,,,,,,,,,,,,,,,,,,,,,,,,,,,,,,,,,,,,,,,,,,,,,,,,,,,,,,,,,,,,,,,,,,,,,,,,,,,,,,,,,,,,,,,,,,,,,,,,,,,,,,,,,,,,,,,,,,,,,,,,,,,,,,,,,,,,
0,43,43,35,1,,6165e0b51a883e9db8cc7146,62bc08e07392ca1a086a7e01,2022-06-29_10h10.55.990,Colour_Asymmetry_Pilot,2022.1.3,Win32,60.0024001,62bbe60bf3d75ef465d3e404,,,,,,,,,,,,,,,,,,,,,,,,,,,,,,,,,,,,,,,,,,,,,,,,,,,,,,,,,,,,,,,,,,,,,,,,,,,,,,,,,,,,,,,,,,,,,,,,,,,,,,,,,,,,,,,,,,,,,,,,,,,,,,,,,,,,,,,,,,,,,,,,,,,,,,,,,,,,,,
0,44,44,19,1,,6165e0b51a883e9db8cc7146,62bc08e07392ca1a086a7e01,2022-06-29_10h10.55.990,Colour_Asymmetry_Pilot,2022.1.3,Win32,60.0024001,62bbe60bf3d75ef465d3e404,,,,,,,,,,,,,,,,,,,,,,,,,,,,,,,,,,,,,,,,,,,,,,,,,,,,,,,,,,,,,,,,,,,,,,,,,,,,,,,,,,,,,,,,,,,,,,,,,,,,,,,,,,,,,,,,,,,,,,,,,,,,,,,,,,,,,,,,,,,,,,,,,,,,,,,,,,,,,,
0,45,45,17,1,,6165e0b51a883e9db8cc7146,62bc08e07392ca1a086a7e01,2022-06-29_10h10.55.990,Colour_Asymmetry_Pilot,2022.1.3,Win32,60.0024001,62bbe60bf3d75ef465d3e404,,,,,,,,,,,,,,,,,,,,,,,,,,,,,,,,,,,,,,,,,,,,,,,,,,,,,,,,,,,,,,,,,,,,,,,,,,,,,,,,,,,,,,,,,,,,,,,,,,,,,,,,,,,,,,,,,,,,,,,,,,,,,,,,,,,,,,,,,,,,,,,,,,,,,,,,,,,,,,
0,46,46,71,1,,6165e0b51a883e9db8cc7146,62bc08e07392ca1a086a7e01,2022-06-29_10h10.55.990,Colour_Asymmetry_Pilot,2022.1.3,Win32,60.0024001,62bbe60bf3d75ef465d3e404,,,,,,,,,,,,,,,,,,,,,,,,,,,,,,,,,,,,,,,,,,,,,,,,,,,,,,,,,,,,,,,,,,,,,,,,,,,,,,,,,,,,,,,,,,,,,,,,,,,,,,,,,,,,,,,,,,,,,,,,,,,,,,,,,,,,,,,,,,,,,,,,,,,,,,,,,,,,,,
0,47,47,13,1,,6165e0b51a883e9db8cc7146,62bc08e07392ca1a086a7e01,2022-06-29_10h10.55.990,Colour_Asymmetry_Pilot,2022.1.3,Win32,60.0024001,62bbe60bf3d75ef465d3e404,,,,,,,,,,,,,,,,,,,,,,,,,,,,,,,,,,,,,,,,,,,,,,,,,,,,,,,,,,,,,,,,,,,,,,,,,,,,,,,,,,,,,,,,,,,,,,,,,,,,,,,,,,,,,,,,,,,,,,,,,,,,,,,,,,,,,,,,,,,,,,,,,,,,,,,,,,,,,,
0,48,48,76,1,,6165e0b51a883e9db8cc7146,62bc08e07392ca1a086a7e01,2022-06-29_10h10.55.990,Colour_Asymmetry_Pilot,2022.1.3,Win32,60.0024001,62bbe60bf3d75ef465d3e404,,,,,,,,,,,,,,,,,,,,,,,,,,,,,,,,,,,,,,,,,,,,,,,,,,,,,,,,,,,,,,,,,,,,,,,,,,,,,,,,,,,,,,,,,,,,,,,,,,,,,,,,,,,,,,,,,,,,,,,,,,,,,,,,,,,,,,,,,,,,,,,,,,,,,,,,,,,,,,
0,49,49,69,1,,6165e0b51a883e9db8cc7146,62bc08e07392ca1a086a7e01,2022-06-29_10h10.55.990,Colour_Asymmetry_Pilot,2022.1.3,Win32,60.0024001,62bbe60bf3d75ef465d3e404,,,,,,,,,,,,,,,,,,,,,,,,,,,,,,,,,,,,,,,,,,,,,,,,,,,,,,,,,,,,,,,,,,,,,,,,,,,,,,,,,,,,,,,,,,,,,,,,,,,,,,,,,,,,,,,,,,,,,,,,,,,,,,,,,,,,,,,,,,,,,,,,,,,,,,,,,,,,,,
0,50,50,54,1,,6165e0b51a883e9db8cc7146,62bc08e07392ca1a086a7e01,2022-06-29_10h10.55.990,Colour_Asymmetry_Pilot,2022.1.3,Win32,60.0024001,62bbe60bf3d75ef465d3e404,,,,,,,,,,,,,,,,,,,,,,,,,,,,,,,,,,,,,,,,,,,,,,,,,,,,,,,,,,,,,,,,,,,,,,,,,,,,,,,,,,,,,,,,,,,,,,,,,,,,,,,,,,,,,,,,,,,,,,,,,,,,,,,,,,,,,,,,,,,,,,,,,,,,,,,,,,,,,,
0,51,51,3,1,,6165e0b51a883e9db8cc7146,62bc08e07392ca1a086a7e01,2022-06-29_10h10.55.990,Colour_Asymmetry_Pilot,2022.1.3,Win32,60.0024001,62bbe60bf3d75ef465d3e404,,,,,,,,,,,,,,,,,,,,,,,,,,,,,,,,,,,,,,,,,,,,,,,,,,,,,,,,,,,,,,,,,,,,,,,,,,,,,,,,,,,,,,,,,,,,,,,,,,,,,,,,,,,,,,,,,,,,,,,,,,,,,,,,,,,,,,,,,,,,,,,,,,,,,,,,,,,,,,
0,52,52,24,1,,6165e0b51a883e9db8cc7146,62bc08e07392ca1a086a7e01,2022-06-29_10h10.55.990,Colour_Asymmetry_Pilot,2022.1.3,Win32,60.0024001,62bbe60bf3d75ef465d3e404,,,,,,,,,,,,,,,,,,,,,,,,,,,,,,,,,,,,,,,,,,,,,,,,,,,,,,,,,,,,,,,,,,,,,,,,,,,,,,,,,,,,,,,,,,,,,,,,,,,,,,,,,,,,,,,,,,,,,,,,,,,,,,,,,,,,,,,,,,,,,,,,,,,,,,,,,,,,,,
0,53,53,77,1,,6165e0b51a883e9db8cc7146,62bc08e07392ca1a086a7e01,2022-06-29_10h10.55.990,Colour_Asymmetry_Pilot,2022.1.3,Win32,60.0024001,62bbe60bf3d75ef465d3e404,,,,,,,,,,,,,,,,,,,,,,,,,,,,,,,,,,,,,,,,,,,,,,,,,,,,,,,,,,,,,,,,,,,,,,,,,,,,,,,,,,,,,,,,,,,,,,,,,,,,,,,,,,,,,,,,,,,,,,,,,,,,,,,,,,,,,,,,,,,,,,,,,,,,,,,,,,,,,,
0,54,54,49,1,,6165e0b51a883e9db8cc7146,62bc08e07392ca1a086a7e01,2022-06-29_10h10.55.990,Colour_Asymmetry_Pilot,2022.1.3,Win32,60.0024001,62bbe60bf3d75ef465d3e404,,,,,,,,,,,,,,,,,,,,,,,,,,,,,,,,,,,,,,,,,,,,,,,,,,,,,,,,,,,,,,,,,,,,,,,,,,,,,,,,,,,,,,,,,,,,,,,,,,,,,,,,,,,,,,,,,,,,,,,,,,,,,,,,,,,,,,,,,,,,,,,,,,,,,,,,,,,,,,
0,55,55,37,1,,6165e0b51a883e9db8cc7146,62bc08e07392ca1a086a7e01,2022-06-29_10h10.55.990,Colour_Asymmetry_Pilot,2022.1.3,Win32,60.0024001,62bbe60bf3d75ef465d3e404,,,,,,,,,,,,,,,,,,,,,,,,,,,,,,,,,,,,,,,,,,,,,,,,,,,,,,,,,,,,,,,,,,,,,,,,,,,,,,,,,,,,,,,,,,,,,,,,,,,,,,,,,,,,,,,,,,,,,,,,,,,,,,,,,,,,,,,,,,,,,,,,,,,,,,,,,,,,,,
0,56,56,78,1,,6165e0b51a883e9db8cc7146,62bc08e07392ca1a086a7e01,2022-06-29_10h10.55.990,Colour_Asymmetry_Pilot,2022.1.3,Win32,60.0024001,62bbe60bf3d75ef465d3e404,,,,,,,,,,,,,,,,,,,,,,,,,,,,,,,,,,,,,,,,,,,,,,,,,,,,,,,,,,,,,,,,,,,,,,,,,,,,,,,,,,,,,,,,,,,,,,,,,,,,,,,,,,,,,,,,,,,,,,,,,,,,,,,,,,,,,,,,,,,,,,,,,,,,,,,,,,,,,,
0,57,57,12,1,,6165e0b51a883e9db8cc7146,62bc08e07392ca1a086a7e01,2022-06-29_10h10.55.990,Colour_Asymmetry_Pilot,2022.1.3,Win32,60.0024001,62bbe60bf3d75ef465d3e404,,,,,,,,,,,,,,,,,,,,,,,,,,,,,,,,,,,,,,,,,,,,,,,,,,,,,,,,,,,,,,,,,,,,,,,,,,,,,,,,,,,,,,,,,,,,,,,,,,,,,,,,,,,,,,,,,,,,,,,,,,,,,,,,,,,,,,,,,,,,,,,,,,,,,,,,,,,,,,
0,58,58,20,1,,6165e0b51a883e9db8cc7146,62bc08e07392ca1a086a7e01,2022-06-29_10h10.55.990,Colour_Asymmetry_Pilot,2022.1.3,Win32,60.0024001,62bbe60bf3d75ef465d3e404,,,,,,,,,,,,,,,,,,,,,,,,,,,,,,,,,,,,,,,,,,,,,,,,,,,,,,,,,,,,,,,,,,,,,,,,,,,,,,,,,,,,,,,,,,,,,,,,,,,,,,,,,,,,,,,,,,,,,,,,,,,,,,,,,,,,,,,,,,,,,,,,,,,,,,,,,,,,,,
0,59,59,23,1,,6165e0b51a883e9db8cc7146,62bc08e07392ca1a086a7e01,2022-06-29_10h10.55.990,Colour_Asymmetry_Pilot,2022.1.3,Win32,60.0024001,62bbe60bf3d75ef465d3e404,,,,,,,,,,,,,,,,,,,,,,,,,,,,,,,,,,,,,,,,,,,,,,,,,,,,,,,,,,,,,,,,,,,,,,,,,,,,,,,,,,,,,,,,,,,,,,,,,,,,,,,,,,,,,,,,,,,,,,,,,,,,,,,,,,,,,,,,,,,,,,,,,,,,,,,,,,,,,,
0,60,60,74,1,,6165e0b51a883e9db8cc7146,62bc08e07392ca1a086a7e01,2022-06-29_10h10.55.990,Colour_Asymmetry_Pilot,2022.1.3,Win32,60.0024001,62bbe60bf3d75ef465d3e404,,,,,,,,,,,,,,,,,,,,,,,,,,,,,,,,,,,,,,,,,,,,,,,,,,,,,,,,,,,,,,,,,,,,,,,,,,,,,,,,,,,,,,,,,,,,,,,,,,,,,,,,,,,,,,,,,,,,,,,,,,,,,,,,,,,,,,,,,,,,,,,,,,,,,,,,,,,,,,
0,61,61,47,1,,6165e0b51a883e9db8cc7146,62bc08e07392ca1a086a7e01,2022-06-29_10h10.55.990,Colour_Asymmetry_Pilot,2022.1.3,Win32,60.0024001,62bbe60bf3d75ef465d3e404,,,,,,,,,,,,,,,,,,,,,,,,,,,,,,,,,,,,,,,,,,,,,,,,,,,,,,,,,,,,,,,,,,,,,,,,,,,,,,,,,,,,,,,,,,,,,,,,,,,,,,,,,,,,,,,,,,,,,,,,,,,,,,,,,,,,,,,,,,,,,,,,,,,,,,,,,,,,,,
0,62,62,41,1,,6165e0b51a883e9db8cc7146,62bc08e07392ca1a086a7e01,2022-06-29_10h10.55.990,Colour_Asymmetry_Pilot,2022.1.3,Win32,60.0024001,62bbe60bf3d75ef465d3e404,,,,,,,,,,,,,,,,,,,,,,,,,,,,,,,,,,,,,,,,,,,,,,,,,,,,,,,,,,,,,,,,,,,,,,,,,,,,,,,,,,,,,,,,,,,,,,,,,,,,,,,,,,,,,,,,,,,,,,,,,,,,,,,,,,,,,,,,,,,,,,,,,,,,,,,,,,,,,,
0,63,63,61,1,,6165e0b51a883e9db8cc7146,62bc08e07392ca1a086a7e01,2022-06-29_10h10.55.990,Colour_Asymmetry_Pilot,2022.1.3,Win32,60.0024001,62bbe60bf3d75ef465d3e404,,,,,,,,,,,,,,,,,,,,,,,,,,,,,,,,,,,,,,,,,,,,,,,,,,,,,,,,,,,,,,,,,,,,,,,,,,,,,,,,,,,,,,,,,,,,,,,,,,,,,,,,,,,,,,,,,,,,,,,,,,,,,,,,,,,,,,,,,,,,,,,,,,,,,,,,,,,,,,
0,64,64,64,1,,6165e0b51a883e9db8cc7146,62bc08e07392ca1a086a7e01,2022-06-29_10h10.55.990,Colour_Asymmetry_Pilot,2022.1.3,Win32,60.0024001,62bbe60bf3d75ef465d3e404,,,,,,,,,,,,,,,,,,,,,,,,,,,,,,,,,,,,,,,,,,,,,,,,,,,,,,,,,,,,,,,,,,,,,,,,,,,,,,,,,,,,,,,,,,,,,,,,,,,,,,,,,,,,,,,,,,,,,,,,,,,,,,,,,,,,,,,,,,,,,,,,,,,,,,,,,,,,,,
0,65,65,58,1,,6165e0b51a883e9db8cc7146,62bc08e07392ca1a086a7e01,2022-06-29_10h10.55.990,Colour_Asymmetry_Pilot,2022.1.3,Win32,60.0024001,62bbe60bf3d75ef465d3e404,,,,,,,,,,,,,,,,,,,,,,,,,,,,,,,,,,,,,,,,,,,,,,,,,,,,,,,,,,,,,,,,,,,,,,,,,,,,,,,,,,,,,,,,,,,,,,,,,,,,,,,,,,,,,,,,,,,,,,,,,,,,,,,,,,,,,,,,,,,,,,,,,,,,,,,,,,,,,,
0,66,66,55,1,,6165e0b51a883e9db8cc7146,62bc08e07392ca1a086a7e01,2022-06-29_10h10.55.990,Colour_Asymmetry_Pilot,2022.1.3,Win32,60.0024001,62bbe60bf3d75ef465d3e404,,,,,,,,,,,,,,,,,,,,,,,,,,,,,,,,,,,,,,,,,,,,,,,,,,,,,,,,,,,,,,,,,,,,,,,,,,,,,,,,,,,,,,,,,,,,,,,,,,,,,,,,,,,,,,,,,,,,,,,,,,,,,,,,,,,,,,,,,,,,,,,,,,,,,,,,,,,,,,
0,67,67,9,1,,6165e0b51a883e9db8cc7146,62bc08e07392ca1a086a7e01,2022-06-29_10h10.55.990,Colour_Asymmetry_Pilot,2022.1.3,Win32,60.0024001,62bbe60bf3d75ef465d3e404,,,,,,,,,,,,,,,,,,,,,,,,,,,,,,,,,,,,,,,,,,,,,,,,,,,,,,,,,,,,,,,,,,,,,,,,,,,,,,,,,,,,,,,,,,,,,,,,,,,,,,,,,,,,,,,,,,,,,,,,,,,,,,,,,,,,,,,,,,,,,,,,,,,,,,,,,,,,,,
0,68,68,89,1,,6165e0b51a883e9db8cc7146,62bc08e07392ca1a086a7e01,2022-06-29_10h10.55.990,Colour_Asymmetry_Pilot,2022.1.3,Win32,60.0024001,62bbe60bf3d75ef465d3e404,,,,,,,,,,,,,,,,,,,,,,,,,,,,,,,,,,,,,,,,,,,,,,,,,,,,,,,,,,,,,,,,,,,,,,,,,,,,,,,,,,,,,,,,,,,,,,,,,,,,,,,,,,,,,,,,,,,,,,,,,,,,,,,,,,,,,,,,,,,,,,,,,,,,,,,,,,,,,,
0,69,69,80,1,,6165e0b51a883e9db8cc7146,62bc08e07392ca1a086a7e01,2022-06-29_10h10.55.990,Colour_Asymmetry_Pilot,2022.1.3,Win32,60.0024001,62bbe60bf3d75ef465d3e404,,,,,,,,,,,,,,,,,,,,,,,,,,,,,,,,,,,,,,,,,,,,,,,,,,,,,,,,,,,,,,,,,,,,,,,,,,,,,,,,,,,,,,,,,,,,,,,,,,,,,,,,,,,,,,,,,,,,,,,,,,,,,,,,,,,,,,,,,,,,,,,,,,,,,,,,,,,,,,
0,70,70,88,1,,6165e0b51a883e9db8cc7146,62bc08e07392ca1a086a7e01,2022-06-29_10h10.55.990,Colour_Asymmetry_Pilot,2022.1.3,Win32,60.0024001,62bbe60bf3d75ef465d3e404,,,,,,,,,,,,,,,,,,,,,,,,,,,,,,,,,,,,,,,,,,,,,,,,,,,,,,,,,,,,,,,,,,,,,,,,,,,,,,,,,,,,,,,,,,,,,,,,,,,,,,,,,,,,,,,,,,,,,,,,,,,,,,,,,,,,,,,,,,,,,,,,,,,,,,,,,,,,,,
0,71,71,82,1,,6165e0b51a883e9db8cc7146,62bc08e07392ca1a086a7e01,2022-06-29_10h10.55.990,Colour_Asymmetry_Pilot,2022.1.3,Win32,60.0024001,62bbe60bf3d75ef465d3e404,,,,,,,,,,,,,,,,,,,,,,,,,,,,,,,,,,,,,,,,,,,,,,,,,,,,,,,,,,,,,,,,,,,,,,,,,,,,,,,,,,,,,,,,,,,,,,,,,,,,,,,,,,,,,,,,,,,,,,,,,,,,,,,,,,,,,,,,,,,,,,,,,,,,,,,,,,,,,,
0,72,72,70,1,,6165e0b51a883e9db8cc7146,62bc08e07392ca1a086a7e01,2022-06-29_10h10.55.990,Colour_Asymmetry_Pilot,2022.1.3,Win32,60.0024001,62bbe60bf3d75ef465d3e404,,,,,,,,,,,,,,,,,,,,,,,,,,,,,,,,,,,,,,,,,,,,,,,,,,,,,,,,,,,,,,,,,,,,,,,,,,,,,,,,,,,,,,,,,,,,,,,,,,,,,,,,,,,,,,,,,,,,,,,,,,,,,,,,,,,,,,,,,,,,,,,,,,,,,,,,,,,,,,
0,73,73,43,1,,6165e0b51a883e9db8cc7146,62bc08e07392ca1a086a7e01,2022-06-29_10h10.55.990,Colour_Asymmetry_Pilot,2022.1.3,Win32,60.0024001,62bbe60bf3d75ef465d3e404,,,,,,,,,,,,,,,,,,,,,,,,,,,,,,,,,,,,,,,,,,,,,,,,,,,,,,,,,,,,,,,,,,,,,,,,,,,,,,,,,,,,,,,,,,,,,,,,,,,,,,,,,,,,,,,,,,,,,,,,,,,,,,,,,,,,,,,,,,,,,,,,,,,,,,,,,,,,,,
0,74,74,51,1,,6165e0b51a883e9db8cc7146,62bc08e07392ca1a086a7e01,2022-06-29_10h10.55.990,Colour_Asymmetry_Pilot,2022.1.3,Win32,60.0024001,62bbe60bf3d75ef465d3e404,,,,,,,,,,,,,,,,,,,,,,,,,,,,,,,,,,,,,,,,,,,,,,,,,,,,,,,,,,,,,,,,,,,,,,,,,,,,,,,,,,,,,,,,,,,,,,,,,,,,,,,,,,,,,,,,,,,,,,,,,,,,,,,,,,,,,,,,,,,,,,,,,,,,,,,,,,,,,,
0,75,75,16,1,,6165e0b51a883e9db8cc7146,62bc08e07392ca1a086a7e01,2022-06-29_10h10.55.990,Colour_Asymmetry_Pilot,2022.1.3,Win32,60.0024001,62bbe60bf3d75ef465d3e404,,,,,,,,,,,,,,,,,,,,,,,,,,,,,,,,,,,,,,,,,,,,,,,,,,,,,,,,,,,,,,,,,,,,,,,,,,,,,,,,,,,,,,,,,,,,,,,,,,,,,,,,,,,,,,,,,,,,,,,,,,,,,,,,,,,,,,,,,,,,,,,,,,,,,,,,,,,,,,
0,76,76,65,1,,6165e0b51a883e9db8cc7146,62bc08e07392ca1a086a7e01,2022-06-29_10h10.55.990,Colour_Asymmetry_Pilot,2022.1.3,Win32,60.0024001,62bbe60bf3d75ef465d3e404,,,,,,,,,,,,,,,,,,,,,,,,,,,,,,,,,,,,,,,,,,,,,,,,,,,,,,,,,,,,,,,,,,,,,,,,,,,,,,,,,,,,,,,,,,,,,,,,,,,,,,,,,,,,,,,,,,,,,,,,,,,,,,,,,,,,,,,,,,,,,,,,,,,,,,,,,,,,,,
0,77,77,14,1,,6165e0b51a883e9db8cc7146,62bc08e07392ca1a086a7e01,2022-06-29_10h10.55.990,Colour_Asymmetry_Pilot,2022.1.3,Win32,60.0024001,62bbe60bf3d75ef465d3e404,,,,,,,,,,,,,,,,,,,,,,,,,,,,,,,,,,,,,,,,,,,,,,,,,,,,,,,,,,,,,,,,,,,,,,,,,,,,,,,,,,,,,,,,,,,,,,,,,,,,,,,,,,,,,,,,,,,,,,,,,,,,,,,,,,,,,,,,,,,,,,,,,,,,,,,,,,,,,,
0,78,78,31,1,,6165e0b51a883e9db8cc7146,62bc08e07392ca1a086a7e01,2022-06-29_10h10.55.990,Colour_Asymmetry_Pilot,2022.1.3,Win32,60.0024001,62bbe60bf3d75ef465d3e404,,,,,,,,,,,,,,,,,,,,,,,,,,,,,,,,,,,,,,,,,,,,,,,,,,,,,,,,,,,,,,,,,,,,,,,,,,,,,,,,,,,,,,,,,,,,,,,,,,,,,,,,,,,,,,,,,,,,,,,,,,,,,,,,,,,,,,,,,,,,,,,,,,,,,,,,,,,,,,
0,79,79,22,1,,6165e0b51a883e9db8cc7146,62bc08e07392ca1a086a7e01,2022-06-29_10h10.55.990,Colour_Asymmetry_Pilot,2022.1.3,Win32,60.0024001,62bbe60bf3d75ef465d3e404,,,,,,,,,,,,,,,,,,,,,,,,,,,,,,,,,,,,,,,,,,,,,,,,,,,,,,,,,,,,,,,,,,,,,,,,,,,,,,,,,,,,,,,,,,,,,,,,,,,,,,,,,,,,,,,,,,,,,,,,,,,,,,,,,,,,,,,,,,,,,,,,,,,,,,,,,,,,,,
0,80,80,26,1,,6165e0b51a883e9db8cc7146,62bc08e07392ca1a086a7e01,2022-06-29_10h10.55.990,Colour_Asymmetry_Pilot,2022.1.3,Win32,60.0024001,62bbe60bf3d75ef465d3e404,,,,,,,,,,,,,,,,,,,,,,,,,,,,,,,,,,,,,,,,,,,,,,,,,,,,,,,,,,,,,,,,,,,,,,,,,,,,,,,,,,,,,,,,,,,,,,,,,,,,,,,,,,,,,,,,,,,,,,,,,,,,,,,,,,,,,,,,,,,,,,,,,,,,,,,,,,,,,,
0,81,81,83,1,,6165e0b51a883e9db8cc7146,62bc08e07392ca1a086a7e01,2022-06-29_10h10.55.990,Colour_Asymmetry_Pilot,2022.1.3,Win32,60.0024001,62bbe60bf3d75ef465d3e404,,,,,,,,,,,,,,,,,,,,,,,,,,,,,,,,,,,,,,,,,,,,,,,,,,,,,,,,,,,,,,,,,,,,,,,,,,,,,,,,,,,,,,,,,,,,,,,,,,,,,,,,,,,,,,,,,,,,,,,,,,,,,,,,,,,,,,,,,,,,,,,,,,,,,,,,,,,,,,
0,82,82,34,1,,6165e0b51a883e9db8cc7146,62bc08e07392ca1a086a7e01,2022-06-29_10h10.55.990,Colour_Asymmetry_Pilot,2022.1.3,Win32,60.0024001,62bbe60bf3d75ef465d3e404,,,,,,,,,,,,,,,,,,,,,,,,,,,,,,,,,,,,,,,,,,,,,,,,,,,,,,,,,,,,,,,,,,,,,,,,,,,,,,,,,,,,,,,,,,,,,,,,,,,,,,,,,,,,,,,,,,,,,,,,,,,,,,,,,,,,,,,,,,,,,,,,,,,,,,,,,,,,,,
0,83,83,18,1,,6165e0b51a883e9db8cc7146,62bc08e07392ca1a086a7e01,2022-06-29_10h10.55.990,Colour_Asymmetry_Pilot,2022.1.3,Win32,60.0024001,62bbe60bf3d75ef465d3e404,,,,,,,,,,,,,,,,,,,,,,,,,,,,,,,,,,,,,,,,,,,,,,,,,,,,,,,,,,,,,,,,,,,,,,,,,,,,,,,,,,,,,,,,,,,,,,,,,,,,,,,,,,,,,,,,,,,,,,,,,,,,,,,,,,,,,,,,,,,,,,,,,,,,,,,,,,,,,,
0,84,84,28,1,,6165e0b51a883e9db8cc7146,62bc08e07392ca1a086a7e01,2022-06-29_10h10.55.990,Colour_Asymmetry_Pilot,2022.1.3,Win32,60.0024001,62bbe60bf3d75ef465d3e404,,,,,,,,,,,,,,,,,,,,,,,,,,,,,,,,,,,,,,,,,,,,,,,,,,,,,,,,,,,,,,,,,,,,,,,,,,,,,,,,,,,,,,,,,,,,,,,,,,,,,,,,,,,,,,,,,,,,,,,,,,,,,,,,,,,,,,,,,,,,,,,,,,,,,,,,,,,,,,
0,85,85,63,1,,6165e0b51a883e9db8cc7146,62bc08e07392ca1a086a7e01,2022-06-29_10h10.55.990,Colour_Asymmetry_Pilot,2022.1.3,Win32,60.0024001,62bbe60bf3d75ef465d3e404,,,,,,,,,,,,,,,,,,,,,,,,,,,,,,,,,,,,,,,,,,,,,,,,,,,,,,,,,,,,,,,,,,,,,,,,,,,,,,,,,,,,,,,,,,,,,,,,,,,,,,,,,,,,,,,,,,,,,,,,,,,,,,,,,,,,,,,,,,,,,,,,,,,,,,,,,,,,,,
0,86,86,72,1,,6165e0b51a883e9db8cc7146,62bc08e07392ca1a086a7e01,2022-06-29_10h10.55.990,Colour_Asymmetry_Pilot,2022.1.3,Win32,60.0024001,62bbe60bf3d75ef465d3e404,,,,,,,,,,,,,,,,,,,,,,,,,,,,,,,,,,,,,,,,,,,,,,,,,,,,,,,,,,,,,,,,,,,,,,,,,,,,,,,,,,,,,,,,,,,,,,,,,,,,,,,,,,,,,,,,,,,,,,,,,,,,,,,,,,,,,,,,,,,,,,,,,,,,,,,,,,,,,,
0,87,87,84,1,,6165e0b51a883e9db8cc7146,62bc08e07392ca1a086a7e01,2022-06-29_10h10.55.990,Colour_Asymmetry_Pilot,2022.1.3,Win32,60.0024001,62bbe60bf3d75ef465d3e404,,,,,,,,,,,,,,,,,,,,,,,,,,,,,,,,,,,,,,,,,,,,,,,,,,,,,,,,,,,,,,,,,,,,,,,,,,,,,,,,,,,,,,,,,,,,,,,,,,,,,,,,,,,,,,,,,,,,,,,,,,,,,,,,,,,,,,,,,,,,,,,,,,,,,,,,,,,,,,
0,88,88,29,1,,6165e0b51a883e9db8cc7146,62bc08e07392ca1a086a7e01,2022-06-29_10h10.55.990,Colour_Asymmetry_Pilot,2022.1.3,Win32,60.0024001,62bbe60bf3d75ef465d3e404,,,,,,,,,,,,,,,,,,,,,,,,,,,,,,,,,,,,,,,,,,,,,,,,,,,,,,,,,,,,,,,,,,,,,,,,,,,,,,,,,,,,,,,,,,,,,,,,,,,,,,,,,,,,,,,,,,,,,,,,,,,,,,,,,,,,,,,,,,,,,,,,,,,,,,,,,,,,,,
0,89,89,40,1,,6165e0b51a883e9db8cc7146,62bc08e07392ca1a086a7e01,2022-06-29_10h10.55.990,Colour_Asymmetry_Pilot,2022.1.3,Win32,60.0024001,62bbe60bf3d75ef465d3e404,,,,,,,,,,,,,,,,,,,,,,,,,,,,,,,,,,,,,,,,,,,,,,,,,,,,,,,,,,,,,,,,,,,,,,,,,,,,,,,,,,,,,,,,,,,,,,,,,,,,,,,,,,,,,,,,,,,,,,,,,,,,,,,,,,,,,,,,,,,,,,,,,,,,,,,,,,,,,,
0,90,90,73,1,,6165e0b51a883e9db8cc7146,62bc08e07392ca1a086a7e01,2022-06-29_10h10.55.990,Colour_Asymmetry_Pilot,2022.1.3,Win32,60.0024001,62bbe60bf3d75ef465d3e404,,,,,,,,,,,,,,,,,,,,,,,,,,,,,,,,,,,,,,,,,,,,,,,,,,,,,,,,,,,,,,,,,,,,,,,,,,,,,,,,,,,,,,,,,,,,,,,,,,,,,,,,,,,,,,,,,,,,,,,,,,,,,,,,,,,,,,,,,,,,,,,,,,,,,,,,,,,,,,
0,91,91,56,1,,6165e0b51a883e9db8cc7146,62bc08e07392ca1a086a7e01,2022-06-29_10h10.55.990,Colour_Asymmetry_Pilot,2022.1.3,Win32,60.0024001,62bbe60bf3d75ef465d3e404,,,,,,,,,,,,,,,,,,,,,,,,,,,,,,,,,,,,,,,,,,,,,,,,,,,,,,,,,,,,,,,,,,,,,,,,,,,,,,,,,,,,,,,,,,,,,,,,,,,,,,,,,,,,,,,,,,,,,,,,,,,,,,,,,,,,,,,,,,,,,,,,,,,,,,,,,,,,,,
0,92,92,2,1,,6165e0b51a883e9db8cc7146,62bc08e07392ca1a086a7e01,2022-06-29_10h10.55.990,Colour_Asymmetry_Pilot,2022.1.3,Win32,60.0024001,62bbe60bf3d75ef465d3e404,,,,,,,,,,,,,,,,,,,,,,,,,,,,,,,,,,,,,,,,,,,,,,,,,,,,,,,,,,,,,,,,,,,,,,,,,,,,,,,,,,,,,,,,,,,,,,,,,,,,,,,,,,,,,,,,,,,,,,,,,,,,,,,,,,,,,,,,,,,,,,,,,,,,,,,,,,,,,,
,,,,,,6165e0b51a883e9db8cc7146,62bc08e07392ca1a086a7e01,2022-06-29_10h10.55.990,Colour_Asymmetry_Pilot,2022.1.3,Win32,60.0024001,62bbe60bf3d75ef465d3e404,0,0,0,62,1,fourtwo,,,,,,,,,,,,,,,,,,,,,,,,,,,,,,,,,,,,,,,,,,,,,,,,,,,,,,,,,,,,,,,,,,,,,,,,,,,,,,,,,,,,,,,,,,,,,,,,,,,,,,,,,,,,,,,,,,,,,,,,,,,,,,,,,,,,,,,,,,,,,,,,,,,,,,,,
,,,,,,6165e0b51a883e9db8cc7146,62bc08e07392ca1a086a7e01,2022-06-29_10h10.55.990,Colour_Asymmetry_Pilot,2022.1.3,Win32,60.0024001,62bbe60bf3d75ef465d3e404,0,1,1,140,1,threeone,,,,,,,,,,,,,,,,,,,,,,,,,,,,,,,,,,,,,,,,,,,,,,,,,,,,,,,,,,,,,,,,,,,,,,,,,,,,,,,,,,,,,,,,,,,,,,,,,,,,,,,,,,,,,,,,,,,,,,,,,,,,,,,,,,,,,,,,,,,,,,,,,,,,,,,,
,,,,,,6165e0b51a883e9db8cc7146,62bc08e07392ca1a086a7e01,2022-06-29_10h10.55.990,Colour_Asymmetry_Pilot,2022.1.3,Win32,60.0024001,62bbe60bf3d75ef465d3e404,0,2,2,134,1,fourtwo,,,,,,,,,,,,,,,,,,,,,,,,,,,,,,,,,,,,,,,,,,,,,,,,,,,,,,,,,,,,,,,,,,,,,,,,,,,,,,,,,,,,,,,,,,,,,,,,,,,,,,,,,,,,,,,,,,,,,,,,,,,,,,,,,,,,,,,,,,,,,,,,,,,,,,,,
,,,,,,6165e0b51a883e9db8cc7146,62bc08e07392ca1a086a7e01,2022-06-29_10h10.55.990,Colour_Asymmetry_Pilot,2022.1.3,Win32,60.0024001,62bbe60bf3d75ef465d3e404,0,3,3,119,1,fourthree,,,,,,,,,,,,,,,,,,,,,,,,,,,,,,,,,,,,,,,,,,,,,,,,,,,,,,,,,,,,,,,,,,,,,,,,,,,,,,,,,,,,,,,,,,,,,,,,,,,,,,,,,,,,,,,,,,,,,,,,,,,,,,,,,,,,,,,,,,,,,,,,,,,,,,,,
,,,,,,6165e0b51a883e9db8cc7146,62bc08e07392ca1a086a7e01,2022-06-29_10h10.55.990,Colour_Asymmetry_Pilot,2022.1.3,Win32,60.0024001,62bbe60bf3d75ef465d3e404,0,4,4,150,1,fourtwo,,,,,,,,,,,,,,,,,,,,,,,,,,,,,,,,,,,,,,,,,,,,,,,,,,,,,,,,,,,,,,,,,,,,,,,,,,,,,,,,,,,,,,,,,,,,,,,,,,,,,,,,,,,,,,,,,,,,,,,,,,,,,,,,,,,,,,,,,,,,,,,,,,,,,,,,
,,,,,,6165e0b51a883e9db8cc7146,62bc08e07392ca1a086a7e01,2022-06-29_10h10.55.990,Colour_Asymmetry_Pilot,2022.1.3,Win32,60.0024001,62bbe60bf3d75ef465d3e404,0,5,5,26,1,twoone,,,,,,,,,,,,,,,,,,,,,,,,,,,,,,,,,,,,,,,,,,,,,,,,,,,,,,,,,,,,,,,,,,,,,,,,,,,,,,,,,,,,,,,,,,,,,,,,,,,,,,,,,,,,,,,,,,,,,,,,,,,,,,,,,,,,,,,,,,,,,,,,,,,,,,,,
,,,,,,6165e0b51a883e9db8cc7146,62bc08e07392ca1a086a7e01,2022-06-29_10h10.55.990,Colour_Asymmetry_Pilot,2022.1.3,Win32,60.0024001,62bbe60bf3d75ef465d3e404,0,6,6,113,1,onethree,,,,,,,,,,,,,,,,,,,,,,,,,,,,,,,,,,,,,,,,,,,,,,,,,,,,,,,,,,,,,,,,,,,,,,,,,,,,,,,,,,,,,,,,,,,,,,,,,,,,,,,,,,,,,,,,,,,,,,,,,,,,,,,,,,,,,,,,,,,,,,,,,,,,,,,,
,,,,,,6165e0b51a883e9db8cc7146,62bc08e07392ca1a086a7e01,2022-06-29_10h10.55.990,Colour_Asymmetry_Pilot,2022.1.3,Win32,60.0024001,62bbe60bf3d75ef465d3e404,0,7,7,146,1,twoone,,,,,,,,,,,,,,,,,,,,,,,,,,,,,,,,,,,,,,,,,,,,,,,,,,,,,,,,,,,,,,,,,,,,,,,,,,,,,,,,,,,,,,,,,,,,,,,,,,,,,,,,,,,,,,,,,,,,,,,,,,,,,,,,,,,,,,,,,,,,,,,,,,,,,,,,
,,,,,,6165e0b51a883e9db8cc7146,62bc08e07392ca1a086a7e01,2022-06-29_10h10.55.990,Colour_Asymmetry_Pilot,2022.1.3,Win32,60.0024001,62bbe60bf3d75ef465d3e404,0,8,8,107,1,twofour,,,,,,,,,,,,,,,,,,,,,,,,,,,,,,,,,,,,,,,,,,,,,,,,,,,,,,,,,,,,,,,,,,,,,,,,,,,,,,,,,,,,,,,,,,,,,,,,,,,,,,,,,,,,,,,,,,,,,,,,,,,,,,,,,,,,,,,,,,,,,,,,,,,,,,,,
,,,,,,6165e0b51a883e9db8cc7146,62bc08e07392ca1a086a7e01,2022-06-29_10h10.55.990,Colour_Asymmetry_Pilot,2022.1.3,Win32,60.0024001,62bbe60bf3d75ef465d3e404,0,9,9,12,1,threeone,,,,,,,,,,,,,,,,,,,,,,,,,,,,,,,,,,,,,,,,,,,,,,,,,,,,,,,,,,,,,,,,,,,,,,,,,,,,,,,,,,,,,,,,,,,,,,,,,,,,,,,,,,,,,,,,,,,,,,,,,,,,,,,,,,,,,,,,,,,,,,,,,,,,,,,,
,,,,,,6165e0b51a883e9db8cc7146,62bc08e07392ca1a086a7e01,2022-06-29_10h10.55.990,Colour_Asymmetry_Pilot,2022.1.3,Win32,60.0024001,62bbe60bf3d75ef465d3e404,0,10,10,55,1,fourthree,,,,,,,,,,,,,,,,,,,,,,,,,,,,,,,,,,,,,,,,,,,,,,,,,,,,,,,,,,,,,,,,,,,,,,,,,,,,,,,,,,,,,,,,,,,,,,,,,,,,,,,,,,,,,,,,,,,,,,,,,,,,,,,,,,,,,,,,,,,,,,,,,,,,,,,,
,,,,,,6165e0b51a883e9db8cc7146,62bc08e07392ca1a086a7e01,2022-06-29_10h10.55.990,Colour_Asymmetry_Pilot,2022.1.3,Win32,60.0024001,62bbe60bf3d75ef465d3e404,0,11,11,71,1,fourthree,,,,,,,,,,,,,,,,,,,,,,,,,,,,,,,,,,,,,,,,,,,,,,,,,,,,,,,,,,,,,,,,,,,,,,,,,,,,,,,,,,,,,,,,,,,,,,,,,,,,,,,,,,,,,,,,,,,,,,,,,,,,,,,,,,,,,,,,,,,,,,,,,,,,,,,,
,,,,,,6165e0b51a883e9db8cc7146,62bc08e07392ca1a086a7e01,2022-06-29_10h10.55.990,Colour_Asymmetry_Pilot,2022.1.3,Win32,60.0024001,62bbe60bf3d75ef465d3e404,0,12,12,118,1,fourtwo,,,,,,,,,,,,,,,,,,,,,,,,,,,,,,,,,,,,,,,,,,,,,,,,,,,,,,,,,,,,,,,,,,,,,,,,,,,,,,,,,,,,,,,,,,,,,,,,,,,,,,,,,,,,,,,,,,,,,,,,,,,,,,,,,,,,,,,,,,,,,,,,,,,,,,,,
,,,,,,6165e0b51a883e9db8cc7146,62bc08e07392ca1a086a7e01,2022-06-29_10h10.55.990,Colour_Asymmetry_Pilot,2022.1.3,Win32,60.0024001,62bbe60bf3d75ef465d3e404,0,13,13,98,1,twoone,,,,,,,,,,,,,,,,,,,,,,,,,,,,,,,,,,,,,,,,,,,,,,,,,,,,,,,,,,,,,,,,,,,,,,,,,,,,,,,,,,,,,,,,,,,,,,,,,,,,,,,,,,,,,,,,,,,,,,,,,,,,,,,,,,,,,,,,,,,,,,,,,,,,,,,,
,,,,,,6165e0b51a883e9db8cc7146,62bc08e07392ca1a086a7e01,2022-06-29_10h10.55.990,Colour_Asymmetry_Pilot,2022.1.3,Win32,60.0024001,62bbe60bf3d75ef465d3e404,0,14,14,64,1,onetwo,,,,,,,,,,,,,,,,,,,,,,,,,,,,,,,,,,,,,,,,,,,,,,,,,,,,,,,,,,,,,,,,,,,,,,,,,,,,,,,,,,,,,,,,,,,,,,,,,,,,,,,,,,,,,,,,,,,,,,,,,,,,,,,,,,,,,,,,,,,,,,,,,,,,,,,,
,,,,,,6165e0b51a883e9db8cc7146,62bc08e07392ca1a086a7e01,2022-06-29_10h10.55.990,Colour_Asymmetry_Pilot,2022.1.3,Win32,60.0024001,62bbe60bf3d75ef465d3e404,0,15,15,44,1,threeone,,,,,,,,,,,,,,,,,,,,,,,,,,,,,,,,,,,,,,,,,,,,,,,,,,,,,,,,,,,,,,,,,,,,,,,,,,,,,,,,,,,,,,,,,,,,,,,,,,,,,,,,,,,,,,,,,,,,,,,,,,,,,,,,,,,,,,,,,,,,,,,,,,,,,,,,
,,,,,,6165e0b51a883e9db8cc7146,62bc08e07392ca1a086a7e01,2022-06-29_10h10.55.990,Colour_Asymmetry_Pilot,2022.1.3,Win32,60.0024001,62bbe60bf3d75ef465d3e404,0,16,16,120,1,onetwo,,,,,,,,,,,,,,,,,,,,,,,,,,,,,,,,,,,,,,,,,,,,,,,,,,,,,,,,,,,,,,,,,,,,,,,,,,,,,,,,,,,,,,,,,,,,,,,,,,,,,,,,,,,,,,,,,,,,,,,,,,,,,,,,,,,,,,,,,,,,,,,,,,,,,,,,
,,,,,,6165e0b51a883e9db8cc7146,62bc08e07392ca1a086a7e01,2022-06-29_10h10.55.990,Colour_Asymmetry_Pilot,2022.1.3,Win32,60.0024001,62bbe60bf3d75ef465d3e404,0,17,17,88,1,onetwo,,,,,,,,,,,,,,,,,,,,,,,,,,,,,,,,,,,,,,,,,,,,,,,,,,,,,,,,,,,,,,,,,,,,,,,,,,,,,,,,,,,,,,,,,,,,,,,,,,,,,,,,,,,,,,,,,,,,,,,,,,,,,,,,,,,,,,,,,,,,,,,,,,,,,,,,
,,,,,,6165e0b51a883e9db8cc7146,62bc08e07392ca1a086a7e01,2022-06-29_10h10.55.990,Colour_Asymmetry_Pilot,2022.1.3,Win32,60.0024001,62bbe60bf3d75ef465d3e404,0,18,18,154,1,twoone,,,,,,,,,,,,,,,,,,,,,,,,,,,,,,,,,,,,,,,,,,,,,,,,,,,,,,,,,,,,,,,,,,,,,,,,,,,,,,,,,,,,,,,,,,,,,,,,,,,,,,,,,,,,,,,,,,,,,,,,,,,,,,,,,,,,,,,,,,,,,,,,,,,,,,,,
,,,,,,6165e0b51a883e9db8cc7146,62bc08e07392ca1a086a7e01,2022-06-29_10h10.55.990,Colour_Asymmetry_Pilot,2022.1.3,Win32,60.0024001,62bbe60bf3d75ef465d3e404,0,19,19,6,1,fourtwo,,,,,,,,,,,,,,,,,,,,,,,,,,,,,,,,,,,,,,,,,,,,,,,,,,,,,,,,,,,,,,,,,,,,,,,,,,,,,,,,,,,,,,,,,,,,,,,,,,,,,,,,,,,,,,,,,,,,,,,,,,,,,,,,,,,,,,,,,,,,,,,,,,,,,,,,
,,,,,,6165e0b51a883e9db8cc7146,62bc08e07392ca1a086a7e01,2022-06-29_10h10.55.990,Colour_Asymmetry_Pilot,2022.1.3,Win32,60.0024001,62bbe60bf3d75ef465d3e404,0,20,20,144,1,onetwo,,,,,,,,,,,,,,,,,,,,,,,,,,,,,,,,,,,,,,,,,,,,,,,,,,,,,,,,,,,,,,,,,,,,,,,,,,,,,,,,,,,,,,,,,,,,,,,,,,,,,,,,,,,,,,,,,,,,,,,,,,,,,,,,,,,,,,,,,,,,,,,,,,,,,,,,
,,,,,,6165e0b51a883e9db8cc7146,62bc08e07392ca1a086a7e01,2022-06-29_10h10.55.990,Colour_Asymmetry_Pilot,2022.1.3,Win32,60.0024001,62bbe60bf3d75ef465d3e404,0,21,21,52,1,threeone,,,,,,,,,,,,,,,,,,,,,,,,,,,,,,,,,,,,,,,,,,,,,,,,,,,,,,,,,,,,,,,,,,,,,,,,,,,,,,,,,,,,,,,,,,,,,,,,,,,,,,,,,,,,,,,,,,,,,,,,,,,,,,,,,,,,,,,,,,,,,,,,,,,,,,,,
,,,,,,6165e0b51a883e9db8cc7146,62bc08e07392ca1a086a7e01,2022-06-29_10h10.55.990,Colour_Asymmetry_Pilot,2022.1.3,Win32,60.0024001,62bbe60bf3d75ef465d3e404,0,22,22,74,1,twoone,,,,,,,,,,,,,,,,,,,,,,,,,,,,,,,,,,,,,,,,,,,,,,,,,,,,,,,,,,,,,,,,,,,,,,,,,,,,,,,,,,,,,,,,,,,,,,,,,,,,,,,,,,,,,,,,,,,,,,,,,,,,,,,,,,,,,,,,,,,,,,,,,,,,,,,,
,,,,,,6165e0b51a883e9db8cc7146,62bc08e07392ca1a086a7e01,2022-06-29_10h10.55.990,Colour_Asymmetry_Pilot,2022.1.3,Win32,60.0024001,62bbe60bf3d75ef465d3e404,0,23,23,105,1,onethree,,,,,,,,,,,,,,,,,,,,,,,,,,,,,,,,,,,,,,,,,,,,,,,,,,,,,,,,,,,,,,,,,,,,,,,,,,,,,,,,,,,,,,,,,,,,,,,,,,,,,,,,,,,,,,,,,,,,,,,,,,,,,,,,,,,,,,,,,,,,,,,,,,,,,,,,
,,,,,,6165e0b51a883e9db8cc7146,62bc08e07392ca1a086a7e01,2022-06-29_10h10.55.990,Colour_Asymmetry_Pilot,2022.1.3,Win32,60.0024001,62bbe60bf3d75ef465d3e404,0,24,24,151,1,fourthree,,,,,,,,,,,,,,,,,,,,,,,,,,,,,,,,,,,,,,,,,,,,,,,,,,,,,,,,,,,,,,,,,,,,,,,,,,,,,,,,,,,,,,,,,,,,,,,,,,,,,,,,,,,,,,,,,,,,,,,,,,,,,,,,,,,,,,,,,,,,,,,,,,,,,,,,
,,,,,,6165e0b51a883e9db8cc7146,62bc08e07392ca1a086a7e01,2022-06-29_10h10.55.990,Colour_Asymmetry_Pilot,2022.1.3,Win32,60.0024001,62bbe60bf3d75ef465d3e404,0,25,25,11,1,twofour,,,,,,,,,,,,,,,,,,,,,,,,,,,,,,,,,,,,,,,,,,,,,,,,,,,,,,,,,,,,,,,,,,,,,,,,,,,,,,,,,,,,,,,,,,,,,,,,,,,,,,,,,,,,,,,,,,,,,,,,,,,,,,,,,,,,,,,,,,,,,,,,,,,,,,,,
,,,,,,6165e0b51a883e9db8cc7146,62bc08e07392ca1a086a7e01,2022-06-29_10h10.55.990,Colour_Asymmetry_Pilot,2022.1.3,Win32,60.0024001,62bbe60bf3d75ef465d3e404,0,26,26,139,1,twofour,,,,,,,,,,,,,,,,,,,,,,,,,,,,,,,,,,,,,,,,,,,,,,,,,,,,,,,,,,,,,,,,,,,,,,,,,,,,,,,,,,,,,,,,,,,,,,,,,,,,,,,,,,,,,,,,,,,,,,,,,,,,,,,,,,,,,,,,,,,,,,,,,,,,,,,,
,,,,,,6165e0b51a883e9db8cc7146,62bc08e07392ca1a086a7e01,2022-06-29_10h10.55.990,Colour_Asymmetry_Pilot,2022.1.3,Win32,60.0024001,62bbe60bf3d75ef465d3e404,0,27,27,123,1,twofour,,,,,,,,,,,,,,,,,,,,,,,,,,,,,,,,,,,,,,,,,,,,,,,,,,,,,,,,,,,,,,,,,,,,,,,,,,,,,,,,,,,,,,,,,,,,,,,,,,,,,,,,,,,,,,,,,,,,,,,,,,,,,,,,,,,,,,,,,,,,,,,,,,,,,,,,
,,,,,,6165e0b51a883e9db8cc7146,62bc08e07392ca1a086a7e01,2022-06-29_10h10.55.990,Colour_Asymmetry_Pilot,2022.1.3,Win32,60.0024001,62bbe60bf3d75ef465d3e404,0,28,28,24,1,onetwo,,,,,,,,,,,,,,,,,,,,,,,,,,,,,,,,,,,,,,,,,,,,,,,,,,,,,,,,,,,,,,,,,,,,,,,,,,,,,,,,,,,,,,,,,,,,,,,,,,,,,,,,,,,,,,,,,,,,,,,,,,,,,,,,,,,,,,,,,,,,,,,,,,,,,,,,
,,,,,,6165e0b51a883e9db8cc7146,62bc08e07392ca1a086a7e01,2022-06-29_10h10.55.990,Colour_Asymmetry_Pilot,2022.1.3,Win32,60.0024001,62bbe60bf3d75ef465d3e404,0,29,29,67,1,twofour,,,,,,,,,,,,,,,,,,,,,,,,,,,,,,,,,,,,,,,,,,,,,,,,,,,,,,,,,,,,,,,,,,,,,,,,,,,,,,,,,,,,,,,,,,,,,,,,,,,,,,,,,,,,,,,,,,,,,,,,,,,,,,,,,,,,,,,,,,,,,,,,,,,,,,,,
,,,,,,6165e0b51a883e9db8cc7146,62bc08e07392ca1a086a7e01,2022-06-29_10h10.55.990,Colour_Asymmetry_Pilot,2022.1.3,Win32,60.0024001,62bbe60bf3d75ef465d3e404,0,30,30,125,1,threefour,,,,,,,,,,,,,,,,,,,,,,,,,,,,,,,,,,,,,,,,,,,,,,,,,,,,,,,,,,,,,,,,,,,,,,,,,,,,,,,,,,,,,,,,,,,,,,,,,,,,,,,,,,,,,,,,,,,,,,,,,,,,,,,,,,,,,,,,,,,,,,,,,,,,,,,,
,,,,,,6165e0b51a883e9db8cc7146,62bc08e07392ca1a086a7e01,2022-06-29_10h10.55.990,Colour_Asymmetry_Pilot,2022.1.3,Win32,60.0024001,62bbe60bf3d75ef465d3e404,0,31,31,143,1,fourthree,,,,,,,,,,,,,,,,,,,,,,,,,,,,,,,,,,,,,,,,,,,,,,,,,,,,,,,,,,,,,,,,,,,,,,,,,,,,,,,,,,,,,,,,,,,,,,,,,,,,,,,,,,,,,,,,,,,,,,,,,,,,,,,,,,,,,,,,,,,,,,,,,,,,,,,,
,,,,,,6165e0b51a883e9db8cc7146,62bc08e07392ca1a086a7e01,2022-06-29_10h10.55.990,Colour_Asymmetry_Pilot,2022.1.3,Win32,60.0024001,62bbe60bf3d75ef465d3e404,0,32,32,136,1,onetwo,,,,,,,,,,,,,,,,,,,,,,,,,,,,,,,,,,,,,,,,,,,,,,,,,,,,,,,,,,,,,,,,,,,,,,,,,,,,,,,,,,,,,,,,,,,,,,,,,,,,,,,,,,,,,,,,,,,,,,,,,,,,,,,,,,,,,,,,,,,,,,,,,,,,,,,,
,,,,,,6165e0b51a883e9db8cc7146,62bc08e07392ca1a086a7e01,2022-06-29_10h10.55.990,Colour_Asymmetry_Pilot,2022.1.3,Win32,60.0024001,62bbe60bf3d75ef465d3e404,0,33,33,109,1,threefour,,,,,,,,,,,,,,,,,,,,,,,,,,,,,,,,,,,,,,,,,,,,,,,,,,,,,,,,,,,,,,,,,,,,,,,,,,,,,,,,,,,,,,,,,,,,,,,,,,,,,,,,,,,,,,,,,,,,,,,,,,,,,,,,,,,,,,,,,,,,,,,,,,,,,,,,
,,,,,,6165e0b51a883e9db8cc7146,62bc08e07392ca1a086a7e01,2022-06-29_10h10.55.990,Colour_Asymmetry_Pilot,2022.1.3,Win32,60.0024001,62bbe60bf3d75ef465d3e404,0,34,34,15,1,fourthree,,,,,,,,,,,,,,,,,,,,,,,,,,,,,,,,,,,,,,,,,,,,,,,,,,,,,,,,,,,,,,,,,,,,,,,,,,,,,,,,,,,,,,,,,,,,,,,,,,,,,,,,,,,,,,,,,,,,,,,,,,,,,,,,,,,,,,,,,,,,,,,,,,,,,,,,
,,,,,,6165e0b51a883e9db8cc7146,62bc08e07392ca1a086a7e01,2022-06-29_10h10.55.990,Colour_Asymmetry_Pilot,2022.1.3,Win32,60.0024001,62bbe60bf3d75ef465d3e404,0,35,35,2,1,twoone,,,,,,,,,,,,,,,,,,,,,,,,,,,,,,,,,,,,,,,,,,,,,,,,,,,,,,,,,,,,,,,,,,,,,,,,,,,,,,,,,,,,,,,,,,,,,,,,,,,,,,,,,,,,,,,,,,,,,,,,,,,,,,,,,,,,,,,,,,,,,,,,,,,,,,,,
,,,,,,6165e0b51a883e9db8cc7146,62bc08e07392ca1a086a7e01,2022-06-29_10h10.55.990,Colour_Asymmetry_Pilot,2022.1.3,Win32,60.0024001,62bbe60bf3d75ef465d3e404,0,36,36,14,1,fourtwo,,,,,,,,,,,,,,,,,,,,,,,,,,,,,,,,,,,,,,,,,,,,,,,,,,,,,,,,,,,,,,,,,,,,,,,,,,,,,,,,,,,,,,,,,,,,,,,,,,,,,,,,,,,,,,,,,,,,,,,,,,,,,,,,,,,,,,,,,,,,,,,,,,,,,,,,
,,,,,,6165e0b51a883e9db8cc7146,62bc08e07392ca1a086a7e01,2022-06-29_10h10.55.990,Colour_Asymmetry_Pilot,2022.1.3,Win32,60.0024001,62bbe60bf3d75ef465d3e404,0,37,37,89,1,onethree,,,,,,,,,,,,,,,,,,,,,,,,,,,,,,,,,,,,,,,,,,,,,,,,,,,,,,,,,,,,,,,,,,,,,,,,,,,,,,,,,,,,,,,,,,,,,,,,,,,,,,,,,,,,,,,,,,,,,,,,,,,,,,,,,,,,,,,,,,,,,,,,,,,,,,,,
,,,,,,6165e0b51a883e9db8cc7146,62bc08e07392ca1a086a7e01,2022-06-29_10h10.55.990,Colour_Asymmetry_Pilot,2022.1.3,Win32,60.0024001,62bbe60bf3d75ef465d3e404,0,38,38,77,1,threefour,,,,,,,,,,,,,,,,,,,,,,,,,,,,,,,,,,,,,,,,,,,,,,,,,,,,,,,,,,,,,,,,,,,,,,,,,,,,,,,,,,,,,,,,,,,,,,,,,,,,,,,,,,,,,,,,,,,,,,,,,,,,,,,,,,,,,,,,,,,,,,,,,,,,,,,,
,,,,,,6165e0b51a883e9db8cc7146,62bc08e07392ca1a086a7e01,2022-06-29_10h10.55.990,Colour_Asymmetry_Pilot,2022.1.3,Win32,60.0024001,62bbe60bf3d75ef465d3e404,0,39,39,94,1,fourtwo,,,,,,,,,,,,,,,,,,,,,,,,,,,,,,,,,,,,,,,,,,,,,,,,,,,,,,,,,,,,,,,,,,,,,,,,,,,,,,,,,,,,,,,,,,,,,,,,,,,,,,,,,,,,,,,,,,,,,,,,,,,,,,,,,,,,,,,,,,,,,,,,,,,,,,,,
,,,,,,6165e0b51a883e9db8cc7146,62bc08e07392ca1a086a7e01,2022-06-29_10h10.55.990,Colour_Asymmetry_Pilot,2022.1.3,Win32,60.0024001,62bbe60bf3d75ef465d3e404,0,40,40,112,1,onetwo,,,,,,,,,,,,,,,,,,,,,,,,,,,,,,,,,,,,,,,,,,,,,,,,,,,,,,,,,,,,,,,,,,,,,,,,,,,,,,,,,,,,,,,,,,,,,,,,,,,,,,,,,,,,,,,,,,,,,,,,,,,,,,,,,,,,,,,,,,,,,,,,,,,,,,,,
,,,,,,6165e0b51a883e9db8cc7146,62bc08e07392ca1a086a7e01,2022-06-29_10h10.55.990,Colour_Asymmetry_Pilot,2022.1.3,Win32,60.0024001,62bbe60bf3d75ef465d3e404,0,41,41,99,1,twofour,,,,,,,,,,,,,,,,,,,,,,,,,,,,,,,,,,,,,,,,,,,,,,,,,,,,,,,,,,,,,,,,,,,,,,,,,,,,,,,,,,,,,,,,,,,,,,,,,,,,,,,,,,,,,,,,,,,,,,,,,,,,,,,,,,,,,,,,,,,,,,,,,,,,,,,,
,,,,,,6165e0b51a883e9db8cc7146,62bc08e07392ca1a086a7e01,2022-06-29_10h10.55.990,Colour_Asymmetry_Pilot,2022.1.3,Win32,60.0024001,62bbe60bf3d75ef465d3e404,0,42,42,133,1,threefour,,,,,,,,,,,,,,,,,,,,,,,,,,,,,,,,,,,,,,,,,,,,,,,,,,,,,,,,,,,,,,,,,,,,,,,,,,,,,,,,,,,,,,,,,,,,,,,,,,,,,,,,,,,,,,,,,,,,,,,,,,,,,,,,,,,,,,,,,,,,,,,,,,,,,,,,
,,,,,,6165e0b51a883e9db8cc7146,62bc08e07392ca1a086a7e01,2022-06-29_10h10.55.990,Colour_Asymmetry_Pilot,2022.1.3,Win32,60.0024001,62bbe60bf3d75ef465d3e404,0,43,43,38,1,fourtwo,,,,,,,,,,,,,,,,,,,,,,,,,,,,,,,,,,,,,,,,,,,,,,,,,,,,,,,,,,,,,,,,,,,,,,,,,,,,,,,,,,,,,,,,,,,,,,,,,,,,,,,,,,,,,,,,,,,,,,,,,,,,,,,,,,,,,,,,,,,,,,,,,,,,,,,,
,,,,,,6165e0b51a883e9db8cc7146,62bc08e07392ca1a086a7e01,2022-06-29_10h10.55.990,Colour_Asymmetry_Pilot,2022.1.3,Win32,60.0024001,62bbe60bf3d75ef465d3e404,0,44,44,81,1,onethree,,,,,,,,,,,,,,,,,,,,,,,,,,,,,,,,,,,,,,,,,,,,,,,,,,,,,,,,,,,,,,,,,,,,,,,,,,,,,,,,,,,,,,,,,,,,,,,,,,,,,,,,,,,,,,,,,,,,,,,,,,,,,,,,,,,,,,,,,,,,,,,,,,,,,,,,
,,,,,,6165e0b51a883e9db8cc7146,62bc08e07392ca1a086a7e01,2022-06-29_10h10.55.990,Colour_Asymmetry_Pilot,2022.1.3,Win32,60.0024001,62bbe60bf3d75ef465d3e404,0,45,45,47,1,fourthree,,,,,,,,,,,,,,,,,,,,,,,,,,,,,,,,,,,,,,,,,,,,,,,,,,,,,,,,,,,,,,,,,,,,,,,,,,,,,,,,,,,,,,,,,,,,,,,,,,,,,,,,,,,,,,,,,,,,,,,,,,,,,,,,,,,,,,,,,,,,,,,,,,,,,,,,
,,,,,,6165e0b51a883e9db8cc7146,62bc08e07392ca1a086a7e01,2022-06-29_10h10.55.990,Colour_Asymmetry_Pilot,2022.1.3,Win32,60.0024001,62bbe60bf3d75ef465d3e404,0,46,46,83,1,twofour,,,,,,,,,,,,,,,,,,,,,,,,,,,,,,,,,,,,,,,,,,,,,,,,,,,,,,,,,,,,,,,,,,,,,,,,,,,,,,,,,,,,,,,,,,,,,,,,,,,,,,,,,,,,,,,,,,,,,,,,,,,,,,,,,,,,,,,,,,,,,,,,,,,,,,,,
,,,,,,6165e0b51a883e9db8cc7146,62bc08e07392ca1a086a7e01,2022-06-29_10h10.55.990,Colour_Asymmetry_Pilot,2022.1.3,Win32,60.0024001,62bbe60bf3d75ef465d3e404,0,47,47,46,1,fourtwo,,,,,,,,,,,,,,,,,,,,,,,,,,,,,,,,,,,,,,,,,,,,,,,,,,,,,,,,,,,,,,,,,,,,,,,,,,,,,,,,,,,,,,,,,,,,,,,,,,,,,,,,,,,,,,,,,,,,,,,,,,,,,,,,,,,,,,,,,,,,,,,,,,,,,,,,
,,,,,,6165e0b51a883e9db8cc7146,62bc08e07392ca1a086a7e01,2022-06-29_10h10.55.990,Colour_Asymmetry_Pilot,2022.1.3,Win32,60.0024001,62bbe60bf3d75ef465d3e404,0,48,48,155,1,twofour,,,,,,,,,,,,,,,,,,,,,,,,,,,,,,,,,,,,,,,,,,,,,,,,,,,,,,,,,,,,,,,,,,,,,,,,,,,,,,,,,,,,,,,,,,,,,,,,,,,,,,,,,,,,,,,,,,,,,,,,,,,,,,,,,,,,,,,,,,,,,,,,,,,,,,,,
,,,,,,6165e0b51a883e9db8cc7146,62bc08e07392ca1a086a7e01,2022-06-29_10h10.55.990,Colour_Asymmetry_Pilot,2022.1.3,Win32,60.0024001,62bbe60bf3d75ef465d3e404,0,49,49,100,1,threeone,,,,,,,,,,,,,,,,,,,,,,,,,,,,,,,,,,,,,,,,,,,,,,,,,,,,,,,,,,,,,,,,,,,,,,,,,,,,,,,,,,,,,,,,,,,,,,,,,,,,,,,,,,,,,,,,,,,,,,,,,,,,,,,,,,,,,,,,,,,,,,,,,,,,,,,,
,,,,,,6165e0b51a883e9db8cc7146,62bc08e07392ca1a086a7e01,2022-06-29_10h10.55.990,Colour_Asymmetry_Pilot,2022.1.3,Win32,60.0024001,62bbe60bf3d75ef465d3e404,0,50,50,9,1,onethree,,,,,,,,,,,,,,,,,,,,,,,,,,,,,,,,,,,,,,,,,,,,,,,,,,,,,,,,,,,,,,,,,,,,,,,,,,,,,,,,,,,,,,,,,,,,,,,,,,,,,,,,,,,,,,,,,,,,,,,,,,,,,,,,,,,,,,,,,,,,,,,,,,,,,,,,
,,,,,,6165e0b51a883e9db8cc7146,62bc08e07392ca1a086a7e01,2022-06-29_10h10.55.990,Colour_Asymmetry_Pilot,2022.1.3,Win32,60.0024001,62bbe60bf3d75ef465d3e404,0,51,51,161,1,onethree,,,,,,,,,,,,,,,,,,,,,,,,,,,,,,,,,,,,,,,,,,,,,,,,,,,,,,,,,,,,,,,,,,,,,,,,,,,,,,,,,,,,,,,,,,,,,,,,,,,,,,,,,,,,,,,,,,,,,,,,,,,,,,,,,,,,,,,,,,,,,,,,,,,,,,,,
,,,,,,6165e0b51a883e9db8cc7146,62bc08e07392ca1a086a7e01,2022-06-29_10h10.55.990,Colour_Asymmetry_Pilot,2022.1.3,Win32,60.0024001,62bbe60bf3d75ef465d3e404,0,52,52,138,1,twoone,,,,,,,,,,,,,,,,,,,,,,,,,,,,,,,,,,,,,,,,,,,,,,,,,,,,,,,,,,,,,,,,,,,,,,,,,,,,,,,,,,,,,,,,,,,,,,,,,,,,,,,,,,,,,,,,,,,,,,,,,,,,,,,,,,,,,,,,,,,,,,,,,,,,,,,,
,,,,,,6165e0b51a883e9db8cc7146,62bc08e07392ca1a086a7e01,2022-06-29_10h10.55.990,Colour_Asymmetry_Pilot,2022.1.3,Win32,60.0024001,62bbe60bf3d75ef465d3e404,0,53,53,124,1,threeone,,,,,,,,,,,,,,,,,,,,,,,,,,,,,,,,,,,,,,,,,,,,,,,,,,,,,,,,,,,,,,,,,,,,,,,,,,,,,,,,,,,,,,,,,,,,,,,,,,,,,,,,,,,,,,,,,,,,,,,,,,,,,,,,,,,,,,,,,,,,,,,,,,,,,,,,
,,,,,,6165e0b51a883e9db8cc7146,62bc08e07392ca1a086a7e01,2022-06-29_10h10.55.990,Colour_Asymmetry_Pilot,2022.1.3,Win32,60.0024001,62bbe60bf3d75ef465d3e404,0,54,54,72,1,onetwo,,,,,,,,,,,,,,,,,,,,,,,,,,,,,,,,,,,,,,,,,,,,,,,,,,,,,,,,,,,,,,,,,,,,,,,,,,,,,,,,,,,,,,,,,,,,,,,,,,,,,,,,,,,,,,,,,,,,,,,,,,,,,,,,,,,,,,,,,,,,,,,,,,,,,,,,
,,,,,,6165e0b51a883e9db8cc7146,62bc08e07392ca1a086a7e01,2022-06-29_10h10.55.990,Colour_Asymmetry_Pilot,2022.1.3,Win32,60.0024001,62bbe60bf3d75ef465d3e404,0,55,55,17,1,onethree,,,,,,,,,,,,,,,,,,,,,,,,,,,,,,,,,,,,,,,,,,,,,,,,,,,,,,,,,,,,,,,,,,,,,,,,,,,,,,,,,,,,,,,,,,,,,,,,,,,,,,,,,,,,,,,,,,,,,,,,,,,,,,,,,,,,,,,,,,,,,,,,,,,,,,,,
,,,,,,6165e0b51a883e9db8cc7146,62bc08e07392ca1a086a7e01,2022-06-29_10h10.55.990,Colour_Asymmetry_Pilot,2022.1.3,Win32,60.0024001,62bbe60bf3d75ef465d3e404,0,56,56,115,1,twofour,,,,,,,,,,,,,,,,,,,,,,,,,,,,,,,,,,,,,,,,,,,,,,,,,,,,,,,,,,,,,,,,,,,,,,,,,,,,,,,,,,,,,,,,,,,,,,,,,,,,,,,,,,,,,,,,,,,,,,,,,,,,,,,,,,,,,,,,,,,,,,,,,,,,,,,,
,,,,,,6165e0b51a883e9db8cc7146,62bc08e07392ca1a086a7e01,2022-06-29_10h10.55.990,Colour_Asymmetry_Pilot,2022.1.3,Win32,60.0024001,62bbe60bf3d75ef465d3e404,0,57,57,76,1,threeone,,,,,,,,,,,,,,,,,,,,,,,,,,,,,,,,,,,,,,,,,,,,,,,,,,,,,,,,,,,,,,,,,,,,,,,,,,,,,,,,,,,,,,,,,,,,,,,,,,,,,,,,,,,,,,,,,,,,,,,,,,,,,,,,,,,,,,,,,,,,,,,,,,,,,,,,
,,,,,,6165e0b51a883e9db8cc7146,62bc08e07392ca1a086a7e01,2022-06-29_10h10.55.990,Colour_Asymmetry_Pilot,2022.1.3,Win32,60.0024001,62bbe60bf3d75ef465d3e404,0,58,58,137,1,onethree,,,,,,,,,,,,,,,,,,,,,,,,,,,,,,,,,,,,,,,,,,,,,,,,,,,,,,,,,,,,,,,,,,,,,,,,,,,,,,,,,,,,,,,,,,,,,,,,,,,,,,,,,,,,,,,,,,,,,,,,,,,,,,,,,,,,,,,,,,,,,,,,,,,,,,,,
,,,,,,6165e0b51a883e9db8cc7146,62bc08e07392ca1a086a7e01,2022-06-29_10h10.55.990,Colour_Asymmetry_Pilot,2022.1.3,Win32,60.0024001,62bbe60bf3d75ef465d3e404,0,59,59,53,1,threefour,,,,,,,,,,,,,,,,,,,,,,,,,,,,,,,,,,,,,,,,,,,,,,,,,,,,,,,,,,,,,,,,,,,,,,,,,,,,,,,,,,,,,,,,,,,,,,,,,,,,,,,,,,,,,,,,,,,,,,,,,,,,,,,,,,,,,,,,,,,,,,,,,,,,,,,,
,,,,,,6165e0b51a883e9db8cc7146,62bc08e07392ca1a086a7e01,2022-06-29_10h10.55.990,Colour_Asymmetry_Pilot,2022.1.3,Win32,60.0024001,62bbe60bf3d75ef465d3e404,0,60,60,160,1,onetwo,,,,,,,,,,,,,,,,,,,,,,,,,,,,,,,,,,,,,,,,,,,,,,,,,,,,,,,,,,,,,,,,,,,,,,,,,,,,,,,,,,,,,,,,,,,,,,,,,,,,,,,,,,,,,,,,,,,,,,,,,,,,,,,,,,,,,,,,,,,,,,,,,,,,,,,,
,,,,,,6165e0b51a883e9db8cc7146,62bc08e07392ca1a086a7e01,2022-06-29_10h10.55.990,Colour_Asymmetry_Pilot,2022.1.3,Win32,60.0024001,62bbe60bf3d75ef465d3e404,0,61,61,106,1,twoone,,,,,,,,,,,,,,,,,,,,,,,,,,,,,,,,,,,,,,,,,,,,,,,,,,,,,,,,,,,,,,,,,,,,,,,,,,,,,,,,,,,,,,,,,,,,,,,,,,,,,,,,,,,,,,,,,,,,,,,,,,,,,,,,,,,,,,,,,,,,,,,,,,,,,,,,
,,,,,,6165e0b51a883e9db8cc7146,62bc08e07392ca1a086a7e01,2022-06-29_10h10.55.990,Colour_Asymmetry_Pilot,2022.1.3,Win32,60.0024001,62bbe60bf3d75ef465d3e404,0,62,62,93,1,threefour,,,,,,,,,,,,,,,,,,,,,,,,,,,,,,,,,,,,,,,,,,,,,,,,,,,,,,,,,,,,,,,,,,,,,,,,,,,,,,,,,,,,,,,,,,,,,,,,,,,,,,,,,,,,,,,,,,,,,,,,,,,,,,,,,,,,,,,,,,,,,,,,,,,,,,,,
,,,,,,6165e0b51a883e9db8cc7146,62bc08e07392ca1a086a7e01,2022-06-29_10h10.55.990,Colour_Asymmetry_Pilot,2022.1.3,Win32,60.0024001,62bbe60bf3d75ef465d3e404,0,63,63,4,1,threeone,,,,,,,,,,,,,,,,,,,,,,,,,,,,,,,,,,,,,,,,,,,,,,,,,,,,,,,,,,,,,,,,,,,,,,,,,,,,,,,,,,,,,,,,,,,,,,,,,,,,,,,,,,,,,,,,,,,,,,,,,,,,,,,,,,,,,,,,,,,,,,,,,,,,,,,,
,,,,,,6165e0b51a883e9db8cc7146,62bc08e07392ca1a086a7e01,2022-06-29_10h10.55.990,Colour_Asymmetry_Pilot,2022.1.3,Win32,60.0024001,62bbe60bf3d75ef465d3e404,0,64,64,142,1,fourtwo,,,,,,,,,,,,,,,,,,,,,,,,,,,,,,,,,,,,,,,,,,,,,,,,,,,,,,,,,,,,,,,,,,,,,,,,,,,,,,,,,,,,,,,,,,,,,,,,,,,,,,,,,,,,,,,,,,,,,,,,,,,,,,,,,,,,,,,,,,,,,,,,,,,,,,,,
,,,,,,6165e0b51a883e9db8cc7146,62bc08e07392ca1a086a7e01,2022-06-29_10h10.55.990,Colour_Asymmetry_Pilot,2022.1.3,Win32,60.0024001,62bbe60bf3d75ef465d3e404,0,65,65,48,1,onetwo,,,,,,,,,,,,,,,,,,,,,,,,,,,,,,,,,,,,,,,,,,,,,,,,,,,,,,,,,,,,,,,,,,,,,,,,,,,,,,,,,,,,,,,,,,,,,,,,,,,,,,,,,,,,,,,,,,,,,,,,,,,,,,,,,,,,,,,,,,,,,,,,,,,,,,,,
,,,,,,6165e0b51a883e9db8cc7146,62bc08e07392ca1a086a7e01,2022-06-29_10h10.55.990,Colour_Asymmetry_Pilot,2022.1.3,Win32,60.0024001,62bbe60bf3d75ef465d3e404,0,66,66,96,1,onetwo,,,,,,,,,,,,,,,,,,,,,,,,,,,,,,,,,,,,,,,,,,,,,,,,,,,,,,,,,,,,,,,,,,,,,,,,,,,,,,,,,,,,,,,,,,,,,,,,,,,,,,,,,,,,,,,,,,,,,,,,,,,,,,,,,,,,,,,,,,,,,,,,,,,,,,,,
,,,,,,6165e0b51a883e9db8cc7146,62bc08e07392ca1a086a7e01,2022-06-29_10h10.55.990,Colour_Asymmetry_Pilot,2022.1.3,Win32,60.0024001,62bbe60bf3d75ef465d3e404,0,67,67,58,1,twoone,,,,,,,,,,,,,,,,,,,,,,,,,,,,,,,,,,,,,,,,,,,,,,,,,,,,,,,,,,,,,,,,,,,,,,,,,,,,,,,,,,,,,,,,,,,,,,,,,,,,,,,,,,,,,,,,,,,,,,,,,,,,,,,,,,,,,,,,,,,,,,,,,,,,,,,,
,,,,,,6165e0b51a883e9db8cc7146,62bc08e07392ca1a086a7e01,2022-06-29_10h10.55.990,Colour_Asymmetry_Pilot,2022.1.3,Win32,60.0024001,62bbe60bf3d75ef465d3e404,0,68,68,1,1,onethree,,,,,,,,,,,,,,,,,,,,,,,,,,,,,,,,,,,,,,,,,,,,,,,,,,,,,,,,,,,,,,,,,,,,,,,,,,,,,,,,,,,,,,,,,,,,,,,,,,,,,,,,,,,,,,,,,,,,,,,,,,,,,,,,,,,,,,,,,,,,,,,,,,,,,,,,
,,,,,,6165e0b51a883e9db8cc7146,62bc08e07392ca1a086a7e01,2022-06-29_10h10.55.990,Colour_Asymmetry_Pilot,2022.1.3,Win32,60.0024001,62bbe60bf3d75ef465d3e404,0,69,69,20,1,threeone,,,,,,,,,,,,,,,,,,,,,,,,,,,,,,,,,,,,,,,,,,,,,,,,,,,,,,,,,,,,,,,,,,,,,,,,,,,,,,,,,,,,,,,,,,,,,,,,,,,,,,,,,,,,,,,,,,,,,,,,,,,,,,,,,,,,,,,,,,,,,,,,,,,,,,,,
,,,,,,6165e0b51a883e9db8cc7146,62bc08e07392ca1a086a7e01,2022-06-29_10h10.55.990,Colour_Asymmetry_Pilot,2022.1.3,Win32,60.0024001,62bbe60bf3d75ef465d3e404,0,70,70,145,1,onethree,,,,,,,,,,,,,,,,,,,,,,,,,,,,,,,,,,,,,,,,,,,,,,,,,,,,,,,,,,,,,,,,,,,,,,,,,,,,,,,,,,,,,,,,,,,,,,,,,,,,,,,,,,,,,,,,,,,,,,,,,,,,,,,,,,,,,,,,,,,,,,,,,,,,,,,,
,,,,,,6165e0b51a883e9db8cc7146,62bc08e07392ca1a086a7e01,2022-06-29_10h10.55.990,Colour_Asymmetry_Pilot,2022.1.3,Win32,60.0024001,62bbe60bf3d75ef465d3e404,0,71,71,40,1,onetwo,,,,,,,,,,,,,,,,,,,,,,,,,,,,,,,,,,,,,,,,,,,,,,,,,,,,,,,,,,,,,,,,,,,,,,,,,,,,,,,,,,,,,,,,,,,,,,,,,,,,,,,,,,,,,,,,,,,,,,,,,,,,,,,,,,,,,,,,,,,,,,,,,,,,,,,,
,,,,,,6165e0b51a883e9db8cc7146,62bc08e07392ca1a086a7e01,2022-06-29_10h10.55.990,Colour_Asymmetry_Pilot,2022.1.3,Win32,60.0024001,62bbe60bf3d75ef465d3e404,0,72,72,28,1,threeone,,,,,,,,,,,,,,,,,,,,,,,,,,,,,,,,,,,,,,,,,,,,,,,,,,,,,,,,,,,,,,,,,,,,,,,,,,,,,,,,,,,,,,,,,,,,,,,,,,,,,,,,,,,,,,,,,,,,,,,,,,,,,,,,,,,,,,,,,,,,,,,,,,,,,,,,
,,,,,,6165e0b51a883e9db8cc7146,62bc08e07392ca1a086a7e01,2022-06-29_10h10.55.990,Colour_Asymmetry_Pilot,2022.1.3,Win32,60.0024001,62bbe60bf3d75ef465d3e404,0,73,73,5,1,threefour,,,,,,,,,,,,,,,,,,,,,,,,,,,,,,,,,,,,,,,,,,,,,,,,,,,,,,,,,,,,,,,,,,,,,,,,,,,,,,,,,,,,,,,,,,,,,,,,,,,,,,,,,,,,,,,,,,,,,,,,,,,,,,,,,,,,,,,,,,,,,,,,,,,,,,,,
,,,,,,6165e0b51a883e9db8cc7146,62bc08e07392ca1a086a7e01,2022-06-29_10h10.55.990,Colour_Asymmetry_Pilot,2022.1.3,Win32,60.0024001,62bbe60bf3d75ef465d3e404,0,74,74,27,1,twofour,,,,,,,,,,,,,,,,,,,,,,,,,,,,,,,,,,,,,,,,,,,,,,,,,,,,,,,,,,,,,,,,,,,,,,,,,,,,,,,,,,,,,,,,,,,,,,,,,,,,,,,,,,,,,,,,,,,,,,,,,,,,,,,,,,,,,,,,,,,,,,,,,,,,,,,,
,,,,,,6165e0b51a883e9db8cc7146,62bc08e07392ca1a086a7e01,2022-06-29_10h10.55.990,Colour_Asymmetry_Pilot,2022.1.3,Win32,60.0024001,62bbe60bf3d75ef465d3e404,0,75,75,116,1,threeone,,,,,,,,,,,,,,,,,,,,,,,,,,,,,,,,,,,,,,,,,,,,,,,,,,,,,,,,,,,,,,,,,,,,,,,,,,,,,,,,,,,,,,,,,,,,,,,,,,,,,,,,,,,,,,,,,,,,,,,,,,,,,,,,,,,,,,,,,,,,,,,,,,,,,,,,
,,,,,,6165e0b51a883e9db8cc7146,62bc08e07392ca1a086a7e01,2022-06-29_10h10.55.990,Colour_Asymmetry_Pilot,2022.1.3,Win32,60.0024001,62bbe60bf3d75ef465d3e404,0,76,76,65,1,onethree,,,,,,,,,,,,,,,,,,,,,,,,,,,,,,,,,,,,,,,,,,,,,,,,,,,,,,,,,,,,,,,,,,,,,,,,,,,,,,,,,,,,,,,,,,,,,,,,,,,,,,,,,,,,,,,,,,,,,,,,,,,,,,,,,,,,,,,,,,,,,,,,,,,,,,,,
,,,,,,6165e0b51a883e9db8cc7146,62bc08e07392ca1a086a7e01,2022-06-29_10h10.55.990,Colour_Asymmetry_Pilot,2022.1.3,Win32,60.0024001,62bbe60bf3d75ef465d3e404,0,77,77,129,1,onethree,,,,,,,,,,,,,,,,,,,,,,,,,,,,,,,,,,,,,,,,,,,,,,,,,,,,,,,,,,,,,,,,,,,,,,,,,,,,,,,,,,,,,,,,,,,,,,,,,,,,,,,,,,,,,,,,,,,,,,,,,,,,,,,,,,,,,,,,,,,,,,,,,,,,,,,,
,,,,,,6165e0b51a883e9db8cc7146,62bc08e07392ca1a086a7e01,2022-06-29_10h10.55.990,Colour_Asymmetry_Pilot,2022.1.3,Win32,60.0024001,62bbe60bf3d75ef465d3e404,0,78,78,84,1,threeone,,,,,,,,,,,,,,,,,,,,,,,,,,,,,,,,,,,,,,,,,,,,,,,,,,,,,,,,,,,,,,,,,,,,,,,,,,,,,,,,,,,,,,,,,,,,,,,,,,,,,,,,,,,,,,,,,,,,,,,,,,,,,,,,,,,,,,,,,,,,,,,,,,,,,,,,
,,,,,,6165e0b51a883e9db8cc7146,62bc08e07392ca1a086a7e01,2022-06-29_10h10.55.990,Colour_Asymmetry_Pilot,2022.1.3,Win32,60.0024001,62bbe60bf3d75ef465d3e404,0,79,79,32,1,onetwo,,,,,,,,,,,,,,,,,,,,,,,,,,,,,,,,,,,,,,,,,,,,,,,,,,,,,,,,,,,,,,,,,,,,,,,,,,,,,,,,,,,,,,,,,,,,,,,,,,,,,,,,,,,,,,,,,,,,,,,,,,,,,,,,,,,,,,,,,,,,,,,,,,,,,,,,
,,,,,,6165e0b51a883e9db8cc7146,62bc08e07392ca1a086a7e01,2022-06-29_10h10.55.990,Colour_Asymmetry_Pilot,2022.1.3,Win32,60.0024001,62bbe60bf3d75ef465d3e404,0,80,80,78,1,fourtwo,,,,,,,,,,,,,,,,,,,,,,,,,,,,,,,,,,,,,,,,,,,,,,,,,,,,,,,,,,,,,,,,,,,,,,,,,,,,,,,,,,,,,,,,,,,,,,,,,,,,,,,,,,,,,,,,,,,,,,,,,,,,,,,,,,,,,,,,,,,,,,,,,,,,,,,,
,,,,,,6165e0b51a883e9db8cc7146,62bc08e07392ca1a086a7e01,2022-06-29_10h10.55.990,Colour_Asymmetry_Pilot,2022.1.3,Win32,60.0024001,62bbe60bf3d75ef465d3e404,0,81,81,31,1,fourthree,,,,,,,,,,,,,,,,,,,,,,,,,,,,,,,,,,,,,,,,,,,,,,,,,,,,,,,,,,,,,,,,,,,,,,,,,,,,,,,,,,,,,,,,,,,,,,,,,,,,,,,,,,,,,,,,,,,,,,,,,,,,,,,,,,,,,,,,,,,,,,,,,,,,,,,,
,,,,,,6165e0b51a883e9db8cc7146,62bc08e07392ca1a086a7e01,2022-06-29_10h10.55.990,Colour_Asymmetry_Pilot,2022.1.3,Win32,60.0024001,62bbe60bf3d75ef465d3e404,0,82,82,0,1,onetwo,,,,,,,,,,,,,,,,,,,,,,,,,,,,,,,,,,,,,,,,,,,,,,,,,,,,,,,,,,,,,,,,,,,,,,,,,,,,,,,,,,,,,,,,,,,,,,,,,,,,,,,,,,,,,,,,,,,,,,,,,,,,,,,,,,,,,,,,,,,,,,,,,,,,,,,,
,,,,,,6165e0b51a883e9db8cc7146,62bc08e07392ca1a086a7e01,2022-06-29_10h10.55.990,Colour_Asymmetry_Pilot,2022.1.3,Win32,60.0024001,62bbe60bf3d75ef465d3e404,0,83,83,128,1,onetwo,,,,,,,,,,,,,,,,,,,,,,,,,,,,,,,,,,,,,,,,,,,,,,,,,,,,,,,,,,,,,,,,,,,,,,,,,,,,,,,,,,,,,,,,,,,,,,,,,,,,,,,,,,,,,,,,,,,,,,,,,,,,,,,,,,,,,,,,,,,,,,,,,,,,,,,,
,,,,,,6165e0b51a883e9db8cc7146,62bc08e07392ca1a086a7e01,2022-06-29_10h10.55.990,Colour_Asymmetry_Pilot,2022.1.3,Win32,60.0024001,62bbe60bf3d75ef465d3e404,0,84,84,45,1,threefour,,,,,,,,,,,,,,,,,,,,,,,,,,,,,,,,,,,,,,,,,,,,,,,,,,,,,,,,,,,,,,,,,,,,,,,,,,,,,,,,,,,,,,,,,,,,,,,,,,,,,,,,,,,,,,,,,,,,,,,,,,,,,,,,,,,,,,,,,,,,,,,,,,,,,,,,
,,,,,,6165e0b51a883e9db8cc7146,62bc08e07392ca1a086a7e01,2022-06-29_10h10.55.990,Colour_Asymmetry_Pilot,2022.1.3,Win32,60.0024001,62bbe60bf3d75ef465d3e404,0,85,85,51,1,twofour,,,,,,,,,,,,,,,,,,,,,,,,,,,,,,,,,,,,,,,,,,,,,,,,,,,,,,,,,,,,,,,,,,,,,,,,,,,,,,,,,,,,,,,,,,,,,,,,,,,,,,,,,,,,,,,,,,,,,,,,,,,,,,,,,,,,,,,,,,,,,,,,,,,,,,,,
,,,,,,6165e0b51a883e9db8cc7146,62bc08e07392ca1a086a7e01,2022-06-29_10h10.55.990,Colour_Asymmetry_Pilot,2022.1.3,Win32,60.0024001,62bbe60bf3d75ef465d3e404,0,86,86,87,1,fourthree,,,,,,,,,,,,,,,,,,,,,,,,,,,,,,,,,,,,,,,,,,,,,,,,,,,,,,,,,,,,,,,,,,,,,,,,,,,,,,,,,,,,,,,,,,,,,,,,,,,,,,,,,,,,,,,,,,,,,,,,,,,,,,,,,,,,,,,,,,,,,,,,,,,,,,,,
,,,,,,6165e0b51a883e9db8cc7146,62bc08e07392ca1a086a7e01,2022-06-29_10h10.55.990,Colour_Asymmetry_Pilot,2022.1.3,Win32,60.0024001,62bbe60bf3d75ef465d3e404,0,87,87,127,1,fourthree,,,,,,,,,,,,,,,,,,,,,,,,,,,,,,,,,,,,,,,,,,,,,,,,,,,,,,,,,,,,,,,,,,,,,,,,,,,,,,,,,,,,,,,,,,,,,,,,,,,,,,,,,,,,,,,,,,,,,,,,,,,,,,,,,,,,,,,,,,,,,,,,,,,,,,,,
,,,,,,6165e0b51a883e9db8cc7146,62bc08e07392ca1a086a7e01,2022-06-29_10h10.55.990,Colour_Asymmetry_Pilot,2022.1.3,Win32,60.0024001,62bbe60bf3d75ef465d3e404,0,88,88,95,1,fourthree,,,,,,,,,,,,,,,,,,,,,,,,,,,,,,,,,,,,,,,,,,,,,,,,,,,,,,,,,,,,,,,,,,,,,,,,,,,,,,,,,,,,,,,,,,,,,,,,,,,,,,,,,,,,,,,,,,,,,,,,,,,,,,,,,,,,,,,,,,,,,,,,,,,,,,,,
,,,,,,6165e0b51a883e9db8cc7146,62bc08e07392ca1a086a7e01,2022-06-29_10h10.55.990,Colour_Asymmetry_Pilot,2022.1.3,Win32,60.0024001,62bbe60bf3d75ef465d3e404,0,89,89,130,1,twoone,,,,,,,,,,,,,,,,,,,,,,,,,,,,,,,,,,,,,,,,,,,,,,,,,,,,,,,,,,,,,,,,,,,,,,,,,,,,,,,,,,,,,,,,,,,,,,,,,,,,,,,,,,,,,,,,,,,,,,,,,,,,,,,,,,,,,,,,,,,,,,,,,,,,,,,,
,,,,,,6165e0b51a883e9db8cc7146,62bc08e07392ca1a086a7e01,2022-06-29_10h10.55.990,Colour_Asymmetry_Pilot,2022.1.3,Win32,60.0024001,62bbe60bf3d75ef465d3e404,0,90,90,57,1,onethree,,,,,,,,,,,,,,,,,,,,,,,,,,,,,,,,,,,,,,,,,,,,,,,,,,,,,,,,,,,,,,,,,,,,,,,,,,,,,,,,,,,,,,,,,,,,,,,,,,,,,,,,,,,,,,,,,,,,,,,,,,,,,,,,,,,,,,,,,,,,,,,,,,,,,,,,
,,,,,,6165e0b51a883e9db8cc7146,62bc08e07392ca1a086a7e01,2022-06-29_10h10.55.990,Colour_Asymmetry_Pilot,2022.1.3,Win32,60.0024001,62bbe60bf3d75ef465d3e404,0,91,91,149,1,threefour,,,,,,,,,,,,,,,,,,,,,,,,,,,,,,,,,,,,,,,,,,,,,,,,,,,,,,,,,,,,,,,,,,,,,,,,,,,,,,,,,,,,,,,,,,,,,,,,,,,,,,,,,,,,,,,,,,,,,,,,,,,,,,,,,,,,,,,,,,,,,,,,,,,,,,,,
,,,,,,6165e0b51a883e9db8cc7146,62bc08e07392ca1a086a7e01,2022-06-29_10h10.55.990,Colour_Asymmetry_Pilot,2022.1.3,Win32,60.0024001,62bbe60bf3d75ef465d3e404,0,92,92,75,1,twofour,,,,,,,,,,,,,,,,,,,,,,,,,,,,,,,,,,,,,,,,,,,,,,,,,,,,,,,,,,,,,,,,,,,,,,,,,,,,,,,,,,,,,,,,,,,,,,,,,,,,,,,,,,,,,,,,,,,,,,,,,,,,,,,,,,,,,,,,,,,,,,,,,,,,,,,,
,,,,,,6165e0b51a883e9db8cc7146,62bc08e07392ca1a086a7e01,2022-06-29_10h10.55.990,Colour_Asymmetry_Pilot,2022.1.3,Win32,60.0024001,62bbe60bf3d75ef465d3e404,0,93,93,23,1,fourthree,,,,,,,,,,,,,,,,,,,,,,,,,,,,,,,,,,,,,,,,,,,,,,,,,,,,,,,,,,,,,,,,,,,,,,,,,,,,,,,,,,,,,,,,,,,,,,,,,,,,,,,,,,,,,,,,,,,,,,,,,,,,,,,,,,,,,,,,,,,,,,,,,,,,,,,,
,,,,,,6165e0b51a883e9db8cc7146,62bc08e07392ca1a086a7e01,2022-06-29_10h10.55.990,Colour_Asymmetry_Pilot,2022.1.3,Win32,60.0024001,62bbe60bf3d75ef465d3e404,0,94,94,41,1,onethree,,,,,,,,,,,,,,,,,,,,,,,,,,,,,,,,,,,,,,,,,,,,,,,,,,,,,,,,,,,,,,,,,,,,,,,,,,,,,,,,,,,,,,,,,,,,,,,,,,,,,,,,,,,,,,,,,,,,,,,,,,,,,,,,,,,,,,,,,,,,,,,,,,,,,,,,
,,,,,,6165e0b51a883e9db8cc7146,62bc08e07392ca1a086a7e01,2022-06-29_10h10.55.990,Colour_Asymmetry_Pilot,2022.1.3,Win32,60.0024001,62bbe60bf3d75ef465d3e404,0,95,95,103,1,fourthree,,,,,,,,,,,,,,,,,,,,,,,,,,,,,,,,,,,,,,,,,,,,,,,,,,,,,,,,,,,,,,,,,,,,,,,,,,,,,,,,,,,,,,,,,,,,,,,,,,,,,,,,,,,,,,,,,,,,,,,,,,,,,,,,,,,,,,,,,,,,,,,,,,,,,,,,
,,,,,,6165e0b51a883e9db8cc7146,62bc08e07392ca1a086a7e01,2022-06-29_10h10.55.990,Colour_Asymmetry_Pilot,2022.1.3,Win32,60.0024001,62bbe60bf3d75ef465d3e404,0,96,96,30,1,fourtwo,,,,,,,,,,,,,,,,,,,,,,,,,,,,,,,,,,,,,,,,,,,,,,,,,,,,,,,,,,,,,,,,,,,,,,,,,,,,,,,,,,,,,,,,,,,,,,,,,,,,,,,,,,,,,,,,,,,,,,,,,,,,,,,,,,,,,,,,,,,,,,,,,,,,,,,,
,,,,,,6165e0b51a883e9db8cc7146,62bc08e07392ca1a086a7e01,2022-06-29_10h10.55.990,Colour_Asymmetry_Pilot,2022.1.3,Win32,60.0024001,62bbe60bf3d75ef465d3e404,0,97,97,49,1,onethree,,,,,,,,,,,,,,,,,,,,,,,,,,,,,,,,,,,,,,,,,,,,,,,,,,,,,,,,,,,,,,,,,,,,,,,,,,,,,,,,,,,,,,,,,,,,,,,,,,,,,,,,,,,,,,,,,,,,,,,,,,,,,,,,,,,,,,,,,,,,,,,,,,,,,,,,
,,,,,,6165e0b51a883e9db8cc7146,62bc08e07392ca1a086a7e01,2022-06-29_10h10.55.990,Colour_Asymmetry_Pilot,2022.1.3,Win32,60.0024001,62bbe60bf3d75ef465d3e404,0,98,98,59,1,twofour,,,,,,,,,,,,,,,,,,,,,,,,,,,,,,,,,,,,,,,,,,,,,,,,,,,,,,,,,,,,,,,,,,,,,,,,,,,,,,,,,,,,,,,,,,,,,,,,,,,,,,,,,,,,,,,,,,,,,,,,,,,,,,,,,,,,,,,,,,,,,,,,,,,,,,,,
,,,,,,6165e0b51a883e9db8cc7146,62bc08e07392ca1a086a7e01,2022-06-29_10h10.55.990,Colour_Asymmetry_Pilot,2022.1.3,Win32,60.0024001,62bbe60bf3d75ef465d3e404,0,99,99,33,1,onethree,,,,,,,,,,,,,,,,,,,,,,,,,,,,,,,,,,,,,,,,,,,,,,,,,,,,,,,,,,,,,,,,,,,,,,,,,,,,,,,,,,,,,,,,,,,,,,,,,,,,,,,,,,,,,,,,,,,,,,,,,,,,,,,,,,,,,,,,,,,,,,,,,,,,,,,,
,,,,,,6165e0b51a883e9db8cc7146,62bc08e07392ca1a086a7e01,2022-06-29_10h10.55.990,Colour_Asymmetry_Pilot,2022.1.3,Win32,60.0024001,62bbe60bf3d75ef465d3e404,0,100,100,92,1,threeone,,,,,,,,,,,,,,,,,,,,,,,,,,,,,,,,,,,,,,,,,,,,,,,,,,,,,,,,,,,,,,,,,,,,,,,,,,,,,,,,,,,,,,,,,,,,,,,,,,,,,,,,,,,,,,,,,,,,,,,,,,,,,,,,,,,,,,,,,,,,,,,,,,,,,,,,
,,,,,,6165e0b51a883e9db8cc7146,62bc08e07392ca1a086a7e01,2022-06-29_10h10.55.990,Colour_Asymmetry_Pilot,2022.1.3,Win32,60.0024001,62bbe60bf3d75ef465d3e404,0,101,101,102,1,fourtwo,,,,,,,,,,,,,,,,,,,,,,,,,,,,,,,,,,,,,,,,,,,,,,,,,,,,,,,,,,,,,,,,,,,,,,,,,,,,,,,,,,,,,,,,,,,,,,,,,,,,,,,,,,,,,,,,,,,,,,,,,,,,,,,,,,,,,,,,,,,,,,,,,,,,,,,,
,,,,,,6165e0b51a883e9db8cc7146,62bc08e07392ca1a086a7e01,2022-06-29_10h10.55.990,Colour_Asymmetry_Pilot,2022.1.3,Win32,60.0024001,62bbe60bf3d75ef465d3e404,0,102,102,22,1,fourtwo,,,,,,,,,,,,,,,,,,,,,,,,,,,,,,,,,,,,,,,,,,,,,,,,,,,,,,,,,,,,,,,,,,,,,,,,,,,,,,,,,,,,,,,,,,,,,,,,,,,,,,,,,,,,,,,,,,,,,,,,,,,,,,,,,,,,,,,,,,,,,,,,,,,,,,,,
,,,,,,6165e0b51a883e9db8cc7146,62bc08e07392ca1a086a7e01,2022-06-29_10h10.55.990,Colour_Asymmetry_Pilot,2022.1.3,Win32,60.0024001,62bbe60bf3d75ef465d3e404,0,103,103,25,1,onethree,,,,,,,,,,,,,,,,,,,,,,,,,,,,,,,,,,,,,,,,,,,,,,,,,,,,,,,,,,,,,,,,,,,,,,,,,,,,,,,,,,,,,,,,,,,,,,,,,,,,,,,,,,,,,,,,,,,,,,,,,,,,,,,,,,,,,,,,,,,,,,,,,,,,,,,,
,,,,,,6165e0b51a883e9db8cc7146,62bc08e07392ca1a086a7e01,2022-06-29_10h10.55.990,Colour_Asymmetry_Pilot,2022.1.3,Win32,60.0024001,62bbe60bf3d75ef465d3e404,0,104,104,69,1,threefour,,,,,,,,,,,,,,,,,,,,,,,,,,,,,,,,,,,,,,,,,,,,,,,,,,,,,,,,,,,,,,,,,,,,,,,,,,,,,,,,,,,,,,,,,,,,,,,,,,,,,,,,,,,,,,,,,,,,,,,,,,,,,,,,,,,,,,,,,,,,,,,,,,,,,,,,
,,,,,,6165e0b51a883e9db8cc7146,62bc08e07392ca1a086a7e01,2022-06-29_10h10.55.990,Colour_Asymmetry_Pilot,2022.1.3,Win32,60.0024001,62bbe60bf3d75ef465d3e404,0,105,105,101,1,threefour,,,,,,,,,,,,,,,,,,,,,,,,,,,,,,,,,,,,,,,,,,,,,,,,,,,,,,,,,,,,,,,,,,,,,,,,,,,,,,,,,,,,,,,,,,,,,,,,,,,,,,,,,,,,,,,,,,,,,,,,,,,,,,,,,,,,,,,,,,,,,,,,,,,,,,,,
,,,,,,6165e0b51a883e9db8cc7146,62bc08e07392ca1a086a7e01,2022-06-29_10h10.55.990,Colour_Asymmetry_Pilot,2022.1.3,Win32,60.0024001,62bbe60bf3d75ef465d3e404,0,106,106,121,1,onethree,,,,,,,,,,,,,,,,,,,,,,,,,,,,,,,,,,,,,,,,,,,,,,,,,,,,,,,,,,,,,,,,,,,,,,,,,,,,,,,,,,,,,,,,,,,,,,,,,,,,,,,,,,,,,,,,,,,,,,,,,,,,,,,,,,,,,,,,,,,,,,,,,,,,,,,,
,,,,,,6165e0b51a883e9db8cc7146,62bc08e07392ca1a086a7e01,2022-06-29_10h10.55.990,Colour_Asymmetry_Pilot,2022.1.3,Win32,60.0024001,62bbe60bf3d75ef465d3e404,0,107,107,126,1,fourtwo,,,,,,,,,,,,,,,,,,,,,,,,,,,,,,,,,,,,,,,,,,,,,,,,,,,,,,,,,,,,,,,,,,,,,,,,,,,,,,,,,,,,,,,,,,,,,,,,,,,,,,,,,,,,,,,,,,,,,,,,,,,,,,,,,,,,,,,,,,,,,,,,,,,,,,,,
,,,,,,6165e0b51a883e9db8cc7146,62bc08e07392ca1a086a7e01,2022-06-29_10h10.55.990,Colour_Asymmetry_Pilot,2022.1.3,Win32,60.0024001,62bbe60bf3d75ef465d3e404,0,108,108,152,1,onetwo,,,,,,,,,,,,,,,,,,,,,,,,,,,,,,,,,,,,,,,,,,,,,,,,,,,,,,,,,,,,,,,,,,,,,,,,,,,,,,,,,,,,,,,,,,,,,,,,,,,,,,,,,,,,,,,,,,,,,,,,,,,,,,,,,,,,,,,,,,,,,,,,,,,,,,,,
,,,,,,6165e0b51a883e9db8cc7146,62bc08e07392ca1a086a7e01,2022-06-29_10h10.55.990,Colour_Asymmetry_Pilot,2022.1.3,Win32,60.0024001,62bbe60bf3d75ef465d3e404,0,109,109,132,1,threeone,,,,,,,,,,,,,,,,,,,,,,,,,,,,,,,,,,,,,,,,,,,,,,,,,,,,,,,,,,,,,,,,,,,,,,,,,,,,,,,,,,,,,,,,,,,,,,,,,,,,,,,,,,,,,,,,,,,,,,,,,,,,,,,,,,,,,,,,,,,,,,,,,,,,,,,,
,,,,,,6165e0b51a883e9db8cc7146,62bc08e07392ca1a086a7e01,2022-06-29_10h10.55.990,Colour_Asymmetry_Pilot,2022.1.3,Win32,60.0024001,62bbe60bf3d75ef465d3e404,0,110,110,85,1,threefour,,,,,,,,,,,,,,,,,,,,,,,,,,,,,,,,,,,,,,,,,,,,,,,,,,,,,,,,,,,,,,,,,,,,,,,,,,,,,,,,,,,,,,,,,,,,,,,,,,,,,,,,,,,,,,,,,,,,,,,,,,,,,,,,,,,,,,,,,,,,,,,,,,,,,,,,
,,,,,,6165e0b51a883e9db8cc7146,62bc08e07392ca1a086a7e01,2022-06-29_10h10.55.990,Colour_Asymmetry_Pilot,2022.1.3,Win32,60.0024001,62bbe60bf3d75ef465d3e404,0,111,111,147,1,twofour,,,,,,,,,,,,,,,,,,,,,,,,,,,,,,,,,,,,,,,,,,,,,,,,,,,,,,,,,,,,,,,,,,,,,,,,,,,,,,,,,,,,,,,,,,,,,,,,,,,,,,,,,,,,,,,,,,,,,,,,,,,,,,,,,,,,,,,,,,,,,,,,,,,,,,,,
,,,,,,6165e0b51a883e9db8cc7146,62bc08e07392ca1a086a7e01,2022-06-29_10h10.55.990,Colour_Asymmetry_Pilot,2022.1.3,Win32,60.0024001,62bbe60bf3d75ef465d3e404,0,112,112,156,1,threeone,,,,,,,,,,,,,,,,,,,,,,,,,,,,,,,,,,,,,,,,,,,,,,,,,,,,,,,,,,,,,,,,,,,,,,,,,,,,,,,,,,,,,,,,,,,,,,,,,,,,,,,,,,,,,,,,,,,,,,,,,,,,,,,,,,,,,,,,,,,,,,,,,,,,,,,,
,,,,,,6165e0b51a883e9db8cc7146,62bc08e07392ca1a086a7e01,2022-06-29_10h10.55.990,Colour_Asymmetry_Pilot,2022.1.3,Win32,60.0024001,62bbe60bf3d75ef465d3e404,0,113,113,122,1,twoone,,,,,,,,,,,,,,,,,,,,,,,,,,,,,,,,,,,,,,,,,,,,,,,,,,,,,,,,,,,,,,,,,,,,,,,,,,,,,,,,,,,,,,,,,,,,,,,,,,,,,,,,,,,,,,,,,,,,,,,,,,,,,,,,,,,,,,,,,,,,,,,,,,,,,,,,
,,,,,,6165e0b51a883e9db8cc7146,62bc08e07392ca1a086a7e01,2022-06-29_10h10.55.990,Colour_Asymmetry_Pilot,2022.1.3,Win32,60.0024001,62bbe60bf3d75ef465d3e404,0,114,114,158,1,fourtwo,,,,,,,,,,,,,,,,,,,,,,,,,,,,,,,,,,,,,,,,,,,,,,,,,,,,,,,,,,,,,,,,,,,,,,,,,,,,,,,,,,,,,,,,,,,,,,,,,,,,,,,,,,,,,,,,,,,,,,,,,,,,,,,,,,,,,,,,,,,,,,,,,,,,,,,,
,,,,,,6165e0b51a883e9db8cc7146,62bc08e07392ca1a086a7e01,2022-06-29_10h10.55.990,Colour_Asymmetry_Pilot,2022.1.3,Win32,60.0024001,62bbe60bf3d75ef465d3e404,0,115,115,104,1,onetwo,,,,,,,,,,,,,,,,,,,,,,,,,,,,,,,,,,,,,,,,,,,,,,,,,,,,,,,,,,,,,,,,,,,,,,,,,,,,,,,,,,,,,,,,,,,,,,,,,,,,,,,,,,,,,,,,,,,,,,,,,,,,,,,,,,,,,,,,,,,,,,,,,,,,,,,,
,,,,,,6165e0b51a883e9db8cc7146,62bc08e07392ca1a086a7e01,2022-06-29_10h10.55.990,Colour_Asymmetry_Pilot,2022.1.3,Win32,60.0024001,62bbe60bf3d75ef465d3e404,0,116,116,110,1,fourtwo,,,,,,,,,,,,,,,,,,,,,,,,,,,,,,,,,,,,,,,,,,,,,,,,,,,,,,,,,,,,,,,,,,,,,,,,,,,,,,,,,,,,,,,,,,,,,,,,,,,,,,,,,,,,,,,,,,,,,,,,,,,,,,,,,,,,,,,,,,,,,,,,,,,,,,,,
,,,,,,6165e0b51a883e9db8cc7146,62bc08e07392ca1a086a7e01,2022-06-29_10h10.55.990,Colour_Asymmetry_Pilot,2022.1.3,Win32,60.0024001,62bbe60bf3d75ef465d3e404,0,117,117,97,1,onethree,,,,,,,,,,,,,,,,,,,,,,,,,,,,,,,,,,,,,,,,,,,,,,,,,,,,,,,,,,,,,,,,,,,,,,,,,,,,,,,,,,,,,,,,,,,,,,,,,,,,,,,,,,,,,,,,,,,,,,,,,,,,,,,,,,,,,,,,,,,,,,,,,,,,,,,,
,,,,,,6165e0b51a883e9db8cc7146,62bc08e07392ca1a086a7e01,2022-06-29_10h10.55.990,Colour_Asymmetry_Pilot,2022.1.3,Win32,60.0024001,62bbe60bf3d75ef465d3e404,0,118,118,117,1,threefour,,,,,,,,,,,,,,,,,,,,,,,,,,,,,,,,,,,,,,,,,,,,,,,,,,,,,,,,,,,,,,,,,,,,,,,,,,,,,,,,,,,,,,,,,,,,,,,,,,,,,,,,,,,,,,,,,,,,,,,,,,,,,,,,,,,,,,,,,,,,,,,,,,,,,,,,
,,,,,,6165e0b51a883e9db8cc7146,62bc08e07392ca1a086a7e01,2022-06-29_10h10.55.990,Colour_Asymmetry_Pilot,2022.1.3,Win32,60.0024001,62bbe60bf3d75ef465d3e404,0,119,119,131,1,twofour,,,,,,,,,,,,,,,,,,,,,,,,,,,,,,,,,,,,,,,,,,,,,,,,,,,,,,,,,,,,,,,,,,,,,,,,,,,,,,,,,,,,,,,,,,,,,,,,,,,,,,,,,,,,,,,,,,,,,,,,,,,,,,,,,,,,,,,,,,,,,,,,,,,,,,,,
,,,,,,6165e0b51a883e9db8cc7146,62bc08e07392ca1a086a7e01,2022-06-29_10h10.55.990,Colour_Asymmetry_Pilot,2022.1.3,Win32,60.0024001,62bbe60bf3d75ef465d3e404,0,120,120,80,1,onetwo,,,,,,,,,,,,,,,,,,,,,,,,,,,,,,,,,,,,,,,,,,,,,,,,,,,,,,,,,,,,,,,,,,,,,,,,,,,,,,,,,,,,,,,,,,,,,,,,,,,,,,,,,,,,,,,,,,,,,,,,,,,,,,,,,,,,,,,,,,,,,,,,,,,,,,,,
,,,,,,6165e0b51a883e9db8cc7146,62bc08e07392ca1a086a7e01,2022-06-29_10h10.55.990,Colour_Asymmetry_Pilot,2022.1.3,Win32,60.0024001,62bbe60bf3d75ef465d3e404,0,121,121,7,1,fourthree,,,,,,,,,,,,,,,,,,,,,,,,,,,,,,,,,,,,,,,,,,,,,,,,,,,,,,,,,,,,,,,,,,,,,,,,,,,,,,,,,,,,,,,,,,,,,,,,,,,,,,,,,,,,,,,,,,,,,,,,,,,,,,,,,,,,,,,,,,,,,,,,,,,,,,,,
,,,,,,6165e0b51a883e9db8cc7146,62bc08e07392ca1a086a7e01,2022-06-29_10h10.55.990,Colour_Asymmetry_Pilot,2022.1.3,Win32,60.0024001,62bbe60bf3d75ef465d3e404,0,122,122,141,1,threefour,,,,,,,,,,,,,,,,,,,,,,,,,,,,,,,,,,,,,,,,,,,,,,,,,,,,,,,,,,,,,,,,,,,,,,,,,,,,,,,,,,,,,,,,,,,,,,,,,,,,,,,,,,,,,,,,,,,,,,,,,,,,,,,,,,,,,,,,,,,,,,,,,,,,,,,,
,,,,,,6165e0b51a883e9db8cc7146,62bc08e07392ca1a086a7e01,2022-06-29_10h10.55.990,Colour_Asymmetry_Pilot,2022.1.3,Win32,60.0024001,62bbe60bf3d75ef465d3e404,0,123,123,54,1,fourtwo,,,,,,,,,,,,,,,,,,,,,,,,,,,,,,,,,,,,,,,,,,,,,,,,,,,,,,,,,,,,,,,,,,,,,,,,,,,,,,,,,,,,,,,,,,,,,,,,,,,,,,,,,,,,,,,,,,,,,,,,,,,,,,,,,,,,,,,,,,,,,,,,,,,,,,,,
,,,,,,6165e0b51a883e9db8cc7146,62bc08e07392ca1a086a7e01,2022-06-29_10h10.55.990,Colour_Asymmetry_Pilot,2022.1.3,Win32,60.0024001,62bbe60bf3d75ef465d3e404,0,124,124,37,1,threefour,,,,,,,,,,,,,,,,,,,,,,,,,,,,,,,,,,,,,,,,,,,,,,,,,,,,,,,,,,,,,,,,,,,,,,,,,,,,,,,,,,,,,,,,,,,,,,,,,,,,,,,,,,,,,,,,,,,,,,,,,,,,,,,,,,,,,,,,,,,,,,,,,,,,,,,,
,,,,,,6165e0b51a883e9db8cc7146,62bc08e07392ca1a086a7e01,2022-06-29_10h10.55.990,Colour_Asymmetry_Pilot,2022.1.3,Win32,60.0024001,62bbe60bf3d75ef465d3e404,0,125,125,157,1,threefour,,,,,,,,,,,,,,,,,,,,,,,,,,,,,,,,,,,,,,,,,,,,,,,,,,,,,,,,,,,,,,,,,,,,,,,,,,,,,,,,,,,,,,,,,,,,,,,,,,,,,,,,,,,,,,,,,,,,,,,,,,,,,,,,,,,,,,,,,,,,,,,,,,,,,,,,
,,,,,,6165e0b51a883e9db8cc7146,62bc08e07392ca1a086a7e01,2022-06-29_10h10.55.990,Colour_Asymmetry_Pilot,2022.1.3,Win32,60.0024001,62bbe60bf3d75ef465d3e404,0,126,126,111,1,fourthree,,,,,,,,,,,,,,,,,,,,,,,,,,,,,,,,,,,,,,,,,,,,,,,,,,,,,,,,,,,,,,,,,,,,,,,,,,,,,,,,,,,,,,,,,,,,,,,,,,,,,,,,,,,,,,,,,,,,,,,,,,,,,,,,,,,,,,,,,,,,,,,,,,,,,,,,
,,,,,,6165e0b51a883e9db8cc7146,62bc08e07392ca1a086a7e01,2022-06-29_10h10.55.990,Colour_Asymmetry_Pilot,2022.1.3,Win32,60.0024001,62bbe60bf3d75ef465d3e404,0,127,127,60,1,threeone,,,,,,,,,,,,,,,,,,,,,,,,,,,,,,,,,,,,,,,,,,,,,,,,,,,,,,,,,,,,,,,,,,,,,,,,,,,,,,,,,,,,,,,,,,,,,,,,,,,,,,,,,,,,,,,,,,,,,,,,,,,,,,,,,,,,,,,,,,,,,,,,,,,,,,,,
,,,,,,6165e0b51a883e9db8cc7146,62bc08e07392ca1a086a7e01,2022-06-29_10h10.55.990,Colour_Asymmetry_Pilot,2022.1.3,Win32,60.0024001,62bbe60bf3d75ef465d3e404,0,128,128,86,1,fourtwo,,,,,,,,,,,,,,,,,,,,,,,,,,,,,,,,,,,,,,,,,,,,,,,,,,,,,,,,,,,,,,,,,,,,,,,,,,,,,,,,,,,,,,,,,,,,,,,,,,,,,,,,,,,,,,,,,,,,,,,,,,,,,,,,,,,,,,,,,,,,,,,,,,,,,,,,
,,,,,,6165e0b51a883e9db8cc7146,62bc08e07392ca1a086a7e01,2022-06-29_10h10.55.990,Colour_Asymmetry_Pilot,2022.1.3,Win32,60.0024001,62bbe60bf3d75ef465d3e404,0,129,129,35,1,twofour,,,,,,,,,,,,,,,,,,,,,,,,,,,,,,,,,,,,,,,,,,,,,,,,,,,,,,,,,,,,,,,,,,,,,,,,,,,,,,,,,,,,,,,,,,,,,,,,,,,,,,,,,,,,,,,,,,,,,,,,,,,,,,,,,,,,,,,,,,,,,,,,,,,,,,,,
,,,,,,6165e0b51a883e9db8cc7146,62bc08e07392ca1a086a7e01,2022-06-29_10h10.55.990,Colour_Asymmetry_Pilot,2022.1.3,Win32,60.0024001,62bbe60bf3d75ef465d3e404,0,130,130,68,1,threeone,,,,,,,,,,,,,,,,,,,,,,,,,,,,,,,,,,,,,,,,,,,,,,,,,,,,,,,,,,,,,,,,,,,,,,,,,,,,,,,,,,,,,,,,,,,,,,,,,,,,,,,,,,,,,,,,,,,,,,,,,,,,,,,,,,,,,,,,,,,,,,,,,,,,,,,,
,,,,,,6165e0b51a883e9db8cc7146,62bc08e07392ca1a086a7e01,2022-06-29_10h10.55.990,Colour_Asymmetry_Pilot,2022.1.3,Win32,60.0024001,62bbe60bf3d75ef465d3e404,0,131,131,8,1,onetwo,,,,,,,,,,,,,,,,,,,,,,,,,,,,,,,,,,,,,,,,,,,,,,,,,,,,,,,,,,,,,,,,,,,,,,,,,,,,,,,,,,,,,,,,,,,,,,,,,,,,,,,,,,,,,,,,,,,,,,,,,,,,,,,,,,,,,,,,,,,,,,,,,,,,,,,,
,,,,,,6165e0b51a883e9db8cc7146,62bc08e07392ca1a086a7e01,2022-06-29_10h10.55.990,Colour_Asymmetry_Pilot,2022.1.3,Win32,60.0024001,62bbe60bf3d75ef465d3e404,0,132,132,21,1,threefour,,,,,,,,,,,,,,,,,,,,,,,,,,,,,,,,,,,,,,,,,,,,,,,,,,,,,,,,,,,,,,,,,,,,,,,,,,,,,,,,,,,,,,,,,,,,,,,,,,,,,,,,,,,,,,,,,,,,,,,,,,,,,,,,,,,,,,,,,,,,,,,,,,,,,,,,
,,,,,,6165e0b51a883e9db8cc7146,62bc08e07392ca1a086a7e01,2022-06-29_10h10.55.990,Colour_Asymmetry_Pilot,2022.1.3,Win32,60.0024001,62bbe60bf3d75ef465d3e404,0,133,133,18,1,twoone,,,,,,,,,,,,,,,,,,,,,,,,,,,,,,,,,,,,,,,,,,,,,,,,,,,,,,,,,,,,,,,,,,,,,,,,,,,,,,,,,,,,,,,,,,,,,,,,,,,,,,,,,,,,,,,,,,,,,,,,,,,,,,,,,,,,,,,,,,,,,,,,,,,,,,,,
,,,,,,6165e0b51a883e9db8cc7146,62bc08e07392ca1a086a7e01,2022-06-29_10h10.55.990,Colour_Asymmetry_Pilot,2022.1.3,Win32,60.0024001,62bbe60bf3d75ef465d3e404,0,134,134,56,1,onetwo,,,,,,,,,,,,,,,,,,,,,,,,,,,,,,,,,,,,,,,,,,,,,,,,,,,,,,,,,,,,,,,,,,,,,,,,,,,,,,,,,,,,,,,,,,,,,,,,,,,,,,,,,,,,,,,,,,,,,,,,,,,,,,,,,,,,,,,,,,,,,,,,,,,,,,,,
,,,,,,6165e0b51a883e9db8cc7146,62bc08e07392ca1a086a7e01,2022-06-29_10h10.55.990,Colour_Asymmetry_Pilot,2022.1.3,Win32,60.0024001,62bbe60bf3d75ef465d3e404,0,135,135,61,1,threefour,,,,,,,,,,,,,,,,,,,,,,,,,,,,,,,,,,,,,,,,,,,,,,,,,,,,,,,,,,,,,,,,,,,,,,,,,,,,,,,,,,,,,,,,,,,,,,,,,,,,,,,,,,,,,,,,,,,,,,,,,,,,,,,,,,,,,,,,,,,,,,,,,,,,,,,,
,,,,,,6165e0b51a883e9db8cc7146,62bc08e07392ca1a086a7e01,2022-06-29_10h10.55.990,Colour_Asymmetry_Pilot,2022.1.3,Win32,60.0024001,62bbe60bf3d75ef465d3e404,0,136,136,108,1,threeone,,,,,,,,,,,,,,,,,,,,,,,,,,,,,,,,,,,,,,,,,,,,,,,,,,,,,,,,,,,,,,,,,,,,,,,,,,,,,,,,,,,,,,,,,,,,,,,,,,,,,,,,,,,,,,,,,,,,,,,,,,,,,,,,,,,,,,,,,,,,,,,,,,,,,,,,
,,,,,,6165e0b51a883e9db8cc7146,62bc08e07392ca1a086a7e01,2022-06-29_10h10.55.990,Colour_Asymmetry_Pilot,2022.1.3,Win32,60.0024001,62bbe60bf3d75ef465d3e404,0,137,137,3,1,twofour,,,,,,,,,,,,,,,,,,,,,,,,,,,,,,,,,,,,,,,,,,,,,,,,,,,,,,,,,,,,,,,,,,,,,,,,,,,,,,,,,,,,,,,,,,,,,,,,,,,,,,,,,,,,,,,,,,,,,,,,,,,,,,,,,,,,,,,,,,,,,,,,,,,,,,,,
,,,,,,6165e0b51a883e9db8cc7146,62bc08e07392ca1a086a7e01,2022-06-29_10h10.55.990,Colour_Asymmetry_Pilot,2022.1.3,Win32,60.0024001,62bbe60bf3d75ef465d3e404,0,138,138,34,1,twoone,,,,,,,,,,,,,,,,,,,,,,,,,,,,,,,,,,,,,,,,,,,,,,,,,,,,,,,,,,,,,,,,,,,,,,,,,,,,,,,,,,,,,,,,,,,,,,,,,,,,,,,,,,,,,,,,,,,,,,,,,,,,,,,,,,,,,,,,,,,,,,,,,,,,,,,,
,,,,,,6165e0b51a883e9db8cc7146,62bc08e07392ca1a086a7e01,2022-06-29_10h10.55.990,Colour_Asymmetry_Pilot,2022.1.3,Win32,60.0024001,62bbe60bf3d75ef465d3e404,0,139,139,66,1,twoone,,,,,,,,,,,,,,,,,,,,,,,,,,,,,,,,,,,,,,,,,,,,,,,,,,,,,,,,,,,,,,,,,,,,,,,,,,,,,,,,,,,,,,,,,,,,,,,,,,,,,,,,,,,,,,,,,,,,,,,,,,,,,,,,,,,,,,,,,,,,,,,,,,,,,,,,
,,,,,,6165e0b51a883e9db8cc7146,62bc08e07392ca1a086a7e01,2022-06-29_10h10.55.990,Colour_Asymmetry_Pilot,2022.1.3,Win32,60.0024001,62bbe60bf3d75ef465d3e404,0,140,140,10,1,twoone,,,,,,,,,,,,,,,,,,,,,,,,,,,,,,,,,,,,,,,,,,,,,,,,,,,,,,,,,,,,,,,,,,,,,,,,,,,,,,,,,,,,,,,,,,,,,,,,,,,,,,,,,,,,,,,,,,,,,,,,,,,,,,,,,,,,,,,,,,,,,,,,,,,,,,,,
,,,,,,6165e0b51a883e9db8cc7146,62bc08e07392ca1a086a7e01,2022-06-29_10h10.55.990,Colour_Asymmetry_Pilot,2022.1.3,Win32,60.0024001,62bbe60bf3d75ef465d3e404,0,141,141,135,1,fourthree,,,,,,,,,,,,,,,,,,,,,,,,,,,,,,,,,,,,,,,,,,,,,,,,,,,,,,,,,,,,,,,,,,,,,,,,,,,,,,,,,,,,,,,,,,,,,,,,,,,,,,,,,,,,,,,,,,,,,,,,,,,,,,,,,,,,,,,,,,,,,,,,,,,,,,,,
,,,,,,6165e0b51a883e9db8cc7146,62bc08e07392ca1a086a7e01,2022-06-29_10h10.55.990,Colour_Asymmetry_Pilot,2022.1.3,Win32,60.0024001,62bbe60bf3d75ef465d3e404,0,142,142,70,1,fourtwo,,,,,,,,,,,,,,,,,,,,,,,,,,,,,,,,,,,,,,,,,,,,,,,,,,,,,,,,,,,,,,,,,,,,,,,,,,,,,,,,,,,,,,,,,,,,,,,,,,,,,,,,,,,,,,,,,,,,,,,,,,,,,,,,,,,,,,,,,,,,,,,,,,,,,,,,
,,,,,,6165e0b51a883e9db8cc7146,62bc08e07392ca1a086a7e01,2022-06-29_10h10.55.990,Colour_Asymmetry_Pilot,2022.1.3,Win32,60.0024001,62bbe60bf3d75ef465d3e404,0,143,143,13,1,threefour,,,,,,,,,,,,,,,,,,,,,,,,,,,,,,,,,,,,,,,,,,,,,,,,,,,,,,,,,,,,,,,,,,,,,,,,,,,,,,,,,,,,,,,,,,,,,,,,,,,,,,,,,,,,,,,,,,,,,,,,,,,,,,,,,,,,,,,,,,,,,,,,,,,,,,,,
,,,,,,6165e0b51a883e9db8cc7146,62bc08e07392ca1a086a7e01,2022-06-29_10h10.55.990,Colour_Asymmetry_Pilot,2022.1.3,Win32,60.0024001,62bbe60bf3d75ef465d3e404,0,144,144,43,1,twofour,,,,,,,,,,,,,,,,,,,,,,,,,,,,,,,,,,,,,,,,,,,,,,,,,,,,,,,,,,,,,,,,,,,,,,,,,,,,,,,,,,,,,,,,,,,,,,,,,,,,,,,,,,,,,,,,,,,,,,,,,,,,,,,,,,,,,,,,,,,,,,,,,,,,,,,,
,,,,,,6165e0b51a883e9db8cc7146,62bc08e07392ca1a086a7e01,2022-06-29_10h10.55.990,Colour_Asymmetry_Pilot,2022.1.3,Win32,60.0024001,62bbe60bf3d75ef465d3e404,0,145,145,63,1,fourthree,,,,,,,,,,,,,,,,,,,,,,,,,,,,,,,,,,,,,,,,,,,,,,,,,,,,,,,,,,,,,,,,,,,,,,,,,,,,,,,,,,,,,,,,,,,,,,,,,,,,,,,,,,,,,,,,,,,,,,,,,,,,,,,,,,,,,,,,,,,,,,,,,,,,,,,,
,,,,,,6165e0b51a883e9db8cc7146,62bc08e07392ca1a086a7e01,2022-06-29_10h10.55.990,Colour_Asymmetry_Pilot,2022.1.3,Win32,60.0024001,62bbe60bf3d75ef465d3e404,0,146,146,90,1,twoone,,,,,,,,,,,,,,,,,,,,,,,,,,,,,,,,,,,,,,,,,,,,,,,,,,,,,,,,,,,,,,,,,,,,,,,,,,,,,,,,,,,,,,,,,,,,,,,,,,,,,,,,,,,,,,,,,,,,,,,,,,,,,,,,,,,,,,,,,,,,,,,,,,,,,,,,
,,,,,,6165e0b51a883e9db8cc7146,62bc08e07392ca1a086a7e01,2022-06-29_10h10.55.990,Colour_Asymmetry_Pilot,2022.1.3,Win32,60.0024001,62bbe60bf3d75ef465d3e404,0,147,147,50,1,twoone,,,,,,,,,,,,,,,,,,,,,,,,,,,,,,,,,,,,,,,,,,,,,,,,,,,,,,,,,,,,,,,,,,,,,,,,,,,,,,,,,,,,,,,,,,,,,,,,,,,,,,,,,,,,,,,,,,,,,,,,,,,,,,,,,,,,,,,,,,,,,,,,,,,,,,,,
,,,,,,6165e0b51a883e9db8cc7146,62bc08e07392ca1a086a7e01,2022-06-29_10h10.55.990,Colour_Asymmetry_Pilot,2022.1.3,Win32,60.0024001,62bbe60bf3d75ef465d3e404,0,148,148,159,1,fourthree,,,,,,,,,,,,,,,,,,,,,,,,,,,,,,,,,,,,,,,,,,,,,,,,,,,,,,,,,,,,,,,,,,,,,,,,,,,,,,,,,,,,,,,,,,,,,,,,,,,,,,,,,,,,,,,,,,,,,,,,,,,,,,,,,,,,,,,,,,,,,,,,,,,,,,,,
,,,,,,6165e0b51a883e9db8cc7146,62bc08e07392ca1a086a7e01,2022-06-29_10h10.55.990,Colour_Asymmetry_Pilot,2022.1.3,Win32,60.0024001,62bbe60bf3d75ef465d3e404,0,149,149,39,1,fourthree,,,,,,,,,,,,,,,,,,,,,,,,,,,,,,,,,,,,,,,,,,,,,,,,,,,,,,,,,,,,,,,,,,,,,,,,,,,,,,,,,,,,,,,,,,,,,,,,,,,,,,,,,,,,,,,,,,,,,,,,,,,,,,,,,,,,,,,,,,,,,,,,,,,,,,,,
,,,,,,6165e0b51a883e9db8cc7146,62bc08e07392ca1a086a7e01,2022-06-29_10h10.55.990,Colour_Asymmetry_Pilot,2022.1.3,Win32,60.0024001,62bbe60bf3d75ef465d3e404,0,150,150,36,1,threeone,,,,,,,,,,,,,,,,,,,,,,,,,,,,,,,,,,,,,,,,,,,,,,,,,,,,,,,,,,,,,,,,,,,,,,,,,,,,,,,,,,,,,,,,,,,,,,,,,,,,,,,,,,,,,,,,,,,,,,,,,,,,,,,,,,,,,,,,,,,,,,,,,,,,,,,,
,,,,,,6165e0b51a883e9db8cc7146,62bc08e07392ca1a086a7e01,2022-06-29_10h10.55.990,Colour_Asymmetry_Pilot,2022.1.3,Win32,60.0024001,62bbe60bf3d75ef465d3e404,0,151,151,29,1,threefour,,,,,,,,,,,,,,,,,,,,,,,,,,,,,,,,,,,,,,,,,,,,,,,,,,,,,,,,,,,,,,,,,,,,,,,,,,,,,,,,,,,,,,,,,,,,,,,,,,,,,,,,,,,,,,,,,,,,,,,,,,,,,,,,,,,,,,,,,,,,,,,,,,,,,,,,
,,,,,,6165e0b51a883e9db8cc7146,62bc08e07392ca1a086a7e01,2022-06-29_10h10.55.990,Colour_Asymmetry_Pilot,2022.1.3,Win32,60.0024001,62bbe60bf3d75ef465d3e404,0,152,152,153,1,onethree,,,,,,,,,,,,,,,,,,,,,,,,,,,,,,,,,,,,,,,,,,,,,,,,,,,,,,,,,,,,,,,,,,,,,,,,,,,,,,,,,,,,,,,,,,,,,,,,,,,,,,,,,,,,,,,,,,,,,,,,,,,,,,,,,,,,,,,,,,,,,,,,,,,,,,,,
,,,,,,6165e0b51a883e9db8cc7146,62bc08e07392ca1a086a7e01,2022-06-29_10h10.55.990,Colour_Asymmetry_Pilot,2022.1.3,Win32,60.0024001,62bbe60bf3d75ef465d3e404,0,153,153,73,1,onethree,,,,,,,,,,,,,,,,,,,,,,,,,,,,,,,,,,,,,,,,,,,,,,,,,,,,,,,,,,,,,,,,,,,,,,,,,,,,,,,,,,,,,,,,,,,,,,,,,,,,,,,,,,,,,,,,,,,,,,,,,,,,,,,,,,,,,,,,,,,,,,,,,,,,,,,,
,,,,,,6165e0b51a883e9db8cc7146,62bc08e07392ca1a086a7e01,2022-06-29_10h10.55.990,Colour_Asymmetry_Pilot,2022.1.3,Win32,60.0024001,62bbe60bf3d75ef465d3e404,0,154,154,79,1,fourthree,,,,,,,,,,,,,,,,,,,,,,,,,,,,,,,,,,,,,,,,,,,,,,,,,,,,,,,,,,,,,,,,,,,,,,,,,,,,,,,,,,,,,,,,,,,,,,,,,,,,,,,,,,,,,,,,,,,,,,,,,,,,,,,,,,,,,,,,,,,,,,,,,,,,,,,,
,,,,,,6165e0b51a883e9db8cc7146,62bc08e07392ca1a086a7e01,2022-06-29_10h10.55.990,Colour_Asymmetry_Pilot,2022.1.3,Win32,60.0024001,62bbe60bf3d75ef465d3e404,0,155,155,42,1,twoone,,,,,,,,,,,,,,,,,,,,,,,,,,,,,,,,,,,,,,,,,,,,,,,,,,,,,,,,,,,,,,,,,,,,,,,,,,,,,,,,,,,,,,,,,,,,,,,,,,,,,,,,,,,,,,,,,,,,,,,,,,,,,,,,,,,,,,,,,,,,,,,,,,,,,,,,
,,,,,,6165e0b51a883e9db8cc7146,62bc08e07392ca1a086a7e01,2022-06-29_10h10.55.990,Colour_Asymmetry_Pilot,2022.1.3,Win32,60.0024001,62bbe60bf3d75ef465d3e404,0,156,156,114,1,twoone,,,,,,,,,,,,,,,,,,,,,,,,,,,,,,,,,,,,,,,,,,,,,,,,,,,,,,,,,,,,,,,,,,,,,,,,,,,,,,,,,,,,,,,,,,,,,,,,,,,,,,,,,,,,,,,,,,,,,,,,,,,,,,,,,,,,,,,,,,,,,,,,,,,,,,,,
,,,,,,6165e0b51a883e9db8cc7146,62bc08e07392ca1a086a7e01,2022-06-29_10h10.55.990,Colour_Asymmetry_Pilot,2022.1.3,Win32,60.0024001,62bbe60bf3d75ef465d3e404,0,157,157,148,1,threeone,,,,,,,,,,,,,,,,,,,,,,,,,,,,,,,,,,,,,,,,,,,,,,,,,,,,,,,,,,,,,,,,,,,,,,,,,,,,,,,,,,,,,,,,,,,,,,,,,,,,,,,,,,,,,,,,,,,,,,,,,,,,,,,,,,,,,,,,,,,,,,,,,,,,,,,,
,,,,,,6165e0b51a883e9db8cc7146,62bc08e07392ca1a086a7e01,2022-06-29_10h10.55.990,Colour_Asymmetry_Pilot,2022.1.3,Win32,60.0024001,62bbe60bf3d75ef465d3e404,0,158,158,91,1,twofour,,,,,,,,,,,,,,,,,,,,,,,,,,,,,,,,,,,,,,,,,,,,,,,,,,,,,,,,,,,,,,,,,,,,,,,,,,,,,,,,,,,,,,,,,,,,,,,,,,,,,,,,,,,,,,,,,,,,,,,,,,,,,,,,,,,,,,,,,,,,,,,,,,,,,,,,
,,,,,,6165e0b51a883e9db8cc7146,62bc08e07392ca1a086a7e01,2022-06-29_10h10.55.990,Colour_Asymmetry_Pilot,2022.1.3,Win32,60.0024001,62bbe60bf3d75ef465d3e404,0,159,159,19,1,twofour,,,,,,,,,,,,,,,,,,,,,,,,,,,,,,,,,,,,,,,,,,,,,,,,,,,,,,,,,,,,,,,,,,,,,,,,,,,,,,,,,,,,,,,,,,,,,,,,,,,,,,,,,,,,,,,,,,,,,,,,,,,,,,,,,,,,,,,,,,,,,,,,,,,,,,,,
,,,,,,6165e0b51a883e9db8cc7146,62bc08e07392ca1a086a7e01,2022-06-29_10h10.55.990,Colour_Asymmetry_Pilot,2022.1.3,Win32,60.0024001,62bbe60bf3d75ef465d3e404,0,160,160,16,1,onetwo,,,,,,,,,,,,,,,,,,,,,,,,,,,,,,,,,,,,,,,,,,,,,,,,,,,,,,,,,,,,,,,,,,,,,,,,,,,,,,,,,,,,,,,,,,,,,,,,,,,,,,,,,,,,,,,,,,,,,,,,,,,,,,,,,,,,,,,,,,,,,,,,,,,,,,,,
,,,,,,6165e0b51a883e9db8cc7146,62bc08e07392ca1a086a7e01,2022-06-29_10h10.55.990,Colour_Asymmetry_Pilot,2022.1.3,Win32,60.0024001,62bbe60bf3d75ef465d3e404,0,161,161,82,1,twoone,,,,,,,,,,,,,,,,,,,,,,,,,,,,,,,,,,,,,,,,,,,,,,,,,,,,,,,,,,,,,,,,,,,,,,,,,,,,,,,,,,,,,,,,,,,,,,,,,,,,,,,,,,,,,,,,,,,,,,,,,,,,,,,,,,,,,,,,,,,,,,,,,,,,,,,,
,,,,,,6165e0b51a883e9db8cc7146,62bc08e07392ca1a086a7e01,2022-06-29_10h10.55.990,Colour_Asymmetry_Pilot,2022.1.3,Win32,60.0024001,62bbe60bf3d75ef465d3e404,,,,,,,space,28.7297,space,77.9518,space,31.5159,space,31.0327,space,12.0675,space,6.3752,"[0.9686000000000001,0.5763999999999998,0.11359999999999992]",onethree,"[0.8115999999999999,-0.0040000000000000036,-0.09819999999999995]",1,14.5437,71,-123,1,0,0,response3disk_5,0,4,1,0,0,rectangle_8,0,4,1,0,0,2,0,4,1,0,0,0,0,0,0,1,,,,,,,,,,,,,,,,,,,,,,,,,,,,,,,,,,,,,,,,,,,,,,,,,,,,,,,,,,,,,,,,,,,,,,,,,,,,,,,,,,,,,,,,,,,,,,,,,,,,,,,,,,,
,,,,,,6165e0b51a883e9db8cc7146,62bc08e07392ca1a086a7e01,2022-06-29_10h10.55.990,Colour_Asymmetry_Pilot,2022.1.3,Win32,60.0024001,62bbe60bf3d75ef465d3e404,,,,,,,,,,,,,,,,,,,"[0.6547999999999998,-0.043199999999999905,-0.011800000000000033]",onethree,"[-0.9766,-0.34920000000000007,0.2156]",-3,2.3339,-128,54,1,0,0,response7disk_5,1,-9,1,0,0,rectangle_8,1,-9,1,0,0,2,1,-9,1,0,0,1,0,1,0,1,,,,,,,,,,,,,,,,,,,,,,,,,,,,,,,,,,,,,,,,,,,,,,,,,,,,,,,,,,,,,,,,,,,,,,,,,,,,,,,,,,,,,,,,,,,,,,,,,,,,,,,,,,,
,,,,,,6165e0b51a883e9db8cc7146,62bc08e07392ca1a086a7e01,2022-06-29_10h10.55.990,Colour_Asymmetry_Pilot,2022.1.3,Win32,60.0024001,62bbe60bf3d75ef465d3e404,,,,,,,,,,,,,,,,,,,"[-0.09019999999999995,0.44300000000000006,0.5371999999999999]",threeone,"[-0.9216,-0.5529999999999999,-0.3962]",2,2.2509,132,-68,1,0,0,response3disk_5,0,-3,1,0,0,rectangle_8,129,-61,1,0,0,2,0,-1,1,0,0,2,0,2,0,1,response3disk_7,5,rectangle_4,,,,,,,,,,,,,,,,,,,,,,,,,,,,,,,,,,,,,,,,,,,,,,,,,,,,,,,,,,,,,,,,,,,,,,,,,,,,,,,,,,,,,,,,,,,,,,,,,,,,,,,,
,,,,,,6165e0b51a883e9db8cc7146,62bc08e07392ca1a086a7e01,2022-06-29_10h10.55.990,Colour_Asymmetry_Pilot,2022.1.3,Win32,60.0024001,62bbe60bf3d75ef465d3e404,,,,,,,,,,,,,,,,,,,"[0.9213999999999998,0.6391999999999998,-0.9922]",fourthree,"[0.37240000000000006,0.4980000000000002,-0.2864]",3,2.3001,116,39,1,0,0,response1disk_5,-4,4,1,0,0,rectangle_8,-4,4,1,0,0,2,-4,4,1,0,0,3,0,3,0,1,,,,,,,,,,,,,,,,,,,,,,,,,,,,,,,,,,,,,,,,,,,,,,,,,,,,,,,,,,,,,,,,,,,,,,,,,,,,,,,,,,,,,,,,,,,,,,,,,,,,,,,,,,,
,,,,,,6165e0b51a883e9db8cc7146,62bc08e07392ca1a086a7e01,2022-06-29_10h10.55.990,Colour_Asymmetry_Pilot,2022.1.3,Win32,60.0024001,62bbe60bf3d75ef465d3e404,,,,,,,,,,,,,,,,,,,"[-0.9766,-0.34920000000000007,0.2156]",twoone,"[-0.6942,-0.7648,-0.12959999999999994]",4,4.9675,96,142,1,0,0,response1disk_5,-3,4,1,0,0,rectangle_8,-3,4,1,0,0,2,-3,4,1,0,0,4,0,4,0,1,,,,,,,,,,,,,,,,,,,,,,,,,,,,,,,,,,,,,,,,,,,,,,,,,,,,,,,,,,,,,,,,,,,,,,,,,,,,,,,,,,,,,,,,,,,,,,,,,,,,,,,,,,,
,,,,,,6165e0b51a883e9db8cc7146,62bc08e07392ca1a086a7e01,2022-06-29_10h10.55.990,Colour_Asymmetry_Pilot,2022.1.3,Win32,60.0024001,62bbe60bf3d75ef465d3e404,,,,,,,,,,,,,,,,,,,"[-0.09019999999999995,0.44300000000000006,0.5371999999999999]",twoone,"[-0.30200000000000005,0.14500000000000002,0.2784]",3,1.3494,145,81,1,0,0,response1disk_5,4,-3,1,0,0,rectangle_8,4,-3,1,0,0,2,4,-3,1,0,0,5,0,5,0,1,,,,,,,,,,,,,,,,,,,,,,,,,,,,,,,,,,,,,,,,,,,,,,,,,,,,,,,,,,,,,,,,,,,,,,,,,,,,,,,,,,,,,,,,,,,,,,,,,,,,,,,,,,,
,,,,,,6165e0b51a883e9db8cc7146,62bc08e07392ca1a086a7e01,2022-06-29_10h10.55.990,Colour_Asymmetry_Pilot,2022.1.3,Win32,60.0024001,62bbe60bf3d75ef465d3e404,,,,,,,,,,,,,,,,,,,"[-0.45899999999999996,-0.3256,-0.9374]",onetwo,"[-0.4902000000000001,0.2704,-0.45899999999999996]",2,3.1173,130,-114,1,0,0,response3disk_5,-6,-1,1,0,0,rectangle_8,-6,-1,1,0,0,2,-6,-1,1,0,0,6,0,6,0,1,,,,,,,,,,,,,,,,,,,,,,,,,,,,,,,,,,,,,,,,,,,,,,,,,,,,,,,,,,,,,,,,,,,,,,,,,,,,,,,,,,,,,,,,,,,,,,,,,,,,,,,,,,,
,,,,,,6165e0b51a883e9db8cc7146,62bc08e07392ca1a086a7e01,2022-06-29_10h10.55.990,Colour_Asymmetry_Pilot,2022.1.3,Win32,60.0024001,62bbe60bf3d75ef465d3e404,,,,,,,,,,,,,,,,,,,,fourtwo,,-1,1.4831,,,,,,,,,,,,,,,,,,,,,,,,,,,,,,,,space,4.4321,"[0.34099999999999997,0.5841999999999998,-0.9844]","[0.9763999999999999,0.8588,-0.05900000000000005]",-66,-107,1,0,0,response5disk,-13,-2,1,0,0,rectangle,-13,-2,1,0,0,,3,0.0035,0,-13,-2,1,0,0,0,0,0,102,1,21,second,,,,,,,,,,,,,,,,,,,,,,,,,,,,,,,,,,,,,,,,,,,,,,,,,,,,,,,,,,,,,,,,,,,
,,,,,,6165e0b51a883e9db8cc7146,62bc08e07392ca1a086a7e01,2022-06-29_10h10.55.990,Colour_Asymmetry_Pilot,2022.1.3,Win32,60.0024001,62bbe60bf3d75ef465d3e404,,,,,,,,,,,,,,,,,,,,threeone,,1,0.8003,,,,,,,,,,,,,,,,,,,,,,,,,,,,,,,,,,"[-0.9216,-0.5529999999999999,-0.3962]","[-0.6,0.16860000000000008,0.44300000000000006]",73,-131,1,0,0,response3disk,-10,-11,1,0,0,rectangle,-10,-11,1,0,0,,2,0.0024,0,-10,-11,1,0,0,0,1,1,139,1,58,second,,,,,,,,,,,,,,,,,,,,,,,,,,,,,,,,,,,,,,,,,,,,,,,,,,,,,,,,,,,,,,,,,,,
,,,,,,6165e0b51a883e9db8cc7146,62bc08e07392ca1a086a7e01,2022-06-29_10h10.55.990,Colour_Asymmetry_Pilot,2022.1.3,Win32,60.0024001,62bbe60bf3d75ef465d3e404,,,,,,,,,,,,,,,,,,,,fourtwo,,-1,1.4181,,,,,,,,,,,,,,,,,,,,,,,,,,,,,,,,,,"[-0.9296,-0.12959999999999994,-0.043199999999999905]","[-0.26280000000000003,-0.4746,-0.2158]",-110,-122,1,0,0,response5disk,-3,1,1,0,0,rectangle,-3,1,1,0,0,,3,0.002,0,-3,1,1,0,0,0,2,2,12,1,12,first,,,,,,,,,,,,,,,,,,,,,,,,,,,,,,,,,,,,,,,,,,,,,,,,,,,,,,,,,,,,,,,,,,,
,,,,,,6165e0b51a883e9db8cc7146,62bc08e07392ca1a086a7e01,2022-06-29_10h10.55.990,Colour_Asymmetry_Pilot,2022.1.3,Win32,60.0024001,62bbe60bf3d75ef465d3e404,,,,,,,,,,,,,,,,,,,,fourthree,,-2,2.8669,,,,,,,,,,,,,,,,,,,,,,,,,,,,,,,,,,"[-0.9844,-0.9688,-0.9922]","[-0.5922000000000001,-0.7492000000000001,-0.5296000000000001]",-121,-85,1,0,0,response5disk,-9,-6,1,0,0,rectangle,-9,-6,1,0,0,,2,0.0019,0,-9,-6,1,0,0,0,3,3,150,1,69,second,,,,,,,,,,,,,,,,,,,,,,,,,,,,,,,,,,,,,,,,,,,,,,,,,,,,,,,,,,,,,,,,,,,
,,,,,,6165e0b51a883e9db8cc7146,62bc08e07392ca1a086a7e01,2022-06-29_10h10.55.990,Colour_Asymmetry_Pilot,2022.1.3,Win32,60.0024001,62bbe60bf3d75ef465d3e404,,,,,,,,,,,,,,,,,,,,fourtwo,,-1,1.4332,,,,,,,,,,,,,,,,,,,,,,,,,,,,,,,,,,"[-0.9766,-0.34920000000000007,0.2156]","[-0.10599999999999998,-0.10599999999999998,0.5841999999999998]",-71,-111,1,0,0,response5disk,15,1,1,0,0,rectangle,15,1,1,0,0,,2,0.0006,0,15,1,1,0,0,0,4,4,42,1,42,first,,,,,,,,,,,,,,,,,,,,,,,,,,,,,,,,,,,,,,,,,,,,,,,,,,,,,,,,,,,,,,,,,,,
,,,,,,6165e0b51a883e9db8cc7146,62bc08e07392ca1a086a7e01,2022-06-29_10h10.55.990,Colour_Asymmetry_Pilot,2022.1.3,Win32,60.0024001,62bbe60bf3d75ef465d3e404,,,,,,,,,,,,,,,,,,,,twoone,,-1,0.6,,,,,,,,,,,,,,,,,,,,,,,,,,,,,,,,,,"[-0.10599999999999998,-0.10599999999999998,0.5841999999999998]","[-0.9766,-0.34920000000000007,0.2156]",-63,-101,1,0,0,response5disk,1,-3,1,0,0,rectangle,1,-3,1,0,0,,2,0.0005,0,1,-3,1,0,0,0,5,5,123,1,42,second,,,,,,,,,,,,,,,,,,,,,,,,,,,,,,,,,,,,,,,,,,,,,,,,,,,,,,,,,,,,,,,,,,,
,,,,,,6165e0b51a883e9db8cc7146,62bc08e07392ca1a086a7e01,2022-06-29_10h10.55.990,Colour_Asymmetry_Pilot,2022.1.3,Win32,60.0024001,62bbe60bf3d75ef465d3e404,,,,,,,,,,,,,,,,,,,,onethree,,-4,0.7503,,,,,,,,,,,,,,,,,,,,,,,,,,,,,,,,,,"[-0.5922000000000001,-0.7492000000000001,-0.5296000000000001]","[0.37240000000000006,0.4980000000000002,-0.2864]",-62,144,1,0,0,response7disk,-1,0,1,0,0,rectangle,46,-121,1,0,0,1,1,2.8153,1,-4,0,1,0,0,0,6,6,136,1,55,second,response3disk_3,rectangle,,,,,,,,,,,,,,,,,,,,,,,,,,,,,,,,,,,,,,,,,,,,,,,,,,,,,,,,,,,,,,,,,
,,,,,,6165e0b51a883e9db8cc7146,62bc08e07392ca1a086a7e01,2022-06-29_10h10.55.990,Colour_Asymmetry_Pilot,2022.1.3,Win32,60.0024001,62bbe60bf3d75ef465d3e404,,,,,,,,,,,,,,,,,,,,twoone,,-3,0.7442,,,,,,,,,,,,,,,,,,,,,,,,,,,,,,,,,,"[0.9372,0.9450000000000001,0.8980000000000001]","[-0.01980000000000004,-0.5138,-0.38039999999999996]",-134,62,1,0,0,response7disk,1,-2,1,0,0,rectangle,1,-2,1,0,0,1,3,0.0015,0,1,-2,1,0,0,0,7,7,143,1,62,second,,,,,,,,,,,,,,,,,,,,,,,,,,,,,,,,,,,,,,,,,,,,,,,,,,,,,,,,,,,,,,,,,,,
,,,,,,6165e0b51a883e9db8cc7146,62bc08e07392ca1a086a7e01,2022-06-29_10h10.55.990,Colour_Asymmetry_Pilot,2022.1.3,Win32,60.0024001,62bbe60bf3d75ef465d3e404,,,,,,,,,,,,,,,,,,,,twofour,,2,0.7893,,,,,,,,,,,,,,,,,,,,,,,,,,,,,,,,,,"[-0.10599999999999998,-0.15300000000000002,0.15280000000000005]","[-0.20799999999999996,-0.655,-0.01980000000000004]",121,-92,1,0,0,response3disk,-4,6,1,0,0,rectangle,-4,6,1,0,0,1,2,0.0014,0,-4,6,1,0,0,0,8,8,137,1,56,second,,,,,,,,,,,,,,,,,,,,,,,,,,,,,,,,,,,,,,,,,,,,,,,,,,,,,,,,,,,,,,,,,,,
,,,,,,6165e0b51a883e9db8cc7146,62bc08e07392ca1a086a7e01,2022-06-29_10h10.55.990,Colour_Asymmetry_Pilot,2022.1.3,Win32,60.0024001,62bbe60bf3d75ef465d3e404,,,,,,,,,,,,,,,,,,,,threeone,,-2,0.7114,,,,,,,,,,,,,,,,,,,,,,,,,,,,,,,,,,"[-0.9688,-0.38039999999999996,-0.41979999999999995]","[-0.10599999999999998,-0.10599999999999998,0.5841999999999998]",-103,-47,1,0,0,response5disk,-2,6,1,0,0,rectangle,-2,6,1,0,0,1,3,0.0015,0,-2,6,1,0,0,0,9,9,57,1,57,first,,,,,,,,,,,,,,,,,,,,,,,,,,,,,,,,,,,,,,,,,,,,,,,,,,,,,,,,,,,,,,,,,,,
,,,,,,6165e0b51a883e9db8cc7146,62bc08e07392ca1a086a7e01,2022-06-29_10h10.55.990,Colour_Asymmetry_Pilot,2022.1.3,Win32,60.0024001,62bbe60bf3d75ef465d3e404,,,,,,,,,,,,,,,,,,,,fourthree,,-4,0.6339,,,,,,,,,,,,,,,,,,,,,,,,,,,,,,,,,,"[0.8274000000000001,-0.5844,-0.9452]","[-0.17659999999999998,-0.2864,-0.8354]",-70,149,1,0,0,response7disk,-1,-4,1,0,0,rectangle,-1,-4,1,0,0,1,2,0.0014,0,-1,-4,1,0,0,0,10,10,83,1,2,second,,,,,,,,,,,,,,,,,,,,,,,,,,,,,,,,,,,,,,,,,,,,,,,,,,,,,,,,,,,,,,,,,,,
,,,,,,6165e0b51a883e9db8cc7146,62bc08e07392ca1a086a7e01,2022-06-29_10h10.55.990,Colour_Asymmetry_Pilot,2022.1.3,Win32,60.0024001,62bbe60bf3d75ef465d3e404,,,,,,,,,,,,,,,,,,,,fourthree,,-3,0.7069,,,,,,,,,,,,,,,,,,,,,,,,,,,,,,,,,,"[0.7646000000000002,0.07440000000000002,0.2704]","[-0.8982,-0.37259999999999993,0.2784]",-102,75,1,0,0,response7disk,4,4,1,0,0,rectangle,4,4,1,0,0,1,2,0.0003,0,4,4,1,0,0,0,11,11,33,1,33,first,,,,,,,,,,,,,,,,,,,,,,,,,,,,,,,,,,,,,,,,,,,,,,,,,,,,,,,,,,,,,,,,,,,
,,,,,,6165e0b51a883e9db8cc7146,62bc08e07392ca1a086a7e01,2022-06-29_10h10.55.990,Colour_Asymmetry_Pilot,2022.1.3,Win32,60.0024001,62bbe60bf3d75ef465d3e404,,,,,,,,,,,,,,,,,,,,fourtwo,,-4,0.7847,,,,,,,,,,,,,,,,,,,,,,,,,,,,,,,,,,"[-0.2942,-0.7648,-0.7492000000000001]","[0.0351999999999999,0.41159999999999997,0.0038000000000000256]",-71,113,1,0,0,response7disk,5,-2,1,0,0,rectangle,5,-2,1,0,0,1,1,0.0018,0,5,-2,1,0,0,0,12,12,98,1,17,second,,,,,,,,,,,,,,,,,,,,,,,,,,,,,,,,,,,,,,,,,,,,,,,,,,,,,,,,,,,,,,,,,,,
,,,,,,6165e0b51a883e9db8cc7146,62bc08e07392ca1a086a7e01,2022-06-29_10h10.55.990,Colour_Asymmetry_Pilot,2022.1.3,Win32,60.0024001,62bbe60bf3d75ef465d3e404,,,,,,,,,,,,,,,,,,,,twoone,,-2,0.5665,,,,,,,,,,,,,,,,,,,,,,,,,,,,,,,,,,"[-0.9296,-0.12959999999999994,-0.043199999999999905]","[-0.10599999999999998,-0.15300000000000002,0.15280000000000005]",-141,-43,1,0,0,response5disk,-2,1,1,0,0,rectangle,-2,1,1,0,0,1,1,0.0003,0,-2,1,1,0,0,0,13,13,16,1,16,first,,,,,,,,,,,,,,,,,,,,,,,,,,,,,,,,,,,,,,,,,,,,,,,,,,,,,,,,,,,,,,,,,,,
,,,,,,6165e0b51a883e9db8cc7146,62bc08e07392ca1a086a7e01,2022-06-29_10h10.55.990,Colour_Asymmetry_Pilot,2022.1.3,Win32,60.0024001,62bbe60bf3d75ef465d3e404,,,,,,,,,,,,,,,,,,,,onetwo,,-2,1.3824,,,,,,,,,,,,,,,,,,,,,,,,,,,,,,,,,,"[-0.0040000000000000036,0.02739999999999987,-0.08239999999999992]","[0.18419999999999992,-0.4276,-0.404]",-116,-52,1,0,0,response5disk,-9,-4,1,0,0,rectangle,-9,-4,1,0,0,1,3,0.0035,0,-9,-4,1,0,0,0,14,14,105,1,24,second,,,,,,,,,,,,,,,,,,,,,,,,,,,,,,,,,,,,,,,,,,,,,,,,,,,,,,,,,,,,,,,,,,,
,,,,,,6165e0b51a883e9db8cc7146,62bc08e07392ca1a086a7e01,2022-06-29_10h10.55.990,Colour_Asymmetry_Pilot,2022.1.3,Win32,60.0024001,62bbe60bf3d75ef465d3e404,,,,,,,,,,,,,,,,,,,,threeone,,1,0.657,,,,,,,,,,,,,,,,,,,,,,,,,,,,,,,,,,"[0.9686000000000001,0.5763999999999998,0.11359999999999992]","[0.2784,-0.31000000000000005,-0.5452]",46,-111,1,0,0,response3disk,-1,0,1,0,0,rectangle,-1,0,1,0,0,1,2,0.0016,0,-1,0,1,0,0,0,15,15,82,1,1,second,,,,,,,,,,,,,,,,,,,,,,,,,,,,,,,,,,,,,,,,,,,,,,,,,,,,,,,,,,,,,,,,,,,
,,,,,,6165e0b51a883e9db8cc7146,62bc08e07392ca1a086a7e01,2022-06-29_10h10.55.990,Colour_Asymmetry_Pilot,2022.1.3,Win32,60.0024001,62bbe60bf3d75ef465d3e404,,,,,,,,,,,,,,,,,,,,onetwo,,-3,0.5617,,,,,,,,,,,,,,,,,,,,,,,,,,,,,,,,,,"[-0.06680000000000008,-0.45100000000000007,-0.906]","[-0.8982,-0.37259999999999993,0.2784]",-112,81,1,0,0,response7disk,2,4,1,0,0,rectangle,2,4,1,0,0,1,2,0.0003,0,2,4,1,0,0,0,16,16,89,1,8,second,,,,,,,,,,,,,,,,,,,,,,,,,,,,,,,,,,,,,,,,,,,,,,,,,,,,,,,,,,,,,,,,,,,
,,,,,,6165e0b51a883e9db8cc7146,62bc08e07392ca1a086a7e01,2022-06-29_10h10.55.990,Colour_Asymmetry_Pilot,2022.1.3,Win32,60.0024001,62bbe60bf3d75ef465d3e404,,,,,,,,,,,,,,,,,,,,onetwo,,-4,0.5439,,,,,,,,,,,,,,,,,,,,,,,,,,,,,,,,,,"[-0.10599999999999998,-0.10599999999999998,0.5841999999999998]","[0.3802000000000001,0.19199999999999995,-0.6394]",-38,88,1,0,0,response7disk,-9,2,1,0,0,rectangle,-9,2,1,0,0,1,3,0.0013,0,-9,2,1,0,0,0,17,17,63,1,63,first,,,,,,,,,,,,,,,,,,,,,,,,,,,,,,,,,,,,,,,,,,,,,,,,,,,,,,,,,,,,,,,,,,,
,,,,,,6165e0b51a883e9db8cc7146,62bc08e07392ca1a086a7e01,2022-06-29_10h10.55.990,Colour_Asymmetry_Pilot,2022.1.3,Win32,60.0024001,62bbe60bf3d75ef465d3e404,,,,,,,,,,,,,,,,,,,,twoone,,2,0.6171,,,,,,,,,,,,,,,,,,,,,,,,,,,,,,,,,,"[0.5528,0.7409999999999999,-0.71]","[0.5528,0.7409999999999999,-0.71]",120,-58,1,0,0,response3disk,2,-2,1,0,0,rectangle,2,-2,1,0,0,1,1,0.0015,0,2,-2,1,0,0,0,18,18,52,1,52,first,,,,,,,,,,,,,,,,,,,,,,,,,,,,,,,,,,,,,,,,,,,,,,,,,,,,,,,,,,,,,,,,,,,
,,,,,,6165e0b51a883e9db8cc7146,62bc08e07392ca1a086a7e01,2022-06-29_10h10.55.990,Colour_Asymmetry_Pilot,2022.1.3,Win32,60.0024001,62bbe60bf3d75ef465d3e404,,,,,,,,,,,,,,,,,,,,fourtwo,,-3,0.4848,,,,,,,,,,,,,,,,,,,,,,,,,,,,,,,,,,"[0.7018,0.7176,0.6155999999999999]","[0.12939999999999996,-0.2864,0.3253999999999999]",-118,64,1,0,0,response7disk,-5,-1,1,0,0,rectangle,-5,-1,1,0,0,1,1,0.0002,0,-5,-1,1,0,0,0,19,19,14,1,14,first,,,,,,,,,,,,,,,,,,,,,,,,,,,,,,,,,,,,,,,,,,,,,,,,,,,,,,,,,,,,,,,,,,,
,,,,,,6165e0b51a883e9db8cc7146,62bc08e07392ca1a086a7e01,2022-06-29_10h10.55.990,Colour_Asymmetry_Pilot,2022.1.3,Win32,60.0024001,62bbe60bf3d75ef465d3e404,,,,,,,,,,,,,,,,,,,,onetwo,,-2,0.6232,,,,,,,,,,,,,,,,,,,,,,,,,,,,,,,,,,"[-0.8982,-0.37259999999999993,0.2784]","[0.7646000000000002,0.07440000000000002,0.2704]",-106,-74,1,0,0,response5disk,-5,5,1,0,0,rectangle,-5,5,1,0,0,1,2,0.0015,0,-5,5,1,0,0,0,20,20,114,1,33,second,,,,,,,,,,,,,,,,,,,,,,,,,,,,,,,,,,,,,,,,,,,,,,,,,,,,,,,,,,,,,,,,,,,
