trials.thisRepN,trials.thisTrialN,trials.thisN,trials.thisIndex,trials.ran,Colourcodes,participant,session,date,expName,psychopyVersion,OS,frameRate,study_id,trials_4.thisRepN,trials_4.thisTrialN,trials_4.thisN,trials_4.thisIndex,trials_4.ran,StimulusPos,key_resp.keys,key_resp.rt,key_resp_2.keys,key_resp_2.rt,key_resp_15.keys,key_resp_15.rt,key_resp_17.keys,key_resp_17.rt,key_resp_9.keys,key_resp_9.rt,key_resp_10.keys,key_resp_10.rt,Circle1_col,Ecc,Circle2_col,similarity,response_time,mouse_5.x,mouse_5.y,mouse_5.leftButton,mouse_5.midButton,mouse_5.rightButton,mouse_5.clicked_name,mouse_10.x,mouse_10.y,mouse_10.leftButton,mouse_10.midButton,mouse_10.rightButton,mouse_10.clicked_name,mouse_7.x,mouse_7.y,mouse_7.leftButton,mouse_7.midButton,mouse_7.rightButton,mouse_7.clicked_name,catchprac,catchnumberprac,mouse_6.x,mouse_6.y,mouse_6.leftButton,mouse_6.midButton,mouse_6.rightButton,mouse_6.clicked_name,duringprac.thisRepN,duringprac.thisTrialN,duringprac.thisN,duringprac.thisIndex,duringprac.ran,key_resp_22.keys,key_resp_22.rt,Circle1_colour,Circle2_colour,mouse.x,mouse.y,mouse.leftButton,mouse.midButton,mouse.rightButton,mouse.clicked_name,mouse_2.x,mouse_2.y,mouse_2.leftButton,mouse_2.midButton,mouse_2.rightButton,mouse_2.clicked_name,mouse_3.x,mouse_3.y,mouse_3.leftButton,mouse_3.midButton,mouse_3.rightButton,catchresponse,catchnumber,response_time_catch,Catch,mouse_11.x,mouse_11.y,mouse_11.leftButton,mouse_11.midButton,mouse_11.rightButton,trials_2.thisRepN,trials_2.thisTrialN,trials_2.thisN,trials_2.thisIndex,trials_2.ran,Colourpair,Temporder,mouse_3.clicked_name,mouse_11.clicked_name,trials_3.thisRepN,trials_3.thisTrialN,trials_3.thisN,trials_3.thisIndex,trials_3.ran,key_resp_instr_Ishi.keys,key_resp_instr_Ishi.rt,Ishi_trial_keyresp.keys,Ishi_trial_keyresp.rt,Ishi_textbox.text,Ishi_loop.thisRepN,Ishi_loop.thisTrialN,Ishi_loop.thisN,Ishi_loop.thisIndex,Ishi_loop.ran,imageaddress,textbox.text,mouse_4.x,mouse_4.y,mouse_4.leftButton,mouse_4.midButton,mouse_4.rightButton,mouse_4.clicked_name,textbox_2.text,mouse_8.x,mouse_8.y,mouse_8.leftButton,mouse_8.midButton,mouse_8.rightButton,mouse_8.clicked_name,textbox_3.text,mouse_9.x,mouse_9.y,mouse_9.leftButton,mouse_9.midButton,mouse_9.rightButton,mouse_9.clicked_name,textbox_4.text,mouse_12.x,mouse_12.y,mouse_12.leftButton,mouse_12.midButton,mouse_12.rightButton,mouse_12.clicked_name,textbox_5.text,mouse_13.x,mouse_13.y,mouse_13.leftButton,mouse_13.midButton,mouse_13.rightButton,mouse_13.clicked_name,textbox_6.text,mouse_14.x,mouse_14.y,mouse_14.leftButton,mouse_14.midButton,mouse_14.rightButton,mouse_14.clicked_name,textbox_7.text,mouse_15.x,mouse_15.y,mouse_15.leftButton,mouse_15.midButton,mouse_15.rightButton,mouse_15.clicked_name
0,0,0,53,1,,6151a03414a54076ff8b2720,62bbfa794c0965e18c1d44a1,2022-06-29_09h38.41.688,Colour_Asymmetry_Pilot,2022.1.3,Win32,60.05645307,62bbe60bf3d75ef465d3e404,,,,,,,,,,,,,,,,,,,,,,,,,,,,,,,,,,,,,,,,,,,,,,,,,,,,,,,,,,,,,,,,,,,,,,,,,,,,,,,,,,,,,,,,,,,,,,,,,,,,,,,,,,,,,,,,,,,,,,,,,,,,,,,,,,,,,,,,,,,,,,,,,,,,,,,,,,,,,,
0,1,1,69,1,,6151a03414a54076ff8b2720,62bbfa794c0965e18c1d44a1,2022-06-29_09h38.41.688,Colour_Asymmetry_Pilot,2022.1.3,Win32,60.05645307,62bbe60bf3d75ef465d3e404,,,,,,,,,,,,,,,,,,,,,,,,,,,,,,,,,,,,,,,,,,,,,,,,,,,,,,,,,,,,,,,,,,,,,,,,,,,,,,,,,,,,,,,,,,,,,,,,,,,,,,,,,,,,,,,,,,,,,,,,,,,,,,,,,,,,,,,,,,,,,,,,,,,,,,,,,,,,,,
0,2,2,74,1,,6151a03414a54076ff8b2720,62bbfa794c0965e18c1d44a1,2022-06-29_09h38.41.688,Colour_Asymmetry_Pilot,2022.1.3,Win32,60.05645307,62bbe60bf3d75ef465d3e404,,,,,,,,,,,,,,,,,,,,,,,,,,,,,,,,,,,,,,,,,,,,,,,,,,,,,,,,,,,,,,,,,,,,,,,,,,,,,,,,,,,,,,,,,,,,,,,,,,,,,,,,,,,,,,,,,,,,,,,,,,,,,,,,,,,,,,,,,,,,,,,,,,,,,,,,,,,,,,
0,3,3,65,1,,6151a03414a54076ff8b2720,62bbfa794c0965e18c1d44a1,2022-06-29_09h38.41.688,Colour_Asymmetry_Pilot,2022.1.3,Win32,60.05645307,62bbe60bf3d75ef465d3e404,,,,,,,,,,,,,,,,,,,,,,,,,,,,,,,,,,,,,,,,,,,,,,,,,,,,,,,,,,,,,,,,,,,,,,,,,,,,,,,,,,,,,,,,,,,,,,,,,,,,,,,,,,,,,,,,,,,,,,,,,,,,,,,,,,,,,,,,,,,,,,,,,,,,,,,,,,,,,,
0,4,4,24,1,,6151a03414a54076ff8b2720,62bbfa794c0965e18c1d44a1,2022-06-29_09h38.41.688,Colour_Asymmetry_Pilot,2022.1.3,Win32,60.05645307,62bbe60bf3d75ef465d3e404,,,,,,,,,,,,,,,,,,,,,,,,,,,,,,,,,,,,,,,,,,,,,,,,,,,,,,,,,,,,,,,,,,,,,,,,,,,,,,,,,,,,,,,,,,,,,,,,,,,,,,,,,,,,,,,,,,,,,,,,,,,,,,,,,,,,,,,,,,,,,,,,,,,,,,,,,,,,,,
0,5,5,76,1,,6151a03414a54076ff8b2720,62bbfa794c0965e18c1d44a1,2022-06-29_09h38.41.688,Colour_Asymmetry_Pilot,2022.1.3,Win32,60.05645307,62bbe60bf3d75ef465d3e404,,,,,,,,,,,,,,,,,,,,,,,,,,,,,,,,,,,,,,,,,,,,,,,,,,,,,,,,,,,,,,,,,,,,,,,,,,,,,,,,,,,,,,,,,,,,,,,,,,,,,,,,,,,,,,,,,,,,,,,,,,,,,,,,,,,,,,,,,,,,,,,,,,,,,,,,,,,,,,
0,6,6,10,1,,6151a03414a54076ff8b2720,62bbfa794c0965e18c1d44a1,2022-06-29_09h38.41.688,Colour_Asymmetry_Pilot,2022.1.3,Win32,60.05645307,62bbe60bf3d75ef465d3e404,,,,,,,,,,,,,,,,,,,,,,,,,,,,,,,,,,,,,,,,,,,,,,,,,,,,,,,,,,,,,,,,,,,,,,,,,,,,,,,,,,,,,,,,,,,,,,,,,,,,,,,,,,,,,,,,,,,,,,,,,,,,,,,,,,,,,,,,,,,,,,,,,,,,,,,,,,,,,,
0,7,7,64,1,,6151a03414a54076ff8b2720,62bbfa794c0965e18c1d44a1,2022-06-29_09h38.41.688,Colour_Asymmetry_Pilot,2022.1.3,Win32,60.05645307,62bbe60bf3d75ef465d3e404,,,,,,,,,,,,,,,,,,,,,,,,,,,,,,,,,,,,,,,,,,,,,,,,,,,,,,,,,,,,,,,,,,,,,,,,,,,,,,,,,,,,,,,,,,,,,,,,,,,,,,,,,,,,,,,,,,,,,,,,,,,,,,,,,,,,,,,,,,,,,,,,,,,,,,,,,,,,,,
0,8,8,87,1,,6151a03414a54076ff8b2720,62bbfa794c0965e18c1d44a1,2022-06-29_09h38.41.688,Colour_Asymmetry_Pilot,2022.1.3,Win32,60.05645307,62bbe60bf3d75ef465d3e404,,,,,,,,,,,,,,,,,,,,,,,,,,,,,,,,,,,,,,,,,,,,,,,,,,,,,,,,,,,,,,,,,,,,,,,,,,,,,,,,,,,,,,,,,,,,,,,,,,,,,,,,,,,,,,,,,,,,,,,,,,,,,,,,,,,,,,,,,,,,,,,,,,,,,,,,,,,,,,
0,9,9,85,1,,6151a03414a54076ff8b2720,62bbfa794c0965e18c1d44a1,2022-06-29_09h38.41.688,Colour_Asymmetry_Pilot,2022.1.3,Win32,60.05645307,62bbe60bf3d75ef465d3e404,,,,,,,,,,,,,,,,,,,,,,,,,,,,,,,,,,,,,,,,,,,,,,,,,,,,,,,,,,,,,,,,,,,,,,,,,,,,,,,,,,,,,,,,,,,,,,,,,,,,,,,,,,,,,,,,,,,,,,,,,,,,,,,,,,,,,,,,,,,,,,,,,,,,,,,,,,,,,,
0,10,10,6,1,,6151a03414a54076ff8b2720,62bbfa794c0965e18c1d44a1,2022-06-29_09h38.41.688,Colour_Asymmetry_Pilot,2022.1.3,Win32,60.05645307,62bbe60bf3d75ef465d3e404,,,,,,,,,,,,,,,,,,,,,,,,,,,,,,,,,,,,,,,,,,,,,,,,,,,,,,,,,,,,,,,,,,,,,,,,,,,,,,,,,,,,,,,,,,,,,,,,,,,,,,,,,,,,,,,,,,,,,,,,,,,,,,,,,,,,,,,,,,,,,,,,,,,,,,,,,,,,,,
0,11,11,26,1,,6151a03414a54076ff8b2720,62bbfa794c0965e18c1d44a1,2022-06-29_09h38.41.688,Colour_Asymmetry_Pilot,2022.1.3,Win32,60.05645307,62bbe60bf3d75ef465d3e404,,,,,,,,,,,,,,,,,,,,,,,,,,,,,,,,,,,,,,,,,,,,,,,,,,,,,,,,,,,,,,,,,,,,,,,,,,,,,,,,,,,,,,,,,,,,,,,,,,,,,,,,,,,,,,,,,,,,,,,,,,,,,,,,,,,,,,,,,,,,,,,,,,,,,,,,,,,,,,
0,12,12,52,1,,6151a03414a54076ff8b2720,62bbfa794c0965e18c1d44a1,2022-06-29_09h38.41.688,Colour_Asymmetry_Pilot,2022.1.3,Win32,60.05645307,62bbe60bf3d75ef465d3e404,,,,,,,,,,,,,,,,,,,,,,,,,,,,,,,,,,,,,,,,,,,,,,,,,,,,,,,,,,,,,,,,,,,,,,,,,,,,,,,,,,,,,,,,,,,,,,,,,,,,,,,,,,,,,,,,,,,,,,,,,,,,,,,,,,,,,,,,,,,,,,,,,,,,,,,,,,,,,,
0,13,13,37,1,,6151a03414a54076ff8b2720,62bbfa794c0965e18c1d44a1,2022-06-29_09h38.41.688,Colour_Asymmetry_Pilot,2022.1.3,Win32,60.05645307,62bbe60bf3d75ef465d3e404,,,,,,,,,,,,,,,,,,,,,,,,,,,,,,,,,,,,,,,,,,,,,,,,,,,,,,,,,,,,,,,,,,,,,,,,,,,,,,,,,,,,,,,,,,,,,,,,,,,,,,,,,,,,,,,,,,,,,,,,,,,,,,,,,,,,,,,,,,,,,,,,,,,,,,,,,,,,,,
0,14,14,91,1,,6151a03414a54076ff8b2720,62bbfa794c0965e18c1d44a1,2022-06-29_09h38.41.688,Colour_Asymmetry_Pilot,2022.1.3,Win32,60.05645307,62bbe60bf3d75ef465d3e404,,,,,,,,,,,,,,,,,,,,,,,,,,,,,,,,,,,,,,,,,,,,,,,,,,,,,,,,,,,,,,,,,,,,,,,,,,,,,,,,,,,,,,,,,,,,,,,,,,,,,,,,,,,,,,,,,,,,,,,,,,,,,,,,,,,,,,,,,,,,,,,,,,,,,,,,,,,,,,
0,15,15,71,1,,6151a03414a54076ff8b2720,62bbfa794c0965e18c1d44a1,2022-06-29_09h38.41.688,Colour_Asymmetry_Pilot,2022.1.3,Win32,60.05645307,62bbe60bf3d75ef465d3e404,,,,,,,,,,,,,,,,,,,,,,,,,,,,,,,,,,,,,,,,,,,,,,,,,,,,,,,,,,,,,,,,,,,,,,,,,,,,,,,,,,,,,,,,,,,,,,,,,,,,,,,,,,,,,,,,,,,,,,,,,,,,,,,,,,,,,,,,,,,,,,,,,,,,,,,,,,,,,,
0,16,16,40,1,,6151a03414a54076ff8b2720,62bbfa794c0965e18c1d44a1,2022-06-29_09h38.41.688,Colour_Asymmetry_Pilot,2022.1.3,Win32,60.05645307,62bbe60bf3d75ef465d3e404,,,,,,,,,,,,,,,,,,,,,,,,,,,,,,,,,,,,,,,,,,,,,,,,,,,,,,,,,,,,,,,,,,,,,,,,,,,,,,,,,,,,,,,,,,,,,,,,,,,,,,,,,,,,,,,,,,,,,,,,,,,,,,,,,,,,,,,,,,,,,,,,,,,,,,,,,,,,,,
0,17,17,58,1,,6151a03414a54076ff8b2720,62bbfa794c0965e18c1d44a1,2022-06-29_09h38.41.688,Colour_Asymmetry_Pilot,2022.1.3,Win32,60.05645307,62bbe60bf3d75ef465d3e404,,,,,,,,,,,,,,,,,,,,,,,,,,,,,,,,,,,,,,,,,,,,,,,,,,,,,,,,,,,,,,,,,,,,,,,,,,,,,,,,,,,,,,,,,,,,,,,,,,,,,,,,,,,,,,,,,,,,,,,,,,,,,,,,,,,,,,,,,,,,,,,,,,,,,,,,,,,,,,
0,18,18,42,1,,6151a03414a54076ff8b2720,62bbfa794c0965e18c1d44a1,2022-06-29_09h38.41.688,Colour_Asymmetry_Pilot,2022.1.3,Win32,60.05645307,62bbe60bf3d75ef465d3e404,,,,,,,,,,,,,,,,,,,,,,,,,,,,,,,,,,,,,,,,,,,,,,,,,,,,,,,,,,,,,,,,,,,,,,,,,,,,,,,,,,,,,,,,,,,,,,,,,,,,,,,,,,,,,,,,,,,,,,,,,,,,,,,,,,,,,,,,,,,,,,,,,,,,,,,,,,,,,,
0,19,19,17,1,,6151a03414a54076ff8b2720,62bbfa794c0965e18c1d44a1,2022-06-29_09h38.41.688,Colour_Asymmetry_Pilot,2022.1.3,Win32,60.05645307,62bbe60bf3d75ef465d3e404,,,,,,,,,,,,,,,,,,,,,,,,,,,,,,,,,,,,,,,,,,,,,,,,,,,,,,,,,,,,,,,,,,,,,,,,,,,,,,,,,,,,,,,,,,,,,,,,,,,,,,,,,,,,,,,,,,,,,,,,,,,,,,,,,,,,,,,,,,,,,,,,,,,,,,,,,,,,,,
0,20,20,80,1,,6151a03414a54076ff8b2720,62bbfa794c0965e18c1d44a1,2022-06-29_09h38.41.688,Colour_Asymmetry_Pilot,2022.1.3,Win32,60.05645307,62bbe60bf3d75ef465d3e404,,,,,,,,,,,,,,,,,,,,,,,,,,,,,,,,,,,,,,,,,,,,,,,,,,,,,,,,,,,,,,,,,,,,,,,,,,,,,,,,,,,,,,,,,,,,,,,,,,,,,,,,,,,,,,,,,,,,,,,,,,,,,,,,,,,,,,,,,,,,,,,,,,,,,,,,,,,,,,
0,21,21,88,1,,6151a03414a54076ff8b2720,62bbfa794c0965e18c1d44a1,2022-06-29_09h38.41.688,Colour_Asymmetry_Pilot,2022.1.3,Win32,60.05645307,62bbe60bf3d75ef465d3e404,,,,,,,,,,,,,,,,,,,,,,,,,,,,,,,,,,,,,,,,,,,,,,,,,,,,,,,,,,,,,,,,,,,,,,,,,,,,,,,,,,,,,,,,,,,,,,,,,,,,,,,,,,,,,,,,,,,,,,,,,,,,,,,,,,,,,,,,,,,,,,,,,,,,,,,,,,,,,,
0,22,22,43,1,,6151a03414a54076ff8b2720,62bbfa794c0965e18c1d44a1,2022-06-29_09h38.41.688,Colour_Asymmetry_Pilot,2022.1.3,Win32,60.05645307,62bbe60bf3d75ef465d3e404,,,,,,,,,,,,,,,,,,,,,,,,,,,,,,,,,,,,,,,,,,,,,,,,,,,,,,,,,,,,,,,,,,,,,,,,,,,,,,,,,,,,,,,,,,,,,,,,,,,,,,,,,,,,,,,,,,,,,,,,,,,,,,,,,,,,,,,,,,,,,,,,,,,,,,,,,,,,,,
0,23,23,55,1,,6151a03414a54076ff8b2720,62bbfa794c0965e18c1d44a1,2022-06-29_09h38.41.688,Colour_Asymmetry_Pilot,2022.1.3,Win32,60.05645307,62bbe60bf3d75ef465d3e404,,,,,,,,,,,,,,,,,,,,,,,,,,,,,,,,,,,,,,,,,,,,,,,,,,,,,,,,,,,,,,,,,,,,,,,,,,,,,,,,,,,,,,,,,,,,,,,,,,,,,,,,,,,,,,,,,,,,,,,,,,,,,,,,,,,,,,,,,,,,,,,,,,,,,,,,,,,,,,
0,24,24,90,1,,6151a03414a54076ff8b2720,62bbfa794c0965e18c1d44a1,2022-06-29_09h38.41.688,Colour_Asymmetry_Pilot,2022.1.3,Win32,60.05645307,62bbe60bf3d75ef465d3e404,,,,,,,,,,,,,,,,,,,,,,,,,,,,,,,,,,,,,,,,,,,,,,,,,,,,,,,,,,,,,,,,,,,,,,,,,,,,,,,,,,,,,,,,,,,,,,,,,,,,,,,,,,,,,,,,,,,,,,,,,,,,,,,,,,,,,,,,,,,,,,,,,,,,,,,,,,,,,,
0,25,25,56,1,,6151a03414a54076ff8b2720,62bbfa794c0965e18c1d44a1,2022-06-29_09h38.41.688,Colour_Asymmetry_Pilot,2022.1.3,Win32,60.05645307,62bbe60bf3d75ef465d3e404,,,,,,,,,,,,,,,,,,,,,,,,,,,,,,,,,,,,,,,,,,,,,,,,,,,,,,,,,,,,,,,,,,,,,,,,,,,,,,,,,,,,,,,,,,,,,,,,,,,,,,,,,,,,,,,,,,,,,,,,,,,,,,,,,,,,,,,,,,,,,,,,,,,,,,,,,,,,,,
0,26,26,73,1,,6151a03414a54076ff8b2720,62bbfa794c0965e18c1d44a1,2022-06-29_09h38.41.688,Colour_Asymmetry_Pilot,2022.1.3,Win32,60.05645307,62bbe60bf3d75ef465d3e404,,,,,,,,,,,,,,,,,,,,,,,,,,,,,,,,,,,,,,,,,,,,,,,,,,,,,,,,,,,,,,,,,,,,,,,,,,,,,,,,,,,,,,,,,,,,,,,,,,,,,,,,,,,,,,,,,,,,,,,,,,,,,,,,,,,,,,,,,,,,,,,,,,,,,,,,,,,,,,
0,27,27,77,1,,6151a03414a54076ff8b2720,62bbfa794c0965e18c1d44a1,2022-06-29_09h38.41.688,Colour_Asymmetry_Pilot,2022.1.3,Win32,60.05645307,62bbe60bf3d75ef465d3e404,,,,,,,,,,,,,,,,,,,,,,,,,,,,,,,,,,,,,,,,,,,,,,,,,,,,,,,,,,,,,,,,,,,,,,,,,,,,,,,,,,,,,,,,,,,,,,,,,,,,,,,,,,,,,,,,,,,,,,,,,,,,,,,,,,,,,,,,,,,,,,,,,,,,,,,,,,,,,,
0,28,28,50,1,,6151a03414a54076ff8b2720,62bbfa794c0965e18c1d44a1,2022-06-29_09h38.41.688,Colour_Asymmetry_Pilot,2022.1.3,Win32,60.05645307,62bbe60bf3d75ef465d3e404,,,,,,,,,,,,,,,,,,,,,,,,,,,,,,,,,,,,,,,,,,,,,,,,,,,,,,,,,,,,,,,,,,,,,,,,,,,,,,,,,,,,,,,,,,,,,,,,,,,,,,,,,,,,,,,,,,,,,,,,,,,,,,,,,,,,,,,,,,,,,,,,,,,,,,,,,,,,,,
0,29,29,2,1,,6151a03414a54076ff8b2720,62bbfa794c0965e18c1d44a1,2022-06-29_09h38.41.688,Colour_Asymmetry_Pilot,2022.1.3,Win32,60.05645307,62bbe60bf3d75ef465d3e404,,,,,,,,,,,,,,,,,,,,,,,,,,,,,,,,,,,,,,,,,,,,,,,,,,,,,,,,,,,,,,,,,,,,,,,,,,,,,,,,,,,,,,,,,,,,,,,,,,,,,,,,,,,,,,,,,,,,,,,,,,,,,,,,,,,,,,,,,,,,,,,,,,,,,,,,,,,,,,
0,30,30,81,1,,6151a03414a54076ff8b2720,62bbfa794c0965e18c1d44a1,2022-06-29_09h38.41.688,Colour_Asymmetry_Pilot,2022.1.3,Win32,60.05645307,62bbe60bf3d75ef465d3e404,,,,,,,,,,,,,,,,,,,,,,,,,,,,,,,,,,,,,,,,,,,,,,,,,,,,,,,,,,,,,,,,,,,,,,,,,,,,,,,,,,,,,,,,,,,,,,,,,,,,,,,,,,,,,,,,,,,,,,,,,,,,,,,,,,,,,,,,,,,,,,,,,,,,,,,,,,,,,,
0,31,31,89,1,,6151a03414a54076ff8b2720,62bbfa794c0965e18c1d44a1,2022-06-29_09h38.41.688,Colour_Asymmetry_Pilot,2022.1.3,Win32,60.05645307,62bbe60bf3d75ef465d3e404,,,,,,,,,,,,,,,,,,,,,,,,,,,,,,,,,,,,,,,,,,,,,,,,,,,,,,,,,,,,,,,,,,,,,,,,,,,,,,,,,,,,,,,,,,,,,,,,,,,,,,,,,,,,,,,,,,,,,,,,,,,,,,,,,,,,,,,,,,,,,,,,,,,,,,,,,,,,,,
0,32,32,25,1,,6151a03414a54076ff8b2720,62bbfa794c0965e18c1d44a1,2022-06-29_09h38.41.688,Colour_Asymmetry_Pilot,2022.1.3,Win32,60.05645307,62bbe60bf3d75ef465d3e404,,,,,,,,,,,,,,,,,,,,,,,,,,,,,,,,,,,,,,,,,,,,,,,,,,,,,,,,,,,,,,,,,,,,,,,,,,,,,,,,,,,,,,,,,,,,,,,,,,,,,,,,,,,,,,,,,,,,,,,,,,,,,,,,,,,,,,,,,,,,,,,,,,,,,,,,,,,,,,
0,33,33,68,1,,6151a03414a54076ff8b2720,62bbfa794c0965e18c1d44a1,2022-06-29_09h38.41.688,Colour_Asymmetry_Pilot,2022.1.3,Win32,60.05645307,62bbe60bf3d75ef465d3e404,,,,,,,,,,,,,,,,,,,,,,,,,,,,,,,,,,,,,,,,,,,,,,,,,,,,,,,,,,,,,,,,,,,,,,,,,,,,,,,,,,,,,,,,,,,,,,,,,,,,,,,,,,,,,,,,,,,,,,,,,,,,,,,,,,,,,,,,,,,,,,,,,,,,,,,,,,,,,,
0,34,34,44,1,,6151a03414a54076ff8b2720,62bbfa794c0965e18c1d44a1,2022-06-29_09h38.41.688,Colour_Asymmetry_Pilot,2022.1.3,Win32,60.05645307,62bbe60bf3d75ef465d3e404,,,,,,,,,,,,,,,,,,,,,,,,,,,,,,,,,,,,,,,,,,,,,,,,,,,,,,,,,,,,,,,,,,,,,,,,,,,,,,,,,,,,,,,,,,,,,,,,,,,,,,,,,,,,,,,,,,,,,,,,,,,,,,,,,,,,,,,,,,,,,,,,,,,,,,,,,,,,,,
0,35,35,28,1,,6151a03414a54076ff8b2720,62bbfa794c0965e18c1d44a1,2022-06-29_09h38.41.688,Colour_Asymmetry_Pilot,2022.1.3,Win32,60.05645307,62bbe60bf3d75ef465d3e404,,,,,,,,,,,,,,,,,,,,,,,,,,,,,,,,,,,,,,,,,,,,,,,,,,,,,,,,,,,,,,,,,,,,,,,,,,,,,,,,,,,,,,,,,,,,,,,,,,,,,,,,,,,,,,,,,,,,,,,,,,,,,,,,,,,,,,,,,,,,,,,,,,,,,,,,,,,,,,
0,36,36,92,1,,6151a03414a54076ff8b2720,62bbfa794c0965e18c1d44a1,2022-06-29_09h38.41.688,Colour_Asymmetry_Pilot,2022.1.3,Win32,60.05645307,62bbe60bf3d75ef465d3e404,,,,,,,,,,,,,,,,,,,,,,,,,,,,,,,,,,,,,,,,,,,,,,,,,,,,,,,,,,,,,,,,,,,,,,,,,,,,,,,,,,,,,,,,,,,,,,,,,,,,,,,,,,,,,,,,,,,,,,,,,,,,,,,,,,,,,,,,,,,,,,,,,,,,,,,,,,,,,,
0,37,37,49,1,,6151a03414a54076ff8b2720,62bbfa794c0965e18c1d44a1,2022-06-29_09h38.41.688,Colour_Asymmetry_Pilot,2022.1.3,Win32,60.05645307,62bbe60bf3d75ef465d3e404,,,,,,,,,,,,,,,,,,,,,,,,,,,,,,,,,,,,,,,,,,,,,,,,,,,,,,,,,,,,,,,,,,,,,,,,,,,,,,,,,,,,,,,,,,,,,,,,,,,,,,,,,,,,,,,,,,,,,,,,,,,,,,,,,,,,,,,,,,,,,,,,,,,,,,,,,,,,,,
0,38,38,83,1,,6151a03414a54076ff8b2720,62bbfa794c0965e18c1d44a1,2022-06-29_09h38.41.688,Colour_Asymmetry_Pilot,2022.1.3,Win32,60.05645307,62bbe60bf3d75ef465d3e404,,,,,,,,,,,,,,,,,,,,,,,,,,,,,,,,,,,,,,,,,,,,,,,,,,,,,,,,,,,,,,,,,,,,,,,,,,,,,,,,,,,,,,,,,,,,,,,,,,,,,,,,,,,,,,,,,,,,,,,,,,,,,,,,,,,,,,,,,,,,,,,,,,,,,,,,,,,,,,
0,39,39,27,1,,6151a03414a54076ff8b2720,62bbfa794c0965e18c1d44a1,2022-06-29_09h38.41.688,Colour_Asymmetry_Pilot,2022.1.3,Win32,60.05645307,62bbe60bf3d75ef465d3e404,,,,,,,,,,,,,,,,,,,,,,,,,,,,,,,,,,,,,,,,,,,,,,,,,,,,,,,,,,,,,,,,,,,,,,,,,,,,,,,,,,,,,,,,,,,,,,,,,,,,,,,,,,,,,,,,,,,,,,,,,,,,,,,,,,,,,,,,,,,,,,,,,,,,,,,,,,,,,,
0,40,40,63,1,,6151a03414a54076ff8b2720,62bbfa794c0965e18c1d44a1,2022-06-29_09h38.41.688,Colour_Asymmetry_Pilot,2022.1.3,Win32,60.05645307,62bbe60bf3d75ef465d3e404,,,,,,,,,,,,,,,,,,,,,,,,,,,,,,,,,,,,,,,,,,,,,,,,,,,,,,,,,,,,,,,,,,,,,,,,,,,,,,,,,,,,,,,,,,,,,,,,,,,,,,,,,,,,,,,,,,,,,,,,,,,,,,,,,,,,,,,,,,,,,,,,,,,,,,,,,,,,,,
0,41,41,38,1,,6151a03414a54076ff8b2720,62bbfa794c0965e18c1d44a1,2022-06-29_09h38.41.688,Colour_Asymmetry_Pilot,2022.1.3,Win32,60.05645307,62bbe60bf3d75ef465d3e404,,,,,,,,,,,,,,,,,,,,,,,,,,,,,,,,,,,,,,,,,,,,,,,,,,,,,,,,,,,,,,,,,,,,,,,,,,,,,,,,,,,,,,,,,,,,,,,,,,,,,,,,,,,,,,,,,,,,,,,,,,,,,,,,,,,,,,,,,,,,,,,,,,,,,,,,,,,,,,
0,42,42,62,1,,6151a03414a54076ff8b2720,62bbfa794c0965e18c1d44a1,2022-06-29_09h38.41.688,Colour_Asymmetry_Pilot,2022.1.3,Win32,60.05645307,62bbe60bf3d75ef465d3e404,,,,,,,,,,,,,,,,,,,,,,,,,,,,,,,,,,,,,,,,,,,,,,,,,,,,,,,,,,,,,,,,,,,,,,,,,,,,,,,,,,,,,,,,,,,,,,,,,,,,,,,,,,,,,,,,,,,,,,,,,,,,,,,,,,,,,,,,,,,,,,,,,,,,,,,,,,,,,,
0,43,43,84,1,,6151a03414a54076ff8b2720,62bbfa794c0965e18c1d44a1,2022-06-29_09h38.41.688,Colour_Asymmetry_Pilot,2022.1.3,Win32,60.05645307,62bbe60bf3d75ef465d3e404,,,,,,,,,,,,,,,,,,,,,,,,,,,,,,,,,,,,,,,,,,,,,,,,,,,,,,,,,,,,,,,,,,,,,,,,,,,,,,,,,,,,,,,,,,,,,,,,,,,,,,,,,,,,,,,,,,,,,,,,,,,,,,,,,,,,,,,,,,,,,,,,,,,,,,,,,,,,,,
0,44,44,33,1,,6151a03414a54076ff8b2720,62bbfa794c0965e18c1d44a1,2022-06-29_09h38.41.688,Colour_Asymmetry_Pilot,2022.1.3,Win32,60.05645307,62bbe60bf3d75ef465d3e404,,,,,,,,,,,,,,,,,,,,,,,,,,,,,,,,,,,,,,,,,,,,,,,,,,,,,,,,,,,,,,,,,,,,,,,,,,,,,,,,,,,,,,,,,,,,,,,,,,,,,,,,,,,,,,,,,,,,,,,,,,,,,,,,,,,,,,,,,,,,,,,,,,,,,,,,,,,,,,
0,45,45,18,1,,6151a03414a54076ff8b2720,62bbfa794c0965e18c1d44a1,2022-06-29_09h38.41.688,Colour_Asymmetry_Pilot,2022.1.3,Win32,60.05645307,62bbe60bf3d75ef465d3e404,,,,,,,,,,,,,,,,,,,,,,,,,,,,,,,,,,,,,,,,,,,,,,,,,,,,,,,,,,,,,,,,,,,,,,,,,,,,,,,,,,,,,,,,,,,,,,,,,,,,,,,,,,,,,,,,,,,,,,,,,,,,,,,,,,,,,,,,,,,,,,,,,,,,,,,,,,,,,,
0,46,46,86,1,,6151a03414a54076ff8b2720,62bbfa794c0965e18c1d44a1,2022-06-29_09h38.41.688,Colour_Asymmetry_Pilot,2022.1.3,Win32,60.05645307,62bbe60bf3d75ef465d3e404,,,,,,,,,,,,,,,,,,,,,,,,,,,,,,,,,,,,,,,,,,,,,,,,,,,,,,,,,,,,,,,,,,,,,,,,,,,,,,,,,,,,,,,,,,,,,,,,,,,,,,,,,,,,,,,,,,,,,,,,,,,,,,,,,,,,,,,,,,,,,,,,,,,,,,,,,,,,,,
0,47,47,1,1,,6151a03414a54076ff8b2720,62bbfa794c0965e18c1d44a1,2022-06-29_09h38.41.688,Colour_Asymmetry_Pilot,2022.1.3,Win32,60.05645307,62bbe60bf3d75ef465d3e404,,,,,,,,,,,,,,,,,,,,,,,,,,,,,,,,,,,,,,,,,,,,,,,,,,,,,,,,,,,,,,,,,,,,,,,,,,,,,,,,,,,,,,,,,,,,,,,,,,,,,,,,,,,,,,,,,,,,,,,,,,,,,,,,,,,,,,,,,,,,,,,,,,,,,,,,,,,,,,
0,48,48,39,1,,6151a03414a54076ff8b2720,62bbfa794c0965e18c1d44a1,2022-06-29_09h38.41.688,Colour_Asymmetry_Pilot,2022.1.3,Win32,60.05645307,62bbe60bf3d75ef465d3e404,,,,,,,,,,,,,,,,,,,,,,,,,,,,,,,,,,,,,,,,,,,,,,,,,,,,,,,,,,,,,,,,,,,,,,,,,,,,,,,,,,,,,,,,,,,,,,,,,,,,,,,,,,,,,,,,,,,,,,,,,,,,,,,,,,,,,,,,,,,,,,,,,,,,,,,,,,,,,,
0,49,49,8,1,,6151a03414a54076ff8b2720,62bbfa794c0965e18c1d44a1,2022-06-29_09h38.41.688,Colour_Asymmetry_Pilot,2022.1.3,Win32,60.05645307,62bbe60bf3d75ef465d3e404,,,,,,,,,,,,,,,,,,,,,,,,,,,,,,,,,,,,,,,,,,,,,,,,,,,,,,,,,,,,,,,,,,,,,,,,,,,,,,,,,,,,,,,,,,,,,,,,,,,,,,,,,,,,,,,,,,,,,,,,,,,,,,,,,,,,,,,,,,,,,,,,,,,,,,,,,,,,,,
0,50,50,3,1,,6151a03414a54076ff8b2720,62bbfa794c0965e18c1d44a1,2022-06-29_09h38.41.688,Colour_Asymmetry_Pilot,2022.1.3,Win32,60.05645307,62bbe60bf3d75ef465d3e404,,,,,,,,,,,,,,,,,,,,,,,,,,,,,,,,,,,,,,,,,,,,,,,,,,,,,,,,,,,,,,,,,,,,,,,,,,,,,,,,,,,,,,,,,,,,,,,,,,,,,,,,,,,,,,,,,,,,,,,,,,,,,,,,,,,,,,,,,,,,,,,,,,,,,,,,,,,,,,
0,51,51,78,1,,6151a03414a54076ff8b2720,62bbfa794c0965e18c1d44a1,2022-06-29_09h38.41.688,Colour_Asymmetry_Pilot,2022.1.3,Win32,60.05645307,62bbe60bf3d75ef465d3e404,,,,,,,,,,,,,,,,,,,,,,,,,,,,,,,,,,,,,,,,,,,,,,,,,,,,,,,,,,,,,,,,,,,,,,,,,,,,,,,,,,,,,,,,,,,,,,,,,,,,,,,,,,,,,,,,,,,,,,,,,,,,,,,,,,,,,,,,,,,,,,,,,,,,,,,,,,,,,,
0,52,52,82,1,,6151a03414a54076ff8b2720,62bbfa794c0965e18c1d44a1,2022-06-29_09h38.41.688,Colour_Asymmetry_Pilot,2022.1.3,Win32,60.05645307,62bbe60bf3d75ef465d3e404,,,,,,,,,,,,,,,,,,,,,,,,,,,,,,,,,,,,,,,,,,,,,,,,,,,,,,,,,,,,,,,,,,,,,,,,,,,,,,,,,,,,,,,,,,,,,,,,,,,,,,,,,,,,,,,,,,,,,,,,,,,,,,,,,,,,,,,,,,,,,,,,,,,,,,,,,,,,,,
0,53,53,60,1,,6151a03414a54076ff8b2720,62bbfa794c0965e18c1d44a1,2022-06-29_09h38.41.688,Colour_Asymmetry_Pilot,2022.1.3,Win32,60.05645307,62bbe60bf3d75ef465d3e404,,,,,,,,,,,,,,,,,,,,,,,,,,,,,,,,,,,,,,,,,,,,,,,,,,,,,,,,,,,,,,,,,,,,,,,,,,,,,,,,,,,,,,,,,,,,,,,,,,,,,,,,,,,,,,,,,,,,,,,,,,,,,,,,,,,,,,,,,,,,,,,,,,,,,,,,,,,,,,
0,54,54,70,1,,6151a03414a54076ff8b2720,62bbfa794c0965e18c1d44a1,2022-06-29_09h38.41.688,Colour_Asymmetry_Pilot,2022.1.3,Win32,60.05645307,62bbe60bf3d75ef465d3e404,,,,,,,,,,,,,,,,,,,,,,,,,,,,,,,,,,,,,,,,,,,,,,,,,,,,,,,,,,,,,,,,,,,,,,,,,,,,,,,,,,,,,,,,,,,,,,,,,,,,,,,,,,,,,,,,,,,,,,,,,,,,,,,,,,,,,,,,,,,,,,,,,,,,,,,,,,,,,,
0,55,55,4,1,,6151a03414a54076ff8b2720,62bbfa794c0965e18c1d44a1,2022-06-29_09h38.41.688,Colour_Asymmetry_Pilot,2022.1.3,Win32,60.05645307,62bbe60bf3d75ef465d3e404,,,,,,,,,,,,,,,,,,,,,,,,,,,,,,,,,,,,,,,,,,,,,,,,,,,,,,,,,,,,,,,,,,,,,,,,,,,,,,,,,,,,,,,,,,,,,,,,,,,,,,,,,,,,,,,,,,,,,,,,,,,,,,,,,,,,,,,,,,,,,,,,,,,,,,,,,,,,,,
0,56,56,11,1,,6151a03414a54076ff8b2720,62bbfa794c0965e18c1d44a1,2022-06-29_09h38.41.688,Colour_Asymmetry_Pilot,2022.1.3,Win32,60.05645307,62bbe60bf3d75ef465d3e404,,,,,,,,,,,,,,,,,,,,,,,,,,,,,,,,,,,,,,,,,,,,,,,,,,,,,,,,,,,,,,,,,,,,,,,,,,,,,,,,,,,,,,,,,,,,,,,,,,,,,,,,,,,,,,,,,,,,,,,,,,,,,,,,,,,,,,,,,,,,,,,,,,,,,,,,,,,,,,
0,57,57,15,1,,6151a03414a54076ff8b2720,62bbfa794c0965e18c1d44a1,2022-06-29_09h38.41.688,Colour_Asymmetry_Pilot,2022.1.3,Win32,60.05645307,62bbe60bf3d75ef465d3e404,,,,,,,,,,,,,,,,,,,,,,,,,,,,,,,,,,,,,,,,,,,,,,,,,,,,,,,,,,,,,,,,,,,,,,,,,,,,,,,,,,,,,,,,,,,,,,,,,,,,,,,,,,,,,,,,,,,,,,,,,,,,,,,,,,,,,,,,,,,,,,,,,,,,,,,,,,,,,,
0,58,58,36,1,,6151a03414a54076ff8b2720,62bbfa794c0965e18c1d44a1,2022-06-29_09h38.41.688,Colour_Asymmetry_Pilot,2022.1.3,Win32,60.05645307,62bbe60bf3d75ef465d3e404,,,,,,,,,,,,,,,,,,,,,,,,,,,,,,,,,,,,,,,,,,,,,,,,,,,,,,,,,,,,,,,,,,,,,,,,,,,,,,,,,,,,,,,,,,,,,,,,,,,,,,,,,,,,,,,,,,,,,,,,,,,,,,,,,,,,,,,,,,,,,,,,,,,,,,,,,,,,,,
0,59,59,7,1,,6151a03414a54076ff8b2720,62bbfa794c0965e18c1d44a1,2022-06-29_09h38.41.688,Colour_Asymmetry_Pilot,2022.1.3,Win32,60.05645307,62bbe60bf3d75ef465d3e404,,,,,,,,,,,,,,,,,,,,,,,,,,,,,,,,,,,,,,,,,,,,,,,,,,,,,,,,,,,,,,,,,,,,,,,,,,,,,,,,,,,,,,,,,,,,,,,,,,,,,,,,,,,,,,,,,,,,,,,,,,,,,,,,,,,,,,,,,,,,,,,,,,,,,,,,,,,,,,
0,60,60,75,1,,6151a03414a54076ff8b2720,62bbfa794c0965e18c1d44a1,2022-06-29_09h38.41.688,Colour_Asymmetry_Pilot,2022.1.3,Win32,60.05645307,62bbe60bf3d75ef465d3e404,,,,,,,,,,,,,,,,,,,,,,,,,,,,,,,,,,,,,,,,,,,,,,,,,,,,,,,,,,,,,,,,,,,,,,,,,,,,,,,,,,,,,,,,,,,,,,,,,,,,,,,,,,,,,,,,,,,,,,,,,,,,,,,,,,,,,,,,,,,,,,,,,,,,,,,,,,,,,,
0,61,61,59,1,,6151a03414a54076ff8b2720,62bbfa794c0965e18c1d44a1,2022-06-29_09h38.41.688,Colour_Asymmetry_Pilot,2022.1.3,Win32,60.05645307,62bbe60bf3d75ef465d3e404,,,,,,,,,,,,,,,,,,,,,,,,,,,,,,,,,,,,,,,,,,,,,,,,,,,,,,,,,,,,,,,,,,,,,,,,,,,,,,,,,,,,,,,,,,,,,,,,,,,,,,,,,,,,,,,,,,,,,,,,,,,,,,,,,,,,,,,,,,,,,,,,,,,,,,,,,,,,,,
0,62,62,67,1,,6151a03414a54076ff8b2720,62bbfa794c0965e18c1d44a1,2022-06-29_09h38.41.688,Colour_Asymmetry_Pilot,2022.1.3,Win32,60.05645307,62bbe60bf3d75ef465d3e404,,,,,,,,,,,,,,,,,,,,,,,,,,,,,,,,,,,,,,,,,,,,,,,,,,,,,,,,,,,,,,,,,,,,,,,,,,,,,,,,,,,,,,,,,,,,,,,,,,,,,,,,,,,,,,,,,,,,,,,,,,,,,,,,,,,,,,,,,,,,,,,,,,,,,,,,,,,,,,
0,63,63,14,1,,6151a03414a54076ff8b2720,62bbfa794c0965e18c1d44a1,2022-06-29_09h38.41.688,Colour_Asymmetry_Pilot,2022.1.3,Win32,60.05645307,62bbe60bf3d75ef465d3e404,,,,,,,,,,,,,,,,,,,,,,,,,,,,,,,,,,,,,,,,,,,,,,,,,,,,,,,,,,,,,,,,,,,,,,,,,,,,,,,,,,,,,,,,,,,,,,,,,,,,,,,,,,,,,,,,,,,,,,,,,,,,,,,,,,,,,,,,,,,,,,,,,,,,,,,,,,,,,,
0,64,64,45,1,,6151a03414a54076ff8b2720,62bbfa794c0965e18c1d44a1,2022-06-29_09h38.41.688,Colour_Asymmetry_Pilot,2022.1.3,Win32,60.05645307,62bbe60bf3d75ef465d3e404,,,,,,,,,,,,,,,,,,,,,,,,,,,,,,,,,,,,,,,,,,,,,,,,,,,,,,,,,,,,,,,,,,,,,,,,,,,,,,,,,,,,,,,,,,,,,,,,,,,,,,,,,,,,,,,,,,,,,,,,,,,,,,,,,,,,,,,,,,,,,,,,,,,,,,,,,,,,,,
0,65,65,46,1,,6151a03414a54076ff8b2720,62bbfa794c0965e18c1d44a1,2022-06-29_09h38.41.688,Colour_Asymmetry_Pilot,2022.1.3,Win32,60.05645307,62bbe60bf3d75ef465d3e404,,,,,,,,,,,,,,,,,,,,,,,,,,,,,,,,,,,,,,,,,,,,,,,,,,,,,,,,,,,,,,,,,,,,,,,,,,,,,,,,,,,,,,,,,,,,,,,,,,,,,,,,,,,,,,,,,,,,,,,,,,,,,,,,,,,,,,,,,,,,,,,,,,,,,,,,,,,,,,
0,66,66,31,1,,6151a03414a54076ff8b2720,62bbfa794c0965e18c1d44a1,2022-06-29_09h38.41.688,Colour_Asymmetry_Pilot,2022.1.3,Win32,60.05645307,62bbe60bf3d75ef465d3e404,,,,,,,,,,,,,,,,,,,,,,,,,,,,,,,,,,,,,,,,,,,,,,,,,,,,,,,,,,,,,,,,,,,,,,,,,,,,,,,,,,,,,,,,,,,,,,,,,,,,,,,,,,,,,,,,,,,,,,,,,,,,,,,,,,,,,,,,,,,,,,,,,,,,,,,,,,,,,,
0,67,67,32,1,,6151a03414a54076ff8b2720,62bbfa794c0965e18c1d44a1,2022-06-29_09h38.41.688,Colour_Asymmetry_Pilot,2022.1.3,Win32,60.05645307,62bbe60bf3d75ef465d3e404,,,,,,,,,,,,,,,,,,,,,,,,,,,,,,,,,,,,,,,,,,,,,,,,,,,,,,,,,,,,,,,,,,,,,,,,,,,,,,,,,,,,,,,,,,,,,,,,,,,,,,,,,,,,,,,,,,,,,,,,,,,,,,,,,,,,,,,,,,,,,,,,,,,,,,,,,,,,,,
0,68,68,29,1,,6151a03414a54076ff8b2720,62bbfa794c0965e18c1d44a1,2022-06-29_09h38.41.688,Colour_Asymmetry_Pilot,2022.1.3,Win32,60.05645307,62bbe60bf3d75ef465d3e404,,,,,,,,,,,,,,,,,,,,,,,,,,,,,,,,,,,,,,,,,,,,,,,,,,,,,,,,,,,,,,,,,,,,,,,,,,,,,,,,,,,,,,,,,,,,,,,,,,,,,,,,,,,,,,,,,,,,,,,,,,,,,,,,,,,,,,,,,,,,,,,,,,,,,,,,,,,,,,
0,69,69,9,1,,6151a03414a54076ff8b2720,62bbfa794c0965e18c1d44a1,2022-06-29_09h38.41.688,Colour_Asymmetry_Pilot,2022.1.3,Win32,60.05645307,62bbe60bf3d75ef465d3e404,,,,,,,,,,,,,,,,,,,,,,,,,,,,,,,,,,,,,,,,,,,,,,,,,,,,,,,,,,,,,,,,,,,,,,,,,,,,,,,,,,,,,,,,,,,,,,,,,,,,,,,,,,,,,,,,,,,,,,,,,,,,,,,,,,,,,,,,,,,,,,,,,,,,,,,,,,,,,,
0,70,70,0,1,,6151a03414a54076ff8b2720,62bbfa794c0965e18c1d44a1,2022-06-29_09h38.41.688,Colour_Asymmetry_Pilot,2022.1.3,Win32,60.05645307,62bbe60bf3d75ef465d3e404,,,,,,,,,,,,,,,,,,,,,,,,,,,,,,,,,,,,,,,,,,,,,,,,,,,,,,,,,,,,,,,,,,,,,,,,,,,,,,,,,,,,,,,,,,,,,,,,,,,,,,,,,,,,,,,,,,,,,,,,,,,,,,,,,,,,,,,,,,,,,,,,,,,,,,,,,,,,,,
0,71,71,41,1,,6151a03414a54076ff8b2720,62bbfa794c0965e18c1d44a1,2022-06-29_09h38.41.688,Colour_Asymmetry_Pilot,2022.1.3,Win32,60.05645307,62bbe60bf3d75ef465d3e404,,,,,,,,,,,,,,,,,,,,,,,,,,,,,,,,,,,,,,,,,,,,,,,,,,,,,,,,,,,,,,,,,,,,,,,,,,,,,,,,,,,,,,,,,,,,,,,,,,,,,,,,,,,,,,,,,,,,,,,,,,,,,,,,,,,,,,,,,,,,,,,,,,,,,,,,,,,,,,
0,72,72,19,1,,6151a03414a54076ff8b2720,62bbfa794c0965e18c1d44a1,2022-06-29_09h38.41.688,Colour_Asymmetry_Pilot,2022.1.3,Win32,60.05645307,62bbe60bf3d75ef465d3e404,,,,,,,,,,,,,,,,,,,,,,,,,,,,,,,,,,,,,,,,,,,,,,,,,,,,,,,,,,,,,,,,,,,,,,,,,,,,,,,,,,,,,,,,,,,,,,,,,,,,,,,,,,,,,,,,,,,,,,,,,,,,,,,,,,,,,,,,,,,,,,,,,,,,,,,,,,,,,,
0,73,73,20,1,,6151a03414a54076ff8b2720,62bbfa794c0965e18c1d44a1,2022-06-29_09h38.41.688,Colour_Asymmetry_Pilot,2022.1.3,Win32,60.05645307,62bbe60bf3d75ef465d3e404,,,,,,,,,,,,,,,,,,,,,,,,,,,,,,,,,,,,,,,,,,,,,,,,,,,,,,,,,,,,,,,,,,,,,,,,,,,,,,,,,,,,,,,,,,,,,,,,,,,,,,,,,,,,,,,,,,,,,,,,,,,,,,,,,,,,,,,,,,,,,,,,,,,,,,,,,,,,,,
0,74,74,72,1,,6151a03414a54076ff8b2720,62bbfa794c0965e18c1d44a1,2022-06-29_09h38.41.688,Colour_Asymmetry_Pilot,2022.1.3,Win32,60.05645307,62bbe60bf3d75ef465d3e404,,,,,,,,,,,,,,,,,,,,,,,,,,,,,,,,,,,,,,,,,,,,,,,,,,,,,,,,,,,,,,,,,,,,,,,,,,,,,,,,,,,,,,,,,,,,,,,,,,,,,,,,,,,,,,,,,,,,,,,,,,,,,,,,,,,,,,,,,,,,,,,,,,,,,,,,,,,,,,
0,75,75,23,1,,6151a03414a54076ff8b2720,62bbfa794c0965e18c1d44a1,2022-06-29_09h38.41.688,Colour_Asymmetry_Pilot,2022.1.3,Win32,60.05645307,62bbe60bf3d75ef465d3e404,,,,,,,,,,,,,,,,,,,,,,,,,,,,,,,,,,,,,,,,,,,,,,,,,,,,,,,,,,,,,,,,,,,,,,,,,,,,,,,,,,,,,,,,,,,,,,,,,,,,,,,,,,,,,,,,,,,,,,,,,,,,,,,,,,,,,,,,,,,,,,,,,,,,,,,,,,,,,,
0,76,76,13,1,,6151a03414a54076ff8b2720,62bbfa794c0965e18c1d44a1,2022-06-29_09h38.41.688,Colour_Asymmetry_Pilot,2022.1.3,Win32,60.05645307,62bbe60bf3d75ef465d3e404,,,,,,,,,,,,,,,,,,,,,,,,,,,,,,,,,,,,,,,,,,,,,,,,,,,,,,,,,,,,,,,,,,,,,,,,,,,,,,,,,,,,,,,,,,,,,,,,,,,,,,,,,,,,,,,,,,,,,,,,,,,,,,,,,,,,,,,,,,,,,,,,,,,,,,,,,,,,,,
0,77,77,16,1,,6151a03414a54076ff8b2720,62bbfa794c0965e18c1d44a1,2022-06-29_09h38.41.688,Colour_Asymmetry_Pilot,2022.1.3,Win32,60.05645307,62bbe60bf3d75ef465d3e404,,,,,,,,,,,,,,,,,,,,,,,,,,,,,,,,,,,,,,,,,,,,,,,,,,,,,,,,,,,,,,,,,,,,,,,,,,,,,,,,,,,,,,,,,,,,,,,,,,,,,,,,,,,,,,,,,,,,,,,,,,,,,,,,,,,,,,,,,,,,,,,,,,,,,,,,,,,,,,
0,78,78,5,1,,6151a03414a54076ff8b2720,62bbfa794c0965e18c1d44a1,2022-06-29_09h38.41.688,Colour_Asymmetry_Pilot,2022.1.3,Win32,60.05645307,62bbe60bf3d75ef465d3e404,,,,,,,,,,,,,,,,,,,,,,,,,,,,,,,,,,,,,,,,,,,,,,,,,,,,,,,,,,,,,,,,,,,,,,,,,,,,,,,,,,,,,,,,,,,,,,,,,,,,,,,,,,,,,,,,,,,,,,,,,,,,,,,,,,,,,,,,,,,,,,,,,,,,,,,,,,,,,,
0,79,79,21,1,,6151a03414a54076ff8b2720,62bbfa794c0965e18c1d44a1,2022-06-29_09h38.41.688,Colour_Asymmetry_Pilot,2022.1.3,Win32,60.05645307,62bbe60bf3d75ef465d3e404,,,,,,,,,,,,,,,,,,,,,,,,,,,,,,,,,,,,,,,,,,,,,,,,,,,,,,,,,,,,,,,,,,,,,,,,,,,,,,,,,,,,,,,,,,,,,,,,,,,,,,,,,,,,,,,,,,,,,,,,,,,,,,,,,,,,,,,,,,,,,,,,,,,,,,,,,,,,,,
0,80,80,22,1,,6151a03414a54076ff8b2720,62bbfa794c0965e18c1d44a1,2022-06-29_09h38.41.688,Colour_Asymmetry_Pilot,2022.1.3,Win32,60.05645307,62bbe60bf3d75ef465d3e404,,,,,,,,,,,,,,,,,,,,,,,,,,,,,,,,,,,,,,,,,,,,,,,,,,,,,,,,,,,,,,,,,,,,,,,,,,,,,,,,,,,,,,,,,,,,,,,,,,,,,,,,,,,,,,,,,,,,,,,,,,,,,,,,,,,,,,,,,,,,,,,,,,,,,,,,,,,,,,
0,81,81,30,1,,6151a03414a54076ff8b2720,62bbfa794c0965e18c1d44a1,2022-06-29_09h38.41.688,Colour_Asymmetry_Pilot,2022.1.3,Win32,60.05645307,62bbe60bf3d75ef465d3e404,,,,,,,,,,,,,,,,,,,,,,,,,,,,,,,,,,,,,,,,,,,,,,,,,,,,,,,,,,,,,,,,,,,,,,,,,,,,,,,,,,,,,,,,,,,,,,,,,,,,,,,,,,,,,,,,,,,,,,,,,,,,,,,,,,,,,,,,,,,,,,,,,,,,,,,,,,,,,,
0,82,82,54,1,,6151a03414a54076ff8b2720,62bbfa794c0965e18c1d44a1,2022-06-29_09h38.41.688,Colour_Asymmetry_Pilot,2022.1.3,Win32,60.05645307,62bbe60bf3d75ef465d3e404,,,,,,,,,,,,,,,,,,,,,,,,,,,,,,,,,,,,,,,,,,,,,,,,,,,,,,,,,,,,,,,,,,,,,,,,,,,,,,,,,,,,,,,,,,,,,,,,,,,,,,,,,,,,,,,,,,,,,,,,,,,,,,,,,,,,,,,,,,,,,,,,,,,,,,,,,,,,,,
0,83,83,51,1,,6151a03414a54076ff8b2720,62bbfa794c0965e18c1d44a1,2022-06-29_09h38.41.688,Colour_Asymmetry_Pilot,2022.1.3,Win32,60.05645307,62bbe60bf3d75ef465d3e404,,,,,,,,,,,,,,,,,,,,,,,,,,,,,,,,,,,,,,,,,,,,,,,,,,,,,,,,,,,,,,,,,,,,,,,,,,,,,,,,,,,,,,,,,,,,,,,,,,,,,,,,,,,,,,,,,,,,,,,,,,,,,,,,,,,,,,,,,,,,,,,,,,,,,,,,,,,,,,
0,84,84,66,1,,6151a03414a54076ff8b2720,62bbfa794c0965e18c1d44a1,2022-06-29_09h38.41.688,Colour_Asymmetry_Pilot,2022.1.3,Win32,60.05645307,62bbe60bf3d75ef465d3e404,,,,,,,,,,,,,,,,,,,,,,,,,,,,,,,,,,,,,,,,,,,,,,,,,,,,,,,,,,,,,,,,,,,,,,,,,,,,,,,,,,,,,,,,,,,,,,,,,,,,,,,,,,,,,,,,,,,,,,,,,,,,,,,,,,,,,,,,,,,,,,,,,,,,,,,,,,,,,,
0,85,85,48,1,,6151a03414a54076ff8b2720,62bbfa794c0965e18c1d44a1,2022-06-29_09h38.41.688,Colour_Asymmetry_Pilot,2022.1.3,Win32,60.05645307,62bbe60bf3d75ef465d3e404,,,,,,,,,,,,,,,,,,,,,,,,,,,,,,,,,,,,,,,,,,,,,,,,,,,,,,,,,,,,,,,,,,,,,,,,,,,,,,,,,,,,,,,,,,,,,,,,,,,,,,,,,,,,,,,,,,,,,,,,,,,,,,,,,,,,,,,,,,,,,,,,,,,,,,,,,,,,,,
0,86,86,35,1,,6151a03414a54076ff8b2720,62bbfa794c0965e18c1d44a1,2022-06-29_09h38.41.688,Colour_Asymmetry_Pilot,2022.1.3,Win32,60.05645307,62bbe60bf3d75ef465d3e404,,,,,,,,,,,,,,,,,,,,,,,,,,,,,,,,,,,,,,,,,,,,,,,,,,,,,,,,,,,,,,,,,,,,,,,,,,,,,,,,,,,,,,,,,,,,,,,,,,,,,,,,,,,,,,,,,,,,,,,,,,,,,,,,,,,,,,,,,,,,,,,,,,,,,,,,,,,,,,
0,87,87,34,1,,6151a03414a54076ff8b2720,62bbfa794c0965e18c1d44a1,2022-06-29_09h38.41.688,Colour_Asymmetry_Pilot,2022.1.3,Win32,60.05645307,62bbe60bf3d75ef465d3e404,,,,,,,,,,,,,,,,,,,,,,,,,,,,,,,,,,,,,,,,,,,,,,,,,,,,,,,,,,,,,,,,,,,,,,,,,,,,,,,,,,,,,,,,,,,,,,,,,,,,,,,,,,,,,,,,,,,,,,,,,,,,,,,,,,,,,,,,,,,,,,,,,,,,,,,,,,,,,,
0,88,88,57,1,,6151a03414a54076ff8b2720,62bbfa794c0965e18c1d44a1,2022-06-29_09h38.41.688,Colour_Asymmetry_Pilot,2022.1.3,Win32,60.05645307,62bbe60bf3d75ef465d3e404,,,,,,,,,,,,,,,,,,,,,,,,,,,,,,,,,,,,,,,,,,,,,,,,,,,,,,,,,,,,,,,,,,,,,,,,,,,,,,,,,,,,,,,,,,,,,,,,,,,,,,,,,,,,,,,,,,,,,,,,,,,,,,,,,,,,,,,,,,,,,,,,,,,,,,,,,,,,,,
0,89,89,47,1,,6151a03414a54076ff8b2720,62bbfa794c0965e18c1d44a1,2022-06-29_09h38.41.688,Colour_Asymmetry_Pilot,2022.1.3,Win32,60.05645307,62bbe60bf3d75ef465d3e404,,,,,,,,,,,,,,,,,,,,,,,,,,,,,,,,,,,,,,,,,,,,,,,,,,,,,,,,,,,,,,,,,,,,,,,,,,,,,,,,,,,,,,,,,,,,,,,,,,,,,,,,,,,,,,,,,,,,,,,,,,,,,,,,,,,,,,,,,,,,,,,,,,,,,,,,,,,,,,
0,90,90,79,1,,6151a03414a54076ff8b2720,62bbfa794c0965e18c1d44a1,2022-06-29_09h38.41.688,Colour_Asymmetry_Pilot,2022.1.3,Win32,60.05645307,62bbe60bf3d75ef465d3e404,,,,,,,,,,,,,,,,,,,,,,,,,,,,,,,,,,,,,,,,,,,,,,,,,,,,,,,,,,,,,,,,,,,,,,,,,,,,,,,,,,,,,,,,,,,,,,,,,,,,,,,,,,,,,,,,,,,,,,,,,,,,,,,,,,,,,,,,,,,,,,,,,,,,,,,,,,,,,,
0,91,91,61,1,,6151a03414a54076ff8b2720,62bbfa794c0965e18c1d44a1,2022-06-29_09h38.41.688,Colour_Asymmetry_Pilot,2022.1.3,Win32,60.05645307,62bbe60bf3d75ef465d3e404,,,,,,,,,,,,,,,,,,,,,,,,,,,,,,,,,,,,,,,,,,,,,,,,,,,,,,,,,,,,,,,,,,,,,,,,,,,,,,,,,,,,,,,,,,,,,,,,,,,,,,,,,,,,,,,,,,,,,,,,,,,,,,,,,,,,,,,,,,,,,,,,,,,,,,,,,,,,,,
0,92,92,12,1,,6151a03414a54076ff8b2720,62bbfa794c0965e18c1d44a1,2022-06-29_09h38.41.688,Colour_Asymmetry_Pilot,2022.1.3,Win32,60.05645307,62bbe60bf3d75ef465d3e404,,,,,,,,,,,,,,,,,,,,,,,,,,,,,,,,,,,,,,,,,,,,,,,,,,,,,,,,,,,,,,,,,,,,,,,,,,,,,,,,,,,,,,,,,,,,,,,,,,,,,,,,,,,,,,,,,,,,,,,,,,,,,,,,,,,,,,,,,,,,,,,,,,,,,,,,,,,,,,
,,,,,,6151a03414a54076ff8b2720,62bbfa794c0965e18c1d44a1,2022-06-29_09h38.41.688,Colour_Asymmetry_Pilot,2022.1.3,Win32,60.05645307,62bbe60bf3d75ef465d3e404,0,0,0,121,1,onethree,,,,,,,,,,,,,,,,,,,,,,,,,,,,,,,,,,,,,,,,,,,,,,,,,,,,,,,,,,,,,,,,,,,,,,,,,,,,,,,,,,,,,,,,,,,,,,,,,,,,,,,,,,,,,,,,,,,,,,,,,,,,,,,,,,,,,,,,,,,,,,,,,,,,,,,,
,,,,,,6151a03414a54076ff8b2720,62bbfa794c0965e18c1d44a1,2022-06-29_09h38.41.688,Colour_Asymmetry_Pilot,2022.1.3,Win32,60.05645307,62bbe60bf3d75ef465d3e404,0,1,1,92,1,threeone,,,,,,,,,,,,,,,,,,,,,,,,,,,,,,,,,,,,,,,,,,,,,,,,,,,,,,,,,,,,,,,,,,,,,,,,,,,,,,,,,,,,,,,,,,,,,,,,,,,,,,,,,,,,,,,,,,,,,,,,,,,,,,,,,,,,,,,,,,,,,,,,,,,,,,,,
,,,,,,6151a03414a54076ff8b2720,62bbfa794c0965e18c1d44a1,2022-06-29_09h38.41.688,Colour_Asymmetry_Pilot,2022.1.3,Win32,60.05645307,62bbe60bf3d75ef465d3e404,0,2,2,118,1,fourtwo,,,,,,,,,,,,,,,,,,,,,,,,,,,,,,,,,,,,,,,,,,,,,,,,,,,,,,,,,,,,,,,,,,,,,,,,,,,,,,,,,,,,,,,,,,,,,,,,,,,,,,,,,,,,,,,,,,,,,,,,,,,,,,,,,,,,,,,,,,,,,,,,,,,,,,,,
,,,,,,6151a03414a54076ff8b2720,62bbfa794c0965e18c1d44a1,2022-06-29_09h38.41.688,Colour_Asymmetry_Pilot,2022.1.3,Win32,60.05645307,62bbe60bf3d75ef465d3e404,0,3,3,77,1,threefour,,,,,,,,,,,,,,,,,,,,,,,,,,,,,,,,,,,,,,,,,,,,,,,,,,,,,,,,,,,,,,,,,,,,,,,,,,,,,,,,,,,,,,,,,,,,,,,,,,,,,,,,,,,,,,,,,,,,,,,,,,,,,,,,,,,,,,,,,,,,,,,,,,,,,,,,
,,,,,,6151a03414a54076ff8b2720,62bbfa794c0965e18c1d44a1,2022-06-29_09h38.41.688,Colour_Asymmetry_Pilot,2022.1.3,Win32,60.05645307,62bbe60bf3d75ef465d3e404,0,4,4,84,1,threeone,,,,,,,,,,,,,,,,,,,,,,,,,,,,,,,,,,,,,,,,,,,,,,,,,,,,,,,,,,,,,,,,,,,,,,,,,,,,,,,,,,,,,,,,,,,,,,,,,,,,,,,,,,,,,,,,,,,,,,,,,,,,,,,,,,,,,,,,,,,,,,,,,,,,,,,,
,,,,,,6151a03414a54076ff8b2720,62bbfa794c0965e18c1d44a1,2022-06-29_09h38.41.688,Colour_Asymmetry_Pilot,2022.1.3,Win32,60.05645307,62bbe60bf3d75ef465d3e404,0,5,5,82,1,twoone,,,,,,,,,,,,,,,,,,,,,,,,,,,,,,,,,,,,,,,,,,,,,,,,,,,,,,,,,,,,,,,,,,,,,,,,,,,,,,,,,,,,,,,,,,,,,,,,,,,,,,,,,,,,,,,,,,,,,,,,,,,,,,,,,,,,,,,,,,,,,,,,,,,,,,,,
,,,,,,6151a03414a54076ff8b2720,62bbfa794c0965e18c1d44a1,2022-06-29_09h38.41.688,Colour_Asymmetry_Pilot,2022.1.3,Win32,60.05645307,62bbe60bf3d75ef465d3e404,0,6,6,124,1,threeone,,,,,,,,,,,,,,,,,,,,,,,,,,,,,,,,,,,,,,,,,,,,,,,,,,,,,,,,,,,,,,,,,,,,,,,,,,,,,,,,,,,,,,,,,,,,,,,,,,,,,,,,,,,,,,,,,,,,,,,,,,,,,,,,,,,,,,,,,,,,,,,,,,,,,,,,
,,,,,,6151a03414a54076ff8b2720,62bbfa794c0965e18c1d44a1,2022-06-29_09h38.41.688,Colour_Asymmetry_Pilot,2022.1.3,Win32,60.05645307,62bbe60bf3d75ef465d3e404,0,7,7,0,1,onetwo,,,,,,,,,,,,,,,,,,,,,,,,,,,,,,,,,,,,,,,,,,,,,,,,,,,,,,,,,,,,,,,,,,,,,,,,,,,,,,,,,,,,,,,,,,,,,,,,,,,,,,,,,,,,,,,,,,,,,,,,,,,,,,,,,,,,,,,,,,,,,,,,,,,,,,,,
,,,,,,6151a03414a54076ff8b2720,62bbfa794c0965e18c1d44a1,2022-06-29_09h38.41.688,Colour_Asymmetry_Pilot,2022.1.3,Win32,60.05645307,62bbe60bf3d75ef465d3e404,0,8,8,36,1,threeone,,,,,,,,,,,,,,,,,,,,,,,,,,,,,,,,,,,,,,,,,,,,,,,,,,,,,,,,,,,,,,,,,,,,,,,,,,,,,,,,,,,,,,,,,,,,,,,,,,,,,,,,,,,,,,,,,,,,,,,,,,,,,,,,,,,,,,,,,,,,,,,,,,,,,,,,
,,,,,,6151a03414a54076ff8b2720,62bbfa794c0965e18c1d44a1,2022-06-29_09h38.41.688,Colour_Asymmetry_Pilot,2022.1.3,Win32,60.05645307,62bbe60bf3d75ef465d3e404,0,9,9,54,1,fourtwo,,,,,,,,,,,,,,,,,,,,,,,,,,,,,,,,,,,,,,,,,,,,,,,,,,,,,,,,,,,,,,,,,,,,,,,,,,,,,,,,,,,,,,,,,,,,,,,,,,,,,,,,,,,,,,,,,,,,,,,,,,,,,,,,,,,,,,,,,,,,,,,,,,,,,,,,
,,,,,,6151a03414a54076ff8b2720,62bbfa794c0965e18c1d44a1,2022-06-29_09h38.41.688,Colour_Asymmetry_Pilot,2022.1.3,Win32,60.05645307,62bbe60bf3d75ef465d3e404,0,10,10,103,1,fourthree,,,,,,,,,,,,,,,,,,,,,,,,,,,,,,,,,,,,,,,,,,,,,,,,,,,,,,,,,,,,,,,,,,,,,,,,,,,,,,,,,,,,,,,,,,,,,,,,,,,,,,,,,,,,,,,,,,,,,,,,,,,,,,,,,,,,,,,,,,,,,,,,,,,,,,,,
,,,,,,6151a03414a54076ff8b2720,62bbfa794c0965e18c1d44a1,2022-06-29_09h38.41.688,Colour_Asymmetry_Pilot,2022.1.3,Win32,60.05645307,62bbe60bf3d75ef465d3e404,0,11,11,14,1,fourtwo,,,,,,,,,,,,,,,,,,,,,,,,,,,,,,,,,,,,,,,,,,,,,,,,,,,,,,,,,,,,,,,,,,,,,,,,,,,,,,,,,,,,,,,,,,,,,,,,,,,,,,,,,,,,,,,,,,,,,,,,,,,,,,,,,,,,,,,,,,,,,,,,,,,,,,,,
,,,,,,6151a03414a54076ff8b2720,62bbfa794c0965e18c1d44a1,2022-06-29_09h38.41.688,Colour_Asymmetry_Pilot,2022.1.3,Win32,60.05645307,62bbe60bf3d75ef465d3e404,0,12,12,24,1,onetwo,,,,,,,,,,,,,,,,,,,,,,,,,,,,,,,,,,,,,,,,,,,,,,,,,,,,,,,,,,,,,,,,,,,,,,,,,,,,,,,,,,,,,,,,,,,,,,,,,,,,,,,,,,,,,,,,,,,,,,,,,,,,,,,,,,,,,,,,,,,,,,,,,,,,,,,,
,,,,,,6151a03414a54076ff8b2720,62bbfa794c0965e18c1d44a1,2022-06-29_09h38.41.688,Colour_Asymmetry_Pilot,2022.1.3,Win32,60.05645307,62bbe60bf3d75ef465d3e404,0,13,13,4,1,threeone,,,,,,,,,,,,,,,,,,,,,,,,,,,,,,,,,,,,,,,,,,,,,,,,,,,,,,,,,,,,,,,,,,,,,,,,,,,,,,,,,,,,,,,,,,,,,,,,,,,,,,,,,,,,,,,,,,,,,,,,,,,,,,,,,,,,,,,,,,,,,,,,,,,,,,,,
,,,,,,6151a03414a54076ff8b2720,62bbfa794c0965e18c1d44a1,2022-06-29_09h38.41.688,Colour_Asymmetry_Pilot,2022.1.3,Win32,60.05645307,62bbe60bf3d75ef465d3e404,0,14,14,49,1,onethree,,,,,,,,,,,,,,,,,,,,,,,,,,,,,,,,,,,,,,,,,,,,,,,,,,,,,,,,,,,,,,,,,,,,,,,,,,,,,,,,,,,,,,,,,,,,,,,,,,,,,,,,,,,,,,,,,,,,,,,,,,,,,,,,,,,,,,,,,,,,,,,,,,,,,,,,
,,,,,,6151a03414a54076ff8b2720,62bbfa794c0965e18c1d44a1,2022-06-29_09h38.41.688,Colour_Asymmetry_Pilot,2022.1.3,Win32,60.05645307,62bbe60bf3d75ef465d3e404,0,15,15,65,1,onethree,,,,,,,,,,,,,,,,,,,,,,,,,,,,,,,,,,,,,,,,,,,,,,,,,,,,,,,,,,,,,,,,,,,,,,,,,,,,,,,,,,,,,,,,,,,,,,,,,,,,,,,,,,,,,,,,,,,,,,,,,,,,,,,,,,,,,,,,,,,,,,,,,,,,,,,,
,,,,,,6151a03414a54076ff8b2720,62bbfa794c0965e18c1d44a1,2022-06-29_09h38.41.688,Colour_Asymmetry_Pilot,2022.1.3,Win32,60.05645307,62bbe60bf3d75ef465d3e404,0,16,16,108,1,threeone,,,,,,,,,,,,,,,,,,,,,,,,,,,,,,,,,,,,,,,,,,,,,,,,,,,,,,,,,,,,,,,,,,,,,,,,,,,,,,,,,,,,,,,,,,,,,,,,,,,,,,,,,,,,,,,,,,,,,,,,,,,,,,,,,,,,,,,,,,,,,,,,,,,,,,,,
,,,,,,6151a03414a54076ff8b2720,62bbfa794c0965e18c1d44a1,2022-06-29_09h38.41.688,Colour_Asymmetry_Pilot,2022.1.3,Win32,60.05645307,62bbe60bf3d75ef465d3e404,0,17,17,87,1,fourthree,,,,,,,,,,,,,,,,,,,,,,,,,,,,,,,,,,,,,,,,,,,,,,,,,,,,,,,,,,,,,,,,,,,,,,,,,,,,,,,,,,,,,,,,,,,,,,,,,,,,,,,,,,,,,,,,,,,,,,,,,,,,,,,,,,,,,,,,,,,,,,,,,,,,,,,,
,,,,,,6151a03414a54076ff8b2720,62bbfa794c0965e18c1d44a1,2022-06-29_09h38.41.688,Colour_Asymmetry_Pilot,2022.1.3,Win32,60.05645307,62bbe60bf3d75ef465d3e404,0,18,18,13,1,threefour,,,,,,,,,,,,,,,,,,,,,,,,,,,,,,,,,,,,,,,,,,,,,,,,,,,,,,,,,,,,,,,,,,,,,,,,,,,,,,,,,,,,,,,,,,,,,,,,,,,,,,,,,,,,,,,,,,,,,,,,,,,,,,,,,,,,,,,,,,,,,,,,,,,,,,,,
,,,,,,6151a03414a54076ff8b2720,62bbfa794c0965e18c1d44a1,2022-06-29_09h38.41.688,Colour_Asymmetry_Pilot,2022.1.3,Win32,60.05645307,62bbe60bf3d75ef465d3e404,0,19,19,112,1,onetwo,,,,,,,,,,,,,,,,,,,,,,,,,,,,,,,,,,,,,,,,,,,,,,,,,,,,,,,,,,,,,,,,,,,,,,,,,,,,,,,,,,,,,,,,,,,,,,,,,,,,,,,,,,,,,,,,,,,,,,,,,,,,,,,,,,,,,,,,,,,,,,,,,,,,,,,,
,,,,,,6151a03414a54076ff8b2720,62bbfa794c0965e18c1d44a1,2022-06-29_09h38.41.688,Colour_Asymmetry_Pilot,2022.1.3,Win32,60.05645307,62bbe60bf3d75ef465d3e404,0,20,20,80,1,onetwo,,,,,,,,,,,,,,,,,,,,,,,,,,,,,,,,,,,,,,,,,,,,,,,,,,,,,,,,,,,,,,,,,,,,,,,,,,,,,,,,,,,,,,,,,,,,,,,,,,,,,,,,,,,,,,,,,,,,,,,,,,,,,,,,,,,,,,,,,,,,,,,,,,,,,,,,
,,,,,,6151a03414a54076ff8b2720,62bbfa794c0965e18c1d44a1,2022-06-29_09h38.41.688,Colour_Asymmetry_Pilot,2022.1.3,Win32,60.05645307,62bbe60bf3d75ef465d3e404,0,21,21,44,1,threeone,,,,,,,,,,,,,,,,,,,,,,,,,,,,,,,,,,,,,,,,,,,,,,,,,,,,,,,,,,,,,,,,,,,,,,,,,,,,,,,,,,,,,,,,,,,,,,,,,,,,,,,,,,,,,,,,,,,,,,,,,,,,,,,,,,,,,,,,,,,,,,,,,,,,,,,,
,,,,,,6151a03414a54076ff8b2720,62bbfa794c0965e18c1d44a1,2022-06-29_09h38.41.688,Colour_Asymmetry_Pilot,2022.1.3,Win32,60.05645307,62bbe60bf3d75ef465d3e404,0,22,22,40,1,onetwo,,,,,,,,,,,,,,,,,,,,,,,,,,,,,,,,,,,,,,,,,,,,,,,,,,,,,,,,,,,,,,,,,,,,,,,,,,,,,,,,,,,,,,,,,,,,,,,,,,,,,,,,,,,,,,,,,,,,,,,,,,,,,,,,,,,,,,,,,,,,,,,,,,,,,,,,
,,,,,,6151a03414a54076ff8b2720,62bbfa794c0965e18c1d44a1,2022-06-29_09h38.41.688,Colour_Asymmetry_Pilot,2022.1.3,Win32,60.05645307,62bbe60bf3d75ef465d3e404,0,23,23,31,1,fourthree,,,,,,,,,,,,,,,,,,,,,,,,,,,,,,,,,,,,,,,,,,,,,,,,,,,,,,,,,,,,,,,,,,,,,,,,,,,,,,,,,,,,,,,,,,,,,,,,,,,,,,,,,,,,,,,,,,,,,,,,,,,,,,,,,,,,,,,,,,,,,,,,,,,,,,,,
,,,,,,6151a03414a54076ff8b2720,62bbfa794c0965e18c1d44a1,2022-06-29_09h38.41.688,Colour_Asymmetry_Pilot,2022.1.3,Win32,60.05645307,62bbe60bf3d75ef465d3e404,0,24,24,59,1,twofour,,,,,,,,,,,,,,,,,,,,,,,,,,,,,,,,,,,,,,,,,,,,,,,,,,,,,,,,,,,,,,,,,,,,,,,,,,,,,,,,,,,,,,,,,,,,,,,,,,,,,,,,,,,,,,,,,,,,,,,,,,,,,,,,,,,,,,,,,,,,,,,,,,,,,,,,
,,,,,,6151a03414a54076ff8b2720,62bbfa794c0965e18c1d44a1,2022-06-29_09h38.41.688,Colour_Asymmetry_Pilot,2022.1.3,Win32,60.05645307,62bbe60bf3d75ef465d3e404,0,25,25,70,1,fourtwo,,,,,,,,,,,,,,,,,,,,,,,,,,,,,,,,,,,,,,,,,,,,,,,,,,,,,,,,,,,,,,,,,,,,,,,,,,,,,,,,,,,,,,,,,,,,,,,,,,,,,,,,,,,,,,,,,,,,,,,,,,,,,,,,,,,,,,,,,,,,,,,,,,,,,,,,
,,,,,,6151a03414a54076ff8b2720,62bbfa794c0965e18c1d44a1,2022-06-29_09h38.41.688,Colour_Asymmetry_Pilot,2022.1.3,Win32,60.05645307,62bbe60bf3d75ef465d3e404,0,26,26,131,1,twofour,,,,,,,,,,,,,,,,,,,,,,,,,,,,,,,,,,,,,,,,,,,,,,,,,,,,,,,,,,,,,,,,,,,,,,,,,,,,,,,,,,,,,,,,,,,,,,,,,,,,,,,,,,,,,,,,,,,,,,,,,,,,,,,,,,,,,,,,,,,,,,,,,,,,,,,,
,,,,,,6151a03414a54076ff8b2720,62bbfa794c0965e18c1d44a1,2022-06-29_09h38.41.688,Colour_Asymmetry_Pilot,2022.1.3,Win32,60.05645307,62bbe60bf3d75ef465d3e404,0,27,27,143,1,fourthree,,,,,,,,,,,,,,,,,,,,,,,,,,,,,,,,,,,,,,,,,,,,,,,,,,,,,,,,,,,,,,,,,,,,,,,,,,,,,,,,,,,,,,,,,,,,,,,,,,,,,,,,,,,,,,,,,,,,,,,,,,,,,,,,,,,,,,,,,,,,,,,,,,,,,,,,
,,,,,,6151a03414a54076ff8b2720,62bbfa794c0965e18c1d44a1,2022-06-29_09h38.41.688,Colour_Asymmetry_Pilot,2022.1.3,Win32,60.05645307,62bbe60bf3d75ef465d3e404,0,28,28,29,1,threefour,,,,,,,,,,,,,,,,,,,,,,,,,,,,,,,,,,,,,,,,,,,,,,,,,,,,,,,,,,,,,,,,,,,,,,,,,,,,,,,,,,,,,,,,,,,,,,,,,,,,,,,,,,,,,,,,,,,,,,,,,,,,,,,,,,,,,,,,,,,,,,,,,,,,,,,,
,,,,,,6151a03414a54076ff8b2720,62bbfa794c0965e18c1d44a1,2022-06-29_09h38.41.688,Colour_Asymmetry_Pilot,2022.1.3,Win32,60.05645307,62bbe60bf3d75ef465d3e404,0,29,29,22,1,fourtwo,,,,,,,,,,,,,,,,,,,,,,,,,,,,,,,,,,,,,,,,,,,,,,,,,,,,,,,,,,,,,,,,,,,,,,,,,,,,,,,,,,,,,,,,,,,,,,,,,,,,,,,,,,,,,,,,,,,,,,,,,,,,,,,,,,,,,,,,,,,,,,,,,,,,,,,,
,,,,,,6151a03414a54076ff8b2720,62bbfa794c0965e18c1d44a1,2022-06-29_09h38.41.688,Colour_Asymmetry_Pilot,2022.1.3,Win32,60.05645307,62bbe60bf3d75ef465d3e404,0,30,30,139,1,twofour,,,,,,,,,,,,,,,,,,,,,,,,,,,,,,,,,,,,,,,,,,,,,,,,,,,,,,,,,,,,,,,,,,,,,,,,,,,,,,,,,,,,,,,,,,,,,,,,,,,,,,,,,,,,,,,,,,,,,,,,,,,,,,,,,,,,,,,,,,,,,,,,,,,,,,,,
,,,,,,6151a03414a54076ff8b2720,62bbfa794c0965e18c1d44a1,2022-06-29_09h38.41.688,Colour_Asymmetry_Pilot,2022.1.3,Win32,60.05645307,62bbe60bf3d75ef465d3e404,0,31,31,138,1,twoone,,,,,,,,,,,,,,,,,,,,,,,,,,,,,,,,,,,,,,,,,,,,,,,,,,,,,,,,,,,,,,,,,,,,,,,,,,,,,,,,,,,,,,,,,,,,,,,,,,,,,,,,,,,,,,,,,,,,,,,,,,,,,,,,,,,,,,,,,,,,,,,,,,,,,,,,
,,,,,,6151a03414a54076ff8b2720,62bbfa794c0965e18c1d44a1,2022-06-29_09h38.41.688,Colour_Asymmetry_Pilot,2022.1.3,Win32,60.05645307,62bbe60bf3d75ef465d3e404,0,32,32,2,1,twoone,,,,,,,,,,,,,,,,,,,,,,,,,,,,,,,,,,,,,,,,,,,,,,,,,,,,,,,,,,,,,,,,,,,,,,,,,,,,,,,,,,,,,,,,,,,,,,,,,,,,,,,,,,,,,,,,,,,,,,,,,,,,,,,,,,,,,,,,,,,,,,,,,,,,,,,,
,,,,,,6151a03414a54076ff8b2720,62bbfa794c0965e18c1d44a1,2022-06-29_09h38.41.688,Colour_Asymmetry_Pilot,2022.1.3,Win32,60.05645307,62bbe60bf3d75ef465d3e404,0,33,33,153,1,onethree,,,,,,,,,,,,,,,,,,,,,,,,,,,,,,,,,,,,,,,,,,,,,,,,,,,,,,,,,,,,,,,,,,,,,,,,,,,,,,,,,,,,,,,,,,,,,,,,,,,,,,,,,,,,,,,,,,,,,,,,,,,,,,,,,,,,,,,,,,,,,,,,,,,,,,,,
,,,,,,6151a03414a54076ff8b2720,62bbfa794c0965e18c1d44a1,2022-06-29_09h38.41.688,Colour_Asymmetry_Pilot,2022.1.3,Win32,60.05645307,62bbe60bf3d75ef465d3e404,0,34,34,100,1,threeone,,,,,,,,,,,,,,,,,,,,,,,,,,,,,,,,,,,,,,,,,,,,,,,,,,,,,,,,,,,,,,,,,,,,,,,,,,,,,,,,,,,,,,,,,,,,,,,,,,,,,,,,,,,,,,,,,,,,,,,,,,,,,,,,,,,,,,,,,,,,,,,,,,,,,,,,
,,,,,,6151a03414a54076ff8b2720,62bbfa794c0965e18c1d44a1,2022-06-29_09h38.41.688,Colour_Asymmetry_Pilot,2022.1.3,Win32,60.05645307,62bbe60bf3d75ef465d3e404,0,35,35,46,1,fourtwo,,,,,,,,,,,,,,,,,,,,,,,,,,,,,,,,,,,,,,,,,,,,,,,,,,,,,,,,,,,,,,,,,,,,,,,,,,,,,,,,,,,,,,,,,,,,,,,,,,,,,,,,,,,,,,,,,,,,,,,,,,,,,,,,,,,,,,,,,,,,,,,,,,,,,,,,
,,,,,,6151a03414a54076ff8b2720,62bbfa794c0965e18c1d44a1,2022-06-29_09h38.41.688,Colour_Asymmetry_Pilot,2022.1.3,Win32,60.05645307,62bbe60bf3d75ef465d3e404,0,36,36,60,1,threeone,,,,,,,,,,,,,,,,,,,,,,,,,,,,,,,,,,,,,,,,,,,,,,,,,,,,,,,,,,,,,,,,,,,,,,,,,,,,,,,,,,,,,,,,,,,,,,,,,,,,,,,,,,,,,,,,,,,,,,,,,,,,,,,,,,,,,,,,,,,,,,,,,,,,,,,,
,,,,,,6151a03414a54076ff8b2720,62bbfa794c0965e18c1d44a1,2022-06-29_09h38.41.688,Colour_Asymmetry_Pilot,2022.1.3,Win32,60.05645307,62bbe60bf3d75ef465d3e404,0,37,37,106,1,twoone,,,,,,,,,,,,,,,,,,,,,,,,,,,,,,,,,,,,,,,,,,,,,,,,,,,,,,,,,,,,,,,,,,,,,,,,,,,,,,,,,,,,,,,,,,,,,,,,,,,,,,,,,,,,,,,,,,,,,,,,,,,,,,,,,,,,,,,,,,,,,,,,,,,,,,,,
,,,,,,6151a03414a54076ff8b2720,62bbfa794c0965e18c1d44a1,2022-06-29_09h38.41.688,Colour_Asymmetry_Pilot,2022.1.3,Win32,60.05645307,62bbe60bf3d75ef465d3e404,0,38,38,48,1,onetwo,,,,,,,,,,,,,,,,,,,,,,,,,,,,,,,,,,,,,,,,,,,,,,,,,,,,,,,,,,,,,,,,,,,,,,,,,,,,,,,,,,,,,,,,,,,,,,,,,,,,,,,,,,,,,,,,,,,,,,,,,,,,,,,,,,,,,,,,,,,,,,,,,,,,,,,,
,,,,,,6151a03414a54076ff8b2720,62bbfa794c0965e18c1d44a1,2022-06-29_09h38.41.688,Colour_Asymmetry_Pilot,2022.1.3,Win32,60.05645307,62bbe60bf3d75ef465d3e404,0,39,39,155,1,twofour,,,,,,,,,,,,,,,,,,,,,,,,,,,,,,,,,,,,,,,,,,,,,,,,,,,,,,,,,,,,,,,,,,,,,,,,,,,,,,,,,,,,,,,,,,,,,,,,,,,,,,,,,,,,,,,,,,,,,,,,,,,,,,,,,,,,,,,,,,,,,,,,,,,,,,,,
,,,,,,6151a03414a54076ff8b2720,62bbfa794c0965e18c1d44a1,2022-06-29_09h38.41.688,Colour_Asymmetry_Pilot,2022.1.3,Win32,60.05645307,62bbe60bf3d75ef465d3e404,0,40,40,101,1,threefour,,,,,,,,,,,,,,,,,,,,,,,,,,,,,,,,,,,,,,,,,,,,,,,,,,,,,,,,,,,,,,,,,,,,,,,,,,,,,,,,,,,,,,,,,,,,,,,,,,,,,,,,,,,,,,,,,,,,,,,,,,,,,,,,,,,,,,,,,,,,,,,,,,,,,,,,
,,,,,,6151a03414a54076ff8b2720,62bbfa794c0965e18c1d44a1,2022-06-29_09h38.41.688,Colour_Asymmetry_Pilot,2022.1.3,Win32,60.05645307,62bbe60bf3d75ef465d3e404,0,41,41,133,1,threefour,,,,,,,,,,,,,,,,,,,,,,,,,,,,,,,,,,,,,,,,,,,,,,,,,,,,,,,,,,,,,,,,,,,,,,,,,,,,,,,,,,,,,,,,,,,,,,,,,,,,,,,,,,,,,,,,,,,,,,,,,,,,,,,,,,,,,,,,,,,,,,,,,,,,,,,,
,,,,,,6151a03414a54076ff8b2720,62bbfa794c0965e18c1d44a1,2022-06-29_09h38.41.688,Colour_Asymmetry_Pilot,2022.1.3,Win32,60.05645307,62bbe60bf3d75ef465d3e404,0,42,42,95,1,fourthree,,,,,,,,,,,,,,,,,,,,,,,,,,,,,,,,,,,,,,,,,,,,,,,,,,,,,,,,,,,,,,,,,,,,,,,,,,,,,,,,,,,,,,,,,,,,,,,,,,,,,,,,,,,,,,,,,,,,,,,,,,,,,,,,,,,,,,,,,,,,,,,,,,,,,,,,
,,,,,,6151a03414a54076ff8b2720,62bbfa794c0965e18c1d44a1,2022-06-29_09h38.41.688,Colour_Asymmetry_Pilot,2022.1.3,Win32,60.05645307,62bbe60bf3d75ef465d3e404,0,43,43,91,1,twofour,,,,,,,,,,,,,,,,,,,,,,,,,,,,,,,,,,,,,,,,,,,,,,,,,,,,,,,,,,,,,,,,,,,,,,,,,,,,,,,,,,,,,,,,,,,,,,,,,,,,,,,,,,,,,,,,,,,,,,,,,,,,,,,,,,,,,,,,,,,,,,,,,,,,,,,,
,,,,,,6151a03414a54076ff8b2720,62bbfa794c0965e18c1d44a1,2022-06-29_09h38.41.688,Colour_Asymmetry_Pilot,2022.1.3,Win32,60.05645307,62bbe60bf3d75ef465d3e404,0,44,44,116,1,threeone,,,,,,,,,,,,,,,,,,,,,,,,,,,,,,,,,,,,,,,,,,,,,,,,,,,,,,,,,,,,,,,,,,,,,,,,,,,,,,,,,,,,,,,,,,,,,,,,,,,,,,,,,,,,,,,,,,,,,,,,,,,,,,,,,,,,,,,,,,,,,,,,,,,,,,,,
,,,,,,6151a03414a54076ff8b2720,62bbfa794c0965e18c1d44a1,2022-06-29_09h38.41.688,Colour_Asymmetry_Pilot,2022.1.3,Win32,60.05645307,62bbe60bf3d75ef465d3e404,0,45,45,156,1,threeone,,,,,,,,,,,,,,,,,,,,,,,,,,,,,,,,,,,,,,,,,,,,,,,,,,,,,,,,,,,,,,,,,,,,,,,,,,,,,,,,,,,,,,,,,,,,,,,,,,,,,,,,,,,,,,,,,,,,,,,,,,,,,,,,,,,,,,,,,,,,,,,,,,,,,,,,
,,,,,,6151a03414a54076ff8b2720,62bbfa794c0965e18c1d44a1,2022-06-29_09h38.41.688,Colour_Asymmetry_Pilot,2022.1.3,Win32,60.05645307,62bbe60bf3d75ef465d3e404,0,46,46,134,1,fourtwo,,,,,,,,,,,,,,,,,,,,,,,,,,,,,,,,,,,,,,,,,,,,,,,,,,,,,,,,,,,,,,,,,,,,,,,,,,,,,,,,,,,,,,,,,,,,,,,,,,,,,,,,,,,,,,,,,,,,,,,,,,,,,,,,,,,,,,,,,,,,,,,,,,,,,,,,
,,,,,,6151a03414a54076ff8b2720,62bbfa794c0965e18c1d44a1,2022-06-29_09h38.41.688,Colour_Asymmetry_Pilot,2022.1.3,Win32,60.05645307,62bbe60bf3d75ef465d3e404,0,47,47,58,1,twoone,,,,,,,,,,,,,,,,,,,,,,,,,,,,,,,,,,,,,,,,,,,,,,,,,,,,,,,,,,,,,,,,,,,,,,,,,,,,,,,,,,,,,,,,,,,,,,,,,,,,,,,,,,,,,,,,,,,,,,,,,,,,,,,,,,,,,,,,,,,,,,,,,,,,,,,,
,,,,,,6151a03414a54076ff8b2720,62bbfa794c0965e18c1d44a1,2022-06-29_09h38.41.688,Colour_Asymmetry_Pilot,2022.1.3,Win32,60.05645307,62bbe60bf3d75ef465d3e404,0,48,48,11,1,twofour,,,,,,,,,,,,,,,,,,,,,,,,,,,,,,,,,,,,,,,,,,,,,,,,,,,,,,,,,,,,,,,,,,,,,,,,,,,,,,,,,,,,,,,,,,,,,,,,,,,,,,,,,,,,,,,,,,,,,,,,,,,,,,,,,,,,,,,,,,,,,,,,,,,,,,,,
,,,,,,6151a03414a54076ff8b2720,62bbfa794c0965e18c1d44a1,2022-06-29_09h38.41.688,Colour_Asymmetry_Pilot,2022.1.3,Win32,60.05645307,62bbe60bf3d75ef465d3e404,0,49,49,142,1,fourtwo,,,,,,,,,,,,,,,,,,,,,,,,,,,,,,,,,,,,,,,,,,,,,,,,,,,,,,,,,,,,,,,,,,,,,,,,,,,,,,,,,,,,,,,,,,,,,,,,,,,,,,,,,,,,,,,,,,,,,,,,,,,,,,,,,,,,,,,,,,,,,,,,,,,,,,,,
,,,,,,6151a03414a54076ff8b2720,62bbfa794c0965e18c1d44a1,2022-06-29_09h38.41.688,Colour_Asymmetry_Pilot,2022.1.3,Win32,60.05645307,62bbe60bf3d75ef465d3e404,0,50,50,39,1,fourthree,,,,,,,,,,,,,,,,,,,,,,,,,,,,,,,,,,,,,,,,,,,,,,,,,,,,,,,,,,,,,,,,,,,,,,,,,,,,,,,,,,,,,,,,,,,,,,,,,,,,,,,,,,,,,,,,,,,,,,,,,,,,,,,,,,,,,,,,,,,,,,,,,,,,,,,,
,,,,,,6151a03414a54076ff8b2720,62bbfa794c0965e18c1d44a1,2022-06-29_09h38.41.688,Colour_Asymmetry_Pilot,2022.1.3,Win32,60.05645307,62bbe60bf3d75ef465d3e404,0,51,51,123,1,twofour,,,,,,,,,,,,,,,,,,,,,,,,,,,,,,,,,,,,,,,,,,,,,,,,,,,,,,,,,,,,,,,,,,,,,,,,,,,,,,,,,,,,,,,,,,,,,,,,,,,,,,,,,,,,,,,,,,,,,,,,,,,,,,,,,,,,,,,,,,,,,,,,,,,,,,,,
,,,,,,6151a03414a54076ff8b2720,62bbfa794c0965e18c1d44a1,2022-06-29_09h38.41.688,Colour_Asymmetry_Pilot,2022.1.3,Win32,60.05645307,62bbe60bf3d75ef465d3e404,0,52,52,141,1,threefour,,,,,,,,,,,,,,,,,,,,,,,,,,,,,,,,,,,,,,,,,,,,,,,,,,,,,,,,,,,,,,,,,,,,,,,,,,,,,,,,,,,,,,,,,,,,,,,,,,,,,,,,,,,,,,,,,,,,,,,,,,,,,,,,,,,,,,,,,,,,,,,,,,,,,,,,
,,,,,,6151a03414a54076ff8b2720,62bbfa794c0965e18c1d44a1,2022-06-29_09h38.41.688,Colour_Asymmetry_Pilot,2022.1.3,Win32,60.05645307,62bbe60bf3d75ef465d3e404,0,53,53,52,1,threeone,,,,,,,,,,,,,,,,,,,,,,,,,,,,,,,,,,,,,,,,,,,,,,,,,,,,,,,,,,,,,,,,,,,,,,,,,,,,,,,,,,,,,,,,,,,,,,,,,,,,,,,,,,,,,,,,,,,,,,,,,,,,,,,,,,,,,,,,,,,,,,,,,,,,,,,,
,,,,,,6151a03414a54076ff8b2720,62bbfa794c0965e18c1d44a1,2022-06-29_09h38.41.688,Colour_Asymmetry_Pilot,2022.1.3,Win32,60.05645307,62bbe60bf3d75ef465d3e404,0,54,54,50,1,twoone,,,,,,,,,,,,,,,,,,,,,,,,,,,,,,,,,,,,,,,,,,,,,,,,,,,,,,,,,,,,,,,,,,,,,,,,,,,,,,,,,,,,,,,,,,,,,,,,,,,,,,,,,,,,,,,,,,,,,,,,,,,,,,,,,,,,,,,,,,,,,,,,,,,,,,,,
,,,,,,6151a03414a54076ff8b2720,62bbfa794c0965e18c1d44a1,2022-06-29_09h38.41.688,Colour_Asymmetry_Pilot,2022.1.3,Win32,60.05645307,62bbe60bf3d75ef465d3e404,0,55,55,86,1,fourtwo,,,,,,,,,,,,,,,,,,,,,,,,,,,,,,,,,,,,,,,,,,,,,,,,,,,,,,,,,,,,,,,,,,,,,,,,,,,,,,,,,,,,,,,,,,,,,,,,,,,,,,,,,,,,,,,,,,,,,,,,,,,,,,,,,,,,,,,,,,,,,,,,,,,,,,,,
,,,,,,6151a03414a54076ff8b2720,62bbfa794c0965e18c1d44a1,2022-06-29_09h38.41.688,Colour_Asymmetry_Pilot,2022.1.3,Win32,60.05645307,62bbe60bf3d75ef465d3e404,0,56,56,23,1,fourthree,,,,,,,,,,,,,,,,,,,,,,,,,,,,,,,,,,,,,,,,,,,,,,,,,,,,,,,,,,,,,,,,,,,,,,,,,,,,,,,,,,,,,,,,,,,,,,,,,,,,,,,,,,,,,,,,,,,,,,,,,,,,,,,,,,,,,,,,,,,,,,,,,,,,,,,,
,,,,,,6151a03414a54076ff8b2720,62bbfa794c0965e18c1d44a1,2022-06-29_09h38.41.688,Colour_Asymmetry_Pilot,2022.1.3,Win32,60.05645307,62bbe60bf3d75ef465d3e404,0,57,57,30,1,fourtwo,,,,,,,,,,,,,,,,,,,,,,,,,,,,,,,,,,,,,,,,,,,,,,,,,,,,,,,,,,,,,,,,,,,,,,,,,,,,,,,,,,,,,,,,,,,,,,,,,,,,,,,,,,,,,,,,,,,,,,,,,,,,,,,,,,,,,,,,,,,,,,,,,,,,,,,,
,,,,,,6151a03414a54076ff8b2720,62bbfa794c0965e18c1d44a1,2022-06-29_09h38.41.688,Colour_Asymmetry_Pilot,2022.1.3,Win32,60.05645307,62bbe60bf3d75ef465d3e404,0,58,58,20,1,threeone,,,,,,,,,,,,,,,,,,,,,,,,,,,,,,,,,,,,,,,,,,,,,,,,,,,,,,,,,,,,,,,,,,,,,,,,,,,,,,,,,,,,,,,,,,,,,,,,,,,,,,,,,,,,,,,,,,,,,,,,,,,,,,,,,,,,,,,,,,,,,,,,,,,,,,,,
,,,,,,6151a03414a54076ff8b2720,62bbfa794c0965e18c1d44a1,2022-06-29_09h38.41.688,Colour_Asymmetry_Pilot,2022.1.3,Win32,60.05645307,62bbe60bf3d75ef465d3e404,0,59,59,115,1,twofour,,,,,,,,,,,,,,,,,,,,,,,,,,,,,,,,,,,,,,,,,,,,,,,,,,,,,,,,,,,,,,,,,,,,,,,,,,,,,,,,,,,,,,,,,,,,,,,,,,,,,,,,,,,,,,,,,,,,,,,,,,,,,,,,,,,,,,,,,,,,,,,,,,,,,,,,
,,,,,,6151a03414a54076ff8b2720,62bbfa794c0965e18c1d44a1,2022-06-29_09h38.41.688,Colour_Asymmetry_Pilot,2022.1.3,Win32,60.05645307,62bbe60bf3d75ef465d3e404,0,60,60,149,1,threefour,,,,,,,,,,,,,,,,,,,,,,,,,,,,,,,,,,,,,,,,,,,,,,,,,,,,,,,,,,,,,,,,,,,,,,,,,,,,,,,,,,,,,,,,,,,,,,,,,,,,,,,,,,,,,,,,,,,,,,,,,,,,,,,,,,,,,,,,,,,,,,,,,,,,,,,,
,,,,,,6151a03414a54076ff8b2720,62bbfa794c0965e18c1d44a1,2022-06-29_09h38.41.688,Colour_Asymmetry_Pilot,2022.1.3,Win32,60.05645307,62bbe60bf3d75ef465d3e404,0,61,61,15,1,fourthree,,,,,,,,,,,,,,,,,,,,,,,,,,,,,,,,,,,,,,,,,,,,,,,,,,,,,,,,,,,,,,,,,,,,,,,,,,,,,,,,,,,,,,,,,,,,,,,,,,,,,,,,,,,,,,,,,,,,,,,,,,,,,,,,,,,,,,,,,,,,,,,,,,,,,,,,
,,,,,,6151a03414a54076ff8b2720,62bbfa794c0965e18c1d44a1,2022-06-29_09h38.41.688,Colour_Asymmetry_Pilot,2022.1.3,Win32,60.05645307,62bbe60bf3d75ef465d3e404,0,62,62,94,1,fourtwo,,,,,,,,,,,,,,,,,,,,,,,,,,,,,,,,,,,,,,,,,,,,,,,,,,,,,,,,,,,,,,,,,,,,,,,,,,,,,,,,,,,,,,,,,,,,,,,,,,,,,,,,,,,,,,,,,,,,,,,,,,,,,,,,,,,,,,,,,,,,,,,,,,,,,,,,
,,,,,,6151a03414a54076ff8b2720,62bbfa794c0965e18c1d44a1,2022-06-29_09h38.41.688,Colour_Asymmetry_Pilot,2022.1.3,Win32,60.05645307,62bbe60bf3d75ef465d3e404,0,63,63,93,1,threefour,,,,,,,,,,,,,,,,,,,,,,,,,,,,,,,,,,,,,,,,,,,,,,,,,,,,,,,,,,,,,,,,,,,,,,,,,,,,,,,,,,,,,,,,,,,,,,,,,,,,,,,,,,,,,,,,,,,,,,,,,,,,,,,,,,,,,,,,,,,,,,,,,,,,,,,,
,,,,,,6151a03414a54076ff8b2720,62bbfa794c0965e18c1d44a1,2022-06-29_09h38.41.688,Colour_Asymmetry_Pilot,2022.1.3,Win32,60.05645307,62bbe60bf3d75ef465d3e404,0,64,64,158,1,fourtwo,,,,,,,,,,,,,,,,,,,,,,,,,,,,,,,,,,,,,,,,,,,,,,,,,,,,,,,,,,,,,,,,,,,,,,,,,,,,,,,,,,,,,,,,,,,,,,,,,,,,,,,,,,,,,,,,,,,,,,,,,,,,,,,,,,,,,,,,,,,,,,,,,,,,,,,,
,,,,,,6151a03414a54076ff8b2720,62bbfa794c0965e18c1d44a1,2022-06-29_09h38.41.688,Colour_Asymmetry_Pilot,2022.1.3,Win32,60.05645307,62bbe60bf3d75ef465d3e404,0,65,65,128,1,onetwo,,,,,,,,,,,,,,,,,,,,,,,,,,,,,,,,,,,,,,,,,,,,,,,,,,,,,,,,,,,,,,,,,,,,,,,,,,,,,,,,,,,,,,,,,,,,,,,,,,,,,,,,,,,,,,,,,,,,,,,,,,,,,,,,,,,,,,,,,,,,,,,,,,,,,,,,
,,,,,,6151a03414a54076ff8b2720,62bbfa794c0965e18c1d44a1,2022-06-29_09h38.41.688,Colour_Asymmetry_Pilot,2022.1.3,Win32,60.05645307,62bbe60bf3d75ef465d3e404,0,66,66,73,1,onethree,,,,,,,,,,,,,,,,,,,,,,,,,,,,,,,,,,,,,,,,,,,,,,,,,,,,,,,,,,,,,,,,,,,,,,,,,,,,,,,,,,,,,,,,,,,,,,,,,,,,,,,,,,,,,,,,,,,,,,,,,,,,,,,,,,,,,,,,,,,,,,,,,,,,,,,,
,,,,,,6151a03414a54076ff8b2720,62bbfa794c0965e18c1d44a1,2022-06-29_09h38.41.688,Colour_Asymmetry_Pilot,2022.1.3,Win32,60.05645307,62bbe60bf3d75ef465d3e404,0,67,67,127,1,fourthree,,,,,,,,,,,,,,,,,,,,,,,,,,,,,,,,,,,,,,,,,,,,,,,,,,,,,,,,,,,,,,,,,,,,,,,,,,,,,,,,,,,,,,,,,,,,,,,,,,,,,,,,,,,,,,,,,,,,,,,,,,,,,,,,,,,,,,,,,,,,,,,,,,,,,,,,
,,,,,,6151a03414a54076ff8b2720,62bbfa794c0965e18c1d44a1,2022-06-29_09h38.41.688,Colour_Asymmetry_Pilot,2022.1.3,Win32,60.05645307,62bbe60bf3d75ef465d3e404,0,68,68,97,1,onethree,,,,,,,,,,,,,,,,,,,,,,,,,,,,,,,,,,,,,,,,,,,,,,,,,,,,,,,,,,,,,,,,,,,,,,,,,,,,,,,,,,,,,,,,,,,,,,,,,,,,,,,,,,,,,,,,,,,,,,,,,,,,,,,,,,,,,,,,,,,,,,,,,,,,,,,,
,,,,,,6151a03414a54076ff8b2720,62bbfa794c0965e18c1d44a1,2022-06-29_09h38.41.688,Colour_Asymmetry_Pilot,2022.1.3,Win32,60.05645307,62bbe60bf3d75ef465d3e404,0,69,69,18,1,twoone,,,,,,,,,,,,,,,,,,,,,,,,,,,,,,,,,,,,,,,,,,,,,,,,,,,,,,,,,,,,,,,,,,,,,,,,,,,,,,,,,,,,,,,,,,,,,,,,,,,,,,,,,,,,,,,,,,,,,,,,,,,,,,,,,,,,,,,,,,,,,,,,,,,,,,,,
,,,,,,6151a03414a54076ff8b2720,62bbfa794c0965e18c1d44a1,2022-06-29_09h38.41.688,Colour_Asymmetry_Pilot,2022.1.3,Win32,60.05645307,62bbe60bf3d75ef465d3e404,0,70,70,16,1,onetwo,,,,,,,,,,,,,,,,,,,,,,,,,,,,,,,,,,,,,,,,,,,,,,,,,,,,,,,,,,,,,,,,,,,,,,,,,,,,,,,,,,,,,,,,,,,,,,,,,,,,,,,,,,,,,,,,,,,,,,,,,,,,,,,,,,,,,,,,,,,,,,,,,,,,,,,,
,,,,,,6151a03414a54076ff8b2720,62bbfa794c0965e18c1d44a1,2022-06-29_09h38.41.688,Colour_Asymmetry_Pilot,2022.1.3,Win32,60.05645307,62bbe60bf3d75ef465d3e404,0,71,71,126,1,fourtwo,,,,,,,,,,,,,,,,,,,,,,,,,,,,,,,,,,,,,,,,,,,,,,,,,,,,,,,,,,,,,,,,,,,,,,,,,,,,,,,,,,,,,,,,,,,,,,,,,,,,,,,,,,,,,,,,,,,,,,,,,,,,,,,,,,,,,,,,,,,,,,,,,,,,,,,,
,,,,,,6151a03414a54076ff8b2720,62bbfa794c0965e18c1d44a1,2022-06-29_09h38.41.688,Colour_Asymmetry_Pilot,2022.1.3,Win32,60.05645307,62bbe60bf3d75ef465d3e404,0,72,72,104,1,onetwo,,,,,,,,,,,,,,,,,,,,,,,,,,,,,,,,,,,,,,,,,,,,,,,,,,,,,,,,,,,,,,,,,,,,,,,,,,,,,,,,,,,,,,,,,,,,,,,,,,,,,,,,,,,,,,,,,,,,,,,,,,,,,,,,,,,,,,,,,,,,,,,,,,,,,,,,
,,,,,,6151a03414a54076ff8b2720,62bbfa794c0965e18c1d44a1,2022-06-29_09h38.41.688,Colour_Asymmetry_Pilot,2022.1.3,Win32,60.05645307,62bbe60bf3d75ef465d3e404,0,73,73,35,1,twofour,,,,,,,,,,,,,,,,,,,,,,,,,,,,,,,,,,,,,,,,,,,,,,,,,,,,,,,,,,,,,,,,,,,,,,,,,,,,,,,,,,,,,,,,,,,,,,,,,,,,,,,,,,,,,,,,,,,,,,,,,,,,,,,,,,,,,,,,,,,,,,,,,,,,,,,,
,,,,,,6151a03414a54076ff8b2720,62bbfa794c0965e18c1d44a1,2022-06-29_09h38.41.688,Colour_Asymmetry_Pilot,2022.1.3,Win32,60.05645307,62bbe60bf3d75ef465d3e404,0,74,74,10,1,twoone,,,,,,,,,,,,,,,,,,,,,,,,,,,,,,,,,,,,,,,,,,,,,,,,,,,,,,,,,,,,,,,,,,,,,,,,,,,,,,,,,,,,,,,,,,,,,,,,,,,,,,,,,,,,,,,,,,,,,,,,,,,,,,,,,,,,,,,,,,,,,,,,,,,,,,,,
,,,,,,6151a03414a54076ff8b2720,62bbfa794c0965e18c1d44a1,2022-06-29_09h38.41.688,Colour_Asymmetry_Pilot,2022.1.3,Win32,60.05645307,62bbe60bf3d75ef465d3e404,0,75,75,159,1,fourthree,,,,,,,,,,,,,,,,,,,,,,,,,,,,,,,,,,,,,,,,,,,,,,,,,,,,,,,,,,,,,,,,,,,,,,,,,,,,,,,,,,,,,,,,,,,,,,,,,,,,,,,,,,,,,,,,,,,,,,,,,,,,,,,,,,,,,,,,,,,,,,,,,,,,,,,,
,,,,,,6151a03414a54076ff8b2720,62bbfa794c0965e18c1d44a1,2022-06-29_09h38.41.688,Colour_Asymmetry_Pilot,2022.1.3,Win32,60.05645307,62bbe60bf3d75ef465d3e404,0,76,76,7,1,fourthree,,,,,,,,,,,,,,,,,,,,,,,,,,,,,,,,,,,,,,,,,,,,,,,,,,,,,,,,,,,,,,,,,,,,,,,,,,,,,,,,,,,,,,,,,,,,,,,,,,,,,,,,,,,,,,,,,,,,,,,,,,,,,,,,,,,,,,,,,,,,,,,,,,,,,,,,
,,,,,,6151a03414a54076ff8b2720,62bbfa794c0965e18c1d44a1,2022-06-29_09h38.41.688,Colour_Asymmetry_Pilot,2022.1.3,Win32,60.05645307,62bbe60bf3d75ef465d3e404,0,77,77,27,1,twofour,,,,,,,,,,,,,,,,,,,,,,,,,,,,,,,,,,,,,,,,,,,,,,,,,,,,,,,,,,,,,,,,,,,,,,,,,,,,,,,,,,,,,,,,,,,,,,,,,,,,,,,,,,,,,,,,,,,,,,,,,,,,,,,,,,,,,,,,,,,,,,,,,,,,,,,,
,,,,,,6151a03414a54076ff8b2720,62bbfa794c0965e18c1d44a1,2022-06-29_09h38.41.688,Colour_Asymmetry_Pilot,2022.1.3,Win32,60.05645307,62bbe60bf3d75ef465d3e404,0,78,78,45,1,threefour,,,,,,,,,,,,,,,,,,,,,,,,,,,,,,,,,,,,,,,,,,,,,,,,,,,,,,,,,,,,,,,,,,,,,,,,,,,,,,,,,,,,,,,,,,,,,,,,,,,,,,,,,,,,,,,,,,,,,,,,,,,,,,,,,,,,,,,,,,,,,,,,,,,,,,,,
,,,,,,6151a03414a54076ff8b2720,62bbfa794c0965e18c1d44a1,2022-06-29_09h38.41.688,Colour_Asymmetry_Pilot,2022.1.3,Win32,60.05645307,62bbe60bf3d75ef465d3e404,0,79,79,63,1,fourthree,,,,,,,,,,,,,,,,,,,,,,,,,,,,,,,,,,,,,,,,,,,,,,,,,,,,,,,,,,,,,,,,,,,,,,,,,,,,,,,,,,,,,,,,,,,,,,,,,,,,,,,,,,,,,,,,,,,,,,,,,,,,,,,,,,,,,,,,,,,,,,,,,,,,,,,,
,,,,,,6151a03414a54076ff8b2720,62bbfa794c0965e18c1d44a1,2022-06-29_09h38.41.688,Colour_Asymmetry_Pilot,2022.1.3,Win32,60.05645307,62bbe60bf3d75ef465d3e404,0,80,80,6,1,fourtwo,,,,,,,,,,,,,,,,,,,,,,,,,,,,,,,,,,,,,,,,,,,,,,,,,,,,,,,,,,,,,,,,,,,,,,,,,,,,,,,,,,,,,,,,,,,,,,,,,,,,,,,,,,,,,,,,,,,,,,,,,,,,,,,,,,,,,,,,,,,,,,,,,,,,,,,,
,,,,,,6151a03414a54076ff8b2720,62bbfa794c0965e18c1d44a1,2022-06-29_09h38.41.688,Colour_Asymmetry_Pilot,2022.1.3,Win32,60.05645307,62bbe60bf3d75ef465d3e404,0,81,81,19,1,twofour,,,,,,,,,,,,,,,,,,,,,,,,,,,,,,,,,,,,,,,,,,,,,,,,,,,,,,,,,,,,,,,,,,,,,,,,,,,,,,,,,,,,,,,,,,,,,,,,,,,,,,,,,,,,,,,,,,,,,,,,,,,,,,,,,,,,,,,,,,,,,,,,,,,,,,,,
,,,,,,6151a03414a54076ff8b2720,62bbfa794c0965e18c1d44a1,2022-06-29_09h38.41.688,Colour_Asymmetry_Pilot,2022.1.3,Win32,60.05645307,62bbe60bf3d75ef465d3e404,0,82,82,146,1,twoone,,,,,,,,,,,,,,,,,,,,,,,,,,,,,,,,,,,,,,,,,,,,,,,,,,,,,,,,,,,,,,,,,,,,,,,,,,,,,,,,,,,,,,,,,,,,,,,,,,,,,,,,,,,,,,,,,,,,,,,,,,,,,,,,,,,,,,,,,,,,,,,,,,,,,,,,
,,,,,,6151a03414a54076ff8b2720,62bbfa794c0965e18c1d44a1,2022-06-29_09h38.41.688,Colour_Asymmetry_Pilot,2022.1.3,Win32,60.05645307,62bbe60bf3d75ef465d3e404,0,83,83,1,1,onethree,,,,,,,,,,,,,,,,,,,,,,,,,,,,,,,,,,,,,,,,,,,,,,,,,,,,,,,,,,,,,,,,,,,,,,,,,,,,,,,,,,,,,,,,,,,,,,,,,,,,,,,,,,,,,,,,,,,,,,,,,,,,,,,,,,,,,,,,,,,,,,,,,,,,,,,,
,,,,,,6151a03414a54076ff8b2720,62bbfa794c0965e18c1d44a1,2022-06-29_09h38.41.688,Colour_Asymmetry_Pilot,2022.1.3,Win32,60.05645307,62bbe60bf3d75ef465d3e404,0,84,84,28,1,threeone,,,,,,,,,,,,,,,,,,,,,,,,,,,,,,,,,,,,,,,,,,,,,,,,,,,,,,,,,,,,,,,,,,,,,,,,,,,,,,,,,,,,,,,,,,,,,,,,,,,,,,,,,,,,,,,,,,,,,,,,,,,,,,,,,,,,,,,,,,,,,,,,,,,,,,,,
,,,,,,6151a03414a54076ff8b2720,62bbfa794c0965e18c1d44a1,2022-06-29_09h38.41.688,Colour_Asymmetry_Pilot,2022.1.3,Win32,60.05645307,62bbe60bf3d75ef465d3e404,0,85,85,68,1,threeone,,,,,,,,,,,,,,,,,,,,,,,,,,,,,,,,,,,,,,,,,,,,,,,,,,,,,,,,,,,,,,,,,,,,,,,,,,,,,,,,,,,,,,,,,,,,,,,,,,,,,,,,,,,,,,,,,,,,,,,,,,,,,,,,,,,,,,,,,,,,,,,,,,,,,,,,
,,,,,,6151a03414a54076ff8b2720,62bbfa794c0965e18c1d44a1,2022-06-29_09h38.41.688,Colour_Asymmetry_Pilot,2022.1.3,Win32,60.05645307,62bbe60bf3d75ef465d3e404,0,86,86,98,1,twoone,,,,,,,,,,,,,,,,,,,,,,,,,,,,,,,,,,,,,,,,,,,,,,,,,,,,,,,,,,,,,,,,,,,,,,,,,,,,,,,,,,,,,,,,,,,,,,,,,,,,,,,,,,,,,,,,,,,,,,,,,,,,,,,,,,,,,,,,,,,,,,,,,,,,,,,,
,,,,,,6151a03414a54076ff8b2720,62bbfa794c0965e18c1d44a1,2022-06-29_09h38.41.688,Colour_Asymmetry_Pilot,2022.1.3,Win32,60.05645307,62bbe60bf3d75ef465d3e404,0,87,87,64,1,onetwo,,,,,,,,,,,,,,,,,,,,,,,,,,,,,,,,,,,,,,,,,,,,,,,,,,,,,,,,,,,,,,,,,,,,,,,,,,,,,,,,,,,,,,,,,,,,,,,,,,,,,,,,,,,,,,,,,,,,,,,,,,,,,,,,,,,,,,,,,,,,,,,,,,,,,,,,
,,,,,,6151a03414a54076ff8b2720,62bbfa794c0965e18c1d44a1,2022-06-29_09h38.41.688,Colour_Asymmetry_Pilot,2022.1.3,Win32,60.05645307,62bbe60bf3d75ef465d3e404,0,88,88,145,1,onethree,,,,,,,,,,,,,,,,,,,,,,,,,,,,,,,,,,,,,,,,,,,,,,,,,,,,,,,,,,,,,,,,,,,,,,,,,,,,,,,,,,,,,,,,,,,,,,,,,,,,,,,,,,,,,,,,,,,,,,,,,,,,,,,,,,,,,,,,,,,,,,,,,,,,,,,,
,,,,,,6151a03414a54076ff8b2720,62bbfa794c0965e18c1d44a1,2022-06-29_09h38.41.688,Colour_Asymmetry_Pilot,2022.1.3,Win32,60.05645307,62bbe60bf3d75ef465d3e404,0,89,89,79,1,fourthree,,,,,,,,,,,,,,,,,,,,,,,,,,,,,,,,,,,,,,,,,,,,,,,,,,,,,,,,,,,,,,,,,,,,,,,,,,,,,,,,,,,,,,,,,,,,,,,,,,,,,,,,,,,,,,,,,,,,,,,,,,,,,,,,,,,,,,,,,,,,,,,,,,,,,,,,
,,,,,,6151a03414a54076ff8b2720,62bbfa794c0965e18c1d44a1,2022-06-29_09h38.41.688,Colour_Asymmetry_Pilot,2022.1.3,Win32,60.05645307,62bbe60bf3d75ef465d3e404,0,90,90,148,1,threeone,,,,,,,,,,,,,,,,,,,,,,,,,,,,,,,,,,,,,,,,,,,,,,,,,,,,,,,,,,,,,,,,,,,,,,,,,,,,,,,,,,,,,,,,,,,,,,,,,,,,,,,,,,,,,,,,,,,,,,,,,,,,,,,,,,,,,,,,,,,,,,,,,,,,,,,,
,,,,,,6151a03414a54076ff8b2720,62bbfa794c0965e18c1d44a1,2022-06-29_09h38.41.688,Colour_Asymmetry_Pilot,2022.1.3,Win32,60.05645307,62bbe60bf3d75ef465d3e404,0,91,91,90,1,twoone,,,,,,,,,,,,,,,,,,,,,,,,,,,,,,,,,,,,,,,,,,,,,,,,,,,,,,,,,,,,,,,,,,,,,,,,,,,,,,,,,,,,,,,,,,,,,,,,,,,,,,,,,,,,,,,,,,,,,,,,,,,,,,,,,,,,,,,,,,,,,,,,,,,,,,,,
,,,,,,6151a03414a54076ff8b2720,62bbfa794c0965e18c1d44a1,2022-06-29_09h38.41.688,Colour_Asymmetry_Pilot,2022.1.3,Win32,60.05645307,62bbe60bf3d75ef465d3e404,0,92,92,130,1,twoone,,,,,,,,,,,,,,,,,,,,,,,,,,,,,,,,,,,,,,,,,,,,,,,,,,,,,,,,,,,,,,,,,,,,,,,,,,,,,,,,,,,,,,,,,,,,,,,,,,,,,,,,,,,,,,,,,,,,,,,,,,,,,,,,,,,,,,,,,,,,,,,,,,,,,,,,
,,,,,,6151a03414a54076ff8b2720,62bbfa794c0965e18c1d44a1,2022-06-29_09h38.41.688,Colour_Asymmetry_Pilot,2022.1.3,Win32,60.05645307,62bbe60bf3d75ef465d3e404,0,93,93,96,1,onetwo,,,,,,,,,,,,,,,,,,,,,,,,,,,,,,,,,,,,,,,,,,,,,,,,,,,,,,,,,,,,,,,,,,,,,,,,,,,,,,,,,,,,,,,,,,,,,,,,,,,,,,,,,,,,,,,,,,,,,,,,,,,,,,,,,,,,,,,,,,,,,,,,,,,,,,,,
,,,,,,6151a03414a54076ff8b2720,62bbfa794c0965e18c1d44a1,2022-06-29_09h38.41.688,Colour_Asymmetry_Pilot,2022.1.3,Win32,60.05645307,62bbe60bf3d75ef465d3e404,0,94,94,67,1,twofour,,,,,,,,,,,,,,,,,,,,,,,,,,,,,,,,,,,,,,,,,,,,,,,,,,,,,,,,,,,,,,,,,,,,,,,,,,,,,,,,,,,,,,,,,,,,,,,,,,,,,,,,,,,,,,,,,,,,,,,,,,,,,,,,,,,,,,,,,,,,,,,,,,,,,,,,
,,,,,,6151a03414a54076ff8b2720,62bbfa794c0965e18c1d44a1,2022-06-29_09h38.41.688,Colour_Asymmetry_Pilot,2022.1.3,Win32,60.05645307,62bbe60bf3d75ef465d3e404,0,95,95,9,1,onethree,,,,,,,,,,,,,,,,,,,,,,,,,,,,,,,,,,,,,,,,,,,,,,,,,,,,,,,,,,,,,,,,,,,,,,,,,,,,,,,,,,,,,,,,,,,,,,,,,,,,,,,,,,,,,,,,,,,,,,,,,,,,,,,,,,,,,,,,,,,,,,,,,,,,,,,,
,,,,,,6151a03414a54076ff8b2720,62bbfa794c0965e18c1d44a1,2022-06-29_09h38.41.688,Colour_Asymmetry_Pilot,2022.1.3,Win32,60.05645307,62bbe60bf3d75ef465d3e404,0,96,96,51,1,twofour,,,,,,,,,,,,,,,,,,,,,,,,,,,,,,,,,,,,,,,,,,,,,,,,,,,,,,,,,,,,,,,,,,,,,,,,,,,,,,,,,,,,,,,,,,,,,,,,,,,,,,,,,,,,,,,,,,,,,,,,,,,,,,,,,,,,,,,,,,,,,,,,,,,,,,,,
,,,,,,6151a03414a54076ff8b2720,62bbfa794c0965e18c1d44a1,2022-06-29_09h38.41.688,Colour_Asymmetry_Pilot,2022.1.3,Win32,60.05645307,62bbe60bf3d75ef465d3e404,0,97,97,69,1,threefour,,,,,,,,,,,,,,,,,,,,,,,,,,,,,,,,,,,,,,,,,,,,,,,,,,,,,,,,,,,,,,,,,,,,,,,,,,,,,,,,,,,,,,,,,,,,,,,,,,,,,,,,,,,,,,,,,,,,,,,,,,,,,,,,,,,,,,,,,,,,,,,,,,,,,,,,
,,,,,,6151a03414a54076ff8b2720,62bbfa794c0965e18c1d44a1,2022-06-29_09h38.41.688,Colour_Asymmetry_Pilot,2022.1.3,Win32,60.05645307,62bbe60bf3d75ef465d3e404,0,98,98,34,1,twoone,,,,,,,,,,,,,,,,,,,,,,,,,,,,,,,,,,,,,,,,,,,,,,,,,,,,,,,,,,,,,,,,,,,,,,,,,,,,,,,,,,,,,,,,,,,,,,,,,,,,,,,,,,,,,,,,,,,,,,,,,,,,,,,,,,,,,,,,,,,,,,,,,,,,,,,,
,,,,,,6151a03414a54076ff8b2720,62bbfa794c0965e18c1d44a1,2022-06-29_09h38.41.688,Colour_Asymmetry_Pilot,2022.1.3,Win32,60.05645307,62bbe60bf3d75ef465d3e404,0,99,99,32,1,onetwo,,,,,,,,,,,,,,,,,,,,,,,,,,,,,,,,,,,,,,,,,,,,,,,,,,,,,,,,,,,,,,,,,,,,,,,,,,,,,,,,,,,,,,,,,,,,,,,,,,,,,,,,,,,,,,,,,,,,,,,,,,,,,,,,,,,,,,,,,,,,,,,,,,,,,,,,
,,,,,,6151a03414a54076ff8b2720,62bbfa794c0965e18c1d44a1,2022-06-29_09h38.41.688,Colour_Asymmetry_Pilot,2022.1.3,Win32,60.05645307,62bbe60bf3d75ef465d3e404,0,100,100,125,1,threefour,,,,,,,,,,,,,,,,,,,,,,,,,,,,,,,,,,,,,,,,,,,,,,,,,,,,,,,,,,,,,,,,,,,,,,,,,,,,,,,,,,,,,,,,,,,,,,,,,,,,,,,,,,,,,,,,,,,,,,,,,,,,,,,,,,,,,,,,,,,,,,,,,,,,,,,,
,,,,,,6151a03414a54076ff8b2720,62bbfa794c0965e18c1d44a1,2022-06-29_09h38.41.688,Colour_Asymmetry_Pilot,2022.1.3,Win32,60.05645307,62bbe60bf3d75ef465d3e404,0,101,101,66,1,twoone,,,,,,,,,,,,,,,,,,,,,,,,,,,,,,,,,,,,,,,,,,,,,,,,,,,,,,,,,,,,,,,,,,,,,,,,,,,,,,,,,,,,,,,,,,,,,,,,,,,,,,,,,,,,,,,,,,,,,,,,,,,,,,,,,,,,,,,,,,,,,,,,,,,,,,,,
,,,,,,6151a03414a54076ff8b2720,62bbfa794c0965e18c1d44a1,2022-06-29_09h38.41.688,Colour_Asymmetry_Pilot,2022.1.3,Win32,60.05645307,62bbe60bf3d75ef465d3e404,0,102,102,25,1,onethree,,,,,,,,,,,,,,,,,,,,,,,,,,,,,,,,,,,,,,,,,,,,,,,,,,,,,,,,,,,,,,,,,,,,,,,,,,,,,,,,,,,,,,,,,,,,,,,,,,,,,,,,,,,,,,,,,,,,,,,,,,,,,,,,,,,,,,,,,,,,,,,,,,,,,,,,
,,,,,,6151a03414a54076ff8b2720,62bbfa794c0965e18c1d44a1,2022-06-29_09h38.41.688,Colour_Asymmetry_Pilot,2022.1.3,Win32,60.05645307,62bbe60bf3d75ef465d3e404,0,103,103,81,1,onethree,,,,,,,,,,,,,,,,,,,,,,,,,,,,,,,,,,,,,,,,,,,,,,,,,,,,,,,,,,,,,,,,,,,,,,,,,,,,,,,,,,,,,,,,,,,,,,,,,,,,,,,,,,,,,,,,,,,,,,,,,,,,,,,,,,,,,,,,,,,,,,,,,,,,,,,,
,,,,,,6151a03414a54076ff8b2720,62bbfa794c0965e18c1d44a1,2022-06-29_09h38.41.688,Colour_Asymmetry_Pilot,2022.1.3,Win32,60.05645307,62bbe60bf3d75ef465d3e404,0,104,104,57,1,onethree,,,,,,,,,,,,,,,,,,,,,,,,,,,,,,,,,,,,,,,,,,,,,,,,,,,,,,,,,,,,,,,,,,,,,,,,,,,,,,,,,,,,,,,,,,,,,,,,,,,,,,,,,,,,,,,,,,,,,,,,,,,,,,,,,,,,,,,,,,,,,,,,,,,,,,,,
,,,,,,6151a03414a54076ff8b2720,62bbfa794c0965e18c1d44a1,2022-06-29_09h38.41.688,Colour_Asymmetry_Pilot,2022.1.3,Win32,60.05645307,62bbe60bf3d75ef465d3e404,0,105,105,102,1,fourtwo,,,,,,,,,,,,,,,,,,,,,,,,,,,,,,,,,,,,,,,,,,,,,,,,,,,,,,,,,,,,,,,,,,,,,,,,,,,,,,,,,,,,,,,,,,,,,,,,,,,,,,,,,,,,,,,,,,,,,,,,,,,,,,,,,,,,,,,,,,,,,,,,,,,,,,,,
,,,,,,6151a03414a54076ff8b2720,62bbfa794c0965e18c1d44a1,2022-06-29_09h38.41.688,Colour_Asymmetry_Pilot,2022.1.3,Win32,60.05645307,62bbe60bf3d75ef465d3e404,0,106,106,62,1,fourtwo,,,,,,,,,,,,,,,,,,,,,,,,,,,,,,,,,,,,,,,,,,,,,,,,,,,,,,,,,,,,,,,,,,,,,,,,,,,,,,,,,,,,,,,,,,,,,,,,,,,,,,,,,,,,,,,,,,,,,,,,,,,,,,,,,,,,,,,,,,,,,,,,,,,,,,,,
,,,,,,6151a03414a54076ff8b2720,62bbfa794c0965e18c1d44a1,2022-06-29_09h38.41.688,Colour_Asymmetry_Pilot,2022.1.3,Win32,60.05645307,62bbe60bf3d75ef465d3e404,0,107,107,37,1,threefour,,,,,,,,,,,,,,,,,,,,,,,,,,,,,,,,,,,,,,,,,,,,,,,,,,,,,,,,,,,,,,,,,,,,,,,,,,,,,,,,,,,,,,,,,,,,,,,,,,,,,,,,,,,,,,,,,,,,,,,,,,,,,,,,,,,,,,,,,,,,,,,,,,,,,,,,
,,,,,,6151a03414a54076ff8b2720,62bbfa794c0965e18c1d44a1,2022-06-29_09h38.41.688,Colour_Asymmetry_Pilot,2022.1.3,Win32,60.05645307,62bbe60bf3d75ef465d3e404,0,108,108,117,1,threefour,,,,,,,,,,,,,,,,,,,,,,,,,,,,,,,,,,,,,,,,,,,,,,,,,,,,,,,,,,,,,,,,,,,,,,,,,,,,,,,,,,,,,,,,,,,,,,,,,,,,,,,,,,,,,,,,,,,,,,,,,,,,,,,,,,,,,,,,,,,,,,,,,,,,,,,,
,,,,,,6151a03414a54076ff8b2720,62bbfa794c0965e18c1d44a1,2022-06-29_09h38.41.688,Colour_Asymmetry_Pilot,2022.1.3,Win32,60.05645307,62bbe60bf3d75ef465d3e404,0,109,109,42,1,twoone,,,,,,,,,,,,,,,,,,,,,,,,,,,,,,,,,,,,,,,,,,,,,,,,,,,,,,,,,,,,,,,,,,,,,,,,,,,,,,,,,,,,,,,,,,,,,,,,,,,,,,,,,,,,,,,,,,,,,,,,,,,,,,,,,,,,,,,,,,,,,,,,,,,,,,,,
,,,,,,6151a03414a54076ff8b2720,62bbfa794c0965e18c1d44a1,2022-06-29_09h38.41.688,Colour_Asymmetry_Pilot,2022.1.3,Win32,60.05645307,62bbe60bf3d75ef465d3e404,0,110,110,78,1,fourtwo,,,,,,,,,,,,,,,,,,,,,,,,,,,,,,,,,,,,,,,,,,,,,,,,,,,,,,,,,,,,,,,,,,,,,,,,,,,,,,,,,,,,,,,,,,,,,,,,,,,,,,,,,,,,,,,,,,,,,,,,,,,,,,,,,,,,,,,,,,,,,,,,,,,,,,,,
,,,,,,6151a03414a54076ff8b2720,62bbfa794c0965e18c1d44a1,2022-06-29_09h38.41.688,Colour_Asymmetry_Pilot,2022.1.3,Win32,60.05645307,62bbe60bf3d75ef465d3e404,0,111,111,3,1,twofour,,,,,,,,,,,,,,,,,,,,,,,,,,,,,,,,,,,,,,,,,,,,,,,,,,,,,,,,,,,,,,,,,,,,,,,,,,,,,,,,,,,,,,,,,,,,,,,,,,,,,,,,,,,,,,,,,,,,,,,,,,,,,,,,,,,,,,,,,,,,,,,,,,,,,,,,
,,,,,,6151a03414a54076ff8b2720,62bbfa794c0965e18c1d44a1,2022-06-29_09h38.41.688,Colour_Asymmetry_Pilot,2022.1.3,Win32,60.05645307,62bbe60bf3d75ef465d3e404,0,112,112,74,1,twoone,,,,,,,,,,,,,,,,,,,,,,,,,,,,,,,,,,,,,,,,,,,,,,,,,,,,,,,,,,,,,,,,,,,,,,,,,,,,,,,,,,,,,,,,,,,,,,,,,,,,,,,,,,,,,,,,,,,,,,,,,,,,,,,,,,,,,,,,,,,,,,,,,,,,,,,,
,,,,,,6151a03414a54076ff8b2720,62bbfa794c0965e18c1d44a1,2022-06-29_09h38.41.688,Colour_Asymmetry_Pilot,2022.1.3,Win32,60.05645307,62bbe60bf3d75ef465d3e404,0,113,113,12,1,threeone,,,,,,,,,,,,,,,,,,,,,,,,,,,,,,,,,,,,,,,,,,,,,,,,,,,,,,,,,,,,,,,,,,,,,,,,,,,,,,,,,,,,,,,,,,,,,,,,,,,,,,,,,,,,,,,,,,,,,,,,,,,,,,,,,,,,,,,,,,,,,,,,,,,,,,,,
,,,,,,6151a03414a54076ff8b2720,62bbfa794c0965e18c1d44a1,2022-06-29_09h38.41.688,Colour_Asymmetry_Pilot,2022.1.3,Win32,60.05645307,62bbe60bf3d75ef465d3e404,0,114,114,152,1,onetwo,,,,,,,,,,,,,,,,,,,,,,,,,,,,,,,,,,,,,,,,,,,,,,,,,,,,,,,,,,,,,,,,,,,,,,,,,,,,,,,,,,,,,,,,,,,,,,,,,,,,,,,,,,,,,,,,,,,,,,,,,,,,,,,,,,,,,,,,,,,,,,,,,,,,,,,,
,,,,,,6151a03414a54076ff8b2720,62bbfa794c0965e18c1d44a1,2022-06-29_09h38.41.688,Colour_Asymmetry_Pilot,2022.1.3,Win32,60.05645307,62bbe60bf3d75ef465d3e404,0,115,115,140,1,threeone,,,,,,,,,,,,,,,,,,,,,,,,,,,,,,,,,,,,,,,,,,,,,,,,,,,,,,,,,,,,,,,,,,,,,,,,,,,,,,,,,,,,,,,,,,,,,,,,,,,,,,,,,,,,,,,,,,,,,,,,,,,,,,,,,,,,,,,,,,,,,,,,,,,,,,,,
,,,,,,6151a03414a54076ff8b2720,62bbfa794c0965e18c1d44a1,2022-06-29_09h38.41.688,Colour_Asymmetry_Pilot,2022.1.3,Win32,60.05645307,62bbe60bf3d75ef465d3e404,0,116,116,160,1,onetwo,,,,,,,,,,,,,,,,,,,,,,,,,,,,,,,,,,,,,,,,,,,,,,,,,,,,,,,,,,,,,,,,,,,,,,,,,,,,,,,,,,,,,,,,,,,,,,,,,,,,,,,,,,,,,,,,,,,,,,,,,,,,,,,,,,,,,,,,,,,,,,,,,,,,,,,,
,,,,,,6151a03414a54076ff8b2720,62bbfa794c0965e18c1d44a1,2022-06-29_09h38.41.688,Colour_Asymmetry_Pilot,2022.1.3,Win32,60.05645307,62bbe60bf3d75ef465d3e404,0,117,117,147,1,twofour,,,,,,,,,,,,,,,,,,,,,,,,,,,,,,,,,,,,,,,,,,,,,,,,,,,,,,,,,,,,,,,,,,,,,,,,,,,,,,,,,,,,,,,,,,,,,,,,,,,,,,,,,,,,,,,,,,,,,,,,,,,,,,,,,,,,,,,,,,,,,,,,,,,,,,,,
,,,,,,6151a03414a54076ff8b2720,62bbfa794c0965e18c1d44a1,2022-06-29_09h38.41.688,Colour_Asymmetry_Pilot,2022.1.3,Win32,60.05645307,62bbe60bf3d75ef465d3e404,0,118,118,26,1,twoone,,,,,,,,,,,,,,,,,,,,,,,,,,,,,,,,,,,,,,,,,,,,,,,,,,,,,,,,,,,,,,,,,,,,,,,,,,,,,,,,,,,,,,,,,,,,,,,,,,,,,,,,,,,,,,,,,,,,,,,,,,,,,,,,,,,,,,,,,,,,,,,,,,,,,,,,
,,,,,,6151a03414a54076ff8b2720,62bbfa794c0965e18c1d44a1,2022-06-29_09h38.41.688,Colour_Asymmetry_Pilot,2022.1.3,Win32,60.05645307,62bbe60bf3d75ef465d3e404,0,119,119,17,1,onethree,,,,,,,,,,,,,,,,,,,,,,,,,,,,,,,,,,,,,,,,,,,,,,,,,,,,,,,,,,,,,,,,,,,,,,,,,,,,,,,,,,,,,,,,,,,,,,,,,,,,,,,,,,,,,,,,,,,,,,,,,,,,,,,,,,,,,,,,,,,,,,,,,,,,,,,,
,,,,,,6151a03414a54076ff8b2720,62bbfa794c0965e18c1d44a1,2022-06-29_09h38.41.688,Colour_Asymmetry_Pilot,2022.1.3,Win32,60.05645307,62bbe60bf3d75ef465d3e404,0,120,120,132,1,threeone,,,,,,,,,,,,,,,,,,,,,,,,,,,,,,,,,,,,,,,,,,,,,,,,,,,,,,,,,,,,,,,,,,,,,,,,,,,,,,,,,,,,,,,,,,,,,,,,,,,,,,,,,,,,,,,,,,,,,,,,,,,,,,,,,,,,,,,,,,,,,,,,,,,,,,,,
,,,,,,6151a03414a54076ff8b2720,62bbfa794c0965e18c1d44a1,2022-06-29_09h38.41.688,Colour_Asymmetry_Pilot,2022.1.3,Win32,60.05645307,62bbe60bf3d75ef465d3e404,0,121,121,38,1,fourtwo,,,,,,,,,,,,,,,,,,,,,,,,,,,,,,,,,,,,,,,,,,,,,,,,,,,,,,,,,,,,,,,,,,,,,,,,,,,,,,,,,,,,,,,,,,,,,,,,,,,,,,,,,,,,,,,,,,,,,,,,,,,,,,,,,,,,,,,,,,,,,,,,,,,,,,,,
,,,,,,6151a03414a54076ff8b2720,62bbfa794c0965e18c1d44a1,2022-06-29_09h38.41.688,Colour_Asymmetry_Pilot,2022.1.3,Win32,60.05645307,62bbe60bf3d75ef465d3e404,0,122,122,113,1,onethree,,,,,,,,,,,,,,,,,,,,,,,,,,,,,,,,,,,,,,,,,,,,,,,,,,,,,,,,,,,,,,,,,,,,,,,,,,,,,,,,,,,,,,,,,,,,,,,,,,,,,,,,,,,,,,,,,,,,,,,,,,,,,,,,,,,,,,,,,,,,,,,,,,,,,,,,
,,,,,,6151a03414a54076ff8b2720,62bbfa794c0965e18c1d44a1,2022-06-29_09h38.41.688,Colour_Asymmetry_Pilot,2022.1.3,Win32,60.05645307,62bbe60bf3d75ef465d3e404,0,123,123,137,1,onethree,,,,,,,,,,,,,,,,,,,,,,,,,,,,,,,,,,,,,,,,,,,,,,,,,,,,,,,,,,,,,,,,,,,,,,,,,,,,,,,,,,,,,,,,,,,,,,,,,,,,,,,,,,,,,,,,,,,,,,,,,,,,,,,,,,,,,,,,,,,,,,,,,,,,,,,,
,,,,,,6151a03414a54076ff8b2720,62bbfa794c0965e18c1d44a1,2022-06-29_09h38.41.688,Colour_Asymmetry_Pilot,2022.1.3,Win32,60.05645307,62bbe60bf3d75ef465d3e404,0,124,124,61,1,threefour,,,,,,,,,,,,,,,,,,,,,,,,,,,,,,,,,,,,,,,,,,,,,,,,,,,,,,,,,,,,,,,,,,,,,,,,,,,,,,,,,,,,,,,,,,,,,,,,,,,,,,,,,,,,,,,,,,,,,,,,,,,,,,,,,,,,,,,,,,,,,,,,,,,,,,,,
,,,,,,6151a03414a54076ff8b2720,62bbfa794c0965e18c1d44a1,2022-06-29_09h38.41.688,Colour_Asymmetry_Pilot,2022.1.3,Win32,60.05645307,62bbe60bf3d75ef465d3e404,0,125,125,110,1,fourtwo,,,,,,,,,,,,,,,,,,,,,,,,,,,,,,,,,,,,,,,,,,,,,,,,,,,,,,,,,,,,,,,,,,,,,,,,,,,,,,,,,,,,,,,,,,,,,,,,,,,,,,,,,,,,,,,,,,,,,,,,,,,,,,,,,,,,,,,,,,,,,,,,,,,,,,,,
,,,,,,6151a03414a54076ff8b2720,62bbfa794c0965e18c1d44a1,2022-06-29_09h38.41.688,Colour_Asymmetry_Pilot,2022.1.3,Win32,60.05645307,62bbe60bf3d75ef465d3e404,0,126,126,99,1,twofour,,,,,,,,,,,,,,,,,,,,,,,,,,,,,,,,,,,,,,,,,,,,,,,,,,,,,,,,,,,,,,,,,,,,,,,,,,,,,,,,,,,,,,,,,,,,,,,,,,,,,,,,,,,,,,,,,,,,,,,,,,,,,,,,,,,,,,,,,,,,,,,,,,,,,,,,
,,,,,,6151a03414a54076ff8b2720,62bbfa794c0965e18c1d44a1,2022-06-29_09h38.41.688,Colour_Asymmetry_Pilot,2022.1.3,Win32,60.05645307,62bbe60bf3d75ef465d3e404,0,127,127,76,1,threeone,,,,,,,,,,,,,,,,,,,,,,,,,,,,,,,,,,,,,,,,,,,,,,,,,,,,,,,,,,,,,,,,,,,,,,,,,,,,,,,,,,,,,,,,,,,,,,,,,,,,,,,,,,,,,,,,,,,,,,,,,,,,,,,,,,,,,,,,,,,,,,,,,,,,,,,,
,,,,,,6151a03414a54076ff8b2720,62bbfa794c0965e18c1d44a1,2022-06-29_09h38.41.688,Colour_Asymmetry_Pilot,2022.1.3,Win32,60.05645307,62bbe60bf3d75ef465d3e404,0,128,128,72,1,onetwo,,,,,,,,,,,,,,,,,,,,,,,,,,,,,,,,,,,,,,,,,,,,,,,,,,,,,,,,,,,,,,,,,,,,,,,,,,,,,,,,,,,,,,,,,,,,,,,,,,,,,,,,,,,,,,,,,,,,,,,,,,,,,,,,,,,,,,,,,,,,,,,,,,,,,,,,
,,,,,,6151a03414a54076ff8b2720,62bbfa794c0965e18c1d44a1,2022-06-29_09h38.41.688,Colour_Asymmetry_Pilot,2022.1.3,Win32,60.05645307,62bbe60bf3d75ef465d3e404,0,129,129,43,1,twofour,,,,,,,,,,,,,,,,,,,,,,,,,,,,,,,,,,,,,,,,,,,,,,,,,,,,,,,,,,,,,,,,,,,,,,,,,,,,,,,,,,,,,,,,,,,,,,,,,,,,,,,,,,,,,,,,,,,,,,,,,,,,,,,,,,,,,,,,,,,,,,,,,,,,,,,,
,,,,,,6151a03414a54076ff8b2720,62bbfa794c0965e18c1d44a1,2022-06-29_09h38.41.688,Colour_Asymmetry_Pilot,2022.1.3,Win32,60.05645307,62bbe60bf3d75ef465d3e404,0,130,130,135,1,fourthree,,,,,,,,,,,,,,,,,,,,,,,,,,,,,,,,,,,,,,,,,,,,,,,,,,,,,,,,,,,,,,,,,,,,,,,,,,,,,,,,,,,,,,,,,,,,,,,,,,,,,,,,,,,,,,,,,,,,,,,,,,,,,,,,,,,,,,,,,,,,,,,,,,,,,,,,
,,,,,,6151a03414a54076ff8b2720,62bbfa794c0965e18c1d44a1,2022-06-29_09h38.41.688,Colour_Asymmetry_Pilot,2022.1.3,Win32,60.05645307,62bbe60bf3d75ef465d3e404,0,131,131,71,1,fourthree,,,,,,,,,,,,,,,,,,,,,,,,,,,,,,,,,,,,,,,,,,,,,,,,,,,,,,,,,,,,,,,,,,,,,,,,,,,,,,,,,,,,,,,,,,,,,,,,,,,,,,,,,,,,,,,,,,,,,,,,,,,,,,,,,,,,,,,,,,,,,,,,,,,,,,,,
,,,,,,6151a03414a54076ff8b2720,62bbfa794c0965e18c1d44a1,2022-06-29_09h38.41.688,Colour_Asymmetry_Pilot,2022.1.3,Win32,60.05645307,62bbe60bf3d75ef465d3e404,0,132,132,107,1,twofour,,,,,,,,,,,,,,,,,,,,,,,,,,,,,,,,,,,,,,,,,,,,,,,,,,,,,,,,,,,,,,,,,,,,,,,,,,,,,,,,,,,,,,,,,,,,,,,,,,,,,,,,,,,,,,,,,,,,,,,,,,,,,,,,,,,,,,,,,,,,,,,,,,,,,,,,
,,,,,,6151a03414a54076ff8b2720,62bbfa794c0965e18c1d44a1,2022-06-29_09h38.41.688,Colour_Asymmetry_Pilot,2022.1.3,Win32,60.05645307,62bbe60bf3d75ef465d3e404,0,133,133,53,1,threefour,,,,,,,,,,,,,,,,,,,,,,,,,,,,,,,,,,,,,,,,,,,,,,,,,,,,,,,,,,,,,,,,,,,,,,,,,,,,,,,,,,,,,,,,,,,,,,,,,,,,,,,,,,,,,,,,,,,,,,,,,,,,,,,,,,,,,,,,,,,,,,,,,,,,,,,,
,,,,,,6151a03414a54076ff8b2720,62bbfa794c0965e18c1d44a1,2022-06-29_09h38.41.688,Colour_Asymmetry_Pilot,2022.1.3,Win32,60.05645307,62bbe60bf3d75ef465d3e404,0,134,134,122,1,twoone,,,,,,,,,,,,,,,,,,,,,,,,,,,,,,,,,,,,,,,,,,,,,,,,,,,,,,,,,,,,,,,,,,,,,,,,,,,,,,,,,,,,,,,,,,,,,,,,,,,,,,,,,,,,,,,,,,,,,,,,,,,,,,,,,,,,,,,,,,,,,,,,,,,,,,,,
,,,,,,6151a03414a54076ff8b2720,62bbfa794c0965e18c1d44a1,2022-06-29_09h38.41.688,Colour_Asymmetry_Pilot,2022.1.3,Win32,60.05645307,62bbe60bf3d75ef465d3e404,0,135,135,120,1,onetwo,,,,,,,,,,,,,,,,,,,,,,,,,,,,,,,,,,,,,,,,,,,,,,,,,,,,,,,,,,,,,,,,,,,,,,,,,,,,,,,,,,,,,,,,,,,,,,,,,,,,,,,,,,,,,,,,,,,,,,,,,,,,,,,,,,,,,,,,,,,,,,,,,,,,,,,,
,,,,,,6151a03414a54076ff8b2720,62bbfa794c0965e18c1d44a1,2022-06-29_09h38.41.688,Colour_Asymmetry_Pilot,2022.1.3,Win32,60.05645307,62bbe60bf3d75ef465d3e404,0,136,136,83,1,twofour,,,,,,,,,,,,,,,,,,,,,,,,,,,,,,,,,,,,,,,,,,,,,,,,,,,,,,,,,,,,,,,,,,,,,,,,,,,,,,,,,,,,,,,,,,,,,,,,,,,,,,,,,,,,,,,,,,,,,,,,,,,,,,,,,,,,,,,,,,,,,,,,,,,,,,,,
,,,,,,6151a03414a54076ff8b2720,62bbfa794c0965e18c1d44a1,2022-06-29_09h38.41.688,Colour_Asymmetry_Pilot,2022.1.3,Win32,60.05645307,62bbe60bf3d75ef465d3e404,0,137,137,136,1,onetwo,,,,,,,,,,,,,,,,,,,,,,,,,,,,,,,,,,,,,,,,,,,,,,,,,,,,,,,,,,,,,,,,,,,,,,,,,,,,,,,,,,,,,,,,,,,,,,,,,,,,,,,,,,,,,,,,,,,,,,,,,,,,,,,,,,,,,,,,,,,,,,,,,,,,,,,,
,,,,,,6151a03414a54076ff8b2720,62bbfa794c0965e18c1d44a1,2022-06-29_09h38.41.688,Colour_Asymmetry_Pilot,2022.1.3,Win32,60.05645307,62bbe60bf3d75ef465d3e404,0,138,138,157,1,threefour,,,,,,,,,,,,,,,,,,,,,,,,,,,,,,,,,,,,,,,,,,,,,,,,,,,,,,,,,,,,,,,,,,,,,,,,,,,,,,,,,,,,,,,,,,,,,,,,,,,,,,,,,,,,,,,,,,,,,,,,,,,,,,,,,,,,,,,,,,,,,,,,,,,,,,,,
,,,,,,6151a03414a54076ff8b2720,62bbfa794c0965e18c1d44a1,2022-06-29_09h38.41.688,Colour_Asymmetry_Pilot,2022.1.3,Win32,60.05645307,62bbe60bf3d75ef465d3e404,0,139,139,5,1,threefour,,,,,,,,,,,,,,,,,,,,,,,,,,,,,,,,,,,,,,,,,,,,,,,,,,,,,,,,,,,,,,,,,,,,,,,,,,,,,,,,,,,,,,,,,,,,,,,,,,,,,,,,,,,,,,,,,,,,,,,,,,,,,,,,,,,,,,,,,,,,,,,,,,,,,,,,
,,,,,,6151a03414a54076ff8b2720,62bbfa794c0965e18c1d44a1,2022-06-29_09h38.41.688,Colour_Asymmetry_Pilot,2022.1.3,Win32,60.05645307,62bbe60bf3d75ef465d3e404,0,140,140,150,1,fourtwo,,,,,,,,,,,,,,,,,,,,,,,,,,,,,,,,,,,,,,,,,,,,,,,,,,,,,,,,,,,,,,,,,,,,,,,,,,,,,,,,,,,,,,,,,,,,,,,,,,,,,,,,,,,,,,,,,,,,,,,,,,,,,,,,,,,,,,,,,,,,,,,,,,,,,,,,
,,,,,,6151a03414a54076ff8b2720,62bbfa794c0965e18c1d44a1,2022-06-29_09h38.41.688,Colour_Asymmetry_Pilot,2022.1.3,Win32,60.05645307,62bbe60bf3d75ef465d3e404,0,141,141,85,1,threefour,,,,,,,,,,,,,,,,,,,,,,,,,,,,,,,,,,,,,,,,,,,,,,,,,,,,,,,,,,,,,,,,,,,,,,,,,,,,,,,,,,,,,,,,,,,,,,,,,,,,,,,,,,,,,,,,,,,,,,,,,,,,,,,,,,,,,,,,,,,,,,,,,,,,,,,,
,,,,,,6151a03414a54076ff8b2720,62bbfa794c0965e18c1d44a1,2022-06-29_09h38.41.688,Colour_Asymmetry_Pilot,2022.1.3,Win32,60.05645307,62bbe60bf3d75ef465d3e404,0,142,142,129,1,onethree,,,,,,,,,,,,,,,,,,,,,,,,,,,,,,,,,,,,,,,,,,,,,,,,,,,,,,,,,,,,,,,,,,,,,,,,,,,,,,,,,,,,,,,,,,,,,,,,,,,,,,,,,,,,,,,,,,,,,,,,,,,,,,,,,,,,,,,,,,,,,,,,,,,,,,,,
,,,,,,6151a03414a54076ff8b2720,62bbfa794c0965e18c1d44a1,2022-06-29_09h38.41.688,Colour_Asymmetry_Pilot,2022.1.3,Win32,60.05645307,62bbe60bf3d75ef465d3e404,0,143,143,89,1,onethree,,,,,,,,,,,,,,,,,,,,,,,,,,,,,,,,,,,,,,,,,,,,,,,,,,,,,,,,,,,,,,,,,,,,,,,,,,,,,,,,,,,,,,,,,,,,,,,,,,,,,,,,,,,,,,,,,,,,,,,,,,,,,,,,,,,,,,,,,,,,,,,,,,,,,,,,
,,,,,,6151a03414a54076ff8b2720,62bbfa794c0965e18c1d44a1,2022-06-29_09h38.41.688,Colour_Asymmetry_Pilot,2022.1.3,Win32,60.05645307,62bbe60bf3d75ef465d3e404,0,144,144,33,1,onethree,,,,,,,,,,,,,,,,,,,,,,,,,,,,,,,,,,,,,,,,,,,,,,,,,,,,,,,,,,,,,,,,,,,,,,,,,,,,,,,,,,,,,,,,,,,,,,,,,,,,,,,,,,,,,,,,,,,,,,,,,,,,,,,,,,,,,,,,,,,,,,,,,,,,,,,,
,,,,,,6151a03414a54076ff8b2720,62bbfa794c0965e18c1d44a1,2022-06-29_09h38.41.688,Colour_Asymmetry_Pilot,2022.1.3,Win32,60.05645307,62bbe60bf3d75ef465d3e404,0,145,145,111,1,fourthree,,,,,,,,,,,,,,,,,,,,,,,,,,,,,,,,,,,,,,,,,,,,,,,,,,,,,,,,,,,,,,,,,,,,,,,,,,,,,,,,,,,,,,,,,,,,,,,,,,,,,,,,,,,,,,,,,,,,,,,,,,,,,,,,,,,,,,,,,,,,,,,,,,,,,,,,
,,,,,,6151a03414a54076ff8b2720,62bbfa794c0965e18c1d44a1,2022-06-29_09h38.41.688,Colour_Asymmetry_Pilot,2022.1.3,Win32,60.05645307,62bbe60bf3d75ef465d3e404,0,146,146,109,1,threefour,,,,,,,,,,,,,,,,,,,,,,,,,,,,,,,,,,,,,,,,,,,,,,,,,,,,,,,,,,,,,,,,,,,,,,,,,,,,,,,,,,,,,,,,,,,,,,,,,,,,,,,,,,,,,,,,,,,,,,,,,,,,,,,,,,,,,,,,,,,,,,,,,,,,,,,,
,,,,,,6151a03414a54076ff8b2720,62bbfa794c0965e18c1d44a1,2022-06-29_09h38.41.688,Colour_Asymmetry_Pilot,2022.1.3,Win32,60.05645307,62bbe60bf3d75ef465d3e404,0,147,147,154,1,twoone,,,,,,,,,,,,,,,,,,,,,,,,,,,,,,,,,,,,,,,,,,,,,,,,,,,,,,,,,,,,,,,,,,,,,,,,,,,,,,,,,,,,,,,,,,,,,,,,,,,,,,,,,,,,,,,,,,,,,,,,,,,,,,,,,,,,,,,,,,,,,,,,,,,,,,,,
,,,,,,6151a03414a54076ff8b2720,62bbfa794c0965e18c1d44a1,2022-06-29_09h38.41.688,Colour_Asymmetry_Pilot,2022.1.3,Win32,60.05645307,62bbe60bf3d75ef465d3e404,0,148,148,105,1,onethree,,,,,,,,,,,,,,,,,,,,,,,,,,,,,,,,,,,,,,,,,,,,,,,,,,,,,,,,,,,,,,,,,,,,,,,,,,,,,,,,,,,,,,,,,,,,,,,,,,,,,,,,,,,,,,,,,,,,,,,,,,,,,,,,,,,,,,,,,,,,,,,,,,,,,,,,
,,,,,,6151a03414a54076ff8b2720,62bbfa794c0965e18c1d44a1,2022-06-29_09h38.41.688,Colour_Asymmetry_Pilot,2022.1.3,Win32,60.05645307,62bbe60bf3d75ef465d3e404,0,149,149,144,1,onetwo,,,,,,,,,,,,,,,,,,,,,,,,,,,,,,,,,,,,,,,,,,,,,,,,,,,,,,,,,,,,,,,,,,,,,,,,,,,,,,,,,,,,,,,,,,,,,,,,,,,,,,,,,,,,,,,,,,,,,,,,,,,,,,,,,,,,,,,,,,,,,,,,,,,,,,,,
,,,,,,6151a03414a54076ff8b2720,62bbfa794c0965e18c1d44a1,2022-06-29_09h38.41.688,Colour_Asymmetry_Pilot,2022.1.3,Win32,60.05645307,62bbe60bf3d75ef465d3e404,0,150,150,114,1,twoone,,,,,,,,,,,,,,,,,,,,,,,,,,,,,,,,,,,,,,,,,,,,,,,,,,,,,,,,,,,,,,,,,,,,,,,,,,,,,,,,,,,,,,,,,,,,,,,,,,,,,,,,,,,,,,,,,,,,,,,,,,,,,,,,,,,,,,,,,,,,,,,,,,,,,,,,
,,,,,,6151a03414a54076ff8b2720,62bbfa794c0965e18c1d44a1,2022-06-29_09h38.41.688,Colour_Asymmetry_Pilot,2022.1.3,Win32,60.05645307,62bbe60bf3d75ef465d3e404,0,151,151,75,1,twofour,,,,,,,,,,,,,,,,,,,,,,,,,,,,,,,,,,,,,,,,,,,,,,,,,,,,,,,,,,,,,,,,,,,,,,,,,,,,,,,,,,,,,,,,,,,,,,,,,,,,,,,,,,,,,,,,,,,,,,,,,,,,,,,,,,,,,,,,,,,,,,,,,,,,,,,,
,,,,,,6151a03414a54076ff8b2720,62bbfa794c0965e18c1d44a1,2022-06-29_09h38.41.688,Colour_Asymmetry_Pilot,2022.1.3,Win32,60.05645307,62bbe60bf3d75ef465d3e404,0,152,152,8,1,onetwo,,,,,,,,,,,,,,,,,,,,,,,,,,,,,,,,,,,,,,,,,,,,,,,,,,,,,,,,,,,,,,,,,,,,,,,,,,,,,,,,,,,,,,,,,,,,,,,,,,,,,,,,,,,,,,,,,,,,,,,,,,,,,,,,,,,,,,,,,,,,,,,,,,,,,,,,
,,,,,,6151a03414a54076ff8b2720,62bbfa794c0965e18c1d44a1,2022-06-29_09h38.41.688,Colour_Asymmetry_Pilot,2022.1.3,Win32,60.05645307,62bbe60bf3d75ef465d3e404,0,153,153,47,1,fourthree,,,,,,,,,,,,,,,,,,,,,,,,,,,,,,,,,,,,,,,,,,,,,,,,,,,,,,,,,,,,,,,,,,,,,,,,,,,,,,,,,,,,,,,,,,,,,,,,,,,,,,,,,,,,,,,,,,,,,,,,,,,,,,,,,,,,,,,,,,,,,,,,,,,,,,,,
,,,,,,6151a03414a54076ff8b2720,62bbfa794c0965e18c1d44a1,2022-06-29_09h38.41.688,Colour_Asymmetry_Pilot,2022.1.3,Win32,60.05645307,62bbe60bf3d75ef465d3e404,0,154,154,119,1,fourthree,,,,,,,,,,,,,,,,,,,,,,,,,,,,,,,,,,,,,,,,,,,,,,,,,,,,,,,,,,,,,,,,,,,,,,,,,,,,,,,,,,,,,,,,,,,,,,,,,,,,,,,,,,,,,,,,,,,,,,,,,,,,,,,,,,,,,,,,,,,,,,,,,,,,,,,,
,,,,,,6151a03414a54076ff8b2720,62bbfa794c0965e18c1d44a1,2022-06-29_09h38.41.688,Colour_Asymmetry_Pilot,2022.1.3,Win32,60.05645307,62bbe60bf3d75ef465d3e404,0,155,155,41,1,onethree,,,,,,,,,,,,,,,,,,,,,,,,,,,,,,,,,,,,,,,,,,,,,,,,,,,,,,,,,,,,,,,,,,,,,,,,,,,,,,,,,,,,,,,,,,,,,,,,,,,,,,,,,,,,,,,,,,,,,,,,,,,,,,,,,,,,,,,,,,,,,,,,,,,,,,,,
,,,,,,6151a03414a54076ff8b2720,62bbfa794c0965e18c1d44a1,2022-06-29_09h38.41.688,Colour_Asymmetry_Pilot,2022.1.3,Win32,60.05645307,62bbe60bf3d75ef465d3e404,0,156,156,88,1,onetwo,,,,,,,,,,,,,,,,,,,,,,,,,,,,,,,,,,,,,,,,,,,,,,,,,,,,,,,,,,,,,,,,,,,,,,,,,,,,,,,,,,,,,,,,,,,,,,,,,,,,,,,,,,,,,,,,,,,,,,,,,,,,,,,,,,,,,,,,,,,,,,,,,,,,,,,,
,,,,,,6151a03414a54076ff8b2720,62bbfa794c0965e18c1d44a1,2022-06-29_09h38.41.688,Colour_Asymmetry_Pilot,2022.1.3,Win32,60.05645307,62bbe60bf3d75ef465d3e404,0,157,157,161,1,onethree,,,,,,,,,,,,,,,,,,,,,,,,,,,,,,,,,,,,,,,,,,,,,,,,,,,,,,,,,,,,,,,,,,,,,,,,,,,,,,,,,,,,,,,,,,,,,,,,,,,,,,,,,,,,,,,,,,,,,,,,,,,,,,,,,,,,,,,,,,,,,,,,,,,,,,,,
,,,,,,6151a03414a54076ff8b2720,62bbfa794c0965e18c1d44a1,2022-06-29_09h38.41.688,Colour_Asymmetry_Pilot,2022.1.3,Win32,60.05645307,62bbe60bf3d75ef465d3e404,0,158,158,21,1,threefour,,,,,,,,,,,,,,,,,,,,,,,,,,,,,,,,,,,,,,,,,,,,,,,,,,,,,,,,,,,,,,,,,,,,,,,,,,,,,,,,,,,,,,,,,,,,,,,,,,,,,,,,,,,,,,,,,,,,,,,,,,,,,,,,,,,,,,,,,,,,,,,,,,,,,,,,
,,,,,,6151a03414a54076ff8b2720,62bbfa794c0965e18c1d44a1,2022-06-29_09h38.41.688,Colour_Asymmetry_Pilot,2022.1.3,Win32,60.05645307,62bbe60bf3d75ef465d3e404,0,159,159,55,1,fourthree,,,,,,,,,,,,,,,,,,,,,,,,,,,,,,,,,,,,,,,,,,,,,,,,,,,,,,,,,,,,,,,,,,,,,,,,,,,,,,,,,,,,,,,,,,,,,,,,,,,,,,,,,,,,,,,,,,,,,,,,,,,,,,,,,,,,,,,,,,,,,,,,,,,,,,,,
,,,,,,6151a03414a54076ff8b2720,62bbfa794c0965e18c1d44a1,2022-06-29_09h38.41.688,Colour_Asymmetry_Pilot,2022.1.3,Win32,60.05645307,62bbe60bf3d75ef465d3e404,0,160,160,151,1,fourthree,,,,,,,,,,,,,,,,,,,,,,,,,,,,,,,,,,,,,,,,,,,,,,,,,,,,,,,,,,,,,,,,,,,,,,,,,,,,,,,,,,,,,,,,,,,,,,,,,,,,,,,,,,,,,,,,,,,,,,,,,,,,,,,,,,,,,,,,,,,,,,,,,,,,,,,,
,,,,,,6151a03414a54076ff8b2720,62bbfa794c0965e18c1d44a1,2022-06-29_09h38.41.688,Colour_Asymmetry_Pilot,2022.1.3,Win32,60.05645307,62bbe60bf3d75ef465d3e404,0,161,161,56,1,onetwo,,,,,,,,,,,,,,,,,,,,,,,,,,,,,,,,,,,,,,,,,,,,,,,,,,,,,,,,,,,,,,,,,,,,,,,,,,,,,,,,,,,,,,,,,,,,,,,,,,,,,,,,,,,,,,,,,,,,,,,,,,,,,,,,,,,,,,,,,,,,,,,,,,,,,,,,
,,,,,,6151a03414a54076ff8b2720,62bbfa794c0965e18c1d44a1,2022-06-29_09h38.41.688,Colour_Asymmetry_Pilot,2022.1.3,Win32,60.05645307,62bbe60bf3d75ef465d3e404,,,,,,,space,4.8695,space,5.1561,space,35.9763,space,53.3349,space,89.9092,space,17.3431,"[-0.0040000000000000036,0.02739999999999987,-0.08239999999999992]",twoone,"[-0.6706000000000001,-0.6157999999999999,-0.6786]",1,12.4955,64.00012207,-76,1,0,0,response3disk_5,-1.99987793,8,1,0,0,rectangle_8,126,278,1,0,0,response1disk_7,7,4,-16,4,1,0,0,rectangle_4,0,0,0,0,1,,,,,,,,,,,,,,,,,,,,,,,,,,,,,,,,,,,,,,,,,,,,,,,,,,,,,,,,,,,,,,,,,,,,,,,,,,,,,,,,,,,,,,,,,,,,,,,,,,,,,,,,
,,,,,,6151a03414a54076ff8b2720,62bbfa794c0965e18c1d44a1,2022-06-29_09h38.41.688,Colour_Asymmetry_Pilot,2022.1.3,Win32,60.05645307,62bbe60bf3d75ef465d3e404,,,,,,,,,,,,,,,,,,,"[0.6547999999999998,-0.043199999999999905,-0.011800000000000033]",threeone,"[-0.4276,0.0038000000000000256,-0.3256]",-4,7.4149,-85.99987793,312,1,0,0,response7disk_5,-16,-4,1,0,0,rectangle_8,-16,-4,1,0,0,,,4,-16,-4,1,0,0,,1,0,1,0,1,,,,,,,,,,,,,,,,,,,,,,,,,,,,,,,,,,,,,,,,,,,,,,,,,,,,,,,,,,,,,,,,,,,,,,,,,,,,,,,,,,,,,,,,,,,,,,,,,,,,,,,,
,,,,,,6151a03414a54076ff8b2720,62bbfa794c0965e18c1d44a1,2022-06-29_09h38.41.688,Colour_Asymmetry_Pilot,2022.1.3,Win32,60.05645307,62bbe60bf3d75ef465d3e404,,,,,,,,,,,,,,,,,,,"[0.9686000000000001,0.5763999999999998,0.11359999999999992]",fourtwo,"[0.6625999999999999,0.4980000000000002,-0.357]",-4,2.9802,-121.9998779,282,1,0,0,response7disk_5,10.00012207,-14,1,0,0,rectangle_8,122,288,1,0,0,response1disk_7,7,4,-22,-24,1,0,0,rectangle_4,2,0,2,0,1,,,,,,,,,,,,,,,,,,,,,,,,,,,,,,,,,,,,,,,,,,,,,,,,,,,,,,,,,,,,,,,,,,,,,,,,,,,,,,,,,,,,,,,,,,,,,,,,,,,,,,,,
,,,,,,6151a03414a54076ff8b2720,62bbfa794c0965e18c1d44a1,2022-06-29_09h38.41.688,Colour_Asymmetry_Pilot,2022.1.3,Win32,60.05645307,62bbe60bf3d75ef465d3e404,,,,,,,,,,,,,,,,,,,"[-0.2942,-0.24719999999999998,-0.357]",threeone,"[0.9763999999999999,-0.1137999999999999,-0.6314]",-4,2.2314,-124,276,1,0,0,response7disk_5,16.00012207,0,1,0,0,rectangle_8,16.00012207,0,1,0,0,,,4,16.00012207,0,1,0,0,,3,0,3,0,1,,,,,,,,,,,,,,,,,,,,,,,,,,,,,,,,,,,,,,,,,,,,,,,,,,,,,,,,,,,,,,,,,,,,,,,,,,,,,,,,,,,,,,,,,,,,,,,,,,,,,,,,
,,,,,,6151a03414a54076ff8b2720,62bbfa794c0965e18c1d44a1,2022-06-29_09h38.41.688,Colour_Asymmetry_Pilot,2022.1.3,Win32,60.05645307,62bbe60bf3d75ef465d3e404,,,,,,,,,,,,,,,,,,,"[-0.2942,-0.24719999999999998,-0.357]",twofour,"[-0.4902000000000001,0.2704,-0.45899999999999996]",-4,3.3139,-96,278,1,0,0,response7disk_5,-24,-30,1,0,0,rectangle_8,-24,-30,1,0,0,,,4,-24,-30,1,0,0,,4,0,4,0,1,,,,,,,,,,,,,,,,,,,,,,,,,,,,,,,,,,,,,,,,,,,,,,,,,,,,,,,,,,,,,,,,,,,,,,,,,,,,,,,,,,,,,,,,,,,,,,,,,,,,,,,,
,,,,,,6151a03414a54076ff8b2720,62bbfa794c0965e18c1d44a1,2022-06-29_09h38.41.688,Colour_Asymmetry_Pilot,2022.1.3,Win32,60.05645307,62bbe60bf3d75ef465d3e404,,,,,,,,,,,,,,,,,,,"[-0.20799999999999996,-0.655,-0.01980000000000004]",fourthree,"[-0.24719999999999998,0.5213999999999999,-0.12959999999999994]",-4,2.7313,-144,297.999939,1,0,0,response7disk_5,-28,-2,1,0,0,rectangle_8,-28,-2,1,0,0,,,4,-28,-2,1,0,0,,5,0,5,0,1,,,,,,,,,,,,,,,,,,,,,,,,,,,,,,,,,,,,,,,,,,,,,,,,,,,,,,,,,,,,,,,,,,,,,,,,,,,,,,,,,,,,,,,,,,,,,,,,,,,,,,,,
,,,,,,6151a03414a54076ff8b2720,62bbfa794c0965e18c1d44a1,2022-06-29_09h38.41.688,Colour_Asymmetry_Pilot,2022.1.3,Win32,60.05645307,62bbe60bf3d75ef465d3e404,,,,,,,,,,,,,,,,,,,"[-0.2942,-0.24719999999999998,-0.357]",fourtwo,"[-0.48240000000000005,0.3175999999999999,0.2156]",-4,2.3645,-109.9998779,194,1,0,0,response7disk_5,16.00012207,8,1,0,0,rectangle_8,16.00012207,8,1,0,0,,,4,16.00012207,8,1,0,0,,6,0,6,0,1,,,,,,,,,,,,,,,,,,,,,,,,,,,,,,,,,,,,,,,,,,,,,,,,,,,,,,,,,,,,,,,,,,,,,,,,,,,,,,,,,,,,,,,,,,,,,,,,,,,,,,,,
,,,,,,6151a03414a54076ff8b2720,62bbfa794c0965e18c1d44a1,2022-06-29_09h38.41.688,Colour_Asymmetry_Pilot,2022.1.3,Win32,60.05645307,62bbe60bf3d75ef465d3e404,,,,,,,,,,,,,,,,,,,,onethree,,-4,3.1311,,,,,,,,,,,,,,,,,,,,,,,,,,,,,,,,space,8.9277,"[0.5528,0.7409999999999999,-0.71]","[-0.7412000000000001,-0.08239999999999992,-0.6864]",-102,267.999939,1,0,0,response7disk,12,4,1,0,0,rectangle,12,4,1,0,0,,1,0.0011,0,12,4,1,0,0,0,0,0,113,1,32,second,,,,,,,,,,,,,,,,,,,,,,,,,,,,,,,,,,,,,,,,,,,,,,,,,,,,,,,,,,,,,,,,,,,
,,,,,,6151a03414a54076ff8b2720,62bbfa794c0965e18c1d44a1,2022-06-29_09h38.41.688,Colour_Asymmetry_Pilot,2022.1.3,Win32,60.05645307,62bbe60bf3d75ef465d3e404,,,,,,,,,,,,,,,,,,,,threeone,,-4,2.148,,,,,,,,,,,,,,,,,,,,,,,,,,,,,,,,,,"[-0.45899999999999996,-0.3256,-0.9374]","[-0.9844,-0.9688,-0.9922]",-103.9998779,236,1,0,0,response7disk,-19.99987793,16,1,0,0,rectangle,-19.99987793,16,1,0,0,,1,0.0001,0,-19.99987793,16,1,0,0,0,1,1,126,1,45,second,,,,,,,,,,,,,,,,,,,,,,,,,,,,,,,,,,,,,,,,,,,,,,,,,,,,,,,,,,,,,,,,,,,
,,,,,,6151a03414a54076ff8b2720,62bbfa794c0965e18c1d44a1,2022-06-29_09h38.41.688,Colour_Asymmetry_Pilot,2022.1.3,Win32,60.05645307,62bbe60bf3d75ef465d3e404,,,,,,,,,,,,,,,,,,,,fourtwo,,4,1.4978,,,,,,,,,,,,,,,,,,,,,,,,,,,,,,,,,,"[0.9686000000000001,0.5763999999999998,0.11359999999999992]","[0.37240000000000006,-0.050999999999999934,-0.5216]",136,285.999939,1,0,0,response1disk,-36,-18,1,0,0,rectangle,-36,-18,1,0,0,,1,0.0003,0,-36,-18,1,0,0,0,2,2,144,1,63,second,,,,,,,,,,,,,,,,,,,,,,,,,,,,,,,,,,,,,,,,,,,,,,,,,,,,,,,,,,,,,,,,,,,
,,,,,,6151a03414a54076ff8b2720,62bbfa794c0965e18c1d44a1,2022-06-29_09h38.41.688,Colour_Asymmetry_Pilot,2022.1.3,Win32,60.05645307,62bbe60bf3d75ef465d3e404,,,,,,,,,,,,,,,,,,,,threefour,,-4,2.3644,,,,,,,,,,,,,,,,,,,,,,,,,,,,,,,,,,"[0.4196,0.4665999999999999,0.3568]","[-0.9844,-0.9688,-0.9922]",-97.99987793,300,1,0,0,response7disk,-12,-20,1,0,0,rectangle,-12,-20,1,0,0,,1,1E-04,0,-12,-20,1,0,0,0,3,3,44,1,44,first,,,,,,,,,,,,,,,,,,,,,,,,,,,,,,,,,,,,,,,,,,,,,,,,,,,,,,,,,,,,,,,,,,,
,,,,,,6151a03414a54076ff8b2720,62bbfa794c0965e18c1d44a1,2022-06-29_09h38.41.688,Colour_Asymmetry_Pilot,2022.1.3,Win32,60.05645307,62bbe60bf3d75ef465d3e404,,,,,,,,,,,,,,,,,,,,threeone,,-4,2.3981,,,,,,,,,,,,,,,,,,,,,,,,,,,,,,,,,,"[0.9372,0.20779999999999998,0.2704]","[-0.30200000000000005,0.14500000000000002,0.2784]",-132,267.999939,1,0,0,response7disk,-7.99987793,-6,1,0,0,rectangle,-7.99987793,-6,1,0,0,,2,0.0007,0,-7.99987793,-6,1,0,0,0,4,4,22,1,22,first,,,,,,,,,,,,,,,,,,,,,,,,,,,,,,,,,,,,,,,,,,,,,,,,,,,,,,,,,,,,,,,,,,,
,,,,,,6151a03414a54076ff8b2720,62bbfa794c0965e18c1d44a1,2022-06-29_09h38.41.688,Colour_Asymmetry_Pilot,2022.1.3,Win32,60.05645307,62bbe60bf3d75ef465d3e404,,,,,,,,,,,,,,,,,,,,twoone,,-4,0.8986,,,,,,,,,,,,,,,,,,,,,,,,,,,,,,,,,,"[-0.2942,-0.7648,-0.7492000000000001]","[0.40379999999999994,0.09000000000000008,0.44300000000000006]",-88,243.999939,1,0,0,response7disk,-24,30,1,0,0,rectangle,-24,30,1,0,0,,1,0.001,0,-24,30,1,0,0,0,5,5,92,1,11,second,,,,,,,,,,,,,,,,,,,,,,,,,,,,,,,,,,,,,,,,,,,,,,,,,,,,,,,,,,,,,,,,,,,
,,,,,,6151a03414a54076ff8b2720,62bbfa794c0965e18c1d44a1,2022-06-29_09h38.41.688,Colour_Asymmetry_Pilot,2022.1.3,Win32,60.05645307,62bbe60bf3d75ef465d3e404,,,,,,,,,,,,,,,,,,,,threeone,,-4,1.0657,,,,,,,,,,,,,,,,,,,,,,,,,,,,,,,,,,"[-0.24719999999999998,0.5213999999999999,-0.12959999999999994]","[0.12939999999999996,-0.2864,0.3253999999999999]",-102,218,1,0,0,response7disk,-54,10,1,0,0,rectangle,-54,10,1,0,0,,3,0.0004,0,-54,10,1,0,0,0,6,6,9,1,9,first,,,,,,,,,,,,,,,,,,,,,,,,,,,,,,,,,,,,,,,,,,,,,,,,,,,,,,,,,,,,,,,,,,,
,,,,,,6151a03414a54076ff8b2720,62bbfa794c0965e18c1d44a1,2022-06-29_09h38.41.688,Colour_Asymmetry_Pilot,2022.1.3,Win32,60.05645307,62bbe60bf3d75ef465d3e404,,,,,,,,,,,,,,,,,,,,onetwo,,4,1.4153,,,,,,,,,,,,,,,,,,,,,,,,,,,,,,,,,,"[-0.6235999999999999,-0.6786,-0.08239999999999992]","[0.40379999999999994,0.09000000000000008,0.44300000000000006]",54,201.999939,1,0,0,response1disk,-42,4,1,0,0,rectangle,-42,4,1,0,0,,2,0.0006,0,-42,4,1,0,0,0,7,7,54,1,54,first,,,,,,,,,,,,,,,,,,,,,,,,,,,,,,,,,,,,,,,,,,,,,,,,,,,,,,,,,,,,,,,,,,,
,,,,,,6151a03414a54076ff8b2720,62bbfa794c0965e18c1d44a1,2022-06-29_09h38.41.688,Colour_Asymmetry_Pilot,2022.1.3,Win32,60.05645307,62bbe60bf3d75ef465d3e404,,,,,,,,,,,,,,,,,,,,threeone,,4,2.0151,,,,,,,,,,,,,,,,,,,,,,,,,,,,,,,,,,"[-0.10599999999999998,-0.10599999999999998,0.5841999999999998]","[-0.6942,-0.7648,-0.12959999999999994]",138,264,1,0,0,response1disk,14,14,1,0,0,rectangle,14,14,1,0,0,,1,0.0007,0,14,14,1,0,0,0,8,8,28,1,28,first,,,,,,,,,,,,,,,,,,,,,,,,,,,,,,,,,,,,,,,,,,,,,,,,,,,,,,,,,,,,,,,,,,,
,,,,,,6151a03414a54076ff8b2720,62bbfa794c0965e18c1d44a1,2022-06-29_09h38.41.688,Colour_Asymmetry_Pilot,2022.1.3,Win32,60.05645307,62bbe60bf3d75ef465d3e404,,,,,,,,,,,,,,,,,,,,fourtwo,,-4,1.3155,,,,,,,,,,,,,,,,,,,,,,,,,,,,,,,,,,"[-0.9688,-0.38039999999999996,-0.41979999999999995]","[-0.5922000000000001,-0.7492000000000001,-0.5296000000000001]",-108,218,1,0,0,response7disk,-12,-20,1,0,0,rectangle,-12,-20,1,0,0,,2,0.0008,0,-12,-20,1,0,0,0,9,9,137,1,56,second,,,,,,,,,,,,,,,,,,,,,,,,,,,,,,,,,,,,,,,,,,,,,,,,,,,,,,,,,,,,,,,,,,,
,,,,,,6151a03414a54076ff8b2720,62bbfa794c0965e18c1d44a1,2022-06-29_09h38.41.688,Colour_Asymmetry_Pilot,2022.1.3,Win32,60.05645307,62bbe60bf3d75ef465d3e404,,,,,,,,,,,,,,,,,,,,fourthree,,-4,1.0666,,,,,,,,,,,,,,,,,,,,,,,,,,,,,,,,,,"[-0.17659999999999998,-0.2864,-0.8354]","[-0.4668,-0.8746,-0.2942]",-97.99987793,219.999939,1,0,0,response7disk,-46,24,1,0,0,rectangle,-46,24,1,0,0,,2,1E-04,0,-46,24,1,0,0,0,10,10,8,1,8,first,,,,,,,,,,,,,,,,,,,,,,,,,,,,,,,,,,,,,,,,,,,,,,,,,,,,,,,,,,,,,,,,,,,
,,,,,,6151a03414a54076ff8b2720,62bbfa794c0965e18c1d44a1,2022-06-29_09h38.41.688,Colour_Asymmetry_Pilot,2022.1.3,Win32,60.05645307,62bbe60bf3d75ef465d3e404,,,,,,,,,,,,,,,,,,,,fourtwo,,-4,1.5986,,,,,,,,,,,,,,,,,,,,,,,,,,,,,,,,,,"[-0.9844,-0.9688,-0.9922]","[-0.45899999999999996,-0.3256,-0.9374]",-49.99987793,272,1,0,0,response7disk,12,-14,1,0,0,rectangle,12,-14,1,0,0,,3,0.001,0,12,-14,1,0,0,0,11,11,45,1,45,first,,,,,,,,,,,,,,,,,,,,,,,,,,,,,,,,,,,,,,,,,,,,,,,,,,,,,,,,,,,,,,,,,,,
,,,,,,6151a03414a54076ff8b2720,62bbfa794c0965e18c1d44a1,2022-06-29_09h38.41.688,Colour_Asymmetry_Pilot,2022.1.3,Win32,60.05645307,62bbe60bf3d75ef465d3e404,,,,,,,,,,,,,,,,,,,,onetwo,,-4,0.8656,,,,,,,,,,,,,,,,,,,,,,,,,,,,,,,,,,"[-0.9688,-0.4902000000000001,-0.12159999999999993]","[-0.26280000000000003,-0.4746,-0.2158]",-109.9998779,218,1,0,0,response7disk,-10,34,1,0,0,rectangle,-10,34,1,0,0,,3,0,0,-10,34,1,0,0,0,12,12,27,1,27,first,,,,,,,,,,,,,,,,,,,,,,,,,,,,,,,,,,,,,,,,,,,,,,,,,,,,,,,,,,,,,,,,,,,
,,,,,,6151a03414a54076ff8b2720,62bbfa794c0965e18c1d44a1,2022-06-29_09h38.41.688,Colour_Asymmetry_Pilot,2022.1.3,Win32,60.05645307,62bbe60bf3d75ef465d3e404,,,,,,,,,,,,,,,,,,,,threeone,,4,1.7976,,,,,,,,,,,,,,,,,,,,,,,,,,,,,,,,,,"[0.8115999999999999,-0.0040000000000000036,-0.09819999999999995]","[-0.0040000000000000036,0.02739999999999987,-0.08239999999999992]",110,266,1,0,0,response1disk,-43.99987793,4,1,0,0,rectangle,-43.99987793,4,1,0,0,,1,0.0006,0,-43.99987793,4,1,0,0,0,13,13,59,1,59,first,,,,,,,,,,,,,,,,,,,,,,,,,,,,,,,,,,,,,,,,,,,,,,,,,,,,,,,,,,,,,,,,,,,
,,,,,,6151a03414a54076ff8b2720,62bbfa794c0965e18c1d44a1,2022-06-29_09h38.41.688,Colour_Asymmetry_Pilot,2022.1.3,Win32,60.05645307,62bbe60bf3d75ef465d3e404,,,,,,,,,,,,,,,,,,,,onethree,,-4,0.9482,,,,,,,,,,,,,,,,,,,,,,,,,,,,,,,,,,"[0.23120000000000007,-0.7726,-0.34120000000000006]","[-0.4902000000000001,0.2704,-0.45899999999999996]",-118,228,1,0,0,response7disk,-19.99987793,-4,1,0,0,rectangle,-19.99987793,-4,1,0,0,,3,0.0007,0,-19.99987793,-4,1,0,0,0,14,14,65,1,65,first,,,,,,,,,,,,,,,,,,,,,,,,,,,,,,,,,,,,,,,,,,,,,,,,,,,,,,,,,,,,,,,,,,,
,,,,,,6151a03414a54076ff8b2720,62bbfa794c0965e18c1d44a1,2022-06-29_09h38.41.688,Colour_Asymmetry_Pilot,2022.1.3,Win32,60.05645307,62bbe60bf3d75ef465d3e404,,,,,,,,,,,,,,,,,,,,onethree,,-4,1.2147,,,,,,,,,,,,,,,,,,,,,,,,,,,,,,,,,,"[0.11359999999999992,0.6312,0.5213999999999999]","[0.5528,0.7409999999999999,-0.71]",-108,249.999939,1,0,0,response7disk,-1.99987793,4,1,0,0,rectangle,-1.99987793,4,1,0,0,,3,1E-04,0,-1.99987793,4,1,0,0,0,15,15,153,1,72,second,,,,,,,,,,,,,,,,,,,,,,,,,,,,,,,,,,,,,,,,,,,,,,,,,,,,,,,,,,,,,,,,,,,
,,,,,,6151a03414a54076ff8b2720,62bbfa794c0965e18c1d44a1,2022-06-29_09h38.41.688,Colour_Asymmetry_Pilot,2022.1.3,Win32,60.05645307,62bbe60bf3d75ef465d3e404,,,,,,,,,,,,,,,,,,,,threeone,,4,1.0823,,,,,,,,,,,,,,,,,,,,,,,,,,,,,,,,,,"[0.9763999999999999,0.8588,-0.05900000000000005]","[0.9842,0.7409999999999999,-0.6628000000000001]",94.00012207,224,1,0,0,response1disk,-16,-2,1,0,0,rectangle,-16,-2,1,0,0,,3,0.0002,0,-16,-2,1,0,0,0,16,16,43,1,43,first,,,,,,,,,,,,,,,,,,,,,,,,,,,,,,,,,,,,,,,,,,,,,,,,,,,,,,,,,,,,,,,,,,,
,,,,,,6151a03414a54076ff8b2720,62bbfa794c0965e18c1d44a1,2022-06-29_09h38.41.688,Colour_Asymmetry_Pilot,2022.1.3,Win32,60.05645307,62bbe60bf3d75ef465d3e404,,,,,,,,,,,,,,,,,,,,fourthree,,-4,0.8319,,,,,,,,,,,,,,,,,,,,,,,,,,,,,,,,,,"[0.5449999999999999,-0.31000000000000005,-0.0354000000000001]","[-0.07459999999999989,0.12139999999999995,-0.9922]",-133.9998779,297.999939,1,0,0,response7disk,-12,-16,1,0,0,rectangle,-12,-16,1,0,0,,1,0.0005,0,-12,-16,1,0,0,0,17,17,106,1,25,second,,,,,,,,,,,,,,,,,,,,,,,,,,,,,,,,,,,,,,,,,,,,,,,,,,,,,,,,,,,,,,,,,,,
,,,,,,6151a03414a54076ff8b2720,62bbfa794c0965e18c1d44a1,2022-06-29_09h38.41.688,Colour_Asymmetry_Pilot,2022.1.3,Win32,60.05645307,62bbe60bf3d75ef465d3e404,,,,,,,,,,,,,,,,,,,,threefour,,-4,1.3819,,,,,,,,,,,,,,,,,,,,,,,,,,,,,,,,,,"[0.04299999999999993,0.16060000000000008,-0.6628000000000001]","[-0.011800000000000033,-0.906,-0.45100000000000007]",-112,270,1,0,0,response7disk,-7.99987793,12,1,0,0,rectangle,-7.99987793,12,1,0,0,,2,0.0006,0,-7.99987793,12,1,0,0,0,18,18,158,1,77,second,,,,,,,,,,,,,,,,,,,,,,,,,,,,,,,,,,,,,,,,,,,,,,,,,,,,,,,,,,,,,,,,,,,
,,,,,,6151a03414a54076ff8b2720,62bbfa794c0965e18c1d44a1,2022-06-29_09h38.41.688,Colour_Asymmetry_Pilot,2022.1.3,Win32,60.05645307,62bbe60bf3d75ef465d3e404,,,,,,,,,,,,,,,,,,,,onetwo,,-4,1.0983,,,,,,,,,,,,,,,,,,,,,,,,,,,,,,,,,,"[0.23120000000000007,-0.7726,-0.34120000000000006]","[-0.10599999999999998,-0.15300000000000002,0.15280000000000005]",-127.9998779,324,1,0,0,response7disk,-22,32,1,0,0,rectangle,-22,32,1,0,0,,3,0.0005,0,-22,32,1,0,0,0,19,19,81,1,0,second,,,,,,,,,,,,,,,,,,,,,,,,,,,,,,,,,,,,,,,,,,,,,,,,,,,,,,,,,,,,,,,,,,,
