trials.thisRepN,trials.thisTrialN,trials.thisN,trials.thisIndex,trials.ran,Colourcodes,participant,session,date,expName,psychopyVersion,OS,frameRate,study_id,trials_4.thisRepN,trials_4.thisTrialN,trials_4.thisN,trials_4.thisIndex,trials_4.ran,StimulusPos,key_resp.keys,key_resp.rt,key_resp_2.keys,key_resp_2.rt,key_resp_15.keys,key_resp_15.rt,key_resp_17.keys,key_resp_17.rt,key_resp_9.keys,key_resp_9.rt,key_resp_10.keys,key_resp_10.rt,Circle1_col,Ecc,Circle2_col,similarity,response_time,mouse_5.x,mouse_5.y,mouse_5.leftButton,mouse_5.midButton,mouse_5.rightButton,mouse_5.clicked_name,mouse_10.x,mouse_10.y,mouse_10.leftButton,mouse_10.midButton,mouse_10.rightButton,mouse_10.clicked_name,mouse_7.x,mouse_7.y,mouse_7.leftButton,mouse_7.midButton,mouse_7.rightButton,catchnumberprac,mouse_6.x,mouse_6.y,mouse_6.leftButton,mouse_6.midButton,mouse_6.rightButton,duringprac.thisRepN,duringprac.thisTrialN,duringprac.thisN,duringprac.thisIndex,duringprac.ran,mouse_7.clicked_name,catchprac,mouse_6.clicked_name,key_resp_22.keys,key_resp_22.rt,Circle1_colour,Circle2_colour,mouse.x,mouse.y,mouse.leftButton,mouse.midButton,mouse.rightButton,mouse.clicked_name,mouse_2.x,mouse_2.y,mouse_2.leftButton,mouse_2.midButton,mouse_2.rightButton,mouse_2.clicked_name,mouse_3.x,mouse_3.y,mouse_3.leftButton,mouse_3.midButton,mouse_3.rightButton,catchresponse,catchnumber,response_time_catch,Catch,mouse_11.x,mouse_11.y,mouse_11.leftButton,mouse_11.midButton,mouse_11.rightButton,trials_2.thisRepN,trials_2.thisTrialN,trials_2.thisN,trials_2.thisIndex,trials_2.ran,Colourpair,Temporder,mouse_3.clicked_name,mouse_11.clicked_name,trials_3.thisRepN,trials_3.thisTrialN,trials_3.thisN,trials_3.thisIndex,trials_3.ran,key_resp_instr_Ishi.keys,key_resp_instr_Ishi.rt,Ishi_trial_keyresp.keys,Ishi_trial_keyresp.rt,Ishi_textbox.text,Ishi_loop.thisRepN,Ishi_loop.thisTrialN,Ishi_loop.thisN,Ishi_loop.thisIndex,Ishi_loop.ran,imageaddress,textbox.text,mouse_4.x,mouse_4.y,mouse_4.leftButton,mouse_4.midButton,mouse_4.rightButton,mouse_4.clicked_name,textbox_2.text,mouse_8.x,mouse_8.y,mouse_8.leftButton,mouse_8.midButton,mouse_8.rightButton,mouse_8.clicked_name,textbox_3.text,mouse_9.x,mouse_9.y,mouse_9.leftButton,mouse_9.midButton,mouse_9.rightButton,mouse_9.clicked_name,textbox_4.text,mouse_12.x,mouse_12.y,mouse_12.leftButton,mouse_12.midButton,mouse_12.rightButton,mouse_12.clicked_name,textbox_5.text,mouse_13.x,mouse_13.y,mouse_13.leftButton,mouse_13.midButton,mouse_13.rightButton,mouse_13.clicked_name,textbox_6.text,mouse_14.x,mouse_14.y,mouse_14.leftButton,mouse_14.midButton,mouse_14.rightButton,mouse_14.clicked_name,textbox_7.text,mouse_15.x,mouse_15.y,mouse_15.leftButton,mouse_15.midButton,mouse_15.rightButton,mouse_15.clicked_name
0,0,0,16,1,,5f3ba39206b3218cf379659d,62bbfaa05630fa8fcf446888,2022-06-29_19h09.57.374,Colour_Asymmetry_Pilot,2022.1.3,Win32,60.46680372,62bbe60bf3d75ef465d3e404,,,,,,,,,,,,,,,,,,,,,,,,,,,,,,,,,,,,,,,,,,,,,,,,,,,,,,,,,,,,,,,,,,,,,,,,,,,,,,,,,,,,,,,,,,,,,,,,,,,,,,,,,,,,,,,,,,,,,,,,,,,,,,,,,,,,,,,,,,,,,,,,,,,,,,,,,,,,,,
0,1,1,32,1,,5f3ba39206b3218cf379659d,62bbfaa05630fa8fcf446888,2022-06-29_19h09.57.374,Colour_Asymmetry_Pilot,2022.1.3,Win32,60.46680372,62bbe60bf3d75ef465d3e404,,,,,,,,,,,,,,,,,,,,,,,,,,,,,,,,,,,,,,,,,,,,,,,,,,,,,,,,,,,,,,,,,,,,,,,,,,,,,,,,,,,,,,,,,,,,,,,,,,,,,,,,,,,,,,,,,,,,,,,,,,,,,,,,,,,,,,,,,,,,,,,,,,,,,,,,,,,,,,
0,2,2,30,1,,5f3ba39206b3218cf379659d,62bbfaa05630fa8fcf446888,2022-06-29_19h09.57.374,Colour_Asymmetry_Pilot,2022.1.3,Win32,60.46680372,62bbe60bf3d75ef465d3e404,,,,,,,,,,,,,,,,,,,,,,,,,,,,,,,,,,,,,,,,,,,,,,,,,,,,,,,,,,,,,,,,,,,,,,,,,,,,,,,,,,,,,,,,,,,,,,,,,,,,,,,,,,,,,,,,,,,,,,,,,,,,,,,,,,,,,,,,,,,,,,,,,,,,,,,,,,,,,,
0,3,3,68,1,,5f3ba39206b3218cf379659d,62bbfaa05630fa8fcf446888,2022-06-29_19h09.57.374,Colour_Asymmetry_Pilot,2022.1.3,Win32,60.46680372,62bbe60bf3d75ef465d3e404,,,,,,,,,,,,,,,,,,,,,,,,,,,,,,,,,,,,,,,,,,,,,,,,,,,,,,,,,,,,,,,,,,,,,,,,,,,,,,,,,,,,,,,,,,,,,,,,,,,,,,,,,,,,,,,,,,,,,,,,,,,,,,,,,,,,,,,,,,,,,,,,,,,,,,,,,,,,,,
0,4,4,44,1,,5f3ba39206b3218cf379659d,62bbfaa05630fa8fcf446888,2022-06-29_19h09.57.374,Colour_Asymmetry_Pilot,2022.1.3,Win32,60.46680372,62bbe60bf3d75ef465d3e404,,,,,,,,,,,,,,,,,,,,,,,,,,,,,,,,,,,,,,,,,,,,,,,,,,,,,,,,,,,,,,,,,,,,,,,,,,,,,,,,,,,,,,,,,,,,,,,,,,,,,,,,,,,,,,,,,,,,,,,,,,,,,,,,,,,,,,,,,,,,,,,,,,,,,,,,,,,,,,
0,5,5,85,1,,5f3ba39206b3218cf379659d,62bbfaa05630fa8fcf446888,2022-06-29_19h09.57.374,Colour_Asymmetry_Pilot,2022.1.3,Win32,60.46680372,62bbe60bf3d75ef465d3e404,,,,,,,,,,,,,,,,,,,,,,,,,,,,,,,,,,,,,,,,,,,,,,,,,,,,,,,,,,,,,,,,,,,,,,,,,,,,,,,,,,,,,,,,,,,,,,,,,,,,,,,,,,,,,,,,,,,,,,,,,,,,,,,,,,,,,,,,,,,,,,,,,,,,,,,,,,,,,,
0,6,6,33,1,,5f3ba39206b3218cf379659d,62bbfaa05630fa8fcf446888,2022-06-29_19h09.57.374,Colour_Asymmetry_Pilot,2022.1.3,Win32,60.46680372,62bbe60bf3d75ef465d3e404,,,,,,,,,,,,,,,,,,,,,,,,,,,,,,,,,,,,,,,,,,,,,,,,,,,,,,,,,,,,,,,,,,,,,,,,,,,,,,,,,,,,,,,,,,,,,,,,,,,,,,,,,,,,,,,,,,,,,,,,,,,,,,,,,,,,,,,,,,,,,,,,,,,,,,,,,,,,,,
0,7,7,13,1,,5f3ba39206b3218cf379659d,62bbfaa05630fa8fcf446888,2022-06-29_19h09.57.374,Colour_Asymmetry_Pilot,2022.1.3,Win32,60.46680372,62bbe60bf3d75ef465d3e404,,,,,,,,,,,,,,,,,,,,,,,,,,,,,,,,,,,,,,,,,,,,,,,,,,,,,,,,,,,,,,,,,,,,,,,,,,,,,,,,,,,,,,,,,,,,,,,,,,,,,,,,,,,,,,,,,,,,,,,,,,,,,,,,,,,,,,,,,,,,,,,,,,,,,,,,,,,,,,
0,8,8,90,1,,5f3ba39206b3218cf379659d,62bbfaa05630fa8fcf446888,2022-06-29_19h09.57.374,Colour_Asymmetry_Pilot,2022.1.3,Win32,60.46680372,62bbe60bf3d75ef465d3e404,,,,,,,,,,,,,,,,,,,,,,,,,,,,,,,,,,,,,,,,,,,,,,,,,,,,,,,,,,,,,,,,,,,,,,,,,,,,,,,,,,,,,,,,,,,,,,,,,,,,,,,,,,,,,,,,,,,,,,,,,,,,,,,,,,,,,,,,,,,,,,,,,,,,,,,,,,,,,,
0,9,9,46,1,,5f3ba39206b3218cf379659d,62bbfaa05630fa8fcf446888,2022-06-29_19h09.57.374,Colour_Asymmetry_Pilot,2022.1.3,Win32,60.46680372,62bbe60bf3d75ef465d3e404,,,,,,,,,,,,,,,,,,,,,,,,,,,,,,,,,,,,,,,,,,,,,,,,,,,,,,,,,,,,,,,,,,,,,,,,,,,,,,,,,,,,,,,,,,,,,,,,,,,,,,,,,,,,,,,,,,,,,,,,,,,,,,,,,,,,,,,,,,,,,,,,,,,,,,,,,,,,,,
0,10,10,86,1,,5f3ba39206b3218cf379659d,62bbfaa05630fa8fcf446888,2022-06-29_19h09.57.374,Colour_Asymmetry_Pilot,2022.1.3,Win32,60.46680372,62bbe60bf3d75ef465d3e404,,,,,,,,,,,,,,,,,,,,,,,,,,,,,,,,,,,,,,,,,,,,,,,,,,,,,,,,,,,,,,,,,,,,,,,,,,,,,,,,,,,,,,,,,,,,,,,,,,,,,,,,,,,,,,,,,,,,,,,,,,,,,,,,,,,,,,,,,,,,,,,,,,,,,,,,,,,,,,
0,11,11,65,1,,5f3ba39206b3218cf379659d,62bbfaa05630fa8fcf446888,2022-06-29_19h09.57.374,Colour_Asymmetry_Pilot,2022.1.3,Win32,60.46680372,62bbe60bf3d75ef465d3e404,,,,,,,,,,,,,,,,,,,,,,,,,,,,,,,,,,,,,,,,,,,,,,,,,,,,,,,,,,,,,,,,,,,,,,,,,,,,,,,,,,,,,,,,,,,,,,,,,,,,,,,,,,,,,,,,,,,,,,,,,,,,,,,,,,,,,,,,,,,,,,,,,,,,,,,,,,,,,,
0,12,12,23,1,,5f3ba39206b3218cf379659d,62bbfaa05630fa8fcf446888,2022-06-29_19h09.57.374,Colour_Asymmetry_Pilot,2022.1.3,Win32,60.46680372,62bbe60bf3d75ef465d3e404,,,,,,,,,,,,,,,,,,,,,,,,,,,,,,,,,,,,,,,,,,,,,,,,,,,,,,,,,,,,,,,,,,,,,,,,,,,,,,,,,,,,,,,,,,,,,,,,,,,,,,,,,,,,,,,,,,,,,,,,,,,,,,,,,,,,,,,,,,,,,,,,,,,,,,,,,,,,,,
0,13,13,39,1,,5f3ba39206b3218cf379659d,62bbfaa05630fa8fcf446888,2022-06-29_19h09.57.374,Colour_Asymmetry_Pilot,2022.1.3,Win32,60.46680372,62bbe60bf3d75ef465d3e404,,,,,,,,,,,,,,,,,,,,,,,,,,,,,,,,,,,,,,,,,,,,,,,,,,,,,,,,,,,,,,,,,,,,,,,,,,,,,,,,,,,,,,,,,,,,,,,,,,,,,,,,,,,,,,,,,,,,,,,,,,,,,,,,,,,,,,,,,,,,,,,,,,,,,,,,,,,,,,
0,14,14,7,1,,5f3ba39206b3218cf379659d,62bbfaa05630fa8fcf446888,2022-06-29_19h09.57.374,Colour_Asymmetry_Pilot,2022.1.3,Win32,60.46680372,62bbe60bf3d75ef465d3e404,,,,,,,,,,,,,,,,,,,,,,,,,,,,,,,,,,,,,,,,,,,,,,,,,,,,,,,,,,,,,,,,,,,,,,,,,,,,,,,,,,,,,,,,,,,,,,,,,,,,,,,,,,,,,,,,,,,,,,,,,,,,,,,,,,,,,,,,,,,,,,,,,,,,,,,,,,,,,,
0,15,15,52,1,,5f3ba39206b3218cf379659d,62bbfaa05630fa8fcf446888,2022-06-29_19h09.57.374,Colour_Asymmetry_Pilot,2022.1.3,Win32,60.46680372,62bbe60bf3d75ef465d3e404,,,,,,,,,,,,,,,,,,,,,,,,,,,,,,,,,,,,,,,,,,,,,,,,,,,,,,,,,,,,,,,,,,,,,,,,,,,,,,,,,,,,,,,,,,,,,,,,,,,,,,,,,,,,,,,,,,,,,,,,,,,,,,,,,,,,,,,,,,,,,,,,,,,,,,,,,,,,,,
0,16,16,69,1,,5f3ba39206b3218cf379659d,62bbfaa05630fa8fcf446888,2022-06-29_19h09.57.374,Colour_Asymmetry_Pilot,2022.1.3,Win32,60.46680372,62bbe60bf3d75ef465d3e404,,,,,,,,,,,,,,,,,,,,,,,,,,,,,,,,,,,,,,,,,,,,,,,,,,,,,,,,,,,,,,,,,,,,,,,,,,,,,,,,,,,,,,,,,,,,,,,,,,,,,,,,,,,,,,,,,,,,,,,,,,,,,,,,,,,,,,,,,,,,,,,,,,,,,,,,,,,,,,
0,17,17,43,1,,5f3ba39206b3218cf379659d,62bbfaa05630fa8fcf446888,2022-06-29_19h09.57.374,Colour_Asymmetry_Pilot,2022.1.3,Win32,60.46680372,62bbe60bf3d75ef465d3e404,,,,,,,,,,,,,,,,,,,,,,,,,,,,,,,,,,,,,,,,,,,,,,,,,,,,,,,,,,,,,,,,,,,,,,,,,,,,,,,,,,,,,,,,,,,,,,,,,,,,,,,,,,,,,,,,,,,,,,,,,,,,,,,,,,,,,,,,,,,,,,,,,,,,,,,,,,,,,,
0,18,18,70,1,,5f3ba39206b3218cf379659d,62bbfaa05630fa8fcf446888,2022-06-29_19h09.57.374,Colour_Asymmetry_Pilot,2022.1.3,Win32,60.46680372,62bbe60bf3d75ef465d3e404,,,,,,,,,,,,,,,,,,,,,,,,,,,,,,,,,,,,,,,,,,,,,,,,,,,,,,,,,,,,,,,,,,,,,,,,,,,,,,,,,,,,,,,,,,,,,,,,,,,,,,,,,,,,,,,,,,,,,,,,,,,,,,,,,,,,,,,,,,,,,,,,,,,,,,,,,,,,,,
0,19,19,18,1,,5f3ba39206b3218cf379659d,62bbfaa05630fa8fcf446888,2022-06-29_19h09.57.374,Colour_Asymmetry_Pilot,2022.1.3,Win32,60.46680372,62bbe60bf3d75ef465d3e404,,,,,,,,,,,,,,,,,,,,,,,,,,,,,,,,,,,,,,,,,,,,,,,,,,,,,,,,,,,,,,,,,,,,,,,,,,,,,,,,,,,,,,,,,,,,,,,,,,,,,,,,,,,,,,,,,,,,,,,,,,,,,,,,,,,,,,,,,,,,,,,,,,,,,,,,,,,,,,
0,20,20,78,1,,5f3ba39206b3218cf379659d,62bbfaa05630fa8fcf446888,2022-06-29_19h09.57.374,Colour_Asymmetry_Pilot,2022.1.3,Win32,60.46680372,62bbe60bf3d75ef465d3e404,,,,,,,,,,,,,,,,,,,,,,,,,,,,,,,,,,,,,,,,,,,,,,,,,,,,,,,,,,,,,,,,,,,,,,,,,,,,,,,,,,,,,,,,,,,,,,,,,,,,,,,,,,,,,,,,,,,,,,,,,,,,,,,,,,,,,,,,,,,,,,,,,,,,,,,,,,,,,,
0,21,21,88,1,,5f3ba39206b3218cf379659d,62bbfaa05630fa8fcf446888,2022-06-29_19h09.57.374,Colour_Asymmetry_Pilot,2022.1.3,Win32,60.46680372,62bbe60bf3d75ef465d3e404,,,,,,,,,,,,,,,,,,,,,,,,,,,,,,,,,,,,,,,,,,,,,,,,,,,,,,,,,,,,,,,,,,,,,,,,,,,,,,,,,,,,,,,,,,,,,,,,,,,,,,,,,,,,,,,,,,,,,,,,,,,,,,,,,,,,,,,,,,,,,,,,,,,,,,,,,,,,,,
0,22,22,92,1,,5f3ba39206b3218cf379659d,62bbfaa05630fa8fcf446888,2022-06-29_19h09.57.374,Colour_Asymmetry_Pilot,2022.1.3,Win32,60.46680372,62bbe60bf3d75ef465d3e404,,,,,,,,,,,,,,,,,,,,,,,,,,,,,,,,,,,,,,,,,,,,,,,,,,,,,,,,,,,,,,,,,,,,,,,,,,,,,,,,,,,,,,,,,,,,,,,,,,,,,,,,,,,,,,,,,,,,,,,,,,,,,,,,,,,,,,,,,,,,,,,,,,,,,,,,,,,,,,
0,23,23,35,1,,5f3ba39206b3218cf379659d,62bbfaa05630fa8fcf446888,2022-06-29_19h09.57.374,Colour_Asymmetry_Pilot,2022.1.3,Win32,60.46680372,62bbe60bf3d75ef465d3e404,,,,,,,,,,,,,,,,,,,,,,,,,,,,,,,,,,,,,,,,,,,,,,,,,,,,,,,,,,,,,,,,,,,,,,,,,,,,,,,,,,,,,,,,,,,,,,,,,,,,,,,,,,,,,,,,,,,,,,,,,,,,,,,,,,,,,,,,,,,,,,,,,,,,,,,,,,,,,,
0,24,24,15,1,,5f3ba39206b3218cf379659d,62bbfaa05630fa8fcf446888,2022-06-29_19h09.57.374,Colour_Asymmetry_Pilot,2022.1.3,Win32,60.46680372,62bbe60bf3d75ef465d3e404,,,,,,,,,,,,,,,,,,,,,,,,,,,,,,,,,,,,,,,,,,,,,,,,,,,,,,,,,,,,,,,,,,,,,,,,,,,,,,,,,,,,,,,,,,,,,,,,,,,,,,,,,,,,,,,,,,,,,,,,,,,,,,,,,,,,,,,,,,,,,,,,,,,,,,,,,,,,,,
0,25,25,50,1,,5f3ba39206b3218cf379659d,62bbfaa05630fa8fcf446888,2022-06-29_19h09.57.374,Colour_Asymmetry_Pilot,2022.1.3,Win32,60.46680372,62bbe60bf3d75ef465d3e404,,,,,,,,,,,,,,,,,,,,,,,,,,,,,,,,,,,,,,,,,,,,,,,,,,,,,,,,,,,,,,,,,,,,,,,,,,,,,,,,,,,,,,,,,,,,,,,,,,,,,,,,,,,,,,,,,,,,,,,,,,,,,,,,,,,,,,,,,,,,,,,,,,,,,,,,,,,,,,
0,26,26,73,1,,5f3ba39206b3218cf379659d,62bbfaa05630fa8fcf446888,2022-06-29_19h09.57.374,Colour_Asymmetry_Pilot,2022.1.3,Win32,60.46680372,62bbe60bf3d75ef465d3e404,,,,,,,,,,,,,,,,,,,,,,,,,,,,,,,,,,,,,,,,,,,,,,,,,,,,,,,,,,,,,,,,,,,,,,,,,,,,,,,,,,,,,,,,,,,,,,,,,,,,,,,,,,,,,,,,,,,,,,,,,,,,,,,,,,,,,,,,,,,,,,,,,,,,,,,,,,,,,,
0,27,27,27,1,,5f3ba39206b3218cf379659d,62bbfaa05630fa8fcf446888,2022-06-29_19h09.57.374,Colour_Asymmetry_Pilot,2022.1.3,Win32,60.46680372,62bbe60bf3d75ef465d3e404,,,,,,,,,,,,,,,,,,,,,,,,,,,,,,,,,,,,,,,,,,,,,,,,,,,,,,,,,,,,,,,,,,,,,,,,,,,,,,,,,,,,,,,,,,,,,,,,,,,,,,,,,,,,,,,,,,,,,,,,,,,,,,,,,,,,,,,,,,,,,,,,,,,,,,,,,,,,,,
0,28,28,31,1,,5f3ba39206b3218cf379659d,62bbfaa05630fa8fcf446888,2022-06-29_19h09.57.374,Colour_Asymmetry_Pilot,2022.1.3,Win32,60.46680372,62bbe60bf3d75ef465d3e404,,,,,,,,,,,,,,,,,,,,,,,,,,,,,,,,,,,,,,,,,,,,,,,,,,,,,,,,,,,,,,,,,,,,,,,,,,,,,,,,,,,,,,,,,,,,,,,,,,,,,,,,,,,,,,,,,,,,,,,,,,,,,,,,,,,,,,,,,,,,,,,,,,,,,,,,,,,,,,
0,29,29,89,1,,5f3ba39206b3218cf379659d,62bbfaa05630fa8fcf446888,2022-06-29_19h09.57.374,Colour_Asymmetry_Pilot,2022.1.3,Win32,60.46680372,62bbe60bf3d75ef465d3e404,,,,,,,,,,,,,,,,,,,,,,,,,,,,,,,,,,,,,,,,,,,,,,,,,,,,,,,,,,,,,,,,,,,,,,,,,,,,,,,,,,,,,,,,,,,,,,,,,,,,,,,,,,,,,,,,,,,,,,,,,,,,,,,,,,,,,,,,,,,,,,,,,,,,,,,,,,,,,,
0,30,30,91,1,,5f3ba39206b3218cf379659d,62bbfaa05630fa8fcf446888,2022-06-29_19h09.57.374,Colour_Asymmetry_Pilot,2022.1.3,Win32,60.46680372,62bbe60bf3d75ef465d3e404,,,,,,,,,,,,,,,,,,,,,,,,,,,,,,,,,,,,,,,,,,,,,,,,,,,,,,,,,,,,,,,,,,,,,,,,,,,,,,,,,,,,,,,,,,,,,,,,,,,,,,,,,,,,,,,,,,,,,,,,,,,,,,,,,,,,,,,,,,,,,,,,,,,,,,,,,,,,,,
0,31,31,63,1,,5f3ba39206b3218cf379659d,62bbfaa05630fa8fcf446888,2022-06-29_19h09.57.374,Colour_Asymmetry_Pilot,2022.1.3,Win32,60.46680372,62bbe60bf3d75ef465d3e404,,,,,,,,,,,,,,,,,,,,,,,,,,,,,,,,,,,,,,,,,,,,,,,,,,,,,,,,,,,,,,,,,,,,,,,,,,,,,,,,,,,,,,,,,,,,,,,,,,,,,,,,,,,,,,,,,,,,,,,,,,,,,,,,,,,,,,,,,,,,,,,,,,,,,,,,,,,,,,
0,32,32,11,1,,5f3ba39206b3218cf379659d,62bbfaa05630fa8fcf446888,2022-06-29_19h09.57.374,Colour_Asymmetry_Pilot,2022.1.3,Win32,60.46680372,62bbe60bf3d75ef465d3e404,,,,,,,,,,,,,,,,,,,,,,,,,,,,,,,,,,,,,,,,,,,,,,,,,,,,,,,,,,,,,,,,,,,,,,,,,,,,,,,,,,,,,,,,,,,,,,,,,,,,,,,,,,,,,,,,,,,,,,,,,,,,,,,,,,,,,,,,,,,,,,,,,,,,,,,,,,,,,,
0,33,33,72,1,,5f3ba39206b3218cf379659d,62bbfaa05630fa8fcf446888,2022-06-29_19h09.57.374,Colour_Asymmetry_Pilot,2022.1.3,Win32,60.46680372,62bbe60bf3d75ef465d3e404,,,,,,,,,,,,,,,,,,,,,,,,,,,,,,,,,,,,,,,,,,,,,,,,,,,,,,,,,,,,,,,,,,,,,,,,,,,,,,,,,,,,,,,,,,,,,,,,,,,,,,,,,,,,,,,,,,,,,,,,,,,,,,,,,,,,,,,,,,,,,,,,,,,,,,,,,,,,,,
0,34,34,55,1,,5f3ba39206b3218cf379659d,62bbfaa05630fa8fcf446888,2022-06-29_19h09.57.374,Colour_Asymmetry_Pilot,2022.1.3,Win32,60.46680372,62bbe60bf3d75ef465d3e404,,,,,,,,,,,,,,,,,,,,,,,,,,,,,,,,,,,,,,,,,,,,,,,,,,,,,,,,,,,,,,,,,,,,,,,,,,,,,,,,,,,,,,,,,,,,,,,,,,,,,,,,,,,,,,,,,,,,,,,,,,,,,,,,,,,,,,,,,,,,,,,,,,,,,,,,,,,,,,
0,35,35,57,1,,5f3ba39206b3218cf379659d,62bbfaa05630fa8fcf446888,2022-06-29_19h09.57.374,Colour_Asymmetry_Pilot,2022.1.3,Win32,60.46680372,62bbe60bf3d75ef465d3e404,,,,,,,,,,,,,,,,,,,,,,,,,,,,,,,,,,,,,,,,,,,,,,,,,,,,,,,,,,,,,,,,,,,,,,,,,,,,,,,,,,,,,,,,,,,,,,,,,,,,,,,,,,,,,,,,,,,,,,,,,,,,,,,,,,,,,,,,,,,,,,,,,,,,,,,,,,,,,,
0,36,36,8,1,,5f3ba39206b3218cf379659d,62bbfaa05630fa8fcf446888,2022-06-29_19h09.57.374,Colour_Asymmetry_Pilot,2022.1.3,Win32,60.46680372,62bbe60bf3d75ef465d3e404,,,,,,,,,,,,,,,,,,,,,,,,,,,,,,,,,,,,,,,,,,,,,,,,,,,,,,,,,,,,,,,,,,,,,,,,,,,,,,,,,,,,,,,,,,,,,,,,,,,,,,,,,,,,,,,,,,,,,,,,,,,,,,,,,,,,,,,,,,,,,,,,,,,,,,,,,,,,,,
0,37,37,75,1,,5f3ba39206b3218cf379659d,62bbfaa05630fa8fcf446888,2022-06-29_19h09.57.374,Colour_Asymmetry_Pilot,2022.1.3,Win32,60.46680372,62bbe60bf3d75ef465d3e404,,,,,,,,,,,,,,,,,,,,,,,,,,,,,,,,,,,,,,,,,,,,,,,,,,,,,,,,,,,,,,,,,,,,,,,,,,,,,,,,,,,,,,,,,,,,,,,,,,,,,,,,,,,,,,,,,,,,,,,,,,,,,,,,,,,,,,,,,,,,,,,,,,,,,,,,,,,,,,
0,38,38,14,1,,5f3ba39206b3218cf379659d,62bbfaa05630fa8fcf446888,2022-06-29_19h09.57.374,Colour_Asymmetry_Pilot,2022.1.3,Win32,60.46680372,62bbe60bf3d75ef465d3e404,,,,,,,,,,,,,,,,,,,,,,,,,,,,,,,,,,,,,,,,,,,,,,,,,,,,,,,,,,,,,,,,,,,,,,,,,,,,,,,,,,,,,,,,,,,,,,,,,,,,,,,,,,,,,,,,,,,,,,,,,,,,,,,,,,,,,,,,,,,,,,,,,,,,,,,,,,,,,,
0,39,39,34,1,,5f3ba39206b3218cf379659d,62bbfaa05630fa8fcf446888,2022-06-29_19h09.57.374,Colour_Asymmetry_Pilot,2022.1.3,Win32,60.46680372,62bbe60bf3d75ef465d3e404,,,,,,,,,,,,,,,,,,,,,,,,,,,,,,,,,,,,,,,,,,,,,,,,,,,,,,,,,,,,,,,,,,,,,,,,,,,,,,,,,,,,,,,,,,,,,,,,,,,,,,,,,,,,,,,,,,,,,,,,,,,,,,,,,,,,,,,,,,,,,,,,,,,,,,,,,,,,,,
0,40,40,9,1,,5f3ba39206b3218cf379659d,62bbfaa05630fa8fcf446888,2022-06-29_19h09.57.374,Colour_Asymmetry_Pilot,2022.1.3,Win32,60.46680372,62bbe60bf3d75ef465d3e404,,,,,,,,,,,,,,,,,,,,,,,,,,,,,,,,,,,,,,,,,,,,,,,,,,,,,,,,,,,,,,,,,,,,,,,,,,,,,,,,,,,,,,,,,,,,,,,,,,,,,,,,,,,,,,,,,,,,,,,,,,,,,,,,,,,,,,,,,,,,,,,,,,,,,,,,,,,,,,
0,41,41,66,1,,5f3ba39206b3218cf379659d,62bbfaa05630fa8fcf446888,2022-06-29_19h09.57.374,Colour_Asymmetry_Pilot,2022.1.3,Win32,60.46680372,62bbe60bf3d75ef465d3e404,,,,,,,,,,,,,,,,,,,,,,,,,,,,,,,,,,,,,,,,,,,,,,,,,,,,,,,,,,,,,,,,,,,,,,,,,,,,,,,,,,,,,,,,,,,,,,,,,,,,,,,,,,,,,,,,,,,,,,,,,,,,,,,,,,,,,,,,,,,,,,,,,,,,,,,,,,,,,,
0,42,42,25,1,,5f3ba39206b3218cf379659d,62bbfaa05630fa8fcf446888,2022-06-29_19h09.57.374,Colour_Asymmetry_Pilot,2022.1.3,Win32,60.46680372,62bbe60bf3d75ef465d3e404,,,,,,,,,,,,,,,,,,,,,,,,,,,,,,,,,,,,,,,,,,,,,,,,,,,,,,,,,,,,,,,,,,,,,,,,,,,,,,,,,,,,,,,,,,,,,,,,,,,,,,,,,,,,,,,,,,,,,,,,,,,,,,,,,,,,,,,,,,,,,,,,,,,,,,,,,,,,,,
0,43,43,47,1,,5f3ba39206b3218cf379659d,62bbfaa05630fa8fcf446888,2022-06-29_19h09.57.374,Colour_Asymmetry_Pilot,2022.1.3,Win32,60.46680372,62bbe60bf3d75ef465d3e404,,,,,,,,,,,,,,,,,,,,,,,,,,,,,,,,,,,,,,,,,,,,,,,,,,,,,,,,,,,,,,,,,,,,,,,,,,,,,,,,,,,,,,,,,,,,,,,,,,,,,,,,,,,,,,,,,,,,,,,,,,,,,,,,,,,,,,,,,,,,,,,,,,,,,,,,,,,,,,
0,44,44,84,1,,5f3ba39206b3218cf379659d,62bbfaa05630fa8fcf446888,2022-06-29_19h09.57.374,Colour_Asymmetry_Pilot,2022.1.3,Win32,60.46680372,62bbe60bf3d75ef465d3e404,,,,,,,,,,,,,,,,,,,,,,,,,,,,,,,,,,,,,,,,,,,,,,,,,,,,,,,,,,,,,,,,,,,,,,,,,,,,,,,,,,,,,,,,,,,,,,,,,,,,,,,,,,,,,,,,,,,,,,,,,,,,,,,,,,,,,,,,,,,,,,,,,,,,,,,,,,,,,,
0,45,45,79,1,,5f3ba39206b3218cf379659d,62bbfaa05630fa8fcf446888,2022-06-29_19h09.57.374,Colour_Asymmetry_Pilot,2022.1.3,Win32,60.46680372,62bbe60bf3d75ef465d3e404,,,,,,,,,,,,,,,,,,,,,,,,,,,,,,,,,,,,,,,,,,,,,,,,,,,,,,,,,,,,,,,,,,,,,,,,,,,,,,,,,,,,,,,,,,,,,,,,,,,,,,,,,,,,,,,,,,,,,,,,,,,,,,,,,,,,,,,,,,,,,,,,,,,,,,,,,,,,,,
0,46,46,48,1,,5f3ba39206b3218cf379659d,62bbfaa05630fa8fcf446888,2022-06-29_19h09.57.374,Colour_Asymmetry_Pilot,2022.1.3,Win32,60.46680372,62bbe60bf3d75ef465d3e404,,,,,,,,,,,,,,,,,,,,,,,,,,,,,,,,,,,,,,,,,,,,,,,,,,,,,,,,,,,,,,,,,,,,,,,,,,,,,,,,,,,,,,,,,,,,,,,,,,,,,,,,,,,,,,,,,,,,,,,,,,,,,,,,,,,,,,,,,,,,,,,,,,,,,,,,,,,,,,
0,47,47,64,1,,5f3ba39206b3218cf379659d,62bbfaa05630fa8fcf446888,2022-06-29_19h09.57.374,Colour_Asymmetry_Pilot,2022.1.3,Win32,60.46680372,62bbe60bf3d75ef465d3e404,,,,,,,,,,,,,,,,,,,,,,,,,,,,,,,,,,,,,,,,,,,,,,,,,,,,,,,,,,,,,,,,,,,,,,,,,,,,,,,,,,,,,,,,,,,,,,,,,,,,,,,,,,,,,,,,,,,,,,,,,,,,,,,,,,,,,,,,,,,,,,,,,,,,,,,,,,,,,,
0,48,48,40,1,,5f3ba39206b3218cf379659d,62bbfaa05630fa8fcf446888,2022-06-29_19h09.57.374,Colour_Asymmetry_Pilot,2022.1.3,Win32,60.46680372,62bbe60bf3d75ef465d3e404,,,,,,,,,,,,,,,,,,,,,,,,,,,,,,,,,,,,,,,,,,,,,,,,,,,,,,,,,,,,,,,,,,,,,,,,,,,,,,,,,,,,,,,,,,,,,,,,,,,,,,,,,,,,,,,,,,,,,,,,,,,,,,,,,,,,,,,,,,,,,,,,,,,,,,,,,,,,,,
0,49,49,45,1,,5f3ba39206b3218cf379659d,62bbfaa05630fa8fcf446888,2022-06-29_19h09.57.374,Colour_Asymmetry_Pilot,2022.1.3,Win32,60.46680372,62bbe60bf3d75ef465d3e404,,,,,,,,,,,,,,,,,,,,,,,,,,,,,,,,,,,,,,,,,,,,,,,,,,,,,,,,,,,,,,,,,,,,,,,,,,,,,,,,,,,,,,,,,,,,,,,,,,,,,,,,,,,,,,,,,,,,,,,,,,,,,,,,,,,,,,,,,,,,,,,,,,,,,,,,,,,,,,
0,50,50,81,1,,5f3ba39206b3218cf379659d,62bbfaa05630fa8fcf446888,2022-06-29_19h09.57.374,Colour_Asymmetry_Pilot,2022.1.3,Win32,60.46680372,62bbe60bf3d75ef465d3e404,,,,,,,,,,,,,,,,,,,,,,,,,,,,,,,,,,,,,,,,,,,,,,,,,,,,,,,,,,,,,,,,,,,,,,,,,,,,,,,,,,,,,,,,,,,,,,,,,,,,,,,,,,,,,,,,,,,,,,,,,,,,,,,,,,,,,,,,,,,,,,,,,,,,,,,,,,,,,,
0,51,51,62,1,,5f3ba39206b3218cf379659d,62bbfaa05630fa8fcf446888,2022-06-29_19h09.57.374,Colour_Asymmetry_Pilot,2022.1.3,Win32,60.46680372,62bbe60bf3d75ef465d3e404,,,,,,,,,,,,,,,,,,,,,,,,,,,,,,,,,,,,,,,,,,,,,,,,,,,,,,,,,,,,,,,,,,,,,,,,,,,,,,,,,,,,,,,,,,,,,,,,,,,,,,,,,,,,,,,,,,,,,,,,,,,,,,,,,,,,,,,,,,,,,,,,,,,,,,,,,,,,,,
0,52,52,2,1,,5f3ba39206b3218cf379659d,62bbfaa05630fa8fcf446888,2022-06-29_19h09.57.374,Colour_Asymmetry_Pilot,2022.1.3,Win32,60.46680372,62bbe60bf3d75ef465d3e404,,,,,,,,,,,,,,,,,,,,,,,,,,,,,,,,,,,,,,,,,,,,,,,,,,,,,,,,,,,,,,,,,,,,,,,,,,,,,,,,,,,,,,,,,,,,,,,,,,,,,,,,,,,,,,,,,,,,,,,,,,,,,,,,,,,,,,,,,,,,,,,,,,,,,,,,,,,,,,
0,53,53,28,1,,5f3ba39206b3218cf379659d,62bbfaa05630fa8fcf446888,2022-06-29_19h09.57.374,Colour_Asymmetry_Pilot,2022.1.3,Win32,60.46680372,62bbe60bf3d75ef465d3e404,,,,,,,,,,,,,,,,,,,,,,,,,,,,,,,,,,,,,,,,,,,,,,,,,,,,,,,,,,,,,,,,,,,,,,,,,,,,,,,,,,,,,,,,,,,,,,,,,,,,,,,,,,,,,,,,,,,,,,,,,,,,,,,,,,,,,,,,,,,,,,,,,,,,,,,,,,,,,,
0,54,54,61,1,,5f3ba39206b3218cf379659d,62bbfaa05630fa8fcf446888,2022-06-29_19h09.57.374,Colour_Asymmetry_Pilot,2022.1.3,Win32,60.46680372,62bbe60bf3d75ef465d3e404,,,,,,,,,,,,,,,,,,,,,,,,,,,,,,,,,,,,,,,,,,,,,,,,,,,,,,,,,,,,,,,,,,,,,,,,,,,,,,,,,,,,,,,,,,,,,,,,,,,,,,,,,,,,,,,,,,,,,,,,,,,,,,,,,,,,,,,,,,,,,,,,,,,,,,,,,,,,,,
0,55,55,5,1,,5f3ba39206b3218cf379659d,62bbfaa05630fa8fcf446888,2022-06-29_19h09.57.374,Colour_Asymmetry_Pilot,2022.1.3,Win32,60.46680372,62bbe60bf3d75ef465d3e404,,,,,,,,,,,,,,,,,,,,,,,,,,,,,,,,,,,,,,,,,,,,,,,,,,,,,,,,,,,,,,,,,,,,,,,,,,,,,,,,,,,,,,,,,,,,,,,,,,,,,,,,,,,,,,,,,,,,,,,,,,,,,,,,,,,,,,,,,,,,,,,,,,,,,,,,,,,,,,
0,56,56,41,1,,5f3ba39206b3218cf379659d,62bbfaa05630fa8fcf446888,2022-06-29_19h09.57.374,Colour_Asymmetry_Pilot,2022.1.3,Win32,60.46680372,62bbe60bf3d75ef465d3e404,,,,,,,,,,,,,,,,,,,,,,,,,,,,,,,,,,,,,,,,,,,,,,,,,,,,,,,,,,,,,,,,,,,,,,,,,,,,,,,,,,,,,,,,,,,,,,,,,,,,,,,,,,,,,,,,,,,,,,,,,,,,,,,,,,,,,,,,,,,,,,,,,,,,,,,,,,,,,,
0,57,57,87,1,,5f3ba39206b3218cf379659d,62bbfaa05630fa8fcf446888,2022-06-29_19h09.57.374,Colour_Asymmetry_Pilot,2022.1.3,Win32,60.46680372,62bbe60bf3d75ef465d3e404,,,,,,,,,,,,,,,,,,,,,,,,,,,,,,,,,,,,,,,,,,,,,,,,,,,,,,,,,,,,,,,,,,,,,,,,,,,,,,,,,,,,,,,,,,,,,,,,,,,,,,,,,,,,,,,,,,,,,,,,,,,,,,,,,,,,,,,,,,,,,,,,,,,,,,,,,,,,,,
0,58,58,3,1,,5f3ba39206b3218cf379659d,62bbfaa05630fa8fcf446888,2022-06-29_19h09.57.374,Colour_Asymmetry_Pilot,2022.1.3,Win32,60.46680372,62bbe60bf3d75ef465d3e404,,,,,,,,,,,,,,,,,,,,,,,,,,,,,,,,,,,,,,,,,,,,,,,,,,,,,,,,,,,,,,,,,,,,,,,,,,,,,,,,,,,,,,,,,,,,,,,,,,,,,,,,,,,,,,,,,,,,,,,,,,,,,,,,,,,,,,,,,,,,,,,,,,,,,,,,,,,,,,
0,59,59,83,1,,5f3ba39206b3218cf379659d,62bbfaa05630fa8fcf446888,2022-06-29_19h09.57.374,Colour_Asymmetry_Pilot,2022.1.3,Win32,60.46680372,62bbe60bf3d75ef465d3e404,,,,,,,,,,,,,,,,,,,,,,,,,,,,,,,,,,,,,,,,,,,,,,,,,,,,,,,,,,,,,,,,,,,,,,,,,,,,,,,,,,,,,,,,,,,,,,,,,,,,,,,,,,,,,,,,,,,,,,,,,,,,,,,,,,,,,,,,,,,,,,,,,,,,,,,,,,,,,,
0,60,60,71,1,,5f3ba39206b3218cf379659d,62bbfaa05630fa8fcf446888,2022-06-29_19h09.57.374,Colour_Asymmetry_Pilot,2022.1.3,Win32,60.46680372,62bbe60bf3d75ef465d3e404,,,,,,,,,,,,,,,,,,,,,,,,,,,,,,,,,,,,,,,,,,,,,,,,,,,,,,,,,,,,,,,,,,,,,,,,,,,,,,,,,,,,,,,,,,,,,,,,,,,,,,,,,,,,,,,,,,,,,,,,,,,,,,,,,,,,,,,,,,,,,,,,,,,,,,,,,,,,,,
0,61,61,26,1,,5f3ba39206b3218cf379659d,62bbfaa05630fa8fcf446888,2022-06-29_19h09.57.374,Colour_Asymmetry_Pilot,2022.1.3,Win32,60.46680372,62bbe60bf3d75ef465d3e404,,,,,,,,,,,,,,,,,,,,,,,,,,,,,,,,,,,,,,,,,,,,,,,,,,,,,,,,,,,,,,,,,,,,,,,,,,,,,,,,,,,,,,,,,,,,,,,,,,,,,,,,,,,,,,,,,,,,,,,,,,,,,,,,,,,,,,,,,,,,,,,,,,,,,,,,,,,,,,
0,62,62,82,1,,5f3ba39206b3218cf379659d,62bbfaa05630fa8fcf446888,2022-06-29_19h09.57.374,Colour_Asymmetry_Pilot,2022.1.3,Win32,60.46680372,62bbe60bf3d75ef465d3e404,,,,,,,,,,,,,,,,,,,,,,,,,,,,,,,,,,,,,,,,,,,,,,,,,,,,,,,,,,,,,,,,,,,,,,,,,,,,,,,,,,,,,,,,,,,,,,,,,,,,,,,,,,,,,,,,,,,,,,,,,,,,,,,,,,,,,,,,,,,,,,,,,,,,,,,,,,,,,,
0,63,63,0,1,,5f3ba39206b3218cf379659d,62bbfaa05630fa8fcf446888,2022-06-29_19h09.57.374,Colour_Asymmetry_Pilot,2022.1.3,Win32,60.46680372,62bbe60bf3d75ef465d3e404,,,,,,,,,,,,,,,,,,,,,,,,,,,,,,,,,,,,,,,,,,,,,,,,,,,,,,,,,,,,,,,,,,,,,,,,,,,,,,,,,,,,,,,,,,,,,,,,,,,,,,,,,,,,,,,,,,,,,,,,,,,,,,,,,,,,,,,,,,,,,,,,,,,,,,,,,,,,,,
0,64,64,58,1,,5f3ba39206b3218cf379659d,62bbfaa05630fa8fcf446888,2022-06-29_19h09.57.374,Colour_Asymmetry_Pilot,2022.1.3,Win32,60.46680372,62bbe60bf3d75ef465d3e404,,,,,,,,,,,,,,,,,,,,,,,,,,,,,,,,,,,,,,,,,,,,,,,,,,,,,,,,,,,,,,,,,,,,,,,,,,,,,,,,,,,,,,,,,,,,,,,,,,,,,,,,,,,,,,,,,,,,,,,,,,,,,,,,,,,,,,,,,,,,,,,,,,,,,,,,,,,,,,
0,65,65,53,1,,5f3ba39206b3218cf379659d,62bbfaa05630fa8fcf446888,2022-06-29_19h09.57.374,Colour_Asymmetry_Pilot,2022.1.3,Win32,60.46680372,62bbe60bf3d75ef465d3e404,,,,,,,,,,,,,,,,,,,,,,,,,,,,,,,,,,,,,,,,,,,,,,,,,,,,,,,,,,,,,,,,,,,,,,,,,,,,,,,,,,,,,,,,,,,,,,,,,,,,,,,,,,,,,,,,,,,,,,,,,,,,,,,,,,,,,,,,,,,,,,,,,,,,,,,,,,,,,,
0,66,66,60,1,,5f3ba39206b3218cf379659d,62bbfaa05630fa8fcf446888,2022-06-29_19h09.57.374,Colour_Asymmetry_Pilot,2022.1.3,Win32,60.46680372,62bbe60bf3d75ef465d3e404,,,,,,,,,,,,,,,,,,,,,,,,,,,,,,,,,,,,,,,,,,,,,,,,,,,,,,,,,,,,,,,,,,,,,,,,,,,,,,,,,,,,,,,,,,,,,,,,,,,,,,,,,,,,,,,,,,,,,,,,,,,,,,,,,,,,,,,,,,,,,,,,,,,,,,,,,,,,,,
0,67,67,54,1,,5f3ba39206b3218cf379659d,62bbfaa05630fa8fcf446888,2022-06-29_19h09.57.374,Colour_Asymmetry_Pilot,2022.1.3,Win32,60.46680372,62bbe60bf3d75ef465d3e404,,,,,,,,,,,,,,,,,,,,,,,,,,,,,,,,,,,,,,,,,,,,,,,,,,,,,,,,,,,,,,,,,,,,,,,,,,,,,,,,,,,,,,,,,,,,,,,,,,,,,,,,,,,,,,,,,,,,,,,,,,,,,,,,,,,,,,,,,,,,,,,,,,,,,,,,,,,,,,
0,68,68,19,1,,5f3ba39206b3218cf379659d,62bbfaa05630fa8fcf446888,2022-06-29_19h09.57.374,Colour_Asymmetry_Pilot,2022.1.3,Win32,60.46680372,62bbe60bf3d75ef465d3e404,,,,,,,,,,,,,,,,,,,,,,,,,,,,,,,,,,,,,,,,,,,,,,,,,,,,,,,,,,,,,,,,,,,,,,,,,,,,,,,,,,,,,,,,,,,,,,,,,,,,,,,,,,,,,,,,,,,,,,,,,,,,,,,,,,,,,,,,,,,,,,,,,,,,,,,,,,,,,,
0,69,69,76,1,,5f3ba39206b3218cf379659d,62bbfaa05630fa8fcf446888,2022-06-29_19h09.57.374,Colour_Asymmetry_Pilot,2022.1.3,Win32,60.46680372,62bbe60bf3d75ef465d3e404,,,,,,,,,,,,,,,,,,,,,,,,,,,,,,,,,,,,,,,,,,,,,,,,,,,,,,,,,,,,,,,,,,,,,,,,,,,,,,,,,,,,,,,,,,,,,,,,,,,,,,,,,,,,,,,,,,,,,,,,,,,,,,,,,,,,,,,,,,,,,,,,,,,,,,,,,,,,,,
0,70,70,10,1,,5f3ba39206b3218cf379659d,62bbfaa05630fa8fcf446888,2022-06-29_19h09.57.374,Colour_Asymmetry_Pilot,2022.1.3,Win32,60.46680372,62bbe60bf3d75ef465d3e404,,,,,,,,,,,,,,,,,,,,,,,,,,,,,,,,,,,,,,,,,,,,,,,,,,,,,,,,,,,,,,,,,,,,,,,,,,,,,,,,,,,,,,,,,,,,,,,,,,,,,,,,,,,,,,,,,,,,,,,,,,,,,,,,,,,,,,,,,,,,,,,,,,,,,,,,,,,,,,
0,71,71,67,1,,5f3ba39206b3218cf379659d,62bbfaa05630fa8fcf446888,2022-06-29_19h09.57.374,Colour_Asymmetry_Pilot,2022.1.3,Win32,60.46680372,62bbe60bf3d75ef465d3e404,,,,,,,,,,,,,,,,,,,,,,,,,,,,,,,,,,,,,,,,,,,,,,,,,,,,,,,,,,,,,,,,,,,,,,,,,,,,,,,,,,,,,,,,,,,,,,,,,,,,,,,,,,,,,,,,,,,,,,,,,,,,,,,,,,,,,,,,,,,,,,,,,,,,,,,,,,,,,,
0,72,72,20,1,,5f3ba39206b3218cf379659d,62bbfaa05630fa8fcf446888,2022-06-29_19h09.57.374,Colour_Asymmetry_Pilot,2022.1.3,Win32,60.46680372,62bbe60bf3d75ef465d3e404,,,,,,,,,,,,,,,,,,,,,,,,,,,,,,,,,,,,,,,,,,,,,,,,,,,,,,,,,,,,,,,,,,,,,,,,,,,,,,,,,,,,,,,,,,,,,,,,,,,,,,,,,,,,,,,,,,,,,,,,,,,,,,,,,,,,,,,,,,,,,,,,,,,,,,,,,,,,,,
0,73,73,38,1,,5f3ba39206b3218cf379659d,62bbfaa05630fa8fcf446888,2022-06-29_19h09.57.374,Colour_Asymmetry_Pilot,2022.1.3,Win32,60.46680372,62bbe60bf3d75ef465d3e404,,,,,,,,,,,,,,,,,,,,,,,,,,,,,,,,,,,,,,,,,,,,,,,,,,,,,,,,,,,,,,,,,,,,,,,,,,,,,,,,,,,,,,,,,,,,,,,,,,,,,,,,,,,,,,,,,,,,,,,,,,,,,,,,,,,,,,,,,,,,,,,,,,,,,,,,,,,,,,
0,74,74,36,1,,5f3ba39206b3218cf379659d,62bbfaa05630fa8fcf446888,2022-06-29_19h09.57.374,Colour_Asymmetry_Pilot,2022.1.3,Win32,60.46680372,62bbe60bf3d75ef465d3e404,,,,,,,,,,,,,,,,,,,,,,,,,,,,,,,,,,,,,,,,,,,,,,,,,,,,,,,,,,,,,,,,,,,,,,,,,,,,,,,,,,,,,,,,,,,,,,,,,,,,,,,,,,,,,,,,,,,,,,,,,,,,,,,,,,,,,,,,,,,,,,,,,,,,,,,,,,,,,,
0,75,75,4,1,,5f3ba39206b3218cf379659d,62bbfaa05630fa8fcf446888,2022-06-29_19h09.57.374,Colour_Asymmetry_Pilot,2022.1.3,Win32,60.46680372,62bbe60bf3d75ef465d3e404,,,,,,,,,,,,,,,,,,,,,,,,,,,,,,,,,,,,,,,,,,,,,,,,,,,,,,,,,,,,,,,,,,,,,,,,,,,,,,,,,,,,,,,,,,,,,,,,,,,,,,,,,,,,,,,,,,,,,,,,,,,,,,,,,,,,,,,,,,,,,,,,,,,,,,,,,,,,,,
0,76,76,74,1,,5f3ba39206b3218cf379659d,62bbfaa05630fa8fcf446888,2022-06-29_19h09.57.374,Colour_Asymmetry_Pilot,2022.1.3,Win32,60.46680372,62bbe60bf3d75ef465d3e404,,,,,,,,,,,,,,,,,,,,,,,,,,,,,,,,,,,,,,,,,,,,,,,,,,,,,,,,,,,,,,,,,,,,,,,,,,,,,,,,,,,,,,,,,,,,,,,,,,,,,,,,,,,,,,,,,,,,,,,,,,,,,,,,,,,,,,,,,,,,,,,,,,,,,,,,,,,,,,
0,77,77,56,1,,5f3ba39206b3218cf379659d,62bbfaa05630fa8fcf446888,2022-06-29_19h09.57.374,Colour_Asymmetry_Pilot,2022.1.3,Win32,60.46680372,62bbe60bf3d75ef465d3e404,,,,,,,,,,,,,,,,,,,,,,,,,,,,,,,,,,,,,,,,,,,,,,,,,,,,,,,,,,,,,,,,,,,,,,,,,,,,,,,,,,,,,,,,,,,,,,,,,,,,,,,,,,,,,,,,,,,,,,,,,,,,,,,,,,,,,,,,,,,,,,,,,,,,,,,,,,,,,,
0,78,78,29,1,,5f3ba39206b3218cf379659d,62bbfaa05630fa8fcf446888,2022-06-29_19h09.57.374,Colour_Asymmetry_Pilot,2022.1.3,Win32,60.46680372,62bbe60bf3d75ef465d3e404,,,,,,,,,,,,,,,,,,,,,,,,,,,,,,,,,,,,,,,,,,,,,,,,,,,,,,,,,,,,,,,,,,,,,,,,,,,,,,,,,,,,,,,,,,,,,,,,,,,,,,,,,,,,,,,,,,,,,,,,,,,,,,,,,,,,,,,,,,,,,,,,,,,,,,,,,,,,,,
0,79,79,12,1,,5f3ba39206b3218cf379659d,62bbfaa05630fa8fcf446888,2022-06-29_19h09.57.374,Colour_Asymmetry_Pilot,2022.1.3,Win32,60.46680372,62bbe60bf3d75ef465d3e404,,,,,,,,,,,,,,,,,,,,,,,,,,,,,,,,,,,,,,,,,,,,,,,,,,,,,,,,,,,,,,,,,,,,,,,,,,,,,,,,,,,,,,,,,,,,,,,,,,,,,,,,,,,,,,,,,,,,,,,,,,,,,,,,,,,,,,,,,,,,,,,,,,,,,,,,,,,,,,
0,80,80,17,1,,5f3ba39206b3218cf379659d,62bbfaa05630fa8fcf446888,2022-06-29_19h09.57.374,Colour_Asymmetry_Pilot,2022.1.3,Win32,60.46680372,62bbe60bf3d75ef465d3e404,,,,,,,,,,,,,,,,,,,,,,,,,,,,,,,,,,,,,,,,,,,,,,,,,,,,,,,,,,,,,,,,,,,,,,,,,,,,,,,,,,,,,,,,,,,,,,,,,,,,,,,,,,,,,,,,,,,,,,,,,,,,,,,,,,,,,,,,,,,,,,,,,,,,,,,,,,,,,,
0,81,81,1,1,,5f3ba39206b3218cf379659d,62bbfaa05630fa8fcf446888,2022-06-29_19h09.57.374,Colour_Asymmetry_Pilot,2022.1.3,Win32,60.46680372,62bbe60bf3d75ef465d3e404,,,,,,,,,,,,,,,,,,,,,,,,,,,,,,,,,,,,,,,,,,,,,,,,,,,,,,,,,,,,,,,,,,,,,,,,,,,,,,,,,,,,,,,,,,,,,,,,,,,,,,,,,,,,,,,,,,,,,,,,,,,,,,,,,,,,,,,,,,,,,,,,,,,,,,,,,,,,,,
0,82,82,49,1,,5f3ba39206b3218cf379659d,62bbfaa05630fa8fcf446888,2022-06-29_19h09.57.374,Colour_Asymmetry_Pilot,2022.1.3,Win32,60.46680372,62bbe60bf3d75ef465d3e404,,,,,,,,,,,,,,,,,,,,,,,,,,,,,,,,,,,,,,,,,,,,,,,,,,,,,,,,,,,,,,,,,,,,,,,,,,,,,,,,,,,,,,,,,,,,,,,,,,,,,,,,,,,,,,,,,,,,,,,,,,,,,,,,,,,,,,,,,,,,,,,,,,,,,,,,,,,,,,
0,83,83,22,1,,5f3ba39206b3218cf379659d,62bbfaa05630fa8fcf446888,2022-06-29_19h09.57.374,Colour_Asymmetry_Pilot,2022.1.3,Win32,60.46680372,62bbe60bf3d75ef465d3e404,,,,,,,,,,,,,,,,,,,,,,,,,,,,,,,,,,,,,,,,,,,,,,,,,,,,,,,,,,,,,,,,,,,,,,,,,,,,,,,,,,,,,,,,,,,,,,,,,,,,,,,,,,,,,,,,,,,,,,,,,,,,,,,,,,,,,,,,,,,,,,,,,,,,,,,,,,,,,,
0,84,84,51,1,,5f3ba39206b3218cf379659d,62bbfaa05630fa8fcf446888,2022-06-29_19h09.57.374,Colour_Asymmetry_Pilot,2022.1.3,Win32,60.46680372,62bbe60bf3d75ef465d3e404,,,,,,,,,,,,,,,,,,,,,,,,,,,,,,,,,,,,,,,,,,,,,,,,,,,,,,,,,,,,,,,,,,,,,,,,,,,,,,,,,,,,,,,,,,,,,,,,,,,,,,,,,,,,,,,,,,,,,,,,,,,,,,,,,,,,,,,,,,,,,,,,,,,,,,,,,,,,,,
0,85,85,24,1,,5f3ba39206b3218cf379659d,62bbfaa05630fa8fcf446888,2022-06-29_19h09.57.374,Colour_Asymmetry_Pilot,2022.1.3,Win32,60.46680372,62bbe60bf3d75ef465d3e404,,,,,,,,,,,,,,,,,,,,,,,,,,,,,,,,,,,,,,,,,,,,,,,,,,,,,,,,,,,,,,,,,,,,,,,,,,,,,,,,,,,,,,,,,,,,,,,,,,,,,,,,,,,,,,,,,,,,,,,,,,,,,,,,,,,,,,,,,,,,,,,,,,,,,,,,,,,,,,
0,86,86,37,1,,5f3ba39206b3218cf379659d,62bbfaa05630fa8fcf446888,2022-06-29_19h09.57.374,Colour_Asymmetry_Pilot,2022.1.3,Win32,60.46680372,62bbe60bf3d75ef465d3e404,,,,,,,,,,,,,,,,,,,,,,,,,,,,,,,,,,,,,,,,,,,,,,,,,,,,,,,,,,,,,,,,,,,,,,,,,,,,,,,,,,,,,,,,,,,,,,,,,,,,,,,,,,,,,,,,,,,,,,,,,,,,,,,,,,,,,,,,,,,,,,,,,,,,,,,,,,,,,,
0,87,87,80,1,,5f3ba39206b3218cf379659d,62bbfaa05630fa8fcf446888,2022-06-29_19h09.57.374,Colour_Asymmetry_Pilot,2022.1.3,Win32,60.46680372,62bbe60bf3d75ef465d3e404,,,,,,,,,,,,,,,,,,,,,,,,,,,,,,,,,,,,,,,,,,,,,,,,,,,,,,,,,,,,,,,,,,,,,,,,,,,,,,,,,,,,,,,,,,,,,,,,,,,,,,,,,,,,,,,,,,,,,,,,,,,,,,,,,,,,,,,,,,,,,,,,,,,,,,,,,,,,,,
0,88,88,42,1,,5f3ba39206b3218cf379659d,62bbfaa05630fa8fcf446888,2022-06-29_19h09.57.374,Colour_Asymmetry_Pilot,2022.1.3,Win32,60.46680372,62bbe60bf3d75ef465d3e404,,,,,,,,,,,,,,,,,,,,,,,,,,,,,,,,,,,,,,,,,,,,,,,,,,,,,,,,,,,,,,,,,,,,,,,,,,,,,,,,,,,,,,,,,,,,,,,,,,,,,,,,,,,,,,,,,,,,,,,,,,,,,,,,,,,,,,,,,,,,,,,,,,,,,,,,,,,,,,
0,89,89,21,1,,5f3ba39206b3218cf379659d,62bbfaa05630fa8fcf446888,2022-06-29_19h09.57.374,Colour_Asymmetry_Pilot,2022.1.3,Win32,60.46680372,62bbe60bf3d75ef465d3e404,,,,,,,,,,,,,,,,,,,,,,,,,,,,,,,,,,,,,,,,,,,,,,,,,,,,,,,,,,,,,,,,,,,,,,,,,,,,,,,,,,,,,,,,,,,,,,,,,,,,,,,,,,,,,,,,,,,,,,,,,,,,,,,,,,,,,,,,,,,,,,,,,,,,,,,,,,,,,,
0,90,90,77,1,,5f3ba39206b3218cf379659d,62bbfaa05630fa8fcf446888,2022-06-29_19h09.57.374,Colour_Asymmetry_Pilot,2022.1.3,Win32,60.46680372,62bbe60bf3d75ef465d3e404,,,,,,,,,,,,,,,,,,,,,,,,,,,,,,,,,,,,,,,,,,,,,,,,,,,,,,,,,,,,,,,,,,,,,,,,,,,,,,,,,,,,,,,,,,,,,,,,,,,,,,,,,,,,,,,,,,,,,,,,,,,,,,,,,,,,,,,,,,,,,,,,,,,,,,,,,,,,,,
0,91,91,59,1,,5f3ba39206b3218cf379659d,62bbfaa05630fa8fcf446888,2022-06-29_19h09.57.374,Colour_Asymmetry_Pilot,2022.1.3,Win32,60.46680372,62bbe60bf3d75ef465d3e404,,,,,,,,,,,,,,,,,,,,,,,,,,,,,,,,,,,,,,,,,,,,,,,,,,,,,,,,,,,,,,,,,,,,,,,,,,,,,,,,,,,,,,,,,,,,,,,,,,,,,,,,,,,,,,,,,,,,,,,,,,,,,,,,,,,,,,,,,,,,,,,,,,,,,,,,,,,,,,
0,92,92,6,1,,5f3ba39206b3218cf379659d,62bbfaa05630fa8fcf446888,2022-06-29_19h09.57.374,Colour_Asymmetry_Pilot,2022.1.3,Win32,60.46680372,62bbe60bf3d75ef465d3e404,,,,,,,,,,,,,,,,,,,,,,,,,,,,,,,,,,,,,,,,,,,,,,,,,,,,,,,,,,,,,,,,,,,,,,,,,,,,,,,,,,,,,,,,,,,,,,,,,,,,,,,,,,,,,,,,,,,,,,,,,,,,,,,,,,,,,,,,,,,,,,,,,,,,,,,,,,,,,,
,,,,,,5f3ba39206b3218cf379659d,62bbfaa05630fa8fcf446888,2022-06-29_19h09.57.374,Colour_Asymmetry_Pilot,2022.1.3,Win32,60.46680372,62bbe60bf3d75ef465d3e404,0,0,0,142,1,fourtwo,,,,,,,,,,,,,,,,,,,,,,,,,,,,,,,,,,,,,,,,,,,,,,,,,,,,,,,,,,,,,,,,,,,,,,,,,,,,,,,,,,,,,,,,,,,,,,,,,,,,,,,,,,,,,,,,,,,,,,,,,,,,,,,,,,,,,,,,,,,,,,,,,,,,,,,,
,,,,,,5f3ba39206b3218cf379659d,62bbfaa05630fa8fcf446888,2022-06-29_19h09.57.374,Colour_Asymmetry_Pilot,2022.1.3,Win32,60.46680372,62bbe60bf3d75ef465d3e404,0,1,1,0,1,onetwo,,,,,,,,,,,,,,,,,,,,,,,,,,,,,,,,,,,,,,,,,,,,,,,,,,,,,,,,,,,,,,,,,,,,,,,,,,,,,,,,,,,,,,,,,,,,,,,,,,,,,,,,,,,,,,,,,,,,,,,,,,,,,,,,,,,,,,,,,,,,,,,,,,,,,,,,
,,,,,,5f3ba39206b3218cf379659d,62bbfaa05630fa8fcf446888,2022-06-29_19h09.57.374,Colour_Asymmetry_Pilot,2022.1.3,Win32,60.46680372,62bbe60bf3d75ef465d3e404,0,2,2,93,1,threefour,,,,,,,,,,,,,,,,,,,,,,,,,,,,,,,,,,,,,,,,,,,,,,,,,,,,,,,,,,,,,,,,,,,,,,,,,,,,,,,,,,,,,,,,,,,,,,,,,,,,,,,,,,,,,,,,,,,,,,,,,,,,,,,,,,,,,,,,,,,,,,,,,,,,,,,,
,,,,,,5f3ba39206b3218cf379659d,62bbfaa05630fa8fcf446888,2022-06-29_19h09.57.374,Colour_Asymmetry_Pilot,2022.1.3,Win32,60.46680372,62bbe60bf3d75ef465d3e404,0,3,3,59,1,twofour,,,,,,,,,,,,,,,,,,,,,,,,,,,,,,,,,,,,,,,,,,,,,,,,,,,,,,,,,,,,,,,,,,,,,,,,,,,,,,,,,,,,,,,,,,,,,,,,,,,,,,,,,,,,,,,,,,,,,,,,,,,,,,,,,,,,,,,,,,,,,,,,,,,,,,,,
,,,,,,5f3ba39206b3218cf379659d,62bbfaa05630fa8fcf446888,2022-06-29_19h09.57.374,Colour_Asymmetry_Pilot,2022.1.3,Win32,60.46680372,62bbe60bf3d75ef465d3e404,0,4,4,70,1,fourtwo,,,,,,,,,,,,,,,,,,,,,,,,,,,,,,,,,,,,,,,,,,,,,,,,,,,,,,,,,,,,,,,,,,,,,,,,,,,,,,,,,,,,,,,,,,,,,,,,,,,,,,,,,,,,,,,,,,,,,,,,,,,,,,,,,,,,,,,,,,,,,,,,,,,,,,,,
,,,,,,5f3ba39206b3218cf379659d,62bbfaa05630fa8fcf446888,2022-06-29_19h09.57.374,Colour_Asymmetry_Pilot,2022.1.3,Win32,60.46680372,62bbe60bf3d75ef465d3e404,0,5,5,99,1,twofour,,,,,,,,,,,,,,,,,,,,,,,,,,,,,,,,,,,,,,,,,,,,,,,,,,,,,,,,,,,,,,,,,,,,,,,,,,,,,,,,,,,,,,,,,,,,,,,,,,,,,,,,,,,,,,,,,,,,,,,,,,,,,,,,,,,,,,,,,,,,,,,,,,,,,,,,
,,,,,,5f3ba39206b3218cf379659d,62bbfaa05630fa8fcf446888,2022-06-29_19h09.57.374,Colour_Asymmetry_Pilot,2022.1.3,Win32,60.46680372,62bbe60bf3d75ef465d3e404,0,6,6,78,1,fourtwo,,,,,,,,,,,,,,,,,,,,,,,,,,,,,,,,,,,,,,,,,,,,,,,,,,,,,,,,,,,,,,,,,,,,,,,,,,,,,,,,,,,,,,,,,,,,,,,,,,,,,,,,,,,,,,,,,,,,,,,,,,,,,,,,,,,,,,,,,,,,,,,,,,,,,,,,
,,,,,,5f3ba39206b3218cf379659d,62bbfaa05630fa8fcf446888,2022-06-29_19h09.57.374,Colour_Asymmetry_Pilot,2022.1.3,Win32,60.46680372,62bbe60bf3d75ef465d3e404,0,7,7,135,1,fourthree,,,,,,,,,,,,,,,,,,,,,,,,,,,,,,,,,,,,,,,,,,,,,,,,,,,,,,,,,,,,,,,,,,,,,,,,,,,,,,,,,,,,,,,,,,,,,,,,,,,,,,,,,,,,,,,,,,,,,,,,,,,,,,,,,,,,,,,,,,,,,,,,,,,,,,,,
,,,,,,5f3ba39206b3218cf379659d,62bbfaa05630fa8fcf446888,2022-06-29_19h09.57.374,Colour_Asymmetry_Pilot,2022.1.3,Win32,60.46680372,62bbe60bf3d75ef465d3e404,0,8,8,153,1,onethree,,,,,,,,,,,,,,,,,,,,,,,,,,,,,,,,,,,,,,,,,,,,,,,,,,,,,,,,,,,,,,,,,,,,,,,,,,,,,,,,,,,,,,,,,,,,,,,,,,,,,,,,,,,,,,,,,,,,,,,,,,,,,,,,,,,,,,,,,,,,,,,,,,,,,,,,
,,,,,,5f3ba39206b3218cf379659d,62bbfaa05630fa8fcf446888,2022-06-29_19h09.57.374,Colour_Asymmetry_Pilot,2022.1.3,Win32,60.46680372,62bbe60bf3d75ef465d3e404,0,9,9,45,1,threefour,,,,,,,,,,,,,,,,,,,,,,,,,,,,,,,,,,,,,,,,,,,,,,,,,,,,,,,,,,,,,,,,,,,,,,,,,,,,,,,,,,,,,,,,,,,,,,,,,,,,,,,,,,,,,,,,,,,,,,,,,,,,,,,,,,,,,,,,,,,,,,,,,,,,,,,,
,,,,,,5f3ba39206b3218cf379659d,62bbfaa05630fa8fcf446888,2022-06-29_19h09.57.374,Colour_Asymmetry_Pilot,2022.1.3,Win32,60.46680372,62bbe60bf3d75ef465d3e404,0,10,10,51,1,twofour,,,,,,,,,,,,,,,,,,,,,,,,,,,,,,,,,,,,,,,,,,,,,,,,,,,,,,,,,,,,,,,,,,,,,,,,,,,,,,,,,,,,,,,,,,,,,,,,,,,,,,,,,,,,,,,,,,,,,,,,,,,,,,,,,,,,,,,,,,,,,,,,,,,,,,,,
,,,,,,5f3ba39206b3218cf379659d,62bbfaa05630fa8fcf446888,2022-06-29_19h09.57.374,Colour_Asymmetry_Pilot,2022.1.3,Win32,60.46680372,62bbe60bf3d75ef465d3e404,0,11,11,110,1,fourtwo,,,,,,,,,,,,,,,,,,,,,,,,,,,,,,,,,,,,,,,,,,,,,,,,,,,,,,,,,,,,,,,,,,,,,,,,,,,,,,,,,,,,,,,,,,,,,,,,,,,,,,,,,,,,,,,,,,,,,,,,,,,,,,,,,,,,,,,,,,,,,,,,,,,,,,,,
,,,,,,5f3ba39206b3218cf379659d,62bbfaa05630fa8fcf446888,2022-06-29_19h09.57.374,Colour_Asymmetry_Pilot,2022.1.3,Win32,60.46680372,62bbe60bf3d75ef465d3e404,0,12,12,138,1,twoone,,,,,,,,,,,,,,,,,,,,,,,,,,,,,,,,,,,,,,,,,,,,,,,,,,,,,,,,,,,,,,,,,,,,,,,,,,,,,,,,,,,,,,,,,,,,,,,,,,,,,,,,,,,,,,,,,,,,,,,,,,,,,,,,,,,,,,,,,,,,,,,,,,,,,,,,
,,,,,,5f3ba39206b3218cf379659d,62bbfaa05630fa8fcf446888,2022-06-29_19h09.57.374,Colour_Asymmetry_Pilot,2022.1.3,Win32,60.46680372,62bbe60bf3d75ef465d3e404,0,13,13,147,1,twofour,,,,,,,,,,,,,,,,,,,,,,,,,,,,,,,,,,,,,,,,,,,,,,,,,,,,,,,,,,,,,,,,,,,,,,,,,,,,,,,,,,,,,,,,,,,,,,,,,,,,,,,,,,,,,,,,,,,,,,,,,,,,,,,,,,,,,,,,,,,,,,,,,,,,,,,,
,,,,,,5f3ba39206b3218cf379659d,62bbfaa05630fa8fcf446888,2022-06-29_19h09.57.374,Colour_Asymmetry_Pilot,2022.1.3,Win32,60.46680372,62bbe60bf3d75ef465d3e404,0,14,14,157,1,threefour,,,,,,,,,,,,,,,,,,,,,,,,,,,,,,,,,,,,,,,,,,,,,,,,,,,,,,,,,,,,,,,,,,,,,,,,,,,,,,,,,,,,,,,,,,,,,,,,,,,,,,,,,,,,,,,,,,,,,,,,,,,,,,,,,,,,,,,,,,,,,,,,,,,,,,,,
,,,,,,5f3ba39206b3218cf379659d,62bbfaa05630fa8fcf446888,2022-06-29_19h09.57.374,Colour_Asymmetry_Pilot,2022.1.3,Win32,60.46680372,62bbe60bf3d75ef465d3e404,0,15,15,21,1,threefour,,,,,,,,,,,,,,,,,,,,,,,,,,,,,,,,,,,,,,,,,,,,,,,,,,,,,,,,,,,,,,,,,,,,,,,,,,,,,,,,,,,,,,,,,,,,,,,,,,,,,,,,,,,,,,,,,,,,,,,,,,,,,,,,,,,,,,,,,,,,,,,,,,,,,,,,
,,,,,,5f3ba39206b3218cf379659d,62bbfaa05630fa8fcf446888,2022-06-29_19h09.57.374,Colour_Asymmetry_Pilot,2022.1.3,Win32,60.46680372,62bbe60bf3d75ef465d3e404,0,16,16,136,1,onetwo,,,,,,,,,,,,,,,,,,,,,,,,,,,,,,,,,,,,,,,,,,,,,,,,,,,,,,,,,,,,,,,,,,,,,,,,,,,,,,,,,,,,,,,,,,,,,,,,,,,,,,,,,,,,,,,,,,,,,,,,,,,,,,,,,,,,,,,,,,,,,,,,,,,,,,,,
,,,,,,5f3ba39206b3218cf379659d,62bbfaa05630fa8fcf446888,2022-06-29_19h09.57.374,Colour_Asymmetry_Pilot,2022.1.3,Win32,60.46680372,62bbe60bf3d75ef465d3e404,0,17,17,69,1,threefour,,,,,,,,,,,,,,,,,,,,,,,,,,,,,,,,,,,,,,,,,,,,,,,,,,,,,,,,,,,,,,,,,,,,,,,,,,,,,,,,,,,,,,,,,,,,,,,,,,,,,,,,,,,,,,,,,,,,,,,,,,,,,,,,,,,,,,,,,,,,,,,,,,,,,,,,
,,,,,,5f3ba39206b3218cf379659d,62bbfaa05630fa8fcf446888,2022-06-29_19h09.57.374,Colour_Asymmetry_Pilot,2022.1.3,Win32,60.46680372,62bbe60bf3d75ef465d3e404,0,18,18,44,1,threeone,,,,,,,,,,,,,,,,,,,,,,,,,,,,,,,,,,,,,,,,,,,,,,,,,,,,,,,,,,,,,,,,,,,,,,,,,,,,,,,,,,,,,,,,,,,,,,,,,,,,,,,,,,,,,,,,,,,,,,,,,,,,,,,,,,,,,,,,,,,,,,,,,,,,,,,,
,,,,,,5f3ba39206b3218cf379659d,62bbfaa05630fa8fcf446888,2022-06-29_19h09.57.374,Colour_Asymmetry_Pilot,2022.1.3,Win32,60.46680372,62bbe60bf3d75ef465d3e404,0,19,19,1,1,onethree,,,,,,,,,,,,,,,,,,,,,,,,,,,,,,,,,,,,,,,,,,,,,,,,,,,,,,,,,,,,,,,,,,,,,,,,,,,,,,,,,,,,,,,,,,,,,,,,,,,,,,,,,,,,,,,,,,,,,,,,,,,,,,,,,,,,,,,,,,,,,,,,,,,,,,,,
,,,,,,5f3ba39206b3218cf379659d,62bbfaa05630fa8fcf446888,2022-06-29_19h09.57.374,Colour_Asymmetry_Pilot,2022.1.3,Win32,60.46680372,62bbe60bf3d75ef465d3e404,0,20,20,130,1,twoone,,,,,,,,,,,,,,,,,,,,,,,,,,,,,,,,,,,,,,,,,,,,,,,,,,,,,,,,,,,,,,,,,,,,,,,,,,,,,,,,,,,,,,,,,,,,,,,,,,,,,,,,,,,,,,,,,,,,,,,,,,,,,,,,,,,,,,,,,,,,,,,,,,,,,,,,
,,,,,,5f3ba39206b3218cf379659d,62bbfaa05630fa8fcf446888,2022-06-29_19h09.57.374,Colour_Asymmetry_Pilot,2022.1.3,Win32,60.46680372,62bbe60bf3d75ef465d3e404,0,21,21,152,1,onetwo,,,,,,,,,,,,,,,,,,,,,,,,,,,,,,,,,,,,,,,,,,,,,,,,,,,,,,,,,,,,,,,,,,,,,,,,,,,,,,,,,,,,,,,,,,,,,,,,,,,,,,,,,,,,,,,,,,,,,,,,,,,,,,,,,,,,,,,,,,,,,,,,,,,,,,,,
,,,,,,5f3ba39206b3218cf379659d,62bbfaa05630fa8fcf446888,2022-06-29_19h09.57.374,Colour_Asymmetry_Pilot,2022.1.3,Win32,60.46680372,62bbe60bf3d75ef465d3e404,0,22,22,68,1,threeone,,,,,,,,,,,,,,,,,,,,,,,,,,,,,,,,,,,,,,,,,,,,,,,,,,,,,,,,,,,,,,,,,,,,,,,,,,,,,,,,,,,,,,,,,,,,,,,,,,,,,,,,,,,,,,,,,,,,,,,,,,,,,,,,,,,,,,,,,,,,,,,,,,,,,,,,
,,,,,,5f3ba39206b3218cf379659d,62bbfaa05630fa8fcf446888,2022-06-29_19h09.57.374,Colour_Asymmetry_Pilot,2022.1.3,Win32,60.46680372,62bbe60bf3d75ef465d3e404,0,23,23,137,1,onethree,,,,,,,,,,,,,,,,,,,,,,,,,,,,,,,,,,,,,,,,,,,,,,,,,,,,,,,,,,,,,,,,,,,,,,,,,,,,,,,,,,,,,,,,,,,,,,,,,,,,,,,,,,,,,,,,,,,,,,,,,,,,,,,,,,,,,,,,,,,,,,,,,,,,,,,,
,,,,,,5f3ba39206b3218cf379659d,62bbfaa05630fa8fcf446888,2022-06-29_19h09.57.374,Colour_Asymmetry_Pilot,2022.1.3,Win32,60.46680372,62bbe60bf3d75ef465d3e404,0,24,24,144,1,onetwo,,,,,,,,,,,,,,,,,,,,,,,,,,,,,,,,,,,,,,,,,,,,,,,,,,,,,,,,,,,,,,,,,,,,,,,,,,,,,,,,,,,,,,,,,,,,,,,,,,,,,,,,,,,,,,,,,,,,,,,,,,,,,,,,,,,,,,,,,,,,,,,,,,,,,,,,
,,,,,,5f3ba39206b3218cf379659d,62bbfaa05630fa8fcf446888,2022-06-29_19h09.57.374,Colour_Asymmetry_Pilot,2022.1.3,Win32,60.46680372,62bbe60bf3d75ef465d3e404,0,25,25,42,1,twoone,,,,,,,,,,,,,,,,,,,,,,,,,,,,,,,,,,,,,,,,,,,,,,,,,,,,,,,,,,,,,,,,,,,,,,,,,,,,,,,,,,,,,,,,,,,,,,,,,,,,,,,,,,,,,,,,,,,,,,,,,,,,,,,,,,,,,,,,,,,,,,,,,,,,,,,,
,,,,,,5f3ba39206b3218cf379659d,62bbfaa05630fa8fcf446888,2022-06-29_19h09.57.374,Colour_Asymmetry_Pilot,2022.1.3,Win32,60.46680372,62bbe60bf3d75ef465d3e404,0,26,26,20,1,threeone,,,,,,,,,,,,,,,,,,,,,,,,,,,,,,,,,,,,,,,,,,,,,,,,,,,,,,,,,,,,,,,,,,,,,,,,,,,,,,,,,,,,,,,,,,,,,,,,,,,,,,,,,,,,,,,,,,,,,,,,,,,,,,,,,,,,,,,,,,,,,,,,,,,,,,,,
,,,,,,5f3ba39206b3218cf379659d,62bbfaa05630fa8fcf446888,2022-06-29_19h09.57.374,Colour_Asymmetry_Pilot,2022.1.3,Win32,60.46680372,62bbe60bf3d75ef465d3e404,0,27,27,74,1,twoone,,,,,,,,,,,,,,,,,,,,,,,,,,,,,,,,,,,,,,,,,,,,,,,,,,,,,,,,,,,,,,,,,,,,,,,,,,,,,,,,,,,,,,,,,,,,,,,,,,,,,,,,,,,,,,,,,,,,,,,,,,,,,,,,,,,,,,,,,,,,,,,,,,,,,,,,
,,,,,,5f3ba39206b3218cf379659d,62bbfaa05630fa8fcf446888,2022-06-29_19h09.57.374,Colour_Asymmetry_Pilot,2022.1.3,Win32,60.46680372,62bbe60bf3d75ef465d3e404,0,28,28,60,1,threeone,,,,,,,,,,,,,,,,,,,,,,,,,,,,,,,,,,,,,,,,,,,,,,,,,,,,,,,,,,,,,,,,,,,,,,,,,,,,,,,,,,,,,,,,,,,,,,,,,,,,,,,,,,,,,,,,,,,,,,,,,,,,,,,,,,,,,,,,,,,,,,,,,,,,,,,,
,,,,,,5f3ba39206b3218cf379659d,62bbfaa05630fa8fcf446888,2022-06-29_19h09.57.374,Colour_Asymmetry_Pilot,2022.1.3,Win32,60.46680372,62bbe60bf3d75ef465d3e404,0,29,29,127,1,fourthree,,,,,,,,,,,,,,,,,,,,,,,,,,,,,,,,,,,,,,,,,,,,,,,,,,,,,,,,,,,,,,,,,,,,,,,,,,,,,,,,,,,,,,,,,,,,,,,,,,,,,,,,,,,,,,,,,,,,,,,,,,,,,,,,,,,,,,,,,,,,,,,,,,,,,,,,
,,,,,,5f3ba39206b3218cf379659d,62bbfaa05630fa8fcf446888,2022-06-29_19h09.57.374,Colour_Asymmetry_Pilot,2022.1.3,Win32,60.46680372,62bbe60bf3d75ef465d3e404,0,30,30,66,1,twoone,,,,,,,,,,,,,,,,,,,,,,,,,,,,,,,,,,,,,,,,,,,,,,,,,,,,,,,,,,,,,,,,,,,,,,,,,,,,,,,,,,,,,,,,,,,,,,,,,,,,,,,,,,,,,,,,,,,,,,,,,,,,,,,,,,,,,,,,,,,,,,,,,,,,,,,,
,,,,,,5f3ba39206b3218cf379659d,62bbfaa05630fa8fcf446888,2022-06-29_19h09.57.374,Colour_Asymmetry_Pilot,2022.1.3,Win32,60.46680372,62bbe60bf3d75ef465d3e404,0,31,31,141,1,threefour,,,,,,,,,,,,,,,,,,,,,,,,,,,,,,,,,,,,,,,,,,,,,,,,,,,,,,,,,,,,,,,,,,,,,,,,,,,,,,,,,,,,,,,,,,,,,,,,,,,,,,,,,,,,,,,,,,,,,,,,,,,,,,,,,,,,,,,,,,,,,,,,,,,,,,,,
,,,,,,5f3ba39206b3218cf379659d,62bbfaa05630fa8fcf446888,2022-06-29_19h09.57.374,Colour_Asymmetry_Pilot,2022.1.3,Win32,60.46680372,62bbe60bf3d75ef465d3e404,0,32,32,105,1,onethree,,,,,,,,,,,,,,,,,,,,,,,,,,,,,,,,,,,,,,,,,,,,,,,,,,,,,,,,,,,,,,,,,,,,,,,,,,,,,,,,,,,,,,,,,,,,,,,,,,,,,,,,,,,,,,,,,,,,,,,,,,,,,,,,,,,,,,,,,,,,,,,,,,,,,,,,
,,,,,,5f3ba39206b3218cf379659d,62bbfaa05630fa8fcf446888,2022-06-29_19h09.57.374,Colour_Asymmetry_Pilot,2022.1.3,Win32,60.46680372,62bbe60bf3d75ef465d3e404,0,33,33,89,1,onethree,,,,,,,,,,,,,,,,,,,,,,,,,,,,,,,,,,,,,,,,,,,,,,,,,,,,,,,,,,,,,,,,,,,,,,,,,,,,,,,,,,,,,,,,,,,,,,,,,,,,,,,,,,,,,,,,,,,,,,,,,,,,,,,,,,,,,,,,,,,,,,,,,,,,,,,,
,,,,,,5f3ba39206b3218cf379659d,62bbfaa05630fa8fcf446888,2022-06-29_19h09.57.374,Colour_Asymmetry_Pilot,2022.1.3,Win32,60.46680372,62bbe60bf3d75ef465d3e404,0,34,34,41,1,onethree,,,,,,,,,,,,,,,,,,,,,,,,,,,,,,,,,,,,,,,,,,,,,,,,,,,,,,,,,,,,,,,,,,,,,,,,,,,,,,,,,,,,,,,,,,,,,,,,,,,,,,,,,,,,,,,,,,,,,,,,,,,,,,,,,,,,,,,,,,,,,,,,,,,,,,,,
,,,,,,5f3ba39206b3218cf379659d,62bbfaa05630fa8fcf446888,2022-06-29_19h09.57.374,Colour_Asymmetry_Pilot,2022.1.3,Win32,60.46680372,62bbe60bf3d75ef465d3e404,0,35,35,132,1,threeone,,,,,,,,,,,,,,,,,,,,,,,,,,,,,,,,,,,,,,,,,,,,,,,,,,,,,,,,,,,,,,,,,,,,,,,,,,,,,,,,,,,,,,,,,,,,,,,,,,,,,,,,,,,,,,,,,,,,,,,,,,,,,,,,,,,,,,,,,,,,,,,,,,,,,,,,
,,,,,,5f3ba39206b3218cf379659d,62bbfaa05630fa8fcf446888,2022-06-29_19h09.57.374,Colour_Asymmetry_Pilot,2022.1.3,Win32,60.46680372,62bbe60bf3d75ef465d3e404,0,36,36,11,1,twofour,,,,,,,,,,,,,,,,,,,,,,,,,,,,,,,,,,,,,,,,,,,,,,,,,,,,,,,,,,,,,,,,,,,,,,,,,,,,,,,,,,,,,,,,,,,,,,,,,,,,,,,,,,,,,,,,,,,,,,,,,,,,,,,,,,,,,,,,,,,,,,,,,,,,,,,,
,,,,,,5f3ba39206b3218cf379659d,62bbfaa05630fa8fcf446888,2022-06-29_19h09.57.374,Colour_Asymmetry_Pilot,2022.1.3,Win32,60.46680372,62bbe60bf3d75ef465d3e404,0,37,37,13,1,threefour,,,,,,,,,,,,,,,,,,,,,,,,,,,,,,,,,,,,,,,,,,,,,,,,,,,,,,,,,,,,,,,,,,,,,,,,,,,,,,,,,,,,,,,,,,,,,,,,,,,,,,,,,,,,,,,,,,,,,,,,,,,,,,,,,,,,,,,,,,,,,,,,,,,,,,,,
,,,,,,5f3ba39206b3218cf379659d,62bbfaa05630fa8fcf446888,2022-06-29_19h09.57.374,Colour_Asymmetry_Pilot,2022.1.3,Win32,60.46680372,62bbe60bf3d75ef465d3e404,0,38,38,148,1,threeone,,,,,,,,,,,,,,,,,,,,,,,,,,,,,,,,,,,,,,,,,,,,,,,,,,,,,,,,,,,,,,,,,,,,,,,,,,,,,,,,,,,,,,,,,,,,,,,,,,,,,,,,,,,,,,,,,,,,,,,,,,,,,,,,,,,,,,,,,,,,,,,,,,,,,,,,
,,,,,,5f3ba39206b3218cf379659d,62bbfaa05630fa8fcf446888,2022-06-29_19h09.57.374,Colour_Asymmetry_Pilot,2022.1.3,Win32,60.46680372,62bbe60bf3d75ef465d3e404,0,39,39,58,1,twoone,,,,,,,,,,,,,,,,,,,,,,,,,,,,,,,,,,,,,,,,,,,,,,,,,,,,,,,,,,,,,,,,,,,,,,,,,,,,,,,,,,,,,,,,,,,,,,,,,,,,,,,,,,,,,,,,,,,,,,,,,,,,,,,,,,,,,,,,,,,,,,,,,,,,,,,,
,,,,,,5f3ba39206b3218cf379659d,62bbfaa05630fa8fcf446888,2022-06-29_19h09.57.374,Colour_Asymmetry_Pilot,2022.1.3,Win32,60.46680372,62bbe60bf3d75ef465d3e404,0,40,40,12,1,threeone,,,,,,,,,,,,,,,,,,,,,,,,,,,,,,,,,,,,,,,,,,,,,,,,,,,,,,,,,,,,,,,,,,,,,,,,,,,,,,,,,,,,,,,,,,,,,,,,,,,,,,,,,,,,,,,,,,,,,,,,,,,,,,,,,,,,,,,,,,,,,,,,,,,,,,,,
,,,,,,5f3ba39206b3218cf379659d,62bbfaa05630fa8fcf446888,2022-06-29_19h09.57.374,Colour_Asymmetry_Pilot,2022.1.3,Win32,60.46680372,62bbe60bf3d75ef465d3e404,0,41,41,65,1,onethree,,,,,,,,,,,,,,,,,,,,,,,,,,,,,,,,,,,,,,,,,,,,,,,,,,,,,,,,,,,,,,,,,,,,,,,,,,,,,,,,,,,,,,,,,,,,,,,,,,,,,,,,,,,,,,,,,,,,,,,,,,,,,,,,,,,,,,,,,,,,,,,,,,,,,,,,
,,,,,,5f3ba39206b3218cf379659d,62bbfaa05630fa8fcf446888,2022-06-29_19h09.57.374,Colour_Asymmetry_Pilot,2022.1.3,Win32,60.46680372,62bbe60bf3d75ef465d3e404,0,42,42,38,1,fourtwo,,,,,,,,,,,,,,,,,,,,,,,,,,,,,,,,,,,,,,,,,,,,,,,,,,,,,,,,,,,,,,,,,,,,,,,,,,,,,,,,,,,,,,,,,,,,,,,,,,,,,,,,,,,,,,,,,,,,,,,,,,,,,,,,,,,,,,,,,,,,,,,,,,,,,,,,
,,,,,,5f3ba39206b3218cf379659d,62bbfaa05630fa8fcf446888,2022-06-29_19h09.57.374,Colour_Asymmetry_Pilot,2022.1.3,Win32,60.46680372,62bbe60bf3d75ef465d3e404,0,43,43,115,1,twofour,,,,,,,,,,,,,,,,,,,,,,,,,,,,,,,,,,,,,,,,,,,,,,,,,,,,,,,,,,,,,,,,,,,,,,,,,,,,,,,,,,,,,,,,,,,,,,,,,,,,,,,,,,,,,,,,,,,,,,,,,,,,,,,,,,,,,,,,,,,,,,,,,,,,,,,,
,,,,,,5f3ba39206b3218cf379659d,62bbfaa05630fa8fcf446888,2022-06-29_19h09.57.374,Colour_Asymmetry_Pilot,2022.1.3,Win32,60.46680372,62bbe60bf3d75ef465d3e404,0,44,44,133,1,threefour,,,,,,,,,,,,,,,,,,,,,,,,,,,,,,,,,,,,,,,,,,,,,,,,,,,,,,,,,,,,,,,,,,,,,,,,,,,,,,,,,,,,,,,,,,,,,,,,,,,,,,,,,,,,,,,,,,,,,,,,,,,,,,,,,,,,,,,,,,,,,,,,,,,,,,,,
,,,,,,5f3ba39206b3218cf379659d,62bbfaa05630fa8fcf446888,2022-06-29_19h09.57.374,Colour_Asymmetry_Pilot,2022.1.3,Win32,60.46680372,62bbe60bf3d75ef465d3e404,0,45,45,156,1,threeone,,,,,,,,,,,,,,,,,,,,,,,,,,,,,,,,,,,,,,,,,,,,,,,,,,,,,,,,,,,,,,,,,,,,,,,,,,,,,,,,,,,,,,,,,,,,,,,,,,,,,,,,,,,,,,,,,,,,,,,,,,,,,,,,,,,,,,,,,,,,,,,,,,,,,,,,
,,,,,,5f3ba39206b3218cf379659d,62bbfaa05630fa8fcf446888,2022-06-29_19h09.57.374,Colour_Asymmetry_Pilot,2022.1.3,Win32,60.46680372,62bbe60bf3d75ef465d3e404,0,46,46,117,1,threefour,,,,,,,,,,,,,,,,,,,,,,,,,,,,,,,,,,,,,,,,,,,,,,,,,,,,,,,,,,,,,,,,,,,,,,,,,,,,,,,,,,,,,,,,,,,,,,,,,,,,,,,,,,,,,,,,,,,,,,,,,,,,,,,,,,,,,,,,,,,,,,,,,,,,,,,,
,,,,,,5f3ba39206b3218cf379659d,62bbfaa05630fa8fcf446888,2022-06-29_19h09.57.374,Colour_Asymmetry_Pilot,2022.1.3,Win32,60.46680372,62bbe60bf3d75ef465d3e404,0,47,47,120,1,onetwo,,,,,,,,,,,,,,,,,,,,,,,,,,,,,,,,,,,,,,,,,,,,,,,,,,,,,,,,,,,,,,,,,,,,,,,,,,,,,,,,,,,,,,,,,,,,,,,,,,,,,,,,,,,,,,,,,,,,,,,,,,,,,,,,,,,,,,,,,,,,,,,,,,,,,,,,
,,,,,,5f3ba39206b3218cf379659d,62bbfaa05630fa8fcf446888,2022-06-29_19h09.57.374,Colour_Asymmetry_Pilot,2022.1.3,Win32,60.46680372,62bbe60bf3d75ef465d3e404,0,48,48,114,1,twoone,,,,,,,,,,,,,,,,,,,,,,,,,,,,,,,,,,,,,,,,,,,,,,,,,,,,,,,,,,,,,,,,,,,,,,,,,,,,,,,,,,,,,,,,,,,,,,,,,,,,,,,,,,,,,,,,,,,,,,,,,,,,,,,,,,,,,,,,,,,,,,,,,,,,,,,,
,,,,,,5f3ba39206b3218cf379659d,62bbfaa05630fa8fcf446888,2022-06-29_19h09.57.374,Colour_Asymmetry_Pilot,2022.1.3,Win32,60.46680372,62bbe60bf3d75ef465d3e404,0,49,49,109,1,threefour,,,,,,,,,,,,,,,,,,,,,,,,,,,,,,,,,,,,,,,,,,,,,,,,,,,,,,,,,,,,,,,,,,,,,,,,,,,,,,,,,,,,,,,,,,,,,,,,,,,,,,,,,,,,,,,,,,,,,,,,,,,,,,,,,,,,,,,,,,,,,,,,,,,,,,,,
,,,,,,5f3ba39206b3218cf379659d,62bbfaa05630fa8fcf446888,2022-06-29_19h09.57.374,Colour_Asymmetry_Pilot,2022.1.3,Win32,60.46680372,62bbe60bf3d75ef465d3e404,0,50,50,122,1,twoone,,,,,,,,,,,,,,,,,,,,,,,,,,,,,,,,,,,,,,,,,,,,,,,,,,,,,,,,,,,,,,,,,,,,,,,,,,,,,,,,,,,,,,,,,,,,,,,,,,,,,,,,,,,,,,,,,,,,,,,,,,,,,,,,,,,,,,,,,,,,,,,,,,,,,,,,
,,,,,,5f3ba39206b3218cf379659d,62bbfaa05630fa8fcf446888,2022-06-29_19h09.57.374,Colour_Asymmetry_Pilot,2022.1.3,Win32,60.46680372,62bbe60bf3d75ef465d3e404,0,51,51,30,1,fourtwo,,,,,,,,,,,,,,,,,,,,,,,,,,,,,,,,,,,,,,,,,,,,,,,,,,,,,,,,,,,,,,,,,,,,,,,,,,,,,,,,,,,,,,,,,,,,,,,,,,,,,,,,,,,,,,,,,,,,,,,,,,,,,,,,,,,,,,,,,,,,,,,,,,,,,,,,
,,,,,,5f3ba39206b3218cf379659d,62bbfaa05630fa8fcf446888,2022-06-29_19h09.57.374,Colour_Asymmetry_Pilot,2022.1.3,Win32,60.46680372,62bbe60bf3d75ef465d3e404,0,52,52,7,1,fourthree,,,,,,,,,,,,,,,,,,,,,,,,,,,,,,,,,,,,,,,,,,,,,,,,,,,,,,,,,,,,,,,,,,,,,,,,,,,,,,,,,,,,,,,,,,,,,,,,,,,,,,,,,,,,,,,,,,,,,,,,,,,,,,,,,,,,,,,,,,,,,,,,,,,,,,,,
,,,,,,5f3ba39206b3218cf379659d,62bbfaa05630fa8fcf446888,2022-06-29_19h09.57.374,Colour_Asymmetry_Pilot,2022.1.3,Win32,60.46680372,62bbe60bf3d75ef465d3e404,0,53,53,97,1,onethree,,,,,,,,,,,,,,,,,,,,,,,,,,,,,,,,,,,,,,,,,,,,,,,,,,,,,,,,,,,,,,,,,,,,,,,,,,,,,,,,,,,,,,,,,,,,,,,,,,,,,,,,,,,,,,,,,,,,,,,,,,,,,,,,,,,,,,,,,,,,,,,,,,,,,,,,
,,,,,,5f3ba39206b3218cf379659d,62bbfaa05630fa8fcf446888,2022-06-29_19h09.57.374,Colour_Asymmetry_Pilot,2022.1.3,Win32,60.46680372,62bbe60bf3d75ef465d3e404,0,54,54,73,1,onethree,,,,,,,,,,,,,,,,,,,,,,,,,,,,,,,,,,,,,,,,,,,,,,,,,,,,,,,,,,,,,,,,,,,,,,,,,,,,,,,,,,,,,,,,,,,,,,,,,,,,,,,,,,,,,,,,,,,,,,,,,,,,,,,,,,,,,,,,,,,,,,,,,,,,,,,,
,,,,,,5f3ba39206b3218cf379659d,62bbfaa05630fa8fcf446888,2022-06-29_19h09.57.374,Colour_Asymmetry_Pilot,2022.1.3,Win32,60.46680372,62bbe60bf3d75ef465d3e404,0,55,55,104,1,onetwo,,,,,,,,,,,,,,,,,,,,,,,,,,,,,,,,,,,,,,,,,,,,,,,,,,,,,,,,,,,,,,,,,,,,,,,,,,,,,,,,,,,,,,,,,,,,,,,,,,,,,,,,,,,,,,,,,,,,,,,,,,,,,,,,,,,,,,,,,,,,,,,,,,,,,,,,
,,,,,,5f3ba39206b3218cf379659d,62bbfaa05630fa8fcf446888,2022-06-29_19h09.57.374,Colour_Asymmetry_Pilot,2022.1.3,Win32,60.46680372,62bbe60bf3d75ef465d3e404,0,56,56,15,1,fourthree,,,,,,,,,,,,,,,,,,,,,,,,,,,,,,,,,,,,,,,,,,,,,,,,,,,,,,,,,,,,,,,,,,,,,,,,,,,,,,,,,,,,,,,,,,,,,,,,,,,,,,,,,,,,,,,,,,,,,,,,,,,,,,,,,,,,,,,,,,,,,,,,,,,,,,,,
,,,,,,5f3ba39206b3218cf379659d,62bbfaa05630fa8fcf446888,2022-06-29_19h09.57.374,Colour_Asymmetry_Pilot,2022.1.3,Win32,60.46680372,62bbe60bf3d75ef465d3e404,0,57,57,139,1,twofour,,,,,,,,,,,,,,,,,,,,,,,,,,,,,,,,,,,,,,,,,,,,,,,,,,,,,,,,,,,,,,,,,,,,,,,,,,,,,,,,,,,,,,,,,,,,,,,,,,,,,,,,,,,,,,,,,,,,,,,,,,,,,,,,,,,,,,,,,,,,,,,,,,,,,,,,
,,,,,,5f3ba39206b3218cf379659d,62bbfaa05630fa8fcf446888,2022-06-29_19h09.57.374,Colour_Asymmetry_Pilot,2022.1.3,Win32,60.46680372,62bbe60bf3d75ef465d3e404,0,58,58,47,1,fourthree,,,,,,,,,,,,,,,,,,,,,,,,,,,,,,,,,,,,,,,,,,,,,,,,,,,,,,,,,,,,,,,,,,,,,,,,,,,,,,,,,,,,,,,,,,,,,,,,,,,,,,,,,,,,,,,,,,,,,,,,,,,,,,,,,,,,,,,,,,,,,,,,,,,,,,,,
,,,,,,5f3ba39206b3218cf379659d,62bbfaa05630fa8fcf446888,2022-06-29_19h09.57.374,Colour_Asymmetry_Pilot,2022.1.3,Win32,60.46680372,62bbe60bf3d75ef465d3e404,0,59,59,131,1,twofour,,,,,,,,,,,,,,,,,,,,,,,,,,,,,,,,,,,,,,,,,,,,,,,,,,,,,,,,,,,,,,,,,,,,,,,,,,,,,,,,,,,,,,,,,,,,,,,,,,,,,,,,,,,,,,,,,,,,,,,,,,,,,,,,,,,,,,,,,,,,,,,,,,,,,,,,
,,,,,,5f3ba39206b3218cf379659d,62bbfaa05630fa8fcf446888,2022-06-29_19h09.57.374,Colour_Asymmetry_Pilot,2022.1.3,Win32,60.46680372,62bbe60bf3d75ef465d3e404,0,60,60,106,1,twoone,,,,,,,,,,,,,,,,,,,,,,,,,,,,,,,,,,,,,,,,,,,,,,,,,,,,,,,,,,,,,,,,,,,,,,,,,,,,,,,,,,,,,,,,,,,,,,,,,,,,,,,,,,,,,,,,,,,,,,,,,,,,,,,,,,,,,,,,,,,,,,,,,,,,,,,,
,,,,,,5f3ba39206b3218cf379659d,62bbfaa05630fa8fcf446888,2022-06-29_19h09.57.374,Colour_Asymmetry_Pilot,2022.1.3,Win32,60.46680372,62bbe60bf3d75ef465d3e404,0,61,61,10,1,twoone,,,,,,,,,,,,,,,,,,,,,,,,,,,,,,,,,,,,,,,,,,,,,,,,,,,,,,,,,,,,,,,,,,,,,,,,,,,,,,,,,,,,,,,,,,,,,,,,,,,,,,,,,,,,,,,,,,,,,,,,,,,,,,,,,,,,,,,,,,,,,,,,,,,,,,,,
,,,,,,5f3ba39206b3218cf379659d,62bbfaa05630fa8fcf446888,2022-06-29_19h09.57.374,Colour_Asymmetry_Pilot,2022.1.3,Win32,60.46680372,62bbe60bf3d75ef465d3e404,0,62,62,24,1,onetwo,,,,,,,,,,,,,,,,,,,,,,,,,,,,,,,,,,,,,,,,,,,,,,,,,,,,,,,,,,,,,,,,,,,,,,,,,,,,,,,,,,,,,,,,,,,,,,,,,,,,,,,,,,,,,,,,,,,,,,,,,,,,,,,,,,,,,,,,,,,,,,,,,,,,,,,,
,,,,,,5f3ba39206b3218cf379659d,62bbfaa05630fa8fcf446888,2022-06-29_19h09.57.374,Colour_Asymmetry_Pilot,2022.1.3,Win32,60.46680372,62bbe60bf3d75ef465d3e404,0,63,63,113,1,onethree,,,,,,,,,,,,,,,,,,,,,,,,,,,,,,,,,,,,,,,,,,,,,,,,,,,,,,,,,,,,,,,,,,,,,,,,,,,,,,,,,,,,,,,,,,,,,,,,,,,,,,,,,,,,,,,,,,,,,,,,,,,,,,,,,,,,,,,,,,,,,,,,,,,,,,,,
,,,,,,5f3ba39206b3218cf379659d,62bbfaa05630fa8fcf446888,2022-06-29_19h09.57.374,Colour_Asymmetry_Pilot,2022.1.3,Win32,60.46680372,62bbe60bf3d75ef465d3e404,0,64,64,118,1,fourtwo,,,,,,,,,,,,,,,,,,,,,,,,,,,,,,,,,,,,,,,,,,,,,,,,,,,,,,,,,,,,,,,,,,,,,,,,,,,,,,,,,,,,,,,,,,,,,,,,,,,,,,,,,,,,,,,,,,,,,,,,,,,,,,,,,,,,,,,,,,,,,,,,,,,,,,,,
,,,,,,5f3ba39206b3218cf379659d,62bbfaa05630fa8fcf446888,2022-06-29_19h09.57.374,Colour_Asymmetry_Pilot,2022.1.3,Win32,60.46680372,62bbe60bf3d75ef465d3e404,0,65,65,27,1,twofour,,,,,,,,,,,,,,,,,,,,,,,,,,,,,,,,,,,,,,,,,,,,,,,,,,,,,,,,,,,,,,,,,,,,,,,,,,,,,,,,,,,,,,,,,,,,,,,,,,,,,,,,,,,,,,,,,,,,,,,,,,,,,,,,,,,,,,,,,,,,,,,,,,,,,,,,
,,,,,,5f3ba39206b3218cf379659d,62bbfaa05630fa8fcf446888,2022-06-29_19h09.57.374,Colour_Asymmetry_Pilot,2022.1.3,Win32,60.46680372,62bbe60bf3d75ef465d3e404,0,66,66,4,1,threeone,,,,,,,,,,,,,,,,,,,,,,,,,,,,,,,,,,,,,,,,,,,,,,,,,,,,,,,,,,,,,,,,,,,,,,,,,,,,,,,,,,,,,,,,,,,,,,,,,,,,,,,,,,,,,,,,,,,,,,,,,,,,,,,,,,,,,,,,,,,,,,,,,,,,,,,,
,,,,,,5f3ba39206b3218cf379659d,62bbfaa05630fa8fcf446888,2022-06-29_19h09.57.374,Colour_Asymmetry_Pilot,2022.1.3,Win32,60.46680372,62bbe60bf3d75ef465d3e404,0,67,67,19,1,twofour,,,,,,,,,,,,,,,,,,,,,,,,,,,,,,,,,,,,,,,,,,,,,,,,,,,,,,,,,,,,,,,,,,,,,,,,,,,,,,,,,,,,,,,,,,,,,,,,,,,,,,,,,,,,,,,,,,,,,,,,,,,,,,,,,,,,,,,,,,,,,,,,,,,,,,,,
,,,,,,5f3ba39206b3218cf379659d,62bbfaa05630fa8fcf446888,2022-06-29_19h09.57.374,Colour_Asymmetry_Pilot,2022.1.3,Win32,60.46680372,62bbe60bf3d75ef465d3e404,0,68,68,35,1,twofour,,,,,,,,,,,,,,,,,,,,,,,,,,,,,,,,,,,,,,,,,,,,,,,,,,,,,,,,,,,,,,,,,,,,,,,,,,,,,,,,,,,,,,,,,,,,,,,,,,,,,,,,,,,,,,,,,,,,,,,,,,,,,,,,,,,,,,,,,,,,,,,,,,,,,,,,
,,,,,,5f3ba39206b3218cf379659d,62bbfaa05630fa8fcf446888,2022-06-29_19h09.57.374,Colour_Asymmetry_Pilot,2022.1.3,Win32,60.46680372,62bbe60bf3d75ef465d3e404,0,69,69,119,1,fourthree,,,,,,,,,,,,,,,,,,,,,,,,,,,,,,,,,,,,,,,,,,,,,,,,,,,,,,,,,,,,,,,,,,,,,,,,,,,,,,,,,,,,,,,,,,,,,,,,,,,,,,,,,,,,,,,,,,,,,,,,,,,,,,,,,,,,,,,,,,,,,,,,,,,,,,,,
,,,,,,5f3ba39206b3218cf379659d,62bbfaa05630fa8fcf446888,2022-06-29_19h09.57.374,Colour_Asymmetry_Pilot,2022.1.3,Win32,60.46680372,62bbe60bf3d75ef465d3e404,0,70,70,25,1,onethree,,,,,,,,,,,,,,,,,,,,,,,,,,,,,,,,,,,,,,,,,,,,,,,,,,,,,,,,,,,,,,,,,,,,,,,,,,,,,,,,,,,,,,,,,,,,,,,,,,,,,,,,,,,,,,,,,,,,,,,,,,,,,,,,,,,,,,,,,,,,,,,,,,,,,,,,
,,,,,,5f3ba39206b3218cf379659d,62bbfaa05630fa8fcf446888,2022-06-29_19h09.57.374,Colour_Asymmetry_Pilot,2022.1.3,Win32,60.46680372,62bbe60bf3d75ef465d3e404,0,71,71,149,1,threefour,,,,,,,,,,,,,,,,,,,,,,,,,,,,,,,,,,,,,,,,,,,,,,,,,,,,,,,,,,,,,,,,,,,,,,,,,,,,,,,,,,,,,,,,,,,,,,,,,,,,,,,,,,,,,,,,,,,,,,,,,,,,,,,,,,,,,,,,,,,,,,,,,,,,,,,,
,,,,,,5f3ba39206b3218cf379659d,62bbfaa05630fa8fcf446888,2022-06-29_19h09.57.374,Colour_Asymmetry_Pilot,2022.1.3,Win32,60.46680372,62bbe60bf3d75ef465d3e404,0,72,72,82,1,twoone,,,,,,,,,,,,,,,,,,,,,,,,,,,,,,,,,,,,,,,,,,,,,,,,,,,,,,,,,,,,,,,,,,,,,,,,,,,,,,,,,,,,,,,,,,,,,,,,,,,,,,,,,,,,,,,,,,,,,,,,,,,,,,,,,,,,,,,,,,,,,,,,,,,,,,,,
,,,,,,5f3ba39206b3218cf379659d,62bbfaa05630fa8fcf446888,2022-06-29_19h09.57.374,Colour_Asymmetry_Pilot,2022.1.3,Win32,60.46680372,62bbe60bf3d75ef465d3e404,0,73,73,37,1,threefour,,,,,,,,,,,,,,,,,,,,,,,,,,,,,,,,,,,,,,,,,,,,,,,,,,,,,,,,,,,,,,,,,,,,,,,,,,,,,,,,,,,,,,,,,,,,,,,,,,,,,,,,,,,,,,,,,,,,,,,,,,,,,,,,,,,,,,,,,,,,,,,,,,,,,,,,
,,,,,,5f3ba39206b3218cf379659d,62bbfaa05630fa8fcf446888,2022-06-29_19h09.57.374,Colour_Asymmetry_Pilot,2022.1.3,Win32,60.46680372,62bbe60bf3d75ef465d3e404,0,74,74,124,1,threeone,,,,,,,,,,,,,,,,,,,,,,,,,,,,,,,,,,,,,,,,,,,,,,,,,,,,,,,,,,,,,,,,,,,,,,,,,,,,,,,,,,,,,,,,,,,,,,,,,,,,,,,,,,,,,,,,,,,,,,,,,,,,,,,,,,,,,,,,,,,,,,,,,,,,,,,,
,,,,,,5f3ba39206b3218cf379659d,62bbfaa05630fa8fcf446888,2022-06-29_19h09.57.374,Colour_Asymmetry_Pilot,2022.1.3,Win32,60.46680372,62bbe60bf3d75ef465d3e404,0,75,75,91,1,twofour,,,,,,,,,,,,,,,,,,,,,,,,,,,,,,,,,,,,,,,,,,,,,,,,,,,,,,,,,,,,,,,,,,,,,,,,,,,,,,,,,,,,,,,,,,,,,,,,,,,,,,,,,,,,,,,,,,,,,,,,,,,,,,,,,,,,,,,,,,,,,,,,,,,,,,,,
,,,,,,5f3ba39206b3218cf379659d,62bbfaa05630fa8fcf446888,2022-06-29_19h09.57.374,Colour_Asymmetry_Pilot,2022.1.3,Win32,60.46680372,62bbe60bf3d75ef465d3e404,0,76,76,76,1,threeone,,,,,,,,,,,,,,,,,,,,,,,,,,,,,,,,,,,,,,,,,,,,,,,,,,,,,,,,,,,,,,,,,,,,,,,,,,,,,,,,,,,,,,,,,,,,,,,,,,,,,,,,,,,,,,,,,,,,,,,,,,,,,,,,,,,,,,,,,,,,,,,,,,,,,,,,
,,,,,,5f3ba39206b3218cf379659d,62bbfaa05630fa8fcf446888,2022-06-29_19h09.57.374,Colour_Asymmetry_Pilot,2022.1.3,Win32,60.46680372,62bbe60bf3d75ef465d3e404,0,77,77,14,1,fourtwo,,,,,,,,,,,,,,,,,,,,,,,,,,,,,,,,,,,,,,,,,,,,,,,,,,,,,,,,,,,,,,,,,,,,,,,,,,,,,,,,,,,,,,,,,,,,,,,,,,,,,,,,,,,,,,,,,,,,,,,,,,,,,,,,,,,,,,,,,,,,,,,,,,,,,,,,
,,,,,,5f3ba39206b3218cf379659d,62bbfaa05630fa8fcf446888,2022-06-29_19h09.57.374,Colour_Asymmetry_Pilot,2022.1.3,Win32,60.46680372,62bbe60bf3d75ef465d3e404,0,78,78,80,1,onetwo,,,,,,,,,,,,,,,,,,,,,,,,,,,,,,,,,,,,,,,,,,,,,,,,,,,,,,,,,,,,,,,,,,,,,,,,,,,,,,,,,,,,,,,,,,,,,,,,,,,,,,,,,,,,,,,,,,,,,,,,,,,,,,,,,,,,,,,,,,,,,,,,,,,,,,,,
,,,,,,5f3ba39206b3218cf379659d,62bbfaa05630fa8fcf446888,2022-06-29_19h09.57.374,Colour_Asymmetry_Pilot,2022.1.3,Win32,60.46680372,62bbe60bf3d75ef465d3e404,0,79,79,64,1,onetwo,,,,,,,,,,,,,,,,,,,,,,,,,,,,,,,,,,,,,,,,,,,,,,,,,,,,,,,,,,,,,,,,,,,,,,,,,,,,,,,,,,,,,,,,,,,,,,,,,,,,,,,,,,,,,,,,,,,,,,,,,,,,,,,,,,,,,,,,,,,,,,,,,,,,,,,,
,,,,,,5f3ba39206b3218cf379659d,62bbfaa05630fa8fcf446888,2022-06-29_19h09.57.374,Colour_Asymmetry_Pilot,2022.1.3,Win32,60.46680372,62bbe60bf3d75ef465d3e404,0,80,80,9,1,onethree,,,,,,,,,,,,,,,,,,,,,,,,,,,,,,,,,,,,,,,,,,,,,,,,,,,,,,,,,,,,,,,,,,,,,,,,,,,,,,,,,,,,,,,,,,,,,,,,,,,,,,,,,,,,,,,,,,,,,,,,,,,,,,,,,,,,,,,,,,,,,,,,,,,,,,,,
,,,,,,5f3ba39206b3218cf379659d,62bbfaa05630fa8fcf446888,2022-06-29_19h09.57.374,Colour_Asymmetry_Pilot,2022.1.3,Win32,60.46680372,62bbe60bf3d75ef465d3e404,0,81,81,121,1,onethree,,,,,,,,,,,,,,,,,,,,,,,,,,,,,,,,,,,,,,,,,,,,,,,,,,,,,,,,,,,,,,,,,,,,,,,,,,,,,,,,,,,,,,,,,,,,,,,,,,,,,,,,,,,,,,,,,,,,,,,,,,,,,,,,,,,,,,,,,,,,,,,,,,,,,,,,
,,,,,,5f3ba39206b3218cf379659d,62bbfaa05630fa8fcf446888,2022-06-29_19h09.57.374,Colour_Asymmetry_Pilot,2022.1.3,Win32,60.46680372,62bbe60bf3d75ef465d3e404,0,82,82,90,1,twoone,,,,,,,,,,,,,,,,,,,,,,,,,,,,,,,,,,,,,,,,,,,,,,,,,,,,,,,,,,,,,,,,,,,,,,,,,,,,,,,,,,,,,,,,,,,,,,,,,,,,,,,,,,,,,,,,,,,,,,,,,,,,,,,,,,,,,,,,,,,,,,,,,,,,,,,,
,,,,,,5f3ba39206b3218cf379659d,62bbfaa05630fa8fcf446888,2022-06-29_19h09.57.374,Colour_Asymmetry_Pilot,2022.1.3,Win32,60.46680372,62bbe60bf3d75ef465d3e404,0,83,83,23,1,fourthree,,,,,,,,,,,,,,,,,,,,,,,,,,,,,,,,,,,,,,,,,,,,,,,,,,,,,,,,,,,,,,,,,,,,,,,,,,,,,,,,,,,,,,,,,,,,,,,,,,,,,,,,,,,,,,,,,,,,,,,,,,,,,,,,,,,,,,,,,,,,,,,,,,,,,,,,
,,,,,,5f3ba39206b3218cf379659d,62bbfaa05630fa8fcf446888,2022-06-29_19h09.57.374,Colour_Asymmetry_Pilot,2022.1.3,Win32,60.46680372,62bbe60bf3d75ef465d3e404,0,84,84,33,1,onethree,,,,,,,,,,,,,,,,,,,,,,,,,,,,,,,,,,,,,,,,,,,,,,,,,,,,,,,,,,,,,,,,,,,,,,,,,,,,,,,,,,,,,,,,,,,,,,,,,,,,,,,,,,,,,,,,,,,,,,,,,,,,,,,,,,,,,,,,,,,,,,,,,,,,,,,,
,,,,,,5f3ba39206b3218cf379659d,62bbfaa05630fa8fcf446888,2022-06-29_19h09.57.374,Colour_Asymmetry_Pilot,2022.1.3,Win32,60.46680372,62bbe60bf3d75ef465d3e404,0,85,85,94,1,fourtwo,,,,,,,,,,,,,,,,,,,,,,,,,,,,,,,,,,,,,,,,,,,,,,,,,,,,,,,,,,,,,,,,,,,,,,,,,,,,,,,,,,,,,,,,,,,,,,,,,,,,,,,,,,,,,,,,,,,,,,,,,,,,,,,,,,,,,,,,,,,,,,,,,,,,,,,,
,,,,,,5f3ba39206b3218cf379659d,62bbfaa05630fa8fcf446888,2022-06-29_19h09.57.374,Colour_Asymmetry_Pilot,2022.1.3,Win32,60.46680372,62bbe60bf3d75ef465d3e404,0,86,86,77,1,threefour,,,,,,,,,,,,,,,,,,,,,,,,,,,,,,,,,,,,,,,,,,,,,,,,,,,,,,,,,,,,,,,,,,,,,,,,,,,,,,,,,,,,,,,,,,,,,,,,,,,,,,,,,,,,,,,,,,,,,,,,,,,,,,,,,,,,,,,,,,,,,,,,,,,,,,,,
,,,,,,5f3ba39206b3218cf379659d,62bbfaa05630fa8fcf446888,2022-06-29_19h09.57.374,Colour_Asymmetry_Pilot,2022.1.3,Win32,60.46680372,62bbe60bf3d75ef465d3e404,0,87,87,98,1,twoone,,,,,,,,,,,,,,,,,,,,,,,,,,,,,,,,,,,,,,,,,,,,,,,,,,,,,,,,,,,,,,,,,,,,,,,,,,,,,,,,,,,,,,,,,,,,,,,,,,,,,,,,,,,,,,,,,,,,,,,,,,,,,,,,,,,,,,,,,,,,,,,,,,,,,,,,
,,,,,,5f3ba39206b3218cf379659d,62bbfaa05630fa8fcf446888,2022-06-29_19h09.57.374,Colour_Asymmetry_Pilot,2022.1.3,Win32,60.46680372,62bbe60bf3d75ef465d3e404,0,88,88,150,1,fourtwo,,,,,,,,,,,,,,,,,,,,,,,,,,,,,,,,,,,,,,,,,,,,,,,,,,,,,,,,,,,,,,,,,,,,,,,,,,,,,,,,,,,,,,,,,,,,,,,,,,,,,,,,,,,,,,,,,,,,,,,,,,,,,,,,,,,,,,,,,,,,,,,,,,,,,,,,
,,,,,,5f3ba39206b3218cf379659d,62bbfaa05630fa8fcf446888,2022-06-29_19h09.57.374,Colour_Asymmetry_Pilot,2022.1.3,Win32,60.46680372,62bbe60bf3d75ef465d3e404,0,89,89,75,1,twofour,,,,,,,,,,,,,,,,,,,,,,,,,,,,,,,,,,,,,,,,,,,,,,,,,,,,,,,,,,,,,,,,,,,,,,,,,,,,,,,,,,,,,,,,,,,,,,,,,,,,,,,,,,,,,,,,,,,,,,,,,,,,,,,,,,,,,,,,,,,,,,,,,,,,,,,,
,,,,,,5f3ba39206b3218cf379659d,62bbfaa05630fa8fcf446888,2022-06-29_19h09.57.374,Colour_Asymmetry_Pilot,2022.1.3,Win32,60.46680372,62bbe60bf3d75ef465d3e404,0,90,90,43,1,twofour,,,,,,,,,,,,,,,,,,,,,,,,,,,,,,,,,,,,,,,,,,,,,,,,,,,,,,,,,,,,,,,,,,,,,,,,,,,,,,,,,,,,,,,,,,,,,,,,,,,,,,,,,,,,,,,,,,,,,,,,,,,,,,,,,,,,,,,,,,,,,,,,,,,,,,,,
,,,,,,5f3ba39206b3218cf379659d,62bbfaa05630fa8fcf446888,2022-06-29_19h09.57.374,Colour_Asymmetry_Pilot,2022.1.3,Win32,60.46680372,62bbe60bf3d75ef465d3e404,0,91,91,31,1,fourthree,,,,,,,,,,,,,,,,,,,,,,,,,,,,,,,,,,,,,,,,,,,,,,,,,,,,,,,,,,,,,,,,,,,,,,,,,,,,,,,,,,,,,,,,,,,,,,,,,,,,,,,,,,,,,,,,,,,,,,,,,,,,,,,,,,,,,,,,,,,,,,,,,,,,,,,,
,,,,,,5f3ba39206b3218cf379659d,62bbfaa05630fa8fcf446888,2022-06-29_19h09.57.374,Colour_Asymmetry_Pilot,2022.1.3,Win32,60.46680372,62bbe60bf3d75ef465d3e404,0,92,92,40,1,onetwo,,,,,,,,,,,,,,,,,,,,,,,,,,,,,,,,,,,,,,,,,,,,,,,,,,,,,,,,,,,,,,,,,,,,,,,,,,,,,,,,,,,,,,,,,,,,,,,,,,,,,,,,,,,,,,,,,,,,,,,,,,,,,,,,,,,,,,,,,,,,,,,,,,,,,,,,
,,,,,,5f3ba39206b3218cf379659d,62bbfaa05630fa8fcf446888,2022-06-29_19h09.57.374,Colour_Asymmetry_Pilot,2022.1.3,Win32,60.46680372,62bbe60bf3d75ef465d3e404,0,93,93,125,1,threefour,,,,,,,,,,,,,,,,,,,,,,,,,,,,,,,,,,,,,,,,,,,,,,,,,,,,,,,,,,,,,,,,,,,,,,,,,,,,,,,,,,,,,,,,,,,,,,,,,,,,,,,,,,,,,,,,,,,,,,,,,,,,,,,,,,,,,,,,,,,,,,,,,,,,,,,,
,,,,,,5f3ba39206b3218cf379659d,62bbfaa05630fa8fcf446888,2022-06-29_19h09.57.374,Colour_Asymmetry_Pilot,2022.1.3,Win32,60.46680372,62bbe60bf3d75ef465d3e404,0,94,94,108,1,threeone,,,,,,,,,,,,,,,,,,,,,,,,,,,,,,,,,,,,,,,,,,,,,,,,,,,,,,,,,,,,,,,,,,,,,,,,,,,,,,,,,,,,,,,,,,,,,,,,,,,,,,,,,,,,,,,,,,,,,,,,,,,,,,,,,,,,,,,,,,,,,,,,,,,,,,,,
,,,,,,5f3ba39206b3218cf379659d,62bbfaa05630fa8fcf446888,2022-06-29_19h09.57.374,Colour_Asymmetry_Pilot,2022.1.3,Win32,60.46680372,62bbe60bf3d75ef465d3e404,0,95,95,155,1,twofour,,,,,,,,,,,,,,,,,,,,,,,,,,,,,,,,,,,,,,,,,,,,,,,,,,,,,,,,,,,,,,,,,,,,,,,,,,,,,,,,,,,,,,,,,,,,,,,,,,,,,,,,,,,,,,,,,,,,,,,,,,,,,,,,,,,,,,,,,,,,,,,,,,,,,,,,
,,,,,,5f3ba39206b3218cf379659d,62bbfaa05630fa8fcf446888,2022-06-29_19h09.57.374,Colour_Asymmetry_Pilot,2022.1.3,Win32,60.46680372,62bbe60bf3d75ef465d3e404,0,96,96,61,1,threefour,,,,,,,,,,,,,,,,,,,,,,,,,,,,,,,,,,,,,,,,,,,,,,,,,,,,,,,,,,,,,,,,,,,,,,,,,,,,,,,,,,,,,,,,,,,,,,,,,,,,,,,,,,,,,,,,,,,,,,,,,,,,,,,,,,,,,,,,,,,,,,,,,,,,,,,,
,,,,,,5f3ba39206b3218cf379659d,62bbfaa05630fa8fcf446888,2022-06-29_19h09.57.374,Colour_Asymmetry_Pilot,2022.1.3,Win32,60.46680372,62bbe60bf3d75ef465d3e404,0,97,97,22,1,fourtwo,,,,,,,,,,,,,,,,,,,,,,,,,,,,,,,,,,,,,,,,,,,,,,,,,,,,,,,,,,,,,,,,,,,,,,,,,,,,,,,,,,,,,,,,,,,,,,,,,,,,,,,,,,,,,,,,,,,,,,,,,,,,,,,,,,,,,,,,,,,,,,,,,,,,,,,,
,,,,,,5f3ba39206b3218cf379659d,62bbfaa05630fa8fcf446888,2022-06-29_19h09.57.374,Colour_Asymmetry_Pilot,2022.1.3,Win32,60.46680372,62bbe60bf3d75ef465d3e404,0,98,98,158,1,fourtwo,,,,,,,,,,,,,,,,,,,,,,,,,,,,,,,,,,,,,,,,,,,,,,,,,,,,,,,,,,,,,,,,,,,,,,,,,,,,,,,,,,,,,,,,,,,,,,,,,,,,,,,,,,,,,,,,,,,,,,,,,,,,,,,,,,,,,,,,,,,,,,,,,,,,,,,,
,,,,,,5f3ba39206b3218cf379659d,62bbfaa05630fa8fcf446888,2022-06-29_19h09.57.374,Colour_Asymmetry_Pilot,2022.1.3,Win32,60.46680372,62bbe60bf3d75ef465d3e404,0,99,99,101,1,threefour,,,,,,,,,,,,,,,,,,,,,,,,,,,,,,,,,,,,,,,,,,,,,,,,,,,,,,,,,,,,,,,,,,,,,,,,,,,,,,,,,,,,,,,,,,,,,,,,,,,,,,,,,,,,,,,,,,,,,,,,,,,,,,,,,,,,,,,,,,,,,,,,,,,,,,,,
,,,,,,5f3ba39206b3218cf379659d,62bbfaa05630fa8fcf446888,2022-06-29_19h09.57.374,Colour_Asymmetry_Pilot,2022.1.3,Win32,60.46680372,62bbe60bf3d75ef465d3e404,0,100,100,48,1,onetwo,,,,,,,,,,,,,,,,,,,,,,,,,,,,,,,,,,,,,,,,,,,,,,,,,,,,,,,,,,,,,,,,,,,,,,,,,,,,,,,,,,,,,,,,,,,,,,,,,,,,,,,,,,,,,,,,,,,,,,,,,,,,,,,,,,,,,,,,,,,,,,,,,,,,,,,,
,,,,,,5f3ba39206b3218cf379659d,62bbfaa05630fa8fcf446888,2022-06-29_19h09.57.374,Colour_Asymmetry_Pilot,2022.1.3,Win32,60.46680372,62bbe60bf3d75ef465d3e404,0,101,101,62,1,fourtwo,,,,,,,,,,,,,,,,,,,,,,,,,,,,,,,,,,,,,,,,,,,,,,,,,,,,,,,,,,,,,,,,,,,,,,,,,,,,,,,,,,,,,,,,,,,,,,,,,,,,,,,,,,,,,,,,,,,,,,,,,,,,,,,,,,,,,,,,,,,,,,,,,,,,,,,,
,,,,,,5f3ba39206b3218cf379659d,62bbfaa05630fa8fcf446888,2022-06-29_19h09.57.374,Colour_Asymmetry_Pilot,2022.1.3,Win32,60.46680372,62bbe60bf3d75ef465d3e404,0,102,102,3,1,twofour,,,,,,,,,,,,,,,,,,,,,,,,,,,,,,,,,,,,,,,,,,,,,,,,,,,,,,,,,,,,,,,,,,,,,,,,,,,,,,,,,,,,,,,,,,,,,,,,,,,,,,,,,,,,,,,,,,,,,,,,,,,,,,,,,,,,,,,,,,,,,,,,,,,,,,,,
,,,,,,5f3ba39206b3218cf379659d,62bbfaa05630fa8fcf446888,2022-06-29_19h09.57.374,Colour_Asymmetry_Pilot,2022.1.3,Win32,60.46680372,62bbe60bf3d75ef465d3e404,0,103,103,145,1,onethree,,,,,,,,,,,,,,,,,,,,,,,,,,,,,,,,,,,,,,,,,,,,,,,,,,,,,,,,,,,,,,,,,,,,,,,,,,,,,,,,,,,,,,,,,,,,,,,,,,,,,,,,,,,,,,,,,,,,,,,,,,,,,,,,,,,,,,,,,,,,,,,,,,,,,,,,
,,,,,,5f3ba39206b3218cf379659d,62bbfaa05630fa8fcf446888,2022-06-29_19h09.57.374,Colour_Asymmetry_Pilot,2022.1.3,Win32,60.46680372,62bbe60bf3d75ef465d3e404,0,104,104,129,1,onethree,,,,,,,,,,,,,,,,,,,,,,,,,,,,,,,,,,,,,,,,,,,,,,,,,,,,,,,,,,,,,,,,,,,,,,,,,,,,,,,,,,,,,,,,,,,,,,,,,,,,,,,,,,,,,,,,,,,,,,,,,,,,,,,,,,,,,,,,,,,,,,,,,,,,,,,,
,,,,,,5f3ba39206b3218cf379659d,62bbfaa05630fa8fcf446888,2022-06-29_19h09.57.374,Colour_Asymmetry_Pilot,2022.1.3,Win32,60.46680372,62bbe60bf3d75ef465d3e404,0,105,105,52,1,threeone,,,,,,,,,,,,,,,,,,,,,,,,,,,,,,,,,,,,,,,,,,,,,,,,,,,,,,,,,,,,,,,,,,,,,,,,,,,,,,,,,,,,,,,,,,,,,,,,,,,,,,,,,,,,,,,,,,,,,,,,,,,,,,,,,,,,,,,,,,,,,,,,,,,,,,,,
,,,,,,5f3ba39206b3218cf379659d,62bbfaa05630fa8fcf446888,2022-06-29_19h09.57.374,Colour_Asymmetry_Pilot,2022.1.3,Win32,60.46680372,62bbe60bf3d75ef465d3e404,0,106,106,160,1,onetwo,,,,,,,,,,,,,,,,,,,,,,,,,,,,,,,,,,,,,,,,,,,,,,,,,,,,,,,,,,,,,,,,,,,,,,,,,,,,,,,,,,,,,,,,,,,,,,,,,,,,,,,,,,,,,,,,,,,,,,,,,,,,,,,,,,,,,,,,,,,,,,,,,,,,,,,,
,,,,,,5f3ba39206b3218cf379659d,62bbfaa05630fa8fcf446888,2022-06-29_19h09.57.374,Colour_Asymmetry_Pilot,2022.1.3,Win32,60.46680372,62bbe60bf3d75ef465d3e404,0,107,107,143,1,fourthree,,,,,,,,,,,,,,,,,,,,,,,,,,,,,,,,,,,,,,,,,,,,,,,,,,,,,,,,,,,,,,,,,,,,,,,,,,,,,,,,,,,,,,,,,,,,,,,,,,,,,,,,,,,,,,,,,,,,,,,,,,,,,,,,,,,,,,,,,,,,,,,,,,,,,,,,
,,,,,,5f3ba39206b3218cf379659d,62bbfaa05630fa8fcf446888,2022-06-29_19h09.57.374,Colour_Asymmetry_Pilot,2022.1.3,Win32,60.46680372,62bbe60bf3d75ef465d3e404,0,108,108,103,1,fourthree,,,,,,,,,,,,,,,,,,,,,,,,,,,,,,,,,,,,,,,,,,,,,,,,,,,,,,,,,,,,,,,,,,,,,,,,,,,,,,,,,,,,,,,,,,,,,,,,,,,,,,,,,,,,,,,,,,,,,,,,,,,,,,,,,,,,,,,,,,,,,,,,,,,,,,,,
,,,,,,5f3ba39206b3218cf379659d,62bbfaa05630fa8fcf446888,2022-06-29_19h09.57.374,Colour_Asymmetry_Pilot,2022.1.3,Win32,60.46680372,62bbe60bf3d75ef465d3e404,0,109,109,134,1,fourtwo,,,,,,,,,,,,,,,,,,,,,,,,,,,,,,,,,,,,,,,,,,,,,,,,,,,,,,,,,,,,,,,,,,,,,,,,,,,,,,,,,,,,,,,,,,,,,,,,,,,,,,,,,,,,,,,,,,,,,,,,,,,,,,,,,,,,,,,,,,,,,,,,,,,,,,,,
,,,,,,5f3ba39206b3218cf379659d,62bbfaa05630fa8fcf446888,2022-06-29_19h09.57.374,Colour_Asymmetry_Pilot,2022.1.3,Win32,60.46680372,62bbe60bf3d75ef465d3e404,0,110,110,95,1,fourthree,,,,,,,,,,,,,,,,,,,,,,,,,,,,,,,,,,,,,,,,,,,,,,,,,,,,,,,,,,,,,,,,,,,,,,,,,,,,,,,,,,,,,,,,,,,,,,,,,,,,,,,,,,,,,,,,,,,,,,,,,,,,,,,,,,,,,,,,,,,,,,,,,,,,,,,,
,,,,,,5f3ba39206b3218cf379659d,62bbfaa05630fa8fcf446888,2022-06-29_19h09.57.374,Colour_Asymmetry_Pilot,2022.1.3,Win32,60.46680372,62bbe60bf3d75ef465d3e404,0,111,111,71,1,fourthree,,,,,,,,,,,,,,,,,,,,,,,,,,,,,,,,,,,,,,,,,,,,,,,,,,,,,,,,,,,,,,,,,,,,,,,,,,,,,,,,,,,,,,,,,,,,,,,,,,,,,,,,,,,,,,,,,,,,,,,,,,,,,,,,,,,,,,,,,,,,,,,,,,,,,,,,
,,,,,,5f3ba39206b3218cf379659d,62bbfaa05630fa8fcf446888,2022-06-29_19h09.57.374,Colour_Asymmetry_Pilot,2022.1.3,Win32,60.46680372,62bbe60bf3d75ef465d3e404,0,112,112,54,1,fourtwo,,,,,,,,,,,,,,,,,,,,,,,,,,,,,,,,,,,,,,,,,,,,,,,,,,,,,,,,,,,,,,,,,,,,,,,,,,,,,,,,,,,,,,,,,,,,,,,,,,,,,,,,,,,,,,,,,,,,,,,,,,,,,,,,,,,,,,,,,,,,,,,,,,,,,,,,
,,,,,,5f3ba39206b3218cf379659d,62bbfaa05630fa8fcf446888,2022-06-29_19h09.57.374,Colour_Asymmetry_Pilot,2022.1.3,Win32,60.46680372,62bbe60bf3d75ef465d3e404,0,113,113,53,1,threefour,,,,,,,,,,,,,,,,,,,,,,,,,,,,,,,,,,,,,,,,,,,,,,,,,,,,,,,,,,,,,,,,,,,,,,,,,,,,,,,,,,,,,,,,,,,,,,,,,,,,,,,,,,,,,,,,,,,,,,,,,,,,,,,,,,,,,,,,,,,,,,,,,,,,,,,,
,,,,,,5f3ba39206b3218cf379659d,62bbfaa05630fa8fcf446888,2022-06-29_19h09.57.374,Colour_Asymmetry_Pilot,2022.1.3,Win32,60.46680372,62bbe60bf3d75ef465d3e404,0,114,114,50,1,twoone,,,,,,,,,,,,,,,,,,,,,,,,,,,,,,,,,,,,,,,,,,,,,,,,,,,,,,,,,,,,,,,,,,,,,,,,,,,,,,,,,,,,,,,,,,,,,,,,,,,,,,,,,,,,,,,,,,,,,,,,,,,,,,,,,,,,,,,,,,,,,,,,,,,,,,,,
,,,,,,5f3ba39206b3218cf379659d,62bbfaa05630fa8fcf446888,2022-06-29_19h09.57.374,Colour_Asymmetry_Pilot,2022.1.3,Win32,60.46680372,62bbe60bf3d75ef465d3e404,0,115,115,84,1,threeone,,,,,,,,,,,,,,,,,,,,,,,,,,,,,,,,,,,,,,,,,,,,,,,,,,,,,,,,,,,,,,,,,,,,,,,,,,,,,,,,,,,,,,,,,,,,,,,,,,,,,,,,,,,,,,,,,,,,,,,,,,,,,,,,,,,,,,,,,,,,,,,,,,,,,,,,
,,,,,,5f3ba39206b3218cf379659d,62bbfaa05630fa8fcf446888,2022-06-29_19h09.57.374,Colour_Asymmetry_Pilot,2022.1.3,Win32,60.46680372,62bbe60bf3d75ef465d3e404,0,116,116,151,1,fourthree,,,,,,,,,,,,,,,,,,,,,,,,,,,,,,,,,,,,,,,,,,,,,,,,,,,,,,,,,,,,,,,,,,,,,,,,,,,,,,,,,,,,,,,,,,,,,,,,,,,,,,,,,,,,,,,,,,,,,,,,,,,,,,,,,,,,,,,,,,,,,,,,,,,,,,,,
,,,,,,5f3ba39206b3218cf379659d,62bbfaa05630fa8fcf446888,2022-06-29_19h09.57.374,Colour_Asymmetry_Pilot,2022.1.3,Win32,60.46680372,62bbe60bf3d75ef465d3e404,0,117,117,96,1,onetwo,,,,,,,,,,,,,,,,,,,,,,,,,,,,,,,,,,,,,,,,,,,,,,,,,,,,,,,,,,,,,,,,,,,,,,,,,,,,,,,,,,,,,,,,,,,,,,,,,,,,,,,,,,,,,,,,,,,,,,,,,,,,,,,,,,,,,,,,,,,,,,,,,,,,,,,,
,,,,,,5f3ba39206b3218cf379659d,62bbfaa05630fa8fcf446888,2022-06-29_19h09.57.374,Colour_Asymmetry_Pilot,2022.1.3,Win32,60.46680372,62bbe60bf3d75ef465d3e404,0,118,118,107,1,twofour,,,,,,,,,,,,,,,,,,,,,,,,,,,,,,,,,,,,,,,,,,,,,,,,,,,,,,,,,,,,,,,,,,,,,,,,,,,,,,,,,,,,,,,,,,,,,,,,,,,,,,,,,,,,,,,,,,,,,,,,,,,,,,,,,,,,,,,,,,,,,,,,,,,,,,,,
,,,,,,5f3ba39206b3218cf379659d,62bbfaa05630fa8fcf446888,2022-06-29_19h09.57.374,Colour_Asymmetry_Pilot,2022.1.3,Win32,60.46680372,62bbe60bf3d75ef465d3e404,0,119,119,55,1,fourthree,,,,,,,,,,,,,,,,,,,,,,,,,,,,,,,,,,,,,,,,,,,,,,,,,,,,,,,,,,,,,,,,,,,,,,,,,,,,,,,,,,,,,,,,,,,,,,,,,,,,,,,,,,,,,,,,,,,,,,,,,,,,,,,,,,,,,,,,,,,,,,,,,,,,,,,,
,,,,,,5f3ba39206b3218cf379659d,62bbfaa05630fa8fcf446888,2022-06-29_19h09.57.374,Colour_Asymmetry_Pilot,2022.1.3,Win32,60.46680372,62bbe60bf3d75ef465d3e404,0,120,120,28,1,threeone,,,,,,,,,,,,,,,,,,,,,,,,,,,,,,,,,,,,,,,,,,,,,,,,,,,,,,,,,,,,,,,,,,,,,,,,,,,,,,,,,,,,,,,,,,,,,,,,,,,,,,,,,,,,,,,,,,,,,,,,,,,,,,,,,,,,,,,,,,,,,,,,,,,,,,,,
,,,,,,5f3ba39206b3218cf379659d,62bbfaa05630fa8fcf446888,2022-06-29_19h09.57.374,Colour_Asymmetry_Pilot,2022.1.3,Win32,60.46680372,62bbe60bf3d75ef465d3e404,0,121,121,92,1,threeone,,,,,,,,,,,,,,,,,,,,,,,,,,,,,,,,,,,,,,,,,,,,,,,,,,,,,,,,,,,,,,,,,,,,,,,,,,,,,,,,,,,,,,,,,,,,,,,,,,,,,,,,,,,,,,,,,,,,,,,,,,,,,,,,,,,,,,,,,,,,,,,,,,,,,,,,
,,,,,,5f3ba39206b3218cf379659d,62bbfaa05630fa8fcf446888,2022-06-29_19h09.57.374,Colour_Asymmetry_Pilot,2022.1.3,Win32,60.46680372,62bbe60bf3d75ef465d3e404,0,122,122,88,1,onetwo,,,,,,,,,,,,,,,,,,,,,,,,,,,,,,,,,,,,,,,,,,,,,,,,,,,,,,,,,,,,,,,,,,,,,,,,,,,,,,,,,,,,,,,,,,,,,,,,,,,,,,,,,,,,,,,,,,,,,,,,,,,,,,,,,,,,,,,,,,,,,,,,,,,,,,,,
,,,,,,5f3ba39206b3218cf379659d,62bbfaa05630fa8fcf446888,2022-06-29_19h09.57.374,Colour_Asymmetry_Pilot,2022.1.3,Win32,60.46680372,62bbe60bf3d75ef465d3e404,0,123,123,16,1,onetwo,,,,,,,,,,,,,,,,,,,,,,,,,,,,,,,,,,,,,,,,,,,,,,,,,,,,,,,,,,,,,,,,,,,,,,,,,,,,,,,,,,,,,,,,,,,,,,,,,,,,,,,,,,,,,,,,,,,,,,,,,,,,,,,,,,,,,,,,,,,,,,,,,,,,,,,,
,,,,,,5f3ba39206b3218cf379659d,62bbfaa05630fa8fcf446888,2022-06-29_19h09.57.374,Colour_Asymmetry_Pilot,2022.1.3,Win32,60.46680372,62bbe60bf3d75ef465d3e404,0,124,124,87,1,fourthree,,,,,,,,,,,,,,,,,,,,,,,,,,,,,,,,,,,,,,,,,,,,,,,,,,,,,,,,,,,,,,,,,,,,,,,,,,,,,,,,,,,,,,,,,,,,,,,,,,,,,,,,,,,,,,,,,,,,,,,,,,,,,,,,,,,,,,,,,,,,,,,,,,,,,,,,
,,,,,,5f3ba39206b3218cf379659d,62bbfaa05630fa8fcf446888,2022-06-29_19h09.57.374,Colour_Asymmetry_Pilot,2022.1.3,Win32,60.46680372,62bbe60bf3d75ef465d3e404,0,125,125,36,1,threeone,,,,,,,,,,,,,,,,,,,,,,,,,,,,,,,,,,,,,,,,,,,,,,,,,,,,,,,,,,,,,,,,,,,,,,,,,,,,,,,,,,,,,,,,,,,,,,,,,,,,,,,,,,,,,,,,,,,,,,,,,,,,,,,,,,,,,,,,,,,,,,,,,,,,,,,,
,,,,,,5f3ba39206b3218cf379659d,62bbfaa05630fa8fcf446888,2022-06-29_19h09.57.374,Colour_Asymmetry_Pilot,2022.1.3,Win32,60.46680372,62bbe60bf3d75ef465d3e404,0,126,126,83,1,twofour,,,,,,,,,,,,,,,,,,,,,,,,,,,,,,,,,,,,,,,,,,,,,,,,,,,,,,,,,,,,,,,,,,,,,,,,,,,,,,,,,,,,,,,,,,,,,,,,,,,,,,,,,,,,,,,,,,,,,,,,,,,,,,,,,,,,,,,,,,,,,,,,,,,,,,,,
,,,,,,5f3ba39206b3218cf379659d,62bbfaa05630fa8fcf446888,2022-06-29_19h09.57.374,Colour_Asymmetry_Pilot,2022.1.3,Win32,60.46680372,62bbe60bf3d75ef465d3e404,0,127,127,111,1,fourthree,,,,,,,,,,,,,,,,,,,,,,,,,,,,,,,,,,,,,,,,,,,,,,,,,,,,,,,,,,,,,,,,,,,,,,,,,,,,,,,,,,,,,,,,,,,,,,,,,,,,,,,,,,,,,,,,,,,,,,,,,,,,,,,,,,,,,,,,,,,,,,,,,,,,,,,,
,,,,,,5f3ba39206b3218cf379659d,62bbfaa05630fa8fcf446888,2022-06-29_19h09.57.374,Colour_Asymmetry_Pilot,2022.1.3,Win32,60.46680372,62bbe60bf3d75ef465d3e404,0,128,128,159,1,fourthree,,,,,,,,,,,,,,,,,,,,,,,,,,,,,,,,,,,,,,,,,,,,,,,,,,,,,,,,,,,,,,,,,,,,,,,,,,,,,,,,,,,,,,,,,,,,,,,,,,,,,,,,,,,,,,,,,,,,,,,,,,,,,,,,,,,,,,,,,,,,,,,,,,,,,,,,
,,,,,,5f3ba39206b3218cf379659d,62bbfaa05630fa8fcf446888,2022-06-29_19h09.57.374,Colour_Asymmetry_Pilot,2022.1.3,Win32,60.46680372,62bbe60bf3d75ef465d3e404,0,129,129,46,1,fourtwo,,,,,,,,,,,,,,,,,,,,,,,,,,,,,,,,,,,,,,,,,,,,,,,,,,,,,,,,,,,,,,,,,,,,,,,,,,,,,,,,,,,,,,,,,,,,,,,,,,,,,,,,,,,,,,,,,,,,,,,,,,,,,,,,,,,,,,,,,,,,,,,,,,,,,,,,
,,,,,,5f3ba39206b3218cf379659d,62bbfaa05630fa8fcf446888,2022-06-29_19h09.57.374,Colour_Asymmetry_Pilot,2022.1.3,Win32,60.46680372,62bbe60bf3d75ef465d3e404,0,130,130,63,1,fourthree,,,,,,,,,,,,,,,,,,,,,,,,,,,,,,,,,,,,,,,,,,,,,,,,,,,,,,,,,,,,,,,,,,,,,,,,,,,,,,,,,,,,,,,,,,,,,,,,,,,,,,,,,,,,,,,,,,,,,,,,,,,,,,,,,,,,,,,,,,,,,,,,,,,,,,,,
,,,,,,5f3ba39206b3218cf379659d,62bbfaa05630fa8fcf446888,2022-06-29_19h09.57.374,Colour_Asymmetry_Pilot,2022.1.3,Win32,60.46680372,62bbe60bf3d75ef465d3e404,0,131,131,49,1,onethree,,,,,,,,,,,,,,,,,,,,,,,,,,,,,,,,,,,,,,,,,,,,,,,,,,,,,,,,,,,,,,,,,,,,,,,,,,,,,,,,,,,,,,,,,,,,,,,,,,,,,,,,,,,,,,,,,,,,,,,,,,,,,,,,,,,,,,,,,,,,,,,,,,,,,,,,
,,,,,,5f3ba39206b3218cf379659d,62bbfaa05630fa8fcf446888,2022-06-29_19h09.57.374,Colour_Asymmetry_Pilot,2022.1.3,Win32,60.46680372,62bbe60bf3d75ef465d3e404,0,132,132,2,1,twoone,,,,,,,,,,,,,,,,,,,,,,,,,,,,,,,,,,,,,,,,,,,,,,,,,,,,,,,,,,,,,,,,,,,,,,,,,,,,,,,,,,,,,,,,,,,,,,,,,,,,,,,,,,,,,,,,,,,,,,,,,,,,,,,,,,,,,,,,,,,,,,,,,,,,,,,,
,,,,,,5f3ba39206b3218cf379659d,62bbfaa05630fa8fcf446888,2022-06-29_19h09.57.374,Colour_Asymmetry_Pilot,2022.1.3,Win32,60.46680372,62bbe60bf3d75ef465d3e404,0,133,133,6,1,fourtwo,,,,,,,,,,,,,,,,,,,,,,,,,,,,,,,,,,,,,,,,,,,,,,,,,,,,,,,,,,,,,,,,,,,,,,,,,,,,,,,,,,,,,,,,,,,,,,,,,,,,,,,,,,,,,,,,,,,,,,,,,,,,,,,,,,,,,,,,,,,,,,,,,,,,,,,,
,,,,,,5f3ba39206b3218cf379659d,62bbfaa05630fa8fcf446888,2022-06-29_19h09.57.374,Colour_Asymmetry_Pilot,2022.1.3,Win32,60.46680372,62bbe60bf3d75ef465d3e404,0,134,134,26,1,twoone,,,,,,,,,,,,,,,,,,,,,,,,,,,,,,,,,,,,,,,,,,,,,,,,,,,,,,,,,,,,,,,,,,,,,,,,,,,,,,,,,,,,,,,,,,,,,,,,,,,,,,,,,,,,,,,,,,,,,,,,,,,,,,,,,,,,,,,,,,,,,,,,,,,,,,,,
,,,,,,5f3ba39206b3218cf379659d,62bbfaa05630fa8fcf446888,2022-06-29_19h09.57.374,Colour_Asymmetry_Pilot,2022.1.3,Win32,60.46680372,62bbe60bf3d75ef465d3e404,0,135,135,17,1,onethree,,,,,,,,,,,,,,,,,,,,,,,,,,,,,,,,,,,,,,,,,,,,,,,,,,,,,,,,,,,,,,,,,,,,,,,,,,,,,,,,,,,,,,,,,,,,,,,,,,,,,,,,,,,,,,,,,,,,,,,,,,,,,,,,,,,,,,,,,,,,,,,,,,,,,,,,
,,,,,,5f3ba39206b3218cf379659d,62bbfaa05630fa8fcf446888,2022-06-29_19h09.57.374,Colour_Asymmetry_Pilot,2022.1.3,Win32,60.46680372,62bbe60bf3d75ef465d3e404,0,136,136,57,1,onethree,,,,,,,,,,,,,,,,,,,,,,,,,,,,,,,,,,,,,,,,,,,,,,,,,,,,,,,,,,,,,,,,,,,,,,,,,,,,,,,,,,,,,,,,,,,,,,,,,,,,,,,,,,,,,,,,,,,,,,,,,,,,,,,,,,,,,,,,,,,,,,,,,,,,,,,,
,,,,,,5f3ba39206b3218cf379659d,62bbfaa05630fa8fcf446888,2022-06-29_19h09.57.374,Colour_Asymmetry_Pilot,2022.1.3,Win32,60.46680372,62bbe60bf3d75ef465d3e404,0,137,137,161,1,onethree,,,,,,,,,,,,,,,,,,,,,,,,,,,,,,,,,,,,,,,,,,,,,,,,,,,,,,,,,,,,,,,,,,,,,,,,,,,,,,,,,,,,,,,,,,,,,,,,,,,,,,,,,,,,,,,,,,,,,,,,,,,,,,,,,,,,,,,,,,,,,,,,,,,,,,,,
,,,,,,5f3ba39206b3218cf379659d,62bbfaa05630fa8fcf446888,2022-06-29_19h09.57.374,Colour_Asymmetry_Pilot,2022.1.3,Win32,60.46680372,62bbe60bf3d75ef465d3e404,0,138,138,85,1,threefour,,,,,,,,,,,,,,,,,,,,,,,,,,,,,,,,,,,,,,,,,,,,,,,,,,,,,,,,,,,,,,,,,,,,,,,,,,,,,,,,,,,,,,,,,,,,,,,,,,,,,,,,,,,,,,,,,,,,,,,,,,,,,,,,,,,,,,,,,,,,,,,,,,,,,,,,
,,,,,,5f3ba39206b3218cf379659d,62bbfaa05630fa8fcf446888,2022-06-29_19h09.57.374,Colour_Asymmetry_Pilot,2022.1.3,Win32,60.46680372,62bbe60bf3d75ef465d3e404,0,139,139,81,1,onethree,,,,,,,,,,,,,,,,,,,,,,,,,,,,,,,,,,,,,,,,,,,,,,,,,,,,,,,,,,,,,,,,,,,,,,,,,,,,,,,,,,,,,,,,,,,,,,,,,,,,,,,,,,,,,,,,,,,,,,,,,,,,,,,,,,,,,,,,,,,,,,,,,,,,,,,,
,,,,,,5f3ba39206b3218cf379659d,62bbfaa05630fa8fcf446888,2022-06-29_19h09.57.374,Colour_Asymmetry_Pilot,2022.1.3,Win32,60.46680372,62bbe60bf3d75ef465d3e404,0,140,140,29,1,threefour,,,,,,,,,,,,,,,,,,,,,,,,,,,,,,,,,,,,,,,,,,,,,,,,,,,,,,,,,,,,,,,,,,,,,,,,,,,,,,,,,,,,,,,,,,,,,,,,,,,,,,,,,,,,,,,,,,,,,,,,,,,,,,,,,,,,,,,,,,,,,,,,,,,,,,,,
,,,,,,5f3ba39206b3218cf379659d,62bbfaa05630fa8fcf446888,2022-06-29_19h09.57.374,Colour_Asymmetry_Pilot,2022.1.3,Win32,60.46680372,62bbe60bf3d75ef465d3e404,0,141,141,102,1,fourtwo,,,,,,,,,,,,,,,,,,,,,,,,,,,,,,,,,,,,,,,,,,,,,,,,,,,,,,,,,,,,,,,,,,,,,,,,,,,,,,,,,,,,,,,,,,,,,,,,,,,,,,,,,,,,,,,,,,,,,,,,,,,,,,,,,,,,,,,,,,,,,,,,,,,,,,,,
,,,,,,5f3ba39206b3218cf379659d,62bbfaa05630fa8fcf446888,2022-06-29_19h09.57.374,Colour_Asymmetry_Pilot,2022.1.3,Win32,60.46680372,62bbe60bf3d75ef465d3e404,0,142,142,56,1,onetwo,,,,,,,,,,,,,,,,,,,,,,,,,,,,,,,,,,,,,,,,,,,,,,,,,,,,,,,,,,,,,,,,,,,,,,,,,,,,,,,,,,,,,,,,,,,,,,,,,,,,,,,,,,,,,,,,,,,,,,,,,,,,,,,,,,,,,,,,,,,,,,,,,,,,,,,,
,,,,,,5f3ba39206b3218cf379659d,62bbfaa05630fa8fcf446888,2022-06-29_19h09.57.374,Colour_Asymmetry_Pilot,2022.1.3,Win32,60.46680372,62bbe60bf3d75ef465d3e404,0,143,143,72,1,onetwo,,,,,,,,,,,,,,,,,,,,,,,,,,,,,,,,,,,,,,,,,,,,,,,,,,,,,,,,,,,,,,,,,,,,,,,,,,,,,,,,,,,,,,,,,,,,,,,,,,,,,,,,,,,,,,,,,,,,,,,,,,,,,,,,,,,,,,,,,,,,,,,,,,,,,,,,
,,,,,,5f3ba39206b3218cf379659d,62bbfaa05630fa8fcf446888,2022-06-29_19h09.57.374,Colour_Asymmetry_Pilot,2022.1.3,Win32,60.46680372,62bbe60bf3d75ef465d3e404,0,144,144,100,1,threeone,,,,,,,,,,,,,,,,,,,,,,,,,,,,,,,,,,,,,,,,,,,,,,,,,,,,,,,,,,,,,,,,,,,,,,,,,,,,,,,,,,,,,,,,,,,,,,,,,,,,,,,,,,,,,,,,,,,,,,,,,,,,,,,,,,,,,,,,,,,,,,,,,,,,,,,,
,,,,,,5f3ba39206b3218cf379659d,62bbfaa05630fa8fcf446888,2022-06-29_19h09.57.374,Colour_Asymmetry_Pilot,2022.1.3,Win32,60.46680372,62bbe60bf3d75ef465d3e404,0,145,145,34,1,twoone,,,,,,,,,,,,,,,,,,,,,,,,,,,,,,,,,,,,,,,,,,,,,,,,,,,,,,,,,,,,,,,,,,,,,,,,,,,,,,,,,,,,,,,,,,,,,,,,,,,,,,,,,,,,,,,,,,,,,,,,,,,,,,,,,,,,,,,,,,,,,,,,,,,,,,,,
,,,,,,5f3ba39206b3218cf379659d,62bbfaa05630fa8fcf446888,2022-06-29_19h09.57.374,Colour_Asymmetry_Pilot,2022.1.3,Win32,60.46680372,62bbe60bf3d75ef465d3e404,0,146,146,39,1,fourthree,,,,,,,,,,,,,,,,,,,,,,,,,,,,,,,,,,,,,,,,,,,,,,,,,,,,,,,,,,,,,,,,,,,,,,,,,,,,,,,,,,,,,,,,,,,,,,,,,,,,,,,,,,,,,,,,,,,,,,,,,,,,,,,,,,,,,,,,,,,,,,,,,,,,,,,,
,,,,,,5f3ba39206b3218cf379659d,62bbfaa05630fa8fcf446888,2022-06-29_19h09.57.374,Colour_Asymmetry_Pilot,2022.1.3,Win32,60.46680372,62bbe60bf3d75ef465d3e404,0,147,147,8,1,onetwo,,,,,,,,,,,,,,,,,,,,,,,,,,,,,,,,,,,,,,,,,,,,,,,,,,,,,,,,,,,,,,,,,,,,,,,,,,,,,,,,,,,,,,,,,,,,,,,,,,,,,,,,,,,,,,,,,,,,,,,,,,,,,,,,,,,,,,,,,,,,,,,,,,,,,,,,
,,,,,,5f3ba39206b3218cf379659d,62bbfaa05630fa8fcf446888,2022-06-29_19h09.57.374,Colour_Asymmetry_Pilot,2022.1.3,Win32,60.46680372,62bbe60bf3d75ef465d3e404,0,148,148,18,1,twoone,,,,,,,,,,,,,,,,,,,,,,,,,,,,,,,,,,,,,,,,,,,,,,,,,,,,,,,,,,,,,,,,,,,,,,,,,,,,,,,,,,,,,,,,,,,,,,,,,,,,,,,,,,,,,,,,,,,,,,,,,,,,,,,,,,,,,,,,,,,,,,,,,,,,,,,,
,,,,,,5f3ba39206b3218cf379659d,62bbfaa05630fa8fcf446888,2022-06-29_19h09.57.374,Colour_Asymmetry_Pilot,2022.1.3,Win32,60.46680372,62bbe60bf3d75ef465d3e404,0,149,149,32,1,onetwo,,,,,,,,,,,,,,,,,,,,,,,,,,,,,,,,,,,,,,,,,,,,,,,,,,,,,,,,,,,,,,,,,,,,,,,,,,,,,,,,,,,,,,,,,,,,,,,,,,,,,,,,,,,,,,,,,,,,,,,,,,,,,,,,,,,,,,,,,,,,,,,,,,,,,,,,
,,,,,,5f3ba39206b3218cf379659d,62bbfaa05630fa8fcf446888,2022-06-29_19h09.57.374,Colour_Asymmetry_Pilot,2022.1.3,Win32,60.46680372,62bbe60bf3d75ef465d3e404,0,150,150,146,1,twoone,,,,,,,,,,,,,,,,,,,,,,,,,,,,,,,,,,,,,,,,,,,,,,,,,,,,,,,,,,,,,,,,,,,,,,,,,,,,,,,,,,,,,,,,,,,,,,,,,,,,,,,,,,,,,,,,,,,,,,,,,,,,,,,,,,,,,,,,,,,,,,,,,,,,,,,,
,,,,,,5f3ba39206b3218cf379659d,62bbfaa05630fa8fcf446888,2022-06-29_19h09.57.374,Colour_Asymmetry_Pilot,2022.1.3,Win32,60.46680372,62bbe60bf3d75ef465d3e404,0,151,151,67,1,twofour,,,,,,,,,,,,,,,,,,,,,,,,,,,,,,,,,,,,,,,,,,,,,,,,,,,,,,,,,,,,,,,,,,,,,,,,,,,,,,,,,,,,,,,,,,,,,,,,,,,,,,,,,,,,,,,,,,,,,,,,,,,,,,,,,,,,,,,,,,,,,,,,,,,,,,,,
,,,,,,5f3ba39206b3218cf379659d,62bbfaa05630fa8fcf446888,2022-06-29_19h09.57.374,Colour_Asymmetry_Pilot,2022.1.3,Win32,60.46680372,62bbe60bf3d75ef465d3e404,0,152,152,112,1,onetwo,,,,,,,,,,,,,,,,,,,,,,,,,,,,,,,,,,,,,,,,,,,,,,,,,,,,,,,,,,,,,,,,,,,,,,,,,,,,,,,,,,,,,,,,,,,,,,,,,,,,,,,,,,,,,,,,,,,,,,,,,,,,,,,,,,,,,,,,,,,,,,,,,,,,,,,,
,,,,,,5f3ba39206b3218cf379659d,62bbfaa05630fa8fcf446888,2022-06-29_19h09.57.374,Colour_Asymmetry_Pilot,2022.1.3,Win32,60.46680372,62bbe60bf3d75ef465d3e404,0,153,153,79,1,fourthree,,,,,,,,,,,,,,,,,,,,,,,,,,,,,,,,,,,,,,,,,,,,,,,,,,,,,,,,,,,,,,,,,,,,,,,,,,,,,,,,,,,,,,,,,,,,,,,,,,,,,,,,,,,,,,,,,,,,,,,,,,,,,,,,,,,,,,,,,,,,,,,,,,,,,,,,
,,,,,,5f3ba39206b3218cf379659d,62bbfaa05630fa8fcf446888,2022-06-29_19h09.57.374,Colour_Asymmetry_Pilot,2022.1.3,Win32,60.46680372,62bbe60bf3d75ef465d3e404,0,154,154,116,1,threeone,,,,,,,,,,,,,,,,,,,,,,,,,,,,,,,,,,,,,,,,,,,,,,,,,,,,,,,,,,,,,,,,,,,,,,,,,,,,,,,,,,,,,,,,,,,,,,,,,,,,,,,,,,,,,,,,,,,,,,,,,,,,,,,,,,,,,,,,,,,,,,,,,,,,,,,,
,,,,,,5f3ba39206b3218cf379659d,62bbfaa05630fa8fcf446888,2022-06-29_19h09.57.374,Colour_Asymmetry_Pilot,2022.1.3,Win32,60.46680372,62bbe60bf3d75ef465d3e404,0,155,155,128,1,onetwo,,,,,,,,,,,,,,,,,,,,,,,,,,,,,,,,,,,,,,,,,,,,,,,,,,,,,,,,,,,,,,,,,,,,,,,,,,,,,,,,,,,,,,,,,,,,,,,,,,,,,,,,,,,,,,,,,,,,,,,,,,,,,,,,,,,,,,,,,,,,,,,,,,,,,,,,
,,,,,,5f3ba39206b3218cf379659d,62bbfaa05630fa8fcf446888,2022-06-29_19h09.57.374,Colour_Asymmetry_Pilot,2022.1.3,Win32,60.46680372,62bbe60bf3d75ef465d3e404,0,156,156,123,1,twofour,,,,,,,,,,,,,,,,,,,,,,,,,,,,,,,,,,,,,,,,,,,,,,,,,,,,,,,,,,,,,,,,,,,,,,,,,,,,,,,,,,,,,,,,,,,,,,,,,,,,,,,,,,,,,,,,,,,,,,,,,,,,,,,,,,,,,,,,,,,,,,,,,,,,,,,,
,,,,,,5f3ba39206b3218cf379659d,62bbfaa05630fa8fcf446888,2022-06-29_19h09.57.374,Colour_Asymmetry_Pilot,2022.1.3,Win32,60.46680372,62bbe60bf3d75ef465d3e404,0,157,157,86,1,fourtwo,,,,,,,,,,,,,,,,,,,,,,,,,,,,,,,,,,,,,,,,,,,,,,,,,,,,,,,,,,,,,,,,,,,,,,,,,,,,,,,,,,,,,,,,,,,,,,,,,,,,,,,,,,,,,,,,,,,,,,,,,,,,,,,,,,,,,,,,,,,,,,,,,,,,,,,,
,,,,,,5f3ba39206b3218cf379659d,62bbfaa05630fa8fcf446888,2022-06-29_19h09.57.374,Colour_Asymmetry_Pilot,2022.1.3,Win32,60.46680372,62bbe60bf3d75ef465d3e404,0,158,158,126,1,fourtwo,,,,,,,,,,,,,,,,,,,,,,,,,,,,,,,,,,,,,,,,,,,,,,,,,,,,,,,,,,,,,,,,,,,,,,,,,,,,,,,,,,,,,,,,,,,,,,,,,,,,,,,,,,,,,,,,,,,,,,,,,,,,,,,,,,,,,,,,,,,,,,,,,,,,,,,,
,,,,,,5f3ba39206b3218cf379659d,62bbfaa05630fa8fcf446888,2022-06-29_19h09.57.374,Colour_Asymmetry_Pilot,2022.1.3,Win32,60.46680372,62bbe60bf3d75ef465d3e404,0,159,159,140,1,threeone,,,,,,,,,,,,,,,,,,,,,,,,,,,,,,,,,,,,,,,,,,,,,,,,,,,,,,,,,,,,,,,,,,,,,,,,,,,,,,,,,,,,,,,,,,,,,,,,,,,,,,,,,,,,,,,,,,,,,,,,,,,,,,,,,,,,,,,,,,,,,,,,,,,,,,,,
,,,,,,5f3ba39206b3218cf379659d,62bbfaa05630fa8fcf446888,2022-06-29_19h09.57.374,Colour_Asymmetry_Pilot,2022.1.3,Win32,60.46680372,62bbe60bf3d75ef465d3e404,0,160,160,154,1,twoone,,,,,,,,,,,,,,,,,,,,,,,,,,,,,,,,,,,,,,,,,,,,,,,,,,,,,,,,,,,,,,,,,,,,,,,,,,,,,,,,,,,,,,,,,,,,,,,,,,,,,,,,,,,,,,,,,,,,,,,,,,,,,,,,,,,,,,,,,,,,,,,,,,,,,,,,
,,,,,,5f3ba39206b3218cf379659d,62bbfaa05630fa8fcf446888,2022-06-29_19h09.57.374,Colour_Asymmetry_Pilot,2022.1.3,Win32,60.46680372,62bbe60bf3d75ef465d3e404,0,161,161,5,1,threefour,,,,,,,,,,,,,,,,,,,,,,,,,,,,,,,,,,,,,,,,,,,,,,,,,,,,,,,,,,,,,,,,,,,,,,,,,,,,,,,,,,,,,,,,,,,,,,,,,,,,,,,,,,,,,,,,,,,,,,,,,,,,,,,,,,,,,,,,,,,,,,,,,,,,,,,,
,,,,,,5f3ba39206b3218cf379659d,62bbfaa05630fa8fcf446888,2022-06-29_19h09.57.374,Colour_Asymmetry_Pilot,2022.1.3,Win32,60.46680372,62bbe60bf3d75ef465d3e404,,,,,,,space,4.2969,space,9.1047,space,48.2178,space,16.4018,space,1.6456,space,4.2828,"[-0.7412000000000001,-0.08239999999999992,-0.6864]",onethree,"[-0.17659999999999998,0.3253999999999999,0.19999999999999996]",-2,6.8498,-83.33331299,-56.66668701,1,0,0,response5disk_5,-4,-1.333343506,1,0,0,rectangle_8,-4,-1.333343506,1,0,0,4,-4,-1.333343506,1,0,0,0,0,0,0,1,,,,,,,,,,,,,,,,,,,,,,,,,,,,,,,,,,,,,,,,,,,,,,,,,,,,,,,,,,,,,,,,,,,,,,,,,,,,,,,,,,,,,,,,,,,,,,,,,,,,,,,,,,,
,,,,,,5f3ba39206b3218cf379659d,62bbfaa05630fa8fcf446888,2022-06-29_19h09.57.374,Colour_Asymmetry_Pilot,2022.1.3,Win32,60.46680372,62bbe60bf3d75ef465d3e404,,,,,,,,,,,,,,,,,,,"[-0.07459999999999989,0.12139999999999995,-0.9922]",onethree,"[-0.09019999999999995,0.44300000000000006,0.5371999999999999]",-3,4.0654,-75.33331299,28.66665649,1,0,0,response7disk_5,0.666687012,1.333312988,1,0,0,rectangle_8,0.666687012,1.333312988,1,0,0,4,0.666687012,1.333312988,1,0,0,1,0,1,0,1,,,,,,,,,,,,,,,,,,,,,,,,,,,,,,,,,,,,,,,,,,,,,,,,,,,,,,,,,,,,,,,,,,,,,,,,,,,,,,,,,,,,,,,,,,,,,,,,,,,,,,,,,,,
,,,,,,5f3ba39206b3218cf379659d,62bbfaa05630fa8fcf446888,2022-06-29_19h09.57.374,Colour_Asymmetry_Pilot,2022.1.3,Win32,60.46680372,62bbe60bf3d75ef465d3e404,,,,,,,,,,,,,,,,,,,"[0.34099999999999997,0.5841999999999998,-0.9844]",fourtwo,"[-0.30200000000000005,0.14500000000000002,0.2784]",-3,1.3832,-64,34,1,0,0,response7disk_5,-1.333312988,2.666656494,1,0,0,rectangle_8,-1.333312988,2.666656494,1,0,0,4,-1.333312988,2.666656494,1,0,0,2,0,2,0,1,,,,,,,,,,,,,,,,,,,,,,,,,,,,,,,,,,,,,,,,,,,,,,,,,,,,,,,,,,,,,,,,,,,,,,,,,,,,,,,,,,,,,,,,,,,,,,,,,,,,,,,,,,,
,,,,,,5f3ba39206b3218cf379659d,62bbfaa05630fa8fcf446888,2022-06-29_19h09.57.374,Colour_Asymmetry_Pilot,2022.1.3,Win32,60.46680372,62bbe60bf3d75ef465d3e404,,,,,,,,,,,,,,,,,,,"[0.40379999999999994,0.09000000000000008,0.44300000000000006]",twoone,"[0.23920000000000008,0.2704,0.16060000000000008]",-2,2.3008,-52,-32.66668701,1,0,0,response5disk_5,0,-2,1,0,0,rectangle_8,0,-2,1,0,0,4,0,-2,1,0,0,3,0,3,0,1,,,,,,,,,,,,,,,,,,,,,,,,,,,,,,,,,,,,,,,,,,,,,,,,,,,,,,,,,,,,,,,,,,,,,,,,,,,,,,,,,,,,,,,,,,,,,,,,,,,,,,,,,,,
,,,,,,5f3ba39206b3218cf379659d,62bbfaa05630fa8fcf446888,2022-06-29_19h09.57.374,Colour_Asymmetry_Pilot,2022.1.3,Win32,60.46680372,62bbe60bf3d75ef465d3e404,,,,,,,,,,,,,,,,,,,"[0.09799999999999986,-0.24719999999999998,0.15280000000000005]",threefour,"[0.7018,0.7176,0.6155999999999999]",-4,1.6824,-31.33331299,67.33331299,1,0,0,response7disk_5,-11.33331299,6,1,0,0,rectangle_8,-11.33331299,6,1,0,0,4,-11.33331299,6,1,0,0,4,0,4,0,1,,,,,,,,,,,,,,,,,,,,,,,,,,,,,,,,,,,,,,,,,,,,,,,,,,,,,,,,,,,,,,,,,,,,,,,,,,,,,,,,,,,,,,,,,,,,,,,,,,,,,,,,,,,
,,,,,,5f3ba39206b3218cf379659d,62bbfaa05630fa8fcf446888,2022-06-29_19h09.57.374,Colour_Asymmetry_Pilot,2022.1.3,Win32,60.46680372,62bbe60bf3d75ef465d3e404,,,,,,,,,,,,,,,,,,,"[0.9763999999999999,-0.1137999999999999,-0.6314]",onethree,"[-0.4668,-0.8746,-0.2942]",-4,1.0655,-47.33331299,84,1,0,0,response7disk_5,-22.66662598,4,1,0,0,rectangle_8,26.66668701,68.66665649,1,0,0,4,6.666687012,-5.333343506,1,0,0,5,0,5,0,1,response1disk_7,7,rectangle_4,,,,,,,,,,,,,,,,,,,,,,,,,,,,,,,,,,,,,,,,,,,,,,,,,,,,,,,,,,,,,,,,,,,,,,,,,,,,,,,,,,,,,,,,,,,,,,,,,,,,,,,,
,,,,,,5f3ba39206b3218cf379659d,62bbfaa05630fa8fcf446888,2022-06-29_19h09.57.374,Colour_Asymmetry_Pilot,2022.1.3,Win32,60.46680372,62bbe60bf3d75ef465d3e404,,,,,,,,,,,,,,,,,,,"[-0.4902000000000001,0.2704,-0.45899999999999996]",threefour,"[-0.7412000000000001,-0.08239999999999992,-0.6864]",3,2.4663,71.33337402,39.33331299,1,0,0,response1disk_5,-6.666625977,2.666656494,1,0,0,rectangle_8,-6.666625977,2.666656494,1,0,0,4,-6.666625977,2.666656494,1,0,0,6,0,6,0,1,,,,,,,,,,,,,,,,,,,,,,,,,,,,,,,,,,,,,,,,,,,,,,,,,,,,,,,,,,,,,,,,,,,,,,,,,,,,,,,,,,,,,,,,,,,,,,,,,,,,,,,,,,,
,,,,,,5f3ba39206b3218cf379659d,62bbfaa05630fa8fcf446888,2022-06-29_19h09.57.374,Colour_Asymmetry_Pilot,2022.1.3,Win32,60.46680372,62bbe60bf3d75ef465d3e404,,,,,,,,,,,,,,,,,,,,fourtwo,,3,1.3504,,,,,,,,,,,,,,,,,,,,,,,,,,,,,,,,space,2.8087,"[-0.9766,-0.6472,0.07440000000000002]","[-0.6942,-0.7648,-0.12959999999999994]",74.66668701,46.66665649,1,0,0,response1disk,-3.333312988,4.666656494,1,0,0,rectangle,-3.333312988,4.666656494,1,0,0,,2,0.0027,0,-3.333312988,4.666656494,1,0,0,0,0,0,113,1,32,second,,,,,,,,,,,,,,,,,,,,,,,,,,,,,,,,,,,,,,,,,,,,,,,,,,,,,,,,,,,,,,,,,,,
,,,,,,5f3ba39206b3218cf379659d,62bbfaa05630fa8fcf446888,2022-06-29_19h09.57.374,Colour_Asymmetry_Pilot,2022.1.3,Win32,60.46680372,62bbe60bf3d75ef465d3e404,,,,,,,,,,,,,,,,,,,,onetwo,,3,1.1658,,,,,,,,,,,,,,,,,,,,,,,,,,,,,,,,,,"[0.9842,0.7409999999999999,-0.6628000000000001]","[0.34099999999999997,0.5841999999999998,-0.9844]",50.66668701,22,1,0,0,response1disk,-0.666625977,-3.333343506,1,0,0,rectangle,-0.666625977,-3.333343506,1,0,0,,2,0.0003,0,-0.666625977,-3.333343506,1,0,0,0,1,1,60,1,60,first,,,,,,,,,,,,,,,,,,,,,,,,,,,,,,,,,,,,,,,,,,,,,,,,,,,,,,,,,,,,,,,,,,,
,,,,,,5f3ba39206b3218cf379659d,62bbfaa05630fa8fcf446888,2022-06-29_19h09.57.374,Colour_Asymmetry_Pilot,2022.1.3,Win32,60.46680372,62bbe60bf3d75ef465d3e404,,,,,,,,,,,,,,,,,,,,threefour,,-4,1.0663,,,,,,,,,,,,,,,,,,,,,,,,,,,,,,,,,,"[-0.6235999999999999,-0.6786,-0.08239999999999992]","[0.7018,0.7802,-0.16079999999999994]",-28,57.33331299,1,0,0,response7disk,-4.666625977,9.333312988,1,0,0,rectangle,-4.666625977,9.333312988,1,0,0,,2,0.0002,0,-4.666625977,9.333312988,1,0,0,0,2,2,7,1,7,first,,,,,,,,,,,,,,,,,,,,,,,,,,,,,,,,,,,,,,,,,,,,,,,,,,,,,,,,,,,,,,,,,,,
,,,,,,5f3ba39206b3218cf379659d,62bbfaa05630fa8fcf446888,2022-06-29_19h09.57.374,Colour_Asymmetry_Pilot,2022.1.3,Win32,60.46680372,62bbe60bf3d75ef465d3e404,,,,,,,,,,,,,,,,,,,,twofour,,3,0.7991,,,,,,,,,,,,,,,,,,,,,,,,,,,,,,,,,,"[0.23920000000000008,0.2704,0.16060000000000008]","[0.7018,0.7176,0.6155999999999999]",90.66668701,63.33331299,1,0,0,response1disk,-3.333312988,4.666656494,1,0,0,rectangle,-3.333312988,4.666656494,1,0,0,,1,0.0009,0,-3.333312988,4.666656494,1,0,0,0,3,3,56,1,56,first,,,,,,,,,,,,,,,,,,,,,,,,,,,,,,,,,,,,,,,,,,,,,,,,,,,,,,,,,,,,,,,,,,,
,,,,,,5f3ba39206b3218cf379659d,62bbfaa05630fa8fcf446888,2022-06-29_19h09.57.374,Colour_Asymmetry_Pilot,2022.1.3,Win32,60.46680372,62bbe60bf3d75ef465d3e404,,,,,,,,,,,,,,,,,,,,fourtwo,,1,1.9162,,,,,,,,,,,,,,,,,,,,,,,,,,,,,,,,,,"[0.18419999999999992,-0.4276,-0.404]","[0.7646000000000002,0.07440000000000002,0.2704]",34.66668701,-60.66668701,1,0,0,response3disk,2.666687012,1.333312988,1,0,0,rectangle,2.666687012,1.333312988,1,0,0,,3,0.0024,0,2.666687012,1.333312988,1,0,0,0,4,4,2,1,2,first,,,,,,,,,,,,,,,,,,,,,,,,,,,,,,,,,,,,,,,,,,,,,,,,,,,,,,,,,,,,,,,,,,,
,,,,,,5f3ba39206b3218cf379659d,62bbfaa05630fa8fcf446888,2022-06-29_19h09.57.374,Colour_Asymmetry_Pilot,2022.1.3,Win32,60.46680372,62bbe60bf3d75ef465d3e404,,,,,,,,,,,,,,,,,,,,twofour,,1,1.2666,,,,,,,,,,,,,,,,,,,,,,,,,,,,,,,,,,"[0.09799999999999986,-0.24719999999999998,0.15280000000000005]","[0.9372,0.20779999999999998,0.2704]",39.33337402,-60,1,0,0,response3disk,-0.666625977,6,1,0,0,rectangle,-0.666625977,6,1,0,0,,1,0.0027,0,-0.666625977,6,1,0,0,0,5,5,68,1,68,first,,,,,,,,,,,,,,,,,,,,,,,,,,,,,,,,,,,,,,,,,,,,,,,,,,,,,,,,,,,,,,,,,,,
,,,,,,5f3ba39206b3218cf379659d,62bbfaa05630fa8fcf446888,2022-06-29_19h09.57.374,Colour_Asymmetry_Pilot,2022.1.3,Win32,60.46680372,62bbe60bf3d75ef465d3e404,,,,,,,,,,,,,,,,,,,,fourtwo,,-2,2.95,,,,,,,,,,,,,,,,,,,,,,,,,,,,,,,,,,"[-0.17659999999999998,0.3253999999999999,0.19999999999999996]","[-0.9216,-0.5529999999999999,-0.3962]",-78.66662598,-42,1,0,0,response5disk,-13.33331299,-1.333343506,1,0,0,rectangle,-13.33331299,-1.333343506,1,0,0,,2,0.0011,0,-13.33331299,-1.333343506,1,0,0,0,6,6,92,1,11,second,,,,,,,,,,,,,,,,,,,,,,,,,,,,,,,,,,,,,,,,,,,,,,,,,,,,,,,,,,,,,,,,,,,
,,,,,,5f3ba39206b3218cf379659d,62bbfaa05630fa8fcf446888,2022-06-29_19h09.57.374,Colour_Asymmetry_Pilot,2022.1.3,Win32,60.46680372,62bbe60bf3d75ef465d3e404,,,,,,,,,,,,,,,,,,,,fourthree,,-4,0.7999,,,,,,,,,,,,,,,,,,,,,,,,,,,,,,,,,,"[-0.011800000000000033,-0.906,-0.45100000000000007]","[0.04299999999999993,0.16060000000000008,-0.6628000000000001]",-38,68,1,0,0,response7disk,-7.333312988,10,1,0,0,rectangle,-7.333312988,10,1,0,0,,3,0.0027,0,-7.333312988,10,1,0,0,0,7,7,148,1,67,second,,,,,,,,,,,,,,,,,,,,,,,,,,,,,,,,,,,,,,,,,,,,,,,,,,,,,,,,,,,,,,,,,,,
,,,,,,5f3ba39206b3218cf379659d,62bbfaa05630fa8fcf446888,2022-06-29_19h09.57.374,Colour_Asymmetry_Pilot,2022.1.3,Win32,60.46680372,62bbe60bf3d75ef465d3e404,,,,,,,,,,,,,,,,,,,,onethree,,-4,0.7004,,,,,,,,,,,,,,,,,,,,,,,,,,,,,,,,,,"[0.7176,-0.906,-0.6864]","[-0.9296,-0.12959999999999994,-0.043199999999999905]",-36.66662598,58.66665649,1,0,0,response7disk,-5.333312988,3.333312988,1,0,0,rectangle,-5.333312988,3.333312988,1,0,0,,2,0.0021,0,-5.333312988,3.333312988,1,0,0,0,8,8,48,1,48,first,,,,,,,,,,,,,,,,,,,,,,,,,,,,,,,,,,,,,,,,,,,,,,,,,,,,,,,,,,,,,,,,,,,
,,,,,,5f3ba39206b3218cf379659d,62bbfaa05630fa8fcf446888,2022-06-29_19h09.57.374,Colour_Asymmetry_Pilot,2022.1.3,Win32,60.46680372,62bbe60bf3d75ef465d3e404,,,,,,,,,,,,,,,,,,,,threefour,,-4,0.7993,,,,,,,,,,,,,,,,,,,,,,,,,,,,,,,,,,"[-0.9296,-0.12959999999999994,-0.043199999999999905]","[0.34099999999999997,0.5841999999999998,-0.9844]",-37.33331299,48.66665649,1,0,0,response7disk,-12,0,1,0,0,rectangle,-12,0,1,0,0,,2,0.0004,0,-12,0,1,0,0,0,9,9,5,1,5,first,,,,,,,,,,,,,,,,,,,,,,,,,,,,,,,,,,,,,,,,,,,,,,,,,,,,,,,,,,,,,,,,,,,
,,,,,,5f3ba39206b3218cf379659d,62bbfaa05630fa8fcf446888,2022-06-29_19h09.57.374,Colour_Asymmetry_Pilot,2022.1.3,Win32,60.46680372,62bbe60bf3d75ef465d3e404,,,,,,,,,,,,,,,,,,,,twofour,,-3,2.3501,,,,,,,,,,,,,,,,,,,,,,,,,,,,,,,,,,"[-0.10599999999999998,-0.10599999999999998,0.5841999999999998]","[-0.17659999999999998,0.3253999999999999,0.19999999999999996]",-76.66662598,38,1,0,0,response7disk,-16.66662598,7.333312988,1,0,0,rectangle,-16.66662598,7.333312988,1,0,0,,2,0.0004,0,-16.66662598,7.333312988,1,0,0,0,10,10,70,1,70,first,,,,,,,,,,,,,,,,,,,,,,,,,,,,,,,,,,,,,,,,,,,,,,,,,,,,,,,,,,,,,,,,,,,
,,,,,,5f3ba39206b3218cf379659d,62bbfaa05630fa8fcf446888,2022-06-29_19h09.57.374,Colour_Asymmetry_Pilot,2022.1.3,Win32,60.46680372,62bbe60bf3d75ef465d3e404,,,,,,,,,,,,,,,,,,,,fourtwo,,-3,0.8491,,,,,,,,,,,,,,,,,,,,,,,,,,,,,,,,,,"[0.7176,-0.906,-0.6864]","[0.9686000000000001,0.5763999999999998,0.11359999999999992]",-61.33331299,29.33331299,1,0,0,response7disk,-26,0,1,0,0,rectangle,-26,0,1,0,0,,2,0.0002,0,-26,0,1,0,0,0,11,11,45,1,45,first,,,,,,,,,,,,,,,,,,,,,,,,,,,,,,,,,,,,,,,,,,,,,,,,,,,,,,,,,,,,,,,,,,,
,,,,,,5f3ba39206b3218cf379659d,62bbfaa05630fa8fcf446888,2022-06-29_19h09.57.374,Colour_Asymmetry_Pilot,2022.1.3,Win32,60.46680372,62bbe60bf3d75ef465d3e404,,,,,,,,,,,,,,,,,,,,twoone,,-2,2.034,,,,,,,,,,,,,,,,,,,,,,,,,,,,,,,,,,"[-0.17659999999999998,0.3253999999999999,0.19999999999999996]","[-0.10599999999999998,-0.10599999999999998,0.5841999999999998]",-78.66662598,-28,1,0,0,response5disk,3.333374023,-6.666687012,1,0,0,rectangle,3.333374023,-6.666687012,1,0,0,,1,0.0006,0,3.333374023,-6.666687012,1,0,0,0,12,12,151,1,70,second,,,,,,,,,,,,,,,,,,,,,,,,,,,,,,,,,,,,,,,,,,,,,,,,,,,,,,,,,,,,,,,,,,,
,,,,,,5f3ba39206b3218cf379659d,62bbfaa05630fa8fcf446888,2022-06-29_19h09.57.374,Colour_Asymmetry_Pilot,2022.1.3,Win32,60.46680372,62bbe60bf3d75ef465d3e404,,,,,,,,,,,,,,,,,,,,twofour,,3,1.2333,,,,,,,,,,,,,,,,,,,,,,,,,,,,,,,,,,"[-0.45899999999999996,-0.3256,-0.9374]","[-0.2942,-0.24719999999999998,-0.357]",91.33337402,36.66665649,1,0,0,response1disk,12,6,1,0,0,rectangle,12,6,1,0,0,,3,0.0008,0,12,6,1,0,0,0,13,13,108,1,27,second,,,,,,,,,,,,,,,,,,,,,,,,,,,,,,,,,,,,,,,,,,,,,,,,,,,,,,,,,,,,,,,,,,,
,,,,,,5f3ba39206b3218cf379659d,62bbfaa05630fa8fcf446888,2022-06-29_19h09.57.374,Colour_Asymmetry_Pilot,2022.1.3,Win32,60.46680372,62bbe60bf3d75ef465d3e404,,,,,,,,,,,,,,,,,,,,threefour,,1,1.7334,,,,,,,,,,,,,,,,,,,,,,,,,,,,,,,,,,"[-0.4746,-0.0354000000000001,0.5449999999999999]","[-0.20799999999999996,-0.655,-0.01980000000000004]",41.33337402,-62,1,0,0,response3disk,-6,8,1,0,0,rectangle,-6,8,1,0,0,,2,0.0021,0,-6,8,1,0,0,0,14,14,132,1,51,second,,,,,,,,,,,,,,,,,,,,,,,,,,,,,,,,,,,,,,,,,,,,,,,,,,,,,,,,,,,,,,,,,,,
,,,,,,5f3ba39206b3218cf379659d,62bbfaa05630fa8fcf446888,2022-06-29_19h09.57.374,Colour_Asymmetry_Pilot,2022.1.3,Win32,60.46680372,62bbe60bf3d75ef465d3e404,,,,,,,,,,,,,,,,,,,,threefour,,-2,1.9833,,,,,,,,,,,,,,,,,,,,,,,,,,,,,,,,,,"[-0.9216,-0.5529999999999999,-0.3962]","[-0.10599999999999998,-0.10599999999999998,0.5841999999999998]",-81.33331299,-20.66668701,1,0,0,response5disk,-12,-1.333343506,1,0,0,rectangle,-12,-1.333343506,1,0,0,,2,0,0,-12,-1.333343506,1,0,0,0,15,15,93,1,12,second,,,,,,,,,,,,,,,,,,,,,,,,,,,,,,,,,,,,,,,,,,,,,,,,,,,,,,,,,,,,,,,,,,,
,,,,,,5f3ba39206b3218cf379659d,62bbfaa05630fa8fcf446888,2022-06-29_19h09.57.374,Colour_Asymmetry_Pilot,2022.1.3,Win32,60.46680372,62bbe60bf3d75ef465d3e404,,,,,,,,,,,,,,,,,,,,onetwo,,-4,0.7832,,,,,,,,,,,,,,,,,,,,,,,,,,,,,,,,,,"[-0.9216,-0.5529999999999999,-0.3962]","[0.8274000000000001,-0.5844,-0.9452]",-34.66662598,80.66665649,1,0,0,response7disk,2,13.33331299,1,0,0,rectangle,2,13.33331299,1,0,0,,1,0.0031,0,2,13.33331299,1,0,0,0,16,16,135,1,54,second,,,,,,,,,,,,,,,,,,,,,,,,,,,,,,,,,,,,,,,,,,,,,,,,,,,,,,,,,,,,,,,,,,,
,,,,,,5f3ba39206b3218cf379659d,62bbfaa05630fa8fcf446888,2022-06-29_19h09.57.374,Colour_Asymmetry_Pilot,2022.1.3,Win32,60.46680372,62bbe60bf3d75ef465d3e404,,,,,,,,,,,,,,,,,,,,threefour,,-4,0.6504,,,,,,,,,,,,,,,,,,,,,,,,,,,,,,,,,,"[-0.17659999999999998,-0.2864,-0.8354]","[-0.5452,-0.608,0.2470000000000001]",-50.66662598,89.33331299,1,0,0,response7disk,8,2.666656494,1,0,0,rectangle,8,2.666656494,1,0,0,,2,0.0008,0,8,2.666656494,1,0,0,0,17,17,39,1,39,first,,,,,,,,,,,,,,,,,,,,,,,,,,,,,,,,,,,,,,,,,,,,,,,,,,,,,,,,,,,,,,,,,,,
