trials.thisRepN,trials.thisTrialN,trials.thisN,trials.thisIndex,trials.ran,Colourcodes,participant,session,date,expName,psychopyVersion,OS,frameRate,study_id,trials_4.thisRepN,trials_4.thisTrialN,trials_4.thisN,trials_4.thisIndex,trials_4.ran,StimulusPos,key_resp.keys,key_resp.rt,key_resp_2.keys,key_resp_2.rt,key_resp_15.keys,key_resp_15.rt,key_resp_17.keys,key_resp_17.rt,key_resp_9.keys,key_resp_9.rt,key_resp_10.keys,key_resp_10.rt,Circle1_col,Ecc,Circle2_col,similarity,response_time,mouse_5.x,mouse_5.y,mouse_5.leftButton,mouse_5.midButton,mouse_5.rightButton,mouse_5.clicked_name,mouse_10.x,mouse_10.y,mouse_10.leftButton,mouse_10.midButton,mouse_10.rightButton,mouse_10.clicked_name,mouse_7.x,mouse_7.y,mouse_7.leftButton,mouse_7.midButton,mouse_7.rightButton,catchnumberprac,mouse_6.x,mouse_6.y,mouse_6.leftButton,mouse_6.midButton,mouse_6.rightButton,duringprac.thisRepN,duringprac.thisTrialN,duringprac.thisN,duringprac.thisIndex,duringprac.ran,mouse_7.clicked_name,catchprac,mouse_6.clicked_name,key_resp_22.keys,key_resp_22.rt,Circle1_colour,Circle2_colour,mouse.x,mouse.y,mouse.leftButton,mouse.midButton,mouse.rightButton,mouse.clicked_name,mouse_2.x,mouse_2.y,mouse_2.leftButton,mouse_2.midButton,mouse_2.rightButton,mouse_2.clicked_name,mouse_3.x,mouse_3.y,mouse_3.leftButton,mouse_3.midButton,mouse_3.rightButton,catchresponse,catchnumber,response_time_catch,Catch,mouse_11.x,mouse_11.y,mouse_11.leftButton,mouse_11.midButton,mouse_11.rightButton,trials_2.thisRepN,trials_2.thisTrialN,trials_2.thisN,trials_2.thisIndex,trials_2.ran,Colourpair,Temporder,mouse_3.clicked_name,mouse_11.clicked_name,trials_3.thisRepN,trials_3.thisTrialN,trials_3.thisN,trials_3.thisIndex,trials_3.ran,key_resp_instr_Ishi.keys,key_resp_instr_Ishi.rt,Ishi_trial_keyresp.keys,Ishi_trial_keyresp.rt,Ishi_textbox.text,Ishi_loop.thisRepN,Ishi_loop.thisTrialN,Ishi_loop.thisN,Ishi_loop.thisIndex,Ishi_loop.ran,imageaddress,textbox.text,mouse_4.x,mouse_4.y,mouse_4.leftButton,mouse_4.midButton,mouse_4.rightButton,mouse_4.clicked_name,textbox_2.text,mouse_8.x,mouse_8.y,mouse_8.leftButton,mouse_8.midButton,mouse_8.rightButton,mouse_8.clicked_name,textbox_3.text,mouse_9.x,mouse_9.y,mouse_9.leftButton,mouse_9.midButton,mouse_9.rightButton,mouse_9.clicked_name,textbox_4.text,mouse_12.x,mouse_12.y,mouse_12.leftButton,mouse_12.midButton,mouse_12.rightButton,mouse_12.clicked_name,textbox_5.text,mouse_13.x,mouse_13.y,mouse_13.leftButton,mouse_13.midButton,mouse_13.rightButton,mouse_13.clicked_name,textbox_6.text,mouse_14.x,mouse_14.y,mouse_14.leftButton,mouse_14.midButton,mouse_14.rightButton,mouse_14.clicked_name,textbox_7.text,mouse_15.x,mouse_15.y,mouse_15.leftButton,mouse_15.midButton,mouse_15.rightButton,mouse_15.clicked_name
0,0,0,13,1,,5ec2cf4c3542420fa914f4b9,62bbfb536205431a697012c0,2022-06-29_08h12.31.131,Colour_Asymmetry_Pilot,2022.1.3,MacIntel,60.0024001,62bbe60bf3d75ef465d3e404,,,,,,,,,,,,,,,,,,,,,,,,,,,,,,,,,,,,,,,,,,,,,,,,,,,,,,,,,,,,,,,,,,,,,,,,,,,,,,,,,,,,,,,,,,,,,,,,,,,,,,,,,,,,,,,,,,,,,,,,,,,,,,,,,,,,,,,,,,,,,,,,,,,,,,,,,,,,,,
0,1,1,36,1,,5ec2cf4c3542420fa914f4b9,62bbfb536205431a697012c0,2022-06-29_08h12.31.131,Colour_Asymmetry_Pilot,2022.1.3,MacIntel,60.0024001,62bbe60bf3d75ef465d3e404,,,,,,,,,,,,,,,,,,,,,,,,,,,,,,,,,,,,,,,,,,,,,,,,,,,,,,,,,,,,,,,,,,,,,,,,,,,,,,,,,,,,,,,,,,,,,,,,,,,,,,,,,,,,,,,,,,,,,,,,,,,,,,,,,,,,,,,,,,,,,,,,,,,,,,,,,,,,,,
0,2,2,38,1,,5ec2cf4c3542420fa914f4b9,62bbfb536205431a697012c0,2022-06-29_08h12.31.131,Colour_Asymmetry_Pilot,2022.1.3,MacIntel,60.0024001,62bbe60bf3d75ef465d3e404,,,,,,,,,,,,,,,,,,,,,,,,,,,,,,,,,,,,,,,,,,,,,,,,,,,,,,,,,,,,,,,,,,,,,,,,,,,,,,,,,,,,,,,,,,,,,,,,,,,,,,,,,,,,,,,,,,,,,,,,,,,,,,,,,,,,,,,,,,,,,,,,,,,,,,,,,,,,,,
0,3,3,64,1,,5ec2cf4c3542420fa914f4b9,62bbfb536205431a697012c0,2022-06-29_08h12.31.131,Colour_Asymmetry_Pilot,2022.1.3,MacIntel,60.0024001,62bbe60bf3d75ef465d3e404,,,,,,,,,,,,,,,,,,,,,,,,,,,,,,,,,,,,,,,,,,,,,,,,,,,,,,,,,,,,,,,,,,,,,,,,,,,,,,,,,,,,,,,,,,,,,,,,,,,,,,,,,,,,,,,,,,,,,,,,,,,,,,,,,,,,,,,,,,,,,,,,,,,,,,,,,,,,,,
0,4,4,41,1,,5ec2cf4c3542420fa914f4b9,62bbfb536205431a697012c0,2022-06-29_08h12.31.131,Colour_Asymmetry_Pilot,2022.1.3,MacIntel,60.0024001,62bbe60bf3d75ef465d3e404,,,,,,,,,,,,,,,,,,,,,,,,,,,,,,,,,,,,,,,,,,,,,,,,,,,,,,,,,,,,,,,,,,,,,,,,,,,,,,,,,,,,,,,,,,,,,,,,,,,,,,,,,,,,,,,,,,,,,,,,,,,,,,,,,,,,,,,,,,,,,,,,,,,,,,,,,,,,,,
0,5,5,60,1,,5ec2cf4c3542420fa914f4b9,62bbfb536205431a697012c0,2022-06-29_08h12.31.131,Colour_Asymmetry_Pilot,2022.1.3,MacIntel,60.0024001,62bbe60bf3d75ef465d3e404,,,,,,,,,,,,,,,,,,,,,,,,,,,,,,,,,,,,,,,,,,,,,,,,,,,,,,,,,,,,,,,,,,,,,,,,,,,,,,,,,,,,,,,,,,,,,,,,,,,,,,,,,,,,,,,,,,,,,,,,,,,,,,,,,,,,,,,,,,,,,,,,,,,,,,,,,,,,,,
0,6,6,3,1,,5ec2cf4c3542420fa914f4b9,62bbfb536205431a697012c0,2022-06-29_08h12.31.131,Colour_Asymmetry_Pilot,2022.1.3,MacIntel,60.0024001,62bbe60bf3d75ef465d3e404,,,,,,,,,,,,,,,,,,,,,,,,,,,,,,,,,,,,,,,,,,,,,,,,,,,,,,,,,,,,,,,,,,,,,,,,,,,,,,,,,,,,,,,,,,,,,,,,,,,,,,,,,,,,,,,,,,,,,,,,,,,,,,,,,,,,,,,,,,,,,,,,,,,,,,,,,,,,,,
0,7,7,16,1,,5ec2cf4c3542420fa914f4b9,62bbfb536205431a697012c0,2022-06-29_08h12.31.131,Colour_Asymmetry_Pilot,2022.1.3,MacIntel,60.0024001,62bbe60bf3d75ef465d3e404,,,,,,,,,,,,,,,,,,,,,,,,,,,,,,,,,,,,,,,,,,,,,,,,,,,,,,,,,,,,,,,,,,,,,,,,,,,,,,,,,,,,,,,,,,,,,,,,,,,,,,,,,,,,,,,,,,,,,,,,,,,,,,,,,,,,,,,,,,,,,,,,,,,,,,,,,,,,,,
0,8,8,44,1,,5ec2cf4c3542420fa914f4b9,62bbfb536205431a697012c0,2022-06-29_08h12.31.131,Colour_Asymmetry_Pilot,2022.1.3,MacIntel,60.0024001,62bbe60bf3d75ef465d3e404,,,,,,,,,,,,,,,,,,,,,,,,,,,,,,,,,,,,,,,,,,,,,,,,,,,,,,,,,,,,,,,,,,,,,,,,,,,,,,,,,,,,,,,,,,,,,,,,,,,,,,,,,,,,,,,,,,,,,,,,,,,,,,,,,,,,,,,,,,,,,,,,,,,,,,,,,,,,,,
0,9,9,54,1,,5ec2cf4c3542420fa914f4b9,62bbfb536205431a697012c0,2022-06-29_08h12.31.131,Colour_Asymmetry_Pilot,2022.1.3,MacIntel,60.0024001,62bbe60bf3d75ef465d3e404,,,,,,,,,,,,,,,,,,,,,,,,,,,,,,,,,,,,,,,,,,,,,,,,,,,,,,,,,,,,,,,,,,,,,,,,,,,,,,,,,,,,,,,,,,,,,,,,,,,,,,,,,,,,,,,,,,,,,,,,,,,,,,,,,,,,,,,,,,,,,,,,,,,,,,,,,,,,,,
0,10,10,61,1,,5ec2cf4c3542420fa914f4b9,62bbfb536205431a697012c0,2022-06-29_08h12.31.131,Colour_Asymmetry_Pilot,2022.1.3,MacIntel,60.0024001,62bbe60bf3d75ef465d3e404,,,,,,,,,,,,,,,,,,,,,,,,,,,,,,,,,,,,,,,,,,,,,,,,,,,,,,,,,,,,,,,,,,,,,,,,,,,,,,,,,,,,,,,,,,,,,,,,,,,,,,,,,,,,,,,,,,,,,,,,,,,,,,,,,,,,,,,,,,,,,,,,,,,,,,,,,,,,,,
0,11,11,46,1,,5ec2cf4c3542420fa914f4b9,62bbfb536205431a697012c0,2022-06-29_08h12.31.131,Colour_Asymmetry_Pilot,2022.1.3,MacIntel,60.0024001,62bbe60bf3d75ef465d3e404,,,,,,,,,,,,,,,,,,,,,,,,,,,,,,,,,,,,,,,,,,,,,,,,,,,,,,,,,,,,,,,,,,,,,,,,,,,,,,,,,,,,,,,,,,,,,,,,,,,,,,,,,,,,,,,,,,,,,,,,,,,,,,,,,,,,,,,,,,,,,,,,,,,,,,,,,,,,,,
0,12,12,81,1,,5ec2cf4c3542420fa914f4b9,62bbfb536205431a697012c0,2022-06-29_08h12.31.131,Colour_Asymmetry_Pilot,2022.1.3,MacIntel,60.0024001,62bbe60bf3d75ef465d3e404,,,,,,,,,,,,,,,,,,,,,,,,,,,,,,,,,,,,,,,,,,,,,,,,,,,,,,,,,,,,,,,,,,,,,,,,,,,,,,,,,,,,,,,,,,,,,,,,,,,,,,,,,,,,,,,,,,,,,,,,,,,,,,,,,,,,,,,,,,,,,,,,,,,,,,,,,,,,,,
0,13,13,37,1,,5ec2cf4c3542420fa914f4b9,62bbfb536205431a697012c0,2022-06-29_08h12.31.131,Colour_Asymmetry_Pilot,2022.1.3,MacIntel,60.0024001,62bbe60bf3d75ef465d3e404,,,,,,,,,,,,,,,,,,,,,,,,,,,,,,,,,,,,,,,,,,,,,,,,,,,,,,,,,,,,,,,,,,,,,,,,,,,,,,,,,,,,,,,,,,,,,,,,,,,,,,,,,,,,,,,,,,,,,,,,,,,,,,,,,,,,,,,,,,,,,,,,,,,,,,,,,,,,,,
0,14,14,77,1,,5ec2cf4c3542420fa914f4b9,62bbfb536205431a697012c0,2022-06-29_08h12.31.131,Colour_Asymmetry_Pilot,2022.1.3,MacIntel,60.0024001,62bbe60bf3d75ef465d3e404,,,,,,,,,,,,,,,,,,,,,,,,,,,,,,,,,,,,,,,,,,,,,,,,,,,,,,,,,,,,,,,,,,,,,,,,,,,,,,,,,,,,,,,,,,,,,,,,,,,,,,,,,,,,,,,,,,,,,,,,,,,,,,,,,,,,,,,,,,,,,,,,,,,,,,,,,,,,,,
0,15,15,29,1,,5ec2cf4c3542420fa914f4b9,62bbfb536205431a697012c0,2022-06-29_08h12.31.131,Colour_Asymmetry_Pilot,2022.1.3,MacIntel,60.0024001,62bbe60bf3d75ef465d3e404,,,,,,,,,,,,,,,,,,,,,,,,,,,,,,,,,,,,,,,,,,,,,,,,,,,,,,,,,,,,,,,,,,,,,,,,,,,,,,,,,,,,,,,,,,,,,,,,,,,,,,,,,,,,,,,,,,,,,,,,,,,,,,,,,,,,,,,,,,,,,,,,,,,,,,,,,,,,,,
0,16,16,82,1,,5ec2cf4c3542420fa914f4b9,62bbfb536205431a697012c0,2022-06-29_08h12.31.131,Colour_Asymmetry_Pilot,2022.1.3,MacIntel,60.0024001,62bbe60bf3d75ef465d3e404,,,,,,,,,,,,,,,,,,,,,,,,,,,,,,,,,,,,,,,,,,,,,,,,,,,,,,,,,,,,,,,,,,,,,,,,,,,,,,,,,,,,,,,,,,,,,,,,,,,,,,,,,,,,,,,,,,,,,,,,,,,,,,,,,,,,,,,,,,,,,,,,,,,,,,,,,,,,,,
0,17,17,40,1,,5ec2cf4c3542420fa914f4b9,62bbfb536205431a697012c0,2022-06-29_08h12.31.131,Colour_Asymmetry_Pilot,2022.1.3,MacIntel,60.0024001,62bbe60bf3d75ef465d3e404,,,,,,,,,,,,,,,,,,,,,,,,,,,,,,,,,,,,,,,,,,,,,,,,,,,,,,,,,,,,,,,,,,,,,,,,,,,,,,,,,,,,,,,,,,,,,,,,,,,,,,,,,,,,,,,,,,,,,,,,,,,,,,,,,,,,,,,,,,,,,,,,,,,,,,,,,,,,,,
0,18,18,31,1,,5ec2cf4c3542420fa914f4b9,62bbfb536205431a697012c0,2022-06-29_08h12.31.131,Colour_Asymmetry_Pilot,2022.1.3,MacIntel,60.0024001,62bbe60bf3d75ef465d3e404,,,,,,,,,,,,,,,,,,,,,,,,,,,,,,,,,,,,,,,,,,,,,,,,,,,,,,,,,,,,,,,,,,,,,,,,,,,,,,,,,,,,,,,,,,,,,,,,,,,,,,,,,,,,,,,,,,,,,,,,,,,,,,,,,,,,,,,,,,,,,,,,,,,,,,,,,,,,,,
0,19,19,47,1,,5ec2cf4c3542420fa914f4b9,62bbfb536205431a697012c0,2022-06-29_08h12.31.131,Colour_Asymmetry_Pilot,2022.1.3,MacIntel,60.0024001,62bbe60bf3d75ef465d3e404,,,,,,,,,,,,,,,,,,,,,,,,,,,,,,,,,,,,,,,,,,,,,,,,,,,,,,,,,,,,,,,,,,,,,,,,,,,,,,,,,,,,,,,,,,,,,,,,,,,,,,,,,,,,,,,,,,,,,,,,,,,,,,,,,,,,,,,,,,,,,,,,,,,,,,,,,,,,,,
0,20,20,11,1,,5ec2cf4c3542420fa914f4b9,62bbfb536205431a697012c0,2022-06-29_08h12.31.131,Colour_Asymmetry_Pilot,2022.1.3,MacIntel,60.0024001,62bbe60bf3d75ef465d3e404,,,,,,,,,,,,,,,,,,,,,,,,,,,,,,,,,,,,,,,,,,,,,,,,,,,,,,,,,,,,,,,,,,,,,,,,,,,,,,,,,,,,,,,,,,,,,,,,,,,,,,,,,,,,,,,,,,,,,,,,,,,,,,,,,,,,,,,,,,,,,,,,,,,,,,,,,,,,,,
0,21,21,8,1,,5ec2cf4c3542420fa914f4b9,62bbfb536205431a697012c0,2022-06-29_08h12.31.131,Colour_Asymmetry_Pilot,2022.1.3,MacIntel,60.0024001,62bbe60bf3d75ef465d3e404,,,,,,,,,,,,,,,,,,,,,,,,,,,,,,,,,,,,,,,,,,,,,,,,,,,,,,,,,,,,,,,,,,,,,,,,,,,,,,,,,,,,,,,,,,,,,,,,,,,,,,,,,,,,,,,,,,,,,,,,,,,,,,,,,,,,,,,,,,,,,,,,,,,,,,,,,,,,,,
0,22,22,71,1,,5ec2cf4c3542420fa914f4b9,62bbfb536205431a697012c0,2022-06-29_08h12.31.131,Colour_Asymmetry_Pilot,2022.1.3,MacIntel,60.0024001,62bbe60bf3d75ef465d3e404,,,,,,,,,,,,,,,,,,,,,,,,,,,,,,,,,,,,,,,,,,,,,,,,,,,,,,,,,,,,,,,,,,,,,,,,,,,,,,,,,,,,,,,,,,,,,,,,,,,,,,,,,,,,,,,,,,,,,,,,,,,,,,,,,,,,,,,,,,,,,,,,,,,,,,,,,,,,,,
0,23,23,80,1,,5ec2cf4c3542420fa914f4b9,62bbfb536205431a697012c0,2022-06-29_08h12.31.131,Colour_Asymmetry_Pilot,2022.1.3,MacIntel,60.0024001,62bbe60bf3d75ef465d3e404,,,,,,,,,,,,,,,,,,,,,,,,,,,,,,,,,,,,,,,,,,,,,,,,,,,,,,,,,,,,,,,,,,,,,,,,,,,,,,,,,,,,,,,,,,,,,,,,,,,,,,,,,,,,,,,,,,,,,,,,,,,,,,,,,,,,,,,,,,,,,,,,,,,,,,,,,,,,,,
0,24,24,88,1,,5ec2cf4c3542420fa914f4b9,62bbfb536205431a697012c0,2022-06-29_08h12.31.131,Colour_Asymmetry_Pilot,2022.1.3,MacIntel,60.0024001,62bbe60bf3d75ef465d3e404,,,,,,,,,,,,,,,,,,,,,,,,,,,,,,,,,,,,,,,,,,,,,,,,,,,,,,,,,,,,,,,,,,,,,,,,,,,,,,,,,,,,,,,,,,,,,,,,,,,,,,,,,,,,,,,,,,,,,,,,,,,,,,,,,,,,,,,,,,,,,,,,,,,,,,,,,,,,,,
0,25,25,76,1,,5ec2cf4c3542420fa914f4b9,62bbfb536205431a697012c0,2022-06-29_08h12.31.131,Colour_Asymmetry_Pilot,2022.1.3,MacIntel,60.0024001,62bbe60bf3d75ef465d3e404,,,,,,,,,,,,,,,,,,,,,,,,,,,,,,,,,,,,,,,,,,,,,,,,,,,,,,,,,,,,,,,,,,,,,,,,,,,,,,,,,,,,,,,,,,,,,,,,,,,,,,,,,,,,,,,,,,,,,,,,,,,,,,,,,,,,,,,,,,,,,,,,,,,,,,,,,,,,,,
0,26,26,68,1,,5ec2cf4c3542420fa914f4b9,62bbfb536205431a697012c0,2022-06-29_08h12.31.131,Colour_Asymmetry_Pilot,2022.1.3,MacIntel,60.0024001,62bbe60bf3d75ef465d3e404,,,,,,,,,,,,,,,,,,,,,,,,,,,,,,,,,,,,,,,,,,,,,,,,,,,,,,,,,,,,,,,,,,,,,,,,,,,,,,,,,,,,,,,,,,,,,,,,,,,,,,,,,,,,,,,,,,,,,,,,,,,,,,,,,,,,,,,,,,,,,,,,,,,,,,,,,,,,,,
0,27,27,23,1,,5ec2cf4c3542420fa914f4b9,62bbfb536205431a697012c0,2022-06-29_08h12.31.131,Colour_Asymmetry_Pilot,2022.1.3,MacIntel,60.0024001,62bbe60bf3d75ef465d3e404,,,,,,,,,,,,,,,,,,,,,,,,,,,,,,,,,,,,,,,,,,,,,,,,,,,,,,,,,,,,,,,,,,,,,,,,,,,,,,,,,,,,,,,,,,,,,,,,,,,,,,,,,,,,,,,,,,,,,,,,,,,,,,,,,,,,,,,,,,,,,,,,,,,,,,,,,,,,,,
0,28,28,89,1,,5ec2cf4c3542420fa914f4b9,62bbfb536205431a697012c0,2022-06-29_08h12.31.131,Colour_Asymmetry_Pilot,2022.1.3,MacIntel,60.0024001,62bbe60bf3d75ef465d3e404,,,,,,,,,,,,,,,,,,,,,,,,,,,,,,,,,,,,,,,,,,,,,,,,,,,,,,,,,,,,,,,,,,,,,,,,,,,,,,,,,,,,,,,,,,,,,,,,,,,,,,,,,,,,,,,,,,,,,,,,,,,,,,,,,,,,,,,,,,,,,,,,,,,,,,,,,,,,,,
0,29,29,91,1,,5ec2cf4c3542420fa914f4b9,62bbfb536205431a697012c0,2022-06-29_08h12.31.131,Colour_Asymmetry_Pilot,2022.1.3,MacIntel,60.0024001,62bbe60bf3d75ef465d3e404,,,,,,,,,,,,,,,,,,,,,,,,,,,,,,,,,,,,,,,,,,,,,,,,,,,,,,,,,,,,,,,,,,,,,,,,,,,,,,,,,,,,,,,,,,,,,,,,,,,,,,,,,,,,,,,,,,,,,,,,,,,,,,,,,,,,,,,,,,,,,,,,,,,,,,,,,,,,,,
0,30,30,53,1,,5ec2cf4c3542420fa914f4b9,62bbfb536205431a697012c0,2022-06-29_08h12.31.131,Colour_Asymmetry_Pilot,2022.1.3,MacIntel,60.0024001,62bbe60bf3d75ef465d3e404,,,,,,,,,,,,,,,,,,,,,,,,,,,,,,,,,,,,,,,,,,,,,,,,,,,,,,,,,,,,,,,,,,,,,,,,,,,,,,,,,,,,,,,,,,,,,,,,,,,,,,,,,,,,,,,,,,,,,,,,,,,,,,,,,,,,,,,,,,,,,,,,,,,,,,,,,,,,,,
0,31,31,25,1,,5ec2cf4c3542420fa914f4b9,62bbfb536205431a697012c0,2022-06-29_08h12.31.131,Colour_Asymmetry_Pilot,2022.1.3,MacIntel,60.0024001,62bbe60bf3d75ef465d3e404,,,,,,,,,,,,,,,,,,,,,,,,,,,,,,,,,,,,,,,,,,,,,,,,,,,,,,,,,,,,,,,,,,,,,,,,,,,,,,,,,,,,,,,,,,,,,,,,,,,,,,,,,,,,,,,,,,,,,,,,,,,,,,,,,,,,,,,,,,,,,,,,,,,,,,,,,,,,,,
0,32,32,43,1,,5ec2cf4c3542420fa914f4b9,62bbfb536205431a697012c0,2022-06-29_08h12.31.131,Colour_Asymmetry_Pilot,2022.1.3,MacIntel,60.0024001,62bbe60bf3d75ef465d3e404,,,,,,,,,,,,,,,,,,,,,,,,,,,,,,,,,,,,,,,,,,,,,,,,,,,,,,,,,,,,,,,,,,,,,,,,,,,,,,,,,,,,,,,,,,,,,,,,,,,,,,,,,,,,,,,,,,,,,,,,,,,,,,,,,,,,,,,,,,,,,,,,,,,,,,,,,,,,,,
0,33,33,21,1,,5ec2cf4c3542420fa914f4b9,62bbfb536205431a697012c0,2022-06-29_08h12.31.131,Colour_Asymmetry_Pilot,2022.1.3,MacIntel,60.0024001,62bbe60bf3d75ef465d3e404,,,,,,,,,,,,,,,,,,,,,,,,,,,,,,,,,,,,,,,,,,,,,,,,,,,,,,,,,,,,,,,,,,,,,,,,,,,,,,,,,,,,,,,,,,,,,,,,,,,,,,,,,,,,,,,,,,,,,,,,,,,,,,,,,,,,,,,,,,,,,,,,,,,,,,,,,,,,,,
0,34,34,63,1,,5ec2cf4c3542420fa914f4b9,62bbfb536205431a697012c0,2022-06-29_08h12.31.131,Colour_Asymmetry_Pilot,2022.1.3,MacIntel,60.0024001,62bbe60bf3d75ef465d3e404,,,,,,,,,,,,,,,,,,,,,,,,,,,,,,,,,,,,,,,,,,,,,,,,,,,,,,,,,,,,,,,,,,,,,,,,,,,,,,,,,,,,,,,,,,,,,,,,,,,,,,,,,,,,,,,,,,,,,,,,,,,,,,,,,,,,,,,,,,,,,,,,,,,,,,,,,,,,,,
0,35,35,7,1,,5ec2cf4c3542420fa914f4b9,62bbfb536205431a697012c0,2022-06-29_08h12.31.131,Colour_Asymmetry_Pilot,2022.1.3,MacIntel,60.0024001,62bbe60bf3d75ef465d3e404,,,,,,,,,,,,,,,,,,,,,,,,,,,,,,,,,,,,,,,,,,,,,,,,,,,,,,,,,,,,,,,,,,,,,,,,,,,,,,,,,,,,,,,,,,,,,,,,,,,,,,,,,,,,,,,,,,,,,,,,,,,,,,,,,,,,,,,,,,,,,,,,,,,,,,,,,,,,,,
0,36,36,19,1,,5ec2cf4c3542420fa914f4b9,62bbfb536205431a697012c0,2022-06-29_08h12.31.131,Colour_Asymmetry_Pilot,2022.1.3,MacIntel,60.0024001,62bbe60bf3d75ef465d3e404,,,,,,,,,,,,,,,,,,,,,,,,,,,,,,,,,,,,,,,,,,,,,,,,,,,,,,,,,,,,,,,,,,,,,,,,,,,,,,,,,,,,,,,,,,,,,,,,,,,,,,,,,,,,,,,,,,,,,,,,,,,,,,,,,,,,,,,,,,,,,,,,,,,,,,,,,,,,,,
0,37,37,72,1,,5ec2cf4c3542420fa914f4b9,62bbfb536205431a697012c0,2022-06-29_08h12.31.131,Colour_Asymmetry_Pilot,2022.1.3,MacIntel,60.0024001,62bbe60bf3d75ef465d3e404,,,,,,,,,,,,,,,,,,,,,,,,,,,,,,,,,,,,,,,,,,,,,,,,,,,,,,,,,,,,,,,,,,,,,,,,,,,,,,,,,,,,,,,,,,,,,,,,,,,,,,,,,,,,,,,,,,,,,,,,,,,,,,,,,,,,,,,,,,,,,,,,,,,,,,,,,,,,,,
0,38,38,45,1,,5ec2cf4c3542420fa914f4b9,62bbfb536205431a697012c0,2022-06-29_08h12.31.131,Colour_Asymmetry_Pilot,2022.1.3,MacIntel,60.0024001,62bbe60bf3d75ef465d3e404,,,,,,,,,,,,,,,,,,,,,,,,,,,,,,,,,,,,,,,,,,,,,,,,,,,,,,,,,,,,,,,,,,,,,,,,,,,,,,,,,,,,,,,,,,,,,,,,,,,,,,,,,,,,,,,,,,,,,,,,,,,,,,,,,,,,,,,,,,,,,,,,,,,,,,,,,,,,,,
0,39,39,27,1,,5ec2cf4c3542420fa914f4b9,62bbfb536205431a697012c0,2022-06-29_08h12.31.131,Colour_Asymmetry_Pilot,2022.1.3,MacIntel,60.0024001,62bbe60bf3d75ef465d3e404,,,,,,,,,,,,,,,,,,,,,,,,,,,,,,,,,,,,,,,,,,,,,,,,,,,,,,,,,,,,,,,,,,,,,,,,,,,,,,,,,,,,,,,,,,,,,,,,,,,,,,,,,,,,,,,,,,,,,,,,,,,,,,,,,,,,,,,,,,,,,,,,,,,,,,,,,,,,,,
0,40,40,14,1,,5ec2cf4c3542420fa914f4b9,62bbfb536205431a697012c0,2022-06-29_08h12.31.131,Colour_Asymmetry_Pilot,2022.1.3,MacIntel,60.0024001,62bbe60bf3d75ef465d3e404,,,,,,,,,,,,,,,,,,,,,,,,,,,,,,,,,,,,,,,,,,,,,,,,,,,,,,,,,,,,,,,,,,,,,,,,,,,,,,,,,,,,,,,,,,,,,,,,,,,,,,,,,,,,,,,,,,,,,,,,,,,,,,,,,,,,,,,,,,,,,,,,,,,,,,,,,,,,,,
0,41,41,1,1,,5ec2cf4c3542420fa914f4b9,62bbfb536205431a697012c0,2022-06-29_08h12.31.131,Colour_Asymmetry_Pilot,2022.1.3,MacIntel,60.0024001,62bbe60bf3d75ef465d3e404,,,,,,,,,,,,,,,,,,,,,,,,,,,,,,,,,,,,,,,,,,,,,,,,,,,,,,,,,,,,,,,,,,,,,,,,,,,,,,,,,,,,,,,,,,,,,,,,,,,,,,,,,,,,,,,,,,,,,,,,,,,,,,,,,,,,,,,,,,,,,,,,,,,,,,,,,,,,,,
0,42,42,58,1,,5ec2cf4c3542420fa914f4b9,62bbfb536205431a697012c0,2022-06-29_08h12.31.131,Colour_Asymmetry_Pilot,2022.1.3,MacIntel,60.0024001,62bbe60bf3d75ef465d3e404,,,,,,,,,,,,,,,,,,,,,,,,,,,,,,,,,,,,,,,,,,,,,,,,,,,,,,,,,,,,,,,,,,,,,,,,,,,,,,,,,,,,,,,,,,,,,,,,,,,,,,,,,,,,,,,,,,,,,,,,,,,,,,,,,,,,,,,,,,,,,,,,,,,,,,,,,,,,,,
0,43,43,4,1,,5ec2cf4c3542420fa914f4b9,62bbfb536205431a697012c0,2022-06-29_08h12.31.131,Colour_Asymmetry_Pilot,2022.1.3,MacIntel,60.0024001,62bbe60bf3d75ef465d3e404,,,,,,,,,,,,,,,,,,,,,,,,,,,,,,,,,,,,,,,,,,,,,,,,,,,,,,,,,,,,,,,,,,,,,,,,,,,,,,,,,,,,,,,,,,,,,,,,,,,,,,,,,,,,,,,,,,,,,,,,,,,,,,,,,,,,,,,,,,,,,,,,,,,,,,,,,,,,,,
0,44,44,12,1,,5ec2cf4c3542420fa914f4b9,62bbfb536205431a697012c0,2022-06-29_08h12.31.131,Colour_Asymmetry_Pilot,2022.1.3,MacIntel,60.0024001,62bbe60bf3d75ef465d3e404,,,,,,,,,,,,,,,,,,,,,,,,,,,,,,,,,,,,,,,,,,,,,,,,,,,,,,,,,,,,,,,,,,,,,,,,,,,,,,,,,,,,,,,,,,,,,,,,,,,,,,,,,,,,,,,,,,,,,,,,,,,,,,,,,,,,,,,,,,,,,,,,,,,,,,,,,,,,,,
0,45,45,30,1,,5ec2cf4c3542420fa914f4b9,62bbfb536205431a697012c0,2022-06-29_08h12.31.131,Colour_Asymmetry_Pilot,2022.1.3,MacIntel,60.0024001,62bbe60bf3d75ef465d3e404,,,,,,,,,,,,,,,,,,,,,,,,,,,,,,,,,,,,,,,,,,,,,,,,,,,,,,,,,,,,,,,,,,,,,,,,,,,,,,,,,,,,,,,,,,,,,,,,,,,,,,,,,,,,,,,,,,,,,,,,,,,,,,,,,,,,,,,,,,,,,,,,,,,,,,,,,,,,,,
0,46,46,84,1,,5ec2cf4c3542420fa914f4b9,62bbfb536205431a697012c0,2022-06-29_08h12.31.131,Colour_Asymmetry_Pilot,2022.1.3,MacIntel,60.0024001,62bbe60bf3d75ef465d3e404,,,,,,,,,,,,,,,,,,,,,,,,,,,,,,,,,,,,,,,,,,,,,,,,,,,,,,,,,,,,,,,,,,,,,,,,,,,,,,,,,,,,,,,,,,,,,,,,,,,,,,,,,,,,,,,,,,,,,,,,,,,,,,,,,,,,,,,,,,,,,,,,,,,,,,,,,,,,,,
0,47,47,73,1,,5ec2cf4c3542420fa914f4b9,62bbfb536205431a697012c0,2022-06-29_08h12.31.131,Colour_Asymmetry_Pilot,2022.1.3,MacIntel,60.0024001,62bbe60bf3d75ef465d3e404,,,,,,,,,,,,,,,,,,,,,,,,,,,,,,,,,,,,,,,,,,,,,,,,,,,,,,,,,,,,,,,,,,,,,,,,,,,,,,,,,,,,,,,,,,,,,,,,,,,,,,,,,,,,,,,,,,,,,,,,,,,,,,,,,,,,,,,,,,,,,,,,,,,,,,,,,,,,,,
0,48,48,66,1,,5ec2cf4c3542420fa914f4b9,62bbfb536205431a697012c0,2022-06-29_08h12.31.131,Colour_Asymmetry_Pilot,2022.1.3,MacIntel,60.0024001,62bbe60bf3d75ef465d3e404,,,,,,,,,,,,,,,,,,,,,,,,,,,,,,,,,,,,,,,,,,,,,,,,,,,,,,,,,,,,,,,,,,,,,,,,,,,,,,,,,,,,,,,,,,,,,,,,,,,,,,,,,,,,,,,,,,,,,,,,,,,,,,,,,,,,,,,,,,,,,,,,,,,,,,,,,,,,,,
0,49,49,33,1,,5ec2cf4c3542420fa914f4b9,62bbfb536205431a697012c0,2022-06-29_08h12.31.131,Colour_Asymmetry_Pilot,2022.1.3,MacIntel,60.0024001,62bbe60bf3d75ef465d3e404,,,,,,,,,,,,,,,,,,,,,,,,,,,,,,,,,,,,,,,,,,,,,,,,,,,,,,,,,,,,,,,,,,,,,,,,,,,,,,,,,,,,,,,,,,,,,,,,,,,,,,,,,,,,,,,,,,,,,,,,,,,,,,,,,,,,,,,,,,,,,,,,,,,,,,,,,,,,,,
0,50,50,10,1,,5ec2cf4c3542420fa914f4b9,62bbfb536205431a697012c0,2022-06-29_08h12.31.131,Colour_Asymmetry_Pilot,2022.1.3,MacIntel,60.0024001,62bbe60bf3d75ef465d3e404,,,,,,,,,,,,,,,,,,,,,,,,,,,,,,,,,,,,,,,,,,,,,,,,,,,,,,,,,,,,,,,,,,,,,,,,,,,,,,,,,,,,,,,,,,,,,,,,,,,,,,,,,,,,,,,,,,,,,,,,,,,,,,,,,,,,,,,,,,,,,,,,,,,,,,,,,,,,,,
0,51,51,34,1,,5ec2cf4c3542420fa914f4b9,62bbfb536205431a697012c0,2022-06-29_08h12.31.131,Colour_Asymmetry_Pilot,2022.1.3,MacIntel,60.0024001,62bbe60bf3d75ef465d3e404,,,,,,,,,,,,,,,,,,,,,,,,,,,,,,,,,,,,,,,,,,,,,,,,,,,,,,,,,,,,,,,,,,,,,,,,,,,,,,,,,,,,,,,,,,,,,,,,,,,,,,,,,,,,,,,,,,,,,,,,,,,,,,,,,,,,,,,,,,,,,,,,,,,,,,,,,,,,,,
0,52,52,35,1,,5ec2cf4c3542420fa914f4b9,62bbfb536205431a697012c0,2022-06-29_08h12.31.131,Colour_Asymmetry_Pilot,2022.1.3,MacIntel,60.0024001,62bbe60bf3d75ef465d3e404,,,,,,,,,,,,,,,,,,,,,,,,,,,,,,,,,,,,,,,,,,,,,,,,,,,,,,,,,,,,,,,,,,,,,,,,,,,,,,,,,,,,,,,,,,,,,,,,,,,,,,,,,,,,,,,,,,,,,,,,,,,,,,,,,,,,,,,,,,,,,,,,,,,,,,,,,,,,,,
0,53,53,20,1,,5ec2cf4c3542420fa914f4b9,62bbfb536205431a697012c0,2022-06-29_08h12.31.131,Colour_Asymmetry_Pilot,2022.1.3,MacIntel,60.0024001,62bbe60bf3d75ef465d3e404,,,,,,,,,,,,,,,,,,,,,,,,,,,,,,,,,,,,,,,,,,,,,,,,,,,,,,,,,,,,,,,,,,,,,,,,,,,,,,,,,,,,,,,,,,,,,,,,,,,,,,,,,,,,,,,,,,,,,,,,,,,,,,,,,,,,,,,,,,,,,,,,,,,,,,,,,,,,,,
0,54,54,70,1,,5ec2cf4c3542420fa914f4b9,62bbfb536205431a697012c0,2022-06-29_08h12.31.131,Colour_Asymmetry_Pilot,2022.1.3,MacIntel,60.0024001,62bbe60bf3d75ef465d3e404,,,,,,,,,,,,,,,,,,,,,,,,,,,,,,,,,,,,,,,,,,,,,,,,,,,,,,,,,,,,,,,,,,,,,,,,,,,,,,,,,,,,,,,,,,,,,,,,,,,,,,,,,,,,,,,,,,,,,,,,,,,,,,,,,,,,,,,,,,,,,,,,,,,,,,,,,,,,,,
0,55,55,86,1,,5ec2cf4c3542420fa914f4b9,62bbfb536205431a697012c0,2022-06-29_08h12.31.131,Colour_Asymmetry_Pilot,2022.1.3,MacIntel,60.0024001,62bbe60bf3d75ef465d3e404,,,,,,,,,,,,,,,,,,,,,,,,,,,,,,,,,,,,,,,,,,,,,,,,,,,,,,,,,,,,,,,,,,,,,,,,,,,,,,,,,,,,,,,,,,,,,,,,,,,,,,,,,,,,,,,,,,,,,,,,,,,,,,,,,,,,,,,,,,,,,,,,,,,,,,,,,,,,,,
0,56,56,6,1,,5ec2cf4c3542420fa914f4b9,62bbfb536205431a697012c0,2022-06-29_08h12.31.131,Colour_Asymmetry_Pilot,2022.1.3,MacIntel,60.0024001,62bbe60bf3d75ef465d3e404,,,,,,,,,,,,,,,,,,,,,,,,,,,,,,,,,,,,,,,,,,,,,,,,,,,,,,,,,,,,,,,,,,,,,,,,,,,,,,,,,,,,,,,,,,,,,,,,,,,,,,,,,,,,,,,,,,,,,,,,,,,,,,,,,,,,,,,,,,,,,,,,,,,,,,,,,,,,,,
0,57,57,83,1,,5ec2cf4c3542420fa914f4b9,62bbfb536205431a697012c0,2022-06-29_08h12.31.131,Colour_Asymmetry_Pilot,2022.1.3,MacIntel,60.0024001,62bbe60bf3d75ef465d3e404,,,,,,,,,,,,,,,,,,,,,,,,,,,,,,,,,,,,,,,,,,,,,,,,,,,,,,,,,,,,,,,,,,,,,,,,,,,,,,,,,,,,,,,,,,,,,,,,,,,,,,,,,,,,,,,,,,,,,,,,,,,,,,,,,,,,,,,,,,,,,,,,,,,,,,,,,,,,,,
0,58,58,52,1,,5ec2cf4c3542420fa914f4b9,62bbfb536205431a697012c0,2022-06-29_08h12.31.131,Colour_Asymmetry_Pilot,2022.1.3,MacIntel,60.0024001,62bbe60bf3d75ef465d3e404,,,,,,,,,,,,,,,,,,,,,,,,,,,,,,,,,,,,,,,,,,,,,,,,,,,,,,,,,,,,,,,,,,,,,,,,,,,,,,,,,,,,,,,,,,,,,,,,,,,,,,,,,,,,,,,,,,,,,,,,,,,,,,,,,,,,,,,,,,,,,,,,,,,,,,,,,,,,,,
0,59,59,59,1,,5ec2cf4c3542420fa914f4b9,62bbfb536205431a697012c0,2022-06-29_08h12.31.131,Colour_Asymmetry_Pilot,2022.1.3,MacIntel,60.0024001,62bbe60bf3d75ef465d3e404,,,,,,,,,,,,,,,,,,,,,,,,,,,,,,,,,,,,,,,,,,,,,,,,,,,,,,,,,,,,,,,,,,,,,,,,,,,,,,,,,,,,,,,,,,,,,,,,,,,,,,,,,,,,,,,,,,,,,,,,,,,,,,,,,,,,,,,,,,,,,,,,,,,,,,,,,,,,,,
0,60,60,85,1,,5ec2cf4c3542420fa914f4b9,62bbfb536205431a697012c0,2022-06-29_08h12.31.131,Colour_Asymmetry_Pilot,2022.1.3,MacIntel,60.0024001,62bbe60bf3d75ef465d3e404,,,,,,,,,,,,,,,,,,,,,,,,,,,,,,,,,,,,,,,,,,,,,,,,,,,,,,,,,,,,,,,,,,,,,,,,,,,,,,,,,,,,,,,,,,,,,,,,,,,,,,,,,,,,,,,,,,,,,,,,,,,,,,,,,,,,,,,,,,,,,,,,,,,,,,,,,,,,,,
0,61,61,42,1,,5ec2cf4c3542420fa914f4b9,62bbfb536205431a697012c0,2022-06-29_08h12.31.131,Colour_Asymmetry_Pilot,2022.1.3,MacIntel,60.0024001,62bbe60bf3d75ef465d3e404,,,,,,,,,,,,,,,,,,,,,,,,,,,,,,,,,,,,,,,,,,,,,,,,,,,,,,,,,,,,,,,,,,,,,,,,,,,,,,,,,,,,,,,,,,,,,,,,,,,,,,,,,,,,,,,,,,,,,,,,,,,,,,,,,,,,,,,,,,,,,,,,,,,,,,,,,,,,,,
0,62,62,90,1,,5ec2cf4c3542420fa914f4b9,62bbfb536205431a697012c0,2022-06-29_08h12.31.131,Colour_Asymmetry_Pilot,2022.1.3,MacIntel,60.0024001,62bbe60bf3d75ef465d3e404,,,,,,,,,,,,,,,,,,,,,,,,,,,,,,,,,,,,,,,,,,,,,,,,,,,,,,,,,,,,,,,,,,,,,,,,,,,,,,,,,,,,,,,,,,,,,,,,,,,,,,,,,,,,,,,,,,,,,,,,,,,,,,,,,,,,,,,,,,,,,,,,,,,,,,,,,,,,,,
0,63,63,26,1,,5ec2cf4c3542420fa914f4b9,62bbfb536205431a697012c0,2022-06-29_08h12.31.131,Colour_Asymmetry_Pilot,2022.1.3,MacIntel,60.0024001,62bbe60bf3d75ef465d3e404,,,,,,,,,,,,,,,,,,,,,,,,,,,,,,,,,,,,,,,,,,,,,,,,,,,,,,,,,,,,,,,,,,,,,,,,,,,,,,,,,,,,,,,,,,,,,,,,,,,,,,,,,,,,,,,,,,,,,,,,,,,,,,,,,,,,,,,,,,,,,,,,,,,,,,,,,,,,,,
0,64,64,32,1,,5ec2cf4c3542420fa914f4b9,62bbfb536205431a697012c0,2022-06-29_08h12.31.131,Colour_Asymmetry_Pilot,2022.1.3,MacIntel,60.0024001,62bbe60bf3d75ef465d3e404,,,,,,,,,,,,,,,,,,,,,,,,,,,,,,,,,,,,,,,,,,,,,,,,,,,,,,,,,,,,,,,,,,,,,,,,,,,,,,,,,,,,,,,,,,,,,,,,,,,,,,,,,,,,,,,,,,,,,,,,,,,,,,,,,,,,,,,,,,,,,,,,,,,,,,,,,,,,,,
0,65,65,24,1,,5ec2cf4c3542420fa914f4b9,62bbfb536205431a697012c0,2022-06-29_08h12.31.131,Colour_Asymmetry_Pilot,2022.1.3,MacIntel,60.0024001,62bbe60bf3d75ef465d3e404,,,,,,,,,,,,,,,,,,,,,,,,,,,,,,,,,,,,,,,,,,,,,,,,,,,,,,,,,,,,,,,,,,,,,,,,,,,,,,,,,,,,,,,,,,,,,,,,,,,,,,,,,,,,,,,,,,,,,,,,,,,,,,,,,,,,,,,,,,,,,,,,,,,,,,,,,,,,,,
0,66,66,79,1,,5ec2cf4c3542420fa914f4b9,62bbfb536205431a697012c0,2022-06-29_08h12.31.131,Colour_Asymmetry_Pilot,2022.1.3,MacIntel,60.0024001,62bbe60bf3d75ef465d3e404,,,,,,,,,,,,,,,,,,,,,,,,,,,,,,,,,,,,,,,,,,,,,,,,,,,,,,,,,,,,,,,,,,,,,,,,,,,,,,,,,,,,,,,,,,,,,,,,,,,,,,,,,,,,,,,,,,,,,,,,,,,,,,,,,,,,,,,,,,,,,,,,,,,,,,,,,,,,,,
0,67,67,0,1,,5ec2cf4c3542420fa914f4b9,62bbfb536205431a697012c0,2022-06-29_08h12.31.131,Colour_Asymmetry_Pilot,2022.1.3,MacIntel,60.0024001,62bbe60bf3d75ef465d3e404,,,,,,,,,,,,,,,,,,,,,,,,,,,,,,,,,,,,,,,,,,,,,,,,,,,,,,,,,,,,,,,,,,,,,,,,,,,,,,,,,,,,,,,,,,,,,,,,,,,,,,,,,,,,,,,,,,,,,,,,,,,,,,,,,,,,,,,,,,,,,,,,,,,,,,,,,,,,,,
0,68,68,78,1,,5ec2cf4c3542420fa914f4b9,62bbfb536205431a697012c0,2022-06-29_08h12.31.131,Colour_Asymmetry_Pilot,2022.1.3,MacIntel,60.0024001,62bbe60bf3d75ef465d3e404,,,,,,,,,,,,,,,,,,,,,,,,,,,,,,,,,,,,,,,,,,,,,,,,,,,,,,,,,,,,,,,,,,,,,,,,,,,,,,,,,,,,,,,,,,,,,,,,,,,,,,,,,,,,,,,,,,,,,,,,,,,,,,,,,,,,,,,,,,,,,,,,,,,,,,,,,,,,,,
0,69,69,17,1,,5ec2cf4c3542420fa914f4b9,62bbfb536205431a697012c0,2022-06-29_08h12.31.131,Colour_Asymmetry_Pilot,2022.1.3,MacIntel,60.0024001,62bbe60bf3d75ef465d3e404,,,,,,,,,,,,,,,,,,,,,,,,,,,,,,,,,,,,,,,,,,,,,,,,,,,,,,,,,,,,,,,,,,,,,,,,,,,,,,,,,,,,,,,,,,,,,,,,,,,,,,,,,,,,,,,,,,,,,,,,,,,,,,,,,,,,,,,,,,,,,,,,,,,,,,,,,,,,,,
0,70,70,65,1,,5ec2cf4c3542420fa914f4b9,62bbfb536205431a697012c0,2022-06-29_08h12.31.131,Colour_Asymmetry_Pilot,2022.1.3,MacIntel,60.0024001,62bbe60bf3d75ef465d3e404,,,,,,,,,,,,,,,,,,,,,,,,,,,,,,,,,,,,,,,,,,,,,,,,,,,,,,,,,,,,,,,,,,,,,,,,,,,,,,,,,,,,,,,,,,,,,,,,,,,,,,,,,,,,,,,,,,,,,,,,,,,,,,,,,,,,,,,,,,,,,,,,,,,,,,,,,,,,,,
0,71,71,92,1,,5ec2cf4c3542420fa914f4b9,62bbfb536205431a697012c0,2022-06-29_08h12.31.131,Colour_Asymmetry_Pilot,2022.1.3,MacIntel,60.0024001,62bbe60bf3d75ef465d3e404,,,,,,,,,,,,,,,,,,,,,,,,,,,,,,,,,,,,,,,,,,,,,,,,,,,,,,,,,,,,,,,,,,,,,,,,,,,,,,,,,,,,,,,,,,,,,,,,,,,,,,,,,,,,,,,,,,,,,,,,,,,,,,,,,,,,,,,,,,,,,,,,,,,,,,,,,,,,,,
0,72,72,50,1,,5ec2cf4c3542420fa914f4b9,62bbfb536205431a697012c0,2022-06-29_08h12.31.131,Colour_Asymmetry_Pilot,2022.1.3,MacIntel,60.0024001,62bbe60bf3d75ef465d3e404,,,,,,,,,,,,,,,,,,,,,,,,,,,,,,,,,,,,,,,,,,,,,,,,,,,,,,,,,,,,,,,,,,,,,,,,,,,,,,,,,,,,,,,,,,,,,,,,,,,,,,,,,,,,,,,,,,,,,,,,,,,,,,,,,,,,,,,,,,,,,,,,,,,,,,,,,,,,,,
0,73,73,56,1,,5ec2cf4c3542420fa914f4b9,62bbfb536205431a697012c0,2022-06-29_08h12.31.131,Colour_Asymmetry_Pilot,2022.1.3,MacIntel,60.0024001,62bbe60bf3d75ef465d3e404,,,,,,,,,,,,,,,,,,,,,,,,,,,,,,,,,,,,,,,,,,,,,,,,,,,,,,,,,,,,,,,,,,,,,,,,,,,,,,,,,,,,,,,,,,,,,,,,,,,,,,,,,,,,,,,,,,,,,,,,,,,,,,,,,,,,,,,,,,,,,,,,,,,,,,,,,,,,,,
0,74,74,39,1,,5ec2cf4c3542420fa914f4b9,62bbfb536205431a697012c0,2022-06-29_08h12.31.131,Colour_Asymmetry_Pilot,2022.1.3,MacIntel,60.0024001,62bbe60bf3d75ef465d3e404,,,,,,,,,,,,,,,,,,,,,,,,,,,,,,,,,,,,,,,,,,,,,,,,,,,,,,,,,,,,,,,,,,,,,,,,,,,,,,,,,,,,,,,,,,,,,,,,,,,,,,,,,,,,,,,,,,,,,,,,,,,,,,,,,,,,,,,,,,,,,,,,,,,,,,,,,,,,,,
0,75,75,48,1,,5ec2cf4c3542420fa914f4b9,62bbfb536205431a697012c0,2022-06-29_08h12.31.131,Colour_Asymmetry_Pilot,2022.1.3,MacIntel,60.0024001,62bbe60bf3d75ef465d3e404,,,,,,,,,,,,,,,,,,,,,,,,,,,,,,,,,,,,,,,,,,,,,,,,,,,,,,,,,,,,,,,,,,,,,,,,,,,,,,,,,,,,,,,,,,,,,,,,,,,,,,,,,,,,,,,,,,,,,,,,,,,,,,,,,,,,,,,,,,,,,,,,,,,,,,,,,,,,,,
0,76,76,51,1,,5ec2cf4c3542420fa914f4b9,62bbfb536205431a697012c0,2022-06-29_08h12.31.131,Colour_Asymmetry_Pilot,2022.1.3,MacIntel,60.0024001,62bbe60bf3d75ef465d3e404,,,,,,,,,,,,,,,,,,,,,,,,,,,,,,,,,,,,,,,,,,,,,,,,,,,,,,,,,,,,,,,,,,,,,,,,,,,,,,,,,,,,,,,,,,,,,,,,,,,,,,,,,,,,,,,,,,,,,,,,,,,,,,,,,,,,,,,,,,,,,,,,,,,,,,,,,,,,,,
0,77,77,75,1,,5ec2cf4c3542420fa914f4b9,62bbfb536205431a697012c0,2022-06-29_08h12.31.131,Colour_Asymmetry_Pilot,2022.1.3,MacIntel,60.0024001,62bbe60bf3d75ef465d3e404,,,,,,,,,,,,,,,,,,,,,,,,,,,,,,,,,,,,,,,,,,,,,,,,,,,,,,,,,,,,,,,,,,,,,,,,,,,,,,,,,,,,,,,,,,,,,,,,,,,,,,,,,,,,,,,,,,,,,,,,,,,,,,,,,,,,,,,,,,,,,,,,,,,,,,,,,,,,,,
0,78,78,28,1,,5ec2cf4c3542420fa914f4b9,62bbfb536205431a697012c0,2022-06-29_08h12.31.131,Colour_Asymmetry_Pilot,2022.1.3,MacIntel,60.0024001,62bbe60bf3d75ef465d3e404,,,,,,,,,,,,,,,,,,,,,,,,,,,,,,,,,,,,,,,,,,,,,,,,,,,,,,,,,,,,,,,,,,,,,,,,,,,,,,,,,,,,,,,,,,,,,,,,,,,,,,,,,,,,,,,,,,,,,,,,,,,,,,,,,,,,,,,,,,,,,,,,,,,,,,,,,,,,,,
0,79,79,2,1,,5ec2cf4c3542420fa914f4b9,62bbfb536205431a697012c0,2022-06-29_08h12.31.131,Colour_Asymmetry_Pilot,2022.1.3,MacIntel,60.0024001,62bbe60bf3d75ef465d3e404,,,,,,,,,,,,,,,,,,,,,,,,,,,,,,,,,,,,,,,,,,,,,,,,,,,,,,,,,,,,,,,,,,,,,,,,,,,,,,,,,,,,,,,,,,,,,,,,,,,,,,,,,,,,,,,,,,,,,,,,,,,,,,,,,,,,,,,,,,,,,,,,,,,,,,,,,,,,,,
0,80,80,22,1,,5ec2cf4c3542420fa914f4b9,62bbfb536205431a697012c0,2022-06-29_08h12.31.131,Colour_Asymmetry_Pilot,2022.1.3,MacIntel,60.0024001,62bbe60bf3d75ef465d3e404,,,,,,,,,,,,,,,,,,,,,,,,,,,,,,,,,,,,,,,,,,,,,,,,,,,,,,,,,,,,,,,,,,,,,,,,,,,,,,,,,,,,,,,,,,,,,,,,,,,,,,,,,,,,,,,,,,,,,,,,,,,,,,,,,,,,,,,,,,,,,,,,,,,,,,,,,,,,,,
0,81,81,15,1,,5ec2cf4c3542420fa914f4b9,62bbfb536205431a697012c0,2022-06-29_08h12.31.131,Colour_Asymmetry_Pilot,2022.1.3,MacIntel,60.0024001,62bbe60bf3d75ef465d3e404,,,,,,,,,,,,,,,,,,,,,,,,,,,,,,,,,,,,,,,,,,,,,,,,,,,,,,,,,,,,,,,,,,,,,,,,,,,,,,,,,,,,,,,,,,,,,,,,,,,,,,,,,,,,,,,,,,,,,,,,,,,,,,,,,,,,,,,,,,,,,,,,,,,,,,,,,,,,,,
0,82,82,69,1,,5ec2cf4c3542420fa914f4b9,62bbfb536205431a697012c0,2022-06-29_08h12.31.131,Colour_Asymmetry_Pilot,2022.1.3,MacIntel,60.0024001,62bbe60bf3d75ef465d3e404,,,,,,,,,,,,,,,,,,,,,,,,,,,,,,,,,,,,,,,,,,,,,,,,,,,,,,,,,,,,,,,,,,,,,,,,,,,,,,,,,,,,,,,,,,,,,,,,,,,,,,,,,,,,,,,,,,,,,,,,,,,,,,,,,,,,,,,,,,,,,,,,,,,,,,,,,,,,,,
0,83,83,49,1,,5ec2cf4c3542420fa914f4b9,62bbfb536205431a697012c0,2022-06-29_08h12.31.131,Colour_Asymmetry_Pilot,2022.1.3,MacIntel,60.0024001,62bbe60bf3d75ef465d3e404,,,,,,,,,,,,,,,,,,,,,,,,,,,,,,,,,,,,,,,,,,,,,,,,,,,,,,,,,,,,,,,,,,,,,,,,,,,,,,,,,,,,,,,,,,,,,,,,,,,,,,,,,,,,,,,,,,,,,,,,,,,,,,,,,,,,,,,,,,,,,,,,,,,,,,,,,,,,,,
0,84,84,62,1,,5ec2cf4c3542420fa914f4b9,62bbfb536205431a697012c0,2022-06-29_08h12.31.131,Colour_Asymmetry_Pilot,2022.1.3,MacIntel,60.0024001,62bbe60bf3d75ef465d3e404,,,,,,,,,,,,,,,,,,,,,,,,,,,,,,,,,,,,,,,,,,,,,,,,,,,,,,,,,,,,,,,,,,,,,,,,,,,,,,,,,,,,,,,,,,,,,,,,,,,,,,,,,,,,,,,,,,,,,,,,,,,,,,,,,,,,,,,,,,,,,,,,,,,,,,,,,,,,,,
0,85,85,55,1,,5ec2cf4c3542420fa914f4b9,62bbfb536205431a697012c0,2022-06-29_08h12.31.131,Colour_Asymmetry_Pilot,2022.1.3,MacIntel,60.0024001,62bbe60bf3d75ef465d3e404,,,,,,,,,,,,,,,,,,,,,,,,,,,,,,,,,,,,,,,,,,,,,,,,,,,,,,,,,,,,,,,,,,,,,,,,,,,,,,,,,,,,,,,,,,,,,,,,,,,,,,,,,,,,,,,,,,,,,,,,,,,,,,,,,,,,,,,,,,,,,,,,,,,,,,,,,,,,,,
0,86,86,67,1,,5ec2cf4c3542420fa914f4b9,62bbfb536205431a697012c0,2022-06-29_08h12.31.131,Colour_Asymmetry_Pilot,2022.1.3,MacIntel,60.0024001,62bbe60bf3d75ef465d3e404,,,,,,,,,,,,,,,,,,,,,,,,,,,,,,,,,,,,,,,,,,,,,,,,,,,,,,,,,,,,,,,,,,,,,,,,,,,,,,,,,,,,,,,,,,,,,,,,,,,,,,,,,,,,,,,,,,,,,,,,,,,,,,,,,,,,,,,,,,,,,,,,,,,,,,,,,,,,,,
0,87,87,57,1,,5ec2cf4c3542420fa914f4b9,62bbfb536205431a697012c0,2022-06-29_08h12.31.131,Colour_Asymmetry_Pilot,2022.1.3,MacIntel,60.0024001,62bbe60bf3d75ef465d3e404,,,,,,,,,,,,,,,,,,,,,,,,,,,,,,,,,,,,,,,,,,,,,,,,,,,,,,,,,,,,,,,,,,,,,,,,,,,,,,,,,,,,,,,,,,,,,,,,,,,,,,,,,,,,,,,,,,,,,,,,,,,,,,,,,,,,,,,,,,,,,,,,,,,,,,,,,,,,,,
0,88,88,74,1,,5ec2cf4c3542420fa914f4b9,62bbfb536205431a697012c0,2022-06-29_08h12.31.131,Colour_Asymmetry_Pilot,2022.1.3,MacIntel,60.0024001,62bbe60bf3d75ef465d3e404,,,,,,,,,,,,,,,,,,,,,,,,,,,,,,,,,,,,,,,,,,,,,,,,,,,,,,,,,,,,,,,,,,,,,,,,,,,,,,,,,,,,,,,,,,,,,,,,,,,,,,,,,,,,,,,,,,,,,,,,,,,,,,,,,,,,,,,,,,,,,,,,,,,,,,,,,,,,,,
0,89,89,87,1,,5ec2cf4c3542420fa914f4b9,62bbfb536205431a697012c0,2022-06-29_08h12.31.131,Colour_Asymmetry_Pilot,2022.1.3,MacIntel,60.0024001,62bbe60bf3d75ef465d3e404,,,,,,,,,,,,,,,,,,,,,,,,,,,,,,,,,,,,,,,,,,,,,,,,,,,,,,,,,,,,,,,,,,,,,,,,,,,,,,,,,,,,,,,,,,,,,,,,,,,,,,,,,,,,,,,,,,,,,,,,,,,,,,,,,,,,,,,,,,,,,,,,,,,,,,,,,,,,,,
0,90,90,9,1,,5ec2cf4c3542420fa914f4b9,62bbfb536205431a697012c0,2022-06-29_08h12.31.131,Colour_Asymmetry_Pilot,2022.1.3,MacIntel,60.0024001,62bbe60bf3d75ef465d3e404,,,,,,,,,,,,,,,,,,,,,,,,,,,,,,,,,,,,,,,,,,,,,,,,,,,,,,,,,,,,,,,,,,,,,,,,,,,,,,,,,,,,,,,,,,,,,,,,,,,,,,,,,,,,,,,,,,,,,,,,,,,,,,,,,,,,,,,,,,,,,,,,,,,,,,,,,,,,,,
0,91,91,5,1,,5ec2cf4c3542420fa914f4b9,62bbfb536205431a697012c0,2022-06-29_08h12.31.131,Colour_Asymmetry_Pilot,2022.1.3,MacIntel,60.0024001,62bbe60bf3d75ef465d3e404,,,,,,,,,,,,,,,,,,,,,,,,,,,,,,,,,,,,,,,,,,,,,,,,,,,,,,,,,,,,,,,,,,,,,,,,,,,,,,,,,,,,,,,,,,,,,,,,,,,,,,,,,,,,,,,,,,,,,,,,,,,,,,,,,,,,,,,,,,,,,,,,,,,,,,,,,,,,,,
0,92,92,18,1,,5ec2cf4c3542420fa914f4b9,62bbfb536205431a697012c0,2022-06-29_08h12.31.131,Colour_Asymmetry_Pilot,2022.1.3,MacIntel,60.0024001,62bbe60bf3d75ef465d3e404,,,,,,,,,,,,,,,,,,,,,,,,,,,,,,,,,,,,,,,,,,,,,,,,,,,,,,,,,,,,,,,,,,,,,,,,,,,,,,,,,,,,,,,,,,,,,,,,,,,,,,,,,,,,,,,,,,,,,,,,,,,,,,,,,,,,,,,,,,,,,,,,,,,,,,,,,,,,,,
,,,,,,5ec2cf4c3542420fa914f4b9,62bbfb536205431a697012c0,2022-06-29_08h12.31.131,Colour_Asymmetry_Pilot,2022.1.3,MacIntel,60.0024001,62bbe60bf3d75ef465d3e404,0,0,0,156,1,threeone,,,,,,,,,,,,,,,,,,,,,,,,,,,,,,,,,,,,,,,,,,,,,,,,,,,,,,,,,,,,,,,,,,,,,,,,,,,,,,,,,,,,,,,,,,,,,,,,,,,,,,,,,,,,,,,,,,,,,,,,,,,,,,,,,,,,,,,,,,,,,,,,,,,,,,,,
,,,,,,5ec2cf4c3542420fa914f4b9,62bbfb536205431a697012c0,2022-06-29_08h12.31.131,Colour_Asymmetry_Pilot,2022.1.3,MacIntel,60.0024001,62bbe60bf3d75ef465d3e404,0,1,1,34,1,twoone,,,,,,,,,,,,,,,,,,,,,,,,,,,,,,,,,,,,,,,,,,,,,,,,,,,,,,,,,,,,,,,,,,,,,,,,,,,,,,,,,,,,,,,,,,,,,,,,,,,,,,,,,,,,,,,,,,,,,,,,,,,,,,,,,,,,,,,,,,,,,,,,,,,,,,,,
,,,,,,5ec2cf4c3542420fa914f4b9,62bbfb536205431a697012c0,2022-06-29_08h12.31.131,Colour_Asymmetry_Pilot,2022.1.3,MacIntel,60.0024001,62bbe60bf3d75ef465d3e404,0,2,2,42,1,twoone,,,,,,,,,,,,,,,,,,,,,,,,,,,,,,,,,,,,,,,,,,,,,,,,,,,,,,,,,,,,,,,,,,,,,,,,,,,,,,,,,,,,,,,,,,,,,,,,,,,,,,,,,,,,,,,,,,,,,,,,,,,,,,,,,,,,,,,,,,,,,,,,,,,,,,,,
,,,,,,5ec2cf4c3542420fa914f4b9,62bbfb536205431a697012c0,2022-06-29_08h12.31.131,Colour_Asymmetry_Pilot,2022.1.3,MacIntel,60.0024001,62bbe60bf3d75ef465d3e404,0,3,3,137,1,onethree,,,,,,,,,,,,,,,,,,,,,,,,,,,,,,,,,,,,,,,,,,,,,,,,,,,,,,,,,,,,,,,,,,,,,,,,,,,,,,,,,,,,,,,,,,,,,,,,,,,,,,,,,,,,,,,,,,,,,,,,,,,,,,,,,,,,,,,,,,,,,,,,,,,,,,,,
,,,,,,5ec2cf4c3542420fa914f4b9,62bbfb536205431a697012c0,2022-06-29_08h12.31.131,Colour_Asymmetry_Pilot,2022.1.3,MacIntel,60.0024001,62bbe60bf3d75ef465d3e404,0,4,4,3,1,twofour,,,,,,,,,,,,,,,,,,,,,,,,,,,,,,,,,,,,,,,,,,,,,,,,,,,,,,,,,,,,,,,,,,,,,,,,,,,,,,,,,,,,,,,,,,,,,,,,,,,,,,,,,,,,,,,,,,,,,,,,,,,,,,,,,,,,,,,,,,,,,,,,,,,,,,,,
,,,,,,5ec2cf4c3542420fa914f4b9,62bbfb536205431a697012c0,2022-06-29_08h12.31.131,Colour_Asymmetry_Pilot,2022.1.3,MacIntel,60.0024001,62bbe60bf3d75ef465d3e404,0,5,5,28,1,threeone,,,,,,,,,,,,,,,,,,,,,,,,,,,,,,,,,,,,,,,,,,,,,,,,,,,,,,,,,,,,,,,,,,,,,,,,,,,,,,,,,,,,,,,,,,,,,,,,,,,,,,,,,,,,,,,,,,,,,,,,,,,,,,,,,,,,,,,,,,,,,,,,,,,,,,,,
,,,,,,5ec2cf4c3542420fa914f4b9,62bbfb536205431a697012c0,2022-06-29_08h12.31.131,Colour_Asymmetry_Pilot,2022.1.3,MacIntel,60.0024001,62bbe60bf3d75ef465d3e404,0,6,6,140,1,threeone,,,,,,,,,,,,,,,,,,,,,,,,,,,,,,,,,,,,,,,,,,,,,,,,,,,,,,,,,,,,,,,,,,,,,,,,,,,,,,,,,,,,,,,,,,,,,,,,,,,,,,,,,,,,,,,,,,,,,,,,,,,,,,,,,,,,,,,,,,,,,,,,,,,,,,,,
,,,,,,5ec2cf4c3542420fa914f4b9,62bbfb536205431a697012c0,2022-06-29_08h12.31.131,Colour_Asymmetry_Pilot,2022.1.3,MacIntel,60.0024001,62bbe60bf3d75ef465d3e404,0,7,7,98,1,twoone,,,,,,,,,,,,,,,,,,,,,,,,,,,,,,,,,,,,,,,,,,,,,,,,,,,,,,,,,,,,,,,,,,,,,,,,,,,,,,,,,,,,,,,,,,,,,,,,,,,,,,,,,,,,,,,,,,,,,,,,,,,,,,,,,,,,,,,,,,,,,,,,,,,,,,,,
,,,,,,5ec2cf4c3542420fa914f4b9,62bbfb536205431a697012c0,2022-06-29_08h12.31.131,Colour_Asymmetry_Pilot,2022.1.3,MacIntel,60.0024001,62bbe60bf3d75ef465d3e404,0,8,8,133,1,threefour,,,,,,,,,,,,,,,,,,,,,,,,,,,,,,,,,,,,,,,,,,,,,,,,,,,,,,,,,,,,,,,,,,,,,,,,,,,,,,,,,,,,,,,,,,,,,,,,,,,,,,,,,,,,,,,,,,,,,,,,,,,,,,,,,,,,,,,,,,,,,,,,,,,,,,,,
,,,,,,5ec2cf4c3542420fa914f4b9,62bbfb536205431a697012c0,2022-06-29_08h12.31.131,Colour_Asymmetry_Pilot,2022.1.3,MacIntel,60.0024001,62bbe60bf3d75ef465d3e404,0,9,9,135,1,fourthree,,,,,,,,,,,,,,,,,,,,,,,,,,,,,,,,,,,,,,,,,,,,,,,,,,,,,,,,,,,,,,,,,,,,,,,,,,,,,,,,,,,,,,,,,,,,,,,,,,,,,,,,,,,,,,,,,,,,,,,,,,,,,,,,,,,,,,,,,,,,,,,,,,,,,,,,
,,,,,,5ec2cf4c3542420fa914f4b9,62bbfb536205431a697012c0,2022-06-29_08h12.31.131,Colour_Asymmetry_Pilot,2022.1.3,MacIntel,60.0024001,62bbe60bf3d75ef465d3e404,0,10,10,58,1,twoone,,,,,,,,,,,,,,,,,,,,,,,,,,,,,,,,,,,,,,,,,,,,,,,,,,,,,,,,,,,,,,,,,,,,,,,,,,,,,,,,,,,,,,,,,,,,,,,,,,,,,,,,,,,,,,,,,,,,,,,,,,,,,,,,,,,,,,,,,,,,,,,,,,,,,,,,
,,,,,,5ec2cf4c3542420fa914f4b9,62bbfb536205431a697012c0,2022-06-29_08h12.31.131,Colour_Asymmetry_Pilot,2022.1.3,MacIntel,60.0024001,62bbe60bf3d75ef465d3e404,0,11,11,86,1,fourtwo,,,,,,,,,,,,,,,,,,,,,,,,,,,,,,,,,,,,,,,,,,,,,,,,,,,,,,,,,,,,,,,,,,,,,,,,,,,,,,,,,,,,,,,,,,,,,,,,,,,,,,,,,,,,,,,,,,,,,,,,,,,,,,,,,,,,,,,,,,,,,,,,,,,,,,,,
,,,,,,5ec2cf4c3542420fa914f4b9,62bbfb536205431a697012c0,2022-06-29_08h12.31.131,Colour_Asymmetry_Pilot,2022.1.3,MacIntel,60.0024001,62bbe60bf3d75ef465d3e404,0,12,12,78,1,fourtwo,,,,,,,,,,,,,,,,,,,,,,,,,,,,,,,,,,,,,,,,,,,,,,,,,,,,,,,,,,,,,,,,,,,,,,,,,,,,,,,,,,,,,,,,,,,,,,,,,,,,,,,,,,,,,,,,,,,,,,,,,,,,,,,,,,,,,,,,,,,,,,,,,,,,,,,,
,,,,,,5ec2cf4c3542420fa914f4b9,62bbfb536205431a697012c0,2022-06-29_08h12.31.131,Colour_Asymmetry_Pilot,2022.1.3,MacIntel,60.0024001,62bbe60bf3d75ef465d3e404,0,13,13,35,1,twofour,,,,,,,,,,,,,,,,,,,,,,,,,,,,,,,,,,,,,,,,,,,,,,,,,,,,,,,,,,,,,,,,,,,,,,,,,,,,,,,,,,,,,,,,,,,,,,,,,,,,,,,,,,,,,,,,,,,,,,,,,,,,,,,,,,,,,,,,,,,,,,,,,,,,,,,,
,,,,,,5ec2cf4c3542420fa914f4b9,62bbfb536205431a697012c0,2022-06-29_08h12.31.131,Colour_Asymmetry_Pilot,2022.1.3,MacIntel,60.0024001,62bbe60bf3d75ef465d3e404,0,14,14,15,1,fourthree,,,,,,,,,,,,,,,,,,,,,,,,,,,,,,,,,,,,,,,,,,,,,,,,,,,,,,,,,,,,,,,,,,,,,,,,,,,,,,,,,,,,,,,,,,,,,,,,,,,,,,,,,,,,,,,,,,,,,,,,,,,,,,,,,,,,,,,,,,,,,,,,,,,,,,,,
,,,,,,5ec2cf4c3542420fa914f4b9,62bbfb536205431a697012c0,2022-06-29_08h12.31.131,Colour_Asymmetry_Pilot,2022.1.3,MacIntel,60.0024001,62bbe60bf3d75ef465d3e404,0,15,15,111,1,fourthree,,,,,,,,,,,,,,,,,,,,,,,,,,,,,,,,,,,,,,,,,,,,,,,,,,,,,,,,,,,,,,,,,,,,,,,,,,,,,,,,,,,,,,,,,,,,,,,,,,,,,,,,,,,,,,,,,,,,,,,,,,,,,,,,,,,,,,,,,,,,,,,,,,,,,,,,
,,,,,,5ec2cf4c3542420fa914f4b9,62bbfb536205431a697012c0,2022-06-29_08h12.31.131,Colour_Asymmetry_Pilot,2022.1.3,MacIntel,60.0024001,62bbe60bf3d75ef465d3e404,0,16,16,123,1,twofour,,,,,,,,,,,,,,,,,,,,,,,,,,,,,,,,,,,,,,,,,,,,,,,,,,,,,,,,,,,,,,,,,,,,,,,,,,,,,,,,,,,,,,,,,,,,,,,,,,,,,,,,,,,,,,,,,,,,,,,,,,,,,,,,,,,,,,,,,,,,,,,,,,,,,,,,
,,,,,,5ec2cf4c3542420fa914f4b9,62bbfb536205431a697012c0,2022-06-29_08h12.31.131,Colour_Asymmetry_Pilot,2022.1.3,MacIntel,60.0024001,62bbe60bf3d75ef465d3e404,0,17,17,22,1,fourtwo,,,,,,,,,,,,,,,,,,,,,,,,,,,,,,,,,,,,,,,,,,,,,,,,,,,,,,,,,,,,,,,,,,,,,,,,,,,,,,,,,,,,,,,,,,,,,,,,,,,,,,,,,,,,,,,,,,,,,,,,,,,,,,,,,,,,,,,,,,,,,,,,,,,,,,,,
,,,,,,5ec2cf4c3542420fa914f4b9,62bbfb536205431a697012c0,2022-06-29_08h12.31.131,Colour_Asymmetry_Pilot,2022.1.3,MacIntel,60.0024001,62bbe60bf3d75ef465d3e404,0,18,18,12,1,threeone,,,,,,,,,,,,,,,,,,,,,,,,,,,,,,,,,,,,,,,,,,,,,,,,,,,,,,,,,,,,,,,,,,,,,,,,,,,,,,,,,,,,,,,,,,,,,,,,,,,,,,,,,,,,,,,,,,,,,,,,,,,,,,,,,,,,,,,,,,,,,,,,,,,,,,,,
,,,,,,5ec2cf4c3542420fa914f4b9,62bbfb536205431a697012c0,2022-06-29_08h12.31.131,Colour_Asymmetry_Pilot,2022.1.3,MacIntel,60.0024001,62bbe60bf3d75ef465d3e404,0,19,19,103,1,fourthree,,,,,,,,,,,,,,,,,,,,,,,,,,,,,,,,,,,,,,,,,,,,,,,,,,,,,,,,,,,,,,,,,,,,,,,,,,,,,,,,,,,,,,,,,,,,,,,,,,,,,,,,,,,,,,,,,,,,,,,,,,,,,,,,,,,,,,,,,,,,,,,,,,,,,,,,
,,,,,,5ec2cf4c3542420fa914f4b9,62bbfb536205431a697012c0,2022-06-29_08h12.31.131,Colour_Asymmetry_Pilot,2022.1.3,MacIntel,60.0024001,62bbe60bf3d75ef465d3e404,0,20,20,138,1,twoone,,,,,,,,,,,,,,,,,,,,,,,,,,,,,,,,,,,,,,,,,,,,,,,,,,,,,,,,,,,,,,,,,,,,,,,,,,,,,,,,,,,,,,,,,,,,,,,,,,,,,,,,,,,,,,,,,,,,,,,,,,,,,,,,,,,,,,,,,,,,,,,,,,,,,,,,
,,,,,,5ec2cf4c3542420fa914f4b9,62bbfb536205431a697012c0,2022-06-29_08h12.31.131,Colour_Asymmetry_Pilot,2022.1.3,MacIntel,60.0024001,62bbe60bf3d75ef465d3e404,0,21,21,72,1,onetwo,,,,,,,,,,,,,,,,,,,,,,,,,,,,,,,,,,,,,,,,,,,,,,,,,,,,,,,,,,,,,,,,,,,,,,,,,,,,,,,,,,,,,,,,,,,,,,,,,,,,,,,,,,,,,,,,,,,,,,,,,,,,,,,,,,,,,,,,,,,,,,,,,,,,,,,,
,,,,,,5ec2cf4c3542420fa914f4b9,62bbfb536205431a697012c0,2022-06-29_08h12.31.131,Colour_Asymmetry_Pilot,2022.1.3,MacIntel,60.0024001,62bbe60bf3d75ef465d3e404,0,22,22,146,1,twoone,,,,,,,,,,,,,,,,,,,,,,,,,,,,,,,,,,,,,,,,,,,,,,,,,,,,,,,,,,,,,,,,,,,,,,,,,,,,,,,,,,,,,,,,,,,,,,,,,,,,,,,,,,,,,,,,,,,,,,,,,,,,,,,,,,,,,,,,,,,,,,,,,,,,,,,,
,,,,,,5ec2cf4c3542420fa914f4b9,62bbfb536205431a697012c0,2022-06-29_08h12.31.131,Colour_Asymmetry_Pilot,2022.1.3,MacIntel,60.0024001,62bbe60bf3d75ef465d3e404,0,23,23,88,1,onetwo,,,,,,,,,,,,,,,,,,,,,,,,,,,,,,,,,,,,,,,,,,,,,,,,,,,,,,,,,,,,,,,,,,,,,,,,,,,,,,,,,,,,,,,,,,,,,,,,,,,,,,,,,,,,,,,,,,,,,,,,,,,,,,,,,,,,,,,,,,,,,,,,,,,,,,,,
,,,,,,5ec2cf4c3542420fa914f4b9,62bbfb536205431a697012c0,2022-06-29_08h12.31.131,Colour_Asymmetry_Pilot,2022.1.3,MacIntel,60.0024001,62bbe60bf3d75ef465d3e404,0,24,24,106,1,twoone,,,,,,,,,,,,,,,,,,,,,,,,,,,,,,,,,,,,,,,,,,,,,,,,,,,,,,,,,,,,,,,,,,,,,,,,,,,,,,,,,,,,,,,,,,,,,,,,,,,,,,,,,,,,,,,,,,,,,,,,,,,,,,,,,,,,,,,,,,,,,,,,,,,,,,,,
,,,,,,5ec2cf4c3542420fa914f4b9,62bbfb536205431a697012c0,2022-06-29_08h12.31.131,Colour_Asymmetry_Pilot,2022.1.3,MacIntel,60.0024001,62bbe60bf3d75ef465d3e404,0,25,25,74,1,twoone,,,,,,,,,,,,,,,,,,,,,,,,,,,,,,,,,,,,,,,,,,,,,,,,,,,,,,,,,,,,,,,,,,,,,,,,,,,,,,,,,,,,,,,,,,,,,,,,,,,,,,,,,,,,,,,,,,,,,,,,,,,,,,,,,,,,,,,,,,,,,,,,,,,,,,,,
,,,,,,5ec2cf4c3542420fa914f4b9,62bbfb536205431a697012c0,2022-06-29_08h12.31.131,Colour_Asymmetry_Pilot,2022.1.3,MacIntel,60.0024001,62bbe60bf3d75ef465d3e404,0,26,26,11,1,twofour,,,,,,,,,,,,,,,,,,,,,,,,,,,,,,,,,,,,,,,,,,,,,,,,,,,,,,,,,,,,,,,,,,,,,,,,,,,,,,,,,,,,,,,,,,,,,,,,,,,,,,,,,,,,,,,,,,,,,,,,,,,,,,,,,,,,,,,,,,,,,,,,,,,,,,,,
,,,,,,5ec2cf4c3542420fa914f4b9,62bbfb536205431a697012c0,2022-06-29_08h12.31.131,Colour_Asymmetry_Pilot,2022.1.3,MacIntel,60.0024001,62bbe60bf3d75ef465d3e404,0,27,27,136,1,onetwo,,,,,,,,,,,,,,,,,,,,,,,,,,,,,,,,,,,,,,,,,,,,,,,,,,,,,,,,,,,,,,,,,,,,,,,,,,,,,,,,,,,,,,,,,,,,,,,,,,,,,,,,,,,,,,,,,,,,,,,,,,,,,,,,,,,,,,,,,,,,,,,,,,,,,,,,
,,,,,,5ec2cf4c3542420fa914f4b9,62bbfb536205431a697012c0,2022-06-29_08h12.31.131,Colour_Asymmetry_Pilot,2022.1.3,MacIntel,60.0024001,62bbe60bf3d75ef465d3e404,0,28,28,134,1,fourtwo,,,,,,,,,,,,,,,,,,,,,,,,,,,,,,,,,,,,,,,,,,,,,,,,,,,,,,,,,,,,,,,,,,,,,,,,,,,,,,,,,,,,,,,,,,,,,,,,,,,,,,,,,,,,,,,,,,,,,,,,,,,,,,,,,,,,,,,,,,,,,,,,,,,,,,,,
,,,,,,5ec2cf4c3542420fa914f4b9,62bbfb536205431a697012c0,2022-06-29_08h12.31.131,Colour_Asymmetry_Pilot,2022.1.3,MacIntel,60.0024001,62bbe60bf3d75ef465d3e404,0,29,29,113,1,onethree,,,,,,,,,,,,,,,,,,,,,,,,,,,,,,,,,,,,,,,,,,,,,,,,,,,,,,,,,,,,,,,,,,,,,,,,,,,,,,,,,,,,,,,,,,,,,,,,,,,,,,,,,,,,,,,,,,,,,,,,,,,,,,,,,,,,,,,,,,,,,,,,,,,,,,,,
,,,,,,5ec2cf4c3542420fa914f4b9,62bbfb536205431a697012c0,2022-06-29_08h12.31.131,Colour_Asymmetry_Pilot,2022.1.3,MacIntel,60.0024001,62bbe60bf3d75ef465d3e404,0,30,30,18,1,twoone,,,,,,,,,,,,,,,,,,,,,,,,,,,,,,,,,,,,,,,,,,,,,,,,,,,,,,,,,,,,,,,,,,,,,,,,,,,,,,,,,,,,,,,,,,,,,,,,,,,,,,,,,,,,,,,,,,,,,,,,,,,,,,,,,,,,,,,,,,,,,,,,,,,,,,,,
,,,,,,5ec2cf4c3542420fa914f4b9,62bbfb536205431a697012c0,2022-06-29_08h12.31.131,Colour_Asymmetry_Pilot,2022.1.3,MacIntel,60.0024001,62bbe60bf3d75ef465d3e404,0,31,31,50,1,twoone,,,,,,,,,,,,,,,,,,,,,,,,,,,,,,,,,,,,,,,,,,,,,,,,,,,,,,,,,,,,,,,,,,,,,,,,,,,,,,,,,,,,,,,,,,,,,,,,,,,,,,,,,,,,,,,,,,,,,,,,,,,,,,,,,,,,,,,,,,,,,,,,,,,,,,,,
,,,,,,5ec2cf4c3542420fa914f4b9,62bbfb536205431a697012c0,2022-06-29_08h12.31.131,Colour_Asymmetry_Pilot,2022.1.3,MacIntel,60.0024001,62bbe60bf3d75ef465d3e404,0,32,32,90,1,twoone,,,,,,,,,,,,,,,,,,,,,,,,,,,,,,,,,,,,,,,,,,,,,,,,,,,,,,,,,,,,,,,,,,,,,,,,,,,,,,,,,,,,,,,,,,,,,,,,,,,,,,,,,,,,,,,,,,,,,,,,,,,,,,,,,,,,,,,,,,,,,,,,,,,,,,,,
,,,,,,5ec2cf4c3542420fa914f4b9,62bbfb536205431a697012c0,2022-06-29_08h12.31.131,Colour_Asymmetry_Pilot,2022.1.3,MacIntel,60.0024001,62bbe60bf3d75ef465d3e404,0,33,33,61,1,threefour,,,,,,,,,,,,,,,,,,,,,,,,,,,,,,,,,,,,,,,,,,,,,,,,,,,,,,,,,,,,,,,,,,,,,,,,,,,,,,,,,,,,,,,,,,,,,,,,,,,,,,,,,,,,,,,,,,,,,,,,,,,,,,,,,,,,,,,,,,,,,,,,,,,,,,,,
,,,,,,5ec2cf4c3542420fa914f4b9,62bbfb536205431a697012c0,2022-06-29_08h12.31.131,Colour_Asymmetry_Pilot,2022.1.3,MacIntel,60.0024001,62bbe60bf3d75ef465d3e404,0,34,34,83,1,twofour,,,,,,,,,,,,,,,,,,,,,,,,,,,,,,,,,,,,,,,,,,,,,,,,,,,,,,,,,,,,,,,,,,,,,,,,,,,,,,,,,,,,,,,,,,,,,,,,,,,,,,,,,,,,,,,,,,,,,,,,,,,,,,,,,,,,,,,,,,,,,,,,,,,,,,,,
,,,,,,5ec2cf4c3542420fa914f4b9,62bbfb536205431a697012c0,2022-06-29_08h12.31.131,Colour_Asymmetry_Pilot,2022.1.3,MacIntel,60.0024001,62bbe60bf3d75ef465d3e404,0,35,35,87,1,fourthree,,,,,,,,,,,,,,,,,,,,,,,,,,,,,,,,,,,,,,,,,,,,,,,,,,,,,,,,,,,,,,,,,,,,,,,,,,,,,,,,,,,,,,,,,,,,,,,,,,,,,,,,,,,,,,,,,,,,,,,,,,,,,,,,,,,,,,,,,,,,,,,,,,,,,,,,
,,,,,,5ec2cf4c3542420fa914f4b9,62bbfb536205431a697012c0,2022-06-29_08h12.31.131,Colour_Asymmetry_Pilot,2022.1.3,MacIntel,60.0024001,62bbe60bf3d75ef465d3e404,0,36,36,71,1,fourthree,,,,,,,,,,,,,,,,,,,,,,,,,,,,,,,,,,,,,,,,,,,,,,,,,,,,,,,,,,,,,,,,,,,,,,,,,,,,,,,,,,,,,,,,,,,,,,,,,,,,,,,,,,,,,,,,,,,,,,,,,,,,,,,,,,,,,,,,,,,,,,,,,,,,,,,,
,,,,,,5ec2cf4c3542420fa914f4b9,62bbfb536205431a697012c0,2022-06-29_08h12.31.131,Colour_Asymmetry_Pilot,2022.1.3,MacIntel,60.0024001,62bbe60bf3d75ef465d3e404,0,37,37,132,1,threeone,,,,,,,,,,,,,,,,,,,,,,,,,,,,,,,,,,,,,,,,,,,,,,,,,,,,,,,,,,,,,,,,,,,,,,,,,,,,,,,,,,,,,,,,,,,,,,,,,,,,,,,,,,,,,,,,,,,,,,,,,,,,,,,,,,,,,,,,,,,,,,,,,,,,,,,,
,,,,,,5ec2cf4c3542420fa914f4b9,62bbfb536205431a697012c0,2022-06-29_08h12.31.131,Colour_Asymmetry_Pilot,2022.1.3,MacIntel,60.0024001,62bbe60bf3d75ef465d3e404,0,38,38,80,1,onetwo,,,,,,,,,,,,,,,,,,,,,,,,,,,,,,,,,,,,,,,,,,,,,,,,,,,,,,,,,,,,,,,,,,,,,,,,,,,,,,,,,,,,,,,,,,,,,,,,,,,,,,,,,,,,,,,,,,,,,,,,,,,,,,,,,,,,,,,,,,,,,,,,,,,,,,,,
,,,,,,5ec2cf4c3542420fa914f4b9,62bbfb536205431a697012c0,2022-06-29_08h12.31.131,Colour_Asymmetry_Pilot,2022.1.3,MacIntel,60.0024001,62bbe60bf3d75ef465d3e404,0,39,39,9,1,onethree,,,,,,,,,,,,,,,,,,,,,,,,,,,,,,,,,,,,,,,,,,,,,,,,,,,,,,,,,,,,,,,,,,,,,,,,,,,,,,,,,,,,,,,,,,,,,,,,,,,,,,,,,,,,,,,,,,,,,,,,,,,,,,,,,,,,,,,,,,,,,,,,,,,,,,,,
,,,,,,5ec2cf4c3542420fa914f4b9,62bbfb536205431a697012c0,2022-06-29_08h12.31.131,Colour_Asymmetry_Pilot,2022.1.3,MacIntel,60.0024001,62bbe60bf3d75ef465d3e404,0,40,40,8,1,onetwo,,,,,,,,,,,,,,,,,,,,,,,,,,,,,,,,,,,,,,,,,,,,,,,,,,,,,,,,,,,,,,,,,,,,,,,,,,,,,,,,,,,,,,,,,,,,,,,,,,,,,,,,,,,,,,,,,,,,,,,,,,,,,,,,,,,,,,,,,,,,,,,,,,,,,,,,
,,,,,,5ec2cf4c3542420fa914f4b9,62bbfb536205431a697012c0,2022-06-29_08h12.31.131,Colour_Asymmetry_Pilot,2022.1.3,MacIntel,60.0024001,62bbe60bf3d75ef465d3e404,0,41,41,141,1,threefour,,,,,,,,,,,,,,,,,,,,,,,,,,,,,,,,,,,,,,,,,,,,,,,,,,,,,,,,,,,,,,,,,,,,,,,,,,,,,,,,,,,,,,,,,,,,,,,,,,,,,,,,,,,,,,,,,,,,,,,,,,,,,,,,,,,,,,,,,,,,,,,,,,,,,,,,
,,,,,,5ec2cf4c3542420fa914f4b9,62bbfb536205431a697012c0,2022-06-29_08h12.31.131,Colour_Asymmetry_Pilot,2022.1.3,MacIntel,60.0024001,62bbe60bf3d75ef465d3e404,0,42,42,129,1,onethree,,,,,,,,,,,,,,,,,,,,,,,,,,,,,,,,,,,,,,,,,,,,,,,,,,,,,,,,,,,,,,,,,,,,,,,,,,,,,,,,,,,,,,,,,,,,,,,,,,,,,,,,,,,,,,,,,,,,,,,,,,,,,,,,,,,,,,,,,,,,,,,,,,,,,,,,
,,,,,,5ec2cf4c3542420fa914f4b9,62bbfb536205431a697012c0,2022-06-29_08h12.31.131,Colour_Asymmetry_Pilot,2022.1.3,MacIntel,60.0024001,62bbe60bf3d75ef465d3e404,0,43,43,114,1,twoone,,,,,,,,,,,,,,,,,,,,,,,,,,,,,,,,,,,,,,,,,,,,,,,,,,,,,,,,,,,,,,,,,,,,,,,,,,,,,,,,,,,,,,,,,,,,,,,,,,,,,,,,,,,,,,,,,,,,,,,,,,,,,,,,,,,,,,,,,,,,,,,,,,,,,,,,
,,,,,,5ec2cf4c3542420fa914f4b9,62bbfb536205431a697012c0,2022-06-29_08h12.31.131,Colour_Asymmetry_Pilot,2022.1.3,MacIntel,60.0024001,62bbe60bf3d75ef465d3e404,0,44,44,155,1,twofour,,,,,,,,,,,,,,,,,,,,,,,,,,,,,,,,,,,,,,,,,,,,,,,,,,,,,,,,,,,,,,,,,,,,,,,,,,,,,,,,,,,,,,,,,,,,,,,,,,,,,,,,,,,,,,,,,,,,,,,,,,,,,,,,,,,,,,,,,,,,,,,,,,,,,,,,
,,,,,,5ec2cf4c3542420fa914f4b9,62bbfb536205431a697012c0,2022-06-29_08h12.31.131,Colour_Asymmetry_Pilot,2022.1.3,MacIntel,60.0024001,62bbe60bf3d75ef465d3e404,0,45,45,67,1,twofour,,,,,,,,,,,,,,,,,,,,,,,,,,,,,,,,,,,,,,,,,,,,,,,,,,,,,,,,,,,,,,,,,,,,,,,,,,,,,,,,,,,,,,,,,,,,,,,,,,,,,,,,,,,,,,,,,,,,,,,,,,,,,,,,,,,,,,,,,,,,,,,,,,,,,,,,
,,,,,,5ec2cf4c3542420fa914f4b9,62bbfb536205431a697012c0,2022-06-29_08h12.31.131,Colour_Asymmetry_Pilot,2022.1.3,MacIntel,60.0024001,62bbe60bf3d75ef465d3e404,0,46,46,23,1,fourthree,,,,,,,,,,,,,,,,,,,,,,,,,,,,,,,,,,,,,,,,,,,,,,,,,,,,,,,,,,,,,,,,,,,,,,,,,,,,,,,,,,,,,,,,,,,,,,,,,,,,,,,,,,,,,,,,,,,,,,,,,,,,,,,,,,,,,,,,,,,,,,,,,,,,,,,,
,,,,,,5ec2cf4c3542420fa914f4b9,62bbfb536205431a697012c0,2022-06-29_08h12.31.131,Colour_Asymmetry_Pilot,2022.1.3,MacIntel,60.0024001,62bbe60bf3d75ef465d3e404,0,47,47,153,1,onethree,,,,,,,,,,,,,,,,,,,,,,,,,,,,,,,,,,,,,,,,,,,,,,,,,,,,,,,,,,,,,,,,,,,,,,,,,,,,,,,,,,,,,,,,,,,,,,,,,,,,,,,,,,,,,,,,,,,,,,,,,,,,,,,,,,,,,,,,,,,,,,,,,,,,,,,,
,,,,,,5ec2cf4c3542420fa914f4b9,62bbfb536205431a697012c0,2022-06-29_08h12.31.131,Colour_Asymmetry_Pilot,2022.1.3,MacIntel,60.0024001,62bbe60bf3d75ef465d3e404,0,48,48,122,1,twoone,,,,,,,,,,,,,,,,,,,,,,,,,,,,,,,,,,,,,,,,,,,,,,,,,,,,,,,,,,,,,,,,,,,,,,,,,,,,,,,,,,,,,,,,,,,,,,,,,,,,,,,,,,,,,,,,,,,,,,,,,,,,,,,,,,,,,,,,,,,,,,,,,,,,,,,,
,,,,,,5ec2cf4c3542420fa914f4b9,62bbfb536205431a697012c0,2022-06-29_08h12.31.131,Colour_Asymmetry_Pilot,2022.1.3,MacIntel,60.0024001,62bbe60bf3d75ef465d3e404,0,49,49,125,1,threefour,,,,,,,,,,,,,,,,,,,,,,,,,,,,,,,,,,,,,,,,,,,,,,,,,,,,,,,,,,,,,,,,,,,,,,,,,,,,,,,,,,,,,,,,,,,,,,,,,,,,,,,,,,,,,,,,,,,,,,,,,,,,,,,,,,,,,,,,,,,,,,,,,,,,,,,,
,,,,,,5ec2cf4c3542420fa914f4b9,62bbfb536205431a697012c0,2022-06-29_08h12.31.131,Colour_Asymmetry_Pilot,2022.1.3,MacIntel,60.0024001,62bbe60bf3d75ef465d3e404,0,50,50,119,1,fourthree,,,,,,,,,,,,,,,,,,,,,,,,,,,,,,,,,,,,,,,,,,,,,,,,,,,,,,,,,,,,,,,,,,,,,,,,,,,,,,,,,,,,,,,,,,,,,,,,,,,,,,,,,,,,,,,,,,,,,,,,,,,,,,,,,,,,,,,,,,,,,,,,,,,,,,,,
,,,,,,5ec2cf4c3542420fa914f4b9,62bbfb536205431a697012c0,2022-06-29_08h12.31.131,Colour_Asymmetry_Pilot,2022.1.3,MacIntel,60.0024001,62bbe60bf3d75ef465d3e404,0,51,51,149,1,threefour,,,,,,,,,,,,,,,,,,,,,,,,,,,,,,,,,,,,,,,,,,,,,,,,,,,,,,,,,,,,,,,,,,,,,,,,,,,,,,,,,,,,,,,,,,,,,,,,,,,,,,,,,,,,,,,,,,,,,,,,,,,,,,,,,,,,,,,,,,,,,,,,,,,,,,,,
,,,,,,5ec2cf4c3542420fa914f4b9,62bbfb536205431a697012c0,2022-06-29_08h12.31.131,Colour_Asymmetry_Pilot,2022.1.3,MacIntel,60.0024001,62bbe60bf3d75ef465d3e404,0,52,52,19,1,twofour,,,,,,,,,,,,,,,,,,,,,,,,,,,,,,,,,,,,,,,,,,,,,,,,,,,,,,,,,,,,,,,,,,,,,,,,,,,,,,,,,,,,,,,,,,,,,,,,,,,,,,,,,,,,,,,,,,,,,,,,,,,,,,,,,,,,,,,,,,,,,,,,,,,,,,,,
,,,,,,5ec2cf4c3542420fa914f4b9,62bbfb536205431a697012c0,2022-06-29_08h12.31.131,Colour_Asymmetry_Pilot,2022.1.3,MacIntel,60.0024001,62bbe60bf3d75ef465d3e404,0,53,53,1,1,onethree,,,,,,,,,,,,,,,,,,,,,,,,,,,,,,,,,,,,,,,,,,,,,,,,,,,,,,,,,,,,,,,,,,,,,,,,,,,,,,,,,,,,,,,,,,,,,,,,,,,,,,,,,,,,,,,,,,,,,,,,,,,,,,,,,,,,,,,,,,,,,,,,,,,,,,,,
,,,,,,5ec2cf4c3542420fa914f4b9,62bbfb536205431a697012c0,2022-06-29_08h12.31.131,Colour_Asymmetry_Pilot,2022.1.3,MacIntel,60.0024001,62bbe60bf3d75ef465d3e404,0,54,54,45,1,threefour,,,,,,,,,,,,,,,,,,,,,,,,,,,,,,,,,,,,,,,,,,,,,,,,,,,,,,,,,,,,,,,,,,,,,,,,,,,,,,,,,,,,,,,,,,,,,,,,,,,,,,,,,,,,,,,,,,,,,,,,,,,,,,,,,,,,,,,,,,,,,,,,,,,,,,,,
,,,,,,5ec2cf4c3542420fa914f4b9,62bbfb536205431a697012c0,2022-06-29_08h12.31.131,Colour_Asymmetry_Pilot,2022.1.3,MacIntel,60.0024001,62bbe60bf3d75ef465d3e404,0,55,55,37,1,threefour,,,,,,,,,,,,,,,,,,,,,,,,,,,,,,,,,,,,,,,,,,,,,,,,,,,,,,,,,,,,,,,,,,,,,,,,,,,,,,,,,,,,,,,,,,,,,,,,,,,,,,,,,,,,,,,,,,,,,,,,,,,,,,,,,,,,,,,,,,,,,,,,,,,,,,,,
,,,,,,5ec2cf4c3542420fa914f4b9,62bbfb536205431a697012c0,2022-06-29_08h12.31.131,Colour_Asymmetry_Pilot,2022.1.3,MacIntel,60.0024001,62bbe60bf3d75ef465d3e404,0,56,56,69,1,threefour,,,,,,,,,,,,,,,,,,,,,,,,,,,,,,,,,,,,,,,,,,,,,,,,,,,,,,,,,,,,,,,,,,,,,,,,,,,,,,,,,,,,,,,,,,,,,,,,,,,,,,,,,,,,,,,,,,,,,,,,,,,,,,,,,,,,,,,,,,,,,,,,,,,,,,,,
,,,,,,5ec2cf4c3542420fa914f4b9,62bbfb536205431a697012c0,2022-06-29_08h12.31.131,Colour_Asymmetry_Pilot,2022.1.3,MacIntel,60.0024001,62bbe60bf3d75ef465d3e404,0,57,57,14,1,fourtwo,,,,,,,,,,,,,,,,,,,,,,,,,,,,,,,,,,,,,,,,,,,,,,,,,,,,,,,,,,,,,,,,,,,,,,,,,,,,,,,,,,,,,,,,,,,,,,,,,,,,,,,,,,,,,,,,,,,,,,,,,,,,,,,,,,,,,,,,,,,,,,,,,,,,,,,,
,,,,,,5ec2cf4c3542420fa914f4b9,62bbfb536205431a697012c0,2022-06-29_08h12.31.131,Colour_Asymmetry_Pilot,2022.1.3,MacIntel,60.0024001,62bbe60bf3d75ef465d3e404,0,58,58,55,1,fourthree,,,,,,,,,,,,,,,,,,,,,,,,,,,,,,,,,,,,,,,,,,,,,,,,,,,,,,,,,,,,,,,,,,,,,,,,,,,,,,,,,,,,,,,,,,,,,,,,,,,,,,,,,,,,,,,,,,,,,,,,,,,,,,,,,,,,,,,,,,,,,,,,,,,,,,,,
,,,,,,5ec2cf4c3542420fa914f4b9,62bbfb536205431a697012c0,2022-06-29_08h12.31.131,Colour_Asymmetry_Pilot,2022.1.3,MacIntel,60.0024001,62bbe60bf3d75ef465d3e404,0,59,59,26,1,twoone,,,,,,,,,,,,,,,,,,,,,,,,,,,,,,,,,,,,,,,,,,,,,,,,,,,,,,,,,,,,,,,,,,,,,,,,,,,,,,,,,,,,,,,,,,,,,,,,,,,,,,,,,,,,,,,,,,,,,,,,,,,,,,,,,,,,,,,,,,,,,,,,,,,,,,,,
,,,,,,5ec2cf4c3542420fa914f4b9,62bbfb536205431a697012c0,2022-06-29_08h12.31.131,Colour_Asymmetry_Pilot,2022.1.3,MacIntel,60.0024001,62bbe60bf3d75ef465d3e404,0,60,60,56,1,onetwo,,,,,,,,,,,,,,,,,,,,,,,,,,,,,,,,,,,,,,,,,,,,,,,,,,,,,,,,,,,,,,,,,,,,,,,,,,,,,,,,,,,,,,,,,,,,,,,,,,,,,,,,,,,,,,,,,,,,,,,,,,,,,,,,,,,,,,,,,,,,,,,,,,,,,,,,
,,,,,,5ec2cf4c3542420fa914f4b9,62bbfb536205431a697012c0,2022-06-29_08h12.31.131,Colour_Asymmetry_Pilot,2022.1.3,MacIntel,60.0024001,62bbe60bf3d75ef465d3e404,0,61,61,57,1,onethree,,,,,,,,,,,,,,,,,,,,,,,,,,,,,,,,,,,,,,,,,,,,,,,,,,,,,,,,,,,,,,,,,,,,,,,,,,,,,,,,,,,,,,,,,,,,,,,,,,,,,,,,,,,,,,,,,,,,,,,,,,,,,,,,,,,,,,,,,,,,,,,,,,,,,,,,
,,,,,,5ec2cf4c3542420fa914f4b9,62bbfb536205431a697012c0,2022-06-29_08h12.31.131,Colour_Asymmetry_Pilot,2022.1.3,MacIntel,60.0024001,62bbe60bf3d75ef465d3e404,0,62,62,101,1,threefour,,,,,,,,,,,,,,,,,,,,,,,,,,,,,,,,,,,,,,,,,,,,,,,,,,,,,,,,,,,,,,,,,,,,,,,,,,,,,,,,,,,,,,,,,,,,,,,,,,,,,,,,,,,,,,,,,,,,,,,,,,,,,,,,,,,,,,,,,,,,,,,,,,,,,,,,
,,,,,,5ec2cf4c3542420fa914f4b9,62bbfb536205431a697012c0,2022-06-29_08h12.31.131,Colour_Asymmetry_Pilot,2022.1.3,MacIntel,60.0024001,62bbe60bf3d75ef465d3e404,0,63,63,6,1,fourtwo,,,,,,,,,,,,,,,,,,,,,,,,,,,,,,,,,,,,,,,,,,,,,,,,,,,,,,,,,,,,,,,,,,,,,,,,,,,,,,,,,,,,,,,,,,,,,,,,,,,,,,,,,,,,,,,,,,,,,,,,,,,,,,,,,,,,,,,,,,,,,,,,,,,,,,,,
,,,,,,5ec2cf4c3542420fa914f4b9,62bbfb536205431a697012c0,2022-06-29_08h12.31.131,Colour_Asymmetry_Pilot,2022.1.3,MacIntel,60.0024001,62bbe60bf3d75ef465d3e404,0,64,64,66,1,twoone,,,,,,,,,,,,,,,,,,,,,,,,,,,,,,,,,,,,,,,,,,,,,,,,,,,,,,,,,,,,,,,,,,,,,,,,,,,,,,,,,,,,,,,,,,,,,,,,,,,,,,,,,,,,,,,,,,,,,,,,,,,,,,,,,,,,,,,,,,,,,,,,,,,,,,,,
,,,,,,5ec2cf4c3542420fa914f4b9,62bbfb536205431a697012c0,2022-06-29_08h12.31.131,Colour_Asymmetry_Pilot,2022.1.3,MacIntel,60.0024001,62bbe60bf3d75ef465d3e404,0,65,65,31,1,fourthree,,,,,,,,,,,,,,,,,,,,,,,,,,,,,,,,,,,,,,,,,,,,,,,,,,,,,,,,,,,,,,,,,,,,,,,,,,,,,,,,,,,,,,,,,,,,,,,,,,,,,,,,,,,,,,,,,,,,,,,,,,,,,,,,,,,,,,,,,,,,,,,,,,,,,,,,
,,,,,,5ec2cf4c3542420fa914f4b9,62bbfb536205431a697012c0,2022-06-29_08h12.31.131,Colour_Asymmetry_Pilot,2022.1.3,MacIntel,60.0024001,62bbe60bf3d75ef465d3e404,0,66,66,116,1,threeone,,,,,,,,,,,,,,,,,,,,,,,,,,,,,,,,,,,,,,,,,,,,,,,,,,,,,,,,,,,,,,,,,,,,,,,,,,,,,,,,,,,,,,,,,,,,,,,,,,,,,,,,,,,,,,,,,,,,,,,,,,,,,,,,,,,,,,,,,,,,,,,,,,,,,,,,
,,,,,,5ec2cf4c3542420fa914f4b9,62bbfb536205431a697012c0,2022-06-29_08h12.31.131,Colour_Asymmetry_Pilot,2022.1.3,MacIntel,60.0024001,62bbe60bf3d75ef465d3e404,0,67,67,33,1,onethree,,,,,,,,,,,,,,,,,,,,,,,,,,,,,,,,,,,,,,,,,,,,,,,,,,,,,,,,,,,,,,,,,,,,,,,,,,,,,,,,,,,,,,,,,,,,,,,,,,,,,,,,,,,,,,,,,,,,,,,,,,,,,,,,,,,,,,,,,,,,,,,,,,,,,,,,
,,,,,,5ec2cf4c3542420fa914f4b9,62bbfb536205431a697012c0,2022-06-29_08h12.31.131,Colour_Asymmetry_Pilot,2022.1.3,MacIntel,60.0024001,62bbe60bf3d75ef465d3e404,0,68,68,115,1,twofour,,,,,,,,,,,,,,,,,,,,,,,,,,,,,,,,,,,,,,,,,,,,,,,,,,,,,,,,,,,,,,,,,,,,,,,,,,,,,,,,,,,,,,,,,,,,,,,,,,,,,,,,,,,,,,,,,,,,,,,,,,,,,,,,,,,,,,,,,,,,,,,,,,,,,,,,
,,,,,,5ec2cf4c3542420fa914f4b9,62bbfb536205431a697012c0,2022-06-29_08h12.31.131,Colour_Asymmetry_Pilot,2022.1.3,MacIntel,60.0024001,62bbe60bf3d75ef465d3e404,0,69,69,158,1,fourtwo,,,,,,,,,,,,,,,,,,,,,,,,,,,,,,,,,,,,,,,,,,,,,,,,,,,,,,,,,,,,,,,,,,,,,,,,,,,,,,,,,,,,,,,,,,,,,,,,,,,,,,,,,,,,,,,,,,,,,,,,,,,,,,,,,,,,,,,,,,,,,,,,,,,,,,,,
,,,,,,5ec2cf4c3542420fa914f4b9,62bbfb536205431a697012c0,2022-06-29_08h12.31.131,Colour_Asymmetry_Pilot,2022.1.3,MacIntel,60.0024001,62bbe60bf3d75ef465d3e404,0,70,70,161,1,onethree,,,,,,,,,,,,,,,,,,,,,,,,,,,,,,,,,,,,,,,,,,,,,,,,,,,,,,,,,,,,,,,,,,,,,,,,,,,,,,,,,,,,,,,,,,,,,,,,,,,,,,,,,,,,,,,,,,,,,,,,,,,,,,,,,,,,,,,,,,,,,,,,,,,,,,,,
,,,,,,5ec2cf4c3542420fa914f4b9,62bbfb536205431a697012c0,2022-06-29_08h12.31.131,Colour_Asymmetry_Pilot,2022.1.3,MacIntel,60.0024001,62bbe60bf3d75ef465d3e404,0,71,71,40,1,onetwo,,,,,,,,,,,,,,,,,,,,,,,,,,,,,,,,,,,,,,,,,,,,,,,,,,,,,,,,,,,,,,,,,,,,,,,,,,,,,,,,,,,,,,,,,,,,,,,,,,,,,,,,,,,,,,,,,,,,,,,,,,,,,,,,,,,,,,,,,,,,,,,,,,,,,,,,
,,,,,,5ec2cf4c3542420fa914f4b9,62bbfb536205431a697012c0,2022-06-29_08h12.31.131,Colour_Asymmetry_Pilot,2022.1.3,MacIntel,60.0024001,62bbe60bf3d75ef465d3e404,0,72,72,85,1,threefour,,,,,,,,,,,,,,,,,,,,,,,,,,,,,,,,,,,,,,,,,,,,,,,,,,,,,,,,,,,,,,,,,,,,,,,,,,,,,,,,,,,,,,,,,,,,,,,,,,,,,,,,,,,,,,,,,,,,,,,,,,,,,,,,,,,,,,,,,,,,,,,,,,,,,,,,
,,,,,,5ec2cf4c3542420fa914f4b9,62bbfb536205431a697012c0,2022-06-29_08h12.31.131,Colour_Asymmetry_Pilot,2022.1.3,MacIntel,60.0024001,62bbe60bf3d75ef465d3e404,0,73,73,54,1,fourtwo,,,,,,,,,,,,,,,,,,,,,,,,,,,,,,,,,,,,,,,,,,,,,,,,,,,,,,,,,,,,,,,,,,,,,,,,,,,,,,,,,,,,,,,,,,,,,,,,,,,,,,,,,,,,,,,,,,,,,,,,,,,,,,,,,,,,,,,,,,,,,,,,,,,,,,,,
,,,,,,5ec2cf4c3542420fa914f4b9,62bbfb536205431a697012c0,2022-06-29_08h12.31.131,Colour_Asymmetry_Pilot,2022.1.3,MacIntel,60.0024001,62bbe60bf3d75ef465d3e404,0,74,74,159,1,fourthree,,,,,,,,,,,,,,,,,,,,,,,,,,,,,,,,,,,,,,,,,,,,,,,,,,,,,,,,,,,,,,,,,,,,,,,,,,,,,,,,,,,,,,,,,,,,,,,,,,,,,,,,,,,,,,,,,,,,,,,,,,,,,,,,,,,,,,,,,,,,,,,,,,,,,,,,
,,,,,,5ec2cf4c3542420fa914f4b9,62bbfb536205431a697012c0,2022-06-29_08h12.31.131,Colour_Asymmetry_Pilot,2022.1.3,MacIntel,60.0024001,62bbe60bf3d75ef465d3e404,0,75,75,52,1,threeone,,,,,,,,,,,,,,,,,,,,,,,,,,,,,,,,,,,,,,,,,,,,,,,,,,,,,,,,,,,,,,,,,,,,,,,,,,,,,,,,,,,,,,,,,,,,,,,,,,,,,,,,,,,,,,,,,,,,,,,,,,,,,,,,,,,,,,,,,,,,,,,,,,,,,,,,
,,,,,,5ec2cf4c3542420fa914f4b9,62bbfb536205431a697012c0,2022-06-29_08h12.31.131,Colour_Asymmetry_Pilot,2022.1.3,MacIntel,60.0024001,62bbe60bf3d75ef465d3e404,0,76,76,10,1,twoone,,,,,,,,,,,,,,,,,,,,,,,,,,,,,,,,,,,,,,,,,,,,,,,,,,,,,,,,,,,,,,,,,,,,,,,,,,,,,,,,,,,,,,,,,,,,,,,,,,,,,,,,,,,,,,,,,,,,,,,,,,,,,,,,,,,,,,,,,,,,,,,,,,,,,,,,
,,,,,,5ec2cf4c3542420fa914f4b9,62bbfb536205431a697012c0,2022-06-29_08h12.31.131,Colour_Asymmetry_Pilot,2022.1.3,MacIntel,60.0024001,62bbe60bf3d75ef465d3e404,0,77,77,95,1,fourthree,,,,,,,,,,,,,,,,,,,,,,,,,,,,,,,,,,,,,,,,,,,,,,,,,,,,,,,,,,,,,,,,,,,,,,,,,,,,,,,,,,,,,,,,,,,,,,,,,,,,,,,,,,,,,,,,,,,,,,,,,,,,,,,,,,,,,,,,,,,,,,,,,,,,,,,,
,,,,,,5ec2cf4c3542420fa914f4b9,62bbfb536205431a697012c0,2022-06-29_08h12.31.131,Colour_Asymmetry_Pilot,2022.1.3,MacIntel,60.0024001,62bbe60bf3d75ef465d3e404,0,78,78,64,1,onetwo,,,,,,,,,,,,,,,,,,,,,,,,,,,,,,,,,,,,,,,,,,,,,,,,,,,,,,,,,,,,,,,,,,,,,,,,,,,,,,,,,,,,,,,,,,,,,,,,,,,,,,,,,,,,,,,,,,,,,,,,,,,,,,,,,,,,,,,,,,,,,,,,,,,,,,,,
,,,,,,5ec2cf4c3542420fa914f4b9,62bbfb536205431a697012c0,2022-06-29_08h12.31.131,Colour_Asymmetry_Pilot,2022.1.3,MacIntel,60.0024001,62bbe60bf3d75ef465d3e404,0,79,79,51,1,twofour,,,,,,,,,,,,,,,,,,,,,,,,,,,,,,,,,,,,,,,,,,,,,,,,,,,,,,,,,,,,,,,,,,,,,,,,,,,,,,,,,,,,,,,,,,,,,,,,,,,,,,,,,,,,,,,,,,,,,,,,,,,,,,,,,,,,,,,,,,,,,,,,,,,,,,,,
,,,,,,5ec2cf4c3542420fa914f4b9,62bbfb536205431a697012c0,2022-06-29_08h12.31.131,Colour_Asymmetry_Pilot,2022.1.3,MacIntel,60.0024001,62bbe60bf3d75ef465d3e404,0,80,80,62,1,fourtwo,,,,,,,,,,,,,,,,,,,,,,,,,,,,,,,,,,,,,,,,,,,,,,,,,,,,,,,,,,,,,,,,,,,,,,,,,,,,,,,,,,,,,,,,,,,,,,,,,,,,,,,,,,,,,,,,,,,,,,,,,,,,,,,,,,,,,,,,,,,,,,,,,,,,,,,,
,,,,,,5ec2cf4c3542420fa914f4b9,62bbfb536205431a697012c0,2022-06-29_08h12.31.131,Colour_Asymmetry_Pilot,2022.1.3,MacIntel,60.0024001,62bbe60bf3d75ef465d3e404,0,81,81,16,1,onetwo,,,,,,,,,,,,,,,,,,,,,,,,,,,,,,,,,,,,,,,,,,,,,,,,,,,,,,,,,,,,,,,,,,,,,,,,,,,,,,,,,,,,,,,,,,,,,,,,,,,,,,,,,,,,,,,,,,,,,,,,,,,,,,,,,,,,,,,,,,,,,,,,,,,,,,,,
,,,,,,5ec2cf4c3542420fa914f4b9,62bbfb536205431a697012c0,2022-06-29_08h12.31.131,Colour_Asymmetry_Pilot,2022.1.3,MacIntel,60.0024001,62bbe60bf3d75ef465d3e404,0,82,82,147,1,twofour,,,,,,,,,,,,,,,,,,,,,,,,,,,,,,,,,,,,,,,,,,,,,,,,,,,,,,,,,,,,,,,,,,,,,,,,,,,,,,,,,,,,,,,,,,,,,,,,,,,,,,,,,,,,,,,,,,,,,,,,,,,,,,,,,,,,,,,,,,,,,,,,,,,,,,,,
,,,,,,5ec2cf4c3542420fa914f4b9,62bbfb536205431a697012c0,2022-06-29_08h12.31.131,Colour_Asymmetry_Pilot,2022.1.3,MacIntel,60.0024001,62bbe60bf3d75ef465d3e404,0,83,83,96,1,onetwo,,,,,,,,,,,,,,,,,,,,,,,,,,,,,,,,,,,,,,,,,,,,,,,,,,,,,,,,,,,,,,,,,,,,,,,,,,,,,,,,,,,,,,,,,,,,,,,,,,,,,,,,,,,,,,,,,,,,,,,,,,,,,,,,,,,,,,,,,,,,,,,,,,,,,,,,
,,,,,,5ec2cf4c3542420fa914f4b9,62bbfb536205431a697012c0,2022-06-29_08h12.31.131,Colour_Asymmetry_Pilot,2022.1.3,MacIntel,60.0024001,62bbe60bf3d75ef465d3e404,0,84,84,109,1,threefour,,,,,,,,,,,,,,,,,,,,,,,,,,,,,,,,,,,,,,,,,,,,,,,,,,,,,,,,,,,,,,,,,,,,,,,,,,,,,,,,,,,,,,,,,,,,,,,,,,,,,,,,,,,,,,,,,,,,,,,,,,,,,,,,,,,,,,,,,,,,,,,,,,,,,,,,
,,,,,,5ec2cf4c3542420fa914f4b9,62bbfb536205431a697012c0,2022-06-29_08h12.31.131,Colour_Asymmetry_Pilot,2022.1.3,MacIntel,60.0024001,62bbe60bf3d75ef465d3e404,0,85,85,102,1,fourtwo,,,,,,,,,,,,,,,,,,,,,,,,,,,,,,,,,,,,,,,,,,,,,,,,,,,,,,,,,,,,,,,,,,,,,,,,,,,,,,,,,,,,,,,,,,,,,,,,,,,,,,,,,,,,,,,,,,,,,,,,,,,,,,,,,,,,,,,,,,,,,,,,,,,,,,,,
,,,,,,5ec2cf4c3542420fa914f4b9,62bbfb536205431a697012c0,2022-06-29_08h12.31.131,Colour_Asymmetry_Pilot,2022.1.3,MacIntel,60.0024001,62bbe60bf3d75ef465d3e404,0,86,86,131,1,twofour,,,,,,,,,,,,,,,,,,,,,,,,,,,,,,,,,,,,,,,,,,,,,,,,,,,,,,,,,,,,,,,,,,,,,,,,,,,,,,,,,,,,,,,,,,,,,,,,,,,,,,,,,,,,,,,,,,,,,,,,,,,,,,,,,,,,,,,,,,,,,,,,,,,,,,,,
,,,,,,5ec2cf4c3542420fa914f4b9,62bbfb536205431a697012c0,2022-06-29_08h12.31.131,Colour_Asymmetry_Pilot,2022.1.3,MacIntel,60.0024001,62bbe60bf3d75ef465d3e404,0,87,87,89,1,onethree,,,,,,,,,,,,,,,,,,,,,,,,,,,,,,,,,,,,,,,,,,,,,,,,,,,,,,,,,,,,,,,,,,,,,,,,,,,,,,,,,,,,,,,,,,,,,,,,,,,,,,,,,,,,,,,,,,,,,,,,,,,,,,,,,,,,,,,,,,,,,,,,,,,,,,,,
,,,,,,5ec2cf4c3542420fa914f4b9,62bbfb536205431a697012c0,2022-06-29_08h12.31.131,Colour_Asymmetry_Pilot,2022.1.3,MacIntel,60.0024001,62bbe60bf3d75ef465d3e404,0,88,88,112,1,onetwo,,,,,,,,,,,,,,,,,,,,,,,,,,,,,,,,,,,,,,,,,,,,,,,,,,,,,,,,,,,,,,,,,,,,,,,,,,,,,,,,,,,,,,,,,,,,,,,,,,,,,,,,,,,,,,,,,,,,,,,,,,,,,,,,,,,,,,,,,,,,,,,,,,,,,,,,
,,,,,,5ec2cf4c3542420fa914f4b9,62bbfb536205431a697012c0,2022-06-29_08h12.31.131,Colour_Asymmetry_Pilot,2022.1.3,MacIntel,60.0024001,62bbe60bf3d75ef465d3e404,0,89,89,60,1,threeone,,,,,,,,,,,,,,,,,,,,,,,,,,,,,,,,,,,,,,,,,,,,,,,,,,,,,,,,,,,,,,,,,,,,,,,,,,,,,,,,,,,,,,,,,,,,,,,,,,,,,,,,,,,,,,,,,,,,,,,,,,,,,,,,,,,,,,,,,,,,,,,,,,,,,,,,
,,,,,,5ec2cf4c3542420fa914f4b9,62bbfb536205431a697012c0,2022-06-29_08h12.31.131,Colour_Asymmetry_Pilot,2022.1.3,MacIntel,60.0024001,62bbe60bf3d75ef465d3e404,0,90,90,82,1,twoone,,,,,,,,,,,,,,,,,,,,,,,,,,,,,,,,,,,,,,,,,,,,,,,,,,,,,,,,,,,,,,,,,,,,,,,,,,,,,,,,,,,,,,,,,,,,,,,,,,,,,,,,,,,,,,,,,,,,,,,,,,,,,,,,,,,,,,,,,,,,,,,,,,,,,,,,
,,,,,,5ec2cf4c3542420fa914f4b9,62bbfb536205431a697012c0,2022-06-29_08h12.31.131,Colour_Asymmetry_Pilot,2022.1.3,MacIntel,60.0024001,62bbe60bf3d75ef465d3e404,0,91,91,93,1,threefour,,,,,,,,,,,,,,,,,,,,,,,,,,,,,,,,,,,,,,,,,,,,,,,,,,,,,,,,,,,,,,,,,,,,,,,,,,,,,,,,,,,,,,,,,,,,,,,,,,,,,,,,,,,,,,,,,,,,,,,,,,,,,,,,,,,,,,,,,,,,,,,,,,,,,,,,
,,,,,,5ec2cf4c3542420fa914f4b9,62bbfb536205431a697012c0,2022-06-29_08h12.31.131,Colour_Asymmetry_Pilot,2022.1.3,MacIntel,60.0024001,62bbe60bf3d75ef465d3e404,0,92,92,44,1,threeone,,,,,,,,,,,,,,,,,,,,,,,,,,,,,,,,,,,,,,,,,,,,,,,,,,,,,,,,,,,,,,,,,,,,,,,,,,,,,,,,,,,,,,,,,,,,,,,,,,,,,,,,,,,,,,,,,,,,,,,,,,,,,,,,,,,,,,,,,,,,,,,,,,,,,,,,
,,,,,,5ec2cf4c3542420fa914f4b9,62bbfb536205431a697012c0,2022-06-29_08h12.31.131,Colour_Asymmetry_Pilot,2022.1.3,MacIntel,60.0024001,62bbe60bf3d75ef465d3e404,0,93,93,38,1,fourtwo,,,,,,,,,,,,,,,,,,,,,,,,,,,,,,,,,,,,,,,,,,,,,,,,,,,,,,,,,,,,,,,,,,,,,,,,,,,,,,,,,,,,,,,,,,,,,,,,,,,,,,,,,,,,,,,,,,,,,,,,,,,,,,,,,,,,,,,,,,,,,,,,,,,,,,,,
,,,,,,5ec2cf4c3542420fa914f4b9,62bbfb536205431a697012c0,2022-06-29_08h12.31.131,Colour_Asymmetry_Pilot,2022.1.3,MacIntel,60.0024001,62bbe60bf3d75ef465d3e404,0,94,94,79,1,fourthree,,,,,,,,,,,,,,,,,,,,,,,,,,,,,,,,,,,,,,,,,,,,,,,,,,,,,,,,,,,,,,,,,,,,,,,,,,,,,,,,,,,,,,,,,,,,,,,,,,,,,,,,,,,,,,,,,,,,,,,,,,,,,,,,,,,,,,,,,,,,,,,,,,,,,,,,
,,,,,,5ec2cf4c3542420fa914f4b9,62bbfb536205431a697012c0,2022-06-29_08h12.31.131,Colour_Asymmetry_Pilot,2022.1.3,MacIntel,60.0024001,62bbe60bf3d75ef465d3e404,0,95,95,148,1,threeone,,,,,,,,,,,,,,,,,,,,,,,,,,,,,,,,,,,,,,,,,,,,,,,,,,,,,,,,,,,,,,,,,,,,,,,,,,,,,,,,,,,,,,,,,,,,,,,,,,,,,,,,,,,,,,,,,,,,,,,,,,,,,,,,,,,,,,,,,,,,,,,,,,,,,,,,
,,,,,,5ec2cf4c3542420fa914f4b9,62bbfb536205431a697012c0,2022-06-29_08h12.31.131,Colour_Asymmetry_Pilot,2022.1.3,MacIntel,60.0024001,62bbe60bf3d75ef465d3e404,0,96,96,53,1,threefour,,,,,,,,,,,,,,,,,,,,,,,,,,,,,,,,,,,,,,,,,,,,,,,,,,,,,,,,,,,,,,,,,,,,,,,,,,,,,,,,,,,,,,,,,,,,,,,,,,,,,,,,,,,,,,,,,,,,,,,,,,,,,,,,,,,,,,,,,,,,,,,,,,,,,,,,
,,,,,,5ec2cf4c3542420fa914f4b9,62bbfb536205431a697012c0,2022-06-29_08h12.31.131,Colour_Asymmetry_Pilot,2022.1.3,MacIntel,60.0024001,62bbe60bf3d75ef465d3e404,0,97,97,108,1,threeone,,,,,,,,,,,,,,,,,,,,,,,,,,,,,,,,,,,,,,,,,,,,,,,,,,,,,,,,,,,,,,,,,,,,,,,,,,,,,,,,,,,,,,,,,,,,,,,,,,,,,,,,,,,,,,,,,,,,,,,,,,,,,,,,,,,,,,,,,,,,,,,,,,,,,,,,
,,,,,,5ec2cf4c3542420fa914f4b9,62bbfb536205431a697012c0,2022-06-29_08h12.31.131,Colour_Asymmetry_Pilot,2022.1.3,MacIntel,60.0024001,62bbe60bf3d75ef465d3e404,0,98,98,118,1,fourtwo,,,,,,,,,,,,,,,,,,,,,,,,,,,,,,,,,,,,,,,,,,,,,,,,,,,,,,,,,,,,,,,,,,,,,,,,,,,,,,,,,,,,,,,,,,,,,,,,,,,,,,,,,,,,,,,,,,,,,,,,,,,,,,,,,,,,,,,,,,,,,,,,,,,,,,,,
,,,,,,5ec2cf4c3542420fa914f4b9,62bbfb536205431a697012c0,2022-06-29_08h12.31.131,Colour_Asymmetry_Pilot,2022.1.3,MacIntel,60.0024001,62bbe60bf3d75ef465d3e404,0,99,99,68,1,threeone,,,,,,,,,,,,,,,,,,,,,,,,,,,,,,,,,,,,,,,,,,,,,,,,,,,,,,,,,,,,,,,,,,,,,,,,,,,,,,,,,,,,,,,,,,,,,,,,,,,,,,,,,,,,,,,,,,,,,,,,,,,,,,,,,,,,,,,,,,,,,,,,,,,,,,,,
,,,,,,5ec2cf4c3542420fa914f4b9,62bbfb536205431a697012c0,2022-06-29_08h12.31.131,Colour_Asymmetry_Pilot,2022.1.3,MacIntel,60.0024001,62bbe60bf3d75ef465d3e404,0,100,100,104,1,onetwo,,,,,,,,,,,,,,,,,,,,,,,,,,,,,,,,,,,,,,,,,,,,,,,,,,,,,,,,,,,,,,,,,,,,,,,,,,,,,,,,,,,,,,,,,,,,,,,,,,,,,,,,,,,,,,,,,,,,,,,,,,,,,,,,,,,,,,,,,,,,,,,,,,,,,,,,
,,,,,,5ec2cf4c3542420fa914f4b9,62bbfb536205431a697012c0,2022-06-29_08h12.31.131,Colour_Asymmetry_Pilot,2022.1.3,MacIntel,60.0024001,62bbe60bf3d75ef465d3e404,0,101,101,84,1,threeone,,,,,,,,,,,,,,,,,,,,,,,,,,,,,,,,,,,,,,,,,,,,,,,,,,,,,,,,,,,,,,,,,,,,,,,,,,,,,,,,,,,,,,,,,,,,,,,,,,,,,,,,,,,,,,,,,,,,,,,,,,,,,,,,,,,,,,,,,,,,,,,,,,,,,,,,
,,,,,,5ec2cf4c3542420fa914f4b9,62bbfb536205431a697012c0,2022-06-29_08h12.31.131,Colour_Asymmetry_Pilot,2022.1.3,MacIntel,60.0024001,62bbe60bf3d75ef465d3e404,0,102,102,121,1,onethree,,,,,,,,,,,,,,,,,,,,,,,,,,,,,,,,,,,,,,,,,,,,,,,,,,,,,,,,,,,,,,,,,,,,,,,,,,,,,,,,,,,,,,,,,,,,,,,,,,,,,,,,,,,,,,,,,,,,,,,,,,,,,,,,,,,,,,,,,,,,,,,,,,,,,,,,
,,,,,,5ec2cf4c3542420fa914f4b9,62bbfb536205431a697012c0,2022-06-29_08h12.31.131,Colour_Asymmetry_Pilot,2022.1.3,MacIntel,60.0024001,62bbe60bf3d75ef465d3e404,0,103,103,154,1,twoone,,,,,,,,,,,,,,,,,,,,,,,,,,,,,,,,,,,,,,,,,,,,,,,,,,,,,,,,,,,,,,,,,,,,,,,,,,,,,,,,,,,,,,,,,,,,,,,,,,,,,,,,,,,,,,,,,,,,,,,,,,,,,,,,,,,,,,,,,,,,,,,,,,,,,,,,
,,,,,,5ec2cf4c3542420fa914f4b9,62bbfb536205431a697012c0,2022-06-29_08h12.31.131,Colour_Asymmetry_Pilot,2022.1.3,MacIntel,60.0024001,62bbe60bf3d75ef465d3e404,0,104,104,150,1,fourtwo,,,,,,,,,,,,,,,,,,,,,,,,,,,,,,,,,,,,,,,,,,,,,,,,,,,,,,,,,,,,,,,,,,,,,,,,,,,,,,,,,,,,,,,,,,,,,,,,,,,,,,,,,,,,,,,,,,,,,,,,,,,,,,,,,,,,,,,,,,,,,,,,,,,,,,,,
,,,,,,5ec2cf4c3542420fa914f4b9,62bbfb536205431a697012c0,2022-06-29_08h12.31.131,Colour_Asymmetry_Pilot,2022.1.3,MacIntel,60.0024001,62bbe60bf3d75ef465d3e404,0,105,105,21,1,threefour,,,,,,,,,,,,,,,,,,,,,,,,,,,,,,,,,,,,,,,,,,,,,,,,,,,,,,,,,,,,,,,,,,,,,,,,,,,,,,,,,,,,,,,,,,,,,,,,,,,,,,,,,,,,,,,,,,,,,,,,,,,,,,,,,,,,,,,,,,,,,,,,,,,,,,,,
,,,,,,5ec2cf4c3542420fa914f4b9,62bbfb536205431a697012c0,2022-06-29_08h12.31.131,Colour_Asymmetry_Pilot,2022.1.3,MacIntel,60.0024001,62bbe60bf3d75ef465d3e404,0,106,106,152,1,onetwo,,,,,,,,,,,,,,,,,,,,,,,,,,,,,,,,,,,,,,,,,,,,,,,,,,,,,,,,,,,,,,,,,,,,,,,,,,,,,,,,,,,,,,,,,,,,,,,,,,,,,,,,,,,,,,,,,,,,,,,,,,,,,,,,,,,,,,,,,,,,,,,,,,,,,,,,
,,,,,,5ec2cf4c3542420fa914f4b9,62bbfb536205431a697012c0,2022-06-29_08h12.31.131,Colour_Asymmetry_Pilot,2022.1.3,MacIntel,60.0024001,62bbe60bf3d75ef465d3e404,0,107,107,130,1,twoone,,,,,,,,,,,,,,,,,,,,,,,,,,,,,,,,,,,,,,,,,,,,,,,,,,,,,,,,,,,,,,,,,,,,,,,,,,,,,,,,,,,,,,,,,,,,,,,,,,,,,,,,,,,,,,,,,,,,,,,,,,,,,,,,,,,,,,,,,,,,,,,,,,,,,,,,
,,,,,,5ec2cf4c3542420fa914f4b9,62bbfb536205431a697012c0,2022-06-29_08h12.31.131,Colour_Asymmetry_Pilot,2022.1.3,MacIntel,60.0024001,62bbe60bf3d75ef465d3e404,0,108,108,117,1,threefour,,,,,,,,,,,,,,,,,,,,,,,,,,,,,,,,,,,,,,,,,,,,,,,,,,,,,,,,,,,,,,,,,,,,,,,,,,,,,,,,,,,,,,,,,,,,,,,,,,,,,,,,,,,,,,,,,,,,,,,,,,,,,,,,,,,,,,,,,,,,,,,,,,,,,,,,
,,,,,,5ec2cf4c3542420fa914f4b9,62bbfb536205431a697012c0,2022-06-29_08h12.31.131,Colour_Asymmetry_Pilot,2022.1.3,MacIntel,60.0024001,62bbe60bf3d75ef465d3e404,0,109,109,75,1,twofour,,,,,,,,,,,,,,,,,,,,,,,,,,,,,,,,,,,,,,,,,,,,,,,,,,,,,,,,,,,,,,,,,,,,,,,,,,,,,,,,,,,,,,,,,,,,,,,,,,,,,,,,,,,,,,,,,,,,,,,,,,,,,,,,,,,,,,,,,,,,,,,,,,,,,,,,
,,,,,,5ec2cf4c3542420fa914f4b9,62bbfb536205431a697012c0,2022-06-29_08h12.31.131,Colour_Asymmetry_Pilot,2022.1.3,MacIntel,60.0024001,62bbe60bf3d75ef465d3e404,0,110,110,110,1,fourtwo,,,,,,,,,,,,,,,,,,,,,,,,,,,,,,,,,,,,,,,,,,,,,,,,,,,,,,,,,,,,,,,,,,,,,,,,,,,,,,,,,,,,,,,,,,,,,,,,,,,,,,,,,,,,,,,,,,,,,,,,,,,,,,,,,,,,,,,,,,,,,,,,,,,,,,,,
,,,,,,5ec2cf4c3542420fa914f4b9,62bbfb536205431a697012c0,2022-06-29_08h12.31.131,Colour_Asymmetry_Pilot,2022.1.3,MacIntel,60.0024001,62bbe60bf3d75ef465d3e404,0,111,111,128,1,onetwo,,,,,,,,,,,,,,,,,,,,,,,,,,,,,,,,,,,,,,,,,,,,,,,,,,,,,,,,,,,,,,,,,,,,,,,,,,,,,,,,,,,,,,,,,,,,,,,,,,,,,,,,,,,,,,,,,,,,,,,,,,,,,,,,,,,,,,,,,,,,,,,,,,,,,,,,
,,,,,,5ec2cf4c3542420fa914f4b9,62bbfb536205431a697012c0,2022-06-29_08h12.31.131,Colour_Asymmetry_Pilot,2022.1.3,MacIntel,60.0024001,62bbe60bf3d75ef465d3e404,0,112,112,5,1,threefour,,,,,,,,,,,,,,,,,,,,,,,,,,,,,,,,,,,,,,,,,,,,,,,,,,,,,,,,,,,,,,,,,,,,,,,,,,,,,,,,,,,,,,,,,,,,,,,,,,,,,,,,,,,,,,,,,,,,,,,,,,,,,,,,,,,,,,,,,,,,,,,,,,,,,,,,
,,,,,,5ec2cf4c3542420fa914f4b9,62bbfb536205431a697012c0,2022-06-29_08h12.31.131,Colour_Asymmetry_Pilot,2022.1.3,MacIntel,60.0024001,62bbe60bf3d75ef465d3e404,0,113,113,70,1,fourtwo,,,,,,,,,,,,,,,,,,,,,,,,,,,,,,,,,,,,,,,,,,,,,,,,,,,,,,,,,,,,,,,,,,,,,,,,,,,,,,,,,,,,,,,,,,,,,,,,,,,,,,,,,,,,,,,,,,,,,,,,,,,,,,,,,,,,,,,,,,,,,,,,,,,,,,,,
,,,,,,5ec2cf4c3542420fa914f4b9,62bbfb536205431a697012c0,2022-06-29_08h12.31.131,Colour_Asymmetry_Pilot,2022.1.3,MacIntel,60.0024001,62bbe60bf3d75ef465d3e404,0,114,114,39,1,fourthree,,,,,,,,,,,,,,,,,,,,,,,,,,,,,,,,,,,,,,,,,,,,,,,,,,,,,,,,,,,,,,,,,,,,,,,,,,,,,,,,,,,,,,,,,,,,,,,,,,,,,,,,,,,,,,,,,,,,,,,,,,,,,,,,,,,,,,,,,,,,,,,,,,,,,,,,
,,,,,,5ec2cf4c3542420fa914f4b9,62bbfb536205431a697012c0,2022-06-29_08h12.31.131,Colour_Asymmetry_Pilot,2022.1.3,MacIntel,60.0024001,62bbe60bf3d75ef465d3e404,0,115,115,126,1,fourtwo,,,,,,,,,,,,,,,,,,,,,,,,,,,,,,,,,,,,,,,,,,,,,,,,,,,,,,,,,,,,,,,,,,,,,,,,,,,,,,,,,,,,,,,,,,,,,,,,,,,,,,,,,,,,,,,,,,,,,,,,,,,,,,,,,,,,,,,,,,,,,,,,,,,,,,,,
,,,,,,5ec2cf4c3542420fa914f4b9,62bbfb536205431a697012c0,2022-06-29_08h12.31.131,Colour_Asymmetry_Pilot,2022.1.3,MacIntel,60.0024001,62bbe60bf3d75ef465d3e404,0,116,116,24,1,onetwo,,,,,,,,,,,,,,,,,,,,,,,,,,,,,,,,,,,,,,,,,,,,,,,,,,,,,,,,,,,,,,,,,,,,,,,,,,,,,,,,,,,,,,,,,,,,,,,,,,,,,,,,,,,,,,,,,,,,,,,,,,,,,,,,,,,,,,,,,,,,,,,,,,,,,,,,
,,,,,,5ec2cf4c3542420fa914f4b9,62bbfb536205431a697012c0,2022-06-29_08h12.31.131,Colour_Asymmetry_Pilot,2022.1.3,MacIntel,60.0024001,62bbe60bf3d75ef465d3e404,0,117,117,25,1,onethree,,,,,,,,,,,,,,,,,,,,,,,,,,,,,,,,,,,,,,,,,,,,,,,,,,,,,,,,,,,,,,,,,,,,,,,,,,,,,,,,,,,,,,,,,,,,,,,,,,,,,,,,,,,,,,,,,,,,,,,,,,,,,,,,,,,,,,,,,,,,,,,,,,,,,,,,
,,,,,,5ec2cf4c3542420fa914f4b9,62bbfb536205431a697012c0,2022-06-29_08h12.31.131,Colour_Asymmetry_Pilot,2022.1.3,MacIntel,60.0024001,62bbe60bf3d75ef465d3e404,0,118,118,77,1,threefour,,,,,,,,,,,,,,,,,,,,,,,,,,,,,,,,,,,,,,,,,,,,,,,,,,,,,,,,,,,,,,,,,,,,,,,,,,,,,,,,,,,,,,,,,,,,,,,,,,,,,,,,,,,,,,,,,,,,,,,,,,,,,,,,,,,,,,,,,,,,,,,,,,,,,,,,
,,,,,,5ec2cf4c3542420fa914f4b9,62bbfb536205431a697012c0,2022-06-29_08h12.31.131,Colour_Asymmetry_Pilot,2022.1.3,MacIntel,60.0024001,62bbe60bf3d75ef465d3e404,0,119,119,49,1,onethree,,,,,,,,,,,,,,,,,,,,,,,,,,,,,,,,,,,,,,,,,,,,,,,,,,,,,,,,,,,,,,,,,,,,,,,,,,,,,,,,,,,,,,,,,,,,,,,,,,,,,,,,,,,,,,,,,,,,,,,,,,,,,,,,,,,,,,,,,,,,,,,,,,,,,,,,
,,,,,,5ec2cf4c3542420fa914f4b9,62bbfb536205431a697012c0,2022-06-29_08h12.31.131,Colour_Asymmetry_Pilot,2022.1.3,MacIntel,60.0024001,62bbe60bf3d75ef465d3e404,0,120,120,105,1,onethree,,,,,,,,,,,,,,,,,,,,,,,,,,,,,,,,,,,,,,,,,,,,,,,,,,,,,,,,,,,,,,,,,,,,,,,,,,,,,,,,,,,,,,,,,,,,,,,,,,,,,,,,,,,,,,,,,,,,,,,,,,,,,,,,,,,,,,,,,,,,,,,,,,,,,,,,
,,,,,,5ec2cf4c3542420fa914f4b9,62bbfb536205431a697012c0,2022-06-29_08h12.31.131,Colour_Asymmetry_Pilot,2022.1.3,MacIntel,60.0024001,62bbe60bf3d75ef465d3e404,0,121,121,0,1,onetwo,,,,,,,,,,,,,,,,,,,,,,,,,,,,,,,,,,,,,,,,,,,,,,,,,,,,,,,,,,,,,,,,,,,,,,,,,,,,,,,,,,,,,,,,,,,,,,,,,,,,,,,,,,,,,,,,,,,,,,,,,,,,,,,,,,,,,,,,,,,,,,,,,,,,,,,,
,,,,,,5ec2cf4c3542420fa914f4b9,62bbfb536205431a697012c0,2022-06-29_08h12.31.131,Colour_Asymmetry_Pilot,2022.1.3,MacIntel,60.0024001,62bbe60bf3d75ef465d3e404,0,122,122,97,1,onethree,,,,,,,,,,,,,,,,,,,,,,,,,,,,,,,,,,,,,,,,,,,,,,,,,,,,,,,,,,,,,,,,,,,,,,,,,,,,,,,,,,,,,,,,,,,,,,,,,,,,,,,,,,,,,,,,,,,,,,,,,,,,,,,,,,,,,,,,,,,,,,,,,,,,,,,,
,,,,,,5ec2cf4c3542420fa914f4b9,62bbfb536205431a697012c0,2022-06-29_08h12.31.131,Colour_Asymmetry_Pilot,2022.1.3,MacIntel,60.0024001,62bbe60bf3d75ef465d3e404,0,123,123,7,1,fourthree,,,,,,,,,,,,,,,,,,,,,,,,,,,,,,,,,,,,,,,,,,,,,,,,,,,,,,,,,,,,,,,,,,,,,,,,,,,,,,,,,,,,,,,,,,,,,,,,,,,,,,,,,,,,,,,,,,,,,,,,,,,,,,,,,,,,,,,,,,,,,,,,,,,,,,,,
,,,,,,5ec2cf4c3542420fa914f4b9,62bbfb536205431a697012c0,2022-06-29_08h12.31.131,Colour_Asymmetry_Pilot,2022.1.3,MacIntel,60.0024001,62bbe60bf3d75ef465d3e404,0,124,124,43,1,twofour,,,,,,,,,,,,,,,,,,,,,,,,,,,,,,,,,,,,,,,,,,,,,,,,,,,,,,,,,,,,,,,,,,,,,,,,,,,,,,,,,,,,,,,,,,,,,,,,,,,,,,,,,,,,,,,,,,,,,,,,,,,,,,,,,,,,,,,,,,,,,,,,,,,,,,,,
,,,,,,5ec2cf4c3542420fa914f4b9,62bbfb536205431a697012c0,2022-06-29_08h12.31.131,Colour_Asymmetry_Pilot,2022.1.3,MacIntel,60.0024001,62bbe60bf3d75ef465d3e404,0,125,125,59,1,twofour,,,,,,,,,,,,,,,,,,,,,,,,,,,,,,,,,,,,,,,,,,,,,,,,,,,,,,,,,,,,,,,,,,,,,,,,,,,,,,,,,,,,,,,,,,,,,,,,,,,,,,,,,,,,,,,,,,,,,,,,,,,,,,,,,,,,,,,,,,,,,,,,,,,,,,,,
,,,,,,5ec2cf4c3542420fa914f4b9,62bbfb536205431a697012c0,2022-06-29_08h12.31.131,Colour_Asymmetry_Pilot,2022.1.3,MacIntel,60.0024001,62bbe60bf3d75ef465d3e404,0,126,126,32,1,onetwo,,,,,,,,,,,,,,,,,,,,,,,,,,,,,,,,,,,,,,,,,,,,,,,,,,,,,,,,,,,,,,,,,,,,,,,,,,,,,,,,,,,,,,,,,,,,,,,,,,,,,,,,,,,,,,,,,,,,,,,,,,,,,,,,,,,,,,,,,,,,,,,,,,,,,,,,
,,,,,,5ec2cf4c3542420fa914f4b9,62bbfb536205431a697012c0,2022-06-29_08h12.31.131,Colour_Asymmetry_Pilot,2022.1.3,MacIntel,60.0024001,62bbe60bf3d75ef465d3e404,0,127,127,47,1,fourthree,,,,,,,,,,,,,,,,,,,,,,,,,,,,,,,,,,,,,,,,,,,,,,,,,,,,,,,,,,,,,,,,,,,,,,,,,,,,,,,,,,,,,,,,,,,,,,,,,,,,,,,,,,,,,,,,,,,,,,,,,,,,,,,,,,,,,,,,,,,,,,,,,,,,,,,,
,,,,,,5ec2cf4c3542420fa914f4b9,62bbfb536205431a697012c0,2022-06-29_08h12.31.131,Colour_Asymmetry_Pilot,2022.1.3,MacIntel,60.0024001,62bbe60bf3d75ef465d3e404,0,128,128,107,1,twofour,,,,,,,,,,,,,,,,,,,,,,,,,,,,,,,,,,,,,,,,,,,,,,,,,,,,,,,,,,,,,,,,,,,,,,,,,,,,,,,,,,,,,,,,,,,,,,,,,,,,,,,,,,,,,,,,,,,,,,,,,,,,,,,,,,,,,,,,,,,,,,,,,,,,,,,,
,,,,,,5ec2cf4c3542420fa914f4b9,62bbfb536205431a697012c0,2022-06-29_08h12.31.131,Colour_Asymmetry_Pilot,2022.1.3,MacIntel,60.0024001,62bbe60bf3d75ef465d3e404,0,129,129,120,1,onetwo,,,,,,,,,,,,,,,,,,,,,,,,,,,,,,,,,,,,,,,,,,,,,,,,,,,,,,,,,,,,,,,,,,,,,,,,,,,,,,,,,,,,,,,,,,,,,,,,,,,,,,,,,,,,,,,,,,,,,,,,,,,,,,,,,,,,,,,,,,,,,,,,,,,,,,,,
,,,,,,5ec2cf4c3542420fa914f4b9,62bbfb536205431a697012c0,2022-06-29_08h12.31.131,Colour_Asymmetry_Pilot,2022.1.3,MacIntel,60.0024001,62bbe60bf3d75ef465d3e404,0,130,130,145,1,onethree,,,,,,,,,,,,,,,,,,,,,,,,,,,,,,,,,,,,,,,,,,,,,,,,,,,,,,,,,,,,,,,,,,,,,,,,,,,,,,,,,,,,,,,,,,,,,,,,,,,,,,,,,,,,,,,,,,,,,,,,,,,,,,,,,,,,,,,,,,,,,,,,,,,,,,,,
,,,,,,5ec2cf4c3542420fa914f4b9,62bbfb536205431a697012c0,2022-06-29_08h12.31.131,Colour_Asymmetry_Pilot,2022.1.3,MacIntel,60.0024001,62bbe60bf3d75ef465d3e404,0,131,131,157,1,threefour,,,,,,,,,,,,,,,,,,,,,,,,,,,,,,,,,,,,,,,,,,,,,,,,,,,,,,,,,,,,,,,,,,,,,,,,,,,,,,,,,,,,,,,,,,,,,,,,,,,,,,,,,,,,,,,,,,,,,,,,,,,,,,,,,,,,,,,,,,,,,,,,,,,,,,,,
,,,,,,5ec2cf4c3542420fa914f4b9,62bbfb536205431a697012c0,2022-06-29_08h12.31.131,Colour_Asymmetry_Pilot,2022.1.3,MacIntel,60.0024001,62bbe60bf3d75ef465d3e404,0,132,132,29,1,threefour,,,,,,,,,,,,,,,,,,,,,,,,,,,,,,,,,,,,,,,,,,,,,,,,,,,,,,,,,,,,,,,,,,,,,,,,,,,,,,,,,,,,,,,,,,,,,,,,,,,,,,,,,,,,,,,,,,,,,,,,,,,,,,,,,,,,,,,,,,,,,,,,,,,,,,,,
,,,,,,5ec2cf4c3542420fa914f4b9,62bbfb536205431a697012c0,2022-06-29_08h12.31.131,Colour_Asymmetry_Pilot,2022.1.3,MacIntel,60.0024001,62bbe60bf3d75ef465d3e404,0,133,133,124,1,threeone,,,,,,,,,,,,,,,,,,,,,,,,,,,,,,,,,,,,,,,,,,,,,,,,,,,,,,,,,,,,,,,,,,,,,,,,,,,,,,,,,,,,,,,,,,,,,,,,,,,,,,,,,,,,,,,,,,,,,,,,,,,,,,,,,,,,,,,,,,,,,,,,,,,,,,,,
,,,,,,5ec2cf4c3542420fa914f4b9,62bbfb536205431a697012c0,2022-06-29_08h12.31.131,Colour_Asymmetry_Pilot,2022.1.3,MacIntel,60.0024001,62bbe60bf3d75ef465d3e404,0,134,134,73,1,onethree,,,,,,,,,,,,,,,,,,,,,,,,,,,,,,,,,,,,,,,,,,,,,,,,,,,,,,,,,,,,,,,,,,,,,,,,,,,,,,,,,,,,,,,,,,,,,,,,,,,,,,,,,,,,,,,,,,,,,,,,,,,,,,,,,,,,,,,,,,,,,,,,,,,,,,,,
,,,,,,5ec2cf4c3542420fa914f4b9,62bbfb536205431a697012c0,2022-06-29_08h12.31.131,Colour_Asymmetry_Pilot,2022.1.3,MacIntel,60.0024001,62bbe60bf3d75ef465d3e404,0,135,135,144,1,onetwo,,,,,,,,,,,,,,,,,,,,,,,,,,,,,,,,,,,,,,,,,,,,,,,,,,,,,,,,,,,,,,,,,,,,,,,,,,,,,,,,,,,,,,,,,,,,,,,,,,,,,,,,,,,,,,,,,,,,,,,,,,,,,,,,,,,,,,,,,,,,,,,,,,,,,,,,
,,,,,,5ec2cf4c3542420fa914f4b9,62bbfb536205431a697012c0,2022-06-29_08h12.31.131,Colour_Asymmetry_Pilot,2022.1.3,MacIntel,60.0024001,62bbe60bf3d75ef465d3e404,0,136,136,17,1,onethree,,,,,,,,,,,,,,,,,,,,,,,,,,,,,,,,,,,,,,,,,,,,,,,,,,,,,,,,,,,,,,,,,,,,,,,,,,,,,,,,,,,,,,,,,,,,,,,,,,,,,,,,,,,,,,,,,,,,,,,,,,,,,,,,,,,,,,,,,,,,,,,,,,,,,,,,
,,,,,,5ec2cf4c3542420fa914f4b9,62bbfb536205431a697012c0,2022-06-29_08h12.31.131,Colour_Asymmetry_Pilot,2022.1.3,MacIntel,60.0024001,62bbe60bf3d75ef465d3e404,0,137,137,63,1,fourthree,,,,,,,,,,,,,,,,,,,,,,,,,,,,,,,,,,,,,,,,,,,,,,,,,,,,,,,,,,,,,,,,,,,,,,,,,,,,,,,,,,,,,,,,,,,,,,,,,,,,,,,,,,,,,,,,,,,,,,,,,,,,,,,,,,,,,,,,,,,,,,,,,,,,,,,,
,,,,,,5ec2cf4c3542420fa914f4b9,62bbfb536205431a697012c0,2022-06-29_08h12.31.131,Colour_Asymmetry_Pilot,2022.1.3,MacIntel,60.0024001,62bbe60bf3d75ef465d3e404,0,138,138,48,1,onetwo,,,,,,,,,,,,,,,,,,,,,,,,,,,,,,,,,,,,,,,,,,,,,,,,,,,,,,,,,,,,,,,,,,,,,,,,,,,,,,,,,,,,,,,,,,,,,,,,,,,,,,,,,,,,,,,,,,,,,,,,,,,,,,,,,,,,,,,,,,,,,,,,,,,,,,,,
,,,,,,5ec2cf4c3542420fa914f4b9,62bbfb536205431a697012c0,2022-06-29_08h12.31.131,Colour_Asymmetry_Pilot,2022.1.3,MacIntel,60.0024001,62bbe60bf3d75ef465d3e404,0,139,139,65,1,onethree,,,,,,,,,,,,,,,,,,,,,,,,,,,,,,,,,,,,,,,,,,,,,,,,,,,,,,,,,,,,,,,,,,,,,,,,,,,,,,,,,,,,,,,,,,,,,,,,,,,,,,,,,,,,,,,,,,,,,,,,,,,,,,,,,,,,,,,,,,,,,,,,,,,,,,,,
,,,,,,5ec2cf4c3542420fa914f4b9,62bbfb536205431a697012c0,2022-06-29_08h12.31.131,Colour_Asymmetry_Pilot,2022.1.3,MacIntel,60.0024001,62bbe60bf3d75ef465d3e404,0,140,140,151,1,fourthree,,,,,,,,,,,,,,,,,,,,,,,,,,,,,,,,,,,,,,,,,,,,,,,,,,,,,,,,,,,,,,,,,,,,,,,,,,,,,,,,,,,,,,,,,,,,,,,,,,,,,,,,,,,,,,,,,,,,,,,,,,,,,,,,,,,,,,,,,,,,,,,,,,,,,,,,
,,,,,,5ec2cf4c3542420fa914f4b9,62bbfb536205431a697012c0,2022-06-29_08h12.31.131,Colour_Asymmetry_Pilot,2022.1.3,MacIntel,60.0024001,62bbe60bf3d75ef465d3e404,0,141,141,46,1,fourtwo,,,,,,,,,,,,,,,,,,,,,,,,,,,,,,,,,,,,,,,,,,,,,,,,,,,,,,,,,,,,,,,,,,,,,,,,,,,,,,,,,,,,,,,,,,,,,,,,,,,,,,,,,,,,,,,,,,,,,,,,,,,,,,,,,,,,,,,,,,,,,,,,,,,,,,,,
,,,,,,5ec2cf4c3542420fa914f4b9,62bbfb536205431a697012c0,2022-06-29_08h12.31.131,Colour_Asymmetry_Pilot,2022.1.3,MacIntel,60.0024001,62bbe60bf3d75ef465d3e404,0,142,142,94,1,fourtwo,,,,,,,,,,,,,,,,,,,,,,,,,,,,,,,,,,,,,,,,,,,,,,,,,,,,,,,,,,,,,,,,,,,,,,,,,,,,,,,,,,,,,,,,,,,,,,,,,,,,,,,,,,,,,,,,,,,,,,,,,,,,,,,,,,,,,,,,,,,,,,,,,,,,,,,,
,,,,,,5ec2cf4c3542420fa914f4b9,62bbfb536205431a697012c0,2022-06-29_08h12.31.131,Colour_Asymmetry_Pilot,2022.1.3,MacIntel,60.0024001,62bbe60bf3d75ef465d3e404,0,143,143,92,1,threeone,,,,,,,,,,,,,,,,,,,,,,,,,,,,,,,,,,,,,,,,,,,,,,,,,,,,,,,,,,,,,,,,,,,,,,,,,,,,,,,,,,,,,,,,,,,,,,,,,,,,,,,,,,,,,,,,,,,,,,,,,,,,,,,,,,,,,,,,,,,,,,,,,,,,,,,,
,,,,,,5ec2cf4c3542420fa914f4b9,62bbfb536205431a697012c0,2022-06-29_08h12.31.131,Colour_Asymmetry_Pilot,2022.1.3,MacIntel,60.0024001,62bbe60bf3d75ef465d3e404,0,144,144,142,1,fourtwo,,,,,,,,,,,,,,,,,,,,,,,,,,,,,,,,,,,,,,,,,,,,,,,,,,,,,,,,,,,,,,,,,,,,,,,,,,,,,,,,,,,,,,,,,,,,,,,,,,,,,,,,,,,,,,,,,,,,,,,,,,,,,,,,,,,,,,,,,,,,,,,,,,,,,,,,
,,,,,,5ec2cf4c3542420fa914f4b9,62bbfb536205431a697012c0,2022-06-29_08h12.31.131,Colour_Asymmetry_Pilot,2022.1.3,MacIntel,60.0024001,62bbe60bf3d75ef465d3e404,0,145,145,36,1,threeone,,,,,,,,,,,,,,,,,,,,,,,,,,,,,,,,,,,,,,,,,,,,,,,,,,,,,,,,,,,,,,,,,,,,,,,,,,,,,,,,,,,,,,,,,,,,,,,,,,,,,,,,,,,,,,,,,,,,,,,,,,,,,,,,,,,,,,,,,,,,,,,,,,,,,,,,
,,,,,,5ec2cf4c3542420fa914f4b9,62bbfb536205431a697012c0,2022-06-29_08h12.31.131,Colour_Asymmetry_Pilot,2022.1.3,MacIntel,60.0024001,62bbe60bf3d75ef465d3e404,0,146,146,4,1,threeone,,,,,,,,,,,,,,,,,,,,,,,,,,,,,,,,,,,,,,,,,,,,,,,,,,,,,,,,,,,,,,,,,,,,,,,,,,,,,,,,,,,,,,,,,,,,,,,,,,,,,,,,,,,,,,,,,,,,,,,,,,,,,,,,,,,,,,,,,,,,,,,,,,,,,,,,
,,,,,,5ec2cf4c3542420fa914f4b9,62bbfb536205431a697012c0,2022-06-29_08h12.31.131,Colour_Asymmetry_Pilot,2022.1.3,MacIntel,60.0024001,62bbe60bf3d75ef465d3e404,0,147,147,100,1,threeone,,,,,,,,,,,,,,,,,,,,,,,,,,,,,,,,,,,,,,,,,,,,,,,,,,,,,,,,,,,,,,,,,,,,,,,,,,,,,,,,,,,,,,,,,,,,,,,,,,,,,,,,,,,,,,,,,,,,,,,,,,,,,,,,,,,,,,,,,,,,,,,,,,,,,,,,
,,,,,,5ec2cf4c3542420fa914f4b9,62bbfb536205431a697012c0,2022-06-29_08h12.31.131,Colour_Asymmetry_Pilot,2022.1.3,MacIntel,60.0024001,62bbe60bf3d75ef465d3e404,0,148,148,30,1,fourtwo,,,,,,,,,,,,,,,,,,,,,,,,,,,,,,,,,,,,,,,,,,,,,,,,,,,,,,,,,,,,,,,,,,,,,,,,,,,,,,,,,,,,,,,,,,,,,,,,,,,,,,,,,,,,,,,,,,,,,,,,,,,,,,,,,,,,,,,,,,,,,,,,,,,,,,,,
,,,,,,5ec2cf4c3542420fa914f4b9,62bbfb536205431a697012c0,2022-06-29_08h12.31.131,Colour_Asymmetry_Pilot,2022.1.3,MacIntel,60.0024001,62bbe60bf3d75ef465d3e404,0,149,149,27,1,twofour,,,,,,,,,,,,,,,,,,,,,,,,,,,,,,,,,,,,,,,,,,,,,,,,,,,,,,,,,,,,,,,,,,,,,,,,,,,,,,,,,,,,,,,,,,,,,,,,,,,,,,,,,,,,,,,,,,,,,,,,,,,,,,,,,,,,,,,,,,,,,,,,,,,,,,,,
,,,,,,5ec2cf4c3542420fa914f4b9,62bbfb536205431a697012c0,2022-06-29_08h12.31.131,Colour_Asymmetry_Pilot,2022.1.3,MacIntel,60.0024001,62bbe60bf3d75ef465d3e404,0,150,150,76,1,threeone,,,,,,,,,,,,,,,,,,,,,,,,,,,,,,,,,,,,,,,,,,,,,,,,,,,,,,,,,,,,,,,,,,,,,,,,,,,,,,,,,,,,,,,,,,,,,,,,,,,,,,,,,,,,,,,,,,,,,,,,,,,,,,,,,,,,,,,,,,,,,,,,,,,,,,,,
,,,,,,5ec2cf4c3542420fa914f4b9,62bbfb536205431a697012c0,2022-06-29_08h12.31.131,Colour_Asymmetry_Pilot,2022.1.3,MacIntel,60.0024001,62bbe60bf3d75ef465d3e404,0,151,151,143,1,fourthree,,,,,,,,,,,,,,,,,,,,,,,,,,,,,,,,,,,,,,,,,,,,,,,,,,,,,,,,,,,,,,,,,,,,,,,,,,,,,,,,,,,,,,,,,,,,,,,,,,,,,,,,,,,,,,,,,,,,,,,,,,,,,,,,,,,,,,,,,,,,,,,,,,,,,,,,
,,,,,,5ec2cf4c3542420fa914f4b9,62bbfb536205431a697012c0,2022-06-29_08h12.31.131,Colour_Asymmetry_Pilot,2022.1.3,MacIntel,60.0024001,62bbe60bf3d75ef465d3e404,0,152,152,139,1,twofour,,,,,,,,,,,,,,,,,,,,,,,,,,,,,,,,,,,,,,,,,,,,,,,,,,,,,,,,,,,,,,,,,,,,,,,,,,,,,,,,,,,,,,,,,,,,,,,,,,,,,,,,,,,,,,,,,,,,,,,,,,,,,,,,,,,,,,,,,,,,,,,,,,,,,,,,
,,,,,,5ec2cf4c3542420fa914f4b9,62bbfb536205431a697012c0,2022-06-29_08h12.31.131,Colour_Asymmetry_Pilot,2022.1.3,MacIntel,60.0024001,62bbe60bf3d75ef465d3e404,0,153,153,81,1,onethree,,,,,,,,,,,,,,,,,,,,,,,,,,,,,,,,,,,,,,,,,,,,,,,,,,,,,,,,,,,,,,,,,,,,,,,,,,,,,,,,,,,,,,,,,,,,,,,,,,,,,,,,,,,,,,,,,,,,,,,,,,,,,,,,,,,,,,,,,,,,,,,,,,,,,,,,
,,,,,,5ec2cf4c3542420fa914f4b9,62bbfb536205431a697012c0,2022-06-29_08h12.31.131,Colour_Asymmetry_Pilot,2022.1.3,MacIntel,60.0024001,62bbe60bf3d75ef465d3e404,0,154,154,13,1,threefour,,,,,,,,,,,,,,,,,,,,,,,,,,,,,,,,,,,,,,,,,,,,,,,,,,,,,,,,,,,,,,,,,,,,,,,,,,,,,,,,,,,,,,,,,,,,,,,,,,,,,,,,,,,,,,,,,,,,,,,,,,,,,,,,,,,,,,,,,,,,,,,,,,,,,,,,
,,,,,,5ec2cf4c3542420fa914f4b9,62bbfb536205431a697012c0,2022-06-29_08h12.31.131,Colour_Asymmetry_Pilot,2022.1.3,MacIntel,60.0024001,62bbe60bf3d75ef465d3e404,0,155,155,160,1,onetwo,,,,,,,,,,,,,,,,,,,,,,,,,,,,,,,,,,,,,,,,,,,,,,,,,,,,,,,,,,,,,,,,,,,,,,,,,,,,,,,,,,,,,,,,,,,,,,,,,,,,,,,,,,,,,,,,,,,,,,,,,,,,,,,,,,,,,,,,,,,,,,,,,,,,,,,,
,,,,,,5ec2cf4c3542420fa914f4b9,62bbfb536205431a697012c0,2022-06-29_08h12.31.131,Colour_Asymmetry_Pilot,2022.1.3,MacIntel,60.0024001,62bbe60bf3d75ef465d3e404,0,156,156,91,1,twofour,,,,,,,,,,,,,,,,,,,,,,,,,,,,,,,,,,,,,,,,,,,,,,,,,,,,,,,,,,,,,,,,,,,,,,,,,,,,,,,,,,,,,,,,,,,,,,,,,,,,,,,,,,,,,,,,,,,,,,,,,,,,,,,,,,,,,,,,,,,,,,,,,,,,,,,,
,,,,,,5ec2cf4c3542420fa914f4b9,62bbfb536205431a697012c0,2022-06-29_08h12.31.131,Colour_Asymmetry_Pilot,2022.1.3,MacIntel,60.0024001,62bbe60bf3d75ef465d3e404,0,157,157,20,1,threeone,,,,,,,,,,,,,,,,,,,,,,,,,,,,,,,,,,,,,,,,,,,,,,,,,,,,,,,,,,,,,,,,,,,,,,,,,,,,,,,,,,,,,,,,,,,,,,,,,,,,,,,,,,,,,,,,,,,,,,,,,,,,,,,,,,,,,,,,,,,,,,,,,,,,,,,,
,,,,,,5ec2cf4c3542420fa914f4b9,62bbfb536205431a697012c0,2022-06-29_08h12.31.131,Colour_Asymmetry_Pilot,2022.1.3,MacIntel,60.0024001,62bbe60bf3d75ef465d3e404,0,158,158,99,1,twofour,,,,,,,,,,,,,,,,,,,,,,,,,,,,,,,,,,,,,,,,,,,,,,,,,,,,,,,,,,,,,,,,,,,,,,,,,,,,,,,,,,,,,,,,,,,,,,,,,,,,,,,,,,,,,,,,,,,,,,,,,,,,,,,,,,,,,,,,,,,,,,,,,,,,,,,,
,,,,,,5ec2cf4c3542420fa914f4b9,62bbfb536205431a697012c0,2022-06-29_08h12.31.131,Colour_Asymmetry_Pilot,2022.1.3,MacIntel,60.0024001,62bbe60bf3d75ef465d3e404,0,159,159,2,1,twoone,,,,,,,,,,,,,,,,,,,,,,,,,,,,,,,,,,,,,,,,,,,,,,,,,,,,,,,,,,,,,,,,,,,,,,,,,,,,,,,,,,,,,,,,,,,,,,,,,,,,,,,,,,,,,,,,,,,,,,,,,,,,,,,,,,,,,,,,,,,,,,,,,,,,,,,,
,,,,,,5ec2cf4c3542420fa914f4b9,62bbfb536205431a697012c0,2022-06-29_08h12.31.131,Colour_Asymmetry_Pilot,2022.1.3,MacIntel,60.0024001,62bbe60bf3d75ef465d3e404,0,160,160,127,1,fourthree,,,,,,,,,,,,,,,,,,,,,,,,,,,,,,,,,,,,,,,,,,,,,,,,,,,,,,,,,,,,,,,,,,,,,,,,,,,,,,,,,,,,,,,,,,,,,,,,,,,,,,,,,,,,,,,,,,,,,,,,,,,,,,,,,,,,,,,,,,,,,,,,,,,,,,,,
,,,,,,5ec2cf4c3542420fa914f4b9,62bbfb536205431a697012c0,2022-06-29_08h12.31.131,Colour_Asymmetry_Pilot,2022.1.3,MacIntel,60.0024001,62bbe60bf3d75ef465d3e404,0,161,161,41,1,onethree,,,,,,,,,,,,,,,,,,,,,,,,,,,,,,,,,,,,,,,,,,,,,,,,,,,,,,,,,,,,,,,,,,,,,,,,,,,,,,,,,,,,,,,,,,,,,,,,,,,,,,,,,,,,,,,,,,,,,,,,,,,,,,,,,,,,,,,,,,,,,,,,,,,,,,,,
,,,,,,5ec2cf4c3542420fa914f4b9,62bbfb536205431a697012c0,2022-06-29_08h12.31.131,Colour_Asymmetry_Pilot,2022.1.3,MacIntel,60.0024001,62bbe60bf3d75ef465d3e404,,,,,,,space,1.9031,space,2.2273,space,15.6269,space,11.9822,space,0.3311,space,1.7042,"[-0.4668,-0.8746,-0.2942]",fourthree,"[0.9763999999999999,-0.1137999999999999,-0.6314]",-4,8.4205,-34.625,97.34765625,1,0,0,response7disk_5,1.32421875,-6.87890625,1,0,0,rectangle_8,1.32421875,-6.87890625,1,0,0,4,1.32421875,-6.87890625,1,0,0,0,0,0,0,1,,,,,,,,,,,,,,,,,,,,,,,,,,,,,,,,,,,,,,,,,,,,,,,,,,,,,,,,,,,,,,,,,,,,,,,,,,,,,,,,,,,,,,,,,,,,,,,,,,,,,,,,,,,
,,,,,,5ec2cf4c3542420fa914f4b9,62bbfb536205431a697012c0,2022-06-29_08h12.31.131,Colour_Asymmetry_Pilot,2022.1.3,MacIntel,60.0024001,62bbe60bf3d75ef465d3e404,,,,,,,,,,,,,,,,,,,"[-0.09019999999999995,0.44300000000000006,0.5371999999999999]",threefour,"[-0.17659999999999998,-0.2864,-0.8354]",-3,2.632,-84.59765625,29.23828125,1,0,0,response7disk_5,-20.78125,1.95703125,1,0,0,rectangle_8,-20.78125,1.95703125,1,0,0,4,-20.78125,1.95703125,1,0,0,1,0,1,0,1,,,,,,,,,,,,,,,,,,,,,,,,,,,,,,,,,,,,,,,,,,,,,,,,,,,,,,,,,,,,,,,,,,,,,,,,,,,,,,,,,,,,,,,,,,,,,,,,,,,,,,,,,,,
,,,,,,5ec2cf4c3542420fa914f4b9,62bbfb536205431a697012c0,2022-06-29_08h12.31.131,Colour_Asymmetry_Pilot,2022.1.3,MacIntel,60.0024001,62bbe60bf3d75ef465d3e404,,,,,,,,,,,,,,,,,,,"[-0.01980000000000004,-0.5138,-0.38039999999999996]",twoone,"[-0.9766,-0.6472,0.07440000000000002]",1,3.3669,22.57421875,-85.1796875,1,0,0,response3disk_5,24.24609375,4.37890625,1,0,0,rectangle_8,41.38671875,86.046875,1,0,0,4,7.17578125,3.1640625,1,0,0,2,0,2,0,1,response1disk_7,7,rectangle_4,,,,,,,,,,,,,,,,,,,,,,,,,,,,,,,,,,,,,,,,,,,,,,,,,,,,,,,,,,,,,,,,,,,,,,,,,,,,,,,,,,,,,,,,,,,,,,,,,,,,,,,,
,,,,,,5ec2cf4c3542420fa914f4b9,62bbfb536205431a697012c0,2022-06-29_08h12.31.131,Colour_Asymmetry_Pilot,2022.1.3,MacIntel,60.0024001,62bbe60bf3d75ef465d3e404,,,,,,,,,,,,,,,,,,,"[-0.8198,-0.5138,-0.7492000000000001]",fourthree,"[-0.20799999999999996,-0.655,-0.01980000000000004]",-3,1.4832,-63.421875,31.109375,1,0,0,response7disk_5,-15.6796875,1.68359375,1,0,0,rectangle_8,-15.6796875,1.68359375,1,0,0,4,-15.6796875,1.68359375,1,0,0,3,0,3,0,1,,,,,,,,,,,,,,,,,,,,,,,,,,,,,,,,,,,,,,,,,,,,,,,,,,,,,,,,,,,,,,,,,,,,,,,,,,,,,,,,,,,,,,,,,,,,,,,,,,,,,,,,,,,
,,,,,,5ec2cf4c3542420fa914f4b9,62bbfb536205431a697012c0,2022-06-29_08h12.31.131,Colour_Asymmetry_Pilot,2022.1.3,MacIntel,60.0024001,62bbe60bf3d75ef465d3e404,,,,,,,,,,,,,,,,,,,"[-0.9688,-0.38039999999999996,-0.41979999999999995]",threeone,"[-0.48240000000000005,0.3175999999999999,0.2156]",2,1.6165,84.0390625,-62.0390625,1,0,0,response3disk_5,19.078125,-4.515625,1,0,0,rectangle_8,19.078125,-4.515625,1,0,0,4,19.078125,-4.515625,1,0,0,4,0,4,0,1,,,,,,,,,,,,,,,,,,,,,,,,,,,,,,,,,,,,,,,,,,,,,,,,,,,,,,,,,,,,,,,,,,,,,,,,,,,,,,,,,,,,,,,,,,,,,,,,,,,,,,,,,,,
,,,,,,5ec2cf4c3542420fa914f4b9,62bbfb536205431a697012c0,2022-06-29_08h12.31.131,Colour_Asymmetry_Pilot,2022.1.3,MacIntel,60.0024001,62bbe60bf3d75ef465d3e404,,,,,,,,,,,,,,,,,,,"[-0.17659999999999998,-0.2864,-0.8354]",twofour,"[0.19199999999999995,0.18419999999999992,0.5136000000000001]",-1,1.7157,-46.3984375,-76.296875,1,0,0,response5disk_5,-9.73828125,1.484375,1,0,0,rectangle_8,-9.73828125,1.484375,1,0,0,4,-9.73828125,1.484375,1,0,0,5,0,5,0,1,,,,,,,,,,,,,,,,,,,,,,,,,,,,,,,,,,,,,,,,,,,,,,,,,,,,,,,,,,,,,,,,,,,,,,,,,,,,,,,,,,,,,,,,,,,,,,,,,,,,,,,,,,,
,,,,,,5ec2cf4c3542420fa914f4b9,62bbfb536205431a697012c0,2022-06-29_08h12.31.131,Colour_Asymmetry_Pilot,2022.1.3,MacIntel,60.0024001,62bbe60bf3d75ef465d3e404,,,,,,,,,,,,,,,,,,,"[0.37240000000000006,-0.050999999999999934,-0.5216]",twoone,"[0.796,0.2156,-0.27859999999999996]",3,1.4654,78.375,23.95703125,1,0,0,response1disk_5,-11.7578125,-6.69140625,1,0,0,rectangle_8,-11.7578125,-6.69140625,1,0,0,4,-11.7578125,-6.69140625,1,0,0,6,0,6,0,1,,,,,,,,,,,,,,,,,,,,,,,,,,,,,,,,,,,,,,,,,,,,,,,,,,,,,,,,,,,,,,,,,,,,,,,,,,,,,,,,,,,,,,,,,,,,,,,,,,,,,,,,,,,
,,,,,,5ec2cf4c3542420fa914f4b9,62bbfb536205431a697012c0,2022-06-29_08h12.31.131,Colour_Asymmetry_Pilot,2022.1.3,MacIntel,60.0024001,62bbe60bf3d75ef465d3e404,,,,,,,,,,,,,,,,,,,,threeone,,2,1.6321,,,,,,,,,,,,,,,,,,,,,,,,,,,,,,,,space,3.4981,"[-0.8198,-0.5138,-0.7492000000000001]","[-0.9296,-0.12959999999999994,-0.043199999999999905]",68.3125,-52.1484375,1,0,0,response3disk,-11.73828125,2.5703125,1,0,0,rectangle,-11.73828125,2.5703125,1,0,0,,3,0.0023,0,-11.73828125,2.5703125,1,0,0,0,0,0,48,1,48,first,,,,,,,,,,,,,,,,,,,,,,,,,,,,,,,,,,,,,,,,,,,,,,,,,,,,,,,,,,,,,,,,,,,
,,,,,,5ec2cf4c3542420fa914f4b9,62bbfb536205431a697012c0,2022-06-29_08h12.31.131,Colour_Asymmetry_Pilot,2022.1.3,MacIntel,60.0024001,62bbe60bf3d75ef465d3e404,,,,,,,,,,,,,,,,,,,,twoone,,-2,1.0164,,,,,,,,,,,,,,,,,,,,,,,,,,,,,,,,,,"[-0.48240000000000005,0.3175999999999999,0.2156]","[-0.17659999999999998,-0.2864,-0.8354]",-85.125,-34.39453125,1,0,0,response5disk,-19.8984375,-7.72265625,1,0,0,rectangle,-19.8984375,-7.72265625,1,0,0,,3,1E-04,0,-19.8984375,-7.72265625,1,0,0,0,1,1,119,1,38,second,,,,,,,,,,,,,,,,,,,,,,,,,,,,,,,,,,,,,,,,,,,,,,,,,,,,,,,,,,,,,,,,,,,
,,,,,,5ec2cf4c3542420fa914f4b9,62bbfb536205431a697012c0,2022-06-29_08h12.31.131,Colour_Asymmetry_Pilot,2022.1.3,MacIntel,60.0024001,62bbe60bf3d75ef465d3e404,,,,,,,,,,,,,,,,,,,,twoone,,-2,1.4844,,,,,,,,,,,,,,,,,,,,,,,,,,,,,,,,,,"[-0.2942,-0.7648,-0.7492000000000001]","[0.9213999999999998,0.6391999999999998,-0.9922]",-67.93359375,-29.17578125,1,0,0,response5disk,2.5546875,-10.3984375,1,0,0,rectangle,2.5546875,-10.3984375,1,0,0,,3,0.002,0,2.5546875,-10.3984375,1,0,0,0,2,2,22,1,22,first,,,,,,,,,,,,,,,,,,,,,,,,,,,,,,,,,,,,,,,,,,,,,,,,,,,,,,,,,,,,,,,,,,,
,,,,,,5ec2cf4c3542420fa914f4b9,62bbfb536205431a697012c0,2022-06-29_08h12.31.131,Colour_Asymmetry_Pilot,2022.1.3,MacIntel,60.0024001,62bbe60bf3d75ef465d3e404,,,,,,,,,,,,,,,,,,,,onethree,,2,2.334,,,,,,,,,,,,,,,,,,,,,,,,,,,,,,,,,,"[0.37240000000000006,-0.050999999999999934,-0.5216]","[0.9763999999999999,0.30979999999999985,-0.6786]",88.03515625,-58.50390625,1,0,0,response3disk,6.3125,-6.609375,1,0,0,rectangle,6.3125,-6.609375,1,0,0,,2,0.0012,0,6.3125,-6.609375,1,0,0,0,3,3,26,1,26,first,,,,,,,,,,,,,,,,,,,,,,,,,,,,,,,,,,,,,,,,,,,,,,,,,,,,,,,,,,,,,,,,,,,
,,,,,,5ec2cf4c3542420fa914f4b9,62bbfb536205431a697012c0,2022-06-29_08h12.31.131,Colour_Asymmetry_Pilot,2022.1.3,MacIntel,60.0024001,62bbe60bf3d75ef465d3e404,,,,,,,,,,,,,,,,,,,,twofour,,2,1.1155,,,,,,,,,,,,,,,,,,,,,,,,,,,,,,,,,,"[0.8115999999999999,-0.0040000000000000036,-0.09819999999999995]","[0.8274000000000001,-0.5844,-0.9452]",96.0546875,-37.63671875,1,0,0,response3disk,27.04296875,-5.5859375,1,0,0,rectangle,27.04296875,-5.5859375,1,0,0,,3,0.0013,0,27.04296875,-5.5859375,1,0,0,0,4,4,15,1,15,first,,,,,,,,,,,,,,,,,,,,,,,,,,,,,,,,,,,,,,,,,,,,,,,,,,,,,,,,,,,,,,,,,,,
,,,,,,5ec2cf4c3542420fa914f4b9,62bbfb536205431a697012c0,2022-06-29_08h12.31.131,Colour_Asymmetry_Pilot,2022.1.3,MacIntel,60.0024001,62bbe60bf3d75ef465d3e404,,,,,,,,,,,,,,,,,,,,threeone,,-3,0.8159,,,,,,,,,,,,,,,,,,,,,,,,,,,,,,,,,,"[0.9213999999999998,0.6391999999999998,-0.9922]","[-0.38039999999999996,-0.4276,-0.1452]",-73.13671875,50.1171875,1,0,0,response7disk,16.5390625,0.5546875,1,0,0,rectangle,16.5390625,0.5546875,1,0,0,,1,0.0012,0,16.5390625,0.5546875,1,0,0,0,5,5,130,1,49,second,,,,,,,,,,,,,,,,,,,,,,,,,,,,,,,,,,,,,,,,,,,,,,,,,,,,,,,,,,,,,,,,,,,
,,,,,,5ec2cf4c3542420fa914f4b9,62bbfb536205431a697012c0,2022-06-29_08h12.31.131,Colour_Asymmetry_Pilot,2022.1.3,MacIntel,60.0024001,62bbe60bf3d75ef465d3e404,,,,,,,,,,,,,,,,,,,,threeone,,-2,1.2834,,,,,,,,,,,,,,,,,,,,,,,,,,,,,,,,,,"[0.37240000000000006,-0.050999999999999934,-0.5216]","[0.3802000000000001,0.19199999999999995,-0.6394]",-87.82421875,-54.64453125,1,0,0,response5disk,-17.2578125,-5.93359375,1,0,0,rectangle,-17.2578125,-5.93359375,1,0,0,,3,0.0004,0,-17.2578125,-5.93359375,1,0,0,0,6,6,84,1,3,second,,,,,,,,,,,,,,,,,,,,,,,,,,,,,,,,,,,,,,,,,,,,,,,,,,,,,,,,,,,,,,,,,,,
,,,,,,5ec2cf4c3542420fa914f4b9,62bbfb536205431a697012c0,2022-06-29_08h12.31.131,Colour_Asymmetry_Pilot,2022.1.3,MacIntel,60.0024001,62bbe60bf3d75ef465d3e404,,,,,,,,,,,,,,,,,,,,twoone,,-3,0.8655,,,,,,,,,,,,,,,,,,,,,,,,,,,,,,,,,,"[-0.30200000000000005,0.14500000000000002,0.2784]","[0.3881999999999999,-0.23939999999999995,-0.05040000000000011]",-60.9140625,28.63671875,1,0,0,response7disk,-6.42578125,-2.98046875,1,0,0,rectangle,-6.42578125,-2.98046875,1,0,0,,2,0.0007,0,-6.42578125,-2.98046875,1,0,0,0,7,7,154,1,73,second,,,,,,,,,,,,,,,,,,,,,,,,,,,,,,,,,,,,,,,,,,,,,,,,,,,,,,,,,,,,,,,,,,,
,,,,,,5ec2cf4c3542420fa914f4b9,62bbfb536205431a697012c0,2022-06-29_08h12.31.131,Colour_Asymmetry_Pilot,2022.1.3,MacIntel,60.0024001,62bbe60bf3d75ef465d3e404,,,,,,,,,,,,,,,,,,,,threefour,,1,1.0177,,,,,,,,,,,,,,,,,,,,,,,,,,,,,,,,,,"[0.34099999999999997,0.5841999999999998,-0.9844]","[-0.9138,-0.5296000000000001,-0.5529999999999999]",67.89453125,-83.0234375,1,0,0,response3disk,23.875,-12.85546875,1,0,0,rectangle,23.875,-12.85546875,1,0,0,,3,0.0013,0,23.875,-12.85546875,1,0,0,0,8,8,71,1,71,first,,,,,,,,,,,,,,,,,,,,,,,,,,,,,,,,,,,,,,,,,,,,,,,,,,,,,,,,,,,,,,,,,,,
,,,,,,5ec2cf4c3542420fa914f4b9,62bbfb536205431a697012c0,2022-06-29_08h12.31.131,Colour_Asymmetry_Pilot,2022.1.3,MacIntel,60.0024001,62bbe60bf3d75ef465d3e404,,,,,,,,,,,,,,,,,,,,fourthree,,-1,2.951,,,,,,,,,,,,,,,,,,,,,,,,,,,,,,,,,,"[-0.9138,-0.5296000000000001,-0.5529999999999999]","[0.18419999999999992,-0.4276,-0.404]",-42.40234375,-86.26171875,1,0,0,response5disk,-14.5625,-9.2734375,1,0,0,rectangle,-14.5625,-9.2734375,1,0,0,,3,0.0002,0,-14.5625,-9.2734375,1,0,0,0,9,9,101,1,20,second,,,,,,,,,,,,,,,,,,,,,,,,,,,,,,,,,,,,,,,,,,,,,,,,,,,,,,,,,,,,,,,,,,,
,,,,,,5ec2cf4c3542420fa914f4b9,62bbfb536205431a697012c0,2022-06-29_08h12.31.131,Colour_Asymmetry_Pilot,2022.1.3,MacIntel,60.0024001,62bbe60bf3d75ef465d3e404,,,,,,,,,,,,,,,,,,,,twoone,,-4,0.9325,,,,,,,,,,,,,,,,,,,,,,,,,,,,,,,,,,"[0.12939999999999996,-0.2864,0.3253999999999999]","[0.37240000000000006,0.4980000000000002,-0.2864]",-43.984375,70.4140625,1,0,0,response7disk,-3.5546875,12.1484375,1,0,0,rectangle,-3.5546875,12.1484375,1,0,0,,1,0.0013,0,-3.5546875,12.1484375,1,0,0,0,10,10,82,1,1,second,,,,,,,,,,,,,,,,,,,,,,,,,,,,,,,,,,,,,,,,,,,,,,,,,,,,,,,,,,,,,,,,,,,
,,,,,,5ec2cf4c3542420fa914f4b9,62bbfb536205431a697012c0,2022-06-29_08h12.31.131,Colour_Asymmetry_Pilot,2022.1.3,MacIntel,60.0024001,62bbe60bf3d75ef465d3e404,,,,,,,,,,,,,,,,,,,,fourtwo,,1,2.0662,,,,,,,,,,,,,,,,,,,,,,,,,,,,,,,,,,"[0.6547999999999998,-0.043199999999999905,-0.011800000000000033]","[-0.17659999999999998,0.3253999999999999,0.19999999999999996]",35.77734375,-81.71484375,1,0,0,response3disk,-8.0859375,3.70703125,1,0,0,rectangle,-8.0859375,3.70703125,1,0,0,,2,0.0013,0,-8.0859375,3.70703125,1,0,0,0,11,11,7,1,7,first,,,,,,,,,,,,,,,,,,,,,,,,,,,,,,,,,,,,,,,,,,,,,,,,,,,,,,,,,,,,,,,,,,,
,,,,,,5ec2cf4c3542420fa914f4b9,62bbfb536205431a697012c0,2022-06-29_08h12.31.131,Colour_Asymmetry_Pilot,2022.1.3,MacIntel,60.0024001,62bbe60bf3d75ef465d3e404,,,,,,,,,,,,,,,,,,,,fourtwo,,2,2.6659,,,,,,,,,,,,,,,,,,,,,,,,,,,,,,,,,,"[-0.8198,-0.5138,-0.7492000000000001]","[-0.9688,-0.7412000000000001,-0.4902000000000001]",86.015625,-48.4453125,1,0,0,response3disk,1.7265625,10.7109375,1,0,0,rectangle,1.7265625,10.7109375,1,0,0,,1,0.0007,0,1.7265625,10.7109375,1,0,0,0,12,12,98,1,17,second,,,,,,,,,,,,,,,,,,,,,,,,,,,,,,,,,,,,,,,,,,,,,,,,,,,,,,,,,,,,,,,,,,,
,,,,,,5ec2cf4c3542420fa914f4b9,62bbfb536205431a697012c0,2022-06-29_08h12.31.131,Colour_Asymmetry_Pilot,2022.1.3,MacIntel,60.0024001,62bbe60bf3d75ef465d3e404,,,,,,,,,,,,,,,,,,,,twofour,,-3,1.0161,,,,,,,,,,,,,,,,,,,,,,,,,,,,,,,,,,"[0.3568,-0.20799999999999996,-0.9844]","[0.9372,0.9450000000000001,0.8980000000000001]",-74.49609375,43.3515625,1,0,0,response7disk,1.1796875,-5.984375,1,0,0,rectangle,1.1796875,-5.984375,1,0,0,,2,0.0017,0,1.1796875,-5.984375,1,0,0,0,13,13,30,1,30,first,,,,,,,,,,,,,,,,,,,,,,,,,,,,,,,,,,,,,,,,,,,,,,,,,,,,,,,,,,,,,,,,,,,
,,,,,,5ec2cf4c3542420fa914f4b9,62bbfb536205431a697012c0,2022-06-29_08h12.31.131,Colour_Asymmetry_Pilot,2022.1.3,MacIntel,60.0024001,62bbe60bf3d75ef465d3e404,,,,,,,,,,,,,,,,,,,,fourthree,,-2,0.7671,,,,,,,,,,,,,,,,,,,,,,,,,,,,,,,,,,"[-0.01980000000000004,-0.5138,-0.38039999999999996]","[-0.48240000000000005,0.3175999999999999,0.2156]",-77.37890625,-60.33203125,1,0,0,response5disk,-11.453125,-1.7734375,1,0,0,rectangle,-11.453125,-1.7734375,1,0,0,,3,0.0013,0,-11.453125,-1.7734375,1,0,0,0,14,14,138,1,57,second,,,,,,,,,,,,,,,,,,,,,,,,,,,,,,,,,,,,,,,,,,,,,,,,,,,,,,,,,,,,,,,,,,,
,,,,,,5ec2cf4c3542420fa914f4b9,62bbfb536205431a697012c0,2022-06-29_08h12.31.131,Colour_Asymmetry_Pilot,2022.1.3,MacIntel,60.0024001,62bbe60bf3d75ef465d3e404,,,,,,,,,,,,,,,,,,,,fourthree,,1,1.333,,,,,,,,,,,,,,,,,,,,,,,,,,,,,,,,,,"[-0.9138,-0.5296000000000001,-0.5529999999999999]","[-0.26280000000000003,-0.4746,-0.2158]",38.60546875,-78.109375,1,0,0,response3disk,19.9375,12.46484375,1,0,0,rectangle,39.28515625,-88.3046875,1,0,0,1,1,5.0832,1,-14.34375,-9.78515625,1,0,0,0,15,15,104,1,23,second,response3disk_3,rectangle,,,,,,,,,,,,,,,,,,,,,,,,,,,,,,,,,,,,,,,,,,,,,,,,,,,,,,,,,,,,,,,,,
,,,,,,5ec2cf4c3542420fa914f4b9,62bbfb536205431a697012c0,2022-06-29_08h12.31.131,Colour_Asymmetry_Pilot,2022.1.3,MacIntel,60.0024001,62bbe60bf3d75ef465d3e404,,,,,,,,,,,,,,,,,,,,twofour,,-1,1.116,,,,,,,,,,,,,,,,,,,,,,,,,,,,,,,,,,"[0.9372,0.20779999999999998,0.2704]","[0.7018,0.7176,0.6155999999999999]",-54.3046875,-91.5390625,1,0,0,response5disk,-21.33984375,15.109375,1,0,0,rectangle,-21.33984375,15.109375,1,0,0,-3,3,0.0017,0,-21.33984375,15.109375,1,0,0,0,16,16,122,1,41,second,,,,,,,,,,,,,,,,,,,,,,,,,,,,,,,,,,,,,,,,,,,,,,,,,,,,,,,,,,,,,,,,,,,
