trials.thisRepN,trials.thisTrialN,trials.thisN,trials.thisIndex,trials.ran,Colourcodes,participant,session,date,expName,psychopyVersion,OS,frameRate,study_id,trials_4.thisRepN,trials_4.thisTrialN,trials_4.thisN,trials_4.thisIndex,trials_4.ran,StimulusPos,key_resp.keys,key_resp.rt,key_resp_2.keys,key_resp_2.rt,key_resp_15.keys,key_resp_15.rt,key_resp_17.keys,key_resp_17.rt,key_resp_9.keys,key_resp_9.rt,key_resp_10.keys,key_resp_10.rt,Circle1_col,Ecc,Circle2_col,similarity,response_time,mouse_5.x,mouse_5.y,mouse_5.leftButton,mouse_5.midButton,mouse_5.rightButton,mouse_5.clicked_name,mouse_10.x,mouse_10.y,mouse_10.leftButton,mouse_10.midButton,mouse_10.rightButton,mouse_10.clicked_name,mouse_7.x,mouse_7.y,mouse_7.leftButton,mouse_7.midButton,mouse_7.rightButton,catchnumberprac,mouse_6.x,mouse_6.y,mouse_6.leftButton,mouse_6.midButton,mouse_6.rightButton,duringprac.thisRepN,duringprac.thisTrialN,duringprac.thisN,duringprac.thisIndex,duringprac.ran,mouse_7.clicked_name,catchprac,mouse_6.clicked_name,key_resp_22.keys,key_resp_22.rt,Circle1_colour,Circle2_colour,mouse.x,mouse.y,mouse.leftButton,mouse.midButton,mouse.rightButton,mouse.clicked_name,mouse_2.x,mouse_2.y,mouse_2.leftButton,mouse_2.midButton,mouse_2.rightButton,mouse_2.clicked_name,mouse_3.x,mouse_3.y,mouse_3.leftButton,mouse_3.midButton,mouse_3.rightButton,catchresponse,catchnumber,response_time_catch,Catch,mouse_11.x,mouse_11.y,mouse_11.leftButton,mouse_11.midButton,mouse_11.rightButton,trials_2.thisRepN,trials_2.thisTrialN,trials_2.thisN,trials_2.thisIndex,trials_2.ran,Colourpair,Temporder,mouse_3.clicked_name,mouse_11.clicked_name,trials_3.thisRepN,trials_3.thisTrialN,trials_3.thisN,trials_3.thisIndex,trials_3.ran,key_resp_instr_Ishi.keys,key_resp_instr_Ishi.rt,Ishi_trial_keyresp.keys,Ishi_trial_keyresp.rt,Ishi_textbox.text,Ishi_loop.thisRepN,Ishi_loop.thisTrialN,Ishi_loop.thisN,Ishi_loop.thisIndex,Ishi_loop.ran,imageaddress,textbox.text,mouse_4.x,mouse_4.y,mouse_4.leftButton,mouse_4.midButton,mouse_4.rightButton,mouse_4.clicked_name,textbox_2.text,mouse_8.x,mouse_8.y,mouse_8.leftButton,mouse_8.midButton,mouse_8.rightButton,mouse_8.clicked_name,textbox_3.text,mouse_9.x,mouse_9.y,mouse_9.leftButton,mouse_9.midButton,mouse_9.rightButton,mouse_9.clicked_name,textbox_4.text,mouse_12.x,mouse_12.y,mouse_12.leftButton,mouse_12.midButton,mouse_12.rightButton,mouse_12.clicked_name,textbox_5.text,mouse_13.x,mouse_13.y,mouse_13.leftButton,mouse_13.midButton,mouse_13.rightButton,mouse_13.clicked_name,textbox_6.text,mouse_14.x,mouse_14.y,mouse_14.leftButton,mouse_14.midButton,mouse_14.rightButton,mouse_14.clicked_name,textbox_7.text,mouse_15.x,mouse_15.y,mouse_15.leftButton,mouse_15.midButton,mouse_15.rightButton,mouse_15.clicked_name
0,0,0,68,1,,61080db9b1d210972ee7959a,62bbfa5823cc2669efad188f,2022-06-29_09h08.31.507,Colour_Asymmetry_Pilot,2022.1.3,Win32,60.02040694,62bbe60bf3d75ef465d3e404,,,,,,,,,,,,,,,,,,,,,,,,,,,,,,,,,,,,,,,,,,,,,,,,,,,,,,,,,,,,,,,,,,,,,,,,,,,,,,,,,,,,,,,,,,,,,,,,,,,,,,,,,,,,,,,,,,,,,,,,,,,,,,,,,,,,,,,,,,,,,,,,,,,,,,,,,,,,,,
0,1,1,0,1,,61080db9b1d210972ee7959a,62bbfa5823cc2669efad188f,2022-06-29_09h08.31.507,Colour_Asymmetry_Pilot,2022.1.3,Win32,60.02040694,62bbe60bf3d75ef465d3e404,,,,,,,,,,,,,,,,,,,,,,,,,,,,,,,,,,,,,,,,,,,,,,,,,,,,,,,,,,,,,,,,,,,,,,,,,,,,,,,,,,,,,,,,,,,,,,,,,,,,,,,,,,,,,,,,,,,,,,,,,,,,,,,,,,,,,,,,,,,,,,,,,,,,,,,,,,,,,,
0,2,2,67,1,,61080db9b1d210972ee7959a,62bbfa5823cc2669efad188f,2022-06-29_09h08.31.507,Colour_Asymmetry_Pilot,2022.1.3,Win32,60.02040694,62bbe60bf3d75ef465d3e404,,,,,,,,,,,,,,,,,,,,,,,,,,,,,,,,,,,,,,,,,,,,,,,,,,,,,,,,,,,,,,,,,,,,,,,,,,,,,,,,,,,,,,,,,,,,,,,,,,,,,,,,,,,,,,,,,,,,,,,,,,,,,,,,,,,,,,,,,,,,,,,,,,,,,,,,,,,,,,
0,3,3,45,1,,61080db9b1d210972ee7959a,62bbfa5823cc2669efad188f,2022-06-29_09h08.31.507,Colour_Asymmetry_Pilot,2022.1.3,Win32,60.02040694,62bbe60bf3d75ef465d3e404,,,,,,,,,,,,,,,,,,,,,,,,,,,,,,,,,,,,,,,,,,,,,,,,,,,,,,,,,,,,,,,,,,,,,,,,,,,,,,,,,,,,,,,,,,,,,,,,,,,,,,,,,,,,,,,,,,,,,,,,,,,,,,,,,,,,,,,,,,,,,,,,,,,,,,,,,,,,,,
0,4,4,76,1,,61080db9b1d210972ee7959a,62bbfa5823cc2669efad188f,2022-06-29_09h08.31.507,Colour_Asymmetry_Pilot,2022.1.3,Win32,60.02040694,62bbe60bf3d75ef465d3e404,,,,,,,,,,,,,,,,,,,,,,,,,,,,,,,,,,,,,,,,,,,,,,,,,,,,,,,,,,,,,,,,,,,,,,,,,,,,,,,,,,,,,,,,,,,,,,,,,,,,,,,,,,,,,,,,,,,,,,,,,,,,,,,,,,,,,,,,,,,,,,,,,,,,,,,,,,,,,,
0,5,5,78,1,,61080db9b1d210972ee7959a,62bbfa5823cc2669efad188f,2022-06-29_09h08.31.507,Colour_Asymmetry_Pilot,2022.1.3,Win32,60.02040694,62bbe60bf3d75ef465d3e404,,,,,,,,,,,,,,,,,,,,,,,,,,,,,,,,,,,,,,,,,,,,,,,,,,,,,,,,,,,,,,,,,,,,,,,,,,,,,,,,,,,,,,,,,,,,,,,,,,,,,,,,,,,,,,,,,,,,,,,,,,,,,,,,,,,,,,,,,,,,,,,,,,,,,,,,,,,,,,
0,6,6,18,1,,61080db9b1d210972ee7959a,62bbfa5823cc2669efad188f,2022-06-29_09h08.31.507,Colour_Asymmetry_Pilot,2022.1.3,Win32,60.02040694,62bbe60bf3d75ef465d3e404,,,,,,,,,,,,,,,,,,,,,,,,,,,,,,,,,,,,,,,,,,,,,,,,,,,,,,,,,,,,,,,,,,,,,,,,,,,,,,,,,,,,,,,,,,,,,,,,,,,,,,,,,,,,,,,,,,,,,,,,,,,,,,,,,,,,,,,,,,,,,,,,,,,,,,,,,,,,,,
0,7,7,88,1,,61080db9b1d210972ee7959a,62bbfa5823cc2669efad188f,2022-06-29_09h08.31.507,Colour_Asymmetry_Pilot,2022.1.3,Win32,60.02040694,62bbe60bf3d75ef465d3e404,,,,,,,,,,,,,,,,,,,,,,,,,,,,,,,,,,,,,,,,,,,,,,,,,,,,,,,,,,,,,,,,,,,,,,,,,,,,,,,,,,,,,,,,,,,,,,,,,,,,,,,,,,,,,,,,,,,,,,,,,,,,,,,,,,,,,,,,,,,,,,,,,,,,,,,,,,,,,,
0,8,8,66,1,,61080db9b1d210972ee7959a,62bbfa5823cc2669efad188f,2022-06-29_09h08.31.507,Colour_Asymmetry_Pilot,2022.1.3,Win32,60.02040694,62bbe60bf3d75ef465d3e404,,,,,,,,,,,,,,,,,,,,,,,,,,,,,,,,,,,,,,,,,,,,,,,,,,,,,,,,,,,,,,,,,,,,,,,,,,,,,,,,,,,,,,,,,,,,,,,,,,,,,,,,,,,,,,,,,,,,,,,,,,,,,,,,,,,,,,,,,,,,,,,,,,,,,,,,,,,,,,
0,9,9,77,1,,61080db9b1d210972ee7959a,62bbfa5823cc2669efad188f,2022-06-29_09h08.31.507,Colour_Asymmetry_Pilot,2022.1.3,Win32,60.02040694,62bbe60bf3d75ef465d3e404,,,,,,,,,,,,,,,,,,,,,,,,,,,,,,,,,,,,,,,,,,,,,,,,,,,,,,,,,,,,,,,,,,,,,,,,,,,,,,,,,,,,,,,,,,,,,,,,,,,,,,,,,,,,,,,,,,,,,,,,,,,,,,,,,,,,,,,,,,,,,,,,,,,,,,,,,,,,,,
0,10,10,52,1,,61080db9b1d210972ee7959a,62bbfa5823cc2669efad188f,2022-06-29_09h08.31.507,Colour_Asymmetry_Pilot,2022.1.3,Win32,60.02040694,62bbe60bf3d75ef465d3e404,,,,,,,,,,,,,,,,,,,,,,,,,,,,,,,,,,,,,,,,,,,,,,,,,,,,,,,,,,,,,,,,,,,,,,,,,,,,,,,,,,,,,,,,,,,,,,,,,,,,,,,,,,,,,,,,,,,,,,,,,,,,,,,,,,,,,,,,,,,,,,,,,,,,,,,,,,,,,,
0,11,11,34,1,,61080db9b1d210972ee7959a,62bbfa5823cc2669efad188f,2022-06-29_09h08.31.507,Colour_Asymmetry_Pilot,2022.1.3,Win32,60.02040694,62bbe60bf3d75ef465d3e404,,,,,,,,,,,,,,,,,,,,,,,,,,,,,,,,,,,,,,,,,,,,,,,,,,,,,,,,,,,,,,,,,,,,,,,,,,,,,,,,,,,,,,,,,,,,,,,,,,,,,,,,,,,,,,,,,,,,,,,,,,,,,,,,,,,,,,,,,,,,,,,,,,,,,,,,,,,,,,
0,12,12,56,1,,61080db9b1d210972ee7959a,62bbfa5823cc2669efad188f,2022-06-29_09h08.31.507,Colour_Asymmetry_Pilot,2022.1.3,Win32,60.02040694,62bbe60bf3d75ef465d3e404,,,,,,,,,,,,,,,,,,,,,,,,,,,,,,,,,,,,,,,,,,,,,,,,,,,,,,,,,,,,,,,,,,,,,,,,,,,,,,,,,,,,,,,,,,,,,,,,,,,,,,,,,,,,,,,,,,,,,,,,,,,,,,,,,,,,,,,,,,,,,,,,,,,,,,,,,,,,,,
0,13,13,86,1,,61080db9b1d210972ee7959a,62bbfa5823cc2669efad188f,2022-06-29_09h08.31.507,Colour_Asymmetry_Pilot,2022.1.3,Win32,60.02040694,62bbe60bf3d75ef465d3e404,,,,,,,,,,,,,,,,,,,,,,,,,,,,,,,,,,,,,,,,,,,,,,,,,,,,,,,,,,,,,,,,,,,,,,,,,,,,,,,,,,,,,,,,,,,,,,,,,,,,,,,,,,,,,,,,,,,,,,,,,,,,,,,,,,,,,,,,,,,,,,,,,,,,,,,,,,,,,,
0,14,14,11,1,,61080db9b1d210972ee7959a,62bbfa5823cc2669efad188f,2022-06-29_09h08.31.507,Colour_Asymmetry_Pilot,2022.1.3,Win32,60.02040694,62bbe60bf3d75ef465d3e404,,,,,,,,,,,,,,,,,,,,,,,,,,,,,,,,,,,,,,,,,,,,,,,,,,,,,,,,,,,,,,,,,,,,,,,,,,,,,,,,,,,,,,,,,,,,,,,,,,,,,,,,,,,,,,,,,,,,,,,,,,,,,,,,,,,,,,,,,,,,,,,,,,,,,,,,,,,,,,
0,15,15,46,1,,61080db9b1d210972ee7959a,62bbfa5823cc2669efad188f,2022-06-29_09h08.31.507,Colour_Asymmetry_Pilot,2022.1.3,Win32,60.02040694,62bbe60bf3d75ef465d3e404,,,,,,,,,,,,,,,,,,,,,,,,,,,,,,,,,,,,,,,,,,,,,,,,,,,,,,,,,,,,,,,,,,,,,,,,,,,,,,,,,,,,,,,,,,,,,,,,,,,,,,,,,,,,,,,,,,,,,,,,,,,,,,,,,,,,,,,,,,,,,,,,,,,,,,,,,,,,,,
0,16,16,50,1,,61080db9b1d210972ee7959a,62bbfa5823cc2669efad188f,2022-06-29_09h08.31.507,Colour_Asymmetry_Pilot,2022.1.3,Win32,60.02040694,62bbe60bf3d75ef465d3e404,,,,,,,,,,,,,,,,,,,,,,,,,,,,,,,,,,,,,,,,,,,,,,,,,,,,,,,,,,,,,,,,,,,,,,,,,,,,,,,,,,,,,,,,,,,,,,,,,,,,,,,,,,,,,,,,,,,,,,,,,,,,,,,,,,,,,,,,,,,,,,,,,,,,,,,,,,,,,,
0,17,17,23,1,,61080db9b1d210972ee7959a,62bbfa5823cc2669efad188f,2022-06-29_09h08.31.507,Colour_Asymmetry_Pilot,2022.1.3,Win32,60.02040694,62bbe60bf3d75ef465d3e404,,,,,,,,,,,,,,,,,,,,,,,,,,,,,,,,,,,,,,,,,,,,,,,,,,,,,,,,,,,,,,,,,,,,,,,,,,,,,,,,,,,,,,,,,,,,,,,,,,,,,,,,,,,,,,,,,,,,,,,,,,,,,,,,,,,,,,,,,,,,,,,,,,,,,,,,,,,,,,
0,18,18,90,1,,61080db9b1d210972ee7959a,62bbfa5823cc2669efad188f,2022-06-29_09h08.31.507,Colour_Asymmetry_Pilot,2022.1.3,Win32,60.02040694,62bbe60bf3d75ef465d3e404,,,,,,,,,,,,,,,,,,,,,,,,,,,,,,,,,,,,,,,,,,,,,,,,,,,,,,,,,,,,,,,,,,,,,,,,,,,,,,,,,,,,,,,,,,,,,,,,,,,,,,,,,,,,,,,,,,,,,,,,,,,,,,,,,,,,,,,,,,,,,,,,,,,,,,,,,,,,,,
0,19,19,31,1,,61080db9b1d210972ee7959a,62bbfa5823cc2669efad188f,2022-06-29_09h08.31.507,Colour_Asymmetry_Pilot,2022.1.3,Win32,60.02040694,62bbe60bf3d75ef465d3e404,,,,,,,,,,,,,,,,,,,,,,,,,,,,,,,,,,,,,,,,,,,,,,,,,,,,,,,,,,,,,,,,,,,,,,,,,,,,,,,,,,,,,,,,,,,,,,,,,,,,,,,,,,,,,,,,,,,,,,,,,,,,,,,,,,,,,,,,,,,,,,,,,,,,,,,,,,,,,,
0,20,20,58,1,,61080db9b1d210972ee7959a,62bbfa5823cc2669efad188f,2022-06-29_09h08.31.507,Colour_Asymmetry_Pilot,2022.1.3,Win32,60.02040694,62bbe60bf3d75ef465d3e404,,,,,,,,,,,,,,,,,,,,,,,,,,,,,,,,,,,,,,,,,,,,,,,,,,,,,,,,,,,,,,,,,,,,,,,,,,,,,,,,,,,,,,,,,,,,,,,,,,,,,,,,,,,,,,,,,,,,,,,,,,,,,,,,,,,,,,,,,,,,,,,,,,,,,,,,,,,,,,
0,21,21,41,1,,61080db9b1d210972ee7959a,62bbfa5823cc2669efad188f,2022-06-29_09h08.31.507,Colour_Asymmetry_Pilot,2022.1.3,Win32,60.02040694,62bbe60bf3d75ef465d3e404,,,,,,,,,,,,,,,,,,,,,,,,,,,,,,,,,,,,,,,,,,,,,,,,,,,,,,,,,,,,,,,,,,,,,,,,,,,,,,,,,,,,,,,,,,,,,,,,,,,,,,,,,,,,,,,,,,,,,,,,,,,,,,,,,,,,,,,,,,,,,,,,,,,,,,,,,,,,,,
0,22,22,29,1,,61080db9b1d210972ee7959a,62bbfa5823cc2669efad188f,2022-06-29_09h08.31.507,Colour_Asymmetry_Pilot,2022.1.3,Win32,60.02040694,62bbe60bf3d75ef465d3e404,,,,,,,,,,,,,,,,,,,,,,,,,,,,,,,,,,,,,,,,,,,,,,,,,,,,,,,,,,,,,,,,,,,,,,,,,,,,,,,,,,,,,,,,,,,,,,,,,,,,,,,,,,,,,,,,,,,,,,,,,,,,,,,,,,,,,,,,,,,,,,,,,,,,,,,,,,,,,,
0,23,23,22,1,,61080db9b1d210972ee7959a,62bbfa5823cc2669efad188f,2022-06-29_09h08.31.507,Colour_Asymmetry_Pilot,2022.1.3,Win32,60.02040694,62bbe60bf3d75ef465d3e404,,,,,,,,,,,,,,,,,,,,,,,,,,,,,,,,,,,,,,,,,,,,,,,,,,,,,,,,,,,,,,,,,,,,,,,,,,,,,,,,,,,,,,,,,,,,,,,,,,,,,,,,,,,,,,,,,,,,,,,,,,,,,,,,,,,,,,,,,,,,,,,,,,,,,,,,,,,,,,
0,24,24,91,1,,61080db9b1d210972ee7959a,62bbfa5823cc2669efad188f,2022-06-29_09h08.31.507,Colour_Asymmetry_Pilot,2022.1.3,Win32,60.02040694,62bbe60bf3d75ef465d3e404,,,,,,,,,,,,,,,,,,,,,,,,,,,,,,,,,,,,,,,,,,,,,,,,,,,,,,,,,,,,,,,,,,,,,,,,,,,,,,,,,,,,,,,,,,,,,,,,,,,,,,,,,,,,,,,,,,,,,,,,,,,,,,,,,,,,,,,,,,,,,,,,,,,,,,,,,,,,,,
0,25,25,8,1,,61080db9b1d210972ee7959a,62bbfa5823cc2669efad188f,2022-06-29_09h08.31.507,Colour_Asymmetry_Pilot,2022.1.3,Win32,60.02040694,62bbe60bf3d75ef465d3e404,,,,,,,,,,,,,,,,,,,,,,,,,,,,,,,,,,,,,,,,,,,,,,,,,,,,,,,,,,,,,,,,,,,,,,,,,,,,,,,,,,,,,,,,,,,,,,,,,,,,,,,,,,,,,,,,,,,,,,,,,,,,,,,,,,,,,,,,,,,,,,,,,,,,,,,,,,,,,,
0,26,26,70,1,,61080db9b1d210972ee7959a,62bbfa5823cc2669efad188f,2022-06-29_09h08.31.507,Colour_Asymmetry_Pilot,2022.1.3,Win32,60.02040694,62bbe60bf3d75ef465d3e404,,,,,,,,,,,,,,,,,,,,,,,,,,,,,,,,,,,,,,,,,,,,,,,,,,,,,,,,,,,,,,,,,,,,,,,,,,,,,,,,,,,,,,,,,,,,,,,,,,,,,,,,,,,,,,,,,,,,,,,,,,,,,,,,,,,,,,,,,,,,,,,,,,,,,,,,,,,,,,
0,27,27,47,1,,61080db9b1d210972ee7959a,62bbfa5823cc2669efad188f,2022-06-29_09h08.31.507,Colour_Asymmetry_Pilot,2022.1.3,Win32,60.02040694,62bbe60bf3d75ef465d3e404,,,,,,,,,,,,,,,,,,,,,,,,,,,,,,,,,,,,,,,,,,,,,,,,,,,,,,,,,,,,,,,,,,,,,,,,,,,,,,,,,,,,,,,,,,,,,,,,,,,,,,,,,,,,,,,,,,,,,,,,,,,,,,,,,,,,,,,,,,,,,,,,,,,,,,,,,,,,,,
0,28,28,28,1,,61080db9b1d210972ee7959a,62bbfa5823cc2669efad188f,2022-06-29_09h08.31.507,Colour_Asymmetry_Pilot,2022.1.3,Win32,60.02040694,62bbe60bf3d75ef465d3e404,,,,,,,,,,,,,,,,,,,,,,,,,,,,,,,,,,,,,,,,,,,,,,,,,,,,,,,,,,,,,,,,,,,,,,,,,,,,,,,,,,,,,,,,,,,,,,,,,,,,,,,,,,,,,,,,,,,,,,,,,,,,,,,,,,,,,,,,,,,,,,,,,,,,,,,,,,,,,,
0,29,29,19,1,,61080db9b1d210972ee7959a,62bbfa5823cc2669efad188f,2022-06-29_09h08.31.507,Colour_Asymmetry_Pilot,2022.1.3,Win32,60.02040694,62bbe60bf3d75ef465d3e404,,,,,,,,,,,,,,,,,,,,,,,,,,,,,,,,,,,,,,,,,,,,,,,,,,,,,,,,,,,,,,,,,,,,,,,,,,,,,,,,,,,,,,,,,,,,,,,,,,,,,,,,,,,,,,,,,,,,,,,,,,,,,,,,,,,,,,,,,,,,,,,,,,,,,,,,,,,,,,
0,30,30,48,1,,61080db9b1d210972ee7959a,62bbfa5823cc2669efad188f,2022-06-29_09h08.31.507,Colour_Asymmetry_Pilot,2022.1.3,Win32,60.02040694,62bbe60bf3d75ef465d3e404,,,,,,,,,,,,,,,,,,,,,,,,,,,,,,,,,,,,,,,,,,,,,,,,,,,,,,,,,,,,,,,,,,,,,,,,,,,,,,,,,,,,,,,,,,,,,,,,,,,,,,,,,,,,,,,,,,,,,,,,,,,,,,,,,,,,,,,,,,,,,,,,,,,,,,,,,,,,,,
0,31,31,51,1,,61080db9b1d210972ee7959a,62bbfa5823cc2669efad188f,2022-06-29_09h08.31.507,Colour_Asymmetry_Pilot,2022.1.3,Win32,60.02040694,62bbe60bf3d75ef465d3e404,,,,,,,,,,,,,,,,,,,,,,,,,,,,,,,,,,,,,,,,,,,,,,,,,,,,,,,,,,,,,,,,,,,,,,,,,,,,,,,,,,,,,,,,,,,,,,,,,,,,,,,,,,,,,,,,,,,,,,,,,,,,,,,,,,,,,,,,,,,,,,,,,,,,,,,,,,,,,,
0,32,32,16,1,,61080db9b1d210972ee7959a,62bbfa5823cc2669efad188f,2022-06-29_09h08.31.507,Colour_Asymmetry_Pilot,2022.1.3,Win32,60.02040694,62bbe60bf3d75ef465d3e404,,,,,,,,,,,,,,,,,,,,,,,,,,,,,,,,,,,,,,,,,,,,,,,,,,,,,,,,,,,,,,,,,,,,,,,,,,,,,,,,,,,,,,,,,,,,,,,,,,,,,,,,,,,,,,,,,,,,,,,,,,,,,,,,,,,,,,,,,,,,,,,,,,,,,,,,,,,,,,
0,33,33,1,1,,61080db9b1d210972ee7959a,62bbfa5823cc2669efad188f,2022-06-29_09h08.31.507,Colour_Asymmetry_Pilot,2022.1.3,Win32,60.02040694,62bbe60bf3d75ef465d3e404,,,,,,,,,,,,,,,,,,,,,,,,,,,,,,,,,,,,,,,,,,,,,,,,,,,,,,,,,,,,,,,,,,,,,,,,,,,,,,,,,,,,,,,,,,,,,,,,,,,,,,,,,,,,,,,,,,,,,,,,,,,,,,,,,,,,,,,,,,,,,,,,,,,,,,,,,,,,,,
0,34,34,30,1,,61080db9b1d210972ee7959a,62bbfa5823cc2669efad188f,2022-06-29_09h08.31.507,Colour_Asymmetry_Pilot,2022.1.3,Win32,60.02040694,62bbe60bf3d75ef465d3e404,,,,,,,,,,,,,,,,,,,,,,,,,,,,,,,,,,,,,,,,,,,,,,,,,,,,,,,,,,,,,,,,,,,,,,,,,,,,,,,,,,,,,,,,,,,,,,,,,,,,,,,,,,,,,,,,,,,,,,,,,,,,,,,,,,,,,,,,,,,,,,,,,,,,,,,,,,,,,,
0,35,35,2,1,,61080db9b1d210972ee7959a,62bbfa5823cc2669efad188f,2022-06-29_09h08.31.507,Colour_Asymmetry_Pilot,2022.1.3,Win32,60.02040694,62bbe60bf3d75ef465d3e404,,,,,,,,,,,,,,,,,,,,,,,,,,,,,,,,,,,,,,,,,,,,,,,,,,,,,,,,,,,,,,,,,,,,,,,,,,,,,,,,,,,,,,,,,,,,,,,,,,,,,,,,,,,,,,,,,,,,,,,,,,,,,,,,,,,,,,,,,,,,,,,,,,,,,,,,,,,,,,
0,36,36,36,1,,61080db9b1d210972ee7959a,62bbfa5823cc2669efad188f,2022-06-29_09h08.31.507,Colour_Asymmetry_Pilot,2022.1.3,Win32,60.02040694,62bbe60bf3d75ef465d3e404,,,,,,,,,,,,,,,,,,,,,,,,,,,,,,,,,,,,,,,,,,,,,,,,,,,,,,,,,,,,,,,,,,,,,,,,,,,,,,,,,,,,,,,,,,,,,,,,,,,,,,,,,,,,,,,,,,,,,,,,,,,,,,,,,,,,,,,,,,,,,,,,,,,,,,,,,,,,,,
0,37,37,61,1,,61080db9b1d210972ee7959a,62bbfa5823cc2669efad188f,2022-06-29_09h08.31.507,Colour_Asymmetry_Pilot,2022.1.3,Win32,60.02040694,62bbe60bf3d75ef465d3e404,,,,,,,,,,,,,,,,,,,,,,,,,,,,,,,,,,,,,,,,,,,,,,,,,,,,,,,,,,,,,,,,,,,,,,,,,,,,,,,,,,,,,,,,,,,,,,,,,,,,,,,,,,,,,,,,,,,,,,,,,,,,,,,,,,,,,,,,,,,,,,,,,,,,,,,,,,,,,,
0,38,38,89,1,,61080db9b1d210972ee7959a,62bbfa5823cc2669efad188f,2022-06-29_09h08.31.507,Colour_Asymmetry_Pilot,2022.1.3,Win32,60.02040694,62bbe60bf3d75ef465d3e404,,,,,,,,,,,,,,,,,,,,,,,,,,,,,,,,,,,,,,,,,,,,,,,,,,,,,,,,,,,,,,,,,,,,,,,,,,,,,,,,,,,,,,,,,,,,,,,,,,,,,,,,,,,,,,,,,,,,,,,,,,,,,,,,,,,,,,,,,,,,,,,,,,,,,,,,,,,,,,
0,39,39,60,1,,61080db9b1d210972ee7959a,62bbfa5823cc2669efad188f,2022-06-29_09h08.31.507,Colour_Asymmetry_Pilot,2022.1.3,Win32,60.02040694,62bbe60bf3d75ef465d3e404,,,,,,,,,,,,,,,,,,,,,,,,,,,,,,,,,,,,,,,,,,,,,,,,,,,,,,,,,,,,,,,,,,,,,,,,,,,,,,,,,,,,,,,,,,,,,,,,,,,,,,,,,,,,,,,,,,,,,,,,,,,,,,,,,,,,,,,,,,,,,,,,,,,,,,,,,,,,,,
0,40,40,84,1,,61080db9b1d210972ee7959a,62bbfa5823cc2669efad188f,2022-06-29_09h08.31.507,Colour_Asymmetry_Pilot,2022.1.3,Win32,60.02040694,62bbe60bf3d75ef465d3e404,,,,,,,,,,,,,,,,,,,,,,,,,,,,,,,,,,,,,,,,,,,,,,,,,,,,,,,,,,,,,,,,,,,,,,,,,,,,,,,,,,,,,,,,,,,,,,,,,,,,,,,,,,,,,,,,,,,,,,,,,,,,,,,,,,,,,,,,,,,,,,,,,,,,,,,,,,,,,,
0,41,41,57,1,,61080db9b1d210972ee7959a,62bbfa5823cc2669efad188f,2022-06-29_09h08.31.507,Colour_Asymmetry_Pilot,2022.1.3,Win32,60.02040694,62bbe60bf3d75ef465d3e404,,,,,,,,,,,,,,,,,,,,,,,,,,,,,,,,,,,,,,,,,,,,,,,,,,,,,,,,,,,,,,,,,,,,,,,,,,,,,,,,,,,,,,,,,,,,,,,,,,,,,,,,,,,,,,,,,,,,,,,,,,,,,,,,,,,,,,,,,,,,,,,,,,,,,,,,,,,,,,
0,42,42,54,1,,61080db9b1d210972ee7959a,62bbfa5823cc2669efad188f,2022-06-29_09h08.31.507,Colour_Asymmetry_Pilot,2022.1.3,Win32,60.02040694,62bbe60bf3d75ef465d3e404,,,,,,,,,,,,,,,,,,,,,,,,,,,,,,,,,,,,,,,,,,,,,,,,,,,,,,,,,,,,,,,,,,,,,,,,,,,,,,,,,,,,,,,,,,,,,,,,,,,,,,,,,,,,,,,,,,,,,,,,,,,,,,,,,,,,,,,,,,,,,,,,,,,,,,,,,,,,,,
0,43,43,83,1,,61080db9b1d210972ee7959a,62bbfa5823cc2669efad188f,2022-06-29_09h08.31.507,Colour_Asymmetry_Pilot,2022.1.3,Win32,60.02040694,62bbe60bf3d75ef465d3e404,,,,,,,,,,,,,,,,,,,,,,,,,,,,,,,,,,,,,,,,,,,,,,,,,,,,,,,,,,,,,,,,,,,,,,,,,,,,,,,,,,,,,,,,,,,,,,,,,,,,,,,,,,,,,,,,,,,,,,,,,,,,,,,,,,,,,,,,,,,,,,,,,,,,,,,,,,,,,,
0,44,44,72,1,,61080db9b1d210972ee7959a,62bbfa5823cc2669efad188f,2022-06-29_09h08.31.507,Colour_Asymmetry_Pilot,2022.1.3,Win32,60.02040694,62bbe60bf3d75ef465d3e404,,,,,,,,,,,,,,,,,,,,,,,,,,,,,,,,,,,,,,,,,,,,,,,,,,,,,,,,,,,,,,,,,,,,,,,,,,,,,,,,,,,,,,,,,,,,,,,,,,,,,,,,,,,,,,,,,,,,,,,,,,,,,,,,,,,,,,,,,,,,,,,,,,,,,,,,,,,,,,
0,45,45,21,1,,61080db9b1d210972ee7959a,62bbfa5823cc2669efad188f,2022-06-29_09h08.31.507,Colour_Asymmetry_Pilot,2022.1.3,Win32,60.02040694,62bbe60bf3d75ef465d3e404,,,,,,,,,,,,,,,,,,,,,,,,,,,,,,,,,,,,,,,,,,,,,,,,,,,,,,,,,,,,,,,,,,,,,,,,,,,,,,,,,,,,,,,,,,,,,,,,,,,,,,,,,,,,,,,,,,,,,,,,,,,,,,,,,,,,,,,,,,,,,,,,,,,,,,,,,,,,,,
0,46,46,20,1,,61080db9b1d210972ee7959a,62bbfa5823cc2669efad188f,2022-06-29_09h08.31.507,Colour_Asymmetry_Pilot,2022.1.3,Win32,60.02040694,62bbe60bf3d75ef465d3e404,,,,,,,,,,,,,,,,,,,,,,,,,,,,,,,,,,,,,,,,,,,,,,,,,,,,,,,,,,,,,,,,,,,,,,,,,,,,,,,,,,,,,,,,,,,,,,,,,,,,,,,,,,,,,,,,,,,,,,,,,,,,,,,,,,,,,,,,,,,,,,,,,,,,,,,,,,,,,,
0,47,47,3,1,,61080db9b1d210972ee7959a,62bbfa5823cc2669efad188f,2022-06-29_09h08.31.507,Colour_Asymmetry_Pilot,2022.1.3,Win32,60.02040694,62bbe60bf3d75ef465d3e404,,,,,,,,,,,,,,,,,,,,,,,,,,,,,,,,,,,,,,,,,,,,,,,,,,,,,,,,,,,,,,,,,,,,,,,,,,,,,,,,,,,,,,,,,,,,,,,,,,,,,,,,,,,,,,,,,,,,,,,,,,,,,,,,,,,,,,,,,,,,,,,,,,,,,,,,,,,,,,
0,48,48,10,1,,61080db9b1d210972ee7959a,62bbfa5823cc2669efad188f,2022-06-29_09h08.31.507,Colour_Asymmetry_Pilot,2022.1.3,Win32,60.02040694,62bbe60bf3d75ef465d3e404,,,,,,,,,,,,,,,,,,,,,,,,,,,,,,,,,,,,,,,,,,,,,,,,,,,,,,,,,,,,,,,,,,,,,,,,,,,,,,,,,,,,,,,,,,,,,,,,,,,,,,,,,,,,,,,,,,,,,,,,,,,,,,,,,,,,,,,,,,,,,,,,,,,,,,,,,,,,,,
0,49,49,64,1,,61080db9b1d210972ee7959a,62bbfa5823cc2669efad188f,2022-06-29_09h08.31.507,Colour_Asymmetry_Pilot,2022.1.3,Win32,60.02040694,62bbe60bf3d75ef465d3e404,,,,,,,,,,,,,,,,,,,,,,,,,,,,,,,,,,,,,,,,,,,,,,,,,,,,,,,,,,,,,,,,,,,,,,,,,,,,,,,,,,,,,,,,,,,,,,,,,,,,,,,,,,,,,,,,,,,,,,,,,,,,,,,,,,,,,,,,,,,,,,,,,,,,,,,,,,,,,,
0,50,50,26,1,,61080db9b1d210972ee7959a,62bbfa5823cc2669efad188f,2022-06-29_09h08.31.507,Colour_Asymmetry_Pilot,2022.1.3,Win32,60.02040694,62bbe60bf3d75ef465d3e404,,,,,,,,,,,,,,,,,,,,,,,,,,,,,,,,,,,,,,,,,,,,,,,,,,,,,,,,,,,,,,,,,,,,,,,,,,,,,,,,,,,,,,,,,,,,,,,,,,,,,,,,,,,,,,,,,,,,,,,,,,,,,,,,,,,,,,,,,,,,,,,,,,,,,,,,,,,,,,
0,51,51,25,1,,61080db9b1d210972ee7959a,62bbfa5823cc2669efad188f,2022-06-29_09h08.31.507,Colour_Asymmetry_Pilot,2022.1.3,Win32,60.02040694,62bbe60bf3d75ef465d3e404,,,,,,,,,,,,,,,,,,,,,,,,,,,,,,,,,,,,,,,,,,,,,,,,,,,,,,,,,,,,,,,,,,,,,,,,,,,,,,,,,,,,,,,,,,,,,,,,,,,,,,,,,,,,,,,,,,,,,,,,,,,,,,,,,,,,,,,,,,,,,,,,,,,,,,,,,,,,,,
0,52,52,12,1,,61080db9b1d210972ee7959a,62bbfa5823cc2669efad188f,2022-06-29_09h08.31.507,Colour_Asymmetry_Pilot,2022.1.3,Win32,60.02040694,62bbe60bf3d75ef465d3e404,,,,,,,,,,,,,,,,,,,,,,,,,,,,,,,,,,,,,,,,,,,,,,,,,,,,,,,,,,,,,,,,,,,,,,,,,,,,,,,,,,,,,,,,,,,,,,,,,,,,,,,,,,,,,,,,,,,,,,,,,,,,,,,,,,,,,,,,,,,,,,,,,,,,,,,,,,,,,,
0,53,53,39,1,,61080db9b1d210972ee7959a,62bbfa5823cc2669efad188f,2022-06-29_09h08.31.507,Colour_Asymmetry_Pilot,2022.1.3,Win32,60.02040694,62bbe60bf3d75ef465d3e404,,,,,,,,,,,,,,,,,,,,,,,,,,,,,,,,,,,,,,,,,,,,,,,,,,,,,,,,,,,,,,,,,,,,,,,,,,,,,,,,,,,,,,,,,,,,,,,,,,,,,,,,,,,,,,,,,,,,,,,,,,,,,,,,,,,,,,,,,,,,,,,,,,,,,,,,,,,,,,
0,54,54,15,1,,61080db9b1d210972ee7959a,62bbfa5823cc2669efad188f,2022-06-29_09h08.31.507,Colour_Asymmetry_Pilot,2022.1.3,Win32,60.02040694,62bbe60bf3d75ef465d3e404,,,,,,,,,,,,,,,,,,,,,,,,,,,,,,,,,,,,,,,,,,,,,,,,,,,,,,,,,,,,,,,,,,,,,,,,,,,,,,,,,,,,,,,,,,,,,,,,,,,,,,,,,,,,,,,,,,,,,,,,,,,,,,,,,,,,,,,,,,,,,,,,,,,,,,,,,,,,,,
0,55,55,14,1,,61080db9b1d210972ee7959a,62bbfa5823cc2669efad188f,2022-06-29_09h08.31.507,Colour_Asymmetry_Pilot,2022.1.3,Win32,60.02040694,62bbe60bf3d75ef465d3e404,,,,,,,,,,,,,,,,,,,,,,,,,,,,,,,,,,,,,,,,,,,,,,,,,,,,,,,,,,,,,,,,,,,,,,,,,,,,,,,,,,,,,,,,,,,,,,,,,,,,,,,,,,,,,,,,,,,,,,,,,,,,,,,,,,,,,,,,,,,,,,,,,,,,,,,,,,,,,,
0,56,56,82,1,,61080db9b1d210972ee7959a,62bbfa5823cc2669efad188f,2022-06-29_09h08.31.507,Colour_Asymmetry_Pilot,2022.1.3,Win32,60.02040694,62bbe60bf3d75ef465d3e404,,,,,,,,,,,,,,,,,,,,,,,,,,,,,,,,,,,,,,,,,,,,,,,,,,,,,,,,,,,,,,,,,,,,,,,,,,,,,,,,,,,,,,,,,,,,,,,,,,,,,,,,,,,,,,,,,,,,,,,,,,,,,,,,,,,,,,,,,,,,,,,,,,,,,,,,,,,,,,
0,57,57,5,1,,61080db9b1d210972ee7959a,62bbfa5823cc2669efad188f,2022-06-29_09h08.31.507,Colour_Asymmetry_Pilot,2022.1.3,Win32,60.02040694,62bbe60bf3d75ef465d3e404,,,,,,,,,,,,,,,,,,,,,,,,,,,,,,,,,,,,,,,,,,,,,,,,,,,,,,,,,,,,,,,,,,,,,,,,,,,,,,,,,,,,,,,,,,,,,,,,,,,,,,,,,,,,,,,,,,,,,,,,,,,,,,,,,,,,,,,,,,,,,,,,,,,,,,,,,,,,,,
0,58,58,40,1,,61080db9b1d210972ee7959a,62bbfa5823cc2669efad188f,2022-06-29_09h08.31.507,Colour_Asymmetry_Pilot,2022.1.3,Win32,60.02040694,62bbe60bf3d75ef465d3e404,,,,,,,,,,,,,,,,,,,,,,,,,,,,,,,,,,,,,,,,,,,,,,,,,,,,,,,,,,,,,,,,,,,,,,,,,,,,,,,,,,,,,,,,,,,,,,,,,,,,,,,,,,,,,,,,,,,,,,,,,,,,,,,,,,,,,,,,,,,,,,,,,,,,,,,,,,,,,,
0,59,59,27,1,,61080db9b1d210972ee7959a,62bbfa5823cc2669efad188f,2022-06-29_09h08.31.507,Colour_Asymmetry_Pilot,2022.1.3,Win32,60.02040694,62bbe60bf3d75ef465d3e404,,,,,,,,,,,,,,,,,,,,,,,,,,,,,,,,,,,,,,,,,,,,,,,,,,,,,,,,,,,,,,,,,,,,,,,,,,,,,,,,,,,,,,,,,,,,,,,,,,,,,,,,,,,,,,,,,,,,,,,,,,,,,,,,,,,,,,,,,,,,,,,,,,,,,,,,,,,,,,
0,60,60,4,1,,61080db9b1d210972ee7959a,62bbfa5823cc2669efad188f,2022-06-29_09h08.31.507,Colour_Asymmetry_Pilot,2022.1.3,Win32,60.02040694,62bbe60bf3d75ef465d3e404,,,,,,,,,,,,,,,,,,,,,,,,,,,,,,,,,,,,,,,,,,,,,,,,,,,,,,,,,,,,,,,,,,,,,,,,,,,,,,,,,,,,,,,,,,,,,,,,,,,,,,,,,,,,,,,,,,,,,,,,,,,,,,,,,,,,,,,,,,,,,,,,,,,,,,,,,,,,,,
0,61,61,53,1,,61080db9b1d210972ee7959a,62bbfa5823cc2669efad188f,2022-06-29_09h08.31.507,Colour_Asymmetry_Pilot,2022.1.3,Win32,60.02040694,62bbe60bf3d75ef465d3e404,,,,,,,,,,,,,,,,,,,,,,,,,,,,,,,,,,,,,,,,,,,,,,,,,,,,,,,,,,,,,,,,,,,,,,,,,,,,,,,,,,,,,,,,,,,,,,,,,,,,,,,,,,,,,,,,,,,,,,,,,,,,,,,,,,,,,,,,,,,,,,,,,,,,,,,,,,,,,,
0,62,62,85,1,,61080db9b1d210972ee7959a,62bbfa5823cc2669efad188f,2022-06-29_09h08.31.507,Colour_Asymmetry_Pilot,2022.1.3,Win32,60.02040694,62bbe60bf3d75ef465d3e404,,,,,,,,,,,,,,,,,,,,,,,,,,,,,,,,,,,,,,,,,,,,,,,,,,,,,,,,,,,,,,,,,,,,,,,,,,,,,,,,,,,,,,,,,,,,,,,,,,,,,,,,,,,,,,,,,,,,,,,,,,,,,,,,,,,,,,,,,,,,,,,,,,,,,,,,,,,,,,
0,63,63,33,1,,61080db9b1d210972ee7959a,62bbfa5823cc2669efad188f,2022-06-29_09h08.31.507,Colour_Asymmetry_Pilot,2022.1.3,Win32,60.02040694,62bbe60bf3d75ef465d3e404,,,,,,,,,,,,,,,,,,,,,,,,,,,,,,,,,,,,,,,,,,,,,,,,,,,,,,,,,,,,,,,,,,,,,,,,,,,,,,,,,,,,,,,,,,,,,,,,,,,,,,,,,,,,,,,,,,,,,,,,,,,,,,,,,,,,,,,,,,,,,,,,,,,,,,,,,,,,,,
0,64,64,74,1,,61080db9b1d210972ee7959a,62bbfa5823cc2669efad188f,2022-06-29_09h08.31.507,Colour_Asymmetry_Pilot,2022.1.3,Win32,60.02040694,62bbe60bf3d75ef465d3e404,,,,,,,,,,,,,,,,,,,,,,,,,,,,,,,,,,,,,,,,,,,,,,,,,,,,,,,,,,,,,,,,,,,,,,,,,,,,,,,,,,,,,,,,,,,,,,,,,,,,,,,,,,,,,,,,,,,,,,,,,,,,,,,,,,,,,,,,,,,,,,,,,,,,,,,,,,,,,,
0,65,65,13,1,,61080db9b1d210972ee7959a,62bbfa5823cc2669efad188f,2022-06-29_09h08.31.507,Colour_Asymmetry_Pilot,2022.1.3,Win32,60.02040694,62bbe60bf3d75ef465d3e404,,,,,,,,,,,,,,,,,,,,,,,,,,,,,,,,,,,,,,,,,,,,,,,,,,,,,,,,,,,,,,,,,,,,,,,,,,,,,,,,,,,,,,,,,,,,,,,,,,,,,,,,,,,,,,,,,,,,,,,,,,,,,,,,,,,,,,,,,,,,,,,,,,,,,,,,,,,,,,
0,66,66,62,1,,61080db9b1d210972ee7959a,62bbfa5823cc2669efad188f,2022-06-29_09h08.31.507,Colour_Asymmetry_Pilot,2022.1.3,Win32,60.02040694,62bbe60bf3d75ef465d3e404,,,,,,,,,,,,,,,,,,,,,,,,,,,,,,,,,,,,,,,,,,,,,,,,,,,,,,,,,,,,,,,,,,,,,,,,,,,,,,,,,,,,,,,,,,,,,,,,,,,,,,,,,,,,,,,,,,,,,,,,,,,,,,,,,,,,,,,,,,,,,,,,,,,,,,,,,,,,,,
0,67,67,55,1,,61080db9b1d210972ee7959a,62bbfa5823cc2669efad188f,2022-06-29_09h08.31.507,Colour_Asymmetry_Pilot,2022.1.3,Win32,60.02040694,62bbe60bf3d75ef465d3e404,,,,,,,,,,,,,,,,,,,,,,,,,,,,,,,,,,,,,,,,,,,,,,,,,,,,,,,,,,,,,,,,,,,,,,,,,,,,,,,,,,,,,,,,,,,,,,,,,,,,,,,,,,,,,,,,,,,,,,,,,,,,,,,,,,,,,,,,,,,,,,,,,,,,,,,,,,,,,,
0,68,68,63,1,,61080db9b1d210972ee7959a,62bbfa5823cc2669efad188f,2022-06-29_09h08.31.507,Colour_Asymmetry_Pilot,2022.1.3,Win32,60.02040694,62bbe60bf3d75ef465d3e404,,,,,,,,,,,,,,,,,,,,,,,,,,,,,,,,,,,,,,,,,,,,,,,,,,,,,,,,,,,,,,,,,,,,,,,,,,,,,,,,,,,,,,,,,,,,,,,,,,,,,,,,,,,,,,,,,,,,,,,,,,,,,,,,,,,,,,,,,,,,,,,,,,,,,,,,,,,,,,
0,69,69,43,1,,61080db9b1d210972ee7959a,62bbfa5823cc2669efad188f,2022-06-29_09h08.31.507,Colour_Asymmetry_Pilot,2022.1.3,Win32,60.02040694,62bbe60bf3d75ef465d3e404,,,,,,,,,,,,,,,,,,,,,,,,,,,,,,,,,,,,,,,,,,,,,,,,,,,,,,,,,,,,,,,,,,,,,,,,,,,,,,,,,,,,,,,,,,,,,,,,,,,,,,,,,,,,,,,,,,,,,,,,,,,,,,,,,,,,,,,,,,,,,,,,,,,,,,,,,,,,,,
0,70,70,87,1,,61080db9b1d210972ee7959a,62bbfa5823cc2669efad188f,2022-06-29_09h08.31.507,Colour_Asymmetry_Pilot,2022.1.3,Win32,60.02040694,62bbe60bf3d75ef465d3e404,,,,,,,,,,,,,,,,,,,,,,,,,,,,,,,,,,,,,,,,,,,,,,,,,,,,,,,,,,,,,,,,,,,,,,,,,,,,,,,,,,,,,,,,,,,,,,,,,,,,,,,,,,,,,,,,,,,,,,,,,,,,,,,,,,,,,,,,,,,,,,,,,,,,,,,,,,,,,,
0,71,71,38,1,,61080db9b1d210972ee7959a,62bbfa5823cc2669efad188f,2022-06-29_09h08.31.507,Colour_Asymmetry_Pilot,2022.1.3,Win32,60.02040694,62bbe60bf3d75ef465d3e404,,,,,,,,,,,,,,,,,,,,,,,,,,,,,,,,,,,,,,,,,,,,,,,,,,,,,,,,,,,,,,,,,,,,,,,,,,,,,,,,,,,,,,,,,,,,,,,,,,,,,,,,,,,,,,,,,,,,,,,,,,,,,,,,,,,,,,,,,,,,,,,,,,,,,,,,,,,,,,
0,72,72,24,1,,61080db9b1d210972ee7959a,62bbfa5823cc2669efad188f,2022-06-29_09h08.31.507,Colour_Asymmetry_Pilot,2022.1.3,Win32,60.02040694,62bbe60bf3d75ef465d3e404,,,,,,,,,,,,,,,,,,,,,,,,,,,,,,,,,,,,,,,,,,,,,,,,,,,,,,,,,,,,,,,,,,,,,,,,,,,,,,,,,,,,,,,,,,,,,,,,,,,,,,,,,,,,,,,,,,,,,,,,,,,,,,,,,,,,,,,,,,,,,,,,,,,,,,,,,,,,,,
0,73,73,81,1,,61080db9b1d210972ee7959a,62bbfa5823cc2669efad188f,2022-06-29_09h08.31.507,Colour_Asymmetry_Pilot,2022.1.3,Win32,60.02040694,62bbe60bf3d75ef465d3e404,,,,,,,,,,,,,,,,,,,,,,,,,,,,,,,,,,,,,,,,,,,,,,,,,,,,,,,,,,,,,,,,,,,,,,,,,,,,,,,,,,,,,,,,,,,,,,,,,,,,,,,,,,,,,,,,,,,,,,,,,,,,,,,,,,,,,,,,,,,,,,,,,,,,,,,,,,,,,,
0,74,74,42,1,,61080db9b1d210972ee7959a,62bbfa5823cc2669efad188f,2022-06-29_09h08.31.507,Colour_Asymmetry_Pilot,2022.1.3,Win32,60.02040694,62bbe60bf3d75ef465d3e404,,,,,,,,,,,,,,,,,,,,,,,,,,,,,,,,,,,,,,,,,,,,,,,,,,,,,,,,,,,,,,,,,,,,,,,,,,,,,,,,,,,,,,,,,,,,,,,,,,,,,,,,,,,,,,,,,,,,,,,,,,,,,,,,,,,,,,,,,,,,,,,,,,,,,,,,,,,,,,
0,75,75,49,1,,61080db9b1d210972ee7959a,62bbfa5823cc2669efad188f,2022-06-29_09h08.31.507,Colour_Asymmetry_Pilot,2022.1.3,Win32,60.02040694,62bbe60bf3d75ef465d3e404,,,,,,,,,,,,,,,,,,,,,,,,,,,,,,,,,,,,,,,,,,,,,,,,,,,,,,,,,,,,,,,,,,,,,,,,,,,,,,,,,,,,,,,,,,,,,,,,,,,,,,,,,,,,,,,,,,,,,,,,,,,,,,,,,,,,,,,,,,,,,,,,,,,,,,,,,,,,,,
0,76,76,71,1,,61080db9b1d210972ee7959a,62bbfa5823cc2669efad188f,2022-06-29_09h08.31.507,Colour_Asymmetry_Pilot,2022.1.3,Win32,60.02040694,62bbe60bf3d75ef465d3e404,,,,,,,,,,,,,,,,,,,,,,,,,,,,,,,,,,,,,,,,,,,,,,,,,,,,,,,,,,,,,,,,,,,,,,,,,,,,,,,,,,,,,,,,,,,,,,,,,,,,,,,,,,,,,,,,,,,,,,,,,,,,,,,,,,,,,,,,,,,,,,,,,,,,,,,,,,,,,,
0,77,77,69,1,,61080db9b1d210972ee7959a,62bbfa5823cc2669efad188f,2022-06-29_09h08.31.507,Colour_Asymmetry_Pilot,2022.1.3,Win32,60.02040694,62bbe60bf3d75ef465d3e404,,,,,,,,,,,,,,,,,,,,,,,,,,,,,,,,,,,,,,,,,,,,,,,,,,,,,,,,,,,,,,,,,,,,,,,,,,,,,,,,,,,,,,,,,,,,,,,,,,,,,,,,,,,,,,,,,,,,,,,,,,,,,,,,,,,,,,,,,,,,,,,,,,,,,,,,,,,,,,
0,78,78,80,1,,61080db9b1d210972ee7959a,62bbfa5823cc2669efad188f,2022-06-29_09h08.31.507,Colour_Asymmetry_Pilot,2022.1.3,Win32,60.02040694,62bbe60bf3d75ef465d3e404,,,,,,,,,,,,,,,,,,,,,,,,,,,,,,,,,,,,,,,,,,,,,,,,,,,,,,,,,,,,,,,,,,,,,,,,,,,,,,,,,,,,,,,,,,,,,,,,,,,,,,,,,,,,,,,,,,,,,,,,,,,,,,,,,,,,,,,,,,,,,,,,,,,,,,,,,,,,,,
0,79,79,75,1,,61080db9b1d210972ee7959a,62bbfa5823cc2669efad188f,2022-06-29_09h08.31.507,Colour_Asymmetry_Pilot,2022.1.3,Win32,60.02040694,62bbe60bf3d75ef465d3e404,,,,,,,,,,,,,,,,,,,,,,,,,,,,,,,,,,,,,,,,,,,,,,,,,,,,,,,,,,,,,,,,,,,,,,,,,,,,,,,,,,,,,,,,,,,,,,,,,,,,,,,,,,,,,,,,,,,,,,,,,,,,,,,,,,,,,,,,,,,,,,,,,,,,,,,,,,,,,,
0,80,80,6,1,,61080db9b1d210972ee7959a,62bbfa5823cc2669efad188f,2022-06-29_09h08.31.507,Colour_Asymmetry_Pilot,2022.1.3,Win32,60.02040694,62bbe60bf3d75ef465d3e404,,,,,,,,,,,,,,,,,,,,,,,,,,,,,,,,,,,,,,,,,,,,,,,,,,,,,,,,,,,,,,,,,,,,,,,,,,,,,,,,,,,,,,,,,,,,,,,,,,,,,,,,,,,,,,,,,,,,,,,,,,,,,,,,,,,,,,,,,,,,,,,,,,,,,,,,,,,,,,
0,81,81,92,1,,61080db9b1d210972ee7959a,62bbfa5823cc2669efad188f,2022-06-29_09h08.31.507,Colour_Asymmetry_Pilot,2022.1.3,Win32,60.02040694,62bbe60bf3d75ef465d3e404,,,,,,,,,,,,,,,,,,,,,,,,,,,,,,,,,,,,,,,,,,,,,,,,,,,,,,,,,,,,,,,,,,,,,,,,,,,,,,,,,,,,,,,,,,,,,,,,,,,,,,,,,,,,,,,,,,,,,,,,,,,,,,,,,,,,,,,,,,,,,,,,,,,,,,,,,,,,,,
0,82,82,59,1,,61080db9b1d210972ee7959a,62bbfa5823cc2669efad188f,2022-06-29_09h08.31.507,Colour_Asymmetry_Pilot,2022.1.3,Win32,60.02040694,62bbe60bf3d75ef465d3e404,,,,,,,,,,,,,,,,,,,,,,,,,,,,,,,,,,,,,,,,,,,,,,,,,,,,,,,,,,,,,,,,,,,,,,,,,,,,,,,,,,,,,,,,,,,,,,,,,,,,,,,,,,,,,,,,,,,,,,,,,,,,,,,,,,,,,,,,,,,,,,,,,,,,,,,,,,,,,,
0,83,83,32,1,,61080db9b1d210972ee7959a,62bbfa5823cc2669efad188f,2022-06-29_09h08.31.507,Colour_Asymmetry_Pilot,2022.1.3,Win32,60.02040694,62bbe60bf3d75ef465d3e404,,,,,,,,,,,,,,,,,,,,,,,,,,,,,,,,,,,,,,,,,,,,,,,,,,,,,,,,,,,,,,,,,,,,,,,,,,,,,,,,,,,,,,,,,,,,,,,,,,,,,,,,,,,,,,,,,,,,,,,,,,,,,,,,,,,,,,,,,,,,,,,,,,,,,,,,,,,,,,
0,84,84,44,1,,61080db9b1d210972ee7959a,62bbfa5823cc2669efad188f,2022-06-29_09h08.31.507,Colour_Asymmetry_Pilot,2022.1.3,Win32,60.02040694,62bbe60bf3d75ef465d3e404,,,,,,,,,,,,,,,,,,,,,,,,,,,,,,,,,,,,,,,,,,,,,,,,,,,,,,,,,,,,,,,,,,,,,,,,,,,,,,,,,,,,,,,,,,,,,,,,,,,,,,,,,,,,,,,,,,,,,,,,,,,,,,,,,,,,,,,,,,,,,,,,,,,,,,,,,,,,,,
0,85,85,9,1,,61080db9b1d210972ee7959a,62bbfa5823cc2669efad188f,2022-06-29_09h08.31.507,Colour_Asymmetry_Pilot,2022.1.3,Win32,60.02040694,62bbe60bf3d75ef465d3e404,,,,,,,,,,,,,,,,,,,,,,,,,,,,,,,,,,,,,,,,,,,,,,,,,,,,,,,,,,,,,,,,,,,,,,,,,,,,,,,,,,,,,,,,,,,,,,,,,,,,,,,,,,,,,,,,,,,,,,,,,,,,,,,,,,,,,,,,,,,,,,,,,,,,,,,,,,,,,,
0,86,86,79,1,,61080db9b1d210972ee7959a,62bbfa5823cc2669efad188f,2022-06-29_09h08.31.507,Colour_Asymmetry_Pilot,2022.1.3,Win32,60.02040694,62bbe60bf3d75ef465d3e404,,,,,,,,,,,,,,,,,,,,,,,,,,,,,,,,,,,,,,,,,,,,,,,,,,,,,,,,,,,,,,,,,,,,,,,,,,,,,,,,,,,,,,,,,,,,,,,,,,,,,,,,,,,,,,,,,,,,,,,,,,,,,,,,,,,,,,,,,,,,,,,,,,,,,,,,,,,,,,
0,87,87,73,1,,61080db9b1d210972ee7959a,62bbfa5823cc2669efad188f,2022-06-29_09h08.31.507,Colour_Asymmetry_Pilot,2022.1.3,Win32,60.02040694,62bbe60bf3d75ef465d3e404,,,,,,,,,,,,,,,,,,,,,,,,,,,,,,,,,,,,,,,,,,,,,,,,,,,,,,,,,,,,,,,,,,,,,,,,,,,,,,,,,,,,,,,,,,,,,,,,,,,,,,,,,,,,,,,,,,,,,,,,,,,,,,,,,,,,,,,,,,,,,,,,,,,,,,,,,,,,,,
0,88,88,65,1,,61080db9b1d210972ee7959a,62bbfa5823cc2669efad188f,2022-06-29_09h08.31.507,Colour_Asymmetry_Pilot,2022.1.3,Win32,60.02040694,62bbe60bf3d75ef465d3e404,,,,,,,,,,,,,,,,,,,,,,,,,,,,,,,,,,,,,,,,,,,,,,,,,,,,,,,,,,,,,,,,,,,,,,,,,,,,,,,,,,,,,,,,,,,,,,,,,,,,,,,,,,,,,,,,,,,,,,,,,,,,,,,,,,,,,,,,,,,,,,,,,,,,,,,,,,,,,,
0,89,89,17,1,,61080db9b1d210972ee7959a,62bbfa5823cc2669efad188f,2022-06-29_09h08.31.507,Colour_Asymmetry_Pilot,2022.1.3,Win32,60.02040694,62bbe60bf3d75ef465d3e404,,,,,,,,,,,,,,,,,,,,,,,,,,,,,,,,,,,,,,,,,,,,,,,,,,,,,,,,,,,,,,,,,,,,,,,,,,,,,,,,,,,,,,,,,,,,,,,,,,,,,,,,,,,,,,,,,,,,,,,,,,,,,,,,,,,,,,,,,,,,,,,,,,,,,,,,,,,,,,
0,90,90,7,1,,61080db9b1d210972ee7959a,62bbfa5823cc2669efad188f,2022-06-29_09h08.31.507,Colour_Asymmetry_Pilot,2022.1.3,Win32,60.02040694,62bbe60bf3d75ef465d3e404,,,,,,,,,,,,,,,,,,,,,,,,,,,,,,,,,,,,,,,,,,,,,,,,,,,,,,,,,,,,,,,,,,,,,,,,,,,,,,,,,,,,,,,,,,,,,,,,,,,,,,,,,,,,,,,,,,,,,,,,,,,,,,,,,,,,,,,,,,,,,,,,,,,,,,,,,,,,,,
0,91,91,37,1,,61080db9b1d210972ee7959a,62bbfa5823cc2669efad188f,2022-06-29_09h08.31.507,Colour_Asymmetry_Pilot,2022.1.3,Win32,60.02040694,62bbe60bf3d75ef465d3e404,,,,,,,,,,,,,,,,,,,,,,,,,,,,,,,,,,,,,,,,,,,,,,,,,,,,,,,,,,,,,,,,,,,,,,,,,,,,,,,,,,,,,,,,,,,,,,,,,,,,,,,,,,,,,,,,,,,,,,,,,,,,,,,,,,,,,,,,,,,,,,,,,,,,,,,,,,,,,,
0,92,92,35,1,,61080db9b1d210972ee7959a,62bbfa5823cc2669efad188f,2022-06-29_09h08.31.507,Colour_Asymmetry_Pilot,2022.1.3,Win32,60.02040694,62bbe60bf3d75ef465d3e404,,,,,,,,,,,,,,,,,,,,,,,,,,,,,,,,,,,,,,,,,,,,,,,,,,,,,,,,,,,,,,,,,,,,,,,,,,,,,,,,,,,,,,,,,,,,,,,,,,,,,,,,,,,,,,,,,,,,,,,,,,,,,,,,,,,,,,,,,,,,,,,,,,,,,,,,,,,,,,
,,,,,,61080db9b1d210972ee7959a,62bbfa5823cc2669efad188f,2022-06-29_09h08.31.507,Colour_Asymmetry_Pilot,2022.1.3,Win32,60.02040694,62bbe60bf3d75ef465d3e404,0,0,0,48,1,onetwo,,,,,,,,,,,,,,,,,,,,,,,,,,,,,,,,,,,,,,,,,,,,,,,,,,,,,,,,,,,,,,,,,,,,,,,,,,,,,,,,,,,,,,,,,,,,,,,,,,,,,,,,,,,,,,,,,,,,,,,,,,,,,,,,,,,,,,,,,,,,,,,,,,,,,,,,
,,,,,,61080db9b1d210972ee7959a,62bbfa5823cc2669efad188f,2022-06-29_09h08.31.507,Colour_Asymmetry_Pilot,2022.1.3,Win32,60.02040694,62bbe60bf3d75ef465d3e404,0,1,1,86,1,fourtwo,,,,,,,,,,,,,,,,,,,,,,,,,,,,,,,,,,,,,,,,,,,,,,,,,,,,,,,,,,,,,,,,,,,,,,,,,,,,,,,,,,,,,,,,,,,,,,,,,,,,,,,,,,,,,,,,,,,,,,,,,,,,,,,,,,,,,,,,,,,,,,,,,,,,,,,,
,,,,,,61080db9b1d210972ee7959a,62bbfa5823cc2669efad188f,2022-06-29_09h08.31.507,Colour_Asymmetry_Pilot,2022.1.3,Win32,60.02040694,62bbe60bf3d75ef465d3e404,0,2,2,15,1,fourthree,,,,,,,,,,,,,,,,,,,,,,,,,,,,,,,,,,,,,,,,,,,,,,,,,,,,,,,,,,,,,,,,,,,,,,,,,,,,,,,,,,,,,,,,,,,,,,,,,,,,,,,,,,,,,,,,,,,,,,,,,,,,,,,,,,,,,,,,,,,,,,,,,,,,,,,,
,,,,,,61080db9b1d210972ee7959a,62bbfa5823cc2669efad188f,2022-06-29_09h08.31.507,Colour_Asymmetry_Pilot,2022.1.3,Win32,60.02040694,62bbe60bf3d75ef465d3e404,0,3,3,114,1,twoone,,,,,,,,,,,,,,,,,,,,,,,,,,,,,,,,,,,,,,,,,,,,,,,,,,,,,,,,,,,,,,,,,,,,,,,,,,,,,,,,,,,,,,,,,,,,,,,,,,,,,,,,,,,,,,,,,,,,,,,,,,,,,,,,,,,,,,,,,,,,,,,,,,,,,,,,
,,,,,,61080db9b1d210972ee7959a,62bbfa5823cc2669efad188f,2022-06-29_09h08.31.507,Colour_Asymmetry_Pilot,2022.1.3,Win32,60.02040694,62bbe60bf3d75ef465d3e404,0,4,4,38,1,fourtwo,,,,,,,,,,,,,,,,,,,,,,,,,,,,,,,,,,,,,,,,,,,,,,,,,,,,,,,,,,,,,,,,,,,,,,,,,,,,,,,,,,,,,,,,,,,,,,,,,,,,,,,,,,,,,,,,,,,,,,,,,,,,,,,,,,,,,,,,,,,,,,,,,,,,,,,,
,,,,,,61080db9b1d210972ee7959a,62bbfa5823cc2669efad188f,2022-06-29_09h08.31.507,Colour_Asymmetry_Pilot,2022.1.3,Win32,60.02040694,62bbe60bf3d75ef465d3e404,0,5,5,24,1,onetwo,,,,,,,,,,,,,,,,,,,,,,,,,,,,,,,,,,,,,,,,,,,,,,,,,,,,,,,,,,,,,,,,,,,,,,,,,,,,,,,,,,,,,,,,,,,,,,,,,,,,,,,,,,,,,,,,,,,,,,,,,,,,,,,,,,,,,,,,,,,,,,,,,,,,,,,,
,,,,,,61080db9b1d210972ee7959a,62bbfa5823cc2669efad188f,2022-06-29_09h08.31.507,Colour_Asymmetry_Pilot,2022.1.3,Win32,60.02040694,62bbe60bf3d75ef465d3e404,0,6,6,102,1,fourtwo,,,,,,,,,,,,,,,,,,,,,,,,,,,,,,,,,,,,,,,,,,,,,,,,,,,,,,,,,,,,,,,,,,,,,,,,,,,,,,,,,,,,,,,,,,,,,,,,,,,,,,,,,,,,,,,,,,,,,,,,,,,,,,,,,,,,,,,,,,,,,,,,,,,,,,,,
,,,,,,61080db9b1d210972ee7959a,62bbfa5823cc2669efad188f,2022-06-29_09h08.31.507,Colour_Asymmetry_Pilot,2022.1.3,Win32,60.02040694,62bbe60bf3d75ef465d3e404,0,7,7,157,1,threefour,,,,,,,,,,,,,,,,,,,,,,,,,,,,,,,,,,,,,,,,,,,,,,,,,,,,,,,,,,,,,,,,,,,,,,,,,,,,,,,,,,,,,,,,,,,,,,,,,,,,,,,,,,,,,,,,,,,,,,,,,,,,,,,,,,,,,,,,,,,,,,,,,,,,,,,,
,,,,,,61080db9b1d210972ee7959a,62bbfa5823cc2669efad188f,2022-06-29_09h08.31.507,Colour_Asymmetry_Pilot,2022.1.3,Win32,60.02040694,62bbe60bf3d75ef465d3e404,0,8,8,21,1,threefour,,,,,,,,,,,,,,,,,,,,,,,,,,,,,,,,,,,,,,,,,,,,,,,,,,,,,,,,,,,,,,,,,,,,,,,,,,,,,,,,,,,,,,,,,,,,,,,,,,,,,,,,,,,,,,,,,,,,,,,,,,,,,,,,,,,,,,,,,,,,,,,,,,,,,,,,
,,,,,,61080db9b1d210972ee7959a,62bbfa5823cc2669efad188f,2022-06-29_09h08.31.507,Colour_Asymmetry_Pilot,2022.1.3,Win32,60.02040694,62bbe60bf3d75ef465d3e404,0,9,9,110,1,fourtwo,,,,,,,,,,,,,,,,,,,,,,,,,,,,,,,,,,,,,,,,,,,,,,,,,,,,,,,,,,,,,,,,,,,,,,,,,,,,,,,,,,,,,,,,,,,,,,,,,,,,,,,,,,,,,,,,,,,,,,,,,,,,,,,,,,,,,,,,,,,,,,,,,,,,,,,,
,,,,,,61080db9b1d210972ee7959a,62bbfa5823cc2669efad188f,2022-06-29_09h08.31.507,Colour_Asymmetry_Pilot,2022.1.3,Win32,60.02040694,62bbe60bf3d75ef465d3e404,0,10,10,22,1,fourtwo,,,,,,,,,,,,,,,,,,,,,,,,,,,,,,,,,,,,,,,,,,,,,,,,,,,,,,,,,,,,,,,,,,,,,,,,,,,,,,,,,,,,,,,,,,,,,,,,,,,,,,,,,,,,,,,,,,,,,,,,,,,,,,,,,,,,,,,,,,,,,,,,,,,,,,,,
,,,,,,61080db9b1d210972ee7959a,62bbfa5823cc2669efad188f,2022-06-29_09h08.31.507,Colour_Asymmetry_Pilot,2022.1.3,Win32,60.02040694,62bbe60bf3d75ef465d3e404,0,11,11,107,1,twofour,,,,,,,,,,,,,,,,,,,,,,,,,,,,,,,,,,,,,,,,,,,,,,,,,,,,,,,,,,,,,,,,,,,,,,,,,,,,,,,,,,,,,,,,,,,,,,,,,,,,,,,,,,,,,,,,,,,,,,,,,,,,,,,,,,,,,,,,,,,,,,,,,,,,,,,,
,,,,,,61080db9b1d210972ee7959a,62bbfa5823cc2669efad188f,2022-06-29_09h08.31.507,Colour_Asymmetry_Pilot,2022.1.3,Win32,60.02040694,62bbe60bf3d75ef465d3e404,0,12,12,12,1,threeone,,,,,,,,,,,,,,,,,,,,,,,,,,,,,,,,,,,,,,,,,,,,,,,,,,,,,,,,,,,,,,,,,,,,,,,,,,,,,,,,,,,,,,,,,,,,,,,,,,,,,,,,,,,,,,,,,,,,,,,,,,,,,,,,,,,,,,,,,,,,,,,,,,,,,,,,
,,,,,,61080db9b1d210972ee7959a,62bbfa5823cc2669efad188f,2022-06-29_09h08.31.507,Colour_Asymmetry_Pilot,2022.1.3,Win32,60.02040694,62bbe60bf3d75ef465d3e404,0,13,13,85,1,threefour,,,,,,,,,,,,,,,,,,,,,,,,,,,,,,,,,,,,,,,,,,,,,,,,,,,,,,,,,,,,,,,,,,,,,,,,,,,,,,,,,,,,,,,,,,,,,,,,,,,,,,,,,,,,,,,,,,,,,,,,,,,,,,,,,,,,,,,,,,,,,,,,,,,,,,,,
,,,,,,61080db9b1d210972ee7959a,62bbfa5823cc2669efad188f,2022-06-29_09h08.31.507,Colour_Asymmetry_Pilot,2022.1.3,Win32,60.02040694,62bbe60bf3d75ef465d3e404,0,14,14,75,1,twofour,,,,,,,,,,,,,,,,,,,,,,,,,,,,,,,,,,,,,,,,,,,,,,,,,,,,,,,,,,,,,,,,,,,,,,,,,,,,,,,,,,,,,,,,,,,,,,,,,,,,,,,,,,,,,,,,,,,,,,,,,,,,,,,,,,,,,,,,,,,,,,,,,,,,,,,,
,,,,,,61080db9b1d210972ee7959a,62bbfa5823cc2669efad188f,2022-06-29_09h08.31.507,Colour_Asymmetry_Pilot,2022.1.3,Win32,60.02040694,62bbe60bf3d75ef465d3e404,0,15,15,27,1,twofour,,,,,,,,,,,,,,,,,,,,,,,,,,,,,,,,,,,,,,,,,,,,,,,,,,,,,,,,,,,,,,,,,,,,,,,,,,,,,,,,,,,,,,,,,,,,,,,,,,,,,,,,,,,,,,,,,,,,,,,,,,,,,,,,,,,,,,,,,,,,,,,,,,,,,,,,
,,,,,,61080db9b1d210972ee7959a,62bbfa5823cc2669efad188f,2022-06-29_09h08.31.507,Colour_Asymmetry_Pilot,2022.1.3,Win32,60.02040694,62bbe60bf3d75ef465d3e404,0,16,16,90,1,twoone,,,,,,,,,,,,,,,,,,,,,,,,,,,,,,,,,,,,,,,,,,,,,,,,,,,,,,,,,,,,,,,,,,,,,,,,,,,,,,,,,,,,,,,,,,,,,,,,,,,,,,,,,,,,,,,,,,,,,,,,,,,,,,,,,,,,,,,,,,,,,,,,,,,,,,,,
,,,,,,61080db9b1d210972ee7959a,62bbfa5823cc2669efad188f,2022-06-29_09h08.31.507,Colour_Asymmetry_Pilot,2022.1.3,Win32,60.02040694,62bbe60bf3d75ef465d3e404,0,17,17,98,1,twoone,,,,,,,,,,,,,,,,,,,,,,,,,,,,,,,,,,,,,,,,,,,,,,,,,,,,,,,,,,,,,,,,,,,,,,,,,,,,,,,,,,,,,,,,,,,,,,,,,,,,,,,,,,,,,,,,,,,,,,,,,,,,,,,,,,,,,,,,,,,,,,,,,,,,,,,,
,,,,,,61080db9b1d210972ee7959a,62bbfa5823cc2669efad188f,2022-06-29_09h08.31.507,Colour_Asymmetry_Pilot,2022.1.3,Win32,60.02040694,62bbe60bf3d75ef465d3e404,0,18,18,25,1,onethree,,,,,,,,,,,,,,,,,,,,,,,,,,,,,,,,,,,,,,,,,,,,,,,,,,,,,,,,,,,,,,,,,,,,,,,,,,,,,,,,,,,,,,,,,,,,,,,,,,,,,,,,,,,,,,,,,,,,,,,,,,,,,,,,,,,,,,,,,,,,,,,,,,,,,,,,
,,,,,,61080db9b1d210972ee7959a,62bbfa5823cc2669efad188f,2022-06-29_09h08.31.507,Colour_Asymmetry_Pilot,2022.1.3,Win32,60.02040694,62bbe60bf3d75ef465d3e404,0,19,19,89,1,onethree,,,,,,,,,,,,,,,,,,,,,,,,,,,,,,,,,,,,,,,,,,,,,,,,,,,,,,,,,,,,,,,,,,,,,,,,,,,,,,,,,,,,,,,,,,,,,,,,,,,,,,,,,,,,,,,,,,,,,,,,,,,,,,,,,,,,,,,,,,,,,,,,,,,,,,,,
,,,,,,61080db9b1d210972ee7959a,62bbfa5823cc2669efad188f,2022-06-29_09h08.31.507,Colour_Asymmetry_Pilot,2022.1.3,Win32,60.02040694,62bbe60bf3d75ef465d3e404,0,20,20,115,1,twofour,,,,,,,,,,,,,,,,,,,,,,,,,,,,,,,,,,,,,,,,,,,,,,,,,,,,,,,,,,,,,,,,,,,,,,,,,,,,,,,,,,,,,,,,,,,,,,,,,,,,,,,,,,,,,,,,,,,,,,,,,,,,,,,,,,,,,,,,,,,,,,,,,,,,,,,,
,,,,,,61080db9b1d210972ee7959a,62bbfa5823cc2669efad188f,2022-06-29_09h08.31.507,Colour_Asymmetry_Pilot,2022.1.3,Win32,60.02040694,62bbe60bf3d75ef465d3e404,0,21,21,134,1,fourtwo,,,,,,,,,,,,,,,,,,,,,,,,,,,,,,,,,,,,,,,,,,,,,,,,,,,,,,,,,,,,,,,,,,,,,,,,,,,,,,,,,,,,,,,,,,,,,,,,,,,,,,,,,,,,,,,,,,,,,,,,,,,,,,,,,,,,,,,,,,,,,,,,,,,,,,,,
,,,,,,61080db9b1d210972ee7959a,62bbfa5823cc2669efad188f,2022-06-29_09h08.31.507,Colour_Asymmetry_Pilot,2022.1.3,Win32,60.02040694,62bbe60bf3d75ef465d3e404,0,22,22,71,1,fourthree,,,,,,,,,,,,,,,,,,,,,,,,,,,,,,,,,,,,,,,,,,,,,,,,,,,,,,,,,,,,,,,,,,,,,,,,,,,,,,,,,,,,,,,,,,,,,,,,,,,,,,,,,,,,,,,,,,,,,,,,,,,,,,,,,,,,,,,,,,,,,,,,,,,,,,,,
,,,,,,61080db9b1d210972ee7959a,62bbfa5823cc2669efad188f,2022-06-29_09h08.31.507,Colour_Asymmetry_Pilot,2022.1.3,Win32,60.02040694,62bbe60bf3d75ef465d3e404,0,23,23,36,1,threeone,,,,,,,,,,,,,,,,,,,,,,,,,,,,,,,,,,,,,,,,,,,,,,,,,,,,,,,,,,,,,,,,,,,,,,,,,,,,,,,,,,,,,,,,,,,,,,,,,,,,,,,,,,,,,,,,,,,,,,,,,,,,,,,,,,,,,,,,,,,,,,,,,,,,,,,,
,,,,,,61080db9b1d210972ee7959a,62bbfa5823cc2669efad188f,2022-06-29_09h08.31.507,Colour_Asymmetry_Pilot,2022.1.3,Win32,60.02040694,62bbe60bf3d75ef465d3e404,0,24,24,99,1,twofour,,,,,,,,,,,,,,,,,,,,,,,,,,,,,,,,,,,,,,,,,,,,,,,,,,,,,,,,,,,,,,,,,,,,,,,,,,,,,,,,,,,,,,,,,,,,,,,,,,,,,,,,,,,,,,,,,,,,,,,,,,,,,,,,,,,,,,,,,,,,,,,,,,,,,,,,
,,,,,,61080db9b1d210972ee7959a,62bbfa5823cc2669efad188f,2022-06-29_09h08.31.507,Colour_Asymmetry_Pilot,2022.1.3,Win32,60.02040694,62bbe60bf3d75ef465d3e404,0,25,25,112,1,onetwo,,,,,,,,,,,,,,,,,,,,,,,,,,,,,,,,,,,,,,,,,,,,,,,,,,,,,,,,,,,,,,,,,,,,,,,,,,,,,,,,,,,,,,,,,,,,,,,,,,,,,,,,,,,,,,,,,,,,,,,,,,,,,,,,,,,,,,,,,,,,,,,,,,,,,,,,
,,,,,,61080db9b1d210972ee7959a,62bbfa5823cc2669efad188f,2022-06-29_09h08.31.507,Colour_Asymmetry_Pilot,2022.1.3,Win32,60.02040694,62bbe60bf3d75ef465d3e404,0,26,26,146,1,twoone,,,,,,,,,,,,,,,,,,,,,,,,,,,,,,,,,,,,,,,,,,,,,,,,,,,,,,,,,,,,,,,,,,,,,,,,,,,,,,,,,,,,,,,,,,,,,,,,,,,,,,,,,,,,,,,,,,,,,,,,,,,,,,,,,,,,,,,,,,,,,,,,,,,,,,,,
,,,,,,61080db9b1d210972ee7959a,62bbfa5823cc2669efad188f,2022-06-29_09h08.31.507,Colour_Asymmetry_Pilot,2022.1.3,Win32,60.02040694,62bbe60bf3d75ef465d3e404,0,27,27,131,1,twofour,,,,,,,,,,,,,,,,,,,,,,,,,,,,,,,,,,,,,,,,,,,,,,,,,,,,,,,,,,,,,,,,,,,,,,,,,,,,,,,,,,,,,,,,,,,,,,,,,,,,,,,,,,,,,,,,,,,,,,,,,,,,,,,,,,,,,,,,,,,,,,,,,,,,,,,,
,,,,,,61080db9b1d210972ee7959a,62bbfa5823cc2669efad188f,2022-06-29_09h08.31.507,Colour_Asymmetry_Pilot,2022.1.3,Win32,60.02040694,62bbe60bf3d75ef465d3e404,0,28,28,55,1,fourthree,,,,,,,,,,,,,,,,,,,,,,,,,,,,,,,,,,,,,,,,,,,,,,,,,,,,,,,,,,,,,,,,,,,,,,,,,,,,,,,,,,,,,,,,,,,,,,,,,,,,,,,,,,,,,,,,,,,,,,,,,,,,,,,,,,,,,,,,,,,,,,,,,,,,,,,,
,,,,,,61080db9b1d210972ee7959a,62bbfa5823cc2669efad188f,2022-06-29_09h08.31.507,Colour_Asymmetry_Pilot,2022.1.3,Win32,60.02040694,62bbe60bf3d75ef465d3e404,0,29,29,19,1,twofour,,,,,,,,,,,,,,,,,,,,,,,,,,,,,,,,,,,,,,,,,,,,,,,,,,,,,,,,,,,,,,,,,,,,,,,,,,,,,,,,,,,,,,,,,,,,,,,,,,,,,,,,,,,,,,,,,,,,,,,,,,,,,,,,,,,,,,,,,,,,,,,,,,,,,,,,
,,,,,,61080db9b1d210972ee7959a,62bbfa5823cc2669efad188f,2022-06-29_09h08.31.507,Colour_Asymmetry_Pilot,2022.1.3,Win32,60.02040694,62bbe60bf3d75ef465d3e404,0,30,30,148,1,threeone,,,,,,,,,,,,,,,,,,,,,,,,,,,,,,,,,,,,,,,,,,,,,,,,,,,,,,,,,,,,,,,,,,,,,,,,,,,,,,,,,,,,,,,,,,,,,,,,,,,,,,,,,,,,,,,,,,,,,,,,,,,,,,,,,,,,,,,,,,,,,,,,,,,,,,,,
,,,,,,61080db9b1d210972ee7959a,62bbfa5823cc2669efad188f,2022-06-29_09h08.31.507,Colour_Asymmetry_Pilot,2022.1.3,Win32,60.02040694,62bbe60bf3d75ef465d3e404,0,31,31,51,1,twofour,,,,,,,,,,,,,,,,,,,,,,,,,,,,,,,,,,,,,,,,,,,,,,,,,,,,,,,,,,,,,,,,,,,,,,,,,,,,,,,,,,,,,,,,,,,,,,,,,,,,,,,,,,,,,,,,,,,,,,,,,,,,,,,,,,,,,,,,,,,,,,,,,,,,,,,,
,,,,,,61080db9b1d210972ee7959a,62bbfa5823cc2669efad188f,2022-06-29_09h08.31.507,Colour_Asymmetry_Pilot,2022.1.3,Win32,60.02040694,62bbe60bf3d75ef465d3e404,0,32,32,39,1,fourthree,,,,,,,,,,,,,,,,,,,,,,,,,,,,,,,,,,,,,,,,,,,,,,,,,,,,,,,,,,,,,,,,,,,,,,,,,,,,,,,,,,,,,,,,,,,,,,,,,,,,,,,,,,,,,,,,,,,,,,,,,,,,,,,,,,,,,,,,,,,,,,,,,,,,,,,,
,,,,,,61080db9b1d210972ee7959a,62bbfa5823cc2669efad188f,2022-06-29_09h08.31.507,Colour_Asymmetry_Pilot,2022.1.3,Win32,60.02040694,62bbe60bf3d75ef465d3e404,0,33,33,9,1,onethree,,,,,,,,,,,,,,,,,,,,,,,,,,,,,,,,,,,,,,,,,,,,,,,,,,,,,,,,,,,,,,,,,,,,,,,,,,,,,,,,,,,,,,,,,,,,,,,,,,,,,,,,,,,,,,,,,,,,,,,,,,,,,,,,,,,,,,,,,,,,,,,,,,,,,,,,
,,,,,,61080db9b1d210972ee7959a,62bbfa5823cc2669efad188f,2022-06-29_09h08.31.507,Colour_Asymmetry_Pilot,2022.1.3,Win32,60.02040694,62bbe60bf3d75ef465d3e404,0,34,34,44,1,threeone,,,,,,,,,,,,,,,,,,,,,,,,,,,,,,,,,,,,,,,,,,,,,,,,,,,,,,,,,,,,,,,,,,,,,,,,,,,,,,,,,,,,,,,,,,,,,,,,,,,,,,,,,,,,,,,,,,,,,,,,,,,,,,,,,,,,,,,,,,,,,,,,,,,,,,,,
,,,,,,61080db9b1d210972ee7959a,62bbfa5823cc2669efad188f,2022-06-29_09h08.31.507,Colour_Asymmetry_Pilot,2022.1.3,Win32,60.02040694,62bbe60bf3d75ef465d3e404,0,35,35,26,1,twoone,,,,,,,,,,,,,,,,,,,,,,,,,,,,,,,,,,,,,,,,,,,,,,,,,,,,,,,,,,,,,,,,,,,,,,,,,,,,,,,,,,,,,,,,,,,,,,,,,,,,,,,,,,,,,,,,,,,,,,,,,,,,,,,,,,,,,,,,,,,,,,,,,,,,,,,,
,,,,,,61080db9b1d210972ee7959a,62bbfa5823cc2669efad188f,2022-06-29_09h08.31.507,Colour_Asymmetry_Pilot,2022.1.3,Win32,60.02040694,62bbe60bf3d75ef465d3e404,0,36,36,159,1,fourthree,,,,,,,,,,,,,,,,,,,,,,,,,,,,,,,,,,,,,,,,,,,,,,,,,,,,,,,,,,,,,,,,,,,,,,,,,,,,,,,,,,,,,,,,,,,,,,,,,,,,,,,,,,,,,,,,,,,,,,,,,,,,,,,,,,,,,,,,,,,,,,,,,,,,,,,,
,,,,,,61080db9b1d210972ee7959a,62bbfa5823cc2669efad188f,2022-06-29_09h08.31.507,Colour_Asymmetry_Pilot,2022.1.3,Win32,60.02040694,62bbe60bf3d75ef465d3e404,0,37,37,76,1,threeone,,,,,,,,,,,,,,,,,,,,,,,,,,,,,,,,,,,,,,,,,,,,,,,,,,,,,,,,,,,,,,,,,,,,,,,,,,,,,,,,,,,,,,,,,,,,,,,,,,,,,,,,,,,,,,,,,,,,,,,,,,,,,,,,,,,,,,,,,,,,,,,,,,,,,,,,
,,,,,,61080db9b1d210972ee7959a,62bbfa5823cc2669efad188f,2022-06-29_09h08.31.507,Colour_Asymmetry_Pilot,2022.1.3,Win32,60.02040694,62bbe60bf3d75ef465d3e404,0,38,38,72,1,onetwo,,,,,,,,,,,,,,,,,,,,,,,,,,,,,,,,,,,,,,,,,,,,,,,,,,,,,,,,,,,,,,,,,,,,,,,,,,,,,,,,,,,,,,,,,,,,,,,,,,,,,,,,,,,,,,,,,,,,,,,,,,,,,,,,,,,,,,,,,,,,,,,,,,,,,,,,
,,,,,,61080db9b1d210972ee7959a,62bbfa5823cc2669efad188f,2022-06-29_09h08.31.507,Colour_Asymmetry_Pilot,2022.1.3,Win32,60.02040694,62bbe60bf3d75ef465d3e404,0,39,39,96,1,onetwo,,,,,,,,,,,,,,,,,,,,,,,,,,,,,,,,,,,,,,,,,,,,,,,,,,,,,,,,,,,,,,,,,,,,,,,,,,,,,,,,,,,,,,,,,,,,,,,,,,,,,,,,,,,,,,,,,,,,,,,,,,,,,,,,,,,,,,,,,,,,,,,,,,,,,,,,
,,,,,,61080db9b1d210972ee7959a,62bbfa5823cc2669efad188f,2022-06-29_09h08.31.507,Colour_Asymmetry_Pilot,2022.1.3,Win32,60.02040694,62bbe60bf3d75ef465d3e404,0,40,40,8,1,onetwo,,,,,,,,,,,,,,,,,,,,,,,,,,,,,,,,,,,,,,,,,,,,,,,,,,,,,,,,,,,,,,,,,,,,,,,,,,,,,,,,,,,,,,,,,,,,,,,,,,,,,,,,,,,,,,,,,,,,,,,,,,,,,,,,,,,,,,,,,,,,,,,,,,,,,,,,
,,,,,,61080db9b1d210972ee7959a,62bbfa5823cc2669efad188f,2022-06-29_09h08.31.507,Colour_Asymmetry_Pilot,2022.1.3,Win32,60.02040694,62bbe60bf3d75ef465d3e404,0,41,41,119,1,fourthree,,,,,,,,,,,,,,,,,,,,,,,,,,,,,,,,,,,,,,,,,,,,,,,,,,,,,,,,,,,,,,,,,,,,,,,,,,,,,,,,,,,,,,,,,,,,,,,,,,,,,,,,,,,,,,,,,,,,,,,,,,,,,,,,,,,,,,,,,,,,,,,,,,,,,,,,
,,,,,,61080db9b1d210972ee7959a,62bbfa5823cc2669efad188f,2022-06-29_09h08.31.507,Colour_Asymmetry_Pilot,2022.1.3,Win32,60.02040694,62bbe60bf3d75ef465d3e404,0,42,42,95,1,fourthree,,,,,,,,,,,,,,,,,,,,,,,,,,,,,,,,,,,,,,,,,,,,,,,,,,,,,,,,,,,,,,,,,,,,,,,,,,,,,,,,,,,,,,,,,,,,,,,,,,,,,,,,,,,,,,,,,,,,,,,,,,,,,,,,,,,,,,,,,,,,,,,,,,,,,,,,
,,,,,,61080db9b1d210972ee7959a,62bbfa5823cc2669efad188f,2022-06-29_09h08.31.507,Colour_Asymmetry_Pilot,2022.1.3,Win32,60.02040694,62bbe60bf3d75ef465d3e404,0,43,43,59,1,twofour,,,,,,,,,,,,,,,,,,,,,,,,,,,,,,,,,,,,,,,,,,,,,,,,,,,,,,,,,,,,,,,,,,,,,,,,,,,,,,,,,,,,,,,,,,,,,,,,,,,,,,,,,,,,,,,,,,,,,,,,,,,,,,,,,,,,,,,,,,,,,,,,,,,,,,,,
,,,,,,61080db9b1d210972ee7959a,62bbfa5823cc2669efad188f,2022-06-29_09h08.31.507,Colour_Asymmetry_Pilot,2022.1.3,Win32,60.02040694,62bbe60bf3d75ef465d3e404,0,44,44,133,1,threefour,,,,,,,,,,,,,,,,,,,,,,,,,,,,,,,,,,,,,,,,,,,,,,,,,,,,,,,,,,,,,,,,,,,,,,,,,,,,,,,,,,,,,,,,,,,,,,,,,,,,,,,,,,,,,,,,,,,,,,,,,,,,,,,,,,,,,,,,,,,,,,,,,,,,,,,,
,,,,,,61080db9b1d210972ee7959a,62bbfa5823cc2669efad188f,2022-06-29_09h08.31.507,Colour_Asymmetry_Pilot,2022.1.3,Win32,60.02040694,62bbe60bf3d75ef465d3e404,0,45,45,113,1,onethree,,,,,,,,,,,,,,,,,,,,,,,,,,,,,,,,,,,,,,,,,,,,,,,,,,,,,,,,,,,,,,,,,,,,,,,,,,,,,,,,,,,,,,,,,,,,,,,,,,,,,,,,,,,,,,,,,,,,,,,,,,,,,,,,,,,,,,,,,,,,,,,,,,,,,,,,
,,,,,,61080db9b1d210972ee7959a,62bbfa5823cc2669efad188f,2022-06-29_09h08.31.507,Colour_Asymmetry_Pilot,2022.1.3,Win32,60.02040694,62bbe60bf3d75ef465d3e404,0,46,46,152,1,onetwo,,,,,,,,,,,,,,,,,,,,,,,,,,,,,,,,,,,,,,,,,,,,,,,,,,,,,,,,,,,,,,,,,,,,,,,,,,,,,,,,,,,,,,,,,,,,,,,,,,,,,,,,,,,,,,,,,,,,,,,,,,,,,,,,,,,,,,,,,,,,,,,,,,,,,,,,
,,,,,,61080db9b1d210972ee7959a,62bbfa5823cc2669efad188f,2022-06-29_09h08.31.507,Colour_Asymmetry_Pilot,2022.1.3,Win32,60.02040694,62bbe60bf3d75ef465d3e404,0,47,47,6,1,fourtwo,,,,,,,,,,,,,,,,,,,,,,,,,,,,,,,,,,,,,,,,,,,,,,,,,,,,,,,,,,,,,,,,,,,,,,,,,,,,,,,,,,,,,,,,,,,,,,,,,,,,,,,,,,,,,,,,,,,,,,,,,,,,,,,,,,,,,,,,,,,,,,,,,,,,,,,,
,,,,,,61080db9b1d210972ee7959a,62bbfa5823cc2669efad188f,2022-06-29_09h08.31.507,Colour_Asymmetry_Pilot,2022.1.3,Win32,60.02040694,62bbe60bf3d75ef465d3e404,0,48,48,29,1,threefour,,,,,,,,,,,,,,,,,,,,,,,,,,,,,,,,,,,,,,,,,,,,,,,,,,,,,,,,,,,,,,,,,,,,,,,,,,,,,,,,,,,,,,,,,,,,,,,,,,,,,,,,,,,,,,,,,,,,,,,,,,,,,,,,,,,,,,,,,,,,,,,,,,,,,,,,
,,,,,,61080db9b1d210972ee7959a,62bbfa5823cc2669efad188f,2022-06-29_09h08.31.507,Colour_Asymmetry_Pilot,2022.1.3,Win32,60.02040694,62bbe60bf3d75ef465d3e404,0,49,49,135,1,fourthree,,,,,,,,,,,,,,,,,,,,,,,,,,,,,,,,,,,,,,,,,,,,,,,,,,,,,,,,,,,,,,,,,,,,,,,,,,,,,,,,,,,,,,,,,,,,,,,,,,,,,,,,,,,,,,,,,,,,,,,,,,,,,,,,,,,,,,,,,,,,,,,,,,,,,,,,
,,,,,,61080db9b1d210972ee7959a,62bbfa5823cc2669efad188f,2022-06-29_09h08.31.507,Colour_Asymmetry_Pilot,2022.1.3,Win32,60.02040694,62bbe60bf3d75ef465d3e404,0,50,50,45,1,threefour,,,,,,,,,,,,,,,,,,,,,,,,,,,,,,,,,,,,,,,,,,,,,,,,,,,,,,,,,,,,,,,,,,,,,,,,,,,,,,,,,,,,,,,,,,,,,,,,,,,,,,,,,,,,,,,,,,,,,,,,,,,,,,,,,,,,,,,,,,,,,,,,,,,,,,,,
,,,,,,61080db9b1d210972ee7959a,62bbfa5823cc2669efad188f,2022-06-29_09h08.31.507,Colour_Asymmetry_Pilot,2022.1.3,Win32,60.02040694,62bbe60bf3d75ef465d3e404,0,51,51,57,1,onethree,,,,,,,,,,,,,,,,,,,,,,,,,,,,,,,,,,,,,,,,,,,,,,,,,,,,,,,,,,,,,,,,,,,,,,,,,,,,,,,,,,,,,,,,,,,,,,,,,,,,,,,,,,,,,,,,,,,,,,,,,,,,,,,,,,,,,,,,,,,,,,,,,,,,,,,,
,,,,,,61080db9b1d210972ee7959a,62bbfa5823cc2669efad188f,2022-06-29_09h08.31.507,Colour_Asymmetry_Pilot,2022.1.3,Win32,60.02040694,62bbe60bf3d75ef465d3e404,0,52,52,87,1,fourthree,,,,,,,,,,,,,,,,,,,,,,,,,,,,,,,,,,,,,,,,,,,,,,,,,,,,,,,,,,,,,,,,,,,,,,,,,,,,,,,,,,,,,,,,,,,,,,,,,,,,,,,,,,,,,,,,,,,,,,,,,,,,,,,,,,,,,,,,,,,,,,,,,,,,,,,,
,,,,,,61080db9b1d210972ee7959a,62bbfa5823cc2669efad188f,2022-06-29_09h08.31.507,Colour_Asymmetry_Pilot,2022.1.3,Win32,60.02040694,62bbe60bf3d75ef465d3e404,0,53,53,160,1,onetwo,,,,,,,,,,,,,,,,,,,,,,,,,,,,,,,,,,,,,,,,,,,,,,,,,,,,,,,,,,,,,,,,,,,,,,,,,,,,,,,,,,,,,,,,,,,,,,,,,,,,,,,,,,,,,,,,,,,,,,,,,,,,,,,,,,,,,,,,,,,,,,,,,,,,,,,,
,,,,,,61080db9b1d210972ee7959a,62bbfa5823cc2669efad188f,2022-06-29_09h08.31.507,Colour_Asymmetry_Pilot,2022.1.3,Win32,60.02040694,62bbe60bf3d75ef465d3e404,0,54,54,23,1,fourthree,,,,,,,,,,,,,,,,,,,,,,,,,,,,,,,,,,,,,,,,,,,,,,,,,,,,,,,,,,,,,,,,,,,,,,,,,,,,,,,,,,,,,,,,,,,,,,,,,,,,,,,,,,,,,,,,,,,,,,,,,,,,,,,,,,,,,,,,,,,,,,,,,,,,,,,,
,,,,,,61080db9b1d210972ee7959a,62bbfa5823cc2669efad188f,2022-06-29_09h08.31.507,Colour_Asymmetry_Pilot,2022.1.3,Win32,60.02040694,62bbe60bf3d75ef465d3e404,0,55,55,37,1,threefour,,,,,,,,,,,,,,,,,,,,,,,,,,,,,,,,,,,,,,,,,,,,,,,,,,,,,,,,,,,,,,,,,,,,,,,,,,,,,,,,,,,,,,,,,,,,,,,,,,,,,,,,,,,,,,,,,,,,,,,,,,,,,,,,,,,,,,,,,,,,,,,,,,,,,,,,
,,,,,,61080db9b1d210972ee7959a,62bbfa5823cc2669efad188f,2022-06-29_09h08.31.507,Colour_Asymmetry_Pilot,2022.1.3,Win32,60.02040694,62bbe60bf3d75ef465d3e404,0,56,56,46,1,fourtwo,,,,,,,,,,,,,,,,,,,,,,,,,,,,,,,,,,,,,,,,,,,,,,,,,,,,,,,,,,,,,,,,,,,,,,,,,,,,,,,,,,,,,,,,,,,,,,,,,,,,,,,,,,,,,,,,,,,,,,,,,,,,,,,,,,,,,,,,,,,,,,,,,,,,,,,,
,,,,,,61080db9b1d210972ee7959a,62bbfa5823cc2669efad188f,2022-06-29_09h08.31.507,Colour_Asymmetry_Pilot,2022.1.3,Win32,60.02040694,62bbe60bf3d75ef465d3e404,0,57,57,137,1,onethree,,,,,,,,,,,,,,,,,,,,,,,,,,,,,,,,,,,,,,,,,,,,,,,,,,,,,,,,,,,,,,,,,,,,,,,,,,,,,,,,,,,,,,,,,,,,,,,,,,,,,,,,,,,,,,,,,,,,,,,,,,,,,,,,,,,,,,,,,,,,,,,,,,,,,,,,
,,,,,,61080db9b1d210972ee7959a,62bbfa5823cc2669efad188f,2022-06-29_09h08.31.507,Colour_Asymmetry_Pilot,2022.1.3,Win32,60.02040694,62bbe60bf3d75ef465d3e404,0,58,58,103,1,fourthree,,,,,,,,,,,,,,,,,,,,,,,,,,,,,,,,,,,,,,,,,,,,,,,,,,,,,,,,,,,,,,,,,,,,,,,,,,,,,,,,,,,,,,,,,,,,,,,,,,,,,,,,,,,,,,,,,,,,,,,,,,,,,,,,,,,,,,,,,,,,,,,,,,,,,,,,
,,,,,,61080db9b1d210972ee7959a,62bbfa5823cc2669efad188f,2022-06-29_09h08.31.507,Colour_Asymmetry_Pilot,2022.1.3,Win32,60.02040694,62bbe60bf3d75ef465d3e404,0,59,59,68,1,threeone,,,,,,,,,,,,,,,,,,,,,,,,,,,,,,,,,,,,,,,,,,,,,,,,,,,,,,,,,,,,,,,,,,,,,,,,,,,,,,,,,,,,,,,,,,,,,,,,,,,,,,,,,,,,,,,,,,,,,,,,,,,,,,,,,,,,,,,,,,,,,,,,,,,,,,,,
,,,,,,61080db9b1d210972ee7959a,62bbfa5823cc2669efad188f,2022-06-29_09h08.31.507,Colour_Asymmetry_Pilot,2022.1.3,Win32,60.02040694,62bbe60bf3d75ef465d3e404,0,60,60,47,1,fourthree,,,,,,,,,,,,,,,,,,,,,,,,,,,,,,,,,,,,,,,,,,,,,,,,,,,,,,,,,,,,,,,,,,,,,,,,,,,,,,,,,,,,,,,,,,,,,,,,,,,,,,,,,,,,,,,,,,,,,,,,,,,,,,,,,,,,,,,,,,,,,,,,,,,,,,,,
,,,,,,61080db9b1d210972ee7959a,62bbfa5823cc2669efad188f,2022-06-29_09h08.31.507,Colour_Asymmetry_Pilot,2022.1.3,Win32,60.02040694,62bbe60bf3d75ef465d3e404,0,61,61,91,1,twofour,,,,,,,,,,,,,,,,,,,,,,,,,,,,,,,,,,,,,,,,,,,,,,,,,,,,,,,,,,,,,,,,,,,,,,,,,,,,,,,,,,,,,,,,,,,,,,,,,,,,,,,,,,,,,,,,,,,,,,,,,,,,,,,,,,,,,,,,,,,,,,,,,,,,,,,,
,,,,,,61080db9b1d210972ee7959a,62bbfa5823cc2669efad188f,2022-06-29_09h08.31.507,Colour_Asymmetry_Pilot,2022.1.3,Win32,60.02040694,62bbe60bf3d75ef465d3e404,0,62,62,92,1,threeone,,,,,,,,,,,,,,,,,,,,,,,,,,,,,,,,,,,,,,,,,,,,,,,,,,,,,,,,,,,,,,,,,,,,,,,,,,,,,,,,,,,,,,,,,,,,,,,,,,,,,,,,,,,,,,,,,,,,,,,,,,,,,,,,,,,,,,,,,,,,,,,,,,,,,,,,
,,,,,,61080db9b1d210972ee7959a,62bbfa5823cc2669efad188f,2022-06-29_09h08.31.507,Colour_Asymmetry_Pilot,2022.1.3,Win32,60.02040694,62bbe60bf3d75ef465d3e404,0,63,63,54,1,fourtwo,,,,,,,,,,,,,,,,,,,,,,,,,,,,,,,,,,,,,,,,,,,,,,,,,,,,,,,,,,,,,,,,,,,,,,,,,,,,,,,,,,,,,,,,,,,,,,,,,,,,,,,,,,,,,,,,,,,,,,,,,,,,,,,,,,,,,,,,,,,,,,,,,,,,,,,,
,,,,,,61080db9b1d210972ee7959a,62bbfa5823cc2669efad188f,2022-06-29_09h08.31.507,Colour_Asymmetry_Pilot,2022.1.3,Win32,60.02040694,62bbe60bf3d75ef465d3e404,0,64,64,42,1,twoone,,,,,,,,,,,,,,,,,,,,,,,,,,,,,,,,,,,,,,,,,,,,,,,,,,,,,,,,,,,,,,,,,,,,,,,,,,,,,,,,,,,,,,,,,,,,,,,,,,,,,,,,,,,,,,,,,,,,,,,,,,,,,,,,,,,,,,,,,,,,,,,,,,,,,,,,
,,,,,,61080db9b1d210972ee7959a,62bbfa5823cc2669efad188f,2022-06-29_09h08.31.507,Colour_Asymmetry_Pilot,2022.1.3,Win32,60.02040694,62bbe60bf3d75ef465d3e404,0,65,65,150,1,fourtwo,,,,,,,,,,,,,,,,,,,,,,,,,,,,,,,,,,,,,,,,,,,,,,,,,,,,,,,,,,,,,,,,,,,,,,,,,,,,,,,,,,,,,,,,,,,,,,,,,,,,,,,,,,,,,,,,,,,,,,,,,,,,,,,,,,,,,,,,,,,,,,,,,,,,,,,,
,,,,,,61080db9b1d210972ee7959a,62bbfa5823cc2669efad188f,2022-06-29_09h08.31.507,Colour_Asymmetry_Pilot,2022.1.3,Win32,60.02040694,62bbe60bf3d75ef465d3e404,0,66,66,10,1,twoone,,,,,,,,,,,,,,,,,,,,,,,,,,,,,,,,,,,,,,,,,,,,,,,,,,,,,,,,,,,,,,,,,,,,,,,,,,,,,,,,,,,,,,,,,,,,,,,,,,,,,,,,,,,,,,,,,,,,,,,,,,,,,,,,,,,,,,,,,,,,,,,,,,,,,,,,
,,,,,,61080db9b1d210972ee7959a,62bbfa5823cc2669efad188f,2022-06-29_09h08.31.507,Colour_Asymmetry_Pilot,2022.1.3,Win32,60.02040694,62bbe60bf3d75ef465d3e404,0,67,67,158,1,fourtwo,,,,,,,,,,,,,,,,,,,,,,,,,,,,,,,,,,,,,,,,,,,,,,,,,,,,,,,,,,,,,,,,,,,,,,,,,,,,,,,,,,,,,,,,,,,,,,,,,,,,,,,,,,,,,,,,,,,,,,,,,,,,,,,,,,,,,,,,,,,,,,,,,,,,,,,,
,,,,,,61080db9b1d210972ee7959a,62bbfa5823cc2669efad188f,2022-06-29_09h08.31.507,Colour_Asymmetry_Pilot,2022.1.3,Win32,60.02040694,62bbe60bf3d75ef465d3e404,0,68,68,32,1,onetwo,,,,,,,,,,,,,,,,,,,,,,,,,,,,,,,,,,,,,,,,,,,,,,,,,,,,,,,,,,,,,,,,,,,,,,,,,,,,,,,,,,,,,,,,,,,,,,,,,,,,,,,,,,,,,,,,,,,,,,,,,,,,,,,,,,,,,,,,,,,,,,,,,,,,,,,,
,,,,,,61080db9b1d210972ee7959a,62bbfa5823cc2669efad188f,2022-06-29_09h08.31.507,Colour_Asymmetry_Pilot,2022.1.3,Win32,60.02040694,62bbe60bf3d75ef465d3e404,0,69,69,127,1,fourthree,,,,,,,,,,,,,,,,,,,,,,,,,,,,,,,,,,,,,,,,,,,,,,,,,,,,,,,,,,,,,,,,,,,,,,,,,,,,,,,,,,,,,,,,,,,,,,,,,,,,,,,,,,,,,,,,,,,,,,,,,,,,,,,,,,,,,,,,,,,,,,,,,,,,,,,,
,,,,,,61080db9b1d210972ee7959a,62bbfa5823cc2669efad188f,2022-06-29_09h08.31.507,Colour_Asymmetry_Pilot,2022.1.3,Win32,60.02040694,62bbe60bf3d75ef465d3e404,0,70,70,124,1,threeone,,,,,,,,,,,,,,,,,,,,,,,,,,,,,,,,,,,,,,,,,,,,,,,,,,,,,,,,,,,,,,,,,,,,,,,,,,,,,,,,,,,,,,,,,,,,,,,,,,,,,,,,,,,,,,,,,,,,,,,,,,,,,,,,,,,,,,,,,,,,,,,,,,,,,,,,
,,,,,,61080db9b1d210972ee7959a,62bbfa5823cc2669efad188f,2022-06-29_09h08.31.507,Colour_Asymmetry_Pilot,2022.1.3,Win32,60.02040694,62bbe60bf3d75ef465d3e404,0,71,71,28,1,threeone,,,,,,,,,,,,,,,,,,,,,,,,,,,,,,,,,,,,,,,,,,,,,,,,,,,,,,,,,,,,,,,,,,,,,,,,,,,,,,,,,,,,,,,,,,,,,,,,,,,,,,,,,,,,,,,,,,,,,,,,,,,,,,,,,,,,,,,,,,,,,,,,,,,,,,,,
,,,,,,61080db9b1d210972ee7959a,62bbfa5823cc2669efad188f,2022-06-29_09h08.31.507,Colour_Asymmetry_Pilot,2022.1.3,Win32,60.02040694,62bbe60bf3d75ef465d3e404,0,72,72,128,1,onetwo,,,,,,,,,,,,,,,,,,,,,,,,,,,,,,,,,,,,,,,,,,,,,,,,,,,,,,,,,,,,,,,,,,,,,,,,,,,,,,,,,,,,,,,,,,,,,,,,,,,,,,,,,,,,,,,,,,,,,,,,,,,,,,,,,,,,,,,,,,,,,,,,,,,,,,,,
,,,,,,61080db9b1d210972ee7959a,62bbfa5823cc2669efad188f,2022-06-29_09h08.31.507,Colour_Asymmetry_Pilot,2022.1.3,Win32,60.02040694,62bbe60bf3d75ef465d3e404,0,73,73,140,1,threeone,,,,,,,,,,,,,,,,,,,,,,,,,,,,,,,,,,,,,,,,,,,,,,,,,,,,,,,,,,,,,,,,,,,,,,,,,,,,,,,,,,,,,,,,,,,,,,,,,,,,,,,,,,,,,,,,,,,,,,,,,,,,,,,,,,,,,,,,,,,,,,,,,,,,,,,,
,,,,,,61080db9b1d210972ee7959a,62bbfa5823cc2669efad188f,2022-06-29_09h08.31.507,Colour_Asymmetry_Pilot,2022.1.3,Win32,60.02040694,62bbe60bf3d75ef465d3e404,0,74,74,16,1,onetwo,,,,,,,,,,,,,,,,,,,,,,,,,,,,,,,,,,,,,,,,,,,,,,,,,,,,,,,,,,,,,,,,,,,,,,,,,,,,,,,,,,,,,,,,,,,,,,,,,,,,,,,,,,,,,,,,,,,,,,,,,,,,,,,,,,,,,,,,,,,,,,,,,,,,,,,,
,,,,,,61080db9b1d210972ee7959a,62bbfa5823cc2669efad188f,2022-06-29_09h08.31.507,Colour_Asymmetry_Pilot,2022.1.3,Win32,60.02040694,62bbe60bf3d75ef465d3e404,0,75,75,20,1,threeone,,,,,,,,,,,,,,,,,,,,,,,,,,,,,,,,,,,,,,,,,,,,,,,,,,,,,,,,,,,,,,,,,,,,,,,,,,,,,,,,,,,,,,,,,,,,,,,,,,,,,,,,,,,,,,,,,,,,,,,,,,,,,,,,,,,,,,,,,,,,,,,,,,,,,,,,
,,,,,,61080db9b1d210972ee7959a,62bbfa5823cc2669efad188f,2022-06-29_09h08.31.507,Colour_Asymmetry_Pilot,2022.1.3,Win32,60.02040694,62bbe60bf3d75ef465d3e404,0,76,76,0,1,onetwo,,,,,,,,,,,,,,,,,,,,,,,,,,,,,,,,,,,,,,,,,,,,,,,,,,,,,,,,,,,,,,,,,,,,,,,,,,,,,,,,,,,,,,,,,,,,,,,,,,,,,,,,,,,,,,,,,,,,,,,,,,,,,,,,,,,,,,,,,,,,,,,,,,,,,,,,
,,,,,,61080db9b1d210972ee7959a,62bbfa5823cc2669efad188f,2022-06-29_09h08.31.507,Colour_Asymmetry_Pilot,2022.1.3,Win32,60.02040694,62bbe60bf3d75ef465d3e404,0,77,77,120,1,onetwo,,,,,,,,,,,,,,,,,,,,,,,,,,,,,,,,,,,,,,,,,,,,,,,,,,,,,,,,,,,,,,,,,,,,,,,,,,,,,,,,,,,,,,,,,,,,,,,,,,,,,,,,,,,,,,,,,,,,,,,,,,,,,,,,,,,,,,,,,,,,,,,,,,,,,,,,
,,,,,,61080db9b1d210972ee7959a,62bbfa5823cc2669efad188f,2022-06-29_09h08.31.507,Colour_Asymmetry_Pilot,2022.1.3,Win32,60.02040694,62bbe60bf3d75ef465d3e404,0,78,78,154,1,twoone,,,,,,,,,,,,,,,,,,,,,,,,,,,,,,,,,,,,,,,,,,,,,,,,,,,,,,,,,,,,,,,,,,,,,,,,,,,,,,,,,,,,,,,,,,,,,,,,,,,,,,,,,,,,,,,,,,,,,,,,,,,,,,,,,,,,,,,,,,,,,,,,,,,,,,,,
,,,,,,61080db9b1d210972ee7959a,62bbfa5823cc2669efad188f,2022-06-29_09h08.31.507,Colour_Asymmetry_Pilot,2022.1.3,Win32,60.02040694,62bbe60bf3d75ef465d3e404,0,79,79,60,1,threeone,,,,,,,,,,,,,,,,,,,,,,,,,,,,,,,,,,,,,,,,,,,,,,,,,,,,,,,,,,,,,,,,,,,,,,,,,,,,,,,,,,,,,,,,,,,,,,,,,,,,,,,,,,,,,,,,,,,,,,,,,,,,,,,,,,,,,,,,,,,,,,,,,,,,,,,,
,,,,,,61080db9b1d210972ee7959a,62bbfa5823cc2669efad188f,2022-06-29_09h08.31.507,Colour_Asymmetry_Pilot,2022.1.3,Win32,60.02040694,62bbe60bf3d75ef465d3e404,0,80,80,43,1,twofour,,,,,,,,,,,,,,,,,,,,,,,,,,,,,,,,,,,,,,,,,,,,,,,,,,,,,,,,,,,,,,,,,,,,,,,,,,,,,,,,,,,,,,,,,,,,,,,,,,,,,,,,,,,,,,,,,,,,,,,,,,,,,,,,,,,,,,,,,,,,,,,,,,,,,,,,
,,,,,,61080db9b1d210972ee7959a,62bbfa5823cc2669efad188f,2022-06-29_09h08.31.507,Colour_Asymmetry_Pilot,2022.1.3,Win32,60.02040694,62bbe60bf3d75ef465d3e404,0,81,81,121,1,onethree,,,,,,,,,,,,,,,,,,,,,,,,,,,,,,,,,,,,,,,,,,,,,,,,,,,,,,,,,,,,,,,,,,,,,,,,,,,,,,,,,,,,,,,,,,,,,,,,,,,,,,,,,,,,,,,,,,,,,,,,,,,,,,,,,,,,,,,,,,,,,,,,,,,,,,,,
,,,,,,61080db9b1d210972ee7959a,62bbfa5823cc2669efad188f,2022-06-29_09h08.31.507,Colour_Asymmetry_Pilot,2022.1.3,Win32,60.02040694,62bbe60bf3d75ef465d3e404,0,82,82,84,1,threeone,,,,,,,,,,,,,,,,,,,,,,,,,,,,,,,,,,,,,,,,,,,,,,,,,,,,,,,,,,,,,,,,,,,,,,,,,,,,,,,,,,,,,,,,,,,,,,,,,,,,,,,,,,,,,,,,,,,,,,,,,,,,,,,,,,,,,,,,,,,,,,,,,,,,,,,,
,,,,,,61080db9b1d210972ee7959a,62bbfa5823cc2669efad188f,2022-06-29_09h08.31.507,Colour_Asymmetry_Pilot,2022.1.3,Win32,60.02040694,62bbe60bf3d75ef465d3e404,0,83,83,49,1,onethree,,,,,,,,,,,,,,,,,,,,,,,,,,,,,,,,,,,,,,,,,,,,,,,,,,,,,,,,,,,,,,,,,,,,,,,,,,,,,,,,,,,,,,,,,,,,,,,,,,,,,,,,,,,,,,,,,,,,,,,,,,,,,,,,,,,,,,,,,,,,,,,,,,,,,,,,
,,,,,,61080db9b1d210972ee7959a,62bbfa5823cc2669efad188f,2022-06-29_09h08.31.507,Colour_Asymmetry_Pilot,2022.1.3,Win32,60.02040694,62bbe60bf3d75ef465d3e404,0,84,84,80,1,onetwo,,,,,,,,,,,,,,,,,,,,,,,,,,,,,,,,,,,,,,,,,,,,,,,,,,,,,,,,,,,,,,,,,,,,,,,,,,,,,,,,,,,,,,,,,,,,,,,,,,,,,,,,,,,,,,,,,,,,,,,,,,,,,,,,,,,,,,,,,,,,,,,,,,,,,,,,
,,,,,,61080db9b1d210972ee7959a,62bbfa5823cc2669efad188f,2022-06-29_09h08.31.507,Colour_Asymmetry_Pilot,2022.1.3,Win32,60.02040694,62bbe60bf3d75ef465d3e404,0,85,85,147,1,twofour,,,,,,,,,,,,,,,,,,,,,,,,,,,,,,,,,,,,,,,,,,,,,,,,,,,,,,,,,,,,,,,,,,,,,,,,,,,,,,,,,,,,,,,,,,,,,,,,,,,,,,,,,,,,,,,,,,,,,,,,,,,,,,,,,,,,,,,,,,,,,,,,,,,,,,,,
,,,,,,61080db9b1d210972ee7959a,62bbfa5823cc2669efad188f,2022-06-29_09h08.31.507,Colour_Asymmetry_Pilot,2022.1.3,Win32,60.02040694,62bbe60bf3d75ef465d3e404,0,86,86,5,1,threefour,,,,,,,,,,,,,,,,,,,,,,,,,,,,,,,,,,,,,,,,,,,,,,,,,,,,,,,,,,,,,,,,,,,,,,,,,,,,,,,,,,,,,,,,,,,,,,,,,,,,,,,,,,,,,,,,,,,,,,,,,,,,,,,,,,,,,,,,,,,,,,,,,,,,,,,,
,,,,,,61080db9b1d210972ee7959a,62bbfa5823cc2669efad188f,2022-06-29_09h08.31.507,Colour_Asymmetry_Pilot,2022.1.3,Win32,60.02040694,62bbe60bf3d75ef465d3e404,0,87,87,142,1,fourtwo,,,,,,,,,,,,,,,,,,,,,,,,,,,,,,,,,,,,,,,,,,,,,,,,,,,,,,,,,,,,,,,,,,,,,,,,,,,,,,,,,,,,,,,,,,,,,,,,,,,,,,,,,,,,,,,,,,,,,,,,,,,,,,,,,,,,,,,,,,,,,,,,,,,,,,,,
,,,,,,61080db9b1d210972ee7959a,62bbfa5823cc2669efad188f,2022-06-29_09h08.31.507,Colour_Asymmetry_Pilot,2022.1.3,Win32,60.02040694,62bbe60bf3d75ef465d3e404,0,88,88,56,1,onetwo,,,,,,,,,,,,,,,,,,,,,,,,,,,,,,,,,,,,,,,,,,,,,,,,,,,,,,,,,,,,,,,,,,,,,,,,,,,,,,,,,,,,,,,,,,,,,,,,,,,,,,,,,,,,,,,,,,,,,,,,,,,,,,,,,,,,,,,,,,,,,,,,,,,,,,,,
,,,,,,61080db9b1d210972ee7959a,62bbfa5823cc2669efad188f,2022-06-29_09h08.31.507,Colour_Asymmetry_Pilot,2022.1.3,Win32,60.02040694,62bbe60bf3d75ef465d3e404,0,89,89,7,1,fourthree,,,,,,,,,,,,,,,,,,,,,,,,,,,,,,,,,,,,,,,,,,,,,,,,,,,,,,,,,,,,,,,,,,,,,,,,,,,,,,,,,,,,,,,,,,,,,,,,,,,,,,,,,,,,,,,,,,,,,,,,,,,,,,,,,,,,,,,,,,,,,,,,,,,,,,,,
,,,,,,61080db9b1d210972ee7959a,62bbfa5823cc2669efad188f,2022-06-29_09h08.31.507,Colour_Asymmetry_Pilot,2022.1.3,Win32,60.02040694,62bbe60bf3d75ef465d3e404,0,90,90,117,1,threefour,,,,,,,,,,,,,,,,,,,,,,,,,,,,,,,,,,,,,,,,,,,,,,,,,,,,,,,,,,,,,,,,,,,,,,,,,,,,,,,,,,,,,,,,,,,,,,,,,,,,,,,,,,,,,,,,,,,,,,,,,,,,,,,,,,,,,,,,,,,,,,,,,,,,,,,,
,,,,,,61080db9b1d210972ee7959a,62bbfa5823cc2669efad188f,2022-06-29_09h08.31.507,Colour_Asymmetry_Pilot,2022.1.3,Win32,60.02040694,62bbe60bf3d75ef465d3e404,0,91,91,105,1,onethree,,,,,,,,,,,,,,,,,,,,,,,,,,,,,,,,,,,,,,,,,,,,,,,,,,,,,,,,,,,,,,,,,,,,,,,,,,,,,,,,,,,,,,,,,,,,,,,,,,,,,,,,,,,,,,,,,,,,,,,,,,,,,,,,,,,,,,,,,,,,,,,,,,,,,,,,
,,,,,,61080db9b1d210972ee7959a,62bbfa5823cc2669efad188f,2022-06-29_09h08.31.507,Colour_Asymmetry_Pilot,2022.1.3,Win32,60.02040694,62bbe60bf3d75ef465d3e404,0,92,92,93,1,threefour,,,,,,,,,,,,,,,,,,,,,,,,,,,,,,,,,,,,,,,,,,,,,,,,,,,,,,,,,,,,,,,,,,,,,,,,,,,,,,,,,,,,,,,,,,,,,,,,,,,,,,,,,,,,,,,,,,,,,,,,,,,,,,,,,,,,,,,,,,,,,,,,,,,,,,,,
,,,,,,61080db9b1d210972ee7959a,62bbfa5823cc2669efad188f,2022-06-29_09h08.31.507,Colour_Asymmetry_Pilot,2022.1.3,Win32,60.02040694,62bbe60bf3d75ef465d3e404,0,93,93,61,1,threefour,,,,,,,,,,,,,,,,,,,,,,,,,,,,,,,,,,,,,,,,,,,,,,,,,,,,,,,,,,,,,,,,,,,,,,,,,,,,,,,,,,,,,,,,,,,,,,,,,,,,,,,,,,,,,,,,,,,,,,,,,,,,,,,,,,,,,,,,,,,,,,,,,,,,,,,,
,,,,,,61080db9b1d210972ee7959a,62bbfa5823cc2669efad188f,2022-06-29_09h08.31.507,Colour_Asymmetry_Pilot,2022.1.3,Win32,60.02040694,62bbe60bf3d75ef465d3e404,0,94,94,106,1,twoone,,,,,,,,,,,,,,,,,,,,,,,,,,,,,,,,,,,,,,,,,,,,,,,,,,,,,,,,,,,,,,,,,,,,,,,,,,,,,,,,,,,,,,,,,,,,,,,,,,,,,,,,,,,,,,,,,,,,,,,,,,,,,,,,,,,,,,,,,,,,,,,,,,,,,,,,
,,,,,,61080db9b1d210972ee7959a,62bbfa5823cc2669efad188f,2022-06-29_09h08.31.507,Colour_Asymmetry_Pilot,2022.1.3,Win32,60.02040694,62bbe60bf3d75ef465d3e404,0,95,95,130,1,twoone,,,,,,,,,,,,,,,,,,,,,,,,,,,,,,,,,,,,,,,,,,,,,,,,,,,,,,,,,,,,,,,,,,,,,,,,,,,,,,,,,,,,,,,,,,,,,,,,,,,,,,,,,,,,,,,,,,,,,,,,,,,,,,,,,,,,,,,,,,,,,,,,,,,,,,,,
,,,,,,61080db9b1d210972ee7959a,62bbfa5823cc2669efad188f,2022-06-29_09h08.31.507,Colour_Asymmetry_Pilot,2022.1.3,Win32,60.02040694,62bbe60bf3d75ef465d3e404,0,96,96,123,1,twofour,,,,,,,,,,,,,,,,,,,,,,,,,,,,,,,,,,,,,,,,,,,,,,,,,,,,,,,,,,,,,,,,,,,,,,,,,,,,,,,,,,,,,,,,,,,,,,,,,,,,,,,,,,,,,,,,,,,,,,,,,,,,,,,,,,,,,,,,,,,,,,,,,,,,,,,,
,,,,,,61080db9b1d210972ee7959a,62bbfa5823cc2669efad188f,2022-06-29_09h08.31.507,Colour_Asymmetry_Pilot,2022.1.3,Win32,60.02040694,62bbe60bf3d75ef465d3e404,0,97,97,143,1,fourthree,,,,,,,,,,,,,,,,,,,,,,,,,,,,,,,,,,,,,,,,,,,,,,,,,,,,,,,,,,,,,,,,,,,,,,,,,,,,,,,,,,,,,,,,,,,,,,,,,,,,,,,,,,,,,,,,,,,,,,,,,,,,,,,,,,,,,,,,,,,,,,,,,,,,,,,,
,,,,,,61080db9b1d210972ee7959a,62bbfa5823cc2669efad188f,2022-06-29_09h08.31.507,Colour_Asymmetry_Pilot,2022.1.3,Win32,60.02040694,62bbe60bf3d75ef465d3e404,0,98,98,62,1,fourtwo,,,,,,,,,,,,,,,,,,,,,,,,,,,,,,,,,,,,,,,,,,,,,,,,,,,,,,,,,,,,,,,,,,,,,,,,,,,,,,,,,,,,,,,,,,,,,,,,,,,,,,,,,,,,,,,,,,,,,,,,,,,,,,,,,,,,,,,,,,,,,,,,,,,,,,,,
,,,,,,61080db9b1d210972ee7959a,62bbfa5823cc2669efad188f,2022-06-29_09h08.31.507,Colour_Asymmetry_Pilot,2022.1.3,Win32,60.02040694,62bbe60bf3d75ef465d3e404,0,99,99,53,1,threefour,,,,,,,,,,,,,,,,,,,,,,,,,,,,,,,,,,,,,,,,,,,,,,,,,,,,,,,,,,,,,,,,,,,,,,,,,,,,,,,,,,,,,,,,,,,,,,,,,,,,,,,,,,,,,,,,,,,,,,,,,,,,,,,,,,,,,,,,,,,,,,,,,,,,,,,,
,,,,,,61080db9b1d210972ee7959a,62bbfa5823cc2669efad188f,2022-06-29_09h08.31.507,Colour_Asymmetry_Pilot,2022.1.3,Win32,60.02040694,62bbe60bf3d75ef465d3e404,0,100,100,77,1,threefour,,,,,,,,,,,,,,,,,,,,,,,,,,,,,,,,,,,,,,,,,,,,,,,,,,,,,,,,,,,,,,,,,,,,,,,,,,,,,,,,,,,,,,,,,,,,,,,,,,,,,,,,,,,,,,,,,,,,,,,,,,,,,,,,,,,,,,,,,,,,,,,,,,,,,,,,
,,,,,,61080db9b1d210972ee7959a,62bbfa5823cc2669efad188f,2022-06-29_09h08.31.507,Colour_Asymmetry_Pilot,2022.1.3,Win32,60.02040694,62bbe60bf3d75ef465d3e404,0,101,101,111,1,fourthree,,,,,,,,,,,,,,,,,,,,,,,,,,,,,,,,,,,,,,,,,,,,,,,,,,,,,,,,,,,,,,,,,,,,,,,,,,,,,,,,,,,,,,,,,,,,,,,,,,,,,,,,,,,,,,,,,,,,,,,,,,,,,,,,,,,,,,,,,,,,,,,,,,,,,,,,
,,,,,,61080db9b1d210972ee7959a,62bbfa5823cc2669efad188f,2022-06-29_09h08.31.507,Colour_Asymmetry_Pilot,2022.1.3,Win32,60.02040694,62bbe60bf3d75ef465d3e404,0,102,102,33,1,onethree,,,,,,,,,,,,,,,,,,,,,,,,,,,,,,,,,,,,,,,,,,,,,,,,,,,,,,,,,,,,,,,,,,,,,,,,,,,,,,,,,,,,,,,,,,,,,,,,,,,,,,,,,,,,,,,,,,,,,,,,,,,,,,,,,,,,,,,,,,,,,,,,,,,,,,,,
,,,,,,61080db9b1d210972ee7959a,62bbfa5823cc2669efad188f,2022-06-29_09h08.31.507,Colour_Asymmetry_Pilot,2022.1.3,Win32,60.02040694,62bbe60bf3d75ef465d3e404,0,103,103,94,1,fourtwo,,,,,,,,,,,,,,,,,,,,,,,,,,,,,,,,,,,,,,,,,,,,,,,,,,,,,,,,,,,,,,,,,,,,,,,,,,,,,,,,,,,,,,,,,,,,,,,,,,,,,,,,,,,,,,,,,,,,,,,,,,,,,,,,,,,,,,,,,,,,,,,,,,,,,,,,
,,,,,,61080db9b1d210972ee7959a,62bbfa5823cc2669efad188f,2022-06-29_09h08.31.507,Colour_Asymmetry_Pilot,2022.1.3,Win32,60.02040694,62bbe60bf3d75ef465d3e404,0,104,104,122,1,twoone,,,,,,,,,,,,,,,,,,,,,,,,,,,,,,,,,,,,,,,,,,,,,,,,,,,,,,,,,,,,,,,,,,,,,,,,,,,,,,,,,,,,,,,,,,,,,,,,,,,,,,,,,,,,,,,,,,,,,,,,,,,,,,,,,,,,,,,,,,,,,,,,,,,,,,,,
,,,,,,61080db9b1d210972ee7959a,62bbfa5823cc2669efad188f,2022-06-29_09h08.31.507,Colour_Asymmetry_Pilot,2022.1.3,Win32,60.02040694,62bbe60bf3d75ef465d3e404,0,105,105,83,1,twofour,,,,,,,,,,,,,,,,,,,,,,,,,,,,,,,,,,,,,,,,,,,,,,,,,,,,,,,,,,,,,,,,,,,,,,,,,,,,,,,,,,,,,,,,,,,,,,,,,,,,,,,,,,,,,,,,,,,,,,,,,,,,,,,,,,,,,,,,,,,,,,,,,,,,,,,,
,,,,,,61080db9b1d210972ee7959a,62bbfa5823cc2669efad188f,2022-06-29_09h08.31.507,Colour_Asymmetry_Pilot,2022.1.3,Win32,60.02040694,62bbe60bf3d75ef465d3e404,0,106,106,100,1,threeone,,,,,,,,,,,,,,,,,,,,,,,,,,,,,,,,,,,,,,,,,,,,,,,,,,,,,,,,,,,,,,,,,,,,,,,,,,,,,,,,,,,,,,,,,,,,,,,,,,,,,,,,,,,,,,,,,,,,,,,,,,,,,,,,,,,,,,,,,,,,,,,,,,,,,,,,
,,,,,,61080db9b1d210972ee7959a,62bbfa5823cc2669efad188f,2022-06-29_09h08.31.507,Colour_Asymmetry_Pilot,2022.1.3,Win32,60.02040694,62bbe60bf3d75ef465d3e404,0,107,107,65,1,onethree,,,,,,,,,,,,,,,,,,,,,,,,,,,,,,,,,,,,,,,,,,,,,,,,,,,,,,,,,,,,,,,,,,,,,,,,,,,,,,,,,,,,,,,,,,,,,,,,,,,,,,,,,,,,,,,,,,,,,,,,,,,,,,,,,,,,,,,,,,,,,,,,,,,,,,,,
,,,,,,61080db9b1d210972ee7959a,62bbfa5823cc2669efad188f,2022-06-29_09h08.31.507,Colour_Asymmetry_Pilot,2022.1.3,Win32,60.02040694,62bbe60bf3d75ef465d3e404,0,108,108,4,1,threeone,,,,,,,,,,,,,,,,,,,,,,,,,,,,,,,,,,,,,,,,,,,,,,,,,,,,,,,,,,,,,,,,,,,,,,,,,,,,,,,,,,,,,,,,,,,,,,,,,,,,,,,,,,,,,,,,,,,,,,,,,,,,,,,,,,,,,,,,,,,,,,,,,,,,,,,,
,,,,,,61080db9b1d210972ee7959a,62bbfa5823cc2669efad188f,2022-06-29_09h08.31.507,Colour_Asymmetry_Pilot,2022.1.3,Win32,60.02040694,62bbe60bf3d75ef465d3e404,0,109,109,136,1,onetwo,,,,,,,,,,,,,,,,,,,,,,,,,,,,,,,,,,,,,,,,,,,,,,,,,,,,,,,,,,,,,,,,,,,,,,,,,,,,,,,,,,,,,,,,,,,,,,,,,,,,,,,,,,,,,,,,,,,,,,,,,,,,,,,,,,,,,,,,,,,,,,,,,,,,,,,,
,,,,,,61080db9b1d210972ee7959a,62bbfa5823cc2669efad188f,2022-06-29_09h08.31.507,Colour_Asymmetry_Pilot,2022.1.3,Win32,60.02040694,62bbe60bf3d75ef465d3e404,0,110,110,129,1,onethree,,,,,,,,,,,,,,,,,,,,,,,,,,,,,,,,,,,,,,,,,,,,,,,,,,,,,,,,,,,,,,,,,,,,,,,,,,,,,,,,,,,,,,,,,,,,,,,,,,,,,,,,,,,,,,,,,,,,,,,,,,,,,,,,,,,,,,,,,,,,,,,,,,,,,,,,
,,,,,,61080db9b1d210972ee7959a,62bbfa5823cc2669efad188f,2022-06-29_09h08.31.507,Colour_Asymmetry_Pilot,2022.1.3,Win32,60.02040694,62bbe60bf3d75ef465d3e404,0,111,111,149,1,threefour,,,,,,,,,,,,,,,,,,,,,,,,,,,,,,,,,,,,,,,,,,,,,,,,,,,,,,,,,,,,,,,,,,,,,,,,,,,,,,,,,,,,,,,,,,,,,,,,,,,,,,,,,,,,,,,,,,,,,,,,,,,,,,,,,,,,,,,,,,,,,,,,,,,,,,,,
,,,,,,61080db9b1d210972ee7959a,62bbfa5823cc2669efad188f,2022-06-29_09h08.31.507,Colour_Asymmetry_Pilot,2022.1.3,Win32,60.02040694,62bbe60bf3d75ef465d3e404,0,112,112,69,1,threefour,,,,,,,,,,,,,,,,,,,,,,,,,,,,,,,,,,,,,,,,,,,,,,,,,,,,,,,,,,,,,,,,,,,,,,,,,,,,,,,,,,,,,,,,,,,,,,,,,,,,,,,,,,,,,,,,,,,,,,,,,,,,,,,,,,,,,,,,,,,,,,,,,,,,,,,,
,,,,,,61080db9b1d210972ee7959a,62bbfa5823cc2669efad188f,2022-06-29_09h08.31.507,Colour_Asymmetry_Pilot,2022.1.3,Win32,60.02040694,62bbe60bf3d75ef465d3e404,0,113,113,50,1,twoone,,,,,,,,,,,,,,,,,,,,,,,,,,,,,,,,,,,,,,,,,,,,,,,,,,,,,,,,,,,,,,,,,,,,,,,,,,,,,,,,,,,,,,,,,,,,,,,,,,,,,,,,,,,,,,,,,,,,,,,,,,,,,,,,,,,,,,,,,,,,,,,,,,,,,,,,
,,,,,,61080db9b1d210972ee7959a,62bbfa5823cc2669efad188f,2022-06-29_09h08.31.507,Colour_Asymmetry_Pilot,2022.1.3,Win32,60.02040694,62bbe60bf3d75ef465d3e404,0,114,114,108,1,threeone,,,,,,,,,,,,,,,,,,,,,,,,,,,,,,,,,,,,,,,,,,,,,,,,,,,,,,,,,,,,,,,,,,,,,,,,,,,,,,,,,,,,,,,,,,,,,,,,,,,,,,,,,,,,,,,,,,,,,,,,,,,,,,,,,,,,,,,,,,,,,,,,,,,,,,,,
,,,,,,61080db9b1d210972ee7959a,62bbfa5823cc2669efad188f,2022-06-29_09h08.31.507,Colour_Asymmetry_Pilot,2022.1.3,Win32,60.02040694,62bbe60bf3d75ef465d3e404,0,115,115,97,1,onethree,,,,,,,,,,,,,,,,,,,,,,,,,,,,,,,,,,,,,,,,,,,,,,,,,,,,,,,,,,,,,,,,,,,,,,,,,,,,,,,,,,,,,,,,,,,,,,,,,,,,,,,,,,,,,,,,,,,,,,,,,,,,,,,,,,,,,,,,,,,,,,,,,,,,,,,,
,,,,,,61080db9b1d210972ee7959a,62bbfa5823cc2669efad188f,2022-06-29_09h08.31.507,Colour_Asymmetry_Pilot,2022.1.3,Win32,60.02040694,62bbe60bf3d75ef465d3e404,0,116,116,79,1,fourthree,,,,,,,,,,,,,,,,,,,,,,,,,,,,,,,,,,,,,,,,,,,,,,,,,,,,,,,,,,,,,,,,,,,,,,,,,,,,,,,,,,,,,,,,,,,,,,,,,,,,,,,,,,,,,,,,,,,,,,,,,,,,,,,,,,,,,,,,,,,,,,,,,,,,,,,,
,,,,,,61080db9b1d210972ee7959a,62bbfa5823cc2669efad188f,2022-06-29_09h08.31.507,Colour_Asymmetry_Pilot,2022.1.3,Win32,60.02040694,62bbe60bf3d75ef465d3e404,0,117,117,17,1,onethree,,,,,,,,,,,,,,,,,,,,,,,,,,,,,,,,,,,,,,,,,,,,,,,,,,,,,,,,,,,,,,,,,,,,,,,,,,,,,,,,,,,,,,,,,,,,,,,,,,,,,,,,,,,,,,,,,,,,,,,,,,,,,,,,,,,,,,,,,,,,,,,,,,,,,,,,
,,,,,,61080db9b1d210972ee7959a,62bbfa5823cc2669efad188f,2022-06-29_09h08.31.507,Colour_Asymmetry_Pilot,2022.1.3,Win32,60.02040694,62bbe60bf3d75ef465d3e404,0,118,118,78,1,fourtwo,,,,,,,,,,,,,,,,,,,,,,,,,,,,,,,,,,,,,,,,,,,,,,,,,,,,,,,,,,,,,,,,,,,,,,,,,,,,,,,,,,,,,,,,,,,,,,,,,,,,,,,,,,,,,,,,,,,,,,,,,,,,,,,,,,,,,,,,,,,,,,,,,,,,,,,,
,,,,,,61080db9b1d210972ee7959a,62bbfa5823cc2669efad188f,2022-06-29_09h08.31.507,Colour_Asymmetry_Pilot,2022.1.3,Win32,60.02040694,62bbe60bf3d75ef465d3e404,0,119,119,138,1,twoone,,,,,,,,,,,,,,,,,,,,,,,,,,,,,,,,,,,,,,,,,,,,,,,,,,,,,,,,,,,,,,,,,,,,,,,,,,,,,,,,,,,,,,,,,,,,,,,,,,,,,,,,,,,,,,,,,,,,,,,,,,,,,,,,,,,,,,,,,,,,,,,,,,,,,,,,
,,,,,,61080db9b1d210972ee7959a,62bbfa5823cc2669efad188f,2022-06-29_09h08.31.507,Colour_Asymmetry_Pilot,2022.1.3,Win32,60.02040694,62bbe60bf3d75ef465d3e404,0,120,120,82,1,twoone,,,,,,,,,,,,,,,,,,,,,,,,,,,,,,,,,,,,,,,,,,,,,,,,,,,,,,,,,,,,,,,,,,,,,,,,,,,,,,,,,,,,,,,,,,,,,,,,,,,,,,,,,,,,,,,,,,,,,,,,,,,,,,,,,,,,,,,,,,,,,,,,,,,,,,,,
,,,,,,61080db9b1d210972ee7959a,62bbfa5823cc2669efad188f,2022-06-29_09h08.31.507,Colour_Asymmetry_Pilot,2022.1.3,Win32,60.02040694,62bbe60bf3d75ef465d3e404,0,121,121,40,1,onetwo,,,,,,,,,,,,,,,,,,,,,,,,,,,,,,,,,,,,,,,,,,,,,,,,,,,,,,,,,,,,,,,,,,,,,,,,,,,,,,,,,,,,,,,,,,,,,,,,,,,,,,,,,,,,,,,,,,,,,,,,,,,,,,,,,,,,,,,,,,,,,,,,,,,,,,,,
,,,,,,61080db9b1d210972ee7959a,62bbfa5823cc2669efad188f,2022-06-29_09h08.31.507,Colour_Asymmetry_Pilot,2022.1.3,Win32,60.02040694,62bbe60bf3d75ef465d3e404,0,122,122,88,1,onetwo,,,,,,,,,,,,,,,,,,,,,,,,,,,,,,,,,,,,,,,,,,,,,,,,,,,,,,,,,,,,,,,,,,,,,,,,,,,,,,,,,,,,,,,,,,,,,,,,,,,,,,,,,,,,,,,,,,,,,,,,,,,,,,,,,,,,,,,,,,,,,,,,,,,,,,,,
,,,,,,61080db9b1d210972ee7959a,62bbfa5823cc2669efad188f,2022-06-29_09h08.31.507,Colour_Asymmetry_Pilot,2022.1.3,Win32,60.02040694,62bbe60bf3d75ef465d3e404,0,123,123,81,1,onethree,,,,,,,,,,,,,,,,,,,,,,,,,,,,,,,,,,,,,,,,,,,,,,,,,,,,,,,,,,,,,,,,,,,,,,,,,,,,,,,,,,,,,,,,,,,,,,,,,,,,,,,,,,,,,,,,,,,,,,,,,,,,,,,,,,,,,,,,,,,,,,,,,,,,,,,,
,,,,,,61080db9b1d210972ee7959a,62bbfa5823cc2669efad188f,2022-06-29_09h08.31.507,Colour_Asymmetry_Pilot,2022.1.3,Win32,60.02040694,62bbe60bf3d75ef465d3e404,0,124,124,35,1,twofour,,,,,,,,,,,,,,,,,,,,,,,,,,,,,,,,,,,,,,,,,,,,,,,,,,,,,,,,,,,,,,,,,,,,,,,,,,,,,,,,,,,,,,,,,,,,,,,,,,,,,,,,,,,,,,,,,,,,,,,,,,,,,,,,,,,,,,,,,,,,,,,,,,,,,,,,
,,,,,,61080db9b1d210972ee7959a,62bbfa5823cc2669efad188f,2022-06-29_09h08.31.507,Colour_Asymmetry_Pilot,2022.1.3,Win32,60.02040694,62bbe60bf3d75ef465d3e404,0,125,125,109,1,threefour,,,,,,,,,,,,,,,,,,,,,,,,,,,,,,,,,,,,,,,,,,,,,,,,,,,,,,,,,,,,,,,,,,,,,,,,,,,,,,,,,,,,,,,,,,,,,,,,,,,,,,,,,,,,,,,,,,,,,,,,,,,,,,,,,,,,,,,,,,,,,,,,,,,,,,,,
,,,,,,61080db9b1d210972ee7959a,62bbfa5823cc2669efad188f,2022-06-29_09h08.31.507,Colour_Asymmetry_Pilot,2022.1.3,Win32,60.02040694,62bbe60bf3d75ef465d3e404,0,126,126,145,1,onethree,,,,,,,,,,,,,,,,,,,,,,,,,,,,,,,,,,,,,,,,,,,,,,,,,,,,,,,,,,,,,,,,,,,,,,,,,,,,,,,,,,,,,,,,,,,,,,,,,,,,,,,,,,,,,,,,,,,,,,,,,,,,,,,,,,,,,,,,,,,,,,,,,,,,,,,,
,,,,,,61080db9b1d210972ee7959a,62bbfa5823cc2669efad188f,2022-06-29_09h08.31.507,Colour_Asymmetry_Pilot,2022.1.3,Win32,60.02040694,62bbe60bf3d75ef465d3e404,0,127,127,116,1,threeone,,,,,,,,,,,,,,,,,,,,,,,,,,,,,,,,,,,,,,,,,,,,,,,,,,,,,,,,,,,,,,,,,,,,,,,,,,,,,,,,,,,,,,,,,,,,,,,,,,,,,,,,,,,,,,,,,,,,,,,,,,,,,,,,,,,,,,,,,,,,,,,,,,,,,,,,
,,,,,,61080db9b1d210972ee7959a,62bbfa5823cc2669efad188f,2022-06-29_09h08.31.507,Colour_Asymmetry_Pilot,2022.1.3,Win32,60.02040694,62bbe60bf3d75ef465d3e404,0,128,128,74,1,twoone,,,,,,,,,,,,,,,,,,,,,,,,,,,,,,,,,,,,,,,,,,,,,,,,,,,,,,,,,,,,,,,,,,,,,,,,,,,,,,,,,,,,,,,,,,,,,,,,,,,,,,,,,,,,,,,,,,,,,,,,,,,,,,,,,,,,,,,,,,,,,,,,,,,,,,,,
,,,,,,61080db9b1d210972ee7959a,62bbfa5823cc2669efad188f,2022-06-29_09h08.31.507,Colour_Asymmetry_Pilot,2022.1.3,Win32,60.02040694,62bbe60bf3d75ef465d3e404,0,129,129,30,1,fourtwo,,,,,,,,,,,,,,,,,,,,,,,,,,,,,,,,,,,,,,,,,,,,,,,,,,,,,,,,,,,,,,,,,,,,,,,,,,,,,,,,,,,,,,,,,,,,,,,,,,,,,,,,,,,,,,,,,,,,,,,,,,,,,,,,,,,,,,,,,,,,,,,,,,,,,,,,
,,,,,,61080db9b1d210972ee7959a,62bbfa5823cc2669efad188f,2022-06-29_09h08.31.507,Colour_Asymmetry_Pilot,2022.1.3,Win32,60.02040694,62bbe60bf3d75ef465d3e404,0,130,130,144,1,onetwo,,,,,,,,,,,,,,,,,,,,,,,,,,,,,,,,,,,,,,,,,,,,,,,,,,,,,,,,,,,,,,,,,,,,,,,,,,,,,,,,,,,,,,,,,,,,,,,,,,,,,,,,,,,,,,,,,,,,,,,,,,,,,,,,,,,,,,,,,,,,,,,,,,,,,,,,
,,,,,,61080db9b1d210972ee7959a,62bbfa5823cc2669efad188f,2022-06-29_09h08.31.507,Colour_Asymmetry_Pilot,2022.1.3,Win32,60.02040694,62bbe60bf3d75ef465d3e404,0,131,131,2,1,twoone,,,,,,,,,,,,,,,,,,,,,,,,,,,,,,,,,,,,,,,,,,,,,,,,,,,,,,,,,,,,,,,,,,,,,,,,,,,,,,,,,,,,,,,,,,,,,,,,,,,,,,,,,,,,,,,,,,,,,,,,,,,,,,,,,,,,,,,,,,,,,,,,,,,,,,,,
,,,,,,61080db9b1d210972ee7959a,62bbfa5823cc2669efad188f,2022-06-29_09h08.31.507,Colour_Asymmetry_Pilot,2022.1.3,Win32,60.02040694,62bbe60bf3d75ef465d3e404,0,132,132,18,1,twoone,,,,,,,,,,,,,,,,,,,,,,,,,,,,,,,,,,,,,,,,,,,,,,,,,,,,,,,,,,,,,,,,,,,,,,,,,,,,,,,,,,,,,,,,,,,,,,,,,,,,,,,,,,,,,,,,,,,,,,,,,,,,,,,,,,,,,,,,,,,,,,,,,,,,,,,,
,,,,,,61080db9b1d210972ee7959a,62bbfa5823cc2669efad188f,2022-06-29_09h08.31.507,Colour_Asymmetry_Pilot,2022.1.3,Win32,60.02040694,62bbe60bf3d75ef465d3e404,0,133,133,155,1,twofour,,,,,,,,,,,,,,,,,,,,,,,,,,,,,,,,,,,,,,,,,,,,,,,,,,,,,,,,,,,,,,,,,,,,,,,,,,,,,,,,,,,,,,,,,,,,,,,,,,,,,,,,,,,,,,,,,,,,,,,,,,,,,,,,,,,,,,,,,,,,,,,,,,,,,,,,
,,,,,,61080db9b1d210972ee7959a,62bbfa5823cc2669efad188f,2022-06-29_09h08.31.507,Colour_Asymmetry_Pilot,2022.1.3,Win32,60.02040694,62bbe60bf3d75ef465d3e404,0,134,134,125,1,threefour,,,,,,,,,,,,,,,,,,,,,,,,,,,,,,,,,,,,,,,,,,,,,,,,,,,,,,,,,,,,,,,,,,,,,,,,,,,,,,,,,,,,,,,,,,,,,,,,,,,,,,,,,,,,,,,,,,,,,,,,,,,,,,,,,,,,,,,,,,,,,,,,,,,,,,,,
,,,,,,61080db9b1d210972ee7959a,62bbfa5823cc2669efad188f,2022-06-29_09h08.31.507,Colour_Asymmetry_Pilot,2022.1.3,Win32,60.02040694,62bbe60bf3d75ef465d3e404,0,135,135,73,1,onethree,,,,,,,,,,,,,,,,,,,,,,,,,,,,,,,,,,,,,,,,,,,,,,,,,,,,,,,,,,,,,,,,,,,,,,,,,,,,,,,,,,,,,,,,,,,,,,,,,,,,,,,,,,,,,,,,,,,,,,,,,,,,,,,,,,,,,,,,,,,,,,,,,,,,,,,,
,,,,,,61080db9b1d210972ee7959a,62bbfa5823cc2669efad188f,2022-06-29_09h08.31.507,Colour_Asymmetry_Pilot,2022.1.3,Win32,60.02040694,62bbe60bf3d75ef465d3e404,0,136,136,101,1,threefour,,,,,,,,,,,,,,,,,,,,,,,,,,,,,,,,,,,,,,,,,,,,,,,,,,,,,,,,,,,,,,,,,,,,,,,,,,,,,,,,,,,,,,,,,,,,,,,,,,,,,,,,,,,,,,,,,,,,,,,,,,,,,,,,,,,,,,,,,,,,,,,,,,,,,,,,
,,,,,,61080db9b1d210972ee7959a,62bbfa5823cc2669efad188f,2022-06-29_09h08.31.507,Colour_Asymmetry_Pilot,2022.1.3,Win32,60.02040694,62bbe60bf3d75ef465d3e404,0,137,137,13,1,threefour,,,,,,,,,,,,,,,,,,,,,,,,,,,,,,,,,,,,,,,,,,,,,,,,,,,,,,,,,,,,,,,,,,,,,,,,,,,,,,,,,,,,,,,,,,,,,,,,,,,,,,,,,,,,,,,,,,,,,,,,,,,,,,,,,,,,,,,,,,,,,,,,,,,,,,,,
,,,,,,61080db9b1d210972ee7959a,62bbfa5823cc2669efad188f,2022-06-29_09h08.31.507,Colour_Asymmetry_Pilot,2022.1.3,Win32,60.02040694,62bbe60bf3d75ef465d3e404,0,138,138,63,1,fourthree,,,,,,,,,,,,,,,,,,,,,,,,,,,,,,,,,,,,,,,,,,,,,,,,,,,,,,,,,,,,,,,,,,,,,,,,,,,,,,,,,,,,,,,,,,,,,,,,,,,,,,,,,,,,,,,,,,,,,,,,,,,,,,,,,,,,,,,,,,,,,,,,,,,,,,,,
,,,,,,61080db9b1d210972ee7959a,62bbfa5823cc2669efad188f,2022-06-29_09h08.31.507,Colour_Asymmetry_Pilot,2022.1.3,Win32,60.02040694,62bbe60bf3d75ef465d3e404,0,139,139,151,1,fourthree,,,,,,,,,,,,,,,,,,,,,,,,,,,,,,,,,,,,,,,,,,,,,,,,,,,,,,,,,,,,,,,,,,,,,,,,,,,,,,,,,,,,,,,,,,,,,,,,,,,,,,,,,,,,,,,,,,,,,,,,,,,,,,,,,,,,,,,,,,,,,,,,,,,,,,,,
,,,,,,61080db9b1d210972ee7959a,62bbfa5823cc2669efad188f,2022-06-29_09h08.31.507,Colour_Asymmetry_Pilot,2022.1.3,Win32,60.02040694,62bbe60bf3d75ef465d3e404,0,140,140,126,1,fourtwo,,,,,,,,,,,,,,,,,,,,,,,,,,,,,,,,,,,,,,,,,,,,,,,,,,,,,,,,,,,,,,,,,,,,,,,,,,,,,,,,,,,,,,,,,,,,,,,,,,,,,,,,,,,,,,,,,,,,,,,,,,,,,,,,,,,,,,,,,,,,,,,,,,,,,,,,
,,,,,,61080db9b1d210972ee7959a,62bbfa5823cc2669efad188f,2022-06-29_09h08.31.507,Colour_Asymmetry_Pilot,2022.1.3,Win32,60.02040694,62bbe60bf3d75ef465d3e404,0,141,141,41,1,onethree,,,,,,,,,,,,,,,,,,,,,,,,,,,,,,,,,,,,,,,,,,,,,,,,,,,,,,,,,,,,,,,,,,,,,,,,,,,,,,,,,,,,,,,,,,,,,,,,,,,,,,,,,,,,,,,,,,,,,,,,,,,,,,,,,,,,,,,,,,,,,,,,,,,,,,,,
,,,,,,61080db9b1d210972ee7959a,62bbfa5823cc2669efad188f,2022-06-29_09h08.31.507,Colour_Asymmetry_Pilot,2022.1.3,Win32,60.02040694,62bbe60bf3d75ef465d3e404,0,142,142,52,1,threeone,,,,,,,,,,,,,,,,,,,,,,,,,,,,,,,,,,,,,,,,,,,,,,,,,,,,,,,,,,,,,,,,,,,,,,,,,,,,,,,,,,,,,,,,,,,,,,,,,,,,,,,,,,,,,,,,,,,,,,,,,,,,,,,,,,,,,,,,,,,,,,,,,,,,,,,,
,,,,,,61080db9b1d210972ee7959a,62bbfa5823cc2669efad188f,2022-06-29_09h08.31.507,Colour_Asymmetry_Pilot,2022.1.3,Win32,60.02040694,62bbe60bf3d75ef465d3e404,0,143,143,156,1,threeone,,,,,,,,,,,,,,,,,,,,,,,,,,,,,,,,,,,,,,,,,,,,,,,,,,,,,,,,,,,,,,,,,,,,,,,,,,,,,,,,,,,,,,,,,,,,,,,,,,,,,,,,,,,,,,,,,,,,,,,,,,,,,,,,,,,,,,,,,,,,,,,,,,,,,,,,
,,,,,,61080db9b1d210972ee7959a,62bbfa5823cc2669efad188f,2022-06-29_09h08.31.507,Colour_Asymmetry_Pilot,2022.1.3,Win32,60.02040694,62bbe60bf3d75ef465d3e404,0,144,144,66,1,twoone,,,,,,,,,,,,,,,,,,,,,,,,,,,,,,,,,,,,,,,,,,,,,,,,,,,,,,,,,,,,,,,,,,,,,,,,,,,,,,,,,,,,,,,,,,,,,,,,,,,,,,,,,,,,,,,,,,,,,,,,,,,,,,,,,,,,,,,,,,,,,,,,,,,,,,,,
,,,,,,61080db9b1d210972ee7959a,62bbfa5823cc2669efad188f,2022-06-29_09h08.31.507,Colour_Asymmetry_Pilot,2022.1.3,Win32,60.02040694,62bbe60bf3d75ef465d3e404,0,145,145,118,1,fourtwo,,,,,,,,,,,,,,,,,,,,,,,,,,,,,,,,,,,,,,,,,,,,,,,,,,,,,,,,,,,,,,,,,,,,,,,,,,,,,,,,,,,,,,,,,,,,,,,,,,,,,,,,,,,,,,,,,,,,,,,,,,,,,,,,,,,,,,,,,,,,,,,,,,,,,,,,
,,,,,,61080db9b1d210972ee7959a,62bbfa5823cc2669efad188f,2022-06-29_09h08.31.507,Colour_Asymmetry_Pilot,2022.1.3,Win32,60.02040694,62bbe60bf3d75ef465d3e404,0,146,146,14,1,fourtwo,,,,,,,,,,,,,,,,,,,,,,,,,,,,,,,,,,,,,,,,,,,,,,,,,,,,,,,,,,,,,,,,,,,,,,,,,,,,,,,,,,,,,,,,,,,,,,,,,,,,,,,,,,,,,,,,,,,,,,,,,,,,,,,,,,,,,,,,,,,,,,,,,,,,,,,,
,,,,,,61080db9b1d210972ee7959a,62bbfa5823cc2669efad188f,2022-06-29_09h08.31.507,Colour_Asymmetry_Pilot,2022.1.3,Win32,60.02040694,62bbe60bf3d75ef465d3e404,0,147,147,64,1,onetwo,,,,,,,,,,,,,,,,,,,,,,,,,,,,,,,,,,,,,,,,,,,,,,,,,,,,,,,,,,,,,,,,,,,,,,,,,,,,,,,,,,,,,,,,,,,,,,,,,,,,,,,,,,,,,,,,,,,,,,,,,,,,,,,,,,,,,,,,,,,,,,,,,,,,,,,,
,,,,,,61080db9b1d210972ee7959a,62bbfa5823cc2669efad188f,2022-06-29_09h08.31.507,Colour_Asymmetry_Pilot,2022.1.3,Win32,60.02040694,62bbe60bf3d75ef465d3e404,0,148,148,139,1,twofour,,,,,,,,,,,,,,,,,,,,,,,,,,,,,,,,,,,,,,,,,,,,,,,,,,,,,,,,,,,,,,,,,,,,,,,,,,,,,,,,,,,,,,,,,,,,,,,,,,,,,,,,,,,,,,,,,,,,,,,,,,,,,,,,,,,,,,,,,,,,,,,,,,,,,,,,
,,,,,,61080db9b1d210972ee7959a,62bbfa5823cc2669efad188f,2022-06-29_09h08.31.507,Colour_Asymmetry_Pilot,2022.1.3,Win32,60.02040694,62bbe60bf3d75ef465d3e404,0,149,149,11,1,twofour,,,,,,,,,,,,,,,,,,,,,,,,,,,,,,,,,,,,,,,,,,,,,,,,,,,,,,,,,,,,,,,,,,,,,,,,,,,,,,,,,,,,,,,,,,,,,,,,,,,,,,,,,,,,,,,,,,,,,,,,,,,,,,,,,,,,,,,,,,,,,,,,,,,,,,,,
,,,,,,61080db9b1d210972ee7959a,62bbfa5823cc2669efad188f,2022-06-29_09h08.31.507,Colour_Asymmetry_Pilot,2022.1.3,Win32,60.02040694,62bbe60bf3d75ef465d3e404,0,150,150,153,1,onethree,,,,,,,,,,,,,,,,,,,,,,,,,,,,,,,,,,,,,,,,,,,,,,,,,,,,,,,,,,,,,,,,,,,,,,,,,,,,,,,,,,,,,,,,,,,,,,,,,,,,,,,,,,,,,,,,,,,,,,,,,,,,,,,,,,,,,,,,,,,,,,,,,,,,,,,,
,,,,,,61080db9b1d210972ee7959a,62bbfa5823cc2669efad188f,2022-06-29_09h08.31.507,Colour_Asymmetry_Pilot,2022.1.3,Win32,60.02040694,62bbe60bf3d75ef465d3e404,0,151,151,58,1,twoone,,,,,,,,,,,,,,,,,,,,,,,,,,,,,,,,,,,,,,,,,,,,,,,,,,,,,,,,,,,,,,,,,,,,,,,,,,,,,,,,,,,,,,,,,,,,,,,,,,,,,,,,,,,,,,,,,,,,,,,,,,,,,,,,,,,,,,,,,,,,,,,,,,,,,,,,
,,,,,,61080db9b1d210972ee7959a,62bbfa5823cc2669efad188f,2022-06-29_09h08.31.507,Colour_Asymmetry_Pilot,2022.1.3,Win32,60.02040694,62bbe60bf3d75ef465d3e404,0,152,152,161,1,onethree,,,,,,,,,,,,,,,,,,,,,,,,,,,,,,,,,,,,,,,,,,,,,,,,,,,,,,,,,,,,,,,,,,,,,,,,,,,,,,,,,,,,,,,,,,,,,,,,,,,,,,,,,,,,,,,,,,,,,,,,,,,,,,,,,,,,,,,,,,,,,,,,,,,,,,,,
,,,,,,61080db9b1d210972ee7959a,62bbfa5823cc2669efad188f,2022-06-29_09h08.31.507,Colour_Asymmetry_Pilot,2022.1.3,Win32,60.02040694,62bbe60bf3d75ef465d3e404,0,153,153,132,1,threeone,,,,,,,,,,,,,,,,,,,,,,,,,,,,,,,,,,,,,,,,,,,,,,,,,,,,,,,,,,,,,,,,,,,,,,,,,,,,,,,,,,,,,,,,,,,,,,,,,,,,,,,,,,,,,,,,,,,,,,,,,,,,,,,,,,,,,,,,,,,,,,,,,,,,,,,,
,,,,,,61080db9b1d210972ee7959a,62bbfa5823cc2669efad188f,2022-06-29_09h08.31.507,Colour_Asymmetry_Pilot,2022.1.3,Win32,60.02040694,62bbe60bf3d75ef465d3e404,0,154,154,70,1,fourtwo,,,,,,,,,,,,,,,,,,,,,,,,,,,,,,,,,,,,,,,,,,,,,,,,,,,,,,,,,,,,,,,,,,,,,,,,,,,,,,,,,,,,,,,,,,,,,,,,,,,,,,,,,,,,,,,,,,,,,,,,,,,,,,,,,,,,,,,,,,,,,,,,,,,,,,,,
,,,,,,61080db9b1d210972ee7959a,62bbfa5823cc2669efad188f,2022-06-29_09h08.31.507,Colour_Asymmetry_Pilot,2022.1.3,Win32,60.02040694,62bbe60bf3d75ef465d3e404,0,155,155,3,1,twofour,,,,,,,,,,,,,,,,,,,,,,,,,,,,,,,,,,,,,,,,,,,,,,,,,,,,,,,,,,,,,,,,,,,,,,,,,,,,,,,,,,,,,,,,,,,,,,,,,,,,,,,,,,,,,,,,,,,,,,,,,,,,,,,,,,,,,,,,,,,,,,,,,,,,,,,,
,,,,,,61080db9b1d210972ee7959a,62bbfa5823cc2669efad188f,2022-06-29_09h08.31.507,Colour_Asymmetry_Pilot,2022.1.3,Win32,60.02040694,62bbe60bf3d75ef465d3e404,0,156,156,1,1,onethree,,,,,,,,,,,,,,,,,,,,,,,,,,,,,,,,,,,,,,,,,,,,,,,,,,,,,,,,,,,,,,,,,,,,,,,,,,,,,,,,,,,,,,,,,,,,,,,,,,,,,,,,,,,,,,,,,,,,,,,,,,,,,,,,,,,,,,,,,,,,,,,,,,,,,,,,
,,,,,,61080db9b1d210972ee7959a,62bbfa5823cc2669efad188f,2022-06-29_09h08.31.507,Colour_Asymmetry_Pilot,2022.1.3,Win32,60.02040694,62bbe60bf3d75ef465d3e404,0,157,157,67,1,twofour,,,,,,,,,,,,,,,,,,,,,,,,,,,,,,,,,,,,,,,,,,,,,,,,,,,,,,,,,,,,,,,,,,,,,,,,,,,,,,,,,,,,,,,,,,,,,,,,,,,,,,,,,,,,,,,,,,,,,,,,,,,,,,,,,,,,,,,,,,,,,,,,,,,,,,,,
,,,,,,61080db9b1d210972ee7959a,62bbfa5823cc2669efad188f,2022-06-29_09h08.31.507,Colour_Asymmetry_Pilot,2022.1.3,Win32,60.02040694,62bbe60bf3d75ef465d3e404,0,158,158,34,1,twoone,,,,,,,,,,,,,,,,,,,,,,,,,,,,,,,,,,,,,,,,,,,,,,,,,,,,,,,,,,,,,,,,,,,,,,,,,,,,,,,,,,,,,,,,,,,,,,,,,,,,,,,,,,,,,,,,,,,,,,,,,,,,,,,,,,,,,,,,,,,,,,,,,,,,,,,,
,,,,,,61080db9b1d210972ee7959a,62bbfa5823cc2669efad188f,2022-06-29_09h08.31.507,Colour_Asymmetry_Pilot,2022.1.3,Win32,60.02040694,62bbe60bf3d75ef465d3e404,0,159,159,141,1,threefour,,,,,,,,,,,,,,,,,,,,,,,,,,,,,,,,,,,,,,,,,,,,,,,,,,,,,,,,,,,,,,,,,,,,,,,,,,,,,,,,,,,,,,,,,,,,,,,,,,,,,,,,,,,,,,,,,,,,,,,,,,,,,,,,,,,,,,,,,,,,,,,,,,,,,,,,
,,,,,,61080db9b1d210972ee7959a,62bbfa5823cc2669efad188f,2022-06-29_09h08.31.507,Colour_Asymmetry_Pilot,2022.1.3,Win32,60.02040694,62bbe60bf3d75ef465d3e404,0,160,160,31,1,fourthree,,,,,,,,,,,,,,,,,,,,,,,,,,,,,,,,,,,,,,,,,,,,,,,,,,,,,,,,,,,,,,,,,,,,,,,,,,,,,,,,,,,,,,,,,,,,,,,,,,,,,,,,,,,,,,,,,,,,,,,,,,,,,,,,,,,,,,,,,,,,,,,,,,,,,,,,
,,,,,,61080db9b1d210972ee7959a,62bbfa5823cc2669efad188f,2022-06-29_09h08.31.507,Colour_Asymmetry_Pilot,2022.1.3,Win32,60.02040694,62bbe60bf3d75ef465d3e404,0,161,161,104,1,onetwo,,,,,,,,,,,,,,,,,,,,,,,,,,,,,,,,,,,,,,,,,,,,,,,,,,,,,,,,,,,,,,,,,,,,,,,,,,,,,,,,,,,,,,,,,,,,,,,,,,,,,,,,,,,,,,,,,,,,,,,,,,,,,,,,,,,,,,,,,,,,,,,,,,,,,,,,
,,,,,,61080db9b1d210972ee7959a,62bbfa5823cc2669efad188f,2022-06-29_09h08.31.507,Colour_Asymmetry_Pilot,2022.1.3,Win32,60.02040694,62bbe60bf3d75ef465d3e404,,,,,,,space,5.4155,space,14.856,space,239.4807,space,9.4682,space,6.1045,space,6.1726,"[-0.24719999999999998,-0.0354000000000001,0.3175999999999999]",threeone,"[-0.24719999999999998,0.5213999999999999,-0.12959999999999994]",-4,5.4412,-43.33331299,105.3333282,1,0,0,response7disk_5,-10,-1.333343506,1,0,0,rectangle_8,-10,-1.333343506,1,0,0,4,-10,-1.333343506,1,0,0,0,0,0,0,1,,,,,,,,,,,,,,,,,,,,,,,,,,,,,,,,,,,,,,,,,,,,,,,,,,,,,,,,,,,,,,,,,,,,,,,,,,,,,,,,,,,,,,,,,,,,,,,,,,,,,,,,,,,
,,,,,,61080db9b1d210972ee7959a,62bbfa5823cc2669efad188f,2022-06-29_09h08.31.507,Colour_Asymmetry_Pilot,2022.1.3,Win32,60.02040694,62bbe60bf3d75ef465d3e404,,,,,,,,,,,,,,,,,,,"[-0.38039999999999996,-0.4276,-0.1452]",fourthree,"[-0.20799999999999996,-0.655,-0.01980000000000004]",4,2.0005,58.66668701,86,1,0,0,response1disk_5,-1.333312988,-0.666687012,1,0,0,rectangle_8,-1.333312988,-0.666687012,1,0,0,4,-1.333312988,-0.666687012,1,0,0,1,0,1,0,1,,,,,,,,,,,,,,,,,,,,,,,,,,,,,,,,,,,,,,,,,,,,,,,,,,,,,,,,,,,,,,,,,,,,,,,,,,,,,,,,,,,,,,,,,,,,,,,,,,,,,,,,,,,
,,,,,,61080db9b1d210972ee7959a,62bbfa5823cc2669efad188f,2022-06-29_09h08.31.507,Colour_Asymmetry_Pilot,2022.1.3,Win32,60.02040694,62bbe60bf3d75ef465d3e404,,,,,,,,,,,,,,,,,,,"[-0.011800000000000033,-0.906,-0.45100000000000007]",twofour,"[-0.9766,-0.34920000000000007,0.2156]",-4,1.5167,-43.33331299,94,1,0,0,response7disk_5,-10,1.333312988,1,0,0,rectangle_8,52.66668701,98.66665649,1,0,0,4,-4.666625977,2.666656494,1,0,0,2,0,2,0,1,response1disk_7,7,rectangle_4,,,,,,,,,,,,,,,,,,,,,,,,,,,,,,,,,,,,,,,,,,,,,,,,,,,,,,,,,,,,,,,,,,,,,,,,,,,,,,,,,,,,,,,,,,,,,,,,,,,,,,,,
,,,,,,61080db9b1d210972ee7959a,62bbfa5823cc2669efad188f,2022-06-29_09h08.31.507,Colour_Asymmetry_Pilot,2022.1.3,Win32,60.02040694,62bbe60bf3d75ef465d3e404,,,,,,,,,,,,,,,,,,,"[-0.9296,-0.12959999999999994,-0.043199999999999905]",onetwo,"[0.09799999999999986,-0.24719999999999998,0.15280000000000005]",-4,1.3837,-37.33331299,81.33331299,1,0,0,response7disk_5,-8.666625977,-4.666687012,1,0,0,rectangle_8,37.33337402,78,1,0,0,4,-7.333312988,0,1,0,0,3,0,3,0,1,response1disk_7,7,rectangle_4,,,,,,,,,,,,,,,,,,,,,,,,,,,,,,,,,,,,,,,,,,,,,,,,,,,,,,,,,,,,,,,,,,,,,,,,,,,,,,,,,,,,,,,,,,,,,,,,,,,,,,,,
,,,,,,61080db9b1d210972ee7959a,62bbfa5823cc2669efad188f,2022-06-29_09h08.31.507,Colour_Asymmetry_Pilot,2022.1.3,Win32,60.02040694,62bbe60bf3d75ef465d3e404,,,,,,,,,,,,,,,,,,,"[-0.050999999999999934,-0.6706000000000001,-0.804]",twofour,"[-0.10599999999999998,-0.15300000000000002,0.15280000000000005]",-4,1.4671,-46.66662598,95.33331299,1,0,0,response7disk_5,-6.666625977,-2.666687012,1,0,0,rectangle_8,-6.666625977,-2.666687012,1,0,0,4,-6.666625977,-2.666687012,1,0,0,4,0,4,0,1,,,,,,,,,,,,,,,,,,,,,,,,,,,,,,,,,,,,,,,,,,,,,,,,,,,,,,,,,,,,,,,,,,,,,,,,,,,,,,,,,,,,,,,,,,,,,,,,,,,,,,,,,,,
,,,,,,61080db9b1d210972ee7959a,62bbfa5823cc2669efad188f,2022-06-29_09h08.31.507,Colour_Asymmetry_Pilot,2022.1.3,Win32,60.02040694,62bbe60bf3d75ef465d3e404,,,,,,,,,,,,,,,,,,,"[0.9686000000000001,0.5763999999999998,0.11359999999999992]",fourtwo,"[-0.01980000000000004,-0.5138,-0.38039999999999996]",-4,1.1002,-47.33331299,94.66665649,1,0,0,response7disk_5,-8.666625977,-4,1,0,0,rectangle_8,-8.666625977,-4,1,0,0,4,-8.666625977,-4,1,0,0,5,0,5,0,1,,,,,,,,,,,,,,,,,,,,,,,,,,,,,,,,,,,,,,,,,,,,,,,,,,,,,,,,,,,,,,,,,,,,,,,,,,,,,,,,,,,,,,,,,,,,,,,,,,,,,,,,,,,
,,,,,,61080db9b1d210972ee7959a,62bbfa5823cc2669efad188f,2022-06-29_09h08.31.507,Colour_Asymmetry_Pilot,2022.1.3,Win32,60.02040694,62bbe60bf3d75ef465d3e404,,,,,,,,,,,,,,,,,,,"[-0.9844,-0.9688,-0.9922]",twofour,"[0.9686000000000001,0.3802000000000001,0.19999999999999996]",-4,1.2674,-40.66662598,87.33331299,1,0,0,response7disk_5,-13.33331299,1.333312988,1,0,0,rectangle_8,-13.33331299,1.333312988,1,0,0,4,-13.33331299,1.333312988,1,0,0,6,0,6,0,1,,,,,,,,,,,,,,,,,,,,,,,,,,,,,,,,,,,,,,,,,,,,,,,,,,,,,,,,,,,,,,,,,,,,,,,,,,,,,,,,,,,,,,,,,,,,,,,,,,,,,,,,,,,
,,,,,,61080db9b1d210972ee7959a,62bbfa5823cc2669efad188f,2022-06-29_09h08.31.507,Colour_Asymmetry_Pilot,2022.1.3,Win32,60.02040694,62bbe60bf3d75ef465d3e404,,,,,,,,,,,,,,,,,,,,onetwo,,4,1.5324,,,,,,,,,,,,,,,,,,,,,,,,,,,,,,,,space,4.095,"[-0.5452,-0.608,0.2470000000000001]","[-0.9688,-0.4902000000000001,-0.12159999999999993]",52.66668701,104,1,0,0,response1disk,-3.333312988,1.333312988,1,0,0,rectangle,-3.333312988,1.333312988,1,0,0,,2,0.0057,0,-3.333312988,1.333312988,1,0,0,0,0,0,141,1,60,second,,,,,,,,,,,,,,,,,,,,,,,,,,,,,,,,,,,,,,,,,,,,,,,,,,,,,,,,,,,,,,,,,,,
,,,,,,61080db9b1d210972ee7959a,62bbfa5823cc2669efad188f,2022-06-29_09h08.31.507,Colour_Asymmetry_Pilot,2022.1.3,Win32,60.02040694,62bbe60bf3d75ef465d3e404,,,,,,,,,,,,,,,,,,,,fourtwo,,-4,1.05,,,,,,,,,,,,,,,,,,,,,,,,,,,,,,,,,,"[-0.4902000000000001,0.2704,-0.45899999999999996]","[0.796,0.2156,-0.27859999999999996]",-38,87.33331299,1,0,0,response7disk,-10.66662598,8.666656494,1,0,0,rectangle,-10.66662598,8.666656494,1,0,0,,1,0.0028,0,-10.66662598,8.666656494,1,0,0,0,1,1,27,1,27,first,,,,,,,,,,,,,,,,,,,,,,,,,,,,,,,,,,,,,,,,,,,,,,,,,,,,,,,,,,,,,,,,,,,
,,,,,,61080db9b1d210972ee7959a,62bbfa5823cc2669efad188f,2022-06-29_09h08.31.507,Colour_Asymmetry_Pilot,2022.1.3,Win32,60.02040694,62bbe60bf3d75ef465d3e404,,,,,,,,,,,,,,,,,,,,fourthree,,-4,0.9167,,,,,,,,,,,,,,,,,,,,,,,,,,,,,,,,,,"[0.04299999999999993,0.16060000000000008,-0.6628000000000001]","[0.40379999999999994,0.09000000000000008,0.44300000000000006]",-36,90.66665649,1,0,0,response7disk,-3.333312988,10,1,0,0,rectangle,-3.333312988,10,1,0,0,,1,0.0009,0,-3.333312988,10,1,0,0,0,2,2,115,1,34,second,,,,,,,,,,,,,,,,,,,,,,,,,,,,,,,,,,,,,,,,,,,,,,,,,,,,,,,,,,,,,,,,,,,
,,,,,,61080db9b1d210972ee7959a,62bbfa5823cc2669efad188f,2022-06-29_09h08.31.507,Colour_Asymmetry_Pilot,2022.1.3,Win32,60.02040694,62bbe60bf3d75ef465d3e404,,,,,,,,,,,,,,,,,,,,twoone,,-4,0.9339,,,,,,,,,,,,,,,,,,,,,,,,,,,,,,,,,,"[-0.4668,-0.8746,-0.2942]","[0.6547999999999998,-0.043199999999999905,-0.011800000000000033]",-52.66662598,102,1,0,0,response7disk,15.33337402,-2,1,0,0,rectangle,15.33337402,-2,1,0,0,,2,0.0028,0,15.33337402,-2,1,0,0,0,3,3,22,1,22,first,,,,,,,,,,,,,,,,,,,,,,,,,,,,,,,,,,,,,,,,,,,,,,,,,,,,,,,,,,,,,,,,,,,
,,,,,,61080db9b1d210972ee7959a,62bbfa5823cc2669efad188f,2022-06-29_09h08.31.507,Colour_Asymmetry_Pilot,2022.1.3,Win32,60.02040694,62bbe60bf3d75ef465d3e404,,,,,,,,,,,,,,,,,,,,fourtwo,,-4,0.9997,,,,,,,,,,,,,,,,,,,,,,,,,,,,,,,,,,"[0.40379999999999994,0.09000000000000008,0.44300000000000006]","[-0.6942,-0.7648,-0.12959999999999994]",-46,86,1,0,0,response7disk,12.66668701,6.666656494,1,0,0,rectangle,84,-47.33334351,1,0,0,2,2,3.1337,1,-3.333312988,1.333312988,1,0,0,0,4,4,159,1,78,second,response3disk_3,rectangle,,,,,,,,,,,,,,,,,,,,,,,,,,,,,,,,,,,,,,,,,,,,,,,,,,,,,,,,,,,,,,,,,
,,,,,,61080db9b1d210972ee7959a,62bbfa5823cc2669efad188f,2022-06-29_09h08.31.507,Colour_Asymmetry_Pilot,2022.1.3,Win32,60.02040694,62bbe60bf3d75ef465d3e404,,,,,,,,,,,,,,,,,,,,onetwo,,-4,1.1333,,,,,,,,,,,,,,,,,,,,,,,,,,,,,,,,,,"[-0.24719999999999998,-0.0354000000000001,0.3175999999999999]","[-0.17659999999999998,0.3253999999999999,0.19999999999999996]",-45.33331299,100,1,0,0,response7disk,0,2.666656494,1,0,0,rectangle,0,2.666656494,1,0,0,2,1,0.0027,0,0,2.666656494,1,0,0,0,5,5,90,1,9,second,,,,,,,,,,,,,,,,,,,,,,,,,,,,,,,,,,,,,,,,,,,,,,,,,,,,,,,,,,,,,,,,,,,
,,,,,,61080db9b1d210972ee7959a,62bbfa5823cc2669efad188f,2022-06-29_09h08.31.507,Colour_Asymmetry_Pilot,2022.1.3,Win32,60.02040694,62bbe60bf3d75ef465d3e404,,,,,,,,,,,,,,,,,,,,fourtwo,,-4,0.9669,,,,,,,,,,,,,,,,,,,,,,,,,,,,,,,,,,"[0.9763999999999999,0.8588,-0.05900000000000005]","[-0.10599999999999998,-0.10599999999999998,0.5841999999999998]",-34,96,1,0,0,response7disk,1.333374023,9.333312988,1,0,0,rectangle,1.333374023,9.333312988,1,0,0,2,1,0.0006,0,1.333374023,9.333312988,1,0,0,0,6,6,68,1,68,first,,,,,,,,,,,,,,,,,,,,,,,,,,,,,,,,,,,,,,,,,,,,,,,,,,,,,,,,,,,,,,,,,,,
,,,,,,61080db9b1d210972ee7959a,62bbfa5823cc2669efad188f,2022-06-29_09h08.31.507,Colour_Asymmetry_Pilot,2022.1.3,Win32,60.02040694,62bbe60bf3d75ef465d3e404,,,,,,,,,,,,,,,,,,,,threefour,,4,1.0002,,,,,,,,,,,,,,,,,,,,,,,,,,,,,,,,,,"[-0.9766,-0.34920000000000007,0.2156]","[-0.38039999999999996,-0.4276,-0.1452]",44.66668701,80.66665649,1,0,0,response1disk,5.333374023,10.66665649,1,0,0,rectangle,5.333374023,10.66665649,1,0,0,2,1,0.0006,0,5.333374023,10.66665649,1,0,0,0,7,7,79,1,79,first,,,,,,,,,,,,,,,,,,,,,,,,,,,,,,,,,,,,,,,,,,,,,,,,,,,,,,,,,,,,,,,,,,,
,,,,,,61080db9b1d210972ee7959a,62bbfa5823cc2669efad188f,2022-06-29_09h08.31.507,Colour_Asymmetry_Pilot,2022.1.3,Win32,60.02040694,62bbe60bf3d75ef465d3e404,,,,,,,,,,,,,,,,,,,,threefour,,-4,1.2171,,,,,,,,,,,,,,,,,,,,,,,,,,,,,,,,,,"[0.9372,0.9450000000000001,0.8980000000000001]","[0.09799999999999986,-0.24719999999999998,0.15280000000000005]",-40.66662598,108,1,0,0,response7disk,9.333374023,5.333312988,1,0,0,rectangle,9.333374023,5.333312988,1,0,0,2,3,0.0032,0,9.333374023,5.333312988,1,0,0,0,8,8,93,1,12,second,,,,,,,,,,,,,,,,,,,,,,,,,,,,,,,,,,,,,,,,,,,,,,,,,,,,,,,,,,,,,,,,,,,
,,,,,,61080db9b1d210972ee7959a,62bbfa5823cc2669efad188f,2022-06-29_09h08.31.507,Colour_Asymmetry_Pilot,2022.1.3,Win32,60.02040694,62bbe60bf3d75ef465d3e404,,,,,,,,,,,,,,,,,,,,fourtwo,,-4,2.4842,,,,,,,,,,,,,,,,,,,,,,,,,,,,,,,,,,"[-0.09019999999999995,0.44300000000000006,0.5371999999999999]","[-0.5452,-0.608,0.2470000000000001]",-46,94,1,0,0,response7disk,0,6.666656494,1,0,0,rectangle,73.33337402,54.66665649,1,0,0,3,3,3.2846,1,-6,7.333312988,1,0,0,0,9,9,161,1,80,second,response1disk_3,rectangle,,,,,,,,,,,,,,,,,,,,,,,,,,,,,,,,,,,,,,,,,,,,,,,,,,,,,,,,,,,,,,,,,
,,,,,,61080db9b1d210972ee7959a,62bbfa5823cc2669efad188f,2022-06-29_09h08.31.507,Colour_Asymmetry_Pilot,2022.1.3,Win32,60.02040694,62bbe60bf3d75ef465d3e404,,,,,,,,,,,,,,,,,,,,fourtwo,,-4,1.0339,,,,,,,,,,,,,,,,,,,,,,,,,,,,,,,,,,"[-0.24719999999999998,-0.0354000000000001,0.3175999999999999]","[0.11359999999999992,0.6312,0.5213999999999999]",-36,83.33331299,1,0,0,response7disk,8,-3.333343506,1,0,0,rectangle,8,-3.333343506,1,0,0,3,1,0.0033,0,8,-3.333343506,1,0,0,0,10,10,106,1,25,second,,,,,,,,,,,,,,,,,,,,,,,,,,,,,,,,,,,,,,,,,,,,,,,,,,,,,,,,,,,,,,,,,,,
,,,,,,61080db9b1d210972ee7959a,62bbfa5823cc2669efad188f,2022-06-29_09h08.31.507,Colour_Asymmetry_Pilot,2022.1.3,Win32,60.02040694,62bbe60bf3d75ef465d3e404,,,,,,,,,,,,,,,,,,,,twofour,,-4,0.9669,,,,,,,,,,,,,,,,,,,,,,,,,,,,,,,,,,"[0.9763999999999999,-0.1137999999999999,-0.6314]","[-0.10599999999999998,-0.10599999999999998,0.5841999999999998]",-42.66662598,85.33331299,1,0,0,response7disk,-8.666625977,4,1,0,0,rectangle,-8.666625977,4,1,0,0,3,1,0.0004,0,-8.666625977,4,1,0,0,0,11,11,147,1,66,second,,,,,,,,,,,,,,,,,,,,,,,,,,,,,,,,,,,,,,,,,,,,,,,,,,,,,,,,,,,,,,,,,,,
,,,,,,61080db9b1d210972ee7959a,62bbfa5823cc2669efad188f,2022-06-29_09h08.31.507,Colour_Asymmetry_Pilot,2022.1.3,Win32,60.02040694,62bbe60bf3d75ef465d3e404,,,,,,,,,,,,,,,,,,,,threeone,,-4,2.7841,,,,,,,,,,,,,,,,,,,,,,,,,,,,,,,,,,"[-0.17659999999999998,0.3253999999999999,0.19999999999999996]","[-0.38039999999999996,-0.4276,-0.1452]",-36.66662598,79.33331299,1,0,0,response7disk,3.333374023,-1.333343506,1,0,0,rectangle,3.333374023,-1.333343506,1,0,0,3,2,0.0024,0,3.333374023,-1.333343506,1,0,0,0,12,12,51,1,51,first,,,,,,,,,,,,,,,,,,,,,,,,,,,,,,,,,,,,,,,,,,,,,,,,,,,,,,,,,,,,,,,,,,,
,,,,,,61080db9b1d210972ee7959a,62bbfa5823cc2669efad188f,2022-06-29_09h08.31.507,Colour_Asymmetry_Pilot,2022.1.3,Win32,60.02040694,62bbe60bf3d75ef465d3e404,,,,,,,,,,,,,,,,,,,,threefour,,-4,0.5665,,,,,,,,,,,,,,,,,,,,,,,,,,,,,,,,,,"[0.5449999999999999,-0.31000000000000005,-0.0354000000000001]","[0.8274000000000001,-0.5844,-0.9452]",-37.33331299,88.66665649,1,0,0,response7disk,-2,9.333312988,1,0,0,rectangle,-2,9.333312988,1,0,0,3,3,0.0029,0,-2,9.333312988,1,0,0,0,13,13,101,1,20,second,,,,,,,,,,,,,,,,,,,,,,,,,,,,,,,,,,,,,,,,,,,,,,,,,,,,,,,,,,,,,,,,,,,
,,,,,,61080db9b1d210972ee7959a,62bbfa5823cc2669efad188f,2022-06-29_09h08.31.507,Colour_Asymmetry_Pilot,2022.1.3,Win32,60.02040694,62bbe60bf3d75ef465d3e404,,,,,,,,,,,,,,,,,,,,twofour,,4,0.6338,,,,,,,,,,,,,,,,,,,,,,,,,,,,,,,,,,"[0.6547999999999998,-0.043199999999999905,-0.011800000000000033]","[0.6547999999999998,-0.043199999999999905,-0.011800000000000033]",48,78.66665649,1,0,0,response1disk,5.333374023,12.66665649,1,0,0,rectangle,5.333374023,12.66665649,1,0,0,3,2,0.0023,0,5.333374023,12.66665649,1,0,0,0,14,14,156,1,75,second,,,,,,,,,,,,,,,,,,,,,,,,,,,,,,,,,,,,,,,,,,,,,,,,,,,,,,,,,,,,,,,,,,,
,,,,,,61080db9b1d210972ee7959a,62bbfa5823cc2669efad188f,2022-06-29_09h08.31.507,Colour_Asymmetry_Pilot,2022.1.3,Win32,60.02040694,62bbe60bf3d75ef465d3e404,,,,,,,,,,,,,,,,,,,,twofour,,-4,0.7005,,,,,,,,,,,,,,,,,,,,,,,,,,,,,,,,,,"[0.04299999999999993,0.16060000000000008,-0.6628000000000001]","[0.9763999999999999,0.30979999999999985,-0.6786]",-30.66662598,86.66665649,1,0,0,response7disk,-8,-2,1,0,0,rectangle,-8,-2,1,0,0,3,3,0.0023,0,-8,-2,1,0,0,0,15,15,31,1,31,first,,,,,,,,,,,,,,,,,,,,,,,,,,,,,,,,,,,,,,,,,,,,,,,,,,,,,,,,,,,,,,,,,,,
,,,,,,61080db9b1d210972ee7959a,62bbfa5823cc2669efad188f,2022-06-29_09h08.31.507,Colour_Asymmetry_Pilot,2022.1.3,Win32,60.02040694,62bbe60bf3d75ef465d3e404,,,,,,,,,,,,,,,,,,,,twoone,,-4,0.7004,,,,,,,,,,,,,,,,,,,,,,,,,,,,,,,,,,"[0.7176,-0.906,-0.6864]","[0.37240000000000006,0.4980000000000002,-0.2864]",-36,87.33331299,1,0,0,response7disk,2,1.333312988,1,0,0,rectangle,2,1.333312988,1,0,0,3,2,0.0025,0,2,1.333312988,1,0,0,0,16,16,58,1,58,first,,,,,,,,,,,,,,,,,,,,,,,,,,,,,,,,,,,,,,,,,,,,,,,,,,,,,,,,,,,,,,,,,,,
