trials.thisRepN,trials.thisTrialN,trials.thisN,trials.thisIndex,trials.ran,Colourcodes,participant,session,date,expName,psychopyVersion,OS,frameRate,study_id,trials_4.thisRepN,trials_4.thisTrialN,trials_4.thisN,trials_4.thisIndex,trials_4.ran,StimulusPos,key_resp.keys,key_resp.rt,key_resp_2.keys,key_resp_2.rt,key_resp_15.keys,key_resp_15.rt,key_resp_17.keys,key_resp_17.rt,key_resp_9.keys,key_resp_9.rt,key_resp_10.keys,key_resp_10.rt,Circle1_col,Ecc,Circle2_col,similarity,response_time,mouse_5.x,mouse_5.y,mouse_5.leftButton,mouse_5.midButton,mouse_5.rightButton,mouse_5.clicked_name,mouse_10.x,mouse_10.y,mouse_10.leftButton,mouse_10.midButton,mouse_10.rightButton,mouse_10.clicked_name,mouse_7.x,mouse_7.y,mouse_7.leftButton,mouse_7.midButton,mouse_7.rightButton,mouse_7.clicked_name,catchprac,catchnumberprac,mouse_6.x,mouse_6.y,mouse_6.leftButton,mouse_6.midButton,mouse_6.rightButton,mouse_6.clicked_name,duringprac.thisRepN,duringprac.thisTrialN,duringprac.thisN,duringprac.thisIndex,duringprac.ran,key_resp_22.keys,key_resp_22.rt,Circle1_colour,Circle2_colour,mouse.x,mouse.y,mouse.leftButton,mouse.midButton,mouse.rightButton,mouse.clicked_name,mouse_2.x,mouse_2.y,mouse_2.leftButton,mouse_2.midButton,mouse_2.rightButton,mouse_2.clicked_name,mouse_3.x,mouse_3.y,mouse_3.leftButton,mouse_3.midButton,mouse_3.rightButton,catchresponse,catchnumber,response_time_catch,Catch,mouse_11.x,mouse_11.y,mouse_11.leftButton,mouse_11.midButton,mouse_11.rightButton,trials_2.thisRepN,trials_2.thisTrialN,trials_2.thisN,trials_2.thisIndex,trials_2.ran,Colourpair,Temporder,mouse_3.clicked_name,mouse_11.clicked_name,trials_3.thisRepN,trials_3.thisTrialN,trials_3.thisN,trials_3.thisIndex,trials_3.ran,key_resp_instr_Ishi.keys,key_resp_instr_Ishi.rt,Ishi_trial_keyresp.keys,Ishi_trial_keyresp.rt,Ishi_textbox.text,Ishi_loop.thisRepN,Ishi_loop.thisTrialN,Ishi_loop.thisN,Ishi_loop.thisIndex,Ishi_loop.ran,imageaddress,textbox.text,mouse_4.x,mouse_4.y,mouse_4.leftButton,mouse_4.midButton,mouse_4.rightButton,mouse_4.clicked_name,textbox_2.text,mouse_8.x,mouse_8.y,mouse_8.leftButton,mouse_8.midButton,mouse_8.rightButton,mouse_8.clicked_name,textbox_3.text,mouse_9.x,mouse_9.y,mouse_9.leftButton,mouse_9.midButton,mouse_9.rightButton,mouse_9.clicked_name,textbox_4.text,mouse_12.x,mouse_12.y,mouse_12.leftButton,mouse_12.midButton,mouse_12.rightButton,mouse_12.clicked_name,textbox_5.text,mouse_13.x,mouse_13.y,mouse_13.leftButton,mouse_13.midButton,mouse_13.rightButton,mouse_13.clicked_name,textbox_6.text,mouse_14.x,mouse_14.y,mouse_14.leftButton,mouse_14.midButton,mouse_14.rightButton,mouse_14.clicked_name,textbox_7.text,mouse_15.x,mouse_15.y,mouse_15.leftButton,mouse_15.midButton,mouse_15.rightButton,mouse_15.clicked_name
0,0,0,46,1,,5fb0eec9fa92bc4ffa483efa,62bbfae1f6dc862c225f200b,2022-06-29_24h10.48.128,Colour_Asymmetry_Pilot,2022.1.3,Win32,60.19020104,62bbe60bf3d75ef465d3e404,,,,,,,,,,,,,,,,,,,,,,,,,,,,,,,,,,,,,,,,,,,,,,,,,,,,,,,,,,,,,,,,,,,,,,,,,,,,,,,,,,,,,,,,,,,,,,,,,,,,,,,,,,,,,,,,,,,,,,,,,,,,,,,,,,,,,,,,,,,,,,,,,,,,,,,,,,,,,,
0,1,1,69,1,,5fb0eec9fa92bc4ffa483efa,62bbfae1f6dc862c225f200b,2022-06-29_24h10.48.128,Colour_Asymmetry_Pilot,2022.1.3,Win32,60.19020104,62bbe60bf3d75ef465d3e404,,,,,,,,,,,,,,,,,,,,,,,,,,,,,,,,,,,,,,,,,,,,,,,,,,,,,,,,,,,,,,,,,,,,,,,,,,,,,,,,,,,,,,,,,,,,,,,,,,,,,,,,,,,,,,,,,,,,,,,,,,,,,,,,,,,,,,,,,,,,,,,,,,,,,,,,,,,,,,
0,2,2,42,1,,5fb0eec9fa92bc4ffa483efa,62bbfae1f6dc862c225f200b,2022-06-29_24h10.48.128,Colour_Asymmetry_Pilot,2022.1.3,Win32,60.19020104,62bbe60bf3d75ef465d3e404,,,,,,,,,,,,,,,,,,,,,,,,,,,,,,,,,,,,,,,,,,,,,,,,,,,,,,,,,,,,,,,,,,,,,,,,,,,,,,,,,,,,,,,,,,,,,,,,,,,,,,,,,,,,,,,,,,,,,,,,,,,,,,,,,,,,,,,,,,,,,,,,,,,,,,,,,,,,,,
0,3,3,51,1,,5fb0eec9fa92bc4ffa483efa,62bbfae1f6dc862c225f200b,2022-06-29_24h10.48.128,Colour_Asymmetry_Pilot,2022.1.3,Win32,60.19020104,62bbe60bf3d75ef465d3e404,,,,,,,,,,,,,,,,,,,,,,,,,,,,,,,,,,,,,,,,,,,,,,,,,,,,,,,,,,,,,,,,,,,,,,,,,,,,,,,,,,,,,,,,,,,,,,,,,,,,,,,,,,,,,,,,,,,,,,,,,,,,,,,,,,,,,,,,,,,,,,,,,,,,,,,,,,,,,,
0,4,4,28,1,,5fb0eec9fa92bc4ffa483efa,62bbfae1f6dc862c225f200b,2022-06-29_24h10.48.128,Colour_Asymmetry_Pilot,2022.1.3,Win32,60.19020104,62bbe60bf3d75ef465d3e404,,,,,,,,,,,,,,,,,,,,,,,,,,,,,,,,,,,,,,,,,,,,,,,,,,,,,,,,,,,,,,,,,,,,,,,,,,,,,,,,,,,,,,,,,,,,,,,,,,,,,,,,,,,,,,,,,,,,,,,,,,,,,,,,,,,,,,,,,,,,,,,,,,,,,,,,,,,,,,
0,5,5,26,1,,5fb0eec9fa92bc4ffa483efa,62bbfae1f6dc862c225f200b,2022-06-29_24h10.48.128,Colour_Asymmetry_Pilot,2022.1.3,Win32,60.19020104,62bbe60bf3d75ef465d3e404,,,,,,,,,,,,,,,,,,,,,,,,,,,,,,,,,,,,,,,,,,,,,,,,,,,,,,,,,,,,,,,,,,,,,,,,,,,,,,,,,,,,,,,,,,,,,,,,,,,,,,,,,,,,,,,,,,,,,,,,,,,,,,,,,,,,,,,,,,,,,,,,,,,,,,,,,,,,,,
0,6,6,72,1,,5fb0eec9fa92bc4ffa483efa,62bbfae1f6dc862c225f200b,2022-06-29_24h10.48.128,Colour_Asymmetry_Pilot,2022.1.3,Win32,60.19020104,62bbe60bf3d75ef465d3e404,,,,,,,,,,,,,,,,,,,,,,,,,,,,,,,,,,,,,,,,,,,,,,,,,,,,,,,,,,,,,,,,,,,,,,,,,,,,,,,,,,,,,,,,,,,,,,,,,,,,,,,,,,,,,,,,,,,,,,,,,,,,,,,,,,,,,,,,,,,,,,,,,,,,,,,,,,,,,,
0,7,7,43,1,,5fb0eec9fa92bc4ffa483efa,62bbfae1f6dc862c225f200b,2022-06-29_24h10.48.128,Colour_Asymmetry_Pilot,2022.1.3,Win32,60.19020104,62bbe60bf3d75ef465d3e404,,,,,,,,,,,,,,,,,,,,,,,,,,,,,,,,,,,,,,,,,,,,,,,,,,,,,,,,,,,,,,,,,,,,,,,,,,,,,,,,,,,,,,,,,,,,,,,,,,,,,,,,,,,,,,,,,,,,,,,,,,,,,,,,,,,,,,,,,,,,,,,,,,,,,,,,,,,,,,
0,8,8,17,1,,5fb0eec9fa92bc4ffa483efa,62bbfae1f6dc862c225f200b,2022-06-29_24h10.48.128,Colour_Asymmetry_Pilot,2022.1.3,Win32,60.19020104,62bbe60bf3d75ef465d3e404,,,,,,,,,,,,,,,,,,,,,,,,,,,,,,,,,,,,,,,,,,,,,,,,,,,,,,,,,,,,,,,,,,,,,,,,,,,,,,,,,,,,,,,,,,,,,,,,,,,,,,,,,,,,,,,,,,,,,,,,,,,,,,,,,,,,,,,,,,,,,,,,,,,,,,,,,,,,,,
0,9,9,80,1,,5fb0eec9fa92bc4ffa483efa,62bbfae1f6dc862c225f200b,2022-06-29_24h10.48.128,Colour_Asymmetry_Pilot,2022.1.3,Win32,60.19020104,62bbe60bf3d75ef465d3e404,,,,,,,,,,,,,,,,,,,,,,,,,,,,,,,,,,,,,,,,,,,,,,,,,,,,,,,,,,,,,,,,,,,,,,,,,,,,,,,,,,,,,,,,,,,,,,,,,,,,,,,,,,,,,,,,,,,,,,,,,,,,,,,,,,,,,,,,,,,,,,,,,,,,,,,,,,,,,,
0,10,10,40,1,,5fb0eec9fa92bc4ffa483efa,62bbfae1f6dc862c225f200b,2022-06-29_24h10.48.128,Colour_Asymmetry_Pilot,2022.1.3,Win32,60.19020104,62bbe60bf3d75ef465d3e404,,,,,,,,,,,,,,,,,,,,,,,,,,,,,,,,,,,,,,,,,,,,,,,,,,,,,,,,,,,,,,,,,,,,,,,,,,,,,,,,,,,,,,,,,,,,,,,,,,,,,,,,,,,,,,,,,,,,,,,,,,,,,,,,,,,,,,,,,,,,,,,,,,,,,,,,,,,,,,
0,11,11,89,1,,5fb0eec9fa92bc4ffa483efa,62bbfae1f6dc862c225f200b,2022-06-29_24h10.48.128,Colour_Asymmetry_Pilot,2022.1.3,Win32,60.19020104,62bbe60bf3d75ef465d3e404,,,,,,,,,,,,,,,,,,,,,,,,,,,,,,,,,,,,,,,,,,,,,,,,,,,,,,,,,,,,,,,,,,,,,,,,,,,,,,,,,,,,,,,,,,,,,,,,,,,,,,,,,,,,,,,,,,,,,,,,,,,,,,,,,,,,,,,,,,,,,,,,,,,,,,,,,,,,,,
0,12,12,10,1,,5fb0eec9fa92bc4ffa483efa,62bbfae1f6dc862c225f200b,2022-06-29_24h10.48.128,Colour_Asymmetry_Pilot,2022.1.3,Win32,60.19020104,62bbe60bf3d75ef465d3e404,,,,,,,,,,,,,,,,,,,,,,,,,,,,,,,,,,,,,,,,,,,,,,,,,,,,,,,,,,,,,,,,,,,,,,,,,,,,,,,,,,,,,,,,,,,,,,,,,,,,,,,,,,,,,,,,,,,,,,,,,,,,,,,,,,,,,,,,,,,,,,,,,,,,,,,,,,,,,,
0,13,13,50,1,,5fb0eec9fa92bc4ffa483efa,62bbfae1f6dc862c225f200b,2022-06-29_24h10.48.128,Colour_Asymmetry_Pilot,2022.1.3,Win32,60.19020104,62bbe60bf3d75ef465d3e404,,,,,,,,,,,,,,,,,,,,,,,,,,,,,,,,,,,,,,,,,,,,,,,,,,,,,,,,,,,,,,,,,,,,,,,,,,,,,,,,,,,,,,,,,,,,,,,,,,,,,,,,,,,,,,,,,,,,,,,,,,,,,,,,,,,,,,,,,,,,,,,,,,,,,,,,,,,,,,
0,14,14,56,1,,5fb0eec9fa92bc4ffa483efa,62bbfae1f6dc862c225f200b,2022-06-29_24h10.48.128,Colour_Asymmetry_Pilot,2022.1.3,Win32,60.19020104,62bbe60bf3d75ef465d3e404,,,,,,,,,,,,,,,,,,,,,,,,,,,,,,,,,,,,,,,,,,,,,,,,,,,,,,,,,,,,,,,,,,,,,,,,,,,,,,,,,,,,,,,,,,,,,,,,,,,,,,,,,,,,,,,,,,,,,,,,,,,,,,,,,,,,,,,,,,,,,,,,,,,,,,,,,,,,,,
0,15,15,61,1,,5fb0eec9fa92bc4ffa483efa,62bbfae1f6dc862c225f200b,2022-06-29_24h10.48.128,Colour_Asymmetry_Pilot,2022.1.3,Win32,60.19020104,62bbe60bf3d75ef465d3e404,,,,,,,,,,,,,,,,,,,,,,,,,,,,,,,,,,,,,,,,,,,,,,,,,,,,,,,,,,,,,,,,,,,,,,,,,,,,,,,,,,,,,,,,,,,,,,,,,,,,,,,,,,,,,,,,,,,,,,,,,,,,,,,,,,,,,,,,,,,,,,,,,,,,,,,,,,,,,,
0,16,16,55,1,,5fb0eec9fa92bc4ffa483efa,62bbfae1f6dc862c225f200b,2022-06-29_24h10.48.128,Colour_Asymmetry_Pilot,2022.1.3,Win32,60.19020104,62bbe60bf3d75ef465d3e404,,,,,,,,,,,,,,,,,,,,,,,,,,,,,,,,,,,,,,,,,,,,,,,,,,,,,,,,,,,,,,,,,,,,,,,,,,,,,,,,,,,,,,,,,,,,,,,,,,,,,,,,,,,,,,,,,,,,,,,,,,,,,,,,,,,,,,,,,,,,,,,,,,,,,,,,,,,,,,
0,17,17,22,1,,5fb0eec9fa92bc4ffa483efa,62bbfae1f6dc862c225f200b,2022-06-29_24h10.48.128,Colour_Asymmetry_Pilot,2022.1.3,Win32,60.19020104,62bbe60bf3d75ef465d3e404,,,,,,,,,,,,,,,,,,,,,,,,,,,,,,,,,,,,,,,,,,,,,,,,,,,,,,,,,,,,,,,,,,,,,,,,,,,,,,,,,,,,,,,,,,,,,,,,,,,,,,,,,,,,,,,,,,,,,,,,,,,,,,,,,,,,,,,,,,,,,,,,,,,,,,,,,,,,,,
0,18,18,7,1,,5fb0eec9fa92bc4ffa483efa,62bbfae1f6dc862c225f200b,2022-06-29_24h10.48.128,Colour_Asymmetry_Pilot,2022.1.3,Win32,60.19020104,62bbe60bf3d75ef465d3e404,,,,,,,,,,,,,,,,,,,,,,,,,,,,,,,,,,,,,,,,,,,,,,,,,,,,,,,,,,,,,,,,,,,,,,,,,,,,,,,,,,,,,,,,,,,,,,,,,,,,,,,,,,,,,,,,,,,,,,,,,,,,,,,,,,,,,,,,,,,,,,,,,,,,,,,,,,,,,,
0,19,19,92,1,,5fb0eec9fa92bc4ffa483efa,62bbfae1f6dc862c225f200b,2022-06-29_24h10.48.128,Colour_Asymmetry_Pilot,2022.1.3,Win32,60.19020104,62bbe60bf3d75ef465d3e404,,,,,,,,,,,,,,,,,,,,,,,,,,,,,,,,,,,,,,,,,,,,,,,,,,,,,,,,,,,,,,,,,,,,,,,,,,,,,,,,,,,,,,,,,,,,,,,,,,,,,,,,,,,,,,,,,,,,,,,,,,,,,,,,,,,,,,,,,,,,,,,,,,,,,,,,,,,,,,
0,20,20,65,1,,5fb0eec9fa92bc4ffa483efa,62bbfae1f6dc862c225f200b,2022-06-29_24h10.48.128,Colour_Asymmetry_Pilot,2022.1.3,Win32,60.19020104,62bbe60bf3d75ef465d3e404,,,,,,,,,,,,,,,,,,,,,,,,,,,,,,,,,,,,,,,,,,,,,,,,,,,,,,,,,,,,,,,,,,,,,,,,,,,,,,,,,,,,,,,,,,,,,,,,,,,,,,,,,,,,,,,,,,,,,,,,,,,,,,,,,,,,,,,,,,,,,,,,,,,,,,,,,,,,,,
0,21,21,90,1,,5fb0eec9fa92bc4ffa483efa,62bbfae1f6dc862c225f200b,2022-06-29_24h10.48.128,Colour_Asymmetry_Pilot,2022.1.3,Win32,60.19020104,62bbe60bf3d75ef465d3e404,,,,,,,,,,,,,,,,,,,,,,,,,,,,,,,,,,,,,,,,,,,,,,,,,,,,,,,,,,,,,,,,,,,,,,,,,,,,,,,,,,,,,,,,,,,,,,,,,,,,,,,,,,,,,,,,,,,,,,,,,,,,,,,,,,,,,,,,,,,,,,,,,,,,,,,,,,,,,,
0,22,22,0,1,,5fb0eec9fa92bc4ffa483efa,62bbfae1f6dc862c225f200b,2022-06-29_24h10.48.128,Colour_Asymmetry_Pilot,2022.1.3,Win32,60.19020104,62bbe60bf3d75ef465d3e404,,,,,,,,,,,,,,,,,,,,,,,,,,,,,,,,,,,,,,,,,,,,,,,,,,,,,,,,,,,,,,,,,,,,,,,,,,,,,,,,,,,,,,,,,,,,,,,,,,,,,,,,,,,,,,,,,,,,,,,,,,,,,,,,,,,,,,,,,,,,,,,,,,,,,,,,,,,,,,
0,23,23,38,1,,5fb0eec9fa92bc4ffa483efa,62bbfae1f6dc862c225f200b,2022-06-29_24h10.48.128,Colour_Asymmetry_Pilot,2022.1.3,Win32,60.19020104,62bbe60bf3d75ef465d3e404,,,,,,,,,,,,,,,,,,,,,,,,,,,,,,,,,,,,,,,,,,,,,,,,,,,,,,,,,,,,,,,,,,,,,,,,,,,,,,,,,,,,,,,,,,,,,,,,,,,,,,,,,,,,,,,,,,,,,,,,,,,,,,,,,,,,,,,,,,,,,,,,,,,,,,,,,,,,,,
0,24,24,18,1,,5fb0eec9fa92bc4ffa483efa,62bbfae1f6dc862c225f200b,2022-06-29_24h10.48.128,Colour_Asymmetry_Pilot,2022.1.3,Win32,60.19020104,62bbe60bf3d75ef465d3e404,,,,,,,,,,,,,,,,,,,,,,,,,,,,,,,,,,,,,,,,,,,,,,,,,,,,,,,,,,,,,,,,,,,,,,,,,,,,,,,,,,,,,,,,,,,,,,,,,,,,,,,,,,,,,,,,,,,,,,,,,,,,,,,,,,,,,,,,,,,,,,,,,,,,,,,,,,,,,,
0,25,25,15,1,,5fb0eec9fa92bc4ffa483efa,62bbfae1f6dc862c225f200b,2022-06-29_24h10.48.128,Colour_Asymmetry_Pilot,2022.1.3,Win32,60.19020104,62bbe60bf3d75ef465d3e404,,,,,,,,,,,,,,,,,,,,,,,,,,,,,,,,,,,,,,,,,,,,,,,,,,,,,,,,,,,,,,,,,,,,,,,,,,,,,,,,,,,,,,,,,,,,,,,,,,,,,,,,,,,,,,,,,,,,,,,,,,,,,,,,,,,,,,,,,,,,,,,,,,,,,,,,,,,,,,
0,26,26,76,1,,5fb0eec9fa92bc4ffa483efa,62bbfae1f6dc862c225f200b,2022-06-29_24h10.48.128,Colour_Asymmetry_Pilot,2022.1.3,Win32,60.19020104,62bbe60bf3d75ef465d3e404,,,,,,,,,,,,,,,,,,,,,,,,,,,,,,,,,,,,,,,,,,,,,,,,,,,,,,,,,,,,,,,,,,,,,,,,,,,,,,,,,,,,,,,,,,,,,,,,,,,,,,,,,,,,,,,,,,,,,,,,,,,,,,,,,,,,,,,,,,,,,,,,,,,,,,,,,,,,,,
0,27,27,41,1,,5fb0eec9fa92bc4ffa483efa,62bbfae1f6dc862c225f200b,2022-06-29_24h10.48.128,Colour_Asymmetry_Pilot,2022.1.3,Win32,60.19020104,62bbe60bf3d75ef465d3e404,,,,,,,,,,,,,,,,,,,,,,,,,,,,,,,,,,,,,,,,,,,,,,,,,,,,,,,,,,,,,,,,,,,,,,,,,,,,,,,,,,,,,,,,,,,,,,,,,,,,,,,,,,,,,,,,,,,,,,,,,,,,,,,,,,,,,,,,,,,,,,,,,,,,,,,,,,,,,,
0,28,28,34,1,,5fb0eec9fa92bc4ffa483efa,62bbfae1f6dc862c225f200b,2022-06-29_24h10.48.128,Colour_Asymmetry_Pilot,2022.1.3,Win32,60.19020104,62bbe60bf3d75ef465d3e404,,,,,,,,,,,,,,,,,,,,,,,,,,,,,,,,,,,,,,,,,,,,,,,,,,,,,,,,,,,,,,,,,,,,,,,,,,,,,,,,,,,,,,,,,,,,,,,,,,,,,,,,,,,,,,,,,,,,,,,,,,,,,,,,,,,,,,,,,,,,,,,,,,,,,,,,,,,,,,
0,29,29,59,1,,5fb0eec9fa92bc4ffa483efa,62bbfae1f6dc862c225f200b,2022-06-29_24h10.48.128,Colour_Asymmetry_Pilot,2022.1.3,Win32,60.19020104,62bbe60bf3d75ef465d3e404,,,,,,,,,,,,,,,,,,,,,,,,,,,,,,,,,,,,,,,,,,,,,,,,,,,,,,,,,,,,,,,,,,,,,,,,,,,,,,,,,,,,,,,,,,,,,,,,,,,,,,,,,,,,,,,,,,,,,,,,,,,,,,,,,,,,,,,,,,,,,,,,,,,,,,,,,,,,,,
0,30,30,60,1,,5fb0eec9fa92bc4ffa483efa,62bbfae1f6dc862c225f200b,2022-06-29_24h10.48.128,Colour_Asymmetry_Pilot,2022.1.3,Win32,60.19020104,62bbe60bf3d75ef465d3e404,,,,,,,,,,,,,,,,,,,,,,,,,,,,,,,,,,,,,,,,,,,,,,,,,,,,,,,,,,,,,,,,,,,,,,,,,,,,,,,,,,,,,,,,,,,,,,,,,,,,,,,,,,,,,,,,,,,,,,,,,,,,,,,,,,,,,,,,,,,,,,,,,,,,,,,,,,,,,,
0,31,31,33,1,,5fb0eec9fa92bc4ffa483efa,62bbfae1f6dc862c225f200b,2022-06-29_24h10.48.128,Colour_Asymmetry_Pilot,2022.1.3,Win32,60.19020104,62bbe60bf3d75ef465d3e404,,,,,,,,,,,,,,,,,,,,,,,,,,,,,,,,,,,,,,,,,,,,,,,,,,,,,,,,,,,,,,,,,,,,,,,,,,,,,,,,,,,,,,,,,,,,,,,,,,,,,,,,,,,,,,,,,,,,,,,,,,,,,,,,,,,,,,,,,,,,,,,,,,,,,,,,,,,,,,
0,32,32,1,1,,5fb0eec9fa92bc4ffa483efa,62bbfae1f6dc862c225f200b,2022-06-29_24h10.48.128,Colour_Asymmetry_Pilot,2022.1.3,Win32,60.19020104,62bbe60bf3d75ef465d3e404,,,,,,,,,,,,,,,,,,,,,,,,,,,,,,,,,,,,,,,,,,,,,,,,,,,,,,,,,,,,,,,,,,,,,,,,,,,,,,,,,,,,,,,,,,,,,,,,,,,,,,,,,,,,,,,,,,,,,,,,,,,,,,,,,,,,,,,,,,,,,,,,,,,,,,,,,,,,,,
0,33,33,23,1,,5fb0eec9fa92bc4ffa483efa,62bbfae1f6dc862c225f200b,2022-06-29_24h10.48.128,Colour_Asymmetry_Pilot,2022.1.3,Win32,60.19020104,62bbe60bf3d75ef465d3e404,,,,,,,,,,,,,,,,,,,,,,,,,,,,,,,,,,,,,,,,,,,,,,,,,,,,,,,,,,,,,,,,,,,,,,,,,,,,,,,,,,,,,,,,,,,,,,,,,,,,,,,,,,,,,,,,,,,,,,,,,,,,,,,,,,,,,,,,,,,,,,,,,,,,,,,,,,,,,,
0,34,34,9,1,,5fb0eec9fa92bc4ffa483efa,62bbfae1f6dc862c225f200b,2022-06-29_24h10.48.128,Colour_Asymmetry_Pilot,2022.1.3,Win32,60.19020104,62bbe60bf3d75ef465d3e404,,,,,,,,,,,,,,,,,,,,,,,,,,,,,,,,,,,,,,,,,,,,,,,,,,,,,,,,,,,,,,,,,,,,,,,,,,,,,,,,,,,,,,,,,,,,,,,,,,,,,,,,,,,,,,,,,,,,,,,,,,,,,,,,,,,,,,,,,,,,,,,,,,,,,,,,,,,,,,
0,35,35,53,1,,5fb0eec9fa92bc4ffa483efa,62bbfae1f6dc862c225f200b,2022-06-29_24h10.48.128,Colour_Asymmetry_Pilot,2022.1.3,Win32,60.19020104,62bbe60bf3d75ef465d3e404,,,,,,,,,,,,,,,,,,,,,,,,,,,,,,,,,,,,,,,,,,,,,,,,,,,,,,,,,,,,,,,,,,,,,,,,,,,,,,,,,,,,,,,,,,,,,,,,,,,,,,,,,,,,,,,,,,,,,,,,,,,,,,,,,,,,,,,,,,,,,,,,,,,,,,,,,,,,,,
0,36,36,71,1,,5fb0eec9fa92bc4ffa483efa,62bbfae1f6dc862c225f200b,2022-06-29_24h10.48.128,Colour_Asymmetry_Pilot,2022.1.3,Win32,60.19020104,62bbe60bf3d75ef465d3e404,,,,,,,,,,,,,,,,,,,,,,,,,,,,,,,,,,,,,,,,,,,,,,,,,,,,,,,,,,,,,,,,,,,,,,,,,,,,,,,,,,,,,,,,,,,,,,,,,,,,,,,,,,,,,,,,,,,,,,,,,,,,,,,,,,,,,,,,,,,,,,,,,,,,,,,,,,,,,,
0,37,37,66,1,,5fb0eec9fa92bc4ffa483efa,62bbfae1f6dc862c225f200b,2022-06-29_24h10.48.128,Colour_Asymmetry_Pilot,2022.1.3,Win32,60.19020104,62bbe60bf3d75ef465d3e404,,,,,,,,,,,,,,,,,,,,,,,,,,,,,,,,,,,,,,,,,,,,,,,,,,,,,,,,,,,,,,,,,,,,,,,,,,,,,,,,,,,,,,,,,,,,,,,,,,,,,,,,,,,,,,,,,,,,,,,,,,,,,,,,,,,,,,,,,,,,,,,,,,,,,,,,,,,,,,
0,38,38,75,1,,5fb0eec9fa92bc4ffa483efa,62bbfae1f6dc862c225f200b,2022-06-29_24h10.48.128,Colour_Asymmetry_Pilot,2022.1.3,Win32,60.19020104,62bbe60bf3d75ef465d3e404,,,,,,,,,,,,,,,,,,,,,,,,,,,,,,,,,,,,,,,,,,,,,,,,,,,,,,,,,,,,,,,,,,,,,,,,,,,,,,,,,,,,,,,,,,,,,,,,,,,,,,,,,,,,,,,,,,,,,,,,,,,,,,,,,,,,,,,,,,,,,,,,,,,,,,,,,,,,,,
0,39,39,2,1,,5fb0eec9fa92bc4ffa483efa,62bbfae1f6dc862c225f200b,2022-06-29_24h10.48.128,Colour_Asymmetry_Pilot,2022.1.3,Win32,60.19020104,62bbe60bf3d75ef465d3e404,,,,,,,,,,,,,,,,,,,,,,,,,,,,,,,,,,,,,,,,,,,,,,,,,,,,,,,,,,,,,,,,,,,,,,,,,,,,,,,,,,,,,,,,,,,,,,,,,,,,,,,,,,,,,,,,,,,,,,,,,,,,,,,,,,,,,,,,,,,,,,,,,,,,,,,,,,,,,,
0,40,40,62,1,,5fb0eec9fa92bc4ffa483efa,62bbfae1f6dc862c225f200b,2022-06-29_24h10.48.128,Colour_Asymmetry_Pilot,2022.1.3,Win32,60.19020104,62bbe60bf3d75ef465d3e404,,,,,,,,,,,,,,,,,,,,,,,,,,,,,,,,,,,,,,,,,,,,,,,,,,,,,,,,,,,,,,,,,,,,,,,,,,,,,,,,,,,,,,,,,,,,,,,,,,,,,,,,,,,,,,,,,,,,,,,,,,,,,,,,,,,,,,,,,,,,,,,,,,,,,,,,,,,,,,
0,41,41,19,1,,5fb0eec9fa92bc4ffa483efa,62bbfae1f6dc862c225f200b,2022-06-29_24h10.48.128,Colour_Asymmetry_Pilot,2022.1.3,Win32,60.19020104,62bbe60bf3d75ef465d3e404,,,,,,,,,,,,,,,,,,,,,,,,,,,,,,,,,,,,,,,,,,,,,,,,,,,,,,,,,,,,,,,,,,,,,,,,,,,,,,,,,,,,,,,,,,,,,,,,,,,,,,,,,,,,,,,,,,,,,,,,,,,,,,,,,,,,,,,,,,,,,,,,,,,,,,,,,,,,,,
0,42,42,63,1,,5fb0eec9fa92bc4ffa483efa,62bbfae1f6dc862c225f200b,2022-06-29_24h10.48.128,Colour_Asymmetry_Pilot,2022.1.3,Win32,60.19020104,62bbe60bf3d75ef465d3e404,,,,,,,,,,,,,,,,,,,,,,,,,,,,,,,,,,,,,,,,,,,,,,,,,,,,,,,,,,,,,,,,,,,,,,,,,,,,,,,,,,,,,,,,,,,,,,,,,,,,,,,,,,,,,,,,,,,,,,,,,,,,,,,,,,,,,,,,,,,,,,,,,,,,,,,,,,,,,,
0,43,43,82,1,,5fb0eec9fa92bc4ffa483efa,62bbfae1f6dc862c225f200b,2022-06-29_24h10.48.128,Colour_Asymmetry_Pilot,2022.1.3,Win32,60.19020104,62bbe60bf3d75ef465d3e404,,,,,,,,,,,,,,,,,,,,,,,,,,,,,,,,,,,,,,,,,,,,,,,,,,,,,,,,,,,,,,,,,,,,,,,,,,,,,,,,,,,,,,,,,,,,,,,,,,,,,,,,,,,,,,,,,,,,,,,,,,,,,,,,,,,,,,,,,,,,,,,,,,,,,,,,,,,,,,
0,44,44,74,1,,5fb0eec9fa92bc4ffa483efa,62bbfae1f6dc862c225f200b,2022-06-29_24h10.48.128,Colour_Asymmetry_Pilot,2022.1.3,Win32,60.19020104,62bbe60bf3d75ef465d3e404,,,,,,,,,,,,,,,,,,,,,,,,,,,,,,,,,,,,,,,,,,,,,,,,,,,,,,,,,,,,,,,,,,,,,,,,,,,,,,,,,,,,,,,,,,,,,,,,,,,,,,,,,,,,,,,,,,,,,,,,,,,,,,,,,,,,,,,,,,,,,,,,,,,,,,,,,,,,,,
0,45,45,79,1,,5fb0eec9fa92bc4ffa483efa,62bbfae1f6dc862c225f200b,2022-06-29_24h10.48.128,Colour_Asymmetry_Pilot,2022.1.3,Win32,60.19020104,62bbe60bf3d75ef465d3e404,,,,,,,,,,,,,,,,,,,,,,,,,,,,,,,,,,,,,,,,,,,,,,,,,,,,,,,,,,,,,,,,,,,,,,,,,,,,,,,,,,,,,,,,,,,,,,,,,,,,,,,,,,,,,,,,,,,,,,,,,,,,,,,,,,,,,,,,,,,,,,,,,,,,,,,,,,,,,,
0,46,46,83,1,,5fb0eec9fa92bc4ffa483efa,62bbfae1f6dc862c225f200b,2022-06-29_24h10.48.128,Colour_Asymmetry_Pilot,2022.1.3,Win32,60.19020104,62bbe60bf3d75ef465d3e404,,,,,,,,,,,,,,,,,,,,,,,,,,,,,,,,,,,,,,,,,,,,,,,,,,,,,,,,,,,,,,,,,,,,,,,,,,,,,,,,,,,,,,,,,,,,,,,,,,,,,,,,,,,,,,,,,,,,,,,,,,,,,,,,,,,,,,,,,,,,,,,,,,,,,,,,,,,,,,
0,47,47,24,1,,5fb0eec9fa92bc4ffa483efa,62bbfae1f6dc862c225f200b,2022-06-29_24h10.48.128,Colour_Asymmetry_Pilot,2022.1.3,Win32,60.19020104,62bbe60bf3d75ef465d3e404,,,,,,,,,,,,,,,,,,,,,,,,,,,,,,,,,,,,,,,,,,,,,,,,,,,,,,,,,,,,,,,,,,,,,,,,,,,,,,,,,,,,,,,,,,,,,,,,,,,,,,,,,,,,,,,,,,,,,,,,,,,,,,,,,,,,,,,,,,,,,,,,,,,,,,,,,,,,,,
0,48,48,6,1,,5fb0eec9fa92bc4ffa483efa,62bbfae1f6dc862c225f200b,2022-06-29_24h10.48.128,Colour_Asymmetry_Pilot,2022.1.3,Win32,60.19020104,62bbe60bf3d75ef465d3e404,,,,,,,,,,,,,,,,,,,,,,,,,,,,,,,,,,,,,,,,,,,,,,,,,,,,,,,,,,,,,,,,,,,,,,,,,,,,,,,,,,,,,,,,,,,,,,,,,,,,,,,,,,,,,,,,,,,,,,,,,,,,,,,,,,,,,,,,,,,,,,,,,,,,,,,,,,,,,,
0,49,49,48,1,,5fb0eec9fa92bc4ffa483efa,62bbfae1f6dc862c225f200b,2022-06-29_24h10.48.128,Colour_Asymmetry_Pilot,2022.1.3,Win32,60.19020104,62bbe60bf3d75ef465d3e404,,,,,,,,,,,,,,,,,,,,,,,,,,,,,,,,,,,,,,,,,,,,,,,,,,,,,,,,,,,,,,,,,,,,,,,,,,,,,,,,,,,,,,,,,,,,,,,,,,,,,,,,,,,,,,,,,,,,,,,,,,,,,,,,,,,,,,,,,,,,,,,,,,,,,,,,,,,,,,
0,50,50,44,1,,5fb0eec9fa92bc4ffa483efa,62bbfae1f6dc862c225f200b,2022-06-29_24h10.48.128,Colour_Asymmetry_Pilot,2022.1.3,Win32,60.19020104,62bbe60bf3d75ef465d3e404,,,,,,,,,,,,,,,,,,,,,,,,,,,,,,,,,,,,,,,,,,,,,,,,,,,,,,,,,,,,,,,,,,,,,,,,,,,,,,,,,,,,,,,,,,,,,,,,,,,,,,,,,,,,,,,,,,,,,,,,,,,,,,,,,,,,,,,,,,,,,,,,,,,,,,,,,,,,,,
0,51,51,77,1,,5fb0eec9fa92bc4ffa483efa,62bbfae1f6dc862c225f200b,2022-06-29_24h10.48.128,Colour_Asymmetry_Pilot,2022.1.3,Win32,60.19020104,62bbe60bf3d75ef465d3e404,,,,,,,,,,,,,,,,,,,,,,,,,,,,,,,,,,,,,,,,,,,,,,,,,,,,,,,,,,,,,,,,,,,,,,,,,,,,,,,,,,,,,,,,,,,,,,,,,,,,,,,,,,,,,,,,,,,,,,,,,,,,,,,,,,,,,,,,,,,,,,,,,,,,,,,,,,,,,,
0,52,52,84,1,,5fb0eec9fa92bc4ffa483efa,62bbfae1f6dc862c225f200b,2022-06-29_24h10.48.128,Colour_Asymmetry_Pilot,2022.1.3,Win32,60.19020104,62bbe60bf3d75ef465d3e404,,,,,,,,,,,,,,,,,,,,,,,,,,,,,,,,,,,,,,,,,,,,,,,,,,,,,,,,,,,,,,,,,,,,,,,,,,,,,,,,,,,,,,,,,,,,,,,,,,,,,,,,,,,,,,,,,,,,,,,,,,,,,,,,,,,,,,,,,,,,,,,,,,,,,,,,,,,,,,
0,53,53,68,1,,5fb0eec9fa92bc4ffa483efa,62bbfae1f6dc862c225f200b,2022-06-29_24h10.48.128,Colour_Asymmetry_Pilot,2022.1.3,Win32,60.19020104,62bbe60bf3d75ef465d3e404,,,,,,,,,,,,,,,,,,,,,,,,,,,,,,,,,,,,,,,,,,,,,,,,,,,,,,,,,,,,,,,,,,,,,,,,,,,,,,,,,,,,,,,,,,,,,,,,,,,,,,,,,,,,,,,,,,,,,,,,,,,,,,,,,,,,,,,,,,,,,,,,,,,,,,,,,,,,,,
0,54,54,13,1,,5fb0eec9fa92bc4ffa483efa,62bbfae1f6dc862c225f200b,2022-06-29_24h10.48.128,Colour_Asymmetry_Pilot,2022.1.3,Win32,60.19020104,62bbe60bf3d75ef465d3e404,,,,,,,,,,,,,,,,,,,,,,,,,,,,,,,,,,,,,,,,,,,,,,,,,,,,,,,,,,,,,,,,,,,,,,,,,,,,,,,,,,,,,,,,,,,,,,,,,,,,,,,,,,,,,,,,,,,,,,,,,,,,,,,,,,,,,,,,,,,,,,,,,,,,,,,,,,,,,,
0,55,55,81,1,,5fb0eec9fa92bc4ffa483efa,62bbfae1f6dc862c225f200b,2022-06-29_24h10.48.128,Colour_Asymmetry_Pilot,2022.1.3,Win32,60.19020104,62bbe60bf3d75ef465d3e404,,,,,,,,,,,,,,,,,,,,,,,,,,,,,,,,,,,,,,,,,,,,,,,,,,,,,,,,,,,,,,,,,,,,,,,,,,,,,,,,,,,,,,,,,,,,,,,,,,,,,,,,,,,,,,,,,,,,,,,,,,,,,,,,,,,,,,,,,,,,,,,,,,,,,,,,,,,,,,
0,56,56,31,1,,5fb0eec9fa92bc4ffa483efa,62bbfae1f6dc862c225f200b,2022-06-29_24h10.48.128,Colour_Asymmetry_Pilot,2022.1.3,Win32,60.19020104,62bbe60bf3d75ef465d3e404,,,,,,,,,,,,,,,,,,,,,,,,,,,,,,,,,,,,,,,,,,,,,,,,,,,,,,,,,,,,,,,,,,,,,,,,,,,,,,,,,,,,,,,,,,,,,,,,,,,,,,,,,,,,,,,,,,,,,,,,,,,,,,,,,,,,,,,,,,,,,,,,,,,,,,,,,,,,,,
0,57,57,36,1,,5fb0eec9fa92bc4ffa483efa,62bbfae1f6dc862c225f200b,2022-06-29_24h10.48.128,Colour_Asymmetry_Pilot,2022.1.3,Win32,60.19020104,62bbe60bf3d75ef465d3e404,,,,,,,,,,,,,,,,,,,,,,,,,,,,,,,,,,,,,,,,,,,,,,,,,,,,,,,,,,,,,,,,,,,,,,,,,,,,,,,,,,,,,,,,,,,,,,,,,,,,,,,,,,,,,,,,,,,,,,,,,,,,,,,,,,,,,,,,,,,,,,,,,,,,,,,,,,,,,,
0,58,58,14,1,,5fb0eec9fa92bc4ffa483efa,62bbfae1f6dc862c225f200b,2022-06-29_24h10.48.128,Colour_Asymmetry_Pilot,2022.1.3,Win32,60.19020104,62bbe60bf3d75ef465d3e404,,,,,,,,,,,,,,,,,,,,,,,,,,,,,,,,,,,,,,,,,,,,,,,,,,,,,,,,,,,,,,,,,,,,,,,,,,,,,,,,,,,,,,,,,,,,,,,,,,,,,,,,,,,,,,,,,,,,,,,,,,,,,,,,,,,,,,,,,,,,,,,,,,,,,,,,,,,,,,
0,59,59,57,1,,5fb0eec9fa92bc4ffa483efa,62bbfae1f6dc862c225f200b,2022-06-29_24h10.48.128,Colour_Asymmetry_Pilot,2022.1.3,Win32,60.19020104,62bbe60bf3d75ef465d3e404,,,,,,,,,,,,,,,,,,,,,,,,,,,,,,,,,,,,,,,,,,,,,,,,,,,,,,,,,,,,,,,,,,,,,,,,,,,,,,,,,,,,,,,,,,,,,,,,,,,,,,,,,,,,,,,,,,,,,,,,,,,,,,,,,,,,,,,,,,,,,,,,,,,,,,,,,,,,,,
0,60,60,52,1,,5fb0eec9fa92bc4ffa483efa,62bbfae1f6dc862c225f200b,2022-06-29_24h10.48.128,Colour_Asymmetry_Pilot,2022.1.3,Win32,60.19020104,62bbe60bf3d75ef465d3e404,,,,,,,,,,,,,,,,,,,,,,,,,,,,,,,,,,,,,,,,,,,,,,,,,,,,,,,,,,,,,,,,,,,,,,,,,,,,,,,,,,,,,,,,,,,,,,,,,,,,,,,,,,,,,,,,,,,,,,,,,,,,,,,,,,,,,,,,,,,,,,,,,,,,,,,,,,,,,,
0,61,61,25,1,,5fb0eec9fa92bc4ffa483efa,62bbfae1f6dc862c225f200b,2022-06-29_24h10.48.128,Colour_Asymmetry_Pilot,2022.1.3,Win32,60.19020104,62bbe60bf3d75ef465d3e404,,,,,,,,,,,,,,,,,,,,,,,,,,,,,,,,,,,,,,,,,,,,,,,,,,,,,,,,,,,,,,,,,,,,,,,,,,,,,,,,,,,,,,,,,,,,,,,,,,,,,,,,,,,,,,,,,,,,,,,,,,,,,,,,,,,,,,,,,,,,,,,,,,,,,,,,,,,,,,
0,62,62,39,1,,5fb0eec9fa92bc4ffa483efa,62bbfae1f6dc862c225f200b,2022-06-29_24h10.48.128,Colour_Asymmetry_Pilot,2022.1.3,Win32,60.19020104,62bbe60bf3d75ef465d3e404,,,,,,,,,,,,,,,,,,,,,,,,,,,,,,,,,,,,,,,,,,,,,,,,,,,,,,,,,,,,,,,,,,,,,,,,,,,,,,,,,,,,,,,,,,,,,,,,,,,,,,,,,,,,,,,,,,,,,,,,,,,,,,,,,,,,,,,,,,,,,,,,,,,,,,,,,,,,,,
0,63,63,87,1,,5fb0eec9fa92bc4ffa483efa,62bbfae1f6dc862c225f200b,2022-06-29_24h10.48.128,Colour_Asymmetry_Pilot,2022.1.3,Win32,60.19020104,62bbe60bf3d75ef465d3e404,,,,,,,,,,,,,,,,,,,,,,,,,,,,,,,,,,,,,,,,,,,,,,,,,,,,,,,,,,,,,,,,,,,,,,,,,,,,,,,,,,,,,,,,,,,,,,,,,,,,,,,,,,,,,,,,,,,,,,,,,,,,,,,,,,,,,,,,,,,,,,,,,,,,,,,,,,,,,,
0,64,64,45,1,,5fb0eec9fa92bc4ffa483efa,62bbfae1f6dc862c225f200b,2022-06-29_24h10.48.128,Colour_Asymmetry_Pilot,2022.1.3,Win32,60.19020104,62bbe60bf3d75ef465d3e404,,,,,,,,,,,,,,,,,,,,,,,,,,,,,,,,,,,,,,,,,,,,,,,,,,,,,,,,,,,,,,,,,,,,,,,,,,,,,,,,,,,,,,,,,,,,,,,,,,,,,,,,,,,,,,,,,,,,,,,,,,,,,,,,,,,,,,,,,,,,,,,,,,,,,,,,,,,,,,
0,65,65,11,1,,5fb0eec9fa92bc4ffa483efa,62bbfae1f6dc862c225f200b,2022-06-29_24h10.48.128,Colour_Asymmetry_Pilot,2022.1.3,Win32,60.19020104,62bbe60bf3d75ef465d3e404,,,,,,,,,,,,,,,,,,,,,,,,,,,,,,,,,,,,,,,,,,,,,,,,,,,,,,,,,,,,,,,,,,,,,,,,,,,,,,,,,,,,,,,,,,,,,,,,,,,,,,,,,,,,,,,,,,,,,,,,,,,,,,,,,,,,,,,,,,,,,,,,,,,,,,,,,,,,,,
0,66,66,8,1,,5fb0eec9fa92bc4ffa483efa,62bbfae1f6dc862c225f200b,2022-06-29_24h10.48.128,Colour_Asymmetry_Pilot,2022.1.3,Win32,60.19020104,62bbe60bf3d75ef465d3e404,,,,,,,,,,,,,,,,,,,,,,,,,,,,,,,,,,,,,,,,,,,,,,,,,,,,,,,,,,,,,,,,,,,,,,,,,,,,,,,,,,,,,,,,,,,,,,,,,,,,,,,,,,,,,,,,,,,,,,,,,,,,,,,,,,,,,,,,,,,,,,,,,,,,,,,,,,,,,,
0,67,67,58,1,,5fb0eec9fa92bc4ffa483efa,62bbfae1f6dc862c225f200b,2022-06-29_24h10.48.128,Colour_Asymmetry_Pilot,2022.1.3,Win32,60.19020104,62bbe60bf3d75ef465d3e404,,,,,,,,,,,,,,,,,,,,,,,,,,,,,,,,,,,,,,,,,,,,,,,,,,,,,,,,,,,,,,,,,,,,,,,,,,,,,,,,,,,,,,,,,,,,,,,,,,,,,,,,,,,,,,,,,,,,,,,,,,,,,,,,,,,,,,,,,,,,,,,,,,,,,,,,,,,,,,
0,68,68,78,1,,5fb0eec9fa92bc4ffa483efa,62bbfae1f6dc862c225f200b,2022-06-29_24h10.48.128,Colour_Asymmetry_Pilot,2022.1.3,Win32,60.19020104,62bbe60bf3d75ef465d3e404,,,,,,,,,,,,,,,,,,,,,,,,,,,,,,,,,,,,,,,,,,,,,,,,,,,,,,,,,,,,,,,,,,,,,,,,,,,,,,,,,,,,,,,,,,,,,,,,,,,,,,,,,,,,,,,,,,,,,,,,,,,,,,,,,,,,,,,,,,,,,,,,,,,,,,,,,,,,,,
0,69,69,20,1,,5fb0eec9fa92bc4ffa483efa,62bbfae1f6dc862c225f200b,2022-06-29_24h10.48.128,Colour_Asymmetry_Pilot,2022.1.3,Win32,60.19020104,62bbe60bf3d75ef465d3e404,,,,,,,,,,,,,,,,,,,,,,,,,,,,,,,,,,,,,,,,,,,,,,,,,,,,,,,,,,,,,,,,,,,,,,,,,,,,,,,,,,,,,,,,,,,,,,,,,,,,,,,,,,,,,,,,,,,,,,,,,,,,,,,,,,,,,,,,,,,,,,,,,,,,,,,,,,,,,,
0,70,70,88,1,,5fb0eec9fa92bc4ffa483efa,62bbfae1f6dc862c225f200b,2022-06-29_24h10.48.128,Colour_Asymmetry_Pilot,2022.1.3,Win32,60.19020104,62bbe60bf3d75ef465d3e404,,,,,,,,,,,,,,,,,,,,,,,,,,,,,,,,,,,,,,,,,,,,,,,,,,,,,,,,,,,,,,,,,,,,,,,,,,,,,,,,,,,,,,,,,,,,,,,,,,,,,,,,,,,,,,,,,,,,,,,,,,,,,,,,,,,,,,,,,,,,,,,,,,,,,,,,,,,,,,
0,71,71,54,1,,5fb0eec9fa92bc4ffa483efa,62bbfae1f6dc862c225f200b,2022-06-29_24h10.48.128,Colour_Asymmetry_Pilot,2022.1.3,Win32,60.19020104,62bbe60bf3d75ef465d3e404,,,,,,,,,,,,,,,,,,,,,,,,,,,,,,,,,,,,,,,,,,,,,,,,,,,,,,,,,,,,,,,,,,,,,,,,,,,,,,,,,,,,,,,,,,,,,,,,,,,,,,,,,,,,,,,,,,,,,,,,,,,,,,,,,,,,,,,,,,,,,,,,,,,,,,,,,,,,,,
0,72,72,5,1,,5fb0eec9fa92bc4ffa483efa,62bbfae1f6dc862c225f200b,2022-06-29_24h10.48.128,Colour_Asymmetry_Pilot,2022.1.3,Win32,60.19020104,62bbe60bf3d75ef465d3e404,,,,,,,,,,,,,,,,,,,,,,,,,,,,,,,,,,,,,,,,,,,,,,,,,,,,,,,,,,,,,,,,,,,,,,,,,,,,,,,,,,,,,,,,,,,,,,,,,,,,,,,,,,,,,,,,,,,,,,,,,,,,,,,,,,,,,,,,,,,,,,,,,,,,,,,,,,,,,,
0,73,73,91,1,,5fb0eec9fa92bc4ffa483efa,62bbfae1f6dc862c225f200b,2022-06-29_24h10.48.128,Colour_Asymmetry_Pilot,2022.1.3,Win32,60.19020104,62bbe60bf3d75ef465d3e404,,,,,,,,,,,,,,,,,,,,,,,,,,,,,,,,,,,,,,,,,,,,,,,,,,,,,,,,,,,,,,,,,,,,,,,,,,,,,,,,,,,,,,,,,,,,,,,,,,,,,,,,,,,,,,,,,,,,,,,,,,,,,,,,,,,,,,,,,,,,,,,,,,,,,,,,,,,,,,
0,74,74,47,1,,5fb0eec9fa92bc4ffa483efa,62bbfae1f6dc862c225f200b,2022-06-29_24h10.48.128,Colour_Asymmetry_Pilot,2022.1.3,Win32,60.19020104,62bbe60bf3d75ef465d3e404,,,,,,,,,,,,,,,,,,,,,,,,,,,,,,,,,,,,,,,,,,,,,,,,,,,,,,,,,,,,,,,,,,,,,,,,,,,,,,,,,,,,,,,,,,,,,,,,,,,,,,,,,,,,,,,,,,,,,,,,,,,,,,,,,,,,,,,,,,,,,,,,,,,,,,,,,,,,,,
0,75,75,85,1,,5fb0eec9fa92bc4ffa483efa,62bbfae1f6dc862c225f200b,2022-06-29_24h10.48.128,Colour_Asymmetry_Pilot,2022.1.3,Win32,60.19020104,62bbe60bf3d75ef465d3e404,,,,,,,,,,,,,,,,,,,,,,,,,,,,,,,,,,,,,,,,,,,,,,,,,,,,,,,,,,,,,,,,,,,,,,,,,,,,,,,,,,,,,,,,,,,,,,,,,,,,,,,,,,,,,,,,,,,,,,,,,,,,,,,,,,,,,,,,,,,,,,,,,,,,,,,,,,,,,,
0,76,76,12,1,,5fb0eec9fa92bc4ffa483efa,62bbfae1f6dc862c225f200b,2022-06-29_24h10.48.128,Colour_Asymmetry_Pilot,2022.1.3,Win32,60.19020104,62bbe60bf3d75ef465d3e404,,,,,,,,,,,,,,,,,,,,,,,,,,,,,,,,,,,,,,,,,,,,,,,,,,,,,,,,,,,,,,,,,,,,,,,,,,,,,,,,,,,,,,,,,,,,,,,,,,,,,,,,,,,,,,,,,,,,,,,,,,,,,,,,,,,,,,,,,,,,,,,,,,,,,,,,,,,,,,
0,77,77,21,1,,5fb0eec9fa92bc4ffa483efa,62bbfae1f6dc862c225f200b,2022-06-29_24h10.48.128,Colour_Asymmetry_Pilot,2022.1.3,Win32,60.19020104,62bbe60bf3d75ef465d3e404,,,,,,,,,,,,,,,,,,,,,,,,,,,,,,,,,,,,,,,,,,,,,,,,,,,,,,,,,,,,,,,,,,,,,,,,,,,,,,,,,,,,,,,,,,,,,,,,,,,,,,,,,,,,,,,,,,,,,,,,,,,,,,,,,,,,,,,,,,,,,,,,,,,,,,,,,,,,,,
0,78,78,67,1,,5fb0eec9fa92bc4ffa483efa,62bbfae1f6dc862c225f200b,2022-06-29_24h10.48.128,Colour_Asymmetry_Pilot,2022.1.3,Win32,60.19020104,62bbe60bf3d75ef465d3e404,,,,,,,,,,,,,,,,,,,,,,,,,,,,,,,,,,,,,,,,,,,,,,,,,,,,,,,,,,,,,,,,,,,,,,,,,,,,,,,,,,,,,,,,,,,,,,,,,,,,,,,,,,,,,,,,,,,,,,,,,,,,,,,,,,,,,,,,,,,,,,,,,,,,,,,,,,,,,,
0,79,79,86,1,,5fb0eec9fa92bc4ffa483efa,62bbfae1f6dc862c225f200b,2022-06-29_24h10.48.128,Colour_Asymmetry_Pilot,2022.1.3,Win32,60.19020104,62bbe60bf3d75ef465d3e404,,,,,,,,,,,,,,,,,,,,,,,,,,,,,,,,,,,,,,,,,,,,,,,,,,,,,,,,,,,,,,,,,,,,,,,,,,,,,,,,,,,,,,,,,,,,,,,,,,,,,,,,,,,,,,,,,,,,,,,,,,,,,,,,,,,,,,,,,,,,,,,,,,,,,,,,,,,,,,
0,80,80,29,1,,5fb0eec9fa92bc4ffa483efa,62bbfae1f6dc862c225f200b,2022-06-29_24h10.48.128,Colour_Asymmetry_Pilot,2022.1.3,Win32,60.19020104,62bbe60bf3d75ef465d3e404,,,,,,,,,,,,,,,,,,,,,,,,,,,,,,,,,,,,,,,,,,,,,,,,,,,,,,,,,,,,,,,,,,,,,,,,,,,,,,,,,,,,,,,,,,,,,,,,,,,,,,,,,,,,,,,,,,,,,,,,,,,,,,,,,,,,,,,,,,,,,,,,,,,,,,,,,,,,,,
0,81,81,27,1,,5fb0eec9fa92bc4ffa483efa,62bbfae1f6dc862c225f200b,2022-06-29_24h10.48.128,Colour_Asymmetry_Pilot,2022.1.3,Win32,60.19020104,62bbe60bf3d75ef465d3e404,,,,,,,,,,,,,,,,,,,,,,,,,,,,,,,,,,,,,,,,,,,,,,,,,,,,,,,,,,,,,,,,,,,,,,,,,,,,,,,,,,,,,,,,,,,,,,,,,,,,,,,,,,,,,,,,,,,,,,,,,,,,,,,,,,,,,,,,,,,,,,,,,,,,,,,,,,,,,,
0,82,82,70,1,,5fb0eec9fa92bc4ffa483efa,62bbfae1f6dc862c225f200b,2022-06-29_24h10.48.128,Colour_Asymmetry_Pilot,2022.1.3,Win32,60.19020104,62bbe60bf3d75ef465d3e404,,,,,,,,,,,,,,,,,,,,,,,,,,,,,,,,,,,,,,,,,,,,,,,,,,,,,,,,,,,,,,,,,,,,,,,,,,,,,,,,,,,,,,,,,,,,,,,,,,,,,,,,,,,,,,,,,,,,,,,,,,,,,,,,,,,,,,,,,,,,,,,,,,,,,,,,,,,,,,
0,83,83,4,1,,5fb0eec9fa92bc4ffa483efa,62bbfae1f6dc862c225f200b,2022-06-29_24h10.48.128,Colour_Asymmetry_Pilot,2022.1.3,Win32,60.19020104,62bbe60bf3d75ef465d3e404,,,,,,,,,,,,,,,,,,,,,,,,,,,,,,,,,,,,,,,,,,,,,,,,,,,,,,,,,,,,,,,,,,,,,,,,,,,,,,,,,,,,,,,,,,,,,,,,,,,,,,,,,,,,,,,,,,,,,,,,,,,,,,,,,,,,,,,,,,,,,,,,,,,,,,,,,,,,,,
0,84,84,16,1,,5fb0eec9fa92bc4ffa483efa,62bbfae1f6dc862c225f200b,2022-06-29_24h10.48.128,Colour_Asymmetry_Pilot,2022.1.3,Win32,60.19020104,62bbe60bf3d75ef465d3e404,,,,,,,,,,,,,,,,,,,,,,,,,,,,,,,,,,,,,,,,,,,,,,,,,,,,,,,,,,,,,,,,,,,,,,,,,,,,,,,,,,,,,,,,,,,,,,,,,,,,,,,,,,,,,,,,,,,,,,,,,,,,,,,,,,,,,,,,,,,,,,,,,,,,,,,,,,,,,,
0,85,85,30,1,,5fb0eec9fa92bc4ffa483efa,62bbfae1f6dc862c225f200b,2022-06-29_24h10.48.128,Colour_Asymmetry_Pilot,2022.1.3,Win32,60.19020104,62bbe60bf3d75ef465d3e404,,,,,,,,,,,,,,,,,,,,,,,,,,,,,,,,,,,,,,,,,,,,,,,,,,,,,,,,,,,,,,,,,,,,,,,,,,,,,,,,,,,,,,,,,,,,,,,,,,,,,,,,,,,,,,,,,,,,,,,,,,,,,,,,,,,,,,,,,,,,,,,,,,,,,,,,,,,,,,
0,86,86,73,1,,5fb0eec9fa92bc4ffa483efa,62bbfae1f6dc862c225f200b,2022-06-29_24h10.48.128,Colour_Asymmetry_Pilot,2022.1.3,Win32,60.19020104,62bbe60bf3d75ef465d3e404,,,,,,,,,,,,,,,,,,,,,,,,,,,,,,,,,,,,,,,,,,,,,,,,,,,,,,,,,,,,,,,,,,,,,,,,,,,,,,,,,,,,,,,,,,,,,,,,,,,,,,,,,,,,,,,,,,,,,,,,,,,,,,,,,,,,,,,,,,,,,,,,,,,,,,,,,,,,,,
0,87,87,37,1,,5fb0eec9fa92bc4ffa483efa,62bbfae1f6dc862c225f200b,2022-06-29_24h10.48.128,Colour_Asymmetry_Pilot,2022.1.3,Win32,60.19020104,62bbe60bf3d75ef465d3e404,,,,,,,,,,,,,,,,,,,,,,,,,,,,,,,,,,,,,,,,,,,,,,,,,,,,,,,,,,,,,,,,,,,,,,,,,,,,,,,,,,,,,,,,,,,,,,,,,,,,,,,,,,,,,,,,,,,,,,,,,,,,,,,,,,,,,,,,,,,,,,,,,,,,,,,,,,,,,,
0,88,88,35,1,,5fb0eec9fa92bc4ffa483efa,62bbfae1f6dc862c225f200b,2022-06-29_24h10.48.128,Colour_Asymmetry_Pilot,2022.1.3,Win32,60.19020104,62bbe60bf3d75ef465d3e404,,,,,,,,,,,,,,,,,,,,,,,,,,,,,,,,,,,,,,,,,,,,,,,,,,,,,,,,,,,,,,,,,,,,,,,,,,,,,,,,,,,,,,,,,,,,,,,,,,,,,,,,,,,,,,,,,,,,,,,,,,,,,,,,,,,,,,,,,,,,,,,,,,,,,,,,,,,,,,
0,89,89,32,1,,5fb0eec9fa92bc4ffa483efa,62bbfae1f6dc862c225f200b,2022-06-29_24h10.48.128,Colour_Asymmetry_Pilot,2022.1.3,Win32,60.19020104,62bbe60bf3d75ef465d3e404,,,,,,,,,,,,,,,,,,,,,,,,,,,,,,,,,,,,,,,,,,,,,,,,,,,,,,,,,,,,,,,,,,,,,,,,,,,,,,,,,,,,,,,,,,,,,,,,,,,,,,,,,,,,,,,,,,,,,,,,,,,,,,,,,,,,,,,,,,,,,,,,,,,,,,,,,,,,,,
0,90,90,3,1,,5fb0eec9fa92bc4ffa483efa,62bbfae1f6dc862c225f200b,2022-06-29_24h10.48.128,Colour_Asymmetry_Pilot,2022.1.3,Win32,60.19020104,62bbe60bf3d75ef465d3e404,,,,,,,,,,,,,,,,,,,,,,,,,,,,,,,,,,,,,,,,,,,,,,,,,,,,,,,,,,,,,,,,,,,,,,,,,,,,,,,,,,,,,,,,,,,,,,,,,,,,,,,,,,,,,,,,,,,,,,,,,,,,,,,,,,,,,,,,,,,,,,,,,,,,,,,,,,,,,,
0,91,91,49,1,,5fb0eec9fa92bc4ffa483efa,62bbfae1f6dc862c225f200b,2022-06-29_24h10.48.128,Colour_Asymmetry_Pilot,2022.1.3,Win32,60.19020104,62bbe60bf3d75ef465d3e404,,,,,,,,,,,,,,,,,,,,,,,,,,,,,,,,,,,,,,,,,,,,,,,,,,,,,,,,,,,,,,,,,,,,,,,,,,,,,,,,,,,,,,,,,,,,,,,,,,,,,,,,,,,,,,,,,,,,,,,,,,,,,,,,,,,,,,,,,,,,,,,,,,,,,,,,,,,,,,
0,92,92,64,1,,5fb0eec9fa92bc4ffa483efa,62bbfae1f6dc862c225f200b,2022-06-29_24h10.48.128,Colour_Asymmetry_Pilot,2022.1.3,Win32,60.19020104,62bbe60bf3d75ef465d3e404,,,,,,,,,,,,,,,,,,,,,,,,,,,,,,,,,,,,,,,,,,,,,,,,,,,,,,,,,,,,,,,,,,,,,,,,,,,,,,,,,,,,,,,,,,,,,,,,,,,,,,,,,,,,,,,,,,,,,,,,,,,,,,,,,,,,,,,,,,,,,,,,,,,,,,,,,,,,,,
,,,,,,5fb0eec9fa92bc4ffa483efa,62bbfae1f6dc862c225f200b,2022-06-29_24h10.48.128,Colour_Asymmetry_Pilot,2022.1.3,Win32,60.19020104,62bbe60bf3d75ef465d3e404,0,0,0,45,1,threefour,,,,,,,,,,,,,,,,,,,,,,,,,,,,,,,,,,,,,,,,,,,,,,,,,,,,,,,,,,,,,,,,,,,,,,,,,,,,,,,,,,,,,,,,,,,,,,,,,,,,,,,,,,,,,,,,,,,,,,,,,,,,,,,,,,,,,,,,,,,,,,,,,,,,,,,,
,,,,,,5fb0eec9fa92bc4ffa483efa,62bbfae1f6dc862c225f200b,2022-06-29_24h10.48.128,Colour_Asymmetry_Pilot,2022.1.3,Win32,60.19020104,62bbe60bf3d75ef465d3e404,0,1,1,137,1,onethree,,,,,,,,,,,,,,,,,,,,,,,,,,,,,,,,,,,,,,,,,,,,,,,,,,,,,,,,,,,,,,,,,,,,,,,,,,,,,,,,,,,,,,,,,,,,,,,,,,,,,,,,,,,,,,,,,,,,,,,,,,,,,,,,,,,,,,,,,,,,,,,,,,,,,,,,
,,,,,,5fb0eec9fa92bc4ffa483efa,62bbfae1f6dc862c225f200b,2022-06-29_24h10.48.128,Colour_Asymmetry_Pilot,2022.1.3,Win32,60.19020104,62bbe60bf3d75ef465d3e404,0,2,2,150,1,fourtwo,,,,,,,,,,,,,,,,,,,,,,,,,,,,,,,,,,,,,,,,,,,,,,,,,,,,,,,,,,,,,,,,,,,,,,,,,,,,,,,,,,,,,,,,,,,,,,,,,,,,,,,,,,,,,,,,,,,,,,,,,,,,,,,,,,,,,,,,,,,,,,,,,,,,,,,,
,,,,,,5fb0eec9fa92bc4ffa483efa,62bbfae1f6dc862c225f200b,2022-06-29_24h10.48.128,Colour_Asymmetry_Pilot,2022.1.3,Win32,60.19020104,62bbe60bf3d75ef465d3e404,0,3,3,21,1,threefour,,,,,,,,,,,,,,,,,,,,,,,,,,,,,,,,,,,,,,,,,,,,,,,,,,,,,,,,,,,,,,,,,,,,,,,,,,,,,,,,,,,,,,,,,,,,,,,,,,,,,,,,,,,,,,,,,,,,,,,,,,,,,,,,,,,,,,,,,,,,,,,,,,,,,,,,
,,,,,,5fb0eec9fa92bc4ffa483efa,62bbfae1f6dc862c225f200b,2022-06-29_24h10.48.128,Colour_Asymmetry_Pilot,2022.1.3,Win32,60.19020104,62bbe60bf3d75ef465d3e404,0,4,4,83,1,twofour,,,,,,,,,,,,,,,,,,,,,,,,,,,,,,,,,,,,,,,,,,,,,,,,,,,,,,,,,,,,,,,,,,,,,,,,,,,,,,,,,,,,,,,,,,,,,,,,,,,,,,,,,,,,,,,,,,,,,,,,,,,,,,,,,,,,,,,,,,,,,,,,,,,,,,,,
,,,,,,5fb0eec9fa92bc4ffa483efa,62bbfae1f6dc862c225f200b,2022-06-29_24h10.48.128,Colour_Asymmetry_Pilot,2022.1.3,Win32,60.19020104,62bbe60bf3d75ef465d3e404,0,5,5,34,1,twoone,,,,,,,,,,,,,,,,,,,,,,,,,,,,,,,,,,,,,,,,,,,,,,,,,,,,,,,,,,,,,,,,,,,,,,,,,,,,,,,,,,,,,,,,,,,,,,,,,,,,,,,,,,,,,,,,,,,,,,,,,,,,,,,,,,,,,,,,,,,,,,,,,,,,,,,,
,,,,,,5fb0eec9fa92bc4ffa483efa,62bbfae1f6dc862c225f200b,2022-06-29_24h10.48.128,Colour_Asymmetry_Pilot,2022.1.3,Win32,60.19020104,62bbe60bf3d75ef465d3e404,0,6,6,130,1,twoone,,,,,,,,,,,,,,,,,,,,,,,,,,,,,,,,,,,,,,,,,,,,,,,,,,,,,,,,,,,,,,,,,,,,,,,,,,,,,,,,,,,,,,,,,,,,,,,,,,,,,,,,,,,,,,,,,,,,,,,,,,,,,,,,,,,,,,,,,,,,,,,,,,,,,,,,
,,,,,,5fb0eec9fa92bc4ffa483efa,62bbfae1f6dc862c225f200b,2022-06-29_24h10.48.128,Colour_Asymmetry_Pilot,2022.1.3,Win32,60.19020104,62bbe60bf3d75ef465d3e404,0,7,7,124,1,threeone,,,,,,,,,,,,,,,,,,,,,,,,,,,,,,,,,,,,,,,,,,,,,,,,,,,,,,,,,,,,,,,,,,,,,,,,,,,,,,,,,,,,,,,,,,,,,,,,,,,,,,,,,,,,,,,,,,,,,,,,,,,,,,,,,,,,,,,,,,,,,,,,,,,,,,,,
,,,,,,5fb0eec9fa92bc4ffa483efa,62bbfae1f6dc862c225f200b,2022-06-29_24h10.48.128,Colour_Asymmetry_Pilot,2022.1.3,Win32,60.19020104,62bbe60bf3d75ef465d3e404,0,8,8,1,1,onethree,,,,,,,,,,,,,,,,,,,,,,,,,,,,,,,,,,,,,,,,,,,,,,,,,,,,,,,,,,,,,,,,,,,,,,,,,,,,,,,,,,,,,,,,,,,,,,,,,,,,,,,,,,,,,,,,,,,,,,,,,,,,,,,,,,,,,,,,,,,,,,,,,,,,,,,,
,,,,,,5fb0eec9fa92bc4ffa483efa,62bbfae1f6dc862c225f200b,2022-06-29_24h10.48.128,Colour_Asymmetry_Pilot,2022.1.3,Win32,60.19020104,62bbe60bf3d75ef465d3e404,0,9,9,61,1,threefour,,,,,,,,,,,,,,,,,,,,,,,,,,,,,,,,,,,,,,,,,,,,,,,,,,,,,,,,,,,,,,,,,,,,,,,,,,,,,,,,,,,,,,,,,,,,,,,,,,,,,,,,,,,,,,,,,,,,,,,,,,,,,,,,,,,,,,,,,,,,,,,,,,,,,,,,
,,,,,,5fb0eec9fa92bc4ffa483efa,62bbfae1f6dc862c225f200b,2022-06-29_24h10.48.128,Colour_Asymmetry_Pilot,2022.1.3,Win32,60.19020104,62bbe60bf3d75ef465d3e404,0,10,10,147,1,twofour,,,,,,,,,,,,,,,,,,,,,,,,,,,,,,,,,,,,,,,,,,,,,,,,,,,,,,,,,,,,,,,,,,,,,,,,,,,,,,,,,,,,,,,,,,,,,,,,,,,,,,,,,,,,,,,,,,,,,,,,,,,,,,,,,,,,,,,,,,,,,,,,,,,,,,,,
,,,,,,5fb0eec9fa92bc4ffa483efa,62bbfae1f6dc862c225f200b,2022-06-29_24h10.48.128,Colour_Asymmetry_Pilot,2022.1.3,Win32,60.19020104,62bbe60bf3d75ef465d3e404,0,11,11,107,1,twofour,,,,,,,,,,,,,,,,,,,,,,,,,,,,,,,,,,,,,,,,,,,,,,,,,,,,,,,,,,,,,,,,,,,,,,,,,,,,,,,,,,,,,,,,,,,,,,,,,,,,,,,,,,,,,,,,,,,,,,,,,,,,,,,,,,,,,,,,,,,,,,,,,,,,,,,,
,,,,,,5fb0eec9fa92bc4ffa483efa,62bbfae1f6dc862c225f200b,2022-06-29_24h10.48.128,Colour_Asymmetry_Pilot,2022.1.3,Win32,60.19020104,62bbe60bf3d75ef465d3e404,0,12,12,80,1,onetwo,,,,,,,,,,,,,,,,,,,,,,,,,,,,,,,,,,,,,,,,,,,,,,,,,,,,,,,,,,,,,,,,,,,,,,,,,,,,,,,,,,,,,,,,,,,,,,,,,,,,,,,,,,,,,,,,,,,,,,,,,,,,,,,,,,,,,,,,,,,,,,,,,,,,,,,,
,,,,,,5fb0eec9fa92bc4ffa483efa,62bbfae1f6dc862c225f200b,2022-06-29_24h10.48.128,Colour_Asymmetry_Pilot,2022.1.3,Win32,60.19020104,62bbe60bf3d75ef465d3e404,0,13,13,151,1,fourthree,,,,,,,,,,,,,,,,,,,,,,,,,,,,,,,,,,,,,,,,,,,,,,,,,,,,,,,,,,,,,,,,,,,,,,,,,,,,,,,,,,,,,,,,,,,,,,,,,,,,,,,,,,,,,,,,,,,,,,,,,,,,,,,,,,,,,,,,,,,,,,,,,,,,,,,,
,,,,,,5fb0eec9fa92bc4ffa483efa,62bbfae1f6dc862c225f200b,2022-06-29_24h10.48.128,Colour_Asymmetry_Pilot,2022.1.3,Win32,60.19020104,62bbe60bf3d75ef465d3e404,0,14,14,11,1,twofour,,,,,,,,,,,,,,,,,,,,,,,,,,,,,,,,,,,,,,,,,,,,,,,,,,,,,,,,,,,,,,,,,,,,,,,,,,,,,,,,,,,,,,,,,,,,,,,,,,,,,,,,,,,,,,,,,,,,,,,,,,,,,,,,,,,,,,,,,,,,,,,,,,,,,,,,
,,,,,,5fb0eec9fa92bc4ffa483efa,62bbfae1f6dc862c225f200b,2022-06-29_24h10.48.128,Colour_Asymmetry_Pilot,2022.1.3,Win32,60.19020104,62bbe60bf3d75ef465d3e404,0,15,15,56,1,onetwo,,,,,,,,,,,,,,,,,,,,,,,,,,,,,,,,,,,,,,,,,,,,,,,,,,,,,,,,,,,,,,,,,,,,,,,,,,,,,,,,,,,,,,,,,,,,,,,,,,,,,,,,,,,,,,,,,,,,,,,,,,,,,,,,,,,,,,,,,,,,,,,,,,,,,,,,
,,,,,,5fb0eec9fa92bc4ffa483efa,62bbfae1f6dc862c225f200b,2022-06-29_24h10.48.128,Colour_Asymmetry_Pilot,2022.1.3,Win32,60.19020104,62bbe60bf3d75ef465d3e404,0,16,16,111,1,fourthree,,,,,,,,,,,,,,,,,,,,,,,,,,,,,,,,,,,,,,,,,,,,,,,,,,,,,,,,,,,,,,,,,,,,,,,,,,,,,,,,,,,,,,,,,,,,,,,,,,,,,,,,,,,,,,,,,,,,,,,,,,,,,,,,,,,,,,,,,,,,,,,,,,,,,,,,
,,,,,,5fb0eec9fa92bc4ffa483efa,62bbfae1f6dc862c225f200b,2022-06-29_24h10.48.128,Colour_Asymmetry_Pilot,2022.1.3,Win32,60.19020104,62bbe60bf3d75ef465d3e404,0,17,17,23,1,fourthree,,,,,,,,,,,,,,,,,,,,,,,,,,,,,,,,,,,,,,,,,,,,,,,,,,,,,,,,,,,,,,,,,,,,,,,,,,,,,,,,,,,,,,,,,,,,,,,,,,,,,,,,,,,,,,,,,,,,,,,,,,,,,,,,,,,,,,,,,,,,,,,,,,,,,,,,
,,,,,,5fb0eec9fa92bc4ffa483efa,62bbfae1f6dc862c225f200b,2022-06-29_24h10.48.128,Colour_Asymmetry_Pilot,2022.1.3,Win32,60.19020104,62bbe60bf3d75ef465d3e404,0,18,18,13,1,threefour,,,,,,,,,,,,,,,,,,,,,,,,,,,,,,,,,,,,,,,,,,,,,,,,,,,,,,,,,,,,,,,,,,,,,,,,,,,,,,,,,,,,,,,,,,,,,,,,,,,,,,,,,,,,,,,,,,,,,,,,,,,,,,,,,,,,,,,,,,,,,,,,,,,,,,,,
,,,,,,5fb0eec9fa92bc4ffa483efa,62bbfae1f6dc862c225f200b,2022-06-29_24h10.48.128,Colour_Asymmetry_Pilot,2022.1.3,Win32,60.19020104,62bbe60bf3d75ef465d3e404,0,19,19,60,1,threeone,,,,,,,,,,,,,,,,,,,,,,,,,,,,,,,,,,,,,,,,,,,,,,,,,,,,,,,,,,,,,,,,,,,,,,,,,,,,,,,,,,,,,,,,,,,,,,,,,,,,,,,,,,,,,,,,,,,,,,,,,,,,,,,,,,,,,,,,,,,,,,,,,,,,,,,,
,,,,,,5fb0eec9fa92bc4ffa483efa,62bbfae1f6dc862c225f200b,2022-06-29_24h10.48.128,Colour_Asymmetry_Pilot,2022.1.3,Win32,60.19020104,62bbe60bf3d75ef465d3e404,0,20,20,99,1,twofour,,,,,,,,,,,,,,,,,,,,,,,,,,,,,,,,,,,,,,,,,,,,,,,,,,,,,,,,,,,,,,,,,,,,,,,,,,,,,,,,,,,,,,,,,,,,,,,,,,,,,,,,,,,,,,,,,,,,,,,,,,,,,,,,,,,,,,,,,,,,,,,,,,,,,,,,
,,,,,,5fb0eec9fa92bc4ffa483efa,62bbfae1f6dc862c225f200b,2022-06-29_24h10.48.128,Colour_Asymmetry_Pilot,2022.1.3,Win32,60.19020104,62bbe60bf3d75ef465d3e404,0,21,21,120,1,onetwo,,,,,,,,,,,,,,,,,,,,,,,,,,,,,,,,,,,,,,,,,,,,,,,,,,,,,,,,,,,,,,,,,,,,,,,,,,,,,,,,,,,,,,,,,,,,,,,,,,,,,,,,,,,,,,,,,,,,,,,,,,,,,,,,,,,,,,,,,,,,,,,,,,,,,,,,
,,,,,,5fb0eec9fa92bc4ffa483efa,62bbfae1f6dc862c225f200b,2022-06-29_24h10.48.128,Colour_Asymmetry_Pilot,2022.1.3,Win32,60.19020104,62bbe60bf3d75ef465d3e404,0,22,22,123,1,twofour,,,,,,,,,,,,,,,,,,,,,,,,,,,,,,,,,,,,,,,,,,,,,,,,,,,,,,,,,,,,,,,,,,,,,,,,,,,,,,,,,,,,,,,,,,,,,,,,,,,,,,,,,,,,,,,,,,,,,,,,,,,,,,,,,,,,,,,,,,,,,,,,,,,,,,,,
,,,,,,5fb0eec9fa92bc4ffa483efa,62bbfae1f6dc862c225f200b,2022-06-29_24h10.48.128,Colour_Asymmetry_Pilot,2022.1.3,Win32,60.19020104,62bbe60bf3d75ef465d3e404,0,23,23,35,1,twofour,,,,,,,,,,,,,,,,,,,,,,,,,,,,,,,,,,,,,,,,,,,,,,,,,,,,,,,,,,,,,,,,,,,,,,,,,,,,,,,,,,,,,,,,,,,,,,,,,,,,,,,,,,,,,,,,,,,,,,,,,,,,,,,,,,,,,,,,,,,,,,,,,,,,,,,,
,,,,,,5fb0eec9fa92bc4ffa483efa,62bbfae1f6dc862c225f200b,2022-06-29_24h10.48.128,Colour_Asymmetry_Pilot,2022.1.3,Win32,60.19020104,62bbe60bf3d75ef465d3e404,0,24,24,63,1,fourthree,,,,,,,,,,,,,,,,,,,,,,,,,,,,,,,,,,,,,,,,,,,,,,,,,,,,,,,,,,,,,,,,,,,,,,,,,,,,,,,,,,,,,,,,,,,,,,,,,,,,,,,,,,,,,,,,,,,,,,,,,,,,,,,,,,,,,,,,,,,,,,,,,,,,,,,,
,,,,,,5fb0eec9fa92bc4ffa483efa,62bbfae1f6dc862c225f200b,2022-06-29_24h10.48.128,Colour_Asymmetry_Pilot,2022.1.3,Win32,60.19020104,62bbe60bf3d75ef465d3e404,0,25,25,27,1,twofour,,,,,,,,,,,,,,,,,,,,,,,,,,,,,,,,,,,,,,,,,,,,,,,,,,,,,,,,,,,,,,,,,,,,,,,,,,,,,,,,,,,,,,,,,,,,,,,,,,,,,,,,,,,,,,,,,,,,,,,,,,,,,,,,,,,,,,,,,,,,,,,,,,,,,,,,
,,,,,,5fb0eec9fa92bc4ffa483efa,62bbfae1f6dc862c225f200b,2022-06-29_24h10.48.128,Colour_Asymmetry_Pilot,2022.1.3,Win32,60.19020104,62bbe60bf3d75ef465d3e404,0,26,26,2,1,twoone,,,,,,,,,,,,,,,,,,,,,,,,,,,,,,,,,,,,,,,,,,,,,,,,,,,,,,,,,,,,,,,,,,,,,,,,,,,,,,,,,,,,,,,,,,,,,,,,,,,,,,,,,,,,,,,,,,,,,,,,,,,,,,,,,,,,,,,,,,,,,,,,,,,,,,,,
,,,,,,5fb0eec9fa92bc4ffa483efa,62bbfae1f6dc862c225f200b,2022-06-29_24h10.48.128,Colour_Asymmetry_Pilot,2022.1.3,Win32,60.19020104,62bbe60bf3d75ef465d3e404,0,27,27,126,1,fourtwo,,,,,,,,,,,,,,,,,,,,,,,,,,,,,,,,,,,,,,,,,,,,,,,,,,,,,,,,,,,,,,,,,,,,,,,,,,,,,,,,,,,,,,,,,,,,,,,,,,,,,,,,,,,,,,,,,,,,,,,,,,,,,,,,,,,,,,,,,,,,,,,,,,,,,,,,
,,,,,,5fb0eec9fa92bc4ffa483efa,62bbfae1f6dc862c225f200b,2022-06-29_24h10.48.128,Colour_Asymmetry_Pilot,2022.1.3,Win32,60.19020104,62bbe60bf3d75ef465d3e404,0,28,28,41,1,onethree,,,,,,,,,,,,,,,,,,,,,,,,,,,,,,,,,,,,,,,,,,,,,,,,,,,,,,,,,,,,,,,,,,,,,,,,,,,,,,,,,,,,,,,,,,,,,,,,,,,,,,,,,,,,,,,,,,,,,,,,,,,,,,,,,,,,,,,,,,,,,,,,,,,,,,,,
,,,,,,5fb0eec9fa92bc4ffa483efa,62bbfae1f6dc862c225f200b,2022-06-29_24h10.48.128,Colour_Asymmetry_Pilot,2022.1.3,Win32,60.19020104,62bbe60bf3d75ef465d3e404,0,29,29,38,1,fourtwo,,,,,,,,,,,,,,,,,,,,,,,,,,,,,,,,,,,,,,,,,,,,,,,,,,,,,,,,,,,,,,,,,,,,,,,,,,,,,,,,,,,,,,,,,,,,,,,,,,,,,,,,,,,,,,,,,,,,,,,,,,,,,,,,,,,,,,,,,,,,,,,,,,,,,,,,
,,,,,,5fb0eec9fa92bc4ffa483efa,62bbfae1f6dc862c225f200b,2022-06-29_24h10.48.128,Colour_Asymmetry_Pilot,2022.1.3,Win32,60.19020104,62bbe60bf3d75ef465d3e404,0,30,30,18,1,twoone,,,,,,,,,,,,,,,,,,,,,,,,,,,,,,,,,,,,,,,,,,,,,,,,,,,,,,,,,,,,,,,,,,,,,,,,,,,,,,,,,,,,,,,,,,,,,,,,,,,,,,,,,,,,,,,,,,,,,,,,,,,,,,,,,,,,,,,,,,,,,,,,,,,,,,,,
,,,,,,5fb0eec9fa92bc4ffa483efa,62bbfae1f6dc862c225f200b,2022-06-29_24h10.48.128,Colour_Asymmetry_Pilot,2022.1.3,Win32,60.19020104,62bbe60bf3d75ef465d3e404,0,31,31,141,1,threefour,,,,,,,,,,,,,,,,,,,,,,,,,,,,,,,,,,,,,,,,,,,,,,,,,,,,,,,,,,,,,,,,,,,,,,,,,,,,,,,,,,,,,,,,,,,,,,,,,,,,,,,,,,,,,,,,,,,,,,,,,,,,,,,,,,,,,,,,,,,,,,,,,,,,,,,,
,,,,,,5fb0eec9fa92bc4ffa483efa,62bbfae1f6dc862c225f200b,2022-06-29_24h10.48.128,Colour_Asymmetry_Pilot,2022.1.3,Win32,60.19020104,62bbe60bf3d75ef465d3e404,0,32,32,37,1,threefour,,,,,,,,,,,,,,,,,,,,,,,,,,,,,,,,,,,,,,,,,,,,,,,,,,,,,,,,,,,,,,,,,,,,,,,,,,,,,,,,,,,,,,,,,,,,,,,,,,,,,,,,,,,,,,,,,,,,,,,,,,,,,,,,,,,,,,,,,,,,,,,,,,,,,,,,
,,,,,,5fb0eec9fa92bc4ffa483efa,62bbfae1f6dc862c225f200b,2022-06-29_24h10.48.128,Colour_Asymmetry_Pilot,2022.1.3,Win32,60.19020104,62bbe60bf3d75ef465d3e404,0,33,33,64,1,onetwo,,,,,,,,,,,,,,,,,,,,,,,,,,,,,,,,,,,,,,,,,,,,,,,,,,,,,,,,,,,,,,,,,,,,,,,,,,,,,,,,,,,,,,,,,,,,,,,,,,,,,,,,,,,,,,,,,,,,,,,,,,,,,,,,,,,,,,,,,,,,,,,,,,,,,,,,
,,,,,,5fb0eec9fa92bc4ffa483efa,62bbfae1f6dc862c225f200b,2022-06-29_24h10.48.128,Colour_Asymmetry_Pilot,2022.1.3,Win32,60.19020104,62bbe60bf3d75ef465d3e404,0,34,34,118,1,fourtwo,,,,,,,,,,,,,,,,,,,,,,,,,,,,,,,,,,,,,,,,,,,,,,,,,,,,,,,,,,,,,,,,,,,,,,,,,,,,,,,,,,,,,,,,,,,,,,,,,,,,,,,,,,,,,,,,,,,,,,,,,,,,,,,,,,,,,,,,,,,,,,,,,,,,,,,,
,,,,,,5fb0eec9fa92bc4ffa483efa,62bbfae1f6dc862c225f200b,2022-06-29_24h10.48.128,Colour_Asymmetry_Pilot,2022.1.3,Win32,60.19020104,62bbe60bf3d75ef465d3e404,0,35,35,79,1,fourthree,,,,,,,,,,,,,,,,,,,,,,,,,,,,,,,,,,,,,,,,,,,,,,,,,,,,,,,,,,,,,,,,,,,,,,,,,,,,,,,,,,,,,,,,,,,,,,,,,,,,,,,,,,,,,,,,,,,,,,,,,,,,,,,,,,,,,,,,,,,,,,,,,,,,,,,,
,,,,,,5fb0eec9fa92bc4ffa483efa,62bbfae1f6dc862c225f200b,2022-06-29_24h10.48.128,Colour_Asymmetry_Pilot,2022.1.3,Win32,60.19020104,62bbe60bf3d75ef465d3e404,0,36,36,0,1,onetwo,,,,,,,,,,,,,,,,,,,,,,,,,,,,,,,,,,,,,,,,,,,,,,,,,,,,,,,,,,,,,,,,,,,,,,,,,,,,,,,,,,,,,,,,,,,,,,,,,,,,,,,,,,,,,,,,,,,,,,,,,,,,,,,,,,,,,,,,,,,,,,,,,,,,,,,,
,,,,,,5fb0eec9fa92bc4ffa483efa,62bbfae1f6dc862c225f200b,2022-06-29_24h10.48.128,Colour_Asymmetry_Pilot,2022.1.3,Win32,60.19020104,62bbe60bf3d75ef465d3e404,0,37,37,119,1,fourthree,,,,,,,,,,,,,,,,,,,,,,,,,,,,,,,,,,,,,,,,,,,,,,,,,,,,,,,,,,,,,,,,,,,,,,,,,,,,,,,,,,,,,,,,,,,,,,,,,,,,,,,,,,,,,,,,,,,,,,,,,,,,,,,,,,,,,,,,,,,,,,,,,,,,,,,,
,,,,,,5fb0eec9fa92bc4ffa483efa,62bbfae1f6dc862c225f200b,2022-06-29_24h10.48.128,Colour_Asymmetry_Pilot,2022.1.3,Win32,60.19020104,62bbe60bf3d75ef465d3e404,0,38,38,105,1,onethree,,,,,,,,,,,,,,,,,,,,,,,,,,,,,,,,,,,,,,,,,,,,,,,,,,,,,,,,,,,,,,,,,,,,,,,,,,,,,,,,,,,,,,,,,,,,,,,,,,,,,,,,,,,,,,,,,,,,,,,,,,,,,,,,,,,,,,,,,,,,,,,,,,,,,,,,
,,,,,,5fb0eec9fa92bc4ffa483efa,62bbfae1f6dc862c225f200b,2022-06-29_24h10.48.128,Colour_Asymmetry_Pilot,2022.1.3,Win32,60.19020104,62bbe60bf3d75ef465d3e404,0,39,39,4,1,threeone,,,,,,,,,,,,,,,,,,,,,,,,,,,,,,,,,,,,,,,,,,,,,,,,,,,,,,,,,,,,,,,,,,,,,,,,,,,,,,,,,,,,,,,,,,,,,,,,,,,,,,,,,,,,,,,,,,,,,,,,,,,,,,,,,,,,,,,,,,,,,,,,,,,,,,,,
,,,,,,5fb0eec9fa92bc4ffa483efa,62bbfae1f6dc862c225f200b,2022-06-29_24h10.48.128,Colour_Asymmetry_Pilot,2022.1.3,Win32,60.19020104,62bbe60bf3d75ef465d3e404,0,40,40,139,1,twofour,,,,,,,,,,,,,,,,,,,,,,,,,,,,,,,,,,,,,,,,,,,,,,,,,,,,,,,,,,,,,,,,,,,,,,,,,,,,,,,,,,,,,,,,,,,,,,,,,,,,,,,,,,,,,,,,,,,,,,,,,,,,,,,,,,,,,,,,,,,,,,,,,,,,,,,,
,,,,,,5fb0eec9fa92bc4ffa483efa,62bbfae1f6dc862c225f200b,2022-06-29_24h10.48.128,Colour_Asymmetry_Pilot,2022.1.3,Win32,60.19020104,62bbe60bf3d75ef465d3e404,0,41,41,98,1,twoone,,,,,,,,,,,,,,,,,,,,,,,,,,,,,,,,,,,,,,,,,,,,,,,,,,,,,,,,,,,,,,,,,,,,,,,,,,,,,,,,,,,,,,,,,,,,,,,,,,,,,,,,,,,,,,,,,,,,,,,,,,,,,,,,,,,,,,,,,,,,,,,,,,,,,,,,
,,,,,,5fb0eec9fa92bc4ffa483efa,62bbfae1f6dc862c225f200b,2022-06-29_24h10.48.128,Colour_Asymmetry_Pilot,2022.1.3,Win32,60.19020104,62bbe60bf3d75ef465d3e404,0,42,42,15,1,fourthree,,,,,,,,,,,,,,,,,,,,,,,,,,,,,,,,,,,,,,,,,,,,,,,,,,,,,,,,,,,,,,,,,,,,,,,,,,,,,,,,,,,,,,,,,,,,,,,,,,,,,,,,,,,,,,,,,,,,,,,,,,,,,,,,,,,,,,,,,,,,,,,,,,,,,,,,
,,,,,,5fb0eec9fa92bc4ffa483efa,62bbfae1f6dc862c225f200b,2022-06-29_24h10.48.128,Colour_Asymmetry_Pilot,2022.1.3,Win32,60.19020104,62bbe60bf3d75ef465d3e404,0,43,43,59,1,twofour,,,,,,,,,,,,,,,,,,,,,,,,,,,,,,,,,,,,,,,,,,,,,,,,,,,,,,,,,,,,,,,,,,,,,,,,,,,,,,,,,,,,,,,,,,,,,,,,,,,,,,,,,,,,,,,,,,,,,,,,,,,,,,,,,,,,,,,,,,,,,,,,,,,,,,,,
,,,,,,5fb0eec9fa92bc4ffa483efa,62bbfae1f6dc862c225f200b,2022-06-29_24h10.48.128,Colour_Asymmetry_Pilot,2022.1.3,Win32,60.19020104,62bbe60bf3d75ef465d3e404,0,44,44,89,1,onethree,,,,,,,,,,,,,,,,,,,,,,,,,,,,,,,,,,,,,,,,,,,,,,,,,,,,,,,,,,,,,,,,,,,,,,,,,,,,,,,,,,,,,,,,,,,,,,,,,,,,,,,,,,,,,,,,,,,,,,,,,,,,,,,,,,,,,,,,,,,,,,,,,,,,,,,,
,,,,,,5fb0eec9fa92bc4ffa483efa,62bbfae1f6dc862c225f200b,2022-06-29_24h10.48.128,Colour_Asymmetry_Pilot,2022.1.3,Win32,60.19020104,62bbe60bf3d75ef465d3e404,0,45,45,134,1,fourtwo,,,,,,,,,,,,,,,,,,,,,,,,,,,,,,,,,,,,,,,,,,,,,,,,,,,,,,,,,,,,,,,,,,,,,,,,,,,,,,,,,,,,,,,,,,,,,,,,,,,,,,,,,,,,,,,,,,,,,,,,,,,,,,,,,,,,,,,,,,,,,,,,,,,,,,,,
,,,,,,5fb0eec9fa92bc4ffa483efa,62bbfae1f6dc862c225f200b,2022-06-29_24h10.48.128,Colour_Asymmetry_Pilot,2022.1.3,Win32,60.19020104,62bbe60bf3d75ef465d3e404,0,46,46,44,1,threeone,,,,,,,,,,,,,,,,,,,,,,,,,,,,,,,,,,,,,,,,,,,,,,,,,,,,,,,,,,,,,,,,,,,,,,,,,,,,,,,,,,,,,,,,,,,,,,,,,,,,,,,,,,,,,,,,,,,,,,,,,,,,,,,,,,,,,,,,,,,,,,,,,,,,,,,,
,,,,,,5fb0eec9fa92bc4ffa483efa,62bbfae1f6dc862c225f200b,2022-06-29_24h10.48.128,Colour_Asymmetry_Pilot,2022.1.3,Win32,60.19020104,62bbe60bf3d75ef465d3e404,0,47,47,148,1,threeone,,,,,,,,,,,,,,,,,,,,,,,,,,,,,,,,,,,,,,,,,,,,,,,,,,,,,,,,,,,,,,,,,,,,,,,,,,,,,,,,,,,,,,,,,,,,,,,,,,,,,,,,,,,,,,,,,,,,,,,,,,,,,,,,,,,,,,,,,,,,,,,,,,,,,,,,
,,,,,,5fb0eec9fa92bc4ffa483efa,62bbfae1f6dc862c225f200b,2022-06-29_24h10.48.128,Colour_Asymmetry_Pilot,2022.1.3,Win32,60.19020104,62bbe60bf3d75ef465d3e404,0,48,48,159,1,fourthree,,,,,,,,,,,,,,,,,,,,,,,,,,,,,,,,,,,,,,,,,,,,,,,,,,,,,,,,,,,,,,,,,,,,,,,,,,,,,,,,,,,,,,,,,,,,,,,,,,,,,,,,,,,,,,,,,,,,,,,,,,,,,,,,,,,,,,,,,,,,,,,,,,,,,,,,
,,,,,,5fb0eec9fa92bc4ffa483efa,62bbfae1f6dc862c225f200b,2022-06-29_24h10.48.128,Colour_Asymmetry_Pilot,2022.1.3,Win32,60.19020104,62bbe60bf3d75ef465d3e404,0,49,49,8,1,onetwo,,,,,,,,,,,,,,,,,,,,,,,,,,,,,,,,,,,,,,,,,,,,,,,,,,,,,,,,,,,,,,,,,,,,,,,,,,,,,,,,,,,,,,,,,,,,,,,,,,,,,,,,,,,,,,,,,,,,,,,,,,,,,,,,,,,,,,,,,,,,,,,,,,,,,,,,
,,,,,,5fb0eec9fa92bc4ffa483efa,62bbfae1f6dc862c225f200b,2022-06-29_24h10.48.128,Colour_Asymmetry_Pilot,2022.1.3,Win32,60.19020104,62bbe60bf3d75ef465d3e404,0,50,50,116,1,threeone,,,,,,,,,,,,,,,,,,,,,,,,,,,,,,,,,,,,,,,,,,,,,,,,,,,,,,,,,,,,,,,,,,,,,,,,,,,,,,,,,,,,,,,,,,,,,,,,,,,,,,,,,,,,,,,,,,,,,,,,,,,,,,,,,,,,,,,,,,,,,,,,,,,,,,,,
,,,,,,5fb0eec9fa92bc4ffa483efa,62bbfae1f6dc862c225f200b,2022-06-29_24h10.48.128,Colour_Asymmetry_Pilot,2022.1.3,Win32,60.19020104,62bbe60bf3d75ef465d3e404,0,51,51,7,1,fourthree,,,,,,,,,,,,,,,,,,,,,,,,,,,,,,,,,,,,,,,,,,,,,,,,,,,,,,,,,,,,,,,,,,,,,,,,,,,,,,,,,,,,,,,,,,,,,,,,,,,,,,,,,,,,,,,,,,,,,,,,,,,,,,,,,,,,,,,,,,,,,,,,,,,,,,,,
,,,,,,5fb0eec9fa92bc4ffa483efa,62bbfae1f6dc862c225f200b,2022-06-29_24h10.48.128,Colour_Asymmetry_Pilot,2022.1.3,Win32,60.19020104,62bbe60bf3d75ef465d3e404,0,52,52,154,1,twoone,,,,,,,,,,,,,,,,,,,,,,,,,,,,,,,,,,,,,,,,,,,,,,,,,,,,,,,,,,,,,,,,,,,,,,,,,,,,,,,,,,,,,,,,,,,,,,,,,,,,,,,,,,,,,,,,,,,,,,,,,,,,,,,,,,,,,,,,,,,,,,,,,,,,,,,,
,,,,,,5fb0eec9fa92bc4ffa483efa,62bbfae1f6dc862c225f200b,2022-06-29_24h10.48.128,Colour_Asymmetry_Pilot,2022.1.3,Win32,60.19020104,62bbe60bf3d75ef465d3e404,0,53,53,153,1,onethree,,,,,,,,,,,,,,,,,,,,,,,,,,,,,,,,,,,,,,,,,,,,,,,,,,,,,,,,,,,,,,,,,,,,,,,,,,,,,,,,,,,,,,,,,,,,,,,,,,,,,,,,,,,,,,,,,,,,,,,,,,,,,,,,,,,,,,,,,,,,,,,,,,,,,,,,
,,,,,,5fb0eec9fa92bc4ffa483efa,62bbfae1f6dc862c225f200b,2022-06-29_24h10.48.128,Colour_Asymmetry_Pilot,2022.1.3,Win32,60.19020104,62bbe60bf3d75ef465d3e404,0,54,54,40,1,onetwo,,,,,,,,,,,,,,,,,,,,,,,,,,,,,,,,,,,,,,,,,,,,,,,,,,,,,,,,,,,,,,,,,,,,,,,,,,,,,,,,,,,,,,,,,,,,,,,,,,,,,,,,,,,,,,,,,,,,,,,,,,,,,,,,,,,,,,,,,,,,,,,,,,,,,,,,
,,,,,,5fb0eec9fa92bc4ffa483efa,62bbfae1f6dc862c225f200b,2022-06-29_24h10.48.128,Colour_Asymmetry_Pilot,2022.1.3,Win32,60.19020104,62bbe60bf3d75ef465d3e404,0,55,55,132,1,threeone,,,,,,,,,,,,,,,,,,,,,,,,,,,,,,,,,,,,,,,,,,,,,,,,,,,,,,,,,,,,,,,,,,,,,,,,,,,,,,,,,,,,,,,,,,,,,,,,,,,,,,,,,,,,,,,,,,,,,,,,,,,,,,,,,,,,,,,,,,,,,,,,,,,,,,,,
,,,,,,5fb0eec9fa92bc4ffa483efa,62bbfae1f6dc862c225f200b,2022-06-29_24h10.48.128,Colour_Asymmetry_Pilot,2022.1.3,Win32,60.19020104,62bbe60bf3d75ef465d3e404,0,56,56,101,1,threefour,,,,,,,,,,,,,,,,,,,,,,,,,,,,,,,,,,,,,,,,,,,,,,,,,,,,,,,,,,,,,,,,,,,,,,,,,,,,,,,,,,,,,,,,,,,,,,,,,,,,,,,,,,,,,,,,,,,,,,,,,,,,,,,,,,,,,,,,,,,,,,,,,,,,,,,,
,,,,,,5fb0eec9fa92bc4ffa483efa,62bbfae1f6dc862c225f200b,2022-06-29_24h10.48.128,Colour_Asymmetry_Pilot,2022.1.3,Win32,60.19020104,62bbe60bf3d75ef465d3e404,0,57,57,65,1,onethree,,,,,,,,,,,,,,,,,,,,,,,,,,,,,,,,,,,,,,,,,,,,,,,,,,,,,,,,,,,,,,,,,,,,,,,,,,,,,,,,,,,,,,,,,,,,,,,,,,,,,,,,,,,,,,,,,,,,,,,,,,,,,,,,,,,,,,,,,,,,,,,,,,,,,,,,
,,,,,,5fb0eec9fa92bc4ffa483efa,62bbfae1f6dc862c225f200b,2022-06-29_24h10.48.128,Colour_Asymmetry_Pilot,2022.1.3,Win32,60.19020104,62bbe60bf3d75ef465d3e404,0,58,58,69,1,threefour,,,,,,,,,,,,,,,,,,,,,,,,,,,,,,,,,,,,,,,,,,,,,,,,,,,,,,,,,,,,,,,,,,,,,,,,,,,,,,,,,,,,,,,,,,,,,,,,,,,,,,,,,,,,,,,,,,,,,,,,,,,,,,,,,,,,,,,,,,,,,,,,,,,,,,,,
,,,,,,5fb0eec9fa92bc4ffa483efa,62bbfae1f6dc862c225f200b,2022-06-29_24h10.48.128,Colour_Asymmetry_Pilot,2022.1.3,Win32,60.19020104,62bbe60bf3d75ef465d3e404,0,59,59,86,1,fourtwo,,,,,,,,,,,,,,,,,,,,,,,,,,,,,,,,,,,,,,,,,,,,,,,,,,,,,,,,,,,,,,,,,,,,,,,,,,,,,,,,,,,,,,,,,,,,,,,,,,,,,,,,,,,,,,,,,,,,,,,,,,,,,,,,,,,,,,,,,,,,,,,,,,,,,,,,
,,,,,,5fb0eec9fa92bc4ffa483efa,62bbfae1f6dc862c225f200b,2022-06-29_24h10.48.128,Colour_Asymmetry_Pilot,2022.1.3,Win32,60.19020104,62bbe60bf3d75ef465d3e404,0,60,60,93,1,threefour,,,,,,,,,,,,,,,,,,,,,,,,,,,,,,,,,,,,,,,,,,,,,,,,,,,,,,,,,,,,,,,,,,,,,,,,,,,,,,,,,,,,,,,,,,,,,,,,,,,,,,,,,,,,,,,,,,,,,,,,,,,,,,,,,,,,,,,,,,,,,,,,,,,,,,,,
,,,,,,5fb0eec9fa92bc4ffa483efa,62bbfae1f6dc862c225f200b,2022-06-29_24h10.48.128,Colour_Asymmetry_Pilot,2022.1.3,Win32,60.19020104,62bbe60bf3d75ef465d3e404,0,61,61,31,1,fourthree,,,,,,,,,,,,,,,,,,,,,,,,,,,,,,,,,,,,,,,,,,,,,,,,,,,,,,,,,,,,,,,,,,,,,,,,,,,,,,,,,,,,,,,,,,,,,,,,,,,,,,,,,,,,,,,,,,,,,,,,,,,,,,,,,,,,,,,,,,,,,,,,,,,,,,,,
,,,,,,5fb0eec9fa92bc4ffa483efa,62bbfae1f6dc862c225f200b,2022-06-29_24h10.48.128,Colour_Asymmetry_Pilot,2022.1.3,Win32,60.19020104,62bbe60bf3d75ef465d3e404,0,62,62,77,1,threefour,,,,,,,,,,,,,,,,,,,,,,,,,,,,,,,,,,,,,,,,,,,,,,,,,,,,,,,,,,,,,,,,,,,,,,,,,,,,,,,,,,,,,,,,,,,,,,,,,,,,,,,,,,,,,,,,,,,,,,,,,,,,,,,,,,,,,,,,,,,,,,,,,,,,,,,,
,,,,,,5fb0eec9fa92bc4ffa483efa,62bbfae1f6dc862c225f200b,2022-06-29_24h10.48.128,Colour_Asymmetry_Pilot,2022.1.3,Win32,60.19020104,62bbe60bf3d75ef465d3e404,0,63,63,3,1,twofour,,,,,,,,,,,,,,,,,,,,,,,,,,,,,,,,,,,,,,,,,,,,,,,,,,,,,,,,,,,,,,,,,,,,,,,,,,,,,,,,,,,,,,,,,,,,,,,,,,,,,,,,,,,,,,,,,,,,,,,,,,,,,,,,,,,,,,,,,,,,,,,,,,,,,,,,
,,,,,,5fb0eec9fa92bc4ffa483efa,62bbfae1f6dc862c225f200b,2022-06-29_24h10.48.128,Colour_Asymmetry_Pilot,2022.1.3,Win32,60.19020104,62bbe60bf3d75ef465d3e404,0,64,64,103,1,fourthree,,,,,,,,,,,,,,,,,,,,,,,,,,,,,,,,,,,,,,,,,,,,,,,,,,,,,,,,,,,,,,,,,,,,,,,,,,,,,,,,,,,,,,,,,,,,,,,,,,,,,,,,,,,,,,,,,,,,,,,,,,,,,,,,,,,,,,,,,,,,,,,,,,,,,,,,
,,,,,,5fb0eec9fa92bc4ffa483efa,62bbfae1f6dc862c225f200b,2022-06-29_24h10.48.128,Colour_Asymmetry_Pilot,2022.1.3,Win32,60.19020104,62bbe60bf3d75ef465d3e404,0,65,65,81,1,onethree,,,,,,,,,,,,,,,,,,,,,,,,,,,,,,,,,,,,,,,,,,,,,,,,,,,,,,,,,,,,,,,,,,,,,,,,,,,,,,,,,,,,,,,,,,,,,,,,,,,,,,,,,,,,,,,,,,,,,,,,,,,,,,,,,,,,,,,,,,,,,,,,,,,,,,,,
,,,,,,5fb0eec9fa92bc4ffa483efa,62bbfae1f6dc862c225f200b,2022-06-29_24h10.48.128,Colour_Asymmetry_Pilot,2022.1.3,Win32,60.19020104,62bbe60bf3d75ef465d3e404,0,66,66,152,1,onetwo,,,,,,,,,,,,,,,,,,,,,,,,,,,,,,,,,,,,,,,,,,,,,,,,,,,,,,,,,,,,,,,,,,,,,,,,,,,,,,,,,,,,,,,,,,,,,,,,,,,,,,,,,,,,,,,,,,,,,,,,,,,,,,,,,,,,,,,,,,,,,,,,,,,,,,,,
,,,,,,5fb0eec9fa92bc4ffa483efa,62bbfae1f6dc862c225f200b,2022-06-29_24h10.48.128,Colour_Asymmetry_Pilot,2022.1.3,Win32,60.19020104,62bbe60bf3d75ef465d3e404,0,67,67,158,1,fourtwo,,,,,,,,,,,,,,,,,,,,,,,,,,,,,,,,,,,,,,,,,,,,,,,,,,,,,,,,,,,,,,,,,,,,,,,,,,,,,,,,,,,,,,,,,,,,,,,,,,,,,,,,,,,,,,,,,,,,,,,,,,,,,,,,,,,,,,,,,,,,,,,,,,,,,,,,
,,,,,,5fb0eec9fa92bc4ffa483efa,62bbfae1f6dc862c225f200b,2022-06-29_24h10.48.128,Colour_Asymmetry_Pilot,2022.1.3,Win32,60.19020104,62bbe60bf3d75ef465d3e404,0,68,68,138,1,twoone,,,,,,,,,,,,,,,,,,,,,,,,,,,,,,,,,,,,,,,,,,,,,,,,,,,,,,,,,,,,,,,,,,,,,,,,,,,,,,,,,,,,,,,,,,,,,,,,,,,,,,,,,,,,,,,,,,,,,,,,,,,,,,,,,,,,,,,,,,,,,,,,,,,,,,,,
,,,,,,5fb0eec9fa92bc4ffa483efa,62bbfae1f6dc862c225f200b,2022-06-29_24h10.48.128,Colour_Asymmetry_Pilot,2022.1.3,Win32,60.19020104,62bbe60bf3d75ef465d3e404,0,69,69,108,1,threeone,,,,,,,,,,,,,,,,,,,,,,,,,,,,,,,,,,,,,,,,,,,,,,,,,,,,,,,,,,,,,,,,,,,,,,,,,,,,,,,,,,,,,,,,,,,,,,,,,,,,,,,,,,,,,,,,,,,,,,,,,,,,,,,,,,,,,,,,,,,,,,,,,,,,,,,,
,,,,,,5fb0eec9fa92bc4ffa483efa,62bbfae1f6dc862c225f200b,2022-06-29_24h10.48.128,Colour_Asymmetry_Pilot,2022.1.3,Win32,60.19020104,62bbe60bf3d75ef465d3e404,0,70,70,104,1,onetwo,,,,,,,,,,,,,,,,,,,,,,,,,,,,,,,,,,,,,,,,,,,,,,,,,,,,,,,,,,,,,,,,,,,,,,,,,,,,,,,,,,,,,,,,,,,,,,,,,,,,,,,,,,,,,,,,,,,,,,,,,,,,,,,,,,,,,,,,,,,,,,,,,,,,,,,,
,,,,,,5fb0eec9fa92bc4ffa483efa,62bbfae1f6dc862c225f200b,2022-06-29_24h10.48.128,Colour_Asymmetry_Pilot,2022.1.3,Win32,60.19020104,62bbe60bf3d75ef465d3e404,0,71,71,53,1,threefour,,,,,,,,,,,,,,,,,,,,,,,,,,,,,,,,,,,,,,,,,,,,,,,,,,,,,,,,,,,,,,,,,,,,,,,,,,,,,,,,,,,,,,,,,,,,,,,,,,,,,,,,,,,,,,,,,,,,,,,,,,,,,,,,,,,,,,,,,,,,,,,,,,,,,,,,
,,,,,,5fb0eec9fa92bc4ffa483efa,62bbfae1f6dc862c225f200b,2022-06-29_24h10.48.128,Colour_Asymmetry_Pilot,2022.1.3,Win32,60.19020104,62bbe60bf3d75ef465d3e404,0,72,72,6,1,fourtwo,,,,,,,,,,,,,,,,,,,,,,,,,,,,,,,,,,,,,,,,,,,,,,,,,,,,,,,,,,,,,,,,,,,,,,,,,,,,,,,,,,,,,,,,,,,,,,,,,,,,,,,,,,,,,,,,,,,,,,,,,,,,,,,,,,,,,,,,,,,,,,,,,,,,,,,,
,,,,,,5fb0eec9fa92bc4ffa483efa,62bbfae1f6dc862c225f200b,2022-06-29_24h10.48.128,Colour_Asymmetry_Pilot,2022.1.3,Win32,60.19020104,62bbe60bf3d75ef465d3e404,0,73,73,88,1,onetwo,,,,,,,,,,,,,,,,,,,,,,,,,,,,,,,,,,,,,,,,,,,,,,,,,,,,,,,,,,,,,,,,,,,,,,,,,,,,,,,,,,,,,,,,,,,,,,,,,,,,,,,,,,,,,,,,,,,,,,,,,,,,,,,,,,,,,,,,,,,,,,,,,,,,,,,,
,,,,,,5fb0eec9fa92bc4ffa483efa,62bbfae1f6dc862c225f200b,2022-06-29_24h10.48.128,Colour_Asymmetry_Pilot,2022.1.3,Win32,60.19020104,62bbe60bf3d75ef465d3e404,0,74,74,74,1,twoone,,,,,,,,,,,,,,,,,,,,,,,,,,,,,,,,,,,,,,,,,,,,,,,,,,,,,,,,,,,,,,,,,,,,,,,,,,,,,,,,,,,,,,,,,,,,,,,,,,,,,,,,,,,,,,,,,,,,,,,,,,,,,,,,,,,,,,,,,,,,,,,,,,,,,,,,
,,,,,,5fb0eec9fa92bc4ffa483efa,62bbfae1f6dc862c225f200b,2022-06-29_24h10.48.128,Colour_Asymmetry_Pilot,2022.1.3,Win32,60.19020104,62bbe60bf3d75ef465d3e404,0,75,75,25,1,onethree,,,,,,,,,,,,,,,,,,,,,,,,,,,,,,,,,,,,,,,,,,,,,,,,,,,,,,,,,,,,,,,,,,,,,,,,,,,,,,,,,,,,,,,,,,,,,,,,,,,,,,,,,,,,,,,,,,,,,,,,,,,,,,,,,,,,,,,,,,,,,,,,,,,,,,,,
,,,,,,5fb0eec9fa92bc4ffa483efa,62bbfae1f6dc862c225f200b,2022-06-29_24h10.48.128,Colour_Asymmetry_Pilot,2022.1.3,Win32,60.19020104,62bbe60bf3d75ef465d3e404,0,76,76,32,1,onetwo,,,,,,,,,,,,,,,,,,,,,,,,,,,,,,,,,,,,,,,,,,,,,,,,,,,,,,,,,,,,,,,,,,,,,,,,,,,,,,,,,,,,,,,,,,,,,,,,,,,,,,,,,,,,,,,,,,,,,,,,,,,,,,,,,,,,,,,,,,,,,,,,,,,,,,,,
,,,,,,5fb0eec9fa92bc4ffa483efa,62bbfae1f6dc862c225f200b,2022-06-29_24h10.48.128,Colour_Asymmetry_Pilot,2022.1.3,Win32,60.19020104,62bbe60bf3d75ef465d3e404,0,77,77,73,1,onethree,,,,,,,,,,,,,,,,,,,,,,,,,,,,,,,,,,,,,,,,,,,,,,,,,,,,,,,,,,,,,,,,,,,,,,,,,,,,,,,,,,,,,,,,,,,,,,,,,,,,,,,,,,,,,,,,,,,,,,,,,,,,,,,,,,,,,,,,,,,,,,,,,,,,,,,,
,,,,,,5fb0eec9fa92bc4ffa483efa,62bbfae1f6dc862c225f200b,2022-06-29_24h10.48.128,Colour_Asymmetry_Pilot,2022.1.3,Win32,60.19020104,62bbe60bf3d75ef465d3e404,0,78,78,109,1,threefour,,,,,,,,,,,,,,,,,,,,,,,,,,,,,,,,,,,,,,,,,,,,,,,,,,,,,,,,,,,,,,,,,,,,,,,,,,,,,,,,,,,,,,,,,,,,,,,,,,,,,,,,,,,,,,,,,,,,,,,,,,,,,,,,,,,,,,,,,,,,,,,,,,,,,,,,
,,,,,,5fb0eec9fa92bc4ffa483efa,62bbfae1f6dc862c225f200b,2022-06-29_24h10.48.128,Colour_Asymmetry_Pilot,2022.1.3,Win32,60.19020104,62bbe60bf3d75ef465d3e404,0,79,79,17,1,onethree,,,,,,,,,,,,,,,,,,,,,,,,,,,,,,,,,,,,,,,,,,,,,,,,,,,,,,,,,,,,,,,,,,,,,,,,,,,,,,,,,,,,,,,,,,,,,,,,,,,,,,,,,,,,,,,,,,,,,,,,,,,,,,,,,,,,,,,,,,,,,,,,,,,,,,,,
,,,,,,5fb0eec9fa92bc4ffa483efa,62bbfae1f6dc862c225f200b,2022-06-29_24h10.48.128,Colour_Asymmetry_Pilot,2022.1.3,Win32,60.19020104,62bbe60bf3d75ef465d3e404,0,80,80,161,1,onethree,,,,,,,,,,,,,,,,,,,,,,,,,,,,,,,,,,,,,,,,,,,,,,,,,,,,,,,,,,,,,,,,,,,,,,,,,,,,,,,,,,,,,,,,,,,,,,,,,,,,,,,,,,,,,,,,,,,,,,,,,,,,,,,,,,,,,,,,,,,,,,,,,,,,,,,,
,,,,,,5fb0eec9fa92bc4ffa483efa,62bbfae1f6dc862c225f200b,2022-06-29_24h10.48.128,Colour_Asymmetry_Pilot,2022.1.3,Win32,60.19020104,62bbe60bf3d75ef465d3e404,0,81,81,43,1,twofour,,,,,,,,,,,,,,,,,,,,,,,,,,,,,,,,,,,,,,,,,,,,,,,,,,,,,,,,,,,,,,,,,,,,,,,,,,,,,,,,,,,,,,,,,,,,,,,,,,,,,,,,,,,,,,,,,,,,,,,,,,,,,,,,,,,,,,,,,,,,,,,,,,,,,,,,
,,,,,,5fb0eec9fa92bc4ffa483efa,62bbfae1f6dc862c225f200b,2022-06-29_24h10.48.128,Colour_Asymmetry_Pilot,2022.1.3,Win32,60.19020104,62bbe60bf3d75ef465d3e404,0,82,82,160,1,onetwo,,,,,,,,,,,,,,,,,,,,,,,,,,,,,,,,,,,,,,,,,,,,,,,,,,,,,,,,,,,,,,,,,,,,,,,,,,,,,,,,,,,,,,,,,,,,,,,,,,,,,,,,,,,,,,,,,,,,,,,,,,,,,,,,,,,,,,,,,,,,,,,,,,,,,,,,
,,,,,,5fb0eec9fa92bc4ffa483efa,62bbfae1f6dc862c225f200b,2022-06-29_24h10.48.128,Colour_Asymmetry_Pilot,2022.1.3,Win32,60.19020104,62bbe60bf3d75ef465d3e404,0,83,83,140,1,threeone,,,,,,,,,,,,,,,,,,,,,,,,,,,,,,,,,,,,,,,,,,,,,,,,,,,,,,,,,,,,,,,,,,,,,,,,,,,,,,,,,,,,,,,,,,,,,,,,,,,,,,,,,,,,,,,,,,,,,,,,,,,,,,,,,,,,,,,,,,,,,,,,,,,,,,,,
,,,,,,5fb0eec9fa92bc4ffa483efa,62bbfae1f6dc862c225f200b,2022-06-29_24h10.48.128,Colour_Asymmetry_Pilot,2022.1.3,Win32,60.19020104,62bbe60bf3d75ef465d3e404,0,84,84,156,1,threeone,,,,,,,,,,,,,,,,,,,,,,,,,,,,,,,,,,,,,,,,,,,,,,,,,,,,,,,,,,,,,,,,,,,,,,,,,,,,,,,,,,,,,,,,,,,,,,,,,,,,,,,,,,,,,,,,,,,,,,,,,,,,,,,,,,,,,,,,,,,,,,,,,,,,,,,,
,,,,,,5fb0eec9fa92bc4ffa483efa,62bbfae1f6dc862c225f200b,2022-06-29_24h10.48.128,Colour_Asymmetry_Pilot,2022.1.3,Win32,60.19020104,62bbe60bf3d75ef465d3e404,0,85,85,102,1,fourtwo,,,,,,,,,,,,,,,,,,,,,,,,,,,,,,,,,,,,,,,,,,,,,,,,,,,,,,,,,,,,,,,,,,,,,,,,,,,,,,,,,,,,,,,,,,,,,,,,,,,,,,,,,,,,,,,,,,,,,,,,,,,,,,,,,,,,,,,,,,,,,,,,,,,,,,,,
,,,,,,5fb0eec9fa92bc4ffa483efa,62bbfae1f6dc862c225f200b,2022-06-29_24h10.48.128,Colour_Asymmetry_Pilot,2022.1.3,Win32,60.19020104,62bbe60bf3d75ef465d3e404,0,86,86,62,1,fourtwo,,,,,,,,,,,,,,,,,,,,,,,,,,,,,,,,,,,,,,,,,,,,,,,,,,,,,,,,,,,,,,,,,,,,,,,,,,,,,,,,,,,,,,,,,,,,,,,,,,,,,,,,,,,,,,,,,,,,,,,,,,,,,,,,,,,,,,,,,,,,,,,,,,,,,,,,
,,,,,,5fb0eec9fa92bc4ffa483efa,62bbfae1f6dc862c225f200b,2022-06-29_24h10.48.128,Colour_Asymmetry_Pilot,2022.1.3,Win32,60.19020104,62bbe60bf3d75ef465d3e404,0,87,87,49,1,onethree,,,,,,,,,,,,,,,,,,,,,,,,,,,,,,,,,,,,,,,,,,,,,,,,,,,,,,,,,,,,,,,,,,,,,,,,,,,,,,,,,,,,,,,,,,,,,,,,,,,,,,,,,,,,,,,,,,,,,,,,,,,,,,,,,,,,,,,,,,,,,,,,,,,,,,,,
,,,,,,5fb0eec9fa92bc4ffa483efa,62bbfae1f6dc862c225f200b,2022-06-29_24h10.48.128,Colour_Asymmetry_Pilot,2022.1.3,Win32,60.19020104,62bbe60bf3d75ef465d3e404,0,88,88,66,1,twoone,,,,,,,,,,,,,,,,,,,,,,,,,,,,,,,,,,,,,,,,,,,,,,,,,,,,,,,,,,,,,,,,,,,,,,,,,,,,,,,,,,,,,,,,,,,,,,,,,,,,,,,,,,,,,,,,,,,,,,,,,,,,,,,,,,,,,,,,,,,,,,,,,,,,,,,,
,,,,,,5fb0eec9fa92bc4ffa483efa,62bbfae1f6dc862c225f200b,2022-06-29_24h10.48.128,Colour_Asymmetry_Pilot,2022.1.3,Win32,60.19020104,62bbe60bf3d75ef465d3e404,0,89,89,48,1,onetwo,,,,,,,,,,,,,,,,,,,,,,,,,,,,,,,,,,,,,,,,,,,,,,,,,,,,,,,,,,,,,,,,,,,,,,,,,,,,,,,,,,,,,,,,,,,,,,,,,,,,,,,,,,,,,,,,,,,,,,,,,,,,,,,,,,,,,,,,,,,,,,,,,,,,,,,,
,,,,,,5fb0eec9fa92bc4ffa483efa,62bbfae1f6dc862c225f200b,2022-06-29_24h10.48.128,Colour_Asymmetry_Pilot,2022.1.3,Win32,60.19020104,62bbe60bf3d75ef465d3e404,0,90,90,57,1,onethree,,,,,,,,,,,,,,,,,,,,,,,,,,,,,,,,,,,,,,,,,,,,,,,,,,,,,,,,,,,,,,,,,,,,,,,,,,,,,,,,,,,,,,,,,,,,,,,,,,,,,,,,,,,,,,,,,,,,,,,,,,,,,,,,,,,,,,,,,,,,,,,,,,,,,,,,
,,,,,,5fb0eec9fa92bc4ffa483efa,62bbfae1f6dc862c225f200b,2022-06-29_24h10.48.128,Colour_Asymmetry_Pilot,2022.1.3,Win32,60.19020104,62bbe60bf3d75ef465d3e404,0,91,91,85,1,threefour,,,,,,,,,,,,,,,,,,,,,,,,,,,,,,,,,,,,,,,,,,,,,,,,,,,,,,,,,,,,,,,,,,,,,,,,,,,,,,,,,,,,,,,,,,,,,,,,,,,,,,,,,,,,,,,,,,,,,,,,,,,,,,,,,,,,,,,,,,,,,,,,,,,,,,,,
,,,,,,5fb0eec9fa92bc4ffa483efa,62bbfae1f6dc862c225f200b,2022-06-29_24h10.48.128,Colour_Asymmetry_Pilot,2022.1.3,Win32,60.19020104,62bbe60bf3d75ef465d3e404,0,92,92,100,1,threeone,,,,,,,,,,,,,,,,,,,,,,,,,,,,,,,,,,,,,,,,,,,,,,,,,,,,,,,,,,,,,,,,,,,,,,,,,,,,,,,,,,,,,,,,,,,,,,,,,,,,,,,,,,,,,,,,,,,,,,,,,,,,,,,,,,,,,,,,,,,,,,,,,,,,,,,,
,,,,,,5fb0eec9fa92bc4ffa483efa,62bbfae1f6dc862c225f200b,2022-06-29_24h10.48.128,Colour_Asymmetry_Pilot,2022.1.3,Win32,60.19020104,62bbe60bf3d75ef465d3e404,0,93,93,19,1,twofour,,,,,,,,,,,,,,,,,,,,,,,,,,,,,,,,,,,,,,,,,,,,,,,,,,,,,,,,,,,,,,,,,,,,,,,,,,,,,,,,,,,,,,,,,,,,,,,,,,,,,,,,,,,,,,,,,,,,,,,,,,,,,,,,,,,,,,,,,,,,,,,,,,,,,,,,
,,,,,,5fb0eec9fa92bc4ffa483efa,62bbfae1f6dc862c225f200b,2022-06-29_24h10.48.128,Colour_Asymmetry_Pilot,2022.1.3,Win32,60.19020104,62bbe60bf3d75ef465d3e404,0,94,94,131,1,twofour,,,,,,,,,,,,,,,,,,,,,,,,,,,,,,,,,,,,,,,,,,,,,,,,,,,,,,,,,,,,,,,,,,,,,,,,,,,,,,,,,,,,,,,,,,,,,,,,,,,,,,,,,,,,,,,,,,,,,,,,,,,,,,,,,,,,,,,,,,,,,,,,,,,,,,,,
,,,,,,5fb0eec9fa92bc4ffa483efa,62bbfae1f6dc862c225f200b,2022-06-29_24h10.48.128,Colour_Asymmetry_Pilot,2022.1.3,Win32,60.19020104,62bbe60bf3d75ef465d3e404,0,95,95,82,1,twoone,,,,,,,,,,,,,,,,,,,,,,,,,,,,,,,,,,,,,,,,,,,,,,,,,,,,,,,,,,,,,,,,,,,,,,,,,,,,,,,,,,,,,,,,,,,,,,,,,,,,,,,,,,,,,,,,,,,,,,,,,,,,,,,,,,,,,,,,,,,,,,,,,,,,,,,,
,,,,,,5fb0eec9fa92bc4ffa483efa,62bbfae1f6dc862c225f200b,2022-06-29_24h10.48.128,Colour_Asymmetry_Pilot,2022.1.3,Win32,60.19020104,62bbe60bf3d75ef465d3e404,0,96,96,67,1,twofour,,,,,,,,,,,,,,,,,,,,,,,,,,,,,,,,,,,,,,,,,,,,,,,,,,,,,,,,,,,,,,,,,,,,,,,,,,,,,,,,,,,,,,,,,,,,,,,,,,,,,,,,,,,,,,,,,,,,,,,,,,,,,,,,,,,,,,,,,,,,,,,,,,,,,,,,
,,,,,,5fb0eec9fa92bc4ffa483efa,62bbfae1f6dc862c225f200b,2022-06-29_24h10.48.128,Colour_Asymmetry_Pilot,2022.1.3,Win32,60.19020104,62bbe60bf3d75ef465d3e404,0,97,97,50,1,twoone,,,,,,,,,,,,,,,,,,,,,,,,,,,,,,,,,,,,,,,,,,,,,,,,,,,,,,,,,,,,,,,,,,,,,,,,,,,,,,,,,,,,,,,,,,,,,,,,,,,,,,,,,,,,,,,,,,,,,,,,,,,,,,,,,,,,,,,,,,,,,,,,,,,,,,,,
,,,,,,5fb0eec9fa92bc4ffa483efa,62bbfae1f6dc862c225f200b,2022-06-29_24h10.48.128,Colour_Asymmetry_Pilot,2022.1.3,Win32,60.19020104,62bbe60bf3d75ef465d3e404,0,98,98,12,1,threeone,,,,,,,,,,,,,,,,,,,,,,,,,,,,,,,,,,,,,,,,,,,,,,,,,,,,,,,,,,,,,,,,,,,,,,,,,,,,,,,,,,,,,,,,,,,,,,,,,,,,,,,,,,,,,,,,,,,,,,,,,,,,,,,,,,,,,,,,,,,,,,,,,,,,,,,,
,,,,,,5fb0eec9fa92bc4ffa483efa,62bbfae1f6dc862c225f200b,2022-06-29_24h10.48.128,Colour_Asymmetry_Pilot,2022.1.3,Win32,60.19020104,62bbe60bf3d75ef465d3e404,0,99,99,75,1,twofour,,,,,,,,,,,,,,,,,,,,,,,,,,,,,,,,,,,,,,,,,,,,,,,,,,,,,,,,,,,,,,,,,,,,,,,,,,,,,,,,,,,,,,,,,,,,,,,,,,,,,,,,,,,,,,,,,,,,,,,,,,,,,,,,,,,,,,,,,,,,,,,,,,,,,,,,
,,,,,,5fb0eec9fa92bc4ffa483efa,62bbfae1f6dc862c225f200b,2022-06-29_24h10.48.128,Colour_Asymmetry_Pilot,2022.1.3,Win32,60.19020104,62bbe60bf3d75ef465d3e404,0,100,100,14,1,fourtwo,,,,,,,,,,,,,,,,,,,,,,,,,,,,,,,,,,,,,,,,,,,,,,,,,,,,,,,,,,,,,,,,,,,,,,,,,,,,,,,,,,,,,,,,,,,,,,,,,,,,,,,,,,,,,,,,,,,,,,,,,,,,,,,,,,,,,,,,,,,,,,,,,,,,,,,,
,,,,,,5fb0eec9fa92bc4ffa483efa,62bbfae1f6dc862c225f200b,2022-06-29_24h10.48.128,Colour_Asymmetry_Pilot,2022.1.3,Win32,60.19020104,62bbe60bf3d75ef465d3e404,0,101,101,20,1,threeone,,,,,,,,,,,,,,,,,,,,,,,,,,,,,,,,,,,,,,,,,,,,,,,,,,,,,,,,,,,,,,,,,,,,,,,,,,,,,,,,,,,,,,,,,,,,,,,,,,,,,,,,,,,,,,,,,,,,,,,,,,,,,,,,,,,,,,,,,,,,,,,,,,,,,,,,
,,,,,,5fb0eec9fa92bc4ffa483efa,62bbfae1f6dc862c225f200b,2022-06-29_24h10.48.128,Colour_Asymmetry_Pilot,2022.1.3,Win32,60.19020104,62bbe60bf3d75ef465d3e404,0,102,102,149,1,threefour,,,,,,,,,,,,,,,,,,,,,,,,,,,,,,,,,,,,,,,,,,,,,,,,,,,,,,,,,,,,,,,,,,,,,,,,,,,,,,,,,,,,,,,,,,,,,,,,,,,,,,,,,,,,,,,,,,,,,,,,,,,,,,,,,,,,,,,,,,,,,,,,,,,,,,,,
,,,,,,5fb0eec9fa92bc4ffa483efa,62bbfae1f6dc862c225f200b,2022-06-29_24h10.48.128,Colour_Asymmetry_Pilot,2022.1.3,Win32,60.19020104,62bbe60bf3d75ef465d3e404,0,103,103,135,1,fourthree,,,,,,,,,,,,,,,,,,,,,,,,,,,,,,,,,,,,,,,,,,,,,,,,,,,,,,,,,,,,,,,,,,,,,,,,,,,,,,,,,,,,,,,,,,,,,,,,,,,,,,,,,,,,,,,,,,,,,,,,,,,,,,,,,,,,,,,,,,,,,,,,,,,,,,,,
,,,,,,5fb0eec9fa92bc4ffa483efa,62bbfae1f6dc862c225f200b,2022-06-29_24h10.48.128,Colour_Asymmetry_Pilot,2022.1.3,Win32,60.19020104,62bbe60bf3d75ef465d3e404,0,104,104,51,1,twofour,,,,,,,,,,,,,,,,,,,,,,,,,,,,,,,,,,,,,,,,,,,,,,,,,,,,,,,,,,,,,,,,,,,,,,,,,,,,,,,,,,,,,,,,,,,,,,,,,,,,,,,,,,,,,,,,,,,,,,,,,,,,,,,,,,,,,,,,,,,,,,,,,,,,,,,,
,,,,,,5fb0eec9fa92bc4ffa483efa,62bbfae1f6dc862c225f200b,2022-06-29_24h10.48.128,Colour_Asymmetry_Pilot,2022.1.3,Win32,60.19020104,62bbe60bf3d75ef465d3e404,0,105,105,10,1,twoone,,,,,,,,,,,,,,,,,,,,,,,,,,,,,,,,,,,,,,,,,,,,,,,,,,,,,,,,,,,,,,,,,,,,,,,,,,,,,,,,,,,,,,,,,,,,,,,,,,,,,,,,,,,,,,,,,,,,,,,,,,,,,,,,,,,,,,,,,,,,,,,,,,,,,,,,
,,,,,,5fb0eec9fa92bc4ffa483efa,62bbfae1f6dc862c225f200b,2022-06-29_24h10.48.128,Colour_Asymmetry_Pilot,2022.1.3,Win32,60.19020104,62bbe60bf3d75ef465d3e404,0,106,106,112,1,onetwo,,,,,,,,,,,,,,,,,,,,,,,,,,,,,,,,,,,,,,,,,,,,,,,,,,,,,,,,,,,,,,,,,,,,,,,,,,,,,,,,,,,,,,,,,,,,,,,,,,,,,,,,,,,,,,,,,,,,,,,,,,,,,,,,,,,,,,,,,,,,,,,,,,,,,,,,
,,,,,,5fb0eec9fa92bc4ffa483efa,62bbfae1f6dc862c225f200b,2022-06-29_24h10.48.128,Colour_Asymmetry_Pilot,2022.1.3,Win32,60.19020104,62bbe60bf3d75ef465d3e404,0,107,107,90,1,twoone,,,,,,,,,,,,,,,,,,,,,,,,,,,,,,,,,,,,,,,,,,,,,,,,,,,,,,,,,,,,,,,,,,,,,,,,,,,,,,,,,,,,,,,,,,,,,,,,,,,,,,,,,,,,,,,,,,,,,,,,,,,,,,,,,,,,,,,,,,,,,,,,,,,,,,,,
,,,,,,5fb0eec9fa92bc4ffa483efa,62bbfae1f6dc862c225f200b,2022-06-29_24h10.48.128,Colour_Asymmetry_Pilot,2022.1.3,Win32,60.19020104,62bbe60bf3d75ef465d3e404,0,108,108,157,1,threefour,,,,,,,,,,,,,,,,,,,,,,,,,,,,,,,,,,,,,,,,,,,,,,,,,,,,,,,,,,,,,,,,,,,,,,,,,,,,,,,,,,,,,,,,,,,,,,,,,,,,,,,,,,,,,,,,,,,,,,,,,,,,,,,,,,,,,,,,,,,,,,,,,,,,,,,,
,,,,,,5fb0eec9fa92bc4ffa483efa,62bbfae1f6dc862c225f200b,2022-06-29_24h10.48.128,Colour_Asymmetry_Pilot,2022.1.3,Win32,60.19020104,62bbe60bf3d75ef465d3e404,0,109,109,5,1,threefour,,,,,,,,,,,,,,,,,,,,,,,,,,,,,,,,,,,,,,,,,,,,,,,,,,,,,,,,,,,,,,,,,,,,,,,,,,,,,,,,,,,,,,,,,,,,,,,,,,,,,,,,,,,,,,,,,,,,,,,,,,,,,,,,,,,,,,,,,,,,,,,,,,,,,,,,
,,,,,,5fb0eec9fa92bc4ffa483efa,62bbfae1f6dc862c225f200b,2022-06-29_24h10.48.128,Colour_Asymmetry_Pilot,2022.1.3,Win32,60.19020104,62bbe60bf3d75ef465d3e404,0,110,110,96,1,onetwo,,,,,,,,,,,,,,,,,,,,,,,,,,,,,,,,,,,,,,,,,,,,,,,,,,,,,,,,,,,,,,,,,,,,,,,,,,,,,,,,,,,,,,,,,,,,,,,,,,,,,,,,,,,,,,,,,,,,,,,,,,,,,,,,,,,,,,,,,,,,,,,,,,,,,,,,
,,,,,,5fb0eec9fa92bc4ffa483efa,62bbfae1f6dc862c225f200b,2022-06-29_24h10.48.128,Colour_Asymmetry_Pilot,2022.1.3,Win32,60.19020104,62bbe60bf3d75ef465d3e404,0,111,111,84,1,threeone,,,,,,,,,,,,,,,,,,,,,,,,,,,,,,,,,,,,,,,,,,,,,,,,,,,,,,,,,,,,,,,,,,,,,,,,,,,,,,,,,,,,,,,,,,,,,,,,,,,,,,,,,,,,,,,,,,,,,,,,,,,,,,,,,,,,,,,,,,,,,,,,,,,,,,,,
,,,,,,5fb0eec9fa92bc4ffa483efa,62bbfae1f6dc862c225f200b,2022-06-29_24h10.48.128,Colour_Asymmetry_Pilot,2022.1.3,Win32,60.19020104,62bbe60bf3d75ef465d3e404,0,112,112,76,1,threeone,,,,,,,,,,,,,,,,,,,,,,,,,,,,,,,,,,,,,,,,,,,,,,,,,,,,,,,,,,,,,,,,,,,,,,,,,,,,,,,,,,,,,,,,,,,,,,,,,,,,,,,,,,,,,,,,,,,,,,,,,,,,,,,,,,,,,,,,,,,,,,,,,,,,,,,,
,,,,,,5fb0eec9fa92bc4ffa483efa,62bbfae1f6dc862c225f200b,2022-06-29_24h10.48.128,Colour_Asymmetry_Pilot,2022.1.3,Win32,60.19020104,62bbe60bf3d75ef465d3e404,0,113,113,129,1,onethree,,,,,,,,,,,,,,,,,,,,,,,,,,,,,,,,,,,,,,,,,,,,,,,,,,,,,,,,,,,,,,,,,,,,,,,,,,,,,,,,,,,,,,,,,,,,,,,,,,,,,,,,,,,,,,,,,,,,,,,,,,,,,,,,,,,,,,,,,,,,,,,,,,,,,,,,
,,,,,,5fb0eec9fa92bc4ffa483efa,62bbfae1f6dc862c225f200b,2022-06-29_24h10.48.128,Colour_Asymmetry_Pilot,2022.1.3,Win32,60.19020104,62bbe60bf3d75ef465d3e404,0,114,114,92,1,threeone,,,,,,,,,,,,,,,,,,,,,,,,,,,,,,,,,,,,,,,,,,,,,,,,,,,,,,,,,,,,,,,,,,,,,,,,,,,,,,,,,,,,,,,,,,,,,,,,,,,,,,,,,,,,,,,,,,,,,,,,,,,,,,,,,,,,,,,,,,,,,,,,,,,,,,,,
,,,,,,5fb0eec9fa92bc4ffa483efa,62bbfae1f6dc862c225f200b,2022-06-29_24h10.48.128,Colour_Asymmetry_Pilot,2022.1.3,Win32,60.19020104,62bbe60bf3d75ef465d3e404,0,115,115,28,1,threeone,,,,,,,,,,,,,,,,,,,,,,,,,,,,,,,,,,,,,,,,,,,,,,,,,,,,,,,,,,,,,,,,,,,,,,,,,,,,,,,,,,,,,,,,,,,,,,,,,,,,,,,,,,,,,,,,,,,,,,,,,,,,,,,,,,,,,,,,,,,,,,,,,,,,,,,,
,,,,,,5fb0eec9fa92bc4ffa483efa,62bbfae1f6dc862c225f200b,2022-06-29_24h10.48.128,Colour_Asymmetry_Pilot,2022.1.3,Win32,60.19020104,62bbe60bf3d75ef465d3e404,0,116,116,33,1,onethree,,,,,,,,,,,,,,,,,,,,,,,,,,,,,,,,,,,,,,,,,,,,,,,,,,,,,,,,,,,,,,,,,,,,,,,,,,,,,,,,,,,,,,,,,,,,,,,,,,,,,,,,,,,,,,,,,,,,,,,,,,,,,,,,,,,,,,,,,,,,,,,,,,,,,,,,
,,,,,,5fb0eec9fa92bc4ffa483efa,62bbfae1f6dc862c225f200b,2022-06-29_24h10.48.128,Colour_Asymmetry_Pilot,2022.1.3,Win32,60.19020104,62bbe60bf3d75ef465d3e404,0,117,117,42,1,twoone,,,,,,,,,,,,,,,,,,,,,,,,,,,,,,,,,,,,,,,,,,,,,,,,,,,,,,,,,,,,,,,,,,,,,,,,,,,,,,,,,,,,,,,,,,,,,,,,,,,,,,,,,,,,,,,,,,,,,,,,,,,,,,,,,,,,,,,,,,,,,,,,,,,,,,,,
,,,,,,5fb0eec9fa92bc4ffa483efa,62bbfae1f6dc862c225f200b,2022-06-29_24h10.48.128,Colour_Asymmetry_Pilot,2022.1.3,Win32,60.19020104,62bbe60bf3d75ef465d3e404,0,118,118,136,1,onetwo,,,,,,,,,,,,,,,,,,,,,,,,,,,,,,,,,,,,,,,,,,,,,,,,,,,,,,,,,,,,,,,,,,,,,,,,,,,,,,,,,,,,,,,,,,,,,,,,,,,,,,,,,,,,,,,,,,,,,,,,,,,,,,,,,,,,,,,,,,,,,,,,,,,,,,,,
,,,,,,5fb0eec9fa92bc4ffa483efa,62bbfae1f6dc862c225f200b,2022-06-29_24h10.48.128,Colour_Asymmetry_Pilot,2022.1.3,Win32,60.19020104,62bbe60bf3d75ef465d3e404,0,119,119,106,1,twoone,,,,,,,,,,,,,,,,,,,,,,,,,,,,,,,,,,,,,,,,,,,,,,,,,,,,,,,,,,,,,,,,,,,,,,,,,,,,,,,,,,,,,,,,,,,,,,,,,,,,,,,,,,,,,,,,,,,,,,,,,,,,,,,,,,,,,,,,,,,,,,,,,,,,,,,,
,,,,,,5fb0eec9fa92bc4ffa483efa,62bbfae1f6dc862c225f200b,2022-06-29_24h10.48.128,Colour_Asymmetry_Pilot,2022.1.3,Win32,60.19020104,62bbe60bf3d75ef465d3e404,0,120,120,133,1,threefour,,,,,,,,,,,,,,,,,,,,,,,,,,,,,,,,,,,,,,,,,,,,,,,,,,,,,,,,,,,,,,,,,,,,,,,,,,,,,,,,,,,,,,,,,,,,,,,,,,,,,,,,,,,,,,,,,,,,,,,,,,,,,,,,,,,,,,,,,,,,,,,,,,,,,,,,
,,,,,,5fb0eec9fa92bc4ffa483efa,62bbfae1f6dc862c225f200b,2022-06-29_24h10.48.128,Colour_Asymmetry_Pilot,2022.1.3,Win32,60.19020104,62bbe60bf3d75ef465d3e404,0,121,121,127,1,fourthree,,,,,,,,,,,,,,,,,,,,,,,,,,,,,,,,,,,,,,,,,,,,,,,,,,,,,,,,,,,,,,,,,,,,,,,,,,,,,,,,,,,,,,,,,,,,,,,,,,,,,,,,,,,,,,,,,,,,,,,,,,,,,,,,,,,,,,,,,,,,,,,,,,,,,,,,
,,,,,,5fb0eec9fa92bc4ffa483efa,62bbfae1f6dc862c225f200b,2022-06-29_24h10.48.128,Colour_Asymmetry_Pilot,2022.1.3,Win32,60.19020104,62bbe60bf3d75ef465d3e404,0,122,122,24,1,onetwo,,,,,,,,,,,,,,,,,,,,,,,,,,,,,,,,,,,,,,,,,,,,,,,,,,,,,,,,,,,,,,,,,,,,,,,,,,,,,,,,,,,,,,,,,,,,,,,,,,,,,,,,,,,,,,,,,,,,,,,,,,,,,,,,,,,,,,,,,,,,,,,,,,,,,,,,
,,,,,,5fb0eec9fa92bc4ffa483efa,62bbfae1f6dc862c225f200b,2022-06-29_24h10.48.128,Colour_Asymmetry_Pilot,2022.1.3,Win32,60.19020104,62bbe60bf3d75ef465d3e404,0,123,123,87,1,fourthree,,,,,,,,,,,,,,,,,,,,,,,,,,,,,,,,,,,,,,,,,,,,,,,,,,,,,,,,,,,,,,,,,,,,,,,,,,,,,,,,,,,,,,,,,,,,,,,,,,,,,,,,,,,,,,,,,,,,,,,,,,,,,,,,,,,,,,,,,,,,,,,,,,,,,,,,
,,,,,,5fb0eec9fa92bc4ffa483efa,62bbfae1f6dc862c225f200b,2022-06-29_24h10.48.128,Colour_Asymmetry_Pilot,2022.1.3,Win32,60.19020104,62bbe60bf3d75ef465d3e404,0,124,124,113,1,onethree,,,,,,,,,,,,,,,,,,,,,,,,,,,,,,,,,,,,,,,,,,,,,,,,,,,,,,,,,,,,,,,,,,,,,,,,,,,,,,,,,,,,,,,,,,,,,,,,,,,,,,,,,,,,,,,,,,,,,,,,,,,,,,,,,,,,,,,,,,,,,,,,,,,,,,,,
,,,,,,5fb0eec9fa92bc4ffa483efa,62bbfae1f6dc862c225f200b,2022-06-29_24h10.48.128,Colour_Asymmetry_Pilot,2022.1.3,Win32,60.19020104,62bbe60bf3d75ef465d3e404,0,125,125,54,1,fourtwo,,,,,,,,,,,,,,,,,,,,,,,,,,,,,,,,,,,,,,,,,,,,,,,,,,,,,,,,,,,,,,,,,,,,,,,,,,,,,,,,,,,,,,,,,,,,,,,,,,,,,,,,,,,,,,,,,,,,,,,,,,,,,,,,,,,,,,,,,,,,,,,,,,,,,,,,
,,,,,,5fb0eec9fa92bc4ffa483efa,62bbfae1f6dc862c225f200b,2022-06-29_24h10.48.128,Colour_Asymmetry_Pilot,2022.1.3,Win32,60.19020104,62bbe60bf3d75ef465d3e404,0,126,126,94,1,fourtwo,,,,,,,,,,,,,,,,,,,,,,,,,,,,,,,,,,,,,,,,,,,,,,,,,,,,,,,,,,,,,,,,,,,,,,,,,,,,,,,,,,,,,,,,,,,,,,,,,,,,,,,,,,,,,,,,,,,,,,,,,,,,,,,,,,,,,,,,,,,,,,,,,,,,,,,,
,,,,,,5fb0eec9fa92bc4ffa483efa,62bbfae1f6dc862c225f200b,2022-06-29_24h10.48.128,Colour_Asymmetry_Pilot,2022.1.3,Win32,60.19020104,62bbe60bf3d75ef465d3e404,0,127,127,155,1,twofour,,,,,,,,,,,,,,,,,,,,,,,,,,,,,,,,,,,,,,,,,,,,,,,,,,,,,,,,,,,,,,,,,,,,,,,,,,,,,,,,,,,,,,,,,,,,,,,,,,,,,,,,,,,,,,,,,,,,,,,,,,,,,,,,,,,,,,,,,,,,,,,,,,,,,,,,
,,,,,,5fb0eec9fa92bc4ffa483efa,62bbfae1f6dc862c225f200b,2022-06-29_24h10.48.128,Colour_Asymmetry_Pilot,2022.1.3,Win32,60.19020104,62bbe60bf3d75ef465d3e404,0,128,128,46,1,fourtwo,,,,,,,,,,,,,,,,,,,,,,,,,,,,,,,,,,,,,,,,,,,,,,,,,,,,,,,,,,,,,,,,,,,,,,,,,,,,,,,,,,,,,,,,,,,,,,,,,,,,,,,,,,,,,,,,,,,,,,,,,,,,,,,,,,,,,,,,,,,,,,,,,,,,,,,,
,,,,,,5fb0eec9fa92bc4ffa483efa,62bbfae1f6dc862c225f200b,2022-06-29_24h10.48.128,Colour_Asymmetry_Pilot,2022.1.3,Win32,60.19020104,62bbe60bf3d75ef465d3e404,0,129,129,47,1,fourthree,,,,,,,,,,,,,,,,,,,,,,,,,,,,,,,,,,,,,,,,,,,,,,,,,,,,,,,,,,,,,,,,,,,,,,,,,,,,,,,,,,,,,,,,,,,,,,,,,,,,,,,,,,,,,,,,,,,,,,,,,,,,,,,,,,,,,,,,,,,,,,,,,,,,,,,,
,,,,,,5fb0eec9fa92bc4ffa483efa,62bbfae1f6dc862c225f200b,2022-06-29_24h10.48.128,Colour_Asymmetry_Pilot,2022.1.3,Win32,60.19020104,62bbe60bf3d75ef465d3e404,0,130,130,121,1,onethree,,,,,,,,,,,,,,,,,,,,,,,,,,,,,,,,,,,,,,,,,,,,,,,,,,,,,,,,,,,,,,,,,,,,,,,,,,,,,,,,,,,,,,,,,,,,,,,,,,,,,,,,,,,,,,,,,,,,,,,,,,,,,,,,,,,,,,,,,,,,,,,,,,,,,,,,
,,,,,,5fb0eec9fa92bc4ffa483efa,62bbfae1f6dc862c225f200b,2022-06-29_24h10.48.128,Colour_Asymmetry_Pilot,2022.1.3,Win32,60.19020104,62bbe60bf3d75ef465d3e404,0,131,131,122,1,twoone,,,,,,,,,,,,,,,,,,,,,,,,,,,,,,,,,,,,,,,,,,,,,,,,,,,,,,,,,,,,,,,,,,,,,,,,,,,,,,,,,,,,,,,,,,,,,,,,,,,,,,,,,,,,,,,,,,,,,,,,,,,,,,,,,,,,,,,,,,,,,,,,,,,,,,,,
,,,,,,5fb0eec9fa92bc4ffa483efa,62bbfae1f6dc862c225f200b,2022-06-29_24h10.48.128,Colour_Asymmetry_Pilot,2022.1.3,Win32,60.19020104,62bbe60bf3d75ef465d3e404,0,132,132,95,1,fourthree,,,,,,,,,,,,,,,,,,,,,,,,,,,,,,,,,,,,,,,,,,,,,,,,,,,,,,,,,,,,,,,,,,,,,,,,,,,,,,,,,,,,,,,,,,,,,,,,,,,,,,,,,,,,,,,,,,,,,,,,,,,,,,,,,,,,,,,,,,,,,,,,,,,,,,,,
,,,,,,5fb0eec9fa92bc4ffa483efa,62bbfae1f6dc862c225f200b,2022-06-29_24h10.48.128,Colour_Asymmetry_Pilot,2022.1.3,Win32,60.19020104,62bbe60bf3d75ef465d3e404,0,133,133,110,1,fourtwo,,,,,,,,,,,,,,,,,,,,,,,,,,,,,,,,,,,,,,,,,,,,,,,,,,,,,,,,,,,,,,,,,,,,,,,,,,,,,,,,,,,,,,,,,,,,,,,,,,,,,,,,,,,,,,,,,,,,,,,,,,,,,,,,,,,,,,,,,,,,,,,,,,,,,,,,
,,,,,,5fb0eec9fa92bc4ffa483efa,62bbfae1f6dc862c225f200b,2022-06-29_24h10.48.128,Colour_Asymmetry_Pilot,2022.1.3,Win32,60.19020104,62bbe60bf3d75ef465d3e404,0,134,134,9,1,onethree,,,,,,,,,,,,,,,,,,,,,,,,,,,,,,,,,,,,,,,,,,,,,,,,,,,,,,,,,,,,,,,,,,,,,,,,,,,,,,,,,,,,,,,,,,,,,,,,,,,,,,,,,,,,,,,,,,,,,,,,,,,,,,,,,,,,,,,,,,,,,,,,,,,,,,,,
,,,,,,5fb0eec9fa92bc4ffa483efa,62bbfae1f6dc862c225f200b,2022-06-29_24h10.48.128,Colour_Asymmetry_Pilot,2022.1.3,Win32,60.19020104,62bbe60bf3d75ef465d3e404,0,135,135,145,1,onethree,,,,,,,,,,,,,,,,,,,,,,,,,,,,,,,,,,,,,,,,,,,,,,,,,,,,,,,,,,,,,,,,,,,,,,,,,,,,,,,,,,,,,,,,,,,,,,,,,,,,,,,,,,,,,,,,,,,,,,,,,,,,,,,,,,,,,,,,,,,,,,,,,,,,,,,,
,,,,,,5fb0eec9fa92bc4ffa483efa,62bbfae1f6dc862c225f200b,2022-06-29_24h10.48.128,Colour_Asymmetry_Pilot,2022.1.3,Win32,60.19020104,62bbe60bf3d75ef465d3e404,0,136,136,125,1,threefour,,,,,,,,,,,,,,,,,,,,,,,,,,,,,,,,,,,,,,,,,,,,,,,,,,,,,,,,,,,,,,,,,,,,,,,,,,,,,,,,,,,,,,,,,,,,,,,,,,,,,,,,,,,,,,,,,,,,,,,,,,,,,,,,,,,,,,,,,,,,,,,,,,,,,,,,
,,,,,,5fb0eec9fa92bc4ffa483efa,62bbfae1f6dc862c225f200b,2022-06-29_24h10.48.128,Colour_Asymmetry_Pilot,2022.1.3,Win32,60.19020104,62bbe60bf3d75ef465d3e404,0,137,137,115,1,twofour,,,,,,,,,,,,,,,,,,,,,,,,,,,,,,,,,,,,,,,,,,,,,,,,,,,,,,,,,,,,,,,,,,,,,,,,,,,,,,,,,,,,,,,,,,,,,,,,,,,,,,,,,,,,,,,,,,,,,,,,,,,,,,,,,,,,,,,,,,,,,,,,,,,,,,,,
,,,,,,5fb0eec9fa92bc4ffa483efa,62bbfae1f6dc862c225f200b,2022-06-29_24h10.48.128,Colour_Asymmetry_Pilot,2022.1.3,Win32,60.19020104,62bbe60bf3d75ef465d3e404,0,138,138,78,1,fourtwo,,,,,,,,,,,,,,,,,,,,,,,,,,,,,,,,,,,,,,,,,,,,,,,,,,,,,,,,,,,,,,,,,,,,,,,,,,,,,,,,,,,,,,,,,,,,,,,,,,,,,,,,,,,,,,,,,,,,,,,,,,,,,,,,,,,,,,,,,,,,,,,,,,,,,,,,
,,,,,,5fb0eec9fa92bc4ffa483efa,62bbfae1f6dc862c225f200b,2022-06-29_24h10.48.128,Colour_Asymmetry_Pilot,2022.1.3,Win32,60.19020104,62bbe60bf3d75ef465d3e404,0,139,139,91,1,twofour,,,,,,,,,,,,,,,,,,,,,,,,,,,,,,,,,,,,,,,,,,,,,,,,,,,,,,,,,,,,,,,,,,,,,,,,,,,,,,,,,,,,,,,,,,,,,,,,,,,,,,,,,,,,,,,,,,,,,,,,,,,,,,,,,,,,,,,,,,,,,,,,,,,,,,,,
,,,,,,5fb0eec9fa92bc4ffa483efa,62bbfae1f6dc862c225f200b,2022-06-29_24h10.48.128,Colour_Asymmetry_Pilot,2022.1.3,Win32,60.19020104,62bbe60bf3d75ef465d3e404,0,140,140,30,1,fourtwo,,,,,,,,,,,,,,,,,,,,,,,,,,,,,,,,,,,,,,,,,,,,,,,,,,,,,,,,,,,,,,,,,,,,,,,,,,,,,,,,,,,,,,,,,,,,,,,,,,,,,,,,,,,,,,,,,,,,,,,,,,,,,,,,,,,,,,,,,,,,,,,,,,,,,,,,
,,,,,,5fb0eec9fa92bc4ffa483efa,62bbfae1f6dc862c225f200b,2022-06-29_24h10.48.128,Colour_Asymmetry_Pilot,2022.1.3,Win32,60.19020104,62bbe60bf3d75ef465d3e404,0,141,141,142,1,fourtwo,,,,,,,,,,,,,,,,,,,,,,,,,,,,,,,,,,,,,,,,,,,,,,,,,,,,,,,,,,,,,,,,,,,,,,,,,,,,,,,,,,,,,,,,,,,,,,,,,,,,,,,,,,,,,,,,,,,,,,,,,,,,,,,,,,,,,,,,,,,,,,,,,,,,,,,,
,,,,,,5fb0eec9fa92bc4ffa483efa,62bbfae1f6dc862c225f200b,2022-06-29_24h10.48.128,Colour_Asymmetry_Pilot,2022.1.3,Win32,60.19020104,62bbe60bf3d75ef465d3e404,0,142,142,72,1,onetwo,,,,,,,,,,,,,,,,,,,,,,,,,,,,,,,,,,,,,,,,,,,,,,,,,,,,,,,,,,,,,,,,,,,,,,,,,,,,,,,,,,,,,,,,,,,,,,,,,,,,,,,,,,,,,,,,,,,,,,,,,,,,,,,,,,,,,,,,,,,,,,,,,,,,,,,,
,,,,,,5fb0eec9fa92bc4ffa483efa,62bbfae1f6dc862c225f200b,2022-06-29_24h10.48.128,Colour_Asymmetry_Pilot,2022.1.3,Win32,60.19020104,62bbe60bf3d75ef465d3e404,0,143,143,16,1,onetwo,,,,,,,,,,,,,,,,,,,,,,,,,,,,,,,,,,,,,,,,,,,,,,,,,,,,,,,,,,,,,,,,,,,,,,,,,,,,,,,,,,,,,,,,,,,,,,,,,,,,,,,,,,,,,,,,,,,,,,,,,,,,,,,,,,,,,,,,,,,,,,,,,,,,,,,,
,,,,,,5fb0eec9fa92bc4ffa483efa,62bbfae1f6dc862c225f200b,2022-06-29_24h10.48.128,Colour_Asymmetry_Pilot,2022.1.3,Win32,60.19020104,62bbe60bf3d75ef465d3e404,0,144,144,39,1,fourthree,,,,,,,,,,,,,,,,,,,,,,,,,,,,,,,,,,,,,,,,,,,,,,,,,,,,,,,,,,,,,,,,,,,,,,,,,,,,,,,,,,,,,,,,,,,,,,,,,,,,,,,,,,,,,,,,,,,,,,,,,,,,,,,,,,,,,,,,,,,,,,,,,,,,,,,,
,,,,,,5fb0eec9fa92bc4ffa483efa,62bbfae1f6dc862c225f200b,2022-06-29_24h10.48.128,Colour_Asymmetry_Pilot,2022.1.3,Win32,60.19020104,62bbe60bf3d75ef465d3e404,0,145,145,55,1,fourthree,,,,,,,,,,,,,,,,,,,,,,,,,,,,,,,,,,,,,,,,,,,,,,,,,,,,,,,,,,,,,,,,,,,,,,,,,,,,,,,,,,,,,,,,,,,,,,,,,,,,,,,,,,,,,,,,,,,,,,,,,,,,,,,,,,,,,,,,,,,,,,,,,,,,,,,,
,,,,,,5fb0eec9fa92bc4ffa483efa,62bbfae1f6dc862c225f200b,2022-06-29_24h10.48.128,Colour_Asymmetry_Pilot,2022.1.3,Win32,60.19020104,62bbe60bf3d75ef465d3e404,0,146,146,114,1,twoone,,,,,,,,,,,,,,,,,,,,,,,,,,,,,,,,,,,,,,,,,,,,,,,,,,,,,,,,,,,,,,,,,,,,,,,,,,,,,,,,,,,,,,,,,,,,,,,,,,,,,,,,,,,,,,,,,,,,,,,,,,,,,,,,,,,,,,,,,,,,,,,,,,,,,,,,
,,,,,,5fb0eec9fa92bc4ffa483efa,62bbfae1f6dc862c225f200b,2022-06-29_24h10.48.128,Colour_Asymmetry_Pilot,2022.1.3,Win32,60.19020104,62bbe60bf3d75ef465d3e404,0,147,147,58,1,twoone,,,,,,,,,,,,,,,,,,,,,,,,,,,,,,,,,,,,,,,,,,,,,,,,,,,,,,,,,,,,,,,,,,,,,,,,,,,,,,,,,,,,,,,,,,,,,,,,,,,,,,,,,,,,,,,,,,,,,,,,,,,,,,,,,,,,,,,,,,,,,,,,,,,,,,,,
,,,,,,5fb0eec9fa92bc4ffa483efa,62bbfae1f6dc862c225f200b,2022-06-29_24h10.48.128,Colour_Asymmetry_Pilot,2022.1.3,Win32,60.19020104,62bbe60bf3d75ef465d3e404,0,148,148,52,1,threeone,,,,,,,,,,,,,,,,,,,,,,,,,,,,,,,,,,,,,,,,,,,,,,,,,,,,,,,,,,,,,,,,,,,,,,,,,,,,,,,,,,,,,,,,,,,,,,,,,,,,,,,,,,,,,,,,,,,,,,,,,,,,,,,,,,,,,,,,,,,,,,,,,,,,,,,,
,,,,,,5fb0eec9fa92bc4ffa483efa,62bbfae1f6dc862c225f200b,2022-06-29_24h10.48.128,Colour_Asymmetry_Pilot,2022.1.3,Win32,60.19020104,62bbe60bf3d75ef465d3e404,0,149,149,71,1,fourthree,,,,,,,,,,,,,,,,,,,,,,,,,,,,,,,,,,,,,,,,,,,,,,,,,,,,,,,,,,,,,,,,,,,,,,,,,,,,,,,,,,,,,,,,,,,,,,,,,,,,,,,,,,,,,,,,,,,,,,,,,,,,,,,,,,,,,,,,,,,,,,,,,,,,,,,,
,,,,,,5fb0eec9fa92bc4ffa483efa,62bbfae1f6dc862c225f200b,2022-06-29_24h10.48.128,Colour_Asymmetry_Pilot,2022.1.3,Win32,60.19020104,62bbe60bf3d75ef465d3e404,0,150,150,36,1,threeone,,,,,,,,,,,,,,,,,,,,,,,,,,,,,,,,,,,,,,,,,,,,,,,,,,,,,,,,,,,,,,,,,,,,,,,,,,,,,,,,,,,,,,,,,,,,,,,,,,,,,,,,,,,,,,,,,,,,,,,,,,,,,,,,,,,,,,,,,,,,,,,,,,,,,,,,
,,,,,,5fb0eec9fa92bc4ffa483efa,62bbfae1f6dc862c225f200b,2022-06-29_24h10.48.128,Colour_Asymmetry_Pilot,2022.1.3,Win32,60.19020104,62bbe60bf3d75ef465d3e404,0,151,151,117,1,threefour,,,,,,,,,,,,,,,,,,,,,,,,,,,,,,,,,,,,,,,,,,,,,,,,,,,,,,,,,,,,,,,,,,,,,,,,,,,,,,,,,,,,,,,,,,,,,,,,,,,,,,,,,,,,,,,,,,,,,,,,,,,,,,,,,,,,,,,,,,,,,,,,,,,,,,,,
,,,,,,5fb0eec9fa92bc4ffa483efa,62bbfae1f6dc862c225f200b,2022-06-29_24h10.48.128,Colour_Asymmetry_Pilot,2022.1.3,Win32,60.19020104,62bbe60bf3d75ef465d3e404,0,152,152,128,1,onetwo,,,,,,,,,,,,,,,,,,,,,,,,,,,,,,,,,,,,,,,,,,,,,,,,,,,,,,,,,,,,,,,,,,,,,,,,,,,,,,,,,,,,,,,,,,,,,,,,,,,,,,,,,,,,,,,,,,,,,,,,,,,,,,,,,,,,,,,,,,,,,,,,,,,,,,,,
,,,,,,5fb0eec9fa92bc4ffa483efa,62bbfae1f6dc862c225f200b,2022-06-29_24h10.48.128,Colour_Asymmetry_Pilot,2022.1.3,Win32,60.19020104,62bbe60bf3d75ef465d3e404,0,153,153,26,1,twoone,,,,,,,,,,,,,,,,,,,,,,,,,,,,,,,,,,,,,,,,,,,,,,,,,,,,,,,,,,,,,,,,,,,,,,,,,,,,,,,,,,,,,,,,,,,,,,,,,,,,,,,,,,,,,,,,,,,,,,,,,,,,,,,,,,,,,,,,,,,,,,,,,,,,,,,,
,,,,,,5fb0eec9fa92bc4ffa483efa,62bbfae1f6dc862c225f200b,2022-06-29_24h10.48.128,Colour_Asymmetry_Pilot,2022.1.3,Win32,60.19020104,62bbe60bf3d75ef465d3e404,0,154,154,22,1,fourtwo,,,,,,,,,,,,,,,,,,,,,,,,,,,,,,,,,,,,,,,,,,,,,,,,,,,,,,,,,,,,,,,,,,,,,,,,,,,,,,,,,,,,,,,,,,,,,,,,,,,,,,,,,,,,,,,,,,,,,,,,,,,,,,,,,,,,,,,,,,,,,,,,,,,,,,,,
,,,,,,5fb0eec9fa92bc4ffa483efa,62bbfae1f6dc862c225f200b,2022-06-29_24h10.48.128,Colour_Asymmetry_Pilot,2022.1.3,Win32,60.19020104,62bbe60bf3d75ef465d3e404,0,155,155,144,1,onetwo,,,,,,,,,,,,,,,,,,,,,,,,,,,,,,,,,,,,,,,,,,,,,,,,,,,,,,,,,,,,,,,,,,,,,,,,,,,,,,,,,,,,,,,,,,,,,,,,,,,,,,,,,,,,,,,,,,,,,,,,,,,,,,,,,,,,,,,,,,,,,,,,,,,,,,,,
,,,,,,5fb0eec9fa92bc4ffa483efa,62bbfae1f6dc862c225f200b,2022-06-29_24h10.48.128,Colour_Asymmetry_Pilot,2022.1.3,Win32,60.19020104,62bbe60bf3d75ef465d3e404,0,156,156,143,1,fourthree,,,,,,,,,,,,,,,,,,,,,,,,,,,,,,,,,,,,,,,,,,,,,,,,,,,,,,,,,,,,,,,,,,,,,,,,,,,,,,,,,,,,,,,,,,,,,,,,,,,,,,,,,,,,,,,,,,,,,,,,,,,,,,,,,,,,,,,,,,,,,,,,,,,,,,,,
,,,,,,5fb0eec9fa92bc4ffa483efa,62bbfae1f6dc862c225f200b,2022-06-29_24h10.48.128,Colour_Asymmetry_Pilot,2022.1.3,Win32,60.19020104,62bbe60bf3d75ef465d3e404,0,157,157,146,1,twoone,,,,,,,,,,,,,,,,,,,,,,,,,,,,,,,,,,,,,,,,,,,,,,,,,,,,,,,,,,,,,,,,,,,,,,,,,,,,,,,,,,,,,,,,,,,,,,,,,,,,,,,,,,,,,,,,,,,,,,,,,,,,,,,,,,,,,,,,,,,,,,,,,,,,,,,,
,,,,,,5fb0eec9fa92bc4ffa483efa,62bbfae1f6dc862c225f200b,2022-06-29_24h10.48.128,Colour_Asymmetry_Pilot,2022.1.3,Win32,60.19020104,62bbe60bf3d75ef465d3e404,0,158,158,70,1,fourtwo,,,,,,,,,,,,,,,,,,,,,,,,,,,,,,,,,,,,,,,,,,,,,,,,,,,,,,,,,,,,,,,,,,,,,,,,,,,,,,,,,,,,,,,,,,,,,,,,,,,,,,,,,,,,,,,,,,,,,,,,,,,,,,,,,,,,,,,,,,,,,,,,,,,,,,,,
,,,,,,5fb0eec9fa92bc4ffa483efa,62bbfae1f6dc862c225f200b,2022-06-29_24h10.48.128,Colour_Asymmetry_Pilot,2022.1.3,Win32,60.19020104,62bbe60bf3d75ef465d3e404,0,159,159,29,1,threefour,,,,,,,,,,,,,,,,,,,,,,,,,,,,,,,,,,,,,,,,,,,,,,,,,,,,,,,,,,,,,,,,,,,,,,,,,,,,,,,,,,,,,,,,,,,,,,,,,,,,,,,,,,,,,,,,,,,,,,,,,,,,,,,,,,,,,,,,,,,,,,,,,,,,,,,,
,,,,,,5fb0eec9fa92bc4ffa483efa,62bbfae1f6dc862c225f200b,2022-06-29_24h10.48.128,Colour_Asymmetry_Pilot,2022.1.3,Win32,60.19020104,62bbe60bf3d75ef465d3e404,0,160,160,68,1,threeone,,,,,,,,,,,,,,,,,,,,,,,,,,,,,,,,,,,,,,,,,,,,,,,,,,,,,,,,,,,,,,,,,,,,,,,,,,,,,,,,,,,,,,,,,,,,,,,,,,,,,,,,,,,,,,,,,,,,,,,,,,,,,,,,,,,,,,,,,,,,,,,,,,,,,,,,
,,,,,,5fb0eec9fa92bc4ffa483efa,62bbfae1f6dc862c225f200b,2022-06-29_24h10.48.128,Colour_Asymmetry_Pilot,2022.1.3,Win32,60.19020104,62bbe60bf3d75ef465d3e404,0,161,161,97,1,onethree,,,,,,,,,,,,,,,,,,,,,,,,,,,,,,,,,,,,,,,,,,,,,,,,,,,,,,,,,,,,,,,,,,,,,,,,,,,,,,,,,,,,,,,,,,,,,,,,,,,,,,,,,,,,,,,,,,,,,,,,,,,,,,,,,,,,,,,,,,,,,,,,,,,,,,,,
,,,,,,5fb0eec9fa92bc4ffa483efa,62bbfae1f6dc862c225f200b,2022-06-29_24h10.48.128,Colour_Asymmetry_Pilot,2022.1.3,Win32,60.19020104,62bbe60bf3d75ef465d3e404,,,,,,,space,2.4568,space,5.8977,space,86.1496,space,12.6436,space,1.4351,space,2.8421,"[0.3568,-0.20799999999999996,-0.9844]",onethree,"[1,0.12939999999999996,-1]",1,10.3073,51,-93,1,0,0,response3disk_5,-6,5,1,0,0,rectangle_8,53,-123,1,0,0,response3disk_7,4,1,-8,-5,1,0,0,rectangle_4,0,0,0,0,1,,,,,,,,,,,,,,,,,,,,,,,,,,,,,,,,,,,,,,,,,,,,,,,,,,,,,,,,,,,,,,,,,,,,,,,,,,,,,,,,,,,,,,,,,,,,,,,,,,,,,,,,
,,,,,,5fb0eec9fa92bc4ffa483efa,62bbfae1f6dc862c225f200b,2022-06-29_24h10.48.128,Colour_Asymmetry_Pilot,2022.1.3,Win32,60.19020104,62bbe60bf3d75ef465d3e404,,,,,,,,,,,,,,,,,,,"[-0.20799999999999996,-0.655,-0.01980000000000004]",fourtwo,"[-0.24719999999999998,-0.0354000000000001,0.3175999999999999]",1,4.5503,42,-104,1,0,0,response3disk_5,-10,11,1,0,0,rectangle_8,-10,11,1,0,0,,,1,-10,11,1,0,0,,1,0,1,0,1,,,,,,,,,,,,,,,,,,,,,,,,,,,,,,,,,,,,,,,,,,,,,,,,,,,,,,,,,,,,,,,,,,,,,,,,,,,,,,,,,,,,,,,,,,,,,,,,,,,,,,,,
,,,,,,5fb0eec9fa92bc4ffa483efa,62bbfae1f6dc862c225f200b,2022-06-29_24h10.48.128,Colour_Asymmetry_Pilot,2022.1.3,Win32,60.19020104,62bbe60bf3d75ef465d3e404,,,,,,,,,,,,,,,,,,,"[0.9842,0.7409999999999999,-0.6628000000000001]",onethree,"[-0.9766,-0.6472,0.07440000000000002]",-4,4.6493,-60,119,1,0,0,response7disk_5,-4,5,1,0,0,rectangle_8,-4,5,1,0,0,,,1,-4,5,1,0,0,,2,0,2,0,1,,,,,,,,,,,,,,,,,,,,,,,,,,,,,,,,,,,,,,,,,,,,,,,,,,,,,,,,,,,,,,,,,,,,,,,,,,,,,,,,,,,,,,,,,,,,,,,,,,,,,,,,
,,,,,,5fb0eec9fa92bc4ffa483efa,62bbfae1f6dc862c225f200b,2022-06-29_24h10.48.128,Colour_Asymmetry_Pilot,2022.1.3,Win32,60.19020104,62bbe60bf3d75ef465d3e404,,,,,,,,,,,,,,,,,,,"[-0.6706000000000001,-0.6157999999999999,-0.6786]",onethree,"[0.6547999999999998,-0.043199999999999905,-0.011800000000000033]",-4,2.4665,-40,102,1,0,0,response7disk_5,25,-4,1,0,0,rectangle_8,25,-4,1,0,0,,,1,25,-4,1,0,0,,3,0,3,0,1,,,,,,,,,,,,,,,,,,,,,,,,,,,,,,,,,,,,,,,,,,,,,,,,,,,,,,,,,,,,,,,,,,,,,,,,,,,,,,,,,,,,,,,,,,,,,,,,,,,,,,,,
,,,,,,5fb0eec9fa92bc4ffa483efa,62bbfae1f6dc862c225f200b,2022-06-29_24h10.48.128,Colour_Asymmetry_Pilot,2022.1.3,Win32,60.19020104,62bbe60bf3d75ef465d3e404,,,,,,,,,,,,,,,,,,,"[-0.9766,-0.6472,0.07440000000000002]",twoone,"[0.9686000000000001,0.3802000000000001,0.19999999999999996]",-4,1.4494,-41,109,1,0,0,response7disk_5,-9,2,1,0,0,rectangle_8,-9,2,1,0,0,,,1,-9,2,1,0,0,,4,0,4,0,1,,,,,,,,,,,,,,,,,,,,,,,,,,,,,,,,,,,,,,,,,,,,,,,,,,,,,,,,,,,,,,,,,,,,,,,,,,,,,,,,,,,,,,,,,,,,,,,,,,,,,,,,
,,,,,,5fb0eec9fa92bc4ffa483efa,62bbfae1f6dc862c225f200b,2022-06-29_24h10.48.128,Colour_Asymmetry_Pilot,2022.1.3,Win32,60.19020104,62bbe60bf3d75ef465d3e404,,,,,,,,,,,,,,,,,,,"[-0.10599999999999998,-0.15300000000000002,0.15280000000000005]",threeone,"[-0.4746,-0.0354000000000001,0.5449999999999999]",3,1.7893,92,39,1,0,0,response1disk_5,-29,-13,1,0,0,rectangle_8,-29,-13,1,0,0,,,1,-29,-13,1,0,0,,5,0,5,0,1,,,,,,,,,,,,,,,,,,,,,,,,,,,,,,,,,,,,,,,,,,,,,,,,,,,,,,,,,,,,,,,,,,,,,,,,,,,,,,,,,,,,,,,,,,,,,,,,,,,,,,,,
,,,,,,5fb0eec9fa92bc4ffa483efa,62bbfae1f6dc862c225f200b,2022-06-29_24h10.48.128,Colour_Asymmetry_Pilot,2022.1.3,Win32,60.19020104,62bbe60bf3d75ef465d3e404,,,,,,,,,,,,,,,,,,,"[-0.9688,-0.7412000000000001,-0.4902000000000001]",threefour,"[-0.10599999999999998,-0.10599999999999998,0.5841999999999998]",2,2.0165,86,-34,1,0,0,response3disk_5,-13,1,1,0,0,rectangle_8,-13,1,1,0,0,,,1,-13,1,1,0,0,,6,0,6,0,1,,,,,,,,,,,,,,,,,,,,,,,,,,,,,,,,,,,,,,,,,,,,,,,,,,,,,,,,,,,,,,,,,,,,,,,,,,,,,,,,,,,,,,,,,,,,,,,,,,,,,,,,
,,,,,,5fb0eec9fa92bc4ffa483efa,62bbfae1f6dc862c225f200b,2022-06-29_24h10.48.128,Colour_Asymmetry_Pilot,2022.1.3,Win32,60.19020104,62bbe60bf3d75ef465d3e404,,,,,,,,,,,,,,,,,,,,threefour,,1,1.5334,,,,,,,,,,,,,,,,,,,,,,,,,,,,,,,,space,2.9167,"[-0.6706000000000001,-0.6157999999999999,-0.6786]","[-0.4982,-0.2942,-0.0354000000000001]",33,-88,1,0,0,response3disk,-11,0,1,0,0,rectangle,-11,0,1,0,0,,1,0.0009,0,-11,0,1,0,0,0,0,0,32,1,32,first,,,,,,,,,,,,,,,,,,,,,,,,,,,,,,,,,,,,,,,,,,,,,,,,,,,,,,,,,,,,,,,,,,,
,,,,,,5fb0eec9fa92bc4ffa483efa,62bbfae1f6dc862c225f200b,2022-06-29_24h10.48.128,Colour_Asymmetry_Pilot,2022.1.3,Win32,60.19020104,62bbe60bf3d75ef465d3e404,,,,,,,,,,,,,,,,,,,,onethree,,-4,2.7165,,,,,,,,,,,,,,,,,,,,,,,,,,,,,,,,,,"[-0.20799999999999996,-0.655,-0.01980000000000004]","[0.9763999999999999,0.30979999999999985,-0.6786]",-58,112,1,0,0,response7disk,1,-11,1,0,0,rectangle,1,-11,1,0,0,,1,0.0001,0,1,-11,1,0,0,0,1,1,94,1,13,second,,,,,,,,,,,,,,,,,,,,,,,,,,,,,,,,,,,,,,,,,,,,,,,,,,,,,,,,,,,,,,,,,,,
,,,,,,5fb0eec9fa92bc4ffa483efa,62bbfae1f6dc862c225f200b,2022-06-29_24h10.48.128,Colour_Asymmetry_Pilot,2022.1.3,Win32,60.19020104,62bbe60bf3d75ef465d3e404,,,,,,,,,,,,,,,,,,,,fourtwo,,1,2.7001,,,,,,,,,,,,,,,,,,,,,,,,,,,,,,,,,,"[0.34099999999999997,0.12939999999999996,-0.9766]","[0.4196,0.4665999999999999,0.3568]",64,-98,1,0,0,response3disk,-14,-7,1,0,0,rectangle,112,57,1,0,0,3,3,2.6311,1,-10,1,1,0,0,0,2,2,159,1,78,second,response1disk_3,rectangle,,,,,,,,,,,,,,,,,,,,,,,,,,,,,,,,,,,,,,,,,,,,,,,,,,,,,,,,,,,,,,,,,
,,,,,,5fb0eec9fa92bc4ffa483efa,62bbfae1f6dc862c225f200b,2022-06-29_24h10.48.128,Colour_Asymmetry_Pilot,2022.1.3,Win32,60.19020104,62bbe60bf3d75ef465d3e404,,,,,,,,,,,,,,,,,,,,threefour,,-1,0.9173,,,,,,,,,,,,,,,,,,,,,,,,,,,,,,,,,,"[0.8115999999999999,-0.0040000000000000036,-0.09819999999999995]","[-0.06680000000000008,-0.45100000000000007,-0.906]",-46,-81,1,0,0,response5disk,-7,-5,1,0,0,rectangle,-7,-5,1,0,0,3,1,0.0015,0,-7,-5,1,0,0,0,3,3,24,1,24,first,,,,,,,,,,,,,,,,,,,,,,,,,,,,,,,,,,,,,,,,,,,,,,,,,,,,,,,,,,,,,,,,,,,
,,,,,,5fb0eec9fa92bc4ffa483efa,62bbfae1f6dc862c225f200b,2022-06-29_24h10.48.128,Colour_Asymmetry_Pilot,2022.1.3,Win32,60.19020104,62bbe60bf3d75ef465d3e404,,,,,,,,,,,,,,,,,,,,twofour,,-3,1.25,,,,,,,,,,,,,,,,,,,,,,,,,,,,,,,,,,"[0.5528,0.7409999999999999,-0.71]","[0.40379999999999994,0.09000000000000008,0.44300000000000006]",-113,34,1,0,0,response7disk,-18,4,1,0,0,rectangle,-18,4,1,0,0,3,1,0.0011,0,-18,4,1,0,0,0,4,4,33,1,33,first,,,,,,,,,,,,,,,,,,,,,,,,,,,,,,,,,,,,,,,,,,,,,,,,,,,,,,,,,,,,,,,,,,,
,,,,,,5fb0eec9fa92bc4ffa483efa,62bbfae1f6dc862c225f200b,2022-06-29_24h10.48.128,Colour_Asymmetry_Pilot,2022.1.3,Win32,60.19020104,62bbe60bf3d75ef465d3e404,,,,,,,,,,,,,,,,,,,,twoone,,-4,1.3835,,,,,,,,,,,,,,,,,,,,,,,,,,,,,,,,,,"[-0.9766,-0.6472,0.07440000000000002]","[0.5528,0.7409999999999999,-0.71]",-62,124,1,0,0,response7disk,15,-1,1,0,0,rectangle,15,-1,1,0,0,3,1,0.0001,0,15,-1,1,0,0,0,5,5,46,1,46,first,,,,,,,,,,,,,,,,,,,,,,,,,,,,,,,,,,,,,,,,,,,,,,,,,,,,,,,,,,,,,,,,,,,
,,,,,,5fb0eec9fa92bc4ffa483efa,62bbfae1f6dc862c225f200b,2022-06-29_24h10.48.128,Colour_Asymmetry_Pilot,2022.1.3,Win32,60.19020104,62bbe60bf3d75ef465d3e404,,,,,,,,,,,,,,,,,,,,twoone,,-4,1.3165,,,,,,,,,,,,,,,,,,,,,,,,,,,,,,,,,,"[0.37240000000000006,0.4980000000000002,-0.2864]","[0.40379999999999994,0.09000000000000008,0.44300000000000006]",-54,111,1,0,0,response7disk,-13,8,1,0,0,rectangle,-13,8,1,0,0,3,1,0.0002,0,-13,8,1,0,0,0,6,6,117,1,36,second,,,,,,,,,,,,,,,,,,,,,,,,,,,,,,,,,,,,,,,,,,,,,,,,,,,,,,,,,,,,,,,,,,,
,,,,,,5fb0eec9fa92bc4ffa483efa,62bbfae1f6dc862c225f200b,2022-06-29_24h10.48.128,Colour_Asymmetry_Pilot,2022.1.3,Win32,60.19020104,62bbe60bf3d75ef465d3e404,,,,,,,,,,,,,,,,,,,,threeone,,-4,1.8666,,,,,,,,,,,,,,,,,,,,,,,,,,,,,,,,,,"[-0.9688,-0.4902000000000001,-0.12159999999999993]","[0.796,0.2156,-0.27859999999999996]",-44,116,1,0,0,response7disk,-12,0,1,0,0,rectangle,-12,0,1,0,0,3,3,0.0008,0,-12,0,1,0,0,0,7,7,125,1,44,second,,,,,,,,,,,,,,,,,,,,,,,,,,,,,,,,,,,,,,,,,,,,,,,,,,,,,,,,,,,,,,,,,,,
,,,,,,5fb0eec9fa92bc4ffa483efa,62bbfae1f6dc862c225f200b,2022-06-29_24h10.48.128,Colour_Asymmetry_Pilot,2022.1.3,Win32,60.19020104,62bbe60bf3d75ef465d3e404,,,,,,,,,,,,,,,,,,,,onethree,,1,1.3661,,,,,,,,,,,,,,,,,,,,,,,,,,,,,,,,,,"[-0.9844,-0.9688,-0.9922]","[-0.9766,-0.6472,0.07440000000000002]",65,-98,1,0,0,response3disk,0,11,1,0,0,rectangle,0,11,1,0,0,3,2,0.0008,0,0,11,1,0,0,0,8,8,138,1,57,second,,,,,,,,,,,,,,,,,,,,,,,,,,,,,,,,,,,,,,,,,,,,,,,,,,,,,,,,,,,,,,,,,,,
,,,,,,5fb0eec9fa92bc4ffa483efa,62bbfae1f6dc862c225f200b,2022-06-29_24h10.48.128,Colour_Asymmetry_Pilot,2022.1.3,Win32,60.19020104,62bbe60bf3d75ef465d3e404,,,,,,,,,,,,,,,,,,,,threefour,,-3,3.3496,,,,,,,,,,,,,,,,,,,,,,,,,,,,,,,,,,"[-0.9688,-0.38039999999999996,-0.41979999999999995]","[0.796,0.2156,-0.27859999999999996]",-118,46,1,0,0,response7disk,29,-17,1,0,0,rectangle,29,-17,1,0,0,3,1,0.0007,0,29,-17,1,0,0,0,9,9,156,1,75,second,,,,,,,,,,,,,,,,,,,,,,,,,,,,,,,,,,,,,,,,,,,,,,,,,,,,,,,,,,,,,,,,,,,
,,,,,,5fb0eec9fa92bc4ffa483efa,62bbfae1f6dc862c225f200b,2022-06-29_24h10.48.128,Colour_Asymmetry_Pilot,2022.1.3,Win32,60.19020104,62bbe60bf3d75ef465d3e404,,,,,,,,,,,,,,,,,,,,twofour,,-3,0.6997,,,,,,,,,,,,,,,,,,,,,,,,,,,,,,,,,,"[0.9372,0.20779999999999998,0.2704]","[0.37240000000000006,0.4980000000000002,-0.2864]",-112,49,1,0,0,response7disk,24,-5,1,0,0,rectangle,24,-5,1,0,0,3,3,0.0007,0,24,-5,1,0,0,0,10,10,8,1,8,first,,,,,,,,,,,,,,,,,,,,,,,,,,,,,,,,,,,,,,,,,,,,,,,,,,,,,,,,,,,,,,,,,,,
,,,,,,5fb0eec9fa92bc4ffa483efa,62bbfae1f6dc862c225f200b,2022-06-29_24h10.48.128,Colour_Asymmetry_Pilot,2022.1.3,Win32,60.19020104,62bbe60bf3d75ef465d3e404,,,,,,,,,,,,,,,,,,,,twofour,,1,2.3498,,,,,,,,,,,,,,,,,,,,,,,,,,,,,,,,,,"[-0.4982,-0.2942,-0.0354000000000001]","[0.12939999999999996,-0.2864,0.3253999999999999]",53,-80,1,0,0,response3disk,4,-3,1,0,0,rectangle,4,-3,1,0,0,3,2,0.0007,0,4,-3,1,0,0,0,11,11,129,1,48,second,,,,,,,,,,,,,,,,,,,,,,,,,,,,,,,,,,,,,,,,,,,,,,,,,,,,,,,,,,,,,,,,,,,
,,,,,,5fb0eec9fa92bc4ffa483efa,62bbfae1f6dc862c225f200b,2022-06-29_24h10.48.128,Colour_Asymmetry_Pilot,2022.1.3,Win32,60.19020104,62bbe60bf3d75ef465d3e404,,,,,,,,,,,,,,,,,,,,onetwo,,-1,0.9333,,,,,,,,,,,,,,,,,,,,,,,,,,,,,,,,,,"[0.5449999999999999,-0.31000000000000005,-0.0354000000000001]","[-0.2942,-0.24719999999999998,-0.357]",-44,-61,1,0,0,response5disk,-8,2,1,0,0,rectangle,-8,2,1,0,0,3,1,0.0008,0,-8,2,1,0,0,0,12,12,146,1,65,second,,,,,,,,,,,,,,,,,,,,,,,,,,,,,,,,,,,,,,,,,,,,,,,,,,,,,,,,,,,,,,,,,,,
,,,,,,5fb0eec9fa92bc4ffa483efa,62bbfae1f6dc862c225f200b,2022-06-29_24h10.48.128,Colour_Asymmetry_Pilot,2022.1.3,Win32,60.19020104,62bbe60bf3d75ef465d3e404,,,,,,,,,,,,,,,,,,,,fourthree,,-1,0.6163,,,,,,,,,,,,,,,,,,,,,,,,,,,,,,,,,,"[0.7802,-0.23140000000000005,-0.20799999999999996]","[0.40379999999999994,0.09000000000000008,0.44300000000000006]",-38,-82,1,0,0,response5disk,-8,-4,1,0,0,rectangle,-8,-4,1,0,0,3,3,0.0009,0,-8,-4,1,0,0,0,13,13,26,1,26,first,,,,,,,,,,,,,,,,,,,,,,,,,,,,,,,,,,,,,,,,,,,,,,,,,,,,,,,,,,,,,,,,,,,
,,,,,,5fb0eec9fa92bc4ffa483efa,62bbfae1f6dc862c225f200b,2022-06-29_24h10.48.128,Colour_Asymmetry_Pilot,2022.1.3,Win32,60.19020104,62bbe60bf3d75ef465d3e404,,,,,,,,,,,,,,,,,,,,twofour,,-1,1.6674,,,,,,,,,,,,,,,,,,,,,,,,,,,,,,,,,,"[0.18419999999999992,-0.4276,-0.404]","[-0.4746,-0.0354000000000001,0.5449999999999999]",-45,-62,1,0,0,response5disk,-14,-7,1,0,0,rectangle,-14,-7,1,0,0,3,3,0.0001,0,-14,-7,1,0,0,0,14,14,92,1,11,second,,,,,,,,,,,,,,,,,,,,,,,,,,,,,,,,,,,,,,,,,,,,,,,,,,,,,,,,,,,,,,,,,,,
,,,,,,5fb0eec9fa92bc4ffa483efa,62bbfae1f6dc862c225f200b,2022-06-29_24h10.48.128,Colour_Asymmetry_Pilot,2022.1.3,Win32,60.19020104,62bbe60bf3d75ef465d3e404,,,,,,,,,,,,,,,,,,,,onetwo,,-1,0.567,,,,,,,,,,,,,,,,,,,,,,,,,,,,,,,,,,"[-0.5688,-0.08239999999999992,-0.1844]","[0.09799999999999986,-0.24719999999999998,0.15280000000000005]",-39,-76,1,0,0,response5disk,-2,-6,1,0,0,rectangle,55,-108,1,0,0,1,1,2.348,1,-4,14,1,0,0,0,15,15,161,1,80,second,response3disk_3,rectangle,,,,,,,,,,,,,,,,,,,,,,,,,,,,,,,,,,,,,,,,,,,,,,,,,,,,,,,,,,,,,,,,,
,,,,,,5fb0eec9fa92bc4ffa483efa,62bbfae1f6dc862c225f200b,2022-06-29_24h10.48.128,Colour_Asymmetry_Pilot,2022.1.3,Win32,60.19020104,62bbe60bf3d75ef465d3e404,,,,,,,,,,,,,,,,,,,,fourthree,,-1,0.5662,,,,,,,,,,,,,,,,,,,,,,,,,,,,,,,,,,"[0.796,0.2156,-0.27859999999999996]","[-0.9688,-0.38039999999999996,-0.41979999999999995]",-40,-83,1,0,0,response5disk,-1,-5,1,0,0,rectangle,-1,-5,1,0,0,1,1,0.0004,0,-1,-5,1,0,0,0,16,16,75,1,75,first,,,,,,,,,,,,,,,,,,,,,,,,,,,,,,,,,,,,,,,,,,,,,,,,,,,,,,,,,,,,,,,,,,,
,,,,,,5fb0eec9fa92bc4ffa483efa,62bbfae1f6dc862c225f200b,2022-06-29_24h10.48.128,Colour_Asymmetry_Pilot,2022.1.3,Win32,60.19020104,62bbe60bf3d75ef465d3e404,,,,,,,,,,,,,,,,,,,,fourthree,,-1,1.0999,,,,,,,,,,,,,,,,,,,,,,,,,,,,,,,,,,"[-0.9138,-0.5296000000000001,-0.5529999999999999]","[0.05879999999999996,0.2784,0.5841999999999998]",-38,-93,1,0,0,response5disk,4,1,1,0,0,rectangle,4,1,1,0,0,1,2,0.0018,0,4,1,1,0,0,0,17,17,124,1,43,second,,,,,,,,,,,,,,,,,,,,,,,,,,,,,,,,,,,,,,,,,,,,,,,,,,,,,,,,,,,,,,,,,,,
,,,,,,5fb0eec9fa92bc4ffa483efa,62bbfae1f6dc862c225f200b,2022-06-29_24h10.48.128,Colour_Asymmetry_Pilot,2022.1.3,Win32,60.19020104,62bbe60bf3d75ef465d3e404,,,,,,,,,,,,,,,,,,,,threefour,,-3,1.2163,,,,,,,,,,,,,,,,,,,,,,,,,,,,,,,,,,"[-0.9688,-0.4902000000000001,-0.12159999999999993]","[0.9763999999999999,-0.1137999999999999,-0.6314]",-106,32,1,0,0,response7disk,21,-5,1,0,0,rectangle,21,-5,1,0,0,1,2,0.0002,0,21,-5,1,0,0,0,18,18,157,1,76,second,,,,,,,,,,,,,,,,,,,,,,,,,,,,,,,,,,,,,,,,,,,,,,,,,,,,,,,,,,,,,,,,,,,
,,,,,,5fb0eec9fa92bc4ffa483efa,62bbfae1f6dc862c225f200b,2022-06-29_24h10.48.128,Colour_Asymmetry_Pilot,2022.1.3,Win32,60.19020104,62bbe60bf3d75ef465d3e404,,,,,,,,,,,,,,,,,,,,threeone,,3,1.3334,,,,,,,,,,,,,,,,,,,,,,,,,,,,,,,,,,"[0.37240000000000006,0.4980000000000002,-0.2864]","[-0.8198,-0.5138,-0.7492000000000001]",108,63,1,0,0,response1disk,-10,4,1,0,0,rectangle,-10,4,1,0,0,1,3,0.0009,0,-10,4,1,0,0,0,19,19,54,1,54,first,,,,,,,,,,,,,,,,,,,,,,,,,,,,,,,,,,,,,,,,,,,,,,,,,,,,,,,,,,,,,,,,,,,
,,,,,,5fb0eec9fa92bc4ffa483efa,62bbfae1f6dc862c225f200b,2022-06-29_24h10.48.128,Colour_Asymmetry_Pilot,2022.1.3,Win32,60.19020104,62bbe60bf3d75ef465d3e404,,,,,,,,,,,,,,,,,,,,twofour,,1,1.2499,,,,,,,,,,,,,,,,,,,,,,,,,,,,,,,,,,"[-0.4276,0.0038000000000000256,-0.3256]","[-0.6706000000000001,-0.6157999999999999,-0.6786]",60,-94,1,0,0,response3disk,-19,0,1,0,0,rectangle,-19,0,1,0,0,1,2,0.0008,0,-19,0,1,0,0,0,20,20,4,1,4,first,,,,,,,,,,,,,,,,,,,,,,,,,,,,,,,,,,,,,,,,,,,,,,,,,,,,,,,,,,,,,,,,,,,
