trials.thisRepN,trials.thisTrialN,trials.thisN,trials.thisIndex,trials.ran,Colourcodes,participant,session,date,expName,psychopyVersion,OS,frameRate,study_id,trials_4.thisRepN,trials_4.thisTrialN,trials_4.thisN,trials_4.thisIndex,trials_4.ran,StimulusPos,key_resp.keys,key_resp.rt,key_resp_2.keys,key_resp_2.rt,key_resp_15.keys,key_resp_15.rt,key_resp_17.keys,key_resp_17.rt,key_resp_9.keys,key_resp_9.rt,key_resp_10.keys,key_resp_10.rt,Circle1_col,Ecc,Circle2_col,similarity,response_time,mouse_5.x,mouse_5.y,mouse_5.leftButton,mouse_5.midButton,mouse_5.rightButton,mouse_5.clicked_name,mouse_10.x,mouse_10.y,mouse_10.leftButton,mouse_10.midButton,mouse_10.rightButton,mouse_10.clicked_name,mouse_7.x,mouse_7.y,mouse_7.leftButton,mouse_7.midButton,mouse_7.rightButton,catchnumberprac,mouse_6.x,mouse_6.y,mouse_6.leftButton,mouse_6.midButton,mouse_6.rightButton,duringprac.thisRepN,duringprac.thisTrialN,duringprac.thisN,duringprac.thisIndex,duringprac.ran,mouse_7.clicked_name,catchprac,mouse_6.clicked_name,key_resp_22.keys,key_resp_22.rt,Circle1_colour,Circle2_colour,mouse.x,mouse.y,mouse.leftButton,mouse.midButton,mouse.rightButton,mouse.clicked_name,mouse_2.x,mouse_2.y,mouse_2.leftButton,mouse_2.midButton,mouse_2.rightButton,mouse_2.clicked_name,mouse_3.x,mouse_3.y,mouse_3.leftButton,mouse_3.midButton,mouse_3.rightButton,catchresponse,catchnumber,response_time_catch,Catch,mouse_11.x,mouse_11.y,mouse_11.leftButton,mouse_11.midButton,mouse_11.rightButton,trials_2.thisRepN,trials_2.thisTrialN,trials_2.thisN,trials_2.thisIndex,trials_2.ran,Colourpair,Temporder,mouse_3.clicked_name,mouse_11.clicked_name,trials_3.thisRepN,trials_3.thisTrialN,trials_3.thisN,trials_3.thisIndex,trials_3.ran,key_resp_instr_Ishi.keys,key_resp_instr_Ishi.rt,Ishi_trial_keyresp.keys,Ishi_trial_keyresp.rt,Ishi_textbox.text,Ishi_loop.thisRepN,Ishi_loop.thisTrialN,Ishi_loop.thisN,Ishi_loop.thisIndex,Ishi_loop.ran,imageaddress,textbox.text,mouse_4.x,mouse_4.y,mouse_4.leftButton,mouse_4.midButton,mouse_4.rightButton,mouse_4.clicked_name,textbox_2.text,mouse_8.x,mouse_8.y,mouse_8.leftButton,mouse_8.midButton,mouse_8.rightButton,mouse_8.clicked_name,textbox_3.text,mouse_9.x,mouse_9.y,mouse_9.leftButton,mouse_9.midButton,mouse_9.rightButton,mouse_9.clicked_name,textbox_4.text,mouse_12.x,mouse_12.y,mouse_12.leftButton,mouse_12.midButton,mouse_12.rightButton,mouse_12.clicked_name,textbox_5.text,mouse_13.x,mouse_13.y,mouse_13.leftButton,mouse_13.midButton,mouse_13.rightButton,mouse_13.clicked_name,textbox_6.text,mouse_14.x,mouse_14.y,mouse_14.leftButton,mouse_14.midButton,mouse_14.rightButton,mouse_14.clicked_name,textbox_7.text,mouse_15.x,mouse_15.y,mouse_15.leftButton,mouse_15.midButton,mouse_15.rightButton,mouse_15.clicked_name
0,0,0,90,1,,60d336457da539b0a93cb7d3,62bbf937e12f15910a05e3f4,2022-06-29_09h07.03.278,Colour_Asymmetry_Pilot,2022.1.3,Win32,143.5338022,62bbe60bf3d75ef465d3e404,,,,,,,,,,,,,,,,,,,,,,,,,,,,,,,,,,,,,,,,,,,,,,,,,,,,,,,,,,,,,,,,,,,,,,,,,,,,,,,,,,,,,,,,,,,,,,,,,,,,,,,,,,,,,,,,,,,,,,,,,,,,,,,,,,,,,,,,,,,,,,,,,,,,,,,,,,,,,,
0,1,1,42,1,,60d336457da539b0a93cb7d3,62bbf937e12f15910a05e3f4,2022-06-29_09h07.03.278,Colour_Asymmetry_Pilot,2022.1.3,Win32,143.5338022,62bbe60bf3d75ef465d3e404,,,,,,,,,,,,,,,,,,,,,,,,,,,,,,,,,,,,,,,,,,,,,,,,,,,,,,,,,,,,,,,,,,,,,,,,,,,,,,,,,,,,,,,,,,,,,,,,,,,,,,,,,,,,,,,,,,,,,,,,,,,,,,,,,,,,,,,,,,,,,,,,,,,,,,,,,,,,,,
0,2,2,27,1,,60d336457da539b0a93cb7d3,62bbf937e12f15910a05e3f4,2022-06-29_09h07.03.278,Colour_Asymmetry_Pilot,2022.1.3,Win32,143.5338022,62bbe60bf3d75ef465d3e404,,,,,,,,,,,,,,,,,,,,,,,,,,,,,,,,,,,,,,,,,,,,,,,,,,,,,,,,,,,,,,,,,,,,,,,,,,,,,,,,,,,,,,,,,,,,,,,,,,,,,,,,,,,,,,,,,,,,,,,,,,,,,,,,,,,,,,,,,,,,,,,,,,,,,,,,,,,,,,
0,3,3,89,1,,60d336457da539b0a93cb7d3,62bbf937e12f15910a05e3f4,2022-06-29_09h07.03.278,Colour_Asymmetry_Pilot,2022.1.3,Win32,143.5338022,62bbe60bf3d75ef465d3e404,,,,,,,,,,,,,,,,,,,,,,,,,,,,,,,,,,,,,,,,,,,,,,,,,,,,,,,,,,,,,,,,,,,,,,,,,,,,,,,,,,,,,,,,,,,,,,,,,,,,,,,,,,,,,,,,,,,,,,,,,,,,,,,,,,,,,,,,,,,,,,,,,,,,,,,,,,,,,,
0,4,4,50,1,,60d336457da539b0a93cb7d3,62bbf937e12f15910a05e3f4,2022-06-29_09h07.03.278,Colour_Asymmetry_Pilot,2022.1.3,Win32,143.5338022,62bbe60bf3d75ef465d3e404,,,,,,,,,,,,,,,,,,,,,,,,,,,,,,,,,,,,,,,,,,,,,,,,,,,,,,,,,,,,,,,,,,,,,,,,,,,,,,,,,,,,,,,,,,,,,,,,,,,,,,,,,,,,,,,,,,,,,,,,,,,,,,,,,,,,,,,,,,,,,,,,,,,,,,,,,,,,,,
0,5,5,64,1,,60d336457da539b0a93cb7d3,62bbf937e12f15910a05e3f4,2022-06-29_09h07.03.278,Colour_Asymmetry_Pilot,2022.1.3,Win32,143.5338022,62bbe60bf3d75ef465d3e404,,,,,,,,,,,,,,,,,,,,,,,,,,,,,,,,,,,,,,,,,,,,,,,,,,,,,,,,,,,,,,,,,,,,,,,,,,,,,,,,,,,,,,,,,,,,,,,,,,,,,,,,,,,,,,,,,,,,,,,,,,,,,,,,,,,,,,,,,,,,,,,,,,,,,,,,,,,,,,
0,6,6,1,1,,60d336457da539b0a93cb7d3,62bbf937e12f15910a05e3f4,2022-06-29_09h07.03.278,Colour_Asymmetry_Pilot,2022.1.3,Win32,143.5338022,62bbe60bf3d75ef465d3e404,,,,,,,,,,,,,,,,,,,,,,,,,,,,,,,,,,,,,,,,,,,,,,,,,,,,,,,,,,,,,,,,,,,,,,,,,,,,,,,,,,,,,,,,,,,,,,,,,,,,,,,,,,,,,,,,,,,,,,,,,,,,,,,,,,,,,,,,,,,,,,,,,,,,,,,,,,,,,,
0,7,7,72,1,,60d336457da539b0a93cb7d3,62bbf937e12f15910a05e3f4,2022-06-29_09h07.03.278,Colour_Asymmetry_Pilot,2022.1.3,Win32,143.5338022,62bbe60bf3d75ef465d3e404,,,,,,,,,,,,,,,,,,,,,,,,,,,,,,,,,,,,,,,,,,,,,,,,,,,,,,,,,,,,,,,,,,,,,,,,,,,,,,,,,,,,,,,,,,,,,,,,,,,,,,,,,,,,,,,,,,,,,,,,,,,,,,,,,,,,,,,,,,,,,,,,,,,,,,,,,,,,,,
0,8,8,15,1,,60d336457da539b0a93cb7d3,62bbf937e12f15910a05e3f4,2022-06-29_09h07.03.278,Colour_Asymmetry_Pilot,2022.1.3,Win32,143.5338022,62bbe60bf3d75ef465d3e404,,,,,,,,,,,,,,,,,,,,,,,,,,,,,,,,,,,,,,,,,,,,,,,,,,,,,,,,,,,,,,,,,,,,,,,,,,,,,,,,,,,,,,,,,,,,,,,,,,,,,,,,,,,,,,,,,,,,,,,,,,,,,,,,,,,,,,,,,,,,,,,,,,,,,,,,,,,,,,
0,9,9,88,1,,60d336457da539b0a93cb7d3,62bbf937e12f15910a05e3f4,2022-06-29_09h07.03.278,Colour_Asymmetry_Pilot,2022.1.3,Win32,143.5338022,62bbe60bf3d75ef465d3e404,,,,,,,,,,,,,,,,,,,,,,,,,,,,,,,,,,,,,,,,,,,,,,,,,,,,,,,,,,,,,,,,,,,,,,,,,,,,,,,,,,,,,,,,,,,,,,,,,,,,,,,,,,,,,,,,,,,,,,,,,,,,,,,,,,,,,,,,,,,,,,,,,,,,,,,,,,,,,,
0,10,10,8,1,,60d336457da539b0a93cb7d3,62bbf937e12f15910a05e3f4,2022-06-29_09h07.03.278,Colour_Asymmetry_Pilot,2022.1.3,Win32,143.5338022,62bbe60bf3d75ef465d3e404,,,,,,,,,,,,,,,,,,,,,,,,,,,,,,,,,,,,,,,,,,,,,,,,,,,,,,,,,,,,,,,,,,,,,,,,,,,,,,,,,,,,,,,,,,,,,,,,,,,,,,,,,,,,,,,,,,,,,,,,,,,,,,,,,,,,,,,,,,,,,,,,,,,,,,,,,,,,,,
0,11,11,85,1,,60d336457da539b0a93cb7d3,62bbf937e12f15910a05e3f4,2022-06-29_09h07.03.278,Colour_Asymmetry_Pilot,2022.1.3,Win32,143.5338022,62bbe60bf3d75ef465d3e404,,,,,,,,,,,,,,,,,,,,,,,,,,,,,,,,,,,,,,,,,,,,,,,,,,,,,,,,,,,,,,,,,,,,,,,,,,,,,,,,,,,,,,,,,,,,,,,,,,,,,,,,,,,,,,,,,,,,,,,,,,,,,,,,,,,,,,,,,,,,,,,,,,,,,,,,,,,,,,
0,12,12,5,1,,60d336457da539b0a93cb7d3,62bbf937e12f15910a05e3f4,2022-06-29_09h07.03.278,Colour_Asymmetry_Pilot,2022.1.3,Win32,143.5338022,62bbe60bf3d75ef465d3e404,,,,,,,,,,,,,,,,,,,,,,,,,,,,,,,,,,,,,,,,,,,,,,,,,,,,,,,,,,,,,,,,,,,,,,,,,,,,,,,,,,,,,,,,,,,,,,,,,,,,,,,,,,,,,,,,,,,,,,,,,,,,,,,,,,,,,,,,,,,,,,,,,,,,,,,,,,,,,,
0,13,13,48,1,,60d336457da539b0a93cb7d3,62bbf937e12f15910a05e3f4,2022-06-29_09h07.03.278,Colour_Asymmetry_Pilot,2022.1.3,Win32,143.5338022,62bbe60bf3d75ef465d3e404,,,,,,,,,,,,,,,,,,,,,,,,,,,,,,,,,,,,,,,,,,,,,,,,,,,,,,,,,,,,,,,,,,,,,,,,,,,,,,,,,,,,,,,,,,,,,,,,,,,,,,,,,,,,,,,,,,,,,,,,,,,,,,,,,,,,,,,,,,,,,,,,,,,,,,,,,,,,,,
0,14,14,33,1,,60d336457da539b0a93cb7d3,62bbf937e12f15910a05e3f4,2022-06-29_09h07.03.278,Colour_Asymmetry_Pilot,2022.1.3,Win32,143.5338022,62bbe60bf3d75ef465d3e404,,,,,,,,,,,,,,,,,,,,,,,,,,,,,,,,,,,,,,,,,,,,,,,,,,,,,,,,,,,,,,,,,,,,,,,,,,,,,,,,,,,,,,,,,,,,,,,,,,,,,,,,,,,,,,,,,,,,,,,,,,,,,,,,,,,,,,,,,,,,,,,,,,,,,,,,,,,,,,
0,15,15,43,1,,60d336457da539b0a93cb7d3,62bbf937e12f15910a05e3f4,2022-06-29_09h07.03.278,Colour_Asymmetry_Pilot,2022.1.3,Win32,143.5338022,62bbe60bf3d75ef465d3e404,,,,,,,,,,,,,,,,,,,,,,,,,,,,,,,,,,,,,,,,,,,,,,,,,,,,,,,,,,,,,,,,,,,,,,,,,,,,,,,,,,,,,,,,,,,,,,,,,,,,,,,,,,,,,,,,,,,,,,,,,,,,,,,,,,,,,,,,,,,,,,,,,,,,,,,,,,,,,,
0,16,16,67,1,,60d336457da539b0a93cb7d3,62bbf937e12f15910a05e3f4,2022-06-29_09h07.03.278,Colour_Asymmetry_Pilot,2022.1.3,Win32,143.5338022,62bbe60bf3d75ef465d3e404,,,,,,,,,,,,,,,,,,,,,,,,,,,,,,,,,,,,,,,,,,,,,,,,,,,,,,,,,,,,,,,,,,,,,,,,,,,,,,,,,,,,,,,,,,,,,,,,,,,,,,,,,,,,,,,,,,,,,,,,,,,,,,,,,,,,,,,,,,,,,,,,,,,,,,,,,,,,,,
0,17,17,65,1,,60d336457da539b0a93cb7d3,62bbf937e12f15910a05e3f4,2022-06-29_09h07.03.278,Colour_Asymmetry_Pilot,2022.1.3,Win32,143.5338022,62bbe60bf3d75ef465d3e404,,,,,,,,,,,,,,,,,,,,,,,,,,,,,,,,,,,,,,,,,,,,,,,,,,,,,,,,,,,,,,,,,,,,,,,,,,,,,,,,,,,,,,,,,,,,,,,,,,,,,,,,,,,,,,,,,,,,,,,,,,,,,,,,,,,,,,,,,,,,,,,,,,,,,,,,,,,,,,
0,18,18,71,1,,60d336457da539b0a93cb7d3,62bbf937e12f15910a05e3f4,2022-06-29_09h07.03.278,Colour_Asymmetry_Pilot,2022.1.3,Win32,143.5338022,62bbe60bf3d75ef465d3e404,,,,,,,,,,,,,,,,,,,,,,,,,,,,,,,,,,,,,,,,,,,,,,,,,,,,,,,,,,,,,,,,,,,,,,,,,,,,,,,,,,,,,,,,,,,,,,,,,,,,,,,,,,,,,,,,,,,,,,,,,,,,,,,,,,,,,,,,,,,,,,,,,,,,,,,,,,,,,,
0,19,19,19,1,,60d336457da539b0a93cb7d3,62bbf937e12f15910a05e3f4,2022-06-29_09h07.03.278,Colour_Asymmetry_Pilot,2022.1.3,Win32,143.5338022,62bbe60bf3d75ef465d3e404,,,,,,,,,,,,,,,,,,,,,,,,,,,,,,,,,,,,,,,,,,,,,,,,,,,,,,,,,,,,,,,,,,,,,,,,,,,,,,,,,,,,,,,,,,,,,,,,,,,,,,,,,,,,,,,,,,,,,,,,,,,,,,,,,,,,,,,,,,,,,,,,,,,,,,,,,,,,,,
0,20,20,61,1,,60d336457da539b0a93cb7d3,62bbf937e12f15910a05e3f4,2022-06-29_09h07.03.278,Colour_Asymmetry_Pilot,2022.1.3,Win32,143.5338022,62bbe60bf3d75ef465d3e404,,,,,,,,,,,,,,,,,,,,,,,,,,,,,,,,,,,,,,,,,,,,,,,,,,,,,,,,,,,,,,,,,,,,,,,,,,,,,,,,,,,,,,,,,,,,,,,,,,,,,,,,,,,,,,,,,,,,,,,,,,,,,,,,,,,,,,,,,,,,,,,,,,,,,,,,,,,,,,
0,21,21,25,1,,60d336457da539b0a93cb7d3,62bbf937e12f15910a05e3f4,2022-06-29_09h07.03.278,Colour_Asymmetry_Pilot,2022.1.3,Win32,143.5338022,62bbe60bf3d75ef465d3e404,,,,,,,,,,,,,,,,,,,,,,,,,,,,,,,,,,,,,,,,,,,,,,,,,,,,,,,,,,,,,,,,,,,,,,,,,,,,,,,,,,,,,,,,,,,,,,,,,,,,,,,,,,,,,,,,,,,,,,,,,,,,,,,,,,,,,,,,,,,,,,,,,,,,,,,,,,,,,,
0,22,22,16,1,,60d336457da539b0a93cb7d3,62bbf937e12f15910a05e3f4,2022-06-29_09h07.03.278,Colour_Asymmetry_Pilot,2022.1.3,Win32,143.5338022,62bbe60bf3d75ef465d3e404,,,,,,,,,,,,,,,,,,,,,,,,,,,,,,,,,,,,,,,,,,,,,,,,,,,,,,,,,,,,,,,,,,,,,,,,,,,,,,,,,,,,,,,,,,,,,,,,,,,,,,,,,,,,,,,,,,,,,,,,,,,,,,,,,,,,,,,,,,,,,,,,,,,,,,,,,,,,,,
0,23,23,79,1,,60d336457da539b0a93cb7d3,62bbf937e12f15910a05e3f4,2022-06-29_09h07.03.278,Colour_Asymmetry_Pilot,2022.1.3,Win32,143.5338022,62bbe60bf3d75ef465d3e404,,,,,,,,,,,,,,,,,,,,,,,,,,,,,,,,,,,,,,,,,,,,,,,,,,,,,,,,,,,,,,,,,,,,,,,,,,,,,,,,,,,,,,,,,,,,,,,,,,,,,,,,,,,,,,,,,,,,,,,,,,,,,,,,,,,,,,,,,,,,,,,,,,,,,,,,,,,,,,
0,24,24,40,1,,60d336457da539b0a93cb7d3,62bbf937e12f15910a05e3f4,2022-06-29_09h07.03.278,Colour_Asymmetry_Pilot,2022.1.3,Win32,143.5338022,62bbe60bf3d75ef465d3e404,,,,,,,,,,,,,,,,,,,,,,,,,,,,,,,,,,,,,,,,,,,,,,,,,,,,,,,,,,,,,,,,,,,,,,,,,,,,,,,,,,,,,,,,,,,,,,,,,,,,,,,,,,,,,,,,,,,,,,,,,,,,,,,,,,,,,,,,,,,,,,,,,,,,,,,,,,,,,,
0,25,25,74,1,,60d336457da539b0a93cb7d3,62bbf937e12f15910a05e3f4,2022-06-29_09h07.03.278,Colour_Asymmetry_Pilot,2022.1.3,Win32,143.5338022,62bbe60bf3d75ef465d3e404,,,,,,,,,,,,,,,,,,,,,,,,,,,,,,,,,,,,,,,,,,,,,,,,,,,,,,,,,,,,,,,,,,,,,,,,,,,,,,,,,,,,,,,,,,,,,,,,,,,,,,,,,,,,,,,,,,,,,,,,,,,,,,,,,,,,,,,,,,,,,,,,,,,,,,,,,,,,,,
0,26,26,81,1,,60d336457da539b0a93cb7d3,62bbf937e12f15910a05e3f4,2022-06-29_09h07.03.278,Colour_Asymmetry_Pilot,2022.1.3,Win32,143.5338022,62bbe60bf3d75ef465d3e404,,,,,,,,,,,,,,,,,,,,,,,,,,,,,,,,,,,,,,,,,,,,,,,,,,,,,,,,,,,,,,,,,,,,,,,,,,,,,,,,,,,,,,,,,,,,,,,,,,,,,,,,,,,,,,,,,,,,,,,,,,,,,,,,,,,,,,,,,,,,,,,,,,,,,,,,,,,,,,
0,27,27,87,1,,60d336457da539b0a93cb7d3,62bbf937e12f15910a05e3f4,2022-06-29_09h07.03.278,Colour_Asymmetry_Pilot,2022.1.3,Win32,143.5338022,62bbe60bf3d75ef465d3e404,,,,,,,,,,,,,,,,,,,,,,,,,,,,,,,,,,,,,,,,,,,,,,,,,,,,,,,,,,,,,,,,,,,,,,,,,,,,,,,,,,,,,,,,,,,,,,,,,,,,,,,,,,,,,,,,,,,,,,,,,,,,,,,,,,,,,,,,,,,,,,,,,,,,,,,,,,,,,,
0,28,28,14,1,,60d336457da539b0a93cb7d3,62bbf937e12f15910a05e3f4,2022-06-29_09h07.03.278,Colour_Asymmetry_Pilot,2022.1.3,Win32,143.5338022,62bbe60bf3d75ef465d3e404,,,,,,,,,,,,,,,,,,,,,,,,,,,,,,,,,,,,,,,,,,,,,,,,,,,,,,,,,,,,,,,,,,,,,,,,,,,,,,,,,,,,,,,,,,,,,,,,,,,,,,,,,,,,,,,,,,,,,,,,,,,,,,,,,,,,,,,,,,,,,,,,,,,,,,,,,,,,,,
0,29,29,77,1,,60d336457da539b0a93cb7d3,62bbf937e12f15910a05e3f4,2022-06-29_09h07.03.278,Colour_Asymmetry_Pilot,2022.1.3,Win32,143.5338022,62bbe60bf3d75ef465d3e404,,,,,,,,,,,,,,,,,,,,,,,,,,,,,,,,,,,,,,,,,,,,,,,,,,,,,,,,,,,,,,,,,,,,,,,,,,,,,,,,,,,,,,,,,,,,,,,,,,,,,,,,,,,,,,,,,,,,,,,,,,,,,,,,,,,,,,,,,,,,,,,,,,,,,,,,,,,,,,
0,30,30,38,1,,60d336457da539b0a93cb7d3,62bbf937e12f15910a05e3f4,2022-06-29_09h07.03.278,Colour_Asymmetry_Pilot,2022.1.3,Win32,143.5338022,62bbe60bf3d75ef465d3e404,,,,,,,,,,,,,,,,,,,,,,,,,,,,,,,,,,,,,,,,,,,,,,,,,,,,,,,,,,,,,,,,,,,,,,,,,,,,,,,,,,,,,,,,,,,,,,,,,,,,,,,,,,,,,,,,,,,,,,,,,,,,,,,,,,,,,,,,,,,,,,,,,,,,,,,,,,,,,,
0,31,31,18,1,,60d336457da539b0a93cb7d3,62bbf937e12f15910a05e3f4,2022-06-29_09h07.03.278,Colour_Asymmetry_Pilot,2022.1.3,Win32,143.5338022,62bbe60bf3d75ef465d3e404,,,,,,,,,,,,,,,,,,,,,,,,,,,,,,,,,,,,,,,,,,,,,,,,,,,,,,,,,,,,,,,,,,,,,,,,,,,,,,,,,,,,,,,,,,,,,,,,,,,,,,,,,,,,,,,,,,,,,,,,,,,,,,,,,,,,,,,,,,,,,,,,,,,,,,,,,,,,,,
0,32,32,41,1,,60d336457da539b0a93cb7d3,62bbf937e12f15910a05e3f4,2022-06-29_09h07.03.278,Colour_Asymmetry_Pilot,2022.1.3,Win32,143.5338022,62bbe60bf3d75ef465d3e404,,,,,,,,,,,,,,,,,,,,,,,,,,,,,,,,,,,,,,,,,,,,,,,,,,,,,,,,,,,,,,,,,,,,,,,,,,,,,,,,,,,,,,,,,,,,,,,,,,,,,,,,,,,,,,,,,,,,,,,,,,,,,,,,,,,,,,,,,,,,,,,,,,,,,,,,,,,,,,
0,33,33,0,1,,60d336457da539b0a93cb7d3,62bbf937e12f15910a05e3f4,2022-06-29_09h07.03.278,Colour_Asymmetry_Pilot,2022.1.3,Win32,143.5338022,62bbe60bf3d75ef465d3e404,,,,,,,,,,,,,,,,,,,,,,,,,,,,,,,,,,,,,,,,,,,,,,,,,,,,,,,,,,,,,,,,,,,,,,,,,,,,,,,,,,,,,,,,,,,,,,,,,,,,,,,,,,,,,,,,,,,,,,,,,,,,,,,,,,,,,,,,,,,,,,,,,,,,,,,,,,,,,,
0,34,34,13,1,,60d336457da539b0a93cb7d3,62bbf937e12f15910a05e3f4,2022-06-29_09h07.03.278,Colour_Asymmetry_Pilot,2022.1.3,Win32,143.5338022,62bbe60bf3d75ef465d3e404,,,,,,,,,,,,,,,,,,,,,,,,,,,,,,,,,,,,,,,,,,,,,,,,,,,,,,,,,,,,,,,,,,,,,,,,,,,,,,,,,,,,,,,,,,,,,,,,,,,,,,,,,,,,,,,,,,,,,,,,,,,,,,,,,,,,,,,,,,,,,,,,,,,,,,,,,,,,,,
0,35,35,76,1,,60d336457da539b0a93cb7d3,62bbf937e12f15910a05e3f4,2022-06-29_09h07.03.278,Colour_Asymmetry_Pilot,2022.1.3,Win32,143.5338022,62bbe60bf3d75ef465d3e404,,,,,,,,,,,,,,,,,,,,,,,,,,,,,,,,,,,,,,,,,,,,,,,,,,,,,,,,,,,,,,,,,,,,,,,,,,,,,,,,,,,,,,,,,,,,,,,,,,,,,,,,,,,,,,,,,,,,,,,,,,,,,,,,,,,,,,,,,,,,,,,,,,,,,,,,,,,,,,
0,36,36,2,1,,60d336457da539b0a93cb7d3,62bbf937e12f15910a05e3f4,2022-06-29_09h07.03.278,Colour_Asymmetry_Pilot,2022.1.3,Win32,143.5338022,62bbe60bf3d75ef465d3e404,,,,,,,,,,,,,,,,,,,,,,,,,,,,,,,,,,,,,,,,,,,,,,,,,,,,,,,,,,,,,,,,,,,,,,,,,,,,,,,,,,,,,,,,,,,,,,,,,,,,,,,,,,,,,,,,,,,,,,,,,,,,,,,,,,,,,,,,,,,,,,,,,,,,,,,,,,,,,,
0,37,37,51,1,,60d336457da539b0a93cb7d3,62bbf937e12f15910a05e3f4,2022-06-29_09h07.03.278,Colour_Asymmetry_Pilot,2022.1.3,Win32,143.5338022,62bbe60bf3d75ef465d3e404,,,,,,,,,,,,,,,,,,,,,,,,,,,,,,,,,,,,,,,,,,,,,,,,,,,,,,,,,,,,,,,,,,,,,,,,,,,,,,,,,,,,,,,,,,,,,,,,,,,,,,,,,,,,,,,,,,,,,,,,,,,,,,,,,,,,,,,,,,,,,,,,,,,,,,,,,,,,,,
0,38,38,47,1,,60d336457da539b0a93cb7d3,62bbf937e12f15910a05e3f4,2022-06-29_09h07.03.278,Colour_Asymmetry_Pilot,2022.1.3,Win32,143.5338022,62bbe60bf3d75ef465d3e404,,,,,,,,,,,,,,,,,,,,,,,,,,,,,,,,,,,,,,,,,,,,,,,,,,,,,,,,,,,,,,,,,,,,,,,,,,,,,,,,,,,,,,,,,,,,,,,,,,,,,,,,,,,,,,,,,,,,,,,,,,,,,,,,,,,,,,,,,,,,,,,,,,,,,,,,,,,,,,
0,39,39,52,1,,60d336457da539b0a93cb7d3,62bbf937e12f15910a05e3f4,2022-06-29_09h07.03.278,Colour_Asymmetry_Pilot,2022.1.3,Win32,143.5338022,62bbe60bf3d75ef465d3e404,,,,,,,,,,,,,,,,,,,,,,,,,,,,,,,,,,,,,,,,,,,,,,,,,,,,,,,,,,,,,,,,,,,,,,,,,,,,,,,,,,,,,,,,,,,,,,,,,,,,,,,,,,,,,,,,,,,,,,,,,,,,,,,,,,,,,,,,,,,,,,,,,,,,,,,,,,,,,,
0,40,40,54,1,,60d336457da539b0a93cb7d3,62bbf937e12f15910a05e3f4,2022-06-29_09h07.03.278,Colour_Asymmetry_Pilot,2022.1.3,Win32,143.5338022,62bbe60bf3d75ef465d3e404,,,,,,,,,,,,,,,,,,,,,,,,,,,,,,,,,,,,,,,,,,,,,,,,,,,,,,,,,,,,,,,,,,,,,,,,,,,,,,,,,,,,,,,,,,,,,,,,,,,,,,,,,,,,,,,,,,,,,,,,,,,,,,,,,,,,,,,,,,,,,,,,,,,,,,,,,,,,,,
0,41,41,58,1,,60d336457da539b0a93cb7d3,62bbf937e12f15910a05e3f4,2022-06-29_09h07.03.278,Colour_Asymmetry_Pilot,2022.1.3,Win32,143.5338022,62bbe60bf3d75ef465d3e404,,,,,,,,,,,,,,,,,,,,,,,,,,,,,,,,,,,,,,,,,,,,,,,,,,,,,,,,,,,,,,,,,,,,,,,,,,,,,,,,,,,,,,,,,,,,,,,,,,,,,,,,,,,,,,,,,,,,,,,,,,,,,,,,,,,,,,,,,,,,,,,,,,,,,,,,,,,,,,
0,42,42,80,1,,60d336457da539b0a93cb7d3,62bbf937e12f15910a05e3f4,2022-06-29_09h07.03.278,Colour_Asymmetry_Pilot,2022.1.3,Win32,143.5338022,62bbe60bf3d75ef465d3e404,,,,,,,,,,,,,,,,,,,,,,,,,,,,,,,,,,,,,,,,,,,,,,,,,,,,,,,,,,,,,,,,,,,,,,,,,,,,,,,,,,,,,,,,,,,,,,,,,,,,,,,,,,,,,,,,,,,,,,,,,,,,,,,,,,,,,,,,,,,,,,,,,,,,,,,,,,,,,,
0,43,43,53,1,,60d336457da539b0a93cb7d3,62bbf937e12f15910a05e3f4,2022-06-29_09h07.03.278,Colour_Asymmetry_Pilot,2022.1.3,Win32,143.5338022,62bbe60bf3d75ef465d3e404,,,,,,,,,,,,,,,,,,,,,,,,,,,,,,,,,,,,,,,,,,,,,,,,,,,,,,,,,,,,,,,,,,,,,,,,,,,,,,,,,,,,,,,,,,,,,,,,,,,,,,,,,,,,,,,,,,,,,,,,,,,,,,,,,,,,,,,,,,,,,,,,,,,,,,,,,,,,,,
0,44,44,29,1,,60d336457da539b0a93cb7d3,62bbf937e12f15910a05e3f4,2022-06-29_09h07.03.278,Colour_Asymmetry_Pilot,2022.1.3,Win32,143.5338022,62bbe60bf3d75ef465d3e404,,,,,,,,,,,,,,,,,,,,,,,,,,,,,,,,,,,,,,,,,,,,,,,,,,,,,,,,,,,,,,,,,,,,,,,,,,,,,,,,,,,,,,,,,,,,,,,,,,,,,,,,,,,,,,,,,,,,,,,,,,,,,,,,,,,,,,,,,,,,,,,,,,,,,,,,,,,,,,
0,45,45,44,1,,60d336457da539b0a93cb7d3,62bbf937e12f15910a05e3f4,2022-06-29_09h07.03.278,Colour_Asymmetry_Pilot,2022.1.3,Win32,143.5338022,62bbe60bf3d75ef465d3e404,,,,,,,,,,,,,,,,,,,,,,,,,,,,,,,,,,,,,,,,,,,,,,,,,,,,,,,,,,,,,,,,,,,,,,,,,,,,,,,,,,,,,,,,,,,,,,,,,,,,,,,,,,,,,,,,,,,,,,,,,,,,,,,,,,,,,,,,,,,,,,,,,,,,,,,,,,,,,,
0,46,46,35,1,,60d336457da539b0a93cb7d3,62bbf937e12f15910a05e3f4,2022-06-29_09h07.03.278,Colour_Asymmetry_Pilot,2022.1.3,Win32,143.5338022,62bbe60bf3d75ef465d3e404,,,,,,,,,,,,,,,,,,,,,,,,,,,,,,,,,,,,,,,,,,,,,,,,,,,,,,,,,,,,,,,,,,,,,,,,,,,,,,,,,,,,,,,,,,,,,,,,,,,,,,,,,,,,,,,,,,,,,,,,,,,,,,,,,,,,,,,,,,,,,,,,,,,,,,,,,,,,,,
0,47,47,12,1,,60d336457da539b0a93cb7d3,62bbf937e12f15910a05e3f4,2022-06-29_09h07.03.278,Colour_Asymmetry_Pilot,2022.1.3,Win32,143.5338022,62bbe60bf3d75ef465d3e404,,,,,,,,,,,,,,,,,,,,,,,,,,,,,,,,,,,,,,,,,,,,,,,,,,,,,,,,,,,,,,,,,,,,,,,,,,,,,,,,,,,,,,,,,,,,,,,,,,,,,,,,,,,,,,,,,,,,,,,,,,,,,,,,,,,,,,,,,,,,,,,,,,,,,,,,,,,,,,
0,48,48,10,1,,60d336457da539b0a93cb7d3,62bbf937e12f15910a05e3f4,2022-06-29_09h07.03.278,Colour_Asymmetry_Pilot,2022.1.3,Win32,143.5338022,62bbe60bf3d75ef465d3e404,,,,,,,,,,,,,,,,,,,,,,,,,,,,,,,,,,,,,,,,,,,,,,,,,,,,,,,,,,,,,,,,,,,,,,,,,,,,,,,,,,,,,,,,,,,,,,,,,,,,,,,,,,,,,,,,,,,,,,,,,,,,,,,,,,,,,,,,,,,,,,,,,,,,,,,,,,,,,,
0,49,49,36,1,,60d336457da539b0a93cb7d3,62bbf937e12f15910a05e3f4,2022-06-29_09h07.03.278,Colour_Asymmetry_Pilot,2022.1.3,Win32,143.5338022,62bbe60bf3d75ef465d3e404,,,,,,,,,,,,,,,,,,,,,,,,,,,,,,,,,,,,,,,,,,,,,,,,,,,,,,,,,,,,,,,,,,,,,,,,,,,,,,,,,,,,,,,,,,,,,,,,,,,,,,,,,,,,,,,,,,,,,,,,,,,,,,,,,,,,,,,,,,,,,,,,,,,,,,,,,,,,,,
0,50,50,4,1,,60d336457da539b0a93cb7d3,62bbf937e12f15910a05e3f4,2022-06-29_09h07.03.278,Colour_Asymmetry_Pilot,2022.1.3,Win32,143.5338022,62bbe60bf3d75ef465d3e404,,,,,,,,,,,,,,,,,,,,,,,,,,,,,,,,,,,,,,,,,,,,,,,,,,,,,,,,,,,,,,,,,,,,,,,,,,,,,,,,,,,,,,,,,,,,,,,,,,,,,,,,,,,,,,,,,,,,,,,,,,,,,,,,,,,,,,,,,,,,,,,,,,,,,,,,,,,,,,
0,51,51,9,1,,60d336457da539b0a93cb7d3,62bbf937e12f15910a05e3f4,2022-06-29_09h07.03.278,Colour_Asymmetry_Pilot,2022.1.3,Win32,143.5338022,62bbe60bf3d75ef465d3e404,,,,,,,,,,,,,,,,,,,,,,,,,,,,,,,,,,,,,,,,,,,,,,,,,,,,,,,,,,,,,,,,,,,,,,,,,,,,,,,,,,,,,,,,,,,,,,,,,,,,,,,,,,,,,,,,,,,,,,,,,,,,,,,,,,,,,,,,,,,,,,,,,,,,,,,,,,,,,,
0,52,52,17,1,,60d336457da539b0a93cb7d3,62bbf937e12f15910a05e3f4,2022-06-29_09h07.03.278,Colour_Asymmetry_Pilot,2022.1.3,Win32,143.5338022,62bbe60bf3d75ef465d3e404,,,,,,,,,,,,,,,,,,,,,,,,,,,,,,,,,,,,,,,,,,,,,,,,,,,,,,,,,,,,,,,,,,,,,,,,,,,,,,,,,,,,,,,,,,,,,,,,,,,,,,,,,,,,,,,,,,,,,,,,,,,,,,,,,,,,,,,,,,,,,,,,,,,,,,,,,,,,,,
0,53,53,45,1,,60d336457da539b0a93cb7d3,62bbf937e12f15910a05e3f4,2022-06-29_09h07.03.278,Colour_Asymmetry_Pilot,2022.1.3,Win32,143.5338022,62bbe60bf3d75ef465d3e404,,,,,,,,,,,,,,,,,,,,,,,,,,,,,,,,,,,,,,,,,,,,,,,,,,,,,,,,,,,,,,,,,,,,,,,,,,,,,,,,,,,,,,,,,,,,,,,,,,,,,,,,,,,,,,,,,,,,,,,,,,,,,,,,,,,,,,,,,,,,,,,,,,,,,,,,,,,,,,
0,54,54,91,1,,60d336457da539b0a93cb7d3,62bbf937e12f15910a05e3f4,2022-06-29_09h07.03.278,Colour_Asymmetry_Pilot,2022.1.3,Win32,143.5338022,62bbe60bf3d75ef465d3e404,,,,,,,,,,,,,,,,,,,,,,,,,,,,,,,,,,,,,,,,,,,,,,,,,,,,,,,,,,,,,,,,,,,,,,,,,,,,,,,,,,,,,,,,,,,,,,,,,,,,,,,,,,,,,,,,,,,,,,,,,,,,,,,,,,,,,,,,,,,,,,,,,,,,,,,,,,,,,,
0,55,55,60,1,,60d336457da539b0a93cb7d3,62bbf937e12f15910a05e3f4,2022-06-29_09h07.03.278,Colour_Asymmetry_Pilot,2022.1.3,Win32,143.5338022,62bbe60bf3d75ef465d3e404,,,,,,,,,,,,,,,,,,,,,,,,,,,,,,,,,,,,,,,,,,,,,,,,,,,,,,,,,,,,,,,,,,,,,,,,,,,,,,,,,,,,,,,,,,,,,,,,,,,,,,,,,,,,,,,,,,,,,,,,,,,,,,,,,,,,,,,,,,,,,,,,,,,,,,,,,,,,,,
0,56,56,22,1,,60d336457da539b0a93cb7d3,62bbf937e12f15910a05e3f4,2022-06-29_09h07.03.278,Colour_Asymmetry_Pilot,2022.1.3,Win32,143.5338022,62bbe60bf3d75ef465d3e404,,,,,,,,,,,,,,,,,,,,,,,,,,,,,,,,,,,,,,,,,,,,,,,,,,,,,,,,,,,,,,,,,,,,,,,,,,,,,,,,,,,,,,,,,,,,,,,,,,,,,,,,,,,,,,,,,,,,,,,,,,,,,,,,,,,,,,,,,,,,,,,,,,,,,,,,,,,,,,
0,57,57,59,1,,60d336457da539b0a93cb7d3,62bbf937e12f15910a05e3f4,2022-06-29_09h07.03.278,Colour_Asymmetry_Pilot,2022.1.3,Win32,143.5338022,62bbe60bf3d75ef465d3e404,,,,,,,,,,,,,,,,,,,,,,,,,,,,,,,,,,,,,,,,,,,,,,,,,,,,,,,,,,,,,,,,,,,,,,,,,,,,,,,,,,,,,,,,,,,,,,,,,,,,,,,,,,,,,,,,,,,,,,,,,,,,,,,,,,,,,,,,,,,,,,,,,,,,,,,,,,,,,,
0,58,58,39,1,,60d336457da539b0a93cb7d3,62bbf937e12f15910a05e3f4,2022-06-29_09h07.03.278,Colour_Asymmetry_Pilot,2022.1.3,Win32,143.5338022,62bbe60bf3d75ef465d3e404,,,,,,,,,,,,,,,,,,,,,,,,,,,,,,,,,,,,,,,,,,,,,,,,,,,,,,,,,,,,,,,,,,,,,,,,,,,,,,,,,,,,,,,,,,,,,,,,,,,,,,,,,,,,,,,,,,,,,,,,,,,,,,,,,,,,,,,,,,,,,,,,,,,,,,,,,,,,,,
0,59,59,7,1,,60d336457da539b0a93cb7d3,62bbf937e12f15910a05e3f4,2022-06-29_09h07.03.278,Colour_Asymmetry_Pilot,2022.1.3,Win32,143.5338022,62bbe60bf3d75ef465d3e404,,,,,,,,,,,,,,,,,,,,,,,,,,,,,,,,,,,,,,,,,,,,,,,,,,,,,,,,,,,,,,,,,,,,,,,,,,,,,,,,,,,,,,,,,,,,,,,,,,,,,,,,,,,,,,,,,,,,,,,,,,,,,,,,,,,,,,,,,,,,,,,,,,,,,,,,,,,,,,
0,60,60,63,1,,60d336457da539b0a93cb7d3,62bbf937e12f15910a05e3f4,2022-06-29_09h07.03.278,Colour_Asymmetry_Pilot,2022.1.3,Win32,143.5338022,62bbe60bf3d75ef465d3e404,,,,,,,,,,,,,,,,,,,,,,,,,,,,,,,,,,,,,,,,,,,,,,,,,,,,,,,,,,,,,,,,,,,,,,,,,,,,,,,,,,,,,,,,,,,,,,,,,,,,,,,,,,,,,,,,,,,,,,,,,,,,,,,,,,,,,,,,,,,,,,,,,,,,,,,,,,,,,,
0,61,61,57,1,,60d336457da539b0a93cb7d3,62bbf937e12f15910a05e3f4,2022-06-29_09h07.03.278,Colour_Asymmetry_Pilot,2022.1.3,Win32,143.5338022,62bbe60bf3d75ef465d3e404,,,,,,,,,,,,,,,,,,,,,,,,,,,,,,,,,,,,,,,,,,,,,,,,,,,,,,,,,,,,,,,,,,,,,,,,,,,,,,,,,,,,,,,,,,,,,,,,,,,,,,,,,,,,,,,,,,,,,,,,,,,,,,,,,,,,,,,,,,,,,,,,,,,,,,,,,,,,,,
0,62,62,21,1,,60d336457da539b0a93cb7d3,62bbf937e12f15910a05e3f4,2022-06-29_09h07.03.278,Colour_Asymmetry_Pilot,2022.1.3,Win32,143.5338022,62bbe60bf3d75ef465d3e404,,,,,,,,,,,,,,,,,,,,,,,,,,,,,,,,,,,,,,,,,,,,,,,,,,,,,,,,,,,,,,,,,,,,,,,,,,,,,,,,,,,,,,,,,,,,,,,,,,,,,,,,,,,,,,,,,,,,,,,,,,,,,,,,,,,,,,,,,,,,,,,,,,,,,,,,,,,,,,
0,63,63,83,1,,60d336457da539b0a93cb7d3,62bbf937e12f15910a05e3f4,2022-06-29_09h07.03.278,Colour_Asymmetry_Pilot,2022.1.3,Win32,143.5338022,62bbe60bf3d75ef465d3e404,,,,,,,,,,,,,,,,,,,,,,,,,,,,,,,,,,,,,,,,,,,,,,,,,,,,,,,,,,,,,,,,,,,,,,,,,,,,,,,,,,,,,,,,,,,,,,,,,,,,,,,,,,,,,,,,,,,,,,,,,,,,,,,,,,,,,,,,,,,,,,,,,,,,,,,,,,,,,,
0,64,64,37,1,,60d336457da539b0a93cb7d3,62bbf937e12f15910a05e3f4,2022-06-29_09h07.03.278,Colour_Asymmetry_Pilot,2022.1.3,Win32,143.5338022,62bbe60bf3d75ef465d3e404,,,,,,,,,,,,,,,,,,,,,,,,,,,,,,,,,,,,,,,,,,,,,,,,,,,,,,,,,,,,,,,,,,,,,,,,,,,,,,,,,,,,,,,,,,,,,,,,,,,,,,,,,,,,,,,,,,,,,,,,,,,,,,,,,,,,,,,,,,,,,,,,,,,,,,,,,,,,,,
0,65,65,92,1,,60d336457da539b0a93cb7d3,62bbf937e12f15910a05e3f4,2022-06-29_09h07.03.278,Colour_Asymmetry_Pilot,2022.1.3,Win32,143.5338022,62bbe60bf3d75ef465d3e404,,,,,,,,,,,,,,,,,,,,,,,,,,,,,,,,,,,,,,,,,,,,,,,,,,,,,,,,,,,,,,,,,,,,,,,,,,,,,,,,,,,,,,,,,,,,,,,,,,,,,,,,,,,,,,,,,,,,,,,,,,,,,,,,,,,,,,,,,,,,,,,,,,,,,,,,,,,,,,
0,66,66,26,1,,60d336457da539b0a93cb7d3,62bbf937e12f15910a05e3f4,2022-06-29_09h07.03.278,Colour_Asymmetry_Pilot,2022.1.3,Win32,143.5338022,62bbe60bf3d75ef465d3e404,,,,,,,,,,,,,,,,,,,,,,,,,,,,,,,,,,,,,,,,,,,,,,,,,,,,,,,,,,,,,,,,,,,,,,,,,,,,,,,,,,,,,,,,,,,,,,,,,,,,,,,,,,,,,,,,,,,,,,,,,,,,,,,,,,,,,,,,,,,,,,,,,,,,,,,,,,,,,,
0,67,67,46,1,,60d336457da539b0a93cb7d3,62bbf937e12f15910a05e3f4,2022-06-29_09h07.03.278,Colour_Asymmetry_Pilot,2022.1.3,Win32,143.5338022,62bbe60bf3d75ef465d3e404,,,,,,,,,,,,,,,,,,,,,,,,,,,,,,,,,,,,,,,,,,,,,,,,,,,,,,,,,,,,,,,,,,,,,,,,,,,,,,,,,,,,,,,,,,,,,,,,,,,,,,,,,,,,,,,,,,,,,,,,,,,,,,,,,,,,,,,,,,,,,,,,,,,,,,,,,,,,,,
0,68,68,82,1,,60d336457da539b0a93cb7d3,62bbf937e12f15910a05e3f4,2022-06-29_09h07.03.278,Colour_Asymmetry_Pilot,2022.1.3,Win32,143.5338022,62bbe60bf3d75ef465d3e404,,,,,,,,,,,,,,,,,,,,,,,,,,,,,,,,,,,,,,,,,,,,,,,,,,,,,,,,,,,,,,,,,,,,,,,,,,,,,,,,,,,,,,,,,,,,,,,,,,,,,,,,,,,,,,,,,,,,,,,,,,,,,,,,,,,,,,,,,,,,,,,,,,,,,,,,,,,,,,
0,69,69,31,1,,60d336457da539b0a93cb7d3,62bbf937e12f15910a05e3f4,2022-06-29_09h07.03.278,Colour_Asymmetry_Pilot,2022.1.3,Win32,143.5338022,62bbe60bf3d75ef465d3e404,,,,,,,,,,,,,,,,,,,,,,,,,,,,,,,,,,,,,,,,,,,,,,,,,,,,,,,,,,,,,,,,,,,,,,,,,,,,,,,,,,,,,,,,,,,,,,,,,,,,,,,,,,,,,,,,,,,,,,,,,,,,,,,,,,,,,,,,,,,,,,,,,,,,,,,,,,,,,,
0,70,70,3,1,,60d336457da539b0a93cb7d3,62bbf937e12f15910a05e3f4,2022-06-29_09h07.03.278,Colour_Asymmetry_Pilot,2022.1.3,Win32,143.5338022,62bbe60bf3d75ef465d3e404,,,,,,,,,,,,,,,,,,,,,,,,,,,,,,,,,,,,,,,,,,,,,,,,,,,,,,,,,,,,,,,,,,,,,,,,,,,,,,,,,,,,,,,,,,,,,,,,,,,,,,,,,,,,,,,,,,,,,,,,,,,,,,,,,,,,,,,,,,,,,,,,,,,,,,,,,,,,,,
0,71,71,78,1,,60d336457da539b0a93cb7d3,62bbf937e12f15910a05e3f4,2022-06-29_09h07.03.278,Colour_Asymmetry_Pilot,2022.1.3,Win32,143.5338022,62bbe60bf3d75ef465d3e404,,,,,,,,,,,,,,,,,,,,,,,,,,,,,,,,,,,,,,,,,,,,,,,,,,,,,,,,,,,,,,,,,,,,,,,,,,,,,,,,,,,,,,,,,,,,,,,,,,,,,,,,,,,,,,,,,,,,,,,,,,,,,,,,,,,,,,,,,,,,,,,,,,,,,,,,,,,,,,
0,72,72,68,1,,60d336457da539b0a93cb7d3,62bbf937e12f15910a05e3f4,2022-06-29_09h07.03.278,Colour_Asymmetry_Pilot,2022.1.3,Win32,143.5338022,62bbe60bf3d75ef465d3e404,,,,,,,,,,,,,,,,,,,,,,,,,,,,,,,,,,,,,,,,,,,,,,,,,,,,,,,,,,,,,,,,,,,,,,,,,,,,,,,,,,,,,,,,,,,,,,,,,,,,,,,,,,,,,,,,,,,,,,,,,,,,,,,,,,,,,,,,,,,,,,,,,,,,,,,,,,,,,,
0,73,73,70,1,,60d336457da539b0a93cb7d3,62bbf937e12f15910a05e3f4,2022-06-29_09h07.03.278,Colour_Asymmetry_Pilot,2022.1.3,Win32,143.5338022,62bbe60bf3d75ef465d3e404,,,,,,,,,,,,,,,,,,,,,,,,,,,,,,,,,,,,,,,,,,,,,,,,,,,,,,,,,,,,,,,,,,,,,,,,,,,,,,,,,,,,,,,,,,,,,,,,,,,,,,,,,,,,,,,,,,,,,,,,,,,,,,,,,,,,,,,,,,,,,,,,,,,,,,,,,,,,,,
0,74,74,30,1,,60d336457da539b0a93cb7d3,62bbf937e12f15910a05e3f4,2022-06-29_09h07.03.278,Colour_Asymmetry_Pilot,2022.1.3,Win32,143.5338022,62bbe60bf3d75ef465d3e404,,,,,,,,,,,,,,,,,,,,,,,,,,,,,,,,,,,,,,,,,,,,,,,,,,,,,,,,,,,,,,,,,,,,,,,,,,,,,,,,,,,,,,,,,,,,,,,,,,,,,,,,,,,,,,,,,,,,,,,,,,,,,,,,,,,,,,,,,,,,,,,,,,,,,,,,,,,,,,
0,75,75,24,1,,60d336457da539b0a93cb7d3,62bbf937e12f15910a05e3f4,2022-06-29_09h07.03.278,Colour_Asymmetry_Pilot,2022.1.3,Win32,143.5338022,62bbe60bf3d75ef465d3e404,,,,,,,,,,,,,,,,,,,,,,,,,,,,,,,,,,,,,,,,,,,,,,,,,,,,,,,,,,,,,,,,,,,,,,,,,,,,,,,,,,,,,,,,,,,,,,,,,,,,,,,,,,,,,,,,,,,,,,,,,,,,,,,,,,,,,,,,,,,,,,,,,,,,,,,,,,,,,,
0,76,76,6,1,,60d336457da539b0a93cb7d3,62bbf937e12f15910a05e3f4,2022-06-29_09h07.03.278,Colour_Asymmetry_Pilot,2022.1.3,Win32,143.5338022,62bbe60bf3d75ef465d3e404,,,,,,,,,,,,,,,,,,,,,,,,,,,,,,,,,,,,,,,,,,,,,,,,,,,,,,,,,,,,,,,,,,,,,,,,,,,,,,,,,,,,,,,,,,,,,,,,,,,,,,,,,,,,,,,,,,,,,,,,,,,,,,,,,,,,,,,,,,,,,,,,,,,,,,,,,,,,,,
0,77,77,11,1,,60d336457da539b0a93cb7d3,62bbf937e12f15910a05e3f4,2022-06-29_09h07.03.278,Colour_Asymmetry_Pilot,2022.1.3,Win32,143.5338022,62bbe60bf3d75ef465d3e404,,,,,,,,,,,,,,,,,,,,,,,,,,,,,,,,,,,,,,,,,,,,,,,,,,,,,,,,,,,,,,,,,,,,,,,,,,,,,,,,,,,,,,,,,,,,,,,,,,,,,,,,,,,,,,,,,,,,,,,,,,,,,,,,,,,,,,,,,,,,,,,,,,,,,,,,,,,,,,
0,78,78,23,1,,60d336457da539b0a93cb7d3,62bbf937e12f15910a05e3f4,2022-06-29_09h07.03.278,Colour_Asymmetry_Pilot,2022.1.3,Win32,143.5338022,62bbe60bf3d75ef465d3e404,,,,,,,,,,,,,,,,,,,,,,,,,,,,,,,,,,,,,,,,,,,,,,,,,,,,,,,,,,,,,,,,,,,,,,,,,,,,,,,,,,,,,,,,,,,,,,,,,,,,,,,,,,,,,,,,,,,,,,,,,,,,,,,,,,,,,,,,,,,,,,,,,,,,,,,,,,,,,,
0,79,79,86,1,,60d336457da539b0a93cb7d3,62bbf937e12f15910a05e3f4,2022-06-29_09h07.03.278,Colour_Asymmetry_Pilot,2022.1.3,Win32,143.5338022,62bbe60bf3d75ef465d3e404,,,,,,,,,,,,,,,,,,,,,,,,,,,,,,,,,,,,,,,,,,,,,,,,,,,,,,,,,,,,,,,,,,,,,,,,,,,,,,,,,,,,,,,,,,,,,,,,,,,,,,,,,,,,,,,,,,,,,,,,,,,,,,,,,,,,,,,,,,,,,,,,,,,,,,,,,,,,,,
0,80,80,32,1,,60d336457da539b0a93cb7d3,62bbf937e12f15910a05e3f4,2022-06-29_09h07.03.278,Colour_Asymmetry_Pilot,2022.1.3,Win32,143.5338022,62bbe60bf3d75ef465d3e404,,,,,,,,,,,,,,,,,,,,,,,,,,,,,,,,,,,,,,,,,,,,,,,,,,,,,,,,,,,,,,,,,,,,,,,,,,,,,,,,,,,,,,,,,,,,,,,,,,,,,,,,,,,,,,,,,,,,,,,,,,,,,,,,,,,,,,,,,,,,,,,,,,,,,,,,,,,,,,
0,81,81,20,1,,60d336457da539b0a93cb7d3,62bbf937e12f15910a05e3f4,2022-06-29_09h07.03.278,Colour_Asymmetry_Pilot,2022.1.3,Win32,143.5338022,62bbe60bf3d75ef465d3e404,,,,,,,,,,,,,,,,,,,,,,,,,,,,,,,,,,,,,,,,,,,,,,,,,,,,,,,,,,,,,,,,,,,,,,,,,,,,,,,,,,,,,,,,,,,,,,,,,,,,,,,,,,,,,,,,,,,,,,,,,,,,,,,,,,,,,,,,,,,,,,,,,,,,,,,,,,,,,,
0,82,82,69,1,,60d336457da539b0a93cb7d3,62bbf937e12f15910a05e3f4,2022-06-29_09h07.03.278,Colour_Asymmetry_Pilot,2022.1.3,Win32,143.5338022,62bbe60bf3d75ef465d3e404,,,,,,,,,,,,,,,,,,,,,,,,,,,,,,,,,,,,,,,,,,,,,,,,,,,,,,,,,,,,,,,,,,,,,,,,,,,,,,,,,,,,,,,,,,,,,,,,,,,,,,,,,,,,,,,,,,,,,,,,,,,,,,,,,,,,,,,,,,,,,,,,,,,,,,,,,,,,,,
0,83,83,56,1,,60d336457da539b0a93cb7d3,62bbf937e12f15910a05e3f4,2022-06-29_09h07.03.278,Colour_Asymmetry_Pilot,2022.1.3,Win32,143.5338022,62bbe60bf3d75ef465d3e404,,,,,,,,,,,,,,,,,,,,,,,,,,,,,,,,,,,,,,,,,,,,,,,,,,,,,,,,,,,,,,,,,,,,,,,,,,,,,,,,,,,,,,,,,,,,,,,,,,,,,,,,,,,,,,,,,,,,,,,,,,,,,,,,,,,,,,,,,,,,,,,,,,,,,,,,,,,,,,
0,84,84,73,1,,60d336457da539b0a93cb7d3,62bbf937e12f15910a05e3f4,2022-06-29_09h07.03.278,Colour_Asymmetry_Pilot,2022.1.3,Win32,143.5338022,62bbe60bf3d75ef465d3e404,,,,,,,,,,,,,,,,,,,,,,,,,,,,,,,,,,,,,,,,,,,,,,,,,,,,,,,,,,,,,,,,,,,,,,,,,,,,,,,,,,,,,,,,,,,,,,,,,,,,,,,,,,,,,,,,,,,,,,,,,,,,,,,,,,,,,,,,,,,,,,,,,,,,,,,,,,,,,,
0,85,85,62,1,,60d336457da539b0a93cb7d3,62bbf937e12f15910a05e3f4,2022-06-29_09h07.03.278,Colour_Asymmetry_Pilot,2022.1.3,Win32,143.5338022,62bbe60bf3d75ef465d3e404,,,,,,,,,,,,,,,,,,,,,,,,,,,,,,,,,,,,,,,,,,,,,,,,,,,,,,,,,,,,,,,,,,,,,,,,,,,,,,,,,,,,,,,,,,,,,,,,,,,,,,,,,,,,,,,,,,,,,,,,,,,,,,,,,,,,,,,,,,,,,,,,,,,,,,,,,,,,,,
0,86,86,49,1,,60d336457da539b0a93cb7d3,62bbf937e12f15910a05e3f4,2022-06-29_09h07.03.278,Colour_Asymmetry_Pilot,2022.1.3,Win32,143.5338022,62bbe60bf3d75ef465d3e404,,,,,,,,,,,,,,,,,,,,,,,,,,,,,,,,,,,,,,,,,,,,,,,,,,,,,,,,,,,,,,,,,,,,,,,,,,,,,,,,,,,,,,,,,,,,,,,,,,,,,,,,,,,,,,,,,,,,,,,,,,,,,,,,,,,,,,,,,,,,,,,,,,,,,,,,,,,,,,
0,87,87,34,1,,60d336457da539b0a93cb7d3,62bbf937e12f15910a05e3f4,2022-06-29_09h07.03.278,Colour_Asymmetry_Pilot,2022.1.3,Win32,143.5338022,62bbe60bf3d75ef465d3e404,,,,,,,,,,,,,,,,,,,,,,,,,,,,,,,,,,,,,,,,,,,,,,,,,,,,,,,,,,,,,,,,,,,,,,,,,,,,,,,,,,,,,,,,,,,,,,,,,,,,,,,,,,,,,,,,,,,,,,,,,,,,,,,,,,,,,,,,,,,,,,,,,,,,,,,,,,,,,,
0,88,88,28,1,,60d336457da539b0a93cb7d3,62bbf937e12f15910a05e3f4,2022-06-29_09h07.03.278,Colour_Asymmetry_Pilot,2022.1.3,Win32,143.5338022,62bbe60bf3d75ef465d3e404,,,,,,,,,,,,,,,,,,,,,,,,,,,,,,,,,,,,,,,,,,,,,,,,,,,,,,,,,,,,,,,,,,,,,,,,,,,,,,,,,,,,,,,,,,,,,,,,,,,,,,,,,,,,,,,,,,,,,,,,,,,,,,,,,,,,,,,,,,,,,,,,,,,,,,,,,,,,,,
0,89,89,66,1,,60d336457da539b0a93cb7d3,62bbf937e12f15910a05e3f4,2022-06-29_09h07.03.278,Colour_Asymmetry_Pilot,2022.1.3,Win32,143.5338022,62bbe60bf3d75ef465d3e404,,,,,,,,,,,,,,,,,,,,,,,,,,,,,,,,,,,,,,,,,,,,,,,,,,,,,,,,,,,,,,,,,,,,,,,,,,,,,,,,,,,,,,,,,,,,,,,,,,,,,,,,,,,,,,,,,,,,,,,,,,,,,,,,,,,,,,,,,,,,,,,,,,,,,,,,,,,,,,
0,90,90,84,1,,60d336457da539b0a93cb7d3,62bbf937e12f15910a05e3f4,2022-06-29_09h07.03.278,Colour_Asymmetry_Pilot,2022.1.3,Win32,143.5338022,62bbe60bf3d75ef465d3e404,,,,,,,,,,,,,,,,,,,,,,,,,,,,,,,,,,,,,,,,,,,,,,,,,,,,,,,,,,,,,,,,,,,,,,,,,,,,,,,,,,,,,,,,,,,,,,,,,,,,,,,,,,,,,,,,,,,,,,,,,,,,,,,,,,,,,,,,,,,,,,,,,,,,,,,,,,,,,,
0,91,91,75,1,,60d336457da539b0a93cb7d3,62bbf937e12f15910a05e3f4,2022-06-29_09h07.03.278,Colour_Asymmetry_Pilot,2022.1.3,Win32,143.5338022,62bbe60bf3d75ef465d3e404,,,,,,,,,,,,,,,,,,,,,,,,,,,,,,,,,,,,,,,,,,,,,,,,,,,,,,,,,,,,,,,,,,,,,,,,,,,,,,,,,,,,,,,,,,,,,,,,,,,,,,,,,,,,,,,,,,,,,,,,,,,,,,,,,,,,,,,,,,,,,,,,,,,,,,,,,,,,,,
0,92,92,55,1,,60d336457da539b0a93cb7d3,62bbf937e12f15910a05e3f4,2022-06-29_09h07.03.278,Colour_Asymmetry_Pilot,2022.1.3,Win32,143.5338022,62bbe60bf3d75ef465d3e404,,,,,,,,,,,,,,,,,,,,,,,,,,,,,,,,,,,,,,,,,,,,,,,,,,,,,,,,,,,,,,,,,,,,,,,,,,,,,,,,,,,,,,,,,,,,,,,,,,,,,,,,,,,,,,,,,,,,,,,,,,,,,,,,,,,,,,,,,,,,,,,,,,,,,,,,,,,,,,
,,,,,,60d336457da539b0a93cb7d3,62bbf937e12f15910a05e3f4,2022-06-29_09h07.03.278,Colour_Asymmetry_Pilot,2022.1.3,Win32,143.5338022,62bbe60bf3d75ef465d3e404,0,0,0,117,1,threefour,,,,,,,,,,,,,,,,,,,,,,,,,,,,,,,,,,,,,,,,,,,,,,,,,,,,,,,,,,,,,,,,,,,,,,,,,,,,,,,,,,,,,,,,,,,,,,,,,,,,,,,,,,,,,,,,,,,,,,,,,,,,,,,,,,,,,,,,,,,,,,,,,,,,,,,,
,,,,,,60d336457da539b0a93cb7d3,62bbf937e12f15910a05e3f4,2022-06-29_09h07.03.278,Colour_Asymmetry_Pilot,2022.1.3,Win32,143.5338022,62bbe60bf3d75ef465d3e404,0,1,1,89,1,onethree,,,,,,,,,,,,,,,,,,,,,,,,,,,,,,,,,,,,,,,,,,,,,,,,,,,,,,,,,,,,,,,,,,,,,,,,,,,,,,,,,,,,,,,,,,,,,,,,,,,,,,,,,,,,,,,,,,,,,,,,,,,,,,,,,,,,,,,,,,,,,,,,,,,,,,,,
,,,,,,60d336457da539b0a93cb7d3,62bbf937e12f15910a05e3f4,2022-06-29_09h07.03.278,Colour_Asymmetry_Pilot,2022.1.3,Win32,143.5338022,62bbe60bf3d75ef465d3e404,0,2,2,119,1,fourthree,,,,,,,,,,,,,,,,,,,,,,,,,,,,,,,,,,,,,,,,,,,,,,,,,,,,,,,,,,,,,,,,,,,,,,,,,,,,,,,,,,,,,,,,,,,,,,,,,,,,,,,,,,,,,,,,,,,,,,,,,,,,,,,,,,,,,,,,,,,,,,,,,,,,,,,,
,,,,,,60d336457da539b0a93cb7d3,62bbf937e12f15910a05e3f4,2022-06-29_09h07.03.278,Colour_Asymmetry_Pilot,2022.1.3,Win32,143.5338022,62bbe60bf3d75ef465d3e404,0,3,3,59,1,twofour,,,,,,,,,,,,,,,,,,,,,,,,,,,,,,,,,,,,,,,,,,,,,,,,,,,,,,,,,,,,,,,,,,,,,,,,,,,,,,,,,,,,,,,,,,,,,,,,,,,,,,,,,,,,,,,,,,,,,,,,,,,,,,,,,,,,,,,,,,,,,,,,,,,,,,,,
,,,,,,60d336457da539b0a93cb7d3,62bbf937e12f15910a05e3f4,2022-06-29_09h07.03.278,Colour_Asymmetry_Pilot,2022.1.3,Win32,143.5338022,62bbe60bf3d75ef465d3e404,0,4,4,95,1,fourthree,,,,,,,,,,,,,,,,,,,,,,,,,,,,,,,,,,,,,,,,,,,,,,,,,,,,,,,,,,,,,,,,,,,,,,,,,,,,,,,,,,,,,,,,,,,,,,,,,,,,,,,,,,,,,,,,,,,,,,,,,,,,,,,,,,,,,,,,,,,,,,,,,,,,,,,,
,,,,,,60d336457da539b0a93cb7d3,62bbf937e12f15910a05e3f4,2022-06-29_09h07.03.278,Colour_Asymmetry_Pilot,2022.1.3,Win32,143.5338022,62bbe60bf3d75ef465d3e404,0,5,5,75,1,twofour,,,,,,,,,,,,,,,,,,,,,,,,,,,,,,,,,,,,,,,,,,,,,,,,,,,,,,,,,,,,,,,,,,,,,,,,,,,,,,,,,,,,,,,,,,,,,,,,,,,,,,,,,,,,,,,,,,,,,,,,,,,,,,,,,,,,,,,,,,,,,,,,,,,,,,,,
,,,,,,60d336457da539b0a93cb7d3,62bbf937e12f15910a05e3f4,2022-06-29_09h07.03.278,Colour_Asymmetry_Pilot,2022.1.3,Win32,143.5338022,62bbe60bf3d75ef465d3e404,0,6,6,64,1,onetwo,,,,,,,,,,,,,,,,,,,,,,,,,,,,,,,,,,,,,,,,,,,,,,,,,,,,,,,,,,,,,,,,,,,,,,,,,,,,,,,,,,,,,,,,,,,,,,,,,,,,,,,,,,,,,,,,,,,,,,,,,,,,,,,,,,,,,,,,,,,,,,,,,,,,,,,,
,,,,,,60d336457da539b0a93cb7d3,62bbf937e12f15910a05e3f4,2022-06-29_09h07.03.278,Colour_Asymmetry_Pilot,2022.1.3,Win32,143.5338022,62bbe60bf3d75ef465d3e404,0,7,7,109,1,threefour,,,,,,,,,,,,,,,,,,,,,,,,,,,,,,,,,,,,,,,,,,,,,,,,,,,,,,,,,,,,,,,,,,,,,,,,,,,,,,,,,,,,,,,,,,,,,,,,,,,,,,,,,,,,,,,,,,,,,,,,,,,,,,,,,,,,,,,,,,,,,,,,,,,,,,,,
,,,,,,60d336457da539b0a93cb7d3,62bbf937e12f15910a05e3f4,2022-06-29_09h07.03.278,Colour_Asymmetry_Pilot,2022.1.3,Win32,143.5338022,62bbe60bf3d75ef465d3e404,0,8,8,57,1,onethree,,,,,,,,,,,,,,,,,,,,,,,,,,,,,,,,,,,,,,,,,,,,,,,,,,,,,,,,,,,,,,,,,,,,,,,,,,,,,,,,,,,,,,,,,,,,,,,,,,,,,,,,,,,,,,,,,,,,,,,,,,,,,,,,,,,,,,,,,,,,,,,,,,,,,,,,
,,,,,,60d336457da539b0a93cb7d3,62bbf937e12f15910a05e3f4,2022-06-29_09h07.03.278,Colour_Asymmetry_Pilot,2022.1.3,Win32,143.5338022,62bbe60bf3d75ef465d3e404,0,9,9,102,1,fourtwo,,,,,,,,,,,,,,,,,,,,,,,,,,,,,,,,,,,,,,,,,,,,,,,,,,,,,,,,,,,,,,,,,,,,,,,,,,,,,,,,,,,,,,,,,,,,,,,,,,,,,,,,,,,,,,,,,,,,,,,,,,,,,,,,,,,,,,,,,,,,,,,,,,,,,,,,
,,,,,,60d336457da539b0a93cb7d3,62bbf937e12f15910a05e3f4,2022-06-29_09h07.03.278,Colour_Asymmetry_Pilot,2022.1.3,Win32,143.5338022,62bbe60bf3d75ef465d3e404,0,10,10,8,1,onetwo,,,,,,,,,,,,,,,,,,,,,,,,,,,,,,,,,,,,,,,,,,,,,,,,,,,,,,,,,,,,,,,,,,,,,,,,,,,,,,,,,,,,,,,,,,,,,,,,,,,,,,,,,,,,,,,,,,,,,,,,,,,,,,,,,,,,,,,,,,,,,,,,,,,,,,,,
,,,,,,60d336457da539b0a93cb7d3,62bbf937e12f15910a05e3f4,2022-06-29_09h07.03.278,Colour_Asymmetry_Pilot,2022.1.3,Win32,143.5338022,62bbe60bf3d75ef465d3e404,0,11,11,149,1,threefour,,,,,,,,,,,,,,,,,,,,,,,,,,,,,,,,,,,,,,,,,,,,,,,,,,,,,,,,,,,,,,,,,,,,,,,,,,,,,,,,,,,,,,,,,,,,,,,,,,,,,,,,,,,,,,,,,,,,,,,,,,,,,,,,,,,,,,,,,,,,,,,,,,,,,,,,
,,,,,,60d336457da539b0a93cb7d3,62bbf937e12f15910a05e3f4,2022-06-29_09h07.03.278,Colour_Asymmetry_Pilot,2022.1.3,Win32,143.5338022,62bbe60bf3d75ef465d3e404,0,12,12,105,1,onethree,,,,,,,,,,,,,,,,,,,,,,,,,,,,,,,,,,,,,,,,,,,,,,,,,,,,,,,,,,,,,,,,,,,,,,,,,,,,,,,,,,,,,,,,,,,,,,,,,,,,,,,,,,,,,,,,,,,,,,,,,,,,,,,,,,,,,,,,,,,,,,,,,,,,,,,,
,,,,,,60d336457da539b0a93cb7d3,62bbf937e12f15910a05e3f4,2022-06-29_09h07.03.278,Colour_Asymmetry_Pilot,2022.1.3,Win32,143.5338022,62bbe60bf3d75ef465d3e404,0,13,13,124,1,threeone,,,,,,,,,,,,,,,,,,,,,,,,,,,,,,,,,,,,,,,,,,,,,,,,,,,,,,,,,,,,,,,,,,,,,,,,,,,,,,,,,,,,,,,,,,,,,,,,,,,,,,,,,,,,,,,,,,,,,,,,,,,,,,,,,,,,,,,,,,,,,,,,,,,,,,,,
,,,,,,60d336457da539b0a93cb7d3,62bbf937e12f15910a05e3f4,2022-06-29_09h07.03.278,Colour_Asymmetry_Pilot,2022.1.3,Win32,143.5338022,62bbe60bf3d75ef465d3e404,0,14,14,20,1,threeone,,,,,,,,,,,,,,,,,,,,,,,,,,,,,,,,,,,,,,,,,,,,,,,,,,,,,,,,,,,,,,,,,,,,,,,,,,,,,,,,,,,,,,,,,,,,,,,,,,,,,,,,,,,,,,,,,,,,,,,,,,,,,,,,,,,,,,,,,,,,,,,,,,,,,,,,
,,,,,,60d336457da539b0a93cb7d3,62bbf937e12f15910a05e3f4,2022-06-29_09h07.03.278,Colour_Asymmetry_Pilot,2022.1.3,Win32,143.5338022,62bbe60bf3d75ef465d3e404,0,15,15,113,1,onethree,,,,,,,,,,,,,,,,,,,,,,,,,,,,,,,,,,,,,,,,,,,,,,,,,,,,,,,,,,,,,,,,,,,,,,,,,,,,,,,,,,,,,,,,,,,,,,,,,,,,,,,,,,,,,,,,,,,,,,,,,,,,,,,,,,,,,,,,,,,,,,,,,,,,,,,,
,,,,,,60d336457da539b0a93cb7d3,62bbf937e12f15910a05e3f4,2022-06-29_09h07.03.278,Colour_Asymmetry_Pilot,2022.1.3,Win32,143.5338022,62bbe60bf3d75ef465d3e404,0,16,16,4,1,threeone,,,,,,,,,,,,,,,,,,,,,,,,,,,,,,,,,,,,,,,,,,,,,,,,,,,,,,,,,,,,,,,,,,,,,,,,,,,,,,,,,,,,,,,,,,,,,,,,,,,,,,,,,,,,,,,,,,,,,,,,,,,,,,,,,,,,,,,,,,,,,,,,,,,,,,,,
,,,,,,60d336457da539b0a93cb7d3,62bbf937e12f15910a05e3f4,2022-06-29_09h07.03.278,Colour_Asymmetry_Pilot,2022.1.3,Win32,143.5338022,62bbe60bf3d75ef465d3e404,0,17,17,92,1,threeone,,,,,,,,,,,,,,,,,,,,,,,,,,,,,,,,,,,,,,,,,,,,,,,,,,,,,,,,,,,,,,,,,,,,,,,,,,,,,,,,,,,,,,,,,,,,,,,,,,,,,,,,,,,,,,,,,,,,,,,,,,,,,,,,,,,,,,,,,,,,,,,,,,,,,,,,
,,,,,,60d336457da539b0a93cb7d3,62bbf937e12f15910a05e3f4,2022-06-29_09h07.03.278,Colour_Asymmetry_Pilot,2022.1.3,Win32,143.5338022,62bbe60bf3d75ef465d3e404,0,18,18,44,1,threeone,,,,,,,,,,,,,,,,,,,,,,,,,,,,,,,,,,,,,,,,,,,,,,,,,,,,,,,,,,,,,,,,,,,,,,,,,,,,,,,,,,,,,,,,,,,,,,,,,,,,,,,,,,,,,,,,,,,,,,,,,,,,,,,,,,,,,,,,,,,,,,,,,,,,,,,,
,,,,,,60d336457da539b0a93cb7d3,62bbf937e12f15910a05e3f4,2022-06-29_09h07.03.278,Colour_Asymmetry_Pilot,2022.1.3,Win32,143.5338022,62bbe60bf3d75ef465d3e404,0,19,19,143,1,fourthree,,,,,,,,,,,,,,,,,,,,,,,,,,,,,,,,,,,,,,,,,,,,,,,,,,,,,,,,,,,,,,,,,,,,,,,,,,,,,,,,,,,,,,,,,,,,,,,,,,,,,,,,,,,,,,,,,,,,,,,,,,,,,,,,,,,,,,,,,,,,,,,,,,,,,,,,
,,,,,,60d336457da539b0a93cb7d3,62bbf937e12f15910a05e3f4,2022-06-29_09h07.03.278,Colour_Asymmetry_Pilot,2022.1.3,Win32,143.5338022,62bbe60bf3d75ef465d3e404,0,20,20,1,1,onethree,,,,,,,,,,,,,,,,,,,,,,,,,,,,,,,,,,,,,,,,,,,,,,,,,,,,,,,,,,,,,,,,,,,,,,,,,,,,,,,,,,,,,,,,,,,,,,,,,,,,,,,,,,,,,,,,,,,,,,,,,,,,,,,,,,,,,,,,,,,,,,,,,,,,,,,,
,,,,,,60d336457da539b0a93cb7d3,62bbf937e12f15910a05e3f4,2022-06-29_09h07.03.278,Colour_Asymmetry_Pilot,2022.1.3,Win32,143.5338022,62bbe60bf3d75ef465d3e404,0,21,21,80,1,onetwo,,,,,,,,,,,,,,,,,,,,,,,,,,,,,,,,,,,,,,,,,,,,,,,,,,,,,,,,,,,,,,,,,,,,,,,,,,,,,,,,,,,,,,,,,,,,,,,,,,,,,,,,,,,,,,,,,,,,,,,,,,,,,,,,,,,,,,,,,,,,,,,,,,,,,,,,
,,,,,,60d336457da539b0a93cb7d3,62bbf937e12f15910a05e3f4,2022-06-29_09h07.03.278,Colour_Asymmetry_Pilot,2022.1.3,Win32,143.5338022,62bbe60bf3d75ef465d3e404,0,22,22,152,1,onetwo,,,,,,,,,,,,,,,,,,,,,,,,,,,,,,,,,,,,,,,,,,,,,,,,,,,,,,,,,,,,,,,,,,,,,,,,,,,,,,,,,,,,,,,,,,,,,,,,,,,,,,,,,,,,,,,,,,,,,,,,,,,,,,,,,,,,,,,,,,,,,,,,,,,,,,,,
,,,,,,60d336457da539b0a93cb7d3,62bbf937e12f15910a05e3f4,2022-06-29_09h07.03.278,Colour_Asymmetry_Pilot,2022.1.3,Win32,143.5338022,62bbe60bf3d75ef465d3e404,0,23,23,116,1,threeone,,,,,,,,,,,,,,,,,,,,,,,,,,,,,,,,,,,,,,,,,,,,,,,,,,,,,,,,,,,,,,,,,,,,,,,,,,,,,,,,,,,,,,,,,,,,,,,,,,,,,,,,,,,,,,,,,,,,,,,,,,,,,,,,,,,,,,,,,,,,,,,,,,,,,,,,
,,,,,,60d336457da539b0a93cb7d3,62bbf937e12f15910a05e3f4,2022-06-29_09h07.03.278,Colour_Asymmetry_Pilot,2022.1.3,Win32,143.5338022,62bbe60bf3d75ef465d3e404,0,24,24,24,1,onetwo,,,,,,,,,,,,,,,,,,,,,,,,,,,,,,,,,,,,,,,,,,,,,,,,,,,,,,,,,,,,,,,,,,,,,,,,,,,,,,,,,,,,,,,,,,,,,,,,,,,,,,,,,,,,,,,,,,,,,,,,,,,,,,,,,,,,,,,,,,,,,,,,,,,,,,,,
,,,,,,60d336457da539b0a93cb7d3,62bbf937e12f15910a05e3f4,2022-06-29_09h07.03.278,Colour_Asymmetry_Pilot,2022.1.3,Win32,143.5338022,62bbe60bf3d75ef465d3e404,0,25,25,140,1,threeone,,,,,,,,,,,,,,,,,,,,,,,,,,,,,,,,,,,,,,,,,,,,,,,,,,,,,,,,,,,,,,,,,,,,,,,,,,,,,,,,,,,,,,,,,,,,,,,,,,,,,,,,,,,,,,,,,,,,,,,,,,,,,,,,,,,,,,,,,,,,,,,,,,,,,,,,
,,,,,,60d336457da539b0a93cb7d3,62bbf937e12f15910a05e3f4,2022-06-29_09h07.03.278,Colour_Asymmetry_Pilot,2022.1.3,Win32,143.5338022,62bbe60bf3d75ef465d3e404,0,26,26,115,1,twofour,,,,,,,,,,,,,,,,,,,,,,,,,,,,,,,,,,,,,,,,,,,,,,,,,,,,,,,,,,,,,,,,,,,,,,,,,,,,,,,,,,,,,,,,,,,,,,,,,,,,,,,,,,,,,,,,,,,,,,,,,,,,,,,,,,,,,,,,,,,,,,,,,,,,,,,,
,,,,,,60d336457da539b0a93cb7d3,62bbf937e12f15910a05e3f4,2022-06-29_09h07.03.278,Colour_Asymmetry_Pilot,2022.1.3,Win32,143.5338022,62bbe60bf3d75ef465d3e404,0,27,27,47,1,fourthree,,,,,,,,,,,,,,,,,,,,,,,,,,,,,,,,,,,,,,,,,,,,,,,,,,,,,,,,,,,,,,,,,,,,,,,,,,,,,,,,,,,,,,,,,,,,,,,,,,,,,,,,,,,,,,,,,,,,,,,,,,,,,,,,,,,,,,,,,,,,,,,,,,,,,,,,
,,,,,,60d336457da539b0a93cb7d3,62bbf937e12f15910a05e3f4,2022-06-29_09h07.03.278,Colour_Asymmetry_Pilot,2022.1.3,Win32,143.5338022,62bbe60bf3d75ef465d3e404,0,28,28,151,1,fourthree,,,,,,,,,,,,,,,,,,,,,,,,,,,,,,,,,,,,,,,,,,,,,,,,,,,,,,,,,,,,,,,,,,,,,,,,,,,,,,,,,,,,,,,,,,,,,,,,,,,,,,,,,,,,,,,,,,,,,,,,,,,,,,,,,,,,,,,,,,,,,,,,,,,,,,,,
,,,,,,60d336457da539b0a93cb7d3,62bbf937e12f15910a05e3f4,2022-06-29_09h07.03.278,Colour_Asymmetry_Pilot,2022.1.3,Win32,143.5338022,62bbe60bf3d75ef465d3e404,0,29,29,56,1,onetwo,,,,,,,,,,,,,,,,,,,,,,,,,,,,,,,,,,,,,,,,,,,,,,,,,,,,,,,,,,,,,,,,,,,,,,,,,,,,,,,,,,,,,,,,,,,,,,,,,,,,,,,,,,,,,,,,,,,,,,,,,,,,,,,,,,,,,,,,,,,,,,,,,,,,,,,,
,,,,,,60d336457da539b0a93cb7d3,62bbf937e12f15910a05e3f4,2022-06-29_09h07.03.278,Colour_Asymmetry_Pilot,2022.1.3,Win32,143.5338022,62bbe60bf3d75ef465d3e404,0,30,30,23,1,fourthree,,,,,,,,,,,,,,,,,,,,,,,,,,,,,,,,,,,,,,,,,,,,,,,,,,,,,,,,,,,,,,,,,,,,,,,,,,,,,,,,,,,,,,,,,,,,,,,,,,,,,,,,,,,,,,,,,,,,,,,,,,,,,,,,,,,,,,,,,,,,,,,,,,,,,,,,
,,,,,,60d336457da539b0a93cb7d3,62bbf937e12f15910a05e3f4,2022-06-29_09h07.03.278,Colour_Asymmetry_Pilot,2022.1.3,Win32,143.5338022,62bbe60bf3d75ef465d3e404,0,31,31,35,1,twofour,,,,,,,,,,,,,,,,,,,,,,,,,,,,,,,,,,,,,,,,,,,,,,,,,,,,,,,,,,,,,,,,,,,,,,,,,,,,,,,,,,,,,,,,,,,,,,,,,,,,,,,,,,,,,,,,,,,,,,,,,,,,,,,,,,,,,,,,,,,,,,,,,,,,,,,,
,,,,,,60d336457da539b0a93cb7d3,62bbf937e12f15910a05e3f4,2022-06-29_09h07.03.278,Colour_Asymmetry_Pilot,2022.1.3,Win32,143.5338022,62bbe60bf3d75ef465d3e404,0,32,32,49,1,onethree,,,,,,,,,,,,,,,,,,,,,,,,,,,,,,,,,,,,,,,,,,,,,,,,,,,,,,,,,,,,,,,,,,,,,,,,,,,,,,,,,,,,,,,,,,,,,,,,,,,,,,,,,,,,,,,,,,,,,,,,,,,,,,,,,,,,,,,,,,,,,,,,,,,,,,,,
,,,,,,60d336457da539b0a93cb7d3,62bbf937e12f15910a05e3f4,2022-06-29_09h07.03.278,Colour_Asymmetry_Pilot,2022.1.3,Win32,143.5338022,62bbe60bf3d75ef465d3e404,0,33,33,150,1,fourtwo,,,,,,,,,,,,,,,,,,,,,,,,,,,,,,,,,,,,,,,,,,,,,,,,,,,,,,,,,,,,,,,,,,,,,,,,,,,,,,,,,,,,,,,,,,,,,,,,,,,,,,,,,,,,,,,,,,,,,,,,,,,,,,,,,,,,,,,,,,,,,,,,,,,,,,,,
,,,,,,60d336457da539b0a93cb7d3,62bbf937e12f15910a05e3f4,2022-06-29_09h07.03.278,Colour_Asymmetry_Pilot,2022.1.3,Win32,143.5338022,62bbe60bf3d75ef465d3e404,0,34,34,28,1,threeone,,,,,,,,,,,,,,,,,,,,,,,,,,,,,,,,,,,,,,,,,,,,,,,,,,,,,,,,,,,,,,,,,,,,,,,,,,,,,,,,,,,,,,,,,,,,,,,,,,,,,,,,,,,,,,,,,,,,,,,,,,,,,,,,,,,,,,,,,,,,,,,,,,,,,,,,
,,,,,,60d336457da539b0a93cb7d3,62bbf937e12f15910a05e3f4,2022-06-29_09h07.03.278,Colour_Asymmetry_Pilot,2022.1.3,Win32,143.5338022,62bbe60bf3d75ef465d3e404,0,35,35,22,1,fourtwo,,,,,,,,,,,,,,,,,,,,,,,,,,,,,,,,,,,,,,,,,,,,,,,,,,,,,,,,,,,,,,,,,,,,,,,,,,,,,,,,,,,,,,,,,,,,,,,,,,,,,,,,,,,,,,,,,,,,,,,,,,,,,,,,,,,,,,,,,,,,,,,,,,,,,,,,
,,,,,,60d336457da539b0a93cb7d3,62bbf937e12f15910a05e3f4,2022-06-29_09h07.03.278,Colour_Asymmetry_Pilot,2022.1.3,Win32,143.5338022,62bbe60bf3d75ef465d3e404,0,36,36,78,1,fourtwo,,,,,,,,,,,,,,,,,,,,,,,,,,,,,,,,,,,,,,,,,,,,,,,,,,,,,,,,,,,,,,,,,,,,,,,,,,,,,,,,,,,,,,,,,,,,,,,,,,,,,,,,,,,,,,,,,,,,,,,,,,,,,,,,,,,,,,,,,,,,,,,,,,,,,,,,
,,,,,,60d336457da539b0a93cb7d3,62bbf937e12f15910a05e3f4,2022-06-29_09h07.03.278,Colour_Asymmetry_Pilot,2022.1.3,Win32,143.5338022,62bbe60bf3d75ef465d3e404,0,37,37,48,1,onetwo,,,,,,,,,,,,,,,,,,,,,,,,,,,,,,,,,,,,,,,,,,,,,,,,,,,,,,,,,,,,,,,,,,,,,,,,,,,,,,,,,,,,,,,,,,,,,,,,,,,,,,,,,,,,,,,,,,,,,,,,,,,,,,,,,,,,,,,,,,,,,,,,,,,,,,,,
,,,,,,60d336457da539b0a93cb7d3,62bbf937e12f15910a05e3f4,2022-06-29_09h07.03.278,Colour_Asymmetry_Pilot,2022.1.3,Win32,143.5338022,62bbe60bf3d75ef465d3e404,0,38,38,69,1,threefour,,,,,,,,,,,,,,,,,,,,,,,,,,,,,,,,,,,,,,,,,,,,,,,,,,,,,,,,,,,,,,,,,,,,,,,,,,,,,,,,,,,,,,,,,,,,,,,,,,,,,,,,,,,,,,,,,,,,,,,,,,,,,,,,,,,,,,,,,,,,,,,,,,,,,,,,
,,,,,,60d336457da539b0a93cb7d3,62bbf937e12f15910a05e3f4,2022-06-29_09h07.03.278,Colour_Asymmetry_Pilot,2022.1.3,Win32,143.5338022,62bbe60bf3d75ef465d3e404,0,39,39,122,1,twoone,,,,,,,,,,,,,,,,,,,,,,,,,,,,,,,,,,,,,,,,,,,,,,,,,,,,,,,,,,,,,,,,,,,,,,,,,,,,,,,,,,,,,,,,,,,,,,,,,,,,,,,,,,,,,,,,,,,,,,,,,,,,,,,,,,,,,,,,,,,,,,,,,,,,,,,,
,,,,,,60d336457da539b0a93cb7d3,62bbf937e12f15910a05e3f4,2022-06-29_09h07.03.278,Colour_Asymmetry_Pilot,2022.1.3,Win32,143.5338022,62bbe60bf3d75ef465d3e404,0,40,40,26,1,twoone,,,,,,,,,,,,,,,,,,,,,,,,,,,,,,,,,,,,,,,,,,,,,,,,,,,,,,,,,,,,,,,,,,,,,,,,,,,,,,,,,,,,,,,,,,,,,,,,,,,,,,,,,,,,,,,,,,,,,,,,,,,,,,,,,,,,,,,,,,,,,,,,,,,,,,,,
,,,,,,60d336457da539b0a93cb7d3,62bbf937e12f15910a05e3f4,2022-06-29_09h07.03.278,Colour_Asymmetry_Pilot,2022.1.3,Win32,143.5338022,62bbe60bf3d75ef465d3e404,0,41,41,29,1,threefour,,,,,,,,,,,,,,,,,,,,,,,,,,,,,,,,,,,,,,,,,,,,,,,,,,,,,,,,,,,,,,,,,,,,,,,,,,,,,,,,,,,,,,,,,,,,,,,,,,,,,,,,,,,,,,,,,,,,,,,,,,,,,,,,,,,,,,,,,,,,,,,,,,,,,,,,
,,,,,,60d336457da539b0a93cb7d3,62bbf937e12f15910a05e3f4,2022-06-29_09h07.03.278,Colour_Asymmetry_Pilot,2022.1.3,Win32,143.5338022,62bbe60bf3d75ef465d3e404,0,42,42,63,1,fourthree,,,,,,,,,,,,,,,,,,,,,,,,,,,,,,,,,,,,,,,,,,,,,,,,,,,,,,,,,,,,,,,,,,,,,,,,,,,,,,,,,,,,,,,,,,,,,,,,,,,,,,,,,,,,,,,,,,,,,,,,,,,,,,,,,,,,,,,,,,,,,,,,,,,,,,,,
,,,,,,60d336457da539b0a93cb7d3,62bbf937e12f15910a05e3f4,2022-06-29_09h07.03.278,Colour_Asymmetry_Pilot,2022.1.3,Win32,143.5338022,62bbe60bf3d75ef465d3e404,0,43,43,112,1,onetwo,,,,,,,,,,,,,,,,,,,,,,,,,,,,,,,,,,,,,,,,,,,,,,,,,,,,,,,,,,,,,,,,,,,,,,,,,,,,,,,,,,,,,,,,,,,,,,,,,,,,,,,,,,,,,,,,,,,,,,,,,,,,,,,,,,,,,,,,,,,,,,,,,,,,,,,,
,,,,,,60d336457da539b0a93cb7d3,62bbf937e12f15910a05e3f4,2022-06-29_09h07.03.278,Colour_Asymmetry_Pilot,2022.1.3,Win32,143.5338022,62bbe60bf3d75ef465d3e404,0,44,44,84,1,threeone,,,,,,,,,,,,,,,,,,,,,,,,,,,,,,,,,,,,,,,,,,,,,,,,,,,,,,,,,,,,,,,,,,,,,,,,,,,,,,,,,,,,,,,,,,,,,,,,,,,,,,,,,,,,,,,,,,,,,,,,,,,,,,,,,,,,,,,,,,,,,,,,,,,,,,,,
,,,,,,60d336457da539b0a93cb7d3,62bbf937e12f15910a05e3f4,2022-06-29_09h07.03.278,Colour_Asymmetry_Pilot,2022.1.3,Win32,143.5338022,62bbe60bf3d75ef465d3e404,0,45,45,139,1,twofour,,,,,,,,,,,,,,,,,,,,,,,,,,,,,,,,,,,,,,,,,,,,,,,,,,,,,,,,,,,,,,,,,,,,,,,,,,,,,,,,,,,,,,,,,,,,,,,,,,,,,,,,,,,,,,,,,,,,,,,,,,,,,,,,,,,,,,,,,,,,,,,,,,,,,,,,
,,,,,,60d336457da539b0a93cb7d3,62bbf937e12f15910a05e3f4,2022-06-29_09h07.03.278,Colour_Asymmetry_Pilot,2022.1.3,Win32,143.5338022,62bbe60bf3d75ef465d3e404,0,46,46,38,1,fourtwo,,,,,,,,,,,,,,,,,,,,,,,,,,,,,,,,,,,,,,,,,,,,,,,,,,,,,,,,,,,,,,,,,,,,,,,,,,,,,,,,,,,,,,,,,,,,,,,,,,,,,,,,,,,,,,,,,,,,,,,,,,,,,,,,,,,,,,,,,,,,,,,,,,,,,,,,
,,,,,,60d336457da539b0a93cb7d3,62bbf937e12f15910a05e3f4,2022-06-29_09h07.03.278,Colour_Asymmetry_Pilot,2022.1.3,Win32,143.5338022,62bbe60bf3d75ef465d3e404,0,47,47,159,1,fourthree,,,,,,,,,,,,,,,,,,,,,,,,,,,,,,,,,,,,,,,,,,,,,,,,,,,,,,,,,,,,,,,,,,,,,,,,,,,,,,,,,,,,,,,,,,,,,,,,,,,,,,,,,,,,,,,,,,,,,,,,,,,,,,,,,,,,,,,,,,,,,,,,,,,,,,,,
,,,,,,60d336457da539b0a93cb7d3,62bbf937e12f15910a05e3f4,2022-06-29_09h07.03.278,Colour_Asymmetry_Pilot,2022.1.3,Win32,143.5338022,62bbe60bf3d75ef465d3e404,0,48,48,87,1,fourthree,,,,,,,,,,,,,,,,,,,,,,,,,,,,,,,,,,,,,,,,,,,,,,,,,,,,,,,,,,,,,,,,,,,,,,,,,,,,,,,,,,,,,,,,,,,,,,,,,,,,,,,,,,,,,,,,,,,,,,,,,,,,,,,,,,,,,,,,,,,,,,,,,,,,,,,,
,,,,,,60d336457da539b0a93cb7d3,62bbf937e12f15910a05e3f4,2022-06-29_09h07.03.278,Colour_Asymmetry_Pilot,2022.1.3,Win32,143.5338022,62bbe60bf3d75ef465d3e404,0,49,49,100,1,threeone,,,,,,,,,,,,,,,,,,,,,,,,,,,,,,,,,,,,,,,,,,,,,,,,,,,,,,,,,,,,,,,,,,,,,,,,,,,,,,,,,,,,,,,,,,,,,,,,,,,,,,,,,,,,,,,,,,,,,,,,,,,,,,,,,,,,,,,,,,,,,,,,,,,,,,,,
,,,,,,60d336457da539b0a93cb7d3,62bbf937e12f15910a05e3f4,2022-06-29_09h07.03.278,Colour_Asymmetry_Pilot,2022.1.3,Win32,143.5338022,62bbe60bf3d75ef465d3e404,0,50,50,3,1,twofour,,,,,,,,,,,,,,,,,,,,,,,,,,,,,,,,,,,,,,,,,,,,,,,,,,,,,,,,,,,,,,,,,,,,,,,,,,,,,,,,,,,,,,,,,,,,,,,,,,,,,,,,,,,,,,,,,,,,,,,,,,,,,,,,,,,,,,,,,,,,,,,,,,,,,,,,
,,,,,,60d336457da539b0a93cb7d3,62bbf937e12f15910a05e3f4,2022-06-29_09h07.03.278,Colour_Asymmetry_Pilot,2022.1.3,Win32,143.5338022,62bbe60bf3d75ef465d3e404,0,51,51,50,1,twoone,,,,,,,,,,,,,,,,,,,,,,,,,,,,,,,,,,,,,,,,,,,,,,,,,,,,,,,,,,,,,,,,,,,,,,,,,,,,,,,,,,,,,,,,,,,,,,,,,,,,,,,,,,,,,,,,,,,,,,,,,,,,,,,,,,,,,,,,,,,,,,,,,,,,,,,,
,,,,,,60d336457da539b0a93cb7d3,62bbf937e12f15910a05e3f4,2022-06-29_09h07.03.278,Colour_Asymmetry_Pilot,2022.1.3,Win32,143.5338022,62bbe60bf3d75ef465d3e404,0,52,52,79,1,fourthree,,,,,,,,,,,,,,,,,,,,,,,,,,,,,,,,,,,,,,,,,,,,,,,,,,,,,,,,,,,,,,,,,,,,,,,,,,,,,,,,,,,,,,,,,,,,,,,,,,,,,,,,,,,,,,,,,,,,,,,,,,,,,,,,,,,,,,,,,,,,,,,,,,,,,,,,
,,,,,,60d336457da539b0a93cb7d3,62bbf937e12f15910a05e3f4,2022-06-29_09h07.03.278,Colour_Asymmetry_Pilot,2022.1.3,Win32,143.5338022,62bbe60bf3d75ef465d3e404,0,53,53,94,1,fourtwo,,,,,,,,,,,,,,,,,,,,,,,,,,,,,,,,,,,,,,,,,,,,,,,,,,,,,,,,,,,,,,,,,,,,,,,,,,,,,,,,,,,,,,,,,,,,,,,,,,,,,,,,,,,,,,,,,,,,,,,,,,,,,,,,,,,,,,,,,,,,,,,,,,,,,,,,
,,,,,,60d336457da539b0a93cb7d3,62bbf937e12f15910a05e3f4,2022-06-29_09h07.03.278,Colour_Asymmetry_Pilot,2022.1.3,Win32,143.5338022,62bbe60bf3d75ef465d3e404,0,54,54,21,1,threefour,,,,,,,,,,,,,,,,,,,,,,,,,,,,,,,,,,,,,,,,,,,,,,,,,,,,,,,,,,,,,,,,,,,,,,,,,,,,,,,,,,,,,,,,,,,,,,,,,,,,,,,,,,,,,,,,,,,,,,,,,,,,,,,,,,,,,,,,,,,,,,,,,,,,,,,,
,,,,,,60d336457da539b0a93cb7d3,62bbf937e12f15910a05e3f4,2022-06-29_09h07.03.278,Colour_Asymmetry_Pilot,2022.1.3,Win32,143.5338022,62bbe60bf3d75ef465d3e404,0,55,55,99,1,twofour,,,,,,,,,,,,,,,,,,,,,,,,,,,,,,,,,,,,,,,,,,,,,,,,,,,,,,,,,,,,,,,,,,,,,,,,,,,,,,,,,,,,,,,,,,,,,,,,,,,,,,,,,,,,,,,,,,,,,,,,,,,,,,,,,,,,,,,,,,,,,,,,,,,,,,,,
,,,,,,60d336457da539b0a93cb7d3,62bbf937e12f15910a05e3f4,2022-06-29_09h07.03.278,Colour_Asymmetry_Pilot,2022.1.3,Win32,143.5338022,62bbe60bf3d75ef465d3e404,0,56,56,90,1,twoone,,,,,,,,,,,,,,,,,,,,,,,,,,,,,,,,,,,,,,,,,,,,,,,,,,,,,,,,,,,,,,,,,,,,,,,,,,,,,,,,,,,,,,,,,,,,,,,,,,,,,,,,,,,,,,,,,,,,,,,,,,,,,,,,,,,,,,,,,,,,,,,,,,,,,,,,
,,,,,,60d336457da539b0a93cb7d3,62bbf937e12f15910a05e3f4,2022-06-29_09h07.03.278,Colour_Asymmetry_Pilot,2022.1.3,Win32,143.5338022,62bbe60bf3d75ef465d3e404,0,57,57,37,1,threefour,,,,,,,,,,,,,,,,,,,,,,,,,,,,,,,,,,,,,,,,,,,,,,,,,,,,,,,,,,,,,,,,,,,,,,,,,,,,,,,,,,,,,,,,,,,,,,,,,,,,,,,,,,,,,,,,,,,,,,,,,,,,,,,,,,,,,,,,,,,,,,,,,,,,,,,,
,,,,,,60d336457da539b0a93cb7d3,62bbf937e12f15910a05e3f4,2022-06-29_09h07.03.278,Colour_Asymmetry_Pilot,2022.1.3,Win32,143.5338022,62bbe60bf3d75ef465d3e404,0,58,58,103,1,fourthree,,,,,,,,,,,,,,,,,,,,,,,,,,,,,,,,,,,,,,,,,,,,,,,,,,,,,,,,,,,,,,,,,,,,,,,,,,,,,,,,,,,,,,,,,,,,,,,,,,,,,,,,,,,,,,,,,,,,,,,,,,,,,,,,,,,,,,,,,,,,,,,,,,,,,,,,
,,,,,,60d336457da539b0a93cb7d3,62bbf937e12f15910a05e3f4,2022-06-29_09h07.03.278,Colour_Asymmetry_Pilot,2022.1.3,Win32,143.5338022,62bbe60bf3d75ef465d3e404,0,59,59,130,1,twoone,,,,,,,,,,,,,,,,,,,,,,,,,,,,,,,,,,,,,,,,,,,,,,,,,,,,,,,,,,,,,,,,,,,,,,,,,,,,,,,,,,,,,,,,,,,,,,,,,,,,,,,,,,,,,,,,,,,,,,,,,,,,,,,,,,,,,,,,,,,,,,,,,,,,,,,,
,,,,,,60d336457da539b0a93cb7d3,62bbf937e12f15910a05e3f4,2022-06-29_09h07.03.278,Colour_Asymmetry_Pilot,2022.1.3,Win32,143.5338022,62bbe60bf3d75ef465d3e404,0,60,60,98,1,twoone,,,,,,,,,,,,,,,,,,,,,,,,,,,,,,,,,,,,,,,,,,,,,,,,,,,,,,,,,,,,,,,,,,,,,,,,,,,,,,,,,,,,,,,,,,,,,,,,,,,,,,,,,,,,,,,,,,,,,,,,,,,,,,,,,,,,,,,,,,,,,,,,,,,,,,,,
,,,,,,60d336457da539b0a93cb7d3,62bbf937e12f15910a05e3f4,2022-06-29_09h07.03.278,Colour_Asymmetry_Pilot,2022.1.3,Win32,143.5338022,62bbe60bf3d75ef465d3e404,0,61,61,41,1,onethree,,,,,,,,,,,,,,,,,,,,,,,,,,,,,,,,,,,,,,,,,,,,,,,,,,,,,,,,,,,,,,,,,,,,,,,,,,,,,,,,,,,,,,,,,,,,,,,,,,,,,,,,,,,,,,,,,,,,,,,,,,,,,,,,,,,,,,,,,,,,,,,,,,,,,,,,
,,,,,,60d336457da539b0a93cb7d3,62bbf937e12f15910a05e3f4,2022-06-29_09h07.03.278,Colour_Asymmetry_Pilot,2022.1.3,Win32,143.5338022,62bbe60bf3d75ef465d3e404,0,62,62,60,1,threeone,,,,,,,,,,,,,,,,,,,,,,,,,,,,,,,,,,,,,,,,,,,,,,,,,,,,,,,,,,,,,,,,,,,,,,,,,,,,,,,,,,,,,,,,,,,,,,,,,,,,,,,,,,,,,,,,,,,,,,,,,,,,,,,,,,,,,,,,,,,,,,,,,,,,,,,,
,,,,,,60d336457da539b0a93cb7d3,62bbf937e12f15910a05e3f4,2022-06-29_09h07.03.278,Colour_Asymmetry_Pilot,2022.1.3,Win32,143.5338022,62bbe60bf3d75ef465d3e404,0,63,63,107,1,twofour,,,,,,,,,,,,,,,,,,,,,,,,,,,,,,,,,,,,,,,,,,,,,,,,,,,,,,,,,,,,,,,,,,,,,,,,,,,,,,,,,,,,,,,,,,,,,,,,,,,,,,,,,,,,,,,,,,,,,,,,,,,,,,,,,,,,,,,,,,,,,,,,,,,,,,,,
,,,,,,60d336457da539b0a93cb7d3,62bbf937e12f15910a05e3f4,2022-06-29_09h07.03.278,Colour_Asymmetry_Pilot,2022.1.3,Win32,143.5338022,62bbe60bf3d75ef465d3e404,0,64,64,118,1,fourtwo,,,,,,,,,,,,,,,,,,,,,,,,,,,,,,,,,,,,,,,,,,,,,,,,,,,,,,,,,,,,,,,,,,,,,,,,,,,,,,,,,,,,,,,,,,,,,,,,,,,,,,,,,,,,,,,,,,,,,,,,,,,,,,,,,,,,,,,,,,,,,,,,,,,,,,,,
,,,,,,60d336457da539b0a93cb7d3,62bbf937e12f15910a05e3f4,2022-06-29_09h07.03.278,Colour_Asymmetry_Pilot,2022.1.3,Win32,143.5338022,62bbe60bf3d75ef465d3e404,0,65,65,160,1,onetwo,,,,,,,,,,,,,,,,,,,,,,,,,,,,,,,,,,,,,,,,,,,,,,,,,,,,,,,,,,,,,,,,,,,,,,,,,,,,,,,,,,,,,,,,,,,,,,,,,,,,,,,,,,,,,,,,,,,,,,,,,,,,,,,,,,,,,,,,,,,,,,,,,,,,,,,,
,,,,,,60d336457da539b0a93cb7d3,62bbf937e12f15910a05e3f4,2022-06-29_09h07.03.278,Colour_Asymmetry_Pilot,2022.1.3,Win32,143.5338022,62bbe60bf3d75ef465d3e404,0,66,66,126,1,fourtwo,,,,,,,,,,,,,,,,,,,,,,,,,,,,,,,,,,,,,,,,,,,,,,,,,,,,,,,,,,,,,,,,,,,,,,,,,,,,,,,,,,,,,,,,,,,,,,,,,,,,,,,,,,,,,,,,,,,,,,,,,,,,,,,,,,,,,,,,,,,,,,,,,,,,,,,,
,,,,,,60d336457da539b0a93cb7d3,62bbf937e12f15910a05e3f4,2022-06-29_09h07.03.278,Colour_Asymmetry_Pilot,2022.1.3,Win32,143.5338022,62bbe60bf3d75ef465d3e404,0,67,67,137,1,onethree,,,,,,,,,,,,,,,,,,,,,,,,,,,,,,,,,,,,,,,,,,,,,,,,,,,,,,,,,,,,,,,,,,,,,,,,,,,,,,,,,,,,,,,,,,,,,,,,,,,,,,,,,,,,,,,,,,,,,,,,,,,,,,,,,,,,,,,,,,,,,,,,,,,,,,,,
,,,,,,60d336457da539b0a93cb7d3,62bbf937e12f15910a05e3f4,2022-06-29_09h07.03.278,Colour_Asymmetry_Pilot,2022.1.3,Win32,143.5338022,62bbe60bf3d75ef465d3e404,0,68,68,77,1,threefour,,,,,,,,,,,,,,,,,,,,,,,,,,,,,,,,,,,,,,,,,,,,,,,,,,,,,,,,,,,,,,,,,,,,,,,,,,,,,,,,,,,,,,,,,,,,,,,,,,,,,,,,,,,,,,,,,,,,,,,,,,,,,,,,,,,,,,,,,,,,,,,,,,,,,,,,
,,,,,,60d336457da539b0a93cb7d3,62bbf937e12f15910a05e3f4,2022-06-29_09h07.03.278,Colour_Asymmetry_Pilot,2022.1.3,Win32,143.5338022,62bbe60bf3d75ef465d3e404,0,69,69,146,1,twoone,,,,,,,,,,,,,,,,,,,,,,,,,,,,,,,,,,,,,,,,,,,,,,,,,,,,,,,,,,,,,,,,,,,,,,,,,,,,,,,,,,,,,,,,,,,,,,,,,,,,,,,,,,,,,,,,,,,,,,,,,,,,,,,,,,,,,,,,,,,,,,,,,,,,,,,,
,,,,,,60d336457da539b0a93cb7d3,62bbf937e12f15910a05e3f4,2022-06-29_09h07.03.278,Colour_Asymmetry_Pilot,2022.1.3,Win32,143.5338022,62bbe60bf3d75ef465d3e404,0,70,70,91,1,twofour,,,,,,,,,,,,,,,,,,,,,,,,,,,,,,,,,,,,,,,,,,,,,,,,,,,,,,,,,,,,,,,,,,,,,,,,,,,,,,,,,,,,,,,,,,,,,,,,,,,,,,,,,,,,,,,,,,,,,,,,,,,,,,,,,,,,,,,,,,,,,,,,,,,,,,,,
,,,,,,60d336457da539b0a93cb7d3,62bbf937e12f15910a05e3f4,2022-06-29_09h07.03.278,Colour_Asymmetry_Pilot,2022.1.3,Win32,143.5338022,62bbe60bf3d75ef465d3e404,0,71,71,96,1,onetwo,,,,,,,,,,,,,,,,,,,,,,,,,,,,,,,,,,,,,,,,,,,,,,,,,,,,,,,,,,,,,,,,,,,,,,,,,,,,,,,,,,,,,,,,,,,,,,,,,,,,,,,,,,,,,,,,,,,,,,,,,,,,,,,,,,,,,,,,,,,,,,,,,,,,,,,,
,,,,,,60d336457da539b0a93cb7d3,62bbf937e12f15910a05e3f4,2022-06-29_09h07.03.278,Colour_Asymmetry_Pilot,2022.1.3,Win32,143.5338022,62bbe60bf3d75ef465d3e404,0,72,72,52,1,threeone,,,,,,,,,,,,,,,,,,,,,,,,,,,,,,,,,,,,,,,,,,,,,,,,,,,,,,,,,,,,,,,,,,,,,,,,,,,,,,,,,,,,,,,,,,,,,,,,,,,,,,,,,,,,,,,,,,,,,,,,,,,,,,,,,,,,,,,,,,,,,,,,,,,,,,,,
,,,,,,60d336457da539b0a93cb7d3,62bbf937e12f15910a05e3f4,2022-06-29_09h07.03.278,Colour_Asymmetry_Pilot,2022.1.3,Win32,143.5338022,62bbe60bf3d75ef465d3e404,0,73,73,18,1,twoone,,,,,,,,,,,,,,,,,,,,,,,,,,,,,,,,,,,,,,,,,,,,,,,,,,,,,,,,,,,,,,,,,,,,,,,,,,,,,,,,,,,,,,,,,,,,,,,,,,,,,,,,,,,,,,,,,,,,,,,,,,,,,,,,,,,,,,,,,,,,,,,,,,,,,,,,
,,,,,,60d336457da539b0a93cb7d3,62bbf937e12f15910a05e3f4,2022-06-29_09h07.03.278,Colour_Asymmetry_Pilot,2022.1.3,Win32,143.5338022,62bbe60bf3d75ef465d3e404,0,74,74,45,1,threefour,,,,,,,,,,,,,,,,,,,,,,,,,,,,,,,,,,,,,,,,,,,,,,,,,,,,,,,,,,,,,,,,,,,,,,,,,,,,,,,,,,,,,,,,,,,,,,,,,,,,,,,,,,,,,,,,,,,,,,,,,,,,,,,,,,,,,,,,,,,,,,,,,,,,,,,,
,,,,,,60d336457da539b0a93cb7d3,62bbf937e12f15910a05e3f4,2022-06-29_09h07.03.278,Colour_Asymmetry_Pilot,2022.1.3,Win32,143.5338022,62bbe60bf3d75ef465d3e404,0,75,75,110,1,fourtwo,,,,,,,,,,,,,,,,,,,,,,,,,,,,,,,,,,,,,,,,,,,,,,,,,,,,,,,,,,,,,,,,,,,,,,,,,,,,,,,,,,,,,,,,,,,,,,,,,,,,,,,,,,,,,,,,,,,,,,,,,,,,,,,,,,,,,,,,,,,,,,,,,,,,,,,,
,,,,,,60d336457da539b0a93cb7d3,62bbf937e12f15910a05e3f4,2022-06-29_09h07.03.278,Colour_Asymmetry_Pilot,2022.1.3,Win32,143.5338022,62bbe60bf3d75ef465d3e404,0,76,76,147,1,twofour,,,,,,,,,,,,,,,,,,,,,,,,,,,,,,,,,,,,,,,,,,,,,,,,,,,,,,,,,,,,,,,,,,,,,,,,,,,,,,,,,,,,,,,,,,,,,,,,,,,,,,,,,,,,,,,,,,,,,,,,,,,,,,,,,,,,,,,,,,,,,,,,,,,,,,,,
,,,,,,60d336457da539b0a93cb7d3,62bbf937e12f15910a05e3f4,2022-06-29_09h07.03.278,Colour_Asymmetry_Pilot,2022.1.3,Win32,143.5338022,62bbe60bf3d75ef465d3e404,0,77,77,46,1,fourtwo,,,,,,,,,,,,,,,,,,,,,,,,,,,,,,,,,,,,,,,,,,,,,,,,,,,,,,,,,,,,,,,,,,,,,,,,,,,,,,,,,,,,,,,,,,,,,,,,,,,,,,,,,,,,,,,,,,,,,,,,,,,,,,,,,,,,,,,,,,,,,,,,,,,,,,,,
,,,,,,60d336457da539b0a93cb7d3,62bbf937e12f15910a05e3f4,2022-06-29_09h07.03.278,Colour_Asymmetry_Pilot,2022.1.3,Win32,143.5338022,62bbe60bf3d75ef465d3e404,0,78,78,93,1,threefour,,,,,,,,,,,,,,,,,,,,,,,,,,,,,,,,,,,,,,,,,,,,,,,,,,,,,,,,,,,,,,,,,,,,,,,,,,,,,,,,,,,,,,,,,,,,,,,,,,,,,,,,,,,,,,,,,,,,,,,,,,,,,,,,,,,,,,,,,,,,,,,,,,,,,,,,
,,,,,,60d336457da539b0a93cb7d3,62bbf937e12f15910a05e3f4,2022-06-29_09h07.03.278,Colour_Asymmetry_Pilot,2022.1.3,Win32,143.5338022,62bbe60bf3d75ef465d3e404,0,79,79,62,1,fourtwo,,,,,,,,,,,,,,,,,,,,,,,,,,,,,,,,,,,,,,,,,,,,,,,,,,,,,,,,,,,,,,,,,,,,,,,,,,,,,,,,,,,,,,,,,,,,,,,,,,,,,,,,,,,,,,,,,,,,,,,,,,,,,,,,,,,,,,,,,,,,,,,,,,,,,,,,
,,,,,,60d336457da539b0a93cb7d3,62bbf937e12f15910a05e3f4,2022-06-29_09h07.03.278,Colour_Asymmetry_Pilot,2022.1.3,Win32,143.5338022,62bbe60bf3d75ef465d3e404,0,80,80,67,1,twofour,,,,,,,,,,,,,,,,,,,,,,,,,,,,,,,,,,,,,,,,,,,,,,,,,,,,,,,,,,,,,,,,,,,,,,,,,,,,,,,,,,,,,,,,,,,,,,,,,,,,,,,,,,,,,,,,,,,,,,,,,,,,,,,,,,,,,,,,,,,,,,,,,,,,,,,,
,,,,,,60d336457da539b0a93cb7d3,62bbf937e12f15910a05e3f4,2022-06-29_09h07.03.278,Colour_Asymmetry_Pilot,2022.1.3,Win32,143.5338022,62bbe60bf3d75ef465d3e404,0,81,81,34,1,twoone,,,,,,,,,,,,,,,,,,,,,,,,,,,,,,,,,,,,,,,,,,,,,,,,,,,,,,,,,,,,,,,,,,,,,,,,,,,,,,,,,,,,,,,,,,,,,,,,,,,,,,,,,,,,,,,,,,,,,,,,,,,,,,,,,,,,,,,,,,,,,,,,,,,,,,,,
,,,,,,60d336457da539b0a93cb7d3,62bbf937e12f15910a05e3f4,2022-06-29_09h07.03.278,Colour_Asymmetry_Pilot,2022.1.3,Win32,143.5338022,62bbe60bf3d75ef465d3e404,0,82,82,104,1,onetwo,,,,,,,,,,,,,,,,,,,,,,,,,,,,,,,,,,,,,,,,,,,,,,,,,,,,,,,,,,,,,,,,,,,,,,,,,,,,,,,,,,,,,,,,,,,,,,,,,,,,,,,,,,,,,,,,,,,,,,,,,,,,,,,,,,,,,,,,,,,,,,,,,,,,,,,,
,,,,,,60d336457da539b0a93cb7d3,62bbf937e12f15910a05e3f4,2022-06-29_09h07.03.278,Colour_Asymmetry_Pilot,2022.1.3,Win32,143.5338022,62bbe60bf3d75ef465d3e404,0,83,83,138,1,twoone,,,,,,,,,,,,,,,,,,,,,,,,,,,,,,,,,,,,,,,,,,,,,,,,,,,,,,,,,,,,,,,,,,,,,,,,,,,,,,,,,,,,,,,,,,,,,,,,,,,,,,,,,,,,,,,,,,,,,,,,,,,,,,,,,,,,,,,,,,,,,,,,,,,,,,,,
,,,,,,60d336457da539b0a93cb7d3,62bbf937e12f15910a05e3f4,2022-06-29_09h07.03.278,Colour_Asymmetry_Pilot,2022.1.3,Win32,143.5338022,62bbe60bf3d75ef465d3e404,0,84,84,51,1,twofour,,,,,,,,,,,,,,,,,,,,,,,,,,,,,,,,,,,,,,,,,,,,,,,,,,,,,,,,,,,,,,,,,,,,,,,,,,,,,,,,,,,,,,,,,,,,,,,,,,,,,,,,,,,,,,,,,,,,,,,,,,,,,,,,,,,,,,,,,,,,,,,,,,,,,,,,
,,,,,,60d336457da539b0a93cb7d3,62bbf937e12f15910a05e3f4,2022-06-29_09h07.03.278,Colour_Asymmetry_Pilot,2022.1.3,Win32,143.5338022,62bbe60bf3d75ef465d3e404,0,85,85,25,1,onethree,,,,,,,,,,,,,,,,,,,,,,,,,,,,,,,,,,,,,,,,,,,,,,,,,,,,,,,,,,,,,,,,,,,,,,,,,,,,,,,,,,,,,,,,,,,,,,,,,,,,,,,,,,,,,,,,,,,,,,,,,,,,,,,,,,,,,,,,,,,,,,,,,,,,,,,,
,,,,,,60d336457da539b0a93cb7d3,62bbf937e12f15910a05e3f4,2022-06-29_09h07.03.278,Colour_Asymmetry_Pilot,2022.1.3,Win32,143.5338022,62bbe60bf3d75ef465d3e404,0,86,86,106,1,twoone,,,,,,,,,,,,,,,,,,,,,,,,,,,,,,,,,,,,,,,,,,,,,,,,,,,,,,,,,,,,,,,,,,,,,,,,,,,,,,,,,,,,,,,,,,,,,,,,,,,,,,,,,,,,,,,,,,,,,,,,,,,,,,,,,,,,,,,,,,,,,,,,,,,,,,,,
,,,,,,60d336457da539b0a93cb7d3,62bbf937e12f15910a05e3f4,2022-06-29_09h07.03.278,Colour_Asymmetry_Pilot,2022.1.3,Win32,143.5338022,62bbe60bf3d75ef465d3e404,0,87,87,54,1,fourtwo,,,,,,,,,,,,,,,,,,,,,,,,,,,,,,,,,,,,,,,,,,,,,,,,,,,,,,,,,,,,,,,,,,,,,,,,,,,,,,,,,,,,,,,,,,,,,,,,,,,,,,,,,,,,,,,,,,,,,,,,,,,,,,,,,,,,,,,,,,,,,,,,,,,,,,,,
,,,,,,60d336457da539b0a93cb7d3,62bbf937e12f15910a05e3f4,2022-06-29_09h07.03.278,Colour_Asymmetry_Pilot,2022.1.3,Win32,143.5338022,62bbe60bf3d75ef465d3e404,0,88,88,145,1,onethree,,,,,,,,,,,,,,,,,,,,,,,,,,,,,,,,,,,,,,,,,,,,,,,,,,,,,,,,,,,,,,,,,,,,,,,,,,,,,,,,,,,,,,,,,,,,,,,,,,,,,,,,,,,,,,,,,,,,,,,,,,,,,,,,,,,,,,,,,,,,,,,,,,,,,,,,
,,,,,,60d336457da539b0a93cb7d3,62bbf937e12f15910a05e3f4,2022-06-29_09h07.03.278,Colour_Asymmetry_Pilot,2022.1.3,Win32,143.5338022,62bbe60bf3d75ef465d3e404,0,89,89,15,1,fourthree,,,,,,,,,,,,,,,,,,,,,,,,,,,,,,,,,,,,,,,,,,,,,,,,,,,,,,,,,,,,,,,,,,,,,,,,,,,,,,,,,,,,,,,,,,,,,,,,,,,,,,,,,,,,,,,,,,,,,,,,,,,,,,,,,,,,,,,,,,,,,,,,,,,,,,,,
,,,,,,60d336457da539b0a93cb7d3,62bbf937e12f15910a05e3f4,2022-06-29_09h07.03.278,Colour_Asymmetry_Pilot,2022.1.3,Win32,143.5338022,62bbe60bf3d75ef465d3e404,0,90,90,133,1,threefour,,,,,,,,,,,,,,,,,,,,,,,,,,,,,,,,,,,,,,,,,,,,,,,,,,,,,,,,,,,,,,,,,,,,,,,,,,,,,,,,,,,,,,,,,,,,,,,,,,,,,,,,,,,,,,,,,,,,,,,,,,,,,,,,,,,,,,,,,,,,,,,,,,,,,,,,
,,,,,,60d336457da539b0a93cb7d3,62bbf937e12f15910a05e3f4,2022-06-29_09h07.03.278,Colour_Asymmetry_Pilot,2022.1.3,Win32,143.5338022,62bbe60bf3d75ef465d3e404,0,91,91,10,1,twoone,,,,,,,,,,,,,,,,,,,,,,,,,,,,,,,,,,,,,,,,,,,,,,,,,,,,,,,,,,,,,,,,,,,,,,,,,,,,,,,,,,,,,,,,,,,,,,,,,,,,,,,,,,,,,,,,,,,,,,,,,,,,,,,,,,,,,,,,,,,,,,,,,,,,,,,,
,,,,,,60d336457da539b0a93cb7d3,62bbf937e12f15910a05e3f4,2022-06-29_09h07.03.278,Colour_Asymmetry_Pilot,2022.1.3,Win32,143.5338022,62bbe60bf3d75ef465d3e404,0,92,92,82,1,twoone,,,,,,,,,,,,,,,,,,,,,,,,,,,,,,,,,,,,,,,,,,,,,,,,,,,,,,,,,,,,,,,,,,,,,,,,,,,,,,,,,,,,,,,,,,,,,,,,,,,,,,,,,,,,,,,,,,,,,,,,,,,,,,,,,,,,,,,,,,,,,,,,,,,,,,,,
,,,,,,60d336457da539b0a93cb7d3,62bbf937e12f15910a05e3f4,2022-06-29_09h07.03.278,Colour_Asymmetry_Pilot,2022.1.3,Win32,143.5338022,62bbe60bf3d75ef465d3e404,0,93,93,132,1,threeone,,,,,,,,,,,,,,,,,,,,,,,,,,,,,,,,,,,,,,,,,,,,,,,,,,,,,,,,,,,,,,,,,,,,,,,,,,,,,,,,,,,,,,,,,,,,,,,,,,,,,,,,,,,,,,,,,,,,,,,,,,,,,,,,,,,,,,,,,,,,,,,,,,,,,,,,
,,,,,,60d336457da539b0a93cb7d3,62bbf937e12f15910a05e3f4,2022-06-29_09h07.03.278,Colour_Asymmetry_Pilot,2022.1.3,Win32,143.5338022,62bbe60bf3d75ef465d3e404,0,94,94,136,1,onetwo,,,,,,,,,,,,,,,,,,,,,,,,,,,,,,,,,,,,,,,,,,,,,,,,,,,,,,,,,,,,,,,,,,,,,,,,,,,,,,,,,,,,,,,,,,,,,,,,,,,,,,,,,,,,,,,,,,,,,,,,,,,,,,,,,,,,,,,,,,,,,,,,,,,,,,,,
,,,,,,60d336457da539b0a93cb7d3,62bbf937e12f15910a05e3f4,2022-06-29_09h07.03.278,Colour_Asymmetry_Pilot,2022.1.3,Win32,143.5338022,62bbe60bf3d75ef465d3e404,0,95,95,86,1,fourtwo,,,,,,,,,,,,,,,,,,,,,,,,,,,,,,,,,,,,,,,,,,,,,,,,,,,,,,,,,,,,,,,,,,,,,,,,,,,,,,,,,,,,,,,,,,,,,,,,,,,,,,,,,,,,,,,,,,,,,,,,,,,,,,,,,,,,,,,,,,,,,,,,,,,,,,,,
,,,,,,60d336457da539b0a93cb7d3,62bbf937e12f15910a05e3f4,2022-06-29_09h07.03.278,Colour_Asymmetry_Pilot,2022.1.3,Win32,143.5338022,62bbe60bf3d75ef465d3e404,0,96,96,11,1,twofour,,,,,,,,,,,,,,,,,,,,,,,,,,,,,,,,,,,,,,,,,,,,,,,,,,,,,,,,,,,,,,,,,,,,,,,,,,,,,,,,,,,,,,,,,,,,,,,,,,,,,,,,,,,,,,,,,,,,,,,,,,,,,,,,,,,,,,,,,,,,,,,,,,,,,,,,
,,,,,,60d336457da539b0a93cb7d3,62bbf937e12f15910a05e3f4,2022-06-29_09h07.03.278,Colour_Asymmetry_Pilot,2022.1.3,Win32,143.5338022,62bbe60bf3d75ef465d3e404,0,97,97,71,1,fourthree,,,,,,,,,,,,,,,,,,,,,,,,,,,,,,,,,,,,,,,,,,,,,,,,,,,,,,,,,,,,,,,,,,,,,,,,,,,,,,,,,,,,,,,,,,,,,,,,,,,,,,,,,,,,,,,,,,,,,,,,,,,,,,,,,,,,,,,,,,,,,,,,,,,,,,,,
,,,,,,60d336457da539b0a93cb7d3,62bbf937e12f15910a05e3f4,2022-06-29_09h07.03.278,Colour_Asymmetry_Pilot,2022.1.3,Win32,143.5338022,62bbe60bf3d75ef465d3e404,0,98,98,66,1,twoone,,,,,,,,,,,,,,,,,,,,,,,,,,,,,,,,,,,,,,,,,,,,,,,,,,,,,,,,,,,,,,,,,,,,,,,,,,,,,,,,,,,,,,,,,,,,,,,,,,,,,,,,,,,,,,,,,,,,,,,,,,,,,,,,,,,,,,,,,,,,,,,,,,,,,,,,
,,,,,,60d336457da539b0a93cb7d3,62bbf937e12f15910a05e3f4,2022-06-29_09h07.03.278,Colour_Asymmetry_Pilot,2022.1.3,Win32,143.5338022,62bbe60bf3d75ef465d3e404,0,99,99,53,1,threefour,,,,,,,,,,,,,,,,,,,,,,,,,,,,,,,,,,,,,,,,,,,,,,,,,,,,,,,,,,,,,,,,,,,,,,,,,,,,,,,,,,,,,,,,,,,,,,,,,,,,,,,,,,,,,,,,,,,,,,,,,,,,,,,,,,,,,,,,,,,,,,,,,,,,,,,,
,,,,,,60d336457da539b0a93cb7d3,62bbf937e12f15910a05e3f4,2022-06-29_09h07.03.278,Colour_Asymmetry_Pilot,2022.1.3,Win32,143.5338022,62bbe60bf3d75ef465d3e404,0,100,100,144,1,onetwo,,,,,,,,,,,,,,,,,,,,,,,,,,,,,,,,,,,,,,,,,,,,,,,,,,,,,,,,,,,,,,,,,,,,,,,,,,,,,,,,,,,,,,,,,,,,,,,,,,,,,,,,,,,,,,,,,,,,,,,,,,,,,,,,,,,,,,,,,,,,,,,,,,,,,,,,
,,,,,,60d336457da539b0a93cb7d3,62bbf937e12f15910a05e3f4,2022-06-29_09h07.03.278,Colour_Asymmetry_Pilot,2022.1.3,Win32,143.5338022,62bbe60bf3d75ef465d3e404,0,101,101,36,1,threeone,,,,,,,,,,,,,,,,,,,,,,,,,,,,,,,,,,,,,,,,,,,,,,,,,,,,,,,,,,,,,,,,,,,,,,,,,,,,,,,,,,,,,,,,,,,,,,,,,,,,,,,,,,,,,,,,,,,,,,,,,,,,,,,,,,,,,,,,,,,,,,,,,,,,,,,,
,,,,,,60d336457da539b0a93cb7d3,62bbf937e12f15910a05e3f4,2022-06-29_09h07.03.278,Colour_Asymmetry_Pilot,2022.1.3,Win32,143.5338022,62bbe60bf3d75ef465d3e404,0,102,102,33,1,onethree,,,,,,,,,,,,,,,,,,,,,,,,,,,,,,,,,,,,,,,,,,,,,,,,,,,,,,,,,,,,,,,,,,,,,,,,,,,,,,,,,,,,,,,,,,,,,,,,,,,,,,,,,,,,,,,,,,,,,,,,,,,,,,,,,,,,,,,,,,,,,,,,,,,,,,,,
,,,,,,60d336457da539b0a93cb7d3,62bbf937e12f15910a05e3f4,2022-06-29_09h07.03.278,Colour_Asymmetry_Pilot,2022.1.3,Win32,143.5338022,62bbe60bf3d75ef465d3e404,0,103,103,42,1,twoone,,,,,,,,,,,,,,,,,,,,,,,,,,,,,,,,,,,,,,,,,,,,,,,,,,,,,,,,,,,,,,,,,,,,,,,,,,,,,,,,,,,,,,,,,,,,,,,,,,,,,,,,,,,,,,,,,,,,,,,,,,,,,,,,,,,,,,,,,,,,,,,,,,,,,,,,
,,,,,,60d336457da539b0a93cb7d3,62bbf937e12f15910a05e3f4,2022-06-29_09h07.03.278,Colour_Asymmetry_Pilot,2022.1.3,Win32,143.5338022,62bbe60bf3d75ef465d3e404,0,104,104,2,1,twoone,,,,,,,,,,,,,,,,,,,,,,,,,,,,,,,,,,,,,,,,,,,,,,,,,,,,,,,,,,,,,,,,,,,,,,,,,,,,,,,,,,,,,,,,,,,,,,,,,,,,,,,,,,,,,,,,,,,,,,,,,,,,,,,,,,,,,,,,,,,,,,,,,,,,,,,,
,,,,,,60d336457da539b0a93cb7d3,62bbf937e12f15910a05e3f4,2022-06-29_09h07.03.278,Colour_Asymmetry_Pilot,2022.1.3,Win32,143.5338022,62bbe60bf3d75ef465d3e404,0,105,105,135,1,fourthree,,,,,,,,,,,,,,,,,,,,,,,,,,,,,,,,,,,,,,,,,,,,,,,,,,,,,,,,,,,,,,,,,,,,,,,,,,,,,,,,,,,,,,,,,,,,,,,,,,,,,,,,,,,,,,,,,,,,,,,,,,,,,,,,,,,,,,,,,,,,,,,,,,,,,,,,
,,,,,,60d336457da539b0a93cb7d3,62bbf937e12f15910a05e3f4,2022-06-29_09h07.03.278,Colour_Asymmetry_Pilot,2022.1.3,Win32,143.5338022,62bbe60bf3d75ef465d3e404,0,106,106,65,1,onethree,,,,,,,,,,,,,,,,,,,,,,,,,,,,,,,,,,,,,,,,,,,,,,,,,,,,,,,,,,,,,,,,,,,,,,,,,,,,,,,,,,,,,,,,,,,,,,,,,,,,,,,,,,,,,,,,,,,,,,,,,,,,,,,,,,,,,,,,,,,,,,,,,,,,,,,,
,,,,,,60d336457da539b0a93cb7d3,62bbf937e12f15910a05e3f4,2022-06-29_09h07.03.278,Colour_Asymmetry_Pilot,2022.1.3,Win32,143.5338022,62bbe60bf3d75ef465d3e404,0,107,107,123,1,twofour,,,,,,,,,,,,,,,,,,,,,,,,,,,,,,,,,,,,,,,,,,,,,,,,,,,,,,,,,,,,,,,,,,,,,,,,,,,,,,,,,,,,,,,,,,,,,,,,,,,,,,,,,,,,,,,,,,,,,,,,,,,,,,,,,,,,,,,,,,,,,,,,,,,,,,,,
,,,,,,60d336457da539b0a93cb7d3,62bbf937e12f15910a05e3f4,2022-06-29_09h07.03.278,Colour_Asymmetry_Pilot,2022.1.3,Win32,143.5338022,62bbe60bf3d75ef465d3e404,0,108,108,39,1,fourthree,,,,,,,,,,,,,,,,,,,,,,,,,,,,,,,,,,,,,,,,,,,,,,,,,,,,,,,,,,,,,,,,,,,,,,,,,,,,,,,,,,,,,,,,,,,,,,,,,,,,,,,,,,,,,,,,,,,,,,,,,,,,,,,,,,,,,,,,,,,,,,,,,,,,,,,,
,,,,,,60d336457da539b0a93cb7d3,62bbf937e12f15910a05e3f4,2022-06-29_09h07.03.278,Colour_Asymmetry_Pilot,2022.1.3,Win32,143.5338022,62bbe60bf3d75ef465d3e404,0,109,109,114,1,twoone,,,,,,,,,,,,,,,,,,,,,,,,,,,,,,,,,,,,,,,,,,,,,,,,,,,,,,,,,,,,,,,,,,,,,,,,,,,,,,,,,,,,,,,,,,,,,,,,,,,,,,,,,,,,,,,,,,,,,,,,,,,,,,,,,,,,,,,,,,,,,,,,,,,,,,,,
,,,,,,60d336457da539b0a93cb7d3,62bbf937e12f15910a05e3f4,2022-06-29_09h07.03.278,Colour_Asymmetry_Pilot,2022.1.3,Win32,143.5338022,62bbe60bf3d75ef465d3e404,0,110,110,17,1,onethree,,,,,,,,,,,,,,,,,,,,,,,,,,,,,,,,,,,,,,,,,,,,,,,,,,,,,,,,,,,,,,,,,,,,,,,,,,,,,,,,,,,,,,,,,,,,,,,,,,,,,,,,,,,,,,,,,,,,,,,,,,,,,,,,,,,,,,,,,,,,,,,,,,,,,,,,
,,,,,,60d336457da539b0a93cb7d3,62bbf937e12f15910a05e3f4,2022-06-29_09h07.03.278,Colour_Asymmetry_Pilot,2022.1.3,Win32,143.5338022,62bbe60bf3d75ef465d3e404,0,111,111,134,1,fourtwo,,,,,,,,,,,,,,,,,,,,,,,,,,,,,,,,,,,,,,,,,,,,,,,,,,,,,,,,,,,,,,,,,,,,,,,,,,,,,,,,,,,,,,,,,,,,,,,,,,,,,,,,,,,,,,,,,,,,,,,,,,,,,,,,,,,,,,,,,,,,,,,,,,,,,,,,
,,,,,,60d336457da539b0a93cb7d3,62bbf937e12f15910a05e3f4,2022-06-29_09h07.03.278,Colour_Asymmetry_Pilot,2022.1.3,Win32,143.5338022,62bbe60bf3d75ef465d3e404,0,112,112,9,1,onethree,,,,,,,,,,,,,,,,,,,,,,,,,,,,,,,,,,,,,,,,,,,,,,,,,,,,,,,,,,,,,,,,,,,,,,,,,,,,,,,,,,,,,,,,,,,,,,,,,,,,,,,,,,,,,,,,,,,,,,,,,,,,,,,,,,,,,,,,,,,,,,,,,,,,,,,,
,,,,,,60d336457da539b0a93cb7d3,62bbf937e12f15910a05e3f4,2022-06-29_09h07.03.278,Colour_Asymmetry_Pilot,2022.1.3,Win32,143.5338022,62bbe60bf3d75ef465d3e404,0,113,113,68,1,threeone,,,,,,,,,,,,,,,,,,,,,,,,,,,,,,,,,,,,,,,,,,,,,,,,,,,,,,,,,,,,,,,,,,,,,,,,,,,,,,,,,,,,,,,,,,,,,,,,,,,,,,,,,,,,,,,,,,,,,,,,,,,,,,,,,,,,,,,,,,,,,,,,,,,,,,,,
,,,,,,60d336457da539b0a93cb7d3,62bbf937e12f15910a05e3f4,2022-06-29_09h07.03.278,Colour_Asymmetry_Pilot,2022.1.3,Win32,143.5338022,62bbe60bf3d75ef465d3e404,0,114,114,131,1,twofour,,,,,,,,,,,,,,,,,,,,,,,,,,,,,,,,,,,,,,,,,,,,,,,,,,,,,,,,,,,,,,,,,,,,,,,,,,,,,,,,,,,,,,,,,,,,,,,,,,,,,,,,,,,,,,,,,,,,,,,,,,,,,,,,,,,,,,,,,,,,,,,,,,,,,,,,
,,,,,,60d336457da539b0a93cb7d3,62bbf937e12f15910a05e3f4,2022-06-29_09h07.03.278,Colour_Asymmetry_Pilot,2022.1.3,Win32,143.5338022,62bbe60bf3d75ef465d3e404,0,115,115,55,1,fourthree,,,,,,,,,,,,,,,,,,,,,,,,,,,,,,,,,,,,,,,,,,,,,,,,,,,,,,,,,,,,,,,,,,,,,,,,,,,,,,,,,,,,,,,,,,,,,,,,,,,,,,,,,,,,,,,,,,,,,,,,,,,,,,,,,,,,,,,,,,,,,,,,,,,,,,,,
,,,,,,60d336457da539b0a93cb7d3,62bbf937e12f15910a05e3f4,2022-06-29_09h07.03.278,Colour_Asymmetry_Pilot,2022.1.3,Win32,143.5338022,62bbe60bf3d75ef465d3e404,0,116,116,76,1,threeone,,,,,,,,,,,,,,,,,,,,,,,,,,,,,,,,,,,,,,,,,,,,,,,,,,,,,,,,,,,,,,,,,,,,,,,,,,,,,,,,,,,,,,,,,,,,,,,,,,,,,,,,,,,,,,,,,,,,,,,,,,,,,,,,,,,,,,,,,,,,,,,,,,,,,,,,
,,,,,,60d336457da539b0a93cb7d3,62bbf937e12f15910a05e3f4,2022-06-29_09h07.03.278,Colour_Asymmetry_Pilot,2022.1.3,Win32,143.5338022,62bbe60bf3d75ef465d3e404,0,117,117,111,1,fourthree,,,,,,,,,,,,,,,,,,,,,,,,,,,,,,,,,,,,,,,,,,,,,,,,,,,,,,,,,,,,,,,,,,,,,,,,,,,,,,,,,,,,,,,,,,,,,,,,,,,,,,,,,,,,,,,,,,,,,,,,,,,,,,,,,,,,,,,,,,,,,,,,,,,,,,,,
,,,,,,60d336457da539b0a93cb7d3,62bbf937e12f15910a05e3f4,2022-06-29_09h07.03.278,Colour_Asymmetry_Pilot,2022.1.3,Win32,143.5338022,62bbe60bf3d75ef465d3e404,0,118,118,120,1,onetwo,,,,,,,,,,,,,,,,,,,,,,,,,,,,,,,,,,,,,,,,,,,,,,,,,,,,,,,,,,,,,,,,,,,,,,,,,,,,,,,,,,,,,,,,,,,,,,,,,,,,,,,,,,,,,,,,,,,,,,,,,,,,,,,,,,,,,,,,,,,,,,,,,,,,,,,,
,,,,,,60d336457da539b0a93cb7d3,62bbf937e12f15910a05e3f4,2022-06-29_09h07.03.278,Colour_Asymmetry_Pilot,2022.1.3,Win32,143.5338022,62bbe60bf3d75ef465d3e404,0,119,119,6,1,fourtwo,,,,,,,,,,,,,,,,,,,,,,,,,,,,,,,,,,,,,,,,,,,,,,,,,,,,,,,,,,,,,,,,,,,,,,,,,,,,,,,,,,,,,,,,,,,,,,,,,,,,,,,,,,,,,,,,,,,,,,,,,,,,,,,,,,,,,,,,,,,,,,,,,,,,,,,,
,,,,,,60d336457da539b0a93cb7d3,62bbf937e12f15910a05e3f4,2022-06-29_09h07.03.278,Colour_Asymmetry_Pilot,2022.1.3,Win32,143.5338022,62bbe60bf3d75ef465d3e404,0,120,120,70,1,fourtwo,,,,,,,,,,,,,,,,,,,,,,,,,,,,,,,,,,,,,,,,,,,,,,,,,,,,,,,,,,,,,,,,,,,,,,,,,,,,,,,,,,,,,,,,,,,,,,,,,,,,,,,,,,,,,,,,,,,,,,,,,,,,,,,,,,,,,,,,,,,,,,,,,,,,,,,,
,,,,,,60d336457da539b0a93cb7d3,62bbf937e12f15910a05e3f4,2022-06-29_09h07.03.278,Colour_Asymmetry_Pilot,2022.1.3,Win32,143.5338022,62bbe60bf3d75ef465d3e404,0,121,121,0,1,onetwo,,,,,,,,,,,,,,,,,,,,,,,,,,,,,,,,,,,,,,,,,,,,,,,,,,,,,,,,,,,,,,,,,,,,,,,,,,,,,,,,,,,,,,,,,,,,,,,,,,,,,,,,,,,,,,,,,,,,,,,,,,,,,,,,,,,,,,,,,,,,,,,,,,,,,,,,
,,,,,,60d336457da539b0a93cb7d3,62bbf937e12f15910a05e3f4,2022-06-29_09h07.03.278,Colour_Asymmetry_Pilot,2022.1.3,Win32,143.5338022,62bbe60bf3d75ef465d3e404,0,122,122,32,1,onetwo,,,,,,,,,,,,,,,,,,,,,,,,,,,,,,,,,,,,,,,,,,,,,,,,,,,,,,,,,,,,,,,,,,,,,,,,,,,,,,,,,,,,,,,,,,,,,,,,,,,,,,,,,,,,,,,,,,,,,,,,,,,,,,,,,,,,,,,,,,,,,,,,,,,,,,,,
,,,,,,60d336457da539b0a93cb7d3,62bbf937e12f15910a05e3f4,2022-06-29_09h07.03.278,Colour_Asymmetry_Pilot,2022.1.3,Win32,143.5338022,62bbe60bf3d75ef465d3e404,0,123,123,148,1,threeone,,,,,,,,,,,,,,,,,,,,,,,,,,,,,,,,,,,,,,,,,,,,,,,,,,,,,,,,,,,,,,,,,,,,,,,,,,,,,,,,,,,,,,,,,,,,,,,,,,,,,,,,,,,,,,,,,,,,,,,,,,,,,,,,,,,,,,,,,,,,,,,,,,,,,,,,
,,,,,,60d336457da539b0a93cb7d3,62bbf937e12f15910a05e3f4,2022-06-29_09h07.03.278,Colour_Asymmetry_Pilot,2022.1.3,Win32,143.5338022,62bbe60bf3d75ef465d3e404,0,124,124,14,1,fourtwo,,,,,,,,,,,,,,,,,,,,,,,,,,,,,,,,,,,,,,,,,,,,,,,,,,,,,,,,,,,,,,,,,,,,,,,,,,,,,,,,,,,,,,,,,,,,,,,,,,,,,,,,,,,,,,,,,,,,,,,,,,,,,,,,,,,,,,,,,,,,,,,,,,,,,,,,
,,,,,,60d336457da539b0a93cb7d3,62bbf937e12f15910a05e3f4,2022-06-29_09h07.03.278,Colour_Asymmetry_Pilot,2022.1.3,Win32,143.5338022,62bbe60bf3d75ef465d3e404,0,125,125,157,1,threefour,,,,,,,,,,,,,,,,,,,,,,,,,,,,,,,,,,,,,,,,,,,,,,,,,,,,,,,,,,,,,,,,,,,,,,,,,,,,,,,,,,,,,,,,,,,,,,,,,,,,,,,,,,,,,,,,,,,,,,,,,,,,,,,,,,,,,,,,,,,,,,,,,,,,,,,,
,,,,,,60d336457da539b0a93cb7d3,62bbf937e12f15910a05e3f4,2022-06-29_09h07.03.278,Colour_Asymmetry_Pilot,2022.1.3,Win32,143.5338022,62bbe60bf3d75ef465d3e404,0,126,126,74,1,twoone,,,,,,,,,,,,,,,,,,,,,,,,,,,,,,,,,,,,,,,,,,,,,,,,,,,,,,,,,,,,,,,,,,,,,,,,,,,,,,,,,,,,,,,,,,,,,,,,,,,,,,,,,,,,,,,,,,,,,,,,,,,,,,,,,,,,,,,,,,,,,,,,,,,,,,,,
,,,,,,60d336457da539b0a93cb7d3,62bbf937e12f15910a05e3f4,2022-06-29_09h07.03.278,Colour_Asymmetry_Pilot,2022.1.3,Win32,143.5338022,62bbe60bf3d75ef465d3e404,0,127,127,83,1,twofour,,,,,,,,,,,,,,,,,,,,,,,,,,,,,,,,,,,,,,,,,,,,,,,,,,,,,,,,,,,,,,,,,,,,,,,,,,,,,,,,,,,,,,,,,,,,,,,,,,,,,,,,,,,,,,,,,,,,,,,,,,,,,,,,,,,,,,,,,,,,,,,,,,,,,,,,
,,,,,,60d336457da539b0a93cb7d3,62bbf937e12f15910a05e3f4,2022-06-29_09h07.03.278,Colour_Asymmetry_Pilot,2022.1.3,Win32,143.5338022,62bbe60bf3d75ef465d3e404,0,128,128,142,1,fourtwo,,,,,,,,,,,,,,,,,,,,,,,,,,,,,,,,,,,,,,,,,,,,,,,,,,,,,,,,,,,,,,,,,,,,,,,,,,,,,,,,,,,,,,,,,,,,,,,,,,,,,,,,,,,,,,,,,,,,,,,,,,,,,,,,,,,,,,,,,,,,,,,,,,,,,,,,
,,,,,,60d336457da539b0a93cb7d3,62bbf937e12f15910a05e3f4,2022-06-29_09h07.03.278,Colour_Asymmetry_Pilot,2022.1.3,Win32,143.5338022,62bbe60bf3d75ef465d3e404,0,129,129,5,1,threefour,,,,,,,,,,,,,,,,,,,,,,,,,,,,,,,,,,,,,,,,,,,,,,,,,,,,,,,,,,,,,,,,,,,,,,,,,,,,,,,,,,,,,,,,,,,,,,,,,,,,,,,,,,,,,,,,,,,,,,,,,,,,,,,,,,,,,,,,,,,,,,,,,,,,,,,,
,,,,,,60d336457da539b0a93cb7d3,62bbf937e12f15910a05e3f4,2022-06-29_09h07.03.278,Colour_Asymmetry_Pilot,2022.1.3,Win32,143.5338022,62bbe60bf3d75ef465d3e404,0,130,130,12,1,threeone,,,,,,,,,,,,,,,,,,,,,,,,,,,,,,,,,,,,,,,,,,,,,,,,,,,,,,,,,,,,,,,,,,,,,,,,,,,,,,,,,,,,,,,,,,,,,,,,,,,,,,,,,,,,,,,,,,,,,,,,,,,,,,,,,,,,,,,,,,,,,,,,,,,,,,,,
,,,,,,60d336457da539b0a93cb7d3,62bbf937e12f15910a05e3f4,2022-06-29_09h07.03.278,Colour_Asymmetry_Pilot,2022.1.3,Win32,143.5338022,62bbe60bf3d75ef465d3e404,0,131,131,88,1,onetwo,,,,,,,,,,,,,,,,,,,,,,,,,,,,,,,,,,,,,,,,,,,,,,,,,,,,,,,,,,,,,,,,,,,,,,,,,,,,,,,,,,,,,,,,,,,,,,,,,,,,,,,,,,,,,,,,,,,,,,,,,,,,,,,,,,,,,,,,,,,,,,,,,,,,,,,,
,,,,,,60d336457da539b0a93cb7d3,62bbf937e12f15910a05e3f4,2022-06-29_09h07.03.278,Colour_Asymmetry_Pilot,2022.1.3,Win32,143.5338022,62bbe60bf3d75ef465d3e404,0,132,132,30,1,fourtwo,,,,,,,,,,,,,,,,,,,,,,,,,,,,,,,,,,,,,,,,,,,,,,,,,,,,,,,,,,,,,,,,,,,,,,,,,,,,,,,,,,,,,,,,,,,,,,,,,,,,,,,,,,,,,,,,,,,,,,,,,,,,,,,,,,,,,,,,,,,,,,,,,,,,,,,,
,,,,,,60d336457da539b0a93cb7d3,62bbf937e12f15910a05e3f4,2022-06-29_09h07.03.278,Colour_Asymmetry_Pilot,2022.1.3,Win32,143.5338022,62bbe60bf3d75ef465d3e404,0,133,133,31,1,fourthree,,,,,,,,,,,,,,,,,,,,,,,,,,,,,,,,,,,,,,,,,,,,,,,,,,,,,,,,,,,,,,,,,,,,,,,,,,,,,,,,,,,,,,,,,,,,,,,,,,,,,,,,,,,,,,,,,,,,,,,,,,,,,,,,,,,,,,,,,,,,,,,,,,,,,,,,
,,,,,,60d336457da539b0a93cb7d3,62bbf937e12f15910a05e3f4,2022-06-29_09h07.03.278,Colour_Asymmetry_Pilot,2022.1.3,Win32,143.5338022,62bbe60bf3d75ef465d3e404,0,134,134,128,1,onetwo,,,,,,,,,,,,,,,,,,,,,,,,,,,,,,,,,,,,,,,,,,,,,,,,,,,,,,,,,,,,,,,,,,,,,,,,,,,,,,,,,,,,,,,,,,,,,,,,,,,,,,,,,,,,,,,,,,,,,,,,,,,,,,,,,,,,,,,,,,,,,,,,,,,,,,,,
,,,,,,60d336457da539b0a93cb7d3,62bbf937e12f15910a05e3f4,2022-06-29_09h07.03.278,Colour_Asymmetry_Pilot,2022.1.3,Win32,143.5338022,62bbe60bf3d75ef465d3e404,0,135,135,73,1,onethree,,,,,,,,,,,,,,,,,,,,,,,,,,,,,,,,,,,,,,,,,,,,,,,,,,,,,,,,,,,,,,,,,,,,,,,,,,,,,,,,,,,,,,,,,,,,,,,,,,,,,,,,,,,,,,,,,,,,,,,,,,,,,,,,,,,,,,,,,,,,,,,,,,,,,,,,
,,,,,,60d336457da539b0a93cb7d3,62bbf937e12f15910a05e3f4,2022-06-29_09h07.03.278,Colour_Asymmetry_Pilot,2022.1.3,Win32,143.5338022,62bbe60bf3d75ef465d3e404,0,136,136,7,1,fourthree,,,,,,,,,,,,,,,,,,,,,,,,,,,,,,,,,,,,,,,,,,,,,,,,,,,,,,,,,,,,,,,,,,,,,,,,,,,,,,,,,,,,,,,,,,,,,,,,,,,,,,,,,,,,,,,,,,,,,,,,,,,,,,,,,,,,,,,,,,,,,,,,,,,,,,,,
,,,,,,60d336457da539b0a93cb7d3,62bbf937e12f15910a05e3f4,2022-06-29_09h07.03.278,Colour_Asymmetry_Pilot,2022.1.3,Win32,143.5338022,62bbe60bf3d75ef465d3e404,0,137,137,156,1,threeone,,,,,,,,,,,,,,,,,,,,,,,,,,,,,,,,,,,,,,,,,,,,,,,,,,,,,,,,,,,,,,,,,,,,,,,,,,,,,,,,,,,,,,,,,,,,,,,,,,,,,,,,,,,,,,,,,,,,,,,,,,,,,,,,,,,,,,,,,,,,,,,,,,,,,,,,
,,,,,,60d336457da539b0a93cb7d3,62bbf937e12f15910a05e3f4,2022-06-29_09h07.03.278,Colour_Asymmetry_Pilot,2022.1.3,Win32,143.5338022,62bbe60bf3d75ef465d3e404,0,138,138,161,1,onethree,,,,,,,,,,,,,,,,,,,,,,,,,,,,,,,,,,,,,,,,,,,,,,,,,,,,,,,,,,,,,,,,,,,,,,,,,,,,,,,,,,,,,,,,,,,,,,,,,,,,,,,,,,,,,,,,,,,,,,,,,,,,,,,,,,,,,,,,,,,,,,,,,,,,,,,,
,,,,,,60d336457da539b0a93cb7d3,62bbf937e12f15910a05e3f4,2022-06-29_09h07.03.278,Colour_Asymmetry_Pilot,2022.1.3,Win32,143.5338022,62bbe60bf3d75ef465d3e404,0,139,139,101,1,threefour,,,,,,,,,,,,,,,,,,,,,,,,,,,,,,,,,,,,,,,,,,,,,,,,,,,,,,,,,,,,,,,,,,,,,,,,,,,,,,,,,,,,,,,,,,,,,,,,,,,,,,,,,,,,,,,,,,,,,,,,,,,,,,,,,,,,,,,,,,,,,,,,,,,,,,,,
,,,,,,60d336457da539b0a93cb7d3,62bbf937e12f15910a05e3f4,2022-06-29_09h07.03.278,Colour_Asymmetry_Pilot,2022.1.3,Win32,143.5338022,62bbe60bf3d75ef465d3e404,0,140,140,13,1,threefour,,,,,,,,,,,,,,,,,,,,,,,,,,,,,,,,,,,,,,,,,,,,,,,,,,,,,,,,,,,,,,,,,,,,,,,,,,,,,,,,,,,,,,,,,,,,,,,,,,,,,,,,,,,,,,,,,,,,,,,,,,,,,,,,,,,,,,,,,,,,,,,,,,,,,,,,
,,,,,,60d336457da539b0a93cb7d3,62bbf937e12f15910a05e3f4,2022-06-29_09h07.03.278,Colour_Asymmetry_Pilot,2022.1.3,Win32,143.5338022,62bbe60bf3d75ef465d3e404,0,141,141,61,1,threefour,,,,,,,,,,,,,,,,,,,,,,,,,,,,,,,,,,,,,,,,,,,,,,,,,,,,,,,,,,,,,,,,,,,,,,,,,,,,,,,,,,,,,,,,,,,,,,,,,,,,,,,,,,,,,,,,,,,,,,,,,,,,,,,,,,,,,,,,,,,,,,,,,,,,,,,,
,,,,,,60d336457da539b0a93cb7d3,62bbf937e12f15910a05e3f4,2022-06-29_09h07.03.278,Colour_Asymmetry_Pilot,2022.1.3,Win32,143.5338022,62bbe60bf3d75ef465d3e404,0,142,142,72,1,onetwo,,,,,,,,,,,,,,,,,,,,,,,,,,,,,,,,,,,,,,,,,,,,,,,,,,,,,,,,,,,,,,,,,,,,,,,,,,,,,,,,,,,,,,,,,,,,,,,,,,,,,,,,,,,,,,,,,,,,,,,,,,,,,,,,,,,,,,,,,,,,,,,,,,,,,,,,
,,,,,,60d336457da539b0a93cb7d3,62bbf937e12f15910a05e3f4,2022-06-29_09h07.03.278,Colour_Asymmetry_Pilot,2022.1.3,Win32,143.5338022,62bbe60bf3d75ef465d3e404,0,143,143,81,1,onethree,,,,,,,,,,,,,,,,,,,,,,,,,,,,,,,,,,,,,,,,,,,,,,,,,,,,,,,,,,,,,,,,,,,,,,,,,,,,,,,,,,,,,,,,,,,,,,,,,,,,,,,,,,,,,,,,,,,,,,,,,,,,,,,,,,,,,,,,,,,,,,,,,,,,,,,,
,,,,,,60d336457da539b0a93cb7d3,62bbf937e12f15910a05e3f4,2022-06-29_09h07.03.278,Colour_Asymmetry_Pilot,2022.1.3,Win32,143.5338022,62bbe60bf3d75ef465d3e404,0,144,144,40,1,onetwo,,,,,,,,,,,,,,,,,,,,,,,,,,,,,,,,,,,,,,,,,,,,,,,,,,,,,,,,,,,,,,,,,,,,,,,,,,,,,,,,,,,,,,,,,,,,,,,,,,,,,,,,,,,,,,,,,,,,,,,,,,,,,,,,,,,,,,,,,,,,,,,,,,,,,,,,
,,,,,,60d336457da539b0a93cb7d3,62bbf937e12f15910a05e3f4,2022-06-29_09h07.03.278,Colour_Asymmetry_Pilot,2022.1.3,Win32,143.5338022,62bbe60bf3d75ef465d3e404,0,145,145,58,1,twoone,,,,,,,,,,,,,,,,,,,,,,,,,,,,,,,,,,,,,,,,,,,,,,,,,,,,,,,,,,,,,,,,,,,,,,,,,,,,,,,,,,,,,,,,,,,,,,,,,,,,,,,,,,,,,,,,,,,,,,,,,,,,,,,,,,,,,,,,,,,,,,,,,,,,,,,,
,,,,,,60d336457da539b0a93cb7d3,62bbf937e12f15910a05e3f4,2022-06-29_09h07.03.278,Colour_Asymmetry_Pilot,2022.1.3,Win32,143.5338022,62bbe60bf3d75ef465d3e404,0,146,146,153,1,onethree,,,,,,,,,,,,,,,,,,,,,,,,,,,,,,,,,,,,,,,,,,,,,,,,,,,,,,,,,,,,,,,,,,,,,,,,,,,,,,,,,,,,,,,,,,,,,,,,,,,,,,,,,,,,,,,,,,,,,,,,,,,,,,,,,,,,,,,,,,,,,,,,,,,,,,,,
,,,,,,60d336457da539b0a93cb7d3,62bbf937e12f15910a05e3f4,2022-06-29_09h07.03.278,Colour_Asymmetry_Pilot,2022.1.3,Win32,143.5338022,62bbe60bf3d75ef465d3e404,0,147,147,16,1,onetwo,,,,,,,,,,,,,,,,,,,,,,,,,,,,,,,,,,,,,,,,,,,,,,,,,,,,,,,,,,,,,,,,,,,,,,,,,,,,,,,,,,,,,,,,,,,,,,,,,,,,,,,,,,,,,,,,,,,,,,,,,,,,,,,,,,,,,,,,,,,,,,,,,,,,,,,,
,,,,,,60d336457da539b0a93cb7d3,62bbf937e12f15910a05e3f4,2022-06-29_09h07.03.278,Colour_Asymmetry_Pilot,2022.1.3,Win32,143.5338022,62bbe60bf3d75ef465d3e404,0,148,148,129,1,onethree,,,,,,,,,,,,,,,,,,,,,,,,,,,,,,,,,,,,,,,,,,,,,,,,,,,,,,,,,,,,,,,,,,,,,,,,,,,,,,,,,,,,,,,,,,,,,,,,,,,,,,,,,,,,,,,,,,,,,,,,,,,,,,,,,,,,,,,,,,,,,,,,,,,,,,,,
,,,,,,60d336457da539b0a93cb7d3,62bbf937e12f15910a05e3f4,2022-06-29_09h07.03.278,Colour_Asymmetry_Pilot,2022.1.3,Win32,143.5338022,62bbe60bf3d75ef465d3e404,0,149,149,158,1,fourtwo,,,,,,,,,,,,,,,,,,,,,,,,,,,,,,,,,,,,,,,,,,,,,,,,,,,,,,,,,,,,,,,,,,,,,,,,,,,,,,,,,,,,,,,,,,,,,,,,,,,,,,,,,,,,,,,,,,,,,,,,,,,,,,,,,,,,,,,,,,,,,,,,,,,,,,,,
,,,,,,60d336457da539b0a93cb7d3,62bbf937e12f15910a05e3f4,2022-06-29_09h07.03.278,Colour_Asymmetry_Pilot,2022.1.3,Win32,143.5338022,62bbe60bf3d75ef465d3e404,0,150,150,27,1,twofour,,,,,,,,,,,,,,,,,,,,,,,,,,,,,,,,,,,,,,,,,,,,,,,,,,,,,,,,,,,,,,,,,,,,,,,,,,,,,,,,,,,,,,,,,,,,,,,,,,,,,,,,,,,,,,,,,,,,,,,,,,,,,,,,,,,,,,,,,,,,,,,,,,,,,,,,
,,,,,,60d336457da539b0a93cb7d3,62bbf937e12f15910a05e3f4,2022-06-29_09h07.03.278,Colour_Asymmetry_Pilot,2022.1.3,Win32,143.5338022,62bbe60bf3d75ef465d3e404,0,151,151,141,1,threefour,,,,,,,,,,,,,,,,,,,,,,,,,,,,,,,,,,,,,,,,,,,,,,,,,,,,,,,,,,,,,,,,,,,,,,,,,,,,,,,,,,,,,,,,,,,,,,,,,,,,,,,,,,,,,,,,,,,,,,,,,,,,,,,,,,,,,,,,,,,,,,,,,,,,,,,,
,,,,,,60d336457da539b0a93cb7d3,62bbf937e12f15910a05e3f4,2022-06-29_09h07.03.278,Colour_Asymmetry_Pilot,2022.1.3,Win32,143.5338022,62bbe60bf3d75ef465d3e404,0,152,152,121,1,onethree,,,,,,,,,,,,,,,,,,,,,,,,,,,,,,,,,,,,,,,,,,,,,,,,,,,,,,,,,,,,,,,,,,,,,,,,,,,,,,,,,,,,,,,,,,,,,,,,,,,,,,,,,,,,,,,,,,,,,,,,,,,,,,,,,,,,,,,,,,,,,,,,,,,,,,,,
,,,,,,60d336457da539b0a93cb7d3,62bbf937e12f15910a05e3f4,2022-06-29_09h07.03.278,Colour_Asymmetry_Pilot,2022.1.3,Win32,143.5338022,62bbe60bf3d75ef465d3e404,0,153,153,127,1,fourthree,,,,,,,,,,,,,,,,,,,,,,,,,,,,,,,,,,,,,,,,,,,,,,,,,,,,,,,,,,,,,,,,,,,,,,,,,,,,,,,,,,,,,,,,,,,,,,,,,,,,,,,,,,,,,,,,,,,,,,,,,,,,,,,,,,,,,,,,,,,,,,,,,,,,,,,,
,,,,,,60d336457da539b0a93cb7d3,62bbf937e12f15910a05e3f4,2022-06-29_09h07.03.278,Colour_Asymmetry_Pilot,2022.1.3,Win32,143.5338022,62bbe60bf3d75ef465d3e404,0,154,154,125,1,threefour,,,,,,,,,,,,,,,,,,,,,,,,,,,,,,,,,,,,,,,,,,,,,,,,,,,,,,,,,,,,,,,,,,,,,,,,,,,,,,,,,,,,,,,,,,,,,,,,,,,,,,,,,,,,,,,,,,,,,,,,,,,,,,,,,,,,,,,,,,,,,,,,,,,,,,,,
,,,,,,60d336457da539b0a93cb7d3,62bbf937e12f15910a05e3f4,2022-06-29_09h07.03.278,Colour_Asymmetry_Pilot,2022.1.3,Win32,143.5338022,62bbe60bf3d75ef465d3e404,0,155,155,19,1,twofour,,,,,,,,,,,,,,,,,,,,,,,,,,,,,,,,,,,,,,,,,,,,,,,,,,,,,,,,,,,,,,,,,,,,,,,,,,,,,,,,,,,,,,,,,,,,,,,,,,,,,,,,,,,,,,,,,,,,,,,,,,,,,,,,,,,,,,,,,,,,,,,,,,,,,,,,
,,,,,,60d336457da539b0a93cb7d3,62bbf937e12f15910a05e3f4,2022-06-29_09h07.03.278,Colour_Asymmetry_Pilot,2022.1.3,Win32,143.5338022,62bbe60bf3d75ef465d3e404,0,156,156,108,1,threeone,,,,,,,,,,,,,,,,,,,,,,,,,,,,,,,,,,,,,,,,,,,,,,,,,,,,,,,,,,,,,,,,,,,,,,,,,,,,,,,,,,,,,,,,,,,,,,,,,,,,,,,,,,,,,,,,,,,,,,,,,,,,,,,,,,,,,,,,,,,,,,,,,,,,,,,,
,,,,,,60d336457da539b0a93cb7d3,62bbf937e12f15910a05e3f4,2022-06-29_09h07.03.278,Colour_Asymmetry_Pilot,2022.1.3,Win32,143.5338022,62bbe60bf3d75ef465d3e404,0,157,157,155,1,twofour,,,,,,,,,,,,,,,,,,,,,,,,,,,,,,,,,,,,,,,,,,,,,,,,,,,,,,,,,,,,,,,,,,,,,,,,,,,,,,,,,,,,,,,,,,,,,,,,,,,,,,,,,,,,,,,,,,,,,,,,,,,,,,,,,,,,,,,,,,,,,,,,,,,,,,,,
,,,,,,60d336457da539b0a93cb7d3,62bbf937e12f15910a05e3f4,2022-06-29_09h07.03.278,Colour_Asymmetry_Pilot,2022.1.3,Win32,143.5338022,62bbe60bf3d75ef465d3e404,0,158,158,43,1,twofour,,,,,,,,,,,,,,,,,,,,,,,,,,,,,,,,,,,,,,,,,,,,,,,,,,,,,,,,,,,,,,,,,,,,,,,,,,,,,,,,,,,,,,,,,,,,,,,,,,,,,,,,,,,,,,,,,,,,,,,,,,,,,,,,,,,,,,,,,,,,,,,,,,,,,,,,
,,,,,,60d336457da539b0a93cb7d3,62bbf937e12f15910a05e3f4,2022-06-29_09h07.03.278,Colour_Asymmetry_Pilot,2022.1.3,Win32,143.5338022,62bbe60bf3d75ef465d3e404,0,159,159,154,1,twoone,,,,,,,,,,,,,,,,,,,,,,,,,,,,,,,,,,,,,,,,,,,,,,,,,,,,,,,,,,,,,,,,,,,,,,,,,,,,,,,,,,,,,,,,,,,,,,,,,,,,,,,,,,,,,,,,,,,,,,,,,,,,,,,,,,,,,,,,,,,,,,,,,,,,,,,,
,,,,,,60d336457da539b0a93cb7d3,62bbf937e12f15910a05e3f4,2022-06-29_09h07.03.278,Colour_Asymmetry_Pilot,2022.1.3,Win32,143.5338022,62bbe60bf3d75ef465d3e404,0,160,160,85,1,threefour,,,,,,,,,,,,,,,,,,,,,,,,,,,,,,,,,,,,,,,,,,,,,,,,,,,,,,,,,,,,,,,,,,,,,,,,,,,,,,,,,,,,,,,,,,,,,,,,,,,,,,,,,,,,,,,,,,,,,,,,,,,,,,,,,,,,,,,,,,,,,,,,,,,,,,,,
,,,,,,60d336457da539b0a93cb7d3,62bbf937e12f15910a05e3f4,2022-06-29_09h07.03.278,Colour_Asymmetry_Pilot,2022.1.3,Win32,143.5338022,62bbe60bf3d75ef465d3e404,0,161,161,97,1,onethree,,,,,,,,,,,,,,,,,,,,,,,,,,,,,,,,,,,,,,,,,,,,,,,,,,,,,,,,,,,,,,,,,,,,,,,,,,,,,,,,,,,,,,,,,,,,,,,,,,,,,,,,,,,,,,,,,,,,,,,,,,,,,,,,,,,,,,,,,,,,,,,,,,,,,,,,
,,,,,,60d336457da539b0a93cb7d3,62bbf937e12f15910a05e3f4,2022-06-29_09h07.03.278,Colour_Asymmetry_Pilot,2022.1.3,Win32,143.5338022,62bbe60bf3d75ef465d3e404,,,,,,,space,1.3086,space,11.8886,space,51.5182,space,24.257,space,2.3394,space,8.6351,"[-0.5922000000000001,-0.7492000000000001,-0.5296000000000001]",twoone,"[0.37240000000000006,-0.050999999999999934,-0.5216]",-4,13.0097,-50,117,1,0,0,response7disk_5,3,-5,1,0,0,rectangle_8,3,-5,1,0,0,1,3,-5,1,0,0,0,0,0,0,1,,,,,,,,,,,,,,,,,,,,,,,,,,,,,,,,,,,,,,,,,,,,,,,,,,,,,,,,,,,,,,,,,,,,,,,,,,,,,,,,,,,,,,,,,,,,,,,,,,,,,,,,,,,
,,,,,,60d336457da539b0a93cb7d3,62bbf937e12f15910a05e3f4,2022-06-29_09h07.03.278,Colour_Asymmetry_Pilot,2022.1.3,Win32,143.5338022,62bbe60bf3d75ef465d3e404,,,,,,,,,,,,,,,,,,,"[0.30180000000000007,-0.7884,-0.9844]",threeone,"[-0.48240000000000005,0.3175999999999999,0.2156]",-3,6.1252,-93,62,1,0,0,response7disk_5,1,5,1,0,0,rectangle_8,1,5,1,0,0,1,1,5,1,0,0,1,0,1,0,1,,,,,,,,,,,,,,,,,,,,,,,,,,,,,,,,,,,,,,,,,,,,,,,,,,,,,,,,,,,,,,,,,,,,,,,,,,,,,,,,,,,,,,,,,,,,,,,,,,,,,,,,,,,
,,,,,,60d336457da539b0a93cb7d3,62bbf937e12f15910a05e3f4,2022-06-29_09h07.03.278,Colour_Asymmetry_Pilot,2022.1.3,Win32,143.5338022,62bbe60bf3d75ef465d3e404,,,,,,,,,,,,,,,,,,,"[-0.07459999999999989,0.12139999999999995,-0.9922]",twoone,"[0.40379999999999994,0.09000000000000008,0.44300000000000006]",-3,9.8962,-92,50,1,0,0,response7disk_5,11,-7,1,0,0,rectangle_8,11,-7,1,0,0,1,11,-7,1,0,0,2,0,2,0,1,,,,,,,,,,,,,,,,,,,,,,,,,,,,,,,,,,,,,,,,,,,,,,,,,,,,,,,,,,,,,,,,,,,,,,,,,,,,,,,,,,,,,,,,,,,,,,,,,,,,,,,,,,,
,,,,,,60d336457da539b0a93cb7d3,62bbf937e12f15910a05e3f4,2022-06-29_09h07.03.278,Colour_Asymmetry_Pilot,2022.1.3,Win32,143.5338022,62bbe60bf3d75ef465d3e404,,,,,,,,,,,,,,,,,,,"[-0.48240000000000005,0.3175999999999999,0.2156]",threeone,"[-0.26280000000000003,-0.2158,-0.3256]",-1,3.6738,-40,-125,1,0,0,response5disk_5,-2,-1,1,0,0,rectangle_8,-2,-1,1,0,0,1,-2,-1,1,0,0,3,0,3,0,1,,,,,,,,,,,,,,,,,,,,,,,,,,,,,,,,,,,,,,,,,,,,,,,,,,,,,,,,,,,,,,,,,,,,,,,,,,,,,,,,,,,,,,,,,,,,,,,,,,,,,,,,,,,
,,,,,,60d336457da539b0a93cb7d3,62bbf937e12f15910a05e3f4,2022-06-29_09h07.03.278,Colour_Asymmetry_Pilot,2022.1.3,Win32,143.5338022,62bbe60bf3d75ef465d3e404,,,,,,,,,,,,,,,,,,,"[0.37240000000000006,0.4980000000000002,-0.2864]",twofour,"[-0.011800000000000033,-0.906,-0.45100000000000007]",-4,2.1736,-59,108,1,0,0,response7disk_5,1,0,1,0,0,rectangle_8,53,-130,1,0,0,1,-8,6,1,0,0,4,0,4,0,1,response3disk_7,4,rectangle_4,,,,,,,,,,,,,,,,,,,,,,,,,,,,,,,,,,,,,,,,,,,,,,,,,,,,,,,,,,,,,,,,,,,,,,,,,,,,,,,,,,,,,,,,,,,,,,,,,,,,,,,,
,,,,,,60d336457da539b0a93cb7d3,62bbf937e12f15910a05e3f4,2022-06-29_09h07.03.278,Colour_Asymmetry_Pilot,2022.1.3,Win32,143.5338022,62bbe60bf3d75ef465d3e404,,,,,,,,,,,,,,,,,,,"[-0.9216,-0.5529999999999999,-0.3962]",twofour,"[0.23920000000000008,0.2704,0.16060000000000008]",-3,2.8264,-115,28,1,0,0,response7disk_5,3,4,1,0,0,rectangle_8,3,4,1,0,0,1,3,4,1,0,0,5,0,5,0,1,,,,,,,,,,,,,,,,,,,,,,,,,,,,,,,,,,,,,,,,,,,,,,,,,,,,,,,,,,,,,,,,,,,,,,,,,,,,,,,,,,,,,,,,,,,,,,,,,,,,,,,,,,,
,,,,,,60d336457da539b0a93cb7d3,62bbf937e12f15910a05e3f4,2022-06-29_09h07.03.278,Colour_Asymmetry_Pilot,2022.1.3,Win32,143.5338022,62bbe60bf3d75ef465d3e404,,,,,,,,,,,,,,,,,,,"[-0.9766,-0.6472,0.07440000000000002]",fourtwo,"[0.09799999999999986,-0.24719999999999998,0.15280000000000005]",-1,3.1946,-72,-105,1,0,0,response5disk_5,-10,-4,1,0,0,rectangle_8,-10,-4,1,0,0,1,-10,-4,1,0,0,6,0,6,0,1,,,,,,,,,,,,,,,,,,,,,,,,,,,,,,,,,,,,,,,,,,,,,,,,,,,,,,,,,,,,,,,,,,,,,,,,,,,,,,,,,,,,,,,,,,,,,,,,,,,,,,,,,,,
,,,,,,60d336457da539b0a93cb7d3,62bbf937e12f15910a05e3f4,2022-06-29_09h07.03.278,Colour_Asymmetry_Pilot,2022.1.3,Win32,143.5338022,62bbe60bf3d75ef465d3e404,,,,,,,,,,,,,,,,,,,,threefour,,-1,1.9653,,,,,,,,,,,,,,,,,,,,,,,,,,,,,,,,space,5.1617,"[0.9686000000000001,0.5763999999999998,0.11359999999999992]","[0.4196,0.4665999999999999,0.3568]",-36,-129,1,0,0,response5disk,14,-8,1,0,0,rectangle,14,-8,1,0,0,,1,0.0006,0,14,-8,1,0,0,0,0,0,21,1,21,first,,,,,,,,,,,,,,,,,,,,,,,,,,,,,,,,,,,,,,,,,,,,,,,,,,,,,,,,,,,,,,,,,,,
,,,,,,60d336457da539b0a93cb7d3,62bbf937e12f15910a05e3f4,2022-06-29_09h07.03.278,Colour_Asymmetry_Pilot,2022.1.3,Win32,143.5338022,62bbe60bf3d75ef465d3e404,,,,,,,,,,,,,,,,,,,,onethree,,-1,1.3818,,,,,,,,,,,,,,,,,,,,,,,,,,,,,,,,,,"[-0.10599999999999998,-0.15300000000000002,0.15280000000000005]","[-0.4276,0.0038000000000000256,-0.3256]",-57,-122,1,0,0,response5disk,-12,19,1,0,0,rectangle,-12,19,1,0,0,,2,0.0004,0,-12,19,1,0,0,0,1,1,99,1,18,second,,,,,,,,,,,,,,,,,,,,,,,,,,,,,,,,,,,,,,,,,,,,,,,,,,,,,,,,,,,,,,,,,,,
,,,,,,60d336457da539b0a93cb7d3,62bbf937e12f15910a05e3f4,2022-06-29_09h07.03.278,Colour_Asymmetry_Pilot,2022.1.3,Win32,143.5338022,62bbe60bf3d75ef465d3e404,,,,,,,,,,,,,,,,,,,,fourthree,,1,3.396,,,,,,,,,,,,,,,,,,,,,,,,,,,,,,,,,,"[-0.9766,-0.34920000000000007,0.2156]","[-0.30200000000000005,0.14500000000000002,0.2784]",50,-142,1,0,0,response3disk,-11,10,1,0,0,rectangle,-11,10,1,0,0,,1,0.0004,0,-11,10,1,0,0,0,2,2,129,1,48,second,,,,,,,,,,,,,,,,,,,,,,,,,,,,,,,,,,,,,,,,,,,,,,,,,,,,,,,,,,,,,,,,,,,
,,,,,,60d336457da539b0a93cb7d3,62bbf937e12f15910a05e3f4,2022-06-29_09h07.03.278,Colour_Asymmetry_Pilot,2022.1.3,Win32,143.5338022,62bbe60bf3d75ef465d3e404,,,,,,,,,,,,,,,,,,,,twofour,,-2,1.4238,,,,,,,,,,,,,,,,,,,,,,,,,,,,,,,,,,"[-0.30200000000000005,0.14500000000000002,0.2784]","[0.18419999999999992,-0.4276,-0.404]",-115,-39,1,0,0,response5disk,2,1,1,0,0,rectangle,2,1,1,0,0,,1,1E-04,0,2,1,1,0,0,0,3,3,60,1,60,first,,,,,,,,,,,,,,,,,,,,,,,,,,,,,,,,,,,,,,,,,,,,,,,,,,,,,,,,,,,,,,,,,,,
,,,,,,60d336457da539b0a93cb7d3,62bbf937e12f15910a05e3f4,2022-06-29_09h07.03.278,Colour_Asymmetry_Pilot,2022.1.3,Win32,143.5338022,62bbe60bf3d75ef465d3e404,,,,,,,,,,,,,,,,,,,,fourthree,,-2,1.5208,,,,,,,,,,,,,,,,,,,,,,,,,,,,,,,,,,"[0.4196,0.4665999999999999,0.3568]","[0.9763999999999999,0.30979999999999985,-0.6786]",-134,-45,1,0,0,response5disk,-37,0,1,0,0,rectangle,-37,0,1,0,0,,2,0.0005,0,-37,0,1,0,0,0,4,4,121,1,40,second,,,,,,,,,,,,,,,,,,,,,,,,,,,,,,,,,,,,,,,,,,,,,,,,,,,,,,,,,,,,,,,,,,,
,,,,,,60d336457da539b0a93cb7d3,62bbf937e12f15910a05e3f4,2022-06-29_09h07.03.278,Colour_Asymmetry_Pilot,2022.1.3,Win32,143.5338022,62bbe60bf3d75ef465d3e404,,,,,,,,,,,,,,,,,,,,twofour,,-2,7.9239,,,,,,,,,,,,,,,,,,,,,,,,,,,,,,,,,,"[0.18419999999999992,-0.4276,-0.404]","[-0.6,0.16860000000000008,0.44300000000000006]",-80,-40,1,0,0,response5disk,-5,0,1,0,0,rectangle,-5,0,1,0,0,,3,0.0004,0,-5,0,1,0,0,0,5,5,155,1,74,second,,,,,,,,,,,,,,,,,,,,,,,,,,,,,,,,,,,,,,,,,,,,,,,,,,,,,,,,,,,,,,,,,,,
,,,,,,60d336457da539b0a93cb7d3,62bbf937e12f15910a05e3f4,2022-06-29_09h07.03.278,Colour_Asymmetry_Pilot,2022.1.3,Win32,143.5338022,62bbe60bf3d75ef465d3e404,,,,,,,,,,,,,,,,,,,,onetwo,,-1,0.7846,,,,,,,,,,,,,,,,,,,,,,,,,,,,,,,,,,"[-0.8118,-0.8198,-0.5452]","[0.2784,-0.31000000000000005,-0.5452]",-45,-111,1,0,0,response5disk,4,-4,1,0,0,rectangle,4,-4,1,0,0,,1,0.0003,0,4,-4,1,0,0,0,6,6,114,1,33,second,,,,,,,,,,,,,,,,,,,,,,,,,,,,,,,,,,,,,,,,,,,,,,,,,,,,,,,,,,,,,,,,,,,
,,,,,,60d336457da539b0a93cb7d3,62bbf937e12f15910a05e3f4,2022-06-29_09h07.03.278,Colour_Asymmetry_Pilot,2022.1.3,Win32,143.5338022,62bbe60bf3d75ef465d3e404,,,,,,,,,,,,,,,,,,,,threefour,,-4,1.5209,,,,,,,,,,,,,,,,,,,,,,,,,,,,,,,,,,"[-0.4746,-0.0354000000000001,0.5449999999999999]","[0.9372,0.9450000000000001,0.8980000000000001]",-73,108,1,0,0,response7disk,-6,-5,1,0,0,rectangle,-6,-5,1,0,0,,2,0.0003,0,-6,-5,1,0,0,0,7,7,150,1,69,second,,,,,,,,,,,,,,,,,,,,,,,,,,,,,,,,,,,,,,,,,,,,,,,,,,,,,,,,,,,,,,,,,,,
,,,,,,60d336457da539b0a93cb7d3,62bbf937e12f15910a05e3f4,2022-06-29_09h07.03.278,Colour_Asymmetry_Pilot,2022.1.3,Win32,143.5338022,62bbe60bf3d75ef465d3e404,,,,,,,,,,,,,,,,,,,,onethree,,-2,32.4248,,,,,,,,,,,,,,,,,,,,,,,,,,,,,,,,,,"[-0.7412000000000001,-0.08239999999999992,-0.6864]","[0.9763999999999999,0.8588,-0.05900000000000005]",-91,-65,1,0,0,response5disk,33,15,1,0,0,rectangle,33,15,1,0,0,,1,0.0003,0,33,15,1,0,0,0,8,8,35,1,35,first,,,,,,,,,,,,,,,,,,,,,,,,,,,,,,,,,,,,,,,,,,,,,,,,,,,,,,,,,,,,,,,,,,,
,,,,,,60d336457da539b0a93cb7d3,62bbf937e12f15910a05e3f4,2022-06-29_09h07.03.278,Colour_Asymmetry_Pilot,2022.1.3,Win32,143.5338022,62bbe60bf3d75ef465d3e404,,,,,,,,,,,,,,,,,,,,fourtwo,,-4,0.6736,,,,,,,,,,,,,,,,,,,,,,,,,,,,,,,,,,"[-0.9844,-0.9688,-0.9922]","[0.2862,0.7802,0.3568]",-79,133,1,0,0,response7disk,-7,-11,1,0,0,rectangle,-7,-11,1,0,0,,3,0.0003,0,-7,-11,1,0,0,0,9,9,87,1,6,second,,,,,,,,,,,,,,,,,,,,,,,,,,,,,,,,,,,,,,,,,,,,,,,,,,,,,,,,,,,,,,,,,,,
,,,,,,60d336457da539b0a93cb7d3,62bbf937e12f15910a05e3f4,2022-06-29_09h07.03.278,Colour_Asymmetry_Pilot,2022.1.3,Win32,143.5338022,62bbe60bf3d75ef465d3e404,,,,,,,,,,,,,,,,,,,,onetwo,,-2,0.6597,,,,,,,,,,,,,,,,,,,,,,,,,,,,,,,,,,"[-0.24719999999999998,-0.0354000000000001,0.3175999999999999]","[0.23120000000000007,-0.7726,-0.34120000000000006]",-96,-53,1,0,0,response5disk,-24,-6,1,0,0,rectangle,-24,-6,1,0,0,,2,0.0004,0,-24,-6,1,0,0,0,10,10,50,1,50,first,,,,,,,,,,,,,,,,,,,,,,,,,,,,,,,,,,,,,,,,,,,,,,,,,,,,,,,,,,,,,,,,,,,
,,,,,,60d336457da539b0a93cb7d3,62bbf937e12f15910a05e3f4,2022-06-29_09h07.03.278,Colour_Asymmetry_Pilot,2022.1.3,Win32,143.5338022,62bbe60bf3d75ef465d3e404,,,,,,,,,,,,,,,,,,,,threefour,,-1,0.9305,,,,,,,,,,,,,,,,,,,,,,,,,,,,,,,,,,"[0.12939999999999996,-0.2864,0.3253999999999999]","[-0.9766,-0.34920000000000007,0.2156]",-53,-127,1,0,0,response5disk,-8,-9,1,0,0,rectangle,-8,-9,1,0,0,,1,0.0002,0,-8,-9,1,0,0,0,11,11,111,1,30,second,,,,,,,,,,,,,,,,,,,,,,,,,,,,,,,,,,,,,,,,,,,,,,,,,,,,,,,,,,,,,,,,,,,
,,,,,,60d336457da539b0a93cb7d3,62bbf937e12f15910a05e3f4,2022-06-29_09h07.03.278,Colour_Asymmetry_Pilot,2022.1.3,Win32,143.5338022,62bbe60bf3d75ef465d3e404,,,,,,,,,,,,,,,,,,,,onethree,,-1,0.6042,,,,,,,,,,,,,,,,,,,,,,,,,,,,,,,,,,"[-0.2942,-0.24719999999999998,-0.357]","[-0.9766,-0.34920000000000007,0.2156]",-43,-113,1,0,0,response5disk,-3,3,1,0,0,rectangle,-3,3,1,0,0,,1,0.0001,0,-3,3,1,0,0,0,12,12,81,1,0,second,,,,,,,,,,,,,,,,,,,,,,,,,,,,,,,,,,,,,,,,,,,,,,,,,,,,,,,,,,,,,,,,,,,
,,,,,,60d336457da539b0a93cb7d3,62bbf937e12f15910a05e3f4,2022-06-29_09h07.03.278,Colour_Asymmetry_Pilot,2022.1.3,Win32,143.5338022,62bbe60bf3d75ef465d3e404,,,,,,,,,,,,,,,,,,,,threeone,,-4,0.7918,,,,,,,,,,,,,,,,,,,,,,,,,,,,,,,,,,"[0.9842,0.7409999999999999,-0.6628000000000001]","[0.09799999999999986,-0.24719999999999998,0.15280000000000005]",-71,96,1,0,0,response7disk,-11,5,1,0,0,rectangle,-11,5,1,0,0,,1,0.0001,0,-11,5,1,0,0,0,13,13,156,1,75,second,,,,,,,,,,,,,,,,,,,,,,,,,,,,,,,,,,,,,,,,,,,,,,,,,,,,,,,,,,,,,,,,,,,
,,,,,,60d336457da539b0a93cb7d3,62bbf937e12f15910a05e3f4,2022-06-29_09h07.03.278,Colour_Asymmetry_Pilot,2022.1.3,Win32,143.5338022,62bbe60bf3d75ef465d3e404,,,,,,,,,,,,,,,,,,,,threeone,,-2,3.9377,,,,,,,,,,,,,,,,,,,,,,,,,,,,,,,,,,"[-0.6235999999999999,-0.6786,-0.08239999999999992]","[0.04299999999999993,0.16060000000000008,-0.6628000000000001]",-99,-52,1,0,0,response5disk,-23,-3,1,0,0,rectangle,-23,-3,1,0,0,,1,1E-04,0,-23,-3,1,0,0,0,14,14,100,1,19,second,,,,,,,,,,,,,,,,,,,,,,,,,,,,,,,,,,,,,,,,,,,,,,,,,,,,,,,,,,,,,,,,,,,
,,,,,,60d336457da539b0a93cb7d3,62bbf937e12f15910a05e3f4,2022-06-29_09h07.03.278,Colour_Asymmetry_Pilot,2022.1.3,Win32,143.5338022,62bbe60bf3d75ef465d3e404,,,,,,,,,,,,,,,,,,,,onethree,,-2,1.3542,,,,,,,,,,,,,,,,,,,,,,,,,,,,,,,,,,"[0.18419999999999992,-0.4276,-0.404]","[-0.30200000000000005,0.14500000000000002,0.2784]",-100,-31,1,0,0,response5disk,-5,14,1,0,0,rectangle,-5,14,1,0,0,,3,0.0003,0,-5,14,1,0,0,0,15,15,141,1,60,second,,,,,,,,,,,,,,,,,,,,,,,,,,,,,,,,,,,,,,,,,,,,,,,,,,,,,,,,,,,,,,,,,,,
,,,,,,60d336457da539b0a93cb7d3,62bbf937e12f15910a05e3f4,2022-06-29_09h07.03.278,Colour_Asymmetry_Pilot,2022.1.3,Win32,143.5338022,62bbe60bf3d75ef465d3e404,,,,,,,,,,,,,,,,,,,,threeone,,-1,1.9596,,,,,,,,,,,,,,,,,,,,,,,,,,,,,,,,,,"[-0.10599999999999998,-0.10599999999999998,0.5841999999999998]","[0.37240000000000006,-0.050999999999999934,-0.5216]",-34,-126,1,0,0,response5disk,-15,11,1,0,0,rectangle,123,-73,1,0,0,2,2,4.0306,1,11,-3,1,0,0,0,16,16,97,1,16,second,response3disk_3,rectangle,,,,,,,,,,,,,,,,,,,,,,,,,,,,,,,,,,,,,,,,,,,,,,,,,,,,,,,,,,,,,,,,,
,,,,,,60d336457da539b0a93cb7d3,62bbf937e12f15910a05e3f4,2022-06-29_09h07.03.278,Colour_Asymmetry_Pilot,2022.1.3,Win32,143.5338022,62bbe60bf3d75ef465d3e404,,,,,,,,,,,,,,,,,,,,threeone,,-3,3.1224,,,,,,,,,,,,,,,,,,,,,,,,,,,,,,,,,,"[0.37240000000000006,0.4980000000000002,-0.2864]","[-0.24719999999999998,-0.0354000000000001,0.3175999999999999]",-112,29,1,0,0,response7disk,6,-5,1,0,0,rectangle,6,-5,1,0,0,2,1,0.0003,0,6,-5,1,0,0,0,17,17,138,1,57,second,,,,,,,,,,,,,,,,,,,,,,,,,,,,,,,,,,,,,,,,,,,,,,,,,,,,,,,,,,,,,,,,,,,
,,,,,,60d336457da539b0a93cb7d3,62bbf937e12f15910a05e3f4,2022-06-29_09h07.03.278,Colour_Asymmetry_Pilot,2022.1.3,Win32,143.5338022,62bbe60bf3d75ef465d3e404,,,,,,,,,,,,,,,,,,,,threeone,,-2,0.8334,,,,,,,,,,,,,,,,,,,,,,,,,,,,,,,,,,"[-0.24719999999999998,-0.0354000000000001,0.3175999999999999]","[-0.7412000000000001,-0.08239999999999992,-0.6864]",-82,-67,1,0,0,response5disk,10,2,1,0,0,rectangle,10,2,1,0,0,2,3,0.0004,0,10,2,1,0,0,0,18,18,133,1,52,second,,,,,,,,,,,,,,,,,,,,,,,,,,,,,,,,,,,,,,,,,,,,,,,,,,,,,,,,,,,,,,,,,,,
,,,,,,60d336457da539b0a93cb7d3,62bbf937e12f15910a05e3f4,2022-06-29_09h07.03.278,Colour_Asymmetry_Pilot,2022.1.3,Win32,143.5338022,62bbe60bf3d75ef465d3e404,,,,,,,,,,,,,,,,,,,,fourthree,,1,1.743,,,,,,,,,,,,,,,,,,,,,,,,,,,,,,,,,,"[-0.2942,-0.7648,-0.7492000000000001]","[-0.20799999999999996,-0.655,-0.01980000000000004]",66,-108,1,0,0,response3disk,5,-17,1,0,0,rectangle,5,-17,1,0,0,2,1,0.0003,0,5,-17,1,0,0,0,19,19,38,1,38,first,,,,,,,,,,,,,,,,,,,,,,,,,,,,,,,,,,,,,,,,,,,,,,,,,,,,,,,,,,,,,,,,,,,
,,,,,,60d336457da539b0a93cb7d3,62bbf937e12f15910a05e3f4,2022-06-29_09h07.03.278,Colour_Asymmetry_Pilot,2022.1.3,Win32,143.5338022,62bbe60bf3d75ef465d3e404,,,,,,,,,,,,,,,,,,,,onethree,,-2,0.9306,,,,,,,,,,,,,,,,,,,,,,,,,,,,,,,,,,"[-0.09019999999999995,0.44300000000000006,0.5371999999999999]","[0.23120000000000007,-0.7726,-0.34120000000000006]",-100,-38,1,0,0,response5disk,-31,17,1,0,0,rectangle,-31,17,1,0,0,2,1,0,0,-31,17,1,0,0,0,20,20,8,1,8,first,,,,,,,,,,,,,,,,,,,,,,,,,,,,,,,,,,,,,,,,,,,,,,,,,,,,,,,,,,,,,,,,,,,
