trials.thisRepN,trials.thisTrialN,trials.thisN,trials.thisIndex,trials.ran,Colourcodes,participant,session,date,expName,psychopyVersion,OS,frameRate,study_id,trials_4.thisRepN,trials_4.thisTrialN,trials_4.thisN,trials_4.thisIndex,trials_4.ran,StimulusPos,key_resp.keys,key_resp.rt,key_resp_2.keys,key_resp_2.rt,key_resp_15.keys,key_resp_15.rt,key_resp_17.keys,key_resp_17.rt,key_resp_9.keys,key_resp_9.rt,key_resp_10.keys,key_resp_10.rt,Circle1_col,Ecc,Circle2_col,similarity,response_time,mouse_5.x,mouse_5.y,mouse_5.leftButton,mouse_5.midButton,mouse_5.rightButton,mouse_5.clicked_name,mouse_10.x,mouse_10.y,mouse_10.leftButton,mouse_10.midButton,mouse_10.rightButton,mouse_10.clicked_name,mouse_7.x,mouse_7.y,mouse_7.leftButton,mouse_7.midButton,mouse_7.rightButton,catchnumberprac,mouse_6.x,mouse_6.y,mouse_6.leftButton,mouse_6.midButton,mouse_6.rightButton,duringprac.thisRepN,duringprac.thisTrialN,duringprac.thisN,duringprac.thisIndex,duringprac.ran,mouse_7.clicked_name,catchprac,mouse_6.clicked_name,key_resp_22.keys,key_resp_22.rt,Circle1_colour,Circle2_colour,mouse.x,mouse.y,mouse.leftButton,mouse.midButton,mouse.rightButton,mouse.clicked_name,mouse_2.x,mouse_2.y,mouse_2.leftButton,mouse_2.midButton,mouse_2.rightButton,mouse_2.clicked_name,mouse_3.x,mouse_3.y,mouse_3.leftButton,mouse_3.midButton,mouse_3.rightButton,catchresponse,catchnumber,response_time_catch,Catch,mouse_11.x,mouse_11.y,mouse_11.leftButton,mouse_11.midButton,mouse_11.rightButton,trials_2.thisRepN,trials_2.thisTrialN,trials_2.thisN,trials_2.thisIndex,trials_2.ran,Colourpair,Temporder,mouse_3.clicked_name,mouse_11.clicked_name,trials_3.thisRepN,trials_3.thisTrialN,trials_3.thisN,trials_3.thisIndex,trials_3.ran,key_resp_instr_Ishi.keys,key_resp_instr_Ishi.rt,Ishi_trial_keyresp.keys,Ishi_trial_keyresp.rt,Ishi_textbox.text,Ishi_loop.thisRepN,Ishi_loop.thisTrialN,Ishi_loop.thisN,Ishi_loop.thisIndex,Ishi_loop.ran,imageaddress,textbox.text,mouse_4.x,mouse_4.y,mouse_4.leftButton,mouse_4.midButton,mouse_4.rightButton,mouse_4.clicked_name,textbox_2.text,mouse_8.x,mouse_8.y,mouse_8.leftButton,mouse_8.midButton,mouse_8.rightButton,mouse_8.clicked_name,textbox_3.text,mouse_9.x,mouse_9.y,mouse_9.leftButton,mouse_9.midButton,mouse_9.rightButton,mouse_9.clicked_name,textbox_4.text,mouse_12.x,mouse_12.y,mouse_12.leftButton,mouse_12.midButton,mouse_12.rightButton,mouse_12.clicked_name,textbox_5.text,mouse_13.x,mouse_13.y,mouse_13.leftButton,mouse_13.midButton,mouse_13.rightButton,mouse_13.clicked_name,textbox_6.text,mouse_14.x,mouse_14.y,mouse_14.leftButton,mouse_14.midButton,mouse_14.rightButton,mouse_14.clicked_name,textbox_7.text,mouse_15.x,mouse_15.y,mouse_15.leftButton,mouse_15.midButton,mouse_15.rightButton,mouse_15.clicked_name
0,0,0,41,1,,611d70b44274c0040dc5dd0f,62bbfa7f72d3464813959fdd,2022-06-29_09h09.23.204,Colour_Asymmetry_Pilot,2022.1.3,Win32,30.01380635,62bbe60bf3d75ef465d3e404,,,,,,,,,,,,,,,,,,,,,,,,,,,,,,,,,,,,,,,,,,,,,,,,,,,,,,,,,,,,,,,,,,,,,,,,,,,,,,,,,,,,,,,,,,,,,,,,,,,,,,,,,,,,,,,,,,,,,,,,,,,,,,,,,,,,,,,,,,,,,,,,,,,,,,,,,,,,,,
0,1,1,84,1,,611d70b44274c0040dc5dd0f,62bbfa7f72d3464813959fdd,2022-06-29_09h09.23.204,Colour_Asymmetry_Pilot,2022.1.3,Win32,30.01380635,62bbe60bf3d75ef465d3e404,,,,,,,,,,,,,,,,,,,,,,,,,,,,,,,,,,,,,,,,,,,,,,,,,,,,,,,,,,,,,,,,,,,,,,,,,,,,,,,,,,,,,,,,,,,,,,,,,,,,,,,,,,,,,,,,,,,,,,,,,,,,,,,,,,,,,,,,,,,,,,,,,,,,,,,,,,,,,,
0,2,2,86,1,,611d70b44274c0040dc5dd0f,62bbfa7f72d3464813959fdd,2022-06-29_09h09.23.204,Colour_Asymmetry_Pilot,2022.1.3,Win32,30.01380635,62bbe60bf3d75ef465d3e404,,,,,,,,,,,,,,,,,,,,,,,,,,,,,,,,,,,,,,,,,,,,,,,,,,,,,,,,,,,,,,,,,,,,,,,,,,,,,,,,,,,,,,,,,,,,,,,,,,,,,,,,,,,,,,,,,,,,,,,,,,,,,,,,,,,,,,,,,,,,,,,,,,,,,,,,,,,,,,
0,3,3,83,1,,611d70b44274c0040dc5dd0f,62bbfa7f72d3464813959fdd,2022-06-29_09h09.23.204,Colour_Asymmetry_Pilot,2022.1.3,Win32,30.01380635,62bbe60bf3d75ef465d3e404,,,,,,,,,,,,,,,,,,,,,,,,,,,,,,,,,,,,,,,,,,,,,,,,,,,,,,,,,,,,,,,,,,,,,,,,,,,,,,,,,,,,,,,,,,,,,,,,,,,,,,,,,,,,,,,,,,,,,,,,,,,,,,,,,,,,,,,,,,,,,,,,,,,,,,,,,,,,,,
0,4,4,34,1,,611d70b44274c0040dc5dd0f,62bbfa7f72d3464813959fdd,2022-06-29_09h09.23.204,Colour_Asymmetry_Pilot,2022.1.3,Win32,30.01380635,62bbe60bf3d75ef465d3e404,,,,,,,,,,,,,,,,,,,,,,,,,,,,,,,,,,,,,,,,,,,,,,,,,,,,,,,,,,,,,,,,,,,,,,,,,,,,,,,,,,,,,,,,,,,,,,,,,,,,,,,,,,,,,,,,,,,,,,,,,,,,,,,,,,,,,,,,,,,,,,,,,,,,,,,,,,,,,,
0,5,5,17,1,,611d70b44274c0040dc5dd0f,62bbfa7f72d3464813959fdd,2022-06-29_09h09.23.204,Colour_Asymmetry_Pilot,2022.1.3,Win32,30.01380635,62bbe60bf3d75ef465d3e404,,,,,,,,,,,,,,,,,,,,,,,,,,,,,,,,,,,,,,,,,,,,,,,,,,,,,,,,,,,,,,,,,,,,,,,,,,,,,,,,,,,,,,,,,,,,,,,,,,,,,,,,,,,,,,,,,,,,,,,,,,,,,,,,,,,,,,,,,,,,,,,,,,,,,,,,,,,,,,
0,6,6,39,1,,611d70b44274c0040dc5dd0f,62bbfa7f72d3464813959fdd,2022-06-29_09h09.23.204,Colour_Asymmetry_Pilot,2022.1.3,Win32,30.01380635,62bbe60bf3d75ef465d3e404,,,,,,,,,,,,,,,,,,,,,,,,,,,,,,,,,,,,,,,,,,,,,,,,,,,,,,,,,,,,,,,,,,,,,,,,,,,,,,,,,,,,,,,,,,,,,,,,,,,,,,,,,,,,,,,,,,,,,,,,,,,,,,,,,,,,,,,,,,,,,,,,,,,,,,,,,,,,,,
0,7,7,62,1,,611d70b44274c0040dc5dd0f,62bbfa7f72d3464813959fdd,2022-06-29_09h09.23.204,Colour_Asymmetry_Pilot,2022.1.3,Win32,30.01380635,62bbe60bf3d75ef465d3e404,,,,,,,,,,,,,,,,,,,,,,,,,,,,,,,,,,,,,,,,,,,,,,,,,,,,,,,,,,,,,,,,,,,,,,,,,,,,,,,,,,,,,,,,,,,,,,,,,,,,,,,,,,,,,,,,,,,,,,,,,,,,,,,,,,,,,,,,,,,,,,,,,,,,,,,,,,,,,,
0,8,8,38,1,,611d70b44274c0040dc5dd0f,62bbfa7f72d3464813959fdd,2022-06-29_09h09.23.204,Colour_Asymmetry_Pilot,2022.1.3,Win32,30.01380635,62bbe60bf3d75ef465d3e404,,,,,,,,,,,,,,,,,,,,,,,,,,,,,,,,,,,,,,,,,,,,,,,,,,,,,,,,,,,,,,,,,,,,,,,,,,,,,,,,,,,,,,,,,,,,,,,,,,,,,,,,,,,,,,,,,,,,,,,,,,,,,,,,,,,,,,,,,,,,,,,,,,,,,,,,,,,,,,
0,9,9,80,1,,611d70b44274c0040dc5dd0f,62bbfa7f72d3464813959fdd,2022-06-29_09h09.23.204,Colour_Asymmetry_Pilot,2022.1.3,Win32,30.01380635,62bbe60bf3d75ef465d3e404,,,,,,,,,,,,,,,,,,,,,,,,,,,,,,,,,,,,,,,,,,,,,,,,,,,,,,,,,,,,,,,,,,,,,,,,,,,,,,,,,,,,,,,,,,,,,,,,,,,,,,,,,,,,,,,,,,,,,,,,,,,,,,,,,,,,,,,,,,,,,,,,,,,,,,,,,,,,,,
0,10,10,12,1,,611d70b44274c0040dc5dd0f,62bbfa7f72d3464813959fdd,2022-06-29_09h09.23.204,Colour_Asymmetry_Pilot,2022.1.3,Win32,30.01380635,62bbe60bf3d75ef465d3e404,,,,,,,,,,,,,,,,,,,,,,,,,,,,,,,,,,,,,,,,,,,,,,,,,,,,,,,,,,,,,,,,,,,,,,,,,,,,,,,,,,,,,,,,,,,,,,,,,,,,,,,,,,,,,,,,,,,,,,,,,,,,,,,,,,,,,,,,,,,,,,,,,,,,,,,,,,,,,,
0,11,11,32,1,,611d70b44274c0040dc5dd0f,62bbfa7f72d3464813959fdd,2022-06-29_09h09.23.204,Colour_Asymmetry_Pilot,2022.1.3,Win32,30.01380635,62bbe60bf3d75ef465d3e404,,,,,,,,,,,,,,,,,,,,,,,,,,,,,,,,,,,,,,,,,,,,,,,,,,,,,,,,,,,,,,,,,,,,,,,,,,,,,,,,,,,,,,,,,,,,,,,,,,,,,,,,,,,,,,,,,,,,,,,,,,,,,,,,,,,,,,,,,,,,,,,,,,,,,,,,,,,,,,
0,12,12,54,1,,611d70b44274c0040dc5dd0f,62bbfa7f72d3464813959fdd,2022-06-29_09h09.23.204,Colour_Asymmetry_Pilot,2022.1.3,Win32,30.01380635,62bbe60bf3d75ef465d3e404,,,,,,,,,,,,,,,,,,,,,,,,,,,,,,,,,,,,,,,,,,,,,,,,,,,,,,,,,,,,,,,,,,,,,,,,,,,,,,,,,,,,,,,,,,,,,,,,,,,,,,,,,,,,,,,,,,,,,,,,,,,,,,,,,,,,,,,,,,,,,,,,,,,,,,,,,,,,,,
0,13,13,67,1,,611d70b44274c0040dc5dd0f,62bbfa7f72d3464813959fdd,2022-06-29_09h09.23.204,Colour_Asymmetry_Pilot,2022.1.3,Win32,30.01380635,62bbe60bf3d75ef465d3e404,,,,,,,,,,,,,,,,,,,,,,,,,,,,,,,,,,,,,,,,,,,,,,,,,,,,,,,,,,,,,,,,,,,,,,,,,,,,,,,,,,,,,,,,,,,,,,,,,,,,,,,,,,,,,,,,,,,,,,,,,,,,,,,,,,,,,,,,,,,,,,,,,,,,,,,,,,,,,,
0,14,14,26,1,,611d70b44274c0040dc5dd0f,62bbfa7f72d3464813959fdd,2022-06-29_09h09.23.204,Colour_Asymmetry_Pilot,2022.1.3,Win32,30.01380635,62bbe60bf3d75ef465d3e404,,,,,,,,,,,,,,,,,,,,,,,,,,,,,,,,,,,,,,,,,,,,,,,,,,,,,,,,,,,,,,,,,,,,,,,,,,,,,,,,,,,,,,,,,,,,,,,,,,,,,,,,,,,,,,,,,,,,,,,,,,,,,,,,,,,,,,,,,,,,,,,,,,,,,,,,,,,,,,
0,15,15,61,1,,611d70b44274c0040dc5dd0f,62bbfa7f72d3464813959fdd,2022-06-29_09h09.23.204,Colour_Asymmetry_Pilot,2022.1.3,Win32,30.01380635,62bbe60bf3d75ef465d3e404,,,,,,,,,,,,,,,,,,,,,,,,,,,,,,,,,,,,,,,,,,,,,,,,,,,,,,,,,,,,,,,,,,,,,,,,,,,,,,,,,,,,,,,,,,,,,,,,,,,,,,,,,,,,,,,,,,,,,,,,,,,,,,,,,,,,,,,,,,,,,,,,,,,,,,,,,,,,,,
0,16,16,11,1,,611d70b44274c0040dc5dd0f,62bbfa7f72d3464813959fdd,2022-06-29_09h09.23.204,Colour_Asymmetry_Pilot,2022.1.3,Win32,30.01380635,62bbe60bf3d75ef465d3e404,,,,,,,,,,,,,,,,,,,,,,,,,,,,,,,,,,,,,,,,,,,,,,,,,,,,,,,,,,,,,,,,,,,,,,,,,,,,,,,,,,,,,,,,,,,,,,,,,,,,,,,,,,,,,,,,,,,,,,,,,,,,,,,,,,,,,,,,,,,,,,,,,,,,,,,,,,,,,,
0,17,17,29,1,,611d70b44274c0040dc5dd0f,62bbfa7f72d3464813959fdd,2022-06-29_09h09.23.204,Colour_Asymmetry_Pilot,2022.1.3,Win32,30.01380635,62bbe60bf3d75ef465d3e404,,,,,,,,,,,,,,,,,,,,,,,,,,,,,,,,,,,,,,,,,,,,,,,,,,,,,,,,,,,,,,,,,,,,,,,,,,,,,,,,,,,,,,,,,,,,,,,,,,,,,,,,,,,,,,,,,,,,,,,,,,,,,,,,,,,,,,,,,,,,,,,,,,,,,,,,,,,,,,
0,18,18,47,1,,611d70b44274c0040dc5dd0f,62bbfa7f72d3464813959fdd,2022-06-29_09h09.23.204,Colour_Asymmetry_Pilot,2022.1.3,Win32,30.01380635,62bbe60bf3d75ef465d3e404,,,,,,,,,,,,,,,,,,,,,,,,,,,,,,,,,,,,,,,,,,,,,,,,,,,,,,,,,,,,,,,,,,,,,,,,,,,,,,,,,,,,,,,,,,,,,,,,,,,,,,,,,,,,,,,,,,,,,,,,,,,,,,,,,,,,,,,,,,,,,,,,,,,,,,,,,,,,,,
0,19,19,68,1,,611d70b44274c0040dc5dd0f,62bbfa7f72d3464813959fdd,2022-06-29_09h09.23.204,Colour_Asymmetry_Pilot,2022.1.3,Win32,30.01380635,62bbe60bf3d75ef465d3e404,,,,,,,,,,,,,,,,,,,,,,,,,,,,,,,,,,,,,,,,,,,,,,,,,,,,,,,,,,,,,,,,,,,,,,,,,,,,,,,,,,,,,,,,,,,,,,,,,,,,,,,,,,,,,,,,,,,,,,,,,,,,,,,,,,,,,,,,,,,,,,,,,,,,,,,,,,,,,,
0,20,20,71,1,,611d70b44274c0040dc5dd0f,62bbfa7f72d3464813959fdd,2022-06-29_09h09.23.204,Colour_Asymmetry_Pilot,2022.1.3,Win32,30.01380635,62bbe60bf3d75ef465d3e404,,,,,,,,,,,,,,,,,,,,,,,,,,,,,,,,,,,,,,,,,,,,,,,,,,,,,,,,,,,,,,,,,,,,,,,,,,,,,,,,,,,,,,,,,,,,,,,,,,,,,,,,,,,,,,,,,,,,,,,,,,,,,,,,,,,,,,,,,,,,,,,,,,,,,,,,,,,,,,
0,21,21,19,1,,611d70b44274c0040dc5dd0f,62bbfa7f72d3464813959fdd,2022-06-29_09h09.23.204,Colour_Asymmetry_Pilot,2022.1.3,Win32,30.01380635,62bbe60bf3d75ef465d3e404,,,,,,,,,,,,,,,,,,,,,,,,,,,,,,,,,,,,,,,,,,,,,,,,,,,,,,,,,,,,,,,,,,,,,,,,,,,,,,,,,,,,,,,,,,,,,,,,,,,,,,,,,,,,,,,,,,,,,,,,,,,,,,,,,,,,,,,,,,,,,,,,,,,,,,,,,,,,,,
0,22,22,49,1,,611d70b44274c0040dc5dd0f,62bbfa7f72d3464813959fdd,2022-06-29_09h09.23.204,Colour_Asymmetry_Pilot,2022.1.3,Win32,30.01380635,62bbe60bf3d75ef465d3e404,,,,,,,,,,,,,,,,,,,,,,,,,,,,,,,,,,,,,,,,,,,,,,,,,,,,,,,,,,,,,,,,,,,,,,,,,,,,,,,,,,,,,,,,,,,,,,,,,,,,,,,,,,,,,,,,,,,,,,,,,,,,,,,,,,,,,,,,,,,,,,,,,,,,,,,,,,,,,,
0,23,23,55,1,,611d70b44274c0040dc5dd0f,62bbfa7f72d3464813959fdd,2022-06-29_09h09.23.204,Colour_Asymmetry_Pilot,2022.1.3,Win32,30.01380635,62bbe60bf3d75ef465d3e404,,,,,,,,,,,,,,,,,,,,,,,,,,,,,,,,,,,,,,,,,,,,,,,,,,,,,,,,,,,,,,,,,,,,,,,,,,,,,,,,,,,,,,,,,,,,,,,,,,,,,,,,,,,,,,,,,,,,,,,,,,,,,,,,,,,,,,,,,,,,,,,,,,,,,,,,,,,,,,
0,24,24,76,1,,611d70b44274c0040dc5dd0f,62bbfa7f72d3464813959fdd,2022-06-29_09h09.23.204,Colour_Asymmetry_Pilot,2022.1.3,Win32,30.01380635,62bbe60bf3d75ef465d3e404,,,,,,,,,,,,,,,,,,,,,,,,,,,,,,,,,,,,,,,,,,,,,,,,,,,,,,,,,,,,,,,,,,,,,,,,,,,,,,,,,,,,,,,,,,,,,,,,,,,,,,,,,,,,,,,,,,,,,,,,,,,,,,,,,,,,,,,,,,,,,,,,,,,,,,,,,,,,,,
0,25,25,66,1,,611d70b44274c0040dc5dd0f,62bbfa7f72d3464813959fdd,2022-06-29_09h09.23.204,Colour_Asymmetry_Pilot,2022.1.3,Win32,30.01380635,62bbe60bf3d75ef465d3e404,,,,,,,,,,,,,,,,,,,,,,,,,,,,,,,,,,,,,,,,,,,,,,,,,,,,,,,,,,,,,,,,,,,,,,,,,,,,,,,,,,,,,,,,,,,,,,,,,,,,,,,,,,,,,,,,,,,,,,,,,,,,,,,,,,,,,,,,,,,,,,,,,,,,,,,,,,,,,,
0,26,26,9,1,,611d70b44274c0040dc5dd0f,62bbfa7f72d3464813959fdd,2022-06-29_09h09.23.204,Colour_Asymmetry_Pilot,2022.1.3,Win32,30.01380635,62bbe60bf3d75ef465d3e404,,,,,,,,,,,,,,,,,,,,,,,,,,,,,,,,,,,,,,,,,,,,,,,,,,,,,,,,,,,,,,,,,,,,,,,,,,,,,,,,,,,,,,,,,,,,,,,,,,,,,,,,,,,,,,,,,,,,,,,,,,,,,,,,,,,,,,,,,,,,,,,,,,,,,,,,,,,,,,
0,27,27,31,1,,611d70b44274c0040dc5dd0f,62bbfa7f72d3464813959fdd,2022-06-29_09h09.23.204,Colour_Asymmetry_Pilot,2022.1.3,Win32,30.01380635,62bbe60bf3d75ef465d3e404,,,,,,,,,,,,,,,,,,,,,,,,,,,,,,,,,,,,,,,,,,,,,,,,,,,,,,,,,,,,,,,,,,,,,,,,,,,,,,,,,,,,,,,,,,,,,,,,,,,,,,,,,,,,,,,,,,,,,,,,,,,,,,,,,,,,,,,,,,,,,,,,,,,,,,,,,,,,,,
0,28,28,59,1,,611d70b44274c0040dc5dd0f,62bbfa7f72d3464813959fdd,2022-06-29_09h09.23.204,Colour_Asymmetry_Pilot,2022.1.3,Win32,30.01380635,62bbe60bf3d75ef465d3e404,,,,,,,,,,,,,,,,,,,,,,,,,,,,,,,,,,,,,,,,,,,,,,,,,,,,,,,,,,,,,,,,,,,,,,,,,,,,,,,,,,,,,,,,,,,,,,,,,,,,,,,,,,,,,,,,,,,,,,,,,,,,,,,,,,,,,,,,,,,,,,,,,,,,,,,,,,,,,,
0,29,29,10,1,,611d70b44274c0040dc5dd0f,62bbfa7f72d3464813959fdd,2022-06-29_09h09.23.204,Colour_Asymmetry_Pilot,2022.1.3,Win32,30.01380635,62bbe60bf3d75ef465d3e404,,,,,,,,,,,,,,,,,,,,,,,,,,,,,,,,,,,,,,,,,,,,,,,,,,,,,,,,,,,,,,,,,,,,,,,,,,,,,,,,,,,,,,,,,,,,,,,,,,,,,,,,,,,,,,,,,,,,,,,,,,,,,,,,,,,,,,,,,,,,,,,,,,,,,,,,,,,,,,
0,30,30,56,1,,611d70b44274c0040dc5dd0f,62bbfa7f72d3464813959fdd,2022-06-29_09h09.23.204,Colour_Asymmetry_Pilot,2022.1.3,Win32,30.01380635,62bbe60bf3d75ef465d3e404,,,,,,,,,,,,,,,,,,,,,,,,,,,,,,,,,,,,,,,,,,,,,,,,,,,,,,,,,,,,,,,,,,,,,,,,,,,,,,,,,,,,,,,,,,,,,,,,,,,,,,,,,,,,,,,,,,,,,,,,,,,,,,,,,,,,,,,,,,,,,,,,,,,,,,,,,,,,,,
0,31,31,88,1,,611d70b44274c0040dc5dd0f,62bbfa7f72d3464813959fdd,2022-06-29_09h09.23.204,Colour_Asymmetry_Pilot,2022.1.3,Win32,30.01380635,62bbe60bf3d75ef465d3e404,,,,,,,,,,,,,,,,,,,,,,,,,,,,,,,,,,,,,,,,,,,,,,,,,,,,,,,,,,,,,,,,,,,,,,,,,,,,,,,,,,,,,,,,,,,,,,,,,,,,,,,,,,,,,,,,,,,,,,,,,,,,,,,,,,,,,,,,,,,,,,,,,,,,,,,,,,,,,,
0,32,32,63,1,,611d70b44274c0040dc5dd0f,62bbfa7f72d3464813959fdd,2022-06-29_09h09.23.204,Colour_Asymmetry_Pilot,2022.1.3,Win32,30.01380635,62bbe60bf3d75ef465d3e404,,,,,,,,,,,,,,,,,,,,,,,,,,,,,,,,,,,,,,,,,,,,,,,,,,,,,,,,,,,,,,,,,,,,,,,,,,,,,,,,,,,,,,,,,,,,,,,,,,,,,,,,,,,,,,,,,,,,,,,,,,,,,,,,,,,,,,,,,,,,,,,,,,,,,,,,,,,,,,
0,33,33,5,1,,611d70b44274c0040dc5dd0f,62bbfa7f72d3464813959fdd,2022-06-29_09h09.23.204,Colour_Asymmetry_Pilot,2022.1.3,Win32,30.01380635,62bbe60bf3d75ef465d3e404,,,,,,,,,,,,,,,,,,,,,,,,,,,,,,,,,,,,,,,,,,,,,,,,,,,,,,,,,,,,,,,,,,,,,,,,,,,,,,,,,,,,,,,,,,,,,,,,,,,,,,,,,,,,,,,,,,,,,,,,,,,,,,,,,,,,,,,,,,,,,,,,,,,,,,,,,,,,,,
0,34,34,6,1,,611d70b44274c0040dc5dd0f,62bbfa7f72d3464813959fdd,2022-06-29_09h09.23.204,Colour_Asymmetry_Pilot,2022.1.3,Win32,30.01380635,62bbe60bf3d75ef465d3e404,,,,,,,,,,,,,,,,,,,,,,,,,,,,,,,,,,,,,,,,,,,,,,,,,,,,,,,,,,,,,,,,,,,,,,,,,,,,,,,,,,,,,,,,,,,,,,,,,,,,,,,,,,,,,,,,,,,,,,,,,,,,,,,,,,,,,,,,,,,,,,,,,,,,,,,,,,,,,,
0,35,35,21,1,,611d70b44274c0040dc5dd0f,62bbfa7f72d3464813959fdd,2022-06-29_09h09.23.204,Colour_Asymmetry_Pilot,2022.1.3,Win32,30.01380635,62bbe60bf3d75ef465d3e404,,,,,,,,,,,,,,,,,,,,,,,,,,,,,,,,,,,,,,,,,,,,,,,,,,,,,,,,,,,,,,,,,,,,,,,,,,,,,,,,,,,,,,,,,,,,,,,,,,,,,,,,,,,,,,,,,,,,,,,,,,,,,,,,,,,,,,,,,,,,,,,,,,,,,,,,,,,,,,
0,36,36,45,1,,611d70b44274c0040dc5dd0f,62bbfa7f72d3464813959fdd,2022-06-29_09h09.23.204,Colour_Asymmetry_Pilot,2022.1.3,Win32,30.01380635,62bbe60bf3d75ef465d3e404,,,,,,,,,,,,,,,,,,,,,,,,,,,,,,,,,,,,,,,,,,,,,,,,,,,,,,,,,,,,,,,,,,,,,,,,,,,,,,,,,,,,,,,,,,,,,,,,,,,,,,,,,,,,,,,,,,,,,,,,,,,,,,,,,,,,,,,,,,,,,,,,,,,,,,,,,,,,,,
0,37,37,46,1,,611d70b44274c0040dc5dd0f,62bbfa7f72d3464813959fdd,2022-06-29_09h09.23.204,Colour_Asymmetry_Pilot,2022.1.3,Win32,30.01380635,62bbe60bf3d75ef465d3e404,,,,,,,,,,,,,,,,,,,,,,,,,,,,,,,,,,,,,,,,,,,,,,,,,,,,,,,,,,,,,,,,,,,,,,,,,,,,,,,,,,,,,,,,,,,,,,,,,,,,,,,,,,,,,,,,,,,,,,,,,,,,,,,,,,,,,,,,,,,,,,,,,,,,,,,,,,,,,,
0,38,38,16,1,,611d70b44274c0040dc5dd0f,62bbfa7f72d3464813959fdd,2022-06-29_09h09.23.204,Colour_Asymmetry_Pilot,2022.1.3,Win32,30.01380635,62bbe60bf3d75ef465d3e404,,,,,,,,,,,,,,,,,,,,,,,,,,,,,,,,,,,,,,,,,,,,,,,,,,,,,,,,,,,,,,,,,,,,,,,,,,,,,,,,,,,,,,,,,,,,,,,,,,,,,,,,,,,,,,,,,,,,,,,,,,,,,,,,,,,,,,,,,,,,,,,,,,,,,,,,,,,,,,
0,39,39,30,1,,611d70b44274c0040dc5dd0f,62bbfa7f72d3464813959fdd,2022-06-29_09h09.23.204,Colour_Asymmetry_Pilot,2022.1.3,Win32,30.01380635,62bbe60bf3d75ef465d3e404,,,,,,,,,,,,,,,,,,,,,,,,,,,,,,,,,,,,,,,,,,,,,,,,,,,,,,,,,,,,,,,,,,,,,,,,,,,,,,,,,,,,,,,,,,,,,,,,,,,,,,,,,,,,,,,,,,,,,,,,,,,,,,,,,,,,,,,,,,,,,,,,,,,,,,,,,,,,,,
0,40,40,72,1,,611d70b44274c0040dc5dd0f,62bbfa7f72d3464813959fdd,2022-06-29_09h09.23.204,Colour_Asymmetry_Pilot,2022.1.3,Win32,30.01380635,62bbe60bf3d75ef465d3e404,,,,,,,,,,,,,,,,,,,,,,,,,,,,,,,,,,,,,,,,,,,,,,,,,,,,,,,,,,,,,,,,,,,,,,,,,,,,,,,,,,,,,,,,,,,,,,,,,,,,,,,,,,,,,,,,,,,,,,,,,,,,,,,,,,,,,,,,,,,,,,,,,,,,,,,,,,,,,,
0,41,41,44,1,,611d70b44274c0040dc5dd0f,62bbfa7f72d3464813959fdd,2022-06-29_09h09.23.204,Colour_Asymmetry_Pilot,2022.1.3,Win32,30.01380635,62bbe60bf3d75ef465d3e404,,,,,,,,,,,,,,,,,,,,,,,,,,,,,,,,,,,,,,,,,,,,,,,,,,,,,,,,,,,,,,,,,,,,,,,,,,,,,,,,,,,,,,,,,,,,,,,,,,,,,,,,,,,,,,,,,,,,,,,,,,,,,,,,,,,,,,,,,,,,,,,,,,,,,,,,,,,,,,
0,42,42,13,1,,611d70b44274c0040dc5dd0f,62bbfa7f72d3464813959fdd,2022-06-29_09h09.23.204,Colour_Asymmetry_Pilot,2022.1.3,Win32,30.01380635,62bbe60bf3d75ef465d3e404,,,,,,,,,,,,,,,,,,,,,,,,,,,,,,,,,,,,,,,,,,,,,,,,,,,,,,,,,,,,,,,,,,,,,,,,,,,,,,,,,,,,,,,,,,,,,,,,,,,,,,,,,,,,,,,,,,,,,,,,,,,,,,,,,,,,,,,,,,,,,,,,,,,,,,,,,,,,,,
0,43,43,65,1,,611d70b44274c0040dc5dd0f,62bbfa7f72d3464813959fdd,2022-06-29_09h09.23.204,Colour_Asymmetry_Pilot,2022.1.3,Win32,30.01380635,62bbe60bf3d75ef465d3e404,,,,,,,,,,,,,,,,,,,,,,,,,,,,,,,,,,,,,,,,,,,,,,,,,,,,,,,,,,,,,,,,,,,,,,,,,,,,,,,,,,,,,,,,,,,,,,,,,,,,,,,,,,,,,,,,,,,,,,,,,,,,,,,,,,,,,,,,,,,,,,,,,,,,,,,,,,,,,,
0,44,44,64,1,,611d70b44274c0040dc5dd0f,62bbfa7f72d3464813959fdd,2022-06-29_09h09.23.204,Colour_Asymmetry_Pilot,2022.1.3,Win32,30.01380635,62bbe60bf3d75ef465d3e404,,,,,,,,,,,,,,,,,,,,,,,,,,,,,,,,,,,,,,,,,,,,,,,,,,,,,,,,,,,,,,,,,,,,,,,,,,,,,,,,,,,,,,,,,,,,,,,,,,,,,,,,,,,,,,,,,,,,,,,,,,,,,,,,,,,,,,,,,,,,,,,,,,,,,,,,,,,,,,
0,45,45,73,1,,611d70b44274c0040dc5dd0f,62bbfa7f72d3464813959fdd,2022-06-29_09h09.23.204,Colour_Asymmetry_Pilot,2022.1.3,Win32,30.01380635,62bbe60bf3d75ef465d3e404,,,,,,,,,,,,,,,,,,,,,,,,,,,,,,,,,,,,,,,,,,,,,,,,,,,,,,,,,,,,,,,,,,,,,,,,,,,,,,,,,,,,,,,,,,,,,,,,,,,,,,,,,,,,,,,,,,,,,,,,,,,,,,,,,,,,,,,,,,,,,,,,,,,,,,,,,,,,,,
0,46,46,43,1,,611d70b44274c0040dc5dd0f,62bbfa7f72d3464813959fdd,2022-06-29_09h09.23.204,Colour_Asymmetry_Pilot,2022.1.3,Win32,30.01380635,62bbe60bf3d75ef465d3e404,,,,,,,,,,,,,,,,,,,,,,,,,,,,,,,,,,,,,,,,,,,,,,,,,,,,,,,,,,,,,,,,,,,,,,,,,,,,,,,,,,,,,,,,,,,,,,,,,,,,,,,,,,,,,,,,,,,,,,,,,,,,,,,,,,,,,,,,,,,,,,,,,,,,,,,,,,,,,,
0,47,47,14,1,,611d70b44274c0040dc5dd0f,62bbfa7f72d3464813959fdd,2022-06-29_09h09.23.204,Colour_Asymmetry_Pilot,2022.1.3,Win32,30.01380635,62bbe60bf3d75ef465d3e404,,,,,,,,,,,,,,,,,,,,,,,,,,,,,,,,,,,,,,,,,,,,,,,,,,,,,,,,,,,,,,,,,,,,,,,,,,,,,,,,,,,,,,,,,,,,,,,,,,,,,,,,,,,,,,,,,,,,,,,,,,,,,,,,,,,,,,,,,,,,,,,,,,,,,,,,,,,,,,
0,48,48,25,1,,611d70b44274c0040dc5dd0f,62bbfa7f72d3464813959fdd,2022-06-29_09h09.23.204,Colour_Asymmetry_Pilot,2022.1.3,Win32,30.01380635,62bbe60bf3d75ef465d3e404,,,,,,,,,,,,,,,,,,,,,,,,,,,,,,,,,,,,,,,,,,,,,,,,,,,,,,,,,,,,,,,,,,,,,,,,,,,,,,,,,,,,,,,,,,,,,,,,,,,,,,,,,,,,,,,,,,,,,,,,,,,,,,,,,,,,,,,,,,,,,,,,,,,,,,,,,,,,,,
0,49,49,23,1,,611d70b44274c0040dc5dd0f,62bbfa7f72d3464813959fdd,2022-06-29_09h09.23.204,Colour_Asymmetry_Pilot,2022.1.3,Win32,30.01380635,62bbe60bf3d75ef465d3e404,,,,,,,,,,,,,,,,,,,,,,,,,,,,,,,,,,,,,,,,,,,,,,,,,,,,,,,,,,,,,,,,,,,,,,,,,,,,,,,,,,,,,,,,,,,,,,,,,,,,,,,,,,,,,,,,,,,,,,,,,,,,,,,,,,,,,,,,,,,,,,,,,,,,,,,,,,,,,,
0,50,50,0,1,,611d70b44274c0040dc5dd0f,62bbfa7f72d3464813959fdd,2022-06-29_09h09.23.204,Colour_Asymmetry_Pilot,2022.1.3,Win32,30.01380635,62bbe60bf3d75ef465d3e404,,,,,,,,,,,,,,,,,,,,,,,,,,,,,,,,,,,,,,,,,,,,,,,,,,,,,,,,,,,,,,,,,,,,,,,,,,,,,,,,,,,,,,,,,,,,,,,,,,,,,,,,,,,,,,,,,,,,,,,,,,,,,,,,,,,,,,,,,,,,,,,,,,,,,,,,,,,,,,
0,51,51,27,1,,611d70b44274c0040dc5dd0f,62bbfa7f72d3464813959fdd,2022-06-29_09h09.23.204,Colour_Asymmetry_Pilot,2022.1.3,Win32,30.01380635,62bbe60bf3d75ef465d3e404,,,,,,,,,,,,,,,,,,,,,,,,,,,,,,,,,,,,,,,,,,,,,,,,,,,,,,,,,,,,,,,,,,,,,,,,,,,,,,,,,,,,,,,,,,,,,,,,,,,,,,,,,,,,,,,,,,,,,,,,,,,,,,,,,,,,,,,,,,,,,,,,,,,,,,,,,,,,,,
0,52,52,15,1,,611d70b44274c0040dc5dd0f,62bbfa7f72d3464813959fdd,2022-06-29_09h09.23.204,Colour_Asymmetry_Pilot,2022.1.3,Win32,30.01380635,62bbe60bf3d75ef465d3e404,,,,,,,,,,,,,,,,,,,,,,,,,,,,,,,,,,,,,,,,,,,,,,,,,,,,,,,,,,,,,,,,,,,,,,,,,,,,,,,,,,,,,,,,,,,,,,,,,,,,,,,,,,,,,,,,,,,,,,,,,,,,,,,,,,,,,,,,,,,,,,,,,,,,,,,,,,,,,,
0,53,53,75,1,,611d70b44274c0040dc5dd0f,62bbfa7f72d3464813959fdd,2022-06-29_09h09.23.204,Colour_Asymmetry_Pilot,2022.1.3,Win32,30.01380635,62bbe60bf3d75ef465d3e404,,,,,,,,,,,,,,,,,,,,,,,,,,,,,,,,,,,,,,,,,,,,,,,,,,,,,,,,,,,,,,,,,,,,,,,,,,,,,,,,,,,,,,,,,,,,,,,,,,,,,,,,,,,,,,,,,,,,,,,,,,,,,,,,,,,,,,,,,,,,,,,,,,,,,,,,,,,,,,
0,54,54,50,1,,611d70b44274c0040dc5dd0f,62bbfa7f72d3464813959fdd,2022-06-29_09h09.23.204,Colour_Asymmetry_Pilot,2022.1.3,Win32,30.01380635,62bbe60bf3d75ef465d3e404,,,,,,,,,,,,,,,,,,,,,,,,,,,,,,,,,,,,,,,,,,,,,,,,,,,,,,,,,,,,,,,,,,,,,,,,,,,,,,,,,,,,,,,,,,,,,,,,,,,,,,,,,,,,,,,,,,,,,,,,,,,,,,,,,,,,,,,,,,,,,,,,,,,,,,,,,,,,,,
0,55,55,74,1,,611d70b44274c0040dc5dd0f,62bbfa7f72d3464813959fdd,2022-06-29_09h09.23.204,Colour_Asymmetry_Pilot,2022.1.3,Win32,30.01380635,62bbe60bf3d75ef465d3e404,,,,,,,,,,,,,,,,,,,,,,,,,,,,,,,,,,,,,,,,,,,,,,,,,,,,,,,,,,,,,,,,,,,,,,,,,,,,,,,,,,,,,,,,,,,,,,,,,,,,,,,,,,,,,,,,,,,,,,,,,,,,,,,,,,,,,,,,,,,,,,,,,,,,,,,,,,,,,,
0,56,56,77,1,,611d70b44274c0040dc5dd0f,62bbfa7f72d3464813959fdd,2022-06-29_09h09.23.204,Colour_Asymmetry_Pilot,2022.1.3,Win32,30.01380635,62bbe60bf3d75ef465d3e404,,,,,,,,,,,,,,,,,,,,,,,,,,,,,,,,,,,,,,,,,,,,,,,,,,,,,,,,,,,,,,,,,,,,,,,,,,,,,,,,,,,,,,,,,,,,,,,,,,,,,,,,,,,,,,,,,,,,,,,,,,,,,,,,,,,,,,,,,,,,,,,,,,,,,,,,,,,,,,
0,57,57,90,1,,611d70b44274c0040dc5dd0f,62bbfa7f72d3464813959fdd,2022-06-29_09h09.23.204,Colour_Asymmetry_Pilot,2022.1.3,Win32,30.01380635,62bbe60bf3d75ef465d3e404,,,,,,,,,,,,,,,,,,,,,,,,,,,,,,,,,,,,,,,,,,,,,,,,,,,,,,,,,,,,,,,,,,,,,,,,,,,,,,,,,,,,,,,,,,,,,,,,,,,,,,,,,,,,,,,,,,,,,,,,,,,,,,,,,,,,,,,,,,,,,,,,,,,,,,,,,,,,,,
0,58,58,48,1,,611d70b44274c0040dc5dd0f,62bbfa7f72d3464813959fdd,2022-06-29_09h09.23.204,Colour_Asymmetry_Pilot,2022.1.3,Win32,30.01380635,62bbe60bf3d75ef465d3e404,,,,,,,,,,,,,,,,,,,,,,,,,,,,,,,,,,,,,,,,,,,,,,,,,,,,,,,,,,,,,,,,,,,,,,,,,,,,,,,,,,,,,,,,,,,,,,,,,,,,,,,,,,,,,,,,,,,,,,,,,,,,,,,,,,,,,,,,,,,,,,,,,,,,,,,,,,,,,,
0,59,59,82,1,,611d70b44274c0040dc5dd0f,62bbfa7f72d3464813959fdd,2022-06-29_09h09.23.204,Colour_Asymmetry_Pilot,2022.1.3,Win32,30.01380635,62bbe60bf3d75ef465d3e404,,,,,,,,,,,,,,,,,,,,,,,,,,,,,,,,,,,,,,,,,,,,,,,,,,,,,,,,,,,,,,,,,,,,,,,,,,,,,,,,,,,,,,,,,,,,,,,,,,,,,,,,,,,,,,,,,,,,,,,,,,,,,,,,,,,,,,,,,,,,,,,,,,,,,,,,,,,,,,
0,60,60,58,1,,611d70b44274c0040dc5dd0f,62bbfa7f72d3464813959fdd,2022-06-29_09h09.23.204,Colour_Asymmetry_Pilot,2022.1.3,Win32,30.01380635,62bbe60bf3d75ef465d3e404,,,,,,,,,,,,,,,,,,,,,,,,,,,,,,,,,,,,,,,,,,,,,,,,,,,,,,,,,,,,,,,,,,,,,,,,,,,,,,,,,,,,,,,,,,,,,,,,,,,,,,,,,,,,,,,,,,,,,,,,,,,,,,,,,,,,,,,,,,,,,,,,,,,,,,,,,,,,,,
0,61,61,20,1,,611d70b44274c0040dc5dd0f,62bbfa7f72d3464813959fdd,2022-06-29_09h09.23.204,Colour_Asymmetry_Pilot,2022.1.3,Win32,30.01380635,62bbe60bf3d75ef465d3e404,,,,,,,,,,,,,,,,,,,,,,,,,,,,,,,,,,,,,,,,,,,,,,,,,,,,,,,,,,,,,,,,,,,,,,,,,,,,,,,,,,,,,,,,,,,,,,,,,,,,,,,,,,,,,,,,,,,,,,,,,,,,,,,,,,,,,,,,,,,,,,,,,,,,,,,,,,,,,,
0,62,62,18,1,,611d70b44274c0040dc5dd0f,62bbfa7f72d3464813959fdd,2022-06-29_09h09.23.204,Colour_Asymmetry_Pilot,2022.1.3,Win32,30.01380635,62bbe60bf3d75ef465d3e404,,,,,,,,,,,,,,,,,,,,,,,,,,,,,,,,,,,,,,,,,,,,,,,,,,,,,,,,,,,,,,,,,,,,,,,,,,,,,,,,,,,,,,,,,,,,,,,,,,,,,,,,,,,,,,,,,,,,,,,,,,,,,,,,,,,,,,,,,,,,,,,,,,,,,,,,,,,,,,
0,63,63,69,1,,611d70b44274c0040dc5dd0f,62bbfa7f72d3464813959fdd,2022-06-29_09h09.23.204,Colour_Asymmetry_Pilot,2022.1.3,Win32,30.01380635,62bbe60bf3d75ef465d3e404,,,,,,,,,,,,,,,,,,,,,,,,,,,,,,,,,,,,,,,,,,,,,,,,,,,,,,,,,,,,,,,,,,,,,,,,,,,,,,,,,,,,,,,,,,,,,,,,,,,,,,,,,,,,,,,,,,,,,,,,,,,,,,,,,,,,,,,,,,,,,,,,,,,,,,,,,,,,,,
0,64,64,79,1,,611d70b44274c0040dc5dd0f,62bbfa7f72d3464813959fdd,2022-06-29_09h09.23.204,Colour_Asymmetry_Pilot,2022.1.3,Win32,30.01380635,62bbe60bf3d75ef465d3e404,,,,,,,,,,,,,,,,,,,,,,,,,,,,,,,,,,,,,,,,,,,,,,,,,,,,,,,,,,,,,,,,,,,,,,,,,,,,,,,,,,,,,,,,,,,,,,,,,,,,,,,,,,,,,,,,,,,,,,,,,,,,,,,,,,,,,,,,,,,,,,,,,,,,,,,,,,,,,,
0,65,65,33,1,,611d70b44274c0040dc5dd0f,62bbfa7f72d3464813959fdd,2022-06-29_09h09.23.204,Colour_Asymmetry_Pilot,2022.1.3,Win32,30.01380635,62bbe60bf3d75ef465d3e404,,,,,,,,,,,,,,,,,,,,,,,,,,,,,,,,,,,,,,,,,,,,,,,,,,,,,,,,,,,,,,,,,,,,,,,,,,,,,,,,,,,,,,,,,,,,,,,,,,,,,,,,,,,,,,,,,,,,,,,,,,,,,,,,,,,,,,,,,,,,,,,,,,,,,,,,,,,,,,
0,66,66,28,1,,611d70b44274c0040dc5dd0f,62bbfa7f72d3464813959fdd,2022-06-29_09h09.23.204,Colour_Asymmetry_Pilot,2022.1.3,Win32,30.01380635,62bbe60bf3d75ef465d3e404,,,,,,,,,,,,,,,,,,,,,,,,,,,,,,,,,,,,,,,,,,,,,,,,,,,,,,,,,,,,,,,,,,,,,,,,,,,,,,,,,,,,,,,,,,,,,,,,,,,,,,,,,,,,,,,,,,,,,,,,,,,,,,,,,,,,,,,,,,,,,,,,,,,,,,,,,,,,,,
0,67,67,52,1,,611d70b44274c0040dc5dd0f,62bbfa7f72d3464813959fdd,2022-06-29_09h09.23.204,Colour_Asymmetry_Pilot,2022.1.3,Win32,30.01380635,62bbe60bf3d75ef465d3e404,,,,,,,,,,,,,,,,,,,,,,,,,,,,,,,,,,,,,,,,,,,,,,,,,,,,,,,,,,,,,,,,,,,,,,,,,,,,,,,,,,,,,,,,,,,,,,,,,,,,,,,,,,,,,,,,,,,,,,,,,,,,,,,,,,,,,,,,,,,,,,,,,,,,,,,,,,,,,,
0,68,68,87,1,,611d70b44274c0040dc5dd0f,62bbfa7f72d3464813959fdd,2022-06-29_09h09.23.204,Colour_Asymmetry_Pilot,2022.1.3,Win32,30.01380635,62bbe60bf3d75ef465d3e404,,,,,,,,,,,,,,,,,,,,,,,,,,,,,,,,,,,,,,,,,,,,,,,,,,,,,,,,,,,,,,,,,,,,,,,,,,,,,,,,,,,,,,,,,,,,,,,,,,,,,,,,,,,,,,,,,,,,,,,,,,,,,,,,,,,,,,,,,,,,,,,,,,,,,,,,,,,,,,
0,69,69,60,1,,611d70b44274c0040dc5dd0f,62bbfa7f72d3464813959fdd,2022-06-29_09h09.23.204,Colour_Asymmetry_Pilot,2022.1.3,Win32,30.01380635,62bbe60bf3d75ef465d3e404,,,,,,,,,,,,,,,,,,,,,,,,,,,,,,,,,,,,,,,,,,,,,,,,,,,,,,,,,,,,,,,,,,,,,,,,,,,,,,,,,,,,,,,,,,,,,,,,,,,,,,,,,,,,,,,,,,,,,,,,,,,,,,,,,,,,,,,,,,,,,,,,,,,,,,,,,,,,,,
0,70,70,4,1,,611d70b44274c0040dc5dd0f,62bbfa7f72d3464813959fdd,2022-06-29_09h09.23.204,Colour_Asymmetry_Pilot,2022.1.3,Win32,30.01380635,62bbe60bf3d75ef465d3e404,,,,,,,,,,,,,,,,,,,,,,,,,,,,,,,,,,,,,,,,,,,,,,,,,,,,,,,,,,,,,,,,,,,,,,,,,,,,,,,,,,,,,,,,,,,,,,,,,,,,,,,,,,,,,,,,,,,,,,,,,,,,,,,,,,,,,,,,,,,,,,,,,,,,,,,,,,,,,,
0,71,71,42,1,,611d70b44274c0040dc5dd0f,62bbfa7f72d3464813959fdd,2022-06-29_09h09.23.204,Colour_Asymmetry_Pilot,2022.1.3,Win32,30.01380635,62bbe60bf3d75ef465d3e404,,,,,,,,,,,,,,,,,,,,,,,,,,,,,,,,,,,,,,,,,,,,,,,,,,,,,,,,,,,,,,,,,,,,,,,,,,,,,,,,,,,,,,,,,,,,,,,,,,,,,,,,,,,,,,,,,,,,,,,,,,,,,,,,,,,,,,,,,,,,,,,,,,,,,,,,,,,,,,
0,72,72,51,1,,611d70b44274c0040dc5dd0f,62bbfa7f72d3464813959fdd,2022-06-29_09h09.23.204,Colour_Asymmetry_Pilot,2022.1.3,Win32,30.01380635,62bbe60bf3d75ef465d3e404,,,,,,,,,,,,,,,,,,,,,,,,,,,,,,,,,,,,,,,,,,,,,,,,,,,,,,,,,,,,,,,,,,,,,,,,,,,,,,,,,,,,,,,,,,,,,,,,,,,,,,,,,,,,,,,,,,,,,,,,,,,,,,,,,,,,,,,,,,,,,,,,,,,,,,,,,,,,,,
0,73,73,24,1,,611d70b44274c0040dc5dd0f,62bbfa7f72d3464813959fdd,2022-06-29_09h09.23.204,Colour_Asymmetry_Pilot,2022.1.3,Win32,30.01380635,62bbe60bf3d75ef465d3e404,,,,,,,,,,,,,,,,,,,,,,,,,,,,,,,,,,,,,,,,,,,,,,,,,,,,,,,,,,,,,,,,,,,,,,,,,,,,,,,,,,,,,,,,,,,,,,,,,,,,,,,,,,,,,,,,,,,,,,,,,,,,,,,,,,,,,,,,,,,,,,,,,,,,,,,,,,,,,,
0,74,74,53,1,,611d70b44274c0040dc5dd0f,62bbfa7f72d3464813959fdd,2022-06-29_09h09.23.204,Colour_Asymmetry_Pilot,2022.1.3,Win32,30.01380635,62bbe60bf3d75ef465d3e404,,,,,,,,,,,,,,,,,,,,,,,,,,,,,,,,,,,,,,,,,,,,,,,,,,,,,,,,,,,,,,,,,,,,,,,,,,,,,,,,,,,,,,,,,,,,,,,,,,,,,,,,,,,,,,,,,,,,,,,,,,,,,,,,,,,,,,,,,,,,,,,,,,,,,,,,,,,,,,
0,75,75,78,1,,611d70b44274c0040dc5dd0f,62bbfa7f72d3464813959fdd,2022-06-29_09h09.23.204,Colour_Asymmetry_Pilot,2022.1.3,Win32,30.01380635,62bbe60bf3d75ef465d3e404,,,,,,,,,,,,,,,,,,,,,,,,,,,,,,,,,,,,,,,,,,,,,,,,,,,,,,,,,,,,,,,,,,,,,,,,,,,,,,,,,,,,,,,,,,,,,,,,,,,,,,,,,,,,,,,,,,,,,,,,,,,,,,,,,,,,,,,,,,,,,,,,,,,,,,,,,,,,,,
0,76,76,57,1,,611d70b44274c0040dc5dd0f,62bbfa7f72d3464813959fdd,2022-06-29_09h09.23.204,Colour_Asymmetry_Pilot,2022.1.3,Win32,30.01380635,62bbe60bf3d75ef465d3e404,,,,,,,,,,,,,,,,,,,,,,,,,,,,,,,,,,,,,,,,,,,,,,,,,,,,,,,,,,,,,,,,,,,,,,,,,,,,,,,,,,,,,,,,,,,,,,,,,,,,,,,,,,,,,,,,,,,,,,,,,,,,,,,,,,,,,,,,,,,,,,,,,,,,,,,,,,,,,,
0,77,77,92,1,,611d70b44274c0040dc5dd0f,62bbfa7f72d3464813959fdd,2022-06-29_09h09.23.204,Colour_Asymmetry_Pilot,2022.1.3,Win32,30.01380635,62bbe60bf3d75ef465d3e404,,,,,,,,,,,,,,,,,,,,,,,,,,,,,,,,,,,,,,,,,,,,,,,,,,,,,,,,,,,,,,,,,,,,,,,,,,,,,,,,,,,,,,,,,,,,,,,,,,,,,,,,,,,,,,,,,,,,,,,,,,,,,,,,,,,,,,,,,,,,,,,,,,,,,,,,,,,,,,
0,78,78,40,1,,611d70b44274c0040dc5dd0f,62bbfa7f72d3464813959fdd,2022-06-29_09h09.23.204,Colour_Asymmetry_Pilot,2022.1.3,Win32,30.01380635,62bbe60bf3d75ef465d3e404,,,,,,,,,,,,,,,,,,,,,,,,,,,,,,,,,,,,,,,,,,,,,,,,,,,,,,,,,,,,,,,,,,,,,,,,,,,,,,,,,,,,,,,,,,,,,,,,,,,,,,,,,,,,,,,,,,,,,,,,,,,,,,,,,,,,,,,,,,,,,,,,,,,,,,,,,,,,,,
0,79,79,85,1,,611d70b44274c0040dc5dd0f,62bbfa7f72d3464813959fdd,2022-06-29_09h09.23.204,Colour_Asymmetry_Pilot,2022.1.3,Win32,30.01380635,62bbe60bf3d75ef465d3e404,,,,,,,,,,,,,,,,,,,,,,,,,,,,,,,,,,,,,,,,,,,,,,,,,,,,,,,,,,,,,,,,,,,,,,,,,,,,,,,,,,,,,,,,,,,,,,,,,,,,,,,,,,,,,,,,,,,,,,,,,,,,,,,,,,,,,,,,,,,,,,,,,,,,,,,,,,,,,,
0,80,80,8,1,,611d70b44274c0040dc5dd0f,62bbfa7f72d3464813959fdd,2022-06-29_09h09.23.204,Colour_Asymmetry_Pilot,2022.1.3,Win32,30.01380635,62bbe60bf3d75ef465d3e404,,,,,,,,,,,,,,,,,,,,,,,,,,,,,,,,,,,,,,,,,,,,,,,,,,,,,,,,,,,,,,,,,,,,,,,,,,,,,,,,,,,,,,,,,,,,,,,,,,,,,,,,,,,,,,,,,,,,,,,,,,,,,,,,,,,,,,,,,,,,,,,,,,,,,,,,,,,,,,
0,81,81,89,1,,611d70b44274c0040dc5dd0f,62bbfa7f72d3464813959fdd,2022-06-29_09h09.23.204,Colour_Asymmetry_Pilot,2022.1.3,Win32,30.01380635,62bbe60bf3d75ef465d3e404,,,,,,,,,,,,,,,,,,,,,,,,,,,,,,,,,,,,,,,,,,,,,,,,,,,,,,,,,,,,,,,,,,,,,,,,,,,,,,,,,,,,,,,,,,,,,,,,,,,,,,,,,,,,,,,,,,,,,,,,,,,,,,,,,,,,,,,,,,,,,,,,,,,,,,,,,,,,,,
0,82,82,3,1,,611d70b44274c0040dc5dd0f,62bbfa7f72d3464813959fdd,2022-06-29_09h09.23.204,Colour_Asymmetry_Pilot,2022.1.3,Win32,30.01380635,62bbe60bf3d75ef465d3e404,,,,,,,,,,,,,,,,,,,,,,,,,,,,,,,,,,,,,,,,,,,,,,,,,,,,,,,,,,,,,,,,,,,,,,,,,,,,,,,,,,,,,,,,,,,,,,,,,,,,,,,,,,,,,,,,,,,,,,,,,,,,,,,,,,,,,,,,,,,,,,,,,,,,,,,,,,,,,,
0,83,83,36,1,,611d70b44274c0040dc5dd0f,62bbfa7f72d3464813959fdd,2022-06-29_09h09.23.204,Colour_Asymmetry_Pilot,2022.1.3,Win32,30.01380635,62bbe60bf3d75ef465d3e404,,,,,,,,,,,,,,,,,,,,,,,,,,,,,,,,,,,,,,,,,,,,,,,,,,,,,,,,,,,,,,,,,,,,,,,,,,,,,,,,,,,,,,,,,,,,,,,,,,,,,,,,,,,,,,,,,,,,,,,,,,,,,,,,,,,,,,,,,,,,,,,,,,,,,,,,,,,,,,
0,84,84,81,1,,611d70b44274c0040dc5dd0f,62bbfa7f72d3464813959fdd,2022-06-29_09h09.23.204,Colour_Asymmetry_Pilot,2022.1.3,Win32,30.01380635,62bbe60bf3d75ef465d3e404,,,,,,,,,,,,,,,,,,,,,,,,,,,,,,,,,,,,,,,,,,,,,,,,,,,,,,,,,,,,,,,,,,,,,,,,,,,,,,,,,,,,,,,,,,,,,,,,,,,,,,,,,,,,,,,,,,,,,,,,,,,,,,,,,,,,,,,,,,,,,,,,,,,,,,,,,,,,,,
0,85,85,2,1,,611d70b44274c0040dc5dd0f,62bbfa7f72d3464813959fdd,2022-06-29_09h09.23.204,Colour_Asymmetry_Pilot,2022.1.3,Win32,30.01380635,62bbe60bf3d75ef465d3e404,,,,,,,,,,,,,,,,,,,,,,,,,,,,,,,,,,,,,,,,,,,,,,,,,,,,,,,,,,,,,,,,,,,,,,,,,,,,,,,,,,,,,,,,,,,,,,,,,,,,,,,,,,,,,,,,,,,,,,,,,,,,,,,,,,,,,,,,,,,,,,,,,,,,,,,,,,,,,,
0,86,86,7,1,,611d70b44274c0040dc5dd0f,62bbfa7f72d3464813959fdd,2022-06-29_09h09.23.204,Colour_Asymmetry_Pilot,2022.1.3,Win32,30.01380635,62bbe60bf3d75ef465d3e404,,,,,,,,,,,,,,,,,,,,,,,,,,,,,,,,,,,,,,,,,,,,,,,,,,,,,,,,,,,,,,,,,,,,,,,,,,,,,,,,,,,,,,,,,,,,,,,,,,,,,,,,,,,,,,,,,,,,,,,,,,,,,,,,,,,,,,,,,,,,,,,,,,,,,,,,,,,,,,
0,87,87,35,1,,611d70b44274c0040dc5dd0f,62bbfa7f72d3464813959fdd,2022-06-29_09h09.23.204,Colour_Asymmetry_Pilot,2022.1.3,Win32,30.01380635,62bbe60bf3d75ef465d3e404,,,,,,,,,,,,,,,,,,,,,,,,,,,,,,,,,,,,,,,,,,,,,,,,,,,,,,,,,,,,,,,,,,,,,,,,,,,,,,,,,,,,,,,,,,,,,,,,,,,,,,,,,,,,,,,,,,,,,,,,,,,,,,,,,,,,,,,,,,,,,,,,,,,,,,,,,,,,,,
0,88,88,22,1,,611d70b44274c0040dc5dd0f,62bbfa7f72d3464813959fdd,2022-06-29_09h09.23.204,Colour_Asymmetry_Pilot,2022.1.3,Win32,30.01380635,62bbe60bf3d75ef465d3e404,,,,,,,,,,,,,,,,,,,,,,,,,,,,,,,,,,,,,,,,,,,,,,,,,,,,,,,,,,,,,,,,,,,,,,,,,,,,,,,,,,,,,,,,,,,,,,,,,,,,,,,,,,,,,,,,,,,,,,,,,,,,,,,,,,,,,,,,,,,,,,,,,,,,,,,,,,,,,,
0,89,89,91,1,,611d70b44274c0040dc5dd0f,62bbfa7f72d3464813959fdd,2022-06-29_09h09.23.204,Colour_Asymmetry_Pilot,2022.1.3,Win32,30.01380635,62bbe60bf3d75ef465d3e404,,,,,,,,,,,,,,,,,,,,,,,,,,,,,,,,,,,,,,,,,,,,,,,,,,,,,,,,,,,,,,,,,,,,,,,,,,,,,,,,,,,,,,,,,,,,,,,,,,,,,,,,,,,,,,,,,,,,,,,,,,,,,,,,,,,,,,,,,,,,,,,,,,,,,,,,,,,,,,
0,90,90,37,1,,611d70b44274c0040dc5dd0f,62bbfa7f72d3464813959fdd,2022-06-29_09h09.23.204,Colour_Asymmetry_Pilot,2022.1.3,Win32,30.01380635,62bbe60bf3d75ef465d3e404,,,,,,,,,,,,,,,,,,,,,,,,,,,,,,,,,,,,,,,,,,,,,,,,,,,,,,,,,,,,,,,,,,,,,,,,,,,,,,,,,,,,,,,,,,,,,,,,,,,,,,,,,,,,,,,,,,,,,,,,,,,,,,,,,,,,,,,,,,,,,,,,,,,,,,,,,,,,,,
0,91,91,1,1,,611d70b44274c0040dc5dd0f,62bbfa7f72d3464813959fdd,2022-06-29_09h09.23.204,Colour_Asymmetry_Pilot,2022.1.3,Win32,30.01380635,62bbe60bf3d75ef465d3e404,,,,,,,,,,,,,,,,,,,,,,,,,,,,,,,,,,,,,,,,,,,,,,,,,,,,,,,,,,,,,,,,,,,,,,,,,,,,,,,,,,,,,,,,,,,,,,,,,,,,,,,,,,,,,,,,,,,,,,,,,,,,,,,,,,,,,,,,,,,,,,,,,,,,,,,,,,,,,,
0,92,92,70,1,,611d70b44274c0040dc5dd0f,62bbfa7f72d3464813959fdd,2022-06-29_09h09.23.204,Colour_Asymmetry_Pilot,2022.1.3,Win32,30.01380635,62bbe60bf3d75ef465d3e404,,,,,,,,,,,,,,,,,,,,,,,,,,,,,,,,,,,,,,,,,,,,,,,,,,,,,,,,,,,,,,,,,,,,,,,,,,,,,,,,,,,,,,,,,,,,,,,,,,,,,,,,,,,,,,,,,,,,,,,,,,,,,,,,,,,,,,,,,,,,,,,,,,,,,,,,,,,,,,
,,,,,,611d70b44274c0040dc5dd0f,62bbfa7f72d3464813959fdd,2022-06-29_09h09.23.204,Colour_Asymmetry_Pilot,2022.1.3,Win32,30.01380635,62bbe60bf3d75ef465d3e404,0,0,0,5,1,threefour,,,,,,,,,,,,,,,,,,,,,,,,,,,,,,,,,,,,,,,,,,,,,,,,,,,,,,,,,,,,,,,,,,,,,,,,,,,,,,,,,,,,,,,,,,,,,,,,,,,,,,,,,,,,,,,,,,,,,,,,,,,,,,,,,,,,,,,,,,,,,,,,,,,,,,,,
,,,,,,611d70b44274c0040dc5dd0f,62bbfa7f72d3464813959fdd,2022-06-29_09h09.23.204,Colour_Asymmetry_Pilot,2022.1.3,Win32,30.01380635,62bbe60bf3d75ef465d3e404,0,1,1,39,1,fourthree,,,,,,,,,,,,,,,,,,,,,,,,,,,,,,,,,,,,,,,,,,,,,,,,,,,,,,,,,,,,,,,,,,,,,,,,,,,,,,,,,,,,,,,,,,,,,,,,,,,,,,,,,,,,,,,,,,,,,,,,,,,,,,,,,,,,,,,,,,,,,,,,,,,,,,,,
,,,,,,611d70b44274c0040dc5dd0f,62bbfa7f72d3464813959fdd,2022-06-29_09h09.23.204,Colour_Asymmetry_Pilot,2022.1.3,Win32,30.01380635,62bbe60bf3d75ef465d3e404,0,2,2,6,1,fourtwo,,,,,,,,,,,,,,,,,,,,,,,,,,,,,,,,,,,,,,,,,,,,,,,,,,,,,,,,,,,,,,,,,,,,,,,,,,,,,,,,,,,,,,,,,,,,,,,,,,,,,,,,,,,,,,,,,,,,,,,,,,,,,,,,,,,,,,,,,,,,,,,,,,,,,,,,
,,,,,,611d70b44274c0040dc5dd0f,62bbfa7f72d3464813959fdd,2022-06-29_09h09.23.204,Colour_Asymmetry_Pilot,2022.1.3,Win32,30.01380635,62bbe60bf3d75ef465d3e404,0,3,3,159,1,fourthree,,,,,,,,,,,,,,,,,,,,,,,,,,,,,,,,,,,,,,,,,,,,,,,,,,,,,,,,,,,,,,,,,,,,,,,,,,,,,,,,,,,,,,,,,,,,,,,,,,,,,,,,,,,,,,,,,,,,,,,,,,,,,,,,,,,,,,,,,,,,,,,,,,,,,,,,
,,,,,,611d70b44274c0040dc5dd0f,62bbfa7f72d3464813959fdd,2022-06-29_09h09.23.204,Colour_Asymmetry_Pilot,2022.1.3,Win32,30.01380635,62bbe60bf3d75ef465d3e404,0,4,4,58,1,twoone,,,,,,,,,,,,,,,,,,,,,,,,,,,,,,,,,,,,,,,,,,,,,,,,,,,,,,,,,,,,,,,,,,,,,,,,,,,,,,,,,,,,,,,,,,,,,,,,,,,,,,,,,,,,,,,,,,,,,,,,,,,,,,,,,,,,,,,,,,,,,,,,,,,,,,,,
,,,,,,611d70b44274c0040dc5dd0f,62bbfa7f72d3464813959fdd,2022-06-29_09h09.23.204,Colour_Asymmetry_Pilot,2022.1.3,Win32,30.01380635,62bbe60bf3d75ef465d3e404,0,5,5,34,1,twoone,,,,,,,,,,,,,,,,,,,,,,,,,,,,,,,,,,,,,,,,,,,,,,,,,,,,,,,,,,,,,,,,,,,,,,,,,,,,,,,,,,,,,,,,,,,,,,,,,,,,,,,,,,,,,,,,,,,,,,,,,,,,,,,,,,,,,,,,,,,,,,,,,,,,,,,,
,,,,,,611d70b44274c0040dc5dd0f,62bbfa7f72d3464813959fdd,2022-06-29_09h09.23.204,Colour_Asymmetry_Pilot,2022.1.3,Win32,30.01380635,62bbe60bf3d75ef465d3e404,0,6,6,133,1,threefour,,,,,,,,,,,,,,,,,,,,,,,,,,,,,,,,,,,,,,,,,,,,,,,,,,,,,,,,,,,,,,,,,,,,,,,,,,,,,,,,,,,,,,,,,,,,,,,,,,,,,,,,,,,,,,,,,,,,,,,,,,,,,,,,,,,,,,,,,,,,,,,,,,,,,,,,
,,,,,,611d70b44274c0040dc5dd0f,62bbfa7f72d3464813959fdd,2022-06-29_09h09.23.204,Colour_Asymmetry_Pilot,2022.1.3,Win32,30.01380635,62bbe60bf3d75ef465d3e404,0,7,7,153,1,onethree,,,,,,,,,,,,,,,,,,,,,,,,,,,,,,,,,,,,,,,,,,,,,,,,,,,,,,,,,,,,,,,,,,,,,,,,,,,,,,,,,,,,,,,,,,,,,,,,,,,,,,,,,,,,,,,,,,,,,,,,,,,,,,,,,,,,,,,,,,,,,,,,,,,,,,,,
,,,,,,611d70b44274c0040dc5dd0f,62bbfa7f72d3464813959fdd,2022-06-29_09h09.23.204,Colour_Asymmetry_Pilot,2022.1.3,Win32,30.01380635,62bbe60bf3d75ef465d3e404,0,8,8,121,1,onethree,,,,,,,,,,,,,,,,,,,,,,,,,,,,,,,,,,,,,,,,,,,,,,,,,,,,,,,,,,,,,,,,,,,,,,,,,,,,,,,,,,,,,,,,,,,,,,,,,,,,,,,,,,,,,,,,,,,,,,,,,,,,,,,,,,,,,,,,,,,,,,,,,,,,,,,,
,,,,,,611d70b44274c0040dc5dd0f,62bbfa7f72d3464813959fdd,2022-06-29_09h09.23.204,Colour_Asymmetry_Pilot,2022.1.3,Win32,30.01380635,62bbe60bf3d75ef465d3e404,0,9,9,142,1,fourtwo,,,,,,,,,,,,,,,,,,,,,,,,,,,,,,,,,,,,,,,,,,,,,,,,,,,,,,,,,,,,,,,,,,,,,,,,,,,,,,,,,,,,,,,,,,,,,,,,,,,,,,,,,,,,,,,,,,,,,,,,,,,,,,,,,,,,,,,,,,,,,,,,,,,,,,,,
,,,,,,611d70b44274c0040dc5dd0f,62bbfa7f72d3464813959fdd,2022-06-29_09h09.23.204,Colour_Asymmetry_Pilot,2022.1.3,Win32,30.01380635,62bbe60bf3d75ef465d3e404,0,10,10,16,1,onetwo,,,,,,,,,,,,,,,,,,,,,,,,,,,,,,,,,,,,,,,,,,,,,,,,,,,,,,,,,,,,,,,,,,,,,,,,,,,,,,,,,,,,,,,,,,,,,,,,,,,,,,,,,,,,,,,,,,,,,,,,,,,,,,,,,,,,,,,,,,,,,,,,,,,,,,,,
,,,,,,611d70b44274c0040dc5dd0f,62bbfa7f72d3464813959fdd,2022-06-29_09h09.23.204,Colour_Asymmetry_Pilot,2022.1.3,Win32,30.01380635,62bbe60bf3d75ef465d3e404,0,11,11,14,1,fourtwo,,,,,,,,,,,,,,,,,,,,,,,,,,,,,,,,,,,,,,,,,,,,,,,,,,,,,,,,,,,,,,,,,,,,,,,,,,,,,,,,,,,,,,,,,,,,,,,,,,,,,,,,,,,,,,,,,,,,,,,,,,,,,,,,,,,,,,,,,,,,,,,,,,,,,,,,
,,,,,,611d70b44274c0040dc5dd0f,62bbfa7f72d3464813959fdd,2022-06-29_09h09.23.204,Colour_Asymmetry_Pilot,2022.1.3,Win32,30.01380635,62bbe60bf3d75ef465d3e404,0,12,12,64,1,onetwo,,,,,,,,,,,,,,,,,,,,,,,,,,,,,,,,,,,,,,,,,,,,,,,,,,,,,,,,,,,,,,,,,,,,,,,,,,,,,,,,,,,,,,,,,,,,,,,,,,,,,,,,,,,,,,,,,,,,,,,,,,,,,,,,,,,,,,,,,,,,,,,,,,,,,,,,
,,,,,,611d70b44274c0040dc5dd0f,62bbfa7f72d3464813959fdd,2022-06-29_09h09.23.204,Colour_Asymmetry_Pilot,2022.1.3,Win32,30.01380635,62bbe60bf3d75ef465d3e404,0,13,13,91,1,twofour,,,,,,,,,,,,,,,,,,,,,,,,,,,,,,,,,,,,,,,,,,,,,,,,,,,,,,,,,,,,,,,,,,,,,,,,,,,,,,,,,,,,,,,,,,,,,,,,,,,,,,,,,,,,,,,,,,,,,,,,,,,,,,,,,,,,,,,,,,,,,,,,,,,,,,,,
,,,,,,611d70b44274c0040dc5dd0f,62bbfa7f72d3464813959fdd,2022-06-29_09h09.23.204,Colour_Asymmetry_Pilot,2022.1.3,Win32,30.01380635,62bbe60bf3d75ef465d3e404,0,14,14,109,1,threefour,,,,,,,,,,,,,,,,,,,,,,,,,,,,,,,,,,,,,,,,,,,,,,,,,,,,,,,,,,,,,,,,,,,,,,,,,,,,,,,,,,,,,,,,,,,,,,,,,,,,,,,,,,,,,,,,,,,,,,,,,,,,,,,,,,,,,,,,,,,,,,,,,,,,,,,,
,,,,,,611d70b44274c0040dc5dd0f,62bbfa7f72d3464813959fdd,2022-06-29_09h09.23.204,Colour_Asymmetry_Pilot,2022.1.3,Win32,30.01380635,62bbe60bf3d75ef465d3e404,0,15,15,114,1,twoone,,,,,,,,,,,,,,,,,,,,,,,,,,,,,,,,,,,,,,,,,,,,,,,,,,,,,,,,,,,,,,,,,,,,,,,,,,,,,,,,,,,,,,,,,,,,,,,,,,,,,,,,,,,,,,,,,,,,,,,,,,,,,,,,,,,,,,,,,,,,,,,,,,,,,,,,
,,,,,,611d70b44274c0040dc5dd0f,62bbfa7f72d3464813959fdd,2022-06-29_09h09.23.204,Colour_Asymmetry_Pilot,2022.1.3,Win32,30.01380635,62bbe60bf3d75ef465d3e404,0,16,16,130,1,twoone,,,,,,,,,,,,,,,,,,,,,,,,,,,,,,,,,,,,,,,,,,,,,,,,,,,,,,,,,,,,,,,,,,,,,,,,,,,,,,,,,,,,,,,,,,,,,,,,,,,,,,,,,,,,,,,,,,,,,,,,,,,,,,,,,,,,,,,,,,,,,,,,,,,,,,,,
,,,,,,611d70b44274c0040dc5dd0f,62bbfa7f72d3464813959fdd,2022-06-29_09h09.23.204,Colour_Asymmetry_Pilot,2022.1.3,Win32,30.01380635,62bbe60bf3d75ef465d3e404,0,17,17,157,1,threefour,,,,,,,,,,,,,,,,,,,,,,,,,,,,,,,,,,,,,,,,,,,,,,,,,,,,,,,,,,,,,,,,,,,,,,,,,,,,,,,,,,,,,,,,,,,,,,,,,,,,,,,,,,,,,,,,,,,,,,,,,,,,,,,,,,,,,,,,,,,,,,,,,,,,,,,,
,,,,,,611d70b44274c0040dc5dd0f,62bbfa7f72d3464813959fdd,2022-06-29_09h09.23.204,Colour_Asymmetry_Pilot,2022.1.3,Win32,30.01380635,62bbe60bf3d75ef465d3e404,0,18,18,3,1,twofour,,,,,,,,,,,,,,,,,,,,,,,,,,,,,,,,,,,,,,,,,,,,,,,,,,,,,,,,,,,,,,,,,,,,,,,,,,,,,,,,,,,,,,,,,,,,,,,,,,,,,,,,,,,,,,,,,,,,,,,,,,,,,,,,,,,,,,,,,,,,,,,,,,,,,,,,
,,,,,,611d70b44274c0040dc5dd0f,62bbfa7f72d3464813959fdd,2022-06-29_09h09.23.204,Colour_Asymmetry_Pilot,2022.1.3,Win32,30.01380635,62bbe60bf3d75ef465d3e404,0,19,19,116,1,threeone,,,,,,,,,,,,,,,,,,,,,,,,,,,,,,,,,,,,,,,,,,,,,,,,,,,,,,,,,,,,,,,,,,,,,,,,,,,,,,,,,,,,,,,,,,,,,,,,,,,,,,,,,,,,,,,,,,,,,,,,,,,,,,,,,,,,,,,,,,,,,,,,,,,,,,,,
,,,,,,611d70b44274c0040dc5dd0f,62bbfa7f72d3464813959fdd,2022-06-29_09h09.23.204,Colour_Asymmetry_Pilot,2022.1.3,Win32,30.01380635,62bbe60bf3d75ef465d3e404,0,20,20,155,1,twofour,,,,,,,,,,,,,,,,,,,,,,,,,,,,,,,,,,,,,,,,,,,,,,,,,,,,,,,,,,,,,,,,,,,,,,,,,,,,,,,,,,,,,,,,,,,,,,,,,,,,,,,,,,,,,,,,,,,,,,,,,,,,,,,,,,,,,,,,,,,,,,,,,,,,,,,,
,,,,,,611d70b44274c0040dc5dd0f,62bbfa7f72d3464813959fdd,2022-06-29_09h09.23.204,Colour_Asymmetry_Pilot,2022.1.3,Win32,30.01380635,62bbe60bf3d75ef465d3e404,0,21,21,27,1,twofour,,,,,,,,,,,,,,,,,,,,,,,,,,,,,,,,,,,,,,,,,,,,,,,,,,,,,,,,,,,,,,,,,,,,,,,,,,,,,,,,,,,,,,,,,,,,,,,,,,,,,,,,,,,,,,,,,,,,,,,,,,,,,,,,,,,,,,,,,,,,,,,,,,,,,,,,
,,,,,,611d70b44274c0040dc5dd0f,62bbfa7f72d3464813959fdd,2022-06-29_09h09.23.204,Colour_Asymmetry_Pilot,2022.1.3,Win32,30.01380635,62bbe60bf3d75ef465d3e404,0,22,22,111,1,fourthree,,,,,,,,,,,,,,,,,,,,,,,,,,,,,,,,,,,,,,,,,,,,,,,,,,,,,,,,,,,,,,,,,,,,,,,,,,,,,,,,,,,,,,,,,,,,,,,,,,,,,,,,,,,,,,,,,,,,,,,,,,,,,,,,,,,,,,,,,,,,,,,,,,,,,,,,
,,,,,,611d70b44274c0040dc5dd0f,62bbfa7f72d3464813959fdd,2022-06-29_09h09.23.204,Colour_Asymmetry_Pilot,2022.1.3,Win32,30.01380635,62bbe60bf3d75ef465d3e404,0,23,23,48,1,onetwo,,,,,,,,,,,,,,,,,,,,,,,,,,,,,,,,,,,,,,,,,,,,,,,,,,,,,,,,,,,,,,,,,,,,,,,,,,,,,,,,,,,,,,,,,,,,,,,,,,,,,,,,,,,,,,,,,,,,,,,,,,,,,,,,,,,,,,,,,,,,,,,,,,,,,,,,
,,,,,,611d70b44274c0040dc5dd0f,62bbfa7f72d3464813959fdd,2022-06-29_09h09.23.204,Colour_Asymmetry_Pilot,2022.1.3,Win32,30.01380635,62bbe60bf3d75ef465d3e404,0,24,24,98,1,twoone,,,,,,,,,,,,,,,,,,,,,,,,,,,,,,,,,,,,,,,,,,,,,,,,,,,,,,,,,,,,,,,,,,,,,,,,,,,,,,,,,,,,,,,,,,,,,,,,,,,,,,,,,,,,,,,,,,,,,,,,,,,,,,,,,,,,,,,,,,,,,,,,,,,,,,,,
,,,,,,611d70b44274c0040dc5dd0f,62bbfa7f72d3464813959fdd,2022-06-29_09h09.23.204,Colour_Asymmetry_Pilot,2022.1.3,Win32,30.01380635,62bbe60bf3d75ef465d3e404,0,25,25,65,1,onethree,,,,,,,,,,,,,,,,,,,,,,,,,,,,,,,,,,,,,,,,,,,,,,,,,,,,,,,,,,,,,,,,,,,,,,,,,,,,,,,,,,,,,,,,,,,,,,,,,,,,,,,,,,,,,,,,,,,,,,,,,,,,,,,,,,,,,,,,,,,,,,,,,,,,,,,,
,,,,,,611d70b44274c0040dc5dd0f,62bbfa7f72d3464813959fdd,2022-06-29_09h09.23.204,Colour_Asymmetry_Pilot,2022.1.3,Win32,30.01380635,62bbe60bf3d75ef465d3e404,0,26,26,75,1,twofour,,,,,,,,,,,,,,,,,,,,,,,,,,,,,,,,,,,,,,,,,,,,,,,,,,,,,,,,,,,,,,,,,,,,,,,,,,,,,,,,,,,,,,,,,,,,,,,,,,,,,,,,,,,,,,,,,,,,,,,,,,,,,,,,,,,,,,,,,,,,,,,,,,,,,,,,
,,,,,,611d70b44274c0040dc5dd0f,62bbfa7f72d3464813959fdd,2022-06-29_09h09.23.204,Colour_Asymmetry_Pilot,2022.1.3,Win32,30.01380635,62bbe60bf3d75ef465d3e404,0,27,27,120,1,onetwo,,,,,,,,,,,,,,,,,,,,,,,,,,,,,,,,,,,,,,,,,,,,,,,,,,,,,,,,,,,,,,,,,,,,,,,,,,,,,,,,,,,,,,,,,,,,,,,,,,,,,,,,,,,,,,,,,,,,,,,,,,,,,,,,,,,,,,,,,,,,,,,,,,,,,,,,
,,,,,,611d70b44274c0040dc5dd0f,62bbfa7f72d3464813959fdd,2022-06-29_09h09.23.204,Colour_Asymmetry_Pilot,2022.1.3,Win32,30.01380635,62bbe60bf3d75ef465d3e404,0,28,28,101,1,threefour,,,,,,,,,,,,,,,,,,,,,,,,,,,,,,,,,,,,,,,,,,,,,,,,,,,,,,,,,,,,,,,,,,,,,,,,,,,,,,,,,,,,,,,,,,,,,,,,,,,,,,,,,,,,,,,,,,,,,,,,,,,,,,,,,,,,,,,,,,,,,,,,,,,,,,,,
,,,,,,611d70b44274c0040dc5dd0f,62bbfa7f72d3464813959fdd,2022-06-29_09h09.23.204,Colour_Asymmetry_Pilot,2022.1.3,Win32,30.01380635,62bbe60bf3d75ef465d3e404,0,29,29,50,1,twoone,,,,,,,,,,,,,,,,,,,,,,,,,,,,,,,,,,,,,,,,,,,,,,,,,,,,,,,,,,,,,,,,,,,,,,,,,,,,,,,,,,,,,,,,,,,,,,,,,,,,,,,,,,,,,,,,,,,,,,,,,,,,,,,,,,,,,,,,,,,,,,,,,,,,,,,,
,,,,,,611d70b44274c0040dc5dd0f,62bbfa7f72d3464813959fdd,2022-06-29_09h09.23.204,Colour_Asymmetry_Pilot,2022.1.3,Win32,30.01380635,62bbe60bf3d75ef465d3e404,0,30,30,152,1,onetwo,,,,,,,,,,,,,,,,,,,,,,,,,,,,,,,,,,,,,,,,,,,,,,,,,,,,,,,,,,,,,,,,,,,,,,,,,,,,,,,,,,,,,,,,,,,,,,,,,,,,,,,,,,,,,,,,,,,,,,,,,,,,,,,,,,,,,,,,,,,,,,,,,,,,,,,,
,,,,,,611d70b44274c0040dc5dd0f,62bbfa7f72d3464813959fdd,2022-06-29_09h09.23.204,Colour_Asymmetry_Pilot,2022.1.3,Win32,30.01380635,62bbe60bf3d75ef465d3e404,0,31,31,70,1,fourtwo,,,,,,,,,,,,,,,,,,,,,,,,,,,,,,,,,,,,,,,,,,,,,,,,,,,,,,,,,,,,,,,,,,,,,,,,,,,,,,,,,,,,,,,,,,,,,,,,,,,,,,,,,,,,,,,,,,,,,,,,,,,,,,,,,,,,,,,,,,,,,,,,,,,,,,,,
,,,,,,611d70b44274c0040dc5dd0f,62bbfa7f72d3464813959fdd,2022-06-29_09h09.23.204,Colour_Asymmetry_Pilot,2022.1.3,Win32,30.01380635,62bbe60bf3d75ef465d3e404,0,32,32,90,1,twoone,,,,,,,,,,,,,,,,,,,,,,,,,,,,,,,,,,,,,,,,,,,,,,,,,,,,,,,,,,,,,,,,,,,,,,,,,,,,,,,,,,,,,,,,,,,,,,,,,,,,,,,,,,,,,,,,,,,,,,,,,,,,,,,,,,,,,,,,,,,,,,,,,,,,,,,,
,,,,,,611d70b44274c0040dc5dd0f,62bbfa7f72d3464813959fdd,2022-06-29_09h09.23.204,Colour_Asymmetry_Pilot,2022.1.3,Win32,30.01380635,62bbe60bf3d75ef465d3e404,0,33,33,106,1,twoone,,,,,,,,,,,,,,,,,,,,,,,,,,,,,,,,,,,,,,,,,,,,,,,,,,,,,,,,,,,,,,,,,,,,,,,,,,,,,,,,,,,,,,,,,,,,,,,,,,,,,,,,,,,,,,,,,,,,,,,,,,,,,,,,,,,,,,,,,,,,,,,,,,,,,,,,
,,,,,,611d70b44274c0040dc5dd0f,62bbfa7f72d3464813959fdd,2022-06-29_09h09.23.204,Colour_Asymmetry_Pilot,2022.1.3,Win32,30.01380635,62bbe60bf3d75ef465d3e404,0,34,34,10,1,twoone,,,,,,,,,,,,,,,,,,,,,,,,,,,,,,,,,,,,,,,,,,,,,,,,,,,,,,,,,,,,,,,,,,,,,,,,,,,,,,,,,,,,,,,,,,,,,,,,,,,,,,,,,,,,,,,,,,,,,,,,,,,,,,,,,,,,,,,,,,,,,,,,,,,,,,,,
,,,,,,611d70b44274c0040dc5dd0f,62bbfa7f72d3464813959fdd,2022-06-29_09h09.23.204,Colour_Asymmetry_Pilot,2022.1.3,Win32,30.01380635,62bbe60bf3d75ef465d3e404,0,35,35,37,1,threefour,,,,,,,,,,,,,,,,,,,,,,,,,,,,,,,,,,,,,,,,,,,,,,,,,,,,,,,,,,,,,,,,,,,,,,,,,,,,,,,,,,,,,,,,,,,,,,,,,,,,,,,,,,,,,,,,,,,,,,,,,,,,,,,,,,,,,,,,,,,,,,,,,,,,,,,,
,,,,,,611d70b44274c0040dc5dd0f,62bbfa7f72d3464813959fdd,2022-06-29_09h09.23.204,Colour_Asymmetry_Pilot,2022.1.3,Win32,30.01380635,62bbe60bf3d75ef465d3e404,0,36,36,56,1,onetwo,,,,,,,,,,,,,,,,,,,,,,,,,,,,,,,,,,,,,,,,,,,,,,,,,,,,,,,,,,,,,,,,,,,,,,,,,,,,,,,,,,,,,,,,,,,,,,,,,,,,,,,,,,,,,,,,,,,,,,,,,,,,,,,,,,,,,,,,,,,,,,,,,,,,,,,,
,,,,,,611d70b44274c0040dc5dd0f,62bbfa7f72d3464813959fdd,2022-06-29_09h09.23.204,Colour_Asymmetry_Pilot,2022.1.3,Win32,30.01380635,62bbe60bf3d75ef465d3e404,0,37,37,9,1,onethree,,,,,,,,,,,,,,,,,,,,,,,,,,,,,,,,,,,,,,,,,,,,,,,,,,,,,,,,,,,,,,,,,,,,,,,,,,,,,,,,,,,,,,,,,,,,,,,,,,,,,,,,,,,,,,,,,,,,,,,,,,,,,,,,,,,,,,,,,,,,,,,,,,,,,,,,
,,,,,,611d70b44274c0040dc5dd0f,62bbfa7f72d3464813959fdd,2022-06-29_09h09.23.204,Colour_Asymmetry_Pilot,2022.1.3,Win32,30.01380635,62bbe60bf3d75ef465d3e404,0,38,38,41,1,onethree,,,,,,,,,,,,,,,,,,,,,,,,,,,,,,,,,,,,,,,,,,,,,,,,,,,,,,,,,,,,,,,,,,,,,,,,,,,,,,,,,,,,,,,,,,,,,,,,,,,,,,,,,,,,,,,,,,,,,,,,,,,,,,,,,,,,,,,,,,,,,,,,,,,,,,,,
,,,,,,611d70b44274c0040dc5dd0f,62bbfa7f72d3464813959fdd,2022-06-29_09h09.23.204,Colour_Asymmetry_Pilot,2022.1.3,Win32,30.01380635,62bbe60bf3d75ef465d3e404,0,39,39,73,1,onethree,,,,,,,,,,,,,,,,,,,,,,,,,,,,,,,,,,,,,,,,,,,,,,,,,,,,,,,,,,,,,,,,,,,,,,,,,,,,,,,,,,,,,,,,,,,,,,,,,,,,,,,,,,,,,,,,,,,,,,,,,,,,,,,,,,,,,,,,,,,,,,,,,,,,,,,,
,,,,,,611d70b44274c0040dc5dd0f,62bbfa7f72d3464813959fdd,2022-06-29_09h09.23.204,Colour_Asymmetry_Pilot,2022.1.3,Win32,30.01380635,62bbe60bf3d75ef465d3e404,0,40,40,1,1,onethree,,,,,,,,,,,,,,,,,,,,,,,,,,,,,,,,,,,,,,,,,,,,,,,,,,,,,,,,,,,,,,,,,,,,,,,,,,,,,,,,,,,,,,,,,,,,,,,,,,,,,,,,,,,,,,,,,,,,,,,,,,,,,,,,,,,,,,,,,,,,,,,,,,,,,,,,
,,,,,,611d70b44274c0040dc5dd0f,62bbfa7f72d3464813959fdd,2022-06-29_09h09.23.204,Colour_Asymmetry_Pilot,2022.1.3,Win32,30.01380635,62bbe60bf3d75ef465d3e404,0,41,41,118,1,fourtwo,,,,,,,,,,,,,,,,,,,,,,,,,,,,,,,,,,,,,,,,,,,,,,,,,,,,,,,,,,,,,,,,,,,,,,,,,,,,,,,,,,,,,,,,,,,,,,,,,,,,,,,,,,,,,,,,,,,,,,,,,,,,,,,,,,,,,,,,,,,,,,,,,,,,,,,,
,,,,,,611d70b44274c0040dc5dd0f,62bbfa7f72d3464813959fdd,2022-06-29_09h09.23.204,Colour_Asymmetry_Pilot,2022.1.3,Win32,30.01380635,62bbe60bf3d75ef465d3e404,0,42,42,134,1,fourtwo,,,,,,,,,,,,,,,,,,,,,,,,,,,,,,,,,,,,,,,,,,,,,,,,,,,,,,,,,,,,,,,,,,,,,,,,,,,,,,,,,,,,,,,,,,,,,,,,,,,,,,,,,,,,,,,,,,,,,,,,,,,,,,,,,,,,,,,,,,,,,,,,,,,,,,,,
,,,,,,611d70b44274c0040dc5dd0f,62bbfa7f72d3464813959fdd,2022-06-29_09h09.23.204,Colour_Asymmetry_Pilot,2022.1.3,Win32,30.01380635,62bbe60bf3d75ef465d3e404,0,43,43,42,1,twoone,,,,,,,,,,,,,,,,,,,,,,,,,,,,,,,,,,,,,,,,,,,,,,,,,,,,,,,,,,,,,,,,,,,,,,,,,,,,,,,,,,,,,,,,,,,,,,,,,,,,,,,,,,,,,,,,,,,,,,,,,,,,,,,,,,,,,,,,,,,,,,,,,,,,,,,,
,,,,,,611d70b44274c0040dc5dd0f,62bbfa7f72d3464813959fdd,2022-06-29_09h09.23.204,Colour_Asymmetry_Pilot,2022.1.3,Win32,30.01380635,62bbe60bf3d75ef465d3e404,0,44,44,86,1,fourtwo,,,,,,,,,,,,,,,,,,,,,,,,,,,,,,,,,,,,,,,,,,,,,,,,,,,,,,,,,,,,,,,,,,,,,,,,,,,,,,,,,,,,,,,,,,,,,,,,,,,,,,,,,,,,,,,,,,,,,,,,,,,,,,,,,,,,,,,,,,,,,,,,,,,,,,,,
,,,,,,611d70b44274c0040dc5dd0f,62bbfa7f72d3464813959fdd,2022-06-29_09h09.23.204,Colour_Asymmetry_Pilot,2022.1.3,Win32,30.01380635,62bbe60bf3d75ef465d3e404,0,45,45,51,1,twofour,,,,,,,,,,,,,,,,,,,,,,,,,,,,,,,,,,,,,,,,,,,,,,,,,,,,,,,,,,,,,,,,,,,,,,,,,,,,,,,,,,,,,,,,,,,,,,,,,,,,,,,,,,,,,,,,,,,,,,,,,,,,,,,,,,,,,,,,,,,,,,,,,,,,,,,,
,,,,,,611d70b44274c0040dc5dd0f,62bbfa7f72d3464813959fdd,2022-06-29_09h09.23.204,Colour_Asymmetry_Pilot,2022.1.3,Win32,30.01380635,62bbe60bf3d75ef465d3e404,0,46,46,60,1,threeone,,,,,,,,,,,,,,,,,,,,,,,,,,,,,,,,,,,,,,,,,,,,,,,,,,,,,,,,,,,,,,,,,,,,,,,,,,,,,,,,,,,,,,,,,,,,,,,,,,,,,,,,,,,,,,,,,,,,,,,,,,,,,,,,,,,,,,,,,,,,,,,,,,,,,,,,
,,,,,,611d70b44274c0040dc5dd0f,62bbfa7f72d3464813959fdd,2022-06-29_09h09.23.204,Colour_Asymmetry_Pilot,2022.1.3,Win32,30.01380635,62bbe60bf3d75ef465d3e404,0,47,47,4,1,threeone,,,,,,,,,,,,,,,,,,,,,,,,,,,,,,,,,,,,,,,,,,,,,,,,,,,,,,,,,,,,,,,,,,,,,,,,,,,,,,,,,,,,,,,,,,,,,,,,,,,,,,,,,,,,,,,,,,,,,,,,,,,,,,,,,,,,,,,,,,,,,,,,,,,,,,,,
,,,,,,611d70b44274c0040dc5dd0f,62bbfa7f72d3464813959fdd,2022-06-29_09h09.23.204,Colour_Asymmetry_Pilot,2022.1.3,Win32,30.01380635,62bbe60bf3d75ef465d3e404,0,48,48,12,1,threeone,,,,,,,,,,,,,,,,,,,,,,,,,,,,,,,,,,,,,,,,,,,,,,,,,,,,,,,,,,,,,,,,,,,,,,,,,,,,,,,,,,,,,,,,,,,,,,,,,,,,,,,,,,,,,,,,,,,,,,,,,,,,,,,,,,,,,,,,,,,,,,,,,,,,,,,,
,,,,,,611d70b44274c0040dc5dd0f,62bbfa7f72d3464813959fdd,2022-06-29_09h09.23.204,Colour_Asymmetry_Pilot,2022.1.3,Win32,30.01380635,62bbe60bf3d75ef465d3e404,0,49,49,94,1,fourtwo,,,,,,,,,,,,,,,,,,,,,,,,,,,,,,,,,,,,,,,,,,,,,,,,,,,,,,,,,,,,,,,,,,,,,,,,,,,,,,,,,,,,,,,,,,,,,,,,,,,,,,,,,,,,,,,,,,,,,,,,,,,,,,,,,,,,,,,,,,,,,,,,,,,,,,,,
,,,,,,611d70b44274c0040dc5dd0f,62bbfa7f72d3464813959fdd,2022-06-29_09h09.23.204,Colour_Asymmetry_Pilot,2022.1.3,Win32,30.01380635,62bbe60bf3d75ef465d3e404,0,50,50,49,1,onethree,,,,,,,,,,,,,,,,,,,,,,,,,,,,,,,,,,,,,,,,,,,,,,,,,,,,,,,,,,,,,,,,,,,,,,,,,,,,,,,,,,,,,,,,,,,,,,,,,,,,,,,,,,,,,,,,,,,,,,,,,,,,,,,,,,,,,,,,,,,,,,,,,,,,,,,,
,,,,,,611d70b44274c0040dc5dd0f,62bbfa7f72d3464813959fdd,2022-06-29_09h09.23.204,Colour_Asymmetry_Pilot,2022.1.3,Win32,30.01380635,62bbe60bf3d75ef465d3e404,0,51,51,117,1,threefour,,,,,,,,,,,,,,,,,,,,,,,,,,,,,,,,,,,,,,,,,,,,,,,,,,,,,,,,,,,,,,,,,,,,,,,,,,,,,,,,,,,,,,,,,,,,,,,,,,,,,,,,,,,,,,,,,,,,,,,,,,,,,,,,,,,,,,,,,,,,,,,,,,,,,,,,
,,,,,,611d70b44274c0040dc5dd0f,62bbfa7f72d3464813959fdd,2022-06-29_09h09.23.204,Colour_Asymmetry_Pilot,2022.1.3,Win32,30.01380635,62bbe60bf3d75ef465d3e404,0,52,52,79,1,fourthree,,,,,,,,,,,,,,,,,,,,,,,,,,,,,,,,,,,,,,,,,,,,,,,,,,,,,,,,,,,,,,,,,,,,,,,,,,,,,,,,,,,,,,,,,,,,,,,,,,,,,,,,,,,,,,,,,,,,,,,,,,,,,,,,,,,,,,,,,,,,,,,,,,,,,,,,
,,,,,,611d70b44274c0040dc5dd0f,62bbfa7f72d3464813959fdd,2022-06-29_09h09.23.204,Colour_Asymmetry_Pilot,2022.1.3,Win32,30.01380635,62bbe60bf3d75ef465d3e404,0,53,53,88,1,onetwo,,,,,,,,,,,,,,,,,,,,,,,,,,,,,,,,,,,,,,,,,,,,,,,,,,,,,,,,,,,,,,,,,,,,,,,,,,,,,,,,,,,,,,,,,,,,,,,,,,,,,,,,,,,,,,,,,,,,,,,,,,,,,,,,,,,,,,,,,,,,,,,,,,,,,,,,
,,,,,,611d70b44274c0040dc5dd0f,62bbfa7f72d3464813959fdd,2022-06-29_09h09.23.204,Colour_Asymmetry_Pilot,2022.1.3,Win32,30.01380635,62bbe60bf3d75ef465d3e404,0,54,54,115,1,twofour,,,,,,,,,,,,,,,,,,,,,,,,,,,,,,,,,,,,,,,,,,,,,,,,,,,,,,,,,,,,,,,,,,,,,,,,,,,,,,,,,,,,,,,,,,,,,,,,,,,,,,,,,,,,,,,,,,,,,,,,,,,,,,,,,,,,,,,,,,,,,,,,,,,,,,,,
,,,,,,611d70b44274c0040dc5dd0f,62bbfa7f72d3464813959fdd,2022-06-29_09h09.23.204,Colour_Asymmetry_Pilot,2022.1.3,Win32,30.01380635,62bbe60bf3d75ef465d3e404,0,55,55,77,1,threefour,,,,,,,,,,,,,,,,,,,,,,,,,,,,,,,,,,,,,,,,,,,,,,,,,,,,,,,,,,,,,,,,,,,,,,,,,,,,,,,,,,,,,,,,,,,,,,,,,,,,,,,,,,,,,,,,,,,,,,,,,,,,,,,,,,,,,,,,,,,,,,,,,,,,,,,,
,,,,,,611d70b44274c0040dc5dd0f,62bbfa7f72d3464813959fdd,2022-06-29_09h09.23.204,Colour_Asymmetry_Pilot,2022.1.3,Win32,30.01380635,62bbe60bf3d75ef465d3e404,0,56,56,15,1,fourthree,,,,,,,,,,,,,,,,,,,,,,,,,,,,,,,,,,,,,,,,,,,,,,,,,,,,,,,,,,,,,,,,,,,,,,,,,,,,,,,,,,,,,,,,,,,,,,,,,,,,,,,,,,,,,,,,,,,,,,,,,,,,,,,,,,,,,,,,,,,,,,,,,,,,,,,,
,,,,,,611d70b44274c0040dc5dd0f,62bbfa7f72d3464813959fdd,2022-06-29_09h09.23.204,Colour_Asymmetry_Pilot,2022.1.3,Win32,30.01380635,62bbe60bf3d75ef465d3e404,0,57,57,61,1,threefour,,,,,,,,,,,,,,,,,,,,,,,,,,,,,,,,,,,,,,,,,,,,,,,,,,,,,,,,,,,,,,,,,,,,,,,,,,,,,,,,,,,,,,,,,,,,,,,,,,,,,,,,,,,,,,,,,,,,,,,,,,,,,,,,,,,,,,,,,,,,,,,,,,,,,,,,
,,,,,,611d70b44274c0040dc5dd0f,62bbfa7f72d3464813959fdd,2022-06-29_09h09.23.204,Colour_Asymmetry_Pilot,2022.1.3,Win32,30.01380635,62bbe60bf3d75ef465d3e404,0,58,58,81,1,onethree,,,,,,,,,,,,,,,,,,,,,,,,,,,,,,,,,,,,,,,,,,,,,,,,,,,,,,,,,,,,,,,,,,,,,,,,,,,,,,,,,,,,,,,,,,,,,,,,,,,,,,,,,,,,,,,,,,,,,,,,,,,,,,,,,,,,,,,,,,,,,,,,,,,,,,,,
,,,,,,611d70b44274c0040dc5dd0f,62bbfa7f72d3464813959fdd,2022-06-29_09h09.23.204,Colour_Asymmetry_Pilot,2022.1.3,Win32,30.01380635,62bbe60bf3d75ef465d3e404,0,59,59,78,1,fourtwo,,,,,,,,,,,,,,,,,,,,,,,,,,,,,,,,,,,,,,,,,,,,,,,,,,,,,,,,,,,,,,,,,,,,,,,,,,,,,,,,,,,,,,,,,,,,,,,,,,,,,,,,,,,,,,,,,,,,,,,,,,,,,,,,,,,,,,,,,,,,,,,,,,,,,,,,
,,,,,,611d70b44274c0040dc5dd0f,62bbfa7f72d3464813959fdd,2022-06-29_09h09.23.204,Colour_Asymmetry_Pilot,2022.1.3,Win32,30.01380635,62bbe60bf3d75ef465d3e404,0,60,60,69,1,threefour,,,,,,,,,,,,,,,,,,,,,,,,,,,,,,,,,,,,,,,,,,,,,,,,,,,,,,,,,,,,,,,,,,,,,,,,,,,,,,,,,,,,,,,,,,,,,,,,,,,,,,,,,,,,,,,,,,,,,,,,,,,,,,,,,,,,,,,,,,,,,,,,,,,,,,,,
,,,,,,611d70b44274c0040dc5dd0f,62bbfa7f72d3464813959fdd,2022-06-29_09h09.23.204,Colour_Asymmetry_Pilot,2022.1.3,Win32,30.01380635,62bbe60bf3d75ef465d3e404,0,61,61,139,1,twofour,,,,,,,,,,,,,,,,,,,,,,,,,,,,,,,,,,,,,,,,,,,,,,,,,,,,,,,,,,,,,,,,,,,,,,,,,,,,,,,,,,,,,,,,,,,,,,,,,,,,,,,,,,,,,,,,,,,,,,,,,,,,,,,,,,,,,,,,,,,,,,,,,,,,,,,,
,,,,,,611d70b44274c0040dc5dd0f,62bbfa7f72d3464813959fdd,2022-06-29_09h09.23.204,Colour_Asymmetry_Pilot,2022.1.3,Win32,30.01380635,62bbe60bf3d75ef465d3e404,0,62,62,89,1,onethree,,,,,,,,,,,,,,,,,,,,,,,,,,,,,,,,,,,,,,,,,,,,,,,,,,,,,,,,,,,,,,,,,,,,,,,,,,,,,,,,,,,,,,,,,,,,,,,,,,,,,,,,,,,,,,,,,,,,,,,,,,,,,,,,,,,,,,,,,,,,,,,,,,,,,,,,
,,,,,,611d70b44274c0040dc5dd0f,62bbfa7f72d3464813959fdd,2022-06-29_09h09.23.204,Colour_Asymmetry_Pilot,2022.1.3,Win32,30.01380635,62bbe60bf3d75ef465d3e404,0,63,63,32,1,onetwo,,,,,,,,,,,,,,,,,,,,,,,,,,,,,,,,,,,,,,,,,,,,,,,,,,,,,,,,,,,,,,,,,,,,,,,,,,,,,,,,,,,,,,,,,,,,,,,,,,,,,,,,,,,,,,,,,,,,,,,,,,,,,,,,,,,,,,,,,,,,,,,,,,,,,,,,
,,,,,,611d70b44274c0040dc5dd0f,62bbfa7f72d3464813959fdd,2022-06-29_09h09.23.204,Colour_Asymmetry_Pilot,2022.1.3,Win32,30.01380635,62bbe60bf3d75ef465d3e404,0,64,64,18,1,twoone,,,,,,,,,,,,,,,,,,,,,,,,,,,,,,,,,,,,,,,,,,,,,,,,,,,,,,,,,,,,,,,,,,,,,,,,,,,,,,,,,,,,,,,,,,,,,,,,,,,,,,,,,,,,,,,,,,,,,,,,,,,,,,,,,,,,,,,,,,,,,,,,,,,,,,,,
,,,,,,611d70b44274c0040dc5dd0f,62bbfa7f72d3464813959fdd,2022-06-29_09h09.23.204,Colour_Asymmetry_Pilot,2022.1.3,Win32,30.01380635,62bbe60bf3d75ef465d3e404,0,65,65,127,1,fourthree,,,,,,,,,,,,,,,,,,,,,,,,,,,,,,,,,,,,,,,,,,,,,,,,,,,,,,,,,,,,,,,,,,,,,,,,,,,,,,,,,,,,,,,,,,,,,,,,,,,,,,,,,,,,,,,,,,,,,,,,,,,,,,,,,,,,,,,,,,,,,,,,,,,,,,,,
,,,,,,611d70b44274c0040dc5dd0f,62bbfa7f72d3464813959fdd,2022-06-29_09h09.23.204,Colour_Asymmetry_Pilot,2022.1.3,Win32,30.01380635,62bbe60bf3d75ef465d3e404,0,66,66,135,1,fourthree,,,,,,,,,,,,,,,,,,,,,,,,,,,,,,,,,,,,,,,,,,,,,,,,,,,,,,,,,,,,,,,,,,,,,,,,,,,,,,,,,,,,,,,,,,,,,,,,,,,,,,,,,,,,,,,,,,,,,,,,,,,,,,,,,,,,,,,,,,,,,,,,,,,,,,,,
,,,,,,611d70b44274c0040dc5dd0f,62bbfa7f72d3464813959fdd,2022-06-29_09h09.23.204,Colour_Asymmetry_Pilot,2022.1.3,Win32,30.01380635,62bbe60bf3d75ef465d3e404,0,67,67,107,1,twofour,,,,,,,,,,,,,,,,,,,,,,,,,,,,,,,,,,,,,,,,,,,,,,,,,,,,,,,,,,,,,,,,,,,,,,,,,,,,,,,,,,,,,,,,,,,,,,,,,,,,,,,,,,,,,,,,,,,,,,,,,,,,,,,,,,,,,,,,,,,,,,,,,,,,,,,,
,,,,,,611d70b44274c0040dc5dd0f,62bbfa7f72d3464813959fdd,2022-06-29_09h09.23.204,Colour_Asymmetry_Pilot,2022.1.3,Win32,30.01380635,62bbe60bf3d75ef465d3e404,0,68,68,147,1,twofour,,,,,,,,,,,,,,,,,,,,,,,,,,,,,,,,,,,,,,,,,,,,,,,,,,,,,,,,,,,,,,,,,,,,,,,,,,,,,,,,,,,,,,,,,,,,,,,,,,,,,,,,,,,,,,,,,,,,,,,,,,,,,,,,,,,,,,,,,,,,,,,,,,,,,,,,
,,,,,,611d70b44274c0040dc5dd0f,62bbfa7f72d3464813959fdd,2022-06-29_09h09.23.204,Colour_Asymmetry_Pilot,2022.1.3,Win32,30.01380635,62bbe60bf3d75ef465d3e404,0,69,69,136,1,onetwo,,,,,,,,,,,,,,,,,,,,,,,,,,,,,,,,,,,,,,,,,,,,,,,,,,,,,,,,,,,,,,,,,,,,,,,,,,,,,,,,,,,,,,,,,,,,,,,,,,,,,,,,,,,,,,,,,,,,,,,,,,,,,,,,,,,,,,,,,,,,,,,,,,,,,,,,
,,,,,,611d70b44274c0040dc5dd0f,62bbfa7f72d3464813959fdd,2022-06-29_09h09.23.204,Colour_Asymmetry_Pilot,2022.1.3,Win32,30.01380635,62bbe60bf3d75ef465d3e404,0,70,70,112,1,onetwo,,,,,,,,,,,,,,,,,,,,,,,,,,,,,,,,,,,,,,,,,,,,,,,,,,,,,,,,,,,,,,,,,,,,,,,,,,,,,,,,,,,,,,,,,,,,,,,,,,,,,,,,,,,,,,,,,,,,,,,,,,,,,,,,,,,,,,,,,,,,,,,,,,,,,,,,
,,,,,,611d70b44274c0040dc5dd0f,62bbfa7f72d3464813959fdd,2022-06-29_09h09.23.204,Colour_Asymmetry_Pilot,2022.1.3,Win32,30.01380635,62bbe60bf3d75ef465d3e404,0,71,71,80,1,onetwo,,,,,,,,,,,,,,,,,,,,,,,,,,,,,,,,,,,,,,,,,,,,,,,,,,,,,,,,,,,,,,,,,,,,,,,,,,,,,,,,,,,,,,,,,,,,,,,,,,,,,,,,,,,,,,,,,,,,,,,,,,,,,,,,,,,,,,,,,,,,,,,,,,,,,,,,
,,,,,,611d70b44274c0040dc5dd0f,62bbfa7f72d3464813959fdd,2022-06-29_09h09.23.204,Colour_Asymmetry_Pilot,2022.1.3,Win32,30.01380635,62bbe60bf3d75ef465d3e404,0,72,72,149,1,threefour,,,,,,,,,,,,,,,,,,,,,,,,,,,,,,,,,,,,,,,,,,,,,,,,,,,,,,,,,,,,,,,,,,,,,,,,,,,,,,,,,,,,,,,,,,,,,,,,,,,,,,,,,,,,,,,,,,,,,,,,,,,,,,,,,,,,,,,,,,,,,,,,,,,,,,,,
,,,,,,611d70b44274c0040dc5dd0f,62bbfa7f72d3464813959fdd,2022-06-29_09h09.23.204,Colour_Asymmetry_Pilot,2022.1.3,Win32,30.01380635,62bbe60bf3d75ef465d3e404,0,73,73,132,1,threeone,,,,,,,,,,,,,,,,,,,,,,,,,,,,,,,,,,,,,,,,,,,,,,,,,,,,,,,,,,,,,,,,,,,,,,,,,,,,,,,,,,,,,,,,,,,,,,,,,,,,,,,,,,,,,,,,,,,,,,,,,,,,,,,,,,,,,,,,,,,,,,,,,,,,,,,,
,,,,,,611d70b44274c0040dc5dd0f,62bbfa7f72d3464813959fdd,2022-06-29_09h09.23.204,Colour_Asymmetry_Pilot,2022.1.3,Win32,30.01380635,62bbe60bf3d75ef465d3e404,0,74,74,25,1,onethree,,,,,,,,,,,,,,,,,,,,,,,,,,,,,,,,,,,,,,,,,,,,,,,,,,,,,,,,,,,,,,,,,,,,,,,,,,,,,,,,,,,,,,,,,,,,,,,,,,,,,,,,,,,,,,,,,,,,,,,,,,,,,,,,,,,,,,,,,,,,,,,,,,,,,,,,
,,,,,,611d70b44274c0040dc5dd0f,62bbfa7f72d3464813959fdd,2022-06-29_09h09.23.204,Colour_Asymmetry_Pilot,2022.1.3,Win32,30.01380635,62bbe60bf3d75ef465d3e404,0,75,75,59,1,twofour,,,,,,,,,,,,,,,,,,,,,,,,,,,,,,,,,,,,,,,,,,,,,,,,,,,,,,,,,,,,,,,,,,,,,,,,,,,,,,,,,,,,,,,,,,,,,,,,,,,,,,,,,,,,,,,,,,,,,,,,,,,,,,,,,,,,,,,,,,,,,,,,,,,,,,,,
,,,,,,611d70b44274c0040dc5dd0f,62bbfa7f72d3464813959fdd,2022-06-29_09h09.23.204,Colour_Asymmetry_Pilot,2022.1.3,Win32,30.01380635,62bbe60bf3d75ef465d3e404,0,76,76,36,1,threeone,,,,,,,,,,,,,,,,,,,,,,,,,,,,,,,,,,,,,,,,,,,,,,,,,,,,,,,,,,,,,,,,,,,,,,,,,,,,,,,,,,,,,,,,,,,,,,,,,,,,,,,,,,,,,,,,,,,,,,,,,,,,,,,,,,,,,,,,,,,,,,,,,,,,,,,,
,,,,,,611d70b44274c0040dc5dd0f,62bbfa7f72d3464813959fdd,2022-06-29_09h09.23.204,Colour_Asymmetry_Pilot,2022.1.3,Win32,30.01380635,62bbe60bf3d75ef465d3e404,0,77,77,31,1,fourthree,,,,,,,,,,,,,,,,,,,,,,,,,,,,,,,,,,,,,,,,,,,,,,,,,,,,,,,,,,,,,,,,,,,,,,,,,,,,,,,,,,,,,,,,,,,,,,,,,,,,,,,,,,,,,,,,,,,,,,,,,,,,,,,,,,,,,,,,,,,,,,,,,,,,,,,,
,,,,,,611d70b44274c0040dc5dd0f,62bbfa7f72d3464813959fdd,2022-06-29_09h09.23.204,Colour_Asymmetry_Pilot,2022.1.3,Win32,30.01380635,62bbe60bf3d75ef465d3e404,0,78,78,71,1,fourthree,,,,,,,,,,,,,,,,,,,,,,,,,,,,,,,,,,,,,,,,,,,,,,,,,,,,,,,,,,,,,,,,,,,,,,,,,,,,,,,,,,,,,,,,,,,,,,,,,,,,,,,,,,,,,,,,,,,,,,,,,,,,,,,,,,,,,,,,,,,,,,,,,,,,,,,,
,,,,,,611d70b44274c0040dc5dd0f,62bbfa7f72d3464813959fdd,2022-06-29_09h09.23.204,Colour_Asymmetry_Pilot,2022.1.3,Win32,30.01380635,62bbe60bf3d75ef465d3e404,0,79,79,44,1,threeone,,,,,,,,,,,,,,,,,,,,,,,,,,,,,,,,,,,,,,,,,,,,,,,,,,,,,,,,,,,,,,,,,,,,,,,,,,,,,,,,,,,,,,,,,,,,,,,,,,,,,,,,,,,,,,,,,,,,,,,,,,,,,,,,,,,,,,,,,,,,,,,,,,,,,,,,
,,,,,,611d70b44274c0040dc5dd0f,62bbfa7f72d3464813959fdd,2022-06-29_09h09.23.204,Colour_Asymmetry_Pilot,2022.1.3,Win32,30.01380635,62bbe60bf3d75ef465d3e404,0,80,80,21,1,threefour,,,,,,,,,,,,,,,,,,,,,,,,,,,,,,,,,,,,,,,,,,,,,,,,,,,,,,,,,,,,,,,,,,,,,,,,,,,,,,,,,,,,,,,,,,,,,,,,,,,,,,,,,,,,,,,,,,,,,,,,,,,,,,,,,,,,,,,,,,,,,,,,,,,,,,,,
,,,,,,611d70b44274c0040dc5dd0f,62bbfa7f72d3464813959fdd,2022-06-29_09h09.23.204,Colour_Asymmetry_Pilot,2022.1.3,Win32,30.01380635,62bbe60bf3d75ef465d3e404,0,81,81,103,1,fourthree,,,,,,,,,,,,,,,,,,,,,,,,,,,,,,,,,,,,,,,,,,,,,,,,,,,,,,,,,,,,,,,,,,,,,,,,,,,,,,,,,,,,,,,,,,,,,,,,,,,,,,,,,,,,,,,,,,,,,,,,,,,,,,,,,,,,,,,,,,,,,,,,,,,,,,,,
,,,,,,611d70b44274c0040dc5dd0f,62bbfa7f72d3464813959fdd,2022-06-29_09h09.23.204,Colour_Asymmetry_Pilot,2022.1.3,Win32,30.01380635,62bbe60bf3d75ef465d3e404,0,82,82,17,1,onethree,,,,,,,,,,,,,,,,,,,,,,,,,,,,,,,,,,,,,,,,,,,,,,,,,,,,,,,,,,,,,,,,,,,,,,,,,,,,,,,,,,,,,,,,,,,,,,,,,,,,,,,,,,,,,,,,,,,,,,,,,,,,,,,,,,,,,,,,,,,,,,,,,,,,,,,,
,,,,,,611d70b44274c0040dc5dd0f,62bbfa7f72d3464813959fdd,2022-06-29_09h09.23.204,Colour_Asymmetry_Pilot,2022.1.3,Win32,30.01380635,62bbe60bf3d75ef465d3e404,0,83,83,8,1,onetwo,,,,,,,,,,,,,,,,,,,,,,,,,,,,,,,,,,,,,,,,,,,,,,,,,,,,,,,,,,,,,,,,,,,,,,,,,,,,,,,,,,,,,,,,,,,,,,,,,,,,,,,,,,,,,,,,,,,,,,,,,,,,,,,,,,,,,,,,,,,,,,,,,,,,,,,,
,,,,,,611d70b44274c0040dc5dd0f,62bbfa7f72d3464813959fdd,2022-06-29_09h09.23.204,Colour_Asymmetry_Pilot,2022.1.3,Win32,30.01380635,62bbe60bf3d75ef465d3e404,0,84,84,11,1,twofour,,,,,,,,,,,,,,,,,,,,,,,,,,,,,,,,,,,,,,,,,,,,,,,,,,,,,,,,,,,,,,,,,,,,,,,,,,,,,,,,,,,,,,,,,,,,,,,,,,,,,,,,,,,,,,,,,,,,,,,,,,,,,,,,,,,,,,,,,,,,,,,,,,,,,,,,
,,,,,,611d70b44274c0040dc5dd0f,62bbfa7f72d3464813959fdd,2022-06-29_09h09.23.204,Colour_Asymmetry_Pilot,2022.1.3,Win32,30.01380635,62bbe60bf3d75ef465d3e404,0,85,85,145,1,onethree,,,,,,,,,,,,,,,,,,,,,,,,,,,,,,,,,,,,,,,,,,,,,,,,,,,,,,,,,,,,,,,,,,,,,,,,,,,,,,,,,,,,,,,,,,,,,,,,,,,,,,,,,,,,,,,,,,,,,,,,,,,,,,,,,,,,,,,,,,,,,,,,,,,,,,,,
,,,,,,611d70b44274c0040dc5dd0f,62bbfa7f72d3464813959fdd,2022-06-29_09h09.23.204,Colour_Asymmetry_Pilot,2022.1.3,Win32,30.01380635,62bbe60bf3d75ef465d3e404,0,86,86,66,1,twoone,,,,,,,,,,,,,,,,,,,,,,,,,,,,,,,,,,,,,,,,,,,,,,,,,,,,,,,,,,,,,,,,,,,,,,,,,,,,,,,,,,,,,,,,,,,,,,,,,,,,,,,,,,,,,,,,,,,,,,,,,,,,,,,,,,,,,,,,,,,,,,,,,,,,,,,,
,,,,,,611d70b44274c0040dc5dd0f,62bbfa7f72d3464813959fdd,2022-06-29_09h09.23.204,Colour_Asymmetry_Pilot,2022.1.3,Win32,30.01380635,62bbe60bf3d75ef465d3e404,0,87,87,96,1,onetwo,,,,,,,,,,,,,,,,,,,,,,,,,,,,,,,,,,,,,,,,,,,,,,,,,,,,,,,,,,,,,,,,,,,,,,,,,,,,,,,,,,,,,,,,,,,,,,,,,,,,,,,,,,,,,,,,,,,,,,,,,,,,,,,,,,,,,,,,,,,,,,,,,,,,,,,,
,,,,,,611d70b44274c0040dc5dd0f,62bbfa7f72d3464813959fdd,2022-06-29_09h09.23.204,Colour_Asymmetry_Pilot,2022.1.3,Win32,30.01380635,62bbe60bf3d75ef465d3e404,0,88,88,129,1,onethree,,,,,,,,,,,,,,,,,,,,,,,,,,,,,,,,,,,,,,,,,,,,,,,,,,,,,,,,,,,,,,,,,,,,,,,,,,,,,,,,,,,,,,,,,,,,,,,,,,,,,,,,,,,,,,,,,,,,,,,,,,,,,,,,,,,,,,,,,,,,,,,,,,,,,,,,
,,,,,,611d70b44274c0040dc5dd0f,62bbfa7f72d3464813959fdd,2022-06-29_09h09.23.204,Colour_Asymmetry_Pilot,2022.1.3,Win32,30.01380635,62bbe60bf3d75ef465d3e404,0,89,89,160,1,onetwo,,,,,,,,,,,,,,,,,,,,,,,,,,,,,,,,,,,,,,,,,,,,,,,,,,,,,,,,,,,,,,,,,,,,,,,,,,,,,,,,,,,,,,,,,,,,,,,,,,,,,,,,,,,,,,,,,,,,,,,,,,,,,,,,,,,,,,,,,,,,,,,,,,,,,,,,
,,,,,,611d70b44274c0040dc5dd0f,62bbfa7f72d3464813959fdd,2022-06-29_09h09.23.204,Colour_Asymmetry_Pilot,2022.1.3,Win32,30.01380635,62bbe60bf3d75ef465d3e404,0,90,90,97,1,onethree,,,,,,,,,,,,,,,,,,,,,,,,,,,,,,,,,,,,,,,,,,,,,,,,,,,,,,,,,,,,,,,,,,,,,,,,,,,,,,,,,,,,,,,,,,,,,,,,,,,,,,,,,,,,,,,,,,,,,,,,,,,,,,,,,,,,,,,,,,,,,,,,,,,,,,,,
,,,,,,611d70b44274c0040dc5dd0f,62bbfa7f72d3464813959fdd,2022-06-29_09h09.23.204,Colour_Asymmetry_Pilot,2022.1.3,Win32,30.01380635,62bbe60bf3d75ef465d3e404,0,91,91,150,1,fourtwo,,,,,,,,,,,,,,,,,,,,,,,,,,,,,,,,,,,,,,,,,,,,,,,,,,,,,,,,,,,,,,,,,,,,,,,,,,,,,,,,,,,,,,,,,,,,,,,,,,,,,,,,,,,,,,,,,,,,,,,,,,,,,,,,,,,,,,,,,,,,,,,,,,,,,,,,
,,,,,,611d70b44274c0040dc5dd0f,62bbfa7f72d3464813959fdd,2022-06-29_09h09.23.204,Colour_Asymmetry_Pilot,2022.1.3,Win32,30.01380635,62bbe60bf3d75ef465d3e404,0,92,92,24,1,onetwo,,,,,,,,,,,,,,,,,,,,,,,,,,,,,,,,,,,,,,,,,,,,,,,,,,,,,,,,,,,,,,,,,,,,,,,,,,,,,,,,,,,,,,,,,,,,,,,,,,,,,,,,,,,,,,,,,,,,,,,,,,,,,,,,,,,,,,,,,,,,,,,,,,,,,,,,
,,,,,,611d70b44274c0040dc5dd0f,62bbfa7f72d3464813959fdd,2022-06-29_09h09.23.204,Colour_Asymmetry_Pilot,2022.1.3,Win32,30.01380635,62bbe60bf3d75ef465d3e404,0,93,93,54,1,fourtwo,,,,,,,,,,,,,,,,,,,,,,,,,,,,,,,,,,,,,,,,,,,,,,,,,,,,,,,,,,,,,,,,,,,,,,,,,,,,,,,,,,,,,,,,,,,,,,,,,,,,,,,,,,,,,,,,,,,,,,,,,,,,,,,,,,,,,,,,,,,,,,,,,,,,,,,,
,,,,,,611d70b44274c0040dc5dd0f,62bbfa7f72d3464813959fdd,2022-06-29_09h09.23.204,Colour_Asymmetry_Pilot,2022.1.3,Win32,30.01380635,62bbe60bf3d75ef465d3e404,0,94,94,13,1,threefour,,,,,,,,,,,,,,,,,,,,,,,,,,,,,,,,,,,,,,,,,,,,,,,,,,,,,,,,,,,,,,,,,,,,,,,,,,,,,,,,,,,,,,,,,,,,,,,,,,,,,,,,,,,,,,,,,,,,,,,,,,,,,,,,,,,,,,,,,,,,,,,,,,,,,,,,
,,,,,,611d70b44274c0040dc5dd0f,62bbfa7f72d3464813959fdd,2022-06-29_09h09.23.204,Colour_Asymmetry_Pilot,2022.1.3,Win32,30.01380635,62bbe60bf3d75ef465d3e404,0,95,95,144,1,onetwo,,,,,,,,,,,,,,,,,,,,,,,,,,,,,,,,,,,,,,,,,,,,,,,,,,,,,,,,,,,,,,,,,,,,,,,,,,,,,,,,,,,,,,,,,,,,,,,,,,,,,,,,,,,,,,,,,,,,,,,,,,,,,,,,,,,,,,,,,,,,,,,,,,,,,,,,
,,,,,,611d70b44274c0040dc5dd0f,62bbfa7f72d3464813959fdd,2022-06-29_09h09.23.204,Colour_Asymmetry_Pilot,2022.1.3,Win32,30.01380635,62bbe60bf3d75ef465d3e404,0,96,96,29,1,threefour,,,,,,,,,,,,,,,,,,,,,,,,,,,,,,,,,,,,,,,,,,,,,,,,,,,,,,,,,,,,,,,,,,,,,,,,,,,,,,,,,,,,,,,,,,,,,,,,,,,,,,,,,,,,,,,,,,,,,,,,,,,,,,,,,,,,,,,,,,,,,,,,,,,,,,,,
,,,,,,611d70b44274c0040dc5dd0f,62bbfa7f72d3464813959fdd,2022-06-29_09h09.23.204,Colour_Asymmetry_Pilot,2022.1.3,Win32,30.01380635,62bbe60bf3d75ef465d3e404,0,97,97,30,1,fourtwo,,,,,,,,,,,,,,,,,,,,,,,,,,,,,,,,,,,,,,,,,,,,,,,,,,,,,,,,,,,,,,,,,,,,,,,,,,,,,,,,,,,,,,,,,,,,,,,,,,,,,,,,,,,,,,,,,,,,,,,,,,,,,,,,,,,,,,,,,,,,,,,,,,,,,,,,
,,,,,,611d70b44274c0040dc5dd0f,62bbfa7f72d3464813959fdd,2022-06-29_09h09.23.204,Colour_Asymmetry_Pilot,2022.1.3,Win32,30.01380635,62bbe60bf3d75ef465d3e404,0,98,98,119,1,fourthree,,,,,,,,,,,,,,,,,,,,,,,,,,,,,,,,,,,,,,,,,,,,,,,,,,,,,,,,,,,,,,,,,,,,,,,,,,,,,,,,,,,,,,,,,,,,,,,,,,,,,,,,,,,,,,,,,,,,,,,,,,,,,,,,,,,,,,,,,,,,,,,,,,,,,,,,
,,,,,,611d70b44274c0040dc5dd0f,62bbfa7f72d3464813959fdd,2022-06-29_09h09.23.204,Colour_Asymmetry_Pilot,2022.1.3,Win32,30.01380635,62bbe60bf3d75ef465d3e404,0,99,99,35,1,twofour,,,,,,,,,,,,,,,,,,,,,,,,,,,,,,,,,,,,,,,,,,,,,,,,,,,,,,,,,,,,,,,,,,,,,,,,,,,,,,,,,,,,,,,,,,,,,,,,,,,,,,,,,,,,,,,,,,,,,,,,,,,,,,,,,,,,,,,,,,,,,,,,,,,,,,,,
,,,,,,611d70b44274c0040dc5dd0f,62bbfa7f72d3464813959fdd,2022-06-29_09h09.23.204,Colour_Asymmetry_Pilot,2022.1.3,Win32,30.01380635,62bbe60bf3d75ef465d3e404,0,100,100,151,1,fourthree,,,,,,,,,,,,,,,,,,,,,,,,,,,,,,,,,,,,,,,,,,,,,,,,,,,,,,,,,,,,,,,,,,,,,,,,,,,,,,,,,,,,,,,,,,,,,,,,,,,,,,,,,,,,,,,,,,,,,,,,,,,,,,,,,,,,,,,,,,,,,,,,,,,,,,,,
,,,,,,611d70b44274c0040dc5dd0f,62bbfa7f72d3464813959fdd,2022-06-29_09h09.23.204,Colour_Asymmetry_Pilot,2022.1.3,Win32,30.01380635,62bbe60bf3d75ef465d3e404,0,101,101,128,1,onetwo,,,,,,,,,,,,,,,,,,,,,,,,,,,,,,,,,,,,,,,,,,,,,,,,,,,,,,,,,,,,,,,,,,,,,,,,,,,,,,,,,,,,,,,,,,,,,,,,,,,,,,,,,,,,,,,,,,,,,,,,,,,,,,,,,,,,,,,,,,,,,,,,,,,,,,,,
,,,,,,611d70b44274c0040dc5dd0f,62bbfa7f72d3464813959fdd,2022-06-29_09h09.23.204,Colour_Asymmetry_Pilot,2022.1.3,Win32,30.01380635,62bbe60bf3d75ef465d3e404,0,102,102,63,1,fourthree,,,,,,,,,,,,,,,,,,,,,,,,,,,,,,,,,,,,,,,,,,,,,,,,,,,,,,,,,,,,,,,,,,,,,,,,,,,,,,,,,,,,,,,,,,,,,,,,,,,,,,,,,,,,,,,,,,,,,,,,,,,,,,,,,,,,,,,,,,,,,,,,,,,,,,,,
,,,,,,611d70b44274c0040dc5dd0f,62bbfa7f72d3464813959fdd,2022-06-29_09h09.23.204,Colour_Asymmetry_Pilot,2022.1.3,Win32,30.01380635,62bbe60bf3d75ef465d3e404,0,103,103,46,1,fourtwo,,,,,,,,,,,,,,,,,,,,,,,,,,,,,,,,,,,,,,,,,,,,,,,,,,,,,,,,,,,,,,,,,,,,,,,,,,,,,,,,,,,,,,,,,,,,,,,,,,,,,,,,,,,,,,,,,,,,,,,,,,,,,,,,,,,,,,,,,,,,,,,,,,,,,,,,
,,,,,,611d70b44274c0040dc5dd0f,62bbfa7f72d3464813959fdd,2022-06-29_09h09.23.204,Colour_Asymmetry_Pilot,2022.1.3,Win32,30.01380635,62bbe60bf3d75ef465d3e404,0,104,104,72,1,onetwo,,,,,,,,,,,,,,,,,,,,,,,,,,,,,,,,,,,,,,,,,,,,,,,,,,,,,,,,,,,,,,,,,,,,,,,,,,,,,,,,,,,,,,,,,,,,,,,,,,,,,,,,,,,,,,,,,,,,,,,,,,,,,,,,,,,,,,,,,,,,,,,,,,,,,,,,
,,,,,,611d70b44274c0040dc5dd0f,62bbfa7f72d3464813959fdd,2022-06-29_09h09.23.204,Colour_Asymmetry_Pilot,2022.1.3,Win32,30.01380635,62bbe60bf3d75ef465d3e404,0,105,105,23,1,fourthree,,,,,,,,,,,,,,,,,,,,,,,,,,,,,,,,,,,,,,,,,,,,,,,,,,,,,,,,,,,,,,,,,,,,,,,,,,,,,,,,,,,,,,,,,,,,,,,,,,,,,,,,,,,,,,,,,,,,,,,,,,,,,,,,,,,,,,,,,,,,,,,,,,,,,,,,
,,,,,,611d70b44274c0040dc5dd0f,62bbfa7f72d3464813959fdd,2022-06-29_09h09.23.204,Colour_Asymmetry_Pilot,2022.1.3,Win32,30.01380635,62bbe60bf3d75ef465d3e404,0,106,106,2,1,twoone,,,,,,,,,,,,,,,,,,,,,,,,,,,,,,,,,,,,,,,,,,,,,,,,,,,,,,,,,,,,,,,,,,,,,,,,,,,,,,,,,,,,,,,,,,,,,,,,,,,,,,,,,,,,,,,,,,,,,,,,,,,,,,,,,,,,,,,,,,,,,,,,,,,,,,,,
,,,,,,611d70b44274c0040dc5dd0f,62bbfa7f72d3464813959fdd,2022-06-29_09h09.23.204,Colour_Asymmetry_Pilot,2022.1.3,Win32,30.01380635,62bbe60bf3d75ef465d3e404,0,107,107,158,1,fourtwo,,,,,,,,,,,,,,,,,,,,,,,,,,,,,,,,,,,,,,,,,,,,,,,,,,,,,,,,,,,,,,,,,,,,,,,,,,,,,,,,,,,,,,,,,,,,,,,,,,,,,,,,,,,,,,,,,,,,,,,,,,,,,,,,,,,,,,,,,,,,,,,,,,,,,,,,
,,,,,,611d70b44274c0040dc5dd0f,62bbfa7f72d3464813959fdd,2022-06-29_09h09.23.204,Colour_Asymmetry_Pilot,2022.1.3,Win32,30.01380635,62bbe60bf3d75ef465d3e404,0,108,108,45,1,threefour,,,,,,,,,,,,,,,,,,,,,,,,,,,,,,,,,,,,,,,,,,,,,,,,,,,,,,,,,,,,,,,,,,,,,,,,,,,,,,,,,,,,,,,,,,,,,,,,,,,,,,,,,,,,,,,,,,,,,,,,,,,,,,,,,,,,,,,,,,,,,,,,,,,,,,,,
,,,,,,611d70b44274c0040dc5dd0f,62bbfa7f72d3464813959fdd,2022-06-29_09h09.23.204,Colour_Asymmetry_Pilot,2022.1.3,Win32,30.01380635,62bbe60bf3d75ef465d3e404,0,109,109,38,1,fourtwo,,,,,,,,,,,,,,,,,,,,,,,,,,,,,,,,,,,,,,,,,,,,,,,,,,,,,,,,,,,,,,,,,,,,,,,,,,,,,,,,,,,,,,,,,,,,,,,,,,,,,,,,,,,,,,,,,,,,,,,,,,,,,,,,,,,,,,,,,,,,,,,,,,,,,,,,
,,,,,,611d70b44274c0040dc5dd0f,62bbfa7f72d3464813959fdd,2022-06-29_09h09.23.204,Colour_Asymmetry_Pilot,2022.1.3,Win32,30.01380635,62bbe60bf3d75ef465d3e404,0,110,110,154,1,twoone,,,,,,,,,,,,,,,,,,,,,,,,,,,,,,,,,,,,,,,,,,,,,,,,,,,,,,,,,,,,,,,,,,,,,,,,,,,,,,,,,,,,,,,,,,,,,,,,,,,,,,,,,,,,,,,,,,,,,,,,,,,,,,,,,,,,,,,,,,,,,,,,,,,,,,,,
,,,,,,611d70b44274c0040dc5dd0f,62bbfa7f72d3464813959fdd,2022-06-29_09h09.23.204,Colour_Asymmetry_Pilot,2022.1.3,Win32,30.01380635,62bbe60bf3d75ef465d3e404,0,111,111,143,1,fourthree,,,,,,,,,,,,,,,,,,,,,,,,,,,,,,,,,,,,,,,,,,,,,,,,,,,,,,,,,,,,,,,,,,,,,,,,,,,,,,,,,,,,,,,,,,,,,,,,,,,,,,,,,,,,,,,,,,,,,,,,,,,,,,,,,,,,,,,,,,,,,,,,,,,,,,,,
,,,,,,611d70b44274c0040dc5dd0f,62bbfa7f72d3464813959fdd,2022-06-29_09h09.23.204,Colour_Asymmetry_Pilot,2022.1.3,Win32,30.01380635,62bbe60bf3d75ef465d3e404,0,112,112,85,1,threefour,,,,,,,,,,,,,,,,,,,,,,,,,,,,,,,,,,,,,,,,,,,,,,,,,,,,,,,,,,,,,,,,,,,,,,,,,,,,,,,,,,,,,,,,,,,,,,,,,,,,,,,,,,,,,,,,,,,,,,,,,,,,,,,,,,,,,,,,,,,,,,,,,,,,,,,,
,,,,,,611d70b44274c0040dc5dd0f,62bbfa7f72d3464813959fdd,2022-06-29_09h09.23.204,Colour_Asymmetry_Pilot,2022.1.3,Win32,30.01380635,62bbe60bf3d75ef465d3e404,0,113,113,92,1,threeone,,,,,,,,,,,,,,,,,,,,,,,,,,,,,,,,,,,,,,,,,,,,,,,,,,,,,,,,,,,,,,,,,,,,,,,,,,,,,,,,,,,,,,,,,,,,,,,,,,,,,,,,,,,,,,,,,,,,,,,,,,,,,,,,,,,,,,,,,,,,,,,,,,,,,,,,
,,,,,,611d70b44274c0040dc5dd0f,62bbfa7f72d3464813959fdd,2022-06-29_09h09.23.204,Colour_Asymmetry_Pilot,2022.1.3,Win32,30.01380635,62bbe60bf3d75ef465d3e404,0,114,114,148,1,threeone,,,,,,,,,,,,,,,,,,,,,,,,,,,,,,,,,,,,,,,,,,,,,,,,,,,,,,,,,,,,,,,,,,,,,,,,,,,,,,,,,,,,,,,,,,,,,,,,,,,,,,,,,,,,,,,,,,,,,,,,,,,,,,,,,,,,,,,,,,,,,,,,,,,,,,,,
,,,,,,611d70b44274c0040dc5dd0f,62bbfa7f72d3464813959fdd,2022-06-29_09h09.23.204,Colour_Asymmetry_Pilot,2022.1.3,Win32,30.01380635,62bbe60bf3d75ef465d3e404,0,115,115,124,1,threeone,,,,,,,,,,,,,,,,,,,,,,,,,,,,,,,,,,,,,,,,,,,,,,,,,,,,,,,,,,,,,,,,,,,,,,,,,,,,,,,,,,,,,,,,,,,,,,,,,,,,,,,,,,,,,,,,,,,,,,,,,,,,,,,,,,,,,,,,,,,,,,,,,,,,,,,,
,,,,,,611d70b44274c0040dc5dd0f,62bbfa7f72d3464813959fdd,2022-06-29_09h09.23.204,Colour_Asymmetry_Pilot,2022.1.3,Win32,30.01380635,62bbe60bf3d75ef465d3e404,0,116,116,146,1,twoone,,,,,,,,,,,,,,,,,,,,,,,,,,,,,,,,,,,,,,,,,,,,,,,,,,,,,,,,,,,,,,,,,,,,,,,,,,,,,,,,,,,,,,,,,,,,,,,,,,,,,,,,,,,,,,,,,,,,,,,,,,,,,,,,,,,,,,,,,,,,,,,,,,,,,,,,
,,,,,,611d70b44274c0040dc5dd0f,62bbfa7f72d3464813959fdd,2022-06-29_09h09.23.204,Colour_Asymmetry_Pilot,2022.1.3,Win32,30.01380635,62bbe60bf3d75ef465d3e404,0,117,117,110,1,fourtwo,,,,,,,,,,,,,,,,,,,,,,,,,,,,,,,,,,,,,,,,,,,,,,,,,,,,,,,,,,,,,,,,,,,,,,,,,,,,,,,,,,,,,,,,,,,,,,,,,,,,,,,,,,,,,,,,,,,,,,,,,,,,,,,,,,,,,,,,,,,,,,,,,,,,,,,,
,,,,,,611d70b44274c0040dc5dd0f,62bbfa7f72d3464813959fdd,2022-06-29_09h09.23.204,Colour_Asymmetry_Pilot,2022.1.3,Win32,30.01380635,62bbe60bf3d75ef465d3e404,0,118,118,104,1,onetwo,,,,,,,,,,,,,,,,,,,,,,,,,,,,,,,,,,,,,,,,,,,,,,,,,,,,,,,,,,,,,,,,,,,,,,,,,,,,,,,,,,,,,,,,,,,,,,,,,,,,,,,,,,,,,,,,,,,,,,,,,,,,,,,,,,,,,,,,,,,,,,,,,,,,,,,,
,,,,,,611d70b44274c0040dc5dd0f,62bbfa7f72d3464813959fdd,2022-06-29_09h09.23.204,Colour_Asymmetry_Pilot,2022.1.3,Win32,30.01380635,62bbe60bf3d75ef465d3e404,0,119,119,53,1,threefour,,,,,,,,,,,,,,,,,,,,,,,,,,,,,,,,,,,,,,,,,,,,,,,,,,,,,,,,,,,,,,,,,,,,,,,,,,,,,,,,,,,,,,,,,,,,,,,,,,,,,,,,,,,,,,,,,,,,,,,,,,,,,,,,,,,,,,,,,,,,,,,,,,,,,,,,
,,,,,,611d70b44274c0040dc5dd0f,62bbfa7f72d3464813959fdd,2022-06-29_09h09.23.204,Colour_Asymmetry_Pilot,2022.1.3,Win32,30.01380635,62bbe60bf3d75ef465d3e404,0,120,120,82,1,twoone,,,,,,,,,,,,,,,,,,,,,,,,,,,,,,,,,,,,,,,,,,,,,,,,,,,,,,,,,,,,,,,,,,,,,,,,,,,,,,,,,,,,,,,,,,,,,,,,,,,,,,,,,,,,,,,,,,,,,,,,,,,,,,,,,,,,,,,,,,,,,,,,,,,,,,,,
,,,,,,611d70b44274c0040dc5dd0f,62bbfa7f72d3464813959fdd,2022-06-29_09h09.23.204,Colour_Asymmetry_Pilot,2022.1.3,Win32,30.01380635,62bbe60bf3d75ef465d3e404,0,121,121,102,1,fourtwo,,,,,,,,,,,,,,,,,,,,,,,,,,,,,,,,,,,,,,,,,,,,,,,,,,,,,,,,,,,,,,,,,,,,,,,,,,,,,,,,,,,,,,,,,,,,,,,,,,,,,,,,,,,,,,,,,,,,,,,,,,,,,,,,,,,,,,,,,,,,,,,,,,,,,,,,
,,,,,,611d70b44274c0040dc5dd0f,62bbfa7f72d3464813959fdd,2022-06-29_09h09.23.204,Colour_Asymmetry_Pilot,2022.1.3,Win32,30.01380635,62bbe60bf3d75ef465d3e404,0,122,122,105,1,onethree,,,,,,,,,,,,,,,,,,,,,,,,,,,,,,,,,,,,,,,,,,,,,,,,,,,,,,,,,,,,,,,,,,,,,,,,,,,,,,,,,,,,,,,,,,,,,,,,,,,,,,,,,,,,,,,,,,,,,,,,,,,,,,,,,,,,,,,,,,,,,,,,,,,,,,,,
,,,,,,611d70b44274c0040dc5dd0f,62bbfa7f72d3464813959fdd,2022-06-29_09h09.23.204,Colour_Asymmetry_Pilot,2022.1.3,Win32,30.01380635,62bbe60bf3d75ef465d3e404,0,123,123,156,1,threeone,,,,,,,,,,,,,,,,,,,,,,,,,,,,,,,,,,,,,,,,,,,,,,,,,,,,,,,,,,,,,,,,,,,,,,,,,,,,,,,,,,,,,,,,,,,,,,,,,,,,,,,,,,,,,,,,,,,,,,,,,,,,,,,,,,,,,,,,,,,,,,,,,,,,,,,,
,,,,,,611d70b44274c0040dc5dd0f,62bbfa7f72d3464813959fdd,2022-06-29_09h09.23.204,Colour_Asymmetry_Pilot,2022.1.3,Win32,30.01380635,62bbe60bf3d75ef465d3e404,0,124,124,95,1,fourthree,,,,,,,,,,,,,,,,,,,,,,,,,,,,,,,,,,,,,,,,,,,,,,,,,,,,,,,,,,,,,,,,,,,,,,,,,,,,,,,,,,,,,,,,,,,,,,,,,,,,,,,,,,,,,,,,,,,,,,,,,,,,,,,,,,,,,,,,,,,,,,,,,,,,,,,,
,,,,,,611d70b44274c0040dc5dd0f,62bbfa7f72d3464813959fdd,2022-06-29_09h09.23.204,Colour_Asymmetry_Pilot,2022.1.3,Win32,30.01380635,62bbe60bf3d75ef465d3e404,0,125,125,87,1,fourthree,,,,,,,,,,,,,,,,,,,,,,,,,,,,,,,,,,,,,,,,,,,,,,,,,,,,,,,,,,,,,,,,,,,,,,,,,,,,,,,,,,,,,,,,,,,,,,,,,,,,,,,,,,,,,,,,,,,,,,,,,,,,,,,,,,,,,,,,,,,,,,,,,,,,,,,,
,,,,,,611d70b44274c0040dc5dd0f,62bbfa7f72d3464813959fdd,2022-06-29_09h09.23.204,Colour_Asymmetry_Pilot,2022.1.3,Win32,30.01380635,62bbe60bf3d75ef465d3e404,0,126,126,62,1,fourtwo,,,,,,,,,,,,,,,,,,,,,,,,,,,,,,,,,,,,,,,,,,,,,,,,,,,,,,,,,,,,,,,,,,,,,,,,,,,,,,,,,,,,,,,,,,,,,,,,,,,,,,,,,,,,,,,,,,,,,,,,,,,,,,,,,,,,,,,,,,,,,,,,,,,,,,,,
,,,,,,611d70b44274c0040dc5dd0f,62bbfa7f72d3464813959fdd,2022-06-29_09h09.23.204,Colour_Asymmetry_Pilot,2022.1.3,Win32,30.01380635,62bbe60bf3d75ef465d3e404,0,127,127,113,1,onethree,,,,,,,,,,,,,,,,,,,,,,,,,,,,,,,,,,,,,,,,,,,,,,,,,,,,,,,,,,,,,,,,,,,,,,,,,,,,,,,,,,,,,,,,,,,,,,,,,,,,,,,,,,,,,,,,,,,,,,,,,,,,,,,,,,,,,,,,,,,,,,,,,,,,,,,,
,,,,,,611d70b44274c0040dc5dd0f,62bbfa7f72d3464813959fdd,2022-06-29_09h09.23.204,Colour_Asymmetry_Pilot,2022.1.3,Win32,30.01380635,62bbe60bf3d75ef465d3e404,0,128,128,40,1,onetwo,,,,,,,,,,,,,,,,,,,,,,,,,,,,,,,,,,,,,,,,,,,,,,,,,,,,,,,,,,,,,,,,,,,,,,,,,,,,,,,,,,,,,,,,,,,,,,,,,,,,,,,,,,,,,,,,,,,,,,,,,,,,,,,,,,,,,,,,,,,,,,,,,,,,,,,,
,,,,,,611d70b44274c0040dc5dd0f,62bbfa7f72d3464813959fdd,2022-06-29_09h09.23.204,Colour_Asymmetry_Pilot,2022.1.3,Win32,30.01380635,62bbe60bf3d75ef465d3e404,0,129,129,161,1,onethree,,,,,,,,,,,,,,,,,,,,,,,,,,,,,,,,,,,,,,,,,,,,,,,,,,,,,,,,,,,,,,,,,,,,,,,,,,,,,,,,,,,,,,,,,,,,,,,,,,,,,,,,,,,,,,,,,,,,,,,,,,,,,,,,,,,,,,,,,,,,,,,,,,,,,,,,
,,,,,,611d70b44274c0040dc5dd0f,62bbfa7f72d3464813959fdd,2022-06-29_09h09.23.204,Colour_Asymmetry_Pilot,2022.1.3,Win32,30.01380635,62bbe60bf3d75ef465d3e404,0,130,130,7,1,fourthree,,,,,,,,,,,,,,,,,,,,,,,,,,,,,,,,,,,,,,,,,,,,,,,,,,,,,,,,,,,,,,,,,,,,,,,,,,,,,,,,,,,,,,,,,,,,,,,,,,,,,,,,,,,,,,,,,,,,,,,,,,,,,,,,,,,,,,,,,,,,,,,,,,,,,,,,
,,,,,,611d70b44274c0040dc5dd0f,62bbfa7f72d3464813959fdd,2022-06-29_09h09.23.204,Colour_Asymmetry_Pilot,2022.1.3,Win32,30.01380635,62bbe60bf3d75ef465d3e404,0,131,131,84,1,threeone,,,,,,,,,,,,,,,,,,,,,,,,,,,,,,,,,,,,,,,,,,,,,,,,,,,,,,,,,,,,,,,,,,,,,,,,,,,,,,,,,,,,,,,,,,,,,,,,,,,,,,,,,,,,,,,,,,,,,,,,,,,,,,,,,,,,,,,,,,,,,,,,,,,,,,,,
,,,,,,611d70b44274c0040dc5dd0f,62bbfa7f72d3464813959fdd,2022-06-29_09h09.23.204,Colour_Asymmetry_Pilot,2022.1.3,Win32,30.01380635,62bbe60bf3d75ef465d3e404,0,132,132,123,1,twofour,,,,,,,,,,,,,,,,,,,,,,,,,,,,,,,,,,,,,,,,,,,,,,,,,,,,,,,,,,,,,,,,,,,,,,,,,,,,,,,,,,,,,,,,,,,,,,,,,,,,,,,,,,,,,,,,,,,,,,,,,,,,,,,,,,,,,,,,,,,,,,,,,,,,,,,,
,,,,,,611d70b44274c0040dc5dd0f,62bbfa7f72d3464813959fdd,2022-06-29_09h09.23.204,Colour_Asymmetry_Pilot,2022.1.3,Win32,30.01380635,62bbe60bf3d75ef465d3e404,0,133,133,68,1,threeone,,,,,,,,,,,,,,,,,,,,,,,,,,,,,,,,,,,,,,,,,,,,,,,,,,,,,,,,,,,,,,,,,,,,,,,,,,,,,,,,,,,,,,,,,,,,,,,,,,,,,,,,,,,,,,,,,,,,,,,,,,,,,,,,,,,,,,,,,,,,,,,,,,,,,,,,
,,,,,,611d70b44274c0040dc5dd0f,62bbfa7f72d3464813959fdd,2022-06-29_09h09.23.204,Colour_Asymmetry_Pilot,2022.1.3,Win32,30.01380635,62bbe60bf3d75ef465d3e404,0,134,134,137,1,onethree,,,,,,,,,,,,,,,,,,,,,,,,,,,,,,,,,,,,,,,,,,,,,,,,,,,,,,,,,,,,,,,,,,,,,,,,,,,,,,,,,,,,,,,,,,,,,,,,,,,,,,,,,,,,,,,,,,,,,,,,,,,,,,,,,,,,,,,,,,,,,,,,,,,,,,,,
,,,,,,611d70b44274c0040dc5dd0f,62bbfa7f72d3464813959fdd,2022-06-29_09h09.23.204,Colour_Asymmetry_Pilot,2022.1.3,Win32,30.01380635,62bbe60bf3d75ef465d3e404,0,135,135,99,1,twofour,,,,,,,,,,,,,,,,,,,,,,,,,,,,,,,,,,,,,,,,,,,,,,,,,,,,,,,,,,,,,,,,,,,,,,,,,,,,,,,,,,,,,,,,,,,,,,,,,,,,,,,,,,,,,,,,,,,,,,,,,,,,,,,,,,,,,,,,,,,,,,,,,,,,,,,,
,,,,,,611d70b44274c0040dc5dd0f,62bbfa7f72d3464813959fdd,2022-06-29_09h09.23.204,Colour_Asymmetry_Pilot,2022.1.3,Win32,30.01380635,62bbe60bf3d75ef465d3e404,0,136,136,19,1,twofour,,,,,,,,,,,,,,,,,,,,,,,,,,,,,,,,,,,,,,,,,,,,,,,,,,,,,,,,,,,,,,,,,,,,,,,,,,,,,,,,,,,,,,,,,,,,,,,,,,,,,,,,,,,,,,,,,,,,,,,,,,,,,,,,,,,,,,,,,,,,,,,,,,,,,,,,
,,,,,,611d70b44274c0040dc5dd0f,62bbfa7f72d3464813959fdd,2022-06-29_09h09.23.204,Colour_Asymmetry_Pilot,2022.1.3,Win32,30.01380635,62bbe60bf3d75ef465d3e404,0,137,137,122,1,twoone,,,,,,,,,,,,,,,,,,,,,,,,,,,,,,,,,,,,,,,,,,,,,,,,,,,,,,,,,,,,,,,,,,,,,,,,,,,,,,,,,,,,,,,,,,,,,,,,,,,,,,,,,,,,,,,,,,,,,,,,,,,,,,,,,,,,,,,,,,,,,,,,,,,,,,,,
,,,,,,611d70b44274c0040dc5dd0f,62bbfa7f72d3464813959fdd,2022-06-29_09h09.23.204,Colour_Asymmetry_Pilot,2022.1.3,Win32,30.01380635,62bbe60bf3d75ef465d3e404,0,138,138,47,1,fourthree,,,,,,,,,,,,,,,,,,,,,,,,,,,,,,,,,,,,,,,,,,,,,,,,,,,,,,,,,,,,,,,,,,,,,,,,,,,,,,,,,,,,,,,,,,,,,,,,,,,,,,,,,,,,,,,,,,,,,,,,,,,,,,,,,,,,,,,,,,,,,,,,,,,,,,,,
,,,,,,611d70b44274c0040dc5dd0f,62bbfa7f72d3464813959fdd,2022-06-29_09h09.23.204,Colour_Asymmetry_Pilot,2022.1.3,Win32,30.01380635,62bbe60bf3d75ef465d3e404,0,139,139,108,1,threeone,,,,,,,,,,,,,,,,,,,,,,,,,,,,,,,,,,,,,,,,,,,,,,,,,,,,,,,,,,,,,,,,,,,,,,,,,,,,,,,,,,,,,,,,,,,,,,,,,,,,,,,,,,,,,,,,,,,,,,,,,,,,,,,,,,,,,,,,,,,,,,,,,,,,,,,,
,,,,,,611d70b44274c0040dc5dd0f,62bbfa7f72d3464813959fdd,2022-06-29_09h09.23.204,Colour_Asymmetry_Pilot,2022.1.3,Win32,30.01380635,62bbe60bf3d75ef465d3e404,0,140,140,83,1,twofour,,,,,,,,,,,,,,,,,,,,,,,,,,,,,,,,,,,,,,,,,,,,,,,,,,,,,,,,,,,,,,,,,,,,,,,,,,,,,,,,,,,,,,,,,,,,,,,,,,,,,,,,,,,,,,,,,,,,,,,,,,,,,,,,,,,,,,,,,,,,,,,,,,,,,,,,
,,,,,,611d70b44274c0040dc5dd0f,62bbfa7f72d3464813959fdd,2022-06-29_09h09.23.204,Colour_Asymmetry_Pilot,2022.1.3,Win32,30.01380635,62bbe60bf3d75ef465d3e404,0,141,141,55,1,fourthree,,,,,,,,,,,,,,,,,,,,,,,,,,,,,,,,,,,,,,,,,,,,,,,,,,,,,,,,,,,,,,,,,,,,,,,,,,,,,,,,,,,,,,,,,,,,,,,,,,,,,,,,,,,,,,,,,,,,,,,,,,,,,,,,,,,,,,,,,,,,,,,,,,,,,,,,
,,,,,,611d70b44274c0040dc5dd0f,62bbfa7f72d3464813959fdd,2022-06-29_09h09.23.204,Colour_Asymmetry_Pilot,2022.1.3,Win32,30.01380635,62bbe60bf3d75ef465d3e404,0,142,142,20,1,threeone,,,,,,,,,,,,,,,,,,,,,,,,,,,,,,,,,,,,,,,,,,,,,,,,,,,,,,,,,,,,,,,,,,,,,,,,,,,,,,,,,,,,,,,,,,,,,,,,,,,,,,,,,,,,,,,,,,,,,,,,,,,,,,,,,,,,,,,,,,,,,,,,,,,,,,,,
,,,,,,611d70b44274c0040dc5dd0f,62bbfa7f72d3464813959fdd,2022-06-29_09h09.23.204,Colour_Asymmetry_Pilot,2022.1.3,Win32,30.01380635,62bbe60bf3d75ef465d3e404,0,143,143,67,1,twofour,,,,,,,,,,,,,,,,,,,,,,,,,,,,,,,,,,,,,,,,,,,,,,,,,,,,,,,,,,,,,,,,,,,,,,,,,,,,,,,,,,,,,,,,,,,,,,,,,,,,,,,,,,,,,,,,,,,,,,,,,,,,,,,,,,,,,,,,,,,,,,,,,,,,,,,,
,,,,,,611d70b44274c0040dc5dd0f,62bbfa7f72d3464813959fdd,2022-06-29_09h09.23.204,Colour_Asymmetry_Pilot,2022.1.3,Win32,30.01380635,62bbe60bf3d75ef465d3e404,0,144,144,131,1,twofour,,,,,,,,,,,,,,,,,,,,,,,,,,,,,,,,,,,,,,,,,,,,,,,,,,,,,,,,,,,,,,,,,,,,,,,,,,,,,,,,,,,,,,,,,,,,,,,,,,,,,,,,,,,,,,,,,,,,,,,,,,,,,,,,,,,,,,,,,,,,,,,,,,,,,,,,
,,,,,,611d70b44274c0040dc5dd0f,62bbfa7f72d3464813959fdd,2022-06-29_09h09.23.204,Colour_Asymmetry_Pilot,2022.1.3,Win32,30.01380635,62bbe60bf3d75ef465d3e404,0,145,145,138,1,twoone,,,,,,,,,,,,,,,,,,,,,,,,,,,,,,,,,,,,,,,,,,,,,,,,,,,,,,,,,,,,,,,,,,,,,,,,,,,,,,,,,,,,,,,,,,,,,,,,,,,,,,,,,,,,,,,,,,,,,,,,,,,,,,,,,,,,,,,,,,,,,,,,,,,,,,,,
,,,,,,611d70b44274c0040dc5dd0f,62bbfa7f72d3464813959fdd,2022-06-29_09h09.23.204,Colour_Asymmetry_Pilot,2022.1.3,Win32,30.01380635,62bbe60bf3d75ef465d3e404,0,146,146,26,1,twoone,,,,,,,,,,,,,,,,,,,,,,,,,,,,,,,,,,,,,,,,,,,,,,,,,,,,,,,,,,,,,,,,,,,,,,,,,,,,,,,,,,,,,,,,,,,,,,,,,,,,,,,,,,,,,,,,,,,,,,,,,,,,,,,,,,,,,,,,,,,,,,,,,,,,,,,,
,,,,,,611d70b44274c0040dc5dd0f,62bbfa7f72d3464813959fdd,2022-06-29_09h09.23.204,Colour_Asymmetry_Pilot,2022.1.3,Win32,30.01380635,62bbe60bf3d75ef465d3e404,0,147,147,43,1,twofour,,,,,,,,,,,,,,,,,,,,,,,,,,,,,,,,,,,,,,,,,,,,,,,,,,,,,,,,,,,,,,,,,,,,,,,,,,,,,,,,,,,,,,,,,,,,,,,,,,,,,,,,,,,,,,,,,,,,,,,,,,,,,,,,,,,,,,,,,,,,,,,,,,,,,,,,
,,,,,,611d70b44274c0040dc5dd0f,62bbfa7f72d3464813959fdd,2022-06-29_09h09.23.204,Colour_Asymmetry_Pilot,2022.1.3,Win32,30.01380635,62bbe60bf3d75ef465d3e404,0,148,148,22,1,fourtwo,,,,,,,,,,,,,,,,,,,,,,,,,,,,,,,,,,,,,,,,,,,,,,,,,,,,,,,,,,,,,,,,,,,,,,,,,,,,,,,,,,,,,,,,,,,,,,,,,,,,,,,,,,,,,,,,,,,,,,,,,,,,,,,,,,,,,,,,,,,,,,,,,,,,,,,,
,,,,,,611d70b44274c0040dc5dd0f,62bbfa7f72d3464813959fdd,2022-06-29_09h09.23.204,Colour_Asymmetry_Pilot,2022.1.3,Win32,30.01380635,62bbe60bf3d75ef465d3e404,0,149,149,52,1,threeone,,,,,,,,,,,,,,,,,,,,,,,,,,,,,,,,,,,,,,,,,,,,,,,,,,,,,,,,,,,,,,,,,,,,,,,,,,,,,,,,,,,,,,,,,,,,,,,,,,,,,,,,,,,,,,,,,,,,,,,,,,,,,,,,,,,,,,,,,,,,,,,,,,,,,,,,
,,,,,,611d70b44274c0040dc5dd0f,62bbfa7f72d3464813959fdd,2022-06-29_09h09.23.204,Colour_Asymmetry_Pilot,2022.1.3,Win32,30.01380635,62bbe60bf3d75ef465d3e404,0,150,150,0,1,onetwo,,,,,,,,,,,,,,,,,,,,,,,,,,,,,,,,,,,,,,,,,,,,,,,,,,,,,,,,,,,,,,,,,,,,,,,,,,,,,,,,,,,,,,,,,,,,,,,,,,,,,,,,,,,,,,,,,,,,,,,,,,,,,,,,,,,,,,,,,,,,,,,,,,,,,,,,
,,,,,,611d70b44274c0040dc5dd0f,62bbfa7f72d3464813959fdd,2022-06-29_09h09.23.204,Colour_Asymmetry_Pilot,2022.1.3,Win32,30.01380635,62bbe60bf3d75ef465d3e404,0,151,151,140,1,threeone,,,,,,,,,,,,,,,,,,,,,,,,,,,,,,,,,,,,,,,,,,,,,,,,,,,,,,,,,,,,,,,,,,,,,,,,,,,,,,,,,,,,,,,,,,,,,,,,,,,,,,,,,,,,,,,,,,,,,,,,,,,,,,,,,,,,,,,,,,,,,,,,,,,,,,,,
,,,,,,611d70b44274c0040dc5dd0f,62bbfa7f72d3464813959fdd,2022-06-29_09h09.23.204,Colour_Asymmetry_Pilot,2022.1.3,Win32,30.01380635,62bbe60bf3d75ef465d3e404,0,152,152,126,1,fourtwo,,,,,,,,,,,,,,,,,,,,,,,,,,,,,,,,,,,,,,,,,,,,,,,,,,,,,,,,,,,,,,,,,,,,,,,,,,,,,,,,,,,,,,,,,,,,,,,,,,,,,,,,,,,,,,,,,,,,,,,,,,,,,,,,,,,,,,,,,,,,,,,,,,,,,,,,
,,,,,,611d70b44274c0040dc5dd0f,62bbfa7f72d3464813959fdd,2022-06-29_09h09.23.204,Colour_Asymmetry_Pilot,2022.1.3,Win32,30.01380635,62bbe60bf3d75ef465d3e404,0,153,153,74,1,twoone,,,,,,,,,,,,,,,,,,,,,,,,,,,,,,,,,,,,,,,,,,,,,,,,,,,,,,,,,,,,,,,,,,,,,,,,,,,,,,,,,,,,,,,,,,,,,,,,,,,,,,,,,,,,,,,,,,,,,,,,,,,,,,,,,,,,,,,,,,,,,,,,,,,,,,,,
,,,,,,611d70b44274c0040dc5dd0f,62bbfa7f72d3464813959fdd,2022-06-29_09h09.23.204,Colour_Asymmetry_Pilot,2022.1.3,Win32,30.01380635,62bbe60bf3d75ef465d3e404,0,154,154,93,1,threefour,,,,,,,,,,,,,,,,,,,,,,,,,,,,,,,,,,,,,,,,,,,,,,,,,,,,,,,,,,,,,,,,,,,,,,,,,,,,,,,,,,,,,,,,,,,,,,,,,,,,,,,,,,,,,,,,,,,,,,,,,,,,,,,,,,,,,,,,,,,,,,,,,,,,,,,,
,,,,,,611d70b44274c0040dc5dd0f,62bbfa7f72d3464813959fdd,2022-06-29_09h09.23.204,Colour_Asymmetry_Pilot,2022.1.3,Win32,30.01380635,62bbe60bf3d75ef465d3e404,0,155,155,76,1,threeone,,,,,,,,,,,,,,,,,,,,,,,,,,,,,,,,,,,,,,,,,,,,,,,,,,,,,,,,,,,,,,,,,,,,,,,,,,,,,,,,,,,,,,,,,,,,,,,,,,,,,,,,,,,,,,,,,,,,,,,,,,,,,,,,,,,,,,,,,,,,,,,,,,,,,,,,
,,,,,,611d70b44274c0040dc5dd0f,62bbfa7f72d3464813959fdd,2022-06-29_09h09.23.204,Colour_Asymmetry_Pilot,2022.1.3,Win32,30.01380635,62bbe60bf3d75ef465d3e404,0,156,156,125,1,threefour,,,,,,,,,,,,,,,,,,,,,,,,,,,,,,,,,,,,,,,,,,,,,,,,,,,,,,,,,,,,,,,,,,,,,,,,,,,,,,,,,,,,,,,,,,,,,,,,,,,,,,,,,,,,,,,,,,,,,,,,,,,,,,,,,,,,,,,,,,,,,,,,,,,,,,,,
,,,,,,611d70b44274c0040dc5dd0f,62bbfa7f72d3464813959fdd,2022-06-29_09h09.23.204,Colour_Asymmetry_Pilot,2022.1.3,Win32,30.01380635,62bbe60bf3d75ef465d3e404,0,157,157,57,1,onethree,,,,,,,,,,,,,,,,,,,,,,,,,,,,,,,,,,,,,,,,,,,,,,,,,,,,,,,,,,,,,,,,,,,,,,,,,,,,,,,,,,,,,,,,,,,,,,,,,,,,,,,,,,,,,,,,,,,,,,,,,,,,,,,,,,,,,,,,,,,,,,,,,,,,,,,,
,,,,,,611d70b44274c0040dc5dd0f,62bbfa7f72d3464813959fdd,2022-06-29_09h09.23.204,Colour_Asymmetry_Pilot,2022.1.3,Win32,30.01380635,62bbe60bf3d75ef465d3e404,0,158,158,100,1,threeone,,,,,,,,,,,,,,,,,,,,,,,,,,,,,,,,,,,,,,,,,,,,,,,,,,,,,,,,,,,,,,,,,,,,,,,,,,,,,,,,,,,,,,,,,,,,,,,,,,,,,,,,,,,,,,,,,,,,,,,,,,,,,,,,,,,,,,,,,,,,,,,,,,,,,,,,
,,,,,,611d70b44274c0040dc5dd0f,62bbfa7f72d3464813959fdd,2022-06-29_09h09.23.204,Colour_Asymmetry_Pilot,2022.1.3,Win32,30.01380635,62bbe60bf3d75ef465d3e404,0,159,159,141,1,threefour,,,,,,,,,,,,,,,,,,,,,,,,,,,,,,,,,,,,,,,,,,,,,,,,,,,,,,,,,,,,,,,,,,,,,,,,,,,,,,,,,,,,,,,,,,,,,,,,,,,,,,,,,,,,,,,,,,,,,,,,,,,,,,,,,,,,,,,,,,,,,,,,,,,,,,,,
,,,,,,611d70b44274c0040dc5dd0f,62bbfa7f72d3464813959fdd,2022-06-29_09h09.23.204,Colour_Asymmetry_Pilot,2022.1.3,Win32,30.01380635,62bbe60bf3d75ef465d3e404,0,160,160,33,1,onethree,,,,,,,,,,,,,,,,,,,,,,,,,,,,,,,,,,,,,,,,,,,,,,,,,,,,,,,,,,,,,,,,,,,,,,,,,,,,,,,,,,,,,,,,,,,,,,,,,,,,,,,,,,,,,,,,,,,,,,,,,,,,,,,,,,,,,,,,,,,,,,,,,,,,,,,,
,,,,,,611d70b44274c0040dc5dd0f,62bbfa7f72d3464813959fdd,2022-06-29_09h09.23.204,Colour_Asymmetry_Pilot,2022.1.3,Win32,30.01380635,62bbe60bf3d75ef465d3e404,0,161,161,28,1,threeone,,,,,,,,,,,,,,,,,,,,,,,,,,,,,,,,,,,,,,,,,,,,,,,,,,,,,,,,,,,,,,,,,,,,,,,,,,,,,,,,,,,,,,,,,,,,,,,,,,,,,,,,,,,,,,,,,,,,,,,,,,,,,,,,,,,,,,,,,,,,,,,,,,,,,,,,
,,,,,,611d70b44274c0040dc5dd0f,62bbfa7f72d3464813959fdd,2022-06-29_09h09.23.204,Colour_Asymmetry_Pilot,2022.1.3,Win32,30.01380635,62bbe60bf3d75ef465d3e404,,,,,,,space,3.6206,space,80.1627,space,81.5749,space,29.0715,space,5.6595,space,7.2547,"[0.04299999999999993,0.16060000000000008,-0.6628000000000001]",fourthree,"[-0.7412000000000001,-0.08239999999999992,-0.6864]",4,13.622,40.66668701,81.33331299,1,0,0,response1disk_5,14,-3.333343506,1,0,0,rectangle_8,14,-3.333343506,1,0,0,3,14,-3.333343506,1,0,0,0,0,0,0,1,,,,,,,,,,,,,,,,,,,,,,,,,,,,,,,,,,,,,,,,,,,,,,,,,,,,,,,,,,,,,,,,,,,,,,,,,,,,,,,,,,,,,,,,,,,,,,,,,,,,,,,,,,,
,,,,,,611d70b44274c0040dc5dd0f,62bbfa7f72d3464813959fdd,2022-06-29_09h09.23.204,Colour_Asymmetry_Pilot,2022.1.3,Win32,30.01380635,62bbe60bf3d75ef465d3e404,,,,,,,,,,,,,,,,,,,"[0.6625999999999999,0.4980000000000002,-0.357]",onetwo,"[-0.9138,-0.5296000000000001,-0.5529999999999999]",-4,3.362,-39.33331299,74,1,0,0,response7disk_5,14.66668701,-4.666687012,1,0,0,rectangle_8,14.66668701,-4.666687012,1,0,0,3,14.66668701,-4.666687012,1,0,0,1,0,1,0,1,,,,,,,,,,,,,,,,,,,,,,,,,,,,,,,,,,,,,,,,,,,,,,,,,,,,,,,,,,,,,,,,,,,,,,,,,,,,,,,,,,,,,,,,,,,,,,,,,,,,,,,,,,,
,,,,,,611d70b44274c0040dc5dd0f,62bbfa7f72d3464813959fdd,2022-06-29_09h09.23.204,Colour_Asymmetry_Pilot,2022.1.3,Win32,30.01380635,62bbe60bf3d75ef465d3e404,,,,,,,,,,,,,,,,,,,"[0.18419999999999992,-0.4276,-0.404]",twofour,"[-0.6706000000000001,-0.6157999999999999,-0.6786]",-4,2.034,-35.33331299,78,1,0,0,response7disk_5,-8.666625977,-3.333343506,1,0,0,rectangle_8,74.66668701,42.66665649,1,0,0,3,-13.33331299,2.666656494,1,0,0,2,0,2,0,1,response1disk_7,6,rectangle_4,,,,,,,,,,,,,,,,,,,,,,,,,,,,,,,,,,,,,,,,,,,,,,,,,,,,,,,,,,,,,,,,,,,,,,,,,,,,,,,,,,,,,,,,,,,,,,,,,,,,,,,,
,,,,,,611d70b44274c0040dc5dd0f,62bbfa7f72d3464813959fdd,2022-06-29_09h09.23.204,Colour_Asymmetry_Pilot,2022.1.3,Win32,30.01380635,62bbe60bf3d75ef465d3e404,,,,,,,,,,,,,,,,,,,"[-0.5922000000000001,-0.7492000000000001,-0.5296000000000001]",fourthree,"[-0.5922000000000001,-0.7492000000000001,-0.5296000000000001]",4,1.4261,41.33337402,101.333313,1,0,0,response1disk_5,-14.66662598,2,1,0,0,rectangle_8,-14.66662598,2,1,0,0,3,-14.66662598,2,1,0,0,3,0,3,0,1,,,,,,,,,,,,,,,,,,,,,,,,,,,,,,,,,,,,,,,,,,,,,,,,,,,,,,,,,,,,,,,,,,,,,,,,,,,,,,,,,,,,,,,,,,,,,,,,,,,,,,,,,,,
,,,,,,611d70b44274c0040dc5dd0f,62bbfa7f72d3464813959fdd,2022-06-29_09h09.23.204,Colour_Asymmetry_Pilot,2022.1.3,Win32,30.01380635,62bbe60bf3d75ef465d3e404,,,,,,,,,,,,,,,,,,,"[0.9842,0.7409999999999999,-0.6628000000000001]",twofour,"[-0.4276,0.0038000000000000256,-0.3256]",-4,1.3074,-30,64,1,0,0,response7disk_5,3.333374023,6.666656494,1,0,0,rectangle_8,75.33337402,32.66665649,1,0,0,3,0,2.666656494,1,0,0,4,0,4,0,1,response1disk_7,6,rectangle_4,,,,,,,,,,,,,,,,,,,,,,,,,,,,,,,,,,,,,,,,,,,,,,,,,,,,,,,,,,,,,,,,,,,,,,,,,,,,,,,,,,,,,,,,,,,,,,,,,,,,,,,,
,,,,,,611d70b44274c0040dc5dd0f,62bbfa7f72d3464813959fdd,2022-06-29_09h09.23.204,Colour_Asymmetry_Pilot,2022.1.3,Win32,30.01380635,62bbe60bf3d75ef465d3e404,,,,,,,,,,,,,,,,,,,"[-0.20799999999999996,-0.655,-0.01980000000000004]",twoone,"[-0.34920000000000007,-0.702,-0.5216]",-4,1.3141,-34.66662598,67.33331299,1,0,0,response7disk_5,-2.666625977,8.666656494,1,0,0,rectangle_8,-2.666625977,8.666656494,1,0,0,3,-2.666625977,8.666656494,1,0,0,5,0,5,0,1,,,,,,,,,,,,,,,,,,,,,,,,,,,,,,,,,,,,,,,,,,,,,,,,,,,,,,,,,,,,,,,,,,,,,,,,,,,,,,,,,,,,,,,,,,,,,,,,,,,,,,,,,,,
,,,,,,611d70b44274c0040dc5dd0f,62bbfa7f72d3464813959fdd,2022-06-29_09h09.23.204,Colour_Asymmetry_Pilot,2022.1.3,Win32,30.01380635,62bbe60bf3d75ef465d3e404,,,,,,,,,,,,,,,,,,,"[0.11359999999999992,0.6312,0.5213999999999999]",onethree,"[0.18419999999999992,-0.4276,-0.404]",-4,1.2784,-31.33331299,80,1,0,0,response7disk_5,-7.333312988,8,1,0,0,rectangle_8,-7.333312988,8,1,0,0,3,-7.333312988,8,1,0,0,6,0,6,0,1,,,,,,,,,,,,,,,,,,,,,,,,,,,,,,,,,,,,,,,,,,,,,,,,,,,,,,,,,,,,,,,,,,,,,,,,,,,,,,,,,,,,,,,,,,,,,,,,,,,,,,,,,,,
,,,,,,611d70b44274c0040dc5dd0f,62bbfa7f72d3464813959fdd,2022-06-29_09h09.23.204,Colour_Asymmetry_Pilot,2022.1.3,Win32,30.01380635,62bbe60bf3d75ef465d3e404,,,,,,,,,,,,,,,,,,,,threefour,,-4,3.5024,,,,,,,,,,,,,,,,,,,,,,,,,,,,,,,,space,5.1413,"[0.9842,0.7409999999999999,-0.6628000000000001]","[-0.34920000000000007,-0.702,-0.5216]",-37.33331299,78,1,0,0,response7disk,-8,1.333312988,1,0,0,rectangle,-8,1.333312988,1,0,0,,1,0.0029,0,-8,1.333312988,1,0,0,0,0,0,103,1,22,second,,,,,,,,,,,,,,,,,,,,,,,,,,,,,,,,,,,,,,,,,,,,,,,,,,,,,,,,,,,,,,,,,,,
,,,,,,611d70b44274c0040dc5dd0f,62bbfa7f72d3464813959fdd,2022-06-29_09h09.23.204,Colour_Asymmetry_Pilot,2022.1.3,Win32,30.01380635,62bbe60bf3d75ef465d3e404,,,,,,,,,,,,,,,,,,,,fourthree,,-4,1.0577,,,,,,,,,,,,,,,,,,,,,,,,,,,,,,,,,,"[-0.07459999999999989,0.12139999999999995,-0.9922]","[-0.9766,-0.6472,0.07440000000000002]",-24,86,1,0,0,response7disk,-12,1.333312988,1,0,0,rectangle,-12,1.333312988,1,0,0,,2,0.0022,0,-12,1.333312988,1,0,0,0,1,1,138,1,57,second,,,,,,,,,,,,,,,,,,,,,,,,,,,,,,,,,,,,,,,,,,,,,,,,,,,,,,,,,,,,,,,,,,,
,,,,,,611d70b44274c0040dc5dd0f,62bbfa7f72d3464813959fdd,2022-06-29_09h09.23.204,Colour_Asymmetry_Pilot,2022.1.3,Win32,30.01380635,62bbe60bf3d75ef465d3e404,,,,,,,,,,,,,,,,,,,,fourtwo,,-4,1.5171,,,,,,,,,,,,,,,,,,,,,,,,,,,,,,,,,,"[-0.24719999999999998,-0.0354000000000001,0.3175999999999999]","[-0.26280000000000003,-0.4746,-0.2158]",-42,64,1,0,0,response7disk,-14.66662598,10,1,0,0,rectangle,-14.66662598,10,1,0,0,,3,0.0013,0,-14.66662598,10,1,0,0,0,2,2,157,1,76,second,,,,,,,,,,,,,,,,,,,,,,,,,,,,,,,,,,,,,,,,,,,,,,,,,,,,,,,,,,,,,,,,,,,
,,,,,,611d70b44274c0040dc5dd0f,62bbfa7f72d3464813959fdd,2022-06-29_09h09.23.204,Colour_Asymmetry_Pilot,2022.1.3,Win32,30.01380635,62bbe60bf3d75ef465d3e404,,,,,,,,,,,,,,,,,,,,fourthree,,4,1.2952,,,,,,,,,,,,,,,,,,,,,,,,,,,,,,,,,,"[0.7176,-0.906,-0.6864]","[0.34099999999999997,0.12939999999999996,-0.9766]",26,87.33331299,1,0,0,response1disk,-5.333312988,-9.333343506,1,0,0,rectangle,-5.333312988,-9.333343506,1,0,0,,2,0.0034,0,-5.333312988,-9.333343506,1,0,0,0,3,3,110,1,29,second,,,,,,,,,,,,,,,,,,,,,,,,,,,,,,,,,,,,,,,,,,,,,,,,,,,,,,,,,,,,,,,,,,,
,,,,,,611d70b44274c0040dc5dd0f,62bbfa7f72d3464813959fdd,2022-06-29_09h09.23.204,Colour_Asymmetry_Pilot,2022.1.3,Win32,30.01380635,62bbe60bf3d75ef465d3e404,,,,,,,,,,,,,,,,,,,,twoone,,-4,1.061,,,,,,,,,,,,,,,,,,,,,,,,,,,,,,,,,,"[-0.9688,-0.7412000000000001,-0.4902000000000001]","[1,0.12939999999999996,-1]",-30,68,1,0,0,response7disk,-2,2,1,0,0,rectangle,-2,2,1,0,0,,2,0.0003,0,-2,2,1,0,0,0,4,4,115,1,34,second,,,,,,,,,,,,,,,,,,,,,,,,,,,,,,,,,,,,,,,,,,,,,,,,,,,,,,,,,,,,,,,,,,,
,,,,,,611d70b44274c0040dc5dd0f,62bbfa7f72d3464813959fdd,2022-06-29_09h09.23.204,Colour_Asymmetry_Pilot,2022.1.3,Win32,30.01380635,62bbe60bf3d75ef465d3e404,,,,,,,,,,,,,,,,,,,,twoone,,-4,0.7794,,,,,,,,,,,,,,,,,,,,,,,,,,,,,,,,,,"[0.9372,0.20779999999999998,0.2704]","[-0.4902000000000001,0.2704,-0.45899999999999996]",-22.66662598,49.33331299,1,0,0,response7disk,-11.33331299,13.33331299,1,0,0,rectangle,-11.33331299,13.33331299,1,0,0,,3,0.0012,0,-11.33331299,13.33331299,1,0,0,0,5,5,23,1,23,first,,,,,,,,,,,,,,,,,,,,,,,,,,,,,,,,,,,,,,,,,,,,,,,,,,,,,,,,,,,,,,,,,,,
,,,,,,611d70b44274c0040dc5dd0f,62bbfa7f72d3464813959fdd,2022-06-29_09h09.23.204,Colour_Asymmetry_Pilot,2022.1.3,Win32,30.01380635,62bbe60bf3d75ef465d3e404,,,,,,,,,,,,,,,,,,,,threefour,,-4,0.6852,,,,,,,,,,,,,,,,,,,,,,,,,,,,,,,,,,"[-0.01980000000000004,-0.5138,-0.38039999999999996]","[0.796,0.2156,-0.27859999999999996]",-53.33331299,80.66665649,1,0,0,response7disk,-12,4,1,0,0,rectangle,-12,4,1,0,0,,3,0.0003,0,-12,4,1,0,0,0,6,6,7,1,7,first,,,,,,,,,,,,,,,,,,,,,,,,,,,,,,,,,,,,,,,,,,,,,,,,,,,,,,,,,,,,,,,,,,,
,,,,,,611d70b44274c0040dc5dd0f,62bbfa7f72d3464813959fdd,2022-06-29_09h09.23.204,Colour_Asymmetry_Pilot,2022.1.3,Win32,30.01380635,62bbe60bf3d75ef465d3e404,,,,,,,,,,,,,,,,,,,,onethree,,-4,0.838,,,,,,,,,,,,,,,,,,,,,,,,,,,,,,,,,,"[-0.9688,-0.4902000000000001,-0.12159999999999993]","[0.9686000000000001,0.5763999999999998,0.11359999999999992]",-33.33331299,78.66665649,1,0,0,response7disk,-3.333312988,6.666656494,1,0,0,rectangle,-3.333312988,6.666656494,1,0,0,,2,0.0021,0,-3.333312988,6.666656494,1,0,0,0,7,7,13,1,13,first,,,,,,,,,,,,,,,,,,,,,,,,,,,,,,,,,,,,,,,,,,,,,,,,,,,,,,,,,,,,,,,,,,,
,,,,,,611d70b44274c0040dc5dd0f,62bbfa7f72d3464813959fdd,2022-06-29_09h09.23.204,Colour_Asymmetry_Pilot,2022.1.3,Win32,30.01380635,62bbe60bf3d75ef465d3e404,,,,,,,,,,,,,,,,,,,,onethree,,-4,7.6087,,,,,,,,,,,,,,,,,,,,,,,,,,,,,,,,,,"[-0.07459999999999989,0.12139999999999995,-0.9922]","[0.9213999999999998,0.6391999999999998,-0.9922]",-35.33331299,68,1,0,0,response7disk,-6,1.333312988,1,0,0,rectangle,-6,1.333312988,1,0,0,,1,0.0019,0,-6,1.333312988,1,0,0,0,8,8,44,1,44,first,,,,,,,,,,,,,,,,,,,,,,,,,,,,,,,,,,,,,,,,,,,,,,,,,,,,,,,,,,,,,,,,,,,
,,,,,,611d70b44274c0040dc5dd0f,62bbfa7f72d3464813959fdd,2022-06-29_09h09.23.204,Colour_Asymmetry_Pilot,2022.1.3,Win32,30.01380635,62bbe60bf3d75ef465d3e404,,,,,,,,,,,,,,,,,,,,fourtwo,,-4,3.3049,,,,,,,,,,,,,,,,,,,,,,,,,,,,,,,,,,"[-0.0040000000000000036,0.02739999999999987,-0.08239999999999992]","[-0.9138,-0.5296000000000001,-0.5529999999999999]",-34.66662598,52,1,0,0,response7disk,-16.66662598,-5.333343506,1,0,0,rectangle,-16.66662598,-5.333343506,1,0,0,,1,0.0002,0,-16.66662598,-5.333343506,1,0,0,0,9,9,47,1,47,first,,,,,,,,,,,,,,,,,,,,,,,,,,,,,,,,,,,,,,,,,,,,,,,,,,,,,,,,,,,,,,,,,,,
,,,,,,611d70b44274c0040dc5dd0f,62bbfa7f72d3464813959fdd,2022-06-29_09h09.23.204,Colour_Asymmetry_Pilot,2022.1.3,Win32,30.01380635,62bbe60bf3d75ef465d3e404,,,,,,,,,,,,,,,,,,,,onetwo,,4,0.7775,,,,,,,,,,,,,,,,,,,,,,,,,,,,,,,,,,"[-0.48240000000000005,0.3175999999999999,0.2156]","[-0.4746,-0.0354000000000001,0.5449999999999999]",57.33337402,100,1,0,0,response1disk,5.333374023,0,1,0,0,rectangle,5.333374023,0,1,0,0,,3,0.0016,0,5.333374023,0,1,0,0,0,10,10,48,1,48,first,,,,,,,,,,,,,,,,,,,,,,,,,,,,,,,,,,,,,,,,,,,,,,,,,,,,,,,,,,,,,,,,,,,
,,,,,,611d70b44274c0040dc5dd0f,62bbfa7f72d3464813959fdd,2022-06-29_09h09.23.204,Colour_Asymmetry_Pilot,2022.1.3,Win32,30.01380635,62bbe60bf3d75ef465d3e404,,,,,,,,,,,,,,,,,,,,fourtwo,,-4,1.1706,,,,,,,,,,,,,,,,,,,,,,,,,,,,,,,,,,"[0.37240000000000006,-0.050999999999999934,-0.5216]","[-0.011800000000000033,-0.906,-0.45100000000000007]",-34,71.33331299,1,0,0,response7disk,-2,3.333312988,1,0,0,rectangle,-2,3.333312988,1,0,0,,3,0.0003,0,-2,3.333312988,1,0,0,0,11,11,141,1,60,second,,,,,,,,,,,,,,,,,,,,,,,,,,,,,,,,,,,,,,,,,,,,,,,,,,,,,,,,,,,,,,,,,,,
,,,,,,611d70b44274c0040dc5dd0f,62bbfa7f72d3464813959fdd,2022-06-29_09h09.23.204,Colour_Asymmetry_Pilot,2022.1.3,Win32,30.01380635,62bbe60bf3d75ef465d3e404,,,,,,,,,,,,,,,,,,,,onetwo,,4,1.0357,,,,,,,,,,,,,,,,,,,,,,,,,,,,,,,,,,"[-0.6942,-0.7648,-0.12959999999999994]","[-0.9766,-0.34920000000000007,0.2156]",29.33337402,67.33331299,1,0,0,response1disk,9.333374023,-6.666687012,1,0,0,rectangle,9.333374023,-6.666687012,1,0,0,,3,0.0003,0,9.333374023,-6.666687012,1,0,0,0,12,12,67,1,67,first,,,,,,,,,,,,,,,,,,,,,,,,,,,,,,,,,,,,,,,,,,,,,,,,,,,,,,,,,,,,,,,,,,,
,,,,,,611d70b44274c0040dc5dd0f,62bbfa7f72d3464813959fdd,2022-06-29_09h09.23.204,Colour_Asymmetry_Pilot,2022.1.3,Win32,30.01380635,62bbe60bf3d75ef465d3e404,,,,,,,,,,,,,,,,,,,,twofour,,-4,0.8409,,,,,,,,,,,,,,,,,,,,,,,,,,,,,,,,,,"[0.40379999999999994,0.09000000000000008,0.44300000000000006]","[0.6547999999999998,-0.043199999999999905,-0.011800000000000033]",-20,55.33331299,1,0,0,response7disk,-4,2,1,0,0,rectangle,-4,2,1,0,0,,3,0.0003,0,-4,2,1,0,0,0,13,13,49,1,49,first,,,,,,,,,,,,,,,,,,,,,,,,,,,,,,,,,,,,,,,,,,,,,,,,,,,,,,,,,,,,,,,,,,,
,,,,,,611d70b44274c0040dc5dd0f,62bbfa7f72d3464813959fdd,2022-06-29_09h09.23.204,Colour_Asymmetry_Pilot,2022.1.3,Win32,30.01380635,62bbe60bf3d75ef465d3e404,,,,,,,,,,,,,,,,,,,,threefour,,-4,0.6551,,,,,,,,,,,,,,,,,,,,,,,,,,,,,,,,,,"[0.12939999999999996,-0.2864,0.3253999999999999]","[-0.4902000000000001,0.2704,-0.45899999999999996]",-24,62.66665649,1,0,0,response7disk,-6,5.333312988,1,0,0,rectangle,-6,5.333312988,1,0,0,,1,0.0013,0,-6,5.333312988,1,0,0,0,14,14,45,1,45,first,,,,,,,,,,,,,,,,,,,,,,,,,,,,,,,,,,,,,,,,,,,,,,,,,,,,,,,,,,,,,,,,,,,
,,,,,,611d70b44274c0040dc5dd0f,62bbfa7f72d3464813959fdd,2022-06-29_09h09.23.204,Colour_Asymmetry_Pilot,2022.1.3,Win32,30.01380635,62bbe60bf3d75ef465d3e404,,,,,,,,,,,,,,,,,,,,twoone,,4,1.177,,,,,,,,,,,,,,,,,,,,,,,,,,,,,,,,,,"[-0.48240000000000005,0.3175999999999999,0.2156]","[-0.9688,-0.38039999999999996,-0.41979999999999995]",34.66668701,84.66665649,1,0,0,response1disk,-12.66662598,5.333312988,1,0,0,rectangle,-12.66662598,5.333312988,1,0,0,,3,0.0016,0,-12.66662598,5.333312988,1,0,0,0,15,15,82,1,1,second,,,,,,,,,,,,,,,,,,,,,,,,,,,,,,,,,,,,,,,,,,,,,,,,,,,,,,,,,,,,,,,,,,,
,,,,,,611d70b44274c0040dc5dd0f,62bbfa7f72d3464813959fdd,2022-06-29_09h09.23.204,Colour_Asymmetry_Pilot,2022.1.3,Win32,30.01380635,62bbe60bf3d75ef465d3e404,,,,,,,,,,,,,,,,,,,,twoone,,4,1.3,,,,,,,,,,,,,,,,,,,,,,,,,,,,,,,,,,"[-0.9766,-0.34920000000000007,0.2156]","[-0.6942,-0.7648,-0.12959999999999994]",31.33337402,74,1,0,0,response1disk,-16,4,1,0,0,rectangle,-16,4,1,0,0,,1,0.0018,0,-16,4,1,0,0,0,16,16,148,1,67,second,,,,,,,,,,,,,,,,,,,,,,,,,,,,,,,,,,,,,,,,,,,,,,,,,,,,,,,,,,,,,,,,,,,
,,,,,,611d70b44274c0040dc5dd0f,62bbfa7f72d3464813959fdd,2022-06-29_09h09.23.204,Colour_Asymmetry_Pilot,2022.1.3,Win32,30.01380635,62bbe60bf3d75ef465d3e404,,,,,,,,,,,,,,,,,,,,threefour,,4,1.1722,,,,,,,,,,,,,,,,,,,,,,,,,,,,,,,,,,"[0.0351999999999999,0.41159999999999997,0.0038000000000000256]","[-0.24719999999999998,0.5213999999999999,-0.12959999999999994]",26.66668701,82,1,0,0,response1disk,-10,-2,1,0,0,rectangle,-10,-2,1,0,0,,2,0.0025,0,-10,-2,1,0,0,0,17,17,39,1,39,first,,,,,,,,,,,,,,,,,,,,,,,,,,,,,,,,,,,,,,,,,,,,,,,,,,,,,,,,,,,,,,,,,,,
