trials.thisRepN,trials.thisTrialN,trials.thisN,trials.thisIndex,trials.ran,Colourcodes,participant,session,date,expName,psychopyVersion,OS,frameRate,study_id,trials_4.thisRepN,trials_4.thisTrialN,trials_4.thisN,trials_4.thisIndex,trials_4.ran,StimulusPos,key_resp.keys,key_resp.rt,key_resp_2.keys,key_resp_2.rt,key_resp_15.keys,key_resp_15.rt,key_resp_17.keys,key_resp_17.rt,key_resp_9.keys,key_resp_9.rt,key_resp_10.keys,key_resp_10.rt,Circle1_col,Ecc,Circle2_col,similarity,response_time,mouse_5.x,mouse_5.y,mouse_5.leftButton,mouse_5.midButton,mouse_5.rightButton,mouse_5.clicked_name,mouse_10.x,mouse_10.y,mouse_10.leftButton,mouse_10.midButton,mouse_10.rightButton,mouse_10.clicked_name,mouse_7.x,mouse_7.y,mouse_7.leftButton,mouse_7.midButton,mouse_7.rightButton,catchnumberprac,mouse_6.x,mouse_6.y,mouse_6.leftButton,mouse_6.midButton,mouse_6.rightButton,duringprac.thisRepN,duringprac.thisTrialN,duringprac.thisN,duringprac.thisIndex,duringprac.ran,key_resp_22.keys,key_resp_22.rt,Circle1_colour,Circle2_colour,mouse.x,mouse.y,mouse.leftButton,mouse.midButton,mouse.rightButton,mouse.clicked_name,mouse_2.x,mouse_2.y,mouse_2.leftButton,mouse_2.midButton,mouse_2.rightButton,mouse_2.clicked_name,mouse_3.x,mouse_3.y,mouse_3.leftButton,mouse_3.midButton,mouse_3.rightButton,catchresponse,catchnumber,response_time_catch,Catch,mouse_11.x,mouse_11.y,mouse_11.leftButton,mouse_11.midButton,mouse_11.rightButton,trials_2.thisRepN,trials_2.thisTrialN,trials_2.thisN,trials_2.thisIndex,trials_2.ran,Colourpair,Temporder,mouse_3.clicked_name,mouse_11.clicked_name,trials_3.thisRepN,trials_3.thisTrialN,trials_3.thisN,trials_3.thisIndex,trials_3.ran,key_resp_instr_Ishi.keys,key_resp_instr_Ishi.rt,Ishi_trial_keyresp.keys,Ishi_trial_keyresp.rt,Ishi_textbox.text,Ishi_loop.thisRepN,Ishi_loop.thisTrialN,Ishi_loop.thisN,Ishi_loop.thisIndex,Ishi_loop.ran,imageaddress,textbox.text,mouse_4.x,mouse_4.y,mouse_4.leftButton,mouse_4.midButton,mouse_4.rightButton,mouse_4.clicked_name,textbox_2.text,mouse_8.x,mouse_8.y,mouse_8.leftButton,mouse_8.midButton,mouse_8.rightButton,mouse_8.clicked_name,textbox_3.text,mouse_9.x,mouse_9.y,mouse_9.leftButton,mouse_9.midButton,mouse_9.rightButton,mouse_9.clicked_name,textbox_4.text,mouse_12.x,mouse_12.y,mouse_12.leftButton,mouse_12.midButton,mouse_12.rightButton,mouse_12.clicked_name,textbox_5.text,mouse_13.x,mouse_13.y,mouse_13.leftButton,mouse_13.midButton,mouse_13.rightButton,mouse_13.clicked_name,textbox_6.text,mouse_14.x,mouse_14.y,mouse_14.leftButton,mouse_14.midButton,mouse_14.rightButton,mouse_14.clicked_name,textbox_7.text,mouse_15.x,mouse_15.y,mouse_15.leftButton,mouse_15.midButton,mouse_15.rightButton,mouse_15.clicked_name
0,0,0,6,1,,5ca0aae22fd4860001a4d560,62bbfab4b853f4201ecc5852,2022-06-29_09h09.56.704,Colour_Asymmetry_Pilot,2022.1.3,Win32,59.93407252,62bbe60bf3d75ef465d3e404,,,,,,,,,,,,,,,,,,,,,,,,,,,,,,,,,,,,,,,,,,,,,,,,,,,,,,,,,,,,,,,,,,,,,,,,,,,,,,,,,,,,,,,,,,,,,,,,,,,,,,,,,,,,,,,,,,,,,,,,,,,,,,,,,,,,,,,,,,,,,,,,,,,,,,,,,,,
0,1,1,8,1,,5ca0aae22fd4860001a4d560,62bbfab4b853f4201ecc5852,2022-06-29_09h09.56.704,Colour_Asymmetry_Pilot,2022.1.3,Win32,59.93407252,62bbe60bf3d75ef465d3e404,,,,,,,,,,,,,,,,,,,,,,,,,,,,,,,,,,,,,,,,,,,,,,,,,,,,,,,,,,,,,,,,,,,,,,,,,,,,,,,,,,,,,,,,,,,,,,,,,,,,,,,,,,,,,,,,,,,,,,,,,,,,,,,,,,,,,,,,,,,,,,,,,,,,,,,,,,,
0,2,2,67,1,,5ca0aae22fd4860001a4d560,62bbfab4b853f4201ecc5852,2022-06-29_09h09.56.704,Colour_Asymmetry_Pilot,2022.1.3,Win32,59.93407252,62bbe60bf3d75ef465d3e404,,,,,,,,,,,,,,,,,,,,,,,,,,,,,,,,,,,,,,,,,,,,,,,,,,,,,,,,,,,,,,,,,,,,,,,,,,,,,,,,,,,,,,,,,,,,,,,,,,,,,,,,,,,,,,,,,,,,,,,,,,,,,,,,,,,,,,,,,,,,,,,,,,,,,,,,,,,
0,3,3,11,1,,5ca0aae22fd4860001a4d560,62bbfab4b853f4201ecc5852,2022-06-29_09h09.56.704,Colour_Asymmetry_Pilot,2022.1.3,Win32,59.93407252,62bbe60bf3d75ef465d3e404,,,,,,,,,,,,,,,,,,,,,,,,,,,,,,,,,,,,,,,,,,,,,,,,,,,,,,,,,,,,,,,,,,,,,,,,,,,,,,,,,,,,,,,,,,,,,,,,,,,,,,,,,,,,,,,,,,,,,,,,,,,,,,,,,,,,,,,,,,,,,,,,,,,,,,,,,,,
0,4,4,36,1,,5ca0aae22fd4860001a4d560,62bbfab4b853f4201ecc5852,2022-06-29_09h09.56.704,Colour_Asymmetry_Pilot,2022.1.3,Win32,59.93407252,62bbe60bf3d75ef465d3e404,,,,,,,,,,,,,,,,,,,,,,,,,,,,,,,,,,,,,,,,,,,,,,,,,,,,,,,,,,,,,,,,,,,,,,,,,,,,,,,,,,,,,,,,,,,,,,,,,,,,,,,,,,,,,,,,,,,,,,,,,,,,,,,,,,,,,,,,,,,,,,,,,,,,,,,,,,,
0,5,5,23,1,,5ca0aae22fd4860001a4d560,62bbfab4b853f4201ecc5852,2022-06-29_09h09.56.704,Colour_Asymmetry_Pilot,2022.1.3,Win32,59.93407252,62bbe60bf3d75ef465d3e404,,,,,,,,,,,,,,,,,,,,,,,,,,,,,,,,,,,,,,,,,,,,,,,,,,,,,,,,,,,,,,,,,,,,,,,,,,,,,,,,,,,,,,,,,,,,,,,,,,,,,,,,,,,,,,,,,,,,,,,,,,,,,,,,,,,,,,,,,,,,,,,,,,,,,,,,,,,
0,6,6,7,1,,5ca0aae22fd4860001a4d560,62bbfab4b853f4201ecc5852,2022-06-29_09h09.56.704,Colour_Asymmetry_Pilot,2022.1.3,Win32,59.93407252,62bbe60bf3d75ef465d3e404,,,,,,,,,,,,,,,,,,,,,,,,,,,,,,,,,,,,,,,,,,,,,,,,,,,,,,,,,,,,,,,,,,,,,,,,,,,,,,,,,,,,,,,,,,,,,,,,,,,,,,,,,,,,,,,,,,,,,,,,,,,,,,,,,,,,,,,,,,,,,,,,,,,,,,,,,,,
0,7,7,37,1,,5ca0aae22fd4860001a4d560,62bbfab4b853f4201ecc5852,2022-06-29_09h09.56.704,Colour_Asymmetry_Pilot,2022.1.3,Win32,59.93407252,62bbe60bf3d75ef465d3e404,,,,,,,,,,,,,,,,,,,,,,,,,,,,,,,,,,,,,,,,,,,,,,,,,,,,,,,,,,,,,,,,,,,,,,,,,,,,,,,,,,,,,,,,,,,,,,,,,,,,,,,,,,,,,,,,,,,,,,,,,,,,,,,,,,,,,,,,,,,,,,,,,,,,,,,,,,,
0,8,8,18,1,,5ca0aae22fd4860001a4d560,62bbfab4b853f4201ecc5852,2022-06-29_09h09.56.704,Colour_Asymmetry_Pilot,2022.1.3,Win32,59.93407252,62bbe60bf3d75ef465d3e404,,,,,,,,,,,,,,,,,,,,,,,,,,,,,,,,,,,,,,,,,,,,,,,,,,,,,,,,,,,,,,,,,,,,,,,,,,,,,,,,,,,,,,,,,,,,,,,,,,,,,,,,,,,,,,,,,,,,,,,,,,,,,,,,,,,,,,,,,,,,,,,,,,,,,,,,,,,
0,9,9,34,1,,5ca0aae22fd4860001a4d560,62bbfab4b853f4201ecc5852,2022-06-29_09h09.56.704,Colour_Asymmetry_Pilot,2022.1.3,Win32,59.93407252,62bbe60bf3d75ef465d3e404,,,,,,,,,,,,,,,,,,,,,,,,,,,,,,,,,,,,,,,,,,,,,,,,,,,,,,,,,,,,,,,,,,,,,,,,,,,,,,,,,,,,,,,,,,,,,,,,,,,,,,,,,,,,,,,,,,,,,,,,,,,,,,,,,,,,,,,,,,,,,,,,,,,,,,,,,,,
0,10,10,78,1,,5ca0aae22fd4860001a4d560,62bbfab4b853f4201ecc5852,2022-06-29_09h09.56.704,Colour_Asymmetry_Pilot,2022.1.3,Win32,59.93407252,62bbe60bf3d75ef465d3e404,,,,,,,,,,,,,,,,,,,,,,,,,,,,,,,,,,,,,,,,,,,,,,,,,,,,,,,,,,,,,,,,,,,,,,,,,,,,,,,,,,,,,,,,,,,,,,,,,,,,,,,,,,,,,,,,,,,,,,,,,,,,,,,,,,,,,,,,,,,,,,,,,,,,,,,,,,,
0,11,11,20,1,,5ca0aae22fd4860001a4d560,62bbfab4b853f4201ecc5852,2022-06-29_09h09.56.704,Colour_Asymmetry_Pilot,2022.1.3,Win32,59.93407252,62bbe60bf3d75ef465d3e404,,,,,,,,,,,,,,,,,,,,,,,,,,,,,,,,,,,,,,,,,,,,,,,,,,,,,,,,,,,,,,,,,,,,,,,,,,,,,,,,,,,,,,,,,,,,,,,,,,,,,,,,,,,,,,,,,,,,,,,,,,,,,,,,,,,,,,,,,,,,,,,,,,,,,,,,,,,
0,12,12,73,1,,5ca0aae22fd4860001a4d560,62bbfab4b853f4201ecc5852,2022-06-29_09h09.56.704,Colour_Asymmetry_Pilot,2022.1.3,Win32,59.93407252,62bbe60bf3d75ef465d3e404,,,,,,,,,,,,,,,,,,,,,,,,,,,,,,,,,,,,,,,,,,,,,,,,,,,,,,,,,,,,,,,,,,,,,,,,,,,,,,,,,,,,,,,,,,,,,,,,,,,,,,,,,,,,,,,,,,,,,,,,,,,,,,,,,,,,,,,,,,,,,,,,,,,,,,,,,,,
0,13,13,47,1,,5ca0aae22fd4860001a4d560,62bbfab4b853f4201ecc5852,2022-06-29_09h09.56.704,Colour_Asymmetry_Pilot,2022.1.3,Win32,59.93407252,62bbe60bf3d75ef465d3e404,,,,,,,,,,,,,,,,,,,,,,,,,,,,,,,,,,,,,,,,,,,,,,,,,,,,,,,,,,,,,,,,,,,,,,,,,,,,,,,,,,,,,,,,,,,,,,,,,,,,,,,,,,,,,,,,,,,,,,,,,,,,,,,,,,,,,,,,,,,,,,,,,,,,,,,,,,,
0,14,14,56,1,,5ca0aae22fd4860001a4d560,62bbfab4b853f4201ecc5852,2022-06-29_09h09.56.704,Colour_Asymmetry_Pilot,2022.1.3,Win32,59.93407252,62bbe60bf3d75ef465d3e404,,,,,,,,,,,,,,,,,,,,,,,,,,,,,,,,,,,,,,,,,,,,,,,,,,,,,,,,,,,,,,,,,,,,,,,,,,,,,,,,,,,,,,,,,,,,,,,,,,,,,,,,,,,,,,,,,,,,,,,,,,,,,,,,,,,,,,,,,,,,,,,,,,,,,,,,,,,
0,15,15,57,1,,5ca0aae22fd4860001a4d560,62bbfab4b853f4201ecc5852,2022-06-29_09h09.56.704,Colour_Asymmetry_Pilot,2022.1.3,Win32,59.93407252,62bbe60bf3d75ef465d3e404,,,,,,,,,,,,,,,,,,,,,,,,,,,,,,,,,,,,,,,,,,,,,,,,,,,,,,,,,,,,,,,,,,,,,,,,,,,,,,,,,,,,,,,,,,,,,,,,,,,,,,,,,,,,,,,,,,,,,,,,,,,,,,,,,,,,,,,,,,,,,,,,,,,,,,,,,,,
0,16,16,39,1,,5ca0aae22fd4860001a4d560,62bbfab4b853f4201ecc5852,2022-06-29_09h09.56.704,Colour_Asymmetry_Pilot,2022.1.3,Win32,59.93407252,62bbe60bf3d75ef465d3e404,,,,,,,,,,,,,,,,,,,,,,,,,,,,,,,,,,,,,,,,,,,,,,,,,,,,,,,,,,,,,,,,,,,,,,,,,,,,,,,,,,,,,,,,,,,,,,,,,,,,,,,,,,,,,,,,,,,,,,,,,,,,,,,,,,,,,,,,,,,,,,,,,,,,,,,,,,,
0,17,17,71,1,,5ca0aae22fd4860001a4d560,62bbfab4b853f4201ecc5852,2022-06-29_09h09.56.704,Colour_Asymmetry_Pilot,2022.1.3,Win32,59.93407252,62bbe60bf3d75ef465d3e404,,,,,,,,,,,,,,,,,,,,,,,,,,,,,,,,,,,,,,,,,,,,,,,,,,,,,,,,,,,,,,,,,,,,,,,,,,,,,,,,,,,,,,,,,,,,,,,,,,,,,,,,,,,,,,,,,,,,,,,,,,,,,,,,,,,,,,,,,,,,,,,,,,,,,,,,,,,
0,18,18,31,1,,5ca0aae22fd4860001a4d560,62bbfab4b853f4201ecc5852,2022-06-29_09h09.56.704,Colour_Asymmetry_Pilot,2022.1.3,Win32,59.93407252,62bbe60bf3d75ef465d3e404,,,,,,,,,,,,,,,,,,,,,,,,,,,,,,,,,,,,,,,,,,,,,,,,,,,,,,,,,,,,,,,,,,,,,,,,,,,,,,,,,,,,,,,,,,,,,,,,,,,,,,,,,,,,,,,,,,,,,,,,,,,,,,,,,,,,,,,,,,,,,,,,,,,,,,,,,,,
0,19,19,75,1,,5ca0aae22fd4860001a4d560,62bbfab4b853f4201ecc5852,2022-06-29_09h09.56.704,Colour_Asymmetry_Pilot,2022.1.3,Win32,59.93407252,62bbe60bf3d75ef465d3e404,,,,,,,,,,,,,,,,,,,,,,,,,,,,,,,,,,,,,,,,,,,,,,,,,,,,,,,,,,,,,,,,,,,,,,,,,,,,,,,,,,,,,,,,,,,,,,,,,,,,,,,,,,,,,,,,,,,,,,,,,,,,,,,,,,,,,,,,,,,,,,,,,,,,,,,,,,,
0,20,20,16,1,,5ca0aae22fd4860001a4d560,62bbfab4b853f4201ecc5852,2022-06-29_09h09.56.704,Colour_Asymmetry_Pilot,2022.1.3,Win32,59.93407252,62bbe60bf3d75ef465d3e404,,,,,,,,,,,,,,,,,,,,,,,,,,,,,,,,,,,,,,,,,,,,,,,,,,,,,,,,,,,,,,,,,,,,,,,,,,,,,,,,,,,,,,,,,,,,,,,,,,,,,,,,,,,,,,,,,,,,,,,,,,,,,,,,,,,,,,,,,,,,,,,,,,,,,,,,,,,
0,21,21,13,1,,5ca0aae22fd4860001a4d560,62bbfab4b853f4201ecc5852,2022-06-29_09h09.56.704,Colour_Asymmetry_Pilot,2022.1.3,Win32,59.93407252,62bbe60bf3d75ef465d3e404,,,,,,,,,,,,,,,,,,,,,,,,,,,,,,,,,,,,,,,,,,,,,,,,,,,,,,,,,,,,,,,,,,,,,,,,,,,,,,,,,,,,,,,,,,,,,,,,,,,,,,,,,,,,,,,,,,,,,,,,,,,,,,,,,,,,,,,,,,,,,,,,,,,,,,,,,,,
0,22,22,81,1,,5ca0aae22fd4860001a4d560,62bbfab4b853f4201ecc5852,2022-06-29_09h09.56.704,Colour_Asymmetry_Pilot,2022.1.3,Win32,59.93407252,62bbe60bf3d75ef465d3e404,,,,,,,,,,,,,,,,,,,,,,,,,,,,,,,,,,,,,,,,,,,,,,,,,,,,,,,,,,,,,,,,,,,,,,,,,,,,,,,,,,,,,,,,,,,,,,,,,,,,,,,,,,,,,,,,,,,,,,,,,,,,,,,,,,,,,,,,,,,,,,,,,,,,,,,,,,,
0,23,23,9,1,,5ca0aae22fd4860001a4d560,62bbfab4b853f4201ecc5852,2022-06-29_09h09.56.704,Colour_Asymmetry_Pilot,2022.1.3,Win32,59.93407252,62bbe60bf3d75ef465d3e404,,,,,,,,,,,,,,,,,,,,,,,,,,,,,,,,,,,,,,,,,,,,,,,,,,,,,,,,,,,,,,,,,,,,,,,,,,,,,,,,,,,,,,,,,,,,,,,,,,,,,,,,,,,,,,,,,,,,,,,,,,,,,,,,,,,,,,,,,,,,,,,,,,,,,,,,,,,
0,24,24,45,1,,5ca0aae22fd4860001a4d560,62bbfab4b853f4201ecc5852,2022-06-29_09h09.56.704,Colour_Asymmetry_Pilot,2022.1.3,Win32,59.93407252,62bbe60bf3d75ef465d3e404,,,,,,,,,,,,,,,,,,,,,,,,,,,,,,,,,,,,,,,,,,,,,,,,,,,,,,,,,,,,,,,,,,,,,,,,,,,,,,,,,,,,,,,,,,,,,,,,,,,,,,,,,,,,,,,,,,,,,,,,,,,,,,,,,,,,,,,,,,,,,,,,,,,,,,,,,,,
0,25,25,17,1,,5ca0aae22fd4860001a4d560,62bbfab4b853f4201ecc5852,2022-06-29_09h09.56.704,Colour_Asymmetry_Pilot,2022.1.3,Win32,59.93407252,62bbe60bf3d75ef465d3e404,,,,,,,,,,,,,,,,,,,,,,,,,,,,,,,,,,,,,,,,,,,,,,,,,,,,,,,,,,,,,,,,,,,,,,,,,,,,,,,,,,,,,,,,,,,,,,,,,,,,,,,,,,,,,,,,,,,,,,,,,,,,,,,,,,,,,,,,,,,,,,,,,,,,,,,,,,,
0,26,26,40,1,,5ca0aae22fd4860001a4d560,62bbfab4b853f4201ecc5852,2022-06-29_09h09.56.704,Colour_Asymmetry_Pilot,2022.1.3,Win32,59.93407252,62bbe60bf3d75ef465d3e404,,,,,,,,,,,,,,,,,,,,,,,,,,,,,,,,,,,,,,,,,,,,,,,,,,,,,,,,,,,,,,,,,,,,,,,,,,,,,,,,,,,,,,,,,,,,,,,,,,,,,,,,,,,,,,,,,,,,,,,,,,,,,,,,,,,,,,,,,,,,,,,,,,,,,,,,,,,
0,27,27,22,1,,5ca0aae22fd4860001a4d560,62bbfab4b853f4201ecc5852,2022-06-29_09h09.56.704,Colour_Asymmetry_Pilot,2022.1.3,Win32,59.93407252,62bbe60bf3d75ef465d3e404,,,,,,,,,,,,,,,,,,,,,,,,,,,,,,,,,,,,,,,,,,,,,,,,,,,,,,,,,,,,,,,,,,,,,,,,,,,,,,,,,,,,,,,,,,,,,,,,,,,,,,,,,,,,,,,,,,,,,,,,,,,,,,,,,,,,,,,,,,,,,,,,,,,,,,,,,,,
0,28,28,82,1,,5ca0aae22fd4860001a4d560,62bbfab4b853f4201ecc5852,2022-06-29_09h09.56.704,Colour_Asymmetry_Pilot,2022.1.3,Win32,59.93407252,62bbe60bf3d75ef465d3e404,,,,,,,,,,,,,,,,,,,,,,,,,,,,,,,,,,,,,,,,,,,,,,,,,,,,,,,,,,,,,,,,,,,,,,,,,,,,,,,,,,,,,,,,,,,,,,,,,,,,,,,,,,,,,,,,,,,,,,,,,,,,,,,,,,,,,,,,,,,,,,,,,,,,,,,,,,,
0,29,29,50,1,,5ca0aae22fd4860001a4d560,62bbfab4b853f4201ecc5852,2022-06-29_09h09.56.704,Colour_Asymmetry_Pilot,2022.1.3,Win32,59.93407252,62bbe60bf3d75ef465d3e404,,,,,,,,,,,,,,,,,,,,,,,,,,,,,,,,,,,,,,,,,,,,,,,,,,,,,,,,,,,,,,,,,,,,,,,,,,,,,,,,,,,,,,,,,,,,,,,,,,,,,,,,,,,,,,,,,,,,,,,,,,,,,,,,,,,,,,,,,,,,,,,,,,,,,,,,,,,
0,30,30,4,1,,5ca0aae22fd4860001a4d560,62bbfab4b853f4201ecc5852,2022-06-29_09h09.56.704,Colour_Asymmetry_Pilot,2022.1.3,Win32,59.93407252,62bbe60bf3d75ef465d3e404,,,,,,,,,,,,,,,,,,,,,,,,,,,,,,,,,,,,,,,,,,,,,,,,,,,,,,,,,,,,,,,,,,,,,,,,,,,,,,,,,,,,,,,,,,,,,,,,,,,,,,,,,,,,,,,,,,,,,,,,,,,,,,,,,,,,,,,,,,,,,,,,,,,,,,,,,,,
0,31,31,74,1,,5ca0aae22fd4860001a4d560,62bbfab4b853f4201ecc5852,2022-06-29_09h09.56.704,Colour_Asymmetry_Pilot,2022.1.3,Win32,59.93407252,62bbe60bf3d75ef465d3e404,,,,,,,,,,,,,,,,,,,,,,,,,,,,,,,,,,,,,,,,,,,,,,,,,,,,,,,,,,,,,,,,,,,,,,,,,,,,,,,,,,,,,,,,,,,,,,,,,,,,,,,,,,,,,,,,,,,,,,,,,,,,,,,,,,,,,,,,,,,,,,,,,,,,,,,,,,,
0,32,32,30,1,,5ca0aae22fd4860001a4d560,62bbfab4b853f4201ecc5852,2022-06-29_09h09.56.704,Colour_Asymmetry_Pilot,2022.1.3,Win32,59.93407252,62bbe60bf3d75ef465d3e404,,,,,,,,,,,,,,,,,,,,,,,,,,,,,,,,,,,,,,,,,,,,,,,,,,,,,,,,,,,,,,,,,,,,,,,,,,,,,,,,,,,,,,,,,,,,,,,,,,,,,,,,,,,,,,,,,,,,,,,,,,,,,,,,,,,,,,,,,,,,,,,,,,,,,,,,,,,
0,33,33,48,1,,5ca0aae22fd4860001a4d560,62bbfab4b853f4201ecc5852,2022-06-29_09h09.56.704,Colour_Asymmetry_Pilot,2022.1.3,Win32,59.93407252,62bbe60bf3d75ef465d3e404,,,,,,,,,,,,,,,,,,,,,,,,,,,,,,,,,,,,,,,,,,,,,,,,,,,,,,,,,,,,,,,,,,,,,,,,,,,,,,,,,,,,,,,,,,,,,,,,,,,,,,,,,,,,,,,,,,,,,,,,,,,,,,,,,,,,,,,,,,,,,,,,,,,,,,,,,,,
0,34,34,69,1,,5ca0aae22fd4860001a4d560,62bbfab4b853f4201ecc5852,2022-06-29_09h09.56.704,Colour_Asymmetry_Pilot,2022.1.3,Win32,59.93407252,62bbe60bf3d75ef465d3e404,,,,,,,,,,,,,,,,,,,,,,,,,,,,,,,,,,,,,,,,,,,,,,,,,,,,,,,,,,,,,,,,,,,,,,,,,,,,,,,,,,,,,,,,,,,,,,,,,,,,,,,,,,,,,,,,,,,,,,,,,,,,,,,,,,,,,,,,,,,,,,,,,,,,,,,,,,,
0,35,35,32,1,,5ca0aae22fd4860001a4d560,62bbfab4b853f4201ecc5852,2022-06-29_09h09.56.704,Colour_Asymmetry_Pilot,2022.1.3,Win32,59.93407252,62bbe60bf3d75ef465d3e404,,,,,,,,,,,,,,,,,,,,,,,,,,,,,,,,,,,,,,,,,,,,,,,,,,,,,,,,,,,,,,,,,,,,,,,,,,,,,,,,,,,,,,,,,,,,,,,,,,,,,,,,,,,,,,,,,,,,,,,,,,,,,,,,,,,,,,,,,,,,,,,,,,,,,,,,,,,
0,36,36,54,1,,5ca0aae22fd4860001a4d560,62bbfab4b853f4201ecc5852,2022-06-29_09h09.56.704,Colour_Asymmetry_Pilot,2022.1.3,Win32,59.93407252,62bbe60bf3d75ef465d3e404,,,,,,,,,,,,,,,,,,,,,,,,,,,,,,,,,,,,,,,,,,,,,,,,,,,,,,,,,,,,,,,,,,,,,,,,,,,,,,,,,,,,,,,,,,,,,,,,,,,,,,,,,,,,,,,,,,,,,,,,,,,,,,,,,,,,,,,,,,,,,,,,,,,,,,,,,,,
0,37,37,10,1,,5ca0aae22fd4860001a4d560,62bbfab4b853f4201ecc5852,2022-06-29_09h09.56.704,Colour_Asymmetry_Pilot,2022.1.3,Win32,59.93407252,62bbe60bf3d75ef465d3e404,,,,,,,,,,,,,,,,,,,,,,,,,,,,,,,,,,,,,,,,,,,,,,,,,,,,,,,,,,,,,,,,,,,,,,,,,,,,,,,,,,,,,,,,,,,,,,,,,,,,,,,,,,,,,,,,,,,,,,,,,,,,,,,,,,,,,,,,,,,,,,,,,,,,,,,,,,,
0,38,38,88,1,,5ca0aae22fd4860001a4d560,62bbfab4b853f4201ecc5852,2022-06-29_09h09.56.704,Colour_Asymmetry_Pilot,2022.1.3,Win32,59.93407252,62bbe60bf3d75ef465d3e404,,,,,,,,,,,,,,,,,,,,,,,,,,,,,,,,,,,,,,,,,,,,,,,,,,,,,,,,,,,,,,,,,,,,,,,,,,,,,,,,,,,,,,,,,,,,,,,,,,,,,,,,,,,,,,,,,,,,,,,,,,,,,,,,,,,,,,,,,,,,,,,,,,,,,,,,,,,
0,39,39,86,1,,5ca0aae22fd4860001a4d560,62bbfab4b853f4201ecc5852,2022-06-29_09h09.56.704,Colour_Asymmetry_Pilot,2022.1.3,Win32,59.93407252,62bbe60bf3d75ef465d3e404,,,,,,,,,,,,,,,,,,,,,,,,,,,,,,,,,,,,,,,,,,,,,,,,,,,,,,,,,,,,,,,,,,,,,,,,,,,,,,,,,,,,,,,,,,,,,,,,,,,,,,,,,,,,,,,,,,,,,,,,,,,,,,,,,,,,,,,,,,,,,,,,,,,,,,,,,,,
0,40,40,85,1,,5ca0aae22fd4860001a4d560,62bbfab4b853f4201ecc5852,2022-06-29_09h09.56.704,Colour_Asymmetry_Pilot,2022.1.3,Win32,59.93407252,62bbe60bf3d75ef465d3e404,,,,,,,,,,,,,,,,,,,,,,,,,,,,,,,,,,,,,,,,,,,,,,,,,,,,,,,,,,,,,,,,,,,,,,,,,,,,,,,,,,,,,,,,,,,,,,,,,,,,,,,,,,,,,,,,,,,,,,,,,,,,,,,,,,,,,,,,,,,,,,,,,,,,,,,,,,,
0,41,41,76,1,,5ca0aae22fd4860001a4d560,62bbfab4b853f4201ecc5852,2022-06-29_09h09.56.704,Colour_Asymmetry_Pilot,2022.1.3,Win32,59.93407252,62bbe60bf3d75ef465d3e404,,,,,,,,,,,,,,,,,,,,,,,,,,,,,,,,,,,,,,,,,,,,,,,,,,,,,,,,,,,,,,,,,,,,,,,,,,,,,,,,,,,,,,,,,,,,,,,,,,,,,,,,,,,,,,,,,,,,,,,,,,,,,,,,,,,,,,,,,,,,,,,,,,,,,,,,,,,
0,42,42,77,1,,5ca0aae22fd4860001a4d560,62bbfab4b853f4201ecc5852,2022-06-29_09h09.56.704,Colour_Asymmetry_Pilot,2022.1.3,Win32,59.93407252,62bbe60bf3d75ef465d3e404,,,,,,,,,,,,,,,,,,,,,,,,,,,,,,,,,,,,,,,,,,,,,,,,,,,,,,,,,,,,,,,,,,,,,,,,,,,,,,,,,,,,,,,,,,,,,,,,,,,,,,,,,,,,,,,,,,,,,,,,,,,,,,,,,,,,,,,,,,,,,,,,,,,,,,,,,,,
0,43,43,64,1,,5ca0aae22fd4860001a4d560,62bbfab4b853f4201ecc5852,2022-06-29_09h09.56.704,Colour_Asymmetry_Pilot,2022.1.3,Win32,59.93407252,62bbe60bf3d75ef465d3e404,,,,,,,,,,,,,,,,,,,,,,,,,,,,,,,,,,,,,,,,,,,,,,,,,,,,,,,,,,,,,,,,,,,,,,,,,,,,,,,,,,,,,,,,,,,,,,,,,,,,,,,,,,,,,,,,,,,,,,,,,,,,,,,,,,,,,,,,,,,,,,,,,,,,,,,,,,,
0,44,44,25,1,,5ca0aae22fd4860001a4d560,62bbfab4b853f4201ecc5852,2022-06-29_09h09.56.704,Colour_Asymmetry_Pilot,2022.1.3,Win32,59.93407252,62bbe60bf3d75ef465d3e404,,,,,,,,,,,,,,,,,,,,,,,,,,,,,,,,,,,,,,,,,,,,,,,,,,,,,,,,,,,,,,,,,,,,,,,,,,,,,,,,,,,,,,,,,,,,,,,,,,,,,,,,,,,,,,,,,,,,,,,,,,,,,,,,,,,,,,,,,,,,,,,,,,,,,,,,,,,
0,45,45,70,1,,5ca0aae22fd4860001a4d560,62bbfab4b853f4201ecc5852,2022-06-29_09h09.56.704,Colour_Asymmetry_Pilot,2022.1.3,Win32,59.93407252,62bbe60bf3d75ef465d3e404,,,,,,,,,,,,,,,,,,,,,,,,,,,,,,,,,,,,,,,,,,,,,,,,,,,,,,,,,,,,,,,,,,,,,,,,,,,,,,,,,,,,,,,,,,,,,,,,,,,,,,,,,,,,,,,,,,,,,,,,,,,,,,,,,,,,,,,,,,,,,,,,,,,,,,,,,,,
0,46,46,66,1,,5ca0aae22fd4860001a4d560,62bbfab4b853f4201ecc5852,2022-06-29_09h09.56.704,Colour_Asymmetry_Pilot,2022.1.3,Win32,59.93407252,62bbe60bf3d75ef465d3e404,,,,,,,,,,,,,,,,,,,,,,,,,,,,,,,,,,,,,,,,,,,,,,,,,,,,,,,,,,,,,,,,,,,,,,,,,,,,,,,,,,,,,,,,,,,,,,,,,,,,,,,,,,,,,,,,,,,,,,,,,,,,,,,,,,,,,,,,,,,,,,,,,,,,,,,,,,,
0,47,47,60,1,,5ca0aae22fd4860001a4d560,62bbfab4b853f4201ecc5852,2022-06-29_09h09.56.704,Colour_Asymmetry_Pilot,2022.1.3,Win32,59.93407252,62bbe60bf3d75ef465d3e404,,,,,,,,,,,,,,,,,,,,,,,,,,,,,,,,,,,,,,,,,,,,,,,,,,,,,,,,,,,,,,,,,,,,,,,,,,,,,,,,,,,,,,,,,,,,,,,,,,,,,,,,,,,,,,,,,,,,,,,,,,,,,,,,,,,,,,,,,,,,,,,,,,,,,,,,,,,
0,48,48,91,1,,5ca0aae22fd4860001a4d560,62bbfab4b853f4201ecc5852,2022-06-29_09h09.56.704,Colour_Asymmetry_Pilot,2022.1.3,Win32,59.93407252,62bbe60bf3d75ef465d3e404,,,,,,,,,,,,,,,,,,,,,,,,,,,,,,,,,,,,,,,,,,,,,,,,,,,,,,,,,,,,,,,,,,,,,,,,,,,,,,,,,,,,,,,,,,,,,,,,,,,,,,,,,,,,,,,,,,,,,,,,,,,,,,,,,,,,,,,,,,,,,,,,,,,,,,,,,,,
0,49,49,63,1,,5ca0aae22fd4860001a4d560,62bbfab4b853f4201ecc5852,2022-06-29_09h09.56.704,Colour_Asymmetry_Pilot,2022.1.3,Win32,59.93407252,62bbe60bf3d75ef465d3e404,,,,,,,,,,,,,,,,,,,,,,,,,,,,,,,,,,,,,,,,,,,,,,,,,,,,,,,,,,,,,,,,,,,,,,,,,,,,,,,,,,,,,,,,,,,,,,,,,,,,,,,,,,,,,,,,,,,,,,,,,,,,,,,,,,,,,,,,,,,,,,,,,,,,,,,,,,,
0,50,50,53,1,,5ca0aae22fd4860001a4d560,62bbfab4b853f4201ecc5852,2022-06-29_09h09.56.704,Colour_Asymmetry_Pilot,2022.1.3,Win32,59.93407252,62bbe60bf3d75ef465d3e404,,,,,,,,,,,,,,,,,,,,,,,,,,,,,,,,,,,,,,,,,,,,,,,,,,,,,,,,,,,,,,,,,,,,,,,,,,,,,,,,,,,,,,,,,,,,,,,,,,,,,,,,,,,,,,,,,,,,,,,,,,,,,,,,,,,,,,,,,,,,,,,,,,,,,,,,,,,
0,51,51,72,1,,5ca0aae22fd4860001a4d560,62bbfab4b853f4201ecc5852,2022-06-29_09h09.56.704,Colour_Asymmetry_Pilot,2022.1.3,Win32,59.93407252,62bbe60bf3d75ef465d3e404,,,,,,,,,,,,,,,,,,,,,,,,,,,,,,,,,,,,,,,,,,,,,,,,,,,,,,,,,,,,,,,,,,,,,,,,,,,,,,,,,,,,,,,,,,,,,,,,,,,,,,,,,,,,,,,,,,,,,,,,,,,,,,,,,,,,,,,,,,,,,,,,,,,,,,,,,,,
0,52,52,87,1,,5ca0aae22fd4860001a4d560,62bbfab4b853f4201ecc5852,2022-06-29_09h09.56.704,Colour_Asymmetry_Pilot,2022.1.3,Win32,59.93407252,62bbe60bf3d75ef465d3e404,,,,,,,,,,,,,,,,,,,,,,,,,,,,,,,,,,,,,,,,,,,,,,,,,,,,,,,,,,,,,,,,,,,,,,,,,,,,,,,,,,,,,,,,,,,,,,,,,,,,,,,,,,,,,,,,,,,,,,,,,,,,,,,,,,,,,,,,,,,,,,,,,,,,,,,,,,,
0,53,53,46,1,,5ca0aae22fd4860001a4d560,62bbfab4b853f4201ecc5852,2022-06-29_09h09.56.704,Colour_Asymmetry_Pilot,2022.1.3,Win32,59.93407252,62bbe60bf3d75ef465d3e404,,,,,,,,,,,,,,,,,,,,,,,,,,,,,,,,,,,,,,,,,,,,,,,,,,,,,,,,,,,,,,,,,,,,,,,,,,,,,,,,,,,,,,,,,,,,,,,,,,,,,,,,,,,,,,,,,,,,,,,,,,,,,,,,,,,,,,,,,,,,,,,,,,,,,,,,,,,
0,54,54,62,1,,5ca0aae22fd4860001a4d560,62bbfab4b853f4201ecc5852,2022-06-29_09h09.56.704,Colour_Asymmetry_Pilot,2022.1.3,Win32,59.93407252,62bbe60bf3d75ef465d3e404,,,,,,,,,,,,,,,,,,,,,,,,,,,,,,,,,,,,,,,,,,,,,,,,,,,,,,,,,,,,,,,,,,,,,,,,,,,,,,,,,,,,,,,,,,,,,,,,,,,,,,,,,,,,,,,,,,,,,,,,,,,,,,,,,,,,,,,,,,,,,,,,,,,,,,,,,,,
0,55,55,19,1,,5ca0aae22fd4860001a4d560,62bbfab4b853f4201ecc5852,2022-06-29_09h09.56.704,Colour_Asymmetry_Pilot,2022.1.3,Win32,59.93407252,62bbe60bf3d75ef465d3e404,,,,,,,,,,,,,,,,,,,,,,,,,,,,,,,,,,,,,,,,,,,,,,,,,,,,,,,,,,,,,,,,,,,,,,,,,,,,,,,,,,,,,,,,,,,,,,,,,,,,,,,,,,,,,,,,,,,,,,,,,,,,,,,,,,,,,,,,,,,,,,,,,,,,,,,,,,,
0,56,56,84,1,,5ca0aae22fd4860001a4d560,62bbfab4b853f4201ecc5852,2022-06-29_09h09.56.704,Colour_Asymmetry_Pilot,2022.1.3,Win32,59.93407252,62bbe60bf3d75ef465d3e404,,,,,,,,,,,,,,,,,,,,,,,,,,,,,,,,,,,,,,,,,,,,,,,,,,,,,,,,,,,,,,,,,,,,,,,,,,,,,,,,,,,,,,,,,,,,,,,,,,,,,,,,,,,,,,,,,,,,,,,,,,,,,,,,,,,,,,,,,,,,,,,,,,,,,,,,,,,
0,57,57,3,1,,5ca0aae22fd4860001a4d560,62bbfab4b853f4201ecc5852,2022-06-29_09h09.56.704,Colour_Asymmetry_Pilot,2022.1.3,Win32,59.93407252,62bbe60bf3d75ef465d3e404,,,,,,,,,,,,,,,,,,,,,,,,,,,,,,,,,,,,,,,,,,,,,,,,,,,,,,,,,,,,,,,,,,,,,,,,,,,,,,,,,,,,,,,,,,,,,,,,,,,,,,,,,,,,,,,,,,,,,,,,,,,,,,,,,,,,,,,,,,,,,,,,,,,,,,,,,,,
0,58,58,44,1,,5ca0aae22fd4860001a4d560,62bbfab4b853f4201ecc5852,2022-06-29_09h09.56.704,Colour_Asymmetry_Pilot,2022.1.3,Win32,59.93407252,62bbe60bf3d75ef465d3e404,,,,,,,,,,,,,,,,,,,,,,,,,,,,,,,,,,,,,,,,,,,,,,,,,,,,,,,,,,,,,,,,,,,,,,,,,,,,,,,,,,,,,,,,,,,,,,,,,,,,,,,,,,,,,,,,,,,,,,,,,,,,,,,,,,,,,,,,,,,,,,,,,,,,,,,,,,,
0,59,59,61,1,,5ca0aae22fd4860001a4d560,62bbfab4b853f4201ecc5852,2022-06-29_09h09.56.704,Colour_Asymmetry_Pilot,2022.1.3,Win32,59.93407252,62bbe60bf3d75ef465d3e404,,,,,,,,,,,,,,,,,,,,,,,,,,,,,,,,,,,,,,,,,,,,,,,,,,,,,,,,,,,,,,,,,,,,,,,,,,,,,,,,,,,,,,,,,,,,,,,,,,,,,,,,,,,,,,,,,,,,,,,,,,,,,,,,,,,,,,,,,,,,,,,,,,,,,,,,,,,
0,60,60,58,1,,5ca0aae22fd4860001a4d560,62bbfab4b853f4201ecc5852,2022-06-29_09h09.56.704,Colour_Asymmetry_Pilot,2022.1.3,Win32,59.93407252,62bbe60bf3d75ef465d3e404,,,,,,,,,,,,,,,,,,,,,,,,,,,,,,,,,,,,,,,,,,,,,,,,,,,,,,,,,,,,,,,,,,,,,,,,,,,,,,,,,,,,,,,,,,,,,,,,,,,,,,,,,,,,,,,,,,,,,,,,,,,,,,,,,,,,,,,,,,,,,,,,,,,,,,,,,,,
0,61,61,26,1,,5ca0aae22fd4860001a4d560,62bbfab4b853f4201ecc5852,2022-06-29_09h09.56.704,Colour_Asymmetry_Pilot,2022.1.3,Win32,59.93407252,62bbe60bf3d75ef465d3e404,,,,,,,,,,,,,,,,,,,,,,,,,,,,,,,,,,,,,,,,,,,,,,,,,,,,,,,,,,,,,,,,,,,,,,,,,,,,,,,,,,,,,,,,,,,,,,,,,,,,,,,,,,,,,,,,,,,,,,,,,,,,,,,,,,,,,,,,,,,,,,,,,,,,,,,,,,,
0,62,62,12,1,,5ca0aae22fd4860001a4d560,62bbfab4b853f4201ecc5852,2022-06-29_09h09.56.704,Colour_Asymmetry_Pilot,2022.1.3,Win32,59.93407252,62bbe60bf3d75ef465d3e404,,,,,,,,,,,,,,,,,,,,,,,,,,,,,,,,,,,,,,,,,,,,,,,,,,,,,,,,,,,,,,,,,,,,,,,,,,,,,,,,,,,,,,,,,,,,,,,,,,,,,,,,,,,,,,,,,,,,,,,,,,,,,,,,,,,,,,,,,,,,,,,,,,,,,,,,,,,
0,63,63,89,1,,5ca0aae22fd4860001a4d560,62bbfab4b853f4201ecc5852,2022-06-29_09h09.56.704,Colour_Asymmetry_Pilot,2022.1.3,Win32,59.93407252,62bbe60bf3d75ef465d3e404,,,,,,,,,,,,,,,,,,,,,,,,,,,,,,,,,,,,,,,,,,,,,,,,,,,,,,,,,,,,,,,,,,,,,,,,,,,,,,,,,,,,,,,,,,,,,,,,,,,,,,,,,,,,,,,,,,,,,,,,,,,,,,,,,,,,,,,,,,,,,,,,,,,,,,,,,,,
0,64,64,1,1,,5ca0aae22fd4860001a4d560,62bbfab4b853f4201ecc5852,2022-06-29_09h09.56.704,Colour_Asymmetry_Pilot,2022.1.3,Win32,59.93407252,62bbe60bf3d75ef465d3e404,,,,,,,,,,,,,,,,,,,,,,,,,,,,,,,,,,,,,,,,,,,,,,,,,,,,,,,,,,,,,,,,,,,,,,,,,,,,,,,,,,,,,,,,,,,,,,,,,,,,,,,,,,,,,,,,,,,,,,,,,,,,,,,,,,,,,,,,,,,,,,,,,,,,,,,,,,,
0,65,65,28,1,,5ca0aae22fd4860001a4d560,62bbfab4b853f4201ecc5852,2022-06-29_09h09.56.704,Colour_Asymmetry_Pilot,2022.1.3,Win32,59.93407252,62bbe60bf3d75ef465d3e404,,,,,,,,,,,,,,,,,,,,,,,,,,,,,,,,,,,,,,,,,,,,,,,,,,,,,,,,,,,,,,,,,,,,,,,,,,,,,,,,,,,,,,,,,,,,,,,,,,,,,,,,,,,,,,,,,,,,,,,,,,,,,,,,,,,,,,,,,,,,,,,,,,,,,,,,,,,
0,66,66,2,1,,5ca0aae22fd4860001a4d560,62bbfab4b853f4201ecc5852,2022-06-29_09h09.56.704,Colour_Asymmetry_Pilot,2022.1.3,Win32,59.93407252,62bbe60bf3d75ef465d3e404,,,,,,,,,,,,,,,,,,,,,,,,,,,,,,,,,,,,,,,,,,,,,,,,,,,,,,,,,,,,,,,,,,,,,,,,,,,,,,,,,,,,,,,,,,,,,,,,,,,,,,,,,,,,,,,,,,,,,,,,,,,,,,,,,,,,,,,,,,,,,,,,,,,,,,,,,,,
0,67,67,15,1,,5ca0aae22fd4860001a4d560,62bbfab4b853f4201ecc5852,2022-06-29_09h09.56.704,Colour_Asymmetry_Pilot,2022.1.3,Win32,59.93407252,62bbe60bf3d75ef465d3e404,,,,,,,,,,,,,,,,,,,,,,,,,,,,,,,,,,,,,,,,,,,,,,,,,,,,,,,,,,,,,,,,,,,,,,,,,,,,,,,,,,,,,,,,,,,,,,,,,,,,,,,,,,,,,,,,,,,,,,,,,,,,,,,,,,,,,,,,,,,,,,,,,,,,,,,,,,,
0,68,68,55,1,,5ca0aae22fd4860001a4d560,62bbfab4b853f4201ecc5852,2022-06-29_09h09.56.704,Colour_Asymmetry_Pilot,2022.1.3,Win32,59.93407252,62bbe60bf3d75ef465d3e404,,,,,,,,,,,,,,,,,,,,,,,,,,,,,,,,,,,,,,,,,,,,,,,,,,,,,,,,,,,,,,,,,,,,,,,,,,,,,,,,,,,,,,,,,,,,,,,,,,,,,,,,,,,,,,,,,,,,,,,,,,,,,,,,,,,,,,,,,,,,,,,,,,,,,,,,,,,
0,69,69,42,1,,5ca0aae22fd4860001a4d560,62bbfab4b853f4201ecc5852,2022-06-29_09h09.56.704,Colour_Asymmetry_Pilot,2022.1.3,Win32,59.93407252,62bbe60bf3d75ef465d3e404,,,,,,,,,,,,,,,,,,,,,,,,,,,,,,,,,,,,,,,,,,,,,,,,,,,,,,,,,,,,,,,,,,,,,,,,,,,,,,,,,,,,,,,,,,,,,,,,,,,,,,,,,,,,,,,,,,,,,,,,,,,,,,,,,,,,,,,,,,,,,,,,,,,,,,,,,,,
0,70,70,29,1,,5ca0aae22fd4860001a4d560,62bbfab4b853f4201ecc5852,2022-06-29_09h09.56.704,Colour_Asymmetry_Pilot,2022.1.3,Win32,59.93407252,62bbe60bf3d75ef465d3e404,,,,,,,,,,,,,,,,,,,,,,,,,,,,,,,,,,,,,,,,,,,,,,,,,,,,,,,,,,,,,,,,,,,,,,,,,,,,,,,,,,,,,,,,,,,,,,,,,,,,,,,,,,,,,,,,,,,,,,,,,,,,,,,,,,,,,,,,,,,,,,,,,,,,,,,,,,,
0,71,71,21,1,,5ca0aae22fd4860001a4d560,62bbfab4b853f4201ecc5852,2022-06-29_09h09.56.704,Colour_Asymmetry_Pilot,2022.1.3,Win32,59.93407252,62bbe60bf3d75ef465d3e404,,,,,,,,,,,,,,,,,,,,,,,,,,,,,,,,,,,,,,,,,,,,,,,,,,,,,,,,,,,,,,,,,,,,,,,,,,,,,,,,,,,,,,,,,,,,,,,,,,,,,,,,,,,,,,,,,,,,,,,,,,,,,,,,,,,,,,,,,,,,,,,,,,,,,,,,,,,
0,72,72,92,1,,5ca0aae22fd4860001a4d560,62bbfab4b853f4201ecc5852,2022-06-29_09h09.56.704,Colour_Asymmetry_Pilot,2022.1.3,Win32,59.93407252,62bbe60bf3d75ef465d3e404,,,,,,,,,,,,,,,,,,,,,,,,,,,,,,,,,,,,,,,,,,,,,,,,,,,,,,,,,,,,,,,,,,,,,,,,,,,,,,,,,,,,,,,,,,,,,,,,,,,,,,,,,,,,,,,,,,,,,,,,,,,,,,,,,,,,,,,,,,,,,,,,,,,,,,,,,,,
0,73,73,80,1,,5ca0aae22fd4860001a4d560,62bbfab4b853f4201ecc5852,2022-06-29_09h09.56.704,Colour_Asymmetry_Pilot,2022.1.3,Win32,59.93407252,62bbe60bf3d75ef465d3e404,,,,,,,,,,,,,,,,,,,,,,,,,,,,,,,,,,,,,,,,,,,,,,,,,,,,,,,,,,,,,,,,,,,,,,,,,,,,,,,,,,,,,,,,,,,,,,,,,,,,,,,,,,,,,,,,,,,,,,,,,,,,,,,,,,,,,,,,,,,,,,,,,,,,,,,,,,,
0,74,74,24,1,,5ca0aae22fd4860001a4d560,62bbfab4b853f4201ecc5852,2022-06-29_09h09.56.704,Colour_Asymmetry_Pilot,2022.1.3,Win32,59.93407252,62bbe60bf3d75ef465d3e404,,,,,,,,,,,,,,,,,,,,,,,,,,,,,,,,,,,,,,,,,,,,,,,,,,,,,,,,,,,,,,,,,,,,,,,,,,,,,,,,,,,,,,,,,,,,,,,,,,,,,,,,,,,,,,,,,,,,,,,,,,,,,,,,,,,,,,,,,,,,,,,,,,,,,,,,,,,
0,75,75,0,1,,5ca0aae22fd4860001a4d560,62bbfab4b853f4201ecc5852,2022-06-29_09h09.56.704,Colour_Asymmetry_Pilot,2022.1.3,Win32,59.93407252,62bbe60bf3d75ef465d3e404,,,,,,,,,,,,,,,,,,,,,,,,,,,,,,,,,,,,,,,,,,,,,,,,,,,,,,,,,,,,,,,,,,,,,,,,,,,,,,,,,,,,,,,,,,,,,,,,,,,,,,,,,,,,,,,,,,,,,,,,,,,,,,,,,,,,,,,,,,,,,,,,,,,,,,,,,,,
0,76,76,38,1,,5ca0aae22fd4860001a4d560,62bbfab4b853f4201ecc5852,2022-06-29_09h09.56.704,Colour_Asymmetry_Pilot,2022.1.3,Win32,59.93407252,62bbe60bf3d75ef465d3e404,,,,,,,,,,,,,,,,,,,,,,,,,,,,,,,,,,,,,,,,,,,,,,,,,,,,,,,,,,,,,,,,,,,,,,,,,,,,,,,,,,,,,,,,,,,,,,,,,,,,,,,,,,,,,,,,,,,,,,,,,,,,,,,,,,,,,,,,,,,,,,,,,,,,,,,,,,,
0,77,77,79,1,,5ca0aae22fd4860001a4d560,62bbfab4b853f4201ecc5852,2022-06-29_09h09.56.704,Colour_Asymmetry_Pilot,2022.1.3,Win32,59.93407252,62bbe60bf3d75ef465d3e404,,,,,,,,,,,,,,,,,,,,,,,,,,,,,,,,,,,,,,,,,,,,,,,,,,,,,,,,,,,,,,,,,,,,,,,,,,,,,,,,,,,,,,,,,,,,,,,,,,,,,,,,,,,,,,,,,,,,,,,,,,,,,,,,,,,,,,,,,,,,,,,,,,,,,,,,,,,
0,78,78,27,1,,5ca0aae22fd4860001a4d560,62bbfab4b853f4201ecc5852,2022-06-29_09h09.56.704,Colour_Asymmetry_Pilot,2022.1.3,Win32,59.93407252,62bbe60bf3d75ef465d3e404,,,,,,,,,,,,,,,,,,,,,,,,,,,,,,,,,,,,,,,,,,,,,,,,,,,,,,,,,,,,,,,,,,,,,,,,,,,,,,,,,,,,,,,,,,,,,,,,,,,,,,,,,,,,,,,,,,,,,,,,,,,,,,,,,,,,,,,,,,,,,,,,,,,,,,,,,,,
0,79,79,49,1,,5ca0aae22fd4860001a4d560,62bbfab4b853f4201ecc5852,2022-06-29_09h09.56.704,Colour_Asymmetry_Pilot,2022.1.3,Win32,59.93407252,62bbe60bf3d75ef465d3e404,,,,,,,,,,,,,,,,,,,,,,,,,,,,,,,,,,,,,,,,,,,,,,,,,,,,,,,,,,,,,,,,,,,,,,,,,,,,,,,,,,,,,,,,,,,,,,,,,,,,,,,,,,,,,,,,,,,,,,,,,,,,,,,,,,,,,,,,,,,,,,,,,,,,,,,,,,,
0,80,80,51,1,,5ca0aae22fd4860001a4d560,62bbfab4b853f4201ecc5852,2022-06-29_09h09.56.704,Colour_Asymmetry_Pilot,2022.1.3,Win32,59.93407252,62bbe60bf3d75ef465d3e404,,,,,,,,,,,,,,,,,,,,,,,,,,,,,,,,,,,,,,,,,,,,,,,,,,,,,,,,,,,,,,,,,,,,,,,,,,,,,,,,,,,,,,,,,,,,,,,,,,,,,,,,,,,,,,,,,,,,,,,,,,,,,,,,,,,,,,,,,,,,,,,,,,,,,,,,,,,
0,81,81,83,1,,5ca0aae22fd4860001a4d560,62bbfab4b853f4201ecc5852,2022-06-29_09h09.56.704,Colour_Asymmetry_Pilot,2022.1.3,Win32,59.93407252,62bbe60bf3d75ef465d3e404,,,,,,,,,,,,,,,,,,,,,,,,,,,,,,,,,,,,,,,,,,,,,,,,,,,,,,,,,,,,,,,,,,,,,,,,,,,,,,,,,,,,,,,,,,,,,,,,,,,,,,,,,,,,,,,,,,,,,,,,,,,,,,,,,,,,,,,,,,,,,,,,,,,,,,,,,,,
0,82,82,90,1,,5ca0aae22fd4860001a4d560,62bbfab4b853f4201ecc5852,2022-06-29_09h09.56.704,Colour_Asymmetry_Pilot,2022.1.3,Win32,59.93407252,62bbe60bf3d75ef465d3e404,,,,,,,,,,,,,,,,,,,,,,,,,,,,,,,,,,,,,,,,,,,,,,,,,,,,,,,,,,,,,,,,,,,,,,,,,,,,,,,,,,,,,,,,,,,,,,,,,,,,,,,,,,,,,,,,,,,,,,,,,,,,,,,,,,,,,,,,,,,,,,,,,,,,,,,,,,,
0,83,83,59,1,,5ca0aae22fd4860001a4d560,62bbfab4b853f4201ecc5852,2022-06-29_09h09.56.704,Colour_Asymmetry_Pilot,2022.1.3,Win32,59.93407252,62bbe60bf3d75ef465d3e404,,,,,,,,,,,,,,,,,,,,,,,,,,,,,,,,,,,,,,,,,,,,,,,,,,,,,,,,,,,,,,,,,,,,,,,,,,,,,,,,,,,,,,,,,,,,,,,,,,,,,,,,,,,,,,,,,,,,,,,,,,,,,,,,,,,,,,,,,,,,,,,,,,,,,,,,,,,
0,84,84,35,1,,5ca0aae22fd4860001a4d560,62bbfab4b853f4201ecc5852,2022-06-29_09h09.56.704,Colour_Asymmetry_Pilot,2022.1.3,Win32,59.93407252,62bbe60bf3d75ef465d3e404,,,,,,,,,,,,,,,,,,,,,,,,,,,,,,,,,,,,,,,,,,,,,,,,,,,,,,,,,,,,,,,,,,,,,,,,,,,,,,,,,,,,,,,,,,,,,,,,,,,,,,,,,,,,,,,,,,,,,,,,,,,,,,,,,,,,,,,,,,,,,,,,,,,,,,,,,,,
0,85,85,41,1,,5ca0aae22fd4860001a4d560,62bbfab4b853f4201ecc5852,2022-06-29_09h09.56.704,Colour_Asymmetry_Pilot,2022.1.3,Win32,59.93407252,62bbe60bf3d75ef465d3e404,,,,,,,,,,,,,,,,,,,,,,,,,,,,,,,,,,,,,,,,,,,,,,,,,,,,,,,,,,,,,,,,,,,,,,,,,,,,,,,,,,,,,,,,,,,,,,,,,,,,,,,,,,,,,,,,,,,,,,,,,,,,,,,,,,,,,,,,,,,,,,,,,,,,,,,,,,,
0,86,86,65,1,,5ca0aae22fd4860001a4d560,62bbfab4b853f4201ecc5852,2022-06-29_09h09.56.704,Colour_Asymmetry_Pilot,2022.1.3,Win32,59.93407252,62bbe60bf3d75ef465d3e404,,,,,,,,,,,,,,,,,,,,,,,,,,,,,,,,,,,,,,,,,,,,,,,,,,,,,,,,,,,,,,,,,,,,,,,,,,,,,,,,,,,,,,,,,,,,,,,,,,,,,,,,,,,,,,,,,,,,,,,,,,,,,,,,,,,,,,,,,,,,,,,,,,,,,,,,,,,
0,87,87,33,1,,5ca0aae22fd4860001a4d560,62bbfab4b853f4201ecc5852,2022-06-29_09h09.56.704,Colour_Asymmetry_Pilot,2022.1.3,Win32,59.93407252,62bbe60bf3d75ef465d3e404,,,,,,,,,,,,,,,,,,,,,,,,,,,,,,,,,,,,,,,,,,,,,,,,,,,,,,,,,,,,,,,,,,,,,,,,,,,,,,,,,,,,,,,,,,,,,,,,,,,,,,,,,,,,,,,,,,,,,,,,,,,,,,,,,,,,,,,,,,,,,,,,,,,,,,,,,,,
0,88,88,43,1,,5ca0aae22fd4860001a4d560,62bbfab4b853f4201ecc5852,2022-06-29_09h09.56.704,Colour_Asymmetry_Pilot,2022.1.3,Win32,59.93407252,62bbe60bf3d75ef465d3e404,,,,,,,,,,,,,,,,,,,,,,,,,,,,,,,,,,,,,,,,,,,,,,,,,,,,,,,,,,,,,,,,,,,,,,,,,,,,,,,,,,,,,,,,,,,,,,,,,,,,,,,,,,,,,,,,,,,,,,,,,,,,,,,,,,,,,,,,,,,,,,,,,,,,,,,,,,,
0,89,89,68,1,,5ca0aae22fd4860001a4d560,62bbfab4b853f4201ecc5852,2022-06-29_09h09.56.704,Colour_Asymmetry_Pilot,2022.1.3,Win32,59.93407252,62bbe60bf3d75ef465d3e404,,,,,,,,,,,,,,,,,,,,,,,,,,,,,,,,,,,,,,,,,,,,,,,,,,,,,,,,,,,,,,,,,,,,,,,,,,,,,,,,,,,,,,,,,,,,,,,,,,,,,,,,,,,,,,,,,,,,,,,,,,,,,,,,,,,,,,,,,,,,,,,,,,,,,,,,,,,
0,90,90,52,1,,5ca0aae22fd4860001a4d560,62bbfab4b853f4201ecc5852,2022-06-29_09h09.56.704,Colour_Asymmetry_Pilot,2022.1.3,Win32,59.93407252,62bbe60bf3d75ef465d3e404,,,,,,,,,,,,,,,,,,,,,,,,,,,,,,,,,,,,,,,,,,,,,,,,,,,,,,,,,,,,,,,,,,,,,,,,,,,,,,,,,,,,,,,,,,,,,,,,,,,,,,,,,,,,,,,,,,,,,,,,,,,,,,,,,,,,,,,,,,,,,,,,,,,,,,,,,,,
0,91,91,5,1,,5ca0aae22fd4860001a4d560,62bbfab4b853f4201ecc5852,2022-06-29_09h09.56.704,Colour_Asymmetry_Pilot,2022.1.3,Win32,59.93407252,62bbe60bf3d75ef465d3e404,,,,,,,,,,,,,,,,,,,,,,,,,,,,,,,,,,,,,,,,,,,,,,,,,,,,,,,,,,,,,,,,,,,,,,,,,,,,,,,,,,,,,,,,,,,,,,,,,,,,,,,,,,,,,,,,,,,,,,,,,,,,,,,,,,,,,,,,,,,,,,,,,,,,,,,,,,,
0,92,92,14,1,,5ca0aae22fd4860001a4d560,62bbfab4b853f4201ecc5852,2022-06-29_09h09.56.704,Colour_Asymmetry_Pilot,2022.1.3,Win32,59.93407252,62bbe60bf3d75ef465d3e404,,,,,,,,,,,,,,,,,,,,,,,,,,,,,,,,,,,,,,,,,,,,,,,,,,,,,,,,,,,,,,,,,,,,,,,,,,,,,,,,,,,,,,,,,,,,,,,,,,,,,,,,,,,,,,,,,,,,,,,,,,,,,,,,,,,,,,,,,,,,,,,,,,,,,,,,,,,
,,,,,,5ca0aae22fd4860001a4d560,62bbfab4b853f4201ecc5852,2022-06-29_09h09.56.704,Colour_Asymmetry_Pilot,2022.1.3,Win32,59.93407252,62bbe60bf3d75ef465d3e404,0,0,0,32,1,onetwo,,,,,,,,,,,,,,,,,,,,,,,,,,,,,,,,,,,,,,,,,,,,,,,,,,,,,,,,,,,,,,,,,,,,,,,,,,,,,,,,,,,,,,,,,,,,,,,,,,,,,,,,,,,,,,,,,,,,,,,,,,,,,,,,,,,,,,,,,,,,,,,,,,,,,
,,,,,,5ca0aae22fd4860001a4d560,62bbfab4b853f4201ecc5852,2022-06-29_09h09.56.704,Colour_Asymmetry_Pilot,2022.1.3,Win32,59.93407252,62bbe60bf3d75ef465d3e404,0,1,1,8,1,onetwo,,,,,,,,,,,,,,,,,,,,,,,,,,,,,,,,,,,,,,,,,,,,,,,,,,,,,,,,,,,,,,,,,,,,,,,,,,,,,,,,,,,,,,,,,,,,,,,,,,,,,,,,,,,,,,,,,,,,,,,,,,,,,,,,,,,,,,,,,,,,,,,,,,,,,
,,,,,,5ca0aae22fd4860001a4d560,62bbfab4b853f4201ecc5852,2022-06-29_09h09.56.704,Colour_Asymmetry_Pilot,2022.1.3,Win32,59.93407252,62bbe60bf3d75ef465d3e404,0,2,2,50,1,twoone,,,,,,,,,,,,,,,,,,,,,,,,,,,,,,,,,,,,,,,,,,,,,,,,,,,,,,,,,,,,,,,,,,,,,,,,,,,,,,,,,,,,,,,,,,,,,,,,,,,,,,,,,,,,,,,,,,,,,,,,,,,,,,,,,,,,,,,,,,,,,,,,,,,,,
,,,,,,5ca0aae22fd4860001a4d560,62bbfab4b853f4201ecc5852,2022-06-29_09h09.56.704,Colour_Asymmetry_Pilot,2022.1.3,Win32,59.93407252,62bbe60bf3d75ef465d3e404,0,3,3,40,1,onetwo,,,,,,,,,,,,,,,,,,,,,,,,,,,,,,,,,,,,,,,,,,,,,,,,,,,,,,,,,,,,,,,,,,,,,,,,,,,,,,,,,,,,,,,,,,,,,,,,,,,,,,,,,,,,,,,,,,,,,,,,,,,,,,,,,,,,,,,,,,,,,,,,,,,,,
,,,,,,5ca0aae22fd4860001a4d560,62bbfab4b853f4201ecc5852,2022-06-29_09h09.56.704,Colour_Asymmetry_Pilot,2022.1.3,Win32,59.93407252,62bbe60bf3d75ef465d3e404,0,4,4,114,1,twoone,,,,,,,,,,,,,,,,,,,,,,,,,,,,,,,,,,,,,,,,,,,,,,,,,,,,,,,,,,,,,,,,,,,,,,,,,,,,,,,,,,,,,,,,,,,,,,,,,,,,,,,,,,,,,,,,,,,,,,,,,,,,,,,,,,,,,,,,,,,,,,,,,,,,,
,,,,,,5ca0aae22fd4860001a4d560,62bbfab4b853f4201ecc5852,2022-06-29_09h09.56.704,Colour_Asymmetry_Pilot,2022.1.3,Win32,59.93407252,62bbe60bf3d75ef465d3e404,0,5,5,139,1,twofour,,,,,,,,,,,,,,,,,,,,,,,,,,,,,,,,,,,,,,,,,,,,,,,,,,,,,,,,,,,,,,,,,,,,,,,,,,,,,,,,,,,,,,,,,,,,,,,,,,,,,,,,,,,,,,,,,,,,,,,,,,,,,,,,,,,,,,,,,,,,,,,,,,,,,
,,,,,,5ca0aae22fd4860001a4d560,62bbfab4b853f4201ecc5852,2022-06-29_09h09.56.704,Colour_Asymmetry_Pilot,2022.1.3,Win32,59.93407252,62bbe60bf3d75ef465d3e404,0,6,6,130,1,twoone,,,,,,,,,,,,,,,,,,,,,,,,,,,,,,,,,,,,,,,,,,,,,,,,,,,,,,,,,,,,,,,,,,,,,,,,,,,,,,,,,,,,,,,,,,,,,,,,,,,,,,,,,,,,,,,,,,,,,,,,,,,,,,,,,,,,,,,,,,,,,,,,,,,,,
,,,,,,5ca0aae22fd4860001a4d560,62bbfab4b853f4201ecc5852,2022-06-29_09h09.56.704,Colour_Asymmetry_Pilot,2022.1.3,Win32,59.93407252,62bbe60bf3d75ef465d3e404,0,7,7,141,1,threefour,,,,,,,,,,,,,,,,,,,,,,,,,,,,,,,,,,,,,,,,,,,,,,,,,,,,,,,,,,,,,,,,,,,,,,,,,,,,,,,,,,,,,,,,,,,,,,,,,,,,,,,,,,,,,,,,,,,,,,,,,,,,,,,,,,,,,,,,,,,,,,,,,,,,,
,,,,,,5ca0aae22fd4860001a4d560,62bbfab4b853f4201ecc5852,2022-06-29_09h09.56.704,Colour_Asymmetry_Pilot,2022.1.3,Win32,59.93407252,62bbe60bf3d75ef465d3e404,0,8,8,154,1,twoone,,,,,,,,,,,,,,,,,,,,,,,,,,,,,,,,,,,,,,,,,,,,,,,,,,,,,,,,,,,,,,,,,,,,,,,,,,,,,,,,,,,,,,,,,,,,,,,,,,,,,,,,,,,,,,,,,,,,,,,,,,,,,,,,,,,,,,,,,,,,,,,,,,,,,
,,,,,,5ca0aae22fd4860001a4d560,62bbfab4b853f4201ecc5852,2022-06-29_09h09.56.704,Colour_Asymmetry_Pilot,2022.1.3,Win32,59.93407252,62bbe60bf3d75ef465d3e404,0,9,9,39,1,fourthree,,,,,,,,,,,,,,,,,,,,,,,,,,,,,,,,,,,,,,,,,,,,,,,,,,,,,,,,,,,,,,,,,,,,,,,,,,,,,,,,,,,,,,,,,,,,,,,,,,,,,,,,,,,,,,,,,,,,,,,,,,,,,,,,,,,,,,,,,,,,,,,,,,,,,
,,,,,,5ca0aae22fd4860001a4d560,62bbfab4b853f4201ecc5852,2022-06-29_09h09.56.704,Colour_Asymmetry_Pilot,2022.1.3,Win32,59.93407252,62bbe60bf3d75ef465d3e404,0,10,10,20,1,threeone,,,,,,,,,,,,,,,,,,,,,,,,,,,,,,,,,,,,,,,,,,,,,,,,,,,,,,,,,,,,,,,,,,,,,,,,,,,,,,,,,,,,,,,,,,,,,,,,,,,,,,,,,,,,,,,,,,,,,,,,,,,,,,,,,,,,,,,,,,,,,,,,,,,,,
,,,,,,5ca0aae22fd4860001a4d560,62bbfab4b853f4201ecc5852,2022-06-29_09h09.56.704,Colour_Asymmetry_Pilot,2022.1.3,Win32,59.93407252,62bbe60bf3d75ef465d3e404,0,11,11,92,1,threeone,,,,,,,,,,,,,,,,,,,,,,,,,,,,,,,,,,,,,,,,,,,,,,,,,,,,,,,,,,,,,,,,,,,,,,,,,,,,,,,,,,,,,,,,,,,,,,,,,,,,,,,,,,,,,,,,,,,,,,,,,,,,,,,,,,,,,,,,,,,,,,,,,,,,,
,,,,,,5ca0aae22fd4860001a4d560,62bbfab4b853f4201ecc5852,2022-06-29_09h09.56.704,Colour_Asymmetry_Pilot,2022.1.3,Win32,59.93407252,62bbe60bf3d75ef465d3e404,0,12,12,7,1,fourthree,,,,,,,,,,,,,,,,,,,,,,,,,,,,,,,,,,,,,,,,,,,,,,,,,,,,,,,,,,,,,,,,,,,,,,,,,,,,,,,,,,,,,,,,,,,,,,,,,,,,,,,,,,,,,,,,,,,,,,,,,,,,,,,,,,,,,,,,,,,,,,,,,,,,,
,,,,,,5ca0aae22fd4860001a4d560,62bbfab4b853f4201ecc5852,2022-06-29_09h09.56.704,Colour_Asymmetry_Pilot,2022.1.3,Win32,59.93407252,62bbe60bf3d75ef465d3e404,0,13,13,102,1,fourtwo,,,,,,,,,,,,,,,,,,,,,,,,,,,,,,,,,,,,,,,,,,,,,,,,,,,,,,,,,,,,,,,,,,,,,,,,,,,,,,,,,,,,,,,,,,,,,,,,,,,,,,,,,,,,,,,,,,,,,,,,,,,,,,,,,,,,,,,,,,,,,,,,,,,,,
,,,,,,5ca0aae22fd4860001a4d560,62bbfab4b853f4201ecc5852,2022-06-29_09h09.56.704,Colour_Asymmetry_Pilot,2022.1.3,Win32,59.93407252,62bbe60bf3d75ef465d3e404,0,14,14,35,1,twofour,,,,,,,,,,,,,,,,,,,,,,,,,,,,,,,,,,,,,,,,,,,,,,,,,,,,,,,,,,,,,,,,,,,,,,,,,,,,,,,,,,,,,,,,,,,,,,,,,,,,,,,,,,,,,,,,,,,,,,,,,,,,,,,,,,,,,,,,,,,,,,,,,,,,,
,,,,,,5ca0aae22fd4860001a4d560,62bbfab4b853f4201ecc5852,2022-06-29_09h09.56.704,Colour_Asymmetry_Pilot,2022.1.3,Win32,59.93407252,62bbe60bf3d75ef465d3e404,0,15,15,146,1,twoone,,,,,,,,,,,,,,,,,,,,,,,,,,,,,,,,,,,,,,,,,,,,,,,,,,,,,,,,,,,,,,,,,,,,,,,,,,,,,,,,,,,,,,,,,,,,,,,,,,,,,,,,,,,,,,,,,,,,,,,,,,,,,,,,,,,,,,,,,,,,,,,,,,,,,
,,,,,,5ca0aae22fd4860001a4d560,62bbfab4b853f4201ecc5852,2022-06-29_09h09.56.704,Colour_Asymmetry_Pilot,2022.1.3,Win32,59.93407252,62bbe60bf3d75ef465d3e404,0,16,16,88,1,onetwo,,,,,,,,,,,,,,,,,,,,,,,,,,,,,,,,,,,,,,,,,,,,,,,,,,,,,,,,,,,,,,,,,,,,,,,,,,,,,,,,,,,,,,,,,,,,,,,,,,,,,,,,,,,,,,,,,,,,,,,,,,,,,,,,,,,,,,,,,,,,,,,,,,,,,
,,,,,,5ca0aae22fd4860001a4d560,62bbfab4b853f4201ecc5852,2022-06-29_09h09.56.704,Colour_Asymmetry_Pilot,2022.1.3,Win32,59.93407252,62bbe60bf3d75ef465d3e404,0,17,17,86,1,fourtwo,,,,,,,,,,,,,,,,,,,,,,,,,,,,,,,,,,,,,,,,,,,,,,,,,,,,,,,,,,,,,,,,,,,,,,,,,,,,,,,,,,,,,,,,,,,,,,,,,,,,,,,,,,,,,,,,,,,,,,,,,,,,,,,,,,,,,,,,,,,,,,,,,,,,,
,,,,,,5ca0aae22fd4860001a4d560,62bbfab4b853f4201ecc5852,2022-06-29_09h09.56.704,Colour_Asymmetry_Pilot,2022.1.3,Win32,59.93407252,62bbe60bf3d75ef465d3e404,0,18,18,100,1,threeone,,,,,,,,,,,,,,,,,,,,,,,,,,,,,,,,,,,,,,,,,,,,,,,,,,,,,,,,,,,,,,,,,,,,,,,,,,,,,,,,,,,,,,,,,,,,,,,,,,,,,,,,,,,,,,,,,,,,,,,,,,,,,,,,,,,,,,,,,,,,,,,,,,,,,
,,,,,,5ca0aae22fd4860001a4d560,62bbfab4b853f4201ecc5852,2022-06-29_09h09.56.704,Colour_Asymmetry_Pilot,2022.1.3,Win32,59.93407252,62bbe60bf3d75ef465d3e404,0,19,19,76,1,threeone,,,,,,,,,,,,,,,,,,,,,,,,,,,,,,,,,,,,,,,,,,,,,,,,,,,,,,,,,,,,,,,,,,,,,,,,,,,,,,,,,,,,,,,,,,,,,,,,,,,,,,,,,,,,,,,,,,,,,,,,,,,,,,,,,,,,,,,,,,,,,,,,,,,,,
,,,,,,5ca0aae22fd4860001a4d560,62bbfab4b853f4201ecc5852,2022-06-29_09h09.56.704,Colour_Asymmetry_Pilot,2022.1.3,Win32,59.93407252,62bbe60bf3d75ef465d3e404,0,20,20,51,1,twofour,,,,,,,,,,,,,,,,,,,,,,,,,,,,,,,,,,,,,,,,,,,,,,,,,,,,,,,,,,,,,,,,,,,,,,,,,,,,,,,,,,,,,,,,,,,,,,,,,,,,,,,,,,,,,,,,,,,,,,,,,,,,,,,,,,,,,,,,,,,,,,,,,,,,,
,,,,,,5ca0aae22fd4860001a4d560,62bbfab4b853f4201ecc5852,2022-06-29_09h09.56.704,Colour_Asymmetry_Pilot,2022.1.3,Win32,59.93407252,62bbe60bf3d75ef465d3e404,0,21,21,159,1,fourthree,,,,,,,,,,,,,,,,,,,,,,,,,,,,,,,,,,,,,,,,,,,,,,,,,,,,,,,,,,,,,,,,,,,,,,,,,,,,,,,,,,,,,,,,,,,,,,,,,,,,,,,,,,,,,,,,,,,,,,,,,,,,,,,,,,,,,,,,,,,,,,,,,,,,,
,,,,,,5ca0aae22fd4860001a4d560,62bbfab4b853f4201ecc5852,2022-06-29_09h09.56.704,Colour_Asymmetry_Pilot,2022.1.3,Win32,59.93407252,62bbe60bf3d75ef465d3e404,0,22,22,128,1,onetwo,,,,,,,,,,,,,,,,,,,,,,,,,,,,,,,,,,,,,,,,,,,,,,,,,,,,,,,,,,,,,,,,,,,,,,,,,,,,,,,,,,,,,,,,,,,,,,,,,,,,,,,,,,,,,,,,,,,,,,,,,,,,,,,,,,,,,,,,,,,,,,,,,,,,,
,,,,,,5ca0aae22fd4860001a4d560,62bbfab4b853f4201ecc5852,2022-06-29_09h09.56.704,Colour_Asymmetry_Pilot,2022.1.3,Win32,59.93407252,62bbe60bf3d75ef465d3e404,0,23,23,78,1,fourtwo,,,,,,,,,,,,,,,,,,,,,,,,,,,,,,,,,,,,,,,,,,,,,,,,,,,,,,,,,,,,,,,,,,,,,,,,,,,,,,,,,,,,,,,,,,,,,,,,,,,,,,,,,,,,,,,,,,,,,,,,,,,,,,,,,,,,,,,,,,,,,,,,,,,,,
,,,,,,5ca0aae22fd4860001a4d560,62bbfab4b853f4201ecc5852,2022-06-29_09h09.56.704,Colour_Asymmetry_Pilot,2022.1.3,Win32,59.93407252,62bbe60bf3d75ef465d3e404,0,24,24,152,1,onetwo,,,,,,,,,,,,,,,,,,,,,,,,,,,,,,,,,,,,,,,,,,,,,,,,,,,,,,,,,,,,,,,,,,,,,,,,,,,,,,,,,,,,,,,,,,,,,,,,,,,,,,,,,,,,,,,,,,,,,,,,,,,,,,,,,,,,,,,,,,,,,,,,,,,,,
,,,,,,5ca0aae22fd4860001a4d560,62bbfab4b853f4201ecc5852,2022-06-29_09h09.56.704,Colour_Asymmetry_Pilot,2022.1.3,Win32,59.93407252,62bbe60bf3d75ef465d3e404,0,25,25,148,1,threeone,,,,,,,,,,,,,,,,,,,,,,,,,,,,,,,,,,,,,,,,,,,,,,,,,,,,,,,,,,,,,,,,,,,,,,,,,,,,,,,,,,,,,,,,,,,,,,,,,,,,,,,,,,,,,,,,,,,,,,,,,,,,,,,,,,,,,,,,,,,,,,,,,,,,,
,,,,,,5ca0aae22fd4860001a4d560,62bbfab4b853f4201ecc5852,2022-06-29_09h09.56.704,Colour_Asymmetry_Pilot,2022.1.3,Win32,59.93407252,62bbe60bf3d75ef465d3e404,0,26,26,126,1,fourtwo,,,,,,,,,,,,,,,,,,,,,,,,,,,,,,,,,,,,,,,,,,,,,,,,,,,,,,,,,,,,,,,,,,,,,,,,,,,,,,,,,,,,,,,,,,,,,,,,,,,,,,,,,,,,,,,,,,,,,,,,,,,,,,,,,,,,,,,,,,,,,,,,,,,,,
,,,,,,5ca0aae22fd4860001a4d560,62bbfab4b853f4201ecc5852,2022-06-29_09h09.56.704,Colour_Asymmetry_Pilot,2022.1.3,Win32,59.93407252,62bbe60bf3d75ef465d3e404,0,27,27,117,1,threefour,,,,,,,,,,,,,,,,,,,,,,,,,,,,,,,,,,,,,,,,,,,,,,,,,,,,,,,,,,,,,,,,,,,,,,,,,,,,,,,,,,,,,,,,,,,,,,,,,,,,,,,,,,,,,,,,,,,,,,,,,,,,,,,,,,,,,,,,,,,,,,,,,,,,,
,,,,,,5ca0aae22fd4860001a4d560,62bbfab4b853f4201ecc5852,2022-06-29_09h09.56.704,Colour_Asymmetry_Pilot,2022.1.3,Win32,59.93407252,62bbe60bf3d75ef465d3e404,0,28,28,21,1,threefour,,,,,,,,,,,,,,,,,,,,,,,,,,,,,,,,,,,,,,,,,,,,,,,,,,,,,,,,,,,,,,,,,,,,,,,,,,,,,,,,,,,,,,,,,,,,,,,,,,,,,,,,,,,,,,,,,,,,,,,,,,,,,,,,,,,,,,,,,,,,,,,,,,,,,
,,,,,,5ca0aae22fd4860001a4d560,62bbfab4b853f4201ecc5852,2022-06-29_09h09.56.704,Colour_Asymmetry_Pilot,2022.1.3,Win32,59.93407252,62bbe60bf3d75ef465d3e404,0,29,29,25,1,onethree,,,,,,,,,,,,,,,,,,,,,,,,,,,,,,,,,,,,,,,,,,,,,,,,,,,,,,,,,,,,,,,,,,,,,,,,,,,,,,,,,,,,,,,,,,,,,,,,,,,,,,,,,,,,,,,,,,,,,,,,,,,,,,,,,,,,,,,,,,,,,,,,,,,,,
,,,,,,5ca0aae22fd4860001a4d560,62bbfab4b853f4201ecc5852,2022-06-29_09h09.56.704,Colour_Asymmetry_Pilot,2022.1.3,Win32,59.93407252,62bbe60bf3d75ef465d3e404,0,30,30,38,1,fourtwo,,,,,,,,,,,,,,,,,,,,,,,,,,,,,,,,,,,,,,,,,,,,,,,,,,,,,,,,,,,,,,,,,,,,,,,,,,,,,,,,,,,,,,,,,,,,,,,,,,,,,,,,,,,,,,,,,,,,,,,,,,,,,,,,,,,,,,,,,,,,,,,,,,,,,
,,,,,,5ca0aae22fd4860001a4d560,62bbfab4b853f4201ecc5852,2022-06-29_09h09.56.704,Colour_Asymmetry_Pilot,2022.1.3,Win32,59.93407252,62bbe60bf3d75ef465d3e404,0,31,31,57,1,onethree,,,,,,,,,,,,,,,,,,,,,,,,,,,,,,,,,,,,,,,,,,,,,,,,,,,,,,,,,,,,,,,,,,,,,,,,,,,,,,,,,,,,,,,,,,,,,,,,,,,,,,,,,,,,,,,,,,,,,,,,,,,,,,,,,,,,,,,,,,,,,,,,,,,,,
,,,,,,5ca0aae22fd4860001a4d560,62bbfab4b853f4201ecc5852,2022-06-29_09h09.56.704,Colour_Asymmetry_Pilot,2022.1.3,Win32,59.93407252,62bbe60bf3d75ef465d3e404,0,32,32,107,1,twofour,,,,,,,,,,,,,,,,,,,,,,,,,,,,,,,,,,,,,,,,,,,,,,,,,,,,,,,,,,,,,,,,,,,,,,,,,,,,,,,,,,,,,,,,,,,,,,,,,,,,,,,,,,,,,,,,,,,,,,,,,,,,,,,,,,,,,,,,,,,,,,,,,,,,,
,,,,,,5ca0aae22fd4860001a4d560,62bbfab4b853f4201ecc5852,2022-06-29_09h09.56.704,Colour_Asymmetry_Pilot,2022.1.3,Win32,59.93407252,62bbe60bf3d75ef465d3e404,0,33,33,127,1,fourthree,,,,,,,,,,,,,,,,,,,,,,,,,,,,,,,,,,,,,,,,,,,,,,,,,,,,,,,,,,,,,,,,,,,,,,,,,,,,,,,,,,,,,,,,,,,,,,,,,,,,,,,,,,,,,,,,,,,,,,,,,,,,,,,,,,,,,,,,,,,,,,,,,,,,,
,,,,,,5ca0aae22fd4860001a4d560,62bbfab4b853f4201ecc5852,2022-06-29_09h09.56.704,Colour_Asymmetry_Pilot,2022.1.3,Win32,59.93407252,62bbe60bf3d75ef465d3e404,0,34,34,106,1,twoone,,,,,,,,,,,,,,,,,,,,,,,,,,,,,,,,,,,,,,,,,,,,,,,,,,,,,,,,,,,,,,,,,,,,,,,,,,,,,,,,,,,,,,,,,,,,,,,,,,,,,,,,,,,,,,,,,,,,,,,,,,,,,,,,,,,,,,,,,,,,,,,,,,,,,
,,,,,,5ca0aae22fd4860001a4d560,62bbfab4b853f4201ecc5852,2022-06-29_09h09.56.704,Colour_Asymmetry_Pilot,2022.1.3,Win32,59.93407252,62bbe60bf3d75ef465d3e404,0,35,35,67,1,twofour,,,,,,,,,,,,,,,,,,,,,,,,,,,,,,,,,,,,,,,,,,,,,,,,,,,,,,,,,,,,,,,,,,,,,,,,,,,,,,,,,,,,,,,,,,,,,,,,,,,,,,,,,,,,,,,,,,,,,,,,,,,,,,,,,,,,,,,,,,,,,,,,,,,,,
,,,,,,5ca0aae22fd4860001a4d560,62bbfab4b853f4201ecc5852,2022-06-29_09h09.56.704,Colour_Asymmetry_Pilot,2022.1.3,Win32,59.93407252,62bbe60bf3d75ef465d3e404,0,36,36,94,1,fourtwo,,,,,,,,,,,,,,,,,,,,,,,,,,,,,,,,,,,,,,,,,,,,,,,,,,,,,,,,,,,,,,,,,,,,,,,,,,,,,,,,,,,,,,,,,,,,,,,,,,,,,,,,,,,,,,,,,,,,,,,,,,,,,,,,,,,,,,,,,,,,,,,,,,,,,
,,,,,,5ca0aae22fd4860001a4d560,62bbfab4b853f4201ecc5852,2022-06-29_09h09.56.704,Colour_Asymmetry_Pilot,2022.1.3,Win32,59.93407252,62bbe60bf3d75ef465d3e404,0,37,37,119,1,fourthree,,,,,,,,,,,,,,,,,,,,,,,,,,,,,,,,,,,,,,,,,,,,,,,,,,,,,,,,,,,,,,,,,,,,,,,,,,,,,,,,,,,,,,,,,,,,,,,,,,,,,,,,,,,,,,,,,,,,,,,,,,,,,,,,,,,,,,,,,,,,,,,,,,,,,
,,,,,,5ca0aae22fd4860001a4d560,62bbfab4b853f4201ecc5852,2022-06-29_09h09.56.704,Colour_Asymmetry_Pilot,2022.1.3,Win32,59.93407252,62bbe60bf3d75ef465d3e404,0,38,38,66,1,twoone,,,,,,,,,,,,,,,,,,,,,,,,,,,,,,,,,,,,,,,,,,,,,,,,,,,,,,,,,,,,,,,,,,,,,,,,,,,,,,,,,,,,,,,,,,,,,,,,,,,,,,,,,,,,,,,,,,,,,,,,,,,,,,,,,,,,,,,,,,,,,,,,,,,,,
,,,,,,5ca0aae22fd4860001a4d560,62bbfab4b853f4201ecc5852,2022-06-29_09h09.56.704,Colour_Asymmetry_Pilot,2022.1.3,Win32,59.93407252,62bbe60bf3d75ef465d3e404,0,39,39,90,1,twoone,,,,,,,,,,,,,,,,,,,,,,,,,,,,,,,,,,,,,,,,,,,,,,,,,,,,,,,,,,,,,,,,,,,,,,,,,,,,,,,,,,,,,,,,,,,,,,,,,,,,,,,,,,,,,,,,,,,,,,,,,,,,,,,,,,,,,,,,,,,,,,,,,,,,,
,,,,,,5ca0aae22fd4860001a4d560,62bbfab4b853f4201ecc5852,2022-06-29_09h09.56.704,Colour_Asymmetry_Pilot,2022.1.3,Win32,59.93407252,62bbe60bf3d75ef465d3e404,0,40,40,27,1,twofour,,,,,,,,,,,,,,,,,,,,,,,,,,,,,,,,,,,,,,,,,,,,,,,,,,,,,,,,,,,,,,,,,,,,,,,,,,,,,,,,,,,,,,,,,,,,,,,,,,,,,,,,,,,,,,,,,,,,,,,,,,,,,,,,,,,,,,,,,,,,,,,,,,,,,
,,,,,,5ca0aae22fd4860001a4d560,62bbfab4b853f4201ecc5852,2022-06-29_09h09.56.704,Colour_Asymmetry_Pilot,2022.1.3,Win32,59.93407252,62bbe60bf3d75ef465d3e404,0,41,41,26,1,twoone,,,,,,,,,,,,,,,,,,,,,,,,,,,,,,,,,,,,,,,,,,,,,,,,,,,,,,,,,,,,,,,,,,,,,,,,,,,,,,,,,,,,,,,,,,,,,,,,,,,,,,,,,,,,,,,,,,,,,,,,,,,,,,,,,,,,,,,,,,,,,,,,,,,,,
,,,,,,5ca0aae22fd4860001a4d560,62bbfab4b853f4201ecc5852,2022-06-29_09h09.56.704,Colour_Asymmetry_Pilot,2022.1.3,Win32,59.93407252,62bbe60bf3d75ef465d3e404,0,42,42,140,1,threeone,,,,,,,,,,,,,,,,,,,,,,,,,,,,,,,,,,,,,,,,,,,,,,,,,,,,,,,,,,,,,,,,,,,,,,,,,,,,,,,,,,,,,,,,,,,,,,,,,,,,,,,,,,,,,,,,,,,,,,,,,,,,,,,,,,,,,,,,,,,,,,,,,,,,,
,,,,,,5ca0aae22fd4860001a4d560,62bbfab4b853f4201ecc5852,2022-06-29_09h09.56.704,Colour_Asymmetry_Pilot,2022.1.3,Win32,59.93407252,62bbe60bf3d75ef465d3e404,0,43,43,151,1,fourthree,,,,,,,,,,,,,,,,,,,,,,,,,,,,,,,,,,,,,,,,,,,,,,,,,,,,,,,,,,,,,,,,,,,,,,,,,,,,,,,,,,,,,,,,,,,,,,,,,,,,,,,,,,,,,,,,,,,,,,,,,,,,,,,,,,,,,,,,,,,,,,,,,,,,,
,,,,,,5ca0aae22fd4860001a4d560,62bbfab4b853f4201ecc5852,2022-06-29_09h09.56.704,Colour_Asymmetry_Pilot,2022.1.3,Win32,59.93407252,62bbe60bf3d75ef465d3e404,0,44,44,48,1,onetwo,,,,,,,,,,,,,,,,,,,,,,,,,,,,,,,,,,,,,,,,,,,,,,,,,,,,,,,,,,,,,,,,,,,,,,,,,,,,,,,,,,,,,,,,,,,,,,,,,,,,,,,,,,,,,,,,,,,,,,,,,,,,,,,,,,,,,,,,,,,,,,,,,,,,,
,,,,,,5ca0aae22fd4860001a4d560,62bbfab4b853f4201ecc5852,2022-06-29_09h09.56.704,Colour_Asymmetry_Pilot,2022.1.3,Win32,59.93407252,62bbe60bf3d75ef465d3e404,0,45,45,71,1,fourthree,,,,,,,,,,,,,,,,,,,,,,,,,,,,,,,,,,,,,,,,,,,,,,,,,,,,,,,,,,,,,,,,,,,,,,,,,,,,,,,,,,,,,,,,,,,,,,,,,,,,,,,,,,,,,,,,,,,,,,,,,,,,,,,,,,,,,,,,,,,,,,,,,,,,,
,,,,,,5ca0aae22fd4860001a4d560,62bbfab4b853f4201ecc5852,2022-06-29_09h09.56.704,Colour_Asymmetry_Pilot,2022.1.3,Win32,59.93407252,62bbe60bf3d75ef465d3e404,0,46,46,2,1,twoone,,,,,,,,,,,,,,,,,,,,,,,,,,,,,,,,,,,,,,,,,,,,,,,,,,,,,,,,,,,,,,,,,,,,,,,,,,,,,,,,,,,,,,,,,,,,,,,,,,,,,,,,,,,,,,,,,,,,,,,,,,,,,,,,,,,,,,,,,,,,,,,,,,,,,
,,,,,,5ca0aae22fd4860001a4d560,62bbfab4b853f4201ecc5852,2022-06-29_09h09.56.704,Colour_Asymmetry_Pilot,2022.1.3,Win32,59.93407252,62bbe60bf3d75ef465d3e404,0,47,47,83,1,twofour,,,,,,,,,,,,,,,,,,,,,,,,,,,,,,,,,,,,,,,,,,,,,,,,,,,,,,,,,,,,,,,,,,,,,,,,,,,,,,,,,,,,,,,,,,,,,,,,,,,,,,,,,,,,,,,,,,,,,,,,,,,,,,,,,,,,,,,,,,,,,,,,,,,,,
,,,,,,5ca0aae22fd4860001a4d560,62bbfab4b853f4201ecc5852,2022-06-29_09h09.56.704,Colour_Asymmetry_Pilot,2022.1.3,Win32,59.93407252,62bbe60bf3d75ef465d3e404,0,48,48,34,1,twoone,,,,,,,,,,,,,,,,,,,,,,,,,,,,,,,,,,,,,,,,,,,,,,,,,,,,,,,,,,,,,,,,,,,,,,,,,,,,,,,,,,,,,,,,,,,,,,,,,,,,,,,,,,,,,,,,,,,,,,,,,,,,,,,,,,,,,,,,,,,,,,,,,,,,,
,,,,,,5ca0aae22fd4860001a4d560,62bbfab4b853f4201ecc5852,2022-06-29_09h09.56.704,Colour_Asymmetry_Pilot,2022.1.3,Win32,59.93407252,62bbe60bf3d75ef465d3e404,0,49,49,156,1,threeone,,,,,,,,,,,,,,,,,,,,,,,,,,,,,,,,,,,,,,,,,,,,,,,,,,,,,,,,,,,,,,,,,,,,,,,,,,,,,,,,,,,,,,,,,,,,,,,,,,,,,,,,,,,,,,,,,,,,,,,,,,,,,,,,,,,,,,,,,,,,,,,,,,,,,
,,,,,,5ca0aae22fd4860001a4d560,62bbfab4b853f4201ecc5852,2022-06-29_09h09.56.704,Colour_Asymmetry_Pilot,2022.1.3,Win32,59.93407252,62bbe60bf3d75ef465d3e404,0,50,50,125,1,threefour,,,,,,,,,,,,,,,,,,,,,,,,,,,,,,,,,,,,,,,,,,,,,,,,,,,,,,,,,,,,,,,,,,,,,,,,,,,,,,,,,,,,,,,,,,,,,,,,,,,,,,,,,,,,,,,,,,,,,,,,,,,,,,,,,,,,,,,,,,,,,,,,,,,,,
,,,,,,5ca0aae22fd4860001a4d560,62bbfab4b853f4201ecc5852,2022-06-29_09h09.56.704,Colour_Asymmetry_Pilot,2022.1.3,Win32,59.93407252,62bbe60bf3d75ef465d3e404,0,51,51,121,1,onethree,,,,,,,,,,,,,,,,,,,,,,,,,,,,,,,,,,,,,,,,,,,,,,,,,,,,,,,,,,,,,,,,,,,,,,,,,,,,,,,,,,,,,,,,,,,,,,,,,,,,,,,,,,,,,,,,,,,,,,,,,,,,,,,,,,,,,,,,,,,,,,,,,,,,,
,,,,,,5ca0aae22fd4860001a4d560,62bbfab4b853f4201ecc5852,2022-06-29_09h09.56.704,Colour_Asymmetry_Pilot,2022.1.3,Win32,59.93407252,62bbe60bf3d75ef465d3e404,0,52,52,55,1,fourthree,,,,,,,,,,,,,,,,,,,,,,,,,,,,,,,,,,,,,,,,,,,,,,,,,,,,,,,,,,,,,,,,,,,,,,,,,,,,,,,,,,,,,,,,,,,,,,,,,,,,,,,,,,,,,,,,,,,,,,,,,,,,,,,,,,,,,,,,,,,,,,,,,,,,,
,,,,,,5ca0aae22fd4860001a4d560,62bbfab4b853f4201ecc5852,2022-06-29_09h09.56.704,Colour_Asymmetry_Pilot,2022.1.3,Win32,59.93407252,62bbe60bf3d75ef465d3e404,0,53,53,123,1,twofour,,,,,,,,,,,,,,,,,,,,,,,,,,,,,,,,,,,,,,,,,,,,,,,,,,,,,,,,,,,,,,,,,,,,,,,,,,,,,,,,,,,,,,,,,,,,,,,,,,,,,,,,,,,,,,,,,,,,,,,,,,,,,,,,,,,,,,,,,,,,,,,,,,,,,
,,,,,,5ca0aae22fd4860001a4d560,62bbfab4b853f4201ecc5852,2022-06-29_09h09.56.704,Colour_Asymmetry_Pilot,2022.1.3,Win32,59.93407252,62bbe60bf3d75ef465d3e404,0,54,54,65,1,onethree,,,,,,,,,,,,,,,,,,,,,,,,,,,,,,,,,,,,,,,,,,,,,,,,,,,,,,,,,,,,,,,,,,,,,,,,,,,,,,,,,,,,,,,,,,,,,,,,,,,,,,,,,,,,,,,,,,,,,,,,,,,,,,,,,,,,,,,,,,,,,,,,,,,,,
,,,,,,5ca0aae22fd4860001a4d560,62bbfab4b853f4201ecc5852,2022-06-29_09h09.56.704,Colour_Asymmetry_Pilot,2022.1.3,Win32,59.93407252,62bbe60bf3d75ef465d3e404,0,55,55,153,1,onethree,,,,,,,,,,,,,,,,,,,,,,,,,,,,,,,,,,,,,,,,,,,,,,,,,,,,,,,,,,,,,,,,,,,,,,,,,,,,,,,,,,,,,,,,,,,,,,,,,,,,,,,,,,,,,,,,,,,,,,,,,,,,,,,,,,,,,,,,,,,,,,,,,,,,,
,,,,,,5ca0aae22fd4860001a4d560,62bbfab4b853f4201ecc5852,2022-06-29_09h09.56.704,Colour_Asymmetry_Pilot,2022.1.3,Win32,59.93407252,62bbe60bf3d75ef465d3e404,0,56,56,161,1,onethree,,,,,,,,,,,,,,,,,,,,,,,,,,,,,,,,,,,,,,,,,,,,,,,,,,,,,,,,,,,,,,,,,,,,,,,,,,,,,,,,,,,,,,,,,,,,,,,,,,,,,,,,,,,,,,,,,,,,,,,,,,,,,,,,,,,,,,,,,,,,,,,,,,,,,
,,,,,,5ca0aae22fd4860001a4d560,62bbfab4b853f4201ecc5852,2022-06-29_09h09.56.704,Colour_Asymmetry_Pilot,2022.1.3,Win32,59.93407252,62bbe60bf3d75ef465d3e404,0,57,57,124,1,threeone,,,,,,,,,,,,,,,,,,,,,,,,,,,,,,,,,,,,,,,,,,,,,,,,,,,,,,,,,,,,,,,,,,,,,,,,,,,,,,,,,,,,,,,,,,,,,,,,,,,,,,,,,,,,,,,,,,,,,,,,,,,,,,,,,,,,,,,,,,,,,,,,,,,,,
,,,,,,5ca0aae22fd4860001a4d560,62bbfab4b853f4201ecc5852,2022-06-29_09h09.56.704,Colour_Asymmetry_Pilot,2022.1.3,Win32,59.93407252,62bbe60bf3d75ef465d3e404,0,58,58,136,1,onetwo,,,,,,,,,,,,,,,,,,,,,,,,,,,,,,,,,,,,,,,,,,,,,,,,,,,,,,,,,,,,,,,,,,,,,,,,,,,,,,,,,,,,,,,,,,,,,,,,,,,,,,,,,,,,,,,,,,,,,,,,,,,,,,,,,,,,,,,,,,,,,,,,,,,,,
,,,,,,5ca0aae22fd4860001a4d560,62bbfab4b853f4201ecc5852,2022-06-29_09h09.56.704,Colour_Asymmetry_Pilot,2022.1.3,Win32,59.93407252,62bbe60bf3d75ef465d3e404,0,59,59,74,1,twoone,,,,,,,,,,,,,,,,,,,,,,,,,,,,,,,,,,,,,,,,,,,,,,,,,,,,,,,,,,,,,,,,,,,,,,,,,,,,,,,,,,,,,,,,,,,,,,,,,,,,,,,,,,,,,,,,,,,,,,,,,,,,,,,,,,,,,,,,,,,,,,,,,,,,,
,,,,,,5ca0aae22fd4860001a4d560,62bbfab4b853f4201ecc5852,2022-06-29_09h09.56.704,Colour_Asymmetry_Pilot,2022.1.3,Win32,59.93407252,62bbe60bf3d75ef465d3e404,0,60,60,138,1,twoone,,,,,,,,,,,,,,,,,,,,,,,,,,,,,,,,,,,,,,,,,,,,,,,,,,,,,,,,,,,,,,,,,,,,,,,,,,,,,,,,,,,,,,,,,,,,,,,,,,,,,,,,,,,,,,,,,,,,,,,,,,,,,,,,,,,,,,,,,,,,,,,,,,,,,
,,,,,,5ca0aae22fd4860001a4d560,62bbfab4b853f4201ecc5852,2022-06-29_09h09.56.704,Colour_Asymmetry_Pilot,2022.1.3,Win32,59.93407252,62bbe60bf3d75ef465d3e404,0,61,61,113,1,onethree,,,,,,,,,,,,,,,,,,,,,,,,,,,,,,,,,,,,,,,,,,,,,,,,,,,,,,,,,,,,,,,,,,,,,,,,,,,,,,,,,,,,,,,,,,,,,,,,,,,,,,,,,,,,,,,,,,,,,,,,,,,,,,,,,,,,,,,,,,,,,,,,,,,,,
,,,,,,5ca0aae22fd4860001a4d560,62bbfab4b853f4201ecc5852,2022-06-29_09h09.56.704,Colour_Asymmetry_Pilot,2022.1.3,Win32,59.93407252,62bbe60bf3d75ef465d3e404,0,62,62,91,1,twofour,,,,,,,,,,,,,,,,,,,,,,,,,,,,,,,,,,,,,,,,,,,,,,,,,,,,,,,,,,,,,,,,,,,,,,,,,,,,,,,,,,,,,,,,,,,,,,,,,,,,,,,,,,,,,,,,,,,,,,,,,,,,,,,,,,,,,,,,,,,,,,,,,,,,,
,,,,,,5ca0aae22fd4860001a4d560,62bbfab4b853f4201ecc5852,2022-06-29_09h09.56.704,Colour_Asymmetry_Pilot,2022.1.3,Win32,59.93407252,62bbe60bf3d75ef465d3e404,0,63,63,19,1,twofour,,,,,,,,,,,,,,,,,,,,,,,,,,,,,,,,,,,,,,,,,,,,,,,,,,,,,,,,,,,,,,,,,,,,,,,,,,,,,,,,,,,,,,,,,,,,,,,,,,,,,,,,,,,,,,,,,,,,,,,,,,,,,,,,,,,,,,,,,,,,,,,,,,,,,
,,,,,,5ca0aae22fd4860001a4d560,62bbfab4b853f4201ecc5852,2022-06-29_09h09.56.704,Colour_Asymmetry_Pilot,2022.1.3,Win32,59.93407252,62bbe60bf3d75ef465d3e404,0,64,64,29,1,threefour,,,,,,,,,,,,,,,,,,,,,,,,,,,,,,,,,,,,,,,,,,,,,,,,,,,,,,,,,,,,,,,,,,,,,,,,,,,,,,,,,,,,,,,,,,,,,,,,,,,,,,,,,,,,,,,,,,,,,,,,,,,,,,,,,,,,,,,,,,,,,,,,,,,,,
,,,,,,5ca0aae22fd4860001a4d560,62bbfab4b853f4201ecc5852,2022-06-29_09h09.56.704,Colour_Asymmetry_Pilot,2022.1.3,Win32,59.93407252,62bbe60bf3d75ef465d3e404,0,65,65,17,1,onethree,,,,,,,,,,,,,,,,,,,,,,,,,,,,,,,,,,,,,,,,,,,,,,,,,,,,,,,,,,,,,,,,,,,,,,,,,,,,,,,,,,,,,,,,,,,,,,,,,,,,,,,,,,,,,,,,,,,,,,,,,,,,,,,,,,,,,,,,,,,,,,,,,,,,,
,,,,,,5ca0aae22fd4860001a4d560,62bbfab4b853f4201ecc5852,2022-06-29_09h09.56.704,Colour_Asymmetry_Pilot,2022.1.3,Win32,59.93407252,62bbe60bf3d75ef465d3e404,0,66,66,56,1,onetwo,,,,,,,,,,,,,,,,,,,,,,,,,,,,,,,,,,,,,,,,,,,,,,,,,,,,,,,,,,,,,,,,,,,,,,,,,,,,,,,,,,,,,,,,,,,,,,,,,,,,,,,,,,,,,,,,,,,,,,,,,,,,,,,,,,,,,,,,,,,,,,,,,,,,,
,,,,,,5ca0aae22fd4860001a4d560,62bbfab4b853f4201ecc5852,2022-06-29_09h09.56.704,Colour_Asymmetry_Pilot,2022.1.3,Win32,59.93407252,62bbe60bf3d75ef465d3e404,0,67,67,33,1,onethree,,,,,,,,,,,,,,,,,,,,,,,,,,,,,,,,,,,,,,,,,,,,,,,,,,,,,,,,,,,,,,,,,,,,,,,,,,,,,,,,,,,,,,,,,,,,,,,,,,,,,,,,,,,,,,,,,,,,,,,,,,,,,,,,,,,,,,,,,,,,,,,,,,,,,
,,,,,,5ca0aae22fd4860001a4d560,62bbfab4b853f4201ecc5852,2022-06-29_09h09.56.704,Colour_Asymmetry_Pilot,2022.1.3,Win32,59.93407252,62bbe60bf3d75ef465d3e404,0,68,68,63,1,fourthree,,,,,,,,,,,,,,,,,,,,,,,,,,,,,,,,,,,,,,,,,,,,,,,,,,,,,,,,,,,,,,,,,,,,,,,,,,,,,,,,,,,,,,,,,,,,,,,,,,,,,,,,,,,,,,,,,,,,,,,,,,,,,,,,,,,,,,,,,,,,,,,,,,,,,
,,,,,,5ca0aae22fd4860001a4d560,62bbfab4b853f4201ecc5852,2022-06-29_09h09.56.704,Colour_Asymmetry_Pilot,2022.1.3,Win32,59.93407252,62bbe60bf3d75ef465d3e404,0,69,69,14,1,fourtwo,,,,,,,,,,,,,,,,,,,,,,,,,,,,,,,,,,,,,,,,,,,,,,,,,,,,,,,,,,,,,,,,,,,,,,,,,,,,,,,,,,,,,,,,,,,,,,,,,,,,,,,,,,,,,,,,,,,,,,,,,,,,,,,,,,,,,,,,,,,,,,,,,,,,,
,,,,,,5ca0aae22fd4860001a4d560,62bbfab4b853f4201ecc5852,2022-06-29_09h09.56.704,Colour_Asymmetry_Pilot,2022.1.3,Win32,59.93407252,62bbe60bf3d75ef465d3e404,0,70,70,133,1,threefour,,,,,,,,,,,,,,,,,,,,,,,,,,,,,,,,,,,,,,,,,,,,,,,,,,,,,,,,,,,,,,,,,,,,,,,,,,,,,,,,,,,,,,,,,,,,,,,,,,,,,,,,,,,,,,,,,,,,,,,,,,,,,,,,,,,,,,,,,,,,,,,,,,,,,
,,,,,,5ca0aae22fd4860001a4d560,62bbfab4b853f4201ecc5852,2022-06-29_09h09.56.704,Colour_Asymmetry_Pilot,2022.1.3,Win32,59.93407252,62bbe60bf3d75ef465d3e404,0,71,71,95,1,fourthree,,,,,,,,,,,,,,,,,,,,,,,,,,,,,,,,,,,,,,,,,,,,,,,,,,,,,,,,,,,,,,,,,,,,,,,,,,,,,,,,,,,,,,,,,,,,,,,,,,,,,,,,,,,,,,,,,,,,,,,,,,,,,,,,,,,,,,,,,,,,,,,,,,,,,
,,,,,,5ca0aae22fd4860001a4d560,62bbfab4b853f4201ecc5852,2022-06-29_09h09.56.704,Colour_Asymmetry_Pilot,2022.1.3,Win32,59.93407252,62bbe60bf3d75ef465d3e404,0,72,72,59,1,twofour,,,,,,,,,,,,,,,,,,,,,,,,,,,,,,,,,,,,,,,,,,,,,,,,,,,,,,,,,,,,,,,,,,,,,,,,,,,,,,,,,,,,,,,,,,,,,,,,,,,,,,,,,,,,,,,,,,,,,,,,,,,,,,,,,,,,,,,,,,,,,,,,,,,,,
,,,,,,5ca0aae22fd4860001a4d560,62bbfab4b853f4201ecc5852,2022-06-29_09h09.56.704,Colour_Asymmetry_Pilot,2022.1.3,Win32,59.93407252,62bbe60bf3d75ef465d3e404,0,73,73,147,1,twofour,,,,,,,,,,,,,,,,,,,,,,,,,,,,,,,,,,,,,,,,,,,,,,,,,,,,,,,,,,,,,,,,,,,,,,,,,,,,,,,,,,,,,,,,,,,,,,,,,,,,,,,,,,,,,,,,,,,,,,,,,,,,,,,,,,,,,,,,,,,,,,,,,,,,,
,,,,,,5ca0aae22fd4860001a4d560,62bbfab4b853f4201ecc5852,2022-06-29_09h09.56.704,Colour_Asymmetry_Pilot,2022.1.3,Win32,59.93407252,62bbe60bf3d75ef465d3e404,0,74,74,53,1,threefour,,,,,,,,,,,,,,,,,,,,,,,,,,,,,,,,,,,,,,,,,,,,,,,,,,,,,,,,,,,,,,,,,,,,,,,,,,,,,,,,,,,,,,,,,,,,,,,,,,,,,,,,,,,,,,,,,,,,,,,,,,,,,,,,,,,,,,,,,,,,,,,,,,,,,
,,,,,,5ca0aae22fd4860001a4d560,62bbfab4b853f4201ecc5852,2022-06-29_09h09.56.704,Colour_Asymmetry_Pilot,2022.1.3,Win32,59.93407252,62bbe60bf3d75ef465d3e404,0,75,75,43,1,twofour,,,,,,,,,,,,,,,,,,,,,,,,,,,,,,,,,,,,,,,,,,,,,,,,,,,,,,,,,,,,,,,,,,,,,,,,,,,,,,,,,,,,,,,,,,,,,,,,,,,,,,,,,,,,,,,,,,,,,,,,,,,,,,,,,,,,,,,,,,,,,,,,,,,,,
,,,,,,5ca0aae22fd4860001a4d560,62bbfab4b853f4201ecc5852,2022-06-29_09h09.56.704,Colour_Asymmetry_Pilot,2022.1.3,Win32,59.93407252,62bbe60bf3d75ef465d3e404,0,76,76,49,1,onethree,,,,,,,,,,,,,,,,,,,,,,,,,,,,,,,,,,,,,,,,,,,,,,,,,,,,,,,,,,,,,,,,,,,,,,,,,,,,,,,,,,,,,,,,,,,,,,,,,,,,,,,,,,,,,,,,,,,,,,,,,,,,,,,,,,,,,,,,,,,,,,,,,,,,,
,,,,,,5ca0aae22fd4860001a4d560,62bbfab4b853f4201ecc5852,2022-06-29_09h09.56.704,Colour_Asymmetry_Pilot,2022.1.3,Win32,59.93407252,62bbe60bf3d75ef465d3e404,0,77,77,31,1,fourthree,,,,,,,,,,,,,,,,,,,,,,,,,,,,,,,,,,,,,,,,,,,,,,,,,,,,,,,,,,,,,,,,,,,,,,,,,,,,,,,,,,,,,,,,,,,,,,,,,,,,,,,,,,,,,,,,,,,,,,,,,,,,,,,,,,,,,,,,,,,,,,,,,,,,,
,,,,,,5ca0aae22fd4860001a4d560,62bbfab4b853f4201ecc5852,2022-06-29_09h09.56.704,Colour_Asymmetry_Pilot,2022.1.3,Win32,59.93407252,62bbe60bf3d75ef465d3e404,0,78,78,16,1,onetwo,,,,,,,,,,,,,,,,,,,,,,,,,,,,,,,,,,,,,,,,,,,,,,,,,,,,,,,,,,,,,,,,,,,,,,,,,,,,,,,,,,,,,,,,,,,,,,,,,,,,,,,,,,,,,,,,,,,,,,,,,,,,,,,,,,,,,,,,,,,,,,,,,,,,,
,,,,,,5ca0aae22fd4860001a4d560,62bbfab4b853f4201ecc5852,2022-06-29_09h09.56.704,Colour_Asymmetry_Pilot,2022.1.3,Win32,59.93407252,62bbe60bf3d75ef465d3e404,0,79,79,103,1,fourthree,,,,,,,,,,,,,,,,,,,,,,,,,,,,,,,,,,,,,,,,,,,,,,,,,,,,,,,,,,,,,,,,,,,,,,,,,,,,,,,,,,,,,,,,,,,,,,,,,,,,,,,,,,,,,,,,,,,,,,,,,,,,,,,,,,,,,,,,,,,,,,,,,,,,,
,,,,,,5ca0aae22fd4860001a4d560,62bbfab4b853f4201ecc5852,2022-06-29_09h09.56.704,Colour_Asymmetry_Pilot,2022.1.3,Win32,59.93407252,62bbe60bf3d75ef465d3e404,0,80,80,60,1,threeone,,,,,,,,,,,,,,,,,,,,,,,,,,,,,,,,,,,,,,,,,,,,,,,,,,,,,,,,,,,,,,,,,,,,,,,,,,,,,,,,,,,,,,,,,,,,,,,,,,,,,,,,,,,,,,,,,,,,,,,,,,,,,,,,,,,,,,,,,,,,,,,,,,,,,
,,,,,,5ca0aae22fd4860001a4d560,62bbfab4b853f4201ecc5852,2022-06-29_09h09.56.704,Colour_Asymmetry_Pilot,2022.1.3,Win32,59.93407252,62bbe60bf3d75ef465d3e404,0,81,81,5,1,threefour,,,,,,,,,,,,,,,,,,,,,,,,,,,,,,,,,,,,,,,,,,,,,,,,,,,,,,,,,,,,,,,,,,,,,,,,,,,,,,,,,,,,,,,,,,,,,,,,,,,,,,,,,,,,,,,,,,,,,,,,,,,,,,,,,,,,,,,,,,,,,,,,,,,,,
,,,,,,5ca0aae22fd4860001a4d560,62bbfab4b853f4201ecc5852,2022-06-29_09h09.56.704,Colour_Asymmetry_Pilot,2022.1.3,Win32,59.93407252,62bbe60bf3d75ef465d3e404,0,82,82,134,1,fourtwo,,,,,,,,,,,,,,,,,,,,,,,,,,,,,,,,,,,,,,,,,,,,,,,,,,,,,,,,,,,,,,,,,,,,,,,,,,,,,,,,,,,,,,,,,,,,,,,,,,,,,,,,,,,,,,,,,,,,,,,,,,,,,,,,,,,,,,,,,,,,,,,,,,,,,
,,,,,,5ca0aae22fd4860001a4d560,62bbfab4b853f4201ecc5852,2022-06-29_09h09.56.704,Colour_Asymmetry_Pilot,2022.1.3,Win32,59.93407252,62bbe60bf3d75ef465d3e404,0,83,83,44,1,threeone,,,,,,,,,,,,,,,,,,,,,,,,,,,,,,,,,,,,,,,,,,,,,,,,,,,,,,,,,,,,,,,,,,,,,,,,,,,,,,,,,,,,,,,,,,,,,,,,,,,,,,,,,,,,,,,,,,,,,,,,,,,,,,,,,,,,,,,,,,,,,,,,,,,,,
,,,,,,5ca0aae22fd4860001a4d560,62bbfab4b853f4201ecc5852,2022-06-29_09h09.56.704,Colour_Asymmetry_Pilot,2022.1.3,Win32,59.93407252,62bbe60bf3d75ef465d3e404,0,84,84,149,1,threefour,,,,,,,,,,,,,,,,,,,,,,,,,,,,,,,,,,,,,,,,,,,,,,,,,,,,,,,,,,,,,,,,,,,,,,,,,,,,,,,,,,,,,,,,,,,,,,,,,,,,,,,,,,,,,,,,,,,,,,,,,,,,,,,,,,,,,,,,,,,,,,,,,,,,,
,,,,,,5ca0aae22fd4860001a4d560,62bbfab4b853f4201ecc5852,2022-06-29_09h09.56.704,Colour_Asymmetry_Pilot,2022.1.3,Win32,59.93407252,62bbe60bf3d75ef465d3e404,0,85,85,52,1,threeone,,,,,,,,,,,,,,,,,,,,,,,,,,,,,,,,,,,,,,,,,,,,,,,,,,,,,,,,,,,,,,,,,,,,,,,,,,,,,,,,,,,,,,,,,,,,,,,,,,,,,,,,,,,,,,,,,,,,,,,,,,,,,,,,,,,,,,,,,,,,,,,,,,,,,
,,,,,,5ca0aae22fd4860001a4d560,62bbfab4b853f4201ecc5852,2022-06-29_09h09.56.704,Colour_Asymmetry_Pilot,2022.1.3,Win32,59.93407252,62bbe60bf3d75ef465d3e404,0,86,86,69,1,threefour,,,,,,,,,,,,,,,,,,,,,,,,,,,,,,,,,,,,,,,,,,,,,,,,,,,,,,,,,,,,,,,,,,,,,,,,,,,,,,,,,,,,,,,,,,,,,,,,,,,,,,,,,,,,,,,,,,,,,,,,,,,,,,,,,,,,,,,,,,,,,,,,,,,,,
,,,,,,5ca0aae22fd4860001a4d560,62bbfab4b853f4201ecc5852,2022-06-29_09h09.56.704,Colour_Asymmetry_Pilot,2022.1.3,Win32,59.93407252,62bbe60bf3d75ef465d3e404,0,87,87,12,1,threeone,,,,,,,,,,,,,,,,,,,,,,,,,,,,,,,,,,,,,,,,,,,,,,,,,,,,,,,,,,,,,,,,,,,,,,,,,,,,,,,,,,,,,,,,,,,,,,,,,,,,,,,,,,,,,,,,,,,,,,,,,,,,,,,,,,,,,,,,,,,,,,,,,,,,,
,,,,,,5ca0aae22fd4860001a4d560,62bbfab4b853f4201ecc5852,2022-06-29_09h09.56.704,Colour_Asymmetry_Pilot,2022.1.3,Win32,59.93407252,62bbe60bf3d75ef465d3e404,0,88,88,9,1,onethree,,,,,,,,,,,,,,,,,,,,,,,,,,,,,,,,,,,,,,,,,,,,,,,,,,,,,,,,,,,,,,,,,,,,,,,,,,,,,,,,,,,,,,,,,,,,,,,,,,,,,,,,,,,,,,,,,,,,,,,,,,,,,,,,,,,,,,,,,,,,,,,,,,,,,
,,,,,,5ca0aae22fd4860001a4d560,62bbfab4b853f4201ecc5852,2022-06-29_09h09.56.704,Colour_Asymmetry_Pilot,2022.1.3,Win32,59.93407252,62bbe60bf3d75ef465d3e404,0,89,89,108,1,threeone,,,,,,,,,,,,,,,,,,,,,,,,,,,,,,,,,,,,,,,,,,,,,,,,,,,,,,,,,,,,,,,,,,,,,,,,,,,,,,,,,,,,,,,,,,,,,,,,,,,,,,,,,,,,,,,,,,,,,,,,,,,,,,,,,,,,,,,,,,,,,,,,,,,,,
,,,,,,5ca0aae22fd4860001a4d560,62bbfab4b853f4201ecc5852,2022-06-29_09h09.56.704,Colour_Asymmetry_Pilot,2022.1.3,Win32,59.93407252,62bbe60bf3d75ef465d3e404,0,90,90,110,1,fourtwo,,,,,,,,,,,,,,,,,,,,,,,,,,,,,,,,,,,,,,,,,,,,,,,,,,,,,,,,,,,,,,,,,,,,,,,,,,,,,,,,,,,,,,,,,,,,,,,,,,,,,,,,,,,,,,,,,,,,,,,,,,,,,,,,,,,,,,,,,,,,,,,,,,,,,
,,,,,,5ca0aae22fd4860001a4d560,62bbfab4b853f4201ecc5852,2022-06-29_09h09.56.704,Colour_Asymmetry_Pilot,2022.1.3,Win32,59.93407252,62bbe60bf3d75ef465d3e404,0,91,91,137,1,onethree,,,,,,,,,,,,,,,,,,,,,,,,,,,,,,,,,,,,,,,,,,,,,,,,,,,,,,,,,,,,,,,,,,,,,,,,,,,,,,,,,,,,,,,,,,,,,,,,,,,,,,,,,,,,,,,,,,,,,,,,,,,,,,,,,,,,,,,,,,,,,,,,,,,,,
,,,,,,5ca0aae22fd4860001a4d560,62bbfab4b853f4201ecc5852,2022-06-29_09h09.56.704,Colour_Asymmetry_Pilot,2022.1.3,Win32,59.93407252,62bbe60bf3d75ef465d3e404,0,92,92,58,1,twoone,,,,,,,,,,,,,,,,,,,,,,,,,,,,,,,,,,,,,,,,,,,,,,,,,,,,,,,,,,,,,,,,,,,,,,,,,,,,,,,,,,,,,,,,,,,,,,,,,,,,,,,,,,,,,,,,,,,,,,,,,,,,,,,,,,,,,,,,,,,,,,,,,,,,,
,,,,,,5ca0aae22fd4860001a4d560,62bbfab4b853f4201ecc5852,2022-06-29_09h09.56.704,Colour_Asymmetry_Pilot,2022.1.3,Win32,59.93407252,62bbe60bf3d75ef465d3e404,0,93,93,131,1,twofour,,,,,,,,,,,,,,,,,,,,,,,,,,,,,,,,,,,,,,,,,,,,,,,,,,,,,,,,,,,,,,,,,,,,,,,,,,,,,,,,,,,,,,,,,,,,,,,,,,,,,,,,,,,,,,,,,,,,,,,,,,,,,,,,,,,,,,,,,,,,,,,,,,,,,
,,,,,,5ca0aae22fd4860001a4d560,62bbfab4b853f4201ecc5852,2022-06-29_09h09.56.704,Colour_Asymmetry_Pilot,2022.1.3,Win32,59.93407252,62bbe60bf3d75ef465d3e404,0,94,94,87,1,fourthree,,,,,,,,,,,,,,,,,,,,,,,,,,,,,,,,,,,,,,,,,,,,,,,,,,,,,,,,,,,,,,,,,,,,,,,,,,,,,,,,,,,,,,,,,,,,,,,,,,,,,,,,,,,,,,,,,,,,,,,,,,,,,,,,,,,,,,,,,,,,,,,,,,,,,
,,,,,,5ca0aae22fd4860001a4d560,62bbfab4b853f4201ecc5852,2022-06-29_09h09.56.704,Colour_Asymmetry_Pilot,2022.1.3,Win32,59.93407252,62bbe60bf3d75ef465d3e404,0,95,95,99,1,twofour,,,,,,,,,,,,,,,,,,,,,,,,,,,,,,,,,,,,,,,,,,,,,,,,,,,,,,,,,,,,,,,,,,,,,,,,,,,,,,,,,,,,,,,,,,,,,,,,,,,,,,,,,,,,,,,,,,,,,,,,,,,,,,,,,,,,,,,,,,,,,,,,,,,,,
,,,,,,5ca0aae22fd4860001a4d560,62bbfab4b853f4201ecc5852,2022-06-29_09h09.56.704,Colour_Asymmetry_Pilot,2022.1.3,Win32,59.93407252,62bbe60bf3d75ef465d3e404,0,96,96,105,1,onethree,,,,,,,,,,,,,,,,,,,,,,,,,,,,,,,,,,,,,,,,,,,,,,,,,,,,,,,,,,,,,,,,,,,,,,,,,,,,,,,,,,,,,,,,,,,,,,,,,,,,,,,,,,,,,,,,,,,,,,,,,,,,,,,,,,,,,,,,,,,,,,,,,,,,,
,,,,,,5ca0aae22fd4860001a4d560,62bbfab4b853f4201ecc5852,2022-06-29_09h09.56.704,Colour_Asymmetry_Pilot,2022.1.3,Win32,59.93407252,62bbe60bf3d75ef465d3e404,0,97,97,6,1,fourtwo,,,,,,,,,,,,,,,,,,,,,,,,,,,,,,,,,,,,,,,,,,,,,,,,,,,,,,,,,,,,,,,,,,,,,,,,,,,,,,,,,,,,,,,,,,,,,,,,,,,,,,,,,,,,,,,,,,,,,,,,,,,,,,,,,,,,,,,,,,,,,,,,,,,,,
,,,,,,5ca0aae22fd4860001a4d560,62bbfab4b853f4201ecc5852,2022-06-29_09h09.56.704,Colour_Asymmetry_Pilot,2022.1.3,Win32,59.93407252,62bbe60bf3d75ef465d3e404,0,98,98,144,1,onetwo,,,,,,,,,,,,,,,,,,,,,,,,,,,,,,,,,,,,,,,,,,,,,,,,,,,,,,,,,,,,,,,,,,,,,,,,,,,,,,,,,,,,,,,,,,,,,,,,,,,,,,,,,,,,,,,,,,,,,,,,,,,,,,,,,,,,,,,,,,,,,,,,,,,,,
,,,,,,5ca0aae22fd4860001a4d560,62bbfab4b853f4201ecc5852,2022-06-29_09h09.56.704,Colour_Asymmetry_Pilot,2022.1.3,Win32,59.93407252,62bbe60bf3d75ef465d3e404,0,99,99,45,1,threefour,,,,,,,,,,,,,,,,,,,,,,,,,,,,,,,,,,,,,,,,,,,,,,,,,,,,,,,,,,,,,,,,,,,,,,,,,,,,,,,,,,,,,,,,,,,,,,,,,,,,,,,,,,,,,,,,,,,,,,,,,,,,,,,,,,,,,,,,,,,,,,,,,,,,,
,,,,,,5ca0aae22fd4860001a4d560,62bbfab4b853f4201ecc5852,2022-06-29_09h09.56.704,Colour_Asymmetry_Pilot,2022.1.3,Win32,59.93407252,62bbe60bf3d75ef465d3e404,0,100,100,10,1,twoone,,,,,,,,,,,,,,,,,,,,,,,,,,,,,,,,,,,,,,,,,,,,,,,,,,,,,,,,,,,,,,,,,,,,,,,,,,,,,,,,,,,,,,,,,,,,,,,,,,,,,,,,,,,,,,,,,,,,,,,,,,,,,,,,,,,,,,,,,,,,,,,,,,,,,
,,,,,,5ca0aae22fd4860001a4d560,62bbfab4b853f4201ecc5852,2022-06-29_09h09.56.704,Colour_Asymmetry_Pilot,2022.1.3,Win32,59.93407252,62bbe60bf3d75ef465d3e404,0,101,101,77,1,threefour,,,,,,,,,,,,,,,,,,,,,,,,,,,,,,,,,,,,,,,,,,,,,,,,,,,,,,,,,,,,,,,,,,,,,,,,,,,,,,,,,,,,,,,,,,,,,,,,,,,,,,,,,,,,,,,,,,,,,,,,,,,,,,,,,,,,,,,,,,,,,,,,,,,,,
,,,,,,5ca0aae22fd4860001a4d560,62bbfab4b853f4201ecc5852,2022-06-29_09h09.56.704,Colour_Asymmetry_Pilot,2022.1.3,Win32,59.93407252,62bbe60bf3d75ef465d3e404,0,102,102,116,1,threeone,,,,,,,,,,,,,,,,,,,,,,,,,,,,,,,,,,,,,,,,,,,,,,,,,,,,,,,,,,,,,,,,,,,,,,,,,,,,,,,,,,,,,,,,,,,,,,,,,,,,,,,,,,,,,,,,,,,,,,,,,,,,,,,,,,,,,,,,,,,,,,,,,,,,,
,,,,,,5ca0aae22fd4860001a4d560,62bbfab4b853f4201ecc5852,2022-06-29_09h09.56.704,Colour_Asymmetry_Pilot,2022.1.3,Win32,59.93407252,62bbe60bf3d75ef465d3e404,0,103,103,109,1,threefour,,,,,,,,,,,,,,,,,,,,,,,,,,,,,,,,,,,,,,,,,,,,,,,,,,,,,,,,,,,,,,,,,,,,,,,,,,,,,,,,,,,,,,,,,,,,,,,,,,,,,,,,,,,,,,,,,,,,,,,,,,,,,,,,,,,,,,,,,,,,,,,,,,,,,
,,,,,,5ca0aae22fd4860001a4d560,62bbfab4b853f4201ecc5852,2022-06-29_09h09.56.704,Colour_Asymmetry_Pilot,2022.1.3,Win32,59.93407252,62bbe60bf3d75ef465d3e404,0,104,104,28,1,threeone,,,,,,,,,,,,,,,,,,,,,,,,,,,,,,,,,,,,,,,,,,,,,,,,,,,,,,,,,,,,,,,,,,,,,,,,,,,,,,,,,,,,,,,,,,,,,,,,,,,,,,,,,,,,,,,,,,,,,,,,,,,,,,,,,,,,,,,,,,,,,,,,,,,,,
,,,,,,5ca0aae22fd4860001a4d560,62bbfab4b853f4201ecc5852,2022-06-29_09h09.56.704,Colour_Asymmetry_Pilot,2022.1.3,Win32,59.93407252,62bbe60bf3d75ef465d3e404,0,105,105,73,1,onethree,,,,,,,,,,,,,,,,,,,,,,,,,,,,,,,,,,,,,,,,,,,,,,,,,,,,,,,,,,,,,,,,,,,,,,,,,,,,,,,,,,,,,,,,,,,,,,,,,,,,,,,,,,,,,,,,,,,,,,,,,,,,,,,,,,,,,,,,,,,,,,,,,,,,,
,,,,,,5ca0aae22fd4860001a4d560,62bbfab4b853f4201ecc5852,2022-06-29_09h09.56.704,Colour_Asymmetry_Pilot,2022.1.3,Win32,59.93407252,62bbe60bf3d75ef465d3e404,0,106,106,129,1,onethree,,,,,,,,,,,,,,,,,,,,,,,,,,,,,,,,,,,,,,,,,,,,,,,,,,,,,,,,,,,,,,,,,,,,,,,,,,,,,,,,,,,,,,,,,,,,,,,,,,,,,,,,,,,,,,,,,,,,,,,,,,,,,,,,,,,,,,,,,,,,,,,,,,,,,
,,,,,,5ca0aae22fd4860001a4d560,62bbfab4b853f4201ecc5852,2022-06-29_09h09.56.704,Colour_Asymmetry_Pilot,2022.1.3,Win32,59.93407252,62bbe60bf3d75ef465d3e404,0,107,107,120,1,onetwo,,,,,,,,,,,,,,,,,,,,,,,,,,,,,,,,,,,,,,,,,,,,,,,,,,,,,,,,,,,,,,,,,,,,,,,,,,,,,,,,,,,,,,,,,,,,,,,,,,,,,,,,,,,,,,,,,,,,,,,,,,,,,,,,,,,,,,,,,,,,,,,,,,,,,
,,,,,,5ca0aae22fd4860001a4d560,62bbfab4b853f4201ecc5852,2022-06-29_09h09.56.704,Colour_Asymmetry_Pilot,2022.1.3,Win32,59.93407252,62bbe60bf3d75ef465d3e404,0,108,108,47,1,fourthree,,,,,,,,,,,,,,,,,,,,,,,,,,,,,,,,,,,,,,,,,,,,,,,,,,,,,,,,,,,,,,,,,,,,,,,,,,,,,,,,,,,,,,,,,,,,,,,,,,,,,,,,,,,,,,,,,,,,,,,,,,,,,,,,,,,,,,,,,,,,,,,,,,,,,
,,,,,,5ca0aae22fd4860001a4d560,62bbfab4b853f4201ecc5852,2022-06-29_09h09.56.704,Colour_Asymmetry_Pilot,2022.1.3,Win32,59.93407252,62bbe60bf3d75ef465d3e404,0,109,109,98,1,twoone,,,,,,,,,,,,,,,,,,,,,,,,,,,,,,,,,,,,,,,,,,,,,,,,,,,,,,,,,,,,,,,,,,,,,,,,,,,,,,,,,,,,,,,,,,,,,,,,,,,,,,,,,,,,,,,,,,,,,,,,,,,,,,,,,,,,,,,,,,,,,,,,,,,,,
,,,,,,5ca0aae22fd4860001a4d560,62bbfab4b853f4201ecc5852,2022-06-29_09h09.56.704,Colour_Asymmetry_Pilot,2022.1.3,Win32,59.93407252,62bbe60bf3d75ef465d3e404,0,110,110,3,1,twofour,,,,,,,,,,,,,,,,,,,,,,,,,,,,,,,,,,,,,,,,,,,,,,,,,,,,,,,,,,,,,,,,,,,,,,,,,,,,,,,,,,,,,,,,,,,,,,,,,,,,,,,,,,,,,,,,,,,,,,,,,,,,,,,,,,,,,,,,,,,,,,,,,,,,,
,,,,,,5ca0aae22fd4860001a4d560,62bbfab4b853f4201ecc5852,2022-06-29_09h09.56.704,Colour_Asymmetry_Pilot,2022.1.3,Win32,59.93407252,62bbe60bf3d75ef465d3e404,0,111,111,80,1,onetwo,,,,,,,,,,,,,,,,,,,,,,,,,,,,,,,,,,,,,,,,,,,,,,,,,,,,,,,,,,,,,,,,,,,,,,,,,,,,,,,,,,,,,,,,,,,,,,,,,,,,,,,,,,,,,,,,,,,,,,,,,,,,,,,,,,,,,,,,,,,,,,,,,,,,,
,,,,,,5ca0aae22fd4860001a4d560,62bbfab4b853f4201ecc5852,2022-06-29_09h09.56.704,Colour_Asymmetry_Pilot,2022.1.3,Win32,59.93407252,62bbe60bf3d75ef465d3e404,0,112,112,160,1,onetwo,,,,,,,,,,,,,,,,,,,,,,,,,,,,,,,,,,,,,,,,,,,,,,,,,,,,,,,,,,,,,,,,,,,,,,,,,,,,,,,,,,,,,,,,,,,,,,,,,,,,,,,,,,,,,,,,,,,,,,,,,,,,,,,,,,,,,,,,,,,,,,,,,,,,,
,,,,,,5ca0aae22fd4860001a4d560,62bbfab4b853f4201ecc5852,2022-06-29_09h09.56.704,Colour_Asymmetry_Pilot,2022.1.3,Win32,59.93407252,62bbe60bf3d75ef465d3e404,0,113,113,54,1,fourtwo,,,,,,,,,,,,,,,,,,,,,,,,,,,,,,,,,,,,,,,,,,,,,,,,,,,,,,,,,,,,,,,,,,,,,,,,,,,,,,,,,,,,,,,,,,,,,,,,,,,,,,,,,,,,,,,,,,,,,,,,,,,,,,,,,,,,,,,,,,,,,,,,,,,,,
,,,,,,5ca0aae22fd4860001a4d560,62bbfab4b853f4201ecc5852,2022-06-29_09h09.56.704,Colour_Asymmetry_Pilot,2022.1.3,Win32,59.93407252,62bbe60bf3d75ef465d3e404,0,114,114,61,1,threefour,,,,,,,,,,,,,,,,,,,,,,,,,,,,,,,,,,,,,,,,,,,,,,,,,,,,,,,,,,,,,,,,,,,,,,,,,,,,,,,,,,,,,,,,,,,,,,,,,,,,,,,,,,,,,,,,,,,,,,,,,,,,,,,,,,,,,,,,,,,,,,,,,,,,,
,,,,,,5ca0aae22fd4860001a4d560,62bbfab4b853f4201ecc5852,2022-06-29_09h09.56.704,Colour_Asymmetry_Pilot,2022.1.3,Win32,59.93407252,62bbe60bf3d75ef465d3e404,0,115,115,62,1,fourtwo,,,,,,,,,,,,,,,,,,,,,,,,,,,,,,,,,,,,,,,,,,,,,,,,,,,,,,,,,,,,,,,,,,,,,,,,,,,,,,,,,,,,,,,,,,,,,,,,,,,,,,,,,,,,,,,,,,,,,,,,,,,,,,,,,,,,,,,,,,,,,,,,,,,,,
,,,,,,5ca0aae22fd4860001a4d560,62bbfab4b853f4201ecc5852,2022-06-29_09h09.56.704,Colour_Asymmetry_Pilot,2022.1.3,Win32,59.93407252,62bbe60bf3d75ef465d3e404,0,116,116,46,1,fourtwo,,,,,,,,,,,,,,,,,,,,,,,,,,,,,,,,,,,,,,,,,,,,,,,,,,,,,,,,,,,,,,,,,,,,,,,,,,,,,,,,,,,,,,,,,,,,,,,,,,,,,,,,,,,,,,,,,,,,,,,,,,,,,,,,,,,,,,,,,,,,,,,,,,,,,
,,,,,,5ca0aae22fd4860001a4d560,62bbfab4b853f4201ecc5852,2022-06-29_09h09.56.704,Colour_Asymmetry_Pilot,2022.1.3,Win32,59.93407252,62bbe60bf3d75ef465d3e404,0,117,117,104,1,onetwo,,,,,,,,,,,,,,,,,,,,,,,,,,,,,,,,,,,,,,,,,,,,,,,,,,,,,,,,,,,,,,,,,,,,,,,,,,,,,,,,,,,,,,,,,,,,,,,,,,,,,,,,,,,,,,,,,,,,,,,,,,,,,,,,,,,,,,,,,,,,,,,,,,,,,
,,,,,,5ca0aae22fd4860001a4d560,62bbfab4b853f4201ecc5852,2022-06-29_09h09.56.704,Colour_Asymmetry_Pilot,2022.1.3,Win32,59.93407252,62bbe60bf3d75ef465d3e404,0,118,118,68,1,threeone,,,,,,,,,,,,,,,,,,,,,,,,,,,,,,,,,,,,,,,,,,,,,,,,,,,,,,,,,,,,,,,,,,,,,,,,,,,,,,,,,,,,,,,,,,,,,,,,,,,,,,,,,,,,,,,,,,,,,,,,,,,,,,,,,,,,,,,,,,,,,,,,,,,,,
,,,,,,5ca0aae22fd4860001a4d560,62bbfab4b853f4201ecc5852,2022-06-29_09h09.56.704,Colour_Asymmetry_Pilot,2022.1.3,Win32,59.93407252,62bbe60bf3d75ef465d3e404,0,119,119,41,1,onethree,,,,,,,,,,,,,,,,,,,,,,,,,,,,,,,,,,,,,,,,,,,,,,,,,,,,,,,,,,,,,,,,,,,,,,,,,,,,,,,,,,,,,,,,,,,,,,,,,,,,,,,,,,,,,,,,,,,,,,,,,,,,,,,,,,,,,,,,,,,,,,,,,,,,,
,,,,,,5ca0aae22fd4860001a4d560,62bbfab4b853f4201ecc5852,2022-06-29_09h09.56.704,Colour_Asymmetry_Pilot,2022.1.3,Win32,59.93407252,62bbe60bf3d75ef465d3e404,0,120,120,155,1,twofour,,,,,,,,,,,,,,,,,,,,,,,,,,,,,,,,,,,,,,,,,,,,,,,,,,,,,,,,,,,,,,,,,,,,,,,,,,,,,,,,,,,,,,,,,,,,,,,,,,,,,,,,,,,,,,,,,,,,,,,,,,,,,,,,,,,,,,,,,,,,,,,,,,,,,
,,,,,,5ca0aae22fd4860001a4d560,62bbfab4b853f4201ecc5852,2022-06-29_09h09.56.704,Colour_Asymmetry_Pilot,2022.1.3,Win32,59.93407252,62bbe60bf3d75ef465d3e404,0,121,121,11,1,twofour,,,,,,,,,,,,,,,,,,,,,,,,,,,,,,,,,,,,,,,,,,,,,,,,,,,,,,,,,,,,,,,,,,,,,,,,,,,,,,,,,,,,,,,,,,,,,,,,,,,,,,,,,,,,,,,,,,,,,,,,,,,,,,,,,,,,,,,,,,,,,,,,,,,,,
,,,,,,5ca0aae22fd4860001a4d560,62bbfab4b853f4201ecc5852,2022-06-29_09h09.56.704,Colour_Asymmetry_Pilot,2022.1.3,Win32,59.93407252,62bbe60bf3d75ef465d3e404,0,122,122,37,1,threefour,,,,,,,,,,,,,,,,,,,,,,,,,,,,,,,,,,,,,,,,,,,,,,,,,,,,,,,,,,,,,,,,,,,,,,,,,,,,,,,,,,,,,,,,,,,,,,,,,,,,,,,,,,,,,,,,,,,,,,,,,,,,,,,,,,,,,,,,,,,,,,,,,,,,,
,,,,,,5ca0aae22fd4860001a4d560,62bbfab4b853f4201ecc5852,2022-06-29_09h09.56.704,Colour_Asymmetry_Pilot,2022.1.3,Win32,59.93407252,62bbe60bf3d75ef465d3e404,0,123,123,115,1,twofour,,,,,,,,,,,,,,,,,,,,,,,,,,,,,,,,,,,,,,,,,,,,,,,,,,,,,,,,,,,,,,,,,,,,,,,,,,,,,,,,,,,,,,,,,,,,,,,,,,,,,,,,,,,,,,,,,,,,,,,,,,,,,,,,,,,,,,,,,,,,,,,,,,,,,
,,,,,,5ca0aae22fd4860001a4d560,62bbfab4b853f4201ecc5852,2022-06-29_09h09.56.704,Colour_Asymmetry_Pilot,2022.1.3,Win32,59.93407252,62bbe60bf3d75ef465d3e404,0,124,124,89,1,onethree,,,,,,,,,,,,,,,,,,,,,,,,,,,,,,,,,,,,,,,,,,,,,,,,,,,,,,,,,,,,,,,,,,,,,,,,,,,,,,,,,,,,,,,,,,,,,,,,,,,,,,,,,,,,,,,,,,,,,,,,,,,,,,,,,,,,,,,,,,,,,,,,,,,,,
,,,,,,5ca0aae22fd4860001a4d560,62bbfab4b853f4201ecc5852,2022-06-29_09h09.56.704,Colour_Asymmetry_Pilot,2022.1.3,Win32,59.93407252,62bbe60bf3d75ef465d3e404,0,125,125,96,1,onetwo,,,,,,,,,,,,,,,,,,,,,,,,,,,,,,,,,,,,,,,,,,,,,,,,,,,,,,,,,,,,,,,,,,,,,,,,,,,,,,,,,,,,,,,,,,,,,,,,,,,,,,,,,,,,,,,,,,,,,,,,,,,,,,,,,,,,,,,,,,,,,,,,,,,,,
,,,,,,5ca0aae22fd4860001a4d560,62bbfab4b853f4201ecc5852,2022-06-29_09h09.56.704,Colour_Asymmetry_Pilot,2022.1.3,Win32,59.93407252,62bbe60bf3d75ef465d3e404,0,126,126,36,1,threeone,,,,,,,,,,,,,,,,,,,,,,,,,,,,,,,,,,,,,,,,,,,,,,,,,,,,,,,,,,,,,,,,,,,,,,,,,,,,,,,,,,,,,,,,,,,,,,,,,,,,,,,,,,,,,,,,,,,,,,,,,,,,,,,,,,,,,,,,,,,,,,,,,,,,,
,,,,,,5ca0aae22fd4860001a4d560,62bbfab4b853f4201ecc5852,2022-06-29_09h09.56.704,Colour_Asymmetry_Pilot,2022.1.3,Win32,59.93407252,62bbe60bf3d75ef465d3e404,0,127,127,97,1,onethree,,,,,,,,,,,,,,,,,,,,,,,,,,,,,,,,,,,,,,,,,,,,,,,,,,,,,,,,,,,,,,,,,,,,,,,,,,,,,,,,,,,,,,,,,,,,,,,,,,,,,,,,,,,,,,,,,,,,,,,,,,,,,,,,,,,,,,,,,,,,,,,,,,,,,
,,,,,,5ca0aae22fd4860001a4d560,62bbfab4b853f4201ecc5852,2022-06-29_09h09.56.704,Colour_Asymmetry_Pilot,2022.1.3,Win32,59.93407252,62bbe60bf3d75ef465d3e404,0,128,128,112,1,onetwo,,,,,,,,,,,,,,,,,,,,,,,,,,,,,,,,,,,,,,,,,,,,,,,,,,,,,,,,,,,,,,,,,,,,,,,,,,,,,,,,,,,,,,,,,,,,,,,,,,,,,,,,,,,,,,,,,,,,,,,,,,,,,,,,,,,,,,,,,,,,,,,,,,,,,
,,,,,,5ca0aae22fd4860001a4d560,62bbfab4b853f4201ecc5852,2022-06-29_09h09.56.704,Colour_Asymmetry_Pilot,2022.1.3,Win32,59.93407252,62bbe60bf3d75ef465d3e404,0,129,129,93,1,threefour,,,,,,,,,,,,,,,,,,,,,,,,,,,,,,,,,,,,,,,,,,,,,,,,,,,,,,,,,,,,,,,,,,,,,,,,,,,,,,,,,,,,,,,,,,,,,,,,,,,,,,,,,,,,,,,,,,,,,,,,,,,,,,,,,,,,,,,,,,,,,,,,,,,,,
,,,,,,5ca0aae22fd4860001a4d560,62bbfab4b853f4201ecc5852,2022-06-29_09h09.56.704,Colour_Asymmetry_Pilot,2022.1.3,Win32,59.93407252,62bbe60bf3d75ef465d3e404,0,130,130,0,1,onetwo,,,,,,,,,,,,,,,,,,,,,,,,,,,,,,,,,,,,,,,,,,,,,,,,,,,,,,,,,,,,,,,,,,,,,,,,,,,,,,,,,,,,,,,,,,,,,,,,,,,,,,,,,,,,,,,,,,,,,,,,,,,,,,,,,,,,,,,,,,,,,,,,,,,,,
,,,,,,5ca0aae22fd4860001a4d560,62bbfab4b853f4201ecc5852,2022-06-29_09h09.56.704,Colour_Asymmetry_Pilot,2022.1.3,Win32,59.93407252,62bbe60bf3d75ef465d3e404,0,131,131,1,1,onethree,,,,,,,,,,,,,,,,,,,,,,,,,,,,,,,,,,,,,,,,,,,,,,,,,,,,,,,,,,,,,,,,,,,,,,,,,,,,,,,,,,,,,,,,,,,,,,,,,,,,,,,,,,,,,,,,,,,,,,,,,,,,,,,,,,,,,,,,,,,,,,,,,,,,,
,,,,,,5ca0aae22fd4860001a4d560,62bbfab4b853f4201ecc5852,2022-06-29_09h09.56.704,Colour_Asymmetry_Pilot,2022.1.3,Win32,59.93407252,62bbe60bf3d75ef465d3e404,0,132,132,4,1,threeone,,,,,,,,,,,,,,,,,,,,,,,,,,,,,,,,,,,,,,,,,,,,,,,,,,,,,,,,,,,,,,,,,,,,,,,,,,,,,,,,,,,,,,,,,,,,,,,,,,,,,,,,,,,,,,,,,,,,,,,,,,,,,,,,,,,,,,,,,,,,,,,,,,,,,
,,,,,,5ca0aae22fd4860001a4d560,62bbfab4b853f4201ecc5852,2022-06-29_09h09.56.704,Colour_Asymmetry_Pilot,2022.1.3,Win32,59.93407252,62bbe60bf3d75ef465d3e404,0,133,133,122,1,twoone,,,,,,,,,,,,,,,,,,,,,,,,,,,,,,,,,,,,,,,,,,,,,,,,,,,,,,,,,,,,,,,,,,,,,,,,,,,,,,,,,,,,,,,,,,,,,,,,,,,,,,,,,,,,,,,,,,,,,,,,,,,,,,,,,,,,,,,,,,,,,,,,,,,,,
,,,,,,5ca0aae22fd4860001a4d560,62bbfab4b853f4201ecc5852,2022-06-29_09h09.56.704,Colour_Asymmetry_Pilot,2022.1.3,Win32,59.93407252,62bbe60bf3d75ef465d3e404,0,134,134,101,1,threefour,,,,,,,,,,,,,,,,,,,,,,,,,,,,,,,,,,,,,,,,,,,,,,,,,,,,,,,,,,,,,,,,,,,,,,,,,,,,,,,,,,,,,,,,,,,,,,,,,,,,,,,,,,,,,,,,,,,,,,,,,,,,,,,,,,,,,,,,,,,,,,,,,,,,,
,,,,,,5ca0aae22fd4860001a4d560,62bbfab4b853f4201ecc5852,2022-06-29_09h09.56.704,Colour_Asymmetry_Pilot,2022.1.3,Win32,59.93407252,62bbe60bf3d75ef465d3e404,0,135,135,22,1,fourtwo,,,,,,,,,,,,,,,,,,,,,,,,,,,,,,,,,,,,,,,,,,,,,,,,,,,,,,,,,,,,,,,,,,,,,,,,,,,,,,,,,,,,,,,,,,,,,,,,,,,,,,,,,,,,,,,,,,,,,,,,,,,,,,,,,,,,,,,,,,,,,,,,,,,,,
,,,,,,5ca0aae22fd4860001a4d560,62bbfab4b853f4201ecc5852,2022-06-29_09h09.56.704,Colour_Asymmetry_Pilot,2022.1.3,Win32,59.93407252,62bbe60bf3d75ef465d3e404,0,136,136,15,1,fourthree,,,,,,,,,,,,,,,,,,,,,,,,,,,,,,,,,,,,,,,,,,,,,,,,,,,,,,,,,,,,,,,,,,,,,,,,,,,,,,,,,,,,,,,,,,,,,,,,,,,,,,,,,,,,,,,,,,,,,,,,,,,,,,,,,,,,,,,,,,,,,,,,,,,,,
,,,,,,5ca0aae22fd4860001a4d560,62bbfab4b853f4201ecc5852,2022-06-29_09h09.56.704,Colour_Asymmetry_Pilot,2022.1.3,Win32,59.93407252,62bbe60bf3d75ef465d3e404,0,137,137,42,1,twoone,,,,,,,,,,,,,,,,,,,,,,,,,,,,,,,,,,,,,,,,,,,,,,,,,,,,,,,,,,,,,,,,,,,,,,,,,,,,,,,,,,,,,,,,,,,,,,,,,,,,,,,,,,,,,,,,,,,,,,,,,,,,,,,,,,,,,,,,,,,,,,,,,,,,,
,,,,,,5ca0aae22fd4860001a4d560,62bbfab4b853f4201ecc5852,2022-06-29_09h09.56.704,Colour_Asymmetry_Pilot,2022.1.3,Win32,59.93407252,62bbe60bf3d75ef465d3e404,0,138,138,142,1,fourtwo,,,,,,,,,,,,,,,,,,,,,,,,,,,,,,,,,,,,,,,,,,,,,,,,,,,,,,,,,,,,,,,,,,,,,,,,,,,,,,,,,,,,,,,,,,,,,,,,,,,,,,,,,,,,,,,,,,,,,,,,,,,,,,,,,,,,,,,,,,,,,,,,,,,,,
,,,,,,5ca0aae22fd4860001a4d560,62bbfab4b853f4201ecc5852,2022-06-29_09h09.56.704,Colour_Asymmetry_Pilot,2022.1.3,Win32,59.93407252,62bbe60bf3d75ef465d3e404,0,139,139,24,1,onetwo,,,,,,,,,,,,,,,,,,,,,,,,,,,,,,,,,,,,,,,,,,,,,,,,,,,,,,,,,,,,,,,,,,,,,,,,,,,,,,,,,,,,,,,,,,,,,,,,,,,,,,,,,,,,,,,,,,,,,,,,,,,,,,,,,,,,,,,,,,,,,,,,,,,,,
,,,,,,5ca0aae22fd4860001a4d560,62bbfab4b853f4201ecc5852,2022-06-29_09h09.56.704,Colour_Asymmetry_Pilot,2022.1.3,Win32,59.93407252,62bbe60bf3d75ef465d3e404,0,140,140,158,1,fourtwo,,,,,,,,,,,,,,,,,,,,,,,,,,,,,,,,,,,,,,,,,,,,,,,,,,,,,,,,,,,,,,,,,,,,,,,,,,,,,,,,,,,,,,,,,,,,,,,,,,,,,,,,,,,,,,,,,,,,,,,,,,,,,,,,,,,,,,,,,,,,,,,,,,,,,
,,,,,,5ca0aae22fd4860001a4d560,62bbfab4b853f4201ecc5852,2022-06-29_09h09.56.704,Colour_Asymmetry_Pilot,2022.1.3,Win32,59.93407252,62bbe60bf3d75ef465d3e404,0,141,141,18,1,twoone,,,,,,,,,,,,,,,,,,,,,,,,,,,,,,,,,,,,,,,,,,,,,,,,,,,,,,,,,,,,,,,,,,,,,,,,,,,,,,,,,,,,,,,,,,,,,,,,,,,,,,,,,,,,,,,,,,,,,,,,,,,,,,,,,,,,,,,,,,,,,,,,,,,,,
,,,,,,5ca0aae22fd4860001a4d560,62bbfab4b853f4201ecc5852,2022-06-29_09h09.56.704,Colour_Asymmetry_Pilot,2022.1.3,Win32,59.93407252,62bbe60bf3d75ef465d3e404,0,142,142,132,1,threeone,,,,,,,,,,,,,,,,,,,,,,,,,,,,,,,,,,,,,,,,,,,,,,,,,,,,,,,,,,,,,,,,,,,,,,,,,,,,,,,,,,,,,,,,,,,,,,,,,,,,,,,,,,,,,,,,,,,,,,,,,,,,,,,,,,,,,,,,,,,,,,,,,,,,,
,,,,,,5ca0aae22fd4860001a4d560,62bbfab4b853f4201ecc5852,2022-06-29_09h09.56.704,Colour_Asymmetry_Pilot,2022.1.3,Win32,59.93407252,62bbe60bf3d75ef465d3e404,0,143,143,82,1,twoone,,,,,,,,,,,,,,,,,,,,,,,,,,,,,,,,,,,,,,,,,,,,,,,,,,,,,,,,,,,,,,,,,,,,,,,,,,,,,,,,,,,,,,,,,,,,,,,,,,,,,,,,,,,,,,,,,,,,,,,,,,,,,,,,,,,,,,,,,,,,,,,,,,,,,
,,,,,,5ca0aae22fd4860001a4d560,62bbfab4b853f4201ecc5852,2022-06-29_09h09.56.704,Colour_Asymmetry_Pilot,2022.1.3,Win32,59.93407252,62bbe60bf3d75ef465d3e404,0,144,144,13,1,threefour,,,,,,,,,,,,,,,,,,,,,,,,,,,,,,,,,,,,,,,,,,,,,,,,,,,,,,,,,,,,,,,,,,,,,,,,,,,,,,,,,,,,,,,,,,,,,,,,,,,,,,,,,,,,,,,,,,,,,,,,,,,,,,,,,,,,,,,,,,,,,,,,,,,,,
,,,,,,5ca0aae22fd4860001a4d560,62bbfab4b853f4201ecc5852,2022-06-29_09h09.56.704,Colour_Asymmetry_Pilot,2022.1.3,Win32,59.93407252,62bbe60bf3d75ef465d3e404,0,145,145,75,1,twofour,,,,,,,,,,,,,,,,,,,,,,,,,,,,,,,,,,,,,,,,,,,,,,,,,,,,,,,,,,,,,,,,,,,,,,,,,,,,,,,,,,,,,,,,,,,,,,,,,,,,,,,,,,,,,,,,,,,,,,,,,,,,,,,,,,,,,,,,,,,,,,,,,,,,,
,,,,,,5ca0aae22fd4860001a4d560,62bbfab4b853f4201ecc5852,2022-06-29_09h09.56.704,Colour_Asymmetry_Pilot,2022.1.3,Win32,59.93407252,62bbe60bf3d75ef465d3e404,0,146,146,30,1,fourtwo,,,,,,,,,,,,,,,,,,,,,,,,,,,,,,,,,,,,,,,,,,,,,,,,,,,,,,,,,,,,,,,,,,,,,,,,,,,,,,,,,,,,,,,,,,,,,,,,,,,,,,,,,,,,,,,,,,,,,,,,,,,,,,,,,,,,,,,,,,,,,,,,,,,,,
,,,,,,5ca0aae22fd4860001a4d560,62bbfab4b853f4201ecc5852,2022-06-29_09h09.56.704,Colour_Asymmetry_Pilot,2022.1.3,Win32,59.93407252,62bbe60bf3d75ef465d3e404,0,147,147,64,1,onetwo,,,,,,,,,,,,,,,,,,,,,,,,,,,,,,,,,,,,,,,,,,,,,,,,,,,,,,,,,,,,,,,,,,,,,,,,,,,,,,,,,,,,,,,,,,,,,,,,,,,,,,,,,,,,,,,,,,,,,,,,,,,,,,,,,,,,,,,,,,,,,,,,,,,,,
,,,,,,5ca0aae22fd4860001a4d560,62bbfab4b853f4201ecc5852,2022-06-29_09h09.56.704,Colour_Asymmetry_Pilot,2022.1.3,Win32,59.93407252,62bbe60bf3d75ef465d3e404,0,148,148,81,1,onethree,,,,,,,,,,,,,,,,,,,,,,,,,,,,,,,,,,,,,,,,,,,,,,,,,,,,,,,,,,,,,,,,,,,,,,,,,,,,,,,,,,,,,,,,,,,,,,,,,,,,,,,,,,,,,,,,,,,,,,,,,,,,,,,,,,,,,,,,,,,,,,,,,,,,,
,,,,,,5ca0aae22fd4860001a4d560,62bbfab4b853f4201ecc5852,2022-06-29_09h09.56.704,Colour_Asymmetry_Pilot,2022.1.3,Win32,59.93407252,62bbe60bf3d75ef465d3e404,0,149,149,135,1,fourthree,,,,,,,,,,,,,,,,,,,,,,,,,,,,,,,,,,,,,,,,,,,,,,,,,,,,,,,,,,,,,,,,,,,,,,,,,,,,,,,,,,,,,,,,,,,,,,,,,,,,,,,,,,,,,,,,,,,,,,,,,,,,,,,,,,,,,,,,,,,,,,,,,,,,,
,,,,,,5ca0aae22fd4860001a4d560,62bbfab4b853f4201ecc5852,2022-06-29_09h09.56.704,Colour_Asymmetry_Pilot,2022.1.3,Win32,59.93407252,62bbe60bf3d75ef465d3e404,0,150,150,111,1,fourthree,,,,,,,,,,,,,,,,,,,,,,,,,,,,,,,,,,,,,,,,,,,,,,,,,,,,,,,,,,,,,,,,,,,,,,,,,,,,,,,,,,,,,,,,,,,,,,,,,,,,,,,,,,,,,,,,,,,,,,,,,,,,,,,,,,,,,,,,,,,,,,,,,,,,,
,,,,,,5ca0aae22fd4860001a4d560,62bbfab4b853f4201ecc5852,2022-06-29_09h09.56.704,Colour_Asymmetry_Pilot,2022.1.3,Win32,59.93407252,62bbe60bf3d75ef465d3e404,0,151,151,70,1,fourtwo,,,,,,,,,,,,,,,,,,,,,,,,,,,,,,,,,,,,,,,,,,,,,,,,,,,,,,,,,,,,,,,,,,,,,,,,,,,,,,,,,,,,,,,,,,,,,,,,,,,,,,,,,,,,,,,,,,,,,,,,,,,,,,,,,,,,,,,,,,,,,,,,,,,,,
,,,,,,5ca0aae22fd4860001a4d560,62bbfab4b853f4201ecc5852,2022-06-29_09h09.56.704,Colour_Asymmetry_Pilot,2022.1.3,Win32,59.93407252,62bbe60bf3d75ef465d3e404,0,152,152,150,1,fourtwo,,,,,,,,,,,,,,,,,,,,,,,,,,,,,,,,,,,,,,,,,,,,,,,,,,,,,,,,,,,,,,,,,,,,,,,,,,,,,,,,,,,,,,,,,,,,,,,,,,,,,,,,,,,,,,,,,,,,,,,,,,,,,,,,,,,,,,,,,,,,,,,,,,,,,
,,,,,,5ca0aae22fd4860001a4d560,62bbfab4b853f4201ecc5852,2022-06-29_09h09.56.704,Colour_Asymmetry_Pilot,2022.1.3,Win32,59.93407252,62bbe60bf3d75ef465d3e404,0,153,153,143,1,fourthree,,,,,,,,,,,,,,,,,,,,,,,,,,,,,,,,,,,,,,,,,,,,,,,,,,,,,,,,,,,,,,,,,,,,,,,,,,,,,,,,,,,,,,,,,,,,,,,,,,,,,,,,,,,,,,,,,,,,,,,,,,,,,,,,,,,,,,,,,,,,,,,,,,,,,
,,,,,,5ca0aae22fd4860001a4d560,62bbfab4b853f4201ecc5852,2022-06-29_09h09.56.704,Colour_Asymmetry_Pilot,2022.1.3,Win32,59.93407252,62bbe60bf3d75ef465d3e404,0,154,154,85,1,threefour,,,,,,,,,,,,,,,,,,,,,,,,,,,,,,,,,,,,,,,,,,,,,,,,,,,,,,,,,,,,,,,,,,,,,,,,,,,,,,,,,,,,,,,,,,,,,,,,,,,,,,,,,,,,,,,,,,,,,,,,,,,,,,,,,,,,,,,,,,,,,,,,,,,,,
,,,,,,5ca0aae22fd4860001a4d560,62bbfab4b853f4201ecc5852,2022-06-29_09h09.56.704,Colour_Asymmetry_Pilot,2022.1.3,Win32,59.93407252,62bbe60bf3d75ef465d3e404,0,155,155,79,1,fourthree,,,,,,,,,,,,,,,,,,,,,,,,,,,,,,,,,,,,,,,,,,,,,,,,,,,,,,,,,,,,,,,,,,,,,,,,,,,,,,,,,,,,,,,,,,,,,,,,,,,,,,,,,,,,,,,,,,,,,,,,,,,,,,,,,,,,,,,,,,,,,,,,,,,,,
,,,,,,5ca0aae22fd4860001a4d560,62bbfab4b853f4201ecc5852,2022-06-29_09h09.56.704,Colour_Asymmetry_Pilot,2022.1.3,Win32,59.93407252,62bbe60bf3d75ef465d3e404,0,156,156,157,1,threefour,,,,,,,,,,,,,,,,,,,,,,,,,,,,,,,,,,,,,,,,,,,,,,,,,,,,,,,,,,,,,,,,,,,,,,,,,,,,,,,,,,,,,,,,,,,,,,,,,,,,,,,,,,,,,,,,,,,,,,,,,,,,,,,,,,,,,,,,,,,,,,,,,,,,,
,,,,,,5ca0aae22fd4860001a4d560,62bbfab4b853f4201ecc5852,2022-06-29_09h09.56.704,Colour_Asymmetry_Pilot,2022.1.3,Win32,59.93407252,62bbe60bf3d75ef465d3e404,0,157,157,72,1,onetwo,,,,,,,,,,,,,,,,,,,,,,,,,,,,,,,,,,,,,,,,,,,,,,,,,,,,,,,,,,,,,,,,,,,,,,,,,,,,,,,,,,,,,,,,,,,,,,,,,,,,,,,,,,,,,,,,,,,,,,,,,,,,,,,,,,,,,,,,,,,,,,,,,,,,,
,,,,,,5ca0aae22fd4860001a4d560,62bbfab4b853f4201ecc5852,2022-06-29_09h09.56.704,Colour_Asymmetry_Pilot,2022.1.3,Win32,59.93407252,62bbe60bf3d75ef465d3e404,0,158,158,23,1,fourthree,,,,,,,,,,,,,,,,,,,,,,,,,,,,,,,,,,,,,,,,,,,,,,,,,,,,,,,,,,,,,,,,,,,,,,,,,,,,,,,,,,,,,,,,,,,,,,,,,,,,,,,,,,,,,,,,,,,,,,,,,,,,,,,,,,,,,,,,,,,,,,,,,,,,,
,,,,,,5ca0aae22fd4860001a4d560,62bbfab4b853f4201ecc5852,2022-06-29_09h09.56.704,Colour_Asymmetry_Pilot,2022.1.3,Win32,59.93407252,62bbe60bf3d75ef465d3e404,0,159,159,145,1,onethree,,,,,,,,,,,,,,,,,,,,,,,,,,,,,,,,,,,,,,,,,,,,,,,,,,,,,,,,,,,,,,,,,,,,,,,,,,,,,,,,,,,,,,,,,,,,,,,,,,,,,,,,,,,,,,,,,,,,,,,,,,,,,,,,,,,,,,,,,,,,,,,,,,,,,
,,,,,,5ca0aae22fd4860001a4d560,62bbfab4b853f4201ecc5852,2022-06-29_09h09.56.704,Colour_Asymmetry_Pilot,2022.1.3,Win32,59.93407252,62bbe60bf3d75ef465d3e404,0,160,160,118,1,fourtwo,,,,,,,,,,,,,,,,,,,,,,,,,,,,,,,,,,,,,,,,,,,,,,,,,,,,,,,,,,,,,,,,,,,,,,,,,,,,,,,,,,,,,,,,,,,,,,,,,,,,,,,,,,,,,,,,,,,,,,,,,,,,,,,,,,,,,,,,,,,,,,,,,,,,,
,,,,,,5ca0aae22fd4860001a4d560,62bbfab4b853f4201ecc5852,2022-06-29_09h09.56.704,Colour_Asymmetry_Pilot,2022.1.3,Win32,59.93407252,62bbe60bf3d75ef465d3e404,0,161,161,84,1,threeone,,,,,,,,,,,,,,,,,,,,,,,,,,,,,,,,,,,,,,,,,,,,,,,,,,,,,,,,,,,,,,,,,,,,,,,,,,,,,,,,,,,,,,,,,,,,,,,,,,,,,,,,,,,,,,,,,,,,,,,,,,,,,,,,,,,,,,,,,,,,,,,,,,,,,
,,,,,,5ca0aae22fd4860001a4d560,62bbfab4b853f4201ecc5852,2022-06-29_09h09.56.704,Colour_Asymmetry_Pilot,2022.1.3,Win32,59.93407252,62bbe60bf3d75ef465d3e404,,,,,,,space,3.4008,space,30.8734,space,26.5565,space,6.2631,space,4.1792,space,5.5593,"[-0.9688,-0.4902000000000001,-0.12159999999999993]",onethree,"[0.37240000000000006,-0.050999999999999934,-0.5216]",4,11.4177,39.20001221,104,1,0,0,response1disk_5,-8,5.600006104,1,0,0,rectangle_8,-8,5.600006104,1,0,0,3,-8,5.600006104,1,0,0,0,0,0,0,1,,,,,,,,,,,,,,,,,,,,,,,,,,,,,,,,,,,,,,,,,,,,,,,,,,,,,,,,,,,,,,,,,,,,,,,,,,,,,,,,,,,,,,,,,,,,,,,,,,,,,,,,
,,,,,,5ca0aae22fd4860001a4d560,62bbfab4b853f4201ecc5852,2022-06-29_09h09.56.704,Colour_Asymmetry_Pilot,2022.1.3,Win32,59.93407252,62bbe60bf3d75ef465d3e404,,,,,,,,,,,,,,,,,,,"[0.9763999999999999,0.30979999999999985,-0.6786]",threeone,"[0.9763999999999999,0.8588,-0.05900000000000005]",-1,5.865,-46.39996338,-80,1,0,0,response5disk_5,11.20001221,-4.800018311,1,0,0,rectangle_8,11.20001221,-4.800018311,1,0,0,3,11.20001221,-4.800018311,1,0,0,1,0,1,0,1,,,,,,,,,,,,,,,,,,,,,,,,,,,,,,,,,,,,,,,,,,,,,,,,,,,,,,,,,,,,,,,,,,,,,,,,,,,,,,,,,,,,,,,,,,,,,,,,,,,,,,,,
,,,,,,5ca0aae22fd4860001a4d560,62bbfab4b853f4201ecc5852,2022-06-29_09h09.56.704,Colour_Asymmetry_Pilot,2022.1.3,Win32,59.93407252,62bbe60bf3d75ef465d3e404,,,,,,,,,,,,,,,,,,,"[-0.01980000000000004,-0.5138,-0.38039999999999996]",onethree,"[-0.5922000000000001,-0.7492000000000001,-0.5296000000000001]",-1,2.3999,-40.79998779,-104.7999878,1,0,0,response5disk_5,-35.20001221,-0.800018311,1,0,0,rectangle_8,-35.20001221,-0.800018311,1,0,0,3,-35.20001221,-0.800018311,1,0,0,2,0,2,0,1,,,,,,,,,,,,,,,,,,,,,,,,,,,,,,,,,,,,,,,,,,,,,,,,,,,,,,,,,,,,,,,,,,,,,,,,,,,,,,,,,,,,,,,,,,,,,,,,,,,,,,,,
,,,,,,5ca0aae22fd4860001a4d560,62bbfab4b853f4201ecc5852,2022-06-29_09h09.56.704,Colour_Asymmetry_Pilot,2022.1.3,Win32,59.93407252,62bbe60bf3d75ef465d3e404,,,,,,,,,,,,,,,,,,,"[-0.5922000000000001,-0.7492000000000001,-0.5296000000000001]",fourthree,"[0.9372,0.9450000000000001,0.8980000000000001]",-4,1.3334,-35.20001221,80.79998779,1,0,0,response7disk_5,-10.39996338,-6.399993896,1,0,0,rectangle_8,-10.39996338,-6.399993896,1,0,0,3,-10.39996338,-6.399993896,1,0,0,3,0,3,0,1,,,,,,,,,,,,,,,,,,,,,,,,,,,,,,,,,,,,,,,,,,,,,,,,,,,,,,,,,,,,,,,,,,,,,,,,,,,,,,,,,,,,,,,,,,,,,,,,,,,,,,,,
,,,,,,5ca0aae22fd4860001a4d560,62bbfab4b853f4201ecc5852,2022-06-29_09h09.56.704,Colour_Asymmetry_Pilot,2022.1.3,Win32,59.93407252,62bbe60bf3d75ef465d3e404,,,,,,,,,,,,,,,,,,,"[0.40379999999999994,0.09000000000000008,0.44300000000000006]",fourtwo,"[0.7646000000000002,0.07440000000000002,0.2704]",2,1.5496,91.20001221,-50.3999939,1,0,0,response3disk_5,16.79998779,-7.200012207,1,0,0,rectangle_8,16.79998779,-7.200012207,1,0,0,3,16.79998779,-7.200012207,1,0,0,4,0,4,0,1,,,,,,,,,,,,,,,,,,,,,,,,,,,,,,,,,,,,,,,,,,,,,,,,,,,,,,,,,,,,,,,,,,,,,,,,,,,,,,,,,,,,,,,,,,,,,,,,,,,,,,,,
,,,,,,5ca0aae22fd4860001a4d560,62bbfab4b853f4201ecc5852,2022-06-29_09h09.56.704,Colour_Asymmetry_Pilot,2022.1.3,Win32,59.93407252,62bbe60bf3d75ef465d3e404,,,,,,,,,,,,,,,,,,,"[0.23920000000000008,0.2704,0.16060000000000008]",twoone,"[-0.4276,0.0038000000000000256,-0.3256]",-4,1.3828,-44,78.3999939,1,0,0,response7disk_5,2.400024414,3.199981689,1,0,0,rectangle_8,2.400024414,3.199981689,1,0,0,3,2.400024414,3.199981689,1,0,0,5,0,5,0,1,,,,,,,,,,,,,,,,,,,,,,,,,,,,,,,,,,,,,,,,,,,,,,,,,,,,,,,,,,,,,,,,,,,,,,,,,,,,,,,,,,,,,,,,,,,,,,,,,,,,,,,,
,,,,,,5ca0aae22fd4860001a4d560,62bbfab4b853f4201ecc5852,2022-06-29_09h09.56.704,Colour_Asymmetry_Pilot,2022.1.3,Win32,59.93407252,62bbe60bf3d75ef465d3e404,,,,,,,,,,,,,,,,,,,"[0.9763999999999999,-0.1137999999999999,-0.6314]",twofour,"[-0.5922000000000001,-0.7492000000000001,-0.5296000000000001]",-4,1.316,-27.20001221,100,1,0,0,response7disk_5,-17.59997559,1.600006104,1,0,0,rectangle_8,-17.59997559,1.600006104,1,0,0,3,-17.59997559,1.600006104,1,0,0,6,0,6,0,1,,,,,,,,,,,,,,,,,,,,,,,,,,,,,,,,,,,,,,,,,,,,,,,,,,,,,,,,,,,,,,,,,,,,,,,,,,,,,,,,,,,,,,,,,,,,,,,,,,,,,,,,
,,,,,,5ca0aae22fd4860001a4d560,62bbfab4b853f4201ecc5852,2022-06-29_09h09.56.704,Colour_Asymmetry_Pilot,2022.1.3,Win32,59.93407252,62bbe60bf3d75ef465d3e404,,,,,,,,,,,,,,,,,,,,onetwo,,1,1.6504,,,,,,,,,,,,,,,,,,,,,,,,,,,,,space,3.1857,"[0.9842,0.7409999999999999,-0.6628000000000001]","[0.3802000000000001,0.19199999999999995,-0.6394]",28,-100,1,0,0,response3disk,-4,7.199981689,1,0,0,rectangle,-4,7.199981689,1,0,0,,3,0.0033,0,-4,7.199981689,1,0,0,0,0,0,103,1,22,second,,,,,,,,,,,,,,,,,,,,,,,,,,,,,,,,,,,,,,,,,,,,,,,,,,,,,,,,,,,,,,,,,,,
,,,,,,5ca0aae22fd4860001a4d560,62bbfab4b853f4201ecc5852,2022-06-29_09h09.56.704,Colour_Asymmetry_Pilot,2022.1.3,Win32,59.93407252,62bbe60bf3d75ef465d3e404,,,,,,,,,,,,,,,,,,,,onetwo,,-1,2.1329,,,,,,,,,,,,,,,,,,,,,,,,,,,,,,,"[0.9763999999999999,0.30979999999999985,-0.6786]","[0.7176,-0.906,-0.6864]",-33.59997559,-95.20001221,1,0,0,response5disk,-2.399963379,-4.800018311,1,0,0,rectangle,-2.399963379,-4.800018311,1,0,0,,1,0.0016,0,-2.399963379,-4.800018311,1,0,0,0,1,1,138,1,57,second,,,,,,,,,,,,,,,,,,,,,,,,,,,,,,,,,,,,,,,,,,,,,,,,,,,,,,,,,,,,,,,,,,,
,,,,,,5ca0aae22fd4860001a4d560,62bbfab4b853f4201ecc5852,2022-06-29_09h09.56.704,Colour_Asymmetry_Pilot,2022.1.3,Win32,59.93407252,62bbe60bf3d75ef465d3e404,,,,,,,,,,,,,,,,,,,,twoone,,-3,0.8998,,,,,,,,,,,,,,,,,,,,,,,,,,,,,,,"[0.3568,-0.20799999999999996,-0.9844]","[-0.2942,-0.24719999999999998,-0.357]",-63.20001221,45.6000061,1,0,0,response7disk,-4.799987793,-10.3999939,1,0,0,rectangle,-4.799987793,-10.3999939,1,0,0,,2,0.0019,0,-4.799987793,-10.3999939,1,0,0,0,2,2,157,1,76,second,,,,,,,,,,,,,,,,,,,,,,,,,,,,,,,,,,,,,,,,,,,,,,,,,,,,,,,,,,,,,,,,,,,
,,,,,,5ca0aae22fd4860001a4d560,62bbfab4b853f4201ecc5852,2022-06-29_09h09.56.704,Colour_Asymmetry_Pilot,2022.1.3,Win32,59.93407252,62bbe60bf3d75ef465d3e404,,,,,,,,,,,,,,,,,,,,onetwo,,2,0.9166,,,,,,,,,,,,,,,,,,,,,,,,,,,,,,,"[-0.9296,-0.12959999999999994,-0.043199999999999905]","[-0.5452,-0.608,0.2470000000000001]",63.20001221,-44.80001831,1,0,0,response3disk,6.400024414,9.600006104,1,0,0,rectangle,6.400024414,9.600006104,1,0,0,,1,0.0021,0,6.400024414,9.600006104,1,0,0,0,3,3,110,1,29,second,,,,,,,,,,,,,,,,,,,,,,,,,,,,,,,,,,,,,,,,,,,,,,,,,,,,,,,,,,,,,,,,,,,
,,,,,,5ca0aae22fd4860001a4d560,62bbfab4b853f4201ecc5852,2022-06-29_09h09.56.704,Colour_Asymmetry_Pilot,2022.1.3,Win32,59.93407252,62bbe60bf3d75ef465d3e404,,,,,,,,,,,,,,,,,,,,twoone,,3,0.8666,,,,,,,,,,,,,,,,,,,,,,,,,,,,,,,"[0.23920000000000008,0.2704,0.16060000000000008]","[0.9372,0.9450000000000001,0.8980000000000001]",79.20001221,37.6000061,1,0,0,response1disk,13.60003662,4.799987793,1,0,0,rectangle,13.60003662,4.799987793,1,0,0,,1,0.0004,0,13.60003662,4.799987793,1,0,0,0,4,4,115,1,34,second,,,,,,,,,,,,,,,,,,,,,,,,,,,,,,,,,,,,,,,,,,,,,,,,,,,,,,,,,,,,,,,,,,,
,,,,,,5ca0aae22fd4860001a4d560,62bbfab4b853f4201ecc5852,2022-06-29_09h09.56.704,Colour_Asymmetry_Pilot,2022.1.3,Win32,59.93407252,62bbe60bf3d75ef465d3e404,,,,,,,,,,,,,,,,,,,,twofour,,-4,1.0993,,,,,,,,,,,,,,,,,,,,,,,,,,,,,,,"[-0.050999999999999934,-0.6706000000000001,-0.804]","[-0.9216,-0.5529999999999999,-0.3962]",-35.20001221,73.6000061,1,0,0,response7disk,-4.799987793,15.19998169,1,0,0,rectangle,-4.799987793,15.19998169,1,0,0,,3,0.0018,0,-4.799987793,15.19998169,1,0,0,0,5,5,23,1,23,first,,,,,,,,,,,,,,,,,,,,,,,,,,,,,,,,,,,,,,,,,,,,,,,,,,,,,,,,,,,,,,,,,,,
,,,,,,5ca0aae22fd4860001a4d560,62bbfab4b853f4201ecc5852,2022-06-29_09h09.56.704,Colour_Asymmetry_Pilot,2022.1.3,Win32,59.93407252,62bbe60bf3d75ef465d3e404,,,,,,,,,,,,,,,,,,,,twoone,,1,0.6998,,,,,,,,,,,,,,,,,,,,,,,,,,,,,,,"[0.9372,0.20779999999999998,0.2704]","[-0.26280000000000003,-0.4746,-0.2158]",39.20001221,-64,1,0,0,response3disk,-4,11.19998169,1,0,0,rectangle,-4,11.19998169,1,0,0,,3,0.0006,0,-4,11.19998169,1,0,0,0,6,6,7,1,7,first,,,,,,,,,,,,,,,,,,,,,,,,,,,,,,,,,,,,,,,,,,,,,,,,,,,,,,,,,,,,,,,,,,,
,,,,,,5ca0aae22fd4860001a4d560,62bbfab4b853f4201ecc5852,2022-06-29_09h09.56.704,Colour_Asymmetry_Pilot,2022.1.3,Win32,59.93407252,62bbe60bf3d75ef465d3e404,,,,,,,,,,,,,,,,,,,,threefour,,-4,0.6167,,,,,,,,,,,,,,,,,,,,,,,,,,,,,,,"[0.34099999999999997,0.5841999999999998,-0.9844]","[-0.30200000000000005,0.14500000000000002,0.2784]",-52.79998779,92.79998779,1,0,0,response7disk,-14.39996338,0,1,0,0,rectangle,-14.39996338,0,1,0,0,,3,0.0003,0,-14.39996338,0,1,0,0,0,7,7,13,1,13,first,,,,,,,,,,,,,,,,,,,,,,,,,,,,,,,,,,,,,,,,,,,,,,,,,,,,,,,,,,,,,,,,,,,
,,,,,,5ca0aae22fd4860001a4d560,62bbfab4b853f4201ecc5852,2022-06-29_09h09.56.704,Colour_Asymmetry_Pilot,2022.1.3,Win32,59.93407252,62bbe60bf3d75ef465d3e404,,,,,,,,,,,,,,,,,,,,twoone,,-4,0.5499,,,,,,,,,,,,,,,,,,,,,,,,,,,,,,,"[-0.2942,-0.7648,-0.7492000000000001]","[-0.8198,-0.5138,-0.7492000000000001]",-47.20001221,85.6000061,1,0,0,response7disk,-10.39996338,12,1,0,0,rectangle,-10.39996338,12,1,0,0,,1,0.0023,0,-10.39996338,12,1,0,0,0,8,8,44,1,44,first,,,,,,,,,,,,,,,,,,,,,,,,,,,,,,,,,,,,,,,,,,,,,,,,,,,,,,,,,,,,,,,,,,,
,,,,,,5ca0aae22fd4860001a4d560,62bbfab4b853f4201ecc5852,2022-06-29_09h09.56.704,Colour_Asymmetry_Pilot,2022.1.3,Win32,59.93407252,62bbe60bf3d75ef465d3e404,,,,,,,,,,,,,,,,,,,,fourthree,,-4,0.7331,,,,,,,,,,,,,,,,,,,,,,,,,,,,,,,"[0.18419999999999992,-0.4276,-0.404]","[0.7018,0.7176,0.6155999999999999]",-23.20001221,52,1,0,0,response7disk,-1.599975586,-3.200012207,1,0,0,rectangle,-1.599975586,-3.200012207,1,0,0,,3,0.0021,0,-1.599975586,-3.200012207,1,0,0,0,9,9,47,1,47,first,,,,,,,,,,,,,,,,,,,,,,,,,,,,,,,,,,,,,,,,,,,,,,,,,,,,,,,,,,,,,,,,,,,
,,,,,,5ca0aae22fd4860001a4d560,62bbfab4b853f4201ecc5852,2022-06-29_09h09.56.704,Colour_Asymmetry_Pilot,2022.1.3,Win32,59.93407252,62bbe60bf3d75ef465d3e404,,,,,,,,,,,,,,,,,,,,threeone,,-1,1.1999,,,,,,,,,,,,,,,,,,,,,,,,,,,,,,,"[0.3802000000000001,0.19199999999999995,-0.6394]","[0.4196,0.4665999999999999,0.3568]",-38.39996338,-68.80001831,1,0,0,response5disk,5.600036621,-6.399993896,1,0,0,rectangle,5.600036621,-6.399993896,1,0,0,,1,0.002,0,5.600036621,-6.399993896,1,0,0,0,10,10,48,1,48,first,,,,,,,,,,,,,,,,,,,,,,,,,,,,,,,,,,,,,,,,,,,,,,,,,,,,,,,,,,,,,,,,,,,
,,,,,,5ca0aae22fd4860001a4d560,62bbfab4b853f4201ecc5852,2022-06-29_09h09.56.704,Colour_Asymmetry_Pilot,2022.1.3,Win32,59.93407252,62bbe60bf3d75ef465d3e404,,,,,,,,,,,,,,,,,,,,threeone,,1,0.8997,,,,,,,,,,,,,,,,,,,,,,,,,,,,,,,"[0.9842,0.7409999999999999,-0.6628000000000001]","[0.9763999999999999,0.30979999999999985,-0.6786]",52.79998779,-81.60003662,1,0,0,response3disk,-6.399963379,5.600006104,1,0,0,rectangle,-6.399963379,5.600006104,1,0,0,,3,0.002,0,-6.399963379,5.600006104,1,0,0,0,11,11,141,1,60,second,,,,,,,,,,,,,,,,,,,,,,,,,,,,,,,,,,,,,,,,,,,,,,,,,,,,,,,,,,,,,,,,,,,
,,,,,,5ca0aae22fd4860001a4d560,62bbfab4b853f4201ecc5852,2022-06-29_09h09.56.704,Colour_Asymmetry_Pilot,2022.1.3,Win32,59.93407252,62bbe60bf3d75ef465d3e404,,,,,,,,,,,,,,,,,,,,fourthree,,-4,0.7665,,,,,,,,,,,,,,,,,,,,,,,,,,,,,,,"[-0.9766,-0.34920000000000007,0.2156]","[-0.9844,-0.9688,-0.9922]",-43.20001221,89.6000061,1,0,0,response7disk,-5.599975586,0,1,0,0,rectangle,-5.599975586,0,1,0,0,,2,0.0016,0,-5.599975586,0,1,0,0,0,12,12,67,1,67,first,,,,,,,,,,,,,,,,,,,,,,,,,,,,,,,,,,,,,,,,,,,,,,,,,,,,,,,,,,,,,,,,,,,
,,,,,,5ca0aae22fd4860001a4d560,62bbfab4b853f4201ecc5852,2022-06-29_09h09.56.704,Colour_Asymmetry_Pilot,2022.1.3,Win32,59.93407252,62bbe60bf3d75ef465d3e404,,,,,,,,,,,,,,,,,,,,fourtwo,,-4,0.4162,,,,,,,,,,,,,,,,,,,,,,,,,,,,,,,"[-0.9138,-0.5296000000000001,-0.5529999999999999]","[-0.011800000000000033,-0.906,-0.45100000000000007]",-31.20001221,80,1,0,0,response7disk,-13.59997559,-7.200012207,1,0,0,rectangle,-13.59997559,-7.200012207,1,0,0,,1,0.0023,0,-13.59997559,-7.200012207,1,0,0,0,13,13,49,1,49,first,,,,,,,,,,,,,,,,,,,,,,,,,,,,,,,,,,,,,,,,,,,,,,,,,,,,,,,,,,,,,,,,,,,
,,,,,,5ca0aae22fd4860001a4d560,62bbfab4b853f4201ecc5852,2022-06-29_09h09.56.704,Colour_Asymmetry_Pilot,2022.1.3,Win32,59.93407252,62bbe60bf3d75ef465d3e404,,,,,,,,,,,,,,,,,,,,twofour,,1,0.4835,,,,,,,,,,,,,,,,,,,,,,,,,,,,,,,"[-0.011800000000000033,-0.906,-0.45100000000000007]","[-0.10599999999999998,-0.15300000000000002,0.15280000000000005]",39.20001221,-60.80001831,1,0,0,response3disk,7.200012207,13.6000061,1,0,0,rectangle,7.200012207,13.6000061,1,0,0,,1,0.0006,0,7.200012207,13.6000061,1,0,0,0,14,14,45,1,45,first,,,,,,,,,,,,,,,,,,,,,,,,,,,,,,,,,,,,,,,,,,,,,,,,,,,,,,,,,,,,,,,,,,,
,,,,,,5ca0aae22fd4860001a4d560,62bbfab4b853f4201ecc5852,2022-06-29_09h09.56.704,Colour_Asymmetry_Pilot,2022.1.3,Win32,59.93407252,62bbe60bf3d75ef465d3e404,,,,,,,,,,,,,,,,,,,,twoone,,-1,0.6664,,,,,,,,,,,,,,,,,,,,,,,,,,,,,,,"[-0.6942,-0.7648,-0.12959999999999994]","[-0.9138,-0.5296000000000001,-0.5529999999999999]",-48,-65.6000061,1,0,0,response5disk,28.79998779,6.399993896,1,0,0,rectangle,28.79998779,6.399993896,1,0,0,,2,0.0016,0,28.79998779,6.399993896,1,0,0,0,15,15,82,1,1,second,,,,,,,,,,,,,,,,,,,,,,,,,,,,,,,,,,,,,,,,,,,,,,,,,,,,,,,,,,,,,,,,,,,
,,,,,,5ca0aae22fd4860001a4d560,62bbfab4b853f4201ecc5852,2022-06-29_09h09.56.704,Colour_Asymmetry_Pilot,2022.1.3,Win32,59.93407252,62bbe60bf3d75ef465d3e404,,,,,,,,,,,,,,,,,,,,onetwo,,-4,0.5666,,,,,,,,,,,,,,,,,,,,,,,,,,,,,,,"[-0.9844,-0.9688,-0.9922]","[-0.9766,-0.34920000000000007,0.2156]",-32.79998779,75.19998169,1,0,0,response7disk,-14.39996338,8.799987793,1,0,0,rectangle,-14.39996338,8.799987793,1,0,0,,1,0.0019,0,-14.39996338,8.799987793,1,0,0,0,16,16,148,1,67,second,,,,,,,,,,,,,,,,,,,,,,,,,,,,,,,,,,,,,,,,,,,,,,,,,,,,,,,,,,,,,,,,,,,
,,,,,,5ca0aae22fd4860001a4d560,62bbfab4b853f4201ecc5852,2022-06-29_09h09.56.704,Colour_Asymmetry_Pilot,2022.1.3,Win32,59.93407252,62bbe60bf3d75ef465d3e404,,,,,,,,,,,,,,,,,,,,fourtwo,,-1,1.0329,,,,,,,,,,,,,,,,,,,,,,,,,,,,,,,"[-0.26280000000000003,-0.4746,-0.2158]","[0.7802,-0.23140000000000005,-0.20799999999999996]",-25.59997559,-75.20001221,1,0,0,response5disk,8,-6.399993896,1,0,0,rectangle,8,-6.399993896,1,0,0,,3,0.0017,0,8,-6.399993896,1,0,0,0,17,17,39,1,39,first,,,,,,,,,,,,,,,,,,,,,,,,,,,,,,,,,,,,,,,,,,,,,,,,,,,,,,,,,,,,,,,,,,,
,,,,,,5ca0aae22fd4860001a4d560,62bbfab4b853f4201ecc5852,2022-06-29_09h09.56.704,Colour_Asymmetry_Pilot,2022.1.3,Win32,59.93407252,62bbe60bf3d75ef465d3e404,,,,,,,,,,,,,,,,,,,,threeone,,-4,0.4166,,,,,,,,,,,,,,,,,,,,,,,,,,,,,,,"[-0.10599999999999998,-0.15300000000000002,0.15280000000000005]","[0.34099999999999997,0.12939999999999996,-0.9766]",-63.20001221,87.19998169,1,0,0,response7disk,-15.20001221,-8,1,0,0,rectangle,-15.20001221,-8,1,0,0,,1,0.0018,0,-15.20001221,-8,1,0,0,0,18,18,145,1,64,second,,,,,,,,,,,,,,,,,,,,,,,,,,,,,,,,,,,,,,,,,,,,,,,,,,,,,,,,,,,,,,,,,,,
