trials.thisRepN,trials.thisTrialN,trials.thisN,trials.thisIndex,trials.ran,Colourcodes,participant,session,date,expName,psychopyVersion,OS,frameRate,study_id,trials_4.thisRepN,trials_4.thisTrialN,trials_4.thisN,trials_4.thisIndex,trials_4.ran,StimulusPos,key_resp.keys,key_resp.rt,key_resp_2.keys,key_resp_2.rt,key_resp_15.keys,key_resp_15.rt,key_resp_17.keys,key_resp_17.rt,key_resp_9.keys,key_resp_9.rt,key_resp_10.keys,key_resp_10.rt,Circle1_col,Ecc,Circle2_col,similarity,response_time,mouse_5.x,mouse_5.y,mouse_5.leftButton,mouse_5.midButton,mouse_5.rightButton,mouse_5.clicked_name,mouse_10.x,mouse_10.y,mouse_10.leftButton,mouse_10.midButton,mouse_10.rightButton,mouse_10.clicked_name,mouse_7.x,mouse_7.y,mouse_7.leftButton,mouse_7.midButton,mouse_7.rightButton,catchnumberprac,mouse_6.x,mouse_6.y,mouse_6.leftButton,mouse_6.midButton,mouse_6.rightButton,duringprac.thisRepN,duringprac.thisTrialN,duringprac.thisN,duringprac.thisIndex,duringprac.ran,mouse_7.clicked_name,catchprac,mouse_6.clicked_name,key_resp_22.keys,key_resp_22.rt,Circle1_colour,Circle2_colour,mouse.x,mouse.y,mouse.leftButton,mouse.midButton,mouse.rightButton,mouse.clicked_name,mouse_2.x,mouse_2.y,mouse_2.leftButton,mouse_2.midButton,mouse_2.rightButton,mouse_2.clicked_name,mouse_3.x,mouse_3.y,mouse_3.leftButton,mouse_3.midButton,mouse_3.rightButton,catchresponse,catchnumber,response_time_catch,Catch,mouse_11.x,mouse_11.y,mouse_11.leftButton,mouse_11.midButton,mouse_11.rightButton,trials_2.thisRepN,trials_2.thisTrialN,trials_2.thisN,trials_2.thisIndex,trials_2.ran,Colourpair,Temporder,mouse_3.clicked_name,mouse_11.clicked_name,trials_3.thisRepN,trials_3.thisTrialN,trials_3.thisN,trials_3.thisIndex,trials_3.ran,key_resp_instr_Ishi.keys,key_resp_instr_Ishi.rt,Ishi_trial_keyresp.keys,Ishi_trial_keyresp.rt,Ishi_textbox.text,Ishi_loop.thisRepN,Ishi_loop.thisTrialN,Ishi_loop.thisN,Ishi_loop.thisIndex,Ishi_loop.ran,imageaddress,textbox.text,mouse_4.x,mouse_4.y,mouse_4.leftButton,mouse_4.midButton,mouse_4.rightButton,mouse_4.clicked_name,textbox_2.text,mouse_8.x,mouse_8.y,mouse_8.leftButton,mouse_8.midButton,mouse_8.rightButton,mouse_8.clicked_name,textbox_3.text,mouse_9.x,mouse_9.y,mouse_9.leftButton,mouse_9.midButton,mouse_9.rightButton,mouse_9.clicked_name,textbox_4.text,mouse_12.x,mouse_12.y,mouse_12.leftButton,mouse_12.midButton,mouse_12.rightButton,mouse_12.clicked_name,textbox_5.text,mouse_13.x,mouse_13.y,mouse_13.leftButton,mouse_13.midButton,mouse_13.rightButton,mouse_13.clicked_name,textbox_6.text,mouse_14.x,mouse_14.y,mouse_14.leftButton,mouse_14.midButton,mouse_14.rightButton,mouse_14.clicked_name,textbox_7.text,mouse_15.x,mouse_15.y,mouse_15.leftButton,mouse_15.midButton,mouse_15.rightButton,mouse_15.clicked_name
0,0,0,28,1,,6064b073d8b83b30f7975c8d,62bbf9f04664875f645cb4bc,2022-06-29_09h06.37.451,Colour_Asymmetry_Pilot,2022.1.3,Win32,60.03842459,62bbe60bf3d75ef465d3e404,,,,,,,,,,,,,,,,,,,,,,,,,,,,,,,,,,,,,,,,,,,,,,,,,,,,,,,,,,,,,,,,,,,,,,,,,,,,,,,,,,,,,,,,,,,,,,,,,,,,,,,,,,,,,,,,,,,,,,,,,,,,,,,,,,,,,,,,,,,,,,,,,,,,,,,,,,,,,,
0,1,1,54,1,,6064b073d8b83b30f7975c8d,62bbf9f04664875f645cb4bc,2022-06-29_09h06.37.451,Colour_Asymmetry_Pilot,2022.1.3,Win32,60.03842459,62bbe60bf3d75ef465d3e404,,,,,,,,,,,,,,,,,,,,,,,,,,,,,,,,,,,,,,,,,,,,,,,,,,,,,,,,,,,,,,,,,,,,,,,,,,,,,,,,,,,,,,,,,,,,,,,,,,,,,,,,,,,,,,,,,,,,,,,,,,,,,,,,,,,,,,,,,,,,,,,,,,,,,,,,,,,,,,
0,2,2,85,1,,6064b073d8b83b30f7975c8d,62bbf9f04664875f645cb4bc,2022-06-29_09h06.37.451,Colour_Asymmetry_Pilot,2022.1.3,Win32,60.03842459,62bbe60bf3d75ef465d3e404,,,,,,,,,,,,,,,,,,,,,,,,,,,,,,,,,,,,,,,,,,,,,,,,,,,,,,,,,,,,,,,,,,,,,,,,,,,,,,,,,,,,,,,,,,,,,,,,,,,,,,,,,,,,,,,,,,,,,,,,,,,,,,,,,,,,,,,,,,,,,,,,,,,,,,,,,,,,,,
0,3,3,31,1,,6064b073d8b83b30f7975c8d,62bbf9f04664875f645cb4bc,2022-06-29_09h06.37.451,Colour_Asymmetry_Pilot,2022.1.3,Win32,60.03842459,62bbe60bf3d75ef465d3e404,,,,,,,,,,,,,,,,,,,,,,,,,,,,,,,,,,,,,,,,,,,,,,,,,,,,,,,,,,,,,,,,,,,,,,,,,,,,,,,,,,,,,,,,,,,,,,,,,,,,,,,,,,,,,,,,,,,,,,,,,,,,,,,,,,,,,,,,,,,,,,,,,,,,,,,,,,,,,,
0,4,4,83,1,,6064b073d8b83b30f7975c8d,62bbf9f04664875f645cb4bc,2022-06-29_09h06.37.451,Colour_Asymmetry_Pilot,2022.1.3,Win32,60.03842459,62bbe60bf3d75ef465d3e404,,,,,,,,,,,,,,,,,,,,,,,,,,,,,,,,,,,,,,,,,,,,,,,,,,,,,,,,,,,,,,,,,,,,,,,,,,,,,,,,,,,,,,,,,,,,,,,,,,,,,,,,,,,,,,,,,,,,,,,,,,,,,,,,,,,,,,,,,,,,,,,,,,,,,,,,,,,,,,
0,5,5,78,1,,6064b073d8b83b30f7975c8d,62bbf9f04664875f645cb4bc,2022-06-29_09h06.37.451,Colour_Asymmetry_Pilot,2022.1.3,Win32,60.03842459,62bbe60bf3d75ef465d3e404,,,,,,,,,,,,,,,,,,,,,,,,,,,,,,,,,,,,,,,,,,,,,,,,,,,,,,,,,,,,,,,,,,,,,,,,,,,,,,,,,,,,,,,,,,,,,,,,,,,,,,,,,,,,,,,,,,,,,,,,,,,,,,,,,,,,,,,,,,,,,,,,,,,,,,,,,,,,,,
0,6,6,37,1,,6064b073d8b83b30f7975c8d,62bbf9f04664875f645cb4bc,2022-06-29_09h06.37.451,Colour_Asymmetry_Pilot,2022.1.3,Win32,60.03842459,62bbe60bf3d75ef465d3e404,,,,,,,,,,,,,,,,,,,,,,,,,,,,,,,,,,,,,,,,,,,,,,,,,,,,,,,,,,,,,,,,,,,,,,,,,,,,,,,,,,,,,,,,,,,,,,,,,,,,,,,,,,,,,,,,,,,,,,,,,,,,,,,,,,,,,,,,,,,,,,,,,,,,,,,,,,,,,,
0,7,7,9,1,,6064b073d8b83b30f7975c8d,62bbf9f04664875f645cb4bc,2022-06-29_09h06.37.451,Colour_Asymmetry_Pilot,2022.1.3,Win32,60.03842459,62bbe60bf3d75ef465d3e404,,,,,,,,,,,,,,,,,,,,,,,,,,,,,,,,,,,,,,,,,,,,,,,,,,,,,,,,,,,,,,,,,,,,,,,,,,,,,,,,,,,,,,,,,,,,,,,,,,,,,,,,,,,,,,,,,,,,,,,,,,,,,,,,,,,,,,,,,,,,,,,,,,,,,,,,,,,,,,
0,8,8,89,1,,6064b073d8b83b30f7975c8d,62bbf9f04664875f645cb4bc,2022-06-29_09h06.37.451,Colour_Asymmetry_Pilot,2022.1.3,Win32,60.03842459,62bbe60bf3d75ef465d3e404,,,,,,,,,,,,,,,,,,,,,,,,,,,,,,,,,,,,,,,,,,,,,,,,,,,,,,,,,,,,,,,,,,,,,,,,,,,,,,,,,,,,,,,,,,,,,,,,,,,,,,,,,,,,,,,,,,,,,,,,,,,,,,,,,,,,,,,,,,,,,,,,,,,,,,,,,,,,,,
0,9,9,0,1,,6064b073d8b83b30f7975c8d,62bbf9f04664875f645cb4bc,2022-06-29_09h06.37.451,Colour_Asymmetry_Pilot,2022.1.3,Win32,60.03842459,62bbe60bf3d75ef465d3e404,,,,,,,,,,,,,,,,,,,,,,,,,,,,,,,,,,,,,,,,,,,,,,,,,,,,,,,,,,,,,,,,,,,,,,,,,,,,,,,,,,,,,,,,,,,,,,,,,,,,,,,,,,,,,,,,,,,,,,,,,,,,,,,,,,,,,,,,,,,,,,,,,,,,,,,,,,,,,,
0,10,10,40,1,,6064b073d8b83b30f7975c8d,62bbf9f04664875f645cb4bc,2022-06-29_09h06.37.451,Colour_Asymmetry_Pilot,2022.1.3,Win32,60.03842459,62bbe60bf3d75ef465d3e404,,,,,,,,,,,,,,,,,,,,,,,,,,,,,,,,,,,,,,,,,,,,,,,,,,,,,,,,,,,,,,,,,,,,,,,,,,,,,,,,,,,,,,,,,,,,,,,,,,,,,,,,,,,,,,,,,,,,,,,,,,,,,,,,,,,,,,,,,,,,,,,,,,,,,,,,,,,,,,
0,11,11,86,1,,6064b073d8b83b30f7975c8d,62bbf9f04664875f645cb4bc,2022-06-29_09h06.37.451,Colour_Asymmetry_Pilot,2022.1.3,Win32,60.03842459,62bbe60bf3d75ef465d3e404,,,,,,,,,,,,,,,,,,,,,,,,,,,,,,,,,,,,,,,,,,,,,,,,,,,,,,,,,,,,,,,,,,,,,,,,,,,,,,,,,,,,,,,,,,,,,,,,,,,,,,,,,,,,,,,,,,,,,,,,,,,,,,,,,,,,,,,,,,,,,,,,,,,,,,,,,,,,,,
0,12,12,90,1,,6064b073d8b83b30f7975c8d,62bbf9f04664875f645cb4bc,2022-06-29_09h06.37.451,Colour_Asymmetry_Pilot,2022.1.3,Win32,60.03842459,62bbe60bf3d75ef465d3e404,,,,,,,,,,,,,,,,,,,,,,,,,,,,,,,,,,,,,,,,,,,,,,,,,,,,,,,,,,,,,,,,,,,,,,,,,,,,,,,,,,,,,,,,,,,,,,,,,,,,,,,,,,,,,,,,,,,,,,,,,,,,,,,,,,,,,,,,,,,,,,,,,,,,,,,,,,,,,,
0,13,13,82,1,,6064b073d8b83b30f7975c8d,62bbf9f04664875f645cb4bc,2022-06-29_09h06.37.451,Colour_Asymmetry_Pilot,2022.1.3,Win32,60.03842459,62bbe60bf3d75ef465d3e404,,,,,,,,,,,,,,,,,,,,,,,,,,,,,,,,,,,,,,,,,,,,,,,,,,,,,,,,,,,,,,,,,,,,,,,,,,,,,,,,,,,,,,,,,,,,,,,,,,,,,,,,,,,,,,,,,,,,,,,,,,,,,,,,,,,,,,,,,,,,,,,,,,,,,,,,,,,,,,
0,14,14,60,1,,6064b073d8b83b30f7975c8d,62bbf9f04664875f645cb4bc,2022-06-29_09h06.37.451,Colour_Asymmetry_Pilot,2022.1.3,Win32,60.03842459,62bbe60bf3d75ef465d3e404,,,,,,,,,,,,,,,,,,,,,,,,,,,,,,,,,,,,,,,,,,,,,,,,,,,,,,,,,,,,,,,,,,,,,,,,,,,,,,,,,,,,,,,,,,,,,,,,,,,,,,,,,,,,,,,,,,,,,,,,,,,,,,,,,,,,,,,,,,,,,,,,,,,,,,,,,,,,,,
0,15,15,62,1,,6064b073d8b83b30f7975c8d,62bbf9f04664875f645cb4bc,2022-06-29_09h06.37.451,Colour_Asymmetry_Pilot,2022.1.3,Win32,60.03842459,62bbe60bf3d75ef465d3e404,,,,,,,,,,,,,,,,,,,,,,,,,,,,,,,,,,,,,,,,,,,,,,,,,,,,,,,,,,,,,,,,,,,,,,,,,,,,,,,,,,,,,,,,,,,,,,,,,,,,,,,,,,,,,,,,,,,,,,,,,,,,,,,,,,,,,,,,,,,,,,,,,,,,,,,,,,,,,,
0,16,16,47,1,,6064b073d8b83b30f7975c8d,62bbf9f04664875f645cb4bc,2022-06-29_09h06.37.451,Colour_Asymmetry_Pilot,2022.1.3,Win32,60.03842459,62bbe60bf3d75ef465d3e404,,,,,,,,,,,,,,,,,,,,,,,,,,,,,,,,,,,,,,,,,,,,,,,,,,,,,,,,,,,,,,,,,,,,,,,,,,,,,,,,,,,,,,,,,,,,,,,,,,,,,,,,,,,,,,,,,,,,,,,,,,,,,,,,,,,,,,,,,,,,,,,,,,,,,,,,,,,,,,
0,17,17,55,1,,6064b073d8b83b30f7975c8d,62bbf9f04664875f645cb4bc,2022-06-29_09h06.37.451,Colour_Asymmetry_Pilot,2022.1.3,Win32,60.03842459,62bbe60bf3d75ef465d3e404,,,,,,,,,,,,,,,,,,,,,,,,,,,,,,,,,,,,,,,,,,,,,,,,,,,,,,,,,,,,,,,,,,,,,,,,,,,,,,,,,,,,,,,,,,,,,,,,,,,,,,,,,,,,,,,,,,,,,,,,,,,,,,,,,,,,,,,,,,,,,,,,,,,,,,,,,,,,,,
0,18,18,76,1,,6064b073d8b83b30f7975c8d,62bbf9f04664875f645cb4bc,2022-06-29_09h06.37.451,Colour_Asymmetry_Pilot,2022.1.3,Win32,60.03842459,62bbe60bf3d75ef465d3e404,,,,,,,,,,,,,,,,,,,,,,,,,,,,,,,,,,,,,,,,,,,,,,,,,,,,,,,,,,,,,,,,,,,,,,,,,,,,,,,,,,,,,,,,,,,,,,,,,,,,,,,,,,,,,,,,,,,,,,,,,,,,,,,,,,,,,,,,,,,,,,,,,,,,,,,,,,,,,,
0,19,19,13,1,,6064b073d8b83b30f7975c8d,62bbf9f04664875f645cb4bc,2022-06-29_09h06.37.451,Colour_Asymmetry_Pilot,2022.1.3,Win32,60.03842459,62bbe60bf3d75ef465d3e404,,,,,,,,,,,,,,,,,,,,,,,,,,,,,,,,,,,,,,,,,,,,,,,,,,,,,,,,,,,,,,,,,,,,,,,,,,,,,,,,,,,,,,,,,,,,,,,,,,,,,,,,,,,,,,,,,,,,,,,,,,,,,,,,,,,,,,,,,,,,,,,,,,,,,,,,,,,,,,
0,20,20,61,1,,6064b073d8b83b30f7975c8d,62bbf9f04664875f645cb4bc,2022-06-29_09h06.37.451,Colour_Asymmetry_Pilot,2022.1.3,Win32,60.03842459,62bbe60bf3d75ef465d3e404,,,,,,,,,,,,,,,,,,,,,,,,,,,,,,,,,,,,,,,,,,,,,,,,,,,,,,,,,,,,,,,,,,,,,,,,,,,,,,,,,,,,,,,,,,,,,,,,,,,,,,,,,,,,,,,,,,,,,,,,,,,,,,,,,,,,,,,,,,,,,,,,,,,,,,,,,,,,,,
0,21,21,19,1,,6064b073d8b83b30f7975c8d,62bbf9f04664875f645cb4bc,2022-06-29_09h06.37.451,Colour_Asymmetry_Pilot,2022.1.3,Win32,60.03842459,62bbe60bf3d75ef465d3e404,,,,,,,,,,,,,,,,,,,,,,,,,,,,,,,,,,,,,,,,,,,,,,,,,,,,,,,,,,,,,,,,,,,,,,,,,,,,,,,,,,,,,,,,,,,,,,,,,,,,,,,,,,,,,,,,,,,,,,,,,,,,,,,,,,,,,,,,,,,,,,,,,,,,,,,,,,,,,,
0,22,22,58,1,,6064b073d8b83b30f7975c8d,62bbf9f04664875f645cb4bc,2022-06-29_09h06.37.451,Colour_Asymmetry_Pilot,2022.1.3,Win32,60.03842459,62bbe60bf3d75ef465d3e404,,,,,,,,,,,,,,,,,,,,,,,,,,,,,,,,,,,,,,,,,,,,,,,,,,,,,,,,,,,,,,,,,,,,,,,,,,,,,,,,,,,,,,,,,,,,,,,,,,,,,,,,,,,,,,,,,,,,,,,,,,,,,,,,,,,,,,,,,,,,,,,,,,,,,,,,,,,,,,
0,23,23,69,1,,6064b073d8b83b30f7975c8d,62bbf9f04664875f645cb4bc,2022-06-29_09h06.37.451,Colour_Asymmetry_Pilot,2022.1.3,Win32,60.03842459,62bbe60bf3d75ef465d3e404,,,,,,,,,,,,,,,,,,,,,,,,,,,,,,,,,,,,,,,,,,,,,,,,,,,,,,,,,,,,,,,,,,,,,,,,,,,,,,,,,,,,,,,,,,,,,,,,,,,,,,,,,,,,,,,,,,,,,,,,,,,,,,,,,,,,,,,,,,,,,,,,,,,,,,,,,,,,,,
0,24,24,66,1,,6064b073d8b83b30f7975c8d,62bbf9f04664875f645cb4bc,2022-06-29_09h06.37.451,Colour_Asymmetry_Pilot,2022.1.3,Win32,60.03842459,62bbe60bf3d75ef465d3e404,,,,,,,,,,,,,,,,,,,,,,,,,,,,,,,,,,,,,,,,,,,,,,,,,,,,,,,,,,,,,,,,,,,,,,,,,,,,,,,,,,,,,,,,,,,,,,,,,,,,,,,,,,,,,,,,,,,,,,,,,,,,,,,,,,,,,,,,,,,,,,,,,,,,,,,,,,,,,,
0,25,25,46,1,,6064b073d8b83b30f7975c8d,62bbf9f04664875f645cb4bc,2022-06-29_09h06.37.451,Colour_Asymmetry_Pilot,2022.1.3,Win32,60.03842459,62bbe60bf3d75ef465d3e404,,,,,,,,,,,,,,,,,,,,,,,,,,,,,,,,,,,,,,,,,,,,,,,,,,,,,,,,,,,,,,,,,,,,,,,,,,,,,,,,,,,,,,,,,,,,,,,,,,,,,,,,,,,,,,,,,,,,,,,,,,,,,,,,,,,,,,,,,,,,,,,,,,,,,,,,,,,,,,
0,26,26,51,1,,6064b073d8b83b30f7975c8d,62bbf9f04664875f645cb4bc,2022-06-29_09h06.37.451,Colour_Asymmetry_Pilot,2022.1.3,Win32,60.03842459,62bbe60bf3d75ef465d3e404,,,,,,,,,,,,,,,,,,,,,,,,,,,,,,,,,,,,,,,,,,,,,,,,,,,,,,,,,,,,,,,,,,,,,,,,,,,,,,,,,,,,,,,,,,,,,,,,,,,,,,,,,,,,,,,,,,,,,,,,,,,,,,,,,,,,,,,,,,,,,,,,,,,,,,,,,,,,,,
0,27,27,17,1,,6064b073d8b83b30f7975c8d,62bbf9f04664875f645cb4bc,2022-06-29_09h06.37.451,Colour_Asymmetry_Pilot,2022.1.3,Win32,60.03842459,62bbe60bf3d75ef465d3e404,,,,,,,,,,,,,,,,,,,,,,,,,,,,,,,,,,,,,,,,,,,,,,,,,,,,,,,,,,,,,,,,,,,,,,,,,,,,,,,,,,,,,,,,,,,,,,,,,,,,,,,,,,,,,,,,,,,,,,,,,,,,,,,,,,,,,,,,,,,,,,,,,,,,,,,,,,,,,,
0,28,28,6,1,,6064b073d8b83b30f7975c8d,62bbf9f04664875f645cb4bc,2022-06-29_09h06.37.451,Colour_Asymmetry_Pilot,2022.1.3,Win32,60.03842459,62bbe60bf3d75ef465d3e404,,,,,,,,,,,,,,,,,,,,,,,,,,,,,,,,,,,,,,,,,,,,,,,,,,,,,,,,,,,,,,,,,,,,,,,,,,,,,,,,,,,,,,,,,,,,,,,,,,,,,,,,,,,,,,,,,,,,,,,,,,,,,,,,,,,,,,,,,,,,,,,,,,,,,,,,,,,,,,
0,29,29,45,1,,6064b073d8b83b30f7975c8d,62bbf9f04664875f645cb4bc,2022-06-29_09h06.37.451,Colour_Asymmetry_Pilot,2022.1.3,Win32,60.03842459,62bbe60bf3d75ef465d3e404,,,,,,,,,,,,,,,,,,,,,,,,,,,,,,,,,,,,,,,,,,,,,,,,,,,,,,,,,,,,,,,,,,,,,,,,,,,,,,,,,,,,,,,,,,,,,,,,,,,,,,,,,,,,,,,,,,,,,,,,,,,,,,,,,,,,,,,,,,,,,,,,,,,,,,,,,,,,,,
0,30,30,88,1,,6064b073d8b83b30f7975c8d,62bbf9f04664875f645cb4bc,2022-06-29_09h06.37.451,Colour_Asymmetry_Pilot,2022.1.3,Win32,60.03842459,62bbe60bf3d75ef465d3e404,,,,,,,,,,,,,,,,,,,,,,,,,,,,,,,,,,,,,,,,,,,,,,,,,,,,,,,,,,,,,,,,,,,,,,,,,,,,,,,,,,,,,,,,,,,,,,,,,,,,,,,,,,,,,,,,,,,,,,,,,,,,,,,,,,,,,,,,,,,,,,,,,,,,,,,,,,,,,,
0,31,31,24,1,,6064b073d8b83b30f7975c8d,62bbf9f04664875f645cb4bc,2022-06-29_09h06.37.451,Colour_Asymmetry_Pilot,2022.1.3,Win32,60.03842459,62bbe60bf3d75ef465d3e404,,,,,,,,,,,,,,,,,,,,,,,,,,,,,,,,,,,,,,,,,,,,,,,,,,,,,,,,,,,,,,,,,,,,,,,,,,,,,,,,,,,,,,,,,,,,,,,,,,,,,,,,,,,,,,,,,,,,,,,,,,,,,,,,,,,,,,,,,,,,,,,,,,,,,,,,,,,,,,
0,32,32,34,1,,6064b073d8b83b30f7975c8d,62bbf9f04664875f645cb4bc,2022-06-29_09h06.37.451,Colour_Asymmetry_Pilot,2022.1.3,Win32,60.03842459,62bbe60bf3d75ef465d3e404,,,,,,,,,,,,,,,,,,,,,,,,,,,,,,,,,,,,,,,,,,,,,,,,,,,,,,,,,,,,,,,,,,,,,,,,,,,,,,,,,,,,,,,,,,,,,,,,,,,,,,,,,,,,,,,,,,,,,,,,,,,,,,,,,,,,,,,,,,,,,,,,,,,,,,,,,,,,,,
0,33,33,84,1,,6064b073d8b83b30f7975c8d,62bbf9f04664875f645cb4bc,2022-06-29_09h06.37.451,Colour_Asymmetry_Pilot,2022.1.3,Win32,60.03842459,62bbe60bf3d75ef465d3e404,,,,,,,,,,,,,,,,,,,,,,,,,,,,,,,,,,,,,,,,,,,,,,,,,,,,,,,,,,,,,,,,,,,,,,,,,,,,,,,,,,,,,,,,,,,,,,,,,,,,,,,,,,,,,,,,,,,,,,,,,,,,,,,,,,,,,,,,,,,,,,,,,,,,,,,,,,,,,,
0,34,34,33,1,,6064b073d8b83b30f7975c8d,62bbf9f04664875f645cb4bc,2022-06-29_09h06.37.451,Colour_Asymmetry_Pilot,2022.1.3,Win32,60.03842459,62bbe60bf3d75ef465d3e404,,,,,,,,,,,,,,,,,,,,,,,,,,,,,,,,,,,,,,,,,,,,,,,,,,,,,,,,,,,,,,,,,,,,,,,,,,,,,,,,,,,,,,,,,,,,,,,,,,,,,,,,,,,,,,,,,,,,,,,,,,,,,,,,,,,,,,,,,,,,,,,,,,,,,,,,,,,,,,
0,35,35,59,1,,6064b073d8b83b30f7975c8d,62bbf9f04664875f645cb4bc,2022-06-29_09h06.37.451,Colour_Asymmetry_Pilot,2022.1.3,Win32,60.03842459,62bbe60bf3d75ef465d3e404,,,,,,,,,,,,,,,,,,,,,,,,,,,,,,,,,,,,,,,,,,,,,,,,,,,,,,,,,,,,,,,,,,,,,,,,,,,,,,,,,,,,,,,,,,,,,,,,,,,,,,,,,,,,,,,,,,,,,,,,,,,,,,,,,,,,,,,,,,,,,,,,,,,,,,,,,,,,,,
0,36,36,53,1,,6064b073d8b83b30f7975c8d,62bbf9f04664875f645cb4bc,2022-06-29_09h06.37.451,Colour_Asymmetry_Pilot,2022.1.3,Win32,60.03842459,62bbe60bf3d75ef465d3e404,,,,,,,,,,,,,,,,,,,,,,,,,,,,,,,,,,,,,,,,,,,,,,,,,,,,,,,,,,,,,,,,,,,,,,,,,,,,,,,,,,,,,,,,,,,,,,,,,,,,,,,,,,,,,,,,,,,,,,,,,,,,,,,,,,,,,,,,,,,,,,,,,,,,,,,,,,,,,,
0,37,37,67,1,,6064b073d8b83b30f7975c8d,62bbf9f04664875f645cb4bc,2022-06-29_09h06.37.451,Colour_Asymmetry_Pilot,2022.1.3,Win32,60.03842459,62bbe60bf3d75ef465d3e404,,,,,,,,,,,,,,,,,,,,,,,,,,,,,,,,,,,,,,,,,,,,,,,,,,,,,,,,,,,,,,,,,,,,,,,,,,,,,,,,,,,,,,,,,,,,,,,,,,,,,,,,,,,,,,,,,,,,,,,,,,,,,,,,,,,,,,,,,,,,,,,,,,,,,,,,,,,,,,
0,38,38,74,1,,6064b073d8b83b30f7975c8d,62bbf9f04664875f645cb4bc,2022-06-29_09h06.37.451,Colour_Asymmetry_Pilot,2022.1.3,Win32,60.03842459,62bbe60bf3d75ef465d3e404,,,,,,,,,,,,,,,,,,,,,,,,,,,,,,,,,,,,,,,,,,,,,,,,,,,,,,,,,,,,,,,,,,,,,,,,,,,,,,,,,,,,,,,,,,,,,,,,,,,,,,,,,,,,,,,,,,,,,,,,,,,,,,,,,,,,,,,,,,,,,,,,,,,,,,,,,,,,,,
0,39,39,32,1,,6064b073d8b83b30f7975c8d,62bbf9f04664875f645cb4bc,2022-06-29_09h06.37.451,Colour_Asymmetry_Pilot,2022.1.3,Win32,60.03842459,62bbe60bf3d75ef465d3e404,,,,,,,,,,,,,,,,,,,,,,,,,,,,,,,,,,,,,,,,,,,,,,,,,,,,,,,,,,,,,,,,,,,,,,,,,,,,,,,,,,,,,,,,,,,,,,,,,,,,,,,,,,,,,,,,,,,,,,,,,,,,,,,,,,,,,,,,,,,,,,,,,,,,,,,,,,,,,,
0,40,40,56,1,,6064b073d8b83b30f7975c8d,62bbf9f04664875f645cb4bc,2022-06-29_09h06.37.451,Colour_Asymmetry_Pilot,2022.1.3,Win32,60.03842459,62bbe60bf3d75ef465d3e404,,,,,,,,,,,,,,,,,,,,,,,,,,,,,,,,,,,,,,,,,,,,,,,,,,,,,,,,,,,,,,,,,,,,,,,,,,,,,,,,,,,,,,,,,,,,,,,,,,,,,,,,,,,,,,,,,,,,,,,,,,,,,,,,,,,,,,,,,,,,,,,,,,,,,,,,,,,,,,
0,41,41,48,1,,6064b073d8b83b30f7975c8d,62bbf9f04664875f645cb4bc,2022-06-29_09h06.37.451,Colour_Asymmetry_Pilot,2022.1.3,Win32,60.03842459,62bbe60bf3d75ef465d3e404,,,,,,,,,,,,,,,,,,,,,,,,,,,,,,,,,,,,,,,,,,,,,,,,,,,,,,,,,,,,,,,,,,,,,,,,,,,,,,,,,,,,,,,,,,,,,,,,,,,,,,,,,,,,,,,,,,,,,,,,,,,,,,,,,,,,,,,,,,,,,,,,,,,,,,,,,,,,,,
0,42,42,79,1,,6064b073d8b83b30f7975c8d,62bbf9f04664875f645cb4bc,2022-06-29_09h06.37.451,Colour_Asymmetry_Pilot,2022.1.3,Win32,60.03842459,62bbe60bf3d75ef465d3e404,,,,,,,,,,,,,,,,,,,,,,,,,,,,,,,,,,,,,,,,,,,,,,,,,,,,,,,,,,,,,,,,,,,,,,,,,,,,,,,,,,,,,,,,,,,,,,,,,,,,,,,,,,,,,,,,,,,,,,,,,,,,,,,,,,,,,,,,,,,,,,,,,,,,,,,,,,,,,,
0,43,43,49,1,,6064b073d8b83b30f7975c8d,62bbf9f04664875f645cb4bc,2022-06-29_09h06.37.451,Colour_Asymmetry_Pilot,2022.1.3,Win32,60.03842459,62bbe60bf3d75ef465d3e404,,,,,,,,,,,,,,,,,,,,,,,,,,,,,,,,,,,,,,,,,,,,,,,,,,,,,,,,,,,,,,,,,,,,,,,,,,,,,,,,,,,,,,,,,,,,,,,,,,,,,,,,,,,,,,,,,,,,,,,,,,,,,,,,,,,,,,,,,,,,,,,,,,,,,,,,,,,,,,
0,44,44,64,1,,6064b073d8b83b30f7975c8d,62bbf9f04664875f645cb4bc,2022-06-29_09h06.37.451,Colour_Asymmetry_Pilot,2022.1.3,Win32,60.03842459,62bbe60bf3d75ef465d3e404,,,,,,,,,,,,,,,,,,,,,,,,,,,,,,,,,,,,,,,,,,,,,,,,,,,,,,,,,,,,,,,,,,,,,,,,,,,,,,,,,,,,,,,,,,,,,,,,,,,,,,,,,,,,,,,,,,,,,,,,,,,,,,,,,,,,,,,,,,,,,,,,,,,,,,,,,,,,,,
0,45,45,50,1,,6064b073d8b83b30f7975c8d,62bbf9f04664875f645cb4bc,2022-06-29_09h06.37.451,Colour_Asymmetry_Pilot,2022.1.3,Win32,60.03842459,62bbe60bf3d75ef465d3e404,,,,,,,,,,,,,,,,,,,,,,,,,,,,,,,,,,,,,,,,,,,,,,,,,,,,,,,,,,,,,,,,,,,,,,,,,,,,,,,,,,,,,,,,,,,,,,,,,,,,,,,,,,,,,,,,,,,,,,,,,,,,,,,,,,,,,,,,,,,,,,,,,,,,,,,,,,,,,,
0,46,46,38,1,,6064b073d8b83b30f7975c8d,62bbf9f04664875f645cb4bc,2022-06-29_09h06.37.451,Colour_Asymmetry_Pilot,2022.1.3,Win32,60.03842459,62bbe60bf3d75ef465d3e404,,,,,,,,,,,,,,,,,,,,,,,,,,,,,,,,,,,,,,,,,,,,,,,,,,,,,,,,,,,,,,,,,,,,,,,,,,,,,,,,,,,,,,,,,,,,,,,,,,,,,,,,,,,,,,,,,,,,,,,,,,,,,,,,,,,,,,,,,,,,,,,,,,,,,,,,,,,,,,
0,47,47,81,1,,6064b073d8b83b30f7975c8d,62bbf9f04664875f645cb4bc,2022-06-29_09h06.37.451,Colour_Asymmetry_Pilot,2022.1.3,Win32,60.03842459,62bbe60bf3d75ef465d3e404,,,,,,,,,,,,,,,,,,,,,,,,,,,,,,,,,,,,,,,,,,,,,,,,,,,,,,,,,,,,,,,,,,,,,,,,,,,,,,,,,,,,,,,,,,,,,,,,,,,,,,,,,,,,,,,,,,,,,,,,,,,,,,,,,,,,,,,,,,,,,,,,,,,,,,,,,,,,,,
0,48,48,42,1,,6064b073d8b83b30f7975c8d,62bbf9f04664875f645cb4bc,2022-06-29_09h06.37.451,Colour_Asymmetry_Pilot,2022.1.3,Win32,60.03842459,62bbe60bf3d75ef465d3e404,,,,,,,,,,,,,,,,,,,,,,,,,,,,,,,,,,,,,,,,,,,,,,,,,,,,,,,,,,,,,,,,,,,,,,,,,,,,,,,,,,,,,,,,,,,,,,,,,,,,,,,,,,,,,,,,,,,,,,,,,,,,,,,,,,,,,,,,,,,,,,,,,,,,,,,,,,,,,,
0,49,49,11,1,,6064b073d8b83b30f7975c8d,62bbf9f04664875f645cb4bc,2022-06-29_09h06.37.451,Colour_Asymmetry_Pilot,2022.1.3,Win32,60.03842459,62bbe60bf3d75ef465d3e404,,,,,,,,,,,,,,,,,,,,,,,,,,,,,,,,,,,,,,,,,,,,,,,,,,,,,,,,,,,,,,,,,,,,,,,,,,,,,,,,,,,,,,,,,,,,,,,,,,,,,,,,,,,,,,,,,,,,,,,,,,,,,,,,,,,,,,,,,,,,,,,,,,,,,,,,,,,,,,
0,50,50,57,1,,6064b073d8b83b30f7975c8d,62bbf9f04664875f645cb4bc,2022-06-29_09h06.37.451,Colour_Asymmetry_Pilot,2022.1.3,Win32,60.03842459,62bbe60bf3d75ef465d3e404,,,,,,,,,,,,,,,,,,,,,,,,,,,,,,,,,,,,,,,,,,,,,,,,,,,,,,,,,,,,,,,,,,,,,,,,,,,,,,,,,,,,,,,,,,,,,,,,,,,,,,,,,,,,,,,,,,,,,,,,,,,,,,,,,,,,,,,,,,,,,,,,,,,,,,,,,,,,,,
0,51,51,30,1,,6064b073d8b83b30f7975c8d,62bbf9f04664875f645cb4bc,2022-06-29_09h06.37.451,Colour_Asymmetry_Pilot,2022.1.3,Win32,60.03842459,62bbe60bf3d75ef465d3e404,,,,,,,,,,,,,,,,,,,,,,,,,,,,,,,,,,,,,,,,,,,,,,,,,,,,,,,,,,,,,,,,,,,,,,,,,,,,,,,,,,,,,,,,,,,,,,,,,,,,,,,,,,,,,,,,,,,,,,,,,,,,,,,,,,,,,,,,,,,,,,,,,,,,,,,,,,,,,,
0,52,52,44,1,,6064b073d8b83b30f7975c8d,62bbf9f04664875f645cb4bc,2022-06-29_09h06.37.451,Colour_Asymmetry_Pilot,2022.1.3,Win32,60.03842459,62bbe60bf3d75ef465d3e404,,,,,,,,,,,,,,,,,,,,,,,,,,,,,,,,,,,,,,,,,,,,,,,,,,,,,,,,,,,,,,,,,,,,,,,,,,,,,,,,,,,,,,,,,,,,,,,,,,,,,,,,,,,,,,,,,,,,,,,,,,,,,,,,,,,,,,,,,,,,,,,,,,,,,,,,,,,,,,
0,53,53,10,1,,6064b073d8b83b30f7975c8d,62bbf9f04664875f645cb4bc,2022-06-29_09h06.37.451,Colour_Asymmetry_Pilot,2022.1.3,Win32,60.03842459,62bbe60bf3d75ef465d3e404,,,,,,,,,,,,,,,,,,,,,,,,,,,,,,,,,,,,,,,,,,,,,,,,,,,,,,,,,,,,,,,,,,,,,,,,,,,,,,,,,,,,,,,,,,,,,,,,,,,,,,,,,,,,,,,,,,,,,,,,,,,,,,,,,,,,,,,,,,,,,,,,,,,,,,,,,,,,,,
0,54,54,39,1,,6064b073d8b83b30f7975c8d,62bbf9f04664875f645cb4bc,2022-06-29_09h06.37.451,Colour_Asymmetry_Pilot,2022.1.3,Win32,60.03842459,62bbe60bf3d75ef465d3e404,,,,,,,,,,,,,,,,,,,,,,,,,,,,,,,,,,,,,,,,,,,,,,,,,,,,,,,,,,,,,,,,,,,,,,,,,,,,,,,,,,,,,,,,,,,,,,,,,,,,,,,,,,,,,,,,,,,,,,,,,,,,,,,,,,,,,,,,,,,,,,,,,,,,,,,,,,,,,,
0,55,55,73,1,,6064b073d8b83b30f7975c8d,62bbf9f04664875f645cb4bc,2022-06-29_09h06.37.451,Colour_Asymmetry_Pilot,2022.1.3,Win32,60.03842459,62bbe60bf3d75ef465d3e404,,,,,,,,,,,,,,,,,,,,,,,,,,,,,,,,,,,,,,,,,,,,,,,,,,,,,,,,,,,,,,,,,,,,,,,,,,,,,,,,,,,,,,,,,,,,,,,,,,,,,,,,,,,,,,,,,,,,,,,,,,,,,,,,,,,,,,,,,,,,,,,,,,,,,,,,,,,,,,
0,56,56,27,1,,6064b073d8b83b30f7975c8d,62bbf9f04664875f645cb4bc,2022-06-29_09h06.37.451,Colour_Asymmetry_Pilot,2022.1.3,Win32,60.03842459,62bbe60bf3d75ef465d3e404,,,,,,,,,,,,,,,,,,,,,,,,,,,,,,,,,,,,,,,,,,,,,,,,,,,,,,,,,,,,,,,,,,,,,,,,,,,,,,,,,,,,,,,,,,,,,,,,,,,,,,,,,,,,,,,,,,,,,,,,,,,,,,,,,,,,,,,,,,,,,,,,,,,,,,,,,,,,,,
0,57,57,18,1,,6064b073d8b83b30f7975c8d,62bbf9f04664875f645cb4bc,2022-06-29_09h06.37.451,Colour_Asymmetry_Pilot,2022.1.3,Win32,60.03842459,62bbe60bf3d75ef465d3e404,,,,,,,,,,,,,,,,,,,,,,,,,,,,,,,,,,,,,,,,,,,,,,,,,,,,,,,,,,,,,,,,,,,,,,,,,,,,,,,,,,,,,,,,,,,,,,,,,,,,,,,,,,,,,,,,,,,,,,,,,,,,,,,,,,,,,,,,,,,,,,,,,,,,,,,,,,,,,,
0,58,58,72,1,,6064b073d8b83b30f7975c8d,62bbf9f04664875f645cb4bc,2022-06-29_09h06.37.451,Colour_Asymmetry_Pilot,2022.1.3,Win32,60.03842459,62bbe60bf3d75ef465d3e404,,,,,,,,,,,,,,,,,,,,,,,,,,,,,,,,,,,,,,,,,,,,,,,,,,,,,,,,,,,,,,,,,,,,,,,,,,,,,,,,,,,,,,,,,,,,,,,,,,,,,,,,,,,,,,,,,,,,,,,,,,,,,,,,,,,,,,,,,,,,,,,,,,,,,,,,,,,,,,
0,59,59,68,1,,6064b073d8b83b30f7975c8d,62bbf9f04664875f645cb4bc,2022-06-29_09h06.37.451,Colour_Asymmetry_Pilot,2022.1.3,Win32,60.03842459,62bbe60bf3d75ef465d3e404,,,,,,,,,,,,,,,,,,,,,,,,,,,,,,,,,,,,,,,,,,,,,,,,,,,,,,,,,,,,,,,,,,,,,,,,,,,,,,,,,,,,,,,,,,,,,,,,,,,,,,,,,,,,,,,,,,,,,,,,,,,,,,,,,,,,,,,,,,,,,,,,,,,,,,,,,,,,,,
0,60,60,35,1,,6064b073d8b83b30f7975c8d,62bbf9f04664875f645cb4bc,2022-06-29_09h06.37.451,Colour_Asymmetry_Pilot,2022.1.3,Win32,60.03842459,62bbe60bf3d75ef465d3e404,,,,,,,,,,,,,,,,,,,,,,,,,,,,,,,,,,,,,,,,,,,,,,,,,,,,,,,,,,,,,,,,,,,,,,,,,,,,,,,,,,,,,,,,,,,,,,,,,,,,,,,,,,,,,,,,,,,,,,,,,,,,,,,,,,,,,,,,,,,,,,,,,,,,,,,,,,,,,,
0,61,61,2,1,,6064b073d8b83b30f7975c8d,62bbf9f04664875f645cb4bc,2022-06-29_09h06.37.451,Colour_Asymmetry_Pilot,2022.1.3,Win32,60.03842459,62bbe60bf3d75ef465d3e404,,,,,,,,,,,,,,,,,,,,,,,,,,,,,,,,,,,,,,,,,,,,,,,,,,,,,,,,,,,,,,,,,,,,,,,,,,,,,,,,,,,,,,,,,,,,,,,,,,,,,,,,,,,,,,,,,,,,,,,,,,,,,,,,,,,,,,,,,,,,,,,,,,,,,,,,,,,,,,
0,62,62,41,1,,6064b073d8b83b30f7975c8d,62bbf9f04664875f645cb4bc,2022-06-29_09h06.37.451,Colour_Asymmetry_Pilot,2022.1.3,Win32,60.03842459,62bbe60bf3d75ef465d3e404,,,,,,,,,,,,,,,,,,,,,,,,,,,,,,,,,,,,,,,,,,,,,,,,,,,,,,,,,,,,,,,,,,,,,,,,,,,,,,,,,,,,,,,,,,,,,,,,,,,,,,,,,,,,,,,,,,,,,,,,,,,,,,,,,,,,,,,,,,,,,,,,,,,,,,,,,,,,,,
0,63,63,25,1,,6064b073d8b83b30f7975c8d,62bbf9f04664875f645cb4bc,2022-06-29_09h06.37.451,Colour_Asymmetry_Pilot,2022.1.3,Win32,60.03842459,62bbe60bf3d75ef465d3e404,,,,,,,,,,,,,,,,,,,,,,,,,,,,,,,,,,,,,,,,,,,,,,,,,,,,,,,,,,,,,,,,,,,,,,,,,,,,,,,,,,,,,,,,,,,,,,,,,,,,,,,,,,,,,,,,,,,,,,,,,,,,,,,,,,,,,,,,,,,,,,,,,,,,,,,,,,,,,,
0,64,64,3,1,,6064b073d8b83b30f7975c8d,62bbf9f04664875f645cb4bc,2022-06-29_09h06.37.451,Colour_Asymmetry_Pilot,2022.1.3,Win32,60.03842459,62bbe60bf3d75ef465d3e404,,,,,,,,,,,,,,,,,,,,,,,,,,,,,,,,,,,,,,,,,,,,,,,,,,,,,,,,,,,,,,,,,,,,,,,,,,,,,,,,,,,,,,,,,,,,,,,,,,,,,,,,,,,,,,,,,,,,,,,,,,,,,,,,,,,,,,,,,,,,,,,,,,,,,,,,,,,,,,
0,65,65,80,1,,6064b073d8b83b30f7975c8d,62bbf9f04664875f645cb4bc,2022-06-29_09h06.37.451,Colour_Asymmetry_Pilot,2022.1.3,Win32,60.03842459,62bbe60bf3d75ef465d3e404,,,,,,,,,,,,,,,,,,,,,,,,,,,,,,,,,,,,,,,,,,,,,,,,,,,,,,,,,,,,,,,,,,,,,,,,,,,,,,,,,,,,,,,,,,,,,,,,,,,,,,,,,,,,,,,,,,,,,,,,,,,,,,,,,,,,,,,,,,,,,,,,,,,,,,,,,,,,,,
0,66,66,43,1,,6064b073d8b83b30f7975c8d,62bbf9f04664875f645cb4bc,2022-06-29_09h06.37.451,Colour_Asymmetry_Pilot,2022.1.3,Win32,60.03842459,62bbe60bf3d75ef465d3e404,,,,,,,,,,,,,,,,,,,,,,,,,,,,,,,,,,,,,,,,,,,,,,,,,,,,,,,,,,,,,,,,,,,,,,,,,,,,,,,,,,,,,,,,,,,,,,,,,,,,,,,,,,,,,,,,,,,,,,,,,,,,,,,,,,,,,,,,,,,,,,,,,,,,,,,,,,,,,,
0,67,67,52,1,,6064b073d8b83b30f7975c8d,62bbf9f04664875f645cb4bc,2022-06-29_09h06.37.451,Colour_Asymmetry_Pilot,2022.1.3,Win32,60.03842459,62bbe60bf3d75ef465d3e404,,,,,,,,,,,,,,,,,,,,,,,,,,,,,,,,,,,,,,,,,,,,,,,,,,,,,,,,,,,,,,,,,,,,,,,,,,,,,,,,,,,,,,,,,,,,,,,,,,,,,,,,,,,,,,,,,,,,,,,,,,,,,,,,,,,,,,,,,,,,,,,,,,,,,,,,,,,,,,
0,68,68,8,1,,6064b073d8b83b30f7975c8d,62bbf9f04664875f645cb4bc,2022-06-29_09h06.37.451,Colour_Asymmetry_Pilot,2022.1.3,Win32,60.03842459,62bbe60bf3d75ef465d3e404,,,,,,,,,,,,,,,,,,,,,,,,,,,,,,,,,,,,,,,,,,,,,,,,,,,,,,,,,,,,,,,,,,,,,,,,,,,,,,,,,,,,,,,,,,,,,,,,,,,,,,,,,,,,,,,,,,,,,,,,,,,,,,,,,,,,,,,,,,,,,,,,,,,,,,,,,,,,,,
0,69,69,12,1,,6064b073d8b83b30f7975c8d,62bbf9f04664875f645cb4bc,2022-06-29_09h06.37.451,Colour_Asymmetry_Pilot,2022.1.3,Win32,60.03842459,62bbe60bf3d75ef465d3e404,,,,,,,,,,,,,,,,,,,,,,,,,,,,,,,,,,,,,,,,,,,,,,,,,,,,,,,,,,,,,,,,,,,,,,,,,,,,,,,,,,,,,,,,,,,,,,,,,,,,,,,,,,,,,,,,,,,,,,,,,,,,,,,,,,,,,,,,,,,,,,,,,,,,,,,,,,,,,,
0,70,70,92,1,,6064b073d8b83b30f7975c8d,62bbf9f04664875f645cb4bc,2022-06-29_09h06.37.451,Colour_Asymmetry_Pilot,2022.1.3,Win32,60.03842459,62bbe60bf3d75ef465d3e404,,,,,,,,,,,,,,,,,,,,,,,,,,,,,,,,,,,,,,,,,,,,,,,,,,,,,,,,,,,,,,,,,,,,,,,,,,,,,,,,,,,,,,,,,,,,,,,,,,,,,,,,,,,,,,,,,,,,,,,,,,,,,,,,,,,,,,,,,,,,,,,,,,,,,,,,,,,,,,
0,71,71,29,1,,6064b073d8b83b30f7975c8d,62bbf9f04664875f645cb4bc,2022-06-29_09h06.37.451,Colour_Asymmetry_Pilot,2022.1.3,Win32,60.03842459,62bbe60bf3d75ef465d3e404,,,,,,,,,,,,,,,,,,,,,,,,,,,,,,,,,,,,,,,,,,,,,,,,,,,,,,,,,,,,,,,,,,,,,,,,,,,,,,,,,,,,,,,,,,,,,,,,,,,,,,,,,,,,,,,,,,,,,,,,,,,,,,,,,,,,,,,,,,,,,,,,,,,,,,,,,,,,,,
0,72,72,36,1,,6064b073d8b83b30f7975c8d,62bbf9f04664875f645cb4bc,2022-06-29_09h06.37.451,Colour_Asymmetry_Pilot,2022.1.3,Win32,60.03842459,62bbe60bf3d75ef465d3e404,,,,,,,,,,,,,,,,,,,,,,,,,,,,,,,,,,,,,,,,,,,,,,,,,,,,,,,,,,,,,,,,,,,,,,,,,,,,,,,,,,,,,,,,,,,,,,,,,,,,,,,,,,,,,,,,,,,,,,,,,,,,,,,,,,,,,,,,,,,,,,,,,,,,,,,,,,,,,,
0,73,73,4,1,,6064b073d8b83b30f7975c8d,62bbf9f04664875f645cb4bc,2022-06-29_09h06.37.451,Colour_Asymmetry_Pilot,2022.1.3,Win32,60.03842459,62bbe60bf3d75ef465d3e404,,,,,,,,,,,,,,,,,,,,,,,,,,,,,,,,,,,,,,,,,,,,,,,,,,,,,,,,,,,,,,,,,,,,,,,,,,,,,,,,,,,,,,,,,,,,,,,,,,,,,,,,,,,,,,,,,,,,,,,,,,,,,,,,,,,,,,,,,,,,,,,,,,,,,,,,,,,,,,
0,74,74,87,1,,6064b073d8b83b30f7975c8d,62bbf9f04664875f645cb4bc,2022-06-29_09h06.37.451,Colour_Asymmetry_Pilot,2022.1.3,Win32,60.03842459,62bbe60bf3d75ef465d3e404,,,,,,,,,,,,,,,,,,,,,,,,,,,,,,,,,,,,,,,,,,,,,,,,,,,,,,,,,,,,,,,,,,,,,,,,,,,,,,,,,,,,,,,,,,,,,,,,,,,,,,,,,,,,,,,,,,,,,,,,,,,,,,,,,,,,,,,,,,,,,,,,,,,,,,,,,,,,,,
0,75,75,7,1,,6064b073d8b83b30f7975c8d,62bbf9f04664875f645cb4bc,2022-06-29_09h06.37.451,Colour_Asymmetry_Pilot,2022.1.3,Win32,60.03842459,62bbe60bf3d75ef465d3e404,,,,,,,,,,,,,,,,,,,,,,,,,,,,,,,,,,,,,,,,,,,,,,,,,,,,,,,,,,,,,,,,,,,,,,,,,,,,,,,,,,,,,,,,,,,,,,,,,,,,,,,,,,,,,,,,,,,,,,,,,,,,,,,,,,,,,,,,,,,,,,,,,,,,,,,,,,,,,,
0,76,76,1,1,,6064b073d8b83b30f7975c8d,62bbf9f04664875f645cb4bc,2022-06-29_09h06.37.451,Colour_Asymmetry_Pilot,2022.1.3,Win32,60.03842459,62bbe60bf3d75ef465d3e404,,,,,,,,,,,,,,,,,,,,,,,,,,,,,,,,,,,,,,,,,,,,,,,,,,,,,,,,,,,,,,,,,,,,,,,,,,,,,,,,,,,,,,,,,,,,,,,,,,,,,,,,,,,,,,,,,,,,,,,,,,,,,,,,,,,,,,,,,,,,,,,,,,,,,,,,,,,,,,
0,77,77,14,1,,6064b073d8b83b30f7975c8d,62bbf9f04664875f645cb4bc,2022-06-29_09h06.37.451,Colour_Asymmetry_Pilot,2022.1.3,Win32,60.03842459,62bbe60bf3d75ef465d3e404,,,,,,,,,,,,,,,,,,,,,,,,,,,,,,,,,,,,,,,,,,,,,,,,,,,,,,,,,,,,,,,,,,,,,,,,,,,,,,,,,,,,,,,,,,,,,,,,,,,,,,,,,,,,,,,,,,,,,,,,,,,,,,,,,,,,,,,,,,,,,,,,,,,,,,,,,,,,,,
0,78,78,91,1,,6064b073d8b83b30f7975c8d,62bbf9f04664875f645cb4bc,2022-06-29_09h06.37.451,Colour_Asymmetry_Pilot,2022.1.3,Win32,60.03842459,62bbe60bf3d75ef465d3e404,,,,,,,,,,,,,,,,,,,,,,,,,,,,,,,,,,,,,,,,,,,,,,,,,,,,,,,,,,,,,,,,,,,,,,,,,,,,,,,,,,,,,,,,,,,,,,,,,,,,,,,,,,,,,,,,,,,,,,,,,,,,,,,,,,,,,,,,,,,,,,,,,,,,,,,,,,,,,,
0,79,79,75,1,,6064b073d8b83b30f7975c8d,62bbf9f04664875f645cb4bc,2022-06-29_09h06.37.451,Colour_Asymmetry_Pilot,2022.1.3,Win32,60.03842459,62bbe60bf3d75ef465d3e404,,,,,,,,,,,,,,,,,,,,,,,,,,,,,,,,,,,,,,,,,,,,,,,,,,,,,,,,,,,,,,,,,,,,,,,,,,,,,,,,,,,,,,,,,,,,,,,,,,,,,,,,,,,,,,,,,,,,,,,,,,,,,,,,,,,,,,,,,,,,,,,,,,,,,,,,,,,,,,
0,80,80,23,1,,6064b073d8b83b30f7975c8d,62bbf9f04664875f645cb4bc,2022-06-29_09h06.37.451,Colour_Asymmetry_Pilot,2022.1.3,Win32,60.03842459,62bbe60bf3d75ef465d3e404,,,,,,,,,,,,,,,,,,,,,,,,,,,,,,,,,,,,,,,,,,,,,,,,,,,,,,,,,,,,,,,,,,,,,,,,,,,,,,,,,,,,,,,,,,,,,,,,,,,,,,,,,,,,,,,,,,,,,,,,,,,,,,,,,,,,,,,,,,,,,,,,,,,,,,,,,,,,,,
0,81,81,70,1,,6064b073d8b83b30f7975c8d,62bbf9f04664875f645cb4bc,2022-06-29_09h06.37.451,Colour_Asymmetry_Pilot,2022.1.3,Win32,60.03842459,62bbe60bf3d75ef465d3e404,,,,,,,,,,,,,,,,,,,,,,,,,,,,,,,,,,,,,,,,,,,,,,,,,,,,,,,,,,,,,,,,,,,,,,,,,,,,,,,,,,,,,,,,,,,,,,,,,,,,,,,,,,,,,,,,,,,,,,,,,,,,,,,,,,,,,,,,,,,,,,,,,,,,,,,,,,,,,,
0,82,82,15,1,,6064b073d8b83b30f7975c8d,62bbf9f04664875f645cb4bc,2022-06-29_09h06.37.451,Colour_Asymmetry_Pilot,2022.1.3,Win32,60.03842459,62bbe60bf3d75ef465d3e404,,,,,,,,,,,,,,,,,,,,,,,,,,,,,,,,,,,,,,,,,,,,,,,,,,,,,,,,,,,,,,,,,,,,,,,,,,,,,,,,,,,,,,,,,,,,,,,,,,,,,,,,,,,,,,,,,,,,,,,,,,,,,,,,,,,,,,,,,,,,,,,,,,,,,,,,,,,,,,
0,83,83,21,1,,6064b073d8b83b30f7975c8d,62bbf9f04664875f645cb4bc,2022-06-29_09h06.37.451,Colour_Asymmetry_Pilot,2022.1.3,Win32,60.03842459,62bbe60bf3d75ef465d3e404,,,,,,,,,,,,,,,,,,,,,,,,,,,,,,,,,,,,,,,,,,,,,,,,,,,,,,,,,,,,,,,,,,,,,,,,,,,,,,,,,,,,,,,,,,,,,,,,,,,,,,,,,,,,,,,,,,,,,,,,,,,,,,,,,,,,,,,,,,,,,,,,,,,,,,,,,,,,,,
0,84,84,26,1,,6064b073d8b83b30f7975c8d,62bbf9f04664875f645cb4bc,2022-06-29_09h06.37.451,Colour_Asymmetry_Pilot,2022.1.3,Win32,60.03842459,62bbe60bf3d75ef465d3e404,,,,,,,,,,,,,,,,,,,,,,,,,,,,,,,,,,,,,,,,,,,,,,,,,,,,,,,,,,,,,,,,,,,,,,,,,,,,,,,,,,,,,,,,,,,,,,,,,,,,,,,,,,,,,,,,,,,,,,,,,,,,,,,,,,,,,,,,,,,,,,,,,,,,,,,,,,,,,,
0,85,85,16,1,,6064b073d8b83b30f7975c8d,62bbf9f04664875f645cb4bc,2022-06-29_09h06.37.451,Colour_Asymmetry_Pilot,2022.1.3,Win32,60.03842459,62bbe60bf3d75ef465d3e404,,,,,,,,,,,,,,,,,,,,,,,,,,,,,,,,,,,,,,,,,,,,,,,,,,,,,,,,,,,,,,,,,,,,,,,,,,,,,,,,,,,,,,,,,,,,,,,,,,,,,,,,,,,,,,,,,,,,,,,,,,,,,,,,,,,,,,,,,,,,,,,,,,,,,,,,,,,,,,
0,86,86,20,1,,6064b073d8b83b30f7975c8d,62bbf9f04664875f645cb4bc,2022-06-29_09h06.37.451,Colour_Asymmetry_Pilot,2022.1.3,Win32,60.03842459,62bbe60bf3d75ef465d3e404,,,,,,,,,,,,,,,,,,,,,,,,,,,,,,,,,,,,,,,,,,,,,,,,,,,,,,,,,,,,,,,,,,,,,,,,,,,,,,,,,,,,,,,,,,,,,,,,,,,,,,,,,,,,,,,,,,,,,,,,,,,,,,,,,,,,,,,,,,,,,,,,,,,,,,,,,,,,,,
0,87,87,5,1,,6064b073d8b83b30f7975c8d,62bbf9f04664875f645cb4bc,2022-06-29_09h06.37.451,Colour_Asymmetry_Pilot,2022.1.3,Win32,60.03842459,62bbe60bf3d75ef465d3e404,,,,,,,,,,,,,,,,,,,,,,,,,,,,,,,,,,,,,,,,,,,,,,,,,,,,,,,,,,,,,,,,,,,,,,,,,,,,,,,,,,,,,,,,,,,,,,,,,,,,,,,,,,,,,,,,,,,,,,,,,,,,,,,,,,,,,,,,,,,,,,,,,,,,,,,,,,,,,,
0,88,88,71,1,,6064b073d8b83b30f7975c8d,62bbf9f04664875f645cb4bc,2022-06-29_09h06.37.451,Colour_Asymmetry_Pilot,2022.1.3,Win32,60.03842459,62bbe60bf3d75ef465d3e404,,,,,,,,,,,,,,,,,,,,,,,,,,,,,,,,,,,,,,,,,,,,,,,,,,,,,,,,,,,,,,,,,,,,,,,,,,,,,,,,,,,,,,,,,,,,,,,,,,,,,,,,,,,,,,,,,,,,,,,,,,,,,,,,,,,,,,,,,,,,,,,,,,,,,,,,,,,,,,
0,89,89,65,1,,6064b073d8b83b30f7975c8d,62bbf9f04664875f645cb4bc,2022-06-29_09h06.37.451,Colour_Asymmetry_Pilot,2022.1.3,Win32,60.03842459,62bbe60bf3d75ef465d3e404,,,,,,,,,,,,,,,,,,,,,,,,,,,,,,,,,,,,,,,,,,,,,,,,,,,,,,,,,,,,,,,,,,,,,,,,,,,,,,,,,,,,,,,,,,,,,,,,,,,,,,,,,,,,,,,,,,,,,,,,,,,,,,,,,,,,,,,,,,,,,,,,,,,,,,,,,,,,,,
0,90,90,63,1,,6064b073d8b83b30f7975c8d,62bbf9f04664875f645cb4bc,2022-06-29_09h06.37.451,Colour_Asymmetry_Pilot,2022.1.3,Win32,60.03842459,62bbe60bf3d75ef465d3e404,,,,,,,,,,,,,,,,,,,,,,,,,,,,,,,,,,,,,,,,,,,,,,,,,,,,,,,,,,,,,,,,,,,,,,,,,,,,,,,,,,,,,,,,,,,,,,,,,,,,,,,,,,,,,,,,,,,,,,,,,,,,,,,,,,,,,,,,,,,,,,,,,,,,,,,,,,,,,,
0,91,91,22,1,,6064b073d8b83b30f7975c8d,62bbf9f04664875f645cb4bc,2022-06-29_09h06.37.451,Colour_Asymmetry_Pilot,2022.1.3,Win32,60.03842459,62bbe60bf3d75ef465d3e404,,,,,,,,,,,,,,,,,,,,,,,,,,,,,,,,,,,,,,,,,,,,,,,,,,,,,,,,,,,,,,,,,,,,,,,,,,,,,,,,,,,,,,,,,,,,,,,,,,,,,,,,,,,,,,,,,,,,,,,,,,,,,,,,,,,,,,,,,,,,,,,,,,,,,,,,,,,,,,
0,92,92,77,1,,6064b073d8b83b30f7975c8d,62bbf9f04664875f645cb4bc,2022-06-29_09h06.37.451,Colour_Asymmetry_Pilot,2022.1.3,Win32,60.03842459,62bbe60bf3d75ef465d3e404,,,,,,,,,,,,,,,,,,,,,,,,,,,,,,,,,,,,,,,,,,,,,,,,,,,,,,,,,,,,,,,,,,,,,,,,,,,,,,,,,,,,,,,,,,,,,,,,,,,,,,,,,,,,,,,,,,,,,,,,,,,,,,,,,,,,,,,,,,,,,,,,,,,,,,,,,,,,,,
,,,,,,6064b073d8b83b30f7975c8d,62bbf9f04664875f645cb4bc,2022-06-29_09h06.37.451,Colour_Asymmetry_Pilot,2022.1.3,Win32,60.03842459,62bbe60bf3d75ef465d3e404,0,0,0,36,1,threeone,,,,,,,,,,,,,,,,,,,,,,,,,,,,,,,,,,,,,,,,,,,,,,,,,,,,,,,,,,,,,,,,,,,,,,,,,,,,,,,,,,,,,,,,,,,,,,,,,,,,,,,,,,,,,,,,,,,,,,,,,,,,,,,,,,,,,,,,,,,,,,,,,,,,,,,,
,,,,,,6064b073d8b83b30f7975c8d,62bbf9f04664875f645cb4bc,2022-06-29_09h06.37.451,Colour_Asymmetry_Pilot,2022.1.3,Win32,60.03842459,62bbe60bf3d75ef465d3e404,0,1,1,114,1,twoone,,,,,,,,,,,,,,,,,,,,,,,,,,,,,,,,,,,,,,,,,,,,,,,,,,,,,,,,,,,,,,,,,,,,,,,,,,,,,,,,,,,,,,,,,,,,,,,,,,,,,,,,,,,,,,,,,,,,,,,,,,,,,,,,,,,,,,,,,,,,,,,,,,,,,,,,
,,,,,,6064b073d8b83b30f7975c8d,62bbf9f04664875f645cb4bc,2022-06-29_09h06.37.451,Colour_Asymmetry_Pilot,2022.1.3,Win32,60.03842459,62bbe60bf3d75ef465d3e404,0,2,2,64,1,onetwo,,,,,,,,,,,,,,,,,,,,,,,,,,,,,,,,,,,,,,,,,,,,,,,,,,,,,,,,,,,,,,,,,,,,,,,,,,,,,,,,,,,,,,,,,,,,,,,,,,,,,,,,,,,,,,,,,,,,,,,,,,,,,,,,,,,,,,,,,,,,,,,,,,,,,,,,
,,,,,,6064b073d8b83b30f7975c8d,62bbf9f04664875f645cb4bc,2022-06-29_09h06.37.451,Colour_Asymmetry_Pilot,2022.1.3,Win32,60.03842459,62bbe60bf3d75ef465d3e404,0,3,3,2,1,twoone,,,,,,,,,,,,,,,,,,,,,,,,,,,,,,,,,,,,,,,,,,,,,,,,,,,,,,,,,,,,,,,,,,,,,,,,,,,,,,,,,,,,,,,,,,,,,,,,,,,,,,,,,,,,,,,,,,,,,,,,,,,,,,,,,,,,,,,,,,,,,,,,,,,,,,,,
,,,,,,6064b073d8b83b30f7975c8d,62bbf9f04664875f645cb4bc,2022-06-29_09h06.37.451,Colour_Asymmetry_Pilot,2022.1.3,Win32,60.03842459,62bbe60bf3d75ef465d3e404,0,4,4,139,1,twofour,,,,,,,,,,,,,,,,,,,,,,,,,,,,,,,,,,,,,,,,,,,,,,,,,,,,,,,,,,,,,,,,,,,,,,,,,,,,,,,,,,,,,,,,,,,,,,,,,,,,,,,,,,,,,,,,,,,,,,,,,,,,,,,,,,,,,,,,,,,,,,,,,,,,,,,,
,,,,,,6064b073d8b83b30f7975c8d,62bbf9f04664875f645cb4bc,2022-06-29_09h06.37.451,Colour_Asymmetry_Pilot,2022.1.3,Win32,60.03842459,62bbe60bf3d75ef465d3e404,0,5,5,161,1,onethree,,,,,,,,,,,,,,,,,,,,,,,,,,,,,,,,,,,,,,,,,,,,,,,,,,,,,,,,,,,,,,,,,,,,,,,,,,,,,,,,,,,,,,,,,,,,,,,,,,,,,,,,,,,,,,,,,,,,,,,,,,,,,,,,,,,,,,,,,,,,,,,,,,,,,,,,
,,,,,,6064b073d8b83b30f7975c8d,62bbf9f04664875f645cb4bc,2022-06-29_09h06.37.451,Colour_Asymmetry_Pilot,2022.1.3,Win32,60.03842459,62bbe60bf3d75ef465d3e404,0,6,6,159,1,fourthree,,,,,,,,,,,,,,,,,,,,,,,,,,,,,,,,,,,,,,,,,,,,,,,,,,,,,,,,,,,,,,,,,,,,,,,,,,,,,,,,,,,,,,,,,,,,,,,,,,,,,,,,,,,,,,,,,,,,,,,,,,,,,,,,,,,,,,,,,,,,,,,,,,,,,,,,
,,,,,,6064b073d8b83b30f7975c8d,62bbf9f04664875f645cb4bc,2022-06-29_09h06.37.451,Colour_Asymmetry_Pilot,2022.1.3,Win32,60.03842459,62bbe60bf3d75ef465d3e404,0,7,7,97,1,onethree,,,,,,,,,,,,,,,,,,,,,,,,,,,,,,,,,,,,,,,,,,,,,,,,,,,,,,,,,,,,,,,,,,,,,,,,,,,,,,,,,,,,,,,,,,,,,,,,,,,,,,,,,,,,,,,,,,,,,,,,,,,,,,,,,,,,,,,,,,,,,,,,,,,,,,,,
,,,,,,6064b073d8b83b30f7975c8d,62bbf9f04664875f645cb4bc,2022-06-29_09h06.37.451,Colour_Asymmetry_Pilot,2022.1.3,Win32,60.03842459,62bbe60bf3d75ef465d3e404,0,8,8,124,1,threeone,,,,,,,,,,,,,,,,,,,,,,,,,,,,,,,,,,,,,,,,,,,,,,,,,,,,,,,,,,,,,,,,,,,,,,,,,,,,,,,,,,,,,,,,,,,,,,,,,,,,,,,,,,,,,,,,,,,,,,,,,,,,,,,,,,,,,,,,,,,,,,,,,,,,,,,,
,,,,,,6064b073d8b83b30f7975c8d,62bbf9f04664875f645cb4bc,2022-06-29_09h06.37.451,Colour_Asymmetry_Pilot,2022.1.3,Win32,60.03842459,62bbe60bf3d75ef465d3e404,0,9,9,79,1,fourthree,,,,,,,,,,,,,,,,,,,,,,,,,,,,,,,,,,,,,,,,,,,,,,,,,,,,,,,,,,,,,,,,,,,,,,,,,,,,,,,,,,,,,,,,,,,,,,,,,,,,,,,,,,,,,,,,,,,,,,,,,,,,,,,,,,,,,,,,,,,,,,,,,,,,,,,,
,,,,,,6064b073d8b83b30f7975c8d,62bbf9f04664875f645cb4bc,2022-06-29_09h06.37.451,Colour_Asymmetry_Pilot,2022.1.3,Win32,60.03842459,62bbe60bf3d75ef465d3e404,0,10,10,35,1,twofour,,,,,,,,,,,,,,,,,,,,,,,,,,,,,,,,,,,,,,,,,,,,,,,,,,,,,,,,,,,,,,,,,,,,,,,,,,,,,,,,,,,,,,,,,,,,,,,,,,,,,,,,,,,,,,,,,,,,,,,,,,,,,,,,,,,,,,,,,,,,,,,,,,,,,,,,
,,,,,,6064b073d8b83b30f7975c8d,62bbf9f04664875f645cb4bc,2022-06-29_09h06.37.451,Colour_Asymmetry_Pilot,2022.1.3,Win32,60.03842459,62bbe60bf3d75ef465d3e404,0,11,11,88,1,onetwo,,,,,,,,,,,,,,,,,,,,,,,,,,,,,,,,,,,,,,,,,,,,,,,,,,,,,,,,,,,,,,,,,,,,,,,,,,,,,,,,,,,,,,,,,,,,,,,,,,,,,,,,,,,,,,,,,,,,,,,,,,,,,,,,,,,,,,,,,,,,,,,,,,,,,,,,
,,,,,,6064b073d8b83b30f7975c8d,62bbf9f04664875f645cb4bc,2022-06-29_09h06.37.451,Colour_Asymmetry_Pilot,2022.1.3,Win32,60.03842459,62bbe60bf3d75ef465d3e404,0,12,12,60,1,threeone,,,,,,,,,,,,,,,,,,,,,,,,,,,,,,,,,,,,,,,,,,,,,,,,,,,,,,,,,,,,,,,,,,,,,,,,,,,,,,,,,,,,,,,,,,,,,,,,,,,,,,,,,,,,,,,,,,,,,,,,,,,,,,,,,,,,,,,,,,,,,,,,,,,,,,,,
,,,,,,6064b073d8b83b30f7975c8d,62bbf9f04664875f645cb4bc,2022-06-29_09h06.37.451,Colour_Asymmetry_Pilot,2022.1.3,Win32,60.03842459,62bbe60bf3d75ef465d3e404,0,13,13,153,1,onethree,,,,,,,,,,,,,,,,,,,,,,,,,,,,,,,,,,,,,,,,,,,,,,,,,,,,,,,,,,,,,,,,,,,,,,,,,,,,,,,,,,,,,,,,,,,,,,,,,,,,,,,,,,,,,,,,,,,,,,,,,,,,,,,,,,,,,,,,,,,,,,,,,,,,,,,,
,,,,,,6064b073d8b83b30f7975c8d,62bbf9f04664875f645cb4bc,2022-06-29_09h06.37.451,Colour_Asymmetry_Pilot,2022.1.3,Win32,60.03842459,62bbe60bf3d75ef465d3e404,0,14,14,43,1,twofour,,,,,,,,,,,,,,,,,,,,,,,,,,,,,,,,,,,,,,,,,,,,,,,,,,,,,,,,,,,,,,,,,,,,,,,,,,,,,,,,,,,,,,,,,,,,,,,,,,,,,,,,,,,,,,,,,,,,,,,,,,,,,,,,,,,,,,,,,,,,,,,,,,,,,,,,
,,,,,,6064b073d8b83b30f7975c8d,62bbf9f04664875f645cb4bc,2022-06-29_09h06.37.451,Colour_Asymmetry_Pilot,2022.1.3,Win32,60.03842459,62bbe60bf3d75ef465d3e404,0,15,15,20,1,threeone,,,,,,,,,,,,,,,,,,,,,,,,,,,,,,,,,,,,,,,,,,,,,,,,,,,,,,,,,,,,,,,,,,,,,,,,,,,,,,,,,,,,,,,,,,,,,,,,,,,,,,,,,,,,,,,,,,,,,,,,,,,,,,,,,,,,,,,,,,,,,,,,,,,,,,,,
,,,,,,6064b073d8b83b30f7975c8d,62bbf9f04664875f645cb4bc,2022-06-29_09h06.37.451,Colour_Asymmetry_Pilot,2022.1.3,Win32,60.03842459,62bbe60bf3d75ef465d3e404,0,16,16,45,1,threefour,,,,,,,,,,,,,,,,,,,,,,,,,,,,,,,,,,,,,,,,,,,,,,,,,,,,,,,,,,,,,,,,,,,,,,,,,,,,,,,,,,,,,,,,,,,,,,,,,,,,,,,,,,,,,,,,,,,,,,,,,,,,,,,,,,,,,,,,,,,,,,,,,,,,,,,,
,,,,,,6064b073d8b83b30f7975c8d,62bbf9f04664875f645cb4bc,2022-06-29_09h06.37.451,Colour_Asymmetry_Pilot,2022.1.3,Win32,60.03842459,62bbe60bf3d75ef465d3e404,0,17,17,95,1,fourthree,,,,,,,,,,,,,,,,,,,,,,,,,,,,,,,,,,,,,,,,,,,,,,,,,,,,,,,,,,,,,,,,,,,,,,,,,,,,,,,,,,,,,,,,,,,,,,,,,,,,,,,,,,,,,,,,,,,,,,,,,,,,,,,,,,,,,,,,,,,,,,,,,,,,,,,,
,,,,,,6064b073d8b83b30f7975c8d,62bbf9f04664875f645cb4bc,2022-06-29_09h06.37.451,Colour_Asymmetry_Pilot,2022.1.3,Win32,60.03842459,62bbe60bf3d75ef465d3e404,0,18,18,147,1,twofour,,,,,,,,,,,,,,,,,,,,,,,,,,,,,,,,,,,,,,,,,,,,,,,,,,,,,,,,,,,,,,,,,,,,,,,,,,,,,,,,,,,,,,,,,,,,,,,,,,,,,,,,,,,,,,,,,,,,,,,,,,,,,,,,,,,,,,,,,,,,,,,,,,,,,,,,
,,,,,,6064b073d8b83b30f7975c8d,62bbf9f04664875f645cb4bc,2022-06-29_09h06.37.451,Colour_Asymmetry_Pilot,2022.1.3,Win32,60.03842459,62bbe60bf3d75ef465d3e404,0,19,19,83,1,twofour,,,,,,,,,,,,,,,,,,,,,,,,,,,,,,,,,,,,,,,,,,,,,,,,,,,,,,,,,,,,,,,,,,,,,,,,,,,,,,,,,,,,,,,,,,,,,,,,,,,,,,,,,,,,,,,,,,,,,,,,,,,,,,,,,,,,,,,,,,,,,,,,,,,,,,,,
,,,,,,6064b073d8b83b30f7975c8d,62bbf9f04664875f645cb4bc,2022-06-29_09h06.37.451,Colour_Asymmetry_Pilot,2022.1.3,Win32,60.03842459,62bbe60bf3d75ef465d3e404,0,20,20,128,1,onetwo,,,,,,,,,,,,,,,,,,,,,,,,,,,,,,,,,,,,,,,,,,,,,,,,,,,,,,,,,,,,,,,,,,,,,,,,,,,,,,,,,,,,,,,,,,,,,,,,,,,,,,,,,,,,,,,,,,,,,,,,,,,,,,,,,,,,,,,,,,,,,,,,,,,,,,,,
,,,,,,6064b073d8b83b30f7975c8d,62bbf9f04664875f645cb4bc,2022-06-29_09h06.37.451,Colour_Asymmetry_Pilot,2022.1.3,Win32,60.03842459,62bbe60bf3d75ef465d3e404,0,21,21,28,1,threeone,,,,,,,,,,,,,,,,,,,,,,,,,,,,,,,,,,,,,,,,,,,,,,,,,,,,,,,,,,,,,,,,,,,,,,,,,,,,,,,,,,,,,,,,,,,,,,,,,,,,,,,,,,,,,,,,,,,,,,,,,,,,,,,,,,,,,,,,,,,,,,,,,,,,,,,,
,,,,,,6064b073d8b83b30f7975c8d,62bbf9f04664875f645cb4bc,2022-06-29_09h06.37.451,Colour_Asymmetry_Pilot,2022.1.3,Win32,60.03842459,62bbe60bf3d75ef465d3e404,0,22,22,72,1,onetwo,,,,,,,,,,,,,,,,,,,,,,,,,,,,,,,,,,,,,,,,,,,,,,,,,,,,,,,,,,,,,,,,,,,,,,,,,,,,,,,,,,,,,,,,,,,,,,,,,,,,,,,,,,,,,,,,,,,,,,,,,,,,,,,,,,,,,,,,,,,,,,,,,,,,,,,,
,,,,,,6064b073d8b83b30f7975c8d,62bbf9f04664875f645cb4bc,2022-06-29_09h06.37.451,Colour_Asymmetry_Pilot,2022.1.3,Win32,60.03842459,62bbe60bf3d75ef465d3e404,0,23,23,75,1,twofour,,,,,,,,,,,,,,,,,,,,,,,,,,,,,,,,,,,,,,,,,,,,,,,,,,,,,,,,,,,,,,,,,,,,,,,,,,,,,,,,,,,,,,,,,,,,,,,,,,,,,,,,,,,,,,,,,,,,,,,,,,,,,,,,,,,,,,,,,,,,,,,,,,,,,,,,
,,,,,,6064b073d8b83b30f7975c8d,62bbf9f04664875f645cb4bc,2022-06-29_09h06.37.451,Colour_Asymmetry_Pilot,2022.1.3,Win32,60.03842459,62bbe60bf3d75ef465d3e404,0,24,24,151,1,fourthree,,,,,,,,,,,,,,,,,,,,,,,,,,,,,,,,,,,,,,,,,,,,,,,,,,,,,,,,,,,,,,,,,,,,,,,,,,,,,,,,,,,,,,,,,,,,,,,,,,,,,,,,,,,,,,,,,,,,,,,,,,,,,,,,,,,,,,,,,,,,,,,,,,,,,,,,
,,,,,,6064b073d8b83b30f7975c8d,62bbf9f04664875f645cb4bc,2022-06-29_09h06.37.451,Colour_Asymmetry_Pilot,2022.1.3,Win32,60.03842459,62bbe60bf3d75ef465d3e404,0,25,25,149,1,threefour,,,,,,,,,,,,,,,,,,,,,,,,,,,,,,,,,,,,,,,,,,,,,,,,,,,,,,,,,,,,,,,,,,,,,,,,,,,,,,,,,,,,,,,,,,,,,,,,,,,,,,,,,,,,,,,,,,,,,,,,,,,,,,,,,,,,,,,,,,,,,,,,,,,,,,,,
,,,,,,6064b073d8b83b30f7975c8d,62bbf9f04664875f645cb4bc,2022-06-29_09h06.37.451,Colour_Asymmetry_Pilot,2022.1.3,Win32,60.03842459,62bbe60bf3d75ef465d3e404,0,26,26,58,1,twoone,,,,,,,,,,,,,,,,,,,,,,,,,,,,,,,,,,,,,,,,,,,,,,,,,,,,,,,,,,,,,,,,,,,,,,,,,,,,,,,,,,,,,,,,,,,,,,,,,,,,,,,,,,,,,,,,,,,,,,,,,,,,,,,,,,,,,,,,,,,,,,,,,,,,,,,,
,,,,,,6064b073d8b83b30f7975c8d,62bbf9f04664875f645cb4bc,2022-06-29_09h06.37.451,Colour_Asymmetry_Pilot,2022.1.3,Win32,60.03842459,62bbe60bf3d75ef465d3e404,0,27,27,91,1,twofour,,,,,,,,,,,,,,,,,,,,,,,,,,,,,,,,,,,,,,,,,,,,,,,,,,,,,,,,,,,,,,,,,,,,,,,,,,,,,,,,,,,,,,,,,,,,,,,,,,,,,,,,,,,,,,,,,,,,,,,,,,,,,,,,,,,,,,,,,,,,,,,,,,,,,,,,
,,,,,,6064b073d8b83b30f7975c8d,62bbf9f04664875f645cb4bc,2022-06-29_09h06.37.451,Colour_Asymmetry_Pilot,2022.1.3,Win32,60.03842459,62bbe60bf3d75ef465d3e404,0,28,28,48,1,onetwo,,,,,,,,,,,,,,,,,,,,,,,,,,,,,,,,,,,,,,,,,,,,,,,,,,,,,,,,,,,,,,,,,,,,,,,,,,,,,,,,,,,,,,,,,,,,,,,,,,,,,,,,,,,,,,,,,,,,,,,,,,,,,,,,,,,,,,,,,,,,,,,,,,,,,,,,
,,,,,,6064b073d8b83b30f7975c8d,62bbf9f04664875f645cb4bc,2022-06-29_09h06.37.451,Colour_Asymmetry_Pilot,2022.1.3,Win32,60.03842459,62bbe60bf3d75ef465d3e404,0,29,29,123,1,twofour,,,,,,,,,,,,,,,,,,,,,,,,,,,,,,,,,,,,,,,,,,,,,,,,,,,,,,,,,,,,,,,,,,,,,,,,,,,,,,,,,,,,,,,,,,,,,,,,,,,,,,,,,,,,,,,,,,,,,,,,,,,,,,,,,,,,,,,,,,,,,,,,,,,,,,,,
,,,,,,6064b073d8b83b30f7975c8d,62bbf9f04664875f645cb4bc,2022-06-29_09h06.37.451,Colour_Asymmetry_Pilot,2022.1.3,Win32,60.03842459,62bbe60bf3d75ef465d3e404,0,30,30,142,1,fourtwo,,,,,,,,,,,,,,,,,,,,,,,,,,,,,,,,,,,,,,,,,,,,,,,,,,,,,,,,,,,,,,,,,,,,,,,,,,,,,,,,,,,,,,,,,,,,,,,,,,,,,,,,,,,,,,,,,,,,,,,,,,,,,,,,,,,,,,,,,,,,,,,,,,,,,,,,
,,,,,,6064b073d8b83b30f7975c8d,62bbf9f04664875f645cb4bc,2022-06-29_09h06.37.451,Colour_Asymmetry_Pilot,2022.1.3,Win32,60.03842459,62bbe60bf3d75ef465d3e404,0,31,31,8,1,onetwo,,,,,,,,,,,,,,,,,,,,,,,,,,,,,,,,,,,,,,,,,,,,,,,,,,,,,,,,,,,,,,,,,,,,,,,,,,,,,,,,,,,,,,,,,,,,,,,,,,,,,,,,,,,,,,,,,,,,,,,,,,,,,,,,,,,,,,,,,,,,,,,,,,,,,,,,
,,,,,,6064b073d8b83b30f7975c8d,62bbf9f04664875f645cb4bc,2022-06-29_09h06.37.451,Colour_Asymmetry_Pilot,2022.1.3,Win32,60.03842459,62bbe60bf3d75ef465d3e404,0,32,32,101,1,threefour,,,,,,,,,,,,,,,,,,,,,,,,,,,,,,,,,,,,,,,,,,,,,,,,,,,,,,,,,,,,,,,,,,,,,,,,,,,,,,,,,,,,,,,,,,,,,,,,,,,,,,,,,,,,,,,,,,,,,,,,,,,,,,,,,,,,,,,,,,,,,,,,,,,,,,,,
,,,,,,6064b073d8b83b30f7975c8d,62bbf9f04664875f645cb4bc,2022-06-29_09h06.37.451,Colour_Asymmetry_Pilot,2022.1.3,Win32,60.03842459,62bbe60bf3d75ef465d3e404,0,33,33,39,1,fourthree,,,,,,,,,,,,,,,,,,,,,,,,,,,,,,,,,,,,,,,,,,,,,,,,,,,,,,,,,,,,,,,,,,,,,,,,,,,,,,,,,,,,,,,,,,,,,,,,,,,,,,,,,,,,,,,,,,,,,,,,,,,,,,,,,,,,,,,,,,,,,,,,,,,,,,,,
,,,,,,6064b073d8b83b30f7975c8d,62bbf9f04664875f645cb4bc,2022-06-29_09h06.37.451,Colour_Asymmetry_Pilot,2022.1.3,Win32,60.03842459,62bbe60bf3d75ef465d3e404,0,34,34,119,1,fourthree,,,,,,,,,,,,,,,,,,,,,,,,,,,,,,,,,,,,,,,,,,,,,,,,,,,,,,,,,,,,,,,,,,,,,,,,,,,,,,,,,,,,,,,,,,,,,,,,,,,,,,,,,,,,,,,,,,,,,,,,,,,,,,,,,,,,,,,,,,,,,,,,,,,,,,,,
,,,,,,6064b073d8b83b30f7975c8d,62bbf9f04664875f645cb4bc,2022-06-29_09h06.37.451,Colour_Asymmetry_Pilot,2022.1.3,Win32,60.03842459,62bbe60bf3d75ef465d3e404,0,35,35,63,1,fourthree,,,,,,,,,,,,,,,,,,,,,,,,,,,,,,,,,,,,,,,,,,,,,,,,,,,,,,,,,,,,,,,,,,,,,,,,,,,,,,,,,,,,,,,,,,,,,,,,,,,,,,,,,,,,,,,,,,,,,,,,,,,,,,,,,,,,,,,,,,,,,,,,,,,,,,,,
,,,,,,6064b073d8b83b30f7975c8d,62bbf9f04664875f645cb4bc,2022-06-29_09h06.37.451,Colour_Asymmetry_Pilot,2022.1.3,Win32,60.03842459,62bbe60bf3d75ef465d3e404,0,36,36,99,1,twofour,,,,,,,,,,,,,,,,,,,,,,,,,,,,,,,,,,,,,,,,,,,,,,,,,,,,,,,,,,,,,,,,,,,,,,,,,,,,,,,,,,,,,,,,,,,,,,,,,,,,,,,,,,,,,,,,,,,,,,,,,,,,,,,,,,,,,,,,,,,,,,,,,,,,,,,,
,,,,,,6064b073d8b83b30f7975c8d,62bbf9f04664875f645cb4bc,2022-06-29_09h06.37.451,Colour_Asymmetry_Pilot,2022.1.3,Win32,60.03842459,62bbe60bf3d75ef465d3e404,0,37,37,65,1,onethree,,,,,,,,,,,,,,,,,,,,,,,,,,,,,,,,,,,,,,,,,,,,,,,,,,,,,,,,,,,,,,,,,,,,,,,,,,,,,,,,,,,,,,,,,,,,,,,,,,,,,,,,,,,,,,,,,,,,,,,,,,,,,,,,,,,,,,,,,,,,,,,,,,,,,,,,
,,,,,,6064b073d8b83b30f7975c8d,62bbf9f04664875f645cb4bc,2022-06-29_09h06.37.451,Colour_Asymmetry_Pilot,2022.1.3,Win32,60.03842459,62bbe60bf3d75ef465d3e404,0,38,38,59,1,twofour,,,,,,,,,,,,,,,,,,,,,,,,,,,,,,,,,,,,,,,,,,,,,,,,,,,,,,,,,,,,,,,,,,,,,,,,,,,,,,,,,,,,,,,,,,,,,,,,,,,,,,,,,,,,,,,,,,,,,,,,,,,,,,,,,,,,,,,,,,,,,,,,,,,,,,,,
,,,,,,6064b073d8b83b30f7975c8d,62bbf9f04664875f645cb4bc,2022-06-29_09h06.37.451,Colour_Asymmetry_Pilot,2022.1.3,Win32,60.03842459,62bbe60bf3d75ef465d3e404,0,39,39,68,1,threeone,,,,,,,,,,,,,,,,,,,,,,,,,,,,,,,,,,,,,,,,,,,,,,,,,,,,,,,,,,,,,,,,,,,,,,,,,,,,,,,,,,,,,,,,,,,,,,,,,,,,,,,,,,,,,,,,,,,,,,,,,,,,,,,,,,,,,,,,,,,,,,,,,,,,,,,,
,,,,,,6064b073d8b83b30f7975c8d,62bbf9f04664875f645cb4bc,2022-06-29_09h06.37.451,Colour_Asymmetry_Pilot,2022.1.3,Win32,60.03842459,62bbe60bf3d75ef465d3e404,0,40,40,141,1,threefour,,,,,,,,,,,,,,,,,,,,,,,,,,,,,,,,,,,,,,,,,,,,,,,,,,,,,,,,,,,,,,,,,,,,,,,,,,,,,,,,,,,,,,,,,,,,,,,,,,,,,,,,,,,,,,,,,,,,,,,,,,,,,,,,,,,,,,,,,,,,,,,,,,,,,,,,
,,,,,,6064b073d8b83b30f7975c8d,62bbf9f04664875f645cb4bc,2022-06-29_09h06.37.451,Colour_Asymmetry_Pilot,2022.1.3,Win32,60.03842459,62bbe60bf3d75ef465d3e404,0,41,41,70,1,fourtwo,,,,,,,,,,,,,,,,,,,,,,,,,,,,,,,,,,,,,,,,,,,,,,,,,,,,,,,,,,,,,,,,,,,,,,,,,,,,,,,,,,,,,,,,,,,,,,,,,,,,,,,,,,,,,,,,,,,,,,,,,,,,,,,,,,,,,,,,,,,,,,,,,,,,,,,,
,,,,,,6064b073d8b83b30f7975c8d,62bbf9f04664875f645cb4bc,2022-06-29_09h06.37.451,Colour_Asymmetry_Pilot,2022.1.3,Win32,60.03842459,62bbe60bf3d75ef465d3e404,0,42,42,13,1,threefour,,,,,,,,,,,,,,,,,,,,,,,,,,,,,,,,,,,,,,,,,,,,,,,,,,,,,,,,,,,,,,,,,,,,,,,,,,,,,,,,,,,,,,,,,,,,,,,,,,,,,,,,,,,,,,,,,,,,,,,,,,,,,,,,,,,,,,,,,,,,,,,,,,,,,,,,
,,,,,,6064b073d8b83b30f7975c8d,62bbf9f04664875f645cb4bc,2022-06-29_09h06.37.451,Colour_Asymmetry_Pilot,2022.1.3,Win32,60.03842459,62bbe60bf3d75ef465d3e404,0,43,43,11,1,twofour,,,,,,,,,,,,,,,,,,,,,,,,,,,,,,,,,,,,,,,,,,,,,,,,,,,,,,,,,,,,,,,,,,,,,,,,,,,,,,,,,,,,,,,,,,,,,,,,,,,,,,,,,,,,,,,,,,,,,,,,,,,,,,,,,,,,,,,,,,,,,,,,,,,,,,,,
,,,,,,6064b073d8b83b30f7975c8d,62bbf9f04664875f645cb4bc,2022-06-29_09h06.37.451,Colour_Asymmetry_Pilot,2022.1.3,Win32,60.03842459,62bbe60bf3d75ef465d3e404,0,44,44,112,1,onetwo,,,,,,,,,,,,,,,,,,,,,,,,,,,,,,,,,,,,,,,,,,,,,,,,,,,,,,,,,,,,,,,,,,,,,,,,,,,,,,,,,,,,,,,,,,,,,,,,,,,,,,,,,,,,,,,,,,,,,,,,,,,,,,,,,,,,,,,,,,,,,,,,,,,,,,,,
,,,,,,6064b073d8b83b30f7975c8d,62bbf9f04664875f645cb4bc,2022-06-29_09h06.37.451,Colour_Asymmetry_Pilot,2022.1.3,Win32,60.03842459,62bbe60bf3d75ef465d3e404,0,45,45,52,1,threeone,,,,,,,,,,,,,,,,,,,,,,,,,,,,,,,,,,,,,,,,,,,,,,,,,,,,,,,,,,,,,,,,,,,,,,,,,,,,,,,,,,,,,,,,,,,,,,,,,,,,,,,,,,,,,,,,,,,,,,,,,,,,,,,,,,,,,,,,,,,,,,,,,,,,,,,,
,,,,,,6064b073d8b83b30f7975c8d,62bbf9f04664875f645cb4bc,2022-06-29_09h06.37.451,Colour_Asymmetry_Pilot,2022.1.3,Win32,60.03842459,62bbe60bf3d75ef465d3e404,0,46,46,140,1,threeone,,,,,,,,,,,,,,,,,,,,,,,,,,,,,,,,,,,,,,,,,,,,,,,,,,,,,,,,,,,,,,,,,,,,,,,,,,,,,,,,,,,,,,,,,,,,,,,,,,,,,,,,,,,,,,,,,,,,,,,,,,,,,,,,,,,,,,,,,,,,,,,,,,,,,,,,
,,,,,,6064b073d8b83b30f7975c8d,62bbf9f04664875f645cb4bc,2022-06-29_09h06.37.451,Colour_Asymmetry_Pilot,2022.1.3,Win32,60.03842459,62bbe60bf3d75ef465d3e404,0,47,47,6,1,fourtwo,,,,,,,,,,,,,,,,,,,,,,,,,,,,,,,,,,,,,,,,,,,,,,,,,,,,,,,,,,,,,,,,,,,,,,,,,,,,,,,,,,,,,,,,,,,,,,,,,,,,,,,,,,,,,,,,,,,,,,,,,,,,,,,,,,,,,,,,,,,,,,,,,,,,,,,,
,,,,,,6064b073d8b83b30f7975c8d,62bbf9f04664875f645cb4bc,2022-06-29_09h06.37.451,Colour_Asymmetry_Pilot,2022.1.3,Win32,60.03842459,62bbe60bf3d75ef465d3e404,0,48,48,4,1,threeone,,,,,,,,,,,,,,,,,,,,,,,,,,,,,,,,,,,,,,,,,,,,,,,,,,,,,,,,,,,,,,,,,,,,,,,,,,,,,,,,,,,,,,,,,,,,,,,,,,,,,,,,,,,,,,,,,,,,,,,,,,,,,,,,,,,,,,,,,,,,,,,,,,,,,,,,
,,,,,,6064b073d8b83b30f7975c8d,62bbf9f04664875f645cb4bc,2022-06-29_09h06.37.451,Colour_Asymmetry_Pilot,2022.1.3,Win32,60.03842459,62bbe60bf3d75ef465d3e404,0,49,49,117,1,threefour,,,,,,,,,,,,,,,,,,,,,,,,,,,,,,,,,,,,,,,,,,,,,,,,,,,,,,,,,,,,,,,,,,,,,,,,,,,,,,,,,,,,,,,,,,,,,,,,,,,,,,,,,,,,,,,,,,,,,,,,,,,,,,,,,,,,,,,,,,,,,,,,,,,,,,,,
,,,,,,6064b073d8b83b30f7975c8d,62bbf9f04664875f645cb4bc,2022-06-29_09h06.37.451,Colour_Asymmetry_Pilot,2022.1.3,Win32,60.03842459,62bbe60bf3d75ef465d3e404,0,50,50,129,1,onethree,,,,,,,,,,,,,,,,,,,,,,,,,,,,,,,,,,,,,,,,,,,,,,,,,,,,,,,,,,,,,,,,,,,,,,,,,,,,,,,,,,,,,,,,,,,,,,,,,,,,,,,,,,,,,,,,,,,,,,,,,,,,,,,,,,,,,,,,,,,,,,,,,,,,,,,,
,,,,,,6064b073d8b83b30f7975c8d,62bbf9f04664875f645cb4bc,2022-06-29_09h06.37.451,Colour_Asymmetry_Pilot,2022.1.3,Win32,60.03842459,62bbe60bf3d75ef465d3e404,0,51,51,125,1,threefour,,,,,,,,,,,,,,,,,,,,,,,,,,,,,,,,,,,,,,,,,,,,,,,,,,,,,,,,,,,,,,,,,,,,,,,,,,,,,,,,,,,,,,,,,,,,,,,,,,,,,,,,,,,,,,,,,,,,,,,,,,,,,,,,,,,,,,,,,,,,,,,,,,,,,,,,
,,,,,,6064b073d8b83b30f7975c8d,62bbf9f04664875f645cb4bc,2022-06-29_09h06.37.451,Colour_Asymmetry_Pilot,2022.1.3,Win32,60.03842459,62bbe60bf3d75ef465d3e404,0,52,52,17,1,onethree,,,,,,,,,,,,,,,,,,,,,,,,,,,,,,,,,,,,,,,,,,,,,,,,,,,,,,,,,,,,,,,,,,,,,,,,,,,,,,,,,,,,,,,,,,,,,,,,,,,,,,,,,,,,,,,,,,,,,,,,,,,,,,,,,,,,,,,,,,,,,,,,,,,,,,,,
,,,,,,6064b073d8b83b30f7975c8d,62bbf9f04664875f645cb4bc,2022-06-29_09h06.37.451,Colour_Asymmetry_Pilot,2022.1.3,Win32,60.03842459,62bbe60bf3d75ef465d3e404,0,53,53,38,1,fourtwo,,,,,,,,,,,,,,,,,,,,,,,,,,,,,,,,,,,,,,,,,,,,,,,,,,,,,,,,,,,,,,,,,,,,,,,,,,,,,,,,,,,,,,,,,,,,,,,,,,,,,,,,,,,,,,,,,,,,,,,,,,,,,,,,,,,,,,,,,,,,,,,,,,,,,,,,
,,,,,,6064b073d8b83b30f7975c8d,62bbf9f04664875f645cb4bc,2022-06-29_09h06.37.451,Colour_Asymmetry_Pilot,2022.1.3,Win32,60.03842459,62bbe60bf3d75ef465d3e404,0,54,54,156,1,threeone,,,,,,,,,,,,,,,,,,,,,,,,,,,,,,,,,,,,,,,,,,,,,,,,,,,,,,,,,,,,,,,,,,,,,,,,,,,,,,,,,,,,,,,,,,,,,,,,,,,,,,,,,,,,,,,,,,,,,,,,,,,,,,,,,,,,,,,,,,,,,,,,,,,,,,,,
,,,,,,6064b073d8b83b30f7975c8d,62bbf9f04664875f645cb4bc,2022-06-29_09h06.37.451,Colour_Asymmetry_Pilot,2022.1.3,Win32,60.03842459,62bbe60bf3d75ef465d3e404,0,55,55,90,1,twoone,,,,,,,,,,,,,,,,,,,,,,,,,,,,,,,,,,,,,,,,,,,,,,,,,,,,,,,,,,,,,,,,,,,,,,,,,,,,,,,,,,,,,,,,,,,,,,,,,,,,,,,,,,,,,,,,,,,,,,,,,,,,,,,,,,,,,,,,,,,,,,,,,,,,,,,,
,,,,,,6064b073d8b83b30f7975c8d,62bbf9f04664875f645cb4bc,2022-06-29_09h06.37.451,Colour_Asymmetry_Pilot,2022.1.3,Win32,60.03842459,62bbe60bf3d75ef465d3e404,0,56,56,18,1,twoone,,,,,,,,,,,,,,,,,,,,,,,,,,,,,,,,,,,,,,,,,,,,,,,,,,,,,,,,,,,,,,,,,,,,,,,,,,,,,,,,,,,,,,,,,,,,,,,,,,,,,,,,,,,,,,,,,,,,,,,,,,,,,,,,,,,,,,,,,,,,,,,,,,,,,,,,
,,,,,,6064b073d8b83b30f7975c8d,62bbf9f04664875f645cb4bc,2022-06-29_09h06.37.451,Colour_Asymmetry_Pilot,2022.1.3,Win32,60.03842459,62bbe60bf3d75ef465d3e404,0,57,57,154,1,twoone,,,,,,,,,,,,,,,,,,,,,,,,,,,,,,,,,,,,,,,,,,,,,,,,,,,,,,,,,,,,,,,,,,,,,,,,,,,,,,,,,,,,,,,,,,,,,,,,,,,,,,,,,,,,,,,,,,,,,,,,,,,,,,,,,,,,,,,,,,,,,,,,,,,,,,,,
,,,,,,6064b073d8b83b30f7975c8d,62bbf9f04664875f645cb4bc,2022-06-29_09h06.37.451,Colour_Asymmetry_Pilot,2022.1.3,Win32,60.03842459,62bbe60bf3d75ef465d3e404,0,58,58,158,1,fourtwo,,,,,,,,,,,,,,,,,,,,,,,,,,,,,,,,,,,,,,,,,,,,,,,,,,,,,,,,,,,,,,,,,,,,,,,,,,,,,,,,,,,,,,,,,,,,,,,,,,,,,,,,,,,,,,,,,,,,,,,,,,,,,,,,,,,,,,,,,,,,,,,,,,,,,,,,
,,,,,,6064b073d8b83b30f7975c8d,62bbf9f04664875f645cb4bc,2022-06-29_09h06.37.451,Colour_Asymmetry_Pilot,2022.1.3,Win32,60.03842459,62bbe60bf3d75ef465d3e404,0,59,59,136,1,onetwo,,,,,,,,,,,,,,,,,,,,,,,,,,,,,,,,,,,,,,,,,,,,,,,,,,,,,,,,,,,,,,,,,,,,,,,,,,,,,,,,,,,,,,,,,,,,,,,,,,,,,,,,,,,,,,,,,,,,,,,,,,,,,,,,,,,,,,,,,,,,,,,,,,,,,,,,
,,,,,,6064b073d8b83b30f7975c8d,62bbf9f04664875f645cb4bc,2022-06-29_09h06.37.451,Colour_Asymmetry_Pilot,2022.1.3,Win32,60.03842459,62bbe60bf3d75ef465d3e404,0,60,60,122,1,twoone,,,,,,,,,,,,,,,,,,,,,,,,,,,,,,,,,,,,,,,,,,,,,,,,,,,,,,,,,,,,,,,,,,,,,,,,,,,,,,,,,,,,,,,,,,,,,,,,,,,,,,,,,,,,,,,,,,,,,,,,,,,,,,,,,,,,,,,,,,,,,,,,,,,,,,,,
,,,,,,6064b073d8b83b30f7975c8d,62bbf9f04664875f645cb4bc,2022-06-29_09h06.37.451,Colour_Asymmetry_Pilot,2022.1.3,Win32,60.03842459,62bbe60bf3d75ef465d3e404,0,61,61,104,1,onetwo,,,,,,,,,,,,,,,,,,,,,,,,,,,,,,,,,,,,,,,,,,,,,,,,,,,,,,,,,,,,,,,,,,,,,,,,,,,,,,,,,,,,,,,,,,,,,,,,,,,,,,,,,,,,,,,,,,,,,,,,,,,,,,,,,,,,,,,,,,,,,,,,,,,,,,,,
,,,,,,6064b073d8b83b30f7975c8d,62bbf9f04664875f645cb4bc,2022-06-29_09h06.37.451,Colour_Asymmetry_Pilot,2022.1.3,Win32,60.03842459,62bbe60bf3d75ef465d3e404,0,62,62,108,1,threeone,,,,,,,,,,,,,,,,,,,,,,,,,,,,,,,,,,,,,,,,,,,,,,,,,,,,,,,,,,,,,,,,,,,,,,,,,,,,,,,,,,,,,,,,,,,,,,,,,,,,,,,,,,,,,,,,,,,,,,,,,,,,,,,,,,,,,,,,,,,,,,,,,,,,,,,,
,,,,,,6064b073d8b83b30f7975c8d,62bbf9f04664875f645cb4bc,2022-06-29_09h06.37.451,Colour_Asymmetry_Pilot,2022.1.3,Win32,60.03842459,62bbe60bf3d75ef465d3e404,0,63,63,41,1,onethree,,,,,,,,,,,,,,,,,,,,,,,,,,,,,,,,,,,,,,,,,,,,,,,,,,,,,,,,,,,,,,,,,,,,,,,,,,,,,,,,,,,,,,,,,,,,,,,,,,,,,,,,,,,,,,,,,,,,,,,,,,,,,,,,,,,,,,,,,,,,,,,,,,,,,,,,
,,,,,,6064b073d8b83b30f7975c8d,62bbf9f04664875f645cb4bc,2022-06-29_09h06.37.451,Colour_Asymmetry_Pilot,2022.1.3,Win32,60.03842459,62bbe60bf3d75ef465d3e404,0,64,64,113,1,onethree,,,,,,,,,,,,,,,,,,,,,,,,,,,,,,,,,,,,,,,,,,,,,,,,,,,,,,,,,,,,,,,,,,,,,,,,,,,,,,,,,,,,,,,,,,,,,,,,,,,,,,,,,,,,,,,,,,,,,,,,,,,,,,,,,,,,,,,,,,,,,,,,,,,,,,,,
,,,,,,6064b073d8b83b30f7975c8d,62bbf9f04664875f645cb4bc,2022-06-29_09h06.37.451,Colour_Asymmetry_Pilot,2022.1.3,Win32,60.03842459,62bbe60bf3d75ef465d3e404,0,65,65,145,1,onethree,,,,,,,,,,,,,,,,,,,,,,,,,,,,,,,,,,,,,,,,,,,,,,,,,,,,,,,,,,,,,,,,,,,,,,,,,,,,,,,,,,,,,,,,,,,,,,,,,,,,,,,,,,,,,,,,,,,,,,,,,,,,,,,,,,,,,,,,,,,,,,,,,,,,,,,,
,,,,,,6064b073d8b83b30f7975c8d,62bbf9f04664875f645cb4bc,2022-06-29_09h06.37.451,Colour_Asymmetry_Pilot,2022.1.3,Win32,60.03842459,62bbe60bf3d75ef465d3e404,0,66,66,12,1,threeone,,,,,,,,,,,,,,,,,,,,,,,,,,,,,,,,,,,,,,,,,,,,,,,,,,,,,,,,,,,,,,,,,,,,,,,,,,,,,,,,,,,,,,,,,,,,,,,,,,,,,,,,,,,,,,,,,,,,,,,,,,,,,,,,,,,,,,,,,,,,,,,,,,,,,,,,
,,,,,,6064b073d8b83b30f7975c8d,62bbf9f04664875f645cb4bc,2022-06-29_09h06.37.451,Colour_Asymmetry_Pilot,2022.1.3,Win32,60.03842459,62bbe60bf3d75ef465d3e404,0,67,67,74,1,twoone,,,,,,,,,,,,,,,,,,,,,,,,,,,,,,,,,,,,,,,,,,,,,,,,,,,,,,,,,,,,,,,,,,,,,,,,,,,,,,,,,,,,,,,,,,,,,,,,,,,,,,,,,,,,,,,,,,,,,,,,,,,,,,,,,,,,,,,,,,,,,,,,,,,,,,,,
,,,,,,6064b073d8b83b30f7975c8d,62bbf9f04664875f645cb4bc,2022-06-29_09h06.37.451,Colour_Asymmetry_Pilot,2022.1.3,Win32,60.03842459,62bbe60bf3d75ef465d3e404,0,68,68,1,1,onethree,,,,,,,,,,,,,,,,,,,,,,,,,,,,,,,,,,,,,,,,,,,,,,,,,,,,,,,,,,,,,,,,,,,,,,,,,,,,,,,,,,,,,,,,,,,,,,,,,,,,,,,,,,,,,,,,,,,,,,,,,,,,,,,,,,,,,,,,,,,,,,,,,,,,,,,,
,,,,,,6064b073d8b83b30f7975c8d,62bbf9f04664875f645cb4bc,2022-06-29_09h06.37.451,Colour_Asymmetry_Pilot,2022.1.3,Win32,60.03842459,62bbe60bf3d75ef465d3e404,0,69,69,31,1,fourthree,,,,,,,,,,,,,,,,,,,,,,,,,,,,,,,,,,,,,,,,,,,,,,,,,,,,,,,,,,,,,,,,,,,,,,,,,,,,,,,,,,,,,,,,,,,,,,,,,,,,,,,,,,,,,,,,,,,,,,,,,,,,,,,,,,,,,,,,,,,,,,,,,,,,,,,,
,,,,,,6064b073d8b83b30f7975c8d,62bbf9f04664875f645cb4bc,2022-06-29_09h06.37.451,Colour_Asymmetry_Pilot,2022.1.3,Win32,60.03842459,62bbe60bf3d75ef465d3e404,0,70,70,127,1,fourthree,,,,,,,,,,,,,,,,,,,,,,,,,,,,,,,,,,,,,,,,,,,,,,,,,,,,,,,,,,,,,,,,,,,,,,,,,,,,,,,,,,,,,,,,,,,,,,,,,,,,,,,,,,,,,,,,,,,,,,,,,,,,,,,,,,,,,,,,,,,,,,,,,,,,,,,,
,,,,,,6064b073d8b83b30f7975c8d,62bbf9f04664875f645cb4bc,2022-06-29_09h06.37.451,Colour_Asymmetry_Pilot,2022.1.3,Win32,60.03842459,62bbe60bf3d75ef465d3e404,0,71,71,0,1,onetwo,,,,,,,,,,,,,,,,,,,,,,,,,,,,,,,,,,,,,,,,,,,,,,,,,,,,,,,,,,,,,,,,,,,,,,,,,,,,,,,,,,,,,,,,,,,,,,,,,,,,,,,,,,,,,,,,,,,,,,,,,,,,,,,,,,,,,,,,,,,,,,,,,,,,,,,,
,,,,,,6064b073d8b83b30f7975c8d,62bbf9f04664875f645cb4bc,2022-06-29_09h06.37.451,Colour_Asymmetry_Pilot,2022.1.3,Win32,60.03842459,62bbe60bf3d75ef465d3e404,0,72,72,27,1,twofour,,,,,,,,,,,,,,,,,,,,,,,,,,,,,,,,,,,,,,,,,,,,,,,,,,,,,,,,,,,,,,,,,,,,,,,,,,,,,,,,,,,,,,,,,,,,,,,,,,,,,,,,,,,,,,,,,,,,,,,,,,,,,,,,,,,,,,,,,,,,,,,,,,,,,,,,
,,,,,,6064b073d8b83b30f7975c8d,62bbf9f04664875f645cb4bc,2022-06-29_09h06.37.451,Colour_Asymmetry_Pilot,2022.1.3,Win32,60.03842459,62bbe60bf3d75ef465d3e404,0,73,73,152,1,onetwo,,,,,,,,,,,,,,,,,,,,,,,,,,,,,,,,,,,,,,,,,,,,,,,,,,,,,,,,,,,,,,,,,,,,,,,,,,,,,,,,,,,,,,,,,,,,,,,,,,,,,,,,,,,,,,,,,,,,,,,,,,,,,,,,,,,,,,,,,,,,,,,,,,,,,,,,
,,,,,,6064b073d8b83b30f7975c8d,62bbf9f04664875f645cb4bc,2022-06-29_09h06.37.451,Colour_Asymmetry_Pilot,2022.1.3,Win32,60.03842459,62bbe60bf3d75ef465d3e404,0,74,74,69,1,threefour,,,,,,,,,,,,,,,,,,,,,,,,,,,,,,,,,,,,,,,,,,,,,,,,,,,,,,,,,,,,,,,,,,,,,,,,,,,,,,,,,,,,,,,,,,,,,,,,,,,,,,,,,,,,,,,,,,,,,,,,,,,,,,,,,,,,,,,,,,,,,,,,,,,,,,,,
,,,,,,6064b073d8b83b30f7975c8d,62bbf9f04664875f645cb4bc,2022-06-29_09h06.37.451,Colour_Asymmetry_Pilot,2022.1.3,Win32,60.03842459,62bbe60bf3d75ef465d3e404,0,75,75,115,1,twofour,,,,,,,,,,,,,,,,,,,,,,,,,,,,,,,,,,,,,,,,,,,,,,,,,,,,,,,,,,,,,,,,,,,,,,,,,,,,,,,,,,,,,,,,,,,,,,,,,,,,,,,,,,,,,,,,,,,,,,,,,,,,,,,,,,,,,,,,,,,,,,,,,,,,,,,,
,,,,,,6064b073d8b83b30f7975c8d,62bbf9f04664875f645cb4bc,2022-06-29_09h06.37.451,Colour_Asymmetry_Pilot,2022.1.3,Win32,60.03842459,62bbe60bf3d75ef465d3e404,0,76,76,148,1,threeone,,,,,,,,,,,,,,,,,,,,,,,,,,,,,,,,,,,,,,,,,,,,,,,,,,,,,,,,,,,,,,,,,,,,,,,,,,,,,,,,,,,,,,,,,,,,,,,,,,,,,,,,,,,,,,,,,,,,,,,,,,,,,,,,,,,,,,,,,,,,,,,,,,,,,,,,
,,,,,,6064b073d8b83b30f7975c8d,62bbf9f04664875f645cb4bc,2022-06-29_09h06.37.451,Colour_Asymmetry_Pilot,2022.1.3,Win32,60.03842459,62bbe60bf3d75ef465d3e404,0,77,77,54,1,fourtwo,,,,,,,,,,,,,,,,,,,,,,,,,,,,,,,,,,,,,,,,,,,,,,,,,,,,,,,,,,,,,,,,,,,,,,,,,,,,,,,,,,,,,,,,,,,,,,,,,,,,,,,,,,,,,,,,,,,,,,,,,,,,,,,,,,,,,,,,,,,,,,,,,,,,,,,,
,,,,,,6064b073d8b83b30f7975c8d,62bbf9f04664875f645cb4bc,2022-06-29_09h06.37.451,Colour_Asymmetry_Pilot,2022.1.3,Win32,60.03842459,62bbe60bf3d75ef465d3e404,0,78,78,120,1,onetwo,,,,,,,,,,,,,,,,,,,,,,,,,,,,,,,,,,,,,,,,,,,,,,,,,,,,,,,,,,,,,,,,,,,,,,,,,,,,,,,,,,,,,,,,,,,,,,,,,,,,,,,,,,,,,,,,,,,,,,,,,,,,,,,,,,,,,,,,,,,,,,,,,,,,,,,,
,,,,,,6064b073d8b83b30f7975c8d,62bbf9f04664875f645cb4bc,2022-06-29_09h06.37.451,Colour_Asymmetry_Pilot,2022.1.3,Win32,60.03842459,62bbe60bf3d75ef465d3e404,0,79,79,85,1,threefour,,,,,,,,,,,,,,,,,,,,,,,,,,,,,,,,,,,,,,,,,,,,,,,,,,,,,,,,,,,,,,,,,,,,,,,,,,,,,,,,,,,,,,,,,,,,,,,,,,,,,,,,,,,,,,,,,,,,,,,,,,,,,,,,,,,,,,,,,,,,,,,,,,,,,,,,
,,,,,,6064b073d8b83b30f7975c8d,62bbf9f04664875f645cb4bc,2022-06-29_09h06.37.451,Colour_Asymmetry_Pilot,2022.1.3,Win32,60.03842459,62bbe60bf3d75ef465d3e404,0,80,80,98,1,twoone,,,,,,,,,,,,,,,,,,,,,,,,,,,,,,,,,,,,,,,,,,,,,,,,,,,,,,,,,,,,,,,,,,,,,,,,,,,,,,,,,,,,,,,,,,,,,,,,,,,,,,,,,,,,,,,,,,,,,,,,,,,,,,,,,,,,,,,,,,,,,,,,,,,,,,,,
,,,,,,6064b073d8b83b30f7975c8d,62bbf9f04664875f645cb4bc,2022-06-29_09h06.37.451,Colour_Asymmetry_Pilot,2022.1.3,Win32,60.03842459,62bbe60bf3d75ef465d3e404,0,81,81,132,1,threeone,,,,,,,,,,,,,,,,,,,,,,,,,,,,,,,,,,,,,,,,,,,,,,,,,,,,,,,,,,,,,,,,,,,,,,,,,,,,,,,,,,,,,,,,,,,,,,,,,,,,,,,,,,,,,,,,,,,,,,,,,,,,,,,,,,,,,,,,,,,,,,,,,,,,,,,,
,,,,,,6064b073d8b83b30f7975c8d,62bbf9f04664875f645cb4bc,2022-06-29_09h06.37.451,Colour_Asymmetry_Pilot,2022.1.3,Win32,60.03842459,62bbe60bf3d75ef465d3e404,0,82,82,96,1,onetwo,,,,,,,,,,,,,,,,,,,,,,,,,,,,,,,,,,,,,,,,,,,,,,,,,,,,,,,,,,,,,,,,,,,,,,,,,,,,,,,,,,,,,,,,,,,,,,,,,,,,,,,,,,,,,,,,,,,,,,,,,,,,,,,,,,,,,,,,,,,,,,,,,,,,,,,,
,,,,,,6064b073d8b83b30f7975c8d,62bbf9f04664875f645cb4bc,2022-06-29_09h06.37.451,Colour_Asymmetry_Pilot,2022.1.3,Win32,60.03842459,62bbe60bf3d75ef465d3e404,0,83,83,155,1,twofour,,,,,,,,,,,,,,,,,,,,,,,,,,,,,,,,,,,,,,,,,,,,,,,,,,,,,,,,,,,,,,,,,,,,,,,,,,,,,,,,,,,,,,,,,,,,,,,,,,,,,,,,,,,,,,,,,,,,,,,,,,,,,,,,,,,,,,,,,,,,,,,,,,,,,,,,
,,,,,,6064b073d8b83b30f7975c8d,62bbf9f04664875f645cb4bc,2022-06-29_09h06.37.451,Colour_Asymmetry_Pilot,2022.1.3,Win32,60.03842459,62bbe60bf3d75ef465d3e404,0,84,84,23,1,fourthree,,,,,,,,,,,,,,,,,,,,,,,,,,,,,,,,,,,,,,,,,,,,,,,,,,,,,,,,,,,,,,,,,,,,,,,,,,,,,,,,,,,,,,,,,,,,,,,,,,,,,,,,,,,,,,,,,,,,,,,,,,,,,,,,,,,,,,,,,,,,,,,,,,,,,,,,
,,,,,,6064b073d8b83b30f7975c8d,62bbf9f04664875f645cb4bc,2022-06-29_09h06.37.451,Colour_Asymmetry_Pilot,2022.1.3,Win32,60.03842459,62bbe60bf3d75ef465d3e404,0,85,85,134,1,fourtwo,,,,,,,,,,,,,,,,,,,,,,,,,,,,,,,,,,,,,,,,,,,,,,,,,,,,,,,,,,,,,,,,,,,,,,,,,,,,,,,,,,,,,,,,,,,,,,,,,,,,,,,,,,,,,,,,,,,,,,,,,,,,,,,,,,,,,,,,,,,,,,,,,,,,,,,,
,,,,,,6064b073d8b83b30f7975c8d,62bbf9f04664875f645cb4bc,2022-06-29_09h06.37.451,Colour_Asymmetry_Pilot,2022.1.3,Win32,60.03842459,62bbe60bf3d75ef465d3e404,0,86,86,109,1,threefour,,,,,,,,,,,,,,,,,,,,,,,,,,,,,,,,,,,,,,,,,,,,,,,,,,,,,,,,,,,,,,,,,,,,,,,,,,,,,,,,,,,,,,,,,,,,,,,,,,,,,,,,,,,,,,,,,,,,,,,,,,,,,,,,,,,,,,,,,,,,,,,,,,,,,,,,
,,,,,,6064b073d8b83b30f7975c8d,62bbf9f04664875f645cb4bc,2022-06-29_09h06.37.451,Colour_Asymmetry_Pilot,2022.1.3,Win32,60.03842459,62bbe60bf3d75ef465d3e404,0,87,87,55,1,fourthree,,,,,,,,,,,,,,,,,,,,,,,,,,,,,,,,,,,,,,,,,,,,,,,,,,,,,,,,,,,,,,,,,,,,,,,,,,,,,,,,,,,,,,,,,,,,,,,,,,,,,,,,,,,,,,,,,,,,,,,,,,,,,,,,,,,,,,,,,,,,,,,,,,,,,,,,
,,,,,,6064b073d8b83b30f7975c8d,62bbf9f04664875f645cb4bc,2022-06-29_09h06.37.451,Colour_Asymmetry_Pilot,2022.1.3,Win32,60.03842459,62bbe60bf3d75ef465d3e404,0,88,88,61,1,threefour,,,,,,,,,,,,,,,,,,,,,,,,,,,,,,,,,,,,,,,,,,,,,,,,,,,,,,,,,,,,,,,,,,,,,,,,,,,,,,,,,,,,,,,,,,,,,,,,,,,,,,,,,,,,,,,,,,,,,,,,,,,,,,,,,,,,,,,,,,,,,,,,,,,,,,,,
,,,,,,6064b073d8b83b30f7975c8d,62bbf9f04664875f645cb4bc,2022-06-29_09h06.37.451,Colour_Asymmetry_Pilot,2022.1.3,Win32,60.03842459,62bbe60bf3d75ef465d3e404,0,89,89,92,1,threeone,,,,,,,,,,,,,,,,,,,,,,,,,,,,,,,,,,,,,,,,,,,,,,,,,,,,,,,,,,,,,,,,,,,,,,,,,,,,,,,,,,,,,,,,,,,,,,,,,,,,,,,,,,,,,,,,,,,,,,,,,,,,,,,,,,,,,,,,,,,,,,,,,,,,,,,,
,,,,,,6064b073d8b83b30f7975c8d,62bbf9f04664875f645cb4bc,2022-06-29_09h06.37.451,Colour_Asymmetry_Pilot,2022.1.3,Win32,60.03842459,62bbe60bf3d75ef465d3e404,0,90,90,103,1,fourthree,,,,,,,,,,,,,,,,,,,,,,,,,,,,,,,,,,,,,,,,,,,,,,,,,,,,,,,,,,,,,,,,,,,,,,,,,,,,,,,,,,,,,,,,,,,,,,,,,,,,,,,,,,,,,,,,,,,,,,,,,,,,,,,,,,,,,,,,,,,,,,,,,,,,,,,,
,,,,,,6064b073d8b83b30f7975c8d,62bbf9f04664875f645cb4bc,2022-06-29_09h06.37.451,Colour_Asymmetry_Pilot,2022.1.3,Win32,60.03842459,62bbe60bf3d75ef465d3e404,0,91,91,102,1,fourtwo,,,,,,,,,,,,,,,,,,,,,,,,,,,,,,,,,,,,,,,,,,,,,,,,,,,,,,,,,,,,,,,,,,,,,,,,,,,,,,,,,,,,,,,,,,,,,,,,,,,,,,,,,,,,,,,,,,,,,,,,,,,,,,,,,,,,,,,,,,,,,,,,,,,,,,,,
,,,,,,6064b073d8b83b30f7975c8d,62bbf9f04664875f645cb4bc,2022-06-29_09h06.37.451,Colour_Asymmetry_Pilot,2022.1.3,Win32,60.03842459,62bbe60bf3d75ef465d3e404,0,92,92,42,1,twoone,,,,,,,,,,,,,,,,,,,,,,,,,,,,,,,,,,,,,,,,,,,,,,,,,,,,,,,,,,,,,,,,,,,,,,,,,,,,,,,,,,,,,,,,,,,,,,,,,,,,,,,,,,,,,,,,,,,,,,,,,,,,,,,,,,,,,,,,,,,,,,,,,,,,,,,,
,,,,,,6064b073d8b83b30f7975c8d,62bbf9f04664875f645cb4bc,2022-06-29_09h06.37.451,Colour_Asymmetry_Pilot,2022.1.3,Win32,60.03842459,62bbe60bf3d75ef465d3e404,0,93,93,3,1,twofour,,,,,,,,,,,,,,,,,,,,,,,,,,,,,,,,,,,,,,,,,,,,,,,,,,,,,,,,,,,,,,,,,,,,,,,,,,,,,,,,,,,,,,,,,,,,,,,,,,,,,,,,,,,,,,,,,,,,,,,,,,,,,,,,,,,,,,,,,,,,,,,,,,,,,,,,
,,,,,,6064b073d8b83b30f7975c8d,62bbf9f04664875f645cb4bc,2022-06-29_09h06.37.451,Colour_Asymmetry_Pilot,2022.1.3,Win32,60.03842459,62bbe60bf3d75ef465d3e404,0,94,94,111,1,fourthree,,,,,,,,,,,,,,,,,,,,,,,,,,,,,,,,,,,,,,,,,,,,,,,,,,,,,,,,,,,,,,,,,,,,,,,,,,,,,,,,,,,,,,,,,,,,,,,,,,,,,,,,,,,,,,,,,,,,,,,,,,,,,,,,,,,,,,,,,,,,,,,,,,,,,,,,
,,,,,,6064b073d8b83b30f7975c8d,62bbf9f04664875f645cb4bc,2022-06-29_09h06.37.451,Colour_Asymmetry_Pilot,2022.1.3,Win32,60.03842459,62bbe60bf3d75ef465d3e404,0,95,95,126,1,fourtwo,,,,,,,,,,,,,,,,,,,,,,,,,,,,,,,,,,,,,,,,,,,,,,,,,,,,,,,,,,,,,,,,,,,,,,,,,,,,,,,,,,,,,,,,,,,,,,,,,,,,,,,,,,,,,,,,,,,,,,,,,,,,,,,,,,,,,,,,,,,,,,,,,,,,,,,,
,,,,,,6064b073d8b83b30f7975c8d,62bbf9f04664875f645cb4bc,2022-06-29_09h06.37.451,Colour_Asymmetry_Pilot,2022.1.3,Win32,60.03842459,62bbe60bf3d75ef465d3e404,0,96,96,19,1,twofour,,,,,,,,,,,,,,,,,,,,,,,,,,,,,,,,,,,,,,,,,,,,,,,,,,,,,,,,,,,,,,,,,,,,,,,,,,,,,,,,,,,,,,,,,,,,,,,,,,,,,,,,,,,,,,,,,,,,,,,,,,,,,,,,,,,,,,,,,,,,,,,,,,,,,,,,
,,,,,,6064b073d8b83b30f7975c8d,62bbf9f04664875f645cb4bc,2022-06-29_09h06.37.451,Colour_Asymmetry_Pilot,2022.1.3,Win32,60.03842459,62bbe60bf3d75ef465d3e404,0,97,97,66,1,twoone,,,,,,,,,,,,,,,,,,,,,,,,,,,,,,,,,,,,,,,,,,,,,,,,,,,,,,,,,,,,,,,,,,,,,,,,,,,,,,,,,,,,,,,,,,,,,,,,,,,,,,,,,,,,,,,,,,,,,,,,,,,,,,,,,,,,,,,,,,,,,,,,,,,,,,,,
,,,,,,6064b073d8b83b30f7975c8d,62bbf9f04664875f645cb4bc,2022-06-29_09h06.37.451,Colour_Asymmetry_Pilot,2022.1.3,Win32,60.03842459,62bbe60bf3d75ef465d3e404,0,98,98,49,1,onethree,,,,,,,,,,,,,,,,,,,,,,,,,,,,,,,,,,,,,,,,,,,,,,,,,,,,,,,,,,,,,,,,,,,,,,,,,,,,,,,,,,,,,,,,,,,,,,,,,,,,,,,,,,,,,,,,,,,,,,,,,,,,,,,,,,,,,,,,,,,,,,,,,,,,,,,,
,,,,,,6064b073d8b83b30f7975c8d,62bbf9f04664875f645cb4bc,2022-06-29_09h06.37.451,Colour_Asymmetry_Pilot,2022.1.3,Win32,60.03842459,62bbe60bf3d75ef465d3e404,0,99,99,22,1,fourtwo,,,,,,,,,,,,,,,,,,,,,,,,,,,,,,,,,,,,,,,,,,,,,,,,,,,,,,,,,,,,,,,,,,,,,,,,,,,,,,,,,,,,,,,,,,,,,,,,,,,,,,,,,,,,,,,,,,,,,,,,,,,,,,,,,,,,,,,,,,,,,,,,,,,,,,,,
,,,,,,6064b073d8b83b30f7975c8d,62bbf9f04664875f645cb4bc,2022-06-29_09h06.37.451,Colour_Asymmetry_Pilot,2022.1.3,Win32,60.03842459,62bbe60bf3d75ef465d3e404,0,100,100,26,1,twoone,,,,,,,,,,,,,,,,,,,,,,,,,,,,,,,,,,,,,,,,,,,,,,,,,,,,,,,,,,,,,,,,,,,,,,,,,,,,,,,,,,,,,,,,,,,,,,,,,,,,,,,,,,,,,,,,,,,,,,,,,,,,,,,,,,,,,,,,,,,,,,,,,,,,,,,,
,,,,,,6064b073d8b83b30f7975c8d,62bbf9f04664875f645cb4bc,2022-06-29_09h06.37.451,Colour_Asymmetry_Pilot,2022.1.3,Win32,60.03842459,62bbe60bf3d75ef465d3e404,0,101,101,143,1,fourthree,,,,,,,,,,,,,,,,,,,,,,,,,,,,,,,,,,,,,,,,,,,,,,,,,,,,,,,,,,,,,,,,,,,,,,,,,,,,,,,,,,,,,,,,,,,,,,,,,,,,,,,,,,,,,,,,,,,,,,,,,,,,,,,,,,,,,,,,,,,,,,,,,,,,,,,,
,,,,,,6064b073d8b83b30f7975c8d,62bbf9f04664875f645cb4bc,2022-06-29_09h06.37.451,Colour_Asymmetry_Pilot,2022.1.3,Win32,60.03842459,62bbe60bf3d75ef465d3e404,0,102,102,86,1,fourtwo,,,,,,,,,,,,,,,,,,,,,,,,,,,,,,,,,,,,,,,,,,,,,,,,,,,,,,,,,,,,,,,,,,,,,,,,,,,,,,,,,,,,,,,,,,,,,,,,,,,,,,,,,,,,,,,,,,,,,,,,,,,,,,,,,,,,,,,,,,,,,,,,,,,,,,,,
,,,,,,6064b073d8b83b30f7975c8d,62bbf9f04664875f645cb4bc,2022-06-29_09h06.37.451,Colour_Asymmetry_Pilot,2022.1.3,Win32,60.03842459,62bbe60bf3d75ef465d3e404,0,103,103,77,1,threefour,,,,,,,,,,,,,,,,,,,,,,,,,,,,,,,,,,,,,,,,,,,,,,,,,,,,,,,,,,,,,,,,,,,,,,,,,,,,,,,,,,,,,,,,,,,,,,,,,,,,,,,,,,,,,,,,,,,,,,,,,,,,,,,,,,,,,,,,,,,,,,,,,,,,,,,,
,,,,,,6064b073d8b83b30f7975c8d,62bbf9f04664875f645cb4bc,2022-06-29_09h06.37.451,Colour_Asymmetry_Pilot,2022.1.3,Win32,60.03842459,62bbe60bf3d75ef465d3e404,0,104,104,84,1,threeone,,,,,,,,,,,,,,,,,,,,,,,,,,,,,,,,,,,,,,,,,,,,,,,,,,,,,,,,,,,,,,,,,,,,,,,,,,,,,,,,,,,,,,,,,,,,,,,,,,,,,,,,,,,,,,,,,,,,,,,,,,,,,,,,,,,,,,,,,,,,,,,,,,,,,,,,
,,,,,,6064b073d8b83b30f7975c8d,62bbf9f04664875f645cb4bc,2022-06-29_09h06.37.451,Colour_Asymmetry_Pilot,2022.1.3,Win32,60.03842459,62bbe60bf3d75ef465d3e404,0,105,105,94,1,fourtwo,,,,,,,,,,,,,,,,,,,,,,,,,,,,,,,,,,,,,,,,,,,,,,,,,,,,,,,,,,,,,,,,,,,,,,,,,,,,,,,,,,,,,,,,,,,,,,,,,,,,,,,,,,,,,,,,,,,,,,,,,,,,,,,,,,,,,,,,,,,,,,,,,,,,,,,,
,,,,,,6064b073d8b83b30f7975c8d,62bbf9f04664875f645cb4bc,2022-06-29_09h06.37.451,Colour_Asymmetry_Pilot,2022.1.3,Win32,60.03842459,62bbe60bf3d75ef465d3e404,0,106,106,157,1,threefour,,,,,,,,,,,,,,,,,,,,,,,,,,,,,,,,,,,,,,,,,,,,,,,,,,,,,,,,,,,,,,,,,,,,,,,,,,,,,,,,,,,,,,,,,,,,,,,,,,,,,,,,,,,,,,,,,,,,,,,,,,,,,,,,,,,,,,,,,,,,,,,,,,,,,,,,
,,,,,,6064b073d8b83b30f7975c8d,62bbf9f04664875f645cb4bc,2022-06-29_09h06.37.451,Colour_Asymmetry_Pilot,2022.1.3,Win32,60.03842459,62bbe60bf3d75ef465d3e404,0,107,107,5,1,threefour,,,,,,,,,,,,,,,,,,,,,,,,,,,,,,,,,,,,,,,,,,,,,,,,,,,,,,,,,,,,,,,,,,,,,,,,,,,,,,,,,,,,,,,,,,,,,,,,,,,,,,,,,,,,,,,,,,,,,,,,,,,,,,,,,,,,,,,,,,,,,,,,,,,,,,,,
,,,,,,6064b073d8b83b30f7975c8d,62bbf9f04664875f645cb4bc,2022-06-29_09h06.37.451,Colour_Asymmetry_Pilot,2022.1.3,Win32,60.03842459,62bbe60bf3d75ef465d3e404,0,108,108,7,1,fourthree,,,,,,,,,,,,,,,,,,,,,,,,,,,,,,,,,,,,,,,,,,,,,,,,,,,,,,,,,,,,,,,,,,,,,,,,,,,,,,,,,,,,,,,,,,,,,,,,,,,,,,,,,,,,,,,,,,,,,,,,,,,,,,,,,,,,,,,,,,,,,,,,,,,,,,,,
,,,,,,6064b073d8b83b30f7975c8d,62bbf9f04664875f645cb4bc,2022-06-29_09h06.37.451,Colour_Asymmetry_Pilot,2022.1.3,Win32,60.03842459,62bbe60bf3d75ef465d3e404,0,109,109,150,1,fourtwo,,,,,,,,,,,,,,,,,,,,,,,,,,,,,,,,,,,,,,,,,,,,,,,,,,,,,,,,,,,,,,,,,,,,,,,,,,,,,,,,,,,,,,,,,,,,,,,,,,,,,,,,,,,,,,,,,,,,,,,,,,,,,,,,,,,,,,,,,,,,,,,,,,,,,,,,
,,,,,,6064b073d8b83b30f7975c8d,62bbf9f04664875f645cb4bc,2022-06-29_09h06.37.451,Colour_Asymmetry_Pilot,2022.1.3,Win32,60.03842459,62bbe60bf3d75ef465d3e404,0,110,110,33,1,onethree,,,,,,,,,,,,,,,,,,,,,,,,,,,,,,,,,,,,,,,,,,,,,,,,,,,,,,,,,,,,,,,,,,,,,,,,,,,,,,,,,,,,,,,,,,,,,,,,,,,,,,,,,,,,,,,,,,,,,,,,,,,,,,,,,,,,,,,,,,,,,,,,,,,,,,,,
,,,,,,6064b073d8b83b30f7975c8d,62bbf9f04664875f645cb4bc,2022-06-29_09h06.37.451,Colour_Asymmetry_Pilot,2022.1.3,Win32,60.03842459,62bbe60bf3d75ef465d3e404,0,111,111,82,1,twoone,,,,,,,,,,,,,,,,,,,,,,,,,,,,,,,,,,,,,,,,,,,,,,,,,,,,,,,,,,,,,,,,,,,,,,,,,,,,,,,,,,,,,,,,,,,,,,,,,,,,,,,,,,,,,,,,,,,,,,,,,,,,,,,,,,,,,,,,,,,,,,,,,,,,,,,,
,,,,,,6064b073d8b83b30f7975c8d,62bbf9f04664875f645cb4bc,2022-06-29_09h06.37.451,Colour_Asymmetry_Pilot,2022.1.3,Win32,60.03842459,62bbe60bf3d75ef465d3e404,0,112,112,50,1,twoone,,,,,,,,,,,,,,,,,,,,,,,,,,,,,,,,,,,,,,,,,,,,,,,,,,,,,,,,,,,,,,,,,,,,,,,,,,,,,,,,,,,,,,,,,,,,,,,,,,,,,,,,,,,,,,,,,,,,,,,,,,,,,,,,,,,,,,,,,,,,,,,,,,,,,,,,
,,,,,,6064b073d8b83b30f7975c8d,62bbf9f04664875f645cb4bc,2022-06-29_09h06.37.451,Colour_Asymmetry_Pilot,2022.1.3,Win32,60.03842459,62bbe60bf3d75ef465d3e404,0,113,113,24,1,onetwo,,,,,,,,,,,,,,,,,,,,,,,,,,,,,,,,,,,,,,,,,,,,,,,,,,,,,,,,,,,,,,,,,,,,,,,,,,,,,,,,,,,,,,,,,,,,,,,,,,,,,,,,,,,,,,,,,,,,,,,,,,,,,,,,,,,,,,,,,,,,,,,,,,,,,,,,
,,,,,,6064b073d8b83b30f7975c8d,62bbf9f04664875f645cb4bc,2022-06-29_09h06.37.451,Colour_Asymmetry_Pilot,2022.1.3,Win32,60.03842459,62bbe60bf3d75ef465d3e404,0,114,114,76,1,threeone,,,,,,,,,,,,,,,,,,,,,,,,,,,,,,,,,,,,,,,,,,,,,,,,,,,,,,,,,,,,,,,,,,,,,,,,,,,,,,,,,,,,,,,,,,,,,,,,,,,,,,,,,,,,,,,,,,,,,,,,,,,,,,,,,,,,,,,,,,,,,,,,,,,,,,,,
,,,,,,6064b073d8b83b30f7975c8d,62bbf9f04664875f645cb4bc,2022-06-29_09h06.37.451,Colour_Asymmetry_Pilot,2022.1.3,Win32,60.03842459,62bbe60bf3d75ef465d3e404,0,115,115,116,1,threeone,,,,,,,,,,,,,,,,,,,,,,,,,,,,,,,,,,,,,,,,,,,,,,,,,,,,,,,,,,,,,,,,,,,,,,,,,,,,,,,,,,,,,,,,,,,,,,,,,,,,,,,,,,,,,,,,,,,,,,,,,,,,,,,,,,,,,,,,,,,,,,,,,,,,,,,,
,,,,,,6064b073d8b83b30f7975c8d,62bbf9f04664875f645cb4bc,2022-06-29_09h06.37.451,Colour_Asymmetry_Pilot,2022.1.3,Win32,60.03842459,62bbe60bf3d75ef465d3e404,0,116,116,130,1,twoone,,,,,,,,,,,,,,,,,,,,,,,,,,,,,,,,,,,,,,,,,,,,,,,,,,,,,,,,,,,,,,,,,,,,,,,,,,,,,,,,,,,,,,,,,,,,,,,,,,,,,,,,,,,,,,,,,,,,,,,,,,,,,,,,,,,,,,,,,,,,,,,,,,,,,,,,
,,,,,,6064b073d8b83b30f7975c8d,62bbf9f04664875f645cb4bc,2022-06-29_09h06.37.451,Colour_Asymmetry_Pilot,2022.1.3,Win32,60.03842459,62bbe60bf3d75ef465d3e404,0,117,117,131,1,twofour,,,,,,,,,,,,,,,,,,,,,,,,,,,,,,,,,,,,,,,,,,,,,,,,,,,,,,,,,,,,,,,,,,,,,,,,,,,,,,,,,,,,,,,,,,,,,,,,,,,,,,,,,,,,,,,,,,,,,,,,,,,,,,,,,,,,,,,,,,,,,,,,,,,,,,,,
,,,,,,6064b073d8b83b30f7975c8d,62bbf9f04664875f645cb4bc,2022-06-29_09h06.37.451,Colour_Asymmetry_Pilot,2022.1.3,Win32,60.03842459,62bbe60bf3d75ef465d3e404,0,118,118,51,1,twofour,,,,,,,,,,,,,,,,,,,,,,,,,,,,,,,,,,,,,,,,,,,,,,,,,,,,,,,,,,,,,,,,,,,,,,,,,,,,,,,,,,,,,,,,,,,,,,,,,,,,,,,,,,,,,,,,,,,,,,,,,,,,,,,,,,,,,,,,,,,,,,,,,,,,,,,,
,,,,,,6064b073d8b83b30f7975c8d,62bbf9f04664875f645cb4bc,2022-06-29_09h06.37.451,Colour_Asymmetry_Pilot,2022.1.3,Win32,60.03842459,62bbe60bf3d75ef465d3e404,0,119,119,135,1,fourthree,,,,,,,,,,,,,,,,,,,,,,,,,,,,,,,,,,,,,,,,,,,,,,,,,,,,,,,,,,,,,,,,,,,,,,,,,,,,,,,,,,,,,,,,,,,,,,,,,,,,,,,,,,,,,,,,,,,,,,,,,,,,,,,,,,,,,,,,,,,,,,,,,,,,,,,,
,,,,,,6064b073d8b83b30f7975c8d,62bbf9f04664875f645cb4bc,2022-06-29_09h06.37.451,Colour_Asymmetry_Pilot,2022.1.3,Win32,60.03842459,62bbe60bf3d75ef465d3e404,0,120,120,29,1,threefour,,,,,,,,,,,,,,,,,,,,,,,,,,,,,,,,,,,,,,,,,,,,,,,,,,,,,,,,,,,,,,,,,,,,,,,,,,,,,,,,,,,,,,,,,,,,,,,,,,,,,,,,,,,,,,,,,,,,,,,,,,,,,,,,,,,,,,,,,,,,,,,,,,,,,,,,
,,,,,,6064b073d8b83b30f7975c8d,62bbf9f04664875f645cb4bc,2022-06-29_09h06.37.451,Colour_Asymmetry_Pilot,2022.1.3,Win32,60.03842459,62bbe60bf3d75ef465d3e404,0,121,121,30,1,fourtwo,,,,,,,,,,,,,,,,,,,,,,,,,,,,,,,,,,,,,,,,,,,,,,,,,,,,,,,,,,,,,,,,,,,,,,,,,,,,,,,,,,,,,,,,,,,,,,,,,,,,,,,,,,,,,,,,,,,,,,,,,,,,,,,,,,,,,,,,,,,,,,,,,,,,,,,,
,,,,,,6064b073d8b83b30f7975c8d,62bbf9f04664875f645cb4bc,2022-06-29_09h06.37.451,Colour_Asymmetry_Pilot,2022.1.3,Win32,60.03842459,62bbe60bf3d75ef465d3e404,0,122,122,106,1,twoone,,,,,,,,,,,,,,,,,,,,,,,,,,,,,,,,,,,,,,,,,,,,,,,,,,,,,,,,,,,,,,,,,,,,,,,,,,,,,,,,,,,,,,,,,,,,,,,,,,,,,,,,,,,,,,,,,,,,,,,,,,,,,,,,,,,,,,,,,,,,,,,,,,,,,,,,
,,,,,,6064b073d8b83b30f7975c8d,62bbf9f04664875f645cb4bc,2022-06-29_09h06.37.451,Colour_Asymmetry_Pilot,2022.1.3,Win32,60.03842459,62bbe60bf3d75ef465d3e404,0,123,123,47,1,fourthree,,,,,,,,,,,,,,,,,,,,,,,,,,,,,,,,,,,,,,,,,,,,,,,,,,,,,,,,,,,,,,,,,,,,,,,,,,,,,,,,,,,,,,,,,,,,,,,,,,,,,,,,,,,,,,,,,,,,,,,,,,,,,,,,,,,,,,,,,,,,,,,,,,,,,,,,
,,,,,,6064b073d8b83b30f7975c8d,62bbf9f04664875f645cb4bc,2022-06-29_09h06.37.451,Colour_Asymmetry_Pilot,2022.1.3,Win32,60.03842459,62bbe60bf3d75ef465d3e404,0,124,124,80,1,onetwo,,,,,,,,,,,,,,,,,,,,,,,,,,,,,,,,,,,,,,,,,,,,,,,,,,,,,,,,,,,,,,,,,,,,,,,,,,,,,,,,,,,,,,,,,,,,,,,,,,,,,,,,,,,,,,,,,,,,,,,,,,,,,,,,,,,,,,,,,,,,,,,,,,,,,,,,
,,,,,,6064b073d8b83b30f7975c8d,62bbf9f04664875f645cb4bc,2022-06-29_09h06.37.451,Colour_Asymmetry_Pilot,2022.1.3,Win32,60.03842459,62bbe60bf3d75ef465d3e404,0,125,125,146,1,twoone,,,,,,,,,,,,,,,,,,,,,,,,,,,,,,,,,,,,,,,,,,,,,,,,,,,,,,,,,,,,,,,,,,,,,,,,,,,,,,,,,,,,,,,,,,,,,,,,,,,,,,,,,,,,,,,,,,,,,,,,,,,,,,,,,,,,,,,,,,,,,,,,,,,,,,,,
,,,,,,6064b073d8b83b30f7975c8d,62bbf9f04664875f645cb4bc,2022-06-29_09h06.37.451,Colour_Asymmetry_Pilot,2022.1.3,Win32,60.03842459,62bbe60bf3d75ef465d3e404,0,126,126,21,1,threefour,,,,,,,,,,,,,,,,,,,,,,,,,,,,,,,,,,,,,,,,,,,,,,,,,,,,,,,,,,,,,,,,,,,,,,,,,,,,,,,,,,,,,,,,,,,,,,,,,,,,,,,,,,,,,,,,,,,,,,,,,,,,,,,,,,,,,,,,,,,,,,,,,,,,,,,,
,,,,,,6064b073d8b83b30f7975c8d,62bbf9f04664875f645cb4bc,2022-06-29_09h06.37.451,Colour_Asymmetry_Pilot,2022.1.3,Win32,60.03842459,62bbe60bf3d75ef465d3e404,0,127,127,73,1,onethree,,,,,,,,,,,,,,,,,,,,,,,,,,,,,,,,,,,,,,,,,,,,,,,,,,,,,,,,,,,,,,,,,,,,,,,,,,,,,,,,,,,,,,,,,,,,,,,,,,,,,,,,,,,,,,,,,,,,,,,,,,,,,,,,,,,,,,,,,,,,,,,,,,,,,,,,
,,,,,,6064b073d8b83b30f7975c8d,62bbf9f04664875f645cb4bc,2022-06-29_09h06.37.451,Colour_Asymmetry_Pilot,2022.1.3,Win32,60.03842459,62bbe60bf3d75ef465d3e404,0,128,128,62,1,fourtwo,,,,,,,,,,,,,,,,,,,,,,,,,,,,,,,,,,,,,,,,,,,,,,,,,,,,,,,,,,,,,,,,,,,,,,,,,,,,,,,,,,,,,,,,,,,,,,,,,,,,,,,,,,,,,,,,,,,,,,,,,,,,,,,,,,,,,,,,,,,,,,,,,,,,,,,,
,,,,,,6064b073d8b83b30f7975c8d,62bbf9f04664875f645cb4bc,2022-06-29_09h06.37.451,Colour_Asymmetry_Pilot,2022.1.3,Win32,60.03842459,62bbe60bf3d75ef465d3e404,0,129,129,87,1,fourthree,,,,,,,,,,,,,,,,,,,,,,,,,,,,,,,,,,,,,,,,,,,,,,,,,,,,,,,,,,,,,,,,,,,,,,,,,,,,,,,,,,,,,,,,,,,,,,,,,,,,,,,,,,,,,,,,,,,,,,,,,,,,,,,,,,,,,,,,,,,,,,,,,,,,,,,,
,,,,,,6064b073d8b83b30f7975c8d,62bbf9f04664875f645cb4bc,2022-06-29_09h06.37.451,Colour_Asymmetry_Pilot,2022.1.3,Win32,60.03842459,62bbe60bf3d75ef465d3e404,0,130,130,133,1,threefour,,,,,,,,,,,,,,,,,,,,,,,,,,,,,,,,,,,,,,,,,,,,,,,,,,,,,,,,,,,,,,,,,,,,,,,,,,,,,,,,,,,,,,,,,,,,,,,,,,,,,,,,,,,,,,,,,,,,,,,,,,,,,,,,,,,,,,,,,,,,,,,,,,,,,,,,
,,,,,,6064b073d8b83b30f7975c8d,62bbf9f04664875f645cb4bc,2022-06-29_09h06.37.451,Colour_Asymmetry_Pilot,2022.1.3,Win32,60.03842459,62bbe60bf3d75ef465d3e404,0,131,131,9,1,onethree,,,,,,,,,,,,,,,,,,,,,,,,,,,,,,,,,,,,,,,,,,,,,,,,,,,,,,,,,,,,,,,,,,,,,,,,,,,,,,,,,,,,,,,,,,,,,,,,,,,,,,,,,,,,,,,,,,,,,,,,,,,,,,,,,,,,,,,,,,,,,,,,,,,,,,,,
,,,,,,6064b073d8b83b30f7975c8d,62bbf9f04664875f645cb4bc,2022-06-29_09h06.37.451,Colour_Asymmetry_Pilot,2022.1.3,Win32,60.03842459,62bbe60bf3d75ef465d3e404,0,132,132,100,1,threeone,,,,,,,,,,,,,,,,,,,,,,,,,,,,,,,,,,,,,,,,,,,,,,,,,,,,,,,,,,,,,,,,,,,,,,,,,,,,,,,,,,,,,,,,,,,,,,,,,,,,,,,,,,,,,,,,,,,,,,,,,,,,,,,,,,,,,,,,,,,,,,,,,,,,,,,,
,,,,,,6064b073d8b83b30f7975c8d,62bbf9f04664875f645cb4bc,2022-06-29_09h06.37.451,Colour_Asymmetry_Pilot,2022.1.3,Win32,60.03842459,62bbe60bf3d75ef465d3e404,0,133,133,56,1,onetwo,,,,,,,,,,,,,,,,,,,,,,,,,,,,,,,,,,,,,,,,,,,,,,,,,,,,,,,,,,,,,,,,,,,,,,,,,,,,,,,,,,,,,,,,,,,,,,,,,,,,,,,,,,,,,,,,,,,,,,,,,,,,,,,,,,,,,,,,,,,,,,,,,,,,,,,,
,,,,,,6064b073d8b83b30f7975c8d,62bbf9f04664875f645cb4bc,2022-06-29_09h06.37.451,Colour_Asymmetry_Pilot,2022.1.3,Win32,60.03842459,62bbe60bf3d75ef465d3e404,0,134,134,37,1,threefour,,,,,,,,,,,,,,,,,,,,,,,,,,,,,,,,,,,,,,,,,,,,,,,,,,,,,,,,,,,,,,,,,,,,,,,,,,,,,,,,,,,,,,,,,,,,,,,,,,,,,,,,,,,,,,,,,,,,,,,,,,,,,,,,,,,,,,,,,,,,,,,,,,,,,,,,
,,,,,,6064b073d8b83b30f7975c8d,62bbf9f04664875f645cb4bc,2022-06-29_09h06.37.451,Colour_Asymmetry_Pilot,2022.1.3,Win32,60.03842459,62bbe60bf3d75ef465d3e404,0,135,135,53,1,threefour,,,,,,,,,,,,,,,,,,,,,,,,,,,,,,,,,,,,,,,,,,,,,,,,,,,,,,,,,,,,,,,,,,,,,,,,,,,,,,,,,,,,,,,,,,,,,,,,,,,,,,,,,,,,,,,,,,,,,,,,,,,,,,,,,,,,,,,,,,,,,,,,,,,,,,,,
,,,,,,6064b073d8b83b30f7975c8d,62bbf9f04664875f645cb4bc,2022-06-29_09h06.37.451,Colour_Asymmetry_Pilot,2022.1.3,Win32,60.03842459,62bbe60bf3d75ef465d3e404,0,136,136,81,1,onethree,,,,,,,,,,,,,,,,,,,,,,,,,,,,,,,,,,,,,,,,,,,,,,,,,,,,,,,,,,,,,,,,,,,,,,,,,,,,,,,,,,,,,,,,,,,,,,,,,,,,,,,,,,,,,,,,,,,,,,,,,,,,,,,,,,,,,,,,,,,,,,,,,,,,,,,,
,,,,,,6064b073d8b83b30f7975c8d,62bbf9f04664875f645cb4bc,2022-06-29_09h06.37.451,Colour_Asymmetry_Pilot,2022.1.3,Win32,60.03842459,62bbe60bf3d75ef465d3e404,0,137,137,89,1,onethree,,,,,,,,,,,,,,,,,,,,,,,,,,,,,,,,,,,,,,,,,,,,,,,,,,,,,,,,,,,,,,,,,,,,,,,,,,,,,,,,,,,,,,,,,,,,,,,,,,,,,,,,,,,,,,,,,,,,,,,,,,,,,,,,,,,,,,,,,,,,,,,,,,,,,,,,
,,,,,,6064b073d8b83b30f7975c8d,62bbf9f04664875f645cb4bc,2022-06-29_09h06.37.451,Colour_Asymmetry_Pilot,2022.1.3,Win32,60.03842459,62bbe60bf3d75ef465d3e404,0,138,138,32,1,onetwo,,,,,,,,,,,,,,,,,,,,,,,,,,,,,,,,,,,,,,,,,,,,,,,,,,,,,,,,,,,,,,,,,,,,,,,,,,,,,,,,,,,,,,,,,,,,,,,,,,,,,,,,,,,,,,,,,,,,,,,,,,,,,,,,,,,,,,,,,,,,,,,,,,,,,,,,
,,,,,,6064b073d8b83b30f7975c8d,62bbf9f04664875f645cb4bc,2022-06-29_09h06.37.451,Colour_Asymmetry_Pilot,2022.1.3,Win32,60.03842459,62bbe60bf3d75ef465d3e404,0,139,139,25,1,onethree,,,,,,,,,,,,,,,,,,,,,,,,,,,,,,,,,,,,,,,,,,,,,,,,,,,,,,,,,,,,,,,,,,,,,,,,,,,,,,,,,,,,,,,,,,,,,,,,,,,,,,,,,,,,,,,,,,,,,,,,,,,,,,,,,,,,,,,,,,,,,,,,,,,,,,,,
,,,,,,6064b073d8b83b30f7975c8d,62bbf9f04664875f645cb4bc,2022-06-29_09h06.37.451,Colour_Asymmetry_Pilot,2022.1.3,Win32,60.03842459,62bbe60bf3d75ef465d3e404,0,140,140,34,1,twoone,,,,,,,,,,,,,,,,,,,,,,,,,,,,,,,,,,,,,,,,,,,,,,,,,,,,,,,,,,,,,,,,,,,,,,,,,,,,,,,,,,,,,,,,,,,,,,,,,,,,,,,,,,,,,,,,,,,,,,,,,,,,,,,,,,,,,,,,,,,,,,,,,,,,,,,,
,,,,,,6064b073d8b83b30f7975c8d,62bbf9f04664875f645cb4bc,2022-06-29_09h06.37.451,Colour_Asymmetry_Pilot,2022.1.3,Win32,60.03842459,62bbe60bf3d75ef465d3e404,0,141,141,40,1,onetwo,,,,,,,,,,,,,,,,,,,,,,,,,,,,,,,,,,,,,,,,,,,,,,,,,,,,,,,,,,,,,,,,,,,,,,,,,,,,,,,,,,,,,,,,,,,,,,,,,,,,,,,,,,,,,,,,,,,,,,,,,,,,,,,,,,,,,,,,,,,,,,,,,,,,,,,,
,,,,,,6064b073d8b83b30f7975c8d,62bbf9f04664875f645cb4bc,2022-06-29_09h06.37.451,Colour_Asymmetry_Pilot,2022.1.3,Win32,60.03842459,62bbe60bf3d75ef465d3e404,0,142,142,78,1,fourtwo,,,,,,,,,,,,,,,,,,,,,,,,,,,,,,,,,,,,,,,,,,,,,,,,,,,,,,,,,,,,,,,,,,,,,,,,,,,,,,,,,,,,,,,,,,,,,,,,,,,,,,,,,,,,,,,,,,,,,,,,,,,,,,,,,,,,,,,,,,,,,,,,,,,,,,,,
,,,,,,6064b073d8b83b30f7975c8d,62bbf9f04664875f645cb4bc,2022-06-29_09h06.37.451,Colour_Asymmetry_Pilot,2022.1.3,Win32,60.03842459,62bbe60bf3d75ef465d3e404,0,143,143,57,1,onethree,,,,,,,,,,,,,,,,,,,,,,,,,,,,,,,,,,,,,,,,,,,,,,,,,,,,,,,,,,,,,,,,,,,,,,,,,,,,,,,,,,,,,,,,,,,,,,,,,,,,,,,,,,,,,,,,,,,,,,,,,,,,,,,,,,,,,,,,,,,,,,,,,,,,,,,,
,,,,,,6064b073d8b83b30f7975c8d,62bbf9f04664875f645cb4bc,2022-06-29_09h06.37.451,Colour_Asymmetry_Pilot,2022.1.3,Win32,60.03842459,62bbe60bf3d75ef465d3e404,0,144,144,118,1,fourtwo,,,,,,,,,,,,,,,,,,,,,,,,,,,,,,,,,,,,,,,,,,,,,,,,,,,,,,,,,,,,,,,,,,,,,,,,,,,,,,,,,,,,,,,,,,,,,,,,,,,,,,,,,,,,,,,,,,,,,,,,,,,,,,,,,,,,,,,,,,,,,,,,,,,,,,,,
,,,,,,6064b073d8b83b30f7975c8d,62bbf9f04664875f645cb4bc,2022-06-29_09h06.37.451,Colour_Asymmetry_Pilot,2022.1.3,Win32,60.03842459,62bbe60bf3d75ef465d3e404,0,145,145,137,1,onethree,,,,,,,,,,,,,,,,,,,,,,,,,,,,,,,,,,,,,,,,,,,,,,,,,,,,,,,,,,,,,,,,,,,,,,,,,,,,,,,,,,,,,,,,,,,,,,,,,,,,,,,,,,,,,,,,,,,,,,,,,,,,,,,,,,,,,,,,,,,,,,,,,,,,,,,,
,,,,,,6064b073d8b83b30f7975c8d,62bbf9f04664875f645cb4bc,2022-06-29_09h06.37.451,Colour_Asymmetry_Pilot,2022.1.3,Win32,60.03842459,62bbe60bf3d75ef465d3e404,0,146,146,15,1,fourthree,,,,,,,,,,,,,,,,,,,,,,,,,,,,,,,,,,,,,,,,,,,,,,,,,,,,,,,,,,,,,,,,,,,,,,,,,,,,,,,,,,,,,,,,,,,,,,,,,,,,,,,,,,,,,,,,,,,,,,,,,,,,,,,,,,,,,,,,,,,,,,,,,,,,,,,,
,,,,,,6064b073d8b83b30f7975c8d,62bbf9f04664875f645cb4bc,2022-06-29_09h06.37.451,Colour_Asymmetry_Pilot,2022.1.3,Win32,60.03842459,62bbe60bf3d75ef465d3e404,0,147,147,138,1,twoone,,,,,,,,,,,,,,,,,,,,,,,,,,,,,,,,,,,,,,,,,,,,,,,,,,,,,,,,,,,,,,,,,,,,,,,,,,,,,,,,,,,,,,,,,,,,,,,,,,,,,,,,,,,,,,,,,,,,,,,,,,,,,,,,,,,,,,,,,,,,,,,,,,,,,,,,
,,,,,,6064b073d8b83b30f7975c8d,62bbf9f04664875f645cb4bc,2022-06-29_09h06.37.451,Colour_Asymmetry_Pilot,2022.1.3,Win32,60.03842459,62bbe60bf3d75ef465d3e404,0,148,148,71,1,fourthree,,,,,,,,,,,,,,,,,,,,,,,,,,,,,,,,,,,,,,,,,,,,,,,,,,,,,,,,,,,,,,,,,,,,,,,,,,,,,,,,,,,,,,,,,,,,,,,,,,,,,,,,,,,,,,,,,,,,,,,,,,,,,,,,,,,,,,,,,,,,,,,,,,,,,,,,
,,,,,,6064b073d8b83b30f7975c8d,62bbf9f04664875f645cb4bc,2022-06-29_09h06.37.451,Colour_Asymmetry_Pilot,2022.1.3,Win32,60.03842459,62bbe60bf3d75ef465d3e404,0,149,149,14,1,fourtwo,,,,,,,,,,,,,,,,,,,,,,,,,,,,,,,,,,,,,,,,,,,,,,,,,,,,,,,,,,,,,,,,,,,,,,,,,,,,,,,,,,,,,,,,,,,,,,,,,,,,,,,,,,,,,,,,,,,,,,,,,,,,,,,,,,,,,,,,,,,,,,,,,,,,,,,,
,,,,,,6064b073d8b83b30f7975c8d,62bbf9f04664875f645cb4bc,2022-06-29_09h06.37.451,Colour_Asymmetry_Pilot,2022.1.3,Win32,60.03842459,62bbe60bf3d75ef465d3e404,0,150,150,16,1,onetwo,,,,,,,,,,,,,,,,,,,,,,,,,,,,,,,,,,,,,,,,,,,,,,,,,,,,,,,,,,,,,,,,,,,,,,,,,,,,,,,,,,,,,,,,,,,,,,,,,,,,,,,,,,,,,,,,,,,,,,,,,,,,,,,,,,,,,,,,,,,,,,,,,,,,,,,,
,,,,,,6064b073d8b83b30f7975c8d,62bbf9f04664875f645cb4bc,2022-06-29_09h06.37.451,Colour_Asymmetry_Pilot,2022.1.3,Win32,60.03842459,62bbe60bf3d75ef465d3e404,0,151,151,107,1,twofour,,,,,,,,,,,,,,,,,,,,,,,,,,,,,,,,,,,,,,,,,,,,,,,,,,,,,,,,,,,,,,,,,,,,,,,,,,,,,,,,,,,,,,,,,,,,,,,,,,,,,,,,,,,,,,,,,,,,,,,,,,,,,,,,,,,,,,,,,,,,,,,,,,,,,,,,
,,,,,,6064b073d8b83b30f7975c8d,62bbf9f04664875f645cb4bc,2022-06-29_09h06.37.451,Colour_Asymmetry_Pilot,2022.1.3,Win32,60.03842459,62bbe60bf3d75ef465d3e404,0,152,152,93,1,threefour,,,,,,,,,,,,,,,,,,,,,,,,,,,,,,,,,,,,,,,,,,,,,,,,,,,,,,,,,,,,,,,,,,,,,,,,,,,,,,,,,,,,,,,,,,,,,,,,,,,,,,,,,,,,,,,,,,,,,,,,,,,,,,,,,,,,,,,,,,,,,,,,,,,,,,,,
,,,,,,6064b073d8b83b30f7975c8d,62bbf9f04664875f645cb4bc,2022-06-29_09h06.37.451,Colour_Asymmetry_Pilot,2022.1.3,Win32,60.03842459,62bbe60bf3d75ef465d3e404,0,153,153,160,1,onetwo,,,,,,,,,,,,,,,,,,,,,,,,,,,,,,,,,,,,,,,,,,,,,,,,,,,,,,,,,,,,,,,,,,,,,,,,,,,,,,,,,,,,,,,,,,,,,,,,,,,,,,,,,,,,,,,,,,,,,,,,,,,,,,,,,,,,,,,,,,,,,,,,,,,,,,,,
,,,,,,6064b073d8b83b30f7975c8d,62bbf9f04664875f645cb4bc,2022-06-29_09h06.37.451,Colour_Asymmetry_Pilot,2022.1.3,Win32,60.03842459,62bbe60bf3d75ef465d3e404,0,154,154,144,1,onetwo,,,,,,,,,,,,,,,,,,,,,,,,,,,,,,,,,,,,,,,,,,,,,,,,,,,,,,,,,,,,,,,,,,,,,,,,,,,,,,,,,,,,,,,,,,,,,,,,,,,,,,,,,,,,,,,,,,,,,,,,,,,,,,,,,,,,,,,,,,,,,,,,,,,,,,,,
,,,,,,6064b073d8b83b30f7975c8d,62bbf9f04664875f645cb4bc,2022-06-29_09h06.37.451,Colour_Asymmetry_Pilot,2022.1.3,Win32,60.03842459,62bbe60bf3d75ef465d3e404,0,155,155,105,1,onethree,,,,,,,,,,,,,,,,,,,,,,,,,,,,,,,,,,,,,,,,,,,,,,,,,,,,,,,,,,,,,,,,,,,,,,,,,,,,,,,,,,,,,,,,,,,,,,,,,,,,,,,,,,,,,,,,,,,,,,,,,,,,,,,,,,,,,,,,,,,,,,,,,,,,,,,,
,,,,,,6064b073d8b83b30f7975c8d,62bbf9f04664875f645cb4bc,2022-06-29_09h06.37.451,Colour_Asymmetry_Pilot,2022.1.3,Win32,60.03842459,62bbe60bf3d75ef465d3e404,0,156,156,67,1,twofour,,,,,,,,,,,,,,,,,,,,,,,,,,,,,,,,,,,,,,,,,,,,,,,,,,,,,,,,,,,,,,,,,,,,,,,,,,,,,,,,,,,,,,,,,,,,,,,,,,,,,,,,,,,,,,,,,,,,,,,,,,,,,,,,,,,,,,,,,,,,,,,,,,,,,,,,
,,,,,,6064b073d8b83b30f7975c8d,62bbf9f04664875f645cb4bc,2022-06-29_09h06.37.451,Colour_Asymmetry_Pilot,2022.1.3,Win32,60.03842459,62bbe60bf3d75ef465d3e404,0,157,157,10,1,twoone,,,,,,,,,,,,,,,,,,,,,,,,,,,,,,,,,,,,,,,,,,,,,,,,,,,,,,,,,,,,,,,,,,,,,,,,,,,,,,,,,,,,,,,,,,,,,,,,,,,,,,,,,,,,,,,,,,,,,,,,,,,,,,,,,,,,,,,,,,,,,,,,,,,,,,,,
,,,,,,6064b073d8b83b30f7975c8d,62bbf9f04664875f645cb4bc,2022-06-29_09h06.37.451,Colour_Asymmetry_Pilot,2022.1.3,Win32,60.03842459,62bbe60bf3d75ef465d3e404,0,158,158,44,1,threeone,,,,,,,,,,,,,,,,,,,,,,,,,,,,,,,,,,,,,,,,,,,,,,,,,,,,,,,,,,,,,,,,,,,,,,,,,,,,,,,,,,,,,,,,,,,,,,,,,,,,,,,,,,,,,,,,,,,,,,,,,,,,,,,,,,,,,,,,,,,,,,,,,,,,,,,,
,,,,,,6064b073d8b83b30f7975c8d,62bbf9f04664875f645cb4bc,2022-06-29_09h06.37.451,Colour_Asymmetry_Pilot,2022.1.3,Win32,60.03842459,62bbe60bf3d75ef465d3e404,0,159,159,121,1,onethree,,,,,,,,,,,,,,,,,,,,,,,,,,,,,,,,,,,,,,,,,,,,,,,,,,,,,,,,,,,,,,,,,,,,,,,,,,,,,,,,,,,,,,,,,,,,,,,,,,,,,,,,,,,,,,,,,,,,,,,,,,,,,,,,,,,,,,,,,,,,,,,,,,,,,,,,
,,,,,,6064b073d8b83b30f7975c8d,62bbf9f04664875f645cb4bc,2022-06-29_09h06.37.451,Colour_Asymmetry_Pilot,2022.1.3,Win32,60.03842459,62bbe60bf3d75ef465d3e404,0,160,160,110,1,fourtwo,,,,,,,,,,,,,,,,,,,,,,,,,,,,,,,,,,,,,,,,,,,,,,,,,,,,,,,,,,,,,,,,,,,,,,,,,,,,,,,,,,,,,,,,,,,,,,,,,,,,,,,,,,,,,,,,,,,,,,,,,,,,,,,,,,,,,,,,,,,,,,,,,,,,,,,,
,,,,,,6064b073d8b83b30f7975c8d,62bbf9f04664875f645cb4bc,2022-06-29_09h06.37.451,Colour_Asymmetry_Pilot,2022.1.3,Win32,60.03842459,62bbe60bf3d75ef465d3e404,0,161,161,46,1,fourtwo,,,,,,,,,,,,,,,,,,,,,,,,,,,,,,,,,,,,,,,,,,,,,,,,,,,,,,,,,,,,,,,,,,,,,,,,,,,,,,,,,,,,,,,,,,,,,,,,,,,,,,,,,,,,,,,,,,,,,,,,,,,,,,,,,,,,,,,,,,,,,,,,,,,,,,,,
,,,,,,6064b073d8b83b30f7975c8d,62bbf9f04664875f645cb4bc,2022-06-29_09h06.37.451,Colour_Asymmetry_Pilot,2022.1.3,Win32,60.03842459,62bbe60bf3d75ef465d3e404,,,,,,,space,2.3684,space,37.53,space,35.8273,space,6.6814,space,1.6013,space,3.3315,"[0.9763999999999999,0.8588,-0.05900000000000005]",twoone,"[-0.8118,-0.8198,-0.5452]",-4,5.7048,-52,116,1,0,0,response7disk_5,-4,3,1,0,0,rectangle_8,-4,3,1,0,0,2,-4,3,1,0,0,0,0,0,0,1,,,,,,,,,,,,,,,,,,,,,,,,,,,,,,,,,,,,,,,,,,,,,,,,,,,,,,,,,,,,,,,,,,,,,,,,,,,,,,,,,,,,,,,,,,,,,,,,,,,,,,,,,,,
,,,,,,6064b073d8b83b30f7975c8d,62bbf9f04664875f645cb4bc,2022-06-29_09h06.37.451,Colour_Asymmetry_Pilot,2022.1.3,Win32,60.03842459,62bbe60bf3d75ef465d3e404,,,,,,,,,,,,,,,,,,,"[0.34099999999999997,0.5841999999999998,-0.9844]",onetwo,"[-0.5688,-0.08239999999999992,-0.1844]",1,2.883,37,-74,1,0,0,response3disk_5,-11,-2,1,0,0,rectangle_8,-11,-2,1,0,0,2,-11,-2,1,0,0,1,0,1,0,1,,,,,,,,,,,,,,,,,,,,,,,,,,,,,,,,,,,,,,,,,,,,,,,,,,,,,,,,,,,,,,,,,,,,,,,,,,,,,,,,,,,,,,,,,,,,,,,,,,,,,,,,,,,
,,,,,,6064b073d8b83b30f7975c8d,62bbf9f04664875f645cb4bc,2022-06-29_09h06.37.451,Colour_Asymmetry_Pilot,2022.1.3,Win32,60.03842459,62bbe60bf3d75ef465d3e404,,,,,,,,,,,,,,,,,,,"[0.23920000000000008,0.2704,0.16060000000000008]",threefour,"[0.11359999999999992,0.6312,0.5213999999999999]",1,2.417,48,-80,1,0,0,response3disk_5,-1,-1,1,0,0,rectangle_8,-1,-1,1,0,0,2,-1,-1,1,0,0,2,0,2,0,1,,,,,,,,,,,,,,,,,,,,,,,,,,,,,,,,,,,,,,,,,,,,,,,,,,,,,,,,,,,,,,,,,,,,,,,,,,,,,,,,,,,,,,,,,,,,,,,,,,,,,,,,,,,
,,,,,,6064b073d8b83b30f7975c8d,62bbf9f04664875f645cb4bc,2022-06-29_09h06.37.451,Colour_Asymmetry_Pilot,2022.1.3,Win32,60.03842459,62bbe60bf3d75ef465d3e404,,,,,,,,,,,,,,,,,,,"[0.23120000000000007,-0.7726,-0.34120000000000006]",onethree,"[-0.17659999999999998,0.3253999999999999,0.19999999999999996]",-4,2.471,-28,67,1,0,0,response7disk_5,-11,3,1,0,0,rectangle_8,-11,3,1,0,0,2,-11,3,1,0,0,3,0,3,0,1,,,,,,,,,,,,,,,,,,,,,,,,,,,,,,,,,,,,,,,,,,,,,,,,,,,,,,,,,,,,,,,,,,,,,,,,,,,,,,,,,,,,,,,,,,,,,,,,,,,,,,,,,,,
,,,,,,6064b073d8b83b30f7975c8d,62bbf9f04664875f645cb4bc,2022-06-29_09h06.37.451,Colour_Asymmetry_Pilot,2022.1.3,Win32,60.03842459,62bbe60bf3d75ef465d3e404,,,,,,,,,,,,,,,,,,,"[-0.6,0.16860000000000008,0.44300000000000006]",onetwo,"[0.19199999999999995,0.18419999999999992,0.5136000000000001]",-1,2.4999,-37,-73,1,0,0,response5disk_5,-7,-5,1,0,0,rectangle_8,-7,-5,1,0,0,2,-7,-5,1,0,0,4,0,4,0,1,,,,,,,,,,,,,,,,,,,,,,,,,,,,,,,,,,,,,,,,,,,,,,,,,,,,,,,,,,,,,,,,,,,,,,,,,,,,,,,,,,,,,,,,,,,,,,,,,,,,,,,,,,,
,,,,,,6064b073d8b83b30f7975c8d,62bbf9f04664875f645cb4bc,2022-06-29_09h06.37.451,Colour_Asymmetry_Pilot,2022.1.3,Win32,60.03842459,62bbe60bf3d75ef465d3e404,,,,,,,,,,,,,,,,,,,"[0.796,0.2156,-0.27859999999999996]",twoone,"[-0.9138,-0.5296000000000001,-0.5529999999999999]",-3,2.8988,-105,38,1,0,0,response7disk_5,-8,4,1,0,0,rectangle_8,86,-50,1,0,0,2,4,-1,1,0,0,5,0,5,0,1,response3disk_7,5,rectangle_4,,,,,,,,,,,,,,,,,,,,,,,,,,,,,,,,,,,,,,,,,,,,,,,,,,,,,,,,,,,,,,,,,,,,,,,,,,,,,,,,,,,,,,,,,,,,,,,,,,,,,,,,
,,,,,,6064b073d8b83b30f7975c8d,62bbf9f04664875f645cb4bc,2022-06-29_09h06.37.451,Colour_Asymmetry_Pilot,2022.1.3,Win32,60.03842459,62bbe60bf3d75ef465d3e404,,,,,,,,,,,,,,,,,,,"[0.8115999999999999,-0.0040000000000000036,-0.09819999999999995]",fourthree,"[-0.7412000000000001,-0.08239999999999992,-0.6864]",-3,3.6161,-88,39,1,0,0,response7disk_5,-10,-2,1,0,0,rectangle_8,-10,-2,1,0,0,2,-10,-2,1,0,0,6,0,6,0,1,,,,,,,,,,,,,,,,,,,,,,,,,,,,,,,,,,,,,,,,,,,,,,,,,,,,,,,,,,,,,,,,,,,,,,,,,,,,,,,,,,,,,,,,,,,,,,,,,,,,,,,,,,,
,,,,,,6064b073d8b83b30f7975c8d,62bbf9f04664875f645cb4bc,2022-06-29_09h06.37.451,Colour_Asymmetry_Pilot,2022.1.3,Win32,60.03842459,62bbe60bf3d75ef465d3e404,,,,,,,,,,,,,,,,,,,,threeone,,-4,1.6846,,,,,,,,,,,,,,,,,,,,,,,,,,,,,,,,space,3.1746,"[0.37240000000000006,-0.050999999999999934,-0.5216]","[-0.4668,-0.8746,-0.2942]",-46,73,1,0,0,response7disk,-11,2,1,0,0,rectangle,-11,2,1,0,0,,3,0.0016,0,-11,2,1,0,0,0,0,0,143,1,62,second,,,,,,,,,,,,,,,,,,,,,,,,,,,,,,,,,,,,,,,,,,,,,,,,,,,,,,,,,,,,,,,,,,,
,,,,,,6064b073d8b83b30f7975c8d,62bbf9f04664875f645cb4bc,2022-06-29_09h06.37.451,Colour_Asymmetry_Pilot,2022.1.3,Win32,60.03842459,62bbe60bf3d75ef465d3e404,,,,,,,,,,,,,,,,,,,,twoone,,1,2.9667,,,,,,,,,,,,,,,,,,,,,,,,,,,,,,,,,,"[0.9763999999999999,0.8588,-0.05900000000000005]","[0.2862,0.7802,0.3568]",39,-85,1,0,0,response3disk,1,-7,1,0,0,rectangle,1,-7,1,0,0,,2,0.0028,0,1,-7,1,0,0,0,1,1,121,1,40,second,,,,,,,,,,,,,,,,,,,,,,,,,,,,,,,,,,,,,,,,,,,,,,,,,,,,,,,,,,,,,,,,,,,
,,,,,,6064b073d8b83b30f7975c8d,62bbf9f04664875f645cb4bc,2022-06-29_09h06.37.451,Colour_Asymmetry_Pilot,2022.1.3,Win32,60.03842459,62bbe60bf3d75ef465d3e404,,,,,,,,,,,,,,,,,,,,onetwo,,-4,1.8828,,,,,,,,,,,,,,,,,,,,,,,,,,,,,,,,,,"[0.37240000000000006,0.4980000000000002,-0.2864]","[-0.6235999999999999,-0.6786,-0.08239999999999992]",-48,77,1,0,0,response7disk,-4,-1,1,0,0,rectangle,-4,-1,1,0,0,,2,0.0008,0,-4,-1,1,0,0,0,2,2,3,1,3,first,,,,,,,,,,,,,,,,,,,,,,,,,,,,,,,,,,,,,,,,,,,,,,,,,,,,,,,,,,,,,,,,,,,
,,,,,,6064b073d8b83b30f7975c8d,62bbf9f04664875f645cb4bc,2022-06-29_09h06.37.451,Colour_Asymmetry_Pilot,2022.1.3,Win32,60.03842459,62bbe60bf3d75ef465d3e404,,,,,,,,,,,,,,,,,,,,twoone,,-4,2.4331,,,,,,,,,,,,,,,,,,,,,,,,,,,,,,,,,,"[0.4196,0.4665999999999999,0.3568]","[0.22340000000000004,-0.9296,-0.7884]",-45,73,1,0,0,response7disk,10,-6,1,0,0,rectangle,10,-6,1,0,0,,2,0.0003,0,10,-6,1,0,0,0,3,3,14,1,14,first,,,,,,,,,,,,,,,,,,,,,,,,,,,,,,,,,,,,,,,,,,,,,,,,,,,,,,,,,,,,,,,,,,,
,,,,,,6064b073d8b83b30f7975c8d,62bbf9f04664875f645cb4bc,2022-06-29_09h06.37.451,Colour_Asymmetry_Pilot,2022.1.3,Win32,60.03842459,62bbe60bf3d75ef465d3e404,,,,,,,,,,,,,,,,,,,,twofour,,-4,4.4493,,,,,,,,,,,,,,,,,,,,,,,,,,,,,,,,,,"[-0.4902000000000001,0.2704,-0.45899999999999996]","[-0.8118,-0.8198,-0.5452]",-42,79,1,0,0,response7disk,10,-11,1,0,0,rectangle,10,-11,1,0,0,,1,0.0036,0,10,-11,1,0,0,0,4,4,101,1,20,second,,,,,,,,,,,,,,,,,,,,,,,,,,,,,,,,,,,,,,,,,,,,,,,,,,,,,,,,,,,,,,,,,,,
,,,,,,6064b073d8b83b30f7975c8d,62bbf9f04664875f645cb4bc,2022-06-29_09h06.37.451,Colour_Asymmetry_Pilot,2022.1.3,Win32,60.03842459,62bbe60bf3d75ef465d3e404,,,,,,,,,,,,,,,,,,,,onethree,,-3,1.5496,,,,,,,,,,,,,,,,,,,,,,,,,,,,,,,,,,"[0.9372,0.9450000000000001,0.8980000000000001]","[0.7802,-0.23140000000000005,-0.20799999999999996]",-75,29,1,0,0,response7disk,-1,-5,1,0,0,rectangle,-1,-5,1,0,0,,2,0.0027,0,-1,-5,1,0,0,0,5,5,141,1,60,second,,,,,,,,,,,,,,,,,,,,,,,,,,,,,,,,,,,,,,,,,,,,,,,,,,,,,,,,,,,,,,,,,,,
,,,,,,6064b073d8b83b30f7975c8d,62bbf9f04664875f645cb4bc,2022-06-29_09h06.37.451,Colour_Asymmetry_Pilot,2022.1.3,Win32,60.03842459,62bbe60bf3d75ef465d3e404,,,,,,,,,,,,,,,,,,,,fourthree,,3,1.95,,,,,,,,,,,,,,,,,,,,,,,,,,,,,,,,,,"[-0.48240000000000005,0.3175999999999999,0.2156]","[-0.9138,-0.5296000000000001,-0.5529999999999999]",74,34,1,0,0,response1disk,6,-5,1,0,0,rectangle,6,-5,1,0,0,,2,0.0003,0,6,-5,1,0,0,0,6,6,144,1,63,second,,,,,,,,,,,,,,,,,,,,,,,,,,,,,,,,,,,,,,,,,,,,,,,,,,,,,,,,,,,,,,,,,,,
,,,,,,6064b073d8b83b30f7975c8d,62bbf9f04664875f645cb4bc,2022-06-29_09h06.37.451,Colour_Asymmetry_Pilot,2022.1.3,Win32,60.03842459,62bbe60bf3d75ef465d3e404,,,,,,,,,,,,,,,,,,,,onethree,,-4,1.5196,,,,,,,,,,,,,,,,,,,,,,,,,,,,,,,,,,"[0.3568,-0.20799999999999996,-0.9844]","[-0.8982,-0.37259999999999993,0.2784]",-34,70,1,0,0,response7disk,4,4,1,0,0,rectangle,4,4,1,0,0,,1,0.002,0,4,4,1,0,0,0,7,7,45,1,45,first,,,,,,,,,,,,,,,,,,,,,,,,,,,,,,,,,,,,,,,,,,,,,,,,,,,,,,,,,,,,,,,,,,,
,,,,,,6064b073d8b83b30f7975c8d,62bbf9f04664875f645cb4bc,2022-06-29_09h06.37.451,Colour_Asymmetry_Pilot,2022.1.3,Win32,60.03842459,62bbe60bf3d75ef465d3e404,,,,,,,,,,,,,,,,,,,,threeone,,3,1.6856,,,,,,,,,,,,,,,,,,,,,,,,,,,,,,,,,,"[0.19199999999999995,0.18419999999999992,0.5136000000000001]","[0.12939999999999996,-0.2864,0.3253999999999999]",123,41,1,0,0,response1disk,3,-10,1,0,0,rectangle,3,-10,1,0,0,,1,0.0002,0,3,-10,1,0,0,0,8,8,93,1,12,second,,,,,,,,,,,,,,,,,,,,,,,,,,,,,,,,,,,,,,,,,,,,,,,,,,,,,,,,,,,,,,,,,,,
,,,,,,6064b073d8b83b30f7975c8d,62bbf9f04664875f645cb4bc,2022-06-29_09h06.37.451,Colour_Asymmetry_Pilot,2022.1.3,Win32,60.03842459,62bbe60bf3d75ef465d3e404,,,,,,,,,,,,,,,,,,,,fourthree,,-2,2.1002,,,,,,,,,,,,,,,,,,,,,,,,,,,,,,,,,,"[0.6547999999999998,-0.043199999999999905,-0.011800000000000033]","[-0.07459999999999989,0.12139999999999995,-0.9922]",-96,-61,1,0,0,response5disk,-3,-8,1,0,0,rectangle,-3,-8,1,0,0,,3,0.0034,0,-3,-8,1,0,0,0,9,9,157,1,76,second,,,,,,,,,,,,,,,,,,,,,,,,,,,,,,,,,,,,,,,,,,,,,,,,,,,,,,,,,,,,,,,,,,,
,,,,,,6064b073d8b83b30f7975c8d,62bbf9f04664875f645cb4bc,2022-06-29_09h06.37.451,Colour_Asymmetry_Pilot,2022.1.3,Win32,60.03842459,62bbe60bf3d75ef465d3e404,,,,,,,,,,,,,,,,,,,,twofour,,3,2.2652,,,,,,,,,,,,,,,,,,,,,,,,,,,,,,,,,,"[-0.06680000000000008,-0.45100000000000007,-0.906]","[0.2784,-0.31000000000000005,-0.5452]",91,38,1,0,0,response1disk,7,-9,1,0,0,rectangle,7,-9,1,0,0,,3,0.0002,0,7,-9,1,0,0,0,10,10,56,1,56,first,,,,,,,,,,,,,,,,,,,,,,,,,,,,,,,,,,,,,,,,,,,,,,,,,,,,,,,,,,,,,,,,,,,
,,,,,,6064b073d8b83b30f7975c8d,62bbf9f04664875f645cb4bc,2022-06-29_09h06.37.451,Colour_Asymmetry_Pilot,2022.1.3,Win32,60.03842459,62bbe60bf3d75ef465d3e404,,,,,,,,,,,,,,,,,,,,onetwo,,-3,1.7509,,,,,,,,,,,,,,,,,,,,,,,,,,,,,,,,,,"[-0.07459999999999989,0.12139999999999995,-0.9922]","[0.6547999999999998,-0.043199999999999905,-0.011800000000000033]",-95,42,1,0,0,response7disk,-7,1,1,0,0,rectangle,93,36,1,0,0,3,3,3.1683,1,-1,2,1,0,0,0,11,11,76,1,76,first,response1disk_3,rectangle,,,,,,,,,,,,,,,,,,,,,,,,,,,,,,,,,,,,,,,,,,,,,,,,,,,,,,,,,,,,,,,,,
,,,,,,6064b073d8b83b30f7975c8d,62bbf9f04664875f645cb4bc,2022-06-29_09h06.37.451,Colour_Asymmetry_Pilot,2022.1.3,Win32,60.03842459,62bbe60bf3d75ef465d3e404,,,,,,,,,,,,,,,,,,,,threeone,,-4,1.2158,,,,,,,,,,,,,,,,,,,,,,,,,,,,,,,,,,"[-0.4668,-0.8746,-0.2942]","[0.0351999999999999,0.41159999999999997,0.0038000000000000256]",-51,115,1,0,0,response7disk,9,5,1,0,0,rectangle,9,5,1,0,0,3,2,0.003,0,9,5,1,0,0,0,12,12,77,1,77,first,,,,,,,,,,,,,,,,,,,,,,,,,,,,,,,,,,,,,,,,,,,,,,,,,,,,,,,,,,,,,,,,,,,
,,,,,,6064b073d8b83b30f7975c8d,62bbf9f04664875f645cb4bc,2022-06-29_09h06.37.451,Colour_Asymmetry_Pilot,2022.1.3,Win32,60.03842459,62bbe60bf3d75ef465d3e404,,,,,,,,,,,,,,,,,,,,onethree,,-4,1.7166,,,,,,,,,,,,,,,,,,,,,,,,,,,,,,,,,,"[0.9372,0.20779999999999998,0.2704]","[-0.10599999999999998,-0.15300000000000002,0.15280000000000005]",-33,96,1,0,0,response7disk,-7,8,1,0,0,rectangle,-7,8,1,0,0,3,2,0.0002,0,-7,8,1,0,0,0,13,13,142,1,61,second,,,,,,,,,,,,,,,,,,,,,,,,,,,,,,,,,,,,,,,,,,,,,,,,,,,,,,,,,,,,,,,,,,,
,,,,,,6064b073d8b83b30f7975c8d,62bbf9f04664875f645cb4bc,2022-06-29_09h06.37.451,Colour_Asymmetry_Pilot,2022.1.3,Win32,60.03842459,62bbe60bf3d75ef465d3e404,,,,,,,,,,,,,,,,,,,,twofour,,-4,1.2339,,,,,,,,,,,,,,,,,,,,,,,,,,,,,,,,,,"[-0.20799999999999996,-0.655,-0.01980000000000004]","[0.9763999999999999,0.8588,-0.05900000000000005]",-51,93,1,0,0,response7disk,-14,-3,1,0,0,rectangle,75,-49,1,0,0,2,2,2.9206,1,-9,-10,1,0,0,0,14,14,104,1,23,second,response3disk_3,rectangle,,,,,,,,,,,,,,,,,,,,,,,,,,,,,,,,,,,,,,,,,,,,,,,,,,,,,,,,,,,,,,,,,
,,,,,,6064b073d8b83b30f7975c8d,62bbf9f04664875f645cb4bc,2022-06-29_09h06.37.451,Colour_Asymmetry_Pilot,2022.1.3,Win32,60.03842459,62bbe60bf3d75ef465d3e404,,,,,,,,,,,,,,,,,,,,threeone,,1,1.5334,,,,,,,,,,,,,,,,,,,,,,,,,,,,,,,,,,"[0.23920000000000008,0.2704,0.16060000000000008]","[0.9763999999999999,0.8588,-0.05900000000000005]",26,-84,1,0,0,response3disk,-9,-7,1,0,0,rectangle,-9,-7,1,0,0,2,2,0.0002,0,-9,-7,1,0,0,0,15,15,65,1,65,first,,,,,,,,,,,,,,,,,,,,,,,,,,,,,,,,,,,,,,,,,,,,,,,,,,,,,,,,,,,,,,,,,,,
,,,,,,6064b073d8b83b30f7975c8d,62bbf9f04664875f645cb4bc,2022-06-29_09h06.37.451,Colour_Asymmetry_Pilot,2022.1.3,Win32,60.03842459,62bbe60bf3d75ef465d3e404,,,,,,,,,,,,,,,,,,,,threefour,,-4,1.9996,,,,,,,,,,,,,,,,,,,,,,,,,,,,,,,,,,"[0.8274000000000001,-0.5844,-0.9452]","[-0.10599999999999998,-0.15300000000000002,0.15280000000000005]",-47,86,1,0,0,response7disk,-1,-6,1,0,0,rectangle,-1,-6,1,0,0,2,3,0.0046,0,-1,-6,1,0,0,0,16,16,82,1,1,second,,,,,,,,,,,,,,,,,,,,,,,,,,,,,,,,,,,,,,,,,,,,,,,,,,,,,,,,,,,,,,,,,,,
,,,,,,6064b073d8b83b30f7975c8d,62bbf9f04664875f645cb4bc,2022-06-29_09h06.37.451,Colour_Asymmetry_Pilot,2022.1.3,Win32,60.03842459,62bbe60bf3d75ef465d3e404,,,,,,,,,,,,,,,,,,,,fourthree,,-1,2.1186,,,,,,,,,,,,,,,,,,,,,,,,,,,,,,,,,,"[-0.6942,-0.7648,-0.12959999999999994]","[-0.9688,-0.38039999999999996,-0.41979999999999995]",-29,-61,1,0,0,response5disk,13,-5,1,0,0,rectangle,13,-5,1,0,0,2,2,0.0028,0,13,-5,1,0,0,0,17,17,100,1,19,second,,,,,,,,,,,,,,,,,,,,,,,,,,,,,,,,,,,,,,,,,,,,,,,,,,,,,,,,,,,,,,,,,,,
,,,,,,6064b073d8b83b30f7975c8d,62bbf9f04664875f645cb4bc,2022-06-29_09h06.37.451,Colour_Asymmetry_Pilot,2022.1.3,Win32,60.03842459,62bbe60bf3d75ef465d3e404,,,,,,,,,,,,,,,,,,,,twofour,,2,3.0497,,,,,,,,,,,,,,,,,,,,,,,,,,,,,,,,,,"[-0.8118,-0.8198,-0.5452]","[-0.8982,-0.37259999999999993,0.2784]",92,-41,1,0,0,response3disk,13,4,1,0,0,rectangle,13,4,1,0,0,2,2,0.0006,0,13,4,1,0,0,0,18,18,155,1,74,second,,,,,,,,,,,,,,,,,,,,,,,,,,,,,,,,,,,,,,,,,,,,,,,,,,,,,,,,,,,,,,,,,,,
,,,,,,6064b073d8b83b30f7975c8d,62bbf9f04664875f645cb4bc,2022-06-29_09h06.37.451,Colour_Asymmetry_Pilot,2022.1.3,Win32,60.03842459,62bbe60bf3d75ef465d3e404,,,,,,,,,,,,,,,,,,,,twofour,,-3,4.3326,,,,,,,,,,,,,,,,,,,,,,,,,,,,,,,,,,"[0.09799999999999986,-0.24719999999999998,0.15280000000000005]","[-0.2942,-0.24719999999999998,-0.357]",-92,59,1,0,0,response7disk,-2,2,1,0,0,rectangle,-2,2,1,0,0,2,3,0.0033,0,-2,2,1,0,0,0,19,19,91,1,10,second,,,,,,,,,,,,,,,,,,,,,,,,,,,,,,,,,,,,,,,,,,,,,,,,,,,,,,,,,,,,,,,,,,,
,,,,,,6064b073d8b83b30f7975c8d,62bbf9f04664875f645cb4bc,2022-06-29_09h06.37.451,Colour_Asymmetry_Pilot,2022.1.3,Win32,60.03842459,62bbe60bf3d75ef465d3e404,,,,,,,,,,,,,,,,,,,,onetwo,,-4,1.2329,,,,,,,,,,,,,,,,,,,,,,,,,,,,,,,,,,"[-0.6235999999999999,-0.6786,-0.08239999999999992]","[0.37240000000000006,0.4980000000000002,-0.2864]",-35,57,1,0,0,response7disk,-1,-5,1,0,0,rectangle,-1,-5,1,0,0,2,3,0.0003,0,-1,-5,1,0,0,0,20,20,84,1,3,second,,,,,,,,,,,,,,,,,,,,,,,,,,,,,,,,,,,,,,,,,,,,,,,,,,,,,,,,,,,,,,,,,,,
