trials.thisRepN,trials.thisTrialN,trials.thisN,trials.thisIndex,trials.ran,Colourcodes,participant,session,date,expName,psychopyVersion,OS,frameRate,study_id,trials_4.thisRepN,trials_4.thisTrialN,trials_4.thisN,trials_4.thisIndex,trials_4.ran,StimulusPos,key_resp.keys,key_resp.rt,key_resp_2.keys,key_resp_2.rt,key_resp_15.keys,key_resp_15.rt,key_resp_17.keys,key_resp_17.rt,key_resp_9.keys,key_resp_9.rt,key_resp_10.keys,key_resp_10.rt,Circle1_col,Ecc,Circle2_col,similarity,response_time,mouse_5.x,mouse_5.y,mouse_5.leftButton,mouse_5.midButton,mouse_5.rightButton,mouse_5.clicked_name,mouse_10.x,mouse_10.y,mouse_10.leftButton,mouse_10.midButton,mouse_10.rightButton,mouse_10.clicked_name,mouse_7.x,mouse_7.y,mouse_7.leftButton,mouse_7.midButton,mouse_7.rightButton,catchnumberprac,mouse_6.x,mouse_6.y,mouse_6.leftButton,mouse_6.midButton,mouse_6.rightButton,duringprac.thisRepN,duringprac.thisTrialN,duringprac.thisN,duringprac.thisIndex,duringprac.ran,mouse_7.clicked_name,catchprac,mouse_6.clicked_name,key_resp_22.keys,key_resp_22.rt,Circle1_colour,Circle2_colour,mouse.x,mouse.y,mouse.leftButton,mouse.midButton,mouse.rightButton,mouse.clicked_name,mouse_2.x,mouse_2.y,mouse_2.leftButton,mouse_2.midButton,mouse_2.rightButton,mouse_2.clicked_name,mouse_3.x,mouse_3.y,mouse_3.leftButton,mouse_3.midButton,mouse_3.rightButton,catchresponse,catchnumber,response_time_catch,Catch,mouse_11.x,mouse_11.y,mouse_11.leftButton,mouse_11.midButton,mouse_11.rightButton,trials_2.thisRepN,trials_2.thisTrialN,trials_2.thisN,trials_2.thisIndex,trials_2.ran,Colourpair,Temporder,mouse_3.clicked_name,mouse_11.clicked_name,trials_3.thisRepN,trials_3.thisTrialN,trials_3.thisN,trials_3.thisIndex,trials_3.ran,key_resp_instr_Ishi.keys,key_resp_instr_Ishi.rt,Ishi_trial_keyresp.keys,Ishi_trial_keyresp.rt,Ishi_textbox.text,Ishi_loop.thisRepN,Ishi_loop.thisTrialN,Ishi_loop.thisN,Ishi_loop.thisIndex,Ishi_loop.ran,imageaddress,textbox.text,mouse_4.x,mouse_4.y,mouse_4.leftButton,mouse_4.midButton,mouse_4.rightButton,mouse_4.clicked_name,textbox_2.text,mouse_8.x,mouse_8.y,mouse_8.leftButton,mouse_8.midButton,mouse_8.rightButton,mouse_8.clicked_name,textbox_3.text,mouse_9.x,mouse_9.y,mouse_9.leftButton,mouse_9.midButton,mouse_9.rightButton,mouse_9.clicked_name,textbox_4.text,mouse_12.x,mouse_12.y,mouse_12.leftButton,mouse_12.midButton,mouse_12.rightButton,mouse_12.clicked_name,textbox_5.text,mouse_13.x,mouse_13.y,mouse_13.leftButton,mouse_13.midButton,mouse_13.rightButton,mouse_13.clicked_name,textbox_6.text,mouse_14.x,mouse_14.y,mouse_14.leftButton,mouse_14.midButton,mouse_14.rightButton,mouse_14.clicked_name,textbox_7.text,mouse_15.x,mouse_15.y,mouse_15.leftButton,mouse_15.midButton,mouse_15.rightButton,mouse_15.clicked_name
0,0,0,42,1,,617118971b29a7f27b2baec5,62bbfaeb8048f9f62ee9e7c1,2022-06-29_09h11.09.746,Colour_Asymmetry_Pilot,2022.1.3,Win32,60.04202942,62bbe60bf3d75ef465d3e404,,,,,,,,,,,,,,,,,,,,,,,,,,,,,,,,,,,,,,,,,,,,,,,,,,,,,,,,,,,,,,,,,,,,,,,,,,,,,,,,,,,,,,,,,,,,,,,,,,,,,,,,,,,,,,,,,,,,,,,,,,,,,,,,,,,,,,,,,,,,,,,,,,,,,,,,,,,,,,
0,1,1,56,1,,617118971b29a7f27b2baec5,62bbfaeb8048f9f62ee9e7c1,2022-06-29_09h11.09.746,Colour_Asymmetry_Pilot,2022.1.3,Win32,60.04202942,62bbe60bf3d75ef465d3e404,,,,,,,,,,,,,,,,,,,,,,,,,,,,,,,,,,,,,,,,,,,,,,,,,,,,,,,,,,,,,,,,,,,,,,,,,,,,,,,,,,,,,,,,,,,,,,,,,,,,,,,,,,,,,,,,,,,,,,,,,,,,,,,,,,,,,,,,,,,,,,,,,,,,,,,,,,,,,,
0,2,2,24,1,,617118971b29a7f27b2baec5,62bbfaeb8048f9f62ee9e7c1,2022-06-29_09h11.09.746,Colour_Asymmetry_Pilot,2022.1.3,Win32,60.04202942,62bbe60bf3d75ef465d3e404,,,,,,,,,,,,,,,,,,,,,,,,,,,,,,,,,,,,,,,,,,,,,,,,,,,,,,,,,,,,,,,,,,,,,,,,,,,,,,,,,,,,,,,,,,,,,,,,,,,,,,,,,,,,,,,,,,,,,,,,,,,,,,,,,,,,,,,,,,,,,,,,,,,,,,,,,,,,,,
0,3,3,36,1,,617118971b29a7f27b2baec5,62bbfaeb8048f9f62ee9e7c1,2022-06-29_09h11.09.746,Colour_Asymmetry_Pilot,2022.1.3,Win32,60.04202942,62bbe60bf3d75ef465d3e404,,,,,,,,,,,,,,,,,,,,,,,,,,,,,,,,,,,,,,,,,,,,,,,,,,,,,,,,,,,,,,,,,,,,,,,,,,,,,,,,,,,,,,,,,,,,,,,,,,,,,,,,,,,,,,,,,,,,,,,,,,,,,,,,,,,,,,,,,,,,,,,,,,,,,,,,,,,,,,
0,4,4,37,1,,617118971b29a7f27b2baec5,62bbfaeb8048f9f62ee9e7c1,2022-06-29_09h11.09.746,Colour_Asymmetry_Pilot,2022.1.3,Win32,60.04202942,62bbe60bf3d75ef465d3e404,,,,,,,,,,,,,,,,,,,,,,,,,,,,,,,,,,,,,,,,,,,,,,,,,,,,,,,,,,,,,,,,,,,,,,,,,,,,,,,,,,,,,,,,,,,,,,,,,,,,,,,,,,,,,,,,,,,,,,,,,,,,,,,,,,,,,,,,,,,,,,,,,,,,,,,,,,,,,,
0,5,5,5,1,,617118971b29a7f27b2baec5,62bbfaeb8048f9f62ee9e7c1,2022-06-29_09h11.09.746,Colour_Asymmetry_Pilot,2022.1.3,Win32,60.04202942,62bbe60bf3d75ef465d3e404,,,,,,,,,,,,,,,,,,,,,,,,,,,,,,,,,,,,,,,,,,,,,,,,,,,,,,,,,,,,,,,,,,,,,,,,,,,,,,,,,,,,,,,,,,,,,,,,,,,,,,,,,,,,,,,,,,,,,,,,,,,,,,,,,,,,,,,,,,,,,,,,,,,,,,,,,,,,,,
0,6,6,83,1,,617118971b29a7f27b2baec5,62bbfaeb8048f9f62ee9e7c1,2022-06-29_09h11.09.746,Colour_Asymmetry_Pilot,2022.1.3,Win32,60.04202942,62bbe60bf3d75ef465d3e404,,,,,,,,,,,,,,,,,,,,,,,,,,,,,,,,,,,,,,,,,,,,,,,,,,,,,,,,,,,,,,,,,,,,,,,,,,,,,,,,,,,,,,,,,,,,,,,,,,,,,,,,,,,,,,,,,,,,,,,,,,,,,,,,,,,,,,,,,,,,,,,,,,,,,,,,,,,,,,
0,7,7,43,1,,617118971b29a7f27b2baec5,62bbfaeb8048f9f62ee9e7c1,2022-06-29_09h11.09.746,Colour_Asymmetry_Pilot,2022.1.3,Win32,60.04202942,62bbe60bf3d75ef465d3e404,,,,,,,,,,,,,,,,,,,,,,,,,,,,,,,,,,,,,,,,,,,,,,,,,,,,,,,,,,,,,,,,,,,,,,,,,,,,,,,,,,,,,,,,,,,,,,,,,,,,,,,,,,,,,,,,,,,,,,,,,,,,,,,,,,,,,,,,,,,,,,,,,,,,,,,,,,,,,,
0,8,8,63,1,,617118971b29a7f27b2baec5,62bbfaeb8048f9f62ee9e7c1,2022-06-29_09h11.09.746,Colour_Asymmetry_Pilot,2022.1.3,Win32,60.04202942,62bbe60bf3d75ef465d3e404,,,,,,,,,,,,,,,,,,,,,,,,,,,,,,,,,,,,,,,,,,,,,,,,,,,,,,,,,,,,,,,,,,,,,,,,,,,,,,,,,,,,,,,,,,,,,,,,,,,,,,,,,,,,,,,,,,,,,,,,,,,,,,,,,,,,,,,,,,,,,,,,,,,,,,,,,,,,,,
0,9,9,12,1,,617118971b29a7f27b2baec5,62bbfaeb8048f9f62ee9e7c1,2022-06-29_09h11.09.746,Colour_Asymmetry_Pilot,2022.1.3,Win32,60.04202942,62bbe60bf3d75ef465d3e404,,,,,,,,,,,,,,,,,,,,,,,,,,,,,,,,,,,,,,,,,,,,,,,,,,,,,,,,,,,,,,,,,,,,,,,,,,,,,,,,,,,,,,,,,,,,,,,,,,,,,,,,,,,,,,,,,,,,,,,,,,,,,,,,,,,,,,,,,,,,,,,,,,,,,,,,,,,,,,
0,10,10,13,1,,617118971b29a7f27b2baec5,62bbfaeb8048f9f62ee9e7c1,2022-06-29_09h11.09.746,Colour_Asymmetry_Pilot,2022.1.3,Win32,60.04202942,62bbe60bf3d75ef465d3e404,,,,,,,,,,,,,,,,,,,,,,,,,,,,,,,,,,,,,,,,,,,,,,,,,,,,,,,,,,,,,,,,,,,,,,,,,,,,,,,,,,,,,,,,,,,,,,,,,,,,,,,,,,,,,,,,,,,,,,,,,,,,,,,,,,,,,,,,,,,,,,,,,,,,,,,,,,,,,,
0,11,11,61,1,,617118971b29a7f27b2baec5,62bbfaeb8048f9f62ee9e7c1,2022-06-29_09h11.09.746,Colour_Asymmetry_Pilot,2022.1.3,Win32,60.04202942,62bbe60bf3d75ef465d3e404,,,,,,,,,,,,,,,,,,,,,,,,,,,,,,,,,,,,,,,,,,,,,,,,,,,,,,,,,,,,,,,,,,,,,,,,,,,,,,,,,,,,,,,,,,,,,,,,,,,,,,,,,,,,,,,,,,,,,,,,,,,,,,,,,,,,,,,,,,,,,,,,,,,,,,,,,,,,,,
0,12,12,70,1,,617118971b29a7f27b2baec5,62bbfaeb8048f9f62ee9e7c1,2022-06-29_09h11.09.746,Colour_Asymmetry_Pilot,2022.1.3,Win32,60.04202942,62bbe60bf3d75ef465d3e404,,,,,,,,,,,,,,,,,,,,,,,,,,,,,,,,,,,,,,,,,,,,,,,,,,,,,,,,,,,,,,,,,,,,,,,,,,,,,,,,,,,,,,,,,,,,,,,,,,,,,,,,,,,,,,,,,,,,,,,,,,,,,,,,,,,,,,,,,,,,,,,,,,,,,,,,,,,,,,
0,13,13,64,1,,617118971b29a7f27b2baec5,62bbfaeb8048f9f62ee9e7c1,2022-06-29_09h11.09.746,Colour_Asymmetry_Pilot,2022.1.3,Win32,60.04202942,62bbe60bf3d75ef465d3e404,,,,,,,,,,,,,,,,,,,,,,,,,,,,,,,,,,,,,,,,,,,,,,,,,,,,,,,,,,,,,,,,,,,,,,,,,,,,,,,,,,,,,,,,,,,,,,,,,,,,,,,,,,,,,,,,,,,,,,,,,,,,,,,,,,,,,,,,,,,,,,,,,,,,,,,,,,,,,,
0,14,14,35,1,,617118971b29a7f27b2baec5,62bbfaeb8048f9f62ee9e7c1,2022-06-29_09h11.09.746,Colour_Asymmetry_Pilot,2022.1.3,Win32,60.04202942,62bbe60bf3d75ef465d3e404,,,,,,,,,,,,,,,,,,,,,,,,,,,,,,,,,,,,,,,,,,,,,,,,,,,,,,,,,,,,,,,,,,,,,,,,,,,,,,,,,,,,,,,,,,,,,,,,,,,,,,,,,,,,,,,,,,,,,,,,,,,,,,,,,,,,,,,,,,,,,,,,,,,,,,,,,,,,,,
0,15,15,17,1,,617118971b29a7f27b2baec5,62bbfaeb8048f9f62ee9e7c1,2022-06-29_09h11.09.746,Colour_Asymmetry_Pilot,2022.1.3,Win32,60.04202942,62bbe60bf3d75ef465d3e404,,,,,,,,,,,,,,,,,,,,,,,,,,,,,,,,,,,,,,,,,,,,,,,,,,,,,,,,,,,,,,,,,,,,,,,,,,,,,,,,,,,,,,,,,,,,,,,,,,,,,,,,,,,,,,,,,,,,,,,,,,,,,,,,,,,,,,,,,,,,,,,,,,,,,,,,,,,,,,
0,16,16,50,1,,617118971b29a7f27b2baec5,62bbfaeb8048f9f62ee9e7c1,2022-06-29_09h11.09.746,Colour_Asymmetry_Pilot,2022.1.3,Win32,60.04202942,62bbe60bf3d75ef465d3e404,,,,,,,,,,,,,,,,,,,,,,,,,,,,,,,,,,,,,,,,,,,,,,,,,,,,,,,,,,,,,,,,,,,,,,,,,,,,,,,,,,,,,,,,,,,,,,,,,,,,,,,,,,,,,,,,,,,,,,,,,,,,,,,,,,,,,,,,,,,,,,,,,,,,,,,,,,,,,,
0,17,17,49,1,,617118971b29a7f27b2baec5,62bbfaeb8048f9f62ee9e7c1,2022-06-29_09h11.09.746,Colour_Asymmetry_Pilot,2022.1.3,Win32,60.04202942,62bbe60bf3d75ef465d3e404,,,,,,,,,,,,,,,,,,,,,,,,,,,,,,,,,,,,,,,,,,,,,,,,,,,,,,,,,,,,,,,,,,,,,,,,,,,,,,,,,,,,,,,,,,,,,,,,,,,,,,,,,,,,,,,,,,,,,,,,,,,,,,,,,,,,,,,,,,,,,,,,,,,,,,,,,,,,,,
0,18,18,20,1,,617118971b29a7f27b2baec5,62bbfaeb8048f9f62ee9e7c1,2022-06-29_09h11.09.746,Colour_Asymmetry_Pilot,2022.1.3,Win32,60.04202942,62bbe60bf3d75ef465d3e404,,,,,,,,,,,,,,,,,,,,,,,,,,,,,,,,,,,,,,,,,,,,,,,,,,,,,,,,,,,,,,,,,,,,,,,,,,,,,,,,,,,,,,,,,,,,,,,,,,,,,,,,,,,,,,,,,,,,,,,,,,,,,,,,,,,,,,,,,,,,,,,,,,,,,,,,,,,,,,
0,19,19,45,1,,617118971b29a7f27b2baec5,62bbfaeb8048f9f62ee9e7c1,2022-06-29_09h11.09.746,Colour_Asymmetry_Pilot,2022.1.3,Win32,60.04202942,62bbe60bf3d75ef465d3e404,,,,,,,,,,,,,,,,,,,,,,,,,,,,,,,,,,,,,,,,,,,,,,,,,,,,,,,,,,,,,,,,,,,,,,,,,,,,,,,,,,,,,,,,,,,,,,,,,,,,,,,,,,,,,,,,,,,,,,,,,,,,,,,,,,,,,,,,,,,,,,,,,,,,,,,,,,,,,,
0,20,20,26,1,,617118971b29a7f27b2baec5,62bbfaeb8048f9f62ee9e7c1,2022-06-29_09h11.09.746,Colour_Asymmetry_Pilot,2022.1.3,Win32,60.04202942,62bbe60bf3d75ef465d3e404,,,,,,,,,,,,,,,,,,,,,,,,,,,,,,,,,,,,,,,,,,,,,,,,,,,,,,,,,,,,,,,,,,,,,,,,,,,,,,,,,,,,,,,,,,,,,,,,,,,,,,,,,,,,,,,,,,,,,,,,,,,,,,,,,,,,,,,,,,,,,,,,,,,,,,,,,,,,,,
0,21,21,92,1,,617118971b29a7f27b2baec5,62bbfaeb8048f9f62ee9e7c1,2022-06-29_09h11.09.746,Colour_Asymmetry_Pilot,2022.1.3,Win32,60.04202942,62bbe60bf3d75ef465d3e404,,,,,,,,,,,,,,,,,,,,,,,,,,,,,,,,,,,,,,,,,,,,,,,,,,,,,,,,,,,,,,,,,,,,,,,,,,,,,,,,,,,,,,,,,,,,,,,,,,,,,,,,,,,,,,,,,,,,,,,,,,,,,,,,,,,,,,,,,,,,,,,,,,,,,,,,,,,,,,
0,22,22,60,1,,617118971b29a7f27b2baec5,62bbfaeb8048f9f62ee9e7c1,2022-06-29_09h11.09.746,Colour_Asymmetry_Pilot,2022.1.3,Win32,60.04202942,62bbe60bf3d75ef465d3e404,,,,,,,,,,,,,,,,,,,,,,,,,,,,,,,,,,,,,,,,,,,,,,,,,,,,,,,,,,,,,,,,,,,,,,,,,,,,,,,,,,,,,,,,,,,,,,,,,,,,,,,,,,,,,,,,,,,,,,,,,,,,,,,,,,,,,,,,,,,,,,,,,,,,,,,,,,,,,,
0,23,23,53,1,,617118971b29a7f27b2baec5,62bbfaeb8048f9f62ee9e7c1,2022-06-29_09h11.09.746,Colour_Asymmetry_Pilot,2022.1.3,Win32,60.04202942,62bbe60bf3d75ef465d3e404,,,,,,,,,,,,,,,,,,,,,,,,,,,,,,,,,,,,,,,,,,,,,,,,,,,,,,,,,,,,,,,,,,,,,,,,,,,,,,,,,,,,,,,,,,,,,,,,,,,,,,,,,,,,,,,,,,,,,,,,,,,,,,,,,,,,,,,,,,,,,,,,,,,,,,,,,,,,,,
0,24,24,51,1,,617118971b29a7f27b2baec5,62bbfaeb8048f9f62ee9e7c1,2022-06-29_09h11.09.746,Colour_Asymmetry_Pilot,2022.1.3,Win32,60.04202942,62bbe60bf3d75ef465d3e404,,,,,,,,,,,,,,,,,,,,,,,,,,,,,,,,,,,,,,,,,,,,,,,,,,,,,,,,,,,,,,,,,,,,,,,,,,,,,,,,,,,,,,,,,,,,,,,,,,,,,,,,,,,,,,,,,,,,,,,,,,,,,,,,,,,,,,,,,,,,,,,,,,,,,,,,,,,,,,
0,25,25,46,1,,617118971b29a7f27b2baec5,62bbfaeb8048f9f62ee9e7c1,2022-06-29_09h11.09.746,Colour_Asymmetry_Pilot,2022.1.3,Win32,60.04202942,62bbe60bf3d75ef465d3e404,,,,,,,,,,,,,,,,,,,,,,,,,,,,,,,,,,,,,,,,,,,,,,,,,,,,,,,,,,,,,,,,,,,,,,,,,,,,,,,,,,,,,,,,,,,,,,,,,,,,,,,,,,,,,,,,,,,,,,,,,,,,,,,,,,,,,,,,,,,,,,,,,,,,,,,,,,,,,,
0,26,26,30,1,,617118971b29a7f27b2baec5,62bbfaeb8048f9f62ee9e7c1,2022-06-29_09h11.09.746,Colour_Asymmetry_Pilot,2022.1.3,Win32,60.04202942,62bbe60bf3d75ef465d3e404,,,,,,,,,,,,,,,,,,,,,,,,,,,,,,,,,,,,,,,,,,,,,,,,,,,,,,,,,,,,,,,,,,,,,,,,,,,,,,,,,,,,,,,,,,,,,,,,,,,,,,,,,,,,,,,,,,,,,,,,,,,,,,,,,,,,,,,,,,,,,,,,,,,,,,,,,,,,,,
0,27,27,68,1,,617118971b29a7f27b2baec5,62bbfaeb8048f9f62ee9e7c1,2022-06-29_09h11.09.746,Colour_Asymmetry_Pilot,2022.1.3,Win32,60.04202942,62bbe60bf3d75ef465d3e404,,,,,,,,,,,,,,,,,,,,,,,,,,,,,,,,,,,,,,,,,,,,,,,,,,,,,,,,,,,,,,,,,,,,,,,,,,,,,,,,,,,,,,,,,,,,,,,,,,,,,,,,,,,,,,,,,,,,,,,,,,,,,,,,,,,,,,,,,,,,,,,,,,,,,,,,,,,,,,
0,28,28,55,1,,617118971b29a7f27b2baec5,62bbfaeb8048f9f62ee9e7c1,2022-06-29_09h11.09.746,Colour_Asymmetry_Pilot,2022.1.3,Win32,60.04202942,62bbe60bf3d75ef465d3e404,,,,,,,,,,,,,,,,,,,,,,,,,,,,,,,,,,,,,,,,,,,,,,,,,,,,,,,,,,,,,,,,,,,,,,,,,,,,,,,,,,,,,,,,,,,,,,,,,,,,,,,,,,,,,,,,,,,,,,,,,,,,,,,,,,,,,,,,,,,,,,,,,,,,,,,,,,,,,,
0,29,29,57,1,,617118971b29a7f27b2baec5,62bbfaeb8048f9f62ee9e7c1,2022-06-29_09h11.09.746,Colour_Asymmetry_Pilot,2022.1.3,Win32,60.04202942,62bbe60bf3d75ef465d3e404,,,,,,,,,,,,,,,,,,,,,,,,,,,,,,,,,,,,,,,,,,,,,,,,,,,,,,,,,,,,,,,,,,,,,,,,,,,,,,,,,,,,,,,,,,,,,,,,,,,,,,,,,,,,,,,,,,,,,,,,,,,,,,,,,,,,,,,,,,,,,,,,,,,,,,,,,,,,,,
0,30,30,15,1,,617118971b29a7f27b2baec5,62bbfaeb8048f9f62ee9e7c1,2022-06-29_09h11.09.746,Colour_Asymmetry_Pilot,2022.1.3,Win32,60.04202942,62bbe60bf3d75ef465d3e404,,,,,,,,,,,,,,,,,,,,,,,,,,,,,,,,,,,,,,,,,,,,,,,,,,,,,,,,,,,,,,,,,,,,,,,,,,,,,,,,,,,,,,,,,,,,,,,,,,,,,,,,,,,,,,,,,,,,,,,,,,,,,,,,,,,,,,,,,,,,,,,,,,,,,,,,,,,,,,
0,31,31,9,1,,617118971b29a7f27b2baec5,62bbfaeb8048f9f62ee9e7c1,2022-06-29_09h11.09.746,Colour_Asymmetry_Pilot,2022.1.3,Win32,60.04202942,62bbe60bf3d75ef465d3e404,,,,,,,,,,,,,,,,,,,,,,,,,,,,,,,,,,,,,,,,,,,,,,,,,,,,,,,,,,,,,,,,,,,,,,,,,,,,,,,,,,,,,,,,,,,,,,,,,,,,,,,,,,,,,,,,,,,,,,,,,,,,,,,,,,,,,,,,,,,,,,,,,,,,,,,,,,,,,,
0,32,32,28,1,,617118971b29a7f27b2baec5,62bbfaeb8048f9f62ee9e7c1,2022-06-29_09h11.09.746,Colour_Asymmetry_Pilot,2022.1.3,Win32,60.04202942,62bbe60bf3d75ef465d3e404,,,,,,,,,,,,,,,,,,,,,,,,,,,,,,,,,,,,,,,,,,,,,,,,,,,,,,,,,,,,,,,,,,,,,,,,,,,,,,,,,,,,,,,,,,,,,,,,,,,,,,,,,,,,,,,,,,,,,,,,,,,,,,,,,,,,,,,,,,,,,,,,,,,,,,,,,,,,,,
0,33,33,0,1,,617118971b29a7f27b2baec5,62bbfaeb8048f9f62ee9e7c1,2022-06-29_09h11.09.746,Colour_Asymmetry_Pilot,2022.1.3,Win32,60.04202942,62bbe60bf3d75ef465d3e404,,,,,,,,,,,,,,,,,,,,,,,,,,,,,,,,,,,,,,,,,,,,,,,,,,,,,,,,,,,,,,,,,,,,,,,,,,,,,,,,,,,,,,,,,,,,,,,,,,,,,,,,,,,,,,,,,,,,,,,,,,,,,,,,,,,,,,,,,,,,,,,,,,,,,,,,,,,,,,
0,34,34,18,1,,617118971b29a7f27b2baec5,62bbfaeb8048f9f62ee9e7c1,2022-06-29_09h11.09.746,Colour_Asymmetry_Pilot,2022.1.3,Win32,60.04202942,62bbe60bf3d75ef465d3e404,,,,,,,,,,,,,,,,,,,,,,,,,,,,,,,,,,,,,,,,,,,,,,,,,,,,,,,,,,,,,,,,,,,,,,,,,,,,,,,,,,,,,,,,,,,,,,,,,,,,,,,,,,,,,,,,,,,,,,,,,,,,,,,,,,,,,,,,,,,,,,,,,,,,,,,,,,,,,,
0,35,35,2,1,,617118971b29a7f27b2baec5,62bbfaeb8048f9f62ee9e7c1,2022-06-29_09h11.09.746,Colour_Asymmetry_Pilot,2022.1.3,Win32,60.04202942,62bbe60bf3d75ef465d3e404,,,,,,,,,,,,,,,,,,,,,,,,,,,,,,,,,,,,,,,,,,,,,,,,,,,,,,,,,,,,,,,,,,,,,,,,,,,,,,,,,,,,,,,,,,,,,,,,,,,,,,,,,,,,,,,,,,,,,,,,,,,,,,,,,,,,,,,,,,,,,,,,,,,,,,,,,,,,,,
0,36,36,62,1,,617118971b29a7f27b2baec5,62bbfaeb8048f9f62ee9e7c1,2022-06-29_09h11.09.746,Colour_Asymmetry_Pilot,2022.1.3,Win32,60.04202942,62bbe60bf3d75ef465d3e404,,,,,,,,,,,,,,,,,,,,,,,,,,,,,,,,,,,,,,,,,,,,,,,,,,,,,,,,,,,,,,,,,,,,,,,,,,,,,,,,,,,,,,,,,,,,,,,,,,,,,,,,,,,,,,,,,,,,,,,,,,,,,,,,,,,,,,,,,,,,,,,,,,,,,,,,,,,,,,
0,37,37,39,1,,617118971b29a7f27b2baec5,62bbfaeb8048f9f62ee9e7c1,2022-06-29_09h11.09.746,Colour_Asymmetry_Pilot,2022.1.3,Win32,60.04202942,62bbe60bf3d75ef465d3e404,,,,,,,,,,,,,,,,,,,,,,,,,,,,,,,,,,,,,,,,,,,,,,,,,,,,,,,,,,,,,,,,,,,,,,,,,,,,,,,,,,,,,,,,,,,,,,,,,,,,,,,,,,,,,,,,,,,,,,,,,,,,,,,,,,,,,,,,,,,,,,,,,,,,,,,,,,,,,,
0,38,38,67,1,,617118971b29a7f27b2baec5,62bbfaeb8048f9f62ee9e7c1,2022-06-29_09h11.09.746,Colour_Asymmetry_Pilot,2022.1.3,Win32,60.04202942,62bbe60bf3d75ef465d3e404,,,,,,,,,,,,,,,,,,,,,,,,,,,,,,,,,,,,,,,,,,,,,,,,,,,,,,,,,,,,,,,,,,,,,,,,,,,,,,,,,,,,,,,,,,,,,,,,,,,,,,,,,,,,,,,,,,,,,,,,,,,,,,,,,,,,,,,,,,,,,,,,,,,,,,,,,,,,,,
0,39,39,72,1,,617118971b29a7f27b2baec5,62bbfaeb8048f9f62ee9e7c1,2022-06-29_09h11.09.746,Colour_Asymmetry_Pilot,2022.1.3,Win32,60.04202942,62bbe60bf3d75ef465d3e404,,,,,,,,,,,,,,,,,,,,,,,,,,,,,,,,,,,,,,,,,,,,,,,,,,,,,,,,,,,,,,,,,,,,,,,,,,,,,,,,,,,,,,,,,,,,,,,,,,,,,,,,,,,,,,,,,,,,,,,,,,,,,,,,,,,,,,,,,,,,,,,,,,,,,,,,,,,,,,
0,40,40,40,1,,617118971b29a7f27b2baec5,62bbfaeb8048f9f62ee9e7c1,2022-06-29_09h11.09.746,Colour_Asymmetry_Pilot,2022.1.3,Win32,60.04202942,62bbe60bf3d75ef465d3e404,,,,,,,,,,,,,,,,,,,,,,,,,,,,,,,,,,,,,,,,,,,,,,,,,,,,,,,,,,,,,,,,,,,,,,,,,,,,,,,,,,,,,,,,,,,,,,,,,,,,,,,,,,,,,,,,,,,,,,,,,,,,,,,,,,,,,,,,,,,,,,,,,,,,,,,,,,,,,,
0,41,41,23,1,,617118971b29a7f27b2baec5,62bbfaeb8048f9f62ee9e7c1,2022-06-29_09h11.09.746,Colour_Asymmetry_Pilot,2022.1.3,Win32,60.04202942,62bbe60bf3d75ef465d3e404,,,,,,,,,,,,,,,,,,,,,,,,,,,,,,,,,,,,,,,,,,,,,,,,,,,,,,,,,,,,,,,,,,,,,,,,,,,,,,,,,,,,,,,,,,,,,,,,,,,,,,,,,,,,,,,,,,,,,,,,,,,,,,,,,,,,,,,,,,,,,,,,,,,,,,,,,,,,,,
0,42,42,32,1,,617118971b29a7f27b2baec5,62bbfaeb8048f9f62ee9e7c1,2022-06-29_09h11.09.746,Colour_Asymmetry_Pilot,2022.1.3,Win32,60.04202942,62bbe60bf3d75ef465d3e404,,,,,,,,,,,,,,,,,,,,,,,,,,,,,,,,,,,,,,,,,,,,,,,,,,,,,,,,,,,,,,,,,,,,,,,,,,,,,,,,,,,,,,,,,,,,,,,,,,,,,,,,,,,,,,,,,,,,,,,,,,,,,,,,,,,,,,,,,,,,,,,,,,,,,,,,,,,,,,
0,43,43,84,1,,617118971b29a7f27b2baec5,62bbfaeb8048f9f62ee9e7c1,2022-06-29_09h11.09.746,Colour_Asymmetry_Pilot,2022.1.3,Win32,60.04202942,62bbe60bf3d75ef465d3e404,,,,,,,,,,,,,,,,,,,,,,,,,,,,,,,,,,,,,,,,,,,,,,,,,,,,,,,,,,,,,,,,,,,,,,,,,,,,,,,,,,,,,,,,,,,,,,,,,,,,,,,,,,,,,,,,,,,,,,,,,,,,,,,,,,,,,,,,,,,,,,,,,,,,,,,,,,,,,,
0,44,44,71,1,,617118971b29a7f27b2baec5,62bbfaeb8048f9f62ee9e7c1,2022-06-29_09h11.09.746,Colour_Asymmetry_Pilot,2022.1.3,Win32,60.04202942,62bbe60bf3d75ef465d3e404,,,,,,,,,,,,,,,,,,,,,,,,,,,,,,,,,,,,,,,,,,,,,,,,,,,,,,,,,,,,,,,,,,,,,,,,,,,,,,,,,,,,,,,,,,,,,,,,,,,,,,,,,,,,,,,,,,,,,,,,,,,,,,,,,,,,,,,,,,,,,,,,,,,,,,,,,,,,,,
0,45,45,7,1,,617118971b29a7f27b2baec5,62bbfaeb8048f9f62ee9e7c1,2022-06-29_09h11.09.746,Colour_Asymmetry_Pilot,2022.1.3,Win32,60.04202942,62bbe60bf3d75ef465d3e404,,,,,,,,,,,,,,,,,,,,,,,,,,,,,,,,,,,,,,,,,,,,,,,,,,,,,,,,,,,,,,,,,,,,,,,,,,,,,,,,,,,,,,,,,,,,,,,,,,,,,,,,,,,,,,,,,,,,,,,,,,,,,,,,,,,,,,,,,,,,,,,,,,,,,,,,,,,,,,
0,46,46,8,1,,617118971b29a7f27b2baec5,62bbfaeb8048f9f62ee9e7c1,2022-06-29_09h11.09.746,Colour_Asymmetry_Pilot,2022.1.3,Win32,60.04202942,62bbe60bf3d75ef465d3e404,,,,,,,,,,,,,,,,,,,,,,,,,,,,,,,,,,,,,,,,,,,,,,,,,,,,,,,,,,,,,,,,,,,,,,,,,,,,,,,,,,,,,,,,,,,,,,,,,,,,,,,,,,,,,,,,,,,,,,,,,,,,,,,,,,,,,,,,,,,,,,,,,,,,,,,,,,,,,,
0,47,47,86,1,,617118971b29a7f27b2baec5,62bbfaeb8048f9f62ee9e7c1,2022-06-29_09h11.09.746,Colour_Asymmetry_Pilot,2022.1.3,Win32,60.04202942,62bbe60bf3d75ef465d3e404,,,,,,,,,,,,,,,,,,,,,,,,,,,,,,,,,,,,,,,,,,,,,,,,,,,,,,,,,,,,,,,,,,,,,,,,,,,,,,,,,,,,,,,,,,,,,,,,,,,,,,,,,,,,,,,,,,,,,,,,,,,,,,,,,,,,,,,,,,,,,,,,,,,,,,,,,,,,,,
0,48,48,10,1,,617118971b29a7f27b2baec5,62bbfaeb8048f9f62ee9e7c1,2022-06-29_09h11.09.746,Colour_Asymmetry_Pilot,2022.1.3,Win32,60.04202942,62bbe60bf3d75ef465d3e404,,,,,,,,,,,,,,,,,,,,,,,,,,,,,,,,,,,,,,,,,,,,,,,,,,,,,,,,,,,,,,,,,,,,,,,,,,,,,,,,,,,,,,,,,,,,,,,,,,,,,,,,,,,,,,,,,,,,,,,,,,,,,,,,,,,,,,,,,,,,,,,,,,,,,,,,,,,,,,
0,49,49,31,1,,617118971b29a7f27b2baec5,62bbfaeb8048f9f62ee9e7c1,2022-06-29_09h11.09.746,Colour_Asymmetry_Pilot,2022.1.3,Win32,60.04202942,62bbe60bf3d75ef465d3e404,,,,,,,,,,,,,,,,,,,,,,,,,,,,,,,,,,,,,,,,,,,,,,,,,,,,,,,,,,,,,,,,,,,,,,,,,,,,,,,,,,,,,,,,,,,,,,,,,,,,,,,,,,,,,,,,,,,,,,,,,,,,,,,,,,,,,,,,,,,,,,,,,,,,,,,,,,,,,,
0,50,50,78,1,,617118971b29a7f27b2baec5,62bbfaeb8048f9f62ee9e7c1,2022-06-29_09h11.09.746,Colour_Asymmetry_Pilot,2022.1.3,Win32,60.04202942,62bbe60bf3d75ef465d3e404,,,,,,,,,,,,,,,,,,,,,,,,,,,,,,,,,,,,,,,,,,,,,,,,,,,,,,,,,,,,,,,,,,,,,,,,,,,,,,,,,,,,,,,,,,,,,,,,,,,,,,,,,,,,,,,,,,,,,,,,,,,,,,,,,,,,,,,,,,,,,,,,,,,,,,,,,,,,,,
0,51,51,47,1,,617118971b29a7f27b2baec5,62bbfaeb8048f9f62ee9e7c1,2022-06-29_09h11.09.746,Colour_Asymmetry_Pilot,2022.1.3,Win32,60.04202942,62bbe60bf3d75ef465d3e404,,,,,,,,,,,,,,,,,,,,,,,,,,,,,,,,,,,,,,,,,,,,,,,,,,,,,,,,,,,,,,,,,,,,,,,,,,,,,,,,,,,,,,,,,,,,,,,,,,,,,,,,,,,,,,,,,,,,,,,,,,,,,,,,,,,,,,,,,,,,,,,,,,,,,,,,,,,,,,
0,52,52,80,1,,617118971b29a7f27b2baec5,62bbfaeb8048f9f62ee9e7c1,2022-06-29_09h11.09.746,Colour_Asymmetry_Pilot,2022.1.3,Win32,60.04202942,62bbe60bf3d75ef465d3e404,,,,,,,,,,,,,,,,,,,,,,,,,,,,,,,,,,,,,,,,,,,,,,,,,,,,,,,,,,,,,,,,,,,,,,,,,,,,,,,,,,,,,,,,,,,,,,,,,,,,,,,,,,,,,,,,,,,,,,,,,,,,,,,,,,,,,,,,,,,,,,,,,,,,,,,,,,,,,,
0,53,53,4,1,,617118971b29a7f27b2baec5,62bbfaeb8048f9f62ee9e7c1,2022-06-29_09h11.09.746,Colour_Asymmetry_Pilot,2022.1.3,Win32,60.04202942,62bbe60bf3d75ef465d3e404,,,,,,,,,,,,,,,,,,,,,,,,,,,,,,,,,,,,,,,,,,,,,,,,,,,,,,,,,,,,,,,,,,,,,,,,,,,,,,,,,,,,,,,,,,,,,,,,,,,,,,,,,,,,,,,,,,,,,,,,,,,,,,,,,,,,,,,,,,,,,,,,,,,,,,,,,,,,,,
0,54,54,69,1,,617118971b29a7f27b2baec5,62bbfaeb8048f9f62ee9e7c1,2022-06-29_09h11.09.746,Colour_Asymmetry_Pilot,2022.1.3,Win32,60.04202942,62bbe60bf3d75ef465d3e404,,,,,,,,,,,,,,,,,,,,,,,,,,,,,,,,,,,,,,,,,,,,,,,,,,,,,,,,,,,,,,,,,,,,,,,,,,,,,,,,,,,,,,,,,,,,,,,,,,,,,,,,,,,,,,,,,,,,,,,,,,,,,,,,,,,,,,,,,,,,,,,,,,,,,,,,,,,,,,
0,55,55,3,1,,617118971b29a7f27b2baec5,62bbfaeb8048f9f62ee9e7c1,2022-06-29_09h11.09.746,Colour_Asymmetry_Pilot,2022.1.3,Win32,60.04202942,62bbe60bf3d75ef465d3e404,,,,,,,,,,,,,,,,,,,,,,,,,,,,,,,,,,,,,,,,,,,,,,,,,,,,,,,,,,,,,,,,,,,,,,,,,,,,,,,,,,,,,,,,,,,,,,,,,,,,,,,,,,,,,,,,,,,,,,,,,,,,,,,,,,,,,,,,,,,,,,,,,,,,,,,,,,,,,,
0,56,56,29,1,,617118971b29a7f27b2baec5,62bbfaeb8048f9f62ee9e7c1,2022-06-29_09h11.09.746,Colour_Asymmetry_Pilot,2022.1.3,Win32,60.04202942,62bbe60bf3d75ef465d3e404,,,,,,,,,,,,,,,,,,,,,,,,,,,,,,,,,,,,,,,,,,,,,,,,,,,,,,,,,,,,,,,,,,,,,,,,,,,,,,,,,,,,,,,,,,,,,,,,,,,,,,,,,,,,,,,,,,,,,,,,,,,,,,,,,,,,,,,,,,,,,,,,,,,,,,,,,,,,,,
0,57,57,73,1,,617118971b29a7f27b2baec5,62bbfaeb8048f9f62ee9e7c1,2022-06-29_09h11.09.746,Colour_Asymmetry_Pilot,2022.1.3,Win32,60.04202942,62bbe60bf3d75ef465d3e404,,,,,,,,,,,,,,,,,,,,,,,,,,,,,,,,,,,,,,,,,,,,,,,,,,,,,,,,,,,,,,,,,,,,,,,,,,,,,,,,,,,,,,,,,,,,,,,,,,,,,,,,,,,,,,,,,,,,,,,,,,,,,,,,,,,,,,,,,,,,,,,,,,,,,,,,,,,,,,
0,58,58,89,1,,617118971b29a7f27b2baec5,62bbfaeb8048f9f62ee9e7c1,2022-06-29_09h11.09.746,Colour_Asymmetry_Pilot,2022.1.3,Win32,60.04202942,62bbe60bf3d75ef465d3e404,,,,,,,,,,,,,,,,,,,,,,,,,,,,,,,,,,,,,,,,,,,,,,,,,,,,,,,,,,,,,,,,,,,,,,,,,,,,,,,,,,,,,,,,,,,,,,,,,,,,,,,,,,,,,,,,,,,,,,,,,,,,,,,,,,,,,,,,,,,,,,,,,,,,,,,,,,,,,,
0,59,59,82,1,,617118971b29a7f27b2baec5,62bbfaeb8048f9f62ee9e7c1,2022-06-29_09h11.09.746,Colour_Asymmetry_Pilot,2022.1.3,Win32,60.04202942,62bbe60bf3d75ef465d3e404,,,,,,,,,,,,,,,,,,,,,,,,,,,,,,,,,,,,,,,,,,,,,,,,,,,,,,,,,,,,,,,,,,,,,,,,,,,,,,,,,,,,,,,,,,,,,,,,,,,,,,,,,,,,,,,,,,,,,,,,,,,,,,,,,,,,,,,,,,,,,,,,,,,,,,,,,,,,,,
0,60,60,52,1,,617118971b29a7f27b2baec5,62bbfaeb8048f9f62ee9e7c1,2022-06-29_09h11.09.746,Colour_Asymmetry_Pilot,2022.1.3,Win32,60.04202942,62bbe60bf3d75ef465d3e404,,,,,,,,,,,,,,,,,,,,,,,,,,,,,,,,,,,,,,,,,,,,,,,,,,,,,,,,,,,,,,,,,,,,,,,,,,,,,,,,,,,,,,,,,,,,,,,,,,,,,,,,,,,,,,,,,,,,,,,,,,,,,,,,,,,,,,,,,,,,,,,,,,,,,,,,,,,,,,
0,61,61,79,1,,617118971b29a7f27b2baec5,62bbfaeb8048f9f62ee9e7c1,2022-06-29_09h11.09.746,Colour_Asymmetry_Pilot,2022.1.3,Win32,60.04202942,62bbe60bf3d75ef465d3e404,,,,,,,,,,,,,,,,,,,,,,,,,,,,,,,,,,,,,,,,,,,,,,,,,,,,,,,,,,,,,,,,,,,,,,,,,,,,,,,,,,,,,,,,,,,,,,,,,,,,,,,,,,,,,,,,,,,,,,,,,,,,,,,,,,,,,,,,,,,,,,,,,,,,,,,,,,,,,,
0,62,62,38,1,,617118971b29a7f27b2baec5,62bbfaeb8048f9f62ee9e7c1,2022-06-29_09h11.09.746,Colour_Asymmetry_Pilot,2022.1.3,Win32,60.04202942,62bbe60bf3d75ef465d3e404,,,,,,,,,,,,,,,,,,,,,,,,,,,,,,,,,,,,,,,,,,,,,,,,,,,,,,,,,,,,,,,,,,,,,,,,,,,,,,,,,,,,,,,,,,,,,,,,,,,,,,,,,,,,,,,,,,,,,,,,,,,,,,,,,,,,,,,,,,,,,,,,,,,,,,,,,,,,,,
0,63,63,76,1,,617118971b29a7f27b2baec5,62bbfaeb8048f9f62ee9e7c1,2022-06-29_09h11.09.746,Colour_Asymmetry_Pilot,2022.1.3,Win32,60.04202942,62bbe60bf3d75ef465d3e404,,,,,,,,,,,,,,,,,,,,,,,,,,,,,,,,,,,,,,,,,,,,,,,,,,,,,,,,,,,,,,,,,,,,,,,,,,,,,,,,,,,,,,,,,,,,,,,,,,,,,,,,,,,,,,,,,,,,,,,,,,,,,,,,,,,,,,,,,,,,,,,,,,,,,,,,,,,,,,
0,64,64,6,1,,617118971b29a7f27b2baec5,62bbfaeb8048f9f62ee9e7c1,2022-06-29_09h11.09.746,Colour_Asymmetry_Pilot,2022.1.3,Win32,60.04202942,62bbe60bf3d75ef465d3e404,,,,,,,,,,,,,,,,,,,,,,,,,,,,,,,,,,,,,,,,,,,,,,,,,,,,,,,,,,,,,,,,,,,,,,,,,,,,,,,,,,,,,,,,,,,,,,,,,,,,,,,,,,,,,,,,,,,,,,,,,,,,,,,,,,,,,,,,,,,,,,,,,,,,,,,,,,,,,,
0,65,65,81,1,,617118971b29a7f27b2baec5,62bbfaeb8048f9f62ee9e7c1,2022-06-29_09h11.09.746,Colour_Asymmetry_Pilot,2022.1.3,Win32,60.04202942,62bbe60bf3d75ef465d3e404,,,,,,,,,,,,,,,,,,,,,,,,,,,,,,,,,,,,,,,,,,,,,,,,,,,,,,,,,,,,,,,,,,,,,,,,,,,,,,,,,,,,,,,,,,,,,,,,,,,,,,,,,,,,,,,,,,,,,,,,,,,,,,,,,,,,,,,,,,,,,,,,,,,,,,,,,,,,,,
0,66,66,1,1,,617118971b29a7f27b2baec5,62bbfaeb8048f9f62ee9e7c1,2022-06-29_09h11.09.746,Colour_Asymmetry_Pilot,2022.1.3,Win32,60.04202942,62bbe60bf3d75ef465d3e404,,,,,,,,,,,,,,,,,,,,,,,,,,,,,,,,,,,,,,,,,,,,,,,,,,,,,,,,,,,,,,,,,,,,,,,,,,,,,,,,,,,,,,,,,,,,,,,,,,,,,,,,,,,,,,,,,,,,,,,,,,,,,,,,,,,,,,,,,,,,,,,,,,,,,,,,,,,,,,
0,67,67,91,1,,617118971b29a7f27b2baec5,62bbfaeb8048f9f62ee9e7c1,2022-06-29_09h11.09.746,Colour_Asymmetry_Pilot,2022.1.3,Win32,60.04202942,62bbe60bf3d75ef465d3e404,,,,,,,,,,,,,,,,,,,,,,,,,,,,,,,,,,,,,,,,,,,,,,,,,,,,,,,,,,,,,,,,,,,,,,,,,,,,,,,,,,,,,,,,,,,,,,,,,,,,,,,,,,,,,,,,,,,,,,,,,,,,,,,,,,,,,,,,,,,,,,,,,,,,,,,,,,,,,,
0,68,68,44,1,,617118971b29a7f27b2baec5,62bbfaeb8048f9f62ee9e7c1,2022-06-29_09h11.09.746,Colour_Asymmetry_Pilot,2022.1.3,Win32,60.04202942,62bbe60bf3d75ef465d3e404,,,,,,,,,,,,,,,,,,,,,,,,,,,,,,,,,,,,,,,,,,,,,,,,,,,,,,,,,,,,,,,,,,,,,,,,,,,,,,,,,,,,,,,,,,,,,,,,,,,,,,,,,,,,,,,,,,,,,,,,,,,,,,,,,,,,,,,,,,,,,,,,,,,,,,,,,,,,,,
0,69,69,75,1,,617118971b29a7f27b2baec5,62bbfaeb8048f9f62ee9e7c1,2022-06-29_09h11.09.746,Colour_Asymmetry_Pilot,2022.1.3,Win32,60.04202942,62bbe60bf3d75ef465d3e404,,,,,,,,,,,,,,,,,,,,,,,,,,,,,,,,,,,,,,,,,,,,,,,,,,,,,,,,,,,,,,,,,,,,,,,,,,,,,,,,,,,,,,,,,,,,,,,,,,,,,,,,,,,,,,,,,,,,,,,,,,,,,,,,,,,,,,,,,,,,,,,,,,,,,,,,,,,,,,
0,70,70,59,1,,617118971b29a7f27b2baec5,62bbfaeb8048f9f62ee9e7c1,2022-06-29_09h11.09.746,Colour_Asymmetry_Pilot,2022.1.3,Win32,60.04202942,62bbe60bf3d75ef465d3e404,,,,,,,,,,,,,,,,,,,,,,,,,,,,,,,,,,,,,,,,,,,,,,,,,,,,,,,,,,,,,,,,,,,,,,,,,,,,,,,,,,,,,,,,,,,,,,,,,,,,,,,,,,,,,,,,,,,,,,,,,,,,,,,,,,,,,,,,,,,,,,,,,,,,,,,,,,,,,,
0,71,71,87,1,,617118971b29a7f27b2baec5,62bbfaeb8048f9f62ee9e7c1,2022-06-29_09h11.09.746,Colour_Asymmetry_Pilot,2022.1.3,Win32,60.04202942,62bbe60bf3d75ef465d3e404,,,,,,,,,,,,,,,,,,,,,,,,,,,,,,,,,,,,,,,,,,,,,,,,,,,,,,,,,,,,,,,,,,,,,,,,,,,,,,,,,,,,,,,,,,,,,,,,,,,,,,,,,,,,,,,,,,,,,,,,,,,,,,,,,,,,,,,,,,,,,,,,,,,,,,,,,,,,,,
0,72,72,27,1,,617118971b29a7f27b2baec5,62bbfaeb8048f9f62ee9e7c1,2022-06-29_09h11.09.746,Colour_Asymmetry_Pilot,2022.1.3,Win32,60.04202942,62bbe60bf3d75ef465d3e404,,,,,,,,,,,,,,,,,,,,,,,,,,,,,,,,,,,,,,,,,,,,,,,,,,,,,,,,,,,,,,,,,,,,,,,,,,,,,,,,,,,,,,,,,,,,,,,,,,,,,,,,,,,,,,,,,,,,,,,,,,,,,,,,,,,,,,,,,,,,,,,,,,,,,,,,,,,,,,
0,73,73,11,1,,617118971b29a7f27b2baec5,62bbfaeb8048f9f62ee9e7c1,2022-06-29_09h11.09.746,Colour_Asymmetry_Pilot,2022.1.3,Win32,60.04202942,62bbe60bf3d75ef465d3e404,,,,,,,,,,,,,,,,,,,,,,,,,,,,,,,,,,,,,,,,,,,,,,,,,,,,,,,,,,,,,,,,,,,,,,,,,,,,,,,,,,,,,,,,,,,,,,,,,,,,,,,,,,,,,,,,,,,,,,,,,,,,,,,,,,,,,,,,,,,,,,,,,,,,,,,,,,,,,,
0,74,74,58,1,,617118971b29a7f27b2baec5,62bbfaeb8048f9f62ee9e7c1,2022-06-29_09h11.09.746,Colour_Asymmetry_Pilot,2022.1.3,Win32,60.04202942,62bbe60bf3d75ef465d3e404,,,,,,,,,,,,,,,,,,,,,,,,,,,,,,,,,,,,,,,,,,,,,,,,,,,,,,,,,,,,,,,,,,,,,,,,,,,,,,,,,,,,,,,,,,,,,,,,,,,,,,,,,,,,,,,,,,,,,,,,,,,,,,,,,,,,,,,,,,,,,,,,,,,,,,,,,,,,,,
0,75,75,22,1,,617118971b29a7f27b2baec5,62bbfaeb8048f9f62ee9e7c1,2022-06-29_09h11.09.746,Colour_Asymmetry_Pilot,2022.1.3,Win32,60.04202942,62bbe60bf3d75ef465d3e404,,,,,,,,,,,,,,,,,,,,,,,,,,,,,,,,,,,,,,,,,,,,,,,,,,,,,,,,,,,,,,,,,,,,,,,,,,,,,,,,,,,,,,,,,,,,,,,,,,,,,,,,,,,,,,,,,,,,,,,,,,,,,,,,,,,,,,,,,,,,,,,,,,,,,,,,,,,,,,
0,76,76,88,1,,617118971b29a7f27b2baec5,62bbfaeb8048f9f62ee9e7c1,2022-06-29_09h11.09.746,Colour_Asymmetry_Pilot,2022.1.3,Win32,60.04202942,62bbe60bf3d75ef465d3e404,,,,,,,,,,,,,,,,,,,,,,,,,,,,,,,,,,,,,,,,,,,,,,,,,,,,,,,,,,,,,,,,,,,,,,,,,,,,,,,,,,,,,,,,,,,,,,,,,,,,,,,,,,,,,,,,,,,,,,,,,,,,,,,,,,,,,,,,,,,,,,,,,,,,,,,,,,,,,,
0,77,77,66,1,,617118971b29a7f27b2baec5,62bbfaeb8048f9f62ee9e7c1,2022-06-29_09h11.09.746,Colour_Asymmetry_Pilot,2022.1.3,Win32,60.04202942,62bbe60bf3d75ef465d3e404,,,,,,,,,,,,,,,,,,,,,,,,,,,,,,,,,,,,,,,,,,,,,,,,,,,,,,,,,,,,,,,,,,,,,,,,,,,,,,,,,,,,,,,,,,,,,,,,,,,,,,,,,,,,,,,,,,,,,,,,,,,,,,,,,,,,,,,,,,,,,,,,,,,,,,,,,,,,,,
0,78,78,14,1,,617118971b29a7f27b2baec5,62bbfaeb8048f9f62ee9e7c1,2022-06-29_09h11.09.746,Colour_Asymmetry_Pilot,2022.1.3,Win32,60.04202942,62bbe60bf3d75ef465d3e404,,,,,,,,,,,,,,,,,,,,,,,,,,,,,,,,,,,,,,,,,,,,,,,,,,,,,,,,,,,,,,,,,,,,,,,,,,,,,,,,,,,,,,,,,,,,,,,,,,,,,,,,,,,,,,,,,,,,,,,,,,,,,,,,,,,,,,,,,,,,,,,,,,,,,,,,,,,,,,
0,79,79,19,1,,617118971b29a7f27b2baec5,62bbfaeb8048f9f62ee9e7c1,2022-06-29_09h11.09.746,Colour_Asymmetry_Pilot,2022.1.3,Win32,60.04202942,62bbe60bf3d75ef465d3e404,,,,,,,,,,,,,,,,,,,,,,,,,,,,,,,,,,,,,,,,,,,,,,,,,,,,,,,,,,,,,,,,,,,,,,,,,,,,,,,,,,,,,,,,,,,,,,,,,,,,,,,,,,,,,,,,,,,,,,,,,,,,,,,,,,,,,,,,,,,,,,,,,,,,,,,,,,,,,,
0,80,80,33,1,,617118971b29a7f27b2baec5,62bbfaeb8048f9f62ee9e7c1,2022-06-29_09h11.09.746,Colour_Asymmetry_Pilot,2022.1.3,Win32,60.04202942,62bbe60bf3d75ef465d3e404,,,,,,,,,,,,,,,,,,,,,,,,,,,,,,,,,,,,,,,,,,,,,,,,,,,,,,,,,,,,,,,,,,,,,,,,,,,,,,,,,,,,,,,,,,,,,,,,,,,,,,,,,,,,,,,,,,,,,,,,,,,,,,,,,,,,,,,,,,,,,,,,,,,,,,,,,,,,,,
0,81,81,48,1,,617118971b29a7f27b2baec5,62bbfaeb8048f9f62ee9e7c1,2022-06-29_09h11.09.746,Colour_Asymmetry_Pilot,2022.1.3,Win32,60.04202942,62bbe60bf3d75ef465d3e404,,,,,,,,,,,,,,,,,,,,,,,,,,,,,,,,,,,,,,,,,,,,,,,,,,,,,,,,,,,,,,,,,,,,,,,,,,,,,,,,,,,,,,,,,,,,,,,,,,,,,,,,,,,,,,,,,,,,,,,,,,,,,,,,,,,,,,,,,,,,,,,,,,,,,,,,,,,,,,
0,82,82,85,1,,617118971b29a7f27b2baec5,62bbfaeb8048f9f62ee9e7c1,2022-06-29_09h11.09.746,Colour_Asymmetry_Pilot,2022.1.3,Win32,60.04202942,62bbe60bf3d75ef465d3e404,,,,,,,,,,,,,,,,,,,,,,,,,,,,,,,,,,,,,,,,,,,,,,,,,,,,,,,,,,,,,,,,,,,,,,,,,,,,,,,,,,,,,,,,,,,,,,,,,,,,,,,,,,,,,,,,,,,,,,,,,,,,,,,,,,,,,,,,,,,,,,,,,,,,,,,,,,,,,,
0,83,83,54,1,,617118971b29a7f27b2baec5,62bbfaeb8048f9f62ee9e7c1,2022-06-29_09h11.09.746,Colour_Asymmetry_Pilot,2022.1.3,Win32,60.04202942,62bbe60bf3d75ef465d3e404,,,,,,,,,,,,,,,,,,,,,,,,,,,,,,,,,,,,,,,,,,,,,,,,,,,,,,,,,,,,,,,,,,,,,,,,,,,,,,,,,,,,,,,,,,,,,,,,,,,,,,,,,,,,,,,,,,,,,,,,,,,,,,,,,,,,,,,,,,,,,,,,,,,,,,,,,,,,,,
0,84,84,74,1,,617118971b29a7f27b2baec5,62bbfaeb8048f9f62ee9e7c1,2022-06-29_09h11.09.746,Colour_Asymmetry_Pilot,2022.1.3,Win32,60.04202942,62bbe60bf3d75ef465d3e404,,,,,,,,,,,,,,,,,,,,,,,,,,,,,,,,,,,,,,,,,,,,,,,,,,,,,,,,,,,,,,,,,,,,,,,,,,,,,,,,,,,,,,,,,,,,,,,,,,,,,,,,,,,,,,,,,,,,,,,,,,,,,,,,,,,,,,,,,,,,,,,,,,,,,,,,,,,,,,
0,85,85,34,1,,617118971b29a7f27b2baec5,62bbfaeb8048f9f62ee9e7c1,2022-06-29_09h11.09.746,Colour_Asymmetry_Pilot,2022.1.3,Win32,60.04202942,62bbe60bf3d75ef465d3e404,,,,,,,,,,,,,,,,,,,,,,,,,,,,,,,,,,,,,,,,,,,,,,,,,,,,,,,,,,,,,,,,,,,,,,,,,,,,,,,,,,,,,,,,,,,,,,,,,,,,,,,,,,,,,,,,,,,,,,,,,,,,,,,,,,,,,,,,,,,,,,,,,,,,,,,,,,,,,,
0,86,86,90,1,,617118971b29a7f27b2baec5,62bbfaeb8048f9f62ee9e7c1,2022-06-29_09h11.09.746,Colour_Asymmetry_Pilot,2022.1.3,Win32,60.04202942,62bbe60bf3d75ef465d3e404,,,,,,,,,,,,,,,,,,,,,,,,,,,,,,,,,,,,,,,,,,,,,,,,,,,,,,,,,,,,,,,,,,,,,,,,,,,,,,,,,,,,,,,,,,,,,,,,,,,,,,,,,,,,,,,,,,,,,,,,,,,,,,,,,,,,,,,,,,,,,,,,,,,,,,,,,,,,,,
0,87,87,25,1,,617118971b29a7f27b2baec5,62bbfaeb8048f9f62ee9e7c1,2022-06-29_09h11.09.746,Colour_Asymmetry_Pilot,2022.1.3,Win32,60.04202942,62bbe60bf3d75ef465d3e404,,,,,,,,,,,,,,,,,,,,,,,,,,,,,,,,,,,,,,,,,,,,,,,,,,,,,,,,,,,,,,,,,,,,,,,,,,,,,,,,,,,,,,,,,,,,,,,,,,,,,,,,,,,,,,,,,,,,,,,,,,,,,,,,,,,,,,,,,,,,,,,,,,,,,,,,,,,,,,
0,88,88,65,1,,617118971b29a7f27b2baec5,62bbfaeb8048f9f62ee9e7c1,2022-06-29_09h11.09.746,Colour_Asymmetry_Pilot,2022.1.3,Win32,60.04202942,62bbe60bf3d75ef465d3e404,,,,,,,,,,,,,,,,,,,,,,,,,,,,,,,,,,,,,,,,,,,,,,,,,,,,,,,,,,,,,,,,,,,,,,,,,,,,,,,,,,,,,,,,,,,,,,,,,,,,,,,,,,,,,,,,,,,,,,,,,,,,,,,,,,,,,,,,,,,,,,,,,,,,,,,,,,,,,,
0,89,89,21,1,,617118971b29a7f27b2baec5,62bbfaeb8048f9f62ee9e7c1,2022-06-29_09h11.09.746,Colour_Asymmetry_Pilot,2022.1.3,Win32,60.04202942,62bbe60bf3d75ef465d3e404,,,,,,,,,,,,,,,,,,,,,,,,,,,,,,,,,,,,,,,,,,,,,,,,,,,,,,,,,,,,,,,,,,,,,,,,,,,,,,,,,,,,,,,,,,,,,,,,,,,,,,,,,,,,,,,,,,,,,,,,,,,,,,,,,,,,,,,,,,,,,,,,,,,,,,,,,,,,,,
0,90,90,16,1,,617118971b29a7f27b2baec5,62bbfaeb8048f9f62ee9e7c1,2022-06-29_09h11.09.746,Colour_Asymmetry_Pilot,2022.1.3,Win32,60.04202942,62bbe60bf3d75ef465d3e404,,,,,,,,,,,,,,,,,,,,,,,,,,,,,,,,,,,,,,,,,,,,,,,,,,,,,,,,,,,,,,,,,,,,,,,,,,,,,,,,,,,,,,,,,,,,,,,,,,,,,,,,,,,,,,,,,,,,,,,,,,,,,,,,,,,,,,,,,,,,,,,,,,,,,,,,,,,,,,
0,91,91,41,1,,617118971b29a7f27b2baec5,62bbfaeb8048f9f62ee9e7c1,2022-06-29_09h11.09.746,Colour_Asymmetry_Pilot,2022.1.3,Win32,60.04202942,62bbe60bf3d75ef465d3e404,,,,,,,,,,,,,,,,,,,,,,,,,,,,,,,,,,,,,,,,,,,,,,,,,,,,,,,,,,,,,,,,,,,,,,,,,,,,,,,,,,,,,,,,,,,,,,,,,,,,,,,,,,,,,,,,,,,,,,,,,,,,,,,,,,,,,,,,,,,,,,,,,,,,,,,,,,,,,,
0,92,92,77,1,,617118971b29a7f27b2baec5,62bbfaeb8048f9f62ee9e7c1,2022-06-29_09h11.09.746,Colour_Asymmetry_Pilot,2022.1.3,Win32,60.04202942,62bbe60bf3d75ef465d3e404,,,,,,,,,,,,,,,,,,,,,,,,,,,,,,,,,,,,,,,,,,,,,,,,,,,,,,,,,,,,,,,,,,,,,,,,,,,,,,,,,,,,,,,,,,,,,,,,,,,,,,,,,,,,,,,,,,,,,,,,,,,,,,,,,,,,,,,,,,,,,,,,,,,,,,,,,,,,,,
,,,,,,617118971b29a7f27b2baec5,62bbfaeb8048f9f62ee9e7c1,2022-06-29_09h11.09.746,Colour_Asymmetry_Pilot,2022.1.3,Win32,60.04202942,62bbe60bf3d75ef465d3e404,0,0,0,126,1,fourtwo,,,,,,,,,,,,,,,,,,,,,,,,,,,,,,,,,,,,,,,,,,,,,,,,,,,,,,,,,,,,,,,,,,,,,,,,,,,,,,,,,,,,,,,,,,,,,,,,,,,,,,,,,,,,,,,,,,,,,,,,,,,,,,,,,,,,,,,,,,,,,,,,,,,,,,,,
,,,,,,617118971b29a7f27b2baec5,62bbfaeb8048f9f62ee9e7c1,2022-06-29_09h11.09.746,Colour_Asymmetry_Pilot,2022.1.3,Win32,60.04202942,62bbe60bf3d75ef465d3e404,0,1,1,46,1,fourtwo,,,,,,,,,,,,,,,,,,,,,,,,,,,,,,,,,,,,,,,,,,,,,,,,,,,,,,,,,,,,,,,,,,,,,,,,,,,,,,,,,,,,,,,,,,,,,,,,,,,,,,,,,,,,,,,,,,,,,,,,,,,,,,,,,,,,,,,,,,,,,,,,,,,,,,,,
,,,,,,617118971b29a7f27b2baec5,62bbfaeb8048f9f62ee9e7c1,2022-06-29_09h11.09.746,Colour_Asymmetry_Pilot,2022.1.3,Win32,60.04202942,62bbe60bf3d75ef465d3e404,0,2,2,64,1,onetwo,,,,,,,,,,,,,,,,,,,,,,,,,,,,,,,,,,,,,,,,,,,,,,,,,,,,,,,,,,,,,,,,,,,,,,,,,,,,,,,,,,,,,,,,,,,,,,,,,,,,,,,,,,,,,,,,,,,,,,,,,,,,,,,,,,,,,,,,,,,,,,,,,,,,,,,,
,,,,,,617118971b29a7f27b2baec5,62bbfaeb8048f9f62ee9e7c1,2022-06-29_09h11.09.746,Colour_Asymmetry_Pilot,2022.1.3,Win32,60.04202942,62bbe60bf3d75ef465d3e404,0,3,3,14,1,fourtwo,,,,,,,,,,,,,,,,,,,,,,,,,,,,,,,,,,,,,,,,,,,,,,,,,,,,,,,,,,,,,,,,,,,,,,,,,,,,,,,,,,,,,,,,,,,,,,,,,,,,,,,,,,,,,,,,,,,,,,,,,,,,,,,,,,,,,,,,,,,,,,,,,,,,,,,,
,,,,,,617118971b29a7f27b2baec5,62bbfaeb8048f9f62ee9e7c1,2022-06-29_09h11.09.746,Colour_Asymmetry_Pilot,2022.1.3,Win32,60.04202942,62bbe60bf3d75ef465d3e404,0,4,4,38,1,fourtwo,,,,,,,,,,,,,,,,,,,,,,,,,,,,,,,,,,,,,,,,,,,,,,,,,,,,,,,,,,,,,,,,,,,,,,,,,,,,,,,,,,,,,,,,,,,,,,,,,,,,,,,,,,,,,,,,,,,,,,,,,,,,,,,,,,,,,,,,,,,,,,,,,,,,,,,,
,,,,,,617118971b29a7f27b2baec5,62bbfaeb8048f9f62ee9e7c1,2022-06-29_09h11.09.746,Colour_Asymmetry_Pilot,2022.1.3,Win32,60.04202942,62bbe60bf3d75ef465d3e404,0,5,5,100,1,threeone,,,,,,,,,,,,,,,,,,,,,,,,,,,,,,,,,,,,,,,,,,,,,,,,,,,,,,,,,,,,,,,,,,,,,,,,,,,,,,,,,,,,,,,,,,,,,,,,,,,,,,,,,,,,,,,,,,,,,,,,,,,,,,,,,,,,,,,,,,,,,,,,,,,,,,,,
,,,,,,617118971b29a7f27b2baec5,62bbfaeb8048f9f62ee9e7c1,2022-06-29_09h11.09.746,Colour_Asymmetry_Pilot,2022.1.3,Win32,60.04202942,62bbe60bf3d75ef465d3e404,0,6,6,137,1,onethree,,,,,,,,,,,,,,,,,,,,,,,,,,,,,,,,,,,,,,,,,,,,,,,,,,,,,,,,,,,,,,,,,,,,,,,,,,,,,,,,,,,,,,,,,,,,,,,,,,,,,,,,,,,,,,,,,,,,,,,,,,,,,,,,,,,,,,,,,,,,,,,,,,,,,,,,
,,,,,,617118971b29a7f27b2baec5,62bbfaeb8048f9f62ee9e7c1,2022-06-29_09h11.09.746,Colour_Asymmetry_Pilot,2022.1.3,Win32,60.04202942,62bbe60bf3d75ef465d3e404,0,7,7,37,1,threefour,,,,,,,,,,,,,,,,,,,,,,,,,,,,,,,,,,,,,,,,,,,,,,,,,,,,,,,,,,,,,,,,,,,,,,,,,,,,,,,,,,,,,,,,,,,,,,,,,,,,,,,,,,,,,,,,,,,,,,,,,,,,,,,,,,,,,,,,,,,,,,,,,,,,,,,,
,,,,,,617118971b29a7f27b2baec5,62bbfaeb8048f9f62ee9e7c1,2022-06-29_09h11.09.746,Colour_Asymmetry_Pilot,2022.1.3,Win32,60.04202942,62bbe60bf3d75ef465d3e404,0,8,8,136,1,onetwo,,,,,,,,,,,,,,,,,,,,,,,,,,,,,,,,,,,,,,,,,,,,,,,,,,,,,,,,,,,,,,,,,,,,,,,,,,,,,,,,,,,,,,,,,,,,,,,,,,,,,,,,,,,,,,,,,,,,,,,,,,,,,,,,,,,,,,,,,,,,,,,,,,,,,,,,
,,,,,,617118971b29a7f27b2baec5,62bbfaeb8048f9f62ee9e7c1,2022-06-29_09h11.09.746,Colour_Asymmetry_Pilot,2022.1.3,Win32,60.04202942,62bbe60bf3d75ef465d3e404,0,9,9,113,1,onethree,,,,,,,,,,,,,,,,,,,,,,,,,,,,,,,,,,,,,,,,,,,,,,,,,,,,,,,,,,,,,,,,,,,,,,,,,,,,,,,,,,,,,,,,,,,,,,,,,,,,,,,,,,,,,,,,,,,,,,,,,,,,,,,,,,,,,,,,,,,,,,,,,,,,,,,,
,,,,,,617118971b29a7f27b2baec5,62bbfaeb8048f9f62ee9e7c1,2022-06-29_09h11.09.746,Colour_Asymmetry_Pilot,2022.1.3,Win32,60.04202942,62bbe60bf3d75ef465d3e404,0,10,10,5,1,threefour,,,,,,,,,,,,,,,,,,,,,,,,,,,,,,,,,,,,,,,,,,,,,,,,,,,,,,,,,,,,,,,,,,,,,,,,,,,,,,,,,,,,,,,,,,,,,,,,,,,,,,,,,,,,,,,,,,,,,,,,,,,,,,,,,,,,,,,,,,,,,,,,,,,,,,,,
,,,,,,617118971b29a7f27b2baec5,62bbfaeb8048f9f62ee9e7c1,2022-06-29_09h11.09.746,Colour_Asymmetry_Pilot,2022.1.3,Win32,60.04202942,62bbe60bf3d75ef465d3e404,0,11,11,161,1,onethree,,,,,,,,,,,,,,,,,,,,,,,,,,,,,,,,,,,,,,,,,,,,,,,,,,,,,,,,,,,,,,,,,,,,,,,,,,,,,,,,,,,,,,,,,,,,,,,,,,,,,,,,,,,,,,,,,,,,,,,,,,,,,,,,,,,,,,,,,,,,,,,,,,,,,,,,
,,,,,,617118971b29a7f27b2baec5,62bbfaeb8048f9f62ee9e7c1,2022-06-29_09h11.09.746,Colour_Asymmetry_Pilot,2022.1.3,Win32,60.04202942,62bbe60bf3d75ef465d3e404,0,12,12,6,1,fourtwo,,,,,,,,,,,,,,,,,,,,,,,,,,,,,,,,,,,,,,,,,,,,,,,,,,,,,,,,,,,,,,,,,,,,,,,,,,,,,,,,,,,,,,,,,,,,,,,,,,,,,,,,,,,,,,,,,,,,,,,,,,,,,,,,,,,,,,,,,,,,,,,,,,,,,,,,
,,,,,,617118971b29a7f27b2baec5,62bbfaeb8048f9f62ee9e7c1,2022-06-29_09h11.09.746,Colour_Asymmetry_Pilot,2022.1.3,Win32,60.04202942,62bbe60bf3d75ef465d3e404,0,13,13,140,1,threeone,,,,,,,,,,,,,,,,,,,,,,,,,,,,,,,,,,,,,,,,,,,,,,,,,,,,,,,,,,,,,,,,,,,,,,,,,,,,,,,,,,,,,,,,,,,,,,,,,,,,,,,,,,,,,,,,,,,,,,,,,,,,,,,,,,,,,,,,,,,,,,,,,,,,,,,,
,,,,,,617118971b29a7f27b2baec5,62bbfaeb8048f9f62ee9e7c1,2022-06-29_09h11.09.746,Colour_Asymmetry_Pilot,2022.1.3,Win32,60.04202942,62bbe60bf3d75ef465d3e404,0,14,14,148,1,threeone,,,,,,,,,,,,,,,,,,,,,,,,,,,,,,,,,,,,,,,,,,,,,,,,,,,,,,,,,,,,,,,,,,,,,,,,,,,,,,,,,,,,,,,,,,,,,,,,,,,,,,,,,,,,,,,,,,,,,,,,,,,,,,,,,,,,,,,,,,,,,,,,,,,,,,,,
,,,,,,617118971b29a7f27b2baec5,62bbfaeb8048f9f62ee9e7c1,2022-06-29_09h11.09.746,Colour_Asymmetry_Pilot,2022.1.3,Win32,60.04202942,62bbe60bf3d75ef465d3e404,0,15,15,125,1,threefour,,,,,,,,,,,,,,,,,,,,,,,,,,,,,,,,,,,,,,,,,,,,,,,,,,,,,,,,,,,,,,,,,,,,,,,,,,,,,,,,,,,,,,,,,,,,,,,,,,,,,,,,,,,,,,,,,,,,,,,,,,,,,,,,,,,,,,,,,,,,,,,,,,,,,,,,
,,,,,,617118971b29a7f27b2baec5,62bbfaeb8048f9f62ee9e7c1,2022-06-29_09h11.09.746,Colour_Asymmetry_Pilot,2022.1.3,Win32,60.04202942,62bbe60bf3d75ef465d3e404,0,16,16,23,1,fourthree,,,,,,,,,,,,,,,,,,,,,,,,,,,,,,,,,,,,,,,,,,,,,,,,,,,,,,,,,,,,,,,,,,,,,,,,,,,,,,,,,,,,,,,,,,,,,,,,,,,,,,,,,,,,,,,,,,,,,,,,,,,,,,,,,,,,,,,,,,,,,,,,,,,,,,,,
,,,,,,617118971b29a7f27b2baec5,62bbfaeb8048f9f62ee9e7c1,2022-06-29_09h11.09.746,Colour_Asymmetry_Pilot,2022.1.3,Win32,60.04202942,62bbe60bf3d75ef465d3e404,0,17,17,123,1,twofour,,,,,,,,,,,,,,,,,,,,,,,,,,,,,,,,,,,,,,,,,,,,,,,,,,,,,,,,,,,,,,,,,,,,,,,,,,,,,,,,,,,,,,,,,,,,,,,,,,,,,,,,,,,,,,,,,,,,,,,,,,,,,,,,,,,,,,,,,,,,,,,,,,,,,,,,
,,,,,,617118971b29a7f27b2baec5,62bbfaeb8048f9f62ee9e7c1,2022-06-29_09h11.09.746,Colour_Asymmetry_Pilot,2022.1.3,Win32,60.04202942,62bbe60bf3d75ef465d3e404,0,18,18,109,1,threefour,,,,,,,,,,,,,,,,,,,,,,,,,,,,,,,,,,,,,,,,,,,,,,,,,,,,,,,,,,,,,,,,,,,,,,,,,,,,,,,,,,,,,,,,,,,,,,,,,,,,,,,,,,,,,,,,,,,,,,,,,,,,,,,,,,,,,,,,,,,,,,,,,,,,,,,,
,,,,,,617118971b29a7f27b2baec5,62bbfaeb8048f9f62ee9e7c1,2022-06-29_09h11.09.746,Colour_Asymmetry_Pilot,2022.1.3,Win32,60.04202942,62bbe60bf3d75ef465d3e404,0,19,19,73,1,onethree,,,,,,,,,,,,,,,,,,,,,,,,,,,,,,,,,,,,,,,,,,,,,,,,,,,,,,,,,,,,,,,,,,,,,,,,,,,,,,,,,,,,,,,,,,,,,,,,,,,,,,,,,,,,,,,,,,,,,,,,,,,,,,,,,,,,,,,,,,,,,,,,,,,,,,,,
,,,,,,617118971b29a7f27b2baec5,62bbfaeb8048f9f62ee9e7c1,2022-06-29_09h11.09.746,Colour_Asymmetry_Pilot,2022.1.3,Win32,60.04202942,62bbe60bf3d75ef465d3e404,0,20,20,51,1,twofour,,,,,,,,,,,,,,,,,,,,,,,,,,,,,,,,,,,,,,,,,,,,,,,,,,,,,,,,,,,,,,,,,,,,,,,,,,,,,,,,,,,,,,,,,,,,,,,,,,,,,,,,,,,,,,,,,,,,,,,,,,,,,,,,,,,,,,,,,,,,,,,,,,,,,,,,
,,,,,,617118971b29a7f27b2baec5,62bbfaeb8048f9f62ee9e7c1,2022-06-29_09h11.09.746,Colour_Asymmetry_Pilot,2022.1.3,Win32,60.04202942,62bbe60bf3d75ef465d3e404,0,21,21,131,1,twofour,,,,,,,,,,,,,,,,,,,,,,,,,,,,,,,,,,,,,,,,,,,,,,,,,,,,,,,,,,,,,,,,,,,,,,,,,,,,,,,,,,,,,,,,,,,,,,,,,,,,,,,,,,,,,,,,,,,,,,,,,,,,,,,,,,,,,,,,,,,,,,,,,,,,,,,,
,,,,,,617118971b29a7f27b2baec5,62bbfaeb8048f9f62ee9e7c1,2022-06-29_09h11.09.746,Colour_Asymmetry_Pilot,2022.1.3,Win32,60.04202942,62bbe60bf3d75ef465d3e404,0,22,22,135,1,fourthree,,,,,,,,,,,,,,,,,,,,,,,,,,,,,,,,,,,,,,,,,,,,,,,,,,,,,,,,,,,,,,,,,,,,,,,,,,,,,,,,,,,,,,,,,,,,,,,,,,,,,,,,,,,,,,,,,,,,,,,,,,,,,,,,,,,,,,,,,,,,,,,,,,,,,,,,
,,,,,,617118971b29a7f27b2baec5,62bbfaeb8048f9f62ee9e7c1,2022-06-29_09h11.09.746,Colour_Asymmetry_Pilot,2022.1.3,Win32,60.04202942,62bbe60bf3d75ef465d3e404,0,23,23,88,1,onetwo,,,,,,,,,,,,,,,,,,,,,,,,,,,,,,,,,,,,,,,,,,,,,,,,,,,,,,,,,,,,,,,,,,,,,,,,,,,,,,,,,,,,,,,,,,,,,,,,,,,,,,,,,,,,,,,,,,,,,,,,,,,,,,,,,,,,,,,,,,,,,,,,,,,,,,,,
,,,,,,617118971b29a7f27b2baec5,62bbfaeb8048f9f62ee9e7c1,2022-06-29_09h11.09.746,Colour_Asymmetry_Pilot,2022.1.3,Win32,60.04202942,62bbe60bf3d75ef465d3e404,0,24,24,30,1,fourtwo,,,,,,,,,,,,,,,,,,,,,,,,,,,,,,,,,,,,,,,,,,,,,,,,,,,,,,,,,,,,,,,,,,,,,,,,,,,,,,,,,,,,,,,,,,,,,,,,,,,,,,,,,,,,,,,,,,,,,,,,,,,,,,,,,,,,,,,,,,,,,,,,,,,,,,,,
,,,,,,617118971b29a7f27b2baec5,62bbfaeb8048f9f62ee9e7c1,2022-06-29_09h11.09.746,Colour_Asymmetry_Pilot,2022.1.3,Win32,60.04202942,62bbe60bf3d75ef465d3e404,0,25,25,76,1,threeone,,,,,,,,,,,,,,,,,,,,,,,,,,,,,,,,,,,,,,,,,,,,,,,,,,,,,,,,,,,,,,,,,,,,,,,,,,,,,,,,,,,,,,,,,,,,,,,,,,,,,,,,,,,,,,,,,,,,,,,,,,,,,,,,,,,,,,,,,,,,,,,,,,,,,,,,
,,,,,,617118971b29a7f27b2baec5,62bbfaeb8048f9f62ee9e7c1,2022-06-29_09h11.09.746,Colour_Asymmetry_Pilot,2022.1.3,Win32,60.04202942,62bbe60bf3d75ef465d3e404,0,26,26,15,1,fourthree,,,,,,,,,,,,,,,,,,,,,,,,,,,,,,,,,,,,,,,,,,,,,,,,,,,,,,,,,,,,,,,,,,,,,,,,,,,,,,,,,,,,,,,,,,,,,,,,,,,,,,,,,,,,,,,,,,,,,,,,,,,,,,,,,,,,,,,,,,,,,,,,,,,,,,,,
,,,,,,617118971b29a7f27b2baec5,62bbfaeb8048f9f62ee9e7c1,2022-06-29_09h11.09.746,Colour_Asymmetry_Pilot,2022.1.3,Win32,60.04202942,62bbe60bf3d75ef465d3e404,0,27,27,121,1,onethree,,,,,,,,,,,,,,,,,,,,,,,,,,,,,,,,,,,,,,,,,,,,,,,,,,,,,,,,,,,,,,,,,,,,,,,,,,,,,,,,,,,,,,,,,,,,,,,,,,,,,,,,,,,,,,,,,,,,,,,,,,,,,,,,,,,,,,,,,,,,,,,,,,,,,,,,
,,,,,,617118971b29a7f27b2baec5,62bbfaeb8048f9f62ee9e7c1,2022-06-29_09h11.09.746,Colour_Asymmetry_Pilot,2022.1.3,Win32,60.04202942,62bbe60bf3d75ef465d3e404,0,28,28,111,1,fourthree,,,,,,,,,,,,,,,,,,,,,,,,,,,,,,,,,,,,,,,,,,,,,,,,,,,,,,,,,,,,,,,,,,,,,,,,,,,,,,,,,,,,,,,,,,,,,,,,,,,,,,,,,,,,,,,,,,,,,,,,,,,,,,,,,,,,,,,,,,,,,,,,,,,,,,,,
,,,,,,617118971b29a7f27b2baec5,62bbfaeb8048f9f62ee9e7c1,2022-06-29_09h11.09.746,Colour_Asymmetry_Pilot,2022.1.3,Win32,60.04202942,62bbe60bf3d75ef465d3e404,0,29,29,63,1,fourthree,,,,,,,,,,,,,,,,,,,,,,,,,,,,,,,,,,,,,,,,,,,,,,,,,,,,,,,,,,,,,,,,,,,,,,,,,,,,,,,,,,,,,,,,,,,,,,,,,,,,,,,,,,,,,,,,,,,,,,,,,,,,,,,,,,,,,,,,,,,,,,,,,,,,,,,,
,,,,,,617118971b29a7f27b2baec5,62bbfaeb8048f9f62ee9e7c1,2022-06-29_09h11.09.746,Colour_Asymmetry_Pilot,2022.1.3,Win32,60.04202942,62bbe60bf3d75ef465d3e404,0,30,30,39,1,fourthree,,,,,,,,,,,,,,,,,,,,,,,,,,,,,,,,,,,,,,,,,,,,,,,,,,,,,,,,,,,,,,,,,,,,,,,,,,,,,,,,,,,,,,,,,,,,,,,,,,,,,,,,,,,,,,,,,,,,,,,,,,,,,,,,,,,,,,,,,,,,,,,,,,,,,,,,
,,,,,,617118971b29a7f27b2baec5,62bbfaeb8048f9f62ee9e7c1,2022-06-29_09h11.09.746,Colour_Asymmetry_Pilot,2022.1.3,Win32,60.04202942,62bbe60bf3d75ef465d3e404,0,31,31,143,1,fourthree,,,,,,,,,,,,,,,,,,,,,,,,,,,,,,,,,,,,,,,,,,,,,,,,,,,,,,,,,,,,,,,,,,,,,,,,,,,,,,,,,,,,,,,,,,,,,,,,,,,,,,,,,,,,,,,,,,,,,,,,,,,,,,,,,,,,,,,,,,,,,,,,,,,,,,,,
,,,,,,617118971b29a7f27b2baec5,62bbfaeb8048f9f62ee9e7c1,2022-06-29_09h11.09.746,Colour_Asymmetry_Pilot,2022.1.3,Win32,60.04202942,62bbe60bf3d75ef465d3e404,0,32,32,55,1,fourthree,,,,,,,,,,,,,,,,,,,,,,,,,,,,,,,,,,,,,,,,,,,,,,,,,,,,,,,,,,,,,,,,,,,,,,,,,,,,,,,,,,,,,,,,,,,,,,,,,,,,,,,,,,,,,,,,,,,,,,,,,,,,,,,,,,,,,,,,,,,,,,,,,,,,,,,,
,,,,,,617118971b29a7f27b2baec5,62bbfaeb8048f9f62ee9e7c1,2022-06-29_09h11.09.746,Colour_Asymmetry_Pilot,2022.1.3,Win32,60.04202942,62bbe60bf3d75ef465d3e404,0,33,33,82,1,twoone,,,,,,,,,,,,,,,,,,,,,,,,,,,,,,,,,,,,,,,,,,,,,,,,,,,,,,,,,,,,,,,,,,,,,,,,,,,,,,,,,,,,,,,,,,,,,,,,,,,,,,,,,,,,,,,,,,,,,,,,,,,,,,,,,,,,,,,,,,,,,,,,,,,,,,,,
,,,,,,617118971b29a7f27b2baec5,62bbfaeb8048f9f62ee9e7c1,2022-06-29_09h11.09.746,Colour_Asymmetry_Pilot,2022.1.3,Win32,60.04202942,62bbe60bf3d75ef465d3e404,0,34,34,119,1,fourthree,,,,,,,,,,,,,,,,,,,,,,,,,,,,,,,,,,,,,,,,,,,,,,,,,,,,,,,,,,,,,,,,,,,,,,,,,,,,,,,,,,,,,,,,,,,,,,,,,,,,,,,,,,,,,,,,,,,,,,,,,,,,,,,,,,,,,,,,,,,,,,,,,,,,,,,,
,,,,,,617118971b29a7f27b2baec5,62bbfaeb8048f9f62ee9e7c1,2022-06-29_09h11.09.746,Colour_Asymmetry_Pilot,2022.1.3,Win32,60.04202942,62bbe60bf3d75ef465d3e404,0,35,35,94,1,fourtwo,,,,,,,,,,,,,,,,,,,,,,,,,,,,,,,,,,,,,,,,,,,,,,,,,,,,,,,,,,,,,,,,,,,,,,,,,,,,,,,,,,,,,,,,,,,,,,,,,,,,,,,,,,,,,,,,,,,,,,,,,,,,,,,,,,,,,,,,,,,,,,,,,,,,,,,,
,,,,,,617118971b29a7f27b2baec5,62bbfaeb8048f9f62ee9e7c1,2022-06-29_09h11.09.746,Colour_Asymmetry_Pilot,2022.1.3,Win32,60.04202942,62bbe60bf3d75ef465d3e404,0,36,36,92,1,threeone,,,,,,,,,,,,,,,,,,,,,,,,,,,,,,,,,,,,,,,,,,,,,,,,,,,,,,,,,,,,,,,,,,,,,,,,,,,,,,,,,,,,,,,,,,,,,,,,,,,,,,,,,,,,,,,,,,,,,,,,,,,,,,,,,,,,,,,,,,,,,,,,,,,,,,,,
,,,,,,617118971b29a7f27b2baec5,62bbfaeb8048f9f62ee9e7c1,2022-06-29_09h11.09.746,Colour_Asymmetry_Pilot,2022.1.3,Win32,60.04202942,62bbe60bf3d75ef465d3e404,0,37,37,21,1,threefour,,,,,,,,,,,,,,,,,,,,,,,,,,,,,,,,,,,,,,,,,,,,,,,,,,,,,,,,,,,,,,,,,,,,,,,,,,,,,,,,,,,,,,,,,,,,,,,,,,,,,,,,,,,,,,,,,,,,,,,,,,,,,,,,,,,,,,,,,,,,,,,,,,,,,,,,
,,,,,,617118971b29a7f27b2baec5,62bbfaeb8048f9f62ee9e7c1,2022-06-29_09h11.09.746,Colour_Asymmetry_Pilot,2022.1.3,Win32,60.04202942,62bbe60bf3d75ef465d3e404,0,38,38,91,1,twofour,,,,,,,,,,,,,,,,,,,,,,,,,,,,,,,,,,,,,,,,,,,,,,,,,,,,,,,,,,,,,,,,,,,,,,,,,,,,,,,,,,,,,,,,,,,,,,,,,,,,,,,,,,,,,,,,,,,,,,,,,,,,,,,,,,,,,,,,,,,,,,,,,,,,,,,,
,,,,,,617118971b29a7f27b2baec5,62bbfaeb8048f9f62ee9e7c1,2022-06-29_09h11.09.746,Colour_Asymmetry_Pilot,2022.1.3,Win32,60.04202942,62bbe60bf3d75ef465d3e404,0,39,39,29,1,threefour,,,,,,,,,,,,,,,,,,,,,,,,,,,,,,,,,,,,,,,,,,,,,,,,,,,,,,,,,,,,,,,,,,,,,,,,,,,,,,,,,,,,,,,,,,,,,,,,,,,,,,,,,,,,,,,,,,,,,,,,,,,,,,,,,,,,,,,,,,,,,,,,,,,,,,,,
,,,,,,617118971b29a7f27b2baec5,62bbfaeb8048f9f62ee9e7c1,2022-06-29_09h11.09.746,Colour_Asymmetry_Pilot,2022.1.3,Win32,60.04202942,62bbe60bf3d75ef465d3e404,0,40,40,144,1,onetwo,,,,,,,,,,,,,,,,,,,,,,,,,,,,,,,,,,,,,,,,,,,,,,,,,,,,,,,,,,,,,,,,,,,,,,,,,,,,,,,,,,,,,,,,,,,,,,,,,,,,,,,,,,,,,,,,,,,,,,,,,,,,,,,,,,,,,,,,,,,,,,,,,,,,,,,,
,,,,,,617118971b29a7f27b2baec5,62bbfaeb8048f9f62ee9e7c1,2022-06-29_09h11.09.746,Colour_Asymmetry_Pilot,2022.1.3,Win32,60.04202942,62bbe60bf3d75ef465d3e404,0,41,41,31,1,fourthree,,,,,,,,,,,,,,,,,,,,,,,,,,,,,,,,,,,,,,,,,,,,,,,,,,,,,,,,,,,,,,,,,,,,,,,,,,,,,,,,,,,,,,,,,,,,,,,,,,,,,,,,,,,,,,,,,,,,,,,,,,,,,,,,,,,,,,,,,,,,,,,,,,,,,,,,
,,,,,,617118971b29a7f27b2baec5,62bbfaeb8048f9f62ee9e7c1,2022-06-29_09h11.09.746,Colour_Asymmetry_Pilot,2022.1.3,Win32,60.04202942,62bbe60bf3d75ef465d3e404,0,42,42,49,1,onethree,,,,,,,,,,,,,,,,,,,,,,,,,,,,,,,,,,,,,,,,,,,,,,,,,,,,,,,,,,,,,,,,,,,,,,,,,,,,,,,,,,,,,,,,,,,,,,,,,,,,,,,,,,,,,,,,,,,,,,,,,,,,,,,,,,,,,,,,,,,,,,,,,,,,,,,,
,,,,,,617118971b29a7f27b2baec5,62bbfaeb8048f9f62ee9e7c1,2022-06-29_09h11.09.746,Colour_Asymmetry_Pilot,2022.1.3,Win32,60.04202942,62bbe60bf3d75ef465d3e404,0,43,43,146,1,twoone,,,,,,,,,,,,,,,,,,,,,,,,,,,,,,,,,,,,,,,,,,,,,,,,,,,,,,,,,,,,,,,,,,,,,,,,,,,,,,,,,,,,,,,,,,,,,,,,,,,,,,,,,,,,,,,,,,,,,,,,,,,,,,,,,,,,,,,,,,,,,,,,,,,,,,,,
,,,,,,617118971b29a7f27b2baec5,62bbfaeb8048f9f62ee9e7c1,2022-06-29_09h11.09.746,Colour_Asymmetry_Pilot,2022.1.3,Win32,60.04202942,62bbe60bf3d75ef465d3e404,0,44,44,42,1,twoone,,,,,,,,,,,,,,,,,,,,,,,,,,,,,,,,,,,,,,,,,,,,,,,,,,,,,,,,,,,,,,,,,,,,,,,,,,,,,,,,,,,,,,,,,,,,,,,,,,,,,,,,,,,,,,,,,,,,,,,,,,,,,,,,,,,,,,,,,,,,,,,,,,,,,,,,
,,,,,,617118971b29a7f27b2baec5,62bbfaeb8048f9f62ee9e7c1,2022-06-29_09h11.09.746,Colour_Asymmetry_Pilot,2022.1.3,Win32,60.04202942,62bbe60bf3d75ef465d3e404,0,45,45,97,1,onethree,,,,,,,,,,,,,,,,,,,,,,,,,,,,,,,,,,,,,,,,,,,,,,,,,,,,,,,,,,,,,,,,,,,,,,,,,,,,,,,,,,,,,,,,,,,,,,,,,,,,,,,,,,,,,,,,,,,,,,,,,,,,,,,,,,,,,,,,,,,,,,,,,,,,,,,,
,,,,,,617118971b29a7f27b2baec5,62bbfaeb8048f9f62ee9e7c1,2022-06-29_09h11.09.746,Colour_Asymmetry_Pilot,2022.1.3,Win32,60.04202942,62bbe60bf3d75ef465d3e404,0,46,46,70,1,fourtwo,,,,,,,,,,,,,,,,,,,,,,,,,,,,,,,,,,,,,,,,,,,,,,,,,,,,,,,,,,,,,,,,,,,,,,,,,,,,,,,,,,,,,,,,,,,,,,,,,,,,,,,,,,,,,,,,,,,,,,,,,,,,,,,,,,,,,,,,,,,,,,,,,,,,,,,,
,,,,,,617118971b29a7f27b2baec5,62bbfaeb8048f9f62ee9e7c1,2022-06-29_09h11.09.746,Colour_Asymmetry_Pilot,2022.1.3,Win32,60.04202942,62bbe60bf3d75ef465d3e404,0,47,47,58,1,twoone,,,,,,,,,,,,,,,,,,,,,,,,,,,,,,,,,,,,,,,,,,,,,,,,,,,,,,,,,,,,,,,,,,,,,,,,,,,,,,,,,,,,,,,,,,,,,,,,,,,,,,,,,,,,,,,,,,,,,,,,,,,,,,,,,,,,,,,,,,,,,,,,,,,,,,,,
,,,,,,617118971b29a7f27b2baec5,62bbfaeb8048f9f62ee9e7c1,2022-06-29_09h11.09.746,Colour_Asymmetry_Pilot,2022.1.3,Win32,60.04202942,62bbe60bf3d75ef465d3e404,0,48,48,90,1,twoone,,,,,,,,,,,,,,,,,,,,,,,,,,,,,,,,,,,,,,,,,,,,,,,,,,,,,,,,,,,,,,,,,,,,,,,,,,,,,,,,,,,,,,,,,,,,,,,,,,,,,,,,,,,,,,,,,,,,,,,,,,,,,,,,,,,,,,,,,,,,,,,,,,,,,,,,
,,,,,,617118971b29a7f27b2baec5,62bbfaeb8048f9f62ee9e7c1,2022-06-29_09h11.09.746,Colour_Asymmetry_Pilot,2022.1.3,Win32,60.04202942,62bbe60bf3d75ef465d3e404,0,49,49,122,1,twoone,,,,,,,,,,,,,,,,,,,,,,,,,,,,,,,,,,,,,,,,,,,,,,,,,,,,,,,,,,,,,,,,,,,,,,,,,,,,,,,,,,,,,,,,,,,,,,,,,,,,,,,,,,,,,,,,,,,,,,,,,,,,,,,,,,,,,,,,,,,,,,,,,,,,,,,,
,,,,,,617118971b29a7f27b2baec5,62bbfaeb8048f9f62ee9e7c1,2022-06-29_09h11.09.746,Colour_Asymmetry_Pilot,2022.1.3,Win32,60.04202942,62bbe60bf3d75ef465d3e404,0,50,50,66,1,twoone,,,,,,,,,,,,,,,,,,,,,,,,,,,,,,,,,,,,,,,,,,,,,,,,,,,,,,,,,,,,,,,,,,,,,,,,,,,,,,,,,,,,,,,,,,,,,,,,,,,,,,,,,,,,,,,,,,,,,,,,,,,,,,,,,,,,,,,,,,,,,,,,,,,,,,,,
,,,,,,617118971b29a7f27b2baec5,62bbfaeb8048f9f62ee9e7c1,2022-06-29_09h11.09.746,Colour_Asymmetry_Pilot,2022.1.3,Win32,60.04202942,62bbe60bf3d75ef465d3e404,0,51,51,57,1,onethree,,,,,,,,,,,,,,,,,,,,,,,,,,,,,,,,,,,,,,,,,,,,,,,,,,,,,,,,,,,,,,,,,,,,,,,,,,,,,,,,,,,,,,,,,,,,,,,,,,,,,,,,,,,,,,,,,,,,,,,,,,,,,,,,,,,,,,,,,,,,,,,,,,,,,,,,
,,,,,,617118971b29a7f27b2baec5,62bbfaeb8048f9f62ee9e7c1,2022-06-29_09h11.09.746,Colour_Asymmetry_Pilot,2022.1.3,Win32,60.04202942,62bbe60bf3d75ef465d3e404,0,52,52,124,1,threeone,,,,,,,,,,,,,,,,,,,,,,,,,,,,,,,,,,,,,,,,,,,,,,,,,,,,,,,,,,,,,,,,,,,,,,,,,,,,,,,,,,,,,,,,,,,,,,,,,,,,,,,,,,,,,,,,,,,,,,,,,,,,,,,,,,,,,,,,,,,,,,,,,,,,,,,,
,,,,,,617118971b29a7f27b2baec5,62bbfaeb8048f9f62ee9e7c1,2022-06-29_09h11.09.746,Colour_Asymmetry_Pilot,2022.1.3,Win32,60.04202942,62bbe60bf3d75ef465d3e404,0,53,53,75,1,twofour,,,,,,,,,,,,,,,,,,,,,,,,,,,,,,,,,,,,,,,,,,,,,,,,,,,,,,,,,,,,,,,,,,,,,,,,,,,,,,,,,,,,,,,,,,,,,,,,,,,,,,,,,,,,,,,,,,,,,,,,,,,,,,,,,,,,,,,,,,,,,,,,,,,,,,,,
,,,,,,617118971b29a7f27b2baec5,62bbfaeb8048f9f62ee9e7c1,2022-06-29_09h11.09.746,Colour_Asymmetry_Pilot,2022.1.3,Win32,60.04202942,62bbe60bf3d75ef465d3e404,0,54,54,1,1,onethree,,,,,,,,,,,,,,,,,,,,,,,,,,,,,,,,,,,,,,,,,,,,,,,,,,,,,,,,,,,,,,,,,,,,,,,,,,,,,,,,,,,,,,,,,,,,,,,,,,,,,,,,,,,,,,,,,,,,,,,,,,,,,,,,,,,,,,,,,,,,,,,,,,,,,,,,
,,,,,,617118971b29a7f27b2baec5,62bbfaeb8048f9f62ee9e7c1,2022-06-29_09h11.09.746,Colour_Asymmetry_Pilot,2022.1.3,Win32,60.04202942,62bbe60bf3d75ef465d3e404,0,55,55,102,1,fourtwo,,,,,,,,,,,,,,,,,,,,,,,,,,,,,,,,,,,,,,,,,,,,,,,,,,,,,,,,,,,,,,,,,,,,,,,,,,,,,,,,,,,,,,,,,,,,,,,,,,,,,,,,,,,,,,,,,,,,,,,,,,,,,,,,,,,,,,,,,,,,,,,,,,,,,,,,
,,,,,,617118971b29a7f27b2baec5,62bbfaeb8048f9f62ee9e7c1,2022-06-29_09h11.09.746,Colour_Asymmetry_Pilot,2022.1.3,Win32,60.04202942,62bbe60bf3d75ef465d3e404,0,56,56,151,1,fourthree,,,,,,,,,,,,,,,,,,,,,,,,,,,,,,,,,,,,,,,,,,,,,,,,,,,,,,,,,,,,,,,,,,,,,,,,,,,,,,,,,,,,,,,,,,,,,,,,,,,,,,,,,,,,,,,,,,,,,,,,,,,,,,,,,,,,,,,,,,,,,,,,,,,,,,,,
,,,,,,617118971b29a7f27b2baec5,62bbfaeb8048f9f62ee9e7c1,2022-06-29_09h11.09.746,Colour_Asymmetry_Pilot,2022.1.3,Win32,60.04202942,62bbe60bf3d75ef465d3e404,0,57,57,96,1,onetwo,,,,,,,,,,,,,,,,,,,,,,,,,,,,,,,,,,,,,,,,,,,,,,,,,,,,,,,,,,,,,,,,,,,,,,,,,,,,,,,,,,,,,,,,,,,,,,,,,,,,,,,,,,,,,,,,,,,,,,,,,,,,,,,,,,,,,,,,,,,,,,,,,,,,,,,,
,,,,,,617118971b29a7f27b2baec5,62bbfaeb8048f9f62ee9e7c1,2022-06-29_09h11.09.746,Colour_Asymmetry_Pilot,2022.1.3,Win32,60.04202942,62bbe60bf3d75ef465d3e404,0,58,58,160,1,onetwo,,,,,,,,,,,,,,,,,,,,,,,,,,,,,,,,,,,,,,,,,,,,,,,,,,,,,,,,,,,,,,,,,,,,,,,,,,,,,,,,,,,,,,,,,,,,,,,,,,,,,,,,,,,,,,,,,,,,,,,,,,,,,,,,,,,,,,,,,,,,,,,,,,,,,,,,
,,,,,,617118971b29a7f27b2baec5,62bbfaeb8048f9f62ee9e7c1,2022-06-29_09h11.09.746,Colour_Asymmetry_Pilot,2022.1.3,Win32,60.04202942,62bbe60bf3d75ef465d3e404,0,59,59,129,1,onethree,,,,,,,,,,,,,,,,,,,,,,,,,,,,,,,,,,,,,,,,,,,,,,,,,,,,,,,,,,,,,,,,,,,,,,,,,,,,,,,,,,,,,,,,,,,,,,,,,,,,,,,,,,,,,,,,,,,,,,,,,,,,,,,,,,,,,,,,,,,,,,,,,,,,,,,,
,,,,,,617118971b29a7f27b2baec5,62bbfaeb8048f9f62ee9e7c1,2022-06-29_09h11.09.746,Colour_Asymmetry_Pilot,2022.1.3,Win32,60.04202942,62bbe60bf3d75ef465d3e404,0,60,60,45,1,threefour,,,,,,,,,,,,,,,,,,,,,,,,,,,,,,,,,,,,,,,,,,,,,,,,,,,,,,,,,,,,,,,,,,,,,,,,,,,,,,,,,,,,,,,,,,,,,,,,,,,,,,,,,,,,,,,,,,,,,,,,,,,,,,,,,,,,,,,,,,,,,,,,,,,,,,,,
,,,,,,617118971b29a7f27b2baec5,62bbfaeb8048f9f62ee9e7c1,2022-06-29_09h11.09.746,Colour_Asymmetry_Pilot,2022.1.3,Win32,60.04202942,62bbe60bf3d75ef465d3e404,0,61,61,53,1,threefour,,,,,,,,,,,,,,,,,,,,,,,,,,,,,,,,,,,,,,,,,,,,,,,,,,,,,,,,,,,,,,,,,,,,,,,,,,,,,,,,,,,,,,,,,,,,,,,,,,,,,,,,,,,,,,,,,,,,,,,,,,,,,,,,,,,,,,,,,,,,,,,,,,,,,,,,
,,,,,,617118971b29a7f27b2baec5,62bbfaeb8048f9f62ee9e7c1,2022-06-29_09h11.09.746,Colour_Asymmetry_Pilot,2022.1.3,Win32,60.04202942,62bbe60bf3d75ef465d3e404,0,62,62,16,1,onetwo,,,,,,,,,,,,,,,,,,,,,,,,,,,,,,,,,,,,,,,,,,,,,,,,,,,,,,,,,,,,,,,,,,,,,,,,,,,,,,,,,,,,,,,,,,,,,,,,,,,,,,,,,,,,,,,,,,,,,,,,,,,,,,,,,,,,,,,,,,,,,,,,,,,,,,,,
,,,,,,617118971b29a7f27b2baec5,62bbfaeb8048f9f62ee9e7c1,2022-06-29_09h11.09.746,Colour_Asymmetry_Pilot,2022.1.3,Win32,60.04202942,62bbe60bf3d75ef465d3e404,0,63,63,20,1,threeone,,,,,,,,,,,,,,,,,,,,,,,,,,,,,,,,,,,,,,,,,,,,,,,,,,,,,,,,,,,,,,,,,,,,,,,,,,,,,,,,,,,,,,,,,,,,,,,,,,,,,,,,,,,,,,,,,,,,,,,,,,,,,,,,,,,,,,,,,,,,,,,,,,,,,,,,
,,,,,,617118971b29a7f27b2baec5,62bbfaeb8048f9f62ee9e7c1,2022-06-29_09h11.09.746,Colour_Asymmetry_Pilot,2022.1.3,Win32,60.04202942,62bbe60bf3d75ef465d3e404,0,64,64,28,1,threeone,,,,,,,,,,,,,,,,,,,,,,,,,,,,,,,,,,,,,,,,,,,,,,,,,,,,,,,,,,,,,,,,,,,,,,,,,,,,,,,,,,,,,,,,,,,,,,,,,,,,,,,,,,,,,,,,,,,,,,,,,,,,,,,,,,,,,,,,,,,,,,,,,,,,,,,,
,,,,,,617118971b29a7f27b2baec5,62bbfaeb8048f9f62ee9e7c1,2022-06-29_09h11.09.746,Colour_Asymmetry_Pilot,2022.1.3,Win32,60.04202942,62bbe60bf3d75ef465d3e404,0,65,65,149,1,threefour,,,,,,,,,,,,,,,,,,,,,,,,,,,,,,,,,,,,,,,,,,,,,,,,,,,,,,,,,,,,,,,,,,,,,,,,,,,,,,,,,,,,,,,,,,,,,,,,,,,,,,,,,,,,,,,,,,,,,,,,,,,,,,,,,,,,,,,,,,,,,,,,,,,,,,,,
,,,,,,617118971b29a7f27b2baec5,62bbfaeb8048f9f62ee9e7c1,2022-06-29_09h11.09.746,Colour_Asymmetry_Pilot,2022.1.3,Win32,60.04202942,62bbe60bf3d75ef465d3e404,0,66,66,52,1,threeone,,,,,,,,,,,,,,,,,,,,,,,,,,,,,,,,,,,,,,,,,,,,,,,,,,,,,,,,,,,,,,,,,,,,,,,,,,,,,,,,,,,,,,,,,,,,,,,,,,,,,,,,,,,,,,,,,,,,,,,,,,,,,,,,,,,,,,,,,,,,,,,,,,,,,,,,
,,,,,,617118971b29a7f27b2baec5,62bbfaeb8048f9f62ee9e7c1,2022-06-29_09h11.09.746,Colour_Asymmetry_Pilot,2022.1.3,Win32,60.04202942,62bbe60bf3d75ef465d3e404,0,67,67,44,1,threeone,,,,,,,,,,,,,,,,,,,,,,,,,,,,,,,,,,,,,,,,,,,,,,,,,,,,,,,,,,,,,,,,,,,,,,,,,,,,,,,,,,,,,,,,,,,,,,,,,,,,,,,,,,,,,,,,,,,,,,,,,,,,,,,,,,,,,,,,,,,,,,,,,,,,,,,,
,,,,,,617118971b29a7f27b2baec5,62bbfaeb8048f9f62ee9e7c1,2022-06-29_09h11.09.746,Colour_Asymmetry_Pilot,2022.1.3,Win32,60.04202942,62bbe60bf3d75ef465d3e404,0,68,68,134,1,fourtwo,,,,,,,,,,,,,,,,,,,,,,,,,,,,,,,,,,,,,,,,,,,,,,,,,,,,,,,,,,,,,,,,,,,,,,,,,,,,,,,,,,,,,,,,,,,,,,,,,,,,,,,,,,,,,,,,,,,,,,,,,,,,,,,,,,,,,,,,,,,,,,,,,,,,,,,,
,,,,,,617118971b29a7f27b2baec5,62bbfaeb8048f9f62ee9e7c1,2022-06-29_09h11.09.746,Colour_Asymmetry_Pilot,2022.1.3,Win32,60.04202942,62bbe60bf3d75ef465d3e404,0,69,69,141,1,threefour,,,,,,,,,,,,,,,,,,,,,,,,,,,,,,,,,,,,,,,,,,,,,,,,,,,,,,,,,,,,,,,,,,,,,,,,,,,,,,,,,,,,,,,,,,,,,,,,,,,,,,,,,,,,,,,,,,,,,,,,,,,,,,,,,,,,,,,,,,,,,,,,,,,,,,,,
,,,,,,617118971b29a7f27b2baec5,62bbfaeb8048f9f62ee9e7c1,2022-06-29_09h11.09.746,Colour_Asymmetry_Pilot,2022.1.3,Win32,60.04202942,62bbe60bf3d75ef465d3e404,0,70,70,11,1,twofour,,,,,,,,,,,,,,,,,,,,,,,,,,,,,,,,,,,,,,,,,,,,,,,,,,,,,,,,,,,,,,,,,,,,,,,,,,,,,,,,,,,,,,,,,,,,,,,,,,,,,,,,,,,,,,,,,,,,,,,,,,,,,,,,,,,,,,,,,,,,,,,,,,,,,,,,
,,,,,,617118971b29a7f27b2baec5,62bbfaeb8048f9f62ee9e7c1,2022-06-29_09h11.09.746,Colour_Asymmetry_Pilot,2022.1.3,Win32,60.04202942,62bbe60bf3d75ef465d3e404,0,71,71,159,1,fourthree,,,,,,,,,,,,,,,,,,,,,,,,,,,,,,,,,,,,,,,,,,,,,,,,,,,,,,,,,,,,,,,,,,,,,,,,,,,,,,,,,,,,,,,,,,,,,,,,,,,,,,,,,,,,,,,,,,,,,,,,,,,,,,,,,,,,,,,,,,,,,,,,,,,,,,,,
,,,,,,617118971b29a7f27b2baec5,62bbfaeb8048f9f62ee9e7c1,2022-06-29_09h11.09.746,Colour_Asymmetry_Pilot,2022.1.3,Win32,60.04202942,62bbe60bf3d75ef465d3e404,0,72,72,36,1,threeone,,,,,,,,,,,,,,,,,,,,,,,,,,,,,,,,,,,,,,,,,,,,,,,,,,,,,,,,,,,,,,,,,,,,,,,,,,,,,,,,,,,,,,,,,,,,,,,,,,,,,,,,,,,,,,,,,,,,,,,,,,,,,,,,,,,,,,,,,,,,,,,,,,,,,,,,
,,,,,,617118971b29a7f27b2baec5,62bbfaeb8048f9f62ee9e7c1,2022-06-29_09h11.09.746,Colour_Asymmetry_Pilot,2022.1.3,Win32,60.04202942,62bbe60bf3d75ef465d3e404,0,73,73,22,1,fourtwo,,,,,,,,,,,,,,,,,,,,,,,,,,,,,,,,,,,,,,,,,,,,,,,,,,,,,,,,,,,,,,,,,,,,,,,,,,,,,,,,,,,,,,,,,,,,,,,,,,,,,,,,,,,,,,,,,,,,,,,,,,,,,,,,,,,,,,,,,,,,,,,,,,,,,,,,
,,,,,,617118971b29a7f27b2baec5,62bbfaeb8048f9f62ee9e7c1,2022-06-29_09h11.09.746,Colour_Asymmetry_Pilot,2022.1.3,Win32,60.04202942,62bbe60bf3d75ef465d3e404,0,74,74,4,1,threeone,,,,,,,,,,,,,,,,,,,,,,,,,,,,,,,,,,,,,,,,,,,,,,,,,,,,,,,,,,,,,,,,,,,,,,,,,,,,,,,,,,,,,,,,,,,,,,,,,,,,,,,,,,,,,,,,,,,,,,,,,,,,,,,,,,,,,,,,,,,,,,,,,,,,,,,,
,,,,,,617118971b29a7f27b2baec5,62bbfaeb8048f9f62ee9e7c1,2022-06-29_09h11.09.746,Colour_Asymmetry_Pilot,2022.1.3,Win32,60.04202942,62bbe60bf3d75ef465d3e404,0,75,75,47,1,fourthree,,,,,,,,,,,,,,,,,,,,,,,,,,,,,,,,,,,,,,,,,,,,,,,,,,,,,,,,,,,,,,,,,,,,,,,,,,,,,,,,,,,,,,,,,,,,,,,,,,,,,,,,,,,,,,,,,,,,,,,,,,,,,,,,,,,,,,,,,,,,,,,,,,,,,,,,
,,,,,,617118971b29a7f27b2baec5,62bbfaeb8048f9f62ee9e7c1,2022-06-29_09h11.09.746,Colour_Asymmetry_Pilot,2022.1.3,Win32,60.04202942,62bbe60bf3d75ef465d3e404,0,76,76,116,1,threeone,,,,,,,,,,,,,,,,,,,,,,,,,,,,,,,,,,,,,,,,,,,,,,,,,,,,,,,,,,,,,,,,,,,,,,,,,,,,,,,,,,,,,,,,,,,,,,,,,,,,,,,,,,,,,,,,,,,,,,,,,,,,,,,,,,,,,,,,,,,,,,,,,,,,,,,,
,,,,,,617118971b29a7f27b2baec5,62bbfaeb8048f9f62ee9e7c1,2022-06-29_09h11.09.746,Colour_Asymmetry_Pilot,2022.1.3,Win32,60.04202942,62bbe60bf3d75ef465d3e404,0,77,77,41,1,onethree,,,,,,,,,,,,,,,,,,,,,,,,,,,,,,,,,,,,,,,,,,,,,,,,,,,,,,,,,,,,,,,,,,,,,,,,,,,,,,,,,,,,,,,,,,,,,,,,,,,,,,,,,,,,,,,,,,,,,,,,,,,,,,,,,,,,,,,,,,,,,,,,,,,,,,,,
,,,,,,617118971b29a7f27b2baec5,62bbfaeb8048f9f62ee9e7c1,2022-06-29_09h11.09.746,Colour_Asymmetry_Pilot,2022.1.3,Win32,60.04202942,62bbe60bf3d75ef465d3e404,0,78,78,101,1,threefour,,,,,,,,,,,,,,,,,,,,,,,,,,,,,,,,,,,,,,,,,,,,,,,,,,,,,,,,,,,,,,,,,,,,,,,,,,,,,,,,,,,,,,,,,,,,,,,,,,,,,,,,,,,,,,,,,,,,,,,,,,,,,,,,,,,,,,,,,,,,,,,,,,,,,,,,
,,,,,,617118971b29a7f27b2baec5,62bbfaeb8048f9f62ee9e7c1,2022-06-29_09h11.09.746,Colour_Asymmetry_Pilot,2022.1.3,Win32,60.04202942,62bbe60bf3d75ef465d3e404,0,79,79,127,1,fourthree,,,,,,,,,,,,,,,,,,,,,,,,,,,,,,,,,,,,,,,,,,,,,,,,,,,,,,,,,,,,,,,,,,,,,,,,,,,,,,,,,,,,,,,,,,,,,,,,,,,,,,,,,,,,,,,,,,,,,,,,,,,,,,,,,,,,,,,,,,,,,,,,,,,,,,,,
,,,,,,617118971b29a7f27b2baec5,62bbfaeb8048f9f62ee9e7c1,2022-06-29_09h11.09.746,Colour_Asymmetry_Pilot,2022.1.3,Win32,60.04202942,62bbe60bf3d75ef465d3e404,0,80,80,87,1,fourthree,,,,,,,,,,,,,,,,,,,,,,,,,,,,,,,,,,,,,,,,,,,,,,,,,,,,,,,,,,,,,,,,,,,,,,,,,,,,,,,,,,,,,,,,,,,,,,,,,,,,,,,,,,,,,,,,,,,,,,,,,,,,,,,,,,,,,,,,,,,,,,,,,,,,,,,,
,,,,,,617118971b29a7f27b2baec5,62bbfaeb8048f9f62ee9e7c1,2022-06-29_09h11.09.746,Colour_Asymmetry_Pilot,2022.1.3,Win32,60.04202942,62bbe60bf3d75ef465d3e404,0,81,81,74,1,twoone,,,,,,,,,,,,,,,,,,,,,,,,,,,,,,,,,,,,,,,,,,,,,,,,,,,,,,,,,,,,,,,,,,,,,,,,,,,,,,,,,,,,,,,,,,,,,,,,,,,,,,,,,,,,,,,,,,,,,,,,,,,,,,,,,,,,,,,,,,,,,,,,,,,,,,,,
,,,,,,617118971b29a7f27b2baec5,62bbfaeb8048f9f62ee9e7c1,2022-06-29_09h11.09.746,Colour_Asymmetry_Pilot,2022.1.3,Win32,60.04202942,62bbe60bf3d75ef465d3e404,0,82,82,83,1,twofour,,,,,,,,,,,,,,,,,,,,,,,,,,,,,,,,,,,,,,,,,,,,,,,,,,,,,,,,,,,,,,,,,,,,,,,,,,,,,,,,,,,,,,,,,,,,,,,,,,,,,,,,,,,,,,,,,,,,,,,,,,,,,,,,,,,,,,,,,,,,,,,,,,,,,,,,
,,,,,,617118971b29a7f27b2baec5,62bbfaeb8048f9f62ee9e7c1,2022-06-29_09h11.09.746,Colour_Asymmetry_Pilot,2022.1.3,Win32,60.04202942,62bbe60bf3d75ef465d3e404,0,83,83,32,1,onetwo,,,,,,,,,,,,,,,,,,,,,,,,,,,,,,,,,,,,,,,,,,,,,,,,,,,,,,,,,,,,,,,,,,,,,,,,,,,,,,,,,,,,,,,,,,,,,,,,,,,,,,,,,,,,,,,,,,,,,,,,,,,,,,,,,,,,,,,,,,,,,,,,,,,,,,,,
,,,,,,617118971b29a7f27b2baec5,62bbfaeb8048f9f62ee9e7c1,2022-06-29_09h11.09.746,Colour_Asymmetry_Pilot,2022.1.3,Win32,60.04202942,62bbe60bf3d75ef465d3e404,0,84,84,26,1,twoone,,,,,,,,,,,,,,,,,,,,,,,,,,,,,,,,,,,,,,,,,,,,,,,,,,,,,,,,,,,,,,,,,,,,,,,,,,,,,,,,,,,,,,,,,,,,,,,,,,,,,,,,,,,,,,,,,,,,,,,,,,,,,,,,,,,,,,,,,,,,,,,,,,,,,,,,
,,,,,,617118971b29a7f27b2baec5,62bbfaeb8048f9f62ee9e7c1,2022-06-29_09h11.09.746,Colour_Asymmetry_Pilot,2022.1.3,Win32,60.04202942,62bbe60bf3d75ef465d3e404,0,85,85,157,1,threefour,,,,,,,,,,,,,,,,,,,,,,,,,,,,,,,,,,,,,,,,,,,,,,,,,,,,,,,,,,,,,,,,,,,,,,,,,,,,,,,,,,,,,,,,,,,,,,,,,,,,,,,,,,,,,,,,,,,,,,,,,,,,,,,,,,,,,,,,,,,,,,,,,,,,,,,,
,,,,,,617118971b29a7f27b2baec5,62bbfaeb8048f9f62ee9e7c1,2022-06-29_09h11.09.746,Colour_Asymmetry_Pilot,2022.1.3,Win32,60.04202942,62bbe60bf3d75ef465d3e404,0,86,86,7,1,fourthree,,,,,,,,,,,,,,,,,,,,,,,,,,,,,,,,,,,,,,,,,,,,,,,,,,,,,,,,,,,,,,,,,,,,,,,,,,,,,,,,,,,,,,,,,,,,,,,,,,,,,,,,,,,,,,,,,,,,,,,,,,,,,,,,,,,,,,,,,,,,,,,,,,,,,,,,
,,,,,,617118971b29a7f27b2baec5,62bbfaeb8048f9f62ee9e7c1,2022-06-29_09h11.09.746,Colour_Asymmetry_Pilot,2022.1.3,Win32,60.04202942,62bbe60bf3d75ef465d3e404,0,87,87,98,1,twoone,,,,,,,,,,,,,,,,,,,,,,,,,,,,,,,,,,,,,,,,,,,,,,,,,,,,,,,,,,,,,,,,,,,,,,,,,,,,,,,,,,,,,,,,,,,,,,,,,,,,,,,,,,,,,,,,,,,,,,,,,,,,,,,,,,,,,,,,,,,,,,,,,,,,,,,,
,,,,,,617118971b29a7f27b2baec5,62bbfaeb8048f9f62ee9e7c1,2022-06-29_09h11.09.746,Colour_Asymmetry_Pilot,2022.1.3,Win32,60.04202942,62bbe60bf3d75ef465d3e404,0,88,88,105,1,onethree,,,,,,,,,,,,,,,,,,,,,,,,,,,,,,,,,,,,,,,,,,,,,,,,,,,,,,,,,,,,,,,,,,,,,,,,,,,,,,,,,,,,,,,,,,,,,,,,,,,,,,,,,,,,,,,,,,,,,,,,,,,,,,,,,,,,,,,,,,,,,,,,,,,,,,,,
,,,,,,617118971b29a7f27b2baec5,62bbfaeb8048f9f62ee9e7c1,2022-06-29_09h11.09.746,Colour_Asymmetry_Pilot,2022.1.3,Win32,60.04202942,62bbe60bf3d75ef465d3e404,0,89,89,133,1,threefour,,,,,,,,,,,,,,,,,,,,,,,,,,,,,,,,,,,,,,,,,,,,,,,,,,,,,,,,,,,,,,,,,,,,,,,,,,,,,,,,,,,,,,,,,,,,,,,,,,,,,,,,,,,,,,,,,,,,,,,,,,,,,,,,,,,,,,,,,,,,,,,,,,,,,,,,
,,,,,,617118971b29a7f27b2baec5,62bbfaeb8048f9f62ee9e7c1,2022-06-29_09h11.09.746,Colour_Asymmetry_Pilot,2022.1.3,Win32,60.04202942,62bbe60bf3d75ef465d3e404,0,90,90,17,1,onethree,,,,,,,,,,,,,,,,,,,,,,,,,,,,,,,,,,,,,,,,,,,,,,,,,,,,,,,,,,,,,,,,,,,,,,,,,,,,,,,,,,,,,,,,,,,,,,,,,,,,,,,,,,,,,,,,,,,,,,,,,,,,,,,,,,,,,,,,,,,,,,,,,,,,,,,,
,,,,,,617118971b29a7f27b2baec5,62bbfaeb8048f9f62ee9e7c1,2022-06-29_09h11.09.746,Colour_Asymmetry_Pilot,2022.1.3,Win32,60.04202942,62bbe60bf3d75ef465d3e404,0,91,91,81,1,onethree,,,,,,,,,,,,,,,,,,,,,,,,,,,,,,,,,,,,,,,,,,,,,,,,,,,,,,,,,,,,,,,,,,,,,,,,,,,,,,,,,,,,,,,,,,,,,,,,,,,,,,,,,,,,,,,,,,,,,,,,,,,,,,,,,,,,,,,,,,,,,,,,,,,,,,,,
,,,,,,617118971b29a7f27b2baec5,62bbfaeb8048f9f62ee9e7c1,2022-06-29_09h11.09.746,Colour_Asymmetry_Pilot,2022.1.3,Win32,60.04202942,62bbe60bf3d75ef465d3e404,0,92,92,150,1,fourtwo,,,,,,,,,,,,,,,,,,,,,,,,,,,,,,,,,,,,,,,,,,,,,,,,,,,,,,,,,,,,,,,,,,,,,,,,,,,,,,,,,,,,,,,,,,,,,,,,,,,,,,,,,,,,,,,,,,,,,,,,,,,,,,,,,,,,,,,,,,,,,,,,,,,,,,,,
,,,,,,617118971b29a7f27b2baec5,62bbfaeb8048f9f62ee9e7c1,2022-06-29_09h11.09.746,Colour_Asymmetry_Pilot,2022.1.3,Win32,60.04202942,62bbe60bf3d75ef465d3e404,0,93,93,86,1,fourtwo,,,,,,,,,,,,,,,,,,,,,,,,,,,,,,,,,,,,,,,,,,,,,,,,,,,,,,,,,,,,,,,,,,,,,,,,,,,,,,,,,,,,,,,,,,,,,,,,,,,,,,,,,,,,,,,,,,,,,,,,,,,,,,,,,,,,,,,,,,,,,,,,,,,,,,,,
,,,,,,617118971b29a7f27b2baec5,62bbfaeb8048f9f62ee9e7c1,2022-06-29_09h11.09.746,Colour_Asymmetry_Pilot,2022.1.3,Win32,60.04202942,62bbe60bf3d75ef465d3e404,0,94,94,93,1,threefour,,,,,,,,,,,,,,,,,,,,,,,,,,,,,,,,,,,,,,,,,,,,,,,,,,,,,,,,,,,,,,,,,,,,,,,,,,,,,,,,,,,,,,,,,,,,,,,,,,,,,,,,,,,,,,,,,,,,,,,,,,,,,,,,,,,,,,,,,,,,,,,,,,,,,,,,
,,,,,,617118971b29a7f27b2baec5,62bbfaeb8048f9f62ee9e7c1,2022-06-29_09h11.09.746,Colour_Asymmetry_Pilot,2022.1.3,Win32,60.04202942,62bbe60bf3d75ef465d3e404,0,95,95,24,1,onetwo,,,,,,,,,,,,,,,,,,,,,,,,,,,,,,,,,,,,,,,,,,,,,,,,,,,,,,,,,,,,,,,,,,,,,,,,,,,,,,,,,,,,,,,,,,,,,,,,,,,,,,,,,,,,,,,,,,,,,,,,,,,,,,,,,,,,,,,,,,,,,,,,,,,,,,,,
,,,,,,617118971b29a7f27b2baec5,62bbfaeb8048f9f62ee9e7c1,2022-06-29_09h11.09.746,Colour_Asymmetry_Pilot,2022.1.3,Win32,60.04202942,62bbe60bf3d75ef465d3e404,0,96,96,13,1,threefour,,,,,,,,,,,,,,,,,,,,,,,,,,,,,,,,,,,,,,,,,,,,,,,,,,,,,,,,,,,,,,,,,,,,,,,,,,,,,,,,,,,,,,,,,,,,,,,,,,,,,,,,,,,,,,,,,,,,,,,,,,,,,,,,,,,,,,,,,,,,,,,,,,,,,,,,
,,,,,,617118971b29a7f27b2baec5,62bbfaeb8048f9f62ee9e7c1,2022-06-29_09h11.09.746,Colour_Asymmetry_Pilot,2022.1.3,Win32,60.04202942,62bbe60bf3d75ef465d3e404,0,97,97,78,1,fourtwo,,,,,,,,,,,,,,,,,,,,,,,,,,,,,,,,,,,,,,,,,,,,,,,,,,,,,,,,,,,,,,,,,,,,,,,,,,,,,,,,,,,,,,,,,,,,,,,,,,,,,,,,,,,,,,,,,,,,,,,,,,,,,,,,,,,,,,,,,,,,,,,,,,,,,,,,
,,,,,,617118971b29a7f27b2baec5,62bbfaeb8048f9f62ee9e7c1,2022-06-29_09h11.09.746,Colour_Asymmetry_Pilot,2022.1.3,Win32,60.04202942,62bbe60bf3d75ef465d3e404,0,98,98,48,1,onetwo,,,,,,,,,,,,,,,,,,,,,,,,,,,,,,,,,,,,,,,,,,,,,,,,,,,,,,,,,,,,,,,,,,,,,,,,,,,,,,,,,,,,,,,,,,,,,,,,,,,,,,,,,,,,,,,,,,,,,,,,,,,,,,,,,,,,,,,,,,,,,,,,,,,,,,,,
,,,,,,617118971b29a7f27b2baec5,62bbfaeb8048f9f62ee9e7c1,2022-06-29_09h11.09.746,Colour_Asymmetry_Pilot,2022.1.3,Win32,60.04202942,62bbe60bf3d75ef465d3e404,0,99,99,72,1,onetwo,,,,,,,,,,,,,,,,,,,,,,,,,,,,,,,,,,,,,,,,,,,,,,,,,,,,,,,,,,,,,,,,,,,,,,,,,,,,,,,,,,,,,,,,,,,,,,,,,,,,,,,,,,,,,,,,,,,,,,,,,,,,,,,,,,,,,,,,,,,,,,,,,,,,,,,,
,,,,,,617118971b29a7f27b2baec5,62bbfaeb8048f9f62ee9e7c1,2022-06-29_09h11.09.746,Colour_Asymmetry_Pilot,2022.1.3,Win32,60.04202942,62bbe60bf3d75ef465d3e404,0,100,100,2,1,twoone,,,,,,,,,,,,,,,,,,,,,,,,,,,,,,,,,,,,,,,,,,,,,,,,,,,,,,,,,,,,,,,,,,,,,,,,,,,,,,,,,,,,,,,,,,,,,,,,,,,,,,,,,,,,,,,,,,,,,,,,,,,,,,,,,,,,,,,,,,,,,,,,,,,,,,,,
,,,,,,617118971b29a7f27b2baec5,62bbfaeb8048f9f62ee9e7c1,2022-06-29_09h11.09.746,Colour_Asymmetry_Pilot,2022.1.3,Win32,60.04202942,62bbe60bf3d75ef465d3e404,0,101,101,68,1,threeone,,,,,,,,,,,,,,,,,,,,,,,,,,,,,,,,,,,,,,,,,,,,,,,,,,,,,,,,,,,,,,,,,,,,,,,,,,,,,,,,,,,,,,,,,,,,,,,,,,,,,,,,,,,,,,,,,,,,,,,,,,,,,,,,,,,,,,,,,,,,,,,,,,,,,,,,
,,,,,,617118971b29a7f27b2baec5,62bbfaeb8048f9f62ee9e7c1,2022-06-29_09h11.09.746,Colour_Asymmetry_Pilot,2022.1.3,Win32,60.04202942,62bbe60bf3d75ef465d3e404,0,102,102,139,1,twofour,,,,,,,,,,,,,,,,,,,,,,,,,,,,,,,,,,,,,,,,,,,,,,,,,,,,,,,,,,,,,,,,,,,,,,,,,,,,,,,,,,,,,,,,,,,,,,,,,,,,,,,,,,,,,,,,,,,,,,,,,,,,,,,,,,,,,,,,,,,,,,,,,,,,,,,,
,,,,,,617118971b29a7f27b2baec5,62bbfaeb8048f9f62ee9e7c1,2022-06-29_09h11.09.746,Colour_Asymmetry_Pilot,2022.1.3,Win32,60.04202942,62bbe60bf3d75ef465d3e404,0,103,103,154,1,twoone,,,,,,,,,,,,,,,,,,,,,,,,,,,,,,,,,,,,,,,,,,,,,,,,,,,,,,,,,,,,,,,,,,,,,,,,,,,,,,,,,,,,,,,,,,,,,,,,,,,,,,,,,,,,,,,,,,,,,,,,,,,,,,,,,,,,,,,,,,,,,,,,,,,,,,,,
,,,,,,617118971b29a7f27b2baec5,62bbfaeb8048f9f62ee9e7c1,2022-06-29_09h11.09.746,Colour_Asymmetry_Pilot,2022.1.3,Win32,60.04202942,62bbe60bf3d75ef465d3e404,0,104,104,43,1,twofour,,,,,,,,,,,,,,,,,,,,,,,,,,,,,,,,,,,,,,,,,,,,,,,,,,,,,,,,,,,,,,,,,,,,,,,,,,,,,,,,,,,,,,,,,,,,,,,,,,,,,,,,,,,,,,,,,,,,,,,,,,,,,,,,,,,,,,,,,,,,,,,,,,,,,,,,
,,,,,,617118971b29a7f27b2baec5,62bbfaeb8048f9f62ee9e7c1,2022-06-29_09h11.09.746,Colour_Asymmetry_Pilot,2022.1.3,Win32,60.04202942,62bbe60bf3d75ef465d3e404,0,105,105,142,1,fourtwo,,,,,,,,,,,,,,,,,,,,,,,,,,,,,,,,,,,,,,,,,,,,,,,,,,,,,,,,,,,,,,,,,,,,,,,,,,,,,,,,,,,,,,,,,,,,,,,,,,,,,,,,,,,,,,,,,,,,,,,,,,,,,,,,,,,,,,,,,,,,,,,,,,,,,,,,
,,,,,,617118971b29a7f27b2baec5,62bbfaeb8048f9f62ee9e7c1,2022-06-29_09h11.09.746,Colour_Asymmetry_Pilot,2022.1.3,Win32,60.04202942,62bbe60bf3d75ef465d3e404,0,106,106,89,1,onethree,,,,,,,,,,,,,,,,,,,,,,,,,,,,,,,,,,,,,,,,,,,,,,,,,,,,,,,,,,,,,,,,,,,,,,,,,,,,,,,,,,,,,,,,,,,,,,,,,,,,,,,,,,,,,,,,,,,,,,,,,,,,,,,,,,,,,,,,,,,,,,,,,,,,,,,,
,,,,,,617118971b29a7f27b2baec5,62bbfaeb8048f9f62ee9e7c1,2022-06-29_09h11.09.746,Colour_Asymmetry_Pilot,2022.1.3,Win32,60.04202942,62bbe60bf3d75ef465d3e404,0,107,107,156,1,threeone,,,,,,,,,,,,,,,,,,,,,,,,,,,,,,,,,,,,,,,,,,,,,,,,,,,,,,,,,,,,,,,,,,,,,,,,,,,,,,,,,,,,,,,,,,,,,,,,,,,,,,,,,,,,,,,,,,,,,,,,,,,,,,,,,,,,,,,,,,,,,,,,,,,,,,,,
,,,,,,617118971b29a7f27b2baec5,62bbfaeb8048f9f62ee9e7c1,2022-06-29_09h11.09.746,Colour_Asymmetry_Pilot,2022.1.3,Win32,60.04202942,62bbe60bf3d75ef465d3e404,0,108,108,84,1,threeone,,,,,,,,,,,,,,,,,,,,,,,,,,,,,,,,,,,,,,,,,,,,,,,,,,,,,,,,,,,,,,,,,,,,,,,,,,,,,,,,,,,,,,,,,,,,,,,,,,,,,,,,,,,,,,,,,,,,,,,,,,,,,,,,,,,,,,,,,,,,,,,,,,,,,,,,
,,,,,,617118971b29a7f27b2baec5,62bbfaeb8048f9f62ee9e7c1,2022-06-29_09h11.09.746,Colour_Asymmetry_Pilot,2022.1.3,Win32,60.04202942,62bbe60bf3d75ef465d3e404,0,109,109,67,1,twofour,,,,,,,,,,,,,,,,,,,,,,,,,,,,,,,,,,,,,,,,,,,,,,,,,,,,,,,,,,,,,,,,,,,,,,,,,,,,,,,,,,,,,,,,,,,,,,,,,,,,,,,,,,,,,,,,,,,,,,,,,,,,,,,,,,,,,,,,,,,,,,,,,,,,,,,,
,,,,,,617118971b29a7f27b2baec5,62bbfaeb8048f9f62ee9e7c1,2022-06-29_09h11.09.746,Colour_Asymmetry_Pilot,2022.1.3,Win32,60.04202942,62bbe60bf3d75ef465d3e404,0,110,110,79,1,fourthree,,,,,,,,,,,,,,,,,,,,,,,,,,,,,,,,,,,,,,,,,,,,,,,,,,,,,,,,,,,,,,,,,,,,,,,,,,,,,,,,,,,,,,,,,,,,,,,,,,,,,,,,,,,,,,,,,,,,,,,,,,,,,,,,,,,,,,,,,,,,,,,,,,,,,,,,
,,,,,,617118971b29a7f27b2baec5,62bbfaeb8048f9f62ee9e7c1,2022-06-29_09h11.09.746,Colour_Asymmetry_Pilot,2022.1.3,Win32,60.04202942,62bbe60bf3d75ef465d3e404,0,111,111,120,1,onetwo,,,,,,,,,,,,,,,,,,,,,,,,,,,,,,,,,,,,,,,,,,,,,,,,,,,,,,,,,,,,,,,,,,,,,,,,,,,,,,,,,,,,,,,,,,,,,,,,,,,,,,,,,,,,,,,,,,,,,,,,,,,,,,,,,,,,,,,,,,,,,,,,,,,,,,,,
,,,,,,617118971b29a7f27b2baec5,62bbfaeb8048f9f62ee9e7c1,2022-06-29_09h11.09.746,Colour_Asymmetry_Pilot,2022.1.3,Win32,60.04202942,62bbe60bf3d75ef465d3e404,0,112,112,153,1,onethree,,,,,,,,,,,,,,,,,,,,,,,,,,,,,,,,,,,,,,,,,,,,,,,,,,,,,,,,,,,,,,,,,,,,,,,,,,,,,,,,,,,,,,,,,,,,,,,,,,,,,,,,,,,,,,,,,,,,,,,,,,,,,,,,,,,,,,,,,,,,,,,,,,,,,,,,
,,,,,,617118971b29a7f27b2baec5,62bbfaeb8048f9f62ee9e7c1,2022-06-29_09h11.09.746,Colour_Asymmetry_Pilot,2022.1.3,Win32,60.04202942,62bbe60bf3d75ef465d3e404,0,113,113,25,1,onethree,,,,,,,,,,,,,,,,,,,,,,,,,,,,,,,,,,,,,,,,,,,,,,,,,,,,,,,,,,,,,,,,,,,,,,,,,,,,,,,,,,,,,,,,,,,,,,,,,,,,,,,,,,,,,,,,,,,,,,,,,,,,,,,,,,,,,,,,,,,,,,,,,,,,,,,,
,,,,,,617118971b29a7f27b2baec5,62bbfaeb8048f9f62ee9e7c1,2022-06-29_09h11.09.746,Colour_Asymmetry_Pilot,2022.1.3,Win32,60.04202942,62bbe60bf3d75ef465d3e404,0,114,114,147,1,twofour,,,,,,,,,,,,,,,,,,,,,,,,,,,,,,,,,,,,,,,,,,,,,,,,,,,,,,,,,,,,,,,,,,,,,,,,,,,,,,,,,,,,,,,,,,,,,,,,,,,,,,,,,,,,,,,,,,,,,,,,,,,,,,,,,,,,,,,,,,,,,,,,,,,,,,,,
,,,,,,617118971b29a7f27b2baec5,62bbfaeb8048f9f62ee9e7c1,2022-06-29_09h11.09.746,Colour_Asymmetry_Pilot,2022.1.3,Win32,60.04202942,62bbe60bf3d75ef465d3e404,0,115,115,103,1,fourthree,,,,,,,,,,,,,,,,,,,,,,,,,,,,,,,,,,,,,,,,,,,,,,,,,,,,,,,,,,,,,,,,,,,,,,,,,,,,,,,,,,,,,,,,,,,,,,,,,,,,,,,,,,,,,,,,,,,,,,,,,,,,,,,,,,,,,,,,,,,,,,,,,,,,,,,,
,,,,,,617118971b29a7f27b2baec5,62bbfaeb8048f9f62ee9e7c1,2022-06-29_09h11.09.746,Colour_Asymmetry_Pilot,2022.1.3,Win32,60.04202942,62bbe60bf3d75ef465d3e404,0,116,116,56,1,onetwo,,,,,,,,,,,,,,,,,,,,,,,,,,,,,,,,,,,,,,,,,,,,,,,,,,,,,,,,,,,,,,,,,,,,,,,,,,,,,,,,,,,,,,,,,,,,,,,,,,,,,,,,,,,,,,,,,,,,,,,,,,,,,,,,,,,,,,,,,,,,,,,,,,,,,,,,
,,,,,,617118971b29a7f27b2baec5,62bbfaeb8048f9f62ee9e7c1,2022-06-29_09h11.09.746,Colour_Asymmetry_Pilot,2022.1.3,Win32,60.04202942,62bbe60bf3d75ef465d3e404,0,117,117,110,1,fourtwo,,,,,,,,,,,,,,,,,,,,,,,,,,,,,,,,,,,,,,,,,,,,,,,,,,,,,,,,,,,,,,,,,,,,,,,,,,,,,,,,,,,,,,,,,,,,,,,,,,,,,,,,,,,,,,,,,,,,,,,,,,,,,,,,,,,,,,,,,,,,,,,,,,,,,,,,
,,,,,,617118971b29a7f27b2baec5,62bbfaeb8048f9f62ee9e7c1,2022-06-29_09h11.09.746,Colour_Asymmetry_Pilot,2022.1.3,Win32,60.04202942,62bbe60bf3d75ef465d3e404,0,118,118,104,1,onetwo,,,,,,,,,,,,,,,,,,,,,,,,,,,,,,,,,,,,,,,,,,,,,,,,,,,,,,,,,,,,,,,,,,,,,,,,,,,,,,,,,,,,,,,,,,,,,,,,,,,,,,,,,,,,,,,,,,,,,,,,,,,,,,,,,,,,,,,,,,,,,,,,,,,,,,,,
,,,,,,617118971b29a7f27b2baec5,62bbfaeb8048f9f62ee9e7c1,2022-06-29_09h11.09.746,Colour_Asymmetry_Pilot,2022.1.3,Win32,60.04202942,62bbe60bf3d75ef465d3e404,0,119,119,118,1,fourtwo,,,,,,,,,,,,,,,,,,,,,,,,,,,,,,,,,,,,,,,,,,,,,,,,,,,,,,,,,,,,,,,,,,,,,,,,,,,,,,,,,,,,,,,,,,,,,,,,,,,,,,,,,,,,,,,,,,,,,,,,,,,,,,,,,,,,,,,,,,,,,,,,,,,,,,,,
,,,,,,617118971b29a7f27b2baec5,62bbfaeb8048f9f62ee9e7c1,2022-06-29_09h11.09.746,Colour_Asymmetry_Pilot,2022.1.3,Win32,60.04202942,62bbe60bf3d75ef465d3e404,0,120,120,99,1,twofour,,,,,,,,,,,,,,,,,,,,,,,,,,,,,,,,,,,,,,,,,,,,,,,,,,,,,,,,,,,,,,,,,,,,,,,,,,,,,,,,,,,,,,,,,,,,,,,,,,,,,,,,,,,,,,,,,,,,,,,,,,,,,,,,,,,,,,,,,,,,,,,,,,,,,,,,
,,,,,,617118971b29a7f27b2baec5,62bbfaeb8048f9f62ee9e7c1,2022-06-29_09h11.09.746,Colour_Asymmetry_Pilot,2022.1.3,Win32,60.04202942,62bbe60bf3d75ef465d3e404,0,121,121,12,1,threeone,,,,,,,,,,,,,,,,,,,,,,,,,,,,,,,,,,,,,,,,,,,,,,,,,,,,,,,,,,,,,,,,,,,,,,,,,,,,,,,,,,,,,,,,,,,,,,,,,,,,,,,,,,,,,,,,,,,,,,,,,,,,,,,,,,,,,,,,,,,,,,,,,,,,,,,,
,,,,,,617118971b29a7f27b2baec5,62bbfaeb8048f9f62ee9e7c1,2022-06-29_09h11.09.746,Colour_Asymmetry_Pilot,2022.1.3,Win32,60.04202942,62bbe60bf3d75ef465d3e404,0,122,122,138,1,twoone,,,,,,,,,,,,,,,,,,,,,,,,,,,,,,,,,,,,,,,,,,,,,,,,,,,,,,,,,,,,,,,,,,,,,,,,,,,,,,,,,,,,,,,,,,,,,,,,,,,,,,,,,,,,,,,,,,,,,,,,,,,,,,,,,,,,,,,,,,,,,,,,,,,,,,,,
,,,,,,617118971b29a7f27b2baec5,62bbfaeb8048f9f62ee9e7c1,2022-06-29_09h11.09.746,Colour_Asymmetry_Pilot,2022.1.3,Win32,60.04202942,62bbe60bf3d75ef465d3e404,0,123,123,112,1,onetwo,,,,,,,,,,,,,,,,,,,,,,,,,,,,,,,,,,,,,,,,,,,,,,,,,,,,,,,,,,,,,,,,,,,,,,,,,,,,,,,,,,,,,,,,,,,,,,,,,,,,,,,,,,,,,,,,,,,,,,,,,,,,,,,,,,,,,,,,,,,,,,,,,,,,,,,,
,,,,,,617118971b29a7f27b2baec5,62bbfaeb8048f9f62ee9e7c1,2022-06-29_09h11.09.746,Colour_Asymmetry_Pilot,2022.1.3,Win32,60.04202942,62bbe60bf3d75ef465d3e404,0,124,124,117,1,threefour,,,,,,,,,,,,,,,,,,,,,,,,,,,,,,,,,,,,,,,,,,,,,,,,,,,,,,,,,,,,,,,,,,,,,,,,,,,,,,,,,,,,,,,,,,,,,,,,,,,,,,,,,,,,,,,,,,,,,,,,,,,,,,,,,,,,,,,,,,,,,,,,,,,,,,,,
,,,,,,617118971b29a7f27b2baec5,62bbfaeb8048f9f62ee9e7c1,2022-06-29_09h11.09.746,Colour_Asymmetry_Pilot,2022.1.3,Win32,60.04202942,62bbe60bf3d75ef465d3e404,0,125,125,115,1,twofour,,,,,,,,,,,,,,,,,,,,,,,,,,,,,,,,,,,,,,,,,,,,,,,,,,,,,,,,,,,,,,,,,,,,,,,,,,,,,,,,,,,,,,,,,,,,,,,,,,,,,,,,,,,,,,,,,,,,,,,,,,,,,,,,,,,,,,,,,,,,,,,,,,,,,,,,
,,,,,,617118971b29a7f27b2baec5,62bbfaeb8048f9f62ee9e7c1,2022-06-29_09h11.09.746,Colour_Asymmetry_Pilot,2022.1.3,Win32,60.04202942,62bbe60bf3d75ef465d3e404,0,126,126,65,1,onethree,,,,,,,,,,,,,,,,,,,,,,,,,,,,,,,,,,,,,,,,,,,,,,,,,,,,,,,,,,,,,,,,,,,,,,,,,,,,,,,,,,,,,,,,,,,,,,,,,,,,,,,,,,,,,,,,,,,,,,,,,,,,,,,,,,,,,,,,,,,,,,,,,,,,,,,,
,,,,,,617118971b29a7f27b2baec5,62bbfaeb8048f9f62ee9e7c1,2022-06-29_09h11.09.746,Colour_Asymmetry_Pilot,2022.1.3,Win32,60.04202942,62bbe60bf3d75ef465d3e404,0,127,127,8,1,onetwo,,,,,,,,,,,,,,,,,,,,,,,,,,,,,,,,,,,,,,,,,,,,,,,,,,,,,,,,,,,,,,,,,,,,,,,,,,,,,,,,,,,,,,,,,,,,,,,,,,,,,,,,,,,,,,,,,,,,,,,,,,,,,,,,,,,,,,,,,,,,,,,,,,,,,,,,
,,,,,,617118971b29a7f27b2baec5,62bbfaeb8048f9f62ee9e7c1,2022-06-29_09h11.09.746,Colour_Asymmetry_Pilot,2022.1.3,Win32,60.04202942,62bbe60bf3d75ef465d3e404,0,128,128,34,1,twoone,,,,,,,,,,,,,,,,,,,,,,,,,,,,,,,,,,,,,,,,,,,,,,,,,,,,,,,,,,,,,,,,,,,,,,,,,,,,,,,,,,,,,,,,,,,,,,,,,,,,,,,,,,,,,,,,,,,,,,,,,,,,,,,,,,,,,,,,,,,,,,,,,,,,,,,,
,,,,,,617118971b29a7f27b2baec5,62bbfaeb8048f9f62ee9e7c1,2022-06-29_09h11.09.746,Colour_Asymmetry_Pilot,2022.1.3,Win32,60.04202942,62bbe60bf3d75ef465d3e404,0,129,129,158,1,fourtwo,,,,,,,,,,,,,,,,,,,,,,,,,,,,,,,,,,,,,,,,,,,,,,,,,,,,,,,,,,,,,,,,,,,,,,,,,,,,,,,,,,,,,,,,,,,,,,,,,,,,,,,,,,,,,,,,,,,,,,,,,,,,,,,,,,,,,,,,,,,,,,,,,,,,,,,,
,,,,,,617118971b29a7f27b2baec5,62bbfaeb8048f9f62ee9e7c1,2022-06-29_09h11.09.746,Colour_Asymmetry_Pilot,2022.1.3,Win32,60.04202942,62bbe60bf3d75ef465d3e404,0,130,130,152,1,onetwo,,,,,,,,,,,,,,,,,,,,,,,,,,,,,,,,,,,,,,,,,,,,,,,,,,,,,,,,,,,,,,,,,,,,,,,,,,,,,,,,,,,,,,,,,,,,,,,,,,,,,,,,,,,,,,,,,,,,,,,,,,,,,,,,,,,,,,,,,,,,,,,,,,,,,,,,
,,,,,,617118971b29a7f27b2baec5,62bbfaeb8048f9f62ee9e7c1,2022-06-29_09h11.09.746,Colour_Asymmetry_Pilot,2022.1.3,Win32,60.04202942,62bbe60bf3d75ef465d3e404,0,131,131,145,1,onethree,,,,,,,,,,,,,,,,,,,,,,,,,,,,,,,,,,,,,,,,,,,,,,,,,,,,,,,,,,,,,,,,,,,,,,,,,,,,,,,,,,,,,,,,,,,,,,,,,,,,,,,,,,,,,,,,,,,,,,,,,,,,,,,,,,,,,,,,,,,,,,,,,,,,,,,,
,,,,,,617118971b29a7f27b2baec5,62bbfaeb8048f9f62ee9e7c1,2022-06-29_09h11.09.746,Colour_Asymmetry_Pilot,2022.1.3,Win32,60.04202942,62bbe60bf3d75ef465d3e404,0,132,132,114,1,twoone,,,,,,,,,,,,,,,,,,,,,,,,,,,,,,,,,,,,,,,,,,,,,,,,,,,,,,,,,,,,,,,,,,,,,,,,,,,,,,,,,,,,,,,,,,,,,,,,,,,,,,,,,,,,,,,,,,,,,,,,,,,,,,,,,,,,,,,,,,,,,,,,,,,,,,,,
,,,,,,617118971b29a7f27b2baec5,62bbfaeb8048f9f62ee9e7c1,2022-06-29_09h11.09.746,Colour_Asymmetry_Pilot,2022.1.3,Win32,60.04202942,62bbe60bf3d75ef465d3e404,0,133,133,54,1,fourtwo,,,,,,,,,,,,,,,,,,,,,,,,,,,,,,,,,,,,,,,,,,,,,,,,,,,,,,,,,,,,,,,,,,,,,,,,,,,,,,,,,,,,,,,,,,,,,,,,,,,,,,,,,,,,,,,,,,,,,,,,,,,,,,,,,,,,,,,,,,,,,,,,,,,,,,,,
,,,,,,617118971b29a7f27b2baec5,62bbfaeb8048f9f62ee9e7c1,2022-06-29_09h11.09.746,Colour_Asymmetry_Pilot,2022.1.3,Win32,60.04202942,62bbe60bf3d75ef465d3e404,0,134,134,128,1,onetwo,,,,,,,,,,,,,,,,,,,,,,,,,,,,,,,,,,,,,,,,,,,,,,,,,,,,,,,,,,,,,,,,,,,,,,,,,,,,,,,,,,,,,,,,,,,,,,,,,,,,,,,,,,,,,,,,,,,,,,,,,,,,,,,,,,,,,,,,,,,,,,,,,,,,,,,,
,,,,,,617118971b29a7f27b2baec5,62bbfaeb8048f9f62ee9e7c1,2022-06-29_09h11.09.746,Colour_Asymmetry_Pilot,2022.1.3,Win32,60.04202942,62bbe60bf3d75ef465d3e404,0,135,135,107,1,twofour,,,,,,,,,,,,,,,,,,,,,,,,,,,,,,,,,,,,,,,,,,,,,,,,,,,,,,,,,,,,,,,,,,,,,,,,,,,,,,,,,,,,,,,,,,,,,,,,,,,,,,,,,,,,,,,,,,,,,,,,,,,,,,,,,,,,,,,,,,,,,,,,,,,,,,,,
,,,,,,617118971b29a7f27b2baec5,62bbfaeb8048f9f62ee9e7c1,2022-06-29_09h11.09.746,Colour_Asymmetry_Pilot,2022.1.3,Win32,60.04202942,62bbe60bf3d75ef465d3e404,0,136,136,61,1,threefour,,,,,,,,,,,,,,,,,,,,,,,,,,,,,,,,,,,,,,,,,,,,,,,,,,,,,,,,,,,,,,,,,,,,,,,,,,,,,,,,,,,,,,,,,,,,,,,,,,,,,,,,,,,,,,,,,,,,,,,,,,,,,,,,,,,,,,,,,,,,,,,,,,,,,,,,
,,,,,,617118971b29a7f27b2baec5,62bbfaeb8048f9f62ee9e7c1,2022-06-29_09h11.09.746,Colour_Asymmetry_Pilot,2022.1.3,Win32,60.04202942,62bbe60bf3d75ef465d3e404,0,137,137,95,1,fourthree,,,,,,,,,,,,,,,,,,,,,,,,,,,,,,,,,,,,,,,,,,,,,,,,,,,,,,,,,,,,,,,,,,,,,,,,,,,,,,,,,,,,,,,,,,,,,,,,,,,,,,,,,,,,,,,,,,,,,,,,,,,,,,,,,,,,,,,,,,,,,,,,,,,,,,,,
,,,,,,617118971b29a7f27b2baec5,62bbfaeb8048f9f62ee9e7c1,2022-06-29_09h11.09.746,Colour_Asymmetry_Pilot,2022.1.3,Win32,60.04202942,62bbe60bf3d75ef465d3e404,0,138,138,155,1,twofour,,,,,,,,,,,,,,,,,,,,,,,,,,,,,,,,,,,,,,,,,,,,,,,,,,,,,,,,,,,,,,,,,,,,,,,,,,,,,,,,,,,,,,,,,,,,,,,,,,,,,,,,,,,,,,,,,,,,,,,,,,,,,,,,,,,,,,,,,,,,,,,,,,,,,,,,
,,,,,,617118971b29a7f27b2baec5,62bbfaeb8048f9f62ee9e7c1,2022-06-29_09h11.09.746,Colour_Asymmetry_Pilot,2022.1.3,Win32,60.04202942,62bbe60bf3d75ef465d3e404,0,139,139,3,1,twofour,,,,,,,,,,,,,,,,,,,,,,,,,,,,,,,,,,,,,,,,,,,,,,,,,,,,,,,,,,,,,,,,,,,,,,,,,,,,,,,,,,,,,,,,,,,,,,,,,,,,,,,,,,,,,,,,,,,,,,,,,,,,,,,,,,,,,,,,,,,,,,,,,,,,,,,,
,,,,,,617118971b29a7f27b2baec5,62bbfaeb8048f9f62ee9e7c1,2022-06-29_09h11.09.746,Colour_Asymmetry_Pilot,2022.1.3,Win32,60.04202942,62bbe60bf3d75ef465d3e404,0,140,140,80,1,onetwo,,,,,,,,,,,,,,,,,,,,,,,,,,,,,,,,,,,,,,,,,,,,,,,,,,,,,,,,,,,,,,,,,,,,,,,,,,,,,,,,,,,,,,,,,,,,,,,,,,,,,,,,,,,,,,,,,,,,,,,,,,,,,,,,,,,,,,,,,,,,,,,,,,,,,,,,
,,,,,,617118971b29a7f27b2baec5,62bbfaeb8048f9f62ee9e7c1,2022-06-29_09h11.09.746,Colour_Asymmetry_Pilot,2022.1.3,Win32,60.04202942,62bbe60bf3d75ef465d3e404,0,141,141,132,1,threeone,,,,,,,,,,,,,,,,,,,,,,,,,,,,,,,,,,,,,,,,,,,,,,,,,,,,,,,,,,,,,,,,,,,,,,,,,,,,,,,,,,,,,,,,,,,,,,,,,,,,,,,,,,,,,,,,,,,,,,,,,,,,,,,,,,,,,,,,,,,,,,,,,,,,,,,,
,,,,,,617118971b29a7f27b2baec5,62bbfaeb8048f9f62ee9e7c1,2022-06-29_09h11.09.746,Colour_Asymmetry_Pilot,2022.1.3,Win32,60.04202942,62bbe60bf3d75ef465d3e404,0,142,142,0,1,onetwo,,,,,,,,,,,,,,,,,,,,,,,,,,,,,,,,,,,,,,,,,,,,,,,,,,,,,,,,,,,,,,,,,,,,,,,,,,,,,,,,,,,,,,,,,,,,,,,,,,,,,,,,,,,,,,,,,,,,,,,,,,,,,,,,,,,,,,,,,,,,,,,,,,,,,,,,
,,,,,,617118971b29a7f27b2baec5,62bbfaeb8048f9f62ee9e7c1,2022-06-29_09h11.09.746,Colour_Asymmetry_Pilot,2022.1.3,Win32,60.04202942,62bbe60bf3d75ef465d3e404,0,143,143,50,1,twoone,,,,,,,,,,,,,,,,,,,,,,,,,,,,,,,,,,,,,,,,,,,,,,,,,,,,,,,,,,,,,,,,,,,,,,,,,,,,,,,,,,,,,,,,,,,,,,,,,,,,,,,,,,,,,,,,,,,,,,,,,,,,,,,,,,,,,,,,,,,,,,,,,,,,,,,,
,,,,,,617118971b29a7f27b2baec5,62bbfaeb8048f9f62ee9e7c1,2022-06-29_09h11.09.746,Colour_Asymmetry_Pilot,2022.1.3,Win32,60.04202942,62bbe60bf3d75ef465d3e404,0,144,144,18,1,twoone,,,,,,,,,,,,,,,,,,,,,,,,,,,,,,,,,,,,,,,,,,,,,,,,,,,,,,,,,,,,,,,,,,,,,,,,,,,,,,,,,,,,,,,,,,,,,,,,,,,,,,,,,,,,,,,,,,,,,,,,,,,,,,,,,,,,,,,,,,,,,,,,,,,,,,,,
,,,,,,617118971b29a7f27b2baec5,62bbfaeb8048f9f62ee9e7c1,2022-06-29_09h11.09.746,Colour_Asymmetry_Pilot,2022.1.3,Win32,60.04202942,62bbe60bf3d75ef465d3e404,0,145,145,77,1,threefour,,,,,,,,,,,,,,,,,,,,,,,,,,,,,,,,,,,,,,,,,,,,,,,,,,,,,,,,,,,,,,,,,,,,,,,,,,,,,,,,,,,,,,,,,,,,,,,,,,,,,,,,,,,,,,,,,,,,,,,,,,,,,,,,,,,,,,,,,,,,,,,,,,,,,,,,
,,,,,,617118971b29a7f27b2baec5,62bbfaeb8048f9f62ee9e7c1,2022-06-29_09h11.09.746,Colour_Asymmetry_Pilot,2022.1.3,Win32,60.04202942,62bbe60bf3d75ef465d3e404,0,146,146,59,1,twofour,,,,,,,,,,,,,,,,,,,,,,,,,,,,,,,,,,,,,,,,,,,,,,,,,,,,,,,,,,,,,,,,,,,,,,,,,,,,,,,,,,,,,,,,,,,,,,,,,,,,,,,,,,,,,,,,,,,,,,,,,,,,,,,,,,,,,,,,,,,,,,,,,,,,,,,,
,,,,,,617118971b29a7f27b2baec5,62bbfaeb8048f9f62ee9e7c1,2022-06-29_09h11.09.746,Colour_Asymmetry_Pilot,2022.1.3,Win32,60.04202942,62bbe60bf3d75ef465d3e404,0,147,147,10,1,twoone,,,,,,,,,,,,,,,,,,,,,,,,,,,,,,,,,,,,,,,,,,,,,,,,,,,,,,,,,,,,,,,,,,,,,,,,,,,,,,,,,,,,,,,,,,,,,,,,,,,,,,,,,,,,,,,,,,,,,,,,,,,,,,,,,,,,,,,,,,,,,,,,,,,,,,,,
,,,,,,617118971b29a7f27b2baec5,62bbfaeb8048f9f62ee9e7c1,2022-06-29_09h11.09.746,Colour_Asymmetry_Pilot,2022.1.3,Win32,60.04202942,62bbe60bf3d75ef465d3e404,0,148,148,71,1,fourthree,,,,,,,,,,,,,,,,,,,,,,,,,,,,,,,,,,,,,,,,,,,,,,,,,,,,,,,,,,,,,,,,,,,,,,,,,,,,,,,,,,,,,,,,,,,,,,,,,,,,,,,,,,,,,,,,,,,,,,,,,,,,,,,,,,,,,,,,,,,,,,,,,,,,,,,,
,,,,,,617118971b29a7f27b2baec5,62bbfaeb8048f9f62ee9e7c1,2022-06-29_09h11.09.746,Colour_Asymmetry_Pilot,2022.1.3,Win32,60.04202942,62bbe60bf3d75ef465d3e404,0,149,149,9,1,onethree,,,,,,,,,,,,,,,,,,,,,,,,,,,,,,,,,,,,,,,,,,,,,,,,,,,,,,,,,,,,,,,,,,,,,,,,,,,,,,,,,,,,,,,,,,,,,,,,,,,,,,,,,,,,,,,,,,,,,,,,,,,,,,,,,,,,,,,,,,,,,,,,,,,,,,,,
,,,,,,617118971b29a7f27b2baec5,62bbfaeb8048f9f62ee9e7c1,2022-06-29_09h11.09.746,Colour_Asymmetry_Pilot,2022.1.3,Win32,60.04202942,62bbe60bf3d75ef465d3e404,0,150,150,33,1,onethree,,,,,,,,,,,,,,,,,,,,,,,,,,,,,,,,,,,,,,,,,,,,,,,,,,,,,,,,,,,,,,,,,,,,,,,,,,,,,,,,,,,,,,,,,,,,,,,,,,,,,,,,,,,,,,,,,,,,,,,,,,,,,,,,,,,,,,,,,,,,,,,,,,,,,,,,
,,,,,,617118971b29a7f27b2baec5,62bbfaeb8048f9f62ee9e7c1,2022-06-29_09h11.09.746,Colour_Asymmetry_Pilot,2022.1.3,Win32,60.04202942,62bbe60bf3d75ef465d3e404,0,151,151,40,1,onetwo,,,,,,,,,,,,,,,,,,,,,,,,,,,,,,,,,,,,,,,,,,,,,,,,,,,,,,,,,,,,,,,,,,,,,,,,,,,,,,,,,,,,,,,,,,,,,,,,,,,,,,,,,,,,,,,,,,,,,,,,,,,,,,,,,,,,,,,,,,,,,,,,,,,,,,,,
,,,,,,617118971b29a7f27b2baec5,62bbfaeb8048f9f62ee9e7c1,2022-06-29_09h11.09.746,Colour_Asymmetry_Pilot,2022.1.3,Win32,60.04202942,62bbe60bf3d75ef465d3e404,0,152,152,69,1,threefour,,,,,,,,,,,,,,,,,,,,,,,,,,,,,,,,,,,,,,,,,,,,,,,,,,,,,,,,,,,,,,,,,,,,,,,,,,,,,,,,,,,,,,,,,,,,,,,,,,,,,,,,,,,,,,,,,,,,,,,,,,,,,,,,,,,,,,,,,,,,,,,,,,,,,,,,
,,,,,,617118971b29a7f27b2baec5,62bbfaeb8048f9f62ee9e7c1,2022-06-29_09h11.09.746,Colour_Asymmetry_Pilot,2022.1.3,Win32,60.04202942,62bbe60bf3d75ef465d3e404,0,153,153,35,1,twofour,,,,,,,,,,,,,,,,,,,,,,,,,,,,,,,,,,,,,,,,,,,,,,,,,,,,,,,,,,,,,,,,,,,,,,,,,,,,,,,,,,,,,,,,,,,,,,,,,,,,,,,,,,,,,,,,,,,,,,,,,,,,,,,,,,,,,,,,,,,,,,,,,,,,,,,,
,,,,,,617118971b29a7f27b2baec5,62bbfaeb8048f9f62ee9e7c1,2022-06-29_09h11.09.746,Colour_Asymmetry_Pilot,2022.1.3,Win32,60.04202942,62bbe60bf3d75ef465d3e404,0,154,154,60,1,threeone,,,,,,,,,,,,,,,,,,,,,,,,,,,,,,,,,,,,,,,,,,,,,,,,,,,,,,,,,,,,,,,,,,,,,,,,,,,,,,,,,,,,,,,,,,,,,,,,,,,,,,,,,,,,,,,,,,,,,,,,,,,,,,,,,,,,,,,,,,,,,,,,,,,,,,,,
,,,,,,617118971b29a7f27b2baec5,62bbfaeb8048f9f62ee9e7c1,2022-06-29_09h11.09.746,Colour_Asymmetry_Pilot,2022.1.3,Win32,60.04202942,62bbe60bf3d75ef465d3e404,0,155,155,130,1,twoone,,,,,,,,,,,,,,,,,,,,,,,,,,,,,,,,,,,,,,,,,,,,,,,,,,,,,,,,,,,,,,,,,,,,,,,,,,,,,,,,,,,,,,,,,,,,,,,,,,,,,,,,,,,,,,,,,,,,,,,,,,,,,,,,,,,,,,,,,,,,,,,,,,,,,,,,
,,,,,,617118971b29a7f27b2baec5,62bbfaeb8048f9f62ee9e7c1,2022-06-29_09h11.09.746,Colour_Asymmetry_Pilot,2022.1.3,Win32,60.04202942,62bbe60bf3d75ef465d3e404,0,156,156,106,1,twoone,,,,,,,,,,,,,,,,,,,,,,,,,,,,,,,,,,,,,,,,,,,,,,,,,,,,,,,,,,,,,,,,,,,,,,,,,,,,,,,,,,,,,,,,,,,,,,,,,,,,,,,,,,,,,,,,,,,,,,,,,,,,,,,,,,,,,,,,,,,,,,,,,,,,,,,,
,,,,,,617118971b29a7f27b2baec5,62bbfaeb8048f9f62ee9e7c1,2022-06-29_09h11.09.746,Colour_Asymmetry_Pilot,2022.1.3,Win32,60.04202942,62bbe60bf3d75ef465d3e404,0,157,157,85,1,threefour,,,,,,,,,,,,,,,,,,,,,,,,,,,,,,,,,,,,,,,,,,,,,,,,,,,,,,,,,,,,,,,,,,,,,,,,,,,,,,,,,,,,,,,,,,,,,,,,,,,,,,,,,,,,,,,,,,,,,,,,,,,,,,,,,,,,,,,,,,,,,,,,,,,,,,,,
,,,,,,617118971b29a7f27b2baec5,62bbfaeb8048f9f62ee9e7c1,2022-06-29_09h11.09.746,Colour_Asymmetry_Pilot,2022.1.3,Win32,60.04202942,62bbe60bf3d75ef465d3e404,0,158,158,108,1,threeone,,,,,,,,,,,,,,,,,,,,,,,,,,,,,,,,,,,,,,,,,,,,,,,,,,,,,,,,,,,,,,,,,,,,,,,,,,,,,,,,,,,,,,,,,,,,,,,,,,,,,,,,,,,,,,,,,,,,,,,,,,,,,,,,,,,,,,,,,,,,,,,,,,,,,,,,
,,,,,,617118971b29a7f27b2baec5,62bbfaeb8048f9f62ee9e7c1,2022-06-29_09h11.09.746,Colour_Asymmetry_Pilot,2022.1.3,Win32,60.04202942,62bbe60bf3d75ef465d3e404,0,159,159,19,1,twofour,,,,,,,,,,,,,,,,,,,,,,,,,,,,,,,,,,,,,,,,,,,,,,,,,,,,,,,,,,,,,,,,,,,,,,,,,,,,,,,,,,,,,,,,,,,,,,,,,,,,,,,,,,,,,,,,,,,,,,,,,,,,,,,,,,,,,,,,,,,,,,,,,,,,,,,,
,,,,,,617118971b29a7f27b2baec5,62bbfaeb8048f9f62ee9e7c1,2022-06-29_09h11.09.746,Colour_Asymmetry_Pilot,2022.1.3,Win32,60.04202942,62bbe60bf3d75ef465d3e404,0,160,160,27,1,twofour,,,,,,,,,,,,,,,,,,,,,,,,,,,,,,,,,,,,,,,,,,,,,,,,,,,,,,,,,,,,,,,,,,,,,,,,,,,,,,,,,,,,,,,,,,,,,,,,,,,,,,,,,,,,,,,,,,,,,,,,,,,,,,,,,,,,,,,,,,,,,,,,,,,,,,,,
,,,,,,617118971b29a7f27b2baec5,62bbfaeb8048f9f62ee9e7c1,2022-06-29_09h11.09.746,Colour_Asymmetry_Pilot,2022.1.3,Win32,60.04202942,62bbe60bf3d75ef465d3e404,0,161,161,62,1,fourtwo,,,,,,,,,,,,,,,,,,,,,,,,,,,,,,,,,,,,,,,,,,,,,,,,,,,,,,,,,,,,,,,,,,,,,,,,,,,,,,,,,,,,,,,,,,,,,,,,,,,,,,,,,,,,,,,,,,,,,,,,,,,,,,,,,,,,,,,,,,,,,,,,,,,,,,,,
,,,,,,617118971b29a7f27b2baec5,62bbfaeb8048f9f62ee9e7c1,2022-06-29_09h11.09.746,Colour_Asymmetry_Pilot,2022.1.3,Win32,60.04202942,62bbe60bf3d75ef465d3e404,,,,,,,space,3.3252,space,11.9006,space,53.0964,space,6.7552,space,2.3088,space,5.7747,"[-0.011800000000000033,-0.906,-0.45100000000000007]",fourthree,"[0.9686000000000001,0.5763999999999998,0.11359999999999992]",-4,9.0466,-42,91,1,0,0,response7disk_5,4,-3,1,0,0,rectangle_8,4,-3,1,0,0,1,4,-3,1,0,0,0,0,0,0,1,,,,,,,,,,,,,,,,,,,,,,,,,,,,,,,,,,,,,,,,,,,,,,,,,,,,,,,,,,,,,,,,,,,,,,,,,,,,,,,,,,,,,,,,,,,,,,,,,,,,,,,,,,,
,,,,,,617118971b29a7f27b2baec5,62bbfaeb8048f9f62ee9e7c1,2022-06-29_09h11.09.746,Colour_Asymmetry_Pilot,2022.1.3,Win32,60.04202942,62bbe60bf3d75ef465d3e404,,,,,,,,,,,,,,,,,,,"[-0.050999999999999934,-0.6706000000000001,-0.804]",fourtwo,"[-0.4668,-0.8746,-0.2942]",-4,3.9169,-49,114,1,0,0,response7disk_5,22,-11,1,0,0,rectangle_8,22,-11,1,0,0,1,22,-11,1,0,0,1,0,1,0,1,,,,,,,,,,,,,,,,,,,,,,,,,,,,,,,,,,,,,,,,,,,,,,,,,,,,,,,,,,,,,,,,,,,,,,,,,,,,,,,,,,,,,,,,,,,,,,,,,,,,,,,,,,,
,,,,,,617118971b29a7f27b2baec5,62bbfaeb8048f9f62ee9e7c1,2022-06-29_09h11.09.746,Colour_Asymmetry_Pilot,2022.1.3,Win32,60.04202942,62bbe60bf3d75ef465d3e404,,,,,,,,,,,,,,,,,,,"[-0.4668,-0.8746,-0.2942]",fourtwo,"[-0.4668,-0.8746,-0.2942]",4,3.0835,45,108,1,0,0,response1disk_5,26,-14,1,0,0,rectangle_8,54,-121,1,0,0,1,-5,6,1,0,0,2,0,2,0,1,response3disk_7,4,rectangle_4,,,,,,,,,,,,,,,,,,,,,,,,,,,,,,,,,,,,,,,,,,,,,,,,,,,,,,,,,,,,,,,,,,,,,,,,,,,,,,,,,,,,,,,,,,,,,,,,,,,,,,,,
,,,,,,617118971b29a7f27b2baec5,62bbfaeb8048f9f62ee9e7c1,2022-06-29_09h11.09.746,Colour_Asymmetry_Pilot,2022.1.3,Win32,60.04202942,62bbe60bf3d75ef465d3e404,,,,,,,,,,,,,,,,,,,"[-0.24719999999999998,-0.0354000000000001,0.3175999999999999]",fourthree,"[0.2784,-0.31000000000000005,-0.5452]",-4,2.1671,-45,143,1,0,0,response7disk_5,-26,-3,1,0,0,rectangle_8,-26,-3,1,0,0,1,-26,-3,1,0,0,3,0,3,0,1,,,,,,,,,,,,,,,,,,,,,,,,,,,,,,,,,,,,,,,,,,,,,,,,,,,,,,,,,,,,,,,,,,,,,,,,,,,,,,,,,,,,,,,,,,,,,,,,,,,,,,,,,,,
,,,,,,617118971b29a7f27b2baec5,62bbfaeb8048f9f62ee9e7c1,2022-06-29_09h11.09.746,Colour_Asymmetry_Pilot,2022.1.3,Win32,60.04202942,62bbe60bf3d75ef465d3e404,,,,,,,,,,,,,,,,,,,"[0.7802,-0.23140000000000005,-0.20799999999999996]",threefour,"[-0.4746,-0.0354000000000001,0.5449999999999999]",-4,2.5835,-45,120,1,0,0,response7disk_5,-15,1,1,0,0,rectangle_8,-15,1,1,0,0,1,-15,1,1,0,0,4,0,4,0,1,,,,,,,,,,,,,,,,,,,,,,,,,,,,,,,,,,,,,,,,,,,,,,,,,,,,,,,,,,,,,,,,,,,,,,,,,,,,,,,,,,,,,,,,,,,,,,,,,,,,,,,,,,,
,,,,,,617118971b29a7f27b2baec5,62bbfaeb8048f9f62ee9e7c1,2022-06-29_09h11.09.746,Colour_Asymmetry_Pilot,2022.1.3,Win32,60.04202942,62bbe60bf3d75ef465d3e404,,,,,,,,,,,,,,,,,,,"[0.0351999999999999,0.41159999999999997,0.0038000000000000256]",fourthree,"[-0.26280000000000003,-0.2158,-0.3256]",-2,2.6672,-70,-44,1,0,0,response5disk_5,32,-1,1,0,0,rectangle_8,32,-1,1,0,0,1,32,-1,1,0,0,5,0,5,0,1,,,,,,,,,,,,,,,,,,,,,,,,,,,,,,,,,,,,,,,,,,,,,,,,,,,,,,,,,,,,,,,,,,,,,,,,,,,,,,,,,,,,,,,,,,,,,,,,,,,,,,,,,,,
,,,,,,617118971b29a7f27b2baec5,62bbfaeb8048f9f62ee9e7c1,2022-06-29_09h11.09.746,Colour_Asymmetry_Pilot,2022.1.3,Win32,60.04202942,62bbe60bf3d75ef465d3e404,,,,,,,,,,,,,,,,,,,"[-0.7412000000000001,-0.08239999999999992,-0.6864]",fourthree,"[-0.01980000000000004,-0.5138,-0.38039999999999996]",-4,2.9002,-50,112,1,0,0,response7disk_5,1,2,1,0,0,rectangle_8,1,2,1,0,0,1,1,2,1,0,0,6,0,6,0,1,,,,,,,,,,,,,,,,,,,,,,,,,,,,,,,,,,,,,,,,,,,,,,,,,,,,,,,,,,,,,,,,,,,,,,,,,,,,,,,,,,,,,,,,,,,,,,,,,,,,,,,,,,,
,,,,,,617118971b29a7f27b2baec5,62bbfaeb8048f9f62ee9e7c1,2022-06-29_09h11.09.746,Colour_Asymmetry_Pilot,2022.1.3,Win32,60.04202942,62bbe60bf3d75ef465d3e404,,,,,,,,,,,,,,,,,,,,fourtwo,,-4,1.083,,,,,,,,,,,,,,,,,,,,,,,,,,,,,,,,space,4.1808,"[-0.4982,-0.2942,-0.0354000000000001]","[0.7018,0.7176,0.6155999999999999]",-65,114,1,0,0,response7disk,-2,-4,1,0,0,rectangle,-2,-4,1,0,0,,2,0.001,0,-2,-4,1,0,0,0,0,0,153,1,72,second,,,,,,,,,,,,,,,,,,,,,,,,,,,,,,,,,,,,,,,,,,,,,,,,,,,,,,,,,,,,,,,,,,,
,,,,,,617118971b29a7f27b2baec5,62bbfaeb8048f9f62ee9e7c1,2022-06-29_09h11.09.746,Colour_Asymmetry_Pilot,2022.1.3,Win32,60.04202942,62bbe60bf3d75ef465d3e404,,,,,,,,,,,,,,,,,,,,fourtwo,,-4,0.8167,,,,,,,,,,,,,,,,,,,,,,,,,,,,,,,,,,"[0.8115999999999999,-0.0040000000000000036,-0.09819999999999995]","[-0.30200000000000005,0.14500000000000002,0.2784]",-29,95,1,0,0,response7disk,11,5,1,0,0,rectangle,11,5,1,0,0,,2,0.0002,0,11,5,1,0,0,0,1,1,114,1,33,second,,,,,,,,,,,,,,,,,,,,,,,,,,,,,,,,,,,,,,,,,,,,,,,,,,,,,,,,,,,,,,,,,,,
,,,,,,617118971b29a7f27b2baec5,62bbfaeb8048f9f62ee9e7c1,2022-06-29_09h11.09.746,Colour_Asymmetry_Pilot,2022.1.3,Win32,60.04202942,62bbe60bf3d75ef465d3e404,,,,,,,,,,,,,,,,,,,,onetwo,,2,6.8168,,,,,,,,,,,,,,,,,,,,,,,,,,,,,,,,,,"[0.8274000000000001,-0.5844,-0.9452]","[1,0.12939999999999996,-1]",95,-37,1,0,0,response3disk,11,7,1,0,0,rectangle,11,7,1,0,0,,3,0.0015,0,11,7,1,0,0,0,2,2,46,1,46,first,,,,,,,,,,,,,,,,,,,,,,,,,,,,,,,,,,,,,,,,,,,,,,,,,,,,,,,,,,,,,,,,,,,
,,,,,,617118971b29a7f27b2baec5,62bbfaeb8048f9f62ee9e7c1,2022-06-29_09h11.09.746,Colour_Asymmetry_Pilot,2022.1.3,Win32,60.04202942,62bbe60bf3d75ef465d3e404,,,,,,,,,,,,,,,,,,,,fourtwo,,2,3.1838,,,,,,,,,,,,,,,,,,,,,,,,,,,,,,,,,,"[-0.30200000000000005,0.14500000000000002,0.2784]","[-0.5452,-0.608,0.2470000000000001]",146,-54,1,0,0,response3disk,7,-9,1,0,0,rectangle,7,-9,1,0,0,,2,0.0007,0,7,-9,1,0,0,0,3,3,150,1,69,second,,,,,,,,,,,,,,,,,,,,,,,,,,,,,,,,,,,,,,,,,,,,,,,,,,,,,,,,,,,,,,,,,,,
,,,,,,617118971b29a7f27b2baec5,62bbfaeb8048f9f62ee9e7c1,2022-06-29_09h11.09.746,Colour_Asymmetry_Pilot,2022.1.3,Win32,60.04202942,62bbe60bf3d75ef465d3e404,,,,,,,,,,,,,,,,,,,,fourtwo,,-4,0.7004,,,,,,,,,,,,,,,,,,,,,,,,,,,,,,,,,,"[0.796,0.2156,-0.27859999999999996]","[-0.8198,-0.5138,-0.7492000000000001]",-43,96,1,0,0,response7disk,8,2,1,0,0,rectangle,8,2,1,0,0,,2,0.0003,0,8,2,1,0,0,0,4,4,17,1,17,first,,,,,,,,,,,,,,,,,,,,,,,,,,,,,,,,,,,,,,,,,,,,,,,,,,,,,,,,,,,,,,,,,,,
,,,,,,617118971b29a7f27b2baec5,62bbfaeb8048f9f62ee9e7c1,2022-06-29_09h11.09.746,Colour_Asymmetry_Pilot,2022.1.3,Win32,60.04202942,62bbe60bf3d75ef465d3e404,,,,,,,,,,,,,,,,,,,,threeone,,-4,3.2004,,,,,,,,,,,,,,,,,,,,,,,,,,,,,,,,,,"[-0.9216,-0.5529999999999999,-0.3962]","[0.7018,0.7176,0.6155999999999999]",-69,105,1,0,0,response7disk,-2,-2,1,0,0,rectangle,-2,-2,1,0,0,,1,0.0007,0,-2,-2,1,0,0,0,5,5,8,1,8,first,,,,,,,,,,,,,,,,,,,,,,,,,,,,,,,,,,,,,,,,,,,,,,,,,,,,,,,,,,,,,,,,,,,
,,,,,,617118971b29a7f27b2baec5,62bbfaeb8048f9f62ee9e7c1,2022-06-29_09h11.09.746,Colour_Asymmetry_Pilot,2022.1.3,Win32,60.04202942,62bbe60bf3d75ef465d3e404,,,,,,,,,,,,,,,,,,,,onethree,,-4,3.1006,,,,,,,,,,,,,,,,,,,,,,,,,,,,,,,,,,"[0.4196,0.4665999999999999,0.3568]","[0.2784,-0.31000000000000005,-0.5452]",-62,106,1,0,0,response7disk,13,-12,1,0,0,rectangle,13,-12,1,0,0,,1,1E-04,0,13,-12,1,0,0,0,6,6,28,1,28,first,,,,,,,,,,,,,,,,,,,,,,,,,,,,,,,,,,,,,,,,,,,,,,,,,,,,,,,,,,,,,,,,,,,
,,,,,,617118971b29a7f27b2baec5,62bbfaeb8048f9f62ee9e7c1,2022-06-29_09h11.09.746,Colour_Asymmetry_Pilot,2022.1.3,Win32,60.04202942,62bbe60bf3d75ef465d3e404,,,,,,,,,,,,,,,,,,,,threefour,,-4,3.6,,,,,,,,,,,,,,,,,,,,,,,,,,,,,,,,,,"[0.37240000000000006,-0.050999999999999934,-0.5216]","[0.9686000000000001,0.5763999999999998,0.11359999999999992]",-68,114,1,0,0,response7disk,-7,-5,1,0,0,rectangle,-7,-5,1,0,0,,3,0.0008,0,-7,-5,1,0,0,0,7,7,12,1,12,first,,,,,,,,,,,,,,,,,,,,,,,,,,,,,,,,,,,,,,,,,,,,,,,,,,,,,,,,,,,,,,,,,,,
,,,,,,617118971b29a7f27b2baec5,62bbfaeb8048f9f62ee9e7c1,2022-06-29_09h11.09.746,Colour_Asymmetry_Pilot,2022.1.3,Win32,60.04202942,62bbe60bf3d75ef465d3e404,,,,,,,,,,,,,,,,,,,,onetwo,,1,4.0504,,,,,,,,,,,,,,,,,,,,,,,,,,,,,,,,,,"[0.37240000000000006,-0.050999999999999934,-0.5216]","[0.7018,0.7802,-0.16079999999999994]",53,-110,1,0,0,response3disk,-19,2,1,0,0,rectangle,-19,2,1,0,0,,1,0.0007,0,-19,2,1,0,0,0,8,8,108,1,27,second,,,,,,,,,,,,,,,,,,,,,,,,,,,,,,,,,,,,,,,,,,,,,,,,,,,,,,,,,,,,,,,,,,,
,,,,,,617118971b29a7f27b2baec5,62bbfaeb8048f9f62ee9e7c1,2022-06-29_09h11.09.746,Colour_Asymmetry_Pilot,2022.1.3,Win32,60.04202942,62bbe60bf3d75ef465d3e404,,,,,,,,,,,,,,,,,,,,onethree,,-4,0.4669,,,,,,,,,,,,,,,,,,,,,,,,,,,,,,,,,,"[0.12939999999999996,-0.2864,0.3253999999999999]","[-0.8198,-0.5138,-0.7492000000000001]",-44,87,1,0,0,response7disk,1,6,1,0,0,rectangle,1,6,1,0,0,,1,0,0,1,6,1,0,0,0,9,9,44,1,44,first,,,,,,,,,,,,,,,,,,,,,,,,,,,,,,,,,,,,,,,,,,,,,,,,,,,,,,,,,,,,,,,,,,,
,,,,,,617118971b29a7f27b2baec5,62bbfaeb8048f9f62ee9e7c1,2022-06-29_09h11.09.746,Colour_Asymmetry_Pilot,2022.1.3,Win32,60.04202942,62bbe60bf3d75ef465d3e404,,,,,,,,,,,,,,,,,,,,threefour,,-4,1.3339,,,,,,,,,,,,,,,,,,,,,,,,,,,,,,,,,,"[0.9686000000000001,0.3802000000000001,0.19999999999999996]","[-0.17659999999999998,-0.2864,-0.8354]",-55,95,1,0,0,response7disk,-3,-6,1,0,0,rectangle,-3,-6,1,0,0,,2,0.0006,0,-3,-6,1,0,0,0,10,10,59,1,59,first,,,,,,,,,,,,,,,,,,,,,,,,,,,,,,,,,,,,,,,,,,,,,,,,,,,,,,,,,,,,,,,,,,,
,,,,,,617118971b29a7f27b2baec5,62bbfaeb8048f9f62ee9e7c1,2022-06-29_09h11.09.746,Colour_Asymmetry_Pilot,2022.1.3,Win32,60.04202942,62bbe60bf3d75ef465d3e404,,,,,,,,,,,,,,,,,,,,onethree,,-4,1.517,,,,,,,,,,,,,,,,,,,,,,,,,,,,,,,,,,"[-0.9216,-0.5529999999999999,-0.3962]","[0.5528,0.7409999999999999,-0.71]",-46,95,1,0,0,response7disk,10,2,1,0,0,rectangle,10,2,1,0,0,,1,0.0006,0,10,2,1,0,0,0,11,11,106,1,25,second,,,,,,,,,,,,,,,,,,,,,,,,,,,,,,,,,,,,,,,,,,,,,,,,,,,,,,,,,,,,,,,,,,,
,,,,,,617118971b29a7f27b2baec5,62bbfaeb8048f9f62ee9e7c1,2022-06-29_09h11.09.746,Colour_Asymmetry_Pilot,2022.1.3,Win32,60.04202942,62bbe60bf3d75ef465d3e404,,,,,,,,,,,,,,,,,,,,fourtwo,,2,1.2167,,,,,,,,,,,,,,,,,,,,,,,,,,,,,,,,,,"[-0.5452,-0.608,0.2470000000000001]","[-0.30200000000000005,0.14500000000000002,0.2784]",109,-59,1,0,0,response3disk,8,-3,1,0,0,rectangle,8,-3,1,0,0,,1,1E-04,0,8,-3,1,0,0,0,12,12,69,1,69,first,,,,,,,,,,,,,,,,,,,,,,,,,,,,,,,,,,,,,,,,,,,,,,,,,,,,,,,,,,,,,,,,,,,
,,,,,,617118971b29a7f27b2baec5,62bbfaeb8048f9f62ee9e7c1,2022-06-29_09h11.09.746,Colour_Asymmetry_Pilot,2022.1.3,Win32,60.04202942,62bbe60bf3d75ef465d3e404,,,,,,,,,,,,,,,,,,,,threeone,,-4,1.6009,,,,,,,,,,,,,,,,,,,,,,,,,,,,,,,,,,"[-0.17659999999999998,-0.2864,-0.8354]","[0.3881999999999999,-0.23939999999999995,-0.05040000000000011]",-47,94,1,0,0,response7disk,23,-4,1,0,0,rectangle,23,-4,1,0,0,,2,0.0008,0,23,-4,1,0,0,0,13,13,39,1,39,first,,,,,,,,,,,,,,,,,,,,,,,,,,,,,,,,,,,,,,,,,,,,,,,,,,,,,,,,,,,,,,,,,,,
,,,,,,617118971b29a7f27b2baec5,62bbfaeb8048f9f62ee9e7c1,2022-06-29_09h11.09.746,Colour_Asymmetry_Pilot,2022.1.3,Win32,60.04202942,62bbe60bf3d75ef465d3e404,,,,,,,,,,,,,,,,,,,,threeone,,3,3.3168,,,,,,,,,,,,,,,,,,,,,,,,,,,,,,,,,,"[-0.4668,-0.8746,-0.2942]","[0.09799999999999986,-0.24719999999999998,0.15280000000000005]",94,41,1,0,0,response1disk,-12,-1,1,0,0,rectangle,-12,-1,1,0,0,,3,0.0007,0,-12,-1,1,0,0,0,14,14,3,1,3,first,,,,,,,,,,,,,,,,,,,,,,,,,,,,,,,,,,,,,,,,,,,,,,,,,,,,,,,,,,,,,,,,,,,
,,,,,,617118971b29a7f27b2baec5,62bbfaeb8048f9f62ee9e7c1,2022-06-29_09h11.09.746,Colour_Asymmetry_Pilot,2022.1.3,Win32,60.04202942,62bbe60bf3d75ef465d3e404,,,,,,,,,,,,,,,,,,,,threefour,,1,1.7418,,,,,,,,,,,,,,,,,,,,,,,,,,,,,,,,,,"[-0.17659999999999998,-0.2864,-0.8354]","[0.3568,-0.20799999999999996,-0.9844]",70,-108,1,0,0,response3disk,9,6,1,0,0,rectangle,9,6,1,0,0,,3,0.0001,0,9,6,1,0,0,0,15,15,0,1,0,first,,,,,,,,,,,,,,,,,,,,,,,,,,,,,,,,,,,,,,,,,,,,,,,,,,,,,,,,,,,,,,,,,,,
,,,,,,617118971b29a7f27b2baec5,62bbfaeb8048f9f62ee9e7c1,2022-06-29_09h11.09.746,Colour_Asymmetry_Pilot,2022.1.3,Win32,60.04202942,62bbe60bf3d75ef465d3e404,,,,,,,,,,,,,,,,,,,,fourthree,,-4,0.8002,,,,,,,,,,,,,,,,,,,,,,,,,,,,,,,,,,"[0.7018,0.7176,0.6155999999999999]","[-0.4982,-0.2942,-0.0354000000000001]",-36,87,1,0,0,response7disk,12,2,1,0,0,rectangle,12,2,1,0,0,,1,0.0006,0,12,2,1,0,0,0,16,16,72,1,72,first,,,,,,,,,,,,,,,,,,,,,,,,,,,,,,,,,,,,,,,,,,,,,,,,,,,,,,,,,,,,,,,,,,,
,,,,,,617118971b29a7f27b2baec5,62bbfaeb8048f9f62ee9e7c1,2022-06-29_09h11.09.746,Colour_Asymmetry_Pilot,2022.1.3,Win32,60.04202942,62bbe60bf3d75ef465d3e404,,,,,,,,,,,,,,,,,,,,twofour,,-4,1.0166,,,,,,,,,,,,,,,,,,,,,,,,,,,,,,,,,,"[0.5528,0.7409999999999999,-0.71]","[-0.9138,-0.5296000000000001,-0.5529999999999999]",-32,91,1,0,0,response7disk,11,1,1,0,0,rectangle,11,1,1,0,0,,3,0.0006,0,11,1,1,0,0,0,17,17,77,1,77,first,,,,,,,,,,,,,,,,,,,,,,,,,,,,,,,,,,,,,,,,,,,,,,,,,,,,,,,,,,,,,,,,,,,
,,,,,,617118971b29a7f27b2baec5,62bbfaeb8048f9f62ee9e7c1,2022-06-29_09h11.09.746,Colour_Asymmetry_Pilot,2022.1.3,Win32,60.04202942,62bbe60bf3d75ef465d3e404,,,,,,,,,,,,,,,,,,,,threefour,,3,1.234,,,,,,,,,,,,,,,,,,,,,,,,,,,,,,,,,,"[-0.24719999999999998,-0.0354000000000001,0.3175999999999999]","[-0.9766,-0.6472,0.07440000000000002]",93,54,1,0,0,response1disk,-4,4,1,0,0,rectangle,-4,4,1,0,0,,1,0.0006,0,-4,4,1,0,0,0,18,18,152,1,71,second,,,,,,,,,,,,,,,,,,,,,,,,,,,,,,,,,,,,,,,,,,,,,,,,,,,,,,,,,,,,,,,,,,,
,,,,,,617118971b29a7f27b2baec5,62bbfaeb8048f9f62ee9e7c1,2022-06-29_09h11.09.746,Colour_Asymmetry_Pilot,2022.1.3,Win32,60.04202942,62bbe60bf3d75ef465d3e404,,,,,,,,,,,,,,,,,,,,onethree,,1,3.5672,,,,,,,,,,,,,,,,,,,,,,,,,,,,,,,,,,"[-0.38039999999999996,-0.4276,-0.1452]","[-0.34920000000000007,-0.702,-0.5216]",46,-110,1,0,0,response3disk,-14,-6,1,0,0,rectangle,-14,-6,1,0,0,,3,0.0006,0,-14,-6,1,0,0,0,19,19,80,1,80,first,,,,,,,,,,,,,,,,,,,,,,,,,,,,,,,,,,,,,,,,,,,,,,,,,,,,,,,,,,,,,,,,,,,
,,,,,,617118971b29a7f27b2baec5,62bbfaeb8048f9f62ee9e7c1,2022-06-29_09h11.09.746,Colour_Asymmetry_Pilot,2022.1.3,Win32,60.04202942,62bbe60bf3d75ef465d3e404,,,,,,,,,,,,,,,,,,,,twofour,,-4,0.4672,,,,,,,,,,,,,,,,,,,,,,,,,,,,,,,,,,"[-0.01980000000000004,-0.5138,-0.38039999999999996]","[-0.17659999999999998,0.3253999999999999,0.19999999999999996]",-34,100,1,0,0,response7disk,-2,9,1,0,0,rectangle,-2,9,1,0,0,,1,0.0007,0,-2,9,1,0,0,0,20,20,15,1,15,first,,,,,,,,,,,,,,,,,,,,,,,,,,,,,,,,,,,,,,,,,,,,,,,,,,,,,,,,,,,,,,,,,,,
