trials.thisRepN,trials.thisTrialN,trials.thisN,trials.thisIndex,trials.ran,Colourcodes,participant,session,date,expName,psychopyVersion,OS,frameRate,study_id,trials_4.thisRepN,trials_4.thisTrialN,trials_4.thisN,trials_4.thisIndex,trials_4.ran,StimulusPos,key_resp.keys,key_resp.rt,key_resp_2.keys,key_resp_2.rt,key_resp_15.keys,key_resp_15.rt,key_resp_17.keys,key_resp_17.rt,key_resp_9.keys,key_resp_9.rt,key_resp_10.keys,key_resp_10.rt,Circle1_col,Ecc,Circle2_col,similarity,response_time,mouse_5.x,mouse_5.y,mouse_5.leftButton,mouse_5.midButton,mouse_5.rightButton,mouse_5.clicked_name,mouse_10.x,mouse_10.y,mouse_10.leftButton,mouse_10.midButton,mouse_10.rightButton,mouse_10.clicked_name,mouse_7.x,mouse_7.y,mouse_7.leftButton,mouse_7.midButton,mouse_7.rightButton,mouse_7.clicked_name,catchprac,catchnumberprac,mouse_6.x,mouse_6.y,mouse_6.leftButton,mouse_6.midButton,mouse_6.rightButton,mouse_6.clicked_name,duringprac.thisRepN,duringprac.thisTrialN,duringprac.thisN,duringprac.thisIndex,duringprac.ran,key_resp_22.keys,key_resp_22.rt,Circle1_colour,Circle2_colour,mouse.x,mouse.y,mouse.leftButton,mouse.midButton,mouse.rightButton,mouse.clicked_name,mouse_2.x,mouse_2.y,mouse_2.leftButton,mouse_2.midButton,mouse_2.rightButton,mouse_2.clicked_name,mouse_3.x,mouse_3.y,mouse_3.leftButton,mouse_3.midButton,mouse_3.rightButton,catchresponse,catchnumber,response_time_catch,Catch,mouse_11.x,mouse_11.y,mouse_11.leftButton,mouse_11.midButton,mouse_11.rightButton,trials_2.thisRepN,trials_2.thisTrialN,trials_2.thisN,trials_2.thisIndex,trials_2.ran,Colourpair,Temporder,mouse_3.clicked_name,mouse_11.clicked_name,trials_3.thisRepN,trials_3.thisTrialN,trials_3.thisN,trials_3.thisIndex,trials_3.ran,key_resp_instr_Ishi.keys,key_resp_instr_Ishi.rt,Ishi_trial_keyresp.keys,Ishi_trial_keyresp.rt,Ishi_textbox.text,Ishi_loop.thisRepN,Ishi_loop.thisTrialN,Ishi_loop.thisN,Ishi_loop.thisIndex,Ishi_loop.ran,imageaddress,textbox.text,mouse_4.x,mouse_4.y,mouse_4.leftButton,mouse_4.midButton,mouse_4.rightButton,mouse_4.clicked_name,textbox_2.text,mouse_8.x,mouse_8.y,mouse_8.leftButton,mouse_8.midButton,mouse_8.rightButton,mouse_8.clicked_name,textbox_3.text,mouse_9.x,mouse_9.y,mouse_9.leftButton,mouse_9.midButton,mouse_9.rightButton,mouse_9.clicked_name,textbox_4.text,mouse_12.x,mouse_12.y,mouse_12.leftButton,mouse_12.midButton,mouse_12.rightButton,mouse_12.clicked_name,textbox_5.text,mouse_13.x,mouse_13.y,mouse_13.leftButton,mouse_13.midButton,mouse_13.rightButton,mouse_13.clicked_name,textbox_6.text,mouse_14.x,mouse_14.y,mouse_14.leftButton,mouse_14.midButton,mouse_14.rightButton,mouse_14.clicked_name,textbox_7.text,mouse_15.x,mouse_15.y,mouse_15.leftButton,mouse_15.midButton,mouse_15.rightButton
0,0,0,76,1,,61731cad136d641e024c3d53,62bbfaeca10048a50e88508d,2022-06-29_09h11.02.739,Colour_Asymmetry_Pilot,2022.1.3,Win32,55.98477214,62bbe60bf3d75ef465d3e404,,,,,,,,,,,,,,,,,,,,,,,,,,,,,,,,,,,,,,,,,,,,,,,,,,,,,,,,,,,,,,,,,,,,,,,,,,,,,,,,,,,,,,,,,,,,,,,,,,,,,,,,,,,,,,,,,,,,,,,,,,,,,,,,,,,,,,,,,,,,,,,,,,,,,,,,,,,,,
0,1,1,6,1,,61731cad136d641e024c3d53,62bbfaeca10048a50e88508d,2022-06-29_09h11.02.739,Colour_Asymmetry_Pilot,2022.1.3,Win32,55.98477214,62bbe60bf3d75ef465d3e404,,,,,,,,,,,,,,,,,,,,,,,,,,,,,,,,,,,,,,,,,,,,,,,,,,,,,,,,,,,,,,,,,,,,,,,,,,,,,,,,,,,,,,,,,,,,,,,,,,,,,,,,,,,,,,,,,,,,,,,,,,,,,,,,,,,,,,,,,,,,,,,,,,,,,,,,,,,,,
0,2,2,84,1,,61731cad136d641e024c3d53,62bbfaeca10048a50e88508d,2022-06-29_09h11.02.739,Colour_Asymmetry_Pilot,2022.1.3,Win32,55.98477214,62bbe60bf3d75ef465d3e404,,,,,,,,,,,,,,,,,,,,,,,,,,,,,,,,,,,,,,,,,,,,,,,,,,,,,,,,,,,,,,,,,,,,,,,,,,,,,,,,,,,,,,,,,,,,,,,,,,,,,,,,,,,,,,,,,,,,,,,,,,,,,,,,,,,,,,,,,,,,,,,,,,,,,,,,,,,,,
0,3,3,41,1,,61731cad136d641e024c3d53,62bbfaeca10048a50e88508d,2022-06-29_09h11.02.739,Colour_Asymmetry_Pilot,2022.1.3,Win32,55.98477214,62bbe60bf3d75ef465d3e404,,,,,,,,,,,,,,,,,,,,,,,,,,,,,,,,,,,,,,,,,,,,,,,,,,,,,,,,,,,,,,,,,,,,,,,,,,,,,,,,,,,,,,,,,,,,,,,,,,,,,,,,,,,,,,,,,,,,,,,,,,,,,,,,,,,,,,,,,,,,,,,,,,,,,,,,,,,,,
0,4,4,4,1,,61731cad136d641e024c3d53,62bbfaeca10048a50e88508d,2022-06-29_09h11.02.739,Colour_Asymmetry_Pilot,2022.1.3,Win32,55.98477214,62bbe60bf3d75ef465d3e404,,,,,,,,,,,,,,,,,,,,,,,,,,,,,,,,,,,,,,,,,,,,,,,,,,,,,,,,,,,,,,,,,,,,,,,,,,,,,,,,,,,,,,,,,,,,,,,,,,,,,,,,,,,,,,,,,,,,,,,,,,,,,,,,,,,,,,,,,,,,,,,,,,,,,,,,,,,,,
0,5,5,64,1,,61731cad136d641e024c3d53,62bbfaeca10048a50e88508d,2022-06-29_09h11.02.739,Colour_Asymmetry_Pilot,2022.1.3,Win32,55.98477214,62bbe60bf3d75ef465d3e404,,,,,,,,,,,,,,,,,,,,,,,,,,,,,,,,,,,,,,,,,,,,,,,,,,,,,,,,,,,,,,,,,,,,,,,,,,,,,,,,,,,,,,,,,,,,,,,,,,,,,,,,,,,,,,,,,,,,,,,,,,,,,,,,,,,,,,,,,,,,,,,,,,,,,,,,,,,,,
0,6,6,90,1,,61731cad136d641e024c3d53,62bbfaeca10048a50e88508d,2022-06-29_09h11.02.739,Colour_Asymmetry_Pilot,2022.1.3,Win32,55.98477214,62bbe60bf3d75ef465d3e404,,,,,,,,,,,,,,,,,,,,,,,,,,,,,,,,,,,,,,,,,,,,,,,,,,,,,,,,,,,,,,,,,,,,,,,,,,,,,,,,,,,,,,,,,,,,,,,,,,,,,,,,,,,,,,,,,,,,,,,,,,,,,,,,,,,,,,,,,,,,,,,,,,,,,,,,,,,,,
0,7,7,45,1,,61731cad136d641e024c3d53,62bbfaeca10048a50e88508d,2022-06-29_09h11.02.739,Colour_Asymmetry_Pilot,2022.1.3,Win32,55.98477214,62bbe60bf3d75ef465d3e404,,,,,,,,,,,,,,,,,,,,,,,,,,,,,,,,,,,,,,,,,,,,,,,,,,,,,,,,,,,,,,,,,,,,,,,,,,,,,,,,,,,,,,,,,,,,,,,,,,,,,,,,,,,,,,,,,,,,,,,,,,,,,,,,,,,,,,,,,,,,,,,,,,,,,,,,,,,,,
0,8,8,44,1,,61731cad136d641e024c3d53,62bbfaeca10048a50e88508d,2022-06-29_09h11.02.739,Colour_Asymmetry_Pilot,2022.1.3,Win32,55.98477214,62bbe60bf3d75ef465d3e404,,,,,,,,,,,,,,,,,,,,,,,,,,,,,,,,,,,,,,,,,,,,,,,,,,,,,,,,,,,,,,,,,,,,,,,,,,,,,,,,,,,,,,,,,,,,,,,,,,,,,,,,,,,,,,,,,,,,,,,,,,,,,,,,,,,,,,,,,,,,,,,,,,,,,,,,,,,,,
0,9,9,83,1,,61731cad136d641e024c3d53,62bbfaeca10048a50e88508d,2022-06-29_09h11.02.739,Colour_Asymmetry_Pilot,2022.1.3,Win32,55.98477214,62bbe60bf3d75ef465d3e404,,,,,,,,,,,,,,,,,,,,,,,,,,,,,,,,,,,,,,,,,,,,,,,,,,,,,,,,,,,,,,,,,,,,,,,,,,,,,,,,,,,,,,,,,,,,,,,,,,,,,,,,,,,,,,,,,,,,,,,,,,,,,,,,,,,,,,,,,,,,,,,,,,,,,,,,,,,,,
0,10,10,54,1,,61731cad136d641e024c3d53,62bbfaeca10048a50e88508d,2022-06-29_09h11.02.739,Colour_Asymmetry_Pilot,2022.1.3,Win32,55.98477214,62bbe60bf3d75ef465d3e404,,,,,,,,,,,,,,,,,,,,,,,,,,,,,,,,,,,,,,,,,,,,,,,,,,,,,,,,,,,,,,,,,,,,,,,,,,,,,,,,,,,,,,,,,,,,,,,,,,,,,,,,,,,,,,,,,,,,,,,,,,,,,,,,,,,,,,,,,,,,,,,,,,,,,,,,,,,,,
0,11,11,32,1,,61731cad136d641e024c3d53,62bbfaeca10048a50e88508d,2022-06-29_09h11.02.739,Colour_Asymmetry_Pilot,2022.1.3,Win32,55.98477214,62bbe60bf3d75ef465d3e404,,,,,,,,,,,,,,,,,,,,,,,,,,,,,,,,,,,,,,,,,,,,,,,,,,,,,,,,,,,,,,,,,,,,,,,,,,,,,,,,,,,,,,,,,,,,,,,,,,,,,,,,,,,,,,,,,,,,,,,,,,,,,,,,,,,,,,,,,,,,,,,,,,,,,,,,,,,,,
0,12,12,39,1,,61731cad136d641e024c3d53,62bbfaeca10048a50e88508d,2022-06-29_09h11.02.739,Colour_Asymmetry_Pilot,2022.1.3,Win32,55.98477214,62bbe60bf3d75ef465d3e404,,,,,,,,,,,,,,,,,,,,,,,,,,,,,,,,,,,,,,,,,,,,,,,,,,,,,,,,,,,,,,,,,,,,,,,,,,,,,,,,,,,,,,,,,,,,,,,,,,,,,,,,,,,,,,,,,,,,,,,,,,,,,,,,,,,,,,,,,,,,,,,,,,,,,,,,,,,,,
0,13,13,40,1,,61731cad136d641e024c3d53,62bbfaeca10048a50e88508d,2022-06-29_09h11.02.739,Colour_Asymmetry_Pilot,2022.1.3,Win32,55.98477214,62bbe60bf3d75ef465d3e404,,,,,,,,,,,,,,,,,,,,,,,,,,,,,,,,,,,,,,,,,,,,,,,,,,,,,,,,,,,,,,,,,,,,,,,,,,,,,,,,,,,,,,,,,,,,,,,,,,,,,,,,,,,,,,,,,,,,,,,,,,,,,,,,,,,,,,,,,,,,,,,,,,,,,,,,,,,,,
0,14,14,12,1,,61731cad136d641e024c3d53,62bbfaeca10048a50e88508d,2022-06-29_09h11.02.739,Colour_Asymmetry_Pilot,2022.1.3,Win32,55.98477214,62bbe60bf3d75ef465d3e404,,,,,,,,,,,,,,,,,,,,,,,,,,,,,,,,,,,,,,,,,,,,,,,,,,,,,,,,,,,,,,,,,,,,,,,,,,,,,,,,,,,,,,,,,,,,,,,,,,,,,,,,,,,,,,,,,,,,,,,,,,,,,,,,,,,,,,,,,,,,,,,,,,,,,,,,,,,,,
0,15,15,23,1,,61731cad136d641e024c3d53,62bbfaeca10048a50e88508d,2022-06-29_09h11.02.739,Colour_Asymmetry_Pilot,2022.1.3,Win32,55.98477214,62bbe60bf3d75ef465d3e404,,,,,,,,,,,,,,,,,,,,,,,,,,,,,,,,,,,,,,,,,,,,,,,,,,,,,,,,,,,,,,,,,,,,,,,,,,,,,,,,,,,,,,,,,,,,,,,,,,,,,,,,,,,,,,,,,,,,,,,,,,,,,,,,,,,,,,,,,,,,,,,,,,,,,,,,,,,,,
0,16,16,78,1,,61731cad136d641e024c3d53,62bbfaeca10048a50e88508d,2022-06-29_09h11.02.739,Colour_Asymmetry_Pilot,2022.1.3,Win32,55.98477214,62bbe60bf3d75ef465d3e404,,,,,,,,,,,,,,,,,,,,,,,,,,,,,,,,,,,,,,,,,,,,,,,,,,,,,,,,,,,,,,,,,,,,,,,,,,,,,,,,,,,,,,,,,,,,,,,,,,,,,,,,,,,,,,,,,,,,,,,,,,,,,,,,,,,,,,,,,,,,,,,,,,,,,,,,,,,,,
0,17,17,69,1,,61731cad136d641e024c3d53,62bbfaeca10048a50e88508d,2022-06-29_09h11.02.739,Colour_Asymmetry_Pilot,2022.1.3,Win32,55.98477214,62bbe60bf3d75ef465d3e404,,,,,,,,,,,,,,,,,,,,,,,,,,,,,,,,,,,,,,,,,,,,,,,,,,,,,,,,,,,,,,,,,,,,,,,,,,,,,,,,,,,,,,,,,,,,,,,,,,,,,,,,,,,,,,,,,,,,,,,,,,,,,,,,,,,,,,,,,,,,,,,,,,,,,,,,,,,,,
0,18,18,88,1,,61731cad136d641e024c3d53,62bbfaeca10048a50e88508d,2022-06-29_09h11.02.739,Colour_Asymmetry_Pilot,2022.1.3,Win32,55.98477214,62bbe60bf3d75ef465d3e404,,,,,,,,,,,,,,,,,,,,,,,,,,,,,,,,,,,,,,,,,,,,,,,,,,,,,,,,,,,,,,,,,,,,,,,,,,,,,,,,,,,,,,,,,,,,,,,,,,,,,,,,,,,,,,,,,,,,,,,,,,,,,,,,,,,,,,,,,,,,,,,,,,,,,,,,,,,,,
0,19,19,18,1,,61731cad136d641e024c3d53,62bbfaeca10048a50e88508d,2022-06-29_09h11.02.739,Colour_Asymmetry_Pilot,2022.1.3,Win32,55.98477214,62bbe60bf3d75ef465d3e404,,,,,,,,,,,,,,,,,,,,,,,,,,,,,,,,,,,,,,,,,,,,,,,,,,,,,,,,,,,,,,,,,,,,,,,,,,,,,,,,,,,,,,,,,,,,,,,,,,,,,,,,,,,,,,,,,,,,,,,,,,,,,,,,,,,,,,,,,,,,,,,,,,,,,,,,,,,,,
0,20,20,47,1,,61731cad136d641e024c3d53,62bbfaeca10048a50e88508d,2022-06-29_09h11.02.739,Colour_Asymmetry_Pilot,2022.1.3,Win32,55.98477214,62bbe60bf3d75ef465d3e404,,,,,,,,,,,,,,,,,,,,,,,,,,,,,,,,,,,,,,,,,,,,,,,,,,,,,,,,,,,,,,,,,,,,,,,,,,,,,,,,,,,,,,,,,,,,,,,,,,,,,,,,,,,,,,,,,,,,,,,,,,,,,,,,,,,,,,,,,,,,,,,,,,,,,,,,,,,,,
0,21,21,38,1,,61731cad136d641e024c3d53,62bbfaeca10048a50e88508d,2022-06-29_09h11.02.739,Colour_Asymmetry_Pilot,2022.1.3,Win32,55.98477214,62bbe60bf3d75ef465d3e404,,,,,,,,,,,,,,,,,,,,,,,,,,,,,,,,,,,,,,,,,,,,,,,,,,,,,,,,,,,,,,,,,,,,,,,,,,,,,,,,,,,,,,,,,,,,,,,,,,,,,,,,,,,,,,,,,,,,,,,,,,,,,,,,,,,,,,,,,,,,,,,,,,,,,,,,,,,,,
0,22,22,28,1,,61731cad136d641e024c3d53,62bbfaeca10048a50e88508d,2022-06-29_09h11.02.739,Colour_Asymmetry_Pilot,2022.1.3,Win32,55.98477214,62bbe60bf3d75ef465d3e404,,,,,,,,,,,,,,,,,,,,,,,,,,,,,,,,,,,,,,,,,,,,,,,,,,,,,,,,,,,,,,,,,,,,,,,,,,,,,,,,,,,,,,,,,,,,,,,,,,,,,,,,,,,,,,,,,,,,,,,,,,,,,,,,,,,,,,,,,,,,,,,,,,,,,,,,,,,,,
0,23,23,55,1,,61731cad136d641e024c3d53,62bbfaeca10048a50e88508d,2022-06-29_09h11.02.739,Colour_Asymmetry_Pilot,2022.1.3,Win32,55.98477214,62bbe60bf3d75ef465d3e404,,,,,,,,,,,,,,,,,,,,,,,,,,,,,,,,,,,,,,,,,,,,,,,,,,,,,,,,,,,,,,,,,,,,,,,,,,,,,,,,,,,,,,,,,,,,,,,,,,,,,,,,,,,,,,,,,,,,,,,,,,,,,,,,,,,,,,,,,,,,,,,,,,,,,,,,,,,,,
0,24,24,17,1,,61731cad136d641e024c3d53,62bbfaeca10048a50e88508d,2022-06-29_09h11.02.739,Colour_Asymmetry_Pilot,2022.1.3,Win32,55.98477214,62bbe60bf3d75ef465d3e404,,,,,,,,,,,,,,,,,,,,,,,,,,,,,,,,,,,,,,,,,,,,,,,,,,,,,,,,,,,,,,,,,,,,,,,,,,,,,,,,,,,,,,,,,,,,,,,,,,,,,,,,,,,,,,,,,,,,,,,,,,,,,,,,,,,,,,,,,,,,,,,,,,,,,,,,,,,,,
0,25,25,65,1,,61731cad136d641e024c3d53,62bbfaeca10048a50e88508d,2022-06-29_09h11.02.739,Colour_Asymmetry_Pilot,2022.1.3,Win32,55.98477214,62bbe60bf3d75ef465d3e404,,,,,,,,,,,,,,,,,,,,,,,,,,,,,,,,,,,,,,,,,,,,,,,,,,,,,,,,,,,,,,,,,,,,,,,,,,,,,,,,,,,,,,,,,,,,,,,,,,,,,,,,,,,,,,,,,,,,,,,,,,,,,,,,,,,,,,,,,,,,,,,,,,,,,,,,,,,,,
0,26,26,61,1,,61731cad136d641e024c3d53,62bbfaeca10048a50e88508d,2022-06-29_09h11.02.739,Colour_Asymmetry_Pilot,2022.1.3,Win32,55.98477214,62bbe60bf3d75ef465d3e404,,,,,,,,,,,,,,,,,,,,,,,,,,,,,,,,,,,,,,,,,,,,,,,,,,,,,,,,,,,,,,,,,,,,,,,,,,,,,,,,,,,,,,,,,,,,,,,,,,,,,,,,,,,,,,,,,,,,,,,,,,,,,,,,,,,,,,,,,,,,,,,,,,,,,,,,,,,,,
0,27,27,57,1,,61731cad136d641e024c3d53,62bbfaeca10048a50e88508d,2022-06-29_09h11.02.739,Colour_Asymmetry_Pilot,2022.1.3,Win32,55.98477214,62bbe60bf3d75ef465d3e404,,,,,,,,,,,,,,,,,,,,,,,,,,,,,,,,,,,,,,,,,,,,,,,,,,,,,,,,,,,,,,,,,,,,,,,,,,,,,,,,,,,,,,,,,,,,,,,,,,,,,,,,,,,,,,,,,,,,,,,,,,,,,,,,,,,,,,,,,,,,,,,,,,,,,,,,,,,,,
0,28,28,24,1,,61731cad136d641e024c3d53,62bbfaeca10048a50e88508d,2022-06-29_09h11.02.739,Colour_Asymmetry_Pilot,2022.1.3,Win32,55.98477214,62bbe60bf3d75ef465d3e404,,,,,,,,,,,,,,,,,,,,,,,,,,,,,,,,,,,,,,,,,,,,,,,,,,,,,,,,,,,,,,,,,,,,,,,,,,,,,,,,,,,,,,,,,,,,,,,,,,,,,,,,,,,,,,,,,,,,,,,,,,,,,,,,,,,,,,,,,,,,,,,,,,,,,,,,,,,,,
0,29,29,86,1,,61731cad136d641e024c3d53,62bbfaeca10048a50e88508d,2022-06-29_09h11.02.739,Colour_Asymmetry_Pilot,2022.1.3,Win32,55.98477214,62bbe60bf3d75ef465d3e404,,,,,,,,,,,,,,,,,,,,,,,,,,,,,,,,,,,,,,,,,,,,,,,,,,,,,,,,,,,,,,,,,,,,,,,,,,,,,,,,,,,,,,,,,,,,,,,,,,,,,,,,,,,,,,,,,,,,,,,,,,,,,,,,,,,,,,,,,,,,,,,,,,,,,,,,,,,,,
0,30,30,56,1,,61731cad136d641e024c3d53,62bbfaeca10048a50e88508d,2022-06-29_09h11.02.739,Colour_Asymmetry_Pilot,2022.1.3,Win32,55.98477214,62bbe60bf3d75ef465d3e404,,,,,,,,,,,,,,,,,,,,,,,,,,,,,,,,,,,,,,,,,,,,,,,,,,,,,,,,,,,,,,,,,,,,,,,,,,,,,,,,,,,,,,,,,,,,,,,,,,,,,,,,,,,,,,,,,,,,,,,,,,,,,,,,,,,,,,,,,,,,,,,,,,,,,,,,,,,,,
0,31,31,10,1,,61731cad136d641e024c3d53,62bbfaeca10048a50e88508d,2022-06-29_09h11.02.739,Colour_Asymmetry_Pilot,2022.1.3,Win32,55.98477214,62bbe60bf3d75ef465d3e404,,,,,,,,,,,,,,,,,,,,,,,,,,,,,,,,,,,,,,,,,,,,,,,,,,,,,,,,,,,,,,,,,,,,,,,,,,,,,,,,,,,,,,,,,,,,,,,,,,,,,,,,,,,,,,,,,,,,,,,,,,,,,,,,,,,,,,,,,,,,,,,,,,,,,,,,,,,,,
0,32,32,92,1,,61731cad136d641e024c3d53,62bbfaeca10048a50e88508d,2022-06-29_09h11.02.739,Colour_Asymmetry_Pilot,2022.1.3,Win32,55.98477214,62bbe60bf3d75ef465d3e404,,,,,,,,,,,,,,,,,,,,,,,,,,,,,,,,,,,,,,,,,,,,,,,,,,,,,,,,,,,,,,,,,,,,,,,,,,,,,,,,,,,,,,,,,,,,,,,,,,,,,,,,,,,,,,,,,,,,,,,,,,,,,,,,,,,,,,,,,,,,,,,,,,,,,,,,,,,,,
0,33,33,1,1,,61731cad136d641e024c3d53,62bbfaeca10048a50e88508d,2022-06-29_09h11.02.739,Colour_Asymmetry_Pilot,2022.1.3,Win32,55.98477214,62bbe60bf3d75ef465d3e404,,,,,,,,,,,,,,,,,,,,,,,,,,,,,,,,,,,,,,,,,,,,,,,,,,,,,,,,,,,,,,,,,,,,,,,,,,,,,,,,,,,,,,,,,,,,,,,,,,,,,,,,,,,,,,,,,,,,,,,,,,,,,,,,,,,,,,,,,,,,,,,,,,,,,,,,,,,,,
0,34,34,22,1,,61731cad136d641e024c3d53,62bbfaeca10048a50e88508d,2022-06-29_09h11.02.739,Colour_Asymmetry_Pilot,2022.1.3,Win32,55.98477214,62bbe60bf3d75ef465d3e404,,,,,,,,,,,,,,,,,,,,,,,,,,,,,,,,,,,,,,,,,,,,,,,,,,,,,,,,,,,,,,,,,,,,,,,,,,,,,,,,,,,,,,,,,,,,,,,,,,,,,,,,,,,,,,,,,,,,,,,,,,,,,,,,,,,,,,,,,,,,,,,,,,,,,,,,,,,,,
0,35,35,67,1,,61731cad136d641e024c3d53,62bbfaeca10048a50e88508d,2022-06-29_09h11.02.739,Colour_Asymmetry_Pilot,2022.1.3,Win32,55.98477214,62bbe60bf3d75ef465d3e404,,,,,,,,,,,,,,,,,,,,,,,,,,,,,,,,,,,,,,,,,,,,,,,,,,,,,,,,,,,,,,,,,,,,,,,,,,,,,,,,,,,,,,,,,,,,,,,,,,,,,,,,,,,,,,,,,,,,,,,,,,,,,,,,,,,,,,,,,,,,,,,,,,,,,,,,,,,,,
0,36,36,19,1,,61731cad136d641e024c3d53,62bbfaeca10048a50e88508d,2022-06-29_09h11.02.739,Colour_Asymmetry_Pilot,2022.1.3,Win32,55.98477214,62bbe60bf3d75ef465d3e404,,,,,,,,,,,,,,,,,,,,,,,,,,,,,,,,,,,,,,,,,,,,,,,,,,,,,,,,,,,,,,,,,,,,,,,,,,,,,,,,,,,,,,,,,,,,,,,,,,,,,,,,,,,,,,,,,,,,,,,,,,,,,,,,,,,,,,,,,,,,,,,,,,,,,,,,,,,,,
0,37,37,8,1,,61731cad136d641e024c3d53,62bbfaeca10048a50e88508d,2022-06-29_09h11.02.739,Colour_Asymmetry_Pilot,2022.1.3,Win32,55.98477214,62bbe60bf3d75ef465d3e404,,,,,,,,,,,,,,,,,,,,,,,,,,,,,,,,,,,,,,,,,,,,,,,,,,,,,,,,,,,,,,,,,,,,,,,,,,,,,,,,,,,,,,,,,,,,,,,,,,,,,,,,,,,,,,,,,,,,,,,,,,,,,,,,,,,,,,,,,,,,,,,,,,,,,,,,,,,,,
0,38,38,43,1,,61731cad136d641e024c3d53,62bbfaeca10048a50e88508d,2022-06-29_09h11.02.739,Colour_Asymmetry_Pilot,2022.1.3,Win32,55.98477214,62bbe60bf3d75ef465d3e404,,,,,,,,,,,,,,,,,,,,,,,,,,,,,,,,,,,,,,,,,,,,,,,,,,,,,,,,,,,,,,,,,,,,,,,,,,,,,,,,,,,,,,,,,,,,,,,,,,,,,,,,,,,,,,,,,,,,,,,,,,,,,,,,,,,,,,,,,,,,,,,,,,,,,,,,,,,,,
0,39,39,26,1,,61731cad136d641e024c3d53,62bbfaeca10048a50e88508d,2022-06-29_09h11.02.739,Colour_Asymmetry_Pilot,2022.1.3,Win32,55.98477214,62bbe60bf3d75ef465d3e404,,,,,,,,,,,,,,,,,,,,,,,,,,,,,,,,,,,,,,,,,,,,,,,,,,,,,,,,,,,,,,,,,,,,,,,,,,,,,,,,,,,,,,,,,,,,,,,,,,,,,,,,,,,,,,,,,,,,,,,,,,,,,,,,,,,,,,,,,,,,,,,,,,,,,,,,,,,,,
0,40,40,50,1,,61731cad136d641e024c3d53,62bbfaeca10048a50e88508d,2022-06-29_09h11.02.739,Colour_Asymmetry_Pilot,2022.1.3,Win32,55.98477214,62bbe60bf3d75ef465d3e404,,,,,,,,,,,,,,,,,,,,,,,,,,,,,,,,,,,,,,,,,,,,,,,,,,,,,,,,,,,,,,,,,,,,,,,,,,,,,,,,,,,,,,,,,,,,,,,,,,,,,,,,,,,,,,,,,,,,,,,,,,,,,,,,,,,,,,,,,,,,,,,,,,,,,,,,,,,,,
0,41,41,79,1,,61731cad136d641e024c3d53,62bbfaeca10048a50e88508d,2022-06-29_09h11.02.739,Colour_Asymmetry_Pilot,2022.1.3,Win32,55.98477214,62bbe60bf3d75ef465d3e404,,,,,,,,,,,,,,,,,,,,,,,,,,,,,,,,,,,,,,,,,,,,,,,,,,,,,,,,,,,,,,,,,,,,,,,,,,,,,,,,,,,,,,,,,,,,,,,,,,,,,,,,,,,,,,,,,,,,,,,,,,,,,,,,,,,,,,,,,,,,,,,,,,,,,,,,,,,,,
0,42,42,34,1,,61731cad136d641e024c3d53,62bbfaeca10048a50e88508d,2022-06-29_09h11.02.739,Colour_Asymmetry_Pilot,2022.1.3,Win32,55.98477214,62bbe60bf3d75ef465d3e404,,,,,,,,,,,,,,,,,,,,,,,,,,,,,,,,,,,,,,,,,,,,,,,,,,,,,,,,,,,,,,,,,,,,,,,,,,,,,,,,,,,,,,,,,,,,,,,,,,,,,,,,,,,,,,,,,,,,,,,,,,,,,,,,,,,,,,,,,,,,,,,,,,,,,,,,,,,,,
0,43,43,68,1,,61731cad136d641e024c3d53,62bbfaeca10048a50e88508d,2022-06-29_09h11.02.739,Colour_Asymmetry_Pilot,2022.1.3,Win32,55.98477214,62bbe60bf3d75ef465d3e404,,,,,,,,,,,,,,,,,,,,,,,,,,,,,,,,,,,,,,,,,,,,,,,,,,,,,,,,,,,,,,,,,,,,,,,,,,,,,,,,,,,,,,,,,,,,,,,,,,,,,,,,,,,,,,,,,,,,,,,,,,,,,,,,,,,,,,,,,,,,,,,,,,,,,,,,,,,,,
0,44,44,91,1,,61731cad136d641e024c3d53,62bbfaeca10048a50e88508d,2022-06-29_09h11.02.739,Colour_Asymmetry_Pilot,2022.1.3,Win32,55.98477214,62bbe60bf3d75ef465d3e404,,,,,,,,,,,,,,,,,,,,,,,,,,,,,,,,,,,,,,,,,,,,,,,,,,,,,,,,,,,,,,,,,,,,,,,,,,,,,,,,,,,,,,,,,,,,,,,,,,,,,,,,,,,,,,,,,,,,,,,,,,,,,,,,,,,,,,,,,,,,,,,,,,,,,,,,,,,,,
0,45,45,85,1,,61731cad136d641e024c3d53,62bbfaeca10048a50e88508d,2022-06-29_09h11.02.739,Colour_Asymmetry_Pilot,2022.1.3,Win32,55.98477214,62bbe60bf3d75ef465d3e404,,,,,,,,,,,,,,,,,,,,,,,,,,,,,,,,,,,,,,,,,,,,,,,,,,,,,,,,,,,,,,,,,,,,,,,,,,,,,,,,,,,,,,,,,,,,,,,,,,,,,,,,,,,,,,,,,,,,,,,,,,,,,,,,,,,,,,,,,,,,,,,,,,,,,,,,,,,,,
0,46,46,2,1,,61731cad136d641e024c3d53,62bbfaeca10048a50e88508d,2022-06-29_09h11.02.739,Colour_Asymmetry_Pilot,2022.1.3,Win32,55.98477214,62bbe60bf3d75ef465d3e404,,,,,,,,,,,,,,,,,,,,,,,,,,,,,,,,,,,,,,,,,,,,,,,,,,,,,,,,,,,,,,,,,,,,,,,,,,,,,,,,,,,,,,,,,,,,,,,,,,,,,,,,,,,,,,,,,,,,,,,,,,,,,,,,,,,,,,,,,,,,,,,,,,,,,,,,,,,,,
0,47,47,82,1,,61731cad136d641e024c3d53,62bbfaeca10048a50e88508d,2022-06-29_09h11.02.739,Colour_Asymmetry_Pilot,2022.1.3,Win32,55.98477214,62bbe60bf3d75ef465d3e404,,,,,,,,,,,,,,,,,,,,,,,,,,,,,,,,,,,,,,,,,,,,,,,,,,,,,,,,,,,,,,,,,,,,,,,,,,,,,,,,,,,,,,,,,,,,,,,,,,,,,,,,,,,,,,,,,,,,,,,,,,,,,,,,,,,,,,,,,,,,,,,,,,,,,,,,,,,,,
0,48,48,9,1,,61731cad136d641e024c3d53,62bbfaeca10048a50e88508d,2022-06-29_09h11.02.739,Colour_Asymmetry_Pilot,2022.1.3,Win32,55.98477214,62bbe60bf3d75ef465d3e404,,,,,,,,,,,,,,,,,,,,,,,,,,,,,,,,,,,,,,,,,,,,,,,,,,,,,,,,,,,,,,,,,,,,,,,,,,,,,,,,,,,,,,,,,,,,,,,,,,,,,,,,,,,,,,,,,,,,,,,,,,,,,,,,,,,,,,,,,,,,,,,,,,,,,,,,,,,,,
0,49,49,29,1,,61731cad136d641e024c3d53,62bbfaeca10048a50e88508d,2022-06-29_09h11.02.739,Colour_Asymmetry_Pilot,2022.1.3,Win32,55.98477214,62bbe60bf3d75ef465d3e404,,,,,,,,,,,,,,,,,,,,,,,,,,,,,,,,,,,,,,,,,,,,,,,,,,,,,,,,,,,,,,,,,,,,,,,,,,,,,,,,,,,,,,,,,,,,,,,,,,,,,,,,,,,,,,,,,,,,,,,,,,,,,,,,,,,,,,,,,,,,,,,,,,,,,,,,,,,,,
0,50,50,80,1,,61731cad136d641e024c3d53,62bbfaeca10048a50e88508d,2022-06-29_09h11.02.739,Colour_Asymmetry_Pilot,2022.1.3,Win32,55.98477214,62bbe60bf3d75ef465d3e404,,,,,,,,,,,,,,,,,,,,,,,,,,,,,,,,,,,,,,,,,,,,,,,,,,,,,,,,,,,,,,,,,,,,,,,,,,,,,,,,,,,,,,,,,,,,,,,,,,,,,,,,,,,,,,,,,,,,,,,,,,,,,,,,,,,,,,,,,,,,,,,,,,,,,,,,,,,,,
0,51,51,3,1,,61731cad136d641e024c3d53,62bbfaeca10048a50e88508d,2022-06-29_09h11.02.739,Colour_Asymmetry_Pilot,2022.1.3,Win32,55.98477214,62bbe60bf3d75ef465d3e404,,,,,,,,,,,,,,,,,,,,,,,,,,,,,,,,,,,,,,,,,,,,,,,,,,,,,,,,,,,,,,,,,,,,,,,,,,,,,,,,,,,,,,,,,,,,,,,,,,,,,,,,,,,,,,,,,,,,,,,,,,,,,,,,,,,,,,,,,,,,,,,,,,,,,,,,,,,,,
0,52,52,15,1,,61731cad136d641e024c3d53,62bbfaeca10048a50e88508d,2022-06-29_09h11.02.739,Colour_Asymmetry_Pilot,2022.1.3,Win32,55.98477214,62bbe60bf3d75ef465d3e404,,,,,,,,,,,,,,,,,,,,,,,,,,,,,,,,,,,,,,,,,,,,,,,,,,,,,,,,,,,,,,,,,,,,,,,,,,,,,,,,,,,,,,,,,,,,,,,,,,,,,,,,,,,,,,,,,,,,,,,,,,,,,,,,,,,,,,,,,,,,,,,,,,,,,,,,,,,,,
0,53,53,51,1,,61731cad136d641e024c3d53,62bbfaeca10048a50e88508d,2022-06-29_09h11.02.739,Colour_Asymmetry_Pilot,2022.1.3,Win32,55.98477214,62bbe60bf3d75ef465d3e404,,,,,,,,,,,,,,,,,,,,,,,,,,,,,,,,,,,,,,,,,,,,,,,,,,,,,,,,,,,,,,,,,,,,,,,,,,,,,,,,,,,,,,,,,,,,,,,,,,,,,,,,,,,,,,,,,,,,,,,,,,,,,,,,,,,,,,,,,,,,,,,,,,,,,,,,,,,,,
0,54,54,48,1,,61731cad136d641e024c3d53,62bbfaeca10048a50e88508d,2022-06-29_09h11.02.739,Colour_Asymmetry_Pilot,2022.1.3,Win32,55.98477214,62bbe60bf3d75ef465d3e404,,,,,,,,,,,,,,,,,,,,,,,,,,,,,,,,,,,,,,,,,,,,,,,,,,,,,,,,,,,,,,,,,,,,,,,,,,,,,,,,,,,,,,,,,,,,,,,,,,,,,,,,,,,,,,,,,,,,,,,,,,,,,,,,,,,,,,,,,,,,,,,,,,,,,,,,,,,,,
0,55,55,20,1,,61731cad136d641e024c3d53,62bbfaeca10048a50e88508d,2022-06-29_09h11.02.739,Colour_Asymmetry_Pilot,2022.1.3,Win32,55.98477214,62bbe60bf3d75ef465d3e404,,,,,,,,,,,,,,,,,,,,,,,,,,,,,,,,,,,,,,,,,,,,,,,,,,,,,,,,,,,,,,,,,,,,,,,,,,,,,,,,,,,,,,,,,,,,,,,,,,,,,,,,,,,,,,,,,,,,,,,,,,,,,,,,,,,,,,,,,,,,,,,,,,,,,,,,,,,,,
0,56,56,7,1,,61731cad136d641e024c3d53,62bbfaeca10048a50e88508d,2022-06-29_09h11.02.739,Colour_Asymmetry_Pilot,2022.1.3,Win32,55.98477214,62bbe60bf3d75ef465d3e404,,,,,,,,,,,,,,,,,,,,,,,,,,,,,,,,,,,,,,,,,,,,,,,,,,,,,,,,,,,,,,,,,,,,,,,,,,,,,,,,,,,,,,,,,,,,,,,,,,,,,,,,,,,,,,,,,,,,,,,,,,,,,,,,,,,,,,,,,,,,,,,,,,,,,,,,,,,,,
0,57,57,77,1,,61731cad136d641e024c3d53,62bbfaeca10048a50e88508d,2022-06-29_09h11.02.739,Colour_Asymmetry_Pilot,2022.1.3,Win32,55.98477214,62bbe60bf3d75ef465d3e404,,,,,,,,,,,,,,,,,,,,,,,,,,,,,,,,,,,,,,,,,,,,,,,,,,,,,,,,,,,,,,,,,,,,,,,,,,,,,,,,,,,,,,,,,,,,,,,,,,,,,,,,,,,,,,,,,,,,,,,,,,,,,,,,,,,,,,,,,,,,,,,,,,,,,,,,,,,,,
0,58,58,35,1,,61731cad136d641e024c3d53,62bbfaeca10048a50e88508d,2022-06-29_09h11.02.739,Colour_Asymmetry_Pilot,2022.1.3,Win32,55.98477214,62bbe60bf3d75ef465d3e404,,,,,,,,,,,,,,,,,,,,,,,,,,,,,,,,,,,,,,,,,,,,,,,,,,,,,,,,,,,,,,,,,,,,,,,,,,,,,,,,,,,,,,,,,,,,,,,,,,,,,,,,,,,,,,,,,,,,,,,,,,,,,,,,,,,,,,,,,,,,,,,,,,,,,,,,,,,,,
0,59,59,58,1,,61731cad136d641e024c3d53,62bbfaeca10048a50e88508d,2022-06-29_09h11.02.739,Colour_Asymmetry_Pilot,2022.1.3,Win32,55.98477214,62bbe60bf3d75ef465d3e404,,,,,,,,,,,,,,,,,,,,,,,,,,,,,,,,,,,,,,,,,,,,,,,,,,,,,,,,,,,,,,,,,,,,,,,,,,,,,,,,,,,,,,,,,,,,,,,,,,,,,,,,,,,,,,,,,,,,,,,,,,,,,,,,,,,,,,,,,,,,,,,,,,,,,,,,,,,,,
0,60,60,37,1,,61731cad136d641e024c3d53,62bbfaeca10048a50e88508d,2022-06-29_09h11.02.739,Colour_Asymmetry_Pilot,2022.1.3,Win32,55.98477214,62bbe60bf3d75ef465d3e404,,,,,,,,,,,,,,,,,,,,,,,,,,,,,,,,,,,,,,,,,,,,,,,,,,,,,,,,,,,,,,,,,,,,,,,,,,,,,,,,,,,,,,,,,,,,,,,,,,,,,,,,,,,,,,,,,,,,,,,,,,,,,,,,,,,,,,,,,,,,,,,,,,,,,,,,,,,,,
0,61,61,87,1,,61731cad136d641e024c3d53,62bbfaeca10048a50e88508d,2022-06-29_09h11.02.739,Colour_Asymmetry_Pilot,2022.1.3,Win32,55.98477214,62bbe60bf3d75ef465d3e404,,,,,,,,,,,,,,,,,,,,,,,,,,,,,,,,,,,,,,,,,,,,,,,,,,,,,,,,,,,,,,,,,,,,,,,,,,,,,,,,,,,,,,,,,,,,,,,,,,,,,,,,,,,,,,,,,,,,,,,,,,,,,,,,,,,,,,,,,,,,,,,,,,,,,,,,,,,,,
0,62,62,72,1,,61731cad136d641e024c3d53,62bbfaeca10048a50e88508d,2022-06-29_09h11.02.739,Colour_Asymmetry_Pilot,2022.1.3,Win32,55.98477214,62bbe60bf3d75ef465d3e404,,,,,,,,,,,,,,,,,,,,,,,,,,,,,,,,,,,,,,,,,,,,,,,,,,,,,,,,,,,,,,,,,,,,,,,,,,,,,,,,,,,,,,,,,,,,,,,,,,,,,,,,,,,,,,,,,,,,,,,,,,,,,,,,,,,,,,,,,,,,,,,,,,,,,,,,,,,,,
0,63,63,42,1,,61731cad136d641e024c3d53,62bbfaeca10048a50e88508d,2022-06-29_09h11.02.739,Colour_Asymmetry_Pilot,2022.1.3,Win32,55.98477214,62bbe60bf3d75ef465d3e404,,,,,,,,,,,,,,,,,,,,,,,,,,,,,,,,,,,,,,,,,,,,,,,,,,,,,,,,,,,,,,,,,,,,,,,,,,,,,,,,,,,,,,,,,,,,,,,,,,,,,,,,,,,,,,,,,,,,,,,,,,,,,,,,,,,,,,,,,,,,,,,,,,,,,,,,,,,,,
0,64,64,74,1,,61731cad136d641e024c3d53,62bbfaeca10048a50e88508d,2022-06-29_09h11.02.739,Colour_Asymmetry_Pilot,2022.1.3,Win32,55.98477214,62bbe60bf3d75ef465d3e404,,,,,,,,,,,,,,,,,,,,,,,,,,,,,,,,,,,,,,,,,,,,,,,,,,,,,,,,,,,,,,,,,,,,,,,,,,,,,,,,,,,,,,,,,,,,,,,,,,,,,,,,,,,,,,,,,,,,,,,,,,,,,,,,,,,,,,,,,,,,,,,,,,,,,,,,,,,,,
0,65,65,52,1,,61731cad136d641e024c3d53,62bbfaeca10048a50e88508d,2022-06-29_09h11.02.739,Colour_Asymmetry_Pilot,2022.1.3,Win32,55.98477214,62bbe60bf3d75ef465d3e404,,,,,,,,,,,,,,,,,,,,,,,,,,,,,,,,,,,,,,,,,,,,,,,,,,,,,,,,,,,,,,,,,,,,,,,,,,,,,,,,,,,,,,,,,,,,,,,,,,,,,,,,,,,,,,,,,,,,,,,,,,,,,,,,,,,,,,,,,,,,,,,,,,,,,,,,,,,,,
0,66,66,16,1,,61731cad136d641e024c3d53,62bbfaeca10048a50e88508d,2022-06-29_09h11.02.739,Colour_Asymmetry_Pilot,2022.1.3,Win32,55.98477214,62bbe60bf3d75ef465d3e404,,,,,,,,,,,,,,,,,,,,,,,,,,,,,,,,,,,,,,,,,,,,,,,,,,,,,,,,,,,,,,,,,,,,,,,,,,,,,,,,,,,,,,,,,,,,,,,,,,,,,,,,,,,,,,,,,,,,,,,,,,,,,,,,,,,,,,,,,,,,,,,,,,,,,,,,,,,,,
0,67,67,46,1,,61731cad136d641e024c3d53,62bbfaeca10048a50e88508d,2022-06-29_09h11.02.739,Colour_Asymmetry_Pilot,2022.1.3,Win32,55.98477214,62bbe60bf3d75ef465d3e404,,,,,,,,,,,,,,,,,,,,,,,,,,,,,,,,,,,,,,,,,,,,,,,,,,,,,,,,,,,,,,,,,,,,,,,,,,,,,,,,,,,,,,,,,,,,,,,,,,,,,,,,,,,,,,,,,,,,,,,,,,,,,,,,,,,,,,,,,,,,,,,,,,,,,,,,,,,,,
0,68,68,49,1,,61731cad136d641e024c3d53,62bbfaeca10048a50e88508d,2022-06-29_09h11.02.739,Colour_Asymmetry_Pilot,2022.1.3,Win32,55.98477214,62bbe60bf3d75ef465d3e404,,,,,,,,,,,,,,,,,,,,,,,,,,,,,,,,,,,,,,,,,,,,,,,,,,,,,,,,,,,,,,,,,,,,,,,,,,,,,,,,,,,,,,,,,,,,,,,,,,,,,,,,,,,,,,,,,,,,,,,,,,,,,,,,,,,,,,,,,,,,,,,,,,,,,,,,,,,,,
0,69,69,21,1,,61731cad136d641e024c3d53,62bbfaeca10048a50e88508d,2022-06-29_09h11.02.739,Colour_Asymmetry_Pilot,2022.1.3,Win32,55.98477214,62bbe60bf3d75ef465d3e404,,,,,,,,,,,,,,,,,,,,,,,,,,,,,,,,,,,,,,,,,,,,,,,,,,,,,,,,,,,,,,,,,,,,,,,,,,,,,,,,,,,,,,,,,,,,,,,,,,,,,,,,,,,,,,,,,,,,,,,,,,,,,,,,,,,,,,,,,,,,,,,,,,,,,,,,,,,,,
0,70,70,53,1,,61731cad136d641e024c3d53,62bbfaeca10048a50e88508d,2022-06-29_09h11.02.739,Colour_Asymmetry_Pilot,2022.1.3,Win32,55.98477214,62bbe60bf3d75ef465d3e404,,,,,,,,,,,,,,,,,,,,,,,,,,,,,,,,,,,,,,,,,,,,,,,,,,,,,,,,,,,,,,,,,,,,,,,,,,,,,,,,,,,,,,,,,,,,,,,,,,,,,,,,,,,,,,,,,,,,,,,,,,,,,,,,,,,,,,,,,,,,,,,,,,,,,,,,,,,,,
0,71,71,89,1,,61731cad136d641e024c3d53,62bbfaeca10048a50e88508d,2022-06-29_09h11.02.739,Colour_Asymmetry_Pilot,2022.1.3,Win32,55.98477214,62bbe60bf3d75ef465d3e404,,,,,,,,,,,,,,,,,,,,,,,,,,,,,,,,,,,,,,,,,,,,,,,,,,,,,,,,,,,,,,,,,,,,,,,,,,,,,,,,,,,,,,,,,,,,,,,,,,,,,,,,,,,,,,,,,,,,,,,,,,,,,,,,,,,,,,,,,,,,,,,,,,,,,,,,,,,,,
0,72,72,0,1,,61731cad136d641e024c3d53,62bbfaeca10048a50e88508d,2022-06-29_09h11.02.739,Colour_Asymmetry_Pilot,2022.1.3,Win32,55.98477214,62bbe60bf3d75ef465d3e404,,,,,,,,,,,,,,,,,,,,,,,,,,,,,,,,,,,,,,,,,,,,,,,,,,,,,,,,,,,,,,,,,,,,,,,,,,,,,,,,,,,,,,,,,,,,,,,,,,,,,,,,,,,,,,,,,,,,,,,,,,,,,,,,,,,,,,,,,,,,,,,,,,,,,,,,,,,,,
0,73,73,70,1,,61731cad136d641e024c3d53,62bbfaeca10048a50e88508d,2022-06-29_09h11.02.739,Colour_Asymmetry_Pilot,2022.1.3,Win32,55.98477214,62bbe60bf3d75ef465d3e404,,,,,,,,,,,,,,,,,,,,,,,,,,,,,,,,,,,,,,,,,,,,,,,,,,,,,,,,,,,,,,,,,,,,,,,,,,,,,,,,,,,,,,,,,,,,,,,,,,,,,,,,,,,,,,,,,,,,,,,,,,,,,,,,,,,,,,,,,,,,,,,,,,,,,,,,,,,,,
0,74,74,81,1,,61731cad136d641e024c3d53,62bbfaeca10048a50e88508d,2022-06-29_09h11.02.739,Colour_Asymmetry_Pilot,2022.1.3,Win32,55.98477214,62bbe60bf3d75ef465d3e404,,,,,,,,,,,,,,,,,,,,,,,,,,,,,,,,,,,,,,,,,,,,,,,,,,,,,,,,,,,,,,,,,,,,,,,,,,,,,,,,,,,,,,,,,,,,,,,,,,,,,,,,,,,,,,,,,,,,,,,,,,,,,,,,,,,,,,,,,,,,,,,,,,,,,,,,,,,,,
0,75,75,75,1,,61731cad136d641e024c3d53,62bbfaeca10048a50e88508d,2022-06-29_09h11.02.739,Colour_Asymmetry_Pilot,2022.1.3,Win32,55.98477214,62bbe60bf3d75ef465d3e404,,,,,,,,,,,,,,,,,,,,,,,,,,,,,,,,,,,,,,,,,,,,,,,,,,,,,,,,,,,,,,,,,,,,,,,,,,,,,,,,,,,,,,,,,,,,,,,,,,,,,,,,,,,,,,,,,,,,,,,,,,,,,,,,,,,,,,,,,,,,,,,,,,,,,,,,,,,,,
0,76,76,13,1,,61731cad136d641e024c3d53,62bbfaeca10048a50e88508d,2022-06-29_09h11.02.739,Colour_Asymmetry_Pilot,2022.1.3,Win32,55.98477214,62bbe60bf3d75ef465d3e404,,,,,,,,,,,,,,,,,,,,,,,,,,,,,,,,,,,,,,,,,,,,,,,,,,,,,,,,,,,,,,,,,,,,,,,,,,,,,,,,,,,,,,,,,,,,,,,,,,,,,,,,,,,,,,,,,,,,,,,,,,,,,,,,,,,,,,,,,,,,,,,,,,,,,,,,,,,,,
0,77,77,66,1,,61731cad136d641e024c3d53,62bbfaeca10048a50e88508d,2022-06-29_09h11.02.739,Colour_Asymmetry_Pilot,2022.1.3,Win32,55.98477214,62bbe60bf3d75ef465d3e404,,,,,,,,,,,,,,,,,,,,,,,,,,,,,,,,,,,,,,,,,,,,,,,,,,,,,,,,,,,,,,,,,,,,,,,,,,,,,,,,,,,,,,,,,,,,,,,,,,,,,,,,,,,,,,,,,,,,,,,,,,,,,,,,,,,,,,,,,,,,,,,,,,,,,,,,,,,,,
0,78,78,31,1,,61731cad136d641e024c3d53,62bbfaeca10048a50e88508d,2022-06-29_09h11.02.739,Colour_Asymmetry_Pilot,2022.1.3,Win32,55.98477214,62bbe60bf3d75ef465d3e404,,,,,,,,,,,,,,,,,,,,,,,,,,,,,,,,,,,,,,,,,,,,,,,,,,,,,,,,,,,,,,,,,,,,,,,,,,,,,,,,,,,,,,,,,,,,,,,,,,,,,,,,,,,,,,,,,,,,,,,,,,,,,,,,,,,,,,,,,,,,,,,,,,,,,,,,,,,,,
0,79,79,27,1,,61731cad136d641e024c3d53,62bbfaeca10048a50e88508d,2022-06-29_09h11.02.739,Colour_Asymmetry_Pilot,2022.1.3,Win32,55.98477214,62bbe60bf3d75ef465d3e404,,,,,,,,,,,,,,,,,,,,,,,,,,,,,,,,,,,,,,,,,,,,,,,,,,,,,,,,,,,,,,,,,,,,,,,,,,,,,,,,,,,,,,,,,,,,,,,,,,,,,,,,,,,,,,,,,,,,,,,,,,,,,,,,,,,,,,,,,,,,,,,,,,,,,,,,,,,,,
0,80,80,60,1,,61731cad136d641e024c3d53,62bbfaeca10048a50e88508d,2022-06-29_09h11.02.739,Colour_Asymmetry_Pilot,2022.1.3,Win32,55.98477214,62bbe60bf3d75ef465d3e404,,,,,,,,,,,,,,,,,,,,,,,,,,,,,,,,,,,,,,,,,,,,,,,,,,,,,,,,,,,,,,,,,,,,,,,,,,,,,,,,,,,,,,,,,,,,,,,,,,,,,,,,,,,,,,,,,,,,,,,,,,,,,,,,,,,,,,,,,,,,,,,,,,,,,,,,,,,,,
0,81,81,71,1,,61731cad136d641e024c3d53,62bbfaeca10048a50e88508d,2022-06-29_09h11.02.739,Colour_Asymmetry_Pilot,2022.1.3,Win32,55.98477214,62bbe60bf3d75ef465d3e404,,,,,,,,,,,,,,,,,,,,,,,,,,,,,,,,,,,,,,,,,,,,,,,,,,,,,,,,,,,,,,,,,,,,,,,,,,,,,,,,,,,,,,,,,,,,,,,,,,,,,,,,,,,,,,,,,,,,,,,,,,,,,,,,,,,,,,,,,,,,,,,,,,,,,,,,,,,,,
0,82,82,33,1,,61731cad136d641e024c3d53,62bbfaeca10048a50e88508d,2022-06-29_09h11.02.739,Colour_Asymmetry_Pilot,2022.1.3,Win32,55.98477214,62bbe60bf3d75ef465d3e404,,,,,,,,,,,,,,,,,,,,,,,,,,,,,,,,,,,,,,,,,,,,,,,,,,,,,,,,,,,,,,,,,,,,,,,,,,,,,,,,,,,,,,,,,,,,,,,,,,,,,,,,,,,,,,,,,,,,,,,,,,,,,,,,,,,,,,,,,,,,,,,,,,,,,,,,,,,,,
0,83,83,59,1,,61731cad136d641e024c3d53,62bbfaeca10048a50e88508d,2022-06-29_09h11.02.739,Colour_Asymmetry_Pilot,2022.1.3,Win32,55.98477214,62bbe60bf3d75ef465d3e404,,,,,,,,,,,,,,,,,,,,,,,,,,,,,,,,,,,,,,,,,,,,,,,,,,,,,,,,,,,,,,,,,,,,,,,,,,,,,,,,,,,,,,,,,,,,,,,,,,,,,,,,,,,,,,,,,,,,,,,,,,,,,,,,,,,,,,,,,,,,,,,,,,,,,,,,,,,,,
0,84,84,14,1,,61731cad136d641e024c3d53,62bbfaeca10048a50e88508d,2022-06-29_09h11.02.739,Colour_Asymmetry_Pilot,2022.1.3,Win32,55.98477214,62bbe60bf3d75ef465d3e404,,,,,,,,,,,,,,,,,,,,,,,,,,,,,,,,,,,,,,,,,,,,,,,,,,,,,,,,,,,,,,,,,,,,,,,,,,,,,,,,,,,,,,,,,,,,,,,,,,,,,,,,,,,,,,,,,,,,,,,,,,,,,,,,,,,,,,,,,,,,,,,,,,,,,,,,,,,,,
0,85,85,5,1,,61731cad136d641e024c3d53,62bbfaeca10048a50e88508d,2022-06-29_09h11.02.739,Colour_Asymmetry_Pilot,2022.1.3,Win32,55.98477214,62bbe60bf3d75ef465d3e404,,,,,,,,,,,,,,,,,,,,,,,,,,,,,,,,,,,,,,,,,,,,,,,,,,,,,,,,,,,,,,,,,,,,,,,,,,,,,,,,,,,,,,,,,,,,,,,,,,,,,,,,,,,,,,,,,,,,,,,,,,,,,,,,,,,,,,,,,,,,,,,,,,,,,,,,,,,,,
0,86,86,73,1,,61731cad136d641e024c3d53,62bbfaeca10048a50e88508d,2022-06-29_09h11.02.739,Colour_Asymmetry_Pilot,2022.1.3,Win32,55.98477214,62bbe60bf3d75ef465d3e404,,,,,,,,,,,,,,,,,,,,,,,,,,,,,,,,,,,,,,,,,,,,,,,,,,,,,,,,,,,,,,,,,,,,,,,,,,,,,,,,,,,,,,,,,,,,,,,,,,,,,,,,,,,,,,,,,,,,,,,,,,,,,,,,,,,,,,,,,,,,,,,,,,,,,,,,,,,,,
0,87,87,36,1,,61731cad136d641e024c3d53,62bbfaeca10048a50e88508d,2022-06-29_09h11.02.739,Colour_Asymmetry_Pilot,2022.1.3,Win32,55.98477214,62bbe60bf3d75ef465d3e404,,,,,,,,,,,,,,,,,,,,,,,,,,,,,,,,,,,,,,,,,,,,,,,,,,,,,,,,,,,,,,,,,,,,,,,,,,,,,,,,,,,,,,,,,,,,,,,,,,,,,,,,,,,,,,,,,,,,,,,,,,,,,,,,,,,,,,,,,,,,,,,,,,,,,,,,,,,,,
0,88,88,63,1,,61731cad136d641e024c3d53,62bbfaeca10048a50e88508d,2022-06-29_09h11.02.739,Colour_Asymmetry_Pilot,2022.1.3,Win32,55.98477214,62bbe60bf3d75ef465d3e404,,,,,,,,,,,,,,,,,,,,,,,,,,,,,,,,,,,,,,,,,,,,,,,,,,,,,,,,,,,,,,,,,,,,,,,,,,,,,,,,,,,,,,,,,,,,,,,,,,,,,,,,,,,,,,,,,,,,,,,,,,,,,,,,,,,,,,,,,,,,,,,,,,,,,,,,,,,,,
0,89,89,62,1,,61731cad136d641e024c3d53,62bbfaeca10048a50e88508d,2022-06-29_09h11.02.739,Colour_Asymmetry_Pilot,2022.1.3,Win32,55.98477214,62bbe60bf3d75ef465d3e404,,,,,,,,,,,,,,,,,,,,,,,,,,,,,,,,,,,,,,,,,,,,,,,,,,,,,,,,,,,,,,,,,,,,,,,,,,,,,,,,,,,,,,,,,,,,,,,,,,,,,,,,,,,,,,,,,,,,,,,,,,,,,,,,,,,,,,,,,,,,,,,,,,,,,,,,,,,,,
0,90,90,11,1,,61731cad136d641e024c3d53,62bbfaeca10048a50e88508d,2022-06-29_09h11.02.739,Colour_Asymmetry_Pilot,2022.1.3,Win32,55.98477214,62bbe60bf3d75ef465d3e404,,,,,,,,,,,,,,,,,,,,,,,,,,,,,,,,,,,,,,,,,,,,,,,,,,,,,,,,,,,,,,,,,,,,,,,,,,,,,,,,,,,,,,,,,,,,,,,,,,,,,,,,,,,,,,,,,,,,,,,,,,,,,,,,,,,,,,,,,,,,,,,,,,,,,,,,,,,,,
0,91,91,25,1,,61731cad136d641e024c3d53,62bbfaeca10048a50e88508d,2022-06-29_09h11.02.739,Colour_Asymmetry_Pilot,2022.1.3,Win32,55.98477214,62bbe60bf3d75ef465d3e404,,,,,,,,,,,,,,,,,,,,,,,,,,,,,,,,,,,,,,,,,,,,,,,,,,,,,,,,,,,,,,,,,,,,,,,,,,,,,,,,,,,,,,,,,,,,,,,,,,,,,,,,,,,,,,,,,,,,,,,,,,,,,,,,,,,,,,,,,,,,,,,,,,,,,,,,,,,,,
0,92,92,30,1,,61731cad136d641e024c3d53,62bbfaeca10048a50e88508d,2022-06-29_09h11.02.739,Colour_Asymmetry_Pilot,2022.1.3,Win32,55.98477214,62bbe60bf3d75ef465d3e404,,,,,,,,,,,,,,,,,,,,,,,,,,,,,,,,,,,,,,,,,,,,,,,,,,,,,,,,,,,,,,,,,,,,,,,,,,,,,,,,,,,,,,,,,,,,,,,,,,,,,,,,,,,,,,,,,,,,,,,,,,,,,,,,,,,,,,,,,,,,,,,,,,,,,,,,,,,,,
,,,,,,61731cad136d641e024c3d53,62bbfaeca10048a50e88508d,2022-06-29_09h11.02.739,Colour_Asymmetry_Pilot,2022.1.3,Win32,55.98477214,62bbe60bf3d75ef465d3e404,0,0,0,13,1,threefour,,,,,,,,,,,,,,,,,,,,,,,,,,,,,,,,,,,,,,,,,,,,,,,,,,,,,,,,,,,,,,,,,,,,,,,,,,,,,,,,,,,,,,,,,,,,,,,,,,,,,,,,,,,,,,,,,,,,,,,,,,,,,,,,,,,,,,,,,,,,,,,,,,,,,,,
,,,,,,61731cad136d641e024c3d53,62bbfaeca10048a50e88508d,2022-06-29_09h11.02.739,Colour_Asymmetry_Pilot,2022.1.3,Win32,55.98477214,62bbe60bf3d75ef465d3e404,0,1,1,23,1,fourthree,,,,,,,,,,,,,,,,,,,,,,,,,,,,,,,,,,,,,,,,,,,,,,,,,,,,,,,,,,,,,,,,,,,,,,,,,,,,,,,,,,,,,,,,,,,,,,,,,,,,,,,,,,,,,,,,,,,,,,,,,,,,,,,,,,,,,,,,,,,,,,,,,,,,,,,
,,,,,,61731cad136d641e024c3d53,62bbfaeca10048a50e88508d,2022-06-29_09h11.02.739,Colour_Asymmetry_Pilot,2022.1.3,Win32,55.98477214,62bbe60bf3d75ef465d3e404,0,2,2,114,1,twoone,,,,,,,,,,,,,,,,,,,,,,,,,,,,,,,,,,,,,,,,,,,,,,,,,,,,,,,,,,,,,,,,,,,,,,,,,,,,,,,,,,,,,,,,,,,,,,,,,,,,,,,,,,,,,,,,,,,,,,,,,,,,,,,,,,,,,,,,,,,,,,,,,,,,,,,
,,,,,,61731cad136d641e024c3d53,62bbfaeca10048a50e88508d,2022-06-29_09h11.02.739,Colour_Asymmetry_Pilot,2022.1.3,Win32,55.98477214,62bbe60bf3d75ef465d3e404,0,3,3,59,1,twofour,,,,,,,,,,,,,,,,,,,,,,,,,,,,,,,,,,,,,,,,,,,,,,,,,,,,,,,,,,,,,,,,,,,,,,,,,,,,,,,,,,,,,,,,,,,,,,,,,,,,,,,,,,,,,,,,,,,,,,,,,,,,,,,,,,,,,,,,,,,,,,,,,,,,,,,
,,,,,,61731cad136d641e024c3d53,62bbfaeca10048a50e88508d,2022-06-29_09h11.02.739,Colour_Asymmetry_Pilot,2022.1.3,Win32,55.98477214,62bbe60bf3d75ef465d3e404,0,4,4,43,1,twofour,,,,,,,,,,,,,,,,,,,,,,,,,,,,,,,,,,,,,,,,,,,,,,,,,,,,,,,,,,,,,,,,,,,,,,,,,,,,,,,,,,,,,,,,,,,,,,,,,,,,,,,,,,,,,,,,,,,,,,,,,,,,,,,,,,,,,,,,,,,,,,,,,,,,,,,
,,,,,,61731cad136d641e024c3d53,62bbfaeca10048a50e88508d,2022-06-29_09h11.02.739,Colour_Asymmetry_Pilot,2022.1.3,Win32,55.98477214,62bbe60bf3d75ef465d3e404,0,5,5,155,1,twofour,,,,,,,,,,,,,,,,,,,,,,,,,,,,,,,,,,,,,,,,,,,,,,,,,,,,,,,,,,,,,,,,,,,,,,,,,,,,,,,,,,,,,,,,,,,,,,,,,,,,,,,,,,,,,,,,,,,,,,,,,,,,,,,,,,,,,,,,,,,,,,,,,,,,,,,
,,,,,,61731cad136d641e024c3d53,62bbfaeca10048a50e88508d,2022-06-29_09h11.02.739,Colour_Asymmetry_Pilot,2022.1.3,Win32,55.98477214,62bbe60bf3d75ef465d3e404,0,6,6,67,1,twofour,,,,,,,,,,,,,,,,,,,,,,,,,,,,,,,,,,,,,,,,,,,,,,,,,,,,,,,,,,,,,,,,,,,,,,,,,,,,,,,,,,,,,,,,,,,,,,,,,,,,,,,,,,,,,,,,,,,,,,,,,,,,,,,,,,,,,,,,,,,,,,,,,,,,,,,
,,,,,,61731cad136d641e024c3d53,62bbfaeca10048a50e88508d,2022-06-29_09h11.02.739,Colour_Asymmetry_Pilot,2022.1.3,Win32,55.98477214,62bbe60bf3d75ef465d3e404,0,7,7,136,1,onetwo,,,,,,,,,,,,,,,,,,,,,,,,,,,,,,,,,,,,,,,,,,,,,,,,,,,,,,,,,,,,,,,,,,,,,,,,,,,,,,,,,,,,,,,,,,,,,,,,,,,,,,,,,,,,,,,,,,,,,,,,,,,,,,,,,,,,,,,,,,,,,,,,,,,,,,,
,,,,,,61731cad136d641e024c3d53,62bbfaeca10048a50e88508d,2022-06-29_09h11.02.739,Colour_Asymmetry_Pilot,2022.1.3,Win32,55.98477214,62bbe60bf3d75ef465d3e404,0,8,8,27,1,twofour,,,,,,,,,,,,,,,,,,,,,,,,,,,,,,,,,,,,,,,,,,,,,,,,,,,,,,,,,,,,,,,,,,,,,,,,,,,,,,,,,,,,,,,,,,,,,,,,,,,,,,,,,,,,,,,,,,,,,,,,,,,,,,,,,,,,,,,,,,,,,,,,,,,,,,,
,,,,,,61731cad136d641e024c3d53,62bbfaeca10048a50e88508d,2022-06-29_09h11.02.739,Colour_Asymmetry_Pilot,2022.1.3,Win32,55.98477214,62bbe60bf3d75ef465d3e404,0,9,9,14,1,fourtwo,,,,,,,,,,,,,,,,,,,,,,,,,,,,,,,,,,,,,,,,,,,,,,,,,,,,,,,,,,,,,,,,,,,,,,,,,,,,,,,,,,,,,,,,,,,,,,,,,,,,,,,,,,,,,,,,,,,,,,,,,,,,,,,,,,,,,,,,,,,,,,,,,,,,,,,
,,,,,,61731cad136d641e024c3d53,62bbfaeca10048a50e88508d,2022-06-29_09h11.02.739,Colour_Asymmetry_Pilot,2022.1.3,Win32,55.98477214,62bbe60bf3d75ef465d3e404,0,10,10,52,1,threeone,,,,,,,,,,,,,,,,,,,,,,,,,,,,,,,,,,,,,,,,,,,,,,,,,,,,,,,,,,,,,,,,,,,,,,,,,,,,,,,,,,,,,,,,,,,,,,,,,,,,,,,,,,,,,,,,,,,,,,,,,,,,,,,,,,,,,,,,,,,,,,,,,,,,,,,
,,,,,,61731cad136d641e024c3d53,62bbfaeca10048a50e88508d,2022-06-29_09h11.02.739,Colour_Asymmetry_Pilot,2022.1.3,Win32,55.98477214,62bbe60bf3d75ef465d3e404,0,11,11,89,1,onethree,,,,,,,,,,,,,,,,,,,,,,,,,,,,,,,,,,,,,,,,,,,,,,,,,,,,,,,,,,,,,,,,,,,,,,,,,,,,,,,,,,,,,,,,,,,,,,,,,,,,,,,,,,,,,,,,,,,,,,,,,,,,,,,,,,,,,,,,,,,,,,,,,,,,,,,
,,,,,,61731cad136d641e024c3d53,62bbfaeca10048a50e88508d,2022-06-29_09h11.02.739,Colour_Asymmetry_Pilot,2022.1.3,Win32,55.98477214,62bbe60bf3d75ef465d3e404,0,12,12,56,1,onetwo,,,,,,,,,,,,,,,,,,,,,,,,,,,,,,,,,,,,,,,,,,,,,,,,,,,,,,,,,,,,,,,,,,,,,,,,,,,,,,,,,,,,,,,,,,,,,,,,,,,,,,,,,,,,,,,,,,,,,,,,,,,,,,,,,,,,,,,,,,,,,,,,,,,,,,,
,,,,,,61731cad136d641e024c3d53,62bbfaeca10048a50e88508d,2022-06-29_09h11.02.739,Colour_Asymmetry_Pilot,2022.1.3,Win32,55.98477214,62bbe60bf3d75ef465d3e404,0,13,13,149,1,threefour,,,,,,,,,,,,,,,,,,,,,,,,,,,,,,,,,,,,,,,,,,,,,,,,,,,,,,,,,,,,,,,,,,,,,,,,,,,,,,,,,,,,,,,,,,,,,,,,,,,,,,,,,,,,,,,,,,,,,,,,,,,,,,,,,,,,,,,,,,,,,,,,,,,,,,,
,,,,,,61731cad136d641e024c3d53,62bbfaeca10048a50e88508d,2022-06-29_09h11.02.739,Colour_Asymmetry_Pilot,2022.1.3,Win32,55.98477214,62bbe60bf3d75ef465d3e404,0,14,14,26,1,twoone,,,,,,,,,,,,,,,,,,,,,,,,,,,,,,,,,,,,,,,,,,,,,,,,,,,,,,,,,,,,,,,,,,,,,,,,,,,,,,,,,,,,,,,,,,,,,,,,,,,,,,,,,,,,,,,,,,,,,,,,,,,,,,,,,,,,,,,,,,,,,,,,,,,,,,,
,,,,,,61731cad136d641e024c3d53,62bbfaeca10048a50e88508d,2022-06-29_09h11.02.739,Colour_Asymmetry_Pilot,2022.1.3,Win32,55.98477214,62bbe60bf3d75ef465d3e404,0,15,15,124,1,threeone,,,,,,,,,,,,,,,,,,,,,,,,,,,,,,,,,,,,,,,,,,,,,,,,,,,,,,,,,,,,,,,,,,,,,,,,,,,,,,,,,,,,,,,,,,,,,,,,,,,,,,,,,,,,,,,,,,,,,,,,,,,,,,,,,,,,,,,,,,,,,,,,,,,,,,,
,,,,,,61731cad136d641e024c3d53,62bbfaeca10048a50e88508d,2022-06-29_09h11.02.739,Colour_Asymmetry_Pilot,2022.1.3,Win32,55.98477214,62bbe60bf3d75ef465d3e404,0,16,16,104,1,onetwo,,,,,,,,,,,,,,,,,,,,,,,,,,,,,,,,,,,,,,,,,,,,,,,,,,,,,,,,,,,,,,,,,,,,,,,,,,,,,,,,,,,,,,,,,,,,,,,,,,,,,,,,,,,,,,,,,,,,,,,,,,,,,,,,,,,,,,,,,,,,,,,,,,,,,,,
,,,,,,61731cad136d641e024c3d53,62bbfaeca10048a50e88508d,2022-06-29_09h11.02.739,Colour_Asymmetry_Pilot,2022.1.3,Win32,55.98477214,62bbe60bf3d75ef465d3e404,0,17,17,9,1,onethree,,,,,,,,,,,,,,,,,,,,,,,,,,,,,,,,,,,,,,,,,,,,,,,,,,,,,,,,,,,,,,,,,,,,,,,,,,,,,,,,,,,,,,,,,,,,,,,,,,,,,,,,,,,,,,,,,,,,,,,,,,,,,,,,,,,,,,,,,,,,,,,,,,,,,,,
,,,,,,61731cad136d641e024c3d53,62bbfaeca10048a50e88508d,2022-06-29_09h11.02.739,Colour_Asymmetry_Pilot,2022.1.3,Win32,55.98477214,62bbe60bf3d75ef465d3e404,0,18,18,66,1,twoone,,,,,,,,,,,,,,,,,,,,,,,,,,,,,,,,,,,,,,,,,,,,,,,,,,,,,,,,,,,,,,,,,,,,,,,,,,,,,,,,,,,,,,,,,,,,,,,,,,,,,,,,,,,,,,,,,,,,,,,,,,,,,,,,,,,,,,,,,,,,,,,,,,,,,,,
,,,,,,61731cad136d641e024c3d53,62bbfaeca10048a50e88508d,2022-06-29_09h11.02.739,Colour_Asymmetry_Pilot,2022.1.3,Win32,55.98477214,62bbe60bf3d75ef465d3e404,0,19,19,80,1,onetwo,,,,,,,,,,,,,,,,,,,,,,,,,,,,,,,,,,,,,,,,,,,,,,,,,,,,,,,,,,,,,,,,,,,,,,,,,,,,,,,,,,,,,,,,,,,,,,,,,,,,,,,,,,,,,,,,,,,,,,,,,,,,,,,,,,,,,,,,,,,,,,,,,,,,,,,
,,,,,,61731cad136d641e024c3d53,62bbfaeca10048a50e88508d,2022-06-29_09h11.02.739,Colour_Asymmetry_Pilot,2022.1.3,Win32,55.98477214,62bbe60bf3d75ef465d3e404,0,20,20,130,1,twoone,,,,,,,,,,,,,,,,,,,,,,,,,,,,,,,,,,,,,,,,,,,,,,,,,,,,,,,,,,,,,,,,,,,,,,,,,,,,,,,,,,,,,,,,,,,,,,,,,,,,,,,,,,,,,,,,,,,,,,,,,,,,,,,,,,,,,,,,,,,,,,,,,,,,,,,
,,,,,,61731cad136d641e024c3d53,62bbfaeca10048a50e88508d,2022-06-29_09h11.02.739,Colour_Asymmetry_Pilot,2022.1.3,Win32,55.98477214,62bbe60bf3d75ef465d3e404,0,21,21,131,1,twofour,,,,,,,,,,,,,,,,,,,,,,,,,,,,,,,,,,,,,,,,,,,,,,,,,,,,,,,,,,,,,,,,,,,,,,,,,,,,,,,,,,,,,,,,,,,,,,,,,,,,,,,,,,,,,,,,,,,,,,,,,,,,,,,,,,,,,,,,,,,,,,,,,,,,,,,
,,,,,,61731cad136d641e024c3d53,62bbfaeca10048a50e88508d,2022-06-29_09h11.02.739,Colour_Asymmetry_Pilot,2022.1.3,Win32,55.98477214,62bbe60bf3d75ef465d3e404,0,22,22,161,1,onethree,,,,,,,,,,,,,,,,,,,,,,,,,,,,,,,,,,,,,,,,,,,,,,,,,,,,,,,,,,,,,,,,,,,,,,,,,,,,,,,,,,,,,,,,,,,,,,,,,,,,,,,,,,,,,,,,,,,,,,,,,,,,,,,,,,,,,,,,,,,,,,,,,,,,,,,
,,,,,,61731cad136d641e024c3d53,62bbfaeca10048a50e88508d,2022-06-29_09h11.02.739,Colour_Asymmetry_Pilot,2022.1.3,Win32,55.98477214,62bbe60bf3d75ef465d3e404,0,23,23,108,1,threeone,,,,,,,,,,,,,,,,,,,,,,,,,,,,,,,,,,,,,,,,,,,,,,,,,,,,,,,,,,,,,,,,,,,,,,,,,,,,,,,,,,,,,,,,,,,,,,,,,,,,,,,,,,,,,,,,,,,,,,,,,,,,,,,,,,,,,,,,,,,,,,,,,,,,,,,
,,,,,,61731cad136d641e024c3d53,62bbfaeca10048a50e88508d,2022-06-29_09h11.02.739,Colour_Asymmetry_Pilot,2022.1.3,Win32,55.98477214,62bbe60bf3d75ef465d3e404,0,24,24,6,1,fourtwo,,,,,,,,,,,,,,,,,,,,,,,,,,,,,,,,,,,,,,,,,,,,,,,,,,,,,,,,,,,,,,,,,,,,,,,,,,,,,,,,,,,,,,,,,,,,,,,,,,,,,,,,,,,,,,,,,,,,,,,,,,,,,,,,,,,,,,,,,,,,,,,,,,,,,,,
,,,,,,61731cad136d641e024c3d53,62bbfaeca10048a50e88508d,2022-06-29_09h11.02.739,Colour_Asymmetry_Pilot,2022.1.3,Win32,55.98477214,62bbe60bf3d75ef465d3e404,0,25,25,15,1,fourthree,,,,,,,,,,,,,,,,,,,,,,,,,,,,,,,,,,,,,,,,,,,,,,,,,,,,,,,,,,,,,,,,,,,,,,,,,,,,,,,,,,,,,,,,,,,,,,,,,,,,,,,,,,,,,,,,,,,,,,,,,,,,,,,,,,,,,,,,,,,,,,,,,,,,,,,
,,,,,,61731cad136d641e024c3d53,62bbfaeca10048a50e88508d,2022-06-29_09h11.02.739,Colour_Asymmetry_Pilot,2022.1.3,Win32,55.98477214,62bbe60bf3d75ef465d3e404,0,26,26,38,1,fourtwo,,,,,,,,,,,,,,,,,,,,,,,,,,,,,,,,,,,,,,,,,,,,,,,,,,,,,,,,,,,,,,,,,,,,,,,,,,,,,,,,,,,,,,,,,,,,,,,,,,,,,,,,,,,,,,,,,,,,,,,,,,,,,,,,,,,,,,,,,,,,,,,,,,,,,,,
,,,,,,61731cad136d641e024c3d53,62bbfaeca10048a50e88508d,2022-06-29_09h11.02.739,Colour_Asymmetry_Pilot,2022.1.3,Win32,55.98477214,62bbe60bf3d75ef465d3e404,0,27,27,24,1,onetwo,,,,,,,,,,,,,,,,,,,,,,,,,,,,,,,,,,,,,,,,,,,,,,,,,,,,,,,,,,,,,,,,,,,,,,,,,,,,,,,,,,,,,,,,,,,,,,,,,,,,,,,,,,,,,,,,,,,,,,,,,,,,,,,,,,,,,,,,,,,,,,,,,,,,,,,
,,,,,,61731cad136d641e024c3d53,62bbfaeca10048a50e88508d,2022-06-29_09h11.02.739,Colour_Asymmetry_Pilot,2022.1.3,Win32,55.98477214,62bbe60bf3d75ef465d3e404,0,28,28,3,1,twofour,,,,,,,,,,,,,,,,,,,,,,,,,,,,,,,,,,,,,,,,,,,,,,,,,,,,,,,,,,,,,,,,,,,,,,,,,,,,,,,,,,,,,,,,,,,,,,,,,,,,,,,,,,,,,,,,,,,,,,,,,,,,,,,,,,,,,,,,,,,,,,,,,,,,,,,
,,,,,,61731cad136d641e024c3d53,62bbfaeca10048a50e88508d,2022-06-29_09h11.02.739,Colour_Asymmetry_Pilot,2022.1.3,Win32,55.98477214,62bbe60bf3d75ef465d3e404,0,29,29,82,1,twoone,,,,,,,,,,,,,,,,,,,,,,,,,,,,,,,,,,,,,,,,,,,,,,,,,,,,,,,,,,,,,,,,,,,,,,,,,,,,,,,,,,,,,,,,,,,,,,,,,,,,,,,,,,,,,,,,,,,,,,,,,,,,,,,,,,,,,,,,,,,,,,,,,,,,,,,
,,,,,,61731cad136d641e024c3d53,62bbfaeca10048a50e88508d,2022-06-29_09h11.02.739,Colour_Asymmetry_Pilot,2022.1.3,Win32,55.98477214,62bbe60bf3d75ef465d3e404,0,30,30,19,1,twofour,,,,,,,,,,,,,,,,,,,,,,,,,,,,,,,,,,,,,,,,,,,,,,,,,,,,,,,,,,,,,,,,,,,,,,,,,,,,,,,,,,,,,,,,,,,,,,,,,,,,,,,,,,,,,,,,,,,,,,,,,,,,,,,,,,,,,,,,,,,,,,,,,,,,,,,
,,,,,,61731cad136d641e024c3d53,62bbfaeca10048a50e88508d,2022-06-29_09h11.02.739,Colour_Asymmetry_Pilot,2022.1.3,Win32,55.98477214,62bbe60bf3d75ef465d3e404,0,31,31,93,1,threefour,,,,,,,,,,,,,,,,,,,,,,,,,,,,,,,,,,,,,,,,,,,,,,,,,,,,,,,,,,,,,,,,,,,,,,,,,,,,,,,,,,,,,,,,,,,,,,,,,,,,,,,,,,,,,,,,,,,,,,,,,,,,,,,,,,,,,,,,,,,,,,,,,,,,,,,
,,,,,,61731cad136d641e024c3d53,62bbfaeca10048a50e88508d,2022-06-29_09h11.02.739,Colour_Asymmetry_Pilot,2022.1.3,Win32,55.98477214,62bbe60bf3d75ef465d3e404,0,32,32,81,1,onethree,,,,,,,,,,,,,,,,,,,,,,,,,,,,,,,,,,,,,,,,,,,,,,,,,,,,,,,,,,,,,,,,,,,,,,,,,,,,,,,,,,,,,,,,,,,,,,,,,,,,,,,,,,,,,,,,,,,,,,,,,,,,,,,,,,,,,,,,,,,,,,,,,,,,,,,
,,,,,,61731cad136d641e024c3d53,62bbfaeca10048a50e88508d,2022-06-29_09h11.02.739,Colour_Asymmetry_Pilot,2022.1.3,Win32,55.98477214,62bbe60bf3d75ef465d3e404,0,33,33,45,1,threefour,,,,,,,,,,,,,,,,,,,,,,,,,,,,,,,,,,,,,,,,,,,,,,,,,,,,,,,,,,,,,,,,,,,,,,,,,,,,,,,,,,,,,,,,,,,,,,,,,,,,,,,,,,,,,,,,,,,,,,,,,,,,,,,,,,,,,,,,,,,,,,,,,,,,,,,
,,,,,,61731cad136d641e024c3d53,62bbfaeca10048a50e88508d,2022-06-29_09h11.02.739,Colour_Asymmetry_Pilot,2022.1.3,Win32,55.98477214,62bbe60bf3d75ef465d3e404,0,34,34,5,1,threefour,,,,,,,,,,,,,,,,,,,,,,,,,,,,,,,,,,,,,,,,,,,,,,,,,,,,,,,,,,,,,,,,,,,,,,,,,,,,,,,,,,,,,,,,,,,,,,,,,,,,,,,,,,,,,,,,,,,,,,,,,,,,,,,,,,,,,,,,,,,,,,,,,,,,,,,
,,,,,,61731cad136d641e024c3d53,62bbfaeca10048a50e88508d,2022-06-29_09h11.02.739,Colour_Asymmetry_Pilot,2022.1.3,Win32,55.98477214,62bbe60bf3d75ef465d3e404,0,35,35,10,1,twoone,,,,,,,,,,,,,,,,,,,,,,,,,,,,,,,,,,,,,,,,,,,,,,,,,,,,,,,,,,,,,,,,,,,,,,,,,,,,,,,,,,,,,,,,,,,,,,,,,,,,,,,,,,,,,,,,,,,,,,,,,,,,,,,,,,,,,,,,,,,,,,,,,,,,,,,
,,,,,,61731cad136d641e024c3d53,62bbfaeca10048a50e88508d,2022-06-29_09h11.02.739,Colour_Asymmetry_Pilot,2022.1.3,Win32,55.98477214,62bbe60bf3d75ef465d3e404,0,36,36,46,1,fourtwo,,,,,,,,,,,,,,,,,,,,,,,,,,,,,,,,,,,,,,,,,,,,,,,,,,,,,,,,,,,,,,,,,,,,,,,,,,,,,,,,,,,,,,,,,,,,,,,,,,,,,,,,,,,,,,,,,,,,,,,,,,,,,,,,,,,,,,,,,,,,,,,,,,,,,,,
,,,,,,61731cad136d641e024c3d53,62bbfaeca10048a50e88508d,2022-06-29_09h11.02.739,Colour_Asymmetry_Pilot,2022.1.3,Win32,55.98477214,62bbe60bf3d75ef465d3e404,0,37,37,140,1,threeone,,,,,,,,,,,,,,,,,,,,,,,,,,,,,,,,,,,,,,,,,,,,,,,,,,,,,,,,,,,,,,,,,,,,,,,,,,,,,,,,,,,,,,,,,,,,,,,,,,,,,,,,,,,,,,,,,,,,,,,,,,,,,,,,,,,,,,,,,,,,,,,,,,,,,,,
,,,,,,61731cad136d641e024c3d53,62bbfaeca10048a50e88508d,2022-06-29_09h11.02.739,Colour_Asymmetry_Pilot,2022.1.3,Win32,55.98477214,62bbe60bf3d75ef465d3e404,0,38,38,74,1,twoone,,,,,,,,,,,,,,,,,,,,,,,,,,,,,,,,,,,,,,,,,,,,,,,,,,,,,,,,,,,,,,,,,,,,,,,,,,,,,,,,,,,,,,,,,,,,,,,,,,,,,,,,,,,,,,,,,,,,,,,,,,,,,,,,,,,,,,,,,,,,,,,,,,,,,,,
,,,,,,61731cad136d641e024c3d53,62bbfaeca10048a50e88508d,2022-06-29_09h11.02.739,Colour_Asymmetry_Pilot,2022.1.3,Win32,55.98477214,62bbe60bf3d75ef465d3e404,0,39,39,16,1,onetwo,,,,,,,,,,,,,,,,,,,,,,,,,,,,,,,,,,,,,,,,,,,,,,,,,,,,,,,,,,,,,,,,,,,,,,,,,,,,,,,,,,,,,,,,,,,,,,,,,,,,,,,,,,,,,,,,,,,,,,,,,,,,,,,,,,,,,,,,,,,,,,,,,,,,,,,
,,,,,,61731cad136d641e024c3d53,62bbfaeca10048a50e88508d,2022-06-29_09h11.02.739,Colour_Asymmetry_Pilot,2022.1.3,Win32,55.98477214,62bbe60bf3d75ef465d3e404,0,40,40,146,1,twoone,,,,,,,,,,,,,,,,,,,,,,,,,,,,,,,,,,,,,,,,,,,,,,,,,,,,,,,,,,,,,,,,,,,,,,,,,,,,,,,,,,,,,,,,,,,,,,,,,,,,,,,,,,,,,,,,,,,,,,,,,,,,,,,,,,,,,,,,,,,,,,,,,,,,,,,
,,,,,,61731cad136d641e024c3d53,62bbfaeca10048a50e88508d,2022-06-29_09h11.02.739,Colour_Asymmetry_Pilot,2022.1.3,Win32,55.98477214,62bbe60bf3d75ef465d3e404,0,41,41,135,1,fourthree,,,,,,,,,,,,,,,,,,,,,,,,,,,,,,,,,,,,,,,,,,,,,,,,,,,,,,,,,,,,,,,,,,,,,,,,,,,,,,,,,,,,,,,,,,,,,,,,,,,,,,,,,,,,,,,,,,,,,,,,,,,,,,,,,,,,,,,,,,,,,,,,,,,,,,,
,,,,,,61731cad136d641e024c3d53,62bbfaeca10048a50e88508d,2022-06-29_09h11.02.739,Colour_Asymmetry_Pilot,2022.1.3,Win32,55.98477214,62bbe60bf3d75ef465d3e404,0,42,42,97,1,onethree,,,,,,,,,,,,,,,,,,,,,,,,,,,,,,,,,,,,,,,,,,,,,,,,,,,,,,,,,,,,,,,,,,,,,,,,,,,,,,,,,,,,,,,,,,,,,,,,,,,,,,,,,,,,,,,,,,,,,,,,,,,,,,,,,,,,,,,,,,,,,,,,,,,,,,,
,,,,,,61731cad136d641e024c3d53,62bbfaeca10048a50e88508d,2022-06-29_09h11.02.739,Colour_Asymmetry_Pilot,2022.1.3,Win32,55.98477214,62bbe60bf3d75ef465d3e404,0,43,43,133,1,threefour,,,,,,,,,,,,,,,,,,,,,,,,,,,,,,,,,,,,,,,,,,,,,,,,,,,,,,,,,,,,,,,,,,,,,,,,,,,,,,,,,,,,,,,,,,,,,,,,,,,,,,,,,,,,,,,,,,,,,,,,,,,,,,,,,,,,,,,,,,,,,,,,,,,,,,,
,,,,,,61731cad136d641e024c3d53,62bbfaeca10048a50e88508d,2022-06-29_09h11.02.739,Colour_Asymmetry_Pilot,2022.1.3,Win32,55.98477214,62bbe60bf3d75ef465d3e404,0,44,44,32,1,onetwo,,,,,,,,,,,,,,,,,,,,,,,,,,,,,,,,,,,,,,,,,,,,,,,,,,,,,,,,,,,,,,,,,,,,,,,,,,,,,,,,,,,,,,,,,,,,,,,,,,,,,,,,,,,,,,,,,,,,,,,,,,,,,,,,,,,,,,,,,,,,,,,,,,,,,,,
,,,,,,61731cad136d641e024c3d53,62bbfaeca10048a50e88508d,2022-06-29_09h11.02.739,Colour_Asymmetry_Pilot,2022.1.3,Win32,55.98477214,62bbe60bf3d75ef465d3e404,0,45,45,101,1,threefour,,,,,,,,,,,,,,,,,,,,,,,,,,,,,,,,,,,,,,,,,,,,,,,,,,,,,,,,,,,,,,,,,,,,,,,,,,,,,,,,,,,,,,,,,,,,,,,,,,,,,,,,,,,,,,,,,,,,,,,,,,,,,,,,,,,,,,,,,,,,,,,,,,,,,,,
,,,,,,61731cad136d641e024c3d53,62bbfaeca10048a50e88508d,2022-06-29_09h11.02.739,Colour_Asymmetry_Pilot,2022.1.3,Win32,55.98477214,62bbe60bf3d75ef465d3e404,0,46,46,73,1,onethree,,,,,,,,,,,,,,,,,,,,,,,,,,,,,,,,,,,,,,,,,,,,,,,,,,,,,,,,,,,,,,,,,,,,,,,,,,,,,,,,,,,,,,,,,,,,,,,,,,,,,,,,,,,,,,,,,,,,,,,,,,,,,,,,,,,,,,,,,,,,,,,,,,,,,,,
,,,,,,61731cad136d641e024c3d53,62bbfaeca10048a50e88508d,2022-06-29_09h11.02.739,Colour_Asymmetry_Pilot,2022.1.3,Win32,55.98477214,62bbe60bf3d75ef465d3e404,0,47,47,152,1,onetwo,,,,,,,,,,,,,,,,,,,,,,,,,,,,,,,,,,,,,,,,,,,,,,,,,,,,,,,,,,,,,,,,,,,,,,,,,,,,,,,,,,,,,,,,,,,,,,,,,,,,,,,,,,,,,,,,,,,,,,,,,,,,,,,,,,,,,,,,,,,,,,,,,,,,,,,
,,,,,,61731cad136d641e024c3d53,62bbfaeca10048a50e88508d,2022-06-29_09h11.02.739,Colour_Asymmetry_Pilot,2022.1.3,Win32,55.98477214,62bbe60bf3d75ef465d3e404,0,48,48,84,1,threeone,,,,,,,,,,,,,,,,,,,,,,,,,,,,,,,,,,,,,,,,,,,,,,,,,,,,,,,,,,,,,,,,,,,,,,,,,,,,,,,,,,,,,,,,,,,,,,,,,,,,,,,,,,,,,,,,,,,,,,,,,,,,,,,,,,,,,,,,,,,,,,,,,,,,,,,
,,,,,,61731cad136d641e024c3d53,62bbfaeca10048a50e88508d,2022-06-29_09h11.02.739,Colour_Asymmetry_Pilot,2022.1.3,Win32,55.98477214,62bbe60bf3d75ef465d3e404,0,49,49,49,1,onethree,,,,,,,,,,,,,,,,,,,,,,,,,,,,,,,,,,,,,,,,,,,,,,,,,,,,,,,,,,,,,,,,,,,,,,,,,,,,,,,,,,,,,,,,,,,,,,,,,,,,,,,,,,,,,,,,,,,,,,,,,,,,,,,,,,,,,,,,,,,,,,,,,,,,,,,
,,,,,,61731cad136d641e024c3d53,62bbfaeca10048a50e88508d,2022-06-29_09h11.02.739,Colour_Asymmetry_Pilot,2022.1.3,Win32,55.98477214,62bbe60bf3d75ef465d3e404,0,50,50,107,1,twofour,,,,,,,,,,,,,,,,,,,,,,,,,,,,,,,,,,,,,,,,,,,,,,,,,,,,,,,,,,,,,,,,,,,,,,,,,,,,,,,,,,,,,,,,,,,,,,,,,,,,,,,,,,,,,,,,,,,,,,,,,,,,,,,,,,,,,,,,,,,,,,,,,,,,,,,
,,,,,,61731cad136d641e024c3d53,62bbfaeca10048a50e88508d,2022-06-29_09h11.02.739,Colour_Asymmetry_Pilot,2022.1.3,Win32,55.98477214,62bbe60bf3d75ef465d3e404,0,51,51,35,1,twofour,,,,,,,,,,,,,,,,,,,,,,,,,,,,,,,,,,,,,,,,,,,,,,,,,,,,,,,,,,,,,,,,,,,,,,,,,,,,,,,,,,,,,,,,,,,,,,,,,,,,,,,,,,,,,,,,,,,,,,,,,,,,,,,,,,,,,,,,,,,,,,,,,,,,,,,
,,,,,,61731cad136d641e024c3d53,62bbfaeca10048a50e88508d,2022-06-29_09h11.02.739,Colour_Asymmetry_Pilot,2022.1.3,Win32,55.98477214,62bbe60bf3d75ef465d3e404,0,52,52,156,1,threeone,,,,,,,,,,,,,,,,,,,,,,,,,,,,,,,,,,,,,,,,,,,,,,,,,,,,,,,,,,,,,,,,,,,,,,,,,,,,,,,,,,,,,,,,,,,,,,,,,,,,,,,,,,,,,,,,,,,,,,,,,,,,,,,,,,,,,,,,,,,,,,,,,,,,,,,
,,,,,,61731cad136d641e024c3d53,62bbfaeca10048a50e88508d,2022-06-29_09h11.02.739,Colour_Asymmetry_Pilot,2022.1.3,Win32,55.98477214,62bbe60bf3d75ef465d3e404,0,53,53,122,1,twoone,,,,,,,,,,,,,,,,,,,,,,,,,,,,,,,,,,,,,,,,,,,,,,,,,,,,,,,,,,,,,,,,,,,,,,,,,,,,,,,,,,,,,,,,,,,,,,,,,,,,,,,,,,,,,,,,,,,,,,,,,,,,,,,,,,,,,,,,,,,,,,,,,,,,,,,
,,,,,,61731cad136d641e024c3d53,62bbfaeca10048a50e88508d,2022-06-29_09h11.02.739,Colour_Asymmetry_Pilot,2022.1.3,Win32,55.98477214,62bbe60bf3d75ef465d3e404,0,54,54,141,1,threefour,,,,,,,,,,,,,,,,,,,,,,,,,,,,,,,,,,,,,,,,,,,,,,,,,,,,,,,,,,,,,,,,,,,,,,,,,,,,,,,,,,,,,,,,,,,,,,,,,,,,,,,,,,,,,,,,,,,,,,,,,,,,,,,,,,,,,,,,,,,,,,,,,,,,,,,
,,,,,,61731cad136d641e024c3d53,62bbfaeca10048a50e88508d,2022-06-29_09h11.02.739,Colour_Asymmetry_Pilot,2022.1.3,Win32,55.98477214,62bbe60bf3d75ef465d3e404,0,55,55,91,1,twofour,,,,,,,,,,,,,,,,,,,,,,,,,,,,,,,,,,,,,,,,,,,,,,,,,,,,,,,,,,,,,,,,,,,,,,,,,,,,,,,,,,,,,,,,,,,,,,,,,,,,,,,,,,,,,,,,,,,,,,,,,,,,,,,,,,,,,,,,,,,,,,,,,,,,,,,
,,,,,,61731cad136d641e024c3d53,62bbfaeca10048a50e88508d,2022-06-29_09h11.02.739,Colour_Asymmetry_Pilot,2022.1.3,Win32,55.98477214,62bbe60bf3d75ef465d3e404,0,56,56,57,1,onethree,,,,,,,,,,,,,,,,,,,,,,,,,,,,,,,,,,,,,,,,,,,,,,,,,,,,,,,,,,,,,,,,,,,,,,,,,,,,,,,,,,,,,,,,,,,,,,,,,,,,,,,,,,,,,,,,,,,,,,,,,,,,,,,,,,,,,,,,,,,,,,,,,,,,,,,
,,,,,,61731cad136d641e024c3d53,62bbfaeca10048a50e88508d,2022-06-29_09h11.02.739,Colour_Asymmetry_Pilot,2022.1.3,Win32,55.98477214,62bbe60bf3d75ef465d3e404,0,57,57,76,1,threeone,,,,,,,,,,,,,,,,,,,,,,,,,,,,,,,,,,,,,,,,,,,,,,,,,,,,,,,,,,,,,,,,,,,,,,,,,,,,,,,,,,,,,,,,,,,,,,,,,,,,,,,,,,,,,,,,,,,,,,,,,,,,,,,,,,,,,,,,,,,,,,,,,,,,,,,
,,,,,,61731cad136d641e024c3d53,62bbfaeca10048a50e88508d,2022-06-29_09h11.02.739,Colour_Asymmetry_Pilot,2022.1.3,Win32,55.98477214,62bbe60bf3d75ef465d3e404,0,58,58,42,1,twoone,,,,,,,,,,,,,,,,,,,,,,,,,,,,,,,,,,,,,,,,,,,,,,,,,,,,,,,,,,,,,,,,,,,,,,,,,,,,,,,,,,,,,,,,,,,,,,,,,,,,,,,,,,,,,,,,,,,,,,,,,,,,,,,,,,,,,,,,,,,,,,,,,,,,,,,
,,,,,,61731cad136d641e024c3d53,62bbfaeca10048a50e88508d,2022-06-29_09h11.02.739,Colour_Asymmetry_Pilot,2022.1.3,Win32,55.98477214,62bbe60bf3d75ef465d3e404,0,59,59,153,1,onethree,,,,,,,,,,,,,,,,,,,,,,,,,,,,,,,,,,,,,,,,,,,,,,,,,,,,,,,,,,,,,,,,,,,,,,,,,,,,,,,,,,,,,,,,,,,,,,,,,,,,,,,,,,,,,,,,,,,,,,,,,,,,,,,,,,,,,,,,,,,,,,,,,,,,,,,
,,,,,,61731cad136d641e024c3d53,62bbfaeca10048a50e88508d,2022-06-29_09h11.02.739,Colour_Asymmetry_Pilot,2022.1.3,Win32,55.98477214,62bbe60bf3d75ef465d3e404,0,60,60,121,1,onethree,,,,,,,,,,,,,,,,,,,,,,,,,,,,,,,,,,,,,,,,,,,,,,,,,,,,,,,,,,,,,,,,,,,,,,,,,,,,,,,,,,,,,,,,,,,,,,,,,,,,,,,,,,,,,,,,,,,,,,,,,,,,,,,,,,,,,,,,,,,,,,,,,,,,,,,
,,,,,,61731cad136d641e024c3d53,62bbfaeca10048a50e88508d,2022-06-29_09h11.02.739,Colour_Asymmetry_Pilot,2022.1.3,Win32,55.98477214,62bbe60bf3d75ef465d3e404,0,61,61,154,1,twoone,,,,,,,,,,,,,,,,,,,,,,,,,,,,,,,,,,,,,,,,,,,,,,,,,,,,,,,,,,,,,,,,,,,,,,,,,,,,,,,,,,,,,,,,,,,,,,,,,,,,,,,,,,,,,,,,,,,,,,,,,,,,,,,,,,,,,,,,,,,,,,,,,,,,,,,
,,,,,,61731cad136d641e024c3d53,62bbfaeca10048a50e88508d,2022-06-29_09h11.02.739,Colour_Asymmetry_Pilot,2022.1.3,Win32,55.98477214,62bbe60bf3d75ef465d3e404,0,62,62,142,1,fourtwo,,,,,,,,,,,,,,,,,,,,,,,,,,,,,,,,,,,,,,,,,,,,,,,,,,,,,,,,,,,,,,,,,,,,,,,,,,,,,,,,,,,,,,,,,,,,,,,,,,,,,,,,,,,,,,,,,,,,,,,,,,,,,,,,,,,,,,,,,,,,,,,,,,,,,,,
,,,,,,61731cad136d641e024c3d53,62bbfaeca10048a50e88508d,2022-06-29_09h11.02.739,Colour_Asymmetry_Pilot,2022.1.3,Win32,55.98477214,62bbe60bf3d75ef465d3e404,0,63,63,118,1,fourtwo,,,,,,,,,,,,,,,,,,,,,,,,,,,,,,,,,,,,,,,,,,,,,,,,,,,,,,,,,,,,,,,,,,,,,,,,,,,,,,,,,,,,,,,,,,,,,,,,,,,,,,,,,,,,,,,,,,,,,,,,,,,,,,,,,,,,,,,,,,,,,,,,,,,,,,,
,,,,,,61731cad136d641e024c3d53,62bbfaeca10048a50e88508d,2022-06-29_09h11.02.739,Colour_Asymmetry_Pilot,2022.1.3,Win32,55.98477214,62bbe60bf3d75ef465d3e404,0,64,64,143,1,fourthree,,,,,,,,,,,,,,,,,,,,,,,,,,,,,,,,,,,,,,,,,,,,,,,,,,,,,,,,,,,,,,,,,,,,,,,,,,,,,,,,,,,,,,,,,,,,,,,,,,,,,,,,,,,,,,,,,,,,,,,,,,,,,,,,,,,,,,,,,,,,,,,,,,,,,,,
,,,,,,61731cad136d641e024c3d53,62bbfaeca10048a50e88508d,2022-06-29_09h11.02.739,Colour_Asymmetry_Pilot,2022.1.3,Win32,55.98477214,62bbe60bf3d75ef465d3e404,0,65,65,86,1,fourtwo,,,,,,,,,,,,,,,,,,,,,,,,,,,,,,,,,,,,,,,,,,,,,,,,,,,,,,,,,,,,,,,,,,,,,,,,,,,,,,,,,,,,,,,,,,,,,,,,,,,,,,,,,,,,,,,,,,,,,,,,,,,,,,,,,,,,,,,,,,,,,,,,,,,,,,,
,,,,,,61731cad136d641e024c3d53,62bbfaeca10048a50e88508d,2022-06-29_09h11.02.739,Colour_Asymmetry_Pilot,2022.1.3,Win32,55.98477214,62bbe60bf3d75ef465d3e404,0,66,66,147,1,twofour,,,,,,,,,,,,,,,,,,,,,,,,,,,,,,,,,,,,,,,,,,,,,,,,,,,,,,,,,,,,,,,,,,,,,,,,,,,,,,,,,,,,,,,,,,,,,,,,,,,,,,,,,,,,,,,,,,,,,,,,,,,,,,,,,,,,,,,,,,,,,,,,,,,,,,,
,,,,,,61731cad136d641e024c3d53,62bbfaeca10048a50e88508d,2022-06-29_09h11.02.739,Colour_Asymmetry_Pilot,2022.1.3,Win32,55.98477214,62bbe60bf3d75ef465d3e404,0,67,67,30,1,fourtwo,,,,,,,,,,,,,,,,,,,,,,,,,,,,,,,,,,,,,,,,,,,,,,,,,,,,,,,,,,,,,,,,,,,,,,,,,,,,,,,,,,,,,,,,,,,,,,,,,,,,,,,,,,,,,,,,,,,,,,,,,,,,,,,,,,,,,,,,,,,,,,,,,,,,,,,
,,,,,,61731cad136d641e024c3d53,62bbfaeca10048a50e88508d,2022-06-29_09h11.02.739,Colour_Asymmetry_Pilot,2022.1.3,Win32,55.98477214,62bbe60bf3d75ef465d3e404,0,68,68,28,1,threeone,,,,,,,,,,,,,,,,,,,,,,,,,,,,,,,,,,,,,,,,,,,,,,,,,,,,,,,,,,,,,,,,,,,,,,,,,,,,,,,,,,,,,,,,,,,,,,,,,,,,,,,,,,,,,,,,,,,,,,,,,,,,,,,,,,,,,,,,,,,,,,,,,,,,,,,
,,,,,,61731cad136d641e024c3d53,62bbfaeca10048a50e88508d,2022-06-29_09h11.02.739,Colour_Asymmetry_Pilot,2022.1.3,Win32,55.98477214,62bbe60bf3d75ef465d3e404,0,69,69,88,1,onetwo,,,,,,,,,,,,,,,,,,,,,,,,,,,,,,,,,,,,,,,,,,,,,,,,,,,,,,,,,,,,,,,,,,,,,,,,,,,,,,,,,,,,,,,,,,,,,,,,,,,,,,,,,,,,,,,,,,,,,,,,,,,,,,,,,,,,,,,,,,,,,,,,,,,,,,,
,,,,,,61731cad136d641e024c3d53,62bbfaeca10048a50e88508d,2022-06-29_09h11.02.739,Colour_Asymmetry_Pilot,2022.1.3,Win32,55.98477214,62bbe60bf3d75ef465d3e404,0,70,70,79,1,fourthree,,,,,,,,,,,,,,,,,,,,,,,,,,,,,,,,,,,,,,,,,,,,,,,,,,,,,,,,,,,,,,,,,,,,,,,,,,,,,,,,,,,,,,,,,,,,,,,,,,,,,,,,,,,,,,,,,,,,,,,,,,,,,,,,,,,,,,,,,,,,,,,,,,,,,,,
,,,,,,61731cad136d641e024c3d53,62bbfaeca10048a50e88508d,2022-06-29_09h11.02.739,Colour_Asymmetry_Pilot,2022.1.3,Win32,55.98477214,62bbe60bf3d75ef465d3e404,0,71,71,48,1,onetwo,,,,,,,,,,,,,,,,,,,,,,,,,,,,,,,,,,,,,,,,,,,,,,,,,,,,,,,,,,,,,,,,,,,,,,,,,,,,,,,,,,,,,,,,,,,,,,,,,,,,,,,,,,,,,,,,,,,,,,,,,,,,,,,,,,,,,,,,,,,,,,,,,,,,,,,
,,,,,,61731cad136d641e024c3d53,62bbfaeca10048a50e88508d,2022-06-29_09h11.02.739,Colour_Asymmetry_Pilot,2022.1.3,Win32,55.98477214,62bbe60bf3d75ef465d3e404,0,72,72,68,1,threeone,,,,,,,,,,,,,,,,,,,,,,,,,,,,,,,,,,,,,,,,,,,,,,,,,,,,,,,,,,,,,,,,,,,,,,,,,,,,,,,,,,,,,,,,,,,,,,,,,,,,,,,,,,,,,,,,,,,,,,,,,,,,,,,,,,,,,,,,,,,,,,,,,,,,,,,
,,,,,,61731cad136d641e024c3d53,62bbfaeca10048a50e88508d,2022-06-29_09h11.02.739,Colour_Asymmetry_Pilot,2022.1.3,Win32,55.98477214,62bbe60bf3d75ef465d3e404,0,73,73,62,1,fourtwo,,,,,,,,,,,,,,,,,,,,,,,,,,,,,,,,,,,,,,,,,,,,,,,,,,,,,,,,,,,,,,,,,,,,,,,,,,,,,,,,,,,,,,,,,,,,,,,,,,,,,,,,,,,,,,,,,,,,,,,,,,,,,,,,,,,,,,,,,,,,,,,,,,,,,,,
,,,,,,61731cad136d641e024c3d53,62bbfaeca10048a50e88508d,2022-06-29_09h11.02.739,Colour_Asymmetry_Pilot,2022.1.3,Win32,55.98477214,62bbe60bf3d75ef465d3e404,0,74,74,64,1,onetwo,,,,,,,,,,,,,,,,,,,,,,,,,,,,,,,,,,,,,,,,,,,,,,,,,,,,,,,,,,,,,,,,,,,,,,,,,,,,,,,,,,,,,,,,,,,,,,,,,,,,,,,,,,,,,,,,,,,,,,,,,,,,,,,,,,,,,,,,,,,,,,,,,,,,,,,
,,,,,,61731cad136d641e024c3d53,62bbfaeca10048a50e88508d,2022-06-29_09h11.02.739,Colour_Asymmetry_Pilot,2022.1.3,Win32,55.98477214,62bbe60bf3d75ef465d3e404,0,75,75,105,1,onethree,,,,,,,,,,,,,,,,,,,,,,,,,,,,,,,,,,,,,,,,,,,,,,,,,,,,,,,,,,,,,,,,,,,,,,,,,,,,,,,,,,,,,,,,,,,,,,,,,,,,,,,,,,,,,,,,,,,,,,,,,,,,,,,,,,,,,,,,,,,,,,,,,,,,,,,
,,,,,,61731cad136d641e024c3d53,62bbfaeca10048a50e88508d,2022-06-29_09h11.02.739,Colour_Asymmetry_Pilot,2022.1.3,Win32,55.98477214,62bbe60bf3d75ef465d3e404,0,76,76,117,1,threefour,,,,,,,,,,,,,,,,,,,,,,,,,,,,,,,,,,,,,,,,,,,,,,,,,,,,,,,,,,,,,,,,,,,,,,,,,,,,,,,,,,,,,,,,,,,,,,,,,,,,,,,,,,,,,,,,,,,,,,,,,,,,,,,,,,,,,,,,,,,,,,,,,,,,,,,
,,,,,,61731cad136d641e024c3d53,62bbfaeca10048a50e88508d,2022-06-29_09h11.02.739,Colour_Asymmetry_Pilot,2022.1.3,Win32,55.98477214,62bbe60bf3d75ef465d3e404,0,77,77,72,1,onetwo,,,,,,,,,,,,,,,,,,,,,,,,,,,,,,,,,,,,,,,,,,,,,,,,,,,,,,,,,,,,,,,,,,,,,,,,,,,,,,,,,,,,,,,,,,,,,,,,,,,,,,,,,,,,,,,,,,,,,,,,,,,,,,,,,,,,,,,,,,,,,,,,,,,,,,,
,,,,,,61731cad136d641e024c3d53,62bbfaeca10048a50e88508d,2022-06-29_09h11.02.739,Colour_Asymmetry_Pilot,2022.1.3,Win32,55.98477214,62bbe60bf3d75ef465d3e404,0,78,78,36,1,threeone,,,,,,,,,,,,,,,,,,,,,,,,,,,,,,,,,,,,,,,,,,,,,,,,,,,,,,,,,,,,,,,,,,,,,,,,,,,,,,,,,,,,,,,,,,,,,,,,,,,,,,,,,,,,,,,,,,,,,,,,,,,,,,,,,,,,,,,,,,,,,,,,,,,,,,,
,,,,,,61731cad136d641e024c3d53,62bbfaeca10048a50e88508d,2022-06-29_09h11.02.739,Colour_Asymmetry_Pilot,2022.1.3,Win32,55.98477214,62bbe60bf3d75ef465d3e404,0,79,79,126,1,fourtwo,,,,,,,,,,,,,,,,,,,,,,,,,,,,,,,,,,,,,,,,,,,,,,,,,,,,,,,,,,,,,,,,,,,,,,,,,,,,,,,,,,,,,,,,,,,,,,,,,,,,,,,,,,,,,,,,,,,,,,,,,,,,,,,,,,,,,,,,,,,,,,,,,,,,,,,
,,,,,,61731cad136d641e024c3d53,62bbfaeca10048a50e88508d,2022-06-29_09h11.02.739,Colour_Asymmetry_Pilot,2022.1.3,Win32,55.98477214,62bbe60bf3d75ef465d3e404,0,80,80,132,1,threeone,,,,,,,,,,,,,,,,,,,,,,,,,,,,,,,,,,,,,,,,,,,,,,,,,,,,,,,,,,,,,,,,,,,,,,,,,,,,,,,,,,,,,,,,,,,,,,,,,,,,,,,,,,,,,,,,,,,,,,,,,,,,,,,,,,,,,,,,,,,,,,,,,,,,,,,
,,,,,,61731cad136d641e024c3d53,62bbfaeca10048a50e88508d,2022-06-29_09h11.02.739,Colour_Asymmetry_Pilot,2022.1.3,Win32,55.98477214,62bbe60bf3d75ef465d3e404,0,81,81,99,1,twofour,,,,,,,,,,,,,,,,,,,,,,,,,,,,,,,,,,,,,,,,,,,,,,,,,,,,,,,,,,,,,,,,,,,,,,,,,,,,,,,,,,,,,,,,,,,,,,,,,,,,,,,,,,,,,,,,,,,,,,,,,,,,,,,,,,,,,,,,,,,,,,,,,,,,,,,
,,,,,,61731cad136d641e024c3d53,62bbfaeca10048a50e88508d,2022-06-29_09h11.02.739,Colour_Asymmetry_Pilot,2022.1.3,Win32,55.98477214,62bbe60bf3d75ef465d3e404,0,82,82,71,1,fourthree,,,,,,,,,,,,,,,,,,,,,,,,,,,,,,,,,,,,,,,,,,,,,,,,,,,,,,,,,,,,,,,,,,,,,,,,,,,,,,,,,,,,,,,,,,,,,,,,,,,,,,,,,,,,,,,,,,,,,,,,,,,,,,,,,,,,,,,,,,,,,,,,,,,,,,,
,,,,,,61731cad136d641e024c3d53,62bbfaeca10048a50e88508d,2022-06-29_09h11.02.739,Colour_Asymmetry_Pilot,2022.1.3,Win32,55.98477214,62bbe60bf3d75ef465d3e404,0,83,83,47,1,fourthree,,,,,,,,,,,,,,,,,,,,,,,,,,,,,,,,,,,,,,,,,,,,,,,,,,,,,,,,,,,,,,,,,,,,,,,,,,,,,,,,,,,,,,,,,,,,,,,,,,,,,,,,,,,,,,,,,,,,,,,,,,,,,,,,,,,,,,,,,,,,,,,,,,,,,,,
,,,,,,61731cad136d641e024c3d53,62bbfaeca10048a50e88508d,2022-06-29_09h11.02.739,Colour_Asymmetry_Pilot,2022.1.3,Win32,55.98477214,62bbe60bf3d75ef465d3e404,0,84,84,34,1,twoone,,,,,,,,,,,,,,,,,,,,,,,,,,,,,,,,,,,,,,,,,,,,,,,,,,,,,,,,,,,,,,,,,,,,,,,,,,,,,,,,,,,,,,,,,,,,,,,,,,,,,,,,,,,,,,,,,,,,,,,,,,,,,,,,,,,,,,,,,,,,,,,,,,,,,,,
,,,,,,61731cad136d641e024c3d53,62bbfaeca10048a50e88508d,2022-06-29_09h11.02.739,Colour_Asymmetry_Pilot,2022.1.3,Win32,55.98477214,62bbe60bf3d75ef465d3e404,0,85,85,98,1,twoone,,,,,,,,,,,,,,,,,,,,,,,,,,,,,,,,,,,,,,,,,,,,,,,,,,,,,,,,,,,,,,,,,,,,,,,,,,,,,,,,,,,,,,,,,,,,,,,,,,,,,,,,,,,,,,,,,,,,,,,,,,,,,,,,,,,,,,,,,,,,,,,,,,,,,,,
,,,,,,61731cad136d641e024c3d53,62bbfaeca10048a50e88508d,2022-06-29_09h11.02.739,Colour_Asymmetry_Pilot,2022.1.3,Win32,55.98477214,62bbe60bf3d75ef465d3e404,0,86,86,87,1,fourthree,,,,,,,,,,,,,,,,,,,,,,,,,,,,,,,,,,,,,,,,,,,,,,,,,,,,,,,,,,,,,,,,,,,,,,,,,,,,,,,,,,,,,,,,,,,,,,,,,,,,,,,,,,,,,,,,,,,,,,,,,,,,,,,,,,,,,,,,,,,,,,,,,,,,,,,
,,,,,,61731cad136d641e024c3d53,62bbfaeca10048a50e88508d,2022-06-29_09h11.02.739,Colour_Asymmetry_Pilot,2022.1.3,Win32,55.98477214,62bbe60bf3d75ef465d3e404,0,87,87,151,1,fourthree,,,,,,,,,,,,,,,,,,,,,,,,,,,,,,,,,,,,,,,,,,,,,,,,,,,,,,,,,,,,,,,,,,,,,,,,,,,,,,,,,,,,,,,,,,,,,,,,,,,,,,,,,,,,,,,,,,,,,,,,,,,,,,,,,,,,,,,,,,,,,,,,,,,,,,,
,,,,,,61731cad136d641e024c3d53,62bbfaeca10048a50e88508d,2022-06-29_09h11.02.739,Colour_Asymmetry_Pilot,2022.1.3,Win32,55.98477214,62bbe60bf3d75ef465d3e404,0,88,88,158,1,fourtwo,,,,,,,,,,,,,,,,,,,,,,,,,,,,,,,,,,,,,,,,,,,,,,,,,,,,,,,,,,,,,,,,,,,,,,,,,,,,,,,,,,,,,,,,,,,,,,,,,,,,,,,,,,,,,,,,,,,,,,,,,,,,,,,,,,,,,,,,,,,,,,,,,,,,,,,
,,,,,,61731cad136d641e024c3d53,62bbfaeca10048a50e88508d,2022-06-29_09h11.02.739,Colour_Asymmetry_Pilot,2022.1.3,Win32,55.98477214,62bbe60bf3d75ef465d3e404,0,89,89,106,1,twoone,,,,,,,,,,,,,,,,,,,,,,,,,,,,,,,,,,,,,,,,,,,,,,,,,,,,,,,,,,,,,,,,,,,,,,,,,,,,,,,,,,,,,,,,,,,,,,,,,,,,,,,,,,,,,,,,,,,,,,,,,,,,,,,,,,,,,,,,,,,,,,,,,,,,,,,
,,,,,,61731cad136d641e024c3d53,62bbfaeca10048a50e88508d,2022-06-29_09h11.02.739,Colour_Asymmetry_Pilot,2022.1.3,Win32,55.98477214,62bbe60bf3d75ef465d3e404,0,90,90,139,1,twofour,,,,,,,,,,,,,,,,,,,,,,,,,,,,,,,,,,,,,,,,,,,,,,,,,,,,,,,,,,,,,,,,,,,,,,,,,,,,,,,,,,,,,,,,,,,,,,,,,,,,,,,,,,,,,,,,,,,,,,,,,,,,,,,,,,,,,,,,,,,,,,,,,,,,,,,
,,,,,,61731cad136d641e024c3d53,62bbfaeca10048a50e88508d,2022-06-29_09h11.02.739,Colour_Asymmetry_Pilot,2022.1.3,Win32,55.98477214,62bbe60bf3d75ef465d3e404,0,91,91,75,1,twofour,,,,,,,,,,,,,,,,,,,,,,,,,,,,,,,,,,,,,,,,,,,,,,,,,,,,,,,,,,,,,,,,,,,,,,,,,,,,,,,,,,,,,,,,,,,,,,,,,,,,,,,,,,,,,,,,,,,,,,,,,,,,,,,,,,,,,,,,,,,,,,,,,,,,,,,
,,,,,,61731cad136d641e024c3d53,62bbfaeca10048a50e88508d,2022-06-29_09h11.02.739,Colour_Asymmetry_Pilot,2022.1.3,Win32,55.98477214,62bbe60bf3d75ef465d3e404,0,92,92,134,1,fourtwo,,,,,,,,,,,,,,,,,,,,,,,,,,,,,,,,,,,,,,,,,,,,,,,,,,,,,,,,,,,,,,,,,,,,,,,,,,,,,,,,,,,,,,,,,,,,,,,,,,,,,,,,,,,,,,,,,,,,,,,,,,,,,,,,,,,,,,,,,,,,,,,,,,,,,,,
,,,,,,61731cad136d641e024c3d53,62bbfaeca10048a50e88508d,2022-06-29_09h11.02.739,Colour_Asymmetry_Pilot,2022.1.3,Win32,55.98477214,62bbe60bf3d75ef465d3e404,0,93,93,50,1,twoone,,,,,,,,,,,,,,,,,,,,,,,,,,,,,,,,,,,,,,,,,,,,,,,,,,,,,,,,,,,,,,,,,,,,,,,,,,,,,,,,,,,,,,,,,,,,,,,,,,,,,,,,,,,,,,,,,,,,,,,,,,,,,,,,,,,,,,,,,,,,,,,,,,,,,,,
,,,,,,61731cad136d641e024c3d53,62bbfaeca10048a50e88508d,2022-06-29_09h11.02.739,Colour_Asymmetry_Pilot,2022.1.3,Win32,55.98477214,62bbe60bf3d75ef465d3e404,0,94,94,148,1,threeone,,,,,,,,,,,,,,,,,,,,,,,,,,,,,,,,,,,,,,,,,,,,,,,,,,,,,,,,,,,,,,,,,,,,,,,,,,,,,,,,,,,,,,,,,,,,,,,,,,,,,,,,,,,,,,,,,,,,,,,,,,,,,,,,,,,,,,,,,,,,,,,,,,,,,,,
,,,,,,61731cad136d641e024c3d53,62bbfaeca10048a50e88508d,2022-06-29_09h11.02.739,Colour_Asymmetry_Pilot,2022.1.3,Win32,55.98477214,62bbe60bf3d75ef465d3e404,0,95,95,70,1,fourtwo,,,,,,,,,,,,,,,,,,,,,,,,,,,,,,,,,,,,,,,,,,,,,,,,,,,,,,,,,,,,,,,,,,,,,,,,,,,,,,,,,,,,,,,,,,,,,,,,,,,,,,,,,,,,,,,,,,,,,,,,,,,,,,,,,,,,,,,,,,,,,,,,,,,,,,,
,,,,,,61731cad136d641e024c3d53,62bbfaeca10048a50e88508d,2022-06-29_09h11.02.739,Colour_Asymmetry_Pilot,2022.1.3,Win32,55.98477214,62bbe60bf3d75ef465d3e404,0,96,96,95,1,fourthree,,,,,,,,,,,,,,,,,,,,,,,,,,,,,,,,,,,,,,,,,,,,,,,,,,,,,,,,,,,,,,,,,,,,,,,,,,,,,,,,,,,,,,,,,,,,,,,,,,,,,,,,,,,,,,,,,,,,,,,,,,,,,,,,,,,,,,,,,,,,,,,,,,,,,,,
,,,,,,61731cad136d641e024c3d53,62bbfaeca10048a50e88508d,2022-06-29_09h11.02.739,Colour_Asymmetry_Pilot,2022.1.3,Win32,55.98477214,62bbe60bf3d75ef465d3e404,0,97,97,144,1,onetwo,,,,,,,,,,,,,,,,,,,,,,,,,,,,,,,,,,,,,,,,,,,,,,,,,,,,,,,,,,,,,,,,,,,,,,,,,,,,,,,,,,,,,,,,,,,,,,,,,,,,,,,,,,,,,,,,,,,,,,,,,,,,,,,,,,,,,,,,,,,,,,,,,,,,,,,
,,,,,,61731cad136d641e024c3d53,62bbfaeca10048a50e88508d,2022-06-29_09h11.02.739,Colour_Asymmetry_Pilot,2022.1.3,Win32,55.98477214,62bbe60bf3d75ef465d3e404,0,98,98,40,1,onetwo,,,,,,,,,,,,,,,,,,,,,,,,,,,,,,,,,,,,,,,,,,,,,,,,,,,,,,,,,,,,,,,,,,,,,,,,,,,,,,,,,,,,,,,,,,,,,,,,,,,,,,,,,,,,,,,,,,,,,,,,,,,,,,,,,,,,,,,,,,,,,,,,,,,,,,,
,,,,,,61731cad136d641e024c3d53,62bbfaeca10048a50e88508d,2022-06-29_09h11.02.739,Colour_Asymmetry_Pilot,2022.1.3,Win32,55.98477214,62bbe60bf3d75ef465d3e404,0,99,99,41,1,onethree,,,,,,,,,,,,,,,,,,,,,,,,,,,,,,,,,,,,,,,,,,,,,,,,,,,,,,,,,,,,,,,,,,,,,,,,,,,,,,,,,,,,,,,,,,,,,,,,,,,,,,,,,,,,,,,,,,,,,,,,,,,,,,,,,,,,,,,,,,,,,,,,,,,,,,,
,,,,,,61731cad136d641e024c3d53,62bbfaeca10048a50e88508d,2022-06-29_09h11.02.739,Colour_Asymmetry_Pilot,2022.1.3,Win32,55.98477214,62bbe60bf3d75ef465d3e404,0,100,100,109,1,threefour,,,,,,,,,,,,,,,,,,,,,,,,,,,,,,,,,,,,,,,,,,,,,,,,,,,,,,,,,,,,,,,,,,,,,,,,,,,,,,,,,,,,,,,,,,,,,,,,,,,,,,,,,,,,,,,,,,,,,,,,,,,,,,,,,,,,,,,,,,,,,,,,,,,,,,,
,,,,,,61731cad136d641e024c3d53,62bbfaeca10048a50e88508d,2022-06-29_09h11.02.739,Colour_Asymmetry_Pilot,2022.1.3,Win32,55.98477214,62bbe60bf3d75ef465d3e404,0,101,101,111,1,fourthree,,,,,,,,,,,,,,,,,,,,,,,,,,,,,,,,,,,,,,,,,,,,,,,,,,,,,,,,,,,,,,,,,,,,,,,,,,,,,,,,,,,,,,,,,,,,,,,,,,,,,,,,,,,,,,,,,,,,,,,,,,,,,,,,,,,,,,,,,,,,,,,,,,,,,,,
,,,,,,61731cad136d641e024c3d53,62bbfaeca10048a50e88508d,2022-06-29_09h11.02.739,Colour_Asymmetry_Pilot,2022.1.3,Win32,55.98477214,62bbe60bf3d75ef465d3e404,0,102,102,37,1,threefour,,,,,,,,,,,,,,,,,,,,,,,,,,,,,,,,,,,,,,,,,,,,,,,,,,,,,,,,,,,,,,,,,,,,,,,,,,,,,,,,,,,,,,,,,,,,,,,,,,,,,,,,,,,,,,,,,,,,,,,,,,,,,,,,,,,,,,,,,,,,,,,,,,,,,,,
,,,,,,61731cad136d641e024c3d53,62bbfaeca10048a50e88508d,2022-06-29_09h11.02.739,Colour_Asymmetry_Pilot,2022.1.3,Win32,55.98477214,62bbe60bf3d75ef465d3e404,0,103,103,116,1,threeone,,,,,,,,,,,,,,,,,,,,,,,,,,,,,,,,,,,,,,,,,,,,,,,,,,,,,,,,,,,,,,,,,,,,,,,,,,,,,,,,,,,,,,,,,,,,,,,,,,,,,,,,,,,,,,,,,,,,,,,,,,,,,,,,,,,,,,,,,,,,,,,,,,,,,,,
,,,,,,61731cad136d641e024c3d53,62bbfaeca10048a50e88508d,2022-06-29_09h11.02.739,Colour_Asymmetry_Pilot,2022.1.3,Win32,55.98477214,62bbe60bf3d75ef465d3e404,0,104,104,159,1,fourthree,,,,,,,,,,,,,,,,,,,,,,,,,,,,,,,,,,,,,,,,,,,,,,,,,,,,,,,,,,,,,,,,,,,,,,,,,,,,,,,,,,,,,,,,,,,,,,,,,,,,,,,,,,,,,,,,,,,,,,,,,,,,,,,,,,,,,,,,,,,,,,,,,,,,,,,
,,,,,,61731cad136d641e024c3d53,62bbfaeca10048a50e88508d,2022-06-29_09h11.02.739,Colour_Asymmetry_Pilot,2022.1.3,Win32,55.98477214,62bbe60bf3d75ef465d3e404,0,105,105,25,1,onethree,,,,,,,,,,,,,,,,,,,,,,,,,,,,,,,,,,,,,,,,,,,,,,,,,,,,,,,,,,,,,,,,,,,,,,,,,,,,,,,,,,,,,,,,,,,,,,,,,,,,,,,,,,,,,,,,,,,,,,,,,,,,,,,,,,,,,,,,,,,,,,,,,,,,,,,
,,,,,,61731cad136d641e024c3d53,62bbfaeca10048a50e88508d,2022-06-29_09h11.02.739,Colour_Asymmetry_Pilot,2022.1.3,Win32,55.98477214,62bbe60bf3d75ef465d3e404,0,106,106,128,1,onetwo,,,,,,,,,,,,,,,,,,,,,,,,,,,,,,,,,,,,,,,,,,,,,,,,,,,,,,,,,,,,,,,,,,,,,,,,,,,,,,,,,,,,,,,,,,,,,,,,,,,,,,,,,,,,,,,,,,,,,,,,,,,,,,,,,,,,,,,,,,,,,,,,,,,,,,,
,,,,,,61731cad136d641e024c3d53,62bbfaeca10048a50e88508d,2022-06-29_09h11.02.739,Colour_Asymmetry_Pilot,2022.1.3,Win32,55.98477214,62bbe60bf3d75ef465d3e404,0,107,107,11,1,twofour,,,,,,,,,,,,,,,,,,,,,,,,,,,,,,,,,,,,,,,,,,,,,,,,,,,,,,,,,,,,,,,,,,,,,,,,,,,,,,,,,,,,,,,,,,,,,,,,,,,,,,,,,,,,,,,,,,,,,,,,,,,,,,,,,,,,,,,,,,,,,,,,,,,,,,,
,,,,,,61731cad136d641e024c3d53,62bbfaeca10048a50e88508d,2022-06-29_09h11.02.739,Colour_Asymmetry_Pilot,2022.1.3,Win32,55.98477214,62bbe60bf3d75ef465d3e404,0,108,108,145,1,onethree,,,,,,,,,,,,,,,,,,,,,,,,,,,,,,,,,,,,,,,,,,,,,,,,,,,,,,,,,,,,,,,,,,,,,,,,,,,,,,,,,,,,,,,,,,,,,,,,,,,,,,,,,,,,,,,,,,,,,,,,,,,,,,,,,,,,,,,,,,,,,,,,,,,,,,,
,,,,,,61731cad136d641e024c3d53,62bbfaeca10048a50e88508d,2022-06-29_09h11.02.739,Colour_Asymmetry_Pilot,2022.1.3,Win32,55.98477214,62bbe60bf3d75ef465d3e404,0,109,109,22,1,fourtwo,,,,,,,,,,,,,,,,,,,,,,,,,,,,,,,,,,,,,,,,,,,,,,,,,,,,,,,,,,,,,,,,,,,,,,,,,,,,,,,,,,,,,,,,,,,,,,,,,,,,,,,,,,,,,,,,,,,,,,,,,,,,,,,,,,,,,,,,,,,,,,,,,,,,,,,
,,,,,,61731cad136d641e024c3d53,62bbfaeca10048a50e88508d,2022-06-29_09h11.02.739,Colour_Asymmetry_Pilot,2022.1.3,Win32,55.98477214,62bbe60bf3d75ef465d3e404,0,110,110,12,1,threeone,,,,,,,,,,,,,,,,,,,,,,,,,,,,,,,,,,,,,,,,,,,,,,,,,,,,,,,,,,,,,,,,,,,,,,,,,,,,,,,,,,,,,,,,,,,,,,,,,,,,,,,,,,,,,,,,,,,,,,,,,,,,,,,,,,,,,,,,,,,,,,,,,,,,,,,
,,,,,,61731cad136d641e024c3d53,62bbfaeca10048a50e88508d,2022-06-29_09h11.02.739,Colour_Asymmetry_Pilot,2022.1.3,Win32,55.98477214,62bbe60bf3d75ef465d3e404,0,111,111,92,1,threeone,,,,,,,,,,,,,,,,,,,,,,,,,,,,,,,,,,,,,,,,,,,,,,,,,,,,,,,,,,,,,,,,,,,,,,,,,,,,,,,,,,,,,,,,,,,,,,,,,,,,,,,,,,,,,,,,,,,,,,,,,,,,,,,,,,,,,,,,,,,,,,,,,,,,,,,
,,,,,,61731cad136d641e024c3d53,62bbfaeca10048a50e88508d,2022-06-29_09h11.02.739,Colour_Asymmetry_Pilot,2022.1.3,Win32,55.98477214,62bbe60bf3d75ef465d3e404,0,112,112,1,1,onethree,,,,,,,,,,,,,,,,,,,,,,,,,,,,,,,,,,,,,,,,,,,,,,,,,,,,,,,,,,,,,,,,,,,,,,,,,,,,,,,,,,,,,,,,,,,,,,,,,,,,,,,,,,,,,,,,,,,,,,,,,,,,,,,,,,,,,,,,,,,,,,,,,,,,,,,
,,,,,,61731cad136d641e024c3d53,62bbfaeca10048a50e88508d,2022-06-29_09h11.02.739,Colour_Asymmetry_Pilot,2022.1.3,Win32,55.98477214,62bbe60bf3d75ef465d3e404,0,113,113,78,1,fourtwo,,,,,,,,,,,,,,,,,,,,,,,,,,,,,,,,,,,,,,,,,,,,,,,,,,,,,,,,,,,,,,,,,,,,,,,,,,,,,,,,,,,,,,,,,,,,,,,,,,,,,,,,,,,,,,,,,,,,,,,,,,,,,,,,,,,,,,,,,,,,,,,,,,,,,,,
,,,,,,61731cad136d641e024c3d53,62bbfaeca10048a50e88508d,2022-06-29_09h11.02.739,Colour_Asymmetry_Pilot,2022.1.3,Win32,55.98477214,62bbe60bf3d75ef465d3e404,0,114,114,55,1,fourthree,,,,,,,,,,,,,,,,,,,,,,,,,,,,,,,,,,,,,,,,,,,,,,,,,,,,,,,,,,,,,,,,,,,,,,,,,,,,,,,,,,,,,,,,,,,,,,,,,,,,,,,,,,,,,,,,,,,,,,,,,,,,,,,,,,,,,,,,,,,,,,,,,,,,,,,
,,,,,,61731cad136d641e024c3d53,62bbfaeca10048a50e88508d,2022-06-29_09h11.02.739,Colour_Asymmetry_Pilot,2022.1.3,Win32,55.98477214,62bbe60bf3d75ef465d3e404,0,115,115,31,1,fourthree,,,,,,,,,,,,,,,,,,,,,,,,,,,,,,,,,,,,,,,,,,,,,,,,,,,,,,,,,,,,,,,,,,,,,,,,,,,,,,,,,,,,,,,,,,,,,,,,,,,,,,,,,,,,,,,,,,,,,,,,,,,,,,,,,,,,,,,,,,,,,,,,,,,,,,,
,,,,,,61731cad136d641e024c3d53,62bbfaeca10048a50e88508d,2022-06-29_09h11.02.739,Colour_Asymmetry_Pilot,2022.1.3,Win32,55.98477214,62bbe60bf3d75ef465d3e404,0,116,116,125,1,threefour,,,,,,,,,,,,,,,,,,,,,,,,,,,,,,,,,,,,,,,,,,,,,,,,,,,,,,,,,,,,,,,,,,,,,,,,,,,,,,,,,,,,,,,,,,,,,,,,,,,,,,,,,,,,,,,,,,,,,,,,,,,,,,,,,,,,,,,,,,,,,,,,,,,,,,,
,,,,,,61731cad136d641e024c3d53,62bbfaeca10048a50e88508d,2022-06-29_09h11.02.739,Colour_Asymmetry_Pilot,2022.1.3,Win32,55.98477214,62bbe60bf3d75ef465d3e404,0,117,117,113,1,onethree,,,,,,,,,,,,,,,,,,,,,,,,,,,,,,,,,,,,,,,,,,,,,,,,,,,,,,,,,,,,,,,,,,,,,,,,,,,,,,,,,,,,,,,,,,,,,,,,,,,,,,,,,,,,,,,,,,,,,,,,,,,,,,,,,,,,,,,,,,,,,,,,,,,,,,,
,,,,,,61731cad136d641e024c3d53,62bbfaeca10048a50e88508d,2022-06-29_09h11.02.739,Colour_Asymmetry_Pilot,2022.1.3,Win32,55.98477214,62bbe60bf3d75ef465d3e404,0,118,118,2,1,twoone,,,,,,,,,,,,,,,,,,,,,,,,,,,,,,,,,,,,,,,,,,,,,,,,,,,,,,,,,,,,,,,,,,,,,,,,,,,,,,,,,,,,,,,,,,,,,,,,,,,,,,,,,,,,,,,,,,,,,,,,,,,,,,,,,,,,,,,,,,,,,,,,,,,,,,,
,,,,,,61731cad136d641e024c3d53,62bbfaeca10048a50e88508d,2022-06-29_09h11.02.739,Colour_Asymmetry_Pilot,2022.1.3,Win32,55.98477214,62bbe60bf3d75ef465d3e404,0,119,119,137,1,onethree,,,,,,,,,,,,,,,,,,,,,,,,,,,,,,,,,,,,,,,,,,,,,,,,,,,,,,,,,,,,,,,,,,,,,,,,,,,,,,,,,,,,,,,,,,,,,,,,,,,,,,,,,,,,,,,,,,,,,,,,,,,,,,,,,,,,,,,,,,,,,,,,,,,,,,,
,,,,,,61731cad136d641e024c3d53,62bbfaeca10048a50e88508d,2022-06-29_09h11.02.739,Colour_Asymmetry_Pilot,2022.1.3,Win32,55.98477214,62bbe60bf3d75ef465d3e404,0,120,120,150,1,fourtwo,,,,,,,,,,,,,,,,,,,,,,,,,,,,,,,,,,,,,,,,,,,,,,,,,,,,,,,,,,,,,,,,,,,,,,,,,,,,,,,,,,,,,,,,,,,,,,,,,,,,,,,,,,,,,,,,,,,,,,,,,,,,,,,,,,,,,,,,,,,,,,,,,,,,,,,
,,,,,,61731cad136d641e024c3d53,62bbfaeca10048a50e88508d,2022-06-29_09h11.02.739,Colour_Asymmetry_Pilot,2022.1.3,Win32,55.98477214,62bbe60bf3d75ef465d3e404,0,121,121,58,1,twoone,,,,,,,,,,,,,,,,,,,,,,,,,,,,,,,,,,,,,,,,,,,,,,,,,,,,,,,,,,,,,,,,,,,,,,,,,,,,,,,,,,,,,,,,,,,,,,,,,,,,,,,,,,,,,,,,,,,,,,,,,,,,,,,,,,,,,,,,,,,,,,,,,,,,,,,
,,,,,,61731cad136d641e024c3d53,62bbfaeca10048a50e88508d,2022-06-29_09h11.02.739,Colour_Asymmetry_Pilot,2022.1.3,Win32,55.98477214,62bbe60bf3d75ef465d3e404,0,122,122,100,1,threeone,,,,,,,,,,,,,,,,,,,,,,,,,,,,,,,,,,,,,,,,,,,,,,,,,,,,,,,,,,,,,,,,,,,,,,,,,,,,,,,,,,,,,,,,,,,,,,,,,,,,,,,,,,,,,,,,,,,,,,,,,,,,,,,,,,,,,,,,,,,,,,,,,,,,,,,
,,,,,,61731cad136d641e024c3d53,62bbfaeca10048a50e88508d,2022-06-29_09h11.02.739,Colour_Asymmetry_Pilot,2022.1.3,Win32,55.98477214,62bbe60bf3d75ef465d3e404,0,123,123,85,1,threefour,,,,,,,,,,,,,,,,,,,,,,,,,,,,,,,,,,,,,,,,,,,,,,,,,,,,,,,,,,,,,,,,,,,,,,,,,,,,,,,,,,,,,,,,,,,,,,,,,,,,,,,,,,,,,,,,,,,,,,,,,,,,,,,,,,,,,,,,,,,,,,,,,,,,,,,
,,,,,,61731cad136d641e024c3d53,62bbfaeca10048a50e88508d,2022-06-29_09h11.02.739,Colour_Asymmetry_Pilot,2022.1.3,Win32,55.98477214,62bbe60bf3d75ef465d3e404,0,124,124,96,1,onetwo,,,,,,,,,,,,,,,,,,,,,,,,,,,,,,,,,,,,,,,,,,,,,,,,,,,,,,,,,,,,,,,,,,,,,,,,,,,,,,,,,,,,,,,,,,,,,,,,,,,,,,,,,,,,,,,,,,,,,,,,,,,,,,,,,,,,,,,,,,,,,,,,,,,,,,,
,,,,,,61731cad136d641e024c3d53,62bbfaeca10048a50e88508d,2022-06-29_09h11.02.739,Colour_Asymmetry_Pilot,2022.1.3,Win32,55.98477214,62bbe60bf3d75ef465d3e404,0,125,125,112,1,onetwo,,,,,,,,,,,,,,,,,,,,,,,,,,,,,,,,,,,,,,,,,,,,,,,,,,,,,,,,,,,,,,,,,,,,,,,,,,,,,,,,,,,,,,,,,,,,,,,,,,,,,,,,,,,,,,,,,,,,,,,,,,,,,,,,,,,,,,,,,,,,,,,,,,,,,,,
,,,,,,61731cad136d641e024c3d53,62bbfaeca10048a50e88508d,2022-06-29_09h11.02.739,Colour_Asymmetry_Pilot,2022.1.3,Win32,55.98477214,62bbe60bf3d75ef465d3e404,0,126,126,20,1,threeone,,,,,,,,,,,,,,,,,,,,,,,,,,,,,,,,,,,,,,,,,,,,,,,,,,,,,,,,,,,,,,,,,,,,,,,,,,,,,,,,,,,,,,,,,,,,,,,,,,,,,,,,,,,,,,,,,,,,,,,,,,,,,,,,,,,,,,,,,,,,,,,,,,,,,,,
,,,,,,61731cad136d641e024c3d53,62bbfaeca10048a50e88508d,2022-06-29_09h11.02.739,Colour_Asymmetry_Pilot,2022.1.3,Win32,55.98477214,62bbe60bf3d75ef465d3e404,0,127,127,60,1,threeone,,,,,,,,,,,,,,,,,,,,,,,,,,,,,,,,,,,,,,,,,,,,,,,,,,,,,,,,,,,,,,,,,,,,,,,,,,,,,,,,,,,,,,,,,,,,,,,,,,,,,,,,,,,,,,,,,,,,,,,,,,,,,,,,,,,,,,,,,,,,,,,,,,,,,,,
,,,,,,61731cad136d641e024c3d53,62bbfaeca10048a50e88508d,2022-06-29_09h11.02.739,Colour_Asymmetry_Pilot,2022.1.3,Win32,55.98477214,62bbe60bf3d75ef465d3e404,0,128,128,129,1,onethree,,,,,,,,,,,,,,,,,,,,,,,,,,,,,,,,,,,,,,,,,,,,,,,,,,,,,,,,,,,,,,,,,,,,,,,,,,,,,,,,,,,,,,,,,,,,,,,,,,,,,,,,,,,,,,,,,,,,,,,,,,,,,,,,,,,,,,,,,,,,,,,,,,,,,,,
,,,,,,61731cad136d641e024c3d53,62bbfaeca10048a50e88508d,2022-06-29_09h11.02.739,Colour_Asymmetry_Pilot,2022.1.3,Win32,55.98477214,62bbe60bf3d75ef465d3e404,0,129,129,29,1,threefour,,,,,,,,,,,,,,,,,,,,,,,,,,,,,,,,,,,,,,,,,,,,,,,,,,,,,,,,,,,,,,,,,,,,,,,,,,,,,,,,,,,,,,,,,,,,,,,,,,,,,,,,,,,,,,,,,,,,,,,,,,,,,,,,,,,,,,,,,,,,,,,,,,,,,,,
,,,,,,61731cad136d641e024c3d53,62bbfaeca10048a50e88508d,2022-06-29_09h11.02.739,Colour_Asymmetry_Pilot,2022.1.3,Win32,55.98477214,62bbe60bf3d75ef465d3e404,0,130,130,127,1,fourthree,,,,,,,,,,,,,,,,,,,,,,,,,,,,,,,,,,,,,,,,,,,,,,,,,,,,,,,,,,,,,,,,,,,,,,,,,,,,,,,,,,,,,,,,,,,,,,,,,,,,,,,,,,,,,,,,,,,,,,,,,,,,,,,,,,,,,,,,,,,,,,,,,,,,,,,
,,,,,,61731cad136d641e024c3d53,62bbfaeca10048a50e88508d,2022-06-29_09h11.02.739,Colour_Asymmetry_Pilot,2022.1.3,Win32,55.98477214,62bbe60bf3d75ef465d3e404,0,131,131,90,1,twoone,,,,,,,,,,,,,,,,,,,,,,,,,,,,,,,,,,,,,,,,,,,,,,,,,,,,,,,,,,,,,,,,,,,,,,,,,,,,,,,,,,,,,,,,,,,,,,,,,,,,,,,,,,,,,,,,,,,,,,,,,,,,,,,,,,,,,,,,,,,,,,,,,,,,,,,
,,,,,,61731cad136d641e024c3d53,62bbfaeca10048a50e88508d,2022-06-29_09h11.02.739,Colour_Asymmetry_Pilot,2022.1.3,Win32,55.98477214,62bbe60bf3d75ef465d3e404,0,132,132,69,1,threefour,,,,,,,,,,,,,,,,,,,,,,,,,,,,,,,,,,,,,,,,,,,,,,,,,,,,,,,,,,,,,,,,,,,,,,,,,,,,,,,,,,,,,,,,,,,,,,,,,,,,,,,,,,,,,,,,,,,,,,,,,,,,,,,,,,,,,,,,,,,,,,,,,,,,,,,
,,,,,,61731cad136d641e024c3d53,62bbfaeca10048a50e88508d,2022-06-29_09h11.02.739,Colour_Asymmetry_Pilot,2022.1.3,Win32,55.98477214,62bbe60bf3d75ef465d3e404,0,133,133,21,1,threefour,,,,,,,,,,,,,,,,,,,,,,,,,,,,,,,,,,,,,,,,,,,,,,,,,,,,,,,,,,,,,,,,,,,,,,,,,,,,,,,,,,,,,,,,,,,,,,,,,,,,,,,,,,,,,,,,,,,,,,,,,,,,,,,,,,,,,,,,,,,,,,,,,,,,,,,
,,,,,,61731cad136d641e024c3d53,62bbfaeca10048a50e88508d,2022-06-29_09h11.02.739,Colour_Asymmetry_Pilot,2022.1.3,Win32,55.98477214,62bbe60bf3d75ef465d3e404,0,134,134,119,1,fourthree,,,,,,,,,,,,,,,,,,,,,,,,,,,,,,,,,,,,,,,,,,,,,,,,,,,,,,,,,,,,,,,,,,,,,,,,,,,,,,,,,,,,,,,,,,,,,,,,,,,,,,,,,,,,,,,,,,,,,,,,,,,,,,,,,,,,,,,,,,,,,,,,,,,,,,,
,,,,,,61731cad136d641e024c3d53,62bbfaeca10048a50e88508d,2022-06-29_09h11.02.739,Colour_Asymmetry_Pilot,2022.1.3,Win32,55.98477214,62bbe60bf3d75ef465d3e404,0,135,135,77,1,threefour,,,,,,,,,,,,,,,,,,,,,,,,,,,,,,,,,,,,,,,,,,,,,,,,,,,,,,,,,,,,,,,,,,,,,,,,,,,,,,,,,,,,,,,,,,,,,,,,,,,,,,,,,,,,,,,,,,,,,,,,,,,,,,,,,,,,,,,,,,,,,,,,,,,,,,,
,,,,,,61731cad136d641e024c3d53,62bbfaeca10048a50e88508d,2022-06-29_09h11.02.739,Colour_Asymmetry_Pilot,2022.1.3,Win32,55.98477214,62bbe60bf3d75ef465d3e404,0,136,136,18,1,twoone,,,,,,,,,,,,,,,,,,,,,,,,,,,,,,,,,,,,,,,,,,,,,,,,,,,,,,,,,,,,,,,,,,,,,,,,,,,,,,,,,,,,,,,,,,,,,,,,,,,,,,,,,,,,,,,,,,,,,,,,,,,,,,,,,,,,,,,,,,,,,,,,,,,,,,,
,,,,,,61731cad136d641e024c3d53,62bbfaeca10048a50e88508d,2022-06-29_09h11.02.739,Colour_Asymmetry_Pilot,2022.1.3,Win32,55.98477214,62bbe60bf3d75ef465d3e404,0,137,137,54,1,fourtwo,,,,,,,,,,,,,,,,,,,,,,,,,,,,,,,,,,,,,,,,,,,,,,,,,,,,,,,,,,,,,,,,,,,,,,,,,,,,,,,,,,,,,,,,,,,,,,,,,,,,,,,,,,,,,,,,,,,,,,,,,,,,,,,,,,,,,,,,,,,,,,,,,,,,,,,
,,,,,,61731cad136d641e024c3d53,62bbfaeca10048a50e88508d,2022-06-29_09h11.02.739,Colour_Asymmetry_Pilot,2022.1.3,Win32,55.98477214,62bbe60bf3d75ef465d3e404,0,138,138,123,1,twofour,,,,,,,,,,,,,,,,,,,,,,,,,,,,,,,,,,,,,,,,,,,,,,,,,,,,,,,,,,,,,,,,,,,,,,,,,,,,,,,,,,,,,,,,,,,,,,,,,,,,,,,,,,,,,,,,,,,,,,,,,,,,,,,,,,,,,,,,,,,,,,,,,,,,,,,
,,,,,,61731cad136d641e024c3d53,62bbfaeca10048a50e88508d,2022-06-29_09h11.02.739,Colour_Asymmetry_Pilot,2022.1.3,Win32,55.98477214,62bbe60bf3d75ef465d3e404,0,139,139,39,1,fourthree,,,,,,,,,,,,,,,,,,,,,,,,,,,,,,,,,,,,,,,,,,,,,,,,,,,,,,,,,,,,,,,,,,,,,,,,,,,,,,,,,,,,,,,,,,,,,,,,,,,,,,,,,,,,,,,,,,,,,,,,,,,,,,,,,,,,,,,,,,,,,,,,,,,,,,,
,,,,,,61731cad136d641e024c3d53,62bbfaeca10048a50e88508d,2022-06-29_09h11.02.739,Colour_Asymmetry_Pilot,2022.1.3,Win32,55.98477214,62bbe60bf3d75ef465d3e404,0,140,140,94,1,fourtwo,,,,,,,,,,,,,,,,,,,,,,,,,,,,,,,,,,,,,,,,,,,,,,,,,,,,,,,,,,,,,,,,,,,,,,,,,,,,,,,,,,,,,,,,,,,,,,,,,,,,,,,,,,,,,,,,,,,,,,,,,,,,,,,,,,,,,,,,,,,,,,,,,,,,,,,
,,,,,,61731cad136d641e024c3d53,62bbfaeca10048a50e88508d,2022-06-29_09h11.02.739,Colour_Asymmetry_Pilot,2022.1.3,Win32,55.98477214,62bbe60bf3d75ef465d3e404,0,141,141,33,1,onethree,,,,,,,,,,,,,,,,,,,,,,,,,,,,,,,,,,,,,,,,,,,,,,,,,,,,,,,,,,,,,,,,,,,,,,,,,,,,,,,,,,,,,,,,,,,,,,,,,,,,,,,,,,,,,,,,,,,,,,,,,,,,,,,,,,,,,,,,,,,,,,,,,,,,,,,
,,,,,,61731cad136d641e024c3d53,62bbfaeca10048a50e88508d,2022-06-29_09h11.02.739,Colour_Asymmetry_Pilot,2022.1.3,Win32,55.98477214,62bbe60bf3d75ef465d3e404,0,142,142,138,1,twoone,,,,,,,,,,,,,,,,,,,,,,,,,,,,,,,,,,,,,,,,,,,,,,,,,,,,,,,,,,,,,,,,,,,,,,,,,,,,,,,,,,,,,,,,,,,,,,,,,,,,,,,,,,,,,,,,,,,,,,,,,,,,,,,,,,,,,,,,,,,,,,,,,,,,,,,
,,,,,,61731cad136d641e024c3d53,62bbfaeca10048a50e88508d,2022-06-29_09h11.02.739,Colour_Asymmetry_Pilot,2022.1.3,Win32,55.98477214,62bbe60bf3d75ef465d3e404,0,143,143,120,1,onetwo,,,,,,,,,,,,,,,,,,,,,,,,,,,,,,,,,,,,,,,,,,,,,,,,,,,,,,,,,,,,,,,,,,,,,,,,,,,,,,,,,,,,,,,,,,,,,,,,,,,,,,,,,,,,,,,,,,,,,,,,,,,,,,,,,,,,,,,,,,,,,,,,,,,,,,,
,,,,,,61731cad136d641e024c3d53,62bbfaeca10048a50e88508d,2022-06-29_09h11.02.739,Colour_Asymmetry_Pilot,2022.1.3,Win32,55.98477214,62bbe60bf3d75ef465d3e404,0,144,144,160,1,onetwo,,,,,,,,,,,,,,,,,,,,,,,,,,,,,,,,,,,,,,,,,,,,,,,,,,,,,,,,,,,,,,,,,,,,,,,,,,,,,,,,,,,,,,,,,,,,,,,,,,,,,,,,,,,,,,,,,,,,,,,,,,,,,,,,,,,,,,,,,,,,,,,,,,,,,,,
,,,,,,61731cad136d641e024c3d53,62bbfaeca10048a50e88508d,2022-06-29_09h11.02.739,Colour_Asymmetry_Pilot,2022.1.3,Win32,55.98477214,62bbe60bf3d75ef465d3e404,0,145,145,53,1,threefour,,,,,,,,,,,,,,,,,,,,,,,,,,,,,,,,,,,,,,,,,,,,,,,,,,,,,,,,,,,,,,,,,,,,,,,,,,,,,,,,,,,,,,,,,,,,,,,,,,,,,,,,,,,,,,,,,,,,,,,,,,,,,,,,,,,,,,,,,,,,,,,,,,,,,,,
,,,,,,61731cad136d641e024c3d53,62bbfaeca10048a50e88508d,2022-06-29_09h11.02.739,Colour_Asymmetry_Pilot,2022.1.3,Win32,55.98477214,62bbe60bf3d75ef465d3e404,0,146,146,65,1,onethree,,,,,,,,,,,,,,,,,,,,,,,,,,,,,,,,,,,,,,,,,,,,,,,,,,,,,,,,,,,,,,,,,,,,,,,,,,,,,,,,,,,,,,,,,,,,,,,,,,,,,,,,,,,,,,,,,,,,,,,,,,,,,,,,,,,,,,,,,,,,,,,,,,,,,,,
,,,,,,61731cad136d641e024c3d53,62bbfaeca10048a50e88508d,2022-06-29_09h11.02.739,Colour_Asymmetry_Pilot,2022.1.3,Win32,55.98477214,62bbe60bf3d75ef465d3e404,0,147,147,0,1,onetwo,,,,,,,,,,,,,,,,,,,,,,,,,,,,,,,,,,,,,,,,,,,,,,,,,,,,,,,,,,,,,,,,,,,,,,,,,,,,,,,,,,,,,,,,,,,,,,,,,,,,,,,,,,,,,,,,,,,,,,,,,,,,,,,,,,,,,,,,,,,,,,,,,,,,,,,
,,,,,,61731cad136d641e024c3d53,62bbfaeca10048a50e88508d,2022-06-29_09h11.02.739,Colour_Asymmetry_Pilot,2022.1.3,Win32,55.98477214,62bbe60bf3d75ef465d3e404,0,148,148,8,1,onetwo,,,,,,,,,,,,,,,,,,,,,,,,,,,,,,,,,,,,,,,,,,,,,,,,,,,,,,,,,,,,,,,,,,,,,,,,,,,,,,,,,,,,,,,,,,,,,,,,,,,,,,,,,,,,,,,,,,,,,,,,,,,,,,,,,,,,,,,,,,,,,,,,,,,,,,,
,,,,,,61731cad136d641e024c3d53,62bbfaeca10048a50e88508d,2022-06-29_09h11.02.739,Colour_Asymmetry_Pilot,2022.1.3,Win32,55.98477214,62bbe60bf3d75ef465d3e404,0,149,149,63,1,fourthree,,,,,,,,,,,,,,,,,,,,,,,,,,,,,,,,,,,,,,,,,,,,,,,,,,,,,,,,,,,,,,,,,,,,,,,,,,,,,,,,,,,,,,,,,,,,,,,,,,,,,,,,,,,,,,,,,,,,,,,,,,,,,,,,,,,,,,,,,,,,,,,,,,,,,,,
,,,,,,61731cad136d641e024c3d53,62bbfaeca10048a50e88508d,2022-06-29_09h11.02.739,Colour_Asymmetry_Pilot,2022.1.3,Win32,55.98477214,62bbe60bf3d75ef465d3e404,0,150,150,110,1,fourtwo,,,,,,,,,,,,,,,,,,,,,,,,,,,,,,,,,,,,,,,,,,,,,,,,,,,,,,,,,,,,,,,,,,,,,,,,,,,,,,,,,,,,,,,,,,,,,,,,,,,,,,,,,,,,,,,,,,,,,,,,,,,,,,,,,,,,,,,,,,,,,,,,,,,,,,,
,,,,,,61731cad136d641e024c3d53,62bbfaeca10048a50e88508d,2022-06-29_09h11.02.739,Colour_Asymmetry_Pilot,2022.1.3,Win32,55.98477214,62bbe60bf3d75ef465d3e404,0,151,151,115,1,twofour,,,,,,,,,,,,,,,,,,,,,,,,,,,,,,,,,,,,,,,,,,,,,,,,,,,,,,,,,,,,,,,,,,,,,,,,,,,,,,,,,,,,,,,,,,,,,,,,,,,,,,,,,,,,,,,,,,,,,,,,,,,,,,,,,,,,,,,,,,,,,,,,,,,,,,,
,,,,,,61731cad136d641e024c3d53,62bbfaeca10048a50e88508d,2022-06-29_09h11.02.739,Colour_Asymmetry_Pilot,2022.1.3,Win32,55.98477214,62bbe60bf3d75ef465d3e404,0,152,152,61,1,threefour,,,,,,,,,,,,,,,,,,,,,,,,,,,,,,,,,,,,,,,,,,,,,,,,,,,,,,,,,,,,,,,,,,,,,,,,,,,,,,,,,,,,,,,,,,,,,,,,,,,,,,,,,,,,,,,,,,,,,,,,,,,,,,,,,,,,,,,,,,,,,,,,,,,,,,,
,,,,,,61731cad136d641e024c3d53,62bbfaeca10048a50e88508d,2022-06-29_09h11.02.739,Colour_Asymmetry_Pilot,2022.1.3,Win32,55.98477214,62bbe60bf3d75ef465d3e404,0,153,153,4,1,threeone,,,,,,,,,,,,,,,,,,,,,,,,,,,,,,,,,,,,,,,,,,,,,,,,,,,,,,,,,,,,,,,,,,,,,,,,,,,,,,,,,,,,,,,,,,,,,,,,,,,,,,,,,,,,,,,,,,,,,,,,,,,,,,,,,,,,,,,,,,,,,,,,,,,,,,,
,,,,,,61731cad136d641e024c3d53,62bbfaeca10048a50e88508d,2022-06-29_09h11.02.739,Colour_Asymmetry_Pilot,2022.1.3,Win32,55.98477214,62bbe60bf3d75ef465d3e404,0,154,154,157,1,threefour,,,,,,,,,,,,,,,,,,,,,,,,,,,,,,,,,,,,,,,,,,,,,,,,,,,,,,,,,,,,,,,,,,,,,,,,,,,,,,,,,,,,,,,,,,,,,,,,,,,,,,,,,,,,,,,,,,,,,,,,,,,,,,,,,,,,,,,,,,,,,,,,,,,,,,,
,,,,,,61731cad136d641e024c3d53,62bbfaeca10048a50e88508d,2022-06-29_09h11.02.739,Colour_Asymmetry_Pilot,2022.1.3,Win32,55.98477214,62bbe60bf3d75ef465d3e404,0,155,155,103,1,fourthree,,,,,,,,,,,,,,,,,,,,,,,,,,,,,,,,,,,,,,,,,,,,,,,,,,,,,,,,,,,,,,,,,,,,,,,,,,,,,,,,,,,,,,,,,,,,,,,,,,,,,,,,,,,,,,,,,,,,,,,,,,,,,,,,,,,,,,,,,,,,,,,,,,,,,,,
,,,,,,61731cad136d641e024c3d53,62bbfaeca10048a50e88508d,2022-06-29_09h11.02.739,Colour_Asymmetry_Pilot,2022.1.3,Win32,55.98477214,62bbe60bf3d75ef465d3e404,0,156,156,102,1,fourtwo,,,,,,,,,,,,,,,,,,,,,,,,,,,,,,,,,,,,,,,,,,,,,,,,,,,,,,,,,,,,,,,,,,,,,,,,,,,,,,,,,,,,,,,,,,,,,,,,,,,,,,,,,,,,,,,,,,,,,,,,,,,,,,,,,,,,,,,,,,,,,,,,,,,,,,,
,,,,,,61731cad136d641e024c3d53,62bbfaeca10048a50e88508d,2022-06-29_09h11.02.739,Colour_Asymmetry_Pilot,2022.1.3,Win32,55.98477214,62bbe60bf3d75ef465d3e404,0,157,157,83,1,twofour,,,,,,,,,,,,,,,,,,,,,,,,,,,,,,,,,,,,,,,,,,,,,,,,,,,,,,,,,,,,,,,,,,,,,,,,,,,,,,,,,,,,,,,,,,,,,,,,,,,,,,,,,,,,,,,,,,,,,,,,,,,,,,,,,,,,,,,,,,,,,,,,,,,,,,,
,,,,,,61731cad136d641e024c3d53,62bbfaeca10048a50e88508d,2022-06-29_09h11.02.739,Colour_Asymmetry_Pilot,2022.1.3,Win32,55.98477214,62bbe60bf3d75ef465d3e404,0,158,158,51,1,twofour,,,,,,,,,,,,,,,,,,,,,,,,,,,,,,,,,,,,,,,,,,,,,,,,,,,,,,,,,,,,,,,,,,,,,,,,,,,,,,,,,,,,,,,,,,,,,,,,,,,,,,,,,,,,,,,,,,,,,,,,,,,,,,,,,,,,,,,,,,,,,,,,,,,,,,,
,,,,,,61731cad136d641e024c3d53,62bbfaeca10048a50e88508d,2022-06-29_09h11.02.739,Colour_Asymmetry_Pilot,2022.1.3,Win32,55.98477214,62bbe60bf3d75ef465d3e404,0,159,159,17,1,onethree,,,,,,,,,,,,,,,,,,,,,,,,,,,,,,,,,,,,,,,,,,,,,,,,,,,,,,,,,,,,,,,,,,,,,,,,,,,,,,,,,,,,,,,,,,,,,,,,,,,,,,,,,,,,,,,,,,,,,,,,,,,,,,,,,,,,,,,,,,,,,,,,,,,,,,,
,,,,,,61731cad136d641e024c3d53,62bbfaeca10048a50e88508d,2022-06-29_09h11.02.739,Colour_Asymmetry_Pilot,2022.1.3,Win32,55.98477214,62bbe60bf3d75ef465d3e404,0,160,160,44,1,threeone,,,,,,,,,,,,,,,,,,,,,,,,,,,,,,,,,,,,,,,,,,,,,,,,,,,,,,,,,,,,,,,,,,,,,,,,,,,,,,,,,,,,,,,,,,,,,,,,,,,,,,,,,,,,,,,,,,,,,,,,,,,,,,,,,,,,,,,,,,,,,,,,,,,,,,,
,,,,,,61731cad136d641e024c3d53,62bbfaeca10048a50e88508d,2022-06-29_09h11.02.739,Colour_Asymmetry_Pilot,2022.1.3,Win32,55.98477214,62bbe60bf3d75ef465d3e404,0,161,161,7,1,fourthree,,,,,,,,,,,,,,,,,,,,,,,,,,,,,,,,,,,,,,,,,,,,,,,,,,,,,,,,,,,,,,,,,,,,,,,,,,,,,,,,,,,,,,,,,,,,,,,,,,,,,,,,,,,,,,,,,,,,,,,,,,,,,,,,,,,,,,,,,,,,,,,,,,,,,,,
,,,,,,61731cad136d641e024c3d53,62bbfaeca10048a50e88508d,2022-06-29_09h11.02.739,Colour_Asymmetry_Pilot,2022.1.3,Win32,55.98477214,62bbe60bf3d75ef465d3e404,,,,,,,space,7.8166,space,59.6512,space,69.9616,space,15.0659,space,3.7099,space,5.8523,"[0.5449999999999999,-0.31000000000000005,-0.0354000000000001]",twofour,"[1,0.12939999999999996,-1]",-4,13.9239,-61,91,1,0,0,response7disk_5,4,1,0,0,1,rectangle_8,61,86,0,0,1,response1disk_7,7,4,4,7,1,0,0,rectangle_4,0,0,0,0,1,,,,,,,,,,,,,,,,,,,,,,,,,,,,,,,,,,,,,,,,,,,,,,,,,,,,,,,,,,,,,,,,,,,,,,,,,,,,,,,,,,,,,,,,,,,,,,,,,,,,,,,
,,,,,,61731cad136d641e024c3d53,62bbfaeca10048a50e88508d,2022-06-29_09h11.02.739,Colour_Asymmetry_Pilot,2022.1.3,Win32,55.98477214,62bbe60bf3d75ef465d3e404,,,,,,,,,,,,,,,,,,,"[-0.7412000000000001,-0.08239999999999992,-0.6864]",threeone,"[0.4196,0.4665999999999999,0.3568]",-4,5.6734,-53,98,1,0,0,response7disk_5,2,7,1,0,0,rectangle_8,2,7,1,0,0,,,4,2,7,1,0,0,,1,0,1,0,1,,,,,,,,,,,,,,,,,,,,,,,,,,,,,,,,,,,,,,,,,,,,,,,,,,,,,,,,,,,,,,,,,,,,,,,,,,,,,,,,,,,,,,,,,,,,,,,,,,,,,,,
,,,,,,61731cad136d641e024c3d53,62bbfaeca10048a50e88508d,2022-06-29_09h11.02.739,Colour_Asymmetry_Pilot,2022.1.3,Win32,55.98477214,62bbe60bf3d75ef465d3e404,,,,,,,,,,,,,,,,,,,"[0.5449999999999999,-0.31000000000000005,-0.0354000000000001]",twoone,"[-0.8118,-0.8198,-0.5452]",-4,2.2321,-25,74,1,0,0,response7disk_5,16,1,1,0,0,rectangle_8,16,1,1,0,0,,,4,16,1,1,0,0,,2,0,2,0,1,,,,,,,,,,,,,,,,,,,,,,,,,,,,,,,,,,,,,,,,,,,,,,,,,,,,,,,,,,,,,,,,,,,,,,,,,,,,,,,,,,,,,,,,,,,,,,,,,,,,,,,
,,,,,,61731cad136d641e024c3d53,62bbfaeca10048a50e88508d,2022-06-29_09h11.02.739,Colour_Asymmetry_Pilot,2022.1.3,Win32,55.98477214,62bbe60bf3d75ef465d3e404,,,,,,,,,,,,,,,,,,,"[0.37240000000000006,0.4980000000000002,-0.2864]",onethree,"[0.19199999999999995,0.18419999999999992,0.5136000000000001]",-4,4.1925,-35,55,1,0,0,response7disk_5,-2,-2,1,0,0,rectangle_8,-2,-2,1,0,0,,,4,-2,-2,1,0,0,,3,0,3,0,1,,,,,,,,,,,,,,,,,,,,,,,,,,,,,,,,,,,,,,,,,,,,,,,,,,,,,,,,,,,,,,,,,,,,,,,,,,,,,,,,,,,,,,,,,,,,,,,,,,,,,,,
,,,,,,61731cad136d641e024c3d53,62bbfaeca10048a50e88508d,2022-06-29_09h11.02.739,Colour_Asymmetry_Pilot,2022.1.3,Win32,55.98477214,62bbe60bf3d75ef465d3e404,,,,,,,,,,,,,,,,,,,"[-0.5922000000000001,-0.7492000000000001,-0.5296000000000001]",twofour,"[-0.4668,-0.8746,-0.2942]",-4,2.6184,-23,57,1,0,0,response7disk_5,7,5,1,0,0,rectangle_8,7,5,1,0,0,,,4,7,5,1,0,0,,4,0,4,0,1,,,,,,,,,,,,,,,,,,,,,,,,,,,,,,,,,,,,,,,,,,,,,,,,,,,,,,,,,,,,,,,,,,,,,,,,,,,,,,,,,,,,,,,,,,,,,,,,,,,,,,,
,,,,,,61731cad136d641e024c3d53,62bbfaeca10048a50e88508d,2022-06-29_09h11.02.739,Colour_Asymmetry_Pilot,2022.1.3,Win32,55.98477214,62bbe60bf3d75ef465d3e404,,,,,,,,,,,,,,,,,,,"[-0.24719999999999998,-0.0354000000000001,0.3175999999999999]",fourtwo,"[-0.2942,-0.7648,-0.7492000000000001]",-4,1.0995,-27,78,1,0,0,response7disk_5,3,6,1,0,0,rectangle_8,3,6,1,0,0,,,4,3,6,1,0,0,,5,0,5,0,1,,,,,,,,,,,,,,,,,,,,,,,,,,,,,,,,,,,,,,,,,,,,,,,,,,,,,,,,,,,,,,,,,,,,,,,,,,,,,,,,,,,,,,,,,,,,,,,,,,,,,,,
,,,,,,61731cad136d641e024c3d53,62bbfaeca10048a50e88508d,2022-06-29_09h11.02.739,Colour_Asymmetry_Pilot,2022.1.3,Win32,55.98477214,62bbe60bf3d75ef465d3e404,,,,,,,,,,,,,,,,,,,"[0.9372,0.9450000000000001,0.8980000000000001]",fourthree,"[0.9763999999999999,0.30979999999999985,-0.6786]",-4,1.3372,-26,65,1,0,0,response7disk_5,1,4,1,0,0,rectangle_8,1,4,1,0,0,,,4,1,4,1,0,0,,6,0,6,0,1,,,,,,,,,,,,,,,,,,,,,,,,,,,,,,,,,,,,,,,,,,,,,,,,,,,,,,,,,,,,,,,,,,,,,,,,,,,,,,,,,,,,,,,,,,,,,,,,,,,,,,,
,,,,,,61731cad136d641e024c3d53,62bbfaeca10048a50e88508d,2022-06-29_09h11.02.739,Colour_Asymmetry_Pilot,2022.1.3,Win32,55.98477214,62bbe60bf3d75ef465d3e404,,,,,,,,,,,,,,,,,,,,threefour,,4,7.9532,,,,,,,,,,,,,,,,,,,,,,,,,,,,,,,,space,6.4059,"[0.9763999999999999,-0.1137999999999999,-0.6314]","[1,0.12939999999999996,-1]",28,78,1,0,0,response1disk,7,2,1,0,0,rectangle,7,2,1,0,0,,3,0.0079,0,7,2,1,0,0,0,0,0,26,1,26,first,,,,,,,,,,,,,,,,,,,,,,,,,,,,,,,,,,,,,,,,,,,,,,,,,,,,,,,,,,,,,,,,,,
,,,,,,61731cad136d641e024c3d53,62bbfaeca10048a50e88508d,2022-06-29_09h11.02.739,Colour_Asymmetry_Pilot,2022.1.3,Win32,55.98477214,62bbe60bf3d75ef465d3e404,,,,,,,,,,,,,,,,,,,,fourthree,,4,0.8303,,,,,,,,,,,,,,,,,,,,,,,,,,,,,,,,,,"[0.37240000000000006,0.4980000000000002,-0.2864]","[0.5528,0.7409999999999999,-0.71]",21,74,1,0,0,response1disk,15,3,1,0,0,rectangle,15,3,1,0,0,,1,0.0028,0,15,3,1,0,0,0,1,1,66,1,66,first,,,,,,,,,,,,,,,,,,,,,,,,,,,,,,,,,,,,,,,,,,,,,,,,,,,,,,,,,,,,,,,,,,
,,,,,,61731cad136d641e024c3d53,62bbfaeca10048a50e88508d,2022-06-29_09h11.02.739,Colour_Asymmetry_Pilot,2022.1.3,Win32,55.98477214,62bbe60bf3d75ef465d3e404,,,,,,,,,,,,,,,,,,,,twoone,,-4,0.5443,,,,,,,,,,,,,,,,,,,,,,,,,,,,,,,,,,"[-0.050999999999999934,-0.6706000000000001,-0.804]","[-0.6942,-0.7648,-0.12959999999999994]",-45,77,1,0,0,response7disk,-4,8,1,0,0,rectangle,-4,8,1,0,0,,3,0.0029,0,-4,8,1,0,0,0,2,2,93,1,12,second,,,,,,,,,,,,,,,,,,,,,,,,,,,,,,,,,,,,,,,,,,,,,,,,,,,,,,,,,,,,,,,,,,
,,,,,,61731cad136d641e024c3d53,62bbfaeca10048a50e88508d,2022-06-29_09h11.02.739,Colour_Asymmetry_Pilot,2022.1.3,Win32,55.98477214,62bbe60bf3d75ef465d3e404,,,,,,,,,,,,,,,,,,,,twofour,,4,6.8699,,,,,,,,,,,,,,,,,,,,,,,,,,,,,,,,,,"[-0.4902000000000001,0.2704,-0.45899999999999996]","[-0.26280000000000003,-0.2158,-0.3256]",31,73,1,0,0,response1disk,16,-2,1,0,0,rectangle,16,-2,1,0,0,,2,0.0029,0,16,-2,1,0,0,0,3,3,115,1,34,second,,,,,,,,,,,,,,,,,,,,,,,,,,,,,,,,,,,,,,,,,,,,,,,,,,,,,,,,,,,,,,,,,,
,,,,,,61731cad136d641e024c3d53,62bbfaeca10048a50e88508d,2022-06-29_09h11.02.739,Colour_Asymmetry_Pilot,2022.1.3,Win32,55.98477214,62bbe60bf3d75ef465d3e404,,,,,,,,,,,,,,,,,,,,twofour,,-4,0.5149,,,,,,,,,,,,,,,,,,,,,,,,,,,,,,,,,,"[-0.20799999999999996,-0.655,-0.01980000000000004]","[0.9842,0.7409999999999999,-0.6628000000000001]",-28,94,1,0,0,response7disk,12,8,1,0,0,rectangle,12,8,1,0,0,,3,0.0075,0,12,8,1,0,0,0,4,4,152,1,71,second,,,,,,,,,,,,,,,,,,,,,,,,,,,,,,,,,,,,,,,,,,,,,,,,,,,,,,,,,,,,,,,,,,
,,,,,,61731cad136d641e024c3d53,62bbfaeca10048a50e88508d,2022-06-29_09h11.02.739,Colour_Asymmetry_Pilot,2022.1.3,Win32,55.98477214,62bbe60bf3d75ef465d3e404,,,,,,,,,,,,,,,,,,,,twofour,,-4,0.4805,,,,,,,,,,,,,,,,,,,,,,,,,,,,,,,,,,"[0.9763999999999999,0.8588,-0.05900000000000005]","[-0.9688,-0.4902000000000001,-0.12159999999999993]",-32,90,1,0,0,response7disk,11,2,1,0,0,rectangle,11,2,1,0,0,,3,0.0006,0,11,2,1,0,0,0,5,5,22,1,22,first,,,,,,,,,,,,,,,,,,,,,,,,,,,,,,,,,,,,,,,,,,,,,,,,,,,,,,,,,,,,,,,,,,
,,,,,,61731cad136d641e024c3d53,62bbfaeca10048a50e88508d,2022-06-29_09h11.02.739,Colour_Asymmetry_Pilot,2022.1.3,Win32,55.98477214,62bbe60bf3d75ef465d3e404,,,,,,,,,,,,,,,,,,,,twofour,,-4,5.6482,,,,,,,,,,,,,,,,,,,,,,,,,,,,,,,,,,"[-0.24719999999999998,0.5213999999999999,-0.12959999999999994]","[-0.07459999999999989,0.12139999999999995,-0.9922]",-36,81,1,0,0,response7disk,-7,1,1,0,0,rectangle,-7,1,1,0,0,,2,0.0027,0,-7,1,1,0,0,0,6,6,27,1,27,first,,,,,,,,,,,,,,,,,,,,,,,,,,,,,,,,,,,,,,,,,,,,,,,,,,,,,,,,,,,,,,,,,,
,,,,,,61731cad136d641e024c3d53,62bbfaeca10048a50e88508d,2022-06-29_09h11.02.739,Colour_Asymmetry_Pilot,2022.1.3,Win32,55.98477214,62bbe60bf3d75ef465d3e404,,,,,,,,,,,,,,,,,,,,onetwo,,-4,0.9019,,,,,,,,,,,,,,,,,,,,,,,,,,,,,,,,,,"[-0.9138,-0.5296000000000001,-0.5529999999999999]","[-0.09019999999999995,0.44300000000000006,0.5371999999999999]",-31,59,1,0,0,response7disk,-3,7,1,0,0,rectangle,-3,7,1,0,0,,1,0.0037,0,-3,7,1,0,0,0,7,7,129,1,48,second,,,,,,,,,,,,,,,,,,,,,,,,,,,,,,,,,,,,,,,,,,,,,,,,,,,,,,,,,,,,,,,,,,
,,,,,,61731cad136d641e024c3d53,62bbfaeca10048a50e88508d,2022-06-29_09h11.02.739,Colour_Asymmetry_Pilot,2022.1.3,Win32,55.98477214,62bbe60bf3d75ef465d3e404,,,,,,,,,,,,,,,,,,,,twofour,,-4,0.6853,,,,,,,,,,,,,,,,,,,,,,,,,,,,,,,,,,"[-0.24719999999999998,0.5213999999999999,-0.12959999999999994]","[-0.26280000000000003,-0.2158,-0.3256]",-25,58,1,0,0,response7disk,2,3,1,0,0,rectangle,2,3,1,0,0,,3,0.0027,0,2,3,1,0,0,0,8,8,53,1,53,first,,,,,,,,,,,,,,,,,,,,,,,,,,,,,,,,,,,,,,,,,,,,,,,,,,,,,,,,,,,,,,,,,,
,,,,,,61731cad136d641e024c3d53,62bbfaeca10048a50e88508d,2022-06-29_09h11.02.739,Colour_Asymmetry_Pilot,2022.1.3,Win32,55.98477214,62bbe60bf3d75ef465d3e404,,,,,,,,,,,,,,,,,,,,fourtwo,,-4,0.4329,,,,,,,,,,,,,,,,,,,,,,,,,,,,,,,,,,"[0.19199999999999995,0.18419999999999992,0.5136000000000001]","[0.30180000000000007,-0.7884,-0.9844]",-31,52,1,0,0,response7disk,1,4,1,0,0,rectangle,108,49,1,0,0,3,3,7.7285,1,9,-2,1,0,0,0,9,9,161,1,80,second,response1disk_3,rectangle,,,,,,,,,,,,,,,,,,,,,,,,,,,,,,,,,,,,,,,,,,,,,,,,,,,,,,,,,,,,,,,,
,,,,,,61731cad136d641e024c3d53,62bbfaeca10048a50e88508d,2022-06-29_09h11.02.739,Colour_Asymmetry_Pilot,2022.1.3,Win32,55.98477214,62bbe60bf3d75ef465d3e404,,,,,,,,,,,,,,,,,,,,threeone,,-4,1.5474,,,,,,,,,,,,,,,,,,,,,,,,,,,,,,,,,,"[-0.48240000000000005,0.3175999999999999,0.2156]","[0.7646000000000002,0.07440000000000002,0.2704]",-57,86,1,0,0,response7disk,8,1,1,0,0,rectangle,8,1,1,0,0,3,2,0.0029,0,8,1,1,0,0,0,10,10,150,1,69,second,,,,,,,,,,,,,,,,,,,,,,,,,,,,,,,,,,,,,,,,,,,,,,,,,,,,,,,,,,,,,,,,,,
,,,,,,61731cad136d641e024c3d53,62bbfaeca10048a50e88508d,2022-06-29_09h11.02.739,Colour_Asymmetry_Pilot,2022.1.3,Win32,55.98477214,62bbe60bf3d75ef465d3e404,,,,,,,,,,,,,,,,,,,,onethree,,-4,0.6057,,,,,,,,,,,,,,,,,,,,,,,,,,,,,,,,,,"[-0.30200000000000005,0.14500000000000002,0.2784]","[0.9763999999999999,-0.1137999999999999,-0.6314]",-32,86,1,0,0,response7disk,2,7,1,0,0,rectangle,2,7,1,0,0,3,1,0.0025,0,2,7,1,0,0,0,11,11,121,1,40,second,,,,,,,,,,,,,,,,,,,,,,,,,,,,,,,,,,,,,,,,,,,,,,,,,,,,,,,,,,,,,,,,,,
,,,,,,61731cad136d641e024c3d53,62bbfaeca10048a50e88508d,2022-06-29_09h11.02.739,Colour_Asymmetry_Pilot,2022.1.3,Win32,55.98477214,62bbe60bf3d75ef465d3e404,,,,,,,,,,,,,,,,,,,,onetwo,,-4,0.9169,,,,,,,,,,,,,,,,,,,,,,,,,,,,,,,,,,"[0.18419999999999992,-0.4276,-0.404]","[0.4196,0.4665999999999999,0.3568]",-38,78,1,0,0,response7disk,7,3,1,0,0,rectangle,7,3,1,0,0,3,1,0.0026,0,7,3,1,0,0,0,12,12,63,1,63,first,,,,,,,,,,,,,,,,,,,,,,,,,,,,,,,,,,,,,,,,,,,,,,,,,,,,,,,,,,,,,,,,,,
,,,,,,61731cad136d641e024c3d53,62bbfaeca10048a50e88508d,2022-06-29_09h11.02.739,Colour_Asymmetry_Pilot,2022.1.3,Win32,55.98477214,62bbe60bf3d75ef465d3e404,,,,,,,,,,,,,,,,,,,,threefour,,-4,0.6983,,,,,,,,,,,,,,,,,,,,,,,,,,,,,,,,,,"[-0.26280000000000003,-0.2158,-0.3256]","[-0.24719999999999998,0.5213999999999999,-0.12959999999999994]",-34,62,1,0,0,response7disk,-5,8,1,0,0,rectangle,-5,8,1,0,0,3,3,0.0025,0,-5,8,1,0,0,0,13,13,134,1,53,second,,,,,,,,,,,,,,,,,,,,,,,,,,,,,,,,,,,,,,,,,,,,,,,,,,,,,,,,,,,,,,,,,,
,,,,,,61731cad136d641e024c3d53,62bbfaeca10048a50e88508d,2022-06-29_09h11.02.739,Colour_Asymmetry_Pilot,2022.1.3,Win32,55.98477214,62bbe60bf3d75ef465d3e404,,,,,,,,,,,,,,,,,,,,twoone,,-4,0.4652,,,,,,,,,,,,,,,,,,,,,,,,,,,,,,,,,,"[-0.4276,0.0038000000000000256,-0.3256]","[0.796,0.2156,-0.27859999999999996]",-31,73,1,0,0,response7disk,3,6,1,0,0,rectangle,3,6,1,0,0,3,3,0.0005,0,3,6,1,0,0,0,14,14,131,1,50,second,,,,,,,,,,,,,,,,,,,,,,,,,,,,,,,,,,,,,,,,,,,,,,,,,,,,,,,,,,,,,,,,,,
,,,,,,61731cad136d641e024c3d53,62bbfaeca10048a50e88508d,2022-06-29_09h11.02.739,Colour_Asymmetry_Pilot,2022.1.3,Win32,55.98477214,62bbe60bf3d75ef465d3e404,,,,,,,,,,,,,,,,,,,,threeone,,-4,0.6346,,,,,,,,,,,,,,,,,,,,,,,,,,,,,,,,,,"[-0.5452,-0.608,0.2470000000000001]","[0.3802000000000001,0.19199999999999995,-0.6394]",-25,67,1,0,0,response7disk,-6,10,1,0,0,rectangle,-6,10,1,0,0,3,3,0.0006,0,-6,10,1,0,0,0,15,15,141,1,60,second,,,,,,,,,,,,,,,,,,,,,,,,,,,,,,,,,,,,,,,,,,,,,,,,,,,,,,,,,,,,,,,,,,
,,,,,,61731cad136d641e024c3d53,62bbfaeca10048a50e88508d,2022-06-29_09h11.02.739,Colour_Asymmetry_Pilot,2022.1.3,Win32,55.98477214,62bbe60bf3d75ef465d3e404,,,,,,,,,,,,,,,,,,,,onetwo,,-4,0.565,,,,,,,,,,,,,,,,,,,,,,,,,,,,,,,,,,"[0.8115999999999999,-0.0040000000000000036,-0.09819999999999995]","[-0.48240000000000005,0.3175999999999999,0.2156]",-47,75,1,0,0,response7disk,-8,7,1,0,0,rectangle,-8,7,1,0,0,3,1,0.0038,0,-8,7,1,0,0,0,16,16,4,1,4,first,,,,,,,,,,,,,,,,,,,,,,,,,,,,,,,,,,,,,,,,,,,,,,,,,,,,,,,,,,,,,,,,,,
,,,,,,61731cad136d641e024c3d53,62bbfaeca10048a50e88508d,2022-06-29_09h11.02.739,Colour_Asymmetry_Pilot,2022.1.3,Win32,55.98477214,62bbe60bf3d75ef465d3e404,,,,,,,,,,,,,,,,,,,,onethree,,-4,0.4517,,,,,,,,,,,,,,,,,,,,,,,,,,,,,,,,,,"[-0.10599999999999998,-0.10599999999999998,0.5841999999999998]","[0.34099999999999997,0.5841999999999998,-0.9844]",-38,89,1,0,0,response7disk,-5,0,1,0,0,rectangle,-5,0,1,0,0,3,1,0.0005,0,-5,0,1,0,0,0,17,17,117,1,36,second,,,,,,,,,,,,,,,,,,,,,,,,,,,,,,,,,,,,,,,,,,,,,,,,,,,,,,,,,,,,,,,,,,
,,,,,,61731cad136d641e024c3d53,62bbfaeca10048a50e88508d,2022-06-29_09h11.02.739,Colour_Asymmetry_Pilot,2022.1.3,Win32,55.98477214,62bbe60bf3d75ef465d3e404,,,,,,,,,,,,,,,,,,,,twoone,,-4,0.8956,,,,,,,,,,,,,,,,,,,,,,,,,,,,,,,,,,"[-0.2942,-0.24719999999999998,-0.357]","[-0.6,0.16860000000000008,0.44300000000000006]",-34,77,1,0,0,response7disk,-6,8,1,0,0,rectangle,-6,8,1,0,0,3,2,0.0027,0,-6,8,1,0,0,0,18,18,151,1,70,second,,,,,,,,,,,,,,,,,,,,,,,,,,,,,,,,,,,,,,,,,,,,,,,,,,,,,,,,,,,,,,,,,,
,,,,,,61731cad136d641e024c3d53,62bbfaeca10048a50e88508d,2022-06-29_09h11.02.739,Colour_Asymmetry_Pilot,2022.1.3,Win32,55.98477214,62bbe60bf3d75ef465d3e404,,,,,,,,,,,,,,,,,,,,onetwo,,-4,0.5488,,,,,,,,,,,,,,,,,,,,,,,,,,,,,,,,,,"[0.9372,0.20779999999999998,0.2704]","[0.7176,-0.906,-0.6864]",-43,78,1,0,0,response7disk,-6,7,1,0,0,rectangle,-6,7,1,0,0,3,1,0.0033,0,-6,7,1,0,0,0,19,19,155,1,74,second,,,,,,,,,,,,,,,,,,,,,,,,,,,,,,,,,,,,,,,,,,,,,,,,,,,,,,,,,,,,,,,,,,
,,,,,,61731cad136d641e024c3d53,62bbfaeca10048a50e88508d,2022-06-29_09h11.02.739,Colour_Asymmetry_Pilot,2022.1.3,Win32,55.98477214,62bbe60bf3d75ef465d3e404,,,,,,,,,,,,,,,,,,,,twoone,,4,4.8499,,,,,,,,,,,,,,,,,,,,,,,,,,,,,,,,,,"[0.3881999999999999,-0.23939999999999995,-0.05040000000000011]","[0.7802,-0.23140000000000005,-0.20799999999999996]",33,70,1,0,0,response1disk,4,-8,1,0,0,rectangle,4,-8,1,0,0,3,2,0.0038,0,4,-8,1,0,0,0,20,20,120,1,39,second,,,,,,,,,,,,,,,,,,,,,,,,,,,,,,,,,,,,,,,,,,,,,,,,,,,,,,,,,,,,,,,,,,
