trials.thisRepN,trials.thisTrialN,trials.thisN,trials.thisIndex,trials.ran,Colourcodes,participant,session,date,expName,psychopyVersion,OS,frameRate,study_id,trials_4.thisRepN,trials_4.thisTrialN,trials_4.thisN,trials_4.thisIndex,trials_4.ran,StimulusPos,key_resp.keys,key_resp.rt,key_resp_2.keys,key_resp_2.rt,key_resp_15.keys,key_resp_15.rt,key_resp_17.keys,key_resp_17.rt,key_resp_9.keys,key_resp_9.rt,key_resp_10.keys,key_resp_10.rt,Circle1_col,Ecc,Circle2_col,similarity,response_time,mouse_5.x,mouse_5.y,mouse_5.leftButton,mouse_5.midButton,mouse_5.rightButton,mouse_5.clicked_name,mouse_10.x,mouse_10.y,mouse_10.leftButton,mouse_10.midButton,mouse_10.rightButton,mouse_10.clicked_name,mouse_7.x,mouse_7.y,mouse_7.leftButton,mouse_7.midButton,mouse_7.rightButton,catchnumberprac,mouse_6.x,mouse_6.y,mouse_6.leftButton,mouse_6.midButton,mouse_6.rightButton,duringprac.thisRepN,duringprac.thisTrialN,duringprac.thisN,duringprac.thisIndex,duringprac.ran,mouse_7.clicked_name,catchprac,mouse_6.clicked_name,key_resp_22.keys,key_resp_22.rt,Circle1_colour,Circle2_colour,mouse.x,mouse.y,mouse.leftButton,mouse.midButton,mouse.rightButton,mouse.clicked_name,mouse_2.x,mouse_2.y,mouse_2.leftButton,mouse_2.midButton,mouse_2.rightButton,mouse_2.clicked_name,mouse_3.x,mouse_3.y,mouse_3.leftButton,mouse_3.midButton,mouse_3.rightButton,catchresponse,catchnumber,response_time_catch,Catch,mouse_11.x,mouse_11.y,mouse_11.leftButton,mouse_11.midButton,mouse_11.rightButton,trials_2.thisRepN,trials_2.thisTrialN,trials_2.thisN,trials_2.thisIndex,trials_2.ran,Colourpair,Temporder,mouse_3.clicked_name,mouse_11.clicked_name,trials_3.thisRepN,trials_3.thisTrialN,trials_3.thisN,trials_3.thisIndex,trials_3.ran,key_resp_instr_Ishi.keys,key_resp_instr_Ishi.rt,Ishi_trial_keyresp.keys,Ishi_trial_keyresp.rt,Ishi_textbox.text,Ishi_loop.thisRepN,Ishi_loop.thisTrialN,Ishi_loop.thisN,Ishi_loop.thisIndex,Ishi_loop.ran,imageaddress,textbox.text,mouse_4.x,mouse_4.y,mouse_4.leftButton,mouse_4.midButton,mouse_4.rightButton,mouse_4.clicked_name,textbox_2.text,mouse_8.x,mouse_8.y,mouse_8.leftButton,mouse_8.midButton,mouse_8.rightButton,mouse_8.clicked_name,textbox_3.text,mouse_9.x,mouse_9.y,mouse_9.leftButton,mouse_9.midButton,mouse_9.rightButton,mouse_9.clicked_name,textbox_4.text,mouse_12.x,mouse_12.y,mouse_12.leftButton,mouse_12.midButton,mouse_12.rightButton,mouse_12.clicked_name,textbox_5.text,mouse_13.x,mouse_13.y,mouse_13.leftButton,mouse_13.midButton,mouse_13.rightButton,mouse_13.clicked_name,textbox_6.text,mouse_14.x,mouse_14.y,mouse_14.leftButton,mouse_14.midButton,mouse_14.rightButton,mouse_14.clicked_name,textbox_7.text,mouse_15.x,mouse_15.y,mouse_15.leftButton,mouse_15.midButton,mouse_15.rightButton
0,0,0,36,1,,6108e69e4540a09552a79cc1,62bbfa43364227246705e3ed,2022-06-29_10h08.09.273,Colour_Asymmetry_Pilot,2022.1.3,Win32,59.88741167,62bbe60bf3d75ef465d3e404,,,,,,,,,,,,,,,,,,,,,,,,,,,,,,,,,,,,,,,,,,,,,,,,,,,,,,,,,,,,,,,,,,,,,,,,,,,,,,,,,,,,,,,,,,,,,,,,,,,,,,,,,,,,,,,,,,,,,,,,,,,,,,,,,,,,,,,,,,,,,,,,,,,,,,,,,,,,,
0,1,1,44,1,,6108e69e4540a09552a79cc1,62bbfa43364227246705e3ed,2022-06-29_10h08.09.273,Colour_Asymmetry_Pilot,2022.1.3,Win32,59.88741167,62bbe60bf3d75ef465d3e404,,,,,,,,,,,,,,,,,,,,,,,,,,,,,,,,,,,,,,,,,,,,,,,,,,,,,,,,,,,,,,,,,,,,,,,,,,,,,,,,,,,,,,,,,,,,,,,,,,,,,,,,,,,,,,,,,,,,,,,,,,,,,,,,,,,,,,,,,,,,,,,,,,,,,,,,,,,,,
0,2,2,32,1,,6108e69e4540a09552a79cc1,62bbfa43364227246705e3ed,2022-06-29_10h08.09.273,Colour_Asymmetry_Pilot,2022.1.3,Win32,59.88741167,62bbe60bf3d75ef465d3e404,,,,,,,,,,,,,,,,,,,,,,,,,,,,,,,,,,,,,,,,,,,,,,,,,,,,,,,,,,,,,,,,,,,,,,,,,,,,,,,,,,,,,,,,,,,,,,,,,,,,,,,,,,,,,,,,,,,,,,,,,,,,,,,,,,,,,,,,,,,,,,,,,,,,,,,,,,,,,
0,3,3,48,1,,6108e69e4540a09552a79cc1,62bbfa43364227246705e3ed,2022-06-29_10h08.09.273,Colour_Asymmetry_Pilot,2022.1.3,Win32,59.88741167,62bbe60bf3d75ef465d3e404,,,,,,,,,,,,,,,,,,,,,,,,,,,,,,,,,,,,,,,,,,,,,,,,,,,,,,,,,,,,,,,,,,,,,,,,,,,,,,,,,,,,,,,,,,,,,,,,,,,,,,,,,,,,,,,,,,,,,,,,,,,,,,,,,,,,,,,,,,,,,,,,,,,,,,,,,,,,,
0,4,4,5,1,,6108e69e4540a09552a79cc1,62bbfa43364227246705e3ed,2022-06-29_10h08.09.273,Colour_Asymmetry_Pilot,2022.1.3,Win32,59.88741167,62bbe60bf3d75ef465d3e404,,,,,,,,,,,,,,,,,,,,,,,,,,,,,,,,,,,,,,,,,,,,,,,,,,,,,,,,,,,,,,,,,,,,,,,,,,,,,,,,,,,,,,,,,,,,,,,,,,,,,,,,,,,,,,,,,,,,,,,,,,,,,,,,,,,,,,,,,,,,,,,,,,,,,,,,,,,,,
0,5,5,74,1,,6108e69e4540a09552a79cc1,62bbfa43364227246705e3ed,2022-06-29_10h08.09.273,Colour_Asymmetry_Pilot,2022.1.3,Win32,59.88741167,62bbe60bf3d75ef465d3e404,,,,,,,,,,,,,,,,,,,,,,,,,,,,,,,,,,,,,,,,,,,,,,,,,,,,,,,,,,,,,,,,,,,,,,,,,,,,,,,,,,,,,,,,,,,,,,,,,,,,,,,,,,,,,,,,,,,,,,,,,,,,,,,,,,,,,,,,,,,,,,,,,,,,,,,,,,,,,
0,6,6,81,1,,6108e69e4540a09552a79cc1,62bbfa43364227246705e3ed,2022-06-29_10h08.09.273,Colour_Asymmetry_Pilot,2022.1.3,Win32,59.88741167,62bbe60bf3d75ef465d3e404,,,,,,,,,,,,,,,,,,,,,,,,,,,,,,,,,,,,,,,,,,,,,,,,,,,,,,,,,,,,,,,,,,,,,,,,,,,,,,,,,,,,,,,,,,,,,,,,,,,,,,,,,,,,,,,,,,,,,,,,,,,,,,,,,,,,,,,,,,,,,,,,,,,,,,,,,,,,,
0,7,7,30,1,,6108e69e4540a09552a79cc1,62bbfa43364227246705e3ed,2022-06-29_10h08.09.273,Colour_Asymmetry_Pilot,2022.1.3,Win32,59.88741167,62bbe60bf3d75ef465d3e404,,,,,,,,,,,,,,,,,,,,,,,,,,,,,,,,,,,,,,,,,,,,,,,,,,,,,,,,,,,,,,,,,,,,,,,,,,,,,,,,,,,,,,,,,,,,,,,,,,,,,,,,,,,,,,,,,,,,,,,,,,,,,,,,,,,,,,,,,,,,,,,,,,,,,,,,,,,,,
0,8,8,83,1,,6108e69e4540a09552a79cc1,62bbfa43364227246705e3ed,2022-06-29_10h08.09.273,Colour_Asymmetry_Pilot,2022.1.3,Win32,59.88741167,62bbe60bf3d75ef465d3e404,,,,,,,,,,,,,,,,,,,,,,,,,,,,,,,,,,,,,,,,,,,,,,,,,,,,,,,,,,,,,,,,,,,,,,,,,,,,,,,,,,,,,,,,,,,,,,,,,,,,,,,,,,,,,,,,,,,,,,,,,,,,,,,,,,,,,,,,,,,,,,,,,,,,,,,,,,,,,
0,9,9,6,1,,6108e69e4540a09552a79cc1,62bbfa43364227246705e3ed,2022-06-29_10h08.09.273,Colour_Asymmetry_Pilot,2022.1.3,Win32,59.88741167,62bbe60bf3d75ef465d3e404,,,,,,,,,,,,,,,,,,,,,,,,,,,,,,,,,,,,,,,,,,,,,,,,,,,,,,,,,,,,,,,,,,,,,,,,,,,,,,,,,,,,,,,,,,,,,,,,,,,,,,,,,,,,,,,,,,,,,,,,,,,,,,,,,,,,,,,,,,,,,,,,,,,,,,,,,,,,,
0,10,10,23,1,,6108e69e4540a09552a79cc1,62bbfa43364227246705e3ed,2022-06-29_10h08.09.273,Colour_Asymmetry_Pilot,2022.1.3,Win32,59.88741167,62bbe60bf3d75ef465d3e404,,,,,,,,,,,,,,,,,,,,,,,,,,,,,,,,,,,,,,,,,,,,,,,,,,,,,,,,,,,,,,,,,,,,,,,,,,,,,,,,,,,,,,,,,,,,,,,,,,,,,,,,,,,,,,,,,,,,,,,,,,,,,,,,,,,,,,,,,,,,,,,,,,,,,,,,,,,,,
0,11,11,12,1,,6108e69e4540a09552a79cc1,62bbfa43364227246705e3ed,2022-06-29_10h08.09.273,Colour_Asymmetry_Pilot,2022.1.3,Win32,59.88741167,62bbe60bf3d75ef465d3e404,,,,,,,,,,,,,,,,,,,,,,,,,,,,,,,,,,,,,,,,,,,,,,,,,,,,,,,,,,,,,,,,,,,,,,,,,,,,,,,,,,,,,,,,,,,,,,,,,,,,,,,,,,,,,,,,,,,,,,,,,,,,,,,,,,,,,,,,,,,,,,,,,,,,,,,,,,,,,
0,12,12,42,1,,6108e69e4540a09552a79cc1,62bbfa43364227246705e3ed,2022-06-29_10h08.09.273,Colour_Asymmetry_Pilot,2022.1.3,Win32,59.88741167,62bbe60bf3d75ef465d3e404,,,,,,,,,,,,,,,,,,,,,,,,,,,,,,,,,,,,,,,,,,,,,,,,,,,,,,,,,,,,,,,,,,,,,,,,,,,,,,,,,,,,,,,,,,,,,,,,,,,,,,,,,,,,,,,,,,,,,,,,,,,,,,,,,,,,,,,,,,,,,,,,,,,,,,,,,,,,,
0,13,13,33,1,,6108e69e4540a09552a79cc1,62bbfa43364227246705e3ed,2022-06-29_10h08.09.273,Colour_Asymmetry_Pilot,2022.1.3,Win32,59.88741167,62bbe60bf3d75ef465d3e404,,,,,,,,,,,,,,,,,,,,,,,,,,,,,,,,,,,,,,,,,,,,,,,,,,,,,,,,,,,,,,,,,,,,,,,,,,,,,,,,,,,,,,,,,,,,,,,,,,,,,,,,,,,,,,,,,,,,,,,,,,,,,,,,,,,,,,,,,,,,,,,,,,,,,,,,,,,,,
0,14,14,52,1,,6108e69e4540a09552a79cc1,62bbfa43364227246705e3ed,2022-06-29_10h08.09.273,Colour_Asymmetry_Pilot,2022.1.3,Win32,59.88741167,62bbe60bf3d75ef465d3e404,,,,,,,,,,,,,,,,,,,,,,,,,,,,,,,,,,,,,,,,,,,,,,,,,,,,,,,,,,,,,,,,,,,,,,,,,,,,,,,,,,,,,,,,,,,,,,,,,,,,,,,,,,,,,,,,,,,,,,,,,,,,,,,,,,,,,,,,,,,,,,,,,,,,,,,,,,,,,
0,15,15,53,1,,6108e69e4540a09552a79cc1,62bbfa43364227246705e3ed,2022-06-29_10h08.09.273,Colour_Asymmetry_Pilot,2022.1.3,Win32,59.88741167,62bbe60bf3d75ef465d3e404,,,,,,,,,,,,,,,,,,,,,,,,,,,,,,,,,,,,,,,,,,,,,,,,,,,,,,,,,,,,,,,,,,,,,,,,,,,,,,,,,,,,,,,,,,,,,,,,,,,,,,,,,,,,,,,,,,,,,,,,,,,,,,,,,,,,,,,,,,,,,,,,,,,,,,,,,,,,,
0,16,16,9,1,,6108e69e4540a09552a79cc1,62bbfa43364227246705e3ed,2022-06-29_10h08.09.273,Colour_Asymmetry_Pilot,2022.1.3,Win32,59.88741167,62bbe60bf3d75ef465d3e404,,,,,,,,,,,,,,,,,,,,,,,,,,,,,,,,,,,,,,,,,,,,,,,,,,,,,,,,,,,,,,,,,,,,,,,,,,,,,,,,,,,,,,,,,,,,,,,,,,,,,,,,,,,,,,,,,,,,,,,,,,,,,,,,,,,,,,,,,,,,,,,,,,,,,,,,,,,,,
0,17,17,77,1,,6108e69e4540a09552a79cc1,62bbfa43364227246705e3ed,2022-06-29_10h08.09.273,Colour_Asymmetry_Pilot,2022.1.3,Win32,59.88741167,62bbe60bf3d75ef465d3e404,,,,,,,,,,,,,,,,,,,,,,,,,,,,,,,,,,,,,,,,,,,,,,,,,,,,,,,,,,,,,,,,,,,,,,,,,,,,,,,,,,,,,,,,,,,,,,,,,,,,,,,,,,,,,,,,,,,,,,,,,,,,,,,,,,,,,,,,,,,,,,,,,,,,,,,,,,,,,
0,18,18,75,1,,6108e69e4540a09552a79cc1,62bbfa43364227246705e3ed,2022-06-29_10h08.09.273,Colour_Asymmetry_Pilot,2022.1.3,Win32,59.88741167,62bbe60bf3d75ef465d3e404,,,,,,,,,,,,,,,,,,,,,,,,,,,,,,,,,,,,,,,,,,,,,,,,,,,,,,,,,,,,,,,,,,,,,,,,,,,,,,,,,,,,,,,,,,,,,,,,,,,,,,,,,,,,,,,,,,,,,,,,,,,,,,,,,,,,,,,,,,,,,,,,,,,,,,,,,,,,,
0,19,19,56,1,,6108e69e4540a09552a79cc1,62bbfa43364227246705e3ed,2022-06-29_10h08.09.273,Colour_Asymmetry_Pilot,2022.1.3,Win32,59.88741167,62bbe60bf3d75ef465d3e404,,,,,,,,,,,,,,,,,,,,,,,,,,,,,,,,,,,,,,,,,,,,,,,,,,,,,,,,,,,,,,,,,,,,,,,,,,,,,,,,,,,,,,,,,,,,,,,,,,,,,,,,,,,,,,,,,,,,,,,,,,,,,,,,,,,,,,,,,,,,,,,,,,,,,,,,,,,,,
0,20,20,40,1,,6108e69e4540a09552a79cc1,62bbfa43364227246705e3ed,2022-06-29_10h08.09.273,Colour_Asymmetry_Pilot,2022.1.3,Win32,59.88741167,62bbe60bf3d75ef465d3e404,,,,,,,,,,,,,,,,,,,,,,,,,,,,,,,,,,,,,,,,,,,,,,,,,,,,,,,,,,,,,,,,,,,,,,,,,,,,,,,,,,,,,,,,,,,,,,,,,,,,,,,,,,,,,,,,,,,,,,,,,,,,,,,,,,,,,,,,,,,,,,,,,,,,,,,,,,,,,
0,21,21,49,1,,6108e69e4540a09552a79cc1,62bbfa43364227246705e3ed,2022-06-29_10h08.09.273,Colour_Asymmetry_Pilot,2022.1.3,Win32,59.88741167,62bbe60bf3d75ef465d3e404,,,,,,,,,,,,,,,,,,,,,,,,,,,,,,,,,,,,,,,,,,,,,,,,,,,,,,,,,,,,,,,,,,,,,,,,,,,,,,,,,,,,,,,,,,,,,,,,,,,,,,,,,,,,,,,,,,,,,,,,,,,,,,,,,,,,,,,,,,,,,,,,,,,,,,,,,,,,,
0,22,22,78,1,,6108e69e4540a09552a79cc1,62bbfa43364227246705e3ed,2022-06-29_10h08.09.273,Colour_Asymmetry_Pilot,2022.1.3,Win32,59.88741167,62bbe60bf3d75ef465d3e404,,,,,,,,,,,,,,,,,,,,,,,,,,,,,,,,,,,,,,,,,,,,,,,,,,,,,,,,,,,,,,,,,,,,,,,,,,,,,,,,,,,,,,,,,,,,,,,,,,,,,,,,,,,,,,,,,,,,,,,,,,,,,,,,,,,,,,,,,,,,,,,,,,,,,,,,,,,,,
0,23,23,20,1,,6108e69e4540a09552a79cc1,62bbfa43364227246705e3ed,2022-06-29_10h08.09.273,Colour_Asymmetry_Pilot,2022.1.3,Win32,59.88741167,62bbe60bf3d75ef465d3e404,,,,,,,,,,,,,,,,,,,,,,,,,,,,,,,,,,,,,,,,,,,,,,,,,,,,,,,,,,,,,,,,,,,,,,,,,,,,,,,,,,,,,,,,,,,,,,,,,,,,,,,,,,,,,,,,,,,,,,,,,,,,,,,,,,,,,,,,,,,,,,,,,,,,,,,,,,,,,
0,24,24,91,1,,6108e69e4540a09552a79cc1,62bbfa43364227246705e3ed,2022-06-29_10h08.09.273,Colour_Asymmetry_Pilot,2022.1.3,Win32,59.88741167,62bbe60bf3d75ef465d3e404,,,,,,,,,,,,,,,,,,,,,,,,,,,,,,,,,,,,,,,,,,,,,,,,,,,,,,,,,,,,,,,,,,,,,,,,,,,,,,,,,,,,,,,,,,,,,,,,,,,,,,,,,,,,,,,,,,,,,,,,,,,,,,,,,,,,,,,,,,,,,,,,,,,,,,,,,,,,,
0,25,25,26,1,,6108e69e4540a09552a79cc1,62bbfa43364227246705e3ed,2022-06-29_10h08.09.273,Colour_Asymmetry_Pilot,2022.1.3,Win32,59.88741167,62bbe60bf3d75ef465d3e404,,,,,,,,,,,,,,,,,,,,,,,,,,,,,,,,,,,,,,,,,,,,,,,,,,,,,,,,,,,,,,,,,,,,,,,,,,,,,,,,,,,,,,,,,,,,,,,,,,,,,,,,,,,,,,,,,,,,,,,,,,,,,,,,,,,,,,,,,,,,,,,,,,,,,,,,,,,,,
0,26,26,68,1,,6108e69e4540a09552a79cc1,62bbfa43364227246705e3ed,2022-06-29_10h08.09.273,Colour_Asymmetry_Pilot,2022.1.3,Win32,59.88741167,62bbe60bf3d75ef465d3e404,,,,,,,,,,,,,,,,,,,,,,,,,,,,,,,,,,,,,,,,,,,,,,,,,,,,,,,,,,,,,,,,,,,,,,,,,,,,,,,,,,,,,,,,,,,,,,,,,,,,,,,,,,,,,,,,,,,,,,,,,,,,,,,,,,,,,,,,,,,,,,,,,,,,,,,,,,,,,
0,27,27,79,1,,6108e69e4540a09552a79cc1,62bbfa43364227246705e3ed,2022-06-29_10h08.09.273,Colour_Asymmetry_Pilot,2022.1.3,Win32,59.88741167,62bbe60bf3d75ef465d3e404,,,,,,,,,,,,,,,,,,,,,,,,,,,,,,,,,,,,,,,,,,,,,,,,,,,,,,,,,,,,,,,,,,,,,,,,,,,,,,,,,,,,,,,,,,,,,,,,,,,,,,,,,,,,,,,,,,,,,,,,,,,,,,,,,,,,,,,,,,,,,,,,,,,,,,,,,,,,,
0,28,28,89,1,,6108e69e4540a09552a79cc1,62bbfa43364227246705e3ed,2022-06-29_10h08.09.273,Colour_Asymmetry_Pilot,2022.1.3,Win32,59.88741167,62bbe60bf3d75ef465d3e404,,,,,,,,,,,,,,,,,,,,,,,,,,,,,,,,,,,,,,,,,,,,,,,,,,,,,,,,,,,,,,,,,,,,,,,,,,,,,,,,,,,,,,,,,,,,,,,,,,,,,,,,,,,,,,,,,,,,,,,,,,,,,,,,,,,,,,,,,,,,,,,,,,,,,,,,,,,,,
0,29,29,64,1,,6108e69e4540a09552a79cc1,62bbfa43364227246705e3ed,2022-06-29_10h08.09.273,Colour_Asymmetry_Pilot,2022.1.3,Win32,59.88741167,62bbe60bf3d75ef465d3e404,,,,,,,,,,,,,,,,,,,,,,,,,,,,,,,,,,,,,,,,,,,,,,,,,,,,,,,,,,,,,,,,,,,,,,,,,,,,,,,,,,,,,,,,,,,,,,,,,,,,,,,,,,,,,,,,,,,,,,,,,,,,,,,,,,,,,,,,,,,,,,,,,,,,,,,,,,,,,
0,30,30,55,1,,6108e69e4540a09552a79cc1,62bbfa43364227246705e3ed,2022-06-29_10h08.09.273,Colour_Asymmetry_Pilot,2022.1.3,Win32,59.88741167,62bbe60bf3d75ef465d3e404,,,,,,,,,,,,,,,,,,,,,,,,,,,,,,,,,,,,,,,,,,,,,,,,,,,,,,,,,,,,,,,,,,,,,,,,,,,,,,,,,,,,,,,,,,,,,,,,,,,,,,,,,,,,,,,,,,,,,,,,,,,,,,,,,,,,,,,,,,,,,,,,,,,,,,,,,,,,,
0,31,31,24,1,,6108e69e4540a09552a79cc1,62bbfa43364227246705e3ed,2022-06-29_10h08.09.273,Colour_Asymmetry_Pilot,2022.1.3,Win32,59.88741167,62bbe60bf3d75ef465d3e404,,,,,,,,,,,,,,,,,,,,,,,,,,,,,,,,,,,,,,,,,,,,,,,,,,,,,,,,,,,,,,,,,,,,,,,,,,,,,,,,,,,,,,,,,,,,,,,,,,,,,,,,,,,,,,,,,,,,,,,,,,,,,,,,,,,,,,,,,,,,,,,,,,,,,,,,,,,,,
0,32,32,13,1,,6108e69e4540a09552a79cc1,62bbfa43364227246705e3ed,2022-06-29_10h08.09.273,Colour_Asymmetry_Pilot,2022.1.3,Win32,59.88741167,62bbe60bf3d75ef465d3e404,,,,,,,,,,,,,,,,,,,,,,,,,,,,,,,,,,,,,,,,,,,,,,,,,,,,,,,,,,,,,,,,,,,,,,,,,,,,,,,,,,,,,,,,,,,,,,,,,,,,,,,,,,,,,,,,,,,,,,,,,,,,,,,,,,,,,,,,,,,,,,,,,,,,,,,,,,,,,
0,33,33,51,1,,6108e69e4540a09552a79cc1,62bbfa43364227246705e3ed,2022-06-29_10h08.09.273,Colour_Asymmetry_Pilot,2022.1.3,Win32,59.88741167,62bbe60bf3d75ef465d3e404,,,,,,,,,,,,,,,,,,,,,,,,,,,,,,,,,,,,,,,,,,,,,,,,,,,,,,,,,,,,,,,,,,,,,,,,,,,,,,,,,,,,,,,,,,,,,,,,,,,,,,,,,,,,,,,,,,,,,,,,,,,,,,,,,,,,,,,,,,,,,,,,,,,,,,,,,,,,,
0,34,34,63,1,,6108e69e4540a09552a79cc1,62bbfa43364227246705e3ed,2022-06-29_10h08.09.273,Colour_Asymmetry_Pilot,2022.1.3,Win32,59.88741167,62bbe60bf3d75ef465d3e404,,,,,,,,,,,,,,,,,,,,,,,,,,,,,,,,,,,,,,,,,,,,,,,,,,,,,,,,,,,,,,,,,,,,,,,,,,,,,,,,,,,,,,,,,,,,,,,,,,,,,,,,,,,,,,,,,,,,,,,,,,,,,,,,,,,,,,,,,,,,,,,,,,,,,,,,,,,,,
0,35,35,69,1,,6108e69e4540a09552a79cc1,62bbfa43364227246705e3ed,2022-06-29_10h08.09.273,Colour_Asymmetry_Pilot,2022.1.3,Win32,59.88741167,62bbe60bf3d75ef465d3e404,,,,,,,,,,,,,,,,,,,,,,,,,,,,,,,,,,,,,,,,,,,,,,,,,,,,,,,,,,,,,,,,,,,,,,,,,,,,,,,,,,,,,,,,,,,,,,,,,,,,,,,,,,,,,,,,,,,,,,,,,,,,,,,,,,,,,,,,,,,,,,,,,,,,,,,,,,,,,
0,36,36,87,1,,6108e69e4540a09552a79cc1,62bbfa43364227246705e3ed,2022-06-29_10h08.09.273,Colour_Asymmetry_Pilot,2022.1.3,Win32,59.88741167,62bbe60bf3d75ef465d3e404,,,,,,,,,,,,,,,,,,,,,,,,,,,,,,,,,,,,,,,,,,,,,,,,,,,,,,,,,,,,,,,,,,,,,,,,,,,,,,,,,,,,,,,,,,,,,,,,,,,,,,,,,,,,,,,,,,,,,,,,,,,,,,,,,,,,,,,,,,,,,,,,,,,,,,,,,,,,,
0,37,37,0,1,,6108e69e4540a09552a79cc1,62bbfa43364227246705e3ed,2022-06-29_10h08.09.273,Colour_Asymmetry_Pilot,2022.1.3,Win32,59.88741167,62bbe60bf3d75ef465d3e404,,,,,,,,,,,,,,,,,,,,,,,,,,,,,,,,,,,,,,,,,,,,,,,,,,,,,,,,,,,,,,,,,,,,,,,,,,,,,,,,,,,,,,,,,,,,,,,,,,,,,,,,,,,,,,,,,,,,,,,,,,,,,,,,,,,,,,,,,,,,,,,,,,,,,,,,,,,,,
0,38,38,82,1,,6108e69e4540a09552a79cc1,62bbfa43364227246705e3ed,2022-06-29_10h08.09.273,Colour_Asymmetry_Pilot,2022.1.3,Win32,59.88741167,62bbe60bf3d75ef465d3e404,,,,,,,,,,,,,,,,,,,,,,,,,,,,,,,,,,,,,,,,,,,,,,,,,,,,,,,,,,,,,,,,,,,,,,,,,,,,,,,,,,,,,,,,,,,,,,,,,,,,,,,,,,,,,,,,,,,,,,,,,,,,,,,,,,,,,,,,,,,,,,,,,,,,,,,,,,,,,
0,39,39,61,1,,6108e69e4540a09552a79cc1,62bbfa43364227246705e3ed,2022-06-29_10h08.09.273,Colour_Asymmetry_Pilot,2022.1.3,Win32,59.88741167,62bbe60bf3d75ef465d3e404,,,,,,,,,,,,,,,,,,,,,,,,,,,,,,,,,,,,,,,,,,,,,,,,,,,,,,,,,,,,,,,,,,,,,,,,,,,,,,,,,,,,,,,,,,,,,,,,,,,,,,,,,,,,,,,,,,,,,,,,,,,,,,,,,,,,,,,,,,,,,,,,,,,,,,,,,,,,,
0,40,40,47,1,,6108e69e4540a09552a79cc1,62bbfa43364227246705e3ed,2022-06-29_10h08.09.273,Colour_Asymmetry_Pilot,2022.1.3,Win32,59.88741167,62bbe60bf3d75ef465d3e404,,,,,,,,,,,,,,,,,,,,,,,,,,,,,,,,,,,,,,,,,,,,,,,,,,,,,,,,,,,,,,,,,,,,,,,,,,,,,,,,,,,,,,,,,,,,,,,,,,,,,,,,,,,,,,,,,,,,,,,,,,,,,,,,,,,,,,,,,,,,,,,,,,,,,,,,,,,,,
0,41,41,3,1,,6108e69e4540a09552a79cc1,62bbfa43364227246705e3ed,2022-06-29_10h08.09.273,Colour_Asymmetry_Pilot,2022.1.3,Win32,59.88741167,62bbe60bf3d75ef465d3e404,,,,,,,,,,,,,,,,,,,,,,,,,,,,,,,,,,,,,,,,,,,,,,,,,,,,,,,,,,,,,,,,,,,,,,,,,,,,,,,,,,,,,,,,,,,,,,,,,,,,,,,,,,,,,,,,,,,,,,,,,,,,,,,,,,,,,,,,,,,,,,,,,,,,,,,,,,,,,
0,42,42,14,1,,6108e69e4540a09552a79cc1,62bbfa43364227246705e3ed,2022-06-29_10h08.09.273,Colour_Asymmetry_Pilot,2022.1.3,Win32,59.88741167,62bbe60bf3d75ef465d3e404,,,,,,,,,,,,,,,,,,,,,,,,,,,,,,,,,,,,,,,,,,,,,,,,,,,,,,,,,,,,,,,,,,,,,,,,,,,,,,,,,,,,,,,,,,,,,,,,,,,,,,,,,,,,,,,,,,,,,,,,,,,,,,,,,,,,,,,,,,,,,,,,,,,,,,,,,,,,,
0,43,43,66,1,,6108e69e4540a09552a79cc1,62bbfa43364227246705e3ed,2022-06-29_10h08.09.273,Colour_Asymmetry_Pilot,2022.1.3,Win32,59.88741167,62bbe60bf3d75ef465d3e404,,,,,,,,,,,,,,,,,,,,,,,,,,,,,,,,,,,,,,,,,,,,,,,,,,,,,,,,,,,,,,,,,,,,,,,,,,,,,,,,,,,,,,,,,,,,,,,,,,,,,,,,,,,,,,,,,,,,,,,,,,,,,,,,,,,,,,,,,,,,,,,,,,,,,,,,,,,,,
0,44,44,25,1,,6108e69e4540a09552a79cc1,62bbfa43364227246705e3ed,2022-06-29_10h08.09.273,Colour_Asymmetry_Pilot,2022.1.3,Win32,59.88741167,62bbe60bf3d75ef465d3e404,,,,,,,,,,,,,,,,,,,,,,,,,,,,,,,,,,,,,,,,,,,,,,,,,,,,,,,,,,,,,,,,,,,,,,,,,,,,,,,,,,,,,,,,,,,,,,,,,,,,,,,,,,,,,,,,,,,,,,,,,,,,,,,,,,,,,,,,,,,,,,,,,,,,,,,,,,,,,
0,45,45,37,1,,6108e69e4540a09552a79cc1,62bbfa43364227246705e3ed,2022-06-29_10h08.09.273,Colour_Asymmetry_Pilot,2022.1.3,Win32,59.88741167,62bbe60bf3d75ef465d3e404,,,,,,,,,,,,,,,,,,,,,,,,,,,,,,,,,,,,,,,,,,,,,,,,,,,,,,,,,,,,,,,,,,,,,,,,,,,,,,,,,,,,,,,,,,,,,,,,,,,,,,,,,,,,,,,,,,,,,,,,,,,,,,,,,,,,,,,,,,,,,,,,,,,,,,,,,,,,,
0,46,46,59,1,,6108e69e4540a09552a79cc1,62bbfa43364227246705e3ed,2022-06-29_10h08.09.273,Colour_Asymmetry_Pilot,2022.1.3,Win32,59.88741167,62bbe60bf3d75ef465d3e404,,,,,,,,,,,,,,,,,,,,,,,,,,,,,,,,,,,,,,,,,,,,,,,,,,,,,,,,,,,,,,,,,,,,,,,,,,,,,,,,,,,,,,,,,,,,,,,,,,,,,,,,,,,,,,,,,,,,,,,,,,,,,,,,,,,,,,,,,,,,,,,,,,,,,,,,,,,,,
0,47,47,31,1,,6108e69e4540a09552a79cc1,62bbfa43364227246705e3ed,2022-06-29_10h08.09.273,Colour_Asymmetry_Pilot,2022.1.3,Win32,59.88741167,62bbe60bf3d75ef465d3e404,,,,,,,,,,,,,,,,,,,,,,,,,,,,,,,,,,,,,,,,,,,,,,,,,,,,,,,,,,,,,,,,,,,,,,,,,,,,,,,,,,,,,,,,,,,,,,,,,,,,,,,,,,,,,,,,,,,,,,,,,,,,,,,,,,,,,,,,,,,,,,,,,,,,,,,,,,,,,
0,48,48,60,1,,6108e69e4540a09552a79cc1,62bbfa43364227246705e3ed,2022-06-29_10h08.09.273,Colour_Asymmetry_Pilot,2022.1.3,Win32,59.88741167,62bbe60bf3d75ef465d3e404,,,,,,,,,,,,,,,,,,,,,,,,,,,,,,,,,,,,,,,,,,,,,,,,,,,,,,,,,,,,,,,,,,,,,,,,,,,,,,,,,,,,,,,,,,,,,,,,,,,,,,,,,,,,,,,,,,,,,,,,,,,,,,,,,,,,,,,,,,,,,,,,,,,,,,,,,,,,,
0,49,49,29,1,,6108e69e4540a09552a79cc1,62bbfa43364227246705e3ed,2022-06-29_10h08.09.273,Colour_Asymmetry_Pilot,2022.1.3,Win32,59.88741167,62bbe60bf3d75ef465d3e404,,,,,,,,,,,,,,,,,,,,,,,,,,,,,,,,,,,,,,,,,,,,,,,,,,,,,,,,,,,,,,,,,,,,,,,,,,,,,,,,,,,,,,,,,,,,,,,,,,,,,,,,,,,,,,,,,,,,,,,,,,,,,,,,,,,,,,,,,,,,,,,,,,,,,,,,,,,,,
0,50,50,27,1,,6108e69e4540a09552a79cc1,62bbfa43364227246705e3ed,2022-06-29_10h08.09.273,Colour_Asymmetry_Pilot,2022.1.3,Win32,59.88741167,62bbe60bf3d75ef465d3e404,,,,,,,,,,,,,,,,,,,,,,,,,,,,,,,,,,,,,,,,,,,,,,,,,,,,,,,,,,,,,,,,,,,,,,,,,,,,,,,,,,,,,,,,,,,,,,,,,,,,,,,,,,,,,,,,,,,,,,,,,,,,,,,,,,,,,,,,,,,,,,,,,,,,,,,,,,,,,
0,51,51,92,1,,6108e69e4540a09552a79cc1,62bbfa43364227246705e3ed,2022-06-29_10h08.09.273,Colour_Asymmetry_Pilot,2022.1.3,Win32,59.88741167,62bbe60bf3d75ef465d3e404,,,,,,,,,,,,,,,,,,,,,,,,,,,,,,,,,,,,,,,,,,,,,,,,,,,,,,,,,,,,,,,,,,,,,,,,,,,,,,,,,,,,,,,,,,,,,,,,,,,,,,,,,,,,,,,,,,,,,,,,,,,,,,,,,,,,,,,,,,,,,,,,,,,,,,,,,,,,,
0,52,52,73,1,,6108e69e4540a09552a79cc1,62bbfa43364227246705e3ed,2022-06-29_10h08.09.273,Colour_Asymmetry_Pilot,2022.1.3,Win32,59.88741167,62bbe60bf3d75ef465d3e404,,,,,,,,,,,,,,,,,,,,,,,,,,,,,,,,,,,,,,,,,,,,,,,,,,,,,,,,,,,,,,,,,,,,,,,,,,,,,,,,,,,,,,,,,,,,,,,,,,,,,,,,,,,,,,,,,,,,,,,,,,,,,,,,,,,,,,,,,,,,,,,,,,,,,,,,,,,,,
0,53,53,35,1,,6108e69e4540a09552a79cc1,62bbfa43364227246705e3ed,2022-06-29_10h08.09.273,Colour_Asymmetry_Pilot,2022.1.3,Win32,59.88741167,62bbe60bf3d75ef465d3e404,,,,,,,,,,,,,,,,,,,,,,,,,,,,,,,,,,,,,,,,,,,,,,,,,,,,,,,,,,,,,,,,,,,,,,,,,,,,,,,,,,,,,,,,,,,,,,,,,,,,,,,,,,,,,,,,,,,,,,,,,,,,,,,,,,,,,,,,,,,,,,,,,,,,,,,,,,,,,
0,54,54,1,1,,6108e69e4540a09552a79cc1,62bbfa43364227246705e3ed,2022-06-29_10h08.09.273,Colour_Asymmetry_Pilot,2022.1.3,Win32,59.88741167,62bbe60bf3d75ef465d3e404,,,,,,,,,,,,,,,,,,,,,,,,,,,,,,,,,,,,,,,,,,,,,,,,,,,,,,,,,,,,,,,,,,,,,,,,,,,,,,,,,,,,,,,,,,,,,,,,,,,,,,,,,,,,,,,,,,,,,,,,,,,,,,,,,,,,,,,,,,,,,,,,,,,,,,,,,,,,,
0,55,55,38,1,,6108e69e4540a09552a79cc1,62bbfa43364227246705e3ed,2022-06-29_10h08.09.273,Colour_Asymmetry_Pilot,2022.1.3,Win32,59.88741167,62bbe60bf3d75ef465d3e404,,,,,,,,,,,,,,,,,,,,,,,,,,,,,,,,,,,,,,,,,,,,,,,,,,,,,,,,,,,,,,,,,,,,,,,,,,,,,,,,,,,,,,,,,,,,,,,,,,,,,,,,,,,,,,,,,,,,,,,,,,,,,,,,,,,,,,,,,,,,,,,,,,,,,,,,,,,,,
0,56,56,7,1,,6108e69e4540a09552a79cc1,62bbfa43364227246705e3ed,2022-06-29_10h08.09.273,Colour_Asymmetry_Pilot,2022.1.3,Win32,59.88741167,62bbe60bf3d75ef465d3e404,,,,,,,,,,,,,,,,,,,,,,,,,,,,,,,,,,,,,,,,,,,,,,,,,,,,,,,,,,,,,,,,,,,,,,,,,,,,,,,,,,,,,,,,,,,,,,,,,,,,,,,,,,,,,,,,,,,,,,,,,,,,,,,,,,,,,,,,,,,,,,,,,,,,,,,,,,,,,
0,57,57,84,1,,6108e69e4540a09552a79cc1,62bbfa43364227246705e3ed,2022-06-29_10h08.09.273,Colour_Asymmetry_Pilot,2022.1.3,Win32,59.88741167,62bbe60bf3d75ef465d3e404,,,,,,,,,,,,,,,,,,,,,,,,,,,,,,,,,,,,,,,,,,,,,,,,,,,,,,,,,,,,,,,,,,,,,,,,,,,,,,,,,,,,,,,,,,,,,,,,,,,,,,,,,,,,,,,,,,,,,,,,,,,,,,,,,,,,,,,,,,,,,,,,,,,,,,,,,,,,,
0,58,58,62,1,,6108e69e4540a09552a79cc1,62bbfa43364227246705e3ed,2022-06-29_10h08.09.273,Colour_Asymmetry_Pilot,2022.1.3,Win32,59.88741167,62bbe60bf3d75ef465d3e404,,,,,,,,,,,,,,,,,,,,,,,,,,,,,,,,,,,,,,,,,,,,,,,,,,,,,,,,,,,,,,,,,,,,,,,,,,,,,,,,,,,,,,,,,,,,,,,,,,,,,,,,,,,,,,,,,,,,,,,,,,,,,,,,,,,,,,,,,,,,,,,,,,,,,,,,,,,,,
0,59,59,58,1,,6108e69e4540a09552a79cc1,62bbfa43364227246705e3ed,2022-06-29_10h08.09.273,Colour_Asymmetry_Pilot,2022.1.3,Win32,59.88741167,62bbe60bf3d75ef465d3e404,,,,,,,,,,,,,,,,,,,,,,,,,,,,,,,,,,,,,,,,,,,,,,,,,,,,,,,,,,,,,,,,,,,,,,,,,,,,,,,,,,,,,,,,,,,,,,,,,,,,,,,,,,,,,,,,,,,,,,,,,,,,,,,,,,,,,,,,,,,,,,,,,,,,,,,,,,,,,
0,60,60,76,1,,6108e69e4540a09552a79cc1,62bbfa43364227246705e3ed,2022-06-29_10h08.09.273,Colour_Asymmetry_Pilot,2022.1.3,Win32,59.88741167,62bbe60bf3d75ef465d3e404,,,,,,,,,,,,,,,,,,,,,,,,,,,,,,,,,,,,,,,,,,,,,,,,,,,,,,,,,,,,,,,,,,,,,,,,,,,,,,,,,,,,,,,,,,,,,,,,,,,,,,,,,,,,,,,,,,,,,,,,,,,,,,,,,,,,,,,,,,,,,,,,,,,,,,,,,,,,,
0,61,61,80,1,,6108e69e4540a09552a79cc1,62bbfa43364227246705e3ed,2022-06-29_10h08.09.273,Colour_Asymmetry_Pilot,2022.1.3,Win32,59.88741167,62bbe60bf3d75ef465d3e404,,,,,,,,,,,,,,,,,,,,,,,,,,,,,,,,,,,,,,,,,,,,,,,,,,,,,,,,,,,,,,,,,,,,,,,,,,,,,,,,,,,,,,,,,,,,,,,,,,,,,,,,,,,,,,,,,,,,,,,,,,,,,,,,,,,,,,,,,,,,,,,,,,,,,,,,,,,,,
0,62,62,85,1,,6108e69e4540a09552a79cc1,62bbfa43364227246705e3ed,2022-06-29_10h08.09.273,Colour_Asymmetry_Pilot,2022.1.3,Win32,59.88741167,62bbe60bf3d75ef465d3e404,,,,,,,,,,,,,,,,,,,,,,,,,,,,,,,,,,,,,,,,,,,,,,,,,,,,,,,,,,,,,,,,,,,,,,,,,,,,,,,,,,,,,,,,,,,,,,,,,,,,,,,,,,,,,,,,,,,,,,,,,,,,,,,,,,,,,,,,,,,,,,,,,,,,,,,,,,,,,
0,63,63,86,1,,6108e69e4540a09552a79cc1,62bbfa43364227246705e3ed,2022-06-29_10h08.09.273,Colour_Asymmetry_Pilot,2022.1.3,Win32,59.88741167,62bbe60bf3d75ef465d3e404,,,,,,,,,,,,,,,,,,,,,,,,,,,,,,,,,,,,,,,,,,,,,,,,,,,,,,,,,,,,,,,,,,,,,,,,,,,,,,,,,,,,,,,,,,,,,,,,,,,,,,,,,,,,,,,,,,,,,,,,,,,,,,,,,,,,,,,,,,,,,,,,,,,,,,,,,,,,,
0,64,64,21,1,,6108e69e4540a09552a79cc1,62bbfa43364227246705e3ed,2022-06-29_10h08.09.273,Colour_Asymmetry_Pilot,2022.1.3,Win32,59.88741167,62bbe60bf3d75ef465d3e404,,,,,,,,,,,,,,,,,,,,,,,,,,,,,,,,,,,,,,,,,,,,,,,,,,,,,,,,,,,,,,,,,,,,,,,,,,,,,,,,,,,,,,,,,,,,,,,,,,,,,,,,,,,,,,,,,,,,,,,,,,,,,,,,,,,,,,,,,,,,,,,,,,,,,,,,,,,,,
0,65,65,41,1,,6108e69e4540a09552a79cc1,62bbfa43364227246705e3ed,2022-06-29_10h08.09.273,Colour_Asymmetry_Pilot,2022.1.3,Win32,59.88741167,62bbe60bf3d75ef465d3e404,,,,,,,,,,,,,,,,,,,,,,,,,,,,,,,,,,,,,,,,,,,,,,,,,,,,,,,,,,,,,,,,,,,,,,,,,,,,,,,,,,,,,,,,,,,,,,,,,,,,,,,,,,,,,,,,,,,,,,,,,,,,,,,,,,,,,,,,,,,,,,,,,,,,,,,,,,,,,
0,66,66,22,1,,6108e69e4540a09552a79cc1,62bbfa43364227246705e3ed,2022-06-29_10h08.09.273,Colour_Asymmetry_Pilot,2022.1.3,Win32,59.88741167,62bbe60bf3d75ef465d3e404,,,,,,,,,,,,,,,,,,,,,,,,,,,,,,,,,,,,,,,,,,,,,,,,,,,,,,,,,,,,,,,,,,,,,,,,,,,,,,,,,,,,,,,,,,,,,,,,,,,,,,,,,,,,,,,,,,,,,,,,,,,,,,,,,,,,,,,,,,,,,,,,,,,,,,,,,,,,,
0,67,67,57,1,,6108e69e4540a09552a79cc1,62bbfa43364227246705e3ed,2022-06-29_10h08.09.273,Colour_Asymmetry_Pilot,2022.1.3,Win32,59.88741167,62bbe60bf3d75ef465d3e404,,,,,,,,,,,,,,,,,,,,,,,,,,,,,,,,,,,,,,,,,,,,,,,,,,,,,,,,,,,,,,,,,,,,,,,,,,,,,,,,,,,,,,,,,,,,,,,,,,,,,,,,,,,,,,,,,,,,,,,,,,,,,,,,,,,,,,,,,,,,,,,,,,,,,,,,,,,,,
0,68,68,90,1,,6108e69e4540a09552a79cc1,62bbfa43364227246705e3ed,2022-06-29_10h08.09.273,Colour_Asymmetry_Pilot,2022.1.3,Win32,59.88741167,62bbe60bf3d75ef465d3e404,,,,,,,,,,,,,,,,,,,,,,,,,,,,,,,,,,,,,,,,,,,,,,,,,,,,,,,,,,,,,,,,,,,,,,,,,,,,,,,,,,,,,,,,,,,,,,,,,,,,,,,,,,,,,,,,,,,,,,,,,,,,,,,,,,,,,,,,,,,,,,,,,,,,,,,,,,,,,
0,69,69,2,1,,6108e69e4540a09552a79cc1,62bbfa43364227246705e3ed,2022-06-29_10h08.09.273,Colour_Asymmetry_Pilot,2022.1.3,Win32,59.88741167,62bbe60bf3d75ef465d3e404,,,,,,,,,,,,,,,,,,,,,,,,,,,,,,,,,,,,,,,,,,,,,,,,,,,,,,,,,,,,,,,,,,,,,,,,,,,,,,,,,,,,,,,,,,,,,,,,,,,,,,,,,,,,,,,,,,,,,,,,,,,,,,,,,,,,,,,,,,,,,,,,,,,,,,,,,,,,,
0,70,70,15,1,,6108e69e4540a09552a79cc1,62bbfa43364227246705e3ed,2022-06-29_10h08.09.273,Colour_Asymmetry_Pilot,2022.1.3,Win32,59.88741167,62bbe60bf3d75ef465d3e404,,,,,,,,,,,,,,,,,,,,,,,,,,,,,,,,,,,,,,,,,,,,,,,,,,,,,,,,,,,,,,,,,,,,,,,,,,,,,,,,,,,,,,,,,,,,,,,,,,,,,,,,,,,,,,,,,,,,,,,,,,,,,,,,,,,,,,,,,,,,,,,,,,,,,,,,,,,,,
0,71,71,8,1,,6108e69e4540a09552a79cc1,62bbfa43364227246705e3ed,2022-06-29_10h08.09.273,Colour_Asymmetry_Pilot,2022.1.3,Win32,59.88741167,62bbe60bf3d75ef465d3e404,,,,,,,,,,,,,,,,,,,,,,,,,,,,,,,,,,,,,,,,,,,,,,,,,,,,,,,,,,,,,,,,,,,,,,,,,,,,,,,,,,,,,,,,,,,,,,,,,,,,,,,,,,,,,,,,,,,,,,,,,,,,,,,,,,,,,,,,,,,,,,,,,,,,,,,,,,,,,
0,72,72,54,1,,6108e69e4540a09552a79cc1,62bbfa43364227246705e3ed,2022-06-29_10h08.09.273,Colour_Asymmetry_Pilot,2022.1.3,Win32,59.88741167,62bbe60bf3d75ef465d3e404,,,,,,,,,,,,,,,,,,,,,,,,,,,,,,,,,,,,,,,,,,,,,,,,,,,,,,,,,,,,,,,,,,,,,,,,,,,,,,,,,,,,,,,,,,,,,,,,,,,,,,,,,,,,,,,,,,,,,,,,,,,,,,,,,,,,,,,,,,,,,,,,,,,,,,,,,,,,,
0,73,73,16,1,,6108e69e4540a09552a79cc1,62bbfa43364227246705e3ed,2022-06-29_10h08.09.273,Colour_Asymmetry_Pilot,2022.1.3,Win32,59.88741167,62bbe60bf3d75ef465d3e404,,,,,,,,,,,,,,,,,,,,,,,,,,,,,,,,,,,,,,,,,,,,,,,,,,,,,,,,,,,,,,,,,,,,,,,,,,,,,,,,,,,,,,,,,,,,,,,,,,,,,,,,,,,,,,,,,,,,,,,,,,,,,,,,,,,,,,,,,,,,,,,,,,,,,,,,,,,,,
0,74,74,18,1,,6108e69e4540a09552a79cc1,62bbfa43364227246705e3ed,2022-06-29_10h08.09.273,Colour_Asymmetry_Pilot,2022.1.3,Win32,59.88741167,62bbe60bf3d75ef465d3e404,,,,,,,,,,,,,,,,,,,,,,,,,,,,,,,,,,,,,,,,,,,,,,,,,,,,,,,,,,,,,,,,,,,,,,,,,,,,,,,,,,,,,,,,,,,,,,,,,,,,,,,,,,,,,,,,,,,,,,,,,,,,,,,,,,,,,,,,,,,,,,,,,,,,,,,,,,,,,
0,75,75,65,1,,6108e69e4540a09552a79cc1,62bbfa43364227246705e3ed,2022-06-29_10h08.09.273,Colour_Asymmetry_Pilot,2022.1.3,Win32,59.88741167,62bbe60bf3d75ef465d3e404,,,,,,,,,,,,,,,,,,,,,,,,,,,,,,,,,,,,,,,,,,,,,,,,,,,,,,,,,,,,,,,,,,,,,,,,,,,,,,,,,,,,,,,,,,,,,,,,,,,,,,,,,,,,,,,,,,,,,,,,,,,,,,,,,,,,,,,,,,,,,,,,,,,,,,,,,,,,,
0,76,76,10,1,,6108e69e4540a09552a79cc1,62bbfa43364227246705e3ed,2022-06-29_10h08.09.273,Colour_Asymmetry_Pilot,2022.1.3,Win32,59.88741167,62bbe60bf3d75ef465d3e404,,,,,,,,,,,,,,,,,,,,,,,,,,,,,,,,,,,,,,,,,,,,,,,,,,,,,,,,,,,,,,,,,,,,,,,,,,,,,,,,,,,,,,,,,,,,,,,,,,,,,,,,,,,,,,,,,,,,,,,,,,,,,,,,,,,,,,,,,,,,,,,,,,,,,,,,,,,,,
0,77,77,50,1,,6108e69e4540a09552a79cc1,62bbfa43364227246705e3ed,2022-06-29_10h08.09.273,Colour_Asymmetry_Pilot,2022.1.3,Win32,59.88741167,62bbe60bf3d75ef465d3e404,,,,,,,,,,,,,,,,,,,,,,,,,,,,,,,,,,,,,,,,,,,,,,,,,,,,,,,,,,,,,,,,,,,,,,,,,,,,,,,,,,,,,,,,,,,,,,,,,,,,,,,,,,,,,,,,,,,,,,,,,,,,,,,,,,,,,,,,,,,,,,,,,,,,,,,,,,,,,
0,78,78,4,1,,6108e69e4540a09552a79cc1,62bbfa43364227246705e3ed,2022-06-29_10h08.09.273,Colour_Asymmetry_Pilot,2022.1.3,Win32,59.88741167,62bbe60bf3d75ef465d3e404,,,,,,,,,,,,,,,,,,,,,,,,,,,,,,,,,,,,,,,,,,,,,,,,,,,,,,,,,,,,,,,,,,,,,,,,,,,,,,,,,,,,,,,,,,,,,,,,,,,,,,,,,,,,,,,,,,,,,,,,,,,,,,,,,,,,,,,,,,,,,,,,,,,,,,,,,,,,,
0,79,79,70,1,,6108e69e4540a09552a79cc1,62bbfa43364227246705e3ed,2022-06-29_10h08.09.273,Colour_Asymmetry_Pilot,2022.1.3,Win32,59.88741167,62bbe60bf3d75ef465d3e404,,,,,,,,,,,,,,,,,,,,,,,,,,,,,,,,,,,,,,,,,,,,,,,,,,,,,,,,,,,,,,,,,,,,,,,,,,,,,,,,,,,,,,,,,,,,,,,,,,,,,,,,,,,,,,,,,,,,,,,,,,,,,,,,,,,,,,,,,,,,,,,,,,,,,,,,,,,,,
0,80,80,71,1,,6108e69e4540a09552a79cc1,62bbfa43364227246705e3ed,2022-06-29_10h08.09.273,Colour_Asymmetry_Pilot,2022.1.3,Win32,59.88741167,62bbe60bf3d75ef465d3e404,,,,,,,,,,,,,,,,,,,,,,,,,,,,,,,,,,,,,,,,,,,,,,,,,,,,,,,,,,,,,,,,,,,,,,,,,,,,,,,,,,,,,,,,,,,,,,,,,,,,,,,,,,,,,,,,,,,,,,,,,,,,,,,,,,,,,,,,,,,,,,,,,,,,,,,,,,,,,
0,81,81,34,1,,6108e69e4540a09552a79cc1,62bbfa43364227246705e3ed,2022-06-29_10h08.09.273,Colour_Asymmetry_Pilot,2022.1.3,Win32,59.88741167,62bbe60bf3d75ef465d3e404,,,,,,,,,,,,,,,,,,,,,,,,,,,,,,,,,,,,,,,,,,,,,,,,,,,,,,,,,,,,,,,,,,,,,,,,,,,,,,,,,,,,,,,,,,,,,,,,,,,,,,,,,,,,,,,,,,,,,,,,,,,,,,,,,,,,,,,,,,,,,,,,,,,,,,,,,,,,,
0,82,82,39,1,,6108e69e4540a09552a79cc1,62bbfa43364227246705e3ed,2022-06-29_10h08.09.273,Colour_Asymmetry_Pilot,2022.1.3,Win32,59.88741167,62bbe60bf3d75ef465d3e404,,,,,,,,,,,,,,,,,,,,,,,,,,,,,,,,,,,,,,,,,,,,,,,,,,,,,,,,,,,,,,,,,,,,,,,,,,,,,,,,,,,,,,,,,,,,,,,,,,,,,,,,,,,,,,,,,,,,,,,,,,,,,,,,,,,,,,,,,,,,,,,,,,,,,,,,,,,,,
0,83,83,45,1,,6108e69e4540a09552a79cc1,62bbfa43364227246705e3ed,2022-06-29_10h08.09.273,Colour_Asymmetry_Pilot,2022.1.3,Win32,59.88741167,62bbe60bf3d75ef465d3e404,,,,,,,,,,,,,,,,,,,,,,,,,,,,,,,,,,,,,,,,,,,,,,,,,,,,,,,,,,,,,,,,,,,,,,,,,,,,,,,,,,,,,,,,,,,,,,,,,,,,,,,,,,,,,,,,,,,,,,,,,,,,,,,,,,,,,,,,,,,,,,,,,,,,,,,,,,,,,
0,84,84,19,1,,6108e69e4540a09552a79cc1,62bbfa43364227246705e3ed,2022-06-29_10h08.09.273,Colour_Asymmetry_Pilot,2022.1.3,Win32,59.88741167,62bbe60bf3d75ef465d3e404,,,,,,,,,,,,,,,,,,,,,,,,,,,,,,,,,,,,,,,,,,,,,,,,,,,,,,,,,,,,,,,,,,,,,,,,,,,,,,,,,,,,,,,,,,,,,,,,,,,,,,,,,,,,,,,,,,,,,,,,,,,,,,,,,,,,,,,,,,,,,,,,,,,,,,,,,,,,,
0,85,85,67,1,,6108e69e4540a09552a79cc1,62bbfa43364227246705e3ed,2022-06-29_10h08.09.273,Colour_Asymmetry_Pilot,2022.1.3,Win32,59.88741167,62bbe60bf3d75ef465d3e404,,,,,,,,,,,,,,,,,,,,,,,,,,,,,,,,,,,,,,,,,,,,,,,,,,,,,,,,,,,,,,,,,,,,,,,,,,,,,,,,,,,,,,,,,,,,,,,,,,,,,,,,,,,,,,,,,,,,,,,,,,,,,,,,,,,,,,,,,,,,,,,,,,,,,,,,,,,,,
0,86,86,88,1,,6108e69e4540a09552a79cc1,62bbfa43364227246705e3ed,2022-06-29_10h08.09.273,Colour_Asymmetry_Pilot,2022.1.3,Win32,59.88741167,62bbe60bf3d75ef465d3e404,,,,,,,,,,,,,,,,,,,,,,,,,,,,,,,,,,,,,,,,,,,,,,,,,,,,,,,,,,,,,,,,,,,,,,,,,,,,,,,,,,,,,,,,,,,,,,,,,,,,,,,,,,,,,,,,,,,,,,,,,,,,,,,,,,,,,,,,,,,,,,,,,,,,,,,,,,,,,
0,87,87,11,1,,6108e69e4540a09552a79cc1,62bbfa43364227246705e3ed,2022-06-29_10h08.09.273,Colour_Asymmetry_Pilot,2022.1.3,Win32,59.88741167,62bbe60bf3d75ef465d3e404,,,,,,,,,,,,,,,,,,,,,,,,,,,,,,,,,,,,,,,,,,,,,,,,,,,,,,,,,,,,,,,,,,,,,,,,,,,,,,,,,,,,,,,,,,,,,,,,,,,,,,,,,,,,,,,,,,,,,,,,,,,,,,,,,,,,,,,,,,,,,,,,,,,,,,,,,,,,,
0,88,88,46,1,,6108e69e4540a09552a79cc1,62bbfa43364227246705e3ed,2022-06-29_10h08.09.273,Colour_Asymmetry_Pilot,2022.1.3,Win32,59.88741167,62bbe60bf3d75ef465d3e404,,,,,,,,,,,,,,,,,,,,,,,,,,,,,,,,,,,,,,,,,,,,,,,,,,,,,,,,,,,,,,,,,,,,,,,,,,,,,,,,,,,,,,,,,,,,,,,,,,,,,,,,,,,,,,,,,,,,,,,,,,,,,,,,,,,,,,,,,,,,,,,,,,,,,,,,,,,,,
0,89,89,72,1,,6108e69e4540a09552a79cc1,62bbfa43364227246705e3ed,2022-06-29_10h08.09.273,Colour_Asymmetry_Pilot,2022.1.3,Win32,59.88741167,62bbe60bf3d75ef465d3e404,,,,,,,,,,,,,,,,,,,,,,,,,,,,,,,,,,,,,,,,,,,,,,,,,,,,,,,,,,,,,,,,,,,,,,,,,,,,,,,,,,,,,,,,,,,,,,,,,,,,,,,,,,,,,,,,,,,,,,,,,,,,,,,,,,,,,,,,,,,,,,,,,,,,,,,,,,,,,
0,90,90,28,1,,6108e69e4540a09552a79cc1,62bbfa43364227246705e3ed,2022-06-29_10h08.09.273,Colour_Asymmetry_Pilot,2022.1.3,Win32,59.88741167,62bbe60bf3d75ef465d3e404,,,,,,,,,,,,,,,,,,,,,,,,,,,,,,,,,,,,,,,,,,,,,,,,,,,,,,,,,,,,,,,,,,,,,,,,,,,,,,,,,,,,,,,,,,,,,,,,,,,,,,,,,,,,,,,,,,,,,,,,,,,,,,,,,,,,,,,,,,,,,,,,,,,,,,,,,,,,,
0,91,91,43,1,,6108e69e4540a09552a79cc1,62bbfa43364227246705e3ed,2022-06-29_10h08.09.273,Colour_Asymmetry_Pilot,2022.1.3,Win32,59.88741167,62bbe60bf3d75ef465d3e404,,,,,,,,,,,,,,,,,,,,,,,,,,,,,,,,,,,,,,,,,,,,,,,,,,,,,,,,,,,,,,,,,,,,,,,,,,,,,,,,,,,,,,,,,,,,,,,,,,,,,,,,,,,,,,,,,,,,,,,,,,,,,,,,,,,,,,,,,,,,,,,,,,,,,,,,,,,,,
0,92,92,17,1,,6108e69e4540a09552a79cc1,62bbfa43364227246705e3ed,2022-06-29_10h08.09.273,Colour_Asymmetry_Pilot,2022.1.3,Win32,59.88741167,62bbe60bf3d75ef465d3e404,,,,,,,,,,,,,,,,,,,,,,,,,,,,,,,,,,,,,,,,,,,,,,,,,,,,,,,,,,,,,,,,,,,,,,,,,,,,,,,,,,,,,,,,,,,,,,,,,,,,,,,,,,,,,,,,,,,,,,,,,,,,,,,,,,,,,,,,,,,,,,,,,,,,,,,,,,,,,
,,,,,,6108e69e4540a09552a79cc1,62bbfa43364227246705e3ed,2022-06-29_10h08.09.273,Colour_Asymmetry_Pilot,2022.1.3,Win32,59.88741167,62bbe60bf3d75ef465d3e404,0,0,0,9,1,onethree,,,,,,,,,,,,,,,,,,,,,,,,,,,,,,,,,,,,,,,,,,,,,,,,,,,,,,,,,,,,,,,,,,,,,,,,,,,,,,,,,,,,,,,,,,,,,,,,,,,,,,,,,,,,,,,,,,,,,,,,,,,,,,,,,,,,,,,,,,,,,,,,,,,,,,,
,,,,,,6108e69e4540a09552a79cc1,62bbfa43364227246705e3ed,2022-06-29_10h08.09.273,Colour_Asymmetry_Pilot,2022.1.3,Win32,59.88741167,62bbe60bf3d75ef465d3e404,0,1,1,40,1,onetwo,,,,,,,,,,,,,,,,,,,,,,,,,,,,,,,,,,,,,,,,,,,,,,,,,,,,,,,,,,,,,,,,,,,,,,,,,,,,,,,,,,,,,,,,,,,,,,,,,,,,,,,,,,,,,,,,,,,,,,,,,,,,,,,,,,,,,,,,,,,,,,,,,,,,,,,
,,,,,,6108e69e4540a09552a79cc1,62bbfa43364227246705e3ed,2022-06-29_10h08.09.273,Colour_Asymmetry_Pilot,2022.1.3,Win32,59.88741167,62bbe60bf3d75ef465d3e404,0,2,2,33,1,onethree,,,,,,,,,,,,,,,,,,,,,,,,,,,,,,,,,,,,,,,,,,,,,,,,,,,,,,,,,,,,,,,,,,,,,,,,,,,,,,,,,,,,,,,,,,,,,,,,,,,,,,,,,,,,,,,,,,,,,,,,,,,,,,,,,,,,,,,,,,,,,,,,,,,,,,,
,,,,,,6108e69e4540a09552a79cc1,62bbfa43364227246705e3ed,2022-06-29_10h08.09.273,Colour_Asymmetry_Pilot,2022.1.3,Win32,59.88741167,62bbe60bf3d75ef465d3e404,0,3,3,21,1,threefour,,,,,,,,,,,,,,,,,,,,,,,,,,,,,,,,,,,,,,,,,,,,,,,,,,,,,,,,,,,,,,,,,,,,,,,,,,,,,,,,,,,,,,,,,,,,,,,,,,,,,,,,,,,,,,,,,,,,,,,,,,,,,,,,,,,,,,,,,,,,,,,,,,,,,,,
,,,,,,6108e69e4540a09552a79cc1,62bbfa43364227246705e3ed,2022-06-29_10h08.09.273,Colour_Asymmetry_Pilot,2022.1.3,Win32,59.88741167,62bbe60bf3d75ef465d3e404,0,4,4,7,1,fourthree,,,,,,,,,,,,,,,,,,,,,,,,,,,,,,,,,,,,,,,,,,,,,,,,,,,,,,,,,,,,,,,,,,,,,,,,,,,,,,,,,,,,,,,,,,,,,,,,,,,,,,,,,,,,,,,,,,,,,,,,,,,,,,,,,,,,,,,,,,,,,,,,,,,,,,,
,,,,,,6108e69e4540a09552a79cc1,62bbfa43364227246705e3ed,2022-06-29_10h08.09.273,Colour_Asymmetry_Pilot,2022.1.3,Win32,59.88741167,62bbe60bf3d75ef465d3e404,0,5,5,19,1,twofour,,,,,,,,,,,,,,,,,,,,,,,,,,,,,,,,,,,,,,,,,,,,,,,,,,,,,,,,,,,,,,,,,,,,,,,,,,,,,,,,,,,,,,,,,,,,,,,,,,,,,,,,,,,,,,,,,,,,,,,,,,,,,,,,,,,,,,,,,,,,,,,,,,,,,,,
,,,,,,6108e69e4540a09552a79cc1,62bbfa43364227246705e3ed,2022-06-29_10h08.09.273,Colour_Asymmetry_Pilot,2022.1.3,Win32,59.88741167,62bbe60bf3d75ef465d3e404,0,6,6,89,1,onethree,,,,,,,,,,,,,,,,,,,,,,,,,,,,,,,,,,,,,,,,,,,,,,,,,,,,,,,,,,,,,,,,,,,,,,,,,,,,,,,,,,,,,,,,,,,,,,,,,,,,,,,,,,,,,,,,,,,,,,,,,,,,,,,,,,,,,,,,,,,,,,,,,,,,,,,
,,,,,,6108e69e4540a09552a79cc1,62bbfa43364227246705e3ed,2022-06-29_10h08.09.273,Colour_Asymmetry_Pilot,2022.1.3,Win32,59.88741167,62bbe60bf3d75ef465d3e404,0,7,7,83,1,twofour,,,,,,,,,,,,,,,,,,,,,,,,,,,,,,,,,,,,,,,,,,,,,,,,,,,,,,,,,,,,,,,,,,,,,,,,,,,,,,,,,,,,,,,,,,,,,,,,,,,,,,,,,,,,,,,,,,,,,,,,,,,,,,,,,,,,,,,,,,,,,,,,,,,,,,,
,,,,,,6108e69e4540a09552a79cc1,62bbfa43364227246705e3ed,2022-06-29_10h08.09.273,Colour_Asymmetry_Pilot,2022.1.3,Win32,59.88741167,62bbe60bf3d75ef465d3e404,0,8,8,36,1,threeone,,,,,,,,,,,,,,,,,,,,,,,,,,,,,,,,,,,,,,,,,,,,,,,,,,,,,,,,,,,,,,,,,,,,,,,,,,,,,,,,,,,,,,,,,,,,,,,,,,,,,,,,,,,,,,,,,,,,,,,,,,,,,,,,,,,,,,,,,,,,,,,,,,,,,,,
,,,,,,6108e69e4540a09552a79cc1,62bbfa43364227246705e3ed,2022-06-29_10h08.09.273,Colour_Asymmetry_Pilot,2022.1.3,Win32,59.88741167,62bbe60bf3d75ef465d3e404,0,9,9,20,1,threeone,,,,,,,,,,,,,,,,,,,,,,,,,,,,,,,,,,,,,,,,,,,,,,,,,,,,,,,,,,,,,,,,,,,,,,,,,,,,,,,,,,,,,,,,,,,,,,,,,,,,,,,,,,,,,,,,,,,,,,,,,,,,,,,,,,,,,,,,,,,,,,,,,,,,,,,
,,,,,,6108e69e4540a09552a79cc1,62bbfa43364227246705e3ed,2022-06-29_10h08.09.273,Colour_Asymmetry_Pilot,2022.1.3,Win32,59.88741167,62bbe60bf3d75ef465d3e404,0,10,10,6,1,fourtwo,,,,,,,,,,,,,,,,,,,,,,,,,,,,,,,,,,,,,,,,,,,,,,,,,,,,,,,,,,,,,,,,,,,,,,,,,,,,,,,,,,,,,,,,,,,,,,,,,,,,,,,,,,,,,,,,,,,,,,,,,,,,,,,,,,,,,,,,,,,,,,,,,,,,,,,
,,,,,,6108e69e4540a09552a79cc1,62bbfa43364227246705e3ed,2022-06-29_10h08.09.273,Colour_Asymmetry_Pilot,2022.1.3,Win32,59.88741167,62bbe60bf3d75ef465d3e404,0,11,11,68,1,threeone,,,,,,,,,,,,,,,,,,,,,,,,,,,,,,,,,,,,,,,,,,,,,,,,,,,,,,,,,,,,,,,,,,,,,,,,,,,,,,,,,,,,,,,,,,,,,,,,,,,,,,,,,,,,,,,,,,,,,,,,,,,,,,,,,,,,,,,,,,,,,,,,,,,,,,,
,,,,,,6108e69e4540a09552a79cc1,62bbfa43364227246705e3ed,2022-06-29_10h08.09.273,Colour_Asymmetry_Pilot,2022.1.3,Win32,59.88741167,62bbe60bf3d75ef465d3e404,0,12,12,66,1,twoone,,,,,,,,,,,,,,,,,,,,,,,,,,,,,,,,,,,,,,,,,,,,,,,,,,,,,,,,,,,,,,,,,,,,,,,,,,,,,,,,,,,,,,,,,,,,,,,,,,,,,,,,,,,,,,,,,,,,,,,,,,,,,,,,,,,,,,,,,,,,,,,,,,,,,,,
,,,,,,6108e69e4540a09552a79cc1,62bbfa43364227246705e3ed,2022-06-29_10h08.09.273,Colour_Asymmetry_Pilot,2022.1.3,Win32,59.88741167,62bbe60bf3d75ef465d3e404,0,13,13,85,1,threefour,,,,,,,,,,,,,,,,,,,,,,,,,,,,,,,,,,,,,,,,,,,,,,,,,,,,,,,,,,,,,,,,,,,,,,,,,,,,,,,,,,,,,,,,,,,,,,,,,,,,,,,,,,,,,,,,,,,,,,,,,,,,,,,,,,,,,,,,,,,,,,,,,,,,,,,
,,,,,,6108e69e4540a09552a79cc1,62bbfa43364227246705e3ed,2022-06-29_10h08.09.273,Colour_Asymmetry_Pilot,2022.1.3,Win32,59.88741167,62bbe60bf3d75ef465d3e404,0,14,14,103,1,fourthree,,,,,,,,,,,,,,,,,,,,,,,,,,,,,,,,,,,,,,,,,,,,,,,,,,,,,,,,,,,,,,,,,,,,,,,,,,,,,,,,,,,,,,,,,,,,,,,,,,,,,,,,,,,,,,,,,,,,,,,,,,,,,,,,,,,,,,,,,,,,,,,,,,,,,,,
,,,,,,6108e69e4540a09552a79cc1,62bbfa43364227246705e3ed,2022-06-29_10h08.09.273,Colour_Asymmetry_Pilot,2022.1.3,Win32,59.88741167,62bbe60bf3d75ef465d3e404,0,15,15,141,1,threefour,,,,,,,,,,,,,,,,,,,,,,,,,,,,,,,,,,,,,,,,,,,,,,,,,,,,,,,,,,,,,,,,,,,,,,,,,,,,,,,,,,,,,,,,,,,,,,,,,,,,,,,,,,,,,,,,,,,,,,,,,,,,,,,,,,,,,,,,,,,,,,,,,,,,,,,
,,,,,,6108e69e4540a09552a79cc1,62bbfa43364227246705e3ed,2022-06-29_10h08.09.273,Colour_Asymmetry_Pilot,2022.1.3,Win32,59.88741167,62bbe60bf3d75ef465d3e404,0,16,16,8,1,onetwo,,,,,,,,,,,,,,,,,,,,,,,,,,,,,,,,,,,,,,,,,,,,,,,,,,,,,,,,,,,,,,,,,,,,,,,,,,,,,,,,,,,,,,,,,,,,,,,,,,,,,,,,,,,,,,,,,,,,,,,,,,,,,,,,,,,,,,,,,,,,,,,,,,,,,,,
,,,,,,6108e69e4540a09552a79cc1,62bbfa43364227246705e3ed,2022-06-29_10h08.09.273,Colour_Asymmetry_Pilot,2022.1.3,Win32,59.88741167,62bbe60bf3d75ef465d3e404,0,17,17,144,1,onetwo,,,,,,,,,,,,,,,,,,,,,,,,,,,,,,,,,,,,,,,,,,,,,,,,,,,,,,,,,,,,,,,,,,,,,,,,,,,,,,,,,,,,,,,,,,,,,,,,,,,,,,,,,,,,,,,,,,,,,,,,,,,,,,,,,,,,,,,,,,,,,,,,,,,,,,,
,,,,,,6108e69e4540a09552a79cc1,62bbfa43364227246705e3ed,2022-06-29_10h08.09.273,Colour_Asymmetry_Pilot,2022.1.3,Win32,59.88741167,62bbe60bf3d75ef465d3e404,0,18,18,44,1,threeone,,,,,,,,,,,,,,,,,,,,,,,,,,,,,,,,,,,,,,,,,,,,,,,,,,,,,,,,,,,,,,,,,,,,,,,,,,,,,,,,,,,,,,,,,,,,,,,,,,,,,,,,,,,,,,,,,,,,,,,,,,,,,,,,,,,,,,,,,,,,,,,,,,,,,,,
,,,,,,6108e69e4540a09552a79cc1,62bbfa43364227246705e3ed,2022-06-29_10h08.09.273,Colour_Asymmetry_Pilot,2022.1.3,Win32,59.88741167,62bbe60bf3d75ef465d3e404,0,19,19,84,1,threeone,,,,,,,,,,,,,,,,,,,,,,,,,,,,,,,,,,,,,,,,,,,,,,,,,,,,,,,,,,,,,,,,,,,,,,,,,,,,,,,,,,,,,,,,,,,,,,,,,,,,,,,,,,,,,,,,,,,,,,,,,,,,,,,,,,,,,,,,,,,,,,,,,,,,,,,
,,,,,,6108e69e4540a09552a79cc1,62bbfa43364227246705e3ed,2022-06-29_10h08.09.273,Colour_Asymmetry_Pilot,2022.1.3,Win32,59.88741167,62bbe60bf3d75ef465d3e404,0,20,20,71,1,fourthree,,,,,,,,,,,,,,,,,,,,,,,,,,,,,,,,,,,,,,,,,,,,,,,,,,,,,,,,,,,,,,,,,,,,,,,,,,,,,,,,,,,,,,,,,,,,,,,,,,,,,,,,,,,,,,,,,,,,,,,,,,,,,,,,,,,,,,,,,,,,,,,,,,,,,,,
,,,,,,6108e69e4540a09552a79cc1,62bbfa43364227246705e3ed,2022-06-29_10h08.09.273,Colour_Asymmetry_Pilot,2022.1.3,Win32,59.88741167,62bbe60bf3d75ef465d3e404,0,21,21,93,1,threefour,,,,,,,,,,,,,,,,,,,,,,,,,,,,,,,,,,,,,,,,,,,,,,,,,,,,,,,,,,,,,,,,,,,,,,,,,,,,,,,,,,,,,,,,,,,,,,,,,,,,,,,,,,,,,,,,,,,,,,,,,,,,,,,,,,,,,,,,,,,,,,,,,,,,,,,
,,,,,,6108e69e4540a09552a79cc1,62bbfa43364227246705e3ed,2022-06-29_10h08.09.273,Colour_Asymmetry_Pilot,2022.1.3,Win32,59.88741167,62bbe60bf3d75ef465d3e404,0,22,22,155,1,twofour,,,,,,,,,,,,,,,,,,,,,,,,,,,,,,,,,,,,,,,,,,,,,,,,,,,,,,,,,,,,,,,,,,,,,,,,,,,,,,,,,,,,,,,,,,,,,,,,,,,,,,,,,,,,,,,,,,,,,,,,,,,,,,,,,,,,,,,,,,,,,,,,,,,,,,,
,,,,,,6108e69e4540a09552a79cc1,62bbfa43364227246705e3ed,2022-06-29_10h08.09.273,Colour_Asymmetry_Pilot,2022.1.3,Win32,59.88741167,62bbe60bf3d75ef465d3e404,0,23,23,13,1,threefour,,,,,,,,,,,,,,,,,,,,,,,,,,,,,,,,,,,,,,,,,,,,,,,,,,,,,,,,,,,,,,,,,,,,,,,,,,,,,,,,,,,,,,,,,,,,,,,,,,,,,,,,,,,,,,,,,,,,,,,,,,,,,,,,,,,,,,,,,,,,,,,,,,,,,,,
,,,,,,6108e69e4540a09552a79cc1,62bbfa43364227246705e3ed,2022-06-29_10h08.09.273,Colour_Asymmetry_Pilot,2022.1.3,Win32,59.88741167,62bbe60bf3d75ef465d3e404,0,24,24,26,1,twoone,,,,,,,,,,,,,,,,,,,,,,,,,,,,,,,,,,,,,,,,,,,,,,,,,,,,,,,,,,,,,,,,,,,,,,,,,,,,,,,,,,,,,,,,,,,,,,,,,,,,,,,,,,,,,,,,,,,,,,,,,,,,,,,,,,,,,,,,,,,,,,,,,,,,,,,
,,,,,,6108e69e4540a09552a79cc1,62bbfa43364227246705e3ed,2022-06-29_10h08.09.273,Colour_Asymmetry_Pilot,2022.1.3,Win32,59.88741167,62bbe60bf3d75ef465d3e404,0,25,25,53,1,threefour,,,,,,,,,,,,,,,,,,,,,,,,,,,,,,,,,,,,,,,,,,,,,,,,,,,,,,,,,,,,,,,,,,,,,,,,,,,,,,,,,,,,,,,,,,,,,,,,,,,,,,,,,,,,,,,,,,,,,,,,,,,,,,,,,,,,,,,,,,,,,,,,,,,,,,,
,,,,,,6108e69e4540a09552a79cc1,62bbfa43364227246705e3ed,2022-06-29_10h08.09.273,Colour_Asymmetry_Pilot,2022.1.3,Win32,59.88741167,62bbe60bf3d75ef465d3e404,0,26,26,121,1,onethree,,,,,,,,,,,,,,,,,,,,,,,,,,,,,,,,,,,,,,,,,,,,,,,,,,,,,,,,,,,,,,,,,,,,,,,,,,,,,,,,,,,,,,,,,,,,,,,,,,,,,,,,,,,,,,,,,,,,,,,,,,,,,,,,,,,,,,,,,,,,,,,,,,,,,,,
,,,,,,6108e69e4540a09552a79cc1,62bbfa43364227246705e3ed,2022-06-29_10h08.09.273,Colour_Asymmetry_Pilot,2022.1.3,Win32,59.88741167,62bbe60bf3d75ef465d3e404,0,27,27,55,1,fourthree,,,,,,,,,,,,,,,,,,,,,,,,,,,,,,,,,,,,,,,,,,,,,,,,,,,,,,,,,,,,,,,,,,,,,,,,,,,,,,,,,,,,,,,,,,,,,,,,,,,,,,,,,,,,,,,,,,,,,,,,,,,,,,,,,,,,,,,,,,,,,,,,,,,,,,,
,,,,,,6108e69e4540a09552a79cc1,62bbfa43364227246705e3ed,2022-06-29_10h08.09.273,Colour_Asymmetry_Pilot,2022.1.3,Win32,59.88741167,62bbe60bf3d75ef465d3e404,0,28,28,27,1,twofour,,,,,,,,,,,,,,,,,,,,,,,,,,,,,,,,,,,,,,,,,,,,,,,,,,,,,,,,,,,,,,,,,,,,,,,,,,,,,,,,,,,,,,,,,,,,,,,,,,,,,,,,,,,,,,,,,,,,,,,,,,,,,,,,,,,,,,,,,,,,,,,,,,,,,,,
,,,,,,6108e69e4540a09552a79cc1,62bbfa43364227246705e3ed,2022-06-29_10h08.09.273,Colour_Asymmetry_Pilot,2022.1.3,Win32,59.88741167,62bbe60bf3d75ef465d3e404,0,29,29,115,1,twofour,,,,,,,,,,,,,,,,,,,,,,,,,,,,,,,,,,,,,,,,,,,,,,,,,,,,,,,,,,,,,,,,,,,,,,,,,,,,,,,,,,,,,,,,,,,,,,,,,,,,,,,,,,,,,,,,,,,,,,,,,,,,,,,,,,,,,,,,,,,,,,,,,,,,,,,
,,,,,,6108e69e4540a09552a79cc1,62bbfa43364227246705e3ed,2022-06-29_10h08.09.273,Colour_Asymmetry_Pilot,2022.1.3,Win32,59.88741167,62bbe60bf3d75ef465d3e404,0,30,30,95,1,fourthree,,,,,,,,,,,,,,,,,,,,,,,,,,,,,,,,,,,,,,,,,,,,,,,,,,,,,,,,,,,,,,,,,,,,,,,,,,,,,,,,,,,,,,,,,,,,,,,,,,,,,,,,,,,,,,,,,,,,,,,,,,,,,,,,,,,,,,,,,,,,,,,,,,,,,,,
,,,,,,6108e69e4540a09552a79cc1,62bbfa43364227246705e3ed,2022-06-29_10h08.09.273,Colour_Asymmetry_Pilot,2022.1.3,Win32,59.88741167,62bbe60bf3d75ef465d3e404,0,31,31,124,1,threeone,,,,,,,,,,,,,,,,,,,,,,,,,,,,,,,,,,,,,,,,,,,,,,,,,,,,,,,,,,,,,,,,,,,,,,,,,,,,,,,,,,,,,,,,,,,,,,,,,,,,,,,,,,,,,,,,,,,,,,,,,,,,,,,,,,,,,,,,,,,,,,,,,,,,,,,
,,,,,,6108e69e4540a09552a79cc1,62bbfa43364227246705e3ed,2022-06-29_10h08.09.273,Colour_Asymmetry_Pilot,2022.1.3,Win32,59.88741167,62bbe60bf3d75ef465d3e404,0,32,32,15,1,fourthree,,,,,,,,,,,,,,,,,,,,,,,,,,,,,,,,,,,,,,,,,,,,,,,,,,,,,,,,,,,,,,,,,,,,,,,,,,,,,,,,,,,,,,,,,,,,,,,,,,,,,,,,,,,,,,,,,,,,,,,,,,,,,,,,,,,,,,,,,,,,,,,,,,,,,,,
,,,,,,6108e69e4540a09552a79cc1,62bbfa43364227246705e3ed,2022-06-29_10h08.09.273,Colour_Asymmetry_Pilot,2022.1.3,Win32,59.88741167,62bbe60bf3d75ef465d3e404,0,33,33,99,1,twofour,,,,,,,,,,,,,,,,,,,,,,,,,,,,,,,,,,,,,,,,,,,,,,,,,,,,,,,,,,,,,,,,,,,,,,,,,,,,,,,,,,,,,,,,,,,,,,,,,,,,,,,,,,,,,,,,,,,,,,,,,,,,,,,,,,,,,,,,,,,,,,,,,,,,,,,
,,,,,,6108e69e4540a09552a79cc1,62bbfa43364227246705e3ed,2022-06-29_10h08.09.273,Colour_Asymmetry_Pilot,2022.1.3,Win32,59.88741167,62bbe60bf3d75ef465d3e404,0,34,34,104,1,onetwo,,,,,,,,,,,,,,,,,,,,,,,,,,,,,,,,,,,,,,,,,,,,,,,,,,,,,,,,,,,,,,,,,,,,,,,,,,,,,,,,,,,,,,,,,,,,,,,,,,,,,,,,,,,,,,,,,,,,,,,,,,,,,,,,,,,,,,,,,,,,,,,,,,,,,,,
,,,,,,6108e69e4540a09552a79cc1,62bbfa43364227246705e3ed,2022-06-29_10h08.09.273,Colour_Asymmetry_Pilot,2022.1.3,Win32,59.88741167,62bbe60bf3d75ef465d3e404,0,35,35,90,1,twoone,,,,,,,,,,,,,,,,,,,,,,,,,,,,,,,,,,,,,,,,,,,,,,,,,,,,,,,,,,,,,,,,,,,,,,,,,,,,,,,,,,,,,,,,,,,,,,,,,,,,,,,,,,,,,,,,,,,,,,,,,,,,,,,,,,,,,,,,,,,,,,,,,,,,,,,
,,,,,,6108e69e4540a09552a79cc1,62bbfa43364227246705e3ed,2022-06-29_10h08.09.273,Colour_Asymmetry_Pilot,2022.1.3,Win32,59.88741167,62bbe60bf3d75ef465d3e404,0,36,36,22,1,fourtwo,,,,,,,,,,,,,,,,,,,,,,,,,,,,,,,,,,,,,,,,,,,,,,,,,,,,,,,,,,,,,,,,,,,,,,,,,,,,,,,,,,,,,,,,,,,,,,,,,,,,,,,,,,,,,,,,,,,,,,,,,,,,,,,,,,,,,,,,,,,,,,,,,,,,,,,
,,,,,,6108e69e4540a09552a79cc1,62bbfa43364227246705e3ed,2022-06-29_10h08.09.273,Colour_Asymmetry_Pilot,2022.1.3,Win32,59.88741167,62bbe60bf3d75ef465d3e404,0,37,37,62,1,fourtwo,,,,,,,,,,,,,,,,,,,,,,,,,,,,,,,,,,,,,,,,,,,,,,,,,,,,,,,,,,,,,,,,,,,,,,,,,,,,,,,,,,,,,,,,,,,,,,,,,,,,,,,,,,,,,,,,,,,,,,,,,,,,,,,,,,,,,,,,,,,,,,,,,,,,,,,
,,,,,,6108e69e4540a09552a79cc1,62bbfa43364227246705e3ed,2022-06-29_10h08.09.273,Colour_Asymmetry_Pilot,2022.1.3,Win32,59.88741167,62bbe60bf3d75ef465d3e404,0,38,38,127,1,fourthree,,,,,,,,,,,,,,,,,,,,,,,,,,,,,,,,,,,,,,,,,,,,,,,,,,,,,,,,,,,,,,,,,,,,,,,,,,,,,,,,,,,,,,,,,,,,,,,,,,,,,,,,,,,,,,,,,,,,,,,,,,,,,,,,,,,,,,,,,,,,,,,,,,,,,,,
,,,,,,6108e69e4540a09552a79cc1,62bbfa43364227246705e3ed,2022-06-29_10h08.09.273,Colour_Asymmetry_Pilot,2022.1.3,Win32,59.88741167,62bbe60bf3d75ef465d3e404,0,39,39,64,1,onetwo,,,,,,,,,,,,,,,,,,,,,,,,,,,,,,,,,,,,,,,,,,,,,,,,,,,,,,,,,,,,,,,,,,,,,,,,,,,,,,,,,,,,,,,,,,,,,,,,,,,,,,,,,,,,,,,,,,,,,,,,,,,,,,,,,,,,,,,,,,,,,,,,,,,,,,,
,,,,,,6108e69e4540a09552a79cc1,62bbfa43364227246705e3ed,2022-06-29_10h08.09.273,Colour_Asymmetry_Pilot,2022.1.3,Win32,59.88741167,62bbe60bf3d75ef465d3e404,0,40,40,107,1,twofour,,,,,,,,,,,,,,,,,,,,,,,,,,,,,,,,,,,,,,,,,,,,,,,,,,,,,,,,,,,,,,,,,,,,,,,,,,,,,,,,,,,,,,,,,,,,,,,,,,,,,,,,,,,,,,,,,,,,,,,,,,,,,,,,,,,,,,,,,,,,,,,,,,,,,,,
,,,,,,6108e69e4540a09552a79cc1,62bbfa43364227246705e3ed,2022-06-29_10h08.09.273,Colour_Asymmetry_Pilot,2022.1.3,Win32,59.88741167,62bbe60bf3d75ef465d3e404,0,41,41,94,1,fourtwo,,,,,,,,,,,,,,,,,,,,,,,,,,,,,,,,,,,,,,,,,,,,,,,,,,,,,,,,,,,,,,,,,,,,,,,,,,,,,,,,,,,,,,,,,,,,,,,,,,,,,,,,,,,,,,,,,,,,,,,,,,,,,,,,,,,,,,,,,,,,,,,,,,,,,,,
,,,,,,6108e69e4540a09552a79cc1,62bbfa43364227246705e3ed,2022-06-29_10h08.09.273,Colour_Asymmetry_Pilot,2022.1.3,Win32,59.88741167,62bbe60bf3d75ef465d3e404,0,42,42,135,1,fourthree,,,,,,,,,,,,,,,,,,,,,,,,,,,,,,,,,,,,,,,,,,,,,,,,,,,,,,,,,,,,,,,,,,,,,,,,,,,,,,,,,,,,,,,,,,,,,,,,,,,,,,,,,,,,,,,,,,,,,,,,,,,,,,,,,,,,,,,,,,,,,,,,,,,,,,,
,,,,,,6108e69e4540a09552a79cc1,62bbfa43364227246705e3ed,2022-06-29_10h08.09.273,Colour_Asymmetry_Pilot,2022.1.3,Win32,59.88741167,62bbe60bf3d75ef465d3e404,0,43,43,153,1,onethree,,,,,,,,,,,,,,,,,,,,,,,,,,,,,,,,,,,,,,,,,,,,,,,,,,,,,,,,,,,,,,,,,,,,,,,,,,,,,,,,,,,,,,,,,,,,,,,,,,,,,,,,,,,,,,,,,,,,,,,,,,,,,,,,,,,,,,,,,,,,,,,,,,,,,,,
,,,,,,6108e69e4540a09552a79cc1,62bbfa43364227246705e3ed,2022-06-29_10h08.09.273,Colour_Asymmetry_Pilot,2022.1.3,Win32,59.88741167,62bbe60bf3d75ef465d3e404,0,44,44,136,1,onetwo,,,,,,,,,,,,,,,,,,,,,,,,,,,,,,,,,,,,,,,,,,,,,,,,,,,,,,,,,,,,,,,,,,,,,,,,,,,,,,,,,,,,,,,,,,,,,,,,,,,,,,,,,,,,,,,,,,,,,,,,,,,,,,,,,,,,,,,,,,,,,,,,,,,,,,,
,,,,,,6108e69e4540a09552a79cc1,62bbfa43364227246705e3ed,2022-06-29_10h08.09.273,Colour_Asymmetry_Pilot,2022.1.3,Win32,59.88741167,62bbe60bf3d75ef465d3e404,0,45,45,78,1,fourtwo,,,,,,,,,,,,,,,,,,,,,,,,,,,,,,,,,,,,,,,,,,,,,,,,,,,,,,,,,,,,,,,,,,,,,,,,,,,,,,,,,,,,,,,,,,,,,,,,,,,,,,,,,,,,,,,,,,,,,,,,,,,,,,,,,,,,,,,,,,,,,,,,,,,,,,,
,,,,,,6108e69e4540a09552a79cc1,62bbfa43364227246705e3ed,2022-06-29_10h08.09.273,Colour_Asymmetry_Pilot,2022.1.3,Win32,59.88741167,62bbe60bf3d75ef465d3e404,0,46,46,147,1,twofour,,,,,,,,,,,,,,,,,,,,,,,,,,,,,,,,,,,,,,,,,,,,,,,,,,,,,,,,,,,,,,,,,,,,,,,,,,,,,,,,,,,,,,,,,,,,,,,,,,,,,,,,,,,,,,,,,,,,,,,,,,,,,,,,,,,,,,,,,,,,,,,,,,,,,,,
,,,,,,6108e69e4540a09552a79cc1,62bbfa43364227246705e3ed,2022-06-29_10h08.09.273,Colour_Asymmetry_Pilot,2022.1.3,Win32,59.88741167,62bbe60bf3d75ef465d3e404,0,47,47,5,1,threefour,,,,,,,,,,,,,,,,,,,,,,,,,,,,,,,,,,,,,,,,,,,,,,,,,,,,,,,,,,,,,,,,,,,,,,,,,,,,,,,,,,,,,,,,,,,,,,,,,,,,,,,,,,,,,,,,,,,,,,,,,,,,,,,,,,,,,,,,,,,,,,,,,,,,,,,
,,,,,,6108e69e4540a09552a79cc1,62bbfa43364227246705e3ed,2022-06-29_10h08.09.273,Colour_Asymmetry_Pilot,2022.1.3,Win32,59.88741167,62bbe60bf3d75ef465d3e404,0,48,48,154,1,twoone,,,,,,,,,,,,,,,,,,,,,,,,,,,,,,,,,,,,,,,,,,,,,,,,,,,,,,,,,,,,,,,,,,,,,,,,,,,,,,,,,,,,,,,,,,,,,,,,,,,,,,,,,,,,,,,,,,,,,,,,,,,,,,,,,,,,,,,,,,,,,,,,,,,,,,,
,,,,,,6108e69e4540a09552a79cc1,62bbfa43364227246705e3ed,2022-06-29_10h08.09.273,Colour_Asymmetry_Pilot,2022.1.3,Win32,59.88741167,62bbe60bf3d75ef465d3e404,0,49,49,24,1,onetwo,,,,,,,,,,,,,,,,,,,,,,,,,,,,,,,,,,,,,,,,,,,,,,,,,,,,,,,,,,,,,,,,,,,,,,,,,,,,,,,,,,,,,,,,,,,,,,,,,,,,,,,,,,,,,,,,,,,,,,,,,,,,,,,,,,,,,,,,,,,,,,,,,,,,,,,
,,,,,,6108e69e4540a09552a79cc1,62bbfa43364227246705e3ed,2022-06-29_10h08.09.273,Colour_Asymmetry_Pilot,2022.1.3,Win32,59.88741167,62bbe60bf3d75ef465d3e404,0,50,50,63,1,fourthree,,,,,,,,,,,,,,,,,,,,,,,,,,,,,,,,,,,,,,,,,,,,,,,,,,,,,,,,,,,,,,,,,,,,,,,,,,,,,,,,,,,,,,,,,,,,,,,,,,,,,,,,,,,,,,,,,,,,,,,,,,,,,,,,,,,,,,,,,,,,,,,,,,,,,,,
,,,,,,6108e69e4540a09552a79cc1,62bbfa43364227246705e3ed,2022-06-29_10h08.09.273,Colour_Asymmetry_Pilot,2022.1.3,Win32,59.88741167,62bbe60bf3d75ef465d3e404,0,51,51,143,1,fourthree,,,,,,,,,,,,,,,,,,,,,,,,,,,,,,,,,,,,,,,,,,,,,,,,,,,,,,,,,,,,,,,,,,,,,,,,,,,,,,,,,,,,,,,,,,,,,,,,,,,,,,,,,,,,,,,,,,,,,,,,,,,,,,,,,,,,,,,,,,,,,,,,,,,,,,,
,,,,,,6108e69e4540a09552a79cc1,62bbfa43364227246705e3ed,2022-06-29_10h08.09.273,Colour_Asymmetry_Pilot,2022.1.3,Win32,59.88741167,62bbe60bf3d75ef465d3e404,0,52,52,123,1,twofour,,,,,,,,,,,,,,,,,,,,,,,,,,,,,,,,,,,,,,,,,,,,,,,,,,,,,,,,,,,,,,,,,,,,,,,,,,,,,,,,,,,,,,,,,,,,,,,,,,,,,,,,,,,,,,,,,,,,,,,,,,,,,,,,,,,,,,,,,,,,,,,,,,,,,,,
,,,,,,6108e69e4540a09552a79cc1,62bbfa43364227246705e3ed,2022-06-29_10h08.09.273,Colour_Asymmetry_Pilot,2022.1.3,Win32,59.88741167,62bbe60bf3d75ef465d3e404,0,53,53,10,1,twoone,,,,,,,,,,,,,,,,,,,,,,,,,,,,,,,,,,,,,,,,,,,,,,,,,,,,,,,,,,,,,,,,,,,,,,,,,,,,,,,,,,,,,,,,,,,,,,,,,,,,,,,,,,,,,,,,,,,,,,,,,,,,,,,,,,,,,,,,,,,,,,,,,,,,,,,
,,,,,,6108e69e4540a09552a79cc1,62bbfa43364227246705e3ed,2022-06-29_10h08.09.273,Colour_Asymmetry_Pilot,2022.1.3,Win32,59.88741167,62bbe60bf3d75ef465d3e404,0,54,54,134,1,fourtwo,,,,,,,,,,,,,,,,,,,,,,,,,,,,,,,,,,,,,,,,,,,,,,,,,,,,,,,,,,,,,,,,,,,,,,,,,,,,,,,,,,,,,,,,,,,,,,,,,,,,,,,,,,,,,,,,,,,,,,,,,,,,,,,,,,,,,,,,,,,,,,,,,,,,,,,
,,,,,,6108e69e4540a09552a79cc1,62bbfa43364227246705e3ed,2022-06-29_10h08.09.273,Colour_Asymmetry_Pilot,2022.1.3,Win32,59.88741167,62bbe60bf3d75ef465d3e404,0,55,55,25,1,onethree,,,,,,,,,,,,,,,,,,,,,,,,,,,,,,,,,,,,,,,,,,,,,,,,,,,,,,,,,,,,,,,,,,,,,,,,,,,,,,,,,,,,,,,,,,,,,,,,,,,,,,,,,,,,,,,,,,,,,,,,,,,,,,,,,,,,,,,,,,,,,,,,,,,,,,,
,,,,,,6108e69e4540a09552a79cc1,62bbfa43364227246705e3ed,2022-06-29_10h08.09.273,Colour_Asymmetry_Pilot,2022.1.3,Win32,59.88741167,62bbe60bf3d75ef465d3e404,0,56,56,29,1,threefour,,,,,,,,,,,,,,,,,,,,,,,,,,,,,,,,,,,,,,,,,,,,,,,,,,,,,,,,,,,,,,,,,,,,,,,,,,,,,,,,,,,,,,,,,,,,,,,,,,,,,,,,,,,,,,,,,,,,,,,,,,,,,,,,,,,,,,,,,,,,,,,,,,,,,,,
,,,,,,6108e69e4540a09552a79cc1,62bbfa43364227246705e3ed,2022-06-29_10h08.09.273,Colour_Asymmetry_Pilot,2022.1.3,Win32,59.88741167,62bbe60bf3d75ef465d3e404,0,57,57,48,1,onetwo,,,,,,,,,,,,,,,,,,,,,,,,,,,,,,,,,,,,,,,,,,,,,,,,,,,,,,,,,,,,,,,,,,,,,,,,,,,,,,,,,,,,,,,,,,,,,,,,,,,,,,,,,,,,,,,,,,,,,,,,,,,,,,,,,,,,,,,,,,,,,,,,,,,,,,,
,,,,,,6108e69e4540a09552a79cc1,62bbfa43364227246705e3ed,2022-06-29_10h08.09.273,Colour_Asymmetry_Pilot,2022.1.3,Win32,59.88741167,62bbe60bf3d75ef465d3e404,0,58,58,137,1,onethree,,,,,,,,,,,,,,,,,,,,,,,,,,,,,,,,,,,,,,,,,,,,,,,,,,,,,,,,,,,,,,,,,,,,,,,,,,,,,,,,,,,,,,,,,,,,,,,,,,,,,,,,,,,,,,,,,,,,,,,,,,,,,,,,,,,,,,,,,,,,,,,,,,,,,,,
,,,,,,6108e69e4540a09552a79cc1,62bbfa43364227246705e3ed,2022-06-29_10h08.09.273,Colour_Asymmetry_Pilot,2022.1.3,Win32,59.88741167,62bbe60bf3d75ef465d3e404,0,59,59,58,1,twoone,,,,,,,,,,,,,,,,,,,,,,,,,,,,,,,,,,,,,,,,,,,,,,,,,,,,,,,,,,,,,,,,,,,,,,,,,,,,,,,,,,,,,,,,,,,,,,,,,,,,,,,,,,,,,,,,,,,,,,,,,,,,,,,,,,,,,,,,,,,,,,,,,,,,,,,
,,,,,,6108e69e4540a09552a79cc1,62bbfa43364227246705e3ed,2022-06-29_10h08.09.273,Colour_Asymmetry_Pilot,2022.1.3,Win32,59.88741167,62bbe60bf3d75ef465d3e404,0,60,60,96,1,onetwo,,,,,,,,,,,,,,,,,,,,,,,,,,,,,,,,,,,,,,,,,,,,,,,,,,,,,,,,,,,,,,,,,,,,,,,,,,,,,,,,,,,,,,,,,,,,,,,,,,,,,,,,,,,,,,,,,,,,,,,,,,,,,,,,,,,,,,,,,,,,,,,,,,,,,,,
,,,,,,6108e69e4540a09552a79cc1,62bbfa43364227246705e3ed,2022-06-29_10h08.09.273,Colour_Asymmetry_Pilot,2022.1.3,Win32,59.88741167,62bbe60bf3d75ef465d3e404,0,61,61,105,1,onethree,,,,,,,,,,,,,,,,,,,,,,,,,,,,,,,,,,,,,,,,,,,,,,,,,,,,,,,,,,,,,,,,,,,,,,,,,,,,,,,,,,,,,,,,,,,,,,,,,,,,,,,,,,,,,,,,,,,,,,,,,,,,,,,,,,,,,,,,,,,,,,,,,,,,,,,
,,,,,,6108e69e4540a09552a79cc1,62bbfa43364227246705e3ed,2022-06-29_10h08.09.273,Colour_Asymmetry_Pilot,2022.1.3,Win32,59.88741167,62bbe60bf3d75ef465d3e404,0,62,62,139,1,twofour,,,,,,,,,,,,,,,,,,,,,,,,,,,,,,,,,,,,,,,,,,,,,,,,,,,,,,,,,,,,,,,,,,,,,,,,,,,,,,,,,,,,,,,,,,,,,,,,,,,,,,,,,,,,,,,,,,,,,,,,,,,,,,,,,,,,,,,,,,,,,,,,,,,,,,,
,,,,,,6108e69e4540a09552a79cc1,62bbfa43364227246705e3ed,2022-06-29_10h08.09.273,Colour_Asymmetry_Pilot,2022.1.3,Win32,59.88741167,62bbe60bf3d75ef465d3e404,0,63,63,150,1,fourtwo,,,,,,,,,,,,,,,,,,,,,,,,,,,,,,,,,,,,,,,,,,,,,,,,,,,,,,,,,,,,,,,,,,,,,,,,,,,,,,,,,,,,,,,,,,,,,,,,,,,,,,,,,,,,,,,,,,,,,,,,,,,,,,,,,,,,,,,,,,,,,,,,,,,,,,,
,,,,,,6108e69e4540a09552a79cc1,62bbfa43364227246705e3ed,2022-06-29_10h08.09.273,Colour_Asymmetry_Pilot,2022.1.3,Win32,59.88741167,62bbe60bf3d75ef465d3e404,0,64,64,16,1,onetwo,,,,,,,,,,,,,,,,,,,,,,,,,,,,,,,,,,,,,,,,,,,,,,,,,,,,,,,,,,,,,,,,,,,,,,,,,,,,,,,,,,,,,,,,,,,,,,,,,,,,,,,,,,,,,,,,,,,,,,,,,,,,,,,,,,,,,,,,,,,,,,,,,,,,,,,
,,,,,,6108e69e4540a09552a79cc1,62bbfa43364227246705e3ed,2022-06-29_10h08.09.273,Colour_Asymmetry_Pilot,2022.1.3,Win32,59.88741167,62bbe60bf3d75ef465d3e404,0,65,65,82,1,twoone,,,,,,,,,,,,,,,,,,,,,,,,,,,,,,,,,,,,,,,,,,,,,,,,,,,,,,,,,,,,,,,,,,,,,,,,,,,,,,,,,,,,,,,,,,,,,,,,,,,,,,,,,,,,,,,,,,,,,,,,,,,,,,,,,,,,,,,,,,,,,,,,,,,,,,,
,,,,,,6108e69e4540a09552a79cc1,62bbfa43364227246705e3ed,2022-06-29_10h08.09.273,Colour_Asymmetry_Pilot,2022.1.3,Win32,59.88741167,62bbe60bf3d75ef465d3e404,0,66,66,17,1,onethree,,,,,,,,,,,,,,,,,,,,,,,,,,,,,,,,,,,,,,,,,,,,,,,,,,,,,,,,,,,,,,,,,,,,,,,,,,,,,,,,,,,,,,,,,,,,,,,,,,,,,,,,,,,,,,,,,,,,,,,,,,,,,,,,,,,,,,,,,,,,,,,,,,,,,,,
,,,,,,6108e69e4540a09552a79cc1,62bbfa43364227246705e3ed,2022-06-29_10h08.09.273,Colour_Asymmetry_Pilot,2022.1.3,Win32,59.88741167,62bbe60bf3d75ef465d3e404,0,67,67,140,1,threeone,,,,,,,,,,,,,,,,,,,,,,,,,,,,,,,,,,,,,,,,,,,,,,,,,,,,,,,,,,,,,,,,,,,,,,,,,,,,,,,,,,,,,,,,,,,,,,,,,,,,,,,,,,,,,,,,,,,,,,,,,,,,,,,,,,,,,,,,,,,,,,,,,,,,,,,
,,,,,,6108e69e4540a09552a79cc1,62bbfa43364227246705e3ed,2022-06-29_10h08.09.273,Colour_Asymmetry_Pilot,2022.1.3,Win32,59.88741167,62bbe60bf3d75ef465d3e404,0,68,68,31,1,fourthree,,,,,,,,,,,,,,,,,,,,,,,,,,,,,,,,,,,,,,,,,,,,,,,,,,,,,,,,,,,,,,,,,,,,,,,,,,,,,,,,,,,,,,,,,,,,,,,,,,,,,,,,,,,,,,,,,,,,,,,,,,,,,,,,,,,,,,,,,,,,,,,,,,,,,,,
,,,,,,6108e69e4540a09552a79cc1,62bbfa43364227246705e3ed,2022-06-29_10h08.09.273,Colour_Asymmetry_Pilot,2022.1.3,Win32,59.88741167,62bbe60bf3d75ef465d3e404,0,69,69,69,1,threefour,,,,,,,,,,,,,,,,,,,,,,,,,,,,,,,,,,,,,,,,,,,,,,,,,,,,,,,,,,,,,,,,,,,,,,,,,,,,,,,,,,,,,,,,,,,,,,,,,,,,,,,,,,,,,,,,,,,,,,,,,,,,,,,,,,,,,,,,,,,,,,,,,,,,,,,
,,,,,,6108e69e4540a09552a79cc1,62bbfa43364227246705e3ed,2022-06-29_10h08.09.273,Colour_Asymmetry_Pilot,2022.1.3,Win32,59.88741167,62bbe60bf3d75ef465d3e404,0,70,70,97,1,onethree,,,,,,,,,,,,,,,,,,,,,,,,,,,,,,,,,,,,,,,,,,,,,,,,,,,,,,,,,,,,,,,,,,,,,,,,,,,,,,,,,,,,,,,,,,,,,,,,,,,,,,,,,,,,,,,,,,,,,,,,,,,,,,,,,,,,,,,,,,,,,,,,,,,,,,,
,,,,,,6108e69e4540a09552a79cc1,62bbfa43364227246705e3ed,2022-06-29_10h08.09.273,Colour_Asymmetry_Pilot,2022.1.3,Win32,59.88741167,62bbe60bf3d75ef465d3e404,0,71,71,110,1,fourtwo,,,,,,,,,,,,,,,,,,,,,,,,,,,,,,,,,,,,,,,,,,,,,,,,,,,,,,,,,,,,,,,,,,,,,,,,,,,,,,,,,,,,,,,,,,,,,,,,,,,,,,,,,,,,,,,,,,,,,,,,,,,,,,,,,,,,,,,,,,,,,,,,,,,,,,,
,,,,,,6108e69e4540a09552a79cc1,62bbfa43364227246705e3ed,2022-06-29_10h08.09.273,Colour_Asymmetry_Pilot,2022.1.3,Win32,59.88741167,62bbe60bf3d75ef465d3e404,0,72,72,111,1,fourthree,,,,,,,,,,,,,,,,,,,,,,,,,,,,,,,,,,,,,,,,,,,,,,,,,,,,,,,,,,,,,,,,,,,,,,,,,,,,,,,,,,,,,,,,,,,,,,,,,,,,,,,,,,,,,,,,,,,,,,,,,,,,,,,,,,,,,,,,,,,,,,,,,,,,,,,
,,,,,,6108e69e4540a09552a79cc1,62bbfa43364227246705e3ed,2022-06-29_10h08.09.273,Colour_Asymmetry_Pilot,2022.1.3,Win32,59.88741167,62bbe60bf3d75ef465d3e404,0,73,73,158,1,fourtwo,,,,,,,,,,,,,,,,,,,,,,,,,,,,,,,,,,,,,,,,,,,,,,,,,,,,,,,,,,,,,,,,,,,,,,,,,,,,,,,,,,,,,,,,,,,,,,,,,,,,,,,,,,,,,,,,,,,,,,,,,,,,,,,,,,,,,,,,,,,,,,,,,,,,,,,
,,,,,,6108e69e4540a09552a79cc1,62bbfa43364227246705e3ed,2022-06-29_10h08.09.273,Colour_Asymmetry_Pilot,2022.1.3,Win32,59.88741167,62bbe60bf3d75ef465d3e404,0,74,74,0,1,onetwo,,,,,,,,,,,,,,,,,,,,,,,,,,,,,,,,,,,,,,,,,,,,,,,,,,,,,,,,,,,,,,,,,,,,,,,,,,,,,,,,,,,,,,,,,,,,,,,,,,,,,,,,,,,,,,,,,,,,,,,,,,,,,,,,,,,,,,,,,,,,,,,,,,,,,,,
,,,,,,6108e69e4540a09552a79cc1,62bbfa43364227246705e3ed,2022-06-29_10h08.09.273,Colour_Asymmetry_Pilot,2022.1.3,Win32,59.88741167,62bbe60bf3d75ef465d3e404,0,75,75,100,1,threeone,,,,,,,,,,,,,,,,,,,,,,,,,,,,,,,,,,,,,,,,,,,,,,,,,,,,,,,,,,,,,,,,,,,,,,,,,,,,,,,,,,,,,,,,,,,,,,,,,,,,,,,,,,,,,,,,,,,,,,,,,,,,,,,,,,,,,,,,,,,,,,,,,,,,,,,
,,,,,,6108e69e4540a09552a79cc1,62bbfa43364227246705e3ed,2022-06-29_10h08.09.273,Colour_Asymmetry_Pilot,2022.1.3,Win32,59.88741167,62bbe60bf3d75ef465d3e404,0,76,76,91,1,twofour,,,,,,,,,,,,,,,,,,,,,,,,,,,,,,,,,,,,,,,,,,,,,,,,,,,,,,,,,,,,,,,,,,,,,,,,,,,,,,,,,,,,,,,,,,,,,,,,,,,,,,,,,,,,,,,,,,,,,,,,,,,,,,,,,,,,,,,,,,,,,,,,,,,,,,,
,,,,,,6108e69e4540a09552a79cc1,62bbfa43364227246705e3ed,2022-06-29_10h08.09.273,Colour_Asymmetry_Pilot,2022.1.3,Win32,59.88741167,62bbe60bf3d75ef465d3e404,0,77,77,125,1,threefour,,,,,,,,,,,,,,,,,,,,,,,,,,,,,,,,,,,,,,,,,,,,,,,,,,,,,,,,,,,,,,,,,,,,,,,,,,,,,,,,,,,,,,,,,,,,,,,,,,,,,,,,,,,,,,,,,,,,,,,,,,,,,,,,,,,,,,,,,,,,,,,,,,,,,,,
,,,,,,6108e69e4540a09552a79cc1,62bbfa43364227246705e3ed,2022-06-29_10h08.09.273,Colour_Asymmetry_Pilot,2022.1.3,Win32,59.88741167,62bbe60bf3d75ef465d3e404,0,78,78,57,1,onethree,,,,,,,,,,,,,,,,,,,,,,,,,,,,,,,,,,,,,,,,,,,,,,,,,,,,,,,,,,,,,,,,,,,,,,,,,,,,,,,,,,,,,,,,,,,,,,,,,,,,,,,,,,,,,,,,,,,,,,,,,,,,,,,,,,,,,,,,,,,,,,,,,,,,,,,
,,,,,,6108e69e4540a09552a79cc1,62bbfa43364227246705e3ed,2022-06-29_10h08.09.273,Colour_Asymmetry_Pilot,2022.1.3,Win32,59.88741167,62bbe60bf3d75ef465d3e404,0,79,79,152,1,onetwo,,,,,,,,,,,,,,,,,,,,,,,,,,,,,,,,,,,,,,,,,,,,,,,,,,,,,,,,,,,,,,,,,,,,,,,,,,,,,,,,,,,,,,,,,,,,,,,,,,,,,,,,,,,,,,,,,,,,,,,,,,,,,,,,,,,,,,,,,,,,,,,,,,,,,,,
,,,,,,6108e69e4540a09552a79cc1,62bbfa43364227246705e3ed,2022-06-29_10h08.09.273,Colour_Asymmetry_Pilot,2022.1.3,Win32,59.88741167,62bbe60bf3d75ef465d3e404,0,80,80,161,1,onethree,,,,,,,,,,,,,,,,,,,,,,,,,,,,,,,,,,,,,,,,,,,,,,,,,,,,,,,,,,,,,,,,,,,,,,,,,,,,,,,,,,,,,,,,,,,,,,,,,,,,,,,,,,,,,,,,,,,,,,,,,,,,,,,,,,,,,,,,,,,,,,,,,,,,,,,
,,,,,,6108e69e4540a09552a79cc1,62bbfa43364227246705e3ed,2022-06-29_10h08.09.273,Colour_Asymmetry_Pilot,2022.1.3,Win32,59.88741167,62bbe60bf3d75ef465d3e404,0,81,81,46,1,fourtwo,,,,,,,,,,,,,,,,,,,,,,,,,,,,,,,,,,,,,,,,,,,,,,,,,,,,,,,,,,,,,,,,,,,,,,,,,,,,,,,,,,,,,,,,,,,,,,,,,,,,,,,,,,,,,,,,,,,,,,,,,,,,,,,,,,,,,,,,,,,,,,,,,,,,,,,
,,,,,,6108e69e4540a09552a79cc1,62bbfa43364227246705e3ed,2022-06-29_10h08.09.273,Colour_Asymmetry_Pilot,2022.1.3,Win32,59.88741167,62bbe60bf3d75ef465d3e404,0,82,82,37,1,threefour,,,,,,,,,,,,,,,,,,,,,,,,,,,,,,,,,,,,,,,,,,,,,,,,,,,,,,,,,,,,,,,,,,,,,,,,,,,,,,,,,,,,,,,,,,,,,,,,,,,,,,,,,,,,,,,,,,,,,,,,,,,,,,,,,,,,,,,,,,,,,,,,,,,,,,,
,,,,,,6108e69e4540a09552a79cc1,62bbfa43364227246705e3ed,2022-06-29_10h08.09.273,Colour_Asymmetry_Pilot,2022.1.3,Win32,59.88741167,62bbe60bf3d75ef465d3e404,0,83,83,41,1,onethree,,,,,,,,,,,,,,,,,,,,,,,,,,,,,,,,,,,,,,,,,,,,,,,,,,,,,,,,,,,,,,,,,,,,,,,,,,,,,,,,,,,,,,,,,,,,,,,,,,,,,,,,,,,,,,,,,,,,,,,,,,,,,,,,,,,,,,,,,,,,,,,,,,,,,,,
,,,,,,6108e69e4540a09552a79cc1,62bbfa43364227246705e3ed,2022-06-29_10h08.09.273,Colour_Asymmetry_Pilot,2022.1.3,Win32,59.88741167,62bbe60bf3d75ef465d3e404,0,84,84,98,1,twoone,,,,,,,,,,,,,,,,,,,,,,,,,,,,,,,,,,,,,,,,,,,,,,,,,,,,,,,,,,,,,,,,,,,,,,,,,,,,,,,,,,,,,,,,,,,,,,,,,,,,,,,,,,,,,,,,,,,,,,,,,,,,,,,,,,,,,,,,,,,,,,,,,,,,,,,
,,,,,,6108e69e4540a09552a79cc1,62bbfa43364227246705e3ed,2022-06-29_10h08.09.273,Colour_Asymmetry_Pilot,2022.1.3,Win32,59.88741167,62bbe60bf3d75ef465d3e404,0,85,85,148,1,threeone,,,,,,,,,,,,,,,,,,,,,,,,,,,,,,,,,,,,,,,,,,,,,,,,,,,,,,,,,,,,,,,,,,,,,,,,,,,,,,,,,,,,,,,,,,,,,,,,,,,,,,,,,,,,,,,,,,,,,,,,,,,,,,,,,,,,,,,,,,,,,,,,,,,,,,,
,,,,,,6108e69e4540a09552a79cc1,62bbfa43364227246705e3ed,2022-06-29_10h08.09.273,Colour_Asymmetry_Pilot,2022.1.3,Win32,59.88741167,62bbe60bf3d75ef465d3e404,0,86,86,2,1,twoone,,,,,,,,,,,,,,,,,,,,,,,,,,,,,,,,,,,,,,,,,,,,,,,,,,,,,,,,,,,,,,,,,,,,,,,,,,,,,,,,,,,,,,,,,,,,,,,,,,,,,,,,,,,,,,,,,,,,,,,,,,,,,,,,,,,,,,,,,,,,,,,,,,,,,,,
,,,,,,6108e69e4540a09552a79cc1,62bbfa43364227246705e3ed,2022-06-29_10h08.09.273,Colour_Asymmetry_Pilot,2022.1.3,Win32,59.88741167,62bbe60bf3d75ef465d3e404,0,87,87,145,1,onethree,,,,,,,,,,,,,,,,,,,,,,,,,,,,,,,,,,,,,,,,,,,,,,,,,,,,,,,,,,,,,,,,,,,,,,,,,,,,,,,,,,,,,,,,,,,,,,,,,,,,,,,,,,,,,,,,,,,,,,,,,,,,,,,,,,,,,,,,,,,,,,,,,,,,,,,
,,,,,,6108e69e4540a09552a79cc1,62bbfa43364227246705e3ed,2022-06-29_10h08.09.273,Colour_Asymmetry_Pilot,2022.1.3,Win32,59.88741167,62bbe60bf3d75ef465d3e404,0,88,88,28,1,threeone,,,,,,,,,,,,,,,,,,,,,,,,,,,,,,,,,,,,,,,,,,,,,,,,,,,,,,,,,,,,,,,,,,,,,,,,,,,,,,,,,,,,,,,,,,,,,,,,,,,,,,,,,,,,,,,,,,,,,,,,,,,,,,,,,,,,,,,,,,,,,,,,,,,,,,,
,,,,,,6108e69e4540a09552a79cc1,62bbfa43364227246705e3ed,2022-06-29_10h08.09.273,Colour_Asymmetry_Pilot,2022.1.3,Win32,59.88741167,62bbe60bf3d75ef465d3e404,0,89,89,14,1,fourtwo,,,,,,,,,,,,,,,,,,,,,,,,,,,,,,,,,,,,,,,,,,,,,,,,,,,,,,,,,,,,,,,,,,,,,,,,,,,,,,,,,,,,,,,,,,,,,,,,,,,,,,,,,,,,,,,,,,,,,,,,,,,,,,,,,,,,,,,,,,,,,,,,,,,,,,,
,,,,,,6108e69e4540a09552a79cc1,62bbfa43364227246705e3ed,2022-06-29_10h08.09.273,Colour_Asymmetry_Pilot,2022.1.3,Win32,59.88741167,62bbe60bf3d75ef465d3e404,0,90,90,133,1,threefour,,,,,,,,,,,,,,,,,,,,,,,,,,,,,,,,,,,,,,,,,,,,,,,,,,,,,,,,,,,,,,,,,,,,,,,,,,,,,,,,,,,,,,,,,,,,,,,,,,,,,,,,,,,,,,,,,,,,,,,,,,,,,,,,,,,,,,,,,,,,,,,,,,,,,,,
,,,,,,6108e69e4540a09552a79cc1,62bbfa43364227246705e3ed,2022-06-29_10h08.09.273,Colour_Asymmetry_Pilot,2022.1.3,Win32,59.88741167,62bbe60bf3d75ef465d3e404,0,91,91,42,1,twoone,,,,,,,,,,,,,,,,,,,,,,,,,,,,,,,,,,,,,,,,,,,,,,,,,,,,,,,,,,,,,,,,,,,,,,,,,,,,,,,,,,,,,,,,,,,,,,,,,,,,,,,,,,,,,,,,,,,,,,,,,,,,,,,,,,,,,,,,,,,,,,,,,,,,,,,
,,,,,,6108e69e4540a09552a79cc1,62bbfa43364227246705e3ed,2022-06-29_10h08.09.273,Colour_Asymmetry_Pilot,2022.1.3,Win32,59.88741167,62bbe60bf3d75ef465d3e404,0,92,92,76,1,threeone,,,,,,,,,,,,,,,,,,,,,,,,,,,,,,,,,,,,,,,,,,,,,,,,,,,,,,,,,,,,,,,,,,,,,,,,,,,,,,,,,,,,,,,,,,,,,,,,,,,,,,,,,,,,,,,,,,,,,,,,,,,,,,,,,,,,,,,,,,,,,,,,,,,,,,,
,,,,,,6108e69e4540a09552a79cc1,62bbfa43364227246705e3ed,2022-06-29_10h08.09.273,Colour_Asymmetry_Pilot,2022.1.3,Win32,59.88741167,62bbe60bf3d75ef465d3e404,0,93,93,128,1,onetwo,,,,,,,,,,,,,,,,,,,,,,,,,,,,,,,,,,,,,,,,,,,,,,,,,,,,,,,,,,,,,,,,,,,,,,,,,,,,,,,,,,,,,,,,,,,,,,,,,,,,,,,,,,,,,,,,,,,,,,,,,,,,,,,,,,,,,,,,,,,,,,,,,,,,,,,
,,,,,,6108e69e4540a09552a79cc1,62bbfa43364227246705e3ed,2022-06-29_10h08.09.273,Colour_Asymmetry_Pilot,2022.1.3,Win32,59.88741167,62bbe60bf3d75ef465d3e404,0,94,94,131,1,twofour,,,,,,,,,,,,,,,,,,,,,,,,,,,,,,,,,,,,,,,,,,,,,,,,,,,,,,,,,,,,,,,,,,,,,,,,,,,,,,,,,,,,,,,,,,,,,,,,,,,,,,,,,,,,,,,,,,,,,,,,,,,,,,,,,,,,,,,,,,,,,,,,,,,,,,,
,,,,,,6108e69e4540a09552a79cc1,62bbfa43364227246705e3ed,2022-06-29_10h08.09.273,Colour_Asymmetry_Pilot,2022.1.3,Win32,59.88741167,62bbe60bf3d75ef465d3e404,0,95,95,87,1,fourthree,,,,,,,,,,,,,,,,,,,,,,,,,,,,,,,,,,,,,,,,,,,,,,,,,,,,,,,,,,,,,,,,,,,,,,,,,,,,,,,,,,,,,,,,,,,,,,,,,,,,,,,,,,,,,,,,,,,,,,,,,,,,,,,,,,,,,,,,,,,,,,,,,,,,,,,
,,,,,,6108e69e4540a09552a79cc1,62bbfa43364227246705e3ed,2022-06-29_10h08.09.273,Colour_Asymmetry_Pilot,2022.1.3,Win32,59.88741167,62bbe60bf3d75ef465d3e404,0,96,96,49,1,onethree,,,,,,,,,,,,,,,,,,,,,,,,,,,,,,,,,,,,,,,,,,,,,,,,,,,,,,,,,,,,,,,,,,,,,,,,,,,,,,,,,,,,,,,,,,,,,,,,,,,,,,,,,,,,,,,,,,,,,,,,,,,,,,,,,,,,,,,,,,,,,,,,,,,,,,,
,,,,,,6108e69e4540a09552a79cc1,62bbfa43364227246705e3ed,2022-06-29_10h08.09.273,Colour_Asymmetry_Pilot,2022.1.3,Win32,59.88741167,62bbe60bf3d75ef465d3e404,0,97,97,130,1,twoone,,,,,,,,,,,,,,,,,,,,,,,,,,,,,,,,,,,,,,,,,,,,,,,,,,,,,,,,,,,,,,,,,,,,,,,,,,,,,,,,,,,,,,,,,,,,,,,,,,,,,,,,,,,,,,,,,,,,,,,,,,,,,,,,,,,,,,,,,,,,,,,,,,,,,,,
,,,,,,6108e69e4540a09552a79cc1,62bbfa43364227246705e3ed,2022-06-29_10h08.09.273,Colour_Asymmetry_Pilot,2022.1.3,Win32,59.88741167,62bbe60bf3d75ef465d3e404,0,98,98,113,1,onethree,,,,,,,,,,,,,,,,,,,,,,,,,,,,,,,,,,,,,,,,,,,,,,,,,,,,,,,,,,,,,,,,,,,,,,,,,,,,,,,,,,,,,,,,,,,,,,,,,,,,,,,,,,,,,,,,,,,,,,,,,,,,,,,,,,,,,,,,,,,,,,,,,,,,,,,
,,,,,,6108e69e4540a09552a79cc1,62bbfa43364227246705e3ed,2022-06-29_10h08.09.273,Colour_Asymmetry_Pilot,2022.1.3,Win32,59.88741167,62bbe60bf3d75ef465d3e404,0,99,99,102,1,fourtwo,,,,,,,,,,,,,,,,,,,,,,,,,,,,,,,,,,,,,,,,,,,,,,,,,,,,,,,,,,,,,,,,,,,,,,,,,,,,,,,,,,,,,,,,,,,,,,,,,,,,,,,,,,,,,,,,,,,,,,,,,,,,,,,,,,,,,,,,,,,,,,,,,,,,,,,
,,,,,,6108e69e4540a09552a79cc1,62bbfa43364227246705e3ed,2022-06-29_10h08.09.273,Colour_Asymmetry_Pilot,2022.1.3,Win32,59.88741167,62bbe60bf3d75ef465d3e404,0,100,100,54,1,fourtwo,,,,,,,,,,,,,,,,,,,,,,,,,,,,,,,,,,,,,,,,,,,,,,,,,,,,,,,,,,,,,,,,,,,,,,,,,,,,,,,,,,,,,,,,,,,,,,,,,,,,,,,,,,,,,,,,,,,,,,,,,,,,,,,,,,,,,,,,,,,,,,,,,,,,,,,
,,,,,,6108e69e4540a09552a79cc1,62bbfa43364227246705e3ed,2022-06-29_10h08.09.273,Colour_Asymmetry_Pilot,2022.1.3,Win32,59.88741167,62bbe60bf3d75ef465d3e404,0,101,101,73,1,onethree,,,,,,,,,,,,,,,,,,,,,,,,,,,,,,,,,,,,,,,,,,,,,,,,,,,,,,,,,,,,,,,,,,,,,,,,,,,,,,,,,,,,,,,,,,,,,,,,,,,,,,,,,,,,,,,,,,,,,,,,,,,,,,,,,,,,,,,,,,,,,,,,,,,,,,,
,,,,,,6108e69e4540a09552a79cc1,62bbfa43364227246705e3ed,2022-06-29_10h08.09.273,Colour_Asymmetry_Pilot,2022.1.3,Win32,59.88741167,62bbe60bf3d75ef465d3e404,0,102,102,1,1,onethree,,,,,,,,,,,,,,,,,,,,,,,,,,,,,,,,,,,,,,,,,,,,,,,,,,,,,,,,,,,,,,,,,,,,,,,,,,,,,,,,,,,,,,,,,,,,,,,,,,,,,,,,,,,,,,,,,,,,,,,,,,,,,,,,,,,,,,,,,,,,,,,,,,,,,,,
,,,,,,6108e69e4540a09552a79cc1,62bbfa43364227246705e3ed,2022-06-29_10h08.09.273,Colour_Asymmetry_Pilot,2022.1.3,Win32,59.88741167,62bbe60bf3d75ef465d3e404,0,103,103,38,1,fourtwo,,,,,,,,,,,,,,,,,,,,,,,,,,,,,,,,,,,,,,,,,,,,,,,,,,,,,,,,,,,,,,,,,,,,,,,,,,,,,,,,,,,,,,,,,,,,,,,,,,,,,,,,,,,,,,,,,,,,,,,,,,,,,,,,,,,,,,,,,,,,,,,,,,,,,,,
,,,,,,6108e69e4540a09552a79cc1,62bbfa43364227246705e3ed,2022-06-29_10h08.09.273,Colour_Asymmetry_Pilot,2022.1.3,Win32,59.88741167,62bbe60bf3d75ef465d3e404,0,104,104,112,1,onetwo,,,,,,,,,,,,,,,,,,,,,,,,,,,,,,,,,,,,,,,,,,,,,,,,,,,,,,,,,,,,,,,,,,,,,,,,,,,,,,,,,,,,,,,,,,,,,,,,,,,,,,,,,,,,,,,,,,,,,,,,,,,,,,,,,,,,,,,,,,,,,,,,,,,,,,,
,,,,,,6108e69e4540a09552a79cc1,62bbfa43364227246705e3ed,2022-06-29_10h08.09.273,Colour_Asymmetry_Pilot,2022.1.3,Win32,59.88741167,62bbe60bf3d75ef465d3e404,0,105,105,61,1,threefour,,,,,,,,,,,,,,,,,,,,,,,,,,,,,,,,,,,,,,,,,,,,,,,,,,,,,,,,,,,,,,,,,,,,,,,,,,,,,,,,,,,,,,,,,,,,,,,,,,,,,,,,,,,,,,,,,,,,,,,,,,,,,,,,,,,,,,,,,,,,,,,,,,,,,,,
,,,,,,6108e69e4540a09552a79cc1,62bbfa43364227246705e3ed,2022-06-29_10h08.09.273,Colour_Asymmetry_Pilot,2022.1.3,Win32,59.88741167,62bbe60bf3d75ef465d3e404,0,106,106,146,1,twoone,,,,,,,,,,,,,,,,,,,,,,,,,,,,,,,,,,,,,,,,,,,,,,,,,,,,,,,,,,,,,,,,,,,,,,,,,,,,,,,,,,,,,,,,,,,,,,,,,,,,,,,,,,,,,,,,,,,,,,,,,,,,,,,,,,,,,,,,,,,,,,,,,,,,,,,
,,,,,,6108e69e4540a09552a79cc1,62bbfa43364227246705e3ed,2022-06-29_10h08.09.273,Colour_Asymmetry_Pilot,2022.1.3,Win32,59.88741167,62bbe60bf3d75ef465d3e404,0,107,107,114,1,twoone,,,,,,,,,,,,,,,,,,,,,,,,,,,,,,,,,,,,,,,,,,,,,,,,,,,,,,,,,,,,,,,,,,,,,,,,,,,,,,,,,,,,,,,,,,,,,,,,,,,,,,,,,,,,,,,,,,,,,,,,,,,,,,,,,,,,,,,,,,,,,,,,,,,,,,,
,,,,,,6108e69e4540a09552a79cc1,62bbfa43364227246705e3ed,2022-06-29_10h08.09.273,Colour_Asymmetry_Pilot,2022.1.3,Win32,59.88741167,62bbe60bf3d75ef465d3e404,0,108,108,72,1,onetwo,,,,,,,,,,,,,,,,,,,,,,,,,,,,,,,,,,,,,,,,,,,,,,,,,,,,,,,,,,,,,,,,,,,,,,,,,,,,,,,,,,,,,,,,,,,,,,,,,,,,,,,,,,,,,,,,,,,,,,,,,,,,,,,,,,,,,,,,,,,,,,,,,,,,,,,
,,,,,,6108e69e4540a09552a79cc1,62bbfa43364227246705e3ed,2022-06-29_10h08.09.273,Colour_Asymmetry_Pilot,2022.1.3,Win32,59.88741167,62bbe60bf3d75ef465d3e404,0,109,109,120,1,onetwo,,,,,,,,,,,,,,,,,,,,,,,,,,,,,,,,,,,,,,,,,,,,,,,,,,,,,,,,,,,,,,,,,,,,,,,,,,,,,,,,,,,,,,,,,,,,,,,,,,,,,,,,,,,,,,,,,,,,,,,,,,,,,,,,,,,,,,,,,,,,,,,,,,,,,,,
,,,,,,6108e69e4540a09552a79cc1,62bbfa43364227246705e3ed,2022-06-29_10h08.09.273,Colour_Asymmetry_Pilot,2022.1.3,Win32,59.88741167,62bbe60bf3d75ef465d3e404,0,110,110,30,1,fourtwo,,,,,,,,,,,,,,,,,,,,,,,,,,,,,,,,,,,,,,,,,,,,,,,,,,,,,,,,,,,,,,,,,,,,,,,,,,,,,,,,,,,,,,,,,,,,,,,,,,,,,,,,,,,,,,,,,,,,,,,,,,,,,,,,,,,,,,,,,,,,,,,,,,,,,,,
,,,,,,6108e69e4540a09552a79cc1,62bbfa43364227246705e3ed,2022-06-29_10h08.09.273,Colour_Asymmetry_Pilot,2022.1.3,Win32,59.88741167,62bbe60bf3d75ef465d3e404,0,111,111,106,1,twoone,,,,,,,,,,,,,,,,,,,,,,,,,,,,,,,,,,,,,,,,,,,,,,,,,,,,,,,,,,,,,,,,,,,,,,,,,,,,,,,,,,,,,,,,,,,,,,,,,,,,,,,,,,,,,,,,,,,,,,,,,,,,,,,,,,,,,,,,,,,,,,,,,,,,,,,
,,,,,,6108e69e4540a09552a79cc1,62bbfa43364227246705e3ed,2022-06-29_10h08.09.273,Colour_Asymmetry_Pilot,2022.1.3,Win32,59.88741167,62bbe60bf3d75ef465d3e404,0,112,112,157,1,threefour,,,,,,,,,,,,,,,,,,,,,,,,,,,,,,,,,,,,,,,,,,,,,,,,,,,,,,,,,,,,,,,,,,,,,,,,,,,,,,,,,,,,,,,,,,,,,,,,,,,,,,,,,,,,,,,,,,,,,,,,,,,,,,,,,,,,,,,,,,,,,,,,,,,,,,,
,,,,,,6108e69e4540a09552a79cc1,62bbfa43364227246705e3ed,2022-06-29_10h08.09.273,Colour_Asymmetry_Pilot,2022.1.3,Win32,59.88741167,62bbe60bf3d75ef465d3e404,0,113,113,77,1,threefour,,,,,,,,,,,,,,,,,,,,,,,,,,,,,,,,,,,,,,,,,,,,,,,,,,,,,,,,,,,,,,,,,,,,,,,,,,,,,,,,,,,,,,,,,,,,,,,,,,,,,,,,,,,,,,,,,,,,,,,,,,,,,,,,,,,,,,,,,,,,,,,,,,,,,,,
,,,,,,6108e69e4540a09552a79cc1,62bbfa43364227246705e3ed,2022-06-29_10h08.09.273,Colour_Asymmetry_Pilot,2022.1.3,Win32,59.88741167,62bbe60bf3d75ef465d3e404,0,114,114,80,1,onetwo,,,,,,,,,,,,,,,,,,,,,,,,,,,,,,,,,,,,,,,,,,,,,,,,,,,,,,,,,,,,,,,,,,,,,,,,,,,,,,,,,,,,,,,,,,,,,,,,,,,,,,,,,,,,,,,,,,,,,,,,,,,,,,,,,,,,,,,,,,,,,,,,,,,,,,,
,,,,,,6108e69e4540a09552a79cc1,62bbfa43364227246705e3ed,2022-06-29_10h08.09.273,Colour_Asymmetry_Pilot,2022.1.3,Win32,59.88741167,62bbe60bf3d75ef465d3e404,0,115,115,60,1,threeone,,,,,,,,,,,,,,,,,,,,,,,,,,,,,,,,,,,,,,,,,,,,,,,,,,,,,,,,,,,,,,,,,,,,,,,,,,,,,,,,,,,,,,,,,,,,,,,,,,,,,,,,,,,,,,,,,,,,,,,,,,,,,,,,,,,,,,,,,,,,,,,,,,,,,,,
,,,,,,6108e69e4540a09552a79cc1,62bbfa43364227246705e3ed,2022-06-29_10h08.09.273,Colour_Asymmetry_Pilot,2022.1.3,Win32,59.88741167,62bbe60bf3d75ef465d3e404,0,116,116,109,1,threefour,,,,,,,,,,,,,,,,,,,,,,,,,,,,,,,,,,,,,,,,,,,,,,,,,,,,,,,,,,,,,,,,,,,,,,,,,,,,,,,,,,,,,,,,,,,,,,,,,,,,,,,,,,,,,,,,,,,,,,,,,,,,,,,,,,,,,,,,,,,,,,,,,,,,,,,
,,,,,,6108e69e4540a09552a79cc1,62bbfa43364227246705e3ed,2022-06-29_10h08.09.273,Colour_Asymmetry_Pilot,2022.1.3,Win32,59.88741167,62bbe60bf3d75ef465d3e404,0,117,117,34,1,twoone,,,,,,,,,,,,,,,,,,,,,,,,,,,,,,,,,,,,,,,,,,,,,,,,,,,,,,,,,,,,,,,,,,,,,,,,,,,,,,,,,,,,,,,,,,,,,,,,,,,,,,,,,,,,,,,,,,,,,,,,,,,,,,,,,,,,,,,,,,,,,,,,,,,,,,,
,,,,,,6108e69e4540a09552a79cc1,62bbfa43364227246705e3ed,2022-06-29_10h08.09.273,Colour_Asymmetry_Pilot,2022.1.3,Win32,59.88741167,62bbe60bf3d75ef465d3e404,0,118,118,56,1,onetwo,,,,,,,,,,,,,,,,,,,,,,,,,,,,,,,,,,,,,,,,,,,,,,,,,,,,,,,,,,,,,,,,,,,,,,,,,,,,,,,,,,,,,,,,,,,,,,,,,,,,,,,,,,,,,,,,,,,,,,,,,,,,,,,,,,,,,,,,,,,,,,,,,,,,,,,
,,,,,,6108e69e4540a09552a79cc1,62bbfa43364227246705e3ed,2022-06-29_10h08.09.273,Colour_Asymmetry_Pilot,2022.1.3,Win32,59.88741167,62bbe60bf3d75ef465d3e404,0,119,119,65,1,onethree,,,,,,,,,,,,,,,,,,,,,,,,,,,,,,,,,,,,,,,,,,,,,,,,,,,,,,,,,,,,,,,,,,,,,,,,,,,,,,,,,,,,,,,,,,,,,,,,,,,,,,,,,,,,,,,,,,,,,,,,,,,,,,,,,,,,,,,,,,,,,,,,,,,,,,,
,,,,,,6108e69e4540a09552a79cc1,62bbfa43364227246705e3ed,2022-06-29_10h08.09.273,Colour_Asymmetry_Pilot,2022.1.3,Win32,59.88741167,62bbe60bf3d75ef465d3e404,0,120,120,45,1,threefour,,,,,,,,,,,,,,,,,,,,,,,,,,,,,,,,,,,,,,,,,,,,,,,,,,,,,,,,,,,,,,,,,,,,,,,,,,,,,,,,,,,,,,,,,,,,,,,,,,,,,,,,,,,,,,,,,,,,,,,,,,,,,,,,,,,,,,,,,,,,,,,,,,,,,,,
,,,,,,6108e69e4540a09552a79cc1,62bbfa43364227246705e3ed,2022-06-29_10h08.09.273,Colour_Asymmetry_Pilot,2022.1.3,Win32,59.88741167,62bbe60bf3d75ef465d3e404,0,121,121,79,1,fourthree,,,,,,,,,,,,,,,,,,,,,,,,,,,,,,,,,,,,,,,,,,,,,,,,,,,,,,,,,,,,,,,,,,,,,,,,,,,,,,,,,,,,,,,,,,,,,,,,,,,,,,,,,,,,,,,,,,,,,,,,,,,,,,,,,,,,,,,,,,,,,,,,,,,,,,,
,,,,,,6108e69e4540a09552a79cc1,62bbfa43364227246705e3ed,2022-06-29_10h08.09.273,Colour_Asymmetry_Pilot,2022.1.3,Win32,59.88741167,62bbe60bf3d75ef465d3e404,0,122,122,160,1,onetwo,,,,,,,,,,,,,,,,,,,,,,,,,,,,,,,,,,,,,,,,,,,,,,,,,,,,,,,,,,,,,,,,,,,,,,,,,,,,,,,,,,,,,,,,,,,,,,,,,,,,,,,,,,,,,,,,,,,,,,,,,,,,,,,,,,,,,,,,,,,,,,,,,,,,,,,
,,,,,,6108e69e4540a09552a79cc1,62bbfa43364227246705e3ed,2022-06-29_10h08.09.273,Colour_Asymmetry_Pilot,2022.1.3,Win32,59.88741167,62bbe60bf3d75ef465d3e404,0,123,123,50,1,twoone,,,,,,,,,,,,,,,,,,,,,,,,,,,,,,,,,,,,,,,,,,,,,,,,,,,,,,,,,,,,,,,,,,,,,,,,,,,,,,,,,,,,,,,,,,,,,,,,,,,,,,,,,,,,,,,,,,,,,,,,,,,,,,,,,,,,,,,,,,,,,,,,,,,,,,,
,,,,,,6108e69e4540a09552a79cc1,62bbfa43364227246705e3ed,2022-06-29_10h08.09.273,Colour_Asymmetry_Pilot,2022.1.3,Win32,59.88741167,62bbe60bf3d75ef465d3e404,0,124,124,43,1,twofour,,,,,,,,,,,,,,,,,,,,,,,,,,,,,,,,,,,,,,,,,,,,,,,,,,,,,,,,,,,,,,,,,,,,,,,,,,,,,,,,,,,,,,,,,,,,,,,,,,,,,,,,,,,,,,,,,,,,,,,,,,,,,,,,,,,,,,,,,,,,,,,,,,,,,,,
,,,,,,6108e69e4540a09552a79cc1,62bbfa43364227246705e3ed,2022-06-29_10h08.09.273,Colour_Asymmetry_Pilot,2022.1.3,Win32,59.88741167,62bbe60bf3d75ef465d3e404,0,125,125,32,1,onetwo,,,,,,,,,,,,,,,,,,,,,,,,,,,,,,,,,,,,,,,,,,,,,,,,,,,,,,,,,,,,,,,,,,,,,,,,,,,,,,,,,,,,,,,,,,,,,,,,,,,,,,,,,,,,,,,,,,,,,,,,,,,,,,,,,,,,,,,,,,,,,,,,,,,,,,,
,,,,,,6108e69e4540a09552a79cc1,62bbfa43364227246705e3ed,2022-06-29_10h08.09.273,Colour_Asymmetry_Pilot,2022.1.3,Win32,59.88741167,62bbe60bf3d75ef465d3e404,0,126,126,51,1,twofour,,,,,,,,,,,,,,,,,,,,,,,,,,,,,,,,,,,,,,,,,,,,,,,,,,,,,,,,,,,,,,,,,,,,,,,,,,,,,,,,,,,,,,,,,,,,,,,,,,,,,,,,,,,,,,,,,,,,,,,,,,,,,,,,,,,,,,,,,,,,,,,,,,,,,,,
,,,,,,6108e69e4540a09552a79cc1,62bbfa43364227246705e3ed,2022-06-29_10h08.09.273,Colour_Asymmetry_Pilot,2022.1.3,Win32,59.88741167,62bbe60bf3d75ef465d3e404,0,127,127,35,1,twofour,,,,,,,,,,,,,,,,,,,,,,,,,,,,,,,,,,,,,,,,,,,,,,,,,,,,,,,,,,,,,,,,,,,,,,,,,,,,,,,,,,,,,,,,,,,,,,,,,,,,,,,,,,,,,,,,,,,,,,,,,,,,,,,,,,,,,,,,,,,,,,,,,,,,,,,
,,,,,,6108e69e4540a09552a79cc1,62bbfa43364227246705e3ed,2022-06-29_10h08.09.273,Colour_Asymmetry_Pilot,2022.1.3,Win32,59.88741167,62bbe60bf3d75ef465d3e404,0,128,128,138,1,twoone,,,,,,,,,,,,,,,,,,,,,,,,,,,,,,,,,,,,,,,,,,,,,,,,,,,,,,,,,,,,,,,,,,,,,,,,,,,,,,,,,,,,,,,,,,,,,,,,,,,,,,,,,,,,,,,,,,,,,,,,,,,,,,,,,,,,,,,,,,,,,,,,,,,,,,,
,,,,,,6108e69e4540a09552a79cc1,62bbfa43364227246705e3ed,2022-06-29_10h08.09.273,Colour_Asymmetry_Pilot,2022.1.3,Win32,59.88741167,62bbe60bf3d75ef465d3e404,0,129,129,4,1,threeone,,,,,,,,,,,,,,,,,,,,,,,,,,,,,,,,,,,,,,,,,,,,,,,,,,,,,,,,,,,,,,,,,,,,,,,,,,,,,,,,,,,,,,,,,,,,,,,,,,,,,,,,,,,,,,,,,,,,,,,,,,,,,,,,,,,,,,,,,,,,,,,,,,,,,,,
,,,,,,6108e69e4540a09552a79cc1,62bbfa43364227246705e3ed,2022-06-29_10h08.09.273,Colour_Asymmetry_Pilot,2022.1.3,Win32,59.88741167,62bbe60bf3d75ef465d3e404,0,130,130,18,1,twoone,,,,,,,,,,,,,,,,,,,,,,,,,,,,,,,,,,,,,,,,,,,,,,,,,,,,,,,,,,,,,,,,,,,,,,,,,,,,,,,,,,,,,,,,,,,,,,,,,,,,,,,,,,,,,,,,,,,,,,,,,,,,,,,,,,,,,,,,,,,,,,,,,,,,,,,
,,,,,,6108e69e4540a09552a79cc1,62bbfa43364227246705e3ed,2022-06-29_10h08.09.273,Colour_Asymmetry_Pilot,2022.1.3,Win32,59.88741167,62bbe60bf3d75ef465d3e404,0,131,131,3,1,twofour,,,,,,,,,,,,,,,,,,,,,,,,,,,,,,,,,,,,,,,,,,,,,,,,,,,,,,,,,,,,,,,,,,,,,,,,,,,,,,,,,,,,,,,,,,,,,,,,,,,,,,,,,,,,,,,,,,,,,,,,,,,,,,,,,,,,,,,,,,,,,,,,,,,,,,,
,,,,,,6108e69e4540a09552a79cc1,62bbfa43364227246705e3ed,2022-06-29_10h08.09.273,Colour_Asymmetry_Pilot,2022.1.3,Win32,59.88741167,62bbe60bf3d75ef465d3e404,0,132,132,92,1,threeone,,,,,,,,,,,,,,,,,,,,,,,,,,,,,,,,,,,,,,,,,,,,,,,,,,,,,,,,,,,,,,,,,,,,,,,,,,,,,,,,,,,,,,,,,,,,,,,,,,,,,,,,,,,,,,,,,,,,,,,,,,,,,,,,,,,,,,,,,,,,,,,,,,,,,,,
,,,,,,6108e69e4540a09552a79cc1,62bbfa43364227246705e3ed,2022-06-29_10h08.09.273,Colour_Asymmetry_Pilot,2022.1.3,Win32,59.88741167,62bbe60bf3d75ef465d3e404,0,133,133,11,1,twofour,,,,,,,,,,,,,,,,,,,,,,,,,,,,,,,,,,,,,,,,,,,,,,,,,,,,,,,,,,,,,,,,,,,,,,,,,,,,,,,,,,,,,,,,,,,,,,,,,,,,,,,,,,,,,,,,,,,,,,,,,,,,,,,,,,,,,,,,,,,,,,,,,,,,,,,
,,,,,,6108e69e4540a09552a79cc1,62bbfa43364227246705e3ed,2022-06-29_10h08.09.273,Colour_Asymmetry_Pilot,2022.1.3,Win32,59.88741167,62bbe60bf3d75ef465d3e404,0,134,134,59,1,twofour,,,,,,,,,,,,,,,,,,,,,,,,,,,,,,,,,,,,,,,,,,,,,,,,,,,,,,,,,,,,,,,,,,,,,,,,,,,,,,,,,,,,,,,,,,,,,,,,,,,,,,,,,,,,,,,,,,,,,,,,,,,,,,,,,,,,,,,,,,,,,,,,,,,,,,,
,,,,,,6108e69e4540a09552a79cc1,62bbfa43364227246705e3ed,2022-06-29_10h08.09.273,Colour_Asymmetry_Pilot,2022.1.3,Win32,59.88741167,62bbe60bf3d75ef465d3e404,0,135,135,70,1,fourtwo,,,,,,,,,,,,,,,,,,,,,,,,,,,,,,,,,,,,,,,,,,,,,,,,,,,,,,,,,,,,,,,,,,,,,,,,,,,,,,,,,,,,,,,,,,,,,,,,,,,,,,,,,,,,,,,,,,,,,,,,,,,,,,,,,,,,,,,,,,,,,,,,,,,,,,,
,,,,,,6108e69e4540a09552a79cc1,62bbfa43364227246705e3ed,2022-06-29_10h08.09.273,Colour_Asymmetry_Pilot,2022.1.3,Win32,59.88741167,62bbe60bf3d75ef465d3e404,0,136,136,118,1,fourtwo,,,,,,,,,,,,,,,,,,,,,,,,,,,,,,,,,,,,,,,,,,,,,,,,,,,,,,,,,,,,,,,,,,,,,,,,,,,,,,,,,,,,,,,,,,,,,,,,,,,,,,,,,,,,,,,,,,,,,,,,,,,,,,,,,,,,,,,,,,,,,,,,,,,,,,,
,,,,,,6108e69e4540a09552a79cc1,62bbfa43364227246705e3ed,2022-06-29_10h08.09.273,Colour_Asymmetry_Pilot,2022.1.3,Win32,59.88741167,62bbe60bf3d75ef465d3e404,0,137,137,142,1,fourtwo,,,,,,,,,,,,,,,,,,,,,,,,,,,,,,,,,,,,,,,,,,,,,,,,,,,,,,,,,,,,,,,,,,,,,,,,,,,,,,,,,,,,,,,,,,,,,,,,,,,,,,,,,,,,,,,,,,,,,,,,,,,,,,,,,,,,,,,,,,,,,,,,,,,,,,,
,,,,,,6108e69e4540a09552a79cc1,62bbfa43364227246705e3ed,2022-06-29_10h08.09.273,Colour_Asymmetry_Pilot,2022.1.3,Win32,59.88741167,62bbe60bf3d75ef465d3e404,0,138,138,119,1,fourthree,,,,,,,,,,,,,,,,,,,,,,,,,,,,,,,,,,,,,,,,,,,,,,,,,,,,,,,,,,,,,,,,,,,,,,,,,,,,,,,,,,,,,,,,,,,,,,,,,,,,,,,,,,,,,,,,,,,,,,,,,,,,,,,,,,,,,,,,,,,,,,,,,,,,,,,
,,,,,,6108e69e4540a09552a79cc1,62bbfa43364227246705e3ed,2022-06-29_10h08.09.273,Colour_Asymmetry_Pilot,2022.1.3,Win32,59.88741167,62bbe60bf3d75ef465d3e404,0,139,139,88,1,onetwo,,,,,,,,,,,,,,,,,,,,,,,,,,,,,,,,,,,,,,,,,,,,,,,,,,,,,,,,,,,,,,,,,,,,,,,,,,,,,,,,,,,,,,,,,,,,,,,,,,,,,,,,,,,,,,,,,,,,,,,,,,,,,,,,,,,,,,,,,,,,,,,,,,,,,,,
,,,,,,6108e69e4540a09552a79cc1,62bbfa43364227246705e3ed,2022-06-29_10h08.09.273,Colour_Asymmetry_Pilot,2022.1.3,Win32,59.88741167,62bbe60bf3d75ef465d3e404,0,140,140,101,1,threefour,,,,,,,,,,,,,,,,,,,,,,,,,,,,,,,,,,,,,,,,,,,,,,,,,,,,,,,,,,,,,,,,,,,,,,,,,,,,,,,,,,,,,,,,,,,,,,,,,,,,,,,,,,,,,,,,,,,,,,,,,,,,,,,,,,,,,,,,,,,,,,,,,,,,,,,
,,,,,,6108e69e4540a09552a79cc1,62bbfa43364227246705e3ed,2022-06-29_10h08.09.273,Colour_Asymmetry_Pilot,2022.1.3,Win32,59.88741167,62bbe60bf3d75ef465d3e404,0,141,141,117,1,threefour,,,,,,,,,,,,,,,,,,,,,,,,,,,,,,,,,,,,,,,,,,,,,,,,,,,,,,,,,,,,,,,,,,,,,,,,,,,,,,,,,,,,,,,,,,,,,,,,,,,,,,,,,,,,,,,,,,,,,,,,,,,,,,,,,,,,,,,,,,,,,,,,,,,,,,,
,,,,,,6108e69e4540a09552a79cc1,62bbfa43364227246705e3ed,2022-06-29_10h08.09.273,Colour_Asymmetry_Pilot,2022.1.3,Win32,59.88741167,62bbe60bf3d75ef465d3e404,0,142,142,86,1,fourtwo,,,,,,,,,,,,,,,,,,,,,,,,,,,,,,,,,,,,,,,,,,,,,,,,,,,,,,,,,,,,,,,,,,,,,,,,,,,,,,,,,,,,,,,,,,,,,,,,,,,,,,,,,,,,,,,,,,,,,,,,,,,,,,,,,,,,,,,,,,,,,,,,,,,,,,,
,,,,,,6108e69e4540a09552a79cc1,62bbfa43364227246705e3ed,2022-06-29_10h08.09.273,Colour_Asymmetry_Pilot,2022.1.3,Win32,59.88741167,62bbe60bf3d75ef465d3e404,0,143,143,47,1,fourthree,,,,,,,,,,,,,,,,,,,,,,,,,,,,,,,,,,,,,,,,,,,,,,,,,,,,,,,,,,,,,,,,,,,,,,,,,,,,,,,,,,,,,,,,,,,,,,,,,,,,,,,,,,,,,,,,,,,,,,,,,,,,,,,,,,,,,,,,,,,,,,,,,,,,,,,
,,,,,,6108e69e4540a09552a79cc1,62bbfa43364227246705e3ed,2022-06-29_10h08.09.273,Colour_Asymmetry_Pilot,2022.1.3,Win32,59.88741167,62bbe60bf3d75ef465d3e404,0,144,144,67,1,twofour,,,,,,,,,,,,,,,,,,,,,,,,,,,,,,,,,,,,,,,,,,,,,,,,,,,,,,,,,,,,,,,,,,,,,,,,,,,,,,,,,,,,,,,,,,,,,,,,,,,,,,,,,,,,,,,,,,,,,,,,,,,,,,,,,,,,,,,,,,,,,,,,,,,,,,,
,,,,,,6108e69e4540a09552a79cc1,62bbfa43364227246705e3ed,2022-06-29_10h08.09.273,Colour_Asymmetry_Pilot,2022.1.3,Win32,59.88741167,62bbe60bf3d75ef465d3e404,0,145,145,156,1,threeone,,,,,,,,,,,,,,,,,,,,,,,,,,,,,,,,,,,,,,,,,,,,,,,,,,,,,,,,,,,,,,,,,,,,,,,,,,,,,,,,,,,,,,,,,,,,,,,,,,,,,,,,,,,,,,,,,,,,,,,,,,,,,,,,,,,,,,,,,,,,,,,,,,,,,,,
,,,,,,6108e69e4540a09552a79cc1,62bbfa43364227246705e3ed,2022-06-29_10h08.09.273,Colour_Asymmetry_Pilot,2022.1.3,Win32,59.88741167,62bbe60bf3d75ef465d3e404,0,146,146,132,1,threeone,,,,,,,,,,,,,,,,,,,,,,,,,,,,,,,,,,,,,,,,,,,,,,,,,,,,,,,,,,,,,,,,,,,,,,,,,,,,,,,,,,,,,,,,,,,,,,,,,,,,,,,,,,,,,,,,,,,,,,,,,,,,,,,,,,,,,,,,,,,,,,,,,,,,,,,
,,,,,,6108e69e4540a09552a79cc1,62bbfa43364227246705e3ed,2022-06-29_10h08.09.273,Colour_Asymmetry_Pilot,2022.1.3,Win32,59.88741167,62bbe60bf3d75ef465d3e404,0,147,147,75,1,twofour,,,,,,,,,,,,,,,,,,,,,,,,,,,,,,,,,,,,,,,,,,,,,,,,,,,,,,,,,,,,,,,,,,,,,,,,,,,,,,,,,,,,,,,,,,,,,,,,,,,,,,,,,,,,,,,,,,,,,,,,,,,,,,,,,,,,,,,,,,,,,,,,,,,,,,,
,,,,,,6108e69e4540a09552a79cc1,62bbfa43364227246705e3ed,2022-06-29_10h08.09.273,Colour_Asymmetry_Pilot,2022.1.3,Win32,59.88741167,62bbe60bf3d75ef465d3e404,0,148,148,116,1,threeone,,,,,,,,,,,,,,,,,,,,,,,,,,,,,,,,,,,,,,,,,,,,,,,,,,,,,,,,,,,,,,,,,,,,,,,,,,,,,,,,,,,,,,,,,,,,,,,,,,,,,,,,,,,,,,,,,,,,,,,,,,,,,,,,,,,,,,,,,,,,,,,,,,,,,,,
,,,,,,6108e69e4540a09552a79cc1,62bbfa43364227246705e3ed,2022-06-29_10h08.09.273,Colour_Asymmetry_Pilot,2022.1.3,Win32,59.88741167,62bbe60bf3d75ef465d3e404,0,149,149,23,1,fourthree,,,,,,,,,,,,,,,,,,,,,,,,,,,,,,,,,,,,,,,,,,,,,,,,,,,,,,,,,,,,,,,,,,,,,,,,,,,,,,,,,,,,,,,,,,,,,,,,,,,,,,,,,,,,,,,,,,,,,,,,,,,,,,,,,,,,,,,,,,,,,,,,,,,,,,,
,,,,,,6108e69e4540a09552a79cc1,62bbfa43364227246705e3ed,2022-06-29_10h08.09.273,Colour_Asymmetry_Pilot,2022.1.3,Win32,59.88741167,62bbe60bf3d75ef465d3e404,0,150,150,151,1,fourthree,,,,,,,,,,,,,,,,,,,,,,,,,,,,,,,,,,,,,,,,,,,,,,,,,,,,,,,,,,,,,,,,,,,,,,,,,,,,,,,,,,,,,,,,,,,,,,,,,,,,,,,,,,,,,,,,,,,,,,,,,,,,,,,,,,,,,,,,,,,,,,,,,,,,,,,
,,,,,,6108e69e4540a09552a79cc1,62bbfa43364227246705e3ed,2022-06-29_10h08.09.273,Colour_Asymmetry_Pilot,2022.1.3,Win32,59.88741167,62bbe60bf3d75ef465d3e404,0,151,151,52,1,threeone,,,,,,,,,,,,,,,,,,,,,,,,,,,,,,,,,,,,,,,,,,,,,,,,,,,,,,,,,,,,,,,,,,,,,,,,,,,,,,,,,,,,,,,,,,,,,,,,,,,,,,,,,,,,,,,,,,,,,,,,,,,,,,,,,,,,,,,,,,,,,,,,,,,,,,,
,,,,,,6108e69e4540a09552a79cc1,62bbfa43364227246705e3ed,2022-06-29_10h08.09.273,Colour_Asymmetry_Pilot,2022.1.3,Win32,59.88741167,62bbe60bf3d75ef465d3e404,0,152,152,149,1,threefour,,,,,,,,,,,,,,,,,,,,,,,,,,,,,,,,,,,,,,,,,,,,,,,,,,,,,,,,,,,,,,,,,,,,,,,,,,,,,,,,,,,,,,,,,,,,,,,,,,,,,,,,,,,,,,,,,,,,,,,,,,,,,,,,,,,,,,,,,,,,,,,,,,,,,,,
,,,,,,6108e69e4540a09552a79cc1,62bbfa43364227246705e3ed,2022-06-29_10h08.09.273,Colour_Asymmetry_Pilot,2022.1.3,Win32,59.88741167,62bbe60bf3d75ef465d3e404,0,153,153,108,1,threeone,,,,,,,,,,,,,,,,,,,,,,,,,,,,,,,,,,,,,,,,,,,,,,,,,,,,,,,,,,,,,,,,,,,,,,,,,,,,,,,,,,,,,,,,,,,,,,,,,,,,,,,,,,,,,,,,,,,,,,,,,,,,,,,,,,,,,,,,,,,,,,,,,,,,,,,
,,,,,,6108e69e4540a09552a79cc1,62bbfa43364227246705e3ed,2022-06-29_10h08.09.273,Colour_Asymmetry_Pilot,2022.1.3,Win32,59.88741167,62bbe60bf3d75ef465d3e404,0,154,154,159,1,fourthree,,,,,,,,,,,,,,,,,,,,,,,,,,,,,,,,,,,,,,,,,,,,,,,,,,,,,,,,,,,,,,,,,,,,,,,,,,,,,,,,,,,,,,,,,,,,,,,,,,,,,,,,,,,,,,,,,,,,,,,,,,,,,,,,,,,,,,,,,,,,,,,,,,,,,,,
,,,,,,6108e69e4540a09552a79cc1,62bbfa43364227246705e3ed,2022-06-29_10h08.09.273,Colour_Asymmetry_Pilot,2022.1.3,Win32,59.88741167,62bbe60bf3d75ef465d3e404,0,155,155,74,1,twoone,,,,,,,,,,,,,,,,,,,,,,,,,,,,,,,,,,,,,,,,,,,,,,,,,,,,,,,,,,,,,,,,,,,,,,,,,,,,,,,,,,,,,,,,,,,,,,,,,,,,,,,,,,,,,,,,,,,,,,,,,,,,,,,,,,,,,,,,,,,,,,,,,,,,,,,
,,,,,,6108e69e4540a09552a79cc1,62bbfa43364227246705e3ed,2022-06-29_10h08.09.273,Colour_Asymmetry_Pilot,2022.1.3,Win32,59.88741167,62bbe60bf3d75ef465d3e404,0,156,156,12,1,threeone,,,,,,,,,,,,,,,,,,,,,,,,,,,,,,,,,,,,,,,,,,,,,,,,,,,,,,,,,,,,,,,,,,,,,,,,,,,,,,,,,,,,,,,,,,,,,,,,,,,,,,,,,,,,,,,,,,,,,,,,,,,,,,,,,,,,,,,,,,,,,,,,,,,,,,,
,,,,,,6108e69e4540a09552a79cc1,62bbfa43364227246705e3ed,2022-06-29_10h08.09.273,Colour_Asymmetry_Pilot,2022.1.3,Win32,59.88741167,62bbe60bf3d75ef465d3e404,0,157,157,126,1,fourtwo,,,,,,,,,,,,,,,,,,,,,,,,,,,,,,,,,,,,,,,,,,,,,,,,,,,,,,,,,,,,,,,,,,,,,,,,,,,,,,,,,,,,,,,,,,,,,,,,,,,,,,,,,,,,,,,,,,,,,,,,,,,,,,,,,,,,,,,,,,,,,,,,,,,,,,,
,,,,,,6108e69e4540a09552a79cc1,62bbfa43364227246705e3ed,2022-06-29_10h08.09.273,Colour_Asymmetry_Pilot,2022.1.3,Win32,59.88741167,62bbe60bf3d75ef465d3e404,0,158,158,81,1,onethree,,,,,,,,,,,,,,,,,,,,,,,,,,,,,,,,,,,,,,,,,,,,,,,,,,,,,,,,,,,,,,,,,,,,,,,,,,,,,,,,,,,,,,,,,,,,,,,,,,,,,,,,,,,,,,,,,,,,,,,,,,,,,,,,,,,,,,,,,,,,,,,,,,,,,,,
,,,,,,6108e69e4540a09552a79cc1,62bbfa43364227246705e3ed,2022-06-29_10h08.09.273,Colour_Asymmetry_Pilot,2022.1.3,Win32,59.88741167,62bbe60bf3d75ef465d3e404,0,159,159,129,1,onethree,,,,,,,,,,,,,,,,,,,,,,,,,,,,,,,,,,,,,,,,,,,,,,,,,,,,,,,,,,,,,,,,,,,,,,,,,,,,,,,,,,,,,,,,,,,,,,,,,,,,,,,,,,,,,,,,,,,,,,,,,,,,,,,,,,,,,,,,,,,,,,,,,,,,,,,
,,,,,,6108e69e4540a09552a79cc1,62bbfa43364227246705e3ed,2022-06-29_10h08.09.273,Colour_Asymmetry_Pilot,2022.1.3,Win32,59.88741167,62bbe60bf3d75ef465d3e404,0,160,160,122,1,twoone,,,,,,,,,,,,,,,,,,,,,,,,,,,,,,,,,,,,,,,,,,,,,,,,,,,,,,,,,,,,,,,,,,,,,,,,,,,,,,,,,,,,,,,,,,,,,,,,,,,,,,,,,,,,,,,,,,,,,,,,,,,,,,,,,,,,,,,,,,,,,,,,,,,,,,,
,,,,,,6108e69e4540a09552a79cc1,62bbfa43364227246705e3ed,2022-06-29_10h08.09.273,Colour_Asymmetry_Pilot,2022.1.3,Win32,59.88741167,62bbe60bf3d75ef465d3e404,0,161,161,39,1,fourthree,,,,,,,,,,,,,,,,,,,,,,,,,,,,,,,,,,,,,,,,,,,,,,,,,,,,,,,,,,,,,,,,,,,,,,,,,,,,,,,,,,,,,,,,,,,,,,,,,,,,,,,,,,,,,,,,,,,,,,,,,,,,,,,,,,,,,,,,,,,,,,,,,,,,,,,
,,,,,,6108e69e4540a09552a79cc1,62bbfa43364227246705e3ed,2022-06-29_10h08.09.273,Colour_Asymmetry_Pilot,2022.1.3,Win32,59.88741167,62bbe60bf3d75ef465d3e404,,,,,,,space,2.9447,space,56.2395,space,25.5664,space,6.7325,space,3.5909,space,9.9819,"[0.11359999999999992,0.6312,0.5213999999999999]",onetwo,"[0.40379999999999994,0.09000000000000008,0.44300000000000006]",-2,14.9408,-103,-39,1,0,0,response5disk_5,10,-7,1,0,0,rectangle_8,10,-7,1,0,0,2,10,-7,1,0,0,0,0,0,0,1,,,,,,,,,,,,,,,,,,,,,,,,,,,,,,,,,,,,,,,,,,,,,,,,,,,,,,,,,,,,,,,,,,,,,,,,,,,,,,,,,,,,,,,,,,,,,,,,,,,,,,,,,,
,,,,,,6108e69e4540a09552a79cc1,62bbfa43364227246705e3ed,2022-06-29_10h08.09.273,Colour_Asymmetry_Pilot,2022.1.3,Win32,59.88741167,62bbe60bf3d75ef465d3e404,,,,,,,,,,,,,,,,,,,"[-0.09019999999999995,0.44300000000000006,0.5371999999999999]",threefour,"[-0.07459999999999989,0.12139999999999995,-0.9922]",1,4.1392,90,-146,1,0,0,response3disk_5,-3,-7,1,0,0,rectangle_8,-3,-7,1,0,0,2,-3,-7,1,0,0,1,0,1,0,1,,,,,,,,,,,,,,,,,,,,,,,,,,,,,,,,,,,,,,,,,,,,,,,,,,,,,,,,,,,,,,,,,,,,,,,,,,,,,,,,,,,,,,,,,,,,,,,,,,,,,,,,,,
,,,,,,6108e69e4540a09552a79cc1,62bbfa43364227246705e3ed,2022-06-29_10h08.09.273,Colour_Asymmetry_Pilot,2022.1.3,Win32,59.88741167,62bbe60bf3d75ef465d3e404,,,,,,,,,,,,,,,,,,,"[-0.6,0.16860000000000008,0.44300000000000006]",fourthree,"[0.6547999999999998,-0.043199999999999905,-0.011800000000000033]",-4,1.8208,-53,93,1,0,0,response7disk_5,-11,2,1,0,0,rectangle_8,123,-81,1,0,0,2,16,-4,1,0,0,2,0,2,0,1,response3disk_7,5,rectangle_4,,,,,,,,,,,,,,,,,,,,,,,,,,,,,,,,,,,,,,,,,,,,,,,,,,,,,,,,,,,,,,,,,,,,,,,,,,,,,,,,,,,,,,,,,,,,,,,,,,,,,,,
,,,,,,6108e69e4540a09552a79cc1,62bbfa43364227246705e3ed,2022-06-29_10h08.09.273,Colour_Asymmetry_Pilot,2022.1.3,Win32,59.88741167,62bbe60bf3d75ef465d3e404,,,,,,,,,,,,,,,,,,,"[-0.011800000000000033,-0.906,-0.45100000000000007]",fourthree,"[0.5449999999999999,-0.31000000000000005,-0.0354000000000001]",3,1.9141,147,49,1,0,0,response1disk_5,-4,-4,1,0,0,rectangle_8,-4,-4,1,0,0,2,-4,-4,1,0,0,3,0,3,0,1,,,,,,,,,,,,,,,,,,,,,,,,,,,,,,,,,,,,,,,,,,,,,,,,,,,,,,,,,,,,,,,,,,,,,,,,,,,,,,,,,,,,,,,,,,,,,,,,,,,,,,,,,,
,,,,,,6108e69e4540a09552a79cc1,62bbfa43364227246705e3ed,2022-06-29_10h08.09.273,Colour_Asymmetry_Pilot,2022.1.3,Win32,59.88741167,62bbe60bf3d75ef465d3e404,,,,,,,,,,,,,,,,,,,"[0.19199999999999995,0.18419999999999992,0.5136000000000001]",onetwo,"[0.22340000000000004,-0.9296,-0.7884]",-4,2.0671,-56,96,1,0,0,response7disk_5,-5,6,1,0,0,rectangle_8,-5,6,1,0,0,2,-5,6,1,0,0,4,0,4,0,1,,,,,,,,,,,,,,,,,,,,,,,,,,,,,,,,,,,,,,,,,,,,,,,,,,,,,,,,,,,,,,,,,,,,,,,,,,,,,,,,,,,,,,,,,,,,,,,,,,,,,,,,,,
,,,,,,6108e69e4540a09552a79cc1,62bbfa43364227246705e3ed,2022-06-29_10h08.09.273,Colour_Asymmetry_Pilot,2022.1.3,Win32,59.88741167,62bbe60bf3d75ef465d3e404,,,,,,,,,,,,,,,,,,,"[0.6547999999999998,-0.043199999999999905,-0.011800000000000033]",onetwo,"[0.9686000000000001,0.3802000000000001,0.19999999999999996]",4,1.3365,67,122,1,0,0,response1disk_5,-2,-8,1,0,0,rectangle_8,140,-63,1,0,0,2,16,9,1,0,0,5,0,5,0,1,response3disk_7,5,rectangle_4,,,,,,,,,,,,,,,,,,,,,,,,,,,,,,,,,,,,,,,,,,,,,,,,,,,,,,,,,,,,,,,,,,,,,,,,,,,,,,,,,,,,,,,,,,,,,,,,,,,,,,,
,,,,,,6108e69e4540a09552a79cc1,62bbfa43364227246705e3ed,2022-06-29_10h08.09.273,Colour_Asymmetry_Pilot,2022.1.3,Win32,59.88741167,62bbe60bf3d75ef465d3e404,,,,,,,,,,,,,,,,,,,"[0.11359999999999992,0.6312,0.5213999999999999]",threefour,"[-0.9844,-0.9688,-0.9922]",-4,1.3667,-49,95,1,0,0,response7disk_5,-11,-5,1,0,0,rectangle_8,-11,-5,1,0,0,2,-11,-5,1,0,0,6,0,6,0,1,,,,,,,,,,,,,,,,,,,,,,,,,,,,,,,,,,,,,,,,,,,,,,,,,,,,,,,,,,,,,,,,,,,,,,,,,,,,,,,,,,,,,,,,,,,,,,,,,,,,,,,,,,
,,,,,,6108e69e4540a09552a79cc1,62bbfa43364227246705e3ed,2022-06-29_10h08.09.273,Colour_Asymmetry_Pilot,2022.1.3,Win32,59.88741167,62bbe60bf3d75ef465d3e404,,,,,,,,,,,,,,,,,,,,onethree,,1,2.7213,,,,,,,,,,,,,,,,,,,,,,,,,,,,,,,,space,5.7869,"[-0.011800000000000033,-0.906,-0.45100000000000007]","[0.9763999999999999,-0.1137999999999999,-0.6314]",84,-132,1,0,0,response3disk,13,-3,1,0,0,rectangle,13,-3,1,0,0,,3,0.0099,0,13,-3,1,0,0,0,0,0,22,1,22,first,,,,,,,,,,,,,,,,,,,,,,,,,,,,,,,,,,,,,,,,,,,,,,,,,,,,,,,,,,,,,,,,,,
,,,,,,6108e69e4540a09552a79cc1,62bbfa43364227246705e3ed,2022-06-29_10h08.09.273,Colour_Asymmetry_Pilot,2022.1.3,Win32,59.88741167,62bbe60bf3d75ef465d3e404,,,,,,,,,,,,,,,,,,,,onetwo,,-2,1.7079,,,,,,,,,,,,,,,,,,,,,,,,,,,,,,,,,,"[-0.4902000000000001,0.2704,-0.45899999999999996]","[0.9763999999999999,0.30979999999999985,-0.6786]",-115,-80,1,0,0,response5disk,4,-3,1,0,0,rectangle,4,-3,1,0,0,,3,0.0031,0,4,-3,1,0,0,0,1,1,46,1,46,first,,,,,,,,,,,,,,,,,,,,,,,,,,,,,,,,,,,,,,,,,,,,,,,,,,,,,,,,,,,,,,,,,,
,,,,,,6108e69e4540a09552a79cc1,62bbfa43364227246705e3ed,2022-06-29_10h08.09.273,Colour_Asymmetry_Pilot,2022.1.3,Win32,59.88741167,62bbe60bf3d75ef465d3e404,,,,,,,,,,,,,,,,,,,,onethree,,-4,0.915,,,,,,,,,,,,,,,,,,,,,,,,,,,,,,,,,,"[0.3881999999999999,-0.23939999999999995,-0.05040000000000011]","[0.7018,0.7176,0.6155999999999999]",-60,93,1,0,0,response7disk,-24,-10,1,0,0,rectangle,-24,-10,1,0,0,,1,0.0029,0,-24,-10,1,0,0,0,2,2,151,1,70,second,,,,,,,,,,,,,,,,,,,,,,,,,,,,,,,,,,,,,,,,,,,,,,,,,,,,,,,,,,,,,,,,,,
,,,,,,6108e69e4540a09552a79cc1,62bbfa43364227246705e3ed,2022-06-29_10h08.09.273,Colour_Asymmetry_Pilot,2022.1.3,Win32,59.88741167,62bbe60bf3d75ef465d3e404,,,,,,,,,,,,,,,,,,,,threefour,,2,2.2827,,,,,,,,,,,,,,,,,,,,,,,,,,,,,,,,,,"[-0.24719999999999998,-0.0354000000000001,0.3175999999999999]","[-0.5922000000000001,-0.7492000000000001,-0.5296000000000001]",118,-97,1,0,0,response3disk,21,1,1,0,0,rectangle,21,1,1,0,0,,2,0.004,0,21,1,1,0,0,0,3,3,49,1,49,first,,,,,,,,,,,,,,,,,,,,,,,,,,,,,,,,,,,,,,,,,,,,,,,,,,,,,,,,,,,,,,,,,,
,,,,,,6108e69e4540a09552a79cc1,62bbfa43364227246705e3ed,2022-06-29_10h08.09.273,Colour_Asymmetry_Pilot,2022.1.3,Win32,59.88741167,62bbe60bf3d75ef465d3e404,,,,,,,,,,,,,,,,,,,,fourthree,,3,1.0026,,,,,,,,,,,,,,,,,,,,,,,,,,,,,,,,,,"[-0.2942,-0.24719999999999998,-0.357]","[0.4196,0.4665999999999999,0.3568]",109,60,1,0,0,response1disk,13,-3,1,0,0,rectangle,13,-3,1,0,0,,2,0.0003,0,13,-3,1,0,0,0,4,4,44,1,44,first,,,,,,,,,,,,,,,,,,,,,,,,,,,,,,,,,,,,,,,,,,,,,,,,,,,,,,,,,,,,,,,,,,
,,,,,,6108e69e4540a09552a79cc1,62bbfa43364227246705e3ed,2022-06-29_10h08.09.273,Colour_Asymmetry_Pilot,2022.1.3,Win32,59.88741167,62bbe60bf3d75ef465d3e404,,,,,,,,,,,,,,,,,,,,twofour,,2,1.6598,,,,,,,,,,,,,,,,,,,,,,,,,,,,,,,,,,"[0.19199999999999995,0.18419999999999992,0.5136000000000001]","[-0.4982,-0.2942,-0.0354000000000001]",132,-71,1,0,0,response3disk,-3,-1,1,0,0,rectangle,-3,-1,1,0,0,,1,0.0024,0,-3,-1,1,0,0,0,5,5,133,1,52,second,,,,,,,,,,,,,,,,,,,,,,,,,,,,,,,,,,,,,,,,,,,,,,,,,,,,,,,,,,,,,,,,,,
,,,,,,6108e69e4540a09552a79cc1,62bbfa43364227246705e3ed,2022-06-29_10h08.09.273,Colour_Asymmetry_Pilot,2022.1.3,Win32,59.88741167,62bbe60bf3d75ef465d3e404,,,,,,,,,,,,,,,,,,,,onethree,,2,2.8144,,,,,,,,,,,,,,,,,,,,,,,,,,,,,,,,,,"[-0.09019999999999995,0.44300000000000006,0.5371999999999999]","[0.40379999999999994,0.09000000000000008,0.44300000000000006]",129,-72,1,0,0,response3disk,6,0,1,0,0,rectangle,6,0,1,0,0,,3,0.0068,0,6,0,1,0,0,0,6,6,90,1,9,second,,,,,,,,,,,,,,,,,,,,,,,,,,,,,,,,,,,,,,,,,,,,,,,,,,,,,,,,,,,,,,,,,,
,,,,,,6108e69e4540a09552a79cc1,62bbfa43364227246705e3ed,2022-06-29_10h08.09.273,Colour_Asymmetry_Pilot,2022.1.3,Win32,59.88741167,62bbe60bf3d75ef465d3e404,,,,,,,,,,,,,,,,,,,,twofour,,-3,1.9469,,,,,,,,,,,,,,,,,,,,,,,,,,,,,,,,,,"[0.09799999999999986,-0.24719999999999998,0.15280000000000005]","[-0.06680000000000008,-0.45100000000000007,-0.906]",-101,41,1,0,0,response7disk,-1,-21,1,0,0,rectangle,-1,-21,1,0,0,,1,0.0056,0,-1,-21,1,0,0,0,7,7,98,1,17,second,,,,,,,,,,,,,,,,,,,,,,,,,,,,,,,,,,,,,,,,,,,,,,,,,,,,,,,,,,,,,,,,,,
,,,,,,6108e69e4540a09552a79cc1,62bbfa43364227246705e3ed,2022-06-29_10h08.09.273,Colour_Asymmetry_Pilot,2022.1.3,Win32,59.88741167,62bbe60bf3d75ef465d3e404,,,,,,,,,,,,,,,,,,,,threeone,,1,0.9882,,,,,,,,,,,,,,,,,,,,,,,,,,,,,,,,,,"[-0.17659999999999998,0.3253999999999999,0.19999999999999996]","[-0.7412000000000001,-0.08239999999999992,-0.6864]",44,-99,1,0,0,response3disk,-12,-11,1,0,0,rectangle,-12,-11,1,0,0,,1,0.0028,0,-12,-11,1,0,0,0,8,8,82,1,1,second,,,,,,,,,,,,,,,,,,,,,,,,,,,,,,,,,,,,,,,,,,,,,,,,,,,,,,,,,,,,,,,,,,
,,,,,,6108e69e4540a09552a79cc1,62bbfa43364227246705e3ed,2022-06-29_10h08.09.273,Colour_Asymmetry_Pilot,2022.1.3,Win32,59.88741167,62bbe60bf3d75ef465d3e404,,,,,,,,,,,,,,,,,,,,threeone,,-2,0.7205,,,,,,,,,,,,,,,,,,,,,,,,,,,,,,,,,,"[-0.9766,-0.34920000000000007,0.2156]","[0.6547999999999998,-0.043199999999999905,-0.011800000000000033]",-118,-75,1,0,0,response5disk,5,-9,1,0,0,rectangle,5,-9,1,0,0,,3,0.0083,0,5,-9,1,0,0,0,9,9,63,1,63,first,,,,,,,,,,,,,,,,,,,,,,,,,,,,,,,,,,,,,,,,,,,,,,,,,,,,,,,,,,,,,,,,,,
,,,,,,6108e69e4540a09552a79cc1,62bbfa43364227246705e3ed,2022-06-29_10h08.09.273,Colour_Asymmetry_Pilot,2022.1.3,Win32,59.88741167,62bbe60bf3d75ef465d3e404,,,,,,,,,,,,,,,,,,,,fourtwo,,-4,2.8048,,,,,,,,,,,,,,,,,,,,,,,,,,,,,,,,,,"[0.7646000000000002,0.07440000000000002,0.2704]","[-0.5688,-0.08239999999999992,-0.1844]",-56,137,1,0,0,response7disk,-23,5,1,0,0,rectangle,-23,5,1,0,0,,3,0.001,0,-23,5,1,0,0,0,10,10,94,1,13,second,,,,,,,,,,,,,,,,,,,,,,,,,,,,,,,,,,,,,,,,,,,,,,,,,,,,,,,,,,,,,,,,,,
,,,,,,6108e69e4540a09552a79cc1,62bbfa43364227246705e3ed,2022-06-29_10h08.09.273,Colour_Asymmetry_Pilot,2022.1.3,Win32,59.88741167,62bbe60bf3d75ef465d3e404,,,,,,,,,,,,,,,,,,,,threeone,,-4,1.7593,,,,,,,,,,,,,,,,,,,,,,,,,,,,,,,,,,"[0.04299999999999993,0.16060000000000008,-0.6628000000000001]","[0.7802,-0.23140000000000005,-0.20799999999999996]",-58,117,1,0,0,response7disk,0,-12,1,0,0,rectangle,57,-140,1,0,0,1,1,3.2723,1,1,5,1,0,0,0,11,11,76,1,76,first,response3disk_3,rectangle,,,,,,,,,,,,,,,,,,,,,,,,,,,,,,,,,,,,,,,,,,,,,,,,,,,,,,,,,,,,,,,,
,,,,,,6108e69e4540a09552a79cc1,62bbfa43364227246705e3ed,2022-06-29_10h08.09.273,Colour_Asymmetry_Pilot,2022.1.3,Win32,59.88741167,62bbe60bf3d75ef465d3e404,,,,,,,,,,,,,,,,,,,,twoone,,-4,0.6058,,,,,,,,,,,,,,,,,,,,,,,,,,,,,,,,,,"[0.9213999999999998,0.6391999999999998,-0.9922]","[0.11359999999999992,0.6312,0.5213999999999999]",-43,107,1,0,0,response7disk,-14,9,1,0,0,rectangle,-14,9,1,0,0,1,2,0.0037,0,-14,9,1,0,0,0,12,12,4,1,4,first,,,,,,,,,,,,,,,,,,,,,,,,,,,,,,,,,,,,,,,,,,,,,,,,,,,,,,,,,,,,,,,,,,
,,,,,,6108e69e4540a09552a79cc1,62bbfa43364227246705e3ed,2022-06-29_10h08.09.273,Colour_Asymmetry_Pilot,2022.1.3,Win32,59.88741167,62bbe60bf3d75ef465d3e404,,,,,,,,,,,,,,,,,,,,threefour,,-4,0.7657,,,,,,,,,,,,,,,,,,,,,,,,,,,,,,,,,,"[0.7802,-0.23140000000000005,-0.20799999999999996]","[0.04299999999999993,0.16060000000000008,-0.6628000000000001]",-67,99,1,0,0,response7disk,-5,-12,1,0,0,rectangle,-5,-12,1,0,0,1,1,0.005,0,-5,-12,1,0,0,0,13,13,157,1,76,second,,,,,,,,,,,,,,,,,,,,,,,,,,,,,,,,,,,,,,,,,,,,,,,,,,,,,,,,,,,,,,,,,,
,,,,,,6108e69e4540a09552a79cc1,62bbfa43364227246705e3ed,2022-06-29_10h08.09.273,Colour_Asymmetry_Pilot,2022.1.3,Win32,59.88741167,62bbe60bf3d75ef465d3e404,,,,,,,,,,,,,,,,,,,,fourthree,,-3,1.496,,,,,,,,,,,,,,,,,,,,,,,,,,,,,,,,,,"[-0.9138,-0.5296000000000001,-0.5529999999999999]","[-0.01980000000000004,-0.5138,-0.38039999999999996]",-101,78,1,0,0,response7disk,-11,-17,1,0,0,rectangle,-11,-17,1,0,0,1,3,0.0049,0,-11,-17,1,0,0,0,14,14,45,1,45,first,,,,,,,,,,,,,,,,,,,,,,,,,,,,,,,,,,,,,,,,,,,,,,,,,,,,,,,,,,,,,,,,,,
,,,,,,6108e69e4540a09552a79cc1,62bbfa43364227246705e3ed,2022-06-29_10h08.09.273,Colour_Asymmetry_Pilot,2022.1.3,Win32,59.88741167,62bbe60bf3d75ef465d3e404,,,,,,,,,,,,,,,,,,,,threefour,,-4,0.6882,,,,,,,,,,,,,,,,,,,,,,,,,,,,,,,,,,"[-0.9296,-0.12959999999999994,-0.043199999999999905]","[0.7018,0.7802,-0.16079999999999994]",-77,158,1,0,0,response7disk,-7,5,1,0,0,rectangle,-7,5,1,0,0,1,3,0.0025,0,-7,5,1,0,0,0,15,15,156,1,75,second,,,,,,,,,,,,,,,,,,,,,,,,,,,,,,,,,,,,,,,,,,,,,,,,,,,,,,,,,,,,,,,,,,
,,,,,,6108e69e4540a09552a79cc1,62bbfa43364227246705e3ed,2022-06-29_10h08.09.273,Colour_Asymmetry_Pilot,2022.1.3,Win32,59.88741167,62bbe60bf3d75ef465d3e404,,,,,,,,,,,,,,,,,,,,onetwo,,-4,1.7988,,,,,,,,,,,,,,,,,,,,,,,,,,,,,,,,,,"[0.4196,0.4665999999999999,0.3568]","[0.5528,0.7409999999999999,-0.71]",-65,111,1,0,0,response7disk,-10,-12,1,0,0,rectangle,-10,-12,1,0,0,1,2,0.0051,0,-10,-12,1,0,0,0,16,16,15,1,15,first,,,,,,,,,,,,,,,,,,,,,,,,,,,,,,,,,,,,,,,,,,,,,,,,,,,,,,,,,,,,,,,,,,
,,,,,,6108e69e4540a09552a79cc1,62bbfa43364227246705e3ed,2022-06-29_10h08.09.273,Colour_Asymmetry_Pilot,2022.1.3,Win32,59.88741167,62bbe60bf3d75ef465d3e404,,,,,,,,,,,,,,,,,,,,onetwo,,3,1.0899,,,,,,,,,,,,,,,,,,,,,,,,,,,,,,,,,,"[-0.9296,-0.12959999999999994,-0.043199999999999905]","[-0.09019999999999995,0.44300000000000006,0.5371999999999999]",126,46,1,0,0,response1disk,-1,4,1,0,0,rectangle,-1,4,1,0,0,1,3,0.0055,0,-1,4,1,0,0,0,17,17,71,1,71,first,,,,,,,,,,,,,,,,,,,,,,,,,,,,,,,,,,,,,,,,,,,,,,,,,,,,,,,,,,,,,,,,,,
,,,,,,6108e69e4540a09552a79cc1,62bbfa43364227246705e3ed,2022-06-29_10h08.09.273,Colour_Asymmetry_Pilot,2022.1.3,Win32,59.88741167,62bbe60bf3d75ef465d3e404,,,,,,,,,,,,,,,,,,,,threeone,,-4,1.1058,,,,,,,,,,,,,,,,,,,,,,,,,,,,,,,,,,"[0.9763999999999999,-0.1137999999999999,-0.6314]","[-0.9688,-0.38039999999999996,-0.41979999999999995]",-60,132,1,0,0,response7disk,-7,2,1,0,0,rectangle,122,-90,1,0,0,2,2,2.41,1,-16,3,1,0,0,0,18,18,159,1,78,second,response3disk_3,rectangle,,,,,,,,,,,,,,,,,,,,,,,,,,,,,,,,,,,,,,,,,,,,,,,,,,,,,,,,,,,,,,,,
,,,,,,6108e69e4540a09552a79cc1,62bbfa43364227246705e3ed,2022-06-29_10h08.09.273,Colour_Asymmetry_Pilot,2022.1.3,Win32,59.88741167,62bbe60bf3d75ef465d3e404,,,,,,,,,,,,,,,,,,,,threeone,,3,1.6161,,,,,,,,,,,,,,,,,,,,,,,,,,,,,,,,,,"[-0.2942,-0.7648,-0.7492000000000001]","[-0.5922000000000001,-0.7492000000000001,-0.5296000000000001]",128,28,1,0,0,response1disk,21,-10,1,0,0,rectangle,21,-10,1,0,0,2,3,0.0054,0,21,-10,1,0,0,0,19,19,106,1,25,second,,,,,,,,,,,,,,,,,,,,,,,,,,,,,,,,,,,,,,,,,,,,,,,,,,,,,,,,,,,,,,,,,,
,,,,,,6108e69e4540a09552a79cc1,62bbfa43364227246705e3ed,2022-06-29_10h08.09.273,Colour_Asymmetry_Pilot,2022.1.3,Win32,59.88741167,62bbe60bf3d75ef465d3e404,,,,,,,,,,,,,,,,,,,,fourthree,,4,0.8275,,,,,,,,,,,,,,,,,,,,,,,,,,,,,,,,,,"[-0.011800000000000033,-0.906,-0.45100000000000007]","[0.23120000000000007,-0.7726,-0.34120000000000006]",58,138,1,0,0,response1disk,9,7,1,0,0,rectangle,9,7,1,0,0,2,3,0.0016,0,9,7,1,0,0,0,20,20,16,1,16,first,,,,,,,,,,,,,,,,,,,,,,,,,,,,,,,,,,,,,,,,,,,,,,,,,,,,,,,,,,,,,,,,,,
