trials.thisRepN,trials.thisTrialN,trials.thisN,trials.thisIndex,trials.ran,Colourcodes,participant,session,date,expName,psychopyVersion,OS,frameRate,study_id,trials_4.thisRepN,trials_4.thisTrialN,trials_4.thisN,trials_4.thisIndex,trials_4.ran,StimulusPos,key_resp.keys,key_resp.rt,key_resp_2.keys,key_resp_2.rt,key_resp_15.keys,key_resp_15.rt,key_resp_17.keys,key_resp_17.rt,key_resp_9.keys,key_resp_9.rt,key_resp_10.keys,key_resp_10.rt,Circle1_col,Ecc,Circle2_col,similarity,response_time,mouse_5.x,mouse_5.y,mouse_5.leftButton,mouse_5.midButton,mouse_5.rightButton,mouse_5.clicked_name,mouse_10.x,mouse_10.y,mouse_10.leftButton,mouse_10.midButton,mouse_10.rightButton,mouse_10.clicked_name,mouse_7.x,mouse_7.y,mouse_7.leftButton,mouse_7.midButton,mouse_7.rightButton,mouse_7.clicked_name,catchprac,catchnumberprac,mouse_6.x,mouse_6.y,mouse_6.leftButton,mouse_6.midButton,mouse_6.rightButton,mouse_6.clicked_name,duringprac.thisRepN,duringprac.thisTrialN,duringprac.thisN,duringprac.thisIndex,duringprac.ran,key_resp_22.keys,key_resp_22.rt,Circle1_colour,Circle2_colour,mouse.x,mouse.y,mouse.leftButton,mouse.midButton,mouse.rightButton,mouse.clicked_name,mouse_2.x,mouse_2.y,mouse_2.leftButton,mouse_2.midButton,mouse_2.rightButton,mouse_2.clicked_name,mouse_3.x,mouse_3.y,mouse_3.leftButton,mouse_3.midButton,mouse_3.rightButton,catchresponse,catchnumber,response_time_catch,Catch,mouse_11.x,mouse_11.y,mouse_11.leftButton,mouse_11.midButton,mouse_11.rightButton,trials_2.thisRepN,trials_2.thisTrialN,trials_2.thisN,trials_2.thisIndex,trials_2.ran,Colourpair,Temporder,mouse_3.clicked_name,mouse_11.clicked_name,trials_3.thisRepN,trials_3.thisTrialN,trials_3.thisN,trials_3.thisIndex,trials_3.ran,key_resp_instr_Ishi.keys,key_resp_instr_Ishi.rt,Ishi_trial_keyresp.keys,Ishi_trial_keyresp.rt,Ishi_textbox.text,Ishi_loop.thisRepN,Ishi_loop.thisTrialN,Ishi_loop.thisN,Ishi_loop.thisIndex,Ishi_loop.ran,imageaddress,textbox.text,mouse_4.x,mouse_4.y,mouse_4.leftButton,mouse_4.midButton,mouse_4.rightButton,mouse_4.clicked_name,textbox_2.text,mouse_8.x,mouse_8.y,mouse_8.leftButton,mouse_8.midButton,mouse_8.rightButton,mouse_8.clicked_name,textbox_3.text,mouse_9.x,mouse_9.y,mouse_9.leftButton,mouse_9.midButton,mouse_9.rightButton,mouse_9.clicked_name,textbox_4.text,mouse_12.x,mouse_12.y,mouse_12.leftButton,mouse_12.midButton,mouse_12.rightButton,mouse_12.clicked_name,textbox_5.text,mouse_13.x,mouse_13.y,mouse_13.leftButton,mouse_13.midButton,mouse_13.rightButton,mouse_13.clicked_name,textbox_6.text,mouse_14.x,mouse_14.y,mouse_14.leftButton,mouse_14.midButton,mouse_14.rightButton,mouse_14.clicked_name,textbox_7.text,mouse_15.x,mouse_15.y,mouse_15.leftButton,mouse_15.midButton,mouse_15.rightButton,mouse_15.clicked_name
0,0,0,5,1,,60ee964068294420110228a6,62bbfa4b5640a6c5dcfaa51b,2022-06-29_09h08.11.248,Colour_Asymmetry_Pilot,2022.1.3,Win32,59.94125757,62bbe60bf3d75ef465d3e404,,,,,,,,,,,,,,,,,,,,,,,,,,,,,,,,,,,,,,,,,,,,,,,,,,,,,,,,,,,,,,,,,,,,,,,,,,,,,,,,,,,,,,,,,,,,,,,,,,,,,,,,,,,,,,,,,,,,,,,,,,,,,,,,,,,,,,,,,,,,,,,,,,,,,,,,,,,,,,
0,1,1,54,1,,60ee964068294420110228a6,62bbfa4b5640a6c5dcfaa51b,2022-06-29_09h08.11.248,Colour_Asymmetry_Pilot,2022.1.3,Win32,59.94125757,62bbe60bf3d75ef465d3e404,,,,,,,,,,,,,,,,,,,,,,,,,,,,,,,,,,,,,,,,,,,,,,,,,,,,,,,,,,,,,,,,,,,,,,,,,,,,,,,,,,,,,,,,,,,,,,,,,,,,,,,,,,,,,,,,,,,,,,,,,,,,,,,,,,,,,,,,,,,,,,,,,,,,,,,,,,,,,,
0,2,2,69,1,,60ee964068294420110228a6,62bbfa4b5640a6c5dcfaa51b,2022-06-29_09h08.11.248,Colour_Asymmetry_Pilot,2022.1.3,Win32,59.94125757,62bbe60bf3d75ef465d3e404,,,,,,,,,,,,,,,,,,,,,,,,,,,,,,,,,,,,,,,,,,,,,,,,,,,,,,,,,,,,,,,,,,,,,,,,,,,,,,,,,,,,,,,,,,,,,,,,,,,,,,,,,,,,,,,,,,,,,,,,,,,,,,,,,,,,,,,,,,,,,,,,,,,,,,,,,,,,,,
0,3,3,47,1,,60ee964068294420110228a6,62bbfa4b5640a6c5dcfaa51b,2022-06-29_09h08.11.248,Colour_Asymmetry_Pilot,2022.1.3,Win32,59.94125757,62bbe60bf3d75ef465d3e404,,,,,,,,,,,,,,,,,,,,,,,,,,,,,,,,,,,,,,,,,,,,,,,,,,,,,,,,,,,,,,,,,,,,,,,,,,,,,,,,,,,,,,,,,,,,,,,,,,,,,,,,,,,,,,,,,,,,,,,,,,,,,,,,,,,,,,,,,,,,,,,,,,,,,,,,,,,,,,
0,4,4,49,1,,60ee964068294420110228a6,62bbfa4b5640a6c5dcfaa51b,2022-06-29_09h08.11.248,Colour_Asymmetry_Pilot,2022.1.3,Win32,59.94125757,62bbe60bf3d75ef465d3e404,,,,,,,,,,,,,,,,,,,,,,,,,,,,,,,,,,,,,,,,,,,,,,,,,,,,,,,,,,,,,,,,,,,,,,,,,,,,,,,,,,,,,,,,,,,,,,,,,,,,,,,,,,,,,,,,,,,,,,,,,,,,,,,,,,,,,,,,,,,,,,,,,,,,,,,,,,,,,,
0,5,5,31,1,,60ee964068294420110228a6,62bbfa4b5640a6c5dcfaa51b,2022-06-29_09h08.11.248,Colour_Asymmetry_Pilot,2022.1.3,Win32,59.94125757,62bbe60bf3d75ef465d3e404,,,,,,,,,,,,,,,,,,,,,,,,,,,,,,,,,,,,,,,,,,,,,,,,,,,,,,,,,,,,,,,,,,,,,,,,,,,,,,,,,,,,,,,,,,,,,,,,,,,,,,,,,,,,,,,,,,,,,,,,,,,,,,,,,,,,,,,,,,,,,,,,,,,,,,,,,,,,,,
0,6,6,91,1,,60ee964068294420110228a6,62bbfa4b5640a6c5dcfaa51b,2022-06-29_09h08.11.248,Colour_Asymmetry_Pilot,2022.1.3,Win32,59.94125757,62bbe60bf3d75ef465d3e404,,,,,,,,,,,,,,,,,,,,,,,,,,,,,,,,,,,,,,,,,,,,,,,,,,,,,,,,,,,,,,,,,,,,,,,,,,,,,,,,,,,,,,,,,,,,,,,,,,,,,,,,,,,,,,,,,,,,,,,,,,,,,,,,,,,,,,,,,,,,,,,,,,,,,,,,,,,,,,
0,7,7,67,1,,60ee964068294420110228a6,62bbfa4b5640a6c5dcfaa51b,2022-06-29_09h08.11.248,Colour_Asymmetry_Pilot,2022.1.3,Win32,59.94125757,62bbe60bf3d75ef465d3e404,,,,,,,,,,,,,,,,,,,,,,,,,,,,,,,,,,,,,,,,,,,,,,,,,,,,,,,,,,,,,,,,,,,,,,,,,,,,,,,,,,,,,,,,,,,,,,,,,,,,,,,,,,,,,,,,,,,,,,,,,,,,,,,,,,,,,,,,,,,,,,,,,,,,,,,,,,,,,,
0,8,8,9,1,,60ee964068294420110228a6,62bbfa4b5640a6c5dcfaa51b,2022-06-29_09h08.11.248,Colour_Asymmetry_Pilot,2022.1.3,Win32,59.94125757,62bbe60bf3d75ef465d3e404,,,,,,,,,,,,,,,,,,,,,,,,,,,,,,,,,,,,,,,,,,,,,,,,,,,,,,,,,,,,,,,,,,,,,,,,,,,,,,,,,,,,,,,,,,,,,,,,,,,,,,,,,,,,,,,,,,,,,,,,,,,,,,,,,,,,,,,,,,,,,,,,,,,,,,,,,,,,,,
0,9,9,55,1,,60ee964068294420110228a6,62bbfa4b5640a6c5dcfaa51b,2022-06-29_09h08.11.248,Colour_Asymmetry_Pilot,2022.1.3,Win32,59.94125757,62bbe60bf3d75ef465d3e404,,,,,,,,,,,,,,,,,,,,,,,,,,,,,,,,,,,,,,,,,,,,,,,,,,,,,,,,,,,,,,,,,,,,,,,,,,,,,,,,,,,,,,,,,,,,,,,,,,,,,,,,,,,,,,,,,,,,,,,,,,,,,,,,,,,,,,,,,,,,,,,,,,,,,,,,,,,,,,
0,10,10,0,1,,60ee964068294420110228a6,62bbfa4b5640a6c5dcfaa51b,2022-06-29_09h08.11.248,Colour_Asymmetry_Pilot,2022.1.3,Win32,59.94125757,62bbe60bf3d75ef465d3e404,,,,,,,,,,,,,,,,,,,,,,,,,,,,,,,,,,,,,,,,,,,,,,,,,,,,,,,,,,,,,,,,,,,,,,,,,,,,,,,,,,,,,,,,,,,,,,,,,,,,,,,,,,,,,,,,,,,,,,,,,,,,,,,,,,,,,,,,,,,,,,,,,,,,,,,,,,,,,,
0,11,11,2,1,,60ee964068294420110228a6,62bbfa4b5640a6c5dcfaa51b,2022-06-29_09h08.11.248,Colour_Asymmetry_Pilot,2022.1.3,Win32,59.94125757,62bbe60bf3d75ef465d3e404,,,,,,,,,,,,,,,,,,,,,,,,,,,,,,,,,,,,,,,,,,,,,,,,,,,,,,,,,,,,,,,,,,,,,,,,,,,,,,,,,,,,,,,,,,,,,,,,,,,,,,,,,,,,,,,,,,,,,,,,,,,,,,,,,,,,,,,,,,,,,,,,,,,,,,,,,,,,,,
0,12,12,59,1,,60ee964068294420110228a6,62bbfa4b5640a6c5dcfaa51b,2022-06-29_09h08.11.248,Colour_Asymmetry_Pilot,2022.1.3,Win32,59.94125757,62bbe60bf3d75ef465d3e404,,,,,,,,,,,,,,,,,,,,,,,,,,,,,,,,,,,,,,,,,,,,,,,,,,,,,,,,,,,,,,,,,,,,,,,,,,,,,,,,,,,,,,,,,,,,,,,,,,,,,,,,,,,,,,,,,,,,,,,,,,,,,,,,,,,,,,,,,,,,,,,,,,,,,,,,,,,,,,
0,13,13,21,1,,60ee964068294420110228a6,62bbfa4b5640a6c5dcfaa51b,2022-06-29_09h08.11.248,Colour_Asymmetry_Pilot,2022.1.3,Win32,59.94125757,62bbe60bf3d75ef465d3e404,,,,,,,,,,,,,,,,,,,,,,,,,,,,,,,,,,,,,,,,,,,,,,,,,,,,,,,,,,,,,,,,,,,,,,,,,,,,,,,,,,,,,,,,,,,,,,,,,,,,,,,,,,,,,,,,,,,,,,,,,,,,,,,,,,,,,,,,,,,,,,,,,,,,,,,,,,,,,,
0,14,14,63,1,,60ee964068294420110228a6,62bbfa4b5640a6c5dcfaa51b,2022-06-29_09h08.11.248,Colour_Asymmetry_Pilot,2022.1.3,Win32,59.94125757,62bbe60bf3d75ef465d3e404,,,,,,,,,,,,,,,,,,,,,,,,,,,,,,,,,,,,,,,,,,,,,,,,,,,,,,,,,,,,,,,,,,,,,,,,,,,,,,,,,,,,,,,,,,,,,,,,,,,,,,,,,,,,,,,,,,,,,,,,,,,,,,,,,,,,,,,,,,,,,,,,,,,,,,,,,,,,,,
0,15,15,3,1,,60ee964068294420110228a6,62bbfa4b5640a6c5dcfaa51b,2022-06-29_09h08.11.248,Colour_Asymmetry_Pilot,2022.1.3,Win32,59.94125757,62bbe60bf3d75ef465d3e404,,,,,,,,,,,,,,,,,,,,,,,,,,,,,,,,,,,,,,,,,,,,,,,,,,,,,,,,,,,,,,,,,,,,,,,,,,,,,,,,,,,,,,,,,,,,,,,,,,,,,,,,,,,,,,,,,,,,,,,,,,,,,,,,,,,,,,,,,,,,,,,,,,,,,,,,,,,,,,
0,16,16,43,1,,60ee964068294420110228a6,62bbfa4b5640a6c5dcfaa51b,2022-06-29_09h08.11.248,Colour_Asymmetry_Pilot,2022.1.3,Win32,59.94125757,62bbe60bf3d75ef465d3e404,,,,,,,,,,,,,,,,,,,,,,,,,,,,,,,,,,,,,,,,,,,,,,,,,,,,,,,,,,,,,,,,,,,,,,,,,,,,,,,,,,,,,,,,,,,,,,,,,,,,,,,,,,,,,,,,,,,,,,,,,,,,,,,,,,,,,,,,,,,,,,,,,,,,,,,,,,,,,,
0,17,17,32,1,,60ee964068294420110228a6,62bbfa4b5640a6c5dcfaa51b,2022-06-29_09h08.11.248,Colour_Asymmetry_Pilot,2022.1.3,Win32,59.94125757,62bbe60bf3d75ef465d3e404,,,,,,,,,,,,,,,,,,,,,,,,,,,,,,,,,,,,,,,,,,,,,,,,,,,,,,,,,,,,,,,,,,,,,,,,,,,,,,,,,,,,,,,,,,,,,,,,,,,,,,,,,,,,,,,,,,,,,,,,,,,,,,,,,,,,,,,,,,,,,,,,,,,,,,,,,,,,,,
0,18,18,13,1,,60ee964068294420110228a6,62bbfa4b5640a6c5dcfaa51b,2022-06-29_09h08.11.248,Colour_Asymmetry_Pilot,2022.1.3,Win32,59.94125757,62bbe60bf3d75ef465d3e404,,,,,,,,,,,,,,,,,,,,,,,,,,,,,,,,,,,,,,,,,,,,,,,,,,,,,,,,,,,,,,,,,,,,,,,,,,,,,,,,,,,,,,,,,,,,,,,,,,,,,,,,,,,,,,,,,,,,,,,,,,,,,,,,,,,,,,,,,,,,,,,,,,,,,,,,,,,,,,
0,19,19,71,1,,60ee964068294420110228a6,62bbfa4b5640a6c5dcfaa51b,2022-06-29_09h08.11.248,Colour_Asymmetry_Pilot,2022.1.3,Win32,59.94125757,62bbe60bf3d75ef465d3e404,,,,,,,,,,,,,,,,,,,,,,,,,,,,,,,,,,,,,,,,,,,,,,,,,,,,,,,,,,,,,,,,,,,,,,,,,,,,,,,,,,,,,,,,,,,,,,,,,,,,,,,,,,,,,,,,,,,,,,,,,,,,,,,,,,,,,,,,,,,,,,,,,,,,,,,,,,,,,,
0,20,20,51,1,,60ee964068294420110228a6,62bbfa4b5640a6c5dcfaa51b,2022-06-29_09h08.11.248,Colour_Asymmetry_Pilot,2022.1.3,Win32,59.94125757,62bbe60bf3d75ef465d3e404,,,,,,,,,,,,,,,,,,,,,,,,,,,,,,,,,,,,,,,,,,,,,,,,,,,,,,,,,,,,,,,,,,,,,,,,,,,,,,,,,,,,,,,,,,,,,,,,,,,,,,,,,,,,,,,,,,,,,,,,,,,,,,,,,,,,,,,,,,,,,,,,,,,,,,,,,,,,,,
0,21,21,92,1,,60ee964068294420110228a6,62bbfa4b5640a6c5dcfaa51b,2022-06-29_09h08.11.248,Colour_Asymmetry_Pilot,2022.1.3,Win32,59.94125757,62bbe60bf3d75ef465d3e404,,,,,,,,,,,,,,,,,,,,,,,,,,,,,,,,,,,,,,,,,,,,,,,,,,,,,,,,,,,,,,,,,,,,,,,,,,,,,,,,,,,,,,,,,,,,,,,,,,,,,,,,,,,,,,,,,,,,,,,,,,,,,,,,,,,,,,,,,,,,,,,,,,,,,,,,,,,,,,
0,22,22,86,1,,60ee964068294420110228a6,62bbfa4b5640a6c5dcfaa51b,2022-06-29_09h08.11.248,Colour_Asymmetry_Pilot,2022.1.3,Win32,59.94125757,62bbe60bf3d75ef465d3e404,,,,,,,,,,,,,,,,,,,,,,,,,,,,,,,,,,,,,,,,,,,,,,,,,,,,,,,,,,,,,,,,,,,,,,,,,,,,,,,,,,,,,,,,,,,,,,,,,,,,,,,,,,,,,,,,,,,,,,,,,,,,,,,,,,,,,,,,,,,,,,,,,,,,,,,,,,,,,,
0,23,23,82,1,,60ee964068294420110228a6,62bbfa4b5640a6c5dcfaa51b,2022-06-29_09h08.11.248,Colour_Asymmetry_Pilot,2022.1.3,Win32,59.94125757,62bbe60bf3d75ef465d3e404,,,,,,,,,,,,,,,,,,,,,,,,,,,,,,,,,,,,,,,,,,,,,,,,,,,,,,,,,,,,,,,,,,,,,,,,,,,,,,,,,,,,,,,,,,,,,,,,,,,,,,,,,,,,,,,,,,,,,,,,,,,,,,,,,,,,,,,,,,,,,,,,,,,,,,,,,,,,,,
0,24,24,23,1,,60ee964068294420110228a6,62bbfa4b5640a6c5dcfaa51b,2022-06-29_09h08.11.248,Colour_Asymmetry_Pilot,2022.1.3,Win32,59.94125757,62bbe60bf3d75ef465d3e404,,,,,,,,,,,,,,,,,,,,,,,,,,,,,,,,,,,,,,,,,,,,,,,,,,,,,,,,,,,,,,,,,,,,,,,,,,,,,,,,,,,,,,,,,,,,,,,,,,,,,,,,,,,,,,,,,,,,,,,,,,,,,,,,,,,,,,,,,,,,,,,,,,,,,,,,,,,,,,
0,25,25,76,1,,60ee964068294420110228a6,62bbfa4b5640a6c5dcfaa51b,2022-06-29_09h08.11.248,Colour_Asymmetry_Pilot,2022.1.3,Win32,59.94125757,62bbe60bf3d75ef465d3e404,,,,,,,,,,,,,,,,,,,,,,,,,,,,,,,,,,,,,,,,,,,,,,,,,,,,,,,,,,,,,,,,,,,,,,,,,,,,,,,,,,,,,,,,,,,,,,,,,,,,,,,,,,,,,,,,,,,,,,,,,,,,,,,,,,,,,,,,,,,,,,,,,,,,,,,,,,,,,,
0,26,26,46,1,,60ee964068294420110228a6,62bbfa4b5640a6c5dcfaa51b,2022-06-29_09h08.11.248,Colour_Asymmetry_Pilot,2022.1.3,Win32,59.94125757,62bbe60bf3d75ef465d3e404,,,,,,,,,,,,,,,,,,,,,,,,,,,,,,,,,,,,,,,,,,,,,,,,,,,,,,,,,,,,,,,,,,,,,,,,,,,,,,,,,,,,,,,,,,,,,,,,,,,,,,,,,,,,,,,,,,,,,,,,,,,,,,,,,,,,,,,,,,,,,,,,,,,,,,,,,,,,,,
0,27,27,52,1,,60ee964068294420110228a6,62bbfa4b5640a6c5dcfaa51b,2022-06-29_09h08.11.248,Colour_Asymmetry_Pilot,2022.1.3,Win32,59.94125757,62bbe60bf3d75ef465d3e404,,,,,,,,,,,,,,,,,,,,,,,,,,,,,,,,,,,,,,,,,,,,,,,,,,,,,,,,,,,,,,,,,,,,,,,,,,,,,,,,,,,,,,,,,,,,,,,,,,,,,,,,,,,,,,,,,,,,,,,,,,,,,,,,,,,,,,,,,,,,,,,,,,,,,,,,,,,,,,
0,28,28,74,1,,60ee964068294420110228a6,62bbfa4b5640a6c5dcfaa51b,2022-06-29_09h08.11.248,Colour_Asymmetry_Pilot,2022.1.3,Win32,59.94125757,62bbe60bf3d75ef465d3e404,,,,,,,,,,,,,,,,,,,,,,,,,,,,,,,,,,,,,,,,,,,,,,,,,,,,,,,,,,,,,,,,,,,,,,,,,,,,,,,,,,,,,,,,,,,,,,,,,,,,,,,,,,,,,,,,,,,,,,,,,,,,,,,,,,,,,,,,,,,,,,,,,,,,,,,,,,,,,,
0,29,29,48,1,,60ee964068294420110228a6,62bbfa4b5640a6c5dcfaa51b,2022-06-29_09h08.11.248,Colour_Asymmetry_Pilot,2022.1.3,Win32,59.94125757,62bbe60bf3d75ef465d3e404,,,,,,,,,,,,,,,,,,,,,,,,,,,,,,,,,,,,,,,,,,,,,,,,,,,,,,,,,,,,,,,,,,,,,,,,,,,,,,,,,,,,,,,,,,,,,,,,,,,,,,,,,,,,,,,,,,,,,,,,,,,,,,,,,,,,,,,,,,,,,,,,,,,,,,,,,,,,,,
0,30,30,22,1,,60ee964068294420110228a6,62bbfa4b5640a6c5dcfaa51b,2022-06-29_09h08.11.248,Colour_Asymmetry_Pilot,2022.1.3,Win32,59.94125757,62bbe60bf3d75ef465d3e404,,,,,,,,,,,,,,,,,,,,,,,,,,,,,,,,,,,,,,,,,,,,,,,,,,,,,,,,,,,,,,,,,,,,,,,,,,,,,,,,,,,,,,,,,,,,,,,,,,,,,,,,,,,,,,,,,,,,,,,,,,,,,,,,,,,,,,,,,,,,,,,,,,,,,,,,,,,,,,
0,31,31,42,1,,60ee964068294420110228a6,62bbfa4b5640a6c5dcfaa51b,2022-06-29_09h08.11.248,Colour_Asymmetry_Pilot,2022.1.3,Win32,59.94125757,62bbe60bf3d75ef465d3e404,,,,,,,,,,,,,,,,,,,,,,,,,,,,,,,,,,,,,,,,,,,,,,,,,,,,,,,,,,,,,,,,,,,,,,,,,,,,,,,,,,,,,,,,,,,,,,,,,,,,,,,,,,,,,,,,,,,,,,,,,,,,,,,,,,,,,,,,,,,,,,,,,,,,,,,,,,,,,,
0,32,32,56,1,,60ee964068294420110228a6,62bbfa4b5640a6c5dcfaa51b,2022-06-29_09h08.11.248,Colour_Asymmetry_Pilot,2022.1.3,Win32,59.94125757,62bbe60bf3d75ef465d3e404,,,,,,,,,,,,,,,,,,,,,,,,,,,,,,,,,,,,,,,,,,,,,,,,,,,,,,,,,,,,,,,,,,,,,,,,,,,,,,,,,,,,,,,,,,,,,,,,,,,,,,,,,,,,,,,,,,,,,,,,,,,,,,,,,,,,,,,,,,,,,,,,,,,,,,,,,,,,,,
0,33,33,30,1,,60ee964068294420110228a6,62bbfa4b5640a6c5dcfaa51b,2022-06-29_09h08.11.248,Colour_Asymmetry_Pilot,2022.1.3,Win32,59.94125757,62bbe60bf3d75ef465d3e404,,,,,,,,,,,,,,,,,,,,,,,,,,,,,,,,,,,,,,,,,,,,,,,,,,,,,,,,,,,,,,,,,,,,,,,,,,,,,,,,,,,,,,,,,,,,,,,,,,,,,,,,,,,,,,,,,,,,,,,,,,,,,,,,,,,,,,,,,,,,,,,,,,,,,,,,,,,,,,
0,34,34,27,1,,60ee964068294420110228a6,62bbfa4b5640a6c5dcfaa51b,2022-06-29_09h08.11.248,Colour_Asymmetry_Pilot,2022.1.3,Win32,59.94125757,62bbe60bf3d75ef465d3e404,,,,,,,,,,,,,,,,,,,,,,,,,,,,,,,,,,,,,,,,,,,,,,,,,,,,,,,,,,,,,,,,,,,,,,,,,,,,,,,,,,,,,,,,,,,,,,,,,,,,,,,,,,,,,,,,,,,,,,,,,,,,,,,,,,,,,,,,,,,,,,,,,,,,,,,,,,,,,,
0,35,35,33,1,,60ee964068294420110228a6,62bbfa4b5640a6c5dcfaa51b,2022-06-29_09h08.11.248,Colour_Asymmetry_Pilot,2022.1.3,Win32,59.94125757,62bbe60bf3d75ef465d3e404,,,,,,,,,,,,,,,,,,,,,,,,,,,,,,,,,,,,,,,,,,,,,,,,,,,,,,,,,,,,,,,,,,,,,,,,,,,,,,,,,,,,,,,,,,,,,,,,,,,,,,,,,,,,,,,,,,,,,,,,,,,,,,,,,,,,,,,,,,,,,,,,,,,,,,,,,,,,,,
0,36,36,38,1,,60ee964068294420110228a6,62bbfa4b5640a6c5dcfaa51b,2022-06-29_09h08.11.248,Colour_Asymmetry_Pilot,2022.1.3,Win32,59.94125757,62bbe60bf3d75ef465d3e404,,,,,,,,,,,,,,,,,,,,,,,,,,,,,,,,,,,,,,,,,,,,,,,,,,,,,,,,,,,,,,,,,,,,,,,,,,,,,,,,,,,,,,,,,,,,,,,,,,,,,,,,,,,,,,,,,,,,,,,,,,,,,,,,,,,,,,,,,,,,,,,,,,,,,,,,,,,,,,
0,37,37,14,1,,60ee964068294420110228a6,62bbfa4b5640a6c5dcfaa51b,2022-06-29_09h08.11.248,Colour_Asymmetry_Pilot,2022.1.3,Win32,59.94125757,62bbe60bf3d75ef465d3e404,,,,,,,,,,,,,,,,,,,,,,,,,,,,,,,,,,,,,,,,,,,,,,,,,,,,,,,,,,,,,,,,,,,,,,,,,,,,,,,,,,,,,,,,,,,,,,,,,,,,,,,,,,,,,,,,,,,,,,,,,,,,,,,,,,,,,,,,,,,,,,,,,,,,,,,,,,,,,,
0,38,38,66,1,,60ee964068294420110228a6,62bbfa4b5640a6c5dcfaa51b,2022-06-29_09h08.11.248,Colour_Asymmetry_Pilot,2022.1.3,Win32,59.94125757,62bbe60bf3d75ef465d3e404,,,,,,,,,,,,,,,,,,,,,,,,,,,,,,,,,,,,,,,,,,,,,,,,,,,,,,,,,,,,,,,,,,,,,,,,,,,,,,,,,,,,,,,,,,,,,,,,,,,,,,,,,,,,,,,,,,,,,,,,,,,,,,,,,,,,,,,,,,,,,,,,,,,,,,,,,,,,,,
0,39,39,72,1,,60ee964068294420110228a6,62bbfa4b5640a6c5dcfaa51b,2022-06-29_09h08.11.248,Colour_Asymmetry_Pilot,2022.1.3,Win32,59.94125757,62bbe60bf3d75ef465d3e404,,,,,,,,,,,,,,,,,,,,,,,,,,,,,,,,,,,,,,,,,,,,,,,,,,,,,,,,,,,,,,,,,,,,,,,,,,,,,,,,,,,,,,,,,,,,,,,,,,,,,,,,,,,,,,,,,,,,,,,,,,,,,,,,,,,,,,,,,,,,,,,,,,,,,,,,,,,,,,
0,40,40,85,1,,60ee964068294420110228a6,62bbfa4b5640a6c5dcfaa51b,2022-06-29_09h08.11.248,Colour_Asymmetry_Pilot,2022.1.3,Win32,59.94125757,62bbe60bf3d75ef465d3e404,,,,,,,,,,,,,,,,,,,,,,,,,,,,,,,,,,,,,,,,,,,,,,,,,,,,,,,,,,,,,,,,,,,,,,,,,,,,,,,,,,,,,,,,,,,,,,,,,,,,,,,,,,,,,,,,,,,,,,,,,,,,,,,,,,,,,,,,,,,,,,,,,,,,,,,,,,,,,,
0,41,41,40,1,,60ee964068294420110228a6,62bbfa4b5640a6c5dcfaa51b,2022-06-29_09h08.11.248,Colour_Asymmetry_Pilot,2022.1.3,Win32,59.94125757,62bbe60bf3d75ef465d3e404,,,,,,,,,,,,,,,,,,,,,,,,,,,,,,,,,,,,,,,,,,,,,,,,,,,,,,,,,,,,,,,,,,,,,,,,,,,,,,,,,,,,,,,,,,,,,,,,,,,,,,,,,,,,,,,,,,,,,,,,,,,,,,,,,,,,,,,,,,,,,,,,,,,,,,,,,,,,,,
0,42,42,4,1,,60ee964068294420110228a6,62bbfa4b5640a6c5dcfaa51b,2022-06-29_09h08.11.248,Colour_Asymmetry_Pilot,2022.1.3,Win32,59.94125757,62bbe60bf3d75ef465d3e404,,,,,,,,,,,,,,,,,,,,,,,,,,,,,,,,,,,,,,,,,,,,,,,,,,,,,,,,,,,,,,,,,,,,,,,,,,,,,,,,,,,,,,,,,,,,,,,,,,,,,,,,,,,,,,,,,,,,,,,,,,,,,,,,,,,,,,,,,,,,,,,,,,,,,,,,,,,,,,
0,43,43,90,1,,60ee964068294420110228a6,62bbfa4b5640a6c5dcfaa51b,2022-06-29_09h08.11.248,Colour_Asymmetry_Pilot,2022.1.3,Win32,59.94125757,62bbe60bf3d75ef465d3e404,,,,,,,,,,,,,,,,,,,,,,,,,,,,,,,,,,,,,,,,,,,,,,,,,,,,,,,,,,,,,,,,,,,,,,,,,,,,,,,,,,,,,,,,,,,,,,,,,,,,,,,,,,,,,,,,,,,,,,,,,,,,,,,,,,,,,,,,,,,,,,,,,,,,,,,,,,,,,,
0,44,44,41,1,,60ee964068294420110228a6,62bbfa4b5640a6c5dcfaa51b,2022-06-29_09h08.11.248,Colour_Asymmetry_Pilot,2022.1.3,Win32,59.94125757,62bbe60bf3d75ef465d3e404,,,,,,,,,,,,,,,,,,,,,,,,,,,,,,,,,,,,,,,,,,,,,,,,,,,,,,,,,,,,,,,,,,,,,,,,,,,,,,,,,,,,,,,,,,,,,,,,,,,,,,,,,,,,,,,,,,,,,,,,,,,,,,,,,,,,,,,,,,,,,,,,,,,,,,,,,,,,,,
0,45,45,6,1,,60ee964068294420110228a6,62bbfa4b5640a6c5dcfaa51b,2022-06-29_09h08.11.248,Colour_Asymmetry_Pilot,2022.1.3,Win32,59.94125757,62bbe60bf3d75ef465d3e404,,,,,,,,,,,,,,,,,,,,,,,,,,,,,,,,,,,,,,,,,,,,,,,,,,,,,,,,,,,,,,,,,,,,,,,,,,,,,,,,,,,,,,,,,,,,,,,,,,,,,,,,,,,,,,,,,,,,,,,,,,,,,,,,,,,,,,,,,,,,,,,,,,,,,,,,,,,,,,
0,46,46,8,1,,60ee964068294420110228a6,62bbfa4b5640a6c5dcfaa51b,2022-06-29_09h08.11.248,Colour_Asymmetry_Pilot,2022.1.3,Win32,59.94125757,62bbe60bf3d75ef465d3e404,,,,,,,,,,,,,,,,,,,,,,,,,,,,,,,,,,,,,,,,,,,,,,,,,,,,,,,,,,,,,,,,,,,,,,,,,,,,,,,,,,,,,,,,,,,,,,,,,,,,,,,,,,,,,,,,,,,,,,,,,,,,,,,,,,,,,,,,,,,,,,,,,,,,,,,,,,,,,,
0,47,47,57,1,,60ee964068294420110228a6,62bbfa4b5640a6c5dcfaa51b,2022-06-29_09h08.11.248,Colour_Asymmetry_Pilot,2022.1.3,Win32,59.94125757,62bbe60bf3d75ef465d3e404,,,,,,,,,,,,,,,,,,,,,,,,,,,,,,,,,,,,,,,,,,,,,,,,,,,,,,,,,,,,,,,,,,,,,,,,,,,,,,,,,,,,,,,,,,,,,,,,,,,,,,,,,,,,,,,,,,,,,,,,,,,,,,,,,,,,,,,,,,,,,,,,,,,,,,,,,,,,,,
0,48,48,73,1,,60ee964068294420110228a6,62bbfa4b5640a6c5dcfaa51b,2022-06-29_09h08.11.248,Colour_Asymmetry_Pilot,2022.1.3,Win32,59.94125757,62bbe60bf3d75ef465d3e404,,,,,,,,,,,,,,,,,,,,,,,,,,,,,,,,,,,,,,,,,,,,,,,,,,,,,,,,,,,,,,,,,,,,,,,,,,,,,,,,,,,,,,,,,,,,,,,,,,,,,,,,,,,,,,,,,,,,,,,,,,,,,,,,,,,,,,,,,,,,,,,,,,,,,,,,,,,,,,
0,49,49,24,1,,60ee964068294420110228a6,62bbfa4b5640a6c5dcfaa51b,2022-06-29_09h08.11.248,Colour_Asymmetry_Pilot,2022.1.3,Win32,59.94125757,62bbe60bf3d75ef465d3e404,,,,,,,,,,,,,,,,,,,,,,,,,,,,,,,,,,,,,,,,,,,,,,,,,,,,,,,,,,,,,,,,,,,,,,,,,,,,,,,,,,,,,,,,,,,,,,,,,,,,,,,,,,,,,,,,,,,,,,,,,,,,,,,,,,,,,,,,,,,,,,,,,,,,,,,,,,,,,,
0,50,50,1,1,,60ee964068294420110228a6,62bbfa4b5640a6c5dcfaa51b,2022-06-29_09h08.11.248,Colour_Asymmetry_Pilot,2022.1.3,Win32,59.94125757,62bbe60bf3d75ef465d3e404,,,,,,,,,,,,,,,,,,,,,,,,,,,,,,,,,,,,,,,,,,,,,,,,,,,,,,,,,,,,,,,,,,,,,,,,,,,,,,,,,,,,,,,,,,,,,,,,,,,,,,,,,,,,,,,,,,,,,,,,,,,,,,,,,,,,,,,,,,,,,,,,,,,,,,,,,,,,,,
0,51,51,84,1,,60ee964068294420110228a6,62bbfa4b5640a6c5dcfaa51b,2022-06-29_09h08.11.248,Colour_Asymmetry_Pilot,2022.1.3,Win32,59.94125757,62bbe60bf3d75ef465d3e404,,,,,,,,,,,,,,,,,,,,,,,,,,,,,,,,,,,,,,,,,,,,,,,,,,,,,,,,,,,,,,,,,,,,,,,,,,,,,,,,,,,,,,,,,,,,,,,,,,,,,,,,,,,,,,,,,,,,,,,,,,,,,,,,,,,,,,,,,,,,,,,,,,,,,,,,,,,,,,
0,52,52,28,1,,60ee964068294420110228a6,62bbfa4b5640a6c5dcfaa51b,2022-06-29_09h08.11.248,Colour_Asymmetry_Pilot,2022.1.3,Win32,59.94125757,62bbe60bf3d75ef465d3e404,,,,,,,,,,,,,,,,,,,,,,,,,,,,,,,,,,,,,,,,,,,,,,,,,,,,,,,,,,,,,,,,,,,,,,,,,,,,,,,,,,,,,,,,,,,,,,,,,,,,,,,,,,,,,,,,,,,,,,,,,,,,,,,,,,,,,,,,,,,,,,,,,,,,,,,,,,,,,,
0,53,53,44,1,,60ee964068294420110228a6,62bbfa4b5640a6c5dcfaa51b,2022-06-29_09h08.11.248,Colour_Asymmetry_Pilot,2022.1.3,Win32,59.94125757,62bbe60bf3d75ef465d3e404,,,,,,,,,,,,,,,,,,,,,,,,,,,,,,,,,,,,,,,,,,,,,,,,,,,,,,,,,,,,,,,,,,,,,,,,,,,,,,,,,,,,,,,,,,,,,,,,,,,,,,,,,,,,,,,,,,,,,,,,,,,,,,,,,,,,,,,,,,,,,,,,,,,,,,,,,,,,,,
0,54,54,25,1,,60ee964068294420110228a6,62bbfa4b5640a6c5dcfaa51b,2022-06-29_09h08.11.248,Colour_Asymmetry_Pilot,2022.1.3,Win32,59.94125757,62bbe60bf3d75ef465d3e404,,,,,,,,,,,,,,,,,,,,,,,,,,,,,,,,,,,,,,,,,,,,,,,,,,,,,,,,,,,,,,,,,,,,,,,,,,,,,,,,,,,,,,,,,,,,,,,,,,,,,,,,,,,,,,,,,,,,,,,,,,,,,,,,,,,,,,,,,,,,,,,,,,,,,,,,,,,,,,
0,55,55,10,1,,60ee964068294420110228a6,62bbfa4b5640a6c5dcfaa51b,2022-06-29_09h08.11.248,Colour_Asymmetry_Pilot,2022.1.3,Win32,59.94125757,62bbe60bf3d75ef465d3e404,,,,,,,,,,,,,,,,,,,,,,,,,,,,,,,,,,,,,,,,,,,,,,,,,,,,,,,,,,,,,,,,,,,,,,,,,,,,,,,,,,,,,,,,,,,,,,,,,,,,,,,,,,,,,,,,,,,,,,,,,,,,,,,,,,,,,,,,,,,,,,,,,,,,,,,,,,,,,,
0,56,56,87,1,,60ee964068294420110228a6,62bbfa4b5640a6c5dcfaa51b,2022-06-29_09h08.11.248,Colour_Asymmetry_Pilot,2022.1.3,Win32,59.94125757,62bbe60bf3d75ef465d3e404,,,,,,,,,,,,,,,,,,,,,,,,,,,,,,,,,,,,,,,,,,,,,,,,,,,,,,,,,,,,,,,,,,,,,,,,,,,,,,,,,,,,,,,,,,,,,,,,,,,,,,,,,,,,,,,,,,,,,,,,,,,,,,,,,,,,,,,,,,,,,,,,,,,,,,,,,,,,,,
0,57,57,61,1,,60ee964068294420110228a6,62bbfa4b5640a6c5dcfaa51b,2022-06-29_09h08.11.248,Colour_Asymmetry_Pilot,2022.1.3,Win32,59.94125757,62bbe60bf3d75ef465d3e404,,,,,,,,,,,,,,,,,,,,,,,,,,,,,,,,,,,,,,,,,,,,,,,,,,,,,,,,,,,,,,,,,,,,,,,,,,,,,,,,,,,,,,,,,,,,,,,,,,,,,,,,,,,,,,,,,,,,,,,,,,,,,,,,,,,,,,,,,,,,,,,,,,,,,,,,,,,,,,
0,58,58,50,1,,60ee964068294420110228a6,62bbfa4b5640a6c5dcfaa51b,2022-06-29_09h08.11.248,Colour_Asymmetry_Pilot,2022.1.3,Win32,59.94125757,62bbe60bf3d75ef465d3e404,,,,,,,,,,,,,,,,,,,,,,,,,,,,,,,,,,,,,,,,,,,,,,,,,,,,,,,,,,,,,,,,,,,,,,,,,,,,,,,,,,,,,,,,,,,,,,,,,,,,,,,,,,,,,,,,,,,,,,,,,,,,,,,,,,,,,,,,,,,,,,,,,,,,,,,,,,,,,,
0,59,59,39,1,,60ee964068294420110228a6,62bbfa4b5640a6c5dcfaa51b,2022-06-29_09h08.11.248,Colour_Asymmetry_Pilot,2022.1.3,Win32,59.94125757,62bbe60bf3d75ef465d3e404,,,,,,,,,,,,,,,,,,,,,,,,,,,,,,,,,,,,,,,,,,,,,,,,,,,,,,,,,,,,,,,,,,,,,,,,,,,,,,,,,,,,,,,,,,,,,,,,,,,,,,,,,,,,,,,,,,,,,,,,,,,,,,,,,,,,,,,,,,,,,,,,,,,,,,,,,,,,,,
0,60,60,80,1,,60ee964068294420110228a6,62bbfa4b5640a6c5dcfaa51b,2022-06-29_09h08.11.248,Colour_Asymmetry_Pilot,2022.1.3,Win32,59.94125757,62bbe60bf3d75ef465d3e404,,,,,,,,,,,,,,,,,,,,,,,,,,,,,,,,,,,,,,,,,,,,,,,,,,,,,,,,,,,,,,,,,,,,,,,,,,,,,,,,,,,,,,,,,,,,,,,,,,,,,,,,,,,,,,,,,,,,,,,,,,,,,,,,,,,,,,,,,,,,,,,,,,,,,,,,,,,,,,
0,61,61,64,1,,60ee964068294420110228a6,62bbfa4b5640a6c5dcfaa51b,2022-06-29_09h08.11.248,Colour_Asymmetry_Pilot,2022.1.3,Win32,59.94125757,62bbe60bf3d75ef465d3e404,,,,,,,,,,,,,,,,,,,,,,,,,,,,,,,,,,,,,,,,,,,,,,,,,,,,,,,,,,,,,,,,,,,,,,,,,,,,,,,,,,,,,,,,,,,,,,,,,,,,,,,,,,,,,,,,,,,,,,,,,,,,,,,,,,,,,,,,,,,,,,,,,,,,,,,,,,,,,,
0,62,62,70,1,,60ee964068294420110228a6,62bbfa4b5640a6c5dcfaa51b,2022-06-29_09h08.11.248,Colour_Asymmetry_Pilot,2022.1.3,Win32,59.94125757,62bbe60bf3d75ef465d3e404,,,,,,,,,,,,,,,,,,,,,,,,,,,,,,,,,,,,,,,,,,,,,,,,,,,,,,,,,,,,,,,,,,,,,,,,,,,,,,,,,,,,,,,,,,,,,,,,,,,,,,,,,,,,,,,,,,,,,,,,,,,,,,,,,,,,,,,,,,,,,,,,,,,,,,,,,,,,,,
0,63,63,15,1,,60ee964068294420110228a6,62bbfa4b5640a6c5dcfaa51b,2022-06-29_09h08.11.248,Colour_Asymmetry_Pilot,2022.1.3,Win32,59.94125757,62bbe60bf3d75ef465d3e404,,,,,,,,,,,,,,,,,,,,,,,,,,,,,,,,,,,,,,,,,,,,,,,,,,,,,,,,,,,,,,,,,,,,,,,,,,,,,,,,,,,,,,,,,,,,,,,,,,,,,,,,,,,,,,,,,,,,,,,,,,,,,,,,,,,,,,,,,,,,,,,,,,,,,,,,,,,,,,
0,64,64,29,1,,60ee964068294420110228a6,62bbfa4b5640a6c5dcfaa51b,2022-06-29_09h08.11.248,Colour_Asymmetry_Pilot,2022.1.3,Win32,59.94125757,62bbe60bf3d75ef465d3e404,,,,,,,,,,,,,,,,,,,,,,,,,,,,,,,,,,,,,,,,,,,,,,,,,,,,,,,,,,,,,,,,,,,,,,,,,,,,,,,,,,,,,,,,,,,,,,,,,,,,,,,,,,,,,,,,,,,,,,,,,,,,,,,,,,,,,,,,,,,,,,,,,,,,,,,,,,,,,,
0,65,65,35,1,,60ee964068294420110228a6,62bbfa4b5640a6c5dcfaa51b,2022-06-29_09h08.11.248,Colour_Asymmetry_Pilot,2022.1.3,Win32,59.94125757,62bbe60bf3d75ef465d3e404,,,,,,,,,,,,,,,,,,,,,,,,,,,,,,,,,,,,,,,,,,,,,,,,,,,,,,,,,,,,,,,,,,,,,,,,,,,,,,,,,,,,,,,,,,,,,,,,,,,,,,,,,,,,,,,,,,,,,,,,,,,,,,,,,,,,,,,,,,,,,,,,,,,,,,,,,,,,,,
0,66,66,26,1,,60ee964068294420110228a6,62bbfa4b5640a6c5dcfaa51b,2022-06-29_09h08.11.248,Colour_Asymmetry_Pilot,2022.1.3,Win32,59.94125757,62bbe60bf3d75ef465d3e404,,,,,,,,,,,,,,,,,,,,,,,,,,,,,,,,,,,,,,,,,,,,,,,,,,,,,,,,,,,,,,,,,,,,,,,,,,,,,,,,,,,,,,,,,,,,,,,,,,,,,,,,,,,,,,,,,,,,,,,,,,,,,,,,,,,,,,,,,,,,,,,,,,,,,,,,,,,,,,
0,67,67,65,1,,60ee964068294420110228a6,62bbfa4b5640a6c5dcfaa51b,2022-06-29_09h08.11.248,Colour_Asymmetry_Pilot,2022.1.3,Win32,59.94125757,62bbe60bf3d75ef465d3e404,,,,,,,,,,,,,,,,,,,,,,,,,,,,,,,,,,,,,,,,,,,,,,,,,,,,,,,,,,,,,,,,,,,,,,,,,,,,,,,,,,,,,,,,,,,,,,,,,,,,,,,,,,,,,,,,,,,,,,,,,,,,,,,,,,,,,,,,,,,,,,,,,,,,,,,,,,,,,,
0,68,68,62,1,,60ee964068294420110228a6,62bbfa4b5640a6c5dcfaa51b,2022-06-29_09h08.11.248,Colour_Asymmetry_Pilot,2022.1.3,Win32,59.94125757,62bbe60bf3d75ef465d3e404,,,,,,,,,,,,,,,,,,,,,,,,,,,,,,,,,,,,,,,,,,,,,,,,,,,,,,,,,,,,,,,,,,,,,,,,,,,,,,,,,,,,,,,,,,,,,,,,,,,,,,,,,,,,,,,,,,,,,,,,,,,,,,,,,,,,,,,,,,,,,,,,,,,,,,,,,,,,,,
0,69,69,60,1,,60ee964068294420110228a6,62bbfa4b5640a6c5dcfaa51b,2022-06-29_09h08.11.248,Colour_Asymmetry_Pilot,2022.1.3,Win32,59.94125757,62bbe60bf3d75ef465d3e404,,,,,,,,,,,,,,,,,,,,,,,,,,,,,,,,,,,,,,,,,,,,,,,,,,,,,,,,,,,,,,,,,,,,,,,,,,,,,,,,,,,,,,,,,,,,,,,,,,,,,,,,,,,,,,,,,,,,,,,,,,,,,,,,,,,,,,,,,,,,,,,,,,,,,,,,,,,,,,
0,70,70,16,1,,60ee964068294420110228a6,62bbfa4b5640a6c5dcfaa51b,2022-06-29_09h08.11.248,Colour_Asymmetry_Pilot,2022.1.3,Win32,59.94125757,62bbe60bf3d75ef465d3e404,,,,,,,,,,,,,,,,,,,,,,,,,,,,,,,,,,,,,,,,,,,,,,,,,,,,,,,,,,,,,,,,,,,,,,,,,,,,,,,,,,,,,,,,,,,,,,,,,,,,,,,,,,,,,,,,,,,,,,,,,,,,,,,,,,,,,,,,,,,,,,,,,,,,,,,,,,,,,,
0,71,71,17,1,,60ee964068294420110228a6,62bbfa4b5640a6c5dcfaa51b,2022-06-29_09h08.11.248,Colour_Asymmetry_Pilot,2022.1.3,Win32,59.94125757,62bbe60bf3d75ef465d3e404,,,,,,,,,,,,,,,,,,,,,,,,,,,,,,,,,,,,,,,,,,,,,,,,,,,,,,,,,,,,,,,,,,,,,,,,,,,,,,,,,,,,,,,,,,,,,,,,,,,,,,,,,,,,,,,,,,,,,,,,,,,,,,,,,,,,,,,,,,,,,,,,,,,,,,,,,,,,,,
0,72,72,37,1,,60ee964068294420110228a6,62bbfa4b5640a6c5dcfaa51b,2022-06-29_09h08.11.248,Colour_Asymmetry_Pilot,2022.1.3,Win32,59.94125757,62bbe60bf3d75ef465d3e404,,,,,,,,,,,,,,,,,,,,,,,,,,,,,,,,,,,,,,,,,,,,,,,,,,,,,,,,,,,,,,,,,,,,,,,,,,,,,,,,,,,,,,,,,,,,,,,,,,,,,,,,,,,,,,,,,,,,,,,,,,,,,,,,,,,,,,,,,,,,,,,,,,,,,,,,,,,,,,
0,73,73,18,1,,60ee964068294420110228a6,62bbfa4b5640a6c5dcfaa51b,2022-06-29_09h08.11.248,Colour_Asymmetry_Pilot,2022.1.3,Win32,59.94125757,62bbe60bf3d75ef465d3e404,,,,,,,,,,,,,,,,,,,,,,,,,,,,,,,,,,,,,,,,,,,,,,,,,,,,,,,,,,,,,,,,,,,,,,,,,,,,,,,,,,,,,,,,,,,,,,,,,,,,,,,,,,,,,,,,,,,,,,,,,,,,,,,,,,,,,,,,,,,,,,,,,,,,,,,,,,,,,,
0,74,74,45,1,,60ee964068294420110228a6,62bbfa4b5640a6c5dcfaa51b,2022-06-29_09h08.11.248,Colour_Asymmetry_Pilot,2022.1.3,Win32,59.94125757,62bbe60bf3d75ef465d3e404,,,,,,,,,,,,,,,,,,,,,,,,,,,,,,,,,,,,,,,,,,,,,,,,,,,,,,,,,,,,,,,,,,,,,,,,,,,,,,,,,,,,,,,,,,,,,,,,,,,,,,,,,,,,,,,,,,,,,,,,,,,,,,,,,,,,,,,,,,,,,,,,,,,,,,,,,,,,,,
0,75,75,11,1,,60ee964068294420110228a6,62bbfa4b5640a6c5dcfaa51b,2022-06-29_09h08.11.248,Colour_Asymmetry_Pilot,2022.1.3,Win32,59.94125757,62bbe60bf3d75ef465d3e404,,,,,,,,,,,,,,,,,,,,,,,,,,,,,,,,,,,,,,,,,,,,,,,,,,,,,,,,,,,,,,,,,,,,,,,,,,,,,,,,,,,,,,,,,,,,,,,,,,,,,,,,,,,,,,,,,,,,,,,,,,,,,,,,,,,,,,,,,,,,,,,,,,,,,,,,,,,,,,
0,76,76,53,1,,60ee964068294420110228a6,62bbfa4b5640a6c5dcfaa51b,2022-06-29_09h08.11.248,Colour_Asymmetry_Pilot,2022.1.3,Win32,59.94125757,62bbe60bf3d75ef465d3e404,,,,,,,,,,,,,,,,,,,,,,,,,,,,,,,,,,,,,,,,,,,,,,,,,,,,,,,,,,,,,,,,,,,,,,,,,,,,,,,,,,,,,,,,,,,,,,,,,,,,,,,,,,,,,,,,,,,,,,,,,,,,,,,,,,,,,,,,,,,,,,,,,,,,,,,,,,,,,,
0,77,77,36,1,,60ee964068294420110228a6,62bbfa4b5640a6c5dcfaa51b,2022-06-29_09h08.11.248,Colour_Asymmetry_Pilot,2022.1.3,Win32,59.94125757,62bbe60bf3d75ef465d3e404,,,,,,,,,,,,,,,,,,,,,,,,,,,,,,,,,,,,,,,,,,,,,,,,,,,,,,,,,,,,,,,,,,,,,,,,,,,,,,,,,,,,,,,,,,,,,,,,,,,,,,,,,,,,,,,,,,,,,,,,,,,,,,,,,,,,,,,,,,,,,,,,,,,,,,,,,,,,,,
0,78,78,83,1,,60ee964068294420110228a6,62bbfa4b5640a6c5dcfaa51b,2022-06-29_09h08.11.248,Colour_Asymmetry_Pilot,2022.1.3,Win32,59.94125757,62bbe60bf3d75ef465d3e404,,,,,,,,,,,,,,,,,,,,,,,,,,,,,,,,,,,,,,,,,,,,,,,,,,,,,,,,,,,,,,,,,,,,,,,,,,,,,,,,,,,,,,,,,,,,,,,,,,,,,,,,,,,,,,,,,,,,,,,,,,,,,,,,,,,,,,,,,,,,,,,,,,,,,,,,,,,,,,
0,79,79,81,1,,60ee964068294420110228a6,62bbfa4b5640a6c5dcfaa51b,2022-06-29_09h08.11.248,Colour_Asymmetry_Pilot,2022.1.3,Win32,59.94125757,62bbe60bf3d75ef465d3e404,,,,,,,,,,,,,,,,,,,,,,,,,,,,,,,,,,,,,,,,,,,,,,,,,,,,,,,,,,,,,,,,,,,,,,,,,,,,,,,,,,,,,,,,,,,,,,,,,,,,,,,,,,,,,,,,,,,,,,,,,,,,,,,,,,,,,,,,,,,,,,,,,,,,,,,,,,,,,,
0,80,80,77,1,,60ee964068294420110228a6,62bbfa4b5640a6c5dcfaa51b,2022-06-29_09h08.11.248,Colour_Asymmetry_Pilot,2022.1.3,Win32,59.94125757,62bbe60bf3d75ef465d3e404,,,,,,,,,,,,,,,,,,,,,,,,,,,,,,,,,,,,,,,,,,,,,,,,,,,,,,,,,,,,,,,,,,,,,,,,,,,,,,,,,,,,,,,,,,,,,,,,,,,,,,,,,,,,,,,,,,,,,,,,,,,,,,,,,,,,,,,,,,,,,,,,,,,,,,,,,,,,,,
0,81,81,7,1,,60ee964068294420110228a6,62bbfa4b5640a6c5dcfaa51b,2022-06-29_09h08.11.248,Colour_Asymmetry_Pilot,2022.1.3,Win32,59.94125757,62bbe60bf3d75ef465d3e404,,,,,,,,,,,,,,,,,,,,,,,,,,,,,,,,,,,,,,,,,,,,,,,,,,,,,,,,,,,,,,,,,,,,,,,,,,,,,,,,,,,,,,,,,,,,,,,,,,,,,,,,,,,,,,,,,,,,,,,,,,,,,,,,,,,,,,,,,,,,,,,,,,,,,,,,,,,,,,
0,82,82,79,1,,60ee964068294420110228a6,62bbfa4b5640a6c5dcfaa51b,2022-06-29_09h08.11.248,Colour_Asymmetry_Pilot,2022.1.3,Win32,59.94125757,62bbe60bf3d75ef465d3e404,,,,,,,,,,,,,,,,,,,,,,,,,,,,,,,,,,,,,,,,,,,,,,,,,,,,,,,,,,,,,,,,,,,,,,,,,,,,,,,,,,,,,,,,,,,,,,,,,,,,,,,,,,,,,,,,,,,,,,,,,,,,,,,,,,,,,,,,,,,,,,,,,,,,,,,,,,,,,,
0,83,83,58,1,,60ee964068294420110228a6,62bbfa4b5640a6c5dcfaa51b,2022-06-29_09h08.11.248,Colour_Asymmetry_Pilot,2022.1.3,Win32,59.94125757,62bbe60bf3d75ef465d3e404,,,,,,,,,,,,,,,,,,,,,,,,,,,,,,,,,,,,,,,,,,,,,,,,,,,,,,,,,,,,,,,,,,,,,,,,,,,,,,,,,,,,,,,,,,,,,,,,,,,,,,,,,,,,,,,,,,,,,,,,,,,,,,,,,,,,,,,,,,,,,,,,,,,,,,,,,,,,,,
0,84,84,75,1,,60ee964068294420110228a6,62bbfa4b5640a6c5dcfaa51b,2022-06-29_09h08.11.248,Colour_Asymmetry_Pilot,2022.1.3,Win32,59.94125757,62bbe60bf3d75ef465d3e404,,,,,,,,,,,,,,,,,,,,,,,,,,,,,,,,,,,,,,,,,,,,,,,,,,,,,,,,,,,,,,,,,,,,,,,,,,,,,,,,,,,,,,,,,,,,,,,,,,,,,,,,,,,,,,,,,,,,,,,,,,,,,,,,,,,,,,,,,,,,,,,,,,,,,,,,,,,,,,
0,85,85,89,1,,60ee964068294420110228a6,62bbfa4b5640a6c5dcfaa51b,2022-06-29_09h08.11.248,Colour_Asymmetry_Pilot,2022.1.3,Win32,59.94125757,62bbe60bf3d75ef465d3e404,,,,,,,,,,,,,,,,,,,,,,,,,,,,,,,,,,,,,,,,,,,,,,,,,,,,,,,,,,,,,,,,,,,,,,,,,,,,,,,,,,,,,,,,,,,,,,,,,,,,,,,,,,,,,,,,,,,,,,,,,,,,,,,,,,,,,,,,,,,,,,,,,,,,,,,,,,,,,,
0,86,86,88,1,,60ee964068294420110228a6,62bbfa4b5640a6c5dcfaa51b,2022-06-29_09h08.11.248,Colour_Asymmetry_Pilot,2022.1.3,Win32,59.94125757,62bbe60bf3d75ef465d3e404,,,,,,,,,,,,,,,,,,,,,,,,,,,,,,,,,,,,,,,,,,,,,,,,,,,,,,,,,,,,,,,,,,,,,,,,,,,,,,,,,,,,,,,,,,,,,,,,,,,,,,,,,,,,,,,,,,,,,,,,,,,,,,,,,,,,,,,,,,,,,,,,,,,,,,,,,,,,,,
0,87,87,34,1,,60ee964068294420110228a6,62bbfa4b5640a6c5dcfaa51b,2022-06-29_09h08.11.248,Colour_Asymmetry_Pilot,2022.1.3,Win32,59.94125757,62bbe60bf3d75ef465d3e404,,,,,,,,,,,,,,,,,,,,,,,,,,,,,,,,,,,,,,,,,,,,,,,,,,,,,,,,,,,,,,,,,,,,,,,,,,,,,,,,,,,,,,,,,,,,,,,,,,,,,,,,,,,,,,,,,,,,,,,,,,,,,,,,,,,,,,,,,,,,,,,,,,,,,,,,,,,,,,
0,88,88,68,1,,60ee964068294420110228a6,62bbfa4b5640a6c5dcfaa51b,2022-06-29_09h08.11.248,Colour_Asymmetry_Pilot,2022.1.3,Win32,59.94125757,62bbe60bf3d75ef465d3e404,,,,,,,,,,,,,,,,,,,,,,,,,,,,,,,,,,,,,,,,,,,,,,,,,,,,,,,,,,,,,,,,,,,,,,,,,,,,,,,,,,,,,,,,,,,,,,,,,,,,,,,,,,,,,,,,,,,,,,,,,,,,,,,,,,,,,,,,,,,,,,,,,,,,,,,,,,,,,,
0,89,89,12,1,,60ee964068294420110228a6,62bbfa4b5640a6c5dcfaa51b,2022-06-29_09h08.11.248,Colour_Asymmetry_Pilot,2022.1.3,Win32,59.94125757,62bbe60bf3d75ef465d3e404,,,,,,,,,,,,,,,,,,,,,,,,,,,,,,,,,,,,,,,,,,,,,,,,,,,,,,,,,,,,,,,,,,,,,,,,,,,,,,,,,,,,,,,,,,,,,,,,,,,,,,,,,,,,,,,,,,,,,,,,,,,,,,,,,,,,,,,,,,,,,,,,,,,,,,,,,,,,,,
0,90,90,19,1,,60ee964068294420110228a6,62bbfa4b5640a6c5dcfaa51b,2022-06-29_09h08.11.248,Colour_Asymmetry_Pilot,2022.1.3,Win32,59.94125757,62bbe60bf3d75ef465d3e404,,,,,,,,,,,,,,,,,,,,,,,,,,,,,,,,,,,,,,,,,,,,,,,,,,,,,,,,,,,,,,,,,,,,,,,,,,,,,,,,,,,,,,,,,,,,,,,,,,,,,,,,,,,,,,,,,,,,,,,,,,,,,,,,,,,,,,,,,,,,,,,,,,,,,,,,,,,,,,
0,91,91,78,1,,60ee964068294420110228a6,62bbfa4b5640a6c5dcfaa51b,2022-06-29_09h08.11.248,Colour_Asymmetry_Pilot,2022.1.3,Win32,59.94125757,62bbe60bf3d75ef465d3e404,,,,,,,,,,,,,,,,,,,,,,,,,,,,,,,,,,,,,,,,,,,,,,,,,,,,,,,,,,,,,,,,,,,,,,,,,,,,,,,,,,,,,,,,,,,,,,,,,,,,,,,,,,,,,,,,,,,,,,,,,,,,,,,,,,,,,,,,,,,,,,,,,,,,,,,,,,,,,,
0,92,92,20,1,,60ee964068294420110228a6,62bbfa4b5640a6c5dcfaa51b,2022-06-29_09h08.11.248,Colour_Asymmetry_Pilot,2022.1.3,Win32,59.94125757,62bbe60bf3d75ef465d3e404,,,,,,,,,,,,,,,,,,,,,,,,,,,,,,,,,,,,,,,,,,,,,,,,,,,,,,,,,,,,,,,,,,,,,,,,,,,,,,,,,,,,,,,,,,,,,,,,,,,,,,,,,,,,,,,,,,,,,,,,,,,,,,,,,,,,,,,,,,,,,,,,,,,,,,,,,,,,,,
,,,,,,60ee964068294420110228a6,62bbfa4b5640a6c5dcfaa51b,2022-06-29_09h08.11.248,Colour_Asymmetry_Pilot,2022.1.3,Win32,59.94125757,62bbe60bf3d75ef465d3e404,0,0,0,54,1,fourtwo,,,,,,,,,,,,,,,,,,,,,,,,,,,,,,,,,,,,,,,,,,,,,,,,,,,,,,,,,,,,,,,,,,,,,,,,,,,,,,,,,,,,,,,,,,,,,,,,,,,,,,,,,,,,,,,,,,,,,,,,,,,,,,,,,,,,,,,,,,,,,,,,,,,,,,,,
,,,,,,60ee964068294420110228a6,62bbfa4b5640a6c5dcfaa51b,2022-06-29_09h08.11.248,Colour_Asymmetry_Pilot,2022.1.3,Win32,59.94125757,62bbe60bf3d75ef465d3e404,0,1,1,118,1,fourtwo,,,,,,,,,,,,,,,,,,,,,,,,,,,,,,,,,,,,,,,,,,,,,,,,,,,,,,,,,,,,,,,,,,,,,,,,,,,,,,,,,,,,,,,,,,,,,,,,,,,,,,,,,,,,,,,,,,,,,,,,,,,,,,,,,,,,,,,,,,,,,,,,,,,,,,,,
,,,,,,60ee964068294420110228a6,62bbfa4b5640a6c5dcfaa51b,2022-06-29_09h08.11.248,Colour_Asymmetry_Pilot,2022.1.3,Win32,59.94125757,62bbe60bf3d75ef465d3e404,0,2,2,56,1,onetwo,,,,,,,,,,,,,,,,,,,,,,,,,,,,,,,,,,,,,,,,,,,,,,,,,,,,,,,,,,,,,,,,,,,,,,,,,,,,,,,,,,,,,,,,,,,,,,,,,,,,,,,,,,,,,,,,,,,,,,,,,,,,,,,,,,,,,,,,,,,,,,,,,,,,,,,,
,,,,,,60ee964068294420110228a6,62bbfa4b5640a6c5dcfaa51b,2022-06-29_09h08.11.248,Colour_Asymmetry_Pilot,2022.1.3,Win32,59.94125757,62bbe60bf3d75ef465d3e404,0,3,3,30,1,fourtwo,,,,,,,,,,,,,,,,,,,,,,,,,,,,,,,,,,,,,,,,,,,,,,,,,,,,,,,,,,,,,,,,,,,,,,,,,,,,,,,,,,,,,,,,,,,,,,,,,,,,,,,,,,,,,,,,,,,,,,,,,,,,,,,,,,,,,,,,,,,,,,,,,,,,,,,,
,,,,,,60ee964068294420110228a6,62bbfa4b5640a6c5dcfaa51b,2022-06-29_09h08.11.248,Colour_Asymmetry_Pilot,2022.1.3,Win32,59.94125757,62bbe60bf3d75ef465d3e404,0,4,4,40,1,onetwo,,,,,,,,,,,,,,,,,,,,,,,,,,,,,,,,,,,,,,,,,,,,,,,,,,,,,,,,,,,,,,,,,,,,,,,,,,,,,,,,,,,,,,,,,,,,,,,,,,,,,,,,,,,,,,,,,,,,,,,,,,,,,,,,,,,,,,,,,,,,,,,,,,,,,,,,
,,,,,,60ee964068294420110228a6,62bbfa4b5640a6c5dcfaa51b,2022-06-29_09h08.11.248,Colour_Asymmetry_Pilot,2022.1.3,Win32,59.94125757,62bbe60bf3d75ef465d3e404,0,5,5,45,1,threefour,,,,,,,,,,,,,,,,,,,,,,,,,,,,,,,,,,,,,,,,,,,,,,,,,,,,,,,,,,,,,,,,,,,,,,,,,,,,,,,,,,,,,,,,,,,,,,,,,,,,,,,,,,,,,,,,,,,,,,,,,,,,,,,,,,,,,,,,,,,,,,,,,,,,,,,,
,,,,,,60ee964068294420110228a6,62bbfa4b5640a6c5dcfaa51b,2022-06-29_09h08.11.248,Colour_Asymmetry_Pilot,2022.1.3,Win32,59.94125757,62bbe60bf3d75ef465d3e404,0,6,6,28,1,threeone,,,,,,,,,,,,,,,,,,,,,,,,,,,,,,,,,,,,,,,,,,,,,,,,,,,,,,,,,,,,,,,,,,,,,,,,,,,,,,,,,,,,,,,,,,,,,,,,,,,,,,,,,,,,,,,,,,,,,,,,,,,,,,,,,,,,,,,,,,,,,,,,,,,,,,,,
,,,,,,60ee964068294420110228a6,62bbfa4b5640a6c5dcfaa51b,2022-06-29_09h08.11.248,Colour_Asymmetry_Pilot,2022.1.3,Win32,59.94125757,62bbe60bf3d75ef465d3e404,0,7,7,51,1,twofour,,,,,,,,,,,,,,,,,,,,,,,,,,,,,,,,,,,,,,,,,,,,,,,,,,,,,,,,,,,,,,,,,,,,,,,,,,,,,,,,,,,,,,,,,,,,,,,,,,,,,,,,,,,,,,,,,,,,,,,,,,,,,,,,,,,,,,,,,,,,,,,,,,,,,,,,
,,,,,,60ee964068294420110228a6,62bbfa4b5640a6c5dcfaa51b,2022-06-29_09h08.11.248,Colour_Asymmetry_Pilot,2022.1.3,Win32,59.94125757,62bbe60bf3d75ef465d3e404,0,8,8,100,1,threeone,,,,,,,,,,,,,,,,,,,,,,,,,,,,,,,,,,,,,,,,,,,,,,,,,,,,,,,,,,,,,,,,,,,,,,,,,,,,,,,,,,,,,,,,,,,,,,,,,,,,,,,,,,,,,,,,,,,,,,,,,,,,,,,,,,,,,,,,,,,,,,,,,,,,,,,,
,,,,,,60ee964068294420110228a6,62bbfa4b5640a6c5dcfaa51b,2022-06-29_09h08.11.248,Colour_Asymmetry_Pilot,2022.1.3,Win32,59.94125757,62bbe60bf3d75ef465d3e404,0,9,9,52,1,threeone,,,,,,,,,,,,,,,,,,,,,,,,,,,,,,,,,,,,,,,,,,,,,,,,,,,,,,,,,,,,,,,,,,,,,,,,,,,,,,,,,,,,,,,,,,,,,,,,,,,,,,,,,,,,,,,,,,,,,,,,,,,,,,,,,,,,,,,,,,,,,,,,,,,,,,,,
,,,,,,60ee964068294420110228a6,62bbfa4b5640a6c5dcfaa51b,2022-06-29_09h08.11.248,Colour_Asymmetry_Pilot,2022.1.3,Win32,59.94125757,62bbe60bf3d75ef465d3e404,0,10,10,31,1,fourthree,,,,,,,,,,,,,,,,,,,,,,,,,,,,,,,,,,,,,,,,,,,,,,,,,,,,,,,,,,,,,,,,,,,,,,,,,,,,,,,,,,,,,,,,,,,,,,,,,,,,,,,,,,,,,,,,,,,,,,,,,,,,,,,,,,,,,,,,,,,,,,,,,,,,,,,,
,,,,,,60ee964068294420110228a6,62bbfa4b5640a6c5dcfaa51b,2022-06-29_09h08.11.248,Colour_Asymmetry_Pilot,2022.1.3,Win32,59.94125757,62bbe60bf3d75ef465d3e404,0,11,11,83,1,twofour,,,,,,,,,,,,,,,,,,,,,,,,,,,,,,,,,,,,,,,,,,,,,,,,,,,,,,,,,,,,,,,,,,,,,,,,,,,,,,,,,,,,,,,,,,,,,,,,,,,,,,,,,,,,,,,,,,,,,,,,,,,,,,,,,,,,,,,,,,,,,,,,,,,,,,,,
,,,,,,60ee964068294420110228a6,62bbfa4b5640a6c5dcfaa51b,2022-06-29_09h08.11.248,Colour_Asymmetry_Pilot,2022.1.3,Win32,59.94125757,62bbe60bf3d75ef465d3e404,0,12,12,62,1,fourtwo,,,,,,,,,,,,,,,,,,,,,,,,,,,,,,,,,,,,,,,,,,,,,,,,,,,,,,,,,,,,,,,,,,,,,,,,,,,,,,,,,,,,,,,,,,,,,,,,,,,,,,,,,,,,,,,,,,,,,,,,,,,,,,,,,,,,,,,,,,,,,,,,,,,,,,,,
,,,,,,60ee964068294420110228a6,62bbfa4b5640a6c5dcfaa51b,2022-06-29_09h08.11.248,Colour_Asymmetry_Pilot,2022.1.3,Win32,59.94125757,62bbe60bf3d75ef465d3e404,0,13,13,66,1,twoone,,,,,,,,,,,,,,,,,,,,,,,,,,,,,,,,,,,,,,,,,,,,,,,,,,,,,,,,,,,,,,,,,,,,,,,,,,,,,,,,,,,,,,,,,,,,,,,,,,,,,,,,,,,,,,,,,,,,,,,,,,,,,,,,,,,,,,,,,,,,,,,,,,,,,,,,
,,,,,,60ee964068294420110228a6,62bbfa4b5640a6c5dcfaa51b,2022-06-29_09h08.11.248,Colour_Asymmetry_Pilot,2022.1.3,Win32,59.94125757,62bbe60bf3d75ef465d3e404,0,14,14,129,1,onethree,,,,,,,,,,,,,,,,,,,,,,,,,,,,,,,,,,,,,,,,,,,,,,,,,,,,,,,,,,,,,,,,,,,,,,,,,,,,,,,,,,,,,,,,,,,,,,,,,,,,,,,,,,,,,,,,,,,,,,,,,,,,,,,,,,,,,,,,,,,,,,,,,,,,,,,,
,,,,,,60ee964068294420110228a6,62bbfa4b5640a6c5dcfaa51b,2022-06-29_09h08.11.248,Colour_Asymmetry_Pilot,2022.1.3,Win32,59.94125757,62bbe60bf3d75ef465d3e404,0,15,15,26,1,twoone,,,,,,,,,,,,,,,,,,,,,,,,,,,,,,,,,,,,,,,,,,,,,,,,,,,,,,,,,,,,,,,,,,,,,,,,,,,,,,,,,,,,,,,,,,,,,,,,,,,,,,,,,,,,,,,,,,,,,,,,,,,,,,,,,,,,,,,,,,,,,,,,,,,,,,,,
,,,,,,60ee964068294420110228a6,62bbfa4b5640a6c5dcfaa51b,2022-06-29_09h08.11.248,Colour_Asymmetry_Pilot,2022.1.3,Win32,59.94125757,62bbe60bf3d75ef465d3e404,0,16,16,131,1,twofour,,,,,,,,,,,,,,,,,,,,,,,,,,,,,,,,,,,,,,,,,,,,,,,,,,,,,,,,,,,,,,,,,,,,,,,,,,,,,,,,,,,,,,,,,,,,,,,,,,,,,,,,,,,,,,,,,,,,,,,,,,,,,,,,,,,,,,,,,,,,,,,,,,,,,,,,
,,,,,,60ee964068294420110228a6,62bbfa4b5640a6c5dcfaa51b,2022-06-29_09h08.11.248,Colour_Asymmetry_Pilot,2022.1.3,Win32,59.94125757,62bbe60bf3d75ef465d3e404,0,17,17,0,1,onetwo,,,,,,,,,,,,,,,,,,,,,,,,,,,,,,,,,,,,,,,,,,,,,,,,,,,,,,,,,,,,,,,,,,,,,,,,,,,,,,,,,,,,,,,,,,,,,,,,,,,,,,,,,,,,,,,,,,,,,,,,,,,,,,,,,,,,,,,,,,,,,,,,,,,,,,,,
,,,,,,60ee964068294420110228a6,62bbfa4b5640a6c5dcfaa51b,2022-06-29_09h08.11.248,Colour_Asymmetry_Pilot,2022.1.3,Win32,59.94125757,62bbe60bf3d75ef465d3e404,0,18,18,96,1,onetwo,,,,,,,,,,,,,,,,,,,,,,,,,,,,,,,,,,,,,,,,,,,,,,,,,,,,,,,,,,,,,,,,,,,,,,,,,,,,,,,,,,,,,,,,,,,,,,,,,,,,,,,,,,,,,,,,,,,,,,,,,,,,,,,,,,,,,,,,,,,,,,,,,,,,,,,,
,,,,,,60ee964068294420110228a6,62bbfa4b5640a6c5dcfaa51b,2022-06-29_09h08.11.248,Colour_Asymmetry_Pilot,2022.1.3,Win32,59.94125757,62bbe60bf3d75ef465d3e404,0,19,19,77,1,threefour,,,,,,,,,,,,,,,,,,,,,,,,,,,,,,,,,,,,,,,,,,,,,,,,,,,,,,,,,,,,,,,,,,,,,,,,,,,,,,,,,,,,,,,,,,,,,,,,,,,,,,,,,,,,,,,,,,,,,,,,,,,,,,,,,,,,,,,,,,,,,,,,,,,,,,,,
,,,,,,60ee964068294420110228a6,62bbfa4b5640a6c5dcfaa51b,2022-06-29_09h08.11.248,Colour_Asymmetry_Pilot,2022.1.3,Win32,59.94125757,62bbe60bf3d75ef465d3e404,0,20,20,128,1,onetwo,,,,,,,,,,,,,,,,,,,,,,,,,,,,,,,,,,,,,,,,,,,,,,,,,,,,,,,,,,,,,,,,,,,,,,,,,,,,,,,,,,,,,,,,,,,,,,,,,,,,,,,,,,,,,,,,,,,,,,,,,,,,,,,,,,,,,,,,,,,,,,,,,,,,,,,,
,,,,,,60ee964068294420110228a6,62bbfa4b5640a6c5dcfaa51b,2022-06-29_09h08.11.248,Colour_Asymmetry_Pilot,2022.1.3,Win32,59.94125757,62bbe60bf3d75ef465d3e404,0,21,21,126,1,fourtwo,,,,,,,,,,,,,,,,,,,,,,,,,,,,,,,,,,,,,,,,,,,,,,,,,,,,,,,,,,,,,,,,,,,,,,,,,,,,,,,,,,,,,,,,,,,,,,,,,,,,,,,,,,,,,,,,,,,,,,,,,,,,,,,,,,,,,,,,,,,,,,,,,,,,,,,,
,,,,,,60ee964068294420110228a6,62bbfa4b5640a6c5dcfaa51b,2022-06-29_09h08.11.248,Colour_Asymmetry_Pilot,2022.1.3,Win32,59.94125757,62bbe60bf3d75ef465d3e404,0,22,22,41,1,onethree,,,,,,,,,,,,,,,,,,,,,,,,,,,,,,,,,,,,,,,,,,,,,,,,,,,,,,,,,,,,,,,,,,,,,,,,,,,,,,,,,,,,,,,,,,,,,,,,,,,,,,,,,,,,,,,,,,,,,,,,,,,,,,,,,,,,,,,,,,,,,,,,,,,,,,,,
,,,,,,60ee964068294420110228a6,62bbfa4b5640a6c5dcfaa51b,2022-06-29_09h08.11.248,Colour_Asymmetry_Pilot,2022.1.3,Win32,59.94125757,62bbe60bf3d75ef465d3e404,0,23,23,111,1,fourthree,,,,,,,,,,,,,,,,,,,,,,,,,,,,,,,,,,,,,,,,,,,,,,,,,,,,,,,,,,,,,,,,,,,,,,,,,,,,,,,,,,,,,,,,,,,,,,,,,,,,,,,,,,,,,,,,,,,,,,,,,,,,,,,,,,,,,,,,,,,,,,,,,,,,,,,,
,,,,,,60ee964068294420110228a6,62bbfa4b5640a6c5dcfaa51b,2022-06-29_09h08.11.248,Colour_Asymmetry_Pilot,2022.1.3,Win32,59.94125757,62bbe60bf3d75ef465d3e404,0,24,24,72,1,onetwo,,,,,,,,,,,,,,,,,,,,,,,,,,,,,,,,,,,,,,,,,,,,,,,,,,,,,,,,,,,,,,,,,,,,,,,,,,,,,,,,,,,,,,,,,,,,,,,,,,,,,,,,,,,,,,,,,,,,,,,,,,,,,,,,,,,,,,,,,,,,,,,,,,,,,,,,
,,,,,,60ee964068294420110228a6,62bbfa4b5640a6c5dcfaa51b,2022-06-29_09h08.11.248,Colour_Asymmetry_Pilot,2022.1.3,Win32,59.94125757,62bbe60bf3d75ef465d3e404,0,25,25,152,1,onetwo,,,,,,,,,,,,,,,,,,,,,,,,,,,,,,,,,,,,,,,,,,,,,,,,,,,,,,,,,,,,,,,,,,,,,,,,,,,,,,,,,,,,,,,,,,,,,,,,,,,,,,,,,,,,,,,,,,,,,,,,,,,,,,,,,,,,,,,,,,,,,,,,,,,,,,,,
,,,,,,60ee964068294420110228a6,62bbfa4b5640a6c5dcfaa51b,2022-06-29_09h08.11.248,Colour_Asymmetry_Pilot,2022.1.3,Win32,59.94125757,62bbe60bf3d75ef465d3e404,0,26,26,29,1,threefour,,,,,,,,,,,,,,,,,,,,,,,,,,,,,,,,,,,,,,,,,,,,,,,,,,,,,,,,,,,,,,,,,,,,,,,,,,,,,,,,,,,,,,,,,,,,,,,,,,,,,,,,,,,,,,,,,,,,,,,,,,,,,,,,,,,,,,,,,,,,,,,,,,,,,,,,
,,,,,,60ee964068294420110228a6,62bbfa4b5640a6c5dcfaa51b,2022-06-29_09h08.11.248,Colour_Asymmetry_Pilot,2022.1.3,Win32,59.94125757,62bbe60bf3d75ef465d3e404,0,27,27,81,1,onethree,,,,,,,,,,,,,,,,,,,,,,,,,,,,,,,,,,,,,,,,,,,,,,,,,,,,,,,,,,,,,,,,,,,,,,,,,,,,,,,,,,,,,,,,,,,,,,,,,,,,,,,,,,,,,,,,,,,,,,,,,,,,,,,,,,,,,,,,,,,,,,,,,,,,,,,,
,,,,,,60ee964068294420110228a6,62bbfa4b5640a6c5dcfaa51b,2022-06-29_09h08.11.248,Colour_Asymmetry_Pilot,2022.1.3,Win32,59.94125757,62bbe60bf3d75ef465d3e404,0,28,28,157,1,threefour,,,,,,,,,,,,,,,,,,,,,,,,,,,,,,,,,,,,,,,,,,,,,,,,,,,,,,,,,,,,,,,,,,,,,,,,,,,,,,,,,,,,,,,,,,,,,,,,,,,,,,,,,,,,,,,,,,,,,,,,,,,,,,,,,,,,,,,,,,,,,,,,,,,,,,,,
,,,,,,60ee964068294420110228a6,62bbfa4b5640a6c5dcfaa51b,2022-06-29_09h08.11.248,Colour_Asymmetry_Pilot,2022.1.3,Win32,59.94125757,62bbe60bf3d75ef465d3e404,0,29,29,88,1,onetwo,,,,,,,,,,,,,,,,,,,,,,,,,,,,,,,,,,,,,,,,,,,,,,,,,,,,,,,,,,,,,,,,,,,,,,,,,,,,,,,,,,,,,,,,,,,,,,,,,,,,,,,,,,,,,,,,,,,,,,,,,,,,,,,,,,,,,,,,,,,,,,,,,,,,,,,,
,,,,,,60ee964068294420110228a6,62bbfa4b5640a6c5dcfaa51b,2022-06-29_09h08.11.248,Colour_Asymmetry_Pilot,2022.1.3,Win32,59.94125757,62bbe60bf3d75ef465d3e404,0,30,30,160,1,onetwo,,,,,,,,,,,,,,,,,,,,,,,,,,,,,,,,,,,,,,,,,,,,,,,,,,,,,,,,,,,,,,,,,,,,,,,,,,,,,,,,,,,,,,,,,,,,,,,,,,,,,,,,,,,,,,,,,,,,,,,,,,,,,,,,,,,,,,,,,,,,,,,,,,,,,,,,
,,,,,,60ee964068294420110228a6,62bbfa4b5640a6c5dcfaa51b,2022-06-29_09h08.11.248,Colour_Asymmetry_Pilot,2022.1.3,Win32,59.94125757,62bbe60bf3d75ef465d3e404,0,31,31,47,1,fourthree,,,,,,,,,,,,,,,,,,,,,,,,,,,,,,,,,,,,,,,,,,,,,,,,,,,,,,,,,,,,,,,,,,,,,,,,,,,,,,,,,,,,,,,,,,,,,,,,,,,,,,,,,,,,,,,,,,,,,,,,,,,,,,,,,,,,,,,,,,,,,,,,,,,,,,,,
,,,,,,60ee964068294420110228a6,62bbfa4b5640a6c5dcfaa51b,2022-06-29_09h08.11.248,Colour_Asymmetry_Pilot,2022.1.3,Win32,59.94125757,62bbe60bf3d75ef465d3e404,0,32,32,107,1,twofour,,,,,,,,,,,,,,,,,,,,,,,,,,,,,,,,,,,,,,,,,,,,,,,,,,,,,,,,,,,,,,,,,,,,,,,,,,,,,,,,,,,,,,,,,,,,,,,,,,,,,,,,,,,,,,,,,,,,,,,,,,,,,,,,,,,,,,,,,,,,,,,,,,,,,,,,
,,,,,,60ee964068294420110228a6,62bbfa4b5640a6c5dcfaa51b,2022-06-29_09h08.11.248,Colour_Asymmetry_Pilot,2022.1.3,Win32,59.94125757,62bbe60bf3d75ef465d3e404,0,33,33,75,1,twofour,,,,,,,,,,,,,,,,,,,,,,,,,,,,,,,,,,,,,,,,,,,,,,,,,,,,,,,,,,,,,,,,,,,,,,,,,,,,,,,,,,,,,,,,,,,,,,,,,,,,,,,,,,,,,,,,,,,,,,,,,,,,,,,,,,,,,,,,,,,,,,,,,,,,,,,,
,,,,,,60ee964068294420110228a6,62bbfa4b5640a6c5dcfaa51b,2022-06-29_09h08.11.248,Colour_Asymmetry_Pilot,2022.1.3,Win32,59.94125757,62bbe60bf3d75ef465d3e404,0,34,34,49,1,onethree,,,,,,,,,,,,,,,,,,,,,,,,,,,,,,,,,,,,,,,,,,,,,,,,,,,,,,,,,,,,,,,,,,,,,,,,,,,,,,,,,,,,,,,,,,,,,,,,,,,,,,,,,,,,,,,,,,,,,,,,,,,,,,,,,,,,,,,,,,,,,,,,,,,,,,,,
,,,,,,60ee964068294420110228a6,62bbfa4b5640a6c5dcfaa51b,2022-06-29_09h08.11.248,Colour_Asymmetry_Pilot,2022.1.3,Win32,59.94125757,62bbe60bf3d75ef465d3e404,0,35,35,24,1,onetwo,,,,,,,,,,,,,,,,,,,,,,,,,,,,,,,,,,,,,,,,,,,,,,,,,,,,,,,,,,,,,,,,,,,,,,,,,,,,,,,,,,,,,,,,,,,,,,,,,,,,,,,,,,,,,,,,,,,,,,,,,,,,,,,,,,,,,,,,,,,,,,,,,,,,,,,,
,,,,,,60ee964068294420110228a6,62bbfa4b5640a6c5dcfaa51b,2022-06-29_09h08.11.248,Colour_Asymmetry_Pilot,2022.1.3,Win32,59.94125757,62bbe60bf3d75ef465d3e404,0,36,36,138,1,twoone,,,,,,,,,,,,,,,,,,,,,,,,,,,,,,,,,,,,,,,,,,,,,,,,,,,,,,,,,,,,,,,,,,,,,,,,,,,,,,,,,,,,,,,,,,,,,,,,,,,,,,,,,,,,,,,,,,,,,,,,,,,,,,,,,,,,,,,,,,,,,,,,,,,,,,,,
,,,,,,60ee964068294420110228a6,62bbfa4b5640a6c5dcfaa51b,2022-06-29_09h08.11.248,Colour_Asymmetry_Pilot,2022.1.3,Win32,59.94125757,62bbe60bf3d75ef465d3e404,0,37,37,16,1,onetwo,,,,,,,,,,,,,,,,,,,,,,,,,,,,,,,,,,,,,,,,,,,,,,,,,,,,,,,,,,,,,,,,,,,,,,,,,,,,,,,,,,,,,,,,,,,,,,,,,,,,,,,,,,,,,,,,,,,,,,,,,,,,,,,,,,,,,,,,,,,,,,,,,,,,,,,,
,,,,,,60ee964068294420110228a6,62bbfa4b5640a6c5dcfaa51b,2022-06-29_09h08.11.248,Colour_Asymmetry_Pilot,2022.1.3,Win32,59.94125757,62bbe60bf3d75ef465d3e404,0,38,38,13,1,threefour,,,,,,,,,,,,,,,,,,,,,,,,,,,,,,,,,,,,,,,,,,,,,,,,,,,,,,,,,,,,,,,,,,,,,,,,,,,,,,,,,,,,,,,,,,,,,,,,,,,,,,,,,,,,,,,,,,,,,,,,,,,,,,,,,,,,,,,,,,,,,,,,,,,,,,,,
,,,,,,60ee964068294420110228a6,62bbfa4b5640a6c5dcfaa51b,2022-06-29_09h08.11.248,Colour_Asymmetry_Pilot,2022.1.3,Win32,59.94125757,62bbe60bf3d75ef465d3e404,0,39,39,7,1,fourthree,,,,,,,,,,,,,,,,,,,,,,,,,,,,,,,,,,,,,,,,,,,,,,,,,,,,,,,,,,,,,,,,,,,,,,,,,,,,,,,,,,,,,,,,,,,,,,,,,,,,,,,,,,,,,,,,,,,,,,,,,,,,,,,,,,,,,,,,,,,,,,,,,,,,,,,,
,,,,,,60ee964068294420110228a6,62bbfa4b5640a6c5dcfaa51b,2022-06-29_09h08.11.248,Colour_Asymmetry_Pilot,2022.1.3,Win32,59.94125757,62bbe60bf3d75ef465d3e404,0,40,40,109,1,threefour,,,,,,,,,,,,,,,,,,,,,,,,,,,,,,,,,,,,,,,,,,,,,,,,,,,,,,,,,,,,,,,,,,,,,,,,,,,,,,,,,,,,,,,,,,,,,,,,,,,,,,,,,,,,,,,,,,,,,,,,,,,,,,,,,,,,,,,,,,,,,,,,,,,,,,,,
,,,,,,60ee964068294420110228a6,62bbfa4b5640a6c5dcfaa51b,2022-06-29_09h08.11.248,Colour_Asymmetry_Pilot,2022.1.3,Win32,59.94125757,62bbe60bf3d75ef465d3e404,0,41,41,90,1,twoone,,,,,,,,,,,,,,,,,,,,,,,,,,,,,,,,,,,,,,,,,,,,,,,,,,,,,,,,,,,,,,,,,,,,,,,,,,,,,,,,,,,,,,,,,,,,,,,,,,,,,,,,,,,,,,,,,,,,,,,,,,,,,,,,,,,,,,,,,,,,,,,,,,,,,,,,
,,,,,,60ee964068294420110228a6,62bbfa4b5640a6c5dcfaa51b,2022-06-29_09h08.11.248,Colour_Asymmetry_Pilot,2022.1.3,Win32,59.94125757,62bbe60bf3d75ef465d3e404,0,42,42,14,1,fourtwo,,,,,,,,,,,,,,,,,,,,,,,,,,,,,,,,,,,,,,,,,,,,,,,,,,,,,,,,,,,,,,,,,,,,,,,,,,,,,,,,,,,,,,,,,,,,,,,,,,,,,,,,,,,,,,,,,,,,,,,,,,,,,,,,,,,,,,,,,,,,,,,,,,,,,,,,
,,,,,,60ee964068294420110228a6,62bbfa4b5640a6c5dcfaa51b,2022-06-29_09h08.11.248,Colour_Asymmetry_Pilot,2022.1.3,Win32,59.94125757,62bbe60bf3d75ef465d3e404,0,43,43,123,1,twofour,,,,,,,,,,,,,,,,,,,,,,,,,,,,,,,,,,,,,,,,,,,,,,,,,,,,,,,,,,,,,,,,,,,,,,,,,,,,,,,,,,,,,,,,,,,,,,,,,,,,,,,,,,,,,,,,,,,,,,,,,,,,,,,,,,,,,,,,,,,,,,,,,,,,,,,,
,,,,,,60ee964068294420110228a6,62bbfa4b5640a6c5dcfaa51b,2022-06-29_09h08.11.248,Colour_Asymmetry_Pilot,2022.1.3,Win32,59.94125757,62bbe60bf3d75ef465d3e404,0,44,44,69,1,threefour,,,,,,,,,,,,,,,,,,,,,,,,,,,,,,,,,,,,,,,,,,,,,,,,,,,,,,,,,,,,,,,,,,,,,,,,,,,,,,,,,,,,,,,,,,,,,,,,,,,,,,,,,,,,,,,,,,,,,,,,,,,,,,,,,,,,,,,,,,,,,,,,,,,,,,,,
,,,,,,60ee964068294420110228a6,62bbfa4b5640a6c5dcfaa51b,2022-06-29_09h08.11.248,Colour_Asymmetry_Pilot,2022.1.3,Win32,59.94125757,62bbe60bf3d75ef465d3e404,0,45,45,125,1,threefour,,,,,,,,,,,,,,,,,,,,,,,,,,,,,,,,,,,,,,,,,,,,,,,,,,,,,,,,,,,,,,,,,,,,,,,,,,,,,,,,,,,,,,,,,,,,,,,,,,,,,,,,,,,,,,,,,,,,,,,,,,,,,,,,,,,,,,,,,,,,,,,,,,,,,,,,
,,,,,,60ee964068294420110228a6,62bbfa4b5640a6c5dcfaa51b,2022-06-29_09h08.11.248,Colour_Asymmetry_Pilot,2022.1.3,Win32,59.94125757,62bbe60bf3d75ef465d3e404,0,46,46,82,1,twoone,,,,,,,,,,,,,,,,,,,,,,,,,,,,,,,,,,,,,,,,,,,,,,,,,,,,,,,,,,,,,,,,,,,,,,,,,,,,,,,,,,,,,,,,,,,,,,,,,,,,,,,,,,,,,,,,,,,,,,,,,,,,,,,,,,,,,,,,,,,,,,,,,,,,,,,,
,,,,,,60ee964068294420110228a6,62bbfa4b5640a6c5dcfaa51b,2022-06-29_09h08.11.248,Colour_Asymmetry_Pilot,2022.1.3,Win32,59.94125757,62bbe60bf3d75ef465d3e404,0,47,47,42,1,twoone,,,,,,,,,,,,,,,,,,,,,,,,,,,,,,,,,,,,,,,,,,,,,,,,,,,,,,,,,,,,,,,,,,,,,,,,,,,,,,,,,,,,,,,,,,,,,,,,,,,,,,,,,,,,,,,,,,,,,,,,,,,,,,,,,,,,,,,,,,,,,,,,,,,,,,,,
,,,,,,60ee964068294420110228a6,62bbfa4b5640a6c5dcfaa51b,2022-06-29_09h08.11.248,Colour_Asymmetry_Pilot,2022.1.3,Win32,59.94125757,62bbe60bf3d75ef465d3e404,0,48,48,105,1,onethree,,,,,,,,,,,,,,,,,,,,,,,,,,,,,,,,,,,,,,,,,,,,,,,,,,,,,,,,,,,,,,,,,,,,,,,,,,,,,,,,,,,,,,,,,,,,,,,,,,,,,,,,,,,,,,,,,,,,,,,,,,,,,,,,,,,,,,,,,,,,,,,,,,,,,,,,
,,,,,,60ee964068294420110228a6,62bbfa4b5640a6c5dcfaa51b,2022-06-29_09h08.11.248,Colour_Asymmetry_Pilot,2022.1.3,Win32,59.94125757,62bbe60bf3d75ef465d3e404,0,49,49,84,1,threeone,,,,,,,,,,,,,,,,,,,,,,,,,,,,,,,,,,,,,,,,,,,,,,,,,,,,,,,,,,,,,,,,,,,,,,,,,,,,,,,,,,,,,,,,,,,,,,,,,,,,,,,,,,,,,,,,,,,,,,,,,,,,,,,,,,,,,,,,,,,,,,,,,,,,,,,,
,,,,,,60ee964068294420110228a6,62bbfa4b5640a6c5dcfaa51b,2022-06-29_09h08.11.248,Colour_Asymmetry_Pilot,2022.1.3,Win32,59.94125757,62bbe60bf3d75ef465d3e404,0,50,50,12,1,threeone,,,,,,,,,,,,,,,,,,,,,,,,,,,,,,,,,,,,,,,,,,,,,,,,,,,,,,,,,,,,,,,,,,,,,,,,,,,,,,,,,,,,,,,,,,,,,,,,,,,,,,,,,,,,,,,,,,,,,,,,,,,,,,,,,,,,,,,,,,,,,,,,,,,,,,,,
,,,,,,60ee964068294420110228a6,62bbfa4b5640a6c5dcfaa51b,2022-06-29_09h08.11.248,Colour_Asymmetry_Pilot,2022.1.3,Win32,59.94125757,62bbe60bf3d75ef465d3e404,0,51,51,99,1,twofour,,,,,,,,,,,,,,,,,,,,,,,,,,,,,,,,,,,,,,,,,,,,,,,,,,,,,,,,,,,,,,,,,,,,,,,,,,,,,,,,,,,,,,,,,,,,,,,,,,,,,,,,,,,,,,,,,,,,,,,,,,,,,,,,,,,,,,,,,,,,,,,,,,,,,,,,
,,,,,,60ee964068294420110228a6,62bbfa4b5640a6c5dcfaa51b,2022-06-29_09h08.11.248,Colour_Asymmetry_Pilot,2022.1.3,Win32,59.94125757,62bbe60bf3d75ef465d3e404,0,52,52,87,1,fourthree,,,,,,,,,,,,,,,,,,,,,,,,,,,,,,,,,,,,,,,,,,,,,,,,,,,,,,,,,,,,,,,,,,,,,,,,,,,,,,,,,,,,,,,,,,,,,,,,,,,,,,,,,,,,,,,,,,,,,,,,,,,,,,,,,,,,,,,,,,,,,,,,,,,,,,,,
,,,,,,60ee964068294420110228a6,62bbfa4b5640a6c5dcfaa51b,2022-06-29_09h08.11.248,Colour_Asymmetry_Pilot,2022.1.3,Win32,59.94125757,62bbe60bf3d75ef465d3e404,0,53,53,48,1,onetwo,,,,,,,,,,,,,,,,,,,,,,,,,,,,,,,,,,,,,,,,,,,,,,,,,,,,,,,,,,,,,,,,,,,,,,,,,,,,,,,,,,,,,,,,,,,,,,,,,,,,,,,,,,,,,,,,,,,,,,,,,,,,,,,,,,,,,,,,,,,,,,,,,,,,,,,,
,,,,,,60ee964068294420110228a6,62bbfa4b5640a6c5dcfaa51b,2022-06-29_09h08.11.248,Colour_Asymmetry_Pilot,2022.1.3,Win32,59.94125757,62bbe60bf3d75ef465d3e404,0,54,54,34,1,twoone,,,,,,,,,,,,,,,,,,,,,,,,,,,,,,,,,,,,,,,,,,,,,,,,,,,,,,,,,,,,,,,,,,,,,,,,,,,,,,,,,,,,,,,,,,,,,,,,,,,,,,,,,,,,,,,,,,,,,,,,,,,,,,,,,,,,,,,,,,,,,,,,,,,,,,,,
,,,,,,60ee964068294420110228a6,62bbfa4b5640a6c5dcfaa51b,2022-06-29_09h08.11.248,Colour_Asymmetry_Pilot,2022.1.3,Win32,59.94125757,62bbe60bf3d75ef465d3e404,0,55,55,11,1,twofour,,,,,,,,,,,,,,,,,,,,,,,,,,,,,,,,,,,,,,,,,,,,,,,,,,,,,,,,,,,,,,,,,,,,,,,,,,,,,,,,,,,,,,,,,,,,,,,,,,,,,,,,,,,,,,,,,,,,,,,,,,,,,,,,,,,,,,,,,,,,,,,,,,,,,,,,
,,,,,,60ee964068294420110228a6,62bbfa4b5640a6c5dcfaa51b,2022-06-29_09h08.11.248,Colour_Asymmetry_Pilot,2022.1.3,Win32,59.94125757,62bbe60bf3d75ef465d3e404,0,56,56,132,1,threeone,,,,,,,,,,,,,,,,,,,,,,,,,,,,,,,,,,,,,,,,,,,,,,,,,,,,,,,,,,,,,,,,,,,,,,,,,,,,,,,,,,,,,,,,,,,,,,,,,,,,,,,,,,,,,,,,,,,,,,,,,,,,,,,,,,,,,,,,,,,,,,,,,,,,,,,,
,,,,,,60ee964068294420110228a6,62bbfa4b5640a6c5dcfaa51b,2022-06-29_09h08.11.248,Colour_Asymmetry_Pilot,2022.1.3,Win32,59.94125757,62bbe60bf3d75ef465d3e404,0,57,57,153,1,onethree,,,,,,,,,,,,,,,,,,,,,,,,,,,,,,,,,,,,,,,,,,,,,,,,,,,,,,,,,,,,,,,,,,,,,,,,,,,,,,,,,,,,,,,,,,,,,,,,,,,,,,,,,,,,,,,,,,,,,,,,,,,,,,,,,,,,,,,,,,,,,,,,,,,,,,,,
,,,,,,60ee964068294420110228a6,62bbfa4b5640a6c5dcfaa51b,2022-06-29_09h08.11.248,Colour_Asymmetry_Pilot,2022.1.3,Win32,59.94125757,62bbe60bf3d75ef465d3e404,0,58,58,68,1,threeone,,,,,,,,,,,,,,,,,,,,,,,,,,,,,,,,,,,,,,,,,,,,,,,,,,,,,,,,,,,,,,,,,,,,,,,,,,,,,,,,,,,,,,,,,,,,,,,,,,,,,,,,,,,,,,,,,,,,,,,,,,,,,,,,,,,,,,,,,,,,,,,,,,,,,,,,
,,,,,,60ee964068294420110228a6,62bbfa4b5640a6c5dcfaa51b,2022-06-29_09h08.11.248,Colour_Asymmetry_Pilot,2022.1.3,Win32,59.94125757,62bbe60bf3d75ef465d3e404,0,59,59,151,1,fourthree,,,,,,,,,,,,,,,,,,,,,,,,,,,,,,,,,,,,,,,,,,,,,,,,,,,,,,,,,,,,,,,,,,,,,,,,,,,,,,,,,,,,,,,,,,,,,,,,,,,,,,,,,,,,,,,,,,,,,,,,,,,,,,,,,,,,,,,,,,,,,,,,,,,,,,,,
,,,,,,60ee964068294420110228a6,62bbfa4b5640a6c5dcfaa51b,2022-06-29_09h08.11.248,Colour_Asymmetry_Pilot,2022.1.3,Win32,59.94125757,62bbe60bf3d75ef465d3e404,0,60,60,85,1,threefour,,,,,,,,,,,,,,,,,,,,,,,,,,,,,,,,,,,,,,,,,,,,,,,,,,,,,,,,,,,,,,,,,,,,,,,,,,,,,,,,,,,,,,,,,,,,,,,,,,,,,,,,,,,,,,,,,,,,,,,,,,,,,,,,,,,,,,,,,,,,,,,,,,,,,,,,
,,,,,,60ee964068294420110228a6,62bbfa4b5640a6c5dcfaa51b,2022-06-29_09h08.11.248,Colour_Asymmetry_Pilot,2022.1.3,Win32,59.94125757,62bbe60bf3d75ef465d3e404,0,61,61,3,1,twofour,,,,,,,,,,,,,,,,,,,,,,,,,,,,,,,,,,,,,,,,,,,,,,,,,,,,,,,,,,,,,,,,,,,,,,,,,,,,,,,,,,,,,,,,,,,,,,,,,,,,,,,,,,,,,,,,,,,,,,,,,,,,,,,,,,,,,,,,,,,,,,,,,,,,,,,,
,,,,,,60ee964068294420110228a6,62bbfa4b5640a6c5dcfaa51b,2022-06-29_09h08.11.248,Colour_Asymmetry_Pilot,2022.1.3,Win32,59.94125757,62bbe60bf3d75ef465d3e404,0,62,62,110,1,fourtwo,,,,,,,,,,,,,,,,,,,,,,,,,,,,,,,,,,,,,,,,,,,,,,,,,,,,,,,,,,,,,,,,,,,,,,,,,,,,,,,,,,,,,,,,,,,,,,,,,,,,,,,,,,,,,,,,,,,,,,,,,,,,,,,,,,,,,,,,,,,,,,,,,,,,,,,,
,,,,,,60ee964068294420110228a6,62bbfa4b5640a6c5dcfaa51b,2022-06-29_09h08.11.248,Colour_Asymmetry_Pilot,2022.1.3,Win32,59.94125757,62bbe60bf3d75ef465d3e404,0,63,63,145,1,onethree,,,,,,,,,,,,,,,,,,,,,,,,,,,,,,,,,,,,,,,,,,,,,,,,,,,,,,,,,,,,,,,,,,,,,,,,,,,,,,,,,,,,,,,,,,,,,,,,,,,,,,,,,,,,,,,,,,,,,,,,,,,,,,,,,,,,,,,,,,,,,,,,,,,,,,,,
,,,,,,60ee964068294420110228a6,62bbfa4b5640a6c5dcfaa51b,2022-06-29_09h08.11.248,Colour_Asymmetry_Pilot,2022.1.3,Win32,59.94125757,62bbe60bf3d75ef465d3e404,0,64,64,65,1,onethree,,,,,,,,,,,,,,,,,,,,,,,,,,,,,,,,,,,,,,,,,,,,,,,,,,,,,,,,,,,,,,,,,,,,,,,,,,,,,,,,,,,,,,,,,,,,,,,,,,,,,,,,,,,,,,,,,,,,,,,,,,,,,,,,,,,,,,,,,,,,,,,,,,,,,,,,
,,,,,,60ee964068294420110228a6,62bbfa4b5640a6c5dcfaa51b,2022-06-29_09h08.11.248,Colour_Asymmetry_Pilot,2022.1.3,Win32,59.94125757,62bbe60bf3d75ef465d3e404,0,65,65,135,1,fourthree,,,,,,,,,,,,,,,,,,,,,,,,,,,,,,,,,,,,,,,,,,,,,,,,,,,,,,,,,,,,,,,,,,,,,,,,,,,,,,,,,,,,,,,,,,,,,,,,,,,,,,,,,,,,,,,,,,,,,,,,,,,,,,,,,,,,,,,,,,,,,,,,,,,,,,,,
,,,,,,60ee964068294420110228a6,62bbfa4b5640a6c5dcfaa51b,2022-06-29_09h08.11.248,Colour_Asymmetry_Pilot,2022.1.3,Win32,59.94125757,62bbe60bf3d75ef465d3e404,0,66,66,38,1,fourtwo,,,,,,,,,,,,,,,,,,,,,,,,,,,,,,,,,,,,,,,,,,,,,,,,,,,,,,,,,,,,,,,,,,,,,,,,,,,,,,,,,,,,,,,,,,,,,,,,,,,,,,,,,,,,,,,,,,,,,,,,,,,,,,,,,,,,,,,,,,,,,,,,,,,,,,,,
,,,,,,60ee964068294420110228a6,62bbfa4b5640a6c5dcfaa51b,2022-06-29_09h08.11.248,Colour_Asymmetry_Pilot,2022.1.3,Win32,59.94125757,62bbe60bf3d75ef465d3e404,0,67,67,73,1,onethree,,,,,,,,,,,,,,,,,,,,,,,,,,,,,,,,,,,,,,,,,,,,,,,,,,,,,,,,,,,,,,,,,,,,,,,,,,,,,,,,,,,,,,,,,,,,,,,,,,,,,,,,,,,,,,,,,,,,,,,,,,,,,,,,,,,,,,,,,,,,,,,,,,,,,,,,
,,,,,,60ee964068294420110228a6,62bbfa4b5640a6c5dcfaa51b,2022-06-29_09h08.11.248,Colour_Asymmetry_Pilot,2022.1.3,Win32,59.94125757,62bbe60bf3d75ef465d3e404,0,68,68,104,1,onetwo,,,,,,,,,,,,,,,,,,,,,,,,,,,,,,,,,,,,,,,,,,,,,,,,,,,,,,,,,,,,,,,,,,,,,,,,,,,,,,,,,,,,,,,,,,,,,,,,,,,,,,,,,,,,,,,,,,,,,,,,,,,,,,,,,,,,,,,,,,,,,,,,,,,,,,,,
,,,,,,60ee964068294420110228a6,62bbfa4b5640a6c5dcfaa51b,2022-06-29_09h08.11.248,Colour_Asymmetry_Pilot,2022.1.3,Win32,59.94125757,62bbe60bf3d75ef465d3e404,0,69,69,121,1,onethree,,,,,,,,,,,,,,,,,,,,,,,,,,,,,,,,,,,,,,,,,,,,,,,,,,,,,,,,,,,,,,,,,,,,,,,,,,,,,,,,,,,,,,,,,,,,,,,,,,,,,,,,,,,,,,,,,,,,,,,,,,,,,,,,,,,,,,,,,,,,,,,,,,,,,,,,
,,,,,,60ee964068294420110228a6,62bbfa4b5640a6c5dcfaa51b,2022-06-29_09h08.11.248,Colour_Asymmetry_Pilot,2022.1.3,Win32,59.94125757,62bbe60bf3d75ef465d3e404,0,70,70,57,1,onethree,,,,,,,,,,,,,,,,,,,,,,,,,,,,,,,,,,,,,,,,,,,,,,,,,,,,,,,,,,,,,,,,,,,,,,,,,,,,,,,,,,,,,,,,,,,,,,,,,,,,,,,,,,,,,,,,,,,,,,,,,,,,,,,,,,,,,,,,,,,,,,,,,,,,,,,,
,,,,,,60ee964068294420110228a6,62bbfa4b5640a6c5dcfaa51b,2022-06-29_09h08.11.248,Colour_Asymmetry_Pilot,2022.1.3,Win32,59.94125757,62bbe60bf3d75ef465d3e404,0,71,71,146,1,twoone,,,,,,,,,,,,,,,,,,,,,,,,,,,,,,,,,,,,,,,,,,,,,,,,,,,,,,,,,,,,,,,,,,,,,,,,,,,,,,,,,,,,,,,,,,,,,,,,,,,,,,,,,,,,,,,,,,,,,,,,,,,,,,,,,,,,,,,,,,,,,,,,,,,,,,,,
,,,,,,60ee964068294420110228a6,62bbfa4b5640a6c5dcfaa51b,2022-06-29_09h08.11.248,Colour_Asymmetry_Pilot,2022.1.3,Win32,59.94125757,62bbe60bf3d75ef465d3e404,0,72,72,63,1,fourthree,,,,,,,,,,,,,,,,,,,,,,,,,,,,,,,,,,,,,,,,,,,,,,,,,,,,,,,,,,,,,,,,,,,,,,,,,,,,,,,,,,,,,,,,,,,,,,,,,,,,,,,,,,,,,,,,,,,,,,,,,,,,,,,,,,,,,,,,,,,,,,,,,,,,,,,,
,,,,,,60ee964068294420110228a6,62bbfa4b5640a6c5dcfaa51b,2022-06-29_09h08.11.248,Colour_Asymmetry_Pilot,2022.1.3,Win32,59.94125757,62bbe60bf3d75ef465d3e404,0,73,73,19,1,twofour,,,,,,,,,,,,,,,,,,,,,,,,,,,,,,,,,,,,,,,,,,,,,,,,,,,,,,,,,,,,,,,,,,,,,,,,,,,,,,,,,,,,,,,,,,,,,,,,,,,,,,,,,,,,,,,,,,,,,,,,,,,,,,,,,,,,,,,,,,,,,,,,,,,,,,,,
,,,,,,60ee964068294420110228a6,62bbfa4b5640a6c5dcfaa51b,2022-06-29_09h08.11.248,Colour_Asymmetry_Pilot,2022.1.3,Win32,59.94125757,62bbe60bf3d75ef465d3e404,0,74,74,35,1,twofour,,,,,,,,,,,,,,,,,,,,,,,,,,,,,,,,,,,,,,,,,,,,,,,,,,,,,,,,,,,,,,,,,,,,,,,,,,,,,,,,,,,,,,,,,,,,,,,,,,,,,,,,,,,,,,,,,,,,,,,,,,,,,,,,,,,,,,,,,,,,,,,,,,,,,,,,
,,,,,,60ee964068294420110228a6,62bbfa4b5640a6c5dcfaa51b,2022-06-29_09h08.11.248,Colour_Asymmetry_Pilot,2022.1.3,Win32,59.94125757,62bbe60bf3d75ef465d3e404,0,75,75,122,1,twoone,,,,,,,,,,,,,,,,,,,,,,,,,,,,,,,,,,,,,,,,,,,,,,,,,,,,,,,,,,,,,,,,,,,,,,,,,,,,,,,,,,,,,,,,,,,,,,,,,,,,,,,,,,,,,,,,,,,,,,,,,,,,,,,,,,,,,,,,,,,,,,,,,,,,,,,,
,,,,,,60ee964068294420110228a6,62bbfa4b5640a6c5dcfaa51b,2022-06-29_09h08.11.248,Colour_Asymmetry_Pilot,2022.1.3,Win32,59.94125757,62bbe60bf3d75ef465d3e404,0,76,76,102,1,fourtwo,,,,,,,,,,,,,,,,,,,,,,,,,,,,,,,,,,,,,,,,,,,,,,,,,,,,,,,,,,,,,,,,,,,,,,,,,,,,,,,,,,,,,,,,,,,,,,,,,,,,,,,,,,,,,,,,,,,,,,,,,,,,,,,,,,,,,,,,,,,,,,,,,,,,,,,,
,,,,,,60ee964068294420110228a6,62bbfa4b5640a6c5dcfaa51b,2022-06-29_09h08.11.248,Colour_Asymmetry_Pilot,2022.1.3,Win32,59.94125757,62bbe60bf3d75ef465d3e404,0,77,77,60,1,threeone,,,,,,,,,,,,,,,,,,,,,,,,,,,,,,,,,,,,,,,,,,,,,,,,,,,,,,,,,,,,,,,,,,,,,,,,,,,,,,,,,,,,,,,,,,,,,,,,,,,,,,,,,,,,,,,,,,,,,,,,,,,,,,,,,,,,,,,,,,,,,,,,,,,,,,,,
,,,,,,60ee964068294420110228a6,62bbfa4b5640a6c5dcfaa51b,2022-06-29_09h08.11.248,Colour_Asymmetry_Pilot,2022.1.3,Win32,59.94125757,62bbe60bf3d75ef465d3e404,0,78,78,97,1,onethree,,,,,,,,,,,,,,,,,,,,,,,,,,,,,,,,,,,,,,,,,,,,,,,,,,,,,,,,,,,,,,,,,,,,,,,,,,,,,,,,,,,,,,,,,,,,,,,,,,,,,,,,,,,,,,,,,,,,,,,,,,,,,,,,,,,,,,,,,,,,,,,,,,,,,,,,
,,,,,,60ee964068294420110228a6,62bbfa4b5640a6c5dcfaa51b,2022-06-29_09h08.11.248,Colour_Asymmetry_Pilot,2022.1.3,Win32,59.94125757,62bbe60bf3d75ef465d3e404,0,79,79,115,1,twofour,,,,,,,,,,,,,,,,,,,,,,,,,,,,,,,,,,,,,,,,,,,,,,,,,,,,,,,,,,,,,,,,,,,,,,,,,,,,,,,,,,,,,,,,,,,,,,,,,,,,,,,,,,,,,,,,,,,,,,,,,,,,,,,,,,,,,,,,,,,,,,,,,,,,,,,,
,,,,,,60ee964068294420110228a6,62bbfa4b5640a6c5dcfaa51b,2022-06-29_09h08.11.248,Colour_Asymmetry_Pilot,2022.1.3,Win32,59.94125757,62bbe60bf3d75ef465d3e404,0,80,80,144,1,onetwo,,,,,,,,,,,,,,,,,,,,,,,,,,,,,,,,,,,,,,,,,,,,,,,,,,,,,,,,,,,,,,,,,,,,,,,,,,,,,,,,,,,,,,,,,,,,,,,,,,,,,,,,,,,,,,,,,,,,,,,,,,,,,,,,,,,,,,,,,,,,,,,,,,,,,,,,
,,,,,,60ee964068294420110228a6,62bbfa4b5640a6c5dcfaa51b,2022-06-29_09h08.11.248,Colour_Asymmetry_Pilot,2022.1.3,Win32,59.94125757,62bbe60bf3d75ef465d3e404,0,81,81,154,1,twoone,,,,,,,,,,,,,,,,,,,,,,,,,,,,,,,,,,,,,,,,,,,,,,,,,,,,,,,,,,,,,,,,,,,,,,,,,,,,,,,,,,,,,,,,,,,,,,,,,,,,,,,,,,,,,,,,,,,,,,,,,,,,,,,,,,,,,,,,,,,,,,,,,,,,,,,,
,,,,,,60ee964068294420110228a6,62bbfa4b5640a6c5dcfaa51b,2022-06-29_09h08.11.248,Colour_Asymmetry_Pilot,2022.1.3,Win32,59.94125757,62bbe60bf3d75ef465d3e404,0,82,82,150,1,fourtwo,,,,,,,,,,,,,,,,,,,,,,,,,,,,,,,,,,,,,,,,,,,,,,,,,,,,,,,,,,,,,,,,,,,,,,,,,,,,,,,,,,,,,,,,,,,,,,,,,,,,,,,,,,,,,,,,,,,,,,,,,,,,,,,,,,,,,,,,,,,,,,,,,,,,,,,,
,,,,,,60ee964068294420110228a6,62bbfa4b5640a6c5dcfaa51b,2022-06-29_09h08.11.248,Colour_Asymmetry_Pilot,2022.1.3,Win32,59.94125757,62bbe60bf3d75ef465d3e404,0,83,83,23,1,fourthree,,,,,,,,,,,,,,,,,,,,,,,,,,,,,,,,,,,,,,,,,,,,,,,,,,,,,,,,,,,,,,,,,,,,,,,,,,,,,,,,,,,,,,,,,,,,,,,,,,,,,,,,,,,,,,,,,,,,,,,,,,,,,,,,,,,,,,,,,,,,,,,,,,,,,,,,
,,,,,,60ee964068294420110228a6,62bbfa4b5640a6c5dcfaa51b,2022-06-29_09h08.11.248,Colour_Asymmetry_Pilot,2022.1.3,Win32,59.94125757,62bbe60bf3d75ef465d3e404,0,84,84,143,1,fourthree,,,,,,,,,,,,,,,,,,,,,,,,,,,,,,,,,,,,,,,,,,,,,,,,,,,,,,,,,,,,,,,,,,,,,,,,,,,,,,,,,,,,,,,,,,,,,,,,,,,,,,,,,,,,,,,,,,,,,,,,,,,,,,,,,,,,,,,,,,,,,,,,,,,,,,,,
,,,,,,60ee964068294420110228a6,62bbfa4b5640a6c5dcfaa51b,2022-06-29_09h08.11.248,Colour_Asymmetry_Pilot,2022.1.3,Win32,59.94125757,62bbe60bf3d75ef465d3e404,0,85,85,44,1,threeone,,,,,,,,,,,,,,,,,,,,,,,,,,,,,,,,,,,,,,,,,,,,,,,,,,,,,,,,,,,,,,,,,,,,,,,,,,,,,,,,,,,,,,,,,,,,,,,,,,,,,,,,,,,,,,,,,,,,,,,,,,,,,,,,,,,,,,,,,,,,,,,,,,,,,,,,
,,,,,,60ee964068294420110228a6,62bbfa4b5640a6c5dcfaa51b,2022-06-29_09h08.11.248,Colour_Asymmetry_Pilot,2022.1.3,Win32,59.94125757,62bbe60bf3d75ef465d3e404,0,86,86,124,1,threeone,,,,,,,,,,,,,,,,,,,,,,,,,,,,,,,,,,,,,,,,,,,,,,,,,,,,,,,,,,,,,,,,,,,,,,,,,,,,,,,,,,,,,,,,,,,,,,,,,,,,,,,,,,,,,,,,,,,,,,,,,,,,,,,,,,,,,,,,,,,,,,,,,,,,,,,,
,,,,,,60ee964068294420110228a6,62bbfa4b5640a6c5dcfaa51b,2022-06-29_09h08.11.248,Colour_Asymmetry_Pilot,2022.1.3,Win32,59.94125757,62bbe60bf3d75ef465d3e404,0,87,87,158,1,fourtwo,,,,,,,,,,,,,,,,,,,,,,,,,,,,,,,,,,,,,,,,,,,,,,,,,,,,,,,,,,,,,,,,,,,,,,,,,,,,,,,,,,,,,,,,,,,,,,,,,,,,,,,,,,,,,,,,,,,,,,,,,,,,,,,,,,,,,,,,,,,,,,,,,,,,,,,,
,,,,,,60ee964068294420110228a6,62bbfa4b5640a6c5dcfaa51b,2022-06-29_09h08.11.248,Colour_Asymmetry_Pilot,2022.1.3,Win32,59.94125757,62bbe60bf3d75ef465d3e404,0,88,88,86,1,fourtwo,,,,,,,,,,,,,,,,,,,,,,,,,,,,,,,,,,,,,,,,,,,,,,,,,,,,,,,,,,,,,,,,,,,,,,,,,,,,,,,,,,,,,,,,,,,,,,,,,,,,,,,,,,,,,,,,,,,,,,,,,,,,,,,,,,,,,,,,,,,,,,,,,,,,,,,,
,,,,,,60ee964068294420110228a6,62bbfa4b5640a6c5dcfaa51b,2022-06-29_09h08.11.248,Colour_Asymmetry_Pilot,2022.1.3,Win32,59.94125757,62bbe60bf3d75ef465d3e404,0,89,89,117,1,threefour,,,,,,,,,,,,,,,,,,,,,,,,,,,,,,,,,,,,,,,,,,,,,,,,,,,,,,,,,,,,,,,,,,,,,,,,,,,,,,,,,,,,,,,,,,,,,,,,,,,,,,,,,,,,,,,,,,,,,,,,,,,,,,,,,,,,,,,,,,,,,,,,,,,,,,,,
,,,,,,60ee964068294420110228a6,62bbfa4b5640a6c5dcfaa51b,2022-06-29_09h08.11.248,Colour_Asymmetry_Pilot,2022.1.3,Win32,59.94125757,62bbe60bf3d75ef465d3e404,0,90,90,134,1,fourtwo,,,,,,,,,,,,,,,,,,,,,,,,,,,,,,,,,,,,,,,,,,,,,,,,,,,,,,,,,,,,,,,,,,,,,,,,,,,,,,,,,,,,,,,,,,,,,,,,,,,,,,,,,,,,,,,,,,,,,,,,,,,,,,,,,,,,,,,,,,,,,,,,,,,,,,,,
,,,,,,60ee964068294420110228a6,62bbfa4b5640a6c5dcfaa51b,2022-06-29_09h08.11.248,Colour_Asymmetry_Pilot,2022.1.3,Win32,59.94125757,62bbe60bf3d75ef465d3e404,0,91,91,9,1,onethree,,,,,,,,,,,,,,,,,,,,,,,,,,,,,,,,,,,,,,,,,,,,,,,,,,,,,,,,,,,,,,,,,,,,,,,,,,,,,,,,,,,,,,,,,,,,,,,,,,,,,,,,,,,,,,,,,,,,,,,,,,,,,,,,,,,,,,,,,,,,,,,,,,,,,,,,
,,,,,,60ee964068294420110228a6,62bbfa4b5640a6c5dcfaa51b,2022-06-29_09h08.11.248,Colour_Asymmetry_Pilot,2022.1.3,Win32,59.94125757,62bbe60bf3d75ef465d3e404,0,92,92,17,1,onethree,,,,,,,,,,,,,,,,,,,,,,,,,,,,,,,,,,,,,,,,,,,,,,,,,,,,,,,,,,,,,,,,,,,,,,,,,,,,,,,,,,,,,,,,,,,,,,,,,,,,,,,,,,,,,,,,,,,,,,,,,,,,,,,,,,,,,,,,,,,,,,,,,,,,,,,,
,,,,,,60ee964068294420110228a6,62bbfa4b5640a6c5dcfaa51b,2022-06-29_09h08.11.248,Colour_Asymmetry_Pilot,2022.1.3,Win32,59.94125757,62bbe60bf3d75ef465d3e404,0,93,93,116,1,threeone,,,,,,,,,,,,,,,,,,,,,,,,,,,,,,,,,,,,,,,,,,,,,,,,,,,,,,,,,,,,,,,,,,,,,,,,,,,,,,,,,,,,,,,,,,,,,,,,,,,,,,,,,,,,,,,,,,,,,,,,,,,,,,,,,,,,,,,,,,,,,,,,,,,,,,,,
,,,,,,60ee964068294420110228a6,62bbfa4b5640a6c5dcfaa51b,2022-06-29_09h08.11.248,Colour_Asymmetry_Pilot,2022.1.3,Win32,59.94125757,62bbe60bf3d75ef465d3e404,0,94,94,114,1,twoone,,,,,,,,,,,,,,,,,,,,,,,,,,,,,,,,,,,,,,,,,,,,,,,,,,,,,,,,,,,,,,,,,,,,,,,,,,,,,,,,,,,,,,,,,,,,,,,,,,,,,,,,,,,,,,,,,,,,,,,,,,,,,,,,,,,,,,,,,,,,,,,,,,,,,,,,
,,,,,,60ee964068294420110228a6,62bbfa4b5640a6c5dcfaa51b,2022-06-29_09h08.11.248,Colour_Asymmetry_Pilot,2022.1.3,Win32,59.94125757,62bbe60bf3d75ef465d3e404,0,95,95,127,1,fourthree,,,,,,,,,,,,,,,,,,,,,,,,,,,,,,,,,,,,,,,,,,,,,,,,,,,,,,,,,,,,,,,,,,,,,,,,,,,,,,,,,,,,,,,,,,,,,,,,,,,,,,,,,,,,,,,,,,,,,,,,,,,,,,,,,,,,,,,,,,,,,,,,,,,,,,,,
,,,,,,60ee964068294420110228a6,62bbfa4b5640a6c5dcfaa51b,2022-06-29_09h08.11.248,Colour_Asymmetry_Pilot,2022.1.3,Win32,59.94125757,62bbe60bf3d75ef465d3e404,0,96,96,50,1,twoone,,,,,,,,,,,,,,,,,,,,,,,,,,,,,,,,,,,,,,,,,,,,,,,,,,,,,,,,,,,,,,,,,,,,,,,,,,,,,,,,,,,,,,,,,,,,,,,,,,,,,,,,,,,,,,,,,,,,,,,,,,,,,,,,,,,,,,,,,,,,,,,,,,,,,,,,
,,,,,,60ee964068294420110228a6,62bbfa4b5640a6c5dcfaa51b,2022-06-29_09h08.11.248,Colour_Asymmetry_Pilot,2022.1.3,Win32,59.94125757,62bbe60bf3d75ef465d3e404,0,97,97,98,1,twoone,,,,,,,,,,,,,,,,,,,,,,,,,,,,,,,,,,,,,,,,,,,,,,,,,,,,,,,,,,,,,,,,,,,,,,,,,,,,,,,,,,,,,,,,,,,,,,,,,,,,,,,,,,,,,,,,,,,,,,,,,,,,,,,,,,,,,,,,,,,,,,,,,,,,,,,,
,,,,,,60ee964068294420110228a6,62bbfa4b5640a6c5dcfaa51b,2022-06-29_09h08.11.248,Colour_Asymmetry_Pilot,2022.1.3,Win32,59.94125757,62bbe60bf3d75ef465d3e404,0,98,98,46,1,fourtwo,,,,,,,,,,,,,,,,,,,,,,,,,,,,,,,,,,,,,,,,,,,,,,,,,,,,,,,,,,,,,,,,,,,,,,,,,,,,,,,,,,,,,,,,,,,,,,,,,,,,,,,,,,,,,,,,,,,,,,,,,,,,,,,,,,,,,,,,,,,,,,,,,,,,,,,,
,,,,,,60ee964068294420110228a6,62bbfa4b5640a6c5dcfaa51b,2022-06-29_09h08.11.248,Colour_Asymmetry_Pilot,2022.1.3,Win32,59.94125757,62bbe60bf3d75ef465d3e404,0,99,99,53,1,threefour,,,,,,,,,,,,,,,,,,,,,,,,,,,,,,,,,,,,,,,,,,,,,,,,,,,,,,,,,,,,,,,,,,,,,,,,,,,,,,,,,,,,,,,,,,,,,,,,,,,,,,,,,,,,,,,,,,,,,,,,,,,,,,,,,,,,,,,,,,,,,,,,,,,,,,,,
,,,,,,60ee964068294420110228a6,62bbfa4b5640a6c5dcfaa51b,2022-06-29_09h08.11.248,Colour_Asymmetry_Pilot,2022.1.3,Win32,59.94125757,62bbe60bf3d75ef465d3e404,0,100,100,156,1,threeone,,,,,,,,,,,,,,,,,,,,,,,,,,,,,,,,,,,,,,,,,,,,,,,,,,,,,,,,,,,,,,,,,,,,,,,,,,,,,,,,,,,,,,,,,,,,,,,,,,,,,,,,,,,,,,,,,,,,,,,,,,,,,,,,,,,,,,,,,,,,,,,,,,,,,,,,
,,,,,,60ee964068294420110228a6,62bbfa4b5640a6c5dcfaa51b,2022-06-29_09h08.11.248,Colour_Asymmetry_Pilot,2022.1.3,Win32,59.94125757,62bbe60bf3d75ef465d3e404,0,101,101,93,1,threefour,,,,,,,,,,,,,,,,,,,,,,,,,,,,,,,,,,,,,,,,,,,,,,,,,,,,,,,,,,,,,,,,,,,,,,,,,,,,,,,,,,,,,,,,,,,,,,,,,,,,,,,,,,,,,,,,,,,,,,,,,,,,,,,,,,,,,,,,,,,,,,,,,,,,,,,,
,,,,,,60ee964068294420110228a6,62bbfa4b5640a6c5dcfaa51b,2022-06-29_09h08.11.248,Colour_Asymmetry_Pilot,2022.1.3,Win32,59.94125757,62bbe60bf3d75ef465d3e404,0,102,102,142,1,fourtwo,,,,,,,,,,,,,,,,,,,,,,,,,,,,,,,,,,,,,,,,,,,,,,,,,,,,,,,,,,,,,,,,,,,,,,,,,,,,,,,,,,,,,,,,,,,,,,,,,,,,,,,,,,,,,,,,,,,,,,,,,,,,,,,,,,,,,,,,,,,,,,,,,,,,,,,,
,,,,,,60ee964068294420110228a6,62bbfa4b5640a6c5dcfaa51b,2022-06-29_09h08.11.248,Colour_Asymmetry_Pilot,2022.1.3,Win32,59.94125757,62bbe60bf3d75ef465d3e404,0,103,103,161,1,onethree,,,,,,,,,,,,,,,,,,,,,,,,,,,,,,,,,,,,,,,,,,,,,,,,,,,,,,,,,,,,,,,,,,,,,,,,,,,,,,,,,,,,,,,,,,,,,,,,,,,,,,,,,,,,,,,,,,,,,,,,,,,,,,,,,,,,,,,,,,,,,,,,,,,,,,,,
,,,,,,60ee964068294420110228a6,62bbfa4b5640a6c5dcfaa51b,2022-06-29_09h08.11.248,Colour_Asymmetry_Pilot,2022.1.3,Win32,59.94125757,62bbe60bf3d75ef465d3e404,0,104,104,139,1,twofour,,,,,,,,,,,,,,,,,,,,,,,,,,,,,,,,,,,,,,,,,,,,,,,,,,,,,,,,,,,,,,,,,,,,,,,,,,,,,,,,,,,,,,,,,,,,,,,,,,,,,,,,,,,,,,,,,,,,,,,,,,,,,,,,,,,,,,,,,,,,,,,,,,,,,,,,
,,,,,,60ee964068294420110228a6,62bbfa4b5640a6c5dcfaa51b,2022-06-29_09h08.11.248,Colour_Asymmetry_Pilot,2022.1.3,Win32,59.94125757,62bbe60bf3d75ef465d3e404,0,105,105,78,1,fourtwo,,,,,,,,,,,,,,,,,,,,,,,,,,,,,,,,,,,,,,,,,,,,,,,,,,,,,,,,,,,,,,,,,,,,,,,,,,,,,,,,,,,,,,,,,,,,,,,,,,,,,,,,,,,,,,,,,,,,,,,,,,,,,,,,,,,,,,,,,,,,,,,,,,,,,,,,
,,,,,,60ee964068294420110228a6,62bbfa4b5640a6c5dcfaa51b,2022-06-29_09h08.11.248,Colour_Asymmetry_Pilot,2022.1.3,Win32,59.94125757,62bbe60bf3d75ef465d3e404,0,106,106,55,1,fourthree,,,,,,,,,,,,,,,,,,,,,,,,,,,,,,,,,,,,,,,,,,,,,,,,,,,,,,,,,,,,,,,,,,,,,,,,,,,,,,,,,,,,,,,,,,,,,,,,,,,,,,,,,,,,,,,,,,,,,,,,,,,,,,,,,,,,,,,,,,,,,,,,,,,,,,,,
,,,,,,60ee964068294420110228a6,62bbfa4b5640a6c5dcfaa51b,2022-06-29_09h08.11.248,Colour_Asymmetry_Pilot,2022.1.3,Win32,59.94125757,62bbe60bf3d75ef465d3e404,0,107,107,18,1,twoone,,,,,,,,,,,,,,,,,,,,,,,,,,,,,,,,,,,,,,,,,,,,,,,,,,,,,,,,,,,,,,,,,,,,,,,,,,,,,,,,,,,,,,,,,,,,,,,,,,,,,,,,,,,,,,,,,,,,,,,,,,,,,,,,,,,,,,,,,,,,,,,,,,,,,,,,
,,,,,,60ee964068294420110228a6,62bbfa4b5640a6c5dcfaa51b,2022-06-29_09h08.11.248,Colour_Asymmetry_Pilot,2022.1.3,Win32,59.94125757,62bbe60bf3d75ef465d3e404,0,108,108,37,1,threefour,,,,,,,,,,,,,,,,,,,,,,,,,,,,,,,,,,,,,,,,,,,,,,,,,,,,,,,,,,,,,,,,,,,,,,,,,,,,,,,,,,,,,,,,,,,,,,,,,,,,,,,,,,,,,,,,,,,,,,,,,,,,,,,,,,,,,,,,,,,,,,,,,,,,,,,,
,,,,,,60ee964068294420110228a6,62bbfa4b5640a6c5dcfaa51b,2022-06-29_09h08.11.248,Colour_Asymmetry_Pilot,2022.1.3,Win32,59.94125757,62bbe60bf3d75ef465d3e404,0,109,109,79,1,fourthree,,,,,,,,,,,,,,,,,,,,,,,,,,,,,,,,,,,,,,,,,,,,,,,,,,,,,,,,,,,,,,,,,,,,,,,,,,,,,,,,,,,,,,,,,,,,,,,,,,,,,,,,,,,,,,,,,,,,,,,,,,,,,,,,,,,,,,,,,,,,,,,,,,,,,,,,
,,,,,,60ee964068294420110228a6,62bbfa4b5640a6c5dcfaa51b,2022-06-29_09h08.11.248,Colour_Asymmetry_Pilot,2022.1.3,Win32,59.94125757,62bbe60bf3d75ef465d3e404,0,110,110,32,1,onetwo,,,,,,,,,,,,,,,,,,,,,,,,,,,,,,,,,,,,,,,,,,,,,,,,,,,,,,,,,,,,,,,,,,,,,,,,,,,,,,,,,,,,,,,,,,,,,,,,,,,,,,,,,,,,,,,,,,,,,,,,,,,,,,,,,,,,,,,,,,,,,,,,,,,,,,,,
,,,,,,60ee964068294420110228a6,62bbfa4b5640a6c5dcfaa51b,2022-06-29_09h08.11.248,Colour_Asymmetry_Pilot,2022.1.3,Win32,59.94125757,62bbe60bf3d75ef465d3e404,0,111,111,112,1,onetwo,,,,,,,,,,,,,,,,,,,,,,,,,,,,,,,,,,,,,,,,,,,,,,,,,,,,,,,,,,,,,,,,,,,,,,,,,,,,,,,,,,,,,,,,,,,,,,,,,,,,,,,,,,,,,,,,,,,,,,,,,,,,,,,,,,,,,,,,,,,,,,,,,,,,,,,,
,,,,,,60ee964068294420110228a6,62bbfa4b5640a6c5dcfaa51b,2022-06-29_09h08.11.248,Colour_Asymmetry_Pilot,2022.1.3,Win32,59.94125757,62bbe60bf3d75ef465d3e404,0,112,112,103,1,fourthree,,,,,,,,,,,,,,,,,,,,,,,,,,,,,,,,,,,,,,,,,,,,,,,,,,,,,,,,,,,,,,,,,,,,,,,,,,,,,,,,,,,,,,,,,,,,,,,,,,,,,,,,,,,,,,,,,,,,,,,,,,,,,,,,,,,,,,,,,,,,,,,,,,,,,,,,
,,,,,,60ee964068294420110228a6,62bbfa4b5640a6c5dcfaa51b,2022-06-29_09h08.11.248,Colour_Asymmetry_Pilot,2022.1.3,Win32,59.94125757,62bbe60bf3d75ef465d3e404,0,113,113,70,1,fourtwo,,,,,,,,,,,,,,,,,,,,,,,,,,,,,,,,,,,,,,,,,,,,,,,,,,,,,,,,,,,,,,,,,,,,,,,,,,,,,,,,,,,,,,,,,,,,,,,,,,,,,,,,,,,,,,,,,,,,,,,,,,,,,,,,,,,,,,,,,,,,,,,,,,,,,,,,
,,,,,,60ee964068294420110228a6,62bbfa4b5640a6c5dcfaa51b,2022-06-29_09h08.11.248,Colour_Asymmetry_Pilot,2022.1.3,Win32,59.94125757,62bbe60bf3d75ef465d3e404,0,114,114,120,1,onetwo,,,,,,,,,,,,,,,,,,,,,,,,,,,,,,,,,,,,,,,,,,,,,,,,,,,,,,,,,,,,,,,,,,,,,,,,,,,,,,,,,,,,,,,,,,,,,,,,,,,,,,,,,,,,,,,,,,,,,,,,,,,,,,,,,,,,,,,,,,,,,,,,,,,,,,,,
,,,,,,60ee964068294420110228a6,62bbfa4b5640a6c5dcfaa51b,2022-06-29_09h08.11.248,Colour_Asymmetry_Pilot,2022.1.3,Win32,59.94125757,62bbe60bf3d75ef465d3e404,0,115,115,5,1,threefour,,,,,,,,,,,,,,,,,,,,,,,,,,,,,,,,,,,,,,,,,,,,,,,,,,,,,,,,,,,,,,,,,,,,,,,,,,,,,,,,,,,,,,,,,,,,,,,,,,,,,,,,,,,,,,,,,,,,,,,,,,,,,,,,,,,,,,,,,,,,,,,,,,,,,,,,
,,,,,,60ee964068294420110228a6,62bbfa4b5640a6c5dcfaa51b,2022-06-29_09h08.11.248,Colour_Asymmetry_Pilot,2022.1.3,Win32,59.94125757,62bbe60bf3d75ef465d3e404,0,116,116,10,1,twoone,,,,,,,,,,,,,,,,,,,,,,,,,,,,,,,,,,,,,,,,,,,,,,,,,,,,,,,,,,,,,,,,,,,,,,,,,,,,,,,,,,,,,,,,,,,,,,,,,,,,,,,,,,,,,,,,,,,,,,,,,,,,,,,,,,,,,,,,,,,,,,,,,,,,,,,,
,,,,,,60ee964068294420110228a6,62bbfa4b5640a6c5dcfaa51b,2022-06-29_09h08.11.248,Colour_Asymmetry_Pilot,2022.1.3,Win32,59.94125757,62bbe60bf3d75ef465d3e404,0,117,117,8,1,onetwo,,,,,,,,,,,,,,,,,,,,,,,,,,,,,,,,,,,,,,,,,,,,,,,,,,,,,,,,,,,,,,,,,,,,,,,,,,,,,,,,,,,,,,,,,,,,,,,,,,,,,,,,,,,,,,,,,,,,,,,,,,,,,,,,,,,,,,,,,,,,,,,,,,,,,,,,
,,,,,,60ee964068294420110228a6,62bbfa4b5640a6c5dcfaa51b,2022-06-29_09h08.11.248,Colour_Asymmetry_Pilot,2022.1.3,Win32,59.94125757,62bbe60bf3d75ef465d3e404,0,118,118,101,1,threefour,,,,,,,,,,,,,,,,,,,,,,,,,,,,,,,,,,,,,,,,,,,,,,,,,,,,,,,,,,,,,,,,,,,,,,,,,,,,,,,,,,,,,,,,,,,,,,,,,,,,,,,,,,,,,,,,,,,,,,,,,,,,,,,,,,,,,,,,,,,,,,,,,,,,,,,,
,,,,,,60ee964068294420110228a6,62bbfa4b5640a6c5dcfaa51b,2022-06-29_09h08.11.248,Colour_Asymmetry_Pilot,2022.1.3,Win32,59.94125757,62bbe60bf3d75ef465d3e404,0,119,119,159,1,fourthree,,,,,,,,,,,,,,,,,,,,,,,,,,,,,,,,,,,,,,,,,,,,,,,,,,,,,,,,,,,,,,,,,,,,,,,,,,,,,,,,,,,,,,,,,,,,,,,,,,,,,,,,,,,,,,,,,,,,,,,,,,,,,,,,,,,,,,,,,,,,,,,,,,,,,,,,
,,,,,,60ee964068294420110228a6,62bbfa4b5640a6c5dcfaa51b,2022-06-29_09h08.11.248,Colour_Asymmetry_Pilot,2022.1.3,Win32,59.94125757,62bbe60bf3d75ef465d3e404,0,120,120,155,1,twofour,,,,,,,,,,,,,,,,,,,,,,,,,,,,,,,,,,,,,,,,,,,,,,,,,,,,,,,,,,,,,,,,,,,,,,,,,,,,,,,,,,,,,,,,,,,,,,,,,,,,,,,,,,,,,,,,,,,,,,,,,,,,,,,,,,,,,,,,,,,,,,,,,,,,,,,,
,,,,,,60ee964068294420110228a6,62bbfa4b5640a6c5dcfaa51b,2022-06-29_09h08.11.248,Colour_Asymmetry_Pilot,2022.1.3,Win32,59.94125757,62bbe60bf3d75ef465d3e404,0,121,121,113,1,onethree,,,,,,,,,,,,,,,,,,,,,,,,,,,,,,,,,,,,,,,,,,,,,,,,,,,,,,,,,,,,,,,,,,,,,,,,,,,,,,,,,,,,,,,,,,,,,,,,,,,,,,,,,,,,,,,,,,,,,,,,,,,,,,,,,,,,,,,,,,,,,,,,,,,,,,,,
,,,,,,60ee964068294420110228a6,62bbfa4b5640a6c5dcfaa51b,2022-06-29_09h08.11.248,Colour_Asymmetry_Pilot,2022.1.3,Win32,59.94125757,62bbe60bf3d75ef465d3e404,0,122,122,67,1,twofour,,,,,,,,,,,,,,,,,,,,,,,,,,,,,,,,,,,,,,,,,,,,,,,,,,,,,,,,,,,,,,,,,,,,,,,,,,,,,,,,,,,,,,,,,,,,,,,,,,,,,,,,,,,,,,,,,,,,,,,,,,,,,,,,,,,,,,,,,,,,,,,,,,,,,,,,
,,,,,,60ee964068294420110228a6,62bbfa4b5640a6c5dcfaa51b,2022-06-29_09h08.11.248,Colour_Asymmetry_Pilot,2022.1.3,Win32,59.94125757,62bbe60bf3d75ef465d3e404,0,123,123,130,1,twoone,,,,,,,,,,,,,,,,,,,,,,,,,,,,,,,,,,,,,,,,,,,,,,,,,,,,,,,,,,,,,,,,,,,,,,,,,,,,,,,,,,,,,,,,,,,,,,,,,,,,,,,,,,,,,,,,,,,,,,,,,,,,,,,,,,,,,,,,,,,,,,,,,,,,,,,,
,,,,,,60ee964068294420110228a6,62bbfa4b5640a6c5dcfaa51b,2022-06-29_09h08.11.248,Colour_Asymmetry_Pilot,2022.1.3,Win32,59.94125757,62bbe60bf3d75ef465d3e404,0,124,124,92,1,threeone,,,,,,,,,,,,,,,,,,,,,,,,,,,,,,,,,,,,,,,,,,,,,,,,,,,,,,,,,,,,,,,,,,,,,,,,,,,,,,,,,,,,,,,,,,,,,,,,,,,,,,,,,,,,,,,,,,,,,,,,,,,,,,,,,,,,,,,,,,,,,,,,,,,,,,,,
,,,,,,60ee964068294420110228a6,62bbfa4b5640a6c5dcfaa51b,2022-06-29_09h08.11.248,Colour_Asymmetry_Pilot,2022.1.3,Win32,59.94125757,62bbe60bf3d75ef465d3e404,0,125,125,74,1,twoone,,,,,,,,,,,,,,,,,,,,,,,,,,,,,,,,,,,,,,,,,,,,,,,,,,,,,,,,,,,,,,,,,,,,,,,,,,,,,,,,,,,,,,,,,,,,,,,,,,,,,,,,,,,,,,,,,,,,,,,,,,,,,,,,,,,,,,,,,,,,,,,,,,,,,,,,
,,,,,,60ee964068294420110228a6,62bbfa4b5640a6c5dcfaa51b,2022-06-29_09h08.11.248,Colour_Asymmetry_Pilot,2022.1.3,Win32,59.94125757,62bbe60bf3d75ef465d3e404,0,126,126,27,1,twofour,,,,,,,,,,,,,,,,,,,,,,,,,,,,,,,,,,,,,,,,,,,,,,,,,,,,,,,,,,,,,,,,,,,,,,,,,,,,,,,,,,,,,,,,,,,,,,,,,,,,,,,,,,,,,,,,,,,,,,,,,,,,,,,,,,,,,,,,,,,,,,,,,,,,,,,,
,,,,,,60ee964068294420110228a6,62bbfa4b5640a6c5dcfaa51b,2022-06-29_09h08.11.248,Colour_Asymmetry_Pilot,2022.1.3,Win32,59.94125757,62bbe60bf3d75ef465d3e404,0,127,127,94,1,fourtwo,,,,,,,,,,,,,,,,,,,,,,,,,,,,,,,,,,,,,,,,,,,,,,,,,,,,,,,,,,,,,,,,,,,,,,,,,,,,,,,,,,,,,,,,,,,,,,,,,,,,,,,,,,,,,,,,,,,,,,,,,,,,,,,,,,,,,,,,,,,,,,,,,,,,,,,,
,,,,,,60ee964068294420110228a6,62bbfa4b5640a6c5dcfaa51b,2022-06-29_09h08.11.248,Colour_Asymmetry_Pilot,2022.1.3,Win32,59.94125757,62bbe60bf3d75ef465d3e404,0,128,128,33,1,onethree,,,,,,,,,,,,,,,,,,,,,,,,,,,,,,,,,,,,,,,,,,,,,,,,,,,,,,,,,,,,,,,,,,,,,,,,,,,,,,,,,,,,,,,,,,,,,,,,,,,,,,,,,,,,,,,,,,,,,,,,,,,,,,,,,,,,,,,,,,,,,,,,,,,,,,,,
,,,,,,60ee964068294420110228a6,62bbfa4b5640a6c5dcfaa51b,2022-06-29_09h08.11.248,Colour_Asymmetry_Pilot,2022.1.3,Win32,59.94125757,62bbe60bf3d75ef465d3e404,0,129,129,147,1,twofour,,,,,,,,,,,,,,,,,,,,,,,,,,,,,,,,,,,,,,,,,,,,,,,,,,,,,,,,,,,,,,,,,,,,,,,,,,,,,,,,,,,,,,,,,,,,,,,,,,,,,,,,,,,,,,,,,,,,,,,,,,,,,,,,,,,,,,,,,,,,,,,,,,,,,,,,
,,,,,,60ee964068294420110228a6,62bbfa4b5640a6c5dcfaa51b,2022-06-29_09h08.11.248,Colour_Asymmetry_Pilot,2022.1.3,Win32,59.94125757,62bbe60bf3d75ef465d3e404,0,130,130,80,1,onetwo,,,,,,,,,,,,,,,,,,,,,,,,,,,,,,,,,,,,,,,,,,,,,,,,,,,,,,,,,,,,,,,,,,,,,,,,,,,,,,,,,,,,,,,,,,,,,,,,,,,,,,,,,,,,,,,,,,,,,,,,,,,,,,,,,,,,,,,,,,,,,,,,,,,,,,,,
,,,,,,60ee964068294420110228a6,62bbfa4b5640a6c5dcfaa51b,2022-06-29_09h08.11.248,Colour_Asymmetry_Pilot,2022.1.3,Win32,59.94125757,62bbe60bf3d75ef465d3e404,0,131,131,137,1,onethree,,,,,,,,,,,,,,,,,,,,,,,,,,,,,,,,,,,,,,,,,,,,,,,,,,,,,,,,,,,,,,,,,,,,,,,,,,,,,,,,,,,,,,,,,,,,,,,,,,,,,,,,,,,,,,,,,,,,,,,,,,,,,,,,,,,,,,,,,,,,,,,,,,,,,,,,
,,,,,,60ee964068294420110228a6,62bbfa4b5640a6c5dcfaa51b,2022-06-29_09h08.11.248,Colour_Asymmetry_Pilot,2022.1.3,Win32,59.94125757,62bbe60bf3d75ef465d3e404,0,132,132,108,1,threeone,,,,,,,,,,,,,,,,,,,,,,,,,,,,,,,,,,,,,,,,,,,,,,,,,,,,,,,,,,,,,,,,,,,,,,,,,,,,,,,,,,,,,,,,,,,,,,,,,,,,,,,,,,,,,,,,,,,,,,,,,,,,,,,,,,,,,,,,,,,,,,,,,,,,,,,,
,,,,,,60ee964068294420110228a6,62bbfa4b5640a6c5dcfaa51b,2022-06-29_09h08.11.248,Colour_Asymmetry_Pilot,2022.1.3,Win32,59.94125757,62bbe60bf3d75ef465d3e404,0,133,133,149,1,threefour,,,,,,,,,,,,,,,,,,,,,,,,,,,,,,,,,,,,,,,,,,,,,,,,,,,,,,,,,,,,,,,,,,,,,,,,,,,,,,,,,,,,,,,,,,,,,,,,,,,,,,,,,,,,,,,,,,,,,,,,,,,,,,,,,,,,,,,,,,,,,,,,,,,,,,,,
,,,,,,60ee964068294420110228a6,62bbfa4b5640a6c5dcfaa51b,2022-06-29_09h08.11.248,Colour_Asymmetry_Pilot,2022.1.3,Win32,59.94125757,62bbe60bf3d75ef465d3e404,0,134,134,4,1,threeone,,,,,,,,,,,,,,,,,,,,,,,,,,,,,,,,,,,,,,,,,,,,,,,,,,,,,,,,,,,,,,,,,,,,,,,,,,,,,,,,,,,,,,,,,,,,,,,,,,,,,,,,,,,,,,,,,,,,,,,,,,,,,,,,,,,,,,,,,,,,,,,,,,,,,,,,
,,,,,,60ee964068294420110228a6,62bbfa4b5640a6c5dcfaa51b,2022-06-29_09h08.11.248,Colour_Asymmetry_Pilot,2022.1.3,Win32,59.94125757,62bbe60bf3d75ef465d3e404,0,135,135,15,1,fourthree,,,,,,,,,,,,,,,,,,,,,,,,,,,,,,,,,,,,,,,,,,,,,,,,,,,,,,,,,,,,,,,,,,,,,,,,,,,,,,,,,,,,,,,,,,,,,,,,,,,,,,,,,,,,,,,,,,,,,,,,,,,,,,,,,,,,,,,,,,,,,,,,,,,,,,,,
,,,,,,60ee964068294420110228a6,62bbfa4b5640a6c5dcfaa51b,2022-06-29_09h08.11.248,Colour_Asymmetry_Pilot,2022.1.3,Win32,59.94125757,62bbe60bf3d75ef465d3e404,0,136,136,25,1,onethree,,,,,,,,,,,,,,,,,,,,,,,,,,,,,,,,,,,,,,,,,,,,,,,,,,,,,,,,,,,,,,,,,,,,,,,,,,,,,,,,,,,,,,,,,,,,,,,,,,,,,,,,,,,,,,,,,,,,,,,,,,,,,,,,,,,,,,,,,,,,,,,,,,,,,,,,
,,,,,,60ee964068294420110228a6,62bbfa4b5640a6c5dcfaa51b,2022-06-29_09h08.11.248,Colour_Asymmetry_Pilot,2022.1.3,Win32,59.94125757,62bbe60bf3d75ef465d3e404,0,137,137,58,1,twoone,,,,,,,,,,,,,,,,,,,,,,,,,,,,,,,,,,,,,,,,,,,,,,,,,,,,,,,,,,,,,,,,,,,,,,,,,,,,,,,,,,,,,,,,,,,,,,,,,,,,,,,,,,,,,,,,,,,,,,,,,,,,,,,,,,,,,,,,,,,,,,,,,,,,,,,,
,,,,,,60ee964068294420110228a6,62bbfa4b5640a6c5dcfaa51b,2022-06-29_09h08.11.248,Colour_Asymmetry_Pilot,2022.1.3,Win32,59.94125757,62bbe60bf3d75ef465d3e404,0,138,138,64,1,onetwo,,,,,,,,,,,,,,,,,,,,,,,,,,,,,,,,,,,,,,,,,,,,,,,,,,,,,,,,,,,,,,,,,,,,,,,,,,,,,,,,,,,,,,,,,,,,,,,,,,,,,,,,,,,,,,,,,,,,,,,,,,,,,,,,,,,,,,,,,,,,,,,,,,,,,,,,
,,,,,,60ee964068294420110228a6,62bbfa4b5640a6c5dcfaa51b,2022-06-29_09h08.11.248,Colour_Asymmetry_Pilot,2022.1.3,Win32,59.94125757,62bbe60bf3d75ef465d3e404,0,139,139,1,1,onethree,,,,,,,,,,,,,,,,,,,,,,,,,,,,,,,,,,,,,,,,,,,,,,,,,,,,,,,,,,,,,,,,,,,,,,,,,,,,,,,,,,,,,,,,,,,,,,,,,,,,,,,,,,,,,,,,,,,,,,,,,,,,,,,,,,,,,,,,,,,,,,,,,,,,,,,,
,,,,,,60ee964068294420110228a6,62bbfa4b5640a6c5dcfaa51b,2022-06-29_09h08.11.248,Colour_Asymmetry_Pilot,2022.1.3,Win32,59.94125757,62bbe60bf3d75ef465d3e404,0,140,140,89,1,onethree,,,,,,,,,,,,,,,,,,,,,,,,,,,,,,,,,,,,,,,,,,,,,,,,,,,,,,,,,,,,,,,,,,,,,,,,,,,,,,,,,,,,,,,,,,,,,,,,,,,,,,,,,,,,,,,,,,,,,,,,,,,,,,,,,,,,,,,,,,,,,,,,,,,,,,,,
,,,,,,60ee964068294420110228a6,62bbfa4b5640a6c5dcfaa51b,2022-06-29_09h08.11.248,Colour_Asymmetry_Pilot,2022.1.3,Win32,59.94125757,62bbe60bf3d75ef465d3e404,0,141,141,39,1,fourthree,,,,,,,,,,,,,,,,,,,,,,,,,,,,,,,,,,,,,,,,,,,,,,,,,,,,,,,,,,,,,,,,,,,,,,,,,,,,,,,,,,,,,,,,,,,,,,,,,,,,,,,,,,,,,,,,,,,,,,,,,,,,,,,,,,,,,,,,,,,,,,,,,,,,,,,,
,,,,,,60ee964068294420110228a6,62bbfa4b5640a6c5dcfaa51b,2022-06-29_09h08.11.248,Colour_Asymmetry_Pilot,2022.1.3,Win32,59.94125757,62bbe60bf3d75ef465d3e404,0,142,142,91,1,twofour,,,,,,,,,,,,,,,,,,,,,,,,,,,,,,,,,,,,,,,,,,,,,,,,,,,,,,,,,,,,,,,,,,,,,,,,,,,,,,,,,,,,,,,,,,,,,,,,,,,,,,,,,,,,,,,,,,,,,,,,,,,,,,,,,,,,,,,,,,,,,,,,,,,,,,,,
,,,,,,60ee964068294420110228a6,62bbfa4b5640a6c5dcfaa51b,2022-06-29_09h08.11.248,Colour_Asymmetry_Pilot,2022.1.3,Win32,59.94125757,62bbe60bf3d75ef465d3e404,0,143,143,133,1,threefour,,,,,,,,,,,,,,,,,,,,,,,,,,,,,,,,,,,,,,,,,,,,,,,,,,,,,,,,,,,,,,,,,,,,,,,,,,,,,,,,,,,,,,,,,,,,,,,,,,,,,,,,,,,,,,,,,,,,,,,,,,,,,,,,,,,,,,,,,,,,,,,,,,,,,,,,
,,,,,,60ee964068294420110228a6,62bbfa4b5640a6c5dcfaa51b,2022-06-29_09h08.11.248,Colour_Asymmetry_Pilot,2022.1.3,Win32,59.94125757,62bbe60bf3d75ef465d3e404,0,144,144,95,1,fourthree,,,,,,,,,,,,,,,,,,,,,,,,,,,,,,,,,,,,,,,,,,,,,,,,,,,,,,,,,,,,,,,,,,,,,,,,,,,,,,,,,,,,,,,,,,,,,,,,,,,,,,,,,,,,,,,,,,,,,,,,,,,,,,,,,,,,,,,,,,,,,,,,,,,,,,,,
,,,,,,60ee964068294420110228a6,62bbfa4b5640a6c5dcfaa51b,2022-06-29_09h08.11.248,Colour_Asymmetry_Pilot,2022.1.3,Win32,59.94125757,62bbe60bf3d75ef465d3e404,0,145,145,71,1,fourthree,,,,,,,,,,,,,,,,,,,,,,,,,,,,,,,,,,,,,,,,,,,,,,,,,,,,,,,,,,,,,,,,,,,,,,,,,,,,,,,,,,,,,,,,,,,,,,,,,,,,,,,,,,,,,,,,,,,,,,,,,,,,,,,,,,,,,,,,,,,,,,,,,,,,,,,,
,,,,,,60ee964068294420110228a6,62bbfa4b5640a6c5dcfaa51b,2022-06-29_09h08.11.248,Colour_Asymmetry_Pilot,2022.1.3,Win32,59.94125757,62bbe60bf3d75ef465d3e404,0,146,146,21,1,threefour,,,,,,,,,,,,,,,,,,,,,,,,,,,,,,,,,,,,,,,,,,,,,,,,,,,,,,,,,,,,,,,,,,,,,,,,,,,,,,,,,,,,,,,,,,,,,,,,,,,,,,,,,,,,,,,,,,,,,,,,,,,,,,,,,,,,,,,,,,,,,,,,,,,,,,,,
,,,,,,60ee964068294420110228a6,62bbfa4b5640a6c5dcfaa51b,2022-06-29_09h08.11.248,Colour_Asymmetry_Pilot,2022.1.3,Win32,59.94125757,62bbe60bf3d75ef465d3e404,0,147,147,61,1,threefour,,,,,,,,,,,,,,,,,,,,,,,,,,,,,,,,,,,,,,,,,,,,,,,,,,,,,,,,,,,,,,,,,,,,,,,,,,,,,,,,,,,,,,,,,,,,,,,,,,,,,,,,,,,,,,,,,,,,,,,,,,,,,,,,,,,,,,,,,,,,,,,,,,,,,,,,
,,,,,,60ee964068294420110228a6,62bbfa4b5640a6c5dcfaa51b,2022-06-29_09h08.11.248,Colour_Asymmetry_Pilot,2022.1.3,Win32,59.94125757,62bbe60bf3d75ef465d3e404,0,148,148,119,1,fourthree,,,,,,,,,,,,,,,,,,,,,,,,,,,,,,,,,,,,,,,,,,,,,,,,,,,,,,,,,,,,,,,,,,,,,,,,,,,,,,,,,,,,,,,,,,,,,,,,,,,,,,,,,,,,,,,,,,,,,,,,,,,,,,,,,,,,,,,,,,,,,,,,,,,,,,,,
,,,,,,60ee964068294420110228a6,62bbfa4b5640a6c5dcfaa51b,2022-06-29_09h08.11.248,Colour_Asymmetry_Pilot,2022.1.3,Win32,59.94125757,62bbe60bf3d75ef465d3e404,0,149,149,43,1,twofour,,,,,,,,,,,,,,,,,,,,,,,,,,,,,,,,,,,,,,,,,,,,,,,,,,,,,,,,,,,,,,,,,,,,,,,,,,,,,,,,,,,,,,,,,,,,,,,,,,,,,,,,,,,,,,,,,,,,,,,,,,,,,,,,,,,,,,,,,,,,,,,,,,,,,,,,
,,,,,,60ee964068294420110228a6,62bbfa4b5640a6c5dcfaa51b,2022-06-29_09h08.11.248,Colour_Asymmetry_Pilot,2022.1.3,Win32,59.94125757,62bbe60bf3d75ef465d3e404,0,150,150,22,1,fourtwo,,,,,,,,,,,,,,,,,,,,,,,,,,,,,,,,,,,,,,,,,,,,,,,,,,,,,,,,,,,,,,,,,,,,,,,,,,,,,,,,,,,,,,,,,,,,,,,,,,,,,,,,,,,,,,,,,,,,,,,,,,,,,,,,,,,,,,,,,,,,,,,,,,,,,,,,
,,,,,,60ee964068294420110228a6,62bbfa4b5640a6c5dcfaa51b,2022-06-29_09h08.11.248,Colour_Asymmetry_Pilot,2022.1.3,Win32,59.94125757,62bbe60bf3d75ef465d3e404,0,151,151,59,1,twofour,,,,,,,,,,,,,,,,,,,,,,,,,,,,,,,,,,,,,,,,,,,,,,,,,,,,,,,,,,,,,,,,,,,,,,,,,,,,,,,,,,,,,,,,,,,,,,,,,,,,,,,,,,,,,,,,,,,,,,,,,,,,,,,,,,,,,,,,,,,,,,,,,,,,,,,,
,,,,,,60ee964068294420110228a6,62bbfa4b5640a6c5dcfaa51b,2022-06-29_09h08.11.248,Colour_Asymmetry_Pilot,2022.1.3,Win32,59.94125757,62bbe60bf3d75ef465d3e404,0,152,152,106,1,twoone,,,,,,,,,,,,,,,,,,,,,,,,,,,,,,,,,,,,,,,,,,,,,,,,,,,,,,,,,,,,,,,,,,,,,,,,,,,,,,,,,,,,,,,,,,,,,,,,,,,,,,,,,,,,,,,,,,,,,,,,,,,,,,,,,,,,,,,,,,,,,,,,,,,,,,,,
,,,,,,60ee964068294420110228a6,62bbfa4b5640a6c5dcfaa51b,2022-06-29_09h08.11.248,Colour_Asymmetry_Pilot,2022.1.3,Win32,59.94125757,62bbe60bf3d75ef465d3e404,0,153,153,76,1,threeone,,,,,,,,,,,,,,,,,,,,,,,,,,,,,,,,,,,,,,,,,,,,,,,,,,,,,,,,,,,,,,,,,,,,,,,,,,,,,,,,,,,,,,,,,,,,,,,,,,,,,,,,,,,,,,,,,,,,,,,,,,,,,,,,,,,,,,,,,,,,,,,,,,,,,,,,
,,,,,,60ee964068294420110228a6,62bbfa4b5640a6c5dcfaa51b,2022-06-29_09h08.11.248,Colour_Asymmetry_Pilot,2022.1.3,Win32,59.94125757,62bbe60bf3d75ef465d3e404,0,154,154,148,1,threeone,,,,,,,,,,,,,,,,,,,,,,,,,,,,,,,,,,,,,,,,,,,,,,,,,,,,,,,,,,,,,,,,,,,,,,,,,,,,,,,,,,,,,,,,,,,,,,,,,,,,,,,,,,,,,,,,,,,,,,,,,,,,,,,,,,,,,,,,,,,,,,,,,,,,,,,,
,,,,,,60ee964068294420110228a6,62bbfa4b5640a6c5dcfaa51b,2022-06-29_09h08.11.248,Colour_Asymmetry_Pilot,2022.1.3,Win32,59.94125757,62bbe60bf3d75ef465d3e404,0,155,155,2,1,twoone,,,,,,,,,,,,,,,,,,,,,,,,,,,,,,,,,,,,,,,,,,,,,,,,,,,,,,,,,,,,,,,,,,,,,,,,,,,,,,,,,,,,,,,,,,,,,,,,,,,,,,,,,,,,,,,,,,,,,,,,,,,,,,,,,,,,,,,,,,,,,,,,,,,,,,,,
,,,,,,60ee964068294420110228a6,62bbfa4b5640a6c5dcfaa51b,2022-06-29_09h08.11.248,Colour_Asymmetry_Pilot,2022.1.3,Win32,59.94125757,62bbe60bf3d75ef465d3e404,0,156,156,140,1,threeone,,,,,,,,,,,,,,,,,,,,,,,,,,,,,,,,,,,,,,,,,,,,,,,,,,,,,,,,,,,,,,,,,,,,,,,,,,,,,,,,,,,,,,,,,,,,,,,,,,,,,,,,,,,,,,,,,,,,,,,,,,,,,,,,,,,,,,,,,,,,,,,,,,,,,,,,
,,,,,,60ee964068294420110228a6,62bbfa4b5640a6c5dcfaa51b,2022-06-29_09h08.11.248,Colour_Asymmetry_Pilot,2022.1.3,Win32,59.94125757,62bbe60bf3d75ef465d3e404,0,157,157,141,1,threefour,,,,,,,,,,,,,,,,,,,,,,,,,,,,,,,,,,,,,,,,,,,,,,,,,,,,,,,,,,,,,,,,,,,,,,,,,,,,,,,,,,,,,,,,,,,,,,,,,,,,,,,,,,,,,,,,,,,,,,,,,,,,,,,,,,,,,,,,,,,,,,,,,,,,,,,,
,,,,,,60ee964068294420110228a6,62bbfa4b5640a6c5dcfaa51b,2022-06-29_09h08.11.248,Colour_Asymmetry_Pilot,2022.1.3,Win32,59.94125757,62bbe60bf3d75ef465d3e404,0,158,158,36,1,threeone,,,,,,,,,,,,,,,,,,,,,,,,,,,,,,,,,,,,,,,,,,,,,,,,,,,,,,,,,,,,,,,,,,,,,,,,,,,,,,,,,,,,,,,,,,,,,,,,,,,,,,,,,,,,,,,,,,,,,,,,,,,,,,,,,,,,,,,,,,,,,,,,,,,,,,,,
,,,,,,60ee964068294420110228a6,62bbfa4b5640a6c5dcfaa51b,2022-06-29_09h08.11.248,Colour_Asymmetry_Pilot,2022.1.3,Win32,59.94125757,62bbe60bf3d75ef465d3e404,0,159,159,136,1,onetwo,,,,,,,,,,,,,,,,,,,,,,,,,,,,,,,,,,,,,,,,,,,,,,,,,,,,,,,,,,,,,,,,,,,,,,,,,,,,,,,,,,,,,,,,,,,,,,,,,,,,,,,,,,,,,,,,,,,,,,,,,,,,,,,,,,,,,,,,,,,,,,,,,,,,,,,,
,,,,,,60ee964068294420110228a6,62bbfa4b5640a6c5dcfaa51b,2022-06-29_09h08.11.248,Colour_Asymmetry_Pilot,2022.1.3,Win32,59.94125757,62bbe60bf3d75ef465d3e404,0,160,160,20,1,threeone,,,,,,,,,,,,,,,,,,,,,,,,,,,,,,,,,,,,,,,,,,,,,,,,,,,,,,,,,,,,,,,,,,,,,,,,,,,,,,,,,,,,,,,,,,,,,,,,,,,,,,,,,,,,,,,,,,,,,,,,,,,,,,,,,,,,,,,,,,,,,,,,,,,,,,,,
,,,,,,60ee964068294420110228a6,62bbfa4b5640a6c5dcfaa51b,2022-06-29_09h08.11.248,Colour_Asymmetry_Pilot,2022.1.3,Win32,59.94125757,62bbe60bf3d75ef465d3e404,0,161,161,6,1,fourtwo,,,,,,,,,,,,,,,,,,,,,,,,,,,,,,,,,,,,,,,,,,,,,,,,,,,,,,,,,,,,,,,,,,,,,,,,,,,,,,,,,,,,,,,,,,,,,,,,,,,,,,,,,,,,,,,,,,,,,,,,,,,,,,,,,,,,,,,,,,,,,,,,,,,,,,,,
,,,,,,60ee964068294420110228a6,62bbfa4b5640a6c5dcfaa51b,2022-06-29_09h08.11.248,Colour_Asymmetry_Pilot,2022.1.3,Win32,59.94125757,62bbe60bf3d75ef465d3e404,,,,,,,space,3.2878,space,16.1508,space,128.3386,space,250.2855,space,20.5091,space,18.0107,"[0.37240000000000006,0.4980000000000002,-0.2864]",fourtwo,"[-0.6942,-0.7648,-0.12959999999999994]",-4,16.7743,-45,112,1,0,0,response7disk_5,-5,1,1,0,0,rectangle_8,121,53,1,0,0,response1disk_7,6,3,8,-1,1,0,0,rectangle_4,0,0,0,0,1,,,,,,,,,,,,,,,,,,,,,,,,,,,,,,,,,,,,,,,,,,,,,,,,,,,,,,,,,,,,,,,,,,,,,,,,,,,,,,,,,,,,,,,,,,,,,,,,,,,,,,,,
,,,,,,60ee964068294420110228a6,62bbfa4b5640a6c5dcfaa51b,2022-06-29_09h08.11.248,Colour_Asymmetry_Pilot,2022.1.3,Win32,59.94125757,62bbe60bf3d75ef465d3e404,,,,,,,,,,,,,,,,,,,"[-0.4902000000000001,0.2704,-0.45899999999999996]",twofour,"[-0.6235999999999999,-0.6786,-0.08239999999999992]",-4,8.5294,-66,83,1,0,0,response7disk_5,-1,2,1,0,0,rectangle_8,-1,2,1,0,0,,,3,-1,2,1,0,0,,1,0,1,0,1,,,,,,,,,,,,,,,,,,,,,,,,,,,,,,,,,,,,,,,,,,,,,,,,,,,,,,,,,,,,,,,,,,,,,,,,,,,,,,,,,,,,,,,,,,,,,,,,,,,,,,,,
,,,,,,60ee964068294420110228a6,62bbfa4b5640a6c5dcfaa51b,2022-06-29_09h08.11.248,Colour_Asymmetry_Pilot,2022.1.3,Win32,59.94125757,62bbe60bf3d75ef465d3e404,,,,,,,,,,,,,,,,,,,"[-0.34920000000000007,-0.702,-0.5216]",fourthree,"[-0.4982,-0.2942,-0.0354000000000001]",-2,2.2033,-108,-68,1,0,0,response5disk_5,23,-6,1,0,0,rectangle_8,23,-6,1,0,0,,,3,23,-6,1,0,0,,2,0,2,0,1,,,,,,,,,,,,,,,,,,,,,,,,,,,,,,,,,,,,,,,,,,,,,,,,,,,,,,,,,,,,,,,,,,,,,,,,,,,,,,,,,,,,,,,,,,,,,,,,,,,,,,,,
,,,,,,60ee964068294420110228a6,62bbfa4b5640a6c5dcfaa51b,2022-06-29_09h08.11.248,Colour_Asymmetry_Pilot,2022.1.3,Win32,59.94125757,62bbe60bf3d75ef465d3e404,,,,,,,,,,,,,,,,,,,"[0.12939999999999996,-0.2864,0.3253999999999999]",twoone,"[-0.26280000000000003,-0.4746,-0.2158]",2,6.9905,148,-40,1,0,0,response3disk_5,-7,-5,1,0,0,rectangle_8,-7,-5,1,0,0,,,3,-7,-5,1,0,0,,3,0,3,0,1,,,,,,,,,,,,,,,,,,,,,,,,,,,,,,,,,,,,,,,,,,,,,,,,,,,,,,,,,,,,,,,,,,,,,,,,,,,,,,,,,,,,,,,,,,,,,,,,,,,,,,,,
,,,,,,60ee964068294420110228a6,62bbfa4b5640a6c5dcfaa51b,2022-06-29_09h08.11.248,Colour_Asymmetry_Pilot,2022.1.3,Win32,59.94125757,62bbe60bf3d75ef465d3e404,,,,,,,,,,,,,,,,,,,"[-0.48240000000000005,0.3175999999999999,0.2156]",onethree,"[-0.6706000000000001,-0.6157999999999999,-0.6786]",2,3.5702,126,-99,1,0,0,response3disk_5,-2,0,1,0,0,rectangle_8,136,57,1,0,0,response1disk_7,6,3,-2,8,1,0,0,rectangle_4,4,0,4,0,1,,,,,,,,,,,,,,,,,,,,,,,,,,,,,,,,,,,,,,,,,,,,,,,,,,,,,,,,,,,,,,,,,,,,,,,,,,,,,,,,,,,,,,,,,,,,,,,,,,,,,,,,
,,,,,,60ee964068294420110228a6,62bbfa4b5640a6c5dcfaa51b,2022-06-29_09h08.11.248,Colour_Asymmetry_Pilot,2022.1.3,Win32,59.94125757,62bbe60bf3d75ef465d3e404,,,,,,,,,,,,,,,,,,,"[0.34099999999999997,0.5841999999999998,-0.9844]",threefour,"[-0.5452,-0.608,0.2470000000000001]",-4,4.6549,-46,82,1,0,0,response7disk_5,12,-10,1,0,0,rectangle_8,12,-10,1,0,0,,,3,12,-10,1,0,0,,5,0,5,0,1,,,,,,,,,,,,,,,,,,,,,,,,,,,,,,,,,,,,,,,,,,,,,,,,,,,,,,,,,,,,,,,,,,,,,,,,,,,,,,,,,,,,,,,,,,,,,,,,,,,,,,,,
,,,,,,60ee964068294420110228a6,62bbfa4b5640a6c5dcfaa51b,2022-06-29_09h08.11.248,Colour_Asymmetry_Pilot,2022.1.3,Win32,59.94125757,62bbe60bf3d75ef465d3e404,,,,,,,,,,,,,,,,,,,"[-0.10599999999999998,-0.15300000000000002,0.15280000000000005]",threefour,"[-0.06680000000000008,-0.45100000000000007,-0.906]",-4,1.6695,-52,85,1,0,0,response7disk_5,1,7,1,0,0,rectangle_8,1,7,1,0,0,,,3,1,7,1,0,0,,6,0,6,0,1,,,,,,,,,,,,,,,,,,,,,,,,,,,,,,,,,,,,,,,,,,,,,,,,,,,,,,,,,,,,,,,,,,,,,,,,,,,,,,,,,,,,,,,,,,,,,,,,,,,,,,,,
,,,,,,60ee964068294420110228a6,62bbfa4b5640a6c5dcfaa51b,2022-06-29_09h08.11.248,Colour_Asymmetry_Pilot,2022.1.3,Win32,59.94125757,62bbe60bf3d75ef465d3e404,,,,,,,,,,,,,,,,,,,,fourtwo,,3,3.2973,,,,,,,,,,,,,,,,,,,,,,,,,,,,,,,,space,1086.1823,"[0.30180000000000007,-0.7884,-0.9844]","[0.18419999999999992,-0.4276,-0.404]",138,62,1,0,0,response1disk,3,-1,1,0,0,rectangle,3,-1,1,0,0,,3,0.0021,0,3,-1,1,0,0,0,0,0,118,1,37,second,,,,,,,,,,,,,,,,,,,,,,,,,,,,,,,,,,,,,,,,,,,,,,,,,,,,,,,,,,,,,,,,,,,
,,,,,,60ee964068294420110228a6,62bbfa4b5640a6c5dcfaa51b,2022-06-29_09h08.11.248,Colour_Asymmetry_Pilot,2022.1.3,Win32,59.94125757,62bbe60bf3d75ef465d3e404,,,,,,,,,,,,,,,,,,,,fourtwo,,3,1.9943,,,,,,,,,,,,,,,,,,,,,,,,,,,,,,,,,,"[0.5528,0.7409999999999999,-0.71]","[0.37240000000000006,0.4980000000000002,-0.2864]",130,65,1,0,0,response1disk,12,-2,1,0,0,rectangle,12,-2,1,0,0,,2,0.0039,0,12,-2,1,0,0,0,1,1,46,1,46,first,,,,,,,,,,,,,,,,,,,,,,,,,,,,,,,,,,,,,,,,,,,,,,,,,,,,,,,,,,,,,,,,,,,
,,,,,,60ee964068294420110228a6,62bbfa4b5640a6c5dcfaa51b,2022-06-29_09h08.11.248,Colour_Asymmetry_Pilot,2022.1.3,Win32,59.94125757,62bbe60bf3d75ef465d3e404,,,,,,,,,,,,,,,,,,,,onetwo,,1,4.588,,,,,,,,,,,,,,,,,,,,,,,,,,,,,,,,,,"[-0.9216,-0.5529999999999999,-0.3962]","[-0.011800000000000033,-0.906,-0.45100000000000007]",69,-145,1,0,0,response3disk,-1,-10,1,0,0,rectangle,-1,-10,1,0,0,,2,0.0003,0,-1,-10,1,0,0,0,2,2,68,1,68,first,,,,,,,,,,,,,,,,,,,,,,,,,,,,,,,,,,,,,,,,,,,,,,,,,,,,,,,,,,,,,,,,,,,
,,,,,,60ee964068294420110228a6,62bbfa4b5640a6c5dcfaa51b,2022-06-29_09h08.11.248,Colour_Asymmetry_Pilot,2022.1.3,Win32,59.94125757,62bbe60bf3d75ef465d3e404,,,,,,,,,,,,,,,,,,,,fourtwo,,2,8.8171,,,,,,,,,,,,,,,,,,,,,,,,,,,,,,,,,,"[-0.011800000000000033,-0.906,-0.45100000000000007]","[0.2784,-0.31000000000000005,-0.5452]",118,-45,1,0,0,response3disk,13,-1,1,0,0,rectangle,13,-1,1,0,0,,1,0.0022,0,13,-1,1,0,0,0,3,3,119,1,38,second,,,,,,,,,,,,,,,,,,,,,,,,,,,,,,,,,,,,,,,,,,,,,,,,,,,,,,,,,,,,,,,,,,,
,,,,,,60ee964068294420110228a6,62bbfa4b5640a6c5dcfaa51b,2022-06-29_09h08.11.248,Colour_Asymmetry_Pilot,2022.1.3,Win32,59.94125757,62bbe60bf3d75ef465d3e404,,,,,,,,,,,,,,,,,,,,onetwo,,-4,1.7188,,,,,,,,,,,,,,,,,,,,,,,,,,,,,,,,,,"[-0.9688,-0.7412000000000001,-0.4902000000000001]","[1,0.12939999999999996,-1]",-70,111,1,0,0,response7disk,-7,-6,1,0,0,rectangle,-7,-6,1,0,0,,3,0.0009,0,-7,-6,1,0,0,0,4,4,30,1,30,first,,,,,,,,,,,,,,,,,,,,,,,,,,,,,,,,,,,,,,,,,,,,,,,,,,,,,,,,,,,,,,,,,,,
,,,,,,60ee964068294420110228a6,62bbfa4b5640a6c5dcfaa51b,2022-06-29_09h08.11.248,Colour_Asymmetry_Pilot,2022.1.3,Win32,59.94125757,62bbe60bf3d75ef465d3e404,,,,,,,,,,,,,,,,,,,,threefour,,-3,5.2713,,,,,,,,,,,,,,,,,,,,,,,,,,,,,,,,,,"[0.9763999999999999,-0.1137999999999999,-0.6314]","[-0.9688,-0.38039999999999996,-0.41979999999999995]",-81,59,1,0,0,response7disk,7,-5,1,0,0,rectangle,7,-5,1,0,0,,2,0.0012,0,7,-5,1,0,0,0,5,5,79,1,79,first,,,,,,,,,,,,,,,,,,,,,,,,,,,,,,,,,,,,,,,,,,,,,,,,,,,,,,,,,,,,,,,,,,,
,,,,,,60ee964068294420110228a6,62bbfa4b5640a6c5dcfaa51b,2022-06-29_09h08.11.248,Colour_Asymmetry_Pilot,2022.1.3,Win32,59.94125757,62bbe60bf3d75ef465d3e404,,,,,,,,,,,,,,,,,,,,threeone,,-1,95.3805,,,,,,,,,,,,,,,,,,,,,,,,,,,,,,,,,,"[-0.5922000000000001,-0.7492000000000001,-0.5296000000000001]","[-0.011800000000000033,-0.906,-0.45100000000000007]",-61,-145,1,0,0,response5disk,8,-1,1,0,0,rectangle,8,-1,1,0,0,,2,0.0004,0,8,-1,1,0,0,0,6,6,110,1,29,second,,,,,,,,,,,,,,,,,,,,,,,,,,,,,,,,,,,,,,,,,,,,,,,,,,,,,,,,,,,,,,,,,,,
,,,,,,60ee964068294420110228a6,62bbfa4b5640a6c5dcfaa51b,2022-06-29_09h08.11.248,Colour_Asymmetry_Pilot,2022.1.3,Win32,59.94125757,62bbe60bf3d75ef465d3e404,,,,,,,,,,,,,,,,,,,,twofour,,-4,1.302,,,,,,,,,,,,,,,,,,,,,,,,,,,,,,,,,,"[0.9763999999999999,0.8588,-0.05900000000000005]","[-0.9766,-0.6472,0.07440000000000002]",-68,98,1,0,0,response7disk,18,-1,1,0,0,rectangle,18,-1,1,0,0,,2,0.0005,0,18,-1,1,0,0,0,7,7,52,1,52,first,,,,,,,,,,,,,,,,,,,,,,,,,,,,,,,,,,,,,,,,,,,,,,,,,,,,,,,,,,,,,,,,,,,
,,,,,,60ee964068294420110228a6,62bbfa4b5640a6c5dcfaa51b,2022-06-29_09h08.11.248,Colour_Asymmetry_Pilot,2022.1.3,Win32,59.94125757,62bbe60bf3d75ef465d3e404,,,,,,,,,,,,,,,,,,,,threeone,,-4,2.3198,,,,,,,,,,,,,,,,,,,,,,,,,,,,,,,,,,"[0.0351999999999999,0.41159999999999997,0.0038000000000000256]","[0.8115999999999999,-0.0040000000000000036,-0.09819999999999995]",-50,76,1,0,0,response7disk,9,-11,1,0,0,rectangle,9,-11,1,0,0,,1,0.001,0,9,-11,1,0,0,0,8,8,154,1,73,second,,,,,,,,,,,,,,,,,,,,,,,,,,,,,,,,,,,,,,,,,,,,,,,,,,,,,,,,,,,,,,,,,,,
,,,,,,60ee964068294420110228a6,62bbfa4b5640a6c5dcfaa51b,2022-06-29_09h08.11.248,Colour_Asymmetry_Pilot,2022.1.3,Win32,59.94125757,62bbe60bf3d75ef465d3e404,,,,,,,,,,,,,,,,,,,,threeone,,-4,2.7857,,,,,,,,,,,,,,,,,,,,,,,,,,,,,,,,,,"[0.6547999999999998,-0.043199999999999905,-0.011800000000000033]","[-0.6235999999999999,-0.6786,-0.08239999999999992]",-45,81,1,0,0,response7disk,8,-1,1,0,0,rectangle,8,-1,1,0,0,,1,0.0004,0,8,-1,1,0,0,0,9,9,20,1,20,first,,,,,,,,,,,,,,,,,,,,,,,,,,,,,,,,,,,,,,,,,,,,,,,,,,,,,,,,,,,,,,,,,,,
,,,,,,60ee964068294420110228a6,62bbfa4b5640a6c5dcfaa51b,2022-06-29_09h08.11.248,Colour_Asymmetry_Pilot,2022.1.3,Win32,59.94125757,62bbe60bf3d75ef465d3e404,,,,,,,,,,,,,,,,,,,,fourthree,,3,2.1689,,,,,,,,,,,,,,,,,,,,,,,,,,,,,,,,,,"[0.04299999999999993,0.16060000000000008,-0.6628000000000001]","[-0.4902000000000001,0.2704,-0.45899999999999996]",143,103,1,0,0,response1disk,9,10,1,0,0,rectangle,9,10,1,0,0,,1,0.0002,0,9,10,1,0,0,0,10,10,91,1,10,second,,,,,,,,,,,,,,,,,,,,,,,,,,,,,,,,,,,,,,,,,,,,,,,,,,,,,,,,,,,,,,,,,,,
,,,,,,60ee964068294420110228a6,62bbfa4b5640a6c5dcfaa51b,2022-06-29_09h08.11.248,Colour_Asymmetry_Pilot,2022.1.3,Win32,59.94125757,62bbe60bf3d75ef465d3e404,,,,,,,,,,,,,,,,,,,,twofour,,2,5.7562,,,,,,,,,,,,,,,,,,,,,,,,,,,,,,,,,,"[0.0351999999999999,0.41159999999999997,0.0038000000000000256]","[0.11359999999999992,0.6312,0.5213999999999999]",127,-79,1,0,0,response3disk,6,-8,1,0,0,rectangle,6,-8,1,0,0,,1,0.0003,0,6,-8,1,0,0,0,11,11,105,1,24,second,,,,,,,,,,,,,,,,,,,,,,,,,,,,,,,,,,,,,,,,,,,,,,,,,,,,,,,,,,,,,,,,,,,
,,,,,,60ee964068294420110228a6,62bbfa4b5640a6c5dcfaa51b,2022-06-29_09h08.11.248,Colour_Asymmetry_Pilot,2022.1.3,Win32,59.94125757,62bbe60bf3d75ef465d3e404,,,,,,,,,,,,,,,,,,,,fourtwo,,-4,1.6609,,,,,,,,,,,,,,,,,,,,,,,,,,,,,,,,,,"[0.34099999999999997,0.5841999999999998,-0.9844]","[-0.4668,-0.8746,-0.2942]",-43,110,1,0,0,response7disk,7,4,1,0,0,rectangle,7,4,1,0,0,,2,0.0009,0,7,4,1,0,0,0,12,12,62,1,62,first,,,,,,,,,,,,,,,,,,,,,,,,,,,,,,,,,,,,,,,,,,,,,,,,,,,,,,,,,,,,,,,,,,,
,,,,,,60ee964068294420110228a6,62bbfa4b5640a6c5dcfaa51b,2022-06-29_09h08.11.248,Colour_Asymmetry_Pilot,2022.1.3,Win32,59.94125757,62bbe60bf3d75ef465d3e404,,,,,,,,,,,,,,,,,,,,twoone,,3,3.4684,,,,,,,,,,,,,,,,,,,,,,,,,,,,,,,,,,"[-0.07459999999999989,0.12139999999999995,-0.9922]","[0.5528,0.7409999999999999,-0.71]",124,44,1,0,0,response1disk,0,-2,1,0,0,rectangle,0,-2,1,0,0,,1,0.0014,0,0,-2,1,0,0,0,13,13,9,1,9,first,,,,,,,,,,,,,,,,,,,,,,,,,,,,,,,,,,,,,,,,,,,,,,,,,,,,,,,,,,,,,,,,,,,
,,,,,,60ee964068294420110228a6,62bbfa4b5640a6c5dcfaa51b,2022-06-29_09h08.11.248,Colour_Asymmetry_Pilot,2022.1.3,Win32,59.94125757,62bbe60bf3d75ef465d3e404,,,,,,,,,,,,,,,,,,,,onethree,,-4,0.7375,,,,,,,,,,,,,,,,,,,,,,,,,,,,,,,,,,"[-0.48240000000000005,0.3175999999999999,0.2156]","[0.7802,-0.23140000000000005,-0.20799999999999996]",-53,122,1,0,0,response7disk,26,2,1,0,0,rectangle,26,2,1,0,0,,2,0.0012,0,26,2,1,0,0,0,14,14,114,1,33,second,,,,,,,,,,,,,,,,,,,,,,,,,,,,,,,,,,,,,,,,,,,,,,,,,,,,,,,,,,,,,,,,,,,
,,,,,,60ee964068294420110228a6,62bbfa4b5640a6c5dcfaa51b,2022-06-29_09h08.11.248,Colour_Asymmetry_Pilot,2022.1.3,Win32,59.94125757,62bbe60bf3d75ef465d3e404,,,,,,,,,,,,,,,,,,,,twoone,,-4,2.2441,,,,,,,,,,,,,,,,,,,,,,,,,,,,,,,,,,"[0.30180000000000007,-0.7884,-0.9844]","[-0.10599999999999998,-0.10599999999999998,0.5841999999999998]",-59,85,1,0,0,response7disk,22,-7,1,0,0,rectangle,22,-7,1,0,0,,2,0.0002,0,22,-7,1,0,0,0,15,15,3,1,3,first,,,,,,,,,,,,,,,,,,,,,,,,,,,,,,,,,,,,,,,,,,,,,,,,,,,,,,,,,,,,,,,,,,,
,,,,,,60ee964068294420110228a6,62bbfa4b5640a6c5dcfaa51b,2022-06-29_09h08.11.248,Colour_Asymmetry_Pilot,2022.1.3,Win32,59.94125757,62bbe60bf3d75ef465d3e404,,,,,,,,,,,,,,,,,,,,twofour,,3,3.4118,,,,,,,,,,,,,,,,,,,,,,,,,,,,,,,,,,"[-0.4276,0.0038000000000000256,-0.3256]","[-0.10599999999999998,-0.10599999999999998,0.5841999999999998]",130,33,1,0,0,response1disk,1,1,1,0,0,rectangle,1,1,1,0,0,,1,0.001,0,1,1,1,0,0,0,16,16,51,1,51,first,,,,,,,,,,,,,,,,,,,,,,,,,,,,,,,,,,,,,,,,,,,,,,,,,,,,,,,,,,,,,,,,,,,
,,,,,,60ee964068294420110228a6,62bbfa4b5640a6c5dcfaa51b,2022-06-29_09h08.11.248,Colour_Asymmetry_Pilot,2022.1.3,Win32,59.94125757,62bbe60bf3d75ef465d3e404,,,,,,,,,,,,,,,,,,,,onetwo,,-4,1.0686,,,,,,,,,,,,,,,,,,,,,,,,,,,,,,,,,,"[0.7176,-0.906,-0.6864]","[0.9372,0.9450000000000001,0.8980000000000001]",-49,103,1,0,0,response7disk,11,-3,1,0,0,rectangle,11,-3,1,0,0,,3,0.0021,0,11,-3,1,0,0,0,17,17,47,1,47,first,,,,,,,,,,,,,,,,,,,,,,,,,,,,,,,,,,,,,,,,,,,,,,,,,,,,,,,,,,,,,,,,,,,
,,,,,,60ee964068294420110228a6,62bbfa4b5640a6c5dcfaa51b,2022-06-29_09h08.11.248,Colour_Asymmetry_Pilot,2022.1.3,Win32,59.94125757,62bbe60bf3d75ef465d3e404,,,,,,,,,,,,,,,,,,,,onetwo,,-2,2.7011,,,,,,,,,,,,,,,,,,,,,,,,,,,,,,,,,,"[0.9686000000000001,0.3802000000000001,0.19999999999999996]","[-0.38039999999999996,-0.4276,-0.1452]",-81,-46,1,0,0,response5disk,10,6,1,0,0,rectangle,10,6,1,0,0,,1,0.0013,0,10,6,1,0,0,0,18,18,112,1,31,second,,,,,,,,,,,,,,,,,,,,,,,,,,,,,,,,,,,,,,,,,,,,,,,,,,,,,,,,,,,,,,,,,,,
,,,,,,60ee964068294420110228a6,62bbfa4b5640a6c5dcfaa51b,2022-06-29_09h08.11.248,Colour_Asymmetry_Pilot,2022.1.3,Win32,59.94125757,62bbe60bf3d75ef465d3e404,,,,,,,,,,,,,,,,,,,,threefour,,-2,2.0601,,,,,,,,,,,,,,,,,,,,,,,,,,,,,,,,,,"[-0.10599999999999998,-0.15300000000000002,0.15280000000000005]","[0.7802,-0.23140000000000005,-0.20799999999999996]",-109,-65,1,0,0,response5disk,10,0,1,0,0,rectangle,10,0,1,0,0,,1,0.0003,0,10,0,1,0,0,0,19,19,146,1,65,second,,,,,,,,,,,,,,,,,,,,,,,,,,,,,,,,,,,,,,,,,,,,,,,,,,,,,,,,,,,,,,,,,,,
,,,,,,60ee964068294420110228a6,62bbfa4b5640a6c5dcfaa51b,2022-06-29_09h08.11.248,Colour_Asymmetry_Pilot,2022.1.3,Win32,59.94125757,62bbe60bf3d75ef465d3e404,,,,,,,,,,,,,,,,,,,,onetwo,,1,1.2515,,,,,,,,,,,,,,,,,,,,,,,,,,,,,,,,,,"[0.40379999999999994,0.09000000000000008,0.44300000000000006]","[-0.9766,-0.6472,0.07440000000000002]",67,-123,1,0,0,response3disk,-4,-1,1,0,0,rectangle,-4,-1,1,0,0,,3,0.001,0,-4,-1,1,0,0,0,20,20,43,1,43,first,,,,,,,,,,,,,,,,,,,,,,,,,,,,,,,,,,,,,,,,,,,,,,,,,,,,,,,,,,,,,,,,,,,
