trials.thisRepN,trials.thisTrialN,trials.thisN,trials.thisIndex,trials.ran,Colourcodes,participant,session,date,expName,psychopyVersion,OS,frameRate,study_id,trials_4.thisRepN,trials_4.thisTrialN,trials_4.thisN,trials_4.thisIndex,trials_4.ran,StimulusPos,key_resp.keys,key_resp.rt,key_resp_2.keys,key_resp_2.rt,key_resp_15.keys,key_resp_15.rt,key_resp_17.keys,key_resp_17.rt,key_resp_9.keys,key_resp_9.rt,key_resp_10.keys,key_resp_10.rt,Circle1_col,Ecc,Circle2_col,similarity,response_time,mouse_5.x,mouse_5.y,mouse_5.leftButton,mouse_5.midButton,mouse_5.rightButton,mouse_5.clicked_name,mouse_10.x,mouse_10.y,mouse_10.leftButton,mouse_10.midButton,mouse_10.rightButton,mouse_10.clicked_name,mouse_7.x,mouse_7.y,mouse_7.leftButton,mouse_7.midButton,mouse_7.rightButton,catchnumberprac,mouse_6.x,mouse_6.y,mouse_6.leftButton,mouse_6.midButton,mouse_6.rightButton,duringprac.thisRepN,duringprac.thisTrialN,duringprac.thisN,duringprac.thisIndex,duringprac.ran,mouse_7.clicked_name,catchprac,mouse_6.clicked_name,key_resp_22.keys,key_resp_22.rt,Circle1_colour,Circle2_colour,mouse.x,mouse.y,mouse.leftButton,mouse.midButton,mouse.rightButton,mouse.clicked_name,mouse_2.x,mouse_2.y,mouse_2.leftButton,mouse_2.midButton,mouse_2.rightButton,mouse_2.clicked_name,mouse_3.x,mouse_3.y,mouse_3.leftButton,mouse_3.midButton,mouse_3.rightButton,catchresponse,catchnumber,response_time_catch,Catch,mouse_11.x,mouse_11.y,mouse_11.leftButton,mouse_11.midButton,mouse_11.rightButton,trials_2.thisRepN,trials_2.thisTrialN,trials_2.thisN,trials_2.thisIndex,trials_2.ran,Colourpair,Temporder,mouse_3.clicked_name,mouse_11.clicked_name,trials_3.thisRepN,trials_3.thisTrialN,trials_3.thisN,trials_3.thisIndex,trials_3.ran,key_resp_instr_Ishi.keys,key_resp_instr_Ishi.rt,Ishi_trial_keyresp.keys,Ishi_trial_keyresp.rt,Ishi_textbox.text,Ishi_loop.thisRepN,Ishi_loop.thisTrialN,Ishi_loop.thisN,Ishi_loop.thisIndex,Ishi_loop.ran,imageaddress,textbox.text,mouse_4.x,mouse_4.y,mouse_4.leftButton,mouse_4.midButton,mouse_4.rightButton,mouse_4.clicked_name,textbox_2.text,mouse_8.x,mouse_8.y,mouse_8.leftButton,mouse_8.midButton,mouse_8.rightButton,mouse_8.clicked_name,textbox_3.text,mouse_9.x,mouse_9.y,mouse_9.leftButton,mouse_9.midButton,mouse_9.rightButton,mouse_9.clicked_name,textbox_4.text,mouse_12.x,mouse_12.y,mouse_12.leftButton,mouse_12.midButton,mouse_12.rightButton,mouse_12.clicked_name,textbox_5.text,mouse_13.x,mouse_13.y,mouse_13.leftButton,mouse_13.midButton,mouse_13.rightButton,mouse_13.clicked_name,textbox_6.text,mouse_14.x,mouse_14.y,mouse_14.leftButton,mouse_14.midButton,mouse_14.rightButton,mouse_14.clicked_name,textbox_7.text,mouse_15.x,mouse_15.y,mouse_15.leftButton,mouse_15.midButton,mouse_15.rightButton,mouse_15.clicked_name
0,0,0,92,1,,5bd781291fd7c80001bb1fad,62bbfa3900f3c6a4384df57b,2022-06-29_01h16.27.748,Colour_Asymmetry_Pilot,2022.1.3,Win32,59.89817311,62bbe60bf3d75ef465d3e404,,,,,,,,,,,,,,,,,,,,,,,,,,,,,,,,,,,,,,,,,,,,,,,,,,,,,,,,,,,,,,,,,,,,,,,,,,,,,,,,,,,,,,,,,,,,,,,,,,,,,,,,,,,,,,,,,,,,,,,,,,,,,,,,,,,,,,,,,,,,,,,,,,,,,,,,,,,,,,
0,1,1,23,1,,5bd781291fd7c80001bb1fad,62bbfa3900f3c6a4384df57b,2022-06-29_01h16.27.748,Colour_Asymmetry_Pilot,2022.1.3,Win32,59.89817311,62bbe60bf3d75ef465d3e404,,,,,,,,,,,,,,,,,,,,,,,,,,,,,,,,,,,,,,,,,,,,,,,,,,,,,,,,,,,,,,,,,,,,,,,,,,,,,,,,,,,,,,,,,,,,,,,,,,,,,,,,,,,,,,,,,,,,,,,,,,,,,,,,,,,,,,,,,,,,,,,,,,,,,,,,,,,,,,
0,2,2,35,1,,5bd781291fd7c80001bb1fad,62bbfa3900f3c6a4384df57b,2022-06-29_01h16.27.748,Colour_Asymmetry_Pilot,2022.1.3,Win32,59.89817311,62bbe60bf3d75ef465d3e404,,,,,,,,,,,,,,,,,,,,,,,,,,,,,,,,,,,,,,,,,,,,,,,,,,,,,,,,,,,,,,,,,,,,,,,,,,,,,,,,,,,,,,,,,,,,,,,,,,,,,,,,,,,,,,,,,,,,,,,,,,,,,,,,,,,,,,,,,,,,,,,,,,,,,,,,,,,,,,
0,3,3,54,1,,5bd781291fd7c80001bb1fad,62bbfa3900f3c6a4384df57b,2022-06-29_01h16.27.748,Colour_Asymmetry_Pilot,2022.1.3,Win32,59.89817311,62bbe60bf3d75ef465d3e404,,,,,,,,,,,,,,,,,,,,,,,,,,,,,,,,,,,,,,,,,,,,,,,,,,,,,,,,,,,,,,,,,,,,,,,,,,,,,,,,,,,,,,,,,,,,,,,,,,,,,,,,,,,,,,,,,,,,,,,,,,,,,,,,,,,,,,,,,,,,,,,,,,,,,,,,,,,,,,
0,4,4,24,1,,5bd781291fd7c80001bb1fad,62bbfa3900f3c6a4384df57b,2022-06-29_01h16.27.748,Colour_Asymmetry_Pilot,2022.1.3,Win32,59.89817311,62bbe60bf3d75ef465d3e404,,,,,,,,,,,,,,,,,,,,,,,,,,,,,,,,,,,,,,,,,,,,,,,,,,,,,,,,,,,,,,,,,,,,,,,,,,,,,,,,,,,,,,,,,,,,,,,,,,,,,,,,,,,,,,,,,,,,,,,,,,,,,,,,,,,,,,,,,,,,,,,,,,,,,,,,,,,,,,
0,5,5,72,1,,5bd781291fd7c80001bb1fad,62bbfa3900f3c6a4384df57b,2022-06-29_01h16.27.748,Colour_Asymmetry_Pilot,2022.1.3,Win32,59.89817311,62bbe60bf3d75ef465d3e404,,,,,,,,,,,,,,,,,,,,,,,,,,,,,,,,,,,,,,,,,,,,,,,,,,,,,,,,,,,,,,,,,,,,,,,,,,,,,,,,,,,,,,,,,,,,,,,,,,,,,,,,,,,,,,,,,,,,,,,,,,,,,,,,,,,,,,,,,,,,,,,,,,,,,,,,,,,,,,
0,6,6,34,1,,5bd781291fd7c80001bb1fad,62bbfa3900f3c6a4384df57b,2022-06-29_01h16.27.748,Colour_Asymmetry_Pilot,2022.1.3,Win32,59.89817311,62bbe60bf3d75ef465d3e404,,,,,,,,,,,,,,,,,,,,,,,,,,,,,,,,,,,,,,,,,,,,,,,,,,,,,,,,,,,,,,,,,,,,,,,,,,,,,,,,,,,,,,,,,,,,,,,,,,,,,,,,,,,,,,,,,,,,,,,,,,,,,,,,,,,,,,,,,,,,,,,,,,,,,,,,,,,,,,
0,7,7,65,1,,5bd781291fd7c80001bb1fad,62bbfa3900f3c6a4384df57b,2022-06-29_01h16.27.748,Colour_Asymmetry_Pilot,2022.1.3,Win32,59.89817311,62bbe60bf3d75ef465d3e404,,,,,,,,,,,,,,,,,,,,,,,,,,,,,,,,,,,,,,,,,,,,,,,,,,,,,,,,,,,,,,,,,,,,,,,,,,,,,,,,,,,,,,,,,,,,,,,,,,,,,,,,,,,,,,,,,,,,,,,,,,,,,,,,,,,,,,,,,,,,,,,,,,,,,,,,,,,,,,
0,8,8,69,1,,5bd781291fd7c80001bb1fad,62bbfa3900f3c6a4384df57b,2022-06-29_01h16.27.748,Colour_Asymmetry_Pilot,2022.1.3,Win32,59.89817311,62bbe60bf3d75ef465d3e404,,,,,,,,,,,,,,,,,,,,,,,,,,,,,,,,,,,,,,,,,,,,,,,,,,,,,,,,,,,,,,,,,,,,,,,,,,,,,,,,,,,,,,,,,,,,,,,,,,,,,,,,,,,,,,,,,,,,,,,,,,,,,,,,,,,,,,,,,,,,,,,,,,,,,,,,,,,,,,
0,9,9,60,1,,5bd781291fd7c80001bb1fad,62bbfa3900f3c6a4384df57b,2022-06-29_01h16.27.748,Colour_Asymmetry_Pilot,2022.1.3,Win32,59.89817311,62bbe60bf3d75ef465d3e404,,,,,,,,,,,,,,,,,,,,,,,,,,,,,,,,,,,,,,,,,,,,,,,,,,,,,,,,,,,,,,,,,,,,,,,,,,,,,,,,,,,,,,,,,,,,,,,,,,,,,,,,,,,,,,,,,,,,,,,,,,,,,,,,,,,,,,,,,,,,,,,,,,,,,,,,,,,,,,
0,10,10,49,1,,5bd781291fd7c80001bb1fad,62bbfa3900f3c6a4384df57b,2022-06-29_01h16.27.748,Colour_Asymmetry_Pilot,2022.1.3,Win32,59.89817311,62bbe60bf3d75ef465d3e404,,,,,,,,,,,,,,,,,,,,,,,,,,,,,,,,,,,,,,,,,,,,,,,,,,,,,,,,,,,,,,,,,,,,,,,,,,,,,,,,,,,,,,,,,,,,,,,,,,,,,,,,,,,,,,,,,,,,,,,,,,,,,,,,,,,,,,,,,,,,,,,,,,,,,,,,,,,,,,
0,11,11,26,1,,5bd781291fd7c80001bb1fad,62bbfa3900f3c6a4384df57b,2022-06-29_01h16.27.748,Colour_Asymmetry_Pilot,2022.1.3,Win32,59.89817311,62bbe60bf3d75ef465d3e404,,,,,,,,,,,,,,,,,,,,,,,,,,,,,,,,,,,,,,,,,,,,,,,,,,,,,,,,,,,,,,,,,,,,,,,,,,,,,,,,,,,,,,,,,,,,,,,,,,,,,,,,,,,,,,,,,,,,,,,,,,,,,,,,,,,,,,,,,,,,,,,,,,,,,,,,,,,,,,
0,12,12,91,1,,5bd781291fd7c80001bb1fad,62bbfa3900f3c6a4384df57b,2022-06-29_01h16.27.748,Colour_Asymmetry_Pilot,2022.1.3,Win32,59.89817311,62bbe60bf3d75ef465d3e404,,,,,,,,,,,,,,,,,,,,,,,,,,,,,,,,,,,,,,,,,,,,,,,,,,,,,,,,,,,,,,,,,,,,,,,,,,,,,,,,,,,,,,,,,,,,,,,,,,,,,,,,,,,,,,,,,,,,,,,,,,,,,,,,,,,,,,,,,,,,,,,,,,,,,,,,,,,,,,
0,13,13,50,1,,5bd781291fd7c80001bb1fad,62bbfa3900f3c6a4384df57b,2022-06-29_01h16.27.748,Colour_Asymmetry_Pilot,2022.1.3,Win32,59.89817311,62bbe60bf3d75ef465d3e404,,,,,,,,,,,,,,,,,,,,,,,,,,,,,,,,,,,,,,,,,,,,,,,,,,,,,,,,,,,,,,,,,,,,,,,,,,,,,,,,,,,,,,,,,,,,,,,,,,,,,,,,,,,,,,,,,,,,,,,,,,,,,,,,,,,,,,,,,,,,,,,,,,,,,,,,,,,,,,
0,14,14,84,1,,5bd781291fd7c80001bb1fad,62bbfa3900f3c6a4384df57b,2022-06-29_01h16.27.748,Colour_Asymmetry_Pilot,2022.1.3,Win32,59.89817311,62bbe60bf3d75ef465d3e404,,,,,,,,,,,,,,,,,,,,,,,,,,,,,,,,,,,,,,,,,,,,,,,,,,,,,,,,,,,,,,,,,,,,,,,,,,,,,,,,,,,,,,,,,,,,,,,,,,,,,,,,,,,,,,,,,,,,,,,,,,,,,,,,,,,,,,,,,,,,,,,,,,,,,,,,,,,,,,
0,15,15,61,1,,5bd781291fd7c80001bb1fad,62bbfa3900f3c6a4384df57b,2022-06-29_01h16.27.748,Colour_Asymmetry_Pilot,2022.1.3,Win32,59.89817311,62bbe60bf3d75ef465d3e404,,,,,,,,,,,,,,,,,,,,,,,,,,,,,,,,,,,,,,,,,,,,,,,,,,,,,,,,,,,,,,,,,,,,,,,,,,,,,,,,,,,,,,,,,,,,,,,,,,,,,,,,,,,,,,,,,,,,,,,,,,,,,,,,,,,,,,,,,,,,,,,,,,,,,,,,,,,,,,
0,16,16,3,1,,5bd781291fd7c80001bb1fad,62bbfa3900f3c6a4384df57b,2022-06-29_01h16.27.748,Colour_Asymmetry_Pilot,2022.1.3,Win32,59.89817311,62bbe60bf3d75ef465d3e404,,,,,,,,,,,,,,,,,,,,,,,,,,,,,,,,,,,,,,,,,,,,,,,,,,,,,,,,,,,,,,,,,,,,,,,,,,,,,,,,,,,,,,,,,,,,,,,,,,,,,,,,,,,,,,,,,,,,,,,,,,,,,,,,,,,,,,,,,,,,,,,,,,,,,,,,,,,,,,
0,17,17,46,1,,5bd781291fd7c80001bb1fad,62bbfa3900f3c6a4384df57b,2022-06-29_01h16.27.748,Colour_Asymmetry_Pilot,2022.1.3,Win32,59.89817311,62bbe60bf3d75ef465d3e404,,,,,,,,,,,,,,,,,,,,,,,,,,,,,,,,,,,,,,,,,,,,,,,,,,,,,,,,,,,,,,,,,,,,,,,,,,,,,,,,,,,,,,,,,,,,,,,,,,,,,,,,,,,,,,,,,,,,,,,,,,,,,,,,,,,,,,,,,,,,,,,,,,,,,,,,,,,,,,
0,18,18,63,1,,5bd781291fd7c80001bb1fad,62bbfa3900f3c6a4384df57b,2022-06-29_01h16.27.748,Colour_Asymmetry_Pilot,2022.1.3,Win32,59.89817311,62bbe60bf3d75ef465d3e404,,,,,,,,,,,,,,,,,,,,,,,,,,,,,,,,,,,,,,,,,,,,,,,,,,,,,,,,,,,,,,,,,,,,,,,,,,,,,,,,,,,,,,,,,,,,,,,,,,,,,,,,,,,,,,,,,,,,,,,,,,,,,,,,,,,,,,,,,,,,,,,,,,,,,,,,,,,,,,
0,19,19,2,1,,5bd781291fd7c80001bb1fad,62bbfa3900f3c6a4384df57b,2022-06-29_01h16.27.748,Colour_Asymmetry_Pilot,2022.1.3,Win32,59.89817311,62bbe60bf3d75ef465d3e404,,,,,,,,,,,,,,,,,,,,,,,,,,,,,,,,,,,,,,,,,,,,,,,,,,,,,,,,,,,,,,,,,,,,,,,,,,,,,,,,,,,,,,,,,,,,,,,,,,,,,,,,,,,,,,,,,,,,,,,,,,,,,,,,,,,,,,,,,,,,,,,,,,,,,,,,,,,,,,
0,20,20,56,1,,5bd781291fd7c80001bb1fad,62bbfa3900f3c6a4384df57b,2022-06-29_01h16.27.748,Colour_Asymmetry_Pilot,2022.1.3,Win32,59.89817311,62bbe60bf3d75ef465d3e404,,,,,,,,,,,,,,,,,,,,,,,,,,,,,,,,,,,,,,,,,,,,,,,,,,,,,,,,,,,,,,,,,,,,,,,,,,,,,,,,,,,,,,,,,,,,,,,,,,,,,,,,,,,,,,,,,,,,,,,,,,,,,,,,,,,,,,,,,,,,,,,,,,,,,,,,,,,,,,
0,21,21,43,1,,5bd781291fd7c80001bb1fad,62bbfa3900f3c6a4384df57b,2022-06-29_01h16.27.748,Colour_Asymmetry_Pilot,2022.1.3,Win32,59.89817311,62bbe60bf3d75ef465d3e404,,,,,,,,,,,,,,,,,,,,,,,,,,,,,,,,,,,,,,,,,,,,,,,,,,,,,,,,,,,,,,,,,,,,,,,,,,,,,,,,,,,,,,,,,,,,,,,,,,,,,,,,,,,,,,,,,,,,,,,,,,,,,,,,,,,,,,,,,,,,,,,,,,,,,,,,,,,,,,
0,22,22,48,1,,5bd781291fd7c80001bb1fad,62bbfa3900f3c6a4384df57b,2022-06-29_01h16.27.748,Colour_Asymmetry_Pilot,2022.1.3,Win32,59.89817311,62bbe60bf3d75ef465d3e404,,,,,,,,,,,,,,,,,,,,,,,,,,,,,,,,,,,,,,,,,,,,,,,,,,,,,,,,,,,,,,,,,,,,,,,,,,,,,,,,,,,,,,,,,,,,,,,,,,,,,,,,,,,,,,,,,,,,,,,,,,,,,,,,,,,,,,,,,,,,,,,,,,,,,,,,,,,,,,
0,23,23,21,1,,5bd781291fd7c80001bb1fad,62bbfa3900f3c6a4384df57b,2022-06-29_01h16.27.748,Colour_Asymmetry_Pilot,2022.1.3,Win32,59.89817311,62bbe60bf3d75ef465d3e404,,,,,,,,,,,,,,,,,,,,,,,,,,,,,,,,,,,,,,,,,,,,,,,,,,,,,,,,,,,,,,,,,,,,,,,,,,,,,,,,,,,,,,,,,,,,,,,,,,,,,,,,,,,,,,,,,,,,,,,,,,,,,,,,,,,,,,,,,,,,,,,,,,,,,,,,,,,,,,
0,24,24,62,1,,5bd781291fd7c80001bb1fad,62bbfa3900f3c6a4384df57b,2022-06-29_01h16.27.748,Colour_Asymmetry_Pilot,2022.1.3,Win32,59.89817311,62bbe60bf3d75ef465d3e404,,,,,,,,,,,,,,,,,,,,,,,,,,,,,,,,,,,,,,,,,,,,,,,,,,,,,,,,,,,,,,,,,,,,,,,,,,,,,,,,,,,,,,,,,,,,,,,,,,,,,,,,,,,,,,,,,,,,,,,,,,,,,,,,,,,,,,,,,,,,,,,,,,,,,,,,,,,,,,
0,25,25,66,1,,5bd781291fd7c80001bb1fad,62bbfa3900f3c6a4384df57b,2022-06-29_01h16.27.748,Colour_Asymmetry_Pilot,2022.1.3,Win32,59.89817311,62bbe60bf3d75ef465d3e404,,,,,,,,,,,,,,,,,,,,,,,,,,,,,,,,,,,,,,,,,,,,,,,,,,,,,,,,,,,,,,,,,,,,,,,,,,,,,,,,,,,,,,,,,,,,,,,,,,,,,,,,,,,,,,,,,,,,,,,,,,,,,,,,,,,,,,,,,,,,,,,,,,,,,,,,,,,,,,
0,26,26,22,1,,5bd781291fd7c80001bb1fad,62bbfa3900f3c6a4384df57b,2022-06-29_01h16.27.748,Colour_Asymmetry_Pilot,2022.1.3,Win32,59.89817311,62bbe60bf3d75ef465d3e404,,,,,,,,,,,,,,,,,,,,,,,,,,,,,,,,,,,,,,,,,,,,,,,,,,,,,,,,,,,,,,,,,,,,,,,,,,,,,,,,,,,,,,,,,,,,,,,,,,,,,,,,,,,,,,,,,,,,,,,,,,,,,,,,,,,,,,,,,,,,,,,,,,,,,,,,,,,,,,
0,27,27,7,1,,5bd781291fd7c80001bb1fad,62bbfa3900f3c6a4384df57b,2022-06-29_01h16.27.748,Colour_Asymmetry_Pilot,2022.1.3,Win32,59.89817311,62bbe60bf3d75ef465d3e404,,,,,,,,,,,,,,,,,,,,,,,,,,,,,,,,,,,,,,,,,,,,,,,,,,,,,,,,,,,,,,,,,,,,,,,,,,,,,,,,,,,,,,,,,,,,,,,,,,,,,,,,,,,,,,,,,,,,,,,,,,,,,,,,,,,,,,,,,,,,,,,,,,,,,,,,,,,,,,
0,28,28,80,1,,5bd781291fd7c80001bb1fad,62bbfa3900f3c6a4384df57b,2022-06-29_01h16.27.748,Colour_Asymmetry_Pilot,2022.1.3,Win32,59.89817311,62bbe60bf3d75ef465d3e404,,,,,,,,,,,,,,,,,,,,,,,,,,,,,,,,,,,,,,,,,,,,,,,,,,,,,,,,,,,,,,,,,,,,,,,,,,,,,,,,,,,,,,,,,,,,,,,,,,,,,,,,,,,,,,,,,,,,,,,,,,,,,,,,,,,,,,,,,,,,,,,,,,,,,,,,,,,,,,
0,29,29,4,1,,5bd781291fd7c80001bb1fad,62bbfa3900f3c6a4384df57b,2022-06-29_01h16.27.748,Colour_Asymmetry_Pilot,2022.1.3,Win32,59.89817311,62bbe60bf3d75ef465d3e404,,,,,,,,,,,,,,,,,,,,,,,,,,,,,,,,,,,,,,,,,,,,,,,,,,,,,,,,,,,,,,,,,,,,,,,,,,,,,,,,,,,,,,,,,,,,,,,,,,,,,,,,,,,,,,,,,,,,,,,,,,,,,,,,,,,,,,,,,,,,,,,,,,,,,,,,,,,,,,
0,30,30,42,1,,5bd781291fd7c80001bb1fad,62bbfa3900f3c6a4384df57b,2022-06-29_01h16.27.748,Colour_Asymmetry_Pilot,2022.1.3,Win32,59.89817311,62bbe60bf3d75ef465d3e404,,,,,,,,,,,,,,,,,,,,,,,,,,,,,,,,,,,,,,,,,,,,,,,,,,,,,,,,,,,,,,,,,,,,,,,,,,,,,,,,,,,,,,,,,,,,,,,,,,,,,,,,,,,,,,,,,,,,,,,,,,,,,,,,,,,,,,,,,,,,,,,,,,,,,,,,,,,,,,
0,31,31,45,1,,5bd781291fd7c80001bb1fad,62bbfa3900f3c6a4384df57b,2022-06-29_01h16.27.748,Colour_Asymmetry_Pilot,2022.1.3,Win32,59.89817311,62bbe60bf3d75ef465d3e404,,,,,,,,,,,,,,,,,,,,,,,,,,,,,,,,,,,,,,,,,,,,,,,,,,,,,,,,,,,,,,,,,,,,,,,,,,,,,,,,,,,,,,,,,,,,,,,,,,,,,,,,,,,,,,,,,,,,,,,,,,,,,,,,,,,,,,,,,,,,,,,,,,,,,,,,,,,,,,
0,32,32,81,1,,5bd781291fd7c80001bb1fad,62bbfa3900f3c6a4384df57b,2022-06-29_01h16.27.748,Colour_Asymmetry_Pilot,2022.1.3,Win32,59.89817311,62bbe60bf3d75ef465d3e404,,,,,,,,,,,,,,,,,,,,,,,,,,,,,,,,,,,,,,,,,,,,,,,,,,,,,,,,,,,,,,,,,,,,,,,,,,,,,,,,,,,,,,,,,,,,,,,,,,,,,,,,,,,,,,,,,,,,,,,,,,,,,,,,,,,,,,,,,,,,,,,,,,,,,,,,,,,,,,
0,33,33,57,1,,5bd781291fd7c80001bb1fad,62bbfa3900f3c6a4384df57b,2022-06-29_01h16.27.748,Colour_Asymmetry_Pilot,2022.1.3,Win32,59.89817311,62bbe60bf3d75ef465d3e404,,,,,,,,,,,,,,,,,,,,,,,,,,,,,,,,,,,,,,,,,,,,,,,,,,,,,,,,,,,,,,,,,,,,,,,,,,,,,,,,,,,,,,,,,,,,,,,,,,,,,,,,,,,,,,,,,,,,,,,,,,,,,,,,,,,,,,,,,,,,,,,,,,,,,,,,,,,,,,
0,34,34,11,1,,5bd781291fd7c80001bb1fad,62bbfa3900f3c6a4384df57b,2022-06-29_01h16.27.748,Colour_Asymmetry_Pilot,2022.1.3,Win32,59.89817311,62bbe60bf3d75ef465d3e404,,,,,,,,,,,,,,,,,,,,,,,,,,,,,,,,,,,,,,,,,,,,,,,,,,,,,,,,,,,,,,,,,,,,,,,,,,,,,,,,,,,,,,,,,,,,,,,,,,,,,,,,,,,,,,,,,,,,,,,,,,,,,,,,,,,,,,,,,,,,,,,,,,,,,,,,,,,,,,
0,35,35,79,1,,5bd781291fd7c80001bb1fad,62bbfa3900f3c6a4384df57b,2022-06-29_01h16.27.748,Colour_Asymmetry_Pilot,2022.1.3,Win32,59.89817311,62bbe60bf3d75ef465d3e404,,,,,,,,,,,,,,,,,,,,,,,,,,,,,,,,,,,,,,,,,,,,,,,,,,,,,,,,,,,,,,,,,,,,,,,,,,,,,,,,,,,,,,,,,,,,,,,,,,,,,,,,,,,,,,,,,,,,,,,,,,,,,,,,,,,,,,,,,,,,,,,,,,,,,,,,,,,,,,
0,36,36,0,1,,5bd781291fd7c80001bb1fad,62bbfa3900f3c6a4384df57b,2022-06-29_01h16.27.748,Colour_Asymmetry_Pilot,2022.1.3,Win32,59.89817311,62bbe60bf3d75ef465d3e404,,,,,,,,,,,,,,,,,,,,,,,,,,,,,,,,,,,,,,,,,,,,,,,,,,,,,,,,,,,,,,,,,,,,,,,,,,,,,,,,,,,,,,,,,,,,,,,,,,,,,,,,,,,,,,,,,,,,,,,,,,,,,,,,,,,,,,,,,,,,,,,,,,,,,,,,,,,,,,
0,37,37,52,1,,5bd781291fd7c80001bb1fad,62bbfa3900f3c6a4384df57b,2022-06-29_01h16.27.748,Colour_Asymmetry_Pilot,2022.1.3,Win32,59.89817311,62bbe60bf3d75ef465d3e404,,,,,,,,,,,,,,,,,,,,,,,,,,,,,,,,,,,,,,,,,,,,,,,,,,,,,,,,,,,,,,,,,,,,,,,,,,,,,,,,,,,,,,,,,,,,,,,,,,,,,,,,,,,,,,,,,,,,,,,,,,,,,,,,,,,,,,,,,,,,,,,,,,,,,,,,,,,,,,
0,38,38,68,1,,5bd781291fd7c80001bb1fad,62bbfa3900f3c6a4384df57b,2022-06-29_01h16.27.748,Colour_Asymmetry_Pilot,2022.1.3,Win32,59.89817311,62bbe60bf3d75ef465d3e404,,,,,,,,,,,,,,,,,,,,,,,,,,,,,,,,,,,,,,,,,,,,,,,,,,,,,,,,,,,,,,,,,,,,,,,,,,,,,,,,,,,,,,,,,,,,,,,,,,,,,,,,,,,,,,,,,,,,,,,,,,,,,,,,,,,,,,,,,,,,,,,,,,,,,,,,,,,,,,
0,39,39,9,1,,5bd781291fd7c80001bb1fad,62bbfa3900f3c6a4384df57b,2022-06-29_01h16.27.748,Colour_Asymmetry_Pilot,2022.1.3,Win32,59.89817311,62bbe60bf3d75ef465d3e404,,,,,,,,,,,,,,,,,,,,,,,,,,,,,,,,,,,,,,,,,,,,,,,,,,,,,,,,,,,,,,,,,,,,,,,,,,,,,,,,,,,,,,,,,,,,,,,,,,,,,,,,,,,,,,,,,,,,,,,,,,,,,,,,,,,,,,,,,,,,,,,,,,,,,,,,,,,,,,
0,40,40,86,1,,5bd781291fd7c80001bb1fad,62bbfa3900f3c6a4384df57b,2022-06-29_01h16.27.748,Colour_Asymmetry_Pilot,2022.1.3,Win32,59.89817311,62bbe60bf3d75ef465d3e404,,,,,,,,,,,,,,,,,,,,,,,,,,,,,,,,,,,,,,,,,,,,,,,,,,,,,,,,,,,,,,,,,,,,,,,,,,,,,,,,,,,,,,,,,,,,,,,,,,,,,,,,,,,,,,,,,,,,,,,,,,,,,,,,,,,,,,,,,,,,,,,,,,,,,,,,,,,,,,
0,41,41,39,1,,5bd781291fd7c80001bb1fad,62bbfa3900f3c6a4384df57b,2022-06-29_01h16.27.748,Colour_Asymmetry_Pilot,2022.1.3,Win32,59.89817311,62bbe60bf3d75ef465d3e404,,,,,,,,,,,,,,,,,,,,,,,,,,,,,,,,,,,,,,,,,,,,,,,,,,,,,,,,,,,,,,,,,,,,,,,,,,,,,,,,,,,,,,,,,,,,,,,,,,,,,,,,,,,,,,,,,,,,,,,,,,,,,,,,,,,,,,,,,,,,,,,,,,,,,,,,,,,,,,
0,42,42,67,1,,5bd781291fd7c80001bb1fad,62bbfa3900f3c6a4384df57b,2022-06-29_01h16.27.748,Colour_Asymmetry_Pilot,2022.1.3,Win32,59.89817311,62bbe60bf3d75ef465d3e404,,,,,,,,,,,,,,,,,,,,,,,,,,,,,,,,,,,,,,,,,,,,,,,,,,,,,,,,,,,,,,,,,,,,,,,,,,,,,,,,,,,,,,,,,,,,,,,,,,,,,,,,,,,,,,,,,,,,,,,,,,,,,,,,,,,,,,,,,,,,,,,,,,,,,,,,,,,,,,
0,43,43,38,1,,5bd781291fd7c80001bb1fad,62bbfa3900f3c6a4384df57b,2022-06-29_01h16.27.748,Colour_Asymmetry_Pilot,2022.1.3,Win32,59.89817311,62bbe60bf3d75ef465d3e404,,,,,,,,,,,,,,,,,,,,,,,,,,,,,,,,,,,,,,,,,,,,,,,,,,,,,,,,,,,,,,,,,,,,,,,,,,,,,,,,,,,,,,,,,,,,,,,,,,,,,,,,,,,,,,,,,,,,,,,,,,,,,,,,,,,,,,,,,,,,,,,,,,,,,,,,,,,,,,
0,44,44,25,1,,5bd781291fd7c80001bb1fad,62bbfa3900f3c6a4384df57b,2022-06-29_01h16.27.748,Colour_Asymmetry_Pilot,2022.1.3,Win32,59.89817311,62bbe60bf3d75ef465d3e404,,,,,,,,,,,,,,,,,,,,,,,,,,,,,,,,,,,,,,,,,,,,,,,,,,,,,,,,,,,,,,,,,,,,,,,,,,,,,,,,,,,,,,,,,,,,,,,,,,,,,,,,,,,,,,,,,,,,,,,,,,,,,,,,,,,,,,,,,,,,,,,,,,,,,,,,,,,,,,
0,45,45,88,1,,5bd781291fd7c80001bb1fad,62bbfa3900f3c6a4384df57b,2022-06-29_01h16.27.748,Colour_Asymmetry_Pilot,2022.1.3,Win32,59.89817311,62bbe60bf3d75ef465d3e404,,,,,,,,,,,,,,,,,,,,,,,,,,,,,,,,,,,,,,,,,,,,,,,,,,,,,,,,,,,,,,,,,,,,,,,,,,,,,,,,,,,,,,,,,,,,,,,,,,,,,,,,,,,,,,,,,,,,,,,,,,,,,,,,,,,,,,,,,,,,,,,,,,,,,,,,,,,,,,
0,46,46,20,1,,5bd781291fd7c80001bb1fad,62bbfa3900f3c6a4384df57b,2022-06-29_01h16.27.748,Colour_Asymmetry_Pilot,2022.1.3,Win32,59.89817311,62bbe60bf3d75ef465d3e404,,,,,,,,,,,,,,,,,,,,,,,,,,,,,,,,,,,,,,,,,,,,,,,,,,,,,,,,,,,,,,,,,,,,,,,,,,,,,,,,,,,,,,,,,,,,,,,,,,,,,,,,,,,,,,,,,,,,,,,,,,,,,,,,,,,,,,,,,,,,,,,,,,,,,,,,,,,,,,
0,47,47,76,1,,5bd781291fd7c80001bb1fad,62bbfa3900f3c6a4384df57b,2022-06-29_01h16.27.748,Colour_Asymmetry_Pilot,2022.1.3,Win32,59.89817311,62bbe60bf3d75ef465d3e404,,,,,,,,,,,,,,,,,,,,,,,,,,,,,,,,,,,,,,,,,,,,,,,,,,,,,,,,,,,,,,,,,,,,,,,,,,,,,,,,,,,,,,,,,,,,,,,,,,,,,,,,,,,,,,,,,,,,,,,,,,,,,,,,,,,,,,,,,,,,,,,,,,,,,,,,,,,,,,
0,48,48,5,1,,5bd781291fd7c80001bb1fad,62bbfa3900f3c6a4384df57b,2022-06-29_01h16.27.748,Colour_Asymmetry_Pilot,2022.1.3,Win32,59.89817311,62bbe60bf3d75ef465d3e404,,,,,,,,,,,,,,,,,,,,,,,,,,,,,,,,,,,,,,,,,,,,,,,,,,,,,,,,,,,,,,,,,,,,,,,,,,,,,,,,,,,,,,,,,,,,,,,,,,,,,,,,,,,,,,,,,,,,,,,,,,,,,,,,,,,,,,,,,,,,,,,,,,,,,,,,,,,,,,
0,49,49,16,1,,5bd781291fd7c80001bb1fad,62bbfa3900f3c6a4384df57b,2022-06-29_01h16.27.748,Colour_Asymmetry_Pilot,2022.1.3,Win32,59.89817311,62bbe60bf3d75ef465d3e404,,,,,,,,,,,,,,,,,,,,,,,,,,,,,,,,,,,,,,,,,,,,,,,,,,,,,,,,,,,,,,,,,,,,,,,,,,,,,,,,,,,,,,,,,,,,,,,,,,,,,,,,,,,,,,,,,,,,,,,,,,,,,,,,,,,,,,,,,,,,,,,,,,,,,,,,,,,,,,
0,50,50,8,1,,5bd781291fd7c80001bb1fad,62bbfa3900f3c6a4384df57b,2022-06-29_01h16.27.748,Colour_Asymmetry_Pilot,2022.1.3,Win32,59.89817311,62bbe60bf3d75ef465d3e404,,,,,,,,,,,,,,,,,,,,,,,,,,,,,,,,,,,,,,,,,,,,,,,,,,,,,,,,,,,,,,,,,,,,,,,,,,,,,,,,,,,,,,,,,,,,,,,,,,,,,,,,,,,,,,,,,,,,,,,,,,,,,,,,,,,,,,,,,,,,,,,,,,,,,,,,,,,,,,
0,51,51,71,1,,5bd781291fd7c80001bb1fad,62bbfa3900f3c6a4384df57b,2022-06-29_01h16.27.748,Colour_Asymmetry_Pilot,2022.1.3,Win32,59.89817311,62bbe60bf3d75ef465d3e404,,,,,,,,,,,,,,,,,,,,,,,,,,,,,,,,,,,,,,,,,,,,,,,,,,,,,,,,,,,,,,,,,,,,,,,,,,,,,,,,,,,,,,,,,,,,,,,,,,,,,,,,,,,,,,,,,,,,,,,,,,,,,,,,,,,,,,,,,,,,,,,,,,,,,,,,,,,,,,
0,52,52,70,1,,5bd781291fd7c80001bb1fad,62bbfa3900f3c6a4384df57b,2022-06-29_01h16.27.748,Colour_Asymmetry_Pilot,2022.1.3,Win32,59.89817311,62bbe60bf3d75ef465d3e404,,,,,,,,,,,,,,,,,,,,,,,,,,,,,,,,,,,,,,,,,,,,,,,,,,,,,,,,,,,,,,,,,,,,,,,,,,,,,,,,,,,,,,,,,,,,,,,,,,,,,,,,,,,,,,,,,,,,,,,,,,,,,,,,,,,,,,,,,,,,,,,,,,,,,,,,,,,,,,
0,53,53,87,1,,5bd781291fd7c80001bb1fad,62bbfa3900f3c6a4384df57b,2022-06-29_01h16.27.748,Colour_Asymmetry_Pilot,2022.1.3,Win32,59.89817311,62bbe60bf3d75ef465d3e404,,,,,,,,,,,,,,,,,,,,,,,,,,,,,,,,,,,,,,,,,,,,,,,,,,,,,,,,,,,,,,,,,,,,,,,,,,,,,,,,,,,,,,,,,,,,,,,,,,,,,,,,,,,,,,,,,,,,,,,,,,,,,,,,,,,,,,,,,,,,,,,,,,,,,,,,,,,,,,
0,54,54,77,1,,5bd781291fd7c80001bb1fad,62bbfa3900f3c6a4384df57b,2022-06-29_01h16.27.748,Colour_Asymmetry_Pilot,2022.1.3,Win32,59.89817311,62bbe60bf3d75ef465d3e404,,,,,,,,,,,,,,,,,,,,,,,,,,,,,,,,,,,,,,,,,,,,,,,,,,,,,,,,,,,,,,,,,,,,,,,,,,,,,,,,,,,,,,,,,,,,,,,,,,,,,,,,,,,,,,,,,,,,,,,,,,,,,,,,,,,,,,,,,,,,,,,,,,,,,,,,,,,,,,
0,55,55,13,1,,5bd781291fd7c80001bb1fad,62bbfa3900f3c6a4384df57b,2022-06-29_01h16.27.748,Colour_Asymmetry_Pilot,2022.1.3,Win32,59.89817311,62bbe60bf3d75ef465d3e404,,,,,,,,,,,,,,,,,,,,,,,,,,,,,,,,,,,,,,,,,,,,,,,,,,,,,,,,,,,,,,,,,,,,,,,,,,,,,,,,,,,,,,,,,,,,,,,,,,,,,,,,,,,,,,,,,,,,,,,,,,,,,,,,,,,,,,,,,,,,,,,,,,,,,,,,,,,,,,
0,56,56,30,1,,5bd781291fd7c80001bb1fad,62bbfa3900f3c6a4384df57b,2022-06-29_01h16.27.748,Colour_Asymmetry_Pilot,2022.1.3,Win32,59.89817311,62bbe60bf3d75ef465d3e404,,,,,,,,,,,,,,,,,,,,,,,,,,,,,,,,,,,,,,,,,,,,,,,,,,,,,,,,,,,,,,,,,,,,,,,,,,,,,,,,,,,,,,,,,,,,,,,,,,,,,,,,,,,,,,,,,,,,,,,,,,,,,,,,,,,,,,,,,,,,,,,,,,,,,,,,,,,,,,
0,57,57,78,1,,5bd781291fd7c80001bb1fad,62bbfa3900f3c6a4384df57b,2022-06-29_01h16.27.748,Colour_Asymmetry_Pilot,2022.1.3,Win32,59.89817311,62bbe60bf3d75ef465d3e404,,,,,,,,,,,,,,,,,,,,,,,,,,,,,,,,,,,,,,,,,,,,,,,,,,,,,,,,,,,,,,,,,,,,,,,,,,,,,,,,,,,,,,,,,,,,,,,,,,,,,,,,,,,,,,,,,,,,,,,,,,,,,,,,,,,,,,,,,,,,,,,,,,,,,,,,,,,,,,
0,58,58,83,1,,5bd781291fd7c80001bb1fad,62bbfa3900f3c6a4384df57b,2022-06-29_01h16.27.748,Colour_Asymmetry_Pilot,2022.1.3,Win32,59.89817311,62bbe60bf3d75ef465d3e404,,,,,,,,,,,,,,,,,,,,,,,,,,,,,,,,,,,,,,,,,,,,,,,,,,,,,,,,,,,,,,,,,,,,,,,,,,,,,,,,,,,,,,,,,,,,,,,,,,,,,,,,,,,,,,,,,,,,,,,,,,,,,,,,,,,,,,,,,,,,,,,,,,,,,,,,,,,,,,
0,59,59,89,1,,5bd781291fd7c80001bb1fad,62bbfa3900f3c6a4384df57b,2022-06-29_01h16.27.748,Colour_Asymmetry_Pilot,2022.1.3,Win32,59.89817311,62bbe60bf3d75ef465d3e404,,,,,,,,,,,,,,,,,,,,,,,,,,,,,,,,,,,,,,,,,,,,,,,,,,,,,,,,,,,,,,,,,,,,,,,,,,,,,,,,,,,,,,,,,,,,,,,,,,,,,,,,,,,,,,,,,,,,,,,,,,,,,,,,,,,,,,,,,,,,,,,,,,,,,,,,,,,,,,
0,60,60,41,1,,5bd781291fd7c80001bb1fad,62bbfa3900f3c6a4384df57b,2022-06-29_01h16.27.748,Colour_Asymmetry_Pilot,2022.1.3,Win32,59.89817311,62bbe60bf3d75ef465d3e404,,,,,,,,,,,,,,,,,,,,,,,,,,,,,,,,,,,,,,,,,,,,,,,,,,,,,,,,,,,,,,,,,,,,,,,,,,,,,,,,,,,,,,,,,,,,,,,,,,,,,,,,,,,,,,,,,,,,,,,,,,,,,,,,,,,,,,,,,,,,,,,,,,,,,,,,,,,,,,
0,61,61,82,1,,5bd781291fd7c80001bb1fad,62bbfa3900f3c6a4384df57b,2022-06-29_01h16.27.748,Colour_Asymmetry_Pilot,2022.1.3,Win32,59.89817311,62bbe60bf3d75ef465d3e404,,,,,,,,,,,,,,,,,,,,,,,,,,,,,,,,,,,,,,,,,,,,,,,,,,,,,,,,,,,,,,,,,,,,,,,,,,,,,,,,,,,,,,,,,,,,,,,,,,,,,,,,,,,,,,,,,,,,,,,,,,,,,,,,,,,,,,,,,,,,,,,,,,,,,,,,,,,,,,
0,62,62,74,1,,5bd781291fd7c80001bb1fad,62bbfa3900f3c6a4384df57b,2022-06-29_01h16.27.748,Colour_Asymmetry_Pilot,2022.1.3,Win32,59.89817311,62bbe60bf3d75ef465d3e404,,,,,,,,,,,,,,,,,,,,,,,,,,,,,,,,,,,,,,,,,,,,,,,,,,,,,,,,,,,,,,,,,,,,,,,,,,,,,,,,,,,,,,,,,,,,,,,,,,,,,,,,,,,,,,,,,,,,,,,,,,,,,,,,,,,,,,,,,,,,,,,,,,,,,,,,,,,,,,
0,63,63,15,1,,5bd781291fd7c80001bb1fad,62bbfa3900f3c6a4384df57b,2022-06-29_01h16.27.748,Colour_Asymmetry_Pilot,2022.1.3,Win32,59.89817311,62bbe60bf3d75ef465d3e404,,,,,,,,,,,,,,,,,,,,,,,,,,,,,,,,,,,,,,,,,,,,,,,,,,,,,,,,,,,,,,,,,,,,,,,,,,,,,,,,,,,,,,,,,,,,,,,,,,,,,,,,,,,,,,,,,,,,,,,,,,,,,,,,,,,,,,,,,,,,,,,,,,,,,,,,,,,,,,
0,64,64,55,1,,5bd781291fd7c80001bb1fad,62bbfa3900f3c6a4384df57b,2022-06-29_01h16.27.748,Colour_Asymmetry_Pilot,2022.1.3,Win32,59.89817311,62bbe60bf3d75ef465d3e404,,,,,,,,,,,,,,,,,,,,,,,,,,,,,,,,,,,,,,,,,,,,,,,,,,,,,,,,,,,,,,,,,,,,,,,,,,,,,,,,,,,,,,,,,,,,,,,,,,,,,,,,,,,,,,,,,,,,,,,,,,,,,,,,,,,,,,,,,,,,,,,,,,,,,,,,,,,,,,
0,65,65,44,1,,5bd781291fd7c80001bb1fad,62bbfa3900f3c6a4384df57b,2022-06-29_01h16.27.748,Colour_Asymmetry_Pilot,2022.1.3,Win32,59.89817311,62bbe60bf3d75ef465d3e404,,,,,,,,,,,,,,,,,,,,,,,,,,,,,,,,,,,,,,,,,,,,,,,,,,,,,,,,,,,,,,,,,,,,,,,,,,,,,,,,,,,,,,,,,,,,,,,,,,,,,,,,,,,,,,,,,,,,,,,,,,,,,,,,,,,,,,,,,,,,,,,,,,,,,,,,,,,,,,
0,66,66,1,1,,5bd781291fd7c80001bb1fad,62bbfa3900f3c6a4384df57b,2022-06-29_01h16.27.748,Colour_Asymmetry_Pilot,2022.1.3,Win32,59.89817311,62bbe60bf3d75ef465d3e404,,,,,,,,,,,,,,,,,,,,,,,,,,,,,,,,,,,,,,,,,,,,,,,,,,,,,,,,,,,,,,,,,,,,,,,,,,,,,,,,,,,,,,,,,,,,,,,,,,,,,,,,,,,,,,,,,,,,,,,,,,,,,,,,,,,,,,,,,,,,,,,,,,,,,,,,,,,,,,
0,67,67,12,1,,5bd781291fd7c80001bb1fad,62bbfa3900f3c6a4384df57b,2022-06-29_01h16.27.748,Colour_Asymmetry_Pilot,2022.1.3,Win32,59.89817311,62bbe60bf3d75ef465d3e404,,,,,,,,,,,,,,,,,,,,,,,,,,,,,,,,,,,,,,,,,,,,,,,,,,,,,,,,,,,,,,,,,,,,,,,,,,,,,,,,,,,,,,,,,,,,,,,,,,,,,,,,,,,,,,,,,,,,,,,,,,,,,,,,,,,,,,,,,,,,,,,,,,,,,,,,,,,,,,
0,68,68,64,1,,5bd781291fd7c80001bb1fad,62bbfa3900f3c6a4384df57b,2022-06-29_01h16.27.748,Colour_Asymmetry_Pilot,2022.1.3,Win32,59.89817311,62bbe60bf3d75ef465d3e404,,,,,,,,,,,,,,,,,,,,,,,,,,,,,,,,,,,,,,,,,,,,,,,,,,,,,,,,,,,,,,,,,,,,,,,,,,,,,,,,,,,,,,,,,,,,,,,,,,,,,,,,,,,,,,,,,,,,,,,,,,,,,,,,,,,,,,,,,,,,,,,,,,,,,,,,,,,,,,
0,69,69,18,1,,5bd781291fd7c80001bb1fad,62bbfa3900f3c6a4384df57b,2022-06-29_01h16.27.748,Colour_Asymmetry_Pilot,2022.1.3,Win32,59.89817311,62bbe60bf3d75ef465d3e404,,,,,,,,,,,,,,,,,,,,,,,,,,,,,,,,,,,,,,,,,,,,,,,,,,,,,,,,,,,,,,,,,,,,,,,,,,,,,,,,,,,,,,,,,,,,,,,,,,,,,,,,,,,,,,,,,,,,,,,,,,,,,,,,,,,,,,,,,,,,,,,,,,,,,,,,,,,,,,
0,70,70,73,1,,5bd781291fd7c80001bb1fad,62bbfa3900f3c6a4384df57b,2022-06-29_01h16.27.748,Colour_Asymmetry_Pilot,2022.1.3,Win32,59.89817311,62bbe60bf3d75ef465d3e404,,,,,,,,,,,,,,,,,,,,,,,,,,,,,,,,,,,,,,,,,,,,,,,,,,,,,,,,,,,,,,,,,,,,,,,,,,,,,,,,,,,,,,,,,,,,,,,,,,,,,,,,,,,,,,,,,,,,,,,,,,,,,,,,,,,,,,,,,,,,,,,,,,,,,,,,,,,,,,
0,71,71,59,1,,5bd781291fd7c80001bb1fad,62bbfa3900f3c6a4384df57b,2022-06-29_01h16.27.748,Colour_Asymmetry_Pilot,2022.1.3,Win32,59.89817311,62bbe60bf3d75ef465d3e404,,,,,,,,,,,,,,,,,,,,,,,,,,,,,,,,,,,,,,,,,,,,,,,,,,,,,,,,,,,,,,,,,,,,,,,,,,,,,,,,,,,,,,,,,,,,,,,,,,,,,,,,,,,,,,,,,,,,,,,,,,,,,,,,,,,,,,,,,,,,,,,,,,,,,,,,,,,,,,
0,72,72,40,1,,5bd781291fd7c80001bb1fad,62bbfa3900f3c6a4384df57b,2022-06-29_01h16.27.748,Colour_Asymmetry_Pilot,2022.1.3,Win32,59.89817311,62bbe60bf3d75ef465d3e404,,,,,,,,,,,,,,,,,,,,,,,,,,,,,,,,,,,,,,,,,,,,,,,,,,,,,,,,,,,,,,,,,,,,,,,,,,,,,,,,,,,,,,,,,,,,,,,,,,,,,,,,,,,,,,,,,,,,,,,,,,,,,,,,,,,,,,,,,,,,,,,,,,,,,,,,,,,,,,
0,73,73,28,1,,5bd781291fd7c80001bb1fad,62bbfa3900f3c6a4384df57b,2022-06-29_01h16.27.748,Colour_Asymmetry_Pilot,2022.1.3,Win32,59.89817311,62bbe60bf3d75ef465d3e404,,,,,,,,,,,,,,,,,,,,,,,,,,,,,,,,,,,,,,,,,,,,,,,,,,,,,,,,,,,,,,,,,,,,,,,,,,,,,,,,,,,,,,,,,,,,,,,,,,,,,,,,,,,,,,,,,,,,,,,,,,,,,,,,,,,,,,,,,,,,,,,,,,,,,,,,,,,,,,
0,74,74,19,1,,5bd781291fd7c80001bb1fad,62bbfa3900f3c6a4384df57b,2022-06-29_01h16.27.748,Colour_Asymmetry_Pilot,2022.1.3,Win32,59.89817311,62bbe60bf3d75ef465d3e404,,,,,,,,,,,,,,,,,,,,,,,,,,,,,,,,,,,,,,,,,,,,,,,,,,,,,,,,,,,,,,,,,,,,,,,,,,,,,,,,,,,,,,,,,,,,,,,,,,,,,,,,,,,,,,,,,,,,,,,,,,,,,,,,,,,,,,,,,,,,,,,,,,,,,,,,,,,,,,
0,75,75,10,1,,5bd781291fd7c80001bb1fad,62bbfa3900f3c6a4384df57b,2022-06-29_01h16.27.748,Colour_Asymmetry_Pilot,2022.1.3,Win32,59.89817311,62bbe60bf3d75ef465d3e404,,,,,,,,,,,,,,,,,,,,,,,,,,,,,,,,,,,,,,,,,,,,,,,,,,,,,,,,,,,,,,,,,,,,,,,,,,,,,,,,,,,,,,,,,,,,,,,,,,,,,,,,,,,,,,,,,,,,,,,,,,,,,,,,,,,,,,,,,,,,,,,,,,,,,,,,,,,,,,
0,76,76,53,1,,5bd781291fd7c80001bb1fad,62bbfa3900f3c6a4384df57b,2022-06-29_01h16.27.748,Colour_Asymmetry_Pilot,2022.1.3,Win32,59.89817311,62bbe60bf3d75ef465d3e404,,,,,,,,,,,,,,,,,,,,,,,,,,,,,,,,,,,,,,,,,,,,,,,,,,,,,,,,,,,,,,,,,,,,,,,,,,,,,,,,,,,,,,,,,,,,,,,,,,,,,,,,,,,,,,,,,,,,,,,,,,,,,,,,,,,,,,,,,,,,,,,,,,,,,,,,,,,,,,
0,77,77,17,1,,5bd781291fd7c80001bb1fad,62bbfa3900f3c6a4384df57b,2022-06-29_01h16.27.748,Colour_Asymmetry_Pilot,2022.1.3,Win32,59.89817311,62bbe60bf3d75ef465d3e404,,,,,,,,,,,,,,,,,,,,,,,,,,,,,,,,,,,,,,,,,,,,,,,,,,,,,,,,,,,,,,,,,,,,,,,,,,,,,,,,,,,,,,,,,,,,,,,,,,,,,,,,,,,,,,,,,,,,,,,,,,,,,,,,,,,,,,,,,,,,,,,,,,,,,,,,,,,,,,
0,78,78,33,1,,5bd781291fd7c80001bb1fad,62bbfa3900f3c6a4384df57b,2022-06-29_01h16.27.748,Colour_Asymmetry_Pilot,2022.1.3,Win32,59.89817311,62bbe60bf3d75ef465d3e404,,,,,,,,,,,,,,,,,,,,,,,,,,,,,,,,,,,,,,,,,,,,,,,,,,,,,,,,,,,,,,,,,,,,,,,,,,,,,,,,,,,,,,,,,,,,,,,,,,,,,,,,,,,,,,,,,,,,,,,,,,,,,,,,,,,,,,,,,,,,,,,,,,,,,,,,,,,,,,
0,79,79,29,1,,5bd781291fd7c80001bb1fad,62bbfa3900f3c6a4384df57b,2022-06-29_01h16.27.748,Colour_Asymmetry_Pilot,2022.1.3,Win32,59.89817311,62bbe60bf3d75ef465d3e404,,,,,,,,,,,,,,,,,,,,,,,,,,,,,,,,,,,,,,,,,,,,,,,,,,,,,,,,,,,,,,,,,,,,,,,,,,,,,,,,,,,,,,,,,,,,,,,,,,,,,,,,,,,,,,,,,,,,,,,,,,,,,,,,,,,,,,,,,,,,,,,,,,,,,,,,,,,,,,
0,80,80,51,1,,5bd781291fd7c80001bb1fad,62bbfa3900f3c6a4384df57b,2022-06-29_01h16.27.748,Colour_Asymmetry_Pilot,2022.1.3,Win32,59.89817311,62bbe60bf3d75ef465d3e404,,,,,,,,,,,,,,,,,,,,,,,,,,,,,,,,,,,,,,,,,,,,,,,,,,,,,,,,,,,,,,,,,,,,,,,,,,,,,,,,,,,,,,,,,,,,,,,,,,,,,,,,,,,,,,,,,,,,,,,,,,,,,,,,,,,,,,,,,,,,,,,,,,,,,,,,,,,,,,
0,81,81,47,1,,5bd781291fd7c80001bb1fad,62bbfa3900f3c6a4384df57b,2022-06-29_01h16.27.748,Colour_Asymmetry_Pilot,2022.1.3,Win32,59.89817311,62bbe60bf3d75ef465d3e404,,,,,,,,,,,,,,,,,,,,,,,,,,,,,,,,,,,,,,,,,,,,,,,,,,,,,,,,,,,,,,,,,,,,,,,,,,,,,,,,,,,,,,,,,,,,,,,,,,,,,,,,,,,,,,,,,,,,,,,,,,,,,,,,,,,,,,,,,,,,,,,,,,,,,,,,,,,,,,
0,82,82,90,1,,5bd781291fd7c80001bb1fad,62bbfa3900f3c6a4384df57b,2022-06-29_01h16.27.748,Colour_Asymmetry_Pilot,2022.1.3,Win32,59.89817311,62bbe60bf3d75ef465d3e404,,,,,,,,,,,,,,,,,,,,,,,,,,,,,,,,,,,,,,,,,,,,,,,,,,,,,,,,,,,,,,,,,,,,,,,,,,,,,,,,,,,,,,,,,,,,,,,,,,,,,,,,,,,,,,,,,,,,,,,,,,,,,,,,,,,,,,,,,,,,,,,,,,,,,,,,,,,,,,
0,83,83,32,1,,5bd781291fd7c80001bb1fad,62bbfa3900f3c6a4384df57b,2022-06-29_01h16.27.748,Colour_Asymmetry_Pilot,2022.1.3,Win32,59.89817311,62bbe60bf3d75ef465d3e404,,,,,,,,,,,,,,,,,,,,,,,,,,,,,,,,,,,,,,,,,,,,,,,,,,,,,,,,,,,,,,,,,,,,,,,,,,,,,,,,,,,,,,,,,,,,,,,,,,,,,,,,,,,,,,,,,,,,,,,,,,,,,,,,,,,,,,,,,,,,,,,,,,,,,,,,,,,,,,
0,84,84,58,1,,5bd781291fd7c80001bb1fad,62bbfa3900f3c6a4384df57b,2022-06-29_01h16.27.748,Colour_Asymmetry_Pilot,2022.1.3,Win32,59.89817311,62bbe60bf3d75ef465d3e404,,,,,,,,,,,,,,,,,,,,,,,,,,,,,,,,,,,,,,,,,,,,,,,,,,,,,,,,,,,,,,,,,,,,,,,,,,,,,,,,,,,,,,,,,,,,,,,,,,,,,,,,,,,,,,,,,,,,,,,,,,,,,,,,,,,,,,,,,,,,,,,,,,,,,,,,,,,,,,
0,85,85,31,1,,5bd781291fd7c80001bb1fad,62bbfa3900f3c6a4384df57b,2022-06-29_01h16.27.748,Colour_Asymmetry_Pilot,2022.1.3,Win32,59.89817311,62bbe60bf3d75ef465d3e404,,,,,,,,,,,,,,,,,,,,,,,,,,,,,,,,,,,,,,,,,,,,,,,,,,,,,,,,,,,,,,,,,,,,,,,,,,,,,,,,,,,,,,,,,,,,,,,,,,,,,,,,,,,,,,,,,,,,,,,,,,,,,,,,,,,,,,,,,,,,,,,,,,,,,,,,,,,,,,
0,86,86,75,1,,5bd781291fd7c80001bb1fad,62bbfa3900f3c6a4384df57b,2022-06-29_01h16.27.748,Colour_Asymmetry_Pilot,2022.1.3,Win32,59.89817311,62bbe60bf3d75ef465d3e404,,,,,,,,,,,,,,,,,,,,,,,,,,,,,,,,,,,,,,,,,,,,,,,,,,,,,,,,,,,,,,,,,,,,,,,,,,,,,,,,,,,,,,,,,,,,,,,,,,,,,,,,,,,,,,,,,,,,,,,,,,,,,,,,,,,,,,,,,,,,,,,,,,,,,,,,,,,,,,
0,87,87,27,1,,5bd781291fd7c80001bb1fad,62bbfa3900f3c6a4384df57b,2022-06-29_01h16.27.748,Colour_Asymmetry_Pilot,2022.1.3,Win32,59.89817311,62bbe60bf3d75ef465d3e404,,,,,,,,,,,,,,,,,,,,,,,,,,,,,,,,,,,,,,,,,,,,,,,,,,,,,,,,,,,,,,,,,,,,,,,,,,,,,,,,,,,,,,,,,,,,,,,,,,,,,,,,,,,,,,,,,,,,,,,,,,,,,,,,,,,,,,,,,,,,,,,,,,,,,,,,,,,,,,
0,88,88,85,1,,5bd781291fd7c80001bb1fad,62bbfa3900f3c6a4384df57b,2022-06-29_01h16.27.748,Colour_Asymmetry_Pilot,2022.1.3,Win32,59.89817311,62bbe60bf3d75ef465d3e404,,,,,,,,,,,,,,,,,,,,,,,,,,,,,,,,,,,,,,,,,,,,,,,,,,,,,,,,,,,,,,,,,,,,,,,,,,,,,,,,,,,,,,,,,,,,,,,,,,,,,,,,,,,,,,,,,,,,,,,,,,,,,,,,,,,,,,,,,,,,,,,,,,,,,,,,,,,,,,
0,89,89,36,1,,5bd781291fd7c80001bb1fad,62bbfa3900f3c6a4384df57b,2022-06-29_01h16.27.748,Colour_Asymmetry_Pilot,2022.1.3,Win32,59.89817311,62bbe60bf3d75ef465d3e404,,,,,,,,,,,,,,,,,,,,,,,,,,,,,,,,,,,,,,,,,,,,,,,,,,,,,,,,,,,,,,,,,,,,,,,,,,,,,,,,,,,,,,,,,,,,,,,,,,,,,,,,,,,,,,,,,,,,,,,,,,,,,,,,,,,,,,,,,,,,,,,,,,,,,,,,,,,,,,
0,90,90,6,1,,5bd781291fd7c80001bb1fad,62bbfa3900f3c6a4384df57b,2022-06-29_01h16.27.748,Colour_Asymmetry_Pilot,2022.1.3,Win32,59.89817311,62bbe60bf3d75ef465d3e404,,,,,,,,,,,,,,,,,,,,,,,,,,,,,,,,,,,,,,,,,,,,,,,,,,,,,,,,,,,,,,,,,,,,,,,,,,,,,,,,,,,,,,,,,,,,,,,,,,,,,,,,,,,,,,,,,,,,,,,,,,,,,,,,,,,,,,,,,,,,,,,,,,,,,,,,,,,,,,
0,91,91,37,1,,5bd781291fd7c80001bb1fad,62bbfa3900f3c6a4384df57b,2022-06-29_01h16.27.748,Colour_Asymmetry_Pilot,2022.1.3,Win32,59.89817311,62bbe60bf3d75ef465d3e404,,,,,,,,,,,,,,,,,,,,,,,,,,,,,,,,,,,,,,,,,,,,,,,,,,,,,,,,,,,,,,,,,,,,,,,,,,,,,,,,,,,,,,,,,,,,,,,,,,,,,,,,,,,,,,,,,,,,,,,,,,,,,,,,,,,,,,,,,,,,,,,,,,,,,,,,,,,,,,
0,92,92,14,1,,5bd781291fd7c80001bb1fad,62bbfa3900f3c6a4384df57b,2022-06-29_01h16.27.748,Colour_Asymmetry_Pilot,2022.1.3,Win32,59.89817311,62bbe60bf3d75ef465d3e404,,,,,,,,,,,,,,,,,,,,,,,,,,,,,,,,,,,,,,,,,,,,,,,,,,,,,,,,,,,,,,,,,,,,,,,,,,,,,,,,,,,,,,,,,,,,,,,,,,,,,,,,,,,,,,,,,,,,,,,,,,,,,,,,,,,,,,,,,,,,,,,,,,,,,,,,,,,,,,
,,,,,,5bd781291fd7c80001bb1fad,62bbfa3900f3c6a4384df57b,2022-06-29_01h16.27.748,Colour_Asymmetry_Pilot,2022.1.3,Win32,59.89817311,62bbe60bf3d75ef465d3e404,0,0,0,147,1,twofour,,,,,,,,,,,,,,,,,,,,,,,,,,,,,,,,,,,,,,,,,,,,,,,,,,,,,,,,,,,,,,,,,,,,,,,,,,,,,,,,,,,,,,,,,,,,,,,,,,,,,,,,,,,,,,,,,,,,,,,,,,,,,,,,,,,,,,,,,,,,,,,,,,,,,,,,
,,,,,,5bd781291fd7c80001bb1fad,62bbfa3900f3c6a4384df57b,2022-06-29_01h16.27.748,Colour_Asymmetry_Pilot,2022.1.3,Win32,59.89817311,62bbe60bf3d75ef465d3e404,0,1,1,104,1,onetwo,,,,,,,,,,,,,,,,,,,,,,,,,,,,,,,,,,,,,,,,,,,,,,,,,,,,,,,,,,,,,,,,,,,,,,,,,,,,,,,,,,,,,,,,,,,,,,,,,,,,,,,,,,,,,,,,,,,,,,,,,,,,,,,,,,,,,,,,,,,,,,,,,,,,,,,,
,,,,,,5bd781291fd7c80001bb1fad,62bbfa3900f3c6a4384df57b,2022-06-29_01h16.27.748,Colour_Asymmetry_Pilot,2022.1.3,Win32,59.89817311,62bbe60bf3d75ef465d3e404,0,2,2,62,1,fourtwo,,,,,,,,,,,,,,,,,,,,,,,,,,,,,,,,,,,,,,,,,,,,,,,,,,,,,,,,,,,,,,,,,,,,,,,,,,,,,,,,,,,,,,,,,,,,,,,,,,,,,,,,,,,,,,,,,,,,,,,,,,,,,,,,,,,,,,,,,,,,,,,,,,,,,,,,
,,,,,,5bd781291fd7c80001bb1fad,62bbfa3900f3c6a4384df57b,2022-06-29_01h16.27.748,Colour_Asymmetry_Pilot,2022.1.3,Win32,59.89817311,62bbe60bf3d75ef465d3e404,0,3,3,58,1,twoone,,,,,,,,,,,,,,,,,,,,,,,,,,,,,,,,,,,,,,,,,,,,,,,,,,,,,,,,,,,,,,,,,,,,,,,,,,,,,,,,,,,,,,,,,,,,,,,,,,,,,,,,,,,,,,,,,,,,,,,,,,,,,,,,,,,,,,,,,,,,,,,,,,,,,,,,
,,,,,,5bd781291fd7c80001bb1fad,62bbfa3900f3c6a4384df57b,2022-06-29_01h16.27.748,Colour_Asymmetry_Pilot,2022.1.3,Win32,59.89817311,62bbe60bf3d75ef465d3e404,0,4,4,149,1,threefour,,,,,,,,,,,,,,,,,,,,,,,,,,,,,,,,,,,,,,,,,,,,,,,,,,,,,,,,,,,,,,,,,,,,,,,,,,,,,,,,,,,,,,,,,,,,,,,,,,,,,,,,,,,,,,,,,,,,,,,,,,,,,,,,,,,,,,,,,,,,,,,,,,,,,,,,
,,,,,,5bd781291fd7c80001bb1fad,62bbfa3900f3c6a4384df57b,2022-06-29_01h16.27.748,Colour_Asymmetry_Pilot,2022.1.3,Win32,59.89817311,62bbe60bf3d75ef465d3e404,0,5,5,86,1,fourtwo,,,,,,,,,,,,,,,,,,,,,,,,,,,,,,,,,,,,,,,,,,,,,,,,,,,,,,,,,,,,,,,,,,,,,,,,,,,,,,,,,,,,,,,,,,,,,,,,,,,,,,,,,,,,,,,,,,,,,,,,,,,,,,,,,,,,,,,,,,,,,,,,,,,,,,,,
,,,,,,5bd781291fd7c80001bb1fad,62bbfa3900f3c6a4384df57b,2022-06-29_01h16.27.748,Colour_Asymmetry_Pilot,2022.1.3,Win32,59.89817311,62bbe60bf3d75ef465d3e404,0,6,6,18,1,twoone,,,,,,,,,,,,,,,,,,,,,,,,,,,,,,,,,,,,,,,,,,,,,,,,,,,,,,,,,,,,,,,,,,,,,,,,,,,,,,,,,,,,,,,,,,,,,,,,,,,,,,,,,,,,,,,,,,,,,,,,,,,,,,,,,,,,,,,,,,,,,,,,,,,,,,,,
,,,,,,5bd781291fd7c80001bb1fad,62bbfa3900f3c6a4384df57b,2022-06-29_01h16.27.748,Colour_Asymmetry_Pilot,2022.1.3,Win32,59.89817311,62bbe60bf3d75ef465d3e404,0,7,7,40,1,onetwo,,,,,,,,,,,,,,,,,,,,,,,,,,,,,,,,,,,,,,,,,,,,,,,,,,,,,,,,,,,,,,,,,,,,,,,,,,,,,,,,,,,,,,,,,,,,,,,,,,,,,,,,,,,,,,,,,,,,,,,,,,,,,,,,,,,,,,,,,,,,,,,,,,,,,,,,
,,,,,,5bd781291fd7c80001bb1fad,62bbfa3900f3c6a4384df57b,2022-06-29_01h16.27.748,Colour_Asymmetry_Pilot,2022.1.3,Win32,59.89817311,62bbe60bf3d75ef465d3e404,0,8,8,93,1,threefour,,,,,,,,,,,,,,,,,,,,,,,,,,,,,,,,,,,,,,,,,,,,,,,,,,,,,,,,,,,,,,,,,,,,,,,,,,,,,,,,,,,,,,,,,,,,,,,,,,,,,,,,,,,,,,,,,,,,,,,,,,,,,,,,,,,,,,,,,,,,,,,,,,,,,,,,
,,,,,,5bd781291fd7c80001bb1fad,62bbfa3900f3c6a4384df57b,2022-06-29_01h16.27.748,Colour_Asymmetry_Pilot,2022.1.3,Win32,59.89817311,62bbe60bf3d75ef465d3e404,0,9,9,159,1,fourthree,,,,,,,,,,,,,,,,,,,,,,,,,,,,,,,,,,,,,,,,,,,,,,,,,,,,,,,,,,,,,,,,,,,,,,,,,,,,,,,,,,,,,,,,,,,,,,,,,,,,,,,,,,,,,,,,,,,,,,,,,,,,,,,,,,,,,,,,,,,,,,,,,,,,,,,,
,,,,,,5bd781291fd7c80001bb1fad,62bbfa3900f3c6a4384df57b,2022-06-29_01h16.27.748,Colour_Asymmetry_Pilot,2022.1.3,Win32,59.89817311,62bbe60bf3d75ef465d3e404,0,10,10,114,1,twoone,,,,,,,,,,,,,,,,,,,,,,,,,,,,,,,,,,,,,,,,,,,,,,,,,,,,,,,,,,,,,,,,,,,,,,,,,,,,,,,,,,,,,,,,,,,,,,,,,,,,,,,,,,,,,,,,,,,,,,,,,,,,,,,,,,,,,,,,,,,,,,,,,,,,,,,,
,,,,,,5bd781291fd7c80001bb1fad,62bbfa3900f3c6a4384df57b,2022-06-29_01h16.27.748,Colour_Asymmetry_Pilot,2022.1.3,Win32,59.89817311,62bbe60bf3d75ef465d3e404,0,11,11,105,1,onethree,,,,,,,,,,,,,,,,,,,,,,,,,,,,,,,,,,,,,,,,,,,,,,,,,,,,,,,,,,,,,,,,,,,,,,,,,,,,,,,,,,,,,,,,,,,,,,,,,,,,,,,,,,,,,,,,,,,,,,,,,,,,,,,,,,,,,,,,,,,,,,,,,,,,,,,,
,,,,,,5bd781291fd7c80001bb1fad,62bbfa3900f3c6a4384df57b,2022-06-29_01h16.27.748,Colour_Asymmetry_Pilot,2022.1.3,Win32,59.89817311,62bbe60bf3d75ef465d3e404,0,12,12,145,1,onethree,,,,,,,,,,,,,,,,,,,,,,,,,,,,,,,,,,,,,,,,,,,,,,,,,,,,,,,,,,,,,,,,,,,,,,,,,,,,,,,,,,,,,,,,,,,,,,,,,,,,,,,,,,,,,,,,,,,,,,,,,,,,,,,,,,,,,,,,,,,,,,,,,,,,,,,,
,,,,,,5bd781291fd7c80001bb1fad,62bbfa3900f3c6a4384df57b,2022-06-29_01h16.27.748,Colour_Asymmetry_Pilot,2022.1.3,Win32,59.89817311,62bbe60bf3d75ef465d3e404,0,13,13,100,1,threeone,,,,,,,,,,,,,,,,,,,,,,,,,,,,,,,,,,,,,,,,,,,,,,,,,,,,,,,,,,,,,,,,,,,,,,,,,,,,,,,,,,,,,,,,,,,,,,,,,,,,,,,,,,,,,,,,,,,,,,,,,,,,,,,,,,,,,,,,,,,,,,,,,,,,,,,,
,,,,,,5bd781291fd7c80001bb1fad,62bbfa3900f3c6a4384df57b,2022-06-29_01h16.27.748,Colour_Asymmetry_Pilot,2022.1.3,Win32,59.89817311,62bbe60bf3d75ef465d3e404,0,14,14,27,1,twofour,,,,,,,,,,,,,,,,,,,,,,,,,,,,,,,,,,,,,,,,,,,,,,,,,,,,,,,,,,,,,,,,,,,,,,,,,,,,,,,,,,,,,,,,,,,,,,,,,,,,,,,,,,,,,,,,,,,,,,,,,,,,,,,,,,,,,,,,,,,,,,,,,,,,,,,,
,,,,,,5bd781291fd7c80001bb1fad,62bbfa3900f3c6a4384df57b,2022-06-29_01h16.27.748,Colour_Asymmetry_Pilot,2022.1.3,Win32,59.89817311,62bbe60bf3d75ef465d3e404,0,15,15,73,1,onethree,,,,,,,,,,,,,,,,,,,,,,,,,,,,,,,,,,,,,,,,,,,,,,,,,,,,,,,,,,,,,,,,,,,,,,,,,,,,,,,,,,,,,,,,,,,,,,,,,,,,,,,,,,,,,,,,,,,,,,,,,,,,,,,,,,,,,,,,,,,,,,,,,,,,,,,,
,,,,,,5bd781291fd7c80001bb1fad,62bbfa3900f3c6a4384df57b,2022-06-29_01h16.27.748,Colour_Asymmetry_Pilot,2022.1.3,Win32,59.89817311,62bbe60bf3d75ef465d3e404,0,16,16,47,1,fourthree,,,,,,,,,,,,,,,,,,,,,,,,,,,,,,,,,,,,,,,,,,,,,,,,,,,,,,,,,,,,,,,,,,,,,,,,,,,,,,,,,,,,,,,,,,,,,,,,,,,,,,,,,,,,,,,,,,,,,,,,,,,,,,,,,,,,,,,,,,,,,,,,,,,,,,,,
,,,,,,5bd781291fd7c80001bb1fad,62bbfa3900f3c6a4384df57b,2022-06-29_01h16.27.748,Colour_Asymmetry_Pilot,2022.1.3,Win32,59.89817311,62bbe60bf3d75ef465d3e404,0,17,17,142,1,fourtwo,,,,,,,,,,,,,,,,,,,,,,,,,,,,,,,,,,,,,,,,,,,,,,,,,,,,,,,,,,,,,,,,,,,,,,,,,,,,,,,,,,,,,,,,,,,,,,,,,,,,,,,,,,,,,,,,,,,,,,,,,,,,,,,,,,,,,,,,,,,,,,,,,,,,,,,,
,,,,,,5bd781291fd7c80001bb1fad,62bbfa3900f3c6a4384df57b,2022-06-29_01h16.27.748,Colour_Asymmetry_Pilot,2022.1.3,Win32,59.89817311,62bbe60bf3d75ef465d3e404,0,18,18,51,1,twofour,,,,,,,,,,,,,,,,,,,,,,,,,,,,,,,,,,,,,,,,,,,,,,,,,,,,,,,,,,,,,,,,,,,,,,,,,,,,,,,,,,,,,,,,,,,,,,,,,,,,,,,,,,,,,,,,,,,,,,,,,,,,,,,,,,,,,,,,,,,,,,,,,,,,,,,,
,,,,,,5bd781291fd7c80001bb1fad,62bbfa3900f3c6a4384df57b,2022-06-29_01h16.27.748,Colour_Asymmetry_Pilot,2022.1.3,Win32,59.89817311,62bbe60bf3d75ef465d3e404,0,19,19,68,1,threeone,,,,,,,,,,,,,,,,,,,,,,,,,,,,,,,,,,,,,,,,,,,,,,,,,,,,,,,,,,,,,,,,,,,,,,,,,,,,,,,,,,,,,,,,,,,,,,,,,,,,,,,,,,,,,,,,,,,,,,,,,,,,,,,,,,,,,,,,,,,,,,,,,,,,,,,,
,,,,,,5bd781291fd7c80001bb1fad,62bbfa3900f3c6a4384df57b,2022-06-29_01h16.27.748,Colour_Asymmetry_Pilot,2022.1.3,Win32,59.89817311,62bbe60bf3d75ef465d3e404,0,20,20,98,1,twoone,,,,,,,,,,,,,,,,,,,,,,,,,,,,,,,,,,,,,,,,,,,,,,,,,,,,,,,,,,,,,,,,,,,,,,,,,,,,,,,,,,,,,,,,,,,,,,,,,,,,,,,,,,,,,,,,,,,,,,,,,,,,,,,,,,,,,,,,,,,,,,,,,,,,,,,,
,,,,,,5bd781291fd7c80001bb1fad,62bbfa3900f3c6a4384df57b,2022-06-29_01h16.27.748,Colour_Asymmetry_Pilot,2022.1.3,Win32,59.89817311,62bbe60bf3d75ef465d3e404,0,21,21,88,1,onetwo,,,,,,,,,,,,,,,,,,,,,,,,,,,,,,,,,,,,,,,,,,,,,,,,,,,,,,,,,,,,,,,,,,,,,,,,,,,,,,,,,,,,,,,,,,,,,,,,,,,,,,,,,,,,,,,,,,,,,,,,,,,,,,,,,,,,,,,,,,,,,,,,,,,,,,,,
,,,,,,5bd781291fd7c80001bb1fad,62bbfa3900f3c6a4384df57b,2022-06-29_01h16.27.748,Colour_Asymmetry_Pilot,2022.1.3,Win32,59.89817311,62bbe60bf3d75ef465d3e404,0,22,22,34,1,twoone,,,,,,,,,,,,,,,,,,,,,,,,,,,,,,,,,,,,,,,,,,,,,,,,,,,,,,,,,,,,,,,,,,,,,,,,,,,,,,,,,,,,,,,,,,,,,,,,,,,,,,,,,,,,,,,,,,,,,,,,,,,,,,,,,,,,,,,,,,,,,,,,,,,,,,,,
,,,,,,5bd781291fd7c80001bb1fad,62bbfa3900f3c6a4384df57b,2022-06-29_01h16.27.748,Colour_Asymmetry_Pilot,2022.1.3,Win32,59.89817311,62bbe60bf3d75ef465d3e404,0,23,23,90,1,twoone,,,,,,,,,,,,,,,,,,,,,,,,,,,,,,,,,,,,,,,,,,,,,,,,,,,,,,,,,,,,,,,,,,,,,,,,,,,,,,,,,,,,,,,,,,,,,,,,,,,,,,,,,,,,,,,,,,,,,,,,,,,,,,,,,,,,,,,,,,,,,,,,,,,,,,,,
,,,,,,5bd781291fd7c80001bb1fad,62bbfa3900f3c6a4384df57b,2022-06-29_01h16.27.748,Colour_Asymmetry_Pilot,2022.1.3,Win32,59.89817311,62bbe60bf3d75ef465d3e404,0,24,24,123,1,twofour,,,,,,,,,,,,,,,,,,,,,,,,,,,,,,,,,,,,,,,,,,,,,,,,,,,,,,,,,,,,,,,,,,,,,,,,,,,,,,,,,,,,,,,,,,,,,,,,,,,,,,,,,,,,,,,,,,,,,,,,,,,,,,,,,,,,,,,,,,,,,,,,,,,,,,,,
,,,,,,5bd781291fd7c80001bb1fad,62bbfa3900f3c6a4384df57b,2022-06-29_01h16.27.748,Colour_Asymmetry_Pilot,2022.1.3,Win32,59.89817311,62bbe60bf3d75ef465d3e404,0,25,25,69,1,threefour,,,,,,,,,,,,,,,,,,,,,,,,,,,,,,,,,,,,,,,,,,,,,,,,,,,,,,,,,,,,,,,,,,,,,,,,,,,,,,,,,,,,,,,,,,,,,,,,,,,,,,,,,,,,,,,,,,,,,,,,,,,,,,,,,,,,,,,,,,,,,,,,,,,,,,,,
,,,,,,5bd781291fd7c80001bb1fad,62bbfa3900f3c6a4384df57b,2022-06-29_01h16.27.748,Colour_Asymmetry_Pilot,2022.1.3,Win32,59.89817311,62bbe60bf3d75ef465d3e404,0,26,26,37,1,threefour,,,,,,,,,,,,,,,,,,,,,,,,,,,,,,,,,,,,,,,,,,,,,,,,,,,,,,,,,,,,,,,,,,,,,,,,,,,,,,,,,,,,,,,,,,,,,,,,,,,,,,,,,,,,,,,,,,,,,,,,,,,,,,,,,,,,,,,,,,,,,,,,,,,,,,,,
,,,,,,5bd781291fd7c80001bb1fad,62bbfa3900f3c6a4384df57b,2022-06-29_01h16.27.748,Colour_Asymmetry_Pilot,2022.1.3,Win32,59.89817311,62bbe60bf3d75ef465d3e404,0,27,27,127,1,fourthree,,,,,,,,,,,,,,,,,,,,,,,,,,,,,,,,,,,,,,,,,,,,,,,,,,,,,,,,,,,,,,,,,,,,,,,,,,,,,,,,,,,,,,,,,,,,,,,,,,,,,,,,,,,,,,,,,,,,,,,,,,,,,,,,,,,,,,,,,,,,,,,,,,,,,,,,
,,,,,,5bd781291fd7c80001bb1fad,62bbfa3900f3c6a4384df57b,2022-06-29_01h16.27.748,Colour_Asymmetry_Pilot,2022.1.3,Win32,59.89817311,62bbe60bf3d75ef465d3e404,0,28,28,128,1,onetwo,,,,,,,,,,,,,,,,,,,,,,,,,,,,,,,,,,,,,,,,,,,,,,,,,,,,,,,,,,,,,,,,,,,,,,,,,,,,,,,,,,,,,,,,,,,,,,,,,,,,,,,,,,,,,,,,,,,,,,,,,,,,,,,,,,,,,,,,,,,,,,,,,,,,,,,,
,,,,,,5bd781291fd7c80001bb1fad,62bbfa3900f3c6a4384df57b,2022-06-29_01h16.27.748,Colour_Asymmetry_Pilot,2022.1.3,Win32,59.89817311,62bbe60bf3d75ef465d3e404,0,29,29,125,1,threefour,,,,,,,,,,,,,,,,,,,,,,,,,,,,,,,,,,,,,,,,,,,,,,,,,,,,,,,,,,,,,,,,,,,,,,,,,,,,,,,,,,,,,,,,,,,,,,,,,,,,,,,,,,,,,,,,,,,,,,,,,,,,,,,,,,,,,,,,,,,,,,,,,,,,,,,,
,,,,,,5bd781291fd7c80001bb1fad,62bbfa3900f3c6a4384df57b,2022-06-29_01h16.27.748,Colour_Asymmetry_Pilot,2022.1.3,Win32,59.89817311,62bbe60bf3d75ef465d3e404,0,30,30,110,1,fourtwo,,,,,,,,,,,,,,,,,,,,,,,,,,,,,,,,,,,,,,,,,,,,,,,,,,,,,,,,,,,,,,,,,,,,,,,,,,,,,,,,,,,,,,,,,,,,,,,,,,,,,,,,,,,,,,,,,,,,,,,,,,,,,,,,,,,,,,,,,,,,,,,,,,,,,,,,
,,,,,,5bd781291fd7c80001bb1fad,62bbfa3900f3c6a4384df57b,2022-06-29_01h16.27.748,Colour_Asymmetry_Pilot,2022.1.3,Win32,59.89817311,62bbe60bf3d75ef465d3e404,0,31,31,109,1,threefour,,,,,,,,,,,,,,,,,,,,,,,,,,,,,,,,,,,,,,,,,,,,,,,,,,,,,,,,,,,,,,,,,,,,,,,,,,,,,,,,,,,,,,,,,,,,,,,,,,,,,,,,,,,,,,,,,,,,,,,,,,,,,,,,,,,,,,,,,,,,,,,,,,,,,,,,
,,,,,,5bd781291fd7c80001bb1fad,62bbfa3900f3c6a4384df57b,2022-06-29_01h16.27.748,Colour_Asymmetry_Pilot,2022.1.3,Win32,59.89817311,62bbe60bf3d75ef465d3e404,0,32,32,102,1,fourtwo,,,,,,,,,,,,,,,,,,,,,,,,,,,,,,,,,,,,,,,,,,,,,,,,,,,,,,,,,,,,,,,,,,,,,,,,,,,,,,,,,,,,,,,,,,,,,,,,,,,,,,,,,,,,,,,,,,,,,,,,,,,,,,,,,,,,,,,,,,,,,,,,,,,,,,,,
,,,,,,5bd781291fd7c80001bb1fad,62bbfa3900f3c6a4384df57b,2022-06-29_01h16.27.748,Colour_Asymmetry_Pilot,2022.1.3,Win32,59.89817311,62bbe60bf3d75ef465d3e404,0,33,33,52,1,threeone,,,,,,,,,,,,,,,,,,,,,,,,,,,,,,,,,,,,,,,,,,,,,,,,,,,,,,,,,,,,,,,,,,,,,,,,,,,,,,,,,,,,,,,,,,,,,,,,,,,,,,,,,,,,,,,,,,,,,,,,,,,,,,,,,,,,,,,,,,,,,,,,,,,,,,,,
,,,,,,5bd781291fd7c80001bb1fad,62bbfa3900f3c6a4384df57b,2022-06-29_01h16.27.748,Colour_Asymmetry_Pilot,2022.1.3,Win32,59.89817311,62bbe60bf3d75ef465d3e404,0,34,34,99,1,twofour,,,,,,,,,,,,,,,,,,,,,,,,,,,,,,,,,,,,,,,,,,,,,,,,,,,,,,,,,,,,,,,,,,,,,,,,,,,,,,,,,,,,,,,,,,,,,,,,,,,,,,,,,,,,,,,,,,,,,,,,,,,,,,,,,,,,,,,,,,,,,,,,,,,,,,,,
,,,,,,5bd781291fd7c80001bb1fad,62bbfa3900f3c6a4384df57b,2022-06-29_01h16.27.748,Colour_Asymmetry_Pilot,2022.1.3,Win32,59.89817311,62bbe60bf3d75ef465d3e404,0,35,35,158,1,fourtwo,,,,,,,,,,,,,,,,,,,,,,,,,,,,,,,,,,,,,,,,,,,,,,,,,,,,,,,,,,,,,,,,,,,,,,,,,,,,,,,,,,,,,,,,,,,,,,,,,,,,,,,,,,,,,,,,,,,,,,,,,,,,,,,,,,,,,,,,,,,,,,,,,,,,,,,,
,,,,,,5bd781291fd7c80001bb1fad,62bbfa3900f3c6a4384df57b,2022-06-29_01h16.27.748,Colour_Asymmetry_Pilot,2022.1.3,Win32,59.89817311,62bbe60bf3d75ef465d3e404,0,36,36,116,1,threeone,,,,,,,,,,,,,,,,,,,,,,,,,,,,,,,,,,,,,,,,,,,,,,,,,,,,,,,,,,,,,,,,,,,,,,,,,,,,,,,,,,,,,,,,,,,,,,,,,,,,,,,,,,,,,,,,,,,,,,,,,,,,,,,,,,,,,,,,,,,,,,,,,,,,,,,,
,,,,,,5bd781291fd7c80001bb1fad,62bbfa3900f3c6a4384df57b,2022-06-29_01h16.27.748,Colour_Asymmetry_Pilot,2022.1.3,Win32,59.89817311,62bbe60bf3d75ef465d3e404,0,37,37,1,1,onethree,,,,,,,,,,,,,,,,,,,,,,,,,,,,,,,,,,,,,,,,,,,,,,,,,,,,,,,,,,,,,,,,,,,,,,,,,,,,,,,,,,,,,,,,,,,,,,,,,,,,,,,,,,,,,,,,,,,,,,,,,,,,,,,,,,,,,,,,,,,,,,,,,,,,,,,,
,,,,,,5bd781291fd7c80001bb1fad,62bbfa3900f3c6a4384df57b,2022-06-29_01h16.27.748,Colour_Asymmetry_Pilot,2022.1.3,Win32,59.89817311,62bbe60bf3d75ef465d3e404,0,38,38,8,1,onetwo,,,,,,,,,,,,,,,,,,,,,,,,,,,,,,,,,,,,,,,,,,,,,,,,,,,,,,,,,,,,,,,,,,,,,,,,,,,,,,,,,,,,,,,,,,,,,,,,,,,,,,,,,,,,,,,,,,,,,,,,,,,,,,,,,,,,,,,,,,,,,,,,,,,,,,,,
,,,,,,5bd781291fd7c80001bb1fad,62bbfa3900f3c6a4384df57b,2022-06-29_01h16.27.748,Colour_Asymmetry_Pilot,2022.1.3,Win32,59.89817311,62bbe60bf3d75ef465d3e404,0,39,39,146,1,twoone,,,,,,,,,,,,,,,,,,,,,,,,,,,,,,,,,,,,,,,,,,,,,,,,,,,,,,,,,,,,,,,,,,,,,,,,,,,,,,,,,,,,,,,,,,,,,,,,,,,,,,,,,,,,,,,,,,,,,,,,,,,,,,,,,,,,,,,,,,,,,,,,,,,,,,,,
,,,,,,5bd781291fd7c80001bb1fad,62bbfa3900f3c6a4384df57b,2022-06-29_01h16.27.748,Colour_Asymmetry_Pilot,2022.1.3,Win32,59.89817311,62bbe60bf3d75ef465d3e404,0,40,40,46,1,fourtwo,,,,,,,,,,,,,,,,,,,,,,,,,,,,,,,,,,,,,,,,,,,,,,,,,,,,,,,,,,,,,,,,,,,,,,,,,,,,,,,,,,,,,,,,,,,,,,,,,,,,,,,,,,,,,,,,,,,,,,,,,,,,,,,,,,,,,,,,,,,,,,,,,,,,,,,,
,,,,,,5bd781291fd7c80001bb1fad,62bbfa3900f3c6a4384df57b,2022-06-29_01h16.27.748,Colour_Asymmetry_Pilot,2022.1.3,Win32,59.89817311,62bbe60bf3d75ef465d3e404,0,41,41,6,1,fourtwo,,,,,,,,,,,,,,,,,,,,,,,,,,,,,,,,,,,,,,,,,,,,,,,,,,,,,,,,,,,,,,,,,,,,,,,,,,,,,,,,,,,,,,,,,,,,,,,,,,,,,,,,,,,,,,,,,,,,,,,,,,,,,,,,,,,,,,,,,,,,,,,,,,,,,,,,
,,,,,,5bd781291fd7c80001bb1fad,62bbfa3900f3c6a4384df57b,2022-06-29_01h16.27.748,Colour_Asymmetry_Pilot,2022.1.3,Win32,59.89817311,62bbe60bf3d75ef465d3e404,0,42,42,77,1,threefour,,,,,,,,,,,,,,,,,,,,,,,,,,,,,,,,,,,,,,,,,,,,,,,,,,,,,,,,,,,,,,,,,,,,,,,,,,,,,,,,,,,,,,,,,,,,,,,,,,,,,,,,,,,,,,,,,,,,,,,,,,,,,,,,,,,,,,,,,,,,,,,,,,,,,,,,
,,,,,,5bd781291fd7c80001bb1fad,62bbfa3900f3c6a4384df57b,2022-06-29_01h16.27.748,Colour_Asymmetry_Pilot,2022.1.3,Win32,59.89817311,62bbe60bf3d75ef465d3e404,0,43,43,143,1,fourthree,,,,,,,,,,,,,,,,,,,,,,,,,,,,,,,,,,,,,,,,,,,,,,,,,,,,,,,,,,,,,,,,,,,,,,,,,,,,,,,,,,,,,,,,,,,,,,,,,,,,,,,,,,,,,,,,,,,,,,,,,,,,,,,,,,,,,,,,,,,,,,,,,,,,,,,,
,,,,,,5bd781291fd7c80001bb1fad,62bbfa3900f3c6a4384df57b,2022-06-29_01h16.27.748,Colour_Asymmetry_Pilot,2022.1.3,Win32,59.89817311,62bbe60bf3d75ef465d3e404,0,44,44,140,1,threeone,,,,,,,,,,,,,,,,,,,,,,,,,,,,,,,,,,,,,,,,,,,,,,,,,,,,,,,,,,,,,,,,,,,,,,,,,,,,,,,,,,,,,,,,,,,,,,,,,,,,,,,,,,,,,,,,,,,,,,,,,,,,,,,,,,,,,,,,,,,,,,,,,,,,,,,,
,,,,,,5bd781291fd7c80001bb1fad,62bbfa3900f3c6a4384df57b,2022-06-29_01h16.27.748,Colour_Asymmetry_Pilot,2022.1.3,Win32,59.89817311,62bbe60bf3d75ef465d3e404,0,45,45,144,1,onetwo,,,,,,,,,,,,,,,,,,,,,,,,,,,,,,,,,,,,,,,,,,,,,,,,,,,,,,,,,,,,,,,,,,,,,,,,,,,,,,,,,,,,,,,,,,,,,,,,,,,,,,,,,,,,,,,,,,,,,,,,,,,,,,,,,,,,,,,,,,,,,,,,,,,,,,,,
,,,,,,5bd781291fd7c80001bb1fad,62bbfa3900f3c6a4384df57b,2022-06-29_01h16.27.748,Colour_Asymmetry_Pilot,2022.1.3,Win32,59.89817311,62bbe60bf3d75ef465d3e404,0,46,46,119,1,fourthree,,,,,,,,,,,,,,,,,,,,,,,,,,,,,,,,,,,,,,,,,,,,,,,,,,,,,,,,,,,,,,,,,,,,,,,,,,,,,,,,,,,,,,,,,,,,,,,,,,,,,,,,,,,,,,,,,,,,,,,,,,,,,,,,,,,,,,,,,,,,,,,,,,,,,,,,
,,,,,,5bd781291fd7c80001bb1fad,62bbfa3900f3c6a4384df57b,2022-06-29_01h16.27.748,Colour_Asymmetry_Pilot,2022.1.3,Win32,59.89817311,62bbe60bf3d75ef465d3e404,0,47,47,83,1,twofour,,,,,,,,,,,,,,,,,,,,,,,,,,,,,,,,,,,,,,,,,,,,,,,,,,,,,,,,,,,,,,,,,,,,,,,,,,,,,,,,,,,,,,,,,,,,,,,,,,,,,,,,,,,,,,,,,,,,,,,,,,,,,,,,,,,,,,,,,,,,,,,,,,,,,,,,
,,,,,,5bd781291fd7c80001bb1fad,62bbfa3900f3c6a4384df57b,2022-06-29_01h16.27.748,Colour_Asymmetry_Pilot,2022.1.3,Win32,59.89817311,62bbe60bf3d75ef465d3e404,0,48,48,122,1,twoone,,,,,,,,,,,,,,,,,,,,,,,,,,,,,,,,,,,,,,,,,,,,,,,,,,,,,,,,,,,,,,,,,,,,,,,,,,,,,,,,,,,,,,,,,,,,,,,,,,,,,,,,,,,,,,,,,,,,,,,,,,,,,,,,,,,,,,,,,,,,,,,,,,,,,,,,
,,,,,,5bd781291fd7c80001bb1fad,62bbfa3900f3c6a4384df57b,2022-06-29_01h16.27.748,Colour_Asymmetry_Pilot,2022.1.3,Win32,59.89817311,62bbe60bf3d75ef465d3e404,0,49,49,65,1,onethree,,,,,,,,,,,,,,,,,,,,,,,,,,,,,,,,,,,,,,,,,,,,,,,,,,,,,,,,,,,,,,,,,,,,,,,,,,,,,,,,,,,,,,,,,,,,,,,,,,,,,,,,,,,,,,,,,,,,,,,,,,,,,,,,,,,,,,,,,,,,,,,,,,,,,,,,
,,,,,,5bd781291fd7c80001bb1fad,62bbfa3900f3c6a4384df57b,2022-06-29_01h16.27.748,Colour_Asymmetry_Pilot,2022.1.3,Win32,59.89817311,62bbe60bf3d75ef465d3e404,0,50,50,26,1,twoone,,,,,,,,,,,,,,,,,,,,,,,,,,,,,,,,,,,,,,,,,,,,,,,,,,,,,,,,,,,,,,,,,,,,,,,,,,,,,,,,,,,,,,,,,,,,,,,,,,,,,,,,,,,,,,,,,,,,,,,,,,,,,,,,,,,,,,,,,,,,,,,,,,,,,,,,
,,,,,,5bd781291fd7c80001bb1fad,62bbfa3900f3c6a4384df57b,2022-06-29_01h16.27.748,Colour_Asymmetry_Pilot,2022.1.3,Win32,59.89817311,62bbe60bf3d75ef465d3e404,0,51,51,79,1,fourthree,,,,,,,,,,,,,,,,,,,,,,,,,,,,,,,,,,,,,,,,,,,,,,,,,,,,,,,,,,,,,,,,,,,,,,,,,,,,,,,,,,,,,,,,,,,,,,,,,,,,,,,,,,,,,,,,,,,,,,,,,,,,,,,,,,,,,,,,,,,,,,,,,,,,,,,,
,,,,,,5bd781291fd7c80001bb1fad,62bbfa3900f3c6a4384df57b,2022-06-29_01h16.27.748,Colour_Asymmetry_Pilot,2022.1.3,Win32,59.89817311,62bbe60bf3d75ef465d3e404,0,52,52,120,1,onetwo,,,,,,,,,,,,,,,,,,,,,,,,,,,,,,,,,,,,,,,,,,,,,,,,,,,,,,,,,,,,,,,,,,,,,,,,,,,,,,,,,,,,,,,,,,,,,,,,,,,,,,,,,,,,,,,,,,,,,,,,,,,,,,,,,,,,,,,,,,,,,,,,,,,,,,,,
,,,,,,5bd781291fd7c80001bb1fad,62bbfa3900f3c6a4384df57b,2022-06-29_01h16.27.748,Colour_Asymmetry_Pilot,2022.1.3,Win32,59.89817311,62bbe60bf3d75ef465d3e404,0,53,53,20,1,threeone,,,,,,,,,,,,,,,,,,,,,,,,,,,,,,,,,,,,,,,,,,,,,,,,,,,,,,,,,,,,,,,,,,,,,,,,,,,,,,,,,,,,,,,,,,,,,,,,,,,,,,,,,,,,,,,,,,,,,,,,,,,,,,,,,,,,,,,,,,,,,,,,,,,,,,,,
,,,,,,5bd781291fd7c80001bb1fad,62bbfa3900f3c6a4384df57b,2022-06-29_01h16.27.748,Colour_Asymmetry_Pilot,2022.1.3,Win32,59.89817311,62bbe60bf3d75ef465d3e404,0,54,54,19,1,twofour,,,,,,,,,,,,,,,,,,,,,,,,,,,,,,,,,,,,,,,,,,,,,,,,,,,,,,,,,,,,,,,,,,,,,,,,,,,,,,,,,,,,,,,,,,,,,,,,,,,,,,,,,,,,,,,,,,,,,,,,,,,,,,,,,,,,,,,,,,,,,,,,,,,,,,,,
,,,,,,5bd781291fd7c80001bb1fad,62bbfa3900f3c6a4384df57b,2022-06-29_01h16.27.748,Colour_Asymmetry_Pilot,2022.1.3,Win32,59.89817311,62bbe60bf3d75ef465d3e404,0,55,55,22,1,fourtwo,,,,,,,,,,,,,,,,,,,,,,,,,,,,,,,,,,,,,,,,,,,,,,,,,,,,,,,,,,,,,,,,,,,,,,,,,,,,,,,,,,,,,,,,,,,,,,,,,,,,,,,,,,,,,,,,,,,,,,,,,,,,,,,,,,,,,,,,,,,,,,,,,,,,,,,,
,,,,,,5bd781291fd7c80001bb1fad,62bbfa3900f3c6a4384df57b,2022-06-29_01h16.27.748,Colour_Asymmetry_Pilot,2022.1.3,Win32,59.89817311,62bbe60bf3d75ef465d3e404,0,56,56,42,1,twoone,,,,,,,,,,,,,,,,,,,,,,,,,,,,,,,,,,,,,,,,,,,,,,,,,,,,,,,,,,,,,,,,,,,,,,,,,,,,,,,,,,,,,,,,,,,,,,,,,,,,,,,,,,,,,,,,,,,,,,,,,,,,,,,,,,,,,,,,,,,,,,,,,,,,,,,,
,,,,,,5bd781291fd7c80001bb1fad,62bbfa3900f3c6a4384df57b,2022-06-29_01h16.27.748,Colour_Asymmetry_Pilot,2022.1.3,Win32,59.89817311,62bbe60bf3d75ef465d3e404,0,57,57,111,1,fourthree,,,,,,,,,,,,,,,,,,,,,,,,,,,,,,,,,,,,,,,,,,,,,,,,,,,,,,,,,,,,,,,,,,,,,,,,,,,,,,,,,,,,,,,,,,,,,,,,,,,,,,,,,,,,,,,,,,,,,,,,,,,,,,,,,,,,,,,,,,,,,,,,,,,,,,,,
,,,,,,5bd781291fd7c80001bb1fad,62bbfa3900f3c6a4384df57b,2022-06-29_01h16.27.748,Colour_Asymmetry_Pilot,2022.1.3,Win32,59.89817311,62bbe60bf3d75ef465d3e404,0,58,58,85,1,threefour,,,,,,,,,,,,,,,,,,,,,,,,,,,,,,,,,,,,,,,,,,,,,,,,,,,,,,,,,,,,,,,,,,,,,,,,,,,,,,,,,,,,,,,,,,,,,,,,,,,,,,,,,,,,,,,,,,,,,,,,,,,,,,,,,,,,,,,,,,,,,,,,,,,,,,,,
,,,,,,5bd781291fd7c80001bb1fad,62bbfa3900f3c6a4384df57b,2022-06-29_01h16.27.748,Colour_Asymmetry_Pilot,2022.1.3,Win32,59.89817311,62bbe60bf3d75ef465d3e404,0,59,59,134,1,fourtwo,,,,,,,,,,,,,,,,,,,,,,,,,,,,,,,,,,,,,,,,,,,,,,,,,,,,,,,,,,,,,,,,,,,,,,,,,,,,,,,,,,,,,,,,,,,,,,,,,,,,,,,,,,,,,,,,,,,,,,,,,,,,,,,,,,,,,,,,,,,,,,,,,,,,,,,,
,,,,,,5bd781291fd7c80001bb1fad,62bbfa3900f3c6a4384df57b,2022-06-29_01h16.27.748,Colour_Asymmetry_Pilot,2022.1.3,Win32,59.89817311,62bbe60bf3d75ef465d3e404,0,60,60,31,1,fourthree,,,,,,,,,,,,,,,,,,,,,,,,,,,,,,,,,,,,,,,,,,,,,,,,,,,,,,,,,,,,,,,,,,,,,,,,,,,,,,,,,,,,,,,,,,,,,,,,,,,,,,,,,,,,,,,,,,,,,,,,,,,,,,,,,,,,,,,,,,,,,,,,,,,,,,,,
,,,,,,5bd781291fd7c80001bb1fad,62bbfa3900f3c6a4384df57b,2022-06-29_01h16.27.748,Colour_Asymmetry_Pilot,2022.1.3,Win32,59.89817311,62bbe60bf3d75ef465d3e404,0,61,61,96,1,onetwo,,,,,,,,,,,,,,,,,,,,,,,,,,,,,,,,,,,,,,,,,,,,,,,,,,,,,,,,,,,,,,,,,,,,,,,,,,,,,,,,,,,,,,,,,,,,,,,,,,,,,,,,,,,,,,,,,,,,,,,,,,,,,,,,,,,,,,,,,,,,,,,,,,,,,,,,
,,,,,,5bd781291fd7c80001bb1fad,62bbfa3900f3c6a4384df57b,2022-06-29_01h16.27.748,Colour_Asymmetry_Pilot,2022.1.3,Win32,59.89817311,62bbe60bf3d75ef465d3e404,0,62,62,59,1,twofour,,,,,,,,,,,,,,,,,,,,,,,,,,,,,,,,,,,,,,,,,,,,,,,,,,,,,,,,,,,,,,,,,,,,,,,,,,,,,,,,,,,,,,,,,,,,,,,,,,,,,,,,,,,,,,,,,,,,,,,,,,,,,,,,,,,,,,,,,,,,,,,,,,,,,,,,
,,,,,,5bd781291fd7c80001bb1fad,62bbfa3900f3c6a4384df57b,2022-06-29_01h16.27.748,Colour_Asymmetry_Pilot,2022.1.3,Win32,59.89817311,62bbe60bf3d75ef465d3e404,0,63,63,106,1,twoone,,,,,,,,,,,,,,,,,,,,,,,,,,,,,,,,,,,,,,,,,,,,,,,,,,,,,,,,,,,,,,,,,,,,,,,,,,,,,,,,,,,,,,,,,,,,,,,,,,,,,,,,,,,,,,,,,,,,,,,,,,,,,,,,,,,,,,,,,,,,,,,,,,,,,,,,
,,,,,,5bd781291fd7c80001bb1fad,62bbfa3900f3c6a4384df57b,2022-06-29_01h16.27.748,Colour_Asymmetry_Pilot,2022.1.3,Win32,59.89817311,62bbe60bf3d75ef465d3e404,0,64,64,70,1,fourtwo,,,,,,,,,,,,,,,,,,,,,,,,,,,,,,,,,,,,,,,,,,,,,,,,,,,,,,,,,,,,,,,,,,,,,,,,,,,,,,,,,,,,,,,,,,,,,,,,,,,,,,,,,,,,,,,,,,,,,,,,,,,,,,,,,,,,,,,,,,,,,,,,,,,,,,,,
,,,,,,5bd781291fd7c80001bb1fad,62bbfa3900f3c6a4384df57b,2022-06-29_01h16.27.748,Colour_Asymmetry_Pilot,2022.1.3,Win32,59.89817311,62bbe60bf3d75ef465d3e404,0,65,65,13,1,threefour,,,,,,,,,,,,,,,,,,,,,,,,,,,,,,,,,,,,,,,,,,,,,,,,,,,,,,,,,,,,,,,,,,,,,,,,,,,,,,,,,,,,,,,,,,,,,,,,,,,,,,,,,,,,,,,,,,,,,,,,,,,,,,,,,,,,,,,,,,,,,,,,,,,,,,,,
,,,,,,5bd781291fd7c80001bb1fad,62bbfa3900f3c6a4384df57b,2022-06-29_01h16.27.748,Colour_Asymmetry_Pilot,2022.1.3,Win32,59.89817311,62bbe60bf3d75ef465d3e404,0,66,66,63,1,fourthree,,,,,,,,,,,,,,,,,,,,,,,,,,,,,,,,,,,,,,,,,,,,,,,,,,,,,,,,,,,,,,,,,,,,,,,,,,,,,,,,,,,,,,,,,,,,,,,,,,,,,,,,,,,,,,,,,,,,,,,,,,,,,,,,,,,,,,,,,,,,,,,,,,,,,,,,
,,,,,,5bd781291fd7c80001bb1fad,62bbfa3900f3c6a4384df57b,2022-06-29_01h16.27.748,Colour_Asymmetry_Pilot,2022.1.3,Win32,59.89817311,62bbe60bf3d75ef465d3e404,0,67,67,24,1,onetwo,,,,,,,,,,,,,,,,,,,,,,,,,,,,,,,,,,,,,,,,,,,,,,,,,,,,,,,,,,,,,,,,,,,,,,,,,,,,,,,,,,,,,,,,,,,,,,,,,,,,,,,,,,,,,,,,,,,,,,,,,,,,,,,,,,,,,,,,,,,,,,,,,,,,,,,,
,,,,,,5bd781291fd7c80001bb1fad,62bbfa3900f3c6a4384df57b,2022-06-29_01h16.27.748,Colour_Asymmetry_Pilot,2022.1.3,Win32,59.89817311,62bbe60bf3d75ef465d3e404,0,68,68,57,1,onethree,,,,,,,,,,,,,,,,,,,,,,,,,,,,,,,,,,,,,,,,,,,,,,,,,,,,,,,,,,,,,,,,,,,,,,,,,,,,,,,,,,,,,,,,,,,,,,,,,,,,,,,,,,,,,,,,,,,,,,,,,,,,,,,,,,,,,,,,,,,,,,,,,,,,,,,,
,,,,,,5bd781291fd7c80001bb1fad,62bbfa3900f3c6a4384df57b,2022-06-29_01h16.27.748,Colour_Asymmetry_Pilot,2022.1.3,Win32,59.89817311,62bbe60bf3d75ef465d3e404,0,69,69,54,1,fourtwo,,,,,,,,,,,,,,,,,,,,,,,,,,,,,,,,,,,,,,,,,,,,,,,,,,,,,,,,,,,,,,,,,,,,,,,,,,,,,,,,,,,,,,,,,,,,,,,,,,,,,,,,,,,,,,,,,,,,,,,,,,,,,,,,,,,,,,,,,,,,,,,,,,,,,,,,
,,,,,,5bd781291fd7c80001bb1fad,62bbfa3900f3c6a4384df57b,2022-06-29_01h16.27.748,Colour_Asymmetry_Pilot,2022.1.3,Win32,59.89817311,62bbe60bf3d75ef465d3e404,0,70,70,75,1,twofour,,,,,,,,,,,,,,,,,,,,,,,,,,,,,,,,,,,,,,,,,,,,,,,,,,,,,,,,,,,,,,,,,,,,,,,,,,,,,,,,,,,,,,,,,,,,,,,,,,,,,,,,,,,,,,,,,,,,,,,,,,,,,,,,,,,,,,,,,,,,,,,,,,,,,,,,
,,,,,,5bd781291fd7c80001bb1fad,62bbfa3900f3c6a4384df57b,2022-06-29_01h16.27.748,Colour_Asymmetry_Pilot,2022.1.3,Win32,59.89817311,62bbe60bf3d75ef465d3e404,0,71,71,81,1,onethree,,,,,,,,,,,,,,,,,,,,,,,,,,,,,,,,,,,,,,,,,,,,,,,,,,,,,,,,,,,,,,,,,,,,,,,,,,,,,,,,,,,,,,,,,,,,,,,,,,,,,,,,,,,,,,,,,,,,,,,,,,,,,,,,,,,,,,,,,,,,,,,,,,,,,,,,
,,,,,,5bd781291fd7c80001bb1fad,62bbfa3900f3c6a4384df57b,2022-06-29_01h16.27.748,Colour_Asymmetry_Pilot,2022.1.3,Win32,59.89817311,62bbe60bf3d75ef465d3e404,0,72,72,95,1,fourthree,,,,,,,,,,,,,,,,,,,,,,,,,,,,,,,,,,,,,,,,,,,,,,,,,,,,,,,,,,,,,,,,,,,,,,,,,,,,,,,,,,,,,,,,,,,,,,,,,,,,,,,,,,,,,,,,,,,,,,,,,,,,,,,,,,,,,,,,,,,,,,,,,,,,,,,,
,,,,,,5bd781291fd7c80001bb1fad,62bbfa3900f3c6a4384df57b,2022-06-29_01h16.27.748,Colour_Asymmetry_Pilot,2022.1.3,Win32,59.89817311,62bbe60bf3d75ef465d3e404,0,73,73,150,1,fourtwo,,,,,,,,,,,,,,,,,,,,,,,,,,,,,,,,,,,,,,,,,,,,,,,,,,,,,,,,,,,,,,,,,,,,,,,,,,,,,,,,,,,,,,,,,,,,,,,,,,,,,,,,,,,,,,,,,,,,,,,,,,,,,,,,,,,,,,,,,,,,,,,,,,,,,,,,
,,,,,,5bd781291fd7c80001bb1fad,62bbfa3900f3c6a4384df57b,2022-06-29_01h16.27.748,Colour_Asymmetry_Pilot,2022.1.3,Win32,59.89817311,62bbe60bf3d75ef465d3e404,0,74,74,80,1,onetwo,,,,,,,,,,,,,,,,,,,,,,,,,,,,,,,,,,,,,,,,,,,,,,,,,,,,,,,,,,,,,,,,,,,,,,,,,,,,,,,,,,,,,,,,,,,,,,,,,,,,,,,,,,,,,,,,,,,,,,,,,,,,,,,,,,,,,,,,,,,,,,,,,,,,,,,,
,,,,,,5bd781291fd7c80001bb1fad,62bbfa3900f3c6a4384df57b,2022-06-29_01h16.27.748,Colour_Asymmetry_Pilot,2022.1.3,Win32,59.89817311,62bbe60bf3d75ef465d3e404,0,75,75,17,1,onethree,,,,,,,,,,,,,,,,,,,,,,,,,,,,,,,,,,,,,,,,,,,,,,,,,,,,,,,,,,,,,,,,,,,,,,,,,,,,,,,,,,,,,,,,,,,,,,,,,,,,,,,,,,,,,,,,,,,,,,,,,,,,,,,,,,,,,,,,,,,,,,,,,,,,,,,,
,,,,,,5bd781291fd7c80001bb1fad,62bbfa3900f3c6a4384df57b,2022-06-29_01h16.27.748,Colour_Asymmetry_Pilot,2022.1.3,Win32,59.89817311,62bbe60bf3d75ef465d3e404,0,76,76,84,1,threeone,,,,,,,,,,,,,,,,,,,,,,,,,,,,,,,,,,,,,,,,,,,,,,,,,,,,,,,,,,,,,,,,,,,,,,,,,,,,,,,,,,,,,,,,,,,,,,,,,,,,,,,,,,,,,,,,,,,,,,,,,,,,,,,,,,,,,,,,,,,,,,,,,,,,,,,,
,,,,,,5bd781291fd7c80001bb1fad,62bbfa3900f3c6a4384df57b,2022-06-29_01h16.27.748,Colour_Asymmetry_Pilot,2022.1.3,Win32,59.89817311,62bbe60bf3d75ef465d3e404,0,77,77,33,1,onethree,,,,,,,,,,,,,,,,,,,,,,,,,,,,,,,,,,,,,,,,,,,,,,,,,,,,,,,,,,,,,,,,,,,,,,,,,,,,,,,,,,,,,,,,,,,,,,,,,,,,,,,,,,,,,,,,,,,,,,,,,,,,,,,,,,,,,,,,,,,,,,,,,,,,,,,,
,,,,,,5bd781291fd7c80001bb1fad,62bbfa3900f3c6a4384df57b,2022-06-29_01h16.27.748,Colour_Asymmetry_Pilot,2022.1.3,Win32,59.89817311,62bbe60bf3d75ef465d3e404,0,78,78,4,1,threeone,,,,,,,,,,,,,,,,,,,,,,,,,,,,,,,,,,,,,,,,,,,,,,,,,,,,,,,,,,,,,,,,,,,,,,,,,,,,,,,,,,,,,,,,,,,,,,,,,,,,,,,,,,,,,,,,,,,,,,,,,,,,,,,,,,,,,,,,,,,,,,,,,,,,,,,,
,,,,,,5bd781291fd7c80001bb1fad,62bbfa3900f3c6a4384df57b,2022-06-29_01h16.27.748,Colour_Asymmetry_Pilot,2022.1.3,Win32,59.89817311,62bbe60bf3d75ef465d3e404,0,79,79,45,1,threefour,,,,,,,,,,,,,,,,,,,,,,,,,,,,,,,,,,,,,,,,,,,,,,,,,,,,,,,,,,,,,,,,,,,,,,,,,,,,,,,,,,,,,,,,,,,,,,,,,,,,,,,,,,,,,,,,,,,,,,,,,,,,,,,,,,,,,,,,,,,,,,,,,,,,,,,,
,,,,,,5bd781291fd7c80001bb1fad,62bbfa3900f3c6a4384df57b,2022-06-29_01h16.27.748,Colour_Asymmetry_Pilot,2022.1.3,Win32,59.89817311,62bbe60bf3d75ef465d3e404,0,80,80,64,1,onetwo,,,,,,,,,,,,,,,,,,,,,,,,,,,,,,,,,,,,,,,,,,,,,,,,,,,,,,,,,,,,,,,,,,,,,,,,,,,,,,,,,,,,,,,,,,,,,,,,,,,,,,,,,,,,,,,,,,,,,,,,,,,,,,,,,,,,,,,,,,,,,,,,,,,,,,,,
,,,,,,5bd781291fd7c80001bb1fad,62bbfa3900f3c6a4384df57b,2022-06-29_01h16.27.748,Colour_Asymmetry_Pilot,2022.1.3,Win32,59.89817311,62bbe60bf3d75ef465d3e404,0,81,81,126,1,fourtwo,,,,,,,,,,,,,,,,,,,,,,,,,,,,,,,,,,,,,,,,,,,,,,,,,,,,,,,,,,,,,,,,,,,,,,,,,,,,,,,,,,,,,,,,,,,,,,,,,,,,,,,,,,,,,,,,,,,,,,,,,,,,,,,,,,,,,,,,,,,,,,,,,,,,,,,,
,,,,,,5bd781291fd7c80001bb1fad,62bbfa3900f3c6a4384df57b,2022-06-29_01h16.27.748,Colour_Asymmetry_Pilot,2022.1.3,Win32,59.89817311,62bbe60bf3d75ef465d3e404,0,82,82,23,1,fourthree,,,,,,,,,,,,,,,,,,,,,,,,,,,,,,,,,,,,,,,,,,,,,,,,,,,,,,,,,,,,,,,,,,,,,,,,,,,,,,,,,,,,,,,,,,,,,,,,,,,,,,,,,,,,,,,,,,,,,,,,,,,,,,,,,,,,,,,,,,,,,,,,,,,,,,,,
,,,,,,5bd781291fd7c80001bb1fad,62bbfa3900f3c6a4384df57b,2022-06-29_01h16.27.748,Colour_Asymmetry_Pilot,2022.1.3,Win32,59.89817311,62bbe60bf3d75ef465d3e404,0,83,83,12,1,threeone,,,,,,,,,,,,,,,,,,,,,,,,,,,,,,,,,,,,,,,,,,,,,,,,,,,,,,,,,,,,,,,,,,,,,,,,,,,,,,,,,,,,,,,,,,,,,,,,,,,,,,,,,,,,,,,,,,,,,,,,,,,,,,,,,,,,,,,,,,,,,,,,,,,,,,,,
,,,,,,5bd781291fd7c80001bb1fad,62bbfa3900f3c6a4384df57b,2022-06-29_01h16.27.748,Colour_Asymmetry_Pilot,2022.1.3,Win32,59.89817311,62bbe60bf3d75ef465d3e404,0,84,84,139,1,twofour,,,,,,,,,,,,,,,,,,,,,,,,,,,,,,,,,,,,,,,,,,,,,,,,,,,,,,,,,,,,,,,,,,,,,,,,,,,,,,,,,,,,,,,,,,,,,,,,,,,,,,,,,,,,,,,,,,,,,,,,,,,,,,,,,,,,,,,,,,,,,,,,,,,,,,,,
,,,,,,5bd781291fd7c80001bb1fad,62bbfa3900f3c6a4384df57b,2022-06-29_01h16.27.748,Colour_Asymmetry_Pilot,2022.1.3,Win32,59.89817311,62bbe60bf3d75ef465d3e404,0,85,85,152,1,onetwo,,,,,,,,,,,,,,,,,,,,,,,,,,,,,,,,,,,,,,,,,,,,,,,,,,,,,,,,,,,,,,,,,,,,,,,,,,,,,,,,,,,,,,,,,,,,,,,,,,,,,,,,,,,,,,,,,,,,,,,,,,,,,,,,,,,,,,,,,,,,,,,,,,,,,,,,
,,,,,,5bd781291fd7c80001bb1fad,62bbfa3900f3c6a4384df57b,2022-06-29_01h16.27.748,Colour_Asymmetry_Pilot,2022.1.3,Win32,59.89817311,62bbe60bf3d75ef465d3e404,0,86,86,16,1,onetwo,,,,,,,,,,,,,,,,,,,,,,,,,,,,,,,,,,,,,,,,,,,,,,,,,,,,,,,,,,,,,,,,,,,,,,,,,,,,,,,,,,,,,,,,,,,,,,,,,,,,,,,,,,,,,,,,,,,,,,,,,,,,,,,,,,,,,,,,,,,,,,,,,,,,,,,,
,,,,,,5bd781291fd7c80001bb1fad,62bbfa3900f3c6a4384df57b,2022-06-29_01h16.27.748,Colour_Asymmetry_Pilot,2022.1.3,Win32,59.89817311,62bbe60bf3d75ef465d3e404,0,87,87,72,1,onetwo,,,,,,,,,,,,,,,,,,,,,,,,,,,,,,,,,,,,,,,,,,,,,,,,,,,,,,,,,,,,,,,,,,,,,,,,,,,,,,,,,,,,,,,,,,,,,,,,,,,,,,,,,,,,,,,,,,,,,,,,,,,,,,,,,,,,,,,,,,,,,,,,,,,,,,,,
,,,,,,5bd781291fd7c80001bb1fad,62bbfa3900f3c6a4384df57b,2022-06-29_01h16.27.748,Colour_Asymmetry_Pilot,2022.1.3,Win32,59.89817311,62bbe60bf3d75ef465d3e404,0,88,88,35,1,twofour,,,,,,,,,,,,,,,,,,,,,,,,,,,,,,,,,,,,,,,,,,,,,,,,,,,,,,,,,,,,,,,,,,,,,,,,,,,,,,,,,,,,,,,,,,,,,,,,,,,,,,,,,,,,,,,,,,,,,,,,,,,,,,,,,,,,,,,,,,,,,,,,,,,,,,,,
,,,,,,5bd781291fd7c80001bb1fad,62bbfa3900f3c6a4384df57b,2022-06-29_01h16.27.748,Colour_Asymmetry_Pilot,2022.1.3,Win32,59.89817311,62bbe60bf3d75ef465d3e404,0,89,89,43,1,twofour,,,,,,,,,,,,,,,,,,,,,,,,,,,,,,,,,,,,,,,,,,,,,,,,,,,,,,,,,,,,,,,,,,,,,,,,,,,,,,,,,,,,,,,,,,,,,,,,,,,,,,,,,,,,,,,,,,,,,,,,,,,,,,,,,,,,,,,,,,,,,,,,,,,,,,,,
,,,,,,5bd781291fd7c80001bb1fad,62bbfa3900f3c6a4384df57b,2022-06-29_01h16.27.748,Colour_Asymmetry_Pilot,2022.1.3,Win32,59.89817311,62bbe60bf3d75ef465d3e404,0,90,90,124,1,threeone,,,,,,,,,,,,,,,,,,,,,,,,,,,,,,,,,,,,,,,,,,,,,,,,,,,,,,,,,,,,,,,,,,,,,,,,,,,,,,,,,,,,,,,,,,,,,,,,,,,,,,,,,,,,,,,,,,,,,,,,,,,,,,,,,,,,,,,,,,,,,,,,,,,,,,,,
,,,,,,5bd781291fd7c80001bb1fad,62bbfa3900f3c6a4384df57b,2022-06-29_01h16.27.748,Colour_Asymmetry_Pilot,2022.1.3,Win32,59.89817311,62bbe60bf3d75ef465d3e404,0,91,91,87,1,fourthree,,,,,,,,,,,,,,,,,,,,,,,,,,,,,,,,,,,,,,,,,,,,,,,,,,,,,,,,,,,,,,,,,,,,,,,,,,,,,,,,,,,,,,,,,,,,,,,,,,,,,,,,,,,,,,,,,,,,,,,,,,,,,,,,,,,,,,,,,,,,,,,,,,,,,,,,
,,,,,,5bd781291fd7c80001bb1fad,62bbfa3900f3c6a4384df57b,2022-06-29_01h16.27.748,Colour_Asymmetry_Pilot,2022.1.3,Win32,59.89817311,62bbe60bf3d75ef465d3e404,0,92,92,32,1,onetwo,,,,,,,,,,,,,,,,,,,,,,,,,,,,,,,,,,,,,,,,,,,,,,,,,,,,,,,,,,,,,,,,,,,,,,,,,,,,,,,,,,,,,,,,,,,,,,,,,,,,,,,,,,,,,,,,,,,,,,,,,,,,,,,,,,,,,,,,,,,,,,,,,,,,,,,,
,,,,,,5bd781291fd7c80001bb1fad,62bbfa3900f3c6a4384df57b,2022-06-29_01h16.27.748,Colour_Asymmetry_Pilot,2022.1.3,Win32,59.89817311,62bbe60bf3d75ef465d3e404,0,93,93,0,1,onetwo,,,,,,,,,,,,,,,,,,,,,,,,,,,,,,,,,,,,,,,,,,,,,,,,,,,,,,,,,,,,,,,,,,,,,,,,,,,,,,,,,,,,,,,,,,,,,,,,,,,,,,,,,,,,,,,,,,,,,,,,,,,,,,,,,,,,,,,,,,,,,,,,,,,,,,,,
,,,,,,5bd781291fd7c80001bb1fad,62bbfa3900f3c6a4384df57b,2022-06-29_01h16.27.748,Colour_Asymmetry_Pilot,2022.1.3,Win32,59.89817311,62bbe60bf3d75ef465d3e404,0,94,94,36,1,threeone,,,,,,,,,,,,,,,,,,,,,,,,,,,,,,,,,,,,,,,,,,,,,,,,,,,,,,,,,,,,,,,,,,,,,,,,,,,,,,,,,,,,,,,,,,,,,,,,,,,,,,,,,,,,,,,,,,,,,,,,,,,,,,,,,,,,,,,,,,,,,,,,,,,,,,,,
,,,,,,5bd781291fd7c80001bb1fad,62bbfa3900f3c6a4384df57b,2022-06-29_01h16.27.748,Colour_Asymmetry_Pilot,2022.1.3,Win32,59.89817311,62bbe60bf3d75ef465d3e404,0,95,95,151,1,fourthree,,,,,,,,,,,,,,,,,,,,,,,,,,,,,,,,,,,,,,,,,,,,,,,,,,,,,,,,,,,,,,,,,,,,,,,,,,,,,,,,,,,,,,,,,,,,,,,,,,,,,,,,,,,,,,,,,,,,,,,,,,,,,,,,,,,,,,,,,,,,,,,,,,,,,,,,
,,,,,,5bd781291fd7c80001bb1fad,62bbfa3900f3c6a4384df57b,2022-06-29_01h16.27.748,Colour_Asymmetry_Pilot,2022.1.3,Win32,59.89817311,62bbe60bf3d75ef465d3e404,0,96,96,71,1,fourthree,,,,,,,,,,,,,,,,,,,,,,,,,,,,,,,,,,,,,,,,,,,,,,,,,,,,,,,,,,,,,,,,,,,,,,,,,,,,,,,,,,,,,,,,,,,,,,,,,,,,,,,,,,,,,,,,,,,,,,,,,,,,,,,,,,,,,,,,,,,,,,,,,,,,,,,,
,,,,,,5bd781291fd7c80001bb1fad,62bbfa3900f3c6a4384df57b,2022-06-29_01h16.27.748,Colour_Asymmetry_Pilot,2022.1.3,Win32,59.89817311,62bbe60bf3d75ef465d3e404,0,97,97,135,1,fourthree,,,,,,,,,,,,,,,,,,,,,,,,,,,,,,,,,,,,,,,,,,,,,,,,,,,,,,,,,,,,,,,,,,,,,,,,,,,,,,,,,,,,,,,,,,,,,,,,,,,,,,,,,,,,,,,,,,,,,,,,,,,,,,,,,,,,,,,,,,,,,,,,,,,,,,,,
,,,,,,5bd781291fd7c80001bb1fad,62bbfa3900f3c6a4384df57b,2022-06-29_01h16.27.748,Colour_Asymmetry_Pilot,2022.1.3,Win32,59.89817311,62bbe60bf3d75ef465d3e404,0,98,98,25,1,onethree,,,,,,,,,,,,,,,,,,,,,,,,,,,,,,,,,,,,,,,,,,,,,,,,,,,,,,,,,,,,,,,,,,,,,,,,,,,,,,,,,,,,,,,,,,,,,,,,,,,,,,,,,,,,,,,,,,,,,,,,,,,,,,,,,,,,,,,,,,,,,,,,,,,,,,,,
,,,,,,5bd781291fd7c80001bb1fad,62bbfa3900f3c6a4384df57b,2022-06-29_01h16.27.748,Colour_Asymmetry_Pilot,2022.1.3,Win32,59.89817311,62bbe60bf3d75ef465d3e404,0,99,99,53,1,threefour,,,,,,,,,,,,,,,,,,,,,,,,,,,,,,,,,,,,,,,,,,,,,,,,,,,,,,,,,,,,,,,,,,,,,,,,,,,,,,,,,,,,,,,,,,,,,,,,,,,,,,,,,,,,,,,,,,,,,,,,,,,,,,,,,,,,,,,,,,,,,,,,,,,,,,,,
,,,,,,5bd781291fd7c80001bb1fad,62bbfa3900f3c6a4384df57b,2022-06-29_01h16.27.748,Colour_Asymmetry_Pilot,2022.1.3,Win32,59.89817311,62bbe60bf3d75ef465d3e404,0,100,100,60,1,threeone,,,,,,,,,,,,,,,,,,,,,,,,,,,,,,,,,,,,,,,,,,,,,,,,,,,,,,,,,,,,,,,,,,,,,,,,,,,,,,,,,,,,,,,,,,,,,,,,,,,,,,,,,,,,,,,,,,,,,,,,,,,,,,,,,,,,,,,,,,,,,,,,,,,,,,,,
,,,,,,5bd781291fd7c80001bb1fad,62bbfa3900f3c6a4384df57b,2022-06-29_01h16.27.748,Colour_Asymmetry_Pilot,2022.1.3,Win32,59.89817311,62bbe60bf3d75ef465d3e404,0,101,101,160,1,onetwo,,,,,,,,,,,,,,,,,,,,,,,,,,,,,,,,,,,,,,,,,,,,,,,,,,,,,,,,,,,,,,,,,,,,,,,,,,,,,,,,,,,,,,,,,,,,,,,,,,,,,,,,,,,,,,,,,,,,,,,,,,,,,,,,,,,,,,,,,,,,,,,,,,,,,,,,
,,,,,,5bd781291fd7c80001bb1fad,62bbfa3900f3c6a4384df57b,2022-06-29_01h16.27.748,Colour_Asymmetry_Pilot,2022.1.3,Win32,59.89817311,62bbe60bf3d75ef465d3e404,0,102,102,61,1,threefour,,,,,,,,,,,,,,,,,,,,,,,,,,,,,,,,,,,,,,,,,,,,,,,,,,,,,,,,,,,,,,,,,,,,,,,,,,,,,,,,,,,,,,,,,,,,,,,,,,,,,,,,,,,,,,,,,,,,,,,,,,,,,,,,,,,,,,,,,,,,,,,,,,,,,,,,
,,,,,,5bd781291fd7c80001bb1fad,62bbfa3900f3c6a4384df57b,2022-06-29_01h16.27.748,Colour_Asymmetry_Pilot,2022.1.3,Win32,59.89817311,62bbe60bf3d75ef465d3e404,0,103,103,153,1,onethree,,,,,,,,,,,,,,,,,,,,,,,,,,,,,,,,,,,,,,,,,,,,,,,,,,,,,,,,,,,,,,,,,,,,,,,,,,,,,,,,,,,,,,,,,,,,,,,,,,,,,,,,,,,,,,,,,,,,,,,,,,,,,,,,,,,,,,,,,,,,,,,,,,,,,,,,
,,,,,,5bd781291fd7c80001bb1fad,62bbfa3900f3c6a4384df57b,2022-06-29_01h16.27.748,Colour_Asymmetry_Pilot,2022.1.3,Win32,59.89817311,62bbe60bf3d75ef465d3e404,0,104,104,155,1,twofour,,,,,,,,,,,,,,,,,,,,,,,,,,,,,,,,,,,,,,,,,,,,,,,,,,,,,,,,,,,,,,,,,,,,,,,,,,,,,,,,,,,,,,,,,,,,,,,,,,,,,,,,,,,,,,,,,,,,,,,,,,,,,,,,,,,,,,,,,,,,,,,,,,,,,,,,
,,,,,,5bd781291fd7c80001bb1fad,62bbfa3900f3c6a4384df57b,2022-06-29_01h16.27.748,Colour_Asymmetry_Pilot,2022.1.3,Win32,59.89817311,62bbe60bf3d75ef465d3e404,0,105,105,30,1,fourtwo,,,,,,,,,,,,,,,,,,,,,,,,,,,,,,,,,,,,,,,,,,,,,,,,,,,,,,,,,,,,,,,,,,,,,,,,,,,,,,,,,,,,,,,,,,,,,,,,,,,,,,,,,,,,,,,,,,,,,,,,,,,,,,,,,,,,,,,,,,,,,,,,,,,,,,,,
,,,,,,5bd781291fd7c80001bb1fad,62bbfa3900f3c6a4384df57b,2022-06-29_01h16.27.748,Colour_Asymmetry_Pilot,2022.1.3,Win32,59.89817311,62bbe60bf3d75ef465d3e404,0,106,106,7,1,fourthree,,,,,,,,,,,,,,,,,,,,,,,,,,,,,,,,,,,,,,,,,,,,,,,,,,,,,,,,,,,,,,,,,,,,,,,,,,,,,,,,,,,,,,,,,,,,,,,,,,,,,,,,,,,,,,,,,,,,,,,,,,,,,,,,,,,,,,,,,,,,,,,,,,,,,,,,
,,,,,,5bd781291fd7c80001bb1fad,62bbfa3900f3c6a4384df57b,2022-06-29_01h16.27.748,Colour_Asymmetry_Pilot,2022.1.3,Win32,59.89817311,62bbe60bf3d75ef465d3e404,0,107,107,97,1,onethree,,,,,,,,,,,,,,,,,,,,,,,,,,,,,,,,,,,,,,,,,,,,,,,,,,,,,,,,,,,,,,,,,,,,,,,,,,,,,,,,,,,,,,,,,,,,,,,,,,,,,,,,,,,,,,,,,,,,,,,,,,,,,,,,,,,,,,,,,,,,,,,,,,,,,,,,
,,,,,,5bd781291fd7c80001bb1fad,62bbfa3900f3c6a4384df57b,2022-06-29_01h16.27.748,Colour_Asymmetry_Pilot,2022.1.3,Win32,59.89817311,62bbe60bf3d75ef465d3e404,0,108,108,39,1,fourthree,,,,,,,,,,,,,,,,,,,,,,,,,,,,,,,,,,,,,,,,,,,,,,,,,,,,,,,,,,,,,,,,,,,,,,,,,,,,,,,,,,,,,,,,,,,,,,,,,,,,,,,,,,,,,,,,,,,,,,,,,,,,,,,,,,,,,,,,,,,,,,,,,,,,,,,,
,,,,,,5bd781291fd7c80001bb1fad,62bbfa3900f3c6a4384df57b,2022-06-29_01h16.27.748,Colour_Asymmetry_Pilot,2022.1.3,Win32,59.89817311,62bbe60bf3d75ef465d3e404,0,109,109,154,1,twoone,,,,,,,,,,,,,,,,,,,,,,,,,,,,,,,,,,,,,,,,,,,,,,,,,,,,,,,,,,,,,,,,,,,,,,,,,,,,,,,,,,,,,,,,,,,,,,,,,,,,,,,,,,,,,,,,,,,,,,,,,,,,,,,,,,,,,,,,,,,,,,,,,,,,,,,,
,,,,,,5bd781291fd7c80001bb1fad,62bbfa3900f3c6a4384df57b,2022-06-29_01h16.27.748,Colour_Asymmetry_Pilot,2022.1.3,Win32,59.89817311,62bbe60bf3d75ef465d3e404,0,110,110,94,1,fourtwo,,,,,,,,,,,,,,,,,,,,,,,,,,,,,,,,,,,,,,,,,,,,,,,,,,,,,,,,,,,,,,,,,,,,,,,,,,,,,,,,,,,,,,,,,,,,,,,,,,,,,,,,,,,,,,,,,,,,,,,,,,,,,,,,,,,,,,,,,,,,,,,,,,,,,,,,
,,,,,,5bd781291fd7c80001bb1fad,62bbfa3900f3c6a4384df57b,2022-06-29_01h16.27.748,Colour_Asymmetry_Pilot,2022.1.3,Win32,59.89817311,62bbe60bf3d75ef465d3e404,0,111,111,3,1,twofour,,,,,,,,,,,,,,,,,,,,,,,,,,,,,,,,,,,,,,,,,,,,,,,,,,,,,,,,,,,,,,,,,,,,,,,,,,,,,,,,,,,,,,,,,,,,,,,,,,,,,,,,,,,,,,,,,,,,,,,,,,,,,,,,,,,,,,,,,,,,,,,,,,,,,,,,
,,,,,,5bd781291fd7c80001bb1fad,62bbfa3900f3c6a4384df57b,2022-06-29_01h16.27.748,Colour_Asymmetry_Pilot,2022.1.3,Win32,59.89817311,62bbe60bf3d75ef465d3e404,0,112,112,129,1,onethree,,,,,,,,,,,,,,,,,,,,,,,,,,,,,,,,,,,,,,,,,,,,,,,,,,,,,,,,,,,,,,,,,,,,,,,,,,,,,,,,,,,,,,,,,,,,,,,,,,,,,,,,,,,,,,,,,,,,,,,,,,,,,,,,,,,,,,,,,,,,,,,,,,,,,,,,
,,,,,,5bd781291fd7c80001bb1fad,62bbfa3900f3c6a4384df57b,2022-06-29_01h16.27.748,Colour_Asymmetry_Pilot,2022.1.3,Win32,59.89817311,62bbe60bf3d75ef465d3e404,0,113,113,11,1,twofour,,,,,,,,,,,,,,,,,,,,,,,,,,,,,,,,,,,,,,,,,,,,,,,,,,,,,,,,,,,,,,,,,,,,,,,,,,,,,,,,,,,,,,,,,,,,,,,,,,,,,,,,,,,,,,,,,,,,,,,,,,,,,,,,,,,,,,,,,,,,,,,,,,,,,,,,
,,,,,,5bd781291fd7c80001bb1fad,62bbfa3900f3c6a4384df57b,2022-06-29_01h16.27.748,Colour_Asymmetry_Pilot,2022.1.3,Win32,59.89817311,62bbe60bf3d75ef465d3e404,0,114,114,55,1,fourthree,,,,,,,,,,,,,,,,,,,,,,,,,,,,,,,,,,,,,,,,,,,,,,,,,,,,,,,,,,,,,,,,,,,,,,,,,,,,,,,,,,,,,,,,,,,,,,,,,,,,,,,,,,,,,,,,,,,,,,,,,,,,,,,,,,,,,,,,,,,,,,,,,,,,,,,,
,,,,,,5bd781291fd7c80001bb1fad,62bbfa3900f3c6a4384df57b,2022-06-29_01h16.27.748,Colour_Asymmetry_Pilot,2022.1.3,Win32,59.89817311,62bbe60bf3d75ef465d3e404,0,115,115,21,1,threefour,,,,,,,,,,,,,,,,,,,,,,,,,,,,,,,,,,,,,,,,,,,,,,,,,,,,,,,,,,,,,,,,,,,,,,,,,,,,,,,,,,,,,,,,,,,,,,,,,,,,,,,,,,,,,,,,,,,,,,,,,,,,,,,,,,,,,,,,,,,,,,,,,,,,,,,,
,,,,,,5bd781291fd7c80001bb1fad,62bbfa3900f3c6a4384df57b,2022-06-29_01h16.27.748,Colour_Asymmetry_Pilot,2022.1.3,Win32,59.89817311,62bbe60bf3d75ef465d3e404,0,116,116,67,1,twofour,,,,,,,,,,,,,,,,,,,,,,,,,,,,,,,,,,,,,,,,,,,,,,,,,,,,,,,,,,,,,,,,,,,,,,,,,,,,,,,,,,,,,,,,,,,,,,,,,,,,,,,,,,,,,,,,,,,,,,,,,,,,,,,,,,,,,,,,,,,,,,,,,,,,,,,,
,,,,,,5bd781291fd7c80001bb1fad,62bbfa3900f3c6a4384df57b,2022-06-29_01h16.27.748,Colour_Asymmetry_Pilot,2022.1.3,Win32,59.89817311,62bbe60bf3d75ef465d3e404,0,117,117,28,1,threeone,,,,,,,,,,,,,,,,,,,,,,,,,,,,,,,,,,,,,,,,,,,,,,,,,,,,,,,,,,,,,,,,,,,,,,,,,,,,,,,,,,,,,,,,,,,,,,,,,,,,,,,,,,,,,,,,,,,,,,,,,,,,,,,,,,,,,,,,,,,,,,,,,,,,,,,,
,,,,,,5bd781291fd7c80001bb1fad,62bbfa3900f3c6a4384df57b,2022-06-29_01h16.27.748,Colour_Asymmetry_Pilot,2022.1.3,Win32,59.89817311,62bbe60bf3d75ef465d3e404,0,118,118,14,1,fourtwo,,,,,,,,,,,,,,,,,,,,,,,,,,,,,,,,,,,,,,,,,,,,,,,,,,,,,,,,,,,,,,,,,,,,,,,,,,,,,,,,,,,,,,,,,,,,,,,,,,,,,,,,,,,,,,,,,,,,,,,,,,,,,,,,,,,,,,,,,,,,,,,,,,,,,,,,
,,,,,,5bd781291fd7c80001bb1fad,62bbfa3900f3c6a4384df57b,2022-06-29_01h16.27.748,Colour_Asymmetry_Pilot,2022.1.3,Win32,59.89817311,62bbe60bf3d75ef465d3e404,0,119,119,136,1,onetwo,,,,,,,,,,,,,,,,,,,,,,,,,,,,,,,,,,,,,,,,,,,,,,,,,,,,,,,,,,,,,,,,,,,,,,,,,,,,,,,,,,,,,,,,,,,,,,,,,,,,,,,,,,,,,,,,,,,,,,,,,,,,,,,,,,,,,,,,,,,,,,,,,,,,,,,,
,,,,,,5bd781291fd7c80001bb1fad,62bbfa3900f3c6a4384df57b,2022-06-29_01h16.27.748,Colour_Asymmetry_Pilot,2022.1.3,Win32,59.89817311,62bbe60bf3d75ef465d3e404,0,120,120,103,1,fourthree,,,,,,,,,,,,,,,,,,,,,,,,,,,,,,,,,,,,,,,,,,,,,,,,,,,,,,,,,,,,,,,,,,,,,,,,,,,,,,,,,,,,,,,,,,,,,,,,,,,,,,,,,,,,,,,,,,,,,,,,,,,,,,,,,,,,,,,,,,,,,,,,,,,,,,,,
,,,,,,5bd781291fd7c80001bb1fad,62bbfa3900f3c6a4384df57b,2022-06-29_01h16.27.748,Colour_Asymmetry_Pilot,2022.1.3,Win32,59.89817311,62bbe60bf3d75ef465d3e404,0,121,121,156,1,threeone,,,,,,,,,,,,,,,,,,,,,,,,,,,,,,,,,,,,,,,,,,,,,,,,,,,,,,,,,,,,,,,,,,,,,,,,,,,,,,,,,,,,,,,,,,,,,,,,,,,,,,,,,,,,,,,,,,,,,,,,,,,,,,,,,,,,,,,,,,,,,,,,,,,,,,,,
,,,,,,5bd781291fd7c80001bb1fad,62bbfa3900f3c6a4384df57b,2022-06-29_01h16.27.748,Colour_Asymmetry_Pilot,2022.1.3,Win32,59.89817311,62bbe60bf3d75ef465d3e404,0,122,122,89,1,onethree,,,,,,,,,,,,,,,,,,,,,,,,,,,,,,,,,,,,,,,,,,,,,,,,,,,,,,,,,,,,,,,,,,,,,,,,,,,,,,,,,,,,,,,,,,,,,,,,,,,,,,,,,,,,,,,,,,,,,,,,,,,,,,,,,,,,,,,,,,,,,,,,,,,,,,,,
,,,,,,5bd781291fd7c80001bb1fad,62bbfa3900f3c6a4384df57b,2022-06-29_01h16.27.748,Colour_Asymmetry_Pilot,2022.1.3,Win32,59.89817311,62bbe60bf3d75ef465d3e404,0,123,123,107,1,twofour,,,,,,,,,,,,,,,,,,,,,,,,,,,,,,,,,,,,,,,,,,,,,,,,,,,,,,,,,,,,,,,,,,,,,,,,,,,,,,,,,,,,,,,,,,,,,,,,,,,,,,,,,,,,,,,,,,,,,,,,,,,,,,,,,,,,,,,,,,,,,,,,,,,,,,,,
,,,,,,5bd781291fd7c80001bb1fad,62bbfa3900f3c6a4384df57b,2022-06-29_01h16.27.748,Colour_Asymmetry_Pilot,2022.1.3,Win32,59.89817311,62bbe60bf3d75ef465d3e404,0,124,124,161,1,onethree,,,,,,,,,,,,,,,,,,,,,,,,,,,,,,,,,,,,,,,,,,,,,,,,,,,,,,,,,,,,,,,,,,,,,,,,,,,,,,,,,,,,,,,,,,,,,,,,,,,,,,,,,,,,,,,,,,,,,,,,,,,,,,,,,,,,,,,,,,,,,,,,,,,,,,,,
,,,,,,5bd781291fd7c80001bb1fad,62bbfa3900f3c6a4384df57b,2022-06-29_01h16.27.748,Colour_Asymmetry_Pilot,2022.1.3,Win32,59.89817311,62bbe60bf3d75ef465d3e404,0,125,125,137,1,onethree,,,,,,,,,,,,,,,,,,,,,,,,,,,,,,,,,,,,,,,,,,,,,,,,,,,,,,,,,,,,,,,,,,,,,,,,,,,,,,,,,,,,,,,,,,,,,,,,,,,,,,,,,,,,,,,,,,,,,,,,,,,,,,,,,,,,,,,,,,,,,,,,,,,,,,,,
,,,,,,5bd781291fd7c80001bb1fad,62bbfa3900f3c6a4384df57b,2022-06-29_01h16.27.748,Colour_Asymmetry_Pilot,2022.1.3,Win32,59.89817311,62bbe60bf3d75ef465d3e404,0,126,126,74,1,twoone,,,,,,,,,,,,,,,,,,,,,,,,,,,,,,,,,,,,,,,,,,,,,,,,,,,,,,,,,,,,,,,,,,,,,,,,,,,,,,,,,,,,,,,,,,,,,,,,,,,,,,,,,,,,,,,,,,,,,,,,,,,,,,,,,,,,,,,,,,,,,,,,,,,,,,,,
,,,,,,5bd781291fd7c80001bb1fad,62bbfa3900f3c6a4384df57b,2022-06-29_01h16.27.748,Colour_Asymmetry_Pilot,2022.1.3,Win32,59.89817311,62bbe60bf3d75ef465d3e404,0,127,127,44,1,threeone,,,,,,,,,,,,,,,,,,,,,,,,,,,,,,,,,,,,,,,,,,,,,,,,,,,,,,,,,,,,,,,,,,,,,,,,,,,,,,,,,,,,,,,,,,,,,,,,,,,,,,,,,,,,,,,,,,,,,,,,,,,,,,,,,,,,,,,,,,,,,,,,,,,,,,,,
,,,,,,5bd781291fd7c80001bb1fad,62bbfa3900f3c6a4384df57b,2022-06-29_01h16.27.748,Colour_Asymmetry_Pilot,2022.1.3,Win32,59.89817311,62bbe60bf3d75ef465d3e404,0,128,128,118,1,fourtwo,,,,,,,,,,,,,,,,,,,,,,,,,,,,,,,,,,,,,,,,,,,,,,,,,,,,,,,,,,,,,,,,,,,,,,,,,,,,,,,,,,,,,,,,,,,,,,,,,,,,,,,,,,,,,,,,,,,,,,,,,,,,,,,,,,,,,,,,,,,,,,,,,,,,,,,,
,,,,,,5bd781291fd7c80001bb1fad,62bbfa3900f3c6a4384df57b,2022-06-29_01h16.27.748,Colour_Asymmetry_Pilot,2022.1.3,Win32,59.89817311,62bbe60bf3d75ef465d3e404,0,129,129,117,1,threefour,,,,,,,,,,,,,,,,,,,,,,,,,,,,,,,,,,,,,,,,,,,,,,,,,,,,,,,,,,,,,,,,,,,,,,,,,,,,,,,,,,,,,,,,,,,,,,,,,,,,,,,,,,,,,,,,,,,,,,,,,,,,,,,,,,,,,,,,,,,,,,,,,,,,,,,,
,,,,,,5bd781291fd7c80001bb1fad,62bbfa3900f3c6a4384df57b,2022-06-29_01h16.27.748,Colour_Asymmetry_Pilot,2022.1.3,Win32,59.89817311,62bbe60bf3d75ef465d3e404,0,130,130,66,1,twoone,,,,,,,,,,,,,,,,,,,,,,,,,,,,,,,,,,,,,,,,,,,,,,,,,,,,,,,,,,,,,,,,,,,,,,,,,,,,,,,,,,,,,,,,,,,,,,,,,,,,,,,,,,,,,,,,,,,,,,,,,,,,,,,,,,,,,,,,,,,,,,,,,,,,,,,,
,,,,,,5bd781291fd7c80001bb1fad,62bbfa3900f3c6a4384df57b,2022-06-29_01h16.27.748,Colour_Asymmetry_Pilot,2022.1.3,Win32,59.89817311,62bbe60bf3d75ef465d3e404,0,131,131,101,1,threefour,,,,,,,,,,,,,,,,,,,,,,,,,,,,,,,,,,,,,,,,,,,,,,,,,,,,,,,,,,,,,,,,,,,,,,,,,,,,,,,,,,,,,,,,,,,,,,,,,,,,,,,,,,,,,,,,,,,,,,,,,,,,,,,,,,,,,,,,,,,,,,,,,,,,,,,,
,,,,,,5bd781291fd7c80001bb1fad,62bbfa3900f3c6a4384df57b,2022-06-29_01h16.27.748,Colour_Asymmetry_Pilot,2022.1.3,Win32,59.89817311,62bbe60bf3d75ef465d3e404,0,132,132,76,1,threeone,,,,,,,,,,,,,,,,,,,,,,,,,,,,,,,,,,,,,,,,,,,,,,,,,,,,,,,,,,,,,,,,,,,,,,,,,,,,,,,,,,,,,,,,,,,,,,,,,,,,,,,,,,,,,,,,,,,,,,,,,,,,,,,,,,,,,,,,,,,,,,,,,,,,,,,,
,,,,,,5bd781291fd7c80001bb1fad,62bbfa3900f3c6a4384df57b,2022-06-29_01h16.27.748,Colour_Asymmetry_Pilot,2022.1.3,Win32,59.89817311,62bbe60bf3d75ef465d3e404,0,133,133,92,1,threeone,,,,,,,,,,,,,,,,,,,,,,,,,,,,,,,,,,,,,,,,,,,,,,,,,,,,,,,,,,,,,,,,,,,,,,,,,,,,,,,,,,,,,,,,,,,,,,,,,,,,,,,,,,,,,,,,,,,,,,,,,,,,,,,,,,,,,,,,,,,,,,,,,,,,,,,,
,,,,,,5bd781291fd7c80001bb1fad,62bbfa3900f3c6a4384df57b,2022-06-29_01h16.27.748,Colour_Asymmetry_Pilot,2022.1.3,Win32,59.89817311,62bbe60bf3d75ef465d3e404,0,134,134,10,1,twoone,,,,,,,,,,,,,,,,,,,,,,,,,,,,,,,,,,,,,,,,,,,,,,,,,,,,,,,,,,,,,,,,,,,,,,,,,,,,,,,,,,,,,,,,,,,,,,,,,,,,,,,,,,,,,,,,,,,,,,,,,,,,,,,,,,,,,,,,,,,,,,,,,,,,,,,,
,,,,,,5bd781291fd7c80001bb1fad,62bbfa3900f3c6a4384df57b,2022-06-29_01h16.27.748,Colour_Asymmetry_Pilot,2022.1.3,Win32,59.89817311,62bbe60bf3d75ef465d3e404,0,135,135,48,1,onetwo,,,,,,,,,,,,,,,,,,,,,,,,,,,,,,,,,,,,,,,,,,,,,,,,,,,,,,,,,,,,,,,,,,,,,,,,,,,,,,,,,,,,,,,,,,,,,,,,,,,,,,,,,,,,,,,,,,,,,,,,,,,,,,,,,,,,,,,,,,,,,,,,,,,,,,,,
,,,,,,5bd781291fd7c80001bb1fad,62bbfa3900f3c6a4384df57b,2022-06-29_01h16.27.748,Colour_Asymmetry_Pilot,2022.1.3,Win32,59.89817311,62bbe60bf3d75ef465d3e404,0,136,136,38,1,fourtwo,,,,,,,,,,,,,,,,,,,,,,,,,,,,,,,,,,,,,,,,,,,,,,,,,,,,,,,,,,,,,,,,,,,,,,,,,,,,,,,,,,,,,,,,,,,,,,,,,,,,,,,,,,,,,,,,,,,,,,,,,,,,,,,,,,,,,,,,,,,,,,,,,,,,,,,,
,,,,,,5bd781291fd7c80001bb1fad,62bbfa3900f3c6a4384df57b,2022-06-29_01h16.27.748,Colour_Asymmetry_Pilot,2022.1.3,Win32,59.89817311,62bbe60bf3d75ef465d3e404,0,137,137,50,1,twoone,,,,,,,,,,,,,,,,,,,,,,,,,,,,,,,,,,,,,,,,,,,,,,,,,,,,,,,,,,,,,,,,,,,,,,,,,,,,,,,,,,,,,,,,,,,,,,,,,,,,,,,,,,,,,,,,,,,,,,,,,,,,,,,,,,,,,,,,,,,,,,,,,,,,,,,,
,,,,,,5bd781291fd7c80001bb1fad,62bbfa3900f3c6a4384df57b,2022-06-29_01h16.27.748,Colour_Asymmetry_Pilot,2022.1.3,Win32,59.89817311,62bbe60bf3d75ef465d3e404,0,138,138,115,1,twofour,,,,,,,,,,,,,,,,,,,,,,,,,,,,,,,,,,,,,,,,,,,,,,,,,,,,,,,,,,,,,,,,,,,,,,,,,,,,,,,,,,,,,,,,,,,,,,,,,,,,,,,,,,,,,,,,,,,,,,,,,,,,,,,,,,,,,,,,,,,,,,,,,,,,,,,,
,,,,,,5bd781291fd7c80001bb1fad,62bbfa3900f3c6a4384df57b,2022-06-29_01h16.27.748,Colour_Asymmetry_Pilot,2022.1.3,Win32,59.89817311,62bbe60bf3d75ef465d3e404,0,139,139,49,1,onethree,,,,,,,,,,,,,,,,,,,,,,,,,,,,,,,,,,,,,,,,,,,,,,,,,,,,,,,,,,,,,,,,,,,,,,,,,,,,,,,,,,,,,,,,,,,,,,,,,,,,,,,,,,,,,,,,,,,,,,,,,,,,,,,,,,,,,,,,,,,,,,,,,,,,,,,,
,,,,,,5bd781291fd7c80001bb1fad,62bbfa3900f3c6a4384df57b,2022-06-29_01h16.27.748,Colour_Asymmetry_Pilot,2022.1.3,Win32,59.89817311,62bbe60bf3d75ef465d3e404,0,140,140,133,1,threefour,,,,,,,,,,,,,,,,,,,,,,,,,,,,,,,,,,,,,,,,,,,,,,,,,,,,,,,,,,,,,,,,,,,,,,,,,,,,,,,,,,,,,,,,,,,,,,,,,,,,,,,,,,,,,,,,,,,,,,,,,,,,,,,,,,,,,,,,,,,,,,,,,,,,,,,,
,,,,,,5bd781291fd7c80001bb1fad,62bbfa3900f3c6a4384df57b,2022-06-29_01h16.27.748,Colour_Asymmetry_Pilot,2022.1.3,Win32,59.89817311,62bbe60bf3d75ef465d3e404,0,141,141,5,1,threefour,,,,,,,,,,,,,,,,,,,,,,,,,,,,,,,,,,,,,,,,,,,,,,,,,,,,,,,,,,,,,,,,,,,,,,,,,,,,,,,,,,,,,,,,,,,,,,,,,,,,,,,,,,,,,,,,,,,,,,,,,,,,,,,,,,,,,,,,,,,,,,,,,,,,,,,,
,,,,,,5bd781291fd7c80001bb1fad,62bbfa3900f3c6a4384df57b,2022-06-29_01h16.27.748,Colour_Asymmetry_Pilot,2022.1.3,Win32,59.89817311,62bbe60bf3d75ef465d3e404,0,142,142,131,1,twofour,,,,,,,,,,,,,,,,,,,,,,,,,,,,,,,,,,,,,,,,,,,,,,,,,,,,,,,,,,,,,,,,,,,,,,,,,,,,,,,,,,,,,,,,,,,,,,,,,,,,,,,,,,,,,,,,,,,,,,,,,,,,,,,,,,,,,,,,,,,,,,,,,,,,,,,,
,,,,,,5bd781291fd7c80001bb1fad,62bbfa3900f3c6a4384df57b,2022-06-29_01h16.27.748,Colour_Asymmetry_Pilot,2022.1.3,Win32,59.89817311,62bbe60bf3d75ef465d3e404,0,143,143,29,1,threefour,,,,,,,,,,,,,,,,,,,,,,,,,,,,,,,,,,,,,,,,,,,,,,,,,,,,,,,,,,,,,,,,,,,,,,,,,,,,,,,,,,,,,,,,,,,,,,,,,,,,,,,,,,,,,,,,,,,,,,,,,,,,,,,,,,,,,,,,,,,,,,,,,,,,,,,,
,,,,,,5bd781291fd7c80001bb1fad,62bbfa3900f3c6a4384df57b,2022-06-29_01h16.27.748,Colour_Asymmetry_Pilot,2022.1.3,Win32,59.89817311,62bbe60bf3d75ef465d3e404,0,144,144,112,1,onetwo,,,,,,,,,,,,,,,,,,,,,,,,,,,,,,,,,,,,,,,,,,,,,,,,,,,,,,,,,,,,,,,,,,,,,,,,,,,,,,,,,,,,,,,,,,,,,,,,,,,,,,,,,,,,,,,,,,,,,,,,,,,,,,,,,,,,,,,,,,,,,,,,,,,,,,,,
,,,,,,5bd781291fd7c80001bb1fad,62bbfa3900f3c6a4384df57b,2022-06-29_01h16.27.748,Colour_Asymmetry_Pilot,2022.1.3,Win32,59.89817311,62bbe60bf3d75ef465d3e404,0,145,145,141,1,threefour,,,,,,,,,,,,,,,,,,,,,,,,,,,,,,,,,,,,,,,,,,,,,,,,,,,,,,,,,,,,,,,,,,,,,,,,,,,,,,,,,,,,,,,,,,,,,,,,,,,,,,,,,,,,,,,,,,,,,,,,,,,,,,,,,,,,,,,,,,,,,,,,,,,,,,,,
,,,,,,5bd781291fd7c80001bb1fad,62bbfa3900f3c6a4384df57b,2022-06-29_01h16.27.748,Colour_Asymmetry_Pilot,2022.1.3,Win32,59.89817311,62bbe60bf3d75ef465d3e404,0,146,146,56,1,onetwo,,,,,,,,,,,,,,,,,,,,,,,,,,,,,,,,,,,,,,,,,,,,,,,,,,,,,,,,,,,,,,,,,,,,,,,,,,,,,,,,,,,,,,,,,,,,,,,,,,,,,,,,,,,,,,,,,,,,,,,,,,,,,,,,,,,,,,,,,,,,,,,,,,,,,,,,
,,,,,,5bd781291fd7c80001bb1fad,62bbfa3900f3c6a4384df57b,2022-06-29_01h16.27.748,Colour_Asymmetry_Pilot,2022.1.3,Win32,59.89817311,62bbe60bf3d75ef465d3e404,0,147,147,148,1,threeone,,,,,,,,,,,,,,,,,,,,,,,,,,,,,,,,,,,,,,,,,,,,,,,,,,,,,,,,,,,,,,,,,,,,,,,,,,,,,,,,,,,,,,,,,,,,,,,,,,,,,,,,,,,,,,,,,,,,,,,,,,,,,,,,,,,,,,,,,,,,,,,,,,,,,,,,
,,,,,,5bd781291fd7c80001bb1fad,62bbfa3900f3c6a4384df57b,2022-06-29_01h16.27.748,Colour_Asymmetry_Pilot,2022.1.3,Win32,59.89817311,62bbe60bf3d75ef465d3e404,0,148,148,108,1,threeone,,,,,,,,,,,,,,,,,,,,,,,,,,,,,,,,,,,,,,,,,,,,,,,,,,,,,,,,,,,,,,,,,,,,,,,,,,,,,,,,,,,,,,,,,,,,,,,,,,,,,,,,,,,,,,,,,,,,,,,,,,,,,,,,,,,,,,,,,,,,,,,,,,,,,,,,
,,,,,,5bd781291fd7c80001bb1fad,62bbfa3900f3c6a4384df57b,2022-06-29_01h16.27.748,Colour_Asymmetry_Pilot,2022.1.3,Win32,59.89817311,62bbe60bf3d75ef465d3e404,0,149,149,130,1,twoone,,,,,,,,,,,,,,,,,,,,,,,,,,,,,,,,,,,,,,,,,,,,,,,,,,,,,,,,,,,,,,,,,,,,,,,,,,,,,,,,,,,,,,,,,,,,,,,,,,,,,,,,,,,,,,,,,,,,,,,,,,,,,,,,,,,,,,,,,,,,,,,,,,,,,,,,
,,,,,,5bd781291fd7c80001bb1fad,62bbfa3900f3c6a4384df57b,2022-06-29_01h16.27.748,Colour_Asymmetry_Pilot,2022.1.3,Win32,59.89817311,62bbe60bf3d75ef465d3e404,0,150,150,91,1,twofour,,,,,,,,,,,,,,,,,,,,,,,,,,,,,,,,,,,,,,,,,,,,,,,,,,,,,,,,,,,,,,,,,,,,,,,,,,,,,,,,,,,,,,,,,,,,,,,,,,,,,,,,,,,,,,,,,,,,,,,,,,,,,,,,,,,,,,,,,,,,,,,,,,,,,,,,
,,,,,,5bd781291fd7c80001bb1fad,62bbfa3900f3c6a4384df57b,2022-06-29_01h16.27.748,Colour_Asymmetry_Pilot,2022.1.3,Win32,59.89817311,62bbe60bf3d75ef465d3e404,0,151,151,15,1,fourthree,,,,,,,,,,,,,,,,,,,,,,,,,,,,,,,,,,,,,,,,,,,,,,,,,,,,,,,,,,,,,,,,,,,,,,,,,,,,,,,,,,,,,,,,,,,,,,,,,,,,,,,,,,,,,,,,,,,,,,,,,,,,,,,,,,,,,,,,,,,,,,,,,,,,,,,,
,,,,,,5bd781291fd7c80001bb1fad,62bbfa3900f3c6a4384df57b,2022-06-29_01h16.27.748,Colour_Asymmetry_Pilot,2022.1.3,Win32,59.89817311,62bbe60bf3d75ef465d3e404,0,152,152,113,1,onethree,,,,,,,,,,,,,,,,,,,,,,,,,,,,,,,,,,,,,,,,,,,,,,,,,,,,,,,,,,,,,,,,,,,,,,,,,,,,,,,,,,,,,,,,,,,,,,,,,,,,,,,,,,,,,,,,,,,,,,,,,,,,,,,,,,,,,,,,,,,,,,,,,,,,,,,,
,,,,,,5bd781291fd7c80001bb1fad,62bbfa3900f3c6a4384df57b,2022-06-29_01h16.27.748,Colour_Asymmetry_Pilot,2022.1.3,Win32,59.89817311,62bbe60bf3d75ef465d3e404,0,153,153,82,1,twoone,,,,,,,,,,,,,,,,,,,,,,,,,,,,,,,,,,,,,,,,,,,,,,,,,,,,,,,,,,,,,,,,,,,,,,,,,,,,,,,,,,,,,,,,,,,,,,,,,,,,,,,,,,,,,,,,,,,,,,,,,,,,,,,,,,,,,,,,,,,,,,,,,,,,,,,,
,,,,,,5bd781291fd7c80001bb1fad,62bbfa3900f3c6a4384df57b,2022-06-29_01h16.27.748,Colour_Asymmetry_Pilot,2022.1.3,Win32,59.89817311,62bbe60bf3d75ef465d3e404,0,154,154,121,1,onethree,,,,,,,,,,,,,,,,,,,,,,,,,,,,,,,,,,,,,,,,,,,,,,,,,,,,,,,,,,,,,,,,,,,,,,,,,,,,,,,,,,,,,,,,,,,,,,,,,,,,,,,,,,,,,,,,,,,,,,,,,,,,,,,,,,,,,,,,,,,,,,,,,,,,,,,,
,,,,,,5bd781291fd7c80001bb1fad,62bbfa3900f3c6a4384df57b,2022-06-29_01h16.27.748,Colour_Asymmetry_Pilot,2022.1.3,Win32,59.89817311,62bbe60bf3d75ef465d3e404,0,155,155,132,1,threeone,,,,,,,,,,,,,,,,,,,,,,,,,,,,,,,,,,,,,,,,,,,,,,,,,,,,,,,,,,,,,,,,,,,,,,,,,,,,,,,,,,,,,,,,,,,,,,,,,,,,,,,,,,,,,,,,,,,,,,,,,,,,,,,,,,,,,,,,,,,,,,,,,,,,,,,,
,,,,,,5bd781291fd7c80001bb1fad,62bbfa3900f3c6a4384df57b,2022-06-29_01h16.27.748,Colour_Asymmetry_Pilot,2022.1.3,Win32,59.89817311,62bbe60bf3d75ef465d3e404,0,156,156,157,1,threefour,,,,,,,,,,,,,,,,,,,,,,,,,,,,,,,,,,,,,,,,,,,,,,,,,,,,,,,,,,,,,,,,,,,,,,,,,,,,,,,,,,,,,,,,,,,,,,,,,,,,,,,,,,,,,,,,,,,,,,,,,,,,,,,,,,,,,,,,,,,,,,,,,,,,,,,,
,,,,,,5bd781291fd7c80001bb1fad,62bbfa3900f3c6a4384df57b,2022-06-29_01h16.27.748,Colour_Asymmetry_Pilot,2022.1.3,Win32,59.89817311,62bbe60bf3d75ef465d3e404,0,157,157,2,1,twoone,,,,,,,,,,,,,,,,,,,,,,,,,,,,,,,,,,,,,,,,,,,,,,,,,,,,,,,,,,,,,,,,,,,,,,,,,,,,,,,,,,,,,,,,,,,,,,,,,,,,,,,,,,,,,,,,,,,,,,,,,,,,,,,,,,,,,,,,,,,,,,,,,,,,,,,,
,,,,,,5bd781291fd7c80001bb1fad,62bbfa3900f3c6a4384df57b,2022-06-29_01h16.27.748,Colour_Asymmetry_Pilot,2022.1.3,Win32,59.89817311,62bbe60bf3d75ef465d3e404,0,158,158,41,1,onethree,,,,,,,,,,,,,,,,,,,,,,,,,,,,,,,,,,,,,,,,,,,,,,,,,,,,,,,,,,,,,,,,,,,,,,,,,,,,,,,,,,,,,,,,,,,,,,,,,,,,,,,,,,,,,,,,,,,,,,,,,,,,,,,,,,,,,,,,,,,,,,,,,,,,,,,,
,,,,,,5bd781291fd7c80001bb1fad,62bbfa3900f3c6a4384df57b,2022-06-29_01h16.27.748,Colour_Asymmetry_Pilot,2022.1.3,Win32,59.89817311,62bbe60bf3d75ef465d3e404,0,159,159,78,1,fourtwo,,,,,,,,,,,,,,,,,,,,,,,,,,,,,,,,,,,,,,,,,,,,,,,,,,,,,,,,,,,,,,,,,,,,,,,,,,,,,,,,,,,,,,,,,,,,,,,,,,,,,,,,,,,,,,,,,,,,,,,,,,,,,,,,,,,,,,,,,,,,,,,,,,,,,,,,
,,,,,,5bd781291fd7c80001bb1fad,62bbfa3900f3c6a4384df57b,2022-06-29_01h16.27.748,Colour_Asymmetry_Pilot,2022.1.3,Win32,59.89817311,62bbe60bf3d75ef465d3e404,0,160,160,9,1,onethree,,,,,,,,,,,,,,,,,,,,,,,,,,,,,,,,,,,,,,,,,,,,,,,,,,,,,,,,,,,,,,,,,,,,,,,,,,,,,,,,,,,,,,,,,,,,,,,,,,,,,,,,,,,,,,,,,,,,,,,,,,,,,,,,,,,,,,,,,,,,,,,,,,,,,,,,
,,,,,,5bd781291fd7c80001bb1fad,62bbfa3900f3c6a4384df57b,2022-06-29_01h16.27.748,Colour_Asymmetry_Pilot,2022.1.3,Win32,59.89817311,62bbe60bf3d75ef465d3e404,0,161,161,138,1,twoone,,,,,,,,,,,,,,,,,,,,,,,,,,,,,,,,,,,,,,,,,,,,,,,,,,,,,,,,,,,,,,,,,,,,,,,,,,,,,,,,,,,,,,,,,,,,,,,,,,,,,,,,,,,,,,,,,,,,,,,,,,,,,,,,,,,,,,,,,,,,,,,,,,,,,,,,
,,,,,,5bd781291fd7c80001bb1fad,62bbfa3900f3c6a4384df57b,2022-06-29_01h16.27.748,Colour_Asymmetry_Pilot,2022.1.3,Win32,59.89817311,62bbe60bf3d75ef465d3e404,,,,,,,space,1058.2538,space,49.2449,space,73.7151,space,54.6946,space,10.9231,space,3.7638,"[-0.9688,-0.7412000000000001,-0.4902000000000001]",fourthree,"[-0.26280000000000003,-0.4746,-0.2158]",2,12.0253,92.5,-36.25,1,0,0,response3disk_5,-3.75,6.25,1,0,0,rectangle_8,-3.75,6.25,1,0,0,2,-3.75,6.25,1,0,0,0,0,0,0,1,,,,,,,,,,,,,,,,,,,,,,,,,,,,,,,,,,,,,,,,,,,,,,,,,,,,,,,,,,,,,,,,,,,,,,,,,,,,,,,,,,,,,,,,,,,,,,,,,,,,,,,,,,,
,,,,,,5bd781291fd7c80001bb1fad,62bbfa3900f3c6a4384df57b,2022-06-29_01h16.27.748,Colour_Asymmetry_Pilot,2022.1.3,Win32,59.89817311,62bbe60bf3d75ef465d3e404,,,,,,,,,,,,,,,,,,,"[-0.10599999999999998,-0.15300000000000002,0.15280000000000005]",fourtwo,"[0.7018,0.7802,-0.16079999999999994]",-3,4.5498,-85,36.25,1,0,0,response7disk_5,2.5,0,1,0,0,rectangle_8,2.5,0,1,0,0,2,2.5,0,1,0,0,1,0,1,0,1,,,,,,,,,,,,,,,,,,,,,,,,,,,,,,,,,,,,,,,,,,,,,,,,,,,,,,,,,,,,,,,,,,,,,,,,,,,,,,,,,,,,,,,,,,,,,,,,,,,,,,,,,,,
,,,,,,5bd781291fd7c80001bb1fad,62bbfa3900f3c6a4384df57b,2022-06-29_01h16.27.748,Colour_Asymmetry_Pilot,2022.1.3,Win32,59.89817311,62bbe60bf3d75ef465d3e404,,,,,,,,,,,,,,,,,,,"[-0.2942,-0.24719999999999998,-0.357]",twofour,"[0.37240000000000006,-0.050999999999999934,-0.5216]",-2,3.7004,-82.5,-35,1,0,0,response5disk_5,-3.75,-2.5,1,0,0,rectangle_8,107.5,-38.75,1,0,0,2,16.25,-6.25,1,0,0,2,0,2,0,1,response3disk_7,5,rectangle_4,,,,,,,,,,,,,,,,,,,,,,,,,,,,,,,,,,,,,,,,,,,,,,,,,,,,,,,,,,,,,,,,,,,,,,,,,,,,,,,,,,,,,,,,,,,,,,,,,,,,,,,,
,,,,,,5bd781291fd7c80001bb1fad,62bbfa3900f3c6a4384df57b,2022-06-29_01h16.27.748,Colour_Asymmetry_Pilot,2022.1.3,Win32,59.89817311,62bbe60bf3d75ef465d3e404,,,,,,,,,,,,,,,,,,,"[0.7802,-0.23140000000000005,-0.20799999999999996]",twofour,"[0.9686000000000001,0.3802000000000001,0.19999999999999996]",3,2.7835,102.5,36.25,1,0,0,response1disk_5,5,-6.25,1,0,0,rectangle_8,5,-6.25,1,0,0,2,5,-6.25,1,0,0,3,0,3,0,1,,,,,,,,,,,,,,,,,,,,,,,,,,,,,,,,,,,,,,,,,,,,,,,,,,,,,,,,,,,,,,,,,,,,,,,,,,,,,,,,,,,,,,,,,,,,,,,,,,,,,,,,,,,
,,,,,,5bd781291fd7c80001bb1fad,62bbfa3900f3c6a4384df57b,2022-06-29_01h16.27.748,Colour_Asymmetry_Pilot,2022.1.3,Win32,59.89817311,62bbe60bf3d75ef465d3e404,,,,,,,,,,,,,,,,,,,"[0.2862,0.7802,0.3568]",threeone,"[0.8115999999999999,-0.0040000000000000036,-0.09819999999999995]",-4,3.3498,-47.5,98.75,1,0,0,response7disk_5,-3.75,6.25,1,0,0,rectangle_8,-3.75,6.25,1,0,0,2,-3.75,6.25,1,0,0,4,0,4,0,1,,,,,,,,,,,,,,,,,,,,,,,,,,,,,,,,,,,,,,,,,,,,,,,,,,,,,,,,,,,,,,,,,,,,,,,,,,,,,,,,,,,,,,,,,,,,,,,,,,,,,,,,,,,
,,,,,,5bd781291fd7c80001bb1fad,62bbfa3900f3c6a4384df57b,2022-06-29_01h16.27.748,Colour_Asymmetry_Pilot,2022.1.3,Win32,59.89817311,62bbe60bf3d75ef465d3e404,,,,,,,,,,,,,,,,,,,"[-0.5922000000000001,-0.7492000000000001,-0.5296000000000001]",onetwo,"[0.23120000000000007,-0.7726,-0.34120000000000006]",1,3.6163,42.5,-87.5,1,0,0,response3disk_5,-10,-7.5,1,0,0,rectangle_8,95,-41.25,1,0,0,2,0,-2.5,1,0,0,5,0,5,0,1,response3disk_7,5,rectangle_4,,,,,,,,,,,,,,,,,,,,,,,,,,,,,,,,,,,,,,,,,,,,,,,,,,,,,,,,,,,,,,,,,,,,,,,,,,,,,,,,,,,,,,,,,,,,,,,,,,,,,,,,
,,,,,,5bd781291fd7c80001bb1fad,62bbfa3900f3c6a4384df57b,2022-06-29_01h16.27.748,Colour_Asymmetry_Pilot,2022.1.3,Win32,59.89817311,62bbe60bf3d75ef465d3e404,,,,,,,,,,,,,,,,,,,"[0.7802,-0.23140000000000005,-0.20799999999999996]",twoone,"[-0.20799999999999996,-0.655,-0.01980000000000004]",-3,1.8332,-88.75,37.5,1,0,0,response7disk_5,-2.5,3.75,1,0,0,rectangle_8,-2.5,3.75,1,0,0,2,-2.5,3.75,1,0,0,6,0,6,0,1,,,,,,,,,,,,,,,,,,,,,,,,,,,,,,,,,,,,,,,,,,,,,,,,,,,,,,,,,,,,,,,,,,,,,,,,,,,,,,,,,,,,,,,,,,,,,,,,,,,,,,,,,,,
,,,,,,5bd781291fd7c80001bb1fad,62bbfa3900f3c6a4384df57b,2022-06-29_01h16.27.748,Colour_Asymmetry_Pilot,2022.1.3,Win32,59.89817311,62bbe60bf3d75ef465d3e404,,,,,,,,,,,,,,,,,,,,twofour,,2,2.7003,,,,,,,,,,,,,,,,,,,,,,,,,,,,,,,,space,3.89,"[-0.17659999999999998,0.3253999999999999,0.19999999999999996]","[-0.9766,-0.34920000000000007,0.2156]",121.25,-61.25,1,0,0,response3disk,5,-11.25,1,0,0,rectangle,5,-11.25,1,0,0,,2,0.002,0,5,-11.25,1,0,0,0,0,0,108,1,27,second,,,,,,,,,,,,,,,,,,,,,,,,,,,,,,,,,,,,,,,,,,,,,,,,,,,,,,,,,,,,,,,,,,,
,,,,,,5bd781291fd7c80001bb1fad,62bbfa3900f3c6a4384df57b,2022-06-29_01h16.27.748,Colour_Asymmetry_Pilot,2022.1.3,Win32,59.89817311,62bbe60bf3d75ef465d3e404,,,,,,,,,,,,,,,,,,,,onetwo,,2,4.9498,,,,,,,,,,,,,,,,,,,,,,,,,,,,,,,,,,"[0.0351999999999999,0.41159999999999997,0.0038000000000000256]","[-0.07459999999999989,0.12139999999999995,-0.9922]",120,-28.75,1,0,0,response3disk,2.5,7.5,1,0,0,rectangle,2.5,7.5,1,0,0,,2,0.0004,0,2.5,7.5,1,0,0,0,1,1,115,1,34,second,,,,,,,,,,,,,,,,,,,,,,,,,,,,,,,,,,,,,,,,,,,,,,,,,,,,,,,,,,,,,,,,,,,
,,,,,,5bd781291fd7c80001bb1fad,62bbfa3900f3c6a4384df57b,2022-06-29_01h16.27.748,Colour_Asymmetry_Pilot,2022.1.3,Win32,59.89817311,62bbe60bf3d75ef465d3e404,,,,,,,,,,,,,,,,,,,,fourtwo,,-2,4.2832,,,,,,,,,,,,,,,,,,,,,,,,,,,,,,,,,,"[-0.24719999999999998,0.5213999999999999,-0.12959999999999994]","[0.7018,0.7802,-0.16079999999999994]",-108.75,-80,1,0,0,response5disk,-2.5,-2.5,1,0,0,rectangle,-2.5,-2.5,1,0,0,,1,0.0019,0,-2.5,-2.5,1,0,0,0,2,2,79,1,79,first,,,,,,,,,,,,,,,,,,,,,,,,,,,,,,,,,,,,,,,,,,,,,,,,,,,,,,,,,,,,,,,,,,,
,,,,,,5bd781291fd7c80001bb1fad,62bbfa3900f3c6a4384df57b,2022-06-29_01h16.27.748,Colour_Asymmetry_Pilot,2022.1.3,Win32,59.89817311,62bbe60bf3d75ef465d3e404,,,,,,,,,,,,,,,,,,,,twoone,,1,2.6497,,,,,,,,,,,,,,,,,,,,,,,,,,,,,,,,,,"[-0.38039999999999996,-0.4276,-0.1452]","[-0.4746,-0.0354000000000001,0.5449999999999999]",27.5,-96.25,1,0,0,response3disk,-10,0,1,0,0,rectangle,-10,0,1,0,0,,3,0.0018,0,-10,0,1,0,0,0,3,3,111,1,30,second,,,,,,,,,,,,,,,,,,,,,,,,,,,,,,,,,,,,,,,,,,,,,,,,,,,,,,,,,,,,,,,,,,,
,,,,,,5bd781291fd7c80001bb1fad,62bbfa3900f3c6a4384df57b,2022-06-29_01h16.27.748,Colour_Asymmetry_Pilot,2022.1.3,Win32,59.89817311,62bbe60bf3d75ef465d3e404,,,,,,,,,,,,,,,,,,,,threefour,,1,1.7998,,,,,,,,,,,,,,,,,,,,,,,,,,,,,,,,,,"[-0.38039999999999996,-0.4276,-0.1452]","[-0.8982,-0.37259999999999993,0.2784]",35,-75,1,0,0,response3disk,3.75,1.25,1,0,0,rectangle,3.75,1.25,1,0,0,,3,0.0002,0,3.75,1.25,1,0,0,0,4,4,154,1,73,second,,,,,,,,,,,,,,,,,,,,,,,,,,,,,,,,,,,,,,,,,,,,,,,,,,,,,,,,,,,,,,,,,,,
,,,,,,5bd781291fd7c80001bb1fad,62bbfa3900f3c6a4384df57b,2022-06-29_01h16.27.748,Colour_Asymmetry_Pilot,2022.1.3,Win32,59.89817311,62bbe60bf3d75ef465d3e404,,,,,,,,,,,,,,,,,,,,fourtwo,,1,0.9834,,,,,,,,,,,,,,,,,,,,,,,,,,,,,,,,,,"[-0.5688,-0.08239999999999992,-0.1844]","[-0.9688,-0.7412000000000001,-0.4902000000000001]",42.5,-72.5,1,0,0,response3disk,-5,2.5,1,0,0,rectangle,-5,2.5,1,0,0,,1,0.0018,0,-5,2.5,1,0,0,0,5,5,101,1,20,second,,,,,,,,,,,,,,,,,,,,,,,,,,,,,,,,,,,,,,,,,,,,,,,,,,,,,,,,,,,,,,,,,,,
,,,,,,5bd781291fd7c80001bb1fad,62bbfa3900f3c6a4384df57b,2022-06-29_01h16.27.748,Colour_Asymmetry_Pilot,2022.1.3,Win32,59.89817311,62bbe60bf3d75ef465d3e404,,,,,,,,,,,,,,,,,,,,twoone,,-3,2.3998,,,,,,,,,,,,,,,,,,,,,,,,,,,,,,,,,,"[-0.2942,-0.24719999999999998,-0.357]","[0.7802,-0.23140000000000005,-0.20799999999999996]",-97.5,18.75,1,0,0,response7disk,-6.25,2.5,1,0,0,rectangle,-6.25,2.5,1,0,0,,2,0.0018,0,-6.25,2.5,1,0,0,0,6,6,38,1,38,first,,,,,,,,,,,,,,,,,,,,,,,,,,,,,,,,,,,,,,,,,,,,,,,,,,,,,,,,,,,,,,,,,,,
,,,,,,5bd781291fd7c80001bb1fad,62bbfa3900f3c6a4384df57b,2022-06-29_01h16.27.748,Colour_Asymmetry_Pilot,2022.1.3,Win32,59.89817311,62bbe60bf3d75ef465d3e404,,,,,,,,,,,,,,,,,,,,onetwo,,-4,0.8331,,,,,,,,,,,,,,,,,,,,,,,,,,,,,,,,,,"[0.9842,0.7409999999999999,-0.6628000000000001]","[0.12939999999999996,-0.2864,0.3253999999999999]",-36.25,88.75,1,0,0,response7disk,-10,3.75,1,0,0,rectangle,-10,3.75,1,0,0,,3,0.0018,0,-10,3.75,1,0,0,0,7,7,61,1,61,first,,,,,,,,,,,,,,,,,,,,,,,,,,,,,,,,,,,,,,,,,,,,,,,,,,,,,,,,,,,,,,,,,,,
,,,,,,5bd781291fd7c80001bb1fad,62bbfa3900f3c6a4384df57b,2022-06-29_01h16.27.748,Colour_Asymmetry_Pilot,2022.1.3,Win32,59.89817311,62bbe60bf3d75ef465d3e404,,,,,,,,,,,,,,,,,,,,threefour,,1,1.3358,,,,,,,,,,,,,,,,,,,,,,,,,,,,,,,,,,"[0.9763999999999999,-0.1137999999999999,-0.6314]","[-0.06680000000000008,-0.45100000000000007,-0.906]",51.25,-76.25,1,0,0,response3disk,6.25,3.75,1,0,0,rectangle,6.25,3.75,1,0,0,,1,0.0019,0,6.25,3.75,1,0,0,0,8,8,22,1,22,first,,,,,,,,,,,,,,,,,,,,,,,,,,,,,,,,,,,,,,,,,,,,,,,,,,,,,,,,,,,,,,,,,,,
,,,,,,5bd781291fd7c80001bb1fad,62bbfa3900f3c6a4384df57b,2022-06-29_01h16.27.748,Colour_Asymmetry_Pilot,2022.1.3,Win32,59.89817311,62bbe60bf3d75ef465d3e404,,,,,,,,,,,,,,,,,,,,fourthree,,1,0.8834,,,,,,,,,,,,,,,,,,,,,,,,,,,,,,,,,,"[-0.8118,-0.8198,-0.5452]","[0.09799999999999986,-0.24719999999999998,0.15280000000000005]",46.25,-77.5,1,0,0,response3disk,-2.5,-3.75,1,0,0,rectangle,86.25,-30,1,0,0,2,2,1.5322,1,5,10,1,0,0,0,9,9,76,1,76,first,response3disk_3,rectangle,,,,,,,,,,,,,,,,,,,,,,,,,,,,,,,,,,,,,,,,,,,,,,,,,,,,,,,,,,,,,,,,,
,,,,,,5bd781291fd7c80001bb1fad,62bbfa3900f3c6a4384df57b,2022-06-29_01h16.27.748,Colour_Asymmetry_Pilot,2022.1.3,Win32,59.89817311,62bbe60bf3d75ef465d3e404,,,,,,,,,,,,,,,,,,,,twoone,,1,2.5666,,,,,,,,,,,,,,,,,,,,,,,,,,,,,,,,,,"[0.7176,-0.906,-0.6864]","[0.3568,-0.20799999999999996,-0.9844]",47.5,-71.25,1,0,0,response3disk,1.25,11.25,1,0,0,rectangle,85,-26.25,1,0,0,2,2,2.3165,1,-6.25,0,1,0,0,0,10,10,11,1,11,first,response3disk_3,rectangle,,,,,,,,,,,,,,,,,,,,,,,,,,,,,,,,,,,,,,,,,,,,,,,,,,,,,,,,,,,,,,,,,
,,,,,,5bd781291fd7c80001bb1fad,62bbfa3900f3c6a4384df57b,2022-06-29_01h16.27.748,Colour_Asymmetry_Pilot,2022.1.3,Win32,59.89817311,62bbe60bf3d75ef465d3e404,,,,,,,,,,,,,,,,,,,,onethree,,1,3.5664,,,,,,,,,,,,,,,,,,,,,,,,,,,,,,,,,,"[-0.06680000000000008,-0.45100000000000007,-0.906]","[0.9763999999999999,-0.1137999999999999,-0.6314]",52.5,-73.75,1,0,0,response3disk,-2.5,0,1,0,0,rectangle,-2.5,0,1,0,0,2,1,0.0019,0,-2.5,0,1,0,0,0,11,11,103,1,22,second,,,,,,,,,,,,,,,,,,,,,,,,,,,,,,,,,,,,,,,,,,,,,,,,,,,,,,,,,,,,,,,,,,,
,,,,,,5bd781291fd7c80001bb1fad,62bbfa3900f3c6a4384df57b,2022-06-29_01h16.27.748,Colour_Asymmetry_Pilot,2022.1.3,Win32,59.89817311,62bbe60bf3d75ef465d3e404,,,,,,,,,,,,,,,,,,,,onethree,,3,1.1167,,,,,,,,,,,,,,,,,,,,,,,,,,,,,,,,,,"[-0.6235999999999999,-0.6786,-0.08239999999999992]","[-0.9216,-0.5529999999999999,-0.3962]",78.75,32.5,1,0,0,response1disk,-6.25,-7.5,1,0,0,rectangle,-6.25,-7.5,1,0,0,2,2,0.0018,0,-6.25,-7.5,1,0,0,0,12,12,40,1,40,first,,,,,,,,,,,,,,,,,,,,,,,,,,,,,,,,,,,,,,,,,,,,,,,,,,,,,,,,,,,,,,,,,,,
,,,,,,5bd781291fd7c80001bb1fad,62bbfa3900f3c6a4384df57b,2022-06-29_01h16.27.748,Colour_Asymmetry_Pilot,2022.1.3,Win32,59.89817311,62bbe60bf3d75ef465d3e404,,,,,,,,,,,,,,,,,,,,threeone,,-2,1.9332,,,,,,,,,,,,,,,,,,,,,,,,,,,,,,,,,,"[-0.9296,-0.12959999999999994,-0.043199999999999905]","[0.2784,-0.31000000000000005,-0.5452]",-93.75,-63.75,1,0,0,response5disk,11.25,0,1,0,0,rectangle,11.25,0,1,0,0,2,2,9.99999E-05,0,11.25,0,1,0,0,0,13,13,69,1,69,first,,,,,,,,,,,,,,,,,,,,,,,,,,,,,,,,,,,,,,,,,,,,,,,,,,,,,,,,,,,,,,,,,,,
,,,,,,5bd781291fd7c80001bb1fad,62bbfa3900f3c6a4384df57b,2022-06-29_01h16.27.748,Colour_Asymmetry_Pilot,2022.1.3,Win32,59.89817311,62bbe60bf3d75ef465d3e404,,,,,,,,,,,,,,,,,,,,twofour,,-1,1.1164,,,,,,,,,,,,,,,,,,,,,,,,,,,,,,,,,,"[-0.011800000000000033,-0.906,-0.45100000000000007]","[0.8274000000000001,-0.5844,-0.9452]",-32.5,-76.25,1,0,0,response5disk,-2.5,-7.5,1,0,0,rectangle,-2.5,-7.5,1,0,0,2,2,0.0002,0,-2.5,-7.5,1,0,0,0,14,14,46,1,46,first,,,,,,,,,,,,,,,,,,,,,,,,,,,,,,,,,,,,,,,,,,,,,,,,,,,,,,,,,,,,,,,,,,,
,,,,,,5bd781291fd7c80001bb1fad,62bbfa3900f3c6a4384df57b,2022-06-29_01h16.27.748,Colour_Asymmetry_Pilot,2022.1.3,Win32,59.89817311,62bbe60bf3d75ef465d3e404,,,,,,,,,,,,,,,,,,,,onethree,,-3,0.7831,,,,,,,,,,,,,,,,,,,,,,,,,,,,,,,,,,"[0.37240000000000006,-0.050999999999999934,-0.5216]","[0.0351999999999999,0.41159999999999997,0.0038000000000000256]",-91.25,38.75,1,0,0,response7disk,5,2.5,1,0,0,rectangle,5,2.5,1,0,0,2,1,0.0019,0,5,2.5,1,0,0,0,15,15,68,1,68,first,,,,,,,,,,,,,,,,,,,,,,,,,,,,,,,,,,,,,,,,,,,,,,,,,,,,,,,,,,,,,,,,,,,
,,,,,,5bd781291fd7c80001bb1fad,62bbfa3900f3c6a4384df57b,2022-06-29_01h16.27.748,Colour_Asymmetry_Pilot,2022.1.3,Win32,59.89817311,62bbe60bf3d75ef465d3e404,,,,,,,,,,,,,,,,,,,,fourthree,,-2,2.3499,,,,,,,,,,,,,,,,,,,,,,,,,,,,,,,,,,"[-0.01980000000000004,-0.5138,-0.38039999999999996]","[0.05879999999999996,0.2784,0.5841999999999998]",-103.75,-58.75,1,0,0,response5disk,8.75,-3.75,1,0,0,rectangle,8.75,-3.75,1,0,0,2,2,0.0018,0,8.75,-3.75,1,0,0,0,16,16,143,1,62,second,,,,,,,,,,,,,,,,,,,,,,,,,,,,,,,,,,,,,,,,,,,,,,,,,,,,,,,,,,,,,,,,,,,
,,,,,,5bd781291fd7c80001bb1fad,62bbfa3900f3c6a4384df57b,2022-06-29_01h16.27.748,Colour_Asymmetry_Pilot,2022.1.3,Win32,59.89817311,62bbe60bf3d75ef465d3e404,,,,,,,,,,,,,,,,,,,,fourtwo,,-4,1.3498,,,,,,,,,,,,,,,,,,,,,,,,,,,,,,,,,,"[0.6625999999999999,0.4980000000000002,-0.357]","[-0.9688,-0.4902000000000001,-0.12159999999999993]",-45,73.75,1,0,0,response7disk,2.5,3.75,1,0,0,rectangle,2.5,3.75,1,0,0,2,3,0.0017,0,2.5,3.75,1,0,0,0,17,17,1,1,1,first,,,,,,,,,,,,,,,,,,,,,,,,,,,,,,,,,,,,,,,,,,,,,,,,,,,,,,,,,,,,,,,,,,,
,,,,,,5bd781291fd7c80001bb1fad,62bbfa3900f3c6a4384df57b,2022-06-29_01h16.27.748,Colour_Asymmetry_Pilot,2022.1.3,Win32,59.89817311,62bbe60bf3d75ef465d3e404,,,,,,,,,,,,,,,,,,,,twofour,,-4,0.7833,,,,,,,,,,,,,,,,,,,,,,,,,,,,,,,,,,"[-0.9844,-0.9688,-0.9922]","[0.2784,-0.31000000000000005,-0.5452]",-38.75,67.5,1,0,0,response7disk,-8.75,6.25,1,0,0,rectangle,-8.75,6.25,1,0,0,2,2,0.0017,0,-8.75,6.25,1,0,0,0,18,18,144,1,63,second,,,,,,,,,,,,,,,,,,,,,,,,,,,,,,,,,,,,,,,,,,,,,,,,,,,,,,,,,,,,,,,,,,,
,,,,,,5bd781291fd7c80001bb1fad,62bbfa3900f3c6a4384df57b,2022-06-29_01h16.27.748,Colour_Asymmetry_Pilot,2022.1.3,Win32,59.89817311,62bbe60bf3d75ef465d3e404,,,,,,,,,,,,,,,,,,,,threeone,,1,1.85,,,,,,,,,,,,,,,,,,,,,,,,,,,,,,,,,,"[0.3568,-0.20799999999999996,-0.9844]","[0.7176,-0.906,-0.6864]",38.75,-82.5,1,0,0,response3disk,1.25,-7.5,1,0,0,rectangle,1.25,-7.5,1,0,0,2,3,0.0016,0,1.25,-7.5,1,0,0,0,19,19,92,1,11,second,,,,,,,,,,,,,,,,,,,,,,,,,,,,,,,,,,,,,,,,,,,,,,,,,,,,,,,,,,,,,,,,,,,
