trials.thisRepN,trials.thisTrialN,trials.thisN,trials.thisIndex,trials.ran,Colourcodes,participant,session,date,expName,psychopyVersion,OS,frameRate,study_id,trials_4.thisRepN,trials_4.thisTrialN,trials_4.thisN,trials_4.thisIndex,trials_4.ran,StimulusPos,key_resp.keys,key_resp.rt,key_resp_2.keys,key_resp_2.rt,key_resp_15.keys,key_resp_15.rt,key_resp_17.keys,key_resp_17.rt,key_resp_9.keys,key_resp_9.rt,key_resp_10.keys,key_resp_10.rt,Circle1_col,Ecc,Circle2_col,similarity,response_time,mouse_5.x,mouse_5.y,mouse_5.leftButton,mouse_5.midButton,mouse_5.rightButton,mouse_5.clicked_name,mouse_10.x,mouse_10.y,mouse_10.leftButton,mouse_10.midButton,mouse_10.rightButton,mouse_10.clicked_name,mouse_7.x,mouse_7.y,mouse_7.leftButton,mouse_7.midButton,mouse_7.rightButton,catchnumberprac,mouse_6.x,mouse_6.y,mouse_6.leftButton,mouse_6.midButton,mouse_6.rightButton,duringprac.thisRepN,duringprac.thisTrialN,duringprac.thisN,duringprac.thisIndex,duringprac.ran,mouse_7.clicked_name,catchprac,mouse_6.clicked_name,key_resp_22.keys,key_resp_22.rt,Circle1_colour,Circle2_colour,mouse.x,mouse.y,mouse.leftButton,mouse.midButton,mouse.rightButton,mouse.clicked_name,mouse_2.x,mouse_2.y,mouse_2.leftButton,mouse_2.midButton,mouse_2.rightButton,mouse_2.clicked_name,mouse_3.x,mouse_3.y,mouse_3.leftButton,mouse_3.midButton,mouse_3.rightButton,catchresponse,catchnumber,response_time_catch,Catch,mouse_11.x,mouse_11.y,mouse_11.leftButton,mouse_11.midButton,mouse_11.rightButton,trials_2.thisRepN,trials_2.thisTrialN,trials_2.thisN,trials_2.thisIndex,trials_2.ran,Colourpair,Temporder,mouse_3.clicked_name,mouse_11.clicked_name,trials_3.thisRepN,trials_3.thisTrialN,trials_3.thisN,trials_3.thisIndex,trials_3.ran,key_resp_instr_Ishi.keys,key_resp_instr_Ishi.rt,Ishi_trial_keyresp.keys,Ishi_trial_keyresp.rt,Ishi_textbox.text,Ishi_loop.thisRepN,Ishi_loop.thisTrialN,Ishi_loop.thisN,Ishi_loop.thisIndex,Ishi_loop.ran,imageaddress,textbox.text,mouse_4.x,mouse_4.y,mouse_4.leftButton,mouse_4.midButton,mouse_4.rightButton,mouse_4.clicked_name,textbox_2.text,mouse_8.x,mouse_8.y,mouse_8.leftButton,mouse_8.midButton,mouse_8.rightButton,mouse_8.clicked_name,textbox_3.text,mouse_9.x,mouse_9.y,mouse_9.leftButton,mouse_9.midButton,mouse_9.rightButton,mouse_9.clicked_name,textbox_4.text,mouse_12.x,mouse_12.y,mouse_12.leftButton,mouse_12.midButton,mouse_12.rightButton,mouse_12.clicked_name,textbox_5.text,mouse_13.x,mouse_13.y,mouse_13.leftButton,mouse_13.midButton,mouse_13.rightButton,mouse_13.clicked_name,textbox_6.text,mouse_14.x,mouse_14.y,mouse_14.leftButton,mouse_14.midButton,mouse_14.rightButton,mouse_14.clicked_name,textbox_7.text,mouse_15.x,mouse_15.y,mouse_15.leftButton,mouse_15.midButton,mouse_15.rightButton,mouse_15.clicked_name
0,0,0,72,1,,6166e6308c20d5b2777a0634,62bbfa9cc5f6bda3b95cb4b0,2022-06-29_09h09.36.664,Colour_Asymmetry_Pilot,2022.1.3,Win32,60.19382411,62bbe60bf3d75ef465d3e404,,,,,,,,,,,,,,,,,,,,,,,,,,,,,,,,,,,,,,,,,,,,,,,,,,,,,,,,,,,,,,,,,,,,,,,,,,,,,,,,,,,,,,,,,,,,,,,,,,,,,,,,,,,,,,,,,,,,,,,,,,,,,,,,,,,,,,,,,,,,,,,,,,,,,,,,,,,,,,
0,1,1,53,1,,6166e6308c20d5b2777a0634,62bbfa9cc5f6bda3b95cb4b0,2022-06-29_09h09.36.664,Colour_Asymmetry_Pilot,2022.1.3,Win32,60.19382411,62bbe60bf3d75ef465d3e404,,,,,,,,,,,,,,,,,,,,,,,,,,,,,,,,,,,,,,,,,,,,,,,,,,,,,,,,,,,,,,,,,,,,,,,,,,,,,,,,,,,,,,,,,,,,,,,,,,,,,,,,,,,,,,,,,,,,,,,,,,,,,,,,,,,,,,,,,,,,,,,,,,,,,,,,,,,,,,
0,2,2,51,1,,6166e6308c20d5b2777a0634,62bbfa9cc5f6bda3b95cb4b0,2022-06-29_09h09.36.664,Colour_Asymmetry_Pilot,2022.1.3,Win32,60.19382411,62bbe60bf3d75ef465d3e404,,,,,,,,,,,,,,,,,,,,,,,,,,,,,,,,,,,,,,,,,,,,,,,,,,,,,,,,,,,,,,,,,,,,,,,,,,,,,,,,,,,,,,,,,,,,,,,,,,,,,,,,,,,,,,,,,,,,,,,,,,,,,,,,,,,,,,,,,,,,,,,,,,,,,,,,,,,,,,
0,3,3,57,1,,6166e6308c20d5b2777a0634,62bbfa9cc5f6bda3b95cb4b0,2022-06-29_09h09.36.664,Colour_Asymmetry_Pilot,2022.1.3,Win32,60.19382411,62bbe60bf3d75ef465d3e404,,,,,,,,,,,,,,,,,,,,,,,,,,,,,,,,,,,,,,,,,,,,,,,,,,,,,,,,,,,,,,,,,,,,,,,,,,,,,,,,,,,,,,,,,,,,,,,,,,,,,,,,,,,,,,,,,,,,,,,,,,,,,,,,,,,,,,,,,,,,,,,,,,,,,,,,,,,,,,
0,4,4,17,1,,6166e6308c20d5b2777a0634,62bbfa9cc5f6bda3b95cb4b0,2022-06-29_09h09.36.664,Colour_Asymmetry_Pilot,2022.1.3,Win32,60.19382411,62bbe60bf3d75ef465d3e404,,,,,,,,,,,,,,,,,,,,,,,,,,,,,,,,,,,,,,,,,,,,,,,,,,,,,,,,,,,,,,,,,,,,,,,,,,,,,,,,,,,,,,,,,,,,,,,,,,,,,,,,,,,,,,,,,,,,,,,,,,,,,,,,,,,,,,,,,,,,,,,,,,,,,,,,,,,,,,
0,5,5,35,1,,6166e6308c20d5b2777a0634,62bbfa9cc5f6bda3b95cb4b0,2022-06-29_09h09.36.664,Colour_Asymmetry_Pilot,2022.1.3,Win32,60.19382411,62bbe60bf3d75ef465d3e404,,,,,,,,,,,,,,,,,,,,,,,,,,,,,,,,,,,,,,,,,,,,,,,,,,,,,,,,,,,,,,,,,,,,,,,,,,,,,,,,,,,,,,,,,,,,,,,,,,,,,,,,,,,,,,,,,,,,,,,,,,,,,,,,,,,,,,,,,,,,,,,,,,,,,,,,,,,,,,
0,6,6,25,1,,6166e6308c20d5b2777a0634,62bbfa9cc5f6bda3b95cb4b0,2022-06-29_09h09.36.664,Colour_Asymmetry_Pilot,2022.1.3,Win32,60.19382411,62bbe60bf3d75ef465d3e404,,,,,,,,,,,,,,,,,,,,,,,,,,,,,,,,,,,,,,,,,,,,,,,,,,,,,,,,,,,,,,,,,,,,,,,,,,,,,,,,,,,,,,,,,,,,,,,,,,,,,,,,,,,,,,,,,,,,,,,,,,,,,,,,,,,,,,,,,,,,,,,,,,,,,,,,,,,,,,
0,7,7,15,1,,6166e6308c20d5b2777a0634,62bbfa9cc5f6bda3b95cb4b0,2022-06-29_09h09.36.664,Colour_Asymmetry_Pilot,2022.1.3,Win32,60.19382411,62bbe60bf3d75ef465d3e404,,,,,,,,,,,,,,,,,,,,,,,,,,,,,,,,,,,,,,,,,,,,,,,,,,,,,,,,,,,,,,,,,,,,,,,,,,,,,,,,,,,,,,,,,,,,,,,,,,,,,,,,,,,,,,,,,,,,,,,,,,,,,,,,,,,,,,,,,,,,,,,,,,,,,,,,,,,,,,
0,8,8,33,1,,6166e6308c20d5b2777a0634,62bbfa9cc5f6bda3b95cb4b0,2022-06-29_09h09.36.664,Colour_Asymmetry_Pilot,2022.1.3,Win32,60.19382411,62bbe60bf3d75ef465d3e404,,,,,,,,,,,,,,,,,,,,,,,,,,,,,,,,,,,,,,,,,,,,,,,,,,,,,,,,,,,,,,,,,,,,,,,,,,,,,,,,,,,,,,,,,,,,,,,,,,,,,,,,,,,,,,,,,,,,,,,,,,,,,,,,,,,,,,,,,,,,,,,,,,,,,,,,,,,,,,
0,9,9,9,1,,6166e6308c20d5b2777a0634,62bbfa9cc5f6bda3b95cb4b0,2022-06-29_09h09.36.664,Colour_Asymmetry_Pilot,2022.1.3,Win32,60.19382411,62bbe60bf3d75ef465d3e404,,,,,,,,,,,,,,,,,,,,,,,,,,,,,,,,,,,,,,,,,,,,,,,,,,,,,,,,,,,,,,,,,,,,,,,,,,,,,,,,,,,,,,,,,,,,,,,,,,,,,,,,,,,,,,,,,,,,,,,,,,,,,,,,,,,,,,,,,,,,,,,,,,,,,,,,,,,,,,
0,10,10,83,1,,6166e6308c20d5b2777a0634,62bbfa9cc5f6bda3b95cb4b0,2022-06-29_09h09.36.664,Colour_Asymmetry_Pilot,2022.1.3,Win32,60.19382411,62bbe60bf3d75ef465d3e404,,,,,,,,,,,,,,,,,,,,,,,,,,,,,,,,,,,,,,,,,,,,,,,,,,,,,,,,,,,,,,,,,,,,,,,,,,,,,,,,,,,,,,,,,,,,,,,,,,,,,,,,,,,,,,,,,,,,,,,,,,,,,,,,,,,,,,,,,,,,,,,,,,,,,,,,,,,,,,
0,11,11,1,1,,6166e6308c20d5b2777a0634,62bbfa9cc5f6bda3b95cb4b0,2022-06-29_09h09.36.664,Colour_Asymmetry_Pilot,2022.1.3,Win32,60.19382411,62bbe60bf3d75ef465d3e404,,,,,,,,,,,,,,,,,,,,,,,,,,,,,,,,,,,,,,,,,,,,,,,,,,,,,,,,,,,,,,,,,,,,,,,,,,,,,,,,,,,,,,,,,,,,,,,,,,,,,,,,,,,,,,,,,,,,,,,,,,,,,,,,,,,,,,,,,,,,,,,,,,,,,,,,,,,,,,
0,12,12,67,1,,6166e6308c20d5b2777a0634,62bbfa9cc5f6bda3b95cb4b0,2022-06-29_09h09.36.664,Colour_Asymmetry_Pilot,2022.1.3,Win32,60.19382411,62bbe60bf3d75ef465d3e404,,,,,,,,,,,,,,,,,,,,,,,,,,,,,,,,,,,,,,,,,,,,,,,,,,,,,,,,,,,,,,,,,,,,,,,,,,,,,,,,,,,,,,,,,,,,,,,,,,,,,,,,,,,,,,,,,,,,,,,,,,,,,,,,,,,,,,,,,,,,,,,,,,,,,,,,,,,,,,
0,13,13,6,1,,6166e6308c20d5b2777a0634,62bbfa9cc5f6bda3b95cb4b0,2022-06-29_09h09.36.664,Colour_Asymmetry_Pilot,2022.1.3,Win32,60.19382411,62bbe60bf3d75ef465d3e404,,,,,,,,,,,,,,,,,,,,,,,,,,,,,,,,,,,,,,,,,,,,,,,,,,,,,,,,,,,,,,,,,,,,,,,,,,,,,,,,,,,,,,,,,,,,,,,,,,,,,,,,,,,,,,,,,,,,,,,,,,,,,,,,,,,,,,,,,,,,,,,,,,,,,,,,,,,,,,
0,14,14,4,1,,6166e6308c20d5b2777a0634,62bbfa9cc5f6bda3b95cb4b0,2022-06-29_09h09.36.664,Colour_Asymmetry_Pilot,2022.1.3,Win32,60.19382411,62bbe60bf3d75ef465d3e404,,,,,,,,,,,,,,,,,,,,,,,,,,,,,,,,,,,,,,,,,,,,,,,,,,,,,,,,,,,,,,,,,,,,,,,,,,,,,,,,,,,,,,,,,,,,,,,,,,,,,,,,,,,,,,,,,,,,,,,,,,,,,,,,,,,,,,,,,,,,,,,,,,,,,,,,,,,,,,
0,15,15,58,1,,6166e6308c20d5b2777a0634,62bbfa9cc5f6bda3b95cb4b0,2022-06-29_09h09.36.664,Colour_Asymmetry_Pilot,2022.1.3,Win32,60.19382411,62bbe60bf3d75ef465d3e404,,,,,,,,,,,,,,,,,,,,,,,,,,,,,,,,,,,,,,,,,,,,,,,,,,,,,,,,,,,,,,,,,,,,,,,,,,,,,,,,,,,,,,,,,,,,,,,,,,,,,,,,,,,,,,,,,,,,,,,,,,,,,,,,,,,,,,,,,,,,,,,,,,,,,,,,,,,,,,
0,16,16,55,1,,6166e6308c20d5b2777a0634,62bbfa9cc5f6bda3b95cb4b0,2022-06-29_09h09.36.664,Colour_Asymmetry_Pilot,2022.1.3,Win32,60.19382411,62bbe60bf3d75ef465d3e404,,,,,,,,,,,,,,,,,,,,,,,,,,,,,,,,,,,,,,,,,,,,,,,,,,,,,,,,,,,,,,,,,,,,,,,,,,,,,,,,,,,,,,,,,,,,,,,,,,,,,,,,,,,,,,,,,,,,,,,,,,,,,,,,,,,,,,,,,,,,,,,,,,,,,,,,,,,,,,
0,17,17,20,1,,6166e6308c20d5b2777a0634,62bbfa9cc5f6bda3b95cb4b0,2022-06-29_09h09.36.664,Colour_Asymmetry_Pilot,2022.1.3,Win32,60.19382411,62bbe60bf3d75ef465d3e404,,,,,,,,,,,,,,,,,,,,,,,,,,,,,,,,,,,,,,,,,,,,,,,,,,,,,,,,,,,,,,,,,,,,,,,,,,,,,,,,,,,,,,,,,,,,,,,,,,,,,,,,,,,,,,,,,,,,,,,,,,,,,,,,,,,,,,,,,,,,,,,,,,,,,,,,,,,,,,
0,18,18,18,1,,6166e6308c20d5b2777a0634,62bbfa9cc5f6bda3b95cb4b0,2022-06-29_09h09.36.664,Colour_Asymmetry_Pilot,2022.1.3,Win32,60.19382411,62bbe60bf3d75ef465d3e404,,,,,,,,,,,,,,,,,,,,,,,,,,,,,,,,,,,,,,,,,,,,,,,,,,,,,,,,,,,,,,,,,,,,,,,,,,,,,,,,,,,,,,,,,,,,,,,,,,,,,,,,,,,,,,,,,,,,,,,,,,,,,,,,,,,,,,,,,,,,,,,,,,,,,,,,,,,,,,
0,19,19,79,1,,6166e6308c20d5b2777a0634,62bbfa9cc5f6bda3b95cb4b0,2022-06-29_09h09.36.664,Colour_Asymmetry_Pilot,2022.1.3,Win32,60.19382411,62bbe60bf3d75ef465d3e404,,,,,,,,,,,,,,,,,,,,,,,,,,,,,,,,,,,,,,,,,,,,,,,,,,,,,,,,,,,,,,,,,,,,,,,,,,,,,,,,,,,,,,,,,,,,,,,,,,,,,,,,,,,,,,,,,,,,,,,,,,,,,,,,,,,,,,,,,,,,,,,,,,,,,,,,,,,,,,
0,20,20,39,1,,6166e6308c20d5b2777a0634,62bbfa9cc5f6bda3b95cb4b0,2022-06-29_09h09.36.664,Colour_Asymmetry_Pilot,2022.1.3,Win32,60.19382411,62bbe60bf3d75ef465d3e404,,,,,,,,,,,,,,,,,,,,,,,,,,,,,,,,,,,,,,,,,,,,,,,,,,,,,,,,,,,,,,,,,,,,,,,,,,,,,,,,,,,,,,,,,,,,,,,,,,,,,,,,,,,,,,,,,,,,,,,,,,,,,,,,,,,,,,,,,,,,,,,,,,,,,,,,,,,,,,
0,21,21,26,1,,6166e6308c20d5b2777a0634,62bbfa9cc5f6bda3b95cb4b0,2022-06-29_09h09.36.664,Colour_Asymmetry_Pilot,2022.1.3,Win32,60.19382411,62bbe60bf3d75ef465d3e404,,,,,,,,,,,,,,,,,,,,,,,,,,,,,,,,,,,,,,,,,,,,,,,,,,,,,,,,,,,,,,,,,,,,,,,,,,,,,,,,,,,,,,,,,,,,,,,,,,,,,,,,,,,,,,,,,,,,,,,,,,,,,,,,,,,,,,,,,,,,,,,,,,,,,,,,,,,,,,
0,22,22,19,1,,6166e6308c20d5b2777a0634,62bbfa9cc5f6bda3b95cb4b0,2022-06-29_09h09.36.664,Colour_Asymmetry_Pilot,2022.1.3,Win32,60.19382411,62bbe60bf3d75ef465d3e404,,,,,,,,,,,,,,,,,,,,,,,,,,,,,,,,,,,,,,,,,,,,,,,,,,,,,,,,,,,,,,,,,,,,,,,,,,,,,,,,,,,,,,,,,,,,,,,,,,,,,,,,,,,,,,,,,,,,,,,,,,,,,,,,,,,,,,,,,,,,,,,,,,,,,,,,,,,,,,
0,23,23,76,1,,6166e6308c20d5b2777a0634,62bbfa9cc5f6bda3b95cb4b0,2022-06-29_09h09.36.664,Colour_Asymmetry_Pilot,2022.1.3,Win32,60.19382411,62bbe60bf3d75ef465d3e404,,,,,,,,,,,,,,,,,,,,,,,,,,,,,,,,,,,,,,,,,,,,,,,,,,,,,,,,,,,,,,,,,,,,,,,,,,,,,,,,,,,,,,,,,,,,,,,,,,,,,,,,,,,,,,,,,,,,,,,,,,,,,,,,,,,,,,,,,,,,,,,,,,,,,,,,,,,,,,
0,24,24,64,1,,6166e6308c20d5b2777a0634,62bbfa9cc5f6bda3b95cb4b0,2022-06-29_09h09.36.664,Colour_Asymmetry_Pilot,2022.1.3,Win32,60.19382411,62bbe60bf3d75ef465d3e404,,,,,,,,,,,,,,,,,,,,,,,,,,,,,,,,,,,,,,,,,,,,,,,,,,,,,,,,,,,,,,,,,,,,,,,,,,,,,,,,,,,,,,,,,,,,,,,,,,,,,,,,,,,,,,,,,,,,,,,,,,,,,,,,,,,,,,,,,,,,,,,,,,,,,,,,,,,,,,
0,25,25,80,1,,6166e6308c20d5b2777a0634,62bbfa9cc5f6bda3b95cb4b0,2022-06-29_09h09.36.664,Colour_Asymmetry_Pilot,2022.1.3,Win32,60.19382411,62bbe60bf3d75ef465d3e404,,,,,,,,,,,,,,,,,,,,,,,,,,,,,,,,,,,,,,,,,,,,,,,,,,,,,,,,,,,,,,,,,,,,,,,,,,,,,,,,,,,,,,,,,,,,,,,,,,,,,,,,,,,,,,,,,,,,,,,,,,,,,,,,,,,,,,,,,,,,,,,,,,,,,,,,,,,,,,
0,26,26,38,1,,6166e6308c20d5b2777a0634,62bbfa9cc5f6bda3b95cb4b0,2022-06-29_09h09.36.664,Colour_Asymmetry_Pilot,2022.1.3,Win32,60.19382411,62bbe60bf3d75ef465d3e404,,,,,,,,,,,,,,,,,,,,,,,,,,,,,,,,,,,,,,,,,,,,,,,,,,,,,,,,,,,,,,,,,,,,,,,,,,,,,,,,,,,,,,,,,,,,,,,,,,,,,,,,,,,,,,,,,,,,,,,,,,,,,,,,,,,,,,,,,,,,,,,,,,,,,,,,,,,,,,
0,27,27,22,1,,6166e6308c20d5b2777a0634,62bbfa9cc5f6bda3b95cb4b0,2022-06-29_09h09.36.664,Colour_Asymmetry_Pilot,2022.1.3,Win32,60.19382411,62bbe60bf3d75ef465d3e404,,,,,,,,,,,,,,,,,,,,,,,,,,,,,,,,,,,,,,,,,,,,,,,,,,,,,,,,,,,,,,,,,,,,,,,,,,,,,,,,,,,,,,,,,,,,,,,,,,,,,,,,,,,,,,,,,,,,,,,,,,,,,,,,,,,,,,,,,,,,,,,,,,,,,,,,,,,,,,
0,28,28,52,1,,6166e6308c20d5b2777a0634,62bbfa9cc5f6bda3b95cb4b0,2022-06-29_09h09.36.664,Colour_Asymmetry_Pilot,2022.1.3,Win32,60.19382411,62bbe60bf3d75ef465d3e404,,,,,,,,,,,,,,,,,,,,,,,,,,,,,,,,,,,,,,,,,,,,,,,,,,,,,,,,,,,,,,,,,,,,,,,,,,,,,,,,,,,,,,,,,,,,,,,,,,,,,,,,,,,,,,,,,,,,,,,,,,,,,,,,,,,,,,,,,,,,,,,,,,,,,,,,,,,,,,
0,29,29,89,1,,6166e6308c20d5b2777a0634,62bbfa9cc5f6bda3b95cb4b0,2022-06-29_09h09.36.664,Colour_Asymmetry_Pilot,2022.1.3,Win32,60.19382411,62bbe60bf3d75ef465d3e404,,,,,,,,,,,,,,,,,,,,,,,,,,,,,,,,,,,,,,,,,,,,,,,,,,,,,,,,,,,,,,,,,,,,,,,,,,,,,,,,,,,,,,,,,,,,,,,,,,,,,,,,,,,,,,,,,,,,,,,,,,,,,,,,,,,,,,,,,,,,,,,,,,,,,,,,,,,,,,
0,30,30,27,1,,6166e6308c20d5b2777a0634,62bbfa9cc5f6bda3b95cb4b0,2022-06-29_09h09.36.664,Colour_Asymmetry_Pilot,2022.1.3,Win32,60.19382411,62bbe60bf3d75ef465d3e404,,,,,,,,,,,,,,,,,,,,,,,,,,,,,,,,,,,,,,,,,,,,,,,,,,,,,,,,,,,,,,,,,,,,,,,,,,,,,,,,,,,,,,,,,,,,,,,,,,,,,,,,,,,,,,,,,,,,,,,,,,,,,,,,,,,,,,,,,,,,,,,,,,,,,,,,,,,,,,
0,31,31,3,1,,6166e6308c20d5b2777a0634,62bbfa9cc5f6bda3b95cb4b0,2022-06-29_09h09.36.664,Colour_Asymmetry_Pilot,2022.1.3,Win32,60.19382411,62bbe60bf3d75ef465d3e404,,,,,,,,,,,,,,,,,,,,,,,,,,,,,,,,,,,,,,,,,,,,,,,,,,,,,,,,,,,,,,,,,,,,,,,,,,,,,,,,,,,,,,,,,,,,,,,,,,,,,,,,,,,,,,,,,,,,,,,,,,,,,,,,,,,,,,,,,,,,,,,,,,,,,,,,,,,,,,
0,32,32,59,1,,6166e6308c20d5b2777a0634,62bbfa9cc5f6bda3b95cb4b0,2022-06-29_09h09.36.664,Colour_Asymmetry_Pilot,2022.1.3,Win32,60.19382411,62bbe60bf3d75ef465d3e404,,,,,,,,,,,,,,,,,,,,,,,,,,,,,,,,,,,,,,,,,,,,,,,,,,,,,,,,,,,,,,,,,,,,,,,,,,,,,,,,,,,,,,,,,,,,,,,,,,,,,,,,,,,,,,,,,,,,,,,,,,,,,,,,,,,,,,,,,,,,,,,,,,,,,,,,,,,,,,
0,33,33,37,1,,6166e6308c20d5b2777a0634,62bbfa9cc5f6bda3b95cb4b0,2022-06-29_09h09.36.664,Colour_Asymmetry_Pilot,2022.1.3,Win32,60.19382411,62bbe60bf3d75ef465d3e404,,,,,,,,,,,,,,,,,,,,,,,,,,,,,,,,,,,,,,,,,,,,,,,,,,,,,,,,,,,,,,,,,,,,,,,,,,,,,,,,,,,,,,,,,,,,,,,,,,,,,,,,,,,,,,,,,,,,,,,,,,,,,,,,,,,,,,,,,,,,,,,,,,,,,,,,,,,,,,
0,34,34,56,1,,6166e6308c20d5b2777a0634,62bbfa9cc5f6bda3b95cb4b0,2022-06-29_09h09.36.664,Colour_Asymmetry_Pilot,2022.1.3,Win32,60.19382411,62bbe60bf3d75ef465d3e404,,,,,,,,,,,,,,,,,,,,,,,,,,,,,,,,,,,,,,,,,,,,,,,,,,,,,,,,,,,,,,,,,,,,,,,,,,,,,,,,,,,,,,,,,,,,,,,,,,,,,,,,,,,,,,,,,,,,,,,,,,,,,,,,,,,,,,,,,,,,,,,,,,,,,,,,,,,,,,
0,35,35,14,1,,6166e6308c20d5b2777a0634,62bbfa9cc5f6bda3b95cb4b0,2022-06-29_09h09.36.664,Colour_Asymmetry_Pilot,2022.1.3,Win32,60.19382411,62bbe60bf3d75ef465d3e404,,,,,,,,,,,,,,,,,,,,,,,,,,,,,,,,,,,,,,,,,,,,,,,,,,,,,,,,,,,,,,,,,,,,,,,,,,,,,,,,,,,,,,,,,,,,,,,,,,,,,,,,,,,,,,,,,,,,,,,,,,,,,,,,,,,,,,,,,,,,,,,,,,,,,,,,,,,,,,
0,36,36,54,1,,6166e6308c20d5b2777a0634,62bbfa9cc5f6bda3b95cb4b0,2022-06-29_09h09.36.664,Colour_Asymmetry_Pilot,2022.1.3,Win32,60.19382411,62bbe60bf3d75ef465d3e404,,,,,,,,,,,,,,,,,,,,,,,,,,,,,,,,,,,,,,,,,,,,,,,,,,,,,,,,,,,,,,,,,,,,,,,,,,,,,,,,,,,,,,,,,,,,,,,,,,,,,,,,,,,,,,,,,,,,,,,,,,,,,,,,,,,,,,,,,,,,,,,,,,,,,,,,,,,,,,
0,37,37,65,1,,6166e6308c20d5b2777a0634,62bbfa9cc5f6bda3b95cb4b0,2022-06-29_09h09.36.664,Colour_Asymmetry_Pilot,2022.1.3,Win32,60.19382411,62bbe60bf3d75ef465d3e404,,,,,,,,,,,,,,,,,,,,,,,,,,,,,,,,,,,,,,,,,,,,,,,,,,,,,,,,,,,,,,,,,,,,,,,,,,,,,,,,,,,,,,,,,,,,,,,,,,,,,,,,,,,,,,,,,,,,,,,,,,,,,,,,,,,,,,,,,,,,,,,,,,,,,,,,,,,,,,
0,38,38,29,1,,6166e6308c20d5b2777a0634,62bbfa9cc5f6bda3b95cb4b0,2022-06-29_09h09.36.664,Colour_Asymmetry_Pilot,2022.1.3,Win32,60.19382411,62bbe60bf3d75ef465d3e404,,,,,,,,,,,,,,,,,,,,,,,,,,,,,,,,,,,,,,,,,,,,,,,,,,,,,,,,,,,,,,,,,,,,,,,,,,,,,,,,,,,,,,,,,,,,,,,,,,,,,,,,,,,,,,,,,,,,,,,,,,,,,,,,,,,,,,,,,,,,,,,,,,,,,,,,,,,,,,
0,39,39,75,1,,6166e6308c20d5b2777a0634,62bbfa9cc5f6bda3b95cb4b0,2022-06-29_09h09.36.664,Colour_Asymmetry_Pilot,2022.1.3,Win32,60.19382411,62bbe60bf3d75ef465d3e404,,,,,,,,,,,,,,,,,,,,,,,,,,,,,,,,,,,,,,,,,,,,,,,,,,,,,,,,,,,,,,,,,,,,,,,,,,,,,,,,,,,,,,,,,,,,,,,,,,,,,,,,,,,,,,,,,,,,,,,,,,,,,,,,,,,,,,,,,,,,,,,,,,,,,,,,,,,,,,
0,40,40,50,1,,6166e6308c20d5b2777a0634,62bbfa9cc5f6bda3b95cb4b0,2022-06-29_09h09.36.664,Colour_Asymmetry_Pilot,2022.1.3,Win32,60.19382411,62bbe60bf3d75ef465d3e404,,,,,,,,,,,,,,,,,,,,,,,,,,,,,,,,,,,,,,,,,,,,,,,,,,,,,,,,,,,,,,,,,,,,,,,,,,,,,,,,,,,,,,,,,,,,,,,,,,,,,,,,,,,,,,,,,,,,,,,,,,,,,,,,,,,,,,,,,,,,,,,,,,,,,,,,,,,,,,
0,41,41,34,1,,6166e6308c20d5b2777a0634,62bbfa9cc5f6bda3b95cb4b0,2022-06-29_09h09.36.664,Colour_Asymmetry_Pilot,2022.1.3,Win32,60.19382411,62bbe60bf3d75ef465d3e404,,,,,,,,,,,,,,,,,,,,,,,,,,,,,,,,,,,,,,,,,,,,,,,,,,,,,,,,,,,,,,,,,,,,,,,,,,,,,,,,,,,,,,,,,,,,,,,,,,,,,,,,,,,,,,,,,,,,,,,,,,,,,,,,,,,,,,,,,,,,,,,,,,,,,,,,,,,,,,
0,42,42,90,1,,6166e6308c20d5b2777a0634,62bbfa9cc5f6bda3b95cb4b0,2022-06-29_09h09.36.664,Colour_Asymmetry_Pilot,2022.1.3,Win32,60.19382411,62bbe60bf3d75ef465d3e404,,,,,,,,,,,,,,,,,,,,,,,,,,,,,,,,,,,,,,,,,,,,,,,,,,,,,,,,,,,,,,,,,,,,,,,,,,,,,,,,,,,,,,,,,,,,,,,,,,,,,,,,,,,,,,,,,,,,,,,,,,,,,,,,,,,,,,,,,,,,,,,,,,,,,,,,,,,,,,
0,43,43,69,1,,6166e6308c20d5b2777a0634,62bbfa9cc5f6bda3b95cb4b0,2022-06-29_09h09.36.664,Colour_Asymmetry_Pilot,2022.1.3,Win32,60.19382411,62bbe60bf3d75ef465d3e404,,,,,,,,,,,,,,,,,,,,,,,,,,,,,,,,,,,,,,,,,,,,,,,,,,,,,,,,,,,,,,,,,,,,,,,,,,,,,,,,,,,,,,,,,,,,,,,,,,,,,,,,,,,,,,,,,,,,,,,,,,,,,,,,,,,,,,,,,,,,,,,,,,,,,,,,,,,,,,
0,44,44,16,1,,6166e6308c20d5b2777a0634,62bbfa9cc5f6bda3b95cb4b0,2022-06-29_09h09.36.664,Colour_Asymmetry_Pilot,2022.1.3,Win32,60.19382411,62bbe60bf3d75ef465d3e404,,,,,,,,,,,,,,,,,,,,,,,,,,,,,,,,,,,,,,,,,,,,,,,,,,,,,,,,,,,,,,,,,,,,,,,,,,,,,,,,,,,,,,,,,,,,,,,,,,,,,,,,,,,,,,,,,,,,,,,,,,,,,,,,,,,,,,,,,,,,,,,,,,,,,,,,,,,,,,
0,45,45,62,1,,6166e6308c20d5b2777a0634,62bbfa9cc5f6bda3b95cb4b0,2022-06-29_09h09.36.664,Colour_Asymmetry_Pilot,2022.1.3,Win32,60.19382411,62bbe60bf3d75ef465d3e404,,,,,,,,,,,,,,,,,,,,,,,,,,,,,,,,,,,,,,,,,,,,,,,,,,,,,,,,,,,,,,,,,,,,,,,,,,,,,,,,,,,,,,,,,,,,,,,,,,,,,,,,,,,,,,,,,,,,,,,,,,,,,,,,,,,,,,,,,,,,,,,,,,,,,,,,,,,,,,
0,46,46,21,1,,6166e6308c20d5b2777a0634,62bbfa9cc5f6bda3b95cb4b0,2022-06-29_09h09.36.664,Colour_Asymmetry_Pilot,2022.1.3,Win32,60.19382411,62bbe60bf3d75ef465d3e404,,,,,,,,,,,,,,,,,,,,,,,,,,,,,,,,,,,,,,,,,,,,,,,,,,,,,,,,,,,,,,,,,,,,,,,,,,,,,,,,,,,,,,,,,,,,,,,,,,,,,,,,,,,,,,,,,,,,,,,,,,,,,,,,,,,,,,,,,,,,,,,,,,,,,,,,,,,,,,
0,47,47,60,1,,6166e6308c20d5b2777a0634,62bbfa9cc5f6bda3b95cb4b0,2022-06-29_09h09.36.664,Colour_Asymmetry_Pilot,2022.1.3,Win32,60.19382411,62bbe60bf3d75ef465d3e404,,,,,,,,,,,,,,,,,,,,,,,,,,,,,,,,,,,,,,,,,,,,,,,,,,,,,,,,,,,,,,,,,,,,,,,,,,,,,,,,,,,,,,,,,,,,,,,,,,,,,,,,,,,,,,,,,,,,,,,,,,,,,,,,,,,,,,,,,,,,,,,,,,,,,,,,,,,,,,
0,48,48,24,1,,6166e6308c20d5b2777a0634,62bbfa9cc5f6bda3b95cb4b0,2022-06-29_09h09.36.664,Colour_Asymmetry_Pilot,2022.1.3,Win32,60.19382411,62bbe60bf3d75ef465d3e404,,,,,,,,,,,,,,,,,,,,,,,,,,,,,,,,,,,,,,,,,,,,,,,,,,,,,,,,,,,,,,,,,,,,,,,,,,,,,,,,,,,,,,,,,,,,,,,,,,,,,,,,,,,,,,,,,,,,,,,,,,,,,,,,,,,,,,,,,,,,,,,,,,,,,,,,,,,,,,
0,49,49,42,1,,6166e6308c20d5b2777a0634,62bbfa9cc5f6bda3b95cb4b0,2022-06-29_09h09.36.664,Colour_Asymmetry_Pilot,2022.1.3,Win32,60.19382411,62bbe60bf3d75ef465d3e404,,,,,,,,,,,,,,,,,,,,,,,,,,,,,,,,,,,,,,,,,,,,,,,,,,,,,,,,,,,,,,,,,,,,,,,,,,,,,,,,,,,,,,,,,,,,,,,,,,,,,,,,,,,,,,,,,,,,,,,,,,,,,,,,,,,,,,,,,,,,,,,,,,,,,,,,,,,,,,
0,50,50,61,1,,6166e6308c20d5b2777a0634,62bbfa9cc5f6bda3b95cb4b0,2022-06-29_09h09.36.664,Colour_Asymmetry_Pilot,2022.1.3,Win32,60.19382411,62bbe60bf3d75ef465d3e404,,,,,,,,,,,,,,,,,,,,,,,,,,,,,,,,,,,,,,,,,,,,,,,,,,,,,,,,,,,,,,,,,,,,,,,,,,,,,,,,,,,,,,,,,,,,,,,,,,,,,,,,,,,,,,,,,,,,,,,,,,,,,,,,,,,,,,,,,,,,,,,,,,,,,,,,,,,,,,
0,51,51,71,1,,6166e6308c20d5b2777a0634,62bbfa9cc5f6bda3b95cb4b0,2022-06-29_09h09.36.664,Colour_Asymmetry_Pilot,2022.1.3,Win32,60.19382411,62bbe60bf3d75ef465d3e404,,,,,,,,,,,,,,,,,,,,,,,,,,,,,,,,,,,,,,,,,,,,,,,,,,,,,,,,,,,,,,,,,,,,,,,,,,,,,,,,,,,,,,,,,,,,,,,,,,,,,,,,,,,,,,,,,,,,,,,,,,,,,,,,,,,,,,,,,,,,,,,,,,,,,,,,,,,,,,
0,52,52,87,1,,6166e6308c20d5b2777a0634,62bbfa9cc5f6bda3b95cb4b0,2022-06-29_09h09.36.664,Colour_Asymmetry_Pilot,2022.1.3,Win32,60.19382411,62bbe60bf3d75ef465d3e404,,,,,,,,,,,,,,,,,,,,,,,,,,,,,,,,,,,,,,,,,,,,,,,,,,,,,,,,,,,,,,,,,,,,,,,,,,,,,,,,,,,,,,,,,,,,,,,,,,,,,,,,,,,,,,,,,,,,,,,,,,,,,,,,,,,,,,,,,,,,,,,,,,,,,,,,,,,,,,
0,53,53,41,1,,6166e6308c20d5b2777a0634,62bbfa9cc5f6bda3b95cb4b0,2022-06-29_09h09.36.664,Colour_Asymmetry_Pilot,2022.1.3,Win32,60.19382411,62bbe60bf3d75ef465d3e404,,,,,,,,,,,,,,,,,,,,,,,,,,,,,,,,,,,,,,,,,,,,,,,,,,,,,,,,,,,,,,,,,,,,,,,,,,,,,,,,,,,,,,,,,,,,,,,,,,,,,,,,,,,,,,,,,,,,,,,,,,,,,,,,,,,,,,,,,,,,,,,,,,,,,,,,,,,,,,
0,54,54,68,1,,6166e6308c20d5b2777a0634,62bbfa9cc5f6bda3b95cb4b0,2022-06-29_09h09.36.664,Colour_Asymmetry_Pilot,2022.1.3,Win32,60.19382411,62bbe60bf3d75ef465d3e404,,,,,,,,,,,,,,,,,,,,,,,,,,,,,,,,,,,,,,,,,,,,,,,,,,,,,,,,,,,,,,,,,,,,,,,,,,,,,,,,,,,,,,,,,,,,,,,,,,,,,,,,,,,,,,,,,,,,,,,,,,,,,,,,,,,,,,,,,,,,,,,,,,,,,,,,,,,,,,
0,55,55,81,1,,6166e6308c20d5b2777a0634,62bbfa9cc5f6bda3b95cb4b0,2022-06-29_09h09.36.664,Colour_Asymmetry_Pilot,2022.1.3,Win32,60.19382411,62bbe60bf3d75ef465d3e404,,,,,,,,,,,,,,,,,,,,,,,,,,,,,,,,,,,,,,,,,,,,,,,,,,,,,,,,,,,,,,,,,,,,,,,,,,,,,,,,,,,,,,,,,,,,,,,,,,,,,,,,,,,,,,,,,,,,,,,,,,,,,,,,,,,,,,,,,,,,,,,,,,,,,,,,,,,,,,
0,56,56,77,1,,6166e6308c20d5b2777a0634,62bbfa9cc5f6bda3b95cb4b0,2022-06-29_09h09.36.664,Colour_Asymmetry_Pilot,2022.1.3,Win32,60.19382411,62bbe60bf3d75ef465d3e404,,,,,,,,,,,,,,,,,,,,,,,,,,,,,,,,,,,,,,,,,,,,,,,,,,,,,,,,,,,,,,,,,,,,,,,,,,,,,,,,,,,,,,,,,,,,,,,,,,,,,,,,,,,,,,,,,,,,,,,,,,,,,,,,,,,,,,,,,,,,,,,,,,,,,,,,,,,,,,
0,57,57,46,1,,6166e6308c20d5b2777a0634,62bbfa9cc5f6bda3b95cb4b0,2022-06-29_09h09.36.664,Colour_Asymmetry_Pilot,2022.1.3,Win32,60.19382411,62bbe60bf3d75ef465d3e404,,,,,,,,,,,,,,,,,,,,,,,,,,,,,,,,,,,,,,,,,,,,,,,,,,,,,,,,,,,,,,,,,,,,,,,,,,,,,,,,,,,,,,,,,,,,,,,,,,,,,,,,,,,,,,,,,,,,,,,,,,,,,,,,,,,,,,,,,,,,,,,,,,,,,,,,,,,,,,
0,58,58,70,1,,6166e6308c20d5b2777a0634,62bbfa9cc5f6bda3b95cb4b0,2022-06-29_09h09.36.664,Colour_Asymmetry_Pilot,2022.1.3,Win32,60.19382411,62bbe60bf3d75ef465d3e404,,,,,,,,,,,,,,,,,,,,,,,,,,,,,,,,,,,,,,,,,,,,,,,,,,,,,,,,,,,,,,,,,,,,,,,,,,,,,,,,,,,,,,,,,,,,,,,,,,,,,,,,,,,,,,,,,,,,,,,,,,,,,,,,,,,,,,,,,,,,,,,,,,,,,,,,,,,,,,
0,59,59,32,1,,6166e6308c20d5b2777a0634,62bbfa9cc5f6bda3b95cb4b0,2022-06-29_09h09.36.664,Colour_Asymmetry_Pilot,2022.1.3,Win32,60.19382411,62bbe60bf3d75ef465d3e404,,,,,,,,,,,,,,,,,,,,,,,,,,,,,,,,,,,,,,,,,,,,,,,,,,,,,,,,,,,,,,,,,,,,,,,,,,,,,,,,,,,,,,,,,,,,,,,,,,,,,,,,,,,,,,,,,,,,,,,,,,,,,,,,,,,,,,,,,,,,,,,,,,,,,,,,,,,,,,
0,60,60,45,1,,6166e6308c20d5b2777a0634,62bbfa9cc5f6bda3b95cb4b0,2022-06-29_09h09.36.664,Colour_Asymmetry_Pilot,2022.1.3,Win32,60.19382411,62bbe60bf3d75ef465d3e404,,,,,,,,,,,,,,,,,,,,,,,,,,,,,,,,,,,,,,,,,,,,,,,,,,,,,,,,,,,,,,,,,,,,,,,,,,,,,,,,,,,,,,,,,,,,,,,,,,,,,,,,,,,,,,,,,,,,,,,,,,,,,,,,,,,,,,,,,,,,,,,,,,,,,,,,,,,,,,
0,61,61,47,1,,6166e6308c20d5b2777a0634,62bbfa9cc5f6bda3b95cb4b0,2022-06-29_09h09.36.664,Colour_Asymmetry_Pilot,2022.1.3,Win32,60.19382411,62bbe60bf3d75ef465d3e404,,,,,,,,,,,,,,,,,,,,,,,,,,,,,,,,,,,,,,,,,,,,,,,,,,,,,,,,,,,,,,,,,,,,,,,,,,,,,,,,,,,,,,,,,,,,,,,,,,,,,,,,,,,,,,,,,,,,,,,,,,,,,,,,,,,,,,,,,,,,,,,,,,,,,,,,,,,,,,
0,62,62,88,1,,6166e6308c20d5b2777a0634,62bbfa9cc5f6bda3b95cb4b0,2022-06-29_09h09.36.664,Colour_Asymmetry_Pilot,2022.1.3,Win32,60.19382411,62bbe60bf3d75ef465d3e404,,,,,,,,,,,,,,,,,,,,,,,,,,,,,,,,,,,,,,,,,,,,,,,,,,,,,,,,,,,,,,,,,,,,,,,,,,,,,,,,,,,,,,,,,,,,,,,,,,,,,,,,,,,,,,,,,,,,,,,,,,,,,,,,,,,,,,,,,,,,,,,,,,,,,,,,,,,,,,
0,63,63,11,1,,6166e6308c20d5b2777a0634,62bbfa9cc5f6bda3b95cb4b0,2022-06-29_09h09.36.664,Colour_Asymmetry_Pilot,2022.1.3,Win32,60.19382411,62bbe60bf3d75ef465d3e404,,,,,,,,,,,,,,,,,,,,,,,,,,,,,,,,,,,,,,,,,,,,,,,,,,,,,,,,,,,,,,,,,,,,,,,,,,,,,,,,,,,,,,,,,,,,,,,,,,,,,,,,,,,,,,,,,,,,,,,,,,,,,,,,,,,,,,,,,,,,,,,,,,,,,,,,,,,,,,
0,64,64,0,1,,6166e6308c20d5b2777a0634,62bbfa9cc5f6bda3b95cb4b0,2022-06-29_09h09.36.664,Colour_Asymmetry_Pilot,2022.1.3,Win32,60.19382411,62bbe60bf3d75ef465d3e404,,,,,,,,,,,,,,,,,,,,,,,,,,,,,,,,,,,,,,,,,,,,,,,,,,,,,,,,,,,,,,,,,,,,,,,,,,,,,,,,,,,,,,,,,,,,,,,,,,,,,,,,,,,,,,,,,,,,,,,,,,,,,,,,,,,,,,,,,,,,,,,,,,,,,,,,,,,,,,
0,65,65,2,1,,6166e6308c20d5b2777a0634,62bbfa9cc5f6bda3b95cb4b0,2022-06-29_09h09.36.664,Colour_Asymmetry_Pilot,2022.1.3,Win32,60.19382411,62bbe60bf3d75ef465d3e404,,,,,,,,,,,,,,,,,,,,,,,,,,,,,,,,,,,,,,,,,,,,,,,,,,,,,,,,,,,,,,,,,,,,,,,,,,,,,,,,,,,,,,,,,,,,,,,,,,,,,,,,,,,,,,,,,,,,,,,,,,,,,,,,,,,,,,,,,,,,,,,,,,,,,,,,,,,,,,
0,66,66,36,1,,6166e6308c20d5b2777a0634,62bbfa9cc5f6bda3b95cb4b0,2022-06-29_09h09.36.664,Colour_Asymmetry_Pilot,2022.1.3,Win32,60.19382411,62bbe60bf3d75ef465d3e404,,,,,,,,,,,,,,,,,,,,,,,,,,,,,,,,,,,,,,,,,,,,,,,,,,,,,,,,,,,,,,,,,,,,,,,,,,,,,,,,,,,,,,,,,,,,,,,,,,,,,,,,,,,,,,,,,,,,,,,,,,,,,,,,,,,,,,,,,,,,,,,,,,,,,,,,,,,,,,
0,67,67,12,1,,6166e6308c20d5b2777a0634,62bbfa9cc5f6bda3b95cb4b0,2022-06-29_09h09.36.664,Colour_Asymmetry_Pilot,2022.1.3,Win32,60.19382411,62bbe60bf3d75ef465d3e404,,,,,,,,,,,,,,,,,,,,,,,,,,,,,,,,,,,,,,,,,,,,,,,,,,,,,,,,,,,,,,,,,,,,,,,,,,,,,,,,,,,,,,,,,,,,,,,,,,,,,,,,,,,,,,,,,,,,,,,,,,,,,,,,,,,,,,,,,,,,,,,,,,,,,,,,,,,,,,
0,68,68,7,1,,6166e6308c20d5b2777a0634,62bbfa9cc5f6bda3b95cb4b0,2022-06-29_09h09.36.664,Colour_Asymmetry_Pilot,2022.1.3,Win32,60.19382411,62bbe60bf3d75ef465d3e404,,,,,,,,,,,,,,,,,,,,,,,,,,,,,,,,,,,,,,,,,,,,,,,,,,,,,,,,,,,,,,,,,,,,,,,,,,,,,,,,,,,,,,,,,,,,,,,,,,,,,,,,,,,,,,,,,,,,,,,,,,,,,,,,,,,,,,,,,,,,,,,,,,,,,,,,,,,,,,
0,69,69,30,1,,6166e6308c20d5b2777a0634,62bbfa9cc5f6bda3b95cb4b0,2022-06-29_09h09.36.664,Colour_Asymmetry_Pilot,2022.1.3,Win32,60.19382411,62bbe60bf3d75ef465d3e404,,,,,,,,,,,,,,,,,,,,,,,,,,,,,,,,,,,,,,,,,,,,,,,,,,,,,,,,,,,,,,,,,,,,,,,,,,,,,,,,,,,,,,,,,,,,,,,,,,,,,,,,,,,,,,,,,,,,,,,,,,,,,,,,,,,,,,,,,,,,,,,,,,,,,,,,,,,,,,
0,70,70,10,1,,6166e6308c20d5b2777a0634,62bbfa9cc5f6bda3b95cb4b0,2022-06-29_09h09.36.664,Colour_Asymmetry_Pilot,2022.1.3,Win32,60.19382411,62bbe60bf3d75ef465d3e404,,,,,,,,,,,,,,,,,,,,,,,,,,,,,,,,,,,,,,,,,,,,,,,,,,,,,,,,,,,,,,,,,,,,,,,,,,,,,,,,,,,,,,,,,,,,,,,,,,,,,,,,,,,,,,,,,,,,,,,,,,,,,,,,,,,,,,,,,,,,,,,,,,,,,,,,,,,,,,
0,71,71,92,1,,6166e6308c20d5b2777a0634,62bbfa9cc5f6bda3b95cb4b0,2022-06-29_09h09.36.664,Colour_Asymmetry_Pilot,2022.1.3,Win32,60.19382411,62bbe60bf3d75ef465d3e404,,,,,,,,,,,,,,,,,,,,,,,,,,,,,,,,,,,,,,,,,,,,,,,,,,,,,,,,,,,,,,,,,,,,,,,,,,,,,,,,,,,,,,,,,,,,,,,,,,,,,,,,,,,,,,,,,,,,,,,,,,,,,,,,,,,,,,,,,,,,,,,,,,,,,,,,,,,,,,
0,72,72,31,1,,6166e6308c20d5b2777a0634,62bbfa9cc5f6bda3b95cb4b0,2022-06-29_09h09.36.664,Colour_Asymmetry_Pilot,2022.1.3,Win32,60.19382411,62bbe60bf3d75ef465d3e404,,,,,,,,,,,,,,,,,,,,,,,,,,,,,,,,,,,,,,,,,,,,,,,,,,,,,,,,,,,,,,,,,,,,,,,,,,,,,,,,,,,,,,,,,,,,,,,,,,,,,,,,,,,,,,,,,,,,,,,,,,,,,,,,,,,,,,,,,,,,,,,,,,,,,,,,,,,,,,
0,73,73,82,1,,6166e6308c20d5b2777a0634,62bbfa9cc5f6bda3b95cb4b0,2022-06-29_09h09.36.664,Colour_Asymmetry_Pilot,2022.1.3,Win32,60.19382411,62bbe60bf3d75ef465d3e404,,,,,,,,,,,,,,,,,,,,,,,,,,,,,,,,,,,,,,,,,,,,,,,,,,,,,,,,,,,,,,,,,,,,,,,,,,,,,,,,,,,,,,,,,,,,,,,,,,,,,,,,,,,,,,,,,,,,,,,,,,,,,,,,,,,,,,,,,,,,,,,,,,,,,,,,,,,,,,
0,74,74,63,1,,6166e6308c20d5b2777a0634,62bbfa9cc5f6bda3b95cb4b0,2022-06-29_09h09.36.664,Colour_Asymmetry_Pilot,2022.1.3,Win32,60.19382411,62bbe60bf3d75ef465d3e404,,,,,,,,,,,,,,,,,,,,,,,,,,,,,,,,,,,,,,,,,,,,,,,,,,,,,,,,,,,,,,,,,,,,,,,,,,,,,,,,,,,,,,,,,,,,,,,,,,,,,,,,,,,,,,,,,,,,,,,,,,,,,,,,,,,,,,,,,,,,,,,,,,,,,,,,,,,,,,
0,75,75,44,1,,6166e6308c20d5b2777a0634,62bbfa9cc5f6bda3b95cb4b0,2022-06-29_09h09.36.664,Colour_Asymmetry_Pilot,2022.1.3,Win32,60.19382411,62bbe60bf3d75ef465d3e404,,,,,,,,,,,,,,,,,,,,,,,,,,,,,,,,,,,,,,,,,,,,,,,,,,,,,,,,,,,,,,,,,,,,,,,,,,,,,,,,,,,,,,,,,,,,,,,,,,,,,,,,,,,,,,,,,,,,,,,,,,,,,,,,,,,,,,,,,,,,,,,,,,,,,,,,,,,,,,
0,76,76,13,1,,6166e6308c20d5b2777a0634,62bbfa9cc5f6bda3b95cb4b0,2022-06-29_09h09.36.664,Colour_Asymmetry_Pilot,2022.1.3,Win32,60.19382411,62bbe60bf3d75ef465d3e404,,,,,,,,,,,,,,,,,,,,,,,,,,,,,,,,,,,,,,,,,,,,,,,,,,,,,,,,,,,,,,,,,,,,,,,,,,,,,,,,,,,,,,,,,,,,,,,,,,,,,,,,,,,,,,,,,,,,,,,,,,,,,,,,,,,,,,,,,,,,,,,,,,,,,,,,,,,,,,
0,77,77,66,1,,6166e6308c20d5b2777a0634,62bbfa9cc5f6bda3b95cb4b0,2022-06-29_09h09.36.664,Colour_Asymmetry_Pilot,2022.1.3,Win32,60.19382411,62bbe60bf3d75ef465d3e404,,,,,,,,,,,,,,,,,,,,,,,,,,,,,,,,,,,,,,,,,,,,,,,,,,,,,,,,,,,,,,,,,,,,,,,,,,,,,,,,,,,,,,,,,,,,,,,,,,,,,,,,,,,,,,,,,,,,,,,,,,,,,,,,,,,,,,,,,,,,,,,,,,,,,,,,,,,,,,
0,78,78,74,1,,6166e6308c20d5b2777a0634,62bbfa9cc5f6bda3b95cb4b0,2022-06-29_09h09.36.664,Colour_Asymmetry_Pilot,2022.1.3,Win32,60.19382411,62bbe60bf3d75ef465d3e404,,,,,,,,,,,,,,,,,,,,,,,,,,,,,,,,,,,,,,,,,,,,,,,,,,,,,,,,,,,,,,,,,,,,,,,,,,,,,,,,,,,,,,,,,,,,,,,,,,,,,,,,,,,,,,,,,,,,,,,,,,,,,,,,,,,,,,,,,,,,,,,,,,,,,,,,,,,,,,
0,79,79,49,1,,6166e6308c20d5b2777a0634,62bbfa9cc5f6bda3b95cb4b0,2022-06-29_09h09.36.664,Colour_Asymmetry_Pilot,2022.1.3,Win32,60.19382411,62bbe60bf3d75ef465d3e404,,,,,,,,,,,,,,,,,,,,,,,,,,,,,,,,,,,,,,,,,,,,,,,,,,,,,,,,,,,,,,,,,,,,,,,,,,,,,,,,,,,,,,,,,,,,,,,,,,,,,,,,,,,,,,,,,,,,,,,,,,,,,,,,,,,,,,,,,,,,,,,,,,,,,,,,,,,,,,
0,80,80,40,1,,6166e6308c20d5b2777a0634,62bbfa9cc5f6bda3b95cb4b0,2022-06-29_09h09.36.664,Colour_Asymmetry_Pilot,2022.1.3,Win32,60.19382411,62bbe60bf3d75ef465d3e404,,,,,,,,,,,,,,,,,,,,,,,,,,,,,,,,,,,,,,,,,,,,,,,,,,,,,,,,,,,,,,,,,,,,,,,,,,,,,,,,,,,,,,,,,,,,,,,,,,,,,,,,,,,,,,,,,,,,,,,,,,,,,,,,,,,,,,,,,,,,,,,,,,,,,,,,,,,,,,
0,81,81,48,1,,6166e6308c20d5b2777a0634,62bbfa9cc5f6bda3b95cb4b0,2022-06-29_09h09.36.664,Colour_Asymmetry_Pilot,2022.1.3,Win32,60.19382411,62bbe60bf3d75ef465d3e404,,,,,,,,,,,,,,,,,,,,,,,,,,,,,,,,,,,,,,,,,,,,,,,,,,,,,,,,,,,,,,,,,,,,,,,,,,,,,,,,,,,,,,,,,,,,,,,,,,,,,,,,,,,,,,,,,,,,,,,,,,,,,,,,,,,,,,,,,,,,,,,,,,,,,,,,,,,,,,
0,82,82,78,1,,6166e6308c20d5b2777a0634,62bbfa9cc5f6bda3b95cb4b0,2022-06-29_09h09.36.664,Colour_Asymmetry_Pilot,2022.1.3,Win32,60.19382411,62bbe60bf3d75ef465d3e404,,,,,,,,,,,,,,,,,,,,,,,,,,,,,,,,,,,,,,,,,,,,,,,,,,,,,,,,,,,,,,,,,,,,,,,,,,,,,,,,,,,,,,,,,,,,,,,,,,,,,,,,,,,,,,,,,,,,,,,,,,,,,,,,,,,,,,,,,,,,,,,,,,,,,,,,,,,,,,
0,83,83,73,1,,6166e6308c20d5b2777a0634,62bbfa9cc5f6bda3b95cb4b0,2022-06-29_09h09.36.664,Colour_Asymmetry_Pilot,2022.1.3,Win32,60.19382411,62bbe60bf3d75ef465d3e404,,,,,,,,,,,,,,,,,,,,,,,,,,,,,,,,,,,,,,,,,,,,,,,,,,,,,,,,,,,,,,,,,,,,,,,,,,,,,,,,,,,,,,,,,,,,,,,,,,,,,,,,,,,,,,,,,,,,,,,,,,,,,,,,,,,,,,,,,,,,,,,,,,,,,,,,,,,,,,
0,84,84,84,1,,6166e6308c20d5b2777a0634,62bbfa9cc5f6bda3b95cb4b0,2022-06-29_09h09.36.664,Colour_Asymmetry_Pilot,2022.1.3,Win32,60.19382411,62bbe60bf3d75ef465d3e404,,,,,,,,,,,,,,,,,,,,,,,,,,,,,,,,,,,,,,,,,,,,,,,,,,,,,,,,,,,,,,,,,,,,,,,,,,,,,,,,,,,,,,,,,,,,,,,,,,,,,,,,,,,,,,,,,,,,,,,,,,,,,,,,,,,,,,,,,,,,,,,,,,,,,,,,,,,,,,
0,85,85,8,1,,6166e6308c20d5b2777a0634,62bbfa9cc5f6bda3b95cb4b0,2022-06-29_09h09.36.664,Colour_Asymmetry_Pilot,2022.1.3,Win32,60.19382411,62bbe60bf3d75ef465d3e404,,,,,,,,,,,,,,,,,,,,,,,,,,,,,,,,,,,,,,,,,,,,,,,,,,,,,,,,,,,,,,,,,,,,,,,,,,,,,,,,,,,,,,,,,,,,,,,,,,,,,,,,,,,,,,,,,,,,,,,,,,,,,,,,,,,,,,,,,,,,,,,,,,,,,,,,,,,,,,
0,86,86,28,1,,6166e6308c20d5b2777a0634,62bbfa9cc5f6bda3b95cb4b0,2022-06-29_09h09.36.664,Colour_Asymmetry_Pilot,2022.1.3,Win32,60.19382411,62bbe60bf3d75ef465d3e404,,,,,,,,,,,,,,,,,,,,,,,,,,,,,,,,,,,,,,,,,,,,,,,,,,,,,,,,,,,,,,,,,,,,,,,,,,,,,,,,,,,,,,,,,,,,,,,,,,,,,,,,,,,,,,,,,,,,,,,,,,,,,,,,,,,,,,,,,,,,,,,,,,,,,,,,,,,,,,
0,87,87,5,1,,6166e6308c20d5b2777a0634,62bbfa9cc5f6bda3b95cb4b0,2022-06-29_09h09.36.664,Colour_Asymmetry_Pilot,2022.1.3,Win32,60.19382411,62bbe60bf3d75ef465d3e404,,,,,,,,,,,,,,,,,,,,,,,,,,,,,,,,,,,,,,,,,,,,,,,,,,,,,,,,,,,,,,,,,,,,,,,,,,,,,,,,,,,,,,,,,,,,,,,,,,,,,,,,,,,,,,,,,,,,,,,,,,,,,,,,,,,,,,,,,,,,,,,,,,,,,,,,,,,,,,
0,88,88,43,1,,6166e6308c20d5b2777a0634,62bbfa9cc5f6bda3b95cb4b0,2022-06-29_09h09.36.664,Colour_Asymmetry_Pilot,2022.1.3,Win32,60.19382411,62bbe60bf3d75ef465d3e404,,,,,,,,,,,,,,,,,,,,,,,,,,,,,,,,,,,,,,,,,,,,,,,,,,,,,,,,,,,,,,,,,,,,,,,,,,,,,,,,,,,,,,,,,,,,,,,,,,,,,,,,,,,,,,,,,,,,,,,,,,,,,,,,,,,,,,,,,,,,,,,,,,,,,,,,,,,,,,
0,89,89,91,1,,6166e6308c20d5b2777a0634,62bbfa9cc5f6bda3b95cb4b0,2022-06-29_09h09.36.664,Colour_Asymmetry_Pilot,2022.1.3,Win32,60.19382411,62bbe60bf3d75ef465d3e404,,,,,,,,,,,,,,,,,,,,,,,,,,,,,,,,,,,,,,,,,,,,,,,,,,,,,,,,,,,,,,,,,,,,,,,,,,,,,,,,,,,,,,,,,,,,,,,,,,,,,,,,,,,,,,,,,,,,,,,,,,,,,,,,,,,,,,,,,,,,,,,,,,,,,,,,,,,,,,
0,90,90,23,1,,6166e6308c20d5b2777a0634,62bbfa9cc5f6bda3b95cb4b0,2022-06-29_09h09.36.664,Colour_Asymmetry_Pilot,2022.1.3,Win32,60.19382411,62bbe60bf3d75ef465d3e404,,,,,,,,,,,,,,,,,,,,,,,,,,,,,,,,,,,,,,,,,,,,,,,,,,,,,,,,,,,,,,,,,,,,,,,,,,,,,,,,,,,,,,,,,,,,,,,,,,,,,,,,,,,,,,,,,,,,,,,,,,,,,,,,,,,,,,,,,,,,,,,,,,,,,,,,,,,,,,
0,91,91,86,1,,6166e6308c20d5b2777a0634,62bbfa9cc5f6bda3b95cb4b0,2022-06-29_09h09.36.664,Colour_Asymmetry_Pilot,2022.1.3,Win32,60.19382411,62bbe60bf3d75ef465d3e404,,,,,,,,,,,,,,,,,,,,,,,,,,,,,,,,,,,,,,,,,,,,,,,,,,,,,,,,,,,,,,,,,,,,,,,,,,,,,,,,,,,,,,,,,,,,,,,,,,,,,,,,,,,,,,,,,,,,,,,,,,,,,,,,,,,,,,,,,,,,,,,,,,,,,,,,,,,,,,
0,92,92,85,1,,6166e6308c20d5b2777a0634,62bbfa9cc5f6bda3b95cb4b0,2022-06-29_09h09.36.664,Colour_Asymmetry_Pilot,2022.1.3,Win32,60.19382411,62bbe60bf3d75ef465d3e404,,,,,,,,,,,,,,,,,,,,,,,,,,,,,,,,,,,,,,,,,,,,,,,,,,,,,,,,,,,,,,,,,,,,,,,,,,,,,,,,,,,,,,,,,,,,,,,,,,,,,,,,,,,,,,,,,,,,,,,,,,,,,,,,,,,,,,,,,,,,,,,,,,,,,,,,,,,,,,
,,,,,,6166e6308c20d5b2777a0634,62bbfa9cc5f6bda3b95cb4b0,2022-06-29_09h09.36.664,Colour_Asymmetry_Pilot,2022.1.3,Win32,60.19382411,62bbe60bf3d75ef465d3e404,0,0,0,59,1,twofour,,,,,,,,,,,,,,,,,,,,,,,,,,,,,,,,,,,,,,,,,,,,,,,,,,,,,,,,,,,,,,,,,,,,,,,,,,,,,,,,,,,,,,,,,,,,,,,,,,,,,,,,,,,,,,,,,,,,,,,,,,,,,,,,,,,,,,,,,,,,,,,,,,,,,,,,
,,,,,,6166e6308c20d5b2777a0634,62bbfa9cc5f6bda3b95cb4b0,2022-06-29_09h09.36.664,Colour_Asymmetry_Pilot,2022.1.3,Win32,60.19382411,62bbe60bf3d75ef465d3e404,0,1,1,53,1,threefour,,,,,,,,,,,,,,,,,,,,,,,,,,,,,,,,,,,,,,,,,,,,,,,,,,,,,,,,,,,,,,,,,,,,,,,,,,,,,,,,,,,,,,,,,,,,,,,,,,,,,,,,,,,,,,,,,,,,,,,,,,,,,,,,,,,,,,,,,,,,,,,,,,,,,,,,
,,,,,,6166e6308c20d5b2777a0634,62bbfa9cc5f6bda3b95cb4b0,2022-06-29_09h09.36.664,Colour_Asymmetry_Pilot,2022.1.3,Win32,60.19382411,62bbe60bf3d75ef465d3e404,0,2,2,150,1,fourtwo,,,,,,,,,,,,,,,,,,,,,,,,,,,,,,,,,,,,,,,,,,,,,,,,,,,,,,,,,,,,,,,,,,,,,,,,,,,,,,,,,,,,,,,,,,,,,,,,,,,,,,,,,,,,,,,,,,,,,,,,,,,,,,,,,,,,,,,,,,,,,,,,,,,,,,,,
,,,,,,6166e6308c20d5b2777a0634,62bbfa9cc5f6bda3b95cb4b0,2022-06-29_09h09.36.664,Colour_Asymmetry_Pilot,2022.1.3,Win32,60.19382411,62bbe60bf3d75ef465d3e404,0,3,3,147,1,twofour,,,,,,,,,,,,,,,,,,,,,,,,,,,,,,,,,,,,,,,,,,,,,,,,,,,,,,,,,,,,,,,,,,,,,,,,,,,,,,,,,,,,,,,,,,,,,,,,,,,,,,,,,,,,,,,,,,,,,,,,,,,,,,,,,,,,,,,,,,,,,,,,,,,,,,,,
,,,,,,6166e6308c20d5b2777a0634,62bbfa9cc5f6bda3b95cb4b0,2022-06-29_09h09.36.664,Colour_Asymmetry_Pilot,2022.1.3,Win32,60.19382411,62bbe60bf3d75ef465d3e404,0,4,4,64,1,onetwo,,,,,,,,,,,,,,,,,,,,,,,,,,,,,,,,,,,,,,,,,,,,,,,,,,,,,,,,,,,,,,,,,,,,,,,,,,,,,,,,,,,,,,,,,,,,,,,,,,,,,,,,,,,,,,,,,,,,,,,,,,,,,,,,,,,,,,,,,,,,,,,,,,,,,,,,
,,,,,,6166e6308c20d5b2777a0634,62bbfa9cc5f6bda3b95cb4b0,2022-06-29_09h09.36.664,Colour_Asymmetry_Pilot,2022.1.3,Win32,60.19382411,62bbe60bf3d75ef465d3e404,0,5,5,148,1,threeone,,,,,,,,,,,,,,,,,,,,,,,,,,,,,,,,,,,,,,,,,,,,,,,,,,,,,,,,,,,,,,,,,,,,,,,,,,,,,,,,,,,,,,,,,,,,,,,,,,,,,,,,,,,,,,,,,,,,,,,,,,,,,,,,,,,,,,,,,,,,,,,,,,,,,,,,
,,,,,,6166e6308c20d5b2777a0634,62bbfa9cc5f6bda3b95cb4b0,2022-06-29_09h09.36.664,Colour_Asymmetry_Pilot,2022.1.3,Win32,60.19382411,62bbe60bf3d75ef465d3e404,0,6,6,116,1,threeone,,,,,,,,,,,,,,,,,,,,,,,,,,,,,,,,,,,,,,,,,,,,,,,,,,,,,,,,,,,,,,,,,,,,,,,,,,,,,,,,,,,,,,,,,,,,,,,,,,,,,,,,,,,,,,,,,,,,,,,,,,,,,,,,,,,,,,,,,,,,,,,,,,,,,,,,
,,,,,,6166e6308c20d5b2777a0634,62bbfa9cc5f6bda3b95cb4b0,2022-06-29_09h09.36.664,Colour_Asymmetry_Pilot,2022.1.3,Win32,60.19382411,62bbe60bf3d75ef465d3e404,0,7,7,1,1,onethree,,,,,,,,,,,,,,,,,,,,,,,,,,,,,,,,,,,,,,,,,,,,,,,,,,,,,,,,,,,,,,,,,,,,,,,,,,,,,,,,,,,,,,,,,,,,,,,,,,,,,,,,,,,,,,,,,,,,,,,,,,,,,,,,,,,,,,,,,,,,,,,,,,,,,,,,
,,,,,,6166e6308c20d5b2777a0634,62bbfa9cc5f6bda3b95cb4b0,2022-06-29_09h09.36.664,Colour_Asymmetry_Pilot,2022.1.3,Win32,60.19382411,62bbe60bf3d75ef465d3e404,0,8,8,124,1,threeone,,,,,,,,,,,,,,,,,,,,,,,,,,,,,,,,,,,,,,,,,,,,,,,,,,,,,,,,,,,,,,,,,,,,,,,,,,,,,,,,,,,,,,,,,,,,,,,,,,,,,,,,,,,,,,,,,,,,,,,,,,,,,,,,,,,,,,,,,,,,,,,,,,,,,,,,
,,,,,,6166e6308c20d5b2777a0634,62bbfa9cc5f6bda3b95cb4b0,2022-06-29_09h09.36.664,Colour_Asymmetry_Pilot,2022.1.3,Win32,60.19382411,62bbe60bf3d75ef465d3e404,0,9,9,123,1,twofour,,,,,,,,,,,,,,,,,,,,,,,,,,,,,,,,,,,,,,,,,,,,,,,,,,,,,,,,,,,,,,,,,,,,,,,,,,,,,,,,,,,,,,,,,,,,,,,,,,,,,,,,,,,,,,,,,,,,,,,,,,,,,,,,,,,,,,,,,,,,,,,,,,,,,,,,
,,,,,,6166e6308c20d5b2777a0634,62bbfa9cc5f6bda3b95cb4b0,2022-06-29_09h09.36.664,Colour_Asymmetry_Pilot,2022.1.3,Win32,60.19382411,62bbe60bf3d75ef465d3e404,0,10,10,0,1,onetwo,,,,,,,,,,,,,,,,,,,,,,,,,,,,,,,,,,,,,,,,,,,,,,,,,,,,,,,,,,,,,,,,,,,,,,,,,,,,,,,,,,,,,,,,,,,,,,,,,,,,,,,,,,,,,,,,,,,,,,,,,,,,,,,,,,,,,,,,,,,,,,,,,,,,,,,,
,,,,,,6166e6308c20d5b2777a0634,62bbfa9cc5f6bda3b95cb4b0,2022-06-29_09h09.36.664,Colour_Asymmetry_Pilot,2022.1.3,Win32,60.19382411,62bbe60bf3d75ef465d3e404,0,11,11,83,1,twofour,,,,,,,,,,,,,,,,,,,,,,,,,,,,,,,,,,,,,,,,,,,,,,,,,,,,,,,,,,,,,,,,,,,,,,,,,,,,,,,,,,,,,,,,,,,,,,,,,,,,,,,,,,,,,,,,,,,,,,,,,,,,,,,,,,,,,,,,,,,,,,,,,,,,,,,,
,,,,,,6166e6308c20d5b2777a0634,62bbfa9cc5f6bda3b95cb4b0,2022-06-29_09h09.36.664,Colour_Asymmetry_Pilot,2022.1.3,Win32,60.19382411,62bbe60bf3d75ef465d3e404,0,12,12,75,1,twofour,,,,,,,,,,,,,,,,,,,,,,,,,,,,,,,,,,,,,,,,,,,,,,,,,,,,,,,,,,,,,,,,,,,,,,,,,,,,,,,,,,,,,,,,,,,,,,,,,,,,,,,,,,,,,,,,,,,,,,,,,,,,,,,,,,,,,,,,,,,,,,,,,,,,,,,,
,,,,,,6166e6308c20d5b2777a0634,62bbfa9cc5f6bda3b95cb4b0,2022-06-29_09h09.36.664,Colour_Asymmetry_Pilot,2022.1.3,Win32,60.19382411,62bbe60bf3d75ef465d3e404,0,13,13,71,1,fourthree,,,,,,,,,,,,,,,,,,,,,,,,,,,,,,,,,,,,,,,,,,,,,,,,,,,,,,,,,,,,,,,,,,,,,,,,,,,,,,,,,,,,,,,,,,,,,,,,,,,,,,,,,,,,,,,,,,,,,,,,,,,,,,,,,,,,,,,,,,,,,,,,,,,,,,,,
,,,,,,6166e6308c20d5b2777a0634,62bbfa9cc5f6bda3b95cb4b0,2022-06-29_09h09.36.664,Colour_Asymmetry_Pilot,2022.1.3,Win32,60.19382411,62bbe60bf3d75ef465d3e404,0,14,14,90,1,twoone,,,,,,,,,,,,,,,,,,,,,,,,,,,,,,,,,,,,,,,,,,,,,,,,,,,,,,,,,,,,,,,,,,,,,,,,,,,,,,,,,,,,,,,,,,,,,,,,,,,,,,,,,,,,,,,,,,,,,,,,,,,,,,,,,,,,,,,,,,,,,,,,,,,,,,,,
,,,,,,6166e6308c20d5b2777a0634,62bbfa9cc5f6bda3b95cb4b0,2022-06-29_09h09.36.664,Colour_Asymmetry_Pilot,2022.1.3,Win32,60.19382411,62bbe60bf3d75ef465d3e404,0,15,15,94,1,fourtwo,,,,,,,,,,,,,,,,,,,,,,,,,,,,,,,,,,,,,,,,,,,,,,,,,,,,,,,,,,,,,,,,,,,,,,,,,,,,,,,,,,,,,,,,,,,,,,,,,,,,,,,,,,,,,,,,,,,,,,,,,,,,,,,,,,,,,,,,,,,,,,,,,,,,,,,,
,,,,,,6166e6308c20d5b2777a0634,62bbfa9cc5f6bda3b95cb4b0,2022-06-29_09h09.36.664,Colour_Asymmetry_Pilot,2022.1.3,Win32,60.19382411,62bbe60bf3d75ef465d3e404,0,16,16,62,1,fourtwo,,,,,,,,,,,,,,,,,,,,,,,,,,,,,,,,,,,,,,,,,,,,,,,,,,,,,,,,,,,,,,,,,,,,,,,,,,,,,,,,,,,,,,,,,,,,,,,,,,,,,,,,,,,,,,,,,,,,,,,,,,,,,,,,,,,,,,,,,,,,,,,,,,,,,,,,
,,,,,,6166e6308c20d5b2777a0634,62bbfa9cc5f6bda3b95cb4b0,2022-06-29_09h09.36.664,Colour_Asymmetry_Pilot,2022.1.3,Win32,60.19382411,62bbe60bf3d75ef465d3e404,0,17,17,117,1,threefour,,,,,,,,,,,,,,,,,,,,,,,,,,,,,,,,,,,,,,,,,,,,,,,,,,,,,,,,,,,,,,,,,,,,,,,,,,,,,,,,,,,,,,,,,,,,,,,,,,,,,,,,,,,,,,,,,,,,,,,,,,,,,,,,,,,,,,,,,,,,,,,,,,,,,,,,
,,,,,,6166e6308c20d5b2777a0634,62bbfa9cc5f6bda3b95cb4b0,2022-06-29_09h09.36.664,Colour_Asymmetry_Pilot,2022.1.3,Win32,60.19382411,62bbe60bf3d75ef465d3e404,0,18,18,78,1,fourtwo,,,,,,,,,,,,,,,,,,,,,,,,,,,,,,,,,,,,,,,,,,,,,,,,,,,,,,,,,,,,,,,,,,,,,,,,,,,,,,,,,,,,,,,,,,,,,,,,,,,,,,,,,,,,,,,,,,,,,,,,,,,,,,,,,,,,,,,,,,,,,,,,,,,,,,,,
,,,,,,6166e6308c20d5b2777a0634,62bbfa9cc5f6bda3b95cb4b0,2022-06-29_09h09.36.664,Colour_Asymmetry_Pilot,2022.1.3,Win32,60.19382411,62bbe60bf3d75ef465d3e404,0,19,19,152,1,onetwo,,,,,,,,,,,,,,,,,,,,,,,,,,,,,,,,,,,,,,,,,,,,,,,,,,,,,,,,,,,,,,,,,,,,,,,,,,,,,,,,,,,,,,,,,,,,,,,,,,,,,,,,,,,,,,,,,,,,,,,,,,,,,,,,,,,,,,,,,,,,,,,,,,,,,,,,
,,,,,,6166e6308c20d5b2777a0634,62bbfa9cc5f6bda3b95cb4b0,2022-06-29_09h09.36.664,Colour_Asymmetry_Pilot,2022.1.3,Win32,60.19382411,62bbe60bf3d75ef465d3e404,0,20,20,4,1,threeone,,,,,,,,,,,,,,,,,,,,,,,,,,,,,,,,,,,,,,,,,,,,,,,,,,,,,,,,,,,,,,,,,,,,,,,,,,,,,,,,,,,,,,,,,,,,,,,,,,,,,,,,,,,,,,,,,,,,,,,,,,,,,,,,,,,,,,,,,,,,,,,,,,,,,,,,
,,,,,,6166e6308c20d5b2777a0634,62bbfa9cc5f6bda3b95cb4b0,2022-06-29_09h09.36.664,Colour_Asymmetry_Pilot,2022.1.3,Win32,60.19382411,62bbe60bf3d75ef465d3e404,0,21,21,112,1,onetwo,,,,,,,,,,,,,,,,,,,,,,,,,,,,,,,,,,,,,,,,,,,,,,,,,,,,,,,,,,,,,,,,,,,,,,,,,,,,,,,,,,,,,,,,,,,,,,,,,,,,,,,,,,,,,,,,,,,,,,,,,,,,,,,,,,,,,,,,,,,,,,,,,,,,,,,,
,,,,,,6166e6308c20d5b2777a0634,62bbfa9cc5f6bda3b95cb4b0,2022-06-29_09h09.36.664,Colour_Asymmetry_Pilot,2022.1.3,Win32,60.19382411,62bbe60bf3d75ef465d3e404,0,22,22,127,1,fourthree,,,,,,,,,,,,,,,,,,,,,,,,,,,,,,,,,,,,,,,,,,,,,,,,,,,,,,,,,,,,,,,,,,,,,,,,,,,,,,,,,,,,,,,,,,,,,,,,,,,,,,,,,,,,,,,,,,,,,,,,,,,,,,,,,,,,,,,,,,,,,,,,,,,,,,,,
,,,,,,6166e6308c20d5b2777a0634,62bbfa9cc5f6bda3b95cb4b0,2022-06-29_09h09.36.664,Colour_Asymmetry_Pilot,2022.1.3,Win32,60.19382411,62bbe60bf3d75ef465d3e404,0,23,23,43,1,twofour,,,,,,,,,,,,,,,,,,,,,,,,,,,,,,,,,,,,,,,,,,,,,,,,,,,,,,,,,,,,,,,,,,,,,,,,,,,,,,,,,,,,,,,,,,,,,,,,,,,,,,,,,,,,,,,,,,,,,,,,,,,,,,,,,,,,,,,,,,,,,,,,,,,,,,,,
,,,,,,6166e6308c20d5b2777a0634,62bbfa9cc5f6bda3b95cb4b0,2022-06-29_09h09.36.664,Colour_Asymmetry_Pilot,2022.1.3,Win32,60.19382411,62bbe60bf3d75ef465d3e404,0,24,24,77,1,threefour,,,,,,,,,,,,,,,,,,,,,,,,,,,,,,,,,,,,,,,,,,,,,,,,,,,,,,,,,,,,,,,,,,,,,,,,,,,,,,,,,,,,,,,,,,,,,,,,,,,,,,,,,,,,,,,,,,,,,,,,,,,,,,,,,,,,,,,,,,,,,,,,,,,,,,,,
,,,,,,6166e6308c20d5b2777a0634,62bbfa9cc5f6bda3b95cb4b0,2022-06-29_09h09.36.664,Colour_Asymmetry_Pilot,2022.1.3,Win32,60.19382411,62bbe60bf3d75ef465d3e404,0,25,25,45,1,threefour,,,,,,,,,,,,,,,,,,,,,,,,,,,,,,,,,,,,,,,,,,,,,,,,,,,,,,,,,,,,,,,,,,,,,,,,,,,,,,,,,,,,,,,,,,,,,,,,,,,,,,,,,,,,,,,,,,,,,,,,,,,,,,,,,,,,,,,,,,,,,,,,,,,,,,,,
,,,,,,6166e6308c20d5b2777a0634,62bbfa9cc5f6bda3b95cb4b0,2022-06-29_09h09.36.664,Colour_Asymmetry_Pilot,2022.1.3,Win32,60.19382411,62bbe60bf3d75ef465d3e404,0,26,26,125,1,threefour,,,,,,,,,,,,,,,,,,,,,,,,,,,,,,,,,,,,,,,,,,,,,,,,,,,,,,,,,,,,,,,,,,,,,,,,,,,,,,,,,,,,,,,,,,,,,,,,,,,,,,,,,,,,,,,,,,,,,,,,,,,,,,,,,,,,,,,,,,,,,,,,,,,,,,,,
,,,,,,6166e6308c20d5b2777a0634,62bbfa9cc5f6bda3b95cb4b0,2022-06-29_09h09.36.664,Colour_Asymmetry_Pilot,2022.1.3,Win32,60.19382411,62bbe60bf3d75ef465d3e404,0,27,27,110,1,fourtwo,,,,,,,,,,,,,,,,,,,,,,,,,,,,,,,,,,,,,,,,,,,,,,,,,,,,,,,,,,,,,,,,,,,,,,,,,,,,,,,,,,,,,,,,,,,,,,,,,,,,,,,,,,,,,,,,,,,,,,,,,,,,,,,,,,,,,,,,,,,,,,,,,,,,,,,,
,,,,,,6166e6308c20d5b2777a0634,62bbfa9cc5f6bda3b95cb4b0,2022-06-29_09h09.36.664,Colour_Asymmetry_Pilot,2022.1.3,Win32,60.19382411,62bbe60bf3d75ef465d3e404,0,28,28,133,1,threefour,,,,,,,,,,,,,,,,,,,,,,,,,,,,,,,,,,,,,,,,,,,,,,,,,,,,,,,,,,,,,,,,,,,,,,,,,,,,,,,,,,,,,,,,,,,,,,,,,,,,,,,,,,,,,,,,,,,,,,,,,,,,,,,,,,,,,,,,,,,,,,,,,,,,,,,,
,,,,,,6166e6308c20d5b2777a0634,62bbfa9cc5f6bda3b95cb4b0,2022-06-29_09h09.36.664,Colour_Asymmetry_Pilot,2022.1.3,Win32,60.19382411,62bbe60bf3d75ef465d3e404,0,29,29,42,1,twoone,,,,,,,,,,,,,,,,,,,,,,,,,,,,,,,,,,,,,,,,,,,,,,,,,,,,,,,,,,,,,,,,,,,,,,,,,,,,,,,,,,,,,,,,,,,,,,,,,,,,,,,,,,,,,,,,,,,,,,,,,,,,,,,,,,,,,,,,,,,,,,,,,,,,,,,,
,,,,,,6166e6308c20d5b2777a0634,62bbfa9cc5f6bda3b95cb4b0,2022-06-29_09h09.36.664,Colour_Asymmetry_Pilot,2022.1.3,Win32,60.19382411,62bbe60bf3d75ef465d3e404,0,30,30,155,1,twofour,,,,,,,,,,,,,,,,,,,,,,,,,,,,,,,,,,,,,,,,,,,,,,,,,,,,,,,,,,,,,,,,,,,,,,,,,,,,,,,,,,,,,,,,,,,,,,,,,,,,,,,,,,,,,,,,,,,,,,,,,,,,,,,,,,,,,,,,,,,,,,,,,,,,,,,,
,,,,,,6166e6308c20d5b2777a0634,62bbfa9cc5f6bda3b95cb4b0,2022-06-29_09h09.36.664,Colour_Asymmetry_Pilot,2022.1.3,Win32,60.19382411,62bbe60bf3d75ef465d3e404,0,31,31,5,1,threefour,,,,,,,,,,,,,,,,,,,,,,,,,,,,,,,,,,,,,,,,,,,,,,,,,,,,,,,,,,,,,,,,,,,,,,,,,,,,,,,,,,,,,,,,,,,,,,,,,,,,,,,,,,,,,,,,,,,,,,,,,,,,,,,,,,,,,,,,,,,,,,,,,,,,,,,,
,,,,,,6166e6308c20d5b2777a0634,62bbfa9cc5f6bda3b95cb4b0,2022-06-29_09h09.36.664,Colour_Asymmetry_Pilot,2022.1.3,Win32,60.19382411,62bbe60bf3d75ef465d3e404,0,32,32,2,1,twoone,,,,,,,,,,,,,,,,,,,,,,,,,,,,,,,,,,,,,,,,,,,,,,,,,,,,,,,,,,,,,,,,,,,,,,,,,,,,,,,,,,,,,,,,,,,,,,,,,,,,,,,,,,,,,,,,,,,,,,,,,,,,,,,,,,,,,,,,,,,,,,,,,,,,,,,,
,,,,,,6166e6308c20d5b2777a0634,62bbfa9cc5f6bda3b95cb4b0,2022-06-29_09h09.36.664,Colour_Asymmetry_Pilot,2022.1.3,Win32,60.19382411,62bbe60bf3d75ef465d3e404,0,33,33,114,1,twoone,,,,,,,,,,,,,,,,,,,,,,,,,,,,,,,,,,,,,,,,,,,,,,,,,,,,,,,,,,,,,,,,,,,,,,,,,,,,,,,,,,,,,,,,,,,,,,,,,,,,,,,,,,,,,,,,,,,,,,,,,,,,,,,,,,,,,,,,,,,,,,,,,,,,,,,,
,,,,,,6166e6308c20d5b2777a0634,62bbfa9cc5f6bda3b95cb4b0,2022-06-29_09h09.36.664,Colour_Asymmetry_Pilot,2022.1.3,Win32,60.19382411,62bbe60bf3d75ef465d3e404,0,34,34,26,1,twoone,,,,,,,,,,,,,,,,,,,,,,,,,,,,,,,,,,,,,,,,,,,,,,,,,,,,,,,,,,,,,,,,,,,,,,,,,,,,,,,,,,,,,,,,,,,,,,,,,,,,,,,,,,,,,,,,,,,,,,,,,,,,,,,,,,,,,,,,,,,,,,,,,,,,,,,,
,,,,,,6166e6308c20d5b2777a0634,62bbfa9cc5f6bda3b95cb4b0,2022-06-29_09h09.36.664,Colour_Asymmetry_Pilot,2022.1.3,Win32,60.19382411,62bbe60bf3d75ef465d3e404,0,35,35,51,1,twofour,,,,,,,,,,,,,,,,,,,,,,,,,,,,,,,,,,,,,,,,,,,,,,,,,,,,,,,,,,,,,,,,,,,,,,,,,,,,,,,,,,,,,,,,,,,,,,,,,,,,,,,,,,,,,,,,,,,,,,,,,,,,,,,,,,,,,,,,,,,,,,,,,,,,,,,,
,,,,,,6166e6308c20d5b2777a0634,62bbfa9cc5f6bda3b95cb4b0,2022-06-29_09h09.36.664,Colour_Asymmetry_Pilot,2022.1.3,Win32,60.19382411,62bbe60bf3d75ef465d3e404,0,36,36,9,1,onethree,,,,,,,,,,,,,,,,,,,,,,,,,,,,,,,,,,,,,,,,,,,,,,,,,,,,,,,,,,,,,,,,,,,,,,,,,,,,,,,,,,,,,,,,,,,,,,,,,,,,,,,,,,,,,,,,,,,,,,,,,,,,,,,,,,,,,,,,,,,,,,,,,,,,,,,,
,,,,,,6166e6308c20d5b2777a0634,62bbfa9cc5f6bda3b95cb4b0,2022-06-29_09h09.36.664,Colour_Asymmetry_Pilot,2022.1.3,Win32,60.19382411,62bbe60bf3d75ef465d3e404,0,37,37,146,1,twoone,,,,,,,,,,,,,,,,,,,,,,,,,,,,,,,,,,,,,,,,,,,,,,,,,,,,,,,,,,,,,,,,,,,,,,,,,,,,,,,,,,,,,,,,,,,,,,,,,,,,,,,,,,,,,,,,,,,,,,,,,,,,,,,,,,,,,,,,,,,,,,,,,,,,,,,,
,,,,,,6166e6308c20d5b2777a0634,62bbfa9cc5f6bda3b95cb4b0,2022-06-29_09h09.36.664,Colour_Asymmetry_Pilot,2022.1.3,Win32,60.19382411,62bbe60bf3d75ef465d3e404,0,38,38,109,1,threefour,,,,,,,,,,,,,,,,,,,,,,,,,,,,,,,,,,,,,,,,,,,,,,,,,,,,,,,,,,,,,,,,,,,,,,,,,,,,,,,,,,,,,,,,,,,,,,,,,,,,,,,,,,,,,,,,,,,,,,,,,,,,,,,,,,,,,,,,,,,,,,,,,,,,,,,,
,,,,,,6166e6308c20d5b2777a0634,62bbfa9cc5f6bda3b95cb4b0,2022-06-29_09h09.36.664,Colour_Asymmetry_Pilot,2022.1.3,Win32,60.19382411,62bbe60bf3d75ef465d3e404,0,39,39,104,1,onetwo,,,,,,,,,,,,,,,,,,,,,,,,,,,,,,,,,,,,,,,,,,,,,,,,,,,,,,,,,,,,,,,,,,,,,,,,,,,,,,,,,,,,,,,,,,,,,,,,,,,,,,,,,,,,,,,,,,,,,,,,,,,,,,,,,,,,,,,,,,,,,,,,,,,,,,,,
,,,,,,6166e6308c20d5b2777a0634,62bbfa9cc5f6bda3b95cb4b0,2022-06-29_09h09.36.664,Colour_Asymmetry_Pilot,2022.1.3,Win32,60.19382411,62bbe60bf3d75ef465d3e404,0,40,40,97,1,onethree,,,,,,,,,,,,,,,,,,,,,,,,,,,,,,,,,,,,,,,,,,,,,,,,,,,,,,,,,,,,,,,,,,,,,,,,,,,,,,,,,,,,,,,,,,,,,,,,,,,,,,,,,,,,,,,,,,,,,,,,,,,,,,,,,,,,,,,,,,,,,,,,,,,,,,,,
,,,,,,6166e6308c20d5b2777a0634,62bbfa9cc5f6bda3b95cb4b0,2022-06-29_09h09.36.664,Colour_Asymmetry_Pilot,2022.1.3,Win32,60.19382411,62bbe60bf3d75ef465d3e404,0,41,41,72,1,onetwo,,,,,,,,,,,,,,,,,,,,,,,,,,,,,,,,,,,,,,,,,,,,,,,,,,,,,,,,,,,,,,,,,,,,,,,,,,,,,,,,,,,,,,,,,,,,,,,,,,,,,,,,,,,,,,,,,,,,,,,,,,,,,,,,,,,,,,,,,,,,,,,,,,,,,,,,
,,,,,,6166e6308c20d5b2777a0634,62bbfa9cc5f6bda3b95cb4b0,2022-06-29_09h09.36.664,Colour_Asymmetry_Pilot,2022.1.3,Win32,60.19382411,62bbe60bf3d75ef465d3e404,0,42,42,69,1,threefour,,,,,,,,,,,,,,,,,,,,,,,,,,,,,,,,,,,,,,,,,,,,,,,,,,,,,,,,,,,,,,,,,,,,,,,,,,,,,,,,,,,,,,,,,,,,,,,,,,,,,,,,,,,,,,,,,,,,,,,,,,,,,,,,,,,,,,,,,,,,,,,,,,,,,,,,
,,,,,,6166e6308c20d5b2777a0634,62bbfa9cc5f6bda3b95cb4b0,2022-06-29_09h09.36.664,Colour_Asymmetry_Pilot,2022.1.3,Win32,60.19382411,62bbe60bf3d75ef465d3e404,0,43,43,140,1,threeone,,,,,,,,,,,,,,,,,,,,,,,,,,,,,,,,,,,,,,,,,,,,,,,,,,,,,,,,,,,,,,,,,,,,,,,,,,,,,,,,,,,,,,,,,,,,,,,,,,,,,,,,,,,,,,,,,,,,,,,,,,,,,,,,,,,,,,,,,,,,,,,,,,,,,,,,
,,,,,,6166e6308c20d5b2777a0634,62bbfa9cc5f6bda3b95cb4b0,2022-06-29_09h09.36.664,Colour_Asymmetry_Pilot,2022.1.3,Win32,60.19382411,62bbe60bf3d75ef465d3e404,0,44,44,153,1,onethree,,,,,,,,,,,,,,,,,,,,,,,,,,,,,,,,,,,,,,,,,,,,,,,,,,,,,,,,,,,,,,,,,,,,,,,,,,,,,,,,,,,,,,,,,,,,,,,,,,,,,,,,,,,,,,,,,,,,,,,,,,,,,,,,,,,,,,,,,,,,,,,,,,,,,,,,
,,,,,,6166e6308c20d5b2777a0634,62bbfa9cc5f6bda3b95cb4b0,2022-06-29_09h09.36.664,Colour_Asymmetry_Pilot,2022.1.3,Win32,60.19382411,62bbe60bf3d75ef465d3e404,0,45,45,20,1,threeone,,,,,,,,,,,,,,,,,,,,,,,,,,,,,,,,,,,,,,,,,,,,,,,,,,,,,,,,,,,,,,,,,,,,,,,,,,,,,,,,,,,,,,,,,,,,,,,,,,,,,,,,,,,,,,,,,,,,,,,,,,,,,,,,,,,,,,,,,,,,,,,,,,,,,,,,
,,,,,,6166e6308c20d5b2777a0634,62bbfa9cc5f6bda3b95cb4b0,2022-06-29_09h09.36.664,Colour_Asymmetry_Pilot,2022.1.3,Win32,60.19382411,62bbe60bf3d75ef465d3e404,0,46,46,154,1,twoone,,,,,,,,,,,,,,,,,,,,,,,,,,,,,,,,,,,,,,,,,,,,,,,,,,,,,,,,,,,,,,,,,,,,,,,,,,,,,,,,,,,,,,,,,,,,,,,,,,,,,,,,,,,,,,,,,,,,,,,,,,,,,,,,,,,,,,,,,,,,,,,,,,,,,,,,
,,,,,,6166e6308c20d5b2777a0634,62bbfa9cc5f6bda3b95cb4b0,2022-06-29_09h09.36.664,Colour_Asymmetry_Pilot,2022.1.3,Win32,60.19382411,62bbe60bf3d75ef465d3e404,0,47,47,34,1,twoone,,,,,,,,,,,,,,,,,,,,,,,,,,,,,,,,,,,,,,,,,,,,,,,,,,,,,,,,,,,,,,,,,,,,,,,,,,,,,,,,,,,,,,,,,,,,,,,,,,,,,,,,,,,,,,,,,,,,,,,,,,,,,,,,,,,,,,,,,,,,,,,,,,,,,,,,
,,,,,,6166e6308c20d5b2777a0634,62bbfa9cc5f6bda3b95cb4b0,2022-06-29_09h09.36.664,Colour_Asymmetry_Pilot,2022.1.3,Win32,60.19382411,62bbe60bf3d75ef465d3e404,0,48,48,25,1,onethree,,,,,,,,,,,,,,,,,,,,,,,,,,,,,,,,,,,,,,,,,,,,,,,,,,,,,,,,,,,,,,,,,,,,,,,,,,,,,,,,,,,,,,,,,,,,,,,,,,,,,,,,,,,,,,,,,,,,,,,,,,,,,,,,,,,,,,,,,,,,,,,,,,,,,,,,
,,,,,,6166e6308c20d5b2777a0634,62bbfa9cc5f6bda3b95cb4b0,2022-06-29_09h09.36.664,Colour_Asymmetry_Pilot,2022.1.3,Win32,60.19382411,62bbe60bf3d75ef465d3e404,0,49,49,84,1,threeone,,,,,,,,,,,,,,,,,,,,,,,,,,,,,,,,,,,,,,,,,,,,,,,,,,,,,,,,,,,,,,,,,,,,,,,,,,,,,,,,,,,,,,,,,,,,,,,,,,,,,,,,,,,,,,,,,,,,,,,,,,,,,,,,,,,,,,,,,,,,,,,,,,,,,,,,
,,,,,,6166e6308c20d5b2777a0634,62bbfa9cc5f6bda3b95cb4b0,2022-06-29_09h09.36.664,Colour_Asymmetry_Pilot,2022.1.3,Win32,60.19382411,62bbe60bf3d75ef465d3e404,0,50,50,57,1,onethree,,,,,,,,,,,,,,,,,,,,,,,,,,,,,,,,,,,,,,,,,,,,,,,,,,,,,,,,,,,,,,,,,,,,,,,,,,,,,,,,,,,,,,,,,,,,,,,,,,,,,,,,,,,,,,,,,,,,,,,,,,,,,,,,,,,,,,,,,,,,,,,,,,,,,,,,
,,,,,,6166e6308c20d5b2777a0634,62bbfa9cc5f6bda3b95cb4b0,2022-06-29_09h09.36.664,Colour_Asymmetry_Pilot,2022.1.3,Win32,60.19382411,62bbe60bf3d75ef465d3e404,0,51,51,158,1,fourtwo,,,,,,,,,,,,,,,,,,,,,,,,,,,,,,,,,,,,,,,,,,,,,,,,,,,,,,,,,,,,,,,,,,,,,,,,,,,,,,,,,,,,,,,,,,,,,,,,,,,,,,,,,,,,,,,,,,,,,,,,,,,,,,,,,,,,,,,,,,,,,,,,,,,,,,,,
,,,,,,6166e6308c20d5b2777a0634,62bbfa9cc5f6bda3b95cb4b0,2022-06-29_09h09.36.664,Colour_Asymmetry_Pilot,2022.1.3,Win32,60.19382411,62bbe60bf3d75ef465d3e404,0,52,52,141,1,threefour,,,,,,,,,,,,,,,,,,,,,,,,,,,,,,,,,,,,,,,,,,,,,,,,,,,,,,,,,,,,,,,,,,,,,,,,,,,,,,,,,,,,,,,,,,,,,,,,,,,,,,,,,,,,,,,,,,,,,,,,,,,,,,,,,,,,,,,,,,,,,,,,,,,,,,,,
,,,,,,6166e6308c20d5b2777a0634,62bbfa9cc5f6bda3b95cb4b0,2022-06-29_09h09.36.664,Colour_Asymmetry_Pilot,2022.1.3,Win32,60.19382411,62bbe60bf3d75ef465d3e404,0,53,53,50,1,twoone,,,,,,,,,,,,,,,,,,,,,,,,,,,,,,,,,,,,,,,,,,,,,,,,,,,,,,,,,,,,,,,,,,,,,,,,,,,,,,,,,,,,,,,,,,,,,,,,,,,,,,,,,,,,,,,,,,,,,,,,,,,,,,,,,,,,,,,,,,,,,,,,,,,,,,,,
,,,,,,6166e6308c20d5b2777a0634,62bbfa9cc5f6bda3b95cb4b0,2022-06-29_09h09.36.664,Colour_Asymmetry_Pilot,2022.1.3,Win32,60.19382411,62bbe60bf3d75ef465d3e404,0,54,54,134,1,fourtwo,,,,,,,,,,,,,,,,,,,,,,,,,,,,,,,,,,,,,,,,,,,,,,,,,,,,,,,,,,,,,,,,,,,,,,,,,,,,,,,,,,,,,,,,,,,,,,,,,,,,,,,,,,,,,,,,,,,,,,,,,,,,,,,,,,,,,,,,,,,,,,,,,,,,,,,,
,,,,,,6166e6308c20d5b2777a0634,62bbfa9cc5f6bda3b95cb4b0,2022-06-29_09h09.36.664,Colour_Asymmetry_Pilot,2022.1.3,Win32,60.19382411,62bbe60bf3d75ef465d3e404,0,55,55,39,1,fourthree,,,,,,,,,,,,,,,,,,,,,,,,,,,,,,,,,,,,,,,,,,,,,,,,,,,,,,,,,,,,,,,,,,,,,,,,,,,,,,,,,,,,,,,,,,,,,,,,,,,,,,,,,,,,,,,,,,,,,,,,,,,,,,,,,,,,,,,,,,,,,,,,,,,,,,,,
,,,,,,6166e6308c20d5b2777a0634,62bbfa9cc5f6bda3b95cb4b0,2022-06-29_09h09.36.664,Colour_Asymmetry_Pilot,2022.1.3,Win32,60.19382411,62bbe60bf3d75ef465d3e404,0,56,56,60,1,threeone,,,,,,,,,,,,,,,,,,,,,,,,,,,,,,,,,,,,,,,,,,,,,,,,,,,,,,,,,,,,,,,,,,,,,,,,,,,,,,,,,,,,,,,,,,,,,,,,,,,,,,,,,,,,,,,,,,,,,,,,,,,,,,,,,,,,,,,,,,,,,,,,,,,,,,,,
,,,,,,6166e6308c20d5b2777a0634,62bbfa9cc5f6bda3b95cb4b0,2022-06-29_09h09.36.664,Colour_Asymmetry_Pilot,2022.1.3,Win32,60.19382411,62bbe60bf3d75ef465d3e404,0,57,57,12,1,threeone,,,,,,,,,,,,,,,,,,,,,,,,,,,,,,,,,,,,,,,,,,,,,,,,,,,,,,,,,,,,,,,,,,,,,,,,,,,,,,,,,,,,,,,,,,,,,,,,,,,,,,,,,,,,,,,,,,,,,,,,,,,,,,,,,,,,,,,,,,,,,,,,,,,,,,,,
,,,,,,6166e6308c20d5b2777a0634,62bbfa9cc5f6bda3b95cb4b0,2022-06-29_09h09.36.664,Colour_Asymmetry_Pilot,2022.1.3,Win32,60.19382411,62bbe60bf3d75ef465d3e404,0,58,58,21,1,threefour,,,,,,,,,,,,,,,,,,,,,,,,,,,,,,,,,,,,,,,,,,,,,,,,,,,,,,,,,,,,,,,,,,,,,,,,,,,,,,,,,,,,,,,,,,,,,,,,,,,,,,,,,,,,,,,,,,,,,,,,,,,,,,,,,,,,,,,,,,,,,,,,,,,,,,,,
,,,,,,6166e6308c20d5b2777a0634,62bbfa9cc5f6bda3b95cb4b0,2022-06-29_09h09.36.664,Colour_Asymmetry_Pilot,2022.1.3,Win32,60.19382411,62bbe60bf3d75ef465d3e404,0,59,59,120,1,onetwo,,,,,,,,,,,,,,,,,,,,,,,,,,,,,,,,,,,,,,,,,,,,,,,,,,,,,,,,,,,,,,,,,,,,,,,,,,,,,,,,,,,,,,,,,,,,,,,,,,,,,,,,,,,,,,,,,,,,,,,,,,,,,,,,,,,,,,,,,,,,,,,,,,,,,,,,
,,,,,,6166e6308c20d5b2777a0634,62bbfa9cc5f6bda3b95cb4b0,2022-06-29_09h09.36.664,Colour_Asymmetry_Pilot,2022.1.3,Win32,60.19382411,62bbe60bf3d75ef465d3e404,0,60,60,88,1,onetwo,,,,,,,,,,,,,,,,,,,,,,,,,,,,,,,,,,,,,,,,,,,,,,,,,,,,,,,,,,,,,,,,,,,,,,,,,,,,,,,,,,,,,,,,,,,,,,,,,,,,,,,,,,,,,,,,,,,,,,,,,,,,,,,,,,,,,,,,,,,,,,,,,,,,,,,,
,,,,,,6166e6308c20d5b2777a0634,62bbfa9cc5f6bda3b95cb4b0,2022-06-29_09h09.36.664,Colour_Asymmetry_Pilot,2022.1.3,Win32,60.19382411,62bbe60bf3d75ef465d3e404,0,61,61,138,1,twoone,,,,,,,,,,,,,,,,,,,,,,,,,,,,,,,,,,,,,,,,,,,,,,,,,,,,,,,,,,,,,,,,,,,,,,,,,,,,,,,,,,,,,,,,,,,,,,,,,,,,,,,,,,,,,,,,,,,,,,,,,,,,,,,,,,,,,,,,,,,,,,,,,,,,,,,,
,,,,,,6166e6308c20d5b2777a0634,62bbfa9cc5f6bda3b95cb4b0,2022-06-29_09h09.36.664,Colour_Asymmetry_Pilot,2022.1.3,Win32,60.19382411,62bbe60bf3d75ef465d3e404,0,62,62,19,1,twofour,,,,,,,,,,,,,,,,,,,,,,,,,,,,,,,,,,,,,,,,,,,,,,,,,,,,,,,,,,,,,,,,,,,,,,,,,,,,,,,,,,,,,,,,,,,,,,,,,,,,,,,,,,,,,,,,,,,,,,,,,,,,,,,,,,,,,,,,,,,,,,,,,,,,,,,,
,,,,,,6166e6308c20d5b2777a0634,62bbfa9cc5f6bda3b95cb4b0,2022-06-29_09h09.36.664,Colour_Asymmetry_Pilot,2022.1.3,Win32,60.19382411,62bbe60bf3d75ef465d3e404,0,63,63,145,1,onethree,,,,,,,,,,,,,,,,,,,,,,,,,,,,,,,,,,,,,,,,,,,,,,,,,,,,,,,,,,,,,,,,,,,,,,,,,,,,,,,,,,,,,,,,,,,,,,,,,,,,,,,,,,,,,,,,,,,,,,,,,,,,,,,,,,,,,,,,,,,,,,,,,,,,,,,,
,,,,,,6166e6308c20d5b2777a0634,62bbfa9cc5f6bda3b95cb4b0,2022-06-29_09h09.36.664,Colour_Asymmetry_Pilot,2022.1.3,Win32,60.19382411,62bbe60bf3d75ef465d3e404,0,64,64,3,1,twofour,,,,,,,,,,,,,,,,,,,,,,,,,,,,,,,,,,,,,,,,,,,,,,,,,,,,,,,,,,,,,,,,,,,,,,,,,,,,,,,,,,,,,,,,,,,,,,,,,,,,,,,,,,,,,,,,,,,,,,,,,,,,,,,,,,,,,,,,,,,,,,,,,,,,,,,,
,,,,,,6166e6308c20d5b2777a0634,62bbfa9cc5f6bda3b95cb4b0,2022-06-29_09h09.36.664,Colour_Asymmetry_Pilot,2022.1.3,Win32,60.19382411,62bbe60bf3d75ef465d3e404,0,65,65,161,1,onethree,,,,,,,,,,,,,,,,,,,,,,,,,,,,,,,,,,,,,,,,,,,,,,,,,,,,,,,,,,,,,,,,,,,,,,,,,,,,,,,,,,,,,,,,,,,,,,,,,,,,,,,,,,,,,,,,,,,,,,,,,,,,,,,,,,,,,,,,,,,,,,,,,,,,,,,,
,,,,,,6166e6308c20d5b2777a0634,62bbfa9cc5f6bda3b95cb4b0,2022-06-29_09h09.36.664,Colour_Asymmetry_Pilot,2022.1.3,Win32,60.19382411,62bbe60bf3d75ef465d3e404,0,66,66,129,1,onethree,,,,,,,,,,,,,,,,,,,,,,,,,,,,,,,,,,,,,,,,,,,,,,,,,,,,,,,,,,,,,,,,,,,,,,,,,,,,,,,,,,,,,,,,,,,,,,,,,,,,,,,,,,,,,,,,,,,,,,,,,,,,,,,,,,,,,,,,,,,,,,,,,,,,,,,,
,,,,,,6166e6308c20d5b2777a0634,62bbfa9cc5f6bda3b95cb4b0,2022-06-29_09h09.36.664,Colour_Asymmetry_Pilot,2022.1.3,Win32,60.19382411,62bbe60bf3d75ef465d3e404,0,67,67,22,1,fourtwo,,,,,,,,,,,,,,,,,,,,,,,,,,,,,,,,,,,,,,,,,,,,,,,,,,,,,,,,,,,,,,,,,,,,,,,,,,,,,,,,,,,,,,,,,,,,,,,,,,,,,,,,,,,,,,,,,,,,,,,,,,,,,,,,,,,,,,,,,,,,,,,,,,,,,,,,
,,,,,,6166e6308c20d5b2777a0634,62bbfa9cc5f6bda3b95cb4b0,2022-06-29_09h09.36.664,Colour_Asymmetry_Pilot,2022.1.3,Win32,60.19382411,62bbe60bf3d75ef465d3e404,0,68,68,68,1,threeone,,,,,,,,,,,,,,,,,,,,,,,,,,,,,,,,,,,,,,,,,,,,,,,,,,,,,,,,,,,,,,,,,,,,,,,,,,,,,,,,,,,,,,,,,,,,,,,,,,,,,,,,,,,,,,,,,,,,,,,,,,,,,,,,,,,,,,,,,,,,,,,,,,,,,,,,
,,,,,,6166e6308c20d5b2777a0634,62bbfa9cc5f6bda3b95cb4b0,2022-06-29_09h09.36.664,Colour_Asymmetry_Pilot,2022.1.3,Win32,60.19382411,62bbe60bf3d75ef465d3e404,0,69,69,82,1,twoone,,,,,,,,,,,,,,,,,,,,,,,,,,,,,,,,,,,,,,,,,,,,,,,,,,,,,,,,,,,,,,,,,,,,,,,,,,,,,,,,,,,,,,,,,,,,,,,,,,,,,,,,,,,,,,,,,,,,,,,,,,,,,,,,,,,,,,,,,,,,,,,,,,,,,,,,
,,,,,,6166e6308c20d5b2777a0634,62bbfa9cc5f6bda3b95cb4b0,2022-06-29_09h09.36.664,Colour_Asymmetry_Pilot,2022.1.3,Win32,60.19382411,62bbe60bf3d75ef465d3e404,0,70,70,91,1,twofour,,,,,,,,,,,,,,,,,,,,,,,,,,,,,,,,,,,,,,,,,,,,,,,,,,,,,,,,,,,,,,,,,,,,,,,,,,,,,,,,,,,,,,,,,,,,,,,,,,,,,,,,,,,,,,,,,,,,,,,,,,,,,,,,,,,,,,,,,,,,,,,,,,,,,,,,
,,,,,,6166e6308c20d5b2777a0634,62bbfa9cc5f6bda3b95cb4b0,2022-06-29_09h09.36.664,Colour_Asymmetry_Pilot,2022.1.3,Win32,60.19382411,62bbe60bf3d75ef465d3e404,0,71,71,121,1,onethree,,,,,,,,,,,,,,,,,,,,,,,,,,,,,,,,,,,,,,,,,,,,,,,,,,,,,,,,,,,,,,,,,,,,,,,,,,,,,,,,,,,,,,,,,,,,,,,,,,,,,,,,,,,,,,,,,,,,,,,,,,,,,,,,,,,,,,,,,,,,,,,,,,,,,,,,
,,,,,,6166e6308c20d5b2777a0634,62bbfa9cc5f6bda3b95cb4b0,2022-06-29_09h09.36.664,Colour_Asymmetry_Pilot,2022.1.3,Win32,60.19382411,62bbe60bf3d75ef465d3e404,0,72,72,143,1,fourthree,,,,,,,,,,,,,,,,,,,,,,,,,,,,,,,,,,,,,,,,,,,,,,,,,,,,,,,,,,,,,,,,,,,,,,,,,,,,,,,,,,,,,,,,,,,,,,,,,,,,,,,,,,,,,,,,,,,,,,,,,,,,,,,,,,,,,,,,,,,,,,,,,,,,,,,,
,,,,,,6166e6308c20d5b2777a0634,62bbfa9cc5f6bda3b95cb4b0,2022-06-29_09h09.36.664,Colour_Asymmetry_Pilot,2022.1.3,Win32,60.19382411,62bbe60bf3d75ef465d3e404,0,73,73,16,1,onetwo,,,,,,,,,,,,,,,,,,,,,,,,,,,,,,,,,,,,,,,,,,,,,,,,,,,,,,,,,,,,,,,,,,,,,,,,,,,,,,,,,,,,,,,,,,,,,,,,,,,,,,,,,,,,,,,,,,,,,,,,,,,,,,,,,,,,,,,,,,,,,,,,,,,,,,,,
,,,,,,6166e6308c20d5b2777a0634,62bbfa9cc5f6bda3b95cb4b0,2022-06-29_09h09.36.664,Colour_Asymmetry_Pilot,2022.1.3,Win32,60.19382411,62bbe60bf3d75ef465d3e404,0,74,74,76,1,threeone,,,,,,,,,,,,,,,,,,,,,,,,,,,,,,,,,,,,,,,,,,,,,,,,,,,,,,,,,,,,,,,,,,,,,,,,,,,,,,,,,,,,,,,,,,,,,,,,,,,,,,,,,,,,,,,,,,,,,,,,,,,,,,,,,,,,,,,,,,,,,,,,,,,,,,,,
,,,,,,6166e6308c20d5b2777a0634,62bbfa9cc5f6bda3b95cb4b0,2022-06-29_09h09.36.664,Colour_Asymmetry_Pilot,2022.1.3,Win32,60.19382411,62bbe60bf3d75ef465d3e404,0,75,75,7,1,fourthree,,,,,,,,,,,,,,,,,,,,,,,,,,,,,,,,,,,,,,,,,,,,,,,,,,,,,,,,,,,,,,,,,,,,,,,,,,,,,,,,,,,,,,,,,,,,,,,,,,,,,,,,,,,,,,,,,,,,,,,,,,,,,,,,,,,,,,,,,,,,,,,,,,,,,,,,
,,,,,,6166e6308c20d5b2777a0634,62bbfa9cc5f6bda3b95cb4b0,2022-06-29_09h09.36.664,Colour_Asymmetry_Pilot,2022.1.3,Win32,60.19382411,62bbe60bf3d75ef465d3e404,0,76,76,44,1,threeone,,,,,,,,,,,,,,,,,,,,,,,,,,,,,,,,,,,,,,,,,,,,,,,,,,,,,,,,,,,,,,,,,,,,,,,,,,,,,,,,,,,,,,,,,,,,,,,,,,,,,,,,,,,,,,,,,,,,,,,,,,,,,,,,,,,,,,,,,,,,,,,,,,,,,,,,
,,,,,,6166e6308c20d5b2777a0634,62bbfa9cc5f6bda3b95cb4b0,2022-06-29_09h09.36.664,Colour_Asymmetry_Pilot,2022.1.3,Win32,60.19382411,62bbe60bf3d75ef465d3e404,0,77,77,10,1,twoone,,,,,,,,,,,,,,,,,,,,,,,,,,,,,,,,,,,,,,,,,,,,,,,,,,,,,,,,,,,,,,,,,,,,,,,,,,,,,,,,,,,,,,,,,,,,,,,,,,,,,,,,,,,,,,,,,,,,,,,,,,,,,,,,,,,,,,,,,,,,,,,,,,,,,,,,
,,,,,,6166e6308c20d5b2777a0634,62bbfa9cc5f6bda3b95cb4b0,2022-06-29_09h09.36.664,Colour_Asymmetry_Pilot,2022.1.3,Win32,60.19382411,62bbe60bf3d75ef465d3e404,0,78,78,108,1,threeone,,,,,,,,,,,,,,,,,,,,,,,,,,,,,,,,,,,,,,,,,,,,,,,,,,,,,,,,,,,,,,,,,,,,,,,,,,,,,,,,,,,,,,,,,,,,,,,,,,,,,,,,,,,,,,,,,,,,,,,,,,,,,,,,,,,,,,,,,,,,,,,,,,,,,,,,
,,,,,,6166e6308c20d5b2777a0634,62bbfa9cc5f6bda3b95cb4b0,2022-06-29_09h09.36.664,Colour_Asymmetry_Pilot,2022.1.3,Win32,60.19382411,62bbe60bf3d75ef465d3e404,0,79,79,38,1,fourtwo,,,,,,,,,,,,,,,,,,,,,,,,,,,,,,,,,,,,,,,,,,,,,,,,,,,,,,,,,,,,,,,,,,,,,,,,,,,,,,,,,,,,,,,,,,,,,,,,,,,,,,,,,,,,,,,,,,,,,,,,,,,,,,,,,,,,,,,,,,,,,,,,,,,,,,,,
,,,,,,6166e6308c20d5b2777a0634,62bbfa9cc5f6bda3b95cb4b0,2022-06-29_09h09.36.664,Colour_Asymmetry_Pilot,2022.1.3,Win32,60.19382411,62bbe60bf3d75ef465d3e404,0,80,80,54,1,fourtwo,,,,,,,,,,,,,,,,,,,,,,,,,,,,,,,,,,,,,,,,,,,,,,,,,,,,,,,,,,,,,,,,,,,,,,,,,,,,,,,,,,,,,,,,,,,,,,,,,,,,,,,,,,,,,,,,,,,,,,,,,,,,,,,,,,,,,,,,,,,,,,,,,,,,,,,,
,,,,,,6166e6308c20d5b2777a0634,62bbfa9cc5f6bda3b95cb4b0,2022-06-29_09h09.36.664,Colour_Asymmetry_Pilot,2022.1.3,Win32,60.19382411,62bbe60bf3d75ef465d3e404,0,81,81,118,1,fourtwo,,,,,,,,,,,,,,,,,,,,,,,,,,,,,,,,,,,,,,,,,,,,,,,,,,,,,,,,,,,,,,,,,,,,,,,,,,,,,,,,,,,,,,,,,,,,,,,,,,,,,,,,,,,,,,,,,,,,,,,,,,,,,,,,,,,,,,,,,,,,,,,,,,,,,,,,
,,,,,,6166e6308c20d5b2777a0634,62bbfa9cc5f6bda3b95cb4b0,2022-06-29_09h09.36.664,Colour_Asymmetry_Pilot,2022.1.3,Win32,60.19382411,62bbe60bf3d75ef465d3e404,0,82,82,113,1,onethree,,,,,,,,,,,,,,,,,,,,,,,,,,,,,,,,,,,,,,,,,,,,,,,,,,,,,,,,,,,,,,,,,,,,,,,,,,,,,,,,,,,,,,,,,,,,,,,,,,,,,,,,,,,,,,,,,,,,,,,,,,,,,,,,,,,,,,,,,,,,,,,,,,,,,,,,
,,,,,,6166e6308c20d5b2777a0634,62bbfa9cc5f6bda3b95cb4b0,2022-06-29_09h09.36.664,Colour_Asymmetry_Pilot,2022.1.3,Win32,60.19382411,62bbe60bf3d75ef465d3e404,0,83,83,74,1,twoone,,,,,,,,,,,,,,,,,,,,,,,,,,,,,,,,,,,,,,,,,,,,,,,,,,,,,,,,,,,,,,,,,,,,,,,,,,,,,,,,,,,,,,,,,,,,,,,,,,,,,,,,,,,,,,,,,,,,,,,,,,,,,,,,,,,,,,,,,,,,,,,,,,,,,,,,
,,,,,,6166e6308c20d5b2777a0634,62bbfa9cc5f6bda3b95cb4b0,2022-06-29_09h09.36.664,Colour_Asymmetry_Pilot,2022.1.3,Win32,60.19382411,62bbe60bf3d75ef465d3e404,0,84,84,130,1,twoone,,,,,,,,,,,,,,,,,,,,,,,,,,,,,,,,,,,,,,,,,,,,,,,,,,,,,,,,,,,,,,,,,,,,,,,,,,,,,,,,,,,,,,,,,,,,,,,,,,,,,,,,,,,,,,,,,,,,,,,,,,,,,,,,,,,,,,,,,,,,,,,,,,,,,,,,
,,,,,,6166e6308c20d5b2777a0634,62bbfa9cc5f6bda3b95cb4b0,2022-06-29_09h09.36.664,Colour_Asymmetry_Pilot,2022.1.3,Win32,60.19382411,62bbe60bf3d75ef465d3e404,0,85,85,48,1,onetwo,,,,,,,,,,,,,,,,,,,,,,,,,,,,,,,,,,,,,,,,,,,,,,,,,,,,,,,,,,,,,,,,,,,,,,,,,,,,,,,,,,,,,,,,,,,,,,,,,,,,,,,,,,,,,,,,,,,,,,,,,,,,,,,,,,,,,,,,,,,,,,,,,,,,,,,,
,,,,,,6166e6308c20d5b2777a0634,62bbfa9cc5f6bda3b95cb4b0,2022-06-29_09h09.36.664,Colour_Asymmetry_Pilot,2022.1.3,Win32,60.19382411,62bbe60bf3d75ef465d3e404,0,86,86,15,1,fourthree,,,,,,,,,,,,,,,,,,,,,,,,,,,,,,,,,,,,,,,,,,,,,,,,,,,,,,,,,,,,,,,,,,,,,,,,,,,,,,,,,,,,,,,,,,,,,,,,,,,,,,,,,,,,,,,,,,,,,,,,,,,,,,,,,,,,,,,,,,,,,,,,,,,,,,,,
,,,,,,6166e6308c20d5b2777a0634,62bbfa9cc5f6bda3b95cb4b0,2022-06-29_09h09.36.664,Colour_Asymmetry_Pilot,2022.1.3,Win32,60.19382411,62bbe60bf3d75ef465d3e404,0,87,87,37,1,threefour,,,,,,,,,,,,,,,,,,,,,,,,,,,,,,,,,,,,,,,,,,,,,,,,,,,,,,,,,,,,,,,,,,,,,,,,,,,,,,,,,,,,,,,,,,,,,,,,,,,,,,,,,,,,,,,,,,,,,,,,,,,,,,,,,,,,,,,,,,,,,,,,,,,,,,,,
,,,,,,6166e6308c20d5b2777a0634,62bbfa9cc5f6bda3b95cb4b0,2022-06-29_09h09.36.664,Colour_Asymmetry_Pilot,2022.1.3,Win32,60.19382411,62bbe60bf3d75ef465d3e404,0,88,88,61,1,threefour,,,,,,,,,,,,,,,,,,,,,,,,,,,,,,,,,,,,,,,,,,,,,,,,,,,,,,,,,,,,,,,,,,,,,,,,,,,,,,,,,,,,,,,,,,,,,,,,,,,,,,,,,,,,,,,,,,,,,,,,,,,,,,,,,,,,,,,,,,,,,,,,,,,,,,,,
,,,,,,6166e6308c20d5b2777a0634,62bbfa9cc5f6bda3b95cb4b0,2022-06-29_09h09.36.664,Colour_Asymmetry_Pilot,2022.1.3,Win32,60.19382411,62bbe60bf3d75ef465d3e404,0,89,89,30,1,fourtwo,,,,,,,,,,,,,,,,,,,,,,,,,,,,,,,,,,,,,,,,,,,,,,,,,,,,,,,,,,,,,,,,,,,,,,,,,,,,,,,,,,,,,,,,,,,,,,,,,,,,,,,,,,,,,,,,,,,,,,,,,,,,,,,,,,,,,,,,,,,,,,,,,,,,,,,,
,,,,,,6166e6308c20d5b2777a0634,62bbfa9cc5f6bda3b95cb4b0,2022-06-29_09h09.36.664,Colour_Asymmetry_Pilot,2022.1.3,Win32,60.19382411,62bbe60bf3d75ef465d3e404,0,90,90,137,1,onethree,,,,,,,,,,,,,,,,,,,,,,,,,,,,,,,,,,,,,,,,,,,,,,,,,,,,,,,,,,,,,,,,,,,,,,,,,,,,,,,,,,,,,,,,,,,,,,,,,,,,,,,,,,,,,,,,,,,,,,,,,,,,,,,,,,,,,,,,,,,,,,,,,,,,,,,,
,,,,,,6166e6308c20d5b2777a0634,62bbfa9cc5f6bda3b95cb4b0,2022-06-29_09h09.36.664,Colour_Asymmetry_Pilot,2022.1.3,Win32,60.19382411,62bbe60bf3d75ef465d3e404,0,91,91,107,1,twofour,,,,,,,,,,,,,,,,,,,,,,,,,,,,,,,,,,,,,,,,,,,,,,,,,,,,,,,,,,,,,,,,,,,,,,,,,,,,,,,,,,,,,,,,,,,,,,,,,,,,,,,,,,,,,,,,,,,,,,,,,,,,,,,,,,,,,,,,,,,,,,,,,,,,,,,,
,,,,,,6166e6308c20d5b2777a0634,62bbfa9cc5f6bda3b95cb4b0,2022-06-29_09h09.36.664,Colour_Asymmetry_Pilot,2022.1.3,Win32,60.19382411,62bbe60bf3d75ef465d3e404,0,92,92,131,1,twofour,,,,,,,,,,,,,,,,,,,,,,,,,,,,,,,,,,,,,,,,,,,,,,,,,,,,,,,,,,,,,,,,,,,,,,,,,,,,,,,,,,,,,,,,,,,,,,,,,,,,,,,,,,,,,,,,,,,,,,,,,,,,,,,,,,,,,,,,,,,,,,,,,,,,,,,,
,,,,,,6166e6308c20d5b2777a0634,62bbfa9cc5f6bda3b95cb4b0,2022-06-29_09h09.36.664,Colour_Asymmetry_Pilot,2022.1.3,Win32,60.19382411,62bbe60bf3d75ef465d3e404,0,93,93,24,1,onetwo,,,,,,,,,,,,,,,,,,,,,,,,,,,,,,,,,,,,,,,,,,,,,,,,,,,,,,,,,,,,,,,,,,,,,,,,,,,,,,,,,,,,,,,,,,,,,,,,,,,,,,,,,,,,,,,,,,,,,,,,,,,,,,,,,,,,,,,,,,,,,,,,,,,,,,,,
,,,,,,6166e6308c20d5b2777a0634,62bbfa9cc5f6bda3b95cb4b0,2022-06-29_09h09.36.664,Colour_Asymmetry_Pilot,2022.1.3,Win32,60.19382411,62bbe60bf3d75ef465d3e404,0,94,94,81,1,onethree,,,,,,,,,,,,,,,,,,,,,,,,,,,,,,,,,,,,,,,,,,,,,,,,,,,,,,,,,,,,,,,,,,,,,,,,,,,,,,,,,,,,,,,,,,,,,,,,,,,,,,,,,,,,,,,,,,,,,,,,,,,,,,,,,,,,,,,,,,,,,,,,,,,,,,,,
,,,,,,6166e6308c20d5b2777a0634,62bbfa9cc5f6bda3b95cb4b0,2022-06-29_09h09.36.664,Colour_Asymmetry_Pilot,2022.1.3,Win32,60.19382411,62bbe60bf3d75ef465d3e404,0,95,95,49,1,onethree,,,,,,,,,,,,,,,,,,,,,,,,,,,,,,,,,,,,,,,,,,,,,,,,,,,,,,,,,,,,,,,,,,,,,,,,,,,,,,,,,,,,,,,,,,,,,,,,,,,,,,,,,,,,,,,,,,,,,,,,,,,,,,,,,,,,,,,,,,,,,,,,,,,,,,,,
,,,,,,6166e6308c20d5b2777a0634,62bbfa9cc5f6bda3b95cb4b0,2022-06-29_09h09.36.664,Colour_Asymmetry_Pilot,2022.1.3,Win32,60.19382411,62bbe60bf3d75ef465d3e404,0,96,96,27,1,twofour,,,,,,,,,,,,,,,,,,,,,,,,,,,,,,,,,,,,,,,,,,,,,,,,,,,,,,,,,,,,,,,,,,,,,,,,,,,,,,,,,,,,,,,,,,,,,,,,,,,,,,,,,,,,,,,,,,,,,,,,,,,,,,,,,,,,,,,,,,,,,,,,,,,,,,,,
,,,,,,6166e6308c20d5b2777a0634,62bbfa9cc5f6bda3b95cb4b0,2022-06-29_09h09.36.664,Colour_Asymmetry_Pilot,2022.1.3,Win32,60.19382411,62bbe60bf3d75ef465d3e404,0,97,97,40,1,onetwo,,,,,,,,,,,,,,,,,,,,,,,,,,,,,,,,,,,,,,,,,,,,,,,,,,,,,,,,,,,,,,,,,,,,,,,,,,,,,,,,,,,,,,,,,,,,,,,,,,,,,,,,,,,,,,,,,,,,,,,,,,,,,,,,,,,,,,,,,,,,,,,,,,,,,,,,
,,,,,,6166e6308c20d5b2777a0634,62bbfa9cc5f6bda3b95cb4b0,2022-06-29_09h09.36.664,Colour_Asymmetry_Pilot,2022.1.3,Win32,60.19382411,62bbe60bf3d75ef465d3e404,0,98,98,151,1,fourthree,,,,,,,,,,,,,,,,,,,,,,,,,,,,,,,,,,,,,,,,,,,,,,,,,,,,,,,,,,,,,,,,,,,,,,,,,,,,,,,,,,,,,,,,,,,,,,,,,,,,,,,,,,,,,,,,,,,,,,,,,,,,,,,,,,,,,,,,,,,,,,,,,,,,,,,,
,,,,,,6166e6308c20d5b2777a0634,62bbfa9cc5f6bda3b95cb4b0,2022-06-29_09h09.36.664,Colour_Asymmetry_Pilot,2022.1.3,Win32,60.19382411,62bbe60bf3d75ef465d3e404,0,99,99,66,1,twoone,,,,,,,,,,,,,,,,,,,,,,,,,,,,,,,,,,,,,,,,,,,,,,,,,,,,,,,,,,,,,,,,,,,,,,,,,,,,,,,,,,,,,,,,,,,,,,,,,,,,,,,,,,,,,,,,,,,,,,,,,,,,,,,,,,,,,,,,,,,,,,,,,,,,,,,,
,,,,,,6166e6308c20d5b2777a0634,62bbfa9cc5f6bda3b95cb4b0,2022-06-29_09h09.36.664,Colour_Asymmetry_Pilot,2022.1.3,Win32,60.19382411,62bbe60bf3d75ef465d3e404,0,100,100,160,1,onetwo,,,,,,,,,,,,,,,,,,,,,,,,,,,,,,,,,,,,,,,,,,,,,,,,,,,,,,,,,,,,,,,,,,,,,,,,,,,,,,,,,,,,,,,,,,,,,,,,,,,,,,,,,,,,,,,,,,,,,,,,,,,,,,,,,,,,,,,,,,,,,,,,,,,,,,,,
,,,,,,6166e6308c20d5b2777a0634,62bbfa9cc5f6bda3b95cb4b0,2022-06-29_09h09.36.664,Colour_Asymmetry_Pilot,2022.1.3,Win32,60.19382411,62bbe60bf3d75ef465d3e404,0,101,101,13,1,threefour,,,,,,,,,,,,,,,,,,,,,,,,,,,,,,,,,,,,,,,,,,,,,,,,,,,,,,,,,,,,,,,,,,,,,,,,,,,,,,,,,,,,,,,,,,,,,,,,,,,,,,,,,,,,,,,,,,,,,,,,,,,,,,,,,,,,,,,,,,,,,,,,,,,,,,,,
,,,,,,6166e6308c20d5b2777a0634,62bbfa9cc5f6bda3b95cb4b0,2022-06-29_09h09.36.664,Colour_Asymmetry_Pilot,2022.1.3,Win32,60.19382411,62bbe60bf3d75ef465d3e404,0,102,102,79,1,fourthree,,,,,,,,,,,,,,,,,,,,,,,,,,,,,,,,,,,,,,,,,,,,,,,,,,,,,,,,,,,,,,,,,,,,,,,,,,,,,,,,,,,,,,,,,,,,,,,,,,,,,,,,,,,,,,,,,,,,,,,,,,,,,,,,,,,,,,,,,,,,,,,,,,,,,,,,
,,,,,,6166e6308c20d5b2777a0634,62bbfa9cc5f6bda3b95cb4b0,2022-06-29_09h09.36.664,Colour_Asymmetry_Pilot,2022.1.3,Win32,60.19382411,62bbe60bf3d75ef465d3e404,0,103,103,85,1,threefour,,,,,,,,,,,,,,,,,,,,,,,,,,,,,,,,,,,,,,,,,,,,,,,,,,,,,,,,,,,,,,,,,,,,,,,,,,,,,,,,,,,,,,,,,,,,,,,,,,,,,,,,,,,,,,,,,,,,,,,,,,,,,,,,,,,,,,,,,,,,,,,,,,,,,,,,
,,,,,,6166e6308c20d5b2777a0634,62bbfa9cc5f6bda3b95cb4b0,2022-06-29_09h09.36.664,Colour_Asymmetry_Pilot,2022.1.3,Win32,60.19382411,62bbe60bf3d75ef465d3e404,0,104,104,128,1,onetwo,,,,,,,,,,,,,,,,,,,,,,,,,,,,,,,,,,,,,,,,,,,,,,,,,,,,,,,,,,,,,,,,,,,,,,,,,,,,,,,,,,,,,,,,,,,,,,,,,,,,,,,,,,,,,,,,,,,,,,,,,,,,,,,,,,,,,,,,,,,,,,,,,,,,,,,,
,,,,,,6166e6308c20d5b2777a0634,62bbfa9cc5f6bda3b95cb4b0,2022-06-29_09h09.36.664,Colour_Asymmetry_Pilot,2022.1.3,Win32,60.19382411,62bbe60bf3d75ef465d3e404,0,105,105,29,1,threefour,,,,,,,,,,,,,,,,,,,,,,,,,,,,,,,,,,,,,,,,,,,,,,,,,,,,,,,,,,,,,,,,,,,,,,,,,,,,,,,,,,,,,,,,,,,,,,,,,,,,,,,,,,,,,,,,,,,,,,,,,,,,,,,,,,,,,,,,,,,,,,,,,,,,,,,,
,,,,,,6166e6308c20d5b2777a0634,62bbfa9cc5f6bda3b95cb4b0,2022-06-29_09h09.36.664,Colour_Asymmetry_Pilot,2022.1.3,Win32,60.19382411,62bbe60bf3d75ef465d3e404,0,106,106,132,1,threeone,,,,,,,,,,,,,,,,,,,,,,,,,,,,,,,,,,,,,,,,,,,,,,,,,,,,,,,,,,,,,,,,,,,,,,,,,,,,,,,,,,,,,,,,,,,,,,,,,,,,,,,,,,,,,,,,,,,,,,,,,,,,,,,,,,,,,,,,,,,,,,,,,,,,,,,,
,,,,,,6166e6308c20d5b2777a0634,62bbfa9cc5f6bda3b95cb4b0,2022-06-29_09h09.36.664,Colour_Asymmetry_Pilot,2022.1.3,Win32,60.19382411,62bbe60bf3d75ef465d3e404,0,107,107,142,1,fourtwo,,,,,,,,,,,,,,,,,,,,,,,,,,,,,,,,,,,,,,,,,,,,,,,,,,,,,,,,,,,,,,,,,,,,,,,,,,,,,,,,,,,,,,,,,,,,,,,,,,,,,,,,,,,,,,,,,,,,,,,,,,,,,,,,,,,,,,,,,,,,,,,,,,,,,,,,
,,,,,,6166e6308c20d5b2777a0634,62bbfa9cc5f6bda3b95cb4b0,2022-06-29_09h09.36.664,Colour_Asymmetry_Pilot,2022.1.3,Win32,60.19382411,62bbe60bf3d75ef465d3e404,0,108,108,106,1,twoone,,,,,,,,,,,,,,,,,,,,,,,,,,,,,,,,,,,,,,,,,,,,,,,,,,,,,,,,,,,,,,,,,,,,,,,,,,,,,,,,,,,,,,,,,,,,,,,,,,,,,,,,,,,,,,,,,,,,,,,,,,,,,,,,,,,,,,,,,,,,,,,,,,,,,,,,
,,,,,,6166e6308c20d5b2777a0634,62bbfa9cc5f6bda3b95cb4b0,2022-06-29_09h09.36.664,Colour_Asymmetry_Pilot,2022.1.3,Win32,60.19382411,62bbe60bf3d75ef465d3e404,0,109,109,36,1,threeone,,,,,,,,,,,,,,,,,,,,,,,,,,,,,,,,,,,,,,,,,,,,,,,,,,,,,,,,,,,,,,,,,,,,,,,,,,,,,,,,,,,,,,,,,,,,,,,,,,,,,,,,,,,,,,,,,,,,,,,,,,,,,,,,,,,,,,,,,,,,,,,,,,,,,,,,
,,,,,,6166e6308c20d5b2777a0634,62bbfa9cc5f6bda3b95cb4b0,2022-06-29_09h09.36.664,Colour_Asymmetry_Pilot,2022.1.3,Win32,60.19382411,62bbe60bf3d75ef465d3e404,0,110,110,126,1,fourtwo,,,,,,,,,,,,,,,,,,,,,,,,,,,,,,,,,,,,,,,,,,,,,,,,,,,,,,,,,,,,,,,,,,,,,,,,,,,,,,,,,,,,,,,,,,,,,,,,,,,,,,,,,,,,,,,,,,,,,,,,,,,,,,,,,,,,,,,,,,,,,,,,,,,,,,,,
,,,,,,6166e6308c20d5b2777a0634,62bbfa9cc5f6bda3b95cb4b0,2022-06-29_09h09.36.664,Colour_Asymmetry_Pilot,2022.1.3,Win32,60.19382411,62bbe60bf3d75ef465d3e404,0,111,111,93,1,threefour,,,,,,,,,,,,,,,,,,,,,,,,,,,,,,,,,,,,,,,,,,,,,,,,,,,,,,,,,,,,,,,,,,,,,,,,,,,,,,,,,,,,,,,,,,,,,,,,,,,,,,,,,,,,,,,,,,,,,,,,,,,,,,,,,,,,,,,,,,,,,,,,,,,,,,,,
,,,,,,6166e6308c20d5b2777a0634,62bbfa9cc5f6bda3b95cb4b0,2022-06-29_09h09.36.664,Colour_Asymmetry_Pilot,2022.1.3,Win32,60.19382411,62bbe60bf3d75ef465d3e404,0,112,112,46,1,fourtwo,,,,,,,,,,,,,,,,,,,,,,,,,,,,,,,,,,,,,,,,,,,,,,,,,,,,,,,,,,,,,,,,,,,,,,,,,,,,,,,,,,,,,,,,,,,,,,,,,,,,,,,,,,,,,,,,,,,,,,,,,,,,,,,,,,,,,,,,,,,,,,,,,,,,,,,,
,,,,,,6166e6308c20d5b2777a0634,62bbfa9cc5f6bda3b95cb4b0,2022-06-29_09h09.36.664,Colour_Asymmetry_Pilot,2022.1.3,Win32,60.19382411,62bbe60bf3d75ef465d3e404,0,113,113,105,1,onethree,,,,,,,,,,,,,,,,,,,,,,,,,,,,,,,,,,,,,,,,,,,,,,,,,,,,,,,,,,,,,,,,,,,,,,,,,,,,,,,,,,,,,,,,,,,,,,,,,,,,,,,,,,,,,,,,,,,,,,,,,,,,,,,,,,,,,,,,,,,,,,,,,,,,,,,,
,,,,,,6166e6308c20d5b2777a0634,62bbfa9cc5f6bda3b95cb4b0,2022-06-29_09h09.36.664,Colour_Asymmetry_Pilot,2022.1.3,Win32,60.19382411,62bbe60bf3d75ef465d3e404,0,114,114,31,1,fourthree,,,,,,,,,,,,,,,,,,,,,,,,,,,,,,,,,,,,,,,,,,,,,,,,,,,,,,,,,,,,,,,,,,,,,,,,,,,,,,,,,,,,,,,,,,,,,,,,,,,,,,,,,,,,,,,,,,,,,,,,,,,,,,,,,,,,,,,,,,,,,,,,,,,,,,,,
,,,,,,6166e6308c20d5b2777a0634,62bbfa9cc5f6bda3b95cb4b0,2022-06-29_09h09.36.664,Colour_Asymmetry_Pilot,2022.1.3,Win32,60.19382411,62bbe60bf3d75ef465d3e404,0,115,115,149,1,threefour,,,,,,,,,,,,,,,,,,,,,,,,,,,,,,,,,,,,,,,,,,,,,,,,,,,,,,,,,,,,,,,,,,,,,,,,,,,,,,,,,,,,,,,,,,,,,,,,,,,,,,,,,,,,,,,,,,,,,,,,,,,,,,,,,,,,,,,,,,,,,,,,,,,,,,,,
,,,,,,6166e6308c20d5b2777a0634,62bbfa9cc5f6bda3b95cb4b0,2022-06-29_09h09.36.664,Colour_Asymmetry_Pilot,2022.1.3,Win32,60.19382411,62bbe60bf3d75ef465d3e404,0,116,116,122,1,twoone,,,,,,,,,,,,,,,,,,,,,,,,,,,,,,,,,,,,,,,,,,,,,,,,,,,,,,,,,,,,,,,,,,,,,,,,,,,,,,,,,,,,,,,,,,,,,,,,,,,,,,,,,,,,,,,,,,,,,,,,,,,,,,,,,,,,,,,,,,,,,,,,,,,,,,,,
,,,,,,6166e6308c20d5b2777a0634,62bbfa9cc5f6bda3b95cb4b0,2022-06-29_09h09.36.664,Colour_Asymmetry_Pilot,2022.1.3,Win32,60.19382411,62bbe60bf3d75ef465d3e404,0,117,117,103,1,fourthree,,,,,,,,,,,,,,,,,,,,,,,,,,,,,,,,,,,,,,,,,,,,,,,,,,,,,,,,,,,,,,,,,,,,,,,,,,,,,,,,,,,,,,,,,,,,,,,,,,,,,,,,,,,,,,,,,,,,,,,,,,,,,,,,,,,,,,,,,,,,,,,,,,,,,,,,
,,,,,,6166e6308c20d5b2777a0634,62bbfa9cc5f6bda3b95cb4b0,2022-06-29_09h09.36.664,Colour_Asymmetry_Pilot,2022.1.3,Win32,60.19382411,62bbe60bf3d75ef465d3e404,0,118,118,32,1,onetwo,,,,,,,,,,,,,,,,,,,,,,,,,,,,,,,,,,,,,,,,,,,,,,,,,,,,,,,,,,,,,,,,,,,,,,,,,,,,,,,,,,,,,,,,,,,,,,,,,,,,,,,,,,,,,,,,,,,,,,,,,,,,,,,,,,,,,,,,,,,,,,,,,,,,,,,,
,,,,,,6166e6308c20d5b2777a0634,62bbfa9cc5f6bda3b95cb4b0,2022-06-29_09h09.36.664,Colour_Asymmetry_Pilot,2022.1.3,Win32,60.19382411,62bbe60bf3d75ef465d3e404,0,119,119,41,1,onethree,,,,,,,,,,,,,,,,,,,,,,,,,,,,,,,,,,,,,,,,,,,,,,,,,,,,,,,,,,,,,,,,,,,,,,,,,,,,,,,,,,,,,,,,,,,,,,,,,,,,,,,,,,,,,,,,,,,,,,,,,,,,,,,,,,,,,,,,,,,,,,,,,,,,,,,,
,,,,,,6166e6308c20d5b2777a0634,62bbfa9cc5f6bda3b95cb4b0,2022-06-29_09h09.36.664,Colour_Asymmetry_Pilot,2022.1.3,Win32,60.19382411,62bbe60bf3d75ef465d3e404,0,120,120,8,1,onetwo,,,,,,,,,,,,,,,,,,,,,,,,,,,,,,,,,,,,,,,,,,,,,,,,,,,,,,,,,,,,,,,,,,,,,,,,,,,,,,,,,,,,,,,,,,,,,,,,,,,,,,,,,,,,,,,,,,,,,,,,,,,,,,,,,,,,,,,,,,,,,,,,,,,,,,,,
,,,,,,6166e6308c20d5b2777a0634,62bbfa9cc5f6bda3b95cb4b0,2022-06-29_09h09.36.664,Colour_Asymmetry_Pilot,2022.1.3,Win32,60.19382411,62bbe60bf3d75ef465d3e404,0,121,121,56,1,onetwo,,,,,,,,,,,,,,,,,,,,,,,,,,,,,,,,,,,,,,,,,,,,,,,,,,,,,,,,,,,,,,,,,,,,,,,,,,,,,,,,,,,,,,,,,,,,,,,,,,,,,,,,,,,,,,,,,,,,,,,,,,,,,,,,,,,,,,,,,,,,,,,,,,,,,,,,
,,,,,,6166e6308c20d5b2777a0634,62bbfa9cc5f6bda3b95cb4b0,2022-06-29_09h09.36.664,Colour_Asymmetry_Pilot,2022.1.3,Win32,60.19382411,62bbe60bf3d75ef465d3e404,0,122,122,119,1,fourthree,,,,,,,,,,,,,,,,,,,,,,,,,,,,,,,,,,,,,,,,,,,,,,,,,,,,,,,,,,,,,,,,,,,,,,,,,,,,,,,,,,,,,,,,,,,,,,,,,,,,,,,,,,,,,,,,,,,,,,,,,,,,,,,,,,,,,,,,,,,,,,,,,,,,,,,,
,,,,,,6166e6308c20d5b2777a0634,62bbfa9cc5f6bda3b95cb4b0,2022-06-29_09h09.36.664,Colour_Asymmetry_Pilot,2022.1.3,Win32,60.19382411,62bbe60bf3d75ef465d3e404,0,123,123,52,1,threeone,,,,,,,,,,,,,,,,,,,,,,,,,,,,,,,,,,,,,,,,,,,,,,,,,,,,,,,,,,,,,,,,,,,,,,,,,,,,,,,,,,,,,,,,,,,,,,,,,,,,,,,,,,,,,,,,,,,,,,,,,,,,,,,,,,,,,,,,,,,,,,,,,,,,,,,,
,,,,,,6166e6308c20d5b2777a0634,62bbfa9cc5f6bda3b95cb4b0,2022-06-29_09h09.36.664,Colour_Asymmetry_Pilot,2022.1.3,Win32,60.19382411,62bbe60bf3d75ef465d3e404,0,124,124,70,1,fourtwo,,,,,,,,,,,,,,,,,,,,,,,,,,,,,,,,,,,,,,,,,,,,,,,,,,,,,,,,,,,,,,,,,,,,,,,,,,,,,,,,,,,,,,,,,,,,,,,,,,,,,,,,,,,,,,,,,,,,,,,,,,,,,,,,,,,,,,,,,,,,,,,,,,,,,,,,
,,,,,,6166e6308c20d5b2777a0634,62bbfa9cc5f6bda3b95cb4b0,2022-06-29_09h09.36.664,Colour_Asymmetry_Pilot,2022.1.3,Win32,60.19382411,62bbe60bf3d75ef465d3e404,0,125,125,35,1,twofour,,,,,,,,,,,,,,,,,,,,,,,,,,,,,,,,,,,,,,,,,,,,,,,,,,,,,,,,,,,,,,,,,,,,,,,,,,,,,,,,,,,,,,,,,,,,,,,,,,,,,,,,,,,,,,,,,,,,,,,,,,,,,,,,,,,,,,,,,,,,,,,,,,,,,,,,
,,,,,,6166e6308c20d5b2777a0634,62bbfa9cc5f6bda3b95cb4b0,2022-06-29_09h09.36.664,Colour_Asymmetry_Pilot,2022.1.3,Win32,60.19382411,62bbe60bf3d75ef465d3e404,0,126,126,136,1,onetwo,,,,,,,,,,,,,,,,,,,,,,,,,,,,,,,,,,,,,,,,,,,,,,,,,,,,,,,,,,,,,,,,,,,,,,,,,,,,,,,,,,,,,,,,,,,,,,,,,,,,,,,,,,,,,,,,,,,,,,,,,,,,,,,,,,,,,,,,,,,,,,,,,,,,,,,,
,,,,,,6166e6308c20d5b2777a0634,62bbfa9cc5f6bda3b95cb4b0,2022-06-29_09h09.36.664,Colour_Asymmetry_Pilot,2022.1.3,Win32,60.19382411,62bbe60bf3d75ef465d3e404,0,127,127,67,1,twofour,,,,,,,,,,,,,,,,,,,,,,,,,,,,,,,,,,,,,,,,,,,,,,,,,,,,,,,,,,,,,,,,,,,,,,,,,,,,,,,,,,,,,,,,,,,,,,,,,,,,,,,,,,,,,,,,,,,,,,,,,,,,,,,,,,,,,,,,,,,,,,,,,,,,,,,,
,,,,,,6166e6308c20d5b2777a0634,62bbfa9cc5f6bda3b95cb4b0,2022-06-29_09h09.36.664,Colour_Asymmetry_Pilot,2022.1.3,Win32,60.19382411,62bbe60bf3d75ef465d3e404,0,128,128,11,1,twofour,,,,,,,,,,,,,,,,,,,,,,,,,,,,,,,,,,,,,,,,,,,,,,,,,,,,,,,,,,,,,,,,,,,,,,,,,,,,,,,,,,,,,,,,,,,,,,,,,,,,,,,,,,,,,,,,,,,,,,,,,,,,,,,,,,,,,,,,,,,,,,,,,,,,,,,,
,,,,,,6166e6308c20d5b2777a0634,62bbfa9cc5f6bda3b95cb4b0,2022-06-29_09h09.36.664,Colour_Asymmetry_Pilot,2022.1.3,Win32,60.19382411,62bbe60bf3d75ef465d3e404,0,129,129,80,1,onetwo,,,,,,,,,,,,,,,,,,,,,,,,,,,,,,,,,,,,,,,,,,,,,,,,,,,,,,,,,,,,,,,,,,,,,,,,,,,,,,,,,,,,,,,,,,,,,,,,,,,,,,,,,,,,,,,,,,,,,,,,,,,,,,,,,,,,,,,,,,,,,,,,,,,,,,,,
,,,,,,6166e6308c20d5b2777a0634,62bbfa9cc5f6bda3b95cb4b0,2022-06-29_09h09.36.664,Colour_Asymmetry_Pilot,2022.1.3,Win32,60.19382411,62bbe60bf3d75ef465d3e404,0,130,130,135,1,fourthree,,,,,,,,,,,,,,,,,,,,,,,,,,,,,,,,,,,,,,,,,,,,,,,,,,,,,,,,,,,,,,,,,,,,,,,,,,,,,,,,,,,,,,,,,,,,,,,,,,,,,,,,,,,,,,,,,,,,,,,,,,,,,,,,,,,,,,,,,,,,,,,,,,,,,,,,
,,,,,,6166e6308c20d5b2777a0634,62bbfa9cc5f6bda3b95cb4b0,2022-06-29_09h09.36.664,Colour_Asymmetry_Pilot,2022.1.3,Win32,60.19382411,62bbe60bf3d75ef465d3e404,0,131,131,102,1,fourtwo,,,,,,,,,,,,,,,,,,,,,,,,,,,,,,,,,,,,,,,,,,,,,,,,,,,,,,,,,,,,,,,,,,,,,,,,,,,,,,,,,,,,,,,,,,,,,,,,,,,,,,,,,,,,,,,,,,,,,,,,,,,,,,,,,,,,,,,,,,,,,,,,,,,,,,,,
,,,,,,6166e6308c20d5b2777a0634,62bbfa9cc5f6bda3b95cb4b0,2022-06-29_09h09.36.664,Colour_Asymmetry_Pilot,2022.1.3,Win32,60.19382411,62bbe60bf3d75ef465d3e404,0,132,132,89,1,onethree,,,,,,,,,,,,,,,,,,,,,,,,,,,,,,,,,,,,,,,,,,,,,,,,,,,,,,,,,,,,,,,,,,,,,,,,,,,,,,,,,,,,,,,,,,,,,,,,,,,,,,,,,,,,,,,,,,,,,,,,,,,,,,,,,,,,,,,,,,,,,,,,,,,,,,,,
,,,,,,6166e6308c20d5b2777a0634,62bbfa9cc5f6bda3b95cb4b0,2022-06-29_09h09.36.664,Colour_Asymmetry_Pilot,2022.1.3,Win32,60.19382411,62bbe60bf3d75ef465d3e404,0,133,133,17,1,onethree,,,,,,,,,,,,,,,,,,,,,,,,,,,,,,,,,,,,,,,,,,,,,,,,,,,,,,,,,,,,,,,,,,,,,,,,,,,,,,,,,,,,,,,,,,,,,,,,,,,,,,,,,,,,,,,,,,,,,,,,,,,,,,,,,,,,,,,,,,,,,,,,,,,,,,,,
,,,,,,6166e6308c20d5b2777a0634,62bbfa9cc5f6bda3b95cb4b0,2022-06-29_09h09.36.664,Colour_Asymmetry_Pilot,2022.1.3,Win32,60.19382411,62bbe60bf3d75ef465d3e404,0,134,134,101,1,threefour,,,,,,,,,,,,,,,,,,,,,,,,,,,,,,,,,,,,,,,,,,,,,,,,,,,,,,,,,,,,,,,,,,,,,,,,,,,,,,,,,,,,,,,,,,,,,,,,,,,,,,,,,,,,,,,,,,,,,,,,,,,,,,,,,,,,,,,,,,,,,,,,,,,,,,,,
,,,,,,6166e6308c20d5b2777a0634,62bbfa9cc5f6bda3b95cb4b0,2022-06-29_09h09.36.664,Colour_Asymmetry_Pilot,2022.1.3,Win32,60.19382411,62bbe60bf3d75ef465d3e404,0,135,135,98,1,twoone,,,,,,,,,,,,,,,,,,,,,,,,,,,,,,,,,,,,,,,,,,,,,,,,,,,,,,,,,,,,,,,,,,,,,,,,,,,,,,,,,,,,,,,,,,,,,,,,,,,,,,,,,,,,,,,,,,,,,,,,,,,,,,,,,,,,,,,,,,,,,,,,,,,,,,,,
,,,,,,6166e6308c20d5b2777a0634,62bbfa9cc5f6bda3b95cb4b0,2022-06-29_09h09.36.664,Colour_Asymmetry_Pilot,2022.1.3,Win32,60.19382411,62bbe60bf3d75ef465d3e404,0,136,136,99,1,twofour,,,,,,,,,,,,,,,,,,,,,,,,,,,,,,,,,,,,,,,,,,,,,,,,,,,,,,,,,,,,,,,,,,,,,,,,,,,,,,,,,,,,,,,,,,,,,,,,,,,,,,,,,,,,,,,,,,,,,,,,,,,,,,,,,,,,,,,,,,,,,,,,,,,,,,,,
,,,,,,6166e6308c20d5b2777a0634,62bbfa9cc5f6bda3b95cb4b0,2022-06-29_09h09.36.664,Colour_Asymmetry_Pilot,2022.1.3,Win32,60.19382411,62bbe60bf3d75ef465d3e404,0,137,137,115,1,twofour,,,,,,,,,,,,,,,,,,,,,,,,,,,,,,,,,,,,,,,,,,,,,,,,,,,,,,,,,,,,,,,,,,,,,,,,,,,,,,,,,,,,,,,,,,,,,,,,,,,,,,,,,,,,,,,,,,,,,,,,,,,,,,,,,,,,,,,,,,,,,,,,,,,,,,,,
,,,,,,6166e6308c20d5b2777a0634,62bbfa9cc5f6bda3b95cb4b0,2022-06-29_09h09.36.664,Colour_Asymmetry_Pilot,2022.1.3,Win32,60.19382411,62bbe60bf3d75ef465d3e404,0,138,138,63,1,fourthree,,,,,,,,,,,,,,,,,,,,,,,,,,,,,,,,,,,,,,,,,,,,,,,,,,,,,,,,,,,,,,,,,,,,,,,,,,,,,,,,,,,,,,,,,,,,,,,,,,,,,,,,,,,,,,,,,,,,,,,,,,,,,,,,,,,,,,,,,,,,,,,,,,,,,,,,
,,,,,,6166e6308c20d5b2777a0634,62bbfa9cc5f6bda3b95cb4b0,2022-06-29_09h09.36.664,Colour_Asymmetry_Pilot,2022.1.3,Win32,60.19382411,62bbe60bf3d75ef465d3e404,0,139,139,92,1,threeone,,,,,,,,,,,,,,,,,,,,,,,,,,,,,,,,,,,,,,,,,,,,,,,,,,,,,,,,,,,,,,,,,,,,,,,,,,,,,,,,,,,,,,,,,,,,,,,,,,,,,,,,,,,,,,,,,,,,,,,,,,,,,,,,,,,,,,,,,,,,,,,,,,,,,,,,
,,,,,,6166e6308c20d5b2777a0634,62bbfa9cc5f6bda3b95cb4b0,2022-06-29_09h09.36.664,Colour_Asymmetry_Pilot,2022.1.3,Win32,60.19382411,62bbe60bf3d75ef465d3e404,0,140,140,156,1,threeone,,,,,,,,,,,,,,,,,,,,,,,,,,,,,,,,,,,,,,,,,,,,,,,,,,,,,,,,,,,,,,,,,,,,,,,,,,,,,,,,,,,,,,,,,,,,,,,,,,,,,,,,,,,,,,,,,,,,,,,,,,,,,,,,,,,,,,,,,,,,,,,,,,,,,,,,
,,,,,,6166e6308c20d5b2777a0634,62bbfa9cc5f6bda3b95cb4b0,2022-06-29_09h09.36.664,Colour_Asymmetry_Pilot,2022.1.3,Win32,60.19382411,62bbe60bf3d75ef465d3e404,0,141,141,47,1,fourthree,,,,,,,,,,,,,,,,,,,,,,,,,,,,,,,,,,,,,,,,,,,,,,,,,,,,,,,,,,,,,,,,,,,,,,,,,,,,,,,,,,,,,,,,,,,,,,,,,,,,,,,,,,,,,,,,,,,,,,,,,,,,,,,,,,,,,,,,,,,,,,,,,,,,,,,,
,,,,,,6166e6308c20d5b2777a0634,62bbfa9cc5f6bda3b95cb4b0,2022-06-29_09h09.36.664,Colour_Asymmetry_Pilot,2022.1.3,Win32,60.19382411,62bbe60bf3d75ef465d3e404,0,142,142,55,1,fourthree,,,,,,,,,,,,,,,,,,,,,,,,,,,,,,,,,,,,,,,,,,,,,,,,,,,,,,,,,,,,,,,,,,,,,,,,,,,,,,,,,,,,,,,,,,,,,,,,,,,,,,,,,,,,,,,,,,,,,,,,,,,,,,,,,,,,,,,,,,,,,,,,,,,,,,,,
,,,,,,6166e6308c20d5b2777a0634,62bbfa9cc5f6bda3b95cb4b0,2022-06-29_09h09.36.664,Colour_Asymmetry_Pilot,2022.1.3,Win32,60.19382411,62bbe60bf3d75ef465d3e404,0,143,143,139,1,twofour,,,,,,,,,,,,,,,,,,,,,,,,,,,,,,,,,,,,,,,,,,,,,,,,,,,,,,,,,,,,,,,,,,,,,,,,,,,,,,,,,,,,,,,,,,,,,,,,,,,,,,,,,,,,,,,,,,,,,,,,,,,,,,,,,,,,,,,,,,,,,,,,,,,,,,,,
,,,,,,6166e6308c20d5b2777a0634,62bbfa9cc5f6bda3b95cb4b0,2022-06-29_09h09.36.664,Colour_Asymmetry_Pilot,2022.1.3,Win32,60.19382411,62bbe60bf3d75ef465d3e404,0,144,144,65,1,onethree,,,,,,,,,,,,,,,,,,,,,,,,,,,,,,,,,,,,,,,,,,,,,,,,,,,,,,,,,,,,,,,,,,,,,,,,,,,,,,,,,,,,,,,,,,,,,,,,,,,,,,,,,,,,,,,,,,,,,,,,,,,,,,,,,,,,,,,,,,,,,,,,,,,,,,,,
,,,,,,6166e6308c20d5b2777a0634,62bbfa9cc5f6bda3b95cb4b0,2022-06-29_09h09.36.664,Colour_Asymmetry_Pilot,2022.1.3,Win32,60.19382411,62bbe60bf3d75ef465d3e404,0,145,145,111,1,fourthree,,,,,,,,,,,,,,,,,,,,,,,,,,,,,,,,,,,,,,,,,,,,,,,,,,,,,,,,,,,,,,,,,,,,,,,,,,,,,,,,,,,,,,,,,,,,,,,,,,,,,,,,,,,,,,,,,,,,,,,,,,,,,,,,,,,,,,,,,,,,,,,,,,,,,,,,
,,,,,,6166e6308c20d5b2777a0634,62bbfa9cc5f6bda3b95cb4b0,2022-06-29_09h09.36.664,Colour_Asymmetry_Pilot,2022.1.3,Win32,60.19382411,62bbe60bf3d75ef465d3e404,0,146,146,100,1,threeone,,,,,,,,,,,,,,,,,,,,,,,,,,,,,,,,,,,,,,,,,,,,,,,,,,,,,,,,,,,,,,,,,,,,,,,,,,,,,,,,,,,,,,,,,,,,,,,,,,,,,,,,,,,,,,,,,,,,,,,,,,,,,,,,,,,,,,,,,,,,,,,,,,,,,,,,
,,,,,,6166e6308c20d5b2777a0634,62bbfa9cc5f6bda3b95cb4b0,2022-06-29_09h09.36.664,Colour_Asymmetry_Pilot,2022.1.3,Win32,60.19382411,62bbe60bf3d75ef465d3e404,0,147,147,159,1,fourthree,,,,,,,,,,,,,,,,,,,,,,,,,,,,,,,,,,,,,,,,,,,,,,,,,,,,,,,,,,,,,,,,,,,,,,,,,,,,,,,,,,,,,,,,,,,,,,,,,,,,,,,,,,,,,,,,,,,,,,,,,,,,,,,,,,,,,,,,,,,,,,,,,,,,,,,,
,,,,,,6166e6308c20d5b2777a0634,62bbfa9cc5f6bda3b95cb4b0,2022-06-29_09h09.36.664,Colour_Asymmetry_Pilot,2022.1.3,Win32,60.19382411,62bbe60bf3d75ef465d3e404,0,148,148,73,1,onethree,,,,,,,,,,,,,,,,,,,,,,,,,,,,,,,,,,,,,,,,,,,,,,,,,,,,,,,,,,,,,,,,,,,,,,,,,,,,,,,,,,,,,,,,,,,,,,,,,,,,,,,,,,,,,,,,,,,,,,,,,,,,,,,,,,,,,,,,,,,,,,,,,,,,,,,,
,,,,,,6166e6308c20d5b2777a0634,62bbfa9cc5f6bda3b95cb4b0,2022-06-29_09h09.36.664,Colour_Asymmetry_Pilot,2022.1.3,Win32,60.19382411,62bbe60bf3d75ef465d3e404,0,149,149,58,1,twoone,,,,,,,,,,,,,,,,,,,,,,,,,,,,,,,,,,,,,,,,,,,,,,,,,,,,,,,,,,,,,,,,,,,,,,,,,,,,,,,,,,,,,,,,,,,,,,,,,,,,,,,,,,,,,,,,,,,,,,,,,,,,,,,,,,,,,,,,,,,,,,,,,,,,,,,,
,,,,,,6166e6308c20d5b2777a0634,62bbfa9cc5f6bda3b95cb4b0,2022-06-29_09h09.36.664,Colour_Asymmetry_Pilot,2022.1.3,Win32,60.19382411,62bbe60bf3d75ef465d3e404,0,150,150,86,1,fourtwo,,,,,,,,,,,,,,,,,,,,,,,,,,,,,,,,,,,,,,,,,,,,,,,,,,,,,,,,,,,,,,,,,,,,,,,,,,,,,,,,,,,,,,,,,,,,,,,,,,,,,,,,,,,,,,,,,,,,,,,,,,,,,,,,,,,,,,,,,,,,,,,,,,,,,,,,
,,,,,,6166e6308c20d5b2777a0634,62bbfa9cc5f6bda3b95cb4b0,2022-06-29_09h09.36.664,Colour_Asymmetry_Pilot,2022.1.3,Win32,60.19382411,62bbe60bf3d75ef465d3e404,0,151,151,14,1,fourtwo,,,,,,,,,,,,,,,,,,,,,,,,,,,,,,,,,,,,,,,,,,,,,,,,,,,,,,,,,,,,,,,,,,,,,,,,,,,,,,,,,,,,,,,,,,,,,,,,,,,,,,,,,,,,,,,,,,,,,,,,,,,,,,,,,,,,,,,,,,,,,,,,,,,,,,,,
,,,,,,6166e6308c20d5b2777a0634,62bbfa9cc5f6bda3b95cb4b0,2022-06-29_09h09.36.664,Colour_Asymmetry_Pilot,2022.1.3,Win32,60.19382411,62bbe60bf3d75ef465d3e404,0,152,152,33,1,onethree,,,,,,,,,,,,,,,,,,,,,,,,,,,,,,,,,,,,,,,,,,,,,,,,,,,,,,,,,,,,,,,,,,,,,,,,,,,,,,,,,,,,,,,,,,,,,,,,,,,,,,,,,,,,,,,,,,,,,,,,,,,,,,,,,,,,,,,,,,,,,,,,,,,,,,,,
,,,,,,6166e6308c20d5b2777a0634,62bbfa9cc5f6bda3b95cb4b0,2022-06-29_09h09.36.664,Colour_Asymmetry_Pilot,2022.1.3,Win32,60.19382411,62bbe60bf3d75ef465d3e404,0,153,153,96,1,onetwo,,,,,,,,,,,,,,,,,,,,,,,,,,,,,,,,,,,,,,,,,,,,,,,,,,,,,,,,,,,,,,,,,,,,,,,,,,,,,,,,,,,,,,,,,,,,,,,,,,,,,,,,,,,,,,,,,,,,,,,,,,,,,,,,,,,,,,,,,,,,,,,,,,,,,,,,
,,,,,,6166e6308c20d5b2777a0634,62bbfa9cc5f6bda3b95cb4b0,2022-06-29_09h09.36.664,Colour_Asymmetry_Pilot,2022.1.3,Win32,60.19382411,62bbe60bf3d75ef465d3e404,0,154,154,28,1,threeone,,,,,,,,,,,,,,,,,,,,,,,,,,,,,,,,,,,,,,,,,,,,,,,,,,,,,,,,,,,,,,,,,,,,,,,,,,,,,,,,,,,,,,,,,,,,,,,,,,,,,,,,,,,,,,,,,,,,,,,,,,,,,,,,,,,,,,,,,,,,,,,,,,,,,,,,
,,,,,,6166e6308c20d5b2777a0634,62bbfa9cc5f6bda3b95cb4b0,2022-06-29_09h09.36.664,Colour_Asymmetry_Pilot,2022.1.3,Win32,60.19382411,62bbe60bf3d75ef465d3e404,0,155,155,157,1,threefour,,,,,,,,,,,,,,,,,,,,,,,,,,,,,,,,,,,,,,,,,,,,,,,,,,,,,,,,,,,,,,,,,,,,,,,,,,,,,,,,,,,,,,,,,,,,,,,,,,,,,,,,,,,,,,,,,,,,,,,,,,,,,,,,,,,,,,,,,,,,,,,,,,,,,,,,
,,,,,,6166e6308c20d5b2777a0634,62bbfa9cc5f6bda3b95cb4b0,2022-06-29_09h09.36.664,Colour_Asymmetry_Pilot,2022.1.3,Win32,60.19382411,62bbe60bf3d75ef465d3e404,0,156,156,144,1,onetwo,,,,,,,,,,,,,,,,,,,,,,,,,,,,,,,,,,,,,,,,,,,,,,,,,,,,,,,,,,,,,,,,,,,,,,,,,,,,,,,,,,,,,,,,,,,,,,,,,,,,,,,,,,,,,,,,,,,,,,,,,,,,,,,,,,,,,,,,,,,,,,,,,,,,,,,,
,,,,,,6166e6308c20d5b2777a0634,62bbfa9cc5f6bda3b95cb4b0,2022-06-29_09h09.36.664,Colour_Asymmetry_Pilot,2022.1.3,Win32,60.19382411,62bbe60bf3d75ef465d3e404,0,157,157,23,1,fourthree,,,,,,,,,,,,,,,,,,,,,,,,,,,,,,,,,,,,,,,,,,,,,,,,,,,,,,,,,,,,,,,,,,,,,,,,,,,,,,,,,,,,,,,,,,,,,,,,,,,,,,,,,,,,,,,,,,,,,,,,,,,,,,,,,,,,,,,,,,,,,,,,,,,,,,,,
,,,,,,6166e6308c20d5b2777a0634,62bbfa9cc5f6bda3b95cb4b0,2022-06-29_09h09.36.664,Colour_Asymmetry_Pilot,2022.1.3,Win32,60.19382411,62bbe60bf3d75ef465d3e404,0,158,158,6,1,fourtwo,,,,,,,,,,,,,,,,,,,,,,,,,,,,,,,,,,,,,,,,,,,,,,,,,,,,,,,,,,,,,,,,,,,,,,,,,,,,,,,,,,,,,,,,,,,,,,,,,,,,,,,,,,,,,,,,,,,,,,,,,,,,,,,,,,,,,,,,,,,,,,,,,,,,,,,,
,,,,,,6166e6308c20d5b2777a0634,62bbfa9cc5f6bda3b95cb4b0,2022-06-29_09h09.36.664,Colour_Asymmetry_Pilot,2022.1.3,Win32,60.19382411,62bbe60bf3d75ef465d3e404,0,159,159,18,1,twoone,,,,,,,,,,,,,,,,,,,,,,,,,,,,,,,,,,,,,,,,,,,,,,,,,,,,,,,,,,,,,,,,,,,,,,,,,,,,,,,,,,,,,,,,,,,,,,,,,,,,,,,,,,,,,,,,,,,,,,,,,,,,,,,,,,,,,,,,,,,,,,,,,,,,,,,,
,,,,,,6166e6308c20d5b2777a0634,62bbfa9cc5f6bda3b95cb4b0,2022-06-29_09h09.36.664,Colour_Asymmetry_Pilot,2022.1.3,Win32,60.19382411,62bbe60bf3d75ef465d3e404,0,160,160,87,1,fourthree,,,,,,,,,,,,,,,,,,,,,,,,,,,,,,,,,,,,,,,,,,,,,,,,,,,,,,,,,,,,,,,,,,,,,,,,,,,,,,,,,,,,,,,,,,,,,,,,,,,,,,,,,,,,,,,,,,,,,,,,,,,,,,,,,,,,,,,,,,,,,,,,,,,,,,,,
,,,,,,6166e6308c20d5b2777a0634,62bbfa9cc5f6bda3b95cb4b0,2022-06-29_09h09.36.664,Colour_Asymmetry_Pilot,2022.1.3,Win32,60.19382411,62bbe60bf3d75ef465d3e404,0,161,161,95,1,fourthree,,,,,,,,,,,,,,,,,,,,,,,,,,,,,,,,,,,,,,,,,,,,,,,,,,,,,,,,,,,,,,,,,,,,,,,,,,,,,,,,,,,,,,,,,,,,,,,,,,,,,,,,,,,,,,,,,,,,,,,,,,,,,,,,,,,,,,,,,,,,,,,,,,,,,,,,
,,,,,,6166e6308c20d5b2777a0634,62bbfa9cc5f6bda3b95cb4b0,2022-06-29_09h09.36.664,Colour_Asymmetry_Pilot,2022.1.3,Win32,60.19382411,62bbe60bf3d75ef465d3e404,,,,,,,space,3.0994,space,7.4474,space,39.4948,space,21.3484,space,8.3078,space,11.6367,"[-0.24719999999999998,-0.0354000000000001,0.3175999999999999]",onetwo,"[0.11359999999999992,0.6312,0.5213999999999999]",4,17.9811,52,109.6000061,1,0,0,response1disk_5,-4.799987793,3.199981689,1,0,0,rectangle_8,-4.799987793,3.199981689,1,0,0,3,-4.799987793,3.199981689,1,0,0,0,0,0,0,1,,,,,,,,,,,,,,,,,,,,,,,,,,,,,,,,,,,,,,,,,,,,,,,,,,,,,,,,,,,,,,,,,,,,,,,,,,,,,,,,,,,,,,,,,,,,,,,,,,,,,,,,,,,
,,,,,,6166e6308c20d5b2777a0634,62bbfa9cc5f6bda3b95cb4b0,2022-06-29_09h09.36.664,Colour_Asymmetry_Pilot,2022.1.3,Win32,60.19382411,62bbe60bf3d75ef465d3e404,,,,,,,,,,,,,,,,,,,"[-0.6942,-0.7648,-0.12959999999999994]",onethree,"[-0.01980000000000004,-0.5138,-0.38039999999999996]",-4,2.7364,-57.59997559,107.1999817,1,0,0,response7disk_5,2.400024414,0,1,0,0,rectangle_8,2.400024414,0,1,0,0,3,2.400024414,0,1,0,0,1,0,1,0,1,,,,,,,,,,,,,,,,,,,,,,,,,,,,,,,,,,,,,,,,,,,,,,,,,,,,,,,,,,,,,,,,,,,,,,,,,,,,,,,,,,,,,,,,,,,,,,,,,,,,,,,,,,,
,,,,,,6166e6308c20d5b2777a0634,62bbfa9cc5f6bda3b95cb4b0,2022-06-29_09h09.36.664,Colour_Asymmetry_Pilot,2022.1.3,Win32,60.19382411,62bbe60bf3d75ef465d3e404,,,,,,,,,,,,,,,,,,,"[-0.48240000000000005,0.3175999999999999,0.2156]",twoone,"[0.7176,-0.906,-0.6864]",-4,2.121,-48.79998779,100.7999878,1,0,0,response7disk_5,-6.399963379,0.799987793,1,0,0,rectangle_8,-6.399963379,0.799987793,1,0,0,3,-6.399963379,0.799987793,1,0,0,2,0,2,0,1,,,,,,,,,,,,,,,,,,,,,,,,,,,,,,,,,,,,,,,,,,,,,,,,,,,,,,,,,,,,,,,,,,,,,,,,,,,,,,,,,,,,,,,,,,,,,,,,,,,,,,,,,,,
,,,,,,6166e6308c20d5b2777a0634,62bbfa9cc5f6bda3b95cb4b0,2022-06-29_09h09.36.664,Colour_Asymmetry_Pilot,2022.1.3,Win32,60.19382411,62bbe60bf3d75ef465d3e404,,,,,,,,,,,,,,,,,,,"[0.9686000000000001,0.5763999999999998,0.11359999999999992]",twofour,"[-0.8118,-0.8198,-0.5452]",-4,1.6854,-47.20001221,89.6000061,1,0,0,response7disk_5,6.400024414,-7.200012207,1,0,0,rectangle_8,6.400024414,-7.200012207,1,0,0,3,6.400024414,-7.200012207,1,0,0,3,0,3,0,1,,,,,,,,,,,,,,,,,,,,,,,,,,,,,,,,,,,,,,,,,,,,,,,,,,,,,,,,,,,,,,,,,,,,,,,,,,,,,,,,,,,,,,,,,,,,,,,,,,,,,,,,,,,
,,,,,,6166e6308c20d5b2777a0634,62bbfa9cc5f6bda3b95cb4b0,2022-06-29_09h09.36.664,Colour_Asymmetry_Pilot,2022.1.3,Win32,60.19382411,62bbe60bf3d75ef465d3e404,,,,,,,,,,,,,,,,,,,"[0.30180000000000007,-0.7884,-0.9844]",onethree,"[-0.9766,-0.6472,0.07440000000000002]",-4,7.4082,-47.20001221,112,1,0,0,response7disk_5,-17.59997559,8,1,0,0,rectangle_8,92,47.19998169,1,0,0,3,-2.399963379,0,1,0,0,4,0,4,0,1,response1disk_7,6,rectangle_4,,,,,,,,,,,,,,,,,,,,,,,,,,,,,,,,,,,,,,,,,,,,,,,,,,,,,,,,,,,,,,,,,,,,,,,,,,,,,,,,,,,,,,,,,,,,,,,,,,,,,,,,
,,,,,,6166e6308c20d5b2777a0634,62bbfa9cc5f6bda3b95cb4b0,2022-06-29_09h09.36.664,Colour_Asymmetry_Pilot,2022.1.3,Win32,60.19382411,62bbe60bf3d75ef465d3e404,,,,,,,,,,,,,,,,,,,"[-0.24719999999999998,0.5213999999999999,-0.12959999999999994]",onethree,"[-0.9766,-0.6472,0.07440000000000002]",-4,1.3012,-60.79998779,112,1,0,0,response7disk_5,-1.599975586,0,1,0,0,rectangle_8,102.4000244,40.79998779,1,0,0,3,-8,-15.20001221,1,0,0,5,0,5,0,1,response1disk_7,6,rectangle_4,,,,,,,,,,,,,,,,,,,,,,,,,,,,,,,,,,,,,,,,,,,,,,,,,,,,,,,,,,,,,,,,,,,,,,,,,,,,,,,,,,,,,,,,,,,,,,,,,,,,,,,,
,,,,,,6166e6308c20d5b2777a0634,62bbfa9cc5f6bda3b95cb4b0,2022-06-29_09h09.36.664,Colour_Asymmetry_Pilot,2022.1.3,Win32,60.19382411,62bbe60bf3d75ef465d3e404,,,,,,,,,,,,,,,,,,,"[-0.9138,-0.5296000000000001,-0.5529999999999999]",threefour,"[-0.06680000000000008,-0.45100000000000007,-0.906]",-4,1.9355,-56,116.7999878,1,0,0,response7disk_5,0.799987793,8.799987793,1,0,0,rectangle_8,0.799987793,8.799987793,1,0,0,3,0.799987793,8.799987793,1,0,0,6,0,6,0,1,,,,,,,,,,,,,,,,,,,,,,,,,,,,,,,,,,,,,,,,,,,,,,,,,,,,,,,,,,,,,,,,,,,,,,,,,,,,,,,,,,,,,,,,,,,,,,,,,,,,,,,,,,,
,,,,,,6166e6308c20d5b2777a0634,62bbfa9cc5f6bda3b95cb4b0,2022-06-29_09h09.36.664,Colour_Asymmetry_Pilot,2022.1.3,Win32,60.19382411,62bbe60bf3d75ef465d3e404,,,,,,,,,,,,,,,,,,,,twofour,,-4,0.9515,,,,,,,,,,,,,,,,,,,,,,,,,,,,,,,,space,3.9704,"[-0.4746,-0.0354000000000001,0.5449999999999999]","[0.30180000000000007,-0.7884,-0.9844]",-48,99.19998169,1,0,0,response7disk,-5.599975586,12,1,0,0,rectangle,-5.599975586,12,1,0,0,,1,0.0075,0,-5.599975586,12,1,0,0,0,0,0,17,1,17,first,,,,,,,,,,,,,,,,,,,,,,,,,,,,,,,,,,,,,,,,,,,,,,,,,,,,,,,,,,,,,,,,,,,
,,,,,,6166e6308c20d5b2777a0634,62bbfa9cc5f6bda3b95cb4b0,2022-06-29_09h09.36.664,Colour_Asymmetry_Pilot,2022.1.3,Win32,60.19382411,62bbe60bf3d75ef465d3e404,,,,,,,,,,,,,,,,,,,,threefour,,-4,0.7005,,,,,,,,,,,,,,,,,,,,,,,,,,,,,,,,,,"[-0.050999999999999934,-0.6706000000000001,-0.804]","[0.5528,0.7409999999999999,-0.71]",-54.39996338,108,1,0,0,response7disk,0.799987793,2.399993896,1,0,0,rectangle,88.79998779,-40.80001831,1,0,0,2,2,3.0032,1,2.400024414,4,1,0,0,0,1,1,159,1,78,second,response3disk_3,rectangle,,,,,,,,,,,,,,,,,,,,,,,,,,,,,,,,,,,,,,,,,,,,,,,,,,,,,,,,,,,,,,,,,
,,,,,,6166e6308c20d5b2777a0634,62bbfa9cc5f6bda3b95cb4b0,2022-06-29_09h09.36.664,Colour_Asymmetry_Pilot,2022.1.3,Win32,60.19382411,62bbe60bf3d75ef465d3e404,,,,,,,,,,,,,,,,,,,,fourtwo,,-4,0.8011,,,,,,,,,,,,,,,,,,,,,,,,,,,,,,,,,,"[-0.01980000000000004,-0.5138,-0.38039999999999996]","[0.40379999999999994,0.09000000000000008,0.44300000000000006]",-46.39996338,109.6000061,1,0,0,response7disk,-13.59997559,12.79998779,1,0,0,rectangle,-13.59997559,12.79998779,1,0,0,2,1,0.0011,0,-13.59997559,12.79998779,1,0,0,0,2,2,101,1,20,second,,,,,,,,,,,,,,,,,,,,,,,,,,,,,,,,,,,,,,,,,,,,,,,,,,,,,,,,,,,,,,,,,,,
,,,,,,6166e6308c20d5b2777a0634,62bbfa9cc5f6bda3b95cb4b0,2022-06-29_09h09.36.664,Colour_Asymmetry_Pilot,2022.1.3,Win32,60.19382411,62bbe60bf3d75ef465d3e404,,,,,,,,,,,,,,,,,,,,twofour,,-4,0.6844,,,,,,,,,,,,,,,,,,,,,,,,,,,,,,,,,,"[0.4196,0.4665999999999999,0.3568]","[-0.5452,-0.608,0.2470000000000001]",-56.79998779,113.6000061,1,0,0,response7disk,0,7.199981689,1,0,0,rectangle,0,7.199981689,1,0,0,2,1,0.0002,0,0,7.199981689,1,0,0,0,3,3,84,1,3,second,,,,,,,,,,,,,,,,,,,,,,,,,,,,,,,,,,,,,,,,,,,,,,,,,,,,,,,,,,,,,,,,,,,
,,,,,,6166e6308c20d5b2777a0634,62bbfa9cc5f6bda3b95cb4b0,2022-06-29_09h09.36.664,Colour_Asymmetry_Pilot,2022.1.3,Win32,60.19382411,62bbe60bf3d75ef465d3e404,,,,,,,,,,,,,,,,,,,,onetwo,,-2,4.0213,,,,,,,,,,,,,,,,,,,,,,,,,,,,,,,,,,"[-0.9296,-0.12959999999999994,-0.043199999999999905]","[0.19199999999999995,0.18419999999999992,0.5136000000000001]",-91.20001221,-40,1,0,0,response5disk,13.60003662,6.399993896,1,0,0,rectangle,13.60003662,6.399993896,1,0,0,2,3,0.0013,0,13.60003662,6.399993896,1,0,0,0,4,4,6,1,6,first,,,,,,,,,,,,,,,,,,,,,,,,,,,,,,,,,,,,,,,,,,,,,,,,,,,,,,,,,,,,,,,,,,,
,,,,,,6166e6308c20d5b2777a0634,62bbfa9cc5f6bda3b95cb4b0,2022-06-29_09h09.36.664,Colour_Asymmetry_Pilot,2022.1.3,Win32,60.19382411,62bbe60bf3d75ef465d3e404,,,,,,,,,,,,,,,,,,,,threeone,,-4,1.9351,,,,,,,,,,,,,,,,,,,,,,,,,,,,,,,,,,"[-0.2942,-0.24719999999999998,-0.357]","[-0.30200000000000005,0.14500000000000002,0.2784]",-54.39996338,100.7999878,1,0,0,response7disk,4.799987793,8,1,0,0,rectangle,4.799987793,8,1,0,0,2,2,0.001,0,4.799987793,8,1,0,0,0,5,5,41,1,41,first,,,,,,,,,,,,,,,,,,,,,,,,,,,,,,,,,,,,,,,,,,,,,,,,,,,,,,,,,,,,,,,,,,,
,,,,,,6166e6308c20d5b2777a0634,62bbfa9cc5f6bda3b95cb4b0,2022-06-29_09h09.36.664,Colour_Asymmetry_Pilot,2022.1.3,Win32,60.19382411,62bbe60bf3d75ef465d3e404,,,,,,,,,,,,,,,,,,,,threeone,,4,1.4516,,,,,,,,,,,,,,,,,,,,,,,,,,,,,,,,,,"[-0.9688,-0.4902000000000001,-0.12159999999999993]","[-0.9688,-0.7412000000000001,-0.4902000000000001]",43.20001221,104,1,0,0,response1disk,-0.799987793,-4.800018311,1,0,0,rectangle,-0.799987793,-4.800018311,1,0,0,2,3,0.0013,0,-0.799987793,-4.800018311,1,0,0,0,6,6,139,1,58,second,,,,,,,,,,,,,,,,,,,,,,,,,,,,,,,,,,,,,,,,,,,,,,,,,,,,,,,,,,,,,,,,,,,
,,,,,,6166e6308c20d5b2777a0634,62bbfa9cc5f6bda3b95cb4b0,2022-06-29_09h09.36.664,Colour_Asymmetry_Pilot,2022.1.3,Win32,60.19382411,62bbe60bf3d75ef465d3e404,,,,,,,,,,,,,,,,,,,,onethree,,-4,0.8345,,,,,,,,,,,,,,,,,,,,,,,,,,,,,,,,,,"[0.0351999999999999,0.41159999999999997,0.0038000000000000256]","[-0.01980000000000004,-0.5138,-0.38039999999999996]",-40.79998779,94.3999939,1,0,0,response7disk,22.40002441,6.399993896,1,0,0,rectangle,22.40002441,6.399993896,1,0,0,2,1,0.0018,0,22.40002441,6.399993896,1,0,0,0,7,7,125,1,44,second,,,,,,,,,,,,,,,,,,,,,,,,,,,,,,,,,,,,,,,,,,,,,,,,,,,,,,,,,,,,,,,,,,,
,,,,,,6166e6308c20d5b2777a0634,62bbfa9cc5f6bda3b95cb4b0,2022-06-29_09h09.36.664,Colour_Asymmetry_Pilot,2022.1.3,Win32,60.19382411,62bbe60bf3d75ef465d3e404,,,,,,,,,,,,,,,,,,,,threeone,,-3,1.4016,,,,,,,,,,,,,,,,,,,,,,,,,,,,,,,,,,"[-0.5688,-0.08239999999999992,-0.1844]","[-0.10599999999999998,-0.10599999999999998,0.5841999999999998]",-97.59997559,52,1,0,0,response7disk,5.600036621,0,1,0,0,rectangle,5.600036621,0,1,0,0,2,3,0.0008,0,5.600036621,0,1,0,0,0,8,8,37,1,37,first,,,,,,,,,,,,,,,,,,,,,,,,,,,,,,,,,,,,,,,,,,,,,,,,,,,,,,,,,,,,,,,,,,,
,,,,,,6166e6308c20d5b2777a0634,62bbfa9cc5f6bda3b95cb4b0,2022-06-29_09h09.36.664,Colour_Asymmetry_Pilot,2022.1.3,Win32,60.19382411,62bbe60bf3d75ef465d3e404,,,,,,,,,,,,,,,,,,,,twofour,,-4,1.235,,,,,,,,,,,,,,,,,,,,,,,,,,,,,,,,,,"[-0.48240000000000005,0.3175999999999999,0.2156]","[-0.2942,-0.24719999999999998,-0.357]",-45.59997559,108,1,0,0,response7disk,-0.799987793,0.799987793,1,0,0,rectangle,-0.799987793,0.799987793,1,0,0,2,3,0.0006,0,-0.799987793,0.799987793,1,0,0,0,9,9,112,1,31,second,,,,,,,,,,,,,,,,,,,,,,,,,,,,,,,,,,,,,,,,,,,,,,,,,,,,,,,,,,,,,,,,,,,
,,,,,,6166e6308c20d5b2777a0634,62bbfa9cc5f6bda3b95cb4b0,2022-06-29_09h09.36.664,Colour_Asymmetry_Pilot,2022.1.3,Win32,60.19382411,62bbe60bf3d75ef465d3e404,,,,,,,,,,,,,,,,,,,,onetwo,,-4,0.6006,,,,,,,,,,,,,,,,,,,,,,,,,,,,,,,,,,"[0.09799999999999986,-0.24719999999999998,0.15280000000000005]","[0.0351999999999999,0.41159999999999997,0.0038000000000000256]",-58.39996338,99.19998169,1,0,0,response7disk,-12.79998779,-3.200012207,1,0,0,rectangle,-12.79998779,-3.200012207,1,0,0,2,1,0.0009,0,-12.79998779,-3.200012207,1,0,0,0,10,10,19,1,19,first,,,,,,,,,,,,,,,,,,,,,,,,,,,,,,,,,,,,,,,,,,,,,,,,,,,,,,,,,,,,,,,,,,,
,,,,,,6166e6308c20d5b2777a0634,62bbfa9cc5f6bda3b95cb4b0,2022-06-29_09h09.36.664,Colour_Asymmetry_Pilot,2022.1.3,Win32,60.19382411,62bbe60bf3d75ef465d3e404,,,,,,,,,,,,,,,,,,,,twofour,,-4,1.1342,,,,,,,,,,,,,,,,,,,,,,,,,,,,,,,,,,"[-0.38039999999999996,-0.4276,-0.1452]","[-0.48240000000000005,0.3175999999999999,0.2156]",-40.79998779,104.7999878,1,0,0,response7disk,7.200012207,-2.399993896,1,0,0,rectangle,7.200012207,-2.399993896,1,0,0,2,2,0.0015,0,7.200012207,-2.399993896,1,0,0,0,11,11,107,1,26,second,,,,,,,,,,,,,,,,,,,,,,,,,,,,,,,,,,,,,,,,,,,,,,,,,,,,,,,,,,,,,,,,,,,
,,,,,,6166e6308c20d5b2777a0634,62bbfa9cc5f6bda3b95cb4b0,2022-06-29_09h09.36.664,Colour_Asymmetry_Pilot,2022.1.3,Win32,60.19382411,62bbe60bf3d75ef465d3e404,,,,,,,,,,,,,,,,,,,,twofour,,4,0.7178,,,,,,,,,,,,,,,,,,,,,,,,,,,,,,,,,,"[0.22340000000000004,-0.9296,-0.7884]","[-0.34920000000000007,-0.702,-0.5216]",48.79998779,106.3999939,1,0,0,response1disk,2.400024414,-9.600006104,1,0,0,rectangle,2.400024414,-9.600006104,1,0,0,2,3,0.0012,0,2.400024414,-9.600006104,1,0,0,0,12,12,149,1,68,second,,,,,,,,,,,,,,,,,,,,,,,,,,,,,,,,,,,,,,,,,,,,,,,,,,,,,,,,,,,,,,,,,,,
,,,,,,6166e6308c20d5b2777a0634,62bbfa9cc5f6bda3b95cb4b0,2022-06-29_09h09.36.664,Colour_Asymmetry_Pilot,2022.1.3,Win32,60.19382411,62bbe60bf3d75ef465d3e404,,,,,,,,,,,,,,,,,,,,fourthree,,-4,0.4929,,,,,,,,,,,,,,,,,,,,,,,,,,,,,,,,,,"[0.9213999999999998,0.6391999999999998,-0.9922]","[-0.09019999999999995,0.44300000000000006,0.5371999999999999]",-46.39996338,98.3999939,1,0,0,response7disk,-16,0,1,0,0,rectangle,-16,0,1,0,0,2,2,0.0011,0,-16,0,1,0,0,0,13,13,66,1,66,first,,,,,,,,,,,,,,,,,,,,,,,,,,,,,,,,,,,,,,,,,,,,,,,,,,,,,,,,,,,,,,,,,,,
,,,,,,6166e6308c20d5b2777a0634,62bbfa9cc5f6bda3b95cb4b0,2022-06-29_09h09.36.664,Colour_Asymmetry_Pilot,2022.1.3,Win32,60.19382411,62bbe60bf3d75ef465d3e404,,,,,,,,,,,,,,,,,,,,twoone,,4,2.0856,,,,,,,,,,,,,,,,,,,,,,,,,,,,,,,,,,"[0.40379999999999994,0.09000000000000008,0.44300000000000006]","[-0.01980000000000004,-0.5138,-0.38039999999999996]",45.60003662,96,1,0,0,response1disk,9.600036621,-2.399993896,1,0,0,rectangle,9.600036621,-2.399993896,1,0,0,2,2,0.0005,0,9.600036621,-2.399993896,1,0,0,0,14,14,20,1,20,first,,,,,,,,,,,,,,,,,,,,,,,,,,,,,,,,,,,,,,,,,,,,,,,,,,,,,,,,,,,,,,,,,,,
,,,,,,6166e6308c20d5b2777a0634,62bbfa9cc5f6bda3b95cb4b0,2022-06-29_09h09.36.664,Colour_Asymmetry_Pilot,2022.1.3,Win32,60.19382411,62bbe60bf3d75ef465d3e404,,,,,,,,,,,,,,,,,,,,fourtwo,,-4,0.6,,,,,,,,,,,,,,,,,,,,,,,,,,,,,,,,,,"[0.09799999999999986,-0.24719999999999998,0.15280000000000005]","[0.3568,-0.20799999999999996,-0.9844]",-56.79998779,103.1999817,1,0,0,response7disk,-12.79998779,3.199981689,1,0,0,rectangle,-12.79998779,3.199981689,1,0,0,2,1,0.0014,0,-12.79998779,3.199981689,1,0,0,0,15,15,39,1,39,first,,,,,,,,,,,,,,,,,,,,,,,,,,,,,,,,,,,,,,,,,,,,,,,,,,,,,,,,,,,,,,,,,,,
,,,,,,6166e6308c20d5b2777a0634,62bbfa9cc5f6bda3b95cb4b0,2022-06-29_09h09.36.664,Colour_Asymmetry_Pilot,2022.1.3,Win32,60.19382411,62bbe60bf3d75ef465d3e404,,,,,,,,,,,,,,,,,,,,fourtwo,,-4,0.8345,,,,,,,,,,,,,,,,,,,,,,,,,,,,,,,,,,"[0.8115999999999999,-0.0040000000000000036,-0.09819999999999995]","[-0.4746,-0.0354000000000001,0.5449999999999999]",-37.59997559,100,1,0,0,response7disk,10.40002441,-4.800018311,1,0,0,rectangle,10.40002441,-4.800018311,1,0,0,2,1,0.0006,0,10.40002441,-4.800018311,1,0,0,0,16,16,83,1,2,second,,,,,,,,,,,,,,,,,,,,,,,,,,,,,,,,,,,,,,,,,,,,,,,,,,,,,,,,,,,,,,,,,,,
