trials.thisRepN,trials.thisTrialN,trials.thisN,trials.thisIndex,trials.ran,Colourcodes,participant,session,date,expName,psychopyVersion,OS,frameRate,study_id,trials_4.thisRepN,trials_4.thisTrialN,trials_4.thisN,trials_4.thisIndex,trials_4.ran,StimulusPos,key_resp.keys,key_resp.rt,key_resp_2.keys,key_resp_2.rt,key_resp_15.keys,key_resp_15.rt,key_resp_17.keys,key_resp_17.rt,key_resp_9.keys,key_resp_9.rt,key_resp_10.keys,key_resp_10.rt,Circle1_col,Ecc,Circle2_col,similarity,response_time,mouse_5.x,mouse_5.y,mouse_5.leftButton,mouse_5.midButton,mouse_5.rightButton,mouse_5.clicked_name,mouse_10.x,mouse_10.y,mouse_10.leftButton,mouse_10.midButton,mouse_10.rightButton,mouse_10.clicked_name,mouse_7.x,mouse_7.y,mouse_7.leftButton,mouse_7.midButton,mouse_7.rightButton,catchnumberprac,mouse_6.x,mouse_6.y,mouse_6.leftButton,mouse_6.midButton,mouse_6.rightButton,duringprac.thisRepN,duringprac.thisTrialN,duringprac.thisN,duringprac.thisIndex,duringprac.ran,mouse_7.clicked_name,catchprac,mouse_6.clicked_name,key_resp_22.keys,key_resp_22.rt,Circle1_colour,Circle2_colour,mouse.x,mouse.y,mouse.leftButton,mouse.midButton,mouse.rightButton,mouse.clicked_name,mouse_2.x,mouse_2.y,mouse_2.leftButton,mouse_2.midButton,mouse_2.rightButton,mouse_2.clicked_name,mouse_3.x,mouse_3.y,mouse_3.leftButton,mouse_3.midButton,mouse_3.rightButton,mouse_3.clicked_name,catchresponse,catchnumber,response_time_catch,Catch,mouse_11.x,mouse_11.y,mouse_11.leftButton,mouse_11.midButton,mouse_11.rightButton,mouse_11.clicked_name,trials_2.thisRepN,trials_2.thisTrialN,trials_2.thisN,trials_2.thisIndex,trials_2.ran,Colourpair,Temporder,trials_3.thisRepN,trials_3.thisTrialN,trials_3.thisN,trials_3.thisIndex,trials_3.ran,key_resp_instr_Ishi.keys,key_resp_instr_Ishi.rt,Ishi_trial_keyresp.keys,Ishi_trial_keyresp.rt,Ishi_textbox.text,Ishi_loop.thisRepN,Ishi_loop.thisTrialN,Ishi_loop.thisN,Ishi_loop.thisIndex,Ishi_loop.ran,imageaddress,textbox.text,mouse_4.x,mouse_4.y,mouse_4.leftButton,mouse_4.midButton,mouse_4.rightButton,mouse_4.clicked_name,textbox_2.text,mouse_8.x,mouse_8.y,mouse_8.leftButton,mouse_8.midButton,mouse_8.rightButton,mouse_8.clicked_name,textbox_3.text,mouse_9.x,mouse_9.y,mouse_9.leftButton,mouse_9.midButton,mouse_9.rightButton,mouse_9.clicked_name,textbox_4.text,mouse_12.x,mouse_12.y,mouse_12.leftButton,mouse_12.midButton,mouse_12.rightButton,mouse_12.clicked_name,textbox_5.text,mouse_13.x,mouse_13.y,mouse_13.leftButton,mouse_13.midButton,mouse_13.rightButton,mouse_13.clicked_name,textbox_6.text,mouse_14.x,mouse_14.y,mouse_14.leftButton,mouse_14.midButton,mouse_14.rightButton,mouse_14.clicked_name,textbox_7.text,mouse_15.x,mouse_15.y,mouse_15.leftButton,mouse_15.midButton,mouse_15.rightButton,mouse_15.clicked_name
0,0,0,59,1,,60a5404314ae1a9d5b88565d,62bbfb17736a545fefd68a2c,2022-06-29_09h11.46.650,Colour_Asymmetry_Pilot,2022.1.3,Win32,59.9880024,62bbe60bf3d75ef465d3e404,,,,,,,,,,,,,,,,,,,,,,,,,,,,,,,,,,,,,,,,,,,,,,,,,,,,,,,,,,,,,,,,,,,,,,,,,,,,,,,,,,,,,,,,,,,,,,,,,,,,,,,,,,,,,,,,,,,,,,,,,,,,,,,,,,,,,,,,,,,,,,,,,,,,,,,,,,,,,,
0,1,1,5,1,,60a5404314ae1a9d5b88565d,62bbfb17736a545fefd68a2c,2022-06-29_09h11.46.650,Colour_Asymmetry_Pilot,2022.1.3,Win32,59.9880024,62bbe60bf3d75ef465d3e404,,,,,,,,,,,,,,,,,,,,,,,,,,,,,,,,,,,,,,,,,,,,,,,,,,,,,,,,,,,,,,,,,,,,,,,,,,,,,,,,,,,,,,,,,,,,,,,,,,,,,,,,,,,,,,,,,,,,,,,,,,,,,,,,,,,,,,,,,,,,,,,,,,,,,,,,,,,,,,
0,2,2,68,1,,60a5404314ae1a9d5b88565d,62bbfb17736a545fefd68a2c,2022-06-29_09h11.46.650,Colour_Asymmetry_Pilot,2022.1.3,Win32,59.9880024,62bbe60bf3d75ef465d3e404,,,,,,,,,,,,,,,,,,,,,,,,,,,,,,,,,,,,,,,,,,,,,,,,,,,,,,,,,,,,,,,,,,,,,,,,,,,,,,,,,,,,,,,,,,,,,,,,,,,,,,,,,,,,,,,,,,,,,,,,,,,,,,,,,,,,,,,,,,,,,,,,,,,,,,,,,,,,,,
0,3,3,62,1,,60a5404314ae1a9d5b88565d,62bbfb17736a545fefd68a2c,2022-06-29_09h11.46.650,Colour_Asymmetry_Pilot,2022.1.3,Win32,59.9880024,62bbe60bf3d75ef465d3e404,,,,,,,,,,,,,,,,,,,,,,,,,,,,,,,,,,,,,,,,,,,,,,,,,,,,,,,,,,,,,,,,,,,,,,,,,,,,,,,,,,,,,,,,,,,,,,,,,,,,,,,,,,,,,,,,,,,,,,,,,,,,,,,,,,,,,,,,,,,,,,,,,,,,,,,,,,,,,,
0,4,4,89,1,,60a5404314ae1a9d5b88565d,62bbfb17736a545fefd68a2c,2022-06-29_09h11.46.650,Colour_Asymmetry_Pilot,2022.1.3,Win32,59.9880024,62bbe60bf3d75ef465d3e404,,,,,,,,,,,,,,,,,,,,,,,,,,,,,,,,,,,,,,,,,,,,,,,,,,,,,,,,,,,,,,,,,,,,,,,,,,,,,,,,,,,,,,,,,,,,,,,,,,,,,,,,,,,,,,,,,,,,,,,,,,,,,,,,,,,,,,,,,,,,,,,,,,,,,,,,,,,,,,
0,5,5,34,1,,60a5404314ae1a9d5b88565d,62bbfb17736a545fefd68a2c,2022-06-29_09h11.46.650,Colour_Asymmetry_Pilot,2022.1.3,Win32,59.9880024,62bbe60bf3d75ef465d3e404,,,,,,,,,,,,,,,,,,,,,,,,,,,,,,,,,,,,,,,,,,,,,,,,,,,,,,,,,,,,,,,,,,,,,,,,,,,,,,,,,,,,,,,,,,,,,,,,,,,,,,,,,,,,,,,,,,,,,,,,,,,,,,,,,,,,,,,,,,,,,,,,,,,,,,,,,,,,,,
0,6,6,45,1,,60a5404314ae1a9d5b88565d,62bbfb17736a545fefd68a2c,2022-06-29_09h11.46.650,Colour_Asymmetry_Pilot,2022.1.3,Win32,59.9880024,62bbe60bf3d75ef465d3e404,,,,,,,,,,,,,,,,,,,,,,,,,,,,,,,,,,,,,,,,,,,,,,,,,,,,,,,,,,,,,,,,,,,,,,,,,,,,,,,,,,,,,,,,,,,,,,,,,,,,,,,,,,,,,,,,,,,,,,,,,,,,,,,,,,,,,,,,,,,,,,,,,,,,,,,,,,,,,,
0,7,7,69,1,,60a5404314ae1a9d5b88565d,62bbfb17736a545fefd68a2c,2022-06-29_09h11.46.650,Colour_Asymmetry_Pilot,2022.1.3,Win32,59.9880024,62bbe60bf3d75ef465d3e404,,,,,,,,,,,,,,,,,,,,,,,,,,,,,,,,,,,,,,,,,,,,,,,,,,,,,,,,,,,,,,,,,,,,,,,,,,,,,,,,,,,,,,,,,,,,,,,,,,,,,,,,,,,,,,,,,,,,,,,,,,,,,,,,,,,,,,,,,,,,,,,,,,,,,,,,,,,,,,
0,8,8,21,1,,60a5404314ae1a9d5b88565d,62bbfb17736a545fefd68a2c,2022-06-29_09h11.46.650,Colour_Asymmetry_Pilot,2022.1.3,Win32,59.9880024,62bbe60bf3d75ef465d3e404,,,,,,,,,,,,,,,,,,,,,,,,,,,,,,,,,,,,,,,,,,,,,,,,,,,,,,,,,,,,,,,,,,,,,,,,,,,,,,,,,,,,,,,,,,,,,,,,,,,,,,,,,,,,,,,,,,,,,,,,,,,,,,,,,,,,,,,,,,,,,,,,,,,,,,,,,,,,,,
0,9,9,72,1,,60a5404314ae1a9d5b88565d,62bbfb17736a545fefd68a2c,2022-06-29_09h11.46.650,Colour_Asymmetry_Pilot,2022.1.3,Win32,59.9880024,62bbe60bf3d75ef465d3e404,,,,,,,,,,,,,,,,,,,,,,,,,,,,,,,,,,,,,,,,,,,,,,,,,,,,,,,,,,,,,,,,,,,,,,,,,,,,,,,,,,,,,,,,,,,,,,,,,,,,,,,,,,,,,,,,,,,,,,,,,,,,,,,,,,,,,,,,,,,,,,,,,,,,,,,,,,,,,,
0,10,10,65,1,,60a5404314ae1a9d5b88565d,62bbfb17736a545fefd68a2c,2022-06-29_09h11.46.650,Colour_Asymmetry_Pilot,2022.1.3,Win32,59.9880024,62bbe60bf3d75ef465d3e404,,,,,,,,,,,,,,,,,,,,,,,,,,,,,,,,,,,,,,,,,,,,,,,,,,,,,,,,,,,,,,,,,,,,,,,,,,,,,,,,,,,,,,,,,,,,,,,,,,,,,,,,,,,,,,,,,,,,,,,,,,,,,,,,,,,,,,,,,,,,,,,,,,,,,,,,,,,,,,
0,11,11,17,1,,60a5404314ae1a9d5b88565d,62bbfb17736a545fefd68a2c,2022-06-29_09h11.46.650,Colour_Asymmetry_Pilot,2022.1.3,Win32,59.9880024,62bbe60bf3d75ef465d3e404,,,,,,,,,,,,,,,,,,,,,,,,,,,,,,,,,,,,,,,,,,,,,,,,,,,,,,,,,,,,,,,,,,,,,,,,,,,,,,,,,,,,,,,,,,,,,,,,,,,,,,,,,,,,,,,,,,,,,,,,,,,,,,,,,,,,,,,,,,,,,,,,,,,,,,,,,,,,,,
0,12,12,91,1,,60a5404314ae1a9d5b88565d,62bbfb17736a545fefd68a2c,2022-06-29_09h11.46.650,Colour_Asymmetry_Pilot,2022.1.3,Win32,59.9880024,62bbe60bf3d75ef465d3e404,,,,,,,,,,,,,,,,,,,,,,,,,,,,,,,,,,,,,,,,,,,,,,,,,,,,,,,,,,,,,,,,,,,,,,,,,,,,,,,,,,,,,,,,,,,,,,,,,,,,,,,,,,,,,,,,,,,,,,,,,,,,,,,,,,,,,,,,,,,,,,,,,,,,,,,,,,,,,,
0,13,13,52,1,,60a5404314ae1a9d5b88565d,62bbfb17736a545fefd68a2c,2022-06-29_09h11.46.650,Colour_Asymmetry_Pilot,2022.1.3,Win32,59.9880024,62bbe60bf3d75ef465d3e404,,,,,,,,,,,,,,,,,,,,,,,,,,,,,,,,,,,,,,,,,,,,,,,,,,,,,,,,,,,,,,,,,,,,,,,,,,,,,,,,,,,,,,,,,,,,,,,,,,,,,,,,,,,,,,,,,,,,,,,,,,,,,,,,,,,,,,,,,,,,,,,,,,,,,,,,,,,,,,
0,14,14,63,1,,60a5404314ae1a9d5b88565d,62bbfb17736a545fefd68a2c,2022-06-29_09h11.46.650,Colour_Asymmetry_Pilot,2022.1.3,Win32,59.9880024,62bbe60bf3d75ef465d3e404,,,,,,,,,,,,,,,,,,,,,,,,,,,,,,,,,,,,,,,,,,,,,,,,,,,,,,,,,,,,,,,,,,,,,,,,,,,,,,,,,,,,,,,,,,,,,,,,,,,,,,,,,,,,,,,,,,,,,,,,,,,,,,,,,,,,,,,,,,,,,,,,,,,,,,,,,,,,,,
0,15,15,2,1,,60a5404314ae1a9d5b88565d,62bbfb17736a545fefd68a2c,2022-06-29_09h11.46.650,Colour_Asymmetry_Pilot,2022.1.3,Win32,59.9880024,62bbe60bf3d75ef465d3e404,,,,,,,,,,,,,,,,,,,,,,,,,,,,,,,,,,,,,,,,,,,,,,,,,,,,,,,,,,,,,,,,,,,,,,,,,,,,,,,,,,,,,,,,,,,,,,,,,,,,,,,,,,,,,,,,,,,,,,,,,,,,,,,,,,,,,,,,,,,,,,,,,,,,,,,,,,,,,,
0,16,16,87,1,,60a5404314ae1a9d5b88565d,62bbfb17736a545fefd68a2c,2022-06-29_09h11.46.650,Colour_Asymmetry_Pilot,2022.1.3,Win32,59.9880024,62bbe60bf3d75ef465d3e404,,,,,,,,,,,,,,,,,,,,,,,,,,,,,,,,,,,,,,,,,,,,,,,,,,,,,,,,,,,,,,,,,,,,,,,,,,,,,,,,,,,,,,,,,,,,,,,,,,,,,,,,,,,,,,,,,,,,,,,,,,,,,,,,,,,,,,,,,,,,,,,,,,,,,,,,,,,,,,
0,17,17,64,1,,60a5404314ae1a9d5b88565d,62bbfb17736a545fefd68a2c,2022-06-29_09h11.46.650,Colour_Asymmetry_Pilot,2022.1.3,Win32,59.9880024,62bbe60bf3d75ef465d3e404,,,,,,,,,,,,,,,,,,,,,,,,,,,,,,,,,,,,,,,,,,,,,,,,,,,,,,,,,,,,,,,,,,,,,,,,,,,,,,,,,,,,,,,,,,,,,,,,,,,,,,,,,,,,,,,,,,,,,,,,,,,,,,,,,,,,,,,,,,,,,,,,,,,,,,,,,,,,,,
0,18,18,4,1,,60a5404314ae1a9d5b88565d,62bbfb17736a545fefd68a2c,2022-06-29_09h11.46.650,Colour_Asymmetry_Pilot,2022.1.3,Win32,59.9880024,62bbe60bf3d75ef465d3e404,,,,,,,,,,,,,,,,,,,,,,,,,,,,,,,,,,,,,,,,,,,,,,,,,,,,,,,,,,,,,,,,,,,,,,,,,,,,,,,,,,,,,,,,,,,,,,,,,,,,,,,,,,,,,,,,,,,,,,,,,,,,,,,,,,,,,,,,,,,,,,,,,,,,,,,,,,,,,,
0,19,19,19,1,,60a5404314ae1a9d5b88565d,62bbfb17736a545fefd68a2c,2022-06-29_09h11.46.650,Colour_Asymmetry_Pilot,2022.1.3,Win32,59.9880024,62bbe60bf3d75ef465d3e404,,,,,,,,,,,,,,,,,,,,,,,,,,,,,,,,,,,,,,,,,,,,,,,,,,,,,,,,,,,,,,,,,,,,,,,,,,,,,,,,,,,,,,,,,,,,,,,,,,,,,,,,,,,,,,,,,,,,,,,,,,,,,,,,,,,,,,,,,,,,,,,,,,,,,,,,,,,,,,
0,20,20,1,1,,60a5404314ae1a9d5b88565d,62bbfb17736a545fefd68a2c,2022-06-29_09h11.46.650,Colour_Asymmetry_Pilot,2022.1.3,Win32,59.9880024,62bbe60bf3d75ef465d3e404,,,,,,,,,,,,,,,,,,,,,,,,,,,,,,,,,,,,,,,,,,,,,,,,,,,,,,,,,,,,,,,,,,,,,,,,,,,,,,,,,,,,,,,,,,,,,,,,,,,,,,,,,,,,,,,,,,,,,,,,,,,,,,,,,,,,,,,,,,,,,,,,,,,,,,,,,,,,,,
0,21,21,20,1,,60a5404314ae1a9d5b88565d,62bbfb17736a545fefd68a2c,2022-06-29_09h11.46.650,Colour_Asymmetry_Pilot,2022.1.3,Win32,59.9880024,62bbe60bf3d75ef465d3e404,,,,,,,,,,,,,,,,,,,,,,,,,,,,,,,,,,,,,,,,,,,,,,,,,,,,,,,,,,,,,,,,,,,,,,,,,,,,,,,,,,,,,,,,,,,,,,,,,,,,,,,,,,,,,,,,,,,,,,,,,,,,,,,,,,,,,,,,,,,,,,,,,,,,,,,,,,,,,,
0,22,22,29,1,,60a5404314ae1a9d5b88565d,62bbfb17736a545fefd68a2c,2022-06-29_09h11.46.650,Colour_Asymmetry_Pilot,2022.1.3,Win32,59.9880024,62bbe60bf3d75ef465d3e404,,,,,,,,,,,,,,,,,,,,,,,,,,,,,,,,,,,,,,,,,,,,,,,,,,,,,,,,,,,,,,,,,,,,,,,,,,,,,,,,,,,,,,,,,,,,,,,,,,,,,,,,,,,,,,,,,,,,,,,,,,,,,,,,,,,,,,,,,,,,,,,,,,,,,,,,,,,,,,
0,23,23,31,1,,60a5404314ae1a9d5b88565d,62bbfb17736a545fefd68a2c,2022-06-29_09h11.46.650,Colour_Asymmetry_Pilot,2022.1.3,Win32,59.9880024,62bbe60bf3d75ef465d3e404,,,,,,,,,,,,,,,,,,,,,,,,,,,,,,,,,,,,,,,,,,,,,,,,,,,,,,,,,,,,,,,,,,,,,,,,,,,,,,,,,,,,,,,,,,,,,,,,,,,,,,,,,,,,,,,,,,,,,,,,,,,,,,,,,,,,,,,,,,,,,,,,,,,,,,,,,,,,,,
0,24,24,71,1,,60a5404314ae1a9d5b88565d,62bbfb17736a545fefd68a2c,2022-06-29_09h11.46.650,Colour_Asymmetry_Pilot,2022.1.3,Win32,59.9880024,62bbe60bf3d75ef465d3e404,,,,,,,,,,,,,,,,,,,,,,,,,,,,,,,,,,,,,,,,,,,,,,,,,,,,,,,,,,,,,,,,,,,,,,,,,,,,,,,,,,,,,,,,,,,,,,,,,,,,,,,,,,,,,,,,,,,,,,,,,,,,,,,,,,,,,,,,,,,,,,,,,,,,,,,,,,,,,,
0,25,25,54,1,,60a5404314ae1a9d5b88565d,62bbfb17736a545fefd68a2c,2022-06-29_09h11.46.650,Colour_Asymmetry_Pilot,2022.1.3,Win32,59.9880024,62bbe60bf3d75ef465d3e404,,,,,,,,,,,,,,,,,,,,,,,,,,,,,,,,,,,,,,,,,,,,,,,,,,,,,,,,,,,,,,,,,,,,,,,,,,,,,,,,,,,,,,,,,,,,,,,,,,,,,,,,,,,,,,,,,,,,,,,,,,,,,,,,,,,,,,,,,,,,,,,,,,,,,,,,,,,,,,
0,26,26,41,1,,60a5404314ae1a9d5b88565d,62bbfb17736a545fefd68a2c,2022-06-29_09h11.46.650,Colour_Asymmetry_Pilot,2022.1.3,Win32,59.9880024,62bbe60bf3d75ef465d3e404,,,,,,,,,,,,,,,,,,,,,,,,,,,,,,,,,,,,,,,,,,,,,,,,,,,,,,,,,,,,,,,,,,,,,,,,,,,,,,,,,,,,,,,,,,,,,,,,,,,,,,,,,,,,,,,,,,,,,,,,,,,,,,,,,,,,,,,,,,,,,,,,,,,,,,,,,,,,,,
0,27,27,42,1,,60a5404314ae1a9d5b88565d,62bbfb17736a545fefd68a2c,2022-06-29_09h11.46.650,Colour_Asymmetry_Pilot,2022.1.3,Win32,59.9880024,62bbe60bf3d75ef465d3e404,,,,,,,,,,,,,,,,,,,,,,,,,,,,,,,,,,,,,,,,,,,,,,,,,,,,,,,,,,,,,,,,,,,,,,,,,,,,,,,,,,,,,,,,,,,,,,,,,,,,,,,,,,,,,,,,,,,,,,,,,,,,,,,,,,,,,,,,,,,,,,,,,,,,,,,,,,,,,,
0,28,28,56,1,,60a5404314ae1a9d5b88565d,62bbfb17736a545fefd68a2c,2022-06-29_09h11.46.650,Colour_Asymmetry_Pilot,2022.1.3,Win32,59.9880024,62bbe60bf3d75ef465d3e404,,,,,,,,,,,,,,,,,,,,,,,,,,,,,,,,,,,,,,,,,,,,,,,,,,,,,,,,,,,,,,,,,,,,,,,,,,,,,,,,,,,,,,,,,,,,,,,,,,,,,,,,,,,,,,,,,,,,,,,,,,,,,,,,,,,,,,,,,,,,,,,,,,,,,,,,,,,,,,
0,29,29,55,1,,60a5404314ae1a9d5b88565d,62bbfb17736a545fefd68a2c,2022-06-29_09h11.46.650,Colour_Asymmetry_Pilot,2022.1.3,Win32,59.9880024,62bbe60bf3d75ef465d3e404,,,,,,,,,,,,,,,,,,,,,,,,,,,,,,,,,,,,,,,,,,,,,,,,,,,,,,,,,,,,,,,,,,,,,,,,,,,,,,,,,,,,,,,,,,,,,,,,,,,,,,,,,,,,,,,,,,,,,,,,,,,,,,,,,,,,,,,,,,,,,,,,,,,,,,,,,,,,,,
0,30,30,51,1,,60a5404314ae1a9d5b88565d,62bbfb17736a545fefd68a2c,2022-06-29_09h11.46.650,Colour_Asymmetry_Pilot,2022.1.3,Win32,59.9880024,62bbe60bf3d75ef465d3e404,,,,,,,,,,,,,,,,,,,,,,,,,,,,,,,,,,,,,,,,,,,,,,,,,,,,,,,,,,,,,,,,,,,,,,,,,,,,,,,,,,,,,,,,,,,,,,,,,,,,,,,,,,,,,,,,,,,,,,,,,,,,,,,,,,,,,,,,,,,,,,,,,,,,,,,,,,,,,,
0,31,31,12,1,,60a5404314ae1a9d5b88565d,62bbfb17736a545fefd68a2c,2022-06-29_09h11.46.650,Colour_Asymmetry_Pilot,2022.1.3,Win32,59.9880024,62bbe60bf3d75ef465d3e404,,,,,,,,,,,,,,,,,,,,,,,,,,,,,,,,,,,,,,,,,,,,,,,,,,,,,,,,,,,,,,,,,,,,,,,,,,,,,,,,,,,,,,,,,,,,,,,,,,,,,,,,,,,,,,,,,,,,,,,,,,,,,,,,,,,,,,,,,,,,,,,,,,,,,,,,,,,,,,
0,32,32,53,1,,60a5404314ae1a9d5b88565d,62bbfb17736a545fefd68a2c,2022-06-29_09h11.46.650,Colour_Asymmetry_Pilot,2022.1.3,Win32,59.9880024,62bbe60bf3d75ef465d3e404,,,,,,,,,,,,,,,,,,,,,,,,,,,,,,,,,,,,,,,,,,,,,,,,,,,,,,,,,,,,,,,,,,,,,,,,,,,,,,,,,,,,,,,,,,,,,,,,,,,,,,,,,,,,,,,,,,,,,,,,,,,,,,,,,,,,,,,,,,,,,,,,,,,,,,,,,,,,,,
0,33,33,60,1,,60a5404314ae1a9d5b88565d,62bbfb17736a545fefd68a2c,2022-06-29_09h11.46.650,Colour_Asymmetry_Pilot,2022.1.3,Win32,59.9880024,62bbe60bf3d75ef465d3e404,,,,,,,,,,,,,,,,,,,,,,,,,,,,,,,,,,,,,,,,,,,,,,,,,,,,,,,,,,,,,,,,,,,,,,,,,,,,,,,,,,,,,,,,,,,,,,,,,,,,,,,,,,,,,,,,,,,,,,,,,,,,,,,,,,,,,,,,,,,,,,,,,,,,,,,,,,,,,,
0,34,34,77,1,,60a5404314ae1a9d5b88565d,62bbfb17736a545fefd68a2c,2022-06-29_09h11.46.650,Colour_Asymmetry_Pilot,2022.1.3,Win32,59.9880024,62bbe60bf3d75ef465d3e404,,,,,,,,,,,,,,,,,,,,,,,,,,,,,,,,,,,,,,,,,,,,,,,,,,,,,,,,,,,,,,,,,,,,,,,,,,,,,,,,,,,,,,,,,,,,,,,,,,,,,,,,,,,,,,,,,,,,,,,,,,,,,,,,,,,,,,,,,,,,,,,,,,,,,,,,,,,,,,
0,35,35,10,1,,60a5404314ae1a9d5b88565d,62bbfb17736a545fefd68a2c,2022-06-29_09h11.46.650,Colour_Asymmetry_Pilot,2022.1.3,Win32,59.9880024,62bbe60bf3d75ef465d3e404,,,,,,,,,,,,,,,,,,,,,,,,,,,,,,,,,,,,,,,,,,,,,,,,,,,,,,,,,,,,,,,,,,,,,,,,,,,,,,,,,,,,,,,,,,,,,,,,,,,,,,,,,,,,,,,,,,,,,,,,,,,,,,,,,,,,,,,,,,,,,,,,,,,,,,,,,,,,,,
0,36,36,25,1,,60a5404314ae1a9d5b88565d,62bbfb17736a545fefd68a2c,2022-06-29_09h11.46.650,Colour_Asymmetry_Pilot,2022.1.3,Win32,59.9880024,62bbe60bf3d75ef465d3e404,,,,,,,,,,,,,,,,,,,,,,,,,,,,,,,,,,,,,,,,,,,,,,,,,,,,,,,,,,,,,,,,,,,,,,,,,,,,,,,,,,,,,,,,,,,,,,,,,,,,,,,,,,,,,,,,,,,,,,,,,,,,,,,,,,,,,,,,,,,,,,,,,,,,,,,,,,,,,,
0,37,37,35,1,,60a5404314ae1a9d5b88565d,62bbfb17736a545fefd68a2c,2022-06-29_09h11.46.650,Colour_Asymmetry_Pilot,2022.1.3,Win32,59.9880024,62bbe60bf3d75ef465d3e404,,,,,,,,,,,,,,,,,,,,,,,,,,,,,,,,,,,,,,,,,,,,,,,,,,,,,,,,,,,,,,,,,,,,,,,,,,,,,,,,,,,,,,,,,,,,,,,,,,,,,,,,,,,,,,,,,,,,,,,,,,,,,,,,,,,,,,,,,,,,,,,,,,,,,,,,,,,,,,
0,38,38,15,1,,60a5404314ae1a9d5b88565d,62bbfb17736a545fefd68a2c,2022-06-29_09h11.46.650,Colour_Asymmetry_Pilot,2022.1.3,Win32,59.9880024,62bbe60bf3d75ef465d3e404,,,,,,,,,,,,,,,,,,,,,,,,,,,,,,,,,,,,,,,,,,,,,,,,,,,,,,,,,,,,,,,,,,,,,,,,,,,,,,,,,,,,,,,,,,,,,,,,,,,,,,,,,,,,,,,,,,,,,,,,,,,,,,,,,,,,,,,,,,,,,,,,,,,,,,,,,,,,,,
0,39,39,8,1,,60a5404314ae1a9d5b88565d,62bbfb17736a545fefd68a2c,2022-06-29_09h11.46.650,Colour_Asymmetry_Pilot,2022.1.3,Win32,59.9880024,62bbe60bf3d75ef465d3e404,,,,,,,,,,,,,,,,,,,,,,,,,,,,,,,,,,,,,,,,,,,,,,,,,,,,,,,,,,,,,,,,,,,,,,,,,,,,,,,,,,,,,,,,,,,,,,,,,,,,,,,,,,,,,,,,,,,,,,,,,,,,,,,,,,,,,,,,,,,,,,,,,,,,,,,,,,,,,,
0,40,40,85,1,,60a5404314ae1a9d5b88565d,62bbfb17736a545fefd68a2c,2022-06-29_09h11.46.650,Colour_Asymmetry_Pilot,2022.1.3,Win32,59.9880024,62bbe60bf3d75ef465d3e404,,,,,,,,,,,,,,,,,,,,,,,,,,,,,,,,,,,,,,,,,,,,,,,,,,,,,,,,,,,,,,,,,,,,,,,,,,,,,,,,,,,,,,,,,,,,,,,,,,,,,,,,,,,,,,,,,,,,,,,,,,,,,,,,,,,,,,,,,,,,,,,,,,,,,,,,,,,,,,
0,41,41,3,1,,60a5404314ae1a9d5b88565d,62bbfb17736a545fefd68a2c,2022-06-29_09h11.46.650,Colour_Asymmetry_Pilot,2022.1.3,Win32,59.9880024,62bbe60bf3d75ef465d3e404,,,,,,,,,,,,,,,,,,,,,,,,,,,,,,,,,,,,,,,,,,,,,,,,,,,,,,,,,,,,,,,,,,,,,,,,,,,,,,,,,,,,,,,,,,,,,,,,,,,,,,,,,,,,,,,,,,,,,,,,,,,,,,,,,,,,,,,,,,,,,,,,,,,,,,,,,,,,,,
0,42,42,50,1,,60a5404314ae1a9d5b88565d,62bbfb17736a545fefd68a2c,2022-06-29_09h11.46.650,Colour_Asymmetry_Pilot,2022.1.3,Win32,59.9880024,62bbe60bf3d75ef465d3e404,,,,,,,,,,,,,,,,,,,,,,,,,,,,,,,,,,,,,,,,,,,,,,,,,,,,,,,,,,,,,,,,,,,,,,,,,,,,,,,,,,,,,,,,,,,,,,,,,,,,,,,,,,,,,,,,,,,,,,,,,,,,,,,,,,,,,,,,,,,,,,,,,,,,,,,,,,,,,,
0,43,43,82,1,,60a5404314ae1a9d5b88565d,62bbfb17736a545fefd68a2c,2022-06-29_09h11.46.650,Colour_Asymmetry_Pilot,2022.1.3,Win32,59.9880024,62bbe60bf3d75ef465d3e404,,,,,,,,,,,,,,,,,,,,,,,,,,,,,,,,,,,,,,,,,,,,,,,,,,,,,,,,,,,,,,,,,,,,,,,,,,,,,,,,,,,,,,,,,,,,,,,,,,,,,,,,,,,,,,,,,,,,,,,,,,,,,,,,,,,,,,,,,,,,,,,,,,,,,,,,,,,,,,
0,44,44,81,1,,60a5404314ae1a9d5b88565d,62bbfb17736a545fefd68a2c,2022-06-29_09h11.46.650,Colour_Asymmetry_Pilot,2022.1.3,Win32,59.9880024,62bbe60bf3d75ef465d3e404,,,,,,,,,,,,,,,,,,,,,,,,,,,,,,,,,,,,,,,,,,,,,,,,,,,,,,,,,,,,,,,,,,,,,,,,,,,,,,,,,,,,,,,,,,,,,,,,,,,,,,,,,,,,,,,,,,,,,,,,,,,,,,,,,,,,,,,,,,,,,,,,,,,,,,,,,,,,,,
0,45,45,44,1,,60a5404314ae1a9d5b88565d,62bbfb17736a545fefd68a2c,2022-06-29_09h11.46.650,Colour_Asymmetry_Pilot,2022.1.3,Win32,59.9880024,62bbe60bf3d75ef465d3e404,,,,,,,,,,,,,,,,,,,,,,,,,,,,,,,,,,,,,,,,,,,,,,,,,,,,,,,,,,,,,,,,,,,,,,,,,,,,,,,,,,,,,,,,,,,,,,,,,,,,,,,,,,,,,,,,,,,,,,,,,,,,,,,,,,,,,,,,,,,,,,,,,,,,,,,,,,,,,,
0,46,46,24,1,,60a5404314ae1a9d5b88565d,62bbfb17736a545fefd68a2c,2022-06-29_09h11.46.650,Colour_Asymmetry_Pilot,2022.1.3,Win32,59.9880024,62bbe60bf3d75ef465d3e404,,,,,,,,,,,,,,,,,,,,,,,,,,,,,,,,,,,,,,,,,,,,,,,,,,,,,,,,,,,,,,,,,,,,,,,,,,,,,,,,,,,,,,,,,,,,,,,,,,,,,,,,,,,,,,,,,,,,,,,,,,,,,,,,,,,,,,,,,,,,,,,,,,,,,,,,,,,,,,
0,47,47,86,1,,60a5404314ae1a9d5b88565d,62bbfb17736a545fefd68a2c,2022-06-29_09h11.46.650,Colour_Asymmetry_Pilot,2022.1.3,Win32,59.9880024,62bbe60bf3d75ef465d3e404,,,,,,,,,,,,,,,,,,,,,,,,,,,,,,,,,,,,,,,,,,,,,,,,,,,,,,,,,,,,,,,,,,,,,,,,,,,,,,,,,,,,,,,,,,,,,,,,,,,,,,,,,,,,,,,,,,,,,,,,,,,,,,,,,,,,,,,,,,,,,,,,,,,,,,,,,,,,,,
0,48,48,66,1,,60a5404314ae1a9d5b88565d,62bbfb17736a545fefd68a2c,2022-06-29_09h11.46.650,Colour_Asymmetry_Pilot,2022.1.3,Win32,59.9880024,62bbe60bf3d75ef465d3e404,,,,,,,,,,,,,,,,,,,,,,,,,,,,,,,,,,,,,,,,,,,,,,,,,,,,,,,,,,,,,,,,,,,,,,,,,,,,,,,,,,,,,,,,,,,,,,,,,,,,,,,,,,,,,,,,,,,,,,,,,,,,,,,,,,,,,,,,,,,,,,,,,,,,,,,,,,,,,,
0,49,49,47,1,,60a5404314ae1a9d5b88565d,62bbfb17736a545fefd68a2c,2022-06-29_09h11.46.650,Colour_Asymmetry_Pilot,2022.1.3,Win32,59.9880024,62bbe60bf3d75ef465d3e404,,,,,,,,,,,,,,,,,,,,,,,,,,,,,,,,,,,,,,,,,,,,,,,,,,,,,,,,,,,,,,,,,,,,,,,,,,,,,,,,,,,,,,,,,,,,,,,,,,,,,,,,,,,,,,,,,,,,,,,,,,,,,,,,,,,,,,,,,,,,,,,,,,,,,,,,,,,,,,
0,50,50,38,1,,60a5404314ae1a9d5b88565d,62bbfb17736a545fefd68a2c,2022-06-29_09h11.46.650,Colour_Asymmetry_Pilot,2022.1.3,Win32,59.9880024,62bbe60bf3d75ef465d3e404,,,,,,,,,,,,,,,,,,,,,,,,,,,,,,,,,,,,,,,,,,,,,,,,,,,,,,,,,,,,,,,,,,,,,,,,,,,,,,,,,,,,,,,,,,,,,,,,,,,,,,,,,,,,,,,,,,,,,,,,,,,,,,,,,,,,,,,,,,,,,,,,,,,,,,,,,,,,,,
0,51,51,83,1,,60a5404314ae1a9d5b88565d,62bbfb17736a545fefd68a2c,2022-06-29_09h11.46.650,Colour_Asymmetry_Pilot,2022.1.3,Win32,59.9880024,62bbe60bf3d75ef465d3e404,,,,,,,,,,,,,,,,,,,,,,,,,,,,,,,,,,,,,,,,,,,,,,,,,,,,,,,,,,,,,,,,,,,,,,,,,,,,,,,,,,,,,,,,,,,,,,,,,,,,,,,,,,,,,,,,,,,,,,,,,,,,,,,,,,,,,,,,,,,,,,,,,,,,,,,,,,,,,,
0,52,52,88,1,,60a5404314ae1a9d5b88565d,62bbfb17736a545fefd68a2c,2022-06-29_09h11.46.650,Colour_Asymmetry_Pilot,2022.1.3,Win32,59.9880024,62bbe60bf3d75ef465d3e404,,,,,,,,,,,,,,,,,,,,,,,,,,,,,,,,,,,,,,,,,,,,,,,,,,,,,,,,,,,,,,,,,,,,,,,,,,,,,,,,,,,,,,,,,,,,,,,,,,,,,,,,,,,,,,,,,,,,,,,,,,,,,,,,,,,,,,,,,,,,,,,,,,,,,,,,,,,,,,
0,53,53,46,1,,60a5404314ae1a9d5b88565d,62bbfb17736a545fefd68a2c,2022-06-29_09h11.46.650,Colour_Asymmetry_Pilot,2022.1.3,Win32,59.9880024,62bbe60bf3d75ef465d3e404,,,,,,,,,,,,,,,,,,,,,,,,,,,,,,,,,,,,,,,,,,,,,,,,,,,,,,,,,,,,,,,,,,,,,,,,,,,,,,,,,,,,,,,,,,,,,,,,,,,,,,,,,,,,,,,,,,,,,,,,,,,,,,,,,,,,,,,,,,,,,,,,,,,,,,,,,,,,,,
0,54,54,9,1,,60a5404314ae1a9d5b88565d,62bbfb17736a545fefd68a2c,2022-06-29_09h11.46.650,Colour_Asymmetry_Pilot,2022.1.3,Win32,59.9880024,62bbe60bf3d75ef465d3e404,,,,,,,,,,,,,,,,,,,,,,,,,,,,,,,,,,,,,,,,,,,,,,,,,,,,,,,,,,,,,,,,,,,,,,,,,,,,,,,,,,,,,,,,,,,,,,,,,,,,,,,,,,,,,,,,,,,,,,,,,,,,,,,,,,,,,,,,,,,,,,,,,,,,,,,,,,,,,,
0,55,55,80,1,,60a5404314ae1a9d5b88565d,62bbfb17736a545fefd68a2c,2022-06-29_09h11.46.650,Colour_Asymmetry_Pilot,2022.1.3,Win32,59.9880024,62bbe60bf3d75ef465d3e404,,,,,,,,,,,,,,,,,,,,,,,,,,,,,,,,,,,,,,,,,,,,,,,,,,,,,,,,,,,,,,,,,,,,,,,,,,,,,,,,,,,,,,,,,,,,,,,,,,,,,,,,,,,,,,,,,,,,,,,,,,,,,,,,,,,,,,,,,,,,,,,,,,,,,,,,,,,,,,
0,56,56,61,1,,60a5404314ae1a9d5b88565d,62bbfb17736a545fefd68a2c,2022-06-29_09h11.46.650,Colour_Asymmetry_Pilot,2022.1.3,Win32,59.9880024,62bbe60bf3d75ef465d3e404,,,,,,,,,,,,,,,,,,,,,,,,,,,,,,,,,,,,,,,,,,,,,,,,,,,,,,,,,,,,,,,,,,,,,,,,,,,,,,,,,,,,,,,,,,,,,,,,,,,,,,,,,,,,,,,,,,,,,,,,,,,,,,,,,,,,,,,,,,,,,,,,,,,,,,,,,,,,,,
0,57,57,27,1,,60a5404314ae1a9d5b88565d,62bbfb17736a545fefd68a2c,2022-06-29_09h11.46.650,Colour_Asymmetry_Pilot,2022.1.3,Win32,59.9880024,62bbe60bf3d75ef465d3e404,,,,,,,,,,,,,,,,,,,,,,,,,,,,,,,,,,,,,,,,,,,,,,,,,,,,,,,,,,,,,,,,,,,,,,,,,,,,,,,,,,,,,,,,,,,,,,,,,,,,,,,,,,,,,,,,,,,,,,,,,,,,,,,,,,,,,,,,,,,,,,,,,,,,,,,,,,,,,,
0,58,58,14,1,,60a5404314ae1a9d5b88565d,62bbfb17736a545fefd68a2c,2022-06-29_09h11.46.650,Colour_Asymmetry_Pilot,2022.1.3,Win32,59.9880024,62bbe60bf3d75ef465d3e404,,,,,,,,,,,,,,,,,,,,,,,,,,,,,,,,,,,,,,,,,,,,,,,,,,,,,,,,,,,,,,,,,,,,,,,,,,,,,,,,,,,,,,,,,,,,,,,,,,,,,,,,,,,,,,,,,,,,,,,,,,,,,,,,,,,,,,,,,,,,,,,,,,,,,,,,,,,,,,
0,59,59,0,1,,60a5404314ae1a9d5b88565d,62bbfb17736a545fefd68a2c,2022-06-29_09h11.46.650,Colour_Asymmetry_Pilot,2022.1.3,Win32,59.9880024,62bbe60bf3d75ef465d3e404,,,,,,,,,,,,,,,,,,,,,,,,,,,,,,,,,,,,,,,,,,,,,,,,,,,,,,,,,,,,,,,,,,,,,,,,,,,,,,,,,,,,,,,,,,,,,,,,,,,,,,,,,,,,,,,,,,,,,,,,,,,,,,,,,,,,,,,,,,,,,,,,,,,,,,,,,,,,,,
0,60,60,40,1,,60a5404314ae1a9d5b88565d,62bbfb17736a545fefd68a2c,2022-06-29_09h11.46.650,Colour_Asymmetry_Pilot,2022.1.3,Win32,59.9880024,62bbe60bf3d75ef465d3e404,,,,,,,,,,,,,,,,,,,,,,,,,,,,,,,,,,,,,,,,,,,,,,,,,,,,,,,,,,,,,,,,,,,,,,,,,,,,,,,,,,,,,,,,,,,,,,,,,,,,,,,,,,,,,,,,,,,,,,,,,,,,,,,,,,,,,,,,,,,,,,,,,,,,,,,,,,,,,,
0,61,61,11,1,,60a5404314ae1a9d5b88565d,62bbfb17736a545fefd68a2c,2022-06-29_09h11.46.650,Colour_Asymmetry_Pilot,2022.1.3,Win32,59.9880024,62bbe60bf3d75ef465d3e404,,,,,,,,,,,,,,,,,,,,,,,,,,,,,,,,,,,,,,,,,,,,,,,,,,,,,,,,,,,,,,,,,,,,,,,,,,,,,,,,,,,,,,,,,,,,,,,,,,,,,,,,,,,,,,,,,,,,,,,,,,,,,,,,,,,,,,,,,,,,,,,,,,,,,,,,,,,,,,
0,62,62,75,1,,60a5404314ae1a9d5b88565d,62bbfb17736a545fefd68a2c,2022-06-29_09h11.46.650,Colour_Asymmetry_Pilot,2022.1.3,Win32,59.9880024,62bbe60bf3d75ef465d3e404,,,,,,,,,,,,,,,,,,,,,,,,,,,,,,,,,,,,,,,,,,,,,,,,,,,,,,,,,,,,,,,,,,,,,,,,,,,,,,,,,,,,,,,,,,,,,,,,,,,,,,,,,,,,,,,,,,,,,,,,,,,,,,,,,,,,,,,,,,,,,,,,,,,,,,,,,,,,,,
0,63,63,39,1,,60a5404314ae1a9d5b88565d,62bbfb17736a545fefd68a2c,2022-06-29_09h11.46.650,Colour_Asymmetry_Pilot,2022.1.3,Win32,59.9880024,62bbe60bf3d75ef465d3e404,,,,,,,,,,,,,,,,,,,,,,,,,,,,,,,,,,,,,,,,,,,,,,,,,,,,,,,,,,,,,,,,,,,,,,,,,,,,,,,,,,,,,,,,,,,,,,,,,,,,,,,,,,,,,,,,,,,,,,,,,,,,,,,,,,,,,,,,,,,,,,,,,,,,,,,,,,,,,,
0,64,64,70,1,,60a5404314ae1a9d5b88565d,62bbfb17736a545fefd68a2c,2022-06-29_09h11.46.650,Colour_Asymmetry_Pilot,2022.1.3,Win32,59.9880024,62bbe60bf3d75ef465d3e404,,,,,,,,,,,,,,,,,,,,,,,,,,,,,,,,,,,,,,,,,,,,,,,,,,,,,,,,,,,,,,,,,,,,,,,,,,,,,,,,,,,,,,,,,,,,,,,,,,,,,,,,,,,,,,,,,,,,,,,,,,,,,,,,,,,,,,,,,,,,,,,,,,,,,,,,,,,,,,
0,65,65,30,1,,60a5404314ae1a9d5b88565d,62bbfb17736a545fefd68a2c,2022-06-29_09h11.46.650,Colour_Asymmetry_Pilot,2022.1.3,Win32,59.9880024,62bbe60bf3d75ef465d3e404,,,,,,,,,,,,,,,,,,,,,,,,,,,,,,,,,,,,,,,,,,,,,,,,,,,,,,,,,,,,,,,,,,,,,,,,,,,,,,,,,,,,,,,,,,,,,,,,,,,,,,,,,,,,,,,,,,,,,,,,,,,,,,,,,,,,,,,,,,,,,,,,,,,,,,,,,,,,,,
0,66,66,23,1,,60a5404314ae1a9d5b88565d,62bbfb17736a545fefd68a2c,2022-06-29_09h11.46.650,Colour_Asymmetry_Pilot,2022.1.3,Win32,59.9880024,62bbe60bf3d75ef465d3e404,,,,,,,,,,,,,,,,,,,,,,,,,,,,,,,,,,,,,,,,,,,,,,,,,,,,,,,,,,,,,,,,,,,,,,,,,,,,,,,,,,,,,,,,,,,,,,,,,,,,,,,,,,,,,,,,,,,,,,,,,,,,,,,,,,,,,,,,,,,,,,,,,,,,,,,,,,,,,,
0,67,67,43,1,,60a5404314ae1a9d5b88565d,62bbfb17736a545fefd68a2c,2022-06-29_09h11.46.650,Colour_Asymmetry_Pilot,2022.1.3,Win32,59.9880024,62bbe60bf3d75ef465d3e404,,,,,,,,,,,,,,,,,,,,,,,,,,,,,,,,,,,,,,,,,,,,,,,,,,,,,,,,,,,,,,,,,,,,,,,,,,,,,,,,,,,,,,,,,,,,,,,,,,,,,,,,,,,,,,,,,,,,,,,,,,,,,,,,,,,,,,,,,,,,,,,,,,,,,,,,,,,,,,
0,68,68,26,1,,60a5404314ae1a9d5b88565d,62bbfb17736a545fefd68a2c,2022-06-29_09h11.46.650,Colour_Asymmetry_Pilot,2022.1.3,Win32,59.9880024,62bbe60bf3d75ef465d3e404,,,,,,,,,,,,,,,,,,,,,,,,,,,,,,,,,,,,,,,,,,,,,,,,,,,,,,,,,,,,,,,,,,,,,,,,,,,,,,,,,,,,,,,,,,,,,,,,,,,,,,,,,,,,,,,,,,,,,,,,,,,,,,,,,,,,,,,,,,,,,,,,,,,,,,,,,,,,,,
0,69,69,76,1,,60a5404314ae1a9d5b88565d,62bbfb17736a545fefd68a2c,2022-06-29_09h11.46.650,Colour_Asymmetry_Pilot,2022.1.3,Win32,59.9880024,62bbe60bf3d75ef465d3e404,,,,,,,,,,,,,,,,,,,,,,,,,,,,,,,,,,,,,,,,,,,,,,,,,,,,,,,,,,,,,,,,,,,,,,,,,,,,,,,,,,,,,,,,,,,,,,,,,,,,,,,,,,,,,,,,,,,,,,,,,,,,,,,,,,,,,,,,,,,,,,,,,,,,,,,,,,,,,,
0,70,70,90,1,,60a5404314ae1a9d5b88565d,62bbfb17736a545fefd68a2c,2022-06-29_09h11.46.650,Colour_Asymmetry_Pilot,2022.1.3,Win32,59.9880024,62bbe60bf3d75ef465d3e404,,,,,,,,,,,,,,,,,,,,,,,,,,,,,,,,,,,,,,,,,,,,,,,,,,,,,,,,,,,,,,,,,,,,,,,,,,,,,,,,,,,,,,,,,,,,,,,,,,,,,,,,,,,,,,,,,,,,,,,,,,,,,,,,,,,,,,,,,,,,,,,,,,,,,,,,,,,,,,
0,71,71,32,1,,60a5404314ae1a9d5b88565d,62bbfb17736a545fefd68a2c,2022-06-29_09h11.46.650,Colour_Asymmetry_Pilot,2022.1.3,Win32,59.9880024,62bbe60bf3d75ef465d3e404,,,,,,,,,,,,,,,,,,,,,,,,,,,,,,,,,,,,,,,,,,,,,,,,,,,,,,,,,,,,,,,,,,,,,,,,,,,,,,,,,,,,,,,,,,,,,,,,,,,,,,,,,,,,,,,,,,,,,,,,,,,,,,,,,,,,,,,,,,,,,,,,,,,,,,,,,,,,,,
0,72,72,78,1,,60a5404314ae1a9d5b88565d,62bbfb17736a545fefd68a2c,2022-06-29_09h11.46.650,Colour_Asymmetry_Pilot,2022.1.3,Win32,59.9880024,62bbe60bf3d75ef465d3e404,,,,,,,,,,,,,,,,,,,,,,,,,,,,,,,,,,,,,,,,,,,,,,,,,,,,,,,,,,,,,,,,,,,,,,,,,,,,,,,,,,,,,,,,,,,,,,,,,,,,,,,,,,,,,,,,,,,,,,,,,,,,,,,,,,,,,,,,,,,,,,,,,,,,,,,,,,,,,,
0,73,73,48,1,,60a5404314ae1a9d5b88565d,62bbfb17736a545fefd68a2c,2022-06-29_09h11.46.650,Colour_Asymmetry_Pilot,2022.1.3,Win32,59.9880024,62bbe60bf3d75ef465d3e404,,,,,,,,,,,,,,,,,,,,,,,,,,,,,,,,,,,,,,,,,,,,,,,,,,,,,,,,,,,,,,,,,,,,,,,,,,,,,,,,,,,,,,,,,,,,,,,,,,,,,,,,,,,,,,,,,,,,,,,,,,,,,,,,,,,,,,,,,,,,,,,,,,,,,,,,,,,,,,
0,74,74,73,1,,60a5404314ae1a9d5b88565d,62bbfb17736a545fefd68a2c,2022-06-29_09h11.46.650,Colour_Asymmetry_Pilot,2022.1.3,Win32,59.9880024,62bbe60bf3d75ef465d3e404,,,,,,,,,,,,,,,,,,,,,,,,,,,,,,,,,,,,,,,,,,,,,,,,,,,,,,,,,,,,,,,,,,,,,,,,,,,,,,,,,,,,,,,,,,,,,,,,,,,,,,,,,,,,,,,,,,,,,,,,,,,,,,,,,,,,,,,,,,,,,,,,,,,,,,,,,,,,,,
0,75,75,18,1,,60a5404314ae1a9d5b88565d,62bbfb17736a545fefd68a2c,2022-06-29_09h11.46.650,Colour_Asymmetry_Pilot,2022.1.3,Win32,59.9880024,62bbe60bf3d75ef465d3e404,,,,,,,,,,,,,,,,,,,,,,,,,,,,,,,,,,,,,,,,,,,,,,,,,,,,,,,,,,,,,,,,,,,,,,,,,,,,,,,,,,,,,,,,,,,,,,,,,,,,,,,,,,,,,,,,,,,,,,,,,,,,,,,,,,,,,,,,,,,,,,,,,,,,,,,,,,,,,,
0,76,76,13,1,,60a5404314ae1a9d5b88565d,62bbfb17736a545fefd68a2c,2022-06-29_09h11.46.650,Colour_Asymmetry_Pilot,2022.1.3,Win32,59.9880024,62bbe60bf3d75ef465d3e404,,,,,,,,,,,,,,,,,,,,,,,,,,,,,,,,,,,,,,,,,,,,,,,,,,,,,,,,,,,,,,,,,,,,,,,,,,,,,,,,,,,,,,,,,,,,,,,,,,,,,,,,,,,,,,,,,,,,,,,,,,,,,,,,,,,,,,,,,,,,,,,,,,,,,,,,,,,,,,
0,77,77,49,1,,60a5404314ae1a9d5b88565d,62bbfb17736a545fefd68a2c,2022-06-29_09h11.46.650,Colour_Asymmetry_Pilot,2022.1.3,Win32,59.9880024,62bbe60bf3d75ef465d3e404,,,,,,,,,,,,,,,,,,,,,,,,,,,,,,,,,,,,,,,,,,,,,,,,,,,,,,,,,,,,,,,,,,,,,,,,,,,,,,,,,,,,,,,,,,,,,,,,,,,,,,,,,,,,,,,,,,,,,,,,,,,,,,,,,,,,,,,,,,,,,,,,,,,,,,,,,,,,,,
0,78,78,84,1,,60a5404314ae1a9d5b88565d,62bbfb17736a545fefd68a2c,2022-06-29_09h11.46.650,Colour_Asymmetry_Pilot,2022.1.3,Win32,59.9880024,62bbe60bf3d75ef465d3e404,,,,,,,,,,,,,,,,,,,,,,,,,,,,,,,,,,,,,,,,,,,,,,,,,,,,,,,,,,,,,,,,,,,,,,,,,,,,,,,,,,,,,,,,,,,,,,,,,,,,,,,,,,,,,,,,,,,,,,,,,,,,,,,,,,,,,,,,,,,,,,,,,,,,,,,,,,,,,,
0,79,79,7,1,,60a5404314ae1a9d5b88565d,62bbfb17736a545fefd68a2c,2022-06-29_09h11.46.650,Colour_Asymmetry_Pilot,2022.1.3,Win32,59.9880024,62bbe60bf3d75ef465d3e404,,,,,,,,,,,,,,,,,,,,,,,,,,,,,,,,,,,,,,,,,,,,,,,,,,,,,,,,,,,,,,,,,,,,,,,,,,,,,,,,,,,,,,,,,,,,,,,,,,,,,,,,,,,,,,,,,,,,,,,,,,,,,,,,,,,,,,,,,,,,,,,,,,,,,,,,,,,,,,
0,80,80,37,1,,60a5404314ae1a9d5b88565d,62bbfb17736a545fefd68a2c,2022-06-29_09h11.46.650,Colour_Asymmetry_Pilot,2022.1.3,Win32,59.9880024,62bbe60bf3d75ef465d3e404,,,,,,,,,,,,,,,,,,,,,,,,,,,,,,,,,,,,,,,,,,,,,,,,,,,,,,,,,,,,,,,,,,,,,,,,,,,,,,,,,,,,,,,,,,,,,,,,,,,,,,,,,,,,,,,,,,,,,,,,,,,,,,,,,,,,,,,,,,,,,,,,,,,,,,,,,,,,,,
0,81,81,57,1,,60a5404314ae1a9d5b88565d,62bbfb17736a545fefd68a2c,2022-06-29_09h11.46.650,Colour_Asymmetry_Pilot,2022.1.3,Win32,59.9880024,62bbe60bf3d75ef465d3e404,,,,,,,,,,,,,,,,,,,,,,,,,,,,,,,,,,,,,,,,,,,,,,,,,,,,,,,,,,,,,,,,,,,,,,,,,,,,,,,,,,,,,,,,,,,,,,,,,,,,,,,,,,,,,,,,,,,,,,,,,,,,,,,,,,,,,,,,,,,,,,,,,,,,,,,,,,,,,,
0,82,82,6,1,,60a5404314ae1a9d5b88565d,62bbfb17736a545fefd68a2c,2022-06-29_09h11.46.650,Colour_Asymmetry_Pilot,2022.1.3,Win32,59.9880024,62bbe60bf3d75ef465d3e404,,,,,,,,,,,,,,,,,,,,,,,,,,,,,,,,,,,,,,,,,,,,,,,,,,,,,,,,,,,,,,,,,,,,,,,,,,,,,,,,,,,,,,,,,,,,,,,,,,,,,,,,,,,,,,,,,,,,,,,,,,,,,,,,,,,,,,,,,,,,,,,,,,,,,,,,,,,,,,
0,83,83,92,1,,60a5404314ae1a9d5b88565d,62bbfb17736a545fefd68a2c,2022-06-29_09h11.46.650,Colour_Asymmetry_Pilot,2022.1.3,Win32,59.9880024,62bbe60bf3d75ef465d3e404,,,,,,,,,,,,,,,,,,,,,,,,,,,,,,,,,,,,,,,,,,,,,,,,,,,,,,,,,,,,,,,,,,,,,,,,,,,,,,,,,,,,,,,,,,,,,,,,,,,,,,,,,,,,,,,,,,,,,,,,,,,,,,,,,,,,,,,,,,,,,,,,,,,,,,,,,,,,,,
0,84,84,33,1,,60a5404314ae1a9d5b88565d,62bbfb17736a545fefd68a2c,2022-06-29_09h11.46.650,Colour_Asymmetry_Pilot,2022.1.3,Win32,59.9880024,62bbe60bf3d75ef465d3e404,,,,,,,,,,,,,,,,,,,,,,,,,,,,,,,,,,,,,,,,,,,,,,,,,,,,,,,,,,,,,,,,,,,,,,,,,,,,,,,,,,,,,,,,,,,,,,,,,,,,,,,,,,,,,,,,,,,,,,,,,,,,,,,,,,,,,,,,,,,,,,,,,,,,,,,,,,,,,,
0,85,85,79,1,,60a5404314ae1a9d5b88565d,62bbfb17736a545fefd68a2c,2022-06-29_09h11.46.650,Colour_Asymmetry_Pilot,2022.1.3,Win32,59.9880024,62bbe60bf3d75ef465d3e404,,,,,,,,,,,,,,,,,,,,,,,,,,,,,,,,,,,,,,,,,,,,,,,,,,,,,,,,,,,,,,,,,,,,,,,,,,,,,,,,,,,,,,,,,,,,,,,,,,,,,,,,,,,,,,,,,,,,,,,,,,,,,,,,,,,,,,,,,,,,,,,,,,,,,,,,,,,,,,
0,86,86,16,1,,60a5404314ae1a9d5b88565d,62bbfb17736a545fefd68a2c,2022-06-29_09h11.46.650,Colour_Asymmetry_Pilot,2022.1.3,Win32,59.9880024,62bbe60bf3d75ef465d3e404,,,,,,,,,,,,,,,,,,,,,,,,,,,,,,,,,,,,,,,,,,,,,,,,,,,,,,,,,,,,,,,,,,,,,,,,,,,,,,,,,,,,,,,,,,,,,,,,,,,,,,,,,,,,,,,,,,,,,,,,,,,,,,,,,,,,,,,,,,,,,,,,,,,,,,,,,,,,,,
0,87,87,36,1,,60a5404314ae1a9d5b88565d,62bbfb17736a545fefd68a2c,2022-06-29_09h11.46.650,Colour_Asymmetry_Pilot,2022.1.3,Win32,59.9880024,62bbe60bf3d75ef465d3e404,,,,,,,,,,,,,,,,,,,,,,,,,,,,,,,,,,,,,,,,,,,,,,,,,,,,,,,,,,,,,,,,,,,,,,,,,,,,,,,,,,,,,,,,,,,,,,,,,,,,,,,,,,,,,,,,,,,,,,,,,,,,,,,,,,,,,,,,,,,,,,,,,,,,,,,,,,,,,,
0,88,88,74,1,,60a5404314ae1a9d5b88565d,62bbfb17736a545fefd68a2c,2022-06-29_09h11.46.650,Colour_Asymmetry_Pilot,2022.1.3,Win32,59.9880024,62bbe60bf3d75ef465d3e404,,,,,,,,,,,,,,,,,,,,,,,,,,,,,,,,,,,,,,,,,,,,,,,,,,,,,,,,,,,,,,,,,,,,,,,,,,,,,,,,,,,,,,,,,,,,,,,,,,,,,,,,,,,,,,,,,,,,,,,,,,,,,,,,,,,,,,,,,,,,,,,,,,,,,,,,,,,,,,
0,89,89,58,1,,60a5404314ae1a9d5b88565d,62bbfb17736a545fefd68a2c,2022-06-29_09h11.46.650,Colour_Asymmetry_Pilot,2022.1.3,Win32,59.9880024,62bbe60bf3d75ef465d3e404,,,,,,,,,,,,,,,,,,,,,,,,,,,,,,,,,,,,,,,,,,,,,,,,,,,,,,,,,,,,,,,,,,,,,,,,,,,,,,,,,,,,,,,,,,,,,,,,,,,,,,,,,,,,,,,,,,,,,,,,,,,,,,,,,,,,,,,,,,,,,,,,,,,,,,,,,,,,,,
0,90,90,28,1,,60a5404314ae1a9d5b88565d,62bbfb17736a545fefd68a2c,2022-06-29_09h11.46.650,Colour_Asymmetry_Pilot,2022.1.3,Win32,59.9880024,62bbe60bf3d75ef465d3e404,,,,,,,,,,,,,,,,,,,,,,,,,,,,,,,,,,,,,,,,,,,,,,,,,,,,,,,,,,,,,,,,,,,,,,,,,,,,,,,,,,,,,,,,,,,,,,,,,,,,,,,,,,,,,,,,,,,,,,,,,,,,,,,,,,,,,,,,,,,,,,,,,,,,,,,,,,,,,,
0,91,91,22,1,,60a5404314ae1a9d5b88565d,62bbfb17736a545fefd68a2c,2022-06-29_09h11.46.650,Colour_Asymmetry_Pilot,2022.1.3,Win32,59.9880024,62bbe60bf3d75ef465d3e404,,,,,,,,,,,,,,,,,,,,,,,,,,,,,,,,,,,,,,,,,,,,,,,,,,,,,,,,,,,,,,,,,,,,,,,,,,,,,,,,,,,,,,,,,,,,,,,,,,,,,,,,,,,,,,,,,,,,,,,,,,,,,,,,,,,,,,,,,,,,,,,,,,,,,,,,,,,,,,
0,92,92,67,1,,60a5404314ae1a9d5b88565d,62bbfb17736a545fefd68a2c,2022-06-29_09h11.46.650,Colour_Asymmetry_Pilot,2022.1.3,Win32,59.9880024,62bbe60bf3d75ef465d3e404,,,,,,,,,,,,,,,,,,,,,,,,,,,,,,,,,,,,,,,,,,,,,,,,,,,,,,,,,,,,,,,,,,,,,,,,,,,,,,,,,,,,,,,,,,,,,,,,,,,,,,,,,,,,,,,,,,,,,,,,,,,,,,,,,,,,,,,,,,,,,,,,,,,,,,,,,,,,,,
,,,,,,60a5404314ae1a9d5b88565d,62bbfb17736a545fefd68a2c,2022-06-29_09h11.46.650,Colour_Asymmetry_Pilot,2022.1.3,Win32,59.9880024,62bbe60bf3d75ef465d3e404,0,0,0,101,1,threefour,,,,,,,,,,,,,,,,,,,,,,,,,,,,,,,,,,,,,,,,,,,,,,,,,,,,,,,,,,,,,,,,,,,,,,,,,,,,,,,,,,,,,,,,,,,,,,,,,,,,,,,,,,,,,,,,,,,,,,,,,,,,,,,,,,,,,,,,,,,,,,,,,,,,,,,,
,,,,,,60a5404314ae1a9d5b88565d,62bbfb17736a545fefd68a2c,2022-06-29_09h11.46.650,Colour_Asymmetry_Pilot,2022.1.3,Win32,59.9880024,62bbe60bf3d75ef465d3e404,0,1,1,146,1,twoone,,,,,,,,,,,,,,,,,,,,,,,,,,,,,,,,,,,,,,,,,,,,,,,,,,,,,,,,,,,,,,,,,,,,,,,,,,,,,,,,,,,,,,,,,,,,,,,,,,,,,,,,,,,,,,,,,,,,,,,,,,,,,,,,,,,,,,,,,,,,,,,,,,,,,,,,
,,,,,,60a5404314ae1a9d5b88565d,62bbfb17736a545fefd68a2c,2022-06-29_09h11.46.650,Colour_Asymmetry_Pilot,2022.1.3,Win32,59.9880024,62bbe60bf3d75ef465d3e404,0,2,2,63,1,fourthree,,,,,,,,,,,,,,,,,,,,,,,,,,,,,,,,,,,,,,,,,,,,,,,,,,,,,,,,,,,,,,,,,,,,,,,,,,,,,,,,,,,,,,,,,,,,,,,,,,,,,,,,,,,,,,,,,,,,,,,,,,,,,,,,,,,,,,,,,,,,,,,,,,,,,,,,
,,,,,,60a5404314ae1a9d5b88565d,62bbfb17736a545fefd68a2c,2022-06-29_09h11.46.650,Colour_Asymmetry_Pilot,2022.1.3,Win32,59.9880024,62bbe60bf3d75ef465d3e404,0,3,3,159,1,fourthree,,,,,,,,,,,,,,,,,,,,,,,,,,,,,,,,,,,,,,,,,,,,,,,,,,,,,,,,,,,,,,,,,,,,,,,,,,,,,,,,,,,,,,,,,,,,,,,,,,,,,,,,,,,,,,,,,,,,,,,,,,,,,,,,,,,,,,,,,,,,,,,,,,,,,,,,
,,,,,,60a5404314ae1a9d5b88565d,62bbfb17736a545fefd68a2c,2022-06-29_09h11.46.650,Colour_Asymmetry_Pilot,2022.1.3,Win32,59.9880024,62bbe60bf3d75ef465d3e404,0,4,4,126,1,fourtwo,,,,,,,,,,,,,,,,,,,,,,,,,,,,,,,,,,,,,,,,,,,,,,,,,,,,,,,,,,,,,,,,,,,,,,,,,,,,,,,,,,,,,,,,,,,,,,,,,,,,,,,,,,,,,,,,,,,,,,,,,,,,,,,,,,,,,,,,,,,,,,,,,,,,,,,,
,,,,,,60a5404314ae1a9d5b88565d,62bbfb17736a545fefd68a2c,2022-06-29_09h11.46.650,Colour_Asymmetry_Pilot,2022.1.3,Win32,59.9880024,62bbe60bf3d75ef465d3e404,0,5,5,151,1,fourthree,,,,,,,,,,,,,,,,,,,,,,,,,,,,,,,,,,,,,,,,,,,,,,,,,,,,,,,,,,,,,,,,,,,,,,,,,,,,,,,,,,,,,,,,,,,,,,,,,,,,,,,,,,,,,,,,,,,,,,,,,,,,,,,,,,,,,,,,,,,,,,,,,,,,,,,,
,,,,,,60a5404314ae1a9d5b88565d,62bbfb17736a545fefd68a2c,2022-06-29_09h11.46.650,Colour_Asymmetry_Pilot,2022.1.3,Win32,59.9880024,62bbe60bf3d75ef465d3e404,0,6,6,1,1,onethree,,,,,,,,,,,,,,,,,,,,,,,,,,,,,,,,,,,,,,,,,,,,,,,,,,,,,,,,,,,,,,,,,,,,,,,,,,,,,,,,,,,,,,,,,,,,,,,,,,,,,,,,,,,,,,,,,,,,,,,,,,,,,,,,,,,,,,,,,,,,,,,,,,,,,,,,
,,,,,,60a5404314ae1a9d5b88565d,62bbfb17736a545fefd68a2c,2022-06-29_09h11.46.650,Colour_Asymmetry_Pilot,2022.1.3,Win32,59.9880024,62bbe60bf3d75ef465d3e404,0,7,7,23,1,fourthree,,,,,,,,,,,,,,,,,,,,,,,,,,,,,,,,,,,,,,,,,,,,,,,,,,,,,,,,,,,,,,,,,,,,,,,,,,,,,,,,,,,,,,,,,,,,,,,,,,,,,,,,,,,,,,,,,,,,,,,,,,,,,,,,,,,,,,,,,,,,,,,,,,,,,,,,
,,,,,,60a5404314ae1a9d5b88565d,62bbfb17736a545fefd68a2c,2022-06-29_09h11.46.650,Colour_Asymmetry_Pilot,2022.1.3,Win32,59.9880024,62bbe60bf3d75ef465d3e404,0,8,8,92,1,threeone,,,,,,,,,,,,,,,,,,,,,,,,,,,,,,,,,,,,,,,,,,,,,,,,,,,,,,,,,,,,,,,,,,,,,,,,,,,,,,,,,,,,,,,,,,,,,,,,,,,,,,,,,,,,,,,,,,,,,,,,,,,,,,,,,,,,,,,,,,,,,,,,,,,,,,,,
,,,,,,60a5404314ae1a9d5b88565d,62bbfb17736a545fefd68a2c,2022-06-29_09h11.46.650,Colour_Asymmetry_Pilot,2022.1.3,Win32,59.9880024,62bbe60bf3d75ef465d3e404,0,9,9,61,1,threefour,,,,,,,,,,,,,,,,,,,,,,,,,,,,,,,,,,,,,,,,,,,,,,,,,,,,,,,,,,,,,,,,,,,,,,,,,,,,,,,,,,,,,,,,,,,,,,,,,,,,,,,,,,,,,,,,,,,,,,,,,,,,,,,,,,,,,,,,,,,,,,,,,,,,,,,,
,,,,,,60a5404314ae1a9d5b88565d,62bbfb17736a545fefd68a2c,2022-06-29_09h11.46.650,Colour_Asymmetry_Pilot,2022.1.3,Win32,59.9880024,62bbe60bf3d75ef465d3e404,0,10,10,149,1,threefour,,,,,,,,,,,,,,,,,,,,,,,,,,,,,,,,,,,,,,,,,,,,,,,,,,,,,,,,,,,,,,,,,,,,,,,,,,,,,,,,,,,,,,,,,,,,,,,,,,,,,,,,,,,,,,,,,,,,,,,,,,,,,,,,,,,,,,,,,,,,,,,,,,,,,,,,
,,,,,,60a5404314ae1a9d5b88565d,62bbfb17736a545fefd68a2c,2022-06-29_09h11.46.650,Colour_Asymmetry_Pilot,2022.1.3,Win32,59.9880024,62bbe60bf3d75ef465d3e404,0,11,11,125,1,threefour,,,,,,,,,,,,,,,,,,,,,,,,,,,,,,,,,,,,,,,,,,,,,,,,,,,,,,,,,,,,,,,,,,,,,,,,,,,,,,,,,,,,,,,,,,,,,,,,,,,,,,,,,,,,,,,,,,,,,,,,,,,,,,,,,,,,,,,,,,,,,,,,,,,,,,,,
,,,,,,60a5404314ae1a9d5b88565d,62bbfb17736a545fefd68a2c,2022-06-29_09h11.46.650,Colour_Asymmetry_Pilot,2022.1.3,Win32,59.9880024,62bbe60bf3d75ef465d3e404,0,12,12,46,1,fourtwo,,,,,,,,,,,,,,,,,,,,,,,,,,,,,,,,,,,,,,,,,,,,,,,,,,,,,,,,,,,,,,,,,,,,,,,,,,,,,,,,,,,,,,,,,,,,,,,,,,,,,,,,,,,,,,,,,,,,,,,,,,,,,,,,,,,,,,,,,,,,,,,,,,,,,,,,
,,,,,,60a5404314ae1a9d5b88565d,62bbfb17736a545fefd68a2c,2022-06-29_09h11.46.650,Colour_Asymmetry_Pilot,2022.1.3,Win32,59.9880024,62bbe60bf3d75ef465d3e404,0,13,13,152,1,onetwo,,,,,,,,,,,,,,,,,,,,,,,,,,,,,,,,,,,,,,,,,,,,,,,,,,,,,,,,,,,,,,,,,,,,,,,,,,,,,,,,,,,,,,,,,,,,,,,,,,,,,,,,,,,,,,,,,,,,,,,,,,,,,,,,,,,,,,,,,,,,,,,,,,,,,,,,
,,,,,,60a5404314ae1a9d5b88565d,62bbfb17736a545fefd68a2c,2022-06-29_09h11.46.650,Colour_Asymmetry_Pilot,2022.1.3,Win32,59.9880024,62bbe60bf3d75ef465d3e404,0,14,14,161,1,onethree,,,,,,,,,,,,,,,,,,,,,,,,,,,,,,,,,,,,,,,,,,,,,,,,,,,,,,,,,,,,,,,,,,,,,,,,,,,,,,,,,,,,,,,,,,,,,,,,,,,,,,,,,,,,,,,,,,,,,,,,,,,,,,,,,,,,,,,,,,,,,,,,,,,,,,,,
,,,,,,60a5404314ae1a9d5b88565d,62bbfb17736a545fefd68a2c,2022-06-29_09h11.46.650,Colour_Asymmetry_Pilot,2022.1.3,Win32,59.9880024,62bbe60bf3d75ef465d3e404,0,15,15,155,1,twofour,,,,,,,,,,,,,,,,,,,,,,,,,,,,,,,,,,,,,,,,,,,,,,,,,,,,,,,,,,,,,,,,,,,,,,,,,,,,,,,,,,,,,,,,,,,,,,,,,,,,,,,,,,,,,,,,,,,,,,,,,,,,,,,,,,,,,,,,,,,,,,,,,,,,,,,,
,,,,,,60a5404314ae1a9d5b88565d,62bbfb17736a545fefd68a2c,2022-06-29_09h11.46.650,Colour_Asymmetry_Pilot,2022.1.3,Win32,59.9880024,62bbe60bf3d75ef465d3e404,0,16,16,94,1,fourtwo,,,,,,,,,,,,,,,,,,,,,,,,,,,,,,,,,,,,,,,,,,,,,,,,,,,,,,,,,,,,,,,,,,,,,,,,,,,,,,,,,,,,,,,,,,,,,,,,,,,,,,,,,,,,,,,,,,,,,,,,,,,,,,,,,,,,,,,,,,,,,,,,,,,,,,,,
,,,,,,60a5404314ae1a9d5b88565d,62bbfb17736a545fefd68a2c,2022-06-29_09h11.46.650,Colour_Asymmetry_Pilot,2022.1.3,Win32,59.9880024,62bbe60bf3d75ef465d3e404,0,17,17,98,1,twoone,,,,,,,,,,,,,,,,,,,,,,,,,,,,,,,,,,,,,,,,,,,,,,,,,,,,,,,,,,,,,,,,,,,,,,,,,,,,,,,,,,,,,,,,,,,,,,,,,,,,,,,,,,,,,,,,,,,,,,,,,,,,,,,,,,,,,,,,,,,,,,,,,,,,,,,,
,,,,,,60a5404314ae1a9d5b88565d,62bbfb17736a545fefd68a2c,2022-06-29_09h11.46.650,Colour_Asymmetry_Pilot,2022.1.3,Win32,59.9880024,62bbe60bf3d75ef465d3e404,0,18,18,133,1,threefour,,,,,,,,,,,,,,,,,,,,,,,,,,,,,,,,,,,,,,,,,,,,,,,,,,,,,,,,,,,,,,,,,,,,,,,,,,,,,,,,,,,,,,,,,,,,,,,,,,,,,,,,,,,,,,,,,,,,,,,,,,,,,,,,,,,,,,,,,,,,,,,,,,,,,,,,
,,,,,,60a5404314ae1a9d5b88565d,62bbfb17736a545fefd68a2c,2022-06-29_09h11.46.650,Colour_Asymmetry_Pilot,2022.1.3,Win32,59.9880024,62bbe60bf3d75ef465d3e404,0,19,19,41,1,onethree,,,,,,,,,,,,,,,,,,,,,,,,,,,,,,,,,,,,,,,,,,,,,,,,,,,,,,,,,,,,,,,,,,,,,,,,,,,,,,,,,,,,,,,,,,,,,,,,,,,,,,,,,,,,,,,,,,,,,,,,,,,,,,,,,,,,,,,,,,,,,,,,,,,,,,,,
,,,,,,60a5404314ae1a9d5b88565d,62bbfb17736a545fefd68a2c,2022-06-29_09h11.46.650,Colour_Asymmetry_Pilot,2022.1.3,Win32,59.9880024,62bbe60bf3d75ef465d3e404,0,20,20,82,1,twoone,,,,,,,,,,,,,,,,,,,,,,,,,,,,,,,,,,,,,,,,,,,,,,,,,,,,,,,,,,,,,,,,,,,,,,,,,,,,,,,,,,,,,,,,,,,,,,,,,,,,,,,,,,,,,,,,,,,,,,,,,,,,,,,,,,,,,,,,,,,,,,,,,,,,,,,,
,,,,,,60a5404314ae1a9d5b88565d,62bbfb17736a545fefd68a2c,2022-06-29_09h11.46.650,Colour_Asymmetry_Pilot,2022.1.3,Win32,59.9880024,62bbe60bf3d75ef465d3e404,0,21,21,90,1,twoone,,,,,,,,,,,,,,,,,,,,,,,,,,,,,,,,,,,,,,,,,,,,,,,,,,,,,,,,,,,,,,,,,,,,,,,,,,,,,,,,,,,,,,,,,,,,,,,,,,,,,,,,,,,,,,,,,,,,,,,,,,,,,,,,,,,,,,,,,,,,,,,,,,,,,,,,
,,,,,,60a5404314ae1a9d5b88565d,62bbfb17736a545fefd68a2c,2022-06-29_09h11.46.650,Colour_Asymmetry_Pilot,2022.1.3,Win32,59.9880024,62bbe60bf3d75ef465d3e404,0,22,22,53,1,threefour,,,,,,,,,,,,,,,,,,,,,,,,,,,,,,,,,,,,,,,,,,,,,,,,,,,,,,,,,,,,,,,,,,,,,,,,,,,,,,,,,,,,,,,,,,,,,,,,,,,,,,,,,,,,,,,,,,,,,,,,,,,,,,,,,,,,,,,,,,,,,,,,,,,,,,,,
,,,,,,60a5404314ae1a9d5b88565d,62bbfb17736a545fefd68a2c,2022-06-29_09h11.46.650,Colour_Asymmetry_Pilot,2022.1.3,Win32,59.9880024,62bbe60bf3d75ef465d3e404,0,23,23,32,1,onetwo,,,,,,,,,,,,,,,,,,,,,,,,,,,,,,,,,,,,,,,,,,,,,,,,,,,,,,,,,,,,,,,,,,,,,,,,,,,,,,,,,,,,,,,,,,,,,,,,,,,,,,,,,,,,,,,,,,,,,,,,,,,,,,,,,,,,,,,,,,,,,,,,,,,,,,,,
,,,,,,60a5404314ae1a9d5b88565d,62bbfb17736a545fefd68a2c,2022-06-29_09h11.46.650,Colour_Asymmetry_Pilot,2022.1.3,Win32,59.9880024,62bbe60bf3d75ef465d3e404,0,24,24,97,1,onethree,,,,,,,,,,,,,,,,,,,,,,,,,,,,,,,,,,,,,,,,,,,,,,,,,,,,,,,,,,,,,,,,,,,,,,,,,,,,,,,,,,,,,,,,,,,,,,,,,,,,,,,,,,,,,,,,,,,,,,,,,,,,,,,,,,,,,,,,,,,,,,,,,,,,,,,,
,,,,,,60a5404314ae1a9d5b88565d,62bbfb17736a545fefd68a2c,2022-06-29_09h11.46.650,Colour_Asymmetry_Pilot,2022.1.3,Win32,59.9880024,62bbe60bf3d75ef465d3e404,0,25,25,27,1,twofour,,,,,,,,,,,,,,,,,,,,,,,,,,,,,,,,,,,,,,,,,,,,,,,,,,,,,,,,,,,,,,,,,,,,,,,,,,,,,,,,,,,,,,,,,,,,,,,,,,,,,,,,,,,,,,,,,,,,,,,,,,,,,,,,,,,,,,,,,,,,,,,,,,,,,,,,
,,,,,,60a5404314ae1a9d5b88565d,62bbfb17736a545fefd68a2c,2022-06-29_09h11.46.650,Colour_Asymmetry_Pilot,2022.1.3,Win32,59.9880024,62bbe60bf3d75ef465d3e404,0,26,26,150,1,fourtwo,,,,,,,,,,,,,,,,,,,,,,,,,,,,,,,,,,,,,,,,,,,,,,,,,,,,,,,,,,,,,,,,,,,,,,,,,,,,,,,,,,,,,,,,,,,,,,,,,,,,,,,,,,,,,,,,,,,,,,,,,,,,,,,,,,,,,,,,,,,,,,,,,,,,,,,,
,,,,,,60a5404314ae1a9d5b88565d,62bbfb17736a545fefd68a2c,2022-06-29_09h11.46.650,Colour_Asymmetry_Pilot,2022.1.3,Win32,59.9880024,62bbe60bf3d75ef465d3e404,0,27,27,105,1,onethree,,,,,,,,,,,,,,,,,,,,,,,,,,,,,,,,,,,,,,,,,,,,,,,,,,,,,,,,,,,,,,,,,,,,,,,,,,,,,,,,,,,,,,,,,,,,,,,,,,,,,,,,,,,,,,,,,,,,,,,,,,,,,,,,,,,,,,,,,,,,,,,,,,,,,,,,
,,,,,,60a5404314ae1a9d5b88565d,62bbfb17736a545fefd68a2c,2022-06-29_09h11.46.650,Colour_Asymmetry_Pilot,2022.1.3,Win32,59.9880024,62bbe60bf3d75ef465d3e404,0,28,28,36,1,threeone,,,,,,,,,,,,,,,,,,,,,,,,,,,,,,,,,,,,,,,,,,,,,,,,,,,,,,,,,,,,,,,,,,,,,,,,,,,,,,,,,,,,,,,,,,,,,,,,,,,,,,,,,,,,,,,,,,,,,,,,,,,,,,,,,,,,,,,,,,,,,,,,,,,,,,,,
,,,,,,60a5404314ae1a9d5b88565d,62bbfb17736a545fefd68a2c,2022-06-29_09h11.46.650,Colour_Asymmetry_Pilot,2022.1.3,Win32,59.9880024,62bbe60bf3d75ef465d3e404,0,29,29,16,1,onetwo,,,,,,,,,,,,,,,,,,,,,,,,,,,,,,,,,,,,,,,,,,,,,,,,,,,,,,,,,,,,,,,,,,,,,,,,,,,,,,,,,,,,,,,,,,,,,,,,,,,,,,,,,,,,,,,,,,,,,,,,,,,,,,,,,,,,,,,,,,,,,,,,,,,,,,,,
,,,,,,60a5404314ae1a9d5b88565d,62bbfb17736a545fefd68a2c,2022-06-29_09h11.46.650,Colour_Asymmetry_Pilot,2022.1.3,Win32,59.9880024,62bbe60bf3d75ef465d3e404,0,30,30,6,1,fourtwo,,,,,,,,,,,,,,,,,,,,,,,,,,,,,,,,,,,,,,,,,,,,,,,,,,,,,,,,,,,,,,,,,,,,,,,,,,,,,,,,,,,,,,,,,,,,,,,,,,,,,,,,,,,,,,,,,,,,,,,,,,,,,,,,,,,,,,,,,,,,,,,,,,,,,,,,
,,,,,,60a5404314ae1a9d5b88565d,62bbfb17736a545fefd68a2c,2022-06-29_09h11.46.650,Colour_Asymmetry_Pilot,2022.1.3,Win32,59.9880024,62bbe60bf3d75ef465d3e404,0,31,31,19,1,twofour,,,,,,,,,,,,,,,,,,,,,,,,,,,,,,,,,,,,,,,,,,,,,,,,,,,,,,,,,,,,,,,,,,,,,,,,,,,,,,,,,,,,,,,,,,,,,,,,,,,,,,,,,,,,,,,,,,,,,,,,,,,,,,,,,,,,,,,,,,,,,,,,,,,,,,,,
,,,,,,60a5404314ae1a9d5b88565d,62bbfb17736a545fefd68a2c,2022-06-29_09h11.46.650,Colour_Asymmetry_Pilot,2022.1.3,Win32,59.9880024,62bbe60bf3d75ef465d3e404,0,32,32,86,1,fourtwo,,,,,,,,,,,,,,,,,,,,,,,,,,,,,,,,,,,,,,,,,,,,,,,,,,,,,,,,,,,,,,,,,,,,,,,,,,,,,,,,,,,,,,,,,,,,,,,,,,,,,,,,,,,,,,,,,,,,,,,,,,,,,,,,,,,,,,,,,,,,,,,,,,,,,,,,
,,,,,,60a5404314ae1a9d5b88565d,62bbfb17736a545fefd68a2c,2022-06-29_09h11.46.650,Colour_Asymmetry_Pilot,2022.1.3,Win32,59.9880024,62bbe60bf3d75ef465d3e404,0,33,33,110,1,fourtwo,,,,,,,,,,,,,,,,,,,,,,,,,,,,,,,,,,,,,,,,,,,,,,,,,,,,,,,,,,,,,,,,,,,,,,,,,,,,,,,,,,,,,,,,,,,,,,,,,,,,,,,,,,,,,,,,,,,,,,,,,,,,,,,,,,,,,,,,,,,,,,,,,,,,,,,,
,,,,,,60a5404314ae1a9d5b88565d,62bbfb17736a545fefd68a2c,2022-06-29_09h11.46.650,Colour_Asymmetry_Pilot,2022.1.3,Win32,59.9880024,62bbe60bf3d75ef465d3e404,0,34,34,67,1,twofour,,,,,,,,,,,,,,,,,,,,,,,,,,,,,,,,,,,,,,,,,,,,,,,,,,,,,,,,,,,,,,,,,,,,,,,,,,,,,,,,,,,,,,,,,,,,,,,,,,,,,,,,,,,,,,,,,,,,,,,,,,,,,,,,,,,,,,,,,,,,,,,,,,,,,,,,
,,,,,,60a5404314ae1a9d5b88565d,62bbfb17736a545fefd68a2c,2022-06-29_09h11.46.650,Colour_Asymmetry_Pilot,2022.1.3,Win32,59.9880024,62bbe60bf3d75ef465d3e404,0,35,35,88,1,onetwo,,,,,,,,,,,,,,,,,,,,,,,,,,,,,,,,,,,,,,,,,,,,,,,,,,,,,,,,,,,,,,,,,,,,,,,,,,,,,,,,,,,,,,,,,,,,,,,,,,,,,,,,,,,,,,,,,,,,,,,,,,,,,,,,,,,,,,,,,,,,,,,,,,,,,,,,
,,,,,,60a5404314ae1a9d5b88565d,62bbfb17736a545fefd68a2c,2022-06-29_09h11.46.650,Colour_Asymmetry_Pilot,2022.1.3,Win32,59.9880024,62bbe60bf3d75ef465d3e404,0,36,36,158,1,fourtwo,,,,,,,,,,,,,,,,,,,,,,,,,,,,,,,,,,,,,,,,,,,,,,,,,,,,,,,,,,,,,,,,,,,,,,,,,,,,,,,,,,,,,,,,,,,,,,,,,,,,,,,,,,,,,,,,,,,,,,,,,,,,,,,,,,,,,,,,,,,,,,,,,,,,,,,,
,,,,,,60a5404314ae1a9d5b88565d,62bbfb17736a545fefd68a2c,2022-06-29_09h11.46.650,Colour_Asymmetry_Pilot,2022.1.3,Win32,59.9880024,62bbe60bf3d75ef465d3e404,0,37,37,10,1,twoone,,,,,,,,,,,,,,,,,,,,,,,,,,,,,,,,,,,,,,,,,,,,,,,,,,,,,,,,,,,,,,,,,,,,,,,,,,,,,,,,,,,,,,,,,,,,,,,,,,,,,,,,,,,,,,,,,,,,,,,,,,,,,,,,,,,,,,,,,,,,,,,,,,,,,,,,
,,,,,,60a5404314ae1a9d5b88565d,62bbfb17736a545fefd68a2c,2022-06-29_09h11.46.650,Colour_Asymmetry_Pilot,2022.1.3,Win32,59.9880024,62bbe60bf3d75ef465d3e404,0,38,38,140,1,threeone,,,,,,,,,,,,,,,,,,,,,,,,,,,,,,,,,,,,,,,,,,,,,,,,,,,,,,,,,,,,,,,,,,,,,,,,,,,,,,,,,,,,,,,,,,,,,,,,,,,,,,,,,,,,,,,,,,,,,,,,,,,,,,,,,,,,,,,,,,,,,,,,,,,,,,,,
,,,,,,60a5404314ae1a9d5b88565d,62bbfb17736a545fefd68a2c,2022-06-29_09h11.46.650,Colour_Asymmetry_Pilot,2022.1.3,Win32,59.9880024,62bbe60bf3d75ef465d3e404,0,39,39,100,1,threeone,,,,,,,,,,,,,,,,,,,,,,,,,,,,,,,,,,,,,,,,,,,,,,,,,,,,,,,,,,,,,,,,,,,,,,,,,,,,,,,,,,,,,,,,,,,,,,,,,,,,,,,,,,,,,,,,,,,,,,,,,,,,,,,,,,,,,,,,,,,,,,,,,,,,,,,,
,,,,,,60a5404314ae1a9d5b88565d,62bbfb17736a545fefd68a2c,2022-06-29_09h11.46.650,Colour_Asymmetry_Pilot,2022.1.3,Win32,59.9880024,62bbe60bf3d75ef465d3e404,0,40,40,70,1,fourtwo,,,,,,,,,,,,,,,,,,,,,,,,,,,,,,,,,,,,,,,,,,,,,,,,,,,,,,,,,,,,,,,,,,,,,,,,,,,,,,,,,,,,,,,,,,,,,,,,,,,,,,,,,,,,,,,,,,,,,,,,,,,,,,,,,,,,,,,,,,,,,,,,,,,,,,,,
,,,,,,60a5404314ae1a9d5b88565d,62bbfb17736a545fefd68a2c,2022-06-29_09h11.46.650,Colour_Asymmetry_Pilot,2022.1.3,Win32,59.9880024,62bbe60bf3d75ef465d3e404,0,41,41,141,1,threefour,,,,,,,,,,,,,,,,,,,,,,,,,,,,,,,,,,,,,,,,,,,,,,,,,,,,,,,,,,,,,,,,,,,,,,,,,,,,,,,,,,,,,,,,,,,,,,,,,,,,,,,,,,,,,,,,,,,,,,,,,,,,,,,,,,,,,,,,,,,,,,,,,,,,,,,,
,,,,,,60a5404314ae1a9d5b88565d,62bbfb17736a545fefd68a2c,2022-06-29_09h11.46.650,Colour_Asymmetry_Pilot,2022.1.3,Win32,59.9880024,62bbe60bf3d75ef465d3e404,0,42,42,148,1,threeone,,,,,,,,,,,,,,,,,,,,,,,,,,,,,,,,,,,,,,,,,,,,,,,,,,,,,,,,,,,,,,,,,,,,,,,,,,,,,,,,,,,,,,,,,,,,,,,,,,,,,,,,,,,,,,,,,,,,,,,,,,,,,,,,,,,,,,,,,,,,,,,,,,,,,,,,
,,,,,,60a5404314ae1a9d5b88565d,62bbfb17736a545fefd68a2c,2022-06-29_09h11.46.650,Colour_Asymmetry_Pilot,2022.1.3,Win32,59.9880024,62bbe60bf3d75ef465d3e404,0,43,43,160,1,onetwo,,,,,,,,,,,,,,,,,,,,,,,,,,,,,,,,,,,,,,,,,,,,,,,,,,,,,,,,,,,,,,,,,,,,,,,,,,,,,,,,,,,,,,,,,,,,,,,,,,,,,,,,,,,,,,,,,,,,,,,,,,,,,,,,,,,,,,,,,,,,,,,,,,,,,,,,
,,,,,,60a5404314ae1a9d5b88565d,62bbfb17736a545fefd68a2c,2022-06-29_09h11.46.650,Colour_Asymmetry_Pilot,2022.1.3,Win32,59.9880024,62bbe60bf3d75ef465d3e404,0,44,44,122,1,twoone,,,,,,,,,,,,,,,,,,,,,,,,,,,,,,,,,,,,,,,,,,,,,,,,,,,,,,,,,,,,,,,,,,,,,,,,,,,,,,,,,,,,,,,,,,,,,,,,,,,,,,,,,,,,,,,,,,,,,,,,,,,,,,,,,,,,,,,,,,,,,,,,,,,,,,,,
,,,,,,60a5404314ae1a9d5b88565d,62bbfb17736a545fefd68a2c,2022-06-29_09h11.46.650,Colour_Asymmetry_Pilot,2022.1.3,Win32,59.9880024,62bbe60bf3d75ef465d3e404,0,45,45,18,1,twoone,,,,,,,,,,,,,,,,,,,,,,,,,,,,,,,,,,,,,,,,,,,,,,,,,,,,,,,,,,,,,,,,,,,,,,,,,,,,,,,,,,,,,,,,,,,,,,,,,,,,,,,,,,,,,,,,,,,,,,,,,,,,,,,,,,,,,,,,,,,,,,,,,,,,,,,,
,,,,,,60a5404314ae1a9d5b88565d,62bbfb17736a545fefd68a2c,2022-06-29_09h11.46.650,Colour_Asymmetry_Pilot,2022.1.3,Win32,59.9880024,62bbe60bf3d75ef465d3e404,0,46,46,124,1,threeone,,,,,,,,,,,,,,,,,,,,,,,,,,,,,,,,,,,,,,,,,,,,,,,,,,,,,,,,,,,,,,,,,,,,,,,,,,,,,,,,,,,,,,,,,,,,,,,,,,,,,,,,,,,,,,,,,,,,,,,,,,,,,,,,,,,,,,,,,,,,,,,,,,,,,,,,
,,,,,,60a5404314ae1a9d5b88565d,62bbfb17736a545fefd68a2c,2022-06-29_09h11.46.650,Colour_Asymmetry_Pilot,2022.1.3,Win32,59.9880024,62bbe60bf3d75ef465d3e404,0,47,47,120,1,onetwo,,,,,,,,,,,,,,,,,,,,,,,,,,,,,,,,,,,,,,,,,,,,,,,,,,,,,,,,,,,,,,,,,,,,,,,,,,,,,,,,,,,,,,,,,,,,,,,,,,,,,,,,,,,,,,,,,,,,,,,,,,,,,,,,,,,,,,,,,,,,,,,,,,,,,,,,
,,,,,,60a5404314ae1a9d5b88565d,62bbfb17736a545fefd68a2c,2022-06-29_09h11.46.650,Colour_Asymmetry_Pilot,2022.1.3,Win32,59.9880024,62bbe60bf3d75ef465d3e404,0,48,48,17,1,onethree,,,,,,,,,,,,,,,,,,,,,,,,,,,,,,,,,,,,,,,,,,,,,,,,,,,,,,,,,,,,,,,,,,,,,,,,,,,,,,,,,,,,,,,,,,,,,,,,,,,,,,,,,,,,,,,,,,,,,,,,,,,,,,,,,,,,,,,,,,,,,,,,,,,,,,,,
,,,,,,60a5404314ae1a9d5b88565d,62bbfb17736a545fefd68a2c,2022-06-29_09h11.46.650,Colour_Asymmetry_Pilot,2022.1.3,Win32,59.9880024,62bbe60bf3d75ef465d3e404,0,49,49,79,1,fourthree,,,,,,,,,,,,,,,,,,,,,,,,,,,,,,,,,,,,,,,,,,,,,,,,,,,,,,,,,,,,,,,,,,,,,,,,,,,,,,,,,,,,,,,,,,,,,,,,,,,,,,,,,,,,,,,,,,,,,,,,,,,,,,,,,,,,,,,,,,,,,,,,,,,,,,,,
,,,,,,60a5404314ae1a9d5b88565d,62bbfb17736a545fefd68a2c,2022-06-29_09h11.46.650,Colour_Asymmetry_Pilot,2022.1.3,Win32,59.9880024,62bbe60bf3d75ef465d3e404,0,50,50,13,1,threefour,,,,,,,,,,,,,,,,,,,,,,,,,,,,,,,,,,,,,,,,,,,,,,,,,,,,,,,,,,,,,,,,,,,,,,,,,,,,,,,,,,,,,,,,,,,,,,,,,,,,,,,,,,,,,,,,,,,,,,,,,,,,,,,,,,,,,,,,,,,,,,,,,,,,,,,,
,,,,,,60a5404314ae1a9d5b88565d,62bbfb17736a545fefd68a2c,2022-06-29_09h11.46.650,Colour_Asymmetry_Pilot,2022.1.3,Win32,59.9880024,62bbe60bf3d75ef465d3e404,0,51,51,95,1,fourthree,,,,,,,,,,,,,,,,,,,,,,,,,,,,,,,,,,,,,,,,,,,,,,,,,,,,,,,,,,,,,,,,,,,,,,,,,,,,,,,,,,,,,,,,,,,,,,,,,,,,,,,,,,,,,,,,,,,,,,,,,,,,,,,,,,,,,,,,,,,,,,,,,,,,,,,,
,,,,,,60a5404314ae1a9d5b88565d,62bbfb17736a545fefd68a2c,2022-06-29_09h11.46.650,Colour_Asymmetry_Pilot,2022.1.3,Win32,59.9880024,62bbe60bf3d75ef465d3e404,0,52,52,157,1,threefour,,,,,,,,,,,,,,,,,,,,,,,,,,,,,,,,,,,,,,,,,,,,,,,,,,,,,,,,,,,,,,,,,,,,,,,,,,,,,,,,,,,,,,,,,,,,,,,,,,,,,,,,,,,,,,,,,,,,,,,,,,,,,,,,,,,,,,,,,,,,,,,,,,,,,,,,
,,,,,,60a5404314ae1a9d5b88565d,62bbfb17736a545fefd68a2c,2022-06-29_09h11.46.650,Colour_Asymmetry_Pilot,2022.1.3,Win32,59.9880024,62bbe60bf3d75ef465d3e404,0,53,53,106,1,twoone,,,,,,,,,,,,,,,,,,,,,,,,,,,,,,,,,,,,,,,,,,,,,,,,,,,,,,,,,,,,,,,,,,,,,,,,,,,,,,,,,,,,,,,,,,,,,,,,,,,,,,,,,,,,,,,,,,,,,,,,,,,,,,,,,,,,,,,,,,,,,,,,,,,,,,,,
,,,,,,60a5404314ae1a9d5b88565d,62bbfb17736a545fefd68a2c,2022-06-29_09h11.46.650,Colour_Asymmetry_Pilot,2022.1.3,Win32,59.9880024,62bbe60bf3d75ef465d3e404,0,54,54,91,1,twofour,,,,,,,,,,,,,,,,,,,,,,,,,,,,,,,,,,,,,,,,,,,,,,,,,,,,,,,,,,,,,,,,,,,,,,,,,,,,,,,,,,,,,,,,,,,,,,,,,,,,,,,,,,,,,,,,,,,,,,,,,,,,,,,,,,,,,,,,,,,,,,,,,,,,,,,,
,,,,,,60a5404314ae1a9d5b88565d,62bbfb17736a545fefd68a2c,2022-06-29_09h11.46.650,Colour_Asymmetry_Pilot,2022.1.3,Win32,59.9880024,62bbe60bf3d75ef465d3e404,0,55,55,102,1,fourtwo,,,,,,,,,,,,,,,,,,,,,,,,,,,,,,,,,,,,,,,,,,,,,,,,,,,,,,,,,,,,,,,,,,,,,,,,,,,,,,,,,,,,,,,,,,,,,,,,,,,,,,,,,,,,,,,,,,,,,,,,,,,,,,,,,,,,,,,,,,,,,,,,,,,,,,,,
,,,,,,60a5404314ae1a9d5b88565d,62bbfb17736a545fefd68a2c,2022-06-29_09h11.46.650,Colour_Asymmetry_Pilot,2022.1.3,Win32,59.9880024,62bbe60bf3d75ef465d3e404,0,56,56,137,1,onethree,,,,,,,,,,,,,,,,,,,,,,,,,,,,,,,,,,,,,,,,,,,,,,,,,,,,,,,,,,,,,,,,,,,,,,,,,,,,,,,,,,,,,,,,,,,,,,,,,,,,,,,,,,,,,,,,,,,,,,,,,,,,,,,,,,,,,,,,,,,,,,,,,,,,,,,,
,,,,,,60a5404314ae1a9d5b88565d,62bbfb17736a545fefd68a2c,2022-06-29_09h11.46.650,Colour_Asymmetry_Pilot,2022.1.3,Win32,59.9880024,62bbe60bf3d75ef465d3e404,0,57,57,54,1,fourtwo,,,,,,,,,,,,,,,,,,,,,,,,,,,,,,,,,,,,,,,,,,,,,,,,,,,,,,,,,,,,,,,,,,,,,,,,,,,,,,,,,,,,,,,,,,,,,,,,,,,,,,,,,,,,,,,,,,,,,,,,,,,,,,,,,,,,,,,,,,,,,,,,,,,,,,,,
,,,,,,60a5404314ae1a9d5b88565d,62bbfb17736a545fefd68a2c,2022-06-29_09h11.46.650,Colour_Asymmetry_Pilot,2022.1.3,Win32,59.9880024,62bbe60bf3d75ef465d3e404,0,58,58,113,1,onethree,,,,,,,,,,,,,,,,,,,,,,,,,,,,,,,,,,,,,,,,,,,,,,,,,,,,,,,,,,,,,,,,,,,,,,,,,,,,,,,,,,,,,,,,,,,,,,,,,,,,,,,,,,,,,,,,,,,,,,,,,,,,,,,,,,,,,,,,,,,,,,,,,,,,,,,,
,,,,,,60a5404314ae1a9d5b88565d,62bbfb17736a545fefd68a2c,2022-06-29_09h11.46.650,Colour_Asymmetry_Pilot,2022.1.3,Win32,59.9880024,62bbe60bf3d75ef465d3e404,0,59,59,131,1,twofour,,,,,,,,,,,,,,,,,,,,,,,,,,,,,,,,,,,,,,,,,,,,,,,,,,,,,,,,,,,,,,,,,,,,,,,,,,,,,,,,,,,,,,,,,,,,,,,,,,,,,,,,,,,,,,,,,,,,,,,,,,,,,,,,,,,,,,,,,,,,,,,,,,,,,,,,
,,,,,,60a5404314ae1a9d5b88565d,62bbfb17736a545fefd68a2c,2022-06-29_09h11.46.650,Colour_Asymmetry_Pilot,2022.1.3,Win32,59.9880024,62bbe60bf3d75ef465d3e404,0,60,60,134,1,fourtwo,,,,,,,,,,,,,,,,,,,,,,,,,,,,,,,,,,,,,,,,,,,,,,,,,,,,,,,,,,,,,,,,,,,,,,,,,,,,,,,,,,,,,,,,,,,,,,,,,,,,,,,,,,,,,,,,,,,,,,,,,,,,,,,,,,,,,,,,,,,,,,,,,,,,,,,,
,,,,,,60a5404314ae1a9d5b88565d,62bbfb17736a545fefd68a2c,2022-06-29_09h11.46.650,Colour_Asymmetry_Pilot,2022.1.3,Win32,59.9880024,62bbe60bf3d75ef465d3e404,0,61,61,31,1,fourthree,,,,,,,,,,,,,,,,,,,,,,,,,,,,,,,,,,,,,,,,,,,,,,,,,,,,,,,,,,,,,,,,,,,,,,,,,,,,,,,,,,,,,,,,,,,,,,,,,,,,,,,,,,,,,,,,,,,,,,,,,,,,,,,,,,,,,,,,,,,,,,,,,,,,,,,,
,,,,,,60a5404314ae1a9d5b88565d,62bbfb17736a545fefd68a2c,2022-06-29_09h11.46.650,Colour_Asymmetry_Pilot,2022.1.3,Win32,59.9880024,62bbe60bf3d75ef465d3e404,0,62,62,78,1,fourtwo,,,,,,,,,,,,,,,,,,,,,,,,,,,,,,,,,,,,,,,,,,,,,,,,,,,,,,,,,,,,,,,,,,,,,,,,,,,,,,,,,,,,,,,,,,,,,,,,,,,,,,,,,,,,,,,,,,,,,,,,,,,,,,,,,,,,,,,,,,,,,,,,,,,,,,,,
,,,,,,60a5404314ae1a9d5b88565d,62bbfb17736a545fefd68a2c,2022-06-29_09h11.46.650,Colour_Asymmetry_Pilot,2022.1.3,Win32,59.9880024,62bbe60bf3d75ef465d3e404,0,63,63,129,1,onethree,,,,,,,,,,,,,,,,,,,,,,,,,,,,,,,,,,,,,,,,,,,,,,,,,,,,,,,,,,,,,,,,,,,,,,,,,,,,,,,,,,,,,,,,,,,,,,,,,,,,,,,,,,,,,,,,,,,,,,,,,,,,,,,,,,,,,,,,,,,,,,,,,,,,,,,,
,,,,,,60a5404314ae1a9d5b88565d,62bbfb17736a545fefd68a2c,2022-06-29_09h11.46.650,Colour_Asymmetry_Pilot,2022.1.3,Win32,59.9880024,62bbe60bf3d75ef465d3e404,0,64,64,75,1,twofour,,,,,,,,,,,,,,,,,,,,,,,,,,,,,,,,,,,,,,,,,,,,,,,,,,,,,,,,,,,,,,,,,,,,,,,,,,,,,,,,,,,,,,,,,,,,,,,,,,,,,,,,,,,,,,,,,,,,,,,,,,,,,,,,,,,,,,,,,,,,,,,,,,,,,,,,
,,,,,,60a5404314ae1a9d5b88565d,62bbfb17736a545fefd68a2c,2022-06-29_09h11.46.650,Colour_Asymmetry_Pilot,2022.1.3,Win32,59.9880024,62bbe60bf3d75ef465d3e404,0,65,65,104,1,onetwo,,,,,,,,,,,,,,,,,,,,,,,,,,,,,,,,,,,,,,,,,,,,,,,,,,,,,,,,,,,,,,,,,,,,,,,,,,,,,,,,,,,,,,,,,,,,,,,,,,,,,,,,,,,,,,,,,,,,,,,,,,,,,,,,,,,,,,,,,,,,,,,,,,,,,,,,
,,,,,,60a5404314ae1a9d5b88565d,62bbfb17736a545fefd68a2c,2022-06-29_09h11.46.650,Colour_Asymmetry_Pilot,2022.1.3,Win32,59.9880024,62bbe60bf3d75ef465d3e404,0,66,66,22,1,fourtwo,,,,,,,,,,,,,,,,,,,,,,,,,,,,,,,,,,,,,,,,,,,,,,,,,,,,,,,,,,,,,,,,,,,,,,,,,,,,,,,,,,,,,,,,,,,,,,,,,,,,,,,,,,,,,,,,,,,,,,,,,,,,,,,,,,,,,,,,,,,,,,,,,,,,,,,,
,,,,,,60a5404314ae1a9d5b88565d,62bbfb17736a545fefd68a2c,2022-06-29_09h11.46.650,Colour_Asymmetry_Pilot,2022.1.3,Win32,59.9880024,62bbe60bf3d75ef465d3e404,0,67,67,34,1,twoone,,,,,,,,,,,,,,,,,,,,,,,,,,,,,,,,,,,,,,,,,,,,,,,,,,,,,,,,,,,,,,,,,,,,,,,,,,,,,,,,,,,,,,,,,,,,,,,,,,,,,,,,,,,,,,,,,,,,,,,,,,,,,,,,,,,,,,,,,,,,,,,,,,,,,,,,
,,,,,,60a5404314ae1a9d5b88565d,62bbfb17736a545fefd68a2c,2022-06-29_09h11.46.650,Colour_Asymmetry_Pilot,2022.1.3,Win32,59.9880024,62bbe60bf3d75ef465d3e404,0,68,68,103,1,fourthree,,,,,,,,,,,,,,,,,,,,,,,,,,,,,,,,,,,,,,,,,,,,,,,,,,,,,,,,,,,,,,,,,,,,,,,,,,,,,,,,,,,,,,,,,,,,,,,,,,,,,,,,,,,,,,,,,,,,,,,,,,,,,,,,,,,,,,,,,,,,,,,,,,,,,,,,
,,,,,,60a5404314ae1a9d5b88565d,62bbfb17736a545fefd68a2c,2022-06-29_09h11.46.650,Colour_Asymmetry_Pilot,2022.1.3,Win32,59.9880024,62bbe60bf3d75ef465d3e404,0,69,69,26,1,twoone,,,,,,,,,,,,,,,,,,,,,,,,,,,,,,,,,,,,,,,,,,,,,,,,,,,,,,,,,,,,,,,,,,,,,,,,,,,,,,,,,,,,,,,,,,,,,,,,,,,,,,,,,,,,,,,,,,,,,,,,,,,,,,,,,,,,,,,,,,,,,,,,,,,,,,,,
,,,,,,60a5404314ae1a9d5b88565d,62bbfb17736a545fefd68a2c,2022-06-29_09h11.46.650,Colour_Asymmetry_Pilot,2022.1.3,Win32,59.9880024,62bbe60bf3d75ef465d3e404,0,70,70,145,1,onethree,,,,,,,,,,,,,,,,,,,,,,,,,,,,,,,,,,,,,,,,,,,,,,,,,,,,,,,,,,,,,,,,,,,,,,,,,,,,,,,,,,,,,,,,,,,,,,,,,,,,,,,,,,,,,,,,,,,,,,,,,,,,,,,,,,,,,,,,,,,,,,,,,,,,,,,,
,,,,,,60a5404314ae1a9d5b88565d,62bbfb17736a545fefd68a2c,2022-06-29_09h11.46.650,Colour_Asymmetry_Pilot,2022.1.3,Win32,59.9880024,62bbe60bf3d75ef465d3e404,0,71,71,156,1,threeone,,,,,,,,,,,,,,,,,,,,,,,,,,,,,,,,,,,,,,,,,,,,,,,,,,,,,,,,,,,,,,,,,,,,,,,,,,,,,,,,,,,,,,,,,,,,,,,,,,,,,,,,,,,,,,,,,,,,,,,,,,,,,,,,,,,,,,,,,,,,,,,,,,,,,,,,
,,,,,,60a5404314ae1a9d5b88565d,62bbfb17736a545fefd68a2c,2022-06-29_09h11.46.650,Colour_Asymmetry_Pilot,2022.1.3,Win32,59.9880024,62bbe60bf3d75ef465d3e404,0,72,72,99,1,twofour,,,,,,,,,,,,,,,,,,,,,,,,,,,,,,,,,,,,,,,,,,,,,,,,,,,,,,,,,,,,,,,,,,,,,,,,,,,,,,,,,,,,,,,,,,,,,,,,,,,,,,,,,,,,,,,,,,,,,,,,,,,,,,,,,,,,,,,,,,,,,,,,,,,,,,,,
,,,,,,60a5404314ae1a9d5b88565d,62bbfb17736a545fefd68a2c,2022-06-29_09h11.46.650,Colour_Asymmetry_Pilot,2022.1.3,Win32,59.9880024,62bbe60bf3d75ef465d3e404,0,73,73,138,1,twoone,,,,,,,,,,,,,,,,,,,,,,,,,,,,,,,,,,,,,,,,,,,,,,,,,,,,,,,,,,,,,,,,,,,,,,,,,,,,,,,,,,,,,,,,,,,,,,,,,,,,,,,,,,,,,,,,,,,,,,,,,,,,,,,,,,,,,,,,,,,,,,,,,,,,,,,,
,,,,,,60a5404314ae1a9d5b88565d,62bbfb17736a545fefd68a2c,2022-06-29_09h11.46.650,Colour_Asymmetry_Pilot,2022.1.3,Win32,59.9880024,62bbe60bf3d75ef465d3e404,0,74,74,83,1,twofour,,,,,,,,,,,,,,,,,,,,,,,,,,,,,,,,,,,,,,,,,,,,,,,,,,,,,,,,,,,,,,,,,,,,,,,,,,,,,,,,,,,,,,,,,,,,,,,,,,,,,,,,,,,,,,,,,,,,,,,,,,,,,,,,,,,,,,,,,,,,,,,,,,,,,,,,
,,,,,,60a5404314ae1a9d5b88565d,62bbfb17736a545fefd68a2c,2022-06-29_09h11.46.650,Colour_Asymmetry_Pilot,2022.1.3,Win32,59.9880024,62bbe60bf3d75ef465d3e404,0,75,75,28,1,threeone,,,,,,,,,,,,,,,,,,,,,,,,,,,,,,,,,,,,,,,,,,,,,,,,,,,,,,,,,,,,,,,,,,,,,,,,,,,,,,,,,,,,,,,,,,,,,,,,,,,,,,,,,,,,,,,,,,,,,,,,,,,,,,,,,,,,,,,,,,,,,,,,,,,,,,,,
,,,,,,60a5404314ae1a9d5b88565d,62bbfb17736a545fefd68a2c,2022-06-29_09h11.46.650,Colour_Asymmetry_Pilot,2022.1.3,Win32,59.9880024,62bbe60bf3d75ef465d3e404,0,76,76,123,1,twofour,,,,,,,,,,,,,,,,,,,,,,,,,,,,,,,,,,,,,,,,,,,,,,,,,,,,,,,,,,,,,,,,,,,,,,,,,,,,,,,,,,,,,,,,,,,,,,,,,,,,,,,,,,,,,,,,,,,,,,,,,,,,,,,,,,,,,,,,,,,,,,,,,,,,,,,,
,,,,,,60a5404314ae1a9d5b88565d,62bbfb17736a545fefd68a2c,2022-06-29_09h11.46.650,Colour_Asymmetry_Pilot,2022.1.3,Win32,59.9880024,62bbe60bf3d75ef465d3e404,0,77,77,45,1,threefour,,,,,,,,,,,,,,,,,,,,,,,,,,,,,,,,,,,,,,,,,,,,,,,,,,,,,,,,,,,,,,,,,,,,,,,,,,,,,,,,,,,,,,,,,,,,,,,,,,,,,,,,,,,,,,,,,,,,,,,,,,,,,,,,,,,,,,,,,,,,,,,,,,,,,,,,
,,,,,,60a5404314ae1a9d5b88565d,62bbfb17736a545fefd68a2c,2022-06-29_09h11.46.650,Colour_Asymmetry_Pilot,2022.1.3,Win32,59.9880024,62bbe60bf3d75ef465d3e404,0,78,78,135,1,fourthree,,,,,,,,,,,,,,,,,,,,,,,,,,,,,,,,,,,,,,,,,,,,,,,,,,,,,,,,,,,,,,,,,,,,,,,,,,,,,,,,,,,,,,,,,,,,,,,,,,,,,,,,,,,,,,,,,,,,,,,,,,,,,,,,,,,,,,,,,,,,,,,,,,,,,,,,
,,,,,,60a5404314ae1a9d5b88565d,62bbfb17736a545fefd68a2c,2022-06-29_09h11.46.650,Colour_Asymmetry_Pilot,2022.1.3,Win32,59.9880024,62bbe60bf3d75ef465d3e404,0,79,79,74,1,twoone,,,,,,,,,,,,,,,,,,,,,,,,,,,,,,,,,,,,,,,,,,,,,,,,,,,,,,,,,,,,,,,,,,,,,,,,,,,,,,,,,,,,,,,,,,,,,,,,,,,,,,,,,,,,,,,,,,,,,,,,,,,,,,,,,,,,,,,,,,,,,,,,,,,,,,,,
,,,,,,60a5404314ae1a9d5b88565d,62bbfb17736a545fefd68a2c,2022-06-29_09h11.46.650,Colour_Asymmetry_Pilot,2022.1.3,Win32,59.9880024,62bbe60bf3d75ef465d3e404,0,80,80,49,1,onethree,,,,,,,,,,,,,,,,,,,,,,,,,,,,,,,,,,,,,,,,,,,,,,,,,,,,,,,,,,,,,,,,,,,,,,,,,,,,,,,,,,,,,,,,,,,,,,,,,,,,,,,,,,,,,,,,,,,,,,,,,,,,,,,,,,,,,,,,,,,,,,,,,,,,,,,,
,,,,,,60a5404314ae1a9d5b88565d,62bbfb17736a545fefd68a2c,2022-06-29_09h11.46.650,Colour_Asymmetry_Pilot,2022.1.3,Win32,59.9880024,62bbe60bf3d75ef465d3e404,0,81,81,68,1,threeone,,,,,,,,,,,,,,,,,,,,,,,,,,,,,,,,,,,,,,,,,,,,,,,,,,,,,,,,,,,,,,,,,,,,,,,,,,,,,,,,,,,,,,,,,,,,,,,,,,,,,,,,,,,,,,,,,,,,,,,,,,,,,,,,,,,,,,,,,,,,,,,,,,,,,,,,
,,,,,,60a5404314ae1a9d5b88565d,62bbfb17736a545fefd68a2c,2022-06-29_09h11.46.650,Colour_Asymmetry_Pilot,2022.1.3,Win32,59.9880024,62bbe60bf3d75ef465d3e404,0,82,82,115,1,twofour,,,,,,,,,,,,,,,,,,,,,,,,,,,,,,,,,,,,,,,,,,,,,,,,,,,,,,,,,,,,,,,,,,,,,,,,,,,,,,,,,,,,,,,,,,,,,,,,,,,,,,,,,,,,,,,,,,,,,,,,,,,,,,,,,,,,,,,,,,,,,,,,,,,,,,,,
,,,,,,60a5404314ae1a9d5b88565d,62bbfb17736a545fefd68a2c,2022-06-29_09h11.46.650,Colour_Asymmetry_Pilot,2022.1.3,Win32,59.9880024,62bbe60bf3d75ef465d3e404,0,83,83,52,1,threeone,,,,,,,,,,,,,,,,,,,,,,,,,,,,,,,,,,,,,,,,,,,,,,,,,,,,,,,,,,,,,,,,,,,,,,,,,,,,,,,,,,,,,,,,,,,,,,,,,,,,,,,,,,,,,,,,,,,,,,,,,,,,,,,,,,,,,,,,,,,,,,,,,,,,,,,,
,,,,,,60a5404314ae1a9d5b88565d,62bbfb17736a545fefd68a2c,2022-06-29_09h11.46.650,Colour_Asymmetry_Pilot,2022.1.3,Win32,59.9880024,62bbe60bf3d75ef465d3e404,0,84,84,50,1,twoone,,,,,,,,,,,,,,,,,,,,,,,,,,,,,,,,,,,,,,,,,,,,,,,,,,,,,,,,,,,,,,,,,,,,,,,,,,,,,,,,,,,,,,,,,,,,,,,,,,,,,,,,,,,,,,,,,,,,,,,,,,,,,,,,,,,,,,,,,,,,,,,,,,,,,,,,
,,,,,,60a5404314ae1a9d5b88565d,62bbfb17736a545fefd68a2c,2022-06-29_09h11.46.650,Colour_Asymmetry_Pilot,2022.1.3,Win32,59.9880024,62bbe60bf3d75ef465d3e404,0,85,85,9,1,onethree,,,,,,,,,,,,,,,,,,,,,,,,,,,,,,,,,,,,,,,,,,,,,,,,,,,,,,,,,,,,,,,,,,,,,,,,,,,,,,,,,,,,,,,,,,,,,,,,,,,,,,,,,,,,,,,,,,,,,,,,,,,,,,,,,,,,,,,,,,,,,,,,,,,,,,,,
,,,,,,60a5404314ae1a9d5b88565d,62bbfb17736a545fefd68a2c,2022-06-29_09h11.46.650,Colour_Asymmetry_Pilot,2022.1.3,Win32,59.9880024,62bbe60bf3d75ef465d3e404,0,86,86,3,1,twofour,,,,,,,,,,,,,,,,,,,,,,,,,,,,,,,,,,,,,,,,,,,,,,,,,,,,,,,,,,,,,,,,,,,,,,,,,,,,,,,,,,,,,,,,,,,,,,,,,,,,,,,,,,,,,,,,,,,,,,,,,,,,,,,,,,,,,,,,,,,,,,,,,,,,,,,,
,,,,,,60a5404314ae1a9d5b88565d,62bbfb17736a545fefd68a2c,2022-06-29_09h11.46.650,Colour_Asymmetry_Pilot,2022.1.3,Win32,59.9880024,62bbe60bf3d75ef465d3e404,0,87,87,76,1,threeone,,,,,,,,,,,,,,,,,,,,,,,,,,,,,,,,,,,,,,,,,,,,,,,,,,,,,,,,,,,,,,,,,,,,,,,,,,,,,,,,,,,,,,,,,,,,,,,,,,,,,,,,,,,,,,,,,,,,,,,,,,,,,,,,,,,,,,,,,,,,,,,,,,,,,,,,
,,,,,,60a5404314ae1a9d5b88565d,62bbfb17736a545fefd68a2c,2022-06-29_09h11.46.650,Colour_Asymmetry_Pilot,2022.1.3,Win32,59.9880024,62bbe60bf3d75ef465d3e404,0,88,88,12,1,threeone,,,,,,,,,,,,,,,,,,,,,,,,,,,,,,,,,,,,,,,,,,,,,,,,,,,,,,,,,,,,,,,,,,,,,,,,,,,,,,,,,,,,,,,,,,,,,,,,,,,,,,,,,,,,,,,,,,,,,,,,,,,,,,,,,,,,,,,,,,,,,,,,,,,,,,,,
,,,,,,60a5404314ae1a9d5b88565d,62bbfb17736a545fefd68a2c,2022-06-29_09h11.46.650,Colour_Asymmetry_Pilot,2022.1.3,Win32,59.9880024,62bbe60bf3d75ef465d3e404,0,89,89,57,1,onethree,,,,,,,,,,,,,,,,,,,,,,,,,,,,,,,,,,,,,,,,,,,,,,,,,,,,,,,,,,,,,,,,,,,,,,,,,,,,,,,,,,,,,,,,,,,,,,,,,,,,,,,,,,,,,,,,,,,,,,,,,,,,,,,,,,,,,,,,,,,,,,,,,,,,,,,,
,,,,,,60a5404314ae1a9d5b88565d,62bbfb17736a545fefd68a2c,2022-06-29_09h11.46.650,Colour_Asymmetry_Pilot,2022.1.3,Win32,59.9880024,62bbe60bf3d75ef465d3e404,0,90,90,4,1,threeone,,,,,,,,,,,,,,,,,,,,,,,,,,,,,,,,,,,,,,,,,,,,,,,,,,,,,,,,,,,,,,,,,,,,,,,,,,,,,,,,,,,,,,,,,,,,,,,,,,,,,,,,,,,,,,,,,,,,,,,,,,,,,,,,,,,,,,,,,,,,,,,,,,,,,,,,
,,,,,,60a5404314ae1a9d5b88565d,62bbfb17736a545fefd68a2c,2022-06-29_09h11.46.650,Colour_Asymmetry_Pilot,2022.1.3,Win32,59.9880024,62bbe60bf3d75ef465d3e404,0,91,91,55,1,fourthree,,,,,,,,,,,,,,,,,,,,,,,,,,,,,,,,,,,,,,,,,,,,,,,,,,,,,,,,,,,,,,,,,,,,,,,,,,,,,,,,,,,,,,,,,,,,,,,,,,,,,,,,,,,,,,,,,,,,,,,,,,,,,,,,,,,,,,,,,,,,,,,,,,,,,,,,
,,,,,,60a5404314ae1a9d5b88565d,62bbfb17736a545fefd68a2c,2022-06-29_09h11.46.650,Colour_Asymmetry_Pilot,2022.1.3,Win32,59.9880024,62bbe60bf3d75ef465d3e404,0,92,92,35,1,twofour,,,,,,,,,,,,,,,,,,,,,,,,,,,,,,,,,,,,,,,,,,,,,,,,,,,,,,,,,,,,,,,,,,,,,,,,,,,,,,,,,,,,,,,,,,,,,,,,,,,,,,,,,,,,,,,,,,,,,,,,,,,,,,,,,,,,,,,,,,,,,,,,,,,,,,,,
,,,,,,60a5404314ae1a9d5b88565d,62bbfb17736a545fefd68a2c,2022-06-29_09h11.46.650,Colour_Asymmetry_Pilot,2022.1.3,Win32,59.9880024,62bbe60bf3d75ef465d3e404,0,93,93,87,1,fourthree,,,,,,,,,,,,,,,,,,,,,,,,,,,,,,,,,,,,,,,,,,,,,,,,,,,,,,,,,,,,,,,,,,,,,,,,,,,,,,,,,,,,,,,,,,,,,,,,,,,,,,,,,,,,,,,,,,,,,,,,,,,,,,,,,,,,,,,,,,,,,,,,,,,,,,,,
,,,,,,60a5404314ae1a9d5b88565d,62bbfb17736a545fefd68a2c,2022-06-29_09h11.46.650,Colour_Asymmetry_Pilot,2022.1.3,Win32,59.9880024,62bbe60bf3d75ef465d3e404,0,94,94,84,1,threeone,,,,,,,,,,,,,,,,,,,,,,,,,,,,,,,,,,,,,,,,,,,,,,,,,,,,,,,,,,,,,,,,,,,,,,,,,,,,,,,,,,,,,,,,,,,,,,,,,,,,,,,,,,,,,,,,,,,,,,,,,,,,,,,,,,,,,,,,,,,,,,,,,,,,,,,,
,,,,,,60a5404314ae1a9d5b88565d,62bbfb17736a545fefd68a2c,2022-06-29_09h11.46.650,Colour_Asymmetry_Pilot,2022.1.3,Win32,59.9880024,62bbe60bf3d75ef465d3e404,0,95,95,56,1,onetwo,,,,,,,,,,,,,,,,,,,,,,,,,,,,,,,,,,,,,,,,,,,,,,,,,,,,,,,,,,,,,,,,,,,,,,,,,,,,,,,,,,,,,,,,,,,,,,,,,,,,,,,,,,,,,,,,,,,,,,,,,,,,,,,,,,,,,,,,,,,,,,,,,,,,,,,,
,,,,,,60a5404314ae1a9d5b88565d,62bbfb17736a545fefd68a2c,2022-06-29_09h11.46.650,Colour_Asymmetry_Pilot,2022.1.3,Win32,59.9880024,62bbe60bf3d75ef465d3e404,0,96,96,119,1,fourthree,,,,,,,,,,,,,,,,,,,,,,,,,,,,,,,,,,,,,,,,,,,,,,,,,,,,,,,,,,,,,,,,,,,,,,,,,,,,,,,,,,,,,,,,,,,,,,,,,,,,,,,,,,,,,,,,,,,,,,,,,,,,,,,,,,,,,,,,,,,,,,,,,,,,,,,,
,,,,,,60a5404314ae1a9d5b88565d,62bbfb17736a545fefd68a2c,2022-06-29_09h11.46.650,Colour_Asymmetry_Pilot,2022.1.3,Win32,59.9880024,62bbe60bf3d75ef465d3e404,0,97,97,8,1,onetwo,,,,,,,,,,,,,,,,,,,,,,,,,,,,,,,,,,,,,,,,,,,,,,,,,,,,,,,,,,,,,,,,,,,,,,,,,,,,,,,,,,,,,,,,,,,,,,,,,,,,,,,,,,,,,,,,,,,,,,,,,,,,,,,,,,,,,,,,,,,,,,,,,,,,,,,,
,,,,,,60a5404314ae1a9d5b88565d,62bbfb17736a545fefd68a2c,2022-06-29_09h11.46.650,Colour_Asymmetry_Pilot,2022.1.3,Win32,59.9880024,62bbe60bf3d75ef465d3e404,0,98,98,7,1,fourthree,,,,,,,,,,,,,,,,,,,,,,,,,,,,,,,,,,,,,,,,,,,,,,,,,,,,,,,,,,,,,,,,,,,,,,,,,,,,,,,,,,,,,,,,,,,,,,,,,,,,,,,,,,,,,,,,,,,,,,,,,,,,,,,,,,,,,,,,,,,,,,,,,,,,,,,,
,,,,,,60a5404314ae1a9d5b88565d,62bbfb17736a545fefd68a2c,2022-06-29_09h11.46.650,Colour_Asymmetry_Pilot,2022.1.3,Win32,59.9880024,62bbe60bf3d75ef465d3e404,0,99,99,153,1,onethree,,,,,,,,,,,,,,,,,,,,,,,,,,,,,,,,,,,,,,,,,,,,,,,,,,,,,,,,,,,,,,,,,,,,,,,,,,,,,,,,,,,,,,,,,,,,,,,,,,,,,,,,,,,,,,,,,,,,,,,,,,,,,,,,,,,,,,,,,,,,,,,,,,,,,,,,
,,,,,,60a5404314ae1a9d5b88565d,62bbfb17736a545fefd68a2c,2022-06-29_09h11.46.650,Colour_Asymmetry_Pilot,2022.1.3,Win32,59.9880024,62bbe60bf3d75ef465d3e404,0,100,100,25,1,onethree,,,,,,,,,,,,,,,,,,,,,,,,,,,,,,,,,,,,,,,,,,,,,,,,,,,,,,,,,,,,,,,,,,,,,,,,,,,,,,,,,,,,,,,,,,,,,,,,,,,,,,,,,,,,,,,,,,,,,,,,,,,,,,,,,,,,,,,,,,,,,,,,,,,,,,,,
,,,,,,60a5404314ae1a9d5b88565d,62bbfb17736a545fefd68a2c,2022-06-29_09h11.46.650,Colour_Asymmetry_Pilot,2022.1.3,Win32,59.9880024,62bbe60bf3d75ef465d3e404,0,101,101,66,1,twoone,,,,,,,,,,,,,,,,,,,,,,,,,,,,,,,,,,,,,,,,,,,,,,,,,,,,,,,,,,,,,,,,,,,,,,,,,,,,,,,,,,,,,,,,,,,,,,,,,,,,,,,,,,,,,,,,,,,,,,,,,,,,,,,,,,,,,,,,,,,,,,,,,,,,,,,,
,,,,,,60a5404314ae1a9d5b88565d,62bbfb17736a545fefd68a2c,2022-06-29_09h11.46.650,Colour_Asymmetry_Pilot,2022.1.3,Win32,59.9880024,62bbe60bf3d75ef465d3e404,0,102,102,132,1,threeone,,,,,,,,,,,,,,,,,,,,,,,,,,,,,,,,,,,,,,,,,,,,,,,,,,,,,,,,,,,,,,,,,,,,,,,,,,,,,,,,,,,,,,,,,,,,,,,,,,,,,,,,,,,,,,,,,,,,,,,,,,,,,,,,,,,,,,,,,,,,,,,,,,,,,,,,
,,,,,,60a5404314ae1a9d5b88565d,62bbfb17736a545fefd68a2c,2022-06-29_09h11.46.650,Colour_Asymmetry_Pilot,2022.1.3,Win32,59.9880024,62bbe60bf3d75ef465d3e404,0,103,103,24,1,onetwo,,,,,,,,,,,,,,,,,,,,,,,,,,,,,,,,,,,,,,,,,,,,,,,,,,,,,,,,,,,,,,,,,,,,,,,,,,,,,,,,,,,,,,,,,,,,,,,,,,,,,,,,,,,,,,,,,,,,,,,,,,,,,,,,,,,,,,,,,,,,,,,,,,,,,,,,
,,,,,,60a5404314ae1a9d5b88565d,62bbfb17736a545fefd68a2c,2022-06-29_09h11.46.650,Colour_Asymmetry_Pilot,2022.1.3,Win32,59.9880024,62bbe60bf3d75ef465d3e404,0,104,104,144,1,onetwo,,,,,,,,,,,,,,,,,,,,,,,,,,,,,,,,,,,,,,,,,,,,,,,,,,,,,,,,,,,,,,,,,,,,,,,,,,,,,,,,,,,,,,,,,,,,,,,,,,,,,,,,,,,,,,,,,,,,,,,,,,,,,,,,,,,,,,,,,,,,,,,,,,,,,,,,
,,,,,,60a5404314ae1a9d5b88565d,62bbfb17736a545fefd68a2c,2022-06-29_09h11.46.650,Colour_Asymmetry_Pilot,2022.1.3,Win32,59.9880024,62bbe60bf3d75ef465d3e404,0,105,105,48,1,onetwo,,,,,,,,,,,,,,,,,,,,,,,,,,,,,,,,,,,,,,,,,,,,,,,,,,,,,,,,,,,,,,,,,,,,,,,,,,,,,,,,,,,,,,,,,,,,,,,,,,,,,,,,,,,,,,,,,,,,,,,,,,,,,,,,,,,,,,,,,,,,,,,,,,,,,,,,
,,,,,,60a5404314ae1a9d5b88565d,62bbfb17736a545fefd68a2c,2022-06-29_09h11.46.650,Colour_Asymmetry_Pilot,2022.1.3,Win32,59.9880024,62bbe60bf3d75ef465d3e404,0,106,106,60,1,threeone,,,,,,,,,,,,,,,,,,,,,,,,,,,,,,,,,,,,,,,,,,,,,,,,,,,,,,,,,,,,,,,,,,,,,,,,,,,,,,,,,,,,,,,,,,,,,,,,,,,,,,,,,,,,,,,,,,,,,,,,,,,,,,,,,,,,,,,,,,,,,,,,,,,,,,,,
,,,,,,60a5404314ae1a9d5b88565d,62bbfb17736a545fefd68a2c,2022-06-29_09h11.46.650,Colour_Asymmetry_Pilot,2022.1.3,Win32,59.9880024,62bbe60bf3d75ef465d3e404,0,107,107,139,1,twofour,,,,,,,,,,,,,,,,,,,,,,,,,,,,,,,,,,,,,,,,,,,,,,,,,,,,,,,,,,,,,,,,,,,,,,,,,,,,,,,,,,,,,,,,,,,,,,,,,,,,,,,,,,,,,,,,,,,,,,,,,,,,,,,,,,,,,,,,,,,,,,,,,,,,,,,,
,,,,,,60a5404314ae1a9d5b88565d,62bbfb17736a545fefd68a2c,2022-06-29_09h11.46.650,Colour_Asymmetry_Pilot,2022.1.3,Win32,59.9880024,62bbe60bf3d75ef465d3e404,0,108,108,154,1,twoone,,,,,,,,,,,,,,,,,,,,,,,,,,,,,,,,,,,,,,,,,,,,,,,,,,,,,,,,,,,,,,,,,,,,,,,,,,,,,,,,,,,,,,,,,,,,,,,,,,,,,,,,,,,,,,,,,,,,,,,,,,,,,,,,,,,,,,,,,,,,,,,,,,,,,,,,
,,,,,,60a5404314ae1a9d5b88565d,62bbfb17736a545fefd68a2c,2022-06-29_09h11.46.650,Colour_Asymmetry_Pilot,2022.1.3,Win32,59.9880024,62bbe60bf3d75ef465d3e404,0,109,109,77,1,threefour,,,,,,,,,,,,,,,,,,,,,,,,,,,,,,,,,,,,,,,,,,,,,,,,,,,,,,,,,,,,,,,,,,,,,,,,,,,,,,,,,,,,,,,,,,,,,,,,,,,,,,,,,,,,,,,,,,,,,,,,,,,,,,,,,,,,,,,,,,,,,,,,,,,,,,,,
,,,,,,60a5404314ae1a9d5b88565d,62bbfb17736a545fefd68a2c,2022-06-29_09h11.46.650,Colour_Asymmetry_Pilot,2022.1.3,Win32,59.9880024,62bbe60bf3d75ef465d3e404,0,110,110,71,1,fourthree,,,,,,,,,,,,,,,,,,,,,,,,,,,,,,,,,,,,,,,,,,,,,,,,,,,,,,,,,,,,,,,,,,,,,,,,,,,,,,,,,,,,,,,,,,,,,,,,,,,,,,,,,,,,,,,,,,,,,,,,,,,,,,,,,,,,,,,,,,,,,,,,,,,,,,,,
,,,,,,60a5404314ae1a9d5b88565d,62bbfb17736a545fefd68a2c,2022-06-29_09h11.46.650,Colour_Asymmetry_Pilot,2022.1.3,Win32,59.9880024,62bbe60bf3d75ef465d3e404,0,111,111,20,1,threeone,,,,,,,,,,,,,,,,,,,,,,,,,,,,,,,,,,,,,,,,,,,,,,,,,,,,,,,,,,,,,,,,,,,,,,,,,,,,,,,,,,,,,,,,,,,,,,,,,,,,,,,,,,,,,,,,,,,,,,,,,,,,,,,,,,,,,,,,,,,,,,,,,,,,,,,,
,,,,,,60a5404314ae1a9d5b88565d,62bbfb17736a545fefd68a2c,2022-06-29_09h11.46.650,Colour_Asymmetry_Pilot,2022.1.3,Win32,59.9880024,62bbe60bf3d75ef465d3e404,0,112,112,62,1,fourtwo,,,,,,,,,,,,,,,,,,,,,,,,,,,,,,,,,,,,,,,,,,,,,,,,,,,,,,,,,,,,,,,,,,,,,,,,,,,,,,,,,,,,,,,,,,,,,,,,,,,,,,,,,,,,,,,,,,,,,,,,,,,,,,,,,,,,,,,,,,,,,,,,,,,,,,,,
,,,,,,60a5404314ae1a9d5b88565d,62bbfb17736a545fefd68a2c,2022-06-29_09h11.46.650,Colour_Asymmetry_Pilot,2022.1.3,Win32,59.9880024,62bbe60bf3d75ef465d3e404,0,113,113,59,1,twofour,,,,,,,,,,,,,,,,,,,,,,,,,,,,,,,,,,,,,,,,,,,,,,,,,,,,,,,,,,,,,,,,,,,,,,,,,,,,,,,,,,,,,,,,,,,,,,,,,,,,,,,,,,,,,,,,,,,,,,,,,,,,,,,,,,,,,,,,,,,,,,,,,,,,,,,,
,,,,,,60a5404314ae1a9d5b88565d,62bbfb17736a545fefd68a2c,2022-06-29_09h11.46.650,Colour_Asymmetry_Pilot,2022.1.3,Win32,59.9880024,62bbe60bf3d75ef465d3e404,0,114,114,107,1,twofour,,,,,,,,,,,,,,,,,,,,,,,,,,,,,,,,,,,,,,,,,,,,,,,,,,,,,,,,,,,,,,,,,,,,,,,,,,,,,,,,,,,,,,,,,,,,,,,,,,,,,,,,,,,,,,,,,,,,,,,,,,,,,,,,,,,,,,,,,,,,,,,,,,,,,,,,
,,,,,,60a5404314ae1a9d5b88565d,62bbfb17736a545fefd68a2c,2022-06-29_09h11.46.650,Colour_Asymmetry_Pilot,2022.1.3,Win32,59.9880024,62bbe60bf3d75ef465d3e404,0,115,115,108,1,threeone,,,,,,,,,,,,,,,,,,,,,,,,,,,,,,,,,,,,,,,,,,,,,,,,,,,,,,,,,,,,,,,,,,,,,,,,,,,,,,,,,,,,,,,,,,,,,,,,,,,,,,,,,,,,,,,,,,,,,,,,,,,,,,,,,,,,,,,,,,,,,,,,,,,,,,,,
,,,,,,60a5404314ae1a9d5b88565d,62bbfb17736a545fefd68a2c,2022-06-29_09h11.46.650,Colour_Asymmetry_Pilot,2022.1.3,Win32,59.9880024,62bbe60bf3d75ef465d3e404,0,116,116,93,1,threefour,,,,,,,,,,,,,,,,,,,,,,,,,,,,,,,,,,,,,,,,,,,,,,,,,,,,,,,,,,,,,,,,,,,,,,,,,,,,,,,,,,,,,,,,,,,,,,,,,,,,,,,,,,,,,,,,,,,,,,,,,,,,,,,,,,,,,,,,,,,,,,,,,,,,,,,,
,,,,,,60a5404314ae1a9d5b88565d,62bbfb17736a545fefd68a2c,2022-06-29_09h11.46.650,Colour_Asymmetry_Pilot,2022.1.3,Win32,59.9880024,62bbe60bf3d75ef465d3e404,0,117,117,118,1,fourtwo,,,,,,,,,,,,,,,,,,,,,,,,,,,,,,,,,,,,,,,,,,,,,,,,,,,,,,,,,,,,,,,,,,,,,,,,,,,,,,,,,,,,,,,,,,,,,,,,,,,,,,,,,,,,,,,,,,,,,,,,,,,,,,,,,,,,,,,,,,,,,,,,,,,,,,,,
,,,,,,60a5404314ae1a9d5b88565d,62bbfb17736a545fefd68a2c,2022-06-29_09h11.46.650,Colour_Asymmetry_Pilot,2022.1.3,Win32,59.9880024,62bbe60bf3d75ef465d3e404,0,118,118,128,1,onetwo,,,,,,,,,,,,,,,,,,,,,,,,,,,,,,,,,,,,,,,,,,,,,,,,,,,,,,,,,,,,,,,,,,,,,,,,,,,,,,,,,,,,,,,,,,,,,,,,,,,,,,,,,,,,,,,,,,,,,,,,,,,,,,,,,,,,,,,,,,,,,,,,,,,,,,,,
,,,,,,60a5404314ae1a9d5b88565d,62bbfb17736a545fefd68a2c,2022-06-29_09h11.46.650,Colour_Asymmetry_Pilot,2022.1.3,Win32,59.9880024,62bbe60bf3d75ef465d3e404,0,119,119,5,1,threefour,,,,,,,,,,,,,,,,,,,,,,,,,,,,,,,,,,,,,,,,,,,,,,,,,,,,,,,,,,,,,,,,,,,,,,,,,,,,,,,,,,,,,,,,,,,,,,,,,,,,,,,,,,,,,,,,,,,,,,,,,,,,,,,,,,,,,,,,,,,,,,,,,,,,,,,,
,,,,,,60a5404314ae1a9d5b88565d,62bbfb17736a545fefd68a2c,2022-06-29_09h11.46.650,Colour_Asymmetry_Pilot,2022.1.3,Win32,59.9880024,62bbe60bf3d75ef465d3e404,0,120,120,0,1,onetwo,,,,,,,,,,,,,,,,,,,,,,,,,,,,,,,,,,,,,,,,,,,,,,,,,,,,,,,,,,,,,,,,,,,,,,,,,,,,,,,,,,,,,,,,,,,,,,,,,,,,,,,,,,,,,,,,,,,,,,,,,,,,,,,,,,,,,,,,,,,,,,,,,,,,,,,,
,,,,,,60a5404314ae1a9d5b88565d,62bbfb17736a545fefd68a2c,2022-06-29_09h11.46.650,Colour_Asymmetry_Pilot,2022.1.3,Win32,59.9880024,62bbe60bf3d75ef465d3e404,0,121,121,109,1,threefour,,,,,,,,,,,,,,,,,,,,,,,,,,,,,,,,,,,,,,,,,,,,,,,,,,,,,,,,,,,,,,,,,,,,,,,,,,,,,,,,,,,,,,,,,,,,,,,,,,,,,,,,,,,,,,,,,,,,,,,,,,,,,,,,,,,,,,,,,,,,,,,,,,,,,,,,
,,,,,,60a5404314ae1a9d5b88565d,62bbfb17736a545fefd68a2c,2022-06-29_09h11.46.650,Colour_Asymmetry_Pilot,2022.1.3,Win32,59.9880024,62bbe60bf3d75ef465d3e404,0,122,122,80,1,onetwo,,,,,,,,,,,,,,,,,,,,,,,,,,,,,,,,,,,,,,,,,,,,,,,,,,,,,,,,,,,,,,,,,,,,,,,,,,,,,,,,,,,,,,,,,,,,,,,,,,,,,,,,,,,,,,,,,,,,,,,,,,,,,,,,,,,,,,,,,,,,,,,,,,,,,,,,
,,,,,,60a5404314ae1a9d5b88565d,62bbfb17736a545fefd68a2c,2022-06-29_09h11.46.650,Colour_Asymmetry_Pilot,2022.1.3,Win32,59.9880024,62bbe60bf3d75ef465d3e404,0,123,123,65,1,onethree,,,,,,,,,,,,,,,,,,,,,,,,,,,,,,,,,,,,,,,,,,,,,,,,,,,,,,,,,,,,,,,,,,,,,,,,,,,,,,,,,,,,,,,,,,,,,,,,,,,,,,,,,,,,,,,,,,,,,,,,,,,,,,,,,,,,,,,,,,,,,,,,,,,,,,,,
,,,,,,60a5404314ae1a9d5b88565d,62bbfb17736a545fefd68a2c,2022-06-29_09h11.46.650,Colour_Asymmetry_Pilot,2022.1.3,Win32,59.9880024,62bbe60bf3d75ef465d3e404,0,124,124,81,1,onethree,,,,,,,,,,,,,,,,,,,,,,,,,,,,,,,,,,,,,,,,,,,,,,,,,,,,,,,,,,,,,,,,,,,,,,,,,,,,,,,,,,,,,,,,,,,,,,,,,,,,,,,,,,,,,,,,,,,,,,,,,,,,,,,,,,,,,,,,,,,,,,,,,,,,,,,,
,,,,,,60a5404314ae1a9d5b88565d,62bbfb17736a545fefd68a2c,2022-06-29_09h11.46.650,Colour_Asymmetry_Pilot,2022.1.3,Win32,59.9880024,62bbe60bf3d75ef465d3e404,0,125,125,58,1,twoone,,,,,,,,,,,,,,,,,,,,,,,,,,,,,,,,,,,,,,,,,,,,,,,,,,,,,,,,,,,,,,,,,,,,,,,,,,,,,,,,,,,,,,,,,,,,,,,,,,,,,,,,,,,,,,,,,,,,,,,,,,,,,,,,,,,,,,,,,,,,,,,,,,,,,,,,
,,,,,,60a5404314ae1a9d5b88565d,62bbfb17736a545fefd68a2c,2022-06-29_09h11.46.650,Colour_Asymmetry_Pilot,2022.1.3,Win32,59.9880024,62bbe60bf3d75ef465d3e404,0,126,126,30,1,fourtwo,,,,,,,,,,,,,,,,,,,,,,,,,,,,,,,,,,,,,,,,,,,,,,,,,,,,,,,,,,,,,,,,,,,,,,,,,,,,,,,,,,,,,,,,,,,,,,,,,,,,,,,,,,,,,,,,,,,,,,,,,,,,,,,,,,,,,,,,,,,,,,,,,,,,,,,,
,,,,,,60a5404314ae1a9d5b88565d,62bbfb17736a545fefd68a2c,2022-06-29_09h11.46.650,Colour_Asymmetry_Pilot,2022.1.3,Win32,59.9880024,62bbe60bf3d75ef465d3e404,0,127,127,136,1,onetwo,,,,,,,,,,,,,,,,,,,,,,,,,,,,,,,,,,,,,,,,,,,,,,,,,,,,,,,,,,,,,,,,,,,,,,,,,,,,,,,,,,,,,,,,,,,,,,,,,,,,,,,,,,,,,,,,,,,,,,,,,,,,,,,,,,,,,,,,,,,,,,,,,,,,,,,,
,,,,,,60a5404314ae1a9d5b88565d,62bbfb17736a545fefd68a2c,2022-06-29_09h11.46.650,Colour_Asymmetry_Pilot,2022.1.3,Win32,59.9880024,62bbe60bf3d75ef465d3e404,0,128,128,43,1,twofour,,,,,,,,,,,,,,,,,,,,,,,,,,,,,,,,,,,,,,,,,,,,,,,,,,,,,,,,,,,,,,,,,,,,,,,,,,,,,,,,,,,,,,,,,,,,,,,,,,,,,,,,,,,,,,,,,,,,,,,,,,,,,,,,,,,,,,,,,,,,,,,,,,,,,,,,
,,,,,,60a5404314ae1a9d5b88565d,62bbfb17736a545fefd68a2c,2022-06-29_09h11.46.650,Colour_Asymmetry_Pilot,2022.1.3,Win32,59.9880024,62bbe60bf3d75ef465d3e404,0,129,129,85,1,threefour,,,,,,,,,,,,,,,,,,,,,,,,,,,,,,,,,,,,,,,,,,,,,,,,,,,,,,,,,,,,,,,,,,,,,,,,,,,,,,,,,,,,,,,,,,,,,,,,,,,,,,,,,,,,,,,,,,,,,,,,,,,,,,,,,,,,,,,,,,,,,,,,,,,,,,,,
,,,,,,60a5404314ae1a9d5b88565d,62bbfb17736a545fefd68a2c,2022-06-29_09h11.46.650,Colour_Asymmetry_Pilot,2022.1.3,Win32,59.9880024,62bbe60bf3d75ef465d3e404,0,130,130,117,1,threefour,,,,,,,,,,,,,,,,,,,,,,,,,,,,,,,,,,,,,,,,,,,,,,,,,,,,,,,,,,,,,,,,,,,,,,,,,,,,,,,,,,,,,,,,,,,,,,,,,,,,,,,,,,,,,,,,,,,,,,,,,,,,,,,,,,,,,,,,,,,,,,,,,,,,,,,,
,,,,,,60a5404314ae1a9d5b88565d,62bbfb17736a545fefd68a2c,2022-06-29_09h11.46.650,Colour_Asymmetry_Pilot,2022.1.3,Win32,59.9880024,62bbe60bf3d75ef465d3e404,0,131,131,64,1,onetwo,,,,,,,,,,,,,,,,,,,,,,,,,,,,,,,,,,,,,,,,,,,,,,,,,,,,,,,,,,,,,,,,,,,,,,,,,,,,,,,,,,,,,,,,,,,,,,,,,,,,,,,,,,,,,,,,,,,,,,,,,,,,,,,,,,,,,,,,,,,,,,,,,,,,,,,,
,,,,,,60a5404314ae1a9d5b88565d,62bbfb17736a545fefd68a2c,2022-06-29_09h11.46.650,Colour_Asymmetry_Pilot,2022.1.3,Win32,59.9880024,62bbe60bf3d75ef465d3e404,0,132,132,114,1,twoone,,,,,,,,,,,,,,,,,,,,,,,,,,,,,,,,,,,,,,,,,,,,,,,,,,,,,,,,,,,,,,,,,,,,,,,,,,,,,,,,,,,,,,,,,,,,,,,,,,,,,,,,,,,,,,,,,,,,,,,,,,,,,,,,,,,,,,,,,,,,,,,,,,,,,,,,
,,,,,,60a5404314ae1a9d5b88565d,62bbfb17736a545fefd68a2c,2022-06-29_09h11.46.650,Colour_Asymmetry_Pilot,2022.1.3,Win32,59.9880024,62bbe60bf3d75ef465d3e404,0,133,133,42,1,twoone,,,,,,,,,,,,,,,,,,,,,,,,,,,,,,,,,,,,,,,,,,,,,,,,,,,,,,,,,,,,,,,,,,,,,,,,,,,,,,,,,,,,,,,,,,,,,,,,,,,,,,,,,,,,,,,,,,,,,,,,,,,,,,,,,,,,,,,,,,,,,,,,,,,,,,,,
,,,,,,60a5404314ae1a9d5b88565d,62bbfb17736a545fefd68a2c,2022-06-29_09h11.46.650,Colour_Asymmetry_Pilot,2022.1.3,Win32,59.9880024,62bbe60bf3d75ef465d3e404,0,134,134,51,1,twofour,,,,,,,,,,,,,,,,,,,,,,,,,,,,,,,,,,,,,,,,,,,,,,,,,,,,,,,,,,,,,,,,,,,,,,,,,,,,,,,,,,,,,,,,,,,,,,,,,,,,,,,,,,,,,,,,,,,,,,,,,,,,,,,,,,,,,,,,,,,,,,,,,,,,,,,,
,,,,,,60a5404314ae1a9d5b88565d,62bbfb17736a545fefd68a2c,2022-06-29_09h11.46.650,Colour_Asymmetry_Pilot,2022.1.3,Win32,59.9880024,62bbe60bf3d75ef465d3e404,0,135,135,73,1,onethree,,,,,,,,,,,,,,,,,,,,,,,,,,,,,,,,,,,,,,,,,,,,,,,,,,,,,,,,,,,,,,,,,,,,,,,,,,,,,,,,,,,,,,,,,,,,,,,,,,,,,,,,,,,,,,,,,,,,,,,,,,,,,,,,,,,,,,,,,,,,,,,,,,,,,,,,
,,,,,,60a5404314ae1a9d5b88565d,62bbfb17736a545fefd68a2c,2022-06-29_09h11.46.650,Colour_Asymmetry_Pilot,2022.1.3,Win32,59.9880024,62bbe60bf3d75ef465d3e404,0,136,136,111,1,fourthree,,,,,,,,,,,,,,,,,,,,,,,,,,,,,,,,,,,,,,,,,,,,,,,,,,,,,,,,,,,,,,,,,,,,,,,,,,,,,,,,,,,,,,,,,,,,,,,,,,,,,,,,,,,,,,,,,,,,,,,,,,,,,,,,,,,,,,,,,,,,,,,,,,,,,,,,
,,,,,,60a5404314ae1a9d5b88565d,62bbfb17736a545fefd68a2c,2022-06-29_09h11.46.650,Colour_Asymmetry_Pilot,2022.1.3,Win32,59.9880024,62bbe60bf3d75ef465d3e404,0,137,137,112,1,onetwo,,,,,,,,,,,,,,,,,,,,,,,,,,,,,,,,,,,,,,,,,,,,,,,,,,,,,,,,,,,,,,,,,,,,,,,,,,,,,,,,,,,,,,,,,,,,,,,,,,,,,,,,,,,,,,,,,,,,,,,,,,,,,,,,,,,,,,,,,,,,,,,,,,,,,,,,
,,,,,,60a5404314ae1a9d5b88565d,62bbfb17736a545fefd68a2c,2022-06-29_09h11.46.650,Colour_Asymmetry_Pilot,2022.1.3,Win32,59.9880024,62bbe60bf3d75ef465d3e404,0,138,138,40,1,onetwo,,,,,,,,,,,,,,,,,,,,,,,,,,,,,,,,,,,,,,,,,,,,,,,,,,,,,,,,,,,,,,,,,,,,,,,,,,,,,,,,,,,,,,,,,,,,,,,,,,,,,,,,,,,,,,,,,,,,,,,,,,,,,,,,,,,,,,,,,,,,,,,,,,,,,,,,
,,,,,,60a5404314ae1a9d5b88565d,62bbfb17736a545fefd68a2c,2022-06-29_09h11.46.650,Colour_Asymmetry_Pilot,2022.1.3,Win32,59.9880024,62bbe60bf3d75ef465d3e404,0,139,139,21,1,threefour,,,,,,,,,,,,,,,,,,,,,,,,,,,,,,,,,,,,,,,,,,,,,,,,,,,,,,,,,,,,,,,,,,,,,,,,,,,,,,,,,,,,,,,,,,,,,,,,,,,,,,,,,,,,,,,,,,,,,,,,,,,,,,,,,,,,,,,,,,,,,,,,,,,,,,,,
,,,,,,60a5404314ae1a9d5b88565d,62bbfb17736a545fefd68a2c,2022-06-29_09h11.46.650,Colour_Asymmetry_Pilot,2022.1.3,Win32,59.9880024,62bbe60bf3d75ef465d3e404,0,140,140,14,1,fourtwo,,,,,,,,,,,,,,,,,,,,,,,,,,,,,,,,,,,,,,,,,,,,,,,,,,,,,,,,,,,,,,,,,,,,,,,,,,,,,,,,,,,,,,,,,,,,,,,,,,,,,,,,,,,,,,,,,,,,,,,,,,,,,,,,,,,,,,,,,,,,,,,,,,,,,,,,
,,,,,,60a5404314ae1a9d5b88565d,62bbfb17736a545fefd68a2c,2022-06-29_09h11.46.650,Colour_Asymmetry_Pilot,2022.1.3,Win32,59.9880024,62bbe60bf3d75ef465d3e404,0,141,141,39,1,fourthree,,,,,,,,,,,,,,,,,,,,,,,,,,,,,,,,,,,,,,,,,,,,,,,,,,,,,,,,,,,,,,,,,,,,,,,,,,,,,,,,,,,,,,,,,,,,,,,,,,,,,,,,,,,,,,,,,,,,,,,,,,,,,,,,,,,,,,,,,,,,,,,,,,,,,,,,
,,,,,,60a5404314ae1a9d5b88565d,62bbfb17736a545fefd68a2c,2022-06-29_09h11.46.650,Colour_Asymmetry_Pilot,2022.1.3,Win32,59.9880024,62bbe60bf3d75ef465d3e404,0,142,142,96,1,onetwo,,,,,,,,,,,,,,,,,,,,,,,,,,,,,,,,,,,,,,,,,,,,,,,,,,,,,,,,,,,,,,,,,,,,,,,,,,,,,,,,,,,,,,,,,,,,,,,,,,,,,,,,,,,,,,,,,,,,,,,,,,,,,,,,,,,,,,,,,,,,,,,,,,,,,,,,
,,,,,,60a5404314ae1a9d5b88565d,62bbfb17736a545fefd68a2c,2022-06-29_09h11.46.650,Colour_Asymmetry_Pilot,2022.1.3,Win32,59.9880024,62bbe60bf3d75ef465d3e404,0,143,143,130,1,twoone,,,,,,,,,,,,,,,,,,,,,,,,,,,,,,,,,,,,,,,,,,,,,,,,,,,,,,,,,,,,,,,,,,,,,,,,,,,,,,,,,,,,,,,,,,,,,,,,,,,,,,,,,,,,,,,,,,,,,,,,,,,,,,,,,,,,,,,,,,,,,,,,,,,,,,,,
,,,,,,60a5404314ae1a9d5b88565d,62bbfb17736a545fefd68a2c,2022-06-29_09h11.46.650,Colour_Asymmetry_Pilot,2022.1.3,Win32,59.9880024,62bbe60bf3d75ef465d3e404,0,144,144,11,1,twofour,,,,,,,,,,,,,,,,,,,,,,,,,,,,,,,,,,,,,,,,,,,,,,,,,,,,,,,,,,,,,,,,,,,,,,,,,,,,,,,,,,,,,,,,,,,,,,,,,,,,,,,,,,,,,,,,,,,,,,,,,,,,,,,,,,,,,,,,,,,,,,,,,,,,,,,,
,,,,,,60a5404314ae1a9d5b88565d,62bbfb17736a545fefd68a2c,2022-06-29_09h11.46.650,Colour_Asymmetry_Pilot,2022.1.3,Win32,59.9880024,62bbe60bf3d75ef465d3e404,0,145,145,44,1,threeone,,,,,,,,,,,,,,,,,,,,,,,,,,,,,,,,,,,,,,,,,,,,,,,,,,,,,,,,,,,,,,,,,,,,,,,,,,,,,,,,,,,,,,,,,,,,,,,,,,,,,,,,,,,,,,,,,,,,,,,,,,,,,,,,,,,,,,,,,,,,,,,,,,,,,,,,
,,,,,,60a5404314ae1a9d5b88565d,62bbfb17736a545fefd68a2c,2022-06-29_09h11.46.650,Colour_Asymmetry_Pilot,2022.1.3,Win32,59.9880024,62bbe60bf3d75ef465d3e404,0,146,146,47,1,fourthree,,,,,,,,,,,,,,,,,,,,,,,,,,,,,,,,,,,,,,,,,,,,,,,,,,,,,,,,,,,,,,,,,,,,,,,,,,,,,,,,,,,,,,,,,,,,,,,,,,,,,,,,,,,,,,,,,,,,,,,,,,,,,,,,,,,,,,,,,,,,,,,,,,,,,,,,
,,,,,,60a5404314ae1a9d5b88565d,62bbfb17736a545fefd68a2c,2022-06-29_09h11.46.650,Colour_Asymmetry_Pilot,2022.1.3,Win32,59.9880024,62bbe60bf3d75ef465d3e404,0,147,147,2,1,twoone,,,,,,,,,,,,,,,,,,,,,,,,,,,,,,,,,,,,,,,,,,,,,,,,,,,,,,,,,,,,,,,,,,,,,,,,,,,,,,,,,,,,,,,,,,,,,,,,,,,,,,,,,,,,,,,,,,,,,,,,,,,,,,,,,,,,,,,,,,,,,,,,,,,,,,,,
,,,,,,60a5404314ae1a9d5b88565d,62bbfb17736a545fefd68a2c,2022-06-29_09h11.46.650,Colour_Asymmetry_Pilot,2022.1.3,Win32,59.9880024,62bbe60bf3d75ef465d3e404,0,148,148,116,1,threeone,,,,,,,,,,,,,,,,,,,,,,,,,,,,,,,,,,,,,,,,,,,,,,,,,,,,,,,,,,,,,,,,,,,,,,,,,,,,,,,,,,,,,,,,,,,,,,,,,,,,,,,,,,,,,,,,,,,,,,,,,,,,,,,,,,,,,,,,,,,,,,,,,,,,,,,,
,,,,,,60a5404314ae1a9d5b88565d,62bbfb17736a545fefd68a2c,2022-06-29_09h11.46.650,Colour_Asymmetry_Pilot,2022.1.3,Win32,59.9880024,62bbe60bf3d75ef465d3e404,0,149,149,143,1,fourthree,,,,,,,,,,,,,,,,,,,,,,,,,,,,,,,,,,,,,,,,,,,,,,,,,,,,,,,,,,,,,,,,,,,,,,,,,,,,,,,,,,,,,,,,,,,,,,,,,,,,,,,,,,,,,,,,,,,,,,,,,,,,,,,,,,,,,,,,,,,,,,,,,,,,,,,,
,,,,,,60a5404314ae1a9d5b88565d,62bbfb17736a545fefd68a2c,2022-06-29_09h11.46.650,Colour_Asymmetry_Pilot,2022.1.3,Win32,59.9880024,62bbe60bf3d75ef465d3e404,0,150,150,89,1,onethree,,,,,,,,,,,,,,,,,,,,,,,,,,,,,,,,,,,,,,,,,,,,,,,,,,,,,,,,,,,,,,,,,,,,,,,,,,,,,,,,,,,,,,,,,,,,,,,,,,,,,,,,,,,,,,,,,,,,,,,,,,,,,,,,,,,,,,,,,,,,,,,,,,,,,,,,
,,,,,,60a5404314ae1a9d5b88565d,62bbfb17736a545fefd68a2c,2022-06-29_09h11.46.650,Colour_Asymmetry_Pilot,2022.1.3,Win32,59.9880024,62bbe60bf3d75ef465d3e404,0,151,151,33,1,onethree,,,,,,,,,,,,,,,,,,,,,,,,,,,,,,,,,,,,,,,,,,,,,,,,,,,,,,,,,,,,,,,,,,,,,,,,,,,,,,,,,,,,,,,,,,,,,,,,,,,,,,,,,,,,,,,,,,,,,,,,,,,,,,,,,,,,,,,,,,,,,,,,,,,,,,,,
,,,,,,60a5404314ae1a9d5b88565d,62bbfb17736a545fefd68a2c,2022-06-29_09h11.46.650,Colour_Asymmetry_Pilot,2022.1.3,Win32,59.9880024,62bbe60bf3d75ef465d3e404,0,152,152,15,1,fourthree,,,,,,,,,,,,,,,,,,,,,,,,,,,,,,,,,,,,,,,,,,,,,,,,,,,,,,,,,,,,,,,,,,,,,,,,,,,,,,,,,,,,,,,,,,,,,,,,,,,,,,,,,,,,,,,,,,,,,,,,,,,,,,,,,,,,,,,,,,,,,,,,,,,,,,,,
,,,,,,60a5404314ae1a9d5b88565d,62bbfb17736a545fefd68a2c,2022-06-29_09h11.46.650,Colour_Asymmetry_Pilot,2022.1.3,Win32,59.9880024,62bbe60bf3d75ef465d3e404,0,153,153,38,1,fourtwo,,,,,,,,,,,,,,,,,,,,,,,,,,,,,,,,,,,,,,,,,,,,,,,,,,,,,,,,,,,,,,,,,,,,,,,,,,,,,,,,,,,,,,,,,,,,,,,,,,,,,,,,,,,,,,,,,,,,,,,,,,,,,,,,,,,,,,,,,,,,,,,,,,,,,,,,
,,,,,,60a5404314ae1a9d5b88565d,62bbfb17736a545fefd68a2c,2022-06-29_09h11.46.650,Colour_Asymmetry_Pilot,2022.1.3,Win32,59.9880024,62bbe60bf3d75ef465d3e404,0,154,154,142,1,fourtwo,,,,,,,,,,,,,,,,,,,,,,,,,,,,,,,,,,,,,,,,,,,,,,,,,,,,,,,,,,,,,,,,,,,,,,,,,,,,,,,,,,,,,,,,,,,,,,,,,,,,,,,,,,,,,,,,,,,,,,,,,,,,,,,,,,,,,,,,,,,,,,,,,,,,,,,,
,,,,,,60a5404314ae1a9d5b88565d,62bbfb17736a545fefd68a2c,2022-06-29_09h11.46.650,Colour_Asymmetry_Pilot,2022.1.3,Win32,59.9880024,62bbe60bf3d75ef465d3e404,0,155,155,29,1,threefour,,,,,,,,,,,,,,,,,,,,,,,,,,,,,,,,,,,,,,,,,,,,,,,,,,,,,,,,,,,,,,,,,,,,,,,,,,,,,,,,,,,,,,,,,,,,,,,,,,,,,,,,,,,,,,,,,,,,,,,,,,,,,,,,,,,,,,,,,,,,,,,,,,,,,,,,
,,,,,,60a5404314ae1a9d5b88565d,62bbfb17736a545fefd68a2c,2022-06-29_09h11.46.650,Colour_Asymmetry_Pilot,2022.1.3,Win32,59.9880024,62bbe60bf3d75ef465d3e404,0,156,156,69,1,threefour,,,,,,,,,,,,,,,,,,,,,,,,,,,,,,,,,,,,,,,,,,,,,,,,,,,,,,,,,,,,,,,,,,,,,,,,,,,,,,,,,,,,,,,,,,,,,,,,,,,,,,,,,,,,,,,,,,,,,,,,,,,,,,,,,,,,,,,,,,,,,,,,,,,,,,,,
,,,,,,60a5404314ae1a9d5b88565d,62bbfb17736a545fefd68a2c,2022-06-29_09h11.46.650,Colour_Asymmetry_Pilot,2022.1.3,Win32,59.9880024,62bbe60bf3d75ef465d3e404,0,157,157,37,1,threefour,,,,,,,,,,,,,,,,,,,,,,,,,,,,,,,,,,,,,,,,,,,,,,,,,,,,,,,,,,,,,,,,,,,,,,,,,,,,,,,,,,,,,,,,,,,,,,,,,,,,,,,,,,,,,,,,,,,,,,,,,,,,,,,,,,,,,,,,,,,,,,,,,,,,,,,,
,,,,,,60a5404314ae1a9d5b88565d,62bbfb17736a545fefd68a2c,2022-06-29_09h11.46.650,Colour_Asymmetry_Pilot,2022.1.3,Win32,59.9880024,62bbe60bf3d75ef465d3e404,0,158,158,127,1,fourthree,,,,,,,,,,,,,,,,,,,,,,,,,,,,,,,,,,,,,,,,,,,,,,,,,,,,,,,,,,,,,,,,,,,,,,,,,,,,,,,,,,,,,,,,,,,,,,,,,,,,,,,,,,,,,,,,,,,,,,,,,,,,,,,,,,,,,,,,,,,,,,,,,,,,,,,,
,,,,,,60a5404314ae1a9d5b88565d,62bbfb17736a545fefd68a2c,2022-06-29_09h11.46.650,Colour_Asymmetry_Pilot,2022.1.3,Win32,59.9880024,62bbe60bf3d75ef465d3e404,0,159,159,147,1,twofour,,,,,,,,,,,,,,,,,,,,,,,,,,,,,,,,,,,,,,,,,,,,,,,,,,,,,,,,,,,,,,,,,,,,,,,,,,,,,,,,,,,,,,,,,,,,,,,,,,,,,,,,,,,,,,,,,,,,,,,,,,,,,,,,,,,,,,,,,,,,,,,,,,,,,,,,
,,,,,,60a5404314ae1a9d5b88565d,62bbfb17736a545fefd68a2c,2022-06-29_09h11.46.650,Colour_Asymmetry_Pilot,2022.1.3,Win32,59.9880024,62bbe60bf3d75ef465d3e404,0,160,160,121,1,onethree,,,,,,,,,,,,,,,,,,,,,,,,,,,,,,,,,,,,,,,,,,,,,,,,,,,,,,,,,,,,,,,,,,,,,,,,,,,,,,,,,,,,,,,,,,,,,,,,,,,,,,,,,,,,,,,,,,,,,,,,,,,,,,,,,,,,,,,,,,,,,,,,,,,,,,,,
,,,,,,60a5404314ae1a9d5b88565d,62bbfb17736a545fefd68a2c,2022-06-29_09h11.46.650,Colour_Asymmetry_Pilot,2022.1.3,Win32,59.9880024,62bbe60bf3d75ef465d3e404,0,161,161,72,1,onetwo,,,,,,,,,,,,,,,,,,,,,,,,,,,,,,,,,,,,,,,,,,,,,,,,,,,,,,,,,,,,,,,,,,,,,,,,,,,,,,,,,,,,,,,,,,,,,,,,,,,,,,,,,,,,,,,,,,,,,,,,,,,,,,,,,,,,,,,,,,,,,,,,,,,,,,,,
,,,,,,60a5404314ae1a9d5b88565d,62bbfb17736a545fefd68a2c,2022-06-29_09h11.46.650,Colour_Asymmetry_Pilot,2022.1.3,Win32,59.9880024,62bbe60bf3d75ef465d3e404,,,,,,,space,5.4789,space,16.3223,space,43.4168,space,17.1324,space,5.5256,space,7.1746,"[0.9763999999999999,-0.1137999999999999,-0.6314]",onethree,"[0.7176,-0.906,-0.6864]",3,24.8677,97.60003662,44.79998779,1,0,0,response1disk_5,4,1.600006104,1,0,0,rectangle_8,4,1.600006104,1,0,0,4,4,1.600006104,1,0,0,0,0,0,0,1,,,,,,,,,,,,,,,,,,,,,,,,,,,,,,,,,,,,,,,,,,,,,,,,,,,,,,,,,,,,,,,,,,,,,,,,,,,,,,,,,,,,,,,,,,,,,,,,,,,,,,,,,,,
,,,,,,60a5404314ae1a9d5b88565d,62bbfb17736a545fefd68a2c,2022-06-29_09h11.46.650,Colour_Asymmetry_Pilot,2022.1.3,Win32,59.9880024,62bbe60bf3d75ef465d3e404,,,,,,,,,,,,,,,,,,,"[0.8115999999999999,-0.0040000000000000036,-0.09819999999999995]",fourthree,"[0.40379999999999994,0.09000000000000008,0.44300000000000006]",-4,7.4215,-44.79998779,106.3999939,1,0,0,response7disk_5,-5.599975586,-2.399993896,1,0,0,rectangle_8,-5.599975586,-2.399993896,1,0,0,4,-5.599975586,-2.399993896,1,0,0,1,0,1,0,1,,,,,,,,,,,,,,,,,,,,,,,,,,,,,,,,,,,,,,,,,,,,,,,,,,,,,,,,,,,,,,,,,,,,,,,,,,,,,,,,,,,,,,,,,,,,,,,,,,,,,,,,,,,
,,,,,,60a5404314ae1a9d5b88565d,62bbfb17736a545fefd68a2c,2022-06-29_09h11.46.650,Colour_Asymmetry_Pilot,2022.1.3,Win32,59.9880024,62bbe60bf3d75ef465d3e404,,,,,,,,,,,,,,,,,,,"[0.6547999999999998,-0.043199999999999905,-0.011800000000000033]",fourtwo,"[-0.4902000000000001,0.2704,-0.45899999999999996]",-4,3.4633,-43.20001221,72.79998779,1,0,0,response7disk_5,-17.59997559,0.799987793,1,0,0,rectangle_8,35.20001221,95.19998169,1,0,0,4,12,0,1,0,0,2,0,2,0,1,response1disk_7,7,rectangle_4,,,,,,,,,,,,,,,,,,,,,,,,,,,,,,,,,,,,,,,,,,,,,,,,,,,,,,,,,,,,,,,,,,,,,,,,,,,,,,,,,,,,,,,,,,,,,,,,,,,,,,,,
,,,,,,60a5404314ae1a9d5b88565d,62bbfb17736a545fefd68a2c,2022-06-29_09h11.46.650,Colour_Asymmetry_Pilot,2022.1.3,Win32,59.9880024,62bbe60bf3d75ef465d3e404,,,,,,,,,,,,,,,,,,,"[0.19199999999999995,0.18419999999999992,0.5136000000000001]",onethree,"[-0.38039999999999996,-0.4276,-0.1452]",2,4.8163,68.79998779,-39.20001221,1,0,0,response3disk_5,3.200012207,-1.600006104,1,0,0,rectangle_8,3.200012207,-1.600006104,1,0,0,4,3.200012207,-1.600006104,1,0,0,3,0,3,0,1,,,,,,,,,,,,,,,,,,,,,,,,,,,,,,,,,,,,,,,,,,,,,,,,,,,,,,,,,,,,,,,,,,,,,,,,,,,,,,,,,,,,,,,,,,,,,,,,,,,,,,,,,,,
,,,,,,60a5404314ae1a9d5b88565d,62bbfb17736a545fefd68a2c,2022-06-29_09h11.46.650,Colour_Asymmetry_Pilot,2022.1.3,Win32,59.9880024,62bbe60bf3d75ef465d3e404,,,,,,,,,,,,,,,,,,,"[0.796,0.2156,-0.27859999999999996]",onethree,"[0.7802,-0.23140000000000005,-0.20799999999999996]",2,6.3982,80.79998779,-44,1,0,0,response3disk_5,8.799987793,-2.399993896,1,0,0,rectangle_8,8.799987793,-2.399993896,1,0,0,4,8.799987793,-2.399993896,1,0,0,4,0,4,0,1,,,,,,,,,,,,,,,,,,,,,,,,,,,,,,,,,,,,,,,,,,,,,,,,,,,,,,,,,,,,,,,,,,,,,,,,,,,,,,,,,,,,,,,,,,,,,,,,,,,,,,,,,,,
,,,,,,60a5404314ae1a9d5b88565d,62bbfb17736a545fefd68a2c,2022-06-29_09h11.46.650,Colour_Asymmetry_Pilot,2022.1.3,Win32,59.9880024,62bbe60bf3d75ef465d3e404,,,,,,,,,,,,,,,,,,,"[0.0351999999999999,0.41159999999999997,0.0038000000000000256]",fourtwo,"[0.8274000000000001,-0.5844,-0.9452]",4,4.262,46.40002441,101.6000061,1,0,0,response1disk_5,8.799987793,-6.399993896,1,0,0,rectangle_8,30.40002441,76.79998779,1,0,0,4,11.20001221,5.600006104,1,0,0,5,0,5,0,1,response1disk_7,7,rectangle_4,,,,,,,,,,,,,,,,,,,,,,,,,,,,,,,,,,,,,,,,,,,,,,,,,,,,,,,,,,,,,,,,,,,,,,,,,,,,,,,,,,,,,,,,,,,,,,,,,,,,,,,,
,,,,,,60a5404314ae1a9d5b88565d,62bbfb17736a545fefd68a2c,2022-06-29_09h11.46.650,Colour_Asymmetry_Pilot,2022.1.3,Win32,59.9880024,62bbe60bf3d75ef465d3e404,,,,,,,,,,,,,,,,,,,"[-0.07459999999999989,0.12139999999999995,-0.9922]",threeone,"[0.8115999999999999,-0.0040000000000000036,-0.09819999999999995]",-3,3.7629,-71.20001221,25.6000061,1,0,0,response7disk_5,-12.79998779,-10.3999939,1,0,0,rectangle_8,-12.79998779,-10.3999939,1,0,0,4,-12.79998779,-10.3999939,1,0,0,6,0,6,0,1,,,,,,,,,,,,,,,,,,,,,,,,,,,,,,,,,,,,,,,,,,,,,,,,,,,,,,,,,,,,,,,,,,,,,,,,,,,,,,,,,,,,,,,,,,,,,,,,,,,,,,,,,,,
,,,,,,60a5404314ae1a9d5b88565d,62bbfb17736a545fefd68a2c,2022-06-29_09h11.46.650,Colour_Asymmetry_Pilot,2022.1.3,Win32,59.9880024,62bbe60bf3d75ef465d3e404,,,,,,,,,,,,,,,,,,,,threefour,,-2,3.9169,,,,,,,,,,,,,,,,,,,,,,,,,,,,,,,,space,4.8319,"[0.04299999999999993,0.16060000000000008,-0.6628000000000001]","[-0.17659999999999998,0.3253999999999999,0.19999999999999996]",-79.20001221,-49.6000061,1,0,0,response5disk,-7.200012207,0,1,0,0,rectangle,44,-114.4000244,1,0,0,response3disk_3,1,1,4.4327,1,7.200012207,3.199981689,1,0,0,rectangle,0,0,0,55,1,55,first,,,,,,,,,,,,,,,,,,,,,,,,,,,,,,,,,,,,,,,,,,,,,,,,,,,,,,,,,,,,,,,,,
,,,,,,60a5404314ae1a9d5b88565d,62bbfb17736a545fefd68a2c,2022-06-29_09h11.46.650,Colour_Asymmetry_Pilot,2022.1.3,Win32,59.9880024,62bbe60bf3d75ef465d3e404,,,,,,,,,,,,,,,,,,,,twoone,,4,5.9286,,,,,,,,,,,,,,,,,,,,,,,,,,,,,,,,,,"[-0.10599999999999998,-0.15300000000000002,0.15280000000000005]","[-0.9766,-0.6472,0.07440000000000002]",49.60003662,76.79998779,1,0,0,response1disk,19.20001221,2.399993896,1,0,0,rectangle,78.40002441,25.6000061,1,0,0,response1disk_3,3,3,3.1723,1,15.20001221,-7.200012207,1,0,0,rectangle,0,1,1,159,1,78,second,,,,,,,,,,,,,,,,,,,,,,,,,,,,,,,,,,,,,,,,,,,,,,,,,,,,,,,,,,,,,,,,,
,,,,,,60a5404314ae1a9d5b88565d,62bbfb17736a545fefd68a2c,2022-06-29_09h11.46.650,Colour_Asymmetry_Pilot,2022.1.3,Win32,59.9880024,62bbe60bf3d75ef465d3e404,,,,,,,,,,,,,,,,,,,,fourthree,,-2,8.1802,,,,,,,,,,,,,,,,,,,,,,,,,,,,,,,,,,"[0.9842,0.7409999999999999,-0.6628000000000001]","[0.7802,-0.23140000000000005,-0.20799999999999996]",-70.39996338,-33.6000061,1,0,0,response5disk,-2.399963379,10.3999939,1,0,0,rectangle,-2.399963379,10.3999939,1,0,0,,3,2,0.0009,0,-2.399963379,10.3999939,1,0,0,,0,2,2,63,1,63,first,,,,,,,,,,,,,,,,,,,,,,,,,,,,,,,,,,,,,,,,,,,,,,,,,,,,,,,,,,,,,,,,,
,,,,,,60a5404314ae1a9d5b88565d,62bbfb17736a545fefd68a2c,2022-06-29_09h11.46.650,Colour_Asymmetry_Pilot,2022.1.3,Win32,59.9880024,62bbe60bf3d75ef465d3e404,,,,,,,,,,,,,,,,,,,,fourthree,,-3,5.1844,,,,,,,,,,,,,,,,,,,,,,,,,,,,,,,,,,"[-0.01980000000000004,-0.5138,-0.38039999999999996]","[-0.9766,-0.34920000000000007,0.2156]",-72,43.19998169,1,0,0,response7disk,-4.799987793,-1.600006104,1,0,0,rectangle,74.40002441,42.3999939,1,0,0,response1disk_3,3,3,3.7709,1,16,4.799987793,1,0,0,rectangle,0,3,3,160,1,79,second,,,,,,,,,,,,,,,,,,,,,,,,,,,,,,,,,,,,,,,,,,,,,,,,,,,,,,,,,,,,,,,,,
,,,,,,60a5404314ae1a9d5b88565d,62bbfb17736a545fefd68a2c,2022-06-29_09h11.46.650,Colour_Asymmetry_Pilot,2022.1.3,Win32,59.9880024,62bbe60bf3d75ef465d3e404,,,,,,,,,,,,,,,,,,,,fourtwo,,-2,3.1082,,,,,,,,,,,,,,,,,,,,,,,,,,,,,,,,,,"[-0.2942,-0.24719999999999998,-0.357]","[-0.9296,-0.12959999999999994,-0.043199999999999905]",-64.79998779,-28.80001831,1,0,0,response5disk,-4,-2.399993896,1,0,0,rectangle,-4,-2.399993896,1,0,0,,3,1,0.0018,0,-4,-2.399993896,1,0,0,,0,4,4,12,1,12,first,,,,,,,,,,,,,,,,,,,,,,,,,,,,,,,,,,,,,,,,,,,,,,,,,,,,,,,,,,,,,,,,,
,,,,,,60a5404314ae1a9d5b88565d,62bbfb17736a545fefd68a2c,2022-06-29_09h11.46.650,Colour_Asymmetry_Pilot,2022.1.3,Win32,59.9880024,62bbe60bf3d75ef465d3e404,,,,,,,,,,,,,,,,,,,,fourthree,,-3,3.2968,,,,,,,,,,,,,,,,,,,,,,,,,,,,,,,,,,"[0.11359999999999992,0.6312,0.5213999999999999]","[0.18419999999999992,-0.4276,-0.404]",-65.59997559,24.79998779,1,0,0,response7disk,-6.399963379,4.799987793,1,0,0,rectangle,-6.399963379,4.799987793,1,0,0,,3,3,0.0019,0,-6.399963379,4.799987793,1,0,0,,0,5,5,133,1,52,second,,,,,,,,,,,,,,,,,,,,,,,,,,,,,,,,,,,,,,,,,,,,,,,,,,,,,,,,,,,,,,,,,
,,,,,,60a5404314ae1a9d5b88565d,62bbfb17736a545fefd68a2c,2022-06-29_09h11.46.650,Colour_Asymmetry_Pilot,2022.1.3,Win32,59.9880024,62bbe60bf3d75ef465d3e404,,,,,,,,,,,,,,,,,,,,onethree,,-2,2.5679,,,,,,,,,,,,,,,,,,,,,,,,,,,,,,,,,,"[-0.0040000000000000036,0.02739999999999987,-0.08239999999999992]","[-0.5452,-0.608,0.2470000000000001]",-75.20001221,-48.80001831,1,0,0,response5disk,-6.399963379,0,1,0,0,rectangle,-6.399963379,0,1,0,0,,3,1,0.0007,0,-6.399963379,0,1,0,0,,0,6,6,71,1,71,first,,,,,,,,,,,,,,,,,,,,,,,,,,,,,,,,,,,,,,,,,,,,,,,,,,,,,,,,,,,,,,,,,
,,,,,,60a5404314ae1a9d5b88565d,62bbfb17736a545fefd68a2c,2022-06-29_09h11.46.650,Colour_Asymmetry_Pilot,2022.1.3,Win32,59.9880024,62bbe60bf3d75ef465d3e404,,,,,,,,,,,,,,,,,,,,fourthree,,-4,1.5821,,,,,,,,,,,,,,,,,,,,,,,,,,,,,,,,,,"[-0.8118,-0.8198,-0.5452]","[-0.24719999999999998,0.5213999999999999,-0.12959999999999994]",-47.20001221,85.6000061,1,0,0,response7disk,0,0.799987793,1,0,0,rectangle,0,0.799987793,1,0,0,,3,3,0.0009,0,0,0.799987793,1,0,0,,0,7,7,156,1,75,second,,,,,,,,,,,,,,,,,,,,,,,,,,,,,,,,,,,,,,,,,,,,,,,,,,,,,,,,,,,,,,,,,
,,,,,,60a5404314ae1a9d5b88565d,62bbfb17736a545fefd68a2c,2022-06-29_09h11.46.650,Colour_Asymmetry_Pilot,2022.1.3,Win32,59.9880024,62bbe60bf3d75ef465d3e404,,,,,,,,,,,,,,,,,,,,threeone,,-3,1.2266,,,,,,,,,,,,,,,,,,,,,,,,,,,,,,,,,,"[-0.4276,0.0038000000000000256,-0.3256]","[0.9372,0.20779999999999998,0.2704]",-47.20001221,28.79998779,1,0,0,response7disk,-1.599975586,-8.800018311,1,0,0,rectangle,-1.599975586,-8.800018311,1,0,0,,3,1,0.0008,0,-1.599975586,-8.800018311,1,0,0,,0,8,8,111,1,30,second,,,,,,,,,,,,,,,,,,,,,,,,,,,,,,,,,,,,,,,,,,,,,,,,,,,,,,,,,,,,,,,,,
,,,,,,60a5404314ae1a9d5b88565d,62bbfb17736a545fefd68a2c,2022-06-29_09h11.46.650,Colour_Asymmetry_Pilot,2022.1.3,Win32,59.9880024,62bbe60bf3d75ef465d3e404,,,,,,,,,,,,,,,,,,,,threefour,,-4,1.0944,,,,,,,,,,,,,,,,,,,,,,,,,,,,,,,,,,"[-0.26280000000000003,-0.4746,-0.2158]","[0.9763999999999999,0.30979999999999985,-0.6786]",-49.59997559,68,1,0,0,response7disk,-6.399963379,12,1,0,0,rectangle,-6.399963379,12,1,0,0,,3,3,0.0028,0,-6.399963379,12,1,0,0,,0,9,9,67,1,67,first,,,,,,,,,,,,,,,,,,,,,,,,,,,,,,,,,,,,,,,,,,,,,,,,,,,,,,,,,,,,,,,,,
,,,,,,60a5404314ae1a9d5b88565d,62bbfb17736a545fefd68a2c,2022-06-29_09h11.46.650,Colour_Asymmetry_Pilot,2022.1.3,Win32,59.9880024,62bbe60bf3d75ef465d3e404,,,,,,,,,,,,,,,,,,,,threefour,,-3,0.8993,,,,,,,,,,,,,,,,,,,,,,,,,,,,,,,,,,"[0.9763999999999999,0.30979999999999985,-0.6786]","[-0.17659999999999998,-0.2864,-0.8354]",-71.20001221,44,1,0,0,response7disk,1.600036621,-4,1,0,0,rectangle,1.600036621,-4,1,0,0,,3,3,0.0003,0,1.600036621,-4,1,0,0,,0,10,10,99,1,18,second,,,,,,,,,,,,,,,,,,,,,,,,,,,,,,,,,,,,,,,,,,,,,,,,,,,,,,,,,,,,,,,,,
,,,,,,60a5404314ae1a9d5b88565d,62bbfb17736a545fefd68a2c,2022-06-29_09h11.46.650,Colour_Asymmetry_Pilot,2022.1.3,Win32,59.9880024,62bbe60bf3d75ef465d3e404,,,,,,,,,,,,,,,,,,,,threefour,,-2,1.8048,,,,,,,,,,,,,,,,,,,,,,,,,,,,,,,,,,"[0.37240000000000006,-0.050999999999999934,-0.5216]","[0.6625999999999999,0.4980000000000002,-0.357]",-64.79998779,-35.20001221,1,0,0,response5disk,-20,-4.800018311,1,0,0,rectangle,-20,-4.800018311,1,0,0,,3,2,0.0007,0,-20,-4.800018311,1,0,0,,0,11,11,107,1,26,second,,,,,,,,,,,,,,,,,,,,,,,,,,,,,,,,,,,,,,,,,,,,,,,,,,,,,,,,,,,,,,,,,
,,,,,,60a5404314ae1a9d5b88565d,62bbfb17736a545fefd68a2c,2022-06-29_09h11.46.650,Colour_Asymmetry_Pilot,2022.1.3,Win32,59.9880024,62bbe60bf3d75ef465d3e404,,,,,,,,,,,,,,,,,,,,fourtwo,,-2,2.9979,,,,,,,,,,,,,,,,,,,,,,,,,,,,,,,,,,"[0.37240000000000006,0.4980000000000002,-0.2864]","[0.18419999999999992,-0.4276,-0.404]",-71.20001221,-48,1,0,0,response5disk,-5.599975586,-1.600006104,1,0,0,rectangle,-5.599975586,-1.600006104,1,0,0,,3,2,0.0014,0,-5.599975586,-1.600006104,1,0,0,,0,12,12,157,1,76,second,,,,,,,,,,,,,,,,,,,,,,,,,,,,,,,,,,,,,,,,,,,,,,,,,,,,,,,,,,,,,,,,,
,,,,,,60a5404314ae1a9d5b88565d,62bbfb17736a545fefd68a2c,2022-06-29_09h11.46.650,Colour_Asymmetry_Pilot,2022.1.3,Win32,59.9880024,62bbe60bf3d75ef465d3e404,,,,,,,,,,,,,,,,,,,,onetwo,,-4,1.1149,,,,,,,,,,,,,,,,,,,,,,,,,,,,,,,,,,"[-0.9688,-0.7412000000000001,-0.4902000000000001]","[0.34099999999999997,0.12939999999999996,-0.9766]",-58.39996338,94.3999939,1,0,0,response7disk,7.200012207,0.799987793,1,0,0,rectangle,7.200012207,0.799987793,1,0,0,,3,1,0.0017,0,7.200012207,0.799987793,1,0,0,,0,13,13,138,1,57,second,,,,,,,,,,,,,,,,,,,,,,,,,,,,,,,,,,,,,,,,,,,,,,,,,,,,,,,,,,,,,,,,,
,,,,,,60a5404314ae1a9d5b88565d,62bbfb17736a545fefd68a2c,2022-06-29_09h11.46.650,Colour_Asymmetry_Pilot,2022.1.3,Win32,59.9880024,62bbe60bf3d75ef465d3e404,,,,,,,,,,,,,,,,,,,,onethree,,-3,2.864,,,,,,,,,,,,,,,,,,,,,,,,,,,,,,,,,,"[-0.0040000000000000036,0.02739999999999987,-0.08239999999999992]","[0.7176,-0.906,-0.6864]",-86.39996338,25.6000061,1,0,0,response7disk,-9.599975586,-7.200012207,1,0,0,rectangle,-9.599975586,-7.200012207,1,0,0,,3,2,0.0017,0,-9.599975586,-7.200012207,1,0,0,,0,14,14,118,1,37,second,,,,,,,,,,,,,,,,,,,,,,,,,,,,,,,,,,,,,,,,,,,,,,,,,,,,,,,,,,,,,,,,,
,,,,,,60a5404314ae1a9d5b88565d,62bbfb17736a545fefd68a2c,2022-06-29_09h11.46.650,Colour_Asymmetry_Pilot,2022.1.3,Win32,59.9880024,62bbe60bf3d75ef465d3e404,,,,,,,,,,,,,,,,,,,,twofour,,-4,1.7635,,,,,,,,,,,,,,,,,,,,,,,,,,,,,,,,,,"[-0.48240000000000005,0.3175999999999999,0.2156]","[0.5449999999999999,-0.31000000000000005,-0.0354000000000001]",-44,64.79998779,1,0,0,response7disk,-16,-2.399993896,1,0,0,rectangle,-16,-2.399993896,1,0,0,,3,2,0.0005,0,-16,-2.399993896,1,0,0,,0,15,15,127,1,46,second,,,,,,,,,,,,,,,,,,,,,,,,,,,,,,,,,,,,,,,,,,,,,,,,,,,,,,,,,,,,,,,,,
,,,,,,60a5404314ae1a9d5b88565d,62bbfb17736a545fefd68a2c,2022-06-29_09h11.46.650,Colour_Asymmetry_Pilot,2022.1.3,Win32,59.9880024,62bbe60bf3d75ef465d3e404,,,,,,,,,,,,,,,,,,,,fourtwo,,-3,1.2161,,,,,,,,,,,,,,,,,,,,,,,,,,,,,,,,,,"[0.7802,-0.23140000000000005,-0.20799999999999996]","[0.9842,0.7409999999999999,-0.6628000000000001]",-65.59997559,31.19998169,1,0,0,response7disk,-2.399963379,-12,1,0,0,rectangle,-2.399963379,-12,1,0,0,,3,1,0.0021,0,-2.399963379,-12,1,0,0,,0,16,16,144,1,63,second,,,,,,,,,,,,,,,,,,,,,,,,,,,,,,,,,,,,,,,,,,,,,,,,,,,,,,,,,,,,,,,,,
,,,,,,60a5404314ae1a9d5b88565d,62bbfb17736a545fefd68a2c,2022-06-29_09h11.46.650,Colour_Asymmetry_Pilot,2022.1.3,Win32,59.9880024,62bbe60bf3d75ef465d3e404,,,,,,,,,,,,,,,,,,,,twoone,,-1,1.6989,,,,,,,,,,,,,,,,,,,,,,,,,,,,,,,,,,"[-0.26280000000000003,-0.4746,-0.2158]","[-0.8982,-0.37259999999999993,0.2784]",-55.20001221,-71.20001221,1,0,0,response5disk,-18.39996338,0.799987793,1,0,0,rectangle,-18.39996338,0.799987793,1,0,0,,3,1,0.0004,0,-18.39996338,0.799987793,1,0,0,,0,17,17,145,1,64,second,,,,,,,,,,,,,,,,,,,,,,,,,,,,,,,,,,,,,,,,,,,,,,,,,,,,,,,,,,,,,,,,,
