trials.thisRepN,trials.thisTrialN,trials.thisN,trials.thisIndex,trials.ran,Colourcodes,participant,session,date,expName,psychopyVersion,OS,frameRate,study_id,trials_4.thisRepN,trials_4.thisTrialN,trials_4.thisN,trials_4.thisIndex,trials_4.ran,StimulusPos,key_resp.keys,key_resp.rt,key_resp_2.keys,key_resp_2.rt,key_resp_15.keys,key_resp_15.rt,key_resp_17.keys,key_resp_17.rt,key_resp_9.keys,key_resp_9.rt,key_resp_10.keys,key_resp_10.rt,Circle1_col,Ecc,Circle2_col,similarity,response_time,mouse_5.x,mouse_5.y,mouse_5.leftButton,mouse_5.midButton,mouse_5.rightButton,mouse_5.clicked_name,mouse_10.x,mouse_10.y,mouse_10.leftButton,mouse_10.midButton,mouse_10.rightButton,mouse_10.clicked_name,mouse_7.x,mouse_7.y,mouse_7.leftButton,mouse_7.midButton,mouse_7.rightButton,catchnumberprac,mouse_6.x,mouse_6.y,mouse_6.leftButton,mouse_6.midButton,mouse_6.rightButton,duringprac.thisRepN,duringprac.thisTrialN,duringprac.thisN,duringprac.thisIndex,duringprac.ran,mouse_7.clicked_name,catchprac,mouse_6.clicked_name,key_resp_22.keys,key_resp_22.rt,Circle1_colour,Circle2_colour,mouse.x,mouse.y,mouse.leftButton,mouse.midButton,mouse.rightButton,mouse.clicked_name,mouse_2.x,mouse_2.y,mouse_2.leftButton,mouse_2.midButton,mouse_2.rightButton,mouse_2.clicked_name,mouse_3.x,mouse_3.y,mouse_3.leftButton,mouse_3.midButton,mouse_3.rightButton,catchresponse,catchnumber,response_time_catch,Catch,mouse_11.x,mouse_11.y,mouse_11.leftButton,mouse_11.midButton,mouse_11.rightButton,trials_2.thisRepN,trials_2.thisTrialN,trials_2.thisN,trials_2.thisIndex,trials_2.ran,Colourpair,Temporder,mouse_3.clicked_name,mouse_11.clicked_name,trials_3.thisRepN,trials_3.thisTrialN,trials_3.thisN,trials_3.thisIndex,trials_3.ran,key_resp_instr_Ishi.keys,key_resp_instr_Ishi.rt,Ishi_trial_keyresp.keys,Ishi_trial_keyresp.rt,Ishi_textbox.text,Ishi_loop.thisRepN,Ishi_loop.thisTrialN,Ishi_loop.thisN,Ishi_loop.thisIndex,Ishi_loop.ran,imageaddress,textbox.text,mouse_4.x,mouse_4.y,mouse_4.leftButton,mouse_4.midButton,mouse_4.rightButton,mouse_4.clicked_name,textbox_2.text,mouse_8.x,mouse_8.y,mouse_8.leftButton,mouse_8.midButton,mouse_8.rightButton,mouse_8.clicked_name,textbox_3.text,mouse_9.x,mouse_9.y,mouse_9.leftButton,mouse_9.midButton,mouse_9.rightButton,mouse_9.clicked_name,textbox_4.text,mouse_12.x,mouse_12.y,mouse_12.leftButton,mouse_12.midButton,mouse_12.rightButton,mouse_12.clicked_name,textbox_5.text,mouse_13.x,mouse_13.y,mouse_13.leftButton,mouse_13.midButton,mouse_13.rightButton,mouse_13.clicked_name,textbox_6.text,mouse_14.x,mouse_14.y,mouse_14.leftButton,mouse_14.midButton,mouse_14.rightButton,mouse_14.clicked_name,textbox_7.text,mouse_15.x,mouse_15.y,mouse_15.leftButton,mouse_15.midButton,mouse_15.rightButton,mouse_15.clicked_name
0,0,0,19,1,,61041810b20dd7b644737b8a,62bbf964397937031b1d4496,2022-06-29_09h05.17.538,Colour_Asymmetry_Pilot,2022.1.3,Win32,60.0276127,62bbe60bf3d75ef465d3e404,,,,,,,,,,,,,,,,,,,,,,,,,,,,,,,,,,,,,,,,,,,,,,,,,,,,,,,,,,,,,,,,,,,,,,,,,,,,,,,,,,,,,,,,,,,,,,,,,,,,,,,,,,,,,,,,,,,,,,,,,,,,,,,,,,,,,,,,,,,,,,,,,,,,,,,,,,,,,,
0,1,1,89,1,,61041810b20dd7b644737b8a,62bbf964397937031b1d4496,2022-06-29_09h05.17.538,Colour_Asymmetry_Pilot,2022.1.3,Win32,60.0276127,62bbe60bf3d75ef465d3e404,,,,,,,,,,,,,,,,,,,,,,,,,,,,,,,,,,,,,,,,,,,,,,,,,,,,,,,,,,,,,,,,,,,,,,,,,,,,,,,,,,,,,,,,,,,,,,,,,,,,,,,,,,,,,,,,,,,,,,,,,,,,,,,,,,,,,,,,,,,,,,,,,,,,,,,,,,,,,,
0,2,2,91,1,,61041810b20dd7b644737b8a,62bbf964397937031b1d4496,2022-06-29_09h05.17.538,Colour_Asymmetry_Pilot,2022.1.3,Win32,60.0276127,62bbe60bf3d75ef465d3e404,,,,,,,,,,,,,,,,,,,,,,,,,,,,,,,,,,,,,,,,,,,,,,,,,,,,,,,,,,,,,,,,,,,,,,,,,,,,,,,,,,,,,,,,,,,,,,,,,,,,,,,,,,,,,,,,,,,,,,,,,,,,,,,,,,,,,,,,,,,,,,,,,,,,,,,,,,,,,,
0,3,3,56,1,,61041810b20dd7b644737b8a,62bbf964397937031b1d4496,2022-06-29_09h05.17.538,Colour_Asymmetry_Pilot,2022.1.3,Win32,60.0276127,62bbe60bf3d75ef465d3e404,,,,,,,,,,,,,,,,,,,,,,,,,,,,,,,,,,,,,,,,,,,,,,,,,,,,,,,,,,,,,,,,,,,,,,,,,,,,,,,,,,,,,,,,,,,,,,,,,,,,,,,,,,,,,,,,,,,,,,,,,,,,,,,,,,,,,,,,,,,,,,,,,,,,,,,,,,,,,,
0,4,4,60,1,,61041810b20dd7b644737b8a,62bbf964397937031b1d4496,2022-06-29_09h05.17.538,Colour_Asymmetry_Pilot,2022.1.3,Win32,60.0276127,62bbe60bf3d75ef465d3e404,,,,,,,,,,,,,,,,,,,,,,,,,,,,,,,,,,,,,,,,,,,,,,,,,,,,,,,,,,,,,,,,,,,,,,,,,,,,,,,,,,,,,,,,,,,,,,,,,,,,,,,,,,,,,,,,,,,,,,,,,,,,,,,,,,,,,,,,,,,,,,,,,,,,,,,,,,,,,,
0,5,5,25,1,,61041810b20dd7b644737b8a,62bbf964397937031b1d4496,2022-06-29_09h05.17.538,Colour_Asymmetry_Pilot,2022.1.3,Win32,60.0276127,62bbe60bf3d75ef465d3e404,,,,,,,,,,,,,,,,,,,,,,,,,,,,,,,,,,,,,,,,,,,,,,,,,,,,,,,,,,,,,,,,,,,,,,,,,,,,,,,,,,,,,,,,,,,,,,,,,,,,,,,,,,,,,,,,,,,,,,,,,,,,,,,,,,,,,,,,,,,,,,,,,,,,,,,,,,,,,,
0,6,6,77,1,,61041810b20dd7b644737b8a,62bbf964397937031b1d4496,2022-06-29_09h05.17.538,Colour_Asymmetry_Pilot,2022.1.3,Win32,60.0276127,62bbe60bf3d75ef465d3e404,,,,,,,,,,,,,,,,,,,,,,,,,,,,,,,,,,,,,,,,,,,,,,,,,,,,,,,,,,,,,,,,,,,,,,,,,,,,,,,,,,,,,,,,,,,,,,,,,,,,,,,,,,,,,,,,,,,,,,,,,,,,,,,,,,,,,,,,,,,,,,,,,,,,,,,,,,,,,,
0,7,7,84,1,,61041810b20dd7b644737b8a,62bbf964397937031b1d4496,2022-06-29_09h05.17.538,Colour_Asymmetry_Pilot,2022.1.3,Win32,60.0276127,62bbe60bf3d75ef465d3e404,,,,,,,,,,,,,,,,,,,,,,,,,,,,,,,,,,,,,,,,,,,,,,,,,,,,,,,,,,,,,,,,,,,,,,,,,,,,,,,,,,,,,,,,,,,,,,,,,,,,,,,,,,,,,,,,,,,,,,,,,,,,,,,,,,,,,,,,,,,,,,,,,,,,,,,,,,,,,,
0,8,8,58,1,,61041810b20dd7b644737b8a,62bbf964397937031b1d4496,2022-06-29_09h05.17.538,Colour_Asymmetry_Pilot,2022.1.3,Win32,60.0276127,62bbe60bf3d75ef465d3e404,,,,,,,,,,,,,,,,,,,,,,,,,,,,,,,,,,,,,,,,,,,,,,,,,,,,,,,,,,,,,,,,,,,,,,,,,,,,,,,,,,,,,,,,,,,,,,,,,,,,,,,,,,,,,,,,,,,,,,,,,,,,,,,,,,,,,,,,,,,,,,,,,,,,,,,,,,,,,,
0,9,9,85,1,,61041810b20dd7b644737b8a,62bbf964397937031b1d4496,2022-06-29_09h05.17.538,Colour_Asymmetry_Pilot,2022.1.3,Win32,60.0276127,62bbe60bf3d75ef465d3e404,,,,,,,,,,,,,,,,,,,,,,,,,,,,,,,,,,,,,,,,,,,,,,,,,,,,,,,,,,,,,,,,,,,,,,,,,,,,,,,,,,,,,,,,,,,,,,,,,,,,,,,,,,,,,,,,,,,,,,,,,,,,,,,,,,,,,,,,,,,,,,,,,,,,,,,,,,,,,,
0,10,10,90,1,,61041810b20dd7b644737b8a,62bbf964397937031b1d4496,2022-06-29_09h05.17.538,Colour_Asymmetry_Pilot,2022.1.3,Win32,60.0276127,62bbe60bf3d75ef465d3e404,,,,,,,,,,,,,,,,,,,,,,,,,,,,,,,,,,,,,,,,,,,,,,,,,,,,,,,,,,,,,,,,,,,,,,,,,,,,,,,,,,,,,,,,,,,,,,,,,,,,,,,,,,,,,,,,,,,,,,,,,,,,,,,,,,,,,,,,,,,,,,,,,,,,,,,,,,,,,,
0,11,11,0,1,,61041810b20dd7b644737b8a,62bbf964397937031b1d4496,2022-06-29_09h05.17.538,Colour_Asymmetry_Pilot,2022.1.3,Win32,60.0276127,62bbe60bf3d75ef465d3e404,,,,,,,,,,,,,,,,,,,,,,,,,,,,,,,,,,,,,,,,,,,,,,,,,,,,,,,,,,,,,,,,,,,,,,,,,,,,,,,,,,,,,,,,,,,,,,,,,,,,,,,,,,,,,,,,,,,,,,,,,,,,,,,,,,,,,,,,,,,,,,,,,,,,,,,,,,,,,,
0,12,12,30,1,,61041810b20dd7b644737b8a,62bbf964397937031b1d4496,2022-06-29_09h05.17.538,Colour_Asymmetry_Pilot,2022.1.3,Win32,60.0276127,62bbe60bf3d75ef465d3e404,,,,,,,,,,,,,,,,,,,,,,,,,,,,,,,,,,,,,,,,,,,,,,,,,,,,,,,,,,,,,,,,,,,,,,,,,,,,,,,,,,,,,,,,,,,,,,,,,,,,,,,,,,,,,,,,,,,,,,,,,,,,,,,,,,,,,,,,,,,,,,,,,,,,,,,,,,,,,,
0,13,13,79,1,,61041810b20dd7b644737b8a,62bbf964397937031b1d4496,2022-06-29_09h05.17.538,Colour_Asymmetry_Pilot,2022.1.3,Win32,60.0276127,62bbe60bf3d75ef465d3e404,,,,,,,,,,,,,,,,,,,,,,,,,,,,,,,,,,,,,,,,,,,,,,,,,,,,,,,,,,,,,,,,,,,,,,,,,,,,,,,,,,,,,,,,,,,,,,,,,,,,,,,,,,,,,,,,,,,,,,,,,,,,,,,,,,,,,,,,,,,,,,,,,,,,,,,,,,,,,,
0,14,14,51,1,,61041810b20dd7b644737b8a,62bbf964397937031b1d4496,2022-06-29_09h05.17.538,Colour_Asymmetry_Pilot,2022.1.3,Win32,60.0276127,62bbe60bf3d75ef465d3e404,,,,,,,,,,,,,,,,,,,,,,,,,,,,,,,,,,,,,,,,,,,,,,,,,,,,,,,,,,,,,,,,,,,,,,,,,,,,,,,,,,,,,,,,,,,,,,,,,,,,,,,,,,,,,,,,,,,,,,,,,,,,,,,,,,,,,,,,,,,,,,,,,,,,,,,,,,,,,,
0,15,15,80,1,,61041810b20dd7b644737b8a,62bbf964397937031b1d4496,2022-06-29_09h05.17.538,Colour_Asymmetry_Pilot,2022.1.3,Win32,60.0276127,62bbe60bf3d75ef465d3e404,,,,,,,,,,,,,,,,,,,,,,,,,,,,,,,,,,,,,,,,,,,,,,,,,,,,,,,,,,,,,,,,,,,,,,,,,,,,,,,,,,,,,,,,,,,,,,,,,,,,,,,,,,,,,,,,,,,,,,,,,,,,,,,,,,,,,,,,,,,,,,,,,,,,,,,,,,,,,,
0,16,16,50,1,,61041810b20dd7b644737b8a,62bbf964397937031b1d4496,2022-06-29_09h05.17.538,Colour_Asymmetry_Pilot,2022.1.3,Win32,60.0276127,62bbe60bf3d75ef465d3e404,,,,,,,,,,,,,,,,,,,,,,,,,,,,,,,,,,,,,,,,,,,,,,,,,,,,,,,,,,,,,,,,,,,,,,,,,,,,,,,,,,,,,,,,,,,,,,,,,,,,,,,,,,,,,,,,,,,,,,,,,,,,,,,,,,,,,,,,,,,,,,,,,,,,,,,,,,,,,,
0,17,17,71,1,,61041810b20dd7b644737b8a,62bbf964397937031b1d4496,2022-06-29_09h05.17.538,Colour_Asymmetry_Pilot,2022.1.3,Win32,60.0276127,62bbe60bf3d75ef465d3e404,,,,,,,,,,,,,,,,,,,,,,,,,,,,,,,,,,,,,,,,,,,,,,,,,,,,,,,,,,,,,,,,,,,,,,,,,,,,,,,,,,,,,,,,,,,,,,,,,,,,,,,,,,,,,,,,,,,,,,,,,,,,,,,,,,,,,,,,,,,,,,,,,,,,,,,,,,,,,,
0,18,18,59,1,,61041810b20dd7b644737b8a,62bbf964397937031b1d4496,2022-06-29_09h05.17.538,Colour_Asymmetry_Pilot,2022.1.3,Win32,60.0276127,62bbe60bf3d75ef465d3e404,,,,,,,,,,,,,,,,,,,,,,,,,,,,,,,,,,,,,,,,,,,,,,,,,,,,,,,,,,,,,,,,,,,,,,,,,,,,,,,,,,,,,,,,,,,,,,,,,,,,,,,,,,,,,,,,,,,,,,,,,,,,,,,,,,,,,,,,,,,,,,,,,,,,,,,,,,,,,,
0,19,19,31,1,,61041810b20dd7b644737b8a,62bbf964397937031b1d4496,2022-06-29_09h05.17.538,Colour_Asymmetry_Pilot,2022.1.3,Win32,60.0276127,62bbe60bf3d75ef465d3e404,,,,,,,,,,,,,,,,,,,,,,,,,,,,,,,,,,,,,,,,,,,,,,,,,,,,,,,,,,,,,,,,,,,,,,,,,,,,,,,,,,,,,,,,,,,,,,,,,,,,,,,,,,,,,,,,,,,,,,,,,,,,,,,,,,,,,,,,,,,,,,,,,,,,,,,,,,,,,,
0,20,20,40,1,,61041810b20dd7b644737b8a,62bbf964397937031b1d4496,2022-06-29_09h05.17.538,Colour_Asymmetry_Pilot,2022.1.3,Win32,60.0276127,62bbe60bf3d75ef465d3e404,,,,,,,,,,,,,,,,,,,,,,,,,,,,,,,,,,,,,,,,,,,,,,,,,,,,,,,,,,,,,,,,,,,,,,,,,,,,,,,,,,,,,,,,,,,,,,,,,,,,,,,,,,,,,,,,,,,,,,,,,,,,,,,,,,,,,,,,,,,,,,,,,,,,,,,,,,,,,,
0,21,21,44,1,,61041810b20dd7b644737b8a,62bbf964397937031b1d4496,2022-06-29_09h05.17.538,Colour_Asymmetry_Pilot,2022.1.3,Win32,60.0276127,62bbe60bf3d75ef465d3e404,,,,,,,,,,,,,,,,,,,,,,,,,,,,,,,,,,,,,,,,,,,,,,,,,,,,,,,,,,,,,,,,,,,,,,,,,,,,,,,,,,,,,,,,,,,,,,,,,,,,,,,,,,,,,,,,,,,,,,,,,,,,,,,,,,,,,,,,,,,,,,,,,,,,,,,,,,,,,,
0,22,22,3,1,,61041810b20dd7b644737b8a,62bbf964397937031b1d4496,2022-06-29_09h05.17.538,Colour_Asymmetry_Pilot,2022.1.3,Win32,60.0276127,62bbe60bf3d75ef465d3e404,,,,,,,,,,,,,,,,,,,,,,,,,,,,,,,,,,,,,,,,,,,,,,,,,,,,,,,,,,,,,,,,,,,,,,,,,,,,,,,,,,,,,,,,,,,,,,,,,,,,,,,,,,,,,,,,,,,,,,,,,,,,,,,,,,,,,,,,,,,,,,,,,,,,,,,,,,,,,,
0,23,23,23,1,,61041810b20dd7b644737b8a,62bbf964397937031b1d4496,2022-06-29_09h05.17.538,Colour_Asymmetry_Pilot,2022.1.3,Win32,60.0276127,62bbe60bf3d75ef465d3e404,,,,,,,,,,,,,,,,,,,,,,,,,,,,,,,,,,,,,,,,,,,,,,,,,,,,,,,,,,,,,,,,,,,,,,,,,,,,,,,,,,,,,,,,,,,,,,,,,,,,,,,,,,,,,,,,,,,,,,,,,,,,,,,,,,,,,,,,,,,,,,,,,,,,,,,,,,,,,,
0,24,24,73,1,,61041810b20dd7b644737b8a,62bbf964397937031b1d4496,2022-06-29_09h05.17.538,Colour_Asymmetry_Pilot,2022.1.3,Win32,60.0276127,62bbe60bf3d75ef465d3e404,,,,,,,,,,,,,,,,,,,,,,,,,,,,,,,,,,,,,,,,,,,,,,,,,,,,,,,,,,,,,,,,,,,,,,,,,,,,,,,,,,,,,,,,,,,,,,,,,,,,,,,,,,,,,,,,,,,,,,,,,,,,,,,,,,,,,,,,,,,,,,,,,,,,,,,,,,,,,,
0,25,25,22,1,,61041810b20dd7b644737b8a,62bbf964397937031b1d4496,2022-06-29_09h05.17.538,Colour_Asymmetry_Pilot,2022.1.3,Win32,60.0276127,62bbe60bf3d75ef465d3e404,,,,,,,,,,,,,,,,,,,,,,,,,,,,,,,,,,,,,,,,,,,,,,,,,,,,,,,,,,,,,,,,,,,,,,,,,,,,,,,,,,,,,,,,,,,,,,,,,,,,,,,,,,,,,,,,,,,,,,,,,,,,,,,,,,,,,,,,,,,,,,,,,,,,,,,,,,,,,,
0,26,26,70,1,,61041810b20dd7b644737b8a,62bbf964397937031b1d4496,2022-06-29_09h05.17.538,Colour_Asymmetry_Pilot,2022.1.3,Win32,60.0276127,62bbe60bf3d75ef465d3e404,,,,,,,,,,,,,,,,,,,,,,,,,,,,,,,,,,,,,,,,,,,,,,,,,,,,,,,,,,,,,,,,,,,,,,,,,,,,,,,,,,,,,,,,,,,,,,,,,,,,,,,,,,,,,,,,,,,,,,,,,,,,,,,,,,,,,,,,,,,,,,,,,,,,,,,,,,,,,,
0,27,27,29,1,,61041810b20dd7b644737b8a,62bbf964397937031b1d4496,2022-06-29_09h05.17.538,Colour_Asymmetry_Pilot,2022.1.3,Win32,60.0276127,62bbe60bf3d75ef465d3e404,,,,,,,,,,,,,,,,,,,,,,,,,,,,,,,,,,,,,,,,,,,,,,,,,,,,,,,,,,,,,,,,,,,,,,,,,,,,,,,,,,,,,,,,,,,,,,,,,,,,,,,,,,,,,,,,,,,,,,,,,,,,,,,,,,,,,,,,,,,,,,,,,,,,,,,,,,,,,,
0,28,28,18,1,,61041810b20dd7b644737b8a,62bbf964397937031b1d4496,2022-06-29_09h05.17.538,Colour_Asymmetry_Pilot,2022.1.3,Win32,60.0276127,62bbe60bf3d75ef465d3e404,,,,,,,,,,,,,,,,,,,,,,,,,,,,,,,,,,,,,,,,,,,,,,,,,,,,,,,,,,,,,,,,,,,,,,,,,,,,,,,,,,,,,,,,,,,,,,,,,,,,,,,,,,,,,,,,,,,,,,,,,,,,,,,,,,,,,,,,,,,,,,,,,,,,,,,,,,,,,,
0,29,29,49,1,,61041810b20dd7b644737b8a,62bbf964397937031b1d4496,2022-06-29_09h05.17.538,Colour_Asymmetry_Pilot,2022.1.3,Win32,60.0276127,62bbe60bf3d75ef465d3e404,,,,,,,,,,,,,,,,,,,,,,,,,,,,,,,,,,,,,,,,,,,,,,,,,,,,,,,,,,,,,,,,,,,,,,,,,,,,,,,,,,,,,,,,,,,,,,,,,,,,,,,,,,,,,,,,,,,,,,,,,,,,,,,,,,,,,,,,,,,,,,,,,,,,,,,,,,,,,,
0,30,30,5,1,,61041810b20dd7b644737b8a,62bbf964397937031b1d4496,2022-06-29_09h05.17.538,Colour_Asymmetry_Pilot,2022.1.3,Win32,60.0276127,62bbe60bf3d75ef465d3e404,,,,,,,,,,,,,,,,,,,,,,,,,,,,,,,,,,,,,,,,,,,,,,,,,,,,,,,,,,,,,,,,,,,,,,,,,,,,,,,,,,,,,,,,,,,,,,,,,,,,,,,,,,,,,,,,,,,,,,,,,,,,,,,,,,,,,,,,,,,,,,,,,,,,,,,,,,,,,,
0,31,31,61,1,,61041810b20dd7b644737b8a,62bbf964397937031b1d4496,2022-06-29_09h05.17.538,Colour_Asymmetry_Pilot,2022.1.3,Win32,60.0276127,62bbe60bf3d75ef465d3e404,,,,,,,,,,,,,,,,,,,,,,,,,,,,,,,,,,,,,,,,,,,,,,,,,,,,,,,,,,,,,,,,,,,,,,,,,,,,,,,,,,,,,,,,,,,,,,,,,,,,,,,,,,,,,,,,,,,,,,,,,,,,,,,,,,,,,,,,,,,,,,,,,,,,,,,,,,,,,,
0,32,32,62,1,,61041810b20dd7b644737b8a,62bbf964397937031b1d4496,2022-06-29_09h05.17.538,Colour_Asymmetry_Pilot,2022.1.3,Win32,60.0276127,62bbe60bf3d75ef465d3e404,,,,,,,,,,,,,,,,,,,,,,,,,,,,,,,,,,,,,,,,,,,,,,,,,,,,,,,,,,,,,,,,,,,,,,,,,,,,,,,,,,,,,,,,,,,,,,,,,,,,,,,,,,,,,,,,,,,,,,,,,,,,,,,,,,,,,,,,,,,,,,,,,,,,,,,,,,,,,,
0,33,33,46,1,,61041810b20dd7b644737b8a,62bbf964397937031b1d4496,2022-06-29_09h05.17.538,Colour_Asymmetry_Pilot,2022.1.3,Win32,60.0276127,62bbe60bf3d75ef465d3e404,,,,,,,,,,,,,,,,,,,,,,,,,,,,,,,,,,,,,,,,,,,,,,,,,,,,,,,,,,,,,,,,,,,,,,,,,,,,,,,,,,,,,,,,,,,,,,,,,,,,,,,,,,,,,,,,,,,,,,,,,,,,,,,,,,,,,,,,,,,,,,,,,,,,,,,,,,,,,,
0,34,34,11,1,,61041810b20dd7b644737b8a,62bbf964397937031b1d4496,2022-06-29_09h05.17.538,Colour_Asymmetry_Pilot,2022.1.3,Win32,60.0276127,62bbe60bf3d75ef465d3e404,,,,,,,,,,,,,,,,,,,,,,,,,,,,,,,,,,,,,,,,,,,,,,,,,,,,,,,,,,,,,,,,,,,,,,,,,,,,,,,,,,,,,,,,,,,,,,,,,,,,,,,,,,,,,,,,,,,,,,,,,,,,,,,,,,,,,,,,,,,,,,,,,,,,,,,,,,,,,,
0,35,35,24,1,,61041810b20dd7b644737b8a,62bbf964397937031b1d4496,2022-06-29_09h05.17.538,Colour_Asymmetry_Pilot,2022.1.3,Win32,60.0276127,62bbe60bf3d75ef465d3e404,,,,,,,,,,,,,,,,,,,,,,,,,,,,,,,,,,,,,,,,,,,,,,,,,,,,,,,,,,,,,,,,,,,,,,,,,,,,,,,,,,,,,,,,,,,,,,,,,,,,,,,,,,,,,,,,,,,,,,,,,,,,,,,,,,,,,,,,,,,,,,,,,,,,,,,,,,,,,,
0,36,36,9,1,,61041810b20dd7b644737b8a,62bbf964397937031b1d4496,2022-06-29_09h05.17.538,Colour_Asymmetry_Pilot,2022.1.3,Win32,60.0276127,62bbe60bf3d75ef465d3e404,,,,,,,,,,,,,,,,,,,,,,,,,,,,,,,,,,,,,,,,,,,,,,,,,,,,,,,,,,,,,,,,,,,,,,,,,,,,,,,,,,,,,,,,,,,,,,,,,,,,,,,,,,,,,,,,,,,,,,,,,,,,,,,,,,,,,,,,,,,,,,,,,,,,,,,,,,,,,,
0,37,37,34,1,,61041810b20dd7b644737b8a,62bbf964397937031b1d4496,2022-06-29_09h05.17.538,Colour_Asymmetry_Pilot,2022.1.3,Win32,60.0276127,62bbe60bf3d75ef465d3e404,,,,,,,,,,,,,,,,,,,,,,,,,,,,,,,,,,,,,,,,,,,,,,,,,,,,,,,,,,,,,,,,,,,,,,,,,,,,,,,,,,,,,,,,,,,,,,,,,,,,,,,,,,,,,,,,,,,,,,,,,,,,,,,,,,,,,,,,,,,,,,,,,,,,,,,,,,,,,,
0,38,38,17,1,,61041810b20dd7b644737b8a,62bbf964397937031b1d4496,2022-06-29_09h05.17.538,Colour_Asymmetry_Pilot,2022.1.3,Win32,60.0276127,62bbe60bf3d75ef465d3e404,,,,,,,,,,,,,,,,,,,,,,,,,,,,,,,,,,,,,,,,,,,,,,,,,,,,,,,,,,,,,,,,,,,,,,,,,,,,,,,,,,,,,,,,,,,,,,,,,,,,,,,,,,,,,,,,,,,,,,,,,,,,,,,,,,,,,,,,,,,,,,,,,,,,,,,,,,,,,,
0,39,39,48,1,,61041810b20dd7b644737b8a,62bbf964397937031b1d4496,2022-06-29_09h05.17.538,Colour_Asymmetry_Pilot,2022.1.3,Win32,60.0276127,62bbe60bf3d75ef465d3e404,,,,,,,,,,,,,,,,,,,,,,,,,,,,,,,,,,,,,,,,,,,,,,,,,,,,,,,,,,,,,,,,,,,,,,,,,,,,,,,,,,,,,,,,,,,,,,,,,,,,,,,,,,,,,,,,,,,,,,,,,,,,,,,,,,,,,,,,,,,,,,,,,,,,,,,,,,,,,,
0,40,40,7,1,,61041810b20dd7b644737b8a,62bbf964397937031b1d4496,2022-06-29_09h05.17.538,Colour_Asymmetry_Pilot,2022.1.3,Win32,60.0276127,62bbe60bf3d75ef465d3e404,,,,,,,,,,,,,,,,,,,,,,,,,,,,,,,,,,,,,,,,,,,,,,,,,,,,,,,,,,,,,,,,,,,,,,,,,,,,,,,,,,,,,,,,,,,,,,,,,,,,,,,,,,,,,,,,,,,,,,,,,,,,,,,,,,,,,,,,,,,,,,,,,,,,,,,,,,,,,,
0,41,41,69,1,,61041810b20dd7b644737b8a,62bbf964397937031b1d4496,2022-06-29_09h05.17.538,Colour_Asymmetry_Pilot,2022.1.3,Win32,60.0276127,62bbe60bf3d75ef465d3e404,,,,,,,,,,,,,,,,,,,,,,,,,,,,,,,,,,,,,,,,,,,,,,,,,,,,,,,,,,,,,,,,,,,,,,,,,,,,,,,,,,,,,,,,,,,,,,,,,,,,,,,,,,,,,,,,,,,,,,,,,,,,,,,,,,,,,,,,,,,,,,,,,,,,,,,,,,,,,,
0,42,42,37,1,,61041810b20dd7b644737b8a,62bbf964397937031b1d4496,2022-06-29_09h05.17.538,Colour_Asymmetry_Pilot,2022.1.3,Win32,60.0276127,62bbe60bf3d75ef465d3e404,,,,,,,,,,,,,,,,,,,,,,,,,,,,,,,,,,,,,,,,,,,,,,,,,,,,,,,,,,,,,,,,,,,,,,,,,,,,,,,,,,,,,,,,,,,,,,,,,,,,,,,,,,,,,,,,,,,,,,,,,,,,,,,,,,,,,,,,,,,,,,,,,,,,,,,,,,,,,,
0,43,43,82,1,,61041810b20dd7b644737b8a,62bbf964397937031b1d4496,2022-06-29_09h05.17.538,Colour_Asymmetry_Pilot,2022.1.3,Win32,60.0276127,62bbe60bf3d75ef465d3e404,,,,,,,,,,,,,,,,,,,,,,,,,,,,,,,,,,,,,,,,,,,,,,,,,,,,,,,,,,,,,,,,,,,,,,,,,,,,,,,,,,,,,,,,,,,,,,,,,,,,,,,,,,,,,,,,,,,,,,,,,,,,,,,,,,,,,,,,,,,,,,,,,,,,,,,,,,,,,,
0,44,44,54,1,,61041810b20dd7b644737b8a,62bbf964397937031b1d4496,2022-06-29_09h05.17.538,Colour_Asymmetry_Pilot,2022.1.3,Win32,60.0276127,62bbe60bf3d75ef465d3e404,,,,,,,,,,,,,,,,,,,,,,,,,,,,,,,,,,,,,,,,,,,,,,,,,,,,,,,,,,,,,,,,,,,,,,,,,,,,,,,,,,,,,,,,,,,,,,,,,,,,,,,,,,,,,,,,,,,,,,,,,,,,,,,,,,,,,,,,,,,,,,,,,,,,,,,,,,,,,,
0,45,45,21,1,,61041810b20dd7b644737b8a,62bbf964397937031b1d4496,2022-06-29_09h05.17.538,Colour_Asymmetry_Pilot,2022.1.3,Win32,60.0276127,62bbe60bf3d75ef465d3e404,,,,,,,,,,,,,,,,,,,,,,,,,,,,,,,,,,,,,,,,,,,,,,,,,,,,,,,,,,,,,,,,,,,,,,,,,,,,,,,,,,,,,,,,,,,,,,,,,,,,,,,,,,,,,,,,,,,,,,,,,,,,,,,,,,,,,,,,,,,,,,,,,,,,,,,,,,,,,,
0,46,46,63,1,,61041810b20dd7b644737b8a,62bbf964397937031b1d4496,2022-06-29_09h05.17.538,Colour_Asymmetry_Pilot,2022.1.3,Win32,60.0276127,62bbe60bf3d75ef465d3e404,,,,,,,,,,,,,,,,,,,,,,,,,,,,,,,,,,,,,,,,,,,,,,,,,,,,,,,,,,,,,,,,,,,,,,,,,,,,,,,,,,,,,,,,,,,,,,,,,,,,,,,,,,,,,,,,,,,,,,,,,,,,,,,,,,,,,,,,,,,,,,,,,,,,,,,,,,,,,,
0,47,47,55,1,,61041810b20dd7b644737b8a,62bbf964397937031b1d4496,2022-06-29_09h05.17.538,Colour_Asymmetry_Pilot,2022.1.3,Win32,60.0276127,62bbe60bf3d75ef465d3e404,,,,,,,,,,,,,,,,,,,,,,,,,,,,,,,,,,,,,,,,,,,,,,,,,,,,,,,,,,,,,,,,,,,,,,,,,,,,,,,,,,,,,,,,,,,,,,,,,,,,,,,,,,,,,,,,,,,,,,,,,,,,,,,,,,,,,,,,,,,,,,,,,,,,,,,,,,,,,,
0,48,48,75,1,,61041810b20dd7b644737b8a,62bbf964397937031b1d4496,2022-06-29_09h05.17.538,Colour_Asymmetry_Pilot,2022.1.3,Win32,60.0276127,62bbe60bf3d75ef465d3e404,,,,,,,,,,,,,,,,,,,,,,,,,,,,,,,,,,,,,,,,,,,,,,,,,,,,,,,,,,,,,,,,,,,,,,,,,,,,,,,,,,,,,,,,,,,,,,,,,,,,,,,,,,,,,,,,,,,,,,,,,,,,,,,,,,,,,,,,,,,,,,,,,,,,,,,,,,,,,,
0,49,49,27,1,,61041810b20dd7b644737b8a,62bbf964397937031b1d4496,2022-06-29_09h05.17.538,Colour_Asymmetry_Pilot,2022.1.3,Win32,60.0276127,62bbe60bf3d75ef465d3e404,,,,,,,,,,,,,,,,,,,,,,,,,,,,,,,,,,,,,,,,,,,,,,,,,,,,,,,,,,,,,,,,,,,,,,,,,,,,,,,,,,,,,,,,,,,,,,,,,,,,,,,,,,,,,,,,,,,,,,,,,,,,,,,,,,,,,,,,,,,,,,,,,,,,,,,,,,,,,,
0,50,50,26,1,,61041810b20dd7b644737b8a,62bbf964397937031b1d4496,2022-06-29_09h05.17.538,Colour_Asymmetry_Pilot,2022.1.3,Win32,60.0276127,62bbe60bf3d75ef465d3e404,,,,,,,,,,,,,,,,,,,,,,,,,,,,,,,,,,,,,,,,,,,,,,,,,,,,,,,,,,,,,,,,,,,,,,,,,,,,,,,,,,,,,,,,,,,,,,,,,,,,,,,,,,,,,,,,,,,,,,,,,,,,,,,,,,,,,,,,,,,,,,,,,,,,,,,,,,,,,,
0,51,51,38,1,,61041810b20dd7b644737b8a,62bbf964397937031b1d4496,2022-06-29_09h05.17.538,Colour_Asymmetry_Pilot,2022.1.3,Win32,60.0276127,62bbe60bf3d75ef465d3e404,,,,,,,,,,,,,,,,,,,,,,,,,,,,,,,,,,,,,,,,,,,,,,,,,,,,,,,,,,,,,,,,,,,,,,,,,,,,,,,,,,,,,,,,,,,,,,,,,,,,,,,,,,,,,,,,,,,,,,,,,,,,,,,,,,,,,,,,,,,,,,,,,,,,,,,,,,,,,,
0,52,52,32,1,,61041810b20dd7b644737b8a,62bbf964397937031b1d4496,2022-06-29_09h05.17.538,Colour_Asymmetry_Pilot,2022.1.3,Win32,60.0276127,62bbe60bf3d75ef465d3e404,,,,,,,,,,,,,,,,,,,,,,,,,,,,,,,,,,,,,,,,,,,,,,,,,,,,,,,,,,,,,,,,,,,,,,,,,,,,,,,,,,,,,,,,,,,,,,,,,,,,,,,,,,,,,,,,,,,,,,,,,,,,,,,,,,,,,,,,,,,,,,,,,,,,,,,,,,,,,,
0,53,53,42,1,,61041810b20dd7b644737b8a,62bbf964397937031b1d4496,2022-06-29_09h05.17.538,Colour_Asymmetry_Pilot,2022.1.3,Win32,60.0276127,62bbe60bf3d75ef465d3e404,,,,,,,,,,,,,,,,,,,,,,,,,,,,,,,,,,,,,,,,,,,,,,,,,,,,,,,,,,,,,,,,,,,,,,,,,,,,,,,,,,,,,,,,,,,,,,,,,,,,,,,,,,,,,,,,,,,,,,,,,,,,,,,,,,,,,,,,,,,,,,,,,,,,,,,,,,,,,,
0,54,54,74,1,,61041810b20dd7b644737b8a,62bbf964397937031b1d4496,2022-06-29_09h05.17.538,Colour_Asymmetry_Pilot,2022.1.3,Win32,60.0276127,62bbe60bf3d75ef465d3e404,,,,,,,,,,,,,,,,,,,,,,,,,,,,,,,,,,,,,,,,,,,,,,,,,,,,,,,,,,,,,,,,,,,,,,,,,,,,,,,,,,,,,,,,,,,,,,,,,,,,,,,,,,,,,,,,,,,,,,,,,,,,,,,,,,,,,,,,,,,,,,,,,,,,,,,,,,,,,,
0,55,55,45,1,,61041810b20dd7b644737b8a,62bbf964397937031b1d4496,2022-06-29_09h05.17.538,Colour_Asymmetry_Pilot,2022.1.3,Win32,60.0276127,62bbe60bf3d75ef465d3e404,,,,,,,,,,,,,,,,,,,,,,,,,,,,,,,,,,,,,,,,,,,,,,,,,,,,,,,,,,,,,,,,,,,,,,,,,,,,,,,,,,,,,,,,,,,,,,,,,,,,,,,,,,,,,,,,,,,,,,,,,,,,,,,,,,,,,,,,,,,,,,,,,,,,,,,,,,,,,,
0,56,56,67,1,,61041810b20dd7b644737b8a,62bbf964397937031b1d4496,2022-06-29_09h05.17.538,Colour_Asymmetry_Pilot,2022.1.3,Win32,60.0276127,62bbe60bf3d75ef465d3e404,,,,,,,,,,,,,,,,,,,,,,,,,,,,,,,,,,,,,,,,,,,,,,,,,,,,,,,,,,,,,,,,,,,,,,,,,,,,,,,,,,,,,,,,,,,,,,,,,,,,,,,,,,,,,,,,,,,,,,,,,,,,,,,,,,,,,,,,,,,,,,,,,,,,,,,,,,,,,,
0,57,57,39,1,,61041810b20dd7b644737b8a,62bbf964397937031b1d4496,2022-06-29_09h05.17.538,Colour_Asymmetry_Pilot,2022.1.3,Win32,60.0276127,62bbe60bf3d75ef465d3e404,,,,,,,,,,,,,,,,,,,,,,,,,,,,,,,,,,,,,,,,,,,,,,,,,,,,,,,,,,,,,,,,,,,,,,,,,,,,,,,,,,,,,,,,,,,,,,,,,,,,,,,,,,,,,,,,,,,,,,,,,,,,,,,,,,,,,,,,,,,,,,,,,,,,,,,,,,,,,,
0,58,58,8,1,,61041810b20dd7b644737b8a,62bbf964397937031b1d4496,2022-06-29_09h05.17.538,Colour_Asymmetry_Pilot,2022.1.3,Win32,60.0276127,62bbe60bf3d75ef465d3e404,,,,,,,,,,,,,,,,,,,,,,,,,,,,,,,,,,,,,,,,,,,,,,,,,,,,,,,,,,,,,,,,,,,,,,,,,,,,,,,,,,,,,,,,,,,,,,,,,,,,,,,,,,,,,,,,,,,,,,,,,,,,,,,,,,,,,,,,,,,,,,,,,,,,,,,,,,,,,,
0,59,59,53,1,,61041810b20dd7b644737b8a,62bbf964397937031b1d4496,2022-06-29_09h05.17.538,Colour_Asymmetry_Pilot,2022.1.3,Win32,60.0276127,62bbe60bf3d75ef465d3e404,,,,,,,,,,,,,,,,,,,,,,,,,,,,,,,,,,,,,,,,,,,,,,,,,,,,,,,,,,,,,,,,,,,,,,,,,,,,,,,,,,,,,,,,,,,,,,,,,,,,,,,,,,,,,,,,,,,,,,,,,,,,,,,,,,,,,,,,,,,,,,,,,,,,,,,,,,,,,,
0,60,60,13,1,,61041810b20dd7b644737b8a,62bbf964397937031b1d4496,2022-06-29_09h05.17.538,Colour_Asymmetry_Pilot,2022.1.3,Win32,60.0276127,62bbe60bf3d75ef465d3e404,,,,,,,,,,,,,,,,,,,,,,,,,,,,,,,,,,,,,,,,,,,,,,,,,,,,,,,,,,,,,,,,,,,,,,,,,,,,,,,,,,,,,,,,,,,,,,,,,,,,,,,,,,,,,,,,,,,,,,,,,,,,,,,,,,,,,,,,,,,,,,,,,,,,,,,,,,,,,,
0,61,61,76,1,,61041810b20dd7b644737b8a,62bbf964397937031b1d4496,2022-06-29_09h05.17.538,Colour_Asymmetry_Pilot,2022.1.3,Win32,60.0276127,62bbe60bf3d75ef465d3e404,,,,,,,,,,,,,,,,,,,,,,,,,,,,,,,,,,,,,,,,,,,,,,,,,,,,,,,,,,,,,,,,,,,,,,,,,,,,,,,,,,,,,,,,,,,,,,,,,,,,,,,,,,,,,,,,,,,,,,,,,,,,,,,,,,,,,,,,,,,,,,,,,,,,,,,,,,,,,,
0,62,62,15,1,,61041810b20dd7b644737b8a,62bbf964397937031b1d4496,2022-06-29_09h05.17.538,Colour_Asymmetry_Pilot,2022.1.3,Win32,60.0276127,62bbe60bf3d75ef465d3e404,,,,,,,,,,,,,,,,,,,,,,,,,,,,,,,,,,,,,,,,,,,,,,,,,,,,,,,,,,,,,,,,,,,,,,,,,,,,,,,,,,,,,,,,,,,,,,,,,,,,,,,,,,,,,,,,,,,,,,,,,,,,,,,,,,,,,,,,,,,,,,,,,,,,,,,,,,,,,,
0,63,63,52,1,,61041810b20dd7b644737b8a,62bbf964397937031b1d4496,2022-06-29_09h05.17.538,Colour_Asymmetry_Pilot,2022.1.3,Win32,60.0276127,62bbe60bf3d75ef465d3e404,,,,,,,,,,,,,,,,,,,,,,,,,,,,,,,,,,,,,,,,,,,,,,,,,,,,,,,,,,,,,,,,,,,,,,,,,,,,,,,,,,,,,,,,,,,,,,,,,,,,,,,,,,,,,,,,,,,,,,,,,,,,,,,,,,,,,,,,,,,,,,,,,,,,,,,,,,,,,,
0,64,64,14,1,,61041810b20dd7b644737b8a,62bbf964397937031b1d4496,2022-06-29_09h05.17.538,Colour_Asymmetry_Pilot,2022.1.3,Win32,60.0276127,62bbe60bf3d75ef465d3e404,,,,,,,,,,,,,,,,,,,,,,,,,,,,,,,,,,,,,,,,,,,,,,,,,,,,,,,,,,,,,,,,,,,,,,,,,,,,,,,,,,,,,,,,,,,,,,,,,,,,,,,,,,,,,,,,,,,,,,,,,,,,,,,,,,,,,,,,,,,,,,,,,,,,,,,,,,,,,,
0,65,65,12,1,,61041810b20dd7b644737b8a,62bbf964397937031b1d4496,2022-06-29_09h05.17.538,Colour_Asymmetry_Pilot,2022.1.3,Win32,60.0276127,62bbe60bf3d75ef465d3e404,,,,,,,,,,,,,,,,,,,,,,,,,,,,,,,,,,,,,,,,,,,,,,,,,,,,,,,,,,,,,,,,,,,,,,,,,,,,,,,,,,,,,,,,,,,,,,,,,,,,,,,,,,,,,,,,,,,,,,,,,,,,,,,,,,,,,,,,,,,,,,,,,,,,,,,,,,,,,,
0,66,66,47,1,,61041810b20dd7b644737b8a,62bbf964397937031b1d4496,2022-06-29_09h05.17.538,Colour_Asymmetry_Pilot,2022.1.3,Win32,60.0276127,62bbe60bf3d75ef465d3e404,,,,,,,,,,,,,,,,,,,,,,,,,,,,,,,,,,,,,,,,,,,,,,,,,,,,,,,,,,,,,,,,,,,,,,,,,,,,,,,,,,,,,,,,,,,,,,,,,,,,,,,,,,,,,,,,,,,,,,,,,,,,,,,,,,,,,,,,,,,,,,,,,,,,,,,,,,,,,,
0,67,67,36,1,,61041810b20dd7b644737b8a,62bbf964397937031b1d4496,2022-06-29_09h05.17.538,Colour_Asymmetry_Pilot,2022.1.3,Win32,60.0276127,62bbe60bf3d75ef465d3e404,,,,,,,,,,,,,,,,,,,,,,,,,,,,,,,,,,,,,,,,,,,,,,,,,,,,,,,,,,,,,,,,,,,,,,,,,,,,,,,,,,,,,,,,,,,,,,,,,,,,,,,,,,,,,,,,,,,,,,,,,,,,,,,,,,,,,,,,,,,,,,,,,,,,,,,,,,,,,,
0,68,68,65,1,,61041810b20dd7b644737b8a,62bbf964397937031b1d4496,2022-06-29_09h05.17.538,Colour_Asymmetry_Pilot,2022.1.3,Win32,60.0276127,62bbe60bf3d75ef465d3e404,,,,,,,,,,,,,,,,,,,,,,,,,,,,,,,,,,,,,,,,,,,,,,,,,,,,,,,,,,,,,,,,,,,,,,,,,,,,,,,,,,,,,,,,,,,,,,,,,,,,,,,,,,,,,,,,,,,,,,,,,,,,,,,,,,,,,,,,,,,,,,,,,,,,,,,,,,,,,,
0,69,69,6,1,,61041810b20dd7b644737b8a,62bbf964397937031b1d4496,2022-06-29_09h05.17.538,Colour_Asymmetry_Pilot,2022.1.3,Win32,60.0276127,62bbe60bf3d75ef465d3e404,,,,,,,,,,,,,,,,,,,,,,,,,,,,,,,,,,,,,,,,,,,,,,,,,,,,,,,,,,,,,,,,,,,,,,,,,,,,,,,,,,,,,,,,,,,,,,,,,,,,,,,,,,,,,,,,,,,,,,,,,,,,,,,,,,,,,,,,,,,,,,,,,,,,,,,,,,,,,,
0,70,70,10,1,,61041810b20dd7b644737b8a,62bbf964397937031b1d4496,2022-06-29_09h05.17.538,Colour_Asymmetry_Pilot,2022.1.3,Win32,60.0276127,62bbe60bf3d75ef465d3e404,,,,,,,,,,,,,,,,,,,,,,,,,,,,,,,,,,,,,,,,,,,,,,,,,,,,,,,,,,,,,,,,,,,,,,,,,,,,,,,,,,,,,,,,,,,,,,,,,,,,,,,,,,,,,,,,,,,,,,,,,,,,,,,,,,,,,,,,,,,,,,,,,,,,,,,,,,,,,,
0,71,71,1,1,,61041810b20dd7b644737b8a,62bbf964397937031b1d4496,2022-06-29_09h05.17.538,Colour_Asymmetry_Pilot,2022.1.3,Win32,60.0276127,62bbe60bf3d75ef465d3e404,,,,,,,,,,,,,,,,,,,,,,,,,,,,,,,,,,,,,,,,,,,,,,,,,,,,,,,,,,,,,,,,,,,,,,,,,,,,,,,,,,,,,,,,,,,,,,,,,,,,,,,,,,,,,,,,,,,,,,,,,,,,,,,,,,,,,,,,,,,,,,,,,,,,,,,,,,,,,,
0,72,72,64,1,,61041810b20dd7b644737b8a,62bbf964397937031b1d4496,2022-06-29_09h05.17.538,Colour_Asymmetry_Pilot,2022.1.3,Win32,60.0276127,62bbe60bf3d75ef465d3e404,,,,,,,,,,,,,,,,,,,,,,,,,,,,,,,,,,,,,,,,,,,,,,,,,,,,,,,,,,,,,,,,,,,,,,,,,,,,,,,,,,,,,,,,,,,,,,,,,,,,,,,,,,,,,,,,,,,,,,,,,,,,,,,,,,,,,,,,,,,,,,,,,,,,,,,,,,,,,,
0,73,73,43,1,,61041810b20dd7b644737b8a,62bbf964397937031b1d4496,2022-06-29_09h05.17.538,Colour_Asymmetry_Pilot,2022.1.3,Win32,60.0276127,62bbe60bf3d75ef465d3e404,,,,,,,,,,,,,,,,,,,,,,,,,,,,,,,,,,,,,,,,,,,,,,,,,,,,,,,,,,,,,,,,,,,,,,,,,,,,,,,,,,,,,,,,,,,,,,,,,,,,,,,,,,,,,,,,,,,,,,,,,,,,,,,,,,,,,,,,,,,,,,,,,,,,,,,,,,,,,,
0,74,74,78,1,,61041810b20dd7b644737b8a,62bbf964397937031b1d4496,2022-06-29_09h05.17.538,Colour_Asymmetry_Pilot,2022.1.3,Win32,60.0276127,62bbe60bf3d75ef465d3e404,,,,,,,,,,,,,,,,,,,,,,,,,,,,,,,,,,,,,,,,,,,,,,,,,,,,,,,,,,,,,,,,,,,,,,,,,,,,,,,,,,,,,,,,,,,,,,,,,,,,,,,,,,,,,,,,,,,,,,,,,,,,,,,,,,,,,,,,,,,,,,,,,,,,,,,,,,,,,,
0,75,75,16,1,,61041810b20dd7b644737b8a,62bbf964397937031b1d4496,2022-06-29_09h05.17.538,Colour_Asymmetry_Pilot,2022.1.3,Win32,60.0276127,62bbe60bf3d75ef465d3e404,,,,,,,,,,,,,,,,,,,,,,,,,,,,,,,,,,,,,,,,,,,,,,,,,,,,,,,,,,,,,,,,,,,,,,,,,,,,,,,,,,,,,,,,,,,,,,,,,,,,,,,,,,,,,,,,,,,,,,,,,,,,,,,,,,,,,,,,,,,,,,,,,,,,,,,,,,,,,,
0,76,76,57,1,,61041810b20dd7b644737b8a,62bbf964397937031b1d4496,2022-06-29_09h05.17.538,Colour_Asymmetry_Pilot,2022.1.3,Win32,60.0276127,62bbe60bf3d75ef465d3e404,,,,,,,,,,,,,,,,,,,,,,,,,,,,,,,,,,,,,,,,,,,,,,,,,,,,,,,,,,,,,,,,,,,,,,,,,,,,,,,,,,,,,,,,,,,,,,,,,,,,,,,,,,,,,,,,,,,,,,,,,,,,,,,,,,,,,,,,,,,,,,,,,,,,,,,,,,,,,,
0,77,77,68,1,,61041810b20dd7b644737b8a,62bbf964397937031b1d4496,2022-06-29_09h05.17.538,Colour_Asymmetry_Pilot,2022.1.3,Win32,60.0276127,62bbe60bf3d75ef465d3e404,,,,,,,,,,,,,,,,,,,,,,,,,,,,,,,,,,,,,,,,,,,,,,,,,,,,,,,,,,,,,,,,,,,,,,,,,,,,,,,,,,,,,,,,,,,,,,,,,,,,,,,,,,,,,,,,,,,,,,,,,,,,,,,,,,,,,,,,,,,,,,,,,,,,,,,,,,,,,,
0,78,78,87,1,,61041810b20dd7b644737b8a,62bbf964397937031b1d4496,2022-06-29_09h05.17.538,Colour_Asymmetry_Pilot,2022.1.3,Win32,60.0276127,62bbe60bf3d75ef465d3e404,,,,,,,,,,,,,,,,,,,,,,,,,,,,,,,,,,,,,,,,,,,,,,,,,,,,,,,,,,,,,,,,,,,,,,,,,,,,,,,,,,,,,,,,,,,,,,,,,,,,,,,,,,,,,,,,,,,,,,,,,,,,,,,,,,,,,,,,,,,,,,,,,,,,,,,,,,,,,,
0,79,79,2,1,,61041810b20dd7b644737b8a,62bbf964397937031b1d4496,2022-06-29_09h05.17.538,Colour_Asymmetry_Pilot,2022.1.3,Win32,60.0276127,62bbe60bf3d75ef465d3e404,,,,,,,,,,,,,,,,,,,,,,,,,,,,,,,,,,,,,,,,,,,,,,,,,,,,,,,,,,,,,,,,,,,,,,,,,,,,,,,,,,,,,,,,,,,,,,,,,,,,,,,,,,,,,,,,,,,,,,,,,,,,,,,,,,,,,,,,,,,,,,,,,,,,,,,,,,,,,,
0,80,80,72,1,,61041810b20dd7b644737b8a,62bbf964397937031b1d4496,2022-06-29_09h05.17.538,Colour_Asymmetry_Pilot,2022.1.3,Win32,60.0276127,62bbe60bf3d75ef465d3e404,,,,,,,,,,,,,,,,,,,,,,,,,,,,,,,,,,,,,,,,,,,,,,,,,,,,,,,,,,,,,,,,,,,,,,,,,,,,,,,,,,,,,,,,,,,,,,,,,,,,,,,,,,,,,,,,,,,,,,,,,,,,,,,,,,,,,,,,,,,,,,,,,,,,,,,,,,,,,,
0,81,81,92,1,,61041810b20dd7b644737b8a,62bbf964397937031b1d4496,2022-06-29_09h05.17.538,Colour_Asymmetry_Pilot,2022.1.3,Win32,60.0276127,62bbe60bf3d75ef465d3e404,,,,,,,,,,,,,,,,,,,,,,,,,,,,,,,,,,,,,,,,,,,,,,,,,,,,,,,,,,,,,,,,,,,,,,,,,,,,,,,,,,,,,,,,,,,,,,,,,,,,,,,,,,,,,,,,,,,,,,,,,,,,,,,,,,,,,,,,,,,,,,,,,,,,,,,,,,,,,,
0,82,82,28,1,,61041810b20dd7b644737b8a,62bbf964397937031b1d4496,2022-06-29_09h05.17.538,Colour_Asymmetry_Pilot,2022.1.3,Win32,60.0276127,62bbe60bf3d75ef465d3e404,,,,,,,,,,,,,,,,,,,,,,,,,,,,,,,,,,,,,,,,,,,,,,,,,,,,,,,,,,,,,,,,,,,,,,,,,,,,,,,,,,,,,,,,,,,,,,,,,,,,,,,,,,,,,,,,,,,,,,,,,,,,,,,,,,,,,,,,,,,,,,,,,,,,,,,,,,,,,,
0,83,83,20,1,,61041810b20dd7b644737b8a,62bbf964397937031b1d4496,2022-06-29_09h05.17.538,Colour_Asymmetry_Pilot,2022.1.3,Win32,60.0276127,62bbe60bf3d75ef465d3e404,,,,,,,,,,,,,,,,,,,,,,,,,,,,,,,,,,,,,,,,,,,,,,,,,,,,,,,,,,,,,,,,,,,,,,,,,,,,,,,,,,,,,,,,,,,,,,,,,,,,,,,,,,,,,,,,,,,,,,,,,,,,,,,,,,,,,,,,,,,,,,,,,,,,,,,,,,,,,,
0,84,84,41,1,,61041810b20dd7b644737b8a,62bbf964397937031b1d4496,2022-06-29_09h05.17.538,Colour_Asymmetry_Pilot,2022.1.3,Win32,60.0276127,62bbe60bf3d75ef465d3e404,,,,,,,,,,,,,,,,,,,,,,,,,,,,,,,,,,,,,,,,,,,,,,,,,,,,,,,,,,,,,,,,,,,,,,,,,,,,,,,,,,,,,,,,,,,,,,,,,,,,,,,,,,,,,,,,,,,,,,,,,,,,,,,,,,,,,,,,,,,,,,,,,,,,,,,,,,,,,,
0,85,85,66,1,,61041810b20dd7b644737b8a,62bbf964397937031b1d4496,2022-06-29_09h05.17.538,Colour_Asymmetry_Pilot,2022.1.3,Win32,60.0276127,62bbe60bf3d75ef465d3e404,,,,,,,,,,,,,,,,,,,,,,,,,,,,,,,,,,,,,,,,,,,,,,,,,,,,,,,,,,,,,,,,,,,,,,,,,,,,,,,,,,,,,,,,,,,,,,,,,,,,,,,,,,,,,,,,,,,,,,,,,,,,,,,,,,,,,,,,,,,,,,,,,,,,,,,,,,,,,,
0,86,86,33,1,,61041810b20dd7b644737b8a,62bbf964397937031b1d4496,2022-06-29_09h05.17.538,Colour_Asymmetry_Pilot,2022.1.3,Win32,60.0276127,62bbe60bf3d75ef465d3e404,,,,,,,,,,,,,,,,,,,,,,,,,,,,,,,,,,,,,,,,,,,,,,,,,,,,,,,,,,,,,,,,,,,,,,,,,,,,,,,,,,,,,,,,,,,,,,,,,,,,,,,,,,,,,,,,,,,,,,,,,,,,,,,,,,,,,,,,,,,,,,,,,,,,,,,,,,,,,,
0,87,87,35,1,,61041810b20dd7b644737b8a,62bbf964397937031b1d4496,2022-06-29_09h05.17.538,Colour_Asymmetry_Pilot,2022.1.3,Win32,60.0276127,62bbe60bf3d75ef465d3e404,,,,,,,,,,,,,,,,,,,,,,,,,,,,,,,,,,,,,,,,,,,,,,,,,,,,,,,,,,,,,,,,,,,,,,,,,,,,,,,,,,,,,,,,,,,,,,,,,,,,,,,,,,,,,,,,,,,,,,,,,,,,,,,,,,,,,,,,,,,,,,,,,,,,,,,,,,,,,,
0,88,88,4,1,,61041810b20dd7b644737b8a,62bbf964397937031b1d4496,2022-06-29_09h05.17.538,Colour_Asymmetry_Pilot,2022.1.3,Win32,60.0276127,62bbe60bf3d75ef465d3e404,,,,,,,,,,,,,,,,,,,,,,,,,,,,,,,,,,,,,,,,,,,,,,,,,,,,,,,,,,,,,,,,,,,,,,,,,,,,,,,,,,,,,,,,,,,,,,,,,,,,,,,,,,,,,,,,,,,,,,,,,,,,,,,,,,,,,,,,,,,,,,,,,,,,,,,,,,,,,,
0,89,89,88,1,,61041810b20dd7b644737b8a,62bbf964397937031b1d4496,2022-06-29_09h05.17.538,Colour_Asymmetry_Pilot,2022.1.3,Win32,60.0276127,62bbe60bf3d75ef465d3e404,,,,,,,,,,,,,,,,,,,,,,,,,,,,,,,,,,,,,,,,,,,,,,,,,,,,,,,,,,,,,,,,,,,,,,,,,,,,,,,,,,,,,,,,,,,,,,,,,,,,,,,,,,,,,,,,,,,,,,,,,,,,,,,,,,,,,,,,,,,,,,,,,,,,,,,,,,,,,,
0,90,90,83,1,,61041810b20dd7b644737b8a,62bbf964397937031b1d4496,2022-06-29_09h05.17.538,Colour_Asymmetry_Pilot,2022.1.3,Win32,60.0276127,62bbe60bf3d75ef465d3e404,,,,,,,,,,,,,,,,,,,,,,,,,,,,,,,,,,,,,,,,,,,,,,,,,,,,,,,,,,,,,,,,,,,,,,,,,,,,,,,,,,,,,,,,,,,,,,,,,,,,,,,,,,,,,,,,,,,,,,,,,,,,,,,,,,,,,,,,,,,,,,,,,,,,,,,,,,,,,,
0,91,91,86,1,,61041810b20dd7b644737b8a,62bbf964397937031b1d4496,2022-06-29_09h05.17.538,Colour_Asymmetry_Pilot,2022.1.3,Win32,60.0276127,62bbe60bf3d75ef465d3e404,,,,,,,,,,,,,,,,,,,,,,,,,,,,,,,,,,,,,,,,,,,,,,,,,,,,,,,,,,,,,,,,,,,,,,,,,,,,,,,,,,,,,,,,,,,,,,,,,,,,,,,,,,,,,,,,,,,,,,,,,,,,,,,,,,,,,,,,,,,,,,,,,,,,,,,,,,,,,,
0,92,92,81,1,,61041810b20dd7b644737b8a,62bbf964397937031b1d4496,2022-06-29_09h05.17.538,Colour_Asymmetry_Pilot,2022.1.3,Win32,60.0276127,62bbe60bf3d75ef465d3e404,,,,,,,,,,,,,,,,,,,,,,,,,,,,,,,,,,,,,,,,,,,,,,,,,,,,,,,,,,,,,,,,,,,,,,,,,,,,,,,,,,,,,,,,,,,,,,,,,,,,,,,,,,,,,,,,,,,,,,,,,,,,,,,,,,,,,,,,,,,,,,,,,,,,,,,,,,,,,,
,,,,,,61041810b20dd7b644737b8a,62bbf964397937031b1d4496,2022-06-29_09h05.17.538,Colour_Asymmetry_Pilot,2022.1.3,Win32,60.0276127,62bbe60bf3d75ef465d3e404,0,0,0,26,1,twoone,,,,,,,,,,,,,,,,,,,,,,,,,,,,,,,,,,,,,,,,,,,,,,,,,,,,,,,,,,,,,,,,,,,,,,,,,,,,,,,,,,,,,,,,,,,,,,,,,,,,,,,,,,,,,,,,,,,,,,,,,,,,,,,,,,,,,,,,,,,,,,,,,,,,,,,,
,,,,,,61041810b20dd7b644737b8a,62bbf964397937031b1d4496,2022-06-29_09h05.17.538,Colour_Asymmetry_Pilot,2022.1.3,Win32,60.0276127,62bbe60bf3d75ef465d3e404,0,1,1,158,1,fourtwo,,,,,,,,,,,,,,,,,,,,,,,,,,,,,,,,,,,,,,,,,,,,,,,,,,,,,,,,,,,,,,,,,,,,,,,,,,,,,,,,,,,,,,,,,,,,,,,,,,,,,,,,,,,,,,,,,,,,,,,,,,,,,,,,,,,,,,,,,,,,,,,,,,,,,,,,
,,,,,,61041810b20dd7b644737b8a,62bbf964397937031b1d4496,2022-06-29_09h05.17.538,Colour_Asymmetry_Pilot,2022.1.3,Win32,60.0276127,62bbe60bf3d75ef465d3e404,0,2,2,74,1,twoone,,,,,,,,,,,,,,,,,,,,,,,,,,,,,,,,,,,,,,,,,,,,,,,,,,,,,,,,,,,,,,,,,,,,,,,,,,,,,,,,,,,,,,,,,,,,,,,,,,,,,,,,,,,,,,,,,,,,,,,,,,,,,,,,,,,,,,,,,,,,,,,,,,,,,,,,
,,,,,,61041810b20dd7b644737b8a,62bbf964397937031b1d4496,2022-06-29_09h05.17.538,Colour_Asymmetry_Pilot,2022.1.3,Win32,60.0276127,62bbe60bf3d75ef465d3e404,0,3,3,155,1,twofour,,,,,,,,,,,,,,,,,,,,,,,,,,,,,,,,,,,,,,,,,,,,,,,,,,,,,,,,,,,,,,,,,,,,,,,,,,,,,,,,,,,,,,,,,,,,,,,,,,,,,,,,,,,,,,,,,,,,,,,,,,,,,,,,,,,,,,,,,,,,,,,,,,,,,,,,
,,,,,,61041810b20dd7b644737b8a,62bbf964397937031b1d4496,2022-06-29_09h05.17.538,Colour_Asymmetry_Pilot,2022.1.3,Win32,60.0276127,62bbe60bf3d75ef465d3e404,0,4,4,102,1,fourtwo,,,,,,,,,,,,,,,,,,,,,,,,,,,,,,,,,,,,,,,,,,,,,,,,,,,,,,,,,,,,,,,,,,,,,,,,,,,,,,,,,,,,,,,,,,,,,,,,,,,,,,,,,,,,,,,,,,,,,,,,,,,,,,,,,,,,,,,,,,,,,,,,,,,,,,,,
,,,,,,61041810b20dd7b644737b8a,62bbf964397937031b1d4496,2022-06-29_09h05.17.538,Colour_Asymmetry_Pilot,2022.1.3,Win32,60.0276127,62bbe60bf3d75ef465d3e404,0,5,5,147,1,twofour,,,,,,,,,,,,,,,,,,,,,,,,,,,,,,,,,,,,,,,,,,,,,,,,,,,,,,,,,,,,,,,,,,,,,,,,,,,,,,,,,,,,,,,,,,,,,,,,,,,,,,,,,,,,,,,,,,,,,,,,,,,,,,,,,,,,,,,,,,,,,,,,,,,,,,,,
,,,,,,61041810b20dd7b644737b8a,62bbf964397937031b1d4496,2022-06-29_09h05.17.538,Colour_Asymmetry_Pilot,2022.1.3,Win32,60.0276127,62bbe60bf3d75ef465d3e404,0,6,6,52,1,threeone,,,,,,,,,,,,,,,,,,,,,,,,,,,,,,,,,,,,,,,,,,,,,,,,,,,,,,,,,,,,,,,,,,,,,,,,,,,,,,,,,,,,,,,,,,,,,,,,,,,,,,,,,,,,,,,,,,,,,,,,,,,,,,,,,,,,,,,,,,,,,,,,,,,,,,,,
,,,,,,61041810b20dd7b644737b8a,62bbf964397937031b1d4496,2022-06-29_09h05.17.538,Colour_Asymmetry_Pilot,2022.1.3,Win32,60.0276127,62bbe60bf3d75ef465d3e404,0,7,7,128,1,onetwo,,,,,,,,,,,,,,,,,,,,,,,,,,,,,,,,,,,,,,,,,,,,,,,,,,,,,,,,,,,,,,,,,,,,,,,,,,,,,,,,,,,,,,,,,,,,,,,,,,,,,,,,,,,,,,,,,,,,,,,,,,,,,,,,,,,,,,,,,,,,,,,,,,,,,,,,
,,,,,,61041810b20dd7b644737b8a,62bbf964397937031b1d4496,2022-06-29_09h05.17.538,Colour_Asymmetry_Pilot,2022.1.3,Win32,60.0276127,62bbe60bf3d75ef465d3e404,0,8,8,55,1,fourthree,,,,,,,,,,,,,,,,,,,,,,,,,,,,,,,,,,,,,,,,,,,,,,,,,,,,,,,,,,,,,,,,,,,,,,,,,,,,,,,,,,,,,,,,,,,,,,,,,,,,,,,,,,,,,,,,,,,,,,,,,,,,,,,,,,,,,,,,,,,,,,,,,,,,,,,,
,,,,,,61041810b20dd7b644737b8a,62bbf964397937031b1d4496,2022-06-29_09h05.17.538,Colour_Asymmetry_Pilot,2022.1.3,Win32,60.0276127,62bbe60bf3d75ef465d3e404,0,9,9,79,1,fourthree,,,,,,,,,,,,,,,,,,,,,,,,,,,,,,,,,,,,,,,,,,,,,,,,,,,,,,,,,,,,,,,,,,,,,,,,,,,,,,,,,,,,,,,,,,,,,,,,,,,,,,,,,,,,,,,,,,,,,,,,,,,,,,,,,,,,,,,,,,,,,,,,,,,,,,,,
,,,,,,61041810b20dd7b644737b8a,62bbf964397937031b1d4496,2022-06-29_09h05.17.538,Colour_Asymmetry_Pilot,2022.1.3,Win32,60.0276127,62bbe60bf3d75ef465d3e404,0,10,10,95,1,fourthree,,,,,,,,,,,,,,,,,,,,,,,,,,,,,,,,,,,,,,,,,,,,,,,,,,,,,,,,,,,,,,,,,,,,,,,,,,,,,,,,,,,,,,,,,,,,,,,,,,,,,,,,,,,,,,,,,,,,,,,,,,,,,,,,,,,,,,,,,,,,,,,,,,,,,,,,
,,,,,,61041810b20dd7b644737b8a,62bbf964397937031b1d4496,2022-06-29_09h05.17.538,Colour_Asymmetry_Pilot,2022.1.3,Win32,60.0276127,62bbe60bf3d75ef465d3e404,0,11,11,73,1,onethree,,,,,,,,,,,,,,,,,,,,,,,,,,,,,,,,,,,,,,,,,,,,,,,,,,,,,,,,,,,,,,,,,,,,,,,,,,,,,,,,,,,,,,,,,,,,,,,,,,,,,,,,,,,,,,,,,,,,,,,,,,,,,,,,,,,,,,,,,,,,,,,,,,,,,,,,
,,,,,,61041810b20dd7b644737b8a,62bbf964397937031b1d4496,2022-06-29_09h05.17.538,Colour_Asymmetry_Pilot,2022.1.3,Win32,60.0276127,62bbe60bf3d75ef465d3e404,0,12,12,23,1,fourthree,,,,,,,,,,,,,,,,,,,,,,,,,,,,,,,,,,,,,,,,,,,,,,,,,,,,,,,,,,,,,,,,,,,,,,,,,,,,,,,,,,,,,,,,,,,,,,,,,,,,,,,,,,,,,,,,,,,,,,,,,,,,,,,,,,,,,,,,,,,,,,,,,,,,,,,,
,,,,,,61041810b20dd7b644737b8a,62bbf964397937031b1d4496,2022-06-29_09h05.17.538,Colour_Asymmetry_Pilot,2022.1.3,Win32,60.0276127,62bbe60bf3d75ef465d3e404,0,13,13,138,1,twoone,,,,,,,,,,,,,,,,,,,,,,,,,,,,,,,,,,,,,,,,,,,,,,,,,,,,,,,,,,,,,,,,,,,,,,,,,,,,,,,,,,,,,,,,,,,,,,,,,,,,,,,,,,,,,,,,,,,,,,,,,,,,,,,,,,,,,,,,,,,,,,,,,,,,,,,,
,,,,,,61041810b20dd7b644737b8a,62bbf964397937031b1d4496,2022-06-29_09h05.17.538,Colour_Asymmetry_Pilot,2022.1.3,Win32,60.0276127,62bbe60bf3d75ef465d3e404,0,14,14,149,1,threefour,,,,,,,,,,,,,,,,,,,,,,,,,,,,,,,,,,,,,,,,,,,,,,,,,,,,,,,,,,,,,,,,,,,,,,,,,,,,,,,,,,,,,,,,,,,,,,,,,,,,,,,,,,,,,,,,,,,,,,,,,,,,,,,,,,,,,,,,,,,,,,,,,,,,,,,,
,,,,,,61041810b20dd7b644737b8a,62bbf964397937031b1d4496,2022-06-29_09h05.17.538,Colour_Asymmetry_Pilot,2022.1.3,Win32,60.0276127,62bbe60bf3d75ef465d3e404,0,15,15,152,1,onetwo,,,,,,,,,,,,,,,,,,,,,,,,,,,,,,,,,,,,,,,,,,,,,,,,,,,,,,,,,,,,,,,,,,,,,,,,,,,,,,,,,,,,,,,,,,,,,,,,,,,,,,,,,,,,,,,,,,,,,,,,,,,,,,,,,,,,,,,,,,,,,,,,,,,,,,,,
,,,,,,61041810b20dd7b644737b8a,62bbf964397937031b1d4496,2022-06-29_09h05.17.538,Colour_Asymmetry_Pilot,2022.1.3,Win32,60.0276127,62bbe60bf3d75ef465d3e404,0,16,16,37,1,threefour,,,,,,,,,,,,,,,,,,,,,,,,,,,,,,,,,,,,,,,,,,,,,,,,,,,,,,,,,,,,,,,,,,,,,,,,,,,,,,,,,,,,,,,,,,,,,,,,,,,,,,,,,,,,,,,,,,,,,,,,,,,,,,,,,,,,,,,,,,,,,,,,,,,,,,,,
,,,,,,61041810b20dd7b644737b8a,62bbf964397937031b1d4496,2022-06-29_09h05.17.538,Colour_Asymmetry_Pilot,2022.1.3,Win32,60.0276127,62bbe60bf3d75ef465d3e404,0,17,17,156,1,threeone,,,,,,,,,,,,,,,,,,,,,,,,,,,,,,,,,,,,,,,,,,,,,,,,,,,,,,,,,,,,,,,,,,,,,,,,,,,,,,,,,,,,,,,,,,,,,,,,,,,,,,,,,,,,,,,,,,,,,,,,,,,,,,,,,,,,,,,,,,,,,,,,,,,,,,,,
,,,,,,61041810b20dd7b644737b8a,62bbf964397937031b1d4496,2022-06-29_09h05.17.538,Colour_Asymmetry_Pilot,2022.1.3,Win32,60.0276127,62bbe60bf3d75ef465d3e404,0,18,18,91,1,twofour,,,,,,,,,,,,,,,,,,,,,,,,,,,,,,,,,,,,,,,,,,,,,,,,,,,,,,,,,,,,,,,,,,,,,,,,,,,,,,,,,,,,,,,,,,,,,,,,,,,,,,,,,,,,,,,,,,,,,,,,,,,,,,,,,,,,,,,,,,,,,,,,,,,,,,,,
,,,,,,61041810b20dd7b644737b8a,62bbf964397937031b1d4496,2022-06-29_09h05.17.538,Colour_Asymmetry_Pilot,2022.1.3,Win32,60.0276127,62bbe60bf3d75ef465d3e404,0,19,19,0,1,onetwo,,,,,,,,,,,,,,,,,,,,,,,,,,,,,,,,,,,,,,,,,,,,,,,,,,,,,,,,,,,,,,,,,,,,,,,,,,,,,,,,,,,,,,,,,,,,,,,,,,,,,,,,,,,,,,,,,,,,,,,,,,,,,,,,,,,,,,,,,,,,,,,,,,,,,,,,
,,,,,,61041810b20dd7b644737b8a,62bbf964397937031b1d4496,2022-06-29_09h05.17.538,Colour_Asymmetry_Pilot,2022.1.3,Win32,60.0276127,62bbe60bf3d75ef465d3e404,0,20,20,21,1,threefour,,,,,,,,,,,,,,,,,,,,,,,,,,,,,,,,,,,,,,,,,,,,,,,,,,,,,,,,,,,,,,,,,,,,,,,,,,,,,,,,,,,,,,,,,,,,,,,,,,,,,,,,,,,,,,,,,,,,,,,,,,,,,,,,,,,,,,,,,,,,,,,,,,,,,,,,
,,,,,,61041810b20dd7b644737b8a,62bbf964397937031b1d4496,2022-06-29_09h05.17.538,Colour_Asymmetry_Pilot,2022.1.3,Win32,60.0276127,62bbe60bf3d75ef465d3e404,0,21,21,17,1,onethree,,,,,,,,,,,,,,,,,,,,,,,,,,,,,,,,,,,,,,,,,,,,,,,,,,,,,,,,,,,,,,,,,,,,,,,,,,,,,,,,,,,,,,,,,,,,,,,,,,,,,,,,,,,,,,,,,,,,,,,,,,,,,,,,,,,,,,,,,,,,,,,,,,,,,,,,
,,,,,,61041810b20dd7b644737b8a,62bbf964397937031b1d4496,2022-06-29_09h05.17.538,Colour_Asymmetry_Pilot,2022.1.3,Win32,60.0276127,62bbe60bf3d75ef465d3e404,0,22,22,144,1,onetwo,,,,,,,,,,,,,,,,,,,,,,,,,,,,,,,,,,,,,,,,,,,,,,,,,,,,,,,,,,,,,,,,,,,,,,,,,,,,,,,,,,,,,,,,,,,,,,,,,,,,,,,,,,,,,,,,,,,,,,,,,,,,,,,,,,,,,,,,,,,,,,,,,,,,,,,,
,,,,,,61041810b20dd7b644737b8a,62bbf964397937031b1d4496,2022-06-29_09h05.17.538,Colour_Asymmetry_Pilot,2022.1.3,Win32,60.0276127,62bbe60bf3d75ef465d3e404,0,23,23,105,1,onethree,,,,,,,,,,,,,,,,,,,,,,,,,,,,,,,,,,,,,,,,,,,,,,,,,,,,,,,,,,,,,,,,,,,,,,,,,,,,,,,,,,,,,,,,,,,,,,,,,,,,,,,,,,,,,,,,,,,,,,,,,,,,,,,,,,,,,,,,,,,,,,,,,,,,,,,,
,,,,,,61041810b20dd7b644737b8a,62bbf964397937031b1d4496,2022-06-29_09h05.17.538,Colour_Asymmetry_Pilot,2022.1.3,Win32,60.0276127,62bbe60bf3d75ef465d3e404,0,24,24,110,1,fourtwo,,,,,,,,,,,,,,,,,,,,,,,,,,,,,,,,,,,,,,,,,,,,,,,,,,,,,,,,,,,,,,,,,,,,,,,,,,,,,,,,,,,,,,,,,,,,,,,,,,,,,,,,,,,,,,,,,,,,,,,,,,,,,,,,,,,,,,,,,,,,,,,,,,,,,,,,
,,,,,,61041810b20dd7b644737b8a,62bbf964397937031b1d4496,2022-06-29_09h05.17.538,Colour_Asymmetry_Pilot,2022.1.3,Win32,60.0276127,62bbe60bf3d75ef465d3e404,0,25,25,130,1,twoone,,,,,,,,,,,,,,,,,,,,,,,,,,,,,,,,,,,,,,,,,,,,,,,,,,,,,,,,,,,,,,,,,,,,,,,,,,,,,,,,,,,,,,,,,,,,,,,,,,,,,,,,,,,,,,,,,,,,,,,,,,,,,,,,,,,,,,,,,,,,,,,,,,,,,,,,
,,,,,,61041810b20dd7b644737b8a,62bbf964397937031b1d4496,2022-06-29_09h05.17.538,Colour_Asymmetry_Pilot,2022.1.3,Win32,60.0276127,62bbe60bf3d75ef465d3e404,0,26,26,115,1,twofour,,,,,,,,,,,,,,,,,,,,,,,,,,,,,,,,,,,,,,,,,,,,,,,,,,,,,,,,,,,,,,,,,,,,,,,,,,,,,,,,,,,,,,,,,,,,,,,,,,,,,,,,,,,,,,,,,,,,,,,,,,,,,,,,,,,,,,,,,,,,,,,,,,,,,,,,
,,,,,,61041810b20dd7b644737b8a,62bbf964397937031b1d4496,2022-06-29_09h05.17.538,Colour_Asymmetry_Pilot,2022.1.3,Win32,60.0276127,62bbe60bf3d75ef465d3e404,0,27,27,9,1,onethree,,,,,,,,,,,,,,,,,,,,,,,,,,,,,,,,,,,,,,,,,,,,,,,,,,,,,,,,,,,,,,,,,,,,,,,,,,,,,,,,,,,,,,,,,,,,,,,,,,,,,,,,,,,,,,,,,,,,,,,,,,,,,,,,,,,,,,,,,,,,,,,,,,,,,,,,
,,,,,,61041810b20dd7b644737b8a,62bbf964397937031b1d4496,2022-06-29_09h05.17.538,Colour_Asymmetry_Pilot,2022.1.3,Win32,60.0276127,62bbe60bf3d75ef465d3e404,0,28,28,47,1,fourthree,,,,,,,,,,,,,,,,,,,,,,,,,,,,,,,,,,,,,,,,,,,,,,,,,,,,,,,,,,,,,,,,,,,,,,,,,,,,,,,,,,,,,,,,,,,,,,,,,,,,,,,,,,,,,,,,,,,,,,,,,,,,,,,,,,,,,,,,,,,,,,,,,,,,,,,,
,,,,,,61041810b20dd7b644737b8a,62bbf964397937031b1d4496,2022-06-29_09h05.17.538,Colour_Asymmetry_Pilot,2022.1.3,Win32,60.0276127,62bbe60bf3d75ef465d3e404,0,29,29,28,1,threeone,,,,,,,,,,,,,,,,,,,,,,,,,,,,,,,,,,,,,,,,,,,,,,,,,,,,,,,,,,,,,,,,,,,,,,,,,,,,,,,,,,,,,,,,,,,,,,,,,,,,,,,,,,,,,,,,,,,,,,,,,,,,,,,,,,,,,,,,,,,,,,,,,,,,,,,,
,,,,,,61041810b20dd7b644737b8a,62bbf964397937031b1d4496,2022-06-29_09h05.17.538,Colour_Asymmetry_Pilot,2022.1.3,Win32,60.0276127,62bbe60bf3d75ef465d3e404,0,30,30,27,1,twofour,,,,,,,,,,,,,,,,,,,,,,,,,,,,,,,,,,,,,,,,,,,,,,,,,,,,,,,,,,,,,,,,,,,,,,,,,,,,,,,,,,,,,,,,,,,,,,,,,,,,,,,,,,,,,,,,,,,,,,,,,,,,,,,,,,,,,,,,,,,,,,,,,,,,,,,,
,,,,,,61041810b20dd7b644737b8a,62bbf964397937031b1d4496,2022-06-29_09h05.17.538,Colour_Asymmetry_Pilot,2022.1.3,Win32,60.0276127,62bbe60bf3d75ef465d3e404,0,31,31,150,1,fourtwo,,,,,,,,,,,,,,,,,,,,,,,,,,,,,,,,,,,,,,,,,,,,,,,,,,,,,,,,,,,,,,,,,,,,,,,,,,,,,,,,,,,,,,,,,,,,,,,,,,,,,,,,,,,,,,,,,,,,,,,,,,,,,,,,,,,,,,,,,,,,,,,,,,,,,,,,
,,,,,,61041810b20dd7b644737b8a,62bbf964397937031b1d4496,2022-06-29_09h05.17.538,Colour_Asymmetry_Pilot,2022.1.3,Win32,60.0276127,62bbe60bf3d75ef465d3e404,0,32,32,65,1,onethree,,,,,,,,,,,,,,,,,,,,,,,,,,,,,,,,,,,,,,,,,,,,,,,,,,,,,,,,,,,,,,,,,,,,,,,,,,,,,,,,,,,,,,,,,,,,,,,,,,,,,,,,,,,,,,,,,,,,,,,,,,,,,,,,,,,,,,,,,,,,,,,,,,,,,,,,
,,,,,,61041810b20dd7b644737b8a,62bbf964397937031b1d4496,2022-06-29_09h05.17.538,Colour_Asymmetry_Pilot,2022.1.3,Win32,60.0276127,62bbe60bf3d75ef465d3e404,0,33,33,61,1,threefour,,,,,,,,,,,,,,,,,,,,,,,,,,,,,,,,,,,,,,,,,,,,,,,,,,,,,,,,,,,,,,,,,,,,,,,,,,,,,,,,,,,,,,,,,,,,,,,,,,,,,,,,,,,,,,,,,,,,,,,,,,,,,,,,,,,,,,,,,,,,,,,,,,,,,,,,
,,,,,,61041810b20dd7b644737b8a,62bbf964397937031b1d4496,2022-06-29_09h05.17.538,Colour_Asymmetry_Pilot,2022.1.3,Win32,60.0276127,62bbe60bf3d75ef465d3e404,0,34,34,127,1,fourthree,,,,,,,,,,,,,,,,,,,,,,,,,,,,,,,,,,,,,,,,,,,,,,,,,,,,,,,,,,,,,,,,,,,,,,,,,,,,,,,,,,,,,,,,,,,,,,,,,,,,,,,,,,,,,,,,,,,,,,,,,,,,,,,,,,,,,,,,,,,,,,,,,,,,,,,,
,,,,,,61041810b20dd7b644737b8a,62bbf964397937031b1d4496,2022-06-29_09h05.17.538,Colour_Asymmetry_Pilot,2022.1.3,Win32,60.0276127,62bbe60bf3d75ef465d3e404,0,35,35,36,1,threeone,,,,,,,,,,,,,,,,,,,,,,,,,,,,,,,,,,,,,,,,,,,,,,,,,,,,,,,,,,,,,,,,,,,,,,,,,,,,,,,,,,,,,,,,,,,,,,,,,,,,,,,,,,,,,,,,,,,,,,,,,,,,,,,,,,,,,,,,,,,,,,,,,,,,,,,,
,,,,,,61041810b20dd7b644737b8a,62bbf964397937031b1d4496,2022-06-29_09h05.17.538,Colour_Asymmetry_Pilot,2022.1.3,Win32,60.0276127,62bbe60bf3d75ef465d3e404,0,36,36,30,1,fourtwo,,,,,,,,,,,,,,,,,,,,,,,,,,,,,,,,,,,,,,,,,,,,,,,,,,,,,,,,,,,,,,,,,,,,,,,,,,,,,,,,,,,,,,,,,,,,,,,,,,,,,,,,,,,,,,,,,,,,,,,,,,,,,,,,,,,,,,,,,,,,,,,,,,,,,,,,
,,,,,,61041810b20dd7b644737b8a,62bbf964397937031b1d4496,2022-06-29_09h05.17.538,Colour_Asymmetry_Pilot,2022.1.3,Win32,60.0276127,62bbe60bf3d75ef465d3e404,0,37,37,153,1,onethree,,,,,,,,,,,,,,,,,,,,,,,,,,,,,,,,,,,,,,,,,,,,,,,,,,,,,,,,,,,,,,,,,,,,,,,,,,,,,,,,,,,,,,,,,,,,,,,,,,,,,,,,,,,,,,,,,,,,,,,,,,,,,,,,,,,,,,,,,,,,,,,,,,,,,,,,
,,,,,,61041810b20dd7b644737b8a,62bbf964397937031b1d4496,2022-06-29_09h05.17.538,Colour_Asymmetry_Pilot,2022.1.3,Win32,60.0276127,62bbe60bf3d75ef465d3e404,0,38,38,20,1,threeone,,,,,,,,,,,,,,,,,,,,,,,,,,,,,,,,,,,,,,,,,,,,,,,,,,,,,,,,,,,,,,,,,,,,,,,,,,,,,,,,,,,,,,,,,,,,,,,,,,,,,,,,,,,,,,,,,,,,,,,,,,,,,,,,,,,,,,,,,,,,,,,,,,,,,,,,
,,,,,,61041810b20dd7b644737b8a,62bbf964397937031b1d4496,2022-06-29_09h05.17.538,Colour_Asymmetry_Pilot,2022.1.3,Win32,60.0276127,62bbe60bf3d75ef465d3e404,0,39,39,58,1,twoone,,,,,,,,,,,,,,,,,,,,,,,,,,,,,,,,,,,,,,,,,,,,,,,,,,,,,,,,,,,,,,,,,,,,,,,,,,,,,,,,,,,,,,,,,,,,,,,,,,,,,,,,,,,,,,,,,,,,,,,,,,,,,,,,,,,,,,,,,,,,,,,,,,,,,,,,
,,,,,,61041810b20dd7b644737b8a,62bbf964397937031b1d4496,2022-06-29_09h05.17.538,Colour_Asymmetry_Pilot,2022.1.3,Win32,60.0276127,62bbe60bf3d75ef465d3e404,0,40,40,77,1,threefour,,,,,,,,,,,,,,,,,,,,,,,,,,,,,,,,,,,,,,,,,,,,,,,,,,,,,,,,,,,,,,,,,,,,,,,,,,,,,,,,,,,,,,,,,,,,,,,,,,,,,,,,,,,,,,,,,,,,,,,,,,,,,,,,,,,,,,,,,,,,,,,,,,,,,,,,
,,,,,,61041810b20dd7b644737b8a,62bbf964397937031b1d4496,2022-06-29_09h05.17.538,Colour_Asymmetry_Pilot,2022.1.3,Win32,60.0276127,62bbe60bf3d75ef465d3e404,0,41,41,68,1,threeone,,,,,,,,,,,,,,,,,,,,,,,,,,,,,,,,,,,,,,,,,,,,,,,,,,,,,,,,,,,,,,,,,,,,,,,,,,,,,,,,,,,,,,,,,,,,,,,,,,,,,,,,,,,,,,,,,,,,,,,,,,,,,,,,,,,,,,,,,,,,,,,,,,,,,,,,
,,,,,,61041810b20dd7b644737b8a,62bbf964397937031b1d4496,2022-06-29_09h05.17.538,Colour_Asymmetry_Pilot,2022.1.3,Win32,60.0276127,62bbe60bf3d75ef465d3e404,0,42,42,123,1,twofour,,,,,,,,,,,,,,,,,,,,,,,,,,,,,,,,,,,,,,,,,,,,,,,,,,,,,,,,,,,,,,,,,,,,,,,,,,,,,,,,,,,,,,,,,,,,,,,,,,,,,,,,,,,,,,,,,,,,,,,,,,,,,,,,,,,,,,,,,,,,,,,,,,,,,,,,
,,,,,,61041810b20dd7b644737b8a,62bbf964397937031b1d4496,2022-06-29_09h05.17.538,Colour_Asymmetry_Pilot,2022.1.3,Win32,60.0276127,62bbe60bf3d75ef465d3e404,0,43,43,56,1,onetwo,,,,,,,,,,,,,,,,,,,,,,,,,,,,,,,,,,,,,,,,,,,,,,,,,,,,,,,,,,,,,,,,,,,,,,,,,,,,,,,,,,,,,,,,,,,,,,,,,,,,,,,,,,,,,,,,,,,,,,,,,,,,,,,,,,,,,,,,,,,,,,,,,,,,,,,,
,,,,,,61041810b20dd7b644737b8a,62bbf964397937031b1d4496,2022-06-29_09h05.17.538,Colour_Asymmetry_Pilot,2022.1.3,Win32,60.0276127,62bbe60bf3d75ef465d3e404,0,44,44,121,1,onethree,,,,,,,,,,,,,,,,,,,,,,,,,,,,,,,,,,,,,,,,,,,,,,,,,,,,,,,,,,,,,,,,,,,,,,,,,,,,,,,,,,,,,,,,,,,,,,,,,,,,,,,,,,,,,,,,,,,,,,,,,,,,,,,,,,,,,,,,,,,,,,,,,,,,,,,,
,,,,,,61041810b20dd7b644737b8a,62bbf964397937031b1d4496,2022-06-29_09h05.17.538,Colour_Asymmetry_Pilot,2022.1.3,Win32,60.0276127,62bbe60bf3d75ef465d3e404,0,45,45,39,1,fourthree,,,,,,,,,,,,,,,,,,,,,,,,,,,,,,,,,,,,,,,,,,,,,,,,,,,,,,,,,,,,,,,,,,,,,,,,,,,,,,,,,,,,,,,,,,,,,,,,,,,,,,,,,,,,,,,,,,,,,,,,,,,,,,,,,,,,,,,,,,,,,,,,,,,,,,,,
,,,,,,61041810b20dd7b644737b8a,62bbf964397937031b1d4496,2022-06-29_09h05.17.538,Colour_Asymmetry_Pilot,2022.1.3,Win32,60.0276127,62bbe60bf3d75ef465d3e404,0,46,46,117,1,threefour,,,,,,,,,,,,,,,,,,,,,,,,,,,,,,,,,,,,,,,,,,,,,,,,,,,,,,,,,,,,,,,,,,,,,,,,,,,,,,,,,,,,,,,,,,,,,,,,,,,,,,,,,,,,,,,,,,,,,,,,,,,,,,,,,,,,,,,,,,,,,,,,,,,,,,,,
,,,,,,61041810b20dd7b644737b8a,62bbf964397937031b1d4496,2022-06-29_09h05.17.538,Colour_Asymmetry_Pilot,2022.1.3,Win32,60.0276127,62bbe60bf3d75ef465d3e404,0,47,47,76,1,threeone,,,,,,,,,,,,,,,,,,,,,,,,,,,,,,,,,,,,,,,,,,,,,,,,,,,,,,,,,,,,,,,,,,,,,,,,,,,,,,,,,,,,,,,,,,,,,,,,,,,,,,,,,,,,,,,,,,,,,,,,,,,,,,,,,,,,,,,,,,,,,,,,,,,,,,,,
,,,,,,61041810b20dd7b644737b8a,62bbf964397937031b1d4496,2022-06-29_09h05.17.538,Colour_Asymmetry_Pilot,2022.1.3,Win32,60.0276127,62bbe60bf3d75ef465d3e404,0,48,48,126,1,fourtwo,,,,,,,,,,,,,,,,,,,,,,,,,,,,,,,,,,,,,,,,,,,,,,,,,,,,,,,,,,,,,,,,,,,,,,,,,,,,,,,,,,,,,,,,,,,,,,,,,,,,,,,,,,,,,,,,,,,,,,,,,,,,,,,,,,,,,,,,,,,,,,,,,,,,,,,,
,,,,,,61041810b20dd7b644737b8a,62bbf964397937031b1d4496,2022-06-29_09h05.17.538,Colour_Asymmetry_Pilot,2022.1.3,Win32,60.0276127,62bbe60bf3d75ef465d3e404,0,49,49,116,1,threeone,,,,,,,,,,,,,,,,,,,,,,,,,,,,,,,,,,,,,,,,,,,,,,,,,,,,,,,,,,,,,,,,,,,,,,,,,,,,,,,,,,,,,,,,,,,,,,,,,,,,,,,,,,,,,,,,,,,,,,,,,,,,,,,,,,,,,,,,,,,,,,,,,,,,,,,,
,,,,,,61041810b20dd7b644737b8a,62bbf964397937031b1d4496,2022-06-29_09h05.17.538,Colour_Asymmetry_Pilot,2022.1.3,Win32,60.0276127,62bbe60bf3d75ef465d3e404,0,50,50,70,1,fourtwo,,,,,,,,,,,,,,,,,,,,,,,,,,,,,,,,,,,,,,,,,,,,,,,,,,,,,,,,,,,,,,,,,,,,,,,,,,,,,,,,,,,,,,,,,,,,,,,,,,,,,,,,,,,,,,,,,,,,,,,,,,,,,,,,,,,,,,,,,,,,,,,,,,,,,,,,
,,,,,,61041810b20dd7b644737b8a,62bbf964397937031b1d4496,2022-06-29_09h05.17.538,Colour_Asymmetry_Pilot,2022.1.3,Win32,60.0276127,62bbe60bf3d75ef465d3e404,0,51,51,159,1,fourthree,,,,,,,,,,,,,,,,,,,,,,,,,,,,,,,,,,,,,,,,,,,,,,,,,,,,,,,,,,,,,,,,,,,,,,,,,,,,,,,,,,,,,,,,,,,,,,,,,,,,,,,,,,,,,,,,,,,,,,,,,,,,,,,,,,,,,,,,,,,,,,,,,,,,,,,,
,,,,,,61041810b20dd7b644737b8a,62bbf964397937031b1d4496,2022-06-29_09h05.17.538,Colour_Asymmetry_Pilot,2022.1.3,Win32,60.0276127,62bbe60bf3d75ef465d3e404,0,52,52,135,1,fourthree,,,,,,,,,,,,,,,,,,,,,,,,,,,,,,,,,,,,,,,,,,,,,,,,,,,,,,,,,,,,,,,,,,,,,,,,,,,,,,,,,,,,,,,,,,,,,,,,,,,,,,,,,,,,,,,,,,,,,,,,,,,,,,,,,,,,,,,,,,,,,,,,,,,,,,,,
,,,,,,61041810b20dd7b644737b8a,62bbf964397937031b1d4496,2022-06-29_09h05.17.538,Colour_Asymmetry_Pilot,2022.1.3,Win32,60.0276127,62bbe60bf3d75ef465d3e404,0,53,53,107,1,twofour,,,,,,,,,,,,,,,,,,,,,,,,,,,,,,,,,,,,,,,,,,,,,,,,,,,,,,,,,,,,,,,,,,,,,,,,,,,,,,,,,,,,,,,,,,,,,,,,,,,,,,,,,,,,,,,,,,,,,,,,,,,,,,,,,,,,,,,,,,,,,,,,,,,,,,,,
,,,,,,61041810b20dd7b644737b8a,62bbf964397937031b1d4496,2022-06-29_09h05.17.538,Colour_Asymmetry_Pilot,2022.1.3,Win32,60.0276127,62bbe60bf3d75ef465d3e404,0,54,54,85,1,threefour,,,,,,,,,,,,,,,,,,,,,,,,,,,,,,,,,,,,,,,,,,,,,,,,,,,,,,,,,,,,,,,,,,,,,,,,,,,,,,,,,,,,,,,,,,,,,,,,,,,,,,,,,,,,,,,,,,,,,,,,,,,,,,,,,,,,,,,,,,,,,,,,,,,,,,,,
,,,,,,61041810b20dd7b644737b8a,62bbf964397937031b1d4496,2022-06-29_09h05.17.538,Colour_Asymmetry_Pilot,2022.1.3,Win32,60.0276127,62bbe60bf3d75ef465d3e404,0,55,55,87,1,fourthree,,,,,,,,,,,,,,,,,,,,,,,,,,,,,,,,,,,,,,,,,,,,,,,,,,,,,,,,,,,,,,,,,,,,,,,,,,,,,,,,,,,,,,,,,,,,,,,,,,,,,,,,,,,,,,,,,,,,,,,,,,,,,,,,,,,,,,,,,,,,,,,,,,,,,,,,
,,,,,,61041810b20dd7b644737b8a,62bbf964397937031b1d4496,2022-06-29_09h05.17.538,Colour_Asymmetry_Pilot,2022.1.3,Win32,60.0276127,62bbe60bf3d75ef465d3e404,0,56,56,24,1,onetwo,,,,,,,,,,,,,,,,,,,,,,,,,,,,,,,,,,,,,,,,,,,,,,,,,,,,,,,,,,,,,,,,,,,,,,,,,,,,,,,,,,,,,,,,,,,,,,,,,,,,,,,,,,,,,,,,,,,,,,,,,,,,,,,,,,,,,,,,,,,,,,,,,,,,,,,,
,,,,,,61041810b20dd7b644737b8a,62bbf964397937031b1d4496,2022-06-29_09h05.17.538,Colour_Asymmetry_Pilot,2022.1.3,Win32,60.0276127,62bbe60bf3d75ef465d3e404,0,57,57,13,1,threefour,,,,,,,,,,,,,,,,,,,,,,,,,,,,,,,,,,,,,,,,,,,,,,,,,,,,,,,,,,,,,,,,,,,,,,,,,,,,,,,,,,,,,,,,,,,,,,,,,,,,,,,,,,,,,,,,,,,,,,,,,,,,,,,,,,,,,,,,,,,,,,,,,,,,,,,,
,,,,,,61041810b20dd7b644737b8a,62bbf964397937031b1d4496,2022-06-29_09h05.17.538,Colour_Asymmetry_Pilot,2022.1.3,Win32,60.0276127,62bbe60bf3d75ef465d3e404,0,58,58,32,1,onetwo,,,,,,,,,,,,,,,,,,,,,,,,,,,,,,,,,,,,,,,,,,,,,,,,,,,,,,,,,,,,,,,,,,,,,,,,,,,,,,,,,,,,,,,,,,,,,,,,,,,,,,,,,,,,,,,,,,,,,,,,,,,,,,,,,,,,,,,,,,,,,,,,,,,,,,,,
,,,,,,61041810b20dd7b644737b8a,62bbf964397937031b1d4496,2022-06-29_09h05.17.538,Colour_Asymmetry_Pilot,2022.1.3,Win32,60.0276127,62bbe60bf3d75ef465d3e404,0,59,59,40,1,onetwo,,,,,,,,,,,,,,,,,,,,,,,,,,,,,,,,,,,,,,,,,,,,,,,,,,,,,,,,,,,,,,,,,,,,,,,,,,,,,,,,,,,,,,,,,,,,,,,,,,,,,,,,,,,,,,,,,,,,,,,,,,,,,,,,,,,,,,,,,,,,,,,,,,,,,,,,
,,,,,,61041810b20dd7b644737b8a,62bbf964397937031b1d4496,2022-06-29_09h05.17.538,Colour_Asymmetry_Pilot,2022.1.3,Win32,60.0276127,62bbe60bf3d75ef465d3e404,0,60,60,54,1,fourtwo,,,,,,,,,,,,,,,,,,,,,,,,,,,,,,,,,,,,,,,,,,,,,,,,,,,,,,,,,,,,,,,,,,,,,,,,,,,,,,,,,,,,,,,,,,,,,,,,,,,,,,,,,,,,,,,,,,,,,,,,,,,,,,,,,,,,,,,,,,,,,,,,,,,,,,,,
,,,,,,61041810b20dd7b644737b8a,62bbf964397937031b1d4496,2022-06-29_09h05.17.538,Colour_Asymmetry_Pilot,2022.1.3,Win32,60.0276127,62bbe60bf3d75ef465d3e404,0,61,61,141,1,threefour,,,,,,,,,,,,,,,,,,,,,,,,,,,,,,,,,,,,,,,,,,,,,,,,,,,,,,,,,,,,,,,,,,,,,,,,,,,,,,,,,,,,,,,,,,,,,,,,,,,,,,,,,,,,,,,,,,,,,,,,,,,,,,,,,,,,,,,,,,,,,,,,,,,,,,,,
,,,,,,61041810b20dd7b644737b8a,62bbf964397937031b1d4496,2022-06-29_09h05.17.538,Colour_Asymmetry_Pilot,2022.1.3,Win32,60.0276127,62bbe60bf3d75ef465d3e404,0,62,62,53,1,threefour,,,,,,,,,,,,,,,,,,,,,,,,,,,,,,,,,,,,,,,,,,,,,,,,,,,,,,,,,,,,,,,,,,,,,,,,,,,,,,,,,,,,,,,,,,,,,,,,,,,,,,,,,,,,,,,,,,,,,,,,,,,,,,,,,,,,,,,,,,,,,,,,,,,,,,,,
,,,,,,61041810b20dd7b644737b8a,62bbf964397937031b1d4496,2022-06-29_09h05.17.538,Colour_Asymmetry_Pilot,2022.1.3,Win32,60.0276127,62bbe60bf3d75ef465d3e404,0,63,63,108,1,threeone,,,,,,,,,,,,,,,,,,,,,,,,,,,,,,,,,,,,,,,,,,,,,,,,,,,,,,,,,,,,,,,,,,,,,,,,,,,,,,,,,,,,,,,,,,,,,,,,,,,,,,,,,,,,,,,,,,,,,,,,,,,,,,,,,,,,,,,,,,,,,,,,,,,,,,,,
,,,,,,61041810b20dd7b644737b8a,62bbf964397937031b1d4496,2022-06-29_09h05.17.538,Colour_Asymmetry_Pilot,2022.1.3,Win32,60.0276127,62bbe60bf3d75ef465d3e404,0,64,64,43,1,twofour,,,,,,,,,,,,,,,,,,,,,,,,,,,,,,,,,,,,,,,,,,,,,,,,,,,,,,,,,,,,,,,,,,,,,,,,,,,,,,,,,,,,,,,,,,,,,,,,,,,,,,,,,,,,,,,,,,,,,,,,,,,,,,,,,,,,,,,,,,,,,,,,,,,,,,,,
,,,,,,61041810b20dd7b644737b8a,62bbf964397937031b1d4496,2022-06-29_09h05.17.538,Colour_Asymmetry_Pilot,2022.1.3,Win32,60.0276127,62bbe60bf3d75ef465d3e404,0,65,65,93,1,threefour,,,,,,,,,,,,,,,,,,,,,,,,,,,,,,,,,,,,,,,,,,,,,,,,,,,,,,,,,,,,,,,,,,,,,,,,,,,,,,,,,,,,,,,,,,,,,,,,,,,,,,,,,,,,,,,,,,,,,,,,,,,,,,,,,,,,,,,,,,,,,,,,,,,,,,,,
,,,,,,61041810b20dd7b644737b8a,62bbf964397937031b1d4496,2022-06-29_09h05.17.538,Colour_Asymmetry_Pilot,2022.1.3,Win32,60.0276127,62bbe60bf3d75ef465d3e404,0,66,66,90,1,twoone,,,,,,,,,,,,,,,,,,,,,,,,,,,,,,,,,,,,,,,,,,,,,,,,,,,,,,,,,,,,,,,,,,,,,,,,,,,,,,,,,,,,,,,,,,,,,,,,,,,,,,,,,,,,,,,,,,,,,,,,,,,,,,,,,,,,,,,,,,,,,,,,,,,,,,,,
,,,,,,61041810b20dd7b644737b8a,62bbf964397937031b1d4496,2022-06-29_09h05.17.538,Colour_Asymmetry_Pilot,2022.1.3,Win32,60.0276127,62bbe60bf3d75ef465d3e404,0,67,67,60,1,threeone,,,,,,,,,,,,,,,,,,,,,,,,,,,,,,,,,,,,,,,,,,,,,,,,,,,,,,,,,,,,,,,,,,,,,,,,,,,,,,,,,,,,,,,,,,,,,,,,,,,,,,,,,,,,,,,,,,,,,,,,,,,,,,,,,,,,,,,,,,,,,,,,,,,,,,,,
,,,,,,61041810b20dd7b644737b8a,62bbf964397937031b1d4496,2022-06-29_09h05.17.538,Colour_Asymmetry_Pilot,2022.1.3,Win32,60.0276127,62bbe60bf3d75ef465d3e404,0,68,68,11,1,twofour,,,,,,,,,,,,,,,,,,,,,,,,,,,,,,,,,,,,,,,,,,,,,,,,,,,,,,,,,,,,,,,,,,,,,,,,,,,,,,,,,,,,,,,,,,,,,,,,,,,,,,,,,,,,,,,,,,,,,,,,,,,,,,,,,,,,,,,,,,,,,,,,,,,,,,,,
,,,,,,61041810b20dd7b644737b8a,62bbf964397937031b1d4496,2022-06-29_09h05.17.538,Colour_Asymmetry_Pilot,2022.1.3,Win32,60.0276127,62bbe60bf3d75ef465d3e404,0,69,69,124,1,threeone,,,,,,,,,,,,,,,,,,,,,,,,,,,,,,,,,,,,,,,,,,,,,,,,,,,,,,,,,,,,,,,,,,,,,,,,,,,,,,,,,,,,,,,,,,,,,,,,,,,,,,,,,,,,,,,,,,,,,,,,,,,,,,,,,,,,,,,,,,,,,,,,,,,,,,,,
,,,,,,61041810b20dd7b644737b8a,62bbf964397937031b1d4496,2022-06-29_09h05.17.538,Colour_Asymmetry_Pilot,2022.1.3,Win32,60.0276127,62bbe60bf3d75ef465d3e404,0,70,70,92,1,threeone,,,,,,,,,,,,,,,,,,,,,,,,,,,,,,,,,,,,,,,,,,,,,,,,,,,,,,,,,,,,,,,,,,,,,,,,,,,,,,,,,,,,,,,,,,,,,,,,,,,,,,,,,,,,,,,,,,,,,,,,,,,,,,,,,,,,,,,,,,,,,,,,,,,,,,,,
,,,,,,61041810b20dd7b644737b8a,62bbf964397937031b1d4496,2022-06-29_09h05.17.538,Colour_Asymmetry_Pilot,2022.1.3,Win32,60.0276127,62bbe60bf3d75ef465d3e404,0,71,71,34,1,twoone,,,,,,,,,,,,,,,,,,,,,,,,,,,,,,,,,,,,,,,,,,,,,,,,,,,,,,,,,,,,,,,,,,,,,,,,,,,,,,,,,,,,,,,,,,,,,,,,,,,,,,,,,,,,,,,,,,,,,,,,,,,,,,,,,,,,,,,,,,,,,,,,,,,,,,,,
,,,,,,61041810b20dd7b644737b8a,62bbf964397937031b1d4496,2022-06-29_09h05.17.538,Colour_Asymmetry_Pilot,2022.1.3,Win32,60.0276127,62bbe60bf3d75ef465d3e404,0,72,72,46,1,fourtwo,,,,,,,,,,,,,,,,,,,,,,,,,,,,,,,,,,,,,,,,,,,,,,,,,,,,,,,,,,,,,,,,,,,,,,,,,,,,,,,,,,,,,,,,,,,,,,,,,,,,,,,,,,,,,,,,,,,,,,,,,,,,,,,,,,,,,,,,,,,,,,,,,,,,,,,,
,,,,,,61041810b20dd7b644737b8a,62bbf964397937031b1d4496,2022-06-29_09h05.17.538,Colour_Asymmetry_Pilot,2022.1.3,Win32,60.0276127,62bbe60bf3d75ef465d3e404,0,73,73,51,1,twofour,,,,,,,,,,,,,,,,,,,,,,,,,,,,,,,,,,,,,,,,,,,,,,,,,,,,,,,,,,,,,,,,,,,,,,,,,,,,,,,,,,,,,,,,,,,,,,,,,,,,,,,,,,,,,,,,,,,,,,,,,,,,,,,,,,,,,,,,,,,,,,,,,,,,,,,,
,,,,,,61041810b20dd7b644737b8a,62bbf964397937031b1d4496,2022-06-29_09h05.17.538,Colour_Asymmetry_Pilot,2022.1.3,Win32,60.0276127,62bbe60bf3d75ef465d3e404,0,74,74,1,1,onethree,,,,,,,,,,,,,,,,,,,,,,,,,,,,,,,,,,,,,,,,,,,,,,,,,,,,,,,,,,,,,,,,,,,,,,,,,,,,,,,,,,,,,,,,,,,,,,,,,,,,,,,,,,,,,,,,,,,,,,,,,,,,,,,,,,,,,,,,,,,,,,,,,,,,,,,,
,,,,,,61041810b20dd7b644737b8a,62bbf964397937031b1d4496,2022-06-29_09h05.17.538,Colour_Asymmetry_Pilot,2022.1.3,Win32,60.0276127,62bbe60bf3d75ef465d3e404,0,75,75,97,1,onethree,,,,,,,,,,,,,,,,,,,,,,,,,,,,,,,,,,,,,,,,,,,,,,,,,,,,,,,,,,,,,,,,,,,,,,,,,,,,,,,,,,,,,,,,,,,,,,,,,,,,,,,,,,,,,,,,,,,,,,,,,,,,,,,,,,,,,,,,,,,,,,,,,,,,,,,,
,,,,,,61041810b20dd7b644737b8a,62bbf964397937031b1d4496,2022-06-29_09h05.17.538,Colour_Asymmetry_Pilot,2022.1.3,Win32,60.0276127,62bbe60bf3d75ef465d3e404,0,76,76,154,1,twoone,,,,,,,,,,,,,,,,,,,,,,,,,,,,,,,,,,,,,,,,,,,,,,,,,,,,,,,,,,,,,,,,,,,,,,,,,,,,,,,,,,,,,,,,,,,,,,,,,,,,,,,,,,,,,,,,,,,,,,,,,,,,,,,,,,,,,,,,,,,,,,,,,,,,,,,,
,,,,,,61041810b20dd7b644737b8a,62bbf964397937031b1d4496,2022-06-29_09h05.17.538,Colour_Asymmetry_Pilot,2022.1.3,Win32,60.0276127,62bbe60bf3d75ef465d3e404,0,77,77,120,1,onetwo,,,,,,,,,,,,,,,,,,,,,,,,,,,,,,,,,,,,,,,,,,,,,,,,,,,,,,,,,,,,,,,,,,,,,,,,,,,,,,,,,,,,,,,,,,,,,,,,,,,,,,,,,,,,,,,,,,,,,,,,,,,,,,,,,,,,,,,,,,,,,,,,,,,,,,,,
,,,,,,61041810b20dd7b644737b8a,62bbf964397937031b1d4496,2022-06-29_09h05.17.538,Colour_Asymmetry_Pilot,2022.1.3,Win32,60.0276127,62bbe60bf3d75ef465d3e404,0,78,78,31,1,fourthree,,,,,,,,,,,,,,,,,,,,,,,,,,,,,,,,,,,,,,,,,,,,,,,,,,,,,,,,,,,,,,,,,,,,,,,,,,,,,,,,,,,,,,,,,,,,,,,,,,,,,,,,,,,,,,,,,,,,,,,,,,,,,,,,,,,,,,,,,,,,,,,,,,,,,,,,
,,,,,,61041810b20dd7b644737b8a,62bbf964397937031b1d4496,2022-06-29_09h05.17.538,Colour_Asymmetry_Pilot,2022.1.3,Win32,60.0276127,62bbe60bf3d75ef465d3e404,0,79,79,96,1,onetwo,,,,,,,,,,,,,,,,,,,,,,,,,,,,,,,,,,,,,,,,,,,,,,,,,,,,,,,,,,,,,,,,,,,,,,,,,,,,,,,,,,,,,,,,,,,,,,,,,,,,,,,,,,,,,,,,,,,,,,,,,,,,,,,,,,,,,,,,,,,,,,,,,,,,,,,,
,,,,,,61041810b20dd7b644737b8a,62bbf964397937031b1d4496,2022-06-29_09h05.17.538,Colour_Asymmetry_Pilot,2022.1.3,Win32,60.0276127,62bbe60bf3d75ef465d3e404,0,80,80,15,1,fourthree,,,,,,,,,,,,,,,,,,,,,,,,,,,,,,,,,,,,,,,,,,,,,,,,,,,,,,,,,,,,,,,,,,,,,,,,,,,,,,,,,,,,,,,,,,,,,,,,,,,,,,,,,,,,,,,,,,,,,,,,,,,,,,,,,,,,,,,,,,,,,,,,,,,,,,,,
,,,,,,61041810b20dd7b644737b8a,62bbf964397937031b1d4496,2022-06-29_09h05.17.538,Colour_Asymmetry_Pilot,2022.1.3,Win32,60.0276127,62bbe60bf3d75ef465d3e404,0,81,81,81,1,onethree,,,,,,,,,,,,,,,,,,,,,,,,,,,,,,,,,,,,,,,,,,,,,,,,,,,,,,,,,,,,,,,,,,,,,,,,,,,,,,,,,,,,,,,,,,,,,,,,,,,,,,,,,,,,,,,,,,,,,,,,,,,,,,,,,,,,,,,,,,,,,,,,,,,,,,,,
,,,,,,61041810b20dd7b644737b8a,62bbf964397937031b1d4496,2022-06-29_09h05.17.538,Colour_Asymmetry_Pilot,2022.1.3,Win32,60.0276127,62bbe60bf3d75ef465d3e404,0,82,82,71,1,fourthree,,,,,,,,,,,,,,,,,,,,,,,,,,,,,,,,,,,,,,,,,,,,,,,,,,,,,,,,,,,,,,,,,,,,,,,,,,,,,,,,,,,,,,,,,,,,,,,,,,,,,,,,,,,,,,,,,,,,,,,,,,,,,,,,,,,,,,,,,,,,,,,,,,,,,,,,
,,,,,,61041810b20dd7b644737b8a,62bbf964397937031b1d4496,2022-06-29_09h05.17.538,Colour_Asymmetry_Pilot,2022.1.3,Win32,60.0276127,62bbe60bf3d75ef465d3e404,0,83,83,8,1,onetwo,,,,,,,,,,,,,,,,,,,,,,,,,,,,,,,,,,,,,,,,,,,,,,,,,,,,,,,,,,,,,,,,,,,,,,,,,,,,,,,,,,,,,,,,,,,,,,,,,,,,,,,,,,,,,,,,,,,,,,,,,,,,,,,,,,,,,,,,,,,,,,,,,,,,,,,,
,,,,,,61041810b20dd7b644737b8a,62bbf964397937031b1d4496,2022-06-29_09h05.17.538,Colour_Asymmetry_Pilot,2022.1.3,Win32,60.0276127,62bbe60bf3d75ef465d3e404,0,84,84,3,1,twofour,,,,,,,,,,,,,,,,,,,,,,,,,,,,,,,,,,,,,,,,,,,,,,,,,,,,,,,,,,,,,,,,,,,,,,,,,,,,,,,,,,,,,,,,,,,,,,,,,,,,,,,,,,,,,,,,,,,,,,,,,,,,,,,,,,,,,,,,,,,,,,,,,,,,,,,,
,,,,,,61041810b20dd7b644737b8a,62bbf964397937031b1d4496,2022-06-29_09h05.17.538,Colour_Asymmetry_Pilot,2022.1.3,Win32,60.0276127,62bbe60bf3d75ef465d3e404,0,85,85,119,1,fourthree,,,,,,,,,,,,,,,,,,,,,,,,,,,,,,,,,,,,,,,,,,,,,,,,,,,,,,,,,,,,,,,,,,,,,,,,,,,,,,,,,,,,,,,,,,,,,,,,,,,,,,,,,,,,,,,,,,,,,,,,,,,,,,,,,,,,,,,,,,,,,,,,,,,,,,,,
,,,,,,61041810b20dd7b644737b8a,62bbf964397937031b1d4496,2022-06-29_09h05.17.538,Colour_Asymmetry_Pilot,2022.1.3,Win32,60.0276127,62bbe60bf3d75ef465d3e404,0,86,86,41,1,onethree,,,,,,,,,,,,,,,,,,,,,,,,,,,,,,,,,,,,,,,,,,,,,,,,,,,,,,,,,,,,,,,,,,,,,,,,,,,,,,,,,,,,,,,,,,,,,,,,,,,,,,,,,,,,,,,,,,,,,,,,,,,,,,,,,,,,,,,,,,,,,,,,,,,,,,,,
,,,,,,61041810b20dd7b644737b8a,62bbf964397937031b1d4496,2022-06-29_09h05.17.538,Colour_Asymmetry_Pilot,2022.1.3,Win32,60.0276127,62bbe60bf3d75ef465d3e404,0,87,87,106,1,twoone,,,,,,,,,,,,,,,,,,,,,,,,,,,,,,,,,,,,,,,,,,,,,,,,,,,,,,,,,,,,,,,,,,,,,,,,,,,,,,,,,,,,,,,,,,,,,,,,,,,,,,,,,,,,,,,,,,,,,,,,,,,,,,,,,,,,,,,,,,,,,,,,,,,,,,,,
,,,,,,61041810b20dd7b644737b8a,62bbf964397937031b1d4496,2022-06-29_09h05.17.538,Colour_Asymmetry_Pilot,2022.1.3,Win32,60.0276127,62bbe60bf3d75ef465d3e404,0,88,88,100,1,threeone,,,,,,,,,,,,,,,,,,,,,,,,,,,,,,,,,,,,,,,,,,,,,,,,,,,,,,,,,,,,,,,,,,,,,,,,,,,,,,,,,,,,,,,,,,,,,,,,,,,,,,,,,,,,,,,,,,,,,,,,,,,,,,,,,,,,,,,,,,,,,,,,,,,,,,,,
,,,,,,61041810b20dd7b644737b8a,62bbf964397937031b1d4496,2022-06-29_09h05.17.538,Colour_Asymmetry_Pilot,2022.1.3,Win32,60.0276127,62bbe60bf3d75ef465d3e404,0,89,89,109,1,threefour,,,,,,,,,,,,,,,,,,,,,,,,,,,,,,,,,,,,,,,,,,,,,,,,,,,,,,,,,,,,,,,,,,,,,,,,,,,,,,,,,,,,,,,,,,,,,,,,,,,,,,,,,,,,,,,,,,,,,,,,,,,,,,,,,,,,,,,,,,,,,,,,,,,,,,,,
,,,,,,61041810b20dd7b644737b8a,62bbf964397937031b1d4496,2022-06-29_09h05.17.538,Colour_Asymmetry_Pilot,2022.1.3,Win32,60.0276127,62bbe60bf3d75ef465d3e404,0,90,90,86,1,fourtwo,,,,,,,,,,,,,,,,,,,,,,,,,,,,,,,,,,,,,,,,,,,,,,,,,,,,,,,,,,,,,,,,,,,,,,,,,,,,,,,,,,,,,,,,,,,,,,,,,,,,,,,,,,,,,,,,,,,,,,,,,,,,,,,,,,,,,,,,,,,,,,,,,,,,,,,,
,,,,,,61041810b20dd7b644737b8a,62bbf964397937031b1d4496,2022-06-29_09h05.17.538,Colour_Asymmetry_Pilot,2022.1.3,Win32,60.0276127,62bbe60bf3d75ef465d3e404,0,91,91,22,1,fourtwo,,,,,,,,,,,,,,,,,,,,,,,,,,,,,,,,,,,,,,,,,,,,,,,,,,,,,,,,,,,,,,,,,,,,,,,,,,,,,,,,,,,,,,,,,,,,,,,,,,,,,,,,,,,,,,,,,,,,,,,,,,,,,,,,,,,,,,,,,,,,,,,,,,,,,,,,
,,,,,,61041810b20dd7b644737b8a,62bbf964397937031b1d4496,2022-06-29_09h05.17.538,Colour_Asymmetry_Pilot,2022.1.3,Win32,60.0276127,62bbe60bf3d75ef465d3e404,0,92,92,10,1,twoone,,,,,,,,,,,,,,,,,,,,,,,,,,,,,,,,,,,,,,,,,,,,,,,,,,,,,,,,,,,,,,,,,,,,,,,,,,,,,,,,,,,,,,,,,,,,,,,,,,,,,,,,,,,,,,,,,,,,,,,,,,,,,,,,,,,,,,,,,,,,,,,,,,,,,,,,
,,,,,,61041810b20dd7b644737b8a,62bbf964397937031b1d4496,2022-06-29_09h05.17.538,Colour_Asymmetry_Pilot,2022.1.3,Win32,60.0276127,62bbe60bf3d75ef465d3e404,0,93,93,114,1,twoone,,,,,,,,,,,,,,,,,,,,,,,,,,,,,,,,,,,,,,,,,,,,,,,,,,,,,,,,,,,,,,,,,,,,,,,,,,,,,,,,,,,,,,,,,,,,,,,,,,,,,,,,,,,,,,,,,,,,,,,,,,,,,,,,,,,,,,,,,,,,,,,,,,,,,,,,
,,,,,,61041810b20dd7b644737b8a,62bbf964397937031b1d4496,2022-06-29_09h05.17.538,Colour_Asymmetry_Pilot,2022.1.3,Win32,60.0276127,62bbe60bf3d75ef465d3e404,0,94,94,134,1,fourtwo,,,,,,,,,,,,,,,,,,,,,,,,,,,,,,,,,,,,,,,,,,,,,,,,,,,,,,,,,,,,,,,,,,,,,,,,,,,,,,,,,,,,,,,,,,,,,,,,,,,,,,,,,,,,,,,,,,,,,,,,,,,,,,,,,,,,,,,,,,,,,,,,,,,,,,,,
,,,,,,61041810b20dd7b644737b8a,62bbf964397937031b1d4496,2022-06-29_09h05.17.538,Colour_Asymmetry_Pilot,2022.1.3,Win32,60.0276127,62bbe60bf3d75ef465d3e404,0,95,95,35,1,twofour,,,,,,,,,,,,,,,,,,,,,,,,,,,,,,,,,,,,,,,,,,,,,,,,,,,,,,,,,,,,,,,,,,,,,,,,,,,,,,,,,,,,,,,,,,,,,,,,,,,,,,,,,,,,,,,,,,,,,,,,,,,,,,,,,,,,,,,,,,,,,,,,,,,,,,,,
,,,,,,61041810b20dd7b644737b8a,62bbf964397937031b1d4496,2022-06-29_09h05.17.538,Colour_Asymmetry_Pilot,2022.1.3,Win32,60.0276127,62bbe60bf3d75ef465d3e404,0,96,96,49,1,onethree,,,,,,,,,,,,,,,,,,,,,,,,,,,,,,,,,,,,,,,,,,,,,,,,,,,,,,,,,,,,,,,,,,,,,,,,,,,,,,,,,,,,,,,,,,,,,,,,,,,,,,,,,,,,,,,,,,,,,,,,,,,,,,,,,,,,,,,,,,,,,,,,,,,,,,,,
,,,,,,61041810b20dd7b644737b8a,62bbf964397937031b1d4496,2022-06-29_09h05.17.538,Colour_Asymmetry_Pilot,2022.1.3,Win32,60.0276127,62bbe60bf3d75ef465d3e404,0,97,97,16,1,onetwo,,,,,,,,,,,,,,,,,,,,,,,,,,,,,,,,,,,,,,,,,,,,,,,,,,,,,,,,,,,,,,,,,,,,,,,,,,,,,,,,,,,,,,,,,,,,,,,,,,,,,,,,,,,,,,,,,,,,,,,,,,,,,,,,,,,,,,,,,,,,,,,,,,,,,,,,
,,,,,,61041810b20dd7b644737b8a,62bbf964397937031b1d4496,2022-06-29_09h05.17.538,Colour_Asymmetry_Pilot,2022.1.3,Win32,60.0276127,62bbe60bf3d75ef465d3e404,0,98,98,6,1,fourtwo,,,,,,,,,,,,,,,,,,,,,,,,,,,,,,,,,,,,,,,,,,,,,,,,,,,,,,,,,,,,,,,,,,,,,,,,,,,,,,,,,,,,,,,,,,,,,,,,,,,,,,,,,,,,,,,,,,,,,,,,,,,,,,,,,,,,,,,,,,,,,,,,,,,,,,,,
,,,,,,61041810b20dd7b644737b8a,62bbf964397937031b1d4496,2022-06-29_09h05.17.538,Colour_Asymmetry_Pilot,2022.1.3,Win32,60.0276127,62bbe60bf3d75ef465d3e404,0,99,99,42,1,twoone,,,,,,,,,,,,,,,,,,,,,,,,,,,,,,,,,,,,,,,,,,,,,,,,,,,,,,,,,,,,,,,,,,,,,,,,,,,,,,,,,,,,,,,,,,,,,,,,,,,,,,,,,,,,,,,,,,,,,,,,,,,,,,,,,,,,,,,,,,,,,,,,,,,,,,,,
,,,,,,61041810b20dd7b644737b8a,62bbf964397937031b1d4496,2022-06-29_09h05.17.538,Colour_Asymmetry_Pilot,2022.1.3,Win32,60.0276127,62bbe60bf3d75ef465d3e404,0,100,100,157,1,threefour,,,,,,,,,,,,,,,,,,,,,,,,,,,,,,,,,,,,,,,,,,,,,,,,,,,,,,,,,,,,,,,,,,,,,,,,,,,,,,,,,,,,,,,,,,,,,,,,,,,,,,,,,,,,,,,,,,,,,,,,,,,,,,,,,,,,,,,,,,,,,,,,,,,,,,,,
,,,,,,61041810b20dd7b644737b8a,62bbf964397937031b1d4496,2022-06-29_09h05.17.538,Colour_Asymmetry_Pilot,2022.1.3,Win32,60.0276127,62bbe60bf3d75ef465d3e404,0,101,101,18,1,twoone,,,,,,,,,,,,,,,,,,,,,,,,,,,,,,,,,,,,,,,,,,,,,,,,,,,,,,,,,,,,,,,,,,,,,,,,,,,,,,,,,,,,,,,,,,,,,,,,,,,,,,,,,,,,,,,,,,,,,,,,,,,,,,,,,,,,,,,,,,,,,,,,,,,,,,,,
,,,,,,61041810b20dd7b644737b8a,62bbf964397937031b1d4496,2022-06-29_09h05.17.538,Colour_Asymmetry_Pilot,2022.1.3,Win32,60.0276127,62bbe60bf3d75ef465d3e404,0,102,102,129,1,onethree,,,,,,,,,,,,,,,,,,,,,,,,,,,,,,,,,,,,,,,,,,,,,,,,,,,,,,,,,,,,,,,,,,,,,,,,,,,,,,,,,,,,,,,,,,,,,,,,,,,,,,,,,,,,,,,,,,,,,,,,,,,,,,,,,,,,,,,,,,,,,,,,,,,,,,,,
,,,,,,61041810b20dd7b644737b8a,62bbf964397937031b1d4496,2022-06-29_09h05.17.538,Colour_Asymmetry_Pilot,2022.1.3,Win32,60.0276127,62bbe60bf3d75ef465d3e404,0,103,103,7,1,fourthree,,,,,,,,,,,,,,,,,,,,,,,,,,,,,,,,,,,,,,,,,,,,,,,,,,,,,,,,,,,,,,,,,,,,,,,,,,,,,,,,,,,,,,,,,,,,,,,,,,,,,,,,,,,,,,,,,,,,,,,,,,,,,,,,,,,,,,,,,,,,,,,,,,,,,,,,
,,,,,,61041810b20dd7b644737b8a,62bbf964397937031b1d4496,2022-06-29_09h05.17.538,Colour_Asymmetry_Pilot,2022.1.3,Win32,60.0276127,62bbe60bf3d75ef465d3e404,0,104,104,160,1,onetwo,,,,,,,,,,,,,,,,,,,,,,,,,,,,,,,,,,,,,,,,,,,,,,,,,,,,,,,,,,,,,,,,,,,,,,,,,,,,,,,,,,,,,,,,,,,,,,,,,,,,,,,,,,,,,,,,,,,,,,,,,,,,,,,,,,,,,,,,,,,,,,,,,,,,,,,,
,,,,,,61041810b20dd7b644737b8a,62bbf964397937031b1d4496,2022-06-29_09h05.17.538,Colour_Asymmetry_Pilot,2022.1.3,Win32,60.0276127,62bbe60bf3d75ef465d3e404,0,105,105,44,1,threeone,,,,,,,,,,,,,,,,,,,,,,,,,,,,,,,,,,,,,,,,,,,,,,,,,,,,,,,,,,,,,,,,,,,,,,,,,,,,,,,,,,,,,,,,,,,,,,,,,,,,,,,,,,,,,,,,,,,,,,,,,,,,,,,,,,,,,,,,,,,,,,,,,,,,,,,,
,,,,,,61041810b20dd7b644737b8a,62bbf964397937031b1d4496,2022-06-29_09h05.17.538,Colour_Asymmetry_Pilot,2022.1.3,Win32,60.0276127,62bbe60bf3d75ef465d3e404,0,106,106,75,1,twofour,,,,,,,,,,,,,,,,,,,,,,,,,,,,,,,,,,,,,,,,,,,,,,,,,,,,,,,,,,,,,,,,,,,,,,,,,,,,,,,,,,,,,,,,,,,,,,,,,,,,,,,,,,,,,,,,,,,,,,,,,,,,,,,,,,,,,,,,,,,,,,,,,,,,,,,,
,,,,,,61041810b20dd7b644737b8a,62bbf964397937031b1d4496,2022-06-29_09h05.17.538,Colour_Asymmetry_Pilot,2022.1.3,Win32,60.0276127,62bbe60bf3d75ef465d3e404,0,107,107,136,1,onetwo,,,,,,,,,,,,,,,,,,,,,,,,,,,,,,,,,,,,,,,,,,,,,,,,,,,,,,,,,,,,,,,,,,,,,,,,,,,,,,,,,,,,,,,,,,,,,,,,,,,,,,,,,,,,,,,,,,,,,,,,,,,,,,,,,,,,,,,,,,,,,,,,,,,,,,,,
,,,,,,61041810b20dd7b644737b8a,62bbf964397937031b1d4496,2022-06-29_09h05.17.538,Colour_Asymmetry_Pilot,2022.1.3,Win32,60.0276127,62bbe60bf3d75ef465d3e404,0,108,108,94,1,fourtwo,,,,,,,,,,,,,,,,,,,,,,,,,,,,,,,,,,,,,,,,,,,,,,,,,,,,,,,,,,,,,,,,,,,,,,,,,,,,,,,,,,,,,,,,,,,,,,,,,,,,,,,,,,,,,,,,,,,,,,,,,,,,,,,,,,,,,,,,,,,,,,,,,,,,,,,,
,,,,,,61041810b20dd7b644737b8a,62bbf964397937031b1d4496,2022-06-29_09h05.17.538,Colour_Asymmetry_Pilot,2022.1.3,Win32,60.0276127,62bbe60bf3d75ef465d3e404,0,109,109,57,1,onethree,,,,,,,,,,,,,,,,,,,,,,,,,,,,,,,,,,,,,,,,,,,,,,,,,,,,,,,,,,,,,,,,,,,,,,,,,,,,,,,,,,,,,,,,,,,,,,,,,,,,,,,,,,,,,,,,,,,,,,,,,,,,,,,,,,,,,,,,,,,,,,,,,,,,,,,,
,,,,,,61041810b20dd7b644737b8a,62bbf964397937031b1d4496,2022-06-29_09h05.17.538,Colour_Asymmetry_Pilot,2022.1.3,Win32,60.0276127,62bbe60bf3d75ef465d3e404,0,110,110,88,1,onetwo,,,,,,,,,,,,,,,,,,,,,,,,,,,,,,,,,,,,,,,,,,,,,,,,,,,,,,,,,,,,,,,,,,,,,,,,,,,,,,,,,,,,,,,,,,,,,,,,,,,,,,,,,,,,,,,,,,,,,,,,,,,,,,,,,,,,,,,,,,,,,,,,,,,,,,,,
,,,,,,61041810b20dd7b644737b8a,62bbf964397937031b1d4496,2022-06-29_09h05.17.538,Colour_Asymmetry_Pilot,2022.1.3,Win32,60.0276127,62bbe60bf3d75ef465d3e404,0,111,111,133,1,threefour,,,,,,,,,,,,,,,,,,,,,,,,,,,,,,,,,,,,,,,,,,,,,,,,,,,,,,,,,,,,,,,,,,,,,,,,,,,,,,,,,,,,,,,,,,,,,,,,,,,,,,,,,,,,,,,,,,,,,,,,,,,,,,,,,,,,,,,,,,,,,,,,,,,,,,,,
,,,,,,61041810b20dd7b644737b8a,62bbf964397937031b1d4496,2022-06-29_09h05.17.538,Colour_Asymmetry_Pilot,2022.1.3,Win32,60.0276127,62bbe60bf3d75ef465d3e404,0,112,112,140,1,threeone,,,,,,,,,,,,,,,,,,,,,,,,,,,,,,,,,,,,,,,,,,,,,,,,,,,,,,,,,,,,,,,,,,,,,,,,,,,,,,,,,,,,,,,,,,,,,,,,,,,,,,,,,,,,,,,,,,,,,,,,,,,,,,,,,,,,,,,,,,,,,,,,,,,,,,,,
,,,,,,61041810b20dd7b644737b8a,62bbf964397937031b1d4496,2022-06-29_09h05.17.538,Colour_Asymmetry_Pilot,2022.1.3,Win32,60.0276127,62bbe60bf3d75ef465d3e404,0,113,113,113,1,onethree,,,,,,,,,,,,,,,,,,,,,,,,,,,,,,,,,,,,,,,,,,,,,,,,,,,,,,,,,,,,,,,,,,,,,,,,,,,,,,,,,,,,,,,,,,,,,,,,,,,,,,,,,,,,,,,,,,,,,,,,,,,,,,,,,,,,,,,,,,,,,,,,,,,,,,,,
,,,,,,61041810b20dd7b644737b8a,62bbf964397937031b1d4496,2022-06-29_09h05.17.538,Colour_Asymmetry_Pilot,2022.1.3,Win32,60.0276127,62bbe60bf3d75ef465d3e404,0,114,114,4,1,threeone,,,,,,,,,,,,,,,,,,,,,,,,,,,,,,,,,,,,,,,,,,,,,,,,,,,,,,,,,,,,,,,,,,,,,,,,,,,,,,,,,,,,,,,,,,,,,,,,,,,,,,,,,,,,,,,,,,,,,,,,,,,,,,,,,,,,,,,,,,,,,,,,,,,,,,,,
,,,,,,61041810b20dd7b644737b8a,62bbf964397937031b1d4496,2022-06-29_09h05.17.538,Colour_Asymmetry_Pilot,2022.1.3,Win32,60.0276127,62bbe60bf3d75ef465d3e404,0,115,115,143,1,fourthree,,,,,,,,,,,,,,,,,,,,,,,,,,,,,,,,,,,,,,,,,,,,,,,,,,,,,,,,,,,,,,,,,,,,,,,,,,,,,,,,,,,,,,,,,,,,,,,,,,,,,,,,,,,,,,,,,,,,,,,,,,,,,,,,,,,,,,,,,,,,,,,,,,,,,,,,
,,,,,,61041810b20dd7b644737b8a,62bbf964397937031b1d4496,2022-06-29_09h05.17.538,Colour_Asymmetry_Pilot,2022.1.3,Win32,60.0276127,62bbe60bf3d75ef465d3e404,0,116,116,131,1,twofour,,,,,,,,,,,,,,,,,,,,,,,,,,,,,,,,,,,,,,,,,,,,,,,,,,,,,,,,,,,,,,,,,,,,,,,,,,,,,,,,,,,,,,,,,,,,,,,,,,,,,,,,,,,,,,,,,,,,,,,,,,,,,,,,,,,,,,,,,,,,,,,,,,,,,,,,
,,,,,,61041810b20dd7b644737b8a,62bbf964397937031b1d4496,2022-06-29_09h05.17.538,Colour_Asymmetry_Pilot,2022.1.3,Win32,60.0276127,62bbe60bf3d75ef465d3e404,0,117,117,161,1,onethree,,,,,,,,,,,,,,,,,,,,,,,,,,,,,,,,,,,,,,,,,,,,,,,,,,,,,,,,,,,,,,,,,,,,,,,,,,,,,,,,,,,,,,,,,,,,,,,,,,,,,,,,,,,,,,,,,,,,,,,,,,,,,,,,,,,,,,,,,,,,,,,,,,,,,,,,
,,,,,,61041810b20dd7b644737b8a,62bbf964397937031b1d4496,2022-06-29_09h05.17.538,Colour_Asymmetry_Pilot,2022.1.3,Win32,60.0276127,62bbe60bf3d75ef465d3e404,0,118,118,145,1,onethree,,,,,,,,,,,,,,,,,,,,,,,,,,,,,,,,,,,,,,,,,,,,,,,,,,,,,,,,,,,,,,,,,,,,,,,,,,,,,,,,,,,,,,,,,,,,,,,,,,,,,,,,,,,,,,,,,,,,,,,,,,,,,,,,,,,,,,,,,,,,,,,,,,,,,,,,
,,,,,,61041810b20dd7b644737b8a,62bbf964397937031b1d4496,2022-06-29_09h05.17.538,Colour_Asymmetry_Pilot,2022.1.3,Win32,60.0276127,62bbe60bf3d75ef465d3e404,0,119,119,104,1,onetwo,,,,,,,,,,,,,,,,,,,,,,,,,,,,,,,,,,,,,,,,,,,,,,,,,,,,,,,,,,,,,,,,,,,,,,,,,,,,,,,,,,,,,,,,,,,,,,,,,,,,,,,,,,,,,,,,,,,,,,,,,,,,,,,,,,,,,,,,,,,,,,,,,,,,,,,,
,,,,,,61041810b20dd7b644737b8a,62bbf964397937031b1d4496,2022-06-29_09h05.17.538,Colour_Asymmetry_Pilot,2022.1.3,Win32,60.0276127,62bbe60bf3d75ef465d3e404,0,120,120,64,1,onetwo,,,,,,,,,,,,,,,,,,,,,,,,,,,,,,,,,,,,,,,,,,,,,,,,,,,,,,,,,,,,,,,,,,,,,,,,,,,,,,,,,,,,,,,,,,,,,,,,,,,,,,,,,,,,,,,,,,,,,,,,,,,,,,,,,,,,,,,,,,,,,,,,,,,,,,,,
,,,,,,61041810b20dd7b644737b8a,62bbf964397937031b1d4496,2022-06-29_09h05.17.538,Colour_Asymmetry_Pilot,2022.1.3,Win32,60.0276127,62bbe60bf3d75ef465d3e404,0,121,121,80,1,onetwo,,,,,,,,,,,,,,,,,,,,,,,,,,,,,,,,,,,,,,,,,,,,,,,,,,,,,,,,,,,,,,,,,,,,,,,,,,,,,,,,,,,,,,,,,,,,,,,,,,,,,,,,,,,,,,,,,,,,,,,,,,,,,,,,,,,,,,,,,,,,,,,,,,,,,,,,
,,,,,,61041810b20dd7b644737b8a,62bbf964397937031b1d4496,2022-06-29_09h05.17.538,Colour_Asymmetry_Pilot,2022.1.3,Win32,60.0276127,62bbe60bf3d75ef465d3e404,0,122,122,83,1,twofour,,,,,,,,,,,,,,,,,,,,,,,,,,,,,,,,,,,,,,,,,,,,,,,,,,,,,,,,,,,,,,,,,,,,,,,,,,,,,,,,,,,,,,,,,,,,,,,,,,,,,,,,,,,,,,,,,,,,,,,,,,,,,,,,,,,,,,,,,,,,,,,,,,,,,,,,
,,,,,,61041810b20dd7b644737b8a,62bbf964397937031b1d4496,2022-06-29_09h05.17.538,Colour_Asymmetry_Pilot,2022.1.3,Win32,60.0276127,62bbe60bf3d75ef465d3e404,0,123,123,12,1,threeone,,,,,,,,,,,,,,,,,,,,,,,,,,,,,,,,,,,,,,,,,,,,,,,,,,,,,,,,,,,,,,,,,,,,,,,,,,,,,,,,,,,,,,,,,,,,,,,,,,,,,,,,,,,,,,,,,,,,,,,,,,,,,,,,,,,,,,,,,,,,,,,,,,,,,,,,
,,,,,,61041810b20dd7b644737b8a,62bbf964397937031b1d4496,2022-06-29_09h05.17.538,Colour_Asymmetry_Pilot,2022.1.3,Win32,60.0276127,62bbe60bf3d75ef465d3e404,0,124,124,25,1,onethree,,,,,,,,,,,,,,,,,,,,,,,,,,,,,,,,,,,,,,,,,,,,,,,,,,,,,,,,,,,,,,,,,,,,,,,,,,,,,,,,,,,,,,,,,,,,,,,,,,,,,,,,,,,,,,,,,,,,,,,,,,,,,,,,,,,,,,,,,,,,,,,,,,,,,,,,
,,,,,,61041810b20dd7b644737b8a,62bbf964397937031b1d4496,2022-06-29_09h05.17.538,Colour_Asymmetry_Pilot,2022.1.3,Win32,60.0276127,62bbe60bf3d75ef465d3e404,0,125,125,59,1,twofour,,,,,,,,,,,,,,,,,,,,,,,,,,,,,,,,,,,,,,,,,,,,,,,,,,,,,,,,,,,,,,,,,,,,,,,,,,,,,,,,,,,,,,,,,,,,,,,,,,,,,,,,,,,,,,,,,,,,,,,,,,,,,,,,,,,,,,,,,,,,,,,,,,,,,,,,
,,,,,,61041810b20dd7b644737b8a,62bbf964397937031b1d4496,2022-06-29_09h05.17.538,Colour_Asymmetry_Pilot,2022.1.3,Win32,60.0276127,62bbe60bf3d75ef465d3e404,0,126,126,78,1,fourtwo,,,,,,,,,,,,,,,,,,,,,,,,,,,,,,,,,,,,,,,,,,,,,,,,,,,,,,,,,,,,,,,,,,,,,,,,,,,,,,,,,,,,,,,,,,,,,,,,,,,,,,,,,,,,,,,,,,,,,,,,,,,,,,,,,,,,,,,,,,,,,,,,,,,,,,,,
,,,,,,61041810b20dd7b644737b8a,62bbf964397937031b1d4496,2022-06-29_09h05.17.538,Colour_Asymmetry_Pilot,2022.1.3,Win32,60.0276127,62bbe60bf3d75ef465d3e404,0,127,127,132,1,threeone,,,,,,,,,,,,,,,,,,,,,,,,,,,,,,,,,,,,,,,,,,,,,,,,,,,,,,,,,,,,,,,,,,,,,,,,,,,,,,,,,,,,,,,,,,,,,,,,,,,,,,,,,,,,,,,,,,,,,,,,,,,,,,,,,,,,,,,,,,,,,,,,,,,,,,,,
,,,,,,61041810b20dd7b644737b8a,62bbf964397937031b1d4496,2022-06-29_09h05.17.538,Colour_Asymmetry_Pilot,2022.1.3,Win32,60.0276127,62bbe60bf3d75ef465d3e404,0,128,128,72,1,onetwo,,,,,,,,,,,,,,,,,,,,,,,,,,,,,,,,,,,,,,,,,,,,,,,,,,,,,,,,,,,,,,,,,,,,,,,,,,,,,,,,,,,,,,,,,,,,,,,,,,,,,,,,,,,,,,,,,,,,,,,,,,,,,,,,,,,,,,,,,,,,,,,,,,,,,,,,
,,,,,,61041810b20dd7b644737b8a,62bbf964397937031b1d4496,2022-06-29_09h05.17.538,Colour_Asymmetry_Pilot,2022.1.3,Win32,60.0276127,62bbe60bf3d75ef465d3e404,0,129,129,19,1,twofour,,,,,,,,,,,,,,,,,,,,,,,,,,,,,,,,,,,,,,,,,,,,,,,,,,,,,,,,,,,,,,,,,,,,,,,,,,,,,,,,,,,,,,,,,,,,,,,,,,,,,,,,,,,,,,,,,,,,,,,,,,,,,,,,,,,,,,,,,,,,,,,,,,,,,,,,
,,,,,,61041810b20dd7b644737b8a,62bbf964397937031b1d4496,2022-06-29_09h05.17.538,Colour_Asymmetry_Pilot,2022.1.3,Win32,60.0276127,62bbe60bf3d75ef465d3e404,0,130,130,38,1,fourtwo,,,,,,,,,,,,,,,,,,,,,,,,,,,,,,,,,,,,,,,,,,,,,,,,,,,,,,,,,,,,,,,,,,,,,,,,,,,,,,,,,,,,,,,,,,,,,,,,,,,,,,,,,,,,,,,,,,,,,,,,,,,,,,,,,,,,,,,,,,,,,,,,,,,,,,,,
,,,,,,61041810b20dd7b644737b8a,62bbf964397937031b1d4496,2022-06-29_09h05.17.538,Colour_Asymmetry_Pilot,2022.1.3,Win32,60.0276127,62bbe60bf3d75ef465d3e404,0,131,131,146,1,twoone,,,,,,,,,,,,,,,,,,,,,,,,,,,,,,,,,,,,,,,,,,,,,,,,,,,,,,,,,,,,,,,,,,,,,,,,,,,,,,,,,,,,,,,,,,,,,,,,,,,,,,,,,,,,,,,,,,,,,,,,,,,,,,,,,,,,,,,,,,,,,,,,,,,,,,,,
,,,,,,61041810b20dd7b644737b8a,62bbf964397937031b1d4496,2022-06-29_09h05.17.538,Colour_Asymmetry_Pilot,2022.1.3,Win32,60.0276127,62bbe60bf3d75ef465d3e404,0,132,132,2,1,twoone,,,,,,,,,,,,,,,,,,,,,,,,,,,,,,,,,,,,,,,,,,,,,,,,,,,,,,,,,,,,,,,,,,,,,,,,,,,,,,,,,,,,,,,,,,,,,,,,,,,,,,,,,,,,,,,,,,,,,,,,,,,,,,,,,,,,,,,,,,,,,,,,,,,,,,,,
,,,,,,61041810b20dd7b644737b8a,62bbf964397937031b1d4496,2022-06-29_09h05.17.538,Colour_Asymmetry_Pilot,2022.1.3,Win32,60.0276127,62bbe60bf3d75ef465d3e404,0,133,133,112,1,onetwo,,,,,,,,,,,,,,,,,,,,,,,,,,,,,,,,,,,,,,,,,,,,,,,,,,,,,,,,,,,,,,,,,,,,,,,,,,,,,,,,,,,,,,,,,,,,,,,,,,,,,,,,,,,,,,,,,,,,,,,,,,,,,,,,,,,,,,,,,,,,,,,,,,,,,,,,
,,,,,,61041810b20dd7b644737b8a,62bbf964397937031b1d4496,2022-06-29_09h05.17.538,Colour_Asymmetry_Pilot,2022.1.3,Win32,60.0276127,62bbe60bf3d75ef465d3e404,0,134,134,5,1,threefour,,,,,,,,,,,,,,,,,,,,,,,,,,,,,,,,,,,,,,,,,,,,,,,,,,,,,,,,,,,,,,,,,,,,,,,,,,,,,,,,,,,,,,,,,,,,,,,,,,,,,,,,,,,,,,,,,,,,,,,,,,,,,,,,,,,,,,,,,,,,,,,,,,,,,,,,
,,,,,,61041810b20dd7b644737b8a,62bbf964397937031b1d4496,2022-06-29_09h05.17.538,Colour_Asymmetry_Pilot,2022.1.3,Win32,60.0276127,62bbe60bf3d75ef465d3e404,0,135,135,151,1,fourthree,,,,,,,,,,,,,,,,,,,,,,,,,,,,,,,,,,,,,,,,,,,,,,,,,,,,,,,,,,,,,,,,,,,,,,,,,,,,,,,,,,,,,,,,,,,,,,,,,,,,,,,,,,,,,,,,,,,,,,,,,,,,,,,,,,,,,,,,,,,,,,,,,,,,,,,,
,,,,,,61041810b20dd7b644737b8a,62bbf964397937031b1d4496,2022-06-29_09h05.17.538,Colour_Asymmetry_Pilot,2022.1.3,Win32,60.0276127,62bbe60bf3d75ef465d3e404,0,136,136,66,1,twoone,,,,,,,,,,,,,,,,,,,,,,,,,,,,,,,,,,,,,,,,,,,,,,,,,,,,,,,,,,,,,,,,,,,,,,,,,,,,,,,,,,,,,,,,,,,,,,,,,,,,,,,,,,,,,,,,,,,,,,,,,,,,,,,,,,,,,,,,,,,,,,,,,,,,,,,,
,,,,,,61041810b20dd7b644737b8a,62bbf964397937031b1d4496,2022-06-29_09h05.17.538,Colour_Asymmetry_Pilot,2022.1.3,Win32,60.0276127,62bbe60bf3d75ef465d3e404,0,137,137,98,1,twoone,,,,,,,,,,,,,,,,,,,,,,,,,,,,,,,,,,,,,,,,,,,,,,,,,,,,,,,,,,,,,,,,,,,,,,,,,,,,,,,,,,,,,,,,,,,,,,,,,,,,,,,,,,,,,,,,,,,,,,,,,,,,,,,,,,,,,,,,,,,,,,,,,,,,,,,,
,,,,,,61041810b20dd7b644737b8a,62bbf964397937031b1d4496,2022-06-29_09h05.17.538,Colour_Asymmetry_Pilot,2022.1.3,Win32,60.0276127,62bbe60bf3d75ef465d3e404,0,138,138,99,1,twofour,,,,,,,,,,,,,,,,,,,,,,,,,,,,,,,,,,,,,,,,,,,,,,,,,,,,,,,,,,,,,,,,,,,,,,,,,,,,,,,,,,,,,,,,,,,,,,,,,,,,,,,,,,,,,,,,,,,,,,,,,,,,,,,,,,,,,,,,,,,,,,,,,,,,,,,,
,,,,,,61041810b20dd7b644737b8a,62bbf964397937031b1d4496,2022-06-29_09h05.17.538,Colour_Asymmetry_Pilot,2022.1.3,Win32,60.0276127,62bbe60bf3d75ef465d3e404,0,139,139,139,1,twofour,,,,,,,,,,,,,,,,,,,,,,,,,,,,,,,,,,,,,,,,,,,,,,,,,,,,,,,,,,,,,,,,,,,,,,,,,,,,,,,,,,,,,,,,,,,,,,,,,,,,,,,,,,,,,,,,,,,,,,,,,,,,,,,,,,,,,,,,,,,,,,,,,,,,,,,,
,,,,,,61041810b20dd7b644737b8a,62bbf964397937031b1d4496,2022-06-29_09h05.17.538,Colour_Asymmetry_Pilot,2022.1.3,Win32,60.0276127,62bbe60bf3d75ef465d3e404,0,140,140,67,1,twofour,,,,,,,,,,,,,,,,,,,,,,,,,,,,,,,,,,,,,,,,,,,,,,,,,,,,,,,,,,,,,,,,,,,,,,,,,,,,,,,,,,,,,,,,,,,,,,,,,,,,,,,,,,,,,,,,,,,,,,,,,,,,,,,,,,,,,,,,,,,,,,,,,,,,,,,,
,,,,,,61041810b20dd7b644737b8a,62bbf964397937031b1d4496,2022-06-29_09h05.17.538,Colour_Asymmetry_Pilot,2022.1.3,Win32,60.0276127,62bbe60bf3d75ef465d3e404,0,141,141,122,1,twoone,,,,,,,,,,,,,,,,,,,,,,,,,,,,,,,,,,,,,,,,,,,,,,,,,,,,,,,,,,,,,,,,,,,,,,,,,,,,,,,,,,,,,,,,,,,,,,,,,,,,,,,,,,,,,,,,,,,,,,,,,,,,,,,,,,,,,,,,,,,,,,,,,,,,,,,,
,,,,,,61041810b20dd7b644737b8a,62bbf964397937031b1d4496,2022-06-29_09h05.17.538,Colour_Asymmetry_Pilot,2022.1.3,Win32,60.0276127,62bbe60bf3d75ef465d3e404,0,142,142,111,1,fourthree,,,,,,,,,,,,,,,,,,,,,,,,,,,,,,,,,,,,,,,,,,,,,,,,,,,,,,,,,,,,,,,,,,,,,,,,,,,,,,,,,,,,,,,,,,,,,,,,,,,,,,,,,,,,,,,,,,,,,,,,,,,,,,,,,,,,,,,,,,,,,,,,,,,,,,,,
,,,,,,61041810b20dd7b644737b8a,62bbf964397937031b1d4496,2022-06-29_09h05.17.538,Colour_Asymmetry_Pilot,2022.1.3,Win32,60.0276127,62bbe60bf3d75ef465d3e404,0,143,143,62,1,fourtwo,,,,,,,,,,,,,,,,,,,,,,,,,,,,,,,,,,,,,,,,,,,,,,,,,,,,,,,,,,,,,,,,,,,,,,,,,,,,,,,,,,,,,,,,,,,,,,,,,,,,,,,,,,,,,,,,,,,,,,,,,,,,,,,,,,,,,,,,,,,,,,,,,,,,,,,,
,,,,,,61041810b20dd7b644737b8a,62bbf964397937031b1d4496,2022-06-29_09h05.17.538,Colour_Asymmetry_Pilot,2022.1.3,Win32,60.0276127,62bbe60bf3d75ef465d3e404,0,144,144,63,1,fourthree,,,,,,,,,,,,,,,,,,,,,,,,,,,,,,,,,,,,,,,,,,,,,,,,,,,,,,,,,,,,,,,,,,,,,,,,,,,,,,,,,,,,,,,,,,,,,,,,,,,,,,,,,,,,,,,,,,,,,,,,,,,,,,,,,,,,,,,,,,,,,,,,,,,,,,,,
,,,,,,61041810b20dd7b644737b8a,62bbf964397937031b1d4496,2022-06-29_09h05.17.538,Colour_Asymmetry_Pilot,2022.1.3,Win32,60.0276127,62bbe60bf3d75ef465d3e404,0,145,145,142,1,fourtwo,,,,,,,,,,,,,,,,,,,,,,,,,,,,,,,,,,,,,,,,,,,,,,,,,,,,,,,,,,,,,,,,,,,,,,,,,,,,,,,,,,,,,,,,,,,,,,,,,,,,,,,,,,,,,,,,,,,,,,,,,,,,,,,,,,,,,,,,,,,,,,,,,,,,,,,,
,,,,,,61041810b20dd7b644737b8a,62bbf964397937031b1d4496,2022-06-29_09h05.17.538,Colour_Asymmetry_Pilot,2022.1.3,Win32,60.0276127,62bbe60bf3d75ef465d3e404,0,146,146,118,1,fourtwo,,,,,,,,,,,,,,,,,,,,,,,,,,,,,,,,,,,,,,,,,,,,,,,,,,,,,,,,,,,,,,,,,,,,,,,,,,,,,,,,,,,,,,,,,,,,,,,,,,,,,,,,,,,,,,,,,,,,,,,,,,,,,,,,,,,,,,,,,,,,,,,,,,,,,,,,
,,,,,,61041810b20dd7b644737b8a,62bbf964397937031b1d4496,2022-06-29_09h05.17.538,Colour_Asymmetry_Pilot,2022.1.3,Win32,60.0276127,62bbe60bf3d75ef465d3e404,0,147,147,101,1,threefour,,,,,,,,,,,,,,,,,,,,,,,,,,,,,,,,,,,,,,,,,,,,,,,,,,,,,,,,,,,,,,,,,,,,,,,,,,,,,,,,,,,,,,,,,,,,,,,,,,,,,,,,,,,,,,,,,,,,,,,,,,,,,,,,,,,,,,,,,,,,,,,,,,,,,,,,
,,,,,,61041810b20dd7b644737b8a,62bbf964397937031b1d4496,2022-06-29_09h05.17.538,Colour_Asymmetry_Pilot,2022.1.3,Win32,60.0276127,62bbe60bf3d75ef465d3e404,0,148,148,14,1,fourtwo,,,,,,,,,,,,,,,,,,,,,,,,,,,,,,,,,,,,,,,,,,,,,,,,,,,,,,,,,,,,,,,,,,,,,,,,,,,,,,,,,,,,,,,,,,,,,,,,,,,,,,,,,,,,,,,,,,,,,,,,,,,,,,,,,,,,,,,,,,,,,,,,,,,,,,,,
,,,,,,61041810b20dd7b644737b8a,62bbf964397937031b1d4496,2022-06-29_09h05.17.538,Colour_Asymmetry_Pilot,2022.1.3,Win32,60.0276127,62bbe60bf3d75ef465d3e404,0,149,149,82,1,twoone,,,,,,,,,,,,,,,,,,,,,,,,,,,,,,,,,,,,,,,,,,,,,,,,,,,,,,,,,,,,,,,,,,,,,,,,,,,,,,,,,,,,,,,,,,,,,,,,,,,,,,,,,,,,,,,,,,,,,,,,,,,,,,,,,,,,,,,,,,,,,,,,,,,,,,,,
,,,,,,61041810b20dd7b644737b8a,62bbf964397937031b1d4496,2022-06-29_09h05.17.538,Colour_Asymmetry_Pilot,2022.1.3,Win32,60.0276127,62bbe60bf3d75ef465d3e404,0,150,150,137,1,onethree,,,,,,,,,,,,,,,,,,,,,,,,,,,,,,,,,,,,,,,,,,,,,,,,,,,,,,,,,,,,,,,,,,,,,,,,,,,,,,,,,,,,,,,,,,,,,,,,,,,,,,,,,,,,,,,,,,,,,,,,,,,,,,,,,,,,,,,,,,,,,,,,,,,,,,,,
,,,,,,61041810b20dd7b644737b8a,62bbf964397937031b1d4496,2022-06-29_09h05.17.538,Colour_Asymmetry_Pilot,2022.1.3,Win32,60.0276127,62bbe60bf3d75ef465d3e404,0,151,151,50,1,twoone,,,,,,,,,,,,,,,,,,,,,,,,,,,,,,,,,,,,,,,,,,,,,,,,,,,,,,,,,,,,,,,,,,,,,,,,,,,,,,,,,,,,,,,,,,,,,,,,,,,,,,,,,,,,,,,,,,,,,,,,,,,,,,,,,,,,,,,,,,,,,,,,,,,,,,,,
,,,,,,61041810b20dd7b644737b8a,62bbf964397937031b1d4496,2022-06-29_09h05.17.538,Colour_Asymmetry_Pilot,2022.1.3,Win32,60.0276127,62bbe60bf3d75ef465d3e404,0,152,152,69,1,threefour,,,,,,,,,,,,,,,,,,,,,,,,,,,,,,,,,,,,,,,,,,,,,,,,,,,,,,,,,,,,,,,,,,,,,,,,,,,,,,,,,,,,,,,,,,,,,,,,,,,,,,,,,,,,,,,,,,,,,,,,,,,,,,,,,,,,,,,,,,,,,,,,,,,,,,,,
,,,,,,61041810b20dd7b644737b8a,62bbf964397937031b1d4496,2022-06-29_09h05.17.538,Colour_Asymmetry_Pilot,2022.1.3,Win32,60.0276127,62bbe60bf3d75ef465d3e404,0,153,153,48,1,onetwo,,,,,,,,,,,,,,,,,,,,,,,,,,,,,,,,,,,,,,,,,,,,,,,,,,,,,,,,,,,,,,,,,,,,,,,,,,,,,,,,,,,,,,,,,,,,,,,,,,,,,,,,,,,,,,,,,,,,,,,,,,,,,,,,,,,,,,,,,,,,,,,,,,,,,,,,
,,,,,,61041810b20dd7b644737b8a,62bbf964397937031b1d4496,2022-06-29_09h05.17.538,Colour_Asymmetry_Pilot,2022.1.3,Win32,60.0276127,62bbe60bf3d75ef465d3e404,0,154,154,33,1,onethree,,,,,,,,,,,,,,,,,,,,,,,,,,,,,,,,,,,,,,,,,,,,,,,,,,,,,,,,,,,,,,,,,,,,,,,,,,,,,,,,,,,,,,,,,,,,,,,,,,,,,,,,,,,,,,,,,,,,,,,,,,,,,,,,,,,,,,,,,,,,,,,,,,,,,,,,
,,,,,,61041810b20dd7b644737b8a,62bbf964397937031b1d4496,2022-06-29_09h05.17.538,Colour_Asymmetry_Pilot,2022.1.3,Win32,60.0276127,62bbe60bf3d75ef465d3e404,0,155,155,84,1,threeone,,,,,,,,,,,,,,,,,,,,,,,,,,,,,,,,,,,,,,,,,,,,,,,,,,,,,,,,,,,,,,,,,,,,,,,,,,,,,,,,,,,,,,,,,,,,,,,,,,,,,,,,,,,,,,,,,,,,,,,,,,,,,,,,,,,,,,,,,,,,,,,,,,,,,,,,
,,,,,,61041810b20dd7b644737b8a,62bbf964397937031b1d4496,2022-06-29_09h05.17.538,Colour_Asymmetry_Pilot,2022.1.3,Win32,60.0276127,62bbe60bf3d75ef465d3e404,0,156,156,45,1,threefour,,,,,,,,,,,,,,,,,,,,,,,,,,,,,,,,,,,,,,,,,,,,,,,,,,,,,,,,,,,,,,,,,,,,,,,,,,,,,,,,,,,,,,,,,,,,,,,,,,,,,,,,,,,,,,,,,,,,,,,,,,,,,,,,,,,,,,,,,,,,,,,,,,,,,,,,
,,,,,,61041810b20dd7b644737b8a,62bbf964397937031b1d4496,2022-06-29_09h05.17.538,Colour_Asymmetry_Pilot,2022.1.3,Win32,60.0276127,62bbe60bf3d75ef465d3e404,0,157,157,29,1,threefour,,,,,,,,,,,,,,,,,,,,,,,,,,,,,,,,,,,,,,,,,,,,,,,,,,,,,,,,,,,,,,,,,,,,,,,,,,,,,,,,,,,,,,,,,,,,,,,,,,,,,,,,,,,,,,,,,,,,,,,,,,,,,,,,,,,,,,,,,,,,,,,,,,,,,,,,
,,,,,,61041810b20dd7b644737b8a,62bbf964397937031b1d4496,2022-06-29_09h05.17.538,Colour_Asymmetry_Pilot,2022.1.3,Win32,60.0276127,62bbe60bf3d75ef465d3e404,0,158,158,148,1,threeone,,,,,,,,,,,,,,,,,,,,,,,,,,,,,,,,,,,,,,,,,,,,,,,,,,,,,,,,,,,,,,,,,,,,,,,,,,,,,,,,,,,,,,,,,,,,,,,,,,,,,,,,,,,,,,,,,,,,,,,,,,,,,,,,,,,,,,,,,,,,,,,,,,,,,,,,
,,,,,,61041810b20dd7b644737b8a,62bbf964397937031b1d4496,2022-06-29_09h05.17.538,Colour_Asymmetry_Pilot,2022.1.3,Win32,60.0276127,62bbe60bf3d75ef465d3e404,0,159,159,89,1,onethree,,,,,,,,,,,,,,,,,,,,,,,,,,,,,,,,,,,,,,,,,,,,,,,,,,,,,,,,,,,,,,,,,,,,,,,,,,,,,,,,,,,,,,,,,,,,,,,,,,,,,,,,,,,,,,,,,,,,,,,,,,,,,,,,,,,,,,,,,,,,,,,,,,,,,,,,
,,,,,,61041810b20dd7b644737b8a,62bbf964397937031b1d4496,2022-06-29_09h05.17.538,Colour_Asymmetry_Pilot,2022.1.3,Win32,60.0276127,62bbe60bf3d75ef465d3e404,0,160,160,103,1,fourthree,,,,,,,,,,,,,,,,,,,,,,,,,,,,,,,,,,,,,,,,,,,,,,,,,,,,,,,,,,,,,,,,,,,,,,,,,,,,,,,,,,,,,,,,,,,,,,,,,,,,,,,,,,,,,,,,,,,,,,,,,,,,,,,,,,,,,,,,,,,,,,,,,,,,,,,,
,,,,,,61041810b20dd7b644737b8a,62bbf964397937031b1d4496,2022-06-29_09h05.17.538,Colour_Asymmetry_Pilot,2022.1.3,Win32,60.0276127,62bbe60bf3d75ef465d3e404,0,161,161,125,1,threefour,,,,,,,,,,,,,,,,,,,,,,,,,,,,,,,,,,,,,,,,,,,,,,,,,,,,,,,,,,,,,,,,,,,,,,,,,,,,,,,,,,,,,,,,,,,,,,,,,,,,,,,,,,,,,,,,,,,,,,,,,,,,,,,,,,,,,,,,,,,,,,,,,,,,,,,,
,,,,,,61041810b20dd7b644737b8a,62bbf964397937031b1d4496,2022-06-29_09h05.17.538,Colour_Asymmetry_Pilot,2022.1.3,Win32,60.0276127,62bbe60bf3d75ef465d3e404,,,,,,,space,3.5127,space,9.5367,space,161.0836,space,91.3139,space,8.7059,space,15.9671,"[-0.34920000000000007,-0.702,-0.5216]",twoone,"[0.12939999999999996,-0.2864,0.3253999999999999]",3,15.0095,100,44,1,0,0,response1disk_5,2,0,1,0,0,rectangle_8,2,0,1,0,0,4,2,0,1,0,0,0,0,0,0,1,,,,,,,,,,,,,,,,,,,,,,,,,,,,,,,,,,,,,,,,,,,,,,,,,,,,,,,,,,,,,,,,,,,,,,,,,,,,,,,,,,,,,,,,,,,,,,,,,,,,,,,,,,,
,,,,,,61041810b20dd7b644737b8a,62bbf964397937031b1d4496,2022-06-29_09h05.17.538,Colour_Asymmetry_Pilot,2022.1.3,Win32,60.0276127,62bbe60bf3d75ef465d3e404,,,,,,,,,,,,,,,,,,,"[0.3568,-0.20799999999999996,-0.9844]",twofour,"[0.04299999999999993,0.16060000000000008,-0.6628000000000001]",3,4.7167,103,47,1,0,0,response1disk_5,-8,0,1,0,0,rectangle_8,-8,0,1,0,0,4,-8,0,1,0,0,1,0,1,0,1,,,,,,,,,,,,,,,,,,,,,,,,,,,,,,,,,,,,,,,,,,,,,,,,,,,,,,,,,,,,,,,,,,,,,,,,,,,,,,,,,,,,,,,,,,,,,,,,,,,,,,,,,,,
,,,,,,61041810b20dd7b644737b8a,62bbf964397937031b1d4496,2022-06-29_09h05.17.538,Colour_Asymmetry_Pilot,2022.1.3,Win32,60.0276127,62bbe60bf3d75ef465d3e404,,,,,,,,,,,,,,,,,,,"[-0.9138,-0.5296000000000001,-0.5529999999999999]",threeone,"[-0.38039999999999996,-0.4276,-0.1452]",-4,5.0502,-58,77,1,0,0,response7disk_5,9,-3,1,0,0,rectangle_8,9,-3,1,0,0,4,9,-3,1,0,0,2,0,2,0,1,,,,,,,,,,,,,,,,,,,,,,,,,,,,,,,,,,,,,,,,,,,,,,,,,,,,,,,,,,,,,,,,,,,,,,,,,,,,,,,,,,,,,,,,,,,,,,,,,,,,,,,,,,,
,,,,,,61041810b20dd7b644737b8a,62bbf964397937031b1d4496,2022-06-29_09h05.17.538,Colour_Asymmetry_Pilot,2022.1.3,Win32,60.0276127,62bbe60bf3d75ef465d3e404,,,,,,,,,,,,,,,,,,,"[0.9763999999999999,0.8588,-0.05900000000000005]",threeone,"[-0.20799999999999996,-0.655,-0.01980000000000004]",-4,2.6678,-48,68,1,0,0,response7disk_5,10,-2,1,0,0,rectangle_8,45,79,1,0,0,4,-14,-2,1,0,0,3,0,3,0,1,response1disk_7,7,rectangle_4,,,,,,,,,,,,,,,,,,,,,,,,,,,,,,,,,,,,,,,,,,,,,,,,,,,,,,,,,,,,,,,,,,,,,,,,,,,,,,,,,,,,,,,,,,,,,,,,,,,,,,,,
,,,,,,61041810b20dd7b644737b8a,62bbf964397937031b1d4496,2022-06-29_09h05.17.538,Colour_Asymmetry_Pilot,2022.1.3,Win32,60.0276127,62bbe60bf3d75ef465d3e404,,,,,,,,,,,,,,,,,,,"[-0.30200000000000005,0.14500000000000002,0.2784]",twofour,"[0.34099999999999997,0.12939999999999996,-0.9766]",1,7.0116,41,-93,1,0,0,response3disk_5,-5,-3,1,0,0,rectangle_8,-5,-3,1,0,0,4,-5,-3,1,0,0,4,0,4,0,1,,,,,,,,,,,,,,,,,,,,,,,,,,,,,,,,,,,,,,,,,,,,,,,,,,,,,,,,,,,,,,,,,,,,,,,,,,,,,,,,,,,,,,,,,,,,,,,,,,,,,,,,,,,
,,,,,,61041810b20dd7b644737b8a,62bbf964397937031b1d4496,2022-06-29_09h05.17.538,Colour_Asymmetry_Pilot,2022.1.3,Win32,60.0276127,62bbe60bf3d75ef465d3e404,,,,,,,,,,,,,,,,,,,"[-0.2942,-0.7648,-0.7492000000000001]",fourthree,"[-0.26280000000000003,-0.2158,-0.3256]",-3,4.8505,-94,54,1,0,0,response7disk_5,13,4,1,0,0,rectangle_8,13,4,1,0,0,4,13,4,1,0,0,5,0,5,0,1,,,,,,,,,,,,,,,,,,,,,,,,,,,,,,,,,,,,,,,,,,,,,,,,,,,,,,,,,,,,,,,,,,,,,,,,,,,,,,,,,,,,,,,,,,,,,,,,,,,,,,,,,,,
,,,,,,61041810b20dd7b644737b8a,62bbf964397937031b1d4496,2022-06-29_09h05.17.538,Colour_Asymmetry_Pilot,2022.1.3,Win32,60.0276127,62bbe60bf3d75ef465d3e404,,,,,,,,,,,,,,,,,,,"[0.7176,-0.906,-0.6864]",fourtwo,"[-0.9844,-0.9688,-0.9922]",-4,3.0195,-44,64,1,0,0,response7disk_5,-14,9,1,0,0,rectangle_8,-14,9,1,0,0,4,-14,9,1,0,0,6,0,6,0,1,,,,,,,,,,,,,,,,,,,,,,,,,,,,,,,,,,,,,,,,,,,,,,,,,,,,,,,,,,,,,,,,,,,,,,,,,,,,,,,,,,,,,,,,,,,,,,,,,,,,,,,,,,,
,,,,,,61041810b20dd7b644737b8a,62bbf964397937031b1d4496,2022-06-29_09h05.17.538,Colour_Asymmetry_Pilot,2022.1.3,Win32,60.0276127,62bbe60bf3d75ef465d3e404,,,,,,,,,,,,,,,,,,,,twoone,,3,4.2345,,,,,,,,,,,,,,,,,,,,,,,,,,,,,,,,space,3.6793,"[-0.9766,-0.6472,0.07440000000000002]","[-0.48240000000000005,0.3175999999999999,0.2156]",76,61,1,0,0,response1disk,-14,0,1,0,0,rectangle,-14,0,1,0,0,,3,0.0035,0,-14,0,1,0,0,0,0,0,151,1,70,second,,,,,,,,,,,,,,,,,,,,,,,,,,,,,,,,,,,,,,,,,,,,,,,,,,,,,,,,,,,,,,,,,,,
,,,,,,61041810b20dd7b644737b8a,62bbf964397937031b1d4496,2022-06-29_09h05.17.538,Colour_Asymmetry_Pilot,2022.1.3,Win32,60.0276127,62bbe60bf3d75ef465d3e404,,,,,,,,,,,,,,,,,,,,fourtwo,,4,1.3844,,,,,,,,,,,,,,,,,,,,,,,,,,,,,,,,,,"[0.9372,0.20779999999999998,0.2704]","[0.9372,0.9450000000000001,0.8980000000000001]",53,92,1,0,0,response1disk,3,-1,1,0,0,rectangle,3,-1,1,0,0,,2,0.0038,0,3,-1,1,0,0,0,1,1,152,1,71,second,,,,,,,,,,,,,,,,,,,,,,,,,,,,,,,,,,,,,,,,,,,,,,,,,,,,,,,,,,,,,,,,,,,
,,,,,,61041810b20dd7b644737b8a,62bbf964397937031b1d4496,2022-06-29_09h05.17.538,Colour_Asymmetry_Pilot,2022.1.3,Win32,60.0276127,62bbe60bf3d75ef465d3e404,,,,,,,,,,,,,,,,,,,,twoone,,-3,3.3834,,,,,,,,,,,,,,,,,,,,,,,,,,,,,,,,,,"[0.9686000000000001,0.3802000000000001,0.19999999999999996]","[-0.4982,-0.2942,-0.0354000000000001]",-81,43,1,0,0,response7disk,4,6,1,0,0,rectangle,87,-42,1,0,0,2,2,5.4021,1,19,1,1,0,0,0,2,2,55,1,55,first,response3disk_3,rectangle,,,,,,,,,,,,,,,,,,,,,,,,,,,,,,,,,,,,,,,,,,,,,,,,,,,,,,,,,,,,,,,,,
,,,,,,61041810b20dd7b644737b8a,62bbf964397937031b1d4496,2022-06-29_09h05.17.538,Colour_Asymmetry_Pilot,2022.1.3,Win32,60.0276127,62bbe60bf3d75ef465d3e404,,,,,,,,,,,,,,,,,,,,twofour,,3,4.0232,,,,,,,,,,,,,,,,,,,,,,,,,,,,,,,,,,"[0.796,0.2156,-0.27859999999999996]","[0.2784,-0.31000000000000005,-0.5452]",78,58,1,0,0,response1disk,-10,0,1,0,0,rectangle,-10,0,1,0,0,2,3,0.0015,0,-10,0,1,0,0,0,3,3,48,1,48,first,,,,,,,,,,,,,,,,,,,,,,,,,,,,,,,,,,,,,,,,,,,,,,,,,,,,,,,,,,,,,,,,,,,
,,,,,,61041810b20dd7b644737b8a,62bbf964397937031b1d4496,2022-06-29_09h05.17.538,Colour_Asymmetry_Pilot,2022.1.3,Win32,60.0276127,62bbe60bf3d75ef465d3e404,,,,,,,,,,,,,,,,,,,,fourtwo,,-4,2.2327,,,,,,,,,,,,,,,,,,,,,,,,,,,,,,,,,,"[0.40379999999999994,0.09000000000000008,0.44300000000000006]","[-0.07459999999999989,0.12139999999999995,-0.9922]",-53,85,1,0,0,response7disk,2,0,1,0,0,rectangle,2,0,1,0,0,2,3,0.0005,0,2,0,1,0,0,0,4,4,112,1,31,second,,,,,,,,,,,,,,,,,,,,,,,,,,,,,,,,,,,,,,,,,,,,,,,,,,,,,,,,,,,,,,,,,,,
,,,,,,61041810b20dd7b644737b8a,62bbf964397937031b1d4496,2022-06-29_09h05.17.538,Colour_Asymmetry_Pilot,2022.1.3,Win32,60.0276127,62bbe60bf3d75ef465d3e404,,,,,,,,,,,,,,,,,,,,twofour,,-4,2.2985,,,,,,,,,,,,,,,,,,,,,,,,,,,,,,,,,,"[0.7802,-0.23140000000000005,-0.20799999999999996]","[0.37240000000000006,0.4980000000000002,-0.2864]",-42,94,1,0,0,response7disk,-1,7,1,0,0,rectangle,-1,7,1,0,0,2,3,0.0002,0,-1,7,1,0,0,0,5,5,116,1,35,second,,,,,,,,,,,,,,,,,,,,,,,,,,,,,,,,,,,,,,,,,,,,,,,,,,,,,,,,,,,,,,,,,,,
,,,,,,61041810b20dd7b644737b8a,62bbf964397937031b1d4496,2022-06-29_09h05.17.538,Colour_Asymmetry_Pilot,2022.1.3,Win32,60.0276127,62bbe60bf3d75ef465d3e404,,,,,,,,,,,,,,,,,,,,threeone,,-4,1.0509,,,,,,,,,,,,,,,,,,,,,,,,,,,,,,,,,,"[0.12939999999999996,-0.2864,0.3253999999999999]","[0.9686000000000001,0.5763999999999998,0.11359999999999992]",-39,74,1,0,0,response7disk,-9,4,1,0,0,rectangle,-9,4,1,0,0,2,3,0.0002,0,-9,4,1,0,0,0,6,6,140,1,59,second,,,,,,,,,,,,,,,,,,,,,,,,,,,,,,,,,,,,,,,,,,,,,,,,,,,,,,,,,,,,,,,,,,,
,,,,,,61041810b20dd7b644737b8a,62bbf964397937031b1d4496,2022-06-29_09h05.17.538,Colour_Asymmetry_Pilot,2022.1.3,Win32,60.0276127,62bbe60bf3d75ef465d3e404,,,,,,,,,,,,,,,,,,,,onetwo,,-4,2.7034,,,,,,,,,,,,,,,,,,,,,,,,,,,,,,,,,,"[-0.26280000000000003,-0.4746,-0.2158]","[0.9763999999999999,-0.1137999999999999,-0.6314]",-39,71,1,0,0,response7disk,1,10,1,0,0,rectangle,1,10,1,0,0,2,1,0.0011,0,1,10,1,0,0,0,7,7,87,1,6,second,,,,,,,,,,,,,,,,,,,,,,,,,,,,,,,,,,,,,,,,,,,,,,,,,,,,,,,,,,,,,,,,,,,
,,,,,,61041810b20dd7b644737b8a,62bbf964397937031b1d4496,2022-06-29_09h05.17.538,Colour_Asymmetry_Pilot,2022.1.3,Win32,60.0276127,62bbe60bf3d75ef465d3e404,,,,,,,,,,,,,,,,,,,,fourthree,,-2,2.7494,,,,,,,,,,,,,,,,,,,,,,,,,,,,,,,,,,"[-0.5688,-0.08239999999999992,-0.1844]","[-0.20799999999999996,-0.655,-0.01980000000000004]",-68,-36,1,0,0,response5disk,10,3,1,0,0,rectangle,10,3,1,0,0,2,3,0.0012,0,10,3,1,0,0,0,8,8,18,1,18,first,,,,,,,,,,,,,,,,,,,,,,,,,,,,,,,,,,,,,,,,,,,,,,,,,,,,,,,,,,,,,,,,,,,
,,,,,,61041810b20dd7b644737b8a,62bbf964397937031b1d4496,2022-06-29_09h05.17.538,Colour_Asymmetry_Pilot,2022.1.3,Win32,60.0276127,62bbe60bf3d75ef465d3e404,,,,,,,,,,,,,,,,,,,,fourthree,,3,2.5172,,,,,,,,,,,,,,,,,,,,,,,,,,,,,,,,,,"[-0.26280000000000003,-0.2158,-0.3256]","[-0.17659999999999998,0.3253999999999999,0.19999999999999996]",82,45,1,0,0,response1disk,-4,-5,1,0,0,rectangle,-4,-5,1,0,0,2,3,0.0002,0,-4,-5,1,0,0,0,9,9,5,1,5,first,,,,,,,,,,,,,,,,,,,,,,,,,,,,,,,,,,,,,,,,,,,,,,,,,,,,,,,,,,,,,,,,,,,
,,,,,,61041810b20dd7b644737b8a,62bbf964397937031b1d4496,2022-06-29_09h05.17.538,Colour_Asymmetry_Pilot,2022.1.3,Win32,60.0276127,62bbe60bf3d75ef465d3e404,,,,,,,,,,,,,,,,,,,,fourthree,,4,2.6825,,,,,,,,,,,,,,,,,,,,,,,,,,,,,,,,,,"[-0.10599999999999998,-0.15300000000000002,0.15280000000000005]","[0.05879999999999996,0.2784,0.5841999999999998]",63,80,1,0,0,response1disk,-1,-2,1,0,0,rectangle,-1,-2,1,0,0,2,1,0.001,0,-1,-2,1,0,0,0,10,10,43,1,43,first,,,,,,,,,,,,,,,,,,,,,,,,,,,,,,,,,,,,,,,,,,,,,,,,,,,,,,,,,,,,,,,,,,,
,,,,,,61041810b20dd7b644737b8a,62bbf964397937031b1d4496,2022-06-29_09h05.17.538,Colour_Asymmetry_Pilot,2022.1.3,Win32,60.0276127,62bbe60bf3d75ef465d3e404,,,,,,,,,,,,,,,,,,,,onethree,,3,2.5512,,,,,,,,,,,,,,,,,,,,,,,,,,,,,,,,,,"[-0.6706000000000001,-0.6157999999999999,-0.6786]","[-0.17659999999999998,0.3253999999999999,0.19999999999999996]",79,67,1,0,0,response1disk,-4,0,1,0,0,rectangle,-4,0,1,0,0,2,2,0.0012,0,-4,0,1,0,0,0,11,11,72,1,72,first,,,,,,,,,,,,,,,,,,,,,,,,,,,,,,,,,,,,,,,,,,,,,,,,,,,,,,,,,,,,,,,,,,,
,,,,,,61041810b20dd7b644737b8a,62bbf964397937031b1d4496,2022-06-29_09h05.17.538,Colour_Asymmetry_Pilot,2022.1.3,Win32,60.0276127,62bbe60bf3d75ef465d3e404,,,,,,,,,,,,,,,,,,,,fourthree,,4,0.9519,,,,,,,,,,,,,,,,,,,,,,,,,,,,,,,,,,"[-0.4982,-0.2942,-0.0354000000000001]","[-0.9766,-0.34920000000000007,0.2156]",56,82,1,0,0,response1disk,5,4,1,0,0,rectangle,5,4,1,0,0,2,2,0.0004,0,5,4,1,0,0,0,12,12,158,1,77,second,,,,,,,,,,,,,,,,,,,,,,,,,,,,,,,,,,,,,,,,,,,,,,,,,,,,,,,,,,,,,,,,,,,
,,,,,,61041810b20dd7b644737b8a,62bbf964397937031b1d4496,2022-06-29_09h05.17.538,Colour_Asymmetry_Pilot,2022.1.3,Win32,60.0276127,62bbe60bf3d75ef465d3e404,,,,,,,,,,,,,,,,,,,,twoone,,3,2.4004,,,,,,,,,,,,,,,,,,,,,,,,,,,,,,,,,,"[-0.8118,-0.8198,-0.5452]","[-0.10599999999999998,-0.10599999999999998,0.5841999999999998]",65,61,1,0,0,response1disk,3,10,1,0,0,rectangle,3,10,1,0,0,2,3,0.0012,0,3,10,1,0,0,0,13,13,12,1,12,first,,,,,,,,,,,,,,,,,,,,,,,,,,,,,,,,,,,,,,,,,,,,,,,,,,,,,,,,,,,,,,,,,,,
,,,,,,61041810b20dd7b644737b8a,62bbf964397937031b1d4496,2022-06-29_09h05.17.538,Colour_Asymmetry_Pilot,2022.1.3,Win32,60.0276127,62bbe60bf3d75ef465d3e404,,,,,,,,,,,,,,,,,,,,threefour,,-4,1.9171,,,,,,,,,,,,,,,,,,,,,,,,,,,,,,,,,,"[-0.34920000000000007,-0.702,-0.5216]","[-0.07459999999999989,0.12139999999999995,-0.9922]",-39,67,1,0,0,response7disk,5,6,1,0,0,rectangle,5,6,1,0,0,2,1,0.0011,0,5,6,1,0,0,0,14,14,29,1,29,first,,,,,,,,,,,,,,,,,,,,,,,,,,,,,,,,,,,,,,,,,,,,,,,,,,,,,,,,,,,,,,,,,,,
,,,,,,61041810b20dd7b644737b8a,62bbf964397937031b1d4496,2022-06-29_09h05.17.538,Colour_Asymmetry_Pilot,2022.1.3,Win32,60.0276127,62bbe60bf3d75ef465d3e404,,,,,,,,,,,,,,,,,,,,onetwo,,-4,1.6004,,,,,,,,,,,,,,,,,,,,,,,,,,,,,,,,,,"[-0.07459999999999989,0.12139999999999995,-0.9922]","[0.18419999999999992,-0.4276,-0.404]",-32,61,1,0,0,response7disk,-3,1,1,0,0,rectangle,-3,1,1,0,0,2,2,0.003,0,-3,1,1,0,0,0,15,15,109,1,28,second,,,,,,,,,,,,,,,,,,,,,,,,,,,,,,,,,,,,,,,,,,,,,,,,,,,,,,,,,,,,,,,,,,,
,,,,,,61041810b20dd7b644737b8a,62bbf964397937031b1d4496,2022-06-29_09h05.17.538,Colour_Asymmetry_Pilot,2022.1.3,Win32,60.0276127,62bbe60bf3d75ef465d3e404,,,,,,,,,,,,,,,,,,,,threefour,,-2,4.3003,,,,,,,,,,,,,,,,,,,,,,,,,,,,,,,,,,"[-0.4746,-0.0354000000000001,0.5449999999999999]","[-0.26280000000000003,-0.4746,-0.2158]",-86,-39,1,0,0,response5disk,4,2,1,0,0,rectangle,4,2,1,0,0,2,3,0.0011,0,4,2,1,0,0,0,16,16,39,1,39,first,,,,,,,,,,,,,,,,,,,,,,,,,,,,,,,,,,,,,,,,,,,,,,,,,,,,,,,,,,,,,,,,,,,
,,,,,,61041810b20dd7b644737b8a,62bbf964397937031b1d4496,2022-06-29_09h05.17.538,Colour_Asymmetry_Pilot,2022.1.3,Win32,60.0276127,62bbe60bf3d75ef465d3e404,,,,,,,,,,,,,,,,,,,,threeone,,1,2.4657,,,,,,,,,,,,,,,,,,,,,,,,,,,,,,,,,,"[-0.26280000000000003,-0.4746,-0.2158]","[-0.4746,-0.0354000000000001,0.5449999999999999]",45,-58,1,0,0,response3disk,2,-2,1,0,0,rectangle,2,-2,1,0,0,2,2,0.0011,0,2,-2,1,0,0,0,17,17,120,1,39,second,,,,,,,,,,,,,,,,,,,,,,,,,,,,,,,,,,,,,,,,,,,,,,,,,,,,,,,,,,,,,,,,,,,
,,,,,,61041810b20dd7b644737b8a,62bbf964397937031b1d4496,2022-06-29_09h05.17.538,Colour_Asymmetry_Pilot,2022.1.3,Win32,60.0276127,62bbe60bf3d75ef465d3e404,,,,,,,,,,,,,,,,,,,,twofour,,2,19.4522,,,,,,,,,,,,,,,,,,,,,,,,,,,,,,,,,,"[0.7018,0.7176,0.6155999999999999]","[-0.2942,-0.7648,-0.7492000000000001]",62,-39,1,0,0,response3disk,3,6,1,0,0,rectangle,66,-49,1,0,0,2,2,5.4007,1,8,-1,1,0,0,0,18,18,104,1,23,second,response3disk_3,rectangle,,,,,,,,,,,,,,,,,,,,,,,,,,,,,,,,,,,,,,,,,,,,,,,,,,,,,,,,,,,,,,,,,
,,,,,,61041810b20dd7b644737b8a,62bbf964397937031b1d4496,2022-06-29_09h05.17.538,Colour_Asymmetry_Pilot,2022.1.3,Win32,60.0276127,62bbe60bf3d75ef465d3e404,,,,,,,,,,,,,,,,,,,,onetwo,,-3,3.0492,,,,,,,,,,,,,,,,,,,,,,,,,,,,,,,,,,"[0.05879999999999996,0.2784,0.5841999999999998]","[0.37240000000000006,-0.050999999999999934,-0.5216]",-64,37,1,0,0,response7disk,21,0,1,0,0,rectangle,21,0,1,0,0,2,2,0.0002,0,21,0,1,0,0,0,19,19,68,1,68,first,,,,,,,,,,,,,,,,,,,,,,,,,,,,,,,,,,,,,,,,,,,,,,,,,,,,,,,,,,,,,,,,,,,
,,,,,,61041810b20dd7b644737b8a,62bbf964397937031b1d4496,2022-06-29_09h05.17.538,Colour_Asymmetry_Pilot,2022.1.3,Win32,60.0276127,62bbe60bf3d75ef465d3e404,,,,,,,,,,,,,,,,,,,,threefour,,-3,1.7004,,,,,,,,,,,,,,,,,,,,,,,,,,,,,,,,,,"[-0.9296,-0.12959999999999994,-0.043199999999999905]","[0.23120000000000007,-0.7726,-0.34120000000000006]",-91,52,1,0,0,response7disk,9,3,1,0,0,rectangle,9,3,1,0,0,2,2,0.0005,0,9,3,1,0,0,0,20,20,133,1,52,second,,,,,,,,,,,,,,,,,,,,,,,,,,,,,,,,,,,,,,,,,,,,,,,,,,,,,,,,,,,,,,,,,,,
