trials.thisRepN,trials.thisTrialN,trials.thisN,trials.thisIndex,trials.ran,Colourcodes,participant,session,date,expName,psychopyVersion,OS,frameRate,study_id,trials_4.thisRepN,trials_4.thisTrialN,trials_4.thisN,trials_4.thisIndex,trials_4.ran,StimulusPos,key_resp.keys,key_resp.rt,key_resp_2.keys,key_resp_2.rt,key_resp_15.keys,key_resp_15.rt,key_resp_17.keys,key_resp_17.rt,key_resp_9.keys,key_resp_9.rt,key_resp_10.keys,key_resp_10.rt,Circle1_col,Ecc,Circle2_col,similarity,response_time,mouse_5.x,mouse_5.y,mouse_5.leftButton,mouse_5.midButton,mouse_5.rightButton,mouse_5.clicked_name,mouse_10.x,mouse_10.y,mouse_10.leftButton,mouse_10.midButton,mouse_10.rightButton,mouse_10.clicked_name,mouse_7.x,mouse_7.y,mouse_7.leftButton,mouse_7.midButton,mouse_7.rightButton,mouse_7.clicked_name,catchprac,catchnumberprac,mouse_6.x,mouse_6.y,mouse_6.leftButton,mouse_6.midButton,mouse_6.rightButton,mouse_6.clicked_name,duringprac.thisRepN,duringprac.thisTrialN,duringprac.thisN,duringprac.thisIndex,duringprac.ran,key_resp_22.keys,key_resp_22.rt,Circle1_colour,Circle2_colour,mouse.x,mouse.y,mouse.leftButton,mouse.midButton,mouse.rightButton,mouse.clicked_name,mouse_2.x,mouse_2.y,mouse_2.leftButton,mouse_2.midButton,mouse_2.rightButton,mouse_2.clicked_name,mouse_3.x,mouse_3.y,mouse_3.leftButton,mouse_3.midButton,mouse_3.rightButton,catchresponse,catchnumber,response_time_catch,Catch,mouse_11.x,mouse_11.y,mouse_11.leftButton,mouse_11.midButton,mouse_11.rightButton,trials_2.thisRepN,trials_2.thisTrialN,trials_2.thisN,trials_2.thisIndex,trials_2.ran,Colourpair,Temporder,mouse_3.clicked_name,mouse_11.clicked_name,trials_3.thisRepN,trials_3.thisTrialN,trials_3.thisN,trials_3.thisIndex,trials_3.ran,key_resp_instr_Ishi.keys,key_resp_instr_Ishi.rt,Ishi_trial_keyresp.keys,Ishi_trial_keyresp.rt,Ishi_textbox.text,Ishi_loop.thisRepN,Ishi_loop.thisTrialN,Ishi_loop.thisN,Ishi_loop.thisIndex,Ishi_loop.ran,imageaddress,textbox.text,mouse_4.x,mouse_4.y,mouse_4.leftButton,mouse_4.midButton,mouse_4.rightButton,mouse_4.clicked_name,textbox_2.text,mouse_8.x,mouse_8.y,mouse_8.leftButton,mouse_8.midButton,mouse_8.rightButton,mouse_8.clicked_name,textbox_3.text,mouse_9.x,mouse_9.y,mouse_9.leftButton,mouse_9.midButton,mouse_9.rightButton,mouse_9.clicked_name,textbox_4.text,mouse_12.x,mouse_12.y,mouse_12.leftButton,mouse_12.midButton,mouse_12.rightButton,mouse_12.clicked_name,textbox_5.text,mouse_13.x,mouse_13.y,mouse_13.leftButton,mouse_13.midButton,mouse_13.rightButton,mouse_13.clicked_name,textbox_6.text,mouse_14.x,mouse_14.y,mouse_14.leftButton,mouse_14.midButton,mouse_14.rightButton,mouse_14.clicked_name,textbox_7.text,mouse_15.x,mouse_15.y,mouse_15.leftButton,mouse_15.midButton,mouse_15.rightButton,mouse_15.clicked_name
0,0,0,12,1,,5dd43527794e1041e44fde8e,62bbf9eb25e35f3f0d737a10,2022-06-29_09h06.33.101,Colour_Asymmetry_Pilot,2022.1.3,Win32,60.0276127,62bbe60bf3d75ef465d3e404,,,,,,,,,,,,,,,,,,,,,,,,,,,,,,,,,,,,,,,,,,,,,,,,,,,,,,,,,,,,,,,,,,,,,,,,,,,,,,,,,,,,,,,,,,,,,,,,,,,,,,,,,,,,,,,,,,,,,,,,,,,,,,,,,,,,,,,,,,,,,,,,,,,,,,,,,,,,,,
0,1,1,35,1,,5dd43527794e1041e44fde8e,62bbf9eb25e35f3f0d737a10,2022-06-29_09h06.33.101,Colour_Asymmetry_Pilot,2022.1.3,Win32,60.0276127,62bbe60bf3d75ef465d3e404,,,,,,,,,,,,,,,,,,,,,,,,,,,,,,,,,,,,,,,,,,,,,,,,,,,,,,,,,,,,,,,,,,,,,,,,,,,,,,,,,,,,,,,,,,,,,,,,,,,,,,,,,,,,,,,,,,,,,,,,,,,,,,,,,,,,,,,,,,,,,,,,,,,,,,,,,,,,,,
0,2,2,38,1,,5dd43527794e1041e44fde8e,62bbf9eb25e35f3f0d737a10,2022-06-29_09h06.33.101,Colour_Asymmetry_Pilot,2022.1.3,Win32,60.0276127,62bbe60bf3d75ef465d3e404,,,,,,,,,,,,,,,,,,,,,,,,,,,,,,,,,,,,,,,,,,,,,,,,,,,,,,,,,,,,,,,,,,,,,,,,,,,,,,,,,,,,,,,,,,,,,,,,,,,,,,,,,,,,,,,,,,,,,,,,,,,,,,,,,,,,,,,,,,,,,,,,,,,,,,,,,,,,,,
0,3,3,11,1,,5dd43527794e1041e44fde8e,62bbf9eb25e35f3f0d737a10,2022-06-29_09h06.33.101,Colour_Asymmetry_Pilot,2022.1.3,Win32,60.0276127,62bbe60bf3d75ef465d3e404,,,,,,,,,,,,,,,,,,,,,,,,,,,,,,,,,,,,,,,,,,,,,,,,,,,,,,,,,,,,,,,,,,,,,,,,,,,,,,,,,,,,,,,,,,,,,,,,,,,,,,,,,,,,,,,,,,,,,,,,,,,,,,,,,,,,,,,,,,,,,,,,,,,,,,,,,,,,,,
0,4,4,54,1,,5dd43527794e1041e44fde8e,62bbf9eb25e35f3f0d737a10,2022-06-29_09h06.33.101,Colour_Asymmetry_Pilot,2022.1.3,Win32,60.0276127,62bbe60bf3d75ef465d3e404,,,,,,,,,,,,,,,,,,,,,,,,,,,,,,,,,,,,,,,,,,,,,,,,,,,,,,,,,,,,,,,,,,,,,,,,,,,,,,,,,,,,,,,,,,,,,,,,,,,,,,,,,,,,,,,,,,,,,,,,,,,,,,,,,,,,,,,,,,,,,,,,,,,,,,,,,,,,,,
0,5,5,66,1,,5dd43527794e1041e44fde8e,62bbf9eb25e35f3f0d737a10,2022-06-29_09h06.33.101,Colour_Asymmetry_Pilot,2022.1.3,Win32,60.0276127,62bbe60bf3d75ef465d3e404,,,,,,,,,,,,,,,,,,,,,,,,,,,,,,,,,,,,,,,,,,,,,,,,,,,,,,,,,,,,,,,,,,,,,,,,,,,,,,,,,,,,,,,,,,,,,,,,,,,,,,,,,,,,,,,,,,,,,,,,,,,,,,,,,,,,,,,,,,,,,,,,,,,,,,,,,,,,,,
0,6,6,64,1,,5dd43527794e1041e44fde8e,62bbf9eb25e35f3f0d737a10,2022-06-29_09h06.33.101,Colour_Asymmetry_Pilot,2022.1.3,Win32,60.0276127,62bbe60bf3d75ef465d3e404,,,,,,,,,,,,,,,,,,,,,,,,,,,,,,,,,,,,,,,,,,,,,,,,,,,,,,,,,,,,,,,,,,,,,,,,,,,,,,,,,,,,,,,,,,,,,,,,,,,,,,,,,,,,,,,,,,,,,,,,,,,,,,,,,,,,,,,,,,,,,,,,,,,,,,,,,,,,,,
0,7,7,73,1,,5dd43527794e1041e44fde8e,62bbf9eb25e35f3f0d737a10,2022-06-29_09h06.33.101,Colour_Asymmetry_Pilot,2022.1.3,Win32,60.0276127,62bbe60bf3d75ef465d3e404,,,,,,,,,,,,,,,,,,,,,,,,,,,,,,,,,,,,,,,,,,,,,,,,,,,,,,,,,,,,,,,,,,,,,,,,,,,,,,,,,,,,,,,,,,,,,,,,,,,,,,,,,,,,,,,,,,,,,,,,,,,,,,,,,,,,,,,,,,,,,,,,,,,,,,,,,,,,,,
0,8,8,55,1,,5dd43527794e1041e44fde8e,62bbf9eb25e35f3f0d737a10,2022-06-29_09h06.33.101,Colour_Asymmetry_Pilot,2022.1.3,Win32,60.0276127,62bbe60bf3d75ef465d3e404,,,,,,,,,,,,,,,,,,,,,,,,,,,,,,,,,,,,,,,,,,,,,,,,,,,,,,,,,,,,,,,,,,,,,,,,,,,,,,,,,,,,,,,,,,,,,,,,,,,,,,,,,,,,,,,,,,,,,,,,,,,,,,,,,,,,,,,,,,,,,,,,,,,,,,,,,,,,,,
0,9,9,45,1,,5dd43527794e1041e44fde8e,62bbf9eb25e35f3f0d737a10,2022-06-29_09h06.33.101,Colour_Asymmetry_Pilot,2022.1.3,Win32,60.0276127,62bbe60bf3d75ef465d3e404,,,,,,,,,,,,,,,,,,,,,,,,,,,,,,,,,,,,,,,,,,,,,,,,,,,,,,,,,,,,,,,,,,,,,,,,,,,,,,,,,,,,,,,,,,,,,,,,,,,,,,,,,,,,,,,,,,,,,,,,,,,,,,,,,,,,,,,,,,,,,,,,,,,,,,,,,,,,,,
0,10,10,60,1,,5dd43527794e1041e44fde8e,62bbf9eb25e35f3f0d737a10,2022-06-29_09h06.33.101,Colour_Asymmetry_Pilot,2022.1.3,Win32,60.0276127,62bbe60bf3d75ef465d3e404,,,,,,,,,,,,,,,,,,,,,,,,,,,,,,,,,,,,,,,,,,,,,,,,,,,,,,,,,,,,,,,,,,,,,,,,,,,,,,,,,,,,,,,,,,,,,,,,,,,,,,,,,,,,,,,,,,,,,,,,,,,,,,,,,,,,,,,,,,,,,,,,,,,,,,,,,,,,,,
0,11,11,25,1,,5dd43527794e1041e44fde8e,62bbf9eb25e35f3f0d737a10,2022-06-29_09h06.33.101,Colour_Asymmetry_Pilot,2022.1.3,Win32,60.0276127,62bbe60bf3d75ef465d3e404,,,,,,,,,,,,,,,,,,,,,,,,,,,,,,,,,,,,,,,,,,,,,,,,,,,,,,,,,,,,,,,,,,,,,,,,,,,,,,,,,,,,,,,,,,,,,,,,,,,,,,,,,,,,,,,,,,,,,,,,,,,,,,,,,,,,,,,,,,,,,,,,,,,,,,,,,,,,,,
0,12,12,56,1,,5dd43527794e1041e44fde8e,62bbf9eb25e35f3f0d737a10,2022-06-29_09h06.33.101,Colour_Asymmetry_Pilot,2022.1.3,Win32,60.0276127,62bbe60bf3d75ef465d3e404,,,,,,,,,,,,,,,,,,,,,,,,,,,,,,,,,,,,,,,,,,,,,,,,,,,,,,,,,,,,,,,,,,,,,,,,,,,,,,,,,,,,,,,,,,,,,,,,,,,,,,,,,,,,,,,,,,,,,,,,,,,,,,,,,,,,,,,,,,,,,,,,,,,,,,,,,,,,,,
0,13,13,68,1,,5dd43527794e1041e44fde8e,62bbf9eb25e35f3f0d737a10,2022-06-29_09h06.33.101,Colour_Asymmetry_Pilot,2022.1.3,Win32,60.0276127,62bbe60bf3d75ef465d3e404,,,,,,,,,,,,,,,,,,,,,,,,,,,,,,,,,,,,,,,,,,,,,,,,,,,,,,,,,,,,,,,,,,,,,,,,,,,,,,,,,,,,,,,,,,,,,,,,,,,,,,,,,,,,,,,,,,,,,,,,,,,,,,,,,,,,,,,,,,,,,,,,,,,,,,,,,,,,,,
0,14,14,72,1,,5dd43527794e1041e44fde8e,62bbf9eb25e35f3f0d737a10,2022-06-29_09h06.33.101,Colour_Asymmetry_Pilot,2022.1.3,Win32,60.0276127,62bbe60bf3d75ef465d3e404,,,,,,,,,,,,,,,,,,,,,,,,,,,,,,,,,,,,,,,,,,,,,,,,,,,,,,,,,,,,,,,,,,,,,,,,,,,,,,,,,,,,,,,,,,,,,,,,,,,,,,,,,,,,,,,,,,,,,,,,,,,,,,,,,,,,,,,,,,,,,,,,,,,,,,,,,,,,,,
0,15,15,19,1,,5dd43527794e1041e44fde8e,62bbf9eb25e35f3f0d737a10,2022-06-29_09h06.33.101,Colour_Asymmetry_Pilot,2022.1.3,Win32,60.0276127,62bbe60bf3d75ef465d3e404,,,,,,,,,,,,,,,,,,,,,,,,,,,,,,,,,,,,,,,,,,,,,,,,,,,,,,,,,,,,,,,,,,,,,,,,,,,,,,,,,,,,,,,,,,,,,,,,,,,,,,,,,,,,,,,,,,,,,,,,,,,,,,,,,,,,,,,,,,,,,,,,,,,,,,,,,,,,,,
0,16,16,75,1,,5dd43527794e1041e44fde8e,62bbf9eb25e35f3f0d737a10,2022-06-29_09h06.33.101,Colour_Asymmetry_Pilot,2022.1.3,Win32,60.0276127,62bbe60bf3d75ef465d3e404,,,,,,,,,,,,,,,,,,,,,,,,,,,,,,,,,,,,,,,,,,,,,,,,,,,,,,,,,,,,,,,,,,,,,,,,,,,,,,,,,,,,,,,,,,,,,,,,,,,,,,,,,,,,,,,,,,,,,,,,,,,,,,,,,,,,,,,,,,,,,,,,,,,,,,,,,,,,,,
0,17,17,77,1,,5dd43527794e1041e44fde8e,62bbf9eb25e35f3f0d737a10,2022-06-29_09h06.33.101,Colour_Asymmetry_Pilot,2022.1.3,Win32,60.0276127,62bbe60bf3d75ef465d3e404,,,,,,,,,,,,,,,,,,,,,,,,,,,,,,,,,,,,,,,,,,,,,,,,,,,,,,,,,,,,,,,,,,,,,,,,,,,,,,,,,,,,,,,,,,,,,,,,,,,,,,,,,,,,,,,,,,,,,,,,,,,,,,,,,,,,,,,,,,,,,,,,,,,,,,,,,,,,,,
0,18,18,13,1,,5dd43527794e1041e44fde8e,62bbf9eb25e35f3f0d737a10,2022-06-29_09h06.33.101,Colour_Asymmetry_Pilot,2022.1.3,Win32,60.0276127,62bbe60bf3d75ef465d3e404,,,,,,,,,,,,,,,,,,,,,,,,,,,,,,,,,,,,,,,,,,,,,,,,,,,,,,,,,,,,,,,,,,,,,,,,,,,,,,,,,,,,,,,,,,,,,,,,,,,,,,,,,,,,,,,,,,,,,,,,,,,,,,,,,,,,,,,,,,,,,,,,,,,,,,,,,,,,,,
0,19,19,82,1,,5dd43527794e1041e44fde8e,62bbf9eb25e35f3f0d737a10,2022-06-29_09h06.33.101,Colour_Asymmetry_Pilot,2022.1.3,Win32,60.0276127,62bbe60bf3d75ef465d3e404,,,,,,,,,,,,,,,,,,,,,,,,,,,,,,,,,,,,,,,,,,,,,,,,,,,,,,,,,,,,,,,,,,,,,,,,,,,,,,,,,,,,,,,,,,,,,,,,,,,,,,,,,,,,,,,,,,,,,,,,,,,,,,,,,,,,,,,,,,,,,,,,,,,,,,,,,,,,,,
0,20,20,88,1,,5dd43527794e1041e44fde8e,62bbf9eb25e35f3f0d737a10,2022-06-29_09h06.33.101,Colour_Asymmetry_Pilot,2022.1.3,Win32,60.0276127,62bbe60bf3d75ef465d3e404,,,,,,,,,,,,,,,,,,,,,,,,,,,,,,,,,,,,,,,,,,,,,,,,,,,,,,,,,,,,,,,,,,,,,,,,,,,,,,,,,,,,,,,,,,,,,,,,,,,,,,,,,,,,,,,,,,,,,,,,,,,,,,,,,,,,,,,,,,,,,,,,,,,,,,,,,,,,,,
0,21,21,28,1,,5dd43527794e1041e44fde8e,62bbf9eb25e35f3f0d737a10,2022-06-29_09h06.33.101,Colour_Asymmetry_Pilot,2022.1.3,Win32,60.0276127,62bbe60bf3d75ef465d3e404,,,,,,,,,,,,,,,,,,,,,,,,,,,,,,,,,,,,,,,,,,,,,,,,,,,,,,,,,,,,,,,,,,,,,,,,,,,,,,,,,,,,,,,,,,,,,,,,,,,,,,,,,,,,,,,,,,,,,,,,,,,,,,,,,,,,,,,,,,,,,,,,,,,,,,,,,,,,,,
0,22,22,6,1,,5dd43527794e1041e44fde8e,62bbf9eb25e35f3f0d737a10,2022-06-29_09h06.33.101,Colour_Asymmetry_Pilot,2022.1.3,Win32,60.0276127,62bbe60bf3d75ef465d3e404,,,,,,,,,,,,,,,,,,,,,,,,,,,,,,,,,,,,,,,,,,,,,,,,,,,,,,,,,,,,,,,,,,,,,,,,,,,,,,,,,,,,,,,,,,,,,,,,,,,,,,,,,,,,,,,,,,,,,,,,,,,,,,,,,,,,,,,,,,,,,,,,,,,,,,,,,,,,,,
0,23,23,37,1,,5dd43527794e1041e44fde8e,62bbf9eb25e35f3f0d737a10,2022-06-29_09h06.33.101,Colour_Asymmetry_Pilot,2022.1.3,Win32,60.0276127,62bbe60bf3d75ef465d3e404,,,,,,,,,,,,,,,,,,,,,,,,,,,,,,,,,,,,,,,,,,,,,,,,,,,,,,,,,,,,,,,,,,,,,,,,,,,,,,,,,,,,,,,,,,,,,,,,,,,,,,,,,,,,,,,,,,,,,,,,,,,,,,,,,,,,,,,,,,,,,,,,,,,,,,,,,,,,,,
0,24,24,41,1,,5dd43527794e1041e44fde8e,62bbf9eb25e35f3f0d737a10,2022-06-29_09h06.33.101,Colour_Asymmetry_Pilot,2022.1.3,Win32,60.0276127,62bbe60bf3d75ef465d3e404,,,,,,,,,,,,,,,,,,,,,,,,,,,,,,,,,,,,,,,,,,,,,,,,,,,,,,,,,,,,,,,,,,,,,,,,,,,,,,,,,,,,,,,,,,,,,,,,,,,,,,,,,,,,,,,,,,,,,,,,,,,,,,,,,,,,,,,,,,,,,,,,,,,,,,,,,,,,,,
0,25,25,86,1,,5dd43527794e1041e44fde8e,62bbf9eb25e35f3f0d737a10,2022-06-29_09h06.33.101,Colour_Asymmetry_Pilot,2022.1.3,Win32,60.0276127,62bbe60bf3d75ef465d3e404,,,,,,,,,,,,,,,,,,,,,,,,,,,,,,,,,,,,,,,,,,,,,,,,,,,,,,,,,,,,,,,,,,,,,,,,,,,,,,,,,,,,,,,,,,,,,,,,,,,,,,,,,,,,,,,,,,,,,,,,,,,,,,,,,,,,,,,,,,,,,,,,,,,,,,,,,,,,,,
0,26,26,61,1,,5dd43527794e1041e44fde8e,62bbf9eb25e35f3f0d737a10,2022-06-29_09h06.33.101,Colour_Asymmetry_Pilot,2022.1.3,Win32,60.0276127,62bbe60bf3d75ef465d3e404,,,,,,,,,,,,,,,,,,,,,,,,,,,,,,,,,,,,,,,,,,,,,,,,,,,,,,,,,,,,,,,,,,,,,,,,,,,,,,,,,,,,,,,,,,,,,,,,,,,,,,,,,,,,,,,,,,,,,,,,,,,,,,,,,,,,,,,,,,,,,,,,,,,,,,,,,,,,,,
0,27,27,16,1,,5dd43527794e1041e44fde8e,62bbf9eb25e35f3f0d737a10,2022-06-29_09h06.33.101,Colour_Asymmetry_Pilot,2022.1.3,Win32,60.0276127,62bbe60bf3d75ef465d3e404,,,,,,,,,,,,,,,,,,,,,,,,,,,,,,,,,,,,,,,,,,,,,,,,,,,,,,,,,,,,,,,,,,,,,,,,,,,,,,,,,,,,,,,,,,,,,,,,,,,,,,,,,,,,,,,,,,,,,,,,,,,,,,,,,,,,,,,,,,,,,,,,,,,,,,,,,,,,,,
0,28,28,59,1,,5dd43527794e1041e44fde8e,62bbf9eb25e35f3f0d737a10,2022-06-29_09h06.33.101,Colour_Asymmetry_Pilot,2022.1.3,Win32,60.0276127,62bbe60bf3d75ef465d3e404,,,,,,,,,,,,,,,,,,,,,,,,,,,,,,,,,,,,,,,,,,,,,,,,,,,,,,,,,,,,,,,,,,,,,,,,,,,,,,,,,,,,,,,,,,,,,,,,,,,,,,,,,,,,,,,,,,,,,,,,,,,,,,,,,,,,,,,,,,,,,,,,,,,,,,,,,,,,,,
0,29,29,89,1,,5dd43527794e1041e44fde8e,62bbf9eb25e35f3f0d737a10,2022-06-29_09h06.33.101,Colour_Asymmetry_Pilot,2022.1.3,Win32,60.0276127,62bbe60bf3d75ef465d3e404,,,,,,,,,,,,,,,,,,,,,,,,,,,,,,,,,,,,,,,,,,,,,,,,,,,,,,,,,,,,,,,,,,,,,,,,,,,,,,,,,,,,,,,,,,,,,,,,,,,,,,,,,,,,,,,,,,,,,,,,,,,,,,,,,,,,,,,,,,,,,,,,,,,,,,,,,,,,,,
0,30,30,65,1,,5dd43527794e1041e44fde8e,62bbf9eb25e35f3f0d737a10,2022-06-29_09h06.33.101,Colour_Asymmetry_Pilot,2022.1.3,Win32,60.0276127,62bbe60bf3d75ef465d3e404,,,,,,,,,,,,,,,,,,,,,,,,,,,,,,,,,,,,,,,,,,,,,,,,,,,,,,,,,,,,,,,,,,,,,,,,,,,,,,,,,,,,,,,,,,,,,,,,,,,,,,,,,,,,,,,,,,,,,,,,,,,,,,,,,,,,,,,,,,,,,,,,,,,,,,,,,,,,,,
0,31,31,17,1,,5dd43527794e1041e44fde8e,62bbf9eb25e35f3f0d737a10,2022-06-29_09h06.33.101,Colour_Asymmetry_Pilot,2022.1.3,Win32,60.0276127,62bbe60bf3d75ef465d3e404,,,,,,,,,,,,,,,,,,,,,,,,,,,,,,,,,,,,,,,,,,,,,,,,,,,,,,,,,,,,,,,,,,,,,,,,,,,,,,,,,,,,,,,,,,,,,,,,,,,,,,,,,,,,,,,,,,,,,,,,,,,,,,,,,,,,,,,,,,,,,,,,,,,,,,,,,,,,,,
0,32,32,42,1,,5dd43527794e1041e44fde8e,62bbf9eb25e35f3f0d737a10,2022-06-29_09h06.33.101,Colour_Asymmetry_Pilot,2022.1.3,Win32,60.0276127,62bbe60bf3d75ef465d3e404,,,,,,,,,,,,,,,,,,,,,,,,,,,,,,,,,,,,,,,,,,,,,,,,,,,,,,,,,,,,,,,,,,,,,,,,,,,,,,,,,,,,,,,,,,,,,,,,,,,,,,,,,,,,,,,,,,,,,,,,,,,,,,,,,,,,,,,,,,,,,,,,,,,,,,,,,,,,,,
0,33,33,87,1,,5dd43527794e1041e44fde8e,62bbf9eb25e35f3f0d737a10,2022-06-29_09h06.33.101,Colour_Asymmetry_Pilot,2022.1.3,Win32,60.0276127,62bbe60bf3d75ef465d3e404,,,,,,,,,,,,,,,,,,,,,,,,,,,,,,,,,,,,,,,,,,,,,,,,,,,,,,,,,,,,,,,,,,,,,,,,,,,,,,,,,,,,,,,,,,,,,,,,,,,,,,,,,,,,,,,,,,,,,,,,,,,,,,,,,,,,,,,,,,,,,,,,,,,,,,,,,,,,,,
0,34,34,0,1,,5dd43527794e1041e44fde8e,62bbf9eb25e35f3f0d737a10,2022-06-29_09h06.33.101,Colour_Asymmetry_Pilot,2022.1.3,Win32,60.0276127,62bbe60bf3d75ef465d3e404,,,,,,,,,,,,,,,,,,,,,,,,,,,,,,,,,,,,,,,,,,,,,,,,,,,,,,,,,,,,,,,,,,,,,,,,,,,,,,,,,,,,,,,,,,,,,,,,,,,,,,,,,,,,,,,,,,,,,,,,,,,,,,,,,,,,,,,,,,,,,,,,,,,,,,,,,,,,,,
0,35,35,1,1,,5dd43527794e1041e44fde8e,62bbf9eb25e35f3f0d737a10,2022-06-29_09h06.33.101,Colour_Asymmetry_Pilot,2022.1.3,Win32,60.0276127,62bbe60bf3d75ef465d3e404,,,,,,,,,,,,,,,,,,,,,,,,,,,,,,,,,,,,,,,,,,,,,,,,,,,,,,,,,,,,,,,,,,,,,,,,,,,,,,,,,,,,,,,,,,,,,,,,,,,,,,,,,,,,,,,,,,,,,,,,,,,,,,,,,,,,,,,,,,,,,,,,,,,,,,,,,,,,,,
0,36,36,14,1,,5dd43527794e1041e44fde8e,62bbf9eb25e35f3f0d737a10,2022-06-29_09h06.33.101,Colour_Asymmetry_Pilot,2022.1.3,Win32,60.0276127,62bbe60bf3d75ef465d3e404,,,,,,,,,,,,,,,,,,,,,,,,,,,,,,,,,,,,,,,,,,,,,,,,,,,,,,,,,,,,,,,,,,,,,,,,,,,,,,,,,,,,,,,,,,,,,,,,,,,,,,,,,,,,,,,,,,,,,,,,,,,,,,,,,,,,,,,,,,,,,,,,,,,,,,,,,,,,,,
0,37,37,67,1,,5dd43527794e1041e44fde8e,62bbf9eb25e35f3f0d737a10,2022-06-29_09h06.33.101,Colour_Asymmetry_Pilot,2022.1.3,Win32,60.0276127,62bbe60bf3d75ef465d3e404,,,,,,,,,,,,,,,,,,,,,,,,,,,,,,,,,,,,,,,,,,,,,,,,,,,,,,,,,,,,,,,,,,,,,,,,,,,,,,,,,,,,,,,,,,,,,,,,,,,,,,,,,,,,,,,,,,,,,,,,,,,,,,,,,,,,,,,,,,,,,,,,,,,,,,,,,,,,,,
0,38,38,18,1,,5dd43527794e1041e44fde8e,62bbf9eb25e35f3f0d737a10,2022-06-29_09h06.33.101,Colour_Asymmetry_Pilot,2022.1.3,Win32,60.0276127,62bbe60bf3d75ef465d3e404,,,,,,,,,,,,,,,,,,,,,,,,,,,,,,,,,,,,,,,,,,,,,,,,,,,,,,,,,,,,,,,,,,,,,,,,,,,,,,,,,,,,,,,,,,,,,,,,,,,,,,,,,,,,,,,,,,,,,,,,,,,,,,,,,,,,,,,,,,,,,,,,,,,,,,,,,,,,,,
0,39,39,33,1,,5dd43527794e1041e44fde8e,62bbf9eb25e35f3f0d737a10,2022-06-29_09h06.33.101,Colour_Asymmetry_Pilot,2022.1.3,Win32,60.0276127,62bbe60bf3d75ef465d3e404,,,,,,,,,,,,,,,,,,,,,,,,,,,,,,,,,,,,,,,,,,,,,,,,,,,,,,,,,,,,,,,,,,,,,,,,,,,,,,,,,,,,,,,,,,,,,,,,,,,,,,,,,,,,,,,,,,,,,,,,,,,,,,,,,,,,,,,,,,,,,,,,,,,,,,,,,,,,,,
0,40,40,40,1,,5dd43527794e1041e44fde8e,62bbf9eb25e35f3f0d737a10,2022-06-29_09h06.33.101,Colour_Asymmetry_Pilot,2022.1.3,Win32,60.0276127,62bbe60bf3d75ef465d3e404,,,,,,,,,,,,,,,,,,,,,,,,,,,,,,,,,,,,,,,,,,,,,,,,,,,,,,,,,,,,,,,,,,,,,,,,,,,,,,,,,,,,,,,,,,,,,,,,,,,,,,,,,,,,,,,,,,,,,,,,,,,,,,,,,,,,,,,,,,,,,,,,,,,,,,,,,,,,,,
0,41,41,70,1,,5dd43527794e1041e44fde8e,62bbf9eb25e35f3f0d737a10,2022-06-29_09h06.33.101,Colour_Asymmetry_Pilot,2022.1.3,Win32,60.0276127,62bbe60bf3d75ef465d3e404,,,,,,,,,,,,,,,,,,,,,,,,,,,,,,,,,,,,,,,,,,,,,,,,,,,,,,,,,,,,,,,,,,,,,,,,,,,,,,,,,,,,,,,,,,,,,,,,,,,,,,,,,,,,,,,,,,,,,,,,,,,,,,,,,,,,,,,,,,,,,,,,,,,,,,,,,,,,,,
0,42,42,2,1,,5dd43527794e1041e44fde8e,62bbf9eb25e35f3f0d737a10,2022-06-29_09h06.33.101,Colour_Asymmetry_Pilot,2022.1.3,Win32,60.0276127,62bbe60bf3d75ef465d3e404,,,,,,,,,,,,,,,,,,,,,,,,,,,,,,,,,,,,,,,,,,,,,,,,,,,,,,,,,,,,,,,,,,,,,,,,,,,,,,,,,,,,,,,,,,,,,,,,,,,,,,,,,,,,,,,,,,,,,,,,,,,,,,,,,,,,,,,,,,,,,,,,,,,,,,,,,,,,,,
0,43,43,22,1,,5dd43527794e1041e44fde8e,62bbf9eb25e35f3f0d737a10,2022-06-29_09h06.33.101,Colour_Asymmetry_Pilot,2022.1.3,Win32,60.0276127,62bbe60bf3d75ef465d3e404,,,,,,,,,,,,,,,,,,,,,,,,,,,,,,,,,,,,,,,,,,,,,,,,,,,,,,,,,,,,,,,,,,,,,,,,,,,,,,,,,,,,,,,,,,,,,,,,,,,,,,,,,,,,,,,,,,,,,,,,,,,,,,,,,,,,,,,,,,,,,,,,,,,,,,,,,,,,,,
0,44,44,30,1,,5dd43527794e1041e44fde8e,62bbf9eb25e35f3f0d737a10,2022-06-29_09h06.33.101,Colour_Asymmetry_Pilot,2022.1.3,Win32,60.0276127,62bbe60bf3d75ef465d3e404,,,,,,,,,,,,,,,,,,,,,,,,,,,,,,,,,,,,,,,,,,,,,,,,,,,,,,,,,,,,,,,,,,,,,,,,,,,,,,,,,,,,,,,,,,,,,,,,,,,,,,,,,,,,,,,,,,,,,,,,,,,,,,,,,,,,,,,,,,,,,,,,,,,,,,,,,,,,,,
0,45,45,52,1,,5dd43527794e1041e44fde8e,62bbf9eb25e35f3f0d737a10,2022-06-29_09h06.33.101,Colour_Asymmetry_Pilot,2022.1.3,Win32,60.0276127,62bbe60bf3d75ef465d3e404,,,,,,,,,,,,,,,,,,,,,,,,,,,,,,,,,,,,,,,,,,,,,,,,,,,,,,,,,,,,,,,,,,,,,,,,,,,,,,,,,,,,,,,,,,,,,,,,,,,,,,,,,,,,,,,,,,,,,,,,,,,,,,,,,,,,,,,,,,,,,,,,,,,,,,,,,,,,,,
0,46,46,80,1,,5dd43527794e1041e44fde8e,62bbf9eb25e35f3f0d737a10,2022-06-29_09h06.33.101,Colour_Asymmetry_Pilot,2022.1.3,Win32,60.0276127,62bbe60bf3d75ef465d3e404,,,,,,,,,,,,,,,,,,,,,,,,,,,,,,,,,,,,,,,,,,,,,,,,,,,,,,,,,,,,,,,,,,,,,,,,,,,,,,,,,,,,,,,,,,,,,,,,,,,,,,,,,,,,,,,,,,,,,,,,,,,,,,,,,,,,,,,,,,,,,,,,,,,,,,,,,,,,,,
0,47,47,32,1,,5dd43527794e1041e44fde8e,62bbf9eb25e35f3f0d737a10,2022-06-29_09h06.33.101,Colour_Asymmetry_Pilot,2022.1.3,Win32,60.0276127,62bbe60bf3d75ef465d3e404,,,,,,,,,,,,,,,,,,,,,,,,,,,,,,,,,,,,,,,,,,,,,,,,,,,,,,,,,,,,,,,,,,,,,,,,,,,,,,,,,,,,,,,,,,,,,,,,,,,,,,,,,,,,,,,,,,,,,,,,,,,,,,,,,,,,,,,,,,,,,,,,,,,,,,,,,,,,,,
0,48,48,92,1,,5dd43527794e1041e44fde8e,62bbf9eb25e35f3f0d737a10,2022-06-29_09h06.33.101,Colour_Asymmetry_Pilot,2022.1.3,Win32,60.0276127,62bbe60bf3d75ef465d3e404,,,,,,,,,,,,,,,,,,,,,,,,,,,,,,,,,,,,,,,,,,,,,,,,,,,,,,,,,,,,,,,,,,,,,,,,,,,,,,,,,,,,,,,,,,,,,,,,,,,,,,,,,,,,,,,,,,,,,,,,,,,,,,,,,,,,,,,,,,,,,,,,,,,,,,,,,,,,,,
0,49,49,39,1,,5dd43527794e1041e44fde8e,62bbf9eb25e35f3f0d737a10,2022-06-29_09h06.33.101,Colour_Asymmetry_Pilot,2022.1.3,Win32,60.0276127,62bbe60bf3d75ef465d3e404,,,,,,,,,,,,,,,,,,,,,,,,,,,,,,,,,,,,,,,,,,,,,,,,,,,,,,,,,,,,,,,,,,,,,,,,,,,,,,,,,,,,,,,,,,,,,,,,,,,,,,,,,,,,,,,,,,,,,,,,,,,,,,,,,,,,,,,,,,,,,,,,,,,,,,,,,,,,,,
0,50,50,8,1,,5dd43527794e1041e44fde8e,62bbf9eb25e35f3f0d737a10,2022-06-29_09h06.33.101,Colour_Asymmetry_Pilot,2022.1.3,Win32,60.0276127,62bbe60bf3d75ef465d3e404,,,,,,,,,,,,,,,,,,,,,,,,,,,,,,,,,,,,,,,,,,,,,,,,,,,,,,,,,,,,,,,,,,,,,,,,,,,,,,,,,,,,,,,,,,,,,,,,,,,,,,,,,,,,,,,,,,,,,,,,,,,,,,,,,,,,,,,,,,,,,,,,,,,,,,,,,,,,,,
0,51,51,47,1,,5dd43527794e1041e44fde8e,62bbf9eb25e35f3f0d737a10,2022-06-29_09h06.33.101,Colour_Asymmetry_Pilot,2022.1.3,Win32,60.0276127,62bbe60bf3d75ef465d3e404,,,,,,,,,,,,,,,,,,,,,,,,,,,,,,,,,,,,,,,,,,,,,,,,,,,,,,,,,,,,,,,,,,,,,,,,,,,,,,,,,,,,,,,,,,,,,,,,,,,,,,,,,,,,,,,,,,,,,,,,,,,,,,,,,,,,,,,,,,,,,,,,,,,,,,,,,,,,,,
0,52,52,69,1,,5dd43527794e1041e44fde8e,62bbf9eb25e35f3f0d737a10,2022-06-29_09h06.33.101,Colour_Asymmetry_Pilot,2022.1.3,Win32,60.0276127,62bbe60bf3d75ef465d3e404,,,,,,,,,,,,,,,,,,,,,,,,,,,,,,,,,,,,,,,,,,,,,,,,,,,,,,,,,,,,,,,,,,,,,,,,,,,,,,,,,,,,,,,,,,,,,,,,,,,,,,,,,,,,,,,,,,,,,,,,,,,,,,,,,,,,,,,,,,,,,,,,,,,,,,,,,,,,,,
0,53,53,24,1,,5dd43527794e1041e44fde8e,62bbf9eb25e35f3f0d737a10,2022-06-29_09h06.33.101,Colour_Asymmetry_Pilot,2022.1.3,Win32,60.0276127,62bbe60bf3d75ef465d3e404,,,,,,,,,,,,,,,,,,,,,,,,,,,,,,,,,,,,,,,,,,,,,,,,,,,,,,,,,,,,,,,,,,,,,,,,,,,,,,,,,,,,,,,,,,,,,,,,,,,,,,,,,,,,,,,,,,,,,,,,,,,,,,,,,,,,,,,,,,,,,,,,,,,,,,,,,,,,,,
0,54,54,50,1,,5dd43527794e1041e44fde8e,62bbf9eb25e35f3f0d737a10,2022-06-29_09h06.33.101,Colour_Asymmetry_Pilot,2022.1.3,Win32,60.0276127,62bbe60bf3d75ef465d3e404,,,,,,,,,,,,,,,,,,,,,,,,,,,,,,,,,,,,,,,,,,,,,,,,,,,,,,,,,,,,,,,,,,,,,,,,,,,,,,,,,,,,,,,,,,,,,,,,,,,,,,,,,,,,,,,,,,,,,,,,,,,,,,,,,,,,,,,,,,,,,,,,,,,,,,,,,,,,,,
0,55,55,53,1,,5dd43527794e1041e44fde8e,62bbf9eb25e35f3f0d737a10,2022-06-29_09h06.33.101,Colour_Asymmetry_Pilot,2022.1.3,Win32,60.0276127,62bbe60bf3d75ef465d3e404,,,,,,,,,,,,,,,,,,,,,,,,,,,,,,,,,,,,,,,,,,,,,,,,,,,,,,,,,,,,,,,,,,,,,,,,,,,,,,,,,,,,,,,,,,,,,,,,,,,,,,,,,,,,,,,,,,,,,,,,,,,,,,,,,,,,,,,,,,,,,,,,,,,,,,,,,,,,,,
0,56,56,4,1,,5dd43527794e1041e44fde8e,62bbf9eb25e35f3f0d737a10,2022-06-29_09h06.33.101,Colour_Asymmetry_Pilot,2022.1.3,Win32,60.0276127,62bbe60bf3d75ef465d3e404,,,,,,,,,,,,,,,,,,,,,,,,,,,,,,,,,,,,,,,,,,,,,,,,,,,,,,,,,,,,,,,,,,,,,,,,,,,,,,,,,,,,,,,,,,,,,,,,,,,,,,,,,,,,,,,,,,,,,,,,,,,,,,,,,,,,,,,,,,,,,,,,,,,,,,,,,,,,,,
0,57,57,20,1,,5dd43527794e1041e44fde8e,62bbf9eb25e35f3f0d737a10,2022-06-29_09h06.33.101,Colour_Asymmetry_Pilot,2022.1.3,Win32,60.0276127,62bbe60bf3d75ef465d3e404,,,,,,,,,,,,,,,,,,,,,,,,,,,,,,,,,,,,,,,,,,,,,,,,,,,,,,,,,,,,,,,,,,,,,,,,,,,,,,,,,,,,,,,,,,,,,,,,,,,,,,,,,,,,,,,,,,,,,,,,,,,,,,,,,,,,,,,,,,,,,,,,,,,,,,,,,,,,,,
0,58,58,71,1,,5dd43527794e1041e44fde8e,62bbf9eb25e35f3f0d737a10,2022-06-29_09h06.33.101,Colour_Asymmetry_Pilot,2022.1.3,Win32,60.0276127,62bbe60bf3d75ef465d3e404,,,,,,,,,,,,,,,,,,,,,,,,,,,,,,,,,,,,,,,,,,,,,,,,,,,,,,,,,,,,,,,,,,,,,,,,,,,,,,,,,,,,,,,,,,,,,,,,,,,,,,,,,,,,,,,,,,,,,,,,,,,,,,,,,,,,,,,,,,,,,,,,,,,,,,,,,,,,,,
0,59,59,48,1,,5dd43527794e1041e44fde8e,62bbf9eb25e35f3f0d737a10,2022-06-29_09h06.33.101,Colour_Asymmetry_Pilot,2022.1.3,Win32,60.0276127,62bbe60bf3d75ef465d3e404,,,,,,,,,,,,,,,,,,,,,,,,,,,,,,,,,,,,,,,,,,,,,,,,,,,,,,,,,,,,,,,,,,,,,,,,,,,,,,,,,,,,,,,,,,,,,,,,,,,,,,,,,,,,,,,,,,,,,,,,,,,,,,,,,,,,,,,,,,,,,,,,,,,,,,,,,,,,,,
0,60,60,26,1,,5dd43527794e1041e44fde8e,62bbf9eb25e35f3f0d737a10,2022-06-29_09h06.33.101,Colour_Asymmetry_Pilot,2022.1.3,Win32,60.0276127,62bbe60bf3d75ef465d3e404,,,,,,,,,,,,,,,,,,,,,,,,,,,,,,,,,,,,,,,,,,,,,,,,,,,,,,,,,,,,,,,,,,,,,,,,,,,,,,,,,,,,,,,,,,,,,,,,,,,,,,,,,,,,,,,,,,,,,,,,,,,,,,,,,,,,,,,,,,,,,,,,,,,,,,,,,,,,,,
0,61,61,34,1,,5dd43527794e1041e44fde8e,62bbf9eb25e35f3f0d737a10,2022-06-29_09h06.33.101,Colour_Asymmetry_Pilot,2022.1.3,Win32,60.0276127,62bbe60bf3d75ef465d3e404,,,,,,,,,,,,,,,,,,,,,,,,,,,,,,,,,,,,,,,,,,,,,,,,,,,,,,,,,,,,,,,,,,,,,,,,,,,,,,,,,,,,,,,,,,,,,,,,,,,,,,,,,,,,,,,,,,,,,,,,,,,,,,,,,,,,,,,,,,,,,,,,,,,,,,,,,,,,,,
0,62,62,76,1,,5dd43527794e1041e44fde8e,62bbf9eb25e35f3f0d737a10,2022-06-29_09h06.33.101,Colour_Asymmetry_Pilot,2022.1.3,Win32,60.0276127,62bbe60bf3d75ef465d3e404,,,,,,,,,,,,,,,,,,,,,,,,,,,,,,,,,,,,,,,,,,,,,,,,,,,,,,,,,,,,,,,,,,,,,,,,,,,,,,,,,,,,,,,,,,,,,,,,,,,,,,,,,,,,,,,,,,,,,,,,,,,,,,,,,,,,,,,,,,,,,,,,,,,,,,,,,,,,,,
0,63,63,46,1,,5dd43527794e1041e44fde8e,62bbf9eb25e35f3f0d737a10,2022-06-29_09h06.33.101,Colour_Asymmetry_Pilot,2022.1.3,Win32,60.0276127,62bbe60bf3d75ef465d3e404,,,,,,,,,,,,,,,,,,,,,,,,,,,,,,,,,,,,,,,,,,,,,,,,,,,,,,,,,,,,,,,,,,,,,,,,,,,,,,,,,,,,,,,,,,,,,,,,,,,,,,,,,,,,,,,,,,,,,,,,,,,,,,,,,,,,,,,,,,,,,,,,,,,,,,,,,,,,,,
0,64,64,58,1,,5dd43527794e1041e44fde8e,62bbf9eb25e35f3f0d737a10,2022-06-29_09h06.33.101,Colour_Asymmetry_Pilot,2022.1.3,Win32,60.0276127,62bbe60bf3d75ef465d3e404,,,,,,,,,,,,,,,,,,,,,,,,,,,,,,,,,,,,,,,,,,,,,,,,,,,,,,,,,,,,,,,,,,,,,,,,,,,,,,,,,,,,,,,,,,,,,,,,,,,,,,,,,,,,,,,,,,,,,,,,,,,,,,,,,,,,,,,,,,,,,,,,,,,,,,,,,,,,,,
0,65,65,63,1,,5dd43527794e1041e44fde8e,62bbf9eb25e35f3f0d737a10,2022-06-29_09h06.33.101,Colour_Asymmetry_Pilot,2022.1.3,Win32,60.0276127,62bbe60bf3d75ef465d3e404,,,,,,,,,,,,,,,,,,,,,,,,,,,,,,,,,,,,,,,,,,,,,,,,,,,,,,,,,,,,,,,,,,,,,,,,,,,,,,,,,,,,,,,,,,,,,,,,,,,,,,,,,,,,,,,,,,,,,,,,,,,,,,,,,,,,,,,,,,,,,,,,,,,,,,,,,,,,,,
0,66,66,5,1,,5dd43527794e1041e44fde8e,62bbf9eb25e35f3f0d737a10,2022-06-29_09h06.33.101,Colour_Asymmetry_Pilot,2022.1.3,Win32,60.0276127,62bbe60bf3d75ef465d3e404,,,,,,,,,,,,,,,,,,,,,,,,,,,,,,,,,,,,,,,,,,,,,,,,,,,,,,,,,,,,,,,,,,,,,,,,,,,,,,,,,,,,,,,,,,,,,,,,,,,,,,,,,,,,,,,,,,,,,,,,,,,,,,,,,,,,,,,,,,,,,,,,,,,,,,,,,,,,,,
0,67,67,44,1,,5dd43527794e1041e44fde8e,62bbf9eb25e35f3f0d737a10,2022-06-29_09h06.33.101,Colour_Asymmetry_Pilot,2022.1.3,Win32,60.0276127,62bbe60bf3d75ef465d3e404,,,,,,,,,,,,,,,,,,,,,,,,,,,,,,,,,,,,,,,,,,,,,,,,,,,,,,,,,,,,,,,,,,,,,,,,,,,,,,,,,,,,,,,,,,,,,,,,,,,,,,,,,,,,,,,,,,,,,,,,,,,,,,,,,,,,,,,,,,,,,,,,,,,,,,,,,,,,,,
0,68,68,91,1,,5dd43527794e1041e44fde8e,62bbf9eb25e35f3f0d737a10,2022-06-29_09h06.33.101,Colour_Asymmetry_Pilot,2022.1.3,Win32,60.0276127,62bbe60bf3d75ef465d3e404,,,,,,,,,,,,,,,,,,,,,,,,,,,,,,,,,,,,,,,,,,,,,,,,,,,,,,,,,,,,,,,,,,,,,,,,,,,,,,,,,,,,,,,,,,,,,,,,,,,,,,,,,,,,,,,,,,,,,,,,,,,,,,,,,,,,,,,,,,,,,,,,,,,,,,,,,,,,,,
0,69,69,85,1,,5dd43527794e1041e44fde8e,62bbf9eb25e35f3f0d737a10,2022-06-29_09h06.33.101,Colour_Asymmetry_Pilot,2022.1.3,Win32,60.0276127,62bbe60bf3d75ef465d3e404,,,,,,,,,,,,,,,,,,,,,,,,,,,,,,,,,,,,,,,,,,,,,,,,,,,,,,,,,,,,,,,,,,,,,,,,,,,,,,,,,,,,,,,,,,,,,,,,,,,,,,,,,,,,,,,,,,,,,,,,,,,,,,,,,,,,,,,,,,,,,,,,,,,,,,,,,,,,,,
0,70,70,81,1,,5dd43527794e1041e44fde8e,62bbf9eb25e35f3f0d737a10,2022-06-29_09h06.33.101,Colour_Asymmetry_Pilot,2022.1.3,Win32,60.0276127,62bbe60bf3d75ef465d3e404,,,,,,,,,,,,,,,,,,,,,,,,,,,,,,,,,,,,,,,,,,,,,,,,,,,,,,,,,,,,,,,,,,,,,,,,,,,,,,,,,,,,,,,,,,,,,,,,,,,,,,,,,,,,,,,,,,,,,,,,,,,,,,,,,,,,,,,,,,,,,,,,,,,,,,,,,,,,,,
0,71,71,49,1,,5dd43527794e1041e44fde8e,62bbf9eb25e35f3f0d737a10,2022-06-29_09h06.33.101,Colour_Asymmetry_Pilot,2022.1.3,Win32,60.0276127,62bbe60bf3d75ef465d3e404,,,,,,,,,,,,,,,,,,,,,,,,,,,,,,,,,,,,,,,,,,,,,,,,,,,,,,,,,,,,,,,,,,,,,,,,,,,,,,,,,,,,,,,,,,,,,,,,,,,,,,,,,,,,,,,,,,,,,,,,,,,,,,,,,,,,,,,,,,,,,,,,,,,,,,,,,,,,,,
0,72,72,43,1,,5dd43527794e1041e44fde8e,62bbf9eb25e35f3f0d737a10,2022-06-29_09h06.33.101,Colour_Asymmetry_Pilot,2022.1.3,Win32,60.0276127,62bbe60bf3d75ef465d3e404,,,,,,,,,,,,,,,,,,,,,,,,,,,,,,,,,,,,,,,,,,,,,,,,,,,,,,,,,,,,,,,,,,,,,,,,,,,,,,,,,,,,,,,,,,,,,,,,,,,,,,,,,,,,,,,,,,,,,,,,,,,,,,,,,,,,,,,,,,,,,,,,,,,,,,,,,,,,,,
0,73,73,83,1,,5dd43527794e1041e44fde8e,62bbf9eb25e35f3f0d737a10,2022-06-29_09h06.33.101,Colour_Asymmetry_Pilot,2022.1.3,Win32,60.0276127,62bbe60bf3d75ef465d3e404,,,,,,,,,,,,,,,,,,,,,,,,,,,,,,,,,,,,,,,,,,,,,,,,,,,,,,,,,,,,,,,,,,,,,,,,,,,,,,,,,,,,,,,,,,,,,,,,,,,,,,,,,,,,,,,,,,,,,,,,,,,,,,,,,,,,,,,,,,,,,,,,,,,,,,,,,,,,,,
0,74,74,51,1,,5dd43527794e1041e44fde8e,62bbf9eb25e35f3f0d737a10,2022-06-29_09h06.33.101,Colour_Asymmetry_Pilot,2022.1.3,Win32,60.0276127,62bbe60bf3d75ef465d3e404,,,,,,,,,,,,,,,,,,,,,,,,,,,,,,,,,,,,,,,,,,,,,,,,,,,,,,,,,,,,,,,,,,,,,,,,,,,,,,,,,,,,,,,,,,,,,,,,,,,,,,,,,,,,,,,,,,,,,,,,,,,,,,,,,,,,,,,,,,,,,,,,,,,,,,,,,,,,,,
0,75,75,84,1,,5dd43527794e1041e44fde8e,62bbf9eb25e35f3f0d737a10,2022-06-29_09h06.33.101,Colour_Asymmetry_Pilot,2022.1.3,Win32,60.0276127,62bbe60bf3d75ef465d3e404,,,,,,,,,,,,,,,,,,,,,,,,,,,,,,,,,,,,,,,,,,,,,,,,,,,,,,,,,,,,,,,,,,,,,,,,,,,,,,,,,,,,,,,,,,,,,,,,,,,,,,,,,,,,,,,,,,,,,,,,,,,,,,,,,,,,,,,,,,,,,,,,,,,,,,,,,,,,,,
0,76,76,27,1,,5dd43527794e1041e44fde8e,62bbf9eb25e35f3f0d737a10,2022-06-29_09h06.33.101,Colour_Asymmetry_Pilot,2022.1.3,Win32,60.0276127,62bbe60bf3d75ef465d3e404,,,,,,,,,,,,,,,,,,,,,,,,,,,,,,,,,,,,,,,,,,,,,,,,,,,,,,,,,,,,,,,,,,,,,,,,,,,,,,,,,,,,,,,,,,,,,,,,,,,,,,,,,,,,,,,,,,,,,,,,,,,,,,,,,,,,,,,,,,,,,,,,,,,,,,,,,,,,,,
0,77,77,9,1,,5dd43527794e1041e44fde8e,62bbf9eb25e35f3f0d737a10,2022-06-29_09h06.33.101,Colour_Asymmetry_Pilot,2022.1.3,Win32,60.0276127,62bbe60bf3d75ef465d3e404,,,,,,,,,,,,,,,,,,,,,,,,,,,,,,,,,,,,,,,,,,,,,,,,,,,,,,,,,,,,,,,,,,,,,,,,,,,,,,,,,,,,,,,,,,,,,,,,,,,,,,,,,,,,,,,,,,,,,,,,,,,,,,,,,,,,,,,,,,,,,,,,,,,,,,,,,,,,,,
0,78,78,10,1,,5dd43527794e1041e44fde8e,62bbf9eb25e35f3f0d737a10,2022-06-29_09h06.33.101,Colour_Asymmetry_Pilot,2022.1.3,Win32,60.0276127,62bbe60bf3d75ef465d3e404,,,,,,,,,,,,,,,,,,,,,,,,,,,,,,,,,,,,,,,,,,,,,,,,,,,,,,,,,,,,,,,,,,,,,,,,,,,,,,,,,,,,,,,,,,,,,,,,,,,,,,,,,,,,,,,,,,,,,,,,,,,,,,,,,,,,,,,,,,,,,,,,,,,,,,,,,,,,,,
0,79,79,90,1,,5dd43527794e1041e44fde8e,62bbf9eb25e35f3f0d737a10,2022-06-29_09h06.33.101,Colour_Asymmetry_Pilot,2022.1.3,Win32,60.0276127,62bbe60bf3d75ef465d3e404,,,,,,,,,,,,,,,,,,,,,,,,,,,,,,,,,,,,,,,,,,,,,,,,,,,,,,,,,,,,,,,,,,,,,,,,,,,,,,,,,,,,,,,,,,,,,,,,,,,,,,,,,,,,,,,,,,,,,,,,,,,,,,,,,,,,,,,,,,,,,,,,,,,,,,,,,,,,,,
0,80,80,7,1,,5dd43527794e1041e44fde8e,62bbf9eb25e35f3f0d737a10,2022-06-29_09h06.33.101,Colour_Asymmetry_Pilot,2022.1.3,Win32,60.0276127,62bbe60bf3d75ef465d3e404,,,,,,,,,,,,,,,,,,,,,,,,,,,,,,,,,,,,,,,,,,,,,,,,,,,,,,,,,,,,,,,,,,,,,,,,,,,,,,,,,,,,,,,,,,,,,,,,,,,,,,,,,,,,,,,,,,,,,,,,,,,,,,,,,,,,,,,,,,,,,,,,,,,,,,,,,,,,,,
0,81,81,62,1,,5dd43527794e1041e44fde8e,62bbf9eb25e35f3f0d737a10,2022-06-29_09h06.33.101,Colour_Asymmetry_Pilot,2022.1.3,Win32,60.0276127,62bbe60bf3d75ef465d3e404,,,,,,,,,,,,,,,,,,,,,,,,,,,,,,,,,,,,,,,,,,,,,,,,,,,,,,,,,,,,,,,,,,,,,,,,,,,,,,,,,,,,,,,,,,,,,,,,,,,,,,,,,,,,,,,,,,,,,,,,,,,,,,,,,,,,,,,,,,,,,,,,,,,,,,,,,,,,,,
0,82,82,23,1,,5dd43527794e1041e44fde8e,62bbf9eb25e35f3f0d737a10,2022-06-29_09h06.33.101,Colour_Asymmetry_Pilot,2022.1.3,Win32,60.0276127,62bbe60bf3d75ef465d3e404,,,,,,,,,,,,,,,,,,,,,,,,,,,,,,,,,,,,,,,,,,,,,,,,,,,,,,,,,,,,,,,,,,,,,,,,,,,,,,,,,,,,,,,,,,,,,,,,,,,,,,,,,,,,,,,,,,,,,,,,,,,,,,,,,,,,,,,,,,,,,,,,,,,,,,,,,,,,,,
0,83,83,31,1,,5dd43527794e1041e44fde8e,62bbf9eb25e35f3f0d737a10,2022-06-29_09h06.33.101,Colour_Asymmetry_Pilot,2022.1.3,Win32,60.0276127,62bbe60bf3d75ef465d3e404,,,,,,,,,,,,,,,,,,,,,,,,,,,,,,,,,,,,,,,,,,,,,,,,,,,,,,,,,,,,,,,,,,,,,,,,,,,,,,,,,,,,,,,,,,,,,,,,,,,,,,,,,,,,,,,,,,,,,,,,,,,,,,,,,,,,,,,,,,,,,,,,,,,,,,,,,,,,,,
0,84,84,78,1,,5dd43527794e1041e44fde8e,62bbf9eb25e35f3f0d737a10,2022-06-29_09h06.33.101,Colour_Asymmetry_Pilot,2022.1.3,Win32,60.0276127,62bbe60bf3d75ef465d3e404,,,,,,,,,,,,,,,,,,,,,,,,,,,,,,,,,,,,,,,,,,,,,,,,,,,,,,,,,,,,,,,,,,,,,,,,,,,,,,,,,,,,,,,,,,,,,,,,,,,,,,,,,,,,,,,,,,,,,,,,,,,,,,,,,,,,,,,,,,,,,,,,,,,,,,,,,,,,,,
0,85,85,3,1,,5dd43527794e1041e44fde8e,62bbf9eb25e35f3f0d737a10,2022-06-29_09h06.33.101,Colour_Asymmetry_Pilot,2022.1.3,Win32,60.0276127,62bbe60bf3d75ef465d3e404,,,,,,,,,,,,,,,,,,,,,,,,,,,,,,,,,,,,,,,,,,,,,,,,,,,,,,,,,,,,,,,,,,,,,,,,,,,,,,,,,,,,,,,,,,,,,,,,,,,,,,,,,,,,,,,,,,,,,,,,,,,,,,,,,,,,,,,,,,,,,,,,,,,,,,,,,,,,,,
0,86,86,21,1,,5dd43527794e1041e44fde8e,62bbf9eb25e35f3f0d737a10,2022-06-29_09h06.33.101,Colour_Asymmetry_Pilot,2022.1.3,Win32,60.0276127,62bbe60bf3d75ef465d3e404,,,,,,,,,,,,,,,,,,,,,,,,,,,,,,,,,,,,,,,,,,,,,,,,,,,,,,,,,,,,,,,,,,,,,,,,,,,,,,,,,,,,,,,,,,,,,,,,,,,,,,,,,,,,,,,,,,,,,,,,,,,,,,,,,,,,,,,,,,,,,,,,,,,,,,,,,,,,,,
0,87,87,79,1,,5dd43527794e1041e44fde8e,62bbf9eb25e35f3f0d737a10,2022-06-29_09h06.33.101,Colour_Asymmetry_Pilot,2022.1.3,Win32,60.0276127,62bbe60bf3d75ef465d3e404,,,,,,,,,,,,,,,,,,,,,,,,,,,,,,,,,,,,,,,,,,,,,,,,,,,,,,,,,,,,,,,,,,,,,,,,,,,,,,,,,,,,,,,,,,,,,,,,,,,,,,,,,,,,,,,,,,,,,,,,,,,,,,,,,,,,,,,,,,,,,,,,,,,,,,,,,,,,,,
0,88,88,29,1,,5dd43527794e1041e44fde8e,62bbf9eb25e35f3f0d737a10,2022-06-29_09h06.33.101,Colour_Asymmetry_Pilot,2022.1.3,Win32,60.0276127,62bbe60bf3d75ef465d3e404,,,,,,,,,,,,,,,,,,,,,,,,,,,,,,,,,,,,,,,,,,,,,,,,,,,,,,,,,,,,,,,,,,,,,,,,,,,,,,,,,,,,,,,,,,,,,,,,,,,,,,,,,,,,,,,,,,,,,,,,,,,,,,,,,,,,,,,,,,,,,,,,,,,,,,,,,,,,,,
0,89,89,36,1,,5dd43527794e1041e44fde8e,62bbf9eb25e35f3f0d737a10,2022-06-29_09h06.33.101,Colour_Asymmetry_Pilot,2022.1.3,Win32,60.0276127,62bbe60bf3d75ef465d3e404,,,,,,,,,,,,,,,,,,,,,,,,,,,,,,,,,,,,,,,,,,,,,,,,,,,,,,,,,,,,,,,,,,,,,,,,,,,,,,,,,,,,,,,,,,,,,,,,,,,,,,,,,,,,,,,,,,,,,,,,,,,,,,,,,,,,,,,,,,,,,,,,,,,,,,,,,,,,,,
0,90,90,74,1,,5dd43527794e1041e44fde8e,62bbf9eb25e35f3f0d737a10,2022-06-29_09h06.33.101,Colour_Asymmetry_Pilot,2022.1.3,Win32,60.0276127,62bbe60bf3d75ef465d3e404,,,,,,,,,,,,,,,,,,,,,,,,,,,,,,,,,,,,,,,,,,,,,,,,,,,,,,,,,,,,,,,,,,,,,,,,,,,,,,,,,,,,,,,,,,,,,,,,,,,,,,,,,,,,,,,,,,,,,,,,,,,,,,,,,,,,,,,,,,,,,,,,,,,,,,,,,,,,,,
0,91,91,15,1,,5dd43527794e1041e44fde8e,62bbf9eb25e35f3f0d737a10,2022-06-29_09h06.33.101,Colour_Asymmetry_Pilot,2022.1.3,Win32,60.0276127,62bbe60bf3d75ef465d3e404,,,,,,,,,,,,,,,,,,,,,,,,,,,,,,,,,,,,,,,,,,,,,,,,,,,,,,,,,,,,,,,,,,,,,,,,,,,,,,,,,,,,,,,,,,,,,,,,,,,,,,,,,,,,,,,,,,,,,,,,,,,,,,,,,,,,,,,,,,,,,,,,,,,,,,,,,,,,,,
0,92,92,57,1,,5dd43527794e1041e44fde8e,62bbf9eb25e35f3f0d737a10,2022-06-29_09h06.33.101,Colour_Asymmetry_Pilot,2022.1.3,Win32,60.0276127,62bbe60bf3d75ef465d3e404,,,,,,,,,,,,,,,,,,,,,,,,,,,,,,,,,,,,,,,,,,,,,,,,,,,,,,,,,,,,,,,,,,,,,,,,,,,,,,,,,,,,,,,,,,,,,,,,,,,,,,,,,,,,,,,,,,,,,,,,,,,,,,,,,,,,,,,,,,,,,,,,,,,,,,,,,,,,,,
,,,,,,5dd43527794e1041e44fde8e,62bbf9eb25e35f3f0d737a10,2022-06-29_09h06.33.101,Colour_Asymmetry_Pilot,2022.1.3,Win32,60.0276127,62bbe60bf3d75ef465d3e404,0,0,0,20,1,threeone,,,,,,,,,,,,,,,,,,,,,,,,,,,,,,,,,,,,,,,,,,,,,,,,,,,,,,,,,,,,,,,,,,,,,,,,,,,,,,,,,,,,,,,,,,,,,,,,,,,,,,,,,,,,,,,,,,,,,,,,,,,,,,,,,,,,,,,,,,,,,,,,,,,,,,,,
,,,,,,5dd43527794e1041e44fde8e,62bbf9eb25e35f3f0d737a10,2022-06-29_09h06.33.101,Colour_Asymmetry_Pilot,2022.1.3,Win32,60.0276127,62bbe60bf3d75ef465d3e404,0,1,1,24,1,onetwo,,,,,,,,,,,,,,,,,,,,,,,,,,,,,,,,,,,,,,,,,,,,,,,,,,,,,,,,,,,,,,,,,,,,,,,,,,,,,,,,,,,,,,,,,,,,,,,,,,,,,,,,,,,,,,,,,,,,,,,,,,,,,,,,,,,,,,,,,,,,,,,,,,,,,,,,
,,,,,,5dd43527794e1041e44fde8e,62bbf9eb25e35f3f0d737a10,2022-06-29_09h06.33.101,Colour_Asymmetry_Pilot,2022.1.3,Win32,60.0276127,62bbe60bf3d75ef465d3e404,0,2,2,76,1,threeone,,,,,,,,,,,,,,,,,,,,,,,,,,,,,,,,,,,,,,,,,,,,,,,,,,,,,,,,,,,,,,,,,,,,,,,,,,,,,,,,,,,,,,,,,,,,,,,,,,,,,,,,,,,,,,,,,,,,,,,,,,,,,,,,,,,,,,,,,,,,,,,,,,,,,,,,
,,,,,,5dd43527794e1041e44fde8e,62bbf9eb25e35f3f0d737a10,2022-06-29_09h06.33.101,Colour_Asymmetry_Pilot,2022.1.3,Win32,60.0276127,62bbe60bf3d75ef465d3e404,0,3,3,109,1,threefour,,,,,,,,,,,,,,,,,,,,,,,,,,,,,,,,,,,,,,,,,,,,,,,,,,,,,,,,,,,,,,,,,,,,,,,,,,,,,,,,,,,,,,,,,,,,,,,,,,,,,,,,,,,,,,,,,,,,,,,,,,,,,,,,,,,,,,,,,,,,,,,,,,,,,,,,
,,,,,,5dd43527794e1041e44fde8e,62bbf9eb25e35f3f0d737a10,2022-06-29_09h06.33.101,Colour_Asymmetry_Pilot,2022.1.3,Win32,60.0276127,62bbe60bf3d75ef465d3e404,0,4,4,27,1,twofour,,,,,,,,,,,,,,,,,,,,,,,,,,,,,,,,,,,,,,,,,,,,,,,,,,,,,,,,,,,,,,,,,,,,,,,,,,,,,,,,,,,,,,,,,,,,,,,,,,,,,,,,,,,,,,,,,,,,,,,,,,,,,,,,,,,,,,,,,,,,,,,,,,,,,,,,
,,,,,,5dd43527794e1041e44fde8e,62bbf9eb25e35f3f0d737a10,2022-06-29_09h06.33.101,Colour_Asymmetry_Pilot,2022.1.3,Win32,60.0276127,62bbe60bf3d75ef465d3e404,0,5,5,151,1,fourthree,,,,,,,,,,,,,,,,,,,,,,,,,,,,,,,,,,,,,,,,,,,,,,,,,,,,,,,,,,,,,,,,,,,,,,,,,,,,,,,,,,,,,,,,,,,,,,,,,,,,,,,,,,,,,,,,,,,,,,,,,,,,,,,,,,,,,,,,,,,,,,,,,,,,,,,,
,,,,,,5dd43527794e1041e44fde8e,62bbf9eb25e35f3f0d737a10,2022-06-29_09h06.33.101,Colour_Asymmetry_Pilot,2022.1.3,Win32,60.0276127,62bbe60bf3d75ef465d3e404,0,6,6,10,1,twoone,,,,,,,,,,,,,,,,,,,,,,,,,,,,,,,,,,,,,,,,,,,,,,,,,,,,,,,,,,,,,,,,,,,,,,,,,,,,,,,,,,,,,,,,,,,,,,,,,,,,,,,,,,,,,,,,,,,,,,,,,,,,,,,,,,,,,,,,,,,,,,,,,,,,,,,,
,,,,,,5dd43527794e1041e44fde8e,62bbf9eb25e35f3f0d737a10,2022-06-29_09h06.33.101,Colour_Asymmetry_Pilot,2022.1.3,Win32,60.0276127,62bbe60bf3d75ef465d3e404,0,7,7,154,1,twoone,,,,,,,,,,,,,,,,,,,,,,,,,,,,,,,,,,,,,,,,,,,,,,,,,,,,,,,,,,,,,,,,,,,,,,,,,,,,,,,,,,,,,,,,,,,,,,,,,,,,,,,,,,,,,,,,,,,,,,,,,,,,,,,,,,,,,,,,,,,,,,,,,,,,,,,,
,,,,,,5dd43527794e1041e44fde8e,62bbf9eb25e35f3f0d737a10,2022-06-29_09h06.33.101,Colour_Asymmetry_Pilot,2022.1.3,Win32,60.0276127,62bbe60bf3d75ef465d3e404,0,8,8,159,1,fourthree,,,,,,,,,,,,,,,,,,,,,,,,,,,,,,,,,,,,,,,,,,,,,,,,,,,,,,,,,,,,,,,,,,,,,,,,,,,,,,,,,,,,,,,,,,,,,,,,,,,,,,,,,,,,,,,,,,,,,,,,,,,,,,,,,,,,,,,,,,,,,,,,,,,,,,,,
,,,,,,5dd43527794e1041e44fde8e,62bbf9eb25e35f3f0d737a10,2022-06-29_09h06.33.101,Colour_Asymmetry_Pilot,2022.1.3,Win32,60.0276127,62bbe60bf3d75ef465d3e404,0,9,9,113,1,onethree,,,,,,,,,,,,,,,,,,,,,,,,,,,,,,,,,,,,,,,,,,,,,,,,,,,,,,,,,,,,,,,,,,,,,,,,,,,,,,,,,,,,,,,,,,,,,,,,,,,,,,,,,,,,,,,,,,,,,,,,,,,,,,,,,,,,,,,,,,,,,,,,,,,,,,,,
,,,,,,5dd43527794e1041e44fde8e,62bbf9eb25e35f3f0d737a10,2022-06-29_09h06.33.101,Colour_Asymmetry_Pilot,2022.1.3,Win32,60.0276127,62bbe60bf3d75ef465d3e404,0,10,10,80,1,onetwo,,,,,,,,,,,,,,,,,,,,,,,,,,,,,,,,,,,,,,,,,,,,,,,,,,,,,,,,,,,,,,,,,,,,,,,,,,,,,,,,,,,,,,,,,,,,,,,,,,,,,,,,,,,,,,,,,,,,,,,,,,,,,,,,,,,,,,,,,,,,,,,,,,,,,,,,
,,,,,,5dd43527794e1041e44fde8e,62bbf9eb25e35f3f0d737a10,2022-06-29_09h06.33.101,Colour_Asymmetry_Pilot,2022.1.3,Win32,60.0276127,62bbe60bf3d75ef465d3e404,0,11,11,1,1,onethree,,,,,,,,,,,,,,,,,,,,,,,,,,,,,,,,,,,,,,,,,,,,,,,,,,,,,,,,,,,,,,,,,,,,,,,,,,,,,,,,,,,,,,,,,,,,,,,,,,,,,,,,,,,,,,,,,,,,,,,,,,,,,,,,,,,,,,,,,,,,,,,,,,,,,,,,
,,,,,,5dd43527794e1041e44fde8e,62bbf9eb25e35f3f0d737a10,2022-06-29_09h06.33.101,Colour_Asymmetry_Pilot,2022.1.3,Win32,60.0276127,62bbe60bf3d75ef465d3e404,0,12,12,21,1,threefour,,,,,,,,,,,,,,,,,,,,,,,,,,,,,,,,,,,,,,,,,,,,,,,,,,,,,,,,,,,,,,,,,,,,,,,,,,,,,,,,,,,,,,,,,,,,,,,,,,,,,,,,,,,,,,,,,,,,,,,,,,,,,,,,,,,,,,,,,,,,,,,,,,,,,,,,
,,,,,,5dd43527794e1041e44fde8e,62bbf9eb25e35f3f0d737a10,2022-06-29_09h06.33.101,Colour_Asymmetry_Pilot,2022.1.3,Win32,60.0276127,62bbe60bf3d75ef465d3e404,0,13,13,158,1,fourtwo,,,,,,,,,,,,,,,,,,,,,,,,,,,,,,,,,,,,,,,,,,,,,,,,,,,,,,,,,,,,,,,,,,,,,,,,,,,,,,,,,,,,,,,,,,,,,,,,,,,,,,,,,,,,,,,,,,,,,,,,,,,,,,,,,,,,,,,,,,,,,,,,,,,,,,,,
,,,,,,5dd43527794e1041e44fde8e,62bbf9eb25e35f3f0d737a10,2022-06-29_09h06.33.101,Colour_Asymmetry_Pilot,2022.1.3,Win32,60.0276127,62bbe60bf3d75ef465d3e404,0,14,14,43,1,twofour,,,,,,,,,,,,,,,,,,,,,,,,,,,,,,,,,,,,,,,,,,,,,,,,,,,,,,,,,,,,,,,,,,,,,,,,,,,,,,,,,,,,,,,,,,,,,,,,,,,,,,,,,,,,,,,,,,,,,,,,,,,,,,,,,,,,,,,,,,,,,,,,,,,,,,,,
,,,,,,5dd43527794e1041e44fde8e,62bbf9eb25e35f3f0d737a10,2022-06-29_09h06.33.101,Colour_Asymmetry_Pilot,2022.1.3,Win32,60.0276127,62bbe60bf3d75ef465d3e404,0,15,15,116,1,threeone,,,,,,,,,,,,,,,,,,,,,,,,,,,,,,,,,,,,,,,,,,,,,,,,,,,,,,,,,,,,,,,,,,,,,,,,,,,,,,,,,,,,,,,,,,,,,,,,,,,,,,,,,,,,,,,,,,,,,,,,,,,,,,,,,,,,,,,,,,,,,,,,,,,,,,,,
,,,,,,5dd43527794e1041e44fde8e,62bbf9eb25e35f3f0d737a10,2022-06-29_09h06.33.101,Colour_Asymmetry_Pilot,2022.1.3,Win32,60.0276127,62bbe60bf3d75ef465d3e404,0,16,16,51,1,twofour,,,,,,,,,,,,,,,,,,,,,,,,,,,,,,,,,,,,,,,,,,,,,,,,,,,,,,,,,,,,,,,,,,,,,,,,,,,,,,,,,,,,,,,,,,,,,,,,,,,,,,,,,,,,,,,,,,,,,,,,,,,,,,,,,,,,,,,,,,,,,,,,,,,,,,,,
,,,,,,5dd43527794e1041e44fde8e,62bbf9eb25e35f3f0d737a10,2022-06-29_09h06.33.101,Colour_Asymmetry_Pilot,2022.1.3,Win32,60.0276127,62bbe60bf3d75ef465d3e404,0,17,17,71,1,fourthree,,,,,,,,,,,,,,,,,,,,,,,,,,,,,,,,,,,,,,,,,,,,,,,,,,,,,,,,,,,,,,,,,,,,,,,,,,,,,,,,,,,,,,,,,,,,,,,,,,,,,,,,,,,,,,,,,,,,,,,,,,,,,,,,,,,,,,,,,,,,,,,,,,,,,,,,
,,,,,,5dd43527794e1041e44fde8e,62bbf9eb25e35f3f0d737a10,2022-06-29_09h06.33.101,Colour_Asymmetry_Pilot,2022.1.3,Win32,60.0276127,62bbe60bf3d75ef465d3e404,0,18,18,139,1,twofour,,,,,,,,,,,,,,,,,,,,,,,,,,,,,,,,,,,,,,,,,,,,,,,,,,,,,,,,,,,,,,,,,,,,,,,,,,,,,,,,,,,,,,,,,,,,,,,,,,,,,,,,,,,,,,,,,,,,,,,,,,,,,,,,,,,,,,,,,,,,,,,,,,,,,,,,
,,,,,,5dd43527794e1041e44fde8e,62bbf9eb25e35f3f0d737a10,2022-06-29_09h06.33.101,Colour_Asymmetry_Pilot,2022.1.3,Win32,60.0276127,62bbe60bf3d75ef465d3e404,0,19,19,14,1,fourtwo,,,,,,,,,,,,,,,,,,,,,,,,,,,,,,,,,,,,,,,,,,,,,,,,,,,,,,,,,,,,,,,,,,,,,,,,,,,,,,,,,,,,,,,,,,,,,,,,,,,,,,,,,,,,,,,,,,,,,,,,,,,,,,,,,,,,,,,,,,,,,,,,,,,,,,,,
,,,,,,5dd43527794e1041e44fde8e,62bbf9eb25e35f3f0d737a10,2022-06-29_09h06.33.101,Colour_Asymmetry_Pilot,2022.1.3,Win32,60.0276127,62bbe60bf3d75ef465d3e404,0,20,20,31,1,fourthree,,,,,,,,,,,,,,,,,,,,,,,,,,,,,,,,,,,,,,,,,,,,,,,,,,,,,,,,,,,,,,,,,,,,,,,,,,,,,,,,,,,,,,,,,,,,,,,,,,,,,,,,,,,,,,,,,,,,,,,,,,,,,,,,,,,,,,,,,,,,,,,,,,,,,,,,
,,,,,,5dd43527794e1041e44fde8e,62bbf9eb25e35f3f0d737a10,2022-06-29_09h06.33.101,Colour_Asymmetry_Pilot,2022.1.3,Win32,60.0276127,62bbe60bf3d75ef465d3e404,0,21,21,0,1,onetwo,,,,,,,,,,,,,,,,,,,,,,,,,,,,,,,,,,,,,,,,,,,,,,,,,,,,,,,,,,,,,,,,,,,,,,,,,,,,,,,,,,,,,,,,,,,,,,,,,,,,,,,,,,,,,,,,,,,,,,,,,,,,,,,,,,,,,,,,,,,,,,,,,,,,,,,,
,,,,,,5dd43527794e1041e44fde8e,62bbf9eb25e35f3f0d737a10,2022-06-29_09h06.33.101,Colour_Asymmetry_Pilot,2022.1.3,Win32,60.0276127,62bbe60bf3d75ef465d3e404,0,22,22,23,1,fourthree,,,,,,,,,,,,,,,,,,,,,,,,,,,,,,,,,,,,,,,,,,,,,,,,,,,,,,,,,,,,,,,,,,,,,,,,,,,,,,,,,,,,,,,,,,,,,,,,,,,,,,,,,,,,,,,,,,,,,,,,,,,,,,,,,,,,,,,,,,,,,,,,,,,,,,,,
,,,,,,5dd43527794e1041e44fde8e,62bbf9eb25e35f3f0d737a10,2022-06-29_09h06.33.101,Colour_Asymmetry_Pilot,2022.1.3,Win32,60.0276127,62bbe60bf3d75ef465d3e404,0,23,23,47,1,fourthree,,,,,,,,,,,,,,,,,,,,,,,,,,,,,,,,,,,,,,,,,,,,,,,,,,,,,,,,,,,,,,,,,,,,,,,,,,,,,,,,,,,,,,,,,,,,,,,,,,,,,,,,,,,,,,,,,,,,,,,,,,,,,,,,,,,,,,,,,,,,,,,,,,,,,,,,
,,,,,,5dd43527794e1041e44fde8e,62bbf9eb25e35f3f0d737a10,2022-06-29_09h06.33.101,Colour_Asymmetry_Pilot,2022.1.3,Win32,60.0276127,62bbe60bf3d75ef465d3e404,0,24,24,104,1,onetwo,,,,,,,,,,,,,,,,,,,,,,,,,,,,,,,,,,,,,,,,,,,,,,,,,,,,,,,,,,,,,,,,,,,,,,,,,,,,,,,,,,,,,,,,,,,,,,,,,,,,,,,,,,,,,,,,,,,,,,,,,,,,,,,,,,,,,,,,,,,,,,,,,,,,,,,,
,,,,,,5dd43527794e1041e44fde8e,62bbf9eb25e35f3f0d737a10,2022-06-29_09h06.33.101,Colour_Asymmetry_Pilot,2022.1.3,Win32,60.0276127,62bbe60bf3d75ef465d3e404,0,25,25,60,1,threeone,,,,,,,,,,,,,,,,,,,,,,,,,,,,,,,,,,,,,,,,,,,,,,,,,,,,,,,,,,,,,,,,,,,,,,,,,,,,,,,,,,,,,,,,,,,,,,,,,,,,,,,,,,,,,,,,,,,,,,,,,,,,,,,,,,,,,,,,,,,,,,,,,,,,,,,,
,,,,,,5dd43527794e1041e44fde8e,62bbf9eb25e35f3f0d737a10,2022-06-29_09h06.33.101,Colour_Asymmetry_Pilot,2022.1.3,Win32,60.0276127,62bbe60bf3d75ef465d3e404,0,26,26,8,1,onetwo,,,,,,,,,,,,,,,,,,,,,,,,,,,,,,,,,,,,,,,,,,,,,,,,,,,,,,,,,,,,,,,,,,,,,,,,,,,,,,,,,,,,,,,,,,,,,,,,,,,,,,,,,,,,,,,,,,,,,,,,,,,,,,,,,,,,,,,,,,,,,,,,,,,,,,,,
,,,,,,5dd43527794e1041e44fde8e,62bbf9eb25e35f3f0d737a10,2022-06-29_09h06.33.101,Colour_Asymmetry_Pilot,2022.1.3,Win32,60.0276127,62bbe60bf3d75ef465d3e404,0,27,27,117,1,threefour,,,,,,,,,,,,,,,,,,,,,,,,,,,,,,,,,,,,,,,,,,,,,,,,,,,,,,,,,,,,,,,,,,,,,,,,,,,,,,,,,,,,,,,,,,,,,,,,,,,,,,,,,,,,,,,,,,,,,,,,,,,,,,,,,,,,,,,,,,,,,,,,,,,,,,,,
,,,,,,5dd43527794e1041e44fde8e,62bbf9eb25e35f3f0d737a10,2022-06-29_09h06.33.101,Colour_Asymmetry_Pilot,2022.1.3,Win32,60.0276127,62bbe60bf3d75ef465d3e404,0,28,28,9,1,onethree,,,,,,,,,,,,,,,,,,,,,,,,,,,,,,,,,,,,,,,,,,,,,,,,,,,,,,,,,,,,,,,,,,,,,,,,,,,,,,,,,,,,,,,,,,,,,,,,,,,,,,,,,,,,,,,,,,,,,,,,,,,,,,,,,,,,,,,,,,,,,,,,,,,,,,,,
,,,,,,5dd43527794e1041e44fde8e,62bbf9eb25e35f3f0d737a10,2022-06-29_09h06.33.101,Colour_Asymmetry_Pilot,2022.1.3,Win32,60.0276127,62bbe60bf3d75ef465d3e404,0,29,29,46,1,fourtwo,,,,,,,,,,,,,,,,,,,,,,,,,,,,,,,,,,,,,,,,,,,,,,,,,,,,,,,,,,,,,,,,,,,,,,,,,,,,,,,,,,,,,,,,,,,,,,,,,,,,,,,,,,,,,,,,,,,,,,,,,,,,,,,,,,,,,,,,,,,,,,,,,,,,,,,,
,,,,,,5dd43527794e1041e44fde8e,62bbf9eb25e35f3f0d737a10,2022-06-29_09h06.33.101,Colour_Asymmetry_Pilot,2022.1.3,Win32,60.0276127,62bbe60bf3d75ef465d3e404,0,30,30,129,1,onethree,,,,,,,,,,,,,,,,,,,,,,,,,,,,,,,,,,,,,,,,,,,,,,,,,,,,,,,,,,,,,,,,,,,,,,,,,,,,,,,,,,,,,,,,,,,,,,,,,,,,,,,,,,,,,,,,,,,,,,,,,,,,,,,,,,,,,,,,,,,,,,,,,,,,,,,,
,,,,,,5dd43527794e1041e44fde8e,62bbf9eb25e35f3f0d737a10,2022-06-29_09h06.33.101,Colour_Asymmetry_Pilot,2022.1.3,Win32,60.0276127,62bbe60bf3d75ef465d3e404,0,31,31,25,1,onethree,,,,,,,,,,,,,,,,,,,,,,,,,,,,,,,,,,,,,,,,,,,,,,,,,,,,,,,,,,,,,,,,,,,,,,,,,,,,,,,,,,,,,,,,,,,,,,,,,,,,,,,,,,,,,,,,,,,,,,,,,,,,,,,,,,,,,,,,,,,,,,,,,,,,,,,,
,,,,,,5dd43527794e1041e44fde8e,62bbf9eb25e35f3f0d737a10,2022-06-29_09h06.33.101,Colour_Asymmetry_Pilot,2022.1.3,Win32,60.0276127,62bbe60bf3d75ef465d3e404,0,32,32,12,1,threeone,,,,,,,,,,,,,,,,,,,,,,,,,,,,,,,,,,,,,,,,,,,,,,,,,,,,,,,,,,,,,,,,,,,,,,,,,,,,,,,,,,,,,,,,,,,,,,,,,,,,,,,,,,,,,,,,,,,,,,,,,,,,,,,,,,,,,,,,,,,,,,,,,,,,,,,,
,,,,,,5dd43527794e1041e44fde8e,62bbf9eb25e35f3f0d737a10,2022-06-29_09h06.33.101,Colour_Asymmetry_Pilot,2022.1.3,Win32,60.0276127,62bbe60bf3d75ef465d3e404,0,33,33,87,1,fourthree,,,,,,,,,,,,,,,,,,,,,,,,,,,,,,,,,,,,,,,,,,,,,,,,,,,,,,,,,,,,,,,,,,,,,,,,,,,,,,,,,,,,,,,,,,,,,,,,,,,,,,,,,,,,,,,,,,,,,,,,,,,,,,,,,,,,,,,,,,,,,,,,,,,,,,,,
,,,,,,5dd43527794e1041e44fde8e,62bbf9eb25e35f3f0d737a10,2022-06-29_09h06.33.101,Colour_Asymmetry_Pilot,2022.1.3,Win32,60.0276127,62bbe60bf3d75ef465d3e404,0,34,34,67,1,twofour,,,,,,,,,,,,,,,,,,,,,,,,,,,,,,,,,,,,,,,,,,,,,,,,,,,,,,,,,,,,,,,,,,,,,,,,,,,,,,,,,,,,,,,,,,,,,,,,,,,,,,,,,,,,,,,,,,,,,,,,,,,,,,,,,,,,,,,,,,,,,,,,,,,,,,,,
,,,,,,5dd43527794e1041e44fde8e,62bbf9eb25e35f3f0d737a10,2022-06-29_09h06.33.101,Colour_Asymmetry_Pilot,2022.1.3,Win32,60.0276127,62bbe60bf3d75ef465d3e404,0,35,35,130,1,twoone,,,,,,,,,,,,,,,,,,,,,,,,,,,,,,,,,,,,,,,,,,,,,,,,,,,,,,,,,,,,,,,,,,,,,,,,,,,,,,,,,,,,,,,,,,,,,,,,,,,,,,,,,,,,,,,,,,,,,,,,,,,,,,,,,,,,,,,,,,,,,,,,,,,,,,,,
,,,,,,5dd43527794e1041e44fde8e,62bbf9eb25e35f3f0d737a10,2022-06-29_09h06.33.101,Colour_Asymmetry_Pilot,2022.1.3,Win32,60.0276127,62bbe60bf3d75ef465d3e404,0,36,36,136,1,onetwo,,,,,,,,,,,,,,,,,,,,,,,,,,,,,,,,,,,,,,,,,,,,,,,,,,,,,,,,,,,,,,,,,,,,,,,,,,,,,,,,,,,,,,,,,,,,,,,,,,,,,,,,,,,,,,,,,,,,,,,,,,,,,,,,,,,,,,,,,,,,,,,,,,,,,,,,
,,,,,,5dd43527794e1041e44fde8e,62bbf9eb25e35f3f0d737a10,2022-06-29_09h06.33.101,Colour_Asymmetry_Pilot,2022.1.3,Win32,60.0276127,62bbe60bf3d75ef465d3e404,0,37,37,112,1,onetwo,,,,,,,,,,,,,,,,,,,,,,,,,,,,,,,,,,,,,,,,,,,,,,,,,,,,,,,,,,,,,,,,,,,,,,,,,,,,,,,,,,,,,,,,,,,,,,,,,,,,,,,,,,,,,,,,,,,,,,,,,,,,,,,,,,,,,,,,,,,,,,,,,,,,,,,,
,,,,,,5dd43527794e1041e44fde8e,62bbf9eb25e35f3f0d737a10,2022-06-29_09h06.33.101,Colour_Asymmetry_Pilot,2022.1.3,Win32,60.0276127,62bbe60bf3d75ef465d3e404,0,38,38,18,1,twoone,,,,,,,,,,,,,,,,,,,,,,,,,,,,,,,,,,,,,,,,,,,,,,,,,,,,,,,,,,,,,,,,,,,,,,,,,,,,,,,,,,,,,,,,,,,,,,,,,,,,,,,,,,,,,,,,,,,,,,,,,,,,,,,,,,,,,,,,,,,,,,,,,,,,,,,,
,,,,,,5dd43527794e1041e44fde8e,62bbf9eb25e35f3f0d737a10,2022-06-29_09h06.33.101,Colour_Asymmetry_Pilot,2022.1.3,Win32,60.0276127,62bbe60bf3d75ef465d3e404,0,39,39,142,1,fourtwo,,,,,,,,,,,,,,,,,,,,,,,,,,,,,,,,,,,,,,,,,,,,,,,,,,,,,,,,,,,,,,,,,,,,,,,,,,,,,,,,,,,,,,,,,,,,,,,,,,,,,,,,,,,,,,,,,,,,,,,,,,,,,,,,,,,,,,,,,,,,,,,,,,,,,,,,
,,,,,,5dd43527794e1041e44fde8e,62bbf9eb25e35f3f0d737a10,2022-06-29_09h06.33.101,Colour_Asymmetry_Pilot,2022.1.3,Win32,60.0276127,62bbe60bf3d75ef465d3e404,0,40,40,35,1,twofour,,,,,,,,,,,,,,,,,,,,,,,,,,,,,,,,,,,,,,,,,,,,,,,,,,,,,,,,,,,,,,,,,,,,,,,,,,,,,,,,,,,,,,,,,,,,,,,,,,,,,,,,,,,,,,,,,,,,,,,,,,,,,,,,,,,,,,,,,,,,,,,,,,,,,,,,
,,,,,,5dd43527794e1041e44fde8e,62bbf9eb25e35f3f0d737a10,2022-06-29_09h06.33.101,Colour_Asymmetry_Pilot,2022.1.3,Win32,60.0276127,62bbe60bf3d75ef465d3e404,0,41,41,144,1,onetwo,,,,,,,,,,,,,,,,,,,,,,,,,,,,,,,,,,,,,,,,,,,,,,,,,,,,,,,,,,,,,,,,,,,,,,,,,,,,,,,,,,,,,,,,,,,,,,,,,,,,,,,,,,,,,,,,,,,,,,,,,,,,,,,,,,,,,,,,,,,,,,,,,,,,,,,,
,,,,,,5dd43527794e1041e44fde8e,62bbf9eb25e35f3f0d737a10,2022-06-29_09h06.33.101,Colour_Asymmetry_Pilot,2022.1.3,Win32,60.0276127,62bbe60bf3d75ef465d3e404,0,42,42,72,1,onetwo,,,,,,,,,,,,,,,,,,,,,,,,,,,,,,,,,,,,,,,,,,,,,,,,,,,,,,,,,,,,,,,,,,,,,,,,,,,,,,,,,,,,,,,,,,,,,,,,,,,,,,,,,,,,,,,,,,,,,,,,,,,,,,,,,,,,,,,,,,,,,,,,,,,,,,,,
,,,,,,5dd43527794e1041e44fde8e,62bbf9eb25e35f3f0d737a10,2022-06-29_09h06.33.101,Colour_Asymmetry_Pilot,2022.1.3,Win32,60.0276127,62bbe60bf3d75ef465d3e404,0,43,43,81,1,onethree,,,,,,,,,,,,,,,,,,,,,,,,,,,,,,,,,,,,,,,,,,,,,,,,,,,,,,,,,,,,,,,,,,,,,,,,,,,,,,,,,,,,,,,,,,,,,,,,,,,,,,,,,,,,,,,,,,,,,,,,,,,,,,,,,,,,,,,,,,,,,,,,,,,,,,,,
,,,,,,5dd43527794e1041e44fde8e,62bbf9eb25e35f3f0d737a10,2022-06-29_09h06.33.101,Colour_Asymmetry_Pilot,2022.1.3,Win32,60.0276127,62bbe60bf3d75ef465d3e404,0,44,44,137,1,onethree,,,,,,,,,,,,,,,,,,,,,,,,,,,,,,,,,,,,,,,,,,,,,,,,,,,,,,,,,,,,,,,,,,,,,,,,,,,,,,,,,,,,,,,,,,,,,,,,,,,,,,,,,,,,,,,,,,,,,,,,,,,,,,,,,,,,,,,,,,,,,,,,,,,,,,,,
,,,,,,5dd43527794e1041e44fde8e,62bbf9eb25e35f3f0d737a10,2022-06-29_09h06.33.101,Colour_Asymmetry_Pilot,2022.1.3,Win32,60.0276127,62bbe60bf3d75ef465d3e404,0,45,45,73,1,onethree,,,,,,,,,,,,,,,,,,,,,,,,,,,,,,,,,,,,,,,,,,,,,,,,,,,,,,,,,,,,,,,,,,,,,,,,,,,,,,,,,,,,,,,,,,,,,,,,,,,,,,,,,,,,,,,,,,,,,,,,,,,,,,,,,,,,,,,,,,,,,,,,,,,,,,,,
,,,,,,5dd43527794e1041e44fde8e,62bbf9eb25e35f3f0d737a10,2022-06-29_09h06.33.101,Colour_Asymmetry_Pilot,2022.1.3,Win32,60.0276127,62bbe60bf3d75ef465d3e404,0,46,46,78,1,fourtwo,,,,,,,,,,,,,,,,,,,,,,,,,,,,,,,,,,,,,,,,,,,,,,,,,,,,,,,,,,,,,,,,,,,,,,,,,,,,,,,,,,,,,,,,,,,,,,,,,,,,,,,,,,,,,,,,,,,,,,,,,,,,,,,,,,,,,,,,,,,,,,,,,,,,,,,,
,,,,,,5dd43527794e1041e44fde8e,62bbf9eb25e35f3f0d737a10,2022-06-29_09h06.33.101,Colour_Asymmetry_Pilot,2022.1.3,Win32,60.0276127,62bbe60bf3d75ef465d3e404,0,47,47,5,1,threefour,,,,,,,,,,,,,,,,,,,,,,,,,,,,,,,,,,,,,,,,,,,,,,,,,,,,,,,,,,,,,,,,,,,,,,,,,,,,,,,,,,,,,,,,,,,,,,,,,,,,,,,,,,,,,,,,,,,,,,,,,,,,,,,,,,,,,,,,,,,,,,,,,,,,,,,,
,,,,,,5dd43527794e1041e44fde8e,62bbf9eb25e35f3f0d737a10,2022-06-29_09h06.33.101,Colour_Asymmetry_Pilot,2022.1.3,Win32,60.0276127,62bbe60bf3d75ef465d3e404,0,48,48,11,1,twofour,,,,,,,,,,,,,,,,,,,,,,,,,,,,,,,,,,,,,,,,,,,,,,,,,,,,,,,,,,,,,,,,,,,,,,,,,,,,,,,,,,,,,,,,,,,,,,,,,,,,,,,,,,,,,,,,,,,,,,,,,,,,,,,,,,,,,,,,,,,,,,,,,,,,,,,,
,,,,,,5dd43527794e1041e44fde8e,62bbf9eb25e35f3f0d737a10,2022-06-29_09h06.33.101,Colour_Asymmetry_Pilot,2022.1.3,Win32,60.0276127,62bbe60bf3d75ef465d3e404,0,49,49,84,1,threeone,,,,,,,,,,,,,,,,,,,,,,,,,,,,,,,,,,,,,,,,,,,,,,,,,,,,,,,,,,,,,,,,,,,,,,,,,,,,,,,,,,,,,,,,,,,,,,,,,,,,,,,,,,,,,,,,,,,,,,,,,,,,,,,,,,,,,,,,,,,,,,,,,,,,,,,,
,,,,,,5dd43527794e1041e44fde8e,62bbf9eb25e35f3f0d737a10,2022-06-29_09h06.33.101,Colour_Asymmetry_Pilot,2022.1.3,Win32,60.0276127,62bbe60bf3d75ef465d3e404,0,50,50,26,1,twoone,,,,,,,,,,,,,,,,,,,,,,,,,,,,,,,,,,,,,,,,,,,,,,,,,,,,,,,,,,,,,,,,,,,,,,,,,,,,,,,,,,,,,,,,,,,,,,,,,,,,,,,,,,,,,,,,,,,,,,,,,,,,,,,,,,,,,,,,,,,,,,,,,,,,,,,,
,,,,,,5dd43527794e1041e44fde8e,62bbf9eb25e35f3f0d737a10,2022-06-29_09h06.33.101,Colour_Asymmetry_Pilot,2022.1.3,Win32,60.0276127,62bbe60bf3d75ef465d3e404,0,51,51,106,1,twoone,,,,,,,,,,,,,,,,,,,,,,,,,,,,,,,,,,,,,,,,,,,,,,,,,,,,,,,,,,,,,,,,,,,,,,,,,,,,,,,,,,,,,,,,,,,,,,,,,,,,,,,,,,,,,,,,,,,,,,,,,,,,,,,,,,,,,,,,,,,,,,,,,,,,,,,,
,,,,,,5dd43527794e1041e44fde8e,62bbf9eb25e35f3f0d737a10,2022-06-29_09h06.33.101,Colour_Asymmetry_Pilot,2022.1.3,Win32,60.0276127,62bbe60bf3d75ef465d3e404,0,52,52,120,1,onetwo,,,,,,,,,,,,,,,,,,,,,,,,,,,,,,,,,,,,,,,,,,,,,,,,,,,,,,,,,,,,,,,,,,,,,,,,,,,,,,,,,,,,,,,,,,,,,,,,,,,,,,,,,,,,,,,,,,,,,,,,,,,,,,,,,,,,,,,,,,,,,,,,,,,,,,,,
,,,,,,5dd43527794e1041e44fde8e,62bbf9eb25e35f3f0d737a10,2022-06-29_09h06.33.101,Colour_Asymmetry_Pilot,2022.1.3,Win32,60.0276127,62bbe60bf3d75ef465d3e404,0,53,53,42,1,twoone,,,,,,,,,,,,,,,,,,,,,,,,,,,,,,,,,,,,,,,,,,,,,,,,,,,,,,,,,,,,,,,,,,,,,,,,,,,,,,,,,,,,,,,,,,,,,,,,,,,,,,,,,,,,,,,,,,,,,,,,,,,,,,,,,,,,,,,,,,,,,,,,,,,,,,,,
,,,,,,5dd43527794e1041e44fde8e,62bbf9eb25e35f3f0d737a10,2022-06-29_09h06.33.101,Colour_Asymmetry_Pilot,2022.1.3,Win32,60.0276127,62bbe60bf3d75ef465d3e404,0,54,54,39,1,fourthree,,,,,,,,,,,,,,,,,,,,,,,,,,,,,,,,,,,,,,,,,,,,,,,,,,,,,,,,,,,,,,,,,,,,,,,,,,,,,,,,,,,,,,,,,,,,,,,,,,,,,,,,,,,,,,,,,,,,,,,,,,,,,,,,,,,,,,,,,,,,,,,,,,,,,,,,
,,,,,,5dd43527794e1041e44fde8e,62bbf9eb25e35f3f0d737a10,2022-06-29_09h06.33.101,Colour_Asymmetry_Pilot,2022.1.3,Win32,60.0276127,62bbe60bf3d75ef465d3e404,0,55,55,7,1,fourthree,,,,,,,,,,,,,,,,,,,,,,,,,,,,,,,,,,,,,,,,,,,,,,,,,,,,,,,,,,,,,,,,,,,,,,,,,,,,,,,,,,,,,,,,,,,,,,,,,,,,,,,,,,,,,,,,,,,,,,,,,,,,,,,,,,,,,,,,,,,,,,,,,,,,,,,,
,,,,,,5dd43527794e1041e44fde8e,62bbf9eb25e35f3f0d737a10,2022-06-29_09h06.33.101,Colour_Asymmetry_Pilot,2022.1.3,Win32,60.0276127,62bbe60bf3d75ef465d3e404,0,56,56,40,1,onetwo,,,,,,,,,,,,,,,,,,,,,,,,,,,,,,,,,,,,,,,,,,,,,,,,,,,,,,,,,,,,,,,,,,,,,,,,,,,,,,,,,,,,,,,,,,,,,,,,,,,,,,,,,,,,,,,,,,,,,,,,,,,,,,,,,,,,,,,,,,,,,,,,,,,,,,,,
,,,,,,5dd43527794e1041e44fde8e,62bbf9eb25e35f3f0d737a10,2022-06-29_09h06.33.101,Colour_Asymmetry_Pilot,2022.1.3,Win32,60.0276127,62bbe60bf3d75ef465d3e404,0,57,57,135,1,fourthree,,,,,,,,,,,,,,,,,,,,,,,,,,,,,,,,,,,,,,,,,,,,,,,,,,,,,,,,,,,,,,,,,,,,,,,,,,,,,,,,,,,,,,,,,,,,,,,,,,,,,,,,,,,,,,,,,,,,,,,,,,,,,,,,,,,,,,,,,,,,,,,,,,,,,,,,
,,,,,,5dd43527794e1041e44fde8e,62bbf9eb25e35f3f0d737a10,2022-06-29_09h06.33.101,Colour_Asymmetry_Pilot,2022.1.3,Win32,60.0276127,62bbe60bf3d75ef465d3e404,0,58,58,160,1,onetwo,,,,,,,,,,,,,,,,,,,,,,,,,,,,,,,,,,,,,,,,,,,,,,,,,,,,,,,,,,,,,,,,,,,,,,,,,,,,,,,,,,,,,,,,,,,,,,,,,,,,,,,,,,,,,,,,,,,,,,,,,,,,,,,,,,,,,,,,,,,,,,,,,,,,,,,,
,,,,,,5dd43527794e1041e44fde8e,62bbf9eb25e35f3f0d737a10,2022-06-29_09h06.33.101,Colour_Asymmetry_Pilot,2022.1.3,Win32,60.0276127,62bbe60bf3d75ef465d3e404,0,59,59,143,1,fourthree,,,,,,,,,,,,,,,,,,,,,,,,,,,,,,,,,,,,,,,,,,,,,,,,,,,,,,,,,,,,,,,,,,,,,,,,,,,,,,,,,,,,,,,,,,,,,,,,,,,,,,,,,,,,,,,,,,,,,,,,,,,,,,,,,,,,,,,,,,,,,,,,,,,,,,,,
,,,,,,5dd43527794e1041e44fde8e,62bbf9eb25e35f3f0d737a10,2022-06-29_09h06.33.101,Colour_Asymmetry_Pilot,2022.1.3,Win32,60.0276127,62bbe60bf3d75ef465d3e404,0,60,60,82,1,twoone,,,,,,,,,,,,,,,,,,,,,,,,,,,,,,,,,,,,,,,,,,,,,,,,,,,,,,,,,,,,,,,,,,,,,,,,,,,,,,,,,,,,,,,,,,,,,,,,,,,,,,,,,,,,,,,,,,,,,,,,,,,,,,,,,,,,,,,,,,,,,,,,,,,,,,,,
,,,,,,5dd43527794e1041e44fde8e,62bbf9eb25e35f3f0d737a10,2022-06-29_09h06.33.101,Colour_Asymmetry_Pilot,2022.1.3,Win32,60.0276127,62bbe60bf3d75ef465d3e404,0,61,61,22,1,fourtwo,,,,,,,,,,,,,,,,,,,,,,,,,,,,,,,,,,,,,,,,,,,,,,,,,,,,,,,,,,,,,,,,,,,,,,,,,,,,,,,,,,,,,,,,,,,,,,,,,,,,,,,,,,,,,,,,,,,,,,,,,,,,,,,,,,,,,,,,,,,,,,,,,,,,,,,,
,,,,,,5dd43527794e1041e44fde8e,62bbf9eb25e35f3f0d737a10,2022-06-29_09h06.33.101,Colour_Asymmetry_Pilot,2022.1.3,Win32,60.0276127,62bbe60bf3d75ef465d3e404,0,62,62,141,1,threefour,,,,,,,,,,,,,,,,,,,,,,,,,,,,,,,,,,,,,,,,,,,,,,,,,,,,,,,,,,,,,,,,,,,,,,,,,,,,,,,,,,,,,,,,,,,,,,,,,,,,,,,,,,,,,,,,,,,,,,,,,,,,,,,,,,,,,,,,,,,,,,,,,,,,,,,,
,,,,,,5dd43527794e1041e44fde8e,62bbf9eb25e35f3f0d737a10,2022-06-29_09h06.33.101,Colour_Asymmetry_Pilot,2022.1.3,Win32,60.0276127,62bbe60bf3d75ef465d3e404,0,63,63,146,1,twoone,,,,,,,,,,,,,,,,,,,,,,,,,,,,,,,,,,,,,,,,,,,,,,,,,,,,,,,,,,,,,,,,,,,,,,,,,,,,,,,,,,,,,,,,,,,,,,,,,,,,,,,,,,,,,,,,,,,,,,,,,,,,,,,,,,,,,,,,,,,,,,,,,,,,,,,,
,,,,,,5dd43527794e1041e44fde8e,62bbf9eb25e35f3f0d737a10,2022-06-29_09h06.33.101,Colour_Asymmetry_Pilot,2022.1.3,Win32,60.0276127,62bbe60bf3d75ef465d3e404,0,64,64,29,1,threefour,,,,,,,,,,,,,,,,,,,,,,,,,,,,,,,,,,,,,,,,,,,,,,,,,,,,,,,,,,,,,,,,,,,,,,,,,,,,,,,,,,,,,,,,,,,,,,,,,,,,,,,,,,,,,,,,,,,,,,,,,,,,,,,,,,,,,,,,,,,,,,,,,,,,,,,,
,,,,,,5dd43527794e1041e44fde8e,62bbf9eb25e35f3f0d737a10,2022-06-29_09h06.33.101,Colour_Asymmetry_Pilot,2022.1.3,Win32,60.0276127,62bbe60bf3d75ef465d3e404,0,65,65,111,1,fourthree,,,,,,,,,,,,,,,,,,,,,,,,,,,,,,,,,,,,,,,,,,,,,,,,,,,,,,,,,,,,,,,,,,,,,,,,,,,,,,,,,,,,,,,,,,,,,,,,,,,,,,,,,,,,,,,,,,,,,,,,,,,,,,,,,,,,,,,,,,,,,,,,,,,,,,,,
,,,,,,5dd43527794e1041e44fde8e,62bbf9eb25e35f3f0d737a10,2022-06-29_09h06.33.101,Colour_Asymmetry_Pilot,2022.1.3,Win32,60.0276127,62bbe60bf3d75ef465d3e404,0,66,66,149,1,threefour,,,,,,,,,,,,,,,,,,,,,,,,,,,,,,,,,,,,,,,,,,,,,,,,,,,,,,,,,,,,,,,,,,,,,,,,,,,,,,,,,,,,,,,,,,,,,,,,,,,,,,,,,,,,,,,,,,,,,,,,,,,,,,,,,,,,,,,,,,,,,,,,,,,,,,,,
,,,,,,5dd43527794e1041e44fde8e,62bbf9eb25e35f3f0d737a10,2022-06-29_09h06.33.101,Colour_Asymmetry_Pilot,2022.1.3,Win32,60.0276127,62bbe60bf3d75ef465d3e404,0,67,67,121,1,onethree,,,,,,,,,,,,,,,,,,,,,,,,,,,,,,,,,,,,,,,,,,,,,,,,,,,,,,,,,,,,,,,,,,,,,,,,,,,,,,,,,,,,,,,,,,,,,,,,,,,,,,,,,,,,,,,,,,,,,,,,,,,,,,,,,,,,,,,,,,,,,,,,,,,,,,,,
,,,,,,5dd43527794e1041e44fde8e,62bbf9eb25e35f3f0d737a10,2022-06-29_09h06.33.101,Colour_Asymmetry_Pilot,2022.1.3,Win32,60.0276127,62bbe60bf3d75ef465d3e404,0,68,68,153,1,onethree,,,,,,,,,,,,,,,,,,,,,,,,,,,,,,,,,,,,,,,,,,,,,,,,,,,,,,,,,,,,,,,,,,,,,,,,,,,,,,,,,,,,,,,,,,,,,,,,,,,,,,,,,,,,,,,,,,,,,,,,,,,,,,,,,,,,,,,,,,,,,,,,,,,,,,,,
,,,,,,5dd43527794e1041e44fde8e,62bbf9eb25e35f3f0d737a10,2022-06-29_09h06.33.101,Colour_Asymmetry_Pilot,2022.1.3,Win32,60.0276127,62bbe60bf3d75ef465d3e404,0,69,69,91,1,twofour,,,,,,,,,,,,,,,,,,,,,,,,,,,,,,,,,,,,,,,,,,,,,,,,,,,,,,,,,,,,,,,,,,,,,,,,,,,,,,,,,,,,,,,,,,,,,,,,,,,,,,,,,,,,,,,,,,,,,,,,,,,,,,,,,,,,,,,,,,,,,,,,,,,,,,,,
,,,,,,5dd43527794e1041e44fde8e,62bbf9eb25e35f3f0d737a10,2022-06-29_09h06.33.101,Colour_Asymmetry_Pilot,2022.1.3,Win32,60.0276127,62bbe60bf3d75ef465d3e404,0,70,70,16,1,onetwo,,,,,,,,,,,,,,,,,,,,,,,,,,,,,,,,,,,,,,,,,,,,,,,,,,,,,,,,,,,,,,,,,,,,,,,,,,,,,,,,,,,,,,,,,,,,,,,,,,,,,,,,,,,,,,,,,,,,,,,,,,,,,,,,,,,,,,,,,,,,,,,,,,,,,,,,
,,,,,,5dd43527794e1041e44fde8e,62bbf9eb25e35f3f0d737a10,2022-06-29_09h06.33.101,Colour_Asymmetry_Pilot,2022.1.3,Win32,60.0276127,62bbe60bf3d75ef465d3e404,0,71,71,33,1,onethree,,,,,,,,,,,,,,,,,,,,,,,,,,,,,,,,,,,,,,,,,,,,,,,,,,,,,,,,,,,,,,,,,,,,,,,,,,,,,,,,,,,,,,,,,,,,,,,,,,,,,,,,,,,,,,,,,,,,,,,,,,,,,,,,,,,,,,,,,,,,,,,,,,,,,,,,
,,,,,,5dd43527794e1041e44fde8e,62bbf9eb25e35f3f0d737a10,2022-06-29_09h06.33.101,Colour_Asymmetry_Pilot,2022.1.3,Win32,60.0276127,62bbe60bf3d75ef465d3e404,0,72,72,6,1,fourtwo,,,,,,,,,,,,,,,,,,,,,,,,,,,,,,,,,,,,,,,,,,,,,,,,,,,,,,,,,,,,,,,,,,,,,,,,,,,,,,,,,,,,,,,,,,,,,,,,,,,,,,,,,,,,,,,,,,,,,,,,,,,,,,,,,,,,,,,,,,,,,,,,,,,,,,,,
,,,,,,5dd43527794e1041e44fde8e,62bbf9eb25e35f3f0d737a10,2022-06-29_09h06.33.101,Colour_Asymmetry_Pilot,2022.1.3,Win32,60.0276127,62bbe60bf3d75ef465d3e404,0,73,73,123,1,twofour,,,,,,,,,,,,,,,,,,,,,,,,,,,,,,,,,,,,,,,,,,,,,,,,,,,,,,,,,,,,,,,,,,,,,,,,,,,,,,,,,,,,,,,,,,,,,,,,,,,,,,,,,,,,,,,,,,,,,,,,,,,,,,,,,,,,,,,,,,,,,,,,,,,,,,,,
,,,,,,5dd43527794e1041e44fde8e,62bbf9eb25e35f3f0d737a10,2022-06-29_09h06.33.101,Colour_Asymmetry_Pilot,2022.1.3,Win32,60.0276127,62bbe60bf3d75ef465d3e404,0,74,74,74,1,twoone,,,,,,,,,,,,,,,,,,,,,,,,,,,,,,,,,,,,,,,,,,,,,,,,,,,,,,,,,,,,,,,,,,,,,,,,,,,,,,,,,,,,,,,,,,,,,,,,,,,,,,,,,,,,,,,,,,,,,,,,,,,,,,,,,,,,,,,,,,,,,,,,,,,,,,,,
,,,,,,5dd43527794e1041e44fde8e,62bbf9eb25e35f3f0d737a10,2022-06-29_09h06.33.101,Colour_Asymmetry_Pilot,2022.1.3,Win32,60.0276127,62bbe60bf3d75ef465d3e404,0,75,75,54,1,fourtwo,,,,,,,,,,,,,,,,,,,,,,,,,,,,,,,,,,,,,,,,,,,,,,,,,,,,,,,,,,,,,,,,,,,,,,,,,,,,,,,,,,,,,,,,,,,,,,,,,,,,,,,,,,,,,,,,,,,,,,,,,,,,,,,,,,,,,,,,,,,,,,,,,,,,,,,,
,,,,,,5dd43527794e1041e44fde8e,62bbf9eb25e35f3f0d737a10,2022-06-29_09h06.33.101,Colour_Asymmetry_Pilot,2022.1.3,Win32,60.0276127,62bbe60bf3d75ef465d3e404,0,76,76,59,1,twofour,,,,,,,,,,,,,,,,,,,,,,,,,,,,,,,,,,,,,,,,,,,,,,,,,,,,,,,,,,,,,,,,,,,,,,,,,,,,,,,,,,,,,,,,,,,,,,,,,,,,,,,,,,,,,,,,,,,,,,,,,,,,,,,,,,,,,,,,,,,,,,,,,,,,,,,,
,,,,,,5dd43527794e1041e44fde8e,62bbf9eb25e35f3f0d737a10,2022-06-29_09h06.33.101,Colour_Asymmetry_Pilot,2022.1.3,Win32,60.0276127,62bbe60bf3d75ef465d3e404,0,77,77,148,1,threeone,,,,,,,,,,,,,,,,,,,,,,,,,,,,,,,,,,,,,,,,,,,,,,,,,,,,,,,,,,,,,,,,,,,,,,,,,,,,,,,,,,,,,,,,,,,,,,,,,,,,,,,,,,,,,,,,,,,,,,,,,,,,,,,,,,,,,,,,,,,,,,,,,,,,,,,,
,,,,,,5dd43527794e1041e44fde8e,62bbf9eb25e35f3f0d737a10,2022-06-29_09h06.33.101,Colour_Asymmetry_Pilot,2022.1.3,Win32,60.0276127,62bbe60bf3d75ef465d3e404,0,78,78,110,1,fourtwo,,,,,,,,,,,,,,,,,,,,,,,,,,,,,,,,,,,,,,,,,,,,,,,,,,,,,,,,,,,,,,,,,,,,,,,,,,,,,,,,,,,,,,,,,,,,,,,,,,,,,,,,,,,,,,,,,,,,,,,,,,,,,,,,,,,,,,,,,,,,,,,,,,,,,,,,
,,,,,,5dd43527794e1041e44fde8e,62bbf9eb25e35f3f0d737a10,2022-06-29_09h06.33.101,Colour_Asymmetry_Pilot,2022.1.3,Win32,60.0276127,62bbe60bf3d75ef465d3e404,0,79,79,53,1,threefour,,,,,,,,,,,,,,,,,,,,,,,,,,,,,,,,,,,,,,,,,,,,,,,,,,,,,,,,,,,,,,,,,,,,,,,,,,,,,,,,,,,,,,,,,,,,,,,,,,,,,,,,,,,,,,,,,,,,,,,,,,,,,,,,,,,,,,,,,,,,,,,,,,,,,,,,
,,,,,,5dd43527794e1041e44fde8e,62bbf9eb25e35f3f0d737a10,2022-06-29_09h06.33.101,Colour_Asymmetry_Pilot,2022.1.3,Win32,60.0276127,62bbe60bf3d75ef465d3e404,0,80,80,134,1,fourtwo,,,,,,,,,,,,,,,,,,,,,,,,,,,,,,,,,,,,,,,,,,,,,,,,,,,,,,,,,,,,,,,,,,,,,,,,,,,,,,,,,,,,,,,,,,,,,,,,,,,,,,,,,,,,,,,,,,,,,,,,,,,,,,,,,,,,,,,,,,,,,,,,,,,,,,,,
,,,,,,5dd43527794e1041e44fde8e,62bbf9eb25e35f3f0d737a10,2022-06-29_09h06.33.101,Colour_Asymmetry_Pilot,2022.1.3,Win32,60.0276127,62bbe60bf3d75ef465d3e404,0,81,81,65,1,onethree,,,,,,,,,,,,,,,,,,,,,,,,,,,,,,,,,,,,,,,,,,,,,,,,,,,,,,,,,,,,,,,,,,,,,,,,,,,,,,,,,,,,,,,,,,,,,,,,,,,,,,,,,,,,,,,,,,,,,,,,,,,,,,,,,,,,,,,,,,,,,,,,,,,,,,,,
,,,,,,5dd43527794e1041e44fde8e,62bbf9eb25e35f3f0d737a10,2022-06-29_09h06.33.101,Colour_Asymmetry_Pilot,2022.1.3,Win32,60.0276127,62bbe60bf3d75ef465d3e404,0,82,82,36,1,threeone,,,,,,,,,,,,,,,,,,,,,,,,,,,,,,,,,,,,,,,,,,,,,,,,,,,,,,,,,,,,,,,,,,,,,,,,,,,,,,,,,,,,,,,,,,,,,,,,,,,,,,,,,,,,,,,,,,,,,,,,,,,,,,,,,,,,,,,,,,,,,,,,,,,,,,,,
,,,,,,5dd43527794e1041e44fde8e,62bbf9eb25e35f3f0d737a10,2022-06-29_09h06.33.101,Colour_Asymmetry_Pilot,2022.1.3,Win32,60.0276127,62bbe60bf3d75ef465d3e404,0,83,83,155,1,twofour,,,,,,,,,,,,,,,,,,,,,,,,,,,,,,,,,,,,,,,,,,,,,,,,,,,,,,,,,,,,,,,,,,,,,,,,,,,,,,,,,,,,,,,,,,,,,,,,,,,,,,,,,,,,,,,,,,,,,,,,,,,,,,,,,,,,,,,,,,,,,,,,,,,,,,,,
,,,,,,5dd43527794e1041e44fde8e,62bbf9eb25e35f3f0d737a10,2022-06-29_09h06.33.101,Colour_Asymmetry_Pilot,2022.1.3,Win32,60.0276127,62bbe60bf3d75ef465d3e404,0,84,84,114,1,twoone,,,,,,,,,,,,,,,,,,,,,,,,,,,,,,,,,,,,,,,,,,,,,,,,,,,,,,,,,,,,,,,,,,,,,,,,,,,,,,,,,,,,,,,,,,,,,,,,,,,,,,,,,,,,,,,,,,,,,,,,,,,,,,,,,,,,,,,,,,,,,,,,,,,,,,,,
,,,,,,5dd43527794e1041e44fde8e,62bbf9eb25e35f3f0d737a10,2022-06-29_09h06.33.101,Colour_Asymmetry_Pilot,2022.1.3,Win32,60.0276127,62bbe60bf3d75ef465d3e404,0,85,85,17,1,onethree,,,,,,,,,,,,,,,,,,,,,,,,,,,,,,,,,,,,,,,,,,,,,,,,,,,,,,,,,,,,,,,,,,,,,,,,,,,,,,,,,,,,,,,,,,,,,,,,,,,,,,,,,,,,,,,,,,,,,,,,,,,,,,,,,,,,,,,,,,,,,,,,,,,,,,,,
,,,,,,5dd43527794e1041e44fde8e,62bbf9eb25e35f3f0d737a10,2022-06-29_09h06.33.101,Colour_Asymmetry_Pilot,2022.1.3,Win32,60.0276127,62bbe60bf3d75ef465d3e404,0,86,86,100,1,threeone,,,,,,,,,,,,,,,,,,,,,,,,,,,,,,,,,,,,,,,,,,,,,,,,,,,,,,,,,,,,,,,,,,,,,,,,,,,,,,,,,,,,,,,,,,,,,,,,,,,,,,,,,,,,,,,,,,,,,,,,,,,,,,,,,,,,,,,,,,,,,,,,,,,,,,,,
,,,,,,5dd43527794e1041e44fde8e,62bbf9eb25e35f3f0d737a10,2022-06-29_09h06.33.101,Colour_Asymmetry_Pilot,2022.1.3,Win32,60.0276127,62bbe60bf3d75ef465d3e404,0,87,87,88,1,onetwo,,,,,,,,,,,,,,,,,,,,,,,,,,,,,,,,,,,,,,,,,,,,,,,,,,,,,,,,,,,,,,,,,,,,,,,,,,,,,,,,,,,,,,,,,,,,,,,,,,,,,,,,,,,,,,,,,,,,,,,,,,,,,,,,,,,,,,,,,,,,,,,,,,,,,,,,
,,,,,,5dd43527794e1041e44fde8e,62bbf9eb25e35f3f0d737a10,2022-06-29_09h06.33.101,Colour_Asymmetry_Pilot,2022.1.3,Win32,60.0276127,62bbe60bf3d75ef465d3e404,0,88,88,62,1,fourtwo,,,,,,,,,,,,,,,,,,,,,,,,,,,,,,,,,,,,,,,,,,,,,,,,,,,,,,,,,,,,,,,,,,,,,,,,,,,,,,,,,,,,,,,,,,,,,,,,,,,,,,,,,,,,,,,,,,,,,,,,,,,,,,,,,,,,,,,,,,,,,,,,,,,,,,,,
,,,,,,5dd43527794e1041e44fde8e,62bbf9eb25e35f3f0d737a10,2022-06-29_09h06.33.101,Colour_Asymmetry_Pilot,2022.1.3,Win32,60.0276127,62bbe60bf3d75ef465d3e404,0,89,89,85,1,threefour,,,,,,,,,,,,,,,,,,,,,,,,,,,,,,,,,,,,,,,,,,,,,,,,,,,,,,,,,,,,,,,,,,,,,,,,,,,,,,,,,,,,,,,,,,,,,,,,,,,,,,,,,,,,,,,,,,,,,,,,,,,,,,,,,,,,,,,,,,,,,,,,,,,,,,,,
,,,,,,5dd43527794e1041e44fde8e,62bbf9eb25e35f3f0d737a10,2022-06-29_09h06.33.101,Colour_Asymmetry_Pilot,2022.1.3,Win32,60.0276127,62bbe60bf3d75ef465d3e404,0,90,90,97,1,onethree,,,,,,,,,,,,,,,,,,,,,,,,,,,,,,,,,,,,,,,,,,,,,,,,,,,,,,,,,,,,,,,,,,,,,,,,,,,,,,,,,,,,,,,,,,,,,,,,,,,,,,,,,,,,,,,,,,,,,,,,,,,,,,,,,,,,,,,,,,,,,,,,,,,,,,,,
,,,,,,5dd43527794e1041e44fde8e,62bbf9eb25e35f3f0d737a10,2022-06-29_09h06.33.101,Colour_Asymmetry_Pilot,2022.1.3,Win32,60.0276127,62bbe60bf3d75ef465d3e404,0,91,91,28,1,threeone,,,,,,,,,,,,,,,,,,,,,,,,,,,,,,,,,,,,,,,,,,,,,,,,,,,,,,,,,,,,,,,,,,,,,,,,,,,,,,,,,,,,,,,,,,,,,,,,,,,,,,,,,,,,,,,,,,,,,,,,,,,,,,,,,,,,,,,,,,,,,,,,,,,,,,,,
,,,,,,5dd43527794e1041e44fde8e,62bbf9eb25e35f3f0d737a10,2022-06-29_09h06.33.101,Colour_Asymmetry_Pilot,2022.1.3,Win32,60.0276127,62bbe60bf3d75ef465d3e404,0,92,92,102,1,fourtwo,,,,,,,,,,,,,,,,,,,,,,,,,,,,,,,,,,,,,,,,,,,,,,,,,,,,,,,,,,,,,,,,,,,,,,,,,,,,,,,,,,,,,,,,,,,,,,,,,,,,,,,,,,,,,,,,,,,,,,,,,,,,,,,,,,,,,,,,,,,,,,,,,,,,,,,,
,,,,,,5dd43527794e1041e44fde8e,62bbf9eb25e35f3f0d737a10,2022-06-29_09h06.33.101,Colour_Asymmetry_Pilot,2022.1.3,Win32,60.0276127,62bbe60bf3d75ef465d3e404,0,93,93,3,1,twofour,,,,,,,,,,,,,,,,,,,,,,,,,,,,,,,,,,,,,,,,,,,,,,,,,,,,,,,,,,,,,,,,,,,,,,,,,,,,,,,,,,,,,,,,,,,,,,,,,,,,,,,,,,,,,,,,,,,,,,,,,,,,,,,,,,,,,,,,,,,,,,,,,,,,,,,,
,,,,,,5dd43527794e1041e44fde8e,62bbf9eb25e35f3f0d737a10,2022-06-29_09h06.33.101,Colour_Asymmetry_Pilot,2022.1.3,Win32,60.0276127,62bbe60bf3d75ef465d3e404,0,94,94,119,1,fourthree,,,,,,,,,,,,,,,,,,,,,,,,,,,,,,,,,,,,,,,,,,,,,,,,,,,,,,,,,,,,,,,,,,,,,,,,,,,,,,,,,,,,,,,,,,,,,,,,,,,,,,,,,,,,,,,,,,,,,,,,,,,,,,,,,,,,,,,,,,,,,,,,,,,,,,,,
,,,,,,5dd43527794e1041e44fde8e,62bbf9eb25e35f3f0d737a10,2022-06-29_09h06.33.101,Colour_Asymmetry_Pilot,2022.1.3,Win32,60.0276127,62bbe60bf3d75ef465d3e404,0,95,95,94,1,fourtwo,,,,,,,,,,,,,,,,,,,,,,,,,,,,,,,,,,,,,,,,,,,,,,,,,,,,,,,,,,,,,,,,,,,,,,,,,,,,,,,,,,,,,,,,,,,,,,,,,,,,,,,,,,,,,,,,,,,,,,,,,,,,,,,,,,,,,,,,,,,,,,,,,,,,,,,,
,,,,,,5dd43527794e1041e44fde8e,62bbf9eb25e35f3f0d737a10,2022-06-29_09h06.33.101,Colour_Asymmetry_Pilot,2022.1.3,Win32,60.0276127,62bbe60bf3d75ef465d3e404,0,96,96,118,1,fourtwo,,,,,,,,,,,,,,,,,,,,,,,,,,,,,,,,,,,,,,,,,,,,,,,,,,,,,,,,,,,,,,,,,,,,,,,,,,,,,,,,,,,,,,,,,,,,,,,,,,,,,,,,,,,,,,,,,,,,,,,,,,,,,,,,,,,,,,,,,,,,,,,,,,,,,,,,
,,,,,,5dd43527794e1041e44fde8e,62bbf9eb25e35f3f0d737a10,2022-06-29_09h06.33.101,Colour_Asymmetry_Pilot,2022.1.3,Win32,60.0276127,62bbe60bf3d75ef465d3e404,0,97,97,49,1,onethree,,,,,,,,,,,,,,,,,,,,,,,,,,,,,,,,,,,,,,,,,,,,,,,,,,,,,,,,,,,,,,,,,,,,,,,,,,,,,,,,,,,,,,,,,,,,,,,,,,,,,,,,,,,,,,,,,,,,,,,,,,,,,,,,,,,,,,,,,,,,,,,,,,,,,,,,
,,,,,,5dd43527794e1041e44fde8e,62bbf9eb25e35f3f0d737a10,2022-06-29_09h06.33.101,Colour_Asymmetry_Pilot,2022.1.3,Win32,60.0276127,62bbe60bf3d75ef465d3e404,0,98,98,147,1,twofour,,,,,,,,,,,,,,,,,,,,,,,,,,,,,,,,,,,,,,,,,,,,,,,,,,,,,,,,,,,,,,,,,,,,,,,,,,,,,,,,,,,,,,,,,,,,,,,,,,,,,,,,,,,,,,,,,,,,,,,,,,,,,,,,,,,,,,,,,,,,,,,,,,,,,,,,
,,,,,,5dd43527794e1041e44fde8e,62bbf9eb25e35f3f0d737a10,2022-06-29_09h06.33.101,Colour_Asymmetry_Pilot,2022.1.3,Win32,60.0276127,62bbe60bf3d75ef465d3e404,0,99,99,126,1,fourtwo,,,,,,,,,,,,,,,,,,,,,,,,,,,,,,,,,,,,,,,,,,,,,,,,,,,,,,,,,,,,,,,,,,,,,,,,,,,,,,,,,,,,,,,,,,,,,,,,,,,,,,,,,,,,,,,,,,,,,,,,,,,,,,,,,,,,,,,,,,,,,,,,,,,,,,,,
,,,,,,5dd43527794e1041e44fde8e,62bbf9eb25e35f3f0d737a10,2022-06-29_09h06.33.101,Colour_Asymmetry_Pilot,2022.1.3,Win32,60.0276127,62bbe60bf3d75ef465d3e404,0,100,100,45,1,threefour,,,,,,,,,,,,,,,,,,,,,,,,,,,,,,,,,,,,,,,,,,,,,,,,,,,,,,,,,,,,,,,,,,,,,,,,,,,,,,,,,,,,,,,,,,,,,,,,,,,,,,,,,,,,,,,,,,,,,,,,,,,,,,,,,,,,,,,,,,,,,,,,,,,,,,,,
,,,,,,5dd43527794e1041e44fde8e,62bbf9eb25e35f3f0d737a10,2022-06-29_09h06.33.101,Colour_Asymmetry_Pilot,2022.1.3,Win32,60.0276127,62bbe60bf3d75ef465d3e404,0,101,101,30,1,fourtwo,,,,,,,,,,,,,,,,,,,,,,,,,,,,,,,,,,,,,,,,,,,,,,,,,,,,,,,,,,,,,,,,,,,,,,,,,,,,,,,,,,,,,,,,,,,,,,,,,,,,,,,,,,,,,,,,,,,,,,,,,,,,,,,,,,,,,,,,,,,,,,,,,,,,,,,,
,,,,,,5dd43527794e1041e44fde8e,62bbf9eb25e35f3f0d737a10,2022-06-29_09h06.33.101,Colour_Asymmetry_Pilot,2022.1.3,Win32,60.0276127,62bbe60bf3d75ef465d3e404,0,102,102,79,1,fourthree,,,,,,,,,,,,,,,,,,,,,,,,,,,,,,,,,,,,,,,,,,,,,,,,,,,,,,,,,,,,,,,,,,,,,,,,,,,,,,,,,,,,,,,,,,,,,,,,,,,,,,,,,,,,,,,,,,,,,,,,,,,,,,,,,,,,,,,,,,,,,,,,,,,,,,,,
,,,,,,5dd43527794e1041e44fde8e,62bbf9eb25e35f3f0d737a10,2022-06-29_09h06.33.101,Colour_Asymmetry_Pilot,2022.1.3,Win32,60.0276127,62bbe60bf3d75ef465d3e404,0,103,103,133,1,threefour,,,,,,,,,,,,,,,,,,,,,,,,,,,,,,,,,,,,,,,,,,,,,,,,,,,,,,,,,,,,,,,,,,,,,,,,,,,,,,,,,,,,,,,,,,,,,,,,,,,,,,,,,,,,,,,,,,,,,,,,,,,,,,,,,,,,,,,,,,,,,,,,,,,,,,,,
,,,,,,5dd43527794e1041e44fde8e,62bbf9eb25e35f3f0d737a10,2022-06-29_09h06.33.101,Colour_Asymmetry_Pilot,2022.1.3,Win32,60.0276127,62bbe60bf3d75ef465d3e404,0,104,104,105,1,onethree,,,,,,,,,,,,,,,,,,,,,,,,,,,,,,,,,,,,,,,,,,,,,,,,,,,,,,,,,,,,,,,,,,,,,,,,,,,,,,,,,,,,,,,,,,,,,,,,,,,,,,,,,,,,,,,,,,,,,,,,,,,,,,,,,,,,,,,,,,,,,,,,,,,,,,,,
,,,,,,5dd43527794e1041e44fde8e,62bbf9eb25e35f3f0d737a10,2022-06-29_09h06.33.101,Colour_Asymmetry_Pilot,2022.1.3,Win32,60.0276127,62bbe60bf3d75ef465d3e404,0,105,105,101,1,threefour,,,,,,,,,,,,,,,,,,,,,,,,,,,,,,,,,,,,,,,,,,,,,,,,,,,,,,,,,,,,,,,,,,,,,,,,,,,,,,,,,,,,,,,,,,,,,,,,,,,,,,,,,,,,,,,,,,,,,,,,,,,,,,,,,,,,,,,,,,,,,,,,,,,,,,,,
,,,,,,5dd43527794e1041e44fde8e,62bbf9eb25e35f3f0d737a10,2022-06-29_09h06.33.101,Colour_Asymmetry_Pilot,2022.1.3,Win32,60.0276127,62bbe60bf3d75ef465d3e404,0,106,106,89,1,onethree,,,,,,,,,,,,,,,,,,,,,,,,,,,,,,,,,,,,,,,,,,,,,,,,,,,,,,,,,,,,,,,,,,,,,,,,,,,,,,,,,,,,,,,,,,,,,,,,,,,,,,,,,,,,,,,,,,,,,,,,,,,,,,,,,,,,,,,,,,,,,,,,,,,,,,,,
,,,,,,5dd43527794e1041e44fde8e,62bbf9eb25e35f3f0d737a10,2022-06-29_09h06.33.101,Colour_Asymmetry_Pilot,2022.1.3,Win32,60.0276127,62bbe60bf3d75ef465d3e404,0,107,107,92,1,threeone,,,,,,,,,,,,,,,,,,,,,,,,,,,,,,,,,,,,,,,,,,,,,,,,,,,,,,,,,,,,,,,,,,,,,,,,,,,,,,,,,,,,,,,,,,,,,,,,,,,,,,,,,,,,,,,,,,,,,,,,,,,,,,,,,,,,,,,,,,,,,,,,,,,,,,,,
,,,,,,5dd43527794e1041e44fde8e,62bbf9eb25e35f3f0d737a10,2022-06-29_09h06.33.101,Colour_Asymmetry_Pilot,2022.1.3,Win32,60.0276127,62bbe60bf3d75ef465d3e404,0,108,108,107,1,twofour,,,,,,,,,,,,,,,,,,,,,,,,,,,,,,,,,,,,,,,,,,,,,,,,,,,,,,,,,,,,,,,,,,,,,,,,,,,,,,,,,,,,,,,,,,,,,,,,,,,,,,,,,,,,,,,,,,,,,,,,,,,,,,,,,,,,,,,,,,,,,,,,,,,,,,,,
,,,,,,5dd43527794e1041e44fde8e,62bbf9eb25e35f3f0d737a10,2022-06-29_09h06.33.101,Colour_Asymmetry_Pilot,2022.1.3,Win32,60.0276127,62bbe60bf3d75ef465d3e404,0,109,109,140,1,threeone,,,,,,,,,,,,,,,,,,,,,,,,,,,,,,,,,,,,,,,,,,,,,,,,,,,,,,,,,,,,,,,,,,,,,,,,,,,,,,,,,,,,,,,,,,,,,,,,,,,,,,,,,,,,,,,,,,,,,,,,,,,,,,,,,,,,,,,,,,,,,,,,,,,,,,,,
,,,,,,5dd43527794e1041e44fde8e,62bbf9eb25e35f3f0d737a10,2022-06-29_09h06.33.101,Colour_Asymmetry_Pilot,2022.1.3,Win32,60.0276127,62bbe60bf3d75ef465d3e404,0,110,110,122,1,twoone,,,,,,,,,,,,,,,,,,,,,,,,,,,,,,,,,,,,,,,,,,,,,,,,,,,,,,,,,,,,,,,,,,,,,,,,,,,,,,,,,,,,,,,,,,,,,,,,,,,,,,,,,,,,,,,,,,,,,,,,,,,,,,,,,,,,,,,,,,,,,,,,,,,,,,,,
,,,,,,5dd43527794e1041e44fde8e,62bbf9eb25e35f3f0d737a10,2022-06-29_09h06.33.101,Colour_Asymmetry_Pilot,2022.1.3,Win32,60.0276127,62bbe60bf3d75ef465d3e404,0,111,111,99,1,twofour,,,,,,,,,,,,,,,,,,,,,,,,,,,,,,,,,,,,,,,,,,,,,,,,,,,,,,,,,,,,,,,,,,,,,,,,,,,,,,,,,,,,,,,,,,,,,,,,,,,,,,,,,,,,,,,,,,,,,,,,,,,,,,,,,,,,,,,,,,,,,,,,,,,,,,,,
,,,,,,5dd43527794e1041e44fde8e,62bbf9eb25e35f3f0d737a10,2022-06-29_09h06.33.101,Colour_Asymmetry_Pilot,2022.1.3,Win32,60.0276127,62bbe60bf3d75ef465d3e404,0,112,112,157,1,threefour,,,,,,,,,,,,,,,,,,,,,,,,,,,,,,,,,,,,,,,,,,,,,,,,,,,,,,,,,,,,,,,,,,,,,,,,,,,,,,,,,,,,,,,,,,,,,,,,,,,,,,,,,,,,,,,,,,,,,,,,,,,,,,,,,,,,,,,,,,,,,,,,,,,,,,,,
,,,,,,5dd43527794e1041e44fde8e,62bbf9eb25e35f3f0d737a10,2022-06-29_09h06.33.101,Colour_Asymmetry_Pilot,2022.1.3,Win32,60.0276127,62bbe60bf3d75ef465d3e404,0,113,113,32,1,onetwo,,,,,,,,,,,,,,,,,,,,,,,,,,,,,,,,,,,,,,,,,,,,,,,,,,,,,,,,,,,,,,,,,,,,,,,,,,,,,,,,,,,,,,,,,,,,,,,,,,,,,,,,,,,,,,,,,,,,,,,,,,,,,,,,,,,,,,,,,,,,,,,,,,,,,,,,
,,,,,,5dd43527794e1041e44fde8e,62bbf9eb25e35f3f0d737a10,2022-06-29_09h06.33.101,Colour_Asymmetry_Pilot,2022.1.3,Win32,60.0276127,62bbe60bf3d75ef465d3e404,0,114,114,152,1,onetwo,,,,,,,,,,,,,,,,,,,,,,,,,,,,,,,,,,,,,,,,,,,,,,,,,,,,,,,,,,,,,,,,,,,,,,,,,,,,,,,,,,,,,,,,,,,,,,,,,,,,,,,,,,,,,,,,,,,,,,,,,,,,,,,,,,,,,,,,,,,,,,,,,,,,,,,,
,,,,,,5dd43527794e1041e44fde8e,62bbf9eb25e35f3f0d737a10,2022-06-29_09h06.33.101,Colour_Asymmetry_Pilot,2022.1.3,Win32,60.0276127,62bbe60bf3d75ef465d3e404,0,115,115,127,1,fourthree,,,,,,,,,,,,,,,,,,,,,,,,,,,,,,,,,,,,,,,,,,,,,,,,,,,,,,,,,,,,,,,,,,,,,,,,,,,,,,,,,,,,,,,,,,,,,,,,,,,,,,,,,,,,,,,,,,,,,,,,,,,,,,,,,,,,,,,,,,,,,,,,,,,,,,,,
,,,,,,5dd43527794e1041e44fde8e,62bbf9eb25e35f3f0d737a10,2022-06-29_09h06.33.101,Colour_Asymmetry_Pilot,2022.1.3,Win32,60.0276127,62bbe60bf3d75ef465d3e404,0,116,116,115,1,twofour,,,,,,,,,,,,,,,,,,,,,,,,,,,,,,,,,,,,,,,,,,,,,,,,,,,,,,,,,,,,,,,,,,,,,,,,,,,,,,,,,,,,,,,,,,,,,,,,,,,,,,,,,,,,,,,,,,,,,,,,,,,,,,,,,,,,,,,,,,,,,,,,,,,,,,,,
,,,,,,5dd43527794e1041e44fde8e,62bbf9eb25e35f3f0d737a10,2022-06-29_09h06.33.101,Colour_Asymmetry_Pilot,2022.1.3,Win32,60.0276127,62bbe60bf3d75ef465d3e404,0,117,117,57,1,onethree,,,,,,,,,,,,,,,,,,,,,,,,,,,,,,,,,,,,,,,,,,,,,,,,,,,,,,,,,,,,,,,,,,,,,,,,,,,,,,,,,,,,,,,,,,,,,,,,,,,,,,,,,,,,,,,,,,,,,,,,,,,,,,,,,,,,,,,,,,,,,,,,,,,,,,,,
,,,,,,5dd43527794e1041e44fde8e,62bbf9eb25e35f3f0d737a10,2022-06-29_09h06.33.101,Colour_Asymmetry_Pilot,2022.1.3,Win32,60.0276127,62bbe60bf3d75ef465d3e404,0,118,118,52,1,threeone,,,,,,,,,,,,,,,,,,,,,,,,,,,,,,,,,,,,,,,,,,,,,,,,,,,,,,,,,,,,,,,,,,,,,,,,,,,,,,,,,,,,,,,,,,,,,,,,,,,,,,,,,,,,,,,,,,,,,,,,,,,,,,,,,,,,,,,,,,,,,,,,,,,,,,,,
,,,,,,5dd43527794e1041e44fde8e,62bbf9eb25e35f3f0d737a10,2022-06-29_09h06.33.101,Colour_Asymmetry_Pilot,2022.1.3,Win32,60.0276127,62bbe60bf3d75ef465d3e404,0,119,119,58,1,twoone,,,,,,,,,,,,,,,,,,,,,,,,,,,,,,,,,,,,,,,,,,,,,,,,,,,,,,,,,,,,,,,,,,,,,,,,,,,,,,,,,,,,,,,,,,,,,,,,,,,,,,,,,,,,,,,,,,,,,,,,,,,,,,,,,,,,,,,,,,,,,,,,,,,,,,,,
,,,,,,5dd43527794e1041e44fde8e,62bbf9eb25e35f3f0d737a10,2022-06-29_09h06.33.101,Colour_Asymmetry_Pilot,2022.1.3,Win32,60.0276127,62bbe60bf3d75ef465d3e404,0,120,120,50,1,twoone,,,,,,,,,,,,,,,,,,,,,,,,,,,,,,,,,,,,,,,,,,,,,,,,,,,,,,,,,,,,,,,,,,,,,,,,,,,,,,,,,,,,,,,,,,,,,,,,,,,,,,,,,,,,,,,,,,,,,,,,,,,,,,,,,,,,,,,,,,,,,,,,,,,,,,,,
,,,,,,5dd43527794e1041e44fde8e,62bbf9eb25e35f3f0d737a10,2022-06-29_09h06.33.101,Colour_Asymmetry_Pilot,2022.1.3,Win32,60.0276127,62bbe60bf3d75ef465d3e404,0,121,121,64,1,onetwo,,,,,,,,,,,,,,,,,,,,,,,,,,,,,,,,,,,,,,,,,,,,,,,,,,,,,,,,,,,,,,,,,,,,,,,,,,,,,,,,,,,,,,,,,,,,,,,,,,,,,,,,,,,,,,,,,,,,,,,,,,,,,,,,,,,,,,,,,,,,,,,,,,,,,,,,
,,,,,,5dd43527794e1041e44fde8e,62bbf9eb25e35f3f0d737a10,2022-06-29_09h06.33.101,Colour_Asymmetry_Pilot,2022.1.3,Win32,60.0276127,62bbe60bf3d75ef465d3e404,0,122,122,69,1,threefour,,,,,,,,,,,,,,,,,,,,,,,,,,,,,,,,,,,,,,,,,,,,,,,,,,,,,,,,,,,,,,,,,,,,,,,,,,,,,,,,,,,,,,,,,,,,,,,,,,,,,,,,,,,,,,,,,,,,,,,,,,,,,,,,,,,,,,,,,,,,,,,,,,,,,,,,
,,,,,,5dd43527794e1041e44fde8e,62bbf9eb25e35f3f0d737a10,2022-06-29_09h06.33.101,Colour_Asymmetry_Pilot,2022.1.3,Win32,60.0276127,62bbe60bf3d75ef465d3e404,0,123,123,55,1,fourthree,,,,,,,,,,,,,,,,,,,,,,,,,,,,,,,,,,,,,,,,,,,,,,,,,,,,,,,,,,,,,,,,,,,,,,,,,,,,,,,,,,,,,,,,,,,,,,,,,,,,,,,,,,,,,,,,,,,,,,,,,,,,,,,,,,,,,,,,,,,,,,,,,,,,,,,,
,,,,,,5dd43527794e1041e44fde8e,62bbf9eb25e35f3f0d737a10,2022-06-29_09h06.33.101,Colour_Asymmetry_Pilot,2022.1.3,Win32,60.0276127,62bbe60bf3d75ef465d3e404,0,124,124,2,1,twoone,,,,,,,,,,,,,,,,,,,,,,,,,,,,,,,,,,,,,,,,,,,,,,,,,,,,,,,,,,,,,,,,,,,,,,,,,,,,,,,,,,,,,,,,,,,,,,,,,,,,,,,,,,,,,,,,,,,,,,,,,,,,,,,,,,,,,,,,,,,,,,,,,,,,,,,,
,,,,,,5dd43527794e1041e44fde8e,62bbf9eb25e35f3f0d737a10,2022-06-29_09h06.33.101,Colour_Asymmetry_Pilot,2022.1.3,Win32,60.0276127,62bbe60bf3d75ef465d3e404,0,125,125,19,1,twofour,,,,,,,,,,,,,,,,,,,,,,,,,,,,,,,,,,,,,,,,,,,,,,,,,,,,,,,,,,,,,,,,,,,,,,,,,,,,,,,,,,,,,,,,,,,,,,,,,,,,,,,,,,,,,,,,,,,,,,,,,,,,,,,,,,,,,,,,,,,,,,,,,,,,,,,,
,,,,,,5dd43527794e1041e44fde8e,62bbf9eb25e35f3f0d737a10,2022-06-29_09h06.33.101,Colour_Asymmetry_Pilot,2022.1.3,Win32,60.0276127,62bbe60bf3d75ef465d3e404,0,126,126,15,1,fourthree,,,,,,,,,,,,,,,,,,,,,,,,,,,,,,,,,,,,,,,,,,,,,,,,,,,,,,,,,,,,,,,,,,,,,,,,,,,,,,,,,,,,,,,,,,,,,,,,,,,,,,,,,,,,,,,,,,,,,,,,,,,,,,,,,,,,,,,,,,,,,,,,,,,,,,,,
,,,,,,5dd43527794e1041e44fde8e,62bbf9eb25e35f3f0d737a10,2022-06-29_09h06.33.101,Colour_Asymmetry_Pilot,2022.1.3,Win32,60.0276127,62bbe60bf3d75ef465d3e404,0,127,127,13,1,threefour,,,,,,,,,,,,,,,,,,,,,,,,,,,,,,,,,,,,,,,,,,,,,,,,,,,,,,,,,,,,,,,,,,,,,,,,,,,,,,,,,,,,,,,,,,,,,,,,,,,,,,,,,,,,,,,,,,,,,,,,,,,,,,,,,,,,,,,,,,,,,,,,,,,,,,,,
,,,,,,5dd43527794e1041e44fde8e,62bbf9eb25e35f3f0d737a10,2022-06-29_09h06.33.101,Colour_Asymmetry_Pilot,2022.1.3,Win32,60.0276127,62bbe60bf3d75ef465d3e404,0,128,128,70,1,fourtwo,,,,,,,,,,,,,,,,,,,,,,,,,,,,,,,,,,,,,,,,,,,,,,,,,,,,,,,,,,,,,,,,,,,,,,,,,,,,,,,,,,,,,,,,,,,,,,,,,,,,,,,,,,,,,,,,,,,,,,,,,,,,,,,,,,,,,,,,,,,,,,,,,,,,,,,,
,,,,,,5dd43527794e1041e44fde8e,62bbf9eb25e35f3f0d737a10,2022-06-29_09h06.33.101,Colour_Asymmetry_Pilot,2022.1.3,Win32,60.0276127,62bbe60bf3d75ef465d3e404,0,129,129,44,1,threeone,,,,,,,,,,,,,,,,,,,,,,,,,,,,,,,,,,,,,,,,,,,,,,,,,,,,,,,,,,,,,,,,,,,,,,,,,,,,,,,,,,,,,,,,,,,,,,,,,,,,,,,,,,,,,,,,,,,,,,,,,,,,,,,,,,,,,,,,,,,,,,,,,,,,,,,,
,,,,,,5dd43527794e1041e44fde8e,62bbf9eb25e35f3f0d737a10,2022-06-29_09h06.33.101,Colour_Asymmetry_Pilot,2022.1.3,Win32,60.0276127,62bbe60bf3d75ef465d3e404,0,130,130,77,1,threefour,,,,,,,,,,,,,,,,,,,,,,,,,,,,,,,,,,,,,,,,,,,,,,,,,,,,,,,,,,,,,,,,,,,,,,,,,,,,,,,,,,,,,,,,,,,,,,,,,,,,,,,,,,,,,,,,,,,,,,,,,,,,,,,,,,,,,,,,,,,,,,,,,,,,,,,,
,,,,,,5dd43527794e1041e44fde8e,62bbf9eb25e35f3f0d737a10,2022-06-29_09h06.33.101,Colour_Asymmetry_Pilot,2022.1.3,Win32,60.0276127,62bbe60bf3d75ef465d3e404,0,131,131,75,1,twofour,,,,,,,,,,,,,,,,,,,,,,,,,,,,,,,,,,,,,,,,,,,,,,,,,,,,,,,,,,,,,,,,,,,,,,,,,,,,,,,,,,,,,,,,,,,,,,,,,,,,,,,,,,,,,,,,,,,,,,,,,,,,,,,,,,,,,,,,,,,,,,,,,,,,,,,,
,,,,,,5dd43527794e1041e44fde8e,62bbf9eb25e35f3f0d737a10,2022-06-29_09h06.33.101,Colour_Asymmetry_Pilot,2022.1.3,Win32,60.0276127,62bbe60bf3d75ef465d3e404,0,132,132,125,1,threefour,,,,,,,,,,,,,,,,,,,,,,,,,,,,,,,,,,,,,,,,,,,,,,,,,,,,,,,,,,,,,,,,,,,,,,,,,,,,,,,,,,,,,,,,,,,,,,,,,,,,,,,,,,,,,,,,,,,,,,,,,,,,,,,,,,,,,,,,,,,,,,,,,,,,,,,,
,,,,,,5dd43527794e1041e44fde8e,62bbf9eb25e35f3f0d737a10,2022-06-29_09h06.33.101,Colour_Asymmetry_Pilot,2022.1.3,Win32,60.0276127,62bbe60bf3d75ef465d3e404,0,133,133,138,1,twoone,,,,,,,,,,,,,,,,,,,,,,,,,,,,,,,,,,,,,,,,,,,,,,,,,,,,,,,,,,,,,,,,,,,,,,,,,,,,,,,,,,,,,,,,,,,,,,,,,,,,,,,,,,,,,,,,,,,,,,,,,,,,,,,,,,,,,,,,,,,,,,,,,,,,,,,,
,,,,,,5dd43527794e1041e44fde8e,62bbf9eb25e35f3f0d737a10,2022-06-29_09h06.33.101,Colour_Asymmetry_Pilot,2022.1.3,Win32,60.0276127,62bbe60bf3d75ef465d3e404,0,134,134,93,1,threefour,,,,,,,,,,,,,,,,,,,,,,,,,,,,,,,,,,,,,,,,,,,,,,,,,,,,,,,,,,,,,,,,,,,,,,,,,,,,,,,,,,,,,,,,,,,,,,,,,,,,,,,,,,,,,,,,,,,,,,,,,,,,,,,,,,,,,,,,,,,,,,,,,,,,,,,,
,,,,,,5dd43527794e1041e44fde8e,62bbf9eb25e35f3f0d737a10,2022-06-29_09h06.33.101,Colour_Asymmetry_Pilot,2022.1.3,Win32,60.0276127,62bbe60bf3d75ef465d3e404,0,135,135,34,1,twoone,,,,,,,,,,,,,,,,,,,,,,,,,,,,,,,,,,,,,,,,,,,,,,,,,,,,,,,,,,,,,,,,,,,,,,,,,,,,,,,,,,,,,,,,,,,,,,,,,,,,,,,,,,,,,,,,,,,,,,,,,,,,,,,,,,,,,,,,,,,,,,,,,,,,,,,,
,,,,,,5dd43527794e1041e44fde8e,62bbf9eb25e35f3f0d737a10,2022-06-29_09h06.33.101,Colour_Asymmetry_Pilot,2022.1.3,Win32,60.0276127,62bbe60bf3d75ef465d3e404,0,136,136,83,1,twofour,,,,,,,,,,,,,,,,,,,,,,,,,,,,,,,,,,,,,,,,,,,,,,,,,,,,,,,,,,,,,,,,,,,,,,,,,,,,,,,,,,,,,,,,,,,,,,,,,,,,,,,,,,,,,,,,,,,,,,,,,,,,,,,,,,,,,,,,,,,,,,,,,,,,,,,,
,,,,,,5dd43527794e1041e44fde8e,62bbf9eb25e35f3f0d737a10,2022-06-29_09h06.33.101,Colour_Asymmetry_Pilot,2022.1.3,Win32,60.0276127,62bbe60bf3d75ef465d3e404,0,137,137,103,1,fourthree,,,,,,,,,,,,,,,,,,,,,,,,,,,,,,,,,,,,,,,,,,,,,,,,,,,,,,,,,,,,,,,,,,,,,,,,,,,,,,,,,,,,,,,,,,,,,,,,,,,,,,,,,,,,,,,,,,,,,,,,,,,,,,,,,,,,,,,,,,,,,,,,,,,,,,,,
,,,,,,5dd43527794e1041e44fde8e,62bbf9eb25e35f3f0d737a10,2022-06-29_09h06.33.101,Colour_Asymmetry_Pilot,2022.1.3,Win32,60.0276127,62bbe60bf3d75ef465d3e404,0,138,138,96,1,onetwo,,,,,,,,,,,,,,,,,,,,,,,,,,,,,,,,,,,,,,,,,,,,,,,,,,,,,,,,,,,,,,,,,,,,,,,,,,,,,,,,,,,,,,,,,,,,,,,,,,,,,,,,,,,,,,,,,,,,,,,,,,,,,,,,,,,,,,,,,,,,,,,,,,,,,,,,
,,,,,,5dd43527794e1041e44fde8e,62bbf9eb25e35f3f0d737a10,2022-06-29_09h06.33.101,Colour_Asymmetry_Pilot,2022.1.3,Win32,60.0276127,62bbe60bf3d75ef465d3e404,0,139,139,108,1,threeone,,,,,,,,,,,,,,,,,,,,,,,,,,,,,,,,,,,,,,,,,,,,,,,,,,,,,,,,,,,,,,,,,,,,,,,,,,,,,,,,,,,,,,,,,,,,,,,,,,,,,,,,,,,,,,,,,,,,,,,,,,,,,,,,,,,,,,,,,,,,,,,,,,,,,,,,
,,,,,,5dd43527794e1041e44fde8e,62bbf9eb25e35f3f0d737a10,2022-06-29_09h06.33.101,Colour_Asymmetry_Pilot,2022.1.3,Win32,60.0276127,62bbe60bf3d75ef465d3e404,0,140,140,150,1,fourtwo,,,,,,,,,,,,,,,,,,,,,,,,,,,,,,,,,,,,,,,,,,,,,,,,,,,,,,,,,,,,,,,,,,,,,,,,,,,,,,,,,,,,,,,,,,,,,,,,,,,,,,,,,,,,,,,,,,,,,,,,,,,,,,,,,,,,,,,,,,,,,,,,,,,,,,,,
,,,,,,5dd43527794e1041e44fde8e,62bbf9eb25e35f3f0d737a10,2022-06-29_09h06.33.101,Colour_Asymmetry_Pilot,2022.1.3,Win32,60.0276127,62bbe60bf3d75ef465d3e404,0,141,141,86,1,fourtwo,,,,,,,,,,,,,,,,,,,,,,,,,,,,,,,,,,,,,,,,,,,,,,,,,,,,,,,,,,,,,,,,,,,,,,,,,,,,,,,,,,,,,,,,,,,,,,,,,,,,,,,,,,,,,,,,,,,,,,,,,,,,,,,,,,,,,,,,,,,,,,,,,,,,,,,,
,,,,,,5dd43527794e1041e44fde8e,62bbf9eb25e35f3f0d737a10,2022-06-29_09h06.33.101,Colour_Asymmetry_Pilot,2022.1.3,Win32,60.0276127,62bbe60bf3d75ef465d3e404,0,142,142,145,1,onethree,,,,,,,,,,,,,,,,,,,,,,,,,,,,,,,,,,,,,,,,,,,,,,,,,,,,,,,,,,,,,,,,,,,,,,,,,,,,,,,,,,,,,,,,,,,,,,,,,,,,,,,,,,,,,,,,,,,,,,,,,,,,,,,,,,,,,,,,,,,,,,,,,,,,,,,,
,,,,,,5dd43527794e1041e44fde8e,62bbf9eb25e35f3f0d737a10,2022-06-29_09h06.33.101,Colour_Asymmetry_Pilot,2022.1.3,Win32,60.0276127,62bbe60bf3d75ef465d3e404,0,143,143,66,1,twoone,,,,,,,,,,,,,,,,,,,,,,,,,,,,,,,,,,,,,,,,,,,,,,,,,,,,,,,,,,,,,,,,,,,,,,,,,,,,,,,,,,,,,,,,,,,,,,,,,,,,,,,,,,,,,,,,,,,,,,,,,,,,,,,,,,,,,,,,,,,,,,,,,,,,,,,,
,,,,,,5dd43527794e1041e44fde8e,62bbf9eb25e35f3f0d737a10,2022-06-29_09h06.33.101,Colour_Asymmetry_Pilot,2022.1.3,Win32,60.0276127,62bbe60bf3d75ef465d3e404,0,144,144,98,1,twoone,,,,,,,,,,,,,,,,,,,,,,,,,,,,,,,,,,,,,,,,,,,,,,,,,,,,,,,,,,,,,,,,,,,,,,,,,,,,,,,,,,,,,,,,,,,,,,,,,,,,,,,,,,,,,,,,,,,,,,,,,,,,,,,,,,,,,,,,,,,,,,,,,,,,,,,,
,,,,,,5dd43527794e1041e44fde8e,62bbf9eb25e35f3f0d737a10,2022-06-29_09h06.33.101,Colour_Asymmetry_Pilot,2022.1.3,Win32,60.0276127,62bbe60bf3d75ef465d3e404,0,145,145,132,1,threeone,,,,,,,,,,,,,,,,,,,,,,,,,,,,,,,,,,,,,,,,,,,,,,,,,,,,,,,,,,,,,,,,,,,,,,,,,,,,,,,,,,,,,,,,,,,,,,,,,,,,,,,,,,,,,,,,,,,,,,,,,,,,,,,,,,,,,,,,,,,,,,,,,,,,,,,,
,,,,,,5dd43527794e1041e44fde8e,62bbf9eb25e35f3f0d737a10,2022-06-29_09h06.33.101,Colour_Asymmetry_Pilot,2022.1.3,Win32,60.0276127,62bbe60bf3d75ef465d3e404,0,146,146,161,1,onethree,,,,,,,,,,,,,,,,,,,,,,,,,,,,,,,,,,,,,,,,,,,,,,,,,,,,,,,,,,,,,,,,,,,,,,,,,,,,,,,,,,,,,,,,,,,,,,,,,,,,,,,,,,,,,,,,,,,,,,,,,,,,,,,,,,,,,,,,,,,,,,,,,,,,,,,,
,,,,,,5dd43527794e1041e44fde8e,62bbf9eb25e35f3f0d737a10,2022-06-29_09h06.33.101,Colour_Asymmetry_Pilot,2022.1.3,Win32,60.0276127,62bbe60bf3d75ef465d3e404,0,147,147,48,1,onetwo,,,,,,,,,,,,,,,,,,,,,,,,,,,,,,,,,,,,,,,,,,,,,,,,,,,,,,,,,,,,,,,,,,,,,,,,,,,,,,,,,,,,,,,,,,,,,,,,,,,,,,,,,,,,,,,,,,,,,,,,,,,,,,,,,,,,,,,,,,,,,,,,,,,,,,,,
,,,,,,5dd43527794e1041e44fde8e,62bbf9eb25e35f3f0d737a10,2022-06-29_09h06.33.101,Colour_Asymmetry_Pilot,2022.1.3,Win32,60.0276127,62bbe60bf3d75ef465d3e404,0,148,148,131,1,twofour,,,,,,,,,,,,,,,,,,,,,,,,,,,,,,,,,,,,,,,,,,,,,,,,,,,,,,,,,,,,,,,,,,,,,,,,,,,,,,,,,,,,,,,,,,,,,,,,,,,,,,,,,,,,,,,,,,,,,,,,,,,,,,,,,,,,,,,,,,,,,,,,,,,,,,,,
,,,,,,5dd43527794e1041e44fde8e,62bbf9eb25e35f3f0d737a10,2022-06-29_09h06.33.101,Colour_Asymmetry_Pilot,2022.1.3,Win32,60.0276127,62bbe60bf3d75ef465d3e404,0,149,149,63,1,fourthree,,,,,,,,,,,,,,,,,,,,,,,,,,,,,,,,,,,,,,,,,,,,,,,,,,,,,,,,,,,,,,,,,,,,,,,,,,,,,,,,,,,,,,,,,,,,,,,,,,,,,,,,,,,,,,,,,,,,,,,,,,,,,,,,,,,,,,,,,,,,,,,,,,,,,,,,
,,,,,,5dd43527794e1041e44fde8e,62bbf9eb25e35f3f0d737a10,2022-06-29_09h06.33.101,Colour_Asymmetry_Pilot,2022.1.3,Win32,60.0276127,62bbe60bf3d75ef465d3e404,0,150,150,68,1,threeone,,,,,,,,,,,,,,,,,,,,,,,,,,,,,,,,,,,,,,,,,,,,,,,,,,,,,,,,,,,,,,,,,,,,,,,,,,,,,,,,,,,,,,,,,,,,,,,,,,,,,,,,,,,,,,,,,,,,,,,,,,,,,,,,,,,,,,,,,,,,,,,,,,,,,,,,
,,,,,,5dd43527794e1041e44fde8e,62bbf9eb25e35f3f0d737a10,2022-06-29_09h06.33.101,Colour_Asymmetry_Pilot,2022.1.3,Win32,60.0276127,62bbe60bf3d75ef465d3e404,0,151,151,56,1,onetwo,,,,,,,,,,,,,,,,,,,,,,,,,,,,,,,,,,,,,,,,,,,,,,,,,,,,,,,,,,,,,,,,,,,,,,,,,,,,,,,,,,,,,,,,,,,,,,,,,,,,,,,,,,,,,,,,,,,,,,,,,,,,,,,,,,,,,,,,,,,,,,,,,,,,,,,,
,,,,,,5dd43527794e1041e44fde8e,62bbf9eb25e35f3f0d737a10,2022-06-29_09h06.33.101,Colour_Asymmetry_Pilot,2022.1.3,Win32,60.0276127,62bbe60bf3d75ef465d3e404,0,152,152,37,1,threefour,,,,,,,,,,,,,,,,,,,,,,,,,,,,,,,,,,,,,,,,,,,,,,,,,,,,,,,,,,,,,,,,,,,,,,,,,,,,,,,,,,,,,,,,,,,,,,,,,,,,,,,,,,,,,,,,,,,,,,,,,,,,,,,,,,,,,,,,,,,,,,,,,,,,,,,,
,,,,,,5dd43527794e1041e44fde8e,62bbf9eb25e35f3f0d737a10,2022-06-29_09h06.33.101,Colour_Asymmetry_Pilot,2022.1.3,Win32,60.0276127,62bbe60bf3d75ef465d3e404,0,153,153,95,1,fourthree,,,,,,,,,,,,,,,,,,,,,,,,,,,,,,,,,,,,,,,,,,,,,,,,,,,,,,,,,,,,,,,,,,,,,,,,,,,,,,,,,,,,,,,,,,,,,,,,,,,,,,,,,,,,,,,,,,,,,,,,,,,,,,,,,,,,,,,,,,,,,,,,,,,,,,,,
,,,,,,5dd43527794e1041e44fde8e,62bbf9eb25e35f3f0d737a10,2022-06-29_09h06.33.101,Colour_Asymmetry_Pilot,2022.1.3,Win32,60.0276127,62bbe60bf3d75ef465d3e404,0,154,154,38,1,fourtwo,,,,,,,,,,,,,,,,,,,,,,,,,,,,,,,,,,,,,,,,,,,,,,,,,,,,,,,,,,,,,,,,,,,,,,,,,,,,,,,,,,,,,,,,,,,,,,,,,,,,,,,,,,,,,,,,,,,,,,,,,,,,,,,,,,,,,,,,,,,,,,,,,,,,,,,,
,,,,,,5dd43527794e1041e44fde8e,62bbf9eb25e35f3f0d737a10,2022-06-29_09h06.33.101,Colour_Asymmetry_Pilot,2022.1.3,Win32,60.0276127,62bbe60bf3d75ef465d3e404,0,155,155,128,1,onetwo,,,,,,,,,,,,,,,,,,,,,,,,,,,,,,,,,,,,,,,,,,,,,,,,,,,,,,,,,,,,,,,,,,,,,,,,,,,,,,,,,,,,,,,,,,,,,,,,,,,,,,,,,,,,,,,,,,,,,,,,,,,,,,,,,,,,,,,,,,,,,,,,,,,,,,,,
,,,,,,5dd43527794e1041e44fde8e,62bbf9eb25e35f3f0d737a10,2022-06-29_09h06.33.101,Colour_Asymmetry_Pilot,2022.1.3,Win32,60.0276127,62bbe60bf3d75ef465d3e404,0,156,156,41,1,onethree,,,,,,,,,,,,,,,,,,,,,,,,,,,,,,,,,,,,,,,,,,,,,,,,,,,,,,,,,,,,,,,,,,,,,,,,,,,,,,,,,,,,,,,,,,,,,,,,,,,,,,,,,,,,,,,,,,,,,,,,,,,,,,,,,,,,,,,,,,,,,,,,,,,,,,,,
,,,,,,5dd43527794e1041e44fde8e,62bbf9eb25e35f3f0d737a10,2022-06-29_09h06.33.101,Colour_Asymmetry_Pilot,2022.1.3,Win32,60.0276127,62bbe60bf3d75ef465d3e404,0,157,157,90,1,twoone,,,,,,,,,,,,,,,,,,,,,,,,,,,,,,,,,,,,,,,,,,,,,,,,,,,,,,,,,,,,,,,,,,,,,,,,,,,,,,,,,,,,,,,,,,,,,,,,,,,,,,,,,,,,,,,,,,,,,,,,,,,,,,,,,,,,,,,,,,,,,,,,,,,,,,,,
,,,,,,5dd43527794e1041e44fde8e,62bbf9eb25e35f3f0d737a10,2022-06-29_09h06.33.101,Colour_Asymmetry_Pilot,2022.1.3,Win32,60.0276127,62bbe60bf3d75ef465d3e404,0,158,158,4,1,threeone,,,,,,,,,,,,,,,,,,,,,,,,,,,,,,,,,,,,,,,,,,,,,,,,,,,,,,,,,,,,,,,,,,,,,,,,,,,,,,,,,,,,,,,,,,,,,,,,,,,,,,,,,,,,,,,,,,,,,,,,,,,,,,,,,,,,,,,,,,,,,,,,,,,,,,,,
,,,,,,5dd43527794e1041e44fde8e,62bbf9eb25e35f3f0d737a10,2022-06-29_09h06.33.101,Colour_Asymmetry_Pilot,2022.1.3,Win32,60.0276127,62bbe60bf3d75ef465d3e404,0,159,159,61,1,threefour,,,,,,,,,,,,,,,,,,,,,,,,,,,,,,,,,,,,,,,,,,,,,,,,,,,,,,,,,,,,,,,,,,,,,,,,,,,,,,,,,,,,,,,,,,,,,,,,,,,,,,,,,,,,,,,,,,,,,,,,,,,,,,,,,,,,,,,,,,,,,,,,,,,,,,,,
,,,,,,5dd43527794e1041e44fde8e,62bbf9eb25e35f3f0d737a10,2022-06-29_09h06.33.101,Colour_Asymmetry_Pilot,2022.1.3,Win32,60.0276127,62bbe60bf3d75ef465d3e404,0,160,160,124,1,threeone,,,,,,,,,,,,,,,,,,,,,,,,,,,,,,,,,,,,,,,,,,,,,,,,,,,,,,,,,,,,,,,,,,,,,,,,,,,,,,,,,,,,,,,,,,,,,,,,,,,,,,,,,,,,,,,,,,,,,,,,,,,,,,,,,,,,,,,,,,,,,,,,,,,,,,,,
,,,,,,5dd43527794e1041e44fde8e,62bbf9eb25e35f3f0d737a10,2022-06-29_09h06.33.101,Colour_Asymmetry_Pilot,2022.1.3,Win32,60.0276127,62bbe60bf3d75ef465d3e404,0,161,161,156,1,threeone,,,,,,,,,,,,,,,,,,,,,,,,,,,,,,,,,,,,,,,,,,,,,,,,,,,,,,,,,,,,,,,,,,,,,,,,,,,,,,,,,,,,,,,,,,,,,,,,,,,,,,,,,,,,,,,,,,,,,,,,,,,,,,,,,,,,,,,,,,,,,,,,,,,,,,,,
,,,,,,5dd43527794e1041e44fde8e,62bbf9eb25e35f3f0d737a10,2022-06-29_09h06.33.101,Colour_Asymmetry_Pilot,2022.1.3,Win32,60.0276127,62bbe60bf3d75ef465d3e404,,,,,,,space,13.5145,space,57.5522,space,52.9234,space,25.1453,space,4.428,space,16.1503,"[0.37240000000000006,-0.050999999999999934,-0.5216]",fourthree,"[0.30180000000000007,-0.7884,-0.9844]",1,14.1714,62,-94,1,0,0,response3disk_5,-4,3,1,0,0,rectangle_8,35,127,1,0,0,response1disk_7,7,4,-1,8,1,0,0,rectangle_4,0,0,0,0,1,,,,,,,,,,,,,,,,,,,,,,,,,,,,,,,,,,,,,,,,,,,,,,,,,,,,,,,,,,,,,,,,,,,,,,,,,,,,,,,,,,,,,,,,,,,,,,,,,,,,,,,,
,,,,,,5dd43527794e1041e44fde8e,62bbf9eb25e35f3f0d737a10,2022-06-29_09h06.33.101,Colour_Asymmetry_Pilot,2022.1.3,Win32,60.0276127,62bbe60bf3d75ef465d3e404,,,,,,,,,,,,,,,,,,,"[-0.17659999999999998,0.3253999999999999,0.19999999999999996]",twofour,"[0.12939999999999996,-0.2864,0.3253999999999999]",1,5.1204,65,-70,1,0,0,response3disk_5,-10,3,1,0,0,rectangle_8,-10,3,1,0,0,,,4,-10,3,1,0,0,,1,0,1,0,1,,,,,,,,,,,,,,,,,,,,,,,,,,,,,,,,,,,,,,,,,,,,,,,,,,,,,,,,,,,,,,,,,,,,,,,,,,,,,,,,,,,,,,,,,,,,,,,,,,,,,,,,
,,,,,,5dd43527794e1041e44fde8e,62bbf9eb25e35f3f0d737a10,2022-06-29_09h06.33.101,Colour_Asymmetry_Pilot,2022.1.3,Win32,60.0276127,62bbe60bf3d75ef465d3e404,,,,,,,,,,,,,,,,,,,"[-0.4668,-0.8746,-0.2942]",twoone,"[0.8115999999999999,-0.0040000000000000036,-0.09819999999999995]",-4,3.9842,-78,107,1,0,0,response7disk_5,-37,9,1,0,0,rectangle_8,-37,9,1,0,0,,,4,-37,9,1,0,0,,2,0,2,0,1,,,,,,,,,,,,,,,,,,,,,,,,,,,,,,,,,,,,,,,,,,,,,,,,,,,,,,,,,,,,,,,,,,,,,,,,,,,,,,,,,,,,,,,,,,,,,,,,,,,,,,,,
,,,,,,5dd43527794e1041e44fde8e,62bbf9eb25e35f3f0d737a10,2022-06-29_09h06.33.101,Colour_Asymmetry_Pilot,2022.1.3,Win32,60.0276127,62bbe60bf3d75ef465d3e404,,,,,,,,,,,,,,,,,,,"[0.8274000000000001,-0.5844,-0.9452]",threefour,"[0.3568,-0.20799999999999996,-0.9844]",2,4.6815,120,-51,1,0,0,response3disk_5,-25,-5,1,0,0,rectangle_8,-25,-5,1,0,0,,,4,-25,-5,1,0,0,,3,0,3,0,1,,,,,,,,,,,,,,,,,,,,,,,,,,,,,,,,,,,,,,,,,,,,,,,,,,,,,,,,,,,,,,,,,,,,,,,,,,,,,,,,,,,,,,,,,,,,,,,,,,,,,,,,
,,,,,,5dd43527794e1041e44fde8e,62bbf9eb25e35f3f0d737a10,2022-06-29_09h06.33.101,Colour_Asymmetry_Pilot,2022.1.3,Win32,60.0276127,62bbe60bf3d75ef465d3e404,,,,,,,,,,,,,,,,,,,"[0.9686000000000001,0.5763999999999998,0.11359999999999992]",fourthree,"[0.8274000000000001,-0.5844,-0.9452]",1,2.7337,45,-112,1,0,0,response3disk_5,-1,-9,1,0,0,rectangle_8,-1,-9,1,0,0,,,4,-1,-9,1,0,0,,4,0,4,0,1,,,,,,,,,,,,,,,,,,,,,,,,,,,,,,,,,,,,,,,,,,,,,,,,,,,,,,,,,,,,,,,,,,,,,,,,,,,,,,,,,,,,,,,,,,,,,,,,,,,,,,,,
,,,,,,5dd43527794e1041e44fde8e,62bbf9eb25e35f3f0d737a10,2022-06-29_09h06.33.101,Colour_Asymmetry_Pilot,2022.1.3,Win32,60.0276127,62bbe60bf3d75ef465d3e404,,,,,,,,,,,,,,,,,,,"[-0.011800000000000033,-0.906,-0.45100000000000007]",onethree,"[-0.20799999999999996,-0.655,-0.01980000000000004]",3,2.8155,104,63,1,0,0,response1disk_5,24,3,1,0,0,rectangle_8,54,108,1,0,0,response1disk_7,7,4,4,-8,1,0,0,rectangle_4,5,0,5,0,1,,,,,,,,,,,,,,,,,,,,,,,,,,,,,,,,,,,,,,,,,,,,,,,,,,,,,,,,,,,,,,,,,,,,,,,,,,,,,,,,,,,,,,,,,,,,,,,,,,,,,,,,
,,,,,,5dd43527794e1041e44fde8e,62bbf9eb25e35f3f0d737a10,2022-06-29_09h06.33.101,Colour_Asymmetry_Pilot,2022.1.3,Win32,60.0276127,62bbe60bf3d75ef465d3e404,,,,,,,,,,,,,,,,,,,"[0.30180000000000007,-0.7884,-0.9844]",fourthree,"[0.0351999999999999,0.41159999999999997,0.0038000000000000256]",-4,3.167,-62,112,1,0,0,response7disk_5,-26,8,1,0,0,rectangle_8,-26,8,1,0,0,,,4,-26,8,1,0,0,,6,0,6,0,1,,,,,,,,,,,,,,,,,,,,,,,,,,,,,,,,,,,,,,,,,,,,,,,,,,,,,,,,,,,,,,,,,,,,,,,,,,,,,,,,,,,,,,,,,,,,,,,,,,,,,,,,
,,,,,,5dd43527794e1041e44fde8e,62bbf9eb25e35f3f0d737a10,2022-06-29_09h06.33.101,Colour_Asymmetry_Pilot,2022.1.3,Win32,60.0276127,62bbe60bf3d75ef465d3e404,,,,,,,,,,,,,,,,,,,,threeone,,3,5.3026,,,,,,,,,,,,,,,,,,,,,,,,,,,,,,,,space,21.2511,"[-0.011800000000000033,-0.906,-0.45100000000000007]","[0.22340000000000004,-0.9296,-0.7884]",102,75,1,0,0,response1disk,21,0,1,0,0,rectangle,21,0,1,0,0,,1,0.0042,0,21,0,1,0,0,0,0,0,18,1,18,first,,,,,,,,,,,,,,,,,,,,,,,,,,,,,,,,,,,,,,,,,,,,,,,,,,,,,,,,,,,,,,,,,,,
,,,,,,5dd43527794e1041e44fde8e,62bbf9eb25e35f3f0d737a10,2022-06-29_09h06.33.101,Colour_Asymmetry_Pilot,2022.1.3,Win32,60.0276127,62bbe60bf3d75ef465d3e404,,,,,,,,,,,,,,,,,,,,onetwo,,4,0.6868,,,,,,,,,,,,,,,,,,,,,,,,,,,,,,,,,,"[-0.26280000000000003,-0.2158,-0.3256]","[0.0351999999999999,0.41159999999999997,0.0038000000000000256]",60,109,1,0,0,response1disk,17,-2,1,0,0,rectangle,17,-2,1,0,0,,1,0.0008,0,17,-2,1,0,0,0,1,1,100,1,19,second,,,,,,,,,,,,,,,,,,,,,,,,,,,,,,,,,,,,,,,,,,,,,,,,,,,,,,,,,,,,,,,,,,,
,,,,,,5dd43527794e1041e44fde8e,62bbf9eb25e35f3f0d737a10,2022-06-29_09h06.33.101,Colour_Asymmetry_Pilot,2022.1.3,Win32,60.0276127,62bbe60bf3d75ef465d3e404,,,,,,,,,,,,,,,,,,,,threeone,,3,1.0504,,,,,,,,,,,,,,,,,,,,,,,,,,,,,,,,,,"[0.23920000000000008,0.2704,0.16060000000000008]","[-0.8198,-0.5138,-0.7492000000000001]",77,42,1,0,0,response1disk,-11,-14,1,0,0,rectangle,-11,-14,1,0,0,,2,0.0028,0,-11,-14,1,0,0,0,2,2,33,1,33,first,,,,,,,,,,,,,,,,,,,,,,,,,,,,,,,,,,,,,,,,,,,,,,,,,,,,,,,,,,,,,,,,,,,
,,,,,,5dd43527794e1041e44fde8e,62bbf9eb25e35f3f0d737a10,2022-06-29_09h06.33.101,Colour_Asymmetry_Pilot,2022.1.3,Win32,60.0276127,62bbe60bf3d75ef465d3e404,,,,,,,,,,,,,,,,,,,,threefour,,-4,1.6806,,,,,,,,,,,,,,,,,,,,,,,,,,,,,,,,,,"[0.9686000000000001,0.5763999999999998,0.11359999999999992]","[-0.10599999999999998,-0.10599999999999998,0.5841999999999998]",-67,109,1,0,0,response7disk,-11,-2,1,0,0,rectangle,-11,-2,1,0,0,,3,0.0036,0,-11,-2,1,0,0,0,3,3,82,1,1,second,,,,,,,,,,,,,,,,,,,,,,,,,,,,,,,,,,,,,,,,,,,,,,,,,,,,,,,,,,,,,,,,,,,
,,,,,,5dd43527794e1041e44fde8e,62bbf9eb25e35f3f0d737a10,2022-06-29_09h06.33.101,Colour_Asymmetry_Pilot,2022.1.3,Win32,60.0276127,62bbe60bf3d75ef465d3e404,,,,,,,,,,,,,,,,,,,,twofour,,2,2.4661,,,,,,,,,,,,,,,,,,,,,,,,,,,,,,,,,,"[0.05879999999999996,0.2784,0.5841999999999998]","[-0.5922000000000001,-0.7492000000000001,-0.5296000000000001]",121,-42,1,0,0,response3disk,23,-5,1,0,0,rectangle,23,-5,1,0,0,,3,0.0008,0,23,-5,1,0,0,0,4,4,47,1,47,first,,,,,,,,,,,,,,,,,,,,,,,,,,,,,,,,,,,,,,,,,,,,,,,,,,,,,,,,,,,,,,,,,,,
,,,,,,5dd43527794e1041e44fde8e,62bbf9eb25e35f3f0d737a10,2022-06-29_09h06.33.101,Colour_Asymmetry_Pilot,2022.1.3,Win32,60.0276127,62bbe60bf3d75ef465d3e404,,,,,,,,,,,,,,,,,,,,fourthree,,-4,0.7322,,,,,,,,,,,,,,,,,,,,,,,,,,,,,,,,,,"[-0.24719999999999998,-0.0354000000000001,0.3175999999999999]","[0.9372,0.20779999999999998,0.2704]",-41,111,1,0,0,response7disk,-10,4,1,0,0,rectangle,-10,4,1,0,0,,3,0.0007,0,-10,4,1,0,0,0,5,5,14,1,14,first,,,,,,,,,,,,,,,,,,,,,,,,,,,,,,,,,,,,,,,,,,,,,,,,,,,,,,,,,,,,,,,,,,,
,,,,,,5dd43527794e1041e44fde8e,62bbf9eb25e35f3f0d737a10,2022-06-29_09h06.33.101,Colour_Asymmetry_Pilot,2022.1.3,Win32,60.0276127,62bbe60bf3d75ef465d3e404,,,,,,,,,,,,,,,,,,,,twoone,,4,0.6714,,,,,,,,,,,,,,,,,,,,,,,,,,,,,,,,,,"[0.9763999999999999,-0.1137999999999999,-0.6314]","[0.796,0.2156,-0.27859999999999996]",41,91,1,0,0,response1disk,-8,-3,1,0,0,rectangle,-8,-3,1,0,0,,3,0.0013,0,-8,-3,1,0,0,0,6,6,59,1,59,first,,,,,,,,,,,,,,,,,,,,,,,,,,,,,,,,,,,,,,,,,,,,,,,,,,,,,,,,,,,,,,,,,,,
,,,,,,5dd43527794e1041e44fde8e,62bbf9eb25e35f3f0d737a10,2022-06-29_09h06.33.101,Colour_Asymmetry_Pilot,2022.1.3,Win32,60.0276127,62bbe60bf3d75ef465d3e404,,,,,,,,,,,,,,,,,,,,twoone,,-4,1.4035,,,,,,,,,,,,,,,,,,,,,,,,,,,,,,,,,,"[-0.8198,-0.5138,-0.7492000000000001]","[0.2784,-0.31000000000000005,-0.5452]",-57,104,1,0,0,response7disk,-14,5,1,0,0,rectangle,-14,5,1,0,0,,1,0.0034,0,-14,5,1,0,0,0,7,7,68,1,68,first,,,,,,,,,,,,,,,,,,,,,,,,,,,,,,,,,,,,,,,,,,,,,,,,,,,,,,,,,,,,,,,,,,,
,,,,,,5dd43527794e1041e44fde8e,62bbf9eb25e35f3f0d737a10,2022-06-29_09h06.33.101,Colour_Asymmetry_Pilot,2022.1.3,Win32,60.0276127,62bbe60bf3d75ef465d3e404,,,,,,,,,,,,,,,,,,,,fourthree,,-4,0.7,,,,,,,,,,,,,,,,,,,,,,,,,,,,,,,,,,"[0.0351999999999999,0.41159999999999997,0.0038000000000000256]","[0.23120000000000007,-0.7726,-0.34120000000000006]",-44,90,1,0,0,response7disk,-4,2,1,0,0,rectangle,-4,2,1,0,0,,3,0.003,0,-4,2,1,0,0,0,8,8,32,1,32,first,,,,,,,,,,,,,,,,,,,,,,,,,,,,,,,,,,,,,,,,,,,,,,,,,,,,,,,,,,,,,,,,,,,
,,,,,,5dd43527794e1041e44fde8e,62bbf9eb25e35f3f0d737a10,2022-06-29_09h06.33.101,Colour_Asymmetry_Pilot,2022.1.3,Win32,60.0276127,62bbe60bf3d75ef465d3e404,,,,,,,,,,,,,,,,,,,,onethree,,2,0.7529,,,,,,,,,,,,,,,,,,,,,,,,,,,,,,,,,,"[-0.6,0.16860000000000008,0.44300000000000006]","[-0.6235999999999999,-0.6786,-0.08239999999999992]",84,-41,1,0,0,response3disk,-9,3,1,0,0,rectangle,-9,3,1,0,0,,1,0.0031,0,-9,3,1,0,0,0,9,9,37,1,37,first,,,,,,,,,,,,,,,,,,,,,,,,,,,,,,,,,,,,,,,,,,,,,,,,,,,,,,,,,,,,,,,,,,,
,,,,,,5dd43527794e1041e44fde8e,62bbf9eb25e35f3f0d737a10,2022-06-29_09h06.33.101,Colour_Asymmetry_Pilot,2022.1.3,Win32,60.0276127,62bbe60bf3d75ef465d3e404,,,,,,,,,,,,,,,,,,,,onetwo,,-4,0.6176,,,,,,,,,,,,,,,,,,,,,,,,,,,,,,,,,,"[-0.10599999999999998,-0.15300000000000002,0.15280000000000005]","[-0.6706000000000001,-0.6157999999999999,-0.6786]",-46,85,1,0,0,response7disk,8,6,1,0,0,rectangle,8,6,1,0,0,,1,0.0004,0,8,6,1,0,0,0,10,10,53,1,53,first,,,,,,,,,,,,,,,,,,,,,,,,,,,,,,,,,,,,,,,,,,,,,,,,,,,,,,,,,,,,,,,,,,,
,,,,,,5dd43527794e1041e44fde8e,62bbf9eb25e35f3f0d737a10,2022-06-29_09h06.33.101,Colour_Asymmetry_Pilot,2022.1.3,Win32,60.0276127,62bbe60bf3d75ef465d3e404,,,,,,,,,,,,,,,,,,,,onethree,,-4,0.5838,,,,,,,,,,,,,,,,,,,,,,,,,,,,,,,,,,"[-0.9766,-0.6472,0.07440000000000002]","[-0.4276,0.0038000000000000256,-0.3256]",-53,97,1,0,0,response7disk,1,0,1,0,0,rectangle,1,0,1,0,0,,1,0.0003,0,1,0,1,0,0,0,11,11,24,1,24,first,,,,,,,,,,,,,,,,,,,,,,,,,,,,,,,,,,,,,,,,,,,,,,,,,,,,,,,,,,,,,,,,,,,
,,,,,,5dd43527794e1041e44fde8e,62bbf9eb25e35f3f0d737a10,2022-06-29_09h06.33.101,Colour_Asymmetry_Pilot,2022.1.3,Win32,60.0276127,62bbe60bf3d75ef465d3e404,,,,,,,,,,,,,,,,,,,,threefour,,4,0.5514,,,,,,,,,,,,,,,,,,,,,,,,,,,,,,,,,,"[0.05879999999999996,0.2784,0.5841999999999998]","[-0.09019999999999995,0.44300000000000006,0.5371999999999999]",63,116,1,0,0,response1disk,21,3,1,0,0,rectangle,101,46,1,0,0,3,3,6.4151,1,24,-3,1,0,0,0,12,12,161,1,80,second,response1disk_3,rectangle,,,,,,,,,,,,,,,,,,,,,,,,,,,,,,,,,,,,,,,,,,,,,,,,,,,,,,,,,,,,,,,,,
,,,,,,5dd43527794e1041e44fde8e,62bbf9eb25e35f3f0d737a10,2022-06-29_09h06.33.101,Colour_Asymmetry_Pilot,2022.1.3,Win32,60.0276127,62bbe60bf3d75ef465d3e404,,,,,,,,,,,,,,,,,,,,fourtwo,,-1,3.5993,,,,,,,,,,,,,,,,,,,,,,,,,,,,,,,,,,"[0.796,0.2156,-0.27859999999999996]","[0.7176,-0.906,-0.6864]",-44,-109,1,0,0,response5disk,-4,1,1,0,0,rectangle,-4,1,1,0,0,3,2,0.0031,0,-4,1,1,0,0,0,13,13,137,1,56,second,,,,,,,,,,,,,,,,,,,,,,,,,,,,,,,,,,,,,,,,,,,,,,,,,,,,,,,,,,,,,,,,,,,
,,,,,,5dd43527794e1041e44fde8e,62bbf9eb25e35f3f0d737a10,2022-06-29_09h06.33.101,Colour_Asymmetry_Pilot,2022.1.3,Win32,60.0276127,62bbe60bf3d75ef465d3e404,,,,,,,,,,,,,,,,,,,,twofour,,-4,0.7333,,,,,,,,,,,,,,,,,,,,,,,,,,,,,,,,,,"[-0.9688,-0.38039999999999996,-0.41979999999999995]","[0.5449999999999999,-0.31000000000000005,-0.0354000000000001]",-44,81,1,0,0,response7disk,-11,-6,1,0,0,rectangle,-11,-6,1,0,0,3,2,0.0005,0,-11,-6,1,0,0,0,14,14,62,1,62,first,,,,,,,,,,,,,,,,,,,,,,,,,,,,,,,,,,,,,,,,,,,,,,,,,,,,,,,,,,,,,,,,,,,
,,,,,,5dd43527794e1041e44fde8e,62bbf9eb25e35f3f0d737a10,2022-06-29_09h06.33.101,Colour_Asymmetry_Pilot,2022.1.3,Win32,60.0276127,62bbe60bf3d75ef465d3e404,,,,,,,,,,,,,,,,,,,,threeone,,-4,0.6337,,,,,,,,,,,,,,,,,,,,,,,,,,,,,,,,,,"[-0.4746,-0.0354000000000001,0.5449999999999999]","[0.7646000000000002,0.07440000000000002,0.2704]",-30,79,1,0,0,response7disk,5,9,1,0,0,rectangle,5,9,1,0,0,3,3,0.003,0,5,9,1,0,0,0,15,15,81,1,0,second,,,,,,,,,,,,,,,,,,,,,,,,,,,,,,,,,,,,,,,,,,,,,,,,,,,,,,,,,,,,,,,,,,,
,,,,,,5dd43527794e1041e44fde8e,62bbf9eb25e35f3f0d737a10,2022-06-29_09h06.33.101,Colour_Asymmetry_Pilot,2022.1.3,Win32,60.0276127,62bbe60bf3d75ef465d3e404,,,,,,,,,,,,,,,,,,,,twofour,,1,2.8842,,,,,,,,,,,,,,,,,,,,,,,,,,,,,,,,,,"[-0.26280000000000003,-0.4746,-0.2158]","[-0.9766,-0.34920000000000007,0.2156]",35,-110,1,0,0,response3disk,23,-1,1,0,0,rectangle,23,-1,1,0,0,3,2,0.0032,0,23,-1,1,0,0,0,16,16,8,1,8,first,,,,,,,,,,,,,,,,,,,,,,,,,,,,,,,,,,,,,,,,,,,,,,,,,,,,,,,,,,,,,,,,,,,
,,,,,,5dd43527794e1041e44fde8e,62bbf9eb25e35f3f0d737a10,2022-06-29_09h06.33.101,Colour_Asymmetry_Pilot,2022.1.3,Win32,60.0276127,62bbe60bf3d75ef465d3e404,,,,,,,,,,,,,,,,,,,,fourthree,,-4,0.7148,,,,,,,,,,,,,,,,,,,,,,,,,,,,,,,,,,"[-0.45899999999999996,-0.3256,-0.9374]","[-0.09019999999999995,0.44300000000000006,0.5371999999999999]",-29,114,1,0,0,response7disk,0,-8,1,0,0,rectangle,0,-8,1,0,0,3,1,0.0035,0,0,-8,1,0,0,0,17,17,139,1,58,second,,,,,,,,,,,,,,,,,,,,,,,,,,,,,,,,,,,,,,,,,,,,,,,,,,,,,,,,,,,,,,,,,,,
,,,,,,5dd43527794e1041e44fde8e,62bbf9eb25e35f3f0d737a10,2022-06-29_09h06.33.101,Colour_Asymmetry_Pilot,2022.1.3,Win32,60.0276127,62bbe60bf3d75ef465d3e404,,,,,,,,,,,,,,,,,,,,twofour,,-4,0.6312,,,,,,,,,,,,,,,,,,,,,,,,,,,,,,,,,,"[0.7802,-0.23140000000000005,-0.20799999999999996]","[0.7018,0.7176,0.6155999999999999]",-39,87,1,0,0,response7disk,-7,1,1,0,0,rectangle,-7,1,1,0,0,3,3,0.0032,0,-7,1,1,0,0,0,18,18,107,1,26,second,,,,,,,,,,,,,,,,,,,,,,,,,,,,,,,,,,,,,,,,,,,,,,,,,,,,,,,,,,,,,,,,,,,
,,,,,,5dd43527794e1041e44fde8e,62bbf9eb25e35f3f0d737a10,2022-06-29_09h06.33.101,Colour_Asymmetry_Pilot,2022.1.3,Win32,60.0276127,62bbe60bf3d75ef465d3e404,,,,,,,,,,,,,,,,,,,,fourtwo,,3,1.6514,,,,,,,,,,,,,,,,,,,,,,,,,,,,,,,,,,"[-0.9766,-0.34920000000000007,0.2156]","[-0.6942,-0.7648,-0.12959999999999994]",125,46,1,0,0,response1disk,10,-2,1,0,0,rectangle,10,-2,1,0,0,3,3,0.0012,0,10,-2,1,0,0,0,19,19,65,1,65,first,,,,,,,,,,,,,,,,,,,,,,,,,,,,,,,,,,,,,,,,,,,,,,,,,,,,,,,,,,,,,,,,,,,
,,,,,,5dd43527794e1041e44fde8e,62bbf9eb25e35f3f0d737a10,2022-06-29_09h06.33.101,Colour_Asymmetry_Pilot,2022.1.3,Win32,60.0276127,62bbe60bf3d75ef465d3e404,,,,,,,,,,,,,,,,,,,,fourthree,,-4,0.9478,,,,,,,,,,,,,,,,,,,,,,,,,,,,,,,,,,"[-0.9138,-0.5296000000000001,-0.5529999999999999]","[0.796,0.2156,-0.27859999999999996]",-34,89,1,0,0,response7disk,-8,11,1,0,0,rectangle,-8,11,1,0,0,3,1,0.003,0,-8,11,1,0,0,0,20,20,155,1,74,second,,,,,,,,,,,,,,,,,,,,,,,,,,,,,,,,,,,,,,,,,,,,,,,,,,,,,,,,,,,,,,,,,,,
