trials.thisRepN,trials.thisTrialN,trials.thisN,trials.thisIndex,trials.ran,Colourcodes,participant,session,date,expName,psychopyVersion,OS,frameRate,study_id,trials_4.thisRepN,trials_4.thisTrialN,trials_4.thisN,trials_4.thisIndex,trials_4.ran,StimulusPos,key_resp.keys,key_resp.rt,key_resp_2.keys,key_resp_2.rt,key_resp_15.keys,key_resp_15.rt,key_resp_17.keys,key_resp_17.rt,key_resp_9.keys,key_resp_9.rt,key_resp_10.keys,key_resp_10.rt,Circle1_col,Ecc,Circle2_col,similarity,response_time,mouse_5.x,mouse_5.y,mouse_5.leftButton,mouse_5.midButton,mouse_5.rightButton,mouse_5.clicked_name,mouse_10.x,mouse_10.y,mouse_10.leftButton,mouse_10.midButton,mouse_10.rightButton,mouse_10.clicked_name,mouse_7.x,mouse_7.y,mouse_7.leftButton,mouse_7.midButton,mouse_7.rightButton,catchnumberprac,mouse_6.x,mouse_6.y,mouse_6.leftButton,mouse_6.midButton,mouse_6.rightButton,duringprac.thisRepN,duringprac.thisTrialN,duringprac.thisN,duringprac.thisIndex,duringprac.ran,mouse_7.clicked_name,catchprac,mouse_6.clicked_name,key_resp_22.keys,key_resp_22.rt,Circle1_colour,Circle2_colour,mouse.x,mouse.y,mouse.leftButton,mouse.midButton,mouse.rightButton,mouse.clicked_name,mouse_2.x,mouse_2.y,mouse_2.leftButton,mouse_2.midButton,mouse_2.rightButton,mouse_2.clicked_name,mouse_3.x,mouse_3.y,mouse_3.leftButton,mouse_3.midButton,mouse_3.rightButton,catchresponse,catchnumber,response_time_catch,Catch,mouse_11.x,mouse_11.y,mouse_11.leftButton,mouse_11.midButton,mouse_11.rightButton,trials_2.thisRepN,trials_2.thisTrialN,trials_2.thisN,trials_2.thisIndex,trials_2.ran,Colourpair,Temporder,mouse_3.clicked_name,mouse_11.clicked_name,trials_3.thisRepN,trials_3.thisTrialN,trials_3.thisN,trials_3.thisIndex,trials_3.ran,key_resp_instr_Ishi.keys,key_resp_instr_Ishi.rt,Ishi_trial_keyresp.keys,Ishi_trial_keyresp.rt,Ishi_textbox.text,Ishi_loop.thisRepN,Ishi_loop.thisTrialN,Ishi_loop.thisN,Ishi_loop.thisIndex,Ishi_loop.ran,imageaddress,textbox.text,mouse_4.x,mouse_4.y,mouse_4.leftButton,mouse_4.midButton,mouse_4.rightButton,mouse_4.clicked_name,textbox_2.text,mouse_8.x,mouse_8.y,mouse_8.leftButton,mouse_8.midButton,mouse_8.rightButton,mouse_8.clicked_name,textbox_3.text,mouse_9.x,mouse_9.y,mouse_9.leftButton,mouse_9.midButton,mouse_9.rightButton,mouse_9.clicked_name,textbox_4.text,mouse_12.x,mouse_12.y,mouse_12.leftButton,mouse_12.midButton,mouse_12.rightButton,mouse_12.clicked_name,textbox_5.text,mouse_13.x,mouse_13.y,mouse_13.leftButton,mouse_13.midButton,mouse_13.rightButton,mouse_13.clicked_name,textbox_6.text,mouse_14.x,mouse_14.y,mouse_14.leftButton,mouse_14.midButton,mouse_14.rightButton,mouse_14.clicked_name,textbox_7.text,mouse_15.x,mouse_15.y,mouse_15.leftButton,mouse_15.midButton,mouse_15.rightButton,mouse_15.clicked_name
0,0,0,42,1,,613c7f972e67021c3fe9fd40,62bbfb34a9e1a6964bc288eb,2022-06-29_09h12.14.248,Colour_Asymmetry_Pilot,2022.1.3,Win32,30.021916,62bbe60bf3d75ef465d3e404,,,,,,,,,,,,,,,,,,,,,,,,,,,,,,,,,,,,,,,,,,,,,,,,,,,,,,,,,,,,,,,,,,,,,,,,,,,,,,,,,,,,,,,,,,,,,,,,,,,,,,,,,,,,,,,,,,,,,,,,,,,,,,,,,,,,,,,,,,,,,,,,,,,,,,,,,,,,,,
0,1,1,49,1,,613c7f972e67021c3fe9fd40,62bbfb34a9e1a6964bc288eb,2022-06-29_09h12.14.248,Colour_Asymmetry_Pilot,2022.1.3,Win32,30.021916,62bbe60bf3d75ef465d3e404,,,,,,,,,,,,,,,,,,,,,,,,,,,,,,,,,,,,,,,,,,,,,,,,,,,,,,,,,,,,,,,,,,,,,,,,,,,,,,,,,,,,,,,,,,,,,,,,,,,,,,,,,,,,,,,,,,,,,,,,,,,,,,,,,,,,,,,,,,,,,,,,,,,,,,,,,,,,,,
0,2,2,78,1,,613c7f972e67021c3fe9fd40,62bbfb34a9e1a6964bc288eb,2022-06-29_09h12.14.248,Colour_Asymmetry_Pilot,2022.1.3,Win32,30.021916,62bbe60bf3d75ef465d3e404,,,,,,,,,,,,,,,,,,,,,,,,,,,,,,,,,,,,,,,,,,,,,,,,,,,,,,,,,,,,,,,,,,,,,,,,,,,,,,,,,,,,,,,,,,,,,,,,,,,,,,,,,,,,,,,,,,,,,,,,,,,,,,,,,,,,,,,,,,,,,,,,,,,,,,,,,,,,,,
0,3,3,60,1,,613c7f972e67021c3fe9fd40,62bbfb34a9e1a6964bc288eb,2022-06-29_09h12.14.248,Colour_Asymmetry_Pilot,2022.1.3,Win32,30.021916,62bbe60bf3d75ef465d3e404,,,,,,,,,,,,,,,,,,,,,,,,,,,,,,,,,,,,,,,,,,,,,,,,,,,,,,,,,,,,,,,,,,,,,,,,,,,,,,,,,,,,,,,,,,,,,,,,,,,,,,,,,,,,,,,,,,,,,,,,,,,,,,,,,,,,,,,,,,,,,,,,,,,,,,,,,,,,,,
0,4,4,91,1,,613c7f972e67021c3fe9fd40,62bbfb34a9e1a6964bc288eb,2022-06-29_09h12.14.248,Colour_Asymmetry_Pilot,2022.1.3,Win32,30.021916,62bbe60bf3d75ef465d3e404,,,,,,,,,,,,,,,,,,,,,,,,,,,,,,,,,,,,,,,,,,,,,,,,,,,,,,,,,,,,,,,,,,,,,,,,,,,,,,,,,,,,,,,,,,,,,,,,,,,,,,,,,,,,,,,,,,,,,,,,,,,,,,,,,,,,,,,,,,,,,,,,,,,,,,,,,,,,,,
0,5,5,61,1,,613c7f972e67021c3fe9fd40,62bbfb34a9e1a6964bc288eb,2022-06-29_09h12.14.248,Colour_Asymmetry_Pilot,2022.1.3,Win32,30.021916,62bbe60bf3d75ef465d3e404,,,,,,,,,,,,,,,,,,,,,,,,,,,,,,,,,,,,,,,,,,,,,,,,,,,,,,,,,,,,,,,,,,,,,,,,,,,,,,,,,,,,,,,,,,,,,,,,,,,,,,,,,,,,,,,,,,,,,,,,,,,,,,,,,,,,,,,,,,,,,,,,,,,,,,,,,,,,,,
0,6,6,45,1,,613c7f972e67021c3fe9fd40,62bbfb34a9e1a6964bc288eb,2022-06-29_09h12.14.248,Colour_Asymmetry_Pilot,2022.1.3,Win32,30.021916,62bbe60bf3d75ef465d3e404,,,,,,,,,,,,,,,,,,,,,,,,,,,,,,,,,,,,,,,,,,,,,,,,,,,,,,,,,,,,,,,,,,,,,,,,,,,,,,,,,,,,,,,,,,,,,,,,,,,,,,,,,,,,,,,,,,,,,,,,,,,,,,,,,,,,,,,,,,,,,,,,,,,,,,,,,,,,,,
0,7,7,44,1,,613c7f972e67021c3fe9fd40,62bbfb34a9e1a6964bc288eb,2022-06-29_09h12.14.248,Colour_Asymmetry_Pilot,2022.1.3,Win32,30.021916,62bbe60bf3d75ef465d3e404,,,,,,,,,,,,,,,,,,,,,,,,,,,,,,,,,,,,,,,,,,,,,,,,,,,,,,,,,,,,,,,,,,,,,,,,,,,,,,,,,,,,,,,,,,,,,,,,,,,,,,,,,,,,,,,,,,,,,,,,,,,,,,,,,,,,,,,,,,,,,,,,,,,,,,,,,,,,,,
0,8,8,66,1,,613c7f972e67021c3fe9fd40,62bbfb34a9e1a6964bc288eb,2022-06-29_09h12.14.248,Colour_Asymmetry_Pilot,2022.1.3,Win32,30.021916,62bbe60bf3d75ef465d3e404,,,,,,,,,,,,,,,,,,,,,,,,,,,,,,,,,,,,,,,,,,,,,,,,,,,,,,,,,,,,,,,,,,,,,,,,,,,,,,,,,,,,,,,,,,,,,,,,,,,,,,,,,,,,,,,,,,,,,,,,,,,,,,,,,,,,,,,,,,,,,,,,,,,,,,,,,,,,,,
0,9,9,13,1,,613c7f972e67021c3fe9fd40,62bbfb34a9e1a6964bc288eb,2022-06-29_09h12.14.248,Colour_Asymmetry_Pilot,2022.1.3,Win32,30.021916,62bbe60bf3d75ef465d3e404,,,,,,,,,,,,,,,,,,,,,,,,,,,,,,,,,,,,,,,,,,,,,,,,,,,,,,,,,,,,,,,,,,,,,,,,,,,,,,,,,,,,,,,,,,,,,,,,,,,,,,,,,,,,,,,,,,,,,,,,,,,,,,,,,,,,,,,,,,,,,,,,,,,,,,,,,,,,,,
0,10,10,81,1,,613c7f972e67021c3fe9fd40,62bbfb34a9e1a6964bc288eb,2022-06-29_09h12.14.248,Colour_Asymmetry_Pilot,2022.1.3,Win32,30.021916,62bbe60bf3d75ef465d3e404,,,,,,,,,,,,,,,,,,,,,,,,,,,,,,,,,,,,,,,,,,,,,,,,,,,,,,,,,,,,,,,,,,,,,,,,,,,,,,,,,,,,,,,,,,,,,,,,,,,,,,,,,,,,,,,,,,,,,,,,,,,,,,,,,,,,,,,,,,,,,,,,,,,,,,,,,,,,,,
0,11,11,85,1,,613c7f972e67021c3fe9fd40,62bbfb34a9e1a6964bc288eb,2022-06-29_09h12.14.248,Colour_Asymmetry_Pilot,2022.1.3,Win32,30.021916,62bbe60bf3d75ef465d3e404,,,,,,,,,,,,,,,,,,,,,,,,,,,,,,,,,,,,,,,,,,,,,,,,,,,,,,,,,,,,,,,,,,,,,,,,,,,,,,,,,,,,,,,,,,,,,,,,,,,,,,,,,,,,,,,,,,,,,,,,,,,,,,,,,,,,,,,,,,,,,,,,,,,,,,,,,,,,,,
0,12,12,64,1,,613c7f972e67021c3fe9fd40,62bbfb34a9e1a6964bc288eb,2022-06-29_09h12.14.248,Colour_Asymmetry_Pilot,2022.1.3,Win32,30.021916,62bbe60bf3d75ef465d3e404,,,,,,,,,,,,,,,,,,,,,,,,,,,,,,,,,,,,,,,,,,,,,,,,,,,,,,,,,,,,,,,,,,,,,,,,,,,,,,,,,,,,,,,,,,,,,,,,,,,,,,,,,,,,,,,,,,,,,,,,,,,,,,,,,,,,,,,,,,,,,,,,,,,,,,,,,,,,,,
0,13,13,19,1,,613c7f972e67021c3fe9fd40,62bbfb34a9e1a6964bc288eb,2022-06-29_09h12.14.248,Colour_Asymmetry_Pilot,2022.1.3,Win32,30.021916,62bbe60bf3d75ef465d3e404,,,,,,,,,,,,,,,,,,,,,,,,,,,,,,,,,,,,,,,,,,,,,,,,,,,,,,,,,,,,,,,,,,,,,,,,,,,,,,,,,,,,,,,,,,,,,,,,,,,,,,,,,,,,,,,,,,,,,,,,,,,,,,,,,,,,,,,,,,,,,,,,,,,,,,,,,,,,,,
0,14,14,16,1,,613c7f972e67021c3fe9fd40,62bbfb34a9e1a6964bc288eb,2022-06-29_09h12.14.248,Colour_Asymmetry_Pilot,2022.1.3,Win32,30.021916,62bbe60bf3d75ef465d3e404,,,,,,,,,,,,,,,,,,,,,,,,,,,,,,,,,,,,,,,,,,,,,,,,,,,,,,,,,,,,,,,,,,,,,,,,,,,,,,,,,,,,,,,,,,,,,,,,,,,,,,,,,,,,,,,,,,,,,,,,,,,,,,,,,,,,,,,,,,,,,,,,,,,,,,,,,,,,,,
0,15,15,77,1,,613c7f972e67021c3fe9fd40,62bbfb34a9e1a6964bc288eb,2022-06-29_09h12.14.248,Colour_Asymmetry_Pilot,2022.1.3,Win32,30.021916,62bbe60bf3d75ef465d3e404,,,,,,,,,,,,,,,,,,,,,,,,,,,,,,,,,,,,,,,,,,,,,,,,,,,,,,,,,,,,,,,,,,,,,,,,,,,,,,,,,,,,,,,,,,,,,,,,,,,,,,,,,,,,,,,,,,,,,,,,,,,,,,,,,,,,,,,,,,,,,,,,,,,,,,,,,,,,,,
0,16,16,27,1,,613c7f972e67021c3fe9fd40,62bbfb34a9e1a6964bc288eb,2022-06-29_09h12.14.248,Colour_Asymmetry_Pilot,2022.1.3,Win32,30.021916,62bbe60bf3d75ef465d3e404,,,,,,,,,,,,,,,,,,,,,,,,,,,,,,,,,,,,,,,,,,,,,,,,,,,,,,,,,,,,,,,,,,,,,,,,,,,,,,,,,,,,,,,,,,,,,,,,,,,,,,,,,,,,,,,,,,,,,,,,,,,,,,,,,,,,,,,,,,,,,,,,,,,,,,,,,,,,,,
0,17,17,51,1,,613c7f972e67021c3fe9fd40,62bbfb34a9e1a6964bc288eb,2022-06-29_09h12.14.248,Colour_Asymmetry_Pilot,2022.1.3,Win32,30.021916,62bbe60bf3d75ef465d3e404,,,,,,,,,,,,,,,,,,,,,,,,,,,,,,,,,,,,,,,,,,,,,,,,,,,,,,,,,,,,,,,,,,,,,,,,,,,,,,,,,,,,,,,,,,,,,,,,,,,,,,,,,,,,,,,,,,,,,,,,,,,,,,,,,,,,,,,,,,,,,,,,,,,,,,,,,,,,,,
0,18,18,47,1,,613c7f972e67021c3fe9fd40,62bbfb34a9e1a6964bc288eb,2022-06-29_09h12.14.248,Colour_Asymmetry_Pilot,2022.1.3,Win32,30.021916,62bbe60bf3d75ef465d3e404,,,,,,,,,,,,,,,,,,,,,,,,,,,,,,,,,,,,,,,,,,,,,,,,,,,,,,,,,,,,,,,,,,,,,,,,,,,,,,,,,,,,,,,,,,,,,,,,,,,,,,,,,,,,,,,,,,,,,,,,,,,,,,,,,,,,,,,,,,,,,,,,,,,,,,,,,,,,,,
0,19,19,30,1,,613c7f972e67021c3fe9fd40,62bbfb34a9e1a6964bc288eb,2022-06-29_09h12.14.248,Colour_Asymmetry_Pilot,2022.1.3,Win32,30.021916,62bbe60bf3d75ef465d3e404,,,,,,,,,,,,,,,,,,,,,,,,,,,,,,,,,,,,,,,,,,,,,,,,,,,,,,,,,,,,,,,,,,,,,,,,,,,,,,,,,,,,,,,,,,,,,,,,,,,,,,,,,,,,,,,,,,,,,,,,,,,,,,,,,,,,,,,,,,,,,,,,,,,,,,,,,,,,,,
0,20,20,26,1,,613c7f972e67021c3fe9fd40,62bbfb34a9e1a6964bc288eb,2022-06-29_09h12.14.248,Colour_Asymmetry_Pilot,2022.1.3,Win32,30.021916,62bbe60bf3d75ef465d3e404,,,,,,,,,,,,,,,,,,,,,,,,,,,,,,,,,,,,,,,,,,,,,,,,,,,,,,,,,,,,,,,,,,,,,,,,,,,,,,,,,,,,,,,,,,,,,,,,,,,,,,,,,,,,,,,,,,,,,,,,,,,,,,,,,,,,,,,,,,,,,,,,,,,,,,,,,,,,,,
0,21,21,92,1,,613c7f972e67021c3fe9fd40,62bbfb34a9e1a6964bc288eb,2022-06-29_09h12.14.248,Colour_Asymmetry_Pilot,2022.1.3,Win32,30.021916,62bbe60bf3d75ef465d3e404,,,,,,,,,,,,,,,,,,,,,,,,,,,,,,,,,,,,,,,,,,,,,,,,,,,,,,,,,,,,,,,,,,,,,,,,,,,,,,,,,,,,,,,,,,,,,,,,,,,,,,,,,,,,,,,,,,,,,,,,,,,,,,,,,,,,,,,,,,,,,,,,,,,,,,,,,,,,,,
0,22,22,23,1,,613c7f972e67021c3fe9fd40,62bbfb34a9e1a6964bc288eb,2022-06-29_09h12.14.248,Colour_Asymmetry_Pilot,2022.1.3,Win32,30.021916,62bbe60bf3d75ef465d3e404,,,,,,,,,,,,,,,,,,,,,,,,,,,,,,,,,,,,,,,,,,,,,,,,,,,,,,,,,,,,,,,,,,,,,,,,,,,,,,,,,,,,,,,,,,,,,,,,,,,,,,,,,,,,,,,,,,,,,,,,,,,,,,,,,,,,,,,,,,,,,,,,,,,,,,,,,,,,,,
0,23,23,62,1,,613c7f972e67021c3fe9fd40,62bbfb34a9e1a6964bc288eb,2022-06-29_09h12.14.248,Colour_Asymmetry_Pilot,2022.1.3,Win32,30.021916,62bbe60bf3d75ef465d3e404,,,,,,,,,,,,,,,,,,,,,,,,,,,,,,,,,,,,,,,,,,,,,,,,,,,,,,,,,,,,,,,,,,,,,,,,,,,,,,,,,,,,,,,,,,,,,,,,,,,,,,,,,,,,,,,,,,,,,,,,,,,,,,,,,,,,,,,,,,,,,,,,,,,,,,,,,,,,,,
0,24,24,74,1,,613c7f972e67021c3fe9fd40,62bbfb34a9e1a6964bc288eb,2022-06-29_09h12.14.248,Colour_Asymmetry_Pilot,2022.1.3,Win32,30.021916,62bbe60bf3d75ef465d3e404,,,,,,,,,,,,,,,,,,,,,,,,,,,,,,,,,,,,,,,,,,,,,,,,,,,,,,,,,,,,,,,,,,,,,,,,,,,,,,,,,,,,,,,,,,,,,,,,,,,,,,,,,,,,,,,,,,,,,,,,,,,,,,,,,,,,,,,,,,,,,,,,,,,,,,,,,,,,,,
0,25,25,17,1,,613c7f972e67021c3fe9fd40,62bbfb34a9e1a6964bc288eb,2022-06-29_09h12.14.248,Colour_Asymmetry_Pilot,2022.1.3,Win32,30.021916,62bbe60bf3d75ef465d3e404,,,,,,,,,,,,,,,,,,,,,,,,,,,,,,,,,,,,,,,,,,,,,,,,,,,,,,,,,,,,,,,,,,,,,,,,,,,,,,,,,,,,,,,,,,,,,,,,,,,,,,,,,,,,,,,,,,,,,,,,,,,,,,,,,,,,,,,,,,,,,,,,,,,,,,,,,,,,,,
0,26,26,52,1,,613c7f972e67021c3fe9fd40,62bbfb34a9e1a6964bc288eb,2022-06-29_09h12.14.248,Colour_Asymmetry_Pilot,2022.1.3,Win32,30.021916,62bbe60bf3d75ef465d3e404,,,,,,,,,,,,,,,,,,,,,,,,,,,,,,,,,,,,,,,,,,,,,,,,,,,,,,,,,,,,,,,,,,,,,,,,,,,,,,,,,,,,,,,,,,,,,,,,,,,,,,,,,,,,,,,,,,,,,,,,,,,,,,,,,,,,,,,,,,,,,,,,,,,,,,,,,,,,,,
0,27,27,32,1,,613c7f972e67021c3fe9fd40,62bbfb34a9e1a6964bc288eb,2022-06-29_09h12.14.248,Colour_Asymmetry_Pilot,2022.1.3,Win32,30.021916,62bbe60bf3d75ef465d3e404,,,,,,,,,,,,,,,,,,,,,,,,,,,,,,,,,,,,,,,,,,,,,,,,,,,,,,,,,,,,,,,,,,,,,,,,,,,,,,,,,,,,,,,,,,,,,,,,,,,,,,,,,,,,,,,,,,,,,,,,,,,,,,,,,,,,,,,,,,,,,,,,,,,,,,,,,,,,,,
0,28,28,21,1,,613c7f972e67021c3fe9fd40,62bbfb34a9e1a6964bc288eb,2022-06-29_09h12.14.248,Colour_Asymmetry_Pilot,2022.1.3,Win32,30.021916,62bbe60bf3d75ef465d3e404,,,,,,,,,,,,,,,,,,,,,,,,,,,,,,,,,,,,,,,,,,,,,,,,,,,,,,,,,,,,,,,,,,,,,,,,,,,,,,,,,,,,,,,,,,,,,,,,,,,,,,,,,,,,,,,,,,,,,,,,,,,,,,,,,,,,,,,,,,,,,,,,,,,,,,,,,,,,,,
0,29,29,38,1,,613c7f972e67021c3fe9fd40,62bbfb34a9e1a6964bc288eb,2022-06-29_09h12.14.248,Colour_Asymmetry_Pilot,2022.1.3,Win32,30.021916,62bbe60bf3d75ef465d3e404,,,,,,,,,,,,,,,,,,,,,,,,,,,,,,,,,,,,,,,,,,,,,,,,,,,,,,,,,,,,,,,,,,,,,,,,,,,,,,,,,,,,,,,,,,,,,,,,,,,,,,,,,,,,,,,,,,,,,,,,,,,,,,,,,,,,,,,,,,,,,,,,,,,,,,,,,,,,,,
0,30,30,59,1,,613c7f972e67021c3fe9fd40,62bbfb34a9e1a6964bc288eb,2022-06-29_09h12.14.248,Colour_Asymmetry_Pilot,2022.1.3,Win32,30.021916,62bbe60bf3d75ef465d3e404,,,,,,,,,,,,,,,,,,,,,,,,,,,,,,,,,,,,,,,,,,,,,,,,,,,,,,,,,,,,,,,,,,,,,,,,,,,,,,,,,,,,,,,,,,,,,,,,,,,,,,,,,,,,,,,,,,,,,,,,,,,,,,,,,,,,,,,,,,,,,,,,,,,,,,,,,,,,,,
0,31,31,65,1,,613c7f972e67021c3fe9fd40,62bbfb34a9e1a6964bc288eb,2022-06-29_09h12.14.248,Colour_Asymmetry_Pilot,2022.1.3,Win32,30.021916,62bbe60bf3d75ef465d3e404,,,,,,,,,,,,,,,,,,,,,,,,,,,,,,,,,,,,,,,,,,,,,,,,,,,,,,,,,,,,,,,,,,,,,,,,,,,,,,,,,,,,,,,,,,,,,,,,,,,,,,,,,,,,,,,,,,,,,,,,,,,,,,,,,,,,,,,,,,,,,,,,,,,,,,,,,,,,,,
0,32,32,12,1,,613c7f972e67021c3fe9fd40,62bbfb34a9e1a6964bc288eb,2022-06-29_09h12.14.248,Colour_Asymmetry_Pilot,2022.1.3,Win32,30.021916,62bbe60bf3d75ef465d3e404,,,,,,,,,,,,,,,,,,,,,,,,,,,,,,,,,,,,,,,,,,,,,,,,,,,,,,,,,,,,,,,,,,,,,,,,,,,,,,,,,,,,,,,,,,,,,,,,,,,,,,,,,,,,,,,,,,,,,,,,,,,,,,,,,,,,,,,,,,,,,,,,,,,,,,,,,,,,,,
0,33,33,33,1,,613c7f972e67021c3fe9fd40,62bbfb34a9e1a6964bc288eb,2022-06-29_09h12.14.248,Colour_Asymmetry_Pilot,2022.1.3,Win32,30.021916,62bbe60bf3d75ef465d3e404,,,,,,,,,,,,,,,,,,,,,,,,,,,,,,,,,,,,,,,,,,,,,,,,,,,,,,,,,,,,,,,,,,,,,,,,,,,,,,,,,,,,,,,,,,,,,,,,,,,,,,,,,,,,,,,,,,,,,,,,,,,,,,,,,,,,,,,,,,,,,,,,,,,,,,,,,,,,,,
0,34,34,31,1,,613c7f972e67021c3fe9fd40,62bbfb34a9e1a6964bc288eb,2022-06-29_09h12.14.248,Colour_Asymmetry_Pilot,2022.1.3,Win32,30.021916,62bbe60bf3d75ef465d3e404,,,,,,,,,,,,,,,,,,,,,,,,,,,,,,,,,,,,,,,,,,,,,,,,,,,,,,,,,,,,,,,,,,,,,,,,,,,,,,,,,,,,,,,,,,,,,,,,,,,,,,,,,,,,,,,,,,,,,,,,,,,,,,,,,,,,,,,,,,,,,,,,,,,,,,,,,,,,,,
0,35,35,89,1,,613c7f972e67021c3fe9fd40,62bbfb34a9e1a6964bc288eb,2022-06-29_09h12.14.248,Colour_Asymmetry_Pilot,2022.1.3,Win32,30.021916,62bbe60bf3d75ef465d3e404,,,,,,,,,,,,,,,,,,,,,,,,,,,,,,,,,,,,,,,,,,,,,,,,,,,,,,,,,,,,,,,,,,,,,,,,,,,,,,,,,,,,,,,,,,,,,,,,,,,,,,,,,,,,,,,,,,,,,,,,,,,,,,,,,,,,,,,,,,,,,,,,,,,,,,,,,,,,,,
0,36,36,43,1,,613c7f972e67021c3fe9fd40,62bbfb34a9e1a6964bc288eb,2022-06-29_09h12.14.248,Colour_Asymmetry_Pilot,2022.1.3,Win32,30.021916,62bbe60bf3d75ef465d3e404,,,,,,,,,,,,,,,,,,,,,,,,,,,,,,,,,,,,,,,,,,,,,,,,,,,,,,,,,,,,,,,,,,,,,,,,,,,,,,,,,,,,,,,,,,,,,,,,,,,,,,,,,,,,,,,,,,,,,,,,,,,,,,,,,,,,,,,,,,,,,,,,,,,,,,,,,,,,,,
0,37,37,10,1,,613c7f972e67021c3fe9fd40,62bbfb34a9e1a6964bc288eb,2022-06-29_09h12.14.248,Colour_Asymmetry_Pilot,2022.1.3,Win32,30.021916,62bbe60bf3d75ef465d3e404,,,,,,,,,,,,,,,,,,,,,,,,,,,,,,,,,,,,,,,,,,,,,,,,,,,,,,,,,,,,,,,,,,,,,,,,,,,,,,,,,,,,,,,,,,,,,,,,,,,,,,,,,,,,,,,,,,,,,,,,,,,,,,,,,,,,,,,,,,,,,,,,,,,,,,,,,,,,,,
0,38,38,2,1,,613c7f972e67021c3fe9fd40,62bbfb34a9e1a6964bc288eb,2022-06-29_09h12.14.248,Colour_Asymmetry_Pilot,2022.1.3,Win32,30.021916,62bbe60bf3d75ef465d3e404,,,,,,,,,,,,,,,,,,,,,,,,,,,,,,,,,,,,,,,,,,,,,,,,,,,,,,,,,,,,,,,,,,,,,,,,,,,,,,,,,,,,,,,,,,,,,,,,,,,,,,,,,,,,,,,,,,,,,,,,,,,,,,,,,,,,,,,,,,,,,,,,,,,,,,,,,,,,,,
0,39,39,50,1,,613c7f972e67021c3fe9fd40,62bbfb34a9e1a6964bc288eb,2022-06-29_09h12.14.248,Colour_Asymmetry_Pilot,2022.1.3,Win32,30.021916,62bbe60bf3d75ef465d3e404,,,,,,,,,,,,,,,,,,,,,,,,,,,,,,,,,,,,,,,,,,,,,,,,,,,,,,,,,,,,,,,,,,,,,,,,,,,,,,,,,,,,,,,,,,,,,,,,,,,,,,,,,,,,,,,,,,,,,,,,,,,,,,,,,,,,,,,,,,,,,,,,,,,,,,,,,,,,,,
0,40,40,25,1,,613c7f972e67021c3fe9fd40,62bbfb34a9e1a6964bc288eb,2022-06-29_09h12.14.248,Colour_Asymmetry_Pilot,2022.1.3,Win32,30.021916,62bbe60bf3d75ef465d3e404,,,,,,,,,,,,,,,,,,,,,,,,,,,,,,,,,,,,,,,,,,,,,,,,,,,,,,,,,,,,,,,,,,,,,,,,,,,,,,,,,,,,,,,,,,,,,,,,,,,,,,,,,,,,,,,,,,,,,,,,,,,,,,,,,,,,,,,,,,,,,,,,,,,,,,,,,,,,,,
0,41,41,3,1,,613c7f972e67021c3fe9fd40,62bbfb34a9e1a6964bc288eb,2022-06-29_09h12.14.248,Colour_Asymmetry_Pilot,2022.1.3,Win32,30.021916,62bbe60bf3d75ef465d3e404,,,,,,,,,,,,,,,,,,,,,,,,,,,,,,,,,,,,,,,,,,,,,,,,,,,,,,,,,,,,,,,,,,,,,,,,,,,,,,,,,,,,,,,,,,,,,,,,,,,,,,,,,,,,,,,,,,,,,,,,,,,,,,,,,,,,,,,,,,,,,,,,,,,,,,,,,,,,,,
0,42,42,29,1,,613c7f972e67021c3fe9fd40,62bbfb34a9e1a6964bc288eb,2022-06-29_09h12.14.248,Colour_Asymmetry_Pilot,2022.1.3,Win32,30.021916,62bbe60bf3d75ef465d3e404,,,,,,,,,,,,,,,,,,,,,,,,,,,,,,,,,,,,,,,,,,,,,,,,,,,,,,,,,,,,,,,,,,,,,,,,,,,,,,,,,,,,,,,,,,,,,,,,,,,,,,,,,,,,,,,,,,,,,,,,,,,,,,,,,,,,,,,,,,,,,,,,,,,,,,,,,,,,,,
0,43,43,24,1,,613c7f972e67021c3fe9fd40,62bbfb34a9e1a6964bc288eb,2022-06-29_09h12.14.248,Colour_Asymmetry_Pilot,2022.1.3,Win32,30.021916,62bbe60bf3d75ef465d3e404,,,,,,,,,,,,,,,,,,,,,,,,,,,,,,,,,,,,,,,,,,,,,,,,,,,,,,,,,,,,,,,,,,,,,,,,,,,,,,,,,,,,,,,,,,,,,,,,,,,,,,,,,,,,,,,,,,,,,,,,,,,,,,,,,,,,,,,,,,,,,,,,,,,,,,,,,,,,,,
0,44,44,34,1,,613c7f972e67021c3fe9fd40,62bbfb34a9e1a6964bc288eb,2022-06-29_09h12.14.248,Colour_Asymmetry_Pilot,2022.1.3,Win32,30.021916,62bbe60bf3d75ef465d3e404,,,,,,,,,,,,,,,,,,,,,,,,,,,,,,,,,,,,,,,,,,,,,,,,,,,,,,,,,,,,,,,,,,,,,,,,,,,,,,,,,,,,,,,,,,,,,,,,,,,,,,,,,,,,,,,,,,,,,,,,,,,,,,,,,,,,,,,,,,,,,,,,,,,,,,,,,,,,,,
0,45,45,84,1,,613c7f972e67021c3fe9fd40,62bbfb34a9e1a6964bc288eb,2022-06-29_09h12.14.248,Colour_Asymmetry_Pilot,2022.1.3,Win32,30.021916,62bbe60bf3d75ef465d3e404,,,,,,,,,,,,,,,,,,,,,,,,,,,,,,,,,,,,,,,,,,,,,,,,,,,,,,,,,,,,,,,,,,,,,,,,,,,,,,,,,,,,,,,,,,,,,,,,,,,,,,,,,,,,,,,,,,,,,,,,,,,,,,,,,,,,,,,,,,,,,,,,,,,,,,,,,,,,,,
0,46,46,53,1,,613c7f972e67021c3fe9fd40,62bbfb34a9e1a6964bc288eb,2022-06-29_09h12.14.248,Colour_Asymmetry_Pilot,2022.1.3,Win32,30.021916,62bbe60bf3d75ef465d3e404,,,,,,,,,,,,,,,,,,,,,,,,,,,,,,,,,,,,,,,,,,,,,,,,,,,,,,,,,,,,,,,,,,,,,,,,,,,,,,,,,,,,,,,,,,,,,,,,,,,,,,,,,,,,,,,,,,,,,,,,,,,,,,,,,,,,,,,,,,,,,,,,,,,,,,,,,,,,,,
0,47,47,82,1,,613c7f972e67021c3fe9fd40,62bbfb34a9e1a6964bc288eb,2022-06-29_09h12.14.248,Colour_Asymmetry_Pilot,2022.1.3,Win32,30.021916,62bbe60bf3d75ef465d3e404,,,,,,,,,,,,,,,,,,,,,,,,,,,,,,,,,,,,,,,,,,,,,,,,,,,,,,,,,,,,,,,,,,,,,,,,,,,,,,,,,,,,,,,,,,,,,,,,,,,,,,,,,,,,,,,,,,,,,,,,,,,,,,,,,,,,,,,,,,,,,,,,,,,,,,,,,,,,,,
0,48,48,8,1,,613c7f972e67021c3fe9fd40,62bbfb34a9e1a6964bc288eb,2022-06-29_09h12.14.248,Colour_Asymmetry_Pilot,2022.1.3,Win32,30.021916,62bbe60bf3d75ef465d3e404,,,,,,,,,,,,,,,,,,,,,,,,,,,,,,,,,,,,,,,,,,,,,,,,,,,,,,,,,,,,,,,,,,,,,,,,,,,,,,,,,,,,,,,,,,,,,,,,,,,,,,,,,,,,,,,,,,,,,,,,,,,,,,,,,,,,,,,,,,,,,,,,,,,,,,,,,,,,,,
0,49,49,35,1,,613c7f972e67021c3fe9fd40,62bbfb34a9e1a6964bc288eb,2022-06-29_09h12.14.248,Colour_Asymmetry_Pilot,2022.1.3,Win32,30.021916,62bbe60bf3d75ef465d3e404,,,,,,,,,,,,,,,,,,,,,,,,,,,,,,,,,,,,,,,,,,,,,,,,,,,,,,,,,,,,,,,,,,,,,,,,,,,,,,,,,,,,,,,,,,,,,,,,,,,,,,,,,,,,,,,,,,,,,,,,,,,,,,,,,,,,,,,,,,,,,,,,,,,,,,,,,,,,,,
0,50,50,76,1,,613c7f972e67021c3fe9fd40,62bbfb34a9e1a6964bc288eb,2022-06-29_09h12.14.248,Colour_Asymmetry_Pilot,2022.1.3,Win32,30.021916,62bbe60bf3d75ef465d3e404,,,,,,,,,,,,,,,,,,,,,,,,,,,,,,,,,,,,,,,,,,,,,,,,,,,,,,,,,,,,,,,,,,,,,,,,,,,,,,,,,,,,,,,,,,,,,,,,,,,,,,,,,,,,,,,,,,,,,,,,,,,,,,,,,,,,,,,,,,,,,,,,,,,,,,,,,,,,,,
0,51,51,72,1,,613c7f972e67021c3fe9fd40,62bbfb34a9e1a6964bc288eb,2022-06-29_09h12.14.248,Colour_Asymmetry_Pilot,2022.1.3,Win32,30.021916,62bbe60bf3d75ef465d3e404,,,,,,,,,,,,,,,,,,,,,,,,,,,,,,,,,,,,,,,,,,,,,,,,,,,,,,,,,,,,,,,,,,,,,,,,,,,,,,,,,,,,,,,,,,,,,,,,,,,,,,,,,,,,,,,,,,,,,,,,,,,,,,,,,,,,,,,,,,,,,,,,,,,,,,,,,,,,,,
0,52,52,28,1,,613c7f972e67021c3fe9fd40,62bbfb34a9e1a6964bc288eb,2022-06-29_09h12.14.248,Colour_Asymmetry_Pilot,2022.1.3,Win32,30.021916,62bbe60bf3d75ef465d3e404,,,,,,,,,,,,,,,,,,,,,,,,,,,,,,,,,,,,,,,,,,,,,,,,,,,,,,,,,,,,,,,,,,,,,,,,,,,,,,,,,,,,,,,,,,,,,,,,,,,,,,,,,,,,,,,,,,,,,,,,,,,,,,,,,,,,,,,,,,,,,,,,,,,,,,,,,,,,,,
0,53,53,6,1,,613c7f972e67021c3fe9fd40,62bbfb34a9e1a6964bc288eb,2022-06-29_09h12.14.248,Colour_Asymmetry_Pilot,2022.1.3,Win32,30.021916,62bbe60bf3d75ef465d3e404,,,,,,,,,,,,,,,,,,,,,,,,,,,,,,,,,,,,,,,,,,,,,,,,,,,,,,,,,,,,,,,,,,,,,,,,,,,,,,,,,,,,,,,,,,,,,,,,,,,,,,,,,,,,,,,,,,,,,,,,,,,,,,,,,,,,,,,,,,,,,,,,,,,,,,,,,,,,,,
0,54,54,46,1,,613c7f972e67021c3fe9fd40,62bbfb34a9e1a6964bc288eb,2022-06-29_09h12.14.248,Colour_Asymmetry_Pilot,2022.1.3,Win32,30.021916,62bbe60bf3d75ef465d3e404,,,,,,,,,,,,,,,,,,,,,,,,,,,,,,,,,,,,,,,,,,,,,,,,,,,,,,,,,,,,,,,,,,,,,,,,,,,,,,,,,,,,,,,,,,,,,,,,,,,,,,,,,,,,,,,,,,,,,,,,,,,,,,,,,,,,,,,,,,,,,,,,,,,,,,,,,,,,,,
0,55,55,69,1,,613c7f972e67021c3fe9fd40,62bbfb34a9e1a6964bc288eb,2022-06-29_09h12.14.248,Colour_Asymmetry_Pilot,2022.1.3,Win32,30.021916,62bbe60bf3d75ef465d3e404,,,,,,,,,,,,,,,,,,,,,,,,,,,,,,,,,,,,,,,,,,,,,,,,,,,,,,,,,,,,,,,,,,,,,,,,,,,,,,,,,,,,,,,,,,,,,,,,,,,,,,,,,,,,,,,,,,,,,,,,,,,,,,,,,,,,,,,,,,,,,,,,,,,,,,,,,,,,,,
0,56,56,20,1,,613c7f972e67021c3fe9fd40,62bbfb34a9e1a6964bc288eb,2022-06-29_09h12.14.248,Colour_Asymmetry_Pilot,2022.1.3,Win32,30.021916,62bbe60bf3d75ef465d3e404,,,,,,,,,,,,,,,,,,,,,,,,,,,,,,,,,,,,,,,,,,,,,,,,,,,,,,,,,,,,,,,,,,,,,,,,,,,,,,,,,,,,,,,,,,,,,,,,,,,,,,,,,,,,,,,,,,,,,,,,,,,,,,,,,,,,,,,,,,,,,,,,,,,,,,,,,,,,,,
0,57,57,11,1,,613c7f972e67021c3fe9fd40,62bbfb34a9e1a6964bc288eb,2022-06-29_09h12.14.248,Colour_Asymmetry_Pilot,2022.1.3,Win32,30.021916,62bbe60bf3d75ef465d3e404,,,,,,,,,,,,,,,,,,,,,,,,,,,,,,,,,,,,,,,,,,,,,,,,,,,,,,,,,,,,,,,,,,,,,,,,,,,,,,,,,,,,,,,,,,,,,,,,,,,,,,,,,,,,,,,,,,,,,,,,,,,,,,,,,,,,,,,,,,,,,,,,,,,,,,,,,,,,,,
0,58,58,48,1,,613c7f972e67021c3fe9fd40,62bbfb34a9e1a6964bc288eb,2022-06-29_09h12.14.248,Colour_Asymmetry_Pilot,2022.1.3,Win32,30.021916,62bbe60bf3d75ef465d3e404,,,,,,,,,,,,,,,,,,,,,,,,,,,,,,,,,,,,,,,,,,,,,,,,,,,,,,,,,,,,,,,,,,,,,,,,,,,,,,,,,,,,,,,,,,,,,,,,,,,,,,,,,,,,,,,,,,,,,,,,,,,,,,,,,,,,,,,,,,,,,,,,,,,,,,,,,,,,,,
0,59,59,57,1,,613c7f972e67021c3fe9fd40,62bbfb34a9e1a6964bc288eb,2022-06-29_09h12.14.248,Colour_Asymmetry_Pilot,2022.1.3,Win32,30.021916,62bbe60bf3d75ef465d3e404,,,,,,,,,,,,,,,,,,,,,,,,,,,,,,,,,,,,,,,,,,,,,,,,,,,,,,,,,,,,,,,,,,,,,,,,,,,,,,,,,,,,,,,,,,,,,,,,,,,,,,,,,,,,,,,,,,,,,,,,,,,,,,,,,,,,,,,,,,,,,,,,,,,,,,,,,,,,,,
0,60,60,86,1,,613c7f972e67021c3fe9fd40,62bbfb34a9e1a6964bc288eb,2022-06-29_09h12.14.248,Colour_Asymmetry_Pilot,2022.1.3,Win32,30.021916,62bbe60bf3d75ef465d3e404,,,,,,,,,,,,,,,,,,,,,,,,,,,,,,,,,,,,,,,,,,,,,,,,,,,,,,,,,,,,,,,,,,,,,,,,,,,,,,,,,,,,,,,,,,,,,,,,,,,,,,,,,,,,,,,,,,,,,,,,,,,,,,,,,,,,,,,,,,,,,,,,,,,,,,,,,,,,,,
0,61,61,54,1,,613c7f972e67021c3fe9fd40,62bbfb34a9e1a6964bc288eb,2022-06-29_09h12.14.248,Colour_Asymmetry_Pilot,2022.1.3,Win32,30.021916,62bbe60bf3d75ef465d3e404,,,,,,,,,,,,,,,,,,,,,,,,,,,,,,,,,,,,,,,,,,,,,,,,,,,,,,,,,,,,,,,,,,,,,,,,,,,,,,,,,,,,,,,,,,,,,,,,,,,,,,,,,,,,,,,,,,,,,,,,,,,,,,,,,,,,,,,,,,,,,,,,,,,,,,,,,,,,,,
0,62,62,90,1,,613c7f972e67021c3fe9fd40,62bbfb34a9e1a6964bc288eb,2022-06-29_09h12.14.248,Colour_Asymmetry_Pilot,2022.1.3,Win32,30.021916,62bbe60bf3d75ef465d3e404,,,,,,,,,,,,,,,,,,,,,,,,,,,,,,,,,,,,,,,,,,,,,,,,,,,,,,,,,,,,,,,,,,,,,,,,,,,,,,,,,,,,,,,,,,,,,,,,,,,,,,,,,,,,,,,,,,,,,,,,,,,,,,,,,,,,,,,,,,,,,,,,,,,,,,,,,,,,,,
0,63,63,40,1,,613c7f972e67021c3fe9fd40,62bbfb34a9e1a6964bc288eb,2022-06-29_09h12.14.248,Colour_Asymmetry_Pilot,2022.1.3,Win32,30.021916,62bbe60bf3d75ef465d3e404,,,,,,,,,,,,,,,,,,,,,,,,,,,,,,,,,,,,,,,,,,,,,,,,,,,,,,,,,,,,,,,,,,,,,,,,,,,,,,,,,,,,,,,,,,,,,,,,,,,,,,,,,,,,,,,,,,,,,,,,,,,,,,,,,,,,,,,,,,,,,,,,,,,,,,,,,,,,,,
0,64,64,71,1,,613c7f972e67021c3fe9fd40,62bbfb34a9e1a6964bc288eb,2022-06-29_09h12.14.248,Colour_Asymmetry_Pilot,2022.1.3,Win32,30.021916,62bbe60bf3d75ef465d3e404,,,,,,,,,,,,,,,,,,,,,,,,,,,,,,,,,,,,,,,,,,,,,,,,,,,,,,,,,,,,,,,,,,,,,,,,,,,,,,,,,,,,,,,,,,,,,,,,,,,,,,,,,,,,,,,,,,,,,,,,,,,,,,,,,,,,,,,,,,,,,,,,,,,,,,,,,,,,,,
0,65,65,88,1,,613c7f972e67021c3fe9fd40,62bbfb34a9e1a6964bc288eb,2022-06-29_09h12.14.248,Colour_Asymmetry_Pilot,2022.1.3,Win32,30.021916,62bbe60bf3d75ef465d3e404,,,,,,,,,,,,,,,,,,,,,,,,,,,,,,,,,,,,,,,,,,,,,,,,,,,,,,,,,,,,,,,,,,,,,,,,,,,,,,,,,,,,,,,,,,,,,,,,,,,,,,,,,,,,,,,,,,,,,,,,,,,,,,,,,,,,,,,,,,,,,,,,,,,,,,,,,,,,,,
0,66,66,80,1,,613c7f972e67021c3fe9fd40,62bbfb34a9e1a6964bc288eb,2022-06-29_09h12.14.248,Colour_Asymmetry_Pilot,2022.1.3,Win32,30.021916,62bbe60bf3d75ef465d3e404,,,,,,,,,,,,,,,,,,,,,,,,,,,,,,,,,,,,,,,,,,,,,,,,,,,,,,,,,,,,,,,,,,,,,,,,,,,,,,,,,,,,,,,,,,,,,,,,,,,,,,,,,,,,,,,,,,,,,,,,,,,,,,,,,,,,,,,,,,,,,,,,,,,,,,,,,,,,,,
0,67,67,37,1,,613c7f972e67021c3fe9fd40,62bbfb34a9e1a6964bc288eb,2022-06-29_09h12.14.248,Colour_Asymmetry_Pilot,2022.1.3,Win32,30.021916,62bbe60bf3d75ef465d3e404,,,,,,,,,,,,,,,,,,,,,,,,,,,,,,,,,,,,,,,,,,,,,,,,,,,,,,,,,,,,,,,,,,,,,,,,,,,,,,,,,,,,,,,,,,,,,,,,,,,,,,,,,,,,,,,,,,,,,,,,,,,,,,,,,,,,,,,,,,,,,,,,,,,,,,,,,,,,,,
0,68,68,79,1,,613c7f972e67021c3fe9fd40,62bbfb34a9e1a6964bc288eb,2022-06-29_09h12.14.248,Colour_Asymmetry_Pilot,2022.1.3,Win32,30.021916,62bbe60bf3d75ef465d3e404,,,,,,,,,,,,,,,,,,,,,,,,,,,,,,,,,,,,,,,,,,,,,,,,,,,,,,,,,,,,,,,,,,,,,,,,,,,,,,,,,,,,,,,,,,,,,,,,,,,,,,,,,,,,,,,,,,,,,,,,,,,,,,,,,,,,,,,,,,,,,,,,,,,,,,,,,,,,,,
0,69,69,0,1,,613c7f972e67021c3fe9fd40,62bbfb34a9e1a6964bc288eb,2022-06-29_09h12.14.248,Colour_Asymmetry_Pilot,2022.1.3,Win32,30.021916,62bbe60bf3d75ef465d3e404,,,,,,,,,,,,,,,,,,,,,,,,,,,,,,,,,,,,,,,,,,,,,,,,,,,,,,,,,,,,,,,,,,,,,,,,,,,,,,,,,,,,,,,,,,,,,,,,,,,,,,,,,,,,,,,,,,,,,,,,,,,,,,,,,,,,,,,,,,,,,,,,,,,,,,,,,,,,,,
0,70,70,68,1,,613c7f972e67021c3fe9fd40,62bbfb34a9e1a6964bc288eb,2022-06-29_09h12.14.248,Colour_Asymmetry_Pilot,2022.1.3,Win32,30.021916,62bbe60bf3d75ef465d3e404,,,,,,,,,,,,,,,,,,,,,,,,,,,,,,,,,,,,,,,,,,,,,,,,,,,,,,,,,,,,,,,,,,,,,,,,,,,,,,,,,,,,,,,,,,,,,,,,,,,,,,,,,,,,,,,,,,,,,,,,,,,,,,,,,,,,,,,,,,,,,,,,,,,,,,,,,,,,,,
0,71,71,36,1,,613c7f972e67021c3fe9fd40,62bbfb34a9e1a6964bc288eb,2022-06-29_09h12.14.248,Colour_Asymmetry_Pilot,2022.1.3,Win32,30.021916,62bbe60bf3d75ef465d3e404,,,,,,,,,,,,,,,,,,,,,,,,,,,,,,,,,,,,,,,,,,,,,,,,,,,,,,,,,,,,,,,,,,,,,,,,,,,,,,,,,,,,,,,,,,,,,,,,,,,,,,,,,,,,,,,,,,,,,,,,,,,,,,,,,,,,,,,,,,,,,,,,,,,,,,,,,,,,,,
0,72,72,75,1,,613c7f972e67021c3fe9fd40,62bbfb34a9e1a6964bc288eb,2022-06-29_09h12.14.248,Colour_Asymmetry_Pilot,2022.1.3,Win32,30.021916,62bbe60bf3d75ef465d3e404,,,,,,,,,,,,,,,,,,,,,,,,,,,,,,,,,,,,,,,,,,,,,,,,,,,,,,,,,,,,,,,,,,,,,,,,,,,,,,,,,,,,,,,,,,,,,,,,,,,,,,,,,,,,,,,,,,,,,,,,,,,,,,,,,,,,,,,,,,,,,,,,,,,,,,,,,,,,,,
0,73,73,41,1,,613c7f972e67021c3fe9fd40,62bbfb34a9e1a6964bc288eb,2022-06-29_09h12.14.248,Colour_Asymmetry_Pilot,2022.1.3,Win32,30.021916,62bbe60bf3d75ef465d3e404,,,,,,,,,,,,,,,,,,,,,,,,,,,,,,,,,,,,,,,,,,,,,,,,,,,,,,,,,,,,,,,,,,,,,,,,,,,,,,,,,,,,,,,,,,,,,,,,,,,,,,,,,,,,,,,,,,,,,,,,,,,,,,,,,,,,,,,,,,,,,,,,,,,,,,,,,,,,,,
0,74,74,70,1,,613c7f972e67021c3fe9fd40,62bbfb34a9e1a6964bc288eb,2022-06-29_09h12.14.248,Colour_Asymmetry_Pilot,2022.1.3,Win32,30.021916,62bbe60bf3d75ef465d3e404,,,,,,,,,,,,,,,,,,,,,,,,,,,,,,,,,,,,,,,,,,,,,,,,,,,,,,,,,,,,,,,,,,,,,,,,,,,,,,,,,,,,,,,,,,,,,,,,,,,,,,,,,,,,,,,,,,,,,,,,,,,,,,,,,,,,,,,,,,,,,,,,,,,,,,,,,,,,,,
0,75,75,7,1,,613c7f972e67021c3fe9fd40,62bbfb34a9e1a6964bc288eb,2022-06-29_09h12.14.248,Colour_Asymmetry_Pilot,2022.1.3,Win32,30.021916,62bbe60bf3d75ef465d3e404,,,,,,,,,,,,,,,,,,,,,,,,,,,,,,,,,,,,,,,,,,,,,,,,,,,,,,,,,,,,,,,,,,,,,,,,,,,,,,,,,,,,,,,,,,,,,,,,,,,,,,,,,,,,,,,,,,,,,,,,,,,,,,,,,,,,,,,,,,,,,,,,,,,,,,,,,,,,,,
0,76,76,73,1,,613c7f972e67021c3fe9fd40,62bbfb34a9e1a6964bc288eb,2022-06-29_09h12.14.248,Colour_Asymmetry_Pilot,2022.1.3,Win32,30.021916,62bbe60bf3d75ef465d3e404,,,,,,,,,,,,,,,,,,,,,,,,,,,,,,,,,,,,,,,,,,,,,,,,,,,,,,,,,,,,,,,,,,,,,,,,,,,,,,,,,,,,,,,,,,,,,,,,,,,,,,,,,,,,,,,,,,,,,,,,,,,,,,,,,,,,,,,,,,,,,,,,,,,,,,,,,,,,,,
0,77,77,14,1,,613c7f972e67021c3fe9fd40,62bbfb34a9e1a6964bc288eb,2022-06-29_09h12.14.248,Colour_Asymmetry_Pilot,2022.1.3,Win32,30.021916,62bbe60bf3d75ef465d3e404,,,,,,,,,,,,,,,,,,,,,,,,,,,,,,,,,,,,,,,,,,,,,,,,,,,,,,,,,,,,,,,,,,,,,,,,,,,,,,,,,,,,,,,,,,,,,,,,,,,,,,,,,,,,,,,,,,,,,,,,,,,,,,,,,,,,,,,,,,,,,,,,,,,,,,,,,,,,,,
0,78,78,58,1,,613c7f972e67021c3fe9fd40,62bbfb34a9e1a6964bc288eb,2022-06-29_09h12.14.248,Colour_Asymmetry_Pilot,2022.1.3,Win32,30.021916,62bbe60bf3d75ef465d3e404,,,,,,,,,,,,,,,,,,,,,,,,,,,,,,,,,,,,,,,,,,,,,,,,,,,,,,,,,,,,,,,,,,,,,,,,,,,,,,,,,,,,,,,,,,,,,,,,,,,,,,,,,,,,,,,,,,,,,,,,,,,,,,,,,,,,,,,,,,,,,,,,,,,,,,,,,,,,,,
0,79,79,4,1,,613c7f972e67021c3fe9fd40,62bbfb34a9e1a6964bc288eb,2022-06-29_09h12.14.248,Colour_Asymmetry_Pilot,2022.1.3,Win32,30.021916,62bbe60bf3d75ef465d3e404,,,,,,,,,,,,,,,,,,,,,,,,,,,,,,,,,,,,,,,,,,,,,,,,,,,,,,,,,,,,,,,,,,,,,,,,,,,,,,,,,,,,,,,,,,,,,,,,,,,,,,,,,,,,,,,,,,,,,,,,,,,,,,,,,,,,,,,,,,,,,,,,,,,,,,,,,,,,,,
0,80,80,15,1,,613c7f972e67021c3fe9fd40,62bbfb34a9e1a6964bc288eb,2022-06-29_09h12.14.248,Colour_Asymmetry_Pilot,2022.1.3,Win32,30.021916,62bbe60bf3d75ef465d3e404,,,,,,,,,,,,,,,,,,,,,,,,,,,,,,,,,,,,,,,,,,,,,,,,,,,,,,,,,,,,,,,,,,,,,,,,,,,,,,,,,,,,,,,,,,,,,,,,,,,,,,,,,,,,,,,,,,,,,,,,,,,,,,,,,,,,,,,,,,,,,,,,,,,,,,,,,,,,,,
0,81,81,87,1,,613c7f972e67021c3fe9fd40,62bbfb34a9e1a6964bc288eb,2022-06-29_09h12.14.248,Colour_Asymmetry_Pilot,2022.1.3,Win32,30.021916,62bbe60bf3d75ef465d3e404,,,,,,,,,,,,,,,,,,,,,,,,,,,,,,,,,,,,,,,,,,,,,,,,,,,,,,,,,,,,,,,,,,,,,,,,,,,,,,,,,,,,,,,,,,,,,,,,,,,,,,,,,,,,,,,,,,,,,,,,,,,,,,,,,,,,,,,,,,,,,,,,,,,,,,,,,,,,,,
0,82,82,63,1,,613c7f972e67021c3fe9fd40,62bbfb34a9e1a6964bc288eb,2022-06-29_09h12.14.248,Colour_Asymmetry_Pilot,2022.1.3,Win32,30.021916,62bbe60bf3d75ef465d3e404,,,,,,,,,,,,,,,,,,,,,,,,,,,,,,,,,,,,,,,,,,,,,,,,,,,,,,,,,,,,,,,,,,,,,,,,,,,,,,,,,,,,,,,,,,,,,,,,,,,,,,,,,,,,,,,,,,,,,,,,,,,,,,,,,,,,,,,,,,,,,,,,,,,,,,,,,,,,,,
0,83,83,83,1,,613c7f972e67021c3fe9fd40,62bbfb34a9e1a6964bc288eb,2022-06-29_09h12.14.248,Colour_Asymmetry_Pilot,2022.1.3,Win32,30.021916,62bbe60bf3d75ef465d3e404,,,,,,,,,,,,,,,,,,,,,,,,,,,,,,,,,,,,,,,,,,,,,,,,,,,,,,,,,,,,,,,,,,,,,,,,,,,,,,,,,,,,,,,,,,,,,,,,,,,,,,,,,,,,,,,,,,,,,,,,,,,,,,,,,,,,,,,,,,,,,,,,,,,,,,,,,,,,,,
0,84,84,22,1,,613c7f972e67021c3fe9fd40,62bbfb34a9e1a6964bc288eb,2022-06-29_09h12.14.248,Colour_Asymmetry_Pilot,2022.1.3,Win32,30.021916,62bbe60bf3d75ef465d3e404,,,,,,,,,,,,,,,,,,,,,,,,,,,,,,,,,,,,,,,,,,,,,,,,,,,,,,,,,,,,,,,,,,,,,,,,,,,,,,,,,,,,,,,,,,,,,,,,,,,,,,,,,,,,,,,,,,,,,,,,,,,,,,,,,,,,,,,,,,,,,,,,,,,,,,,,,,,,,,
0,85,85,55,1,,613c7f972e67021c3fe9fd40,62bbfb34a9e1a6964bc288eb,2022-06-29_09h12.14.248,Colour_Asymmetry_Pilot,2022.1.3,Win32,30.021916,62bbe60bf3d75ef465d3e404,,,,,,,,,,,,,,,,,,,,,,,,,,,,,,,,,,,,,,,,,,,,,,,,,,,,,,,,,,,,,,,,,,,,,,,,,,,,,,,,,,,,,,,,,,,,,,,,,,,,,,,,,,,,,,,,,,,,,,,,,,,,,,,,,,,,,,,,,,,,,,,,,,,,,,,,,,,,,,
0,86,86,1,1,,613c7f972e67021c3fe9fd40,62bbfb34a9e1a6964bc288eb,2022-06-29_09h12.14.248,Colour_Asymmetry_Pilot,2022.1.3,Win32,30.021916,62bbe60bf3d75ef465d3e404,,,,,,,,,,,,,,,,,,,,,,,,,,,,,,,,,,,,,,,,,,,,,,,,,,,,,,,,,,,,,,,,,,,,,,,,,,,,,,,,,,,,,,,,,,,,,,,,,,,,,,,,,,,,,,,,,,,,,,,,,,,,,,,,,,,,,,,,,,,,,,,,,,,,,,,,,,,,,,
0,87,87,56,1,,613c7f972e67021c3fe9fd40,62bbfb34a9e1a6964bc288eb,2022-06-29_09h12.14.248,Colour_Asymmetry_Pilot,2022.1.3,Win32,30.021916,62bbe60bf3d75ef465d3e404,,,,,,,,,,,,,,,,,,,,,,,,,,,,,,,,,,,,,,,,,,,,,,,,,,,,,,,,,,,,,,,,,,,,,,,,,,,,,,,,,,,,,,,,,,,,,,,,,,,,,,,,,,,,,,,,,,,,,,,,,,,,,,,,,,,,,,,,,,,,,,,,,,,,,,,,,,,,,,
0,88,88,67,1,,613c7f972e67021c3fe9fd40,62bbfb34a9e1a6964bc288eb,2022-06-29_09h12.14.248,Colour_Asymmetry_Pilot,2022.1.3,Win32,30.021916,62bbe60bf3d75ef465d3e404,,,,,,,,,,,,,,,,,,,,,,,,,,,,,,,,,,,,,,,,,,,,,,,,,,,,,,,,,,,,,,,,,,,,,,,,,,,,,,,,,,,,,,,,,,,,,,,,,,,,,,,,,,,,,,,,,,,,,,,,,,,,,,,,,,,,,,,,,,,,,,,,,,,,,,,,,,,,,,
0,89,89,18,1,,613c7f972e67021c3fe9fd40,62bbfb34a9e1a6964bc288eb,2022-06-29_09h12.14.248,Colour_Asymmetry_Pilot,2022.1.3,Win32,30.021916,62bbe60bf3d75ef465d3e404,,,,,,,,,,,,,,,,,,,,,,,,,,,,,,,,,,,,,,,,,,,,,,,,,,,,,,,,,,,,,,,,,,,,,,,,,,,,,,,,,,,,,,,,,,,,,,,,,,,,,,,,,,,,,,,,,,,,,,,,,,,,,,,,,,,,,,,,,,,,,,,,,,,,,,,,,,,,,,
0,90,90,39,1,,613c7f972e67021c3fe9fd40,62bbfb34a9e1a6964bc288eb,2022-06-29_09h12.14.248,Colour_Asymmetry_Pilot,2022.1.3,Win32,30.021916,62bbe60bf3d75ef465d3e404,,,,,,,,,,,,,,,,,,,,,,,,,,,,,,,,,,,,,,,,,,,,,,,,,,,,,,,,,,,,,,,,,,,,,,,,,,,,,,,,,,,,,,,,,,,,,,,,,,,,,,,,,,,,,,,,,,,,,,,,,,,,,,,,,,,,,,,,,,,,,,,,,,,,,,,,,,,,,,
0,91,91,9,1,,613c7f972e67021c3fe9fd40,62bbfb34a9e1a6964bc288eb,2022-06-29_09h12.14.248,Colour_Asymmetry_Pilot,2022.1.3,Win32,30.021916,62bbe60bf3d75ef465d3e404,,,,,,,,,,,,,,,,,,,,,,,,,,,,,,,,,,,,,,,,,,,,,,,,,,,,,,,,,,,,,,,,,,,,,,,,,,,,,,,,,,,,,,,,,,,,,,,,,,,,,,,,,,,,,,,,,,,,,,,,,,,,,,,,,,,,,,,,,,,,,,,,,,,,,,,,,,,,,,
0,92,92,5,1,,613c7f972e67021c3fe9fd40,62bbfb34a9e1a6964bc288eb,2022-06-29_09h12.14.248,Colour_Asymmetry_Pilot,2022.1.3,Win32,30.021916,62bbe60bf3d75ef465d3e404,,,,,,,,,,,,,,,,,,,,,,,,,,,,,,,,,,,,,,,,,,,,,,,,,,,,,,,,,,,,,,,,,,,,,,,,,,,,,,,,,,,,,,,,,,,,,,,,,,,,,,,,,,,,,,,,,,,,,,,,,,,,,,,,,,,,,,,,,,,,,,,,,,,,,,,,,,,,,,
,,,,,,613c7f972e67021c3fe9fd40,62bbfb34a9e1a6964bc288eb,2022-06-29_09h12.14.248,Colour_Asymmetry_Pilot,2022.1.3,Win32,30.021916,62bbe60bf3d75ef465d3e404,0,0,0,86,1,fourtwo,,,,,,,,,,,,,,,,,,,,,,,,,,,,,,,,,,,,,,,,,,,,,,,,,,,,,,,,,,,,,,,,,,,,,,,,,,,,,,,,,,,,,,,,,,,,,,,,,,,,,,,,,,,,,,,,,,,,,,,,,,,,,,,,,,,,,,,,,,,,,,,,,,,,,,,,
,,,,,,613c7f972e67021c3fe9fd40,62bbfb34a9e1a6964bc288eb,2022-06-29_09h12.14.248,Colour_Asymmetry_Pilot,2022.1.3,Win32,30.021916,62bbe60bf3d75ef465d3e404,0,1,1,130,1,twoone,,,,,,,,,,,,,,,,,,,,,,,,,,,,,,,,,,,,,,,,,,,,,,,,,,,,,,,,,,,,,,,,,,,,,,,,,,,,,,,,,,,,,,,,,,,,,,,,,,,,,,,,,,,,,,,,,,,,,,,,,,,,,,,,,,,,,,,,,,,,,,,,,,,,,,,,
,,,,,,613c7f972e67021c3fe9fd40,62bbfb34a9e1a6964bc288eb,2022-06-29_09h12.14.248,Colour_Asymmetry_Pilot,2022.1.3,Win32,30.021916,62bbe60bf3d75ef465d3e404,0,2,2,32,1,onetwo,,,,,,,,,,,,,,,,,,,,,,,,,,,,,,,,,,,,,,,,,,,,,,,,,,,,,,,,,,,,,,,,,,,,,,,,,,,,,,,,,,,,,,,,,,,,,,,,,,,,,,,,,,,,,,,,,,,,,,,,,,,,,,,,,,,,,,,,,,,,,,,,,,,,,,,,
,,,,,,613c7f972e67021c3fe9fd40,62bbfb34a9e1a6964bc288eb,2022-06-29_09h12.14.248,Colour_Asymmetry_Pilot,2022.1.3,Win32,30.021916,62bbe60bf3d75ef465d3e404,0,3,3,63,1,fourthree,,,,,,,,,,,,,,,,,,,,,,,,,,,,,,,,,,,,,,,,,,,,,,,,,,,,,,,,,,,,,,,,,,,,,,,,,,,,,,,,,,,,,,,,,,,,,,,,,,,,,,,,,,,,,,,,,,,,,,,,,,,,,,,,,,,,,,,,,,,,,,,,,,,,,,,,
,,,,,,613c7f972e67021c3fe9fd40,62bbfb34a9e1a6964bc288eb,2022-06-29_09h12.14.248,Colour_Asymmetry_Pilot,2022.1.3,Win32,30.021916,62bbe60bf3d75ef465d3e404,0,4,4,58,1,twoone,,,,,,,,,,,,,,,,,,,,,,,,,,,,,,,,,,,,,,,,,,,,,,,,,,,,,,,,,,,,,,,,,,,,,,,,,,,,,,,,,,,,,,,,,,,,,,,,,,,,,,,,,,,,,,,,,,,,,,,,,,,,,,,,,,,,,,,,,,,,,,,,,,,,,,,,
,,,,,,613c7f972e67021c3fe9fd40,62bbfb34a9e1a6964bc288eb,2022-06-29_09h12.14.248,Colour_Asymmetry_Pilot,2022.1.3,Win32,30.021916,62bbe60bf3d75ef465d3e404,0,5,5,142,1,fourtwo,,,,,,,,,,,,,,,,,,,,,,,,,,,,,,,,,,,,,,,,,,,,,,,,,,,,,,,,,,,,,,,,,,,,,,,,,,,,,,,,,,,,,,,,,,,,,,,,,,,,,,,,,,,,,,,,,,,,,,,,,,,,,,,,,,,,,,,,,,,,,,,,,,,,,,,,
,,,,,,613c7f972e67021c3fe9fd40,62bbfb34a9e1a6964bc288eb,2022-06-29_09h12.14.248,Colour_Asymmetry_Pilot,2022.1.3,Win32,30.021916,62bbe60bf3d75ef465d3e404,0,6,6,121,1,onethree,,,,,,,,,,,,,,,,,,,,,,,,,,,,,,,,,,,,,,,,,,,,,,,,,,,,,,,,,,,,,,,,,,,,,,,,,,,,,,,,,,,,,,,,,,,,,,,,,,,,,,,,,,,,,,,,,,,,,,,,,,,,,,,,,,,,,,,,,,,,,,,,,,,,,,,,
,,,,,,613c7f972e67021c3fe9fd40,62bbfb34a9e1a6964bc288eb,2022-06-29_09h12.14.248,Colour_Asymmetry_Pilot,2022.1.3,Win32,30.021916,62bbe60bf3d75ef465d3e404,0,7,7,154,1,twoone,,,,,,,,,,,,,,,,,,,,,,,,,,,,,,,,,,,,,,,,,,,,,,,,,,,,,,,,,,,,,,,,,,,,,,,,,,,,,,,,,,,,,,,,,,,,,,,,,,,,,,,,,,,,,,,,,,,,,,,,,,,,,,,,,,,,,,,,,,,,,,,,,,,,,,,,
,,,,,,613c7f972e67021c3fe9fd40,62bbfb34a9e1a6964bc288eb,2022-06-29_09h12.14.248,Colour_Asymmetry_Pilot,2022.1.3,Win32,30.021916,62bbe60bf3d75ef465d3e404,0,8,8,79,1,fourthree,,,,,,,,,,,,,,,,,,,,,,,,,,,,,,,,,,,,,,,,,,,,,,,,,,,,,,,,,,,,,,,,,,,,,,,,,,,,,,,,,,,,,,,,,,,,,,,,,,,,,,,,,,,,,,,,,,,,,,,,,,,,,,,,,,,,,,,,,,,,,,,,,,,,,,,,
,,,,,,613c7f972e67021c3fe9fd40,62bbfb34a9e1a6964bc288eb,2022-06-29_09h12.14.248,Colour_Asymmetry_Pilot,2022.1.3,Win32,30.021916,62bbe60bf3d75ef465d3e404,0,9,9,52,1,threeone,,,,,,,,,,,,,,,,,,,,,,,,,,,,,,,,,,,,,,,,,,,,,,,,,,,,,,,,,,,,,,,,,,,,,,,,,,,,,,,,,,,,,,,,,,,,,,,,,,,,,,,,,,,,,,,,,,,,,,,,,,,,,,,,,,,,,,,,,,,,,,,,,,,,,,,,
,,,,,,613c7f972e67021c3fe9fd40,62bbfb34a9e1a6964bc288eb,2022-06-29_09h12.14.248,Colour_Asymmetry_Pilot,2022.1.3,Win32,30.021916,62bbe60bf3d75ef465d3e404,0,10,10,7,1,fourthree,,,,,,,,,,,,,,,,,,,,,,,,,,,,,,,,,,,,,,,,,,,,,,,,,,,,,,,,,,,,,,,,,,,,,,,,,,,,,,,,,,,,,,,,,,,,,,,,,,,,,,,,,,,,,,,,,,,,,,,,,,,,,,,,,,,,,,,,,,,,,,,,,,,,,,,,
,,,,,,613c7f972e67021c3fe9fd40,62bbfb34a9e1a6964bc288eb,2022-06-29_09h12.14.248,Colour_Asymmetry_Pilot,2022.1.3,Win32,30.021916,62bbe60bf3d75ef465d3e404,0,11,11,128,1,onetwo,,,,,,,,,,,,,,,,,,,,,,,,,,,,,,,,,,,,,,,,,,,,,,,,,,,,,,,,,,,,,,,,,,,,,,,,,,,,,,,,,,,,,,,,,,,,,,,,,,,,,,,,,,,,,,,,,,,,,,,,,,,,,,,,,,,,,,,,,,,,,,,,,,,,,,,,
,,,,,,613c7f972e67021c3fe9fd40,62bbfb34a9e1a6964bc288eb,2022-06-29_09h12.14.248,Colour_Asymmetry_Pilot,2022.1.3,Win32,30.021916,62bbe60bf3d75ef465d3e404,0,12,12,107,1,twofour,,,,,,,,,,,,,,,,,,,,,,,,,,,,,,,,,,,,,,,,,,,,,,,,,,,,,,,,,,,,,,,,,,,,,,,,,,,,,,,,,,,,,,,,,,,,,,,,,,,,,,,,,,,,,,,,,,,,,,,,,,,,,,,,,,,,,,,,,,,,,,,,,,,,,,,,
,,,,,,613c7f972e67021c3fe9fd40,62bbfb34a9e1a6964bc288eb,2022-06-29_09h12.14.248,Colour_Asymmetry_Pilot,2022.1.3,Win32,30.021916,62bbe60bf3d75ef465d3e404,0,13,13,151,1,fourthree,,,,,,,,,,,,,,,,,,,,,,,,,,,,,,,,,,,,,,,,,,,,,,,,,,,,,,,,,,,,,,,,,,,,,,,,,,,,,,,,,,,,,,,,,,,,,,,,,,,,,,,,,,,,,,,,,,,,,,,,,,,,,,,,,,,,,,,,,,,,,,,,,,,,,,,,
,,,,,,613c7f972e67021c3fe9fd40,62bbfb34a9e1a6964bc288eb,2022-06-29_09h12.14.248,Colour_Asymmetry_Pilot,2022.1.3,Win32,30.021916,62bbe60bf3d75ef465d3e404,0,14,14,59,1,twofour,,,,,,,,,,,,,,,,,,,,,,,,,,,,,,,,,,,,,,,,,,,,,,,,,,,,,,,,,,,,,,,,,,,,,,,,,,,,,,,,,,,,,,,,,,,,,,,,,,,,,,,,,,,,,,,,,,,,,,,,,,,,,,,,,,,,,,,,,,,,,,,,,,,,,,,,
,,,,,,613c7f972e67021c3fe9fd40,62bbfb34a9e1a6964bc288eb,2022-06-29_09h12.14.248,Colour_Asymmetry_Pilot,2022.1.3,Win32,30.021916,62bbe60bf3d75ef465d3e404,0,15,15,73,1,onethree,,,,,,,,,,,,,,,,,,,,,,,,,,,,,,,,,,,,,,,,,,,,,,,,,,,,,,,,,,,,,,,,,,,,,,,,,,,,,,,,,,,,,,,,,,,,,,,,,,,,,,,,,,,,,,,,,,,,,,,,,,,,,,,,,,,,,,,,,,,,,,,,,,,,,,,,
,,,,,,613c7f972e67021c3fe9fd40,62bbfb34a9e1a6964bc288eb,2022-06-29_09h12.14.248,Colour_Asymmetry_Pilot,2022.1.3,Win32,30.021916,62bbe60bf3d75ef465d3e404,0,16,16,22,1,fourtwo,,,,,,,,,,,,,,,,,,,,,,,,,,,,,,,,,,,,,,,,,,,,,,,,,,,,,,,,,,,,,,,,,,,,,,,,,,,,,,,,,,,,,,,,,,,,,,,,,,,,,,,,,,,,,,,,,,,,,,,,,,,,,,,,,,,,,,,,,,,,,,,,,,,,,,,,
,,,,,,613c7f972e67021c3fe9fd40,62bbfb34a9e1a6964bc288eb,2022-06-29_09h12.14.248,Colour_Asymmetry_Pilot,2022.1.3,Win32,30.021916,62bbe60bf3d75ef465d3e404,0,17,17,114,1,twoone,,,,,,,,,,,,,,,,,,,,,,,,,,,,,,,,,,,,,,,,,,,,,,,,,,,,,,,,,,,,,,,,,,,,,,,,,,,,,,,,,,,,,,,,,,,,,,,,,,,,,,,,,,,,,,,,,,,,,,,,,,,,,,,,,,,,,,,,,,,,,,,,,,,,,,,,
,,,,,,613c7f972e67021c3fe9fd40,62bbfb34a9e1a6964bc288eb,2022-06-29_09h12.14.248,Colour_Asymmetry_Pilot,2022.1.3,Win32,30.021916,62bbe60bf3d75ef465d3e404,0,18,18,46,1,fourtwo,,,,,,,,,,,,,,,,,,,,,,,,,,,,,,,,,,,,,,,,,,,,,,,,,,,,,,,,,,,,,,,,,,,,,,,,,,,,,,,,,,,,,,,,,,,,,,,,,,,,,,,,,,,,,,,,,,,,,,,,,,,,,,,,,,,,,,,,,,,,,,,,,,,,,,,,
,,,,,,613c7f972e67021c3fe9fd40,62bbfb34a9e1a6964bc288eb,2022-06-29_09h12.14.248,Colour_Asymmetry_Pilot,2022.1.3,Win32,30.021916,62bbe60bf3d75ef465d3e404,0,19,19,47,1,fourthree,,,,,,,,,,,,,,,,,,,,,,,,,,,,,,,,,,,,,,,,,,,,,,,,,,,,,,,,,,,,,,,,,,,,,,,,,,,,,,,,,,,,,,,,,,,,,,,,,,,,,,,,,,,,,,,,,,,,,,,,,,,,,,,,,,,,,,,,,,,,,,,,,,,,,,,,
,,,,,,613c7f972e67021c3fe9fd40,62bbfb34a9e1a6964bc288eb,2022-06-29_09h12.14.248,Colour_Asymmetry_Pilot,2022.1.3,Win32,30.021916,62bbe60bf3d75ef465d3e404,0,20,20,106,1,twoone,,,,,,,,,,,,,,,,,,,,,,,,,,,,,,,,,,,,,,,,,,,,,,,,,,,,,,,,,,,,,,,,,,,,,,,,,,,,,,,,,,,,,,,,,,,,,,,,,,,,,,,,,,,,,,,,,,,,,,,,,,,,,,,,,,,,,,,,,,,,,,,,,,,,,,,,
,,,,,,613c7f972e67021c3fe9fd40,62bbfb34a9e1a6964bc288eb,2022-06-29_09h12.14.248,Colour_Asymmetry_Pilot,2022.1.3,Win32,30.021916,62bbe60bf3d75ef465d3e404,0,21,21,159,1,fourthree,,,,,,,,,,,,,,,,,,,,,,,,,,,,,,,,,,,,,,,,,,,,,,,,,,,,,,,,,,,,,,,,,,,,,,,,,,,,,,,,,,,,,,,,,,,,,,,,,,,,,,,,,,,,,,,,,,,,,,,,,,,,,,,,,,,,,,,,,,,,,,,,,,,,,,,,
,,,,,,613c7f972e67021c3fe9fd40,62bbfb34a9e1a6964bc288eb,2022-06-29_09h12.14.248,Colour_Asymmetry_Pilot,2022.1.3,Win32,30.021916,62bbe60bf3d75ef465d3e404,0,22,22,95,1,fourthree,,,,,,,,,,,,,,,,,,,,,,,,,,,,,,,,,,,,,,,,,,,,,,,,,,,,,,,,,,,,,,,,,,,,,,,,,,,,,,,,,,,,,,,,,,,,,,,,,,,,,,,,,,,,,,,,,,,,,,,,,,,,,,,,,,,,,,,,,,,,,,,,,,,,,,,,
,,,,,,613c7f972e67021c3fe9fd40,62bbfb34a9e1a6964bc288eb,2022-06-29_09h12.14.248,Colour_Asymmetry_Pilot,2022.1.3,Win32,30.021916,62bbe60bf3d75ef465d3e404,0,23,23,102,1,fourtwo,,,,,,,,,,,,,,,,,,,,,,,,,,,,,,,,,,,,,,,,,,,,,,,,,,,,,,,,,,,,,,,,,,,,,,,,,,,,,,,,,,,,,,,,,,,,,,,,,,,,,,,,,,,,,,,,,,,,,,,,,,,,,,,,,,,,,,,,,,,,,,,,,,,,,,,,
,,,,,,613c7f972e67021c3fe9fd40,62bbfb34a9e1a6964bc288eb,2022-06-29_09h12.14.248,Colour_Asymmetry_Pilot,2022.1.3,Win32,30.021916,62bbe60bf3d75ef465d3e404,0,24,24,17,1,onethree,,,,,,,,,,,,,,,,,,,,,,,,,,,,,,,,,,,,,,,,,,,,,,,,,,,,,,,,,,,,,,,,,,,,,,,,,,,,,,,,,,,,,,,,,,,,,,,,,,,,,,,,,,,,,,,,,,,,,,,,,,,,,,,,,,,,,,,,,,,,,,,,,,,,,,,,
,,,,,,613c7f972e67021c3fe9fd40,62bbfb34a9e1a6964bc288eb,2022-06-29_09h12.14.248,Colour_Asymmetry_Pilot,2022.1.3,Win32,30.021916,62bbe60bf3d75ef465d3e404,0,25,25,134,1,fourtwo,,,,,,,,,,,,,,,,,,,,,,,,,,,,,,,,,,,,,,,,,,,,,,,,,,,,,,,,,,,,,,,,,,,,,,,,,,,,,,,,,,,,,,,,,,,,,,,,,,,,,,,,,,,,,,,,,,,,,,,,,,,,,,,,,,,,,,,,,,,,,,,,,,,,,,,,
,,,,,,613c7f972e67021c3fe9fd40,62bbfb34a9e1a6964bc288eb,2022-06-29_09h12.14.248,Colour_Asymmetry_Pilot,2022.1.3,Win32,30.021916,62bbe60bf3d75ef465d3e404,0,26,26,19,1,twofour,,,,,,,,,,,,,,,,,,,,,,,,,,,,,,,,,,,,,,,,,,,,,,,,,,,,,,,,,,,,,,,,,,,,,,,,,,,,,,,,,,,,,,,,,,,,,,,,,,,,,,,,,,,,,,,,,,,,,,,,,,,,,,,,,,,,,,,,,,,,,,,,,,,,,,,,
,,,,,,613c7f972e67021c3fe9fd40,62bbfb34a9e1a6964bc288eb,2022-06-29_09h12.14.248,Colour_Asymmetry_Pilot,2022.1.3,Win32,30.021916,62bbe60bf3d75ef465d3e404,0,27,27,156,1,threeone,,,,,,,,,,,,,,,,,,,,,,,,,,,,,,,,,,,,,,,,,,,,,,,,,,,,,,,,,,,,,,,,,,,,,,,,,,,,,,,,,,,,,,,,,,,,,,,,,,,,,,,,,,,,,,,,,,,,,,,,,,,,,,,,,,,,,,,,,,,,,,,,,,,,,,,,
,,,,,,613c7f972e67021c3fe9fd40,62bbfb34a9e1a6964bc288eb,2022-06-29_09h12.14.248,Colour_Asymmetry_Pilot,2022.1.3,Win32,30.021916,62bbe60bf3d75ef465d3e404,0,28,28,44,1,threeone,,,,,,,,,,,,,,,,,,,,,,,,,,,,,,,,,,,,,,,,,,,,,,,,,,,,,,,,,,,,,,,,,,,,,,,,,,,,,,,,,,,,,,,,,,,,,,,,,,,,,,,,,,,,,,,,,,,,,,,,,,,,,,,,,,,,,,,,,,,,,,,,,,,,,,,,
,,,,,,613c7f972e67021c3fe9fd40,62bbfb34a9e1a6964bc288eb,2022-06-29_09h12.14.248,Colour_Asymmetry_Pilot,2022.1.3,Win32,30.021916,62bbe60bf3d75ef465d3e404,0,29,29,13,1,threefour,,,,,,,,,,,,,,,,,,,,,,,,,,,,,,,,,,,,,,,,,,,,,,,,,,,,,,,,,,,,,,,,,,,,,,,,,,,,,,,,,,,,,,,,,,,,,,,,,,,,,,,,,,,,,,,,,,,,,,,,,,,,,,,,,,,,,,,,,,,,,,,,,,,,,,,,
,,,,,,613c7f972e67021c3fe9fd40,62bbfb34a9e1a6964bc288eb,2022-06-29_09h12.14.248,Colour_Asymmetry_Pilot,2022.1.3,Win32,30.021916,62bbe60bf3d75ef465d3e404,0,30,30,118,1,fourtwo,,,,,,,,,,,,,,,,,,,,,,,,,,,,,,,,,,,,,,,,,,,,,,,,,,,,,,,,,,,,,,,,,,,,,,,,,,,,,,,,,,,,,,,,,,,,,,,,,,,,,,,,,,,,,,,,,,,,,,,,,,,,,,,,,,,,,,,,,,,,,,,,,,,,,,,,
,,,,,,613c7f972e67021c3fe9fd40,62bbfb34a9e1a6964bc288eb,2022-06-29_09h12.14.248,Colour_Asymmetry_Pilot,2022.1.3,Win32,30.021916,62bbe60bf3d75ef465d3e404,0,31,31,48,1,onetwo,,,,,,,,,,,,,,,,,,,,,,,,,,,,,,,,,,,,,,,,,,,,,,,,,,,,,,,,,,,,,,,,,,,,,,,,,,,,,,,,,,,,,,,,,,,,,,,,,,,,,,,,,,,,,,,,,,,,,,,,,,,,,,,,,,,,,,,,,,,,,,,,,,,,,,,,
,,,,,,613c7f972e67021c3fe9fd40,62bbfb34a9e1a6964bc288eb,2022-06-29_09h12.14.248,Colour_Asymmetry_Pilot,2022.1.3,Win32,30.021916,62bbe60bf3d75ef465d3e404,0,32,32,14,1,fourtwo,,,,,,,,,,,,,,,,,,,,,,,,,,,,,,,,,,,,,,,,,,,,,,,,,,,,,,,,,,,,,,,,,,,,,,,,,,,,,,,,,,,,,,,,,,,,,,,,,,,,,,,,,,,,,,,,,,,,,,,,,,,,,,,,,,,,,,,,,,,,,,,,,,,,,,,,
,,,,,,613c7f972e67021c3fe9fd40,62bbfb34a9e1a6964bc288eb,2022-06-29_09h12.14.248,Colour_Asymmetry_Pilot,2022.1.3,Win32,30.021916,62bbe60bf3d75ef465d3e404,0,33,33,112,1,onetwo,,,,,,,,,,,,,,,,,,,,,,,,,,,,,,,,,,,,,,,,,,,,,,,,,,,,,,,,,,,,,,,,,,,,,,,,,,,,,,,,,,,,,,,,,,,,,,,,,,,,,,,,,,,,,,,,,,,,,,,,,,,,,,,,,,,,,,,,,,,,,,,,,,,,,,,,
,,,,,,613c7f972e67021c3fe9fd40,62bbfb34a9e1a6964bc288eb,2022-06-29_09h12.14.248,Colour_Asymmetry_Pilot,2022.1.3,Win32,30.021916,62bbe60bf3d75ef465d3e404,0,34,34,83,1,twofour,,,,,,,,,,,,,,,,,,,,,,,,,,,,,,,,,,,,,,,,,,,,,,,,,,,,,,,,,,,,,,,,,,,,,,,,,,,,,,,,,,,,,,,,,,,,,,,,,,,,,,,,,,,,,,,,,,,,,,,,,,,,,,,,,,,,,,,,,,,,,,,,,,,,,,,,
,,,,,,613c7f972e67021c3fe9fd40,62bbfb34a9e1a6964bc288eb,2022-06-29_09h12.14.248,Colour_Asymmetry_Pilot,2022.1.3,Win32,30.021916,62bbe60bf3d75ef465d3e404,0,35,35,124,1,threeone,,,,,,,,,,,,,,,,,,,,,,,,,,,,,,,,,,,,,,,,,,,,,,,,,,,,,,,,,,,,,,,,,,,,,,,,,,,,,,,,,,,,,,,,,,,,,,,,,,,,,,,,,,,,,,,,,,,,,,,,,,,,,,,,,,,,,,,,,,,,,,,,,,,,,,,,
,,,,,,613c7f972e67021c3fe9fd40,62bbfb34a9e1a6964bc288eb,2022-06-29_09h12.14.248,Colour_Asymmetry_Pilot,2022.1.3,Win32,30.021916,62bbe60bf3d75ef465d3e404,0,36,36,157,1,threefour,,,,,,,,,,,,,,,,,,,,,,,,,,,,,,,,,,,,,,,,,,,,,,,,,,,,,,,,,,,,,,,,,,,,,,,,,,,,,,,,,,,,,,,,,,,,,,,,,,,,,,,,,,,,,,,,,,,,,,,,,,,,,,,,,,,,,,,,,,,,,,,,,,,,,,,,
,,,,,,613c7f972e67021c3fe9fd40,62bbfb34a9e1a6964bc288eb,2022-06-29_09h12.14.248,Colour_Asymmetry_Pilot,2022.1.3,Win32,30.021916,62bbe60bf3d75ef465d3e404,0,37,37,113,1,onethree,,,,,,,,,,,,,,,,,,,,,,,,,,,,,,,,,,,,,,,,,,,,,,,,,,,,,,,,,,,,,,,,,,,,,,,,,,,,,,,,,,,,,,,,,,,,,,,,,,,,,,,,,,,,,,,,,,,,,,,,,,,,,,,,,,,,,,,,,,,,,,,,,,,,,,,,
,,,,,,613c7f972e67021c3fe9fd40,62bbfb34a9e1a6964bc288eb,2022-06-29_09h12.14.248,Colour_Asymmetry_Pilot,2022.1.3,Win32,30.021916,62bbe60bf3d75ef465d3e404,0,38,38,117,1,threefour,,,,,,,,,,,,,,,,,,,,,,,,,,,,,,,,,,,,,,,,,,,,,,,,,,,,,,,,,,,,,,,,,,,,,,,,,,,,,,,,,,,,,,,,,,,,,,,,,,,,,,,,,,,,,,,,,,,,,,,,,,,,,,,,,,,,,,,,,,,,,,,,,,,,,,,,
,,,,,,613c7f972e67021c3fe9fd40,62bbfb34a9e1a6964bc288eb,2022-06-29_09h12.14.248,Colour_Asymmetry_Pilot,2022.1.3,Win32,30.021916,62bbe60bf3d75ef465d3e404,0,39,39,68,1,threeone,,,,,,,,,,,,,,,,,,,,,,,,,,,,,,,,,,,,,,,,,,,,,,,,,,,,,,,,,,,,,,,,,,,,,,,,,,,,,,,,,,,,,,,,,,,,,,,,,,,,,,,,,,,,,,,,,,,,,,,,,,,,,,,,,,,,,,,,,,,,,,,,,,,,,,,,
,,,,,,613c7f972e67021c3fe9fd40,62bbfb34a9e1a6964bc288eb,2022-06-29_09h12.14.248,Colour_Asymmetry_Pilot,2022.1.3,Win32,30.021916,62bbe60bf3d75ef465d3e404,0,40,40,155,1,twofour,,,,,,,,,,,,,,,,,,,,,,,,,,,,,,,,,,,,,,,,,,,,,,,,,,,,,,,,,,,,,,,,,,,,,,,,,,,,,,,,,,,,,,,,,,,,,,,,,,,,,,,,,,,,,,,,,,,,,,,,,,,,,,,,,,,,,,,,,,,,,,,,,,,,,,,,
,,,,,,613c7f972e67021c3fe9fd40,62bbfb34a9e1a6964bc288eb,2022-06-29_09h12.14.248,Colour_Asymmetry_Pilot,2022.1.3,Win32,30.021916,62bbe60bf3d75ef465d3e404,0,41,41,96,1,onetwo,,,,,,,,,,,,,,,,,,,,,,,,,,,,,,,,,,,,,,,,,,,,,,,,,,,,,,,,,,,,,,,,,,,,,,,,,,,,,,,,,,,,,,,,,,,,,,,,,,,,,,,,,,,,,,,,,,,,,,,,,,,,,,,,,,,,,,,,,,,,,,,,,,,,,,,,
,,,,,,613c7f972e67021c3fe9fd40,62bbfb34a9e1a6964bc288eb,2022-06-29_09h12.14.248,Colour_Asymmetry_Pilot,2022.1.3,Win32,30.021916,62bbe60bf3d75ef465d3e404,0,42,42,0,1,onetwo,,,,,,,,,,,,,,,,,,,,,,,,,,,,,,,,,,,,,,,,,,,,,,,,,,,,,,,,,,,,,,,,,,,,,,,,,,,,,,,,,,,,,,,,,,,,,,,,,,,,,,,,,,,,,,,,,,,,,,,,,,,,,,,,,,,,,,,,,,,,,,,,,,,,,,,,
,,,,,,613c7f972e67021c3fe9fd40,62bbfb34a9e1a6964bc288eb,2022-06-29_09h12.14.248,Colour_Asymmetry_Pilot,2022.1.3,Win32,30.021916,62bbe60bf3d75ef465d3e404,0,43,43,77,1,threefour,,,,,,,,,,,,,,,,,,,,,,,,,,,,,,,,,,,,,,,,,,,,,,,,,,,,,,,,,,,,,,,,,,,,,,,,,,,,,,,,,,,,,,,,,,,,,,,,,,,,,,,,,,,,,,,,,,,,,,,,,,,,,,,,,,,,,,,,,,,,,,,,,,,,,,,,
,,,,,,613c7f972e67021c3fe9fd40,62bbfb34a9e1a6964bc288eb,2022-06-29_09h12.14.248,Colour_Asymmetry_Pilot,2022.1.3,Win32,30.021916,62bbe60bf3d75ef465d3e404,0,44,44,62,1,fourtwo,,,,,,,,,,,,,,,,,,,,,,,,,,,,,,,,,,,,,,,,,,,,,,,,,,,,,,,,,,,,,,,,,,,,,,,,,,,,,,,,,,,,,,,,,,,,,,,,,,,,,,,,,,,,,,,,,,,,,,,,,,,,,,,,,,,,,,,,,,,,,,,,,,,,,,,,
,,,,,,613c7f972e67021c3fe9fd40,62bbfb34a9e1a6964bc288eb,2022-06-29_09h12.14.248,Colour_Asymmetry_Pilot,2022.1.3,Win32,30.021916,62bbe60bf3d75ef465d3e404,0,45,45,38,1,fourtwo,,,,,,,,,,,,,,,,,,,,,,,,,,,,,,,,,,,,,,,,,,,,,,,,,,,,,,,,,,,,,,,,,,,,,,,,,,,,,,,,,,,,,,,,,,,,,,,,,,,,,,,,,,,,,,,,,,,,,,,,,,,,,,,,,,,,,,,,,,,,,,,,,,,,,,,,
,,,,,,613c7f972e67021c3fe9fd40,62bbfb34a9e1a6964bc288eb,2022-06-29_09h12.14.248,Colour_Asymmetry_Pilot,2022.1.3,Win32,30.021916,62bbe60bf3d75ef465d3e404,0,46,46,147,1,twofour,,,,,,,,,,,,,,,,,,,,,,,,,,,,,,,,,,,,,,,,,,,,,,,,,,,,,,,,,,,,,,,,,,,,,,,,,,,,,,,,,,,,,,,,,,,,,,,,,,,,,,,,,,,,,,,,,,,,,,,,,,,,,,,,,,,,,,,,,,,,,,,,,,,,,,,,
,,,,,,613c7f972e67021c3fe9fd40,62bbfb34a9e1a6964bc288eb,2022-06-29_09h12.14.248,Colour_Asymmetry_Pilot,2022.1.3,Win32,30.021916,62bbe60bf3d75ef465d3e404,0,47,47,125,1,threefour,,,,,,,,,,,,,,,,,,,,,,,,,,,,,,,,,,,,,,,,,,,,,,,,,,,,,,,,,,,,,,,,,,,,,,,,,,,,,,,,,,,,,,,,,,,,,,,,,,,,,,,,,,,,,,,,,,,,,,,,,,,,,,,,,,,,,,,,,,,,,,,,,,,,,,,,
,,,,,,613c7f972e67021c3fe9fd40,62bbfb34a9e1a6964bc288eb,2022-06-29_09h12.14.248,Colour_Asymmetry_Pilot,2022.1.3,Win32,30.021916,62bbe60bf3d75ef465d3e404,0,48,48,3,1,twofour,,,,,,,,,,,,,,,,,,,,,,,,,,,,,,,,,,,,,,,,,,,,,,,,,,,,,,,,,,,,,,,,,,,,,,,,,,,,,,,,,,,,,,,,,,,,,,,,,,,,,,,,,,,,,,,,,,,,,,,,,,,,,,,,,,,,,,,,,,,,,,,,,,,,,,,,
,,,,,,613c7f972e67021c3fe9fd40,62bbfb34a9e1a6964bc288eb,2022-06-29_09h12.14.248,Colour_Asymmetry_Pilot,2022.1.3,Win32,30.021916,62bbe60bf3d75ef465d3e404,0,49,49,141,1,threefour,,,,,,,,,,,,,,,,,,,,,,,,,,,,,,,,,,,,,,,,,,,,,,,,,,,,,,,,,,,,,,,,,,,,,,,,,,,,,,,,,,,,,,,,,,,,,,,,,,,,,,,,,,,,,,,,,,,,,,,,,,,,,,,,,,,,,,,,,,,,,,,,,,,,,,,,
,,,,,,613c7f972e67021c3fe9fd40,62bbfb34a9e1a6964bc288eb,2022-06-29_09h12.14.248,Colour_Asymmetry_Pilot,2022.1.3,Win32,30.021916,62bbe60bf3d75ef465d3e404,0,50,50,43,1,twofour,,,,,,,,,,,,,,,,,,,,,,,,,,,,,,,,,,,,,,,,,,,,,,,,,,,,,,,,,,,,,,,,,,,,,,,,,,,,,,,,,,,,,,,,,,,,,,,,,,,,,,,,,,,,,,,,,,,,,,,,,,,,,,,,,,,,,,,,,,,,,,,,,,,,,,,,
,,,,,,613c7f972e67021c3fe9fd40,62bbfb34a9e1a6964bc288eb,2022-06-29_09h12.14.248,Colour_Asymmetry_Pilot,2022.1.3,Win32,30.021916,62bbe60bf3d75ef465d3e404,0,51,51,70,1,fourtwo,,,,,,,,,,,,,,,,,,,,,,,,,,,,,,,,,,,,,,,,,,,,,,,,,,,,,,,,,,,,,,,,,,,,,,,,,,,,,,,,,,,,,,,,,,,,,,,,,,,,,,,,,,,,,,,,,,,,,,,,,,,,,,,,,,,,,,,,,,,,,,,,,,,,,,,,
,,,,,,613c7f972e67021c3fe9fd40,62bbfb34a9e1a6964bc288eb,2022-06-29_09h12.14.248,Colour_Asymmetry_Pilot,2022.1.3,Win32,30.021916,62bbe60bf3d75ef465d3e404,0,52,52,45,1,threefour,,,,,,,,,,,,,,,,,,,,,,,,,,,,,,,,,,,,,,,,,,,,,,,,,,,,,,,,,,,,,,,,,,,,,,,,,,,,,,,,,,,,,,,,,,,,,,,,,,,,,,,,,,,,,,,,,,,,,,,,,,,,,,,,,,,,,,,,,,,,,,,,,,,,,,,,
,,,,,,613c7f972e67021c3fe9fd40,62bbfb34a9e1a6964bc288eb,2022-06-29_09h12.14.248,Colour_Asymmetry_Pilot,2022.1.3,Win32,30.021916,62bbe60bf3d75ef465d3e404,0,53,53,76,1,threeone,,,,,,,,,,,,,,,,,,,,,,,,,,,,,,,,,,,,,,,,,,,,,,,,,,,,,,,,,,,,,,,,,,,,,,,,,,,,,,,,,,,,,,,,,,,,,,,,,,,,,,,,,,,,,,,,,,,,,,,,,,,,,,,,,,,,,,,,,,,,,,,,,,,,,,,,
,,,,,,613c7f972e67021c3fe9fd40,62bbfb34a9e1a6964bc288eb,2022-06-29_09h12.14.248,Colour_Asymmetry_Pilot,2022.1.3,Win32,30.021916,62bbe60bf3d75ef465d3e404,0,54,54,41,1,onethree,,,,,,,,,,,,,,,,,,,,,,,,,,,,,,,,,,,,,,,,,,,,,,,,,,,,,,,,,,,,,,,,,,,,,,,,,,,,,,,,,,,,,,,,,,,,,,,,,,,,,,,,,,,,,,,,,,,,,,,,,,,,,,,,,,,,,,,,,,,,,,,,,,,,,,,,
,,,,,,613c7f972e67021c3fe9fd40,62bbfb34a9e1a6964bc288eb,2022-06-29_09h12.14.248,Colour_Asymmetry_Pilot,2022.1.3,Win32,30.021916,62bbe60bf3d75ef465d3e404,0,55,55,135,1,fourthree,,,,,,,,,,,,,,,,,,,,,,,,,,,,,,,,,,,,,,,,,,,,,,,,,,,,,,,,,,,,,,,,,,,,,,,,,,,,,,,,,,,,,,,,,,,,,,,,,,,,,,,,,,,,,,,,,,,,,,,,,,,,,,,,,,,,,,,,,,,,,,,,,,,,,,,,
,,,,,,613c7f972e67021c3fe9fd40,62bbfb34a9e1a6964bc288eb,2022-06-29_09h12.14.248,Colour_Asymmetry_Pilot,2022.1.3,Win32,30.021916,62bbe60bf3d75ef465d3e404,0,56,56,23,1,fourthree,,,,,,,,,,,,,,,,,,,,,,,,,,,,,,,,,,,,,,,,,,,,,,,,,,,,,,,,,,,,,,,,,,,,,,,,,,,,,,,,,,,,,,,,,,,,,,,,,,,,,,,,,,,,,,,,,,,,,,,,,,,,,,,,,,,,,,,,,,,,,,,,,,,,,,,,
,,,,,,613c7f972e67021c3fe9fd40,62bbfb34a9e1a6964bc288eb,2022-06-29_09h12.14.248,Colour_Asymmetry_Pilot,2022.1.3,Win32,30.021916,62bbe60bf3d75ef465d3e404,0,57,57,136,1,onetwo,,,,,,,,,,,,,,,,,,,,,,,,,,,,,,,,,,,,,,,,,,,,,,,,,,,,,,,,,,,,,,,,,,,,,,,,,,,,,,,,,,,,,,,,,,,,,,,,,,,,,,,,,,,,,,,,,,,,,,,,,,,,,,,,,,,,,,,,,,,,,,,,,,,,,,,,
,,,,,,613c7f972e67021c3fe9fd40,62bbfb34a9e1a6964bc288eb,2022-06-29_09h12.14.248,Colour_Asymmetry_Pilot,2022.1.3,Win32,30.021916,62bbe60bf3d75ef465d3e404,0,58,58,25,1,onethree,,,,,,,,,,,,,,,,,,,,,,,,,,,,,,,,,,,,,,,,,,,,,,,,,,,,,,,,,,,,,,,,,,,,,,,,,,,,,,,,,,,,,,,,,,,,,,,,,,,,,,,,,,,,,,,,,,,,,,,,,,,,,,,,,,,,,,,,,,,,,,,,,,,,,,,,
,,,,,,613c7f972e67021c3fe9fd40,62bbfb34a9e1a6964bc288eb,2022-06-29_09h12.14.248,Colour_Asymmetry_Pilot,2022.1.3,Win32,30.021916,62bbe60bf3d75ef465d3e404,0,59,59,81,1,onethree,,,,,,,,,,,,,,,,,,,,,,,,,,,,,,,,,,,,,,,,,,,,,,,,,,,,,,,,,,,,,,,,,,,,,,,,,,,,,,,,,,,,,,,,,,,,,,,,,,,,,,,,,,,,,,,,,,,,,,,,,,,,,,,,,,,,,,,,,,,,,,,,,,,,,,,,
,,,,,,613c7f972e67021c3fe9fd40,62bbfb34a9e1a6964bc288eb,2022-06-29_09h12.14.248,Colour_Asymmetry_Pilot,2022.1.3,Win32,30.021916,62bbe60bf3d75ef465d3e404,0,60,60,12,1,threeone,,,,,,,,,,,,,,,,,,,,,,,,,,,,,,,,,,,,,,,,,,,,,,,,,,,,,,,,,,,,,,,,,,,,,,,,,,,,,,,,,,,,,,,,,,,,,,,,,,,,,,,,,,,,,,,,,,,,,,,,,,,,,,,,,,,,,,,,,,,,,,,,,,,,,,,,
,,,,,,613c7f972e67021c3fe9fd40,62bbfb34a9e1a6964bc288eb,2022-06-29_09h12.14.248,Colour_Asymmetry_Pilot,2022.1.3,Win32,30.021916,62bbe60bf3d75ef465d3e404,0,61,61,94,1,fourtwo,,,,,,,,,,,,,,,,,,,,,,,,,,,,,,,,,,,,,,,,,,,,,,,,,,,,,,,,,,,,,,,,,,,,,,,,,,,,,,,,,,,,,,,,,,,,,,,,,,,,,,,,,,,,,,,,,,,,,,,,,,,,,,,,,,,,,,,,,,,,,,,,,,,,,,,,
,,,,,,613c7f972e67021c3fe9fd40,62bbfb34a9e1a6964bc288eb,2022-06-29_09h12.14.248,Colour_Asymmetry_Pilot,2022.1.3,Win32,30.021916,62bbe60bf3d75ef465d3e404,0,62,62,56,1,onetwo,,,,,,,,,,,,,,,,,,,,,,,,,,,,,,,,,,,,,,,,,,,,,,,,,,,,,,,,,,,,,,,,,,,,,,,,,,,,,,,,,,,,,,,,,,,,,,,,,,,,,,,,,,,,,,,,,,,,,,,,,,,,,,,,,,,,,,,,,,,,,,,,,,,,,,,,
,,,,,,613c7f972e67021c3fe9fd40,62bbfb34a9e1a6964bc288eb,2022-06-29_09h12.14.248,Colour_Asymmetry_Pilot,2022.1.3,Win32,30.021916,62bbe60bf3d75ef465d3e404,0,63,63,104,1,onetwo,,,,,,,,,,,,,,,,,,,,,,,,,,,,,,,,,,,,,,,,,,,,,,,,,,,,,,,,,,,,,,,,,,,,,,,,,,,,,,,,,,,,,,,,,,,,,,,,,,,,,,,,,,,,,,,,,,,,,,,,,,,,,,,,,,,,,,,,,,,,,,,,,,,,,,,,
,,,,,,613c7f972e67021c3fe9fd40,62bbfb34a9e1a6964bc288eb,2022-06-29_09h12.14.248,Colour_Asymmetry_Pilot,2022.1.3,Win32,30.021916,62bbe60bf3d75ef465d3e404,0,64,64,57,1,onethree,,,,,,,,,,,,,,,,,,,,,,,,,,,,,,,,,,,,,,,,,,,,,,,,,,,,,,,,,,,,,,,,,,,,,,,,,,,,,,,,,,,,,,,,,,,,,,,,,,,,,,,,,,,,,,,,,,,,,,,,,,,,,,,,,,,,,,,,,,,,,,,,,,,,,,,,
,,,,,,613c7f972e67021c3fe9fd40,62bbfb34a9e1a6964bc288eb,2022-06-29_09h12.14.248,Colour_Asymmetry_Pilot,2022.1.3,Win32,30.021916,62bbe60bf3d75ef465d3e404,0,65,65,111,1,fourthree,,,,,,,,,,,,,,,,,,,,,,,,,,,,,,,,,,,,,,,,,,,,,,,,,,,,,,,,,,,,,,,,,,,,,,,,,,,,,,,,,,,,,,,,,,,,,,,,,,,,,,,,,,,,,,,,,,,,,,,,,,,,,,,,,,,,,,,,,,,,,,,,,,,,,,,,
,,,,,,613c7f972e67021c3fe9fd40,62bbfb34a9e1a6964bc288eb,2022-06-29_09h12.14.248,Colour_Asymmetry_Pilot,2022.1.3,Win32,30.021916,62bbe60bf3d75ef465d3e404,0,66,66,132,1,threeone,,,,,,,,,,,,,,,,,,,,,,,,,,,,,,,,,,,,,,,,,,,,,,,,,,,,,,,,,,,,,,,,,,,,,,,,,,,,,,,,,,,,,,,,,,,,,,,,,,,,,,,,,,,,,,,,,,,,,,,,,,,,,,,,,,,,,,,,,,,,,,,,,,,,,,,,
,,,,,,613c7f972e67021c3fe9fd40,62bbfb34a9e1a6964bc288eb,2022-06-29_09h12.14.248,Colour_Asymmetry_Pilot,2022.1.3,Win32,30.021916,62bbe60bf3d75ef465d3e404,0,67,67,74,1,twoone,,,,,,,,,,,,,,,,,,,,,,,,,,,,,,,,,,,,,,,,,,,,,,,,,,,,,,,,,,,,,,,,,,,,,,,,,,,,,,,,,,,,,,,,,,,,,,,,,,,,,,,,,,,,,,,,,,,,,,,,,,,,,,,,,,,,,,,,,,,,,,,,,,,,,,,,
,,,,,,613c7f972e67021c3fe9fd40,62bbfb34a9e1a6964bc288eb,2022-06-29_09h12.14.248,Colour_Asymmetry_Pilot,2022.1.3,Win32,30.021916,62bbe60bf3d75ef465d3e404,0,68,68,69,1,threefour,,,,,,,,,,,,,,,,,,,,,,,,,,,,,,,,,,,,,,,,,,,,,,,,,,,,,,,,,,,,,,,,,,,,,,,,,,,,,,,,,,,,,,,,,,,,,,,,,,,,,,,,,,,,,,,,,,,,,,,,,,,,,,,,,,,,,,,,,,,,,,,,,,,,,,,,
,,,,,,613c7f972e67021c3fe9fd40,62bbfb34a9e1a6964bc288eb,2022-06-29_09h12.14.248,Colour_Asymmetry_Pilot,2022.1.3,Win32,30.021916,62bbe60bf3d75ef465d3e404,0,69,69,138,1,twoone,,,,,,,,,,,,,,,,,,,,,,,,,,,,,,,,,,,,,,,,,,,,,,,,,,,,,,,,,,,,,,,,,,,,,,,,,,,,,,,,,,,,,,,,,,,,,,,,,,,,,,,,,,,,,,,,,,,,,,,,,,,,,,,,,,,,,,,,,,,,,,,,,,,,,,,,
,,,,,,613c7f972e67021c3fe9fd40,62bbfb34a9e1a6964bc288eb,2022-06-29_09h12.14.248,Colour_Asymmetry_Pilot,2022.1.3,Win32,30.021916,62bbe60bf3d75ef465d3e404,0,70,70,65,1,onethree,,,,,,,,,,,,,,,,,,,,,,,,,,,,,,,,,,,,,,,,,,,,,,,,,,,,,,,,,,,,,,,,,,,,,,,,,,,,,,,,,,,,,,,,,,,,,,,,,,,,,,,,,,,,,,,,,,,,,,,,,,,,,,,,,,,,,,,,,,,,,,,,,,,,,,,,
,,,,,,613c7f972e67021c3fe9fd40,62bbfb34a9e1a6964bc288eb,2022-06-29_09h12.14.248,Colour_Asymmetry_Pilot,2022.1.3,Win32,30.021916,62bbe60bf3d75ef465d3e404,0,71,71,11,1,twofour,,,,,,,,,,,,,,,,,,,,,,,,,,,,,,,,,,,,,,,,,,,,,,,,,,,,,,,,,,,,,,,,,,,,,,,,,,,,,,,,,,,,,,,,,,,,,,,,,,,,,,,,,,,,,,,,,,,,,,,,,,,,,,,,,,,,,,,,,,,,,,,,,,,,,,,,
,,,,,,613c7f972e67021c3fe9fd40,62bbfb34a9e1a6964bc288eb,2022-06-29_09h12.14.248,Colour_Asymmetry_Pilot,2022.1.3,Win32,30.021916,62bbe60bf3d75ef465d3e404,0,72,72,150,1,fourtwo,,,,,,,,,,,,,,,,,,,,,,,,,,,,,,,,,,,,,,,,,,,,,,,,,,,,,,,,,,,,,,,,,,,,,,,,,,,,,,,,,,,,,,,,,,,,,,,,,,,,,,,,,,,,,,,,,,,,,,,,,,,,,,,,,,,,,,,,,,,,,,,,,,,,,,,,
,,,,,,613c7f972e67021c3fe9fd40,62bbfb34a9e1a6964bc288eb,2022-06-29_09h12.14.248,Colour_Asymmetry_Pilot,2022.1.3,Win32,30.021916,62bbe60bf3d75ef465d3e404,0,73,73,127,1,fourthree,,,,,,,,,,,,,,,,,,,,,,,,,,,,,,,,,,,,,,,,,,,,,,,,,,,,,,,,,,,,,,,,,,,,,,,,,,,,,,,,,,,,,,,,,,,,,,,,,,,,,,,,,,,,,,,,,,,,,,,,,,,,,,,,,,,,,,,,,,,,,,,,,,,,,,,,
,,,,,,613c7f972e67021c3fe9fd40,62bbfb34a9e1a6964bc288eb,2022-06-29_09h12.14.248,Colour_Asymmetry_Pilot,2022.1.3,Win32,30.021916,62bbe60bf3d75ef465d3e404,0,74,74,16,1,onetwo,,,,,,,,,,,,,,,,,,,,,,,,,,,,,,,,,,,,,,,,,,,,,,,,,,,,,,,,,,,,,,,,,,,,,,,,,,,,,,,,,,,,,,,,,,,,,,,,,,,,,,,,,,,,,,,,,,,,,,,,,,,,,,,,,,,,,,,,,,,,,,,,,,,,,,,,
,,,,,,613c7f972e67021c3fe9fd40,62bbfb34a9e1a6964bc288eb,2022-06-29_09h12.14.248,Colour_Asymmetry_Pilot,2022.1.3,Win32,30.021916,62bbe60bf3d75ef465d3e404,0,75,75,99,1,twofour,,,,,,,,,,,,,,,,,,,,,,,,,,,,,,,,,,,,,,,,,,,,,,,,,,,,,,,,,,,,,,,,,,,,,,,,,,,,,,,,,,,,,,,,,,,,,,,,,,,,,,,,,,,,,,,,,,,,,,,,,,,,,,,,,,,,,,,,,,,,,,,,,,,,,,,,
,,,,,,613c7f972e67021c3fe9fd40,62bbfb34a9e1a6964bc288eb,2022-06-29_09h12.14.248,Colour_Asymmetry_Pilot,2022.1.3,Win32,30.021916,62bbe60bf3d75ef465d3e404,0,76,76,115,1,twofour,,,,,,,,,,,,,,,,,,,,,,,,,,,,,,,,,,,,,,,,,,,,,,,,,,,,,,,,,,,,,,,,,,,,,,,,,,,,,,,,,,,,,,,,,,,,,,,,,,,,,,,,,,,,,,,,,,,,,,,,,,,,,,,,,,,,,,,,,,,,,,,,,,,,,,,,
,,,,,,613c7f972e67021c3fe9fd40,62bbfb34a9e1a6964bc288eb,2022-06-29_09h12.14.248,Colour_Asymmetry_Pilot,2022.1.3,Win32,30.021916,62bbe60bf3d75ef465d3e404,0,77,77,10,1,twoone,,,,,,,,,,,,,,,,,,,,,,,,,,,,,,,,,,,,,,,,,,,,,,,,,,,,,,,,,,,,,,,,,,,,,,,,,,,,,,,,,,,,,,,,,,,,,,,,,,,,,,,,,,,,,,,,,,,,,,,,,,,,,,,,,,,,,,,,,,,,,,,,,,,,,,,,
,,,,,,613c7f972e67021c3fe9fd40,62bbfb34a9e1a6964bc288eb,2022-06-29_09h12.14.248,Colour_Asymmetry_Pilot,2022.1.3,Win32,30.021916,62bbe60bf3d75ef465d3e404,0,78,78,122,1,twoone,,,,,,,,,,,,,,,,,,,,,,,,,,,,,,,,,,,,,,,,,,,,,,,,,,,,,,,,,,,,,,,,,,,,,,,,,,,,,,,,,,,,,,,,,,,,,,,,,,,,,,,,,,,,,,,,,,,,,,,,,,,,,,,,,,,,,,,,,,,,,,,,,,,,,,,,
,,,,,,613c7f972e67021c3fe9fd40,62bbfb34a9e1a6964bc288eb,2022-06-29_09h12.14.248,Colour_Asymmetry_Pilot,2022.1.3,Win32,30.021916,62bbe60bf3d75ef465d3e404,0,79,79,33,1,onethree,,,,,,,,,,,,,,,,,,,,,,,,,,,,,,,,,,,,,,,,,,,,,,,,,,,,,,,,,,,,,,,,,,,,,,,,,,,,,,,,,,,,,,,,,,,,,,,,,,,,,,,,,,,,,,,,,,,,,,,,,,,,,,,,,,,,,,,,,,,,,,,,,,,,,,,,
,,,,,,613c7f972e67021c3fe9fd40,62bbfb34a9e1a6964bc288eb,2022-06-29_09h12.14.248,Colour_Asymmetry_Pilot,2022.1.3,Win32,30.021916,62bbe60bf3d75ef465d3e404,0,80,80,131,1,twofour,,,,,,,,,,,,,,,,,,,,,,,,,,,,,,,,,,,,,,,,,,,,,,,,,,,,,,,,,,,,,,,,,,,,,,,,,,,,,,,,,,,,,,,,,,,,,,,,,,,,,,,,,,,,,,,,,,,,,,,,,,,,,,,,,,,,,,,,,,,,,,,,,,,,,,,,
,,,,,,613c7f972e67021c3fe9fd40,62bbfb34a9e1a6964bc288eb,2022-06-29_09h12.14.248,Colour_Asymmetry_Pilot,2022.1.3,Win32,30.021916,62bbe60bf3d75ef465d3e404,0,81,81,30,1,fourtwo,,,,,,,,,,,,,,,,,,,,,,,,,,,,,,,,,,,,,,,,,,,,,,,,,,,,,,,,,,,,,,,,,,,,,,,,,,,,,,,,,,,,,,,,,,,,,,,,,,,,,,,,,,,,,,,,,,,,,,,,,,,,,,,,,,,,,,,,,,,,,,,,,,,,,,,,
,,,,,,613c7f972e67021c3fe9fd40,62bbfb34a9e1a6964bc288eb,2022-06-29_09h12.14.248,Colour_Asymmetry_Pilot,2022.1.3,Win32,30.021916,62bbe60bf3d75ef465d3e404,0,82,82,105,1,onethree,,,,,,,,,,,,,,,,,,,,,,,,,,,,,,,,,,,,,,,,,,,,,,,,,,,,,,,,,,,,,,,,,,,,,,,,,,,,,,,,,,,,,,,,,,,,,,,,,,,,,,,,,,,,,,,,,,,,,,,,,,,,,,,,,,,,,,,,,,,,,,,,,,,,,,,,
,,,,,,613c7f972e67021c3fe9fd40,62bbfb34a9e1a6964bc288eb,2022-06-29_09h12.14.248,Colour_Asymmetry_Pilot,2022.1.3,Win32,30.021916,62bbe60bf3d75ef465d3e404,0,83,83,84,1,threeone,,,,,,,,,,,,,,,,,,,,,,,,,,,,,,,,,,,,,,,,,,,,,,,,,,,,,,,,,,,,,,,,,,,,,,,,,,,,,,,,,,,,,,,,,,,,,,,,,,,,,,,,,,,,,,,,,,,,,,,,,,,,,,,,,,,,,,,,,,,,,,,,,,,,,,,,
,,,,,,613c7f972e67021c3fe9fd40,62bbfb34a9e1a6964bc288eb,2022-06-29_09h12.14.248,Colour_Asymmetry_Pilot,2022.1.3,Win32,30.021916,62bbe60bf3d75ef465d3e404,0,84,84,64,1,onetwo,,,,,,,,,,,,,,,,,,,,,,,,,,,,,,,,,,,,,,,,,,,,,,,,,,,,,,,,,,,,,,,,,,,,,,,,,,,,,,,,,,,,,,,,,,,,,,,,,,,,,,,,,,,,,,,,,,,,,,,,,,,,,,,,,,,,,,,,,,,,,,,,,,,,,,,,
,,,,,,613c7f972e67021c3fe9fd40,62bbfb34a9e1a6964bc288eb,2022-06-29_09h12.14.248,Colour_Asymmetry_Pilot,2022.1.3,Win32,30.021916,62bbe60bf3d75ef465d3e404,0,85,85,108,1,threeone,,,,,,,,,,,,,,,,,,,,,,,,,,,,,,,,,,,,,,,,,,,,,,,,,,,,,,,,,,,,,,,,,,,,,,,,,,,,,,,,,,,,,,,,,,,,,,,,,,,,,,,,,,,,,,,,,,,,,,,,,,,,,,,,,,,,,,,,,,,,,,,,,,,,,,,,
,,,,,,613c7f972e67021c3fe9fd40,62bbfb34a9e1a6964bc288eb,2022-06-29_09h12.14.248,Colour_Asymmetry_Pilot,2022.1.3,Win32,30.021916,62bbe60bf3d75ef465d3e404,0,86,86,161,1,onethree,,,,,,,,,,,,,,,,,,,,,,,,,,,,,,,,,,,,,,,,,,,,,,,,,,,,,,,,,,,,,,,,,,,,,,,,,,,,,,,,,,,,,,,,,,,,,,,,,,,,,,,,,,,,,,,,,,,,,,,,,,,,,,,,,,,,,,,,,,,,,,,,,,,,,,,,
,,,,,,613c7f972e67021c3fe9fd40,62bbfb34a9e1a6964bc288eb,2022-06-29_09h12.14.248,Colour_Asymmetry_Pilot,2022.1.3,Win32,30.021916,62bbe60bf3d75ef465d3e404,0,87,87,145,1,onethree,,,,,,,,,,,,,,,,,,,,,,,,,,,,,,,,,,,,,,,,,,,,,,,,,,,,,,,,,,,,,,,,,,,,,,,,,,,,,,,,,,,,,,,,,,,,,,,,,,,,,,,,,,,,,,,,,,,,,,,,,,,,,,,,,,,,,,,,,,,,,,,,,,,,,,,,
,,,,,,613c7f972e67021c3fe9fd40,62bbfb34a9e1a6964bc288eb,2022-06-29_09h12.14.248,Colour_Asymmetry_Pilot,2022.1.3,Win32,30.021916,62bbe60bf3d75ef465d3e404,0,88,88,31,1,fourthree,,,,,,,,,,,,,,,,,,,,,,,,,,,,,,,,,,,,,,,,,,,,,,,,,,,,,,,,,,,,,,,,,,,,,,,,,,,,,,,,,,,,,,,,,,,,,,,,,,,,,,,,,,,,,,,,,,,,,,,,,,,,,,,,,,,,,,,,,,,,,,,,,,,,,,,,
,,,,,,613c7f972e67021c3fe9fd40,62bbfb34a9e1a6964bc288eb,2022-06-29_09h12.14.248,Colour_Asymmetry_Pilot,2022.1.3,Win32,30.021916,62bbe60bf3d75ef465d3e404,0,89,89,129,1,onethree,,,,,,,,,,,,,,,,,,,,,,,,,,,,,,,,,,,,,,,,,,,,,,,,,,,,,,,,,,,,,,,,,,,,,,,,,,,,,,,,,,,,,,,,,,,,,,,,,,,,,,,,,,,,,,,,,,,,,,,,,,,,,,,,,,,,,,,,,,,,,,,,,,,,,,,,
,,,,,,613c7f972e67021c3fe9fd40,62bbfb34a9e1a6964bc288eb,2022-06-29_09h12.14.248,Colour_Asymmetry_Pilot,2022.1.3,Win32,30.021916,62bbe60bf3d75ef465d3e404,0,90,90,8,1,onetwo,,,,,,,,,,,,,,,,,,,,,,,,,,,,,,,,,,,,,,,,,,,,,,,,,,,,,,,,,,,,,,,,,,,,,,,,,,,,,,,,,,,,,,,,,,,,,,,,,,,,,,,,,,,,,,,,,,,,,,,,,,,,,,,,,,,,,,,,,,,,,,,,,,,,,,,,
,,,,,,613c7f972e67021c3fe9fd40,62bbfb34a9e1a6964bc288eb,2022-06-29_09h12.14.248,Colour_Asymmetry_Pilot,2022.1.3,Win32,30.021916,62bbe60bf3d75ef465d3e404,0,91,91,1,1,onethree,,,,,,,,,,,,,,,,,,,,,,,,,,,,,,,,,,,,,,,,,,,,,,,,,,,,,,,,,,,,,,,,,,,,,,,,,,,,,,,,,,,,,,,,,,,,,,,,,,,,,,,,,,,,,,,,,,,,,,,,,,,,,,,,,,,,,,,,,,,,,,,,,,,,,,,,
,,,,,,613c7f972e67021c3fe9fd40,62bbfb34a9e1a6964bc288eb,2022-06-29_09h12.14.248,Colour_Asymmetry_Pilot,2022.1.3,Win32,30.021916,62bbe60bf3d75ef465d3e404,0,92,92,50,1,twoone,,,,,,,,,,,,,,,,,,,,,,,,,,,,,,,,,,,,,,,,,,,,,,,,,,,,,,,,,,,,,,,,,,,,,,,,,,,,,,,,,,,,,,,,,,,,,,,,,,,,,,,,,,,,,,,,,,,,,,,,,,,,,,,,,,,,,,,,,,,,,,,,,,,,,,,,
,,,,,,613c7f972e67021c3fe9fd40,62bbfb34a9e1a6964bc288eb,2022-06-29_09h12.14.248,Colour_Asymmetry_Pilot,2022.1.3,Win32,30.021916,62bbe60bf3d75ef465d3e404,0,93,93,133,1,threefour,,,,,,,,,,,,,,,,,,,,,,,,,,,,,,,,,,,,,,,,,,,,,,,,,,,,,,,,,,,,,,,,,,,,,,,,,,,,,,,,,,,,,,,,,,,,,,,,,,,,,,,,,,,,,,,,,,,,,,,,,,,,,,,,,,,,,,,,,,,,,,,,,,,,,,,,
,,,,,,613c7f972e67021c3fe9fd40,62bbfb34a9e1a6964bc288eb,2022-06-29_09h12.14.248,Colour_Asymmetry_Pilot,2022.1.3,Win32,30.021916,62bbe60bf3d75ef465d3e404,0,94,94,18,1,twoone,,,,,,,,,,,,,,,,,,,,,,,,,,,,,,,,,,,,,,,,,,,,,,,,,,,,,,,,,,,,,,,,,,,,,,,,,,,,,,,,,,,,,,,,,,,,,,,,,,,,,,,,,,,,,,,,,,,,,,,,,,,,,,,,,,,,,,,,,,,,,,,,,,,,,,,,
,,,,,,613c7f972e67021c3fe9fd40,62bbfb34a9e1a6964bc288eb,2022-06-29_09h12.14.248,Colour_Asymmetry_Pilot,2022.1.3,Win32,30.021916,62bbe60bf3d75ef465d3e404,0,95,95,24,1,onetwo,,,,,,,,,,,,,,,,,,,,,,,,,,,,,,,,,,,,,,,,,,,,,,,,,,,,,,,,,,,,,,,,,,,,,,,,,,,,,,,,,,,,,,,,,,,,,,,,,,,,,,,,,,,,,,,,,,,,,,,,,,,,,,,,,,,,,,,,,,,,,,,,,,,,,,,,
,,,,,,613c7f972e67021c3fe9fd40,62bbfb34a9e1a6964bc288eb,2022-06-29_09h12.14.248,Colour_Asymmetry_Pilot,2022.1.3,Win32,30.021916,62bbe60bf3d75ef465d3e404,0,96,96,21,1,threefour,,,,,,,,,,,,,,,,,,,,,,,,,,,,,,,,,,,,,,,,,,,,,,,,,,,,,,,,,,,,,,,,,,,,,,,,,,,,,,,,,,,,,,,,,,,,,,,,,,,,,,,,,,,,,,,,,,,,,,,,,,,,,,,,,,,,,,,,,,,,,,,,,,,,,,,,
,,,,,,613c7f972e67021c3fe9fd40,62bbfb34a9e1a6964bc288eb,2022-06-29_09h12.14.248,Colour_Asymmetry_Pilot,2022.1.3,Win32,30.021916,62bbe60bf3d75ef465d3e404,0,97,97,160,1,onetwo,,,,,,,,,,,,,,,,,,,,,,,,,,,,,,,,,,,,,,,,,,,,,,,,,,,,,,,,,,,,,,,,,,,,,,,,,,,,,,,,,,,,,,,,,,,,,,,,,,,,,,,,,,,,,,,,,,,,,,,,,,,,,,,,,,,,,,,,,,,,,,,,,,,,,,,,
,,,,,,613c7f972e67021c3fe9fd40,62bbfb34a9e1a6964bc288eb,2022-06-29_09h12.14.248,Colour_Asymmetry_Pilot,2022.1.3,Win32,30.021916,62bbe60bf3d75ef465d3e404,0,98,98,100,1,threeone,,,,,,,,,,,,,,,,,,,,,,,,,,,,,,,,,,,,,,,,,,,,,,,,,,,,,,,,,,,,,,,,,,,,,,,,,,,,,,,,,,,,,,,,,,,,,,,,,,,,,,,,,,,,,,,,,,,,,,,,,,,,,,,,,,,,,,,,,,,,,,,,,,,,,,,,
,,,,,,613c7f972e67021c3fe9fd40,62bbfb34a9e1a6964bc288eb,2022-06-29_09h12.14.248,Colour_Asymmetry_Pilot,2022.1.3,Win32,30.021916,62bbe60bf3d75ef465d3e404,0,99,99,91,1,twofour,,,,,,,,,,,,,,,,,,,,,,,,,,,,,,,,,,,,,,,,,,,,,,,,,,,,,,,,,,,,,,,,,,,,,,,,,,,,,,,,,,,,,,,,,,,,,,,,,,,,,,,,,,,,,,,,,,,,,,,,,,,,,,,,,,,,,,,,,,,,,,,,,,,,,,,,
,,,,,,613c7f972e67021c3fe9fd40,62bbfb34a9e1a6964bc288eb,2022-06-29_09h12.14.248,Colour_Asymmetry_Pilot,2022.1.3,Win32,30.021916,62bbe60bf3d75ef465d3e404,0,100,100,39,1,fourthree,,,,,,,,,,,,,,,,,,,,,,,,,,,,,,,,,,,,,,,,,,,,,,,,,,,,,,,,,,,,,,,,,,,,,,,,,,,,,,,,,,,,,,,,,,,,,,,,,,,,,,,,,,,,,,,,,,,,,,,,,,,,,,,,,,,,,,,,,,,,,,,,,,,,,,,,
,,,,,,613c7f972e67021c3fe9fd40,62bbfb34a9e1a6964bc288eb,2022-06-29_09h12.14.248,Colour_Asymmetry_Pilot,2022.1.3,Win32,30.021916,62bbe60bf3d75ef465d3e404,0,101,101,2,1,twoone,,,,,,,,,,,,,,,,,,,,,,,,,,,,,,,,,,,,,,,,,,,,,,,,,,,,,,,,,,,,,,,,,,,,,,,,,,,,,,,,,,,,,,,,,,,,,,,,,,,,,,,,,,,,,,,,,,,,,,,,,,,,,,,,,,,,,,,,,,,,,,,,,,,,,,,,
,,,,,,613c7f972e67021c3fe9fd40,62bbfb34a9e1a6964bc288eb,2022-06-29_09h12.14.248,Colour_Asymmetry_Pilot,2022.1.3,Win32,30.021916,62bbe60bf3d75ef465d3e404,0,102,102,139,1,twofour,,,,,,,,,,,,,,,,,,,,,,,,,,,,,,,,,,,,,,,,,,,,,,,,,,,,,,,,,,,,,,,,,,,,,,,,,,,,,,,,,,,,,,,,,,,,,,,,,,,,,,,,,,,,,,,,,,,,,,,,,,,,,,,,,,,,,,,,,,,,,,,,,,,,,,,,
,,,,,,613c7f972e67021c3fe9fd40,62bbfb34a9e1a6964bc288eb,2022-06-29_09h12.14.248,Colour_Asymmetry_Pilot,2022.1.3,Win32,30.021916,62bbe60bf3d75ef465d3e404,0,103,103,98,1,twoone,,,,,,,,,,,,,,,,,,,,,,,,,,,,,,,,,,,,,,,,,,,,,,,,,,,,,,,,,,,,,,,,,,,,,,,,,,,,,,,,,,,,,,,,,,,,,,,,,,,,,,,,,,,,,,,,,,,,,,,,,,,,,,,,,,,,,,,,,,,,,,,,,,,,,,,,
,,,,,,613c7f972e67021c3fe9fd40,62bbfb34a9e1a6964bc288eb,2022-06-29_09h12.14.248,Colour_Asymmetry_Pilot,2022.1.3,Win32,30.021916,62bbe60bf3d75ef465d3e404,0,104,104,60,1,threeone,,,,,,,,,,,,,,,,,,,,,,,,,,,,,,,,,,,,,,,,,,,,,,,,,,,,,,,,,,,,,,,,,,,,,,,,,,,,,,,,,,,,,,,,,,,,,,,,,,,,,,,,,,,,,,,,,,,,,,,,,,,,,,,,,,,,,,,,,,,,,,,,,,,,,,,,
,,,,,,613c7f972e67021c3fe9fd40,62bbfb34a9e1a6964bc288eb,2022-06-29_09h12.14.248,Colour_Asymmetry_Pilot,2022.1.3,Win32,30.021916,62bbe60bf3d75ef465d3e404,0,105,105,82,1,twoone,,,,,,,,,,,,,,,,,,,,,,,,,,,,,,,,,,,,,,,,,,,,,,,,,,,,,,,,,,,,,,,,,,,,,,,,,,,,,,,,,,,,,,,,,,,,,,,,,,,,,,,,,,,,,,,,,,,,,,,,,,,,,,,,,,,,,,,,,,,,,,,,,,,,,,,,
,,,,,,613c7f972e67021c3fe9fd40,62bbfb34a9e1a6964bc288eb,2022-06-29_09h12.14.248,Colour_Asymmetry_Pilot,2022.1.3,Win32,30.021916,62bbe60bf3d75ef465d3e404,0,106,106,55,1,fourthree,,,,,,,,,,,,,,,,,,,,,,,,,,,,,,,,,,,,,,,,,,,,,,,,,,,,,,,,,,,,,,,,,,,,,,,,,,,,,,,,,,,,,,,,,,,,,,,,,,,,,,,,,,,,,,,,,,,,,,,,,,,,,,,,,,,,,,,,,,,,,,,,,,,,,,,,
,,,,,,613c7f972e67021c3fe9fd40,62bbfb34a9e1a6964bc288eb,2022-06-29_09h12.14.248,Colour_Asymmetry_Pilot,2022.1.3,Win32,30.021916,62bbe60bf3d75ef465d3e404,0,107,107,101,1,threefour,,,,,,,,,,,,,,,,,,,,,,,,,,,,,,,,,,,,,,,,,,,,,,,,,,,,,,,,,,,,,,,,,,,,,,,,,,,,,,,,,,,,,,,,,,,,,,,,,,,,,,,,,,,,,,,,,,,,,,,,,,,,,,,,,,,,,,,,,,,,,,,,,,,,,,,,
,,,,,,613c7f972e67021c3fe9fd40,62bbfb34a9e1a6964bc288eb,2022-06-29_09h12.14.248,Colour_Asymmetry_Pilot,2022.1.3,Win32,30.021916,62bbe60bf3d75ef465d3e404,0,108,108,85,1,threefour,,,,,,,,,,,,,,,,,,,,,,,,,,,,,,,,,,,,,,,,,,,,,,,,,,,,,,,,,,,,,,,,,,,,,,,,,,,,,,,,,,,,,,,,,,,,,,,,,,,,,,,,,,,,,,,,,,,,,,,,,,,,,,,,,,,,,,,,,,,,,,,,,,,,,,,,
,,,,,,613c7f972e67021c3fe9fd40,62bbfb34a9e1a6964bc288eb,2022-06-29_09h12.14.248,Colour_Asymmetry_Pilot,2022.1.3,Win32,30.021916,62bbe60bf3d75ef465d3e404,0,109,109,146,1,twoone,,,,,,,,,,,,,,,,,,,,,,,,,,,,,,,,,,,,,,,,,,,,,,,,,,,,,,,,,,,,,,,,,,,,,,,,,,,,,,,,,,,,,,,,,,,,,,,,,,,,,,,,,,,,,,,,,,,,,,,,,,,,,,,,,,,,,,,,,,,,,,,,,,,,,,,,
,,,,,,613c7f972e67021c3fe9fd40,62bbfb34a9e1a6964bc288eb,2022-06-29_09h12.14.248,Colour_Asymmetry_Pilot,2022.1.3,Win32,30.021916,62bbe60bf3d75ef465d3e404,0,110,110,49,1,onethree,,,,,,,,,,,,,,,,,,,,,,,,,,,,,,,,,,,,,,,,,,,,,,,,,,,,,,,,,,,,,,,,,,,,,,,,,,,,,,,,,,,,,,,,,,,,,,,,,,,,,,,,,,,,,,,,,,,,,,,,,,,,,,,,,,,,,,,,,,,,,,,,,,,,,,,,
,,,,,,613c7f972e67021c3fe9fd40,62bbfb34a9e1a6964bc288eb,2022-06-29_09h12.14.248,Colour_Asymmetry_Pilot,2022.1.3,Win32,30.021916,62bbe60bf3d75ef465d3e404,0,111,111,5,1,threefour,,,,,,,,,,,,,,,,,,,,,,,,,,,,,,,,,,,,,,,,,,,,,,,,,,,,,,,,,,,,,,,,,,,,,,,,,,,,,,,,,,,,,,,,,,,,,,,,,,,,,,,,,,,,,,,,,,,,,,,,,,,,,,,,,,,,,,,,,,,,,,,,,,,,,,,,
,,,,,,613c7f972e67021c3fe9fd40,62bbfb34a9e1a6964bc288eb,2022-06-29_09h12.14.248,Colour_Asymmetry_Pilot,2022.1.3,Win32,30.021916,62bbe60bf3d75ef465d3e404,0,112,112,35,1,twofour,,,,,,,,,,,,,,,,,,,,,,,,,,,,,,,,,,,,,,,,,,,,,,,,,,,,,,,,,,,,,,,,,,,,,,,,,,,,,,,,,,,,,,,,,,,,,,,,,,,,,,,,,,,,,,,,,,,,,,,,,,,,,,,,,,,,,,,,,,,,,,,,,,,,,,,,
,,,,,,613c7f972e67021c3fe9fd40,62bbfb34a9e1a6964bc288eb,2022-06-29_09h12.14.248,Colour_Asymmetry_Pilot,2022.1.3,Win32,30.021916,62bbe60bf3d75ef465d3e404,0,113,113,15,1,fourthree,,,,,,,,,,,,,,,,,,,,,,,,,,,,,,,,,,,,,,,,,,,,,,,,,,,,,,,,,,,,,,,,,,,,,,,,,,,,,,,,,,,,,,,,,,,,,,,,,,,,,,,,,,,,,,,,,,,,,,,,,,,,,,,,,,,,,,,,,,,,,,,,,,,,,,,,
,,,,,,613c7f972e67021c3fe9fd40,62bbfb34a9e1a6964bc288eb,2022-06-29_09h12.14.248,Colour_Asymmetry_Pilot,2022.1.3,Win32,30.021916,62bbe60bf3d75ef465d3e404,0,114,114,20,1,threeone,,,,,,,,,,,,,,,,,,,,,,,,,,,,,,,,,,,,,,,,,,,,,,,,,,,,,,,,,,,,,,,,,,,,,,,,,,,,,,,,,,,,,,,,,,,,,,,,,,,,,,,,,,,,,,,,,,,,,,,,,,,,,,,,,,,,,,,,,,,,,,,,,,,,,,,,
,,,,,,613c7f972e67021c3fe9fd40,62bbfb34a9e1a6964bc288eb,2022-06-29_09h12.14.248,Colour_Asymmetry_Pilot,2022.1.3,Win32,30.021916,62bbe60bf3d75ef465d3e404,0,115,115,75,1,twofour,,,,,,,,,,,,,,,,,,,,,,,,,,,,,,,,,,,,,,,,,,,,,,,,,,,,,,,,,,,,,,,,,,,,,,,,,,,,,,,,,,,,,,,,,,,,,,,,,,,,,,,,,,,,,,,,,,,,,,,,,,,,,,,,,,,,,,,,,,,,,,,,,,,,,,,,
,,,,,,613c7f972e67021c3fe9fd40,62bbfb34a9e1a6964bc288eb,2022-06-29_09h12.14.248,Colour_Asymmetry_Pilot,2022.1.3,Win32,30.021916,62bbe60bf3d75ef465d3e404,0,116,116,53,1,threefour,,,,,,,,,,,,,,,,,,,,,,,,,,,,,,,,,,,,,,,,,,,,,,,,,,,,,,,,,,,,,,,,,,,,,,,,,,,,,,,,,,,,,,,,,,,,,,,,,,,,,,,,,,,,,,,,,,,,,,,,,,,,,,,,,,,,,,,,,,,,,,,,,,,,,,,,
,,,,,,613c7f972e67021c3fe9fd40,62bbfb34a9e1a6964bc288eb,2022-06-29_09h12.14.248,Colour_Asymmetry_Pilot,2022.1.3,Win32,30.021916,62bbe60bf3d75ef465d3e404,0,117,117,140,1,threeone,,,,,,,,,,,,,,,,,,,,,,,,,,,,,,,,,,,,,,,,,,,,,,,,,,,,,,,,,,,,,,,,,,,,,,,,,,,,,,,,,,,,,,,,,,,,,,,,,,,,,,,,,,,,,,,,,,,,,,,,,,,,,,,,,,,,,,,,,,,,,,,,,,,,,,,,
,,,,,,613c7f972e67021c3fe9fd40,62bbfb34a9e1a6964bc288eb,2022-06-29_09h12.14.248,Colour_Asymmetry_Pilot,2022.1.3,Win32,30.021916,62bbe60bf3d75ef465d3e404,0,118,118,61,1,threefour,,,,,,,,,,,,,,,,,,,,,,,,,,,,,,,,,,,,,,,,,,,,,,,,,,,,,,,,,,,,,,,,,,,,,,,,,,,,,,,,,,,,,,,,,,,,,,,,,,,,,,,,,,,,,,,,,,,,,,,,,,,,,,,,,,,,,,,,,,,,,,,,,,,,,,,,
,,,,,,613c7f972e67021c3fe9fd40,62bbfb34a9e1a6964bc288eb,2022-06-29_09h12.14.248,Colour_Asymmetry_Pilot,2022.1.3,Win32,30.021916,62bbe60bf3d75ef465d3e404,0,119,119,90,1,twoone,,,,,,,,,,,,,,,,,,,,,,,,,,,,,,,,,,,,,,,,,,,,,,,,,,,,,,,,,,,,,,,,,,,,,,,,,,,,,,,,,,,,,,,,,,,,,,,,,,,,,,,,,,,,,,,,,,,,,,,,,,,,,,,,,,,,,,,,,,,,,,,,,,,,,,,,
,,,,,,613c7f972e67021c3fe9fd40,62bbfb34a9e1a6964bc288eb,2022-06-29_09h12.14.248,Colour_Asymmetry_Pilot,2022.1.3,Win32,30.021916,62bbe60bf3d75ef465d3e404,0,120,120,67,1,twofour,,,,,,,,,,,,,,,,,,,,,,,,,,,,,,,,,,,,,,,,,,,,,,,,,,,,,,,,,,,,,,,,,,,,,,,,,,,,,,,,,,,,,,,,,,,,,,,,,,,,,,,,,,,,,,,,,,,,,,,,,,,,,,,,,,,,,,,,,,,,,,,,,,,,,,,,
,,,,,,613c7f972e67021c3fe9fd40,62bbfb34a9e1a6964bc288eb,2022-06-29_09h12.14.248,Colour_Asymmetry_Pilot,2022.1.3,Win32,30.021916,62bbe60bf3d75ef465d3e404,0,121,121,37,1,threefour,,,,,,,,,,,,,,,,,,,,,,,,,,,,,,,,,,,,,,,,,,,,,,,,,,,,,,,,,,,,,,,,,,,,,,,,,,,,,,,,,,,,,,,,,,,,,,,,,,,,,,,,,,,,,,,,,,,,,,,,,,,,,,,,,,,,,,,,,,,,,,,,,,,,,,,,
,,,,,,613c7f972e67021c3fe9fd40,62bbfb34a9e1a6964bc288eb,2022-06-29_09h12.14.248,Colour_Asymmetry_Pilot,2022.1.3,Win32,30.021916,62bbe60bf3d75ef465d3e404,0,122,122,34,1,twoone,,,,,,,,,,,,,,,,,,,,,,,,,,,,,,,,,,,,,,,,,,,,,,,,,,,,,,,,,,,,,,,,,,,,,,,,,,,,,,,,,,,,,,,,,,,,,,,,,,,,,,,,,,,,,,,,,,,,,,,,,,,,,,,,,,,,,,,,,,,,,,,,,,,,,,,,
,,,,,,613c7f972e67021c3fe9fd40,62bbfb34a9e1a6964bc288eb,2022-06-29_09h12.14.248,Colour_Asymmetry_Pilot,2022.1.3,Win32,30.021916,62bbe60bf3d75ef465d3e404,0,123,123,87,1,fourthree,,,,,,,,,,,,,,,,,,,,,,,,,,,,,,,,,,,,,,,,,,,,,,,,,,,,,,,,,,,,,,,,,,,,,,,,,,,,,,,,,,,,,,,,,,,,,,,,,,,,,,,,,,,,,,,,,,,,,,,,,,,,,,,,,,,,,,,,,,,,,,,,,,,,,,,,
,,,,,,613c7f972e67021c3fe9fd40,62bbfb34a9e1a6964bc288eb,2022-06-29_09h12.14.248,Colour_Asymmetry_Pilot,2022.1.3,Win32,30.021916,62bbe60bf3d75ef465d3e404,0,124,124,152,1,onetwo,,,,,,,,,,,,,,,,,,,,,,,,,,,,,,,,,,,,,,,,,,,,,,,,,,,,,,,,,,,,,,,,,,,,,,,,,,,,,,,,,,,,,,,,,,,,,,,,,,,,,,,,,,,,,,,,,,,,,,,,,,,,,,,,,,,,,,,,,,,,,,,,,,,,,,,,
,,,,,,613c7f972e67021c3fe9fd40,62bbfb34a9e1a6964bc288eb,2022-06-29_09h12.14.248,Colour_Asymmetry_Pilot,2022.1.3,Win32,30.021916,62bbe60bf3d75ef465d3e404,0,125,125,153,1,onethree,,,,,,,,,,,,,,,,,,,,,,,,,,,,,,,,,,,,,,,,,,,,,,,,,,,,,,,,,,,,,,,,,,,,,,,,,,,,,,,,,,,,,,,,,,,,,,,,,,,,,,,,,,,,,,,,,,,,,,,,,,,,,,,,,,,,,,,,,,,,,,,,,,,,,,,,
,,,,,,613c7f972e67021c3fe9fd40,62bbfb34a9e1a6964bc288eb,2022-06-29_09h12.14.248,Colour_Asymmetry_Pilot,2022.1.3,Win32,30.021916,62bbe60bf3d75ef465d3e404,0,126,126,158,1,fourtwo,,,,,,,,,,,,,,,,,,,,,,,,,,,,,,,,,,,,,,,,,,,,,,,,,,,,,,,,,,,,,,,,,,,,,,,,,,,,,,,,,,,,,,,,,,,,,,,,,,,,,,,,,,,,,,,,,,,,,,,,,,,,,,,,,,,,,,,,,,,,,,,,,,,,,,,,
,,,,,,613c7f972e67021c3fe9fd40,62bbfb34a9e1a6964bc288eb,2022-06-29_09h12.14.248,Colour_Asymmetry_Pilot,2022.1.3,Win32,30.021916,62bbe60bf3d75ef465d3e404,0,127,127,27,1,twofour,,,,,,,,,,,,,,,,,,,,,,,,,,,,,,,,,,,,,,,,,,,,,,,,,,,,,,,,,,,,,,,,,,,,,,,,,,,,,,,,,,,,,,,,,,,,,,,,,,,,,,,,,,,,,,,,,,,,,,,,,,,,,,,,,,,,,,,,,,,,,,,,,,,,,,,,
,,,,,,613c7f972e67021c3fe9fd40,62bbfb34a9e1a6964bc288eb,2022-06-29_09h12.14.248,Colour_Asymmetry_Pilot,2022.1.3,Win32,30.021916,62bbe60bf3d75ef465d3e404,0,128,128,88,1,onetwo,,,,,,,,,,,,,,,,,,,,,,,,,,,,,,,,,,,,,,,,,,,,,,,,,,,,,,,,,,,,,,,,,,,,,,,,,,,,,,,,,,,,,,,,,,,,,,,,,,,,,,,,,,,,,,,,,,,,,,,,,,,,,,,,,,,,,,,,,,,,,,,,,,,,,,,,
,,,,,,613c7f972e67021c3fe9fd40,62bbfb34a9e1a6964bc288eb,2022-06-29_09h12.14.248,Colour_Asymmetry_Pilot,2022.1.3,Win32,30.021916,62bbe60bf3d75ef465d3e404,0,129,129,148,1,threeone,,,,,,,,,,,,,,,,,,,,,,,,,,,,,,,,,,,,,,,,,,,,,,,,,,,,,,,,,,,,,,,,,,,,,,,,,,,,,,,,,,,,,,,,,,,,,,,,,,,,,,,,,,,,,,,,,,,,,,,,,,,,,,,,,,,,,,,,,,,,,,,,,,,,,,,,
,,,,,,613c7f972e67021c3fe9fd40,62bbfb34a9e1a6964bc288eb,2022-06-29_09h12.14.248,Colour_Asymmetry_Pilot,2022.1.3,Win32,30.021916,62bbe60bf3d75ef465d3e404,0,130,130,103,1,fourthree,,,,,,,,,,,,,,,,,,,,,,,,,,,,,,,,,,,,,,,,,,,,,,,,,,,,,,,,,,,,,,,,,,,,,,,,,,,,,,,,,,,,,,,,,,,,,,,,,,,,,,,,,,,,,,,,,,,,,,,,,,,,,,,,,,,,,,,,,,,,,,,,,,,,,,,,
,,,,,,613c7f972e67021c3fe9fd40,62bbfb34a9e1a6964bc288eb,2022-06-29_09h12.14.248,Colour_Asymmetry_Pilot,2022.1.3,Win32,30.021916,62bbe60bf3d75ef465d3e404,0,131,131,29,1,threefour,,,,,,,,,,,,,,,,,,,,,,,,,,,,,,,,,,,,,,,,,,,,,,,,,,,,,,,,,,,,,,,,,,,,,,,,,,,,,,,,,,,,,,,,,,,,,,,,,,,,,,,,,,,,,,,,,,,,,,,,,,,,,,,,,,,,,,,,,,,,,,,,,,,,,,,,
,,,,,,613c7f972e67021c3fe9fd40,62bbfb34a9e1a6964bc288eb,2022-06-29_09h12.14.248,Colour_Asymmetry_Pilot,2022.1.3,Win32,30.021916,62bbe60bf3d75ef465d3e404,0,132,132,110,1,fourtwo,,,,,,,,,,,,,,,,,,,,,,,,,,,,,,,,,,,,,,,,,,,,,,,,,,,,,,,,,,,,,,,,,,,,,,,,,,,,,,,,,,,,,,,,,,,,,,,,,,,,,,,,,,,,,,,,,,,,,,,,,,,,,,,,,,,,,,,,,,,,,,,,,,,,,,,,
,,,,,,613c7f972e67021c3fe9fd40,62bbfb34a9e1a6964bc288eb,2022-06-29_09h12.14.248,Colour_Asymmetry_Pilot,2022.1.3,Win32,30.021916,62bbe60bf3d75ef465d3e404,0,133,133,109,1,threefour,,,,,,,,,,,,,,,,,,,,,,,,,,,,,,,,,,,,,,,,,,,,,,,,,,,,,,,,,,,,,,,,,,,,,,,,,,,,,,,,,,,,,,,,,,,,,,,,,,,,,,,,,,,,,,,,,,,,,,,,,,,,,,,,,,,,,,,,,,,,,,,,,,,,,,,,
,,,,,,613c7f972e67021c3fe9fd40,62bbfb34a9e1a6964bc288eb,2022-06-29_09h12.14.248,Colour_Asymmetry_Pilot,2022.1.3,Win32,30.021916,62bbe60bf3d75ef465d3e404,0,134,134,144,1,onetwo,,,,,,,,,,,,,,,,,,,,,,,,,,,,,,,,,,,,,,,,,,,,,,,,,,,,,,,,,,,,,,,,,,,,,,,,,,,,,,,,,,,,,,,,,,,,,,,,,,,,,,,,,,,,,,,,,,,,,,,,,,,,,,,,,,,,,,,,,,,,,,,,,,,,,,,,
,,,,,,613c7f972e67021c3fe9fd40,62bbfb34a9e1a6964bc288eb,2022-06-29_09h12.14.248,Colour_Asymmetry_Pilot,2022.1.3,Win32,30.021916,62bbe60bf3d75ef465d3e404,0,135,135,97,1,onethree,,,,,,,,,,,,,,,,,,,,,,,,,,,,,,,,,,,,,,,,,,,,,,,,,,,,,,,,,,,,,,,,,,,,,,,,,,,,,,,,,,,,,,,,,,,,,,,,,,,,,,,,,,,,,,,,,,,,,,,,,,,,,,,,,,,,,,,,,,,,,,,,,,,,,,,,
,,,,,,613c7f972e67021c3fe9fd40,62bbfb34a9e1a6964bc288eb,2022-06-29_09h12.14.248,Colour_Asymmetry_Pilot,2022.1.3,Win32,30.021916,62bbe60bf3d75ef465d3e404,0,136,136,92,1,threeone,,,,,,,,,,,,,,,,,,,,,,,,,,,,,,,,,,,,,,,,,,,,,,,,,,,,,,,,,,,,,,,,,,,,,,,,,,,,,,,,,,,,,,,,,,,,,,,,,,,,,,,,,,,,,,,,,,,,,,,,,,,,,,,,,,,,,,,,,,,,,,,,,,,,,,,,
,,,,,,613c7f972e67021c3fe9fd40,62bbfb34a9e1a6964bc288eb,2022-06-29_09h12.14.248,Colour_Asymmetry_Pilot,2022.1.3,Win32,30.021916,62bbe60bf3d75ef465d3e404,0,137,137,40,1,onetwo,,,,,,,,,,,,,,,,,,,,,,,,,,,,,,,,,,,,,,,,,,,,,,,,,,,,,,,,,,,,,,,,,,,,,,,,,,,,,,,,,,,,,,,,,,,,,,,,,,,,,,,,,,,,,,,,,,,,,,,,,,,,,,,,,,,,,,,,,,,,,,,,,,,,,,,,
,,,,,,613c7f972e67021c3fe9fd40,62bbfb34a9e1a6964bc288eb,2022-06-29_09h12.14.248,Colour_Asymmetry_Pilot,2022.1.3,Win32,30.021916,62bbe60bf3d75ef465d3e404,0,138,138,6,1,fourtwo,,,,,,,,,,,,,,,,,,,,,,,,,,,,,,,,,,,,,,,,,,,,,,,,,,,,,,,,,,,,,,,,,,,,,,,,,,,,,,,,,,,,,,,,,,,,,,,,,,,,,,,,,,,,,,,,,,,,,,,,,,,,,,,,,,,,,,,,,,,,,,,,,,,,,,,,
,,,,,,613c7f972e67021c3fe9fd40,62bbfb34a9e1a6964bc288eb,2022-06-29_09h12.14.248,Colour_Asymmetry_Pilot,2022.1.3,Win32,30.021916,62bbe60bf3d75ef465d3e404,0,139,139,4,1,threeone,,,,,,,,,,,,,,,,,,,,,,,,,,,,,,,,,,,,,,,,,,,,,,,,,,,,,,,,,,,,,,,,,,,,,,,,,,,,,,,,,,,,,,,,,,,,,,,,,,,,,,,,,,,,,,,,,,,,,,,,,,,,,,,,,,,,,,,,,,,,,,,,,,,,,,,,
,,,,,,613c7f972e67021c3fe9fd40,62bbfb34a9e1a6964bc288eb,2022-06-29_09h12.14.248,Colour_Asymmetry_Pilot,2022.1.3,Win32,30.021916,62bbe60bf3d75ef465d3e404,0,140,140,71,1,fourthree,,,,,,,,,,,,,,,,,,,,,,,,,,,,,,,,,,,,,,,,,,,,,,,,,,,,,,,,,,,,,,,,,,,,,,,,,,,,,,,,,,,,,,,,,,,,,,,,,,,,,,,,,,,,,,,,,,,,,,,,,,,,,,,,,,,,,,,,,,,,,,,,,,,,,,,,
,,,,,,613c7f972e67021c3fe9fd40,62bbfb34a9e1a6964bc288eb,2022-06-29_09h12.14.248,Colour_Asymmetry_Pilot,2022.1.3,Win32,30.021916,62bbe60bf3d75ef465d3e404,0,141,141,116,1,threeone,,,,,,,,,,,,,,,,,,,,,,,,,,,,,,,,,,,,,,,,,,,,,,,,,,,,,,,,,,,,,,,,,,,,,,,,,,,,,,,,,,,,,,,,,,,,,,,,,,,,,,,,,,,,,,,,,,,,,,,,,,,,,,,,,,,,,,,,,,,,,,,,,,,,,,,,
,,,,,,613c7f972e67021c3fe9fd40,62bbfb34a9e1a6964bc288eb,2022-06-29_09h12.14.248,Colour_Asymmetry_Pilot,2022.1.3,Win32,30.021916,62bbe60bf3d75ef465d3e404,0,142,142,143,1,fourthree,,,,,,,,,,,,,,,,,,,,,,,,,,,,,,,,,,,,,,,,,,,,,,,,,,,,,,,,,,,,,,,,,,,,,,,,,,,,,,,,,,,,,,,,,,,,,,,,,,,,,,,,,,,,,,,,,,,,,,,,,,,,,,,,,,,,,,,,,,,,,,,,,,,,,,,,
,,,,,,613c7f972e67021c3fe9fd40,62bbfb34a9e1a6964bc288eb,2022-06-29_09h12.14.248,Colour_Asymmetry_Pilot,2022.1.3,Win32,30.021916,62bbe60bf3d75ef465d3e404,0,143,143,51,1,twofour,,,,,,,,,,,,,,,,,,,,,,,,,,,,,,,,,,,,,,,,,,,,,,,,,,,,,,,,,,,,,,,,,,,,,,,,,,,,,,,,,,,,,,,,,,,,,,,,,,,,,,,,,,,,,,,,,,,,,,,,,,,,,,,,,,,,,,,,,,,,,,,,,,,,,,,,
,,,,,,613c7f972e67021c3fe9fd40,62bbfb34a9e1a6964bc288eb,2022-06-29_09h12.14.248,Colour_Asymmetry_Pilot,2022.1.3,Win32,30.021916,62bbe60bf3d75ef465d3e404,0,144,144,126,1,fourtwo,,,,,,,,,,,,,,,,,,,,,,,,,,,,,,,,,,,,,,,,,,,,,,,,,,,,,,,,,,,,,,,,,,,,,,,,,,,,,,,,,,,,,,,,,,,,,,,,,,,,,,,,,,,,,,,,,,,,,,,,,,,,,,,,,,,,,,,,,,,,,,,,,,,,,,,,
,,,,,,613c7f972e67021c3fe9fd40,62bbfb34a9e1a6964bc288eb,2022-06-29_09h12.14.248,Colour_Asymmetry_Pilot,2022.1.3,Win32,30.021916,62bbe60bf3d75ef465d3e404,0,145,145,42,1,twoone,,,,,,,,,,,,,,,,,,,,,,,,,,,,,,,,,,,,,,,,,,,,,,,,,,,,,,,,,,,,,,,,,,,,,,,,,,,,,,,,,,,,,,,,,,,,,,,,,,,,,,,,,,,,,,,,,,,,,,,,,,,,,,,,,,,,,,,,,,,,,,,,,,,,,,,,
,,,,,,613c7f972e67021c3fe9fd40,62bbfb34a9e1a6964bc288eb,2022-06-29_09h12.14.248,Colour_Asymmetry_Pilot,2022.1.3,Win32,30.021916,62bbe60bf3d75ef465d3e404,0,146,146,72,1,onetwo,,,,,,,,,,,,,,,,,,,,,,,,,,,,,,,,,,,,,,,,,,,,,,,,,,,,,,,,,,,,,,,,,,,,,,,,,,,,,,,,,,,,,,,,,,,,,,,,,,,,,,,,,,,,,,,,,,,,,,,,,,,,,,,,,,,,,,,,,,,,,,,,,,,,,,,,
,,,,,,613c7f972e67021c3fe9fd40,62bbfb34a9e1a6964bc288eb,2022-06-29_09h12.14.248,Colour_Asymmetry_Pilot,2022.1.3,Win32,30.021916,62bbe60bf3d75ef465d3e404,0,147,147,119,1,fourthree,,,,,,,,,,,,,,,,,,,,,,,,,,,,,,,,,,,,,,,,,,,,,,,,,,,,,,,,,,,,,,,,,,,,,,,,,,,,,,,,,,,,,,,,,,,,,,,,,,,,,,,,,,,,,,,,,,,,,,,,,,,,,,,,,,,,,,,,,,,,,,,,,,,,,,,,
,,,,,,613c7f972e67021c3fe9fd40,62bbfb34a9e1a6964bc288eb,2022-06-29_09h12.14.248,Colour_Asymmetry_Pilot,2022.1.3,Win32,30.021916,62bbe60bf3d75ef465d3e404,0,148,148,36,1,threeone,,,,,,,,,,,,,,,,,,,,,,,,,,,,,,,,,,,,,,,,,,,,,,,,,,,,,,,,,,,,,,,,,,,,,,,,,,,,,,,,,,,,,,,,,,,,,,,,,,,,,,,,,,,,,,,,,,,,,,,,,,,,,,,,,,,,,,,,,,,,,,,,,,,,,,,,
,,,,,,613c7f972e67021c3fe9fd40,62bbfb34a9e1a6964bc288eb,2022-06-29_09h12.14.248,Colour_Asymmetry_Pilot,2022.1.3,Win32,30.021916,62bbe60bf3d75ef465d3e404,0,149,149,66,1,twoone,,,,,,,,,,,,,,,,,,,,,,,,,,,,,,,,,,,,,,,,,,,,,,,,,,,,,,,,,,,,,,,,,,,,,,,,,,,,,,,,,,,,,,,,,,,,,,,,,,,,,,,,,,,,,,,,,,,,,,,,,,,,,,,,,,,,,,,,,,,,,,,,,,,,,,,,
,,,,,,613c7f972e67021c3fe9fd40,62bbfb34a9e1a6964bc288eb,2022-06-29_09h12.14.248,Colour_Asymmetry_Pilot,2022.1.3,Win32,30.021916,62bbe60bf3d75ef465d3e404,0,150,150,78,1,fourtwo,,,,,,,,,,,,,,,,,,,,,,,,,,,,,,,,,,,,,,,,,,,,,,,,,,,,,,,,,,,,,,,,,,,,,,,,,,,,,,,,,,,,,,,,,,,,,,,,,,,,,,,,,,,,,,,,,,,,,,,,,,,,,,,,,,,,,,,,,,,,,,,,,,,,,,,,
,,,,,,613c7f972e67021c3fe9fd40,62bbfb34a9e1a6964bc288eb,2022-06-29_09h12.14.248,Colour_Asymmetry_Pilot,2022.1.3,Win32,30.021916,62bbe60bf3d75ef465d3e404,0,151,151,89,1,onethree,,,,,,,,,,,,,,,,,,,,,,,,,,,,,,,,,,,,,,,,,,,,,,,,,,,,,,,,,,,,,,,,,,,,,,,,,,,,,,,,,,,,,,,,,,,,,,,,,,,,,,,,,,,,,,,,,,,,,,,,,,,,,,,,,,,,,,,,,,,,,,,,,,,,,,,,
,,,,,,613c7f972e67021c3fe9fd40,62bbfb34a9e1a6964bc288eb,2022-06-29_09h12.14.248,Colour_Asymmetry_Pilot,2022.1.3,Win32,30.021916,62bbe60bf3d75ef465d3e404,0,152,152,137,1,onethree,,,,,,,,,,,,,,,,,,,,,,,,,,,,,,,,,,,,,,,,,,,,,,,,,,,,,,,,,,,,,,,,,,,,,,,,,,,,,,,,,,,,,,,,,,,,,,,,,,,,,,,,,,,,,,,,,,,,,,,,,,,,,,,,,,,,,,,,,,,,,,,,,,,,,,,,
,,,,,,613c7f972e67021c3fe9fd40,62bbfb34a9e1a6964bc288eb,2022-06-29_09h12.14.248,Colour_Asymmetry_Pilot,2022.1.3,Win32,30.021916,62bbe60bf3d75ef465d3e404,0,153,153,80,1,onetwo,,,,,,,,,,,,,,,,,,,,,,,,,,,,,,,,,,,,,,,,,,,,,,,,,,,,,,,,,,,,,,,,,,,,,,,,,,,,,,,,,,,,,,,,,,,,,,,,,,,,,,,,,,,,,,,,,,,,,,,,,,,,,,,,,,,,,,,,,,,,,,,,,,,,,,,,
,,,,,,613c7f972e67021c3fe9fd40,62bbfb34a9e1a6964bc288eb,2022-06-29_09h12.14.248,Colour_Asymmetry_Pilot,2022.1.3,Win32,30.021916,62bbe60bf3d75ef465d3e404,0,154,154,9,1,onethree,,,,,,,,,,,,,,,,,,,,,,,,,,,,,,,,,,,,,,,,,,,,,,,,,,,,,,,,,,,,,,,,,,,,,,,,,,,,,,,,,,,,,,,,,,,,,,,,,,,,,,,,,,,,,,,,,,,,,,,,,,,,,,,,,,,,,,,,,,,,,,,,,,,,,,,,
,,,,,,613c7f972e67021c3fe9fd40,62bbfb34a9e1a6964bc288eb,2022-06-29_09h12.14.248,Colour_Asymmetry_Pilot,2022.1.3,Win32,30.021916,62bbe60bf3d75ef465d3e404,0,155,155,54,1,fourtwo,,,,,,,,,,,,,,,,,,,,,,,,,,,,,,,,,,,,,,,,,,,,,,,,,,,,,,,,,,,,,,,,,,,,,,,,,,,,,,,,,,,,,,,,,,,,,,,,,,,,,,,,,,,,,,,,,,,,,,,,,,,,,,,,,,,,,,,,,,,,,,,,,,,,,,,,
,,,,,,613c7f972e67021c3fe9fd40,62bbfb34a9e1a6964bc288eb,2022-06-29_09h12.14.248,Colour_Asymmetry_Pilot,2022.1.3,Win32,30.021916,62bbe60bf3d75ef465d3e404,0,156,156,93,1,threefour,,,,,,,,,,,,,,,,,,,,,,,,,,,,,,,,,,,,,,,,,,,,,,,,,,,,,,,,,,,,,,,,,,,,,,,,,,,,,,,,,,,,,,,,,,,,,,,,,,,,,,,,,,,,,,,,,,,,,,,,,,,,,,,,,,,,,,,,,,,,,,,,,,,,,,,,
,,,,,,613c7f972e67021c3fe9fd40,62bbfb34a9e1a6964bc288eb,2022-06-29_09h12.14.248,Colour_Asymmetry_Pilot,2022.1.3,Win32,30.021916,62bbe60bf3d75ef465d3e404,0,157,157,26,1,twoone,,,,,,,,,,,,,,,,,,,,,,,,,,,,,,,,,,,,,,,,,,,,,,,,,,,,,,,,,,,,,,,,,,,,,,,,,,,,,,,,,,,,,,,,,,,,,,,,,,,,,,,,,,,,,,,,,,,,,,,,,,,,,,,,,,,,,,,,,,,,,,,,,,,,,,,,
,,,,,,613c7f972e67021c3fe9fd40,62bbfb34a9e1a6964bc288eb,2022-06-29_09h12.14.248,Colour_Asymmetry_Pilot,2022.1.3,Win32,30.021916,62bbe60bf3d75ef465d3e404,0,158,158,28,1,threeone,,,,,,,,,,,,,,,,,,,,,,,,,,,,,,,,,,,,,,,,,,,,,,,,,,,,,,,,,,,,,,,,,,,,,,,,,,,,,,,,,,,,,,,,,,,,,,,,,,,,,,,,,,,,,,,,,,,,,,,,,,,,,,,,,,,,,,,,,,,,,,,,,,,,,,,,
,,,,,,613c7f972e67021c3fe9fd40,62bbfb34a9e1a6964bc288eb,2022-06-29_09h12.14.248,Colour_Asymmetry_Pilot,2022.1.3,Win32,30.021916,62bbe60bf3d75ef465d3e404,0,159,159,149,1,threefour,,,,,,,,,,,,,,,,,,,,,,,,,,,,,,,,,,,,,,,,,,,,,,,,,,,,,,,,,,,,,,,,,,,,,,,,,,,,,,,,,,,,,,,,,,,,,,,,,,,,,,,,,,,,,,,,,,,,,,,,,,,,,,,,,,,,,,,,,,,,,,,,,,,,,,,,
,,,,,,613c7f972e67021c3fe9fd40,62bbfb34a9e1a6964bc288eb,2022-06-29_09h12.14.248,Colour_Asymmetry_Pilot,2022.1.3,Win32,30.021916,62bbe60bf3d75ef465d3e404,0,160,160,123,1,twofour,,,,,,,,,,,,,,,,,,,,,,,,,,,,,,,,,,,,,,,,,,,,,,,,,,,,,,,,,,,,,,,,,,,,,,,,,,,,,,,,,,,,,,,,,,,,,,,,,,,,,,,,,,,,,,,,,,,,,,,,,,,,,,,,,,,,,,,,,,,,,,,,,,,,,,,,
,,,,,,613c7f972e67021c3fe9fd40,62bbfb34a9e1a6964bc288eb,2022-06-29_09h12.14.248,Colour_Asymmetry_Pilot,2022.1.3,Win32,30.021916,62bbe60bf3d75ef465d3e404,0,161,161,120,1,onetwo,,,,,,,,,,,,,,,,,,,,,,,,,,,,,,,,,,,,,,,,,,,,,,,,,,,,,,,,,,,,,,,,,,,,,,,,,,,,,,,,,,,,,,,,,,,,,,,,,,,,,,,,,,,,,,,,,,,,,,,,,,,,,,,,,,,,,,,,,,,,,,,,,,,,,,,,
,,,,,,613c7f972e67021c3fe9fd40,62bbfb34a9e1a6964bc288eb,2022-06-29_09h12.14.248,Colour_Asymmetry_Pilot,2022.1.3,Win32,30.021916,62bbe60bf3d75ef465d3e404,,,,,,,space,9.0384,space,23.0492,space,66.1094,space,46.9208,space,14.5884,space,10.4762,"[-0.6,0.16860000000000008,0.44300000000000006]",threeone,"[0.6625999999999999,0.4980000000000002,-0.357]",-4,16.4335,-39.33331299,78.66665649,1,0,0,response7disk_5,-4.666625977,-1.333343506,1,0,0,rectangle_8,-4.666625977,-1.333343506,1,0,0,4,-4.666625977,-1.333343506,1,0,0,0,0,0,0,1,,,,,,,,,,,,,,,,,,,,,,,,,,,,,,,,,,,,,,,,,,,,,,,,,,,,,,,,,,,,,,,,,,,,,,,,,,,,,,,,,,,,,,,,,,,,,,,,,,,,,,,,,,,
,,,,,,613c7f972e67021c3fe9fd40,62bbfb34a9e1a6964bc288eb,2022-06-29_09h12.14.248,Colour_Asymmetry_Pilot,2022.1.3,Win32,30.021916,62bbe60bf3d75ef465d3e404,,,,,,,,,,,,,,,,,,,"[-0.4902000000000001,0.2704,-0.45899999999999996]",onethree,"[0.30180000000000007,-0.7884,-0.9844]",-4,13.8565,-32,75.33331299,1,0,0,response7disk_5,-10.66662598,6,1,0,0,rectangle_8,-10.66662598,6,1,0,0,4,-10.66662598,6,1,0,0,1,0,1,0,1,,,,,,,,,,,,,,,,,,,,,,,,,,,,,,,,,,,,,,,,,,,,,,,,,,,,,,,,,,,,,,,,,,,,,,,,,,,,,,,,,,,,,,,,,,,,,,,,,,,,,,,,,,,
,,,,,,613c7f972e67021c3fe9fd40,62bbfb34a9e1a6964bc288eb,2022-06-29_09h12.14.248,Colour_Asymmetry_Pilot,2022.1.3,Win32,30.021916,62bbe60bf3d75ef465d3e404,,,,,,,,,,,,,,,,,,,"[-0.4276,0.0038000000000000256,-0.3256]",twofour,"[-0.20799999999999996,-0.655,-0.01980000000000004]",-4,18.602,-52,72,1,0,0,response7disk_5,-3.333312988,4,1,0,0,rectangle_8,-3.333312988,4,1,0,0,4,-3.333312988,4,1,0,0,2,0,2,0,1,,,,,,,,,,,,,,,,,,,,,,,,,,,,,,,,,,,,,,,,,,,,,,,,,,,,,,,,,,,,,,,,,,,,,,,,,,,,,,,,,,,,,,,,,,,,,,,,,,,,,,,,,,,
,,,,,,613c7f972e67021c3fe9fd40,62bbfb34a9e1a6964bc288eb,2022-06-29_09h12.14.248,Colour_Asymmetry_Pilot,2022.1.3,Win32,30.021916,62bbe60bf3d75ef465d3e404,,,,,,,,,,,,,,,,,,,"[-0.4746,-0.0354000000000001,0.5449999999999999]",onethree,"[0.9686000000000001,0.3802000000000001,0.19999999999999996]",-4,26.4113,-33.33331299,56.66665649,1,0,0,response7disk_5,-12,5.333312988,1,0,0,rectangle_8,40,90.66665649,1,0,0,4,-9.333312988,0,1,0,0,3,0,3,0,1,response1disk_7,7,rectangle_4,,,,,,,,,,,,,,,,,,,,,,,,,,,,,,,,,,,,,,,,,,,,,,,,,,,,,,,,,,,,,,,,,,,,,,,,,,,,,,,,,,,,,,,,,,,,,,,,,,,,,,,,
,,,,,,613c7f972e67021c3fe9fd40,62bbfb34a9e1a6964bc288eb,2022-06-29_09h12.14.248,Colour_Asymmetry_Pilot,2022.1.3,Win32,30.021916,62bbe60bf3d75ef465d3e404,,,,,,,,,,,,,,,,,,,"[0.4196,0.4665999999999999,0.3568]",twofour,"[0.9372,0.9450000000000001,0.8980000000000001]",4,18.6851,27.33337402,68,1,0,0,response1disk_5,-4.666625977,5.333312988,1,0,0,rectangle_8,50.66668701,77.33331299,1,0,0,4,-6.666625977,5.333312988,1,0,0,4,0,4,0,1,response1disk_7,7,rectangle_4,,,,,,,,,,,,,,,,,,,,,,,,,,,,,,,,,,,,,,,,,,,,,,,,,,,,,,,,,,,,,,,,,,,,,,,,,,,,,,,,,,,,,,,,,,,,,,,,,,,,,,,,
,,,,,,613c7f972e67021c3fe9fd40,62bbfb34a9e1a6964bc288eb,2022-06-29_09h12.14.248,Colour_Asymmetry_Pilot,2022.1.3,Win32,30.021916,62bbe60bf3d75ef465d3e404,,,,,,,,,,,,,,,,,,,"[-0.6,0.16860000000000008,0.44300000000000006]",onetwo,"[0.9763999999999999,-0.1137999999999999,-0.6314]",-4,9.1601,-36.66662598,73.33331299,1,0,0,response7disk_5,-4,8,1,0,0,rectangle_8,-4,8,1,0,0,4,-4,8,1,0,0,5,0,5,0,1,,,,,,,,,,,,,,,,,,,,,,,,,,,,,,,,,,,,,,,,,,,,,,,,,,,,,,,,,,,,,,,,,,,,,,,,,,,,,,,,,,,,,,,,,,,,,,,,,,,,,,,,,,,
,,,,,,613c7f972e67021c3fe9fd40,62bbfb34a9e1a6964bc288eb,2022-06-29_09h12.14.248,Colour_Asymmetry_Pilot,2022.1.3,Win32,30.021916,62bbe60bf3d75ef465d3e404,,,,,,,,,,,,,,,,,,,"[-0.8118,-0.8198,-0.5452]",fourthree,"[0.7802,-0.23140000000000005,-0.20799999999999996]",-4,3.9648,-34,70,1,0,0,response7disk_5,-8.666625977,3.333312988,1,0,0,rectangle_8,-8.666625977,3.333312988,1,0,0,4,-8.666625977,3.333312988,1,0,0,6,0,6,0,1,,,,,,,,,,,,,,,,,,,,,,,,,,,,,,,,,,,,,,,,,,,,,,,,,,,,,,,,,,,,,,,,,,,,,,,,,,,,,,,,,,,,,,,,,,,,,,,,,,,,,,,,,,,
,,,,,,613c7f972e67021c3fe9fd40,62bbfb34a9e1a6964bc288eb,2022-06-29_09h12.14.248,Colour_Asymmetry_Pilot,2022.1.3,Win32,30.021916,62bbe60bf3d75ef465d3e404,,,,,,,,,,,,,,,,,,,,fourtwo,,-4,4.7314,,,,,,,,,,,,,,,,,,,,,,,,,,,,,,,,space,4.9358,"[-0.4276,0.0038000000000000256,-0.3256]","[-0.24719999999999998,-0.0354000000000001,0.3175999999999999]",-43.33331299,68,1,0,0,response7disk,-0.666625977,2.666656494,1,0,0,rectangle,-0.666625977,2.666656494,1,0,0,,1,0.0018,0,-0.666625977,2.666656494,1,0,0,0,0,0,46,1,46,first,,,,,,,,,,,,,,,,,,,,,,,,,,,,,,,,,,,,,,,,,,,,,,,,,,,,,,,,,,,,,,,,,,,
,,,,,,613c7f972e67021c3fe9fd40,62bbfb34a9e1a6964bc288eb,2022-06-29_09h12.14.248,Colour_Asymmetry_Pilot,2022.1.3,Win32,30.021916,62bbe60bf3d75ef465d3e404,,,,,,,,,,,,,,,,,,,,twoone,,3,1.9999,,,,,,,,,,,,,,,,,,,,,,,,,,,,,,,,,,"[0.7646000000000002,0.07440000000000002,0.2704]","[0.40379999999999994,0.09000000000000008,0.44300000000000006]",82.66668701,33.33331299,1,0,0,response1disk,2,1.333312988,1,0,0,rectangle,2,1.333312988,1,0,0,,2,0.0011,0,2,1.333312988,1,0,0,0,1,1,43,1,43,first,,,,,,,,,,,,,,,,,,,,,,,,,,,,,,,,,,,,,,,,,,,,,,,,,,,,,,,,,,,,,,,,,,,
,,,,,,613c7f972e67021c3fe9fd40,62bbfb34a9e1a6964bc288eb,2022-06-29_09h12.14.248,Colour_Asymmetry_Pilot,2022.1.3,Win32,30.021916,62bbe60bf3d75ef465d3e404,,,,,,,,,,,,,,,,,,,,onetwo,,2,6.5625,,,,,,,,,,,,,,,,,,,,,,,,,,,,,,,,,,"[0.8115999999999999,-0.0040000000000000036,-0.09819999999999995]","[-0.050999999999999934,-0.6706000000000001,-0.804]",52.66668701,-34.66668701,1,0,0,response3disk,-8.666625977,2.666656494,1,0,0,rectangle,-8.666625977,2.666656494,1,0,0,,1,0.0011,0,-8.666625977,2.666656494,1,0,0,0,2,2,33,1,33,first,,,,,,,,,,,,,,,,,,,,,,,,,,,,,,,,,,,,,,,,,,,,,,,,,,,,,,,,,,,,,,,,,,,
,,,,,,613c7f972e67021c3fe9fd40,62bbfb34a9e1a6964bc288eb,2022-06-29_09h12.14.248,Colour_Asymmetry_Pilot,2022.1.3,Win32,30.021916,62bbe60bf3d75ef465d3e404,,,,,,,,,,,,,,,,,,,,fourthree,,2,12.6739,,,,,,,,,,,,,,,,,,,,,,,,,,,,,,,,,,"[0.0351999999999999,0.41159999999999997,0.0038000000000000256]","[-0.0040000000000000036,0.02739999999999987,-0.08239999999999992]",69.33337402,-43.33334351,1,0,0,response3disk,-1.333312988,4,1,0,0,rectangle,-1.333312988,4,1,0,0,,2,0.0013,0,-1.333312988,4,1,0,0,0,3,3,133,1,52,second,,,,,,,,,,,,,,,,,,,,,,,,,,,,,,,,,,,,,,,,,,,,,,,,,,,,,,,,,,,,,,,,,,,
,,,,,,613c7f972e67021c3fe9fd40,62bbfb34a9e1a6964bc288eb,2022-06-29_09h12.14.248,Colour_Asymmetry_Pilot,2022.1.3,Win32,30.021916,62bbe60bf3d75ef465d3e404,,,,,,,,,,,,,,,,,,,,twoone,,-2,6.5629,,,,,,,,,,,,,,,,,,,,,,,,,,,,,,,,,,"[-0.4746,-0.0354000000000001,0.5449999999999999]","[0.12939999999999996,-0.2864,0.3253999999999999]",-97.33331299,-25.33334351,1,0,0,response5disk,2.666687012,2.666656494,1,0,0,rectangle,2.666687012,2.666656494,1,0,0,,1,0.0013,0,2.666687012,2.666656494,1,0,0,0,4,4,74,1,74,first,,,,,,,,,,,,,,,,,,,,,,,,,,,,,,,,,,,,,,,,,,,,,,,,,,,,,,,,,,,,,,,,,,,
,,,,,,613c7f972e67021c3fe9fd40,62bbfb34a9e1a6964bc288eb,2022-06-29_09h12.14.248,Colour_Asymmetry_Pilot,2022.1.3,Win32,30.021916,62bbe60bf3d75ef465d3e404,,,,,,,,,,,,,,,,,,,,fourtwo,,3,8.261,,,,,,,,,,,,,,,,,,,,,,,,,,,,,,,,,,"[0.9763999999999999,0.30979999999999985,-0.6786]","[0.37240000000000006,-0.050999999999999934,-0.5216]",76,28,1,0,0,response1disk,4.666687012,3.333312988,1,0,0,rectangle,4.666687012,3.333312988,1,0,0,,2,0.001,0,4.666687012,3.333312988,1,0,0,0,5,5,130,1,49,second,,,,,,,,,,,,,,,,,,,,,,,,,,,,,,,,,,,,,,,,,,,,,,,,,,,,,,,,,,,,,,,,,,,
,,,,,,613c7f972e67021c3fe9fd40,62bbfb34a9e1a6964bc288eb,2022-06-29_09h12.14.248,Colour_Asymmetry_Pilot,2022.1.3,Win32,30.021916,62bbe60bf3d75ef465d3e404,,,,,,,,,,,,,,,,,,,,onethree,,-4,2.3671,,,,,,,,,,,,,,,,,,,,,,,,,,,,,,,,,,"[0.3568,-0.20799999999999996,-0.9844]","[-0.4982,-0.2942,-0.0354000000000001]",-40.66662598,96.66665649,1,0,0,response7disk,-1.333312988,-4,1,0,0,rectangle,-1.333312988,-4,1,0,0,,1,0.0011,0,-1.333312988,-4,1,0,0,0,6,6,19,1,19,first,,,,,,,,,,,,,,,,,,,,,,,,,,,,,,,,,,,,,,,,,,,,,,,,,,,,,,,,,,,,,,,,,,,
,,,,,,613c7f972e67021c3fe9fd40,62bbfb34a9e1a6964bc288eb,2022-06-29_09h12.14.248,Colour_Asymmetry_Pilot,2022.1.3,Win32,30.021916,62bbe60bf3d75ef465d3e404,,,,,,,,,,,,,,,,,,,,twoone,,-1,2.7649,,,,,,,,,,,,,,,,,,,,,,,,,,,,,,,,,,"[0.40379999999999994,0.09000000000000008,0.44300000000000006]","[-0.4668,-0.8746,-0.2942]",-32.66662598,-60,1,0,0,response5disk,-6.666625977,3.333312988,1,0,0,rectangle,-6.666625977,3.333312988,1,0,0,,1,0.0002,0,-6.666625977,3.333312988,1,0,0,0,7,7,95,1,14,second,,,,,,,,,,,,,,,,,,,,,,,,,,,,,,,,,,,,,,,,,,,,,,,,,,,,,,,,,,,,,,,,,,,
,,,,,,613c7f972e67021c3fe9fd40,62bbfb34a9e1a6964bc288eb,2022-06-29_09h12.14.248,Colour_Asymmetry_Pilot,2022.1.3,Win32,30.021916,62bbe60bf3d75ef465d3e404,,,,,,,,,,,,,,,,,,,,fourthree,,2,3.3656,,,,,,,,,,,,,,,,,,,,,,,,,,,,,,,,,,"[0.2862,0.7802,0.3568]","[-0.4902000000000001,0.2704,-0.45899999999999996]",64.66668701,-34.66668701,1,0,0,response3disk,10.66668701,0.666656494,1,0,0,rectangle,10.66668701,0.666656494,1,0,0,,2,0.0011,0,10.66668701,0.666656494,1,0,0,0,8,8,117,1,36,second,,,,,,,,,,,,,,,,,,,,,,,,,,,,,,,,,,,,,,,,,,,,,,,,,,,,,,,,,,,,,,,,,,,
,,,,,,613c7f972e67021c3fe9fd40,62bbfb34a9e1a6964bc288eb,2022-06-29_09h12.14.248,Colour_Asymmetry_Pilot,2022.1.3,Win32,30.021916,62bbe60bf3d75ef465d3e404,,,,,,,,,,,,,,,,,,,,threeone,,-2,5.1974,,,,,,,,,,,,,,,,,,,,,,,,,,,,,,,,,,"[-0.09019999999999995,0.44300000000000006,0.5371999999999999]","[-0.4902000000000001,0.2704,-0.45899999999999996]",-88,-36,1,0,0,response5disk,-4.666625977,3.333312988,1,0,0,rectangle,-4.666625977,3.333312988,1,0,0,,1,0.001,0,-4.666625977,3.333312988,1,0,0,0,9,9,92,1,11,second,,,,,,,,,,,,,,,,,,,,,,,,,,,,,,,,,,,,,,,,,,,,,,,,,,,,,,,,,,,,,,,,,,,
,,,,,,613c7f972e67021c3fe9fd40,62bbfb34a9e1a6964bc288eb,2022-06-29_09h12.14.248,Colour_Asymmetry_Pilot,2022.1.3,Win32,30.021916,62bbe60bf3d75ef465d3e404,,,,,,,,,,,,,,,,,,,,fourthree,,-4,0.934,,,,,,,,,,,,,,,,,,,,,,,,,,,,,,,,,,"[-0.8982,-0.37259999999999993,0.2784]","[0.7018,0.7802,-0.16079999999999994]",-42.66662598,74,1,0,0,response7disk,-0.666625977,-3.333343506,1,0,0,rectangle,-0.666625977,-3.333343506,1,0,0,,1,0.0001,0,-0.666625977,-3.333343506,1,0,0,0,10,10,12,1,12,first,,,,,,,,,,,,,,,,,,,,,,,,,,,,,,,,,,,,,,,,,,,,,,,,,,,,,,,,,,,,,,,,,,,
,,,,,,613c7f972e67021c3fe9fd40,62bbfb34a9e1a6964bc288eb,2022-06-29_09h12.14.248,Colour_Asymmetry_Pilot,2022.1.3,Win32,30.021916,62bbe60bf3d75ef465d3e404,,,,,,,,,,,,,,,,,,,,onetwo,,-1,11.6241,,,,,,,,,,,,,,,,,,,,,,,,,,,,,,,,,,"[0.7176,-0.906,-0.6864]","[0.3881999999999999,-0.23939999999999995,-0.05040000000000011]",-32,-51.33334351,1,0,0,response5disk,3.333374023,2.666656494,1,0,0,rectangle,3.333374023,2.666656494,1,0,0,,2,0.0011,0,3.333374023,2.666656494,1,0,0,0,11,11,39,1,39,first,,,,,,,,,,,,,,,,,,,,,,,,,,,,,,,,,,,,,,,,,,,,,,,,,,,,,,,,,,,,,,,,,,,
,,,,,,613c7f972e67021c3fe9fd40,62bbfb34a9e1a6964bc288eb,2022-06-29_09h12.14.248,Colour_Asymmetry_Pilot,2022.1.3,Win32,30.021916,62bbe60bf3d75ef465d3e404,,,,,,,,,,,,,,,,,,,,twofour,,1,5.2977,,,,,,,,,,,,,,,,,,,,,,,,,,,,,,,,,,"[-0.34920000000000007,-0.702,-0.5216]","[0.18419999999999992,-0.4276,-0.404]",62.66668701,-84.66668701,1,0,0,response3disk,-6,-5.333343506,1,0,0,rectangle,-6,-5.333343506,1,0,0,,3,0.0011,0,-6,-5.333343506,1,0,0,0,12,12,113,1,32,second,,,,,,,,,,,,,,,,,,,,,,,,,,,,,,,,,,,,,,,,,,,,,,,,,,,,,,,,,,,,,,,,,,,
,,,,,,613c7f972e67021c3fe9fd40,62bbfb34a9e1a6964bc288eb,2022-06-29_09h12.14.248,Colour_Asymmetry_Pilot,2022.1.3,Win32,30.021916,62bbe60bf3d75ef465d3e404,,,,,,,,,,,,,,,,,,,,fourthree,,-4,0.967,,,,,,,,,,,,,,,,,,,,,,,,,,,,,,,,,,"[0.5528,0.7409999999999999,-0.71]","[0.11359999999999992,0.6312,0.5213999999999999]",-47.33331299,63.33331299,1,0,0,response7disk,-4,5.333312988,1,0,0,rectangle,-4,5.333312988,1,0,0,,1,0.0026,0,-4,5.333312988,1,0,0,0,13,13,41,1,41,first,,,,,,,,,,,,,,,,,,,,,,,,,,,,,,,,,,,,,,,,,,,,,,,,,,,,,,,,,,,,,,,,,,,
,,,,,,613c7f972e67021c3fe9fd40,62bbfb34a9e1a6964bc288eb,2022-06-29_09h12.14.248,Colour_Asymmetry_Pilot,2022.1.3,Win32,30.021916,62bbe60bf3d75ef465d3e404,,,,,,,,,,,,,,,,,,,,twofour,,-4,1.2673,,,,,,,,,,,,,,,,,,,,,,,,,,,,,,,,,,"[0.9763999999999999,0.8588,-0.05900000000000005]","[0.23120000000000007,-0.7726,-0.34120000000000006]",-20.66662598,37.33331299,1,0,0,response7disk,-1.333312988,-6.666687012,1,0,0,rectangle,-1.333312988,-6.666687012,1,0,0,,3,0.0011,0,-1.333312988,-6.666687012,1,0,0,0,14,14,126,1,45,second,,,,,,,,,,,,,,,,,,,,,,,,,,,,,,,,,,,,,,,,,,,,,,,,,,,,,,,,,,,,,,,,,,,
,,,,,,613c7f972e67021c3fe9fd40,62bbfb34a9e1a6964bc288eb,2022-06-29_09h12.14.248,Colour_Asymmetry_Pilot,2022.1.3,Win32,30.021916,62bbe60bf3d75ef465d3e404,,,,,,,,,,,,,,,,,,,,onethree,,-4,1.8326,,,,,,,,,,,,,,,,,,,,,,,,,,,,,,,,,,"[0.9763999999999999,0.30979999999999985,-0.6786]","[-0.6,0.16860000000000008,0.44300000000000006]",-29.33331299,56,1,0,0,response7disk,-0.666625977,6.666656494,1,0,0,rectangle,-0.666625977,6.666656494,1,0,0,,2,0.0012,0,-0.666625977,6.666656494,1,0,0,0,15,15,61,1,61,first,,,,,,,,,,,,,,,,,,,,,,,,,,,,,,,,,,,,,,,,,,,,,,,,,,,,,,,,,,,,,,,,,,,
,,,,,,613c7f972e67021c3fe9fd40,62bbfb34a9e1a6964bc288eb,2022-06-29_09h12.14.248,Colour_Asymmetry_Pilot,2022.1.3,Win32,30.021916,62bbe60bf3d75ef465d3e404,,,,,,,,,,,,,,,,,,,,fourtwo,,-4,1.3002,,,,,,,,,,,,,,,,,,,,,,,,,,,,,,,,,,"[-0.050999999999999934,-0.6706000000000001,-0.804]","[-0.6942,-0.7648,-0.12959999999999994]",-31.33331299,48.66665649,1,0,0,response7disk,-11.33331299,7.333312988,1,0,0,rectangle,-11.33331299,7.333312988,1,0,0,,2,0.0003,0,-11.33331299,7.333312988,1,0,0,0,16,16,91,1,10,second,,,,,,,,,,,,,,,,,,,,,,,,,,,,,,,,,,,,,,,,,,,,,,,,,,,,,,,,,,,,,,,,,,,
,,,,,,613c7f972e67021c3fe9fd40,62bbfb34a9e1a6964bc288eb,2022-06-29_09h12.14.248,Colour_Asymmetry_Pilot,2022.1.3,Win32,30.021916,62bbe60bf3d75ef465d3e404,,,,,,,,,,,,,,,,,,,,twoone,,-4,2.566,,,,,,,,,,,,,,,,,,,,,,,,,,,,,,,,,,"[-0.24719999999999998,-0.0354000000000001,0.3175999999999999]","[-0.050999999999999934,-0.6706000000000001,-0.804]",-46.66662598,68.66665649,1,0,0,response7disk,-0.666625977,2,1,0,0,rectangle,-0.666625977,2,1,0,0,,2,0.0002,0,-0.666625977,2,1,0,0,0,17,17,2,1,2,first,,,,,,,,,,,,,,,,,,,,,,,,,,,,,,,,,,,,,,,,,,,,,,,,,,,,,,,,,,,,,,,,,,,
,,,,,,613c7f972e67021c3fe9fd40,62bbfb34a9e1a6964bc288eb,2022-06-29_09h12.14.248,Colour_Asymmetry_Pilot,2022.1.3,Win32,30.021916,62bbe60bf3d75ef465d3e404,,,,,,,,,,,,,,,,,,,,fourtwo,,-4,3.4642,,,,,,,,,,,,,,,,,,,,,,,,,,,,,,,,,,"[-0.7412000000000001,-0.08239999999999992,-0.6864]","[0.7646000000000002,0.07440000000000002,0.2704]",-28.66662598,34.66665649,1,0,0,response7disk,0,-2,1,0,0,rectangle,0,-2,1,0,0,,3,0.001,0,0,-2,1,0,0,0,18,18,132,1,51,second,,,,,,,,,,,,,,,,,,,,,,,,,,,,,,,,,,,,,,,,,,,,,,,,,,,,,,,,,,,,,,,,,,,
