trials.thisRepN,trials.thisTrialN,trials.thisN,trials.thisIndex,trials.ran,Colourcodes,participant,session,date,expName,psychopyVersion,OS,frameRate,study_id,trials_4.thisRepN,trials_4.thisTrialN,trials_4.thisN,trials_4.thisIndex,trials_4.ran,StimulusPos,key_resp.keys,key_resp.rt,key_resp_2.keys,key_resp_2.rt,key_resp_15.keys,key_resp_15.rt,key_resp_17.keys,key_resp_17.rt,key_resp_9.keys,key_resp_9.rt,key_resp_10.keys,key_resp_10.rt,Circle1_col,Ecc,Circle2_col,similarity,response_time,mouse_5.x,mouse_5.y,mouse_5.leftButton,mouse_5.midButton,mouse_5.rightButton,mouse_5.clicked_name,mouse_10.x,mouse_10.y,mouse_10.leftButton,mouse_10.midButton,mouse_10.rightButton,mouse_10.clicked_name,mouse_7.x,mouse_7.y,mouse_7.leftButton,mouse_7.midButton,mouse_7.rightButton,catchnumberprac,mouse_6.x,mouse_6.y,mouse_6.leftButton,mouse_6.midButton,mouse_6.rightButton,duringprac.thisRepN,duringprac.thisTrialN,duringprac.thisN,duringprac.thisIndex,duringprac.ran,mouse_7.clicked_name,catchprac,mouse_6.clicked_name,key_resp_22.keys,key_resp_22.rt,Circle1_colour,Circle2_colour,mouse.x,mouse.y,mouse.leftButton,mouse.midButton,mouse.rightButton,mouse.clicked_name,mouse_2.x,mouse_2.y,mouse_2.leftButton,mouse_2.midButton,mouse_2.rightButton,mouse_2.clicked_name,mouse_3.x,mouse_3.y,mouse_3.leftButton,mouse_3.midButton,mouse_3.rightButton,catchresponse,catchnumber,response_time_catch,Catch,mouse_11.x,mouse_11.y,mouse_11.leftButton,mouse_11.midButton,mouse_11.rightButton,trials_2.thisRepN,trials_2.thisTrialN,trials_2.thisN,trials_2.thisIndex,trials_2.ran,Colourpair,Temporder,mouse_3.clicked_name,mouse_11.clicked_name,trials_3.thisRepN,trials_3.thisTrialN,trials_3.thisN,trials_3.thisIndex,trials_3.ran,key_resp_instr_Ishi.keys,key_resp_instr_Ishi.rt,Ishi_trial_keyresp.keys,Ishi_trial_keyresp.rt,Ishi_textbox.text,Ishi_loop.thisRepN,Ishi_loop.thisTrialN,Ishi_loop.thisN,Ishi_loop.thisIndex,Ishi_loop.ran,imageaddress,textbox.text,mouse_4.x,mouse_4.y,mouse_4.leftButton,mouse_4.midButton,mouse_4.rightButton,mouse_4.clicked_name,textbox_2.text,mouse_8.x,mouse_8.y,mouse_8.leftButton,mouse_8.midButton,mouse_8.rightButton,mouse_8.clicked_name,textbox_3.text,mouse_9.x,mouse_9.y,mouse_9.leftButton,mouse_9.midButton,mouse_9.rightButton,mouse_9.clicked_name,textbox_4.text,mouse_12.x,mouse_12.y,mouse_12.leftButton,mouse_12.midButton,mouse_12.rightButton,mouse_12.clicked_name,textbox_5.text,mouse_13.x,mouse_13.y,mouse_13.leftButton,mouse_13.midButton,mouse_13.rightButton,mouse_13.clicked_name,textbox_6.text,mouse_14.x,mouse_14.y,mouse_14.leftButton,mouse_14.midButton,mouse_14.rightButton,mouse_14.clicked_name,textbox_7.text,mouse_15.x,mouse_15.y,mouse_15.leftButton,mouse_15.midButton,mouse_15.rightButton,mouse_15.clicked_name
0,0,0,29,1,,605b0135815a24382dfabf98,62bbf9324557526fa8e9188e,2022-06-29_09h03.24.784,Colour_Asymmetry_Pilot,2022.1.3,Win32,59.98440405,62bbe60bf3d75ef465d3e404,,,,,,,,,,,,,,,,,,,,,,,,,,,,,,,,,,,,,,,,,,,,,,,,,,,,,,,,,,,,,,,,,,,,,,,,,,,,,,,,,,,,,,,,,,,,,,,,,,,,,,,,,,,,,,,,,,,,,,,,,,,,,,,,,,,,,,,,,,,,,,,,,,,,,,,,,,,,,,
0,1,1,49,1,,605b0135815a24382dfabf98,62bbf9324557526fa8e9188e,2022-06-29_09h03.24.784,Colour_Asymmetry_Pilot,2022.1.3,Win32,59.98440405,62bbe60bf3d75ef465d3e404,,,,,,,,,,,,,,,,,,,,,,,,,,,,,,,,,,,,,,,,,,,,,,,,,,,,,,,,,,,,,,,,,,,,,,,,,,,,,,,,,,,,,,,,,,,,,,,,,,,,,,,,,,,,,,,,,,,,,,,,,,,,,,,,,,,,,,,,,,,,,,,,,,,,,,,,,,,,,,
0,2,2,36,1,,605b0135815a24382dfabf98,62bbf9324557526fa8e9188e,2022-06-29_09h03.24.784,Colour_Asymmetry_Pilot,2022.1.3,Win32,59.98440405,62bbe60bf3d75ef465d3e404,,,,,,,,,,,,,,,,,,,,,,,,,,,,,,,,,,,,,,,,,,,,,,,,,,,,,,,,,,,,,,,,,,,,,,,,,,,,,,,,,,,,,,,,,,,,,,,,,,,,,,,,,,,,,,,,,,,,,,,,,,,,,,,,,,,,,,,,,,,,,,,,,,,,,,,,,,,,,,
0,3,3,24,1,,605b0135815a24382dfabf98,62bbf9324557526fa8e9188e,2022-06-29_09h03.24.784,Colour_Asymmetry_Pilot,2022.1.3,Win32,59.98440405,62bbe60bf3d75ef465d3e404,,,,,,,,,,,,,,,,,,,,,,,,,,,,,,,,,,,,,,,,,,,,,,,,,,,,,,,,,,,,,,,,,,,,,,,,,,,,,,,,,,,,,,,,,,,,,,,,,,,,,,,,,,,,,,,,,,,,,,,,,,,,,,,,,,,,,,,,,,,,,,,,,,,,,,,,,,,,,,
0,4,4,44,1,,605b0135815a24382dfabf98,62bbf9324557526fa8e9188e,2022-06-29_09h03.24.784,Colour_Asymmetry_Pilot,2022.1.3,Win32,59.98440405,62bbe60bf3d75ef465d3e404,,,,,,,,,,,,,,,,,,,,,,,,,,,,,,,,,,,,,,,,,,,,,,,,,,,,,,,,,,,,,,,,,,,,,,,,,,,,,,,,,,,,,,,,,,,,,,,,,,,,,,,,,,,,,,,,,,,,,,,,,,,,,,,,,,,,,,,,,,,,,,,,,,,,,,,,,,,,,,
0,5,5,8,1,,605b0135815a24382dfabf98,62bbf9324557526fa8e9188e,2022-06-29_09h03.24.784,Colour_Asymmetry_Pilot,2022.1.3,Win32,59.98440405,62bbe60bf3d75ef465d3e404,,,,,,,,,,,,,,,,,,,,,,,,,,,,,,,,,,,,,,,,,,,,,,,,,,,,,,,,,,,,,,,,,,,,,,,,,,,,,,,,,,,,,,,,,,,,,,,,,,,,,,,,,,,,,,,,,,,,,,,,,,,,,,,,,,,,,,,,,,,,,,,,,,,,,,,,,,,,,,
0,6,6,3,1,,605b0135815a24382dfabf98,62bbf9324557526fa8e9188e,2022-06-29_09h03.24.784,Colour_Asymmetry_Pilot,2022.1.3,Win32,59.98440405,62bbe60bf3d75ef465d3e404,,,,,,,,,,,,,,,,,,,,,,,,,,,,,,,,,,,,,,,,,,,,,,,,,,,,,,,,,,,,,,,,,,,,,,,,,,,,,,,,,,,,,,,,,,,,,,,,,,,,,,,,,,,,,,,,,,,,,,,,,,,,,,,,,,,,,,,,,,,,,,,,,,,,,,,,,,,,,,
0,7,7,33,1,,605b0135815a24382dfabf98,62bbf9324557526fa8e9188e,2022-06-29_09h03.24.784,Colour_Asymmetry_Pilot,2022.1.3,Win32,59.98440405,62bbe60bf3d75ef465d3e404,,,,,,,,,,,,,,,,,,,,,,,,,,,,,,,,,,,,,,,,,,,,,,,,,,,,,,,,,,,,,,,,,,,,,,,,,,,,,,,,,,,,,,,,,,,,,,,,,,,,,,,,,,,,,,,,,,,,,,,,,,,,,,,,,,,,,,,,,,,,,,,,,,,,,,,,,,,,,,
0,8,8,56,1,,605b0135815a24382dfabf98,62bbf9324557526fa8e9188e,2022-06-29_09h03.24.784,Colour_Asymmetry_Pilot,2022.1.3,Win32,59.98440405,62bbe60bf3d75ef465d3e404,,,,,,,,,,,,,,,,,,,,,,,,,,,,,,,,,,,,,,,,,,,,,,,,,,,,,,,,,,,,,,,,,,,,,,,,,,,,,,,,,,,,,,,,,,,,,,,,,,,,,,,,,,,,,,,,,,,,,,,,,,,,,,,,,,,,,,,,,,,,,,,,,,,,,,,,,,,,,,
0,9,9,34,1,,605b0135815a24382dfabf98,62bbf9324557526fa8e9188e,2022-06-29_09h03.24.784,Colour_Asymmetry_Pilot,2022.1.3,Win32,59.98440405,62bbe60bf3d75ef465d3e404,,,,,,,,,,,,,,,,,,,,,,,,,,,,,,,,,,,,,,,,,,,,,,,,,,,,,,,,,,,,,,,,,,,,,,,,,,,,,,,,,,,,,,,,,,,,,,,,,,,,,,,,,,,,,,,,,,,,,,,,,,,,,,,,,,,,,,,,,,,,,,,,,,,,,,,,,,,,,,
0,10,10,5,1,,605b0135815a24382dfabf98,62bbf9324557526fa8e9188e,2022-06-29_09h03.24.784,Colour_Asymmetry_Pilot,2022.1.3,Win32,59.98440405,62bbe60bf3d75ef465d3e404,,,,,,,,,,,,,,,,,,,,,,,,,,,,,,,,,,,,,,,,,,,,,,,,,,,,,,,,,,,,,,,,,,,,,,,,,,,,,,,,,,,,,,,,,,,,,,,,,,,,,,,,,,,,,,,,,,,,,,,,,,,,,,,,,,,,,,,,,,,,,,,,,,,,,,,,,,,,,,
0,11,11,83,1,,605b0135815a24382dfabf98,62bbf9324557526fa8e9188e,2022-06-29_09h03.24.784,Colour_Asymmetry_Pilot,2022.1.3,Win32,59.98440405,62bbe60bf3d75ef465d3e404,,,,,,,,,,,,,,,,,,,,,,,,,,,,,,,,,,,,,,,,,,,,,,,,,,,,,,,,,,,,,,,,,,,,,,,,,,,,,,,,,,,,,,,,,,,,,,,,,,,,,,,,,,,,,,,,,,,,,,,,,,,,,,,,,,,,,,,,,,,,,,,,,,,,,,,,,,,,,,
0,12,12,60,1,,605b0135815a24382dfabf98,62bbf9324557526fa8e9188e,2022-06-29_09h03.24.784,Colour_Asymmetry_Pilot,2022.1.3,Win32,59.98440405,62bbe60bf3d75ef465d3e404,,,,,,,,,,,,,,,,,,,,,,,,,,,,,,,,,,,,,,,,,,,,,,,,,,,,,,,,,,,,,,,,,,,,,,,,,,,,,,,,,,,,,,,,,,,,,,,,,,,,,,,,,,,,,,,,,,,,,,,,,,,,,,,,,,,,,,,,,,,,,,,,,,,,,,,,,,,,,,
0,13,13,50,1,,605b0135815a24382dfabf98,62bbf9324557526fa8e9188e,2022-06-29_09h03.24.784,Colour_Asymmetry_Pilot,2022.1.3,Win32,59.98440405,62bbe60bf3d75ef465d3e404,,,,,,,,,,,,,,,,,,,,,,,,,,,,,,,,,,,,,,,,,,,,,,,,,,,,,,,,,,,,,,,,,,,,,,,,,,,,,,,,,,,,,,,,,,,,,,,,,,,,,,,,,,,,,,,,,,,,,,,,,,,,,,,,,,,,,,,,,,,,,,,,,,,,,,,,,,,,,,
0,14,14,43,1,,605b0135815a24382dfabf98,62bbf9324557526fa8e9188e,2022-06-29_09h03.24.784,Colour_Asymmetry_Pilot,2022.1.3,Win32,59.98440405,62bbe60bf3d75ef465d3e404,,,,,,,,,,,,,,,,,,,,,,,,,,,,,,,,,,,,,,,,,,,,,,,,,,,,,,,,,,,,,,,,,,,,,,,,,,,,,,,,,,,,,,,,,,,,,,,,,,,,,,,,,,,,,,,,,,,,,,,,,,,,,,,,,,,,,,,,,,,,,,,,,,,,,,,,,,,,,,
0,15,15,4,1,,605b0135815a24382dfabf98,62bbf9324557526fa8e9188e,2022-06-29_09h03.24.784,Colour_Asymmetry_Pilot,2022.1.3,Win32,59.98440405,62bbe60bf3d75ef465d3e404,,,,,,,,,,,,,,,,,,,,,,,,,,,,,,,,,,,,,,,,,,,,,,,,,,,,,,,,,,,,,,,,,,,,,,,,,,,,,,,,,,,,,,,,,,,,,,,,,,,,,,,,,,,,,,,,,,,,,,,,,,,,,,,,,,,,,,,,,,,,,,,,,,,,,,,,,,,,,,
0,16,16,10,1,,605b0135815a24382dfabf98,62bbf9324557526fa8e9188e,2022-06-29_09h03.24.784,Colour_Asymmetry_Pilot,2022.1.3,Win32,59.98440405,62bbe60bf3d75ef465d3e404,,,,,,,,,,,,,,,,,,,,,,,,,,,,,,,,,,,,,,,,,,,,,,,,,,,,,,,,,,,,,,,,,,,,,,,,,,,,,,,,,,,,,,,,,,,,,,,,,,,,,,,,,,,,,,,,,,,,,,,,,,,,,,,,,,,,,,,,,,,,,,,,,,,,,,,,,,,,,,
0,17,17,57,1,,605b0135815a24382dfabf98,62bbf9324557526fa8e9188e,2022-06-29_09h03.24.784,Colour_Asymmetry_Pilot,2022.1.3,Win32,59.98440405,62bbe60bf3d75ef465d3e404,,,,,,,,,,,,,,,,,,,,,,,,,,,,,,,,,,,,,,,,,,,,,,,,,,,,,,,,,,,,,,,,,,,,,,,,,,,,,,,,,,,,,,,,,,,,,,,,,,,,,,,,,,,,,,,,,,,,,,,,,,,,,,,,,,,,,,,,,,,,,,,,,,,,,,,,,,,,,,
0,18,18,1,1,,605b0135815a24382dfabf98,62bbf9324557526fa8e9188e,2022-06-29_09h03.24.784,Colour_Asymmetry_Pilot,2022.1.3,Win32,59.98440405,62bbe60bf3d75ef465d3e404,,,,,,,,,,,,,,,,,,,,,,,,,,,,,,,,,,,,,,,,,,,,,,,,,,,,,,,,,,,,,,,,,,,,,,,,,,,,,,,,,,,,,,,,,,,,,,,,,,,,,,,,,,,,,,,,,,,,,,,,,,,,,,,,,,,,,,,,,,,,,,,,,,,,,,,,,,,,,,
0,19,19,41,1,,605b0135815a24382dfabf98,62bbf9324557526fa8e9188e,2022-06-29_09h03.24.784,Colour_Asymmetry_Pilot,2022.1.3,Win32,59.98440405,62bbe60bf3d75ef465d3e404,,,,,,,,,,,,,,,,,,,,,,,,,,,,,,,,,,,,,,,,,,,,,,,,,,,,,,,,,,,,,,,,,,,,,,,,,,,,,,,,,,,,,,,,,,,,,,,,,,,,,,,,,,,,,,,,,,,,,,,,,,,,,,,,,,,,,,,,,,,,,,,,,,,,,,,,,,,,,,
0,20,20,7,1,,605b0135815a24382dfabf98,62bbf9324557526fa8e9188e,2022-06-29_09h03.24.784,Colour_Asymmetry_Pilot,2022.1.3,Win32,59.98440405,62bbe60bf3d75ef465d3e404,,,,,,,,,,,,,,,,,,,,,,,,,,,,,,,,,,,,,,,,,,,,,,,,,,,,,,,,,,,,,,,,,,,,,,,,,,,,,,,,,,,,,,,,,,,,,,,,,,,,,,,,,,,,,,,,,,,,,,,,,,,,,,,,,,,,,,,,,,,,,,,,,,,,,,,,,,,,,,
0,21,21,40,1,,605b0135815a24382dfabf98,62bbf9324557526fa8e9188e,2022-06-29_09h03.24.784,Colour_Asymmetry_Pilot,2022.1.3,Win32,59.98440405,62bbe60bf3d75ef465d3e404,,,,,,,,,,,,,,,,,,,,,,,,,,,,,,,,,,,,,,,,,,,,,,,,,,,,,,,,,,,,,,,,,,,,,,,,,,,,,,,,,,,,,,,,,,,,,,,,,,,,,,,,,,,,,,,,,,,,,,,,,,,,,,,,,,,,,,,,,,,,,,,,,,,,,,,,,,,,,,
0,22,22,73,1,,605b0135815a24382dfabf98,62bbf9324557526fa8e9188e,2022-06-29_09h03.24.784,Colour_Asymmetry_Pilot,2022.1.3,Win32,59.98440405,62bbe60bf3d75ef465d3e404,,,,,,,,,,,,,,,,,,,,,,,,,,,,,,,,,,,,,,,,,,,,,,,,,,,,,,,,,,,,,,,,,,,,,,,,,,,,,,,,,,,,,,,,,,,,,,,,,,,,,,,,,,,,,,,,,,,,,,,,,,,,,,,,,,,,,,,,,,,,,,,,,,,,,,,,,,,,,,
0,23,23,45,1,,605b0135815a24382dfabf98,62bbf9324557526fa8e9188e,2022-06-29_09h03.24.784,Colour_Asymmetry_Pilot,2022.1.3,Win32,59.98440405,62bbe60bf3d75ef465d3e404,,,,,,,,,,,,,,,,,,,,,,,,,,,,,,,,,,,,,,,,,,,,,,,,,,,,,,,,,,,,,,,,,,,,,,,,,,,,,,,,,,,,,,,,,,,,,,,,,,,,,,,,,,,,,,,,,,,,,,,,,,,,,,,,,,,,,,,,,,,,,,,,,,,,,,,,,,,,,,
0,24,24,23,1,,605b0135815a24382dfabf98,62bbf9324557526fa8e9188e,2022-06-29_09h03.24.784,Colour_Asymmetry_Pilot,2022.1.3,Win32,59.98440405,62bbe60bf3d75ef465d3e404,,,,,,,,,,,,,,,,,,,,,,,,,,,,,,,,,,,,,,,,,,,,,,,,,,,,,,,,,,,,,,,,,,,,,,,,,,,,,,,,,,,,,,,,,,,,,,,,,,,,,,,,,,,,,,,,,,,,,,,,,,,,,,,,,,,,,,,,,,,,,,,,,,,,,,,,,,,,,,
0,25,25,65,1,,605b0135815a24382dfabf98,62bbf9324557526fa8e9188e,2022-06-29_09h03.24.784,Colour_Asymmetry_Pilot,2022.1.3,Win32,59.98440405,62bbe60bf3d75ef465d3e404,,,,,,,,,,,,,,,,,,,,,,,,,,,,,,,,,,,,,,,,,,,,,,,,,,,,,,,,,,,,,,,,,,,,,,,,,,,,,,,,,,,,,,,,,,,,,,,,,,,,,,,,,,,,,,,,,,,,,,,,,,,,,,,,,,,,,,,,,,,,,,,,,,,,,,,,,,,,,,
0,26,26,38,1,,605b0135815a24382dfabf98,62bbf9324557526fa8e9188e,2022-06-29_09h03.24.784,Colour_Asymmetry_Pilot,2022.1.3,Win32,59.98440405,62bbe60bf3d75ef465d3e404,,,,,,,,,,,,,,,,,,,,,,,,,,,,,,,,,,,,,,,,,,,,,,,,,,,,,,,,,,,,,,,,,,,,,,,,,,,,,,,,,,,,,,,,,,,,,,,,,,,,,,,,,,,,,,,,,,,,,,,,,,,,,,,,,,,,,,,,,,,,,,,,,,,,,,,,,,,,,,
0,27,27,47,1,,605b0135815a24382dfabf98,62bbf9324557526fa8e9188e,2022-06-29_09h03.24.784,Colour_Asymmetry_Pilot,2022.1.3,Win32,59.98440405,62bbe60bf3d75ef465d3e404,,,,,,,,,,,,,,,,,,,,,,,,,,,,,,,,,,,,,,,,,,,,,,,,,,,,,,,,,,,,,,,,,,,,,,,,,,,,,,,,,,,,,,,,,,,,,,,,,,,,,,,,,,,,,,,,,,,,,,,,,,,,,,,,,,,,,,,,,,,,,,,,,,,,,,,,,,,,,,
0,28,28,55,1,,605b0135815a24382dfabf98,62bbf9324557526fa8e9188e,2022-06-29_09h03.24.784,Colour_Asymmetry_Pilot,2022.1.3,Win32,59.98440405,62bbe60bf3d75ef465d3e404,,,,,,,,,,,,,,,,,,,,,,,,,,,,,,,,,,,,,,,,,,,,,,,,,,,,,,,,,,,,,,,,,,,,,,,,,,,,,,,,,,,,,,,,,,,,,,,,,,,,,,,,,,,,,,,,,,,,,,,,,,,,,,,,,,,,,,,,,,,,,,,,,,,,,,,,,,,,,,
0,29,29,48,1,,605b0135815a24382dfabf98,62bbf9324557526fa8e9188e,2022-06-29_09h03.24.784,Colour_Asymmetry_Pilot,2022.1.3,Win32,59.98440405,62bbe60bf3d75ef465d3e404,,,,,,,,,,,,,,,,,,,,,,,,,,,,,,,,,,,,,,,,,,,,,,,,,,,,,,,,,,,,,,,,,,,,,,,,,,,,,,,,,,,,,,,,,,,,,,,,,,,,,,,,,,,,,,,,,,,,,,,,,,,,,,,,,,,,,,,,,,,,,,,,,,,,,,,,,,,,,,
0,30,30,67,1,,605b0135815a24382dfabf98,62bbf9324557526fa8e9188e,2022-06-29_09h03.24.784,Colour_Asymmetry_Pilot,2022.1.3,Win32,59.98440405,62bbe60bf3d75ef465d3e404,,,,,,,,,,,,,,,,,,,,,,,,,,,,,,,,,,,,,,,,,,,,,,,,,,,,,,,,,,,,,,,,,,,,,,,,,,,,,,,,,,,,,,,,,,,,,,,,,,,,,,,,,,,,,,,,,,,,,,,,,,,,,,,,,,,,,,,,,,,,,,,,,,,,,,,,,,,,,,
0,31,31,81,1,,605b0135815a24382dfabf98,62bbf9324557526fa8e9188e,2022-06-29_09h03.24.784,Colour_Asymmetry_Pilot,2022.1.3,Win32,59.98440405,62bbe60bf3d75ef465d3e404,,,,,,,,,,,,,,,,,,,,,,,,,,,,,,,,,,,,,,,,,,,,,,,,,,,,,,,,,,,,,,,,,,,,,,,,,,,,,,,,,,,,,,,,,,,,,,,,,,,,,,,,,,,,,,,,,,,,,,,,,,,,,,,,,,,,,,,,,,,,,,,,,,,,,,,,,,,,,,
0,32,32,12,1,,605b0135815a24382dfabf98,62bbf9324557526fa8e9188e,2022-06-29_09h03.24.784,Colour_Asymmetry_Pilot,2022.1.3,Win32,59.98440405,62bbe60bf3d75ef465d3e404,,,,,,,,,,,,,,,,,,,,,,,,,,,,,,,,,,,,,,,,,,,,,,,,,,,,,,,,,,,,,,,,,,,,,,,,,,,,,,,,,,,,,,,,,,,,,,,,,,,,,,,,,,,,,,,,,,,,,,,,,,,,,,,,,,,,,,,,,,,,,,,,,,,,,,,,,,,,,,
0,33,33,21,1,,605b0135815a24382dfabf98,62bbf9324557526fa8e9188e,2022-06-29_09h03.24.784,Colour_Asymmetry_Pilot,2022.1.3,Win32,59.98440405,62bbe60bf3d75ef465d3e404,,,,,,,,,,,,,,,,,,,,,,,,,,,,,,,,,,,,,,,,,,,,,,,,,,,,,,,,,,,,,,,,,,,,,,,,,,,,,,,,,,,,,,,,,,,,,,,,,,,,,,,,,,,,,,,,,,,,,,,,,,,,,,,,,,,,,,,,,,,,,,,,,,,,,,,,,,,,,,
0,34,34,46,1,,605b0135815a24382dfabf98,62bbf9324557526fa8e9188e,2022-06-29_09h03.24.784,Colour_Asymmetry_Pilot,2022.1.3,Win32,59.98440405,62bbe60bf3d75ef465d3e404,,,,,,,,,,,,,,,,,,,,,,,,,,,,,,,,,,,,,,,,,,,,,,,,,,,,,,,,,,,,,,,,,,,,,,,,,,,,,,,,,,,,,,,,,,,,,,,,,,,,,,,,,,,,,,,,,,,,,,,,,,,,,,,,,,,,,,,,,,,,,,,,,,,,,,,,,,,,,,
0,35,35,32,1,,605b0135815a24382dfabf98,62bbf9324557526fa8e9188e,2022-06-29_09h03.24.784,Colour_Asymmetry_Pilot,2022.1.3,Win32,59.98440405,62bbe60bf3d75ef465d3e404,,,,,,,,,,,,,,,,,,,,,,,,,,,,,,,,,,,,,,,,,,,,,,,,,,,,,,,,,,,,,,,,,,,,,,,,,,,,,,,,,,,,,,,,,,,,,,,,,,,,,,,,,,,,,,,,,,,,,,,,,,,,,,,,,,,,,,,,,,,,,,,,,,,,,,,,,,,,,,
0,36,36,18,1,,605b0135815a24382dfabf98,62bbf9324557526fa8e9188e,2022-06-29_09h03.24.784,Colour_Asymmetry_Pilot,2022.1.3,Win32,59.98440405,62bbe60bf3d75ef465d3e404,,,,,,,,,,,,,,,,,,,,,,,,,,,,,,,,,,,,,,,,,,,,,,,,,,,,,,,,,,,,,,,,,,,,,,,,,,,,,,,,,,,,,,,,,,,,,,,,,,,,,,,,,,,,,,,,,,,,,,,,,,,,,,,,,,,,,,,,,,,,,,,,,,,,,,,,,,,,,,
0,37,37,26,1,,605b0135815a24382dfabf98,62bbf9324557526fa8e9188e,2022-06-29_09h03.24.784,Colour_Asymmetry_Pilot,2022.1.3,Win32,59.98440405,62bbe60bf3d75ef465d3e404,,,,,,,,,,,,,,,,,,,,,,,,,,,,,,,,,,,,,,,,,,,,,,,,,,,,,,,,,,,,,,,,,,,,,,,,,,,,,,,,,,,,,,,,,,,,,,,,,,,,,,,,,,,,,,,,,,,,,,,,,,,,,,,,,,,,,,,,,,,,,,,,,,,,,,,,,,,,,,
0,38,38,69,1,,605b0135815a24382dfabf98,62bbf9324557526fa8e9188e,2022-06-29_09h03.24.784,Colour_Asymmetry_Pilot,2022.1.3,Win32,59.98440405,62bbe60bf3d75ef465d3e404,,,,,,,,,,,,,,,,,,,,,,,,,,,,,,,,,,,,,,,,,,,,,,,,,,,,,,,,,,,,,,,,,,,,,,,,,,,,,,,,,,,,,,,,,,,,,,,,,,,,,,,,,,,,,,,,,,,,,,,,,,,,,,,,,,,,,,,,,,,,,,,,,,,,,,,,,,,,,,
0,39,39,84,1,,605b0135815a24382dfabf98,62bbf9324557526fa8e9188e,2022-06-29_09h03.24.784,Colour_Asymmetry_Pilot,2022.1.3,Win32,59.98440405,62bbe60bf3d75ef465d3e404,,,,,,,,,,,,,,,,,,,,,,,,,,,,,,,,,,,,,,,,,,,,,,,,,,,,,,,,,,,,,,,,,,,,,,,,,,,,,,,,,,,,,,,,,,,,,,,,,,,,,,,,,,,,,,,,,,,,,,,,,,,,,,,,,,,,,,,,,,,,,,,,,,,,,,,,,,,,,,
0,40,40,13,1,,605b0135815a24382dfabf98,62bbf9324557526fa8e9188e,2022-06-29_09h03.24.784,Colour_Asymmetry_Pilot,2022.1.3,Win32,59.98440405,62bbe60bf3d75ef465d3e404,,,,,,,,,,,,,,,,,,,,,,,,,,,,,,,,,,,,,,,,,,,,,,,,,,,,,,,,,,,,,,,,,,,,,,,,,,,,,,,,,,,,,,,,,,,,,,,,,,,,,,,,,,,,,,,,,,,,,,,,,,,,,,,,,,,,,,,,,,,,,,,,,,,,,,,,,,,,,,
0,41,41,15,1,,605b0135815a24382dfabf98,62bbf9324557526fa8e9188e,2022-06-29_09h03.24.784,Colour_Asymmetry_Pilot,2022.1.3,Win32,59.98440405,62bbe60bf3d75ef465d3e404,,,,,,,,,,,,,,,,,,,,,,,,,,,,,,,,,,,,,,,,,,,,,,,,,,,,,,,,,,,,,,,,,,,,,,,,,,,,,,,,,,,,,,,,,,,,,,,,,,,,,,,,,,,,,,,,,,,,,,,,,,,,,,,,,,,,,,,,,,,,,,,,,,,,,,,,,,,,,,
0,42,42,75,1,,605b0135815a24382dfabf98,62bbf9324557526fa8e9188e,2022-06-29_09h03.24.784,Colour_Asymmetry_Pilot,2022.1.3,Win32,59.98440405,62bbe60bf3d75ef465d3e404,,,,,,,,,,,,,,,,,,,,,,,,,,,,,,,,,,,,,,,,,,,,,,,,,,,,,,,,,,,,,,,,,,,,,,,,,,,,,,,,,,,,,,,,,,,,,,,,,,,,,,,,,,,,,,,,,,,,,,,,,,,,,,,,,,,,,,,,,,,,,,,,,,,,,,,,,,,,,,
0,43,43,88,1,,605b0135815a24382dfabf98,62bbf9324557526fa8e9188e,2022-06-29_09h03.24.784,Colour_Asymmetry_Pilot,2022.1.3,Win32,59.98440405,62bbe60bf3d75ef465d3e404,,,,,,,,,,,,,,,,,,,,,,,,,,,,,,,,,,,,,,,,,,,,,,,,,,,,,,,,,,,,,,,,,,,,,,,,,,,,,,,,,,,,,,,,,,,,,,,,,,,,,,,,,,,,,,,,,,,,,,,,,,,,,,,,,,,,,,,,,,,,,,,,,,,,,,,,,,,,,,
0,44,44,89,1,,605b0135815a24382dfabf98,62bbf9324557526fa8e9188e,2022-06-29_09h03.24.784,Colour_Asymmetry_Pilot,2022.1.3,Win32,59.98440405,62bbe60bf3d75ef465d3e404,,,,,,,,,,,,,,,,,,,,,,,,,,,,,,,,,,,,,,,,,,,,,,,,,,,,,,,,,,,,,,,,,,,,,,,,,,,,,,,,,,,,,,,,,,,,,,,,,,,,,,,,,,,,,,,,,,,,,,,,,,,,,,,,,,,,,,,,,,,,,,,,,,,,,,,,,,,,,,
0,45,45,90,1,,605b0135815a24382dfabf98,62bbf9324557526fa8e9188e,2022-06-29_09h03.24.784,Colour_Asymmetry_Pilot,2022.1.3,Win32,59.98440405,62bbe60bf3d75ef465d3e404,,,,,,,,,,,,,,,,,,,,,,,,,,,,,,,,,,,,,,,,,,,,,,,,,,,,,,,,,,,,,,,,,,,,,,,,,,,,,,,,,,,,,,,,,,,,,,,,,,,,,,,,,,,,,,,,,,,,,,,,,,,,,,,,,,,,,,,,,,,,,,,,,,,,,,,,,,,,,,
0,46,46,64,1,,605b0135815a24382dfabf98,62bbf9324557526fa8e9188e,2022-06-29_09h03.24.784,Colour_Asymmetry_Pilot,2022.1.3,Win32,59.98440405,62bbe60bf3d75ef465d3e404,,,,,,,,,,,,,,,,,,,,,,,,,,,,,,,,,,,,,,,,,,,,,,,,,,,,,,,,,,,,,,,,,,,,,,,,,,,,,,,,,,,,,,,,,,,,,,,,,,,,,,,,,,,,,,,,,,,,,,,,,,,,,,,,,,,,,,,,,,,,,,,,,,,,,,,,,,,,,,
0,47,47,6,1,,605b0135815a24382dfabf98,62bbf9324557526fa8e9188e,2022-06-29_09h03.24.784,Colour_Asymmetry_Pilot,2022.1.3,Win32,59.98440405,62bbe60bf3d75ef465d3e404,,,,,,,,,,,,,,,,,,,,,,,,,,,,,,,,,,,,,,,,,,,,,,,,,,,,,,,,,,,,,,,,,,,,,,,,,,,,,,,,,,,,,,,,,,,,,,,,,,,,,,,,,,,,,,,,,,,,,,,,,,,,,,,,,,,,,,,,,,,,,,,,,,,,,,,,,,,,,,
0,48,48,92,1,,605b0135815a24382dfabf98,62bbf9324557526fa8e9188e,2022-06-29_09h03.24.784,Colour_Asymmetry_Pilot,2022.1.3,Win32,59.98440405,62bbe60bf3d75ef465d3e404,,,,,,,,,,,,,,,,,,,,,,,,,,,,,,,,,,,,,,,,,,,,,,,,,,,,,,,,,,,,,,,,,,,,,,,,,,,,,,,,,,,,,,,,,,,,,,,,,,,,,,,,,,,,,,,,,,,,,,,,,,,,,,,,,,,,,,,,,,,,,,,,,,,,,,,,,,,,,,
0,49,49,39,1,,605b0135815a24382dfabf98,62bbf9324557526fa8e9188e,2022-06-29_09h03.24.784,Colour_Asymmetry_Pilot,2022.1.3,Win32,59.98440405,62bbe60bf3d75ef465d3e404,,,,,,,,,,,,,,,,,,,,,,,,,,,,,,,,,,,,,,,,,,,,,,,,,,,,,,,,,,,,,,,,,,,,,,,,,,,,,,,,,,,,,,,,,,,,,,,,,,,,,,,,,,,,,,,,,,,,,,,,,,,,,,,,,,,,,,,,,,,,,,,,,,,,,,,,,,,,,,
0,50,50,54,1,,605b0135815a24382dfabf98,62bbf9324557526fa8e9188e,2022-06-29_09h03.24.784,Colour_Asymmetry_Pilot,2022.1.3,Win32,59.98440405,62bbe60bf3d75ef465d3e404,,,,,,,,,,,,,,,,,,,,,,,,,,,,,,,,,,,,,,,,,,,,,,,,,,,,,,,,,,,,,,,,,,,,,,,,,,,,,,,,,,,,,,,,,,,,,,,,,,,,,,,,,,,,,,,,,,,,,,,,,,,,,,,,,,,,,,,,,,,,,,,,,,,,,,,,,,,,,,
0,51,51,2,1,,605b0135815a24382dfabf98,62bbf9324557526fa8e9188e,2022-06-29_09h03.24.784,Colour_Asymmetry_Pilot,2022.1.3,Win32,59.98440405,62bbe60bf3d75ef465d3e404,,,,,,,,,,,,,,,,,,,,,,,,,,,,,,,,,,,,,,,,,,,,,,,,,,,,,,,,,,,,,,,,,,,,,,,,,,,,,,,,,,,,,,,,,,,,,,,,,,,,,,,,,,,,,,,,,,,,,,,,,,,,,,,,,,,,,,,,,,,,,,,,,,,,,,,,,,,,,,
0,52,52,52,1,,605b0135815a24382dfabf98,62bbf9324557526fa8e9188e,2022-06-29_09h03.24.784,Colour_Asymmetry_Pilot,2022.1.3,Win32,59.98440405,62bbe60bf3d75ef465d3e404,,,,,,,,,,,,,,,,,,,,,,,,,,,,,,,,,,,,,,,,,,,,,,,,,,,,,,,,,,,,,,,,,,,,,,,,,,,,,,,,,,,,,,,,,,,,,,,,,,,,,,,,,,,,,,,,,,,,,,,,,,,,,,,,,,,,,,,,,,,,,,,,,,,,,,,,,,,,,,
0,53,53,72,1,,605b0135815a24382dfabf98,62bbf9324557526fa8e9188e,2022-06-29_09h03.24.784,Colour_Asymmetry_Pilot,2022.1.3,Win32,59.98440405,62bbe60bf3d75ef465d3e404,,,,,,,,,,,,,,,,,,,,,,,,,,,,,,,,,,,,,,,,,,,,,,,,,,,,,,,,,,,,,,,,,,,,,,,,,,,,,,,,,,,,,,,,,,,,,,,,,,,,,,,,,,,,,,,,,,,,,,,,,,,,,,,,,,,,,,,,,,,,,,,,,,,,,,,,,,,,,,
0,54,54,27,1,,605b0135815a24382dfabf98,62bbf9324557526fa8e9188e,2022-06-29_09h03.24.784,Colour_Asymmetry_Pilot,2022.1.3,Win32,59.98440405,62bbe60bf3d75ef465d3e404,,,,,,,,,,,,,,,,,,,,,,,,,,,,,,,,,,,,,,,,,,,,,,,,,,,,,,,,,,,,,,,,,,,,,,,,,,,,,,,,,,,,,,,,,,,,,,,,,,,,,,,,,,,,,,,,,,,,,,,,,,,,,,,,,,,,,,,,,,,,,,,,,,,,,,,,,,,,,,
0,55,55,62,1,,605b0135815a24382dfabf98,62bbf9324557526fa8e9188e,2022-06-29_09h03.24.784,Colour_Asymmetry_Pilot,2022.1.3,Win32,59.98440405,62bbe60bf3d75ef465d3e404,,,,,,,,,,,,,,,,,,,,,,,,,,,,,,,,,,,,,,,,,,,,,,,,,,,,,,,,,,,,,,,,,,,,,,,,,,,,,,,,,,,,,,,,,,,,,,,,,,,,,,,,,,,,,,,,,,,,,,,,,,,,,,,,,,,,,,,,,,,,,,,,,,,,,,,,,,,,,,
0,56,56,61,1,,605b0135815a24382dfabf98,62bbf9324557526fa8e9188e,2022-06-29_09h03.24.784,Colour_Asymmetry_Pilot,2022.1.3,Win32,59.98440405,62bbe60bf3d75ef465d3e404,,,,,,,,,,,,,,,,,,,,,,,,,,,,,,,,,,,,,,,,,,,,,,,,,,,,,,,,,,,,,,,,,,,,,,,,,,,,,,,,,,,,,,,,,,,,,,,,,,,,,,,,,,,,,,,,,,,,,,,,,,,,,,,,,,,,,,,,,,,,,,,,,,,,,,,,,,,,,,
0,57,57,19,1,,605b0135815a24382dfabf98,62bbf9324557526fa8e9188e,2022-06-29_09h03.24.784,Colour_Asymmetry_Pilot,2022.1.3,Win32,59.98440405,62bbe60bf3d75ef465d3e404,,,,,,,,,,,,,,,,,,,,,,,,,,,,,,,,,,,,,,,,,,,,,,,,,,,,,,,,,,,,,,,,,,,,,,,,,,,,,,,,,,,,,,,,,,,,,,,,,,,,,,,,,,,,,,,,,,,,,,,,,,,,,,,,,,,,,,,,,,,,,,,,,,,,,,,,,,,,,,
0,58,58,14,1,,605b0135815a24382dfabf98,62bbf9324557526fa8e9188e,2022-06-29_09h03.24.784,Colour_Asymmetry_Pilot,2022.1.3,Win32,59.98440405,62bbe60bf3d75ef465d3e404,,,,,,,,,,,,,,,,,,,,,,,,,,,,,,,,,,,,,,,,,,,,,,,,,,,,,,,,,,,,,,,,,,,,,,,,,,,,,,,,,,,,,,,,,,,,,,,,,,,,,,,,,,,,,,,,,,,,,,,,,,,,,,,,,,,,,,,,,,,,,,,,,,,,,,,,,,,,,,
0,59,59,74,1,,605b0135815a24382dfabf98,62bbf9324557526fa8e9188e,2022-06-29_09h03.24.784,Colour_Asymmetry_Pilot,2022.1.3,Win32,59.98440405,62bbe60bf3d75ef465d3e404,,,,,,,,,,,,,,,,,,,,,,,,,,,,,,,,,,,,,,,,,,,,,,,,,,,,,,,,,,,,,,,,,,,,,,,,,,,,,,,,,,,,,,,,,,,,,,,,,,,,,,,,,,,,,,,,,,,,,,,,,,,,,,,,,,,,,,,,,,,,,,,,,,,,,,,,,,,,,,
0,60,60,25,1,,605b0135815a24382dfabf98,62bbf9324557526fa8e9188e,2022-06-29_09h03.24.784,Colour_Asymmetry_Pilot,2022.1.3,Win32,59.98440405,62bbe60bf3d75ef465d3e404,,,,,,,,,,,,,,,,,,,,,,,,,,,,,,,,,,,,,,,,,,,,,,,,,,,,,,,,,,,,,,,,,,,,,,,,,,,,,,,,,,,,,,,,,,,,,,,,,,,,,,,,,,,,,,,,,,,,,,,,,,,,,,,,,,,,,,,,,,,,,,,,,,,,,,,,,,,,,,
0,61,61,53,1,,605b0135815a24382dfabf98,62bbf9324557526fa8e9188e,2022-06-29_09h03.24.784,Colour_Asymmetry_Pilot,2022.1.3,Win32,59.98440405,62bbe60bf3d75ef465d3e404,,,,,,,,,,,,,,,,,,,,,,,,,,,,,,,,,,,,,,,,,,,,,,,,,,,,,,,,,,,,,,,,,,,,,,,,,,,,,,,,,,,,,,,,,,,,,,,,,,,,,,,,,,,,,,,,,,,,,,,,,,,,,,,,,,,,,,,,,,,,,,,,,,,,,,,,,,,,,,
0,62,62,20,1,,605b0135815a24382dfabf98,62bbf9324557526fa8e9188e,2022-06-29_09h03.24.784,Colour_Asymmetry_Pilot,2022.1.3,Win32,59.98440405,62bbe60bf3d75ef465d3e404,,,,,,,,,,,,,,,,,,,,,,,,,,,,,,,,,,,,,,,,,,,,,,,,,,,,,,,,,,,,,,,,,,,,,,,,,,,,,,,,,,,,,,,,,,,,,,,,,,,,,,,,,,,,,,,,,,,,,,,,,,,,,,,,,,,,,,,,,,,,,,,,,,,,,,,,,,,,,,
0,63,63,70,1,,605b0135815a24382dfabf98,62bbf9324557526fa8e9188e,2022-06-29_09h03.24.784,Colour_Asymmetry_Pilot,2022.1.3,Win32,59.98440405,62bbe60bf3d75ef465d3e404,,,,,,,,,,,,,,,,,,,,,,,,,,,,,,,,,,,,,,,,,,,,,,,,,,,,,,,,,,,,,,,,,,,,,,,,,,,,,,,,,,,,,,,,,,,,,,,,,,,,,,,,,,,,,,,,,,,,,,,,,,,,,,,,,,,,,,,,,,,,,,,,,,,,,,,,,,,,,,
0,64,64,22,1,,605b0135815a24382dfabf98,62bbf9324557526fa8e9188e,2022-06-29_09h03.24.784,Colour_Asymmetry_Pilot,2022.1.3,Win32,59.98440405,62bbe60bf3d75ef465d3e404,,,,,,,,,,,,,,,,,,,,,,,,,,,,,,,,,,,,,,,,,,,,,,,,,,,,,,,,,,,,,,,,,,,,,,,,,,,,,,,,,,,,,,,,,,,,,,,,,,,,,,,,,,,,,,,,,,,,,,,,,,,,,,,,,,,,,,,,,,,,,,,,,,,,,,,,,,,,,,
0,65,65,76,1,,605b0135815a24382dfabf98,62bbf9324557526fa8e9188e,2022-06-29_09h03.24.784,Colour_Asymmetry_Pilot,2022.1.3,Win32,59.98440405,62bbe60bf3d75ef465d3e404,,,,,,,,,,,,,,,,,,,,,,,,,,,,,,,,,,,,,,,,,,,,,,,,,,,,,,,,,,,,,,,,,,,,,,,,,,,,,,,,,,,,,,,,,,,,,,,,,,,,,,,,,,,,,,,,,,,,,,,,,,,,,,,,,,,,,,,,,,,,,,,,,,,,,,,,,,,,,,
0,66,66,0,1,,605b0135815a24382dfabf98,62bbf9324557526fa8e9188e,2022-06-29_09h03.24.784,Colour_Asymmetry_Pilot,2022.1.3,Win32,59.98440405,62bbe60bf3d75ef465d3e404,,,,,,,,,,,,,,,,,,,,,,,,,,,,,,,,,,,,,,,,,,,,,,,,,,,,,,,,,,,,,,,,,,,,,,,,,,,,,,,,,,,,,,,,,,,,,,,,,,,,,,,,,,,,,,,,,,,,,,,,,,,,,,,,,,,,,,,,,,,,,,,,,,,,,,,,,,,,,,
0,67,67,86,1,,605b0135815a24382dfabf98,62bbf9324557526fa8e9188e,2022-06-29_09h03.24.784,Colour_Asymmetry_Pilot,2022.1.3,Win32,59.98440405,62bbe60bf3d75ef465d3e404,,,,,,,,,,,,,,,,,,,,,,,,,,,,,,,,,,,,,,,,,,,,,,,,,,,,,,,,,,,,,,,,,,,,,,,,,,,,,,,,,,,,,,,,,,,,,,,,,,,,,,,,,,,,,,,,,,,,,,,,,,,,,,,,,,,,,,,,,,,,,,,,,,,,,,,,,,,,,,
0,68,68,71,1,,605b0135815a24382dfabf98,62bbf9324557526fa8e9188e,2022-06-29_09h03.24.784,Colour_Asymmetry_Pilot,2022.1.3,Win32,59.98440405,62bbe60bf3d75ef465d3e404,,,,,,,,,,,,,,,,,,,,,,,,,,,,,,,,,,,,,,,,,,,,,,,,,,,,,,,,,,,,,,,,,,,,,,,,,,,,,,,,,,,,,,,,,,,,,,,,,,,,,,,,,,,,,,,,,,,,,,,,,,,,,,,,,,,,,,,,,,,,,,,,,,,,,,,,,,,,,,
0,69,69,91,1,,605b0135815a24382dfabf98,62bbf9324557526fa8e9188e,2022-06-29_09h03.24.784,Colour_Asymmetry_Pilot,2022.1.3,Win32,59.98440405,62bbe60bf3d75ef465d3e404,,,,,,,,,,,,,,,,,,,,,,,,,,,,,,,,,,,,,,,,,,,,,,,,,,,,,,,,,,,,,,,,,,,,,,,,,,,,,,,,,,,,,,,,,,,,,,,,,,,,,,,,,,,,,,,,,,,,,,,,,,,,,,,,,,,,,,,,,,,,,,,,,,,,,,,,,,,,,,
0,70,70,28,1,,605b0135815a24382dfabf98,62bbf9324557526fa8e9188e,2022-06-29_09h03.24.784,Colour_Asymmetry_Pilot,2022.1.3,Win32,59.98440405,62bbe60bf3d75ef465d3e404,,,,,,,,,,,,,,,,,,,,,,,,,,,,,,,,,,,,,,,,,,,,,,,,,,,,,,,,,,,,,,,,,,,,,,,,,,,,,,,,,,,,,,,,,,,,,,,,,,,,,,,,,,,,,,,,,,,,,,,,,,,,,,,,,,,,,,,,,,,,,,,,,,,,,,,,,,,,,,
0,71,71,30,1,,605b0135815a24382dfabf98,62bbf9324557526fa8e9188e,2022-06-29_09h03.24.784,Colour_Asymmetry_Pilot,2022.1.3,Win32,59.98440405,62bbe60bf3d75ef465d3e404,,,,,,,,,,,,,,,,,,,,,,,,,,,,,,,,,,,,,,,,,,,,,,,,,,,,,,,,,,,,,,,,,,,,,,,,,,,,,,,,,,,,,,,,,,,,,,,,,,,,,,,,,,,,,,,,,,,,,,,,,,,,,,,,,,,,,,,,,,,,,,,,,,,,,,,,,,,,,,
0,72,72,51,1,,605b0135815a24382dfabf98,62bbf9324557526fa8e9188e,2022-06-29_09h03.24.784,Colour_Asymmetry_Pilot,2022.1.3,Win32,59.98440405,62bbe60bf3d75ef465d3e404,,,,,,,,,,,,,,,,,,,,,,,,,,,,,,,,,,,,,,,,,,,,,,,,,,,,,,,,,,,,,,,,,,,,,,,,,,,,,,,,,,,,,,,,,,,,,,,,,,,,,,,,,,,,,,,,,,,,,,,,,,,,,,,,,,,,,,,,,,,,,,,,,,,,,,,,,,,,,,
0,73,73,9,1,,605b0135815a24382dfabf98,62bbf9324557526fa8e9188e,2022-06-29_09h03.24.784,Colour_Asymmetry_Pilot,2022.1.3,Win32,59.98440405,62bbe60bf3d75ef465d3e404,,,,,,,,,,,,,,,,,,,,,,,,,,,,,,,,,,,,,,,,,,,,,,,,,,,,,,,,,,,,,,,,,,,,,,,,,,,,,,,,,,,,,,,,,,,,,,,,,,,,,,,,,,,,,,,,,,,,,,,,,,,,,,,,,,,,,,,,,,,,,,,,,,,,,,,,,,,,,,
0,74,74,35,1,,605b0135815a24382dfabf98,62bbf9324557526fa8e9188e,2022-06-29_09h03.24.784,Colour_Asymmetry_Pilot,2022.1.3,Win32,59.98440405,62bbe60bf3d75ef465d3e404,,,,,,,,,,,,,,,,,,,,,,,,,,,,,,,,,,,,,,,,,,,,,,,,,,,,,,,,,,,,,,,,,,,,,,,,,,,,,,,,,,,,,,,,,,,,,,,,,,,,,,,,,,,,,,,,,,,,,,,,,,,,,,,,,,,,,,,,,,,,,,,,,,,,,,,,,,,,,,
0,75,75,85,1,,605b0135815a24382dfabf98,62bbf9324557526fa8e9188e,2022-06-29_09h03.24.784,Colour_Asymmetry_Pilot,2022.1.3,Win32,59.98440405,62bbe60bf3d75ef465d3e404,,,,,,,,,,,,,,,,,,,,,,,,,,,,,,,,,,,,,,,,,,,,,,,,,,,,,,,,,,,,,,,,,,,,,,,,,,,,,,,,,,,,,,,,,,,,,,,,,,,,,,,,,,,,,,,,,,,,,,,,,,,,,,,,,,,,,,,,,,,,,,,,,,,,,,,,,,,,,,
0,76,76,77,1,,605b0135815a24382dfabf98,62bbf9324557526fa8e9188e,2022-06-29_09h03.24.784,Colour_Asymmetry_Pilot,2022.1.3,Win32,59.98440405,62bbe60bf3d75ef465d3e404,,,,,,,,,,,,,,,,,,,,,,,,,,,,,,,,,,,,,,,,,,,,,,,,,,,,,,,,,,,,,,,,,,,,,,,,,,,,,,,,,,,,,,,,,,,,,,,,,,,,,,,,,,,,,,,,,,,,,,,,,,,,,,,,,,,,,,,,,,,,,,,,,,,,,,,,,,,,,,
0,77,77,82,1,,605b0135815a24382dfabf98,62bbf9324557526fa8e9188e,2022-06-29_09h03.24.784,Colour_Asymmetry_Pilot,2022.1.3,Win32,59.98440405,62bbe60bf3d75ef465d3e404,,,,,,,,,,,,,,,,,,,,,,,,,,,,,,,,,,,,,,,,,,,,,,,,,,,,,,,,,,,,,,,,,,,,,,,,,,,,,,,,,,,,,,,,,,,,,,,,,,,,,,,,,,,,,,,,,,,,,,,,,,,,,,,,,,,,,,,,,,,,,,,,,,,,,,,,,,,,,,
0,78,78,42,1,,605b0135815a24382dfabf98,62bbf9324557526fa8e9188e,2022-06-29_09h03.24.784,Colour_Asymmetry_Pilot,2022.1.3,Win32,59.98440405,62bbe60bf3d75ef465d3e404,,,,,,,,,,,,,,,,,,,,,,,,,,,,,,,,,,,,,,,,,,,,,,,,,,,,,,,,,,,,,,,,,,,,,,,,,,,,,,,,,,,,,,,,,,,,,,,,,,,,,,,,,,,,,,,,,,,,,,,,,,,,,,,,,,,,,,,,,,,,,,,,,,,,,,,,,,,,,,
0,79,79,80,1,,605b0135815a24382dfabf98,62bbf9324557526fa8e9188e,2022-06-29_09h03.24.784,Colour_Asymmetry_Pilot,2022.1.3,Win32,59.98440405,62bbe60bf3d75ef465d3e404,,,,,,,,,,,,,,,,,,,,,,,,,,,,,,,,,,,,,,,,,,,,,,,,,,,,,,,,,,,,,,,,,,,,,,,,,,,,,,,,,,,,,,,,,,,,,,,,,,,,,,,,,,,,,,,,,,,,,,,,,,,,,,,,,,,,,,,,,,,,,,,,,,,,,,,,,,,,,,
0,80,80,31,1,,605b0135815a24382dfabf98,62bbf9324557526fa8e9188e,2022-06-29_09h03.24.784,Colour_Asymmetry_Pilot,2022.1.3,Win32,59.98440405,62bbe60bf3d75ef465d3e404,,,,,,,,,,,,,,,,,,,,,,,,,,,,,,,,,,,,,,,,,,,,,,,,,,,,,,,,,,,,,,,,,,,,,,,,,,,,,,,,,,,,,,,,,,,,,,,,,,,,,,,,,,,,,,,,,,,,,,,,,,,,,,,,,,,,,,,,,,,,,,,,,,,,,,,,,,,,,,
0,81,81,11,1,,605b0135815a24382dfabf98,62bbf9324557526fa8e9188e,2022-06-29_09h03.24.784,Colour_Asymmetry_Pilot,2022.1.3,Win32,59.98440405,62bbe60bf3d75ef465d3e404,,,,,,,,,,,,,,,,,,,,,,,,,,,,,,,,,,,,,,,,,,,,,,,,,,,,,,,,,,,,,,,,,,,,,,,,,,,,,,,,,,,,,,,,,,,,,,,,,,,,,,,,,,,,,,,,,,,,,,,,,,,,,,,,,,,,,,,,,,,,,,,,,,,,,,,,,,,,,,
0,82,82,59,1,,605b0135815a24382dfabf98,62bbf9324557526fa8e9188e,2022-06-29_09h03.24.784,Colour_Asymmetry_Pilot,2022.1.3,Win32,59.98440405,62bbe60bf3d75ef465d3e404,,,,,,,,,,,,,,,,,,,,,,,,,,,,,,,,,,,,,,,,,,,,,,,,,,,,,,,,,,,,,,,,,,,,,,,,,,,,,,,,,,,,,,,,,,,,,,,,,,,,,,,,,,,,,,,,,,,,,,,,,,,,,,,,,,,,,,,,,,,,,,,,,,,,,,,,,,,,,,
0,83,83,68,1,,605b0135815a24382dfabf98,62bbf9324557526fa8e9188e,2022-06-29_09h03.24.784,Colour_Asymmetry_Pilot,2022.1.3,Win32,59.98440405,62bbe60bf3d75ef465d3e404,,,,,,,,,,,,,,,,,,,,,,,,,,,,,,,,,,,,,,,,,,,,,,,,,,,,,,,,,,,,,,,,,,,,,,,,,,,,,,,,,,,,,,,,,,,,,,,,,,,,,,,,,,,,,,,,,,,,,,,,,,,,,,,,,,,,,,,,,,,,,,,,,,,,,,,,,,,,,,
0,84,84,58,1,,605b0135815a24382dfabf98,62bbf9324557526fa8e9188e,2022-06-29_09h03.24.784,Colour_Asymmetry_Pilot,2022.1.3,Win32,59.98440405,62bbe60bf3d75ef465d3e404,,,,,,,,,,,,,,,,,,,,,,,,,,,,,,,,,,,,,,,,,,,,,,,,,,,,,,,,,,,,,,,,,,,,,,,,,,,,,,,,,,,,,,,,,,,,,,,,,,,,,,,,,,,,,,,,,,,,,,,,,,,,,,,,,,,,,,,,,,,,,,,,,,,,,,,,,,,,,,
0,85,85,79,1,,605b0135815a24382dfabf98,62bbf9324557526fa8e9188e,2022-06-29_09h03.24.784,Colour_Asymmetry_Pilot,2022.1.3,Win32,59.98440405,62bbe60bf3d75ef465d3e404,,,,,,,,,,,,,,,,,,,,,,,,,,,,,,,,,,,,,,,,,,,,,,,,,,,,,,,,,,,,,,,,,,,,,,,,,,,,,,,,,,,,,,,,,,,,,,,,,,,,,,,,,,,,,,,,,,,,,,,,,,,,,,,,,,,,,,,,,,,,,,,,,,,,,,,,,,,,,,
0,86,86,37,1,,605b0135815a24382dfabf98,62bbf9324557526fa8e9188e,2022-06-29_09h03.24.784,Colour_Asymmetry_Pilot,2022.1.3,Win32,59.98440405,62bbe60bf3d75ef465d3e404,,,,,,,,,,,,,,,,,,,,,,,,,,,,,,,,,,,,,,,,,,,,,,,,,,,,,,,,,,,,,,,,,,,,,,,,,,,,,,,,,,,,,,,,,,,,,,,,,,,,,,,,,,,,,,,,,,,,,,,,,,,,,,,,,,,,,,,,,,,,,,,,,,,,,,,,,,,,,,
0,87,87,16,1,,605b0135815a24382dfabf98,62bbf9324557526fa8e9188e,2022-06-29_09h03.24.784,Colour_Asymmetry_Pilot,2022.1.3,Win32,59.98440405,62bbe60bf3d75ef465d3e404,,,,,,,,,,,,,,,,,,,,,,,,,,,,,,,,,,,,,,,,,,,,,,,,,,,,,,,,,,,,,,,,,,,,,,,,,,,,,,,,,,,,,,,,,,,,,,,,,,,,,,,,,,,,,,,,,,,,,,,,,,,,,,,,,,,,,,,,,,,,,,,,,,,,,,,,,,,,,,
0,88,88,78,1,,605b0135815a24382dfabf98,62bbf9324557526fa8e9188e,2022-06-29_09h03.24.784,Colour_Asymmetry_Pilot,2022.1.3,Win32,59.98440405,62bbe60bf3d75ef465d3e404,,,,,,,,,,,,,,,,,,,,,,,,,,,,,,,,,,,,,,,,,,,,,,,,,,,,,,,,,,,,,,,,,,,,,,,,,,,,,,,,,,,,,,,,,,,,,,,,,,,,,,,,,,,,,,,,,,,,,,,,,,,,,,,,,,,,,,,,,,,,,,,,,,,,,,,,,,,,,,
0,89,89,87,1,,605b0135815a24382dfabf98,62bbf9324557526fa8e9188e,2022-06-29_09h03.24.784,Colour_Asymmetry_Pilot,2022.1.3,Win32,59.98440405,62bbe60bf3d75ef465d3e404,,,,,,,,,,,,,,,,,,,,,,,,,,,,,,,,,,,,,,,,,,,,,,,,,,,,,,,,,,,,,,,,,,,,,,,,,,,,,,,,,,,,,,,,,,,,,,,,,,,,,,,,,,,,,,,,,,,,,,,,,,,,,,,,,,,,,,,,,,,,,,,,,,,,,,,,,,,,,,
0,90,90,17,1,,605b0135815a24382dfabf98,62bbf9324557526fa8e9188e,2022-06-29_09h03.24.784,Colour_Asymmetry_Pilot,2022.1.3,Win32,59.98440405,62bbe60bf3d75ef465d3e404,,,,,,,,,,,,,,,,,,,,,,,,,,,,,,,,,,,,,,,,,,,,,,,,,,,,,,,,,,,,,,,,,,,,,,,,,,,,,,,,,,,,,,,,,,,,,,,,,,,,,,,,,,,,,,,,,,,,,,,,,,,,,,,,,,,,,,,,,,,,,,,,,,,,,,,,,,,,,,
0,91,91,63,1,,605b0135815a24382dfabf98,62bbf9324557526fa8e9188e,2022-06-29_09h03.24.784,Colour_Asymmetry_Pilot,2022.1.3,Win32,59.98440405,62bbe60bf3d75ef465d3e404,,,,,,,,,,,,,,,,,,,,,,,,,,,,,,,,,,,,,,,,,,,,,,,,,,,,,,,,,,,,,,,,,,,,,,,,,,,,,,,,,,,,,,,,,,,,,,,,,,,,,,,,,,,,,,,,,,,,,,,,,,,,,,,,,,,,,,,,,,,,,,,,,,,,,,,,,,,,,,
0,92,92,66,1,,605b0135815a24382dfabf98,62bbf9324557526fa8e9188e,2022-06-29_09h03.24.784,Colour_Asymmetry_Pilot,2022.1.3,Win32,59.98440405,62bbe60bf3d75ef465d3e404,,,,,,,,,,,,,,,,,,,,,,,,,,,,,,,,,,,,,,,,,,,,,,,,,,,,,,,,,,,,,,,,,,,,,,,,,,,,,,,,,,,,,,,,,,,,,,,,,,,,,,,,,,,,,,,,,,,,,,,,,,,,,,,,,,,,,,,,,,,,,,,,,,,,,,,,,,,,,,
,,,,,,605b0135815a24382dfabf98,62bbf9324557526fa8e9188e,2022-06-29_09h03.24.784,Colour_Asymmetry_Pilot,2022.1.3,Win32,59.98440405,62bbe60bf3d75ef465d3e404,0,0,0,149,1,threefour,,,,,,,,,,,,,,,,,,,,,,,,,,,,,,,,,,,,,,,,,,,,,,,,,,,,,,,,,,,,,,,,,,,,,,,,,,,,,,,,,,,,,,,,,,,,,,,,,,,,,,,,,,,,,,,,,,,,,,,,,,,,,,,,,,,,,,,,,,,,,,,,,,,,,,,,
,,,,,,605b0135815a24382dfabf98,62bbf9324557526fa8e9188e,2022-06-29_09h03.24.784,Colour_Asymmetry_Pilot,2022.1.3,Win32,59.98440405,62bbe60bf3d75ef465d3e404,0,1,1,25,1,onethree,,,,,,,,,,,,,,,,,,,,,,,,,,,,,,,,,,,,,,,,,,,,,,,,,,,,,,,,,,,,,,,,,,,,,,,,,,,,,,,,,,,,,,,,,,,,,,,,,,,,,,,,,,,,,,,,,,,,,,,,,,,,,,,,,,,,,,,,,,,,,,,,,,,,,,,,
,,,,,,605b0135815a24382dfabf98,62bbf9324557526fa8e9188e,2022-06-29_09h03.24.784,Colour_Asymmetry_Pilot,2022.1.3,Win32,59.98440405,62bbe60bf3d75ef465d3e404,0,2,2,128,1,onetwo,,,,,,,,,,,,,,,,,,,,,,,,,,,,,,,,,,,,,,,,,,,,,,,,,,,,,,,,,,,,,,,,,,,,,,,,,,,,,,,,,,,,,,,,,,,,,,,,,,,,,,,,,,,,,,,,,,,,,,,,,,,,,,,,,,,,,,,,,,,,,,,,,,,,,,,,
,,,,,,605b0135815a24382dfabf98,62bbf9324557526fa8e9188e,2022-06-29_09h03.24.784,Colour_Asymmetry_Pilot,2022.1.3,Win32,59.98440405,62bbe60bf3d75ef465d3e404,0,3,3,119,1,fourthree,,,,,,,,,,,,,,,,,,,,,,,,,,,,,,,,,,,,,,,,,,,,,,,,,,,,,,,,,,,,,,,,,,,,,,,,,,,,,,,,,,,,,,,,,,,,,,,,,,,,,,,,,,,,,,,,,,,,,,,,,,,,,,,,,,,,,,,,,,,,,,,,,,,,,,,,
,,,,,,605b0135815a24382dfabf98,62bbf9324557526fa8e9188e,2022-06-29_09h03.24.784,Colour_Asymmetry_Pilot,2022.1.3,Win32,59.98440405,62bbe60bf3d75ef465d3e404,0,4,4,140,1,threeone,,,,,,,,,,,,,,,,,,,,,,,,,,,,,,,,,,,,,,,,,,,,,,,,,,,,,,,,,,,,,,,,,,,,,,,,,,,,,,,,,,,,,,,,,,,,,,,,,,,,,,,,,,,,,,,,,,,,,,,,,,,,,,,,,,,,,,,,,,,,,,,,,,,,,,,,
,,,,,,605b0135815a24382dfabf98,62bbf9324557526fa8e9188e,2022-06-29_09h03.24.784,Colour_Asymmetry_Pilot,2022.1.3,Win32,59.98440405,62bbe60bf3d75ef465d3e404,0,5,5,94,1,fourtwo,,,,,,,,,,,,,,,,,,,,,,,,,,,,,,,,,,,,,,,,,,,,,,,,,,,,,,,,,,,,,,,,,,,,,,,,,,,,,,,,,,,,,,,,,,,,,,,,,,,,,,,,,,,,,,,,,,,,,,,,,,,,,,,,,,,,,,,,,,,,,,,,,,,,,,,,
,,,,,,605b0135815a24382dfabf98,62bbf9324557526fa8e9188e,2022-06-29_09h03.24.784,Colour_Asymmetry_Pilot,2022.1.3,Win32,59.98440405,62bbe60bf3d75ef465d3e404,0,6,6,104,1,onetwo,,,,,,,,,,,,,,,,,,,,,,,,,,,,,,,,,,,,,,,,,,,,,,,,,,,,,,,,,,,,,,,,,,,,,,,,,,,,,,,,,,,,,,,,,,,,,,,,,,,,,,,,,,,,,,,,,,,,,,,,,,,,,,,,,,,,,,,,,,,,,,,,,,,,,,,,
,,,,,,605b0135815a24382dfabf98,62bbf9324557526fa8e9188e,2022-06-29_09h03.24.784,Colour_Asymmetry_Pilot,2022.1.3,Win32,59.98440405,62bbe60bf3d75ef465d3e404,0,7,7,157,1,threefour,,,,,,,,,,,,,,,,,,,,,,,,,,,,,,,,,,,,,,,,,,,,,,,,,,,,,,,,,,,,,,,,,,,,,,,,,,,,,,,,,,,,,,,,,,,,,,,,,,,,,,,,,,,,,,,,,,,,,,,,,,,,,,,,,,,,,,,,,,,,,,,,,,,,,,,,
,,,,,,605b0135815a24382dfabf98,62bbf9324557526fa8e9188e,2022-06-29_09h03.24.784,Colour_Asymmetry_Pilot,2022.1.3,Win32,59.98440405,62bbe60bf3d75ef465d3e404,0,8,8,117,1,threefour,,,,,,,,,,,,,,,,,,,,,,,,,,,,,,,,,,,,,,,,,,,,,,,,,,,,,,,,,,,,,,,,,,,,,,,,,,,,,,,,,,,,,,,,,,,,,,,,,,,,,,,,,,,,,,,,,,,,,,,,,,,,,,,,,,,,,,,,,,,,,,,,,,,,,,,,
,,,,,,605b0135815a24382dfabf98,62bbf9324557526fa8e9188e,2022-06-29_09h03.24.784,Colour_Asymmetry_Pilot,2022.1.3,Win32,59.98440405,62bbe60bf3d75ef465d3e404,0,9,9,1,1,onethree,,,,,,,,,,,,,,,,,,,,,,,,,,,,,,,,,,,,,,,,,,,,,,,,,,,,,,,,,,,,,,,,,,,,,,,,,,,,,,,,,,,,,,,,,,,,,,,,,,,,,,,,,,,,,,,,,,,,,,,,,,,,,,,,,,,,,,,,,,,,,,,,,,,,,,,,
,,,,,,605b0135815a24382dfabf98,62bbf9324557526fa8e9188e,2022-06-29_09h03.24.784,Colour_Asymmetry_Pilot,2022.1.3,Win32,59.98440405,62bbe60bf3d75ef465d3e404,0,10,10,132,1,threeone,,,,,,,,,,,,,,,,,,,,,,,,,,,,,,,,,,,,,,,,,,,,,,,,,,,,,,,,,,,,,,,,,,,,,,,,,,,,,,,,,,,,,,,,,,,,,,,,,,,,,,,,,,,,,,,,,,,,,,,,,,,,,,,,,,,,,,,,,,,,,,,,,,,,,,,,
,,,,,,605b0135815a24382dfabf98,62bbf9324557526fa8e9188e,2022-06-29_09h03.24.784,Colour_Asymmetry_Pilot,2022.1.3,Win32,59.98440405,62bbe60bf3d75ef465d3e404,0,11,11,107,1,twofour,,,,,,,,,,,,,,,,,,,,,,,,,,,,,,,,,,,,,,,,,,,,,,,,,,,,,,,,,,,,,,,,,,,,,,,,,,,,,,,,,,,,,,,,,,,,,,,,,,,,,,,,,,,,,,,,,,,,,,,,,,,,,,,,,,,,,,,,,,,,,,,,,,,,,,,,
,,,,,,605b0135815a24382dfabf98,62bbf9324557526fa8e9188e,2022-06-29_09h03.24.784,Colour_Asymmetry_Pilot,2022.1.3,Win32,59.98440405,62bbe60bf3d75ef465d3e404,0,12,12,12,1,threeone,,,,,,,,,,,,,,,,,,,,,,,,,,,,,,,,,,,,,,,,,,,,,,,,,,,,,,,,,,,,,,,,,,,,,,,,,,,,,,,,,,,,,,,,,,,,,,,,,,,,,,,,,,,,,,,,,,,,,,,,,,,,,,,,,,,,,,,,,,,,,,,,,,,,,,,,
,,,,,,605b0135815a24382dfabf98,62bbf9324557526fa8e9188e,2022-06-29_09h03.24.784,Colour_Asymmetry_Pilot,2022.1.3,Win32,59.98440405,62bbe60bf3d75ef465d3e404,0,13,13,121,1,onethree,,,,,,,,,,,,,,,,,,,,,,,,,,,,,,,,,,,,,,,,,,,,,,,,,,,,,,,,,,,,,,,,,,,,,,,,,,,,,,,,,,,,,,,,,,,,,,,,,,,,,,,,,,,,,,,,,,,,,,,,,,,,,,,,,,,,,,,,,,,,,,,,,,,,,,,,
,,,,,,605b0135815a24382dfabf98,62bbf9324557526fa8e9188e,2022-06-29_09h03.24.784,Colour_Asymmetry_Pilot,2022.1.3,Win32,59.98440405,62bbe60bf3d75ef465d3e404,0,14,14,141,1,threefour,,,,,,,,,,,,,,,,,,,,,,,,,,,,,,,,,,,,,,,,,,,,,,,,,,,,,,,,,,,,,,,,,,,,,,,,,,,,,,,,,,,,,,,,,,,,,,,,,,,,,,,,,,,,,,,,,,,,,,,,,,,,,,,,,,,,,,,,,,,,,,,,,,,,,,,,
,,,,,,605b0135815a24382dfabf98,62bbf9324557526fa8e9188e,2022-06-29_09h03.24.784,Colour_Asymmetry_Pilot,2022.1.3,Win32,59.98440405,62bbe60bf3d75ef465d3e404,0,15,15,38,1,fourtwo,,,,,,,,,,,,,,,,,,,,,,,,,,,,,,,,,,,,,,,,,,,,,,,,,,,,,,,,,,,,,,,,,,,,,,,,,,,,,,,,,,,,,,,,,,,,,,,,,,,,,,,,,,,,,,,,,,,,,,,,,,,,,,,,,,,,,,,,,,,,,,,,,,,,,,,,
,,,,,,605b0135815a24382dfabf98,62bbf9324557526fa8e9188e,2022-06-29_09h03.24.784,Colour_Asymmetry_Pilot,2022.1.3,Win32,59.98440405,62bbe60bf3d75ef465d3e404,0,16,16,13,1,threefour,,,,,,,,,,,,,,,,,,,,,,,,,,,,,,,,,,,,,,,,,,,,,,,,,,,,,,,,,,,,,,,,,,,,,,,,,,,,,,,,,,,,,,,,,,,,,,,,,,,,,,,,,,,,,,,,,,,,,,,,,,,,,,,,,,,,,,,,,,,,,,,,,,,,,,,,
,,,,,,605b0135815a24382dfabf98,62bbf9324557526fa8e9188e,2022-06-29_09h03.24.784,Colour_Asymmetry_Pilot,2022.1.3,Win32,59.98440405,62bbe60bf3d75ef465d3e404,0,17,17,135,1,fourthree,,,,,,,,,,,,,,,,,,,,,,,,,,,,,,,,,,,,,,,,,,,,,,,,,,,,,,,,,,,,,,,,,,,,,,,,,,,,,,,,,,,,,,,,,,,,,,,,,,,,,,,,,,,,,,,,,,,,,,,,,,,,,,,,,,,,,,,,,,,,,,,,,,,,,,,,
,,,,,,605b0135815a24382dfabf98,62bbf9324557526fa8e9188e,2022-06-29_09h03.24.784,Colour_Asymmetry_Pilot,2022.1.3,Win32,59.98440405,62bbe60bf3d75ef465d3e404,0,18,18,69,1,threefour,,,,,,,,,,,,,,,,,,,,,,,,,,,,,,,,,,,,,,,,,,,,,,,,,,,,,,,,,,,,,,,,,,,,,,,,,,,,,,,,,,,,,,,,,,,,,,,,,,,,,,,,,,,,,,,,,,,,,,,,,,,,,,,,,,,,,,,,,,,,,,,,,,,,,,,,
,,,,,,605b0135815a24382dfabf98,62bbf9324557526fa8e9188e,2022-06-29_09h03.24.784,Colour_Asymmetry_Pilot,2022.1.3,Win32,59.98440405,62bbe60bf3d75ef465d3e404,0,19,19,40,1,onetwo,,,,,,,,,,,,,,,,,,,,,,,,,,,,,,,,,,,,,,,,,,,,,,,,,,,,,,,,,,,,,,,,,,,,,,,,,,,,,,,,,,,,,,,,,,,,,,,,,,,,,,,,,,,,,,,,,,,,,,,,,,,,,,,,,,,,,,,,,,,,,,,,,,,,,,,,
,,,,,,605b0135815a24382dfabf98,62bbf9324557526fa8e9188e,2022-06-29_09h03.24.784,Colour_Asymmetry_Pilot,2022.1.3,Win32,59.98440405,62bbe60bf3d75ef465d3e404,0,20,20,35,1,twofour,,,,,,,,,,,,,,,,,,,,,,,,,,,,,,,,,,,,,,,,,,,,,,,,,,,,,,,,,,,,,,,,,,,,,,,,,,,,,,,,,,,,,,,,,,,,,,,,,,,,,,,,,,,,,,,,,,,,,,,,,,,,,,,,,,,,,,,,,,,,,,,,,,,,,,,,
,,,,,,605b0135815a24382dfabf98,62bbf9324557526fa8e9188e,2022-06-29_09h03.24.784,Colour_Asymmetry_Pilot,2022.1.3,Win32,59.98440405,62bbe60bf3d75ef465d3e404,0,21,21,81,1,onethree,,,,,,,,,,,,,,,,,,,,,,,,,,,,,,,,,,,,,,,,,,,,,,,,,,,,,,,,,,,,,,,,,,,,,,,,,,,,,,,,,,,,,,,,,,,,,,,,,,,,,,,,,,,,,,,,,,,,,,,,,,,,,,,,,,,,,,,,,,,,,,,,,,,,,,,,
,,,,,,605b0135815a24382dfabf98,62bbf9324557526fa8e9188e,2022-06-29_09h03.24.784,Colour_Asymmetry_Pilot,2022.1.3,Win32,59.98440405,62bbe60bf3d75ef465d3e404,0,22,22,83,1,twofour,,,,,,,,,,,,,,,,,,,,,,,,,,,,,,,,,,,,,,,,,,,,,,,,,,,,,,,,,,,,,,,,,,,,,,,,,,,,,,,,,,,,,,,,,,,,,,,,,,,,,,,,,,,,,,,,,,,,,,,,,,,,,,,,,,,,,,,,,,,,,,,,,,,,,,,,
,,,,,,605b0135815a24382dfabf98,62bbf9324557526fa8e9188e,2022-06-29_09h03.24.784,Colour_Asymmetry_Pilot,2022.1.3,Win32,59.98440405,62bbe60bf3d75ef465d3e404,0,23,23,86,1,fourtwo,,,,,,,,,,,,,,,,,,,,,,,,,,,,,,,,,,,,,,,,,,,,,,,,,,,,,,,,,,,,,,,,,,,,,,,,,,,,,,,,,,,,,,,,,,,,,,,,,,,,,,,,,,,,,,,,,,,,,,,,,,,,,,,,,,,,,,,,,,,,,,,,,,,,,,,,
,,,,,,605b0135815a24382dfabf98,62bbf9324557526fa8e9188e,2022-06-29_09h03.24.784,Colour_Asymmetry_Pilot,2022.1.3,Win32,59.98440405,62bbe60bf3d75ef465d3e404,0,24,24,17,1,onethree,,,,,,,,,,,,,,,,,,,,,,,,,,,,,,,,,,,,,,,,,,,,,,,,,,,,,,,,,,,,,,,,,,,,,,,,,,,,,,,,,,,,,,,,,,,,,,,,,,,,,,,,,,,,,,,,,,,,,,,,,,,,,,,,,,,,,,,,,,,,,,,,,,,,,,,,
,,,,,,605b0135815a24382dfabf98,62bbf9324557526fa8e9188e,2022-06-29_09h03.24.784,Colour_Asymmetry_Pilot,2022.1.3,Win32,59.98440405,62bbe60bf3d75ef465d3e404,0,25,25,143,1,fourthree,,,,,,,,,,,,,,,,,,,,,,,,,,,,,,,,,,,,,,,,,,,,,,,,,,,,,,,,,,,,,,,,,,,,,,,,,,,,,,,,,,,,,,,,,,,,,,,,,,,,,,,,,,,,,,,,,,,,,,,,,,,,,,,,,,,,,,,,,,,,,,,,,,,,,,,,
,,,,,,605b0135815a24382dfabf98,62bbf9324557526fa8e9188e,2022-06-29_09h03.24.784,Colour_Asymmetry_Pilot,2022.1.3,Win32,59.98440405,62bbe60bf3d75ef465d3e404,0,26,26,101,1,threefour,,,,,,,,,,,,,,,,,,,,,,,,,,,,,,,,,,,,,,,,,,,,,,,,,,,,,,,,,,,,,,,,,,,,,,,,,,,,,,,,,,,,,,,,,,,,,,,,,,,,,,,,,,,,,,,,,,,,,,,,,,,,,,,,,,,,,,,,,,,,,,,,,,,,,,,,
,,,,,,605b0135815a24382dfabf98,62bbf9324557526fa8e9188e,2022-06-29_09h03.24.784,Colour_Asymmetry_Pilot,2022.1.3,Win32,59.98440405,62bbe60bf3d75ef465d3e404,0,27,27,57,1,onethree,,,,,,,,,,,,,,,,,,,,,,,,,,,,,,,,,,,,,,,,,,,,,,,,,,,,,,,,,,,,,,,,,,,,,,,,,,,,,,,,,,,,,,,,,,,,,,,,,,,,,,,,,,,,,,,,,,,,,,,,,,,,,,,,,,,,,,,,,,,,,,,,,,,,,,,,
,,,,,,605b0135815a24382dfabf98,62bbf9324557526fa8e9188e,2022-06-29_09h03.24.784,Colour_Asymmetry_Pilot,2022.1.3,Win32,59.98440405,62bbe60bf3d75ef465d3e404,0,28,28,2,1,twoone,,,,,,,,,,,,,,,,,,,,,,,,,,,,,,,,,,,,,,,,,,,,,,,,,,,,,,,,,,,,,,,,,,,,,,,,,,,,,,,,,,,,,,,,,,,,,,,,,,,,,,,,,,,,,,,,,,,,,,,,,,,,,,,,,,,,,,,,,,,,,,,,,,,,,,,,
,,,,,,605b0135815a24382dfabf98,62bbf9324557526fa8e9188e,2022-06-29_09h03.24.784,Colour_Asymmetry_Pilot,2022.1.3,Win32,59.98440405,62bbe60bf3d75ef465d3e404,0,29,29,3,1,twofour,,,,,,,,,,,,,,,,,,,,,,,,,,,,,,,,,,,,,,,,,,,,,,,,,,,,,,,,,,,,,,,,,,,,,,,,,,,,,,,,,,,,,,,,,,,,,,,,,,,,,,,,,,,,,,,,,,,,,,,,,,,,,,,,,,,,,,,,,,,,,,,,,,,,,,,,
,,,,,,605b0135815a24382dfabf98,62bbf9324557526fa8e9188e,2022-06-29_09h03.24.784,Colour_Asymmetry_Pilot,2022.1.3,Win32,59.98440405,62bbe60bf3d75ef465d3e404,0,30,30,148,1,threeone,,,,,,,,,,,,,,,,,,,,,,,,,,,,,,,,,,,,,,,,,,,,,,,,,,,,,,,,,,,,,,,,,,,,,,,,,,,,,,,,,,,,,,,,,,,,,,,,,,,,,,,,,,,,,,,,,,,,,,,,,,,,,,,,,,,,,,,,,,,,,,,,,,,,,,,,
,,,,,,605b0135815a24382dfabf98,62bbf9324557526fa8e9188e,2022-06-29_09h03.24.784,Colour_Asymmetry_Pilot,2022.1.3,Win32,59.98440405,62bbe60bf3d75ef465d3e404,0,31,31,85,1,threefour,,,,,,,,,,,,,,,,,,,,,,,,,,,,,,,,,,,,,,,,,,,,,,,,,,,,,,,,,,,,,,,,,,,,,,,,,,,,,,,,,,,,,,,,,,,,,,,,,,,,,,,,,,,,,,,,,,,,,,,,,,,,,,,,,,,,,,,,,,,,,,,,,,,,,,,,
,,,,,,605b0135815a24382dfabf98,62bbf9324557526fa8e9188e,2022-06-29_09h03.24.784,Colour_Asymmetry_Pilot,2022.1.3,Win32,59.98440405,62bbe60bf3d75ef465d3e404,0,32,32,110,1,fourtwo,,,,,,,,,,,,,,,,,,,,,,,,,,,,,,,,,,,,,,,,,,,,,,,,,,,,,,,,,,,,,,,,,,,,,,,,,,,,,,,,,,,,,,,,,,,,,,,,,,,,,,,,,,,,,,,,,,,,,,,,,,,,,,,,,,,,,,,,,,,,,,,,,,,,,,,,
,,,,,,605b0135815a24382dfabf98,62bbf9324557526fa8e9188e,2022-06-29_09h03.24.784,Colour_Asymmetry_Pilot,2022.1.3,Win32,59.98440405,62bbe60bf3d75ef465d3e404,0,33,33,82,1,twoone,,,,,,,,,,,,,,,,,,,,,,,,,,,,,,,,,,,,,,,,,,,,,,,,,,,,,,,,,,,,,,,,,,,,,,,,,,,,,,,,,,,,,,,,,,,,,,,,,,,,,,,,,,,,,,,,,,,,,,,,,,,,,,,,,,,,,,,,,,,,,,,,,,,,,,,,
,,,,,,605b0135815a24382dfabf98,62bbf9324557526fa8e9188e,2022-06-29_09h03.24.784,Colour_Asymmetry_Pilot,2022.1.3,Win32,59.98440405,62bbe60bf3d75ef465d3e404,0,34,34,34,1,twoone,,,,,,,,,,,,,,,,,,,,,,,,,,,,,,,,,,,,,,,,,,,,,,,,,,,,,,,,,,,,,,,,,,,,,,,,,,,,,,,,,,,,,,,,,,,,,,,,,,,,,,,,,,,,,,,,,,,,,,,,,,,,,,,,,,,,,,,,,,,,,,,,,,,,,,,,
,,,,,,605b0135815a24382dfabf98,62bbf9324557526fa8e9188e,2022-06-29_09h03.24.784,Colour_Asymmetry_Pilot,2022.1.3,Win32,59.98440405,62bbe60bf3d75ef465d3e404,0,35,35,159,1,fourthree,,,,,,,,,,,,,,,,,,,,,,,,,,,,,,,,,,,,,,,,,,,,,,,,,,,,,,,,,,,,,,,,,,,,,,,,,,,,,,,,,,,,,,,,,,,,,,,,,,,,,,,,,,,,,,,,,,,,,,,,,,,,,,,,,,,,,,,,,,,,,,,,,,,,,,,,
,,,,,,605b0135815a24382dfabf98,62bbf9324557526fa8e9188e,2022-06-29_09h03.24.784,Colour_Asymmetry_Pilot,2022.1.3,Win32,59.98440405,62bbe60bf3d75ef465d3e404,0,36,36,156,1,threeone,,,,,,,,,,,,,,,,,,,,,,,,,,,,,,,,,,,,,,,,,,,,,,,,,,,,,,,,,,,,,,,,,,,,,,,,,,,,,,,,,,,,,,,,,,,,,,,,,,,,,,,,,,,,,,,,,,,,,,,,,,,,,,,,,,,,,,,,,,,,,,,,,,,,,,,,
,,,,,,605b0135815a24382dfabf98,62bbf9324557526fa8e9188e,2022-06-29_09h03.24.784,Colour_Asymmetry_Pilot,2022.1.3,Win32,59.98440405,62bbe60bf3d75ef465d3e404,0,37,37,72,1,onetwo,,,,,,,,,,,,,,,,,,,,,,,,,,,,,,,,,,,,,,,,,,,,,,,,,,,,,,,,,,,,,,,,,,,,,,,,,,,,,,,,,,,,,,,,,,,,,,,,,,,,,,,,,,,,,,,,,,,,,,,,,,,,,,,,,,,,,,,,,,,,,,,,,,,,,,,,
,,,,,,605b0135815a24382dfabf98,62bbf9324557526fa8e9188e,2022-06-29_09h03.24.784,Colour_Asymmetry_Pilot,2022.1.3,Win32,59.98440405,62bbe60bf3d75ef465d3e404,0,38,38,77,1,threefour,,,,,,,,,,,,,,,,,,,,,,,,,,,,,,,,,,,,,,,,,,,,,,,,,,,,,,,,,,,,,,,,,,,,,,,,,,,,,,,,,,,,,,,,,,,,,,,,,,,,,,,,,,,,,,,,,,,,,,,,,,,,,,,,,,,,,,,,,,,,,,,,,,,,,,,,
,,,,,,605b0135815a24382dfabf98,62bbf9324557526fa8e9188e,2022-06-29_09h03.24.784,Colour_Asymmetry_Pilot,2022.1.3,Win32,59.98440405,62bbe60bf3d75ef465d3e404,0,39,39,152,1,onetwo,,,,,,,,,,,,,,,,,,,,,,,,,,,,,,,,,,,,,,,,,,,,,,,,,,,,,,,,,,,,,,,,,,,,,,,,,,,,,,,,,,,,,,,,,,,,,,,,,,,,,,,,,,,,,,,,,,,,,,,,,,,,,,,,,,,,,,,,,,,,,,,,,,,,,,,,
,,,,,,605b0135815a24382dfabf98,62bbf9324557526fa8e9188e,2022-06-29_09h03.24.784,Colour_Asymmetry_Pilot,2022.1.3,Win32,59.98440405,62bbe60bf3d75ef465d3e404,0,40,40,158,1,fourtwo,,,,,,,,,,,,,,,,,,,,,,,,,,,,,,,,,,,,,,,,,,,,,,,,,,,,,,,,,,,,,,,,,,,,,,,,,,,,,,,,,,,,,,,,,,,,,,,,,,,,,,,,,,,,,,,,,,,,,,,,,,,,,,,,,,,,,,,,,,,,,,,,,,,,,,,,
,,,,,,605b0135815a24382dfabf98,62bbf9324557526fa8e9188e,2022-06-29_09h03.24.784,Colour_Asymmetry_Pilot,2022.1.3,Win32,59.98440405,62bbe60bf3d75ef465d3e404,0,41,41,15,1,fourthree,,,,,,,,,,,,,,,,,,,,,,,,,,,,,,,,,,,,,,,,,,,,,,,,,,,,,,,,,,,,,,,,,,,,,,,,,,,,,,,,,,,,,,,,,,,,,,,,,,,,,,,,,,,,,,,,,,,,,,,,,,,,,,,,,,,,,,,,,,,,,,,,,,,,,,,,
,,,,,,605b0135815a24382dfabf98,62bbf9324557526fa8e9188e,2022-06-29_09h03.24.784,Colour_Asymmetry_Pilot,2022.1.3,Win32,59.98440405,62bbe60bf3d75ef465d3e404,0,42,42,70,1,fourtwo,,,,,,,,,,,,,,,,,,,,,,,,,,,,,,,,,,,,,,,,,,,,,,,,,,,,,,,,,,,,,,,,,,,,,,,,,,,,,,,,,,,,,,,,,,,,,,,,,,,,,,,,,,,,,,,,,,,,,,,,,,,,,,,,,,,,,,,,,,,,,,,,,,,,,,,,
,,,,,,605b0135815a24382dfabf98,62bbf9324557526fa8e9188e,2022-06-29_09h03.24.784,Colour_Asymmetry_Pilot,2022.1.3,Win32,59.98440405,62bbe60bf3d75ef465d3e404,0,43,43,14,1,fourtwo,,,,,,,,,,,,,,,,,,,,,,,,,,,,,,,,,,,,,,,,,,,,,,,,,,,,,,,,,,,,,,,,,,,,,,,,,,,,,,,,,,,,,,,,,,,,,,,,,,,,,,,,,,,,,,,,,,,,,,,,,,,,,,,,,,,,,,,,,,,,,,,,,,,,,,,,
,,,,,,605b0135815a24382dfabf98,62bbf9324557526fa8e9188e,2022-06-29_09h03.24.784,Colour_Asymmetry_Pilot,2022.1.3,Win32,59.98440405,62bbe60bf3d75ef465d3e404,0,44,44,47,1,fourthree,,,,,,,,,,,,,,,,,,,,,,,,,,,,,,,,,,,,,,,,,,,,,,,,,,,,,,,,,,,,,,,,,,,,,,,,,,,,,,,,,,,,,,,,,,,,,,,,,,,,,,,,,,,,,,,,,,,,,,,,,,,,,,,,,,,,,,,,,,,,,,,,,,,,,,,,
,,,,,,605b0135815a24382dfabf98,62bbf9324557526fa8e9188e,2022-06-29_09h03.24.784,Colour_Asymmetry_Pilot,2022.1.3,Win32,59.98440405,62bbe60bf3d75ef465d3e404,0,45,45,160,1,onetwo,,,,,,,,,,,,,,,,,,,,,,,,,,,,,,,,,,,,,,,,,,,,,,,,,,,,,,,,,,,,,,,,,,,,,,,,,,,,,,,,,,,,,,,,,,,,,,,,,,,,,,,,,,,,,,,,,,,,,,,,,,,,,,,,,,,,,,,,,,,,,,,,,,,,,,,,
,,,,,,605b0135815a24382dfabf98,62bbf9324557526fa8e9188e,2022-06-29_09h03.24.784,Colour_Asymmetry_Pilot,2022.1.3,Win32,59.98440405,62bbe60bf3d75ef465d3e404,0,46,46,147,1,twofour,,,,,,,,,,,,,,,,,,,,,,,,,,,,,,,,,,,,,,,,,,,,,,,,,,,,,,,,,,,,,,,,,,,,,,,,,,,,,,,,,,,,,,,,,,,,,,,,,,,,,,,,,,,,,,,,,,,,,,,,,,,,,,,,,,,,,,,,,,,,,,,,,,,,,,,,
,,,,,,605b0135815a24382dfabf98,62bbf9324557526fa8e9188e,2022-06-29_09h03.24.784,Colour_Asymmetry_Pilot,2022.1.3,Win32,59.98440405,62bbe60bf3d75ef465d3e404,0,47,47,153,1,onethree,,,,,,,,,,,,,,,,,,,,,,,,,,,,,,,,,,,,,,,,,,,,,,,,,,,,,,,,,,,,,,,,,,,,,,,,,,,,,,,,,,,,,,,,,,,,,,,,,,,,,,,,,,,,,,,,,,,,,,,,,,,,,,,,,,,,,,,,,,,,,,,,,,,,,,,,
,,,,,,605b0135815a24382dfabf98,62bbf9324557526fa8e9188e,2022-06-29_09h03.24.784,Colour_Asymmetry_Pilot,2022.1.3,Win32,59.98440405,62bbe60bf3d75ef465d3e404,0,48,48,98,1,twoone,,,,,,,,,,,,,,,,,,,,,,,,,,,,,,,,,,,,,,,,,,,,,,,,,,,,,,,,,,,,,,,,,,,,,,,,,,,,,,,,,,,,,,,,,,,,,,,,,,,,,,,,,,,,,,,,,,,,,,,,,,,,,,,,,,,,,,,,,,,,,,,,,,,,,,,,
,,,,,,605b0135815a24382dfabf98,62bbf9324557526fa8e9188e,2022-06-29_09h03.24.784,Colour_Asymmetry_Pilot,2022.1.3,Win32,59.98440405,62bbe60bf3d75ef465d3e404,0,49,49,161,1,onethree,,,,,,,,,,,,,,,,,,,,,,,,,,,,,,,,,,,,,,,,,,,,,,,,,,,,,,,,,,,,,,,,,,,,,,,,,,,,,,,,,,,,,,,,,,,,,,,,,,,,,,,,,,,,,,,,,,,,,,,,,,,,,,,,,,,,,,,,,,,,,,,,,,,,,,,,
,,,,,,605b0135815a24382dfabf98,62bbf9324557526fa8e9188e,2022-06-29_09h03.24.784,Colour_Asymmetry_Pilot,2022.1.3,Win32,59.98440405,62bbe60bf3d75ef465d3e404,0,50,50,102,1,fourtwo,,,,,,,,,,,,,,,,,,,,,,,,,,,,,,,,,,,,,,,,,,,,,,,,,,,,,,,,,,,,,,,,,,,,,,,,,,,,,,,,,,,,,,,,,,,,,,,,,,,,,,,,,,,,,,,,,,,,,,,,,,,,,,,,,,,,,,,,,,,,,,,,,,,,,,,,
,,,,,,605b0135815a24382dfabf98,62bbf9324557526fa8e9188e,2022-06-29_09h03.24.784,Colour_Asymmetry_Pilot,2022.1.3,Win32,59.98440405,62bbe60bf3d75ef465d3e404,0,51,51,51,1,twofour,,,,,,,,,,,,,,,,,,,,,,,,,,,,,,,,,,,,,,,,,,,,,,,,,,,,,,,,,,,,,,,,,,,,,,,,,,,,,,,,,,,,,,,,,,,,,,,,,,,,,,,,,,,,,,,,,,,,,,,,,,,,,,,,,,,,,,,,,,,,,,,,,,,,,,,,
,,,,,,605b0135815a24382dfabf98,62bbf9324557526fa8e9188e,2022-06-29_09h03.24.784,Colour_Asymmetry_Pilot,2022.1.3,Win32,59.98440405,62bbe60bf3d75ef465d3e404,0,52,52,43,1,twofour,,,,,,,,,,,,,,,,,,,,,,,,,,,,,,,,,,,,,,,,,,,,,,,,,,,,,,,,,,,,,,,,,,,,,,,,,,,,,,,,,,,,,,,,,,,,,,,,,,,,,,,,,,,,,,,,,,,,,,,,,,,,,,,,,,,,,,,,,,,,,,,,,,,,,,,,
,,,,,,605b0135815a24382dfabf98,62bbf9324557526fa8e9188e,2022-06-29_09h03.24.784,Colour_Asymmetry_Pilot,2022.1.3,Win32,59.98440405,62bbe60bf3d75ef465d3e404,0,53,53,11,1,twofour,,,,,,,,,,,,,,,,,,,,,,,,,,,,,,,,,,,,,,,,,,,,,,,,,,,,,,,,,,,,,,,,,,,,,,,,,,,,,,,,,,,,,,,,,,,,,,,,,,,,,,,,,,,,,,,,,,,,,,,,,,,,,,,,,,,,,,,,,,,,,,,,,,,,,,,,
,,,,,,605b0135815a24382dfabf98,62bbf9324557526fa8e9188e,2022-06-29_09h03.24.784,Colour_Asymmetry_Pilot,2022.1.3,Win32,59.98440405,62bbe60bf3d75ef465d3e404,0,54,54,5,1,threefour,,,,,,,,,,,,,,,,,,,,,,,,,,,,,,,,,,,,,,,,,,,,,,,,,,,,,,,,,,,,,,,,,,,,,,,,,,,,,,,,,,,,,,,,,,,,,,,,,,,,,,,,,,,,,,,,,,,,,,,,,,,,,,,,,,,,,,,,,,,,,,,,,,,,,,,,
,,,,,,605b0135815a24382dfabf98,62bbf9324557526fa8e9188e,2022-06-29_09h03.24.784,Colour_Asymmetry_Pilot,2022.1.3,Win32,59.98440405,62bbe60bf3d75ef465d3e404,0,55,55,49,1,onethree,,,,,,,,,,,,,,,,,,,,,,,,,,,,,,,,,,,,,,,,,,,,,,,,,,,,,,,,,,,,,,,,,,,,,,,,,,,,,,,,,,,,,,,,,,,,,,,,,,,,,,,,,,,,,,,,,,,,,,,,,,,,,,,,,,,,,,,,,,,,,,,,,,,,,,,,
,,,,,,605b0135815a24382dfabf98,62bbf9324557526fa8e9188e,2022-06-29_09h03.24.784,Colour_Asymmetry_Pilot,2022.1.3,Win32,59.98440405,62bbe60bf3d75ef465d3e404,0,56,56,95,1,fourthree,,,,,,,,,,,,,,,,,,,,,,,,,,,,,,,,,,,,,,,,,,,,,,,,,,,,,,,,,,,,,,,,,,,,,,,,,,,,,,,,,,,,,,,,,,,,,,,,,,,,,,,,,,,,,,,,,,,,,,,,,,,,,,,,,,,,,,,,,,,,,,,,,,,,,,,,
,,,,,,605b0135815a24382dfabf98,62bbf9324557526fa8e9188e,2022-06-29_09h03.24.784,Colour_Asymmetry_Pilot,2022.1.3,Win32,59.98440405,62bbe60bf3d75ef465d3e404,0,57,57,18,1,twoone,,,,,,,,,,,,,,,,,,,,,,,,,,,,,,,,,,,,,,,,,,,,,,,,,,,,,,,,,,,,,,,,,,,,,,,,,,,,,,,,,,,,,,,,,,,,,,,,,,,,,,,,,,,,,,,,,,,,,,,,,,,,,,,,,,,,,,,,,,,,,,,,,,,,,,,,
,,,,,,605b0135815a24382dfabf98,62bbf9324557526fa8e9188e,2022-06-29_09h03.24.784,Colour_Asymmetry_Pilot,2022.1.3,Win32,59.98440405,62bbe60bf3d75ef465d3e404,0,58,58,0,1,onetwo,,,,,,,,,,,,,,,,,,,,,,,,,,,,,,,,,,,,,,,,,,,,,,,,,,,,,,,,,,,,,,,,,,,,,,,,,,,,,,,,,,,,,,,,,,,,,,,,,,,,,,,,,,,,,,,,,,,,,,,,,,,,,,,,,,,,,,,,,,,,,,,,,,,,,,,,
,,,,,,605b0135815a24382dfabf98,62bbf9324557526fa8e9188e,2022-06-29_09h03.24.784,Colour_Asymmetry_Pilot,2022.1.3,Win32,59.98440405,62bbe60bf3d75ef465d3e404,0,59,59,73,1,onethree,,,,,,,,,,,,,,,,,,,,,,,,,,,,,,,,,,,,,,,,,,,,,,,,,,,,,,,,,,,,,,,,,,,,,,,,,,,,,,,,,,,,,,,,,,,,,,,,,,,,,,,,,,,,,,,,,,,,,,,,,,,,,,,,,,,,,,,,,,,,,,,,,,,,,,,,
,,,,,,605b0135815a24382dfabf98,62bbf9324557526fa8e9188e,2022-06-29_09h03.24.784,Colour_Asymmetry_Pilot,2022.1.3,Win32,59.98440405,62bbe60bf3d75ef465d3e404,0,60,60,76,1,threeone,,,,,,,,,,,,,,,,,,,,,,,,,,,,,,,,,,,,,,,,,,,,,,,,,,,,,,,,,,,,,,,,,,,,,,,,,,,,,,,,,,,,,,,,,,,,,,,,,,,,,,,,,,,,,,,,,,,,,,,,,,,,,,,,,,,,,,,,,,,,,,,,,,,,,,,,
,,,,,,605b0135815a24382dfabf98,62bbf9324557526fa8e9188e,2022-06-29_09h03.24.784,Colour_Asymmetry_Pilot,2022.1.3,Win32,59.98440405,62bbe60bf3d75ef465d3e404,0,61,61,48,1,onetwo,,,,,,,,,,,,,,,,,,,,,,,,,,,,,,,,,,,,,,,,,,,,,,,,,,,,,,,,,,,,,,,,,,,,,,,,,,,,,,,,,,,,,,,,,,,,,,,,,,,,,,,,,,,,,,,,,,,,,,,,,,,,,,,,,,,,,,,,,,,,,,,,,,,,,,,,
,,,,,,605b0135815a24382dfabf98,62bbf9324557526fa8e9188e,2022-06-29_09h03.24.784,Colour_Asymmetry_Pilot,2022.1.3,Win32,59.98440405,62bbe60bf3d75ef465d3e404,0,62,62,22,1,fourtwo,,,,,,,,,,,,,,,,,,,,,,,,,,,,,,,,,,,,,,,,,,,,,,,,,,,,,,,,,,,,,,,,,,,,,,,,,,,,,,,,,,,,,,,,,,,,,,,,,,,,,,,,,,,,,,,,,,,,,,,,,,,,,,,,,,,,,,,,,,,,,,,,,,,,,,,,
,,,,,,605b0135815a24382dfabf98,62bbf9324557526fa8e9188e,2022-06-29_09h03.24.784,Colour_Asymmetry_Pilot,2022.1.3,Win32,59.98440405,62bbe60bf3d75ef465d3e404,0,63,63,30,1,fourtwo,,,,,,,,,,,,,,,,,,,,,,,,,,,,,,,,,,,,,,,,,,,,,,,,,,,,,,,,,,,,,,,,,,,,,,,,,,,,,,,,,,,,,,,,,,,,,,,,,,,,,,,,,,,,,,,,,,,,,,,,,,,,,,,,,,,,,,,,,,,,,,,,,,,,,,,,
,,,,,,605b0135815a24382dfabf98,62bbf9324557526fa8e9188e,2022-06-29_09h03.24.784,Colour_Asymmetry_Pilot,2022.1.3,Win32,59.98440405,62bbe60bf3d75ef465d3e404,0,64,64,78,1,fourtwo,,,,,,,,,,,,,,,,,,,,,,,,,,,,,,,,,,,,,,,,,,,,,,,,,,,,,,,,,,,,,,,,,,,,,,,,,,,,,,,,,,,,,,,,,,,,,,,,,,,,,,,,,,,,,,,,,,,,,,,,,,,,,,,,,,,,,,,,,,,,,,,,,,,,,,,,
,,,,,,605b0135815a24382dfabf98,62bbf9324557526fa8e9188e,2022-06-29_09h03.24.784,Colour_Asymmetry_Pilot,2022.1.3,Win32,59.98440405,62bbe60bf3d75ef465d3e404,0,65,65,112,1,onetwo,,,,,,,,,,,,,,,,,,,,,,,,,,,,,,,,,,,,,,,,,,,,,,,,,,,,,,,,,,,,,,,,,,,,,,,,,,,,,,,,,,,,,,,,,,,,,,,,,,,,,,,,,,,,,,,,,,,,,,,,,,,,,,,,,,,,,,,,,,,,,,,,,,,,,,,,
,,,,,,605b0135815a24382dfabf98,62bbf9324557526fa8e9188e,2022-06-29_09h03.24.784,Colour_Asymmetry_Pilot,2022.1.3,Win32,59.98440405,62bbe60bf3d75ef465d3e404,0,66,66,21,1,threefour,,,,,,,,,,,,,,,,,,,,,,,,,,,,,,,,,,,,,,,,,,,,,,,,,,,,,,,,,,,,,,,,,,,,,,,,,,,,,,,,,,,,,,,,,,,,,,,,,,,,,,,,,,,,,,,,,,,,,,,,,,,,,,,,,,,,,,,,,,,,,,,,,,,,,,,,
,,,,,,605b0135815a24382dfabf98,62bbf9324557526fa8e9188e,2022-06-29_09h03.24.784,Colour_Asymmetry_Pilot,2022.1.3,Win32,59.98440405,62bbe60bf3d75ef465d3e404,0,67,67,88,1,onetwo,,,,,,,,,,,,,,,,,,,,,,,,,,,,,,,,,,,,,,,,,,,,,,,,,,,,,,,,,,,,,,,,,,,,,,,,,,,,,,,,,,,,,,,,,,,,,,,,,,,,,,,,,,,,,,,,,,,,,,,,,,,,,,,,,,,,,,,,,,,,,,,,,,,,,,,,
,,,,,,605b0135815a24382dfabf98,62bbf9324557526fa8e9188e,2022-06-29_09h03.24.784,Colour_Asymmetry_Pilot,2022.1.3,Win32,59.98440405,62bbe60bf3d75ef465d3e404,0,68,68,79,1,fourthree,,,,,,,,,,,,,,,,,,,,,,,,,,,,,,,,,,,,,,,,,,,,,,,,,,,,,,,,,,,,,,,,,,,,,,,,,,,,,,,,,,,,,,,,,,,,,,,,,,,,,,,,,,,,,,,,,,,,,,,,,,,,,,,,,,,,,,,,,,,,,,,,,,,,,,,,
,,,,,,605b0135815a24382dfabf98,62bbf9324557526fa8e9188e,2022-06-29_09h03.24.784,Colour_Asymmetry_Pilot,2022.1.3,Win32,59.98440405,62bbe60bf3d75ef465d3e404,0,69,69,109,1,threefour,,,,,,,,,,,,,,,,,,,,,,,,,,,,,,,,,,,,,,,,,,,,,,,,,,,,,,,,,,,,,,,,,,,,,,,,,,,,,,,,,,,,,,,,,,,,,,,,,,,,,,,,,,,,,,,,,,,,,,,,,,,,,,,,,,,,,,,,,,,,,,,,,,,,,,,,
,,,,,,605b0135815a24382dfabf98,62bbf9324557526fa8e9188e,2022-06-29_09h03.24.784,Colour_Asymmetry_Pilot,2022.1.3,Win32,59.98440405,62bbe60bf3d75ef465d3e404,0,70,70,61,1,threefour,,,,,,,,,,,,,,,,,,,,,,,,,,,,,,,,,,,,,,,,,,,,,,,,,,,,,,,,,,,,,,,,,,,,,,,,,,,,,,,,,,,,,,,,,,,,,,,,,,,,,,,,,,,,,,,,,,,,,,,,,,,,,,,,,,,,,,,,,,,,,,,,,,,,,,,,
,,,,,,605b0135815a24382dfabf98,62bbf9324557526fa8e9188e,2022-06-29_09h03.24.784,Colour_Asymmetry_Pilot,2022.1.3,Win32,59.98440405,62bbe60bf3d75ef465d3e404,0,71,71,7,1,fourthree,,,,,,,,,,,,,,,,,,,,,,,,,,,,,,,,,,,,,,,,,,,,,,,,,,,,,,,,,,,,,,,,,,,,,,,,,,,,,,,,,,,,,,,,,,,,,,,,,,,,,,,,,,,,,,,,,,,,,,,,,,,,,,,,,,,,,,,,,,,,,,,,,,,,,,,,
,,,,,,605b0135815a24382dfabf98,62bbf9324557526fa8e9188e,2022-06-29_09h03.24.784,Colour_Asymmetry_Pilot,2022.1.3,Win32,59.98440405,62bbe60bf3d75ef465d3e404,0,72,72,138,1,twoone,,,,,,,,,,,,,,,,,,,,,,,,,,,,,,,,,,,,,,,,,,,,,,,,,,,,,,,,,,,,,,,,,,,,,,,,,,,,,,,,,,,,,,,,,,,,,,,,,,,,,,,,,,,,,,,,,,,,,,,,,,,,,,,,,,,,,,,,,,,,,,,,,,,,,,,,
,,,,,,605b0135815a24382dfabf98,62bbf9324557526fa8e9188e,2022-06-29_09h03.24.784,Colour_Asymmetry_Pilot,2022.1.3,Win32,59.98440405,62bbe60bf3d75ef465d3e404,0,73,73,52,1,threeone,,,,,,,,,,,,,,,,,,,,,,,,,,,,,,,,,,,,,,,,,,,,,,,,,,,,,,,,,,,,,,,,,,,,,,,,,,,,,,,,,,,,,,,,,,,,,,,,,,,,,,,,,,,,,,,,,,,,,,,,,,,,,,,,,,,,,,,,,,,,,,,,,,,,,,,,
,,,,,,605b0135815a24382dfabf98,62bbf9324557526fa8e9188e,2022-06-29_09h03.24.784,Colour_Asymmetry_Pilot,2022.1.3,Win32,59.98440405,62bbe60bf3d75ef465d3e404,0,74,74,71,1,fourthree,,,,,,,,,,,,,,,,,,,,,,,,,,,,,,,,,,,,,,,,,,,,,,,,,,,,,,,,,,,,,,,,,,,,,,,,,,,,,,,,,,,,,,,,,,,,,,,,,,,,,,,,,,,,,,,,,,,,,,,,,,,,,,,,,,,,,,,,,,,,,,,,,,,,,,,,
,,,,,,605b0135815a24382dfabf98,62bbf9324557526fa8e9188e,2022-06-29_09h03.24.784,Colour_Asymmetry_Pilot,2022.1.3,Win32,59.98440405,62bbe60bf3d75ef465d3e404,0,75,75,10,1,twoone,,,,,,,,,,,,,,,,,,,,,,,,,,,,,,,,,,,,,,,,,,,,,,,,,,,,,,,,,,,,,,,,,,,,,,,,,,,,,,,,,,,,,,,,,,,,,,,,,,,,,,,,,,,,,,,,,,,,,,,,,,,,,,,,,,,,,,,,,,,,,,,,,,,,,,,,
,,,,,,605b0135815a24382dfabf98,62bbf9324557526fa8e9188e,2022-06-29_09h03.24.784,Colour_Asymmetry_Pilot,2022.1.3,Win32,59.98440405,62bbe60bf3d75ef465d3e404,0,76,76,4,1,threeone,,,,,,,,,,,,,,,,,,,,,,,,,,,,,,,,,,,,,,,,,,,,,,,,,,,,,,,,,,,,,,,,,,,,,,,,,,,,,,,,,,,,,,,,,,,,,,,,,,,,,,,,,,,,,,,,,,,,,,,,,,,,,,,,,,,,,,,,,,,,,,,,,,,,,,,,
,,,,,,605b0135815a24382dfabf98,62bbf9324557526fa8e9188e,2022-06-29_09h03.24.784,Colour_Asymmetry_Pilot,2022.1.3,Win32,59.98440405,62bbe60bf3d75ef465d3e404,0,77,77,37,1,threefour,,,,,,,,,,,,,,,,,,,,,,,,,,,,,,,,,,,,,,,,,,,,,,,,,,,,,,,,,,,,,,,,,,,,,,,,,,,,,,,,,,,,,,,,,,,,,,,,,,,,,,,,,,,,,,,,,,,,,,,,,,,,,,,,,,,,,,,,,,,,,,,,,,,,,,,,
,,,,,,605b0135815a24382dfabf98,62bbf9324557526fa8e9188e,2022-06-29_09h03.24.784,Colour_Asymmetry_Pilot,2022.1.3,Win32,59.98440405,62bbe60bf3d75ef465d3e404,0,78,78,130,1,twoone,,,,,,,,,,,,,,,,,,,,,,,,,,,,,,,,,,,,,,,,,,,,,,,,,,,,,,,,,,,,,,,,,,,,,,,,,,,,,,,,,,,,,,,,,,,,,,,,,,,,,,,,,,,,,,,,,,,,,,,,,,,,,,,,,,,,,,,,,,,,,,,,,,,,,,,,
,,,,,,605b0135815a24382dfabf98,62bbf9324557526fa8e9188e,2022-06-29_09h03.24.784,Colour_Asymmetry_Pilot,2022.1.3,Win32,59.98440405,62bbe60bf3d75ef465d3e404,0,79,79,27,1,twofour,,,,,,,,,,,,,,,,,,,,,,,,,,,,,,,,,,,,,,,,,,,,,,,,,,,,,,,,,,,,,,,,,,,,,,,,,,,,,,,,,,,,,,,,,,,,,,,,,,,,,,,,,,,,,,,,,,,,,,,,,,,,,,,,,,,,,,,,,,,,,,,,,,,,,,,,
,,,,,,605b0135815a24382dfabf98,62bbf9324557526fa8e9188e,2022-06-29_09h03.24.784,Colour_Asymmetry_Pilot,2022.1.3,Win32,59.98440405,62bbe60bf3d75ef465d3e404,0,80,80,58,1,twoone,,,,,,,,,,,,,,,,,,,,,,,,,,,,,,,,,,,,,,,,,,,,,,,,,,,,,,,,,,,,,,,,,,,,,,,,,,,,,,,,,,,,,,,,,,,,,,,,,,,,,,,,,,,,,,,,,,,,,,,,,,,,,,,,,,,,,,,,,,,,,,,,,,,,,,,,
,,,,,,605b0135815a24382dfabf98,62bbf9324557526fa8e9188e,2022-06-29_09h03.24.784,Colour_Asymmetry_Pilot,2022.1.3,Win32,59.98440405,62bbe60bf3d75ef465d3e404,0,81,81,106,1,twoone,,,,,,,,,,,,,,,,,,,,,,,,,,,,,,,,,,,,,,,,,,,,,,,,,,,,,,,,,,,,,,,,,,,,,,,,,,,,,,,,,,,,,,,,,,,,,,,,,,,,,,,,,,,,,,,,,,,,,,,,,,,,,,,,,,,,,,,,,,,,,,,,,,,,,,,,
,,,,,,605b0135815a24382dfabf98,62bbf9324557526fa8e9188e,2022-06-29_09h03.24.784,Colour_Asymmetry_Pilot,2022.1.3,Win32,59.98440405,62bbe60bf3d75ef465d3e404,0,82,82,80,1,onetwo,,,,,,,,,,,,,,,,,,,,,,,,,,,,,,,,,,,,,,,,,,,,,,,,,,,,,,,,,,,,,,,,,,,,,,,,,,,,,,,,,,,,,,,,,,,,,,,,,,,,,,,,,,,,,,,,,,,,,,,,,,,,,,,,,,,,,,,,,,,,,,,,,,,,,,,,
,,,,,,605b0135815a24382dfabf98,62bbf9324557526fa8e9188e,2022-06-29_09h03.24.784,Colour_Asymmetry_Pilot,2022.1.3,Win32,59.98440405,62bbe60bf3d75ef465d3e404,0,83,83,133,1,threefour,,,,,,,,,,,,,,,,,,,,,,,,,,,,,,,,,,,,,,,,,,,,,,,,,,,,,,,,,,,,,,,,,,,,,,,,,,,,,,,,,,,,,,,,,,,,,,,,,,,,,,,,,,,,,,,,,,,,,,,,,,,,,,,,,,,,,,,,,,,,,,,,,,,,,,,,
,,,,,,605b0135815a24382dfabf98,62bbf9324557526fa8e9188e,2022-06-29_09h03.24.784,Colour_Asymmetry_Pilot,2022.1.3,Win32,59.98440405,62bbe60bf3d75ef465d3e404,0,84,84,116,1,threeone,,,,,,,,,,,,,,,,,,,,,,,,,,,,,,,,,,,,,,,,,,,,,,,,,,,,,,,,,,,,,,,,,,,,,,,,,,,,,,,,,,,,,,,,,,,,,,,,,,,,,,,,,,,,,,,,,,,,,,,,,,,,,,,,,,,,,,,,,,,,,,,,,,,,,,,,
,,,,,,605b0135815a24382dfabf98,62bbf9324557526fa8e9188e,2022-06-29_09h03.24.784,Colour_Asymmetry_Pilot,2022.1.3,Win32,59.98440405,62bbe60bf3d75ef465d3e404,0,85,85,42,1,twoone,,,,,,,,,,,,,,,,,,,,,,,,,,,,,,,,,,,,,,,,,,,,,,,,,,,,,,,,,,,,,,,,,,,,,,,,,,,,,,,,,,,,,,,,,,,,,,,,,,,,,,,,,,,,,,,,,,,,,,,,,,,,,,,,,,,,,,,,,,,,,,,,,,,,,,,,
,,,,,,605b0135815a24382dfabf98,62bbf9324557526fa8e9188e,2022-06-29_09h03.24.784,Colour_Asymmetry_Pilot,2022.1.3,Win32,59.98440405,62bbe60bf3d75ef465d3e404,0,86,86,144,1,onetwo,,,,,,,,,,,,,,,,,,,,,,,,,,,,,,,,,,,,,,,,,,,,,,,,,,,,,,,,,,,,,,,,,,,,,,,,,,,,,,,,,,,,,,,,,,,,,,,,,,,,,,,,,,,,,,,,,,,,,,,,,,,,,,,,,,,,,,,,,,,,,,,,,,,,,,,,
,,,,,,605b0135815a24382dfabf98,62bbf9324557526fa8e9188e,2022-06-29_09h03.24.784,Colour_Asymmetry_Pilot,2022.1.3,Win32,59.98440405,62bbe60bf3d75ef465d3e404,0,87,87,134,1,fourtwo,,,,,,,,,,,,,,,,,,,,,,,,,,,,,,,,,,,,,,,,,,,,,,,,,,,,,,,,,,,,,,,,,,,,,,,,,,,,,,,,,,,,,,,,,,,,,,,,,,,,,,,,,,,,,,,,,,,,,,,,,,,,,,,,,,,,,,,,,,,,,,,,,,,,,,,,
,,,,,,605b0135815a24382dfabf98,62bbf9324557526fa8e9188e,2022-06-29_09h03.24.784,Colour_Asymmetry_Pilot,2022.1.3,Win32,59.98440405,62bbe60bf3d75ef465d3e404,0,88,88,32,1,onetwo,,,,,,,,,,,,,,,,,,,,,,,,,,,,,,,,,,,,,,,,,,,,,,,,,,,,,,,,,,,,,,,,,,,,,,,,,,,,,,,,,,,,,,,,,,,,,,,,,,,,,,,,,,,,,,,,,,,,,,,,,,,,,,,,,,,,,,,,,,,,,,,,,,,,,,,,
,,,,,,605b0135815a24382dfabf98,62bbf9324557526fa8e9188e,2022-06-29_09h03.24.784,Colour_Asymmetry_Pilot,2022.1.3,Win32,59.98440405,62bbe60bf3d75ef465d3e404,0,89,89,24,1,onetwo,,,,,,,,,,,,,,,,,,,,,,,,,,,,,,,,,,,,,,,,,,,,,,,,,,,,,,,,,,,,,,,,,,,,,,,,,,,,,,,,,,,,,,,,,,,,,,,,,,,,,,,,,,,,,,,,,,,,,,,,,,,,,,,,,,,,,,,,,,,,,,,,,,,,,,,,
,,,,,,605b0135815a24382dfabf98,62bbf9324557526fa8e9188e,2022-06-29_09h03.24.784,Colour_Asymmetry_Pilot,2022.1.3,Win32,59.98440405,62bbe60bf3d75ef465d3e404,0,90,90,87,1,fourthree,,,,,,,,,,,,,,,,,,,,,,,,,,,,,,,,,,,,,,,,,,,,,,,,,,,,,,,,,,,,,,,,,,,,,,,,,,,,,,,,,,,,,,,,,,,,,,,,,,,,,,,,,,,,,,,,,,,,,,,,,,,,,,,,,,,,,,,,,,,,,,,,,,,,,,,,
,,,,,,605b0135815a24382dfabf98,62bbf9324557526fa8e9188e,2022-06-29_09h03.24.784,Colour_Asymmetry_Pilot,2022.1.3,Win32,59.98440405,62bbe60bf3d75ef465d3e404,0,91,91,68,1,threeone,,,,,,,,,,,,,,,,,,,,,,,,,,,,,,,,,,,,,,,,,,,,,,,,,,,,,,,,,,,,,,,,,,,,,,,,,,,,,,,,,,,,,,,,,,,,,,,,,,,,,,,,,,,,,,,,,,,,,,,,,,,,,,,,,,,,,,,,,,,,,,,,,,,,,,,,
,,,,,,605b0135815a24382dfabf98,62bbf9324557526fa8e9188e,2022-06-29_09h03.24.784,Colour_Asymmetry_Pilot,2022.1.3,Win32,59.98440405,62bbe60bf3d75ef465d3e404,0,92,92,50,1,twoone,,,,,,,,,,,,,,,,,,,,,,,,,,,,,,,,,,,,,,,,,,,,,,,,,,,,,,,,,,,,,,,,,,,,,,,,,,,,,,,,,,,,,,,,,,,,,,,,,,,,,,,,,,,,,,,,,,,,,,,,,,,,,,,,,,,,,,,,,,,,,,,,,,,,,,,,
,,,,,,605b0135815a24382dfabf98,62bbf9324557526fa8e9188e,2022-06-29_09h03.24.784,Colour_Asymmetry_Pilot,2022.1.3,Win32,59.98440405,62bbe60bf3d75ef465d3e404,0,93,93,41,1,onethree,,,,,,,,,,,,,,,,,,,,,,,,,,,,,,,,,,,,,,,,,,,,,,,,,,,,,,,,,,,,,,,,,,,,,,,,,,,,,,,,,,,,,,,,,,,,,,,,,,,,,,,,,,,,,,,,,,,,,,,,,,,,,,,,,,,,,,,,,,,,,,,,,,,,,,,,
,,,,,,605b0135815a24382dfabf98,62bbf9324557526fa8e9188e,2022-06-29_09h03.24.784,Colour_Asymmetry_Pilot,2022.1.3,Win32,59.98440405,62bbe60bf3d75ef465d3e404,0,94,94,145,1,onethree,,,,,,,,,,,,,,,,,,,,,,,,,,,,,,,,,,,,,,,,,,,,,,,,,,,,,,,,,,,,,,,,,,,,,,,,,,,,,,,,,,,,,,,,,,,,,,,,,,,,,,,,,,,,,,,,,,,,,,,,,,,,,,,,,,,,,,,,,,,,,,,,,,,,,,,,
,,,,,,605b0135815a24382dfabf98,62bbf9324557526fa8e9188e,2022-06-29_09h03.24.784,Colour_Asymmetry_Pilot,2022.1.3,Win32,59.98440405,62bbe60bf3d75ef465d3e404,0,95,95,129,1,onethree,,,,,,,,,,,,,,,,,,,,,,,,,,,,,,,,,,,,,,,,,,,,,,,,,,,,,,,,,,,,,,,,,,,,,,,,,,,,,,,,,,,,,,,,,,,,,,,,,,,,,,,,,,,,,,,,,,,,,,,,,,,,,,,,,,,,,,,,,,,,,,,,,,,,,,,,
,,,,,,605b0135815a24382dfabf98,62bbf9324557526fa8e9188e,2022-06-29_09h03.24.784,Colour_Asymmetry_Pilot,2022.1.3,Win32,59.98440405,62bbe60bf3d75ef465d3e404,0,96,96,36,1,threeone,,,,,,,,,,,,,,,,,,,,,,,,,,,,,,,,,,,,,,,,,,,,,,,,,,,,,,,,,,,,,,,,,,,,,,,,,,,,,,,,,,,,,,,,,,,,,,,,,,,,,,,,,,,,,,,,,,,,,,,,,,,,,,,,,,,,,,,,,,,,,,,,,,,,,,,,
,,,,,,605b0135815a24382dfabf98,62bbf9324557526fa8e9188e,2022-06-29_09h03.24.784,Colour_Asymmetry_Pilot,2022.1.3,Win32,59.98440405,62bbe60bf3d75ef465d3e404,0,97,97,84,1,threeone,,,,,,,,,,,,,,,,,,,,,,,,,,,,,,,,,,,,,,,,,,,,,,,,,,,,,,,,,,,,,,,,,,,,,,,,,,,,,,,,,,,,,,,,,,,,,,,,,,,,,,,,,,,,,,,,,,,,,,,,,,,,,,,,,,,,,,,,,,,,,,,,,,,,,,,,
,,,,,,605b0135815a24382dfabf98,62bbf9324557526fa8e9188e,2022-06-29_09h03.24.784,Colour_Asymmetry_Pilot,2022.1.3,Win32,59.98440405,62bbe60bf3d75ef465d3e404,0,98,98,105,1,onethree,,,,,,,,,,,,,,,,,,,,,,,,,,,,,,,,,,,,,,,,,,,,,,,,,,,,,,,,,,,,,,,,,,,,,,,,,,,,,,,,,,,,,,,,,,,,,,,,,,,,,,,,,,,,,,,,,,,,,,,,,,,,,,,,,,,,,,,,,,,,,,,,,,,,,,,,
,,,,,,605b0135815a24382dfabf98,62bbf9324557526fa8e9188e,2022-06-29_09h03.24.784,Colour_Asymmetry_Pilot,2022.1.3,Win32,59.98440405,62bbe60bf3d75ef465d3e404,0,99,99,92,1,threeone,,,,,,,,,,,,,,,,,,,,,,,,,,,,,,,,,,,,,,,,,,,,,,,,,,,,,,,,,,,,,,,,,,,,,,,,,,,,,,,,,,,,,,,,,,,,,,,,,,,,,,,,,,,,,,,,,,,,,,,,,,,,,,,,,,,,,,,,,,,,,,,,,,,,,,,,
,,,,,,605b0135815a24382dfabf98,62bbf9324557526fa8e9188e,2022-06-29_09h03.24.784,Colour_Asymmetry_Pilot,2022.1.3,Win32,59.98440405,62bbe60bf3d75ef465d3e404,0,100,100,26,1,twoone,,,,,,,,,,,,,,,,,,,,,,,,,,,,,,,,,,,,,,,,,,,,,,,,,,,,,,,,,,,,,,,,,,,,,,,,,,,,,,,,,,,,,,,,,,,,,,,,,,,,,,,,,,,,,,,,,,,,,,,,,,,,,,,,,,,,,,,,,,,,,,,,,,,,,,,,
,,,,,,605b0135815a24382dfabf98,62bbf9324557526fa8e9188e,2022-06-29_09h03.24.784,Colour_Asymmetry_Pilot,2022.1.3,Win32,59.98440405,62bbe60bf3d75ef465d3e404,0,101,101,91,1,twofour,,,,,,,,,,,,,,,,,,,,,,,,,,,,,,,,,,,,,,,,,,,,,,,,,,,,,,,,,,,,,,,,,,,,,,,,,,,,,,,,,,,,,,,,,,,,,,,,,,,,,,,,,,,,,,,,,,,,,,,,,,,,,,,,,,,,,,,,,,,,,,,,,,,,,,,,
,,,,,,605b0135815a24382dfabf98,62bbf9324557526fa8e9188e,2022-06-29_09h03.24.784,Colour_Asymmetry_Pilot,2022.1.3,Win32,59.98440405,62bbe60bf3d75ef465d3e404,0,102,102,114,1,twoone,,,,,,,,,,,,,,,,,,,,,,,,,,,,,,,,,,,,,,,,,,,,,,,,,,,,,,,,,,,,,,,,,,,,,,,,,,,,,,,,,,,,,,,,,,,,,,,,,,,,,,,,,,,,,,,,,,,,,,,,,,,,,,,,,,,,,,,,,,,,,,,,,,,,,,,,
,,,,,,605b0135815a24382dfabf98,62bbf9324557526fa8e9188e,2022-06-29_09h03.24.784,Colour_Asymmetry_Pilot,2022.1.3,Win32,59.98440405,62bbe60bf3d75ef465d3e404,0,103,103,67,1,twofour,,,,,,,,,,,,,,,,,,,,,,,,,,,,,,,,,,,,,,,,,,,,,,,,,,,,,,,,,,,,,,,,,,,,,,,,,,,,,,,,,,,,,,,,,,,,,,,,,,,,,,,,,,,,,,,,,,,,,,,,,,,,,,,,,,,,,,,,,,,,,,,,,,,,,,,,
,,,,,,605b0135815a24382dfabf98,62bbf9324557526fa8e9188e,2022-06-29_09h03.24.784,Colour_Asymmetry_Pilot,2022.1.3,Win32,59.98440405,62bbe60bf3d75ef465d3e404,0,104,104,20,1,threeone,,,,,,,,,,,,,,,,,,,,,,,,,,,,,,,,,,,,,,,,,,,,,,,,,,,,,,,,,,,,,,,,,,,,,,,,,,,,,,,,,,,,,,,,,,,,,,,,,,,,,,,,,,,,,,,,,,,,,,,,,,,,,,,,,,,,,,,,,,,,,,,,,,,,,,,,
,,,,,,605b0135815a24382dfabf98,62bbf9324557526fa8e9188e,2022-06-29_09h03.24.784,Colour_Asymmetry_Pilot,2022.1.3,Win32,59.98440405,62bbe60bf3d75ef465d3e404,0,105,105,122,1,twoone,,,,,,,,,,,,,,,,,,,,,,,,,,,,,,,,,,,,,,,,,,,,,,,,,,,,,,,,,,,,,,,,,,,,,,,,,,,,,,,,,,,,,,,,,,,,,,,,,,,,,,,,,,,,,,,,,,,,,,,,,,,,,,,,,,,,,,,,,,,,,,,,,,,,,,,,
,,,,,,605b0135815a24382dfabf98,62bbf9324557526fa8e9188e,2022-06-29_09h03.24.784,Colour_Asymmetry_Pilot,2022.1.3,Win32,59.98440405,62bbe60bf3d75ef465d3e404,0,106,106,54,1,fourtwo,,,,,,,,,,,,,,,,,,,,,,,,,,,,,,,,,,,,,,,,,,,,,,,,,,,,,,,,,,,,,,,,,,,,,,,,,,,,,,,,,,,,,,,,,,,,,,,,,,,,,,,,,,,,,,,,,,,,,,,,,,,,,,,,,,,,,,,,,,,,,,,,,,,,,,,,
,,,,,,605b0135815a24382dfabf98,62bbf9324557526fa8e9188e,2022-06-29_09h03.24.784,Colour_Asymmetry_Pilot,2022.1.3,Win32,59.98440405,62bbe60bf3d75ef465d3e404,0,107,107,56,1,onetwo,,,,,,,,,,,,,,,,,,,,,,,,,,,,,,,,,,,,,,,,,,,,,,,,,,,,,,,,,,,,,,,,,,,,,,,,,,,,,,,,,,,,,,,,,,,,,,,,,,,,,,,,,,,,,,,,,,,,,,,,,,,,,,,,,,,,,,,,,,,,,,,,,,,,,,,,
,,,,,,605b0135815a24382dfabf98,62bbf9324557526fa8e9188e,2022-06-29_09h03.24.784,Colour_Asymmetry_Pilot,2022.1.3,Win32,59.98440405,62bbe60bf3d75ef465d3e404,0,108,108,123,1,twofour,,,,,,,,,,,,,,,,,,,,,,,,,,,,,,,,,,,,,,,,,,,,,,,,,,,,,,,,,,,,,,,,,,,,,,,,,,,,,,,,,,,,,,,,,,,,,,,,,,,,,,,,,,,,,,,,,,,,,,,,,,,,,,,,,,,,,,,,,,,,,,,,,,,,,,,,
,,,,,,605b0135815a24382dfabf98,62bbf9324557526fa8e9188e,2022-06-29_09h03.24.784,Colour_Asymmetry_Pilot,2022.1.3,Win32,59.98440405,62bbe60bf3d75ef465d3e404,0,109,109,90,1,twoone,,,,,,,,,,,,,,,,,,,,,,,,,,,,,,,,,,,,,,,,,,,,,,,,,,,,,,,,,,,,,,,,,,,,,,,,,,,,,,,,,,,,,,,,,,,,,,,,,,,,,,,,,,,,,,,,,,,,,,,,,,,,,,,,,,,,,,,,,,,,,,,,,,,,,,,,
,,,,,,605b0135815a24382dfabf98,62bbf9324557526fa8e9188e,2022-06-29_09h03.24.784,Colour_Asymmetry_Pilot,2022.1.3,Win32,59.98440405,62bbe60bf3d75ef465d3e404,0,110,110,45,1,threefour,,,,,,,,,,,,,,,,,,,,,,,,,,,,,,,,,,,,,,,,,,,,,,,,,,,,,,,,,,,,,,,,,,,,,,,,,,,,,,,,,,,,,,,,,,,,,,,,,,,,,,,,,,,,,,,,,,,,,,,,,,,,,,,,,,,,,,,,,,,,,,,,,,,,,,,,
,,,,,,605b0135815a24382dfabf98,62bbf9324557526fa8e9188e,2022-06-29_09h03.24.784,Colour_Asymmetry_Pilot,2022.1.3,Win32,59.98440405,62bbe60bf3d75ef465d3e404,0,111,111,115,1,twofour,,,,,,,,,,,,,,,,,,,,,,,,,,,,,,,,,,,,,,,,,,,,,,,,,,,,,,,,,,,,,,,,,,,,,,,,,,,,,,,,,,,,,,,,,,,,,,,,,,,,,,,,,,,,,,,,,,,,,,,,,,,,,,,,,,,,,,,,,,,,,,,,,,,,,,,,
,,,,,,605b0135815a24382dfabf98,62bbf9324557526fa8e9188e,2022-06-29_09h03.24.784,Colour_Asymmetry_Pilot,2022.1.3,Win32,59.98440405,62bbe60bf3d75ef465d3e404,0,112,112,108,1,threeone,,,,,,,,,,,,,,,,,,,,,,,,,,,,,,,,,,,,,,,,,,,,,,,,,,,,,,,,,,,,,,,,,,,,,,,,,,,,,,,,,,,,,,,,,,,,,,,,,,,,,,,,,,,,,,,,,,,,,,,,,,,,,,,,,,,,,,,,,,,,,,,,,,,,,,,,
,,,,,,605b0135815a24382dfabf98,62bbf9324557526fa8e9188e,2022-06-29_09h03.24.784,Colour_Asymmetry_Pilot,2022.1.3,Win32,59.98440405,62bbe60bf3d75ef465d3e404,0,113,113,120,1,onetwo,,,,,,,,,,,,,,,,,,,,,,,,,,,,,,,,,,,,,,,,,,,,,,,,,,,,,,,,,,,,,,,,,,,,,,,,,,,,,,,,,,,,,,,,,,,,,,,,,,,,,,,,,,,,,,,,,,,,,,,,,,,,,,,,,,,,,,,,,,,,,,,,,,,,,,,,
,,,,,,605b0135815a24382dfabf98,62bbf9324557526fa8e9188e,2022-06-29_09h03.24.784,Colour_Asymmetry_Pilot,2022.1.3,Win32,59.98440405,62bbe60bf3d75ef465d3e404,0,114,114,139,1,twofour,,,,,,,,,,,,,,,,,,,,,,,,,,,,,,,,,,,,,,,,,,,,,,,,,,,,,,,,,,,,,,,,,,,,,,,,,,,,,,,,,,,,,,,,,,,,,,,,,,,,,,,,,,,,,,,,,,,,,,,,,,,,,,,,,,,,,,,,,,,,,,,,,,,,,,,,
,,,,,,605b0135815a24382dfabf98,62bbf9324557526fa8e9188e,2022-06-29_09h03.24.784,Colour_Asymmetry_Pilot,2022.1.3,Win32,59.98440405,62bbe60bf3d75ef465d3e404,0,115,115,111,1,fourthree,,,,,,,,,,,,,,,,,,,,,,,,,,,,,,,,,,,,,,,,,,,,,,,,,,,,,,,,,,,,,,,,,,,,,,,,,,,,,,,,,,,,,,,,,,,,,,,,,,,,,,,,,,,,,,,,,,,,,,,,,,,,,,,,,,,,,,,,,,,,,,,,,,,,,,,,
,,,,,,605b0135815a24382dfabf98,62bbf9324557526fa8e9188e,2022-06-29_09h03.24.784,Colour_Asymmetry_Pilot,2022.1.3,Win32,59.98440405,62bbe60bf3d75ef465d3e404,0,116,116,60,1,threeone,,,,,,,,,,,,,,,,,,,,,,,,,,,,,,,,,,,,,,,,,,,,,,,,,,,,,,,,,,,,,,,,,,,,,,,,,,,,,,,,,,,,,,,,,,,,,,,,,,,,,,,,,,,,,,,,,,,,,,,,,,,,,,,,,,,,,,,,,,,,,,,,,,,,,,,,
,,,,,,605b0135815a24382dfabf98,62bbf9324557526fa8e9188e,2022-06-29_09h03.24.784,Colour_Asymmetry_Pilot,2022.1.3,Win32,59.98440405,62bbe60bf3d75ef465d3e404,0,117,117,137,1,onethree,,,,,,,,,,,,,,,,,,,,,,,,,,,,,,,,,,,,,,,,,,,,,,,,,,,,,,,,,,,,,,,,,,,,,,,,,,,,,,,,,,,,,,,,,,,,,,,,,,,,,,,,,,,,,,,,,,,,,,,,,,,,,,,,,,,,,,,,,,,,,,,,,,,,,,,,
,,,,,,605b0135815a24382dfabf98,62bbf9324557526fa8e9188e,2022-06-29_09h03.24.784,Colour_Asymmetry_Pilot,2022.1.3,Win32,59.98440405,62bbe60bf3d75ef465d3e404,0,118,118,126,1,fourtwo,,,,,,,,,,,,,,,,,,,,,,,,,,,,,,,,,,,,,,,,,,,,,,,,,,,,,,,,,,,,,,,,,,,,,,,,,,,,,,,,,,,,,,,,,,,,,,,,,,,,,,,,,,,,,,,,,,,,,,,,,,,,,,,,,,,,,,,,,,,,,,,,,,,,,,,,
,,,,,,605b0135815a24382dfabf98,62bbf9324557526fa8e9188e,2022-06-29_09h03.24.784,Colour_Asymmetry_Pilot,2022.1.3,Win32,59.98440405,62bbe60bf3d75ef465d3e404,0,119,119,9,1,onethree,,,,,,,,,,,,,,,,,,,,,,,,,,,,,,,,,,,,,,,,,,,,,,,,,,,,,,,,,,,,,,,,,,,,,,,,,,,,,,,,,,,,,,,,,,,,,,,,,,,,,,,,,,,,,,,,,,,,,,,,,,,,,,,,,,,,,,,,,,,,,,,,,,,,,,,,
,,,,,,605b0135815a24382dfabf98,62bbf9324557526fa8e9188e,2022-06-29_09h03.24.784,Colour_Asymmetry_Pilot,2022.1.3,Win32,59.98440405,62bbe60bf3d75ef465d3e404,0,120,120,75,1,twofour,,,,,,,,,,,,,,,,,,,,,,,,,,,,,,,,,,,,,,,,,,,,,,,,,,,,,,,,,,,,,,,,,,,,,,,,,,,,,,,,,,,,,,,,,,,,,,,,,,,,,,,,,,,,,,,,,,,,,,,,,,,,,,,,,,,,,,,,,,,,,,,,,,,,,,,,
,,,,,,605b0135815a24382dfabf98,62bbf9324557526fa8e9188e,2022-06-29_09h03.24.784,Colour_Asymmetry_Pilot,2022.1.3,Win32,59.98440405,62bbe60bf3d75ef465d3e404,0,121,121,127,1,fourthree,,,,,,,,,,,,,,,,,,,,,,,,,,,,,,,,,,,,,,,,,,,,,,,,,,,,,,,,,,,,,,,,,,,,,,,,,,,,,,,,,,,,,,,,,,,,,,,,,,,,,,,,,,,,,,,,,,,,,,,,,,,,,,,,,,,,,,,,,,,,,,,,,,,,,,,,
,,,,,,605b0135815a24382dfabf98,62bbf9324557526fa8e9188e,2022-06-29_09h03.24.784,Colour_Asymmetry_Pilot,2022.1.3,Win32,59.98440405,62bbe60bf3d75ef465d3e404,0,122,122,103,1,fourthree,,,,,,,,,,,,,,,,,,,,,,,,,,,,,,,,,,,,,,,,,,,,,,,,,,,,,,,,,,,,,,,,,,,,,,,,,,,,,,,,,,,,,,,,,,,,,,,,,,,,,,,,,,,,,,,,,,,,,,,,,,,,,,,,,,,,,,,,,,,,,,,,,,,,,,,,
,,,,,,605b0135815a24382dfabf98,62bbf9324557526fa8e9188e,2022-06-29_09h03.24.784,Colour_Asymmetry_Pilot,2022.1.3,Win32,59.98440405,62bbe60bf3d75ef465d3e404,0,123,123,74,1,twoone,,,,,,,,,,,,,,,,,,,,,,,,,,,,,,,,,,,,,,,,,,,,,,,,,,,,,,,,,,,,,,,,,,,,,,,,,,,,,,,,,,,,,,,,,,,,,,,,,,,,,,,,,,,,,,,,,,,,,,,,,,,,,,,,,,,,,,,,,,,,,,,,,,,,,,,,
,,,,,,605b0135815a24382dfabf98,62bbf9324557526fa8e9188e,2022-06-29_09h03.24.784,Colour_Asymmetry_Pilot,2022.1.3,Win32,59.98440405,62bbe60bf3d75ef465d3e404,0,124,124,154,1,twoone,,,,,,,,,,,,,,,,,,,,,,,,,,,,,,,,,,,,,,,,,,,,,,,,,,,,,,,,,,,,,,,,,,,,,,,,,,,,,,,,,,,,,,,,,,,,,,,,,,,,,,,,,,,,,,,,,,,,,,,,,,,,,,,,,,,,,,,,,,,,,,,,,,,,,,,,
,,,,,,605b0135815a24382dfabf98,62bbf9324557526fa8e9188e,2022-06-29_09h03.24.784,Colour_Asymmetry_Pilot,2022.1.3,Win32,59.98440405,62bbe60bf3d75ef465d3e404,0,125,125,131,1,twofour,,,,,,,,,,,,,,,,,,,,,,,,,,,,,,,,,,,,,,,,,,,,,,,,,,,,,,,,,,,,,,,,,,,,,,,,,,,,,,,,,,,,,,,,,,,,,,,,,,,,,,,,,,,,,,,,,,,,,,,,,,,,,,,,,,,,,,,,,,,,,,,,,,,,,,,,
,,,,,,605b0135815a24382dfabf98,62bbf9324557526fa8e9188e,2022-06-29_09h03.24.784,Colour_Asymmetry_Pilot,2022.1.3,Win32,59.98440405,62bbe60bf3d75ef465d3e404,0,126,126,96,1,onetwo,,,,,,,,,,,,,,,,,,,,,,,,,,,,,,,,,,,,,,,,,,,,,,,,,,,,,,,,,,,,,,,,,,,,,,,,,,,,,,,,,,,,,,,,,,,,,,,,,,,,,,,,,,,,,,,,,,,,,,,,,,,,,,,,,,,,,,,,,,,,,,,,,,,,,,,,
,,,,,,605b0135815a24382dfabf98,62bbf9324557526fa8e9188e,2022-06-29_09h03.24.784,Colour_Asymmetry_Pilot,2022.1.3,Win32,59.98440405,62bbe60bf3d75ef465d3e404,0,127,127,118,1,fourtwo,,,,,,,,,,,,,,,,,,,,,,,,,,,,,,,,,,,,,,,,,,,,,,,,,,,,,,,,,,,,,,,,,,,,,,,,,,,,,,,,,,,,,,,,,,,,,,,,,,,,,,,,,,,,,,,,,,,,,,,,,,,,,,,,,,,,,,,,,,,,,,,,,,,,,,,,
,,,,,,605b0135815a24382dfabf98,62bbf9324557526fa8e9188e,2022-06-29_09h03.24.784,Colour_Asymmetry_Pilot,2022.1.3,Win32,59.98440405,62bbe60bf3d75ef465d3e404,0,128,128,142,1,fourtwo,,,,,,,,,,,,,,,,,,,,,,,,,,,,,,,,,,,,,,,,,,,,,,,,,,,,,,,,,,,,,,,,,,,,,,,,,,,,,,,,,,,,,,,,,,,,,,,,,,,,,,,,,,,,,,,,,,,,,,,,,,,,,,,,,,,,,,,,,,,,,,,,,,,,,,,,
,,,,,,605b0135815a24382dfabf98,62bbf9324557526fa8e9188e,2022-06-29_09h03.24.784,Colour_Asymmetry_Pilot,2022.1.3,Win32,59.98440405,62bbe60bf3d75ef465d3e404,0,129,129,59,1,twofour,,,,,,,,,,,,,,,,,,,,,,,,,,,,,,,,,,,,,,,,,,,,,,,,,,,,,,,,,,,,,,,,,,,,,,,,,,,,,,,,,,,,,,,,,,,,,,,,,,,,,,,,,,,,,,,,,,,,,,,,,,,,,,,,,,,,,,,,,,,,,,,,,,,,,,,,
,,,,,,605b0135815a24382dfabf98,62bbf9324557526fa8e9188e,2022-06-29_09h03.24.784,Colour_Asymmetry_Pilot,2022.1.3,Win32,59.98440405,62bbe60bf3d75ef465d3e404,0,130,130,97,1,onethree,,,,,,,,,,,,,,,,,,,,,,,,,,,,,,,,,,,,,,,,,,,,,,,,,,,,,,,,,,,,,,,,,,,,,,,,,,,,,,,,,,,,,,,,,,,,,,,,,,,,,,,,,,,,,,,,,,,,,,,,,,,,,,,,,,,,,,,,,,,,,,,,,,,,,,,,
,,,,,,605b0135815a24382dfabf98,62bbf9324557526fa8e9188e,2022-06-29_09h03.24.784,Colour_Asymmetry_Pilot,2022.1.3,Win32,59.98440405,62bbe60bf3d75ef465d3e404,0,131,131,136,1,onetwo,,,,,,,,,,,,,,,,,,,,,,,,,,,,,,,,,,,,,,,,,,,,,,,,,,,,,,,,,,,,,,,,,,,,,,,,,,,,,,,,,,,,,,,,,,,,,,,,,,,,,,,,,,,,,,,,,,,,,,,,,,,,,,,,,,,,,,,,,,,,,,,,,,,,,,,,
,,,,,,605b0135815a24382dfabf98,62bbf9324557526fa8e9188e,2022-06-29_09h03.24.784,Colour_Asymmetry_Pilot,2022.1.3,Win32,59.98440405,62bbe60bf3d75ef465d3e404,0,132,132,125,1,threefour,,,,,,,,,,,,,,,,,,,,,,,,,,,,,,,,,,,,,,,,,,,,,,,,,,,,,,,,,,,,,,,,,,,,,,,,,,,,,,,,,,,,,,,,,,,,,,,,,,,,,,,,,,,,,,,,,,,,,,,,,,,,,,,,,,,,,,,,,,,,,,,,,,,,,,,,
,,,,,,605b0135815a24382dfabf98,62bbf9324557526fa8e9188e,2022-06-29_09h03.24.784,Colour_Asymmetry_Pilot,2022.1.3,Win32,59.98440405,62bbe60bf3d75ef465d3e404,0,133,133,39,1,fourthree,,,,,,,,,,,,,,,,,,,,,,,,,,,,,,,,,,,,,,,,,,,,,,,,,,,,,,,,,,,,,,,,,,,,,,,,,,,,,,,,,,,,,,,,,,,,,,,,,,,,,,,,,,,,,,,,,,,,,,,,,,,,,,,,,,,,,,,,,,,,,,,,,,,,,,,,
,,,,,,605b0135815a24382dfabf98,62bbf9324557526fa8e9188e,2022-06-29_09h03.24.784,Colour_Asymmetry_Pilot,2022.1.3,Win32,59.98440405,62bbe60bf3d75ef465d3e404,0,134,134,124,1,threeone,,,,,,,,,,,,,,,,,,,,,,,,,,,,,,,,,,,,,,,,,,,,,,,,,,,,,,,,,,,,,,,,,,,,,,,,,,,,,,,,,,,,,,,,,,,,,,,,,,,,,,,,,,,,,,,,,,,,,,,,,,,,,,,,,,,,,,,,,,,,,,,,,,,,,,,,
,,,,,,605b0135815a24382dfabf98,62bbf9324557526fa8e9188e,2022-06-29_09h03.24.784,Colour_Asymmetry_Pilot,2022.1.3,Win32,59.98440405,62bbe60bf3d75ef465d3e404,0,135,135,44,1,threeone,,,,,,,,,,,,,,,,,,,,,,,,,,,,,,,,,,,,,,,,,,,,,,,,,,,,,,,,,,,,,,,,,,,,,,,,,,,,,,,,,,,,,,,,,,,,,,,,,,,,,,,,,,,,,,,,,,,,,,,,,,,,,,,,,,,,,,,,,,,,,,,,,,,,,,,,
,,,,,,605b0135815a24382dfabf98,62bbf9324557526fa8e9188e,2022-06-29_09h03.24.784,Colour_Asymmetry_Pilot,2022.1.3,Win32,59.98440405,62bbe60bf3d75ef465d3e404,0,136,136,31,1,fourthree,,,,,,,,,,,,,,,,,,,,,,,,,,,,,,,,,,,,,,,,,,,,,,,,,,,,,,,,,,,,,,,,,,,,,,,,,,,,,,,,,,,,,,,,,,,,,,,,,,,,,,,,,,,,,,,,,,,,,,,,,,,,,,,,,,,,,,,,,,,,,,,,,,,,,,,,
,,,,,,605b0135815a24382dfabf98,62bbf9324557526fa8e9188e,2022-06-29_09h03.24.784,Colour_Asymmetry_Pilot,2022.1.3,Win32,59.98440405,62bbe60bf3d75ef465d3e404,0,137,137,62,1,fourtwo,,,,,,,,,,,,,,,,,,,,,,,,,,,,,,,,,,,,,,,,,,,,,,,,,,,,,,,,,,,,,,,,,,,,,,,,,,,,,,,,,,,,,,,,,,,,,,,,,,,,,,,,,,,,,,,,,,,,,,,,,,,,,,,,,,,,,,,,,,,,,,,,,,,,,,,,
,,,,,,605b0135815a24382dfabf98,62bbf9324557526fa8e9188e,2022-06-29_09h03.24.784,Colour_Asymmetry_Pilot,2022.1.3,Win32,59.98440405,62bbe60bf3d75ef465d3e404,0,138,138,53,1,threefour,,,,,,,,,,,,,,,,,,,,,,,,,,,,,,,,,,,,,,,,,,,,,,,,,,,,,,,,,,,,,,,,,,,,,,,,,,,,,,,,,,,,,,,,,,,,,,,,,,,,,,,,,,,,,,,,,,,,,,,,,,,,,,,,,,,,,,,,,,,,,,,,,,,,,,,,
,,,,,,605b0135815a24382dfabf98,62bbf9324557526fa8e9188e,2022-06-29_09h03.24.784,Colour_Asymmetry_Pilot,2022.1.3,Win32,59.98440405,62bbe60bf3d75ef465d3e404,0,139,139,146,1,twoone,,,,,,,,,,,,,,,,,,,,,,,,,,,,,,,,,,,,,,,,,,,,,,,,,,,,,,,,,,,,,,,,,,,,,,,,,,,,,,,,,,,,,,,,,,,,,,,,,,,,,,,,,,,,,,,,,,,,,,,,,,,,,,,,,,,,,,,,,,,,,,,,,,,,,,,,
,,,,,,605b0135815a24382dfabf98,62bbf9324557526fa8e9188e,2022-06-29_09h03.24.784,Colour_Asymmetry_Pilot,2022.1.3,Win32,59.98440405,62bbe60bf3d75ef465d3e404,0,140,140,113,1,onethree,,,,,,,,,,,,,,,,,,,,,,,,,,,,,,,,,,,,,,,,,,,,,,,,,,,,,,,,,,,,,,,,,,,,,,,,,,,,,,,,,,,,,,,,,,,,,,,,,,,,,,,,,,,,,,,,,,,,,,,,,,,,,,,,,,,,,,,,,,,,,,,,,,,,,,,,
,,,,,,605b0135815a24382dfabf98,62bbf9324557526fa8e9188e,2022-06-29_09h03.24.784,Colour_Asymmetry_Pilot,2022.1.3,Win32,59.98440405,62bbe60bf3d75ef465d3e404,0,141,141,155,1,twofour,,,,,,,,,,,,,,,,,,,,,,,,,,,,,,,,,,,,,,,,,,,,,,,,,,,,,,,,,,,,,,,,,,,,,,,,,,,,,,,,,,,,,,,,,,,,,,,,,,,,,,,,,,,,,,,,,,,,,,,,,,,,,,,,,,,,,,,,,,,,,,,,,,,,,,,,
,,,,,,605b0135815a24382dfabf98,62bbf9324557526fa8e9188e,2022-06-29_09h03.24.784,Colour_Asymmetry_Pilot,2022.1.3,Win32,59.98440405,62bbe60bf3d75ef465d3e404,0,142,142,6,1,fourtwo,,,,,,,,,,,,,,,,,,,,,,,,,,,,,,,,,,,,,,,,,,,,,,,,,,,,,,,,,,,,,,,,,,,,,,,,,,,,,,,,,,,,,,,,,,,,,,,,,,,,,,,,,,,,,,,,,,,,,,,,,,,,,,,,,,,,,,,,,,,,,,,,,,,,,,,,
,,,,,,605b0135815a24382dfabf98,62bbf9324557526fa8e9188e,2022-06-29_09h03.24.784,Colour_Asymmetry_Pilot,2022.1.3,Win32,59.98440405,62bbe60bf3d75ef465d3e404,0,143,143,23,1,fourthree,,,,,,,,,,,,,,,,,,,,,,,,,,,,,,,,,,,,,,,,,,,,,,,,,,,,,,,,,,,,,,,,,,,,,,,,,,,,,,,,,,,,,,,,,,,,,,,,,,,,,,,,,,,,,,,,,,,,,,,,,,,,,,,,,,,,,,,,,,,,,,,,,,,,,,,,
,,,,,,605b0135815a24382dfabf98,62bbf9324557526fa8e9188e,2022-06-29_09h03.24.784,Colour_Asymmetry_Pilot,2022.1.3,Win32,59.98440405,62bbe60bf3d75ef465d3e404,0,144,144,100,1,threeone,,,,,,,,,,,,,,,,,,,,,,,,,,,,,,,,,,,,,,,,,,,,,,,,,,,,,,,,,,,,,,,,,,,,,,,,,,,,,,,,,,,,,,,,,,,,,,,,,,,,,,,,,,,,,,,,,,,,,,,,,,,,,,,,,,,,,,,,,,,,,,,,,,,,,,,,
,,,,,,605b0135815a24382dfabf98,62bbf9324557526fa8e9188e,2022-06-29_09h03.24.784,Colour_Asymmetry_Pilot,2022.1.3,Win32,59.98440405,62bbe60bf3d75ef465d3e404,0,145,145,64,1,onetwo,,,,,,,,,,,,,,,,,,,,,,,,,,,,,,,,,,,,,,,,,,,,,,,,,,,,,,,,,,,,,,,,,,,,,,,,,,,,,,,,,,,,,,,,,,,,,,,,,,,,,,,,,,,,,,,,,,,,,,,,,,,,,,,,,,,,,,,,,,,,,,,,,,,,,,,,
,,,,,,605b0135815a24382dfabf98,62bbf9324557526fa8e9188e,2022-06-29_09h03.24.784,Colour_Asymmetry_Pilot,2022.1.3,Win32,59.98440405,62bbe60bf3d75ef465d3e404,0,146,146,29,1,threefour,,,,,,,,,,,,,,,,,,,,,,,,,,,,,,,,,,,,,,,,,,,,,,,,,,,,,,,,,,,,,,,,,,,,,,,,,,,,,,,,,,,,,,,,,,,,,,,,,,,,,,,,,,,,,,,,,,,,,,,,,,,,,,,,,,,,,,,,,,,,,,,,,,,,,,,,
,,,,,,605b0135815a24382dfabf98,62bbf9324557526fa8e9188e,2022-06-29_09h03.24.784,Colour_Asymmetry_Pilot,2022.1.3,Win32,59.98440405,62bbe60bf3d75ef465d3e404,0,147,147,16,1,onetwo,,,,,,,,,,,,,,,,,,,,,,,,,,,,,,,,,,,,,,,,,,,,,,,,,,,,,,,,,,,,,,,,,,,,,,,,,,,,,,,,,,,,,,,,,,,,,,,,,,,,,,,,,,,,,,,,,,,,,,,,,,,,,,,,,,,,,,,,,,,,,,,,,,,,,,,,
,,,,,,605b0135815a24382dfabf98,62bbf9324557526fa8e9188e,2022-06-29_09h03.24.784,Colour_Asymmetry_Pilot,2022.1.3,Win32,59.98440405,62bbe60bf3d75ef465d3e404,0,148,148,63,1,fourthree,,,,,,,,,,,,,,,,,,,,,,,,,,,,,,,,,,,,,,,,,,,,,,,,,,,,,,,,,,,,,,,,,,,,,,,,,,,,,,,,,,,,,,,,,,,,,,,,,,,,,,,,,,,,,,,,,,,,,,,,,,,,,,,,,,,,,,,,,,,,,,,,,,,,,,,,
,,,,,,605b0135815a24382dfabf98,62bbf9324557526fa8e9188e,2022-06-29_09h03.24.784,Colour_Asymmetry_Pilot,2022.1.3,Win32,59.98440405,62bbe60bf3d75ef465d3e404,0,149,149,99,1,twofour,,,,,,,,,,,,,,,,,,,,,,,,,,,,,,,,,,,,,,,,,,,,,,,,,,,,,,,,,,,,,,,,,,,,,,,,,,,,,,,,,,,,,,,,,,,,,,,,,,,,,,,,,,,,,,,,,,,,,,,,,,,,,,,,,,,,,,,,,,,,,,,,,,,,,,,,
,,,,,,605b0135815a24382dfabf98,62bbf9324557526fa8e9188e,2022-06-29_09h03.24.784,Colour_Asymmetry_Pilot,2022.1.3,Win32,59.98440405,62bbe60bf3d75ef465d3e404,0,150,150,151,1,fourthree,,,,,,,,,,,,,,,,,,,,,,,,,,,,,,,,,,,,,,,,,,,,,,,,,,,,,,,,,,,,,,,,,,,,,,,,,,,,,,,,,,,,,,,,,,,,,,,,,,,,,,,,,,,,,,,,,,,,,,,,,,,,,,,,,,,,,,,,,,,,,,,,,,,,,,,,
,,,,,,605b0135815a24382dfabf98,62bbf9324557526fa8e9188e,2022-06-29_09h03.24.784,Colour_Asymmetry_Pilot,2022.1.3,Win32,59.98440405,62bbe60bf3d75ef465d3e404,0,151,151,89,1,onethree,,,,,,,,,,,,,,,,,,,,,,,,,,,,,,,,,,,,,,,,,,,,,,,,,,,,,,,,,,,,,,,,,,,,,,,,,,,,,,,,,,,,,,,,,,,,,,,,,,,,,,,,,,,,,,,,,,,,,,,,,,,,,,,,,,,,,,,,,,,,,,,,,,,,,,,,
,,,,,,605b0135815a24382dfabf98,62bbf9324557526fa8e9188e,2022-06-29_09h03.24.784,Colour_Asymmetry_Pilot,2022.1.3,Win32,59.98440405,62bbe60bf3d75ef465d3e404,0,152,152,66,1,twoone,,,,,,,,,,,,,,,,,,,,,,,,,,,,,,,,,,,,,,,,,,,,,,,,,,,,,,,,,,,,,,,,,,,,,,,,,,,,,,,,,,,,,,,,,,,,,,,,,,,,,,,,,,,,,,,,,,,,,,,,,,,,,,,,,,,,,,,,,,,,,,,,,,,,,,,,
,,,,,,605b0135815a24382dfabf98,62bbf9324557526fa8e9188e,2022-06-29_09h03.24.784,Colour_Asymmetry_Pilot,2022.1.3,Win32,59.98440405,62bbe60bf3d75ef465d3e404,0,153,153,65,1,onethree,,,,,,,,,,,,,,,,,,,,,,,,,,,,,,,,,,,,,,,,,,,,,,,,,,,,,,,,,,,,,,,,,,,,,,,,,,,,,,,,,,,,,,,,,,,,,,,,,,,,,,,,,,,,,,,,,,,,,,,,,,,,,,,,,,,,,,,,,,,,,,,,,,,,,,,,
,,,,,,605b0135815a24382dfabf98,62bbf9324557526fa8e9188e,2022-06-29_09h03.24.784,Colour_Asymmetry_Pilot,2022.1.3,Win32,59.98440405,62bbe60bf3d75ef465d3e404,0,154,154,93,1,threefour,,,,,,,,,,,,,,,,,,,,,,,,,,,,,,,,,,,,,,,,,,,,,,,,,,,,,,,,,,,,,,,,,,,,,,,,,,,,,,,,,,,,,,,,,,,,,,,,,,,,,,,,,,,,,,,,,,,,,,,,,,,,,,,,,,,,,,,,,,,,,,,,,,,,,,,,
,,,,,,605b0135815a24382dfabf98,62bbf9324557526fa8e9188e,2022-06-29_09h03.24.784,Colour_Asymmetry_Pilot,2022.1.3,Win32,59.98440405,62bbe60bf3d75ef465d3e404,0,155,155,28,1,threeone,,,,,,,,,,,,,,,,,,,,,,,,,,,,,,,,,,,,,,,,,,,,,,,,,,,,,,,,,,,,,,,,,,,,,,,,,,,,,,,,,,,,,,,,,,,,,,,,,,,,,,,,,,,,,,,,,,,,,,,,,,,,,,,,,,,,,,,,,,,,,,,,,,,,,,,,
,,,,,,605b0135815a24382dfabf98,62bbf9324557526fa8e9188e,2022-06-29_09h03.24.784,Colour_Asymmetry_Pilot,2022.1.3,Win32,59.98440405,62bbe60bf3d75ef465d3e404,0,156,156,55,1,fourthree,,,,,,,,,,,,,,,,,,,,,,,,,,,,,,,,,,,,,,,,,,,,,,,,,,,,,,,,,,,,,,,,,,,,,,,,,,,,,,,,,,,,,,,,,,,,,,,,,,,,,,,,,,,,,,,,,,,,,,,,,,,,,,,,,,,,,,,,,,,,,,,,,,,,,,,,
,,,,,,605b0135815a24382dfabf98,62bbf9324557526fa8e9188e,2022-06-29_09h03.24.784,Colour_Asymmetry_Pilot,2022.1.3,Win32,59.98440405,62bbe60bf3d75ef465d3e404,0,157,157,150,1,fourtwo,,,,,,,,,,,,,,,,,,,,,,,,,,,,,,,,,,,,,,,,,,,,,,,,,,,,,,,,,,,,,,,,,,,,,,,,,,,,,,,,,,,,,,,,,,,,,,,,,,,,,,,,,,,,,,,,,,,,,,,,,,,,,,,,,,,,,,,,,,,,,,,,,,,,,,,,
,,,,,,605b0135815a24382dfabf98,62bbf9324557526fa8e9188e,2022-06-29_09h03.24.784,Colour_Asymmetry_Pilot,2022.1.3,Win32,59.98440405,62bbe60bf3d75ef465d3e404,0,158,158,19,1,twofour,,,,,,,,,,,,,,,,,,,,,,,,,,,,,,,,,,,,,,,,,,,,,,,,,,,,,,,,,,,,,,,,,,,,,,,,,,,,,,,,,,,,,,,,,,,,,,,,,,,,,,,,,,,,,,,,,,,,,,,,,,,,,,,,,,,,,,,,,,,,,,,,,,,,,,,,
,,,,,,605b0135815a24382dfabf98,62bbf9324557526fa8e9188e,2022-06-29_09h03.24.784,Colour_Asymmetry_Pilot,2022.1.3,Win32,59.98440405,62bbe60bf3d75ef465d3e404,0,159,159,8,1,onetwo,,,,,,,,,,,,,,,,,,,,,,,,,,,,,,,,,,,,,,,,,,,,,,,,,,,,,,,,,,,,,,,,,,,,,,,,,,,,,,,,,,,,,,,,,,,,,,,,,,,,,,,,,,,,,,,,,,,,,,,,,,,,,,,,,,,,,,,,,,,,,,,,,,,,,,,,
,,,,,,605b0135815a24382dfabf98,62bbf9324557526fa8e9188e,2022-06-29_09h03.24.784,Colour_Asymmetry_Pilot,2022.1.3,Win32,59.98440405,62bbe60bf3d75ef465d3e404,0,160,160,33,1,onethree,,,,,,,,,,,,,,,,,,,,,,,,,,,,,,,,,,,,,,,,,,,,,,,,,,,,,,,,,,,,,,,,,,,,,,,,,,,,,,,,,,,,,,,,,,,,,,,,,,,,,,,,,,,,,,,,,,,,,,,,,,,,,,,,,,,,,,,,,,,,,,,,,,,,,,,,
,,,,,,605b0135815a24382dfabf98,62bbf9324557526fa8e9188e,2022-06-29_09h03.24.784,Colour_Asymmetry_Pilot,2022.1.3,Win32,59.98440405,62bbe60bf3d75ef465d3e404,0,161,161,46,1,fourtwo,,,,,,,,,,,,,,,,,,,,,,,,,,,,,,,,,,,,,,,,,,,,,,,,,,,,,,,,,,,,,,,,,,,,,,,,,,,,,,,,,,,,,,,,,,,,,,,,,,,,,,,,,,,,,,,,,,,,,,,,,,,,,,,,,,,,,,,,,,,,,,,,,,,,,,,,
,,,,,,605b0135815a24382dfabf98,62bbf9324557526fa8e9188e,2022-06-29_09h03.24.784,Colour_Asymmetry_Pilot,2022.1.3,Win32,59.98440405,62bbe60bf3d75ef465d3e404,,,,,,,space,12.3789,space,16.0395,space,43.3585,space,10.3959,space,6.7316,space,2.8541,"[-0.9766,-0.6472,0.07440000000000002]",onethree,"[0.19199999999999995,0.18419999999999992,0.5136000000000001]",2,36.6109,102.0000238,-33.68183088,1,0,0,response3disk_5,1.636428876,6.318170309,1,0,0,rectangle_8,1.636428876,6.318170309,1,0,0,4,1.636428876,6.318170309,1,0,0,0,0,0,0,1,,,,,,,,,,,,,,,,,,,,,,,,,,,,,,,,,,,,,,,,,,,,,,,,,,,,,,,,,,,,,,,,,,,,,,,,,,,,,,,,,,,,,,,,,,,,,,,,,,,,,,,,,,,
,,,,,,605b0135815a24382dfabf98,62bbf9324557526fa8e9188e,2022-06-29_09h03.24.784,Colour_Asymmetry_Pilot,2022.1.3,Win32,59.98440405,62bbe60bf3d75ef465d3e404,,,,,,,,,,,,,,,,,,,"[-0.4746,-0.0354000000000001,0.5449999999999999]",fourtwo,"[-0.4746,-0.0354000000000001,0.5449999999999999]",4,3.2831,54.72729516,92.13635468,1,0,0,response1disk_5,0.909156127,-6.045466423,1,0,0,rectangle_8,0.909156127,-6.045466423,1,0,0,4,0.909156127,-6.045466423,1,0,0,1,0,1,0,1,,,,,,,,,,,,,,,,,,,,,,,,,,,,,,,,,,,,,,,,,,,,,,,,,,,,,,,,,,,,,,,,,,,,,,,,,,,,,,,,,,,,,,,,,,,,,,,,,,,,,,,,,,,
,,,,,,605b0135815a24382dfabf98,62bbf9324557526fa8e9188e,2022-06-29_09h03.24.784,Colour_Asymmetry_Pilot,2022.1.3,Win32,59.98440405,62bbe60bf3d75ef465d3e404,,,,,,,,,,,,,,,,,,,"[-0.01980000000000004,-0.5138,-0.38039999999999996]",onethree,"[-0.06680000000000008,-0.45100000000000007,-0.906]",-1,4.0829,-44.90902706,-83.86365056,1,0,0,response5disk_5,2.363657236,0.499988317,1,0,0,rectangle_8,2.363657236,0.499988317,1,0,0,4,2.363657236,0.499988317,1,0,0,2,0,2,0,1,,,,,,,,,,,,,,,,,,,,,,,,,,,,,,,,,,,,,,,,,,,,,,,,,,,,,,,,,,,,,,,,,,,,,,,,,,,,,,,,,,,,,,,,,,,,,,,,,,,,,,,,,,,
,,,,,,605b0135815a24382dfabf98,62bbf9324557526fa8e9188e,2022-06-29_09h03.24.784,Colour_Asymmetry_Pilot,2022.1.3,Win32,59.98440405,62bbe60bf3d75ef465d3e404,,,,,,,,,,,,,,,,,,,"[-0.01980000000000004,-0.5138,-0.38039999999999996]",onethree,"[-0.17659999999999998,0.3253999999999999,0.19999999999999996]",-4,1.466,-37.63634396,78.31817245,1,0,0,response7disk_5,-4.181797504,-0.227284431,1,0,0,rectangle_8,-4.181797504,-0.227284431,1,0,0,4,-4.181797504,-0.227284431,1,0,0,3,0,3,0,1,,,,,,,,,,,,,,,,,,,,,,,,,,,,,,,,,,,,,,,,,,,,,,,,,,,,,,,,,,,,,,,,,,,,,,,,,,,,,,,,,,,,,,,,,,,,,,,,,,,,,,,,,,,
,,,,,,605b0135815a24382dfabf98,62bbf9324557526fa8e9188e,2022-06-29_09h03.24.784,Colour_Asymmetry_Pilot,2022.1.3,Win32,59.98440405,62bbe60bf3d75ef465d3e404,,,,,,,,,,,,,,,,,,,"[0.3568,-0.20799999999999996,-0.9844]",onetwo,"[-0.5452,-0.608,0.2470000000000001]",-4,1.2333,-48.5453908,93.59087799,1,0,0,response7disk_5,-5.636254224,-4.590920925,1,0,0,rectangle_8,46.72729492,95.77269623,1,0,0,4,-4.909025864,-0.95455718,1,0,0,4,0,4,0,1,response1disk_7,7,rectangle_4,,,,,,,,,,,,,,,,,,,,,,,,,,,,,,,,,,,,,,,,,,,,,,,,,,,,,,,,,,,,,,,,,,,,,,,,,,,,,,,,,,,,,,,,,,,,,,,,,,,,,,,,
,,,,,,605b0135815a24382dfabf98,62bbf9324557526fa8e9188e,2022-06-29_09h03.24.784,Colour_Asymmetry_Pilot,2022.1.3,Win32,59.98440405,62bbe60bf3d75ef465d3e404,,,,,,,,,,,,,,,,,,,"[0.6625999999999999,0.4980000000000002,-0.357]",onethree,"[0.3881999999999999,-0.23939999999999995,-0.05040000000000011]",-4,1.7498,-57.99998093,79.04540081,1,0,0,response7disk_5,-10.72720786,1.227261066,1,0,0,rectangle_8,-10.72720786,1.227261066,1,0,0,4,-10.72720786,1.227261066,1,0,0,5,0,5,0,1,,,,,,,,,,,,,,,,,,,,,,,,,,,,,,,,,,,,,,,,,,,,,,,,,,,,,,,,,,,,,,,,,,,,,,,,,,,,,,,,,,,,,,,,,,,,,,,,,,,,,,,,,,,
,,,,,,605b0135815a24382dfabf98,62bbf9324557526fa8e9188e,2022-06-29_09h03.24.784,Colour_Asymmetry_Pilot,2022.1.3,Win32,59.98440405,62bbe60bf3d75ef465d3e404,,,,,,,,,,,,,,,,,,,"[0.05879999999999996,0.2784,0.5841999999999998]",threefour,"[-0.9688,-0.7412000000000001,-0.4902000000000001]",-2,4.9489,-95.81816387,-27.86364889,1,0,0,response5disk_5,10.36365747,-0.95455718,1,0,0,rectangle_8,10.36365747,-0.95455718,1,0,0,4,10.36365747,-0.95455718,1,0,0,6,0,6,0,1,,,,,,,,,,,,,,,,,,,,,,,,,,,,,,,,,,,,,,,,,,,,,,,,,,,,,,,,,,,,,,,,,,,,,,,,,,,,,,,,,,,,,,,,,,,,,,,,,,,,,,,,,,,
,,,,,,605b0135815a24382dfabf98,62bbf9324557526fa8e9188e,2022-06-29_09h03.24.784,Colour_Asymmetry_Pilot,2022.1.3,Win32,59.98440405,62bbe60bf3d75ef465d3e404,,,,,,,,,,,,,,,,,,,,threefour,,1,1.4961,,,,,,,,,,,,,,,,,,,,,,,,,,,,,,,,space,4.8807,"[-0.9688,-0.7412000000000001,-0.4902000000000001]","[-0.9766,-0.6472,0.07440000000000002]",43.09097557,-80.95455956,1,0,0,response3disk,-8.545389609,-13.3182383,1,0,0,rectangle,-8.545389609,-13.3182383,1,0,0,,1,0.0017,0,-8.545389609,-13.3182383,1,0,0,0,0,0,102,1,21,second,,,,,,,,,,,,,,,,,,,,,,,,,,,,,,,,,,,,,,,,,,,,,,,,,,,,,,,,,,,,,,,,,,,
,,,,,,605b0135815a24382dfabf98,62bbf9324557526fa8e9188e,2022-06-29_09h03.24.784,Colour_Asymmetry_Pilot,2022.1.3,Win32,59.98440405,62bbe60bf3d75ef465d3e404,,,,,,,,,,,,,,,,,,,,onethree,,-4,0.5336,,,,,,,,,,,,,,,,,,,,,,,,,,,,,,,,,,"[0.3881999999999999,-0.23939999999999995,-0.05040000000000011]","[-0.9766,-0.34920000000000007,0.2156]",-45.63625542,95.77269623,1,0,0,response7disk,9.636429115,-10.40910292,1,0,0,rectangle,9.636429115,-10.40910292,1,0,0,,3,0.001,0,9.636429115,-10.40910292,1,0,0,0,1,1,140,1,59,second,,,,,,,,,,,,,,,,,,,,,,,,,,,,,,,,,,,,,,,,,,,,,,,,,,,,,,,,,,,,,,,,,,,
,,,,,,605b0135815a24382dfabf98,62bbf9324557526fa8e9188e,2022-06-29_09h03.24.784,Colour_Asymmetry_Pilot,2022.1.3,Win32,59.98440405,62bbe60bf3d75ef465d3e404,,,,,,,,,,,,,,,,,,,,onetwo,,-2,1.4792,,,,,,,,,,,,,,,,,,,,,,,,,,,,,,,,,,"[0.05879999999999996,0.2784,0.5841999999999998]","[-0.7412000000000001,-0.08239999999999992,-0.6864]",-80.54539175,-51.86364961,1,0,0,response5disk,0.181838989,1.954533815,1,0,0,rectangle,99.09093285,-42.40914826,1,0,0,2,2,2.3655,1,12.5455645,-3.136375427,1,0,0,0,2,2,11,1,11,first,response3disk_3,rectangle,,,,,,,,,,,,,,,,,,,,,,,,,,,,,,,,,,,,,,,,,,,,,,,,,,,,,,,,,,,,,,,,,
,,,,,,605b0135815a24382dfabf98,62bbf9324557526fa8e9188e,2022-06-29_09h03.24.784,Colour_Asymmetry_Pilot,2022.1.3,Win32,59.98440405,62bbe60bf3d75ef465d3e404,,,,,,,,,,,,,,,,,,,,fourthree,,-4,0.8333,,,,,,,,,,,,,,,,,,,,,,,,,,,,,,,,,,"[0.7018,0.7176,0.6155999999999999]","[0.18419999999999992,-0.4276,-0.404]",-58.72720929,96.49999118,1,0,0,response7disk,4.545475483,0.499988317,1,0,0,rectangle,4.545475483,0.499988317,1,0,0,2,1,0.0009,0,4.545475483,0.499988317,1,0,0,0,3,3,98,1,17,second,,,,,,,,,,,,,,,,,,,,,,,,,,,,,,,,,,,,,,,,,,,,,,,,,,,,,,,,,,,,,,,,,,,
,,,,,,605b0135815a24382dfabf98,62bbf9324557526fa8e9188e,2022-06-29_09h03.24.784,Colour_Asymmetry_Pilot,2022.1.3,Win32,59.98440405,62bbe60bf3d75ef465d3e404,,,,,,,,,,,,,,,,,,,,threeone,,-4,1.1159,,,,,,,,,,,,,,,,,,,,,,,,,,,,,,,,,,"[-0.34920000000000007,-0.702,-0.5216]","[0.37240000000000006,0.4980000000000002,-0.2864]",-53.63634443,89.22726369,1,0,0,response7disk,-4.909025864,-5.318238063,1,0,0,rectangle,-4.909025864,-5.318238063,1,0,0,2,1,0.0001,0,-4.909025864,-5.318238063,1,0,0,0,4,4,42,1,42,first,,,,,,,,,,,,,,,,,,,,,,,,,,,,,,,,,,,,,,,,,,,,,,,,,,,,,,,,,,,,,,,,,,,
,,,,,,605b0135815a24382dfabf98,62bbf9324557526fa8e9188e,2022-06-29_09h03.24.784,Colour_Asymmetry_Pilot,2022.1.3,Win32,59.98440405,62bbe60bf3d75ef465d3e404,,,,,,,,,,,,,,,,,,,,fourtwo,,-4,0.4675,,,,,,,,,,,,,,,,,,,,,,,,,,,,,,,,,,"[0.40379999999999994,0.09000000000000008,0.44300000000000006]","[-0.050999999999999934,-0.6706000000000001,-0.804]",-28.18179822,68.86360452,1,0,0,response7disk,8.909200755,-1.681829929,1,0,0,rectangle,8.909200755,-1.681829929,1,0,0,2,3,0.0009,0,8.909200755,-1.681829929,1,0,0,0,5,5,96,1,15,second,,,,,,,,,,,,,,,,,,,,,,,,,,,,,,,,,,,,,,,,,,,,,,,,,,,,,,,,,,,,,,,,,,,
,,,,,,605b0135815a24382dfabf98,62bbf9324557526fa8e9188e,2022-06-29_09h03.24.784,Colour_Asymmetry_Pilot,2022.1.3,Win32,59.98440405,62bbe60bf3d75ef465d3e404,,,,,,,,,,,,,,,,,,,,onetwo,,-4,0.7002,,,,,,,,,,,,,,,,,,,,,,,,,,,,,,,,,,"[0.22340000000000004,-0.9296,-0.7884]","[-0.8118,-0.8198,-0.5452]",-73.9999814,113.954515,1,0,0,response7disk,-5.636254224,-2.409102678,1,0,0,rectangle,-5.636254224,-2.409102678,1,0,0,2,3,0.0002,0,-5.636254224,-2.409102678,1,0,0,0,6,6,88,1,7,second,,,,,,,,,,,,,,,,,,,,,,,,,,,,,,,,,,,,,,,,,,,,,,,,,,,,,,,,,,,,,,,,,,,
,,,,,,605b0135815a24382dfabf98,62bbf9324557526fa8e9188e,2022-06-29_09h03.24.784,Colour_Asymmetry_Pilot,2022.1.3,Win32,59.98440405,62bbe60bf3d75ef465d3e404,,,,,,,,,,,,,,,,,,,,threefour,,-4,4.2823,,,,,,,,,,,,,,,,,,,,,,,,,,,,,,,,,,"[-0.0040000000000000036,0.02739999999999987,-0.08239999999999992]","[0.0351999999999999,0.41159999999999997,0.0038000000000000256]",-33.99998021,79.77269576,1,0,0,response7disk,-3.454524755,7.045443058,1,0,0,rectangle,-3.454524755,7.045443058,1,0,0,2,1,0.0008,0,-3.454524755,7.045443058,1,0,0,0,7,7,2,1,2,first,,,,,,,,,,,,,,,,,,,,,,,,,,,,,,,,,,,,,,,,,,,,,,,,,,,,,,,,,,,,,,,,,,,
,,,,,,605b0135815a24382dfabf98,62bbf9324557526fa8e9188e,2022-06-29_09h03.24.784,Colour_Asymmetry_Pilot,2022.1.3,Win32,59.98440405,62bbe60bf3d75ef465d3e404,,,,,,,,,,,,,,,,,,,,threefour,,-2,2.6662,,,,,,,,,,,,,,,,,,,,,,,,,,,,,,,,,,"[-0.9766,-0.34920000000000007,0.2156]","[-0.09019999999999995,0.44300000000000006,0.5371999999999999]",-75.4545269,-46.77274036,1,0,0,response5disk,3.090974374,1.954533815,1,0,0,rectangle,3.090974374,1.954533815,1,0,0,2,2,0.0008,0,3.090974374,1.954533815,1,0,0,0,8,8,14,1,14,first,,,,,,,,,,,,,,,,,,,,,,,,,,,,,,,,,,,,,,,,,,,,,,,,,,,,,,,,,,,,,,,,,,,
,,,,,,605b0135815a24382dfabf98,62bbf9324557526fa8e9188e,2022-06-29_09h03.24.784,Colour_Asymmetry_Pilot,2022.1.3,Win32,59.98440405,62bbe60bf3d75ef465d3e404,,,,,,,,,,,,,,,,,,,,onethree,,-4,0.3333,,,,,,,,,,,,,,,,,,,,,,,,,,,,,,,,,,"[-0.2942,-0.7648,-0.7492000000000001]","[0.34099999999999997,0.5841999999999998,-0.9844]",-39.09084506,95.77269623,1,0,0,response7disk,4.545475483,-0.227284431,1,0,0,rectangle,4.545475483,-0.227284431,1,0,0,2,2,1E-04,0,4.545475483,-0.227284431,1,0,0,0,9,9,157,1,76,second,,,,,,,,,,,,,,,,,,,,,,,,,,,,,,,,,,,,,,,,,,,,,,,,,,,,,,,,,,,,,,,,,,,
,,,,,,605b0135815a24382dfabf98,62bbf9324557526fa8e9188e,2022-06-29_09h03.24.784,Colour_Asymmetry_Pilot,2022.1.3,Win32,59.98440405,62bbe60bf3d75ef465d3e404,,,,,,,,,,,,,,,,,,,,threeone,,-4,0.5167,,,,,,,,,,,,,,,,,,,,,,,,,,,,,,,,,,"[-0.8118,-0.8198,-0.5452]","[0.22340000000000004,-0.9296,-0.7884]",-35.45452571,89.95451424,1,0,0,response7disk,3.090974374,-0.227284431,1,0,0,rectangle,3.090974374,-0.227284431,1,0,0,2,2,1E-04,0,3.090974374,-0.227284431,1,0,0,0,10,10,7,1,7,first,,,,,,,,,,,,,,,,,,,,,,,,,,,,,,,,,,,,,,,,,,,,,,,,,,,,,,,,,,,,,,,,,,,
,,,,,,605b0135815a24382dfabf98,62bbf9324557526fa8e9188e,2022-06-29_09h03.24.784,Colour_Asymmetry_Pilot,2022.1.3,Win32,59.98440405,62bbe60bf3d75ef465d3e404,,,,,,,,,,,,,,,,,,,,twofour,,-3,1.0999,,,,,,,,,,,,,,,,,,,,,,,,,,,,,,,,,,"[-0.9688,-0.7412000000000001,-0.4902000000000001]","[0.05879999999999996,0.2784,0.5841999999999998]",-100.9090287,41.95451281,1,0,0,response7disk,-1.999934868,-3.136375427,1,0,0,rectangle,-1.999934868,-3.136375427,1,0,0,2,1,0.0009,0,-1.999934868,-3.136375427,1,0,0,0,11,11,31,1,31,first,,,,,,,,,,,,,,,,,,,,,,,,,,,,,,,,,,,,,,,,,,,,,,,,,,,,,,,,,,,,,,,,,,,
,,,,,,605b0135815a24382dfabf98,62bbf9324557526fa8e9188e,2022-06-29_09h03.24.784,Colour_Asymmetry_Pilot,2022.1.3,Win32,59.98440405,62bbe60bf3d75ef465d3e404,,,,,,,,,,,,,,,,,,,,threeone,,-4,0.371,,,,,,,,,,,,,,,,,,,,,,,,,,,,,,,,,,"[-0.9844,-0.9688,-0.9922]","[-0.6,0.16860000000000008,0.44300000000000006]",-53.63634443,102.3181732,1,0,0,response7disk,-15.09084435,1.954533815,1,0,0,rectangle,-15.09084435,1.954533815,1,0,0,2,1,0.0002,0,-15.09084435,1.954533815,1,0,0,0,12,12,49,1,49,first,,,,,,,,,,,,,,,,,,,,,,,,,,,,,,,,,,,,,,,,,,,,,,,,,,,,,,,,,,,,,,,,,,,
,,,,,,605b0135815a24382dfabf98,62bbf9324557526fa8e9188e,2022-06-29_09h03.24.784,Colour_Asymmetry_Pilot,2022.1.3,Win32,59.98440405,62bbe60bf3d75ef465d3e404,,,,,,,,,,,,,,,,,,,,onethree,,-3,0.3626,,,,,,,,,,,,,,,,,,,,,,,,,,,,,,,,,,"[0.3802000000000001,0.19199999999999995,-0.6394]","[-0.9688,-0.7412000000000001,-0.4902000000000001]",-76.90902801,57.95451329,1,0,0,response7disk,-9.999979496,-9.681830168,1,0,0,rectangle,-9.999979496,-9.681830168,1,0,0,2,3,0.0008,0,-9.999979496,-9.681830168,1,0,0,0,13,13,29,1,29,first,,,,,,,,,,,,,,,,,,,,,,,,,,,,,,,,,,,,,,,,,,,,,,,,,,,,,,,,,,,,,,,,,,,
,,,,,,605b0135815a24382dfabf98,62bbf9324557526fa8e9188e,2022-06-29_09h03.24.784,Colour_Asymmetry_Pilot,2022.1.3,Win32,59.98440405,62bbe60bf3d75ef465d3e404,,,,,,,,,,,,,,,,,,,,threefour,,-4,0.3329,,,,,,,,,,,,,,,,,,,,,,,,,,,,,,,,,,"[0.8274000000000001,-0.5844,-0.9452]","[-0.9766,-0.6472,0.07440000000000002]",-31.09080044,100.1363549,1,0,0,response7disk,6.72729373,2.681762175,1,0,0,rectangle,6.72729373,2.681762175,1,0,0,2,1,0.0005,0,6.72729373,2.681762175,1,0,0,0,14,14,61,1,61,first,,,,,,,,,,,,,,,,,,,,,,,,,,,,,,,,,,,,,,,,,,,,,,,,,,,,,,,,,,,,,,,,,,,
,,,,,,605b0135815a24382dfabf98,62bbf9324557526fa8e9188e,2022-06-29_09h03.24.784,Colour_Asymmetry_Pilot,2022.1.3,Win32,59.98440405,62bbe60bf3d75ef465d3e404,,,,,,,,,,,,,,,,,,,,fourtwo,,-3,0.4831,,,,,,,,,,,,,,,,,,,,,,,,,,,,,,,,,,"[0.05879999999999996,0.2784,0.5841999999999998]","[-0.9688,-0.7412000000000001,-0.4902000000000001]",-99.45452762,56.49998999,1,0,0,response7disk,3.818202734,-9.681830168,1,0,0,rectangle,3.818202734,-9.681830168,1,0,0,2,1,0.0001,0,3.818202734,-9.681830168,1,0,0,0,15,15,112,1,31,second,,,,,,,,,,,,,,,,,,,,,,,,,,,,,,,,,,,,,,,,,,,,,,,,,,,,,,,,,,,,,,,,,,,
,,,,,,605b0135815a24382dfabf98,62bbf9324557526fa8e9188e,2022-06-29_09h03.24.784,Colour_Asymmetry_Pilot,2022.1.3,Win32,59.98440405,62bbe60bf3d75ef465d3e404,,,,,,,,,,,,,,,,,,,,threefour,,-3,0.9993,,,,,,,,,,,,,,,,,,,,,,,,,,,,,,,,,,"[-0.34920000000000007,-0.702,-0.5216]","[0.9372,0.20779999999999998,0.2704]",-89.27262035,47.04542206,1,0,0,response7disk,-13.63634324,7.045443058,1,0,0,rectangle,-13.63634324,7.045443058,1,0,0,2,1,1E-04,0,-13.63634324,7.045443058,1,0,0,0,16,16,52,1,52,first,,,,,,,,,,,,,,,,,,,,,,,,,,,,,,,,,,,,,,,,,,,,,,,,,,,,,,,,,,,,,,,,,,,
