trials.thisRepN,trials.thisTrialN,trials.thisN,trials.thisIndex,trials.ran,Colourcodes,participant,session,date,expName,psychopyVersion,OS,frameRate,study_id,trials_4.thisRepN,trials_4.thisTrialN,trials_4.thisN,trials_4.thisIndex,trials_4.ran,StimulusPos,key_resp.keys,key_resp.rt,key_resp_2.keys,key_resp_2.rt,key_resp_15.keys,key_resp_15.rt,key_resp_17.keys,key_resp_17.rt,key_resp_9.keys,key_resp_9.rt,key_resp_10.keys,key_resp_10.rt,Circle1_col,Ecc,Circle2_col,similarity,response_time,mouse_5.x,mouse_5.y,mouse_5.leftButton,mouse_5.midButton,mouse_5.rightButton,mouse_5.clicked_name,mouse_10.x,mouse_10.y,mouse_10.leftButton,mouse_10.midButton,mouse_10.rightButton,mouse_10.clicked_name,mouse_7.x,mouse_7.y,mouse_7.leftButton,mouse_7.midButton,mouse_7.rightButton,catchnumberprac,mouse_6.x,mouse_6.y,mouse_6.leftButton,mouse_6.midButton,mouse_6.rightButton,duringprac.thisRepN,duringprac.thisTrialN,duringprac.thisN,duringprac.thisIndex,duringprac.ran,mouse_7.clicked_name,catchprac,mouse_6.clicked_name,key_resp_22.keys,key_resp_22.rt,Circle1_colour,Circle2_colour,mouse.x,mouse.y,mouse.leftButton,mouse.midButton,mouse.rightButton,mouse.clicked_name,mouse_2.x,mouse_2.y,mouse_2.leftButton,mouse_2.midButton,mouse_2.rightButton,mouse_2.clicked_name,mouse_3.x,mouse_3.y,mouse_3.leftButton,mouse_3.midButton,mouse_3.rightButton,catchresponse,catchnumber,response_time_catch,Catch,mouse_11.x,mouse_11.y,mouse_11.leftButton,mouse_11.midButton,mouse_11.rightButton,trials_2.thisRepN,trials_2.thisTrialN,trials_2.thisN,trials_2.thisIndex,trials_2.ran,Colourpair,Temporder,mouse_3.clicked_name,mouse_11.clicked_name,trials_3.thisRepN,trials_3.thisTrialN,trials_3.thisN,trials_3.thisIndex,trials_3.ran,key_resp_instr_Ishi.keys,key_resp_instr_Ishi.rt,Ishi_trial_keyresp.keys,Ishi_trial_keyresp.rt,Ishi_textbox.text,Ishi_loop.thisRepN,Ishi_loop.thisTrialN,Ishi_loop.thisN,Ishi_loop.thisIndex,Ishi_loop.ran,imageaddress,textbox.text,mouse_4.x,mouse_4.y,mouse_4.leftButton,mouse_4.midButton,mouse_4.rightButton,mouse_4.clicked_name,textbox_2.text,mouse_8.x,mouse_8.y,mouse_8.leftButton,mouse_8.midButton,mouse_8.rightButton,mouse_8.clicked_name,textbox_3.text,mouse_9.x,mouse_9.y,mouse_9.leftButton,mouse_9.midButton,mouse_9.rightButton,mouse_9.clicked_name,textbox_4.text,mouse_12.x,mouse_12.y,mouse_12.leftButton,mouse_12.midButton,mouse_12.rightButton,mouse_12.clicked_name,textbox_5.text,mouse_13.x,mouse_13.y,mouse_13.leftButton,mouse_13.midButton,mouse_13.rightButton,mouse_13.clicked_name,textbox_6.text,mouse_14.x,mouse_14.y,mouse_14.leftButton,mouse_14.midButton,mouse_14.rightButton,mouse_14.clicked_name,textbox_7.text,mouse_15.x,mouse_15.y,mouse_15.leftButton,mouse_15.midButton,mouse_15.rightButton,mouse_15.clicked_name
0,0,0,22,1,,60ed860a659535471b66e909,62bbfd986e16f86e54766a1a,2022-06-29_09h22.53.576,Colour_Asymmetry_Pilot,2022.1.3,Win32,59.58055291,62bbe60bf3d75ef465d3e404,,,,,,,,,,,,,,,,,,,,,,,,,,,,,,,,,,,,,,,,,,,,,,,,,,,,,,,,,,,,,,,,,,,,,,,,,,,,,,,,,,,,,,,,,,,,,,,,,,,,,,,,,,,,,,,,,,,,,,,,,,,,,,,,,,,,,,,,,,,,,,,,,,,,,,,,,,,,,,
0,1,1,87,1,,60ed860a659535471b66e909,62bbfd986e16f86e54766a1a,2022-06-29_09h22.53.576,Colour_Asymmetry_Pilot,2022.1.3,Win32,59.58055291,62bbe60bf3d75ef465d3e404,,,,,,,,,,,,,,,,,,,,,,,,,,,,,,,,,,,,,,,,,,,,,,,,,,,,,,,,,,,,,,,,,,,,,,,,,,,,,,,,,,,,,,,,,,,,,,,,,,,,,,,,,,,,,,,,,,,,,,,,,,,,,,,,,,,,,,,,,,,,,,,,,,,,,,,,,,,,,,
0,2,2,62,1,,60ed860a659535471b66e909,62bbfd986e16f86e54766a1a,2022-06-29_09h22.53.576,Colour_Asymmetry_Pilot,2022.1.3,Win32,59.58055291,62bbe60bf3d75ef465d3e404,,,,,,,,,,,,,,,,,,,,,,,,,,,,,,,,,,,,,,,,,,,,,,,,,,,,,,,,,,,,,,,,,,,,,,,,,,,,,,,,,,,,,,,,,,,,,,,,,,,,,,,,,,,,,,,,,,,,,,,,,,,,,,,,,,,,,,,,,,,,,,,,,,,,,,,,,,,,,,
0,3,3,14,1,,60ed860a659535471b66e909,62bbfd986e16f86e54766a1a,2022-06-29_09h22.53.576,Colour_Asymmetry_Pilot,2022.1.3,Win32,59.58055291,62bbe60bf3d75ef465d3e404,,,,,,,,,,,,,,,,,,,,,,,,,,,,,,,,,,,,,,,,,,,,,,,,,,,,,,,,,,,,,,,,,,,,,,,,,,,,,,,,,,,,,,,,,,,,,,,,,,,,,,,,,,,,,,,,,,,,,,,,,,,,,,,,,,,,,,,,,,,,,,,,,,,,,,,,,,,,,,
0,4,4,40,1,,60ed860a659535471b66e909,62bbfd986e16f86e54766a1a,2022-06-29_09h22.53.576,Colour_Asymmetry_Pilot,2022.1.3,Win32,59.58055291,62bbe60bf3d75ef465d3e404,,,,,,,,,,,,,,,,,,,,,,,,,,,,,,,,,,,,,,,,,,,,,,,,,,,,,,,,,,,,,,,,,,,,,,,,,,,,,,,,,,,,,,,,,,,,,,,,,,,,,,,,,,,,,,,,,,,,,,,,,,,,,,,,,,,,,,,,,,,,,,,,,,,,,,,,,,,,,,
0,5,5,65,1,,60ed860a659535471b66e909,62bbfd986e16f86e54766a1a,2022-06-29_09h22.53.576,Colour_Asymmetry_Pilot,2022.1.3,Win32,59.58055291,62bbe60bf3d75ef465d3e404,,,,,,,,,,,,,,,,,,,,,,,,,,,,,,,,,,,,,,,,,,,,,,,,,,,,,,,,,,,,,,,,,,,,,,,,,,,,,,,,,,,,,,,,,,,,,,,,,,,,,,,,,,,,,,,,,,,,,,,,,,,,,,,,,,,,,,,,,,,,,,,,,,,,,,,,,,,,,,
0,6,6,73,1,,60ed860a659535471b66e909,62bbfd986e16f86e54766a1a,2022-06-29_09h22.53.576,Colour_Asymmetry_Pilot,2022.1.3,Win32,59.58055291,62bbe60bf3d75ef465d3e404,,,,,,,,,,,,,,,,,,,,,,,,,,,,,,,,,,,,,,,,,,,,,,,,,,,,,,,,,,,,,,,,,,,,,,,,,,,,,,,,,,,,,,,,,,,,,,,,,,,,,,,,,,,,,,,,,,,,,,,,,,,,,,,,,,,,,,,,,,,,,,,,,,,,,,,,,,,,,,
0,7,7,31,1,,60ed860a659535471b66e909,62bbfd986e16f86e54766a1a,2022-06-29_09h22.53.576,Colour_Asymmetry_Pilot,2022.1.3,Win32,59.58055291,62bbe60bf3d75ef465d3e404,,,,,,,,,,,,,,,,,,,,,,,,,,,,,,,,,,,,,,,,,,,,,,,,,,,,,,,,,,,,,,,,,,,,,,,,,,,,,,,,,,,,,,,,,,,,,,,,,,,,,,,,,,,,,,,,,,,,,,,,,,,,,,,,,,,,,,,,,,,,,,,,,,,,,,,,,,,,,,
0,8,8,89,1,,60ed860a659535471b66e909,62bbfd986e16f86e54766a1a,2022-06-29_09h22.53.576,Colour_Asymmetry_Pilot,2022.1.3,Win32,59.58055291,62bbe60bf3d75ef465d3e404,,,,,,,,,,,,,,,,,,,,,,,,,,,,,,,,,,,,,,,,,,,,,,,,,,,,,,,,,,,,,,,,,,,,,,,,,,,,,,,,,,,,,,,,,,,,,,,,,,,,,,,,,,,,,,,,,,,,,,,,,,,,,,,,,,,,,,,,,,,,,,,,,,,,,,,,,,,,,,
0,9,9,58,1,,60ed860a659535471b66e909,62bbfd986e16f86e54766a1a,2022-06-29_09h22.53.576,Colour_Asymmetry_Pilot,2022.1.3,Win32,59.58055291,62bbe60bf3d75ef465d3e404,,,,,,,,,,,,,,,,,,,,,,,,,,,,,,,,,,,,,,,,,,,,,,,,,,,,,,,,,,,,,,,,,,,,,,,,,,,,,,,,,,,,,,,,,,,,,,,,,,,,,,,,,,,,,,,,,,,,,,,,,,,,,,,,,,,,,,,,,,,,,,,,,,,,,,,,,,,,,,
0,10,10,84,1,,60ed860a659535471b66e909,62bbfd986e16f86e54766a1a,2022-06-29_09h22.53.576,Colour_Asymmetry_Pilot,2022.1.3,Win32,59.58055291,62bbe60bf3d75ef465d3e404,,,,,,,,,,,,,,,,,,,,,,,,,,,,,,,,,,,,,,,,,,,,,,,,,,,,,,,,,,,,,,,,,,,,,,,,,,,,,,,,,,,,,,,,,,,,,,,,,,,,,,,,,,,,,,,,,,,,,,,,,,,,,,,,,,,,,,,,,,,,,,,,,,,,,,,,,,,,,,
0,11,11,15,1,,60ed860a659535471b66e909,62bbfd986e16f86e54766a1a,2022-06-29_09h22.53.576,Colour_Asymmetry_Pilot,2022.1.3,Win32,59.58055291,62bbe60bf3d75ef465d3e404,,,,,,,,,,,,,,,,,,,,,,,,,,,,,,,,,,,,,,,,,,,,,,,,,,,,,,,,,,,,,,,,,,,,,,,,,,,,,,,,,,,,,,,,,,,,,,,,,,,,,,,,,,,,,,,,,,,,,,,,,,,,,,,,,,,,,,,,,,,,,,,,,,,,,,,,,,,,,,
0,12,12,66,1,,60ed860a659535471b66e909,62bbfd986e16f86e54766a1a,2022-06-29_09h22.53.576,Colour_Asymmetry_Pilot,2022.1.3,Win32,59.58055291,62bbe60bf3d75ef465d3e404,,,,,,,,,,,,,,,,,,,,,,,,,,,,,,,,,,,,,,,,,,,,,,,,,,,,,,,,,,,,,,,,,,,,,,,,,,,,,,,,,,,,,,,,,,,,,,,,,,,,,,,,,,,,,,,,,,,,,,,,,,,,,,,,,,,,,,,,,,,,,,,,,,,,,,,,,,,,,,
0,13,13,42,1,,60ed860a659535471b66e909,62bbfd986e16f86e54766a1a,2022-06-29_09h22.53.576,Colour_Asymmetry_Pilot,2022.1.3,Win32,59.58055291,62bbe60bf3d75ef465d3e404,,,,,,,,,,,,,,,,,,,,,,,,,,,,,,,,,,,,,,,,,,,,,,,,,,,,,,,,,,,,,,,,,,,,,,,,,,,,,,,,,,,,,,,,,,,,,,,,,,,,,,,,,,,,,,,,,,,,,,,,,,,,,,,,,,,,,,,,,,,,,,,,,,,,,,,,,,,,,,
0,14,14,75,1,,60ed860a659535471b66e909,62bbfd986e16f86e54766a1a,2022-06-29_09h22.53.576,Colour_Asymmetry_Pilot,2022.1.3,Win32,59.58055291,62bbe60bf3d75ef465d3e404,,,,,,,,,,,,,,,,,,,,,,,,,,,,,,,,,,,,,,,,,,,,,,,,,,,,,,,,,,,,,,,,,,,,,,,,,,,,,,,,,,,,,,,,,,,,,,,,,,,,,,,,,,,,,,,,,,,,,,,,,,,,,,,,,,,,,,,,,,,,,,,,,,,,,,,,,,,,,,
0,15,15,74,1,,60ed860a659535471b66e909,62bbfd986e16f86e54766a1a,2022-06-29_09h22.53.576,Colour_Asymmetry_Pilot,2022.1.3,Win32,59.58055291,62bbe60bf3d75ef465d3e404,,,,,,,,,,,,,,,,,,,,,,,,,,,,,,,,,,,,,,,,,,,,,,,,,,,,,,,,,,,,,,,,,,,,,,,,,,,,,,,,,,,,,,,,,,,,,,,,,,,,,,,,,,,,,,,,,,,,,,,,,,,,,,,,,,,,,,,,,,,,,,,,,,,,,,,,,,,,,,
0,16,16,30,1,,60ed860a659535471b66e909,62bbfd986e16f86e54766a1a,2022-06-29_09h22.53.576,Colour_Asymmetry_Pilot,2022.1.3,Win32,59.58055291,62bbe60bf3d75ef465d3e404,,,,,,,,,,,,,,,,,,,,,,,,,,,,,,,,,,,,,,,,,,,,,,,,,,,,,,,,,,,,,,,,,,,,,,,,,,,,,,,,,,,,,,,,,,,,,,,,,,,,,,,,,,,,,,,,,,,,,,,,,,,,,,,,,,,,,,,,,,,,,,,,,,,,,,,,,,,,,,
0,17,17,70,1,,60ed860a659535471b66e909,62bbfd986e16f86e54766a1a,2022-06-29_09h22.53.576,Colour_Asymmetry_Pilot,2022.1.3,Win32,59.58055291,62bbe60bf3d75ef465d3e404,,,,,,,,,,,,,,,,,,,,,,,,,,,,,,,,,,,,,,,,,,,,,,,,,,,,,,,,,,,,,,,,,,,,,,,,,,,,,,,,,,,,,,,,,,,,,,,,,,,,,,,,,,,,,,,,,,,,,,,,,,,,,,,,,,,,,,,,,,,,,,,,,,,,,,,,,,,,,,
0,18,18,46,1,,60ed860a659535471b66e909,62bbfd986e16f86e54766a1a,2022-06-29_09h22.53.576,Colour_Asymmetry_Pilot,2022.1.3,Win32,59.58055291,62bbe60bf3d75ef465d3e404,,,,,,,,,,,,,,,,,,,,,,,,,,,,,,,,,,,,,,,,,,,,,,,,,,,,,,,,,,,,,,,,,,,,,,,,,,,,,,,,,,,,,,,,,,,,,,,,,,,,,,,,,,,,,,,,,,,,,,,,,,,,,,,,,,,,,,,,,,,,,,,,,,,,,,,,,,,,,,
0,19,19,17,1,,60ed860a659535471b66e909,62bbfd986e16f86e54766a1a,2022-06-29_09h22.53.576,Colour_Asymmetry_Pilot,2022.1.3,Win32,59.58055291,62bbe60bf3d75ef465d3e404,,,,,,,,,,,,,,,,,,,,,,,,,,,,,,,,,,,,,,,,,,,,,,,,,,,,,,,,,,,,,,,,,,,,,,,,,,,,,,,,,,,,,,,,,,,,,,,,,,,,,,,,,,,,,,,,,,,,,,,,,,,,,,,,,,,,,,,,,,,,,,,,,,,,,,,,,,,,,,
0,20,20,54,1,,60ed860a659535471b66e909,62bbfd986e16f86e54766a1a,2022-06-29_09h22.53.576,Colour_Asymmetry_Pilot,2022.1.3,Win32,59.58055291,62bbe60bf3d75ef465d3e404,,,,,,,,,,,,,,,,,,,,,,,,,,,,,,,,,,,,,,,,,,,,,,,,,,,,,,,,,,,,,,,,,,,,,,,,,,,,,,,,,,,,,,,,,,,,,,,,,,,,,,,,,,,,,,,,,,,,,,,,,,,,,,,,,,,,,,,,,,,,,,,,,,,,,,,,,,,,,,
0,21,21,68,1,,60ed860a659535471b66e909,62bbfd986e16f86e54766a1a,2022-06-29_09h22.53.576,Colour_Asymmetry_Pilot,2022.1.3,Win32,59.58055291,62bbe60bf3d75ef465d3e404,,,,,,,,,,,,,,,,,,,,,,,,,,,,,,,,,,,,,,,,,,,,,,,,,,,,,,,,,,,,,,,,,,,,,,,,,,,,,,,,,,,,,,,,,,,,,,,,,,,,,,,,,,,,,,,,,,,,,,,,,,,,,,,,,,,,,,,,,,,,,,,,,,,,,,,,,,,,,,
0,22,22,77,1,,60ed860a659535471b66e909,62bbfd986e16f86e54766a1a,2022-06-29_09h22.53.576,Colour_Asymmetry_Pilot,2022.1.3,Win32,59.58055291,62bbe60bf3d75ef465d3e404,,,,,,,,,,,,,,,,,,,,,,,,,,,,,,,,,,,,,,,,,,,,,,,,,,,,,,,,,,,,,,,,,,,,,,,,,,,,,,,,,,,,,,,,,,,,,,,,,,,,,,,,,,,,,,,,,,,,,,,,,,,,,,,,,,,,,,,,,,,,,,,,,,,,,,,,,,,,,,
0,23,23,34,1,,60ed860a659535471b66e909,62bbfd986e16f86e54766a1a,2022-06-29_09h22.53.576,Colour_Asymmetry_Pilot,2022.1.3,Win32,59.58055291,62bbe60bf3d75ef465d3e404,,,,,,,,,,,,,,,,,,,,,,,,,,,,,,,,,,,,,,,,,,,,,,,,,,,,,,,,,,,,,,,,,,,,,,,,,,,,,,,,,,,,,,,,,,,,,,,,,,,,,,,,,,,,,,,,,,,,,,,,,,,,,,,,,,,,,,,,,,,,,,,,,,,,,,,,,,,,,,
0,24,24,7,1,,60ed860a659535471b66e909,62bbfd986e16f86e54766a1a,2022-06-29_09h22.53.576,Colour_Asymmetry_Pilot,2022.1.3,Win32,59.58055291,62bbe60bf3d75ef465d3e404,,,,,,,,,,,,,,,,,,,,,,,,,,,,,,,,,,,,,,,,,,,,,,,,,,,,,,,,,,,,,,,,,,,,,,,,,,,,,,,,,,,,,,,,,,,,,,,,,,,,,,,,,,,,,,,,,,,,,,,,,,,,,,,,,,,,,,,,,,,,,,,,,,,,,,,,,,,,,,
0,25,25,63,1,,60ed860a659535471b66e909,62bbfd986e16f86e54766a1a,2022-06-29_09h22.53.576,Colour_Asymmetry_Pilot,2022.1.3,Win32,59.58055291,62bbe60bf3d75ef465d3e404,,,,,,,,,,,,,,,,,,,,,,,,,,,,,,,,,,,,,,,,,,,,,,,,,,,,,,,,,,,,,,,,,,,,,,,,,,,,,,,,,,,,,,,,,,,,,,,,,,,,,,,,,,,,,,,,,,,,,,,,,,,,,,,,,,,,,,,,,,,,,,,,,,,,,,,,,,,,,,
0,26,26,48,1,,60ed860a659535471b66e909,62bbfd986e16f86e54766a1a,2022-06-29_09h22.53.576,Colour_Asymmetry_Pilot,2022.1.3,Win32,59.58055291,62bbe60bf3d75ef465d3e404,,,,,,,,,,,,,,,,,,,,,,,,,,,,,,,,,,,,,,,,,,,,,,,,,,,,,,,,,,,,,,,,,,,,,,,,,,,,,,,,,,,,,,,,,,,,,,,,,,,,,,,,,,,,,,,,,,,,,,,,,,,,,,,,,,,,,,,,,,,,,,,,,,,,,,,,,,,,,,
0,27,27,81,1,,60ed860a659535471b66e909,62bbfd986e16f86e54766a1a,2022-06-29_09h22.53.576,Colour_Asymmetry_Pilot,2022.1.3,Win32,59.58055291,62bbe60bf3d75ef465d3e404,,,,,,,,,,,,,,,,,,,,,,,,,,,,,,,,,,,,,,,,,,,,,,,,,,,,,,,,,,,,,,,,,,,,,,,,,,,,,,,,,,,,,,,,,,,,,,,,,,,,,,,,,,,,,,,,,,,,,,,,,,,,,,,,,,,,,,,,,,,,,,,,,,,,,,,,,,,,,,
0,28,28,27,1,,60ed860a659535471b66e909,62bbfd986e16f86e54766a1a,2022-06-29_09h22.53.576,Colour_Asymmetry_Pilot,2022.1.3,Win32,59.58055291,62bbe60bf3d75ef465d3e404,,,,,,,,,,,,,,,,,,,,,,,,,,,,,,,,,,,,,,,,,,,,,,,,,,,,,,,,,,,,,,,,,,,,,,,,,,,,,,,,,,,,,,,,,,,,,,,,,,,,,,,,,,,,,,,,,,,,,,,,,,,,,,,,,,,,,,,,,,,,,,,,,,,,,,,,,,,,,,
0,29,29,72,1,,60ed860a659535471b66e909,62bbfd986e16f86e54766a1a,2022-06-29_09h22.53.576,Colour_Asymmetry_Pilot,2022.1.3,Win32,59.58055291,62bbe60bf3d75ef465d3e404,,,,,,,,,,,,,,,,,,,,,,,,,,,,,,,,,,,,,,,,,,,,,,,,,,,,,,,,,,,,,,,,,,,,,,,,,,,,,,,,,,,,,,,,,,,,,,,,,,,,,,,,,,,,,,,,,,,,,,,,,,,,,,,,,,,,,,,,,,,,,,,,,,,,,,,,,,,,,,
0,30,30,4,1,,60ed860a659535471b66e909,62bbfd986e16f86e54766a1a,2022-06-29_09h22.53.576,Colour_Asymmetry_Pilot,2022.1.3,Win32,59.58055291,62bbe60bf3d75ef465d3e404,,,,,,,,,,,,,,,,,,,,,,,,,,,,,,,,,,,,,,,,,,,,,,,,,,,,,,,,,,,,,,,,,,,,,,,,,,,,,,,,,,,,,,,,,,,,,,,,,,,,,,,,,,,,,,,,,,,,,,,,,,,,,,,,,,,,,,,,,,,,,,,,,,,,,,,,,,,,,,
0,31,31,39,1,,60ed860a659535471b66e909,62bbfd986e16f86e54766a1a,2022-06-29_09h22.53.576,Colour_Asymmetry_Pilot,2022.1.3,Win32,59.58055291,62bbe60bf3d75ef465d3e404,,,,,,,,,,,,,,,,,,,,,,,,,,,,,,,,,,,,,,,,,,,,,,,,,,,,,,,,,,,,,,,,,,,,,,,,,,,,,,,,,,,,,,,,,,,,,,,,,,,,,,,,,,,,,,,,,,,,,,,,,,,,,,,,,,,,,,,,,,,,,,,,,,,,,,,,,,,,,,
0,32,32,78,1,,60ed860a659535471b66e909,62bbfd986e16f86e54766a1a,2022-06-29_09h22.53.576,Colour_Asymmetry_Pilot,2022.1.3,Win32,59.58055291,62bbe60bf3d75ef465d3e404,,,,,,,,,,,,,,,,,,,,,,,,,,,,,,,,,,,,,,,,,,,,,,,,,,,,,,,,,,,,,,,,,,,,,,,,,,,,,,,,,,,,,,,,,,,,,,,,,,,,,,,,,,,,,,,,,,,,,,,,,,,,,,,,,,,,,,,,,,,,,,,,,,,,,,,,,,,,,,
0,33,33,53,1,,60ed860a659535471b66e909,62bbfd986e16f86e54766a1a,2022-06-29_09h22.53.576,Colour_Asymmetry_Pilot,2022.1.3,Win32,59.58055291,62bbe60bf3d75ef465d3e404,,,,,,,,,,,,,,,,,,,,,,,,,,,,,,,,,,,,,,,,,,,,,,,,,,,,,,,,,,,,,,,,,,,,,,,,,,,,,,,,,,,,,,,,,,,,,,,,,,,,,,,,,,,,,,,,,,,,,,,,,,,,,,,,,,,,,,,,,,,,,,,,,,,,,,,,,,,,,,
0,34,34,80,1,,60ed860a659535471b66e909,62bbfd986e16f86e54766a1a,2022-06-29_09h22.53.576,Colour_Asymmetry_Pilot,2022.1.3,Win32,59.58055291,62bbe60bf3d75ef465d3e404,,,,,,,,,,,,,,,,,,,,,,,,,,,,,,,,,,,,,,,,,,,,,,,,,,,,,,,,,,,,,,,,,,,,,,,,,,,,,,,,,,,,,,,,,,,,,,,,,,,,,,,,,,,,,,,,,,,,,,,,,,,,,,,,,,,,,,,,,,,,,,,,,,,,,,,,,,,,,,
0,35,35,20,1,,60ed860a659535471b66e909,62bbfd986e16f86e54766a1a,2022-06-29_09h22.53.576,Colour_Asymmetry_Pilot,2022.1.3,Win32,59.58055291,62bbe60bf3d75ef465d3e404,,,,,,,,,,,,,,,,,,,,,,,,,,,,,,,,,,,,,,,,,,,,,,,,,,,,,,,,,,,,,,,,,,,,,,,,,,,,,,,,,,,,,,,,,,,,,,,,,,,,,,,,,,,,,,,,,,,,,,,,,,,,,,,,,,,,,,,,,,,,,,,,,,,,,,,,,,,,,,
0,36,36,1,1,,60ed860a659535471b66e909,62bbfd986e16f86e54766a1a,2022-06-29_09h22.53.576,Colour_Asymmetry_Pilot,2022.1.3,Win32,59.58055291,62bbe60bf3d75ef465d3e404,,,,,,,,,,,,,,,,,,,,,,,,,,,,,,,,,,,,,,,,,,,,,,,,,,,,,,,,,,,,,,,,,,,,,,,,,,,,,,,,,,,,,,,,,,,,,,,,,,,,,,,,,,,,,,,,,,,,,,,,,,,,,,,,,,,,,,,,,,,,,,,,,,,,,,,,,,,,,,
0,37,37,13,1,,60ed860a659535471b66e909,62bbfd986e16f86e54766a1a,2022-06-29_09h22.53.576,Colour_Asymmetry_Pilot,2022.1.3,Win32,59.58055291,62bbe60bf3d75ef465d3e404,,,,,,,,,,,,,,,,,,,,,,,,,,,,,,,,,,,,,,,,,,,,,,,,,,,,,,,,,,,,,,,,,,,,,,,,,,,,,,,,,,,,,,,,,,,,,,,,,,,,,,,,,,,,,,,,,,,,,,,,,,,,,,,,,,,,,,,,,,,,,,,,,,,,,,,,,,,,,,
0,38,38,19,1,,60ed860a659535471b66e909,62bbfd986e16f86e54766a1a,2022-06-29_09h22.53.576,Colour_Asymmetry_Pilot,2022.1.3,Win32,59.58055291,62bbe60bf3d75ef465d3e404,,,,,,,,,,,,,,,,,,,,,,,,,,,,,,,,,,,,,,,,,,,,,,,,,,,,,,,,,,,,,,,,,,,,,,,,,,,,,,,,,,,,,,,,,,,,,,,,,,,,,,,,,,,,,,,,,,,,,,,,,,,,,,,,,,,,,,,,,,,,,,,,,,,,,,,,,,,,,,
0,39,39,85,1,,60ed860a659535471b66e909,62bbfd986e16f86e54766a1a,2022-06-29_09h22.53.576,Colour_Asymmetry_Pilot,2022.1.3,Win32,59.58055291,62bbe60bf3d75ef465d3e404,,,,,,,,,,,,,,,,,,,,,,,,,,,,,,,,,,,,,,,,,,,,,,,,,,,,,,,,,,,,,,,,,,,,,,,,,,,,,,,,,,,,,,,,,,,,,,,,,,,,,,,,,,,,,,,,,,,,,,,,,,,,,,,,,,,,,,,,,,,,,,,,,,,,,,,,,,,,,,
0,40,40,41,1,,60ed860a659535471b66e909,62bbfd986e16f86e54766a1a,2022-06-29_09h22.53.576,Colour_Asymmetry_Pilot,2022.1.3,Win32,59.58055291,62bbe60bf3d75ef465d3e404,,,,,,,,,,,,,,,,,,,,,,,,,,,,,,,,,,,,,,,,,,,,,,,,,,,,,,,,,,,,,,,,,,,,,,,,,,,,,,,,,,,,,,,,,,,,,,,,,,,,,,,,,,,,,,,,,,,,,,,,,,,,,,,,,,,,,,,,,,,,,,,,,,,,,,,,,,,,,,
0,41,41,92,1,,60ed860a659535471b66e909,62bbfd986e16f86e54766a1a,2022-06-29_09h22.53.576,Colour_Asymmetry_Pilot,2022.1.3,Win32,59.58055291,62bbe60bf3d75ef465d3e404,,,,,,,,,,,,,,,,,,,,,,,,,,,,,,,,,,,,,,,,,,,,,,,,,,,,,,,,,,,,,,,,,,,,,,,,,,,,,,,,,,,,,,,,,,,,,,,,,,,,,,,,,,,,,,,,,,,,,,,,,,,,,,,,,,,,,,,,,,,,,,,,,,,,,,,,,,,,,,
0,42,42,76,1,,60ed860a659535471b66e909,62bbfd986e16f86e54766a1a,2022-06-29_09h22.53.576,Colour_Asymmetry_Pilot,2022.1.3,Win32,59.58055291,62bbe60bf3d75ef465d3e404,,,,,,,,,,,,,,,,,,,,,,,,,,,,,,,,,,,,,,,,,,,,,,,,,,,,,,,,,,,,,,,,,,,,,,,,,,,,,,,,,,,,,,,,,,,,,,,,,,,,,,,,,,,,,,,,,,,,,,,,,,,,,,,,,,,,,,,,,,,,,,,,,,,,,,,,,,,,,,
0,43,43,38,1,,60ed860a659535471b66e909,62bbfd986e16f86e54766a1a,2022-06-29_09h22.53.576,Colour_Asymmetry_Pilot,2022.1.3,Win32,59.58055291,62bbe60bf3d75ef465d3e404,,,,,,,,,,,,,,,,,,,,,,,,,,,,,,,,,,,,,,,,,,,,,,,,,,,,,,,,,,,,,,,,,,,,,,,,,,,,,,,,,,,,,,,,,,,,,,,,,,,,,,,,,,,,,,,,,,,,,,,,,,,,,,,,,,,,,,,,,,,,,,,,,,,,,,,,,,,,,,
0,44,44,16,1,,60ed860a659535471b66e909,62bbfd986e16f86e54766a1a,2022-06-29_09h22.53.576,Colour_Asymmetry_Pilot,2022.1.3,Win32,59.58055291,62bbe60bf3d75ef465d3e404,,,,,,,,,,,,,,,,,,,,,,,,,,,,,,,,,,,,,,,,,,,,,,,,,,,,,,,,,,,,,,,,,,,,,,,,,,,,,,,,,,,,,,,,,,,,,,,,,,,,,,,,,,,,,,,,,,,,,,,,,,,,,,,,,,,,,,,,,,,,,,,,,,,,,,,,,,,,,,
0,45,45,0,1,,60ed860a659535471b66e909,62bbfd986e16f86e54766a1a,2022-06-29_09h22.53.576,Colour_Asymmetry_Pilot,2022.1.3,Win32,59.58055291,62bbe60bf3d75ef465d3e404,,,,,,,,,,,,,,,,,,,,,,,,,,,,,,,,,,,,,,,,,,,,,,,,,,,,,,,,,,,,,,,,,,,,,,,,,,,,,,,,,,,,,,,,,,,,,,,,,,,,,,,,,,,,,,,,,,,,,,,,,,,,,,,,,,,,,,,,,,,,,,,,,,,,,,,,,,,,,,
0,46,46,71,1,,60ed860a659535471b66e909,62bbfd986e16f86e54766a1a,2022-06-29_09h22.53.576,Colour_Asymmetry_Pilot,2022.1.3,Win32,59.58055291,62bbe60bf3d75ef465d3e404,,,,,,,,,,,,,,,,,,,,,,,,,,,,,,,,,,,,,,,,,,,,,,,,,,,,,,,,,,,,,,,,,,,,,,,,,,,,,,,,,,,,,,,,,,,,,,,,,,,,,,,,,,,,,,,,,,,,,,,,,,,,,,,,,,,,,,,,,,,,,,,,,,,,,,,,,,,,,,
0,47,47,79,1,,60ed860a659535471b66e909,62bbfd986e16f86e54766a1a,2022-06-29_09h22.53.576,Colour_Asymmetry_Pilot,2022.1.3,Win32,59.58055291,62bbe60bf3d75ef465d3e404,,,,,,,,,,,,,,,,,,,,,,,,,,,,,,,,,,,,,,,,,,,,,,,,,,,,,,,,,,,,,,,,,,,,,,,,,,,,,,,,,,,,,,,,,,,,,,,,,,,,,,,,,,,,,,,,,,,,,,,,,,,,,,,,,,,,,,,,,,,,,,,,,,,,,,,,,,,,,,
0,48,48,3,1,,60ed860a659535471b66e909,62bbfd986e16f86e54766a1a,2022-06-29_09h22.53.576,Colour_Asymmetry_Pilot,2022.1.3,Win32,59.58055291,62bbe60bf3d75ef465d3e404,,,,,,,,,,,,,,,,,,,,,,,,,,,,,,,,,,,,,,,,,,,,,,,,,,,,,,,,,,,,,,,,,,,,,,,,,,,,,,,,,,,,,,,,,,,,,,,,,,,,,,,,,,,,,,,,,,,,,,,,,,,,,,,,,,,,,,,,,,,,,,,,,,,,,,,,,,,,,,
0,49,49,60,1,,60ed860a659535471b66e909,62bbfd986e16f86e54766a1a,2022-06-29_09h22.53.576,Colour_Asymmetry_Pilot,2022.1.3,Win32,59.58055291,62bbe60bf3d75ef465d3e404,,,,,,,,,,,,,,,,,,,,,,,,,,,,,,,,,,,,,,,,,,,,,,,,,,,,,,,,,,,,,,,,,,,,,,,,,,,,,,,,,,,,,,,,,,,,,,,,,,,,,,,,,,,,,,,,,,,,,,,,,,,,,,,,,,,,,,,,,,,,,,,,,,,,,,,,,,,,,,
0,50,50,50,1,,60ed860a659535471b66e909,62bbfd986e16f86e54766a1a,2022-06-29_09h22.53.576,Colour_Asymmetry_Pilot,2022.1.3,Win32,59.58055291,62bbe60bf3d75ef465d3e404,,,,,,,,,,,,,,,,,,,,,,,,,,,,,,,,,,,,,,,,,,,,,,,,,,,,,,,,,,,,,,,,,,,,,,,,,,,,,,,,,,,,,,,,,,,,,,,,,,,,,,,,,,,,,,,,,,,,,,,,,,,,,,,,,,,,,,,,,,,,,,,,,,,,,,,,,,,,,,
0,51,51,83,1,,60ed860a659535471b66e909,62bbfd986e16f86e54766a1a,2022-06-29_09h22.53.576,Colour_Asymmetry_Pilot,2022.1.3,Win32,59.58055291,62bbe60bf3d75ef465d3e404,,,,,,,,,,,,,,,,,,,,,,,,,,,,,,,,,,,,,,,,,,,,,,,,,,,,,,,,,,,,,,,,,,,,,,,,,,,,,,,,,,,,,,,,,,,,,,,,,,,,,,,,,,,,,,,,,,,,,,,,,,,,,,,,,,,,,,,,,,,,,,,,,,,,,,,,,,,,,,
0,52,52,36,1,,60ed860a659535471b66e909,62bbfd986e16f86e54766a1a,2022-06-29_09h22.53.576,Colour_Asymmetry_Pilot,2022.1.3,Win32,59.58055291,62bbe60bf3d75ef465d3e404,,,,,,,,,,,,,,,,,,,,,,,,,,,,,,,,,,,,,,,,,,,,,,,,,,,,,,,,,,,,,,,,,,,,,,,,,,,,,,,,,,,,,,,,,,,,,,,,,,,,,,,,,,,,,,,,,,,,,,,,,,,,,,,,,,,,,,,,,,,,,,,,,,,,,,,,,,,,,,
0,53,53,8,1,,60ed860a659535471b66e909,62bbfd986e16f86e54766a1a,2022-06-29_09h22.53.576,Colour_Asymmetry_Pilot,2022.1.3,Win32,59.58055291,62bbe60bf3d75ef465d3e404,,,,,,,,,,,,,,,,,,,,,,,,,,,,,,,,,,,,,,,,,,,,,,,,,,,,,,,,,,,,,,,,,,,,,,,,,,,,,,,,,,,,,,,,,,,,,,,,,,,,,,,,,,,,,,,,,,,,,,,,,,,,,,,,,,,,,,,,,,,,,,,,,,,,,,,,,,,,,,
0,54,54,32,1,,60ed860a659535471b66e909,62bbfd986e16f86e54766a1a,2022-06-29_09h22.53.576,Colour_Asymmetry_Pilot,2022.1.3,Win32,59.58055291,62bbe60bf3d75ef465d3e404,,,,,,,,,,,,,,,,,,,,,,,,,,,,,,,,,,,,,,,,,,,,,,,,,,,,,,,,,,,,,,,,,,,,,,,,,,,,,,,,,,,,,,,,,,,,,,,,,,,,,,,,,,,,,,,,,,,,,,,,,,,,,,,,,,,,,,,,,,,,,,,,,,,,,,,,,,,,,,
0,55,55,59,1,,60ed860a659535471b66e909,62bbfd986e16f86e54766a1a,2022-06-29_09h22.53.576,Colour_Asymmetry_Pilot,2022.1.3,Win32,59.58055291,62bbe60bf3d75ef465d3e404,,,,,,,,,,,,,,,,,,,,,,,,,,,,,,,,,,,,,,,,,,,,,,,,,,,,,,,,,,,,,,,,,,,,,,,,,,,,,,,,,,,,,,,,,,,,,,,,,,,,,,,,,,,,,,,,,,,,,,,,,,,,,,,,,,,,,,,,,,,,,,,,,,,,,,,,,,,,,,
0,56,56,51,1,,60ed860a659535471b66e909,62bbfd986e16f86e54766a1a,2022-06-29_09h22.53.576,Colour_Asymmetry_Pilot,2022.1.3,Win32,59.58055291,62bbe60bf3d75ef465d3e404,,,,,,,,,,,,,,,,,,,,,,,,,,,,,,,,,,,,,,,,,,,,,,,,,,,,,,,,,,,,,,,,,,,,,,,,,,,,,,,,,,,,,,,,,,,,,,,,,,,,,,,,,,,,,,,,,,,,,,,,,,,,,,,,,,,,,,,,,,,,,,,,,,,,,,,,,,,,,,
0,57,57,52,1,,60ed860a659535471b66e909,62bbfd986e16f86e54766a1a,2022-06-29_09h22.53.576,Colour_Asymmetry_Pilot,2022.1.3,Win32,59.58055291,62bbe60bf3d75ef465d3e404,,,,,,,,,,,,,,,,,,,,,,,,,,,,,,,,,,,,,,,,,,,,,,,,,,,,,,,,,,,,,,,,,,,,,,,,,,,,,,,,,,,,,,,,,,,,,,,,,,,,,,,,,,,,,,,,,,,,,,,,,,,,,,,,,,,,,,,,,,,,,,,,,,,,,,,,,,,,,,
0,58,58,2,1,,60ed860a659535471b66e909,62bbfd986e16f86e54766a1a,2022-06-29_09h22.53.576,Colour_Asymmetry_Pilot,2022.1.3,Win32,59.58055291,62bbe60bf3d75ef465d3e404,,,,,,,,,,,,,,,,,,,,,,,,,,,,,,,,,,,,,,,,,,,,,,,,,,,,,,,,,,,,,,,,,,,,,,,,,,,,,,,,,,,,,,,,,,,,,,,,,,,,,,,,,,,,,,,,,,,,,,,,,,,,,,,,,,,,,,,,,,,,,,,,,,,,,,,,,,,,,,
0,59,59,10,1,,60ed860a659535471b66e909,62bbfd986e16f86e54766a1a,2022-06-29_09h22.53.576,Colour_Asymmetry_Pilot,2022.1.3,Win32,59.58055291,62bbe60bf3d75ef465d3e404,,,,,,,,,,,,,,,,,,,,,,,,,,,,,,,,,,,,,,,,,,,,,,,,,,,,,,,,,,,,,,,,,,,,,,,,,,,,,,,,,,,,,,,,,,,,,,,,,,,,,,,,,,,,,,,,,,,,,,,,,,,,,,,,,,,,,,,,,,,,,,,,,,,,,,,,,,,,,,
0,60,60,25,1,,60ed860a659535471b66e909,62bbfd986e16f86e54766a1a,2022-06-29_09h22.53.576,Colour_Asymmetry_Pilot,2022.1.3,Win32,59.58055291,62bbe60bf3d75ef465d3e404,,,,,,,,,,,,,,,,,,,,,,,,,,,,,,,,,,,,,,,,,,,,,,,,,,,,,,,,,,,,,,,,,,,,,,,,,,,,,,,,,,,,,,,,,,,,,,,,,,,,,,,,,,,,,,,,,,,,,,,,,,,,,,,,,,,,,,,,,,,,,,,,,,,,,,,,,,,,,,
0,61,61,43,1,,60ed860a659535471b66e909,62bbfd986e16f86e54766a1a,2022-06-29_09h22.53.576,Colour_Asymmetry_Pilot,2022.1.3,Win32,59.58055291,62bbe60bf3d75ef465d3e404,,,,,,,,,,,,,,,,,,,,,,,,,,,,,,,,,,,,,,,,,,,,,,,,,,,,,,,,,,,,,,,,,,,,,,,,,,,,,,,,,,,,,,,,,,,,,,,,,,,,,,,,,,,,,,,,,,,,,,,,,,,,,,,,,,,,,,,,,,,,,,,,,,,,,,,,,,,,,,
0,62,62,6,1,,60ed860a659535471b66e909,62bbfd986e16f86e54766a1a,2022-06-29_09h22.53.576,Colour_Asymmetry_Pilot,2022.1.3,Win32,59.58055291,62bbe60bf3d75ef465d3e404,,,,,,,,,,,,,,,,,,,,,,,,,,,,,,,,,,,,,,,,,,,,,,,,,,,,,,,,,,,,,,,,,,,,,,,,,,,,,,,,,,,,,,,,,,,,,,,,,,,,,,,,,,,,,,,,,,,,,,,,,,,,,,,,,,,,,,,,,,,,,,,,,,,,,,,,,,,,,,
0,63,63,90,1,,60ed860a659535471b66e909,62bbfd986e16f86e54766a1a,2022-06-29_09h22.53.576,Colour_Asymmetry_Pilot,2022.1.3,Win32,59.58055291,62bbe60bf3d75ef465d3e404,,,,,,,,,,,,,,,,,,,,,,,,,,,,,,,,,,,,,,,,,,,,,,,,,,,,,,,,,,,,,,,,,,,,,,,,,,,,,,,,,,,,,,,,,,,,,,,,,,,,,,,,,,,,,,,,,,,,,,,,,,,,,,,,,,,,,,,,,,,,,,,,,,,,,,,,,,,,,,
0,64,64,91,1,,60ed860a659535471b66e909,62bbfd986e16f86e54766a1a,2022-06-29_09h22.53.576,Colour_Asymmetry_Pilot,2022.1.3,Win32,59.58055291,62bbe60bf3d75ef465d3e404,,,,,,,,,,,,,,,,,,,,,,,,,,,,,,,,,,,,,,,,,,,,,,,,,,,,,,,,,,,,,,,,,,,,,,,,,,,,,,,,,,,,,,,,,,,,,,,,,,,,,,,,,,,,,,,,,,,,,,,,,,,,,,,,,,,,,,,,,,,,,,,,,,,,,,,,,,,,,,
0,65,65,18,1,,60ed860a659535471b66e909,62bbfd986e16f86e54766a1a,2022-06-29_09h22.53.576,Colour_Asymmetry_Pilot,2022.1.3,Win32,59.58055291,62bbe60bf3d75ef465d3e404,,,,,,,,,,,,,,,,,,,,,,,,,,,,,,,,,,,,,,,,,,,,,,,,,,,,,,,,,,,,,,,,,,,,,,,,,,,,,,,,,,,,,,,,,,,,,,,,,,,,,,,,,,,,,,,,,,,,,,,,,,,,,,,,,,,,,,,,,,,,,,,,,,,,,,,,,,,,,,
0,66,66,12,1,,60ed860a659535471b66e909,62bbfd986e16f86e54766a1a,2022-06-29_09h22.53.576,Colour_Asymmetry_Pilot,2022.1.3,Win32,59.58055291,62bbe60bf3d75ef465d3e404,,,,,,,,,,,,,,,,,,,,,,,,,,,,,,,,,,,,,,,,,,,,,,,,,,,,,,,,,,,,,,,,,,,,,,,,,,,,,,,,,,,,,,,,,,,,,,,,,,,,,,,,,,,,,,,,,,,,,,,,,,,,,,,,,,,,,,,,,,,,,,,,,,,,,,,,,,,,,,
0,67,67,88,1,,60ed860a659535471b66e909,62bbfd986e16f86e54766a1a,2022-06-29_09h22.53.576,Colour_Asymmetry_Pilot,2022.1.3,Win32,59.58055291,62bbe60bf3d75ef465d3e404,,,,,,,,,,,,,,,,,,,,,,,,,,,,,,,,,,,,,,,,,,,,,,,,,,,,,,,,,,,,,,,,,,,,,,,,,,,,,,,,,,,,,,,,,,,,,,,,,,,,,,,,,,,,,,,,,,,,,,,,,,,,,,,,,,,,,,,,,,,,,,,,,,,,,,,,,,,,,,
0,68,68,29,1,,60ed860a659535471b66e909,62bbfd986e16f86e54766a1a,2022-06-29_09h22.53.576,Colour_Asymmetry_Pilot,2022.1.3,Win32,59.58055291,62bbe60bf3d75ef465d3e404,,,,,,,,,,,,,,,,,,,,,,,,,,,,,,,,,,,,,,,,,,,,,,,,,,,,,,,,,,,,,,,,,,,,,,,,,,,,,,,,,,,,,,,,,,,,,,,,,,,,,,,,,,,,,,,,,,,,,,,,,,,,,,,,,,,,,,,,,,,,,,,,,,,,,,,,,,,,,,
0,69,69,49,1,,60ed860a659535471b66e909,62bbfd986e16f86e54766a1a,2022-06-29_09h22.53.576,Colour_Asymmetry_Pilot,2022.1.3,Win32,59.58055291,62bbe60bf3d75ef465d3e404,,,,,,,,,,,,,,,,,,,,,,,,,,,,,,,,,,,,,,,,,,,,,,,,,,,,,,,,,,,,,,,,,,,,,,,,,,,,,,,,,,,,,,,,,,,,,,,,,,,,,,,,,,,,,,,,,,,,,,,,,,,,,,,,,,,,,,,,,,,,,,,,,,,,,,,,,,,,,,
0,70,70,5,1,,60ed860a659535471b66e909,62bbfd986e16f86e54766a1a,2022-06-29_09h22.53.576,Colour_Asymmetry_Pilot,2022.1.3,Win32,59.58055291,62bbe60bf3d75ef465d3e404,,,,,,,,,,,,,,,,,,,,,,,,,,,,,,,,,,,,,,,,,,,,,,,,,,,,,,,,,,,,,,,,,,,,,,,,,,,,,,,,,,,,,,,,,,,,,,,,,,,,,,,,,,,,,,,,,,,,,,,,,,,,,,,,,,,,,,,,,,,,,,,,,,,,,,,,,,,,,,
0,71,71,11,1,,60ed860a659535471b66e909,62bbfd986e16f86e54766a1a,2022-06-29_09h22.53.576,Colour_Asymmetry_Pilot,2022.1.3,Win32,59.58055291,62bbe60bf3d75ef465d3e404,,,,,,,,,,,,,,,,,,,,,,,,,,,,,,,,,,,,,,,,,,,,,,,,,,,,,,,,,,,,,,,,,,,,,,,,,,,,,,,,,,,,,,,,,,,,,,,,,,,,,,,,,,,,,,,,,,,,,,,,,,,,,,,,,,,,,,,,,,,,,,,,,,,,,,,,,,,,,,
0,72,72,86,1,,60ed860a659535471b66e909,62bbfd986e16f86e54766a1a,2022-06-29_09h22.53.576,Colour_Asymmetry_Pilot,2022.1.3,Win32,59.58055291,62bbe60bf3d75ef465d3e404,,,,,,,,,,,,,,,,,,,,,,,,,,,,,,,,,,,,,,,,,,,,,,,,,,,,,,,,,,,,,,,,,,,,,,,,,,,,,,,,,,,,,,,,,,,,,,,,,,,,,,,,,,,,,,,,,,,,,,,,,,,,,,,,,,,,,,,,,,,,,,,,,,,,,,,,,,,,,,
0,73,73,26,1,,60ed860a659535471b66e909,62bbfd986e16f86e54766a1a,2022-06-29_09h22.53.576,Colour_Asymmetry_Pilot,2022.1.3,Win32,59.58055291,62bbe60bf3d75ef465d3e404,,,,,,,,,,,,,,,,,,,,,,,,,,,,,,,,,,,,,,,,,,,,,,,,,,,,,,,,,,,,,,,,,,,,,,,,,,,,,,,,,,,,,,,,,,,,,,,,,,,,,,,,,,,,,,,,,,,,,,,,,,,,,,,,,,,,,,,,,,,,,,,,,,,,,,,,,,,,,,
0,74,74,28,1,,60ed860a659535471b66e909,62bbfd986e16f86e54766a1a,2022-06-29_09h22.53.576,Colour_Asymmetry_Pilot,2022.1.3,Win32,59.58055291,62bbe60bf3d75ef465d3e404,,,,,,,,,,,,,,,,,,,,,,,,,,,,,,,,,,,,,,,,,,,,,,,,,,,,,,,,,,,,,,,,,,,,,,,,,,,,,,,,,,,,,,,,,,,,,,,,,,,,,,,,,,,,,,,,,,,,,,,,,,,,,,,,,,,,,,,,,,,,,,,,,,,,,,,,,,,,,,
0,75,75,69,1,,60ed860a659535471b66e909,62bbfd986e16f86e54766a1a,2022-06-29_09h22.53.576,Colour_Asymmetry_Pilot,2022.1.3,Win32,59.58055291,62bbe60bf3d75ef465d3e404,,,,,,,,,,,,,,,,,,,,,,,,,,,,,,,,,,,,,,,,,,,,,,,,,,,,,,,,,,,,,,,,,,,,,,,,,,,,,,,,,,,,,,,,,,,,,,,,,,,,,,,,,,,,,,,,,,,,,,,,,,,,,,,,,,,,,,,,,,,,,,,,,,,,,,,,,,,,,,
0,76,76,61,1,,60ed860a659535471b66e909,62bbfd986e16f86e54766a1a,2022-06-29_09h22.53.576,Colour_Asymmetry_Pilot,2022.1.3,Win32,59.58055291,62bbe60bf3d75ef465d3e404,,,,,,,,,,,,,,,,,,,,,,,,,,,,,,,,,,,,,,,,,,,,,,,,,,,,,,,,,,,,,,,,,,,,,,,,,,,,,,,,,,,,,,,,,,,,,,,,,,,,,,,,,,,,,,,,,,,,,,,,,,,,,,,,,,,,,,,,,,,,,,,,,,,,,,,,,,,,,,
0,77,77,23,1,,60ed860a659535471b66e909,62bbfd986e16f86e54766a1a,2022-06-29_09h22.53.576,Colour_Asymmetry_Pilot,2022.1.3,Win32,59.58055291,62bbe60bf3d75ef465d3e404,,,,,,,,,,,,,,,,,,,,,,,,,,,,,,,,,,,,,,,,,,,,,,,,,,,,,,,,,,,,,,,,,,,,,,,,,,,,,,,,,,,,,,,,,,,,,,,,,,,,,,,,,,,,,,,,,,,,,,,,,,,,,,,,,,,,,,,,,,,,,,,,,,,,,,,,,,,,,,
0,78,78,35,1,,60ed860a659535471b66e909,62bbfd986e16f86e54766a1a,2022-06-29_09h22.53.576,Colour_Asymmetry_Pilot,2022.1.3,Win32,59.58055291,62bbe60bf3d75ef465d3e404,,,,,,,,,,,,,,,,,,,,,,,,,,,,,,,,,,,,,,,,,,,,,,,,,,,,,,,,,,,,,,,,,,,,,,,,,,,,,,,,,,,,,,,,,,,,,,,,,,,,,,,,,,,,,,,,,,,,,,,,,,,,,,,,,,,,,,,,,,,,,,,,,,,,,,,,,,,,,,
0,79,79,9,1,,60ed860a659535471b66e909,62bbfd986e16f86e54766a1a,2022-06-29_09h22.53.576,Colour_Asymmetry_Pilot,2022.1.3,Win32,59.58055291,62bbe60bf3d75ef465d3e404,,,,,,,,,,,,,,,,,,,,,,,,,,,,,,,,,,,,,,,,,,,,,,,,,,,,,,,,,,,,,,,,,,,,,,,,,,,,,,,,,,,,,,,,,,,,,,,,,,,,,,,,,,,,,,,,,,,,,,,,,,,,,,,,,,,,,,,,,,,,,,,,,,,,,,,,,,,,,,
0,80,80,55,1,,60ed860a659535471b66e909,62bbfd986e16f86e54766a1a,2022-06-29_09h22.53.576,Colour_Asymmetry_Pilot,2022.1.3,Win32,59.58055291,62bbe60bf3d75ef465d3e404,,,,,,,,,,,,,,,,,,,,,,,,,,,,,,,,,,,,,,,,,,,,,,,,,,,,,,,,,,,,,,,,,,,,,,,,,,,,,,,,,,,,,,,,,,,,,,,,,,,,,,,,,,,,,,,,,,,,,,,,,,,,,,,,,,,,,,,,,,,,,,,,,,,,,,,,,,,,,,
0,81,81,21,1,,60ed860a659535471b66e909,62bbfd986e16f86e54766a1a,2022-06-29_09h22.53.576,Colour_Asymmetry_Pilot,2022.1.3,Win32,59.58055291,62bbe60bf3d75ef465d3e404,,,,,,,,,,,,,,,,,,,,,,,,,,,,,,,,,,,,,,,,,,,,,,,,,,,,,,,,,,,,,,,,,,,,,,,,,,,,,,,,,,,,,,,,,,,,,,,,,,,,,,,,,,,,,,,,,,,,,,,,,,,,,,,,,,,,,,,,,,,,,,,,,,,,,,,,,,,,,,
0,82,82,33,1,,60ed860a659535471b66e909,62bbfd986e16f86e54766a1a,2022-06-29_09h22.53.576,Colour_Asymmetry_Pilot,2022.1.3,Win32,59.58055291,62bbe60bf3d75ef465d3e404,,,,,,,,,,,,,,,,,,,,,,,,,,,,,,,,,,,,,,,,,,,,,,,,,,,,,,,,,,,,,,,,,,,,,,,,,,,,,,,,,,,,,,,,,,,,,,,,,,,,,,,,,,,,,,,,,,,,,,,,,,,,,,,,,,,,,,,,,,,,,,,,,,,,,,,,,,,,,,
0,83,83,64,1,,60ed860a659535471b66e909,62bbfd986e16f86e54766a1a,2022-06-29_09h22.53.576,Colour_Asymmetry_Pilot,2022.1.3,Win32,59.58055291,62bbe60bf3d75ef465d3e404,,,,,,,,,,,,,,,,,,,,,,,,,,,,,,,,,,,,,,,,,,,,,,,,,,,,,,,,,,,,,,,,,,,,,,,,,,,,,,,,,,,,,,,,,,,,,,,,,,,,,,,,,,,,,,,,,,,,,,,,,,,,,,,,,,,,,,,,,,,,,,,,,,,,,,,,,,,,,,
0,84,84,44,1,,60ed860a659535471b66e909,62bbfd986e16f86e54766a1a,2022-06-29_09h22.53.576,Colour_Asymmetry_Pilot,2022.1.3,Win32,59.58055291,62bbe60bf3d75ef465d3e404,,,,,,,,,,,,,,,,,,,,,,,,,,,,,,,,,,,,,,,,,,,,,,,,,,,,,,,,,,,,,,,,,,,,,,,,,,,,,,,,,,,,,,,,,,,,,,,,,,,,,,,,,,,,,,,,,,,,,,,,,,,,,,,,,,,,,,,,,,,,,,,,,,,,,,,,,,,,,,
0,85,85,57,1,,60ed860a659535471b66e909,62bbfd986e16f86e54766a1a,2022-06-29_09h22.53.576,Colour_Asymmetry_Pilot,2022.1.3,Win32,59.58055291,62bbe60bf3d75ef465d3e404,,,,,,,,,,,,,,,,,,,,,,,,,,,,,,,,,,,,,,,,,,,,,,,,,,,,,,,,,,,,,,,,,,,,,,,,,,,,,,,,,,,,,,,,,,,,,,,,,,,,,,,,,,,,,,,,,,,,,,,,,,,,,,,,,,,,,,,,,,,,,,,,,,,,,,,,,,,,,,
0,86,86,56,1,,60ed860a659535471b66e909,62bbfd986e16f86e54766a1a,2022-06-29_09h22.53.576,Colour_Asymmetry_Pilot,2022.1.3,Win32,59.58055291,62bbe60bf3d75ef465d3e404,,,,,,,,,,,,,,,,,,,,,,,,,,,,,,,,,,,,,,,,,,,,,,,,,,,,,,,,,,,,,,,,,,,,,,,,,,,,,,,,,,,,,,,,,,,,,,,,,,,,,,,,,,,,,,,,,,,,,,,,,,,,,,,,,,,,,,,,,,,,,,,,,,,,,,,,,,,,,,
0,87,87,45,1,,60ed860a659535471b66e909,62bbfd986e16f86e54766a1a,2022-06-29_09h22.53.576,Colour_Asymmetry_Pilot,2022.1.3,Win32,59.58055291,62bbe60bf3d75ef465d3e404,,,,,,,,,,,,,,,,,,,,,,,,,,,,,,,,,,,,,,,,,,,,,,,,,,,,,,,,,,,,,,,,,,,,,,,,,,,,,,,,,,,,,,,,,,,,,,,,,,,,,,,,,,,,,,,,,,,,,,,,,,,,,,,,,,,,,,,,,,,,,,,,,,,,,,,,,,,,,,
0,88,88,37,1,,60ed860a659535471b66e909,62bbfd986e16f86e54766a1a,2022-06-29_09h22.53.576,Colour_Asymmetry_Pilot,2022.1.3,Win32,59.58055291,62bbe60bf3d75ef465d3e404,,,,,,,,,,,,,,,,,,,,,,,,,,,,,,,,,,,,,,,,,,,,,,,,,,,,,,,,,,,,,,,,,,,,,,,,,,,,,,,,,,,,,,,,,,,,,,,,,,,,,,,,,,,,,,,,,,,,,,,,,,,,,,,,,,,,,,,,,,,,,,,,,,,,,,,,,,,,,,
0,89,89,67,1,,60ed860a659535471b66e909,62bbfd986e16f86e54766a1a,2022-06-29_09h22.53.576,Colour_Asymmetry_Pilot,2022.1.3,Win32,59.58055291,62bbe60bf3d75ef465d3e404,,,,,,,,,,,,,,,,,,,,,,,,,,,,,,,,,,,,,,,,,,,,,,,,,,,,,,,,,,,,,,,,,,,,,,,,,,,,,,,,,,,,,,,,,,,,,,,,,,,,,,,,,,,,,,,,,,,,,,,,,,,,,,,,,,,,,,,,,,,,,,,,,,,,,,,,,,,,,,
0,90,90,47,1,,60ed860a659535471b66e909,62bbfd986e16f86e54766a1a,2022-06-29_09h22.53.576,Colour_Asymmetry_Pilot,2022.1.3,Win32,59.58055291,62bbe60bf3d75ef465d3e404,,,,,,,,,,,,,,,,,,,,,,,,,,,,,,,,,,,,,,,,,,,,,,,,,,,,,,,,,,,,,,,,,,,,,,,,,,,,,,,,,,,,,,,,,,,,,,,,,,,,,,,,,,,,,,,,,,,,,,,,,,,,,,,,,,,,,,,,,,,,,,,,,,,,,,,,,,,,,,
0,91,91,24,1,,60ed860a659535471b66e909,62bbfd986e16f86e54766a1a,2022-06-29_09h22.53.576,Colour_Asymmetry_Pilot,2022.1.3,Win32,59.58055291,62bbe60bf3d75ef465d3e404,,,,,,,,,,,,,,,,,,,,,,,,,,,,,,,,,,,,,,,,,,,,,,,,,,,,,,,,,,,,,,,,,,,,,,,,,,,,,,,,,,,,,,,,,,,,,,,,,,,,,,,,,,,,,,,,,,,,,,,,,,,,,,,,,,,,,,,,,,,,,,,,,,,,,,,,,,,,,,
0,92,92,82,1,,60ed860a659535471b66e909,62bbfd986e16f86e54766a1a,2022-06-29_09h22.53.576,Colour_Asymmetry_Pilot,2022.1.3,Win32,59.58055291,62bbe60bf3d75ef465d3e404,,,,,,,,,,,,,,,,,,,,,,,,,,,,,,,,,,,,,,,,,,,,,,,,,,,,,,,,,,,,,,,,,,,,,,,,,,,,,,,,,,,,,,,,,,,,,,,,,,,,,,,,,,,,,,,,,,,,,,,,,,,,,,,,,,,,,,,,,,,,,,,,,,,,,,,,,,,,,,
,,,,,,60ed860a659535471b66e909,62bbfd986e16f86e54766a1a,2022-06-29_09h22.53.576,Colour_Asymmetry_Pilot,2022.1.3,Win32,59.58055291,62bbe60bf3d75ef465d3e404,0,0,0,142,1,fourtwo,,,,,,,,,,,,,,,,,,,,,,,,,,,,,,,,,,,,,,,,,,,,,,,,,,,,,,,,,,,,,,,,,,,,,,,,,,,,,,,,,,,,,,,,,,,,,,,,,,,,,,,,,,,,,,,,,,,,,,,,,,,,,,,,,,,,,,,,,,,,,,,,,,,,,,,,
,,,,,,60ed860a659535471b66e909,62bbfd986e16f86e54766a1a,2022-06-29_09h22.53.576,Colour_Asymmetry_Pilot,2022.1.3,Win32,59.58055291,62bbe60bf3d75ef465d3e404,0,1,1,1,1,onethree,,,,,,,,,,,,,,,,,,,,,,,,,,,,,,,,,,,,,,,,,,,,,,,,,,,,,,,,,,,,,,,,,,,,,,,,,,,,,,,,,,,,,,,,,,,,,,,,,,,,,,,,,,,,,,,,,,,,,,,,,,,,,,,,,,,,,,,,,,,,,,,,,,,,,,,,
,,,,,,60ed860a659535471b66e909,62bbfd986e16f86e54766a1a,2022-06-29_09h22.53.576,Colour_Asymmetry_Pilot,2022.1.3,Win32,59.58055291,62bbe60bf3d75ef465d3e404,0,2,2,10,1,twoone,,,,,,,,,,,,,,,,,,,,,,,,,,,,,,,,,,,,,,,,,,,,,,,,,,,,,,,,,,,,,,,,,,,,,,,,,,,,,,,,,,,,,,,,,,,,,,,,,,,,,,,,,,,,,,,,,,,,,,,,,,,,,,,,,,,,,,,,,,,,,,,,,,,,,,,,
,,,,,,60ed860a659535471b66e909,62bbfd986e16f86e54766a1a,2022-06-29_09h22.53.576,Colour_Asymmetry_Pilot,2022.1.3,Win32,59.58055291,62bbe60bf3d75ef465d3e404,0,3,3,43,1,twofour,,,,,,,,,,,,,,,,,,,,,,,,,,,,,,,,,,,,,,,,,,,,,,,,,,,,,,,,,,,,,,,,,,,,,,,,,,,,,,,,,,,,,,,,,,,,,,,,,,,,,,,,,,,,,,,,,,,,,,,,,,,,,,,,,,,,,,,,,,,,,,,,,,,,,,,,
,,,,,,60ed860a659535471b66e909,62bbfd986e16f86e54766a1a,2022-06-29_09h22.53.576,Colour_Asymmetry_Pilot,2022.1.3,Win32,59.58055291,62bbe60bf3d75ef465d3e404,0,4,4,57,1,onethree,,,,,,,,,,,,,,,,,,,,,,,,,,,,,,,,,,,,,,,,,,,,,,,,,,,,,,,,,,,,,,,,,,,,,,,,,,,,,,,,,,,,,,,,,,,,,,,,,,,,,,,,,,,,,,,,,,,,,,,,,,,,,,,,,,,,,,,,,,,,,,,,,,,,,,,,
,,,,,,60ed860a659535471b66e909,62bbfd986e16f86e54766a1a,2022-06-29_09h22.53.576,Colour_Asymmetry_Pilot,2022.1.3,Win32,59.58055291,62bbe60bf3d75ef465d3e404,0,5,5,8,1,onetwo,,,,,,,,,,,,,,,,,,,,,,,,,,,,,,,,,,,,,,,,,,,,,,,,,,,,,,,,,,,,,,,,,,,,,,,,,,,,,,,,,,,,,,,,,,,,,,,,,,,,,,,,,,,,,,,,,,,,,,,,,,,,,,,,,,,,,,,,,,,,,,,,,,,,,,,,
,,,,,,60ed860a659535471b66e909,62bbfd986e16f86e54766a1a,2022-06-29_09h22.53.576,Colour_Asymmetry_Pilot,2022.1.3,Win32,59.58055291,62bbe60bf3d75ef465d3e404,0,6,6,74,1,twoone,,,,,,,,,,,,,,,,,,,,,,,,,,,,,,,,,,,,,,,,,,,,,,,,,,,,,,,,,,,,,,,,,,,,,,,,,,,,,,,,,,,,,,,,,,,,,,,,,,,,,,,,,,,,,,,,,,,,,,,,,,,,,,,,,,,,,,,,,,,,,,,,,,,,,,,,
,,,,,,60ed860a659535471b66e909,62bbfd986e16f86e54766a1a,2022-06-29_09h22.53.576,Colour_Asymmetry_Pilot,2022.1.3,Win32,59.58055291,62bbe60bf3d75ef465d3e404,0,7,7,49,1,onethree,,,,,,,,,,,,,,,,,,,,,,,,,,,,,,,,,,,,,,,,,,,,,,,,,,,,,,,,,,,,,,,,,,,,,,,,,,,,,,,,,,,,,,,,,,,,,,,,,,,,,,,,,,,,,,,,,,,,,,,,,,,,,,,,,,,,,,,,,,,,,,,,,,,,,,,,
,,,,,,60ed860a659535471b66e909,62bbfd986e16f86e54766a1a,2022-06-29_09h22.53.576,Colour_Asymmetry_Pilot,2022.1.3,Win32,59.58055291,62bbe60bf3d75ef465d3e404,0,8,8,97,1,onethree,,,,,,,,,,,,,,,,,,,,,,,,,,,,,,,,,,,,,,,,,,,,,,,,,,,,,,,,,,,,,,,,,,,,,,,,,,,,,,,,,,,,,,,,,,,,,,,,,,,,,,,,,,,,,,,,,,,,,,,,,,,,,,,,,,,,,,,,,,,,,,,,,,,,,,,,
,,,,,,60ed860a659535471b66e909,62bbfd986e16f86e54766a1a,2022-06-29_09h22.53.576,Colour_Asymmetry_Pilot,2022.1.3,Win32,59.58055291,62bbe60bf3d75ef465d3e404,0,9,9,0,1,onetwo,,,,,,,,,,,,,,,,,,,,,,,,,,,,,,,,,,,,,,,,,,,,,,,,,,,,,,,,,,,,,,,,,,,,,,,,,,,,,,,,,,,,,,,,,,,,,,,,,,,,,,,,,,,,,,,,,,,,,,,,,,,,,,,,,,,,,,,,,,,,,,,,,,,,,,,,
,,,,,,60ed860a659535471b66e909,62bbfd986e16f86e54766a1a,2022-06-29_09h22.53.576,Colour_Asymmetry_Pilot,2022.1.3,Win32,59.58055291,62bbe60bf3d75ef465d3e404,0,10,10,31,1,fourthree,,,,,,,,,,,,,,,,,,,,,,,,,,,,,,,,,,,,,,,,,,,,,,,,,,,,,,,,,,,,,,,,,,,,,,,,,,,,,,,,,,,,,,,,,,,,,,,,,,,,,,,,,,,,,,,,,,,,,,,,,,,,,,,,,,,,,,,,,,,,,,,,,,,,,,,,
,,,,,,60ed860a659535471b66e909,62bbfd986e16f86e54766a1a,2022-06-29_09h22.53.576,Colour_Asymmetry_Pilot,2022.1.3,Win32,59.58055291,62bbe60bf3d75ef465d3e404,0,11,11,32,1,onetwo,,,,,,,,,,,,,,,,,,,,,,,,,,,,,,,,,,,,,,,,,,,,,,,,,,,,,,,,,,,,,,,,,,,,,,,,,,,,,,,,,,,,,,,,,,,,,,,,,,,,,,,,,,,,,,,,,,,,,,,,,,,,,,,,,,,,,,,,,,,,,,,,,,,,,,,,
,,,,,,60ed860a659535471b66e909,62bbfd986e16f86e54766a1a,2022-06-29_09h22.53.576,Colour_Asymmetry_Pilot,2022.1.3,Win32,59.58055291,62bbe60bf3d75ef465d3e404,0,12,12,68,1,threeone,,,,,,,,,,,,,,,,,,,,,,,,,,,,,,,,,,,,,,,,,,,,,,,,,,,,,,,,,,,,,,,,,,,,,,,,,,,,,,,,,,,,,,,,,,,,,,,,,,,,,,,,,,,,,,,,,,,,,,,,,,,,,,,,,,,,,,,,,,,,,,,,,,,,,,,,
,,,,,,60ed860a659535471b66e909,62bbfd986e16f86e54766a1a,2022-06-29_09h22.53.576,Colour_Asymmetry_Pilot,2022.1.3,Win32,59.58055291,62bbe60bf3d75ef465d3e404,0,13,13,5,1,threefour,,,,,,,,,,,,,,,,,,,,,,,,,,,,,,,,,,,,,,,,,,,,,,,,,,,,,,,,,,,,,,,,,,,,,,,,,,,,,,,,,,,,,,,,,,,,,,,,,,,,,,,,,,,,,,,,,,,,,,,,,,,,,,,,,,,,,,,,,,,,,,,,,,,,,,,,
,,,,,,60ed860a659535471b66e909,62bbfd986e16f86e54766a1a,2022-06-29_09h22.53.576,Colour_Asymmetry_Pilot,2022.1.3,Win32,59.58055291,62bbe60bf3d75ef465d3e404,0,14,14,67,1,twofour,,,,,,,,,,,,,,,,,,,,,,,,,,,,,,,,,,,,,,,,,,,,,,,,,,,,,,,,,,,,,,,,,,,,,,,,,,,,,,,,,,,,,,,,,,,,,,,,,,,,,,,,,,,,,,,,,,,,,,,,,,,,,,,,,,,,,,,,,,,,,,,,,,,,,,,,
,,,,,,60ed860a659535471b66e909,62bbfd986e16f86e54766a1a,2022-06-29_09h22.53.576,Colour_Asymmetry_Pilot,2022.1.3,Win32,59.58055291,62bbe60bf3d75ef465d3e404,0,15,15,102,1,fourtwo,,,,,,,,,,,,,,,,,,,,,,,,,,,,,,,,,,,,,,,,,,,,,,,,,,,,,,,,,,,,,,,,,,,,,,,,,,,,,,,,,,,,,,,,,,,,,,,,,,,,,,,,,,,,,,,,,,,,,,,,,,,,,,,,,,,,,,,,,,,,,,,,,,,,,,,,
,,,,,,60ed860a659535471b66e909,62bbfd986e16f86e54766a1a,2022-06-29_09h22.53.576,Colour_Asymmetry_Pilot,2022.1.3,Win32,59.58055291,62bbe60bf3d75ef465d3e404,0,16,16,158,1,fourtwo,,,,,,,,,,,,,,,,,,,,,,,,,,,,,,,,,,,,,,,,,,,,,,,,,,,,,,,,,,,,,,,,,,,,,,,,,,,,,,,,,,,,,,,,,,,,,,,,,,,,,,,,,,,,,,,,,,,,,,,,,,,,,,,,,,,,,,,,,,,,,,,,,,,,,,,,
,,,,,,60ed860a659535471b66e909,62bbfd986e16f86e54766a1a,2022-06-29_09h22.53.576,Colour_Asymmetry_Pilot,2022.1.3,Win32,59.58055291,62bbe60bf3d75ef465d3e404,0,17,17,7,1,fourthree,,,,,,,,,,,,,,,,,,,,,,,,,,,,,,,,,,,,,,,,,,,,,,,,,,,,,,,,,,,,,,,,,,,,,,,,,,,,,,,,,,,,,,,,,,,,,,,,,,,,,,,,,,,,,,,,,,,,,,,,,,,,,,,,,,,,,,,,,,,,,,,,,,,,,,,,
,,,,,,60ed860a659535471b66e909,62bbfd986e16f86e54766a1a,2022-06-29_09h22.53.576,Colour_Asymmetry_Pilot,2022.1.3,Win32,59.58055291,62bbe60bf3d75ef465d3e404,0,18,18,60,1,threeone,,,,,,,,,,,,,,,,,,,,,,,,,,,,,,,,,,,,,,,,,,,,,,,,,,,,,,,,,,,,,,,,,,,,,,,,,,,,,,,,,,,,,,,,,,,,,,,,,,,,,,,,,,,,,,,,,,,,,,,,,,,,,,,,,,,,,,,,,,,,,,,,,,,,,,,,
,,,,,,60ed860a659535471b66e909,62bbfd986e16f86e54766a1a,2022-06-29_09h22.53.576,Colour_Asymmetry_Pilot,2022.1.3,Win32,59.58055291,62bbe60bf3d75ef465d3e404,0,19,19,55,1,fourthree,,,,,,,,,,,,,,,,,,,,,,,,,,,,,,,,,,,,,,,,,,,,,,,,,,,,,,,,,,,,,,,,,,,,,,,,,,,,,,,,,,,,,,,,,,,,,,,,,,,,,,,,,,,,,,,,,,,,,,,,,,,,,,,,,,,,,,,,,,,,,,,,,,,,,,,,
,,,,,,60ed860a659535471b66e909,62bbfd986e16f86e54766a1a,2022-06-29_09h22.53.576,Colour_Asymmetry_Pilot,2022.1.3,Win32,59.58055291,62bbe60bf3d75ef465d3e404,0,20,20,145,1,onethree,,,,,,,,,,,,,,,,,,,,,,,,,,,,,,,,,,,,,,,,,,,,,,,,,,,,,,,,,,,,,,,,,,,,,,,,,,,,,,,,,,,,,,,,,,,,,,,,,,,,,,,,,,,,,,,,,,,,,,,,,,,,,,,,,,,,,,,,,,,,,,,,,,,,,,,,
,,,,,,60ed860a659535471b66e909,62bbfd986e16f86e54766a1a,2022-06-29_09h22.53.576,Colour_Asymmetry_Pilot,2022.1.3,Win32,59.58055291,62bbe60bf3d75ef465d3e404,0,21,21,51,1,twofour,,,,,,,,,,,,,,,,,,,,,,,,,,,,,,,,,,,,,,,,,,,,,,,,,,,,,,,,,,,,,,,,,,,,,,,,,,,,,,,,,,,,,,,,,,,,,,,,,,,,,,,,,,,,,,,,,,,,,,,,,,,,,,,,,,,,,,,,,,,,,,,,,,,,,,,,
,,,,,,60ed860a659535471b66e909,62bbfd986e16f86e54766a1a,2022-06-29_09h22.53.576,Colour_Asymmetry_Pilot,2022.1.3,Win32,59.58055291,62bbe60bf3d75ef465d3e404,0,22,22,29,1,threefour,,,,,,,,,,,,,,,,,,,,,,,,,,,,,,,,,,,,,,,,,,,,,,,,,,,,,,,,,,,,,,,,,,,,,,,,,,,,,,,,,,,,,,,,,,,,,,,,,,,,,,,,,,,,,,,,,,,,,,,,,,,,,,,,,,,,,,,,,,,,,,,,,,,,,,,,
,,,,,,60ed860a659535471b66e909,62bbfd986e16f86e54766a1a,2022-06-29_09h22.53.576,Colour_Asymmetry_Pilot,2022.1.3,Win32,59.58055291,62bbe60bf3d75ef465d3e404,0,23,23,80,1,onetwo,,,,,,,,,,,,,,,,,,,,,,,,,,,,,,,,,,,,,,,,,,,,,,,,,,,,,,,,,,,,,,,,,,,,,,,,,,,,,,,,,,,,,,,,,,,,,,,,,,,,,,,,,,,,,,,,,,,,,,,,,,,,,,,,,,,,,,,,,,,,,,,,,,,,,,,,
,,,,,,60ed860a659535471b66e909,62bbfd986e16f86e54766a1a,2022-06-29_09h22.53.576,Colour_Asymmetry_Pilot,2022.1.3,Win32,59.58055291,62bbe60bf3d75ef465d3e404,0,24,24,16,1,onetwo,,,,,,,,,,,,,,,,,,,,,,,,,,,,,,,,,,,,,,,,,,,,,,,,,,,,,,,,,,,,,,,,,,,,,,,,,,,,,,,,,,,,,,,,,,,,,,,,,,,,,,,,,,,,,,,,,,,,,,,,,,,,,,,,,,,,,,,,,,,,,,,,,,,,,,,,
,,,,,,60ed860a659535471b66e909,62bbfd986e16f86e54766a1a,2022-06-29_09h22.53.576,Colour_Asymmetry_Pilot,2022.1.3,Win32,59.58055291,62bbe60bf3d75ef465d3e404,0,25,25,63,1,fourthree,,,,,,,,,,,,,,,,,,,,,,,,,,,,,,,,,,,,,,,,,,,,,,,,,,,,,,,,,,,,,,,,,,,,,,,,,,,,,,,,,,,,,,,,,,,,,,,,,,,,,,,,,,,,,,,,,,,,,,,,,,,,,,,,,,,,,,,,,,,,,,,,,,,,,,,,
,,,,,,60ed860a659535471b66e909,62bbfd986e16f86e54766a1a,2022-06-29_09h22.53.576,Colour_Asymmetry_Pilot,2022.1.3,Win32,59.58055291,62bbe60bf3d75ef465d3e404,0,26,26,72,1,onetwo,,,,,,,,,,,,,,,,,,,,,,,,,,,,,,,,,,,,,,,,,,,,,,,,,,,,,,,,,,,,,,,,,,,,,,,,,,,,,,,,,,,,,,,,,,,,,,,,,,,,,,,,,,,,,,,,,,,,,,,,,,,,,,,,,,,,,,,,,,,,,,,,,,,,,,,,
,,,,,,60ed860a659535471b66e909,62bbfd986e16f86e54766a1a,2022-06-29_09h22.53.576,Colour_Asymmetry_Pilot,2022.1.3,Win32,59.58055291,62bbe60bf3d75ef465d3e404,0,27,27,20,1,threeone,,,,,,,,,,,,,,,,,,,,,,,,,,,,,,,,,,,,,,,,,,,,,,,,,,,,,,,,,,,,,,,,,,,,,,,,,,,,,,,,,,,,,,,,,,,,,,,,,,,,,,,,,,,,,,,,,,,,,,,,,,,,,,,,,,,,,,,,,,,,,,,,,,,,,,,,
,,,,,,60ed860a659535471b66e909,62bbfd986e16f86e54766a1a,2022-06-29_09h22.53.576,Colour_Asymmetry_Pilot,2022.1.3,Win32,59.58055291,62bbe60bf3d75ef465d3e404,0,28,28,11,1,twofour,,,,,,,,,,,,,,,,,,,,,,,,,,,,,,,,,,,,,,,,,,,,,,,,,,,,,,,,,,,,,,,,,,,,,,,,,,,,,,,,,,,,,,,,,,,,,,,,,,,,,,,,,,,,,,,,,,,,,,,,,,,,,,,,,,,,,,,,,,,,,,,,,,,,,,,,
,,,,,,60ed860a659535471b66e909,62bbfd986e16f86e54766a1a,2022-06-29_09h22.53.576,Colour_Asymmetry_Pilot,2022.1.3,Win32,59.58055291,62bbe60bf3d75ef465d3e404,0,29,29,4,1,threeone,,,,,,,,,,,,,,,,,,,,,,,,,,,,,,,,,,,,,,,,,,,,,,,,,,,,,,,,,,,,,,,,,,,,,,,,,,,,,,,,,,,,,,,,,,,,,,,,,,,,,,,,,,,,,,,,,,,,,,,,,,,,,,,,,,,,,,,,,,,,,,,,,,,,,,,,
,,,,,,60ed860a659535471b66e909,62bbfd986e16f86e54766a1a,2022-06-29_09h22.53.576,Colour_Asymmetry_Pilot,2022.1.3,Win32,59.58055291,62bbe60bf3d75ef465d3e404,0,30,30,44,1,threeone,,,,,,,,,,,,,,,,,,,,,,,,,,,,,,,,,,,,,,,,,,,,,,,,,,,,,,,,,,,,,,,,,,,,,,,,,,,,,,,,,,,,,,,,,,,,,,,,,,,,,,,,,,,,,,,,,,,,,,,,,,,,,,,,,,,,,,,,,,,,,,,,,,,,,,,,
,,,,,,60ed860a659535471b66e909,62bbfd986e16f86e54766a1a,2022-06-29_09h22.53.576,Colour_Asymmetry_Pilot,2022.1.3,Win32,59.58055291,62bbe60bf3d75ef465d3e404,0,31,31,123,1,twofour,,,,,,,,,,,,,,,,,,,,,,,,,,,,,,,,,,,,,,,,,,,,,,,,,,,,,,,,,,,,,,,,,,,,,,,,,,,,,,,,,,,,,,,,,,,,,,,,,,,,,,,,,,,,,,,,,,,,,,,,,,,,,,,,,,,,,,,,,,,,,,,,,,,,,,,,
,,,,,,60ed860a659535471b66e909,62bbfd986e16f86e54766a1a,2022-06-29_09h22.53.576,Colour_Asymmetry_Pilot,2022.1.3,Win32,59.58055291,62bbe60bf3d75ef465d3e404,0,32,32,137,1,onethree,,,,,,,,,,,,,,,,,,,,,,,,,,,,,,,,,,,,,,,,,,,,,,,,,,,,,,,,,,,,,,,,,,,,,,,,,,,,,,,,,,,,,,,,,,,,,,,,,,,,,,,,,,,,,,,,,,,,,,,,,,,,,,,,,,,,,,,,,,,,,,,,,,,,,,,,
,,,,,,60ed860a659535471b66e909,62bbfd986e16f86e54766a1a,2022-06-29_09h22.53.576,Colour_Asymmetry_Pilot,2022.1.3,Win32,59.58055291,62bbe60bf3d75ef465d3e404,0,33,33,109,1,threefour,,,,,,,,,,,,,,,,,,,,,,,,,,,,,,,,,,,,,,,,,,,,,,,,,,,,,,,,,,,,,,,,,,,,,,,,,,,,,,,,,,,,,,,,,,,,,,,,,,,,,,,,,,,,,,,,,,,,,,,,,,,,,,,,,,,,,,,,,,,,,,,,,,,,,,,,
,,,,,,60ed860a659535471b66e909,62bbfd986e16f86e54766a1a,2022-06-29_09h22.53.576,Colour_Asymmetry_Pilot,2022.1.3,Win32,59.58055291,62bbe60bf3d75ef465d3e404,0,34,34,82,1,twoone,,,,,,,,,,,,,,,,,,,,,,,,,,,,,,,,,,,,,,,,,,,,,,,,,,,,,,,,,,,,,,,,,,,,,,,,,,,,,,,,,,,,,,,,,,,,,,,,,,,,,,,,,,,,,,,,,,,,,,,,,,,,,,,,,,,,,,,,,,,,,,,,,,,,,,,,
,,,,,,60ed860a659535471b66e909,62bbfd986e16f86e54766a1a,2022-06-29_09h22.53.576,Colour_Asymmetry_Pilot,2022.1.3,Win32,59.58055291,62bbe60bf3d75ef465d3e404,0,35,35,108,1,threeone,,,,,,,,,,,,,,,,,,,,,,,,,,,,,,,,,,,,,,,,,,,,,,,,,,,,,,,,,,,,,,,,,,,,,,,,,,,,,,,,,,,,,,,,,,,,,,,,,,,,,,,,,,,,,,,,,,,,,,,,,,,,,,,,,,,,,,,,,,,,,,,,,,,,,,,,
,,,,,,60ed860a659535471b66e909,62bbfd986e16f86e54766a1a,2022-06-29_09h22.53.576,Colour_Asymmetry_Pilot,2022.1.3,Win32,59.58055291,62bbe60bf3d75ef465d3e404,0,36,36,103,1,fourthree,,,,,,,,,,,,,,,,,,,,,,,,,,,,,,,,,,,,,,,,,,,,,,,,,,,,,,,,,,,,,,,,,,,,,,,,,,,,,,,,,,,,,,,,,,,,,,,,,,,,,,,,,,,,,,,,,,,,,,,,,,,,,,,,,,,,,,,,,,,,,,,,,,,,,,,,
,,,,,,60ed860a659535471b66e909,62bbfd986e16f86e54766a1a,2022-06-29_09h22.53.576,Colour_Asymmetry_Pilot,2022.1.3,Win32,59.58055291,62bbe60bf3d75ef465d3e404,0,37,37,62,1,fourtwo,,,,,,,,,,,,,,,,,,,,,,,,,,,,,,,,,,,,,,,,,,,,,,,,,,,,,,,,,,,,,,,,,,,,,,,,,,,,,,,,,,,,,,,,,,,,,,,,,,,,,,,,,,,,,,,,,,,,,,,,,,,,,,,,,,,,,,,,,,,,,,,,,,,,,,,,
,,,,,,60ed860a659535471b66e909,62bbfd986e16f86e54766a1a,2022-06-29_09h22.53.576,Colour_Asymmetry_Pilot,2022.1.3,Win32,59.58055291,62bbe60bf3d75ef465d3e404,0,38,38,92,1,threeone,,,,,,,,,,,,,,,,,,,,,,,,,,,,,,,,,,,,,,,,,,,,,,,,,,,,,,,,,,,,,,,,,,,,,,,,,,,,,,,,,,,,,,,,,,,,,,,,,,,,,,,,,,,,,,,,,,,,,,,,,,,,,,,,,,,,,,,,,,,,,,,,,,,,,,,,
,,,,,,60ed860a659535471b66e909,62bbfd986e16f86e54766a1a,2022-06-29_09h22.53.576,Colour_Asymmetry_Pilot,2022.1.3,Win32,59.58055291,62bbe60bf3d75ef465d3e404,0,39,39,140,1,threeone,,,,,,,,,,,,,,,,,,,,,,,,,,,,,,,,,,,,,,,,,,,,,,,,,,,,,,,,,,,,,,,,,,,,,,,,,,,,,,,,,,,,,,,,,,,,,,,,,,,,,,,,,,,,,,,,,,,,,,,,,,,,,,,,,,,,,,,,,,,,,,,,,,,,,,,,
,,,,,,60ed860a659535471b66e909,62bbfd986e16f86e54766a1a,2022-06-29_09h22.53.576,Colour_Asymmetry_Pilot,2022.1.3,Win32,59.58055291,62bbe60bf3d75ef465d3e404,0,40,40,94,1,fourtwo,,,,,,,,,,,,,,,,,,,,,,,,,,,,,,,,,,,,,,,,,,,,,,,,,,,,,,,,,,,,,,,,,,,,,,,,,,,,,,,,,,,,,,,,,,,,,,,,,,,,,,,,,,,,,,,,,,,,,,,,,,,,,,,,,,,,,,,,,,,,,,,,,,,,,,,,
,,,,,,60ed860a659535471b66e909,62bbfd986e16f86e54766a1a,2022-06-29_09h22.53.576,Colour_Asymmetry_Pilot,2022.1.3,Win32,59.58055291,62bbe60bf3d75ef465d3e404,0,41,41,24,1,onetwo,,,,,,,,,,,,,,,,,,,,,,,,,,,,,,,,,,,,,,,,,,,,,,,,,,,,,,,,,,,,,,,,,,,,,,,,,,,,,,,,,,,,,,,,,,,,,,,,,,,,,,,,,,,,,,,,,,,,,,,,,,,,,,,,,,,,,,,,,,,,,,,,,,,,,,,,
,,,,,,60ed860a659535471b66e909,62bbfd986e16f86e54766a1a,2022-06-29_09h22.53.576,Colour_Asymmetry_Pilot,2022.1.3,Win32,59.58055291,62bbe60bf3d75ef465d3e404,0,42,42,116,1,threeone,,,,,,,,,,,,,,,,,,,,,,,,,,,,,,,,,,,,,,,,,,,,,,,,,,,,,,,,,,,,,,,,,,,,,,,,,,,,,,,,,,,,,,,,,,,,,,,,,,,,,,,,,,,,,,,,,,,,,,,,,,,,,,,,,,,,,,,,,,,,,,,,,,,,,,,,
,,,,,,60ed860a659535471b66e909,62bbfd986e16f86e54766a1a,2022-06-29_09h22.53.576,Colour_Asymmetry_Pilot,2022.1.3,Win32,59.58055291,62bbe60bf3d75ef465d3e404,0,43,43,64,1,onetwo,,,,,,,,,,,,,,,,,,,,,,,,,,,,,,,,,,,,,,,,,,,,,,,,,,,,,,,,,,,,,,,,,,,,,,,,,,,,,,,,,,,,,,,,,,,,,,,,,,,,,,,,,,,,,,,,,,,,,,,,,,,,,,,,,,,,,,,,,,,,,,,,,,,,,,,,
,,,,,,60ed860a659535471b66e909,62bbfd986e16f86e54766a1a,2022-06-29_09h22.53.576,Colour_Asymmetry_Pilot,2022.1.3,Win32,59.58055291,62bbe60bf3d75ef465d3e404,0,44,44,48,1,onetwo,,,,,,,,,,,,,,,,,,,,,,,,,,,,,,,,,,,,,,,,,,,,,,,,,,,,,,,,,,,,,,,,,,,,,,,,,,,,,,,,,,,,,,,,,,,,,,,,,,,,,,,,,,,,,,,,,,,,,,,,,,,,,,,,,,,,,,,,,,,,,,,,,,,,,,,,
,,,,,,60ed860a659535471b66e909,62bbfd986e16f86e54766a1a,2022-06-29_09h22.53.576,Colour_Asymmetry_Pilot,2022.1.3,Win32,59.58055291,62bbe60bf3d75ef465d3e404,0,45,45,100,1,threeone,,,,,,,,,,,,,,,,,,,,,,,,,,,,,,,,,,,,,,,,,,,,,,,,,,,,,,,,,,,,,,,,,,,,,,,,,,,,,,,,,,,,,,,,,,,,,,,,,,,,,,,,,,,,,,,,,,,,,,,,,,,,,,,,,,,,,,,,,,,,,,,,,,,,,,,,
,,,,,,60ed860a659535471b66e909,62bbfd986e16f86e54766a1a,2022-06-29_09h22.53.576,Colour_Asymmetry_Pilot,2022.1.3,Win32,59.58055291,62bbe60bf3d75ef465d3e404,0,46,46,56,1,onetwo,,,,,,,,,,,,,,,,,,,,,,,,,,,,,,,,,,,,,,,,,,,,,,,,,,,,,,,,,,,,,,,,,,,,,,,,,,,,,,,,,,,,,,,,,,,,,,,,,,,,,,,,,,,,,,,,,,,,,,,,,,,,,,,,,,,,,,,,,,,,,,,,,,,,,,,,
,,,,,,60ed860a659535471b66e909,62bbfd986e16f86e54766a1a,2022-06-29_09h22.53.576,Colour_Asymmetry_Pilot,2022.1.3,Win32,59.58055291,62bbe60bf3d75ef465d3e404,0,47,47,107,1,twofour,,,,,,,,,,,,,,,,,,,,,,,,,,,,,,,,,,,,,,,,,,,,,,,,,,,,,,,,,,,,,,,,,,,,,,,,,,,,,,,,,,,,,,,,,,,,,,,,,,,,,,,,,,,,,,,,,,,,,,,,,,,,,,,,,,,,,,,,,,,,,,,,,,,,,,,,
,,,,,,60ed860a659535471b66e909,62bbfd986e16f86e54766a1a,2022-06-29_09h22.53.576,Colour_Asymmetry_Pilot,2022.1.3,Win32,59.58055291,62bbe60bf3d75ef465d3e404,0,48,48,71,1,fourthree,,,,,,,,,,,,,,,,,,,,,,,,,,,,,,,,,,,,,,,,,,,,,,,,,,,,,,,,,,,,,,,,,,,,,,,,,,,,,,,,,,,,,,,,,,,,,,,,,,,,,,,,,,,,,,,,,,,,,,,,,,,,,,,,,,,,,,,,,,,,,,,,,,,,,,,,
,,,,,,60ed860a659535471b66e909,62bbfd986e16f86e54766a1a,2022-06-29_09h22.53.576,Colour_Asymmetry_Pilot,2022.1.3,Win32,59.58055291,62bbe60bf3d75ef465d3e404,0,49,49,23,1,fourthree,,,,,,,,,,,,,,,,,,,,,,,,,,,,,,,,,,,,,,,,,,,,,,,,,,,,,,,,,,,,,,,,,,,,,,,,,,,,,,,,,,,,,,,,,,,,,,,,,,,,,,,,,,,,,,,,,,,,,,,,,,,,,,,,,,,,,,,,,,,,,,,,,,,,,,,,
,,,,,,60ed860a659535471b66e909,62bbfd986e16f86e54766a1a,2022-06-29_09h22.53.576,Colour_Asymmetry_Pilot,2022.1.3,Win32,59.58055291,62bbe60bf3d75ef465d3e404,0,50,50,34,1,twoone,,,,,,,,,,,,,,,,,,,,,,,,,,,,,,,,,,,,,,,,,,,,,,,,,,,,,,,,,,,,,,,,,,,,,,,,,,,,,,,,,,,,,,,,,,,,,,,,,,,,,,,,,,,,,,,,,,,,,,,,,,,,,,,,,,,,,,,,,,,,,,,,,,,,,,,,
,,,,,,60ed860a659535471b66e909,62bbfd986e16f86e54766a1a,2022-06-29_09h22.53.576,Colour_Asymmetry_Pilot,2022.1.3,Win32,59.58055291,62bbe60bf3d75ef465d3e404,0,51,51,91,1,twofour,,,,,,,,,,,,,,,,,,,,,,,,,,,,,,,,,,,,,,,,,,,,,,,,,,,,,,,,,,,,,,,,,,,,,,,,,,,,,,,,,,,,,,,,,,,,,,,,,,,,,,,,,,,,,,,,,,,,,,,,,,,,,,,,,,,,,,,,,,,,,,,,,,,,,,,,
,,,,,,60ed860a659535471b66e909,62bbfd986e16f86e54766a1a,2022-06-29_09h22.53.576,Colour_Asymmetry_Pilot,2022.1.3,Win32,59.58055291,62bbe60bf3d75ef465d3e404,0,52,52,46,1,fourtwo,,,,,,,,,,,,,,,,,,,,,,,,,,,,,,,,,,,,,,,,,,,,,,,,,,,,,,,,,,,,,,,,,,,,,,,,,,,,,,,,,,,,,,,,,,,,,,,,,,,,,,,,,,,,,,,,,,,,,,,,,,,,,,,,,,,,,,,,,,,,,,,,,,,,,,,,
,,,,,,60ed860a659535471b66e909,62bbfd986e16f86e54766a1a,2022-06-29_09h22.53.576,Colour_Asymmetry_Pilot,2022.1.3,Win32,59.58055291,62bbe60bf3d75ef465d3e404,0,53,53,75,1,twofour,,,,,,,,,,,,,,,,,,,,,,,,,,,,,,,,,,,,,,,,,,,,,,,,,,,,,,,,,,,,,,,,,,,,,,,,,,,,,,,,,,,,,,,,,,,,,,,,,,,,,,,,,,,,,,,,,,,,,,,,,,,,,,,,,,,,,,,,,,,,,,,,,,,,,,,,
,,,,,,60ed860a659535471b66e909,62bbfd986e16f86e54766a1a,2022-06-29_09h22.53.576,Colour_Asymmetry_Pilot,2022.1.3,Win32,59.58055291,62bbe60bf3d75ef465d3e404,0,54,54,28,1,threeone,,,,,,,,,,,,,,,,,,,,,,,,,,,,,,,,,,,,,,,,,,,,,,,,,,,,,,,,,,,,,,,,,,,,,,,,,,,,,,,,,,,,,,,,,,,,,,,,,,,,,,,,,,,,,,,,,,,,,,,,,,,,,,,,,,,,,,,,,,,,,,,,,,,,,,,,
,,,,,,60ed860a659535471b66e909,62bbfd986e16f86e54766a1a,2022-06-29_09h22.53.576,Colour_Asymmetry_Pilot,2022.1.3,Win32,59.58055291,62bbe60bf3d75ef465d3e404,0,55,55,38,1,fourtwo,,,,,,,,,,,,,,,,,,,,,,,,,,,,,,,,,,,,,,,,,,,,,,,,,,,,,,,,,,,,,,,,,,,,,,,,,,,,,,,,,,,,,,,,,,,,,,,,,,,,,,,,,,,,,,,,,,,,,,,,,,,,,,,,,,,,,,,,,,,,,,,,,,,,,,,,
,,,,,,60ed860a659535471b66e909,62bbfd986e16f86e54766a1a,2022-06-29_09h22.53.576,Colour_Asymmetry_Pilot,2022.1.3,Win32,59.58055291,62bbe60bf3d75ef465d3e404,0,56,56,114,1,twoone,,,,,,,,,,,,,,,,,,,,,,,,,,,,,,,,,,,,,,,,,,,,,,,,,,,,,,,,,,,,,,,,,,,,,,,,,,,,,,,,,,,,,,,,,,,,,,,,,,,,,,,,,,,,,,,,,,,,,,,,,,,,,,,,,,,,,,,,,,,,,,,,,,,,,,,,
,,,,,,60ed860a659535471b66e909,62bbfd986e16f86e54766a1a,2022-06-29_09h22.53.576,Colour_Asymmetry_Pilot,2022.1.3,Win32,59.58055291,62bbe60bf3d75ef465d3e404,0,57,57,40,1,onetwo,,,,,,,,,,,,,,,,,,,,,,,,,,,,,,,,,,,,,,,,,,,,,,,,,,,,,,,,,,,,,,,,,,,,,,,,,,,,,,,,,,,,,,,,,,,,,,,,,,,,,,,,,,,,,,,,,,,,,,,,,,,,,,,,,,,,,,,,,,,,,,,,,,,,,,,,
,,,,,,60ed860a659535471b66e909,62bbfd986e16f86e54766a1a,2022-06-29_09h22.53.576,Colour_Asymmetry_Pilot,2022.1.3,Win32,59.58055291,62bbe60bf3d75ef465d3e404,0,58,58,141,1,threefour,,,,,,,,,,,,,,,,,,,,,,,,,,,,,,,,,,,,,,,,,,,,,,,,,,,,,,,,,,,,,,,,,,,,,,,,,,,,,,,,,,,,,,,,,,,,,,,,,,,,,,,,,,,,,,,,,,,,,,,,,,,,,,,,,,,,,,,,,,,,,,,,,,,,,,,,
,,,,,,60ed860a659535471b66e909,62bbfd986e16f86e54766a1a,2022-06-29_09h22.53.576,Colour_Asymmetry_Pilot,2022.1.3,Win32,59.58055291,62bbe60bf3d75ef465d3e404,0,59,59,19,1,twofour,,,,,,,,,,,,,,,,,,,,,,,,,,,,,,,,,,,,,,,,,,,,,,,,,,,,,,,,,,,,,,,,,,,,,,,,,,,,,,,,,,,,,,,,,,,,,,,,,,,,,,,,,,,,,,,,,,,,,,,,,,,,,,,,,,,,,,,,,,,,,,,,,,,,,,,,
,,,,,,60ed860a659535471b66e909,62bbfd986e16f86e54766a1a,2022-06-29_09h22.53.576,Colour_Asymmetry_Pilot,2022.1.3,Win32,59.58055291,62bbe60bf3d75ef465d3e404,0,60,60,111,1,fourthree,,,,,,,,,,,,,,,,,,,,,,,,,,,,,,,,,,,,,,,,,,,,,,,,,,,,,,,,,,,,,,,,,,,,,,,,,,,,,,,,,,,,,,,,,,,,,,,,,,,,,,,,,,,,,,,,,,,,,,,,,,,,,,,,,,,,,,,,,,,,,,,,,,,,,,,,
,,,,,,60ed860a659535471b66e909,62bbfd986e16f86e54766a1a,2022-06-29_09h22.53.576,Colour_Asymmetry_Pilot,2022.1.3,Win32,59.58055291,62bbe60bf3d75ef465d3e404,0,61,61,22,1,fourtwo,,,,,,,,,,,,,,,,,,,,,,,,,,,,,,,,,,,,,,,,,,,,,,,,,,,,,,,,,,,,,,,,,,,,,,,,,,,,,,,,,,,,,,,,,,,,,,,,,,,,,,,,,,,,,,,,,,,,,,,,,,,,,,,,,,,,,,,,,,,,,,,,,,,,,,,,
,,,,,,60ed860a659535471b66e909,62bbfd986e16f86e54766a1a,2022-06-29_09h22.53.576,Colour_Asymmetry_Pilot,2022.1.3,Win32,59.58055291,62bbe60bf3d75ef465d3e404,0,62,62,119,1,fourthree,,,,,,,,,,,,,,,,,,,,,,,,,,,,,,,,,,,,,,,,,,,,,,,,,,,,,,,,,,,,,,,,,,,,,,,,,,,,,,,,,,,,,,,,,,,,,,,,,,,,,,,,,,,,,,,,,,,,,,,,,,,,,,,,,,,,,,,,,,,,,,,,,,,,,,,,
,,,,,,60ed860a659535471b66e909,62bbfd986e16f86e54766a1a,2022-06-29_09h22.53.576,Colour_Asymmetry_Pilot,2022.1.3,Win32,59.58055291,62bbe60bf3d75ef465d3e404,0,63,63,143,1,fourthree,,,,,,,,,,,,,,,,,,,,,,,,,,,,,,,,,,,,,,,,,,,,,,,,,,,,,,,,,,,,,,,,,,,,,,,,,,,,,,,,,,,,,,,,,,,,,,,,,,,,,,,,,,,,,,,,,,,,,,,,,,,,,,,,,,,,,,,,,,,,,,,,,,,,,,,,
,,,,,,60ed860a659535471b66e909,62bbfd986e16f86e54766a1a,2022-06-29_09h22.53.576,Colour_Asymmetry_Pilot,2022.1.3,Win32,59.58055291,62bbe60bf3d75ef465d3e404,0,64,64,54,1,fourtwo,,,,,,,,,,,,,,,,,,,,,,,,,,,,,,,,,,,,,,,,,,,,,,,,,,,,,,,,,,,,,,,,,,,,,,,,,,,,,,,,,,,,,,,,,,,,,,,,,,,,,,,,,,,,,,,,,,,,,,,,,,,,,,,,,,,,,,,,,,,,,,,,,,,,,,,,
,,,,,,60ed860a659535471b66e909,62bbfd986e16f86e54766a1a,2022-06-29_09h22.53.576,Colour_Asymmetry_Pilot,2022.1.3,Win32,59.58055291,62bbe60bf3d75ef465d3e404,0,65,65,89,1,onethree,,,,,,,,,,,,,,,,,,,,,,,,,,,,,,,,,,,,,,,,,,,,,,,,,,,,,,,,,,,,,,,,,,,,,,,,,,,,,,,,,,,,,,,,,,,,,,,,,,,,,,,,,,,,,,,,,,,,,,,,,,,,,,,,,,,,,,,,,,,,,,,,,,,,,,,,
,,,,,,60ed860a659535471b66e909,62bbfd986e16f86e54766a1a,2022-06-29_09h22.53.576,Colour_Asymmetry_Pilot,2022.1.3,Win32,59.58055291,62bbe60bf3d75ef465d3e404,0,66,66,45,1,threefour,,,,,,,,,,,,,,,,,,,,,,,,,,,,,,,,,,,,,,,,,,,,,,,,,,,,,,,,,,,,,,,,,,,,,,,,,,,,,,,,,,,,,,,,,,,,,,,,,,,,,,,,,,,,,,,,,,,,,,,,,,,,,,,,,,,,,,,,,,,,,,,,,,,,,,,,
,,,,,,60ed860a659535471b66e909,62bbfd986e16f86e54766a1a,2022-06-29_09h22.53.576,Colour_Asymmetry_Pilot,2022.1.3,Win32,59.58055291,62bbe60bf3d75ef465d3e404,0,67,67,90,1,twoone,,,,,,,,,,,,,,,,,,,,,,,,,,,,,,,,,,,,,,,,,,,,,,,,,,,,,,,,,,,,,,,,,,,,,,,,,,,,,,,,,,,,,,,,,,,,,,,,,,,,,,,,,,,,,,,,,,,,,,,,,,,,,,,,,,,,,,,,,,,,,,,,,,,,,,,,
,,,,,,60ed860a659535471b66e909,62bbfd986e16f86e54766a1a,2022-06-29_09h22.53.576,Colour_Asymmetry_Pilot,2022.1.3,Win32,59.58055291,62bbe60bf3d75ef465d3e404,0,68,68,157,1,threefour,,,,,,,,,,,,,,,,,,,,,,,,,,,,,,,,,,,,,,,,,,,,,,,,,,,,,,,,,,,,,,,,,,,,,,,,,,,,,,,,,,,,,,,,,,,,,,,,,,,,,,,,,,,,,,,,,,,,,,,,,,,,,,,,,,,,,,,,,,,,,,,,,,,,,,,,
,,,,,,60ed860a659535471b66e909,62bbfd986e16f86e54766a1a,2022-06-29_09h22.53.576,Colour_Asymmetry_Pilot,2022.1.3,Win32,59.58055291,62bbe60bf3d75ef465d3e404,0,69,69,124,1,threeone,,,,,,,,,,,,,,,,,,,,,,,,,,,,,,,,,,,,,,,,,,,,,,,,,,,,,,,,,,,,,,,,,,,,,,,,,,,,,,,,,,,,,,,,,,,,,,,,,,,,,,,,,,,,,,,,,,,,,,,,,,,,,,,,,,,,,,,,,,,,,,,,,,,,,,,,
,,,,,,60ed860a659535471b66e909,62bbfd986e16f86e54766a1a,2022-06-29_09h22.53.576,Colour_Asymmetry_Pilot,2022.1.3,Win32,59.58055291,62bbe60bf3d75ef465d3e404,0,70,70,149,1,threefour,,,,,,,,,,,,,,,,,,,,,,,,,,,,,,,,,,,,,,,,,,,,,,,,,,,,,,,,,,,,,,,,,,,,,,,,,,,,,,,,,,,,,,,,,,,,,,,,,,,,,,,,,,,,,,,,,,,,,,,,,,,,,,,,,,,,,,,,,,,,,,,,,,,,,,,,
,,,,,,60ed860a659535471b66e909,62bbfd986e16f86e54766a1a,2022-06-29_09h22.53.576,Colour_Asymmetry_Pilot,2022.1.3,Win32,59.58055291,62bbe60bf3d75ef465d3e404,0,71,71,130,1,twoone,,,,,,,,,,,,,,,,,,,,,,,,,,,,,,,,,,,,,,,,,,,,,,,,,,,,,,,,,,,,,,,,,,,,,,,,,,,,,,,,,,,,,,,,,,,,,,,,,,,,,,,,,,,,,,,,,,,,,,,,,,,,,,,,,,,,,,,,,,,,,,,,,,,,,,,,
,,,,,,60ed860a659535471b66e909,62bbfd986e16f86e54766a1a,2022-06-29_09h22.53.576,Colour_Asymmetry_Pilot,2022.1.3,Win32,59.58055291,62bbe60bf3d75ef465d3e404,0,72,72,79,1,fourthree,,,,,,,,,,,,,,,,,,,,,,,,,,,,,,,,,,,,,,,,,,,,,,,,,,,,,,,,,,,,,,,,,,,,,,,,,,,,,,,,,,,,,,,,,,,,,,,,,,,,,,,,,,,,,,,,,,,,,,,,,,,,,,,,,,,,,,,,,,,,,,,,,,,,,,,,
,,,,,,60ed860a659535471b66e909,62bbfd986e16f86e54766a1a,2022-06-29_09h22.53.576,Colour_Asymmetry_Pilot,2022.1.3,Win32,59.58055291,62bbe60bf3d75ef465d3e404,0,73,73,138,1,twoone,,,,,,,,,,,,,,,,,,,,,,,,,,,,,,,,,,,,,,,,,,,,,,,,,,,,,,,,,,,,,,,,,,,,,,,,,,,,,,,,,,,,,,,,,,,,,,,,,,,,,,,,,,,,,,,,,,,,,,,,,,,,,,,,,,,,,,,,,,,,,,,,,,,,,,,,
,,,,,,60ed860a659535471b66e909,62bbfd986e16f86e54766a1a,2022-06-29_09h22.53.576,Colour_Asymmetry_Pilot,2022.1.3,Win32,59.58055291,62bbe60bf3d75ef465d3e404,0,74,74,14,1,fourtwo,,,,,,,,,,,,,,,,,,,,,,,,,,,,,,,,,,,,,,,,,,,,,,,,,,,,,,,,,,,,,,,,,,,,,,,,,,,,,,,,,,,,,,,,,,,,,,,,,,,,,,,,,,,,,,,,,,,,,,,,,,,,,,,,,,,,,,,,,,,,,,,,,,,,,,,,
,,,,,,60ed860a659535471b66e909,62bbfd986e16f86e54766a1a,2022-06-29_09h22.53.576,Colour_Asymmetry_Pilot,2022.1.3,Win32,59.58055291,62bbe60bf3d75ef465d3e404,0,75,75,70,1,fourtwo,,,,,,,,,,,,,,,,,,,,,,,,,,,,,,,,,,,,,,,,,,,,,,,,,,,,,,,,,,,,,,,,,,,,,,,,,,,,,,,,,,,,,,,,,,,,,,,,,,,,,,,,,,,,,,,,,,,,,,,,,,,,,,,,,,,,,,,,,,,,,,,,,,,,,,,,
,,,,,,60ed860a659535471b66e909,62bbfd986e16f86e54766a1a,2022-06-29_09h22.53.576,Colour_Asymmetry_Pilot,2022.1.3,Win32,59.58055291,62bbe60bf3d75ef465d3e404,0,76,76,78,1,fourtwo,,,,,,,,,,,,,,,,,,,,,,,,,,,,,,,,,,,,,,,,,,,,,,,,,,,,,,,,,,,,,,,,,,,,,,,,,,,,,,,,,,,,,,,,,,,,,,,,,,,,,,,,,,,,,,,,,,,,,,,,,,,,,,,,,,,,,,,,,,,,,,,,,,,,,,,,
,,,,,,60ed860a659535471b66e909,62bbfd986e16f86e54766a1a,2022-06-29_09h22.53.576,Colour_Asymmetry_Pilot,2022.1.3,Win32,59.58055291,62bbe60bf3d75ef465d3e404,0,77,77,98,1,twoone,,,,,,,,,,,,,,,,,,,,,,,,,,,,,,,,,,,,,,,,,,,,,,,,,,,,,,,,,,,,,,,,,,,,,,,,,,,,,,,,,,,,,,,,,,,,,,,,,,,,,,,,,,,,,,,,,,,,,,,,,,,,,,,,,,,,,,,,,,,,,,,,,,,,,,,,
,,,,,,60ed860a659535471b66e909,62bbfd986e16f86e54766a1a,2022-06-29_09h22.53.576,Colour_Asymmetry_Pilot,2022.1.3,Win32,59.58055291,62bbe60bf3d75ef465d3e404,0,78,78,128,1,onetwo,,,,,,,,,,,,,,,,,,,,,,,,,,,,,,,,,,,,,,,,,,,,,,,,,,,,,,,,,,,,,,,,,,,,,,,,,,,,,,,,,,,,,,,,,,,,,,,,,,,,,,,,,,,,,,,,,,,,,,,,,,,,,,,,,,,,,,,,,,,,,,,,,,,,,,,,
,,,,,,60ed860a659535471b66e909,62bbfd986e16f86e54766a1a,2022-06-29_09h22.53.576,Colour_Asymmetry_Pilot,2022.1.3,Win32,59.58055291,62bbe60bf3d75ef465d3e404,0,79,79,136,1,onetwo,,,,,,,,,,,,,,,,,,,,,,,,,,,,,,,,,,,,,,,,,,,,,,,,,,,,,,,,,,,,,,,,,,,,,,,,,,,,,,,,,,,,,,,,,,,,,,,,,,,,,,,,,,,,,,,,,,,,,,,,,,,,,,,,,,,,,,,,,,,,,,,,,,,,,,,,
,,,,,,60ed860a659535471b66e909,62bbfd986e16f86e54766a1a,2022-06-29_09h22.53.576,Colour_Asymmetry_Pilot,2022.1.3,Win32,59.58055291,62bbe60bf3d75ef465d3e404,0,80,80,47,1,fourthree,,,,,,,,,,,,,,,,,,,,,,,,,,,,,,,,,,,,,,,,,,,,,,,,,,,,,,,,,,,,,,,,,,,,,,,,,,,,,,,,,,,,,,,,,,,,,,,,,,,,,,,,,,,,,,,,,,,,,,,,,,,,,,,,,,,,,,,,,,,,,,,,,,,,,,,,
,,,,,,60ed860a659535471b66e909,62bbfd986e16f86e54766a1a,2022-06-29_09h22.53.576,Colour_Asymmetry_Pilot,2022.1.3,Win32,59.58055291,62bbe60bf3d75ef465d3e404,0,81,81,17,1,onethree,,,,,,,,,,,,,,,,,,,,,,,,,,,,,,,,,,,,,,,,,,,,,,,,,,,,,,,,,,,,,,,,,,,,,,,,,,,,,,,,,,,,,,,,,,,,,,,,,,,,,,,,,,,,,,,,,,,,,,,,,,,,,,,,,,,,,,,,,,,,,,,,,,,,,,,,
,,,,,,60ed860a659535471b66e909,62bbfd986e16f86e54766a1a,2022-06-29_09h22.53.576,Colour_Asymmetry_Pilot,2022.1.3,Win32,59.58055291,62bbe60bf3d75ef465d3e404,0,82,82,81,1,onethree,,,,,,,,,,,,,,,,,,,,,,,,,,,,,,,,,,,,,,,,,,,,,,,,,,,,,,,,,,,,,,,,,,,,,,,,,,,,,,,,,,,,,,,,,,,,,,,,,,,,,,,,,,,,,,,,,,,,,,,,,,,,,,,,,,,,,,,,,,,,,,,,,,,,,,,,
,,,,,,60ed860a659535471b66e909,62bbfd986e16f86e54766a1a,2022-06-29_09h22.53.576,Colour_Asymmetry_Pilot,2022.1.3,Win32,59.58055291,62bbe60bf3d75ef465d3e404,0,83,83,59,1,twofour,,,,,,,,,,,,,,,,,,,,,,,,,,,,,,,,,,,,,,,,,,,,,,,,,,,,,,,,,,,,,,,,,,,,,,,,,,,,,,,,,,,,,,,,,,,,,,,,,,,,,,,,,,,,,,,,,,,,,,,,,,,,,,,,,,,,,,,,,,,,,,,,,,,,,,,,
,,,,,,60ed860a659535471b66e909,62bbfd986e16f86e54766a1a,2022-06-29_09h22.53.576,Colour_Asymmetry_Pilot,2022.1.3,Win32,59.58055291,62bbe60bf3d75ef465d3e404,0,84,84,39,1,fourthree,,,,,,,,,,,,,,,,,,,,,,,,,,,,,,,,,,,,,,,,,,,,,,,,,,,,,,,,,,,,,,,,,,,,,,,,,,,,,,,,,,,,,,,,,,,,,,,,,,,,,,,,,,,,,,,,,,,,,,,,,,,,,,,,,,,,,,,,,,,,,,,,,,,,,,,,
,,,,,,60ed860a659535471b66e909,62bbfd986e16f86e54766a1a,2022-06-29_09h22.53.576,Colour_Asymmetry_Pilot,2022.1.3,Win32,59.58055291,62bbe60bf3d75ef465d3e404,0,85,85,33,1,onethree,,,,,,,,,,,,,,,,,,,,,,,,,,,,,,,,,,,,,,,,,,,,,,,,,,,,,,,,,,,,,,,,,,,,,,,,,,,,,,,,,,,,,,,,,,,,,,,,,,,,,,,,,,,,,,,,,,,,,,,,,,,,,,,,,,,,,,,,,,,,,,,,,,,,,,,,
,,,,,,60ed860a659535471b66e909,62bbfd986e16f86e54766a1a,2022-06-29_09h22.53.576,Colour_Asymmetry_Pilot,2022.1.3,Win32,59.58055291,62bbe60bf3d75ef465d3e404,0,86,86,150,1,fourtwo,,,,,,,,,,,,,,,,,,,,,,,,,,,,,,,,,,,,,,,,,,,,,,,,,,,,,,,,,,,,,,,,,,,,,,,,,,,,,,,,,,,,,,,,,,,,,,,,,,,,,,,,,,,,,,,,,,,,,,,,,,,,,,,,,,,,,,,,,,,,,,,,,,,,,,,,
,,,,,,60ed860a659535471b66e909,62bbfd986e16f86e54766a1a,2022-06-29_09h22.53.576,Colour_Asymmetry_Pilot,2022.1.3,Win32,59.58055291,62bbe60bf3d75ef465d3e404,0,87,87,146,1,twoone,,,,,,,,,,,,,,,,,,,,,,,,,,,,,,,,,,,,,,,,,,,,,,,,,,,,,,,,,,,,,,,,,,,,,,,,,,,,,,,,,,,,,,,,,,,,,,,,,,,,,,,,,,,,,,,,,,,,,,,,,,,,,,,,,,,,,,,,,,,,,,,,,,,,,,,,
,,,,,,60ed860a659535471b66e909,62bbfd986e16f86e54766a1a,2022-06-29_09h22.53.576,Colour_Asymmetry_Pilot,2022.1.3,Win32,59.58055291,62bbe60bf3d75ef465d3e404,0,88,88,50,1,twoone,,,,,,,,,,,,,,,,,,,,,,,,,,,,,,,,,,,,,,,,,,,,,,,,,,,,,,,,,,,,,,,,,,,,,,,,,,,,,,,,,,,,,,,,,,,,,,,,,,,,,,,,,,,,,,,,,,,,,,,,,,,,,,,,,,,,,,,,,,,,,,,,,,,,,,,,
,,,,,,60ed860a659535471b66e909,62bbfd986e16f86e54766a1a,2022-06-29_09h22.53.576,Colour_Asymmetry_Pilot,2022.1.3,Win32,59.58055291,62bbe60bf3d75ef465d3e404,0,89,89,105,1,onethree,,,,,,,,,,,,,,,,,,,,,,,,,,,,,,,,,,,,,,,,,,,,,,,,,,,,,,,,,,,,,,,,,,,,,,,,,,,,,,,,,,,,,,,,,,,,,,,,,,,,,,,,,,,,,,,,,,,,,,,,,,,,,,,,,,,,,,,,,,,,,,,,,,,,,,,,
,,,,,,60ed860a659535471b66e909,62bbfd986e16f86e54766a1a,2022-06-29_09h22.53.576,Colour_Asymmetry_Pilot,2022.1.3,Win32,59.58055291,62bbe60bf3d75ef465d3e404,0,90,90,6,1,fourtwo,,,,,,,,,,,,,,,,,,,,,,,,,,,,,,,,,,,,,,,,,,,,,,,,,,,,,,,,,,,,,,,,,,,,,,,,,,,,,,,,,,,,,,,,,,,,,,,,,,,,,,,,,,,,,,,,,,,,,,,,,,,,,,,,,,,,,,,,,,,,,,,,,,,,,,,,
,,,,,,60ed860a659535471b66e909,62bbfd986e16f86e54766a1a,2022-06-29_09h22.53.576,Colour_Asymmetry_Pilot,2022.1.3,Win32,59.58055291,62bbe60bf3d75ef465d3e404,0,91,91,52,1,threeone,,,,,,,,,,,,,,,,,,,,,,,,,,,,,,,,,,,,,,,,,,,,,,,,,,,,,,,,,,,,,,,,,,,,,,,,,,,,,,,,,,,,,,,,,,,,,,,,,,,,,,,,,,,,,,,,,,,,,,,,,,,,,,,,,,,,,,,,,,,,,,,,,,,,,,,,
,,,,,,60ed860a659535471b66e909,62bbfd986e16f86e54766a1a,2022-06-29_09h22.53.576,Colour_Asymmetry_Pilot,2022.1.3,Win32,59.58055291,62bbe60bf3d75ef465d3e404,0,92,92,35,1,twofour,,,,,,,,,,,,,,,,,,,,,,,,,,,,,,,,,,,,,,,,,,,,,,,,,,,,,,,,,,,,,,,,,,,,,,,,,,,,,,,,,,,,,,,,,,,,,,,,,,,,,,,,,,,,,,,,,,,,,,,,,,,,,,,,,,,,,,,,,,,,,,,,,,,,,,,,
,,,,,,60ed860a659535471b66e909,62bbfd986e16f86e54766a1a,2022-06-29_09h22.53.576,Colour_Asymmetry_Pilot,2022.1.3,Win32,59.58055291,62bbe60bf3d75ef465d3e404,0,93,93,122,1,twoone,,,,,,,,,,,,,,,,,,,,,,,,,,,,,,,,,,,,,,,,,,,,,,,,,,,,,,,,,,,,,,,,,,,,,,,,,,,,,,,,,,,,,,,,,,,,,,,,,,,,,,,,,,,,,,,,,,,,,,,,,,,,,,,,,,,,,,,,,,,,,,,,,,,,,,,,
,,,,,,60ed860a659535471b66e909,62bbfd986e16f86e54766a1a,2022-06-29_09h22.53.576,Colour_Asymmetry_Pilot,2022.1.3,Win32,59.58055291,62bbe60bf3d75ef465d3e404,0,94,94,152,1,onetwo,,,,,,,,,,,,,,,,,,,,,,,,,,,,,,,,,,,,,,,,,,,,,,,,,,,,,,,,,,,,,,,,,,,,,,,,,,,,,,,,,,,,,,,,,,,,,,,,,,,,,,,,,,,,,,,,,,,,,,,,,,,,,,,,,,,,,,,,,,,,,,,,,,,,,,,,
,,,,,,60ed860a659535471b66e909,62bbfd986e16f86e54766a1a,2022-06-29_09h22.53.576,Colour_Asymmetry_Pilot,2022.1.3,Win32,59.58055291,62bbe60bf3d75ef465d3e404,0,95,95,151,1,fourthree,,,,,,,,,,,,,,,,,,,,,,,,,,,,,,,,,,,,,,,,,,,,,,,,,,,,,,,,,,,,,,,,,,,,,,,,,,,,,,,,,,,,,,,,,,,,,,,,,,,,,,,,,,,,,,,,,,,,,,,,,,,,,,,,,,,,,,,,,,,,,,,,,,,,,,,,
,,,,,,60ed860a659535471b66e909,62bbfd986e16f86e54766a1a,2022-06-29_09h22.53.576,Colour_Asymmetry_Pilot,2022.1.3,Win32,59.58055291,62bbe60bf3d75ef465d3e404,0,96,96,129,1,onethree,,,,,,,,,,,,,,,,,,,,,,,,,,,,,,,,,,,,,,,,,,,,,,,,,,,,,,,,,,,,,,,,,,,,,,,,,,,,,,,,,,,,,,,,,,,,,,,,,,,,,,,,,,,,,,,,,,,,,,,,,,,,,,,,,,,,,,,,,,,,,,,,,,,,,,,,
,,,,,,60ed860a659535471b66e909,62bbfd986e16f86e54766a1a,2022-06-29_09h22.53.576,Colour_Asymmetry_Pilot,2022.1.3,Win32,59.58055291,62bbe60bf3d75ef465d3e404,0,97,97,148,1,threeone,,,,,,,,,,,,,,,,,,,,,,,,,,,,,,,,,,,,,,,,,,,,,,,,,,,,,,,,,,,,,,,,,,,,,,,,,,,,,,,,,,,,,,,,,,,,,,,,,,,,,,,,,,,,,,,,,,,,,,,,,,,,,,,,,,,,,,,,,,,,,,,,,,,,,,,,
,,,,,,60ed860a659535471b66e909,62bbfd986e16f86e54766a1a,2022-06-29_09h22.53.576,Colour_Asymmetry_Pilot,2022.1.3,Win32,59.58055291,62bbe60bf3d75ef465d3e404,0,98,98,132,1,threeone,,,,,,,,,,,,,,,,,,,,,,,,,,,,,,,,,,,,,,,,,,,,,,,,,,,,,,,,,,,,,,,,,,,,,,,,,,,,,,,,,,,,,,,,,,,,,,,,,,,,,,,,,,,,,,,,,,,,,,,,,,,,,,,,,,,,,,,,,,,,,,,,,,,,,,,,
,,,,,,60ed860a659535471b66e909,62bbfd986e16f86e54766a1a,2022-06-29_09h22.53.576,Colour_Asymmetry_Pilot,2022.1.3,Win32,59.58055291,62bbe60bf3d75ef465d3e404,0,99,99,25,1,onethree,,,,,,,,,,,,,,,,,,,,,,,,,,,,,,,,,,,,,,,,,,,,,,,,,,,,,,,,,,,,,,,,,,,,,,,,,,,,,,,,,,,,,,,,,,,,,,,,,,,,,,,,,,,,,,,,,,,,,,,,,,,,,,,,,,,,,,,,,,,,,,,,,,,,,,,,
,,,,,,60ed860a659535471b66e909,62bbfd986e16f86e54766a1a,2022-06-29_09h22.53.576,Colour_Asymmetry_Pilot,2022.1.3,Win32,59.58055291,62bbe60bf3d75ef465d3e404,0,100,100,110,1,fourtwo,,,,,,,,,,,,,,,,,,,,,,,,,,,,,,,,,,,,,,,,,,,,,,,,,,,,,,,,,,,,,,,,,,,,,,,,,,,,,,,,,,,,,,,,,,,,,,,,,,,,,,,,,,,,,,,,,,,,,,,,,,,,,,,,,,,,,,,,,,,,,,,,,,,,,,,,
,,,,,,60ed860a659535471b66e909,62bbfd986e16f86e54766a1a,2022-06-29_09h22.53.576,Colour_Asymmetry_Pilot,2022.1.3,Win32,59.58055291,62bbe60bf3d75ef465d3e404,0,101,101,61,1,threefour,,,,,,,,,,,,,,,,,,,,,,,,,,,,,,,,,,,,,,,,,,,,,,,,,,,,,,,,,,,,,,,,,,,,,,,,,,,,,,,,,,,,,,,,,,,,,,,,,,,,,,,,,,,,,,,,,,,,,,,,,,,,,,,,,,,,,,,,,,,,,,,,,,,,,,,,
,,,,,,60ed860a659535471b66e909,62bbfd986e16f86e54766a1a,2022-06-29_09h22.53.576,Colour_Asymmetry_Pilot,2022.1.3,Win32,59.58055291,62bbe60bf3d75ef465d3e404,0,102,102,66,1,twoone,,,,,,,,,,,,,,,,,,,,,,,,,,,,,,,,,,,,,,,,,,,,,,,,,,,,,,,,,,,,,,,,,,,,,,,,,,,,,,,,,,,,,,,,,,,,,,,,,,,,,,,,,,,,,,,,,,,,,,,,,,,,,,,,,,,,,,,,,,,,,,,,,,,,,,,,
,,,,,,60ed860a659535471b66e909,62bbfd986e16f86e54766a1a,2022-06-29_09h22.53.576,Colour_Asymmetry_Pilot,2022.1.3,Win32,59.58055291,62bbe60bf3d75ef465d3e404,0,103,103,30,1,fourtwo,,,,,,,,,,,,,,,,,,,,,,,,,,,,,,,,,,,,,,,,,,,,,,,,,,,,,,,,,,,,,,,,,,,,,,,,,,,,,,,,,,,,,,,,,,,,,,,,,,,,,,,,,,,,,,,,,,,,,,,,,,,,,,,,,,,,,,,,,,,,,,,,,,,,,,,,
,,,,,,60ed860a659535471b66e909,62bbfd986e16f86e54766a1a,2022-06-29_09h22.53.576,Colour_Asymmetry_Pilot,2022.1.3,Win32,59.58055291,62bbe60bf3d75ef465d3e404,0,104,104,127,1,fourthree,,,,,,,,,,,,,,,,,,,,,,,,,,,,,,,,,,,,,,,,,,,,,,,,,,,,,,,,,,,,,,,,,,,,,,,,,,,,,,,,,,,,,,,,,,,,,,,,,,,,,,,,,,,,,,,,,,,,,,,,,,,,,,,,,,,,,,,,,,,,,,,,,,,,,,,,
,,,,,,60ed860a659535471b66e909,62bbfd986e16f86e54766a1a,2022-06-29_09h22.53.576,Colour_Asymmetry_Pilot,2022.1.3,Win32,59.58055291,62bbe60bf3d75ef465d3e404,0,105,105,155,1,twofour,,,,,,,,,,,,,,,,,,,,,,,,,,,,,,,,,,,,,,,,,,,,,,,,,,,,,,,,,,,,,,,,,,,,,,,,,,,,,,,,,,,,,,,,,,,,,,,,,,,,,,,,,,,,,,,,,,,,,,,,,,,,,,,,,,,,,,,,,,,,,,,,,,,,,,,,
,,,,,,60ed860a659535471b66e909,62bbfd986e16f86e54766a1a,2022-06-29_09h22.53.576,Colour_Asymmetry_Pilot,2022.1.3,Win32,59.58055291,62bbe60bf3d75ef465d3e404,0,106,106,88,1,onetwo,,,,,,,,,,,,,,,,,,,,,,,,,,,,,,,,,,,,,,,,,,,,,,,,,,,,,,,,,,,,,,,,,,,,,,,,,,,,,,,,,,,,,,,,,,,,,,,,,,,,,,,,,,,,,,,,,,,,,,,,,,,,,,,,,,,,,,,,,,,,,,,,,,,,,,,,
,,,,,,60ed860a659535471b66e909,62bbfd986e16f86e54766a1a,2022-06-29_09h22.53.576,Colour_Asymmetry_Pilot,2022.1.3,Win32,59.58055291,62bbe60bf3d75ef465d3e404,0,107,107,161,1,onethree,,,,,,,,,,,,,,,,,,,,,,,,,,,,,,,,,,,,,,,,,,,,,,,,,,,,,,,,,,,,,,,,,,,,,,,,,,,,,,,,,,,,,,,,,,,,,,,,,,,,,,,,,,,,,,,,,,,,,,,,,,,,,,,,,,,,,,,,,,,,,,,,,,,,,,,,
,,,,,,60ed860a659535471b66e909,62bbfd986e16f86e54766a1a,2022-06-29_09h22.53.576,Colour_Asymmetry_Pilot,2022.1.3,Win32,59.58055291,62bbe60bf3d75ef465d3e404,0,108,108,2,1,twoone,,,,,,,,,,,,,,,,,,,,,,,,,,,,,,,,,,,,,,,,,,,,,,,,,,,,,,,,,,,,,,,,,,,,,,,,,,,,,,,,,,,,,,,,,,,,,,,,,,,,,,,,,,,,,,,,,,,,,,,,,,,,,,,,,,,,,,,,,,,,,,,,,,,,,,,,
,,,,,,60ed860a659535471b66e909,62bbfd986e16f86e54766a1a,2022-06-29_09h22.53.576,Colour_Asymmetry_Pilot,2022.1.3,Win32,59.58055291,62bbe60bf3d75ef465d3e404,0,109,109,160,1,onetwo,,,,,,,,,,,,,,,,,,,,,,,,,,,,,,,,,,,,,,,,,,,,,,,,,,,,,,,,,,,,,,,,,,,,,,,,,,,,,,,,,,,,,,,,,,,,,,,,,,,,,,,,,,,,,,,,,,,,,,,,,,,,,,,,,,,,,,,,,,,,,,,,,,,,,,,,
,,,,,,60ed860a659535471b66e909,62bbfd986e16f86e54766a1a,2022-06-29_09h22.53.576,Colour_Asymmetry_Pilot,2022.1.3,Win32,59.58055291,62bbe60bf3d75ef465d3e404,0,110,110,12,1,threeone,,,,,,,,,,,,,,,,,,,,,,,,,,,,,,,,,,,,,,,,,,,,,,,,,,,,,,,,,,,,,,,,,,,,,,,,,,,,,,,,,,,,,,,,,,,,,,,,,,,,,,,,,,,,,,,,,,,,,,,,,,,,,,,,,,,,,,,,,,,,,,,,,,,,,,,,
,,,,,,60ed860a659535471b66e909,62bbfd986e16f86e54766a1a,2022-06-29_09h22.53.576,Colour_Asymmetry_Pilot,2022.1.3,Win32,59.58055291,62bbe60bf3d75ef465d3e404,0,111,111,41,1,onethree,,,,,,,,,,,,,,,,,,,,,,,,,,,,,,,,,,,,,,,,,,,,,,,,,,,,,,,,,,,,,,,,,,,,,,,,,,,,,,,,,,,,,,,,,,,,,,,,,,,,,,,,,,,,,,,,,,,,,,,,,,,,,,,,,,,,,,,,,,,,,,,,,,,,,,,,
,,,,,,60ed860a659535471b66e909,62bbfd986e16f86e54766a1a,2022-06-29_09h22.53.576,Colour_Asymmetry_Pilot,2022.1.3,Win32,59.58055291,62bbe60bf3d75ef465d3e404,0,112,112,13,1,threefour,,,,,,,,,,,,,,,,,,,,,,,,,,,,,,,,,,,,,,,,,,,,,,,,,,,,,,,,,,,,,,,,,,,,,,,,,,,,,,,,,,,,,,,,,,,,,,,,,,,,,,,,,,,,,,,,,,,,,,,,,,,,,,,,,,,,,,,,,,,,,,,,,,,,,,,,
,,,,,,60ed860a659535471b66e909,62bbfd986e16f86e54766a1a,2022-06-29_09h22.53.576,Colour_Asymmetry_Pilot,2022.1.3,Win32,59.58055291,62bbe60bf3d75ef465d3e404,0,113,113,134,1,fourtwo,,,,,,,,,,,,,,,,,,,,,,,,,,,,,,,,,,,,,,,,,,,,,,,,,,,,,,,,,,,,,,,,,,,,,,,,,,,,,,,,,,,,,,,,,,,,,,,,,,,,,,,,,,,,,,,,,,,,,,,,,,,,,,,,,,,,,,,,,,,,,,,,,,,,,,,,
,,,,,,60ed860a659535471b66e909,62bbfd986e16f86e54766a1a,2022-06-29_09h22.53.576,Colour_Asymmetry_Pilot,2022.1.3,Win32,59.58055291,62bbe60bf3d75ef465d3e404,0,114,114,153,1,onethree,,,,,,,,,,,,,,,,,,,,,,,,,,,,,,,,,,,,,,,,,,,,,,,,,,,,,,,,,,,,,,,,,,,,,,,,,,,,,,,,,,,,,,,,,,,,,,,,,,,,,,,,,,,,,,,,,,,,,,,,,,,,,,,,,,,,,,,,,,,,,,,,,,,,,,,,
,,,,,,60ed860a659535471b66e909,62bbfd986e16f86e54766a1a,2022-06-29_09h22.53.576,Colour_Asymmetry_Pilot,2022.1.3,Win32,59.58055291,62bbe60bf3d75ef465d3e404,0,115,115,106,1,twoone,,,,,,,,,,,,,,,,,,,,,,,,,,,,,,,,,,,,,,,,,,,,,,,,,,,,,,,,,,,,,,,,,,,,,,,,,,,,,,,,,,,,,,,,,,,,,,,,,,,,,,,,,,,,,,,,,,,,,,,,,,,,,,,,,,,,,,,,,,,,,,,,,,,,,,,,
,,,,,,60ed860a659535471b66e909,62bbfd986e16f86e54766a1a,2022-06-29_09h22.53.576,Colour_Asymmetry_Pilot,2022.1.3,Win32,59.58055291,62bbe60bf3d75ef465d3e404,0,116,116,36,1,threeone,,,,,,,,,,,,,,,,,,,,,,,,,,,,,,,,,,,,,,,,,,,,,,,,,,,,,,,,,,,,,,,,,,,,,,,,,,,,,,,,,,,,,,,,,,,,,,,,,,,,,,,,,,,,,,,,,,,,,,,,,,,,,,,,,,,,,,,,,,,,,,,,,,,,,,,,
,,,,,,60ed860a659535471b66e909,62bbfd986e16f86e54766a1a,2022-06-29_09h22.53.576,Colour_Asymmetry_Pilot,2022.1.3,Win32,59.58055291,62bbe60bf3d75ef465d3e404,0,117,117,93,1,threefour,,,,,,,,,,,,,,,,,,,,,,,,,,,,,,,,,,,,,,,,,,,,,,,,,,,,,,,,,,,,,,,,,,,,,,,,,,,,,,,,,,,,,,,,,,,,,,,,,,,,,,,,,,,,,,,,,,,,,,,,,,,,,,,,,,,,,,,,,,,,,,,,,,,,,,,,
,,,,,,60ed860a659535471b66e909,62bbfd986e16f86e54766a1a,2022-06-29_09h22.53.576,Colour_Asymmetry_Pilot,2022.1.3,Win32,59.58055291,62bbe60bf3d75ef465d3e404,0,118,118,135,1,fourthree,,,,,,,,,,,,,,,,,,,,,,,,,,,,,,,,,,,,,,,,,,,,,,,,,,,,,,,,,,,,,,,,,,,,,,,,,,,,,,,,,,,,,,,,,,,,,,,,,,,,,,,,,,,,,,,,,,,,,,,,,,,,,,,,,,,,,,,,,,,,,,,,,,,,,,,,
,,,,,,60ed860a659535471b66e909,62bbfd986e16f86e54766a1a,2022-06-29_09h22.53.576,Colour_Asymmetry_Pilot,2022.1.3,Win32,59.58055291,62bbe60bf3d75ef465d3e404,0,119,119,85,1,threefour,,,,,,,,,,,,,,,,,,,,,,,,,,,,,,,,,,,,,,,,,,,,,,,,,,,,,,,,,,,,,,,,,,,,,,,,,,,,,,,,,,,,,,,,,,,,,,,,,,,,,,,,,,,,,,,,,,,,,,,,,,,,,,,,,,,,,,,,,,,,,,,,,,,,,,,,
,,,,,,60ed860a659535471b66e909,62bbfd986e16f86e54766a1a,2022-06-29_09h22.53.576,Colour_Asymmetry_Pilot,2022.1.3,Win32,59.58055291,62bbe60bf3d75ef465d3e404,0,120,120,76,1,threeone,,,,,,,,,,,,,,,,,,,,,,,,,,,,,,,,,,,,,,,,,,,,,,,,,,,,,,,,,,,,,,,,,,,,,,,,,,,,,,,,,,,,,,,,,,,,,,,,,,,,,,,,,,,,,,,,,,,,,,,,,,,,,,,,,,,,,,,,,,,,,,,,,,,,,,,,
,,,,,,60ed860a659535471b66e909,62bbfd986e16f86e54766a1a,2022-06-29_09h22.53.576,Colour_Asymmetry_Pilot,2022.1.3,Win32,59.58055291,62bbe60bf3d75ef465d3e404,0,121,121,53,1,threefour,,,,,,,,,,,,,,,,,,,,,,,,,,,,,,,,,,,,,,,,,,,,,,,,,,,,,,,,,,,,,,,,,,,,,,,,,,,,,,,,,,,,,,,,,,,,,,,,,,,,,,,,,,,,,,,,,,,,,,,,,,,,,,,,,,,,,,,,,,,,,,,,,,,,,,,,
,,,,,,60ed860a659535471b66e909,62bbfd986e16f86e54766a1a,2022-06-29_09h22.53.576,Colour_Asymmetry_Pilot,2022.1.3,Win32,59.58055291,62bbe60bf3d75ef465d3e404,0,122,122,18,1,twoone,,,,,,,,,,,,,,,,,,,,,,,,,,,,,,,,,,,,,,,,,,,,,,,,,,,,,,,,,,,,,,,,,,,,,,,,,,,,,,,,,,,,,,,,,,,,,,,,,,,,,,,,,,,,,,,,,,,,,,,,,,,,,,,,,,,,,,,,,,,,,,,,,,,,,,,,
,,,,,,60ed860a659535471b66e909,62bbfd986e16f86e54766a1a,2022-06-29_09h22.53.576,Colour_Asymmetry_Pilot,2022.1.3,Win32,59.58055291,62bbe60bf3d75ef465d3e404,0,123,123,120,1,onetwo,,,,,,,,,,,,,,,,,,,,,,,,,,,,,,,,,,,,,,,,,,,,,,,,,,,,,,,,,,,,,,,,,,,,,,,,,,,,,,,,,,,,,,,,,,,,,,,,,,,,,,,,,,,,,,,,,,,,,,,,,,,,,,,,,,,,,,,,,,,,,,,,,,,,,,,,
,,,,,,60ed860a659535471b66e909,62bbfd986e16f86e54766a1a,2022-06-29_09h22.53.576,Colour_Asymmetry_Pilot,2022.1.3,Win32,59.58055291,62bbe60bf3d75ef465d3e404,0,124,124,125,1,threefour,,,,,,,,,,,,,,,,,,,,,,,,,,,,,,,,,,,,,,,,,,,,,,,,,,,,,,,,,,,,,,,,,,,,,,,,,,,,,,,,,,,,,,,,,,,,,,,,,,,,,,,,,,,,,,,,,,,,,,,,,,,,,,,,,,,,,,,,,,,,,,,,,,,,,,,,
,,,,,,60ed860a659535471b66e909,62bbfd986e16f86e54766a1a,2022-06-29_09h22.53.576,Colour_Asymmetry_Pilot,2022.1.3,Win32,59.58055291,62bbe60bf3d75ef465d3e404,0,125,125,73,1,onethree,,,,,,,,,,,,,,,,,,,,,,,,,,,,,,,,,,,,,,,,,,,,,,,,,,,,,,,,,,,,,,,,,,,,,,,,,,,,,,,,,,,,,,,,,,,,,,,,,,,,,,,,,,,,,,,,,,,,,,,,,,,,,,,,,,,,,,,,,,,,,,,,,,,,,,,,
,,,,,,60ed860a659535471b66e909,62bbfd986e16f86e54766a1a,2022-06-29_09h22.53.576,Colour_Asymmetry_Pilot,2022.1.3,Win32,59.58055291,62bbe60bf3d75ef465d3e404,0,126,126,117,1,threefour,,,,,,,,,,,,,,,,,,,,,,,,,,,,,,,,,,,,,,,,,,,,,,,,,,,,,,,,,,,,,,,,,,,,,,,,,,,,,,,,,,,,,,,,,,,,,,,,,,,,,,,,,,,,,,,,,,,,,,,,,,,,,,,,,,,,,,,,,,,,,,,,,,,,,,,,
,,,,,,60ed860a659535471b66e909,62bbfd986e16f86e54766a1a,2022-06-29_09h22.53.576,Colour_Asymmetry_Pilot,2022.1.3,Win32,59.58055291,62bbe60bf3d75ef465d3e404,0,127,127,26,1,twoone,,,,,,,,,,,,,,,,,,,,,,,,,,,,,,,,,,,,,,,,,,,,,,,,,,,,,,,,,,,,,,,,,,,,,,,,,,,,,,,,,,,,,,,,,,,,,,,,,,,,,,,,,,,,,,,,,,,,,,,,,,,,,,,,,,,,,,,,,,,,,,,,,,,,,,,,
,,,,,,60ed860a659535471b66e909,62bbfd986e16f86e54766a1a,2022-06-29_09h22.53.576,Colour_Asymmetry_Pilot,2022.1.3,Win32,59.58055291,62bbe60bf3d75ef465d3e404,0,128,128,156,1,threeone,,,,,,,,,,,,,,,,,,,,,,,,,,,,,,,,,,,,,,,,,,,,,,,,,,,,,,,,,,,,,,,,,,,,,,,,,,,,,,,,,,,,,,,,,,,,,,,,,,,,,,,,,,,,,,,,,,,,,,,,,,,,,,,,,,,,,,,,,,,,,,,,,,,,,,,,
,,,,,,60ed860a659535471b66e909,62bbfd986e16f86e54766a1a,2022-06-29_09h22.53.576,Colour_Asymmetry_Pilot,2022.1.3,Win32,59.58055291,62bbe60bf3d75ef465d3e404,0,129,129,9,1,onethree,,,,,,,,,,,,,,,,,,,,,,,,,,,,,,,,,,,,,,,,,,,,,,,,,,,,,,,,,,,,,,,,,,,,,,,,,,,,,,,,,,,,,,,,,,,,,,,,,,,,,,,,,,,,,,,,,,,,,,,,,,,,,,,,,,,,,,,,,,,,,,,,,,,,,,,,
,,,,,,60ed860a659535471b66e909,62bbfd986e16f86e54766a1a,2022-06-29_09h22.53.576,Colour_Asymmetry_Pilot,2022.1.3,Win32,59.58055291,62bbe60bf3d75ef465d3e404,0,130,130,101,1,threefour,,,,,,,,,,,,,,,,,,,,,,,,,,,,,,,,,,,,,,,,,,,,,,,,,,,,,,,,,,,,,,,,,,,,,,,,,,,,,,,,,,,,,,,,,,,,,,,,,,,,,,,,,,,,,,,,,,,,,,,,,,,,,,,,,,,,,,,,,,,,,,,,,,,,,,,,
,,,,,,60ed860a659535471b66e909,62bbfd986e16f86e54766a1a,2022-06-29_09h22.53.576,Colour_Asymmetry_Pilot,2022.1.3,Win32,59.58055291,62bbe60bf3d75ef465d3e404,0,131,131,87,1,fourthree,,,,,,,,,,,,,,,,,,,,,,,,,,,,,,,,,,,,,,,,,,,,,,,,,,,,,,,,,,,,,,,,,,,,,,,,,,,,,,,,,,,,,,,,,,,,,,,,,,,,,,,,,,,,,,,,,,,,,,,,,,,,,,,,,,,,,,,,,,,,,,,,,,,,,,,,
,,,,,,60ed860a659535471b66e909,62bbfd986e16f86e54766a1a,2022-06-29_09h22.53.576,Colour_Asymmetry_Pilot,2022.1.3,Win32,59.58055291,62bbe60bf3d75ef465d3e404,0,132,132,65,1,onethree,,,,,,,,,,,,,,,,,,,,,,,,,,,,,,,,,,,,,,,,,,,,,,,,,,,,,,,,,,,,,,,,,,,,,,,,,,,,,,,,,,,,,,,,,,,,,,,,,,,,,,,,,,,,,,,,,,,,,,,,,,,,,,,,,,,,,,,,,,,,,,,,,,,,,,,,
,,,,,,60ed860a659535471b66e909,62bbfd986e16f86e54766a1a,2022-06-29_09h22.53.576,Colour_Asymmetry_Pilot,2022.1.3,Win32,59.58055291,62bbe60bf3d75ef465d3e404,0,133,133,15,1,fourthree,,,,,,,,,,,,,,,,,,,,,,,,,,,,,,,,,,,,,,,,,,,,,,,,,,,,,,,,,,,,,,,,,,,,,,,,,,,,,,,,,,,,,,,,,,,,,,,,,,,,,,,,,,,,,,,,,,,,,,,,,,,,,,,,,,,,,,,,,,,,,,,,,,,,,,,,
,,,,,,60ed860a659535471b66e909,62bbfd986e16f86e54766a1a,2022-06-29_09h22.53.576,Colour_Asymmetry_Pilot,2022.1.3,Win32,59.58055291,62bbe60bf3d75ef465d3e404,0,134,134,83,1,twofour,,,,,,,,,,,,,,,,,,,,,,,,,,,,,,,,,,,,,,,,,,,,,,,,,,,,,,,,,,,,,,,,,,,,,,,,,,,,,,,,,,,,,,,,,,,,,,,,,,,,,,,,,,,,,,,,,,,,,,,,,,,,,,,,,,,,,,,,,,,,,,,,,,,,,,,,
,,,,,,60ed860a659535471b66e909,62bbfd986e16f86e54766a1a,2022-06-29_09h22.53.576,Colour_Asymmetry_Pilot,2022.1.3,Win32,59.58055291,62bbe60bf3d75ef465d3e404,0,135,135,84,1,threeone,,,,,,,,,,,,,,,,,,,,,,,,,,,,,,,,,,,,,,,,,,,,,,,,,,,,,,,,,,,,,,,,,,,,,,,,,,,,,,,,,,,,,,,,,,,,,,,,,,,,,,,,,,,,,,,,,,,,,,,,,,,,,,,,,,,,,,,,,,,,,,,,,,,,,,,,
,,,,,,60ed860a659535471b66e909,62bbfd986e16f86e54766a1a,2022-06-29_09h22.53.576,Colour_Asymmetry_Pilot,2022.1.3,Win32,59.58055291,62bbe60bf3d75ef465d3e404,0,136,136,3,1,twofour,,,,,,,,,,,,,,,,,,,,,,,,,,,,,,,,,,,,,,,,,,,,,,,,,,,,,,,,,,,,,,,,,,,,,,,,,,,,,,,,,,,,,,,,,,,,,,,,,,,,,,,,,,,,,,,,,,,,,,,,,,,,,,,,,,,,,,,,,,,,,,,,,,,,,,,,
,,,,,,60ed860a659535471b66e909,62bbfd986e16f86e54766a1a,2022-06-29_09h22.53.576,Colour_Asymmetry_Pilot,2022.1.3,Win32,59.58055291,62bbe60bf3d75ef465d3e404,0,137,137,86,1,fourtwo,,,,,,,,,,,,,,,,,,,,,,,,,,,,,,,,,,,,,,,,,,,,,,,,,,,,,,,,,,,,,,,,,,,,,,,,,,,,,,,,,,,,,,,,,,,,,,,,,,,,,,,,,,,,,,,,,,,,,,,,,,,,,,,,,,,,,,,,,,,,,,,,,,,,,,,,
,,,,,,60ed860a659535471b66e909,62bbfd986e16f86e54766a1a,2022-06-29_09h22.53.576,Colour_Asymmetry_Pilot,2022.1.3,Win32,59.58055291,62bbe60bf3d75ef465d3e404,0,138,138,99,1,twofour,,,,,,,,,,,,,,,,,,,,,,,,,,,,,,,,,,,,,,,,,,,,,,,,,,,,,,,,,,,,,,,,,,,,,,,,,,,,,,,,,,,,,,,,,,,,,,,,,,,,,,,,,,,,,,,,,,,,,,,,,,,,,,,,,,,,,,,,,,,,,,,,,,,,,,,,
,,,,,,60ed860a659535471b66e909,62bbfd986e16f86e54766a1a,2022-06-29_09h22.53.576,Colour_Asymmetry_Pilot,2022.1.3,Win32,59.58055291,62bbe60bf3d75ef465d3e404,0,139,139,69,1,threefour,,,,,,,,,,,,,,,,,,,,,,,,,,,,,,,,,,,,,,,,,,,,,,,,,,,,,,,,,,,,,,,,,,,,,,,,,,,,,,,,,,,,,,,,,,,,,,,,,,,,,,,,,,,,,,,,,,,,,,,,,,,,,,,,,,,,,,,,,,,,,,,,,,,,,,,,
,,,,,,60ed860a659535471b66e909,62bbfd986e16f86e54766a1a,2022-06-29_09h22.53.576,Colour_Asymmetry_Pilot,2022.1.3,Win32,59.58055291,62bbe60bf3d75ef465d3e404,0,140,140,58,1,twoone,,,,,,,,,,,,,,,,,,,,,,,,,,,,,,,,,,,,,,,,,,,,,,,,,,,,,,,,,,,,,,,,,,,,,,,,,,,,,,,,,,,,,,,,,,,,,,,,,,,,,,,,,,,,,,,,,,,,,,,,,,,,,,,,,,,,,,,,,,,,,,,,,,,,,,,,
,,,,,,60ed860a659535471b66e909,62bbfd986e16f86e54766a1a,2022-06-29_09h22.53.576,Colour_Asymmetry_Pilot,2022.1.3,Win32,59.58055291,62bbe60bf3d75ef465d3e404,0,141,141,147,1,twofour,,,,,,,,,,,,,,,,,,,,,,,,,,,,,,,,,,,,,,,,,,,,,,,,,,,,,,,,,,,,,,,,,,,,,,,,,,,,,,,,,,,,,,,,,,,,,,,,,,,,,,,,,,,,,,,,,,,,,,,,,,,,,,,,,,,,,,,,,,,,,,,,,,,,,,,,
,,,,,,60ed860a659535471b66e909,62bbfd986e16f86e54766a1a,2022-06-29_09h22.53.576,Colour_Asymmetry_Pilot,2022.1.3,Win32,59.58055291,62bbe60bf3d75ef465d3e404,0,142,142,95,1,fourthree,,,,,,,,,,,,,,,,,,,,,,,,,,,,,,,,,,,,,,,,,,,,,,,,,,,,,,,,,,,,,,,,,,,,,,,,,,,,,,,,,,,,,,,,,,,,,,,,,,,,,,,,,,,,,,,,,,,,,,,,,,,,,,,,,,,,,,,,,,,,,,,,,,,,,,,,
,,,,,,60ed860a659535471b66e909,62bbfd986e16f86e54766a1a,2022-06-29_09h22.53.576,Colour_Asymmetry_Pilot,2022.1.3,Win32,59.58055291,62bbe60bf3d75ef465d3e404,0,143,143,115,1,twofour,,,,,,,,,,,,,,,,,,,,,,,,,,,,,,,,,,,,,,,,,,,,,,,,,,,,,,,,,,,,,,,,,,,,,,,,,,,,,,,,,,,,,,,,,,,,,,,,,,,,,,,,,,,,,,,,,,,,,,,,,,,,,,,,,,,,,,,,,,,,,,,,,,,,,,,,
,,,,,,60ed860a659535471b66e909,62bbfd986e16f86e54766a1a,2022-06-29_09h22.53.576,Colour_Asymmetry_Pilot,2022.1.3,Win32,59.58055291,62bbe60bf3d75ef465d3e404,0,144,144,144,1,onetwo,,,,,,,,,,,,,,,,,,,,,,,,,,,,,,,,,,,,,,,,,,,,,,,,,,,,,,,,,,,,,,,,,,,,,,,,,,,,,,,,,,,,,,,,,,,,,,,,,,,,,,,,,,,,,,,,,,,,,,,,,,,,,,,,,,,,,,,,,,,,,,,,,,,,,,,,
,,,,,,60ed860a659535471b66e909,62bbfd986e16f86e54766a1a,2022-06-29_09h22.53.576,Colour_Asymmetry_Pilot,2022.1.3,Win32,59.58055291,62bbe60bf3d75ef465d3e404,0,145,145,42,1,twoone,,,,,,,,,,,,,,,,,,,,,,,,,,,,,,,,,,,,,,,,,,,,,,,,,,,,,,,,,,,,,,,,,,,,,,,,,,,,,,,,,,,,,,,,,,,,,,,,,,,,,,,,,,,,,,,,,,,,,,,,,,,,,,,,,,,,,,,,,,,,,,,,,,,,,,,,
,,,,,,60ed860a659535471b66e909,62bbfd986e16f86e54766a1a,2022-06-29_09h22.53.576,Colour_Asymmetry_Pilot,2022.1.3,Win32,59.58055291,62bbe60bf3d75ef465d3e404,0,146,146,27,1,twofour,,,,,,,,,,,,,,,,,,,,,,,,,,,,,,,,,,,,,,,,,,,,,,,,,,,,,,,,,,,,,,,,,,,,,,,,,,,,,,,,,,,,,,,,,,,,,,,,,,,,,,,,,,,,,,,,,,,,,,,,,,,,,,,,,,,,,,,,,,,,,,,,,,,,,,,,
,,,,,,60ed860a659535471b66e909,62bbfd986e16f86e54766a1a,2022-06-29_09h22.53.576,Colour_Asymmetry_Pilot,2022.1.3,Win32,59.58055291,62bbe60bf3d75ef465d3e404,0,147,147,154,1,twoone,,,,,,,,,,,,,,,,,,,,,,,,,,,,,,,,,,,,,,,,,,,,,,,,,,,,,,,,,,,,,,,,,,,,,,,,,,,,,,,,,,,,,,,,,,,,,,,,,,,,,,,,,,,,,,,,,,,,,,,,,,,,,,,,,,,,,,,,,,,,,,,,,,,,,,,,
,,,,,,60ed860a659535471b66e909,62bbfd986e16f86e54766a1a,2022-06-29_09h22.53.576,Colour_Asymmetry_Pilot,2022.1.3,Win32,59.58055291,62bbe60bf3d75ef465d3e404,0,148,148,118,1,fourtwo,,,,,,,,,,,,,,,,,,,,,,,,,,,,,,,,,,,,,,,,,,,,,,,,,,,,,,,,,,,,,,,,,,,,,,,,,,,,,,,,,,,,,,,,,,,,,,,,,,,,,,,,,,,,,,,,,,,,,,,,,,,,,,,,,,,,,,,,,,,,,,,,,,,,,,,,
,,,,,,60ed860a659535471b66e909,62bbfd986e16f86e54766a1a,2022-06-29_09h22.53.576,Colour_Asymmetry_Pilot,2022.1.3,Win32,59.58055291,62bbe60bf3d75ef465d3e404,0,149,149,139,1,twofour,,,,,,,,,,,,,,,,,,,,,,,,,,,,,,,,,,,,,,,,,,,,,,,,,,,,,,,,,,,,,,,,,,,,,,,,,,,,,,,,,,,,,,,,,,,,,,,,,,,,,,,,,,,,,,,,,,,,,,,,,,,,,,,,,,,,,,,,,,,,,,,,,,,,,,,,
,,,,,,60ed860a659535471b66e909,62bbfd986e16f86e54766a1a,2022-06-29_09h22.53.576,Colour_Asymmetry_Pilot,2022.1.3,Win32,59.58055291,62bbe60bf3d75ef465d3e404,0,150,150,126,1,fourtwo,,,,,,,,,,,,,,,,,,,,,,,,,,,,,,,,,,,,,,,,,,,,,,,,,,,,,,,,,,,,,,,,,,,,,,,,,,,,,,,,,,,,,,,,,,,,,,,,,,,,,,,,,,,,,,,,,,,,,,,,,,,,,,,,,,,,,,,,,,,,,,,,,,,,,,,,
,,,,,,60ed860a659535471b66e909,62bbfd986e16f86e54766a1a,2022-06-29_09h22.53.576,Colour_Asymmetry_Pilot,2022.1.3,Win32,59.58055291,62bbe60bf3d75ef465d3e404,0,151,151,77,1,threefour,,,,,,,,,,,,,,,,,,,,,,,,,,,,,,,,,,,,,,,,,,,,,,,,,,,,,,,,,,,,,,,,,,,,,,,,,,,,,,,,,,,,,,,,,,,,,,,,,,,,,,,,,,,,,,,,,,,,,,,,,,,,,,,,,,,,,,,,,,,,,,,,,,,,,,,,
,,,,,,60ed860a659535471b66e909,62bbfd986e16f86e54766a1a,2022-06-29_09h22.53.576,Colour_Asymmetry_Pilot,2022.1.3,Win32,59.58055291,62bbe60bf3d75ef465d3e404,0,152,152,159,1,fourthree,,,,,,,,,,,,,,,,,,,,,,,,,,,,,,,,,,,,,,,,,,,,,,,,,,,,,,,,,,,,,,,,,,,,,,,,,,,,,,,,,,,,,,,,,,,,,,,,,,,,,,,,,,,,,,,,,,,,,,,,,,,,,,,,,,,,,,,,,,,,,,,,,,,,,,,,
,,,,,,60ed860a659535471b66e909,62bbfd986e16f86e54766a1a,2022-06-29_09h22.53.576,Colour_Asymmetry_Pilot,2022.1.3,Win32,59.58055291,62bbe60bf3d75ef465d3e404,0,153,153,21,1,threefour,,,,,,,,,,,,,,,,,,,,,,,,,,,,,,,,,,,,,,,,,,,,,,,,,,,,,,,,,,,,,,,,,,,,,,,,,,,,,,,,,,,,,,,,,,,,,,,,,,,,,,,,,,,,,,,,,,,,,,,,,,,,,,,,,,,,,,,,,,,,,,,,,,,,,,,,
,,,,,,60ed860a659535471b66e909,62bbfd986e16f86e54766a1a,2022-06-29_09h22.53.576,Colour_Asymmetry_Pilot,2022.1.3,Win32,59.58055291,62bbe60bf3d75ef465d3e404,0,154,154,131,1,twofour,,,,,,,,,,,,,,,,,,,,,,,,,,,,,,,,,,,,,,,,,,,,,,,,,,,,,,,,,,,,,,,,,,,,,,,,,,,,,,,,,,,,,,,,,,,,,,,,,,,,,,,,,,,,,,,,,,,,,,,,,,,,,,,,,,,,,,,,,,,,,,,,,,,,,,,,
,,,,,,60ed860a659535471b66e909,62bbfd986e16f86e54766a1a,2022-06-29_09h22.53.576,Colour_Asymmetry_Pilot,2022.1.3,Win32,59.58055291,62bbe60bf3d75ef465d3e404,0,155,155,96,1,onetwo,,,,,,,,,,,,,,,,,,,,,,,,,,,,,,,,,,,,,,,,,,,,,,,,,,,,,,,,,,,,,,,,,,,,,,,,,,,,,,,,,,,,,,,,,,,,,,,,,,,,,,,,,,,,,,,,,,,,,,,,,,,,,,,,,,,,,,,,,,,,,,,,,,,,,,,,
,,,,,,60ed860a659535471b66e909,62bbfd986e16f86e54766a1a,2022-06-29_09h22.53.576,Colour_Asymmetry_Pilot,2022.1.3,Win32,59.58055291,62bbe60bf3d75ef465d3e404,0,156,156,37,1,threefour,,,,,,,,,,,,,,,,,,,,,,,,,,,,,,,,,,,,,,,,,,,,,,,,,,,,,,,,,,,,,,,,,,,,,,,,,,,,,,,,,,,,,,,,,,,,,,,,,,,,,,,,,,,,,,,,,,,,,,,,,,,,,,,,,,,,,,,,,,,,,,,,,,,,,,,,
,,,,,,60ed860a659535471b66e909,62bbfd986e16f86e54766a1a,2022-06-29_09h22.53.576,Colour_Asymmetry_Pilot,2022.1.3,Win32,59.58055291,62bbe60bf3d75ef465d3e404,0,157,157,133,1,threefour,,,,,,,,,,,,,,,,,,,,,,,,,,,,,,,,,,,,,,,,,,,,,,,,,,,,,,,,,,,,,,,,,,,,,,,,,,,,,,,,,,,,,,,,,,,,,,,,,,,,,,,,,,,,,,,,,,,,,,,,,,,,,,,,,,,,,,,,,,,,,,,,,,,,,,,,
,,,,,,60ed860a659535471b66e909,62bbfd986e16f86e54766a1a,2022-06-29_09h22.53.576,Colour_Asymmetry_Pilot,2022.1.3,Win32,59.58055291,62bbe60bf3d75ef465d3e404,0,158,158,104,1,onetwo,,,,,,,,,,,,,,,,,,,,,,,,,,,,,,,,,,,,,,,,,,,,,,,,,,,,,,,,,,,,,,,,,,,,,,,,,,,,,,,,,,,,,,,,,,,,,,,,,,,,,,,,,,,,,,,,,,,,,,,,,,,,,,,,,,,,,,,,,,,,,,,,,,,,,,,,
,,,,,,60ed860a659535471b66e909,62bbfd986e16f86e54766a1a,2022-06-29_09h22.53.576,Colour_Asymmetry_Pilot,2022.1.3,Win32,59.58055291,62bbe60bf3d75ef465d3e404,0,159,159,121,1,onethree,,,,,,,,,,,,,,,,,,,,,,,,,,,,,,,,,,,,,,,,,,,,,,,,,,,,,,,,,,,,,,,,,,,,,,,,,,,,,,,,,,,,,,,,,,,,,,,,,,,,,,,,,,,,,,,,,,,,,,,,,,,,,,,,,,,,,,,,,,,,,,,,,,,,,,,,
,,,,,,60ed860a659535471b66e909,62bbfd986e16f86e54766a1a,2022-06-29_09h22.53.576,Colour_Asymmetry_Pilot,2022.1.3,Win32,59.58055291,62bbe60bf3d75ef465d3e404,0,160,160,112,1,onetwo,,,,,,,,,,,,,,,,,,,,,,,,,,,,,,,,,,,,,,,,,,,,,,,,,,,,,,,,,,,,,,,,,,,,,,,,,,,,,,,,,,,,,,,,,,,,,,,,,,,,,,,,,,,,,,,,,,,,,,,,,,,,,,,,,,,,,,,,,,,,,,,,,,,,,,,,
,,,,,,60ed860a659535471b66e909,62bbfd986e16f86e54766a1a,2022-06-29_09h22.53.576,Colour_Asymmetry_Pilot,2022.1.3,Win32,59.58055291,62bbe60bf3d75ef465d3e404,0,161,161,113,1,onethree,,,,,,,,,,,,,,,,,,,,,,,,,,,,,,,,,,,,,,,,,,,,,,,,,,,,,,,,,,,,,,,,,,,,,,,,,,,,,,,,,,,,,,,,,,,,,,,,,,,,,,,,,,,,,,,,,,,,,,,,,,,,,,,,,,,,,,,,,,,,,,,,,,,,,,,,
,,,,,,60ed860a659535471b66e909,62bbfd986e16f86e54766a1a,2022-06-29_09h22.53.576,Colour_Asymmetry_Pilot,2022.1.3,Win32,59.58055291,62bbe60bf3d75ef465d3e404,,,,,,,space,3.0078,space,10.2535,space,27.6888,space,11.0127,space,3.5743,space,4.0468,"[-0.011800000000000033,-0.906,-0.45100000000000007]",fourthree,"[0.9372,0.20779999999999998,0.2704]",4,18.0589,41,87,1,0,0,response1disk_5,-5,4,1,0,0,rectangle_8,-5,4,1,0,0,2,-5,4,1,0,0,0,0,0,0,1,,,,,,,,,,,,,,,,,,,,,,,,,,,,,,,,,,,,,,,,,,,,,,,,,,,,,,,,,,,,,,,,,,,,,,,,,,,,,,,,,,,,,,,,,,,,,,,,,,,,,,,,,,,
,,,,,,60ed860a659535471b66e909,62bbfd986e16f86e54766a1a,2022-06-29_09h22.53.576,Colour_Asymmetry_Pilot,2022.1.3,Win32,59.58055291,62bbe60bf3d75ef465d3e404,,,,,,,,,,,,,,,,,,,"[0.09799999999999986,-0.24719999999999998,0.15280000000000005]",fourtwo,"[-0.9216,-0.5529999999999999,-0.3962]",-4,3.3922,-41,89,1,0,0,response7disk_5,-6,9,1,0,0,rectangle_8,-6,9,1,0,0,2,-6,9,1,0,0,1,0,1,0,1,,,,,,,,,,,,,,,,,,,,,,,,,,,,,,,,,,,,,,,,,,,,,,,,,,,,,,,,,,,,,,,,,,,,,,,,,,,,,,,,,,,,,,,,,,,,,,,,,,,,,,,,,,,
,,,,,,60ed860a659535471b66e909,62bbfd986e16f86e54766a1a,2022-06-29_09h22.53.576,Colour_Asymmetry_Pilot,2022.1.3,Win32,59.58055291,62bbe60bf3d75ef465d3e404,,,,,,,,,,,,,,,,,,,"[0.7018,0.7176,0.6155999999999999]",onetwo,"[-0.9844,-0.9688,-0.9922]",-4,1.6042,-38,93,1,0,0,response7disk_5,-10,4,1,0,0,rectangle_8,77,-38,1,0,0,2,-3,4,1,0,0,2,0,2,0,1,response3disk_7,5,rectangle_4,,,,,,,,,,,,,,,,,,,,,,,,,,,,,,,,,,,,,,,,,,,,,,,,,,,,,,,,,,,,,,,,,,,,,,,,,,,,,,,,,,,,,,,,,,,,,,,,,,,,,,,,
,,,,,,60ed860a659535471b66e909,62bbfd986e16f86e54766a1a,2022-06-29_09h22.53.576,Colour_Asymmetry_Pilot,2022.1.3,Win32,59.58055291,62bbe60bf3d75ef465d3e404,,,,,,,,,,,,,,,,,,,"[-0.6,0.16860000000000008,0.44300000000000006]",fourthree,"[-0.6235999999999999,-0.6786,-0.08239999999999992]",4,1.8633,26,82,1,0,0,response1disk_5,0,4,1,0,0,rectangle_8,0,4,1,0,0,2,0,4,1,0,0,3,0,3,0,1,,,,,,,,,,,,,,,,,,,,,,,,,,,,,,,,,,,,,,,,,,,,,,,,,,,,,,,,,,,,,,,,,,,,,,,,,,,,,,,,,,,,,,,,,,,,,,,,,,,,,,,,,,,
,,,,,,60ed860a659535471b66e909,62bbfd986e16f86e54766a1a,2022-06-29_09h22.53.576,Colour_Asymmetry_Pilot,2022.1.3,Win32,59.58055291,62bbe60bf3d75ef465d3e404,,,,,,,,,,,,,,,,,,,"[0.7802,-0.23140000000000005,-0.20799999999999996]",threeone,"[-0.050999999999999934,-0.6706000000000001,-0.804]",4,1.7047,47,80,1,0,0,response1disk_5,11,-6,1,0,0,rectangle_8,83,-58,1,0,0,2,15,2,1,0,0,4,0,4,0,1,response3disk_7,5,rectangle_4,,,,,,,,,,,,,,,,,,,,,,,,,,,,,,,,,,,,,,,,,,,,,,,,,,,,,,,,,,,,,,,,,,,,,,,,,,,,,,,,,,,,,,,,,,,,,,,,,,,,,,,,
,,,,,,60ed860a659535471b66e909,62bbfd986e16f86e54766a1a,2022-06-29_09h22.53.576,Colour_Asymmetry_Pilot,2022.1.3,Win32,59.58055291,62bbe60bf3d75ef465d3e404,,,,,,,,,,,,,,,,,,,"[0.9372,0.20779999999999998,0.2704]",fourthree,"[-0.17659999999999998,-0.2864,-0.8354]",-4,2.6414,-59,101,1,0,0,response7disk_5,7,1,1,0,0,rectangle_8,7,1,1,0,0,2,7,1,1,0,0,5,0,5,0,1,,,,,,,,,,,,,,,,,,,,,,,,,,,,,,,,,,,,,,,,,,,,,,,,,,,,,,,,,,,,,,,,,,,,,,,,,,,,,,,,,,,,,,,,,,,,,,,,,,,,,,,,,,,
,,,,,,60ed860a659535471b66e909,62bbfd986e16f86e54766a1a,2022-06-29_09h22.53.576,Colour_Asymmetry_Pilot,2022.1.3,Win32,59.58055291,62bbe60bf3d75ef465d3e404,,,,,,,,,,,,,,,,,,,"[-0.4276,0.0038000000000000256,-0.3256]",onetwo,"[-0.07459999999999989,0.12139999999999995,-0.9922]",4,1.48,30,87,1,0,0,response1disk_5,9,14,1,0,0,rectangle_8,9,14,1,0,0,2,9,14,1,0,0,6,0,6,0,1,,,,,,,,,,,,,,,,,,,,,,,,,,,,,,,,,,,,,,,,,,,,,,,,,,,,,,,,,,,,,,,,,,,,,,,,,,,,,,,,,,,,,,,,,,,,,,,,,,,,,,,,,,,
,,,,,,60ed860a659535471b66e909,62bbfd986e16f86e54766a1a,2022-06-29_09h22.53.576,Colour_Asymmetry_Pilot,2022.1.3,Win32,59.58055291,62bbe60bf3d75ef465d3e404,,,,,,,,,,,,,,,,,,,,fourtwo,,4,2.3412,,,,,,,,,,,,,,,,,,,,,,,,,,,,,,,,space,69.9358,"[0.5528,0.7409999999999999,-0.71]","[-0.45899999999999996,-0.3256,-0.9374]",30,89,1,0,0,response1disk,4,3,1,0,0,rectangle,4,3,1,0,0,,2,0.0045,0,4,3,1,0,0,0,0,0,17,1,17,first,,,,,,,,,,,,,,,,,,,,,,,,,,,,,,,,,,,,,,,,,,,,,,,,,,,,,,,,,,,,,,,,,,,
,,,,,,60ed860a659535471b66e909,62bbfd986e16f86e54766a1a,2022-06-29_09h22.53.576,Colour_Asymmetry_Pilot,2022.1.3,Win32,59.58055291,62bbe60bf3d75ef465d3e404,,,,,,,,,,,,,,,,,,,,onethree,,-4,1.1955,,,,,,,,,,,,,,,,,,,,,,,,,,,,,,,,,,"[-0.9766,-0.6472,0.07440000000000002]","[-0.20799999999999996,-0.655,-0.01980000000000004]",-47,64,1,0,0,response7disk,-15,13,1,0,0,rectangle,59,41,1,0,0,3,3,5.0128,1,4,3,1,0,0,0,1,1,159,1,78,second,response1disk_3,rectangle,,,,,,,,,,,,,,,,,,,,,,,,,,,,,,,,,,,,,,,,,,,,,,,,,,,,,,,,,,,,,,,,,
,,,,,,60ed860a659535471b66e909,62bbfd986e16f86e54766a1a,2022-06-29_09h22.53.576,Colour_Asymmetry_Pilot,2022.1.3,Win32,59.58055291,62bbe60bf3d75ef465d3e404,,,,,,,,,,,,,,,,,,,,twoone,,4,2.5904,,,,,,,,,,,,,,,,,,,,,,,,,,,,,,,,,,"[-0.9688,-0.7412000000000001,-0.4902000000000001]","[0.05879999999999996,0.2784,0.5841999999999998]",32,85,1,0,0,response1disk,-1,11,1,0,0,rectangle,-1,11,1,0,0,3,2,0.0011,0,-1,11,1,0,0,0,2,2,101,1,20,second,,,,,,,,,,,,,,,,,,,,,,,,,,,,,,,,,,,,,,,,,,,,,,,,,,,,,,,,,,,,,,,,,,,
,,,,,,60ed860a659535471b66e909,62bbfd986e16f86e54766a1a,2022-06-29_09h22.53.576,Colour_Asymmetry_Pilot,2022.1.3,Win32,59.58055291,62bbe60bf3d75ef465d3e404,,,,,,,,,,,,,,,,,,,,twofour,,-4,1.4207,,,,,,,,,,,,,,,,,,,,,,,,,,,,,,,,,,"[0.9372,0.20779999999999998,0.2704]","[0.9763999999999999,-0.1137999999999999,-0.6314]",-50,87,1,0,0,response7disk,-2,7,1,0,0,rectangle,-2,7,1,0,0,3,2,0.0003,0,-2,7,1,0,0,0,3,3,84,1,3,second,,,,,,,,,,,,,,,,,,,,,,,,,,,,,,,,,,,,,,,,,,,,,,,,,,,,,,,,,,,,,,,,,,,
,,,,,,60ed860a659535471b66e909,62bbfd986e16f86e54766a1a,2022-06-29_09h22.53.576,Colour_Asymmetry_Pilot,2022.1.3,Win32,59.58055291,62bbe60bf3d75ef465d3e404,,,,,,,,,,,,,,,,,,,,onethree,,4,0.9878,,,,,,,,,,,,,,,,,,,,,,,,,,,,,,,,,,"[-0.9766,-0.6472,0.07440000000000002]","[-0.5452,-0.608,0.2470000000000001]",41,94,1,0,0,response1disk,-5,0,1,0,0,rectangle,-5,0,1,0,0,3,3,0.0014,0,-5,0,1,0,0,0,4,4,6,1,6,first,,,,,,,,,,,,,,,,,,,,,,,,,,,,,,,,,,,,,,,,,,,,,,,,,,,,,,,,,,,,,,,,,,,
,,,,,,60ed860a659535471b66e909,62bbfd986e16f86e54766a1a,2022-06-29_09h22.53.576,Colour_Asymmetry_Pilot,2022.1.3,Win32,59.58055291,62bbe60bf3d75ef465d3e404,,,,,,,,,,,,,,,,,,,,onetwo,,-4,1.1028,,,,,,,,,,,,,,,,,,,,,,,,,,,,,,,,,,"[-0.2942,-0.7648,-0.7492000000000001]","[0.2784,-0.31000000000000005,-0.5452]",-30,45,1,0,0,response7disk,-8,9,1,0,0,rectangle,-8,9,1,0,0,3,1,0.0009,0,-8,9,1,0,0,0,5,5,41,1,41,first,,,,,,,,,,,,,,,,,,,,,,,,,,,,,,,,,,,,,,,,,,,,,,,,,,,,,,,,,,,,,,,,,,,
,,,,,,60ed860a659535471b66e909,62bbfd986e16f86e54766a1a,2022-06-29_09h22.53.576,Colour_Asymmetry_Pilot,2022.1.3,Win32,59.58055291,62bbe60bf3d75ef465d3e404,,,,,,,,,,,,,,,,,,,,twoone,,-4,0.9026,,,,,,,,,,,,,,,,,,,,,,,,,,,,,,,,,,"[0.9213999999999998,0.6391999999999998,-0.9922]","[-0.2942,-0.24719999999999998,-0.357]",-32,68,1,0,0,response7disk,-2,-12,1,0,0,rectangle,-2,-12,1,0,0,3,3,0.0008,0,-2,-12,1,0,0,0,6,6,139,1,58,second,,,,,,,,,,,,,,,,,,,,,,,,,,,,,,,,,,,,,,,,,,,,,,,,,,,,,,,,,,,,,,,,,,,
,,,,,,60ed860a659535471b66e909,62bbfd986e16f86e54766a1a,2022-06-29_09h22.53.576,Colour_Asymmetry_Pilot,2022.1.3,Win32,59.58055291,62bbe60bf3d75ef465d3e404,,,,,,,,,,,,,,,,,,,,onethree,,4,0.8547,,,,,,,,,,,,,,,,,,,,,,,,,,,,,,,,,,"[-0.09019999999999995,0.44300000000000006,0.5371999999999999]","[0.05879999999999996,0.2784,0.5841999999999998]",48,83,1,0,0,response1disk,7,4,1,0,0,rectangle,7,4,1,0,0,3,3,0.0003,0,7,4,1,0,0,0,7,7,125,1,44,second,,,,,,,,,,,,,,,,,,,,,,,,,,,,,,,,,,,,,,,,,,,,,,,,,,,,,,,,,,,,,,,,,,,
,,,,,,60ed860a659535471b66e909,62bbfd986e16f86e54766a1a,2022-06-29_09h22.53.576,Colour_Asymmetry_Pilot,2022.1.3,Win32,59.58055291,62bbe60bf3d75ef465d3e404,,,,,,,,,,,,,,,,,,,,onethree,,-4,1.2867,,,,,,,,,,,,,,,,,,,,,,,,,,,,,,,,,,"[0.09799999999999986,-0.24719999999999998,0.15280000000000005]","[0.3881999999999999,-0.23939999999999995,-0.05040000000000011]",-35,60,1,0,0,response7disk,-7,1,1,0,0,rectangle,-7,1,1,0,0,3,3,0.0003,0,-7,1,1,0,0,0,8,8,37,1,37,first,,,,,,,,,,,,,,,,,,,,,,,,,,,,,,,,,,,,,,,,,,,,,,,,,,,,,,,,,,,,,,,,,,,
,,,,,,60ed860a659535471b66e909,62bbfd986e16f86e54766a1a,2022-06-29_09h22.53.576,Colour_Asymmetry_Pilot,2022.1.3,Win32,59.58055291,62bbe60bf3d75ef465d3e404,,,,,,,,,,,,,,,,,,,,onetwo,,4,1.3872,,,,,,,,,,,,,,,,,,,,,,,,,,,,,,,,,,"[0.6625999999999999,0.4980000000000002,-0.357]","[0.9686000000000001,0.5763999999999998,0.11359999999999992]",39,85,1,0,0,response1disk,11,-1,1,0,0,rectangle,11,-1,1,0,0,3,1,0.0007,0,11,-1,1,0,0,0,9,9,112,1,31,second,,,,,,,,,,,,,,,,,,,,,,,,,,,,,,,,,,,,,,,,,,,,,,,,,,,,,,,,,,,,,,,,,,,
,,,,,,60ed860a659535471b66e909,62bbfd986e16f86e54766a1a,2022-06-29_09h22.53.576,Colour_Asymmetry_Pilot,2022.1.3,Win32,59.58055291,62bbe60bf3d75ef465d3e404,,,,,,,,,,,,,,,,,,,,fourthree,,-4,1.2367,,,,,,,,,,,,,,,,,,,,,,,,,,,,,,,,,,"[0.6625999999999999,0.4980000000000002,-0.357]","[-0.01980000000000004,-0.5138,-0.38039999999999996]",-35,80,1,0,0,response7disk,1,3,1,0,0,rectangle,1,3,1,0,0,3,2,0.0011,0,1,3,1,0,0,0,10,10,19,1,19,first,,,,,,,,,,,,,,,,,,,,,,,,,,,,,,,,,,,,,,,,,,,,,,,,,,,,,,,,,,,,,,,,,,,
,,,,,,60ed860a659535471b66e909,62bbfd986e16f86e54766a1a,2022-06-29_09h22.53.576,Colour_Asymmetry_Pilot,2022.1.3,Win32,59.58055291,62bbe60bf3d75ef465d3e404,,,,,,,,,,,,,,,,,,,,onetwo,,-4,1.1699,,,,,,,,,,,,,,,,,,,,,,,,,,,,,,,,,,"[0.30180000000000007,-0.7884,-0.9844]","[-0.30200000000000005,0.14500000000000002,0.2784]",-34,68,1,0,0,response7disk,-9,-7,1,0,0,rectangle,-9,-7,1,0,0,3,2,0.0003,0,-9,-7,1,0,0,0,11,11,107,1,26,second,,,,,,,,,,,,,,,,,,,,,,,,,,,,,,,,,,,,,,,,,,,,,,,,,,,,,,,,,,,,,,,,,,,
,,,,,,60ed860a659535471b66e909,62bbfd986e16f86e54766a1a,2022-06-29_09h22.53.576,Colour_Asymmetry_Pilot,2022.1.3,Win32,59.58055291,62bbe60bf3d75ef465d3e404,,,,,,,,,,,,,,,,,,,,threeone,,-4,0.8683,,,,,,,,,,,,,,,,,,,,,,,,,,,,,,,,,,"[0.3881999999999999,-0.23939999999999995,-0.05040000000000011]","[0.37240000000000006,0.4980000000000002,-0.2864]",-52,74,1,0,0,response7disk,-6,-4,1,0,0,rectangle,-6,-4,1,0,0,3,1,0.0008,0,-6,-4,1,0,0,0,12,12,149,1,68,second,,,,,,,,,,,,,,,,,,,,,,,,,,,,,,,,,,,,,,,,,,,,,,,,,,,,,,,,,,,,,,,,,,,
,,,,,,60ed860a659535471b66e909,62bbfd986e16f86e54766a1a,2022-06-29_09h22.53.576,Colour_Asymmetry_Pilot,2022.1.3,Win32,59.58055291,62bbe60bf3d75ef465d3e404,,,,,,,,,,,,,,,,,,,,threefour,,-4,0.8691,,,,,,,,,,,,,,,,,,,,,,,,,,,,,,,,,,"[-0.8118,-0.8198,-0.5452]","[0.34099999999999997,0.5841999999999998,-0.9844]",-40,69,1,0,0,response7disk,6,5,1,0,0,rectangle,6,5,1,0,0,3,1,1E-04,0,6,5,1,0,0,0,13,13,66,1,66,first,,,,,,,,,,,,,,,,,,,,,,,,,,,,,,,,,,,,,,,,,,,,,,,,,,,,,,,,,,,,,,,,,,,
,,,,,,60ed860a659535471b66e909,62bbfd986e16f86e54766a1a,2022-06-29_09h22.53.576,Colour_Asymmetry_Pilot,2022.1.3,Win32,59.58055291,62bbe60bf3d75ef465d3e404,,,,,,,,,,,,,,,,,,,,twofour,,4,1.8553,,,,,,,,,,,,,,,,,,,,,,,,,,,,,,,,,,"[0.05879999999999996,0.2784,0.5841999999999998]","[-0.9688,-0.7412000000000001,-0.4902000000000001]",29,77,1,0,0,response1disk,-4,8,1,0,0,rectangle,-4,8,1,0,0,3,1,0.0002,0,-4,8,1,0,0,0,14,14,20,1,20,first,,,,,,,,,,,,,,,,,,,,,,,,,,,,,,,,,,,,,,,,,,,,,,,,,,,,,,,,,,,,,,,,,,,
,,,,,,60ed860a659535471b66e909,62bbfd986e16f86e54766a1a,2022-06-29_09h22.53.576,Colour_Asymmetry_Pilot,2022.1.3,Win32,59.58055291,62bbe60bf3d75ef465d3e404,,,,,,,,,,,,,,,,,,,,fourtwo,,-4,0.7522,,,,,,,,,,,,,,,,,,,,,,,,,,,,,,,,,,"[0.5449999999999999,-0.31000000000000005,-0.0354000000000001]","[-0.6942,-0.7648,-0.12959999999999994]",-39,55,1,0,0,response7disk,-2,-3,1,0,0,rectangle,-2,-3,1,0,0,3,2,0.0008,0,-2,-3,1,0,0,0,15,15,39,1,39,first,,,,,,,,,,,,,,,,,,,,,,,,,,,,,,,,,,,,,,,,,,,,,,,,,,,,,,,,,,,,,,,,,,,
,,,,,,60ed860a659535471b66e909,62bbfd986e16f86e54766a1a,2022-06-29_09h22.53.576,Colour_Asymmetry_Pilot,2022.1.3,Win32,59.58055291,62bbe60bf3d75ef465d3e404,,,,,,,,,,,,,,,,,,,,fourtwo,,-4,0.6864,,,,,,,,,,,,,,,,,,,,,,,,,,,,,,,,,,"[-0.5688,-0.08239999999999992,-0.1844]","[0.3802000000000001,0.19199999999999995,-0.6394]",-29,65,1,0,0,response7disk,4,-5,1,0,0,rectangle,4,-5,1,0,0,3,2,0.0003,0,4,-5,1,0,0,0,16,16,83,1,2,second,,,,,,,,,,,,,,,,,,,,,,,,,,,,,,,,,,,,,,,,,,,,,,,,,,,,,,,,,,,,,,,,,,,
,,,,,,60ed860a659535471b66e909,62bbfd986e16f86e54766a1a,2022-06-29_09h22.53.576,Colour_Asymmetry_Pilot,2022.1.3,Win32,59.58055291,62bbe60bf3d75ef465d3e404,,,,,,,,,,,,,,,,,,,,fourthree,,4,0.7857,,,,,,,,,,,,,,,,,,,,,,,,,,,,,,,,,,"[-0.07459999999999989,0.12139999999999995,-0.9922]","[-0.4902000000000001,0.2704,-0.45899999999999996]",54,74,1,0,0,response1disk,7,4,1,0,0,rectangle,7,4,1,0,0,3,1,0.0009,0,7,4,1,0,0,0,17,17,86,1,5,second,,,,,,,,,,,,,,,,,,,,,,,,,,,,,,,,,,,,,,,,,,,,,,,,,,,,,,,,,,,,,,,,,,,
,,,,,,60ed860a659535471b66e909,62bbfd986e16f86e54766a1a,2022-06-29_09h22.53.576,Colour_Asymmetry_Pilot,2022.1.3,Win32,59.58055291,62bbe60bf3d75ef465d3e404,,,,,,,,,,,,,,,,,,,,threeone,,4,0.8543,,,,,,,,,,,,,,,,,,,,,,,,,,,,,,,,,,"[0.5528,0.7409999999999999,-0.71]","[-0.07459999999999989,0.12139999999999995,-0.9922]",34,66,1,0,0,response1disk,-4,0,1,0,0,rectangle,-4,0,1,0,0,3,2,0.0009,0,-4,0,1,0,0,0,18,18,116,1,35,second,,,,,,,,,,,,,,,,,,,,,,,,,,,,,,,,,,,,,,,,,,,,,,,,,,,,,,,,,,,,,,,,,,,
,,,,,,60ed860a659535471b66e909,62bbfd986e16f86e54766a1a,2022-06-29_09h22.53.576,Colour_Asymmetry_Pilot,2022.1.3,Win32,59.58055291,62bbe60bf3d75ef465d3e404,,,,,,,,,,,,,,,,,,,,fourthree,,-4,1.6045,,,,,,,,,,,,,,,,,,,,,,,,,,,,,,,,,,"[0.8274000000000001,-0.5844,-0.9452]","[-0.5688,-0.08239999999999992,-0.1844]",-25,53,1,0,0,response7disk,-10,1,1,0,0,rectangle,-10,1,1,0,0,3,1,0.001,0,-10,1,1,0,0,0,19,19,80,1,80,first,,,,,,,,,,,,,,,,,,,,,,,,,,,,,,,,,,,,,,,,,,,,,,,,,,,,,,,,,,,,,,,,,,,
,,,,,,60ed860a659535471b66e909,62bbfd986e16f86e54766a1a,2022-06-29_09h22.53.576,Colour_Asymmetry_Pilot,2022.1.3,Win32,59.58055291,62bbe60bf3d75ef465d3e404,,,,,,,,,,,,,,,,,,,,onethree,,4,2.1056,,,,,,,,,,,,,,,,,,,,,,,,,,,,,,,,,,"[-0.24719999999999998,-0.0354000000000001,0.3175999999999999]","[-0.30200000000000005,0.14500000000000002,0.2784]",34,83,1,0,0,response1disk,-2,8,1,0,0,rectangle,-2,8,1,0,0,3,3,0.0009,0,-2,8,1,0,0,0,20,20,49,1,49,first,,,,,,,,,,,,,,,,,,,,,,,,,,,,,,,,,,,,,,,,,,,,,,,,,,,,,,,,,,,,,,,,,,,
