trials.thisRepN,trials.thisTrialN,trials.thisN,trials.thisIndex,trials.ran,Colourcodes,participant,session,date,expName,psychopyVersion,OS,frameRate,study_id,trials_4.thisRepN,trials_4.thisTrialN,trials_4.thisN,trials_4.thisIndex,trials_4.ran,StimulusPos,key_resp.keys,key_resp.rt,key_resp_2.keys,key_resp_2.rt,key_resp_15.keys,key_resp_15.rt,key_resp_17.keys,key_resp_17.rt,key_resp_9.keys,key_resp_9.rt,key_resp_10.keys,key_resp_10.rt,Circle1_col,Ecc,Circle2_col,similarity,response_time,mouse_5.x,mouse_5.y,mouse_5.leftButton,mouse_5.midButton,mouse_5.rightButton,mouse_5.clicked_name,mouse_10.x,mouse_10.y,mouse_10.leftButton,mouse_10.midButton,mouse_10.rightButton,mouse_10.clicked_name,mouse_7.x,mouse_7.y,mouse_7.leftButton,mouse_7.midButton,mouse_7.rightButton,mouse_7.clicked_name,catchprac,catchnumberprac,mouse_6.x,mouse_6.y,mouse_6.leftButton,mouse_6.midButton,mouse_6.rightButton,mouse_6.clicked_name,duringprac.thisRepN,duringprac.thisTrialN,duringprac.thisN,duringprac.thisIndex,duringprac.ran,key_resp_22.keys,key_resp_22.rt,Circle1_colour,Circle2_colour,mouse.x,mouse.y,mouse.leftButton,mouse.midButton,mouse.rightButton,mouse.clicked_name,mouse_2.x,mouse_2.y,mouse_2.leftButton,mouse_2.midButton,mouse_2.rightButton,mouse_2.clicked_name,mouse_3.x,mouse_3.y,mouse_3.leftButton,mouse_3.midButton,mouse_3.rightButton,catchresponse,catchnumber,response_time_catch,Catch,mouse_11.x,mouse_11.y,mouse_11.leftButton,mouse_11.midButton,mouse_11.rightButton,trials_2.thisRepN,trials_2.thisTrialN,trials_2.thisN,trials_2.thisIndex,trials_2.ran,Colourpair,Temporder,mouse_3.clicked_name,mouse_11.clicked_name,trials_3.thisRepN,trials_3.thisTrialN,trials_3.thisN,trials_3.thisIndex,trials_3.ran,key_resp_instr_Ishi.keys,key_resp_instr_Ishi.rt,Ishi_trial_keyresp.keys,Ishi_trial_keyresp.rt,Ishi_textbox.text,Ishi_loop.thisRepN,Ishi_loop.thisTrialN,Ishi_loop.thisN,Ishi_loop.thisIndex,Ishi_loop.ran,imageaddress,textbox.text,mouse_4.x,mouse_4.y,mouse_4.leftButton,mouse_4.midButton,mouse_4.rightButton,mouse_4.clicked_name,textbox_2.text,mouse_8.x,mouse_8.y,mouse_8.leftButton,mouse_8.midButton,mouse_8.rightButton,mouse_8.clicked_name,textbox_3.text,mouse_9.x,mouse_9.y,mouse_9.leftButton,mouse_9.midButton,mouse_9.rightButton,mouse_9.clicked_name,textbox_4.text,mouse_12.x,mouse_12.y,mouse_12.leftButton,mouse_12.midButton,mouse_12.rightButton,mouse_12.clicked_name,textbox_5.text,mouse_13.x,mouse_13.y,mouse_13.leftButton,mouse_13.midButton,mouse_13.rightButton,mouse_13.clicked_name,textbox_6.text,mouse_14.x,mouse_14.y,mouse_14.leftButton,mouse_14.midButton,mouse_14.rightButton,mouse_14.clicked_name,textbox_7.text,mouse_15.x,mouse_15.y,mouse_15.leftButton,mouse_15.midButton,mouse_15.rightButton,mouse_15.clicked_name
0,0,0,54,1,,617400ff07055d954515650f,62bbf945d007ed79f0fa9496,2022-06-29_09h04.02.268,Colour_Asymmetry_Pilot,2022.1.3,Win32,60.0240096,62bbe60bf3d75ef465d3e404,,,,,,,,,,,,,,,,,,,,,,,,,,,,,,,,,,,,,,,,,,,,,,,,,,,,,,,,,,,,,,,,,,,,,,,,,,,,,,,,,,,,,,,,,,,,,,,,,,,,,,,,,,,,,,,,,,,,,,,,,,,,,,,,,,,,,,,,,,,,,,,,,,,,,,,,,,,,,,
0,1,1,43,1,,617400ff07055d954515650f,62bbf945d007ed79f0fa9496,2022-06-29_09h04.02.268,Colour_Asymmetry_Pilot,2022.1.3,Win32,60.0240096,62bbe60bf3d75ef465d3e404,,,,,,,,,,,,,,,,,,,,,,,,,,,,,,,,,,,,,,,,,,,,,,,,,,,,,,,,,,,,,,,,,,,,,,,,,,,,,,,,,,,,,,,,,,,,,,,,,,,,,,,,,,,,,,,,,,,,,,,,,,,,,,,,,,,,,,,,,,,,,,,,,,,,,,,,,,,,,,
0,2,2,47,1,,617400ff07055d954515650f,62bbf945d007ed79f0fa9496,2022-06-29_09h04.02.268,Colour_Asymmetry_Pilot,2022.1.3,Win32,60.0240096,62bbe60bf3d75ef465d3e404,,,,,,,,,,,,,,,,,,,,,,,,,,,,,,,,,,,,,,,,,,,,,,,,,,,,,,,,,,,,,,,,,,,,,,,,,,,,,,,,,,,,,,,,,,,,,,,,,,,,,,,,,,,,,,,,,,,,,,,,,,,,,,,,,,,,,,,,,,,,,,,,,,,,,,,,,,,,,,
0,3,3,41,1,,617400ff07055d954515650f,62bbf945d007ed79f0fa9496,2022-06-29_09h04.02.268,Colour_Asymmetry_Pilot,2022.1.3,Win32,60.0240096,62bbe60bf3d75ef465d3e404,,,,,,,,,,,,,,,,,,,,,,,,,,,,,,,,,,,,,,,,,,,,,,,,,,,,,,,,,,,,,,,,,,,,,,,,,,,,,,,,,,,,,,,,,,,,,,,,,,,,,,,,,,,,,,,,,,,,,,,,,,,,,,,,,,,,,,,,,,,,,,,,,,,,,,,,,,,,,,
0,4,4,91,1,,617400ff07055d954515650f,62bbf945d007ed79f0fa9496,2022-06-29_09h04.02.268,Colour_Asymmetry_Pilot,2022.1.3,Win32,60.0240096,62bbe60bf3d75ef465d3e404,,,,,,,,,,,,,,,,,,,,,,,,,,,,,,,,,,,,,,,,,,,,,,,,,,,,,,,,,,,,,,,,,,,,,,,,,,,,,,,,,,,,,,,,,,,,,,,,,,,,,,,,,,,,,,,,,,,,,,,,,,,,,,,,,,,,,,,,,,,,,,,,,,,,,,,,,,,,,,
0,5,5,29,1,,617400ff07055d954515650f,62bbf945d007ed79f0fa9496,2022-06-29_09h04.02.268,Colour_Asymmetry_Pilot,2022.1.3,Win32,60.0240096,62bbe60bf3d75ef465d3e404,,,,,,,,,,,,,,,,,,,,,,,,,,,,,,,,,,,,,,,,,,,,,,,,,,,,,,,,,,,,,,,,,,,,,,,,,,,,,,,,,,,,,,,,,,,,,,,,,,,,,,,,,,,,,,,,,,,,,,,,,,,,,,,,,,,,,,,,,,,,,,,,,,,,,,,,,,,,,,
0,6,6,10,1,,617400ff07055d954515650f,62bbf945d007ed79f0fa9496,2022-06-29_09h04.02.268,Colour_Asymmetry_Pilot,2022.1.3,Win32,60.0240096,62bbe60bf3d75ef465d3e404,,,,,,,,,,,,,,,,,,,,,,,,,,,,,,,,,,,,,,,,,,,,,,,,,,,,,,,,,,,,,,,,,,,,,,,,,,,,,,,,,,,,,,,,,,,,,,,,,,,,,,,,,,,,,,,,,,,,,,,,,,,,,,,,,,,,,,,,,,,,,,,,,,,,,,,,,,,,,,
0,7,7,22,1,,617400ff07055d954515650f,62bbf945d007ed79f0fa9496,2022-06-29_09h04.02.268,Colour_Asymmetry_Pilot,2022.1.3,Win32,60.0240096,62bbe60bf3d75ef465d3e404,,,,,,,,,,,,,,,,,,,,,,,,,,,,,,,,,,,,,,,,,,,,,,,,,,,,,,,,,,,,,,,,,,,,,,,,,,,,,,,,,,,,,,,,,,,,,,,,,,,,,,,,,,,,,,,,,,,,,,,,,,,,,,,,,,,,,,,,,,,,,,,,,,,,,,,,,,,,,,
0,8,8,69,1,,617400ff07055d954515650f,62bbf945d007ed79f0fa9496,2022-06-29_09h04.02.268,Colour_Asymmetry_Pilot,2022.1.3,Win32,60.0240096,62bbe60bf3d75ef465d3e404,,,,,,,,,,,,,,,,,,,,,,,,,,,,,,,,,,,,,,,,,,,,,,,,,,,,,,,,,,,,,,,,,,,,,,,,,,,,,,,,,,,,,,,,,,,,,,,,,,,,,,,,,,,,,,,,,,,,,,,,,,,,,,,,,,,,,,,,,,,,,,,,,,,,,,,,,,,,,,
0,9,9,26,1,,617400ff07055d954515650f,62bbf945d007ed79f0fa9496,2022-06-29_09h04.02.268,Colour_Asymmetry_Pilot,2022.1.3,Win32,60.0240096,62bbe60bf3d75ef465d3e404,,,,,,,,,,,,,,,,,,,,,,,,,,,,,,,,,,,,,,,,,,,,,,,,,,,,,,,,,,,,,,,,,,,,,,,,,,,,,,,,,,,,,,,,,,,,,,,,,,,,,,,,,,,,,,,,,,,,,,,,,,,,,,,,,,,,,,,,,,,,,,,,,,,,,,,,,,,,,,
0,10,10,15,1,,617400ff07055d954515650f,62bbf945d007ed79f0fa9496,2022-06-29_09h04.02.268,Colour_Asymmetry_Pilot,2022.1.3,Win32,60.0240096,62bbe60bf3d75ef465d3e404,,,,,,,,,,,,,,,,,,,,,,,,,,,,,,,,,,,,,,,,,,,,,,,,,,,,,,,,,,,,,,,,,,,,,,,,,,,,,,,,,,,,,,,,,,,,,,,,,,,,,,,,,,,,,,,,,,,,,,,,,,,,,,,,,,,,,,,,,,,,,,,,,,,,,,,,,,,,,,
0,11,11,59,1,,617400ff07055d954515650f,62bbf945d007ed79f0fa9496,2022-06-29_09h04.02.268,Colour_Asymmetry_Pilot,2022.1.3,Win32,60.0240096,62bbe60bf3d75ef465d3e404,,,,,,,,,,,,,,,,,,,,,,,,,,,,,,,,,,,,,,,,,,,,,,,,,,,,,,,,,,,,,,,,,,,,,,,,,,,,,,,,,,,,,,,,,,,,,,,,,,,,,,,,,,,,,,,,,,,,,,,,,,,,,,,,,,,,,,,,,,,,,,,,,,,,,,,,,,,,,,
0,12,12,19,1,,617400ff07055d954515650f,62bbf945d007ed79f0fa9496,2022-06-29_09h04.02.268,Colour_Asymmetry_Pilot,2022.1.3,Win32,60.0240096,62bbe60bf3d75ef465d3e404,,,,,,,,,,,,,,,,,,,,,,,,,,,,,,,,,,,,,,,,,,,,,,,,,,,,,,,,,,,,,,,,,,,,,,,,,,,,,,,,,,,,,,,,,,,,,,,,,,,,,,,,,,,,,,,,,,,,,,,,,,,,,,,,,,,,,,,,,,,,,,,,,,,,,,,,,,,,,,
0,13,13,14,1,,617400ff07055d954515650f,62bbf945d007ed79f0fa9496,2022-06-29_09h04.02.268,Colour_Asymmetry_Pilot,2022.1.3,Win32,60.0240096,62bbe60bf3d75ef465d3e404,,,,,,,,,,,,,,,,,,,,,,,,,,,,,,,,,,,,,,,,,,,,,,,,,,,,,,,,,,,,,,,,,,,,,,,,,,,,,,,,,,,,,,,,,,,,,,,,,,,,,,,,,,,,,,,,,,,,,,,,,,,,,,,,,,,,,,,,,,,,,,,,,,,,,,,,,,,,,,
0,14,14,0,1,,617400ff07055d954515650f,62bbf945d007ed79f0fa9496,2022-06-29_09h04.02.268,Colour_Asymmetry_Pilot,2022.1.3,Win32,60.0240096,62bbe60bf3d75ef465d3e404,,,,,,,,,,,,,,,,,,,,,,,,,,,,,,,,,,,,,,,,,,,,,,,,,,,,,,,,,,,,,,,,,,,,,,,,,,,,,,,,,,,,,,,,,,,,,,,,,,,,,,,,,,,,,,,,,,,,,,,,,,,,,,,,,,,,,,,,,,,,,,,,,,,,,,,,,,,,,,
0,15,15,83,1,,617400ff07055d954515650f,62bbf945d007ed79f0fa9496,2022-06-29_09h04.02.268,Colour_Asymmetry_Pilot,2022.1.3,Win32,60.0240096,62bbe60bf3d75ef465d3e404,,,,,,,,,,,,,,,,,,,,,,,,,,,,,,,,,,,,,,,,,,,,,,,,,,,,,,,,,,,,,,,,,,,,,,,,,,,,,,,,,,,,,,,,,,,,,,,,,,,,,,,,,,,,,,,,,,,,,,,,,,,,,,,,,,,,,,,,,,,,,,,,,,,,,,,,,,,,,,
0,16,16,87,1,,617400ff07055d954515650f,62bbf945d007ed79f0fa9496,2022-06-29_09h04.02.268,Colour_Asymmetry_Pilot,2022.1.3,Win32,60.0240096,62bbe60bf3d75ef465d3e404,,,,,,,,,,,,,,,,,,,,,,,,,,,,,,,,,,,,,,,,,,,,,,,,,,,,,,,,,,,,,,,,,,,,,,,,,,,,,,,,,,,,,,,,,,,,,,,,,,,,,,,,,,,,,,,,,,,,,,,,,,,,,,,,,,,,,,,,,,,,,,,,,,,,,,,,,,,,,,
0,17,17,13,1,,617400ff07055d954515650f,62bbf945d007ed79f0fa9496,2022-06-29_09h04.02.268,Colour_Asymmetry_Pilot,2022.1.3,Win32,60.0240096,62bbe60bf3d75ef465d3e404,,,,,,,,,,,,,,,,,,,,,,,,,,,,,,,,,,,,,,,,,,,,,,,,,,,,,,,,,,,,,,,,,,,,,,,,,,,,,,,,,,,,,,,,,,,,,,,,,,,,,,,,,,,,,,,,,,,,,,,,,,,,,,,,,,,,,,,,,,,,,,,,,,,,,,,,,,,,,,
0,18,18,60,1,,617400ff07055d954515650f,62bbf945d007ed79f0fa9496,2022-06-29_09h04.02.268,Colour_Asymmetry_Pilot,2022.1.3,Win32,60.0240096,62bbe60bf3d75ef465d3e404,,,,,,,,,,,,,,,,,,,,,,,,,,,,,,,,,,,,,,,,,,,,,,,,,,,,,,,,,,,,,,,,,,,,,,,,,,,,,,,,,,,,,,,,,,,,,,,,,,,,,,,,,,,,,,,,,,,,,,,,,,,,,,,,,,,,,,,,,,,,,,,,,,,,,,,,,,,,,,
0,19,19,56,1,,617400ff07055d954515650f,62bbf945d007ed79f0fa9496,2022-06-29_09h04.02.268,Colour_Asymmetry_Pilot,2022.1.3,Win32,60.0240096,62bbe60bf3d75ef465d3e404,,,,,,,,,,,,,,,,,,,,,,,,,,,,,,,,,,,,,,,,,,,,,,,,,,,,,,,,,,,,,,,,,,,,,,,,,,,,,,,,,,,,,,,,,,,,,,,,,,,,,,,,,,,,,,,,,,,,,,,,,,,,,,,,,,,,,,,,,,,,,,,,,,,,,,,,,,,,,,
0,20,20,44,1,,617400ff07055d954515650f,62bbf945d007ed79f0fa9496,2022-06-29_09h04.02.268,Colour_Asymmetry_Pilot,2022.1.3,Win32,60.0240096,62bbe60bf3d75ef465d3e404,,,,,,,,,,,,,,,,,,,,,,,,,,,,,,,,,,,,,,,,,,,,,,,,,,,,,,,,,,,,,,,,,,,,,,,,,,,,,,,,,,,,,,,,,,,,,,,,,,,,,,,,,,,,,,,,,,,,,,,,,,,,,,,,,,,,,,,,,,,,,,,,,,,,,,,,,,,,,,
0,21,21,80,1,,617400ff07055d954515650f,62bbf945d007ed79f0fa9496,2022-06-29_09h04.02.268,Colour_Asymmetry_Pilot,2022.1.3,Win32,60.0240096,62bbe60bf3d75ef465d3e404,,,,,,,,,,,,,,,,,,,,,,,,,,,,,,,,,,,,,,,,,,,,,,,,,,,,,,,,,,,,,,,,,,,,,,,,,,,,,,,,,,,,,,,,,,,,,,,,,,,,,,,,,,,,,,,,,,,,,,,,,,,,,,,,,,,,,,,,,,,,,,,,,,,,,,,,,,,,,,
0,22,22,9,1,,617400ff07055d954515650f,62bbf945d007ed79f0fa9496,2022-06-29_09h04.02.268,Colour_Asymmetry_Pilot,2022.1.3,Win32,60.0240096,62bbe60bf3d75ef465d3e404,,,,,,,,,,,,,,,,,,,,,,,,,,,,,,,,,,,,,,,,,,,,,,,,,,,,,,,,,,,,,,,,,,,,,,,,,,,,,,,,,,,,,,,,,,,,,,,,,,,,,,,,,,,,,,,,,,,,,,,,,,,,,,,,,,,,,,,,,,,,,,,,,,,,,,,,,,,,,,
0,23,23,74,1,,617400ff07055d954515650f,62bbf945d007ed79f0fa9496,2022-06-29_09h04.02.268,Colour_Asymmetry_Pilot,2022.1.3,Win32,60.0240096,62bbe60bf3d75ef465d3e404,,,,,,,,,,,,,,,,,,,,,,,,,,,,,,,,,,,,,,,,,,,,,,,,,,,,,,,,,,,,,,,,,,,,,,,,,,,,,,,,,,,,,,,,,,,,,,,,,,,,,,,,,,,,,,,,,,,,,,,,,,,,,,,,,,,,,,,,,,,,,,,,,,,,,,,,,,,,,,
0,24,24,58,1,,617400ff07055d954515650f,62bbf945d007ed79f0fa9496,2022-06-29_09h04.02.268,Colour_Asymmetry_Pilot,2022.1.3,Win32,60.0240096,62bbe60bf3d75ef465d3e404,,,,,,,,,,,,,,,,,,,,,,,,,,,,,,,,,,,,,,,,,,,,,,,,,,,,,,,,,,,,,,,,,,,,,,,,,,,,,,,,,,,,,,,,,,,,,,,,,,,,,,,,,,,,,,,,,,,,,,,,,,,,,,,,,,,,,,,,,,,,,,,,,,,,,,,,,,,,,,
0,25,25,49,1,,617400ff07055d954515650f,62bbf945d007ed79f0fa9496,2022-06-29_09h04.02.268,Colour_Asymmetry_Pilot,2022.1.3,Win32,60.0240096,62bbe60bf3d75ef465d3e404,,,,,,,,,,,,,,,,,,,,,,,,,,,,,,,,,,,,,,,,,,,,,,,,,,,,,,,,,,,,,,,,,,,,,,,,,,,,,,,,,,,,,,,,,,,,,,,,,,,,,,,,,,,,,,,,,,,,,,,,,,,,,,,,,,,,,,,,,,,,,,,,,,,,,,,,,,,,,,
0,26,26,30,1,,617400ff07055d954515650f,62bbf945d007ed79f0fa9496,2022-06-29_09h04.02.268,Colour_Asymmetry_Pilot,2022.1.3,Win32,60.0240096,62bbe60bf3d75ef465d3e404,,,,,,,,,,,,,,,,,,,,,,,,,,,,,,,,,,,,,,,,,,,,,,,,,,,,,,,,,,,,,,,,,,,,,,,,,,,,,,,,,,,,,,,,,,,,,,,,,,,,,,,,,,,,,,,,,,,,,,,,,,,,,,,,,,,,,,,,,,,,,,,,,,,,,,,,,,,,,,
0,27,27,17,1,,617400ff07055d954515650f,62bbf945d007ed79f0fa9496,2022-06-29_09h04.02.268,Colour_Asymmetry_Pilot,2022.1.3,Win32,60.0240096,62bbe60bf3d75ef465d3e404,,,,,,,,,,,,,,,,,,,,,,,,,,,,,,,,,,,,,,,,,,,,,,,,,,,,,,,,,,,,,,,,,,,,,,,,,,,,,,,,,,,,,,,,,,,,,,,,,,,,,,,,,,,,,,,,,,,,,,,,,,,,,,,,,,,,,,,,,,,,,,,,,,,,,,,,,,,,,,
0,28,28,77,1,,617400ff07055d954515650f,62bbf945d007ed79f0fa9496,2022-06-29_09h04.02.268,Colour_Asymmetry_Pilot,2022.1.3,Win32,60.0240096,62bbe60bf3d75ef465d3e404,,,,,,,,,,,,,,,,,,,,,,,,,,,,,,,,,,,,,,,,,,,,,,,,,,,,,,,,,,,,,,,,,,,,,,,,,,,,,,,,,,,,,,,,,,,,,,,,,,,,,,,,,,,,,,,,,,,,,,,,,,,,,,,,,,,,,,,,,,,,,,,,,,,,,,,,,,,,,,
0,29,29,57,1,,617400ff07055d954515650f,62bbf945d007ed79f0fa9496,2022-06-29_09h04.02.268,Colour_Asymmetry_Pilot,2022.1.3,Win32,60.0240096,62bbe60bf3d75ef465d3e404,,,,,,,,,,,,,,,,,,,,,,,,,,,,,,,,,,,,,,,,,,,,,,,,,,,,,,,,,,,,,,,,,,,,,,,,,,,,,,,,,,,,,,,,,,,,,,,,,,,,,,,,,,,,,,,,,,,,,,,,,,,,,,,,,,,,,,,,,,,,,,,,,,,,,,,,,,,,,,
0,30,30,85,1,,617400ff07055d954515650f,62bbf945d007ed79f0fa9496,2022-06-29_09h04.02.268,Colour_Asymmetry_Pilot,2022.1.3,Win32,60.0240096,62bbe60bf3d75ef465d3e404,,,,,,,,,,,,,,,,,,,,,,,,,,,,,,,,,,,,,,,,,,,,,,,,,,,,,,,,,,,,,,,,,,,,,,,,,,,,,,,,,,,,,,,,,,,,,,,,,,,,,,,,,,,,,,,,,,,,,,,,,,,,,,,,,,,,,,,,,,,,,,,,,,,,,,,,,,,,,,
0,31,31,16,1,,617400ff07055d954515650f,62bbf945d007ed79f0fa9496,2022-06-29_09h04.02.268,Colour_Asymmetry_Pilot,2022.1.3,Win32,60.0240096,62bbe60bf3d75ef465d3e404,,,,,,,,,,,,,,,,,,,,,,,,,,,,,,,,,,,,,,,,,,,,,,,,,,,,,,,,,,,,,,,,,,,,,,,,,,,,,,,,,,,,,,,,,,,,,,,,,,,,,,,,,,,,,,,,,,,,,,,,,,,,,,,,,,,,,,,,,,,,,,,,,,,,,,,,,,,,,,
0,32,32,32,1,,617400ff07055d954515650f,62bbf945d007ed79f0fa9496,2022-06-29_09h04.02.268,Colour_Asymmetry_Pilot,2022.1.3,Win32,60.0240096,62bbe60bf3d75ef465d3e404,,,,,,,,,,,,,,,,,,,,,,,,,,,,,,,,,,,,,,,,,,,,,,,,,,,,,,,,,,,,,,,,,,,,,,,,,,,,,,,,,,,,,,,,,,,,,,,,,,,,,,,,,,,,,,,,,,,,,,,,,,,,,,,,,,,,,,,,,,,,,,,,,,,,,,,,,,,,,,
0,33,33,36,1,,617400ff07055d954515650f,62bbf945d007ed79f0fa9496,2022-06-29_09h04.02.268,Colour_Asymmetry_Pilot,2022.1.3,Win32,60.0240096,62bbe60bf3d75ef465d3e404,,,,,,,,,,,,,,,,,,,,,,,,,,,,,,,,,,,,,,,,,,,,,,,,,,,,,,,,,,,,,,,,,,,,,,,,,,,,,,,,,,,,,,,,,,,,,,,,,,,,,,,,,,,,,,,,,,,,,,,,,,,,,,,,,,,,,,,,,,,,,,,,,,,,,,,,,,,,,,
0,34,34,70,1,,617400ff07055d954515650f,62bbf945d007ed79f0fa9496,2022-06-29_09h04.02.268,Colour_Asymmetry_Pilot,2022.1.3,Win32,60.0240096,62bbe60bf3d75ef465d3e404,,,,,,,,,,,,,,,,,,,,,,,,,,,,,,,,,,,,,,,,,,,,,,,,,,,,,,,,,,,,,,,,,,,,,,,,,,,,,,,,,,,,,,,,,,,,,,,,,,,,,,,,,,,,,,,,,,,,,,,,,,,,,,,,,,,,,,,,,,,,,,,,,,,,,,,,,,,,,,
0,35,35,3,1,,617400ff07055d954515650f,62bbf945d007ed79f0fa9496,2022-06-29_09h04.02.268,Colour_Asymmetry_Pilot,2022.1.3,Win32,60.0240096,62bbe60bf3d75ef465d3e404,,,,,,,,,,,,,,,,,,,,,,,,,,,,,,,,,,,,,,,,,,,,,,,,,,,,,,,,,,,,,,,,,,,,,,,,,,,,,,,,,,,,,,,,,,,,,,,,,,,,,,,,,,,,,,,,,,,,,,,,,,,,,,,,,,,,,,,,,,,,,,,,,,,,,,,,,,,,,,
0,36,36,46,1,,617400ff07055d954515650f,62bbf945d007ed79f0fa9496,2022-06-29_09h04.02.268,Colour_Asymmetry_Pilot,2022.1.3,Win32,60.0240096,62bbe60bf3d75ef465d3e404,,,,,,,,,,,,,,,,,,,,,,,,,,,,,,,,,,,,,,,,,,,,,,,,,,,,,,,,,,,,,,,,,,,,,,,,,,,,,,,,,,,,,,,,,,,,,,,,,,,,,,,,,,,,,,,,,,,,,,,,,,,,,,,,,,,,,,,,,,,,,,,,,,,,,,,,,,,,,,
0,37,37,52,1,,617400ff07055d954515650f,62bbf945d007ed79f0fa9496,2022-06-29_09h04.02.268,Colour_Asymmetry_Pilot,2022.1.3,Win32,60.0240096,62bbe60bf3d75ef465d3e404,,,,,,,,,,,,,,,,,,,,,,,,,,,,,,,,,,,,,,,,,,,,,,,,,,,,,,,,,,,,,,,,,,,,,,,,,,,,,,,,,,,,,,,,,,,,,,,,,,,,,,,,,,,,,,,,,,,,,,,,,,,,,,,,,,,,,,,,,,,,,,,,,,,,,,,,,,,,,,
0,38,38,75,1,,617400ff07055d954515650f,62bbf945d007ed79f0fa9496,2022-06-29_09h04.02.268,Colour_Asymmetry_Pilot,2022.1.3,Win32,60.0240096,62bbe60bf3d75ef465d3e404,,,,,,,,,,,,,,,,,,,,,,,,,,,,,,,,,,,,,,,,,,,,,,,,,,,,,,,,,,,,,,,,,,,,,,,,,,,,,,,,,,,,,,,,,,,,,,,,,,,,,,,,,,,,,,,,,,,,,,,,,,,,,,,,,,,,,,,,,,,,,,,,,,,,,,,,,,,,,,
0,39,39,68,1,,617400ff07055d954515650f,62bbf945d007ed79f0fa9496,2022-06-29_09h04.02.268,Colour_Asymmetry_Pilot,2022.1.3,Win32,60.0240096,62bbe60bf3d75ef465d3e404,,,,,,,,,,,,,,,,,,,,,,,,,,,,,,,,,,,,,,,,,,,,,,,,,,,,,,,,,,,,,,,,,,,,,,,,,,,,,,,,,,,,,,,,,,,,,,,,,,,,,,,,,,,,,,,,,,,,,,,,,,,,,,,,,,,,,,,,,,,,,,,,,,,,,,,,,,,,,,
0,40,40,53,1,,617400ff07055d954515650f,62bbf945d007ed79f0fa9496,2022-06-29_09h04.02.268,Colour_Asymmetry_Pilot,2022.1.3,Win32,60.0240096,62bbe60bf3d75ef465d3e404,,,,,,,,,,,,,,,,,,,,,,,,,,,,,,,,,,,,,,,,,,,,,,,,,,,,,,,,,,,,,,,,,,,,,,,,,,,,,,,,,,,,,,,,,,,,,,,,,,,,,,,,,,,,,,,,,,,,,,,,,,,,,,,,,,,,,,,,,,,,,,,,,,,,,,,,,,,,,,
0,41,41,79,1,,617400ff07055d954515650f,62bbf945d007ed79f0fa9496,2022-06-29_09h04.02.268,Colour_Asymmetry_Pilot,2022.1.3,Win32,60.0240096,62bbe60bf3d75ef465d3e404,,,,,,,,,,,,,,,,,,,,,,,,,,,,,,,,,,,,,,,,,,,,,,,,,,,,,,,,,,,,,,,,,,,,,,,,,,,,,,,,,,,,,,,,,,,,,,,,,,,,,,,,,,,,,,,,,,,,,,,,,,,,,,,,,,,,,,,,,,,,,,,,,,,,,,,,,,,,,,
0,42,42,21,1,,617400ff07055d954515650f,62bbf945d007ed79f0fa9496,2022-06-29_09h04.02.268,Colour_Asymmetry_Pilot,2022.1.3,Win32,60.0240096,62bbe60bf3d75ef465d3e404,,,,,,,,,,,,,,,,,,,,,,,,,,,,,,,,,,,,,,,,,,,,,,,,,,,,,,,,,,,,,,,,,,,,,,,,,,,,,,,,,,,,,,,,,,,,,,,,,,,,,,,,,,,,,,,,,,,,,,,,,,,,,,,,,,,,,,,,,,,,,,,,,,,,,,,,,,,,,,
0,43,43,55,1,,617400ff07055d954515650f,62bbf945d007ed79f0fa9496,2022-06-29_09h04.02.268,Colour_Asymmetry_Pilot,2022.1.3,Win32,60.0240096,62bbe60bf3d75ef465d3e404,,,,,,,,,,,,,,,,,,,,,,,,,,,,,,,,,,,,,,,,,,,,,,,,,,,,,,,,,,,,,,,,,,,,,,,,,,,,,,,,,,,,,,,,,,,,,,,,,,,,,,,,,,,,,,,,,,,,,,,,,,,,,,,,,,,,,,,,,,,,,,,,,,,,,,,,,,,,,,
0,44,44,81,1,,617400ff07055d954515650f,62bbf945d007ed79f0fa9496,2022-06-29_09h04.02.268,Colour_Asymmetry_Pilot,2022.1.3,Win32,60.0240096,62bbe60bf3d75ef465d3e404,,,,,,,,,,,,,,,,,,,,,,,,,,,,,,,,,,,,,,,,,,,,,,,,,,,,,,,,,,,,,,,,,,,,,,,,,,,,,,,,,,,,,,,,,,,,,,,,,,,,,,,,,,,,,,,,,,,,,,,,,,,,,,,,,,,,,,,,,,,,,,,,,,,,,,,,,,,,,,
0,45,45,4,1,,617400ff07055d954515650f,62bbf945d007ed79f0fa9496,2022-06-29_09h04.02.268,Colour_Asymmetry_Pilot,2022.1.3,Win32,60.0240096,62bbe60bf3d75ef465d3e404,,,,,,,,,,,,,,,,,,,,,,,,,,,,,,,,,,,,,,,,,,,,,,,,,,,,,,,,,,,,,,,,,,,,,,,,,,,,,,,,,,,,,,,,,,,,,,,,,,,,,,,,,,,,,,,,,,,,,,,,,,,,,,,,,,,,,,,,,,,,,,,,,,,,,,,,,,,,,,
0,46,46,72,1,,617400ff07055d954515650f,62bbf945d007ed79f0fa9496,2022-06-29_09h04.02.268,Colour_Asymmetry_Pilot,2022.1.3,Win32,60.0240096,62bbe60bf3d75ef465d3e404,,,,,,,,,,,,,,,,,,,,,,,,,,,,,,,,,,,,,,,,,,,,,,,,,,,,,,,,,,,,,,,,,,,,,,,,,,,,,,,,,,,,,,,,,,,,,,,,,,,,,,,,,,,,,,,,,,,,,,,,,,,,,,,,,,,,,,,,,,,,,,,,,,,,,,,,,,,,,,
0,47,47,86,1,,617400ff07055d954515650f,62bbf945d007ed79f0fa9496,2022-06-29_09h04.02.268,Colour_Asymmetry_Pilot,2022.1.3,Win32,60.0240096,62bbe60bf3d75ef465d3e404,,,,,,,,,,,,,,,,,,,,,,,,,,,,,,,,,,,,,,,,,,,,,,,,,,,,,,,,,,,,,,,,,,,,,,,,,,,,,,,,,,,,,,,,,,,,,,,,,,,,,,,,,,,,,,,,,,,,,,,,,,,,,,,,,,,,,,,,,,,,,,,,,,,,,,,,,,,,,,
0,48,48,38,1,,617400ff07055d954515650f,62bbf945d007ed79f0fa9496,2022-06-29_09h04.02.268,Colour_Asymmetry_Pilot,2022.1.3,Win32,60.0240096,62bbe60bf3d75ef465d3e404,,,,,,,,,,,,,,,,,,,,,,,,,,,,,,,,,,,,,,,,,,,,,,,,,,,,,,,,,,,,,,,,,,,,,,,,,,,,,,,,,,,,,,,,,,,,,,,,,,,,,,,,,,,,,,,,,,,,,,,,,,,,,,,,,,,,,,,,,,,,,,,,,,,,,,,,,,,,,,
0,49,49,31,1,,617400ff07055d954515650f,62bbf945d007ed79f0fa9496,2022-06-29_09h04.02.268,Colour_Asymmetry_Pilot,2022.1.3,Win32,60.0240096,62bbe60bf3d75ef465d3e404,,,,,,,,,,,,,,,,,,,,,,,,,,,,,,,,,,,,,,,,,,,,,,,,,,,,,,,,,,,,,,,,,,,,,,,,,,,,,,,,,,,,,,,,,,,,,,,,,,,,,,,,,,,,,,,,,,,,,,,,,,,,,,,,,,,,,,,,,,,,,,,,,,,,,,,,,,,,,,
0,50,50,6,1,,617400ff07055d954515650f,62bbf945d007ed79f0fa9496,2022-06-29_09h04.02.268,Colour_Asymmetry_Pilot,2022.1.3,Win32,60.0240096,62bbe60bf3d75ef465d3e404,,,,,,,,,,,,,,,,,,,,,,,,,,,,,,,,,,,,,,,,,,,,,,,,,,,,,,,,,,,,,,,,,,,,,,,,,,,,,,,,,,,,,,,,,,,,,,,,,,,,,,,,,,,,,,,,,,,,,,,,,,,,,,,,,,,,,,,,,,,,,,,,,,,,,,,,,,,,,,
0,51,51,18,1,,617400ff07055d954515650f,62bbf945d007ed79f0fa9496,2022-06-29_09h04.02.268,Colour_Asymmetry_Pilot,2022.1.3,Win32,60.0240096,62bbe60bf3d75ef465d3e404,,,,,,,,,,,,,,,,,,,,,,,,,,,,,,,,,,,,,,,,,,,,,,,,,,,,,,,,,,,,,,,,,,,,,,,,,,,,,,,,,,,,,,,,,,,,,,,,,,,,,,,,,,,,,,,,,,,,,,,,,,,,,,,,,,,,,,,,,,,,,,,,,,,,,,,,,,,,,,
0,52,52,71,1,,617400ff07055d954515650f,62bbf945d007ed79f0fa9496,2022-06-29_09h04.02.268,Colour_Asymmetry_Pilot,2022.1.3,Win32,60.0240096,62bbe60bf3d75ef465d3e404,,,,,,,,,,,,,,,,,,,,,,,,,,,,,,,,,,,,,,,,,,,,,,,,,,,,,,,,,,,,,,,,,,,,,,,,,,,,,,,,,,,,,,,,,,,,,,,,,,,,,,,,,,,,,,,,,,,,,,,,,,,,,,,,,,,,,,,,,,,,,,,,,,,,,,,,,,,,,,
0,53,53,89,1,,617400ff07055d954515650f,62bbf945d007ed79f0fa9496,2022-06-29_09h04.02.268,Colour_Asymmetry_Pilot,2022.1.3,Win32,60.0240096,62bbe60bf3d75ef465d3e404,,,,,,,,,,,,,,,,,,,,,,,,,,,,,,,,,,,,,,,,,,,,,,,,,,,,,,,,,,,,,,,,,,,,,,,,,,,,,,,,,,,,,,,,,,,,,,,,,,,,,,,,,,,,,,,,,,,,,,,,,,,,,,,,,,,,,,,,,,,,,,,,,,,,,,,,,,,,,,
0,54,54,27,1,,617400ff07055d954515650f,62bbf945d007ed79f0fa9496,2022-06-29_09h04.02.268,Colour_Asymmetry_Pilot,2022.1.3,Win32,60.0240096,62bbe60bf3d75ef465d3e404,,,,,,,,,,,,,,,,,,,,,,,,,,,,,,,,,,,,,,,,,,,,,,,,,,,,,,,,,,,,,,,,,,,,,,,,,,,,,,,,,,,,,,,,,,,,,,,,,,,,,,,,,,,,,,,,,,,,,,,,,,,,,,,,,,,,,,,,,,,,,,,,,,,,,,,,,,,,,,
0,55,55,92,1,,617400ff07055d954515650f,62bbf945d007ed79f0fa9496,2022-06-29_09h04.02.268,Colour_Asymmetry_Pilot,2022.1.3,Win32,60.0240096,62bbe60bf3d75ef465d3e404,,,,,,,,,,,,,,,,,,,,,,,,,,,,,,,,,,,,,,,,,,,,,,,,,,,,,,,,,,,,,,,,,,,,,,,,,,,,,,,,,,,,,,,,,,,,,,,,,,,,,,,,,,,,,,,,,,,,,,,,,,,,,,,,,,,,,,,,,,,,,,,,,,,,,,,,,,,,,,
0,56,56,25,1,,617400ff07055d954515650f,62bbf945d007ed79f0fa9496,2022-06-29_09h04.02.268,Colour_Asymmetry_Pilot,2022.1.3,Win32,60.0240096,62bbe60bf3d75ef465d3e404,,,,,,,,,,,,,,,,,,,,,,,,,,,,,,,,,,,,,,,,,,,,,,,,,,,,,,,,,,,,,,,,,,,,,,,,,,,,,,,,,,,,,,,,,,,,,,,,,,,,,,,,,,,,,,,,,,,,,,,,,,,,,,,,,,,,,,,,,,,,,,,,,,,,,,,,,,,,,,
0,57,57,48,1,,617400ff07055d954515650f,62bbf945d007ed79f0fa9496,2022-06-29_09h04.02.268,Colour_Asymmetry_Pilot,2022.1.3,Win32,60.0240096,62bbe60bf3d75ef465d3e404,,,,,,,,,,,,,,,,,,,,,,,,,,,,,,,,,,,,,,,,,,,,,,,,,,,,,,,,,,,,,,,,,,,,,,,,,,,,,,,,,,,,,,,,,,,,,,,,,,,,,,,,,,,,,,,,,,,,,,,,,,,,,,,,,,,,,,,,,,,,,,,,,,,,,,,,,,,,,,
0,58,58,62,1,,617400ff07055d954515650f,62bbf945d007ed79f0fa9496,2022-06-29_09h04.02.268,Colour_Asymmetry_Pilot,2022.1.3,Win32,60.0240096,62bbe60bf3d75ef465d3e404,,,,,,,,,,,,,,,,,,,,,,,,,,,,,,,,,,,,,,,,,,,,,,,,,,,,,,,,,,,,,,,,,,,,,,,,,,,,,,,,,,,,,,,,,,,,,,,,,,,,,,,,,,,,,,,,,,,,,,,,,,,,,,,,,,,,,,,,,,,,,,,,,,,,,,,,,,,,,,
0,59,59,20,1,,617400ff07055d954515650f,62bbf945d007ed79f0fa9496,2022-06-29_09h04.02.268,Colour_Asymmetry_Pilot,2022.1.3,Win32,60.0240096,62bbe60bf3d75ef465d3e404,,,,,,,,,,,,,,,,,,,,,,,,,,,,,,,,,,,,,,,,,,,,,,,,,,,,,,,,,,,,,,,,,,,,,,,,,,,,,,,,,,,,,,,,,,,,,,,,,,,,,,,,,,,,,,,,,,,,,,,,,,,,,,,,,,,,,,,,,,,,,,,,,,,,,,,,,,,,,,
0,60,60,78,1,,617400ff07055d954515650f,62bbf945d007ed79f0fa9496,2022-06-29_09h04.02.268,Colour_Asymmetry_Pilot,2022.1.3,Win32,60.0240096,62bbe60bf3d75ef465d3e404,,,,,,,,,,,,,,,,,,,,,,,,,,,,,,,,,,,,,,,,,,,,,,,,,,,,,,,,,,,,,,,,,,,,,,,,,,,,,,,,,,,,,,,,,,,,,,,,,,,,,,,,,,,,,,,,,,,,,,,,,,,,,,,,,,,,,,,,,,,,,,,,,,,,,,,,,,,,,,
0,61,61,2,1,,617400ff07055d954515650f,62bbf945d007ed79f0fa9496,2022-06-29_09h04.02.268,Colour_Asymmetry_Pilot,2022.1.3,Win32,60.0240096,62bbe60bf3d75ef465d3e404,,,,,,,,,,,,,,,,,,,,,,,,,,,,,,,,,,,,,,,,,,,,,,,,,,,,,,,,,,,,,,,,,,,,,,,,,,,,,,,,,,,,,,,,,,,,,,,,,,,,,,,,,,,,,,,,,,,,,,,,,,,,,,,,,,,,,,,,,,,,,,,,,,,,,,,,,,,,,,
0,62,62,28,1,,617400ff07055d954515650f,62bbf945d007ed79f0fa9496,2022-06-29_09h04.02.268,Colour_Asymmetry_Pilot,2022.1.3,Win32,60.0240096,62bbe60bf3d75ef465d3e404,,,,,,,,,,,,,,,,,,,,,,,,,,,,,,,,,,,,,,,,,,,,,,,,,,,,,,,,,,,,,,,,,,,,,,,,,,,,,,,,,,,,,,,,,,,,,,,,,,,,,,,,,,,,,,,,,,,,,,,,,,,,,,,,,,,,,,,,,,,,,,,,,,,,,,,,,,,,,,
0,63,63,82,1,,617400ff07055d954515650f,62bbf945d007ed79f0fa9496,2022-06-29_09h04.02.268,Colour_Asymmetry_Pilot,2022.1.3,Win32,60.0240096,62bbe60bf3d75ef465d3e404,,,,,,,,,,,,,,,,,,,,,,,,,,,,,,,,,,,,,,,,,,,,,,,,,,,,,,,,,,,,,,,,,,,,,,,,,,,,,,,,,,,,,,,,,,,,,,,,,,,,,,,,,,,,,,,,,,,,,,,,,,,,,,,,,,,,,,,,,,,,,,,,,,,,,,,,,,,,,,
0,64,64,51,1,,617400ff07055d954515650f,62bbf945d007ed79f0fa9496,2022-06-29_09h04.02.268,Colour_Asymmetry_Pilot,2022.1.3,Win32,60.0240096,62bbe60bf3d75ef465d3e404,,,,,,,,,,,,,,,,,,,,,,,,,,,,,,,,,,,,,,,,,,,,,,,,,,,,,,,,,,,,,,,,,,,,,,,,,,,,,,,,,,,,,,,,,,,,,,,,,,,,,,,,,,,,,,,,,,,,,,,,,,,,,,,,,,,,,,,,,,,,,,,,,,,,,,,,,,,,,,
0,65,65,90,1,,617400ff07055d954515650f,62bbf945d007ed79f0fa9496,2022-06-29_09h04.02.268,Colour_Asymmetry_Pilot,2022.1.3,Win32,60.0240096,62bbe60bf3d75ef465d3e404,,,,,,,,,,,,,,,,,,,,,,,,,,,,,,,,,,,,,,,,,,,,,,,,,,,,,,,,,,,,,,,,,,,,,,,,,,,,,,,,,,,,,,,,,,,,,,,,,,,,,,,,,,,,,,,,,,,,,,,,,,,,,,,,,,,,,,,,,,,,,,,,,,,,,,,,,,,,,,
0,66,66,37,1,,617400ff07055d954515650f,62bbf945d007ed79f0fa9496,2022-06-29_09h04.02.268,Colour_Asymmetry_Pilot,2022.1.3,Win32,60.0240096,62bbe60bf3d75ef465d3e404,,,,,,,,,,,,,,,,,,,,,,,,,,,,,,,,,,,,,,,,,,,,,,,,,,,,,,,,,,,,,,,,,,,,,,,,,,,,,,,,,,,,,,,,,,,,,,,,,,,,,,,,,,,,,,,,,,,,,,,,,,,,,,,,,,,,,,,,,,,,,,,,,,,,,,,,,,,,,,
0,67,67,11,1,,617400ff07055d954515650f,62bbf945d007ed79f0fa9496,2022-06-29_09h04.02.268,Colour_Asymmetry_Pilot,2022.1.3,Win32,60.0240096,62bbe60bf3d75ef465d3e404,,,,,,,,,,,,,,,,,,,,,,,,,,,,,,,,,,,,,,,,,,,,,,,,,,,,,,,,,,,,,,,,,,,,,,,,,,,,,,,,,,,,,,,,,,,,,,,,,,,,,,,,,,,,,,,,,,,,,,,,,,,,,,,,,,,,,,,,,,,,,,,,,,,,,,,,,,,,,,
0,68,68,66,1,,617400ff07055d954515650f,62bbf945d007ed79f0fa9496,2022-06-29_09h04.02.268,Colour_Asymmetry_Pilot,2022.1.3,Win32,60.0240096,62bbe60bf3d75ef465d3e404,,,,,,,,,,,,,,,,,,,,,,,,,,,,,,,,,,,,,,,,,,,,,,,,,,,,,,,,,,,,,,,,,,,,,,,,,,,,,,,,,,,,,,,,,,,,,,,,,,,,,,,,,,,,,,,,,,,,,,,,,,,,,,,,,,,,,,,,,,,,,,,,,,,,,,,,,,,,,,
0,69,69,64,1,,617400ff07055d954515650f,62bbf945d007ed79f0fa9496,2022-06-29_09h04.02.268,Colour_Asymmetry_Pilot,2022.1.3,Win32,60.0240096,62bbe60bf3d75ef465d3e404,,,,,,,,,,,,,,,,,,,,,,,,,,,,,,,,,,,,,,,,,,,,,,,,,,,,,,,,,,,,,,,,,,,,,,,,,,,,,,,,,,,,,,,,,,,,,,,,,,,,,,,,,,,,,,,,,,,,,,,,,,,,,,,,,,,,,,,,,,,,,,,,,,,,,,,,,,,,,,
0,70,70,33,1,,617400ff07055d954515650f,62bbf945d007ed79f0fa9496,2022-06-29_09h04.02.268,Colour_Asymmetry_Pilot,2022.1.3,Win32,60.0240096,62bbe60bf3d75ef465d3e404,,,,,,,,,,,,,,,,,,,,,,,,,,,,,,,,,,,,,,,,,,,,,,,,,,,,,,,,,,,,,,,,,,,,,,,,,,,,,,,,,,,,,,,,,,,,,,,,,,,,,,,,,,,,,,,,,,,,,,,,,,,,,,,,,,,,,,,,,,,,,,,,,,,,,,,,,,,,,,
0,71,71,63,1,,617400ff07055d954515650f,62bbf945d007ed79f0fa9496,2022-06-29_09h04.02.268,Colour_Asymmetry_Pilot,2022.1.3,Win32,60.0240096,62bbe60bf3d75ef465d3e404,,,,,,,,,,,,,,,,,,,,,,,,,,,,,,,,,,,,,,,,,,,,,,,,,,,,,,,,,,,,,,,,,,,,,,,,,,,,,,,,,,,,,,,,,,,,,,,,,,,,,,,,,,,,,,,,,,,,,,,,,,,,,,,,,,,,,,,,,,,,,,,,,,,,,,,,,,,,,,
0,72,72,42,1,,617400ff07055d954515650f,62bbf945d007ed79f0fa9496,2022-06-29_09h04.02.268,Colour_Asymmetry_Pilot,2022.1.3,Win32,60.0240096,62bbe60bf3d75ef465d3e404,,,,,,,,,,,,,,,,,,,,,,,,,,,,,,,,,,,,,,,,,,,,,,,,,,,,,,,,,,,,,,,,,,,,,,,,,,,,,,,,,,,,,,,,,,,,,,,,,,,,,,,,,,,,,,,,,,,,,,,,,,,,,,,,,,,,,,,,,,,,,,,,,,,,,,,,,,,,,,
0,73,73,84,1,,617400ff07055d954515650f,62bbf945d007ed79f0fa9496,2022-06-29_09h04.02.268,Colour_Asymmetry_Pilot,2022.1.3,Win32,60.0240096,62bbe60bf3d75ef465d3e404,,,,,,,,,,,,,,,,,,,,,,,,,,,,,,,,,,,,,,,,,,,,,,,,,,,,,,,,,,,,,,,,,,,,,,,,,,,,,,,,,,,,,,,,,,,,,,,,,,,,,,,,,,,,,,,,,,,,,,,,,,,,,,,,,,,,,,,,,,,,,,,,,,,,,,,,,,,,,,
0,74,74,50,1,,617400ff07055d954515650f,62bbf945d007ed79f0fa9496,2022-06-29_09h04.02.268,Colour_Asymmetry_Pilot,2022.1.3,Win32,60.0240096,62bbe60bf3d75ef465d3e404,,,,,,,,,,,,,,,,,,,,,,,,,,,,,,,,,,,,,,,,,,,,,,,,,,,,,,,,,,,,,,,,,,,,,,,,,,,,,,,,,,,,,,,,,,,,,,,,,,,,,,,,,,,,,,,,,,,,,,,,,,,,,,,,,,,,,,,,,,,,,,,,,,,,,,,,,,,,,,
0,75,75,8,1,,617400ff07055d954515650f,62bbf945d007ed79f0fa9496,2022-06-29_09h04.02.268,Colour_Asymmetry_Pilot,2022.1.3,Win32,60.0240096,62bbe60bf3d75ef465d3e404,,,,,,,,,,,,,,,,,,,,,,,,,,,,,,,,,,,,,,,,,,,,,,,,,,,,,,,,,,,,,,,,,,,,,,,,,,,,,,,,,,,,,,,,,,,,,,,,,,,,,,,,,,,,,,,,,,,,,,,,,,,,,,,,,,,,,,,,,,,,,,,,,,,,,,,,,,,,,,
0,76,76,35,1,,617400ff07055d954515650f,62bbf945d007ed79f0fa9496,2022-06-29_09h04.02.268,Colour_Asymmetry_Pilot,2022.1.3,Win32,60.0240096,62bbe60bf3d75ef465d3e404,,,,,,,,,,,,,,,,,,,,,,,,,,,,,,,,,,,,,,,,,,,,,,,,,,,,,,,,,,,,,,,,,,,,,,,,,,,,,,,,,,,,,,,,,,,,,,,,,,,,,,,,,,,,,,,,,,,,,,,,,,,,,,,,,,,,,,,,,,,,,,,,,,,,,,,,,,,,,,
0,77,77,39,1,,617400ff07055d954515650f,62bbf945d007ed79f0fa9496,2022-06-29_09h04.02.268,Colour_Asymmetry_Pilot,2022.1.3,Win32,60.0240096,62bbe60bf3d75ef465d3e404,,,,,,,,,,,,,,,,,,,,,,,,,,,,,,,,,,,,,,,,,,,,,,,,,,,,,,,,,,,,,,,,,,,,,,,,,,,,,,,,,,,,,,,,,,,,,,,,,,,,,,,,,,,,,,,,,,,,,,,,,,,,,,,,,,,,,,,,,,,,,,,,,,,,,,,,,,,,,,
0,78,78,76,1,,617400ff07055d954515650f,62bbf945d007ed79f0fa9496,2022-06-29_09h04.02.268,Colour_Asymmetry_Pilot,2022.1.3,Win32,60.0240096,62bbe60bf3d75ef465d3e404,,,,,,,,,,,,,,,,,,,,,,,,,,,,,,,,,,,,,,,,,,,,,,,,,,,,,,,,,,,,,,,,,,,,,,,,,,,,,,,,,,,,,,,,,,,,,,,,,,,,,,,,,,,,,,,,,,,,,,,,,,,,,,,,,,,,,,,,,,,,,,,,,,,,,,,,,,,,,,
0,79,79,61,1,,617400ff07055d954515650f,62bbf945d007ed79f0fa9496,2022-06-29_09h04.02.268,Colour_Asymmetry_Pilot,2022.1.3,Win32,60.0240096,62bbe60bf3d75ef465d3e404,,,,,,,,,,,,,,,,,,,,,,,,,,,,,,,,,,,,,,,,,,,,,,,,,,,,,,,,,,,,,,,,,,,,,,,,,,,,,,,,,,,,,,,,,,,,,,,,,,,,,,,,,,,,,,,,,,,,,,,,,,,,,,,,,,,,,,,,,,,,,,,,,,,,,,,,,,,,,,
0,80,80,7,1,,617400ff07055d954515650f,62bbf945d007ed79f0fa9496,2022-06-29_09h04.02.268,Colour_Asymmetry_Pilot,2022.1.3,Win32,60.0240096,62bbe60bf3d75ef465d3e404,,,,,,,,,,,,,,,,,,,,,,,,,,,,,,,,,,,,,,,,,,,,,,,,,,,,,,,,,,,,,,,,,,,,,,,,,,,,,,,,,,,,,,,,,,,,,,,,,,,,,,,,,,,,,,,,,,,,,,,,,,,,,,,,,,,,,,,,,,,,,,,,,,,,,,,,,,,,,,
0,81,81,73,1,,617400ff07055d954515650f,62bbf945d007ed79f0fa9496,2022-06-29_09h04.02.268,Colour_Asymmetry_Pilot,2022.1.3,Win32,60.0240096,62bbe60bf3d75ef465d3e404,,,,,,,,,,,,,,,,,,,,,,,,,,,,,,,,,,,,,,,,,,,,,,,,,,,,,,,,,,,,,,,,,,,,,,,,,,,,,,,,,,,,,,,,,,,,,,,,,,,,,,,,,,,,,,,,,,,,,,,,,,,,,,,,,,,,,,,,,,,,,,,,,,,,,,,,,,,,,,
0,82,82,45,1,,617400ff07055d954515650f,62bbf945d007ed79f0fa9496,2022-06-29_09h04.02.268,Colour_Asymmetry_Pilot,2022.1.3,Win32,60.0240096,62bbe60bf3d75ef465d3e404,,,,,,,,,,,,,,,,,,,,,,,,,,,,,,,,,,,,,,,,,,,,,,,,,,,,,,,,,,,,,,,,,,,,,,,,,,,,,,,,,,,,,,,,,,,,,,,,,,,,,,,,,,,,,,,,,,,,,,,,,,,,,,,,,,,,,,,,,,,,,,,,,,,,,,,,,,,,,,
0,83,83,5,1,,617400ff07055d954515650f,62bbf945d007ed79f0fa9496,2022-06-29_09h04.02.268,Colour_Asymmetry_Pilot,2022.1.3,Win32,60.0240096,62bbe60bf3d75ef465d3e404,,,,,,,,,,,,,,,,,,,,,,,,,,,,,,,,,,,,,,,,,,,,,,,,,,,,,,,,,,,,,,,,,,,,,,,,,,,,,,,,,,,,,,,,,,,,,,,,,,,,,,,,,,,,,,,,,,,,,,,,,,,,,,,,,,,,,,,,,,,,,,,,,,,,,,,,,,,,,,
0,84,84,34,1,,617400ff07055d954515650f,62bbf945d007ed79f0fa9496,2022-06-29_09h04.02.268,Colour_Asymmetry_Pilot,2022.1.3,Win32,60.0240096,62bbe60bf3d75ef465d3e404,,,,,,,,,,,,,,,,,,,,,,,,,,,,,,,,,,,,,,,,,,,,,,,,,,,,,,,,,,,,,,,,,,,,,,,,,,,,,,,,,,,,,,,,,,,,,,,,,,,,,,,,,,,,,,,,,,,,,,,,,,,,,,,,,,,,,,,,,,,,,,,,,,,,,,,,,,,,,,
0,85,85,24,1,,617400ff07055d954515650f,62bbf945d007ed79f0fa9496,2022-06-29_09h04.02.268,Colour_Asymmetry_Pilot,2022.1.3,Win32,60.0240096,62bbe60bf3d75ef465d3e404,,,,,,,,,,,,,,,,,,,,,,,,,,,,,,,,,,,,,,,,,,,,,,,,,,,,,,,,,,,,,,,,,,,,,,,,,,,,,,,,,,,,,,,,,,,,,,,,,,,,,,,,,,,,,,,,,,,,,,,,,,,,,,,,,,,,,,,,,,,,,,,,,,,,,,,,,,,,,,
0,86,86,12,1,,617400ff07055d954515650f,62bbf945d007ed79f0fa9496,2022-06-29_09h04.02.268,Colour_Asymmetry_Pilot,2022.1.3,Win32,60.0240096,62bbe60bf3d75ef465d3e404,,,,,,,,,,,,,,,,,,,,,,,,,,,,,,,,,,,,,,,,,,,,,,,,,,,,,,,,,,,,,,,,,,,,,,,,,,,,,,,,,,,,,,,,,,,,,,,,,,,,,,,,,,,,,,,,,,,,,,,,,,,,,,,,,,,,,,,,,,,,,,,,,,,,,,,,,,,,,,
0,87,87,23,1,,617400ff07055d954515650f,62bbf945d007ed79f0fa9496,2022-06-29_09h04.02.268,Colour_Asymmetry_Pilot,2022.1.3,Win32,60.0240096,62bbe60bf3d75ef465d3e404,,,,,,,,,,,,,,,,,,,,,,,,,,,,,,,,,,,,,,,,,,,,,,,,,,,,,,,,,,,,,,,,,,,,,,,,,,,,,,,,,,,,,,,,,,,,,,,,,,,,,,,,,,,,,,,,,,,,,,,,,,,,,,,,,,,,,,,,,,,,,,,,,,,,,,,,,,,,,,
0,88,88,40,1,,617400ff07055d954515650f,62bbf945d007ed79f0fa9496,2022-06-29_09h04.02.268,Colour_Asymmetry_Pilot,2022.1.3,Win32,60.0240096,62bbe60bf3d75ef465d3e404,,,,,,,,,,,,,,,,,,,,,,,,,,,,,,,,,,,,,,,,,,,,,,,,,,,,,,,,,,,,,,,,,,,,,,,,,,,,,,,,,,,,,,,,,,,,,,,,,,,,,,,,,,,,,,,,,,,,,,,,,,,,,,,,,,,,,,,,,,,,,,,,,,,,,,,,,,,,,,
0,89,89,65,1,,617400ff07055d954515650f,62bbf945d007ed79f0fa9496,2022-06-29_09h04.02.268,Colour_Asymmetry_Pilot,2022.1.3,Win32,60.0240096,62bbe60bf3d75ef465d3e404,,,,,,,,,,,,,,,,,,,,,,,,,,,,,,,,,,,,,,,,,,,,,,,,,,,,,,,,,,,,,,,,,,,,,,,,,,,,,,,,,,,,,,,,,,,,,,,,,,,,,,,,,,,,,,,,,,,,,,,,,,,,,,,,,,,,,,,,,,,,,,,,,,,,,,,,,,,,,,
0,90,90,67,1,,617400ff07055d954515650f,62bbf945d007ed79f0fa9496,2022-06-29_09h04.02.268,Colour_Asymmetry_Pilot,2022.1.3,Win32,60.0240096,62bbe60bf3d75ef465d3e404,,,,,,,,,,,,,,,,,,,,,,,,,,,,,,,,,,,,,,,,,,,,,,,,,,,,,,,,,,,,,,,,,,,,,,,,,,,,,,,,,,,,,,,,,,,,,,,,,,,,,,,,,,,,,,,,,,,,,,,,,,,,,,,,,,,,,,,,,,,,,,,,,,,,,,,,,,,,,,
0,91,91,1,1,,617400ff07055d954515650f,62bbf945d007ed79f0fa9496,2022-06-29_09h04.02.268,Colour_Asymmetry_Pilot,2022.1.3,Win32,60.0240096,62bbe60bf3d75ef465d3e404,,,,,,,,,,,,,,,,,,,,,,,,,,,,,,,,,,,,,,,,,,,,,,,,,,,,,,,,,,,,,,,,,,,,,,,,,,,,,,,,,,,,,,,,,,,,,,,,,,,,,,,,,,,,,,,,,,,,,,,,,,,,,,,,,,,,,,,,,,,,,,,,,,,,,,,,,,,,,,
0,92,92,88,1,,617400ff07055d954515650f,62bbf945d007ed79f0fa9496,2022-06-29_09h04.02.268,Colour_Asymmetry_Pilot,2022.1.3,Win32,60.0240096,62bbe60bf3d75ef465d3e404,,,,,,,,,,,,,,,,,,,,,,,,,,,,,,,,,,,,,,,,,,,,,,,,,,,,,,,,,,,,,,,,,,,,,,,,,,,,,,,,,,,,,,,,,,,,,,,,,,,,,,,,,,,,,,,,,,,,,,,,,,,,,,,,,,,,,,,,,,,,,,,,,,,,,,,,,,,,,,
,,,,,,617400ff07055d954515650f,62bbf945d007ed79f0fa9496,2022-06-29_09h04.02.268,Colour_Asymmetry_Pilot,2022.1.3,Win32,60.0240096,62bbe60bf3d75ef465d3e404,0,0,0,97,1,onethree,,,,,,,,,,,,,,,,,,,,,,,,,,,,,,,,,,,,,,,,,,,,,,,,,,,,,,,,,,,,,,,,,,,,,,,,,,,,,,,,,,,,,,,,,,,,,,,,,,,,,,,,,,,,,,,,,,,,,,,,,,,,,,,,,,,,,,,,,,,,,,,,,,,,,,,,
,,,,,,617400ff07055d954515650f,62bbf945d007ed79f0fa9496,2022-06-29_09h04.02.268,Colour_Asymmetry_Pilot,2022.1.3,Win32,60.0240096,62bbe60bf3d75ef465d3e404,0,1,1,144,1,onetwo,,,,,,,,,,,,,,,,,,,,,,,,,,,,,,,,,,,,,,,,,,,,,,,,,,,,,,,,,,,,,,,,,,,,,,,,,,,,,,,,,,,,,,,,,,,,,,,,,,,,,,,,,,,,,,,,,,,,,,,,,,,,,,,,,,,,,,,,,,,,,,,,,,,,,,,,
,,,,,,617400ff07055d954515650f,62bbf945d007ed79f0fa9496,2022-06-29_09h04.02.268,Colour_Asymmetry_Pilot,2022.1.3,Win32,60.0240096,62bbe60bf3d75ef465d3e404,0,2,2,31,1,fourthree,,,,,,,,,,,,,,,,,,,,,,,,,,,,,,,,,,,,,,,,,,,,,,,,,,,,,,,,,,,,,,,,,,,,,,,,,,,,,,,,,,,,,,,,,,,,,,,,,,,,,,,,,,,,,,,,,,,,,,,,,,,,,,,,,,,,,,,,,,,,,,,,,,,,,,,,
,,,,,,617400ff07055d954515650f,62bbf945d007ed79f0fa9496,2022-06-29_09h04.02.268,Colour_Asymmetry_Pilot,2022.1.3,Win32,60.0240096,62bbe60bf3d75ef465d3e404,0,3,3,96,1,onetwo,,,,,,,,,,,,,,,,,,,,,,,,,,,,,,,,,,,,,,,,,,,,,,,,,,,,,,,,,,,,,,,,,,,,,,,,,,,,,,,,,,,,,,,,,,,,,,,,,,,,,,,,,,,,,,,,,,,,,,,,,,,,,,,,,,,,,,,,,,,,,,,,,,,,,,,,
,,,,,,617400ff07055d954515650f,62bbf945d007ed79f0fa9496,2022-06-29_09h04.02.268,Colour_Asymmetry_Pilot,2022.1.3,Win32,60.0240096,62bbe60bf3d75ef465d3e404,0,4,4,9,1,onethree,,,,,,,,,,,,,,,,,,,,,,,,,,,,,,,,,,,,,,,,,,,,,,,,,,,,,,,,,,,,,,,,,,,,,,,,,,,,,,,,,,,,,,,,,,,,,,,,,,,,,,,,,,,,,,,,,,,,,,,,,,,,,,,,,,,,,,,,,,,,,,,,,,,,,,,,
,,,,,,617400ff07055d954515650f,62bbf945d007ed79f0fa9496,2022-06-29_09h04.02.268,Colour_Asymmetry_Pilot,2022.1.3,Win32,60.0240096,62bbe60bf3d75ef465d3e404,0,5,5,147,1,twofour,,,,,,,,,,,,,,,,,,,,,,,,,,,,,,,,,,,,,,,,,,,,,,,,,,,,,,,,,,,,,,,,,,,,,,,,,,,,,,,,,,,,,,,,,,,,,,,,,,,,,,,,,,,,,,,,,,,,,,,,,,,,,,,,,,,,,,,,,,,,,,,,,,,,,,,,
,,,,,,617400ff07055d954515650f,62bbf945d007ed79f0fa9496,2022-06-29_09h04.02.268,Colour_Asymmetry_Pilot,2022.1.3,Win32,60.0240096,62bbe60bf3d75ef465d3e404,0,6,6,41,1,onethree,,,,,,,,,,,,,,,,,,,,,,,,,,,,,,,,,,,,,,,,,,,,,,,,,,,,,,,,,,,,,,,,,,,,,,,,,,,,,,,,,,,,,,,,,,,,,,,,,,,,,,,,,,,,,,,,,,,,,,,,,,,,,,,,,,,,,,,,,,,,,,,,,,,,,,,,
,,,,,,617400ff07055d954515650f,62bbf945d007ed79f0fa9496,2022-06-29_09h04.02.268,Colour_Asymmetry_Pilot,2022.1.3,Win32,60.0240096,62bbe60bf3d75ef465d3e404,0,7,7,22,1,fourtwo,,,,,,,,,,,,,,,,,,,,,,,,,,,,,,,,,,,,,,,,,,,,,,,,,,,,,,,,,,,,,,,,,,,,,,,,,,,,,,,,,,,,,,,,,,,,,,,,,,,,,,,,,,,,,,,,,,,,,,,,,,,,,,,,,,,,,,,,,,,,,,,,,,,,,,,,
,,,,,,617400ff07055d954515650f,62bbf945d007ed79f0fa9496,2022-06-29_09h04.02.268,Colour_Asymmetry_Pilot,2022.1.3,Win32,60.0240096,62bbe60bf3d75ef465d3e404,0,8,8,109,1,threefour,,,,,,,,,,,,,,,,,,,,,,,,,,,,,,,,,,,,,,,,,,,,,,,,,,,,,,,,,,,,,,,,,,,,,,,,,,,,,,,,,,,,,,,,,,,,,,,,,,,,,,,,,,,,,,,,,,,,,,,,,,,,,,,,,,,,,,,,,,,,,,,,,,,,,,,,
,,,,,,617400ff07055d954515650f,62bbf945d007ed79f0fa9496,2022-06-29_09h04.02.268,Colour_Asymmetry_Pilot,2022.1.3,Win32,60.0240096,62bbe60bf3d75ef465d3e404,0,9,9,10,1,twoone,,,,,,,,,,,,,,,,,,,,,,,,,,,,,,,,,,,,,,,,,,,,,,,,,,,,,,,,,,,,,,,,,,,,,,,,,,,,,,,,,,,,,,,,,,,,,,,,,,,,,,,,,,,,,,,,,,,,,,,,,,,,,,,,,,,,,,,,,,,,,,,,,,,,,,,,
,,,,,,617400ff07055d954515650f,62bbf945d007ed79f0fa9496,2022-06-29_09h04.02.268,Colour_Asymmetry_Pilot,2022.1.3,Win32,60.0240096,62bbe60bf3d75ef465d3e404,0,10,10,157,1,threefour,,,,,,,,,,,,,,,,,,,,,,,,,,,,,,,,,,,,,,,,,,,,,,,,,,,,,,,,,,,,,,,,,,,,,,,,,,,,,,,,,,,,,,,,,,,,,,,,,,,,,,,,,,,,,,,,,,,,,,,,,,,,,,,,,,,,,,,,,,,,,,,,,,,,,,,,
,,,,,,617400ff07055d954515650f,62bbf945d007ed79f0fa9496,2022-06-29_09h04.02.268,Colour_Asymmetry_Pilot,2022.1.3,Win32,60.0240096,62bbe60bf3d75ef465d3e404,0,11,11,13,1,threefour,,,,,,,,,,,,,,,,,,,,,,,,,,,,,,,,,,,,,,,,,,,,,,,,,,,,,,,,,,,,,,,,,,,,,,,,,,,,,,,,,,,,,,,,,,,,,,,,,,,,,,,,,,,,,,,,,,,,,,,,,,,,,,,,,,,,,,,,,,,,,,,,,,,,,,,,
,,,,,,617400ff07055d954515650f,62bbf945d007ed79f0fa9496,2022-06-29_09h04.02.268,Colour_Asymmetry_Pilot,2022.1.3,Win32,60.0240096,62bbe60bf3d75ef465d3e404,0,12,12,111,1,fourthree,,,,,,,,,,,,,,,,,,,,,,,,,,,,,,,,,,,,,,,,,,,,,,,,,,,,,,,,,,,,,,,,,,,,,,,,,,,,,,,,,,,,,,,,,,,,,,,,,,,,,,,,,,,,,,,,,,,,,,,,,,,,,,,,,,,,,,,,,,,,,,,,,,,,,,,,
,,,,,,617400ff07055d954515650f,62bbf945d007ed79f0fa9496,2022-06-29_09h04.02.268,Colour_Asymmetry_Pilot,2022.1.3,Win32,60.0240096,62bbe60bf3d75ef465d3e404,0,13,13,21,1,threefour,,,,,,,,,,,,,,,,,,,,,,,,,,,,,,,,,,,,,,,,,,,,,,,,,,,,,,,,,,,,,,,,,,,,,,,,,,,,,,,,,,,,,,,,,,,,,,,,,,,,,,,,,,,,,,,,,,,,,,,,,,,,,,,,,,,,,,,,,,,,,,,,,,,,,,,,
,,,,,,617400ff07055d954515650f,62bbf945d007ed79f0fa9496,2022-06-29_09h04.02.268,Colour_Asymmetry_Pilot,2022.1.3,Win32,60.0240096,62bbe60bf3d75ef465d3e404,0,14,14,113,1,onethree,,,,,,,,,,,,,,,,,,,,,,,,,,,,,,,,,,,,,,,,,,,,,,,,,,,,,,,,,,,,,,,,,,,,,,,,,,,,,,,,,,,,,,,,,,,,,,,,,,,,,,,,,,,,,,,,,,,,,,,,,,,,,,,,,,,,,,,,,,,,,,,,,,,,,,,,
,,,,,,617400ff07055d954515650f,62bbf945d007ed79f0fa9496,2022-06-29_09h04.02.268,Colour_Asymmetry_Pilot,2022.1.3,Win32,60.0240096,62bbe60bf3d75ef465d3e404,0,15,15,137,1,onethree,,,,,,,,,,,,,,,,,,,,,,,,,,,,,,,,,,,,,,,,,,,,,,,,,,,,,,,,,,,,,,,,,,,,,,,,,,,,,,,,,,,,,,,,,,,,,,,,,,,,,,,,,,,,,,,,,,,,,,,,,,,,,,,,,,,,,,,,,,,,,,,,,,,,,,,,
,,,,,,617400ff07055d954515650f,62bbf945d007ed79f0fa9496,2022-06-29_09h04.02.268,Colour_Asymmetry_Pilot,2022.1.3,Win32,60.0240096,62bbe60bf3d75ef465d3e404,0,16,16,12,1,threeone,,,,,,,,,,,,,,,,,,,,,,,,,,,,,,,,,,,,,,,,,,,,,,,,,,,,,,,,,,,,,,,,,,,,,,,,,,,,,,,,,,,,,,,,,,,,,,,,,,,,,,,,,,,,,,,,,,,,,,,,,,,,,,,,,,,,,,,,,,,,,,,,,,,,,,,,
,,,,,,617400ff07055d954515650f,62bbf945d007ed79f0fa9496,2022-06-29_09h04.02.268,Colour_Asymmetry_Pilot,2022.1.3,Win32,60.0240096,62bbe60bf3d75ef465d3e404,0,17,17,65,1,onethree,,,,,,,,,,,,,,,,,,,,,,,,,,,,,,,,,,,,,,,,,,,,,,,,,,,,,,,,,,,,,,,,,,,,,,,,,,,,,,,,,,,,,,,,,,,,,,,,,,,,,,,,,,,,,,,,,,,,,,,,,,,,,,,,,,,,,,,,,,,,,,,,,,,,,,,,
,,,,,,617400ff07055d954515650f,62bbf945d007ed79f0fa9496,2022-06-29_09h04.02.268,Colour_Asymmetry_Pilot,2022.1.3,Win32,60.0240096,62bbe60bf3d75ef465d3e404,0,18,18,158,1,fourtwo,,,,,,,,,,,,,,,,,,,,,,,,,,,,,,,,,,,,,,,,,,,,,,,,,,,,,,,,,,,,,,,,,,,,,,,,,,,,,,,,,,,,,,,,,,,,,,,,,,,,,,,,,,,,,,,,,,,,,,,,,,,,,,,,,,,,,,,,,,,,,,,,,,,,,,,,
,,,,,,617400ff07055d954515650f,62bbf945d007ed79f0fa9496,2022-06-29_09h04.02.268,Colour_Asymmetry_Pilot,2022.1.3,Win32,60.0240096,62bbe60bf3d75ef465d3e404,0,19,19,60,1,threeone,,,,,,,,,,,,,,,,,,,,,,,,,,,,,,,,,,,,,,,,,,,,,,,,,,,,,,,,,,,,,,,,,,,,,,,,,,,,,,,,,,,,,,,,,,,,,,,,,,,,,,,,,,,,,,,,,,,,,,,,,,,,,,,,,,,,,,,,,,,,,,,,,,,,,,,,
,,,,,,617400ff07055d954515650f,62bbf945d007ed79f0fa9496,2022-06-29_09h04.02.268,Colour_Asymmetry_Pilot,2022.1.3,Win32,60.0240096,62bbe60bf3d75ef465d3e404,0,20,20,46,1,fourtwo,,,,,,,,,,,,,,,,,,,,,,,,,,,,,,,,,,,,,,,,,,,,,,,,,,,,,,,,,,,,,,,,,,,,,,,,,,,,,,,,,,,,,,,,,,,,,,,,,,,,,,,,,,,,,,,,,,,,,,,,,,,,,,,,,,,,,,,,,,,,,,,,,,,,,,,,
,,,,,,617400ff07055d954515650f,62bbf945d007ed79f0fa9496,2022-06-29_09h04.02.268,Colour_Asymmetry_Pilot,2022.1.3,Win32,60.0240096,62bbe60bf3d75ef465d3e404,0,21,21,5,1,threefour,,,,,,,,,,,,,,,,,,,,,,,,,,,,,,,,,,,,,,,,,,,,,,,,,,,,,,,,,,,,,,,,,,,,,,,,,,,,,,,,,,,,,,,,,,,,,,,,,,,,,,,,,,,,,,,,,,,,,,,,,,,,,,,,,,,,,,,,,,,,,,,,,,,,,,,,
,,,,,,617400ff07055d954515650f,62bbf945d007ed79f0fa9496,2022-06-29_09h04.02.268,Colour_Asymmetry_Pilot,2022.1.3,Win32,60.0240096,62bbe60bf3d75ef465d3e404,0,22,22,51,1,twofour,,,,,,,,,,,,,,,,,,,,,,,,,,,,,,,,,,,,,,,,,,,,,,,,,,,,,,,,,,,,,,,,,,,,,,,,,,,,,,,,,,,,,,,,,,,,,,,,,,,,,,,,,,,,,,,,,,,,,,,,,,,,,,,,,,,,,,,,,,,,,,,,,,,,,,,,
,,,,,,617400ff07055d954515650f,62bbf945d007ed79f0fa9496,2022-06-29_09h04.02.268,Colour_Asymmetry_Pilot,2022.1.3,Win32,60.0240096,62bbe60bf3d75ef465d3e404,0,23,23,32,1,onetwo,,,,,,,,,,,,,,,,,,,,,,,,,,,,,,,,,,,,,,,,,,,,,,,,,,,,,,,,,,,,,,,,,,,,,,,,,,,,,,,,,,,,,,,,,,,,,,,,,,,,,,,,,,,,,,,,,,,,,,,,,,,,,,,,,,,,,,,,,,,,,,,,,,,,,,,,
,,,,,,617400ff07055d954515650f,62bbf945d007ed79f0fa9496,2022-06-29_09h04.02.268,Colour_Asymmetry_Pilot,2022.1.3,Win32,60.0240096,62bbe60bf3d75ef465d3e404,0,24,24,142,1,fourtwo,,,,,,,,,,,,,,,,,,,,,,,,,,,,,,,,,,,,,,,,,,,,,,,,,,,,,,,,,,,,,,,,,,,,,,,,,,,,,,,,,,,,,,,,,,,,,,,,,,,,,,,,,,,,,,,,,,,,,,,,,,,,,,,,,,,,,,,,,,,,,,,,,,,,,,,,
,,,,,,617400ff07055d954515650f,62bbf945d007ed79f0fa9496,2022-06-29_09h04.02.268,Colour_Asymmetry_Pilot,2022.1.3,Win32,60.0240096,62bbe60bf3d75ef465d3e404,0,25,25,80,1,onetwo,,,,,,,,,,,,,,,,,,,,,,,,,,,,,,,,,,,,,,,,,,,,,,,,,,,,,,,,,,,,,,,,,,,,,,,,,,,,,,,,,,,,,,,,,,,,,,,,,,,,,,,,,,,,,,,,,,,,,,,,,,,,,,,,,,,,,,,,,,,,,,,,,,,,,,,,
,,,,,,617400ff07055d954515650f,62bbf945d007ed79f0fa9496,2022-06-29_09h04.02.268,Colour_Asymmetry_Pilot,2022.1.3,Win32,60.0240096,62bbe60bf3d75ef465d3e404,0,26,26,37,1,threefour,,,,,,,,,,,,,,,,,,,,,,,,,,,,,,,,,,,,,,,,,,,,,,,,,,,,,,,,,,,,,,,,,,,,,,,,,,,,,,,,,,,,,,,,,,,,,,,,,,,,,,,,,,,,,,,,,,,,,,,,,,,,,,,,,,,,,,,,,,,,,,,,,,,,,,,,
,,,,,,617400ff07055d954515650f,62bbf945d007ed79f0fa9496,2022-06-29_09h04.02.268,Colour_Asymmetry_Pilot,2022.1.3,Win32,60.0240096,62bbe60bf3d75ef465d3e404,0,27,27,156,1,threeone,,,,,,,,,,,,,,,,,,,,,,,,,,,,,,,,,,,,,,,,,,,,,,,,,,,,,,,,,,,,,,,,,,,,,,,,,,,,,,,,,,,,,,,,,,,,,,,,,,,,,,,,,,,,,,,,,,,,,,,,,,,,,,,,,,,,,,,,,,,,,,,,,,,,,,,,
,,,,,,617400ff07055d954515650f,62bbf945d007ed79f0fa9496,2022-06-29_09h04.02.268,Colour_Asymmetry_Pilot,2022.1.3,Win32,60.0240096,62bbe60bf3d75ef465d3e404,0,28,28,134,1,fourtwo,,,,,,,,,,,,,,,,,,,,,,,,,,,,,,,,,,,,,,,,,,,,,,,,,,,,,,,,,,,,,,,,,,,,,,,,,,,,,,,,,,,,,,,,,,,,,,,,,,,,,,,,,,,,,,,,,,,,,,,,,,,,,,,,,,,,,,,,,,,,,,,,,,,,,,,,
,,,,,,617400ff07055d954515650f,62bbf945d007ed79f0fa9496,2022-06-29_09h04.02.268,Colour_Asymmetry_Pilot,2022.1.3,Win32,60.0240096,62bbe60bf3d75ef465d3e404,0,29,29,121,1,onethree,,,,,,,,,,,,,,,,,,,,,,,,,,,,,,,,,,,,,,,,,,,,,,,,,,,,,,,,,,,,,,,,,,,,,,,,,,,,,,,,,,,,,,,,,,,,,,,,,,,,,,,,,,,,,,,,,,,,,,,,,,,,,,,,,,,,,,,,,,,,,,,,,,,,,,,,
,,,,,,617400ff07055d954515650f,62bbf945d007ed79f0fa9496,2022-06-29_09h04.02.268,Colour_Asymmetry_Pilot,2022.1.3,Win32,60.0240096,62bbe60bf3d75ef465d3e404,0,30,30,103,1,fourthree,,,,,,,,,,,,,,,,,,,,,,,,,,,,,,,,,,,,,,,,,,,,,,,,,,,,,,,,,,,,,,,,,,,,,,,,,,,,,,,,,,,,,,,,,,,,,,,,,,,,,,,,,,,,,,,,,,,,,,,,,,,,,,,,,,,,,,,,,,,,,,,,,,,,,,,,
,,,,,,617400ff07055d954515650f,62bbf945d007ed79f0fa9496,2022-06-29_09h04.02.268,Colour_Asymmetry_Pilot,2022.1.3,Win32,60.0240096,62bbe60bf3d75ef465d3e404,0,31,31,18,1,twoone,,,,,,,,,,,,,,,,,,,,,,,,,,,,,,,,,,,,,,,,,,,,,,,,,,,,,,,,,,,,,,,,,,,,,,,,,,,,,,,,,,,,,,,,,,,,,,,,,,,,,,,,,,,,,,,,,,,,,,,,,,,,,,,,,,,,,,,,,,,,,,,,,,,,,,,,
,,,,,,617400ff07055d954515650f,62bbf945d007ed79f0fa9496,2022-06-29_09h04.02.268,Colour_Asymmetry_Pilot,2022.1.3,Win32,60.0240096,62bbe60bf3d75ef465d3e404,0,32,32,58,1,twoone,,,,,,,,,,,,,,,,,,,,,,,,,,,,,,,,,,,,,,,,,,,,,,,,,,,,,,,,,,,,,,,,,,,,,,,,,,,,,,,,,,,,,,,,,,,,,,,,,,,,,,,,,,,,,,,,,,,,,,,,,,,,,,,,,,,,,,,,,,,,,,,,,,,,,,,,
,,,,,,617400ff07055d954515650f,62bbf945d007ed79f0fa9496,2022-06-29_09h04.02.268,Colour_Asymmetry_Pilot,2022.1.3,Win32,60.0240096,62bbe60bf3d75ef465d3e404,0,33,33,127,1,fourthree,,,,,,,,,,,,,,,,,,,,,,,,,,,,,,,,,,,,,,,,,,,,,,,,,,,,,,,,,,,,,,,,,,,,,,,,,,,,,,,,,,,,,,,,,,,,,,,,,,,,,,,,,,,,,,,,,,,,,,,,,,,,,,,,,,,,,,,,,,,,,,,,,,,,,,,,
,,,,,,617400ff07055d954515650f,62bbf945d007ed79f0fa9496,2022-06-29_09h04.02.268,Colour_Asymmetry_Pilot,2022.1.3,Win32,60.0240096,62bbe60bf3d75ef465d3e404,0,34,34,35,1,twofour,,,,,,,,,,,,,,,,,,,,,,,,,,,,,,,,,,,,,,,,,,,,,,,,,,,,,,,,,,,,,,,,,,,,,,,,,,,,,,,,,,,,,,,,,,,,,,,,,,,,,,,,,,,,,,,,,,,,,,,,,,,,,,,,,,,,,,,,,,,,,,,,,,,,,,,,
,,,,,,617400ff07055d954515650f,62bbf945d007ed79f0fa9496,2022-06-29_09h04.02.268,Colour_Asymmetry_Pilot,2022.1.3,Win32,60.0240096,62bbe60bf3d75ef465d3e404,0,35,35,43,1,twofour,,,,,,,,,,,,,,,,,,,,,,,,,,,,,,,,,,,,,,,,,,,,,,,,,,,,,,,,,,,,,,,,,,,,,,,,,,,,,,,,,,,,,,,,,,,,,,,,,,,,,,,,,,,,,,,,,,,,,,,,,,,,,,,,,,,,,,,,,,,,,,,,,,,,,,,,
,,,,,,617400ff07055d954515650f,62bbf945d007ed79f0fa9496,2022-06-29_09h04.02.268,Colour_Asymmetry_Pilot,2022.1.3,Win32,60.0240096,62bbe60bf3d75ef465d3e404,0,36,36,124,1,threeone,,,,,,,,,,,,,,,,,,,,,,,,,,,,,,,,,,,,,,,,,,,,,,,,,,,,,,,,,,,,,,,,,,,,,,,,,,,,,,,,,,,,,,,,,,,,,,,,,,,,,,,,,,,,,,,,,,,,,,,,,,,,,,,,,,,,,,,,,,,,,,,,,,,,,,,,
,,,,,,617400ff07055d954515650f,62bbf945d007ed79f0fa9496,2022-06-29_09h04.02.268,Colour_Asymmetry_Pilot,2022.1.3,Win32,60.0240096,62bbe60bf3d75ef465d3e404,0,37,37,76,1,threeone,,,,,,,,,,,,,,,,,,,,,,,,,,,,,,,,,,,,,,,,,,,,,,,,,,,,,,,,,,,,,,,,,,,,,,,,,,,,,,,,,,,,,,,,,,,,,,,,,,,,,,,,,,,,,,,,,,,,,,,,,,,,,,,,,,,,,,,,,,,,,,,,,,,,,,,,
,,,,,,617400ff07055d954515650f,62bbf945d007ed79f0fa9496,2022-06-29_09h04.02.268,Colour_Asymmetry_Pilot,2022.1.3,Win32,60.0240096,62bbe60bf3d75ef465d3e404,0,38,38,135,1,fourthree,,,,,,,,,,,,,,,,,,,,,,,,,,,,,,,,,,,,,,,,,,,,,,,,,,,,,,,,,,,,,,,,,,,,,,,,,,,,,,,,,,,,,,,,,,,,,,,,,,,,,,,,,,,,,,,,,,,,,,,,,,,,,,,,,,,,,,,,,,,,,,,,,,,,,,,,
,,,,,,617400ff07055d954515650f,62bbf945d007ed79f0fa9496,2022-06-29_09h04.02.268,Colour_Asymmetry_Pilot,2022.1.3,Win32,60.0240096,62bbe60bf3d75ef465d3e404,0,39,39,62,1,fourtwo,,,,,,,,,,,,,,,,,,,,,,,,,,,,,,,,,,,,,,,,,,,,,,,,,,,,,,,,,,,,,,,,,,,,,,,,,,,,,,,,,,,,,,,,,,,,,,,,,,,,,,,,,,,,,,,,,,,,,,,,,,,,,,,,,,,,,,,,,,,,,,,,,,,,,,,,
,,,,,,617400ff07055d954515650f,62bbf945d007ed79f0fa9496,2022-06-29_09h04.02.268,Colour_Asymmetry_Pilot,2022.1.3,Win32,60.0240096,62bbe60bf3d75ef465d3e404,0,40,40,67,1,twofour,,,,,,,,,,,,,,,,,,,,,,,,,,,,,,,,,,,,,,,,,,,,,,,,,,,,,,,,,,,,,,,,,,,,,,,,,,,,,,,,,,,,,,,,,,,,,,,,,,,,,,,,,,,,,,,,,,,,,,,,,,,,,,,,,,,,,,,,,,,,,,,,,,,,,,,,
,,,,,,617400ff07055d954515650f,62bbf945d007ed79f0fa9496,2022-06-29_09h04.02.268,Colour_Asymmetry_Pilot,2022.1.3,Win32,60.0240096,62bbe60bf3d75ef465d3e404,0,41,41,105,1,onethree,,,,,,,,,,,,,,,,,,,,,,,,,,,,,,,,,,,,,,,,,,,,,,,,,,,,,,,,,,,,,,,,,,,,,,,,,,,,,,,,,,,,,,,,,,,,,,,,,,,,,,,,,,,,,,,,,,,,,,,,,,,,,,,,,,,,,,,,,,,,,,,,,,,,,,,,
,,,,,,617400ff07055d954515650f,62bbf945d007ed79f0fa9496,2022-06-29_09h04.02.268,Colour_Asymmetry_Pilot,2022.1.3,Win32,60.0240096,62bbe60bf3d75ef465d3e404,0,42,42,123,1,twofour,,,,,,,,,,,,,,,,,,,,,,,,,,,,,,,,,,,,,,,,,,,,,,,,,,,,,,,,,,,,,,,,,,,,,,,,,,,,,,,,,,,,,,,,,,,,,,,,,,,,,,,,,,,,,,,,,,,,,,,,,,,,,,,,,,,,,,,,,,,,,,,,,,,,,,,,
,,,,,,617400ff07055d954515650f,62bbf945d007ed79f0fa9496,2022-06-29_09h04.02.268,Colour_Asymmetry_Pilot,2022.1.3,Win32,60.0240096,62bbe60bf3d75ef465d3e404,0,43,43,72,1,onetwo,,,,,,,,,,,,,,,,,,,,,,,,,,,,,,,,,,,,,,,,,,,,,,,,,,,,,,,,,,,,,,,,,,,,,,,,,,,,,,,,,,,,,,,,,,,,,,,,,,,,,,,,,,,,,,,,,,,,,,,,,,,,,,,,,,,,,,,,,,,,,,,,,,,,,,,,
,,,,,,617400ff07055d954515650f,62bbf945d007ed79f0fa9496,2022-06-29_09h04.02.268,Colour_Asymmetry_Pilot,2022.1.3,Win32,60.0240096,62bbe60bf3d75ef465d3e404,0,44,44,3,1,twofour,,,,,,,,,,,,,,,,,,,,,,,,,,,,,,,,,,,,,,,,,,,,,,,,,,,,,,,,,,,,,,,,,,,,,,,,,,,,,,,,,,,,,,,,,,,,,,,,,,,,,,,,,,,,,,,,,,,,,,,,,,,,,,,,,,,,,,,,,,,,,,,,,,,,,,,,
,,,,,,617400ff07055d954515650f,62bbf945d007ed79f0fa9496,2022-06-29_09h04.02.268,Colour_Asymmetry_Pilot,2022.1.3,Win32,60.0240096,62bbe60bf3d75ef465d3e404,0,45,45,1,1,onethree,,,,,,,,,,,,,,,,,,,,,,,,,,,,,,,,,,,,,,,,,,,,,,,,,,,,,,,,,,,,,,,,,,,,,,,,,,,,,,,,,,,,,,,,,,,,,,,,,,,,,,,,,,,,,,,,,,,,,,,,,,,,,,,,,,,,,,,,,,,,,,,,,,,,,,,,
,,,,,,617400ff07055d954515650f,62bbf945d007ed79f0fa9496,2022-06-29_09h04.02.268,Colour_Asymmetry_Pilot,2022.1.3,Win32,60.0240096,62bbe60bf3d75ef465d3e404,0,46,46,150,1,fourtwo,,,,,,,,,,,,,,,,,,,,,,,,,,,,,,,,,,,,,,,,,,,,,,,,,,,,,,,,,,,,,,,,,,,,,,,,,,,,,,,,,,,,,,,,,,,,,,,,,,,,,,,,,,,,,,,,,,,,,,,,,,,,,,,,,,,,,,,,,,,,,,,,,,,,,,,,
,,,,,,617400ff07055d954515650f,62bbf945d007ed79f0fa9496,2022-06-29_09h04.02.268,Colour_Asymmetry_Pilot,2022.1.3,Win32,60.0240096,62bbe60bf3d75ef465d3e404,0,47,47,117,1,threefour,,,,,,,,,,,,,,,,,,,,,,,,,,,,,,,,,,,,,,,,,,,,,,,,,,,,,,,,,,,,,,,,,,,,,,,,,,,,,,,,,,,,,,,,,,,,,,,,,,,,,,,,,,,,,,,,,,,,,,,,,,,,,,,,,,,,,,,,,,,,,,,,,,,,,,,,
,,,,,,617400ff07055d954515650f,62bbf945d007ed79f0fa9496,2022-06-29_09h04.02.268,Colour_Asymmetry_Pilot,2022.1.3,Win32,60.0240096,62bbe60bf3d75ef465d3e404,0,48,48,73,1,onethree,,,,,,,,,,,,,,,,,,,,,,,,,,,,,,,,,,,,,,,,,,,,,,,,,,,,,,,,,,,,,,,,,,,,,,,,,,,,,,,,,,,,,,,,,,,,,,,,,,,,,,,,,,,,,,,,,,,,,,,,,,,,,,,,,,,,,,,,,,,,,,,,,,,,,,,,
,,,,,,617400ff07055d954515650f,62bbf945d007ed79f0fa9496,2022-06-29_09h04.02.268,Colour_Asymmetry_Pilot,2022.1.3,Win32,60.0240096,62bbe60bf3d75ef465d3e404,0,49,49,106,1,twoone,,,,,,,,,,,,,,,,,,,,,,,,,,,,,,,,,,,,,,,,,,,,,,,,,,,,,,,,,,,,,,,,,,,,,,,,,,,,,,,,,,,,,,,,,,,,,,,,,,,,,,,,,,,,,,,,,,,,,,,,,,,,,,,,,,,,,,,,,,,,,,,,,,,,,,,,
,,,,,,617400ff07055d954515650f,62bbf945d007ed79f0fa9496,2022-06-29_09h04.02.268,Colour_Asymmetry_Pilot,2022.1.3,Win32,60.0240096,62bbe60bf3d75ef465d3e404,0,50,50,152,1,onetwo,,,,,,,,,,,,,,,,,,,,,,,,,,,,,,,,,,,,,,,,,,,,,,,,,,,,,,,,,,,,,,,,,,,,,,,,,,,,,,,,,,,,,,,,,,,,,,,,,,,,,,,,,,,,,,,,,,,,,,,,,,,,,,,,,,,,,,,,,,,,,,,,,,,,,,,,
,,,,,,617400ff07055d954515650f,62bbf945d007ed79f0fa9496,2022-06-29_09h04.02.268,Colour_Asymmetry_Pilot,2022.1.3,Win32,60.0240096,62bbe60bf3d75ef465d3e404,0,51,51,116,1,threeone,,,,,,,,,,,,,,,,,,,,,,,,,,,,,,,,,,,,,,,,,,,,,,,,,,,,,,,,,,,,,,,,,,,,,,,,,,,,,,,,,,,,,,,,,,,,,,,,,,,,,,,,,,,,,,,,,,,,,,,,,,,,,,,,,,,,,,,,,,,,,,,,,,,,,,,,
,,,,,,617400ff07055d954515650f,62bbf945d007ed79f0fa9496,2022-06-29_09h04.02.268,Colour_Asymmetry_Pilot,2022.1.3,Win32,60.0240096,62bbe60bf3d75ef465d3e404,0,52,52,6,1,fourtwo,,,,,,,,,,,,,,,,,,,,,,,,,,,,,,,,,,,,,,,,,,,,,,,,,,,,,,,,,,,,,,,,,,,,,,,,,,,,,,,,,,,,,,,,,,,,,,,,,,,,,,,,,,,,,,,,,,,,,,,,,,,,,,,,,,,,,,,,,,,,,,,,,,,,,,,,
,,,,,,617400ff07055d954515650f,62bbf945d007ed79f0fa9496,2022-06-29_09h04.02.268,Colour_Asymmetry_Pilot,2022.1.3,Win32,60.0240096,62bbe60bf3d75ef465d3e404,0,53,53,131,1,twofour,,,,,,,,,,,,,,,,,,,,,,,,,,,,,,,,,,,,,,,,,,,,,,,,,,,,,,,,,,,,,,,,,,,,,,,,,,,,,,,,,,,,,,,,,,,,,,,,,,,,,,,,,,,,,,,,,,,,,,,,,,,,,,,,,,,,,,,,,,,,,,,,,,,,,,,,
,,,,,,617400ff07055d954515650f,62bbf945d007ed79f0fa9496,2022-06-29_09h04.02.268,Colour_Asymmetry_Pilot,2022.1.3,Win32,60.0240096,62bbe60bf3d75ef465d3e404,0,54,54,0,1,onetwo,,,,,,,,,,,,,,,,,,,,,,,,,,,,,,,,,,,,,,,,,,,,,,,,,,,,,,,,,,,,,,,,,,,,,,,,,,,,,,,,,,,,,,,,,,,,,,,,,,,,,,,,,,,,,,,,,,,,,,,,,,,,,,,,,,,,,,,,,,,,,,,,,,,,,,,,
,,,,,,617400ff07055d954515650f,62bbf945d007ed79f0fa9496,2022-06-29_09h04.02.268,Colour_Asymmetry_Pilot,2022.1.3,Win32,60.0240096,62bbe60bf3d75ef465d3e404,0,55,55,130,1,twoone,,,,,,,,,,,,,,,,,,,,,,,,,,,,,,,,,,,,,,,,,,,,,,,,,,,,,,,,,,,,,,,,,,,,,,,,,,,,,,,,,,,,,,,,,,,,,,,,,,,,,,,,,,,,,,,,,,,,,,,,,,,,,,,,,,,,,,,,,,,,,,,,,,,,,,,,
,,,,,,617400ff07055d954515650f,62bbf945d007ed79f0fa9496,2022-06-29_09h04.02.268,Colour_Asymmetry_Pilot,2022.1.3,Win32,60.0240096,62bbe60bf3d75ef465d3e404,0,56,56,140,1,threeone,,,,,,,,,,,,,,,,,,,,,,,,,,,,,,,,,,,,,,,,,,,,,,,,,,,,,,,,,,,,,,,,,,,,,,,,,,,,,,,,,,,,,,,,,,,,,,,,,,,,,,,,,,,,,,,,,,,,,,,,,,,,,,,,,,,,,,,,,,,,,,,,,,,,,,,,
,,,,,,617400ff07055d954515650f,62bbf945d007ed79f0fa9496,2022-06-29_09h04.02.268,Colour_Asymmetry_Pilot,2022.1.3,Win32,60.0240096,62bbe60bf3d75ef465d3e404,0,57,57,85,1,threefour,,,,,,,,,,,,,,,,,,,,,,,,,,,,,,,,,,,,,,,,,,,,,,,,,,,,,,,,,,,,,,,,,,,,,,,,,,,,,,,,,,,,,,,,,,,,,,,,,,,,,,,,,,,,,,,,,,,,,,,,,,,,,,,,,,,,,,,,,,,,,,,,,,,,,,,,
,,,,,,617400ff07055d954515650f,62bbf945d007ed79f0fa9496,2022-06-29_09h04.02.268,Colour_Asymmetry_Pilot,2022.1.3,Win32,60.0240096,62bbe60bf3d75ef465d3e404,0,58,58,153,1,onethree,,,,,,,,,,,,,,,,,,,,,,,,,,,,,,,,,,,,,,,,,,,,,,,,,,,,,,,,,,,,,,,,,,,,,,,,,,,,,,,,,,,,,,,,,,,,,,,,,,,,,,,,,,,,,,,,,,,,,,,,,,,,,,,,,,,,,,,,,,,,,,,,,,,,,,,,
,,,,,,617400ff07055d954515650f,62bbf945d007ed79f0fa9496,2022-06-29_09h04.02.268,Colour_Asymmetry_Pilot,2022.1.3,Win32,60.0240096,62bbe60bf3d75ef465d3e404,0,59,59,101,1,threefour,,,,,,,,,,,,,,,,,,,,,,,,,,,,,,,,,,,,,,,,,,,,,,,,,,,,,,,,,,,,,,,,,,,,,,,,,,,,,,,,,,,,,,,,,,,,,,,,,,,,,,,,,,,,,,,,,,,,,,,,,,,,,,,,,,,,,,,,,,,,,,,,,,,,,,,,
,,,,,,617400ff07055d954515650f,62bbf945d007ed79f0fa9496,2022-06-29_09h04.02.268,Colour_Asymmetry_Pilot,2022.1.3,Win32,60.0240096,62bbe60bf3d75ef465d3e404,0,60,60,151,1,fourthree,,,,,,,,,,,,,,,,,,,,,,,,,,,,,,,,,,,,,,,,,,,,,,,,,,,,,,,,,,,,,,,,,,,,,,,,,,,,,,,,,,,,,,,,,,,,,,,,,,,,,,,,,,,,,,,,,,,,,,,,,,,,,,,,,,,,,,,,,,,,,,,,,,,,,,,,
,,,,,,617400ff07055d954515650f,62bbf945d007ed79f0fa9496,2022-06-29_09h04.02.268,Colour_Asymmetry_Pilot,2022.1.3,Win32,60.0240096,62bbe60bf3d75ef465d3e404,0,61,61,74,1,twoone,,,,,,,,,,,,,,,,,,,,,,,,,,,,,,,,,,,,,,,,,,,,,,,,,,,,,,,,,,,,,,,,,,,,,,,,,,,,,,,,,,,,,,,,,,,,,,,,,,,,,,,,,,,,,,,,,,,,,,,,,,,,,,,,,,,,,,,,,,,,,,,,,,,,,,,,
,,,,,,617400ff07055d954515650f,62bbf945d007ed79f0fa9496,2022-06-29_09h04.02.268,Colour_Asymmetry_Pilot,2022.1.3,Win32,60.0240096,62bbe60bf3d75ef465d3e404,0,62,62,50,1,twoone,,,,,,,,,,,,,,,,,,,,,,,,,,,,,,,,,,,,,,,,,,,,,,,,,,,,,,,,,,,,,,,,,,,,,,,,,,,,,,,,,,,,,,,,,,,,,,,,,,,,,,,,,,,,,,,,,,,,,,,,,,,,,,,,,,,,,,,,,,,,,,,,,,,,,,,,
,,,,,,617400ff07055d954515650f,62bbf945d007ed79f0fa9496,2022-06-29_09h04.02.268,Colour_Asymmetry_Pilot,2022.1.3,Win32,60.0240096,62bbe60bf3d75ef465d3e404,0,63,63,30,1,fourtwo,,,,,,,,,,,,,,,,,,,,,,,,,,,,,,,,,,,,,,,,,,,,,,,,,,,,,,,,,,,,,,,,,,,,,,,,,,,,,,,,,,,,,,,,,,,,,,,,,,,,,,,,,,,,,,,,,,,,,,,,,,,,,,,,,,,,,,,,,,,,,,,,,,,,,,,,
,,,,,,617400ff07055d954515650f,62bbf945d007ed79f0fa9496,2022-06-29_09h04.02.268,Colour_Asymmetry_Pilot,2022.1.3,Win32,60.0240096,62bbe60bf3d75ef465d3e404,0,64,64,53,1,threefour,,,,,,,,,,,,,,,,,,,,,,,,,,,,,,,,,,,,,,,,,,,,,,,,,,,,,,,,,,,,,,,,,,,,,,,,,,,,,,,,,,,,,,,,,,,,,,,,,,,,,,,,,,,,,,,,,,,,,,,,,,,,,,,,,,,,,,,,,,,,,,,,,,,,,,,,
,,,,,,617400ff07055d954515650f,62bbf945d007ed79f0fa9496,2022-06-29_09h04.02.268,Colour_Asymmetry_Pilot,2022.1.3,Win32,60.0240096,62bbe60bf3d75ef465d3e404,0,65,65,126,1,fourtwo,,,,,,,,,,,,,,,,,,,,,,,,,,,,,,,,,,,,,,,,,,,,,,,,,,,,,,,,,,,,,,,,,,,,,,,,,,,,,,,,,,,,,,,,,,,,,,,,,,,,,,,,,,,,,,,,,,,,,,,,,,,,,,,,,,,,,,,,,,,,,,,,,,,,,,,,
,,,,,,617400ff07055d954515650f,62bbf945d007ed79f0fa9496,2022-06-29_09h04.02.268,Colour_Asymmetry_Pilot,2022.1.3,Win32,60.0240096,62bbe60bf3d75ef465d3e404,0,66,66,15,1,fourthree,,,,,,,,,,,,,,,,,,,,,,,,,,,,,,,,,,,,,,,,,,,,,,,,,,,,,,,,,,,,,,,,,,,,,,,,,,,,,,,,,,,,,,,,,,,,,,,,,,,,,,,,,,,,,,,,,,,,,,,,,,,,,,,,,,,,,,,,,,,,,,,,,,,,,,,,
,,,,,,617400ff07055d954515650f,62bbf945d007ed79f0fa9496,2022-06-29_09h04.02.268,Colour_Asymmetry_Pilot,2022.1.3,Win32,60.0240096,62bbe60bf3d75ef465d3e404,0,67,67,38,1,fourtwo,,,,,,,,,,,,,,,,,,,,,,,,,,,,,,,,,,,,,,,,,,,,,,,,,,,,,,,,,,,,,,,,,,,,,,,,,,,,,,,,,,,,,,,,,,,,,,,,,,,,,,,,,,,,,,,,,,,,,,,,,,,,,,,,,,,,,,,,,,,,,,,,,,,,,,,,
,,,,,,617400ff07055d954515650f,62bbf945d007ed79f0fa9496,2022-06-29_09h04.02.268,Colour_Asymmetry_Pilot,2022.1.3,Win32,60.0240096,62bbe60bf3d75ef465d3e404,0,68,68,79,1,fourthree,,,,,,,,,,,,,,,,,,,,,,,,,,,,,,,,,,,,,,,,,,,,,,,,,,,,,,,,,,,,,,,,,,,,,,,,,,,,,,,,,,,,,,,,,,,,,,,,,,,,,,,,,,,,,,,,,,,,,,,,,,,,,,,,,,,,,,,,,,,,,,,,,,,,,,,,
,,,,,,617400ff07055d954515650f,62bbf945d007ed79f0fa9496,2022-06-29_09h04.02.268,Colour_Asymmetry_Pilot,2022.1.3,Win32,60.0240096,62bbe60bf3d75ef465d3e404,0,69,69,59,1,twofour,,,,,,,,,,,,,,,,,,,,,,,,,,,,,,,,,,,,,,,,,,,,,,,,,,,,,,,,,,,,,,,,,,,,,,,,,,,,,,,,,,,,,,,,,,,,,,,,,,,,,,,,,,,,,,,,,,,,,,,,,,,,,,,,,,,,,,,,,,,,,,,,,,,,,,,,
,,,,,,617400ff07055d954515650f,62bbf945d007ed79f0fa9496,2022-06-29_09h04.02.268,Colour_Asymmetry_Pilot,2022.1.3,Win32,60.0240096,62bbe60bf3d75ef465d3e404,0,70,70,82,1,twoone,,,,,,,,,,,,,,,,,,,,,,,,,,,,,,,,,,,,,,,,,,,,,,,,,,,,,,,,,,,,,,,,,,,,,,,,,,,,,,,,,,,,,,,,,,,,,,,,,,,,,,,,,,,,,,,,,,,,,,,,,,,,,,,,,,,,,,,,,,,,,,,,,,,,,,,,
,,,,,,617400ff07055d954515650f,62bbf945d007ed79f0fa9496,2022-06-29_09h04.02.268,Colour_Asymmetry_Pilot,2022.1.3,Win32,60.0240096,62bbe60bf3d75ef465d3e404,0,71,71,100,1,threeone,,,,,,,,,,,,,,,,,,,,,,,,,,,,,,,,,,,,,,,,,,,,,,,,,,,,,,,,,,,,,,,,,,,,,,,,,,,,,,,,,,,,,,,,,,,,,,,,,,,,,,,,,,,,,,,,,,,,,,,,,,,,,,,,,,,,,,,,,,,,,,,,,,,,,,,,
,,,,,,617400ff07055d954515650f,62bbf945d007ed79f0fa9496,2022-06-29_09h04.02.268,Colour_Asymmetry_Pilot,2022.1.3,Win32,60.0240096,62bbe60bf3d75ef465d3e404,0,72,72,95,1,fourthree,,,,,,,,,,,,,,,,,,,,,,,,,,,,,,,,,,,,,,,,,,,,,,,,,,,,,,,,,,,,,,,,,,,,,,,,,,,,,,,,,,,,,,,,,,,,,,,,,,,,,,,,,,,,,,,,,,,,,,,,,,,,,,,,,,,,,,,,,,,,,,,,,,,,,,,,
,,,,,,617400ff07055d954515650f,62bbf945d007ed79f0fa9496,2022-06-29_09h04.02.268,Colour_Asymmetry_Pilot,2022.1.3,Win32,60.0240096,62bbe60bf3d75ef465d3e404,0,73,73,107,1,twofour,,,,,,,,,,,,,,,,,,,,,,,,,,,,,,,,,,,,,,,,,,,,,,,,,,,,,,,,,,,,,,,,,,,,,,,,,,,,,,,,,,,,,,,,,,,,,,,,,,,,,,,,,,,,,,,,,,,,,,,,,,,,,,,,,,,,,,,,,,,,,,,,,,,,,,,,
,,,,,,617400ff07055d954515650f,62bbf945d007ed79f0fa9496,2022-06-29_09h04.02.268,Colour_Asymmetry_Pilot,2022.1.3,Win32,60.0240096,62bbe60bf3d75ef465d3e404,0,74,74,102,1,fourtwo,,,,,,,,,,,,,,,,,,,,,,,,,,,,,,,,,,,,,,,,,,,,,,,,,,,,,,,,,,,,,,,,,,,,,,,,,,,,,,,,,,,,,,,,,,,,,,,,,,,,,,,,,,,,,,,,,,,,,,,,,,,,,,,,,,,,,,,,,,,,,,,,,,,,,,,,
,,,,,,617400ff07055d954515650f,62bbf945d007ed79f0fa9496,2022-06-29_09h04.02.268,Colour_Asymmetry_Pilot,2022.1.3,Win32,60.0240096,62bbe60bf3d75ef465d3e404,0,75,75,66,1,twoone,,,,,,,,,,,,,,,,,,,,,,,,,,,,,,,,,,,,,,,,,,,,,,,,,,,,,,,,,,,,,,,,,,,,,,,,,,,,,,,,,,,,,,,,,,,,,,,,,,,,,,,,,,,,,,,,,,,,,,,,,,,,,,,,,,,,,,,,,,,,,,,,,,,,,,,,
,,,,,,617400ff07055d954515650f,62bbf945d007ed79f0fa9496,2022-06-29_09h04.02.268,Colour_Asymmetry_Pilot,2022.1.3,Win32,60.0240096,62bbe60bf3d75ef465d3e404,0,76,76,91,1,twofour,,,,,,,,,,,,,,,,,,,,,,,,,,,,,,,,,,,,,,,,,,,,,,,,,,,,,,,,,,,,,,,,,,,,,,,,,,,,,,,,,,,,,,,,,,,,,,,,,,,,,,,,,,,,,,,,,,,,,,,,,,,,,,,,,,,,,,,,,,,,,,,,,,,,,,,,
,,,,,,617400ff07055d954515650f,62bbf945d007ed79f0fa9496,2022-06-29_09h04.02.268,Colour_Asymmetry_Pilot,2022.1.3,Win32,60.0240096,62bbe60bf3d75ef465d3e404,0,77,77,108,1,threeone,,,,,,,,,,,,,,,,,,,,,,,,,,,,,,,,,,,,,,,,,,,,,,,,,,,,,,,,,,,,,,,,,,,,,,,,,,,,,,,,,,,,,,,,,,,,,,,,,,,,,,,,,,,,,,,,,,,,,,,,,,,,,,,,,,,,,,,,,,,,,,,,,,,,,,,,
,,,,,,617400ff07055d954515650f,62bbf945d007ed79f0fa9496,2022-06-29_09h04.02.268,Colour_Asymmetry_Pilot,2022.1.3,Win32,60.0240096,62bbe60bf3d75ef465d3e404,0,78,78,149,1,threefour,,,,,,,,,,,,,,,,,,,,,,,,,,,,,,,,,,,,,,,,,,,,,,,,,,,,,,,,,,,,,,,,,,,,,,,,,,,,,,,,,,,,,,,,,,,,,,,,,,,,,,,,,,,,,,,,,,,,,,,,,,,,,,,,,,,,,,,,,,,,,,,,,,,,,,,,
,,,,,,617400ff07055d954515650f,62bbf945d007ed79f0fa9496,2022-06-29_09h04.02.268,Colour_Asymmetry_Pilot,2022.1.3,Win32,60.0240096,62bbe60bf3d75ef465d3e404,0,79,79,56,1,onetwo,,,,,,,,,,,,,,,,,,,,,,,,,,,,,,,,,,,,,,,,,,,,,,,,,,,,,,,,,,,,,,,,,,,,,,,,,,,,,,,,,,,,,,,,,,,,,,,,,,,,,,,,,,,,,,,,,,,,,,,,,,,,,,,,,,,,,,,,,,,,,,,,,,,,,,,,
,,,,,,617400ff07055d954515650f,62bbf945d007ed79f0fa9496,2022-06-29_09h04.02.268,Colour_Asymmetry_Pilot,2022.1.3,Win32,60.0240096,62bbe60bf3d75ef465d3e404,0,80,80,98,1,twoone,,,,,,,,,,,,,,,,,,,,,,,,,,,,,,,,,,,,,,,,,,,,,,,,,,,,,,,,,,,,,,,,,,,,,,,,,,,,,,,,,,,,,,,,,,,,,,,,,,,,,,,,,,,,,,,,,,,,,,,,,,,,,,,,,,,,,,,,,,,,,,,,,,,,,,,,
,,,,,,617400ff07055d954515650f,62bbf945d007ed79f0fa9496,2022-06-29_09h04.02.268,Colour_Asymmetry_Pilot,2022.1.3,Win32,60.0240096,62bbe60bf3d75ef465d3e404,0,81,81,64,1,onetwo,,,,,,,,,,,,,,,,,,,,,,,,,,,,,,,,,,,,,,,,,,,,,,,,,,,,,,,,,,,,,,,,,,,,,,,,,,,,,,,,,,,,,,,,,,,,,,,,,,,,,,,,,,,,,,,,,,,,,,,,,,,,,,,,,,,,,,,,,,,,,,,,,,,,,,,,
,,,,,,617400ff07055d954515650f,62bbf945d007ed79f0fa9496,2022-06-29_09h04.02.268,Colour_Asymmetry_Pilot,2022.1.3,Win32,60.0240096,62bbe60bf3d75ef465d3e404,0,82,82,28,1,threeone,,,,,,,,,,,,,,,,,,,,,,,,,,,,,,,,,,,,,,,,,,,,,,,,,,,,,,,,,,,,,,,,,,,,,,,,,,,,,,,,,,,,,,,,,,,,,,,,,,,,,,,,,,,,,,,,,,,,,,,,,,,,,,,,,,,,,,,,,,,,,,,,,,,,,,,,
,,,,,,617400ff07055d954515650f,62bbf945d007ed79f0fa9496,2022-06-29_09h04.02.268,Colour_Asymmetry_Pilot,2022.1.3,Win32,60.0240096,62bbe60bf3d75ef465d3e404,0,83,83,11,1,twofour,,,,,,,,,,,,,,,,,,,,,,,,,,,,,,,,,,,,,,,,,,,,,,,,,,,,,,,,,,,,,,,,,,,,,,,,,,,,,,,,,,,,,,,,,,,,,,,,,,,,,,,,,,,,,,,,,,,,,,,,,,,,,,,,,,,,,,,,,,,,,,,,,,,,,,,,
,,,,,,617400ff07055d954515650f,62bbf945d007ed79f0fa9496,2022-06-29_09h04.02.268,Colour_Asymmetry_Pilot,2022.1.3,Win32,60.0240096,62bbe60bf3d75ef465d3e404,0,84,84,114,1,twoone,,,,,,,,,,,,,,,,,,,,,,,,,,,,,,,,,,,,,,,,,,,,,,,,,,,,,,,,,,,,,,,,,,,,,,,,,,,,,,,,,,,,,,,,,,,,,,,,,,,,,,,,,,,,,,,,,,,,,,,,,,,,,,,,,,,,,,,,,,,,,,,,,,,,,,,,
,,,,,,617400ff07055d954515650f,62bbf945d007ed79f0fa9496,2022-06-29_09h04.02.268,Colour_Asymmetry_Pilot,2022.1.3,Win32,60.0240096,62bbe60bf3d75ef465d3e404,0,85,85,44,1,threeone,,,,,,,,,,,,,,,,,,,,,,,,,,,,,,,,,,,,,,,,,,,,,,,,,,,,,,,,,,,,,,,,,,,,,,,,,,,,,,,,,,,,,,,,,,,,,,,,,,,,,,,,,,,,,,,,,,,,,,,,,,,,,,,,,,,,,,,,,,,,,,,,,,,,,,,,
,,,,,,617400ff07055d954515650f,62bbf945d007ed79f0fa9496,2022-06-29_09h04.02.268,Colour_Asymmetry_Pilot,2022.1.3,Win32,60.0240096,62bbe60bf3d75ef465d3e404,0,86,86,8,1,onetwo,,,,,,,,,,,,,,,,,,,,,,,,,,,,,,,,,,,,,,,,,,,,,,,,,,,,,,,,,,,,,,,,,,,,,,,,,,,,,,,,,,,,,,,,,,,,,,,,,,,,,,,,,,,,,,,,,,,,,,,,,,,,,,,,,,,,,,,,,,,,,,,,,,,,,,,,
,,,,,,617400ff07055d954515650f,62bbf945d007ed79f0fa9496,2022-06-29_09h04.02.268,Colour_Asymmetry_Pilot,2022.1.3,Win32,60.0240096,62bbe60bf3d75ef465d3e404,0,87,87,159,1,fourthree,,,,,,,,,,,,,,,,,,,,,,,,,,,,,,,,,,,,,,,,,,,,,,,,,,,,,,,,,,,,,,,,,,,,,,,,,,,,,,,,,,,,,,,,,,,,,,,,,,,,,,,,,,,,,,,,,,,,,,,,,,,,,,,,,,,,,,,,,,,,,,,,,,,,,,,,
,,,,,,617400ff07055d954515650f,62bbf945d007ed79f0fa9496,2022-06-29_09h04.02.268,Colour_Asymmetry_Pilot,2022.1.3,Win32,60.0240096,62bbe60bf3d75ef465d3e404,0,88,88,24,1,onetwo,,,,,,,,,,,,,,,,,,,,,,,,,,,,,,,,,,,,,,,,,,,,,,,,,,,,,,,,,,,,,,,,,,,,,,,,,,,,,,,,,,,,,,,,,,,,,,,,,,,,,,,,,,,,,,,,,,,,,,,,,,,,,,,,,,,,,,,,,,,,,,,,,,,,,,,,
,,,,,,617400ff07055d954515650f,62bbf945d007ed79f0fa9496,2022-06-29_09h04.02.268,Colour_Asymmetry_Pilot,2022.1.3,Win32,60.0240096,62bbe60bf3d75ef465d3e404,0,89,89,29,1,threefour,,,,,,,,,,,,,,,,,,,,,,,,,,,,,,,,,,,,,,,,,,,,,,,,,,,,,,,,,,,,,,,,,,,,,,,,,,,,,,,,,,,,,,,,,,,,,,,,,,,,,,,,,,,,,,,,,,,,,,,,,,,,,,,,,,,,,,,,,,,,,,,,,,,,,,,,
,,,,,,617400ff07055d954515650f,62bbf945d007ed79f0fa9496,2022-06-29_09h04.02.268,Colour_Asymmetry_Pilot,2022.1.3,Win32,60.0240096,62bbe60bf3d75ef465d3e404,0,90,90,45,1,threefour,,,,,,,,,,,,,,,,,,,,,,,,,,,,,,,,,,,,,,,,,,,,,,,,,,,,,,,,,,,,,,,,,,,,,,,,,,,,,,,,,,,,,,,,,,,,,,,,,,,,,,,,,,,,,,,,,,,,,,,,,,,,,,,,,,,,,,,,,,,,,,,,,,,,,,,,
,,,,,,617400ff07055d954515650f,62bbf945d007ed79f0fa9496,2022-06-29_09h04.02.268,Colour_Asymmetry_Pilot,2022.1.3,Win32,60.0240096,62bbe60bf3d75ef465d3e404,0,91,91,145,1,onethree,,,,,,,,,,,,,,,,,,,,,,,,,,,,,,,,,,,,,,,,,,,,,,,,,,,,,,,,,,,,,,,,,,,,,,,,,,,,,,,,,,,,,,,,,,,,,,,,,,,,,,,,,,,,,,,,,,,,,,,,,,,,,,,,,,,,,,,,,,,,,,,,,,,,,,,,
,,,,,,617400ff07055d954515650f,62bbf945d007ed79f0fa9496,2022-06-29_09h04.02.268,Colour_Asymmetry_Pilot,2022.1.3,Win32,60.0240096,62bbe60bf3d75ef465d3e404,0,92,92,136,1,onetwo,,,,,,,,,,,,,,,,,,,,,,,,,,,,,,,,,,,,,,,,,,,,,,,,,,,,,,,,,,,,,,,,,,,,,,,,,,,,,,,,,,,,,,,,,,,,,,,,,,,,,,,,,,,,,,,,,,,,,,,,,,,,,,,,,,,,,,,,,,,,,,,,,,,,,,,,
,,,,,,617400ff07055d954515650f,62bbf945d007ed79f0fa9496,2022-06-29_09h04.02.268,Colour_Asymmetry_Pilot,2022.1.3,Win32,60.0240096,62bbe60bf3d75ef465d3e404,0,93,93,20,1,threeone,,,,,,,,,,,,,,,,,,,,,,,,,,,,,,,,,,,,,,,,,,,,,,,,,,,,,,,,,,,,,,,,,,,,,,,,,,,,,,,,,,,,,,,,,,,,,,,,,,,,,,,,,,,,,,,,,,,,,,,,,,,,,,,,,,,,,,,,,,,,,,,,,,,,,,,,
,,,,,,617400ff07055d954515650f,62bbf945d007ed79f0fa9496,2022-06-29_09h04.02.268,Colour_Asymmetry_Pilot,2022.1.3,Win32,60.0240096,62bbe60bf3d75ef465d3e404,0,94,94,47,1,fourthree,,,,,,,,,,,,,,,,,,,,,,,,,,,,,,,,,,,,,,,,,,,,,,,,,,,,,,,,,,,,,,,,,,,,,,,,,,,,,,,,,,,,,,,,,,,,,,,,,,,,,,,,,,,,,,,,,,,,,,,,,,,,,,,,,,,,,,,,,,,,,,,,,,,,,,,,
,,,,,,617400ff07055d954515650f,62bbf945d007ed79f0fa9496,2022-06-29_09h04.02.268,Colour_Asymmetry_Pilot,2022.1.3,Win32,60.0240096,62bbe60bf3d75ef465d3e404,0,95,95,148,1,threeone,,,,,,,,,,,,,,,,,,,,,,,,,,,,,,,,,,,,,,,,,,,,,,,,,,,,,,,,,,,,,,,,,,,,,,,,,,,,,,,,,,,,,,,,,,,,,,,,,,,,,,,,,,,,,,,,,,,,,,,,,,,,,,,,,,,,,,,,,,,,,,,,,,,,,,,,
,,,,,,617400ff07055d954515650f,62bbf945d007ed79f0fa9496,2022-06-29_09h04.02.268,Colour_Asymmetry_Pilot,2022.1.3,Win32,60.0240096,62bbe60bf3d75ef465d3e404,0,96,96,110,1,fourtwo,,,,,,,,,,,,,,,,,,,,,,,,,,,,,,,,,,,,,,,,,,,,,,,,,,,,,,,,,,,,,,,,,,,,,,,,,,,,,,,,,,,,,,,,,,,,,,,,,,,,,,,,,,,,,,,,,,,,,,,,,,,,,,,,,,,,,,,,,,,,,,,,,,,,,,,,
,,,,,,617400ff07055d954515650f,62bbf945d007ed79f0fa9496,2022-06-29_09h04.02.268,Colour_Asymmetry_Pilot,2022.1.3,Win32,60.0240096,62bbe60bf3d75ef465d3e404,0,97,97,112,1,onetwo,,,,,,,,,,,,,,,,,,,,,,,,,,,,,,,,,,,,,,,,,,,,,,,,,,,,,,,,,,,,,,,,,,,,,,,,,,,,,,,,,,,,,,,,,,,,,,,,,,,,,,,,,,,,,,,,,,,,,,,,,,,,,,,,,,,,,,,,,,,,,,,,,,,,,,,,
,,,,,,617400ff07055d954515650f,62bbf945d007ed79f0fa9496,2022-06-29_09h04.02.268,Colour_Asymmetry_Pilot,2022.1.3,Win32,60.0240096,62bbe60bf3d75ef465d3e404,0,98,98,133,1,threefour,,,,,,,,,,,,,,,,,,,,,,,,,,,,,,,,,,,,,,,,,,,,,,,,,,,,,,,,,,,,,,,,,,,,,,,,,,,,,,,,,,,,,,,,,,,,,,,,,,,,,,,,,,,,,,,,,,,,,,,,,,,,,,,,,,,,,,,,,,,,,,,,,,,,,,,,
,,,,,,617400ff07055d954515650f,62bbf945d007ed79f0fa9496,2022-06-29_09h04.02.268,Colour_Asymmetry_Pilot,2022.1.3,Win32,60.0240096,62bbe60bf3d75ef465d3e404,0,99,99,83,1,twofour,,,,,,,,,,,,,,,,,,,,,,,,,,,,,,,,,,,,,,,,,,,,,,,,,,,,,,,,,,,,,,,,,,,,,,,,,,,,,,,,,,,,,,,,,,,,,,,,,,,,,,,,,,,,,,,,,,,,,,,,,,,,,,,,,,,,,,,,,,,,,,,,,,,,,,,,
,,,,,,617400ff07055d954515650f,62bbf945d007ed79f0fa9496,2022-06-29_09h04.02.268,Colour_Asymmetry_Pilot,2022.1.3,Win32,60.0240096,62bbe60bf3d75ef465d3e404,0,100,100,26,1,twoone,,,,,,,,,,,,,,,,,,,,,,,,,,,,,,,,,,,,,,,,,,,,,,,,,,,,,,,,,,,,,,,,,,,,,,,,,,,,,,,,,,,,,,,,,,,,,,,,,,,,,,,,,,,,,,,,,,,,,,,,,,,,,,,,,,,,,,,,,,,,,,,,,,,,,,,,
,,,,,,617400ff07055d954515650f,62bbf945d007ed79f0fa9496,2022-06-29_09h04.02.268,Colour_Asymmetry_Pilot,2022.1.3,Win32,60.0240096,62bbe60bf3d75ef465d3e404,0,101,101,57,1,onethree,,,,,,,,,,,,,,,,,,,,,,,,,,,,,,,,,,,,,,,,,,,,,,,,,,,,,,,,,,,,,,,,,,,,,,,,,,,,,,,,,,,,,,,,,,,,,,,,,,,,,,,,,,,,,,,,,,,,,,,,,,,,,,,,,,,,,,,,,,,,,,,,,,,,,,,,
,,,,,,617400ff07055d954515650f,62bbf945d007ed79f0fa9496,2022-06-29_09h04.02.268,Colour_Asymmetry_Pilot,2022.1.3,Win32,60.0240096,62bbe60bf3d75ef465d3e404,0,102,102,7,1,fourthree,,,,,,,,,,,,,,,,,,,,,,,,,,,,,,,,,,,,,,,,,,,,,,,,,,,,,,,,,,,,,,,,,,,,,,,,,,,,,,,,,,,,,,,,,,,,,,,,,,,,,,,,,,,,,,,,,,,,,,,,,,,,,,,,,,,,,,,,,,,,,,,,,,,,,,,,
,,,,,,617400ff07055d954515650f,62bbf945d007ed79f0fa9496,2022-06-29_09h04.02.268,Colour_Asymmetry_Pilot,2022.1.3,Win32,60.0240096,62bbe60bf3d75ef465d3e404,0,103,103,34,1,twoone,,,,,,,,,,,,,,,,,,,,,,,,,,,,,,,,,,,,,,,,,,,,,,,,,,,,,,,,,,,,,,,,,,,,,,,,,,,,,,,,,,,,,,,,,,,,,,,,,,,,,,,,,,,,,,,,,,,,,,,,,,,,,,,,,,,,,,,,,,,,,,,,,,,,,,,,
,,,,,,617400ff07055d954515650f,62bbf945d007ed79f0fa9496,2022-06-29_09h04.02.268,Colour_Asymmetry_Pilot,2022.1.3,Win32,60.0240096,62bbe60bf3d75ef465d3e404,0,104,104,132,1,threeone,,,,,,,,,,,,,,,,,,,,,,,,,,,,,,,,,,,,,,,,,,,,,,,,,,,,,,,,,,,,,,,,,,,,,,,,,,,,,,,,,,,,,,,,,,,,,,,,,,,,,,,,,,,,,,,,,,,,,,,,,,,,,,,,,,,,,,,,,,,,,,,,,,,,,,,,
,,,,,,617400ff07055d954515650f,62bbf945d007ed79f0fa9496,2022-06-29_09h04.02.268,Colour_Asymmetry_Pilot,2022.1.3,Win32,60.0240096,62bbe60bf3d75ef465d3e404,0,105,105,92,1,threeone,,,,,,,,,,,,,,,,,,,,,,,,,,,,,,,,,,,,,,,,,,,,,,,,,,,,,,,,,,,,,,,,,,,,,,,,,,,,,,,,,,,,,,,,,,,,,,,,,,,,,,,,,,,,,,,,,,,,,,,,,,,,,,,,,,,,,,,,,,,,,,,,,,,,,,,,
,,,,,,617400ff07055d954515650f,62bbf945d007ed79f0fa9496,2022-06-29_09h04.02.268,Colour_Asymmetry_Pilot,2022.1.3,Win32,60.0240096,62bbe60bf3d75ef465d3e404,0,106,106,146,1,twoone,,,,,,,,,,,,,,,,,,,,,,,,,,,,,,,,,,,,,,,,,,,,,,,,,,,,,,,,,,,,,,,,,,,,,,,,,,,,,,,,,,,,,,,,,,,,,,,,,,,,,,,,,,,,,,,,,,,,,,,,,,,,,,,,,,,,,,,,,,,,,,,,,,,,,,,,
,,,,,,617400ff07055d954515650f,62bbf945d007ed79f0fa9496,2022-06-29_09h04.02.268,Colour_Asymmetry_Pilot,2022.1.3,Win32,60.0240096,62bbe60bf3d75ef465d3e404,0,107,107,161,1,onethree,,,,,,,,,,,,,,,,,,,,,,,,,,,,,,,,,,,,,,,,,,,,,,,,,,,,,,,,,,,,,,,,,,,,,,,,,,,,,,,,,,,,,,,,,,,,,,,,,,,,,,,,,,,,,,,,,,,,,,,,,,,,,,,,,,,,,,,,,,,,,,,,,,,,,,,,
,,,,,,617400ff07055d954515650f,62bbf945d007ed79f0fa9496,2022-06-29_09h04.02.268,Colour_Asymmetry_Pilot,2022.1.3,Win32,60.0240096,62bbe60bf3d75ef465d3e404,0,108,108,16,1,onetwo,,,,,,,,,,,,,,,,,,,,,,,,,,,,,,,,,,,,,,,,,,,,,,,,,,,,,,,,,,,,,,,,,,,,,,,,,,,,,,,,,,,,,,,,,,,,,,,,,,,,,,,,,,,,,,,,,,,,,,,,,,,,,,,,,,,,,,,,,,,,,,,,,,,,,,,,
,,,,,,617400ff07055d954515650f,62bbf945d007ed79f0fa9496,2022-06-29_09h04.02.268,Colour_Asymmetry_Pilot,2022.1.3,Win32,60.0240096,62bbe60bf3d75ef465d3e404,0,109,109,141,1,threefour,,,,,,,,,,,,,,,,,,,,,,,,,,,,,,,,,,,,,,,,,,,,,,,,,,,,,,,,,,,,,,,,,,,,,,,,,,,,,,,,,,,,,,,,,,,,,,,,,,,,,,,,,,,,,,,,,,,,,,,,,,,,,,,,,,,,,,,,,,,,,,,,,,,,,,,,
,,,,,,617400ff07055d954515650f,62bbf945d007ed79f0fa9496,2022-06-29_09h04.02.268,Colour_Asymmetry_Pilot,2022.1.3,Win32,60.0240096,62bbe60bf3d75ef465d3e404,0,110,110,23,1,fourthree,,,,,,,,,,,,,,,,,,,,,,,,,,,,,,,,,,,,,,,,,,,,,,,,,,,,,,,,,,,,,,,,,,,,,,,,,,,,,,,,,,,,,,,,,,,,,,,,,,,,,,,,,,,,,,,,,,,,,,,,,,,,,,,,,,,,,,,,,,,,,,,,,,,,,,,,
,,,,,,617400ff07055d954515650f,62bbf945d007ed79f0fa9496,2022-06-29_09h04.02.268,Colour_Asymmetry_Pilot,2022.1.3,Win32,60.0240096,62bbe60bf3d75ef465d3e404,0,111,111,90,1,twoone,,,,,,,,,,,,,,,,,,,,,,,,,,,,,,,,,,,,,,,,,,,,,,,,,,,,,,,,,,,,,,,,,,,,,,,,,,,,,,,,,,,,,,,,,,,,,,,,,,,,,,,,,,,,,,,,,,,,,,,,,,,,,,,,,,,,,,,,,,,,,,,,,,,,,,,,
,,,,,,617400ff07055d954515650f,62bbf945d007ed79f0fa9496,2022-06-29_09h04.02.268,Colour_Asymmetry_Pilot,2022.1.3,Win32,60.0240096,62bbe60bf3d75ef465d3e404,0,112,112,128,1,onetwo,,,,,,,,,,,,,,,,,,,,,,,,,,,,,,,,,,,,,,,,,,,,,,,,,,,,,,,,,,,,,,,,,,,,,,,,,,,,,,,,,,,,,,,,,,,,,,,,,,,,,,,,,,,,,,,,,,,,,,,,,,,,,,,,,,,,,,,,,,,,,,,,,,,,,,,,
,,,,,,617400ff07055d954515650f,62bbf945d007ed79f0fa9496,2022-06-29_09h04.02.268,Colour_Asymmetry_Pilot,2022.1.3,Win32,60.0240096,62bbe60bf3d75ef465d3e404,0,113,113,39,1,fourthree,,,,,,,,,,,,,,,,,,,,,,,,,,,,,,,,,,,,,,,,,,,,,,,,,,,,,,,,,,,,,,,,,,,,,,,,,,,,,,,,,,,,,,,,,,,,,,,,,,,,,,,,,,,,,,,,,,,,,,,,,,,,,,,,,,,,,,,,,,,,,,,,,,,,,,,,
,,,,,,617400ff07055d954515650f,62bbf945d007ed79f0fa9496,2022-06-29_09h04.02.268,Colour_Asymmetry_Pilot,2022.1.3,Win32,60.0240096,62bbe60bf3d75ef465d3e404,0,114,114,40,1,onetwo,,,,,,,,,,,,,,,,,,,,,,,,,,,,,,,,,,,,,,,,,,,,,,,,,,,,,,,,,,,,,,,,,,,,,,,,,,,,,,,,,,,,,,,,,,,,,,,,,,,,,,,,,,,,,,,,,,,,,,,,,,,,,,,,,,,,,,,,,,,,,,,,,,,,,,,,
,,,,,,617400ff07055d954515650f,62bbf945d007ed79f0fa9496,2022-06-29_09h04.02.268,Colour_Asymmetry_Pilot,2022.1.3,Win32,60.0240096,62bbe60bf3d75ef465d3e404,0,115,115,77,1,threefour,,,,,,,,,,,,,,,,,,,,,,,,,,,,,,,,,,,,,,,,,,,,,,,,,,,,,,,,,,,,,,,,,,,,,,,,,,,,,,,,,,,,,,,,,,,,,,,,,,,,,,,,,,,,,,,,,,,,,,,,,,,,,,,,,,,,,,,,,,,,,,,,,,,,,,,,
,,,,,,617400ff07055d954515650f,62bbf945d007ed79f0fa9496,2022-06-29_09h04.02.268,Colour_Asymmetry_Pilot,2022.1.3,Win32,60.0240096,62bbe60bf3d75ef465d3e404,0,116,116,129,1,onethree,,,,,,,,,,,,,,,,,,,,,,,,,,,,,,,,,,,,,,,,,,,,,,,,,,,,,,,,,,,,,,,,,,,,,,,,,,,,,,,,,,,,,,,,,,,,,,,,,,,,,,,,,,,,,,,,,,,,,,,,,,,,,,,,,,,,,,,,,,,,,,,,,,,,,,,,
,,,,,,617400ff07055d954515650f,62bbf945d007ed79f0fa9496,2022-06-29_09h04.02.268,Colour_Asymmetry_Pilot,2022.1.3,Win32,60.0240096,62bbe60bf3d75ef465d3e404,0,117,117,87,1,fourthree,,,,,,,,,,,,,,,,,,,,,,,,,,,,,,,,,,,,,,,,,,,,,,,,,,,,,,,,,,,,,,,,,,,,,,,,,,,,,,,,,,,,,,,,,,,,,,,,,,,,,,,,,,,,,,,,,,,,,,,,,,,,,,,,,,,,,,,,,,,,,,,,,,,,,,,,
,,,,,,617400ff07055d954515650f,62bbf945d007ed79f0fa9496,2022-06-29_09h04.02.268,Colour_Asymmetry_Pilot,2022.1.3,Win32,60.0240096,62bbe60bf3d75ef465d3e404,0,118,118,63,1,fourthree,,,,,,,,,,,,,,,,,,,,,,,,,,,,,,,,,,,,,,,,,,,,,,,,,,,,,,,,,,,,,,,,,,,,,,,,,,,,,,,,,,,,,,,,,,,,,,,,,,,,,,,,,,,,,,,,,,,,,,,,,,,,,,,,,,,,,,,,,,,,,,,,,,,,,,,,
,,,,,,617400ff07055d954515650f,62bbf945d007ed79f0fa9496,2022-06-29_09h04.02.268,Colour_Asymmetry_Pilot,2022.1.3,Win32,60.0240096,62bbe60bf3d75ef465d3e404,0,119,119,48,1,onetwo,,,,,,,,,,,,,,,,,,,,,,,,,,,,,,,,,,,,,,,,,,,,,,,,,,,,,,,,,,,,,,,,,,,,,,,,,,,,,,,,,,,,,,,,,,,,,,,,,,,,,,,,,,,,,,,,,,,,,,,,,,,,,,,,,,,,,,,,,,,,,,,,,,,,,,,,
,,,,,,617400ff07055d954515650f,62bbf945d007ed79f0fa9496,2022-06-29_09h04.02.268,Colour_Asymmetry_Pilot,2022.1.3,Win32,60.0240096,62bbe60bf3d75ef465d3e404,0,120,120,52,1,threeone,,,,,,,,,,,,,,,,,,,,,,,,,,,,,,,,,,,,,,,,,,,,,,,,,,,,,,,,,,,,,,,,,,,,,,,,,,,,,,,,,,,,,,,,,,,,,,,,,,,,,,,,,,,,,,,,,,,,,,,,,,,,,,,,,,,,,,,,,,,,,,,,,,,,,,,,
,,,,,,617400ff07055d954515650f,62bbf945d007ed79f0fa9496,2022-06-29_09h04.02.268,Colour_Asymmetry_Pilot,2022.1.3,Win32,60.0240096,62bbe60bf3d75ef465d3e404,0,121,121,115,1,twofour,,,,,,,,,,,,,,,,,,,,,,,,,,,,,,,,,,,,,,,,,,,,,,,,,,,,,,,,,,,,,,,,,,,,,,,,,,,,,,,,,,,,,,,,,,,,,,,,,,,,,,,,,,,,,,,,,,,,,,,,,,,,,,,,,,,,,,,,,,,,,,,,,,,,,,,,
,,,,,,617400ff07055d954515650f,62bbf945d007ed79f0fa9496,2022-06-29_09h04.02.268,Colour_Asymmetry_Pilot,2022.1.3,Win32,60.0240096,62bbe60bf3d75ef465d3e404,0,122,122,93,1,threefour,,,,,,,,,,,,,,,,,,,,,,,,,,,,,,,,,,,,,,,,,,,,,,,,,,,,,,,,,,,,,,,,,,,,,,,,,,,,,,,,,,,,,,,,,,,,,,,,,,,,,,,,,,,,,,,,,,,,,,,,,,,,,,,,,,,,,,,,,,,,,,,,,,,,,,,,
,,,,,,617400ff07055d954515650f,62bbf945d007ed79f0fa9496,2022-06-29_09h04.02.268,Colour_Asymmetry_Pilot,2022.1.3,Win32,60.0240096,62bbe60bf3d75ef465d3e404,0,123,123,155,1,twofour,,,,,,,,,,,,,,,,,,,,,,,,,,,,,,,,,,,,,,,,,,,,,,,,,,,,,,,,,,,,,,,,,,,,,,,,,,,,,,,,,,,,,,,,,,,,,,,,,,,,,,,,,,,,,,,,,,,,,,,,,,,,,,,,,,,,,,,,,,,,,,,,,,,,,,,,
,,,,,,617400ff07055d954515650f,62bbf945d007ed79f0fa9496,2022-06-29_09h04.02.268,Colour_Asymmetry_Pilot,2022.1.3,Win32,60.0240096,62bbe60bf3d75ef465d3e404,0,124,124,54,1,fourtwo,,,,,,,,,,,,,,,,,,,,,,,,,,,,,,,,,,,,,,,,,,,,,,,,,,,,,,,,,,,,,,,,,,,,,,,,,,,,,,,,,,,,,,,,,,,,,,,,,,,,,,,,,,,,,,,,,,,,,,,,,,,,,,,,,,,,,,,,,,,,,,,,,,,,,,,,
,,,,,,617400ff07055d954515650f,62bbf945d007ed79f0fa9496,2022-06-29_09h04.02.268,Colour_Asymmetry_Pilot,2022.1.3,Win32,60.0240096,62bbe60bf3d75ef465d3e404,0,125,125,42,1,twoone,,,,,,,,,,,,,,,,,,,,,,,,,,,,,,,,,,,,,,,,,,,,,,,,,,,,,,,,,,,,,,,,,,,,,,,,,,,,,,,,,,,,,,,,,,,,,,,,,,,,,,,,,,,,,,,,,,,,,,,,,,,,,,,,,,,,,,,,,,,,,,,,,,,,,,,,
,,,,,,617400ff07055d954515650f,62bbf945d007ed79f0fa9496,2022-06-29_09h04.02.268,Colour_Asymmetry_Pilot,2022.1.3,Win32,60.0240096,62bbe60bf3d75ef465d3e404,0,126,126,49,1,onethree,,,,,,,,,,,,,,,,,,,,,,,,,,,,,,,,,,,,,,,,,,,,,,,,,,,,,,,,,,,,,,,,,,,,,,,,,,,,,,,,,,,,,,,,,,,,,,,,,,,,,,,,,,,,,,,,,,,,,,,,,,,,,,,,,,,,,,,,,,,,,,,,,,,,,,,,
,,,,,,617400ff07055d954515650f,62bbf945d007ed79f0fa9496,2022-06-29_09h04.02.268,Colour_Asymmetry_Pilot,2022.1.3,Win32,60.0240096,62bbe60bf3d75ef465d3e404,0,127,127,36,1,threeone,,,,,,,,,,,,,,,,,,,,,,,,,,,,,,,,,,,,,,,,,,,,,,,,,,,,,,,,,,,,,,,,,,,,,,,,,,,,,,,,,,,,,,,,,,,,,,,,,,,,,,,,,,,,,,,,,,,,,,,,,,,,,,,,,,,,,,,,,,,,,,,,,,,,,,,,
,,,,,,617400ff07055d954515650f,62bbf945d007ed79f0fa9496,2022-06-29_09h04.02.268,Colour_Asymmetry_Pilot,2022.1.3,Win32,60.0240096,62bbe60bf3d75ef465d3e404,0,128,128,19,1,twofour,,,,,,,,,,,,,,,,,,,,,,,,,,,,,,,,,,,,,,,,,,,,,,,,,,,,,,,,,,,,,,,,,,,,,,,,,,,,,,,,,,,,,,,,,,,,,,,,,,,,,,,,,,,,,,,,,,,,,,,,,,,,,,,,,,,,,,,,,,,,,,,,,,,,,,,,
,,,,,,617400ff07055d954515650f,62bbf945d007ed79f0fa9496,2022-06-29_09h04.02.268,Colour_Asymmetry_Pilot,2022.1.3,Win32,60.0240096,62bbe60bf3d75ef465d3e404,0,129,129,81,1,onethree,,,,,,,,,,,,,,,,,,,,,,,,,,,,,,,,,,,,,,,,,,,,,,,,,,,,,,,,,,,,,,,,,,,,,,,,,,,,,,,,,,,,,,,,,,,,,,,,,,,,,,,,,,,,,,,,,,,,,,,,,,,,,,,,,,,,,,,,,,,,,,,,,,,,,,,,
,,,,,,617400ff07055d954515650f,62bbf945d007ed79f0fa9496,2022-06-29_09h04.02.268,Colour_Asymmetry_Pilot,2022.1.3,Win32,60.0240096,62bbe60bf3d75ef465d3e404,0,130,130,2,1,twoone,,,,,,,,,,,,,,,,,,,,,,,,,,,,,,,,,,,,,,,,,,,,,,,,,,,,,,,,,,,,,,,,,,,,,,,,,,,,,,,,,,,,,,,,,,,,,,,,,,,,,,,,,,,,,,,,,,,,,,,,,,,,,,,,,,,,,,,,,,,,,,,,,,,,,,,,
,,,,,,617400ff07055d954515650f,62bbf945d007ed79f0fa9496,2022-06-29_09h04.02.268,Colour_Asymmetry_Pilot,2022.1.3,Win32,60.0240096,62bbe60bf3d75ef465d3e404,0,131,131,139,1,twofour,,,,,,,,,,,,,,,,,,,,,,,,,,,,,,,,,,,,,,,,,,,,,,,,,,,,,,,,,,,,,,,,,,,,,,,,,,,,,,,,,,,,,,,,,,,,,,,,,,,,,,,,,,,,,,,,,,,,,,,,,,,,,,,,,,,,,,,,,,,,,,,,,,,,,,,,
,,,,,,617400ff07055d954515650f,62bbf945d007ed79f0fa9496,2022-06-29_09h04.02.268,Colour_Asymmetry_Pilot,2022.1.3,Win32,60.0240096,62bbe60bf3d75ef465d3e404,0,132,132,55,1,fourthree,,,,,,,,,,,,,,,,,,,,,,,,,,,,,,,,,,,,,,,,,,,,,,,,,,,,,,,,,,,,,,,,,,,,,,,,,,,,,,,,,,,,,,,,,,,,,,,,,,,,,,,,,,,,,,,,,,,,,,,,,,,,,,,,,,,,,,,,,,,,,,,,,,,,,,,,
,,,,,,617400ff07055d954515650f,62bbf945d007ed79f0fa9496,2022-06-29_09h04.02.268,Colour_Asymmetry_Pilot,2022.1.3,Win32,60.0240096,62bbe60bf3d75ef465d3e404,0,133,133,78,1,fourtwo,,,,,,,,,,,,,,,,,,,,,,,,,,,,,,,,,,,,,,,,,,,,,,,,,,,,,,,,,,,,,,,,,,,,,,,,,,,,,,,,,,,,,,,,,,,,,,,,,,,,,,,,,,,,,,,,,,,,,,,,,,,,,,,,,,,,,,,,,,,,,,,,,,,,,,,,
,,,,,,617400ff07055d954515650f,62bbf945d007ed79f0fa9496,2022-06-29_09h04.02.268,Colour_Asymmetry_Pilot,2022.1.3,Win32,60.0240096,62bbe60bf3d75ef465d3e404,0,134,134,89,1,onethree,,,,,,,,,,,,,,,,,,,,,,,,,,,,,,,,,,,,,,,,,,,,,,,,,,,,,,,,,,,,,,,,,,,,,,,,,,,,,,,,,,,,,,,,,,,,,,,,,,,,,,,,,,,,,,,,,,,,,,,,,,,,,,,,,,,,,,,,,,,,,,,,,,,,,,,,
,,,,,,617400ff07055d954515650f,62bbf945d007ed79f0fa9496,2022-06-29_09h04.02.268,Colour_Asymmetry_Pilot,2022.1.3,Win32,60.0240096,62bbe60bf3d75ef465d3e404,0,135,135,27,1,twofour,,,,,,,,,,,,,,,,,,,,,,,,,,,,,,,,,,,,,,,,,,,,,,,,,,,,,,,,,,,,,,,,,,,,,,,,,,,,,,,,,,,,,,,,,,,,,,,,,,,,,,,,,,,,,,,,,,,,,,,,,,,,,,,,,,,,,,,,,,,,,,,,,,,,,,,,
,,,,,,617400ff07055d954515650f,62bbf945d007ed79f0fa9496,2022-06-29_09h04.02.268,Colour_Asymmetry_Pilot,2022.1.3,Win32,60.0240096,62bbe60bf3d75ef465d3e404,0,136,136,71,1,fourthree,,,,,,,,,,,,,,,,,,,,,,,,,,,,,,,,,,,,,,,,,,,,,,,,,,,,,,,,,,,,,,,,,,,,,,,,,,,,,,,,,,,,,,,,,,,,,,,,,,,,,,,,,,,,,,,,,,,,,,,,,,,,,,,,,,,,,,,,,,,,,,,,,,,,,,,,
,,,,,,617400ff07055d954515650f,62bbf945d007ed79f0fa9496,2022-06-29_09h04.02.268,Colour_Asymmetry_Pilot,2022.1.3,Win32,60.0240096,62bbe60bf3d75ef465d3e404,0,137,137,88,1,onetwo,,,,,,,,,,,,,,,,,,,,,,,,,,,,,,,,,,,,,,,,,,,,,,,,,,,,,,,,,,,,,,,,,,,,,,,,,,,,,,,,,,,,,,,,,,,,,,,,,,,,,,,,,,,,,,,,,,,,,,,,,,,,,,,,,,,,,,,,,,,,,,,,,,,,,,,,
,,,,,,617400ff07055d954515650f,62bbf945d007ed79f0fa9496,2022-06-29_09h04.02.268,Colour_Asymmetry_Pilot,2022.1.3,Win32,60.0240096,62bbe60bf3d75ef465d3e404,0,138,138,154,1,twoone,,,,,,,,,,,,,,,,,,,,,,,,,,,,,,,,,,,,,,,,,,,,,,,,,,,,,,,,,,,,,,,,,,,,,,,,,,,,,,,,,,,,,,,,,,,,,,,,,,,,,,,,,,,,,,,,,,,,,,,,,,,,,,,,,,,,,,,,,,,,,,,,,,,,,,,,
,,,,,,617400ff07055d954515650f,62bbf945d007ed79f0fa9496,2022-06-29_09h04.02.268,Colour_Asymmetry_Pilot,2022.1.3,Win32,60.0240096,62bbe60bf3d75ef465d3e404,0,139,139,122,1,twoone,,,,,,,,,,,,,,,,,,,,,,,,,,,,,,,,,,,,,,,,,,,,,,,,,,,,,,,,,,,,,,,,,,,,,,,,,,,,,,,,,,,,,,,,,,,,,,,,,,,,,,,,,,,,,,,,,,,,,,,,,,,,,,,,,,,,,,,,,,,,,,,,,,,,,,,,
,,,,,,617400ff07055d954515650f,62bbf945d007ed79f0fa9496,2022-06-29_09h04.02.268,Colour_Asymmetry_Pilot,2022.1.3,Win32,60.0240096,62bbe60bf3d75ef465d3e404,0,140,140,17,1,onethree,,,,,,,,,,,,,,,,,,,,,,,,,,,,,,,,,,,,,,,,,,,,,,,,,,,,,,,,,,,,,,,,,,,,,,,,,,,,,,,,,,,,,,,,,,,,,,,,,,,,,,,,,,,,,,,,,,,,,,,,,,,,,,,,,,,,,,,,,,,,,,,,,,,,,,,,
,,,,,,617400ff07055d954515650f,62bbf945d007ed79f0fa9496,2022-06-29_09h04.02.268,Colour_Asymmetry_Pilot,2022.1.3,Win32,60.0240096,62bbe60bf3d75ef465d3e404,0,141,141,138,1,twoone,,,,,,,,,,,,,,,,,,,,,,,,,,,,,,,,,,,,,,,,,,,,,,,,,,,,,,,,,,,,,,,,,,,,,,,,,,,,,,,,,,,,,,,,,,,,,,,,,,,,,,,,,,,,,,,,,,,,,,,,,,,,,,,,,,,,,,,,,,,,,,,,,,,,,,,,
,,,,,,617400ff07055d954515650f,62bbf945d007ed79f0fa9496,2022-06-29_09h04.02.268,Colour_Asymmetry_Pilot,2022.1.3,Win32,60.0240096,62bbe60bf3d75ef465d3e404,0,142,142,118,1,fourtwo,,,,,,,,,,,,,,,,,,,,,,,,,,,,,,,,,,,,,,,,,,,,,,,,,,,,,,,,,,,,,,,,,,,,,,,,,,,,,,,,,,,,,,,,,,,,,,,,,,,,,,,,,,,,,,,,,,,,,,,,,,,,,,,,,,,,,,,,,,,,,,,,,,,,,,,,
,,,,,,617400ff07055d954515650f,62bbf945d007ed79f0fa9496,2022-06-29_09h04.02.268,Colour_Asymmetry_Pilot,2022.1.3,Win32,60.0240096,62bbe60bf3d75ef465d3e404,0,143,143,68,1,threeone,,,,,,,,,,,,,,,,,,,,,,,,,,,,,,,,,,,,,,,,,,,,,,,,,,,,,,,,,,,,,,,,,,,,,,,,,,,,,,,,,,,,,,,,,,,,,,,,,,,,,,,,,,,,,,,,,,,,,,,,,,,,,,,,,,,,,,,,,,,,,,,,,,,,,,,,
,,,,,,617400ff07055d954515650f,62bbf945d007ed79f0fa9496,2022-06-29_09h04.02.268,Colour_Asymmetry_Pilot,2022.1.3,Win32,60.0240096,62bbe60bf3d75ef465d3e404,0,144,144,61,1,threefour,,,,,,,,,,,,,,,,,,,,,,,,,,,,,,,,,,,,,,,,,,,,,,,,,,,,,,,,,,,,,,,,,,,,,,,,,,,,,,,,,,,,,,,,,,,,,,,,,,,,,,,,,,,,,,,,,,,,,,,,,,,,,,,,,,,,,,,,,,,,,,,,,,,,,,,,
,,,,,,617400ff07055d954515650f,62bbf945d007ed79f0fa9496,2022-06-29_09h04.02.268,Colour_Asymmetry_Pilot,2022.1.3,Win32,60.0240096,62bbe60bf3d75ef465d3e404,0,145,145,69,1,threefour,,,,,,,,,,,,,,,,,,,,,,,,,,,,,,,,,,,,,,,,,,,,,,,,,,,,,,,,,,,,,,,,,,,,,,,,,,,,,,,,,,,,,,,,,,,,,,,,,,,,,,,,,,,,,,,,,,,,,,,,,,,,,,,,,,,,,,,,,,,,,,,,,,,,,,,,
,,,,,,617400ff07055d954515650f,62bbf945d007ed79f0fa9496,2022-06-29_09h04.02.268,Colour_Asymmetry_Pilot,2022.1.3,Win32,60.0240096,62bbe60bf3d75ef465d3e404,0,146,146,75,1,twofour,,,,,,,,,,,,,,,,,,,,,,,,,,,,,,,,,,,,,,,,,,,,,,,,,,,,,,,,,,,,,,,,,,,,,,,,,,,,,,,,,,,,,,,,,,,,,,,,,,,,,,,,,,,,,,,,,,,,,,,,,,,,,,,,,,,,,,,,,,,,,,,,,,,,,,,,
,,,,,,617400ff07055d954515650f,62bbf945d007ed79f0fa9496,2022-06-29_09h04.02.268,Colour_Asymmetry_Pilot,2022.1.3,Win32,60.0240096,62bbe60bf3d75ef465d3e404,0,147,147,70,1,fourtwo,,,,,,,,,,,,,,,,,,,,,,,,,,,,,,,,,,,,,,,,,,,,,,,,,,,,,,,,,,,,,,,,,,,,,,,,,,,,,,,,,,,,,,,,,,,,,,,,,,,,,,,,,,,,,,,,,,,,,,,,,,,,,,,,,,,,,,,,,,,,,,,,,,,,,,,,
,,,,,,617400ff07055d954515650f,62bbf945d007ed79f0fa9496,2022-06-29_09h04.02.268,Colour_Asymmetry_Pilot,2022.1.3,Win32,60.0240096,62bbe60bf3d75ef465d3e404,0,148,148,160,1,onetwo,,,,,,,,,,,,,,,,,,,,,,,,,,,,,,,,,,,,,,,,,,,,,,,,,,,,,,,,,,,,,,,,,,,,,,,,,,,,,,,,,,,,,,,,,,,,,,,,,,,,,,,,,,,,,,,,,,,,,,,,,,,,,,,,,,,,,,,,,,,,,,,,,,,,,,,,
,,,,,,617400ff07055d954515650f,62bbf945d007ed79f0fa9496,2022-06-29_09h04.02.268,Colour_Asymmetry_Pilot,2022.1.3,Win32,60.0240096,62bbe60bf3d75ef465d3e404,0,149,149,4,1,threeone,,,,,,,,,,,,,,,,,,,,,,,,,,,,,,,,,,,,,,,,,,,,,,,,,,,,,,,,,,,,,,,,,,,,,,,,,,,,,,,,,,,,,,,,,,,,,,,,,,,,,,,,,,,,,,,,,,,,,,,,,,,,,,,,,,,,,,,,,,,,,,,,,,,,,,,,
,,,,,,617400ff07055d954515650f,62bbf945d007ed79f0fa9496,2022-06-29_09h04.02.268,Colour_Asymmetry_Pilot,2022.1.3,Win32,60.0240096,62bbe60bf3d75ef465d3e404,0,150,150,86,1,fourtwo,,,,,,,,,,,,,,,,,,,,,,,,,,,,,,,,,,,,,,,,,,,,,,,,,,,,,,,,,,,,,,,,,,,,,,,,,,,,,,,,,,,,,,,,,,,,,,,,,,,,,,,,,,,,,,,,,,,,,,,,,,,,,,,,,,,,,,,,,,,,,,,,,,,,,,,,
,,,,,,617400ff07055d954515650f,62bbf945d007ed79f0fa9496,2022-06-29_09h04.02.268,Colour_Asymmetry_Pilot,2022.1.3,Win32,60.0240096,62bbe60bf3d75ef465d3e404,0,151,151,143,1,fourthree,,,,,,,,,,,,,,,,,,,,,,,,,,,,,,,,,,,,,,,,,,,,,,,,,,,,,,,,,,,,,,,,,,,,,,,,,,,,,,,,,,,,,,,,,,,,,,,,,,,,,,,,,,,,,,,,,,,,,,,,,,,,,,,,,,,,,,,,,,,,,,,,,,,,,,,,
,,,,,,617400ff07055d954515650f,62bbf945d007ed79f0fa9496,2022-06-29_09h04.02.268,Colour_Asymmetry_Pilot,2022.1.3,Win32,60.0240096,62bbe60bf3d75ef465d3e404,0,152,152,120,1,onetwo,,,,,,,,,,,,,,,,,,,,,,,,,,,,,,,,,,,,,,,,,,,,,,,,,,,,,,,,,,,,,,,,,,,,,,,,,,,,,,,,,,,,,,,,,,,,,,,,,,,,,,,,,,,,,,,,,,,,,,,,,,,,,,,,,,,,,,,,,,,,,,,,,,,,,,,,
,,,,,,617400ff07055d954515650f,62bbf945d007ed79f0fa9496,2022-06-29_09h04.02.268,Colour_Asymmetry_Pilot,2022.1.3,Win32,60.0240096,62bbe60bf3d75ef465d3e404,0,153,153,84,1,threeone,,,,,,,,,,,,,,,,,,,,,,,,,,,,,,,,,,,,,,,,,,,,,,,,,,,,,,,,,,,,,,,,,,,,,,,,,,,,,,,,,,,,,,,,,,,,,,,,,,,,,,,,,,,,,,,,,,,,,,,,,,,,,,,,,,,,,,,,,,,,,,,,,,,,,,,,
,,,,,,617400ff07055d954515650f,62bbf945d007ed79f0fa9496,2022-06-29_09h04.02.268,Colour_Asymmetry_Pilot,2022.1.3,Win32,60.0240096,62bbe60bf3d75ef465d3e404,0,154,154,25,1,onethree,,,,,,,,,,,,,,,,,,,,,,,,,,,,,,,,,,,,,,,,,,,,,,,,,,,,,,,,,,,,,,,,,,,,,,,,,,,,,,,,,,,,,,,,,,,,,,,,,,,,,,,,,,,,,,,,,,,,,,,,,,,,,,,,,,,,,,,,,,,,,,,,,,,,,,,,
,,,,,,617400ff07055d954515650f,62bbf945d007ed79f0fa9496,2022-06-29_09h04.02.268,Colour_Asymmetry_Pilot,2022.1.3,Win32,60.0240096,62bbe60bf3d75ef465d3e404,0,155,155,33,1,onethree,,,,,,,,,,,,,,,,,,,,,,,,,,,,,,,,,,,,,,,,,,,,,,,,,,,,,,,,,,,,,,,,,,,,,,,,,,,,,,,,,,,,,,,,,,,,,,,,,,,,,,,,,,,,,,,,,,,,,,,,,,,,,,,,,,,,,,,,,,,,,,,,,,,,,,,,
,,,,,,617400ff07055d954515650f,62bbf945d007ed79f0fa9496,2022-06-29_09h04.02.268,Colour_Asymmetry_Pilot,2022.1.3,Win32,60.0240096,62bbe60bf3d75ef465d3e404,0,156,156,14,1,fourtwo,,,,,,,,,,,,,,,,,,,,,,,,,,,,,,,,,,,,,,,,,,,,,,,,,,,,,,,,,,,,,,,,,,,,,,,,,,,,,,,,,,,,,,,,,,,,,,,,,,,,,,,,,,,,,,,,,,,,,,,,,,,,,,,,,,,,,,,,,,,,,,,,,,,,,,,,
,,,,,,617400ff07055d954515650f,62bbf945d007ed79f0fa9496,2022-06-29_09h04.02.268,Colour_Asymmetry_Pilot,2022.1.3,Win32,60.0240096,62bbe60bf3d75ef465d3e404,0,157,157,99,1,twofour,,,,,,,,,,,,,,,,,,,,,,,,,,,,,,,,,,,,,,,,,,,,,,,,,,,,,,,,,,,,,,,,,,,,,,,,,,,,,,,,,,,,,,,,,,,,,,,,,,,,,,,,,,,,,,,,,,,,,,,,,,,,,,,,,,,,,,,,,,,,,,,,,,,,,,,,
,,,,,,617400ff07055d954515650f,62bbf945d007ed79f0fa9496,2022-06-29_09h04.02.268,Colour_Asymmetry_Pilot,2022.1.3,Win32,60.0240096,62bbe60bf3d75ef465d3e404,0,158,158,125,1,threefour,,,,,,,,,,,,,,,,,,,,,,,,,,,,,,,,,,,,,,,,,,,,,,,,,,,,,,,,,,,,,,,,,,,,,,,,,,,,,,,,,,,,,,,,,,,,,,,,,,,,,,,,,,,,,,,,,,,,,,,,,,,,,,,,,,,,,,,,,,,,,,,,,,,,,,,,
,,,,,,617400ff07055d954515650f,62bbf945d007ed79f0fa9496,2022-06-29_09h04.02.268,Colour_Asymmetry_Pilot,2022.1.3,Win32,60.0240096,62bbe60bf3d75ef465d3e404,0,159,159,119,1,fourthree,,,,,,,,,,,,,,,,,,,,,,,,,,,,,,,,,,,,,,,,,,,,,,,,,,,,,,,,,,,,,,,,,,,,,,,,,,,,,,,,,,,,,,,,,,,,,,,,,,,,,,,,,,,,,,,,,,,,,,,,,,,,,,,,,,,,,,,,,,,,,,,,,,,,,,,,
,,,,,,617400ff07055d954515650f,62bbf945d007ed79f0fa9496,2022-06-29_09h04.02.268,Colour_Asymmetry_Pilot,2022.1.3,Win32,60.0240096,62bbe60bf3d75ef465d3e404,0,160,160,94,1,fourtwo,,,,,,,,,,,,,,,,,,,,,,,,,,,,,,,,,,,,,,,,,,,,,,,,,,,,,,,,,,,,,,,,,,,,,,,,,,,,,,,,,,,,,,,,,,,,,,,,,,,,,,,,,,,,,,,,,,,,,,,,,,,,,,,,,,,,,,,,,,,,,,,,,,,,,,,,
,,,,,,617400ff07055d954515650f,62bbf945d007ed79f0fa9496,2022-06-29_09h04.02.268,Colour_Asymmetry_Pilot,2022.1.3,Win32,60.0240096,62bbe60bf3d75ef465d3e404,0,161,161,104,1,onetwo,,,,,,,,,,,,,,,,,,,,,,,,,,,,,,,,,,,,,,,,,,,,,,,,,,,,,,,,,,,,,,,,,,,,,,,,,,,,,,,,,,,,,,,,,,,,,,,,,,,,,,,,,,,,,,,,,,,,,,,,,,,,,,,,,,,,,,,,,,,,,,,,,,,,,,,,
,,,,,,617400ff07055d954515650f,62bbf945d007ed79f0fa9496,2022-06-29_09h04.02.268,Colour_Asymmetry_Pilot,2022.1.3,Win32,60.0240096,62bbe60bf3d75ef465d3e404,,,,,,,space,4.017,space,12.034,space,52.461,space,14.348,space,3.999,space,7.53,"[0.05879999999999996,0.2784,0.5841999999999998]",threefour,"[-0.17659999999999998,-0.2864,-0.8354]",-4,12.888,-35,79,1,0,0,response7disk_5,9,9,1,0,0,rectangle_8,55,86,1,0,0,response1disk_7,7,4,-14,2,1,0,0,rectangle_4,0,0,0,0,1,,,,,,,,,,,,,,,,,,,,,,,,,,,,,,,,,,,,,,,,,,,,,,,,,,,,,,,,,,,,,,,,,,,,,,,,,,,,,,,,,,,,,,,,,,,,,,,,,,,,,,,,
,,,,,,617400ff07055d954515650f,62bbf945d007ed79f0fa9496,2022-06-29_09h04.02.268,Colour_Asymmetry_Pilot,2022.1.3,Win32,60.0240096,62bbe60bf3d75ef465d3e404,,,,,,,,,,,,,,,,,,,"[0.796,0.2156,-0.27859999999999996]",threeone,"[-0.20799999999999996,-0.655,-0.01980000000000004]",-3,1.282,-66,34,1,0,0,response7disk_5,-19,9,1,0,0,rectangle_8,-19,9,1,0,0,,,4,-19,9,1,0,0,,1,0,1,0,1,,,,,,,,,,,,,,,,,,,,,,,,,,,,,,,,,,,,,,,,,,,,,,,,,,,,,,,,,,,,,,,,,,,,,,,,,,,,,,,,,,,,,,,,,,,,,,,,,,,,,,,,
,,,,,,617400ff07055d954515650f,62bbf945d007ed79f0fa9496,2022-06-29_09h04.02.268,Colour_Asymmetry_Pilot,2022.1.3,Win32,60.0240096,62bbe60bf3d75ef465d3e404,,,,,,,,,,,,,,,,,,,"[-0.2942,-0.24719999999999998,-0.357]",twofour,"[-0.01980000000000004,-0.5138,-0.38039999999999996]",-3,7.082,-62,37,1,0,0,response7disk_5,-10,13,1,0,0,rectangle_8,28,65,1,0,0,response1disk_7,7,4,10,10,1,0,0,rectangle_4,2,0,2,0,1,,,,,,,,,,,,,,,,,,,,,,,,,,,,,,,,,,,,,,,,,,,,,,,,,,,,,,,,,,,,,,,,,,,,,,,,,,,,,,,,,,,,,,,,,,,,,,,,,,,,,,,,
,,,,,,617400ff07055d954515650f,62bbf945d007ed79f0fa9496,2022-06-29_09h04.02.268,Colour_Asymmetry_Pilot,2022.1.3,Win32,60.0240096,62bbe60bf3d75ef465d3e404,,,,,,,,,,,,,,,,,,,"[-0.45899999999999996,-0.3256,-0.9374]",fourthree,"[-0.48240000000000005,0.3175999999999999,0.2156]",-4,1.834,-32,75,1,0,0,response7disk_5,19,-13,1,0,0,rectangle_8,19,-13,1,0,0,,,4,19,-13,1,0,0,,3,0,3,0,1,,,,,,,,,,,,,,,,,,,,,,,,,,,,,,,,,,,,,,,,,,,,,,,,,,,,,,,,,,,,,,,,,,,,,,,,,,,,,,,,,,,,,,,,,,,,,,,,,,,,,,,,
,,,,,,617400ff07055d954515650f,62bbf945d007ed79f0fa9496,2022-06-29_09h04.02.268,Colour_Asymmetry_Pilot,2022.1.3,Win32,60.0240096,62bbe60bf3d75ef465d3e404,,,,,,,,,,,,,,,,,,,"[-0.5452,-0.608,0.2470000000000001]",threefour,"[0.6625999999999999,0.4980000000000002,-0.357]",-3,2.103,-65,37,1,0,0,response7disk_5,-18,10,1,0,0,rectangle_8,-18,10,1,0,0,,,4,-18,10,1,0,0,,4,0,4,0,1,,,,,,,,,,,,,,,,,,,,,,,,,,,,,,,,,,,,,,,,,,,,,,,,,,,,,,,,,,,,,,,,,,,,,,,,,,,,,,,,,,,,,,,,,,,,,,,,,,,,,,,,
,,,,,,617400ff07055d954515650f,62bbf945d007ed79f0fa9496,2022-06-29_09h04.02.268,Colour_Asymmetry_Pilot,2022.1.3,Win32,60.0240096,62bbe60bf3d75ef465d3e404,,,,,,,,,,,,,,,,,,,"[-0.09019999999999995,0.44300000000000006,0.5371999999999999]",fourthree,"[-0.2942,-0.7648,-0.7492000000000001]",-3,3.2,-79,25,1,0,0,response7disk_5,-10,-4,1,0,0,rectangle_8,-10,-4,1,0,0,,,4,-10,-4,1,0,0,,5,0,5,0,1,,,,,,,,,,,,,,,,,,,,,,,,,,,,,,,,,,,,,,,,,,,,,,,,,,,,,,,,,,,,,,,,,,,,,,,,,,,,,,,,,,,,,,,,,,,,,,,,,,,,,,,,
,,,,,,617400ff07055d954515650f,62bbf945d007ed79f0fa9496,2022-06-29_09h04.02.268,Colour_Asymmetry_Pilot,2022.1.3,Win32,60.0240096,62bbe60bf3d75ef465d3e404,,,,,,,,,,,,,,,,,,,"[-0.6235999999999999,-0.6786,-0.08239999999999992]",twoone,"[0.6625999999999999,0.4980000000000002,-0.357]",-3,1.02,-60,40,1,0,0,response7disk_5,-32,13,1,0,0,rectangle_8,-32,13,1,0,0,,,4,-32,13,1,0,0,,6,0,6,0,1,,,,,,,,,,,,,,,,,,,,,,,,,,,,,,,,,,,,,,,,,,,,,,,,,,,,,,,,,,,,,,,,,,,,,,,,,,,,,,,,,,,,,,,,,,,,,,,,,,,,,,,,
,,,,,,617400ff07055d954515650f,62bbf945d007ed79f0fa9496,2022-06-29_09h04.02.268,Colour_Asymmetry_Pilot,2022.1.3,Win32,60.0240096,62bbe60bf3d75ef465d3e404,,,,,,,,,,,,,,,,,,,,onethree,,-2,2.298,,,,,,,,,,,,,,,,,,,,,,,,,,,,,,,,space,54.535,"[-0.26280000000000003,-0.4746,-0.2158]","[0.9763999999999999,0.8588,-0.05900000000000005]",-72,-55,1,0,0,response5disk,5,-4,1,0,0,rectangle,5,-4,1,0,0,,2,0.002,0,5,-4,1,0,0,0,0,0,68,1,68,first,,,,,,,,,,,,,,,,,,,,,,,,,,,,,,,,,,,,,,,,,,,,,,,,,,,,,,,,,,,,,,,,,,,
,,,,,,617400ff07055d954515650f,62bbf945d007ed79f0fa9496,2022-06-29_09h04.02.268,Colour_Asymmetry_Pilot,2022.1.3,Win32,60.0240096,62bbe60bf3d75ef465d3e404,,,,,,,,,,,,,,,,,,,,onetwo,,-2,0.671,,,,,,,,,,,,,,,,,,,,,,,,,,,,,,,,,,"[0.9763999999999999,-0.1137999999999999,-0.6314]","[0.40379999999999994,0.09000000000000008,0.44300000000000006]",-85,-35,1,0,0,response5disk,-23,0,1,0,0,rectangle,-23,0,1,0,0,,2,0.001,0,-23,0,1,0,0,0,1,1,79,1,79,first,,,,,,,,,,,,,,,,,,,,,,,,,,,,,,,,,,,,,,,,,,,,,,,,,,,,,,,,,,,,,,,,,,,
,,,,,,617400ff07055d954515650f,62bbf945d007ed79f0fa9496,2022-06-29_09h04.02.268,Colour_Asymmetry_Pilot,2022.1.3,Win32,60.0240096,62bbe60bf3d75ef465d3e404,,,,,,,,,,,,,,,,,,,,fourthree,,2,1.468,,,,,,,,,,,,,,,,,,,,,,,,,,,,,,,,,,"[0.04299999999999993,0.16060000000000008,-0.6628000000000001]","[-0.26280000000000003,-0.2158,-0.3256]",81,-40,1,0,0,response3disk,-4,0,1,0,0,rectangle,-4,0,1,0,0,,3,0.002,0,-4,0,1,0,0,0,2,2,94,1,13,second,,,,,,,,,,,,,,,,,,,,,,,,,,,,,,,,,,,,,,,,,,,,,,,,,,,,,,,,,,,,,,,,,,,
,,,,,,617400ff07055d954515650f,62bbf945d007ed79f0fa9496,2022-06-29_09h04.02.268,Colour_Asymmetry_Pilot,2022.1.3,Win32,60.0240096,62bbe60bf3d75ef465d3e404,,,,,,,,,,,,,,,,,,,,onetwo,,-3,0.568,,,,,,,,,,,,,,,,,,,,,,,,,,,,,,,,,,"[0.9686000000000001,0.5763999999999998,0.11359999999999992]","[-0.8982,-0.37259999999999993,0.2784]",-60,46,1,0,0,response7disk,0,6,1,0,0,rectangle,0,6,1,0,0,,2,0.001,0,0,6,1,0,0,0,3,3,105,1,24,second,,,,,,,,,,,,,,,,,,,,,,,,,,,,,,,,,,,,,,,,,,,,,,,,,,,,,,,,,,,,,,,,,,,
,,,,,,617400ff07055d954515650f,62bbf945d007ed79f0fa9496,2022-06-29_09h04.02.268,Colour_Asymmetry_Pilot,2022.1.3,Win32,60.0240096,62bbe60bf3d75ef465d3e404,,,,,,,,,,,,,,,,,,,,onethree,,-1,0.736,,,,,,,,,,,,,,,,,,,,,,,,,,,,,,,,,,"[-0.8198,-0.5138,-0.7492000000000001]","[0.04299999999999993,0.16060000000000008,-0.6628000000000001]",-37,-66,1,0,0,response5disk,-10,-4,1,0,0,rectangle,-10,-4,1,0,0,,1,0.002,0,-10,-4,1,0,0,0,4,4,6,1,6,first,,,,,,,,,,,,,,,,,,,,,,,,,,,,,,,,,,,,,,,,,,,,,,,,,,,,,,,,,,,,,,,,,,,
,,,,,,617400ff07055d954515650f,62bbf945d007ed79f0fa9496,2022-06-29_09h04.02.268,Colour_Asymmetry_Pilot,2022.1.3,Win32,60.0240096,62bbe60bf3d75ef465d3e404,,,,,,,,,,,,,,,,,,,,twofour,,4,1.116,,,,,,,,,,,,,,,,,,,,,,,,,,,,,,,,,,"[-0.10599999999999998,-0.15300000000000002,0.15280000000000005]","[0.09799999999999986,-0.24719999999999998,0.15280000000000005]",34,59,1,0,0,response1disk,-5,-8,1,0,0,rectangle,-5,-8,1,0,0,,2,0.001,0,-5,-8,1,0,0,0,5,5,59,1,59,first,,,,,,,,,,,,,,,,,,,,,,,,,,,,,,,,,,,,,,,,,,,,,,,,,,,,,,,,,,,,,,,,,,,
,,,,,,617400ff07055d954515650f,62bbf945d007ed79f0fa9496,2022-06-29_09h04.02.268,Colour_Asymmetry_Pilot,2022.1.3,Win32,60.0240096,62bbe60bf3d75ef465d3e404,,,,,,,,,,,,,,,,,,,,onethree,,1,0.8,,,,,,,,,,,,,,,,,,,,,,,,,,,,,,,,,,"[-0.5922000000000001,-0.7492000000000001,-0.5296000000000001]","[0.7018,0.7176,0.6155999999999999]",50,-65,1,0,0,response3disk,15,-11,1,0,0,rectangle,15,-11,1,0,0,,1,0.001,0,15,-11,1,0,0,0,6,6,154,1,73,second,,,,,,,,,,,,,,,,,,,,,,,,,,,,,,,,,,,,,,,,,,,,,,,,,,,,,,,,,,,,,,,,,,,
,,,,,,617400ff07055d954515650f,62bbf945d007ed79f0fa9496,2022-06-29_09h04.02.268,Colour_Asymmetry_Pilot,2022.1.3,Win32,60.0240096,62bbe60bf3d75ef465d3e404,,,,,,,,,,,,,,,,,,,,fourtwo,,-2,1.051,,,,,,,,,,,,,,,,,,,,,,,,,,,,,,,,,,"[0.9372,0.9450000000000001,0.8980000000000001]","[0.2784,-0.31000000000000005,-0.5452]",-89,-26,1,0,0,response5disk,-16,5,1,0,0,rectangle,-16,5,1,0,0,,3,0.003,0,-16,5,1,0,0,0,7,7,3,1,3,first,,,,,,,,,,,,,,,,,,,,,,,,,,,,,,,,,,,,,,,,,,,,,,,,,,,,,,,,,,,,,,,,,,,
,,,,,,617400ff07055d954515650f,62bbf945d007ed79f0fa9496,2022-06-29_09h04.02.268,Colour_Asymmetry_Pilot,2022.1.3,Win32,60.0240096,62bbe60bf3d75ef465d3e404,,,,,,,,,,,,,,,,,,,,threefour,,3,0.751,,,,,,,,,,,,,,,,,,,,,,,,,,,,,,,,,,"[-0.9766,-0.6472,0.07440000000000002]","[-0.38039999999999996,-0.4276,-0.1452]",93,33,1,0,0,response1disk,21,4,1,0,0,rectangle,21,4,1,0,0,,3,0.001,0,21,4,1,0,0,0,8,8,139,1,58,second,,,,,,,,,,,,,,,,,,,,,,,,,,,,,,,,,,,,,,,,,,,,,,,,,,,,,,,,,,,,,,,,,,,
,,,,,,617400ff07055d954515650f,62bbf945d007ed79f0fa9496,2022-06-29_09h04.02.268,Colour_Asymmetry_Pilot,2022.1.3,Win32,60.0240096,62bbe60bf3d75ef465d3e404,,,,,,,,,,,,,,,,,,,,twoone,,-3,1.582,,,,,,,,,,,,,,,,,,,,,,,,,,,,,,,,,,"[-0.7412000000000001,-0.08239999999999992,-0.6864]","[-0.24719999999999998,-0.0354000000000001,0.3175999999999999]",-63,25,1,0,0,response7disk,8,5,1,0,0,rectangle,8,5,1,0,0,,1,0.001,0,8,5,1,0,0,0,9,9,38,1,38,first,,,,,,,,,,,,,,,,,,,,,,,,,,,,,,,,,,,,,,,,,,,,,,,,,,,,,,,,,,,,,,,,,,,
,,,,,,617400ff07055d954515650f,62bbf945d007ed79f0fa9496,2022-06-29_09h04.02.268,Colour_Asymmetry_Pilot,2022.1.3,Win32,60.0240096,62bbe60bf3d75ef465d3e404,,,,,,,,,,,,,,,,,,,,threefour,,-3,0.65,,,,,,,,,,,,,,,,,,,,,,,,,,,,,,,,,,"[-0.45899999999999996,-0.3256,-0.9374]","[0.9763999999999999,-0.1137999999999999,-0.6314]",-77,40,1,0,0,response7disk,-8,1,1,0,0,rectangle,-8,1,1,0,0,,3,0.001,0,-8,1,1,0,0,0,10,10,112,1,31,second,,,,,,,,,,,,,,,,,,,,,,,,,,,,,,,,,,,,,,,,,,,,,,,,,,,,,,,,,,,,,,,,,,,
,,,,,,617400ff07055d954515650f,62bbf945d007ed79f0fa9496,2022-06-29_09h04.02.268,Colour_Asymmetry_Pilot,2022.1.3,Win32,60.0240096,62bbe60bf3d75ef465d3e404,,,,,,,,,,,,,,,,,,,,threefour,,1,1.221,,,,,,,,,,,,,,,,,,,,,,,,,,,,,,,,,,"[-0.34920000000000007,-0.702,-0.5216]","[0.9763999999999999,-0.1137999999999999,-0.6314]",40,-69,1,0,0,response3disk,-7,9,1,0,0,rectangle,-7,9,1,0,0,,3,0,0,-7,9,1,0,0,0,11,11,4,1,4,first,,,,,,,,,,,,,,,,,,,,,,,,,,,,,,,,,,,,,,,,,,,,,,,,,,,,,,,,,,,,,,,,,,,
,,,,,,617400ff07055d954515650f,62bbf945d007ed79f0fa9496,2022-06-29_09h04.02.268,Colour_Asymmetry_Pilot,2022.1.3,Win32,60.0240096,62bbe60bf3d75ef465d3e404,,,,,,,,,,,,,,,,,,,,fourthree,,1,0.636,,,,,,,,,,,,,,,,,,,,,,,,,,,,,,,,,,"[0.23120000000000007,-0.7726,-0.34120000000000006]","[-0.8198,-0.5138,-0.7492000000000001]",38,-65,1,0,0,response3disk,-4,2,1,0,0,rectangle,-4,2,1,0,0,,1,0.001,0,-4,2,1,0,0,0,12,12,23,1,23,first,,,,,,,,,,,,,,,,,,,,,,,,,,,,,,,,,,,,,,,,,,,,,,,,,,,,,,,,,,,,,,,,,,,
,,,,,,617400ff07055d954515650f,62bbf945d007ed79f0fa9496,2022-06-29_09h04.02.268,Colour_Asymmetry_Pilot,2022.1.3,Win32,60.0240096,62bbe60bf3d75ef465d3e404,,,,,,,,,,,,,,,,,,,,threefour,,-2,0.783,,,,,,,,,,,,,,,,,,,,,,,,,,,,,,,,,,"[-0.6,0.16860000000000008,0.44300000000000006]","[0.5449999999999999,-0.31000000000000005,-0.0354000000000001]",-57,-28,1,0,0,response5disk,-9,-3,1,0,0,rectangle,-9,-3,1,0,0,,1,0,0,-9,-3,1,0,0,0,13,13,138,1,57,second,,,,,,,,,,,,,,,,,,,,,,,,,,,,,,,,,,,,,,,,,,,,,,,,,,,,,,,,,,,,,,,,,,,
,,,,,,617400ff07055d954515650f,62bbf945d007ed79f0fa9496,2022-06-29_09h04.02.268,Colour_Asymmetry_Pilot,2022.1.3,Win32,60.0240096,62bbe60bf3d75ef465d3e404,,,,,,,,,,,,,,,,,,,,onethree,,-2,0.516,,,,,,,,,,,,,,,,,,,,,,,,,,,,,,,,,,"[0.2784,-0.31000000000000005,-0.5452]","[-0.26280000000000003,-0.2158,-0.3256]",-64,-30,1,0,0,response5disk,-4,8,1,0,0,rectangle,-4,8,1,0,0,,3,0.002,0,-4,8,1,0,0,0,14,14,40,1,40,first,,,,,,,,,,,,,,,,,,,,,,,,,,,,,,,,,,,,,,,,,,,,,,,,,,,,,,,,,,,,,,,,,,,
,,,,,,617400ff07055d954515650f,62bbf945d007ed79f0fa9496,2022-06-29_09h04.02.268,Colour_Asymmetry_Pilot,2022.1.3,Win32,60.0240096,62bbe60bf3d75ef465d3e404,,,,,,,,,,,,,,,,,,,,onethree,,-3,0.481,,,,,,,,,,,,,,,,,,,,,,,,,,,,,,,,,,"[-0.9766,-0.34920000000000007,0.2156]","[0.7018,0.7802,-0.16079999999999994]",-63,30,1,0,0,response7disk,22,-11,1,0,0,rectangle,22,-11,1,0,0,,2,0.002,0,22,-11,1,0,0,0,15,15,82,1,1,second,,,,,,,,,,,,,,,,,,,,,,,,,,,,,,,,,,,,,,,,,,,,,,,,,,,,,,,,,,,,,,,,,,,
,,,,,,617400ff07055d954515650f,62bbf945d007ed79f0fa9496,2022-06-29_09h04.02.268,Colour_Asymmetry_Pilot,2022.1.3,Win32,60.0240096,62bbe60bf3d75ef465d3e404,,,,,,,,,,,,,,,,,,,,threeone,,-3,0.716,,,,,,,,,,,,,,,,,,,,,,,,,,,,,,,,,,"[0.2784,-0.31000000000000005,-0.5452]","[0.11359999999999992,0.6312,0.5213999999999999]",-52,29,1,0,0,response7disk,23,-7,1,0,0,rectangle,23,-7,1,0,0,,1,0.002,0,23,-7,1,0,0,0,16,16,116,1,35,second,,,,,,,,,,,,,,,,,,,,,,,,,,,,,,,,,,,,,,,,,,,,,,,,,,,,,,,,,,,,,,,,,,,
,,,,,,617400ff07055d954515650f,62bbf945d007ed79f0fa9496,2022-06-29_09h04.02.268,Colour_Asymmetry_Pilot,2022.1.3,Win32,60.0240096,62bbe60bf3d75ef465d3e404,,,,,,,,,,,,,,,,,,,,onethree,,-3,0.515,,,,,,,,,,,,,,,,,,,,,,,,,,,,,,,,,,"[-0.6,0.16860000000000008,0.44300000000000006]","[-0.6706000000000001,-0.6157999999999999,-0.6786]",-71,30,1,0,0,response7disk,19,2,1,0,0,rectangle,19,2,1,0,0,,3,0.002,0,19,2,1,0,0,0,17,17,96,1,15,second,,,,,,,,,,,,,,,,,,,,,,,,,,,,,,,,,,,,,,,,,,,,,,,,,,,,,,,,,,,,,,,,,,,
,,,,,,617400ff07055d954515650f,62bbf945d007ed79f0fa9496,2022-06-29_09h04.02.268,Colour_Asymmetry_Pilot,2022.1.3,Win32,60.0240096,62bbe60bf3d75ef465d3e404,,,,,,,,,,,,,,,,,,,,fourtwo,,-2,0.684,,,,,,,,,,,,,,,,,,,,,,,,,,,,,,,,,,"[0.19199999999999995,0.18419999999999992,0.5136000000000001]","[-0.5688,-0.08239999999999992,-0.1844]",-76,-26,1,0,0,response5disk,14,7,1,0,0,rectangle,14,7,1,0,0,,2,0.001,0,14,7,1,0,0,0,18,18,39,1,39,first,,,,,,,,,,,,,,,,,,,,,,,,,,,,,,,,,,,,,,,,,,,,,,,,,,,,,,,,,,,,,,,,,,,
,,,,,,617400ff07055d954515650f,62bbf945d007ed79f0fa9496,2022-06-29_09h04.02.268,Colour_Asymmetry_Pilot,2022.1.3,Win32,60.0240096,62bbe60bf3d75ef465d3e404,,,,,,,,,,,,,,,,,,,,threeone,,-2,0.568,,,,,,,,,,,,,,,,,,,,,,,,,,,,,,,,,,"[-0.26280000000000003,-0.2158,-0.3256]","[0.2784,-0.31000000000000005,-0.5452]",-57,-19,1,0,0,response5disk,-10,6,1,0,0,rectangle,-10,6,1,0,0,,1,0.001,0,-10,6,1,0,0,0,19,19,121,1,40,second,,,,,,,,,,,,,,,,,,,,,,,,,,,,,,,,,,,,,,,,,,,,,,,,,,,,,,,,,,,,,,,,,,,
,,,,,,617400ff07055d954515650f,62bbf945d007ed79f0fa9496,2022-06-29_09h04.02.268,Colour_Asymmetry_Pilot,2022.1.3,Win32,60.0240096,62bbe60bf3d75ef465d3e404,,,,,,,,,,,,,,,,,,,,fourtwo,,-3,0.45,,,,,,,,,,,,,,,,,,,,,,,,,,,,,,,,,,"[-0.4276,0.0038000000000000256,-0.3256]","[0.7646000000000002,0.07440000000000002,0.2704]",-73,35,1,0,0,response7disk,-14,6,1,0,0,rectangle,-14,6,1,0,0,,2,0.001,0,-14,6,1,0,0,0,20,20,62,1,62,first,,,,,,,,,,,,,,,,,,,,,,,,,,,,,,,,,,,,,,,,,,,,,,,,,,,,,,,,,,,,,,,,,,,
