trials.thisRepN,trials.thisTrialN,trials.thisN,trials.thisIndex,trials.ran,Colourcodes,participant,session,date,expName,psychopyVersion,OS,frameRate,study_id,trials_4.thisRepN,trials_4.thisTrialN,trials_4.thisN,trials_4.thisIndex,trials_4.ran,StimulusPos,key_resp.keys,key_resp.rt,key_resp_2.keys,key_resp_2.rt,key_resp_15.keys,key_resp_15.rt,key_resp_17.keys,key_resp_17.rt,key_resp_9.keys,key_resp_9.rt,key_resp_10.keys,key_resp_10.rt,Circle1_col,Ecc,Circle2_col,similarity,response_time,mouse_5.x,mouse_5.y,mouse_5.leftButton,mouse_5.midButton,mouse_5.rightButton,mouse_5.clicked_name,mouse_10.x,mouse_10.y,mouse_10.leftButton,mouse_10.midButton,mouse_10.rightButton,mouse_10.clicked_name,mouse_7.x,mouse_7.y,mouse_7.leftButton,mouse_7.midButton,mouse_7.rightButton,catchnumberprac,mouse_6.x,mouse_6.y,mouse_6.leftButton,mouse_6.midButton,mouse_6.rightButton,duringprac.thisRepN,duringprac.thisTrialN,duringprac.thisN,duringprac.thisIndex,duringprac.ran,mouse_7.clicked_name,catchprac,mouse_6.clicked_name,key_resp_22.keys,key_resp_22.rt,Circle1_colour,Circle2_colour,mouse.x,mouse.y,mouse.leftButton,mouse.midButton,mouse.rightButton,mouse.clicked_name,mouse_2.x,mouse_2.y,mouse_2.leftButton,mouse_2.midButton,mouse_2.rightButton,mouse_2.clicked_name,mouse_3.x,mouse_3.y,mouse_3.leftButton,mouse_3.midButton,mouse_3.rightButton,catchresponse,catchnumber,response_time_catch,Catch,mouse_11.x,mouse_11.y,mouse_11.leftButton,mouse_11.midButton,mouse_11.rightButton,trials_2.thisRepN,trials_2.thisTrialN,trials_2.thisN,trials_2.thisIndex,trials_2.ran,Colourpair,Temporder,mouse_3.clicked_name,mouse_11.clicked_name,trials_3.thisRepN,trials_3.thisTrialN,trials_3.thisN,trials_3.thisIndex,trials_3.ran,key_resp_instr_Ishi.keys,key_resp_instr_Ishi.rt,Ishi_trial_keyresp.keys,Ishi_trial_keyresp.rt,Ishi_textbox.text,Ishi_loop.thisRepN,Ishi_loop.thisTrialN,Ishi_loop.thisN,Ishi_loop.thisIndex,Ishi_loop.ran,imageaddress,textbox.text,mouse_4.x,mouse_4.y,mouse_4.leftButton,mouse_4.midButton,mouse_4.rightButton,mouse_4.clicked_name,textbox_2.text,mouse_8.x,mouse_8.y,mouse_8.leftButton,mouse_8.midButton,mouse_8.rightButton,mouse_8.clicked_name,textbox_3.text,mouse_9.x,mouse_9.y,mouse_9.leftButton,mouse_9.midButton,mouse_9.rightButton,mouse_9.clicked_name,textbox_4.text,mouse_12.x,mouse_12.y,mouse_12.leftButton,mouse_12.midButton,mouse_12.rightButton,mouse_12.clicked_name,textbox_5.text,mouse_13.x,mouse_13.y,mouse_13.leftButton,mouse_13.midButton,mouse_13.rightButton,mouse_13.clicked_name,textbox_6.text,mouse_14.x,mouse_14.y,mouse_14.leftButton,mouse_14.midButton,mouse_14.rightButton,mouse_14.clicked_name,textbox_7.text,mouse_15.x,mouse_15.y,mouse_15.leftButton,mouse_15.midButton,mouse_15.rightButton,mouse_15.clicked_name
0,0,0,5,1,,5f823a9879e10536650a3d81,62bbf9b337f89da25f3dbc54,2022-06-29_08h05.44.736,Colour_Asymmetry_Pilot,2022.1.3,Win32,59.96282305,62bbe60bf3d75ef465d3e404,,,,,,,,,,,,,,,,,,,,,,,,,,,,,,,,,,,,,,,,,,,,,,,,,,,,,,,,,,,,,,,,,,,,,,,,,,,,,,,,,,,,,,,,,,,,,,,,,,,,,,,,,,,,,,,,,,,,,,,,,,,,,,,,,,,,,,,,,,,,,,,,,,,,,,,,,,,,,,
0,1,1,31,1,,5f823a9879e10536650a3d81,62bbf9b337f89da25f3dbc54,2022-06-29_08h05.44.736,Colour_Asymmetry_Pilot,2022.1.3,Win32,59.96282305,62bbe60bf3d75ef465d3e404,,,,,,,,,,,,,,,,,,,,,,,,,,,,,,,,,,,,,,,,,,,,,,,,,,,,,,,,,,,,,,,,,,,,,,,,,,,,,,,,,,,,,,,,,,,,,,,,,,,,,,,,,,,,,,,,,,,,,,,,,,,,,,,,,,,,,,,,,,,,,,,,,,,,,,,,,,,,,,
0,2,2,85,1,,5f823a9879e10536650a3d81,62bbf9b337f89da25f3dbc54,2022-06-29_08h05.44.736,Colour_Asymmetry_Pilot,2022.1.3,Win32,59.96282305,62bbe60bf3d75ef465d3e404,,,,,,,,,,,,,,,,,,,,,,,,,,,,,,,,,,,,,,,,,,,,,,,,,,,,,,,,,,,,,,,,,,,,,,,,,,,,,,,,,,,,,,,,,,,,,,,,,,,,,,,,,,,,,,,,,,,,,,,,,,,,,,,,,,,,,,,,,,,,,,,,,,,,,,,,,,,,,,
0,3,3,64,1,,5f823a9879e10536650a3d81,62bbf9b337f89da25f3dbc54,2022-06-29_08h05.44.736,Colour_Asymmetry_Pilot,2022.1.3,Win32,59.96282305,62bbe60bf3d75ef465d3e404,,,,,,,,,,,,,,,,,,,,,,,,,,,,,,,,,,,,,,,,,,,,,,,,,,,,,,,,,,,,,,,,,,,,,,,,,,,,,,,,,,,,,,,,,,,,,,,,,,,,,,,,,,,,,,,,,,,,,,,,,,,,,,,,,,,,,,,,,,,,,,,,,,,,,,,,,,,,,,
0,4,4,83,1,,5f823a9879e10536650a3d81,62bbf9b337f89da25f3dbc54,2022-06-29_08h05.44.736,Colour_Asymmetry_Pilot,2022.1.3,Win32,59.96282305,62bbe60bf3d75ef465d3e404,,,,,,,,,,,,,,,,,,,,,,,,,,,,,,,,,,,,,,,,,,,,,,,,,,,,,,,,,,,,,,,,,,,,,,,,,,,,,,,,,,,,,,,,,,,,,,,,,,,,,,,,,,,,,,,,,,,,,,,,,,,,,,,,,,,,,,,,,,,,,,,,,,,,,,,,,,,,,,
0,5,5,70,1,,5f823a9879e10536650a3d81,62bbf9b337f89da25f3dbc54,2022-06-29_08h05.44.736,Colour_Asymmetry_Pilot,2022.1.3,Win32,59.96282305,62bbe60bf3d75ef465d3e404,,,,,,,,,,,,,,,,,,,,,,,,,,,,,,,,,,,,,,,,,,,,,,,,,,,,,,,,,,,,,,,,,,,,,,,,,,,,,,,,,,,,,,,,,,,,,,,,,,,,,,,,,,,,,,,,,,,,,,,,,,,,,,,,,,,,,,,,,,,,,,,,,,,,,,,,,,,,,,
0,6,6,3,1,,5f823a9879e10536650a3d81,62bbf9b337f89da25f3dbc54,2022-06-29_08h05.44.736,Colour_Asymmetry_Pilot,2022.1.3,Win32,59.96282305,62bbe60bf3d75ef465d3e404,,,,,,,,,,,,,,,,,,,,,,,,,,,,,,,,,,,,,,,,,,,,,,,,,,,,,,,,,,,,,,,,,,,,,,,,,,,,,,,,,,,,,,,,,,,,,,,,,,,,,,,,,,,,,,,,,,,,,,,,,,,,,,,,,,,,,,,,,,,,,,,,,,,,,,,,,,,,,,
0,7,7,36,1,,5f823a9879e10536650a3d81,62bbf9b337f89da25f3dbc54,2022-06-29_08h05.44.736,Colour_Asymmetry_Pilot,2022.1.3,Win32,59.96282305,62bbe60bf3d75ef465d3e404,,,,,,,,,,,,,,,,,,,,,,,,,,,,,,,,,,,,,,,,,,,,,,,,,,,,,,,,,,,,,,,,,,,,,,,,,,,,,,,,,,,,,,,,,,,,,,,,,,,,,,,,,,,,,,,,,,,,,,,,,,,,,,,,,,,,,,,,,,,,,,,,,,,,,,,,,,,,,,
0,8,8,77,1,,5f823a9879e10536650a3d81,62bbf9b337f89da25f3dbc54,2022-06-29_08h05.44.736,Colour_Asymmetry_Pilot,2022.1.3,Win32,59.96282305,62bbe60bf3d75ef465d3e404,,,,,,,,,,,,,,,,,,,,,,,,,,,,,,,,,,,,,,,,,,,,,,,,,,,,,,,,,,,,,,,,,,,,,,,,,,,,,,,,,,,,,,,,,,,,,,,,,,,,,,,,,,,,,,,,,,,,,,,,,,,,,,,,,,,,,,,,,,,,,,,,,,,,,,,,,,,,,,
0,9,9,58,1,,5f823a9879e10536650a3d81,62bbf9b337f89da25f3dbc54,2022-06-29_08h05.44.736,Colour_Asymmetry_Pilot,2022.1.3,Win32,59.96282305,62bbe60bf3d75ef465d3e404,,,,,,,,,,,,,,,,,,,,,,,,,,,,,,,,,,,,,,,,,,,,,,,,,,,,,,,,,,,,,,,,,,,,,,,,,,,,,,,,,,,,,,,,,,,,,,,,,,,,,,,,,,,,,,,,,,,,,,,,,,,,,,,,,,,,,,,,,,,,,,,,,,,,,,,,,,,,,,
0,10,10,35,1,,5f823a9879e10536650a3d81,62bbf9b337f89da25f3dbc54,2022-06-29_08h05.44.736,Colour_Asymmetry_Pilot,2022.1.3,Win32,59.96282305,62bbe60bf3d75ef465d3e404,,,,,,,,,,,,,,,,,,,,,,,,,,,,,,,,,,,,,,,,,,,,,,,,,,,,,,,,,,,,,,,,,,,,,,,,,,,,,,,,,,,,,,,,,,,,,,,,,,,,,,,,,,,,,,,,,,,,,,,,,,,,,,,,,,,,,,,,,,,,,,,,,,,,,,,,,,,,,,
0,11,11,72,1,,5f823a9879e10536650a3d81,62bbf9b337f89da25f3dbc54,2022-06-29_08h05.44.736,Colour_Asymmetry_Pilot,2022.1.3,Win32,59.96282305,62bbe60bf3d75ef465d3e404,,,,,,,,,,,,,,,,,,,,,,,,,,,,,,,,,,,,,,,,,,,,,,,,,,,,,,,,,,,,,,,,,,,,,,,,,,,,,,,,,,,,,,,,,,,,,,,,,,,,,,,,,,,,,,,,,,,,,,,,,,,,,,,,,,,,,,,,,,,,,,,,,,,,,,,,,,,,,,
0,12,12,92,1,,5f823a9879e10536650a3d81,62bbf9b337f89da25f3dbc54,2022-06-29_08h05.44.736,Colour_Asymmetry_Pilot,2022.1.3,Win32,59.96282305,62bbe60bf3d75ef465d3e404,,,,,,,,,,,,,,,,,,,,,,,,,,,,,,,,,,,,,,,,,,,,,,,,,,,,,,,,,,,,,,,,,,,,,,,,,,,,,,,,,,,,,,,,,,,,,,,,,,,,,,,,,,,,,,,,,,,,,,,,,,,,,,,,,,,,,,,,,,,,,,,,,,,,,,,,,,,,,,
0,13,13,34,1,,5f823a9879e10536650a3d81,62bbf9b337f89da25f3dbc54,2022-06-29_08h05.44.736,Colour_Asymmetry_Pilot,2022.1.3,Win32,59.96282305,62bbe60bf3d75ef465d3e404,,,,,,,,,,,,,,,,,,,,,,,,,,,,,,,,,,,,,,,,,,,,,,,,,,,,,,,,,,,,,,,,,,,,,,,,,,,,,,,,,,,,,,,,,,,,,,,,,,,,,,,,,,,,,,,,,,,,,,,,,,,,,,,,,,,,,,,,,,,,,,,,,,,,,,,,,,,,,,
0,14,14,43,1,,5f823a9879e10536650a3d81,62bbf9b337f89da25f3dbc54,2022-06-29_08h05.44.736,Colour_Asymmetry_Pilot,2022.1.3,Win32,59.96282305,62bbe60bf3d75ef465d3e404,,,,,,,,,,,,,,,,,,,,,,,,,,,,,,,,,,,,,,,,,,,,,,,,,,,,,,,,,,,,,,,,,,,,,,,,,,,,,,,,,,,,,,,,,,,,,,,,,,,,,,,,,,,,,,,,,,,,,,,,,,,,,,,,,,,,,,,,,,,,,,,,,,,,,,,,,,,,,,
0,15,15,63,1,,5f823a9879e10536650a3d81,62bbf9b337f89da25f3dbc54,2022-06-29_08h05.44.736,Colour_Asymmetry_Pilot,2022.1.3,Win32,59.96282305,62bbe60bf3d75ef465d3e404,,,,,,,,,,,,,,,,,,,,,,,,,,,,,,,,,,,,,,,,,,,,,,,,,,,,,,,,,,,,,,,,,,,,,,,,,,,,,,,,,,,,,,,,,,,,,,,,,,,,,,,,,,,,,,,,,,,,,,,,,,,,,,,,,,,,,,,,,,,,,,,,,,,,,,,,,,,,,,
0,16,16,73,1,,5f823a9879e10536650a3d81,62bbf9b337f89da25f3dbc54,2022-06-29_08h05.44.736,Colour_Asymmetry_Pilot,2022.1.3,Win32,59.96282305,62bbe60bf3d75ef465d3e404,,,,,,,,,,,,,,,,,,,,,,,,,,,,,,,,,,,,,,,,,,,,,,,,,,,,,,,,,,,,,,,,,,,,,,,,,,,,,,,,,,,,,,,,,,,,,,,,,,,,,,,,,,,,,,,,,,,,,,,,,,,,,,,,,,,,,,,,,,,,,,,,,,,,,,,,,,,,,,
0,17,17,47,1,,5f823a9879e10536650a3d81,62bbf9b337f89da25f3dbc54,2022-06-29_08h05.44.736,Colour_Asymmetry_Pilot,2022.1.3,Win32,59.96282305,62bbe60bf3d75ef465d3e404,,,,,,,,,,,,,,,,,,,,,,,,,,,,,,,,,,,,,,,,,,,,,,,,,,,,,,,,,,,,,,,,,,,,,,,,,,,,,,,,,,,,,,,,,,,,,,,,,,,,,,,,,,,,,,,,,,,,,,,,,,,,,,,,,,,,,,,,,,,,,,,,,,,,,,,,,,,,,,
0,18,18,10,1,,5f823a9879e10536650a3d81,62bbf9b337f89da25f3dbc54,2022-06-29_08h05.44.736,Colour_Asymmetry_Pilot,2022.1.3,Win32,59.96282305,62bbe60bf3d75ef465d3e404,,,,,,,,,,,,,,,,,,,,,,,,,,,,,,,,,,,,,,,,,,,,,,,,,,,,,,,,,,,,,,,,,,,,,,,,,,,,,,,,,,,,,,,,,,,,,,,,,,,,,,,,,,,,,,,,,,,,,,,,,,,,,,,,,,,,,,,,,,,,,,,,,,,,,,,,,,,,,,
0,19,19,91,1,,5f823a9879e10536650a3d81,62bbf9b337f89da25f3dbc54,2022-06-29_08h05.44.736,Colour_Asymmetry_Pilot,2022.1.3,Win32,59.96282305,62bbe60bf3d75ef465d3e404,,,,,,,,,,,,,,,,,,,,,,,,,,,,,,,,,,,,,,,,,,,,,,,,,,,,,,,,,,,,,,,,,,,,,,,,,,,,,,,,,,,,,,,,,,,,,,,,,,,,,,,,,,,,,,,,,,,,,,,,,,,,,,,,,,,,,,,,,,,,,,,,,,,,,,,,,,,,,,
0,20,20,78,1,,5f823a9879e10536650a3d81,62bbf9b337f89da25f3dbc54,2022-06-29_08h05.44.736,Colour_Asymmetry_Pilot,2022.1.3,Win32,59.96282305,62bbe60bf3d75ef465d3e404,,,,,,,,,,,,,,,,,,,,,,,,,,,,,,,,,,,,,,,,,,,,,,,,,,,,,,,,,,,,,,,,,,,,,,,,,,,,,,,,,,,,,,,,,,,,,,,,,,,,,,,,,,,,,,,,,,,,,,,,,,,,,,,,,,,,,,,,,,,,,,,,,,,,,,,,,,,,,,
0,21,21,44,1,,5f823a9879e10536650a3d81,62bbf9b337f89da25f3dbc54,2022-06-29_08h05.44.736,Colour_Asymmetry_Pilot,2022.1.3,Win32,59.96282305,62bbe60bf3d75ef465d3e404,,,,,,,,,,,,,,,,,,,,,,,,,,,,,,,,,,,,,,,,,,,,,,,,,,,,,,,,,,,,,,,,,,,,,,,,,,,,,,,,,,,,,,,,,,,,,,,,,,,,,,,,,,,,,,,,,,,,,,,,,,,,,,,,,,,,,,,,,,,,,,,,,,,,,,,,,,,,,,
0,22,22,52,1,,5f823a9879e10536650a3d81,62bbf9b337f89da25f3dbc54,2022-06-29_08h05.44.736,Colour_Asymmetry_Pilot,2022.1.3,Win32,59.96282305,62bbe60bf3d75ef465d3e404,,,,,,,,,,,,,,,,,,,,,,,,,,,,,,,,,,,,,,,,,,,,,,,,,,,,,,,,,,,,,,,,,,,,,,,,,,,,,,,,,,,,,,,,,,,,,,,,,,,,,,,,,,,,,,,,,,,,,,,,,,,,,,,,,,,,,,,,,,,,,,,,,,,,,,,,,,,,,,
0,23,23,79,1,,5f823a9879e10536650a3d81,62bbf9b337f89da25f3dbc54,2022-06-29_08h05.44.736,Colour_Asymmetry_Pilot,2022.1.3,Win32,59.96282305,62bbe60bf3d75ef465d3e404,,,,,,,,,,,,,,,,,,,,,,,,,,,,,,,,,,,,,,,,,,,,,,,,,,,,,,,,,,,,,,,,,,,,,,,,,,,,,,,,,,,,,,,,,,,,,,,,,,,,,,,,,,,,,,,,,,,,,,,,,,,,,,,,,,,,,,,,,,,,,,,,,,,,,,,,,,,,,,
0,24,24,69,1,,5f823a9879e10536650a3d81,62bbf9b337f89da25f3dbc54,2022-06-29_08h05.44.736,Colour_Asymmetry_Pilot,2022.1.3,Win32,59.96282305,62bbe60bf3d75ef465d3e404,,,,,,,,,,,,,,,,,,,,,,,,,,,,,,,,,,,,,,,,,,,,,,,,,,,,,,,,,,,,,,,,,,,,,,,,,,,,,,,,,,,,,,,,,,,,,,,,,,,,,,,,,,,,,,,,,,,,,,,,,,,,,,,,,,,,,,,,,,,,,,,,,,,,,,,,,,,,,,
0,25,25,19,1,,5f823a9879e10536650a3d81,62bbf9b337f89da25f3dbc54,2022-06-29_08h05.44.736,Colour_Asymmetry_Pilot,2022.1.3,Win32,59.96282305,62bbe60bf3d75ef465d3e404,,,,,,,,,,,,,,,,,,,,,,,,,,,,,,,,,,,,,,,,,,,,,,,,,,,,,,,,,,,,,,,,,,,,,,,,,,,,,,,,,,,,,,,,,,,,,,,,,,,,,,,,,,,,,,,,,,,,,,,,,,,,,,,,,,,,,,,,,,,,,,,,,,,,,,,,,,,,,,
0,26,26,90,1,,5f823a9879e10536650a3d81,62bbf9b337f89da25f3dbc54,2022-06-29_08h05.44.736,Colour_Asymmetry_Pilot,2022.1.3,Win32,59.96282305,62bbe60bf3d75ef465d3e404,,,,,,,,,,,,,,,,,,,,,,,,,,,,,,,,,,,,,,,,,,,,,,,,,,,,,,,,,,,,,,,,,,,,,,,,,,,,,,,,,,,,,,,,,,,,,,,,,,,,,,,,,,,,,,,,,,,,,,,,,,,,,,,,,,,,,,,,,,,,,,,,,,,,,,,,,,,,,,
0,27,27,6,1,,5f823a9879e10536650a3d81,62bbf9b337f89da25f3dbc54,2022-06-29_08h05.44.736,Colour_Asymmetry_Pilot,2022.1.3,Win32,59.96282305,62bbe60bf3d75ef465d3e404,,,,,,,,,,,,,,,,,,,,,,,,,,,,,,,,,,,,,,,,,,,,,,,,,,,,,,,,,,,,,,,,,,,,,,,,,,,,,,,,,,,,,,,,,,,,,,,,,,,,,,,,,,,,,,,,,,,,,,,,,,,,,,,,,,,,,,,,,,,,,,,,,,,,,,,,,,,,,,
0,28,28,86,1,,5f823a9879e10536650a3d81,62bbf9b337f89da25f3dbc54,2022-06-29_08h05.44.736,Colour_Asymmetry_Pilot,2022.1.3,Win32,59.96282305,62bbe60bf3d75ef465d3e404,,,,,,,,,,,,,,,,,,,,,,,,,,,,,,,,,,,,,,,,,,,,,,,,,,,,,,,,,,,,,,,,,,,,,,,,,,,,,,,,,,,,,,,,,,,,,,,,,,,,,,,,,,,,,,,,,,,,,,,,,,,,,,,,,,,,,,,,,,,,,,,,,,,,,,,,,,,,,,
0,29,29,16,1,,5f823a9879e10536650a3d81,62bbf9b337f89da25f3dbc54,2022-06-29_08h05.44.736,Colour_Asymmetry_Pilot,2022.1.3,Win32,59.96282305,62bbe60bf3d75ef465d3e404,,,,,,,,,,,,,,,,,,,,,,,,,,,,,,,,,,,,,,,,,,,,,,,,,,,,,,,,,,,,,,,,,,,,,,,,,,,,,,,,,,,,,,,,,,,,,,,,,,,,,,,,,,,,,,,,,,,,,,,,,,,,,,,,,,,,,,,,,,,,,,,,,,,,,,,,,,,,,,
0,30,30,50,1,,5f823a9879e10536650a3d81,62bbf9b337f89da25f3dbc54,2022-06-29_08h05.44.736,Colour_Asymmetry_Pilot,2022.1.3,Win32,59.96282305,62bbe60bf3d75ef465d3e404,,,,,,,,,,,,,,,,,,,,,,,,,,,,,,,,,,,,,,,,,,,,,,,,,,,,,,,,,,,,,,,,,,,,,,,,,,,,,,,,,,,,,,,,,,,,,,,,,,,,,,,,,,,,,,,,,,,,,,,,,,,,,,,,,,,,,,,,,,,,,,,,,,,,,,,,,,,,,,
0,31,31,13,1,,5f823a9879e10536650a3d81,62bbf9b337f89da25f3dbc54,2022-06-29_08h05.44.736,Colour_Asymmetry_Pilot,2022.1.3,Win32,59.96282305,62bbe60bf3d75ef465d3e404,,,,,,,,,,,,,,,,,,,,,,,,,,,,,,,,,,,,,,,,,,,,,,,,,,,,,,,,,,,,,,,,,,,,,,,,,,,,,,,,,,,,,,,,,,,,,,,,,,,,,,,,,,,,,,,,,,,,,,,,,,,,,,,,,,,,,,,,,,,,,,,,,,,,,,,,,,,,,,
0,32,32,76,1,,5f823a9879e10536650a3d81,62bbf9b337f89da25f3dbc54,2022-06-29_08h05.44.736,Colour_Asymmetry_Pilot,2022.1.3,Win32,59.96282305,62bbe60bf3d75ef465d3e404,,,,,,,,,,,,,,,,,,,,,,,,,,,,,,,,,,,,,,,,,,,,,,,,,,,,,,,,,,,,,,,,,,,,,,,,,,,,,,,,,,,,,,,,,,,,,,,,,,,,,,,,,,,,,,,,,,,,,,,,,,,,,,,,,,,,,,,,,,,,,,,,,,,,,,,,,,,,,,
0,33,33,18,1,,5f823a9879e10536650a3d81,62bbf9b337f89da25f3dbc54,2022-06-29_08h05.44.736,Colour_Asymmetry_Pilot,2022.1.3,Win32,59.96282305,62bbe60bf3d75ef465d3e404,,,,,,,,,,,,,,,,,,,,,,,,,,,,,,,,,,,,,,,,,,,,,,,,,,,,,,,,,,,,,,,,,,,,,,,,,,,,,,,,,,,,,,,,,,,,,,,,,,,,,,,,,,,,,,,,,,,,,,,,,,,,,,,,,,,,,,,,,,,,,,,,,,,,,,,,,,,,,,
0,34,34,29,1,,5f823a9879e10536650a3d81,62bbf9b337f89da25f3dbc54,2022-06-29_08h05.44.736,Colour_Asymmetry_Pilot,2022.1.3,Win32,59.96282305,62bbe60bf3d75ef465d3e404,,,,,,,,,,,,,,,,,,,,,,,,,,,,,,,,,,,,,,,,,,,,,,,,,,,,,,,,,,,,,,,,,,,,,,,,,,,,,,,,,,,,,,,,,,,,,,,,,,,,,,,,,,,,,,,,,,,,,,,,,,,,,,,,,,,,,,,,,,,,,,,,,,,,,,,,,,,,,,
0,35,35,33,1,,5f823a9879e10536650a3d81,62bbf9b337f89da25f3dbc54,2022-06-29_08h05.44.736,Colour_Asymmetry_Pilot,2022.1.3,Win32,59.96282305,62bbe60bf3d75ef465d3e404,,,,,,,,,,,,,,,,,,,,,,,,,,,,,,,,,,,,,,,,,,,,,,,,,,,,,,,,,,,,,,,,,,,,,,,,,,,,,,,,,,,,,,,,,,,,,,,,,,,,,,,,,,,,,,,,,,,,,,,,,,,,,,,,,,,,,,,,,,,,,,,,,,,,,,,,,,,,,,
0,36,36,48,1,,5f823a9879e10536650a3d81,62bbf9b337f89da25f3dbc54,2022-06-29_08h05.44.736,Colour_Asymmetry_Pilot,2022.1.3,Win32,59.96282305,62bbe60bf3d75ef465d3e404,,,,,,,,,,,,,,,,,,,,,,,,,,,,,,,,,,,,,,,,,,,,,,,,,,,,,,,,,,,,,,,,,,,,,,,,,,,,,,,,,,,,,,,,,,,,,,,,,,,,,,,,,,,,,,,,,,,,,,,,,,,,,,,,,,,,,,,,,,,,,,,,,,,,,,,,,,,,,,
0,37,37,61,1,,5f823a9879e10536650a3d81,62bbf9b337f89da25f3dbc54,2022-06-29_08h05.44.736,Colour_Asymmetry_Pilot,2022.1.3,Win32,59.96282305,62bbe60bf3d75ef465d3e404,,,,,,,,,,,,,,,,,,,,,,,,,,,,,,,,,,,,,,,,,,,,,,,,,,,,,,,,,,,,,,,,,,,,,,,,,,,,,,,,,,,,,,,,,,,,,,,,,,,,,,,,,,,,,,,,,,,,,,,,,,,,,,,,,,,,,,,,,,,,,,,,,,,,,,,,,,,,,,
0,38,38,15,1,,5f823a9879e10536650a3d81,62bbf9b337f89da25f3dbc54,2022-06-29_08h05.44.736,Colour_Asymmetry_Pilot,2022.1.3,Win32,59.96282305,62bbe60bf3d75ef465d3e404,,,,,,,,,,,,,,,,,,,,,,,,,,,,,,,,,,,,,,,,,,,,,,,,,,,,,,,,,,,,,,,,,,,,,,,,,,,,,,,,,,,,,,,,,,,,,,,,,,,,,,,,,,,,,,,,,,,,,,,,,,,,,,,,,,,,,,,,,,,,,,,,,,,,,,,,,,,,,,
0,39,39,17,1,,5f823a9879e10536650a3d81,62bbf9b337f89da25f3dbc54,2022-06-29_08h05.44.736,Colour_Asymmetry_Pilot,2022.1.3,Win32,59.96282305,62bbe60bf3d75ef465d3e404,,,,,,,,,,,,,,,,,,,,,,,,,,,,,,,,,,,,,,,,,,,,,,,,,,,,,,,,,,,,,,,,,,,,,,,,,,,,,,,,,,,,,,,,,,,,,,,,,,,,,,,,,,,,,,,,,,,,,,,,,,,,,,,,,,,,,,,,,,,,,,,,,,,,,,,,,,,,,,
0,40,40,41,1,,5f823a9879e10536650a3d81,62bbf9b337f89da25f3dbc54,2022-06-29_08h05.44.736,Colour_Asymmetry_Pilot,2022.1.3,Win32,59.96282305,62bbe60bf3d75ef465d3e404,,,,,,,,,,,,,,,,,,,,,,,,,,,,,,,,,,,,,,,,,,,,,,,,,,,,,,,,,,,,,,,,,,,,,,,,,,,,,,,,,,,,,,,,,,,,,,,,,,,,,,,,,,,,,,,,,,,,,,,,,,,,,,,,,,,,,,,,,,,,,,,,,,,,,,,,,,,,,,
0,41,41,54,1,,5f823a9879e10536650a3d81,62bbf9b337f89da25f3dbc54,2022-06-29_08h05.44.736,Colour_Asymmetry_Pilot,2022.1.3,Win32,59.96282305,62bbe60bf3d75ef465d3e404,,,,,,,,,,,,,,,,,,,,,,,,,,,,,,,,,,,,,,,,,,,,,,,,,,,,,,,,,,,,,,,,,,,,,,,,,,,,,,,,,,,,,,,,,,,,,,,,,,,,,,,,,,,,,,,,,,,,,,,,,,,,,,,,,,,,,,,,,,,,,,,,,,,,,,,,,,,,,,
0,42,42,0,1,,5f823a9879e10536650a3d81,62bbf9b337f89da25f3dbc54,2022-06-29_08h05.44.736,Colour_Asymmetry_Pilot,2022.1.3,Win32,59.96282305,62bbe60bf3d75ef465d3e404,,,,,,,,,,,,,,,,,,,,,,,,,,,,,,,,,,,,,,,,,,,,,,,,,,,,,,,,,,,,,,,,,,,,,,,,,,,,,,,,,,,,,,,,,,,,,,,,,,,,,,,,,,,,,,,,,,,,,,,,,,,,,,,,,,,,,,,,,,,,,,,,,,,,,,,,,,,,,,
0,43,43,49,1,,5f823a9879e10536650a3d81,62bbf9b337f89da25f3dbc54,2022-06-29_08h05.44.736,Colour_Asymmetry_Pilot,2022.1.3,Win32,59.96282305,62bbe60bf3d75ef465d3e404,,,,,,,,,,,,,,,,,,,,,,,,,,,,,,,,,,,,,,,,,,,,,,,,,,,,,,,,,,,,,,,,,,,,,,,,,,,,,,,,,,,,,,,,,,,,,,,,,,,,,,,,,,,,,,,,,,,,,,,,,,,,,,,,,,,,,,,,,,,,,,,,,,,,,,,,,,,,,,
0,44,44,9,1,,5f823a9879e10536650a3d81,62bbf9b337f89da25f3dbc54,2022-06-29_08h05.44.736,Colour_Asymmetry_Pilot,2022.1.3,Win32,59.96282305,62bbe60bf3d75ef465d3e404,,,,,,,,,,,,,,,,,,,,,,,,,,,,,,,,,,,,,,,,,,,,,,,,,,,,,,,,,,,,,,,,,,,,,,,,,,,,,,,,,,,,,,,,,,,,,,,,,,,,,,,,,,,,,,,,,,,,,,,,,,,,,,,,,,,,,,,,,,,,,,,,,,,,,,,,,,,,,,
0,45,45,14,1,,5f823a9879e10536650a3d81,62bbf9b337f89da25f3dbc54,2022-06-29_08h05.44.736,Colour_Asymmetry_Pilot,2022.1.3,Win32,59.96282305,62bbe60bf3d75ef465d3e404,,,,,,,,,,,,,,,,,,,,,,,,,,,,,,,,,,,,,,,,,,,,,,,,,,,,,,,,,,,,,,,,,,,,,,,,,,,,,,,,,,,,,,,,,,,,,,,,,,,,,,,,,,,,,,,,,,,,,,,,,,,,,,,,,,,,,,,,,,,,,,,,,,,,,,,,,,,,,,
0,46,46,87,1,,5f823a9879e10536650a3d81,62bbf9b337f89da25f3dbc54,2022-06-29_08h05.44.736,Colour_Asymmetry_Pilot,2022.1.3,Win32,59.96282305,62bbe60bf3d75ef465d3e404,,,,,,,,,,,,,,,,,,,,,,,,,,,,,,,,,,,,,,,,,,,,,,,,,,,,,,,,,,,,,,,,,,,,,,,,,,,,,,,,,,,,,,,,,,,,,,,,,,,,,,,,,,,,,,,,,,,,,,,,,,,,,,,,,,,,,,,,,,,,,,,,,,,,,,,,,,,,,,
0,47,47,1,1,,5f823a9879e10536650a3d81,62bbf9b337f89da25f3dbc54,2022-06-29_08h05.44.736,Colour_Asymmetry_Pilot,2022.1.3,Win32,59.96282305,62bbe60bf3d75ef465d3e404,,,,,,,,,,,,,,,,,,,,,,,,,,,,,,,,,,,,,,,,,,,,,,,,,,,,,,,,,,,,,,,,,,,,,,,,,,,,,,,,,,,,,,,,,,,,,,,,,,,,,,,,,,,,,,,,,,,,,,,,,,,,,,,,,,,,,,,,,,,,,,,,,,,,,,,,,,,,,,
0,48,48,80,1,,5f823a9879e10536650a3d81,62bbf9b337f89da25f3dbc54,2022-06-29_08h05.44.736,Colour_Asymmetry_Pilot,2022.1.3,Win32,59.96282305,62bbe60bf3d75ef465d3e404,,,,,,,,,,,,,,,,,,,,,,,,,,,,,,,,,,,,,,,,,,,,,,,,,,,,,,,,,,,,,,,,,,,,,,,,,,,,,,,,,,,,,,,,,,,,,,,,,,,,,,,,,,,,,,,,,,,,,,,,,,,,,,,,,,,,,,,,,,,,,,,,,,,,,,,,,,,,,,
0,49,49,60,1,,5f823a9879e10536650a3d81,62bbf9b337f89da25f3dbc54,2022-06-29_08h05.44.736,Colour_Asymmetry_Pilot,2022.1.3,Win32,59.96282305,62bbe60bf3d75ef465d3e404,,,,,,,,,,,,,,,,,,,,,,,,,,,,,,,,,,,,,,,,,,,,,,,,,,,,,,,,,,,,,,,,,,,,,,,,,,,,,,,,,,,,,,,,,,,,,,,,,,,,,,,,,,,,,,,,,,,,,,,,,,,,,,,,,,,,,,,,,,,,,,,,,,,,,,,,,,,,,,
0,50,50,26,1,,5f823a9879e10536650a3d81,62bbf9b337f89da25f3dbc54,2022-06-29_08h05.44.736,Colour_Asymmetry_Pilot,2022.1.3,Win32,59.96282305,62bbe60bf3d75ef465d3e404,,,,,,,,,,,,,,,,,,,,,,,,,,,,,,,,,,,,,,,,,,,,,,,,,,,,,,,,,,,,,,,,,,,,,,,,,,,,,,,,,,,,,,,,,,,,,,,,,,,,,,,,,,,,,,,,,,,,,,,,,,,,,,,,,,,,,,,,,,,,,,,,,,,,,,,,,,,,,,
0,51,51,88,1,,5f823a9879e10536650a3d81,62bbf9b337f89da25f3dbc54,2022-06-29_08h05.44.736,Colour_Asymmetry_Pilot,2022.1.3,Win32,59.96282305,62bbe60bf3d75ef465d3e404,,,,,,,,,,,,,,,,,,,,,,,,,,,,,,,,,,,,,,,,,,,,,,,,,,,,,,,,,,,,,,,,,,,,,,,,,,,,,,,,,,,,,,,,,,,,,,,,,,,,,,,,,,,,,,,,,,,,,,,,,,,,,,,,,,,,,,,,,,,,,,,,,,,,,,,,,,,,,,
0,52,52,82,1,,5f823a9879e10536650a3d81,62bbf9b337f89da25f3dbc54,2022-06-29_08h05.44.736,Colour_Asymmetry_Pilot,2022.1.3,Win32,59.96282305,62bbe60bf3d75ef465d3e404,,,,,,,,,,,,,,,,,,,,,,,,,,,,,,,,,,,,,,,,,,,,,,,,,,,,,,,,,,,,,,,,,,,,,,,,,,,,,,,,,,,,,,,,,,,,,,,,,,,,,,,,,,,,,,,,,,,,,,,,,,,,,,,,,,,,,,,,,,,,,,,,,,,,,,,,,,,,,,
0,53,53,59,1,,5f823a9879e10536650a3d81,62bbf9b337f89da25f3dbc54,2022-06-29_08h05.44.736,Colour_Asymmetry_Pilot,2022.1.3,Win32,59.96282305,62bbe60bf3d75ef465d3e404,,,,,,,,,,,,,,,,,,,,,,,,,,,,,,,,,,,,,,,,,,,,,,,,,,,,,,,,,,,,,,,,,,,,,,,,,,,,,,,,,,,,,,,,,,,,,,,,,,,,,,,,,,,,,,,,,,,,,,,,,,,,,,,,,,,,,,,,,,,,,,,,,,,,,,,,,,,,,,
0,54,54,22,1,,5f823a9879e10536650a3d81,62bbf9b337f89da25f3dbc54,2022-06-29_08h05.44.736,Colour_Asymmetry_Pilot,2022.1.3,Win32,59.96282305,62bbe60bf3d75ef465d3e404,,,,,,,,,,,,,,,,,,,,,,,,,,,,,,,,,,,,,,,,,,,,,,,,,,,,,,,,,,,,,,,,,,,,,,,,,,,,,,,,,,,,,,,,,,,,,,,,,,,,,,,,,,,,,,,,,,,,,,,,,,,,,,,,,,,,,,,,,,,,,,,,,,,,,,,,,,,,,,
0,55,55,75,1,,5f823a9879e10536650a3d81,62bbf9b337f89da25f3dbc54,2022-06-29_08h05.44.736,Colour_Asymmetry_Pilot,2022.1.3,Win32,59.96282305,62bbe60bf3d75ef465d3e404,,,,,,,,,,,,,,,,,,,,,,,,,,,,,,,,,,,,,,,,,,,,,,,,,,,,,,,,,,,,,,,,,,,,,,,,,,,,,,,,,,,,,,,,,,,,,,,,,,,,,,,,,,,,,,,,,,,,,,,,,,,,,,,,,,,,,,,,,,,,,,,,,,,,,,,,,,,,,,
0,56,56,74,1,,5f823a9879e10536650a3d81,62bbf9b337f89da25f3dbc54,2022-06-29_08h05.44.736,Colour_Asymmetry_Pilot,2022.1.3,Win32,59.96282305,62bbe60bf3d75ef465d3e404,,,,,,,,,,,,,,,,,,,,,,,,,,,,,,,,,,,,,,,,,,,,,,,,,,,,,,,,,,,,,,,,,,,,,,,,,,,,,,,,,,,,,,,,,,,,,,,,,,,,,,,,,,,,,,,,,,,,,,,,,,,,,,,,,,,,,,,,,,,,,,,,,,,,,,,,,,,,,,
0,57,57,27,1,,5f823a9879e10536650a3d81,62bbf9b337f89da25f3dbc54,2022-06-29_08h05.44.736,Colour_Asymmetry_Pilot,2022.1.3,Win32,59.96282305,62bbe60bf3d75ef465d3e404,,,,,,,,,,,,,,,,,,,,,,,,,,,,,,,,,,,,,,,,,,,,,,,,,,,,,,,,,,,,,,,,,,,,,,,,,,,,,,,,,,,,,,,,,,,,,,,,,,,,,,,,,,,,,,,,,,,,,,,,,,,,,,,,,,,,,,,,,,,,,,,,,,,,,,,,,,,,,,
0,58,58,25,1,,5f823a9879e10536650a3d81,62bbf9b337f89da25f3dbc54,2022-06-29_08h05.44.736,Colour_Asymmetry_Pilot,2022.1.3,Win32,59.96282305,62bbe60bf3d75ef465d3e404,,,,,,,,,,,,,,,,,,,,,,,,,,,,,,,,,,,,,,,,,,,,,,,,,,,,,,,,,,,,,,,,,,,,,,,,,,,,,,,,,,,,,,,,,,,,,,,,,,,,,,,,,,,,,,,,,,,,,,,,,,,,,,,,,,,,,,,,,,,,,,,,,,,,,,,,,,,,,,
0,59,59,40,1,,5f823a9879e10536650a3d81,62bbf9b337f89da25f3dbc54,2022-06-29_08h05.44.736,Colour_Asymmetry_Pilot,2022.1.3,Win32,59.96282305,62bbe60bf3d75ef465d3e404,,,,,,,,,,,,,,,,,,,,,,,,,,,,,,,,,,,,,,,,,,,,,,,,,,,,,,,,,,,,,,,,,,,,,,,,,,,,,,,,,,,,,,,,,,,,,,,,,,,,,,,,,,,,,,,,,,,,,,,,,,,,,,,,,,,,,,,,,,,,,,,,,,,,,,,,,,,,,,
0,60,60,38,1,,5f823a9879e10536650a3d81,62bbf9b337f89da25f3dbc54,2022-06-29_08h05.44.736,Colour_Asymmetry_Pilot,2022.1.3,Win32,59.96282305,62bbe60bf3d75ef465d3e404,,,,,,,,,,,,,,,,,,,,,,,,,,,,,,,,,,,,,,,,,,,,,,,,,,,,,,,,,,,,,,,,,,,,,,,,,,,,,,,,,,,,,,,,,,,,,,,,,,,,,,,,,,,,,,,,,,,,,,,,,,,,,,,,,,,,,,,,,,,,,,,,,,,,,,,,,,,,,,
0,61,61,56,1,,5f823a9879e10536650a3d81,62bbf9b337f89da25f3dbc54,2022-06-29_08h05.44.736,Colour_Asymmetry_Pilot,2022.1.3,Win32,59.96282305,62bbe60bf3d75ef465d3e404,,,,,,,,,,,,,,,,,,,,,,,,,,,,,,,,,,,,,,,,,,,,,,,,,,,,,,,,,,,,,,,,,,,,,,,,,,,,,,,,,,,,,,,,,,,,,,,,,,,,,,,,,,,,,,,,,,,,,,,,,,,,,,,,,,,,,,,,,,,,,,,,,,,,,,,,,,,,,,
0,62,62,62,1,,5f823a9879e10536650a3d81,62bbf9b337f89da25f3dbc54,2022-06-29_08h05.44.736,Colour_Asymmetry_Pilot,2022.1.3,Win32,59.96282305,62bbe60bf3d75ef465d3e404,,,,,,,,,,,,,,,,,,,,,,,,,,,,,,,,,,,,,,,,,,,,,,,,,,,,,,,,,,,,,,,,,,,,,,,,,,,,,,,,,,,,,,,,,,,,,,,,,,,,,,,,,,,,,,,,,,,,,,,,,,,,,,,,,,,,,,,,,,,,,,,,,,,,,,,,,,,,,,
0,63,63,8,1,,5f823a9879e10536650a3d81,62bbf9b337f89da25f3dbc54,2022-06-29_08h05.44.736,Colour_Asymmetry_Pilot,2022.1.3,Win32,59.96282305,62bbe60bf3d75ef465d3e404,,,,,,,,,,,,,,,,,,,,,,,,,,,,,,,,,,,,,,,,,,,,,,,,,,,,,,,,,,,,,,,,,,,,,,,,,,,,,,,,,,,,,,,,,,,,,,,,,,,,,,,,,,,,,,,,,,,,,,,,,,,,,,,,,,,,,,,,,,,,,,,,,,,,,,,,,,,,,,
0,64,64,53,1,,5f823a9879e10536650a3d81,62bbf9b337f89da25f3dbc54,2022-06-29_08h05.44.736,Colour_Asymmetry_Pilot,2022.1.3,Win32,59.96282305,62bbe60bf3d75ef465d3e404,,,,,,,,,,,,,,,,,,,,,,,,,,,,,,,,,,,,,,,,,,,,,,,,,,,,,,,,,,,,,,,,,,,,,,,,,,,,,,,,,,,,,,,,,,,,,,,,,,,,,,,,,,,,,,,,,,,,,,,,,,,,,,,,,,,,,,,,,,,,,,,,,,,,,,,,,,,,,,
0,65,65,66,1,,5f823a9879e10536650a3d81,62bbf9b337f89da25f3dbc54,2022-06-29_08h05.44.736,Colour_Asymmetry_Pilot,2022.1.3,Win32,59.96282305,62bbe60bf3d75ef465d3e404,,,,,,,,,,,,,,,,,,,,,,,,,,,,,,,,,,,,,,,,,,,,,,,,,,,,,,,,,,,,,,,,,,,,,,,,,,,,,,,,,,,,,,,,,,,,,,,,,,,,,,,,,,,,,,,,,,,,,,,,,,,,,,,,,,,,,,,,,,,,,,,,,,,,,,,,,,,,,,
0,66,66,11,1,,5f823a9879e10536650a3d81,62bbf9b337f89da25f3dbc54,2022-06-29_08h05.44.736,Colour_Asymmetry_Pilot,2022.1.3,Win32,59.96282305,62bbe60bf3d75ef465d3e404,,,,,,,,,,,,,,,,,,,,,,,,,,,,,,,,,,,,,,,,,,,,,,,,,,,,,,,,,,,,,,,,,,,,,,,,,,,,,,,,,,,,,,,,,,,,,,,,,,,,,,,,,,,,,,,,,,,,,,,,,,,,,,,,,,,,,,,,,,,,,,,,,,,,,,,,,,,,,,
0,67,67,42,1,,5f823a9879e10536650a3d81,62bbf9b337f89da25f3dbc54,2022-06-29_08h05.44.736,Colour_Asymmetry_Pilot,2022.1.3,Win32,59.96282305,62bbe60bf3d75ef465d3e404,,,,,,,,,,,,,,,,,,,,,,,,,,,,,,,,,,,,,,,,,,,,,,,,,,,,,,,,,,,,,,,,,,,,,,,,,,,,,,,,,,,,,,,,,,,,,,,,,,,,,,,,,,,,,,,,,,,,,,,,,,,,,,,,,,,,,,,,,,,,,,,,,,,,,,,,,,,,,,
0,68,68,20,1,,5f823a9879e10536650a3d81,62bbf9b337f89da25f3dbc54,2022-06-29_08h05.44.736,Colour_Asymmetry_Pilot,2022.1.3,Win32,59.96282305,62bbe60bf3d75ef465d3e404,,,,,,,,,,,,,,,,,,,,,,,,,,,,,,,,,,,,,,,,,,,,,,,,,,,,,,,,,,,,,,,,,,,,,,,,,,,,,,,,,,,,,,,,,,,,,,,,,,,,,,,,,,,,,,,,,,,,,,,,,,,,,,,,,,,,,,,,,,,,,,,,,,,,,,,,,,,,,,
0,69,69,89,1,,5f823a9879e10536650a3d81,62bbf9b337f89da25f3dbc54,2022-06-29_08h05.44.736,Colour_Asymmetry_Pilot,2022.1.3,Win32,59.96282305,62bbe60bf3d75ef465d3e404,,,,,,,,,,,,,,,,,,,,,,,,,,,,,,,,,,,,,,,,,,,,,,,,,,,,,,,,,,,,,,,,,,,,,,,,,,,,,,,,,,,,,,,,,,,,,,,,,,,,,,,,,,,,,,,,,,,,,,,,,,,,,,,,,,,,,,,,,,,,,,,,,,,,,,,,,,,,,,
0,70,70,32,1,,5f823a9879e10536650a3d81,62bbf9b337f89da25f3dbc54,2022-06-29_08h05.44.736,Colour_Asymmetry_Pilot,2022.1.3,Win32,59.96282305,62bbe60bf3d75ef465d3e404,,,,,,,,,,,,,,,,,,,,,,,,,,,,,,,,,,,,,,,,,,,,,,,,,,,,,,,,,,,,,,,,,,,,,,,,,,,,,,,,,,,,,,,,,,,,,,,,,,,,,,,,,,,,,,,,,,,,,,,,,,,,,,,,,,,,,,,,,,,,,,,,,,,,,,,,,,,,,,
0,71,71,23,1,,5f823a9879e10536650a3d81,62bbf9b337f89da25f3dbc54,2022-06-29_08h05.44.736,Colour_Asymmetry_Pilot,2022.1.3,Win32,59.96282305,62bbe60bf3d75ef465d3e404,,,,,,,,,,,,,,,,,,,,,,,,,,,,,,,,,,,,,,,,,,,,,,,,,,,,,,,,,,,,,,,,,,,,,,,,,,,,,,,,,,,,,,,,,,,,,,,,,,,,,,,,,,,,,,,,,,,,,,,,,,,,,,,,,,,,,,,,,,,,,,,,,,,,,,,,,,,,,,
0,72,72,55,1,,5f823a9879e10536650a3d81,62bbf9b337f89da25f3dbc54,2022-06-29_08h05.44.736,Colour_Asymmetry_Pilot,2022.1.3,Win32,59.96282305,62bbe60bf3d75ef465d3e404,,,,,,,,,,,,,,,,,,,,,,,,,,,,,,,,,,,,,,,,,,,,,,,,,,,,,,,,,,,,,,,,,,,,,,,,,,,,,,,,,,,,,,,,,,,,,,,,,,,,,,,,,,,,,,,,,,,,,,,,,,,,,,,,,,,,,,,,,,,,,,,,,,,,,,,,,,,,,,
0,73,73,65,1,,5f823a9879e10536650a3d81,62bbf9b337f89da25f3dbc54,2022-06-29_08h05.44.736,Colour_Asymmetry_Pilot,2022.1.3,Win32,59.96282305,62bbe60bf3d75ef465d3e404,,,,,,,,,,,,,,,,,,,,,,,,,,,,,,,,,,,,,,,,,,,,,,,,,,,,,,,,,,,,,,,,,,,,,,,,,,,,,,,,,,,,,,,,,,,,,,,,,,,,,,,,,,,,,,,,,,,,,,,,,,,,,,,,,,,,,,,,,,,,,,,,,,,,,,,,,,,,,,
0,74,74,46,1,,5f823a9879e10536650a3d81,62bbf9b337f89da25f3dbc54,2022-06-29_08h05.44.736,Colour_Asymmetry_Pilot,2022.1.3,Win32,59.96282305,62bbe60bf3d75ef465d3e404,,,,,,,,,,,,,,,,,,,,,,,,,,,,,,,,,,,,,,,,,,,,,,,,,,,,,,,,,,,,,,,,,,,,,,,,,,,,,,,,,,,,,,,,,,,,,,,,,,,,,,,,,,,,,,,,,,,,,,,,,,,,,,,,,,,,,,,,,,,,,,,,,,,,,,,,,,,,,,
0,75,75,84,1,,5f823a9879e10536650a3d81,62bbf9b337f89da25f3dbc54,2022-06-29_08h05.44.736,Colour_Asymmetry_Pilot,2022.1.3,Win32,59.96282305,62bbe60bf3d75ef465d3e404,,,,,,,,,,,,,,,,,,,,,,,,,,,,,,,,,,,,,,,,,,,,,,,,,,,,,,,,,,,,,,,,,,,,,,,,,,,,,,,,,,,,,,,,,,,,,,,,,,,,,,,,,,,,,,,,,,,,,,,,,,,,,,,,,,,,,,,,,,,,,,,,,,,,,,,,,,,,,,
0,76,76,7,1,,5f823a9879e10536650a3d81,62bbf9b337f89da25f3dbc54,2022-06-29_08h05.44.736,Colour_Asymmetry_Pilot,2022.1.3,Win32,59.96282305,62bbe60bf3d75ef465d3e404,,,,,,,,,,,,,,,,,,,,,,,,,,,,,,,,,,,,,,,,,,,,,,,,,,,,,,,,,,,,,,,,,,,,,,,,,,,,,,,,,,,,,,,,,,,,,,,,,,,,,,,,,,,,,,,,,,,,,,,,,,,,,,,,,,,,,,,,,,,,,,,,,,,,,,,,,,,,,,
0,77,77,4,1,,5f823a9879e10536650a3d81,62bbf9b337f89da25f3dbc54,2022-06-29_08h05.44.736,Colour_Asymmetry_Pilot,2022.1.3,Win32,59.96282305,62bbe60bf3d75ef465d3e404,,,,,,,,,,,,,,,,,,,,,,,,,,,,,,,,,,,,,,,,,,,,,,,,,,,,,,,,,,,,,,,,,,,,,,,,,,,,,,,,,,,,,,,,,,,,,,,,,,,,,,,,,,,,,,,,,,,,,,,,,,,,,,,,,,,,,,,,,,,,,,,,,,,,,,,,,,,,,,
0,78,78,57,1,,5f823a9879e10536650a3d81,62bbf9b337f89da25f3dbc54,2022-06-29_08h05.44.736,Colour_Asymmetry_Pilot,2022.1.3,Win32,59.96282305,62bbe60bf3d75ef465d3e404,,,,,,,,,,,,,,,,,,,,,,,,,,,,,,,,,,,,,,,,,,,,,,,,,,,,,,,,,,,,,,,,,,,,,,,,,,,,,,,,,,,,,,,,,,,,,,,,,,,,,,,,,,,,,,,,,,,,,,,,,,,,,,,,,,,,,,,,,,,,,,,,,,,,,,,,,,,,,,
0,79,79,45,1,,5f823a9879e10536650a3d81,62bbf9b337f89da25f3dbc54,2022-06-29_08h05.44.736,Colour_Asymmetry_Pilot,2022.1.3,Win32,59.96282305,62bbe60bf3d75ef465d3e404,,,,,,,,,,,,,,,,,,,,,,,,,,,,,,,,,,,,,,,,,,,,,,,,,,,,,,,,,,,,,,,,,,,,,,,,,,,,,,,,,,,,,,,,,,,,,,,,,,,,,,,,,,,,,,,,,,,,,,,,,,,,,,,,,,,,,,,,,,,,,,,,,,,,,,,,,,,,,,
0,80,80,21,1,,5f823a9879e10536650a3d81,62bbf9b337f89da25f3dbc54,2022-06-29_08h05.44.736,Colour_Asymmetry_Pilot,2022.1.3,Win32,59.96282305,62bbe60bf3d75ef465d3e404,,,,,,,,,,,,,,,,,,,,,,,,,,,,,,,,,,,,,,,,,,,,,,,,,,,,,,,,,,,,,,,,,,,,,,,,,,,,,,,,,,,,,,,,,,,,,,,,,,,,,,,,,,,,,,,,,,,,,,,,,,,,,,,,,,,,,,,,,,,,,,,,,,,,,,,,,,,,,,
0,81,81,51,1,,5f823a9879e10536650a3d81,62bbf9b337f89da25f3dbc54,2022-06-29_08h05.44.736,Colour_Asymmetry_Pilot,2022.1.3,Win32,59.96282305,62bbe60bf3d75ef465d3e404,,,,,,,,,,,,,,,,,,,,,,,,,,,,,,,,,,,,,,,,,,,,,,,,,,,,,,,,,,,,,,,,,,,,,,,,,,,,,,,,,,,,,,,,,,,,,,,,,,,,,,,,,,,,,,,,,,,,,,,,,,,,,,,,,,,,,,,,,,,,,,,,,,,,,,,,,,,,,,
0,82,82,12,1,,5f823a9879e10536650a3d81,62bbf9b337f89da25f3dbc54,2022-06-29_08h05.44.736,Colour_Asymmetry_Pilot,2022.1.3,Win32,59.96282305,62bbe60bf3d75ef465d3e404,,,,,,,,,,,,,,,,,,,,,,,,,,,,,,,,,,,,,,,,,,,,,,,,,,,,,,,,,,,,,,,,,,,,,,,,,,,,,,,,,,,,,,,,,,,,,,,,,,,,,,,,,,,,,,,,,,,,,,,,,,,,,,,,,,,,,,,,,,,,,,,,,,,,,,,,,,,,,,
0,83,83,39,1,,5f823a9879e10536650a3d81,62bbf9b337f89da25f3dbc54,2022-06-29_08h05.44.736,Colour_Asymmetry_Pilot,2022.1.3,Win32,59.96282305,62bbe60bf3d75ef465d3e404,,,,,,,,,,,,,,,,,,,,,,,,,,,,,,,,,,,,,,,,,,,,,,,,,,,,,,,,,,,,,,,,,,,,,,,,,,,,,,,,,,,,,,,,,,,,,,,,,,,,,,,,,,,,,,,,,,,,,,,,,,,,,,,,,,,,,,,,,,,,,,,,,,,,,,,,,,,,,,
0,84,84,68,1,,5f823a9879e10536650a3d81,62bbf9b337f89da25f3dbc54,2022-06-29_08h05.44.736,Colour_Asymmetry_Pilot,2022.1.3,Win32,59.96282305,62bbe60bf3d75ef465d3e404,,,,,,,,,,,,,,,,,,,,,,,,,,,,,,,,,,,,,,,,,,,,,,,,,,,,,,,,,,,,,,,,,,,,,,,,,,,,,,,,,,,,,,,,,,,,,,,,,,,,,,,,,,,,,,,,,,,,,,,,,,,,,,,,,,,,,,,,,,,,,,,,,,,,,,,,,,,,,,
0,85,85,24,1,,5f823a9879e10536650a3d81,62bbf9b337f89da25f3dbc54,2022-06-29_08h05.44.736,Colour_Asymmetry_Pilot,2022.1.3,Win32,59.96282305,62bbe60bf3d75ef465d3e404,,,,,,,,,,,,,,,,,,,,,,,,,,,,,,,,,,,,,,,,,,,,,,,,,,,,,,,,,,,,,,,,,,,,,,,,,,,,,,,,,,,,,,,,,,,,,,,,,,,,,,,,,,,,,,,,,,,,,,,,,,,,,,,,,,,,,,,,,,,,,,,,,,,,,,,,,,,,,,
0,86,86,28,1,,5f823a9879e10536650a3d81,62bbf9b337f89da25f3dbc54,2022-06-29_08h05.44.736,Colour_Asymmetry_Pilot,2022.1.3,Win32,59.96282305,62bbe60bf3d75ef465d3e404,,,,,,,,,,,,,,,,,,,,,,,,,,,,,,,,,,,,,,,,,,,,,,,,,,,,,,,,,,,,,,,,,,,,,,,,,,,,,,,,,,,,,,,,,,,,,,,,,,,,,,,,,,,,,,,,,,,,,,,,,,,,,,,,,,,,,,,,,,,,,,,,,,,,,,,,,,,,,,
0,87,87,30,1,,5f823a9879e10536650a3d81,62bbf9b337f89da25f3dbc54,2022-06-29_08h05.44.736,Colour_Asymmetry_Pilot,2022.1.3,Win32,59.96282305,62bbe60bf3d75ef465d3e404,,,,,,,,,,,,,,,,,,,,,,,,,,,,,,,,,,,,,,,,,,,,,,,,,,,,,,,,,,,,,,,,,,,,,,,,,,,,,,,,,,,,,,,,,,,,,,,,,,,,,,,,,,,,,,,,,,,,,,,,,,,,,,,,,,,,,,,,,,,,,,,,,,,,,,,,,,,,,,
0,88,88,2,1,,5f823a9879e10536650a3d81,62bbf9b337f89da25f3dbc54,2022-06-29_08h05.44.736,Colour_Asymmetry_Pilot,2022.1.3,Win32,59.96282305,62bbe60bf3d75ef465d3e404,,,,,,,,,,,,,,,,,,,,,,,,,,,,,,,,,,,,,,,,,,,,,,,,,,,,,,,,,,,,,,,,,,,,,,,,,,,,,,,,,,,,,,,,,,,,,,,,,,,,,,,,,,,,,,,,,,,,,,,,,,,,,,,,,,,,,,,,,,,,,,,,,,,,,,,,,,,,,,
0,89,89,37,1,,5f823a9879e10536650a3d81,62bbf9b337f89da25f3dbc54,2022-06-29_08h05.44.736,Colour_Asymmetry_Pilot,2022.1.3,Win32,59.96282305,62bbe60bf3d75ef465d3e404,,,,,,,,,,,,,,,,,,,,,,,,,,,,,,,,,,,,,,,,,,,,,,,,,,,,,,,,,,,,,,,,,,,,,,,,,,,,,,,,,,,,,,,,,,,,,,,,,,,,,,,,,,,,,,,,,,,,,,,,,,,,,,,,,,,,,,,,,,,,,,,,,,,,,,,,,,,,,,
0,90,90,81,1,,5f823a9879e10536650a3d81,62bbf9b337f89da25f3dbc54,2022-06-29_08h05.44.736,Colour_Asymmetry_Pilot,2022.1.3,Win32,59.96282305,62bbe60bf3d75ef465d3e404,,,,,,,,,,,,,,,,,,,,,,,,,,,,,,,,,,,,,,,,,,,,,,,,,,,,,,,,,,,,,,,,,,,,,,,,,,,,,,,,,,,,,,,,,,,,,,,,,,,,,,,,,,,,,,,,,,,,,,,,,,,,,,,,,,,,,,,,,,,,,,,,,,,,,,,,,,,,,,
0,91,91,71,1,,5f823a9879e10536650a3d81,62bbf9b337f89da25f3dbc54,2022-06-29_08h05.44.736,Colour_Asymmetry_Pilot,2022.1.3,Win32,59.96282305,62bbe60bf3d75ef465d3e404,,,,,,,,,,,,,,,,,,,,,,,,,,,,,,,,,,,,,,,,,,,,,,,,,,,,,,,,,,,,,,,,,,,,,,,,,,,,,,,,,,,,,,,,,,,,,,,,,,,,,,,,,,,,,,,,,,,,,,,,,,,,,,,,,,,,,,,,,,,,,,,,,,,,,,,,,,,,,,
0,92,92,67,1,,5f823a9879e10536650a3d81,62bbf9b337f89da25f3dbc54,2022-06-29_08h05.44.736,Colour_Asymmetry_Pilot,2022.1.3,Win32,59.96282305,62bbe60bf3d75ef465d3e404,,,,,,,,,,,,,,,,,,,,,,,,,,,,,,,,,,,,,,,,,,,,,,,,,,,,,,,,,,,,,,,,,,,,,,,,,,,,,,,,,,,,,,,,,,,,,,,,,,,,,,,,,,,,,,,,,,,,,,,,,,,,,,,,,,,,,,,,,,,,,,,,,,,,,,,,,,,,,,
,,,,,,5f823a9879e10536650a3d81,62bbf9b337f89da25f3dbc54,2022-06-29_08h05.44.736,Colour_Asymmetry_Pilot,2022.1.3,Win32,59.96282305,62bbe60bf3d75ef465d3e404,0,0,0,140,1,threeone,,,,,,,,,,,,,,,,,,,,,,,,,,,,,,,,,,,,,,,,,,,,,,,,,,,,,,,,,,,,,,,,,,,,,,,,,,,,,,,,,,,,,,,,,,,,,,,,,,,,,,,,,,,,,,,,,,,,,,,,,,,,,,,,,,,,,,,,,,,,,,,,,,,,,,,,
,,,,,,5f823a9879e10536650a3d81,62bbf9b337f89da25f3dbc54,2022-06-29_08h05.44.736,Colour_Asymmetry_Pilot,2022.1.3,Win32,59.96282305,62bbe60bf3d75ef465d3e404,0,1,1,68,1,threeone,,,,,,,,,,,,,,,,,,,,,,,,,,,,,,,,,,,,,,,,,,,,,,,,,,,,,,,,,,,,,,,,,,,,,,,,,,,,,,,,,,,,,,,,,,,,,,,,,,,,,,,,,,,,,,,,,,,,,,,,,,,,,,,,,,,,,,,,,,,,,,,,,,,,,,,,
,,,,,,5f823a9879e10536650a3d81,62bbf9b337f89da25f3dbc54,2022-06-29_08h05.44.736,Colour_Asymmetry_Pilot,2022.1.3,Win32,59.96282305,62bbe60bf3d75ef465d3e404,0,2,2,82,1,twoone,,,,,,,,,,,,,,,,,,,,,,,,,,,,,,,,,,,,,,,,,,,,,,,,,,,,,,,,,,,,,,,,,,,,,,,,,,,,,,,,,,,,,,,,,,,,,,,,,,,,,,,,,,,,,,,,,,,,,,,,,,,,,,,,,,,,,,,,,,,,,,,,,,,,,,,,
,,,,,,5f823a9879e10536650a3d81,62bbf9b337f89da25f3dbc54,2022-06-29_08h05.44.736,Colour_Asymmetry_Pilot,2022.1.3,Win32,59.96282305,62bbe60bf3d75ef465d3e404,0,3,3,16,1,onetwo,,,,,,,,,,,,,,,,,,,,,,,,,,,,,,,,,,,,,,,,,,,,,,,,,,,,,,,,,,,,,,,,,,,,,,,,,,,,,,,,,,,,,,,,,,,,,,,,,,,,,,,,,,,,,,,,,,,,,,,,,,,,,,,,,,,,,,,,,,,,,,,,,,,,,,,,
,,,,,,5f823a9879e10536650a3d81,62bbf9b337f89da25f3dbc54,2022-06-29_08h05.44.736,Colour_Asymmetry_Pilot,2022.1.3,Win32,59.96282305,62bbe60bf3d75ef465d3e404,0,4,4,84,1,threeone,,,,,,,,,,,,,,,,,,,,,,,,,,,,,,,,,,,,,,,,,,,,,,,,,,,,,,,,,,,,,,,,,,,,,,,,,,,,,,,,,,,,,,,,,,,,,,,,,,,,,,,,,,,,,,,,,,,,,,,,,,,,,,,,,,,,,,,,,,,,,,,,,,,,,,,,
,,,,,,5f823a9879e10536650a3d81,62bbf9b337f89da25f3dbc54,2022-06-29_08h05.44.736,Colour_Asymmetry_Pilot,2022.1.3,Win32,59.96282305,62bbe60bf3d75ef465d3e404,0,5,5,10,1,twoone,,,,,,,,,,,,,,,,,,,,,,,,,,,,,,,,,,,,,,,,,,,,,,,,,,,,,,,,,,,,,,,,,,,,,,,,,,,,,,,,,,,,,,,,,,,,,,,,,,,,,,,,,,,,,,,,,,,,,,,,,,,,,,,,,,,,,,,,,,,,,,,,,,,,,,,,
,,,,,,5f823a9879e10536650a3d81,62bbf9b337f89da25f3dbc54,2022-06-29_08h05.44.736,Colour_Asymmetry_Pilot,2022.1.3,Win32,59.96282305,62bbe60bf3d75ef465d3e404,0,6,6,3,1,twofour,,,,,,,,,,,,,,,,,,,,,,,,,,,,,,,,,,,,,,,,,,,,,,,,,,,,,,,,,,,,,,,,,,,,,,,,,,,,,,,,,,,,,,,,,,,,,,,,,,,,,,,,,,,,,,,,,,,,,,,,,,,,,,,,,,,,,,,,,,,,,,,,,,,,,,,,
,,,,,,5f823a9879e10536650a3d81,62bbf9b337f89da25f3dbc54,2022-06-29_08h05.44.736,Colour_Asymmetry_Pilot,2022.1.3,Win32,59.96282305,62bbe60bf3d75ef465d3e404,0,7,7,8,1,onetwo,,,,,,,,,,,,,,,,,,,,,,,,,,,,,,,,,,,,,,,,,,,,,,,,,,,,,,,,,,,,,,,,,,,,,,,,,,,,,,,,,,,,,,,,,,,,,,,,,,,,,,,,,,,,,,,,,,,,,,,,,,,,,,,,,,,,,,,,,,,,,,,,,,,,,,,,
,,,,,,5f823a9879e10536650a3d81,62bbf9b337f89da25f3dbc54,2022-06-29_08h05.44.736,Colour_Asymmetry_Pilot,2022.1.3,Win32,59.96282305,62bbe60bf3d75ef465d3e404,0,8,8,116,1,threeone,,,,,,,,,,,,,,,,,,,,,,,,,,,,,,,,,,,,,,,,,,,,,,,,,,,,,,,,,,,,,,,,,,,,,,,,,,,,,,,,,,,,,,,,,,,,,,,,,,,,,,,,,,,,,,,,,,,,,,,,,,,,,,,,,,,,,,,,,,,,,,,,,,,,,,,,
,,,,,,5f823a9879e10536650a3d81,62bbf9b337f89da25f3dbc54,2022-06-29_08h05.44.736,Colour_Asymmetry_Pilot,2022.1.3,Win32,59.96282305,62bbe60bf3d75ef465d3e404,0,9,9,122,1,twoone,,,,,,,,,,,,,,,,,,,,,,,,,,,,,,,,,,,,,,,,,,,,,,,,,,,,,,,,,,,,,,,,,,,,,,,,,,,,,,,,,,,,,,,,,,,,,,,,,,,,,,,,,,,,,,,,,,,,,,,,,,,,,,,,,,,,,,,,,,,,,,,,,,,,,,,,
,,,,,,5f823a9879e10536650a3d81,62bbf9b337f89da25f3dbc54,2022-06-29_08h05.44.736,Colour_Asymmetry_Pilot,2022.1.3,Win32,59.96282305,62bbe60bf3d75ef465d3e404,0,10,10,30,1,fourtwo,,,,,,,,,,,,,,,,,,,,,,,,,,,,,,,,,,,,,,,,,,,,,,,,,,,,,,,,,,,,,,,,,,,,,,,,,,,,,,,,,,,,,,,,,,,,,,,,,,,,,,,,,,,,,,,,,,,,,,,,,,,,,,,,,,,,,,,,,,,,,,,,,,,,,,,,
,,,,,,5f823a9879e10536650a3d81,62bbf9b337f89da25f3dbc54,2022-06-29_08h05.44.736,Colour_Asymmetry_Pilot,2022.1.3,Win32,59.96282305,62bbe60bf3d75ef465d3e404,0,11,11,29,1,threefour,,,,,,,,,,,,,,,,,,,,,,,,,,,,,,,,,,,,,,,,,,,,,,,,,,,,,,,,,,,,,,,,,,,,,,,,,,,,,,,,,,,,,,,,,,,,,,,,,,,,,,,,,,,,,,,,,,,,,,,,,,,,,,,,,,,,,,,,,,,,,,,,,,,,,,,,
,,,,,,5f823a9879e10536650a3d81,62bbf9b337f89da25f3dbc54,2022-06-29_08h05.44.736,Colour_Asymmetry_Pilot,2022.1.3,Win32,59.96282305,62bbe60bf3d75ef465d3e404,0,12,12,24,1,onetwo,,,,,,,,,,,,,,,,,,,,,,,,,,,,,,,,,,,,,,,,,,,,,,,,,,,,,,,,,,,,,,,,,,,,,,,,,,,,,,,,,,,,,,,,,,,,,,,,,,,,,,,,,,,,,,,,,,,,,,,,,,,,,,,,,,,,,,,,,,,,,,,,,,,,,,,,
,,,,,,5f823a9879e10536650a3d81,62bbf9b337f89da25f3dbc54,2022-06-29_08h05.44.736,Colour_Asymmetry_Pilot,2022.1.3,Win32,59.96282305,62bbe60bf3d75ef465d3e404,0,13,13,141,1,threefour,,,,,,,,,,,,,,,,,,,,,,,,,,,,,,,,,,,,,,,,,,,,,,,,,,,,,,,,,,,,,,,,,,,,,,,,,,,,,,,,,,,,,,,,,,,,,,,,,,,,,,,,,,,,,,,,,,,,,,,,,,,,,,,,,,,,,,,,,,,,,,,,,,,,,,,,
,,,,,,5f823a9879e10536650a3d81,62bbf9b337f89da25f3dbc54,2022-06-29_08h05.44.736,Colour_Asymmetry_Pilot,2022.1.3,Win32,59.96282305,62bbe60bf3d75ef465d3e404,0,14,14,147,1,twofour,,,,,,,,,,,,,,,,,,,,,,,,,,,,,,,,,,,,,,,,,,,,,,,,,,,,,,,,,,,,,,,,,,,,,,,,,,,,,,,,,,,,,,,,,,,,,,,,,,,,,,,,,,,,,,,,,,,,,,,,,,,,,,,,,,,,,,,,,,,,,,,,,,,,,,,,
,,,,,,5f823a9879e10536650a3d81,62bbf9b337f89da25f3dbc54,2022-06-29_08h05.44.736,Colour_Asymmetry_Pilot,2022.1.3,Win32,59.96282305,62bbe60bf3d75ef465d3e404,0,15,15,94,1,fourtwo,,,,,,,,,,,,,,,,,,,,,,,,,,,,,,,,,,,,,,,,,,,,,,,,,,,,,,,,,,,,,,,,,,,,,,,,,,,,,,,,,,,,,,,,,,,,,,,,,,,,,,,,,,,,,,,,,,,,,,,,,,,,,,,,,,,,,,,,,,,,,,,,,,,,,,,,
,,,,,,5f823a9879e10536650a3d81,62bbf9b337f89da25f3dbc54,2022-06-29_08h05.44.736,Colour_Asymmetry_Pilot,2022.1.3,Win32,59.96282305,62bbe60bf3d75ef465d3e404,0,16,16,104,1,onetwo,,,,,,,,,,,,,,,,,,,,,,,,,,,,,,,,,,,,,,,,,,,,,,,,,,,,,,,,,,,,,,,,,,,,,,,,,,,,,,,,,,,,,,,,,,,,,,,,,,,,,,,,,,,,,,,,,,,,,,,,,,,,,,,,,,,,,,,,,,,,,,,,,,,,,,,,
,,,,,,5f823a9879e10536650a3d81,62bbf9b337f89da25f3dbc54,2022-06-29_08h05.44.736,Colour_Asymmetry_Pilot,2022.1.3,Win32,59.96282305,62bbe60bf3d75ef465d3e404,0,17,17,55,1,fourthree,,,,,,,,,,,,,,,,,,,,,,,,,,,,,,,,,,,,,,,,,,,,,,,,,,,,,,,,,,,,,,,,,,,,,,,,,,,,,,,,,,,,,,,,,,,,,,,,,,,,,,,,,,,,,,,,,,,,,,,,,,,,,,,,,,,,,,,,,,,,,,,,,,,,,,,,
,,,,,,5f823a9879e10536650a3d81,62bbf9b337f89da25f3dbc54,2022-06-29_08h05.44.736,Colour_Asymmetry_Pilot,2022.1.3,Win32,59.96282305,62bbe60bf3d75ef465d3e404,0,18,18,108,1,threeone,,,,,,,,,,,,,,,,,,,,,,,,,,,,,,,,,,,,,,,,,,,,,,,,,,,,,,,,,,,,,,,,,,,,,,,,,,,,,,,,,,,,,,,,,,,,,,,,,,,,,,,,,,,,,,,,,,,,,,,,,,,,,,,,,,,,,,,,,,,,,,,,,,,,,,,,
,,,,,,5f823a9879e10536650a3d81,62bbf9b337f89da25f3dbc54,2022-06-29_08h05.44.736,Colour_Asymmetry_Pilot,2022.1.3,Win32,59.96282305,62bbe60bf3d75ef465d3e404,0,19,19,136,1,onetwo,,,,,,,,,,,,,,,,,,,,,,,,,,,,,,,,,,,,,,,,,,,,,,,,,,,,,,,,,,,,,,,,,,,,,,,,,,,,,,,,,,,,,,,,,,,,,,,,,,,,,,,,,,,,,,,,,,,,,,,,,,,,,,,,,,,,,,,,,,,,,,,,,,,,,,,,
,,,,,,5f823a9879e10536650a3d81,62bbf9b337f89da25f3dbc54,2022-06-29_08h05.44.736,Colour_Asymmetry_Pilot,2022.1.3,Win32,59.96282305,62bbe60bf3d75ef465d3e404,0,20,20,33,1,onethree,,,,,,,,,,,,,,,,,,,,,,,,,,,,,,,,,,,,,,,,,,,,,,,,,,,,,,,,,,,,,,,,,,,,,,,,,,,,,,,,,,,,,,,,,,,,,,,,,,,,,,,,,,,,,,,,,,,,,,,,,,,,,,,,,,,,,,,,,,,,,,,,,,,,,,,,
,,,,,,5f823a9879e10536650a3d81,62bbf9b337f89da25f3dbc54,2022-06-29_08h05.44.736,Colour_Asymmetry_Pilot,2022.1.3,Win32,59.96282305,62bbe60bf3d75ef465d3e404,0,21,21,40,1,onetwo,,,,,,,,,,,,,,,,,,,,,,,,,,,,,,,,,,,,,,,,,,,,,,,,,,,,,,,,,,,,,,,,,,,,,,,,,,,,,,,,,,,,,,,,,,,,,,,,,,,,,,,,,,,,,,,,,,,,,,,,,,,,,,,,,,,,,,,,,,,,,,,,,,,,,,,,
,,,,,,5f823a9879e10536650a3d81,62bbf9b337f89da25f3dbc54,2022-06-29_08h05.44.736,Colour_Asymmetry_Pilot,2022.1.3,Win32,59.96282305,62bbe60bf3d75ef465d3e404,0,22,22,106,1,twoone,,,,,,,,,,,,,,,,,,,,,,,,,,,,,,,,,,,,,,,,,,,,,,,,,,,,,,,,,,,,,,,,,,,,,,,,,,,,,,,,,,,,,,,,,,,,,,,,,,,,,,,,,,,,,,,,,,,,,,,,,,,,,,,,,,,,,,,,,,,,,,,,,,,,,,,,
,,,,,,5f823a9879e10536650a3d81,62bbf9b337f89da25f3dbc54,2022-06-29_08h05.44.736,Colour_Asymmetry_Pilot,2022.1.3,Win32,59.96282305,62bbe60bf3d75ef465d3e404,0,23,23,39,1,fourthree,,,,,,,,,,,,,,,,,,,,,,,,,,,,,,,,,,,,,,,,,,,,,,,,,,,,,,,,,,,,,,,,,,,,,,,,,,,,,,,,,,,,,,,,,,,,,,,,,,,,,,,,,,,,,,,,,,,,,,,,,,,,,,,,,,,,,,,,,,,,,,,,,,,,,,,,
,,,,,,5f823a9879e10536650a3d81,62bbf9b337f89da25f3dbc54,2022-06-29_08h05.44.736,Colour_Asymmetry_Pilot,2022.1.3,Win32,59.96282305,62bbe60bf3d75ef465d3e404,0,24,24,88,1,onetwo,,,,,,,,,,,,,,,,,,,,,,,,,,,,,,,,,,,,,,,,,,,,,,,,,,,,,,,,,,,,,,,,,,,,,,,,,,,,,,,,,,,,,,,,,,,,,,,,,,,,,,,,,,,,,,,,,,,,,,,,,,,,,,,,,,,,,,,,,,,,,,,,,,,,,,,,
,,,,,,5f823a9879e10536650a3d81,62bbf9b337f89da25f3dbc54,2022-06-29_08h05.44.736,Colour_Asymmetry_Pilot,2022.1.3,Win32,59.96282305,62bbe60bf3d75ef465d3e404,0,25,25,26,1,twoone,,,,,,,,,,,,,,,,,,,,,,,,,,,,,,,,,,,,,,,,,,,,,,,,,,,,,,,,,,,,,,,,,,,,,,,,,,,,,,,,,,,,,,,,,,,,,,,,,,,,,,,,,,,,,,,,,,,,,,,,,,,,,,,,,,,,,,,,,,,,,,,,,,,,,,,,
,,,,,,5f823a9879e10536650a3d81,62bbf9b337f89da25f3dbc54,2022-06-29_08h05.44.736,Colour_Asymmetry_Pilot,2022.1.3,Win32,59.96282305,62bbe60bf3d75ef465d3e404,0,26,26,91,1,twofour,,,,,,,,,,,,,,,,,,,,,,,,,,,,,,,,,,,,,,,,,,,,,,,,,,,,,,,,,,,,,,,,,,,,,,,,,,,,,,,,,,,,,,,,,,,,,,,,,,,,,,,,,,,,,,,,,,,,,,,,,,,,,,,,,,,,,,,,,,,,,,,,,,,,,,,,
,,,,,,5f823a9879e10536650a3d81,62bbf9b337f89da25f3dbc54,2022-06-29_08h05.44.736,Colour_Asymmetry_Pilot,2022.1.3,Win32,59.96282305,62bbe60bf3d75ef465d3e404,0,27,27,101,1,threefour,,,,,,,,,,,,,,,,,,,,,,,,,,,,,,,,,,,,,,,,,,,,,,,,,,,,,,,,,,,,,,,,,,,,,,,,,,,,,,,,,,,,,,,,,,,,,,,,,,,,,,,,,,,,,,,,,,,,,,,,,,,,,,,,,,,,,,,,,,,,,,,,,,,,,,,,
,,,,,,5f823a9879e10536650a3d81,62bbf9b337f89da25f3dbc54,2022-06-29_08h05.44.736,Colour_Asymmetry_Pilot,2022.1.3,Win32,59.96282305,62bbe60bf3d75ef465d3e404,0,28,28,57,1,onethree,,,,,,,,,,,,,,,,,,,,,,,,,,,,,,,,,,,,,,,,,,,,,,,,,,,,,,,,,,,,,,,,,,,,,,,,,,,,,,,,,,,,,,,,,,,,,,,,,,,,,,,,,,,,,,,,,,,,,,,,,,,,,,,,,,,,,,,,,,,,,,,,,,,,,,,,
,,,,,,5f823a9879e10536650a3d81,62bbf9b337f89da25f3dbc54,2022-06-29_08h05.44.736,Colour_Asymmetry_Pilot,2022.1.3,Win32,59.96282305,62bbe60bf3d75ef465d3e404,0,29,29,119,1,fourthree,,,,,,,,,,,,,,,,,,,,,,,,,,,,,,,,,,,,,,,,,,,,,,,,,,,,,,,,,,,,,,,,,,,,,,,,,,,,,,,,,,,,,,,,,,,,,,,,,,,,,,,,,,,,,,,,,,,,,,,,,,,,,,,,,,,,,,,,,,,,,,,,,,,,,,,,
,,,,,,5f823a9879e10536650a3d81,62bbf9b337f89da25f3dbc54,2022-06-29_08h05.44.736,Colour_Asymmetry_Pilot,2022.1.3,Win32,59.96282305,62bbe60bf3d75ef465d3e404,0,30,30,143,1,fourthree,,,,,,,,,,,,,,,,,,,,,,,,,,,,,,,,,,,,,,,,,,,,,,,,,,,,,,,,,,,,,,,,,,,,,,,,,,,,,,,,,,,,,,,,,,,,,,,,,,,,,,,,,,,,,,,,,,,,,,,,,,,,,,,,,,,,,,,,,,,,,,,,,,,,,,,,
,,,,,,5f823a9879e10536650a3d81,62bbf9b337f89da25f3dbc54,2022-06-29_08h05.44.736,Colour_Asymmetry_Pilot,2022.1.3,Win32,59.96282305,62bbe60bf3d75ef465d3e404,0,31,31,121,1,onethree,,,,,,,,,,,,,,,,,,,,,,,,,,,,,,,,,,,,,,,,,,,,,,,,,,,,,,,,,,,,,,,,,,,,,,,,,,,,,,,,,,,,,,,,,,,,,,,,,,,,,,,,,,,,,,,,,,,,,,,,,,,,,,,,,,,,,,,,,,,,,,,,,,,,,,,,
,,,,,,5f823a9879e10536650a3d81,62bbf9b337f89da25f3dbc54,2022-06-29_08h05.44.736,Colour_Asymmetry_Pilot,2022.1.3,Win32,59.96282305,62bbe60bf3d75ef465d3e404,0,32,32,159,1,fourthree,,,,,,,,,,,,,,,,,,,,,,,,,,,,,,,,,,,,,,,,,,,,,,,,,,,,,,,,,,,,,,,,,,,,,,,,,,,,,,,,,,,,,,,,,,,,,,,,,,,,,,,,,,,,,,,,,,,,,,,,,,,,,,,,,,,,,,,,,,,,,,,,,,,,,,,,
,,,,,,5f823a9879e10536650a3d81,62bbf9b337f89da25f3dbc54,2022-06-29_08h05.44.736,Colour_Asymmetry_Pilot,2022.1.3,Win32,59.96282305,62bbe60bf3d75ef465d3e404,0,33,33,73,1,onethree,,,,,,,,,,,,,,,,,,,,,,,,,,,,,,,,,,,,,,,,,,,,,,,,,,,,,,,,,,,,,,,,,,,,,,,,,,,,,,,,,,,,,,,,,,,,,,,,,,,,,,,,,,,,,,,,,,,,,,,,,,,,,,,,,,,,,,,,,,,,,,,,,,,,,,,,
,,,,,,5f823a9879e10536650a3d81,62bbf9b337f89da25f3dbc54,2022-06-29_08h05.44.736,Colour_Asymmetry_Pilot,2022.1.3,Win32,59.96282305,62bbe60bf3d75ef465d3e404,0,34,34,134,1,fourtwo,,,,,,,,,,,,,,,,,,,,,,,,,,,,,,,,,,,,,,,,,,,,,,,,,,,,,,,,,,,,,,,,,,,,,,,,,,,,,,,,,,,,,,,,,,,,,,,,,,,,,,,,,,,,,,,,,,,,,,,,,,,,,,,,,,,,,,,,,,,,,,,,,,,,,,,,
,,,,,,5f823a9879e10536650a3d81,62bbf9b337f89da25f3dbc54,2022-06-29_08h05.44.736,Colour_Asymmetry_Pilot,2022.1.3,Win32,59.96282305,62bbe60bf3d75ef465d3e404,0,35,35,115,1,twofour,,,,,,,,,,,,,,,,,,,,,,,,,,,,,,,,,,,,,,,,,,,,,,,,,,,,,,,,,,,,,,,,,,,,,,,,,,,,,,,,,,,,,,,,,,,,,,,,,,,,,,,,,,,,,,,,,,,,,,,,,,,,,,,,,,,,,,,,,,,,,,,,,,,,,,,,
,,,,,,5f823a9879e10536650a3d81,62bbf9b337f89da25f3dbc54,2022-06-29_08h05.44.736,Colour_Asymmetry_Pilot,2022.1.3,Win32,59.96282305,62bbe60bf3d75ef465d3e404,0,36,36,161,1,onethree,,,,,,,,,,,,,,,,,,,,,,,,,,,,,,,,,,,,,,,,,,,,,,,,,,,,,,,,,,,,,,,,,,,,,,,,,,,,,,,,,,,,,,,,,,,,,,,,,,,,,,,,,,,,,,,,,,,,,,,,,,,,,,,,,,,,,,,,,,,,,,,,,,,,,,,,
,,,,,,5f823a9879e10536650a3d81,62bbf9b337f89da25f3dbc54,2022-06-29_08h05.44.736,Colour_Asymmetry_Pilot,2022.1.3,Win32,59.96282305,62bbe60bf3d75ef465d3e404,0,37,37,79,1,fourthree,,,,,,,,,,,,,,,,,,,,,,,,,,,,,,,,,,,,,,,,,,,,,,,,,,,,,,,,,,,,,,,,,,,,,,,,,,,,,,,,,,,,,,,,,,,,,,,,,,,,,,,,,,,,,,,,,,,,,,,,,,,,,,,,,,,,,,,,,,,,,,,,,,,,,,,,
,,,,,,5f823a9879e10536650a3d81,62bbf9b337f89da25f3dbc54,2022-06-29_08h05.44.736,Colour_Asymmetry_Pilot,2022.1.3,Win32,59.96282305,62bbe60bf3d75ef465d3e404,0,38,38,127,1,fourthree,,,,,,,,,,,,,,,,,,,,,,,,,,,,,,,,,,,,,,,,,,,,,,,,,,,,,,,,,,,,,,,,,,,,,,,,,,,,,,,,,,,,,,,,,,,,,,,,,,,,,,,,,,,,,,,,,,,,,,,,,,,,,,,,,,,,,,,,,,,,,,,,,,,,,,,,
,,,,,,5f823a9879e10536650a3d81,62bbf9b337f89da25f3dbc54,2022-06-29_08h05.44.736,Colour_Asymmetry_Pilot,2022.1.3,Win32,59.96282305,62bbe60bf3d75ef465d3e404,0,39,39,72,1,onetwo,,,,,,,,,,,,,,,,,,,,,,,,,,,,,,,,,,,,,,,,,,,,,,,,,,,,,,,,,,,,,,,,,,,,,,,,,,,,,,,,,,,,,,,,,,,,,,,,,,,,,,,,,,,,,,,,,,,,,,,,,,,,,,,,,,,,,,,,,,,,,,,,,,,,,,,,
,,,,,,5f823a9879e10536650a3d81,62bbf9b337f89da25f3dbc54,2022-06-29_08h05.44.736,Colour_Asymmetry_Pilot,2022.1.3,Win32,59.96282305,62bbe60bf3d75ef465d3e404,0,40,40,111,1,fourthree,,,,,,,,,,,,,,,,,,,,,,,,,,,,,,,,,,,,,,,,,,,,,,,,,,,,,,,,,,,,,,,,,,,,,,,,,,,,,,,,,,,,,,,,,,,,,,,,,,,,,,,,,,,,,,,,,,,,,,,,,,,,,,,,,,,,,,,,,,,,,,,,,,,,,,,,
,,,,,,5f823a9879e10536650a3d81,62bbf9b337f89da25f3dbc54,2022-06-29_08h05.44.736,Colour_Asymmetry_Pilot,2022.1.3,Win32,59.96282305,62bbe60bf3d75ef465d3e404,0,41,41,71,1,fourthree,,,,,,,,,,,,,,,,,,,,,,,,,,,,,,,,,,,,,,,,,,,,,,,,,,,,,,,,,,,,,,,,,,,,,,,,,,,,,,,,,,,,,,,,,,,,,,,,,,,,,,,,,,,,,,,,,,,,,,,,,,,,,,,,,,,,,,,,,,,,,,,,,,,,,,,,
,,,,,,5f823a9879e10536650a3d81,62bbf9b337f89da25f3dbc54,2022-06-29_08h05.44.736,Colour_Asymmetry_Pilot,2022.1.3,Win32,59.96282305,62bbe60bf3d75ef465d3e404,0,42,42,42,1,twoone,,,,,,,,,,,,,,,,,,,,,,,,,,,,,,,,,,,,,,,,,,,,,,,,,,,,,,,,,,,,,,,,,,,,,,,,,,,,,,,,,,,,,,,,,,,,,,,,,,,,,,,,,,,,,,,,,,,,,,,,,,,,,,,,,,,,,,,,,,,,,,,,,,,,,,,,
,,,,,,5f823a9879e10536650a3d81,62bbf9b337f89da25f3dbc54,2022-06-29_08h05.44.736,Colour_Asymmetry_Pilot,2022.1.3,Win32,59.96282305,62bbe60bf3d75ef465d3e404,0,43,43,66,1,twoone,,,,,,,,,,,,,,,,,,,,,,,,,,,,,,,,,,,,,,,,,,,,,,,,,,,,,,,,,,,,,,,,,,,,,,,,,,,,,,,,,,,,,,,,,,,,,,,,,,,,,,,,,,,,,,,,,,,,,,,,,,,,,,,,,,,,,,,,,,,,,,,,,,,,,,,,
,,,,,,5f823a9879e10536650a3d81,62bbf9b337f89da25f3dbc54,2022-06-29_08h05.44.736,Colour_Asymmetry_Pilot,2022.1.3,Win32,59.96282305,62bbe60bf3d75ef465d3e404,0,44,44,32,1,onetwo,,,,,,,,,,,,,,,,,,,,,,,,,,,,,,,,,,,,,,,,,,,,,,,,,,,,,,,,,,,,,,,,,,,,,,,,,,,,,,,,,,,,,,,,,,,,,,,,,,,,,,,,,,,,,,,,,,,,,,,,,,,,,,,,,,,,,,,,,,,,,,,,,,,,,,,,
,,,,,,5f823a9879e10536650a3d81,62bbf9b337f89da25f3dbc54,2022-06-29_08h05.44.736,Colour_Asymmetry_Pilot,2022.1.3,Win32,59.96282305,62bbe60bf3d75ef465d3e404,0,45,45,9,1,onethree,,,,,,,,,,,,,,,,,,,,,,,,,,,,,,,,,,,,,,,,,,,,,,,,,,,,,,,,,,,,,,,,,,,,,,,,,,,,,,,,,,,,,,,,,,,,,,,,,,,,,,,,,,,,,,,,,,,,,,,,,,,,,,,,,,,,,,,,,,,,,,,,,,,,,,,,
,,,,,,5f823a9879e10536650a3d81,62bbf9b337f89da25f3dbc54,2022-06-29_08h05.44.736,Colour_Asymmetry_Pilot,2022.1.3,Win32,59.96282305,62bbe60bf3d75ef465d3e404,0,46,46,13,1,threefour,,,,,,,,,,,,,,,,,,,,,,,,,,,,,,,,,,,,,,,,,,,,,,,,,,,,,,,,,,,,,,,,,,,,,,,,,,,,,,,,,,,,,,,,,,,,,,,,,,,,,,,,,,,,,,,,,,,,,,,,,,,,,,,,,,,,,,,,,,,,,,,,,,,,,,,,
,,,,,,5f823a9879e10536650a3d81,62bbf9b337f89da25f3dbc54,2022-06-29_08h05.44.736,Colour_Asymmetry_Pilot,2022.1.3,Win32,59.96282305,62bbe60bf3d75ef465d3e404,0,47,47,46,1,fourtwo,,,,,,,,,,,,,,,,,,,,,,,,,,,,,,,,,,,,,,,,,,,,,,,,,,,,,,,,,,,,,,,,,,,,,,,,,,,,,,,,,,,,,,,,,,,,,,,,,,,,,,,,,,,,,,,,,,,,,,,,,,,,,,,,,,,,,,,,,,,,,,,,,,,,,,,,
,,,,,,5f823a9879e10536650a3d81,62bbf9b337f89da25f3dbc54,2022-06-29_08h05.44.736,Colour_Asymmetry_Pilot,2022.1.3,Win32,59.96282305,62bbe60bf3d75ef465d3e404,0,48,48,149,1,threefour,,,,,,,,,,,,,,,,,,,,,,,,,,,,,,,,,,,,,,,,,,,,,,,,,,,,,,,,,,,,,,,,,,,,,,,,,,,,,,,,,,,,,,,,,,,,,,,,,,,,,,,,,,,,,,,,,,,,,,,,,,,,,,,,,,,,,,,,,,,,,,,,,,,,,,,,
,,,,,,5f823a9879e10536650a3d81,62bbf9b337f89da25f3dbc54,2022-06-29_08h05.44.736,Colour_Asymmetry_Pilot,2022.1.3,Win32,59.96282305,62bbe60bf3d75ef465d3e404,0,49,49,63,1,fourthree,,,,,,,,,,,,,,,,,,,,,,,,,,,,,,,,,,,,,,,,,,,,,,,,,,,,,,,,,,,,,,,,,,,,,,,,,,,,,,,,,,,,,,,,,,,,,,,,,,,,,,,,,,,,,,,,,,,,,,,,,,,,,,,,,,,,,,,,,,,,,,,,,,,,,,,,
,,,,,,5f823a9879e10536650a3d81,62bbf9b337f89da25f3dbc54,2022-06-29_08h05.44.736,Colour_Asymmetry_Pilot,2022.1.3,Win32,59.96282305,62bbe60bf3d75ef465d3e404,0,50,50,77,1,threefour,,,,,,,,,,,,,,,,,,,,,,,,,,,,,,,,,,,,,,,,,,,,,,,,,,,,,,,,,,,,,,,,,,,,,,,,,,,,,,,,,,,,,,,,,,,,,,,,,,,,,,,,,,,,,,,,,,,,,,,,,,,,,,,,,,,,,,,,,,,,,,,,,,,,,,,,
,,,,,,5f823a9879e10536650a3d81,62bbf9b337f89da25f3dbc54,2022-06-29_08h05.44.736,Colour_Asymmetry_Pilot,2022.1.3,Win32,59.96282305,62bbe60bf3d75ef465d3e404,0,51,51,96,1,onetwo,,,,,,,,,,,,,,,,,,,,,,,,,,,,,,,,,,,,,,,,,,,,,,,,,,,,,,,,,,,,,,,,,,,,,,,,,,,,,,,,,,,,,,,,,,,,,,,,,,,,,,,,,,,,,,,,,,,,,,,,,,,,,,,,,,,,,,,,,,,,,,,,,,,,,,,,
,,,,,,5f823a9879e10536650a3d81,62bbf9b337f89da25f3dbc54,2022-06-29_08h05.44.736,Colour_Asymmetry_Pilot,2022.1.3,Win32,59.96282305,62bbe60bf3d75ef465d3e404,0,52,52,118,1,fourtwo,,,,,,,,,,,,,,,,,,,,,,,,,,,,,,,,,,,,,,,,,,,,,,,,,,,,,,,,,,,,,,,,,,,,,,,,,,,,,,,,,,,,,,,,,,,,,,,,,,,,,,,,,,,,,,,,,,,,,,,,,,,,,,,,,,,,,,,,,,,,,,,,,,,,,,,,
,,,,,,5f823a9879e10536650a3d81,62bbf9b337f89da25f3dbc54,2022-06-29_08h05.44.736,Colour_Asymmetry_Pilot,2022.1.3,Win32,59.96282305,62bbe60bf3d75ef465d3e404,0,53,53,152,1,onetwo,,,,,,,,,,,,,,,,,,,,,,,,,,,,,,,,,,,,,,,,,,,,,,,,,,,,,,,,,,,,,,,,,,,,,,,,,,,,,,,,,,,,,,,,,,,,,,,,,,,,,,,,,,,,,,,,,,,,,,,,,,,,,,,,,,,,,,,,,,,,,,,,,,,,,,,,
,,,,,,5f823a9879e10536650a3d81,62bbf9b337f89da25f3dbc54,2022-06-29_08h05.44.736,Colour_Asymmetry_Pilot,2022.1.3,Win32,59.96282305,62bbe60bf3d75ef465d3e404,0,54,54,25,1,onethree,,,,,,,,,,,,,,,,,,,,,,,,,,,,,,,,,,,,,,,,,,,,,,,,,,,,,,,,,,,,,,,,,,,,,,,,,,,,,,,,,,,,,,,,,,,,,,,,,,,,,,,,,,,,,,,,,,,,,,,,,,,,,,,,,,,,,,,,,,,,,,,,,,,,,,,,
,,,,,,5f823a9879e10536650a3d81,62bbf9b337f89da25f3dbc54,2022-06-29_08h05.44.736,Colour_Asymmetry_Pilot,2022.1.3,Win32,59.96282305,62bbe60bf3d75ef465d3e404,0,55,55,45,1,threefour,,,,,,,,,,,,,,,,,,,,,,,,,,,,,,,,,,,,,,,,,,,,,,,,,,,,,,,,,,,,,,,,,,,,,,,,,,,,,,,,,,,,,,,,,,,,,,,,,,,,,,,,,,,,,,,,,,,,,,,,,,,,,,,,,,,,,,,,,,,,,,,,,,,,,,,,
,,,,,,5f823a9879e10536650a3d81,62bbf9b337f89da25f3dbc54,2022-06-29_08h05.44.736,Colour_Asymmetry_Pilot,2022.1.3,Win32,59.96282305,62bbe60bf3d75ef465d3e404,0,56,56,86,1,fourtwo,,,,,,,,,,,,,,,,,,,,,,,,,,,,,,,,,,,,,,,,,,,,,,,,,,,,,,,,,,,,,,,,,,,,,,,,,,,,,,,,,,,,,,,,,,,,,,,,,,,,,,,,,,,,,,,,,,,,,,,,,,,,,,,,,,,,,,,,,,,,,,,,,,,,,,,,
,,,,,,5f823a9879e10536650a3d81,62bbf9b337f89da25f3dbc54,2022-06-29_08h05.44.736,Colour_Asymmetry_Pilot,2022.1.3,Win32,59.96282305,62bbe60bf3d75ef465d3e404,0,57,57,80,1,onetwo,,,,,,,,,,,,,,,,,,,,,,,,,,,,,,,,,,,,,,,,,,,,,,,,,,,,,,,,,,,,,,,,,,,,,,,,,,,,,,,,,,,,,,,,,,,,,,,,,,,,,,,,,,,,,,,,,,,,,,,,,,,,,,,,,,,,,,,,,,,,,,,,,,,,,,,,
,,,,,,5f823a9879e10536650a3d81,62bbf9b337f89da25f3dbc54,2022-06-29_08h05.44.736,Colour_Asymmetry_Pilot,2022.1.3,Win32,59.96282305,62bbe60bf3d75ef465d3e404,0,58,58,113,1,onethree,,,,,,,,,,,,,,,,,,,,,,,,,,,,,,,,,,,,,,,,,,,,,,,,,,,,,,,,,,,,,,,,,,,,,,,,,,,,,,,,,,,,,,,,,,,,,,,,,,,,,,,,,,,,,,,,,,,,,,,,,,,,,,,,,,,,,,,,,,,,,,,,,,,,,,,,
,,,,,,5f823a9879e10536650a3d81,62bbf9b337f89da25f3dbc54,2022-06-29_08h05.44.736,Colour_Asymmetry_Pilot,2022.1.3,Win32,59.96282305,62bbe60bf3d75ef465d3e404,0,59,59,49,1,onethree,,,,,,,,,,,,,,,,,,,,,,,,,,,,,,,,,,,,,,,,,,,,,,,,,,,,,,,,,,,,,,,,,,,,,,,,,,,,,,,,,,,,,,,,,,,,,,,,,,,,,,,,,,,,,,,,,,,,,,,,,,,,,,,,,,,,,,,,,,,,,,,,,,,,,,,,
,,,,,,5f823a9879e10536650a3d81,62bbf9b337f89da25f3dbc54,2022-06-29_08h05.44.736,Colour_Asymmetry_Pilot,2022.1.3,Win32,59.96282305,62bbe60bf3d75ef465d3e404,0,60,60,58,1,twoone,,,,,,,,,,,,,,,,,,,,,,,,,,,,,,,,,,,,,,,,,,,,,,,,,,,,,,,,,,,,,,,,,,,,,,,,,,,,,,,,,,,,,,,,,,,,,,,,,,,,,,,,,,,,,,,,,,,,,,,,,,,,,,,,,,,,,,,,,,,,,,,,,,,,,,,,
,,,,,,5f823a9879e10536650a3d81,62bbf9b337f89da25f3dbc54,2022-06-29_08h05.44.736,Colour_Asymmetry_Pilot,2022.1.3,Win32,59.96282305,62bbe60bf3d75ef465d3e404,0,61,61,137,1,onethree,,,,,,,,,,,,,,,,,,,,,,,,,,,,,,,,,,,,,,,,,,,,,,,,,,,,,,,,,,,,,,,,,,,,,,,,,,,,,,,,,,,,,,,,,,,,,,,,,,,,,,,,,,,,,,,,,,,,,,,,,,,,,,,,,,,,,,,,,,,,,,,,,,,,,,,,
,,,,,,5f823a9879e10536650a3d81,62bbf9b337f89da25f3dbc54,2022-06-29_08h05.44.736,Colour_Asymmetry_Pilot,2022.1.3,Win32,59.96282305,62bbe60bf3d75ef465d3e404,0,62,62,17,1,onethree,,,,,,,,,,,,,,,,,,,,,,,,,,,,,,,,,,,,,,,,,,,,,,,,,,,,,,,,,,,,,,,,,,,,,,,,,,,,,,,,,,,,,,,,,,,,,,,,,,,,,,,,,,,,,,,,,,,,,,,,,,,,,,,,,,,,,,,,,,,,,,,,,,,,,,,,
,,,,,,5f823a9879e10536650a3d81,62bbf9b337f89da25f3dbc54,2022-06-29_08h05.44.736,Colour_Asymmetry_Pilot,2022.1.3,Win32,59.96282305,62bbe60bf3d75ef465d3e404,0,63,63,102,1,fourtwo,,,,,,,,,,,,,,,,,,,,,,,,,,,,,,,,,,,,,,,,,,,,,,,,,,,,,,,,,,,,,,,,,,,,,,,,,,,,,,,,,,,,,,,,,,,,,,,,,,,,,,,,,,,,,,,,,,,,,,,,,,,,,,,,,,,,,,,,,,,,,,,,,,,,,,,,
,,,,,,5f823a9879e10536650a3d81,62bbf9b337f89da25f3dbc54,2022-06-29_08h05.44.736,Colour_Asymmetry_Pilot,2022.1.3,Win32,59.96282305,62bbe60bf3d75ef465d3e404,0,64,64,157,1,threefour,,,,,,,,,,,,,,,,,,,,,,,,,,,,,,,,,,,,,,,,,,,,,,,,,,,,,,,,,,,,,,,,,,,,,,,,,,,,,,,,,,,,,,,,,,,,,,,,,,,,,,,,,,,,,,,,,,,,,,,,,,,,,,,,,,,,,,,,,,,,,,,,,,,,,,,,
,,,,,,5f823a9879e10536650a3d81,62bbf9b337f89da25f3dbc54,2022-06-29_08h05.44.736,Colour_Asymmetry_Pilot,2022.1.3,Win32,59.96282305,62bbe60bf3d75ef465d3e404,0,65,65,114,1,twoone,,,,,,,,,,,,,,,,,,,,,,,,,,,,,,,,,,,,,,,,,,,,,,,,,,,,,,,,,,,,,,,,,,,,,,,,,,,,,,,,,,,,,,,,,,,,,,,,,,,,,,,,,,,,,,,,,,,,,,,,,,,,,,,,,,,,,,,,,,,,,,,,,,,,,,,,
,,,,,,5f823a9879e10536650a3d81,62bbf9b337f89da25f3dbc54,2022-06-29_08h05.44.736,Colour_Asymmetry_Pilot,2022.1.3,Win32,59.96282305,62bbe60bf3d75ef465d3e404,0,66,66,41,1,onethree,,,,,,,,,,,,,,,,,,,,,,,,,,,,,,,,,,,,,,,,,,,,,,,,,,,,,,,,,,,,,,,,,,,,,,,,,,,,,,,,,,,,,,,,,,,,,,,,,,,,,,,,,,,,,,,,,,,,,,,,,,,,,,,,,,,,,,,,,,,,,,,,,,,,,,,,
,,,,,,5f823a9879e10536650a3d81,62bbf9b337f89da25f3dbc54,2022-06-29_08h05.44.736,Colour_Asymmetry_Pilot,2022.1.3,Win32,59.96282305,62bbe60bf3d75ef465d3e404,0,67,67,158,1,fourtwo,,,,,,,,,,,,,,,,,,,,,,,,,,,,,,,,,,,,,,,,,,,,,,,,,,,,,,,,,,,,,,,,,,,,,,,,,,,,,,,,,,,,,,,,,,,,,,,,,,,,,,,,,,,,,,,,,,,,,,,,,,,,,,,,,,,,,,,,,,,,,,,,,,,,,,,,
,,,,,,5f823a9879e10536650a3d81,62bbf9b337f89da25f3dbc54,2022-06-29_08h05.44.736,Colour_Asymmetry_Pilot,2022.1.3,Win32,59.96282305,62bbe60bf3d75ef465d3e404,0,68,68,47,1,fourthree,,,,,,,,,,,,,,,,,,,,,,,,,,,,,,,,,,,,,,,,,,,,,,,,,,,,,,,,,,,,,,,,,,,,,,,,,,,,,,,,,,,,,,,,,,,,,,,,,,,,,,,,,,,,,,,,,,,,,,,,,,,,,,,,,,,,,,,,,,,,,,,,,,,,,,,,
,,,,,,5f823a9879e10536650a3d81,62bbf9b337f89da25f3dbc54,2022-06-29_08h05.44.736,Colour_Asymmetry_Pilot,2022.1.3,Win32,59.96282305,62bbe60bf3d75ef465d3e404,0,69,69,110,1,fourtwo,,,,,,,,,,,,,,,,,,,,,,,,,,,,,,,,,,,,,,,,,,,,,,,,,,,,,,,,,,,,,,,,,,,,,,,,,,,,,,,,,,,,,,,,,,,,,,,,,,,,,,,,,,,,,,,,,,,,,,,,,,,,,,,,,,,,,,,,,,,,,,,,,,,,,,,,
,,,,,,5f823a9879e10536650a3d81,62bbf9b337f89da25f3dbc54,2022-06-29_08h05.44.736,Colour_Asymmetry_Pilot,2022.1.3,Win32,59.96282305,62bbe60bf3d75ef465d3e404,0,70,70,37,1,threefour,,,,,,,,,,,,,,,,,,,,,,,,,,,,,,,,,,,,,,,,,,,,,,,,,,,,,,,,,,,,,,,,,,,,,,,,,,,,,,,,,,,,,,,,,,,,,,,,,,,,,,,,,,,,,,,,,,,,,,,,,,,,,,,,,,,,,,,,,,,,,,,,,,,,,,,,
,,,,,,5f823a9879e10536650a3d81,62bbf9b337f89da25f3dbc54,2022-06-29_08h05.44.736,Colour_Asymmetry_Pilot,2022.1.3,Win32,59.96282305,62bbe60bf3d75ef465d3e404,0,71,71,99,1,twofour,,,,,,,,,,,,,,,,,,,,,,,,,,,,,,,,,,,,,,,,,,,,,,,,,,,,,,,,,,,,,,,,,,,,,,,,,,,,,,,,,,,,,,,,,,,,,,,,,,,,,,,,,,,,,,,,,,,,,,,,,,,,,,,,,,,,,,,,,,,,,,,,,,,,,,,,
,,,,,,5f823a9879e10536650a3d81,62bbf9b337f89da25f3dbc54,2022-06-29_08h05.44.736,Colour_Asymmetry_Pilot,2022.1.3,Win32,59.96282305,62bbe60bf3d75ef465d3e404,0,72,72,76,1,threeone,,,,,,,,,,,,,,,,,,,,,,,,,,,,,,,,,,,,,,,,,,,,,,,,,,,,,,,,,,,,,,,,,,,,,,,,,,,,,,,,,,,,,,,,,,,,,,,,,,,,,,,,,,,,,,,,,,,,,,,,,,,,,,,,,,,,,,,,,,,,,,,,,,,,,,,,
,,,,,,5f823a9879e10536650a3d81,62bbf9b337f89da25f3dbc54,2022-06-29_08h05.44.736,Colour_Asymmetry_Pilot,2022.1.3,Win32,59.96282305,62bbe60bf3d75ef465d3e404,0,73,73,34,1,twoone,,,,,,,,,,,,,,,,,,,,,,,,,,,,,,,,,,,,,,,,,,,,,,,,,,,,,,,,,,,,,,,,,,,,,,,,,,,,,,,,,,,,,,,,,,,,,,,,,,,,,,,,,,,,,,,,,,,,,,,,,,,,,,,,,,,,,,,,,,,,,,,,,,,,,,,,
,,,,,,5f823a9879e10536650a3d81,62bbf9b337f89da25f3dbc54,2022-06-29_08h05.44.736,Colour_Asymmetry_Pilot,2022.1.3,Win32,59.96282305,62bbe60bf3d75ef465d3e404,0,74,74,153,1,onethree,,,,,,,,,,,,,,,,,,,,,,,,,,,,,,,,,,,,,,,,,,,,,,,,,,,,,,,,,,,,,,,,,,,,,,,,,,,,,,,,,,,,,,,,,,,,,,,,,,,,,,,,,,,,,,,,,,,,,,,,,,,,,,,,,,,,,,,,,,,,,,,,,,,,,,,,
,,,,,,5f823a9879e10536650a3d81,62bbf9b337f89da25f3dbc54,2022-06-29_08h05.44.736,Colour_Asymmetry_Pilot,2022.1.3,Win32,59.96282305,62bbe60bf3d75ef465d3e404,0,75,75,151,1,fourthree,,,,,,,,,,,,,,,,,,,,,,,,,,,,,,,,,,,,,,,,,,,,,,,,,,,,,,,,,,,,,,,,,,,,,,,,,,,,,,,,,,,,,,,,,,,,,,,,,,,,,,,,,,,,,,,,,,,,,,,,,,,,,,,,,,,,,,,,,,,,,,,,,,,,,,,,
,,,,,,5f823a9879e10536650a3d81,62bbf9b337f89da25f3dbc54,2022-06-29_08h05.44.736,Colour_Asymmetry_Pilot,2022.1.3,Win32,59.96282305,62bbe60bf3d75ef465d3e404,0,76,76,0,1,onetwo,,,,,,,,,,,,,,,,,,,,,,,,,,,,,,,,,,,,,,,,,,,,,,,,,,,,,,,,,,,,,,,,,,,,,,,,,,,,,,,,,,,,,,,,,,,,,,,,,,,,,,,,,,,,,,,,,,,,,,,,,,,,,,,,,,,,,,,,,,,,,,,,,,,,,,,,
,,,,,,5f823a9879e10536650a3d81,62bbf9b337f89da25f3dbc54,2022-06-29_08h05.44.736,Colour_Asymmetry_Pilot,2022.1.3,Win32,59.96282305,62bbe60bf3d75ef465d3e404,0,77,77,59,1,twofour,,,,,,,,,,,,,,,,,,,,,,,,,,,,,,,,,,,,,,,,,,,,,,,,,,,,,,,,,,,,,,,,,,,,,,,,,,,,,,,,,,,,,,,,,,,,,,,,,,,,,,,,,,,,,,,,,,,,,,,,,,,,,,,,,,,,,,,,,,,,,,,,,,,,,,,,
,,,,,,5f823a9879e10536650a3d81,62bbf9b337f89da25f3dbc54,2022-06-29_08h05.44.736,Colour_Asymmetry_Pilot,2022.1.3,Win32,59.96282305,62bbe60bf3d75ef465d3e404,0,78,78,135,1,fourthree,,,,,,,,,,,,,,,,,,,,,,,,,,,,,,,,,,,,,,,,,,,,,,,,,,,,,,,,,,,,,,,,,,,,,,,,,,,,,,,,,,,,,,,,,,,,,,,,,,,,,,,,,,,,,,,,,,,,,,,,,,,,,,,,,,,,,,,,,,,,,,,,,,,,,,,,
,,,,,,5f823a9879e10536650a3d81,62bbf9b337f89da25f3dbc54,2022-06-29_08h05.44.736,Colour_Asymmetry_Pilot,2022.1.3,Win32,59.96282305,62bbe60bf3d75ef465d3e404,0,79,79,28,1,threeone,,,,,,,,,,,,,,,,,,,,,,,,,,,,,,,,,,,,,,,,,,,,,,,,,,,,,,,,,,,,,,,,,,,,,,,,,,,,,,,,,,,,,,,,,,,,,,,,,,,,,,,,,,,,,,,,,,,,,,,,,,,,,,,,,,,,,,,,,,,,,,,,,,,,,,,,
,,,,,,5f823a9879e10536650a3d81,62bbf9b337f89da25f3dbc54,2022-06-29_08h05.44.736,Colour_Asymmetry_Pilot,2022.1.3,Win32,59.96282305,62bbe60bf3d75ef465d3e404,0,80,80,20,1,threeone,,,,,,,,,,,,,,,,,,,,,,,,,,,,,,,,,,,,,,,,,,,,,,,,,,,,,,,,,,,,,,,,,,,,,,,,,,,,,,,,,,,,,,,,,,,,,,,,,,,,,,,,,,,,,,,,,,,,,,,,,,,,,,,,,,,,,,,,,,,,,,,,,,,,,,,,
,,,,,,5f823a9879e10536650a3d81,62bbf9b337f89da25f3dbc54,2022-06-29_08h05.44.736,Colour_Asymmetry_Pilot,2022.1.3,Win32,59.96282305,62bbe60bf3d75ef465d3e404,0,81,81,109,1,threefour,,,,,,,,,,,,,,,,,,,,,,,,,,,,,,,,,,,,,,,,,,,,,,,,,,,,,,,,,,,,,,,,,,,,,,,,,,,,,,,,,,,,,,,,,,,,,,,,,,,,,,,,,,,,,,,,,,,,,,,,,,,,,,,,,,,,,,,,,,,,,,,,,,,,,,,,
,,,,,,5f823a9879e10536650a3d81,62bbf9b337f89da25f3dbc54,2022-06-29_08h05.44.736,Colour_Asymmetry_Pilot,2022.1.3,Win32,59.96282305,62bbe60bf3d75ef465d3e404,0,82,82,146,1,twoone,,,,,,,,,,,,,,,,,,,,,,,,,,,,,,,,,,,,,,,,,,,,,,,,,,,,,,,,,,,,,,,,,,,,,,,,,,,,,,,,,,,,,,,,,,,,,,,,,,,,,,,,,,,,,,,,,,,,,,,,,,,,,,,,,,,,,,,,,,,,,,,,,,,,,,,,
,,,,,,5f823a9879e10536650a3d81,62bbf9b337f89da25f3dbc54,2022-06-29_08h05.44.736,Colour_Asymmetry_Pilot,2022.1.3,Win32,59.96282305,62bbe60bf3d75ef465d3e404,0,83,83,35,1,twofour,,,,,,,,,,,,,,,,,,,,,,,,,,,,,,,,,,,,,,,,,,,,,,,,,,,,,,,,,,,,,,,,,,,,,,,,,,,,,,,,,,,,,,,,,,,,,,,,,,,,,,,,,,,,,,,,,,,,,,,,,,,,,,,,,,,,,,,,,,,,,,,,,,,,,,,,
,,,,,,5f823a9879e10536650a3d81,62bbf9b337f89da25f3dbc54,2022-06-29_08h05.44.736,Colour_Asymmetry_Pilot,2022.1.3,Win32,59.96282305,62bbe60bf3d75ef465d3e404,0,84,84,138,1,twoone,,,,,,,,,,,,,,,,,,,,,,,,,,,,,,,,,,,,,,,,,,,,,,,,,,,,,,,,,,,,,,,,,,,,,,,,,,,,,,,,,,,,,,,,,,,,,,,,,,,,,,,,,,,,,,,,,,,,,,,,,,,,,,,,,,,,,,,,,,,,,,,,,,,,,,,,
,,,,,,5f823a9879e10536650a3d81,62bbf9b337f89da25f3dbc54,2022-06-29_08h05.44.736,Colour_Asymmetry_Pilot,2022.1.3,Win32,59.96282305,62bbe60bf3d75ef465d3e404,0,85,85,50,1,twoone,,,,,,,,,,,,,,,,,,,,,,,,,,,,,,,,,,,,,,,,,,,,,,,,,,,,,,,,,,,,,,,,,,,,,,,,,,,,,,,,,,,,,,,,,,,,,,,,,,,,,,,,,,,,,,,,,,,,,,,,,,,,,,,,,,,,,,,,,,,,,,,,,,,,,,,,
,,,,,,5f823a9879e10536650a3d81,62bbf9b337f89da25f3dbc54,2022-06-29_08h05.44.736,Colour_Asymmetry_Pilot,2022.1.3,Win32,59.96282305,62bbe60bf3d75ef465d3e404,0,86,86,38,1,fourtwo,,,,,,,,,,,,,,,,,,,,,,,,,,,,,,,,,,,,,,,,,,,,,,,,,,,,,,,,,,,,,,,,,,,,,,,,,,,,,,,,,,,,,,,,,,,,,,,,,,,,,,,,,,,,,,,,,,,,,,,,,,,,,,,,,,,,,,,,,,,,,,,,,,,,,,,,
,,,,,,5f823a9879e10536650a3d81,62bbf9b337f89da25f3dbc54,2022-06-29_08h05.44.736,Colour_Asymmetry_Pilot,2022.1.3,Win32,59.96282305,62bbe60bf3d75ef465d3e404,0,87,87,150,1,fourtwo,,,,,,,,,,,,,,,,,,,,,,,,,,,,,,,,,,,,,,,,,,,,,,,,,,,,,,,,,,,,,,,,,,,,,,,,,,,,,,,,,,,,,,,,,,,,,,,,,,,,,,,,,,,,,,,,,,,,,,,,,,,,,,,,,,,,,,,,,,,,,,,,,,,,,,,,
,,,,,,5f823a9879e10536650a3d81,62bbf9b337f89da25f3dbc54,2022-06-29_08h05.44.736,Colour_Asymmetry_Pilot,2022.1.3,Win32,59.96282305,62bbe60bf3d75ef465d3e404,0,88,88,52,1,threeone,,,,,,,,,,,,,,,,,,,,,,,,,,,,,,,,,,,,,,,,,,,,,,,,,,,,,,,,,,,,,,,,,,,,,,,,,,,,,,,,,,,,,,,,,,,,,,,,,,,,,,,,,,,,,,,,,,,,,,,,,,,,,,,,,,,,,,,,,,,,,,,,,,,,,,,,
,,,,,,5f823a9879e10536650a3d81,62bbf9b337f89da25f3dbc54,2022-06-29_08h05.44.736,Colour_Asymmetry_Pilot,2022.1.3,Win32,59.96282305,62bbe60bf3d75ef465d3e404,0,89,89,44,1,threeone,,,,,,,,,,,,,,,,,,,,,,,,,,,,,,,,,,,,,,,,,,,,,,,,,,,,,,,,,,,,,,,,,,,,,,,,,,,,,,,,,,,,,,,,,,,,,,,,,,,,,,,,,,,,,,,,,,,,,,,,,,,,,,,,,,,,,,,,,,,,,,,,,,,,,,,,
,,,,,,5f823a9879e10536650a3d81,62bbf9b337f89da25f3dbc54,2022-06-29_08h05.44.736,Colour_Asymmetry_Pilot,2022.1.3,Win32,59.96282305,62bbe60bf3d75ef465d3e404,0,90,90,7,1,fourthree,,,,,,,,,,,,,,,,,,,,,,,,,,,,,,,,,,,,,,,,,,,,,,,,,,,,,,,,,,,,,,,,,,,,,,,,,,,,,,,,,,,,,,,,,,,,,,,,,,,,,,,,,,,,,,,,,,,,,,,,,,,,,,,,,,,,,,,,,,,,,,,,,,,,,,,,
,,,,,,5f823a9879e10536650a3d81,62bbf9b337f89da25f3dbc54,2022-06-29_08h05.44.736,Colour_Asymmetry_Pilot,2022.1.3,Win32,59.96282305,62bbe60bf3d75ef465d3e404,0,91,91,89,1,onethree,,,,,,,,,,,,,,,,,,,,,,,,,,,,,,,,,,,,,,,,,,,,,,,,,,,,,,,,,,,,,,,,,,,,,,,,,,,,,,,,,,,,,,,,,,,,,,,,,,,,,,,,,,,,,,,,,,,,,,,,,,,,,,,,,,,,,,,,,,,,,,,,,,,,,,,,
,,,,,,5f823a9879e10536650a3d81,62bbf9b337f89da25f3dbc54,2022-06-29_08h05.44.736,Colour_Asymmetry_Pilot,2022.1.3,Win32,59.96282305,62bbe60bf3d75ef465d3e404,0,92,92,81,1,onethree,,,,,,,,,,,,,,,,,,,,,,,,,,,,,,,,,,,,,,,,,,,,,,,,,,,,,,,,,,,,,,,,,,,,,,,,,,,,,,,,,,,,,,,,,,,,,,,,,,,,,,,,,,,,,,,,,,,,,,,,,,,,,,,,,,,,,,,,,,,,,,,,,,,,,,,,
,,,,,,5f823a9879e10536650a3d81,62bbf9b337f89da25f3dbc54,2022-06-29_08h05.44.736,Colour_Asymmetry_Pilot,2022.1.3,Win32,59.96282305,62bbe60bf3d75ef465d3e404,0,93,93,51,1,twofour,,,,,,,,,,,,,,,,,,,,,,,,,,,,,,,,,,,,,,,,,,,,,,,,,,,,,,,,,,,,,,,,,,,,,,,,,,,,,,,,,,,,,,,,,,,,,,,,,,,,,,,,,,,,,,,,,,,,,,,,,,,,,,,,,,,,,,,,,,,,,,,,,,,,,,,,
,,,,,,5f823a9879e10536650a3d81,62bbf9b337f89da25f3dbc54,2022-06-29_08h05.44.736,Colour_Asymmetry_Pilot,2022.1.3,Win32,59.96282305,62bbe60bf3d75ef465d3e404,0,94,94,120,1,onetwo,,,,,,,,,,,,,,,,,,,,,,,,,,,,,,,,,,,,,,,,,,,,,,,,,,,,,,,,,,,,,,,,,,,,,,,,,,,,,,,,,,,,,,,,,,,,,,,,,,,,,,,,,,,,,,,,,,,,,,,,,,,,,,,,,,,,,,,,,,,,,,,,,,,,,,,,
,,,,,,5f823a9879e10536650a3d81,62bbf9b337f89da25f3dbc54,2022-06-29_08h05.44.736,Colour_Asymmetry_Pilot,2022.1.3,Win32,59.96282305,62bbe60bf3d75ef465d3e404,0,95,95,124,1,threeone,,,,,,,,,,,,,,,,,,,,,,,,,,,,,,,,,,,,,,,,,,,,,,,,,,,,,,,,,,,,,,,,,,,,,,,,,,,,,,,,,,,,,,,,,,,,,,,,,,,,,,,,,,,,,,,,,,,,,,,,,,,,,,,,,,,,,,,,,,,,,,,,,,,,,,,,
,,,,,,5f823a9879e10536650a3d81,62bbf9b337f89da25f3dbc54,2022-06-29_08h05.44.736,Colour_Asymmetry_Pilot,2022.1.3,Win32,59.96282305,62bbe60bf3d75ef465d3e404,0,96,96,128,1,onetwo,,,,,,,,,,,,,,,,,,,,,,,,,,,,,,,,,,,,,,,,,,,,,,,,,,,,,,,,,,,,,,,,,,,,,,,,,,,,,,,,,,,,,,,,,,,,,,,,,,,,,,,,,,,,,,,,,,,,,,,,,,,,,,,,,,,,,,,,,,,,,,,,,,,,,,,,
,,,,,,5f823a9879e10536650a3d81,62bbf9b337f89da25f3dbc54,2022-06-29_08h05.44.736,Colour_Asymmetry_Pilot,2022.1.3,Win32,59.96282305,62bbe60bf3d75ef465d3e404,0,97,97,14,1,fourtwo,,,,,,,,,,,,,,,,,,,,,,,,,,,,,,,,,,,,,,,,,,,,,,,,,,,,,,,,,,,,,,,,,,,,,,,,,,,,,,,,,,,,,,,,,,,,,,,,,,,,,,,,,,,,,,,,,,,,,,,,,,,,,,,,,,,,,,,,,,,,,,,,,,,,,,,,
,,,,,,5f823a9879e10536650a3d81,62bbf9b337f89da25f3dbc54,2022-06-29_08h05.44.736,Colour_Asymmetry_Pilot,2022.1.3,Win32,59.96282305,62bbe60bf3d75ef465d3e404,0,98,98,87,1,fourthree,,,,,,,,,,,,,,,,,,,,,,,,,,,,,,,,,,,,,,,,,,,,,,,,,,,,,,,,,,,,,,,,,,,,,,,,,,,,,,,,,,,,,,,,,,,,,,,,,,,,,,,,,,,,,,,,,,,,,,,,,,,,,,,,,,,,,,,,,,,,,,,,,,,,,,,,
,,,,,,5f823a9879e10536650a3d81,62bbf9b337f89da25f3dbc54,2022-06-29_08h05.44.736,Colour_Asymmetry_Pilot,2022.1.3,Win32,59.96282305,62bbe60bf3d75ef465d3e404,0,99,99,2,1,twoone,,,,,,,,,,,,,,,,,,,,,,,,,,,,,,,,,,,,,,,,,,,,,,,,,,,,,,,,,,,,,,,,,,,,,,,,,,,,,,,,,,,,,,,,,,,,,,,,,,,,,,,,,,,,,,,,,,,,,,,,,,,,,,,,,,,,,,,,,,,,,,,,,,,,,,,,
,,,,,,5f823a9879e10536650a3d81,62bbf9b337f89da25f3dbc54,2022-06-29_08h05.44.736,Colour_Asymmetry_Pilot,2022.1.3,Win32,59.96282305,62bbe60bf3d75ef465d3e404,0,100,100,156,1,threeone,,,,,,,,,,,,,,,,,,,,,,,,,,,,,,,,,,,,,,,,,,,,,,,,,,,,,,,,,,,,,,,,,,,,,,,,,,,,,,,,,,,,,,,,,,,,,,,,,,,,,,,,,,,,,,,,,,,,,,,,,,,,,,,,,,,,,,,,,,,,,,,,,,,,,,,,
,,,,,,5f823a9879e10536650a3d81,62bbf9b337f89da25f3dbc54,2022-06-29_08h05.44.736,Colour_Asymmetry_Pilot,2022.1.3,Win32,59.96282305,62bbe60bf3d75ef465d3e404,0,101,101,103,1,fourthree,,,,,,,,,,,,,,,,,,,,,,,,,,,,,,,,,,,,,,,,,,,,,,,,,,,,,,,,,,,,,,,,,,,,,,,,,,,,,,,,,,,,,,,,,,,,,,,,,,,,,,,,,,,,,,,,,,,,,,,,,,,,,,,,,,,,,,,,,,,,,,,,,,,,,,,,
,,,,,,5f823a9879e10536650a3d81,62bbf9b337f89da25f3dbc54,2022-06-29_08h05.44.736,Colour_Asymmetry_Pilot,2022.1.3,Win32,59.96282305,62bbe60bf3d75ef465d3e404,0,102,102,67,1,twofour,,,,,,,,,,,,,,,,,,,,,,,,,,,,,,,,,,,,,,,,,,,,,,,,,,,,,,,,,,,,,,,,,,,,,,,,,,,,,,,,,,,,,,,,,,,,,,,,,,,,,,,,,,,,,,,,,,,,,,,,,,,,,,,,,,,,,,,,,,,,,,,,,,,,,,,,
,,,,,,5f823a9879e10536650a3d81,62bbf9b337f89da25f3dbc54,2022-06-29_08h05.44.736,Colour_Asymmetry_Pilot,2022.1.3,Win32,59.96282305,62bbe60bf3d75ef465d3e404,0,103,103,22,1,fourtwo,,,,,,,,,,,,,,,,,,,,,,,,,,,,,,,,,,,,,,,,,,,,,,,,,,,,,,,,,,,,,,,,,,,,,,,,,,,,,,,,,,,,,,,,,,,,,,,,,,,,,,,,,,,,,,,,,,,,,,,,,,,,,,,,,,,,,,,,,,,,,,,,,,,,,,,,
,,,,,,5f823a9879e10536650a3d81,62bbf9b337f89da25f3dbc54,2022-06-29_08h05.44.736,Colour_Asymmetry_Pilot,2022.1.3,Win32,59.96282305,62bbe60bf3d75ef465d3e404,0,104,104,95,1,fourthree,,,,,,,,,,,,,,,,,,,,,,,,,,,,,,,,,,,,,,,,,,,,,,,,,,,,,,,,,,,,,,,,,,,,,,,,,,,,,,,,,,,,,,,,,,,,,,,,,,,,,,,,,,,,,,,,,,,,,,,,,,,,,,,,,,,,,,,,,,,,,,,,,,,,,,,,
,,,,,,5f823a9879e10536650a3d81,62bbf9b337f89da25f3dbc54,2022-06-29_08h05.44.736,Colour_Asymmetry_Pilot,2022.1.3,Win32,59.96282305,62bbe60bf3d75ef465d3e404,0,105,105,142,1,fourtwo,,,,,,,,,,,,,,,,,,,,,,,,,,,,,,,,,,,,,,,,,,,,,,,,,,,,,,,,,,,,,,,,,,,,,,,,,,,,,,,,,,,,,,,,,,,,,,,,,,,,,,,,,,,,,,,,,,,,,,,,,,,,,,,,,,,,,,,,,,,,,,,,,,,,,,,,
,,,,,,5f823a9879e10536650a3d81,62bbf9b337f89da25f3dbc54,2022-06-29_08h05.44.736,Colour_Asymmetry_Pilot,2022.1.3,Win32,59.96282305,62bbe60bf3d75ef465d3e404,0,106,106,6,1,fourtwo,,,,,,,,,,,,,,,,,,,,,,,,,,,,,,,,,,,,,,,,,,,,,,,,,,,,,,,,,,,,,,,,,,,,,,,,,,,,,,,,,,,,,,,,,,,,,,,,,,,,,,,,,,,,,,,,,,,,,,,,,,,,,,,,,,,,,,,,,,,,,,,,,,,,,,,,
,,,,,,5f823a9879e10536650a3d81,62bbf9b337f89da25f3dbc54,2022-06-29_08h05.44.736,Colour_Asymmetry_Pilot,2022.1.3,Win32,59.96282305,62bbe60bf3d75ef465d3e404,0,107,107,12,1,threeone,,,,,,,,,,,,,,,,,,,,,,,,,,,,,,,,,,,,,,,,,,,,,,,,,,,,,,,,,,,,,,,,,,,,,,,,,,,,,,,,,,,,,,,,,,,,,,,,,,,,,,,,,,,,,,,,,,,,,,,,,,,,,,,,,,,,,,,,,,,,,,,,,,,,,,,,
,,,,,,5f823a9879e10536650a3d81,62bbf9b337f89da25f3dbc54,2022-06-29_08h05.44.736,Colour_Asymmetry_Pilot,2022.1.3,Win32,59.96282305,62bbe60bf3d75ef465d3e404,0,108,108,56,1,onetwo,,,,,,,,,,,,,,,,,,,,,,,,,,,,,,,,,,,,,,,,,,,,,,,,,,,,,,,,,,,,,,,,,,,,,,,,,,,,,,,,,,,,,,,,,,,,,,,,,,,,,,,,,,,,,,,,,,,,,,,,,,,,,,,,,,,,,,,,,,,,,,,,,,,,,,,,
,,,,,,5f823a9879e10536650a3d81,62bbf9b337f89da25f3dbc54,2022-06-29_08h05.44.736,Colour_Asymmetry_Pilot,2022.1.3,Win32,59.96282305,62bbe60bf3d75ef465d3e404,0,109,109,85,1,threefour,,,,,,,,,,,,,,,,,,,,,,,,,,,,,,,,,,,,,,,,,,,,,,,,,,,,,,,,,,,,,,,,,,,,,,,,,,,,,,,,,,,,,,,,,,,,,,,,,,,,,,,,,,,,,,,,,,,,,,,,,,,,,,,,,,,,,,,,,,,,,,,,,,,,,,,,
,,,,,,5f823a9879e10536650a3d81,62bbf9b337f89da25f3dbc54,2022-06-29_08h05.44.736,Colour_Asymmetry_Pilot,2022.1.3,Win32,59.96282305,62bbe60bf3d75ef465d3e404,0,110,110,78,1,fourtwo,,,,,,,,,,,,,,,,,,,,,,,,,,,,,,,,,,,,,,,,,,,,,,,,,,,,,,,,,,,,,,,,,,,,,,,,,,,,,,,,,,,,,,,,,,,,,,,,,,,,,,,,,,,,,,,,,,,,,,,,,,,,,,,,,,,,,,,,,,,,,,,,,,,,,,,,
,,,,,,5f823a9879e10536650a3d81,62bbf9b337f89da25f3dbc54,2022-06-29_08h05.44.736,Colour_Asymmetry_Pilot,2022.1.3,Win32,59.96282305,62bbe60bf3d75ef465d3e404,0,111,111,105,1,onethree,,,,,,,,,,,,,,,,,,,,,,,,,,,,,,,,,,,,,,,,,,,,,,,,,,,,,,,,,,,,,,,,,,,,,,,,,,,,,,,,,,,,,,,,,,,,,,,,,,,,,,,,,,,,,,,,,,,,,,,,,,,,,,,,,,,,,,,,,,,,,,,,,,,,,,,,
,,,,,,5f823a9879e10536650a3d81,62bbf9b337f89da25f3dbc54,2022-06-29_08h05.44.736,Colour_Asymmetry_Pilot,2022.1.3,Win32,59.96282305,62bbe60bf3d75ef465d3e404,0,112,112,117,1,threefour,,,,,,,,,,,,,,,,,,,,,,,,,,,,,,,,,,,,,,,,,,,,,,,,,,,,,,,,,,,,,,,,,,,,,,,,,,,,,,,,,,,,,,,,,,,,,,,,,,,,,,,,,,,,,,,,,,,,,,,,,,,,,,,,,,,,,,,,,,,,,,,,,,,,,,,,
,,,,,,5f823a9879e10536650a3d81,62bbf9b337f89da25f3dbc54,2022-06-29_08h05.44.736,Colour_Asymmetry_Pilot,2022.1.3,Win32,59.96282305,62bbe60bf3d75ef465d3e404,0,113,113,65,1,onethree,,,,,,,,,,,,,,,,,,,,,,,,,,,,,,,,,,,,,,,,,,,,,,,,,,,,,,,,,,,,,,,,,,,,,,,,,,,,,,,,,,,,,,,,,,,,,,,,,,,,,,,,,,,,,,,,,,,,,,,,,,,,,,,,,,,,,,,,,,,,,,,,,,,,,,,,
,,,,,,5f823a9879e10536650a3d81,62bbf9b337f89da25f3dbc54,2022-06-29_08h05.44.736,Colour_Asymmetry_Pilot,2022.1.3,Win32,59.96282305,62bbe60bf3d75ef465d3e404,0,114,114,148,1,threeone,,,,,,,,,,,,,,,,,,,,,,,,,,,,,,,,,,,,,,,,,,,,,,,,,,,,,,,,,,,,,,,,,,,,,,,,,,,,,,,,,,,,,,,,,,,,,,,,,,,,,,,,,,,,,,,,,,,,,,,,,,,,,,,,,,,,,,,,,,,,,,,,,,,,,,,,
,,,,,,5f823a9879e10536650a3d81,62bbf9b337f89da25f3dbc54,2022-06-29_08h05.44.736,Colour_Asymmetry_Pilot,2022.1.3,Win32,59.96282305,62bbe60bf3d75ef465d3e404,0,115,115,129,1,onethree,,,,,,,,,,,,,,,,,,,,,,,,,,,,,,,,,,,,,,,,,,,,,,,,,,,,,,,,,,,,,,,,,,,,,,,,,,,,,,,,,,,,,,,,,,,,,,,,,,,,,,,,,,,,,,,,,,,,,,,,,,,,,,,,,,,,,,,,,,,,,,,,,,,,,,,,
,,,,,,5f823a9879e10536650a3d81,62bbf9b337f89da25f3dbc54,2022-06-29_08h05.44.736,Colour_Asymmetry_Pilot,2022.1.3,Win32,59.96282305,62bbe60bf3d75ef465d3e404,0,116,116,145,1,onethree,,,,,,,,,,,,,,,,,,,,,,,,,,,,,,,,,,,,,,,,,,,,,,,,,,,,,,,,,,,,,,,,,,,,,,,,,,,,,,,,,,,,,,,,,,,,,,,,,,,,,,,,,,,,,,,,,,,,,,,,,,,,,,,,,,,,,,,,,,,,,,,,,,,,,,,,
,,,,,,5f823a9879e10536650a3d81,62bbf9b337f89da25f3dbc54,2022-06-29_08h05.44.736,Colour_Asymmetry_Pilot,2022.1.3,Win32,59.96282305,62bbe60bf3d75ef465d3e404,0,117,117,19,1,twofour,,,,,,,,,,,,,,,,,,,,,,,,,,,,,,,,,,,,,,,,,,,,,,,,,,,,,,,,,,,,,,,,,,,,,,,,,,,,,,,,,,,,,,,,,,,,,,,,,,,,,,,,,,,,,,,,,,,,,,,,,,,,,,,,,,,,,,,,,,,,,,,,,,,,,,,,
,,,,,,5f823a9879e10536650a3d81,62bbf9b337f89da25f3dbc54,2022-06-29_08h05.44.736,Colour_Asymmetry_Pilot,2022.1.3,Win32,59.96282305,62bbe60bf3d75ef465d3e404,0,118,118,4,1,threeone,,,,,,,,,,,,,,,,,,,,,,,,,,,,,,,,,,,,,,,,,,,,,,,,,,,,,,,,,,,,,,,,,,,,,,,,,,,,,,,,,,,,,,,,,,,,,,,,,,,,,,,,,,,,,,,,,,,,,,,,,,,,,,,,,,,,,,,,,,,,,,,,,,,,,,,,
,,,,,,5f823a9879e10536650a3d81,62bbf9b337f89da25f3dbc54,2022-06-29_08h05.44.736,Colour_Asymmetry_Pilot,2022.1.3,Win32,59.96282305,62bbe60bf3d75ef465d3e404,0,119,119,132,1,threeone,,,,,,,,,,,,,,,,,,,,,,,,,,,,,,,,,,,,,,,,,,,,,,,,,,,,,,,,,,,,,,,,,,,,,,,,,,,,,,,,,,,,,,,,,,,,,,,,,,,,,,,,,,,,,,,,,,,,,,,,,,,,,,,,,,,,,,,,,,,,,,,,,,,,,,,,
,,,,,,5f823a9879e10536650a3d81,62bbf9b337f89da25f3dbc54,2022-06-29_08h05.44.736,Colour_Asymmetry_Pilot,2022.1.3,Win32,59.96282305,62bbe60bf3d75ef465d3e404,0,120,120,160,1,onetwo,,,,,,,,,,,,,,,,,,,,,,,,,,,,,,,,,,,,,,,,,,,,,,,,,,,,,,,,,,,,,,,,,,,,,,,,,,,,,,,,,,,,,,,,,,,,,,,,,,,,,,,,,,,,,,,,,,,,,,,,,,,,,,,,,,,,,,,,,,,,,,,,,,,,,,,,
,,,,,,5f823a9879e10536650a3d81,62bbf9b337f89da25f3dbc54,2022-06-29_08h05.44.736,Colour_Asymmetry_Pilot,2022.1.3,Win32,59.96282305,62bbe60bf3d75ef465d3e404,0,121,121,107,1,twofour,,,,,,,,,,,,,,,,,,,,,,,,,,,,,,,,,,,,,,,,,,,,,,,,,,,,,,,,,,,,,,,,,,,,,,,,,,,,,,,,,,,,,,,,,,,,,,,,,,,,,,,,,,,,,,,,,,,,,,,,,,,,,,,,,,,,,,,,,,,,,,,,,,,,,,,,
,,,,,,5f823a9879e10536650a3d81,62bbf9b337f89da25f3dbc54,2022-06-29_08h05.44.736,Colour_Asymmetry_Pilot,2022.1.3,Win32,59.96282305,62bbe60bf3d75ef465d3e404,0,122,122,21,1,threefour,,,,,,,,,,,,,,,,,,,,,,,,,,,,,,,,,,,,,,,,,,,,,,,,,,,,,,,,,,,,,,,,,,,,,,,,,,,,,,,,,,,,,,,,,,,,,,,,,,,,,,,,,,,,,,,,,,,,,,,,,,,,,,,,,,,,,,,,,,,,,,,,,,,,,,,,
,,,,,,5f823a9879e10536650a3d81,62bbf9b337f89da25f3dbc54,2022-06-29_08h05.44.736,Colour_Asymmetry_Pilot,2022.1.3,Win32,59.96282305,62bbe60bf3d75ef465d3e404,0,123,123,133,1,threefour,,,,,,,,,,,,,,,,,,,,,,,,,,,,,,,,,,,,,,,,,,,,,,,,,,,,,,,,,,,,,,,,,,,,,,,,,,,,,,,,,,,,,,,,,,,,,,,,,,,,,,,,,,,,,,,,,,,,,,,,,,,,,,,,,,,,,,,,,,,,,,,,,,,,,,,,
,,,,,,5f823a9879e10536650a3d81,62bbf9b337f89da25f3dbc54,2022-06-29_08h05.44.736,Colour_Asymmetry_Pilot,2022.1.3,Win32,59.96282305,62bbe60bf3d75ef465d3e404,0,124,124,27,1,twofour,,,,,,,,,,,,,,,,,,,,,,,,,,,,,,,,,,,,,,,,,,,,,,,,,,,,,,,,,,,,,,,,,,,,,,,,,,,,,,,,,,,,,,,,,,,,,,,,,,,,,,,,,,,,,,,,,,,,,,,,,,,,,,,,,,,,,,,,,,,,,,,,,,,,,,,,
,,,,,,5f823a9879e10536650a3d81,62bbf9b337f89da25f3dbc54,2022-06-29_08h05.44.736,Colour_Asymmetry_Pilot,2022.1.3,Win32,59.96282305,62bbe60bf3d75ef465d3e404,0,125,125,61,1,threefour,,,,,,,,,,,,,,,,,,,,,,,,,,,,,,,,,,,,,,,,,,,,,,,,,,,,,,,,,,,,,,,,,,,,,,,,,,,,,,,,,,,,,,,,,,,,,,,,,,,,,,,,,,,,,,,,,,,,,,,,,,,,,,,,,,,,,,,,,,,,,,,,,,,,,,,,
,,,,,,5f823a9879e10536650a3d81,62bbf9b337f89da25f3dbc54,2022-06-29_08h05.44.736,Colour_Asymmetry_Pilot,2022.1.3,Win32,59.96282305,62bbe60bf3d75ef465d3e404,0,126,126,123,1,twofour,,,,,,,,,,,,,,,,,,,,,,,,,,,,,,,,,,,,,,,,,,,,,,,,,,,,,,,,,,,,,,,,,,,,,,,,,,,,,,,,,,,,,,,,,,,,,,,,,,,,,,,,,,,,,,,,,,,,,,,,,,,,,,,,,,,,,,,,,,,,,,,,,,,,,,,,
,,,,,,5f823a9879e10536650a3d81,62bbf9b337f89da25f3dbc54,2022-06-29_08h05.44.736,Colour_Asymmetry_Pilot,2022.1.3,Win32,59.96282305,62bbe60bf3d75ef465d3e404,0,127,127,131,1,twofour,,,,,,,,,,,,,,,,,,,,,,,,,,,,,,,,,,,,,,,,,,,,,,,,,,,,,,,,,,,,,,,,,,,,,,,,,,,,,,,,,,,,,,,,,,,,,,,,,,,,,,,,,,,,,,,,,,,,,,,,,,,,,,,,,,,,,,,,,,,,,,,,,,,,,,,,
,,,,,,5f823a9879e10536650a3d81,62bbf9b337f89da25f3dbc54,2022-06-29_08h05.44.736,Colour_Asymmetry_Pilot,2022.1.3,Win32,59.96282305,62bbe60bf3d75ef465d3e404,0,128,128,93,1,threefour,,,,,,,,,,,,,,,,,,,,,,,,,,,,,,,,,,,,,,,,,,,,,,,,,,,,,,,,,,,,,,,,,,,,,,,,,,,,,,,,,,,,,,,,,,,,,,,,,,,,,,,,,,,,,,,,,,,,,,,,,,,,,,,,,,,,,,,,,,,,,,,,,,,,,,,,
,,,,,,5f823a9879e10536650a3d81,62bbf9b337f89da25f3dbc54,2022-06-29_08h05.44.736,Colour_Asymmetry_Pilot,2022.1.3,Win32,59.96282305,62bbe60bf3d75ef465d3e404,0,129,129,5,1,threefour,,,,,,,,,,,,,,,,,,,,,,,,,,,,,,,,,,,,,,,,,,,,,,,,,,,,,,,,,,,,,,,,,,,,,,,,,,,,,,,,,,,,,,,,,,,,,,,,,,,,,,,,,,,,,,,,,,,,,,,,,,,,,,,,,,,,,,,,,,,,,,,,,,,,,,,,
,,,,,,5f823a9879e10536650a3d81,62bbf9b337f89da25f3dbc54,2022-06-29_08h05.44.736,Colour_Asymmetry_Pilot,2022.1.3,Win32,59.96282305,62bbe60bf3d75ef465d3e404,0,130,130,155,1,twofour,,,,,,,,,,,,,,,,,,,,,,,,,,,,,,,,,,,,,,,,,,,,,,,,,,,,,,,,,,,,,,,,,,,,,,,,,,,,,,,,,,,,,,,,,,,,,,,,,,,,,,,,,,,,,,,,,,,,,,,,,,,,,,,,,,,,,,,,,,,,,,,,,,,,,,,,
,,,,,,5f823a9879e10536650a3d81,62bbf9b337f89da25f3dbc54,2022-06-29_08h05.44.736,Colour_Asymmetry_Pilot,2022.1.3,Win32,59.96282305,62bbe60bf3d75ef465d3e404,0,131,131,100,1,threeone,,,,,,,,,,,,,,,,,,,,,,,,,,,,,,,,,,,,,,,,,,,,,,,,,,,,,,,,,,,,,,,,,,,,,,,,,,,,,,,,,,,,,,,,,,,,,,,,,,,,,,,,,,,,,,,,,,,,,,,,,,,,,,,,,,,,,,,,,,,,,,,,,,,,,,,,
,,,,,,5f823a9879e10536650a3d81,62bbf9b337f89da25f3dbc54,2022-06-29_08h05.44.736,Colour_Asymmetry_Pilot,2022.1.3,Win32,59.96282305,62bbe60bf3d75ef465d3e404,0,132,132,69,1,threefour,,,,,,,,,,,,,,,,,,,,,,,,,,,,,,,,,,,,,,,,,,,,,,,,,,,,,,,,,,,,,,,,,,,,,,,,,,,,,,,,,,,,,,,,,,,,,,,,,,,,,,,,,,,,,,,,,,,,,,,,,,,,,,,,,,,,,,,,,,,,,,,,,,,,,,,,
,,,,,,5f823a9879e10536650a3d81,62bbf9b337f89da25f3dbc54,2022-06-29_08h05.44.736,Colour_Asymmetry_Pilot,2022.1.3,Win32,59.96282305,62bbe60bf3d75ef465d3e404,0,133,133,11,1,twofour,,,,,,,,,,,,,,,,,,,,,,,,,,,,,,,,,,,,,,,,,,,,,,,,,,,,,,,,,,,,,,,,,,,,,,,,,,,,,,,,,,,,,,,,,,,,,,,,,,,,,,,,,,,,,,,,,,,,,,,,,,,,,,,,,,,,,,,,,,,,,,,,,,,,,,,,
,,,,,,5f823a9879e10536650a3d81,62bbf9b337f89da25f3dbc54,2022-06-29_08h05.44.736,Colour_Asymmetry_Pilot,2022.1.3,Win32,59.96282305,62bbe60bf3d75ef465d3e404,0,134,134,112,1,onetwo,,,,,,,,,,,,,,,,,,,,,,,,,,,,,,,,,,,,,,,,,,,,,,,,,,,,,,,,,,,,,,,,,,,,,,,,,,,,,,,,,,,,,,,,,,,,,,,,,,,,,,,,,,,,,,,,,,,,,,,,,,,,,,,,,,,,,,,,,,,,,,,,,,,,,,,,
,,,,,,5f823a9879e10536650a3d81,62bbf9b337f89da25f3dbc54,2022-06-29_08h05.44.736,Colour_Asymmetry_Pilot,2022.1.3,Win32,59.96282305,62bbe60bf3d75ef465d3e404,0,135,135,31,1,fourthree,,,,,,,,,,,,,,,,,,,,,,,,,,,,,,,,,,,,,,,,,,,,,,,,,,,,,,,,,,,,,,,,,,,,,,,,,,,,,,,,,,,,,,,,,,,,,,,,,,,,,,,,,,,,,,,,,,,,,,,,,,,,,,,,,,,,,,,,,,,,,,,,,,,,,,,,
,,,,,,5f823a9879e10536650a3d81,62bbf9b337f89da25f3dbc54,2022-06-29_08h05.44.736,Colour_Asymmetry_Pilot,2022.1.3,Win32,59.96282305,62bbe60bf3d75ef465d3e404,0,136,136,92,1,threeone,,,,,,,,,,,,,,,,,,,,,,,,,,,,,,,,,,,,,,,,,,,,,,,,,,,,,,,,,,,,,,,,,,,,,,,,,,,,,,,,,,,,,,,,,,,,,,,,,,,,,,,,,,,,,,,,,,,,,,,,,,,,,,,,,,,,,,,,,,,,,,,,,,,,,,,,
,,,,,,5f823a9879e10536650a3d81,62bbf9b337f89da25f3dbc54,2022-06-29_08h05.44.736,Colour_Asymmetry_Pilot,2022.1.3,Win32,59.96282305,62bbe60bf3d75ef465d3e404,0,137,137,53,1,threefour,,,,,,,,,,,,,,,,,,,,,,,,,,,,,,,,,,,,,,,,,,,,,,,,,,,,,,,,,,,,,,,,,,,,,,,,,,,,,,,,,,,,,,,,,,,,,,,,,,,,,,,,,,,,,,,,,,,,,,,,,,,,,,,,,,,,,,,,,,,,,,,,,,,,,,,,
,,,,,,5f823a9879e10536650a3d81,62bbf9b337f89da25f3dbc54,2022-06-29_08h05.44.736,Colour_Asymmetry_Pilot,2022.1.3,Win32,59.96282305,62bbe60bf3d75ef465d3e404,0,138,138,74,1,twoone,,,,,,,,,,,,,,,,,,,,,,,,,,,,,,,,,,,,,,,,,,,,,,,,,,,,,,,,,,,,,,,,,,,,,,,,,,,,,,,,,,,,,,,,,,,,,,,,,,,,,,,,,,,,,,,,,,,,,,,,,,,,,,,,,,,,,,,,,,,,,,,,,,,,,,,,
,,,,,,5f823a9879e10536650a3d81,62bbf9b337f89da25f3dbc54,2022-06-29_08h05.44.736,Colour_Asymmetry_Pilot,2022.1.3,Win32,59.96282305,62bbe60bf3d75ef465d3e404,0,139,139,62,1,fourtwo,,,,,,,,,,,,,,,,,,,,,,,,,,,,,,,,,,,,,,,,,,,,,,,,,,,,,,,,,,,,,,,,,,,,,,,,,,,,,,,,,,,,,,,,,,,,,,,,,,,,,,,,,,,,,,,,,,,,,,,,,,,,,,,,,,,,,,,,,,,,,,,,,,,,,,,,
,,,,,,5f823a9879e10536650a3d81,62bbf9b337f89da25f3dbc54,2022-06-29_08h05.44.736,Colour_Asymmetry_Pilot,2022.1.3,Win32,59.96282305,62bbe60bf3d75ef465d3e404,0,140,140,139,1,twofour,,,,,,,,,,,,,,,,,,,,,,,,,,,,,,,,,,,,,,,,,,,,,,,,,,,,,,,,,,,,,,,,,,,,,,,,,,,,,,,,,,,,,,,,,,,,,,,,,,,,,,,,,,,,,,,,,,,,,,,,,,,,,,,,,,,,,,,,,,,,,,,,,,,,,,,,
,,,,,,5f823a9879e10536650a3d81,62bbf9b337f89da25f3dbc54,2022-06-29_08h05.44.736,Colour_Asymmetry_Pilot,2022.1.3,Win32,59.96282305,62bbe60bf3d75ef465d3e404,0,141,141,15,1,fourthree,,,,,,,,,,,,,,,,,,,,,,,,,,,,,,,,,,,,,,,,,,,,,,,,,,,,,,,,,,,,,,,,,,,,,,,,,,,,,,,,,,,,,,,,,,,,,,,,,,,,,,,,,,,,,,,,,,,,,,,,,,,,,,,,,,,,,,,,,,,,,,,,,,,,,,,,
,,,,,,5f823a9879e10536650a3d81,62bbf9b337f89da25f3dbc54,2022-06-29_08h05.44.736,Colour_Asymmetry_Pilot,2022.1.3,Win32,59.96282305,62bbe60bf3d75ef465d3e404,0,142,142,130,1,twoone,,,,,,,,,,,,,,,,,,,,,,,,,,,,,,,,,,,,,,,,,,,,,,,,,,,,,,,,,,,,,,,,,,,,,,,,,,,,,,,,,,,,,,,,,,,,,,,,,,,,,,,,,,,,,,,,,,,,,,,,,,,,,,,,,,,,,,,,,,,,,,,,,,,,,,,,
,,,,,,5f823a9879e10536650a3d81,62bbf9b337f89da25f3dbc54,2022-06-29_08h05.44.736,Colour_Asymmetry_Pilot,2022.1.3,Win32,59.96282305,62bbe60bf3d75ef465d3e404,0,143,143,90,1,twoone,,,,,,,,,,,,,,,,,,,,,,,,,,,,,,,,,,,,,,,,,,,,,,,,,,,,,,,,,,,,,,,,,,,,,,,,,,,,,,,,,,,,,,,,,,,,,,,,,,,,,,,,,,,,,,,,,,,,,,,,,,,,,,,,,,,,,,,,,,,,,,,,,,,,,,,,
,,,,,,5f823a9879e10536650a3d81,62bbf9b337f89da25f3dbc54,2022-06-29_08h05.44.736,Colour_Asymmetry_Pilot,2022.1.3,Win32,59.96282305,62bbe60bf3d75ef465d3e404,0,144,144,97,1,onethree,,,,,,,,,,,,,,,,,,,,,,,,,,,,,,,,,,,,,,,,,,,,,,,,,,,,,,,,,,,,,,,,,,,,,,,,,,,,,,,,,,,,,,,,,,,,,,,,,,,,,,,,,,,,,,,,,,,,,,,,,,,,,,,,,,,,,,,,,,,,,,,,,,,,,,,,
,,,,,,5f823a9879e10536650a3d81,62bbf9b337f89da25f3dbc54,2022-06-29_08h05.44.736,Colour_Asymmetry_Pilot,2022.1.3,Win32,59.96282305,62bbe60bf3d75ef465d3e404,0,145,145,23,1,fourthree,,,,,,,,,,,,,,,,,,,,,,,,,,,,,,,,,,,,,,,,,,,,,,,,,,,,,,,,,,,,,,,,,,,,,,,,,,,,,,,,,,,,,,,,,,,,,,,,,,,,,,,,,,,,,,,,,,,,,,,,,,,,,,,,,,,,,,,,,,,,,,,,,,,,,,,,
,,,,,,5f823a9879e10536650a3d81,62bbf9b337f89da25f3dbc54,2022-06-29_08h05.44.736,Colour_Asymmetry_Pilot,2022.1.3,Win32,59.96282305,62bbe60bf3d75ef465d3e404,0,146,146,70,1,fourtwo,,,,,,,,,,,,,,,,,,,,,,,,,,,,,,,,,,,,,,,,,,,,,,,,,,,,,,,,,,,,,,,,,,,,,,,,,,,,,,,,,,,,,,,,,,,,,,,,,,,,,,,,,,,,,,,,,,,,,,,,,,,,,,,,,,,,,,,,,,,,,,,,,,,,,,,,
,,,,,,5f823a9879e10536650a3d81,62bbf9b337f89da25f3dbc54,2022-06-29_08h05.44.736,Colour_Asymmetry_Pilot,2022.1.3,Win32,59.96282305,62bbe60bf3d75ef465d3e404,0,147,147,144,1,onetwo,,,,,,,,,,,,,,,,,,,,,,,,,,,,,,,,,,,,,,,,,,,,,,,,,,,,,,,,,,,,,,,,,,,,,,,,,,,,,,,,,,,,,,,,,,,,,,,,,,,,,,,,,,,,,,,,,,,,,,,,,,,,,,,,,,,,,,,,,,,,,,,,,,,,,,,,
,,,,,,5f823a9879e10536650a3d81,62bbf9b337f89da25f3dbc54,2022-06-29_08h05.44.736,Colour_Asymmetry_Pilot,2022.1.3,Win32,59.96282305,62bbe60bf3d75ef465d3e404,0,148,148,54,1,fourtwo,,,,,,,,,,,,,,,,,,,,,,,,,,,,,,,,,,,,,,,,,,,,,,,,,,,,,,,,,,,,,,,,,,,,,,,,,,,,,,,,,,,,,,,,,,,,,,,,,,,,,,,,,,,,,,,,,,,,,,,,,,,,,,,,,,,,,,,,,,,,,,,,,,,,,,,,
,,,,,,5f823a9879e10536650a3d81,62bbf9b337f89da25f3dbc54,2022-06-29_08h05.44.736,Colour_Asymmetry_Pilot,2022.1.3,Win32,59.96282305,62bbe60bf3d75ef465d3e404,0,149,149,75,1,twofour,,,,,,,,,,,,,,,,,,,,,,,,,,,,,,,,,,,,,,,,,,,,,,,,,,,,,,,,,,,,,,,,,,,,,,,,,,,,,,,,,,,,,,,,,,,,,,,,,,,,,,,,,,,,,,,,,,,,,,,,,,,,,,,,,,,,,,,,,,,,,,,,,,,,,,,,
,,,,,,5f823a9879e10536650a3d81,62bbf9b337f89da25f3dbc54,2022-06-29_08h05.44.736,Colour_Asymmetry_Pilot,2022.1.3,Win32,59.96282305,62bbe60bf3d75ef465d3e404,0,150,150,83,1,twofour,,,,,,,,,,,,,,,,,,,,,,,,,,,,,,,,,,,,,,,,,,,,,,,,,,,,,,,,,,,,,,,,,,,,,,,,,,,,,,,,,,,,,,,,,,,,,,,,,,,,,,,,,,,,,,,,,,,,,,,,,,,,,,,,,,,,,,,,,,,,,,,,,,,,,,,,
,,,,,,5f823a9879e10536650a3d81,62bbf9b337f89da25f3dbc54,2022-06-29_08h05.44.736,Colour_Asymmetry_Pilot,2022.1.3,Win32,59.96282305,62bbe60bf3d75ef465d3e404,0,151,151,1,1,onethree,,,,,,,,,,,,,,,,,,,,,,,,,,,,,,,,,,,,,,,,,,,,,,,,,,,,,,,,,,,,,,,,,,,,,,,,,,,,,,,,,,,,,,,,,,,,,,,,,,,,,,,,,,,,,,,,,,,,,,,,,,,,,,,,,,,,,,,,,,,,,,,,,,,,,,,,
,,,,,,5f823a9879e10536650a3d81,62bbf9b337f89da25f3dbc54,2022-06-29_08h05.44.736,Colour_Asymmetry_Pilot,2022.1.3,Win32,59.96282305,62bbe60bf3d75ef465d3e404,0,152,152,98,1,twoone,,,,,,,,,,,,,,,,,,,,,,,,,,,,,,,,,,,,,,,,,,,,,,,,,,,,,,,,,,,,,,,,,,,,,,,,,,,,,,,,,,,,,,,,,,,,,,,,,,,,,,,,,,,,,,,,,,,,,,,,,,,,,,,,,,,,,,,,,,,,,,,,,,,,,,,,
,,,,,,5f823a9879e10536650a3d81,62bbf9b337f89da25f3dbc54,2022-06-29_08h05.44.736,Colour_Asymmetry_Pilot,2022.1.3,Win32,59.96282305,62bbe60bf3d75ef465d3e404,0,153,153,60,1,threeone,,,,,,,,,,,,,,,,,,,,,,,,,,,,,,,,,,,,,,,,,,,,,,,,,,,,,,,,,,,,,,,,,,,,,,,,,,,,,,,,,,,,,,,,,,,,,,,,,,,,,,,,,,,,,,,,,,,,,,,,,,,,,,,,,,,,,,,,,,,,,,,,,,,,,,,,
,,,,,,5f823a9879e10536650a3d81,62bbf9b337f89da25f3dbc54,2022-06-29_08h05.44.736,Colour_Asymmetry_Pilot,2022.1.3,Win32,59.96282305,62bbe60bf3d75ef465d3e404,0,154,154,36,1,threeone,,,,,,,,,,,,,,,,,,,,,,,,,,,,,,,,,,,,,,,,,,,,,,,,,,,,,,,,,,,,,,,,,,,,,,,,,,,,,,,,,,,,,,,,,,,,,,,,,,,,,,,,,,,,,,,,,,,,,,,,,,,,,,,,,,,,,,,,,,,,,,,,,,,,,,,,
,,,,,,5f823a9879e10536650a3d81,62bbf9b337f89da25f3dbc54,2022-06-29_08h05.44.736,Colour_Asymmetry_Pilot,2022.1.3,Win32,59.96282305,62bbe60bf3d75ef465d3e404,0,155,155,18,1,twoone,,,,,,,,,,,,,,,,,,,,,,,,,,,,,,,,,,,,,,,,,,,,,,,,,,,,,,,,,,,,,,,,,,,,,,,,,,,,,,,,,,,,,,,,,,,,,,,,,,,,,,,,,,,,,,,,,,,,,,,,,,,,,,,,,,,,,,,,,,,,,,,,,,,,,,,,
,,,,,,5f823a9879e10536650a3d81,62bbf9b337f89da25f3dbc54,2022-06-29_08h05.44.736,Colour_Asymmetry_Pilot,2022.1.3,Win32,59.96282305,62bbe60bf3d75ef465d3e404,0,156,156,125,1,threefour,,,,,,,,,,,,,,,,,,,,,,,,,,,,,,,,,,,,,,,,,,,,,,,,,,,,,,,,,,,,,,,,,,,,,,,,,,,,,,,,,,,,,,,,,,,,,,,,,,,,,,,,,,,,,,,,,,,,,,,,,,,,,,,,,,,,,,,,,,,,,,,,,,,,,,,,
,,,,,,5f823a9879e10536650a3d81,62bbf9b337f89da25f3dbc54,2022-06-29_08h05.44.736,Colour_Asymmetry_Pilot,2022.1.3,Win32,59.96282305,62bbe60bf3d75ef465d3e404,0,157,157,126,1,fourtwo,,,,,,,,,,,,,,,,,,,,,,,,,,,,,,,,,,,,,,,,,,,,,,,,,,,,,,,,,,,,,,,,,,,,,,,,,,,,,,,,,,,,,,,,,,,,,,,,,,,,,,,,,,,,,,,,,,,,,,,,,,,,,,,,,,,,,,,,,,,,,,,,,,,,,,,,
,,,,,,5f823a9879e10536650a3d81,62bbf9b337f89da25f3dbc54,2022-06-29_08h05.44.736,Colour_Asymmetry_Pilot,2022.1.3,Win32,59.96282305,62bbe60bf3d75ef465d3e404,0,158,158,154,1,twoone,,,,,,,,,,,,,,,,,,,,,,,,,,,,,,,,,,,,,,,,,,,,,,,,,,,,,,,,,,,,,,,,,,,,,,,,,,,,,,,,,,,,,,,,,,,,,,,,,,,,,,,,,,,,,,,,,,,,,,,,,,,,,,,,,,,,,,,,,,,,,,,,,,,,,,,,
,,,,,,5f823a9879e10536650a3d81,62bbf9b337f89da25f3dbc54,2022-06-29_08h05.44.736,Colour_Asymmetry_Pilot,2022.1.3,Win32,59.96282305,62bbe60bf3d75ef465d3e404,0,159,159,64,1,onetwo,,,,,,,,,,,,,,,,,,,,,,,,,,,,,,,,,,,,,,,,,,,,,,,,,,,,,,,,,,,,,,,,,,,,,,,,,,,,,,,,,,,,,,,,,,,,,,,,,,,,,,,,,,,,,,,,,,,,,,,,,,,,,,,,,,,,,,,,,,,,,,,,,,,,,,,,
,,,,,,5f823a9879e10536650a3d81,62bbf9b337f89da25f3dbc54,2022-06-29_08h05.44.736,Colour_Asymmetry_Pilot,2022.1.3,Win32,59.96282305,62bbe60bf3d75ef465d3e404,0,160,160,48,1,onetwo,,,,,,,,,,,,,,,,,,,,,,,,,,,,,,,,,,,,,,,,,,,,,,,,,,,,,,,,,,,,,,,,,,,,,,,,,,,,,,,,,,,,,,,,,,,,,,,,,,,,,,,,,,,,,,,,,,,,,,,,,,,,,,,,,,,,,,,,,,,,,,,,,,,,,,,,
,,,,,,5f823a9879e10536650a3d81,62bbf9b337f89da25f3dbc54,2022-06-29_08h05.44.736,Colour_Asymmetry_Pilot,2022.1.3,Win32,59.96282305,62bbe60bf3d75ef465d3e404,0,161,161,43,1,twofour,,,,,,,,,,,,,,,,,,,,,,,,,,,,,,,,,,,,,,,,,,,,,,,,,,,,,,,,,,,,,,,,,,,,,,,,,,,,,,,,,,,,,,,,,,,,,,,,,,,,,,,,,,,,,,,,,,,,,,,,,,,,,,,,,,,,,,,,,,,,,,,,,,,,,,,,
,,,,,,5f823a9879e10536650a3d81,62bbf9b337f89da25f3dbc54,2022-06-29_08h05.44.736,Colour_Asymmetry_Pilot,2022.1.3,Win32,59.96282305,62bbe60bf3d75ef465d3e404,,,,,,,space,1.8984,space,10.0931,space,29.214,space,5.3727,space,2.1283,space,2.9504,"[-0.8198,-0.5138,-0.7492000000000001]",fourthree,"[-0.24719999999999998,-0.0354000000000001,0.3175999999999999]",1,11.9385,63,-133,1,0,0,response3disk_5,-8,0,1,0,0,rectangle_8,-8,0,1,0,0,4,-8,0,1,0,0,0,0,0,0,1,,,,,,,,,,,,,,,,,,,,,,,,,,,,,,,,,,,,,,,,,,,,,,,,,,,,,,,,,,,,,,,,,,,,,,,,,,,,,,,,,,,,,,,,,,,,,,,,,,,,,,,,,,,
,,,,,,5f823a9879e10536650a3d81,62bbf9b337f89da25f3dbc54,2022-06-29_08h05.44.736,Colour_Asymmetry_Pilot,2022.1.3,Win32,59.96282305,62bbe60bf3d75ef465d3e404,,,,,,,,,,,,,,,,,,,"[0.30180000000000007,-0.7884,-0.9844]",twofour,"[0.40379999999999994,0.09000000000000008,0.44300000000000006]",-1,4.1449,-76,-109,1,0,0,response5disk_5,-6,1,1,0,0,rectangle_8,80,136,1,0,0,4,2,1,1,0,0,1,0,1,0,1,response1disk_7,7,rectangle_4,,,,,,,,,,,,,,,,,,,,,,,,,,,,,,,,,,,,,,,,,,,,,,,,,,,,,,,,,,,,,,,,,,,,,,,,,,,,,,,,,,,,,,,,,,,,,,,,,,,,,,,,
,,,,,,5f823a9879e10536650a3d81,62bbf9b337f89da25f3dbc54,2022-06-29_08h05.44.736,Colour_Asymmetry_Pilot,2022.1.3,Win32,59.96282305,62bbe60bf3d75ef465d3e404,,,,,,,,,,,,,,,,,,,"[-0.48240000000000005,0.3175999999999999,0.2156]",onethree,"[-0.24719999999999998,0.5213999999999999,-0.12959999999999994]",2,1.8825,104,-75,1,0,0,response3disk_5,-12,1,1,0,0,rectangle_8,-12,1,1,0,0,4,-12,1,1,0,0,2,0,2,0,1,,,,,,,,,,,,,,,,,,,,,,,,,,,,,,,,,,,,,,,,,,,,,,,,,,,,,,,,,,,,,,,,,,,,,,,,,,,,,,,,,,,,,,,,,,,,,,,,,,,,,,,,,,,
,,,,,,5f823a9879e10536650a3d81,62bbf9b337f89da25f3dbc54,2022-06-29_08h05.44.736,Colour_Asymmetry_Pilot,2022.1.3,Win32,59.96282305,62bbe60bf3d75ef465d3e404,,,,,,,,,,,,,,,,,,,"[0.34099999999999997,0.5841999999999998,-0.9844]",threeone,"[-0.9766,-0.34920000000000007,0.2156]",-2,1.1416,-98,-72,1,0,0,response5disk_5,-6,5,1,0,0,rectangle_8,-6,5,1,0,0,4,-6,5,1,0,0,3,0,3,0,1,,,,,,,,,,,,,,,,,,,,,,,,,,,,,,,,,,,,,,,,,,,,,,,,,,,,,,,,,,,,,,,,,,,,,,,,,,,,,,,,,,,,,,,,,,,,,,,,,,,,,,,,,,,
,,,,,,5f823a9879e10536650a3d81,62bbf9b337f89da25f3dbc54,2022-06-29_08h05.44.736,Colour_Asymmetry_Pilot,2022.1.3,Win32,59.96282305,62bbe60bf3d75ef465d3e404,,,,,,,,,,,,,,,,,,,"[-0.34920000000000007,-0.702,-0.5216]",fourthree,"[-0.24719999999999998,-0.0354000000000001,0.3175999999999999]",1,2.8252,41,-135,1,0,0,response3disk_5,-18,-2,1,0,0,rectangle_8,-18,-2,1,0,0,4,-18,-2,1,0,0,4,0,4,0,1,,,,,,,,,,,,,,,,,,,,,,,,,,,,,,,,,,,,,,,,,,,,,,,,,,,,,,,,,,,,,,,,,,,,,,,,,,,,,,,,,,,,,,,,,,,,,,,,,,,,,,,,,,,
,,,,,,5f823a9879e10536650a3d81,62bbf9b337f89da25f3dbc54,2022-06-29_08h05.44.736,Colour_Asymmetry_Pilot,2022.1.3,Win32,59.96282305,62bbe60bf3d75ef465d3e404,,,,,,,,,,,,,,,,,,,"[-0.38039999999999996,-0.4276,-0.1452]",fourthree,"[0.11359999999999992,0.6312,0.5213999999999999]",-2,0.9885,-95,-67,1,0,0,response5disk_5,3,-4,1,0,0,rectangle_8,3,-4,1,0,0,4,3,-4,1,0,0,5,0,5,0,1,,,,,,,,,,,,,,,,,,,,,,,,,,,,,,,,,,,,,,,,,,,,,,,,,,,,,,,,,,,,,,,,,,,,,,,,,,,,,,,,,,,,,,,,,,,,,,,,,,,,,,,,,,,
,,,,,,5f823a9879e10536650a3d81,62bbf9b337f89da25f3dbc54,2022-06-29_08h05.44.736,Colour_Asymmetry_Pilot,2022.1.3,Win32,59.96282305,62bbe60bf3d75ef465d3e404,,,,,,,,,,,,,,,,,,,"[0.9686000000000001,0.5763999999999998,0.11359999999999992]",twoone,"[0.34099999999999997,0.5841999999999998,-0.9844]",1,2.5805,42,-126,1,0,0,response3disk_5,-27,-4,1,0,0,rectangle_8,-27,-4,1,0,0,4,-27,-4,1,0,0,6,0,6,0,1,,,,,,,,,,,,,,,,,,,,,,,,,,,,,,,,,,,,,,,,,,,,,,,,,,,,,,,,,,,,,,,,,,,,,,,,,,,,,,,,,,,,,,,,,,,,,,,,,,,,,,,,,,,
,,,,,,5f823a9879e10536650a3d81,62bbf9b337f89da25f3dbc54,2022-06-29_08h05.44.736,Colour_Asymmetry_Pilot,2022.1.3,Win32,59.96282305,62bbe60bf3d75ef465d3e404,,,,,,,,,,,,,,,,,,,,threeone,,3,1.4523,,,,,,,,,,,,,,,,,,,,,,,,,,,,,,,,space,5.3566,"[0.9763999999999999,0.8588,-0.05900000000000005]","[0.7018,0.7802,-0.16079999999999994]",137,49,1,0,0,response1disk,19,-8,1,0,0,rectangle,19,-8,1,0,0,,2,0.0011,0,19,-8,1,0,0,0,0,0,142,1,61,second,,,,,,,,,,,,,,,,,,,,,,,,,,,,,,,,,,,,,,,,,,,,,,,,,,,,,,,,,,,,,,,,,,,
,,,,,,5f823a9879e10536650a3d81,62bbf9b337f89da25f3dbc54,2022-06-29_08h05.44.736,Colour_Asymmetry_Pilot,2022.1.3,Win32,59.96282305,62bbe60bf3d75ef465d3e404,,,,,,,,,,,,,,,,,,,,threeone,,1,0.6601,,,,,,,,,,,,,,,,,,,,,,,,,,,,,,,,,,"[0.5449999999999999,-0.31000000000000005,-0.0354000000000001]","[-0.26280000000000003,-0.4746,-0.2158]",66,-143,1,0,0,response3disk,-5,2,1,0,0,rectangle,-5,2,1,0,0,,3,0.0005,0,-5,2,1,0,0,0,1,1,82,1,1,second,,,,,,,,,,,,,,,,,,,,,,,,,,,,,,,,,,,,,,,,,,,,,,,,,,,,,,,,,,,,,,,,,,,
,,,,,,5f823a9879e10536650a3d81,62bbf9b337f89da25f3dbc54,2022-06-29_08h05.44.736,Colour_Asymmetry_Pilot,2022.1.3,Win32,59.96282305,62bbe60bf3d75ef465d3e404,,,,,,,,,,,,,,,,,,,,twoone,,-2,1.4162,,,,,,,,,,,,,,,,,,,,,,,,,,,,,,,,,,"[-0.4668,-0.8746,-0.2942]","[0.7018,0.7802,-0.16079999999999994]",-88,-53,1,0,0,response5disk,14,8,1,0,0,rectangle,14,8,1,0,0,,3,0.0002,0,14,8,1,0,0,0,2,2,73,1,73,first,,,,,,,,,,,,,,,,,,,,,,,,,,,,,,,,,,,,,,,,,,,,,,,,,,,,,,,,,,,,,,,,,,,
,,,,,,5f823a9879e10536650a3d81,62bbf9b337f89da25f3dbc54,2022-06-29_08h05.44.736,Colour_Asymmetry_Pilot,2022.1.3,Win32,59.96282305,62bbe60bf3d75ef465d3e404,,,,,,,,,,,,,,,,,,,,onetwo,,-2,0.6123,,,,,,,,,,,,,,,,,,,,,,,,,,,,,,,,,,"[0.3568,-0.20799999999999996,-0.9844]","[-0.9688,-0.4902000000000001,-0.12159999999999993]",-94,-53,1,0,0,response5disk,-1,-7,1,0,0,rectangle,-1,-7,1,0,0,,3,1E-04,0,-1,-7,1,0,0,0,3,3,32,1,32,first,,,,,,,,,,,,,,,,,,,,,,,,,,,,,,,,,,,,,,,,,,,,,,,,,,,,,,,,,,,,,,,,,,,
,,,,,,5f823a9879e10536650a3d81,62bbf9b337f89da25f3dbc54,2022-06-29_08h05.44.736,Colour_Asymmetry_Pilot,2022.1.3,Win32,59.96282305,62bbe60bf3d75ef465d3e404,,,,,,,,,,,,,,,,,,,,threeone,,-2,0.3984,,,,,,,,,,,,,,,,,,,,,,,,,,,,,,,,,,"[-0.4746,-0.0354000000000001,0.5449999999999999]","[-0.050999999999999934,-0.6706000000000001,-0.804]",-101,-54,1,0,0,response5disk,-8,1,1,0,0,rectangle,-8,1,1,0,0,,2,0.0007,0,-8,1,1,0,0,0,4,4,90,1,9,second,,,,,,,,,,,,,,,,,,,,,,,,,,,,,,,,,,,,,,,,,,,,,,,,,,,,,,,,,,,,,,,,,,,
,,,,,,5f823a9879e10536650a3d81,62bbf9b337f89da25f3dbc54,2022-06-29_08h05.44.736,Colour_Asymmetry_Pilot,2022.1.3,Win32,59.96282305,62bbe60bf3d75ef465d3e404,,,,,,,,,,,,,,,,,,,,twoone,,-2,0.5314,,,,,,,,,,,,,,,,,,,,,,,,,,,,,,,,,,"[-0.4746,-0.0354000000000001,0.5449999999999999]","[0.30180000000000007,-0.7884,-0.9844]",-65,-50,1,0,0,response5disk,-6,-11,1,0,0,rectangle,-6,-11,1,0,0,,2,0.0001,0,-6,-11,1,0,0,0,5,5,0,1,0,first,,,,,,,,,,,,,,,,,,,,,,,,,,,,,,,,,,,,,,,,,,,,,,,,,,,,,,,,,,,,,,,,,,,
,,,,,,5f823a9879e10536650a3d81,62bbf9b337f89da25f3dbc54,2022-06-29_08h05.44.736,Colour_Asymmetry_Pilot,2022.1.3,Win32,59.96282305,62bbe60bf3d75ef465d3e404,,,,,,,,,,,,,,,,,,,,twofour,,1,0.8741,,,,,,,,,,,,,,,,,,,,,,,,,,,,,,,,,,"[-0.9688,-0.7412000000000001,-0.4902000000000001]","[-0.2942,-0.24719999999999998,-0.357]",57,-87,1,0,0,response3disk,19,-10,1,0,0,rectangle,19,-10,1,0,0,,1,0.0005,0,19,-10,1,0,0,0,6,6,35,1,35,first,,,,,,,,,,,,,,,,,,,,,,,,,,,,,,,,,,,,,,,,,,,,,,,,,,,,,,,,,,,,,,,,,,,
,,,,,,5f823a9879e10536650a3d81,62bbf9b337f89da25f3dbc54,2022-06-29_08h05.44.736,Colour_Asymmetry_Pilot,2022.1.3,Win32,59.96282305,62bbe60bf3d75ef465d3e404,,,,,,,,,,,,,,,,,,,,onetwo,,-3,0.9023,,,,,,,,,,,,,,,,,,,,,,,,,,,,,,,,,,"[-0.5452,-0.608,0.2470000000000001]","[0.6547999999999998,-0.043199999999999905,-0.011800000000000033]",-88,28,1,0,0,response7disk,-22,4,1,0,0,rectangle,83,-50,1,0,0,2,2,2.0876,1,6,-5,1,0,0,0,7,7,97,1,16,second,response3disk_3,rectangle,,,,,,,,,,,,,,,,,,,,,,,,,,,,,,,,,,,,,,,,,,,,,,,,,,,,,,,,,,,,,,,,,
,,,,,,5f823a9879e10536650a3d81,62bbf9b337f89da25f3dbc54,2022-06-29_08h05.44.736,Colour_Asymmetry_Pilot,2022.1.3,Win32,59.96282305,62bbe60bf3d75ef465d3e404,,,,,,,,,,,,,,,,,,,,threeone,,-2,0.5129,,,,,,,,,,,,,,,,,,,,,,,,,,,,,,,,,,"[0.23120000000000007,-0.7726,-0.34120000000000006]","[-0.9688,-0.38039999999999996,-0.41979999999999995]",-104,-52,1,0,0,response5disk,-25,2,1,0,0,rectangle,-25,2,1,0,0,2,3,0.0006,0,-25,2,1,0,0,0,8,8,19,1,19,first,,,,,,,,,,,,,,,,,,,,,,,,,,,,,,,,,,,,,,,,,,,,,,,,,,,,,,,,,,,,,,,,,,,
,,,,,,5f823a9879e10536650a3d81,62bbf9b337f89da25f3dbc54,2022-06-29_08h05.44.736,Colour_Asymmetry_Pilot,2022.1.3,Win32,59.96282305,62bbe60bf3d75ef465d3e404,,,,,,,,,,,,,,,,,,,,twoone,,-1,1.6586,,,,,,,,,,,,,,,,,,,,,,,,,,,,,,,,,,"[0.37240000000000006,-0.050999999999999934,-0.5216]","[-0.17659999999999998,0.3253999999999999,0.19999999999999996]",-53,-110,1,0,0,response5disk,-2,-11,1,0,0,rectangle,-2,-11,1,0,0,2,2,0.0007,0,-2,-11,1,0,0,0,9,9,15,1,15,first,,,,,,,,,,,,,,,,,,,,,,,,,,,,,,,,,,,,,,,,,,,,,,,,,,,,,,,,,,,,,,,,,,,
,,,,,,5f823a9879e10536650a3d81,62bbf9b337f89da25f3dbc54,2022-06-29_08h05.44.736,Colour_Asymmetry_Pilot,2022.1.3,Win32,59.96282305,62bbe60bf3d75ef465d3e404,,,,,,,,,,,,,,,,,,,,fourtwo,,-3,0.5961,,,,,,,,,,,,,,,,,,,,,,,,,,,,,,,,,,"[-0.24719999999999998,0.5213999999999999,-0.12959999999999994]","[0.23120000000000007,-0.7726,-0.34120000000000006]",-97,42,1,0,0,response7disk,11,-10,1,0,0,rectangle,11,-10,1,0,0,2,1,0.0005,0,11,-10,1,0,0,0,10,10,22,1,22,first,,,,,,,,,,,,,,,,,,,,,,,,,,,,,,,,,,,,,,,,,,,,,,,,,,,,,,,,,,,,,,,,,,,
,,,,,,5f823a9879e10536650a3d81,62bbf9b337f89da25f3dbc54,2022-06-29_08h05.44.736,Colour_Asymmetry_Pilot,2022.1.3,Win32,59.96282305,62bbe60bf3d75ef465d3e404,,,,,,,,,,,,,,,,,,,,threefour,,1,0.5182,,,,,,,,,,,,,,,,,,,,,,,,,,,,,,,,,,"[-0.10599999999999998,-0.15300000000000002,0.15280000000000005]","[-0.6,0.16860000000000008,0.44300000000000006]",41,-96,1,0,0,response3disk,-3,-10,1,0,0,rectangle,-3,-10,1,0,0,2,2,0.0005,0,-3,-10,1,0,0,0,11,11,132,1,51,second,,,,,,,,,,,,,,,,,,,,,,,,,,,,,,,,,,,,,,,,,,,,,,,,,,,,,,,,,,,,,,,,,,,
,,,,,,5f823a9879e10536650a3d81,62bbf9b337f89da25f3dbc54,2022-06-29_08h05.44.736,Colour_Asymmetry_Pilot,2022.1.3,Win32,59.96282305,62bbe60bf3d75ef465d3e404,,,,,,,,,,,,,,,,,,,,onetwo,,-4,0.562,,,,,,,,,,,,,,,,,,,,,,,,,,,,,,,,,,"[0.34099999999999997,0.5841999999999998,-0.9844]","[-0.01980000000000004,-0.5138,-0.38039999999999996]",-45,108,1,0,0,response7disk,0,-3,1,0,0,rectangle,0,-3,1,0,0,2,3,0.0005,0,0,-3,1,0,0,0,12,12,139,1,58,second,,,,,,,,,,,,,,,,,,,,,,,,,,,,,,,,,,,,,,,,,,,,,,,,,,,,,,,,,,,,,,,,,,,
,,,,,,5f823a9879e10536650a3d81,62bbf9b337f89da25f3dbc54,2022-06-29_08h05.44.736,Colour_Asymmetry_Pilot,2022.1.3,Win32,59.96282305,62bbe60bf3d75ef465d3e404,,,,,,,,,,,,,,,,,,,,threefour,,-2,0.8717,,,,,,,,,,,,,,,,,,,,,,,,,,,,,,,,,,"[-0.45899999999999996,-0.3256,-0.9374]","[0.22340000000000004,-0.9296,-0.7884]",-70,-52,1,0,0,response5disk,-5,2,1,0,0,rectangle,94,-45,1,0,0,2,2,1.5998,1,15,-7,1,0,0,0,13,13,36,1,36,first,response3disk_3,rectangle,,,,,,,,,,,,,,,,,,,,,,,,,,,,,,,,,,,,,,,,,,,,,,,,,,,,,,,,,,,,,,,,,
,,,,,,5f823a9879e10536650a3d81,62bbf9b337f89da25f3dbc54,2022-06-29_08h05.44.736,Colour_Asymmetry_Pilot,2022.1.3,Win32,59.96282305,62bbe60bf3d75ef465d3e404,,,,,,,,,,,,,,,,,,,,twofour,,-2,0.555,,,,,,,,,,,,,,,,,,,,,,,,,,,,,,,,,,"[-0.01980000000000004,-0.5138,-0.38039999999999996]","[0.34099999999999997,0.5841999999999998,-0.9844]",-74,-58,1,0,0,response5disk,2,-11,1,0,0,rectangle,2,-11,1,0,0,2,1,0.0006,0,2,-11,1,0,0,0,14,14,58,1,58,first,,,,,,,,,,,,,,,,,,,,,,,,,,,,,,,,,,,,,,,,,,,,,,,,,,,,,,,,,,,,,,,,,,,
,,,,,,5f823a9879e10536650a3d81,62bbf9b337f89da25f3dbc54,2022-06-29_08h05.44.736,Colour_Asymmetry_Pilot,2022.1.3,Win32,59.96282305,62bbe60bf3d75ef465d3e404,,,,,,,,,,,,,,,,,,,,fourtwo,,-2,0.5168,,,,,,,,,,,,,,,,,,,,,,,,,,,,,,,,,,"[0.34099999999999997,0.12939999999999996,-0.9766]","[0.22340000000000004,-0.9296,-0.7884]",-103,-47,1,0,0,response5disk,2,1,1,0,0,rectangle,2,1,1,0,0,2,2,0.0005,0,2,1,1,0,0,0,15,15,47,1,47,first,,,,,,,,,,,,,,,,,,,,,,,,,,,,,,,,,,,,,,,,,,,,,,,,,,,,,,,,,,,,,,,,,,,
,,,,,,5f823a9879e10536650a3d81,62bbf9b337f89da25f3dbc54,2022-06-29_08h05.44.736,Colour_Asymmetry_Pilot,2022.1.3,Win32,59.96282305,62bbe60bf3d75ef465d3e404,,,,,,,,,,,,,,,,,,,,onetwo,,-3,0.5579,,,,,,,,,,,,,,,,,,,,,,,,,,,,,,,,,,"[-0.6706000000000001,-0.6157999999999999,-0.6786]","[0.6625999999999999,0.4980000000000002,-0.357]",-100,43,1,0,0,response7disk,-16,-7,1,0,0,rectangle,-16,-7,1,0,0,2,1,0.0005,0,-16,-7,1,0,0,0,16,16,39,1,39,first,,,,,,,,,,,,,,,,,,,,,,,,,,,,,,,,,,,,,,,,,,,,,,,,,,,,,,,,,,,,,,,,,,,
,,,,,,5f823a9879e10536650a3d81,62bbf9b337f89da25f3dbc54,2022-06-29_08h05.44.736,Colour_Asymmetry_Pilot,2022.1.3,Win32,59.96282305,62bbe60bf3d75ef465d3e404,,,,,,,,,,,,,,,,,,,,fourthree,,-4,0.4339,,,,,,,,,,,,,,,,,,,,,,,,,,,,,,,,,,"[0.796,0.2156,-0.27859999999999996]","[-0.9844,-0.9688,-0.9922]",-56,77,1,0,0,response7disk,-2,11,1,0,0,rectangle,-2,11,1,0,0,2,2,0.0004,0,-2,11,1,0,0,0,17,17,28,1,28,first,,,,,,,,,,,,,,,,,,,,,,,,,,,,,,,,,,,,,,,,,,,,,,,,,,,,,,,,,,,,,,,,,,,
,,,,,,5f823a9879e10536650a3d81,62bbf9b337f89da25f3dbc54,2022-06-29_08h05.44.736,Colour_Asymmetry_Pilot,2022.1.3,Win32,59.96282305,62bbe60bf3d75ef465d3e404,,,,,,,,,,,,,,,,,,,,threeone,,4,1.2865,,,,,,,,,,,,,,,,,,,,,,,,,,,,,,,,,,"[-0.9766,-0.34920000000000007,0.2156]","[-0.4746,-0.0354000000000001,0.5449999999999999]",66,90,1,0,0,response1disk,0,-7,1,0,0,rectangle,0,-7,1,0,0,2,3,0.0006,0,0,-7,1,0,0,0,18,18,6,1,6,first,,,,,,,,,,,,,,,,,,,,,,,,,,,,,,,,,,,,,,,,,,,,,,,,,,,,,,,,,,,,,,,,,,,
,,,,,,5f823a9879e10536650a3d81,62bbf9b337f89da25f3dbc54,2022-06-29_08h05.44.736,Colour_Asymmetry_Pilot,2022.1.3,Win32,59.96282305,62bbe60bf3d75ef465d3e404,,,,,,,,,,,,,,,,,,,,onetwo,,1,1.1614,,,,,,,,,,,,,,,,,,,,,,,,,,,,,,,,,,"[0.22340000000000004,-0.9296,-0.7884]","[0.34099999999999997,0.12939999999999996,-0.9766]",52,-95,1,0,0,response3disk,20,-14,1,0,0,rectangle,20,-14,1,0,0,2,2,0.0005,0,20,-14,1,0,0,0,19,19,128,1,47,second,,,,,,,,,,,,,,,,,,,,,,,,,,,,,,,,,,,,,,,,,,,,,,,,,,,,,,,,,,,,,,,,,,,
,,,,,,5f823a9879e10536650a3d81,62bbf9b337f89da25f3dbc54,2022-06-29_08h05.44.736,Colour_Asymmetry_Pilot,2022.1.3,Win32,59.96282305,62bbe60bf3d75ef465d3e404,,,,,,,,,,,,,,,,,,,,onethree,,1,1.8039,,,,,,,,,,,,,,,,,,,,,,,,,,,,,,,,,,"[0.9686000000000001,0.5763999999999998,0.11359999999999992]","[0.30180000000000007,-0.7884,-0.9844]",56,-102,1,0,0,response3disk,10,-15,1,0,0,rectangle,10,-15,1,0,0,2,3,0.0004,0,10,-15,1,0,0,0,20,20,153,1,72,second,,,,,,,,,,,,,,,,,,,,,,,,,,,,,,,,,,,,,,,,,,,,,,,,,,,,,,,,,,,,,,,,,,,
