trials.thisRepN,trials.thisTrialN,trials.thisN,trials.thisIndex,trials.ran,Colourcodes,participant,session,date,expName,psychopyVersion,OS,frameRate,study_id,trials_4.thisRepN,trials_4.thisTrialN,trials_4.thisN,trials_4.thisIndex,trials_4.ran,StimulusPos,key_resp.keys,key_resp.rt,key_resp_2.keys,key_resp_2.rt,key_resp_15.keys,key_resp_15.rt,key_resp_17.keys,key_resp_17.rt,key_resp_9.keys,key_resp_9.rt,key_resp_10.keys,key_resp_10.rt,Circle1_col,Ecc,Circle2_col,similarity,response_time,mouse_5.x,mouse_5.y,mouse_5.leftButton,mouse_5.midButton,mouse_5.rightButton,mouse_5.clicked_name,mouse_10.x,mouse_10.y,mouse_10.leftButton,mouse_10.midButton,mouse_10.rightButton,mouse_10.clicked_name,mouse_7.x,mouse_7.y,mouse_7.leftButton,mouse_7.midButton,mouse_7.rightButton,catchnumberprac,mouse_6.x,mouse_6.y,mouse_6.leftButton,mouse_6.midButton,mouse_6.rightButton,duringprac.thisRepN,duringprac.thisTrialN,duringprac.thisN,duringprac.thisIndex,duringprac.ran,key_resp_22.keys,key_resp_22.rt,Circle1_colour,Circle2_colour,mouse.x,mouse.y,mouse.leftButton,mouse.midButton,mouse.rightButton,mouse.clicked_name,mouse_2.x,mouse_2.y,mouse_2.leftButton,mouse_2.midButton,mouse_2.rightButton,mouse_2.clicked_name,mouse_3.x,mouse_3.y,mouse_3.leftButton,mouse_3.midButton,mouse_3.rightButton,catchresponse,catchnumber,response_time_catch,Catch,mouse_11.x,mouse_11.y,mouse_11.leftButton,mouse_11.midButton,mouse_11.rightButton,trials_2.thisRepN,trials_2.thisTrialN,trials_2.thisN,trials_2.thisIndex,trials_2.ran,Colourpair,Temporder,mouse_3.clicked_name,mouse_11.clicked_name,trials_3.thisRepN,trials_3.thisTrialN,trials_3.thisN,trials_3.thisIndex,trials_3.ran,key_resp_instr_Ishi.keys,key_resp_instr_Ishi.rt,Ishi_trial_keyresp.keys,Ishi_trial_keyresp.rt,Ishi_textbox.text,Ishi_loop.thisRepN,Ishi_loop.thisTrialN,Ishi_loop.thisN,Ishi_loop.thisIndex,Ishi_loop.ran,imageaddress,textbox.text,mouse_4.x,mouse_4.y,mouse_4.leftButton,mouse_4.midButton,mouse_4.rightButton,mouse_4.clicked_name,textbox_2.text,mouse_8.x,mouse_8.y,mouse_8.leftButton,mouse_8.midButton,mouse_8.rightButton,mouse_8.clicked_name,textbox_3.text,mouse_9.x,mouse_9.y,mouse_9.leftButton,mouse_9.midButton,mouse_9.rightButton,mouse_9.clicked_name,textbox_4.text,mouse_12.x,mouse_12.y,mouse_12.leftButton,mouse_12.midButton,mouse_12.rightButton,mouse_12.clicked_name,textbox_5.text,mouse_13.x,mouse_13.y,mouse_13.leftButton,mouse_13.midButton,mouse_13.rightButton,mouse_13.clicked_name,textbox_6.text,mouse_14.x,mouse_14.y,mouse_14.leftButton,mouse_14.midButton,mouse_14.rightButton,mouse_14.clicked_name,textbox_7.text,mouse_15.x,mouse_15.y,mouse_15.leftButton,mouse_15.midButton,mouse_15.rightButton,mouse_15.clicked_name
0,0,0,75,1,,5edd2e458f29cfa351de300d,62bbfb55d905a5fac415c7af,2022-06-29_02h13.24.731,Colour_Asymmetry_Pilot,2022.1.3,Win32,60.0528465,62bbe60bf3d75ef465d3e404,,,,,,,,,,,,,,,,,,,,,,,,,,,,,,,,,,,,,,,,,,,,,,,,,,,,,,,,,,,,,,,,,,,,,,,,,,,,,,,,,,,,,,,,,,,,,,,,,,,,,,,,,,,,,,,,,,,,,,,,,,,,,,,,,,,,,,,,,,,,,,,,,,,,,,,,,,,
0,1,1,21,1,,5edd2e458f29cfa351de300d,62bbfb55d905a5fac415c7af,2022-06-29_02h13.24.731,Colour_Asymmetry_Pilot,2022.1.3,Win32,60.0528465,62bbe60bf3d75ef465d3e404,,,,,,,,,,,,,,,,,,,,,,,,,,,,,,,,,,,,,,,,,,,,,,,,,,,,,,,,,,,,,,,,,,,,,,,,,,,,,,,,,,,,,,,,,,,,,,,,,,,,,,,,,,,,,,,,,,,,,,,,,,,,,,,,,,,,,,,,,,,,,,,,,,,,,,,,,,,
0,2,2,85,1,,5edd2e458f29cfa351de300d,62bbfb55d905a5fac415c7af,2022-06-29_02h13.24.731,Colour_Asymmetry_Pilot,2022.1.3,Win32,60.0528465,62bbe60bf3d75ef465d3e404,,,,,,,,,,,,,,,,,,,,,,,,,,,,,,,,,,,,,,,,,,,,,,,,,,,,,,,,,,,,,,,,,,,,,,,,,,,,,,,,,,,,,,,,,,,,,,,,,,,,,,,,,,,,,,,,,,,,,,,,,,,,,,,,,,,,,,,,,,,,,,,,,,,,,,,,,,,
0,3,3,66,1,,5edd2e458f29cfa351de300d,62bbfb55d905a5fac415c7af,2022-06-29_02h13.24.731,Colour_Asymmetry_Pilot,2022.1.3,Win32,60.0528465,62bbe60bf3d75ef465d3e404,,,,,,,,,,,,,,,,,,,,,,,,,,,,,,,,,,,,,,,,,,,,,,,,,,,,,,,,,,,,,,,,,,,,,,,,,,,,,,,,,,,,,,,,,,,,,,,,,,,,,,,,,,,,,,,,,,,,,,,,,,,,,,,,,,,,,,,,,,,,,,,,,,,,,,,,,,,
0,4,4,77,1,,5edd2e458f29cfa351de300d,62bbfb55d905a5fac415c7af,2022-06-29_02h13.24.731,Colour_Asymmetry_Pilot,2022.1.3,Win32,60.0528465,62bbe60bf3d75ef465d3e404,,,,,,,,,,,,,,,,,,,,,,,,,,,,,,,,,,,,,,,,,,,,,,,,,,,,,,,,,,,,,,,,,,,,,,,,,,,,,,,,,,,,,,,,,,,,,,,,,,,,,,,,,,,,,,,,,,,,,,,,,,,,,,,,,,,,,,,,,,,,,,,,,,,,,,,,,,,
0,5,5,43,1,,5edd2e458f29cfa351de300d,62bbfb55d905a5fac415c7af,2022-06-29_02h13.24.731,Colour_Asymmetry_Pilot,2022.1.3,Win32,60.0528465,62bbe60bf3d75ef465d3e404,,,,,,,,,,,,,,,,,,,,,,,,,,,,,,,,,,,,,,,,,,,,,,,,,,,,,,,,,,,,,,,,,,,,,,,,,,,,,,,,,,,,,,,,,,,,,,,,,,,,,,,,,,,,,,,,,,,,,,,,,,,,,,,,,,,,,,,,,,,,,,,,,,,,,,,,,,,
0,6,6,12,1,,5edd2e458f29cfa351de300d,62bbfb55d905a5fac415c7af,2022-06-29_02h13.24.731,Colour_Asymmetry_Pilot,2022.1.3,Win32,60.0528465,62bbe60bf3d75ef465d3e404,,,,,,,,,,,,,,,,,,,,,,,,,,,,,,,,,,,,,,,,,,,,,,,,,,,,,,,,,,,,,,,,,,,,,,,,,,,,,,,,,,,,,,,,,,,,,,,,,,,,,,,,,,,,,,,,,,,,,,,,,,,,,,,,,,,,,,,,,,,,,,,,,,,,,,,,,,,
0,7,7,47,1,,5edd2e458f29cfa351de300d,62bbfb55d905a5fac415c7af,2022-06-29_02h13.24.731,Colour_Asymmetry_Pilot,2022.1.3,Win32,60.0528465,62bbe60bf3d75ef465d3e404,,,,,,,,,,,,,,,,,,,,,,,,,,,,,,,,,,,,,,,,,,,,,,,,,,,,,,,,,,,,,,,,,,,,,,,,,,,,,,,,,,,,,,,,,,,,,,,,,,,,,,,,,,,,,,,,,,,,,,,,,,,,,,,,,,,,,,,,,,,,,,,,,,,,,,,,,,,
0,8,8,29,1,,5edd2e458f29cfa351de300d,62bbfb55d905a5fac415c7af,2022-06-29_02h13.24.731,Colour_Asymmetry_Pilot,2022.1.3,Win32,60.0528465,62bbe60bf3d75ef465d3e404,,,,,,,,,,,,,,,,,,,,,,,,,,,,,,,,,,,,,,,,,,,,,,,,,,,,,,,,,,,,,,,,,,,,,,,,,,,,,,,,,,,,,,,,,,,,,,,,,,,,,,,,,,,,,,,,,,,,,,,,,,,,,,,,,,,,,,,,,,,,,,,,,,,,,,,,,,,
0,9,9,45,1,,5edd2e458f29cfa351de300d,62bbfb55d905a5fac415c7af,2022-06-29_02h13.24.731,Colour_Asymmetry_Pilot,2022.1.3,Win32,60.0528465,62bbe60bf3d75ef465d3e404,,,,,,,,,,,,,,,,,,,,,,,,,,,,,,,,,,,,,,,,,,,,,,,,,,,,,,,,,,,,,,,,,,,,,,,,,,,,,,,,,,,,,,,,,,,,,,,,,,,,,,,,,,,,,,,,,,,,,,,,,,,,,,,,,,,,,,,,,,,,,,,,,,,,,,,,,,,
0,10,10,72,1,,5edd2e458f29cfa351de300d,62bbfb55d905a5fac415c7af,2022-06-29_02h13.24.731,Colour_Asymmetry_Pilot,2022.1.3,Win32,60.0528465,62bbe60bf3d75ef465d3e404,,,,,,,,,,,,,,,,,,,,,,,,,,,,,,,,,,,,,,,,,,,,,,,,,,,,,,,,,,,,,,,,,,,,,,,,,,,,,,,,,,,,,,,,,,,,,,,,,,,,,,,,,,,,,,,,,,,,,,,,,,,,,,,,,,,,,,,,,,,,,,,,,,,,,,,,,,,
0,11,11,5,1,,5edd2e458f29cfa351de300d,62bbfb55d905a5fac415c7af,2022-06-29_02h13.24.731,Colour_Asymmetry_Pilot,2022.1.3,Win32,60.0528465,62bbe60bf3d75ef465d3e404,,,,,,,,,,,,,,,,,,,,,,,,,,,,,,,,,,,,,,,,,,,,,,,,,,,,,,,,,,,,,,,,,,,,,,,,,,,,,,,,,,,,,,,,,,,,,,,,,,,,,,,,,,,,,,,,,,,,,,,,,,,,,,,,,,,,,,,,,,,,,,,,,,,,,,,,,,,
0,12,12,3,1,,5edd2e458f29cfa351de300d,62bbfb55d905a5fac415c7af,2022-06-29_02h13.24.731,Colour_Asymmetry_Pilot,2022.1.3,Win32,60.0528465,62bbe60bf3d75ef465d3e404,,,,,,,,,,,,,,,,,,,,,,,,,,,,,,,,,,,,,,,,,,,,,,,,,,,,,,,,,,,,,,,,,,,,,,,,,,,,,,,,,,,,,,,,,,,,,,,,,,,,,,,,,,,,,,,,,,,,,,,,,,,,,,,,,,,,,,,,,,,,,,,,,,,,,,,,,,,
0,13,13,87,1,,5edd2e458f29cfa351de300d,62bbfb55d905a5fac415c7af,2022-06-29_02h13.24.731,Colour_Asymmetry_Pilot,2022.1.3,Win32,60.0528465,62bbe60bf3d75ef465d3e404,,,,,,,,,,,,,,,,,,,,,,,,,,,,,,,,,,,,,,,,,,,,,,,,,,,,,,,,,,,,,,,,,,,,,,,,,,,,,,,,,,,,,,,,,,,,,,,,,,,,,,,,,,,,,,,,,,,,,,,,,,,,,,,,,,,,,,,,,,,,,,,,,,,,,,,,,,,
0,14,14,71,1,,5edd2e458f29cfa351de300d,62bbfb55d905a5fac415c7af,2022-06-29_02h13.24.731,Colour_Asymmetry_Pilot,2022.1.3,Win32,60.0528465,62bbe60bf3d75ef465d3e404,,,,,,,,,,,,,,,,,,,,,,,,,,,,,,,,,,,,,,,,,,,,,,,,,,,,,,,,,,,,,,,,,,,,,,,,,,,,,,,,,,,,,,,,,,,,,,,,,,,,,,,,,,,,,,,,,,,,,,,,,,,,,,,,,,,,,,,,,,,,,,,,,,,,,,,,,,,
0,15,15,76,1,,5edd2e458f29cfa351de300d,62bbfb55d905a5fac415c7af,2022-06-29_02h13.24.731,Colour_Asymmetry_Pilot,2022.1.3,Win32,60.0528465,62bbe60bf3d75ef465d3e404,,,,,,,,,,,,,,,,,,,,,,,,,,,,,,,,,,,,,,,,,,,,,,,,,,,,,,,,,,,,,,,,,,,,,,,,,,,,,,,,,,,,,,,,,,,,,,,,,,,,,,,,,,,,,,,,,,,,,,,,,,,,,,,,,,,,,,,,,,,,,,,,,,,,,,,,,,,
0,16,16,46,1,,5edd2e458f29cfa351de300d,62bbfb55d905a5fac415c7af,2022-06-29_02h13.24.731,Colour_Asymmetry_Pilot,2022.1.3,Win32,60.0528465,62bbe60bf3d75ef465d3e404,,,,,,,,,,,,,,,,,,,,,,,,,,,,,,,,,,,,,,,,,,,,,,,,,,,,,,,,,,,,,,,,,,,,,,,,,,,,,,,,,,,,,,,,,,,,,,,,,,,,,,,,,,,,,,,,,,,,,,,,,,,,,,,,,,,,,,,,,,,,,,,,,,,,,,,,,,,
0,17,17,23,1,,5edd2e458f29cfa351de300d,62bbfb55d905a5fac415c7af,2022-06-29_02h13.24.731,Colour_Asymmetry_Pilot,2022.1.3,Win32,60.0528465,62bbe60bf3d75ef465d3e404,,,,,,,,,,,,,,,,,,,,,,,,,,,,,,,,,,,,,,,,,,,,,,,,,,,,,,,,,,,,,,,,,,,,,,,,,,,,,,,,,,,,,,,,,,,,,,,,,,,,,,,,,,,,,,,,,,,,,,,,,,,,,,,,,,,,,,,,,,,,,,,,,,,,,,,,,,,
0,18,18,70,1,,5edd2e458f29cfa351de300d,62bbfb55d905a5fac415c7af,2022-06-29_02h13.24.731,Colour_Asymmetry_Pilot,2022.1.3,Win32,60.0528465,62bbe60bf3d75ef465d3e404,,,,,,,,,,,,,,,,,,,,,,,,,,,,,,,,,,,,,,,,,,,,,,,,,,,,,,,,,,,,,,,,,,,,,,,,,,,,,,,,,,,,,,,,,,,,,,,,,,,,,,,,,,,,,,,,,,,,,,,,,,,,,,,,,,,,,,,,,,,,,,,,,,,,,,,,,,,
0,19,19,18,1,,5edd2e458f29cfa351de300d,62bbfb55d905a5fac415c7af,2022-06-29_02h13.24.731,Colour_Asymmetry_Pilot,2022.1.3,Win32,60.0528465,62bbe60bf3d75ef465d3e404,,,,,,,,,,,,,,,,,,,,,,,,,,,,,,,,,,,,,,,,,,,,,,,,,,,,,,,,,,,,,,,,,,,,,,,,,,,,,,,,,,,,,,,,,,,,,,,,,,,,,,,,,,,,,,,,,,,,,,,,,,,,,,,,,,,,,,,,,,,,,,,,,,,,,,,,,,,
0,20,20,42,1,,5edd2e458f29cfa351de300d,62bbfb55d905a5fac415c7af,2022-06-29_02h13.24.731,Colour_Asymmetry_Pilot,2022.1.3,Win32,60.0528465,62bbe60bf3d75ef465d3e404,,,,,,,,,,,,,,,,,,,,,,,,,,,,,,,,,,,,,,,,,,,,,,,,,,,,,,,,,,,,,,,,,,,,,,,,,,,,,,,,,,,,,,,,,,,,,,,,,,,,,,,,,,,,,,,,,,,,,,,,,,,,,,,,,,,,,,,,,,,,,,,,,,,,,,,,,,,
0,21,21,54,1,,5edd2e458f29cfa351de300d,62bbfb55d905a5fac415c7af,2022-06-29_02h13.24.731,Colour_Asymmetry_Pilot,2022.1.3,Win32,60.0528465,62bbe60bf3d75ef465d3e404,,,,,,,,,,,,,,,,,,,,,,,,,,,,,,,,,,,,,,,,,,,,,,,,,,,,,,,,,,,,,,,,,,,,,,,,,,,,,,,,,,,,,,,,,,,,,,,,,,,,,,,,,,,,,,,,,,,,,,,,,,,,,,,,,,,,,,,,,,,,,,,,,,,,,,,,,,,
0,22,22,36,1,,5edd2e458f29cfa351de300d,62bbfb55d905a5fac415c7af,2022-06-29_02h13.24.731,Colour_Asymmetry_Pilot,2022.1.3,Win32,60.0528465,62bbe60bf3d75ef465d3e404,,,,,,,,,,,,,,,,,,,,,,,,,,,,,,,,,,,,,,,,,,,,,,,,,,,,,,,,,,,,,,,,,,,,,,,,,,,,,,,,,,,,,,,,,,,,,,,,,,,,,,,,,,,,,,,,,,,,,,,,,,,,,,,,,,,,,,,,,,,,,,,,,,,,,,,,,,,
0,23,23,22,1,,5edd2e458f29cfa351de300d,62bbfb55d905a5fac415c7af,2022-06-29_02h13.24.731,Colour_Asymmetry_Pilot,2022.1.3,Win32,60.0528465,62bbe60bf3d75ef465d3e404,,,,,,,,,,,,,,,,,,,,,,,,,,,,,,,,,,,,,,,,,,,,,,,,,,,,,,,,,,,,,,,,,,,,,,,,,,,,,,,,,,,,,,,,,,,,,,,,,,,,,,,,,,,,,,,,,,,,,,,,,,,,,,,,,,,,,,,,,,,,,,,,,,,,,,,,,,,
0,24,24,69,1,,5edd2e458f29cfa351de300d,62bbfb55d905a5fac415c7af,2022-06-29_02h13.24.731,Colour_Asymmetry_Pilot,2022.1.3,Win32,60.0528465,62bbe60bf3d75ef465d3e404,,,,,,,,,,,,,,,,,,,,,,,,,,,,,,,,,,,,,,,,,,,,,,,,,,,,,,,,,,,,,,,,,,,,,,,,,,,,,,,,,,,,,,,,,,,,,,,,,,,,,,,,,,,,,,,,,,,,,,,,,,,,,,,,,,,,,,,,,,,,,,,,,,,,,,,,,,,
0,25,25,79,1,,5edd2e458f29cfa351de300d,62bbfb55d905a5fac415c7af,2022-06-29_02h13.24.731,Colour_Asymmetry_Pilot,2022.1.3,Win32,60.0528465,62bbe60bf3d75ef465d3e404,,,,,,,,,,,,,,,,,,,,,,,,,,,,,,,,,,,,,,,,,,,,,,,,,,,,,,,,,,,,,,,,,,,,,,,,,,,,,,,,,,,,,,,,,,,,,,,,,,,,,,,,,,,,,,,,,,,,,,,,,,,,,,,,,,,,,,,,,,,,,,,,,,,,,,,,,,,
0,26,26,15,1,,5edd2e458f29cfa351de300d,62bbfb55d905a5fac415c7af,2022-06-29_02h13.24.731,Colour_Asymmetry_Pilot,2022.1.3,Win32,60.0528465,62bbe60bf3d75ef465d3e404,,,,,,,,,,,,,,,,,,,,,,,,,,,,,,,,,,,,,,,,,,,,,,,,,,,,,,,,,,,,,,,,,,,,,,,,,,,,,,,,,,,,,,,,,,,,,,,,,,,,,,,,,,,,,,,,,,,,,,,,,,,,,,,,,,,,,,,,,,,,,,,,,,,,,,,,,,,
0,27,27,63,1,,5edd2e458f29cfa351de300d,62bbfb55d905a5fac415c7af,2022-06-29_02h13.24.731,Colour_Asymmetry_Pilot,2022.1.3,Win32,60.0528465,62bbe60bf3d75ef465d3e404,,,,,,,,,,,,,,,,,,,,,,,,,,,,,,,,,,,,,,,,,,,,,,,,,,,,,,,,,,,,,,,,,,,,,,,,,,,,,,,,,,,,,,,,,,,,,,,,,,,,,,,,,,,,,,,,,,,,,,,,,,,,,,,,,,,,,,,,,,,,,,,,,,,,,,,,,,,
0,28,28,34,1,,5edd2e458f29cfa351de300d,62bbfb55d905a5fac415c7af,2022-06-29_02h13.24.731,Colour_Asymmetry_Pilot,2022.1.3,Win32,60.0528465,62bbe60bf3d75ef465d3e404,,,,,,,,,,,,,,,,,,,,,,,,,,,,,,,,,,,,,,,,,,,,,,,,,,,,,,,,,,,,,,,,,,,,,,,,,,,,,,,,,,,,,,,,,,,,,,,,,,,,,,,,,,,,,,,,,,,,,,,,,,,,,,,,,,,,,,,,,,,,,,,,,,,,,,,,,,,
0,29,29,1,1,,5edd2e458f29cfa351de300d,62bbfb55d905a5fac415c7af,2022-06-29_02h13.24.731,Colour_Asymmetry_Pilot,2022.1.3,Win32,60.0528465,62bbe60bf3d75ef465d3e404,,,,,,,,,,,,,,,,,,,,,,,,,,,,,,,,,,,,,,,,,,,,,,,,,,,,,,,,,,,,,,,,,,,,,,,,,,,,,,,,,,,,,,,,,,,,,,,,,,,,,,,,,,,,,,,,,,,,,,,,,,,,,,,,,,,,,,,,,,,,,,,,,,,,,,,,,,,
0,30,30,44,1,,5edd2e458f29cfa351de300d,62bbfb55d905a5fac415c7af,2022-06-29_02h13.24.731,Colour_Asymmetry_Pilot,2022.1.3,Win32,60.0528465,62bbe60bf3d75ef465d3e404,,,,,,,,,,,,,,,,,,,,,,,,,,,,,,,,,,,,,,,,,,,,,,,,,,,,,,,,,,,,,,,,,,,,,,,,,,,,,,,,,,,,,,,,,,,,,,,,,,,,,,,,,,,,,,,,,,,,,,,,,,,,,,,,,,,,,,,,,,,,,,,,,,,,,,,,,,,
0,31,31,68,1,,5edd2e458f29cfa351de300d,62bbfb55d905a5fac415c7af,2022-06-29_02h13.24.731,Colour_Asymmetry_Pilot,2022.1.3,Win32,60.0528465,62bbe60bf3d75ef465d3e404,,,,,,,,,,,,,,,,,,,,,,,,,,,,,,,,,,,,,,,,,,,,,,,,,,,,,,,,,,,,,,,,,,,,,,,,,,,,,,,,,,,,,,,,,,,,,,,,,,,,,,,,,,,,,,,,,,,,,,,,,,,,,,,,,,,,,,,,,,,,,,,,,,,,,,,,,,,
0,32,32,41,1,,5edd2e458f29cfa351de300d,62bbfb55d905a5fac415c7af,2022-06-29_02h13.24.731,Colour_Asymmetry_Pilot,2022.1.3,Win32,60.0528465,62bbe60bf3d75ef465d3e404,,,,,,,,,,,,,,,,,,,,,,,,,,,,,,,,,,,,,,,,,,,,,,,,,,,,,,,,,,,,,,,,,,,,,,,,,,,,,,,,,,,,,,,,,,,,,,,,,,,,,,,,,,,,,,,,,,,,,,,,,,,,,,,,,,,,,,,,,,,,,,,,,,,,,,,,,,,
0,33,33,28,1,,5edd2e458f29cfa351de300d,62bbfb55d905a5fac415c7af,2022-06-29_02h13.24.731,Colour_Asymmetry_Pilot,2022.1.3,Win32,60.0528465,62bbe60bf3d75ef465d3e404,,,,,,,,,,,,,,,,,,,,,,,,,,,,,,,,,,,,,,,,,,,,,,,,,,,,,,,,,,,,,,,,,,,,,,,,,,,,,,,,,,,,,,,,,,,,,,,,,,,,,,,,,,,,,,,,,,,,,,,,,,,,,,,,,,,,,,,,,,,,,,,,,,,,,,,,,,,
0,34,34,73,1,,5edd2e458f29cfa351de300d,62bbfb55d905a5fac415c7af,2022-06-29_02h13.24.731,Colour_Asymmetry_Pilot,2022.1.3,Win32,60.0528465,62bbe60bf3d75ef465d3e404,,,,,,,,,,,,,,,,,,,,,,,,,,,,,,,,,,,,,,,,,,,,,,,,,,,,,,,,,,,,,,,,,,,,,,,,,,,,,,,,,,,,,,,,,,,,,,,,,,,,,,,,,,,,,,,,,,,,,,,,,,,,,,,,,,,,,,,,,,,,,,,,,,,,,,,,,,,
0,35,35,64,1,,5edd2e458f29cfa351de300d,62bbfb55d905a5fac415c7af,2022-06-29_02h13.24.731,Colour_Asymmetry_Pilot,2022.1.3,Win32,60.0528465,62bbe60bf3d75ef465d3e404,,,,,,,,,,,,,,,,,,,,,,,,,,,,,,,,,,,,,,,,,,,,,,,,,,,,,,,,,,,,,,,,,,,,,,,,,,,,,,,,,,,,,,,,,,,,,,,,,,,,,,,,,,,,,,,,,,,,,,,,,,,,,,,,,,,,,,,,,,,,,,,,,,,,,,,,,,,
0,36,36,33,1,,5edd2e458f29cfa351de300d,62bbfb55d905a5fac415c7af,2022-06-29_02h13.24.731,Colour_Asymmetry_Pilot,2022.1.3,Win32,60.0528465,62bbe60bf3d75ef465d3e404,,,,,,,,,,,,,,,,,,,,,,,,,,,,,,,,,,,,,,,,,,,,,,,,,,,,,,,,,,,,,,,,,,,,,,,,,,,,,,,,,,,,,,,,,,,,,,,,,,,,,,,,,,,,,,,,,,,,,,,,,,,,,,,,,,,,,,,,,,,,,,,,,,,,,,,,,,,
0,37,37,51,1,,5edd2e458f29cfa351de300d,62bbfb55d905a5fac415c7af,2022-06-29_02h13.24.731,Colour_Asymmetry_Pilot,2022.1.3,Win32,60.0528465,62bbe60bf3d75ef465d3e404,,,,,,,,,,,,,,,,,,,,,,,,,,,,,,,,,,,,,,,,,,,,,,,,,,,,,,,,,,,,,,,,,,,,,,,,,,,,,,,,,,,,,,,,,,,,,,,,,,,,,,,,,,,,,,,,,,,,,,,,,,,,,,,,,,,,,,,,,,,,,,,,,,,,,,,,,,,
0,38,38,74,1,,5edd2e458f29cfa351de300d,62bbfb55d905a5fac415c7af,2022-06-29_02h13.24.731,Colour_Asymmetry_Pilot,2022.1.3,Win32,60.0528465,62bbe60bf3d75ef465d3e404,,,,,,,,,,,,,,,,,,,,,,,,,,,,,,,,,,,,,,,,,,,,,,,,,,,,,,,,,,,,,,,,,,,,,,,,,,,,,,,,,,,,,,,,,,,,,,,,,,,,,,,,,,,,,,,,,,,,,,,,,,,,,,,,,,,,,,,,,,,,,,,,,,,,,,,,,,,
0,39,39,61,1,,5edd2e458f29cfa351de300d,62bbfb55d905a5fac415c7af,2022-06-29_02h13.24.731,Colour_Asymmetry_Pilot,2022.1.3,Win32,60.0528465,62bbe60bf3d75ef465d3e404,,,,,,,,,,,,,,,,,,,,,,,,,,,,,,,,,,,,,,,,,,,,,,,,,,,,,,,,,,,,,,,,,,,,,,,,,,,,,,,,,,,,,,,,,,,,,,,,,,,,,,,,,,,,,,,,,,,,,,,,,,,,,,,,,,,,,,,,,,,,,,,,,,,,,,,,,,,
0,40,40,32,1,,5edd2e458f29cfa351de300d,62bbfb55d905a5fac415c7af,2022-06-29_02h13.24.731,Colour_Asymmetry_Pilot,2022.1.3,Win32,60.0528465,62bbe60bf3d75ef465d3e404,,,,,,,,,,,,,,,,,,,,,,,,,,,,,,,,,,,,,,,,,,,,,,,,,,,,,,,,,,,,,,,,,,,,,,,,,,,,,,,,,,,,,,,,,,,,,,,,,,,,,,,,,,,,,,,,,,,,,,,,,,,,,,,,,,,,,,,,,,,,,,,,,,,,,,,,,,,
0,41,41,10,1,,5edd2e458f29cfa351de300d,62bbfb55d905a5fac415c7af,2022-06-29_02h13.24.731,Colour_Asymmetry_Pilot,2022.1.3,Win32,60.0528465,62bbe60bf3d75ef465d3e404,,,,,,,,,,,,,,,,,,,,,,,,,,,,,,,,,,,,,,,,,,,,,,,,,,,,,,,,,,,,,,,,,,,,,,,,,,,,,,,,,,,,,,,,,,,,,,,,,,,,,,,,,,,,,,,,,,,,,,,,,,,,,,,,,,,,,,,,,,,,,,,,,,,,,,,,,,,
0,42,42,2,1,,5edd2e458f29cfa351de300d,62bbfb55d905a5fac415c7af,2022-06-29_02h13.24.731,Colour_Asymmetry_Pilot,2022.1.3,Win32,60.0528465,62bbe60bf3d75ef465d3e404,,,,,,,,,,,,,,,,,,,,,,,,,,,,,,,,,,,,,,,,,,,,,,,,,,,,,,,,,,,,,,,,,,,,,,,,,,,,,,,,,,,,,,,,,,,,,,,,,,,,,,,,,,,,,,,,,,,,,,,,,,,,,,,,,,,,,,,,,,,,,,,,,,,,,,,,,,,
0,43,43,14,1,,5edd2e458f29cfa351de300d,62bbfb55d905a5fac415c7af,2022-06-29_02h13.24.731,Colour_Asymmetry_Pilot,2022.1.3,Win32,60.0528465,62bbe60bf3d75ef465d3e404,,,,,,,,,,,,,,,,,,,,,,,,,,,,,,,,,,,,,,,,,,,,,,,,,,,,,,,,,,,,,,,,,,,,,,,,,,,,,,,,,,,,,,,,,,,,,,,,,,,,,,,,,,,,,,,,,,,,,,,,,,,,,,,,,,,,,,,,,,,,,,,,,,,,,,,,,,,
0,44,44,35,1,,5edd2e458f29cfa351de300d,62bbfb55d905a5fac415c7af,2022-06-29_02h13.24.731,Colour_Asymmetry_Pilot,2022.1.3,Win32,60.0528465,62bbe60bf3d75ef465d3e404,,,,,,,,,,,,,,,,,,,,,,,,,,,,,,,,,,,,,,,,,,,,,,,,,,,,,,,,,,,,,,,,,,,,,,,,,,,,,,,,,,,,,,,,,,,,,,,,,,,,,,,,,,,,,,,,,,,,,,,,,,,,,,,,,,,,,,,,,,,,,,,,,,,,,,,,,,,
0,45,45,60,1,,5edd2e458f29cfa351de300d,62bbfb55d905a5fac415c7af,2022-06-29_02h13.24.731,Colour_Asymmetry_Pilot,2022.1.3,Win32,60.0528465,62bbe60bf3d75ef465d3e404,,,,,,,,,,,,,,,,,,,,,,,,,,,,,,,,,,,,,,,,,,,,,,,,,,,,,,,,,,,,,,,,,,,,,,,,,,,,,,,,,,,,,,,,,,,,,,,,,,,,,,,,,,,,,,,,,,,,,,,,,,,,,,,,,,,,,,,,,,,,,,,,,,,,,,,,,,,
0,46,46,9,1,,5edd2e458f29cfa351de300d,62bbfb55d905a5fac415c7af,2022-06-29_02h13.24.731,Colour_Asymmetry_Pilot,2022.1.3,Win32,60.0528465,62bbe60bf3d75ef465d3e404,,,,,,,,,,,,,,,,,,,,,,,,,,,,,,,,,,,,,,,,,,,,,,,,,,,,,,,,,,,,,,,,,,,,,,,,,,,,,,,,,,,,,,,,,,,,,,,,,,,,,,,,,,,,,,,,,,,,,,,,,,,,,,,,,,,,,,,,,,,,,,,,,,,,,,,,,,,
0,47,47,11,1,,5edd2e458f29cfa351de300d,62bbfb55d905a5fac415c7af,2022-06-29_02h13.24.731,Colour_Asymmetry_Pilot,2022.1.3,Win32,60.0528465,62bbe60bf3d75ef465d3e404,,,,,,,,,,,,,,,,,,,,,,,,,,,,,,,,,,,,,,,,,,,,,,,,,,,,,,,,,,,,,,,,,,,,,,,,,,,,,,,,,,,,,,,,,,,,,,,,,,,,,,,,,,,,,,,,,,,,,,,,,,,,,,,,,,,,,,,,,,,,,,,,,,,,,,,,,,,
0,48,48,31,1,,5edd2e458f29cfa351de300d,62bbfb55d905a5fac415c7af,2022-06-29_02h13.24.731,Colour_Asymmetry_Pilot,2022.1.3,Win32,60.0528465,62bbe60bf3d75ef465d3e404,,,,,,,,,,,,,,,,,,,,,,,,,,,,,,,,,,,,,,,,,,,,,,,,,,,,,,,,,,,,,,,,,,,,,,,,,,,,,,,,,,,,,,,,,,,,,,,,,,,,,,,,,,,,,,,,,,,,,,,,,,,,,,,,,,,,,,,,,,,,,,,,,,,,,,,,,,,
0,49,49,57,1,,5edd2e458f29cfa351de300d,62bbfb55d905a5fac415c7af,2022-06-29_02h13.24.731,Colour_Asymmetry_Pilot,2022.1.3,Win32,60.0528465,62bbe60bf3d75ef465d3e404,,,,,,,,,,,,,,,,,,,,,,,,,,,,,,,,,,,,,,,,,,,,,,,,,,,,,,,,,,,,,,,,,,,,,,,,,,,,,,,,,,,,,,,,,,,,,,,,,,,,,,,,,,,,,,,,,,,,,,,,,,,,,,,,,,,,,,,,,,,,,,,,,,,,,,,,,,,
0,50,50,13,1,,5edd2e458f29cfa351de300d,62bbfb55d905a5fac415c7af,2022-06-29_02h13.24.731,Colour_Asymmetry_Pilot,2022.1.3,Win32,60.0528465,62bbe60bf3d75ef465d3e404,,,,,,,,,,,,,,,,,,,,,,,,,,,,,,,,,,,,,,,,,,,,,,,,,,,,,,,,,,,,,,,,,,,,,,,,,,,,,,,,,,,,,,,,,,,,,,,,,,,,,,,,,,,,,,,,,,,,,,,,,,,,,,,,,,,,,,,,,,,,,,,,,,,,,,,,,,,
0,51,51,92,1,,5edd2e458f29cfa351de300d,62bbfb55d905a5fac415c7af,2022-06-29_02h13.24.731,Colour_Asymmetry_Pilot,2022.1.3,Win32,60.0528465,62bbe60bf3d75ef465d3e404,,,,,,,,,,,,,,,,,,,,,,,,,,,,,,,,,,,,,,,,,,,,,,,,,,,,,,,,,,,,,,,,,,,,,,,,,,,,,,,,,,,,,,,,,,,,,,,,,,,,,,,,,,,,,,,,,,,,,,,,,,,,,,,,,,,,,,,,,,,,,,,,,,,,,,,,,,,
0,52,52,62,1,,5edd2e458f29cfa351de300d,62bbfb55d905a5fac415c7af,2022-06-29_02h13.24.731,Colour_Asymmetry_Pilot,2022.1.3,Win32,60.0528465,62bbe60bf3d75ef465d3e404,,,,,,,,,,,,,,,,,,,,,,,,,,,,,,,,,,,,,,,,,,,,,,,,,,,,,,,,,,,,,,,,,,,,,,,,,,,,,,,,,,,,,,,,,,,,,,,,,,,,,,,,,,,,,,,,,,,,,,,,,,,,,,,,,,,,,,,,,,,,,,,,,,,,,,,,,,,
0,53,53,26,1,,5edd2e458f29cfa351de300d,62bbfb55d905a5fac415c7af,2022-06-29_02h13.24.731,Colour_Asymmetry_Pilot,2022.1.3,Win32,60.0528465,62bbe60bf3d75ef465d3e404,,,,,,,,,,,,,,,,,,,,,,,,,,,,,,,,,,,,,,,,,,,,,,,,,,,,,,,,,,,,,,,,,,,,,,,,,,,,,,,,,,,,,,,,,,,,,,,,,,,,,,,,,,,,,,,,,,,,,,,,,,,,,,,,,,,,,,,,,,,,,,,,,,,,,,,,,,,
0,54,54,39,1,,5edd2e458f29cfa351de300d,62bbfb55d905a5fac415c7af,2022-06-29_02h13.24.731,Colour_Asymmetry_Pilot,2022.1.3,Win32,60.0528465,62bbe60bf3d75ef465d3e404,,,,,,,,,,,,,,,,,,,,,,,,,,,,,,,,,,,,,,,,,,,,,,,,,,,,,,,,,,,,,,,,,,,,,,,,,,,,,,,,,,,,,,,,,,,,,,,,,,,,,,,,,,,,,,,,,,,,,,,,,,,,,,,,,,,,,,,,,,,,,,,,,,,,,,,,,,,
0,55,55,82,1,,5edd2e458f29cfa351de300d,62bbfb55d905a5fac415c7af,2022-06-29_02h13.24.731,Colour_Asymmetry_Pilot,2022.1.3,Win32,60.0528465,62bbe60bf3d75ef465d3e404,,,,,,,,,,,,,,,,,,,,,,,,,,,,,,,,,,,,,,,,,,,,,,,,,,,,,,,,,,,,,,,,,,,,,,,,,,,,,,,,,,,,,,,,,,,,,,,,,,,,,,,,,,,,,,,,,,,,,,,,,,,,,,,,,,,,,,,,,,,,,,,,,,,,,,,,,,,
0,56,56,0,1,,5edd2e458f29cfa351de300d,62bbfb55d905a5fac415c7af,2022-06-29_02h13.24.731,Colour_Asymmetry_Pilot,2022.1.3,Win32,60.0528465,62bbe60bf3d75ef465d3e404,,,,,,,,,,,,,,,,,,,,,,,,,,,,,,,,,,,,,,,,,,,,,,,,,,,,,,,,,,,,,,,,,,,,,,,,,,,,,,,,,,,,,,,,,,,,,,,,,,,,,,,,,,,,,,,,,,,,,,,,,,,,,,,,,,,,,,,,,,,,,,,,,,,,,,,,,,,
0,57,57,7,1,,5edd2e458f29cfa351de300d,62bbfb55d905a5fac415c7af,2022-06-29_02h13.24.731,Colour_Asymmetry_Pilot,2022.1.3,Win32,60.0528465,62bbe60bf3d75ef465d3e404,,,,,,,,,,,,,,,,,,,,,,,,,,,,,,,,,,,,,,,,,,,,,,,,,,,,,,,,,,,,,,,,,,,,,,,,,,,,,,,,,,,,,,,,,,,,,,,,,,,,,,,,,,,,,,,,,,,,,,,,,,,,,,,,,,,,,,,,,,,,,,,,,,,,,,,,,,,
0,58,58,78,1,,5edd2e458f29cfa351de300d,62bbfb55d905a5fac415c7af,2022-06-29_02h13.24.731,Colour_Asymmetry_Pilot,2022.1.3,Win32,60.0528465,62bbe60bf3d75ef465d3e404,,,,,,,,,,,,,,,,,,,,,,,,,,,,,,,,,,,,,,,,,,,,,,,,,,,,,,,,,,,,,,,,,,,,,,,,,,,,,,,,,,,,,,,,,,,,,,,,,,,,,,,,,,,,,,,,,,,,,,,,,,,,,,,,,,,,,,,,,,,,,,,,,,,,,,,,,,,
0,59,59,16,1,,5edd2e458f29cfa351de300d,62bbfb55d905a5fac415c7af,2022-06-29_02h13.24.731,Colour_Asymmetry_Pilot,2022.1.3,Win32,60.0528465,62bbe60bf3d75ef465d3e404,,,,,,,,,,,,,,,,,,,,,,,,,,,,,,,,,,,,,,,,,,,,,,,,,,,,,,,,,,,,,,,,,,,,,,,,,,,,,,,,,,,,,,,,,,,,,,,,,,,,,,,,,,,,,,,,,,,,,,,,,,,,,,,,,,,,,,,,,,,,,,,,,,,,,,,,,,,
0,60,60,65,1,,5edd2e458f29cfa351de300d,62bbfb55d905a5fac415c7af,2022-06-29_02h13.24.731,Colour_Asymmetry_Pilot,2022.1.3,Win32,60.0528465,62bbe60bf3d75ef465d3e404,,,,,,,,,,,,,,,,,,,,,,,,,,,,,,,,,,,,,,,,,,,,,,,,,,,,,,,,,,,,,,,,,,,,,,,,,,,,,,,,,,,,,,,,,,,,,,,,,,,,,,,,,,,,,,,,,,,,,,,,,,,,,,,,,,,,,,,,,,,,,,,,,,,,,,,,,,,
0,61,61,25,1,,5edd2e458f29cfa351de300d,62bbfb55d905a5fac415c7af,2022-06-29_02h13.24.731,Colour_Asymmetry_Pilot,2022.1.3,Win32,60.0528465,62bbe60bf3d75ef465d3e404,,,,,,,,,,,,,,,,,,,,,,,,,,,,,,,,,,,,,,,,,,,,,,,,,,,,,,,,,,,,,,,,,,,,,,,,,,,,,,,,,,,,,,,,,,,,,,,,,,,,,,,,,,,,,,,,,,,,,,,,,,,,,,,,,,,,,,,,,,,,,,,,,,,,,,,,,,,
0,62,62,80,1,,5edd2e458f29cfa351de300d,62bbfb55d905a5fac415c7af,2022-06-29_02h13.24.731,Colour_Asymmetry_Pilot,2022.1.3,Win32,60.0528465,62bbe60bf3d75ef465d3e404,,,,,,,,,,,,,,,,,,,,,,,,,,,,,,,,,,,,,,,,,,,,,,,,,,,,,,,,,,,,,,,,,,,,,,,,,,,,,,,,,,,,,,,,,,,,,,,,,,,,,,,,,,,,,,,,,,,,,,,,,,,,,,,,,,,,,,,,,,,,,,,,,,,,,,,,,,,
0,63,63,50,1,,5edd2e458f29cfa351de300d,62bbfb55d905a5fac415c7af,2022-06-29_02h13.24.731,Colour_Asymmetry_Pilot,2022.1.3,Win32,60.0528465,62bbe60bf3d75ef465d3e404,,,,,,,,,,,,,,,,,,,,,,,,,,,,,,,,,,,,,,,,,,,,,,,,,,,,,,,,,,,,,,,,,,,,,,,,,,,,,,,,,,,,,,,,,,,,,,,,,,,,,,,,,,,,,,,,,,,,,,,,,,,,,,,,,,,,,,,,,,,,,,,,,,,,,,,,,,,
0,64,64,30,1,,5edd2e458f29cfa351de300d,62bbfb55d905a5fac415c7af,2022-06-29_02h13.24.731,Colour_Asymmetry_Pilot,2022.1.3,Win32,60.0528465,62bbe60bf3d75ef465d3e404,,,,,,,,,,,,,,,,,,,,,,,,,,,,,,,,,,,,,,,,,,,,,,,,,,,,,,,,,,,,,,,,,,,,,,,,,,,,,,,,,,,,,,,,,,,,,,,,,,,,,,,,,,,,,,,,,,,,,,,,,,,,,,,,,,,,,,,,,,,,,,,,,,,,,,,,,,,
0,65,65,90,1,,5edd2e458f29cfa351de300d,62bbfb55d905a5fac415c7af,2022-06-29_02h13.24.731,Colour_Asymmetry_Pilot,2022.1.3,Win32,60.0528465,62bbe60bf3d75ef465d3e404,,,,,,,,,,,,,,,,,,,,,,,,,,,,,,,,,,,,,,,,,,,,,,,,,,,,,,,,,,,,,,,,,,,,,,,,,,,,,,,,,,,,,,,,,,,,,,,,,,,,,,,,,,,,,,,,,,,,,,,,,,,,,,,,,,,,,,,,,,,,,,,,,,,,,,,,,,,
0,66,66,91,1,,5edd2e458f29cfa351de300d,62bbfb55d905a5fac415c7af,2022-06-29_02h13.24.731,Colour_Asymmetry_Pilot,2022.1.3,Win32,60.0528465,62bbe60bf3d75ef465d3e404,,,,,,,,,,,,,,,,,,,,,,,,,,,,,,,,,,,,,,,,,,,,,,,,,,,,,,,,,,,,,,,,,,,,,,,,,,,,,,,,,,,,,,,,,,,,,,,,,,,,,,,,,,,,,,,,,,,,,,,,,,,,,,,,,,,,,,,,,,,,,,,,,,,,,,,,,,,
0,67,67,48,1,,5edd2e458f29cfa351de300d,62bbfb55d905a5fac415c7af,2022-06-29_02h13.24.731,Colour_Asymmetry_Pilot,2022.1.3,Win32,60.0528465,62bbe60bf3d75ef465d3e404,,,,,,,,,,,,,,,,,,,,,,,,,,,,,,,,,,,,,,,,,,,,,,,,,,,,,,,,,,,,,,,,,,,,,,,,,,,,,,,,,,,,,,,,,,,,,,,,,,,,,,,,,,,,,,,,,,,,,,,,,,,,,,,,,,,,,,,,,,,,,,,,,,,,,,,,,,,
0,68,68,8,1,,5edd2e458f29cfa351de300d,62bbfb55d905a5fac415c7af,2022-06-29_02h13.24.731,Colour_Asymmetry_Pilot,2022.1.3,Win32,60.0528465,62bbe60bf3d75ef465d3e404,,,,,,,,,,,,,,,,,,,,,,,,,,,,,,,,,,,,,,,,,,,,,,,,,,,,,,,,,,,,,,,,,,,,,,,,,,,,,,,,,,,,,,,,,,,,,,,,,,,,,,,,,,,,,,,,,,,,,,,,,,,,,,,,,,,,,,,,,,,,,,,,,,,,,,,,,,,
0,69,69,40,1,,5edd2e458f29cfa351de300d,62bbfb55d905a5fac415c7af,2022-06-29_02h13.24.731,Colour_Asymmetry_Pilot,2022.1.3,Win32,60.0528465,62bbe60bf3d75ef465d3e404,,,,,,,,,,,,,,,,,,,,,,,,,,,,,,,,,,,,,,,,,,,,,,,,,,,,,,,,,,,,,,,,,,,,,,,,,,,,,,,,,,,,,,,,,,,,,,,,,,,,,,,,,,,,,,,,,,,,,,,,,,,,,,,,,,,,,,,,,,,,,,,,,,,,,,,,,,,
0,70,70,17,1,,5edd2e458f29cfa351de300d,62bbfb55d905a5fac415c7af,2022-06-29_02h13.24.731,Colour_Asymmetry_Pilot,2022.1.3,Win32,60.0528465,62bbe60bf3d75ef465d3e404,,,,,,,,,,,,,,,,,,,,,,,,,,,,,,,,,,,,,,,,,,,,,,,,,,,,,,,,,,,,,,,,,,,,,,,,,,,,,,,,,,,,,,,,,,,,,,,,,,,,,,,,,,,,,,,,,,,,,,,,,,,,,,,,,,,,,,,,,,,,,,,,,,,,,,,,,,,
0,71,71,37,1,,5edd2e458f29cfa351de300d,62bbfb55d905a5fac415c7af,2022-06-29_02h13.24.731,Colour_Asymmetry_Pilot,2022.1.3,Win32,60.0528465,62bbe60bf3d75ef465d3e404,,,,,,,,,,,,,,,,,,,,,,,,,,,,,,,,,,,,,,,,,,,,,,,,,,,,,,,,,,,,,,,,,,,,,,,,,,,,,,,,,,,,,,,,,,,,,,,,,,,,,,,,,,,,,,,,,,,,,,,,,,,,,,,,,,,,,,,,,,,,,,,,,,,,,,,,,,,
0,72,72,52,1,,5edd2e458f29cfa351de300d,62bbfb55d905a5fac415c7af,2022-06-29_02h13.24.731,Colour_Asymmetry_Pilot,2022.1.3,Win32,60.0528465,62bbe60bf3d75ef465d3e404,,,,,,,,,,,,,,,,,,,,,,,,,,,,,,,,,,,,,,,,,,,,,,,,,,,,,,,,,,,,,,,,,,,,,,,,,,,,,,,,,,,,,,,,,,,,,,,,,,,,,,,,,,,,,,,,,,,,,,,,,,,,,,,,,,,,,,,,,,,,,,,,,,,,,,,,,,,
0,73,73,55,1,,5edd2e458f29cfa351de300d,62bbfb55d905a5fac415c7af,2022-06-29_02h13.24.731,Colour_Asymmetry_Pilot,2022.1.3,Win32,60.0528465,62bbe60bf3d75ef465d3e404,,,,,,,,,,,,,,,,,,,,,,,,,,,,,,,,,,,,,,,,,,,,,,,,,,,,,,,,,,,,,,,,,,,,,,,,,,,,,,,,,,,,,,,,,,,,,,,,,,,,,,,,,,,,,,,,,,,,,,,,,,,,,,,,,,,,,,,,,,,,,,,,,,,,,,,,,,,
0,74,74,27,1,,5edd2e458f29cfa351de300d,62bbfb55d905a5fac415c7af,2022-06-29_02h13.24.731,Colour_Asymmetry_Pilot,2022.1.3,Win32,60.0528465,62bbe60bf3d75ef465d3e404,,,,,,,,,,,,,,,,,,,,,,,,,,,,,,,,,,,,,,,,,,,,,,,,,,,,,,,,,,,,,,,,,,,,,,,,,,,,,,,,,,,,,,,,,,,,,,,,,,,,,,,,,,,,,,,,,,,,,,,,,,,,,,,,,,,,,,,,,,,,,,,,,,,,,,,,,,,
0,75,75,59,1,,5edd2e458f29cfa351de300d,62bbfb55d905a5fac415c7af,2022-06-29_02h13.24.731,Colour_Asymmetry_Pilot,2022.1.3,Win32,60.0528465,62bbe60bf3d75ef465d3e404,,,,,,,,,,,,,,,,,,,,,,,,,,,,,,,,,,,,,,,,,,,,,,,,,,,,,,,,,,,,,,,,,,,,,,,,,,,,,,,,,,,,,,,,,,,,,,,,,,,,,,,,,,,,,,,,,,,,,,,,,,,,,,,,,,,,,,,,,,,,,,,,,,,,,,,,,,,
0,76,76,38,1,,5edd2e458f29cfa351de300d,62bbfb55d905a5fac415c7af,2022-06-29_02h13.24.731,Colour_Asymmetry_Pilot,2022.1.3,Win32,60.0528465,62bbe60bf3d75ef465d3e404,,,,,,,,,,,,,,,,,,,,,,,,,,,,,,,,,,,,,,,,,,,,,,,,,,,,,,,,,,,,,,,,,,,,,,,,,,,,,,,,,,,,,,,,,,,,,,,,,,,,,,,,,,,,,,,,,,,,,,,,,,,,,,,,,,,,,,,,,,,,,,,,,,,,,,,,,,,
0,77,77,49,1,,5edd2e458f29cfa351de300d,62bbfb55d905a5fac415c7af,2022-06-29_02h13.24.731,Colour_Asymmetry_Pilot,2022.1.3,Win32,60.0528465,62bbe60bf3d75ef465d3e404,,,,,,,,,,,,,,,,,,,,,,,,,,,,,,,,,,,,,,,,,,,,,,,,,,,,,,,,,,,,,,,,,,,,,,,,,,,,,,,,,,,,,,,,,,,,,,,,,,,,,,,,,,,,,,,,,,,,,,,,,,,,,,,,,,,,,,,,,,,,,,,,,,,,,,,,,,,
0,78,78,89,1,,5edd2e458f29cfa351de300d,62bbfb55d905a5fac415c7af,2022-06-29_02h13.24.731,Colour_Asymmetry_Pilot,2022.1.3,Win32,60.0528465,62bbe60bf3d75ef465d3e404,,,,,,,,,,,,,,,,,,,,,,,,,,,,,,,,,,,,,,,,,,,,,,,,,,,,,,,,,,,,,,,,,,,,,,,,,,,,,,,,,,,,,,,,,,,,,,,,,,,,,,,,,,,,,,,,,,,,,,,,,,,,,,,,,,,,,,,,,,,,,,,,,,,,,,,,,,,
0,79,79,88,1,,5edd2e458f29cfa351de300d,62bbfb55d905a5fac415c7af,2022-06-29_02h13.24.731,Colour_Asymmetry_Pilot,2022.1.3,Win32,60.0528465,62bbe60bf3d75ef465d3e404,,,,,,,,,,,,,,,,,,,,,,,,,,,,,,,,,,,,,,,,,,,,,,,,,,,,,,,,,,,,,,,,,,,,,,,,,,,,,,,,,,,,,,,,,,,,,,,,,,,,,,,,,,,,,,,,,,,,,,,,,,,,,,,,,,,,,,,,,,,,,,,,,,,,,,,,,,,
0,80,80,67,1,,5edd2e458f29cfa351de300d,62bbfb55d905a5fac415c7af,2022-06-29_02h13.24.731,Colour_Asymmetry_Pilot,2022.1.3,Win32,60.0528465,62bbe60bf3d75ef465d3e404,,,,,,,,,,,,,,,,,,,,,,,,,,,,,,,,,,,,,,,,,,,,,,,,,,,,,,,,,,,,,,,,,,,,,,,,,,,,,,,,,,,,,,,,,,,,,,,,,,,,,,,,,,,,,,,,,,,,,,,,,,,,,,,,,,,,,,,,,,,,,,,,,,,,,,,,,,,
0,81,81,84,1,,5edd2e458f29cfa351de300d,62bbfb55d905a5fac415c7af,2022-06-29_02h13.24.731,Colour_Asymmetry_Pilot,2022.1.3,Win32,60.0528465,62bbe60bf3d75ef465d3e404,,,,,,,,,,,,,,,,,,,,,,,,,,,,,,,,,,,,,,,,,,,,,,,,,,,,,,,,,,,,,,,,,,,,,,,,,,,,,,,,,,,,,,,,,,,,,,,,,,,,,,,,,,,,,,,,,,,,,,,,,,,,,,,,,,,,,,,,,,,,,,,,,,,,,,,,,,,
0,82,82,56,1,,5edd2e458f29cfa351de300d,62bbfb55d905a5fac415c7af,2022-06-29_02h13.24.731,Colour_Asymmetry_Pilot,2022.1.3,Win32,60.0528465,62bbe60bf3d75ef465d3e404,,,,,,,,,,,,,,,,,,,,,,,,,,,,,,,,,,,,,,,,,,,,,,,,,,,,,,,,,,,,,,,,,,,,,,,,,,,,,,,,,,,,,,,,,,,,,,,,,,,,,,,,,,,,,,,,,,,,,,,,,,,,,,,,,,,,,,,,,,,,,,,,,,,,,,,,,,,
0,83,83,4,1,,5edd2e458f29cfa351de300d,62bbfb55d905a5fac415c7af,2022-06-29_02h13.24.731,Colour_Asymmetry_Pilot,2022.1.3,Win32,60.0528465,62bbe60bf3d75ef465d3e404,,,,,,,,,,,,,,,,,,,,,,,,,,,,,,,,,,,,,,,,,,,,,,,,,,,,,,,,,,,,,,,,,,,,,,,,,,,,,,,,,,,,,,,,,,,,,,,,,,,,,,,,,,,,,,,,,,,,,,,,,,,,,,,,,,,,,,,,,,,,,,,,,,,,,,,,,,,
0,84,84,81,1,,5edd2e458f29cfa351de300d,62bbfb55d905a5fac415c7af,2022-06-29_02h13.24.731,Colour_Asymmetry_Pilot,2022.1.3,Win32,60.0528465,62bbe60bf3d75ef465d3e404,,,,,,,,,,,,,,,,,,,,,,,,,,,,,,,,,,,,,,,,,,,,,,,,,,,,,,,,,,,,,,,,,,,,,,,,,,,,,,,,,,,,,,,,,,,,,,,,,,,,,,,,,,,,,,,,,,,,,,,,,,,,,,,,,,,,,,,,,,,,,,,,,,,,,,,,,,,
0,85,85,19,1,,5edd2e458f29cfa351de300d,62bbfb55d905a5fac415c7af,2022-06-29_02h13.24.731,Colour_Asymmetry_Pilot,2022.1.3,Win32,60.0528465,62bbe60bf3d75ef465d3e404,,,,,,,,,,,,,,,,,,,,,,,,,,,,,,,,,,,,,,,,,,,,,,,,,,,,,,,,,,,,,,,,,,,,,,,,,,,,,,,,,,,,,,,,,,,,,,,,,,,,,,,,,,,,,,,,,,,,,,,,,,,,,,,,,,,,,,,,,,,,,,,,,,,,,,,,,,,
0,86,86,83,1,,5edd2e458f29cfa351de300d,62bbfb55d905a5fac415c7af,2022-06-29_02h13.24.731,Colour_Asymmetry_Pilot,2022.1.3,Win32,60.0528465,62bbe60bf3d75ef465d3e404,,,,,,,,,,,,,,,,,,,,,,,,,,,,,,,,,,,,,,,,,,,,,,,,,,,,,,,,,,,,,,,,,,,,,,,,,,,,,,,,,,,,,,,,,,,,,,,,,,,,,,,,,,,,,,,,,,,,,,,,,,,,,,,,,,,,,,,,,,,,,,,,,,,,,,,,,,,
0,87,87,24,1,,5edd2e458f29cfa351de300d,62bbfb55d905a5fac415c7af,2022-06-29_02h13.24.731,Colour_Asymmetry_Pilot,2022.1.3,Win32,60.0528465,62bbe60bf3d75ef465d3e404,,,,,,,,,,,,,,,,,,,,,,,,,,,,,,,,,,,,,,,,,,,,,,,,,,,,,,,,,,,,,,,,,,,,,,,,,,,,,,,,,,,,,,,,,,,,,,,,,,,,,,,,,,,,,,,,,,,,,,,,,,,,,,,,,,,,,,,,,,,,,,,,,,,,,,,,,,,
0,88,88,53,1,,5edd2e458f29cfa351de300d,62bbfb55d905a5fac415c7af,2022-06-29_02h13.24.731,Colour_Asymmetry_Pilot,2022.1.3,Win32,60.0528465,62bbe60bf3d75ef465d3e404,,,,,,,,,,,,,,,,,,,,,,,,,,,,,,,,,,,,,,,,,,,,,,,,,,,,,,,,,,,,,,,,,,,,,,,,,,,,,,,,,,,,,,,,,,,,,,,,,,,,,,,,,,,,,,,,,,,,,,,,,,,,,,,,,,,,,,,,,,,,,,,,,,,,,,,,,,,
0,89,89,6,1,,5edd2e458f29cfa351de300d,62bbfb55d905a5fac415c7af,2022-06-29_02h13.24.731,Colour_Asymmetry_Pilot,2022.1.3,Win32,60.0528465,62bbe60bf3d75ef465d3e404,,,,,,,,,,,,,,,,,,,,,,,,,,,,,,,,,,,,,,,,,,,,,,,,,,,,,,,,,,,,,,,,,,,,,,,,,,,,,,,,,,,,,,,,,,,,,,,,,,,,,,,,,,,,,,,,,,,,,,,,,,,,,,,,,,,,,,,,,,,,,,,,,,,,,,,,,,,
0,90,90,86,1,,5edd2e458f29cfa351de300d,62bbfb55d905a5fac415c7af,2022-06-29_02h13.24.731,Colour_Asymmetry_Pilot,2022.1.3,Win32,60.0528465,62bbe60bf3d75ef465d3e404,,,,,,,,,,,,,,,,,,,,,,,,,,,,,,,,,,,,,,,,,,,,,,,,,,,,,,,,,,,,,,,,,,,,,,,,,,,,,,,,,,,,,,,,,,,,,,,,,,,,,,,,,,,,,,,,,,,,,,,,,,,,,,,,,,,,,,,,,,,,,,,,,,,,,,,,,,,
0,91,91,20,1,,5edd2e458f29cfa351de300d,62bbfb55d905a5fac415c7af,2022-06-29_02h13.24.731,Colour_Asymmetry_Pilot,2022.1.3,Win32,60.0528465,62bbe60bf3d75ef465d3e404,,,,,,,,,,,,,,,,,,,,,,,,,,,,,,,,,,,,,,,,,,,,,,,,,,,,,,,,,,,,,,,,,,,,,,,,,,,,,,,,,,,,,,,,,,,,,,,,,,,,,,,,,,,,,,,,,,,,,,,,,,,,,,,,,,,,,,,,,,,,,,,,,,,,,,,,,,,
0,92,92,58,1,,5edd2e458f29cfa351de300d,62bbfb55d905a5fac415c7af,2022-06-29_02h13.24.731,Colour_Asymmetry_Pilot,2022.1.3,Win32,60.0528465,62bbe60bf3d75ef465d3e404,,,,,,,,,,,,,,,,,,,,,,,,,,,,,,,,,,,,,,,,,,,,,,,,,,,,,,,,,,,,,,,,,,,,,,,,,,,,,,,,,,,,,,,,,,,,,,,,,,,,,,,,,,,,,,,,,,,,,,,,,,,,,,,,,,,,,,,,,,,,,,,,,,,,,,,,,,,
,,,,,,5edd2e458f29cfa351de300d,62bbfb55d905a5fac415c7af,2022-06-29_02h13.24.731,Colour_Asymmetry_Pilot,2022.1.3,Win32,60.0528465,62bbe60bf3d75ef465d3e404,0,0,0,47,1,fourthree,,,,,,,,,,,,,,,,,,,,,,,,,,,,,,,,,,,,,,,,,,,,,,,,,,,,,,,,,,,,,,,,,,,,,,,,,,,,,,,,,,,,,,,,,,,,,,,,,,,,,,,,,,,,,,,,,,,,,,,,,,,,,,,,,,,,,,,,,,,,,,,,,,,,,
,,,,,,5edd2e458f29cfa351de300d,62bbfb55d905a5fac415c7af,2022-06-29_02h13.24.731,Colour_Asymmetry_Pilot,2022.1.3,Win32,60.0528465,62bbe60bf3d75ef465d3e404,0,1,1,157,1,threefour,,,,,,,,,,,,,,,,,,,,,,,,,,,,,,,,,,,,,,,,,,,,,,,,,,,,,,,,,,,,,,,,,,,,,,,,,,,,,,,,,,,,,,,,,,,,,,,,,,,,,,,,,,,,,,,,,,,,,,,,,,,,,,,,,,,,,,,,,,,,,,,,,,,,,
,,,,,,5edd2e458f29cfa351de300d,62bbfb55d905a5fac415c7af,2022-06-29_02h13.24.731,Colour_Asymmetry_Pilot,2022.1.3,Win32,60.0528465,62bbe60bf3d75ef465d3e404,0,2,2,39,1,fourthree,,,,,,,,,,,,,,,,,,,,,,,,,,,,,,,,,,,,,,,,,,,,,,,,,,,,,,,,,,,,,,,,,,,,,,,,,,,,,,,,,,,,,,,,,,,,,,,,,,,,,,,,,,,,,,,,,,,,,,,,,,,,,,,,,,,,,,,,,,,,,,,,,,,,,
,,,,,,5edd2e458f29cfa351de300d,62bbfb55d905a5fac415c7af,2022-06-29_02h13.24.731,Colour_Asymmetry_Pilot,2022.1.3,Win32,60.0528465,62bbe60bf3d75ef465d3e404,0,3,3,156,1,threeone,,,,,,,,,,,,,,,,,,,,,,,,,,,,,,,,,,,,,,,,,,,,,,,,,,,,,,,,,,,,,,,,,,,,,,,,,,,,,,,,,,,,,,,,,,,,,,,,,,,,,,,,,,,,,,,,,,,,,,,,,,,,,,,,,,,,,,,,,,,,,,,,,,,,,
,,,,,,5edd2e458f29cfa351de300d,62bbfb55d905a5fac415c7af,2022-06-29_02h13.24.731,Colour_Asymmetry_Pilot,2022.1.3,Win32,60.0528465,62bbe60bf3d75ef465d3e404,0,4,4,88,1,onetwo,,,,,,,,,,,,,,,,,,,,,,,,,,,,,,,,,,,,,,,,,,,,,,,,,,,,,,,,,,,,,,,,,,,,,,,,,,,,,,,,,,,,,,,,,,,,,,,,,,,,,,,,,,,,,,,,,,,,,,,,,,,,,,,,,,,,,,,,,,,,,,,,,,,,,
,,,,,,5edd2e458f29cfa351de300d,62bbfb55d905a5fac415c7af,2022-06-29_02h13.24.731,Colour_Asymmetry_Pilot,2022.1.3,Win32,60.0528465,62bbe60bf3d75ef465d3e404,0,5,5,28,1,threeone,,,,,,,,,,,,,,,,,,,,,,,,,,,,,,,,,,,,,,,,,,,,,,,,,,,,,,,,,,,,,,,,,,,,,,,,,,,,,,,,,,,,,,,,,,,,,,,,,,,,,,,,,,,,,,,,,,,,,,,,,,,,,,,,,,,,,,,,,,,,,,,,,,,,,
,,,,,,5edd2e458f29cfa351de300d,62bbfb55d905a5fac415c7af,2022-06-29_02h13.24.731,Colour_Asymmetry_Pilot,2022.1.3,Win32,60.0528465,62bbe60bf3d75ef465d3e404,0,6,6,18,1,twoone,,,,,,,,,,,,,,,,,,,,,,,,,,,,,,,,,,,,,,,,,,,,,,,,,,,,,,,,,,,,,,,,,,,,,,,,,,,,,,,,,,,,,,,,,,,,,,,,,,,,,,,,,,,,,,,,,,,,,,,,,,,,,,,,,,,,,,,,,,,,,,,,,,,,,
,,,,,,5edd2e458f29cfa351de300d,62bbfb55d905a5fac415c7af,2022-06-29_02h13.24.731,Colour_Asymmetry_Pilot,2022.1.3,Win32,60.0528465,62bbe60bf3d75ef465d3e404,0,7,7,44,1,threeone,,,,,,,,,,,,,,,,,,,,,,,,,,,,,,,,,,,,,,,,,,,,,,,,,,,,,,,,,,,,,,,,,,,,,,,,,,,,,,,,,,,,,,,,,,,,,,,,,,,,,,,,,,,,,,,,,,,,,,,,,,,,,,,,,,,,,,,,,,,,,,,,,,,,,
,,,,,,5edd2e458f29cfa351de300d,62bbfb55d905a5fac415c7af,2022-06-29_02h13.24.731,Colour_Asymmetry_Pilot,2022.1.3,Win32,60.0528465,62bbe60bf3d75ef465d3e404,0,8,8,71,1,fourthree,,,,,,,,,,,,,,,,,,,,,,,,,,,,,,,,,,,,,,,,,,,,,,,,,,,,,,,,,,,,,,,,,,,,,,,,,,,,,,,,,,,,,,,,,,,,,,,,,,,,,,,,,,,,,,,,,,,,,,,,,,,,,,,,,,,,,,,,,,,,,,,,,,,,,
,,,,,,5edd2e458f29cfa351de300d,62bbfb55d905a5fac415c7af,2022-06-29_02h13.24.731,Colour_Asymmetry_Pilot,2022.1.3,Win32,60.0528465,62bbe60bf3d75ef465d3e404,0,9,9,97,1,onethree,,,,,,,,,,,,,,,,,,,,,,,,,,,,,,,,,,,,,,,,,,,,,,,,,,,,,,,,,,,,,,,,,,,,,,,,,,,,,,,,,,,,,,,,,,,,,,,,,,,,,,,,,,,,,,,,,,,,,,,,,,,,,,,,,,,,,,,,,,,,,,,,,,,,,
,,,,,,5edd2e458f29cfa351de300d,62bbfb55d905a5fac415c7af,2022-06-29_02h13.24.731,Colour_Asymmetry_Pilot,2022.1.3,Win32,60.0528465,62bbe60bf3d75ef465d3e404,0,10,10,149,1,threefour,,,,,,,,,,,,,,,,,,,,,,,,,,,,,,,,,,,,,,,,,,,,,,,,,,,,,,,,,,,,,,,,,,,,,,,,,,,,,,,,,,,,,,,,,,,,,,,,,,,,,,,,,,,,,,,,,,,,,,,,,,,,,,,,,,,,,,,,,,,,,,,,,,,,,
,,,,,,5edd2e458f29cfa351de300d,62bbfb55d905a5fac415c7af,2022-06-29_02h13.24.731,Colour_Asymmetry_Pilot,2022.1.3,Win32,60.0528465,62bbe60bf3d75ef465d3e404,0,11,11,90,1,twoone,,,,,,,,,,,,,,,,,,,,,,,,,,,,,,,,,,,,,,,,,,,,,,,,,,,,,,,,,,,,,,,,,,,,,,,,,,,,,,,,,,,,,,,,,,,,,,,,,,,,,,,,,,,,,,,,,,,,,,,,,,,,,,,,,,,,,,,,,,,,,,,,,,,,,
,,,,,,5edd2e458f29cfa351de300d,62bbfb55d905a5fac415c7af,2022-06-29_02h13.24.731,Colour_Asymmetry_Pilot,2022.1.3,Win32,60.0528465,62bbe60bf3d75ef465d3e404,0,12,12,9,1,onethree,,,,,,,,,,,,,,,,,,,,,,,,,,,,,,,,,,,,,,,,,,,,,,,,,,,,,,,,,,,,,,,,,,,,,,,,,,,,,,,,,,,,,,,,,,,,,,,,,,,,,,,,,,,,,,,,,,,,,,,,,,,,,,,,,,,,,,,,,,,,,,,,,,,,,
,,,,,,5edd2e458f29cfa351de300d,62bbfb55d905a5fac415c7af,2022-06-29_02h13.24.731,Colour_Asymmetry_Pilot,2022.1.3,Win32,60.0528465,62bbe60bf3d75ef465d3e404,0,13,13,0,1,onetwo,,,,,,,,,,,,,,,,,,,,,,,,,,,,,,,,,,,,,,,,,,,,,,,,,,,,,,,,,,,,,,,,,,,,,,,,,,,,,,,,,,,,,,,,,,,,,,,,,,,,,,,,,,,,,,,,,,,,,,,,,,,,,,,,,,,,,,,,,,,,,,,,,,,,,
,,,,,,5edd2e458f29cfa351de300d,62bbfb55d905a5fac415c7af,2022-06-29_02h13.24.731,Colour_Asymmetry_Pilot,2022.1.3,Win32,60.0528465,62bbe60bf3d75ef465d3e404,0,14,14,32,1,onetwo,,,,,,,,,,,,,,,,,,,,,,,,,,,,,,,,,,,,,,,,,,,,,,,,,,,,,,,,,,,,,,,,,,,,,,,,,,,,,,,,,,,,,,,,,,,,,,,,,,,,,,,,,,,,,,,,,,,,,,,,,,,,,,,,,,,,,,,,,,,,,,,,,,,,,
,,,,,,5edd2e458f29cfa351de300d,62bbfb55d905a5fac415c7af,2022-06-29_02h13.24.731,Colour_Asymmetry_Pilot,2022.1.3,Win32,60.0528465,62bbe60bf3d75ef465d3e404,0,15,15,108,1,threeone,,,,,,,,,,,,,,,,,,,,,,,,,,,,,,,,,,,,,,,,,,,,,,,,,,,,,,,,,,,,,,,,,,,,,,,,,,,,,,,,,,,,,,,,,,,,,,,,,,,,,,,,,,,,,,,,,,,,,,,,,,,,,,,,,,,,,,,,,,,,,,,,,,,,,
,,,,,,5edd2e458f29cfa351de300d,62bbfb55d905a5fac415c7af,2022-06-29_02h13.24.731,Colour_Asymmetry_Pilot,2022.1.3,Win32,60.0528465,62bbe60bf3d75ef465d3e404,0,16,16,59,1,twofour,,,,,,,,,,,,,,,,,,,,,,,,,,,,,,,,,,,,,,,,,,,,,,,,,,,,,,,,,,,,,,,,,,,,,,,,,,,,,,,,,,,,,,,,,,,,,,,,,,,,,,,,,,,,,,,,,,,,,,,,,,,,,,,,,,,,,,,,,,,,,,,,,,,,,
,,,,,,5edd2e458f29cfa351de300d,62bbfb55d905a5fac415c7af,2022-06-29_02h13.24.731,Colour_Asymmetry_Pilot,2022.1.3,Win32,60.0528465,62bbe60bf3d75ef465d3e404,0,17,17,109,1,threefour,,,,,,,,,,,,,,,,,,,,,,,,,,,,,,,,,,,,,,,,,,,,,,,,,,,,,,,,,,,,,,,,,,,,,,,,,,,,,,,,,,,,,,,,,,,,,,,,,,,,,,,,,,,,,,,,,,,,,,,,,,,,,,,,,,,,,,,,,,,,,,,,,,,,,
,,,,,,5edd2e458f29cfa351de300d,62bbfb55d905a5fac415c7af,2022-06-29_02h13.24.731,Colour_Asymmetry_Pilot,2022.1.3,Win32,60.0528465,62bbe60bf3d75ef465d3e404,0,18,18,155,1,twofour,,,,,,,,,,,,,,,,,,,,,,,,,,,,,,,,,,,,,,,,,,,,,,,,,,,,,,,,,,,,,,,,,,,,,,,,,,,,,,,,,,,,,,,,,,,,,,,,,,,,,,,,,,,,,,,,,,,,,,,,,,,,,,,,,,,,,,,,,,,,,,,,,,,,,
,,,,,,5edd2e458f29cfa351de300d,62bbfb55d905a5fac415c7af,2022-06-29_02h13.24.731,Colour_Asymmetry_Pilot,2022.1.3,Win32,60.0528465,62bbe60bf3d75ef465d3e404,0,19,19,83,1,twofour,,,,,,,,,,,,,,,,,,,,,,,,,,,,,,,,,,,,,,,,,,,,,,,,,,,,,,,,,,,,,,,,,,,,,,,,,,,,,,,,,,,,,,,,,,,,,,,,,,,,,,,,,,,,,,,,,,,,,,,,,,,,,,,,,,,,,,,,,,,,,,,,,,,,,
,,,,,,5edd2e458f29cfa351de300d,62bbfb55d905a5fac415c7af,2022-06-29_02h13.24.731,Colour_Asymmetry_Pilot,2022.1.3,Win32,60.0528465,62bbe60bf3d75ef465d3e404,0,20,20,36,1,threeone,,,,,,,,,,,,,,,,,,,,,,,,,,,,,,,,,,,,,,,,,,,,,,,,,,,,,,,,,,,,,,,,,,,,,,,,,,,,,,,,,,,,,,,,,,,,,,,,,,,,,,,,,,,,,,,,,,,,,,,,,,,,,,,,,,,,,,,,,,,,,,,,,,,,,
,,,,,,5edd2e458f29cfa351de300d,62bbfb55d905a5fac415c7af,2022-06-29_02h13.24.731,Colour_Asymmetry_Pilot,2022.1.3,Win32,60.0528465,62bbe60bf3d75ef465d3e404,0,21,21,118,1,fourtwo,,,,,,,,,,,,,,,,,,,,,,,,,,,,,,,,,,,,,,,,,,,,,,,,,,,,,,,,,,,,,,,,,,,,,,,,,,,,,,,,,,,,,,,,,,,,,,,,,,,,,,,,,,,,,,,,,,,,,,,,,,,,,,,,,,,,,,,,,,,,,,,,,,,,,
,,,,,,5edd2e458f29cfa351de300d,62bbfb55d905a5fac415c7af,2022-06-29_02h13.24.731,Colour_Asymmetry_Pilot,2022.1.3,Win32,60.0528465,62bbe60bf3d75ef465d3e404,0,22,22,46,1,fourtwo,,,,,,,,,,,,,,,,,,,,,,,,,,,,,,,,,,,,,,,,,,,,,,,,,,,,,,,,,,,,,,,,,,,,,,,,,,,,,,,,,,,,,,,,,,,,,,,,,,,,,,,,,,,,,,,,,,,,,,,,,,,,,,,,,,,,,,,,,,,,,,,,,,,,,
,,,,,,5edd2e458f29cfa351de300d,62bbfb55d905a5fac415c7af,2022-06-29_02h13.24.731,Colour_Asymmetry_Pilot,2022.1.3,Win32,60.0528465,62bbe60bf3d75ef465d3e404,0,23,23,114,1,twoone,,,,,,,,,,,,,,,,,,,,,,,,,,,,,,,,,,,,,,,,,,,,,,,,,,,,,,,,,,,,,,,,,,,,,,,,,,,,,,,,,,,,,,,,,,,,,,,,,,,,,,,,,,,,,,,,,,,,,,,,,,,,,,,,,,,,,,,,,,,,,,,,,,,,,
,,,,,,5edd2e458f29cfa351de300d,62bbfb55d905a5fac415c7af,2022-06-29_02h13.24.731,Colour_Asymmetry_Pilot,2022.1.3,Win32,60.0528465,62bbe60bf3d75ef465d3e404,0,24,24,21,1,threefour,,,,,,,,,,,,,,,,,,,,,,,,,,,,,,,,,,,,,,,,,,,,,,,,,,,,,,,,,,,,,,,,,,,,,,,,,,,,,,,,,,,,,,,,,,,,,,,,,,,,,,,,,,,,,,,,,,,,,,,,,,,,,,,,,,,,,,,,,,,,,,,,,,,,,
,,,,,,5edd2e458f29cfa351de300d,62bbfb55d905a5fac415c7af,2022-06-29_02h13.24.731,Colour_Asymmetry_Pilot,2022.1.3,Win32,60.0528465,62bbe60bf3d75ef465d3e404,0,25,25,82,1,twoone,,,,,,,,,,,,,,,,,,,,,,,,,,,,,,,,,,,,,,,,,,,,,,,,,,,,,,,,,,,,,,,,,,,,,,,,,,,,,,,,,,,,,,,,,,,,,,,,,,,,,,,,,,,,,,,,,,,,,,,,,,,,,,,,,,,,,,,,,,,,,,,,,,,,,
,,,,,,5edd2e458f29cfa351de300d,62bbfb55d905a5fac415c7af,2022-06-29_02h13.24.731,Colour_Asymmetry_Pilot,2022.1.3,Win32,60.0528465,62bbe60bf3d75ef465d3e404,0,26,26,110,1,fourtwo,,,,,,,,,,,,,,,,,,,,,,,,,,,,,,,,,,,,,,,,,,,,,,,,,,,,,,,,,,,,,,,,,,,,,,,,,,,,,,,,,,,,,,,,,,,,,,,,,,,,,,,,,,,,,,,,,,,,,,,,,,,,,,,,,,,,,,,,,,,,,,,,,,,,,
,,,,,,5edd2e458f29cfa351de300d,62bbfb55d905a5fac415c7af,2022-06-29_02h13.24.731,Colour_Asymmetry_Pilot,2022.1.3,Win32,60.0528465,62bbe60bf3d75ef465d3e404,0,27,27,69,1,threefour,,,,,,,,,,,,,,,,,,,,,,,,,,,,,,,,,,,,,,,,,,,,,,,,,,,,,,,,,,,,,,,,,,,,,,,,,,,,,,,,,,,,,,,,,,,,,,,,,,,,,,,,,,,,,,,,,,,,,,,,,,,,,,,,,,,,,,,,,,,,,,,,,,,,,
,,,,,,5edd2e458f29cfa351de300d,62bbfb55d905a5fac415c7af,2022-06-29_02h13.24.731,Colour_Asymmetry_Pilot,2022.1.3,Win32,60.0528465,62bbe60bf3d75ef465d3e404,0,28,28,63,1,fourthree,,,,,,,,,,,,,,,,,,,,,,,,,,,,,,,,,,,,,,,,,,,,,,,,,,,,,,,,,,,,,,,,,,,,,,,,,,,,,,,,,,,,,,,,,,,,,,,,,,,,,,,,,,,,,,,,,,,,,,,,,,,,,,,,,,,,,,,,,,,,,,,,,,,,,
,,,,,,5edd2e458f29cfa351de300d,62bbfb55d905a5fac415c7af,2022-06-29_02h13.24.731,Colour_Asymmetry_Pilot,2022.1.3,Win32,60.0528465,62bbe60bf3d75ef465d3e404,0,29,29,121,1,onethree,,,,,,,,,,,,,,,,,,,,,,,,,,,,,,,,,,,,,,,,,,,,,,,,,,,,,,,,,,,,,,,,,,,,,,,,,,,,,,,,,,,,,,,,,,,,,,,,,,,,,,,,,,,,,,,,,,,,,,,,,,,,,,,,,,,,,,,,,,,,,,,,,,,,,
,,,,,,5edd2e458f29cfa351de300d,62bbfb55d905a5fac415c7af,2022-06-29_02h13.24.731,Colour_Asymmetry_Pilot,2022.1.3,Win32,60.0528465,62bbe60bf3d75ef465d3e404,0,30,30,136,1,onetwo,,,,,,,,,,,,,,,,,,,,,,,,,,,,,,,,,,,,,,,,,,,,,,,,,,,,,,,,,,,,,,,,,,,,,,,,,,,,,,,,,,,,,,,,,,,,,,,,,,,,,,,,,,,,,,,,,,,,,,,,,,,,,,,,,,,,,,,,,,,,,,,,,,,,,
,,,,,,5edd2e458f29cfa351de300d,62bbfb55d905a5fac415c7af,2022-06-29_02h13.24.731,Colour_Asymmetry_Pilot,2022.1.3,Win32,60.0528465,62bbe60bf3d75ef465d3e404,0,31,31,124,1,threeone,,,,,,,,,,,,,,,,,,,,,,,,,,,,,,,,,,,,,,,,,,,,,,,,,,,,,,,,,,,,,,,,,,,,,,,,,,,,,,,,,,,,,,,,,,,,,,,,,,,,,,,,,,,,,,,,,,,,,,,,,,,,,,,,,,,,,,,,,,,,,,,,,,,,,
,,,,,,5edd2e458f29cfa351de300d,62bbfb55d905a5fac415c7af,2022-06-29_02h13.24.731,Colour_Asymmetry_Pilot,2022.1.3,Win32,60.0528465,62bbe60bf3d75ef465d3e404,0,32,32,60,1,threeone,,,,,,,,,,,,,,,,,,,,,,,,,,,,,,,,,,,,,,,,,,,,,,,,,,,,,,,,,,,,,,,,,,,,,,,,,,,,,,,,,,,,,,,,,,,,,,,,,,,,,,,,,,,,,,,,,,,,,,,,,,,,,,,,,,,,,,,,,,,,,,,,,,,,,
,,,,,,5edd2e458f29cfa351de300d,62bbfb55d905a5fac415c7af,2022-06-29_02h13.24.731,Colour_Asymmetry_Pilot,2022.1.3,Win32,60.0528465,62bbe60bf3d75ef465d3e404,0,33,33,154,1,twoone,,,,,,,,,,,,,,,,,,,,,,,,,,,,,,,,,,,,,,,,,,,,,,,,,,,,,,,,,,,,,,,,,,,,,,,,,,,,,,,,,,,,,,,,,,,,,,,,,,,,,,,,,,,,,,,,,,,,,,,,,,,,,,,,,,,,,,,,,,,,,,,,,,,,,
,,,,,,5edd2e458f29cfa351de300d,62bbfb55d905a5fac415c7af,2022-06-29_02h13.24.731,Colour_Asymmetry_Pilot,2022.1.3,Win32,60.0528465,62bbe60bf3d75ef465d3e404,0,34,34,131,1,twofour,,,,,,,,,,,,,,,,,,,,,,,,,,,,,,,,,,,,,,,,,,,,,,,,,,,,,,,,,,,,,,,,,,,,,,,,,,,,,,,,,,,,,,,,,,,,,,,,,,,,,,,,,,,,,,,,,,,,,,,,,,,,,,,,,,,,,,,,,,,,,,,,,,,,,
,,,,,,5edd2e458f29cfa351de300d,62bbfb55d905a5fac415c7af,2022-06-29_02h13.24.731,Colour_Asymmetry_Pilot,2022.1.3,Win32,60.0528465,62bbe60bf3d75ef465d3e404,0,35,35,7,1,fourthree,,,,,,,,,,,,,,,,,,,,,,,,,,,,,,,,,,,,,,,,,,,,,,,,,,,,,,,,,,,,,,,,,,,,,,,,,,,,,,,,,,,,,,,,,,,,,,,,,,,,,,,,,,,,,,,,,,,,,,,,,,,,,,,,,,,,,,,,,,,,,,,,,,,,,
,,,,,,5edd2e458f29cfa351de300d,62bbfb55d905a5fac415c7af,2022-06-29_02h13.24.731,Colour_Asymmetry_Pilot,2022.1.3,Win32,60.0528465,62bbe60bf3d75ef465d3e404,0,36,36,10,1,twoone,,,,,,,,,,,,,,,,,,,,,,,,,,,,,,,,,,,,,,,,,,,,,,,,,,,,,,,,,,,,,,,,,,,,,,,,,,,,,,,,,,,,,,,,,,,,,,,,,,,,,,,,,,,,,,,,,,,,,,,,,,,,,,,,,,,,,,,,,,,,,,,,,,,,,
,,,,,,5edd2e458f29cfa351de300d,62bbfb55d905a5fac415c7af,2022-06-29_02h13.24.731,Colour_Asymmetry_Pilot,2022.1.3,Win32,60.0528465,62bbe60bf3d75ef465d3e404,0,37,37,31,1,fourthree,,,,,,,,,,,,,,,,,,,,,,,,,,,,,,,,,,,,,,,,,,,,,,,,,,,,,,,,,,,,,,,,,,,,,,,,,,,,,,,,,,,,,,,,,,,,,,,,,,,,,,,,,,,,,,,,,,,,,,,,,,,,,,,,,,,,,,,,,,,,,,,,,,,,,
,,,,,,5edd2e458f29cfa351de300d,62bbfb55d905a5fac415c7af,2022-06-29_02h13.24.731,Colour_Asymmetry_Pilot,2022.1.3,Win32,60.0528465,62bbe60bf3d75ef465d3e404,0,38,38,96,1,onetwo,,,,,,,,,,,,,,,,,,,,,,,,,,,,,,,,,,,,,,,,,,,,,,,,,,,,,,,,,,,,,,,,,,,,,,,,,,,,,,,,,,,,,,,,,,,,,,,,,,,,,,,,,,,,,,,,,,,,,,,,,,,,,,,,,,,,,,,,,,,,,,,,,,,,,
,,,,,,5edd2e458f29cfa351de300d,62bbfb55d905a5fac415c7af,2022-06-29_02h13.24.731,Colour_Asymmetry_Pilot,2022.1.3,Win32,60.0528465,62bbe60bf3d75ef465d3e404,0,39,39,33,1,onethree,,,,,,,,,,,,,,,,,,,,,,,,,,,,,,,,,,,,,,,,,,,,,,,,,,,,,,,,,,,,,,,,,,,,,,,,,,,,,,,,,,,,,,,,,,,,,,,,,,,,,,,,,,,,,,,,,,,,,,,,,,,,,,,,,,,,,,,,,,,,,,,,,,,,,
,,,,,,5edd2e458f29cfa351de300d,62bbfb55d905a5fac415c7af,2022-06-29_02h13.24.731,Colour_Asymmetry_Pilot,2022.1.3,Win32,60.0528465,62bbe60bf3d75ef465d3e404,0,40,40,12,1,threeone,,,,,,,,,,,,,,,,,,,,,,,,,,,,,,,,,,,,,,,,,,,,,,,,,,,,,,,,,,,,,,,,,,,,,,,,,,,,,,,,,,,,,,,,,,,,,,,,,,,,,,,,,,,,,,,,,,,,,,,,,,,,,,,,,,,,,,,,,,,,,,,,,,,,,
,,,,,,5edd2e458f29cfa351de300d,62bbfb55d905a5fac415c7af,2022-06-29_02h13.24.731,Colour_Asymmetry_Pilot,2022.1.3,Win32,60.0528465,62bbe60bf3d75ef465d3e404,0,41,41,5,1,threefour,,,,,,,,,,,,,,,,,,,,,,,,,,,,,,,,,,,,,,,,,,,,,,,,,,,,,,,,,,,,,,,,,,,,,,,,,,,,,,,,,,,,,,,,,,,,,,,,,,,,,,,,,,,,,,,,,,,,,,,,,,,,,,,,,,,,,,,,,,,,,,,,,,,,,
,,,,,,5edd2e458f29cfa351de300d,62bbfb55d905a5fac415c7af,2022-06-29_02h13.24.731,Colour_Asymmetry_Pilot,2022.1.3,Win32,60.0528465,62bbe60bf3d75ef465d3e404,0,42,42,66,1,twoone,,,,,,,,,,,,,,,,,,,,,,,,,,,,,,,,,,,,,,,,,,,,,,,,,,,,,,,,,,,,,,,,,,,,,,,,,,,,,,,,,,,,,,,,,,,,,,,,,,,,,,,,,,,,,,,,,,,,,,,,,,,,,,,,,,,,,,,,,,,,,,,,,,,,,
,,,,,,5edd2e458f29cfa351de300d,62bbfb55d905a5fac415c7af,2022-06-29_02h13.24.731,Colour_Asymmetry_Pilot,2022.1.3,Win32,60.0528465,62bbe60bf3d75ef465d3e404,0,43,43,2,1,twoone,,,,,,,,,,,,,,,,,,,,,,,,,,,,,,,,,,,,,,,,,,,,,,,,,,,,,,,,,,,,,,,,,,,,,,,,,,,,,,,,,,,,,,,,,,,,,,,,,,,,,,,,,,,,,,,,,,,,,,,,,,,,,,,,,,,,,,,,,,,,,,,,,,,,,
,,,,,,5edd2e458f29cfa351de300d,62bbfb55d905a5fac415c7af,2022-06-29_02h13.24.731,Colour_Asymmetry_Pilot,2022.1.3,Win32,60.0528465,62bbe60bf3d75ef465d3e404,0,44,44,25,1,onethree,,,,,,,,,,,,,,,,,,,,,,,,,,,,,,,,,,,,,,,,,,,,,,,,,,,,,,,,,,,,,,,,,,,,,,,,,,,,,,,,,,,,,,,,,,,,,,,,,,,,,,,,,,,,,,,,,,,,,,,,,,,,,,,,,,,,,,,,,,,,,,,,,,,,,
,,,,,,5edd2e458f29cfa351de300d,62bbfb55d905a5fac415c7af,2022-06-29_02h13.24.731,Colour_Asymmetry_Pilot,2022.1.3,Win32,60.0528465,62bbe60bf3d75ef465d3e404,0,45,45,98,1,twoone,,,,,,,,,,,,,,,,,,,,,,,,,,,,,,,,,,,,,,,,,,,,,,,,,,,,,,,,,,,,,,,,,,,,,,,,,,,,,,,,,,,,,,,,,,,,,,,,,,,,,,,,,,,,,,,,,,,,,,,,,,,,,,,,,,,,,,,,,,,,,,,,,,,,,
,,,,,,5edd2e458f29cfa351de300d,62bbfb55d905a5fac415c7af,2022-06-29_02h13.24.731,Colour_Asymmetry_Pilot,2022.1.3,Win32,60.0528465,62bbe60bf3d75ef465d3e404,0,46,46,89,1,onethree,,,,,,,,,,,,,,,,,,,,,,,,,,,,,,,,,,,,,,,,,,,,,,,,,,,,,,,,,,,,,,,,,,,,,,,,,,,,,,,,,,,,,,,,,,,,,,,,,,,,,,,,,,,,,,,,,,,,,,,,,,,,,,,,,,,,,,,,,,,,,,,,,,,,,
,,,,,,5edd2e458f29cfa351de300d,62bbfb55d905a5fac415c7af,2022-06-29_02h13.24.731,Colour_Asymmetry_Pilot,2022.1.3,Win32,60.0528465,62bbe60bf3d75ef465d3e404,0,47,47,112,1,onetwo,,,,,,,,,,,,,,,,,,,,,,,,,,,,,,,,,,,,,,,,,,,,,,,,,,,,,,,,,,,,,,,,,,,,,,,,,,,,,,,,,,,,,,,,,,,,,,,,,,,,,,,,,,,,,,,,,,,,,,,,,,,,,,,,,,,,,,,,,,,,,,,,,,,,,
,,,,,,5edd2e458f29cfa351de300d,62bbfb55d905a5fac415c7af,2022-06-29_02h13.24.731,Colour_Asymmetry_Pilot,2022.1.3,Win32,60.0528465,62bbe60bf3d75ef465d3e404,0,48,48,148,1,threeone,,,,,,,,,,,,,,,,,,,,,,,,,,,,,,,,,,,,,,,,,,,,,,,,,,,,,,,,,,,,,,,,,,,,,,,,,,,,,,,,,,,,,,,,,,,,,,,,,,,,,,,,,,,,,,,,,,,,,,,,,,,,,,,,,,,,,,,,,,,,,,,,,,,,,
,,,,,,5edd2e458f29cfa351de300d,62bbfb55d905a5fac415c7af,2022-06-29_02h13.24.731,Colour_Asymmetry_Pilot,2022.1.3,Win32,60.0528465,62bbe60bf3d75ef465d3e404,0,49,49,35,1,twofour,,,,,,,,,,,,,,,,,,,,,,,,,,,,,,,,,,,,,,,,,,,,,,,,,,,,,,,,,,,,,,,,,,,,,,,,,,,,,,,,,,,,,,,,,,,,,,,,,,,,,,,,,,,,,,,,,,,,,,,,,,,,,,,,,,,,,,,,,,,,,,,,,,,,,
,,,,,,5edd2e458f29cfa351de300d,62bbfb55d905a5fac415c7af,2022-06-29_02h13.24.731,Colour_Asymmetry_Pilot,2022.1.3,Win32,60.0528465,62bbe60bf3d75ef465d3e404,0,50,50,134,1,fourtwo,,,,,,,,,,,,,,,,,,,,,,,,,,,,,,,,,,,,,,,,,,,,,,,,,,,,,,,,,,,,,,,,,,,,,,,,,,,,,,,,,,,,,,,,,,,,,,,,,,,,,,,,,,,,,,,,,,,,,,,,,,,,,,,,,,,,,,,,,,,,,,,,,,,,,
,,,,,,5edd2e458f29cfa351de300d,62bbfb55d905a5fac415c7af,2022-06-29_02h13.24.731,Colour_Asymmetry_Pilot,2022.1.3,Win32,60.0528465,62bbe60bf3d75ef465d3e404,0,51,51,48,1,onetwo,,,,,,,,,,,,,,,,,,,,,,,,,,,,,,,,,,,,,,,,,,,,,,,,,,,,,,,,,,,,,,,,,,,,,,,,,,,,,,,,,,,,,,,,,,,,,,,,,,,,,,,,,,,,,,,,,,,,,,,,,,,,,,,,,,,,,,,,,,,,,,,,,,,,,
,,,,,,5edd2e458f29cfa351de300d,62bbfb55d905a5fac415c7af,2022-06-29_02h13.24.731,Colour_Asymmetry_Pilot,2022.1.3,Win32,60.0528465,62bbe60bf3d75ef465d3e404,0,52,52,104,1,onetwo,,,,,,,,,,,,,,,,,,,,,,,,,,,,,,,,,,,,,,,,,,,,,,,,,,,,,,,,,,,,,,,,,,,,,,,,,,,,,,,,,,,,,,,,,,,,,,,,,,,,,,,,,,,,,,,,,,,,,,,,,,,,,,,,,,,,,,,,,,,,,,,,,,,,,
,,,,,,5edd2e458f29cfa351de300d,62bbfb55d905a5fac415c7af,2022-06-29_02h13.24.731,Colour_Asymmetry_Pilot,2022.1.3,Win32,60.0528465,62bbe60bf3d75ef465d3e404,0,53,53,125,1,threefour,,,,,,,,,,,,,,,,,,,,,,,,,,,,,,,,,,,,,,,,,,,,,,,,,,,,,,,,,,,,,,,,,,,,,,,,,,,,,,,,,,,,,,,,,,,,,,,,,,,,,,,,,,,,,,,,,,,,,,,,,,,,,,,,,,,,,,,,,,,,,,,,,,,,,
,,,,,,5edd2e458f29cfa351de300d,62bbfb55d905a5fac415c7af,2022-06-29_02h13.24.731,Colour_Asymmetry_Pilot,2022.1.3,Win32,60.0528465,62bbe60bf3d75ef465d3e404,0,54,54,86,1,fourtwo,,,,,,,,,,,,,,,,,,,,,,,,,,,,,,,,,,,,,,,,,,,,,,,,,,,,,,,,,,,,,,,,,,,,,,,,,,,,,,,,,,,,,,,,,,,,,,,,,,,,,,,,,,,,,,,,,,,,,,,,,,,,,,,,,,,,,,,,,,,,,,,,,,,,,
,,,,,,5edd2e458f29cfa351de300d,62bbfb55d905a5fac415c7af,2022-06-29_02h13.24.731,Colour_Asymmetry_Pilot,2022.1.3,Win32,60.0528465,62bbe60bf3d75ef465d3e404,0,55,55,99,1,twofour,,,,,,,,,,,,,,,,,,,,,,,,,,,,,,,,,,,,,,,,,,,,,,,,,,,,,,,,,,,,,,,,,,,,,,,,,,,,,,,,,,,,,,,,,,,,,,,,,,,,,,,,,,,,,,,,,,,,,,,,,,,,,,,,,,,,,,,,,,,,,,,,,,,,,
,,,,,,5edd2e458f29cfa351de300d,62bbfb55d905a5fac415c7af,2022-06-29_02h13.24.731,Colour_Asymmetry_Pilot,2022.1.3,Win32,60.0528465,62bbe60bf3d75ef465d3e404,0,56,56,151,1,fourthree,,,,,,,,,,,,,,,,,,,,,,,,,,,,,,,,,,,,,,,,,,,,,,,,,,,,,,,,,,,,,,,,,,,,,,,,,,,,,,,,,,,,,,,,,,,,,,,,,,,,,,,,,,,,,,,,,,,,,,,,,,,,,,,,,,,,,,,,,,,,,,,,,,,,,
,,,,,,5edd2e458f29cfa351de300d,62bbfb55d905a5fac415c7af,2022-06-29_02h13.24.731,Colour_Asymmetry_Pilot,2022.1.3,Win32,60.0528465,62bbe60bf3d75ef465d3e404,0,57,57,158,1,fourtwo,,,,,,,,,,,,,,,,,,,,,,,,,,,,,,,,,,,,,,,,,,,,,,,,,,,,,,,,,,,,,,,,,,,,,,,,,,,,,,,,,,,,,,,,,,,,,,,,,,,,,,,,,,,,,,,,,,,,,,,,,,,,,,,,,,,,,,,,,,,,,,,,,,,,,
,,,,,,5edd2e458f29cfa351de300d,62bbfb55d905a5fac415c7af,2022-06-29_02h13.24.731,Colour_Asymmetry_Pilot,2022.1.3,Win32,60.0528465,62bbe60bf3d75ef465d3e404,0,58,58,1,1,onethree,,,,,,,,,,,,,,,,,,,,,,,,,,,,,,,,,,,,,,,,,,,,,,,,,,,,,,,,,,,,,,,,,,,,,,,,,,,,,,,,,,,,,,,,,,,,,,,,,,,,,,,,,,,,,,,,,,,,,,,,,,,,,,,,,,,,,,,,,,,,,,,,,,,,,
,,,,,,5edd2e458f29cfa351de300d,62bbfb55d905a5fac415c7af,2022-06-29_02h13.24.731,Colour_Asymmetry_Pilot,2022.1.3,Win32,60.0528465,62bbe60bf3d75ef465d3e404,0,59,59,14,1,fourtwo,,,,,,,,,,,,,,,,,,,,,,,,,,,,,,,,,,,,,,,,,,,,,,,,,,,,,,,,,,,,,,,,,,,,,,,,,,,,,,,,,,,,,,,,,,,,,,,,,,,,,,,,,,,,,,,,,,,,,,,,,,,,,,,,,,,,,,,,,,,,,,,,,,,,,
,,,,,,5edd2e458f29cfa351de300d,62bbfb55d905a5fac415c7af,2022-06-29_02h13.24.731,Colour_Asymmetry_Pilot,2022.1.3,Win32,60.0528465,62bbe60bf3d75ef465d3e404,0,60,60,8,1,onetwo,,,,,,,,,,,,,,,,,,,,,,,,,,,,,,,,,,,,,,,,,,,,,,,,,,,,,,,,,,,,,,,,,,,,,,,,,,,,,,,,,,,,,,,,,,,,,,,,,,,,,,,,,,,,,,,,,,,,,,,,,,,,,,,,,,,,,,,,,,,,,,,,,,,,,
,,,,,,5edd2e458f29cfa351de300d,62bbfb55d905a5fac415c7af,2022-06-29_02h13.24.731,Colour_Asymmetry_Pilot,2022.1.3,Win32,60.0528465,62bbe60bf3d75ef465d3e404,0,61,61,51,1,twofour,,,,,,,,,,,,,,,,,,,,,,,,,,,,,,,,,,,,,,,,,,,,,,,,,,,,,,,,,,,,,,,,,,,,,,,,,,,,,,,,,,,,,,,,,,,,,,,,,,,,,,,,,,,,,,,,,,,,,,,,,,,,,,,,,,,,,,,,,,,,,,,,,,,,,
,,,,,,5edd2e458f29cfa351de300d,62bbfb55d905a5fac415c7af,2022-06-29_02h13.24.731,Colour_Asymmetry_Pilot,2022.1.3,Win32,60.0528465,62bbe60bf3d75ef465d3e404,0,62,62,160,1,onetwo,,,,,,,,,,,,,,,,,,,,,,,,,,,,,,,,,,,,,,,,,,,,,,,,,,,,,,,,,,,,,,,,,,,,,,,,,,,,,,,,,,,,,,,,,,,,,,,,,,,,,,,,,,,,,,,,,,,,,,,,,,,,,,,,,,,,,,,,,,,,,,,,,,,,,
,,,,,,5edd2e458f29cfa351de300d,62bbfb55d905a5fac415c7af,2022-06-29_02h13.24.731,Colour_Asymmetry_Pilot,2022.1.3,Win32,60.0528465,62bbe60bf3d75ef465d3e404,0,63,63,43,1,twofour,,,,,,,,,,,,,,,,,,,,,,,,,,,,,,,,,,,,,,,,,,,,,,,,,,,,,,,,,,,,,,,,,,,,,,,,,,,,,,,,,,,,,,,,,,,,,,,,,,,,,,,,,,,,,,,,,,,,,,,,,,,,,,,,,,,,,,,,,,,,,,,,,,,,,
,,,,,,5edd2e458f29cfa351de300d,62bbfb55d905a5fac415c7af,2022-06-29_02h13.24.731,Colour_Asymmetry_Pilot,2022.1.3,Win32,60.0528465,62bbe60bf3d75ef465d3e404,0,64,64,107,1,twofour,,,,,,,,,,,,,,,,,,,,,,,,,,,,,,,,,,,,,,,,,,,,,,,,,,,,,,,,,,,,,,,,,,,,,,,,,,,,,,,,,,,,,,,,,,,,,,,,,,,,,,,,,,,,,,,,,,,,,,,,,,,,,,,,,,,,,,,,,,,,,,,,,,,,,
,,,,,,5edd2e458f29cfa351de300d,62bbfb55d905a5fac415c7af,2022-06-29_02h13.24.731,Colour_Asymmetry_Pilot,2022.1.3,Win32,60.0528465,62bbe60bf3d75ef465d3e404,0,65,65,113,1,onethree,,,,,,,,,,,,,,,,,,,,,,,,,,,,,,,,,,,,,,,,,,,,,,,,,,,,,,,,,,,,,,,,,,,,,,,,,,,,,,,,,,,,,,,,,,,,,,,,,,,,,,,,,,,,,,,,,,,,,,,,,,,,,,,,,,,,,,,,,,,,,,,,,,,,,
,,,,,,5edd2e458f29cfa351de300d,62bbfb55d905a5fac415c7af,2022-06-29_02h13.24.731,Colour_Asymmetry_Pilot,2022.1.3,Win32,60.0528465,62bbe60bf3d75ef465d3e404,0,66,66,81,1,onethree,,,,,,,,,,,,,,,,,,,,,,,,,,,,,,,,,,,,,,,,,,,,,,,,,,,,,,,,,,,,,,,,,,,,,,,,,,,,,,,,,,,,,,,,,,,,,,,,,,,,,,,,,,,,,,,,,,,,,,,,,,,,,,,,,,,,,,,,,,,,,,,,,,,,,
,,,,,,5edd2e458f29cfa351de300d,62bbfb55d905a5fac415c7af,2022-06-29_02h13.24.731,Colour_Asymmetry_Pilot,2022.1.3,Win32,60.0528465,62bbe60bf3d75ef465d3e404,0,67,67,101,1,threefour,,,,,,,,,,,,,,,,,,,,,,,,,,,,,,,,,,,,,,,,,,,,,,,,,,,,,,,,,,,,,,,,,,,,,,,,,,,,,,,,,,,,,,,,,,,,,,,,,,,,,,,,,,,,,,,,,,,,,,,,,,,,,,,,,,,,,,,,,,,,,,,,,,,,,
,,,,,,5edd2e458f29cfa351de300d,62bbfb55d905a5fac415c7af,2022-06-29_02h13.24.731,Colour_Asymmetry_Pilot,2022.1.3,Win32,60.0528465,62bbe60bf3d75ef465d3e404,0,68,68,23,1,fourthree,,,,,,,,,,,,,,,,,,,,,,,,,,,,,,,,,,,,,,,,,,,,,,,,,,,,,,,,,,,,,,,,,,,,,,,,,,,,,,,,,,,,,,,,,,,,,,,,,,,,,,,,,,,,,,,,,,,,,,,,,,,,,,,,,,,,,,,,,,,,,,,,,,,,,
,,,,,,5edd2e458f29cfa351de300d,62bbfb55d905a5fac415c7af,2022-06-29_02h13.24.731,Colour_Asymmetry_Pilot,2022.1.3,Win32,60.0528465,62bbe60bf3d75ef465d3e404,0,69,69,127,1,fourthree,,,,,,,,,,,,,,,,,,,,,,,,,,,,,,,,,,,,,,,,,,,,,,,,,,,,,,,,,,,,,,,,,,,,,,,,,,,,,,,,,,,,,,,,,,,,,,,,,,,,,,,,,,,,,,,,,,,,,,,,,,,,,,,,,,,,,,,,,,,,,,,,,,,,,
,,,,,,5edd2e458f29cfa351de300d,62bbfb55d905a5fac415c7af,2022-06-29_02h13.24.731,Colour_Asymmetry_Pilot,2022.1.3,Win32,60.0528465,62bbe60bf3d75ef465d3e404,0,70,70,53,1,threefour,,,,,,,,,,,,,,,,,,,,,,,,,,,,,,,,,,,,,,,,,,,,,,,,,,,,,,,,,,,,,,,,,,,,,,,,,,,,,,,,,,,,,,,,,,,,,,,,,,,,,,,,,,,,,,,,,,,,,,,,,,,,,,,,,,,,,,,,,,,,,,,,,,,,,
,,,,,,5edd2e458f29cfa351de300d,62bbfb55d905a5fac415c7af,2022-06-29_02h13.24.731,Colour_Asymmetry_Pilot,2022.1.3,Win32,60.0528465,62bbe60bf3d75ef465d3e404,0,71,71,73,1,onethree,,,,,,,,,,,,,,,,,,,,,,,,,,,,,,,,,,,,,,,,,,,,,,,,,,,,,,,,,,,,,,,,,,,,,,,,,,,,,,,,,,,,,,,,,,,,,,,,,,,,,,,,,,,,,,,,,,,,,,,,,,,,,,,,,,,,,,,,,,,,,,,,,,,,,
,,,,,,5edd2e458f29cfa351de300d,62bbfb55d905a5fac415c7af,2022-06-29_02h13.24.731,Colour_Asymmetry_Pilot,2022.1.3,Win32,60.0528465,62bbe60bf3d75ef465d3e404,0,72,72,87,1,fourthree,,,,,,,,,,,,,,,,,,,,,,,,,,,,,,,,,,,,,,,,,,,,,,,,,,,,,,,,,,,,,,,,,,,,,,,,,,,,,,,,,,,,,,,,,,,,,,,,,,,,,,,,,,,,,,,,,,,,,,,,,,,,,,,,,,,,,,,,,,,,,,,,,,,,,
,,,,,,5edd2e458f29cfa351de300d,62bbfb55d905a5fac415c7af,2022-06-29_02h13.24.731,Colour_Asymmetry_Pilot,2022.1.3,Win32,60.0528465,62bbe60bf3d75ef465d3e404,0,73,73,100,1,threeone,,,,,,,,,,,,,,,,,,,,,,,,,,,,,,,,,,,,,,,,,,,,,,,,,,,,,,,,,,,,,,,,,,,,,,,,,,,,,,,,,,,,,,,,,,,,,,,,,,,,,,,,,,,,,,,,,,,,,,,,,,,,,,,,,,,,,,,,,,,,,,,,,,,,,
,,,,,,5edd2e458f29cfa351de300d,62bbfb55d905a5fac415c7af,2022-06-29_02h13.24.731,Colour_Asymmetry_Pilot,2022.1.3,Win32,60.0528465,62bbe60bf3d75ef465d3e404,0,74,74,6,1,fourtwo,,,,,,,,,,,,,,,,,,,,,,,,,,,,,,,,,,,,,,,,,,,,,,,,,,,,,,,,,,,,,,,,,,,,,,,,,,,,,,,,,,,,,,,,,,,,,,,,,,,,,,,,,,,,,,,,,,,,,,,,,,,,,,,,,,,,,,,,,,,,,,,,,,,,,
,,,,,,5edd2e458f29cfa351de300d,62bbfb55d905a5fac415c7af,2022-06-29_02h13.24.731,Colour_Asymmetry_Pilot,2022.1.3,Win32,60.0528465,62bbe60bf3d75ef465d3e404,0,75,75,145,1,onethree,,,,,,,,,,,,,,,,,,,,,,,,,,,,,,,,,,,,,,,,,,,,,,,,,,,,,,,,,,,,,,,,,,,,,,,,,,,,,,,,,,,,,,,,,,,,,,,,,,,,,,,,,,,,,,,,,,,,,,,,,,,,,,,,,,,,,,,,,,,,,,,,,,,,,
,,,,,,5edd2e458f29cfa351de300d,62bbfb55d905a5fac415c7af,2022-06-29_02h13.24.731,Colour_Asymmetry_Pilot,2022.1.3,Win32,60.0528465,62bbe60bf3d75ef465d3e404,0,76,76,56,1,onetwo,,,,,,,,,,,,,,,,,,,,,,,,,,,,,,,,,,,,,,,,,,,,,,,,,,,,,,,,,,,,,,,,,,,,,,,,,,,,,,,,,,,,,,,,,,,,,,,,,,,,,,,,,,,,,,,,,,,,,,,,,,,,,,,,,,,,,,,,,,,,,,,,,,,,,
,,,,,,5edd2e458f29cfa351de300d,62bbfb55d905a5fac415c7af,2022-06-29_02h13.24.731,Colour_Asymmetry_Pilot,2022.1.3,Win32,60.0528465,62bbe60bf3d75ef465d3e404,0,77,77,135,1,fourthree,,,,,,,,,,,,,,,,,,,,,,,,,,,,,,,,,,,,,,,,,,,,,,,,,,,,,,,,,,,,,,,,,,,,,,,,,,,,,,,,,,,,,,,,,,,,,,,,,,,,,,,,,,,,,,,,,,,,,,,,,,,,,,,,,,,,,,,,,,,,,,,,,,,,,
,,,,,,5edd2e458f29cfa351de300d,62bbfb55d905a5fac415c7af,2022-06-29_02h13.24.731,Colour_Asymmetry_Pilot,2022.1.3,Win32,60.0528465,62bbe60bf3d75ef465d3e404,0,78,78,37,1,threefour,,,,,,,,,,,,,,,,,,,,,,,,,,,,,,,,,,,,,,,,,,,,,,,,,,,,,,,,,,,,,,,,,,,,,,,,,,,,,,,,,,,,,,,,,,,,,,,,,,,,,,,,,,,,,,,,,,,,,,,,,,,,,,,,,,,,,,,,,,,,,,,,,,,,,
,,,,,,5edd2e458f29cfa351de300d,62bbfb55d905a5fac415c7af,2022-06-29_02h13.24.731,Colour_Asymmetry_Pilot,2022.1.3,Win32,60.0528465,62bbe60bf3d75ef465d3e404,0,79,79,78,1,fourtwo,,,,,,,,,,,,,,,,,,,,,,,,,,,,,,,,,,,,,,,,,,,,,,,,,,,,,,,,,,,,,,,,,,,,,,,,,,,,,,,,,,,,,,,,,,,,,,,,,,,,,,,,,,,,,,,,,,,,,,,,,,,,,,,,,,,,,,,,,,,,,,,,,,,,,
,,,,,,5edd2e458f29cfa351de300d,62bbfb55d905a5fac415c7af,2022-06-29_02h13.24.731,Colour_Asymmetry_Pilot,2022.1.3,Win32,60.0528465,62bbe60bf3d75ef465d3e404,0,80,80,15,1,fourthree,,,,,,,,,,,,,,,,,,,,,,,,,,,,,,,,,,,,,,,,,,,,,,,,,,,,,,,,,,,,,,,,,,,,,,,,,,,,,,,,,,,,,,,,,,,,,,,,,,,,,,,,,,,,,,,,,,,,,,,,,,,,,,,,,,,,,,,,,,,,,,,,,,,,,
,,,,,,5edd2e458f29cfa351de300d,62bbfb55d905a5fac415c7af,2022-06-29_02h13.24.731,Colour_Asymmetry_Pilot,2022.1.3,Win32,60.0528465,62bbe60bf3d75ef465d3e404,0,81,81,41,1,onethree,,,,,,,,,,,,,,,,,,,,,,,,,,,,,,,,,,,,,,,,,,,,,,,,,,,,,,,,,,,,,,,,,,,,,,,,,,,,,,,,,,,,,,,,,,,,,,,,,,,,,,,,,,,,,,,,,,,,,,,,,,,,,,,,,,,,,,,,,,,,,,,,,,,,,
,,,,,,5edd2e458f29cfa351de300d,62bbfb55d905a5fac415c7af,2022-06-29_02h13.24.731,Colour_Asymmetry_Pilot,2022.1.3,Win32,60.0528465,62bbe60bf3d75ef465d3e404,0,82,82,139,1,twofour,,,,,,,,,,,,,,,,,,,,,,,,,,,,,,,,,,,,,,,,,,,,,,,,,,,,,,,,,,,,,,,,,,,,,,,,,,,,,,,,,,,,,,,,,,,,,,,,,,,,,,,,,,,,,,,,,,,,,,,,,,,,,,,,,,,,,,,,,,,,,,,,,,,,,
,,,,,,5edd2e458f29cfa351de300d,62bbfb55d905a5fac415c7af,2022-06-29_02h13.24.731,Colour_Asymmetry_Pilot,2022.1.3,Win32,60.0528465,62bbe60bf3d75ef465d3e404,0,83,83,92,1,threeone,,,,,,,,,,,,,,,,,,,,,,,,,,,,,,,,,,,,,,,,,,,,,,,,,,,,,,,,,,,,,,,,,,,,,,,,,,,,,,,,,,,,,,,,,,,,,,,,,,,,,,,,,,,,,,,,,,,,,,,,,,,,,,,,,,,,,,,,,,,,,,,,,,,,,
,,,,,,5edd2e458f29cfa351de300d,62bbfb55d905a5fac415c7af,2022-06-29_02h13.24.731,Colour_Asymmetry_Pilot,2022.1.3,Win32,60.0528465,62bbe60bf3d75ef465d3e404,0,84,84,40,1,onetwo,,,,,,,,,,,,,,,,,,,,,,,,,,,,,,,,,,,,,,,,,,,,,,,,,,,,,,,,,,,,,,,,,,,,,,,,,,,,,,,,,,,,,,,,,,,,,,,,,,,,,,,,,,,,,,,,,,,,,,,,,,,,,,,,,,,,,,,,,,,,,,,,,,,,,
,,,,,,5edd2e458f29cfa351de300d,62bbfb55d905a5fac415c7af,2022-06-29_02h13.24.731,Colour_Asymmetry_Pilot,2022.1.3,Win32,60.0528465,62bbe60bf3d75ef465d3e404,0,85,85,61,1,threefour,,,,,,,,,,,,,,,,,,,,,,,,,,,,,,,,,,,,,,,,,,,,,,,,,,,,,,,,,,,,,,,,,,,,,,,,,,,,,,,,,,,,,,,,,,,,,,,,,,,,,,,,,,,,,,,,,,,,,,,,,,,,,,,,,,,,,,,,,,,,,,,,,,,,,
,,,,,,5edd2e458f29cfa351de300d,62bbfb55d905a5fac415c7af,2022-06-29_02h13.24.731,Colour_Asymmetry_Pilot,2022.1.3,Win32,60.0528465,62bbe60bf3d75ef465d3e404,0,86,86,103,1,fourthree,,,,,,,,,,,,,,,,,,,,,,,,,,,,,,,,,,,,,,,,,,,,,,,,,,,,,,,,,,,,,,,,,,,,,,,,,,,,,,,,,,,,,,,,,,,,,,,,,,,,,,,,,,,,,,,,,,,,,,,,,,,,,,,,,,,,,,,,,,,,,,,,,,,,,
,,,,,,5edd2e458f29cfa351de300d,62bbfb55d905a5fac415c7af,2022-06-29_02h13.24.731,Colour_Asymmetry_Pilot,2022.1.3,Win32,60.0528465,62bbe60bf3d75ef465d3e404,0,87,87,141,1,threefour,,,,,,,,,,,,,,,,,,,,,,,,,,,,,,,,,,,,,,,,,,,,,,,,,,,,,,,,,,,,,,,,,,,,,,,,,,,,,,,,,,,,,,,,,,,,,,,,,,,,,,,,,,,,,,,,,,,,,,,,,,,,,,,,,,,,,,,,,,,,,,,,,,,,,
,,,,,,5edd2e458f29cfa351de300d,62bbfb55d905a5fac415c7af,2022-06-29_02h13.24.731,Colour_Asymmetry_Pilot,2022.1.3,Win32,60.0528465,62bbe60bf3d75ef465d3e404,0,88,88,34,1,twoone,,,,,,,,,,,,,,,,,,,,,,,,,,,,,,,,,,,,,,,,,,,,,,,,,,,,,,,,,,,,,,,,,,,,,,,,,,,,,,,,,,,,,,,,,,,,,,,,,,,,,,,,,,,,,,,,,,,,,,,,,,,,,,,,,,,,,,,,,,,,,,,,,,,,,
,,,,,,5edd2e458f29cfa351de300d,62bbfb55d905a5fac415c7af,2022-06-29_02h13.24.731,Colour_Asymmetry_Pilot,2022.1.3,Win32,60.0528465,62bbe60bf3d75ef465d3e404,0,89,89,50,1,twoone,,,,,,,,,,,,,,,,,,,,,,,,,,,,,,,,,,,,,,,,,,,,,,,,,,,,,,,,,,,,,,,,,,,,,,,,,,,,,,,,,,,,,,,,,,,,,,,,,,,,,,,,,,,,,,,,,,,,,,,,,,,,,,,,,,,,,,,,,,,,,,,,,,,,,
,,,,,,5edd2e458f29cfa351de300d,62bbfb55d905a5fac415c7af,2022-06-29_02h13.24.731,Colour_Asymmetry_Pilot,2022.1.3,Win32,60.0528465,62bbe60bf3d75ef465d3e404,0,90,90,146,1,twoone,,,,,,,,,,,,,,,,,,,,,,,,,,,,,,,,,,,,,,,,,,,,,,,,,,,,,,,,,,,,,,,,,,,,,,,,,,,,,,,,,,,,,,,,,,,,,,,,,,,,,,,,,,,,,,,,,,,,,,,,,,,,,,,,,,,,,,,,,,,,,,,,,,,,,
,,,,,,5edd2e458f29cfa351de300d,62bbfb55d905a5fac415c7af,2022-06-29_02h13.24.731,Colour_Asymmetry_Pilot,2022.1.3,Win32,60.0528465,62bbe60bf3d75ef465d3e404,0,91,91,153,1,onethree,,,,,,,,,,,,,,,,,,,,,,,,,,,,,,,,,,,,,,,,,,,,,,,,,,,,,,,,,,,,,,,,,,,,,,,,,,,,,,,,,,,,,,,,,,,,,,,,,,,,,,,,,,,,,,,,,,,,,,,,,,,,,,,,,,,,,,,,,,,,,,,,,,,,,
,,,,,,5edd2e458f29cfa351de300d,62bbfb55d905a5fac415c7af,2022-06-29_02h13.24.731,Colour_Asymmetry_Pilot,2022.1.3,Win32,60.0528465,62bbe60bf3d75ef465d3e404,0,92,92,117,1,threefour,,,,,,,,,,,,,,,,,,,,,,,,,,,,,,,,,,,,,,,,,,,,,,,,,,,,,,,,,,,,,,,,,,,,,,,,,,,,,,,,,,,,,,,,,,,,,,,,,,,,,,,,,,,,,,,,,,,,,,,,,,,,,,,,,,,,,,,,,,,,,,,,,,,,,
,,,,,,5edd2e458f29cfa351de300d,62bbfb55d905a5fac415c7af,2022-06-29_02h13.24.731,Colour_Asymmetry_Pilot,2022.1.3,Win32,60.0528465,62bbe60bf3d75ef465d3e404,0,93,93,72,1,onetwo,,,,,,,,,,,,,,,,,,,,,,,,,,,,,,,,,,,,,,,,,,,,,,,,,,,,,,,,,,,,,,,,,,,,,,,,,,,,,,,,,,,,,,,,,,,,,,,,,,,,,,,,,,,,,,,,,,,,,,,,,,,,,,,,,,,,,,,,,,,,,,,,,,,,,
,,,,,,5edd2e458f29cfa351de300d,62bbfb55d905a5fac415c7af,2022-06-29_02h13.24.731,Colour_Asymmetry_Pilot,2022.1.3,Win32,60.0528465,62bbe60bf3d75ef465d3e404,0,94,94,126,1,fourtwo,,,,,,,,,,,,,,,,,,,,,,,,,,,,,,,,,,,,,,,,,,,,,,,,,,,,,,,,,,,,,,,,,,,,,,,,,,,,,,,,,,,,,,,,,,,,,,,,,,,,,,,,,,,,,,,,,,,,,,,,,,,,,,,,,,,,,,,,,,,,,,,,,,,,,
,,,,,,5edd2e458f29cfa351de300d,62bbfb55d905a5fac415c7af,2022-06-29_02h13.24.731,Colour_Asymmetry_Pilot,2022.1.3,Win32,60.0528465,62bbe60bf3d75ef465d3e404,0,95,95,84,1,threeone,,,,,,,,,,,,,,,,,,,,,,,,,,,,,,,,,,,,,,,,,,,,,,,,,,,,,,,,,,,,,,,,,,,,,,,,,,,,,,,,,,,,,,,,,,,,,,,,,,,,,,,,,,,,,,,,,,,,,,,,,,,,,,,,,,,,,,,,,,,,,,,,,,,,,
,,,,,,5edd2e458f29cfa351de300d,62bbfb55d905a5fac415c7af,2022-06-29_02h13.24.731,Colour_Asymmetry_Pilot,2022.1.3,Win32,60.0528465,62bbe60bf3d75ef465d3e404,0,96,96,129,1,onethree,,,,,,,,,,,,,,,,,,,,,,,,,,,,,,,,,,,,,,,,,,,,,,,,,,,,,,,,,,,,,,,,,,,,,,,,,,,,,,,,,,,,,,,,,,,,,,,,,,,,,,,,,,,,,,,,,,,,,,,,,,,,,,,,,,,,,,,,,,,,,,,,,,,,,
,,,,,,5edd2e458f29cfa351de300d,62bbfb55d905a5fac415c7af,2022-06-29_02h13.24.731,Colour_Asymmetry_Pilot,2022.1.3,Win32,60.0528465,62bbe60bf3d75ef465d3e404,0,97,97,94,1,fourtwo,,,,,,,,,,,,,,,,,,,,,,,,,,,,,,,,,,,,,,,,,,,,,,,,,,,,,,,,,,,,,,,,,,,,,,,,,,,,,,,,,,,,,,,,,,,,,,,,,,,,,,,,,,,,,,,,,,,,,,,,,,,,,,,,,,,,,,,,,,,,,,,,,,,,,
,,,,,,5edd2e458f29cfa351de300d,62bbfb55d905a5fac415c7af,2022-06-29_02h13.24.731,Colour_Asymmetry_Pilot,2022.1.3,Win32,60.0528465,62bbe60bf3d75ef465d3e404,0,98,98,144,1,onetwo,,,,,,,,,,,,,,,,,,,,,,,,,,,,,,,,,,,,,,,,,,,,,,,,,,,,,,,,,,,,,,,,,,,,,,,,,,,,,,,,,,,,,,,,,,,,,,,,,,,,,,,,,,,,,,,,,,,,,,,,,,,,,,,,,,,,,,,,,,,,,,,,,,,,,
,,,,,,5edd2e458f29cfa351de300d,62bbfb55d905a5fac415c7af,2022-06-29_02h13.24.731,Colour_Asymmetry_Pilot,2022.1.3,Win32,60.0528465,62bbe60bf3d75ef465d3e404,0,99,99,45,1,threefour,,,,,,,,,,,,,,,,,,,,,,,,,,,,,,,,,,,,,,,,,,,,,,,,,,,,,,,,,,,,,,,,,,,,,,,,,,,,,,,,,,,,,,,,,,,,,,,,,,,,,,,,,,,,,,,,,,,,,,,,,,,,,,,,,,,,,,,,,,,,,,,,,,,,,
,,,,,,5edd2e458f29cfa351de300d,62bbfb55d905a5fac415c7af,2022-06-29_02h13.24.731,Colour_Asymmetry_Pilot,2022.1.3,Win32,60.0528465,62bbe60bf3d75ef465d3e404,0,100,100,128,1,onetwo,,,,,,,,,,,,,,,,,,,,,,,,,,,,,,,,,,,,,,,,,,,,,,,,,,,,,,,,,,,,,,,,,,,,,,,,,,,,,,,,,,,,,,,,,,,,,,,,,,,,,,,,,,,,,,,,,,,,,,,,,,,,,,,,,,,,,,,,,,,,,,,,,,,,,
,,,,,,5edd2e458f29cfa351de300d,62bbfb55d905a5fac415c7af,2022-06-29_02h13.24.731,Colour_Asymmetry_Pilot,2022.1.3,Win32,60.0528465,62bbe60bf3d75ef465d3e404,0,101,101,159,1,fourthree,,,,,,,,,,,,,,,,,,,,,,,,,,,,,,,,,,,,,,,,,,,,,,,,,,,,,,,,,,,,,,,,,,,,,,,,,,,,,,,,,,,,,,,,,,,,,,,,,,,,,,,,,,,,,,,,,,,,,,,,,,,,,,,,,,,,,,,,,,,,,,,,,,,,,
,,,,,,5edd2e458f29cfa351de300d,62bbfb55d905a5fac415c7af,2022-06-29_02h13.24.731,Colour_Asymmetry_Pilot,2022.1.3,Win32,60.0528465,62bbe60bf3d75ef465d3e404,0,102,102,62,1,fourtwo,,,,,,,,,,,,,,,,,,,,,,,,,,,,,,,,,,,,,,,,,,,,,,,,,,,,,,,,,,,,,,,,,,,,,,,,,,,,,,,,,,,,,,,,,,,,,,,,,,,,,,,,,,,,,,,,,,,,,,,,,,,,,,,,,,,,,,,,,,,,,,,,,,,,,
,,,,,,5edd2e458f29cfa351de300d,62bbfb55d905a5fac415c7af,2022-06-29_02h13.24.731,Colour_Asymmetry_Pilot,2022.1.3,Win32,60.0528465,62bbe60bf3d75ef465d3e404,0,103,103,65,1,onethree,,,,,,,,,,,,,,,,,,,,,,,,,,,,,,,,,,,,,,,,,,,,,,,,,,,,,,,,,,,,,,,,,,,,,,,,,,,,,,,,,,,,,,,,,,,,,,,,,,,,,,,,,,,,,,,,,,,,,,,,,,,,,,,,,,,,,,,,,,,,,,,,,,,,,
,,,,,,5edd2e458f29cfa351de300d,62bbfb55d905a5fac415c7af,2022-06-29_02h13.24.731,Colour_Asymmetry_Pilot,2022.1.3,Win32,60.0528465,62bbe60bf3d75ef465d3e404,0,104,104,119,1,fourthree,,,,,,,,,,,,,,,,,,,,,,,,,,,,,,,,,,,,,,,,,,,,,,,,,,,,,,,,,,,,,,,,,,,,,,,,,,,,,,,,,,,,,,,,,,,,,,,,,,,,,,,,,,,,,,,,,,,,,,,,,,,,,,,,,,,,,,,,,,,,,,,,,,,,,
,,,,,,5edd2e458f29cfa351de300d,62bbfb55d905a5fac415c7af,2022-06-29_02h13.24.731,Colour_Asymmetry_Pilot,2022.1.3,Win32,60.0528465,62bbe60bf3d75ef465d3e404,0,105,105,11,1,twofour,,,,,,,,,,,,,,,,,,,,,,,,,,,,,,,,,,,,,,,,,,,,,,,,,,,,,,,,,,,,,,,,,,,,,,,,,,,,,,,,,,,,,,,,,,,,,,,,,,,,,,,,,,,,,,,,,,,,,,,,,,,,,,,,,,,,,,,,,,,,,,,,,,,,,
,,,,,,5edd2e458f29cfa351de300d,62bbfb55d905a5fac415c7af,2022-06-29_02h13.24.731,Colour_Asymmetry_Pilot,2022.1.3,Win32,60.0528465,62bbe60bf3d75ef465d3e404,0,106,106,143,1,fourthree,,,,,,,,,,,,,,,,,,,,,,,,,,,,,,,,,,,,,,,,,,,,,,,,,,,,,,,,,,,,,,,,,,,,,,,,,,,,,,,,,,,,,,,,,,,,,,,,,,,,,,,,,,,,,,,,,,,,,,,,,,,,,,,,,,,,,,,,,,,,,,,,,,,,,
,,,,,,5edd2e458f29cfa351de300d,62bbfb55d905a5fac415c7af,2022-06-29_02h13.24.731,Colour_Asymmetry_Pilot,2022.1.3,Win32,60.0528465,62bbe60bf3d75ef465d3e404,0,107,107,26,1,twoone,,,,,,,,,,,,,,,,,,,,,,,,,,,,,,,,,,,,,,,,,,,,,,,,,,,,,,,,,,,,,,,,,,,,,,,,,,,,,,,,,,,,,,,,,,,,,,,,,,,,,,,,,,,,,,,,,,,,,,,,,,,,,,,,,,,,,,,,,,,,,,,,,,,,,
,,,,,,5edd2e458f29cfa351de300d,62bbfb55d905a5fac415c7af,2022-06-29_02h13.24.731,Colour_Asymmetry_Pilot,2022.1.3,Win32,60.0528465,62bbe60bf3d75ef465d3e404,0,108,108,55,1,fourthree,,,,,,,,,,,,,,,,,,,,,,,,,,,,,,,,,,,,,,,,,,,,,,,,,,,,,,,,,,,,,,,,,,,,,,,,,,,,,,,,,,,,,,,,,,,,,,,,,,,,,,,,,,,,,,,,,,,,,,,,,,,,,,,,,,,,,,,,,,,,,,,,,,,,,
,,,,,,5edd2e458f29cfa351de300d,62bbfb55d905a5fac415c7af,2022-06-29_02h13.24.731,Colour_Asymmetry_Pilot,2022.1.3,Win32,60.0528465,62bbe60bf3d75ef465d3e404,0,109,109,115,1,twofour,,,,,,,,,,,,,,,,,,,,,,,,,,,,,,,,,,,,,,,,,,,,,,,,,,,,,,,,,,,,,,,,,,,,,,,,,,,,,,,,,,,,,,,,,,,,,,,,,,,,,,,,,,,,,,,,,,,,,,,,,,,,,,,,,,,,,,,,,,,,,,,,,,,,,
,,,,,,5edd2e458f29cfa351de300d,62bbfb55d905a5fac415c7af,2022-06-29_02h13.24.731,Colour_Asymmetry_Pilot,2022.1.3,Win32,60.0528465,62bbe60bf3d75ef465d3e404,0,110,110,3,1,twofour,,,,,,,,,,,,,,,,,,,,,,,,,,,,,,,,,,,,,,,,,,,,,,,,,,,,,,,,,,,,,,,,,,,,,,,,,,,,,,,,,,,,,,,,,,,,,,,,,,,,,,,,,,,,,,,,,,,,,,,,,,,,,,,,,,,,,,,,,,,,,,,,,,,,,
,,,,,,5edd2e458f29cfa351de300d,62bbfb55d905a5fac415c7af,2022-06-29_02h13.24.731,Colour_Asymmetry_Pilot,2022.1.3,Win32,60.0528465,62bbe60bf3d75ef465d3e404,0,111,111,150,1,fourtwo,,,,,,,,,,,,,,,,,,,,,,,,,,,,,,,,,,,,,,,,,,,,,,,,,,,,,,,,,,,,,,,,,,,,,,,,,,,,,,,,,,,,,,,,,,,,,,,,,,,,,,,,,,,,,,,,,,,,,,,,,,,,,,,,,,,,,,,,,,,,,,,,,,,,,
,,,,,,5edd2e458f29cfa351de300d,62bbfb55d905a5fac415c7af,2022-06-29_02h13.24.731,Colour_Asymmetry_Pilot,2022.1.3,Win32,60.0528465,62bbe60bf3d75ef465d3e404,0,112,112,27,1,twofour,,,,,,,,,,,,,,,,,,,,,,,,,,,,,,,,,,,,,,,,,,,,,,,,,,,,,,,,,,,,,,,,,,,,,,,,,,,,,,,,,,,,,,,,,,,,,,,,,,,,,,,,,,,,,,,,,,,,,,,,,,,,,,,,,,,,,,,,,,,,,,,,,,,,,
,,,,,,5edd2e458f29cfa351de300d,62bbfb55d905a5fac415c7af,2022-06-29_02h13.24.731,Colour_Asymmetry_Pilot,2022.1.3,Win32,60.0528465,62bbe60bf3d75ef465d3e404,0,113,113,13,1,threefour,,,,,,,,,,,,,,,,,,,,,,,,,,,,,,,,,,,,,,,,,,,,,,,,,,,,,,,,,,,,,,,,,,,,,,,,,,,,,,,,,,,,,,,,,,,,,,,,,,,,,,,,,,,,,,,,,,,,,,,,,,,,,,,,,,,,,,,,,,,,,,,,,,,,,
,,,,,,5edd2e458f29cfa351de300d,62bbfb55d905a5fac415c7af,2022-06-29_02h13.24.731,Colour_Asymmetry_Pilot,2022.1.3,Win32,60.0528465,62bbe60bf3d75ef465d3e404,0,114,114,19,1,twofour,,,,,,,,,,,,,,,,,,,,,,,,,,,,,,,,,,,,,,,,,,,,,,,,,,,,,,,,,,,,,,,,,,,,,,,,,,,,,,,,,,,,,,,,,,,,,,,,,,,,,,,,,,,,,,,,,,,,,,,,,,,,,,,,,,,,,,,,,,,,,,,,,,,,,
,,,,,,5edd2e458f29cfa351de300d,62bbfb55d905a5fac415c7af,2022-06-29_02h13.24.731,Colour_Asymmetry_Pilot,2022.1.3,Win32,60.0528465,62bbe60bf3d75ef465d3e404,0,115,115,49,1,onethree,,,,,,,,,,,,,,,,,,,,,,,,,,,,,,,,,,,,,,,,,,,,,,,,,,,,,,,,,,,,,,,,,,,,,,,,,,,,,,,,,,,,,,,,,,,,,,,,,,,,,,,,,,,,,,,,,,,,,,,,,,,,,,,,,,,,,,,,,,,,,,,,,,,,,
,,,,,,5edd2e458f29cfa351de300d,62bbfb55d905a5fac415c7af,2022-06-29_02h13.24.731,Colour_Asymmetry_Pilot,2022.1.3,Win32,60.0528465,62bbe60bf3d75ef465d3e404,0,116,116,116,1,threeone,,,,,,,,,,,,,,,,,,,,,,,,,,,,,,,,,,,,,,,,,,,,,,,,,,,,,,,,,,,,,,,,,,,,,,,,,,,,,,,,,,,,,,,,,,,,,,,,,,,,,,,,,,,,,,,,,,,,,,,,,,,,,,,,,,,,,,,,,,,,,,,,,,,,,
,,,,,,5edd2e458f29cfa351de300d,62bbfb55d905a5fac415c7af,2022-06-29_02h13.24.731,Colour_Asymmetry_Pilot,2022.1.3,Win32,60.0528465,62bbe60bf3d75ef465d3e404,0,117,117,74,1,twoone,,,,,,,,,,,,,,,,,,,,,,,,,,,,,,,,,,,,,,,,,,,,,,,,,,,,,,,,,,,,,,,,,,,,,,,,,,,,,,,,,,,,,,,,,,,,,,,,,,,,,,,,,,,,,,,,,,,,,,,,,,,,,,,,,,,,,,,,,,,,,,,,,,,,,
,,,,,,5edd2e458f29cfa351de300d,62bbfb55d905a5fac415c7af,2022-06-29_02h13.24.731,Colour_Asymmetry_Pilot,2022.1.3,Win32,60.0528465,62bbe60bf3d75ef465d3e404,0,118,118,93,1,threefour,,,,,,,,,,,,,,,,,,,,,,,,,,,,,,,,,,,,,,,,,,,,,,,,,,,,,,,,,,,,,,,,,,,,,,,,,,,,,,,,,,,,,,,,,,,,,,,,,,,,,,,,,,,,,,,,,,,,,,,,,,,,,,,,,,,,,,,,,,,,,,,,,,,,,
,,,,,,5edd2e458f29cfa351de300d,62bbfb55d905a5fac415c7af,2022-06-29_02h13.24.731,Colour_Asymmetry_Pilot,2022.1.3,Win32,60.0528465,62bbe60bf3d75ef465d3e404,0,119,119,38,1,fourtwo,,,,,,,,,,,,,,,,,,,,,,,,,,,,,,,,,,,,,,,,,,,,,,,,,,,,,,,,,,,,,,,,,,,,,,,,,,,,,,,,,,,,,,,,,,,,,,,,,,,,,,,,,,,,,,,,,,,,,,,,,,,,,,,,,,,,,,,,,,,,,,,,,,,,,
,,,,,,5edd2e458f29cfa351de300d,62bbfb55d905a5fac415c7af,2022-06-29_02h13.24.731,Colour_Asymmetry_Pilot,2022.1.3,Win32,60.0528465,62bbe60bf3d75ef465d3e404,0,120,120,130,1,twoone,,,,,,,,,,,,,,,,,,,,,,,,,,,,,,,,,,,,,,,,,,,,,,,,,,,,,,,,,,,,,,,,,,,,,,,,,,,,,,,,,,,,,,,,,,,,,,,,,,,,,,,,,,,,,,,,,,,,,,,,,,,,,,,,,,,,,,,,,,,,,,,,,,,,,
,,,,,,5edd2e458f29cfa351de300d,62bbfb55d905a5fac415c7af,2022-06-29_02h13.24.731,Colour_Asymmetry_Pilot,2022.1.3,Win32,60.0528465,62bbe60bf3d75ef465d3e404,0,121,121,77,1,threefour,,,,,,,,,,,,,,,,,,,,,,,,,,,,,,,,,,,,,,,,,,,,,,,,,,,,,,,,,,,,,,,,,,,,,,,,,,,,,,,,,,,,,,,,,,,,,,,,,,,,,,,,,,,,,,,,,,,,,,,,,,,,,,,,,,,,,,,,,,,,,,,,,,,,,
,,,,,,5edd2e458f29cfa351de300d,62bbfb55d905a5fac415c7af,2022-06-29_02h13.24.731,Colour_Asymmetry_Pilot,2022.1.3,Win32,60.0528465,62bbe60bf3d75ef465d3e404,0,122,122,91,1,twofour,,,,,,,,,,,,,,,,,,,,,,,,,,,,,,,,,,,,,,,,,,,,,,,,,,,,,,,,,,,,,,,,,,,,,,,,,,,,,,,,,,,,,,,,,,,,,,,,,,,,,,,,,,,,,,,,,,,,,,,,,,,,,,,,,,,,,,,,,,,,,,,,,,,,,
,,,,,,5edd2e458f29cfa351de300d,62bbfb55d905a5fac415c7af,2022-06-29_02h13.24.731,Colour_Asymmetry_Pilot,2022.1.3,Win32,60.0528465,62bbe60bf3d75ef465d3e404,0,123,123,102,1,fourtwo,,,,,,,,,,,,,,,,,,,,,,,,,,,,,,,,,,,,,,,,,,,,,,,,,,,,,,,,,,,,,,,,,,,,,,,,,,,,,,,,,,,,,,,,,,,,,,,,,,,,,,,,,,,,,,,,,,,,,,,,,,,,,,,,,,,,,,,,,,,,,,,,,,,,,
,,,,,,5edd2e458f29cfa351de300d,62bbfb55d905a5fac415c7af,2022-06-29_02h13.24.731,Colour_Asymmetry_Pilot,2022.1.3,Win32,60.0528465,62bbe60bf3d75ef465d3e404,0,124,124,64,1,onetwo,,,,,,,,,,,,,,,,,,,,,,,,,,,,,,,,,,,,,,,,,,,,,,,,,,,,,,,,,,,,,,,,,,,,,,,,,,,,,,,,,,,,,,,,,,,,,,,,,,,,,,,,,,,,,,,,,,,,,,,,,,,,,,,,,,,,,,,,,,,,,,,,,,,,,
,,,,,,5edd2e458f29cfa351de300d,62bbfb55d905a5fac415c7af,2022-06-29_02h13.24.731,Colour_Asymmetry_Pilot,2022.1.3,Win32,60.0528465,62bbe60bf3d75ef465d3e404,0,125,125,52,1,threeone,,,,,,,,,,,,,,,,,,,,,,,,,,,,,,,,,,,,,,,,,,,,,,,,,,,,,,,,,,,,,,,,,,,,,,,,,,,,,,,,,,,,,,,,,,,,,,,,,,,,,,,,,,,,,,,,,,,,,,,,,,,,,,,,,,,,,,,,,,,,,,,,,,,,,
,,,,,,5edd2e458f29cfa351de300d,62bbfb55d905a5fac415c7af,2022-06-29_02h13.24.731,Colour_Asymmetry_Pilot,2022.1.3,Win32,60.0528465,62bbe60bf3d75ef465d3e404,0,126,126,142,1,fourtwo,,,,,,,,,,,,,,,,,,,,,,,,,,,,,,,,,,,,,,,,,,,,,,,,,,,,,,,,,,,,,,,,,,,,,,,,,,,,,,,,,,,,,,,,,,,,,,,,,,,,,,,,,,,,,,,,,,,,,,,,,,,,,,,,,,,,,,,,,,,,,,,,,,,,,
,,,,,,5edd2e458f29cfa351de300d,62bbfb55d905a5fac415c7af,2022-06-29_02h13.24.731,Colour_Asymmetry_Pilot,2022.1.3,Win32,60.0528465,62bbe60bf3d75ef465d3e404,0,127,127,24,1,onetwo,,,,,,,,,,,,,,,,,,,,,,,,,,,,,,,,,,,,,,,,,,,,,,,,,,,,,,,,,,,,,,,,,,,,,,,,,,,,,,,,,,,,,,,,,,,,,,,,,,,,,,,,,,,,,,,,,,,,,,,,,,,,,,,,,,,,,,,,,,,,,,,,,,,,,
,,,,,,5edd2e458f29cfa351de300d,62bbfb55d905a5fac415c7af,2022-06-29_02h13.24.731,Colour_Asymmetry_Pilot,2022.1.3,Win32,60.0528465,62bbe60bf3d75ef465d3e404,0,128,128,4,1,threeone,,,,,,,,,,,,,,,,,,,,,,,,,,,,,,,,,,,,,,,,,,,,,,,,,,,,,,,,,,,,,,,,,,,,,,,,,,,,,,,,,,,,,,,,,,,,,,,,,,,,,,,,,,,,,,,,,,,,,,,,,,,,,,,,,,,,,,,,,,,,,,,,,,,,,
,,,,,,5edd2e458f29cfa351de300d,62bbfb55d905a5fac415c7af,2022-06-29_02h13.24.731,Colour_Asymmetry_Pilot,2022.1.3,Win32,60.0528465,62bbe60bf3d75ef465d3e404,0,129,129,147,1,twofour,,,,,,,,,,,,,,,,,,,,,,,,,,,,,,,,,,,,,,,,,,,,,,,,,,,,,,,,,,,,,,,,,,,,,,,,,,,,,,,,,,,,,,,,,,,,,,,,,,,,,,,,,,,,,,,,,,,,,,,,,,,,,,,,,,,,,,,,,,,,,,,,,,,,,
,,,,,,5edd2e458f29cfa351de300d,62bbfb55d905a5fac415c7af,2022-06-29_02h13.24.731,Colour_Asymmetry_Pilot,2022.1.3,Win32,60.0528465,62bbe60bf3d75ef465d3e404,0,130,130,132,1,threeone,,,,,,,,,,,,,,,,,,,,,,,,,,,,,,,,,,,,,,,,,,,,,,,,,,,,,,,,,,,,,,,,,,,,,,,,,,,,,,,,,,,,,,,,,,,,,,,,,,,,,,,,,,,,,,,,,,,,,,,,,,,,,,,,,,,,,,,,,,,,,,,,,,,,,
,,,,,,5edd2e458f29cfa351de300d,62bbfb55d905a5fac415c7af,2022-06-29_02h13.24.731,Colour_Asymmetry_Pilot,2022.1.3,Win32,60.0528465,62bbe60bf3d75ef465d3e404,0,131,131,80,1,onetwo,,,,,,,,,,,,,,,,,,,,,,,,,,,,,,,,,,,,,,,,,,,,,,,,,,,,,,,,,,,,,,,,,,,,,,,,,,,,,,,,,,,,,,,,,,,,,,,,,,,,,,,,,,,,,,,,,,,,,,,,,,,,,,,,,,,,,,,,,,,,,,,,,,,,,
,,,,,,5edd2e458f29cfa351de300d,62bbfb55d905a5fac415c7af,2022-06-29_02h13.24.731,Colour_Asymmetry_Pilot,2022.1.3,Win32,60.0528465,62bbe60bf3d75ef465d3e404,0,132,132,76,1,threeone,,,,,,,,,,,,,,,,,,,,,,,,,,,,,,,,,,,,,,,,,,,,,,,,,,,,,,,,,,,,,,,,,,,,,,,,,,,,,,,,,,,,,,,,,,,,,,,,,,,,,,,,,,,,,,,,,,,,,,,,,,,,,,,,,,,,,,,,,,,,,,,,,,,,,
,,,,,,5edd2e458f29cfa351de300d,62bbfb55d905a5fac415c7af,2022-06-29_02h13.24.731,Colour_Asymmetry_Pilot,2022.1.3,Win32,60.0528465,62bbe60bf3d75ef465d3e404,0,133,133,140,1,threeone,,,,,,,,,,,,,,,,,,,,,,,,,,,,,,,,,,,,,,,,,,,,,,,,,,,,,,,,,,,,,,,,,,,,,,,,,,,,,,,,,,,,,,,,,,,,,,,,,,,,,,,,,,,,,,,,,,,,,,,,,,,,,,,,,,,,,,,,,,,,,,,,,,,,,
,,,,,,5edd2e458f29cfa351de300d,62bbfb55d905a5fac415c7af,2022-06-29_02h13.24.731,Colour_Asymmetry_Pilot,2022.1.3,Win32,60.0528465,62bbe60bf3d75ef465d3e404,0,134,134,16,1,onetwo,,,,,,,,,,,,,,,,,,,,,,,,,,,,,,,,,,,,,,,,,,,,,,,,,,,,,,,,,,,,,,,,,,,,,,,,,,,,,,,,,,,,,,,,,,,,,,,,,,,,,,,,,,,,,,,,,,,,,,,,,,,,,,,,,,,,,,,,,,,,,,,,,,,,,
,,,,,,5edd2e458f29cfa351de300d,62bbfb55d905a5fac415c7af,2022-06-29_02h13.24.731,Colour_Asymmetry_Pilot,2022.1.3,Win32,60.0528465,62bbe60bf3d75ef465d3e404,0,135,135,29,1,threefour,,,,,,,,,,,,,,,,,,,,,,,,,,,,,,,,,,,,,,,,,,,,,,,,,,,,,,,,,,,,,,,,,,,,,,,,,,,,,,,,,,,,,,,,,,,,,,,,,,,,,,,,,,,,,,,,,,,,,,,,,,,,,,,,,,,,,,,,,,,,,,,,,,,,,
,,,,,,5edd2e458f29cfa351de300d,62bbfb55d905a5fac415c7af,2022-06-29_02h13.24.731,Colour_Asymmetry_Pilot,2022.1.3,Win32,60.0528465,62bbe60bf3d75ef465d3e404,0,136,136,85,1,threefour,,,,,,,,,,,,,,,,,,,,,,,,,,,,,,,,,,,,,,,,,,,,,,,,,,,,,,,,,,,,,,,,,,,,,,,,,,,,,,,,,,,,,,,,,,,,,,,,,,,,,,,,,,,,,,,,,,,,,,,,,,,,,,,,,,,,,,,,,,,,,,,,,,,,,
,,,,,,5edd2e458f29cfa351de300d,62bbfb55d905a5fac415c7af,2022-06-29_02h13.24.731,Colour_Asymmetry_Pilot,2022.1.3,Win32,60.0528465,62bbe60bf3d75ef465d3e404,0,137,137,95,1,fourthree,,,,,,,,,,,,,,,,,,,,,,,,,,,,,,,,,,,,,,,,,,,,,,,,,,,,,,,,,,,,,,,,,,,,,,,,,,,,,,,,,,,,,,,,,,,,,,,,,,,,,,,,,,,,,,,,,,,,,,,,,,,,,,,,,,,,,,,,,,,,,,,,,,,,,
,,,,,,5edd2e458f29cfa351de300d,62bbfb55d905a5fac415c7af,2022-06-29_02h13.24.731,Colour_Asymmetry_Pilot,2022.1.3,Win32,60.0528465,62bbe60bf3d75ef465d3e404,0,138,138,17,1,onethree,,,,,,,,,,,,,,,,,,,,,,,,,,,,,,,,,,,,,,,,,,,,,,,,,,,,,,,,,,,,,,,,,,,,,,,,,,,,,,,,,,,,,,,,,,,,,,,,,,,,,,,,,,,,,,,,,,,,,,,,,,,,,,,,,,,,,,,,,,,,,,,,,,,,,
,,,,,,5edd2e458f29cfa351de300d,62bbfb55d905a5fac415c7af,2022-06-29_02h13.24.731,Colour_Asymmetry_Pilot,2022.1.3,Win32,60.0528465,62bbe60bf3d75ef465d3e404,0,139,139,75,1,twofour,,,,,,,,,,,,,,,,,,,,,,,,,,,,,,,,,,,,,,,,,,,,,,,,,,,,,,,,,,,,,,,,,,,,,,,,,,,,,,,,,,,,,,,,,,,,,,,,,,,,,,,,,,,,,,,,,,,,,,,,,,,,,,,,,,,,,,,,,,,,,,,,,,,,,
,,,,,,5edd2e458f29cfa351de300d,62bbfb55d905a5fac415c7af,2022-06-29_02h13.24.731,Colour_Asymmetry_Pilot,2022.1.3,Win32,60.0528465,62bbe60bf3d75ef465d3e404,0,140,140,68,1,threeone,,,,,,,,,,,,,,,,,,,,,,,,,,,,,,,,,,,,,,,,,,,,,,,,,,,,,,,,,,,,,,,,,,,,,,,,,,,,,,,,,,,,,,,,,,,,,,,,,,,,,,,,,,,,,,,,,,,,,,,,,,,,,,,,,,,,,,,,,,,,,,,,,,,,,
,,,,,,5edd2e458f29cfa351de300d,62bbfb55d905a5fac415c7af,2022-06-29_02h13.24.731,Colour_Asymmetry_Pilot,2022.1.3,Win32,60.0528465,62bbe60bf3d75ef465d3e404,0,141,141,22,1,fourtwo,,,,,,,,,,,,,,,,,,,,,,,,,,,,,,,,,,,,,,,,,,,,,,,,,,,,,,,,,,,,,,,,,,,,,,,,,,,,,,,,,,,,,,,,,,,,,,,,,,,,,,,,,,,,,,,,,,,,,,,,,,,,,,,,,,,,,,,,,,,,,,,,,,,,,
,,,,,,5edd2e458f29cfa351de300d,62bbfb55d905a5fac415c7af,2022-06-29_02h13.24.731,Colour_Asymmetry_Pilot,2022.1.3,Win32,60.0528465,62bbe60bf3d75ef465d3e404,0,142,142,111,1,fourthree,,,,,,,,,,,,,,,,,,,,,,,,,,,,,,,,,,,,,,,,,,,,,,,,,,,,,,,,,,,,,,,,,,,,,,,,,,,,,,,,,,,,,,,,,,,,,,,,,,,,,,,,,,,,,,,,,,,,,,,,,,,,,,,,,,,,,,,,,,,,,,,,,,,,,
,,,,,,5edd2e458f29cfa351de300d,62bbfb55d905a5fac415c7af,2022-06-29_02h13.24.731,Colour_Asymmetry_Pilot,2022.1.3,Win32,60.0528465,62bbe60bf3d75ef465d3e404,0,143,143,120,1,onetwo,,,,,,,,,,,,,,,,,,,,,,,,,,,,,,,,,,,,,,,,,,,,,,,,,,,,,,,,,,,,,,,,,,,,,,,,,,,,,,,,,,,,,,,,,,,,,,,,,,,,,,,,,,,,,,,,,,,,,,,,,,,,,,,,,,,,,,,,,,,,,,,,,,,,,
,,,,,,5edd2e458f29cfa351de300d,62bbfb55d905a5fac415c7af,2022-06-29_02h13.24.731,Colour_Asymmetry_Pilot,2022.1.3,Win32,60.0528465,62bbe60bf3d75ef465d3e404,0,144,144,20,1,threeone,,,,,,,,,,,,,,,,,,,,,,,,,,,,,,,,,,,,,,,,,,,,,,,,,,,,,,,,,,,,,,,,,,,,,,,,,,,,,,,,,,,,,,,,,,,,,,,,,,,,,,,,,,,,,,,,,,,,,,,,,,,,,,,,,,,,,,,,,,,,,,,,,,,,,
,,,,,,5edd2e458f29cfa351de300d,62bbfb55d905a5fac415c7af,2022-06-29_02h13.24.731,Colour_Asymmetry_Pilot,2022.1.3,Win32,60.0528465,62bbe60bf3d75ef465d3e404,0,145,145,67,1,twofour,,,,,,,,,,,,,,,,,,,,,,,,,,,,,,,,,,,,,,,,,,,,,,,,,,,,,,,,,,,,,,,,,,,,,,,,,,,,,,,,,,,,,,,,,,,,,,,,,,,,,,,,,,,,,,,,,,,,,,,,,,,,,,,,,,,,,,,,,,,,,,,,,,,,,
,,,,,,5edd2e458f29cfa351de300d,62bbfb55d905a5fac415c7af,2022-06-29_02h13.24.731,Colour_Asymmetry_Pilot,2022.1.3,Win32,60.0528465,62bbe60bf3d75ef465d3e404,0,146,146,138,1,twoone,,,,,,,,,,,,,,,,,,,,,,,,,,,,,,,,,,,,,,,,,,,,,,,,,,,,,,,,,,,,,,,,,,,,,,,,,,,,,,,,,,,,,,,,,,,,,,,,,,,,,,,,,,,,,,,,,,,,,,,,,,,,,,,,,,,,,,,,,,,,,,,,,,,,,
,,,,,,5edd2e458f29cfa351de300d,62bbfb55d905a5fac415c7af,2022-06-29_02h13.24.731,Colour_Asymmetry_Pilot,2022.1.3,Win32,60.0528465,62bbe60bf3d75ef465d3e404,0,147,147,106,1,twoone,,,,,,,,,,,,,,,,,,,,,,,,,,,,,,,,,,,,,,,,,,,,,,,,,,,,,,,,,,,,,,,,,,,,,,,,,,,,,,,,,,,,,,,,,,,,,,,,,,,,,,,,,,,,,,,,,,,,,,,,,,,,,,,,,,,,,,,,,,,,,,,,,,,,,
,,,,,,5edd2e458f29cfa351de300d,62bbfb55d905a5fac415c7af,2022-06-29_02h13.24.731,Colour_Asymmetry_Pilot,2022.1.3,Win32,60.0528465,62bbe60bf3d75ef465d3e404,0,148,148,57,1,onethree,,,,,,,,,,,,,,,,,,,,,,,,,,,,,,,,,,,,,,,,,,,,,,,,,,,,,,,,,,,,,,,,,,,,,,,,,,,,,,,,,,,,,,,,,,,,,,,,,,,,,,,,,,,,,,,,,,,,,,,,,,,,,,,,,,,,,,,,,,,,,,,,,,,,,
,,,,,,5edd2e458f29cfa351de300d,62bbfb55d905a5fac415c7af,2022-06-29_02h13.24.731,Colour_Asymmetry_Pilot,2022.1.3,Win32,60.0528465,62bbe60bf3d75ef465d3e404,0,149,149,161,1,onethree,,,,,,,,,,,,,,,,,,,,,,,,,,,,,,,,,,,,,,,,,,,,,,,,,,,,,,,,,,,,,,,,,,,,,,,,,,,,,,,,,,,,,,,,,,,,,,,,,,,,,,,,,,,,,,,,,,,,,,,,,,,,,,,,,,,,,,,,,,,,,,,,,,,,,
,,,,,,5edd2e458f29cfa351de300d,62bbfb55d905a5fac415c7af,2022-06-29_02h13.24.731,Colour_Asymmetry_Pilot,2022.1.3,Win32,60.0528465,62bbe60bf3d75ef465d3e404,0,150,150,79,1,fourthree,,,,,,,,,,,,,,,,,,,,,,,,,,,,,,,,,,,,,,,,,,,,,,,,,,,,,,,,,,,,,,,,,,,,,,,,,,,,,,,,,,,,,,,,,,,,,,,,,,,,,,,,,,,,,,,,,,,,,,,,,,,,,,,,,,,,,,,,,,,,,,,,,,,,,
,,,,,,5edd2e458f29cfa351de300d,62bbfb55d905a5fac415c7af,2022-06-29_02h13.24.731,Colour_Asymmetry_Pilot,2022.1.3,Win32,60.0528465,62bbe60bf3d75ef465d3e404,0,151,151,133,1,threefour,,,,,,,,,,,,,,,,,,,,,,,,,,,,,,,,,,,,,,,,,,,,,,,,,,,,,,,,,,,,,,,,,,,,,,,,,,,,,,,,,,,,,,,,,,,,,,,,,,,,,,,,,,,,,,,,,,,,,,,,,,,,,,,,,,,,,,,,,,,,,,,,,,,,,
,,,,,,5edd2e458f29cfa351de300d,62bbfb55d905a5fac415c7af,2022-06-29_02h13.24.731,Colour_Asymmetry_Pilot,2022.1.3,Win32,60.0528465,62bbe60bf3d75ef465d3e404,0,152,152,42,1,twoone,,,,,,,,,,,,,,,,,,,,,,,,,,,,,,,,,,,,,,,,,,,,,,,,,,,,,,,,,,,,,,,,,,,,,,,,,,,,,,,,,,,,,,,,,,,,,,,,,,,,,,,,,,,,,,,,,,,,,,,,,,,,,,,,,,,,,,,,,,,,,,,,,,,,,
,,,,,,5edd2e458f29cfa351de300d,62bbfb55d905a5fac415c7af,2022-06-29_02h13.24.731,Colour_Asymmetry_Pilot,2022.1.3,Win32,60.0528465,62bbe60bf3d75ef465d3e404,0,153,153,54,1,fourtwo,,,,,,,,,,,,,,,,,,,,,,,,,,,,,,,,,,,,,,,,,,,,,,,,,,,,,,,,,,,,,,,,,,,,,,,,,,,,,,,,,,,,,,,,,,,,,,,,,,,,,,,,,,,,,,,,,,,,,,,,,,,,,,,,,,,,,,,,,,,,,,,,,,,,,
,,,,,,5edd2e458f29cfa351de300d,62bbfb55d905a5fac415c7af,2022-06-29_02h13.24.731,Colour_Asymmetry_Pilot,2022.1.3,Win32,60.0528465,62bbe60bf3d75ef465d3e404,0,154,154,58,1,twoone,,,,,,,,,,,,,,,,,,,,,,,,,,,,,,,,,,,,,,,,,,,,,,,,,,,,,,,,,,,,,,,,,,,,,,,,,,,,,,,,,,,,,,,,,,,,,,,,,,,,,,,,,,,,,,,,,,,,,,,,,,,,,,,,,,,,,,,,,,,,,,,,,,,,,
,,,,,,5edd2e458f29cfa351de300d,62bbfb55d905a5fac415c7af,2022-06-29_02h13.24.731,Colour_Asymmetry_Pilot,2022.1.3,Win32,60.0528465,62bbe60bf3d75ef465d3e404,0,155,155,123,1,twofour,,,,,,,,,,,,,,,,,,,,,,,,,,,,,,,,,,,,,,,,,,,,,,,,,,,,,,,,,,,,,,,,,,,,,,,,,,,,,,,,,,,,,,,,,,,,,,,,,,,,,,,,,,,,,,,,,,,,,,,,,,,,,,,,,,,,,,,,,,,,,,,,,,,,,
,,,,,,5edd2e458f29cfa351de300d,62bbfb55d905a5fac415c7af,2022-06-29_02h13.24.731,Colour_Asymmetry_Pilot,2022.1.3,Win32,60.0528465,62bbe60bf3d75ef465d3e404,0,156,156,70,1,fourtwo,,,,,,,,,,,,,,,,,,,,,,,,,,,,,,,,,,,,,,,,,,,,,,,,,,,,,,,,,,,,,,,,,,,,,,,,,,,,,,,,,,,,,,,,,,,,,,,,,,,,,,,,,,,,,,,,,,,,,,,,,,,,,,,,,,,,,,,,,,,,,,,,,,,,,
,,,,,,5edd2e458f29cfa351de300d,62bbfb55d905a5fac415c7af,2022-06-29_02h13.24.731,Colour_Asymmetry_Pilot,2022.1.3,Win32,60.0528465,62bbe60bf3d75ef465d3e404,0,157,157,30,1,fourtwo,,,,,,,,,,,,,,,,,,,,,,,,,,,,,,,,,,,,,,,,,,,,,,,,,,,,,,,,,,,,,,,,,,,,,,,,,,,,,,,,,,,,,,,,,,,,,,,,,,,,,,,,,,,,,,,,,,,,,,,,,,,,,,,,,,,,,,,,,,,,,,,,,,,,,
,,,,,,5edd2e458f29cfa351de300d,62bbfb55d905a5fac415c7af,2022-06-29_02h13.24.731,Colour_Asymmetry_Pilot,2022.1.3,Win32,60.0528465,62bbe60bf3d75ef465d3e404,0,158,158,105,1,onethree,,,,,,,,,,,,,,,,,,,,,,,,,,,,,,,,,,,,,,,,,,,,,,,,,,,,,,,,,,,,,,,,,,,,,,,,,,,,,,,,,,,,,,,,,,,,,,,,,,,,,,,,,,,,,,,,,,,,,,,,,,,,,,,,,,,,,,,,,,,,,,,,,,,,,
,,,,,,5edd2e458f29cfa351de300d,62bbfb55d905a5fac415c7af,2022-06-29_02h13.24.731,Colour_Asymmetry_Pilot,2022.1.3,Win32,60.0528465,62bbe60bf3d75ef465d3e404,0,159,159,122,1,twoone,,,,,,,,,,,,,,,,,,,,,,,,,,,,,,,,,,,,,,,,,,,,,,,,,,,,,,,,,,,,,,,,,,,,,,,,,,,,,,,,,,,,,,,,,,,,,,,,,,,,,,,,,,,,,,,,,,,,,,,,,,,,,,,,,,,,,,,,,,,,,,,,,,,,,
,,,,,,5edd2e458f29cfa351de300d,62bbfb55d905a5fac415c7af,2022-06-29_02h13.24.731,Colour_Asymmetry_Pilot,2022.1.3,Win32,60.0528465,62bbe60bf3d75ef465d3e404,0,160,160,137,1,onethree,,,,,,,,,,,,,,,,,,,,,,,,,,,,,,,,,,,,,,,,,,,,,,,,,,,,,,,,,,,,,,,,,,,,,,,,,,,,,,,,,,,,,,,,,,,,,,,,,,,,,,,,,,,,,,,,,,,,,,,,,,,,,,,,,,,,,,,,,,,,,,,,,,,,,
,,,,,,5edd2e458f29cfa351de300d,62bbfb55d905a5fac415c7af,2022-06-29_02h13.24.731,Colour_Asymmetry_Pilot,2022.1.3,Win32,60.0528465,62bbe60bf3d75ef465d3e404,0,161,161,152,1,onetwo,,,,,,,,,,,,,,,,,,,,,,,,,,,,,,,,,,,,,,,,,,,,,,,,,,,,,,,,,,,,,,,,,,,,,,,,,,,,,,,,,,,,,,,,,,,,,,,,,,,,,,,,,,,,,,,,,,,,,,,,,,,,,,,,,,,,,,,,,,,,,,,,,,,,,
,,,,,,5edd2e458f29cfa351de300d,62bbfb55d905a5fac415c7af,2022-06-29_02h13.24.731,Colour_Asymmetry_Pilot,2022.1.3,Win32,60.0528465,62bbe60bf3d75ef465d3e404,,,,,,,space,117.2933,space,90.0379,space,61.0197,space,17.479,space,5.8497,space,10.4452,"[1,0.12939999999999996,-1]",twofour,"[0.796,0.2156,-0.27859999999999996]",3,6.4793,89.60001278,26.39999396,1,0,0,response1disk_5,-1.59998858,2.399993598,1,0,0,rectangle_8,-1.59998858,2.399993598,1,0,0,3,-1.59998858,2.399993598,1,0,0,0,0,0,0,1,,,,,,,,,,,,,,,,,,,,,,,,,,,,,,,,,,,,,,,,,,,,,,,,,,,,,,,,,,,,,,,,,,,,,,,,,,,,,,,,,,,,,,,,,,,,,,,,,,,,,,,,
,,,,,,5edd2e458f29cfa351de300d,62bbfb55d905a5fac415c7af,2022-06-29_02h13.24.731,Colour_Asymmetry_Pilot,2022.1.3,Win32,60.0528465,62bbe60bf3d75ef465d3e404,,,,,,,,,,,,,,,,,,,"[0.40379999999999994,0.09000000000000008,0.44300000000000006]",fourthree,"[-0.011800000000000033,-0.906,-0.45100000000000007]",-3,4.2075,-63.99998951,35.19996967,1,0,0,response7disk_5,-11.99998873,-4.000006497,1,0,0,rectangle_8,-11.99998873,-4.000006497,1,0,0,3,-11.99998873,-4.000006497,1,0,0,1,0,1,0,1,,,,,,,,,,,,,,,,,,,,,,,,,,,,,,,,,,,,,,,,,,,,,,,,,,,,,,,,,,,,,,,,,,,,,,,,,,,,,,,,,,,,,,,,,,,,,,,,,,,,,,,,
,,,,,,5edd2e458f29cfa351de300d,62bbfb55d905a5fac415c7af,2022-06-29_02h13.24.731,Colour_Asymmetry_Pilot,2022.1.3,Win32,60.0528465,62bbe60bf3d75ef465d3e404,,,,,,,,,,,,,,,,,,,"[0.9763999999999999,0.8588,-0.05900000000000005]",onetwo,"[0.12939999999999996,-0.2864,0.3253999999999999]",-4,1.8787,-30.39994018,86.39999485,1,0,0,response7disk_5,8.800011575,-3.200006485,1,0,0,rectangle_8,8.800011575,-3.200006485,1,0,0,3,8.800011575,-3.200006485,1,0,0,2,0,2,0,1,,,,,,,,,,,,,,,,,,,,,,,,,,,,,,,,,,,,,,,,,,,,,,,,,,,,,,,,,,,,,,,,,,,,,,,,,,,,,,,,,,,,,,,,,,,,,,,,,,,,,,,,
,,,,,,5edd2e458f29cfa351de300d,62bbfb55d905a5fac415c7af,2022-06-29_02h13.24.731,Colour_Asymmetry_Pilot,2022.1.3,Win32,60.0528465,62bbe60bf3d75ef465d3e404,,,,,,,,,,,,,,,,,,,"[0.12939999999999996,-0.2864,0.3253999999999999]",threefour,"[0.3568,-0.20799999999999996,-0.9844]",-4,1.8091,-31.19998902,54.39999437,1,0,0,response7disk_5,-3.999988616,-12.80000663,1,0,0,rectangle_8,-3.999988616,-12.80000663,1,0,0,3,-3.999988616,-12.80000663,1,0,0,3,0,3,0,1,,,,,,,,,,,,,,,,,,,,,,,,,,,,,,,,,,,,,,,,,,,,,,,,,,,,,,,,,,,,,,,,,,,,,,,,,,,,,,,,,,,,,,,,,,,,,,,,,,,,,,,,
,,,,,,5edd2e458f29cfa351de300d,62bbfb55d905a5fac415c7af,2022-06-29_02h13.24.731,Colour_Asymmetry_Pilot,2022.1.3,Win32,60.0528465,62bbe60bf3d75ef465d3e404,,,,,,,,,,,,,,,,,,,"[0.9842,0.7409999999999999,-0.6628000000000001]",onetwo,"[-0.45899999999999996,-0.3256,-0.9374]",-4,1.6632,-26.39994012,76.79999471,1,0,0,response7disk_5,-16.79998881,-6.400006533,1,0,0,rectangle_8,-16.79998881,-6.400006533,1,0,0,3,-16.79998881,-6.400006533,1,0,0,4,0,4,0,1,,,,,,,,,,,,,,,,,,,,,,,,,,,,,,,,,,,,,,,,,,,,,,,,,,,,,,,,,,,,,,,,,,,,,,,,,,,,,,,,,,,,,,,,,,,,,,,,,,,,,,,,
,,,,,,5edd2e458f29cfa351de300d,62bbfb55d905a5fac415c7af,2022-06-29_02h13.24.731,Colour_Asymmetry_Pilot,2022.1.3,Win32,60.0528465,62bbe60bf3d75ef465d3e404,,,,,,,,,,,,,,,,,,,"[0.9372,0.20779999999999998,0.2704]",onetwo,"[0.12939999999999996,-0.2864,0.3253999999999999]",-4,2.3799,-39.99998915,55.9999944,1,0,0,response7disk_5,1.600060296,-11.2000066,1,0,0,rectangle_8,1.600060296,-11.2000066,1,0,0,3,1.600060296,-11.2000066,1,0,0,5,0,5,0,1,,,,,,,,,,,,,,,,,,,,,,,,,,,,,,,,,,,,,,,,,,,,,,,,,,,,,,,,,,,,,,,,,,,,,,,,,,,,,,,,,,,,,,,,,,,,,,,,,,,,,,,,
,,,,,,5edd2e458f29cfa351de300d,62bbfb55d905a5fac415c7af,2022-06-29_02h13.24.731,Colour_Asymmetry_Pilot,2022.1.3,Win32,60.0528465,62bbe60bf3d75ef465d3e404,,,,,,,,,,,,,,,,,,,"[0.23920000000000008,0.2704,0.16060000000000008]",fourthree,"[0.23920000000000008,0.2704,0.16060000000000008]",4,1.1833,24.0000118,83.99999481,1,0,0,response1disk_5,-9.599988699,-5.600006521,1,0,0,rectangle_8,-9.599988699,-5.600006521,1,0,0,3,-9.599988699,-5.600006521,1,0,0,6,0,6,0,1,,,,,,,,,,,,,,,,,,,,,,,,,,,,,,,,,,,,,,,,,,,,,,,,,,,,,,,,,,,,,,,,,,,,,,,,,,,,,,,,,,,,,,,,,,,,,,,,,,,,,,,,
,,,,,,5edd2e458f29cfa351de300d,62bbfb55d905a5fac415c7af,2022-06-29_02h13.24.731,Colour_Asymmetry_Pilot,2022.1.3,Win32,60.0528465,62bbe60bf3d75ef465d3e404,,,,,,,,,,,,,,,,,,,,fourthree,,3,1.5293,,,,,,,,,,,,,,,,,,,,,,,,,,,,,space,4.6823,"[-0.38039999999999996,-0.4276,-0.1452]","[-0.8982,-0.37259999999999993,0.2784]",56.80001229,29.599994,1,0,0,response1disk,-11.99998873,-3.200006485,1,0,0,rectangle,-11.99998873,-3.200006485,1,0,0,,2,0.002,0,-11.99998873,-3.200006485,1,0,0,0,0,0,132,1,51,second,,,,,,,,,,,,,,,,,,,,,,,,,,,,,,,,,,,,,,,,,,,,,,,,,,,,,,,,,,,,,,,,,,,
,,,,,,5edd2e458f29cfa351de300d,62bbfb55d905a5fac415c7af,2022-06-29_02h13.24.731,Colour_Asymmetry_Pilot,2022.1.3,Win32,60.0528465,62bbe60bf3d75ef465d3e404,,,,,,,,,,,,,,,,,,,,threefour,,1,1.6461,,,,,,,,,,,,,,,,,,,,,,,,,,,,,,,"[0.9686000000000001,0.5763999999999998,0.11359999999999992]","[0.2862,0.7802,0.3568]",33.60006077,-82.40000767,1,0,0,response3disk,4.000011504,2.399993598,1,0,0,rectangle,33.60006077,-77.60000759,1,0,0,1,1,3.4493,1,-9.599988699,3.19999361,1,0,0,0,1,1,161,1,80,second,response3disk_3,rectangle,,,,,,,,,,,,,,,,,,,,,,,,,,,,,,,,,,,,,,,,,,,,,,,,,,,,,,,,,,,,,,,,,
,,,,,,5edd2e458f29cfa351de300d,62bbfb55d905a5fac415c7af,2022-06-29_02h13.24.731,Colour_Asymmetry_Pilot,2022.1.3,Win32,60.0528465,62bbe60bf3d75ef465d3e404,,,,,,,,,,,,,,,,,,,,fourthree,,-3,1.3273,,,,,,,,,,,,,,,,,,,,,,,,,,,,,,,"[-0.10599999999999998,-0.15300000000000002,0.15280000000000005]","[0.8274000000000001,-0.5844,-0.9452]",-51.99998933,38.39999413,1,0,0,response7disk,-11.19998872,-6.400006533,1,0,0,rectangle,-11.19998872,-6.400006533,1,0,0,1,1,0.0001,0,-11.19998872,-6.400006533,1,0,0,0,2,2,16,1,16,first,,,,,,,,,,,,,,,,,,,,,,,,,,,,,,,,,,,,,,,,,,,,,,,,,,,,,,,,,,,,,,,,,,,
,,,,,,5edd2e458f29cfa351de300d,62bbfb55d905a5fac415c7af,2022-06-29_02h13.24.731,Colour_Asymmetry_Pilot,2022.1.3,Win32,60.0528465,62bbe60bf3d75ef465d3e404,,,,,,,,,,,,,,,,,,,,threeone,,-4,3.2573,,,,,,,,,,,,,,,,,,,,,,,,,,,,,,,"[-0.9766,-0.6472,0.07440000000000002]","[0.23920000000000008,0.2704,0.16060000000000008]",-30.39994018,79.99999475,1,0,0,response7disk,-3.199988604,-3.200006485,1,0,0,rectangle,-3.199988604,-3.200006485,1,0,0,1,2,0.0008,0,-3.199988604,-3.200006485,1,0,0,0,3,3,119,1,38,second,,,,,,,,,,,,,,,,,,,,,,,,,,,,,,,,,,,,,,,,,,,,,,,,,,,,,,,,,,,,,,,,,,,
,,,,,,5edd2e458f29cfa351de300d,62bbfb55d905a5fac415c7af,2022-06-29_02h13.24.731,Colour_Asymmetry_Pilot,2022.1.3,Win32,60.0528465,62bbe60bf3d75ef465d3e404,,,,,,,,,,,,,,,,,,,,onetwo,,-1,1.1753,,,,,,,,,,,,,,,,,,,,,,,,,,,,,,,"[0.5449999999999999,-0.31000000000000005,-0.0354000000000001]","[0.40379999999999994,0.09000000000000008,0.44300000000000006]",-27.99998897,-62.40000737,1,0,0,response5disk,-0.799988568,-2.400006473,1,0,0,rectangle,-0.799988568,-2.400006473,1,0,0,1,2,0.0001,0,-0.799988568,-2.400006473,1,0,0,0,4,4,50,1,50,first,,,,,,,,,,,,,,,,,,,,,,,,,,,,,,,,,,,,,,,,,,,,,,,,,,,,,,,,,,,,,,,,,,,
,,,,,,5edd2e458f29cfa351de300d,62bbfb55d905a5fac415c7af,2022-06-29_02h13.24.731,Colour_Asymmetry_Pilot,2022.1.3,Win32,60.0528465,62bbe60bf3d75ef465d3e404,,,,,,,,,,,,,,,,,,,,threeone,,1,1.5183,,,,,,,,,,,,,,,,,,,,,,,,,,,,,,,"[-0.01980000000000004,-0.5138,-0.38039999999999996]","[-0.9688,-0.38039999999999996,-0.41979999999999995]",30.4000119,-97.60005672,1,0,0,response3disk,-0.799988568,-5.600006521,1,0,0,rectangle,-0.799988568,-5.600006521,1,0,0,1,3,0.0006,0,-0.799988568,-5.600006521,1,0,0,0,5,5,127,1,46,second,,,,,,,,,,,,,,,,,,,,,,,,,,,,,,,,,,,,,,,,,,,,,,,,,,,,,,,,,,,,,,,,,,,
,,,,,,5edd2e458f29cfa351de300d,62bbfb55d905a5fac415c7af,2022-06-29_02h13.24.731,Colour_Asymmetry_Pilot,2022.1.3,Win32,60.0528465,62bbe60bf3d75ef465d3e404,,,,,,,,,,,,,,,,,,,,twoone,,-4,6.8735,,,,,,,,,,,,,,,,,,,,,,,,,,,,,,,"[-0.0040000000000000036,0.02739999999999987,-0.08239999999999992]","[-0.9766,-0.6472,0.07440000000000002]",-22.39994006,44.79999423,1,0,0,response7disk,-2.399939764,-6.4373E-06,1,0,0,rectangle,-2.399939764,-6.4373E-06,1,0,0,1,1,0.001,0,-2.399939764,-6.4373E-06,1,0,0,0,6,6,2,1,2,first,,,,,,,,,,,,,,,,,,,,,,,,,,,,,,,,,,,,,,,,,,,,,,,,,,,,,,,,,,,,,,,,,,,
,,,,,,5edd2e458f29cfa351de300d,62bbfb55d905a5fac415c7af,2022-06-29_02h13.24.731,Colour_Asymmetry_Pilot,2022.1.3,Win32,60.0528465,62bbe60bf3d75ef465d3e404,,,,,,,,,,,,,,,,,,,,threeone,,-3,1.5038,,,,,,,,,,,,,,,,,,,,,,,,,,,,,,,"[0.7018,0.7802,-0.16079999999999994]","[-0.9766,-0.6472,0.07440000000000002]",-71.99998963,27.19996955,1,0,0,response7disk,-6.399939823,-8.800006568,1,0,0,rectangle,-6.399939823,-8.800006568,1,0,0,1,3,0.0007,0,-6.399939823,-8.800006568,1,0,0,0,7,7,152,1,71,second,,,,,,,,,,,,,,,,,,,,,,,,,,,,,,,,,,,,,,,,,,,,,,,,,,,,,,,,,,,,,,,,,,,
,,,,,,5edd2e458f29cfa351de300d,62bbfb55d905a5fac415c7af,2022-06-29_02h13.24.731,Colour_Asymmetry_Pilot,2022.1.3,Win32,60.0528465,62bbe60bf3d75ef465d3e404,,,,,,,,,,,,,,,,,,,,fourthree,,4,0.6176,,,,,,,,,,,,,,,,,,,,,,,,,,,,,,,"[0.05879999999999996,0.2784,0.5841999999999998]","[0.05879999999999996,0.2784,0.5841999999999998]",51.20001221,88.79999489,1,0,0,response1disk,7.200011551,-6.4373E-06,1,0,0,rectangle,7.200011551,-6.4373E-06,1,0,0,1,2,0.0007,0,7.200011551,-6.4373E-06,1,0,0,0,8,8,142,1,61,second,,,,,,,,,,,,,,,,,,,,,,,,,,,,,,,,,,,,,,,,,,,,,,,,,,,,,,,,,,,,,,,,,,,
,,,,,,5edd2e458f29cfa351de300d,62bbfb55d905a5fac415c7af,2022-06-29_02h13.24.731,Colour_Asymmetry_Pilot,2022.1.3,Win32,60.0528465,62bbe60bf3d75ef465d3e404,,,,,,,,,,,,,,,,,,,,onethree,,-2,1.9529,,,,,,,,,,,,,,,,,,,,,,,,,,,,,,,"[-0.9688,-0.4902000000000001,-0.12159999999999993]","[0.796,0.2156,-0.27859999999999996]",-62.39994066,-30.40000689,1,0,0,response5disk,-13.59998876,1.599993587,1,0,0,rectangle,-13.59998876,1.599993587,1,0,0,1,3,0.0007,0,-13.59998876,1.599993587,1,0,0,0,9,9,1,1,1,first,,,,,,,,,,,,,,,,,,,,,,,,,,,,,,,,,,,,,,,,,,,,,,,,,,,,,,,,,,,,,,,,,,,
,,,,,,5edd2e458f29cfa351de300d,62bbfb55d905a5fac415c7af,2022-06-29_02h13.24.731,Colour_Asymmetry_Pilot,2022.1.3,Win32,60.0528465,62bbe60bf3d75ef465d3e404,,,,,,,,,,,,,,,,,,,,threefour,,-4,1.4849,,,,,,,,,,,,,,,,,,,,,,,,,,,,,,,"[0.7646000000000002,0.07440000000000002,0.2704]","[-0.38039999999999996,-0.4276,-0.1452]",-38.3999403,61.59999448,1,0,0,response7disk,4.800011516,1.599993587,1,0,0,rectangle,85.60001272,-44.8000071,1,0,0,2,2,4.1475,1,3.200011492,-1.600006461,1,0,0,0,10,10,11,1,11,first,response3disk_3,rectangle,,,,,,,,,,,,,,,,,,,,,,,,,,,,,,,,,,,,,,,,,,,,,,,,,,,,,,,,,,,,,,,,,
,,,,,,5edd2e458f29cfa351de300d,62bbfb55d905a5fac415c7af,2022-06-29_02h13.24.731,Colour_Asymmetry_Pilot,2022.1.3,Win32,60.0528465,62bbe60bf3d75ef465d3e404,,,,,,,,,,,,,,,,,,,,twoone,,1,2.0919,,,,,,,,,,,,,,,,,,,,,,,,,,,,,,,"[-0.2942,-0.7648,-0.7492000000000001]","[-0.20799999999999996,-0.655,-0.01980000000000004]",24.80001181,-78.40000761,1,0,0,response3disk,-12.79998875,-6.4373E-06,1,0,0,rectangle,-12.79998875,-6.4373E-06,1,0,0,2,2,0.0002,0,-12.79998875,-6.4373E-06,1,0,0,0,11,11,33,1,33,first,,,,,,,,,,,,,,,,,,,,,,,,,,,,,,,,,,,,,,,,,,,,,,,,,,,,,,,,,,,,,,,,,,,
,,,,,,5edd2e458f29cfa351de300d,62bbfb55d905a5fac415c7af,2022-06-29_02h13.24.731,Colour_Asymmetry_Pilot,2022.1.3,Win32,60.0528465,62bbe60bf3d75ef465d3e404,,,,,,,,,,,,,,,,,,,,onethree,,-4,1.0293,,,,,,,,,,,,,,,,,,,,,,,,,,,,,,,"[0.23920000000000008,0.2704,0.16060000000000008]","[-0.9766,-0.6472,0.07440000000000002]",-43.1999892,74.39999467,1,0,0,response7disk,-14.39993994,3.999993622,1,0,0,rectangle,-14.39993994,3.999993622,1,0,0,2,1,0.0008,0,-14.39993994,3.999993622,1,0,0,0,12,12,38,1,38,first,,,,,,,,,,,,,,,,,,,,,,,,,,,,,,,,,,,,,,,,,,,,,,,,,,,,,,,,,,,,,,,,,,,
,,,,,,5edd2e458f29cfa351de300d,62bbfb55d905a5fac415c7af,2022-06-29_02h13.24.731,Colour_Asymmetry_Pilot,2022.1.3,Win32,60.0528465,62bbe60bf3d75ef465d3e404,,,,,,,,,,,,,,,,,,,,onetwo,,-4,1.0668,,,,,,,,,,,,,,,,,,,,,,,,,,,,,,,"[0.7646000000000002,0.07440000000000002,0.2704]","[-0.30200000000000005,0.14500000000000002,0.2784]",-32.79998904,51.19996991,1,0,0,response7disk,5.600060356,-8.000006557,1,0,0,rectangle,5.600060356,-8.000006557,1,0,0,2,3,0.0006,0,5.600060356,-8.000006557,1,0,0,0,13,13,139,1,58,second,,,,,,,,,,,,,,,,,,,,,,,,,,,,,,,,,,,,,,,,,,,,,,,,,,,,,,,,,,,,,,,,,,,
,,,,,,5edd2e458f29cfa351de300d,62bbfb55d905a5fac415c7af,2022-06-29_02h13.24.731,Colour_Asymmetry_Pilot,2022.1.3,Win32,60.0528465,62bbe60bf3d75ef465d3e404,,,,,,,,,,,,,,,,,,,,onetwo,,-1,0.9296,,,,,,,,,,,,,,,,,,,,,,,,,,,,,,,"[0.34099999999999997,0.12939999999999996,-0.9766]","[0.4196,0.4665999999999999,0.3568]",-35.99998909,-73.60000753,1,0,0,response5disk,-11.19998872,13.59999377,1,0,0,rectangle,-11.19998872,13.59999377,1,0,0,2,1,0.0006,0,-11.19998872,13.59999377,1,0,0,0,14,14,27,1,27,first,,,,,,,,,,,,,,,,,,,,,,,,,,,,,,,,,,,,,,,,,,,,,,,,,,,,,,,,,,,,,,,,,,,
,,,,,,5edd2e458f29cfa351de300d,62bbfb55d905a5fac415c7af,2022-06-29_02h13.24.731,Colour_Asymmetry_Pilot,2022.1.3,Win32,60.0528465,62bbe60bf3d75ef465d3e404,,,,,,,,,,,,,,,,,,,,threeone,,3,0.9622,,,,,,,,,,,,,,,,,,,,,,,,,,,,,,,"[-0.45899999999999996,-0.3256,-0.9374]","[-0.6706000000000001,-0.6157999999999999,-0.6786]",58.40001231,32.79999405,1,0,0,response1disk,15.20001167,3.19999361,1,0,0,rectangle,15.20001167,3.19999361,1,0,0,2,2,0.0006,0,15.20001167,3.19999361,1,0,0,0,15,15,98,1,17,second,,,,,,,,,,,,,,,,,,,,,,,,,,,,,,,,,,,,,,,,,,,,,,,,,,,,,,,,,,,,,,,,,,,
,,,,,,5edd2e458f29cfa351de300d,62bbfb55d905a5fac415c7af,2022-06-29_02h13.24.731,Colour_Asymmetry_Pilot,2022.1.3,Win32,60.0528465,62bbe60bf3d75ef465d3e404,,,,,,,,,,,,,,,,,,,,twofour,,-4,0.9329,,,,,,,,,,,,,,,,,,,,,,,,,,,,,,,"[0.7646000000000002,0.07440000000000002,0.2704]","[-0.4982,-0.2942,-0.0354000000000001]",-38.3999403,61.59999448,1,0,0,response7disk,-15.19998878,4.799993634,1,0,0,rectangle,-15.19998878,4.799993634,1,0,0,2,2,0.0002,0,-15.19998878,4.799993634,1,0,0,0,16,16,3,1,3,first,,,,,,,,,,,,,,,,,,,,,,,,,,,,,,,,,,,,,,,,,,,,,,,,,,,,,,,,,,,,,,,,,,,
,,,,,,5edd2e458f29cfa351de300d,62bbfb55d905a5fac415c7af,2022-06-29_02h13.24.731,Colour_Asymmetry_Pilot,2022.1.3,Win32,60.0528465,62bbe60bf3d75ef465d3e404,,,,,,,,,,,,,,,,,,,,threefour,,-4,0.6232,,,,,,,,,,,,,,,,,,,,,,,,,,,,,,,"[0.34099999999999997,0.12939999999999996,-0.9766]","[-0.8118,-0.8198,-0.5452]",-48.79998928,104.7999951,1,0,0,response7disk,-5.599988639,11.19999373,1,0,0,rectangle,-5.599988639,11.19999373,1,0,0,2,1,0.0015,0,-5.599988639,11.19999373,1,0,0,0,17,17,81,1,0,second,,,,,,,,,,,,,,,,,,,,,,,,,,,,,,,,,,,,,,,,,,,,,,,,,,,,,,,,,,,,,,,,,,,
,,,,,,5edd2e458f29cfa351de300d,62bbfb55d905a5fac415c7af,2022-06-29_02h13.24.731,Colour_Asymmetry_Pilot,2022.1.3,Win32,60.0528465,62bbe60bf3d75ef465d3e404,,,,,,,,,,,,,,,,,,,,twofour,,-4,1.2676,,,,,,,,,,,,,,,,,,,,,,,,,,,,,,,"[0.2862,0.7802,0.3568]","[0.9686000000000001,0.3802000000000001,0.19999999999999996]",-27.99998897,53.59999436,1,0,0,response7disk,5.600060356,-4.800006509,1,0,0,rectangle,5.600060356,-4.800006509,1,0,0,2,2,0.0007,0,5.600060356,-4.800006509,1,0,0,0,18,18,44,1,44,first,,,,,,,,,,,,,,,,,,,,,,,,,,,,,,,,,,,,,,,,,,,,,,,,,,,,,,,,,,,,,,,,,,,
