trials.thisRepN,trials.thisTrialN,trials.thisN,trials.thisIndex,trials.ran,Colourcodes,participant,session,date,expName,psychopyVersion,OS,frameRate,study_id,trials_4.thisRepN,trials_4.thisTrialN,trials_4.thisN,trials_4.thisIndex,trials_4.ran,StimulusPos,key_resp.keys,key_resp.rt,key_resp_2.keys,key_resp_2.rt,key_resp_15.keys,key_resp_15.rt,key_resp_17.keys,key_resp_17.rt,key_resp_9.keys,key_resp_9.rt,key_resp_10.keys,key_resp_10.rt,Circle1_col,Ecc,Circle2_col,similarity,response_time,mouse_5.x,mouse_5.y,mouse_5.leftButton,mouse_5.midButton,mouse_5.rightButton,mouse_5.clicked_name,mouse_10.x,mouse_10.y,mouse_10.leftButton,mouse_10.midButton,mouse_10.rightButton,mouse_10.clicked_name,mouse_7.x,mouse_7.y,mouse_7.leftButton,mouse_7.midButton,mouse_7.rightButton,catchnumberprac,mouse_6.x,mouse_6.y,mouse_6.leftButton,mouse_6.midButton,mouse_6.rightButton,duringprac.thisRepN,duringprac.thisTrialN,duringprac.thisN,duringprac.thisIndex,duringprac.ran,mouse_7.clicked_name,catchprac,mouse_6.clicked_name,key_resp_22.keys,key_resp_22.rt,Circle1_colour,Circle2_colour,mouse.x,mouse.y,mouse.leftButton,mouse.midButton,mouse.rightButton,mouse.clicked_name,mouse_2.x,mouse_2.y,mouse_2.leftButton,mouse_2.midButton,mouse_2.rightButton,mouse_2.clicked_name,mouse_3.x,mouse_3.y,mouse_3.leftButton,mouse_3.midButton,mouse_3.rightButton,catchresponse,catchnumber,response_time_catch,Catch,mouse_11.x,mouse_11.y,mouse_11.leftButton,mouse_11.midButton,mouse_11.rightButton,trials_2.thisRepN,trials_2.thisTrialN,trials_2.thisN,trials_2.thisIndex,trials_2.ran,Colourpair,Temporder,mouse_3.clicked_name,mouse_11.clicked_name,trials_3.thisRepN,trials_3.thisTrialN,trials_3.thisN,trials_3.thisIndex,trials_3.ran,key_resp_instr_Ishi.keys,key_resp_instr_Ishi.rt,Ishi_trial_keyresp.keys,Ishi_trial_keyresp.rt,Ishi_textbox.text,Ishi_loop.thisRepN,Ishi_loop.thisTrialN,Ishi_loop.thisN,Ishi_loop.thisIndex,Ishi_loop.ran,imageaddress,textbox.text,mouse_4.x,mouse_4.y,mouse_4.leftButton,mouse_4.midButton,mouse_4.rightButton,mouse_4.clicked_name,textbox_2.text,mouse_8.x,mouse_8.y,mouse_8.leftButton,mouse_8.midButton,mouse_8.rightButton,mouse_8.clicked_name,textbox_3.text,mouse_9.x,mouse_9.y,mouse_9.leftButton,mouse_9.midButton,mouse_9.rightButton,mouse_9.clicked_name,textbox_4.text,mouse_12.x,mouse_12.y,mouse_12.leftButton,mouse_12.midButton,mouse_12.rightButton,mouse_12.clicked_name,textbox_5.text,mouse_13.x,mouse_13.y,mouse_13.leftButton,mouse_13.midButton,mouse_13.rightButton,mouse_13.clicked_name,textbox_6.text,mouse_14.x,mouse_14.y,mouse_14.leftButton,mouse_14.midButton,mouse_14.rightButton,mouse_14.clicked_name,textbox_7.text,mouse_15.x,mouse_15.y,mouse_15.leftButton,mouse_15.midButton,mouse_15.rightButton,mouse_15.clicked_name
0,0,0,65,1,,5e4545c5a8f19a01c0fc53bd,62b2ac7f852545e3169afe08,2022-06-22_07h46.24.134,Colour_Asymmetry_Pilot,2022.1.3,Win32,142.9592566,62b2a6a25f2ba72662469a01,,,,,,,,,,,,,,,,,,,,,,,,,,,,,,,,,,,,,,,,,,,,,,,,,,,,,,,,,,,,,,,,,,,,,,,,,,,,,,,,,,,,,,,,,,,,,,,,,,,,,,,,,,,,,,,,,,,,,,,,,,,,,,,,,,,,,,,,,,,,,,,,,,,,,,,,,,,,,,
0,1,1,32,1,,5e4545c5a8f19a01c0fc53bd,62b2ac7f852545e3169afe08,2022-06-22_07h46.24.134,Colour_Asymmetry_Pilot,2022.1.3,Win32,142.9592566,62b2a6a25f2ba72662469a01,,,,,,,,,,,,,,,,,,,,,,,,,,,,,,,,,,,,,,,,,,,,,,,,,,,,,,,,,,,,,,,,,,,,,,,,,,,,,,,,,,,,,,,,,,,,,,,,,,,,,,,,,,,,,,,,,,,,,,,,,,,,,,,,,,,,,,,,,,,,,,,,,,,,,,,,,,,,,,
0,2,2,75,1,,5e4545c5a8f19a01c0fc53bd,62b2ac7f852545e3169afe08,2022-06-22_07h46.24.134,Colour_Asymmetry_Pilot,2022.1.3,Win32,142.9592566,62b2a6a25f2ba72662469a01,,,,,,,,,,,,,,,,,,,,,,,,,,,,,,,,,,,,,,,,,,,,,,,,,,,,,,,,,,,,,,,,,,,,,,,,,,,,,,,,,,,,,,,,,,,,,,,,,,,,,,,,,,,,,,,,,,,,,,,,,,,,,,,,,,,,,,,,,,,,,,,,,,,,,,,,,,,,,,
0,3,3,23,1,,5e4545c5a8f19a01c0fc53bd,62b2ac7f852545e3169afe08,2022-06-22_07h46.24.134,Colour_Asymmetry_Pilot,2022.1.3,Win32,142.9592566,62b2a6a25f2ba72662469a01,,,,,,,,,,,,,,,,,,,,,,,,,,,,,,,,,,,,,,,,,,,,,,,,,,,,,,,,,,,,,,,,,,,,,,,,,,,,,,,,,,,,,,,,,,,,,,,,,,,,,,,,,,,,,,,,,,,,,,,,,,,,,,,,,,,,,,,,,,,,,,,,,,,,,,,,,,,,,,
0,4,4,12,1,,5e4545c5a8f19a01c0fc53bd,62b2ac7f852545e3169afe08,2022-06-22_07h46.24.134,Colour_Asymmetry_Pilot,2022.1.3,Win32,142.9592566,62b2a6a25f2ba72662469a01,,,,,,,,,,,,,,,,,,,,,,,,,,,,,,,,,,,,,,,,,,,,,,,,,,,,,,,,,,,,,,,,,,,,,,,,,,,,,,,,,,,,,,,,,,,,,,,,,,,,,,,,,,,,,,,,,,,,,,,,,,,,,,,,,,,,,,,,,,,,,,,,,,,,,,,,,,,,,,
0,5,5,0,1,,5e4545c5a8f19a01c0fc53bd,62b2ac7f852545e3169afe08,2022-06-22_07h46.24.134,Colour_Asymmetry_Pilot,2022.1.3,Win32,142.9592566,62b2a6a25f2ba72662469a01,,,,,,,,,,,,,,,,,,,,,,,,,,,,,,,,,,,,,,,,,,,,,,,,,,,,,,,,,,,,,,,,,,,,,,,,,,,,,,,,,,,,,,,,,,,,,,,,,,,,,,,,,,,,,,,,,,,,,,,,,,,,,,,,,,,,,,,,,,,,,,,,,,,,,,,,,,,,,,
0,6,6,43,1,,5e4545c5a8f19a01c0fc53bd,62b2ac7f852545e3169afe08,2022-06-22_07h46.24.134,Colour_Asymmetry_Pilot,2022.1.3,Win32,142.9592566,62b2a6a25f2ba72662469a01,,,,,,,,,,,,,,,,,,,,,,,,,,,,,,,,,,,,,,,,,,,,,,,,,,,,,,,,,,,,,,,,,,,,,,,,,,,,,,,,,,,,,,,,,,,,,,,,,,,,,,,,,,,,,,,,,,,,,,,,,,,,,,,,,,,,,,,,,,,,,,,,,,,,,,,,,,,,,,
0,7,7,80,1,,5e4545c5a8f19a01c0fc53bd,62b2ac7f852545e3169afe08,2022-06-22_07h46.24.134,Colour_Asymmetry_Pilot,2022.1.3,Win32,142.9592566,62b2a6a25f2ba72662469a01,,,,,,,,,,,,,,,,,,,,,,,,,,,,,,,,,,,,,,,,,,,,,,,,,,,,,,,,,,,,,,,,,,,,,,,,,,,,,,,,,,,,,,,,,,,,,,,,,,,,,,,,,,,,,,,,,,,,,,,,,,,,,,,,,,,,,,,,,,,,,,,,,,,,,,,,,,,,,,
0,8,8,52,1,,5e4545c5a8f19a01c0fc53bd,62b2ac7f852545e3169afe08,2022-06-22_07h46.24.134,Colour_Asymmetry_Pilot,2022.1.3,Win32,142.9592566,62b2a6a25f2ba72662469a01,,,,,,,,,,,,,,,,,,,,,,,,,,,,,,,,,,,,,,,,,,,,,,,,,,,,,,,,,,,,,,,,,,,,,,,,,,,,,,,,,,,,,,,,,,,,,,,,,,,,,,,,,,,,,,,,,,,,,,,,,,,,,,,,,,,,,,,,,,,,,,,,,,,,,,,,,,,,,,
0,9,9,36,1,,5e4545c5a8f19a01c0fc53bd,62b2ac7f852545e3169afe08,2022-06-22_07h46.24.134,Colour_Asymmetry_Pilot,2022.1.3,Win32,142.9592566,62b2a6a25f2ba72662469a01,,,,,,,,,,,,,,,,,,,,,,,,,,,,,,,,,,,,,,,,,,,,,,,,,,,,,,,,,,,,,,,,,,,,,,,,,,,,,,,,,,,,,,,,,,,,,,,,,,,,,,,,,,,,,,,,,,,,,,,,,,,,,,,,,,,,,,,,,,,,,,,,,,,,,,,,,,,,,,
0,10,10,74,1,,5e4545c5a8f19a01c0fc53bd,62b2ac7f852545e3169afe08,2022-06-22_07h46.24.134,Colour_Asymmetry_Pilot,2022.1.3,Win32,142.9592566,62b2a6a25f2ba72662469a01,,,,,,,,,,,,,,,,,,,,,,,,,,,,,,,,,,,,,,,,,,,,,,,,,,,,,,,,,,,,,,,,,,,,,,,,,,,,,,,,,,,,,,,,,,,,,,,,,,,,,,,,,,,,,,,,,,,,,,,,,,,,,,,,,,,,,,,,,,,,,,,,,,,,,,,,,,,,,,
0,11,11,91,1,,5e4545c5a8f19a01c0fc53bd,62b2ac7f852545e3169afe08,2022-06-22_07h46.24.134,Colour_Asymmetry_Pilot,2022.1.3,Win32,142.9592566,62b2a6a25f2ba72662469a01,,,,,,,,,,,,,,,,,,,,,,,,,,,,,,,,,,,,,,,,,,,,,,,,,,,,,,,,,,,,,,,,,,,,,,,,,,,,,,,,,,,,,,,,,,,,,,,,,,,,,,,,,,,,,,,,,,,,,,,,,,,,,,,,,,,,,,,,,,,,,,,,,,,,,,,,,,,,,,
0,12,12,85,1,,5e4545c5a8f19a01c0fc53bd,62b2ac7f852545e3169afe08,2022-06-22_07h46.24.134,Colour_Asymmetry_Pilot,2022.1.3,Win32,142.9592566,62b2a6a25f2ba72662469a01,,,,,,,,,,,,,,,,,,,,,,,,,,,,,,,,,,,,,,,,,,,,,,,,,,,,,,,,,,,,,,,,,,,,,,,,,,,,,,,,,,,,,,,,,,,,,,,,,,,,,,,,,,,,,,,,,,,,,,,,,,,,,,,,,,,,,,,,,,,,,,,,,,,,,,,,,,,,,,
0,13,13,55,1,,5e4545c5a8f19a01c0fc53bd,62b2ac7f852545e3169afe08,2022-06-22_07h46.24.134,Colour_Asymmetry_Pilot,2022.1.3,Win32,142.9592566,62b2a6a25f2ba72662469a01,,,,,,,,,,,,,,,,,,,,,,,,,,,,,,,,,,,,,,,,,,,,,,,,,,,,,,,,,,,,,,,,,,,,,,,,,,,,,,,,,,,,,,,,,,,,,,,,,,,,,,,,,,,,,,,,,,,,,,,,,,,,,,,,,,,,,,,,,,,,,,,,,,,,,,,,,,,,,,
0,14,14,62,1,,5e4545c5a8f19a01c0fc53bd,62b2ac7f852545e3169afe08,2022-06-22_07h46.24.134,Colour_Asymmetry_Pilot,2022.1.3,Win32,142.9592566,62b2a6a25f2ba72662469a01,,,,,,,,,,,,,,,,,,,,,,,,,,,,,,,,,,,,,,,,,,,,,,,,,,,,,,,,,,,,,,,,,,,,,,,,,,,,,,,,,,,,,,,,,,,,,,,,,,,,,,,,,,,,,,,,,,,,,,,,,,,,,,,,,,,,,,,,,,,,,,,,,,,,,,,,,,,,,,
0,15,15,31,1,,5e4545c5a8f19a01c0fc53bd,62b2ac7f852545e3169afe08,2022-06-22_07h46.24.134,Colour_Asymmetry_Pilot,2022.1.3,Win32,142.9592566,62b2a6a25f2ba72662469a01,,,,,,,,,,,,,,,,,,,,,,,,,,,,,,,,,,,,,,,,,,,,,,,,,,,,,,,,,,,,,,,,,,,,,,,,,,,,,,,,,,,,,,,,,,,,,,,,,,,,,,,,,,,,,,,,,,,,,,,,,,,,,,,,,,,,,,,,,,,,,,,,,,,,,,,,,,,,,,
0,16,16,72,1,,5e4545c5a8f19a01c0fc53bd,62b2ac7f852545e3169afe08,2022-06-22_07h46.24.134,Colour_Asymmetry_Pilot,2022.1.3,Win32,142.9592566,62b2a6a25f2ba72662469a01,,,,,,,,,,,,,,,,,,,,,,,,,,,,,,,,,,,,,,,,,,,,,,,,,,,,,,,,,,,,,,,,,,,,,,,,,,,,,,,,,,,,,,,,,,,,,,,,,,,,,,,,,,,,,,,,,,,,,,,,,,,,,,,,,,,,,,,,,,,,,,,,,,,,,,,,,,,,,,
0,17,17,13,1,,5e4545c5a8f19a01c0fc53bd,62b2ac7f852545e3169afe08,2022-06-22_07h46.24.134,Colour_Asymmetry_Pilot,2022.1.3,Win32,142.9592566,62b2a6a25f2ba72662469a01,,,,,,,,,,,,,,,,,,,,,,,,,,,,,,,,,,,,,,,,,,,,,,,,,,,,,,,,,,,,,,,,,,,,,,,,,,,,,,,,,,,,,,,,,,,,,,,,,,,,,,,,,,,,,,,,,,,,,,,,,,,,,,,,,,,,,,,,,,,,,,,,,,,,,,,,,,,,,,
0,18,18,16,1,,5e4545c5a8f19a01c0fc53bd,62b2ac7f852545e3169afe08,2022-06-22_07h46.24.134,Colour_Asymmetry_Pilot,2022.1.3,Win32,142.9592566,62b2a6a25f2ba72662469a01,,,,,,,,,,,,,,,,,,,,,,,,,,,,,,,,,,,,,,,,,,,,,,,,,,,,,,,,,,,,,,,,,,,,,,,,,,,,,,,,,,,,,,,,,,,,,,,,,,,,,,,,,,,,,,,,,,,,,,,,,,,,,,,,,,,,,,,,,,,,,,,,,,,,,,,,,,,,,,
0,19,19,67,1,,5e4545c5a8f19a01c0fc53bd,62b2ac7f852545e3169afe08,2022-06-22_07h46.24.134,Colour_Asymmetry_Pilot,2022.1.3,Win32,142.9592566,62b2a6a25f2ba72662469a01,,,,,,,,,,,,,,,,,,,,,,,,,,,,,,,,,,,,,,,,,,,,,,,,,,,,,,,,,,,,,,,,,,,,,,,,,,,,,,,,,,,,,,,,,,,,,,,,,,,,,,,,,,,,,,,,,,,,,,,,,,,,,,,,,,,,,,,,,,,,,,,,,,,,,,,,,,,,,,
0,20,20,35,1,,5e4545c5a8f19a01c0fc53bd,62b2ac7f852545e3169afe08,2022-06-22_07h46.24.134,Colour_Asymmetry_Pilot,2022.1.3,Win32,142.9592566,62b2a6a25f2ba72662469a01,,,,,,,,,,,,,,,,,,,,,,,,,,,,,,,,,,,,,,,,,,,,,,,,,,,,,,,,,,,,,,,,,,,,,,,,,,,,,,,,,,,,,,,,,,,,,,,,,,,,,,,,,,,,,,,,,,,,,,,,,,,,,,,,,,,,,,,,,,,,,,,,,,,,,,,,,,,,,,
0,21,21,83,1,,5e4545c5a8f19a01c0fc53bd,62b2ac7f852545e3169afe08,2022-06-22_07h46.24.134,Colour_Asymmetry_Pilot,2022.1.3,Win32,142.9592566,62b2a6a25f2ba72662469a01,,,,,,,,,,,,,,,,,,,,,,,,,,,,,,,,,,,,,,,,,,,,,,,,,,,,,,,,,,,,,,,,,,,,,,,,,,,,,,,,,,,,,,,,,,,,,,,,,,,,,,,,,,,,,,,,,,,,,,,,,,,,,,,,,,,,,,,,,,,,,,,,,,,,,,,,,,,,,,
0,22,22,60,1,,5e4545c5a8f19a01c0fc53bd,62b2ac7f852545e3169afe08,2022-06-22_07h46.24.134,Colour_Asymmetry_Pilot,2022.1.3,Win32,142.9592566,62b2a6a25f2ba72662469a01,,,,,,,,,,,,,,,,,,,,,,,,,,,,,,,,,,,,,,,,,,,,,,,,,,,,,,,,,,,,,,,,,,,,,,,,,,,,,,,,,,,,,,,,,,,,,,,,,,,,,,,,,,,,,,,,,,,,,,,,,,,,,,,,,,,,,,,,,,,,,,,,,,,,,,,,,,,,,,
0,23,23,46,1,,5e4545c5a8f19a01c0fc53bd,62b2ac7f852545e3169afe08,2022-06-22_07h46.24.134,Colour_Asymmetry_Pilot,2022.1.3,Win32,142.9592566,62b2a6a25f2ba72662469a01,,,,,,,,,,,,,,,,,,,,,,,,,,,,,,,,,,,,,,,,,,,,,,,,,,,,,,,,,,,,,,,,,,,,,,,,,,,,,,,,,,,,,,,,,,,,,,,,,,,,,,,,,,,,,,,,,,,,,,,,,,,,,,,,,,,,,,,,,,,,,,,,,,,,,,,,,,,,,,
0,24,24,84,1,,5e4545c5a8f19a01c0fc53bd,62b2ac7f852545e3169afe08,2022-06-22_07h46.24.134,Colour_Asymmetry_Pilot,2022.1.3,Win32,142.9592566,62b2a6a25f2ba72662469a01,,,,,,,,,,,,,,,,,,,,,,,,,,,,,,,,,,,,,,,,,,,,,,,,,,,,,,,,,,,,,,,,,,,,,,,,,,,,,,,,,,,,,,,,,,,,,,,,,,,,,,,,,,,,,,,,,,,,,,,,,,,,,,,,,,,,,,,,,,,,,,,,,,,,,,,,,,,,,,
0,25,25,63,1,,5e4545c5a8f19a01c0fc53bd,62b2ac7f852545e3169afe08,2022-06-22_07h46.24.134,Colour_Asymmetry_Pilot,2022.1.3,Win32,142.9592566,62b2a6a25f2ba72662469a01,,,,,,,,,,,,,,,,,,,,,,,,,,,,,,,,,,,,,,,,,,,,,,,,,,,,,,,,,,,,,,,,,,,,,,,,,,,,,,,,,,,,,,,,,,,,,,,,,,,,,,,,,,,,,,,,,,,,,,,,,,,,,,,,,,,,,,,,,,,,,,,,,,,,,,,,,,,,,,
0,26,26,27,1,,5e4545c5a8f19a01c0fc53bd,62b2ac7f852545e3169afe08,2022-06-22_07h46.24.134,Colour_Asymmetry_Pilot,2022.1.3,Win32,142.9592566,62b2a6a25f2ba72662469a01,,,,,,,,,,,,,,,,,,,,,,,,,,,,,,,,,,,,,,,,,,,,,,,,,,,,,,,,,,,,,,,,,,,,,,,,,,,,,,,,,,,,,,,,,,,,,,,,,,,,,,,,,,,,,,,,,,,,,,,,,,,,,,,,,,,,,,,,,,,,,,,,,,,,,,,,,,,,,,
0,27,27,44,1,,5e4545c5a8f19a01c0fc53bd,62b2ac7f852545e3169afe08,2022-06-22_07h46.24.134,Colour_Asymmetry_Pilot,2022.1.3,Win32,142.9592566,62b2a6a25f2ba72662469a01,,,,,,,,,,,,,,,,,,,,,,,,,,,,,,,,,,,,,,,,,,,,,,,,,,,,,,,,,,,,,,,,,,,,,,,,,,,,,,,,,,,,,,,,,,,,,,,,,,,,,,,,,,,,,,,,,,,,,,,,,,,,,,,,,,,,,,,,,,,,,,,,,,,,,,,,,,,,,,
0,28,28,78,1,,5e4545c5a8f19a01c0fc53bd,62b2ac7f852545e3169afe08,2022-06-22_07h46.24.134,Colour_Asymmetry_Pilot,2022.1.3,Win32,142.9592566,62b2a6a25f2ba72662469a01,,,,,,,,,,,,,,,,,,,,,,,,,,,,,,,,,,,,,,,,,,,,,,,,,,,,,,,,,,,,,,,,,,,,,,,,,,,,,,,,,,,,,,,,,,,,,,,,,,,,,,,,,,,,,,,,,,,,,,,,,,,,,,,,,,,,,,,,,,,,,,,,,,,,,,,,,,,,,,
0,29,29,51,1,,5e4545c5a8f19a01c0fc53bd,62b2ac7f852545e3169afe08,2022-06-22_07h46.24.134,Colour_Asymmetry_Pilot,2022.1.3,Win32,142.9592566,62b2a6a25f2ba72662469a01,,,,,,,,,,,,,,,,,,,,,,,,,,,,,,,,,,,,,,,,,,,,,,,,,,,,,,,,,,,,,,,,,,,,,,,,,,,,,,,,,,,,,,,,,,,,,,,,,,,,,,,,,,,,,,,,,,,,,,,,,,,,,,,,,,,,,,,,,,,,,,,,,,,,,,,,,,,,,,
0,30,30,87,1,,5e4545c5a8f19a01c0fc53bd,62b2ac7f852545e3169afe08,2022-06-22_07h46.24.134,Colour_Asymmetry_Pilot,2022.1.3,Win32,142.9592566,62b2a6a25f2ba72662469a01,,,,,,,,,,,,,,,,,,,,,,,,,,,,,,,,,,,,,,,,,,,,,,,,,,,,,,,,,,,,,,,,,,,,,,,,,,,,,,,,,,,,,,,,,,,,,,,,,,,,,,,,,,,,,,,,,,,,,,,,,,,,,,,,,,,,,,,,,,,,,,,,,,,,,,,,,,,,,,
0,31,31,66,1,,5e4545c5a8f19a01c0fc53bd,62b2ac7f852545e3169afe08,2022-06-22_07h46.24.134,Colour_Asymmetry_Pilot,2022.1.3,Win32,142.9592566,62b2a6a25f2ba72662469a01,,,,,,,,,,,,,,,,,,,,,,,,,,,,,,,,,,,,,,,,,,,,,,,,,,,,,,,,,,,,,,,,,,,,,,,,,,,,,,,,,,,,,,,,,,,,,,,,,,,,,,,,,,,,,,,,,,,,,,,,,,,,,,,,,,,,,,,,,,,,,,,,,,,,,,,,,,,,,,
0,32,32,24,1,,5e4545c5a8f19a01c0fc53bd,62b2ac7f852545e3169afe08,2022-06-22_07h46.24.134,Colour_Asymmetry_Pilot,2022.1.3,Win32,142.9592566,62b2a6a25f2ba72662469a01,,,,,,,,,,,,,,,,,,,,,,,,,,,,,,,,,,,,,,,,,,,,,,,,,,,,,,,,,,,,,,,,,,,,,,,,,,,,,,,,,,,,,,,,,,,,,,,,,,,,,,,,,,,,,,,,,,,,,,,,,,,,,,,,,,,,,,,,,,,,,,,,,,,,,,,,,,,,,,
0,33,33,25,1,,5e4545c5a8f19a01c0fc53bd,62b2ac7f852545e3169afe08,2022-06-22_07h46.24.134,Colour_Asymmetry_Pilot,2022.1.3,Win32,142.9592566,62b2a6a25f2ba72662469a01,,,,,,,,,,,,,,,,,,,,,,,,,,,,,,,,,,,,,,,,,,,,,,,,,,,,,,,,,,,,,,,,,,,,,,,,,,,,,,,,,,,,,,,,,,,,,,,,,,,,,,,,,,,,,,,,,,,,,,,,,,,,,,,,,,,,,,,,,,,,,,,,,,,,,,,,,,,,,,
0,34,34,10,1,,5e4545c5a8f19a01c0fc53bd,62b2ac7f852545e3169afe08,2022-06-22_07h46.24.134,Colour_Asymmetry_Pilot,2022.1.3,Win32,142.9592566,62b2a6a25f2ba72662469a01,,,,,,,,,,,,,,,,,,,,,,,,,,,,,,,,,,,,,,,,,,,,,,,,,,,,,,,,,,,,,,,,,,,,,,,,,,,,,,,,,,,,,,,,,,,,,,,,,,,,,,,,,,,,,,,,,,,,,,,,,,,,,,,,,,,,,,,,,,,,,,,,,,,,,,,,,,,,,,
0,35,35,77,1,,5e4545c5a8f19a01c0fc53bd,62b2ac7f852545e3169afe08,2022-06-22_07h46.24.134,Colour_Asymmetry_Pilot,2022.1.3,Win32,142.9592566,62b2a6a25f2ba72662469a01,,,,,,,,,,,,,,,,,,,,,,,,,,,,,,,,,,,,,,,,,,,,,,,,,,,,,,,,,,,,,,,,,,,,,,,,,,,,,,,,,,,,,,,,,,,,,,,,,,,,,,,,,,,,,,,,,,,,,,,,,,,,,,,,,,,,,,,,,,,,,,,,,,,,,,,,,,,,,,
0,36,36,71,1,,5e4545c5a8f19a01c0fc53bd,62b2ac7f852545e3169afe08,2022-06-22_07h46.24.134,Colour_Asymmetry_Pilot,2022.1.3,Win32,142.9592566,62b2a6a25f2ba72662469a01,,,,,,,,,,,,,,,,,,,,,,,,,,,,,,,,,,,,,,,,,,,,,,,,,,,,,,,,,,,,,,,,,,,,,,,,,,,,,,,,,,,,,,,,,,,,,,,,,,,,,,,,,,,,,,,,,,,,,,,,,,,,,,,,,,,,,,,,,,,,,,,,,,,,,,,,,,,,,,
0,37,37,53,1,,5e4545c5a8f19a01c0fc53bd,62b2ac7f852545e3169afe08,2022-06-22_07h46.24.134,Colour_Asymmetry_Pilot,2022.1.3,Win32,142.9592566,62b2a6a25f2ba72662469a01,,,,,,,,,,,,,,,,,,,,,,,,,,,,,,,,,,,,,,,,,,,,,,,,,,,,,,,,,,,,,,,,,,,,,,,,,,,,,,,,,,,,,,,,,,,,,,,,,,,,,,,,,,,,,,,,,,,,,,,,,,,,,,,,,,,,,,,,,,,,,,,,,,,,,,,,,,,,,,
0,38,38,82,1,,5e4545c5a8f19a01c0fc53bd,62b2ac7f852545e3169afe08,2022-06-22_07h46.24.134,Colour_Asymmetry_Pilot,2022.1.3,Win32,142.9592566,62b2a6a25f2ba72662469a01,,,,,,,,,,,,,,,,,,,,,,,,,,,,,,,,,,,,,,,,,,,,,,,,,,,,,,,,,,,,,,,,,,,,,,,,,,,,,,,,,,,,,,,,,,,,,,,,,,,,,,,,,,,,,,,,,,,,,,,,,,,,,,,,,,,,,,,,,,,,,,,,,,,,,,,,,,,,,,
0,39,39,2,1,,5e4545c5a8f19a01c0fc53bd,62b2ac7f852545e3169afe08,2022-06-22_07h46.24.134,Colour_Asymmetry_Pilot,2022.1.3,Win32,142.9592566,62b2a6a25f2ba72662469a01,,,,,,,,,,,,,,,,,,,,,,,,,,,,,,,,,,,,,,,,,,,,,,,,,,,,,,,,,,,,,,,,,,,,,,,,,,,,,,,,,,,,,,,,,,,,,,,,,,,,,,,,,,,,,,,,,,,,,,,,,,,,,,,,,,,,,,,,,,,,,,,,,,,,,,,,,,,,,,
0,40,40,22,1,,5e4545c5a8f19a01c0fc53bd,62b2ac7f852545e3169afe08,2022-06-22_07h46.24.134,Colour_Asymmetry_Pilot,2022.1.3,Win32,142.9592566,62b2a6a25f2ba72662469a01,,,,,,,,,,,,,,,,,,,,,,,,,,,,,,,,,,,,,,,,,,,,,,,,,,,,,,,,,,,,,,,,,,,,,,,,,,,,,,,,,,,,,,,,,,,,,,,,,,,,,,,,,,,,,,,,,,,,,,,,,,,,,,,,,,,,,,,,,,,,,,,,,,,,,,,,,,,,,,
0,41,41,34,1,,5e4545c5a8f19a01c0fc53bd,62b2ac7f852545e3169afe08,2022-06-22_07h46.24.134,Colour_Asymmetry_Pilot,2022.1.3,Win32,142.9592566,62b2a6a25f2ba72662469a01,,,,,,,,,,,,,,,,,,,,,,,,,,,,,,,,,,,,,,,,,,,,,,,,,,,,,,,,,,,,,,,,,,,,,,,,,,,,,,,,,,,,,,,,,,,,,,,,,,,,,,,,,,,,,,,,,,,,,,,,,,,,,,,,,,,,,,,,,,,,,,,,,,,,,,,,,,,,,,
0,42,42,3,1,,5e4545c5a8f19a01c0fc53bd,62b2ac7f852545e3169afe08,2022-06-22_07h46.24.134,Colour_Asymmetry_Pilot,2022.1.3,Win32,142.9592566,62b2a6a25f2ba72662469a01,,,,,,,,,,,,,,,,,,,,,,,,,,,,,,,,,,,,,,,,,,,,,,,,,,,,,,,,,,,,,,,,,,,,,,,,,,,,,,,,,,,,,,,,,,,,,,,,,,,,,,,,,,,,,,,,,,,,,,,,,,,,,,,,,,,,,,,,,,,,,,,,,,,,,,,,,,,,,,
0,43,43,38,1,,5e4545c5a8f19a01c0fc53bd,62b2ac7f852545e3169afe08,2022-06-22_07h46.24.134,Colour_Asymmetry_Pilot,2022.1.3,Win32,142.9592566,62b2a6a25f2ba72662469a01,,,,,,,,,,,,,,,,,,,,,,,,,,,,,,,,,,,,,,,,,,,,,,,,,,,,,,,,,,,,,,,,,,,,,,,,,,,,,,,,,,,,,,,,,,,,,,,,,,,,,,,,,,,,,,,,,,,,,,,,,,,,,,,,,,,,,,,,,,,,,,,,,,,,,,,,,,,,,,
0,44,44,18,1,,5e4545c5a8f19a01c0fc53bd,62b2ac7f852545e3169afe08,2022-06-22_07h46.24.134,Colour_Asymmetry_Pilot,2022.1.3,Win32,142.9592566,62b2a6a25f2ba72662469a01,,,,,,,,,,,,,,,,,,,,,,,,,,,,,,,,,,,,,,,,,,,,,,,,,,,,,,,,,,,,,,,,,,,,,,,,,,,,,,,,,,,,,,,,,,,,,,,,,,,,,,,,,,,,,,,,,,,,,,,,,,,,,,,,,,,,,,,,,,,,,,,,,,,,,,,,,,,,,,
0,45,45,41,1,,5e4545c5a8f19a01c0fc53bd,62b2ac7f852545e3169afe08,2022-06-22_07h46.24.134,Colour_Asymmetry_Pilot,2022.1.3,Win32,142.9592566,62b2a6a25f2ba72662469a01,,,,,,,,,,,,,,,,,,,,,,,,,,,,,,,,,,,,,,,,,,,,,,,,,,,,,,,,,,,,,,,,,,,,,,,,,,,,,,,,,,,,,,,,,,,,,,,,,,,,,,,,,,,,,,,,,,,,,,,,,,,,,,,,,,,,,,,,,,,,,,,,,,,,,,,,,,,,,,
0,46,46,20,1,,5e4545c5a8f19a01c0fc53bd,62b2ac7f852545e3169afe08,2022-06-22_07h46.24.134,Colour_Asymmetry_Pilot,2022.1.3,Win32,142.9592566,62b2a6a25f2ba72662469a01,,,,,,,,,,,,,,,,,,,,,,,,,,,,,,,,,,,,,,,,,,,,,,,,,,,,,,,,,,,,,,,,,,,,,,,,,,,,,,,,,,,,,,,,,,,,,,,,,,,,,,,,,,,,,,,,,,,,,,,,,,,,,,,,,,,,,,,,,,,,,,,,,,,,,,,,,,,,,,
0,47,47,21,1,,5e4545c5a8f19a01c0fc53bd,62b2ac7f852545e3169afe08,2022-06-22_07h46.24.134,Colour_Asymmetry_Pilot,2022.1.3,Win32,142.9592566,62b2a6a25f2ba72662469a01,,,,,,,,,,,,,,,,,,,,,,,,,,,,,,,,,,,,,,,,,,,,,,,,,,,,,,,,,,,,,,,,,,,,,,,,,,,,,,,,,,,,,,,,,,,,,,,,,,,,,,,,,,,,,,,,,,,,,,,,,,,,,,,,,,,,,,,,,,,,,,,,,,,,,,,,,,,,,,
0,48,48,14,1,,5e4545c5a8f19a01c0fc53bd,62b2ac7f852545e3169afe08,2022-06-22_07h46.24.134,Colour_Asymmetry_Pilot,2022.1.3,Win32,142.9592566,62b2a6a25f2ba72662469a01,,,,,,,,,,,,,,,,,,,,,,,,,,,,,,,,,,,,,,,,,,,,,,,,,,,,,,,,,,,,,,,,,,,,,,,,,,,,,,,,,,,,,,,,,,,,,,,,,,,,,,,,,,,,,,,,,,,,,,,,,,,,,,,,,,,,,,,,,,,,,,,,,,,,,,,,,,,,,,
0,49,49,64,1,,5e4545c5a8f19a01c0fc53bd,62b2ac7f852545e3169afe08,2022-06-22_07h46.24.134,Colour_Asymmetry_Pilot,2022.1.3,Win32,142.9592566,62b2a6a25f2ba72662469a01,,,,,,,,,,,,,,,,,,,,,,,,,,,,,,,,,,,,,,,,,,,,,,,,,,,,,,,,,,,,,,,,,,,,,,,,,,,,,,,,,,,,,,,,,,,,,,,,,,,,,,,,,,,,,,,,,,,,,,,,,,,,,,,,,,,,,,,,,,,,,,,,,,,,,,,,,,,,,,
0,50,50,79,1,,5e4545c5a8f19a01c0fc53bd,62b2ac7f852545e3169afe08,2022-06-22_07h46.24.134,Colour_Asymmetry_Pilot,2022.1.3,Win32,142.9592566,62b2a6a25f2ba72662469a01,,,,,,,,,,,,,,,,,,,,,,,,,,,,,,,,,,,,,,,,,,,,,,,,,,,,,,,,,,,,,,,,,,,,,,,,,,,,,,,,,,,,,,,,,,,,,,,,,,,,,,,,,,,,,,,,,,,,,,,,,,,,,,,,,,,,,,,,,,,,,,,,,,,,,,,,,,,,,,
0,51,51,37,1,,5e4545c5a8f19a01c0fc53bd,62b2ac7f852545e3169afe08,2022-06-22_07h46.24.134,Colour_Asymmetry_Pilot,2022.1.3,Win32,142.9592566,62b2a6a25f2ba72662469a01,,,,,,,,,,,,,,,,,,,,,,,,,,,,,,,,,,,,,,,,,,,,,,,,,,,,,,,,,,,,,,,,,,,,,,,,,,,,,,,,,,,,,,,,,,,,,,,,,,,,,,,,,,,,,,,,,,,,,,,,,,,,,,,,,,,,,,,,,,,,,,,,,,,,,,,,,,,,,,
0,52,52,29,1,,5e4545c5a8f19a01c0fc53bd,62b2ac7f852545e3169afe08,2022-06-22_07h46.24.134,Colour_Asymmetry_Pilot,2022.1.3,Win32,142.9592566,62b2a6a25f2ba72662469a01,,,,,,,,,,,,,,,,,,,,,,,,,,,,,,,,,,,,,,,,,,,,,,,,,,,,,,,,,,,,,,,,,,,,,,,,,,,,,,,,,,,,,,,,,,,,,,,,,,,,,,,,,,,,,,,,,,,,,,,,,,,,,,,,,,,,,,,,,,,,,,,,,,,,,,,,,,,,,,
0,53,53,54,1,,5e4545c5a8f19a01c0fc53bd,62b2ac7f852545e3169afe08,2022-06-22_07h46.24.134,Colour_Asymmetry_Pilot,2022.1.3,Win32,142.9592566,62b2a6a25f2ba72662469a01,,,,,,,,,,,,,,,,,,,,,,,,,,,,,,,,,,,,,,,,,,,,,,,,,,,,,,,,,,,,,,,,,,,,,,,,,,,,,,,,,,,,,,,,,,,,,,,,,,,,,,,,,,,,,,,,,,,,,,,,,,,,,,,,,,,,,,,,,,,,,,,,,,,,,,,,,,,,,,
0,54,54,76,1,,5e4545c5a8f19a01c0fc53bd,62b2ac7f852545e3169afe08,2022-06-22_07h46.24.134,Colour_Asymmetry_Pilot,2022.1.3,Win32,142.9592566,62b2a6a25f2ba72662469a01,,,,,,,,,,,,,,,,,,,,,,,,,,,,,,,,,,,,,,,,,,,,,,,,,,,,,,,,,,,,,,,,,,,,,,,,,,,,,,,,,,,,,,,,,,,,,,,,,,,,,,,,,,,,,,,,,,,,,,,,,,,,,,,,,,,,,,,,,,,,,,,,,,,,,,,,,,,,,,
0,55,55,89,1,,5e4545c5a8f19a01c0fc53bd,62b2ac7f852545e3169afe08,2022-06-22_07h46.24.134,Colour_Asymmetry_Pilot,2022.1.3,Win32,142.9592566,62b2a6a25f2ba72662469a01,,,,,,,,,,,,,,,,,,,,,,,,,,,,,,,,,,,,,,,,,,,,,,,,,,,,,,,,,,,,,,,,,,,,,,,,,,,,,,,,,,,,,,,,,,,,,,,,,,,,,,,,,,,,,,,,,,,,,,,,,,,,,,,,,,,,,,,,,,,,,,,,,,,,,,,,,,,,,,
0,56,56,33,1,,5e4545c5a8f19a01c0fc53bd,62b2ac7f852545e3169afe08,2022-06-22_07h46.24.134,Colour_Asymmetry_Pilot,2022.1.3,Win32,142.9592566,62b2a6a25f2ba72662469a01,,,,,,,,,,,,,,,,,,,,,,,,,,,,,,,,,,,,,,,,,,,,,,,,,,,,,,,,,,,,,,,,,,,,,,,,,,,,,,,,,,,,,,,,,,,,,,,,,,,,,,,,,,,,,,,,,,,,,,,,,,,,,,,,,,,,,,,,,,,,,,,,,,,,,,,,,,,,,,
0,57,57,47,1,,5e4545c5a8f19a01c0fc53bd,62b2ac7f852545e3169afe08,2022-06-22_07h46.24.134,Colour_Asymmetry_Pilot,2022.1.3,Win32,142.9592566,62b2a6a25f2ba72662469a01,,,,,,,,,,,,,,,,,,,,,,,,,,,,,,,,,,,,,,,,,,,,,,,,,,,,,,,,,,,,,,,,,,,,,,,,,,,,,,,,,,,,,,,,,,,,,,,,,,,,,,,,,,,,,,,,,,,,,,,,,,,,,,,,,,,,,,,,,,,,,,,,,,,,,,,,,,,,,,
0,58,58,70,1,,5e4545c5a8f19a01c0fc53bd,62b2ac7f852545e3169afe08,2022-06-22_07h46.24.134,Colour_Asymmetry_Pilot,2022.1.3,Win32,142.9592566,62b2a6a25f2ba72662469a01,,,,,,,,,,,,,,,,,,,,,,,,,,,,,,,,,,,,,,,,,,,,,,,,,,,,,,,,,,,,,,,,,,,,,,,,,,,,,,,,,,,,,,,,,,,,,,,,,,,,,,,,,,,,,,,,,,,,,,,,,,,,,,,,,,,,,,,,,,,,,,,,,,,,,,,,,,,,,,
0,59,59,30,1,,5e4545c5a8f19a01c0fc53bd,62b2ac7f852545e3169afe08,2022-06-22_07h46.24.134,Colour_Asymmetry_Pilot,2022.1.3,Win32,142.9592566,62b2a6a25f2ba72662469a01,,,,,,,,,,,,,,,,,,,,,,,,,,,,,,,,,,,,,,,,,,,,,,,,,,,,,,,,,,,,,,,,,,,,,,,,,,,,,,,,,,,,,,,,,,,,,,,,,,,,,,,,,,,,,,,,,,,,,,,,,,,,,,,,,,,,,,,,,,,,,,,,,,,,,,,,,,,,,,
0,60,60,17,1,,5e4545c5a8f19a01c0fc53bd,62b2ac7f852545e3169afe08,2022-06-22_07h46.24.134,Colour_Asymmetry_Pilot,2022.1.3,Win32,142.9592566,62b2a6a25f2ba72662469a01,,,,,,,,,,,,,,,,,,,,,,,,,,,,,,,,,,,,,,,,,,,,,,,,,,,,,,,,,,,,,,,,,,,,,,,,,,,,,,,,,,,,,,,,,,,,,,,,,,,,,,,,,,,,,,,,,,,,,,,,,,,,,,,,,,,,,,,,,,,,,,,,,,,,,,,,,,,,,,
0,61,61,86,1,,5e4545c5a8f19a01c0fc53bd,62b2ac7f852545e3169afe08,2022-06-22_07h46.24.134,Colour_Asymmetry_Pilot,2022.1.3,Win32,142.9592566,62b2a6a25f2ba72662469a01,,,,,,,,,,,,,,,,,,,,,,,,,,,,,,,,,,,,,,,,,,,,,,,,,,,,,,,,,,,,,,,,,,,,,,,,,,,,,,,,,,,,,,,,,,,,,,,,,,,,,,,,,,,,,,,,,,,,,,,,,,,,,,,,,,,,,,,,,,,,,,,,,,,,,,,,,,,,,,
0,62,62,49,1,,5e4545c5a8f19a01c0fc53bd,62b2ac7f852545e3169afe08,2022-06-22_07h46.24.134,Colour_Asymmetry_Pilot,2022.1.3,Win32,142.9592566,62b2a6a25f2ba72662469a01,,,,,,,,,,,,,,,,,,,,,,,,,,,,,,,,,,,,,,,,,,,,,,,,,,,,,,,,,,,,,,,,,,,,,,,,,,,,,,,,,,,,,,,,,,,,,,,,,,,,,,,,,,,,,,,,,,,,,,,,,,,,,,,,,,,,,,,,,,,,,,,,,,,,,,,,,,,,,,
0,63,63,28,1,,5e4545c5a8f19a01c0fc53bd,62b2ac7f852545e3169afe08,2022-06-22_07h46.24.134,Colour_Asymmetry_Pilot,2022.1.3,Win32,142.9592566,62b2a6a25f2ba72662469a01,,,,,,,,,,,,,,,,,,,,,,,,,,,,,,,,,,,,,,,,,,,,,,,,,,,,,,,,,,,,,,,,,,,,,,,,,,,,,,,,,,,,,,,,,,,,,,,,,,,,,,,,,,,,,,,,,,,,,,,,,,,,,,,,,,,,,,,,,,,,,,,,,,,,,,,,,,,,,,
0,64,64,58,1,,5e4545c5a8f19a01c0fc53bd,62b2ac7f852545e3169afe08,2022-06-22_07h46.24.134,Colour_Asymmetry_Pilot,2022.1.3,Win32,142.9592566,62b2a6a25f2ba72662469a01,,,,,,,,,,,,,,,,,,,,,,,,,,,,,,,,,,,,,,,,,,,,,,,,,,,,,,,,,,,,,,,,,,,,,,,,,,,,,,,,,,,,,,,,,,,,,,,,,,,,,,,,,,,,,,,,,,,,,,,,,,,,,,,,,,,,,,,,,,,,,,,,,,,,,,,,,,,,,,
0,65,65,50,1,,5e4545c5a8f19a01c0fc53bd,62b2ac7f852545e3169afe08,2022-06-22_07h46.24.134,Colour_Asymmetry_Pilot,2022.1.3,Win32,142.9592566,62b2a6a25f2ba72662469a01,,,,,,,,,,,,,,,,,,,,,,,,,,,,,,,,,,,,,,,,,,,,,,,,,,,,,,,,,,,,,,,,,,,,,,,,,,,,,,,,,,,,,,,,,,,,,,,,,,,,,,,,,,,,,,,,,,,,,,,,,,,,,,,,,,,,,,,,,,,,,,,,,,,,,,,,,,,,,,
0,66,66,5,1,,5e4545c5a8f19a01c0fc53bd,62b2ac7f852545e3169afe08,2022-06-22_07h46.24.134,Colour_Asymmetry_Pilot,2022.1.3,Win32,142.9592566,62b2a6a25f2ba72662469a01,,,,,,,,,,,,,,,,,,,,,,,,,,,,,,,,,,,,,,,,,,,,,,,,,,,,,,,,,,,,,,,,,,,,,,,,,,,,,,,,,,,,,,,,,,,,,,,,,,,,,,,,,,,,,,,,,,,,,,,,,,,,,,,,,,,,,,,,,,,,,,,,,,,,,,,,,,,,,,
0,67,67,61,1,,5e4545c5a8f19a01c0fc53bd,62b2ac7f852545e3169afe08,2022-06-22_07h46.24.134,Colour_Asymmetry_Pilot,2022.1.3,Win32,142.9592566,62b2a6a25f2ba72662469a01,,,,,,,,,,,,,,,,,,,,,,,,,,,,,,,,,,,,,,,,,,,,,,,,,,,,,,,,,,,,,,,,,,,,,,,,,,,,,,,,,,,,,,,,,,,,,,,,,,,,,,,,,,,,,,,,,,,,,,,,,,,,,,,,,,,,,,,,,,,,,,,,,,,,,,,,,,,,,,
0,68,68,68,1,,5e4545c5a8f19a01c0fc53bd,62b2ac7f852545e3169afe08,2022-06-22_07h46.24.134,Colour_Asymmetry_Pilot,2022.1.3,Win32,142.9592566,62b2a6a25f2ba72662469a01,,,,,,,,,,,,,,,,,,,,,,,,,,,,,,,,,,,,,,,,,,,,,,,,,,,,,,,,,,,,,,,,,,,,,,,,,,,,,,,,,,,,,,,,,,,,,,,,,,,,,,,,,,,,,,,,,,,,,,,,,,,,,,,,,,,,,,,,,,,,,,,,,,,,,,,,,,,,,,
0,69,69,69,1,,5e4545c5a8f19a01c0fc53bd,62b2ac7f852545e3169afe08,2022-06-22_07h46.24.134,Colour_Asymmetry_Pilot,2022.1.3,Win32,142.9592566,62b2a6a25f2ba72662469a01,,,,,,,,,,,,,,,,,,,,,,,,,,,,,,,,,,,,,,,,,,,,,,,,,,,,,,,,,,,,,,,,,,,,,,,,,,,,,,,,,,,,,,,,,,,,,,,,,,,,,,,,,,,,,,,,,,,,,,,,,,,,,,,,,,,,,,,,,,,,,,,,,,,,,,,,,,,,,,
0,70,70,15,1,,5e4545c5a8f19a01c0fc53bd,62b2ac7f852545e3169afe08,2022-06-22_07h46.24.134,Colour_Asymmetry_Pilot,2022.1.3,Win32,142.9592566,62b2a6a25f2ba72662469a01,,,,,,,,,,,,,,,,,,,,,,,,,,,,,,,,,,,,,,,,,,,,,,,,,,,,,,,,,,,,,,,,,,,,,,,,,,,,,,,,,,,,,,,,,,,,,,,,,,,,,,,,,,,,,,,,,,,,,,,,,,,,,,,,,,,,,,,,,,,,,,,,,,,,,,,,,,,,,,
0,71,71,90,1,,5e4545c5a8f19a01c0fc53bd,62b2ac7f852545e3169afe08,2022-06-22_07h46.24.134,Colour_Asymmetry_Pilot,2022.1.3,Win32,142.9592566,62b2a6a25f2ba72662469a01,,,,,,,,,,,,,,,,,,,,,,,,,,,,,,,,,,,,,,,,,,,,,,,,,,,,,,,,,,,,,,,,,,,,,,,,,,,,,,,,,,,,,,,,,,,,,,,,,,,,,,,,,,,,,,,,,,,,,,,,,,,,,,,,,,,,,,,,,,,,,,,,,,,,,,,,,,,,,,
0,72,72,81,1,,5e4545c5a8f19a01c0fc53bd,62b2ac7f852545e3169afe08,2022-06-22_07h46.24.134,Colour_Asymmetry_Pilot,2022.1.3,Win32,142.9592566,62b2a6a25f2ba72662469a01,,,,,,,,,,,,,,,,,,,,,,,,,,,,,,,,,,,,,,,,,,,,,,,,,,,,,,,,,,,,,,,,,,,,,,,,,,,,,,,,,,,,,,,,,,,,,,,,,,,,,,,,,,,,,,,,,,,,,,,,,,,,,,,,,,,,,,,,,,,,,,,,,,,,,,,,,,,,,,
0,73,73,9,1,,5e4545c5a8f19a01c0fc53bd,62b2ac7f852545e3169afe08,2022-06-22_07h46.24.134,Colour_Asymmetry_Pilot,2022.1.3,Win32,142.9592566,62b2a6a25f2ba72662469a01,,,,,,,,,,,,,,,,,,,,,,,,,,,,,,,,,,,,,,,,,,,,,,,,,,,,,,,,,,,,,,,,,,,,,,,,,,,,,,,,,,,,,,,,,,,,,,,,,,,,,,,,,,,,,,,,,,,,,,,,,,,,,,,,,,,,,,,,,,,,,,,,,,,,,,,,,,,,,,
0,74,74,19,1,,5e4545c5a8f19a01c0fc53bd,62b2ac7f852545e3169afe08,2022-06-22_07h46.24.134,Colour_Asymmetry_Pilot,2022.1.3,Win32,142.9592566,62b2a6a25f2ba72662469a01,,,,,,,,,,,,,,,,,,,,,,,,,,,,,,,,,,,,,,,,,,,,,,,,,,,,,,,,,,,,,,,,,,,,,,,,,,,,,,,,,,,,,,,,,,,,,,,,,,,,,,,,,,,,,,,,,,,,,,,,,,,,,,,,,,,,,,,,,,,,,,,,,,,,,,,,,,,,,,
0,75,75,26,1,,5e4545c5a8f19a01c0fc53bd,62b2ac7f852545e3169afe08,2022-06-22_07h46.24.134,Colour_Asymmetry_Pilot,2022.1.3,Win32,142.9592566,62b2a6a25f2ba72662469a01,,,,,,,,,,,,,,,,,,,,,,,,,,,,,,,,,,,,,,,,,,,,,,,,,,,,,,,,,,,,,,,,,,,,,,,,,,,,,,,,,,,,,,,,,,,,,,,,,,,,,,,,,,,,,,,,,,,,,,,,,,,,,,,,,,,,,,,,,,,,,,,,,,,,,,,,,,,,,,
0,76,76,42,1,,5e4545c5a8f19a01c0fc53bd,62b2ac7f852545e3169afe08,2022-06-22_07h46.24.134,Colour_Asymmetry_Pilot,2022.1.3,Win32,142.9592566,62b2a6a25f2ba72662469a01,,,,,,,,,,,,,,,,,,,,,,,,,,,,,,,,,,,,,,,,,,,,,,,,,,,,,,,,,,,,,,,,,,,,,,,,,,,,,,,,,,,,,,,,,,,,,,,,,,,,,,,,,,,,,,,,,,,,,,,,,,,,,,,,,,,,,,,,,,,,,,,,,,,,,,,,,,,,,,
0,77,77,57,1,,5e4545c5a8f19a01c0fc53bd,62b2ac7f852545e3169afe08,2022-06-22_07h46.24.134,Colour_Asymmetry_Pilot,2022.1.3,Win32,142.9592566,62b2a6a25f2ba72662469a01,,,,,,,,,,,,,,,,,,,,,,,,,,,,,,,,,,,,,,,,,,,,,,,,,,,,,,,,,,,,,,,,,,,,,,,,,,,,,,,,,,,,,,,,,,,,,,,,,,,,,,,,,,,,,,,,,,,,,,,,,,,,,,,,,,,,,,,,,,,,,,,,,,,,,,,,,,,,,,
0,78,78,59,1,,5e4545c5a8f19a01c0fc53bd,62b2ac7f852545e3169afe08,2022-06-22_07h46.24.134,Colour_Asymmetry_Pilot,2022.1.3,Win32,142.9592566,62b2a6a25f2ba72662469a01,,,,,,,,,,,,,,,,,,,,,,,,,,,,,,,,,,,,,,,,,,,,,,,,,,,,,,,,,,,,,,,,,,,,,,,,,,,,,,,,,,,,,,,,,,,,,,,,,,,,,,,,,,,,,,,,,,,,,,,,,,,,,,,,,,,,,,,,,,,,,,,,,,,,,,,,,,,,,,
0,79,79,73,1,,5e4545c5a8f19a01c0fc53bd,62b2ac7f852545e3169afe08,2022-06-22_07h46.24.134,Colour_Asymmetry_Pilot,2022.1.3,Win32,142.9592566,62b2a6a25f2ba72662469a01,,,,,,,,,,,,,,,,,,,,,,,,,,,,,,,,,,,,,,,,,,,,,,,,,,,,,,,,,,,,,,,,,,,,,,,,,,,,,,,,,,,,,,,,,,,,,,,,,,,,,,,,,,,,,,,,,,,,,,,,,,,,,,,,,,,,,,,,,,,,,,,,,,,,,,,,,,,,,,
0,80,80,56,1,,5e4545c5a8f19a01c0fc53bd,62b2ac7f852545e3169afe08,2022-06-22_07h46.24.134,Colour_Asymmetry_Pilot,2022.1.3,Win32,142.9592566,62b2a6a25f2ba72662469a01,,,,,,,,,,,,,,,,,,,,,,,,,,,,,,,,,,,,,,,,,,,,,,,,,,,,,,,,,,,,,,,,,,,,,,,,,,,,,,,,,,,,,,,,,,,,,,,,,,,,,,,,,,,,,,,,,,,,,,,,,,,,,,,,,,,,,,,,,,,,,,,,,,,,,,,,,,,,,,
0,81,81,48,1,,5e4545c5a8f19a01c0fc53bd,62b2ac7f852545e3169afe08,2022-06-22_07h46.24.134,Colour_Asymmetry_Pilot,2022.1.3,Win32,142.9592566,62b2a6a25f2ba72662469a01,,,,,,,,,,,,,,,,,,,,,,,,,,,,,,,,,,,,,,,,,,,,,,,,,,,,,,,,,,,,,,,,,,,,,,,,,,,,,,,,,,,,,,,,,,,,,,,,,,,,,,,,,,,,,,,,,,,,,,,,,,,,,,,,,,,,,,,,,,,,,,,,,,,,,,,,,,,,,,
0,82,82,6,1,,5e4545c5a8f19a01c0fc53bd,62b2ac7f852545e3169afe08,2022-06-22_07h46.24.134,Colour_Asymmetry_Pilot,2022.1.3,Win32,142.9592566,62b2a6a25f2ba72662469a01,,,,,,,,,,,,,,,,,,,,,,,,,,,,,,,,,,,,,,,,,,,,,,,,,,,,,,,,,,,,,,,,,,,,,,,,,,,,,,,,,,,,,,,,,,,,,,,,,,,,,,,,,,,,,,,,,,,,,,,,,,,,,,,,,,,,,,,,,,,,,,,,,,,,,,,,,,,,,,
0,83,83,88,1,,5e4545c5a8f19a01c0fc53bd,62b2ac7f852545e3169afe08,2022-06-22_07h46.24.134,Colour_Asymmetry_Pilot,2022.1.3,Win32,142.9592566,62b2a6a25f2ba72662469a01,,,,,,,,,,,,,,,,,,,,,,,,,,,,,,,,,,,,,,,,,,,,,,,,,,,,,,,,,,,,,,,,,,,,,,,,,,,,,,,,,,,,,,,,,,,,,,,,,,,,,,,,,,,,,,,,,,,,,,,,,,,,,,,,,,,,,,,,,,,,,,,,,,,,,,,,,,,,,,
0,84,84,7,1,,5e4545c5a8f19a01c0fc53bd,62b2ac7f852545e3169afe08,2022-06-22_07h46.24.134,Colour_Asymmetry_Pilot,2022.1.3,Win32,142.9592566,62b2a6a25f2ba72662469a01,,,,,,,,,,,,,,,,,,,,,,,,,,,,,,,,,,,,,,,,,,,,,,,,,,,,,,,,,,,,,,,,,,,,,,,,,,,,,,,,,,,,,,,,,,,,,,,,,,,,,,,,,,,,,,,,,,,,,,,,,,,,,,,,,,,,,,,,,,,,,,,,,,,,,,,,,,,,,,
0,85,85,8,1,,5e4545c5a8f19a01c0fc53bd,62b2ac7f852545e3169afe08,2022-06-22_07h46.24.134,Colour_Asymmetry_Pilot,2022.1.3,Win32,142.9592566,62b2a6a25f2ba72662469a01,,,,,,,,,,,,,,,,,,,,,,,,,,,,,,,,,,,,,,,,,,,,,,,,,,,,,,,,,,,,,,,,,,,,,,,,,,,,,,,,,,,,,,,,,,,,,,,,,,,,,,,,,,,,,,,,,,,,,,,,,,,,,,,,,,,,,,,,,,,,,,,,,,,,,,,,,,,,,,
0,86,86,92,1,,5e4545c5a8f19a01c0fc53bd,62b2ac7f852545e3169afe08,2022-06-22_07h46.24.134,Colour_Asymmetry_Pilot,2022.1.3,Win32,142.9592566,62b2a6a25f2ba72662469a01,,,,,,,,,,,,,,,,,,,,,,,,,,,,,,,,,,,,,,,,,,,,,,,,,,,,,,,,,,,,,,,,,,,,,,,,,,,,,,,,,,,,,,,,,,,,,,,,,,,,,,,,,,,,,,,,,,,,,,,,,,,,,,,,,,,,,,,,,,,,,,,,,,,,,,,,,,,,,,
0,87,87,4,1,,5e4545c5a8f19a01c0fc53bd,62b2ac7f852545e3169afe08,2022-06-22_07h46.24.134,Colour_Asymmetry_Pilot,2022.1.3,Win32,142.9592566,62b2a6a25f2ba72662469a01,,,,,,,,,,,,,,,,,,,,,,,,,,,,,,,,,,,,,,,,,,,,,,,,,,,,,,,,,,,,,,,,,,,,,,,,,,,,,,,,,,,,,,,,,,,,,,,,,,,,,,,,,,,,,,,,,,,,,,,,,,,,,,,,,,,,,,,,,,,,,,,,,,,,,,,,,,,,,,
0,88,88,45,1,,5e4545c5a8f19a01c0fc53bd,62b2ac7f852545e3169afe08,2022-06-22_07h46.24.134,Colour_Asymmetry_Pilot,2022.1.3,Win32,142.9592566,62b2a6a25f2ba72662469a01,,,,,,,,,,,,,,,,,,,,,,,,,,,,,,,,,,,,,,,,,,,,,,,,,,,,,,,,,,,,,,,,,,,,,,,,,,,,,,,,,,,,,,,,,,,,,,,,,,,,,,,,,,,,,,,,,,,,,,,,,,,,,,,,,,,,,,,,,,,,,,,,,,,,,,,,,,,,,,
0,89,89,39,1,,5e4545c5a8f19a01c0fc53bd,62b2ac7f852545e3169afe08,2022-06-22_07h46.24.134,Colour_Asymmetry_Pilot,2022.1.3,Win32,142.9592566,62b2a6a25f2ba72662469a01,,,,,,,,,,,,,,,,,,,,,,,,,,,,,,,,,,,,,,,,,,,,,,,,,,,,,,,,,,,,,,,,,,,,,,,,,,,,,,,,,,,,,,,,,,,,,,,,,,,,,,,,,,,,,,,,,,,,,,,,,,,,,,,,,,,,,,,,,,,,,,,,,,,,,,,,,,,,,,
0,90,90,11,1,,5e4545c5a8f19a01c0fc53bd,62b2ac7f852545e3169afe08,2022-06-22_07h46.24.134,Colour_Asymmetry_Pilot,2022.1.3,Win32,142.9592566,62b2a6a25f2ba72662469a01,,,,,,,,,,,,,,,,,,,,,,,,,,,,,,,,,,,,,,,,,,,,,,,,,,,,,,,,,,,,,,,,,,,,,,,,,,,,,,,,,,,,,,,,,,,,,,,,,,,,,,,,,,,,,,,,,,,,,,,,,,,,,,,,,,,,,,,,,,,,,,,,,,,,,,,,,,,,,,
0,91,91,40,1,,5e4545c5a8f19a01c0fc53bd,62b2ac7f852545e3169afe08,2022-06-22_07h46.24.134,Colour_Asymmetry_Pilot,2022.1.3,Win32,142.9592566,62b2a6a25f2ba72662469a01,,,,,,,,,,,,,,,,,,,,,,,,,,,,,,,,,,,,,,,,,,,,,,,,,,,,,,,,,,,,,,,,,,,,,,,,,,,,,,,,,,,,,,,,,,,,,,,,,,,,,,,,,,,,,,,,,,,,,,,,,,,,,,,,,,,,,,,,,,,,,,,,,,,,,,,,,,,,,,
0,92,92,1,1,,5e4545c5a8f19a01c0fc53bd,62b2ac7f852545e3169afe08,2022-06-22_07h46.24.134,Colour_Asymmetry_Pilot,2022.1.3,Win32,142.9592566,62b2a6a25f2ba72662469a01,,,,,,,,,,,,,,,,,,,,,,,,,,,,,,,,,,,,,,,,,,,,,,,,,,,,,,,,,,,,,,,,,,,,,,,,,,,,,,,,,,,,,,,,,,,,,,,,,,,,,,,,,,,,,,,,,,,,,,,,,,,,,,,,,,,,,,,,,,,,,,,,,,,,,,,,,,,,,,
,,,,,,5e4545c5a8f19a01c0fc53bd,62b2ac7f852545e3169afe08,2022-06-22_07h46.24.134,Colour_Asymmetry_Pilot,2022.1.3,Win32,142.9592566,62b2a6a25f2ba72662469a01,0,0,0,57,1,onethree,,,,,,,,,,,,,,,,,,,,,,,,,,,,,,,,,,,,,,,,,,,,,,,,,,,,,,,,,,,,,,,,,,,,,,,,,,,,,,,,,,,,,,,,,,,,,,,,,,,,,,,,,,,,,,,,,,,,,,,,,,,,,,,,,,,,,,,,,,,,,,,,,,,,,,,,
,,,,,,5e4545c5a8f19a01c0fc53bd,62b2ac7f852545e3169afe08,2022-06-22_07h46.24.134,Colour_Asymmetry_Pilot,2022.1.3,Win32,142.9592566,62b2a6a25f2ba72662469a01,0,1,1,138,1,twoone,,,,,,,,,,,,,,,,,,,,,,,,,,,,,,,,,,,,,,,,,,,,,,,,,,,,,,,,,,,,,,,,,,,,,,,,,,,,,,,,,,,,,,,,,,,,,,,,,,,,,,,,,,,,,,,,,,,,,,,,,,,,,,,,,,,,,,,,,,,,,,,,,,,,,,,,
,,,,,,5e4545c5a8f19a01c0fc53bd,62b2ac7f852545e3169afe08,2022-06-22_07h46.24.134,Colour_Asymmetry_Pilot,2022.1.3,Win32,142.9592566,62b2a6a25f2ba72662469a01,0,2,2,12,1,threeone,,,,,,,,,,,,,,,,,,,,,,,,,,,,,,,,,,,,,,,,,,,,,,,,,,,,,,,,,,,,,,,,,,,,,,,,,,,,,,,,,,,,,,,,,,,,,,,,,,,,,,,,,,,,,,,,,,,,,,,,,,,,,,,,,,,,,,,,,,,,,,,,,,,,,,,,
,,,,,,5e4545c5a8f19a01c0fc53bd,62b2ac7f852545e3169afe08,2022-06-22_07h46.24.134,Colour_Asymmetry_Pilot,2022.1.3,Win32,142.9592566,62b2a6a25f2ba72662469a01,0,3,3,24,1,onetwo,,,,,,,,,,,,,,,,,,,,,,,,,,,,,,,,,,,,,,,,,,,,,,,,,,,,,,,,,,,,,,,,,,,,,,,,,,,,,,,,,,,,,,,,,,,,,,,,,,,,,,,,,,,,,,,,,,,,,,,,,,,,,,,,,,,,,,,,,,,,,,,,,,,,,,,,
,,,,,,5e4545c5a8f19a01c0fc53bd,62b2ac7f852545e3169afe08,2022-06-22_07h46.24.134,Colour_Asymmetry_Pilot,2022.1.3,Win32,142.9592566,62b2a6a25f2ba72662469a01,0,4,4,72,1,onetwo,,,,,,,,,,,,,,,,,,,,,,,,,,,,,,,,,,,,,,,,,,,,,,,,,,,,,,,,,,,,,,,,,,,,,,,,,,,,,,,,,,,,,,,,,,,,,,,,,,,,,,,,,,,,,,,,,,,,,,,,,,,,,,,,,,,,,,,,,,,,,,,,,,,,,,,,
,,,,,,5e4545c5a8f19a01c0fc53bd,62b2ac7f852545e3169afe08,2022-06-22_07h46.24.134,Colour_Asymmetry_Pilot,2022.1.3,Win32,142.9592566,62b2a6a25f2ba72662469a01,0,5,5,26,1,twoone,,,,,,,,,,,,,,,,,,,,,,,,,,,,,,,,,,,,,,,,,,,,,,,,,,,,,,,,,,,,,,,,,,,,,,,,,,,,,,,,,,,,,,,,,,,,,,,,,,,,,,,,,,,,,,,,,,,,,,,,,,,,,,,,,,,,,,,,,,,,,,,,,,,,,,,,
,,,,,,5e4545c5a8f19a01c0fc53bd,62b2ac7f852545e3169afe08,2022-06-22_07h46.24.134,Colour_Asymmetry_Pilot,2022.1.3,Win32,142.9592566,62b2a6a25f2ba72662469a01,0,6,6,150,1,fourtwo,,,,,,,,,,,,,,,,,,,,,,,,,,,,,,,,,,,,,,,,,,,,,,,,,,,,,,,,,,,,,,,,,,,,,,,,,,,,,,,,,,,,,,,,,,,,,,,,,,,,,,,,,,,,,,,,,,,,,,,,,,,,,,,,,,,,,,,,,,,,,,,,,,,,,,,,
,,,,,,5e4545c5a8f19a01c0fc53bd,62b2ac7f852545e3169afe08,2022-06-22_07h46.24.134,Colour_Asymmetry_Pilot,2022.1.3,Win32,142.9592566,62b2a6a25f2ba72662469a01,0,7,7,82,1,twoone,,,,,,,,,,,,,,,,,,,,,,,,,,,,,,,,,,,,,,,,,,,,,,,,,,,,,,,,,,,,,,,,,,,,,,,,,,,,,,,,,,,,,,,,,,,,,,,,,,,,,,,,,,,,,,,,,,,,,,,,,,,,,,,,,,,,,,,,,,,,,,,,,,,,,,,,
,,,,,,5e4545c5a8f19a01c0fc53bd,62b2ac7f852545e3169afe08,2022-06-22_07h46.24.134,Colour_Asymmetry_Pilot,2022.1.3,Win32,142.9592566,62b2a6a25f2ba72662469a01,0,8,8,0,1,onetwo,,,,,,,,,,,,,,,,,,,,,,,,,,,,,,,,,,,,,,,,,,,,,,,,,,,,,,,,,,,,,,,,,,,,,,,,,,,,,,,,,,,,,,,,,,,,,,,,,,,,,,,,,,,,,,,,,,,,,,,,,,,,,,,,,,,,,,,,,,,,,,,,,,,,,,,,
,,,,,,5e4545c5a8f19a01c0fc53bd,62b2ac7f852545e3169afe08,2022-06-22_07h46.24.134,Colour_Asymmetry_Pilot,2022.1.3,Win32,142.9592566,62b2a6a25f2ba72662469a01,0,9,9,148,1,threeone,,,,,,,,,,,,,,,,,,,,,,,,,,,,,,,,,,,,,,,,,,,,,,,,,,,,,,,,,,,,,,,,,,,,,,,,,,,,,,,,,,,,,,,,,,,,,,,,,,,,,,,,,,,,,,,,,,,,,,,,,,,,,,,,,,,,,,,,,,,,,,,,,,,,,,,,
,,,,,,5e4545c5a8f19a01c0fc53bd,62b2ac7f852545e3169afe08,2022-06-22_07h46.24.134,Colour_Asymmetry_Pilot,2022.1.3,Win32,142.9592566,62b2a6a25f2ba72662469a01,0,10,10,122,1,twoone,,,,,,,,,,,,,,,,,,,,,,,,,,,,,,,,,,,,,,,,,,,,,,,,,,,,,,,,,,,,,,,,,,,,,,,,,,,,,,,,,,,,,,,,,,,,,,,,,,,,,,,,,,,,,,,,,,,,,,,,,,,,,,,,,,,,,,,,,,,,,,,,,,,,,,,,
,,,,,,5e4545c5a8f19a01c0fc53bd,62b2ac7f852545e3169afe08,2022-06-22_07h46.24.134,Colour_Asymmetry_Pilot,2022.1.3,Win32,142.9592566,62b2a6a25f2ba72662469a01,0,11,11,61,1,threefour,,,,,,,,,,,,,,,,,,,,,,,,,,,,,,,,,,,,,,,,,,,,,,,,,,,,,,,,,,,,,,,,,,,,,,,,,,,,,,,,,,,,,,,,,,,,,,,,,,,,,,,,,,,,,,,,,,,,,,,,,,,,,,,,,,,,,,,,,,,,,,,,,,,,,,,,
,,,,,,5e4545c5a8f19a01c0fc53bd,62b2ac7f852545e3169afe08,2022-06-22_07h46.24.134,Colour_Asymmetry_Pilot,2022.1.3,Win32,142.9592566,62b2a6a25f2ba72662469a01,0,12,12,56,1,onetwo,,,,,,,,,,,,,,,,,,,,,,,,,,,,,,,,,,,,,,,,,,,,,,,,,,,,,,,,,,,,,,,,,,,,,,,,,,,,,,,,,,,,,,,,,,,,,,,,,,,,,,,,,,,,,,,,,,,,,,,,,,,,,,,,,,,,,,,,,,,,,,,,,,,,,,,,
,,,,,,5e4545c5a8f19a01c0fc53bd,62b2ac7f852545e3169afe08,2022-06-22_07h46.24.134,Colour_Asymmetry_Pilot,2022.1.3,Win32,142.9592566,62b2a6a25f2ba72662469a01,0,13,13,42,1,twoone,,,,,,,,,,,,,,,,,,,,,,,,,,,,,,,,,,,,,,,,,,,,,,,,,,,,,,,,,,,,,,,,,,,,,,,,,,,,,,,,,,,,,,,,,,,,,,,,,,,,,,,,,,,,,,,,,,,,,,,,,,,,,,,,,,,,,,,,,,,,,,,,,,,,,,,,
,,,,,,5e4545c5a8f19a01c0fc53bd,62b2ac7f852545e3169afe08,2022-06-22_07h46.24.134,Colour_Asymmetry_Pilot,2022.1.3,Win32,142.9592566,62b2a6a25f2ba72662469a01,0,14,14,43,1,twofour,,,,,,,,,,,,,,,,,,,,,,,,,,,,,,,,,,,,,,,,,,,,,,,,,,,,,,,,,,,,,,,,,,,,,,,,,,,,,,,,,,,,,,,,,,,,,,,,,,,,,,,,,,,,,,,,,,,,,,,,,,,,,,,,,,,,,,,,,,,,,,,,,,,,,,,,
,,,,,,5e4545c5a8f19a01c0fc53bd,62b2ac7f852545e3169afe08,2022-06-22_07h46.24.134,Colour_Asymmetry_Pilot,2022.1.3,Win32,142.9592566,62b2a6a25f2ba72662469a01,0,15,15,35,1,twofour,,,,,,,,,,,,,,,,,,,,,,,,,,,,,,,,,,,,,,,,,,,,,,,,,,,,,,,,,,,,,,,,,,,,,,,,,,,,,,,,,,,,,,,,,,,,,,,,,,,,,,,,,,,,,,,,,,,,,,,,,,,,,,,,,,,,,,,,,,,,,,,,,,,,,,,,
,,,,,,5e4545c5a8f19a01c0fc53bd,62b2ac7f852545e3169afe08,2022-06-22_07h46.24.134,Colour_Asymmetry_Pilot,2022.1.3,Win32,142.9592566,62b2a6a25f2ba72662469a01,0,16,16,85,1,threefour,,,,,,,,,,,,,,,,,,,,,,,,,,,,,,,,,,,,,,,,,,,,,,,,,,,,,,,,,,,,,,,,,,,,,,,,,,,,,,,,,,,,,,,,,,,,,,,,,,,,,,,,,,,,,,,,,,,,,,,,,,,,,,,,,,,,,,,,,,,,,,,,,,,,,,,,
,,,,,,5e4545c5a8f19a01c0fc53bd,62b2ac7f852545e3169afe08,2022-06-22_07h46.24.134,Colour_Asymmetry_Pilot,2022.1.3,Win32,142.9592566,62b2a6a25f2ba72662469a01,0,17,17,18,1,twoone,,,,,,,,,,,,,,,,,,,,,,,,,,,,,,,,,,,,,,,,,,,,,,,,,,,,,,,,,,,,,,,,,,,,,,,,,,,,,,,,,,,,,,,,,,,,,,,,,,,,,,,,,,,,,,,,,,,,,,,,,,,,,,,,,,,,,,,,,,,,,,,,,,,,,,,,
,,,,,,5e4545c5a8f19a01c0fc53bd,62b2ac7f852545e3169afe08,2022-06-22_07h46.24.134,Colour_Asymmetry_Pilot,2022.1.3,Win32,142.9592566,62b2a6a25f2ba72662469a01,0,18,18,4,1,threeone,,,,,,,,,,,,,,,,,,,,,,,,,,,,,,,,,,,,,,,,,,,,,,,,,,,,,,,,,,,,,,,,,,,,,,,,,,,,,,,,,,,,,,,,,,,,,,,,,,,,,,,,,,,,,,,,,,,,,,,,,,,,,,,,,,,,,,,,,,,,,,,,,,,,,,,,
,,,,,,5e4545c5a8f19a01c0fc53bd,62b2ac7f852545e3169afe08,2022-06-22_07h46.24.134,Colour_Asymmetry_Pilot,2022.1.3,Win32,142.9592566,62b2a6a25f2ba72662469a01,0,19,19,159,1,fourthree,,,,,,,,,,,,,,,,,,,,,,,,,,,,,,,,,,,,,,,,,,,,,,,,,,,,,,,,,,,,,,,,,,,,,,,,,,,,,,,,,,,,,,,,,,,,,,,,,,,,,,,,,,,,,,,,,,,,,,,,,,,,,,,,,,,,,,,,,,,,,,,,,,,,,,,,
,,,,,,5e4545c5a8f19a01c0fc53bd,62b2ac7f852545e3169afe08,2022-06-22_07h46.24.134,Colour_Asymmetry_Pilot,2022.1.3,Win32,142.9592566,62b2a6a25f2ba72662469a01,0,20,20,130,1,twoone,,,,,,,,,,,,,,,,,,,,,,,,,,,,,,,,,,,,,,,,,,,,,,,,,,,,,,,,,,,,,,,,,,,,,,,,,,,,,,,,,,,,,,,,,,,,,,,,,,,,,,,,,,,,,,,,,,,,,,,,,,,,,,,,,,,,,,,,,,,,,,,,,,,,,,,,
,,,,,,5e4545c5a8f19a01c0fc53bd,62b2ac7f852545e3169afe08,2022-06-22_07h46.24.134,Colour_Asymmetry_Pilot,2022.1.3,Win32,142.9592566,62b2a6a25f2ba72662469a01,0,21,21,119,1,fourthree,,,,,,,,,,,,,,,,,,,,,,,,,,,,,,,,,,,,,,,,,,,,,,,,,,,,,,,,,,,,,,,,,,,,,,,,,,,,,,,,,,,,,,,,,,,,,,,,,,,,,,,,,,,,,,,,,,,,,,,,,,,,,,,,,,,,,,,,,,,,,,,,,,,,,,,,
,,,,,,5e4545c5a8f19a01c0fc53bd,62b2ac7f852545e3169afe08,2022-06-22_07h46.24.134,Colour_Asymmetry_Pilot,2022.1.3,Win32,142.9592566,62b2a6a25f2ba72662469a01,0,22,22,114,1,twoone,,,,,,,,,,,,,,,,,,,,,,,,,,,,,,,,,,,,,,,,,,,,,,,,,,,,,,,,,,,,,,,,,,,,,,,,,,,,,,,,,,,,,,,,,,,,,,,,,,,,,,,,,,,,,,,,,,,,,,,,,,,,,,,,,,,,,,,,,,,,,,,,,,,,,,,,
,,,,,,5e4545c5a8f19a01c0fc53bd,62b2ac7f852545e3169afe08,2022-06-22_07h46.24.134,Colour_Asymmetry_Pilot,2022.1.3,Win32,142.9592566,62b2a6a25f2ba72662469a01,0,23,23,102,1,fourtwo,,,,,,,,,,,,,,,,,,,,,,,,,,,,,,,,,,,,,,,,,,,,,,,,,,,,,,,,,,,,,,,,,,,,,,,,,,,,,,,,,,,,,,,,,,,,,,,,,,,,,,,,,,,,,,,,,,,,,,,,,,,,,,,,,,,,,,,,,,,,,,,,,,,,,,,,
,,,,,,5e4545c5a8f19a01c0fc53bd,62b2ac7f852545e3169afe08,2022-06-22_07h46.24.134,Colour_Asymmetry_Pilot,2022.1.3,Win32,142.9592566,62b2a6a25f2ba72662469a01,0,24,24,147,1,twofour,,,,,,,,,,,,,,,,,,,,,,,,,,,,,,,,,,,,,,,,,,,,,,,,,,,,,,,,,,,,,,,,,,,,,,,,,,,,,,,,,,,,,,,,,,,,,,,,,,,,,,,,,,,,,,,,,,,,,,,,,,,,,,,,,,,,,,,,,,,,,,,,,,,,,,,,
,,,,,,5e4545c5a8f19a01c0fc53bd,62b2ac7f852545e3169afe08,2022-06-22_07h46.24.134,Colour_Asymmetry_Pilot,2022.1.3,Win32,142.9592566,62b2a6a25f2ba72662469a01,0,25,25,142,1,fourtwo,,,,,,,,,,,,,,,,,,,,,,,,,,,,,,,,,,,,,,,,,,,,,,,,,,,,,,,,,,,,,,,,,,,,,,,,,,,,,,,,,,,,,,,,,,,,,,,,,,,,,,,,,,,,,,,,,,,,,,,,,,,,,,,,,,,,,,,,,,,,,,,,,,,,,,,,
,,,,,,5e4545c5a8f19a01c0fc53bd,62b2ac7f852545e3169afe08,2022-06-22_07h46.24.134,Colour_Asymmetry_Pilot,2022.1.3,Win32,142.9592566,62b2a6a25f2ba72662469a01,0,26,26,127,1,fourthree,,,,,,,,,,,,,,,,,,,,,,,,,,,,,,,,,,,,,,,,,,,,,,,,,,,,,,,,,,,,,,,,,,,,,,,,,,,,,,,,,,,,,,,,,,,,,,,,,,,,,,,,,,,,,,,,,,,,,,,,,,,,,,,,,,,,,,,,,,,,,,,,,,,,,,,,
,,,,,,5e4545c5a8f19a01c0fc53bd,62b2ac7f852545e3169afe08,2022-06-22_07h46.24.134,Colour_Asymmetry_Pilot,2022.1.3,Win32,142.9592566,62b2a6a25f2ba72662469a01,0,27,27,110,1,fourtwo,,,,,,,,,,,,,,,,,,,,,,,,,,,,,,,,,,,,,,,,,,,,,,,,,,,,,,,,,,,,,,,,,,,,,,,,,,,,,,,,,,,,,,,,,,,,,,,,,,,,,,,,,,,,,,,,,,,,,,,,,,,,,,,,,,,,,,,,,,,,,,,,,,,,,,,,
,,,,,,5e4545c5a8f19a01c0fc53bd,62b2ac7f852545e3169afe08,2022-06-22_07h46.24.134,Colour_Asymmetry_Pilot,2022.1.3,Win32,142.9592566,62b2a6a25f2ba72662469a01,0,28,28,67,1,twofour,,,,,,,,,,,,,,,,,,,,,,,,,,,,,,,,,,,,,,,,,,,,,,,,,,,,,,,,,,,,,,,,,,,,,,,,,,,,,,,,,,,,,,,,,,,,,,,,,,,,,,,,,,,,,,,,,,,,,,,,,,,,,,,,,,,,,,,,,,,,,,,,,,,,,,,,
,,,,,,5e4545c5a8f19a01c0fc53bd,62b2ac7f852545e3169afe08,2022-06-22_07h46.24.134,Colour_Asymmetry_Pilot,2022.1.3,Win32,142.9592566,62b2a6a25f2ba72662469a01,0,29,29,100,1,threeone,,,,,,,,,,,,,,,,,,,,,,,,,,,,,,,,,,,,,,,,,,,,,,,,,,,,,,,,,,,,,,,,,,,,,,,,,,,,,,,,,,,,,,,,,,,,,,,,,,,,,,,,,,,,,,,,,,,,,,,,,,,,,,,,,,,,,,,,,,,,,,,,,,,,,,,,
,,,,,,5e4545c5a8f19a01c0fc53bd,62b2ac7f852545e3169afe08,2022-06-22_07h46.24.134,Colour_Asymmetry_Pilot,2022.1.3,Win32,142.9592566,62b2a6a25f2ba72662469a01,0,30,30,54,1,fourtwo,,,,,,,,,,,,,,,,,,,,,,,,,,,,,,,,,,,,,,,,,,,,,,,,,,,,,,,,,,,,,,,,,,,,,,,,,,,,,,,,,,,,,,,,,,,,,,,,,,,,,,,,,,,,,,,,,,,,,,,,,,,,,,,,,,,,,,,,,,,,,,,,,,,,,,,,
,,,,,,5e4545c5a8f19a01c0fc53bd,62b2ac7f852545e3169afe08,2022-06-22_07h46.24.134,Colour_Asymmetry_Pilot,2022.1.3,Win32,142.9592566,62b2a6a25f2ba72662469a01,0,31,31,11,1,twofour,,,,,,,,,,,,,,,,,,,,,,,,,,,,,,,,,,,,,,,,,,,,,,,,,,,,,,,,,,,,,,,,,,,,,,,,,,,,,,,,,,,,,,,,,,,,,,,,,,,,,,,,,,,,,,,,,,,,,,,,,,,,,,,,,,,,,,,,,,,,,,,,,,,,,,,,
,,,,,,5e4545c5a8f19a01c0fc53bd,62b2ac7f852545e3169afe08,2022-06-22_07h46.24.134,Colour_Asymmetry_Pilot,2022.1.3,Win32,142.9592566,62b2a6a25f2ba72662469a01,0,32,32,98,1,twoone,,,,,,,,,,,,,,,,,,,,,,,,,,,,,,,,,,,,,,,,,,,,,,,,,,,,,,,,,,,,,,,,,,,,,,,,,,,,,,,,,,,,,,,,,,,,,,,,,,,,,,,,,,,,,,,,,,,,,,,,,,,,,,,,,,,,,,,,,,,,,,,,,,,,,,,,
,,,,,,5e4545c5a8f19a01c0fc53bd,62b2ac7f852545e3169afe08,2022-06-22_07h46.24.134,Colour_Asymmetry_Pilot,2022.1.3,Win32,142.9592566,62b2a6a25f2ba72662469a01,0,33,33,29,1,threefour,,,,,,,,,,,,,,,,,,,,,,,,,,,,,,,,,,,,,,,,,,,,,,,,,,,,,,,,,,,,,,,,,,,,,,,,,,,,,,,,,,,,,,,,,,,,,,,,,,,,,,,,,,,,,,,,,,,,,,,,,,,,,,,,,,,,,,,,,,,,,,,,,,,,,,,,
,,,,,,5e4545c5a8f19a01c0fc53bd,62b2ac7f852545e3169afe08,2022-06-22_07h46.24.134,Colour_Asymmetry_Pilot,2022.1.3,Win32,142.9592566,62b2a6a25f2ba72662469a01,0,34,34,41,1,onethree,,,,,,,,,,,,,,,,,,,,,,,,,,,,,,,,,,,,,,,,,,,,,,,,,,,,,,,,,,,,,,,,,,,,,,,,,,,,,,,,,,,,,,,,,,,,,,,,,,,,,,,,,,,,,,,,,,,,,,,,,,,,,,,,,,,,,,,,,,,,,,,,,,,,,,,,
,,,,,,5e4545c5a8f19a01c0fc53bd,62b2ac7f852545e3169afe08,2022-06-22_07h46.24.134,Colour_Asymmetry_Pilot,2022.1.3,Win32,142.9592566,62b2a6a25f2ba72662469a01,0,35,35,52,1,threeone,,,,,,,,,,,,,,,,,,,,,,,,,,,,,,,,,,,,,,,,,,,,,,,,,,,,,,,,,,,,,,,,,,,,,,,,,,,,,,,,,,,,,,,,,,,,,,,,,,,,,,,,,,,,,,,,,,,,,,,,,,,,,,,,,,,,,,,,,,,,,,,,,,,,,,,,
,,,,,,5e4545c5a8f19a01c0fc53bd,62b2ac7f852545e3169afe08,2022-06-22_07h46.24.134,Colour_Asymmetry_Pilot,2022.1.3,Win32,142.9592566,62b2a6a25f2ba72662469a01,0,36,36,158,1,fourtwo,,,,,,,,,,,,,,,,,,,,,,,,,,,,,,,,,,,,,,,,,,,,,,,,,,,,,,,,,,,,,,,,,,,,,,,,,,,,,,,,,,,,,,,,,,,,,,,,,,,,,,,,,,,,,,,,,,,,,,,,,,,,,,,,,,,,,,,,,,,,,,,,,,,,,,,,
,,,,,,5e4545c5a8f19a01c0fc53bd,62b2ac7f852545e3169afe08,2022-06-22_07h46.24.134,Colour_Asymmetry_Pilot,2022.1.3,Win32,142.9592566,62b2a6a25f2ba72662469a01,0,37,37,19,1,twofour,,,,,,,,,,,,,,,,,,,,,,,,,,,,,,,,,,,,,,,,,,,,,,,,,,,,,,,,,,,,,,,,,,,,,,,,,,,,,,,,,,,,,,,,,,,,,,,,,,,,,,,,,,,,,,,,,,,,,,,,,,,,,,,,,,,,,,,,,,,,,,,,,,,,,,,,
,,,,,,5e4545c5a8f19a01c0fc53bd,62b2ac7f852545e3169afe08,2022-06-22_07h46.24.134,Colour_Asymmetry_Pilot,2022.1.3,Win32,142.9592566,62b2a6a25f2ba72662469a01,0,38,38,73,1,onethree,,,,,,,,,,,,,,,,,,,,,,,,,,,,,,,,,,,,,,,,,,,,,,,,,,,,,,,,,,,,,,,,,,,,,,,,,,,,,,,,,,,,,,,,,,,,,,,,,,,,,,,,,,,,,,,,,,,,,,,,,,,,,,,,,,,,,,,,,,,,,,,,,,,,,,,,
,,,,,,5e4545c5a8f19a01c0fc53bd,62b2ac7f852545e3169afe08,2022-06-22_07h46.24.134,Colour_Asymmetry_Pilot,2022.1.3,Win32,142.9592566,62b2a6a25f2ba72662469a01,0,39,39,156,1,threeone,,,,,,,,,,,,,,,,,,,,,,,,,,,,,,,,,,,,,,,,,,,,,,,,,,,,,,,,,,,,,,,,,,,,,,,,,,,,,,,,,,,,,,,,,,,,,,,,,,,,,,,,,,,,,,,,,,,,,,,,,,,,,,,,,,,,,,,,,,,,,,,,,,,,,,,,
,,,,,,5e4545c5a8f19a01c0fc53bd,62b2ac7f852545e3169afe08,2022-06-22_07h46.24.134,Colour_Asymmetry_Pilot,2022.1.3,Win32,142.9592566,62b2a6a25f2ba72662469a01,0,40,40,135,1,fourthree,,,,,,,,,,,,,,,,,,,,,,,,,,,,,,,,,,,,,,,,,,,,,,,,,,,,,,,,,,,,,,,,,,,,,,,,,,,,,,,,,,,,,,,,,,,,,,,,,,,,,,,,,,,,,,,,,,,,,,,,,,,,,,,,,,,,,,,,,,,,,,,,,,,,,,,,
,,,,,,5e4545c5a8f19a01c0fc53bd,62b2ac7f852545e3169afe08,2022-06-22_07h46.24.134,Colour_Asymmetry_Pilot,2022.1.3,Win32,142.9592566,62b2a6a25f2ba72662469a01,0,41,41,86,1,fourtwo,,,,,,,,,,,,,,,,,,,,,,,,,,,,,,,,,,,,,,,,,,,,,,,,,,,,,,,,,,,,,,,,,,,,,,,,,,,,,,,,,,,,,,,,,,,,,,,,,,,,,,,,,,,,,,,,,,,,,,,,,,,,,,,,,,,,,,,,,,,,,,,,,,,,,,,,
,,,,,,5e4545c5a8f19a01c0fc53bd,62b2ac7f852545e3169afe08,2022-06-22_07h46.24.134,Colour_Asymmetry_Pilot,2022.1.3,Win32,142.9592566,62b2a6a25f2ba72662469a01,0,42,42,55,1,fourthree,,,,,,,,,,,,,,,,,,,,,,,,,,,,,,,,,,,,,,,,,,,,,,,,,,,,,,,,,,,,,,,,,,,,,,,,,,,,,,,,,,,,,,,,,,,,,,,,,,,,,,,,,,,,,,,,,,,,,,,,,,,,,,,,,,,,,,,,,,,,,,,,,,,,,,,,
,,,,,,5e4545c5a8f19a01c0fc53bd,62b2ac7f852545e3169afe08,2022-06-22_07h46.24.134,Colour_Asymmetry_Pilot,2022.1.3,Win32,142.9592566,62b2a6a25f2ba72662469a01,0,43,43,76,1,threeone,,,,,,,,,,,,,,,,,,,,,,,,,,,,,,,,,,,,,,,,,,,,,,,,,,,,,,,,,,,,,,,,,,,,,,,,,,,,,,,,,,,,,,,,,,,,,,,,,,,,,,,,,,,,,,,,,,,,,,,,,,,,,,,,,,,,,,,,,,,,,,,,,,,,,,,,
,,,,,,5e4545c5a8f19a01c0fc53bd,62b2ac7f852545e3169afe08,2022-06-22_07h46.24.134,Colour_Asymmetry_Pilot,2022.1.3,Win32,142.9592566,62b2a6a25f2ba72662469a01,0,44,44,15,1,fourthree,,,,,,,,,,,,,,,,,,,,,,,,,,,,,,,,,,,,,,,,,,,,,,,,,,,,,,,,,,,,,,,,,,,,,,,,,,,,,,,,,,,,,,,,,,,,,,,,,,,,,,,,,,,,,,,,,,,,,,,,,,,,,,,,,,,,,,,,,,,,,,,,,,,,,,,,
,,,,,,5e4545c5a8f19a01c0fc53bd,62b2ac7f852545e3169afe08,2022-06-22_07h46.24.134,Colour_Asymmetry_Pilot,2022.1.3,Win32,142.9592566,62b2a6a25f2ba72662469a01,0,45,45,7,1,fourthree,,,,,,,,,,,,,,,,,,,,,,,,,,,,,,,,,,,,,,,,,,,,,,,,,,,,,,,,,,,,,,,,,,,,,,,,,,,,,,,,,,,,,,,,,,,,,,,,,,,,,,,,,,,,,,,,,,,,,,,,,,,,,,,,,,,,,,,,,,,,,,,,,,,,,,,,
,,,,,,5e4545c5a8f19a01c0fc53bd,62b2ac7f852545e3169afe08,2022-06-22_07h46.24.134,Colour_Asymmetry_Pilot,2022.1.3,Win32,142.9592566,62b2a6a25f2ba72662469a01,0,46,46,90,1,twoone,,,,,,,,,,,,,,,,,,,,,,,,,,,,,,,,,,,,,,,,,,,,,,,,,,,,,,,,,,,,,,,,,,,,,,,,,,,,,,,,,,,,,,,,,,,,,,,,,,,,,,,,,,,,,,,,,,,,,,,,,,,,,,,,,,,,,,,,,,,,,,,,,,,,,,,,
,,,,,,5e4545c5a8f19a01c0fc53bd,62b2ac7f852545e3169afe08,2022-06-22_07h46.24.134,Colour_Asymmetry_Pilot,2022.1.3,Win32,142.9592566,62b2a6a25f2ba72662469a01,0,47,47,33,1,onethree,,,,,,,,,,,,,,,,,,,,,,,,,,,,,,,,,,,,,,,,,,,,,,,,,,,,,,,,,,,,,,,,,,,,,,,,,,,,,,,,,,,,,,,,,,,,,,,,,,,,,,,,,,,,,,,,,,,,,,,,,,,,,,,,,,,,,,,,,,,,,,,,,,,,,,,,
,,,,,,5e4545c5a8f19a01c0fc53bd,62b2ac7f852545e3169afe08,2022-06-22_07h46.24.134,Colour_Asymmetry_Pilot,2022.1.3,Win32,142.9592566,62b2a6a25f2ba72662469a01,0,48,48,131,1,twofour,,,,,,,,,,,,,,,,,,,,,,,,,,,,,,,,,,,,,,,,,,,,,,,,,,,,,,,,,,,,,,,,,,,,,,,,,,,,,,,,,,,,,,,,,,,,,,,,,,,,,,,,,,,,,,,,,,,,,,,,,,,,,,,,,,,,,,,,,,,,,,,,,,,,,,,,
,,,,,,5e4545c5a8f19a01c0fc53bd,62b2ac7f852545e3169afe08,2022-06-22_07h46.24.134,Colour_Asymmetry_Pilot,2022.1.3,Win32,142.9592566,62b2a6a25f2ba72662469a01,0,49,49,155,1,twofour,,,,,,,,,,,,,,,,,,,,,,,,,,,,,,,,,,,,,,,,,,,,,,,,,,,,,,,,,,,,,,,,,,,,,,,,,,,,,,,,,,,,,,,,,,,,,,,,,,,,,,,,,,,,,,,,,,,,,,,,,,,,,,,,,,,,,,,,,,,,,,,,,,,,,,,,
,,,,,,5e4545c5a8f19a01c0fc53bd,62b2ac7f852545e3169afe08,2022-06-22_07h46.24.134,Colour_Asymmetry_Pilot,2022.1.3,Win32,142.9592566,62b2a6a25f2ba72662469a01,0,50,50,66,1,twoone,,,,,,,,,,,,,,,,,,,,,,,,,,,,,,,,,,,,,,,,,,,,,,,,,,,,,,,,,,,,,,,,,,,,,,,,,,,,,,,,,,,,,,,,,,,,,,,,,,,,,,,,,,,,,,,,,,,,,,,,,,,,,,,,,,,,,,,,,,,,,,,,,,,,,,,,
,,,,,,5e4545c5a8f19a01c0fc53bd,62b2ac7f852545e3169afe08,2022-06-22_07h46.24.134,Colour_Asymmetry_Pilot,2022.1.3,Win32,142.9592566,62b2a6a25f2ba72662469a01,0,51,51,38,1,fourtwo,,,,,,,,,,,,,,,,,,,,,,,,,,,,,,,,,,,,,,,,,,,,,,,,,,,,,,,,,,,,,,,,,,,,,,,,,,,,,,,,,,,,,,,,,,,,,,,,,,,,,,,,,,,,,,,,,,,,,,,,,,,,,,,,,,,,,,,,,,,,,,,,,,,,,,,,
,,,,,,5e4545c5a8f19a01c0fc53bd,62b2ac7f852545e3169afe08,2022-06-22_07h46.24.134,Colour_Asymmetry_Pilot,2022.1.3,Win32,142.9592566,62b2a6a25f2ba72662469a01,0,52,52,74,1,twoone,,,,,,,,,,,,,,,,,,,,,,,,,,,,,,,,,,,,,,,,,,,,,,,,,,,,,,,,,,,,,,,,,,,,,,,,,,,,,,,,,,,,,,,,,,,,,,,,,,,,,,,,,,,,,,,,,,,,,,,,,,,,,,,,,,,,,,,,,,,,,,,,,,,,,,,,
,,,,,,5e4545c5a8f19a01c0fc53bd,62b2ac7f852545e3169afe08,2022-06-22_07h46.24.134,Colour_Asymmetry_Pilot,2022.1.3,Win32,142.9592566,62b2a6a25f2ba72662469a01,0,53,53,106,1,twoone,,,,,,,,,,,,,,,,,,,,,,,,,,,,,,,,,,,,,,,,,,,,,,,,,,,,,,,,,,,,,,,,,,,,,,,,,,,,,,,,,,,,,,,,,,,,,,,,,,,,,,,,,,,,,,,,,,,,,,,,,,,,,,,,,,,,,,,,,,,,,,,,,,,,,,,,
,,,,,,5e4545c5a8f19a01c0fc53bd,62b2ac7f852545e3169afe08,2022-06-22_07h46.24.134,Colour_Asymmetry_Pilot,2022.1.3,Win32,142.9592566,62b2a6a25f2ba72662469a01,0,54,54,96,1,onetwo,,,,,,,,,,,,,,,,,,,,,,,,,,,,,,,,,,,,,,,,,,,,,,,,,,,,,,,,,,,,,,,,,,,,,,,,,,,,,,,,,,,,,,,,,,,,,,,,,,,,,,,,,,,,,,,,,,,,,,,,,,,,,,,,,,,,,,,,,,,,,,,,,,,,,,,,
,,,,,,5e4545c5a8f19a01c0fc53bd,62b2ac7f852545e3169afe08,2022-06-22_07h46.24.134,Colour_Asymmetry_Pilot,2022.1.3,Win32,142.9592566,62b2a6a25f2ba72662469a01,0,55,55,112,1,onetwo,,,,,,,,,,,,,,,,,,,,,,,,,,,,,,,,,,,,,,,,,,,,,,,,,,,,,,,,,,,,,,,,,,,,,,,,,,,,,,,,,,,,,,,,,,,,,,,,,,,,,,,,,,,,,,,,,,,,,,,,,,,,,,,,,,,,,,,,,,,,,,,,,,,,,,,,
,,,,,,5e4545c5a8f19a01c0fc53bd,62b2ac7f852545e3169afe08,2022-06-22_07h46.24.134,Colour_Asymmetry_Pilot,2022.1.3,Win32,142.9592566,62b2a6a25f2ba72662469a01,0,56,56,69,1,threefour,,,,,,,,,,,,,,,,,,,,,,,,,,,,,,,,,,,,,,,,,,,,,,,,,,,,,,,,,,,,,,,,,,,,,,,,,,,,,,,,,,,,,,,,,,,,,,,,,,,,,,,,,,,,,,,,,,,,,,,,,,,,,,,,,,,,,,,,,,,,,,,,,,,,,,,,
,,,,,,5e4545c5a8f19a01c0fc53bd,62b2ac7f852545e3169afe08,2022-06-22_07h46.24.134,Colour_Asymmetry_Pilot,2022.1.3,Win32,142.9592566,62b2a6a25f2ba72662469a01,0,57,57,105,1,onethree,,,,,,,,,,,,,,,,,,,,,,,,,,,,,,,,,,,,,,,,,,,,,,,,,,,,,,,,,,,,,,,,,,,,,,,,,,,,,,,,,,,,,,,,,,,,,,,,,,,,,,,,,,,,,,,,,,,,,,,,,,,,,,,,,,,,,,,,,,,,,,,,,,,,,,,,
,,,,,,5e4545c5a8f19a01c0fc53bd,62b2ac7f852545e3169afe08,2022-06-22_07h46.24.134,Colour_Asymmetry_Pilot,2022.1.3,Win32,142.9592566,62b2a6a25f2ba72662469a01,0,58,58,58,1,twoone,,,,,,,,,,,,,,,,,,,,,,,,,,,,,,,,,,,,,,,,,,,,,,,,,,,,,,,,,,,,,,,,,,,,,,,,,,,,,,,,,,,,,,,,,,,,,,,,,,,,,,,,,,,,,,,,,,,,,,,,,,,,,,,,,,,,,,,,,,,,,,,,,,,,,,,,
,,,,,,5e4545c5a8f19a01c0fc53bd,62b2ac7f852545e3169afe08,2022-06-22_07h46.24.134,Colour_Asymmetry_Pilot,2022.1.3,Win32,142.9592566,62b2a6a25f2ba72662469a01,0,59,59,78,1,fourtwo,,,,,,,,,,,,,,,,,,,,,,,,,,,,,,,,,,,,,,,,,,,,,,,,,,,,,,,,,,,,,,,,,,,,,,,,,,,,,,,,,,,,,,,,,,,,,,,,,,,,,,,,,,,,,,,,,,,,,,,,,,,,,,,,,,,,,,,,,,,,,,,,,,,,,,,,
,,,,,,5e4545c5a8f19a01c0fc53bd,62b2ac7f852545e3169afe08,2022-06-22_07h46.24.134,Colour_Asymmetry_Pilot,2022.1.3,Win32,142.9592566,62b2a6a25f2ba72662469a01,0,60,60,10,1,twoone,,,,,,,,,,,,,,,,,,,,,,,,,,,,,,,,,,,,,,,,,,,,,,,,,,,,,,,,,,,,,,,,,,,,,,,,,,,,,,,,,,,,,,,,,,,,,,,,,,,,,,,,,,,,,,,,,,,,,,,,,,,,,,,,,,,,,,,,,,,,,,,,,,,,,,,,
,,,,,,5e4545c5a8f19a01c0fc53bd,62b2ac7f852545e3169afe08,2022-06-22_07h46.24.134,Colour_Asymmetry_Pilot,2022.1.3,Win32,142.9592566,62b2a6a25f2ba72662469a01,0,61,61,75,1,twofour,,,,,,,,,,,,,,,,,,,,,,,,,,,,,,,,,,,,,,,,,,,,,,,,,,,,,,,,,,,,,,,,,,,,,,,,,,,,,,,,,,,,,,,,,,,,,,,,,,,,,,,,,,,,,,,,,,,,,,,,,,,,,,,,,,,,,,,,,,,,,,,,,,,,,,,,
,,,,,,5e4545c5a8f19a01c0fc53bd,62b2ac7f852545e3169afe08,2022-06-22_07h46.24.134,Colour_Asymmetry_Pilot,2022.1.3,Win32,142.9592566,62b2a6a25f2ba72662469a01,0,62,62,108,1,threeone,,,,,,,,,,,,,,,,,,,,,,,,,,,,,,,,,,,,,,,,,,,,,,,,,,,,,,,,,,,,,,,,,,,,,,,,,,,,,,,,,,,,,,,,,,,,,,,,,,,,,,,,,,,,,,,,,,,,,,,,,,,,,,,,,,,,,,,,,,,,,,,,,,,,,,,,
,,,,,,5e4545c5a8f19a01c0fc53bd,62b2ac7f852545e3169afe08,2022-06-22_07h46.24.134,Colour_Asymmetry_Pilot,2022.1.3,Win32,142.9592566,62b2a6a25f2ba72662469a01,0,63,63,139,1,twofour,,,,,,,,,,,,,,,,,,,,,,,,,,,,,,,,,,,,,,,,,,,,,,,,,,,,,,,,,,,,,,,,,,,,,,,,,,,,,,,,,,,,,,,,,,,,,,,,,,,,,,,,,,,,,,,,,,,,,,,,,,,,,,,,,,,,,,,,,,,,,,,,,,,,,,,,
,,,,,,5e4545c5a8f19a01c0fc53bd,62b2ac7f852545e3169afe08,2022-06-22_07h46.24.134,Colour_Asymmetry_Pilot,2022.1.3,Win32,142.9592566,62b2a6a25f2ba72662469a01,0,64,64,95,1,fourthree,,,,,,,,,,,,,,,,,,,,,,,,,,,,,,,,,,,,,,,,,,,,,,,,,,,,,,,,,,,,,,,,,,,,,,,,,,,,,,,,,,,,,,,,,,,,,,,,,,,,,,,,,,,,,,,,,,,,,,,,,,,,,,,,,,,,,,,,,,,,,,,,,,,,,,,,
,,,,,,5e4545c5a8f19a01c0fc53bd,62b2ac7f852545e3169afe08,2022-06-22_07h46.24.134,Colour_Asymmetry_Pilot,2022.1.3,Win32,142.9592566,62b2a6a25f2ba72662469a01,0,65,65,49,1,onethree,,,,,,,,,,,,,,,,,,,,,,,,,,,,,,,,,,,,,,,,,,,,,,,,,,,,,,,,,,,,,,,,,,,,,,,,,,,,,,,,,,,,,,,,,,,,,,,,,,,,,,,,,,,,,,,,,,,,,,,,,,,,,,,,,,,,,,,,,,,,,,,,,,,,,,,,
,,,,,,5e4545c5a8f19a01c0fc53bd,62b2ac7f852545e3169afe08,2022-06-22_07h46.24.134,Colour_Asymmetry_Pilot,2022.1.3,Win32,142.9592566,62b2a6a25f2ba72662469a01,0,66,66,161,1,onethree,,,,,,,,,,,,,,,,,,,,,,,,,,,,,,,,,,,,,,,,,,,,,,,,,,,,,,,,,,,,,,,,,,,,,,,,,,,,,,,,,,,,,,,,,,,,,,,,,,,,,,,,,,,,,,,,,,,,,,,,,,,,,,,,,,,,,,,,,,,,,,,,,,,,,,,,
,,,,,,5e4545c5a8f19a01c0fc53bd,62b2ac7f852545e3169afe08,2022-06-22_07h46.24.134,Colour_Asymmetry_Pilot,2022.1.3,Win32,142.9592566,62b2a6a25f2ba72662469a01,0,67,67,151,1,fourthree,,,,,,,,,,,,,,,,,,,,,,,,,,,,,,,,,,,,,,,,,,,,,,,,,,,,,,,,,,,,,,,,,,,,,,,,,,,,,,,,,,,,,,,,,,,,,,,,,,,,,,,,,,,,,,,,,,,,,,,,,,,,,,,,,,,,,,,,,,,,,,,,,,,,,,,,
,,,,,,5e4545c5a8f19a01c0fc53bd,62b2ac7f852545e3169afe08,2022-06-22_07h46.24.134,Colour_Asymmetry_Pilot,2022.1.3,Win32,142.9592566,62b2a6a25f2ba72662469a01,0,68,68,92,1,threeone,,,,,,,,,,,,,,,,,,,,,,,,,,,,,,,,,,,,,,,,,,,,,,,,,,,,,,,,,,,,,,,,,,,,,,,,,,,,,,,,,,,,,,,,,,,,,,,,,,,,,,,,,,,,,,,,,,,,,,,,,,,,,,,,,,,,,,,,,,,,,,,,,,,,,,,,
,,,,,,5e4545c5a8f19a01c0fc53bd,62b2ac7f852545e3169afe08,2022-06-22_07h46.24.134,Colour_Asymmetry_Pilot,2022.1.3,Win32,142.9592566,62b2a6a25f2ba72662469a01,0,69,69,31,1,fourthree,,,,,,,,,,,,,,,,,,,,,,,,,,,,,,,,,,,,,,,,,,,,,,,,,,,,,,,,,,,,,,,,,,,,,,,,,,,,,,,,,,,,,,,,,,,,,,,,,,,,,,,,,,,,,,,,,,,,,,,,,,,,,,,,,,,,,,,,,,,,,,,,,,,,,,,,
,,,,,,5e4545c5a8f19a01c0fc53bd,62b2ac7f852545e3169afe08,2022-06-22_07h46.24.134,Colour_Asymmetry_Pilot,2022.1.3,Win32,142.9592566,62b2a6a25f2ba72662469a01,0,70,70,1,1,onethree,,,,,,,,,,,,,,,,,,,,,,,,,,,,,,,,,,,,,,,,,,,,,,,,,,,,,,,,,,,,,,,,,,,,,,,,,,,,,,,,,,,,,,,,,,,,,,,,,,,,,,,,,,,,,,,,,,,,,,,,,,,,,,,,,,,,,,,,,,,,,,,,,,,,,,,,
,,,,,,5e4545c5a8f19a01c0fc53bd,62b2ac7f852545e3169afe08,2022-06-22_07h46.24.134,Colour_Asymmetry_Pilot,2022.1.3,Win32,142.9592566,62b2a6a25f2ba72662469a01,0,71,71,48,1,onetwo,,,,,,,,,,,,,,,,,,,,,,,,,,,,,,,,,,,,,,,,,,,,,,,,,,,,,,,,,,,,,,,,,,,,,,,,,,,,,,,,,,,,,,,,,,,,,,,,,,,,,,,,,,,,,,,,,,,,,,,,,,,,,,,,,,,,,,,,,,,,,,,,,,,,,,,,
,,,,,,5e4545c5a8f19a01c0fc53bd,62b2ac7f852545e3169afe08,2022-06-22_07h46.24.134,Colour_Asymmetry_Pilot,2022.1.3,Win32,142.9592566,62b2a6a25f2ba72662469a01,0,72,72,77,1,threefour,,,,,,,,,,,,,,,,,,,,,,,,,,,,,,,,,,,,,,,,,,,,,,,,,,,,,,,,,,,,,,,,,,,,,,,,,,,,,,,,,,,,,,,,,,,,,,,,,,,,,,,,,,,,,,,,,,,,,,,,,,,,,,,,,,,,,,,,,,,,,,,,,,,,,,,,
,,,,,,5e4545c5a8f19a01c0fc53bd,62b2ac7f852545e3169afe08,2022-06-22_07h46.24.134,Colour_Asymmetry_Pilot,2022.1.3,Win32,142.9592566,62b2a6a25f2ba72662469a01,0,73,73,137,1,onethree,,,,,,,,,,,,,,,,,,,,,,,,,,,,,,,,,,,,,,,,,,,,,,,,,,,,,,,,,,,,,,,,,,,,,,,,,,,,,,,,,,,,,,,,,,,,,,,,,,,,,,,,,,,,,,,,,,,,,,,,,,,,,,,,,,,,,,,,,,,,,,,,,,,,,,,,
,,,,,,5e4545c5a8f19a01c0fc53bd,62b2ac7f852545e3169afe08,2022-06-22_07h46.24.134,Colour_Asymmetry_Pilot,2022.1.3,Win32,142.9592566,62b2a6a25f2ba72662469a01,0,74,74,117,1,threefour,,,,,,,,,,,,,,,,,,,,,,,,,,,,,,,,,,,,,,,,,,,,,,,,,,,,,,,,,,,,,,,,,,,,,,,,,,,,,,,,,,,,,,,,,,,,,,,,,,,,,,,,,,,,,,,,,,,,,,,,,,,,,,,,,,,,,,,,,,,,,,,,,,,,,,,,
,,,,,,5e4545c5a8f19a01c0fc53bd,62b2ac7f852545e3169afe08,2022-06-22_07h46.24.134,Colour_Asymmetry_Pilot,2022.1.3,Win32,142.9592566,62b2a6a25f2ba72662469a01,0,75,75,146,1,twoone,,,,,,,,,,,,,,,,,,,,,,,,,,,,,,,,,,,,,,,,,,,,,,,,,,,,,,,,,,,,,,,,,,,,,,,,,,,,,,,,,,,,,,,,,,,,,,,,,,,,,,,,,,,,,,,,,,,,,,,,,,,,,,,,,,,,,,,,,,,,,,,,,,,,,,,,
,,,,,,5e4545c5a8f19a01c0fc53bd,62b2ac7f852545e3169afe08,2022-06-22_07h46.24.134,Colour_Asymmetry_Pilot,2022.1.3,Win32,142.9592566,62b2a6a25f2ba72662469a01,0,76,76,109,1,threefour,,,,,,,,,,,,,,,,,,,,,,,,,,,,,,,,,,,,,,,,,,,,,,,,,,,,,,,,,,,,,,,,,,,,,,,,,,,,,,,,,,,,,,,,,,,,,,,,,,,,,,,,,,,,,,,,,,,,,,,,,,,,,,,,,,,,,,,,,,,,,,,,,,,,,,,,
,,,,,,5e4545c5a8f19a01c0fc53bd,62b2ac7f852545e3169afe08,2022-06-22_07h46.24.134,Colour_Asymmetry_Pilot,2022.1.3,Win32,142.9592566,62b2a6a25f2ba72662469a01,0,77,77,141,1,threefour,,,,,,,,,,,,,,,,,,,,,,,,,,,,,,,,,,,,,,,,,,,,,,,,,,,,,,,,,,,,,,,,,,,,,,,,,,,,,,,,,,,,,,,,,,,,,,,,,,,,,,,,,,,,,,,,,,,,,,,,,,,,,,,,,,,,,,,,,,,,,,,,,,,,,,,,
,,,,,,5e4545c5a8f19a01c0fc53bd,62b2ac7f852545e3169afe08,2022-06-22_07h46.24.134,Colour_Asymmetry_Pilot,2022.1.3,Win32,142.9592566,62b2a6a25f2ba72662469a01,0,78,78,144,1,onetwo,,,,,,,,,,,,,,,,,,,,,,,,,,,,,,,,,,,,,,,,,,,,,,,,,,,,,,,,,,,,,,,,,,,,,,,,,,,,,,,,,,,,,,,,,,,,,,,,,,,,,,,,,,,,,,,,,,,,,,,,,,,,,,,,,,,,,,,,,,,,,,,,,,,,,,,,
,,,,,,5e4545c5a8f19a01c0fc53bd,62b2ac7f852545e3169afe08,2022-06-22_07h46.24.134,Colour_Asymmetry_Pilot,2022.1.3,Win32,142.9592566,62b2a6a25f2ba72662469a01,0,79,79,115,1,twofour,,,,,,,,,,,,,,,,,,,,,,,,,,,,,,,,,,,,,,,,,,,,,,,,,,,,,,,,,,,,,,,,,,,,,,,,,,,,,,,,,,,,,,,,,,,,,,,,,,,,,,,,,,,,,,,,,,,,,,,,,,,,,,,,,,,,,,,,,,,,,,,,,,,,,,,,
,,,,,,5e4545c5a8f19a01c0fc53bd,62b2ac7f852545e3169afe08,2022-06-22_07h46.24.134,Colour_Asymmetry_Pilot,2022.1.3,Win32,142.9592566,62b2a6a25f2ba72662469a01,0,80,80,125,1,threefour,,,,,,,,,,,,,,,,,,,,,,,,,,,,,,,,,,,,,,,,,,,,,,,,,,,,,,,,,,,,,,,,,,,,,,,,,,,,,,,,,,,,,,,,,,,,,,,,,,,,,,,,,,,,,,,,,,,,,,,,,,,,,,,,,,,,,,,,,,,,,,,,,,,,,,,,
,,,,,,5e4545c5a8f19a01c0fc53bd,62b2ac7f852545e3169afe08,2022-06-22_07h46.24.134,Colour_Asymmetry_Pilot,2022.1.3,Win32,142.9592566,62b2a6a25f2ba72662469a01,0,81,81,50,1,twoone,,,,,,,,,,,,,,,,,,,,,,,,,,,,,,,,,,,,,,,,,,,,,,,,,,,,,,,,,,,,,,,,,,,,,,,,,,,,,,,,,,,,,,,,,,,,,,,,,,,,,,,,,,,,,,,,,,,,,,,,,,,,,,,,,,,,,,,,,,,,,,,,,,,,,,,,
,,,,,,5e4545c5a8f19a01c0fc53bd,62b2ac7f852545e3169afe08,2022-06-22_07h46.24.134,Colour_Asymmetry_Pilot,2022.1.3,Win32,142.9592566,62b2a6a25f2ba72662469a01,0,82,82,37,1,threefour,,,,,,,,,,,,,,,,,,,,,,,,,,,,,,,,,,,,,,,,,,,,,,,,,,,,,,,,,,,,,,,,,,,,,,,,,,,,,,,,,,,,,,,,,,,,,,,,,,,,,,,,,,,,,,,,,,,,,,,,,,,,,,,,,,,,,,,,,,,,,,,,,,,,,,,,
,,,,,,5e4545c5a8f19a01c0fc53bd,62b2ac7f852545e3169afe08,2022-06-22_07h46.24.134,Colour_Asymmetry_Pilot,2022.1.3,Win32,142.9592566,62b2a6a25f2ba72662469a01,0,83,83,63,1,fourthree,,,,,,,,,,,,,,,,,,,,,,,,,,,,,,,,,,,,,,,,,,,,,,,,,,,,,,,,,,,,,,,,,,,,,,,,,,,,,,,,,,,,,,,,,,,,,,,,,,,,,,,,,,,,,,,,,,,,,,,,,,,,,,,,,,,,,,,,,,,,,,,,,,,,,,,,
,,,,,,5e4545c5a8f19a01c0fc53bd,62b2ac7f852545e3169afe08,2022-06-22_07h46.24.134,Colour_Asymmetry_Pilot,2022.1.3,Win32,142.9592566,62b2a6a25f2ba72662469a01,0,84,84,5,1,threefour,,,,,,,,,,,,,,,,,,,,,,,,,,,,,,,,,,,,,,,,,,,,,,,,,,,,,,,,,,,,,,,,,,,,,,,,,,,,,,,,,,,,,,,,,,,,,,,,,,,,,,,,,,,,,,,,,,,,,,,,,,,,,,,,,,,,,,,,,,,,,,,,,,,,,,,,
,,,,,,5e4545c5a8f19a01c0fc53bd,62b2ac7f852545e3169afe08,2022-06-22_07h46.24.134,Colour_Asymmetry_Pilot,2022.1.3,Win32,142.9592566,62b2a6a25f2ba72662469a01,0,85,85,152,1,onetwo,,,,,,,,,,,,,,,,,,,,,,,,,,,,,,,,,,,,,,,,,,,,,,,,,,,,,,,,,,,,,,,,,,,,,,,,,,,,,,,,,,,,,,,,,,,,,,,,,,,,,,,,,,,,,,,,,,,,,,,,,,,,,,,,,,,,,,,,,,,,,,,,,,,,,,,,
,,,,,,5e4545c5a8f19a01c0fc53bd,62b2ac7f852545e3169afe08,2022-06-22_07h46.24.134,Colour_Asymmetry_Pilot,2022.1.3,Win32,142.9592566,62b2a6a25f2ba72662469a01,0,86,86,153,1,onethree,,,,,,,,,,,,,,,,,,,,,,,,,,,,,,,,,,,,,,,,,,,,,,,,,,,,,,,,,,,,,,,,,,,,,,,,,,,,,,,,,,,,,,,,,,,,,,,,,,,,,,,,,,,,,,,,,,,,,,,,,,,,,,,,,,,,,,,,,,,,,,,,,,,,,,,,
,,,,,,5e4545c5a8f19a01c0fc53bd,62b2ac7f852545e3169afe08,2022-06-22_07h46.24.134,Colour_Asymmetry_Pilot,2022.1.3,Win32,142.9592566,62b2a6a25f2ba72662469a01,0,87,87,53,1,threefour,,,,,,,,,,,,,,,,,,,,,,,,,,,,,,,,,,,,,,,,,,,,,,,,,,,,,,,,,,,,,,,,,,,,,,,,,,,,,,,,,,,,,,,,,,,,,,,,,,,,,,,,,,,,,,,,,,,,,,,,,,,,,,,,,,,,,,,,,,,,,,,,,,,,,,,,
,,,,,,5e4545c5a8f19a01c0fc53bd,62b2ac7f852545e3169afe08,2022-06-22_07h46.24.134,Colour_Asymmetry_Pilot,2022.1.3,Win32,142.9592566,62b2a6a25f2ba72662469a01,0,88,88,154,1,twoone,,,,,,,,,,,,,,,,,,,,,,,,,,,,,,,,,,,,,,,,,,,,,,,,,,,,,,,,,,,,,,,,,,,,,,,,,,,,,,,,,,,,,,,,,,,,,,,,,,,,,,,,,,,,,,,,,,,,,,,,,,,,,,,,,,,,,,,,,,,,,,,,,,,,,,,,
,,,,,,5e4545c5a8f19a01c0fc53bd,62b2ac7f852545e3169afe08,2022-06-22_07h46.24.134,Colour_Asymmetry_Pilot,2022.1.3,Win32,142.9592566,62b2a6a25f2ba72662469a01,0,89,89,143,1,fourthree,,,,,,,,,,,,,,,,,,,,,,,,,,,,,,,,,,,,,,,,,,,,,,,,,,,,,,,,,,,,,,,,,,,,,,,,,,,,,,,,,,,,,,,,,,,,,,,,,,,,,,,,,,,,,,,,,,,,,,,,,,,,,,,,,,,,,,,,,,,,,,,,,,,,,,,,
,,,,,,5e4545c5a8f19a01c0fc53bd,62b2ac7f852545e3169afe08,2022-06-22_07h46.24.134,Colour_Asymmetry_Pilot,2022.1.3,Win32,142.9592566,62b2a6a25f2ba72662469a01,0,90,90,123,1,twofour,,,,,,,,,,,,,,,,,,,,,,,,,,,,,,,,,,,,,,,,,,,,,,,,,,,,,,,,,,,,,,,,,,,,,,,,,,,,,,,,,,,,,,,,,,,,,,,,,,,,,,,,,,,,,,,,,,,,,,,,,,,,,,,,,,,,,,,,,,,,,,,,,,,,,,,,
,,,,,,5e4545c5a8f19a01c0fc53bd,62b2ac7f852545e3169afe08,2022-06-22_07h46.24.134,Colour_Asymmetry_Pilot,2022.1.3,Win32,142.9592566,62b2a6a25f2ba72662469a01,0,91,91,121,1,onethree,,,,,,,,,,,,,,,,,,,,,,,,,,,,,,,,,,,,,,,,,,,,,,,,,,,,,,,,,,,,,,,,,,,,,,,,,,,,,,,,,,,,,,,,,,,,,,,,,,,,,,,,,,,,,,,,,,,,,,,,,,,,,,,,,,,,,,,,,,,,,,,,,,,,,,,,
,,,,,,5e4545c5a8f19a01c0fc53bd,62b2ac7f852545e3169afe08,2022-06-22_07h46.24.134,Colour_Asymmetry_Pilot,2022.1.3,Win32,142.9592566,62b2a6a25f2ba72662469a01,0,92,92,124,1,threeone,,,,,,,,,,,,,,,,,,,,,,,,,,,,,,,,,,,,,,,,,,,,,,,,,,,,,,,,,,,,,,,,,,,,,,,,,,,,,,,,,,,,,,,,,,,,,,,,,,,,,,,,,,,,,,,,,,,,,,,,,,,,,,,,,,,,,,,,,,,,,,,,,,,,,,,,
,,,,,,5e4545c5a8f19a01c0fc53bd,62b2ac7f852545e3169afe08,2022-06-22_07h46.24.134,Colour_Asymmetry_Pilot,2022.1.3,Win32,142.9592566,62b2a6a25f2ba72662469a01,0,93,93,126,1,fourtwo,,,,,,,,,,,,,,,,,,,,,,,,,,,,,,,,,,,,,,,,,,,,,,,,,,,,,,,,,,,,,,,,,,,,,,,,,,,,,,,,,,,,,,,,,,,,,,,,,,,,,,,,,,,,,,,,,,,,,,,,,,,,,,,,,,,,,,,,,,,,,,,,,,,,,,,,
,,,,,,5e4545c5a8f19a01c0fc53bd,62b2ac7f852545e3169afe08,2022-06-22_07h46.24.134,Colour_Asymmetry_Pilot,2022.1.3,Win32,142.9592566,62b2a6a25f2ba72662469a01,0,94,94,94,1,fourtwo,,,,,,,,,,,,,,,,,,,,,,,,,,,,,,,,,,,,,,,,,,,,,,,,,,,,,,,,,,,,,,,,,,,,,,,,,,,,,,,,,,,,,,,,,,,,,,,,,,,,,,,,,,,,,,,,,,,,,,,,,,,,,,,,,,,,,,,,,,,,,,,,,,,,,,,,
,,,,,,5e4545c5a8f19a01c0fc53bd,62b2ac7f852545e3169afe08,2022-06-22_07h46.24.134,Colour_Asymmetry_Pilot,2022.1.3,Win32,142.9592566,62b2a6a25f2ba72662469a01,0,95,95,91,1,twofour,,,,,,,,,,,,,,,,,,,,,,,,,,,,,,,,,,,,,,,,,,,,,,,,,,,,,,,,,,,,,,,,,,,,,,,,,,,,,,,,,,,,,,,,,,,,,,,,,,,,,,,,,,,,,,,,,,,,,,,,,,,,,,,,,,,,,,,,,,,,,,,,,,,,,,,,
,,,,,,5e4545c5a8f19a01c0fc53bd,62b2ac7f852545e3169afe08,2022-06-22_07h46.24.134,Colour_Asymmetry_Pilot,2022.1.3,Win32,142.9592566,62b2a6a25f2ba72662469a01,0,96,96,120,1,onetwo,,,,,,,,,,,,,,,,,,,,,,,,,,,,,,,,,,,,,,,,,,,,,,,,,,,,,,,,,,,,,,,,,,,,,,,,,,,,,,,,,,,,,,,,,,,,,,,,,,,,,,,,,,,,,,,,,,,,,,,,,,,,,,,,,,,,,,,,,,,,,,,,,,,,,,,,
,,,,,,5e4545c5a8f19a01c0fc53bd,62b2ac7f852545e3169afe08,2022-06-22_07h46.24.134,Colour_Asymmetry_Pilot,2022.1.3,Win32,142.9592566,62b2a6a25f2ba72662469a01,0,97,97,87,1,fourthree,,,,,,,,,,,,,,,,,,,,,,,,,,,,,,,,,,,,,,,,,,,,,,,,,,,,,,,,,,,,,,,,,,,,,,,,,,,,,,,,,,,,,,,,,,,,,,,,,,,,,,,,,,,,,,,,,,,,,,,,,,,,,,,,,,,,,,,,,,,,,,,,,,,,,,,,
,,,,,,5e4545c5a8f19a01c0fc53bd,62b2ac7f852545e3169afe08,2022-06-22_07h46.24.134,Colour_Asymmetry_Pilot,2022.1.3,Win32,142.9592566,62b2a6a25f2ba72662469a01,0,98,98,88,1,onetwo,,,,,,,,,,,,,,,,,,,,,,,,,,,,,,,,,,,,,,,,,,,,,,,,,,,,,,,,,,,,,,,,,,,,,,,,,,,,,,,,,,,,,,,,,,,,,,,,,,,,,,,,,,,,,,,,,,,,,,,,,,,,,,,,,,,,,,,,,,,,,,,,,,,,,,,,
,,,,,,5e4545c5a8f19a01c0fc53bd,62b2ac7f852545e3169afe08,2022-06-22_07h46.24.134,Colour_Asymmetry_Pilot,2022.1.3,Win32,142.9592566,62b2a6a25f2ba72662469a01,0,99,99,113,1,onethree,,,,,,,,,,,,,,,,,,,,,,,,,,,,,,,,,,,,,,,,,,,,,,,,,,,,,,,,,,,,,,,,,,,,,,,,,,,,,,,,,,,,,,,,,,,,,,,,,,,,,,,,,,,,,,,,,,,,,,,,,,,,,,,,,,,,,,,,,,,,,,,,,,,,,,,,
,,,,,,5e4545c5a8f19a01c0fc53bd,62b2ac7f852545e3169afe08,2022-06-22_07h46.24.134,Colour_Asymmetry_Pilot,2022.1.3,Win32,142.9592566,62b2a6a25f2ba72662469a01,0,100,100,34,1,twoone,,,,,,,,,,,,,,,,,,,,,,,,,,,,,,,,,,,,,,,,,,,,,,,,,,,,,,,,,,,,,,,,,,,,,,,,,,,,,,,,,,,,,,,,,,,,,,,,,,,,,,,,,,,,,,,,,,,,,,,,,,,,,,,,,,,,,,,,,,,,,,,,,,,,,,,,
,,,,,,5e4545c5a8f19a01c0fc53bd,62b2ac7f852545e3169afe08,2022-06-22_07h46.24.134,Colour_Asymmetry_Pilot,2022.1.3,Win32,142.9592566,62b2a6a25f2ba72662469a01,0,101,101,17,1,onethree,,,,,,,,,,,,,,,,,,,,,,,,,,,,,,,,,,,,,,,,,,,,,,,,,,,,,,,,,,,,,,,,,,,,,,,,,,,,,,,,,,,,,,,,,,,,,,,,,,,,,,,,,,,,,,,,,,,,,,,,,,,,,,,,,,,,,,,,,,,,,,,,,,,,,,,,
,,,,,,5e4545c5a8f19a01c0fc53bd,62b2ac7f852545e3169afe08,2022-06-22_07h46.24.134,Colour_Asymmetry_Pilot,2022.1.3,Win32,142.9592566,62b2a6a25f2ba72662469a01,0,102,102,104,1,onetwo,,,,,,,,,,,,,,,,,,,,,,,,,,,,,,,,,,,,,,,,,,,,,,,,,,,,,,,,,,,,,,,,,,,,,,,,,,,,,,,,,,,,,,,,,,,,,,,,,,,,,,,,,,,,,,,,,,,,,,,,,,,,,,,,,,,,,,,,,,,,,,,,,,,,,,,,
,,,,,,5e4545c5a8f19a01c0fc53bd,62b2ac7f852545e3169afe08,2022-06-22_07h46.24.134,Colour_Asymmetry_Pilot,2022.1.3,Win32,142.9592566,62b2a6a25f2ba72662469a01,0,103,103,136,1,onetwo,,,,,,,,,,,,,,,,,,,,,,,,,,,,,,,,,,,,,,,,,,,,,,,,,,,,,,,,,,,,,,,,,,,,,,,,,,,,,,,,,,,,,,,,,,,,,,,,,,,,,,,,,,,,,,,,,,,,,,,,,,,,,,,,,,,,,,,,,,,,,,,,,,,,,,,,
,,,,,,5e4545c5a8f19a01c0fc53bd,62b2ac7f852545e3169afe08,2022-06-22_07h46.24.134,Colour_Asymmetry_Pilot,2022.1.3,Win32,142.9592566,62b2a6a25f2ba72662469a01,0,104,104,97,1,onethree,,,,,,,,,,,,,,,,,,,,,,,,,,,,,,,,,,,,,,,,,,,,,,,,,,,,,,,,,,,,,,,,,,,,,,,,,,,,,,,,,,,,,,,,,,,,,,,,,,,,,,,,,,,,,,,,,,,,,,,,,,,,,,,,,,,,,,,,,,,,,,,,,,,,,,,,
,,,,,,5e4545c5a8f19a01c0fc53bd,62b2ac7f852545e3169afe08,2022-06-22_07h46.24.134,Colour_Asymmetry_Pilot,2022.1.3,Win32,142.9592566,62b2a6a25f2ba72662469a01,0,105,105,59,1,twofour,,,,,,,,,,,,,,,,,,,,,,,,,,,,,,,,,,,,,,,,,,,,,,,,,,,,,,,,,,,,,,,,,,,,,,,,,,,,,,,,,,,,,,,,,,,,,,,,,,,,,,,,,,,,,,,,,,,,,,,,,,,,,,,,,,,,,,,,,,,,,,,,,,,,,,,,
,,,,,,5e4545c5a8f19a01c0fc53bd,62b2ac7f852545e3169afe08,2022-06-22_07h46.24.134,Colour_Asymmetry_Pilot,2022.1.3,Win32,142.9592566,62b2a6a25f2ba72662469a01,0,106,106,103,1,fourthree,,,,,,,,,,,,,,,,,,,,,,,,,,,,,,,,,,,,,,,,,,,,,,,,,,,,,,,,,,,,,,,,,,,,,,,,,,,,,,,,,,,,,,,,,,,,,,,,,,,,,,,,,,,,,,,,,,,,,,,,,,,,,,,,,,,,,,,,,,,,,,,,,,,,,,,,
,,,,,,5e4545c5a8f19a01c0fc53bd,62b2ac7f852545e3169afe08,2022-06-22_07h46.24.134,Colour_Asymmetry_Pilot,2022.1.3,Win32,142.9592566,62b2a6a25f2ba72662469a01,0,107,107,27,1,twofour,,,,,,,,,,,,,,,,,,,,,,,,,,,,,,,,,,,,,,,,,,,,,,,,,,,,,,,,,,,,,,,,,,,,,,,,,,,,,,,,,,,,,,,,,,,,,,,,,,,,,,,,,,,,,,,,,,,,,,,,,,,,,,,,,,,,,,,,,,,,,,,,,,,,,,,,
,,,,,,5e4545c5a8f19a01c0fc53bd,62b2ac7f852545e3169afe08,2022-06-22_07h46.24.134,Colour_Asymmetry_Pilot,2022.1.3,Win32,142.9592566,62b2a6a25f2ba72662469a01,0,108,108,25,1,onethree,,,,,,,,,,,,,,,,,,,,,,,,,,,,,,,,,,,,,,,,,,,,,,,,,,,,,,,,,,,,,,,,,,,,,,,,,,,,,,,,,,,,,,,,,,,,,,,,,,,,,,,,,,,,,,,,,,,,,,,,,,,,,,,,,,,,,,,,,,,,,,,,,,,,,,,,
,,,,,,5e4545c5a8f19a01c0fc53bd,62b2ac7f852545e3169afe08,2022-06-22_07h46.24.134,Colour_Asymmetry_Pilot,2022.1.3,Win32,142.9592566,62b2a6a25f2ba72662469a01,0,109,109,6,1,fourtwo,,,,,,,,,,,,,,,,,,,,,,,,,,,,,,,,,,,,,,,,,,,,,,,,,,,,,,,,,,,,,,,,,,,,,,,,,,,,,,,,,,,,,,,,,,,,,,,,,,,,,,,,,,,,,,,,,,,,,,,,,,,,,,,,,,,,,,,,,,,,,,,,,,,,,,,,
,,,,,,5e4545c5a8f19a01c0fc53bd,62b2ac7f852545e3169afe08,2022-06-22_07h46.24.134,Colour_Asymmetry_Pilot,2022.1.3,Win32,142.9592566,62b2a6a25f2ba72662469a01,0,110,110,93,1,threefour,,,,,,,,,,,,,,,,,,,,,,,,,,,,,,,,,,,,,,,,,,,,,,,,,,,,,,,,,,,,,,,,,,,,,,,,,,,,,,,,,,,,,,,,,,,,,,,,,,,,,,,,,,,,,,,,,,,,,,,,,,,,,,,,,,,,,,,,,,,,,,,,,,,,,,,,
,,,,,,5e4545c5a8f19a01c0fc53bd,62b2ac7f852545e3169afe08,2022-06-22_07h46.24.134,Colour_Asymmetry_Pilot,2022.1.3,Win32,142.9592566,62b2a6a25f2ba72662469a01,0,111,111,23,1,fourthree,,,,,,,,,,,,,,,,,,,,,,,,,,,,,,,,,,,,,,,,,,,,,,,,,,,,,,,,,,,,,,,,,,,,,,,,,,,,,,,,,,,,,,,,,,,,,,,,,,,,,,,,,,,,,,,,,,,,,,,,,,,,,,,,,,,,,,,,,,,,,,,,,,,,,,,,
,,,,,,5e4545c5a8f19a01c0fc53bd,62b2ac7f852545e3169afe08,2022-06-22_07h46.24.134,Colour_Asymmetry_Pilot,2022.1.3,Win32,142.9592566,62b2a6a25f2ba72662469a01,0,112,112,30,1,fourtwo,,,,,,,,,,,,,,,,,,,,,,,,,,,,,,,,,,,,,,,,,,,,,,,,,,,,,,,,,,,,,,,,,,,,,,,,,,,,,,,,,,,,,,,,,,,,,,,,,,,,,,,,,,,,,,,,,,,,,,,,,,,,,,,,,,,,,,,,,,,,,,,,,,,,,,,,
,,,,,,5e4545c5a8f19a01c0fc53bd,62b2ac7f852545e3169afe08,2022-06-22_07h46.24.134,Colour_Asymmetry_Pilot,2022.1.3,Win32,142.9592566,62b2a6a25f2ba72662469a01,0,113,113,46,1,fourtwo,,,,,,,,,,,,,,,,,,,,,,,,,,,,,,,,,,,,,,,,,,,,,,,,,,,,,,,,,,,,,,,,,,,,,,,,,,,,,,,,,,,,,,,,,,,,,,,,,,,,,,,,,,,,,,,,,,,,,,,,,,,,,,,,,,,,,,,,,,,,,,,,,,,,,,,,
,,,,,,5e4545c5a8f19a01c0fc53bd,62b2ac7f852545e3169afe08,2022-06-22_07h46.24.134,Colour_Asymmetry_Pilot,2022.1.3,Win32,142.9592566,62b2a6a25f2ba72662469a01,0,114,114,107,1,twofour,,,,,,,,,,,,,,,,,,,,,,,,,,,,,,,,,,,,,,,,,,,,,,,,,,,,,,,,,,,,,,,,,,,,,,,,,,,,,,,,,,,,,,,,,,,,,,,,,,,,,,,,,,,,,,,,,,,,,,,,,,,,,,,,,,,,,,,,,,,,,,,,,,,,,,,,
,,,,,,5e4545c5a8f19a01c0fc53bd,62b2ac7f852545e3169afe08,2022-06-22_07h46.24.134,Colour_Asymmetry_Pilot,2022.1.3,Win32,142.9592566,62b2a6a25f2ba72662469a01,0,115,115,99,1,twofour,,,,,,,,,,,,,,,,,,,,,,,,,,,,,,,,,,,,,,,,,,,,,,,,,,,,,,,,,,,,,,,,,,,,,,,,,,,,,,,,,,,,,,,,,,,,,,,,,,,,,,,,,,,,,,,,,,,,,,,,,,,,,,,,,,,,,,,,,,,,,,,,,,,,,,,,
,,,,,,5e4545c5a8f19a01c0fc53bd,62b2ac7f852545e3169afe08,2022-06-22_07h46.24.134,Colour_Asymmetry_Pilot,2022.1.3,Win32,142.9592566,62b2a6a25f2ba72662469a01,0,116,116,111,1,fourthree,,,,,,,,,,,,,,,,,,,,,,,,,,,,,,,,,,,,,,,,,,,,,,,,,,,,,,,,,,,,,,,,,,,,,,,,,,,,,,,,,,,,,,,,,,,,,,,,,,,,,,,,,,,,,,,,,,,,,,,,,,,,,,,,,,,,,,,,,,,,,,,,,,,,,,,,
,,,,,,5e4545c5a8f19a01c0fc53bd,62b2ac7f852545e3169afe08,2022-06-22_07h46.24.134,Colour_Asymmetry_Pilot,2022.1.3,Win32,142.9592566,62b2a6a25f2ba72662469a01,0,117,117,9,1,onethree,,,,,,,,,,,,,,,,,,,,,,,,,,,,,,,,,,,,,,,,,,,,,,,,,,,,,,,,,,,,,,,,,,,,,,,,,,,,,,,,,,,,,,,,,,,,,,,,,,,,,,,,,,,,,,,,,,,,,,,,,,,,,,,,,,,,,,,,,,,,,,,,,,,,,,,,
,,,,,,5e4545c5a8f19a01c0fc53bd,62b2ac7f852545e3169afe08,2022-06-22_07h46.24.134,Colour_Asymmetry_Pilot,2022.1.3,Win32,142.9592566,62b2a6a25f2ba72662469a01,0,118,118,133,1,threefour,,,,,,,,,,,,,,,,,,,,,,,,,,,,,,,,,,,,,,,,,,,,,,,,,,,,,,,,,,,,,,,,,,,,,,,,,,,,,,,,,,,,,,,,,,,,,,,,,,,,,,,,,,,,,,,,,,,,,,,,,,,,,,,,,,,,,,,,,,,,,,,,,,,,,,,,
,,,,,,5e4545c5a8f19a01c0fc53bd,62b2ac7f852545e3169afe08,2022-06-22_07h46.24.134,Colour_Asymmetry_Pilot,2022.1.3,Win32,142.9592566,62b2a6a25f2ba72662469a01,0,119,119,79,1,fourthree,,,,,,,,,,,,,,,,,,,,,,,,,,,,,,,,,,,,,,,,,,,,,,,,,,,,,,,,,,,,,,,,,,,,,,,,,,,,,,,,,,,,,,,,,,,,,,,,,,,,,,,,,,,,,,,,,,,,,,,,,,,,,,,,,,,,,,,,,,,,,,,,,,,,,,,,
,,,,,,5e4545c5a8f19a01c0fc53bd,62b2ac7f852545e3169afe08,2022-06-22_07h46.24.134,Colour_Asymmetry_Pilot,2022.1.3,Win32,142.9592566,62b2a6a25f2ba72662469a01,0,120,120,20,1,threeone,,,,,,,,,,,,,,,,,,,,,,,,,,,,,,,,,,,,,,,,,,,,,,,,,,,,,,,,,,,,,,,,,,,,,,,,,,,,,,,,,,,,,,,,,,,,,,,,,,,,,,,,,,,,,,,,,,,,,,,,,,,,,,,,,,,,,,,,,,,,,,,,,,,,,,,,
,,,,,,5e4545c5a8f19a01c0fc53bd,62b2ac7f852545e3169afe08,2022-06-22_07h46.24.134,Colour_Asymmetry_Pilot,2022.1.3,Win32,142.9592566,62b2a6a25f2ba72662469a01,0,121,121,39,1,fourthree,,,,,,,,,,,,,,,,,,,,,,,,,,,,,,,,,,,,,,,,,,,,,,,,,,,,,,,,,,,,,,,,,,,,,,,,,,,,,,,,,,,,,,,,,,,,,,,,,,,,,,,,,,,,,,,,,,,,,,,,,,,,,,,,,,,,,,,,,,,,,,,,,,,,,,,,
,,,,,,5e4545c5a8f19a01c0fc53bd,62b2ac7f852545e3169afe08,2022-06-22_07h46.24.134,Colour_Asymmetry_Pilot,2022.1.3,Win32,142.9592566,62b2a6a25f2ba72662469a01,0,122,122,2,1,twoone,,,,,,,,,,,,,,,,,,,,,,,,,,,,,,,,,,,,,,,,,,,,,,,,,,,,,,,,,,,,,,,,,,,,,,,,,,,,,,,,,,,,,,,,,,,,,,,,,,,,,,,,,,,,,,,,,,,,,,,,,,,,,,,,,,,,,,,,,,,,,,,,,,,,,,,,
,,,,,,5e4545c5a8f19a01c0fc53bd,62b2ac7f852545e3169afe08,2022-06-22_07h46.24.134,Colour_Asymmetry_Pilot,2022.1.3,Win32,142.9592566,62b2a6a25f2ba72662469a01,0,123,123,14,1,fourtwo,,,,,,,,,,,,,,,,,,,,,,,,,,,,,,,,,,,,,,,,,,,,,,,,,,,,,,,,,,,,,,,,,,,,,,,,,,,,,,,,,,,,,,,,,,,,,,,,,,,,,,,,,,,,,,,,,,,,,,,,,,,,,,,,,,,,,,,,,,,,,,,,,,,,,,,,
,,,,,,5e4545c5a8f19a01c0fc53bd,62b2ac7f852545e3169afe08,2022-06-22_07h46.24.134,Colour_Asymmetry_Pilot,2022.1.3,Win32,142.9592566,62b2a6a25f2ba72662469a01,0,124,124,36,1,threeone,,,,,,,,,,,,,,,,,,,,,,,,,,,,,,,,,,,,,,,,,,,,,,,,,,,,,,,,,,,,,,,,,,,,,,,,,,,,,,,,,,,,,,,,,,,,,,,,,,,,,,,,,,,,,,,,,,,,,,,,,,,,,,,,,,,,,,,,,,,,,,,,,,,,,,,,
,,,,,,5e4545c5a8f19a01c0fc53bd,62b2ac7f852545e3169afe08,2022-06-22_07h46.24.134,Colour_Asymmetry_Pilot,2022.1.3,Win32,142.9592566,62b2a6a25f2ba72662469a01,0,125,125,160,1,onetwo,,,,,,,,,,,,,,,,,,,,,,,,,,,,,,,,,,,,,,,,,,,,,,,,,,,,,,,,,,,,,,,,,,,,,,,,,,,,,,,,,,,,,,,,,,,,,,,,,,,,,,,,,,,,,,,,,,,,,,,,,,,,,,,,,,,,,,,,,,,,,,,,,,,,,,,,
,,,,,,5e4545c5a8f19a01c0fc53bd,62b2ac7f852545e3169afe08,2022-06-22_07h46.24.134,Colour_Asymmetry_Pilot,2022.1.3,Win32,142.9592566,62b2a6a25f2ba72662469a01,0,126,126,62,1,fourtwo,,,,,,,,,,,,,,,,,,,,,,,,,,,,,,,,,,,,,,,,,,,,,,,,,,,,,,,,,,,,,,,,,,,,,,,,,,,,,,,,,,,,,,,,,,,,,,,,,,,,,,,,,,,,,,,,,,,,,,,,,,,,,,,,,,,,,,,,,,,,,,,,,,,,,,,,
,,,,,,5e4545c5a8f19a01c0fc53bd,62b2ac7f852545e3169afe08,2022-06-22_07h46.24.134,Colour_Asymmetry_Pilot,2022.1.3,Win32,142.9592566,62b2a6a25f2ba72662469a01,0,127,127,129,1,onethree,,,,,,,,,,,,,,,,,,,,,,,,,,,,,,,,,,,,,,,,,,,,,,,,,,,,,,,,,,,,,,,,,,,,,,,,,,,,,,,,,,,,,,,,,,,,,,,,,,,,,,,,,,,,,,,,,,,,,,,,,,,,,,,,,,,,,,,,,,,,,,,,,,,,,,,,
,,,,,,5e4545c5a8f19a01c0fc53bd,62b2ac7f852545e3169afe08,2022-06-22_07h46.24.134,Colour_Asymmetry_Pilot,2022.1.3,Win32,142.9592566,62b2a6a25f2ba72662469a01,0,128,128,21,1,threefour,,,,,,,,,,,,,,,,,,,,,,,,,,,,,,,,,,,,,,,,,,,,,,,,,,,,,,,,,,,,,,,,,,,,,,,,,,,,,,,,,,,,,,,,,,,,,,,,,,,,,,,,,,,,,,,,,,,,,,,,,,,,,,,,,,,,,,,,,,,,,,,,,,,,,,,,
,,,,,,5e4545c5a8f19a01c0fc53bd,62b2ac7f852545e3169afe08,2022-06-22_07h46.24.134,Colour_Asymmetry_Pilot,2022.1.3,Win32,142.9592566,62b2a6a25f2ba72662469a01,0,129,129,84,1,threeone,,,,,,,,,,,,,,,,,,,,,,,,,,,,,,,,,,,,,,,,,,,,,,,,,,,,,,,,,,,,,,,,,,,,,,,,,,,,,,,,,,,,,,,,,,,,,,,,,,,,,,,,,,,,,,,,,,,,,,,,,,,,,,,,,,,,,,,,,,,,,,,,,,,,,,,,
,,,,,,5e4545c5a8f19a01c0fc53bd,62b2ac7f852545e3169afe08,2022-06-22_07h46.24.134,Colour_Asymmetry_Pilot,2022.1.3,Win32,142.9592566,62b2a6a25f2ba72662469a01,0,130,130,81,1,onethree,,,,,,,,,,,,,,,,,,,,,,,,,,,,,,,,,,,,,,,,,,,,,,,,,,,,,,,,,,,,,,,,,,,,,,,,,,,,,,,,,,,,,,,,,,,,,,,,,,,,,,,,,,,,,,,,,,,,,,,,,,,,,,,,,,,,,,,,,,,,,,,,,,,,,,,,
,,,,,,5e4545c5a8f19a01c0fc53bd,62b2ac7f852545e3169afe08,2022-06-22_07h46.24.134,Colour_Asymmetry_Pilot,2022.1.3,Win32,142.9592566,62b2a6a25f2ba72662469a01,0,131,131,149,1,threefour,,,,,,,,,,,,,,,,,,,,,,,,,,,,,,,,,,,,,,,,,,,,,,,,,,,,,,,,,,,,,,,,,,,,,,,,,,,,,,,,,,,,,,,,,,,,,,,,,,,,,,,,,,,,,,,,,,,,,,,,,,,,,,,,,,,,,,,,,,,,,,,,,,,,,,,,
,,,,,,5e4545c5a8f19a01c0fc53bd,62b2ac7f852545e3169afe08,2022-06-22_07h46.24.134,Colour_Asymmetry_Pilot,2022.1.3,Win32,142.9592566,62b2a6a25f2ba72662469a01,0,132,132,51,1,twofour,,,,,,,,,,,,,,,,,,,,,,,,,,,,,,,,,,,,,,,,,,,,,,,,,,,,,,,,,,,,,,,,,,,,,,,,,,,,,,,,,,,,,,,,,,,,,,,,,,,,,,,,,,,,,,,,,,,,,,,,,,,,,,,,,,,,,,,,,,,,,,,,,,,,,,,,
,,,,,,5e4545c5a8f19a01c0fc53bd,62b2ac7f852545e3169afe08,2022-06-22_07h46.24.134,Colour_Asymmetry_Pilot,2022.1.3,Win32,142.9592566,62b2a6a25f2ba72662469a01,0,133,133,116,1,threeone,,,,,,,,,,,,,,,,,,,,,,,,,,,,,,,,,,,,,,,,,,,,,,,,,,,,,,,,,,,,,,,,,,,,,,,,,,,,,,,,,,,,,,,,,,,,,,,,,,,,,,,,,,,,,,,,,,,,,,,,,,,,,,,,,,,,,,,,,,,,,,,,,,,,,,,,
,,,,,,5e4545c5a8f19a01c0fc53bd,62b2ac7f852545e3169afe08,2022-06-22_07h46.24.134,Colour_Asymmetry_Pilot,2022.1.3,Win32,142.9592566,62b2a6a25f2ba72662469a01,0,134,134,70,1,fourtwo,,,,,,,,,,,,,,,,,,,,,,,,,,,,,,,,,,,,,,,,,,,,,,,,,,,,,,,,,,,,,,,,,,,,,,,,,,,,,,,,,,,,,,,,,,,,,,,,,,,,,,,,,,,,,,,,,,,,,,,,,,,,,,,,,,,,,,,,,,,,,,,,,,,,,,,,
,,,,,,5e4545c5a8f19a01c0fc53bd,62b2ac7f852545e3169afe08,2022-06-22_07h46.24.134,Colour_Asymmetry_Pilot,2022.1.3,Win32,142.9592566,62b2a6a25f2ba72662469a01,0,135,135,65,1,onethree,,,,,,,,,,,,,,,,,,,,,,,,,,,,,,,,,,,,,,,,,,,,,,,,,,,,,,,,,,,,,,,,,,,,,,,,,,,,,,,,,,,,,,,,,,,,,,,,,,,,,,,,,,,,,,,,,,,,,,,,,,,,,,,,,,,,,,,,,,,,,,,,,,,,,,,,
,,,,,,5e4545c5a8f19a01c0fc53bd,62b2ac7f852545e3169afe08,2022-06-22_07h46.24.134,Colour_Asymmetry_Pilot,2022.1.3,Win32,142.9592566,62b2a6a25f2ba72662469a01,0,136,136,145,1,onethree,,,,,,,,,,,,,,,,,,,,,,,,,,,,,,,,,,,,,,,,,,,,,,,,,,,,,,,,,,,,,,,,,,,,,,,,,,,,,,,,,,,,,,,,,,,,,,,,,,,,,,,,,,,,,,,,,,,,,,,,,,,,,,,,,,,,,,,,,,,,,,,,,,,,,,,,
,,,,,,5e4545c5a8f19a01c0fc53bd,62b2ac7f852545e3169afe08,2022-06-22_07h46.24.134,Colour_Asymmetry_Pilot,2022.1.3,Win32,142.9592566,62b2a6a25f2ba72662469a01,0,137,137,44,1,threeone,,,,,,,,,,,,,,,,,,,,,,,,,,,,,,,,,,,,,,,,,,,,,,,,,,,,,,,,,,,,,,,,,,,,,,,,,,,,,,,,,,,,,,,,,,,,,,,,,,,,,,,,,,,,,,,,,,,,,,,,,,,,,,,,,,,,,,,,,,,,,,,,,,,,,,,,
,,,,,,5e4545c5a8f19a01c0fc53bd,62b2ac7f852545e3169afe08,2022-06-22_07h46.24.134,Colour_Asymmetry_Pilot,2022.1.3,Win32,142.9592566,62b2a6a25f2ba72662469a01,0,138,138,47,1,fourthree,,,,,,,,,,,,,,,,,,,,,,,,,,,,,,,,,,,,,,,,,,,,,,,,,,,,,,,,,,,,,,,,,,,,,,,,,,,,,,,,,,,,,,,,,,,,,,,,,,,,,,,,,,,,,,,,,,,,,,,,,,,,,,,,,,,,,,,,,,,,,,,,,,,,,,,,
,,,,,,5e4545c5a8f19a01c0fc53bd,62b2ac7f852545e3169afe08,2022-06-22_07h46.24.134,Colour_Asymmetry_Pilot,2022.1.3,Win32,142.9592566,62b2a6a25f2ba72662469a01,0,139,139,45,1,threefour,,,,,,,,,,,,,,,,,,,,,,,,,,,,,,,,,,,,,,,,,,,,,,,,,,,,,,,,,,,,,,,,,,,,,,,,,,,,,,,,,,,,,,,,,,,,,,,,,,,,,,,,,,,,,,,,,,,,,,,,,,,,,,,,,,,,,,,,,,,,,,,,,,,,,,,,
,,,,,,5e4545c5a8f19a01c0fc53bd,62b2ac7f852545e3169afe08,2022-06-22_07h46.24.134,Colour_Asymmetry_Pilot,2022.1.3,Win32,142.9592566,62b2a6a25f2ba72662469a01,0,140,140,64,1,onetwo,,,,,,,,,,,,,,,,,,,,,,,,,,,,,,,,,,,,,,,,,,,,,,,,,,,,,,,,,,,,,,,,,,,,,,,,,,,,,,,,,,,,,,,,,,,,,,,,,,,,,,,,,,,,,,,,,,,,,,,,,,,,,,,,,,,,,,,,,,,,,,,,,,,,,,,,
,,,,,,5e4545c5a8f19a01c0fc53bd,62b2ac7f852545e3169afe08,2022-06-22_07h46.24.134,Colour_Asymmetry_Pilot,2022.1.3,Win32,142.9592566,62b2a6a25f2ba72662469a01,0,141,141,83,1,twofour,,,,,,,,,,,,,,,,,,,,,,,,,,,,,,,,,,,,,,,,,,,,,,,,,,,,,,,,,,,,,,,,,,,,,,,,,,,,,,,,,,,,,,,,,,,,,,,,,,,,,,,,,,,,,,,,,,,,,,,,,,,,,,,,,,,,,,,,,,,,,,,,,,,,,,,,
,,,,,,5e4545c5a8f19a01c0fc53bd,62b2ac7f852545e3169afe08,2022-06-22_07h46.24.134,Colour_Asymmetry_Pilot,2022.1.3,Win32,142.9592566,62b2a6a25f2ba72662469a01,0,142,142,157,1,threefour,,,,,,,,,,,,,,,,,,,,,,,,,,,,,,,,,,,,,,,,,,,,,,,,,,,,,,,,,,,,,,,,,,,,,,,,,,,,,,,,,,,,,,,,,,,,,,,,,,,,,,,,,,,,,,,,,,,,,,,,,,,,,,,,,,,,,,,,,,,,,,,,,,,,,,,,
,,,,,,5e4545c5a8f19a01c0fc53bd,62b2ac7f852545e3169afe08,2022-06-22_07h46.24.134,Colour_Asymmetry_Pilot,2022.1.3,Win32,142.9592566,62b2a6a25f2ba72662469a01,0,143,143,89,1,onethree,,,,,,,,,,,,,,,,,,,,,,,,,,,,,,,,,,,,,,,,,,,,,,,,,,,,,,,,,,,,,,,,,,,,,,,,,,,,,,,,,,,,,,,,,,,,,,,,,,,,,,,,,,,,,,,,,,,,,,,,,,,,,,,,,,,,,,,,,,,,,,,,,,,,,,,,
,,,,,,5e4545c5a8f19a01c0fc53bd,62b2ac7f852545e3169afe08,2022-06-22_07h46.24.134,Colour_Asymmetry_Pilot,2022.1.3,Win32,142.9592566,62b2a6a25f2ba72662469a01,0,144,144,68,1,threeone,,,,,,,,,,,,,,,,,,,,,,,,,,,,,,,,,,,,,,,,,,,,,,,,,,,,,,,,,,,,,,,,,,,,,,,,,,,,,,,,,,,,,,,,,,,,,,,,,,,,,,,,,,,,,,,,,,,,,,,,,,,,,,,,,,,,,,,,,,,,,,,,,,,,,,,,
,,,,,,5e4545c5a8f19a01c0fc53bd,62b2ac7f852545e3169afe08,2022-06-22_07h46.24.134,Colour_Asymmetry_Pilot,2022.1.3,Win32,142.9592566,62b2a6a25f2ba72662469a01,0,145,145,3,1,twofour,,,,,,,,,,,,,,,,,,,,,,,,,,,,,,,,,,,,,,,,,,,,,,,,,,,,,,,,,,,,,,,,,,,,,,,,,,,,,,,,,,,,,,,,,,,,,,,,,,,,,,,,,,,,,,,,,,,,,,,,,,,,,,,,,,,,,,,,,,,,,,,,,,,,,,,,
,,,,,,5e4545c5a8f19a01c0fc53bd,62b2ac7f852545e3169afe08,2022-06-22_07h46.24.134,Colour_Asymmetry_Pilot,2022.1.3,Win32,142.9592566,62b2a6a25f2ba72662469a01,0,146,146,101,1,threefour,,,,,,,,,,,,,,,,,,,,,,,,,,,,,,,,,,,,,,,,,,,,,,,,,,,,,,,,,,,,,,,,,,,,,,,,,,,,,,,,,,,,,,,,,,,,,,,,,,,,,,,,,,,,,,,,,,,,,,,,,,,,,,,,,,,,,,,,,,,,,,,,,,,,,,,,
,,,,,,5e4545c5a8f19a01c0fc53bd,62b2ac7f852545e3169afe08,2022-06-22_07h46.24.134,Colour_Asymmetry_Pilot,2022.1.3,Win32,142.9592566,62b2a6a25f2ba72662469a01,0,147,147,16,1,onetwo,,,,,,,,,,,,,,,,,,,,,,,,,,,,,,,,,,,,,,,,,,,,,,,,,,,,,,,,,,,,,,,,,,,,,,,,,,,,,,,,,,,,,,,,,,,,,,,,,,,,,,,,,,,,,,,,,,,,,,,,,,,,,,,,,,,,,,,,,,,,,,,,,,,,,,,,
,,,,,,5e4545c5a8f19a01c0fc53bd,62b2ac7f852545e3169afe08,2022-06-22_07h46.24.134,Colour_Asymmetry_Pilot,2022.1.3,Win32,142.9592566,62b2a6a25f2ba72662469a01,0,148,148,118,1,fourtwo,,,,,,,,,,,,,,,,,,,,,,,,,,,,,,,,,,,,,,,,,,,,,,,,,,,,,,,,,,,,,,,,,,,,,,,,,,,,,,,,,,,,,,,,,,,,,,,,,,,,,,,,,,,,,,,,,,,,,,,,,,,,,,,,,,,,,,,,,,,,,,,,,,,,,,,,
,,,,,,5e4545c5a8f19a01c0fc53bd,62b2ac7f852545e3169afe08,2022-06-22_07h46.24.134,Colour_Asymmetry_Pilot,2022.1.3,Win32,142.9592566,62b2a6a25f2ba72662469a01,0,149,149,80,1,onetwo,,,,,,,,,,,,,,,,,,,,,,,,,,,,,,,,,,,,,,,,,,,,,,,,,,,,,,,,,,,,,,,,,,,,,,,,,,,,,,,,,,,,,,,,,,,,,,,,,,,,,,,,,,,,,,,,,,,,,,,,,,,,,,,,,,,,,,,,,,,,,,,,,,,,,,,,
,,,,,,5e4545c5a8f19a01c0fc53bd,62b2ac7f852545e3169afe08,2022-06-22_07h46.24.134,Colour_Asymmetry_Pilot,2022.1.3,Win32,142.9592566,62b2a6a25f2ba72662469a01,0,150,150,32,1,onetwo,,,,,,,,,,,,,,,,,,,,,,,,,,,,,,,,,,,,,,,,,,,,,,,,,,,,,,,,,,,,,,,,,,,,,,,,,,,,,,,,,,,,,,,,,,,,,,,,,,,,,,,,,,,,,,,,,,,,,,,,,,,,,,,,,,,,,,,,,,,,,,,,,,,,,,,,
,,,,,,5e4545c5a8f19a01c0fc53bd,62b2ac7f852545e3169afe08,2022-06-22_07h46.24.134,Colour_Asymmetry_Pilot,2022.1.3,Win32,142.9592566,62b2a6a25f2ba72662469a01,0,151,151,40,1,onetwo,,,,,,,,,,,,,,,,,,,,,,,,,,,,,,,,,,,,,,,,,,,,,,,,,,,,,,,,,,,,,,,,,,,,,,,,,,,,,,,,,,,,,,,,,,,,,,,,,,,,,,,,,,,,,,,,,,,,,,,,,,,,,,,,,,,,,,,,,,,,,,,,,,,,,,,,
,,,,,,5e4545c5a8f19a01c0fc53bd,62b2ac7f852545e3169afe08,2022-06-22_07h46.24.134,Colour_Asymmetry_Pilot,2022.1.3,Win32,142.9592566,62b2a6a25f2ba72662469a01,0,152,152,132,1,threeone,,,,,,,,,,,,,,,,,,,,,,,,,,,,,,,,,,,,,,,,,,,,,,,,,,,,,,,,,,,,,,,,,,,,,,,,,,,,,,,,,,,,,,,,,,,,,,,,,,,,,,,,,,,,,,,,,,,,,,,,,,,,,,,,,,,,,,,,,,,,,,,,,,,,,,,,
,,,,,,5e4545c5a8f19a01c0fc53bd,62b2ac7f852545e3169afe08,2022-06-22_07h46.24.134,Colour_Asymmetry_Pilot,2022.1.3,Win32,142.9592566,62b2a6a25f2ba72662469a01,0,153,153,8,1,onetwo,,,,,,,,,,,,,,,,,,,,,,,,,,,,,,,,,,,,,,,,,,,,,,,,,,,,,,,,,,,,,,,,,,,,,,,,,,,,,,,,,,,,,,,,,,,,,,,,,,,,,,,,,,,,,,,,,,,,,,,,,,,,,,,,,,,,,,,,,,,,,,,,,,,,,,,,
,,,,,,5e4545c5a8f19a01c0fc53bd,62b2ac7f852545e3169afe08,2022-06-22_07h46.24.134,Colour_Asymmetry_Pilot,2022.1.3,Win32,142.9592566,62b2a6a25f2ba72662469a01,0,154,154,22,1,fourtwo,,,,,,,,,,,,,,,,,,,,,,,,,,,,,,,,,,,,,,,,,,,,,,,,,,,,,,,,,,,,,,,,,,,,,,,,,,,,,,,,,,,,,,,,,,,,,,,,,,,,,,,,,,,,,,,,,,,,,,,,,,,,,,,,,,,,,,,,,,,,,,,,,,,,,,,,
,,,,,,5e4545c5a8f19a01c0fc53bd,62b2ac7f852545e3169afe08,2022-06-22_07h46.24.134,Colour_Asymmetry_Pilot,2022.1.3,Win32,142.9592566,62b2a6a25f2ba72662469a01,0,155,155,28,1,threeone,,,,,,,,,,,,,,,,,,,,,,,,,,,,,,,,,,,,,,,,,,,,,,,,,,,,,,,,,,,,,,,,,,,,,,,,,,,,,,,,,,,,,,,,,,,,,,,,,,,,,,,,,,,,,,,,,,,,,,,,,,,,,,,,,,,,,,,,,,,,,,,,,,,,,,,,
,,,,,,5e4545c5a8f19a01c0fc53bd,62b2ac7f852545e3169afe08,2022-06-22_07h46.24.134,Colour_Asymmetry_Pilot,2022.1.3,Win32,142.9592566,62b2a6a25f2ba72662469a01,0,156,156,140,1,threeone,,,,,,,,,,,,,,,,,,,,,,,,,,,,,,,,,,,,,,,,,,,,,,,,,,,,,,,,,,,,,,,,,,,,,,,,,,,,,,,,,,,,,,,,,,,,,,,,,,,,,,,,,,,,,,,,,,,,,,,,,,,,,,,,,,,,,,,,,,,,,,,,,,,,,,,,
,,,,,,5e4545c5a8f19a01c0fc53bd,62b2ac7f852545e3169afe08,2022-06-22_07h46.24.134,Colour_Asymmetry_Pilot,2022.1.3,Win32,142.9592566,62b2a6a25f2ba72662469a01,0,157,157,13,1,threefour,,,,,,,,,,,,,,,,,,,,,,,,,,,,,,,,,,,,,,,,,,,,,,,,,,,,,,,,,,,,,,,,,,,,,,,,,,,,,,,,,,,,,,,,,,,,,,,,,,,,,,,,,,,,,,,,,,,,,,,,,,,,,,,,,,,,,,,,,,,,,,,,,,,,,,,,
,,,,,,5e4545c5a8f19a01c0fc53bd,62b2ac7f852545e3169afe08,2022-06-22_07h46.24.134,Colour_Asymmetry_Pilot,2022.1.3,Win32,142.9592566,62b2a6a25f2ba72662469a01,0,158,158,71,1,fourthree,,,,,,,,,,,,,,,,,,,,,,,,,,,,,,,,,,,,,,,,,,,,,,,,,,,,,,,,,,,,,,,,,,,,,,,,,,,,,,,,,,,,,,,,,,,,,,,,,,,,,,,,,,,,,,,,,,,,,,,,,,,,,,,,,,,,,,,,,,,,,,,,,,,,,,,,
,,,,,,5e4545c5a8f19a01c0fc53bd,62b2ac7f852545e3169afe08,2022-06-22_07h46.24.134,Colour_Asymmetry_Pilot,2022.1.3,Win32,142.9592566,62b2a6a25f2ba72662469a01,0,159,159,60,1,threeone,,,,,,,,,,,,,,,,,,,,,,,,,,,,,,,,,,,,,,,,,,,,,,,,,,,,,,,,,,,,,,,,,,,,,,,,,,,,,,,,,,,,,,,,,,,,,,,,,,,,,,,,,,,,,,,,,,,,,,,,,,,,,,,,,,,,,,,,,,,,,,,,,,,,,,,,
,,,,,,5e4545c5a8f19a01c0fc53bd,62b2ac7f852545e3169afe08,2022-06-22_07h46.24.134,Colour_Asymmetry_Pilot,2022.1.3,Win32,142.9592566,62b2a6a25f2ba72662469a01,0,160,160,134,1,fourtwo,,,,,,,,,,,,,,,,,,,,,,,,,,,,,,,,,,,,,,,,,,,,,,,,,,,,,,,,,,,,,,,,,,,,,,,,,,,,,,,,,,,,,,,,,,,,,,,,,,,,,,,,,,,,,,,,,,,,,,,,,,,,,,,,,,,,,,,,,,,,,,,,,,,,,,,,
,,,,,,5e4545c5a8f19a01c0fc53bd,62b2ac7f852545e3169afe08,2022-06-22_07h46.24.134,Colour_Asymmetry_Pilot,2022.1.3,Win32,142.9592566,62b2a6a25f2ba72662469a01,0,161,161,128,1,onetwo,,,,,,,,,,,,,,,,,,,,,,,,,,,,,,,,,,,,,,,,,,,,,,,,,,,,,,,,,,,,,,,,,,,,,,,,,,,,,,,,,,,,,,,,,,,,,,,,,,,,,,,,,,,,,,,,,,,,,,,,,,,,,,,,,,,,,,,,,,,,,,,,,,,,,,,,
,,,,,,5e4545c5a8f19a01c0fc53bd,62b2ac7f852545e3169afe08,2022-06-22_07h46.24.134,Colour_Asymmetry_Pilot,2022.1.3,Win32,142.9592566,62b2a6a25f2ba72662469a01,,,,,,,space,0.7788,space,37.9764,space,36.1808,space,5.6877,space,1.9589,space,2.8284,"[-0.0040000000000000036,0.02739999999999987,-0.08239999999999992]",threeone,"[-0.2942,-0.24719999999999998,-0.357]",-2,4.6108,-93.59998995,-52.80000722,1,0,0,response5disk_5,-7.199988663,-6.4373E-06,1,0,0,rectangle_8,-7.199988663,-6.4373E-06,1,0,0,1,-7.199988663,-6.4373E-06,1,0,0,0,0,0,0,1,,,,,,,,,,,,,,,,,,,,,,,,,,,,,,,,,,,,,,,,,,,,,,,,,,,,,,,,,,,,,,,,,,,,,,,,,,,,,,,,,,,,,,,,,,,,,,,,,,,,,,,,,,,
,,,,,,5e4545c5a8f19a01c0fc53bd,62b2ac7f852545e3169afe08,2022-06-22_07h46.24.134,Colour_Asymmetry_Pilot,2022.1.3,Win32,142.9592566,62b2a6a25f2ba72662469a01,,,,,,,,,,,,,,,,,,,"[-0.30200000000000005,0.14500000000000002,0.2784]",threeone,"[0.7802,-0.23140000000000005,-0.20799999999999996]",-1,5.0765,-43.99998921,-115.2000082,1,0,0,response5disk_5,-11.99998873,-0.800006449,1,0,0,rectangle_8,-11.99998873,-0.800006449,1,0,0,1,-11.99998873,-0.800006449,1,0,0,1,0,1,0,1,,,,,,,,,,,,,,,,,,,,,,,,,,,,,,,,,,,,,,,,,,,,,,,,,,,,,,,,,,,,,,,,,,,,,,,,,,,,,,,,,,,,,,,,,,,,,,,,,,,,,,,,,,,
,,,,,,5e4545c5a8f19a01c0fc53bd,62b2ac7f852545e3169afe08,2022-06-22_07h46.24.134,Colour_Asymmetry_Pilot,2022.1.3,Win32,142.9592566,62b2a6a25f2ba72662469a01,,,,,,,,,,,,,,,,,,,"[0.5528,0.7409999999999999,-0.71]",threefour,"[-0.7412000000000001,-0.08239999999999992,-0.6864]",-4,4.104,-47.19998926,100.7999951,1,0,0,response7disk_5,-4.799988627,1.599993587,1,0,0,rectangle_8,55.20001227,-106.400008,1,0,0,1,-3.199988604,0.799993575,1,0,0,2,0,2,0,1,response3disk_7,4,rectangle_4,,,,,,,,,,,,,,,,,,,,,,,,,,,,,,,,,,,,,,,,,,,,,,,,,,,,,,,,,,,,,,,,,,,,,,,,,,,,,,,,,,,,,,,,,,,,,,,,,,,,,,,,
,,,,,,5e4545c5a8f19a01c0fc53bd,62b2ac7f852545e3169afe08,2022-06-22_07h46.24.134,Colour_Asymmetry_Pilot,2022.1.3,Win32,142.9592566,62b2a6a25f2ba72662469a01,,,,,,,,,,,,,,,,,,,"[0.34099999999999997,0.12939999999999996,-0.9766]",threefour,"[0.6625999999999999,0.4980000000000002,-0.357]",2,4.4094,89.60001278,-45.60000712,1,0,0,response3disk_5,-13.59998876,-6.400006533,1,0,0,rectangle_8,-13.59998876,-6.400006533,1,0,0,1,-13.59998876,-6.400006533,1,0,0,3,0,3,0,1,,,,,,,,,,,,,,,,,,,,,,,,,,,,,,,,,,,,,,,,,,,,,,,,,,,,,,,,,,,,,,,,,,,,,,,,,,,,,,,,,,,,,,,,,,,,,,,,,,,,,,,,,,,
,,,,,,5e4545c5a8f19a01c0fc53bd,62b2ac7f852545e3169afe08,2022-06-22_07h46.24.134,Colour_Asymmetry_Pilot,2022.1.3,Win32,142.9592566,62b2a6a25f2ba72662469a01,,,,,,,,,,,,,,,,,,,"[-0.26280000000000003,-0.2158,-0.3256]",threefour,"[-0.09019999999999995,0.44300000000000006,0.5371999999999999]",-1,3.2083,-59.99998945,-87.20000774,1,0,0,response5disk_5,-7.999988675,-3.200006485,1,0,0,rectangle_8,-7.999988675,-3.200006485,1,0,0,1,-7.999988675,-3.200006485,1,0,0,4,0,4,0,1,,,,,,,,,,,,,,,,,,,,,,,,,,,,,,,,,,,,,,,,,,,,,,,,,,,,,,,,,,,,,,,,,,,,,,,,,,,,,,,,,,,,,,,,,,,,,,,,,,,,,,,,,,,
,,,,,,5e4545c5a8f19a01c0fc53bd,62b2ac7f852545e3169afe08,2022-06-22_07h46.24.134,Colour_Asymmetry_Pilot,2022.1.3,Win32,142.9592566,62b2a6a25f2ba72662469a01,,,,,,,,,,,,,,,,,,,"[-0.20799999999999996,-0.655,-0.01980000000000004]",onethree,"[-0.9766,-0.6472,0.07440000000000002]",2,2.368,104.000013,-38.40000701,1,0,0,response3disk_5,-6.399939823,-7.200006545,1,0,0,rectangle_8,48.80001217,-104.800008,1,0,0,1,-8.799988687,-0.800006449,1,0,0,5,0,5,0,1,response3disk_7,4,rectangle_4,,,,,,,,,,,,,,,,,,,,,,,,,,,,,,,,,,,,,,,,,,,,,,,,,,,,,,,,,,,,,,,,,,,,,,,,,,,,,,,,,,,,,,,,,,,,,,,,,,,,,,,,
,,,,,,5e4545c5a8f19a01c0fc53bd,62b2ac7f852545e3169afe08,2022-06-22_07h46.24.134,Colour_Asymmetry_Pilot,2022.1.3,Win32,142.9592566,62b2a6a25f2ba72662469a01,,,,,,,,,,,,,,,,,,,"[0.7176,-0.906,-0.6864]",threeone,"[0.22340000000000004,-0.9296,-0.7884]",3,1.9166,104.800013,64.79999453,1,0,0,response1disk_5,-7.199988663,-8.000006557,1,0,0,rectangle_8,-7.199988663,-8.000006557,1,0,0,1,-7.199988663,-8.000006557,1,0,0,6,0,6,0,1,,,,,,,,,,,,,,,,,,,,,,,,,,,,,,,,,,,,,,,,,,,,,,,,,,,,,,,,,,,,,,,,,,,,,,,,,,,,,,,,,,,,,,,,,,,,,,,,,,,,,,,,,,,
,,,,,,5e4545c5a8f19a01c0fc53bd,62b2ac7f852545e3169afe08,2022-06-22_07h46.24.134,Colour_Asymmetry_Pilot,2022.1.3,Win32,142.9592566,62b2a6a25f2ba72662469a01,,,,,,,,,,,,,,,,,,,,onethree,,1,2.1828,,,,,,,,,,,,,,,,,,,,,,,,,,,,,,,,space,2.86,"[-0.24719999999999998,0.5213999999999999,-0.12959999999999994]","[0.6625999999999999,0.4980000000000002,-0.357]",57.6000123,-96.80000788,1,0,0,response3disk,-7.199988663,-6.4373E-06,1,0,0,rectangle,-7.199988663,-6.4373E-06,1,0,0,,2,0.0007,0,-7.199988663,-6.4373E-06,1,0,0,0,0,0,7,1,7,first,,,,,,,,,,,,,,,,,,,,,,,,,,,,,,,,,,,,,,,,,,,,,,,,,,,,,,,,,,,,,,,,,,,
,,,,,,5e4545c5a8f19a01c0fc53bd,62b2ac7f852545e3169afe08,2022-06-22_07h46.24.134,Colour_Asymmetry_Pilot,2022.1.3,Win32,142.9592566,62b2a6a25f2ba72662469a01,,,,,,,,,,,,,,,,,,,,twoone,,2,1.1945,,,,,,,,,,,,,,,,,,,,,,,,,,,,,,,,,,"[-0.4668,-0.8746,-0.2942]","[-0.8982,-0.37259999999999993,0.2784]",92.80001283,-40.80000705,1,0,0,response3disk,-14.39993994,-1.600006461,1,0,0,rectangle,-14.39993994,-1.600006461,1,0,0,,1,0.0008,0,-14.39993994,-1.600006461,1,0,0,0,1,1,129,1,48,second,,,,,,,,,,,,,,,,,,,,,,,,,,,,,,,,,,,,,,,,,,,,,,,,,,,,,,,,,,,,,,,,,,,
,,,,,,5e4545c5a8f19a01c0fc53bd,62b2ac7f852545e3169afe08,2022-06-22_07h46.24.134,Colour_Asymmetry_Pilot,2022.1.3,Win32,142.9592566,62b2a6a25f2ba72662469a01,,,,,,,,,,,,,,,,,,,,threeone,,-3,4.4098,,,,,,,,,,,,,,,,,,,,,,,,,,,,,,,,,,"[0.11359999999999992,0.6312,0.5213999999999999]","[0.796,0.2156,-0.27859999999999996]",-96.79999,35.19996967,1,0,0,response7disk,-10.39993988,-1.600006461,1,0,0,rectangle,-10.39993988,-1.600006461,1,0,0,,1,0.0001,0,-10.39993988,-1.600006461,1,0,0,0,2,2,30,1,30,first,,,,,,,,,,,,,,,,,,,,,,,,,,,,,,,,,,,,,,,,,,,,,,,,,,,,,,,,,,,,,,,,,,,
,,,,,,5e4545c5a8f19a01c0fc53bd,62b2ac7f852545e3169afe08,2022-06-22_07h46.24.134,Colour_Asymmetry_Pilot,2022.1.3,Win32,142.9592566,62b2a6a25f2ba72662469a01,,,,,,,,,,,,,,,,,,,,onetwo,,4,1.8613,,,,,,,,,,,,,,,,,,,,,,,,,,,,,,,,,,"[0.09799999999999986,-0.24719999999999998,0.15280000000000005]","[0.12939999999999996,-0.2864,0.3253999999999999]",57.6000123,86.39999485,1,0,0,response1disk,-11.99998873,-6.400006533,1,0,0,rectangle,-11.99998873,-6.400006533,1,0,0,,1,9.99999E-05,0,-11.99998873,-6.400006533,1,0,0,0,3,3,106,1,25,second,,,,,,,,,,,,,,,,,,,,,,,,,,,,,,,,,,,,,,,,,,,,,,,,,,,,,,,,,,,,,,,,,,,
,,,,,,5e4545c5a8f19a01c0fc53bd,62b2ac7f852545e3169afe08,2022-06-22_07h46.24.134,Colour_Asymmetry_Pilot,2022.1.3,Win32,142.9592566,62b2a6a25f2ba72662469a01,,,,,,,,,,,,,,,,,,,,onetwo,,-2,1.3887,,,,,,,,,,,,,,,,,,,,,,,,,,,,,,,,,,"[0.09799999999999986,-0.24719999999999998,0.15280000000000005]","[-0.48240000000000005,0.3175999999999999,0.2156]",-96.79999,-39.20000702,1,0,0,response5disk,-1.59998858,-2.400006473,1,0,0,rectangle,-1.59998858,-2.400006473,1,0,0,,2,0.0012,0,-1.59998858,-2.400006473,1,0,0,0,4,4,118,1,37,second,,,,,,,,,,,,,,,,,,,,,,,,,,,,,,,,,,,,,,,,,,,,,,,,,,,,,,,,,,,,,,,,,,,
,,,,,,5e4545c5a8f19a01c0fc53bd,62b2ac7f852545e3169afe08,2022-06-22_07h46.24.134,Colour_Asymmetry_Pilot,2022.1.3,Win32,142.9592566,62b2a6a25f2ba72662469a01,,,,,,,,,,,,,,,,,,,,twoone,,1,3.9858,,,,,,,,,,,,,,,,,,,,,,,,,,,,,,,,,,"[0.9686000000000001,0.3802000000000001,0.19999999999999996]","[0.9842,0.7409999999999999,-0.6628000000000001]",55.20001227,-96.00000787,1,0,0,response3disk,-7.999988675,5.599993646,1,0,0,rectangle,-7.999988675,5.599993646,1,0,0,,3,0.0006,0,-7.999988675,5.599993646,1,0,0,0,5,5,53,1,53,first,,,,,,,,,,,,,,,,,,,,,,,,,,,,,,,,,,,,,,,,,,,,,,,,,,,,,,,,,,,,,,,,,,,
,,,,,,5e4545c5a8f19a01c0fc53bd,62b2ac7f852545e3169afe08,2022-06-22_07h46.24.134,Colour_Asymmetry_Pilot,2022.1.3,Win32,142.9592566,62b2a6a25f2ba72662469a01,,,,,,,,,,,,,,,,,,,,fourtwo,,-2,11.5832,,,,,,,,,,,,,,,,,,,,,,,,,,,,,,,,,,"[-0.011800000000000033,-0.906,-0.45100000000000007]","[0.9686000000000001,0.3802000000000001,0.19999999999999996]",-101.5999901,-66.40000743,1,0,0,response5disk,-5.599988639,3.999993622,1,0,0,rectangle,-5.599988639,3.999993622,1,0,0,,2,0.0011,0,-5.599988639,3.999993622,1,0,0,0,6,6,158,1,77,second,,,,,,,,,,,,,,,,,,,,,,,,,,,,,,,,,,,,,,,,,,,,,,,,,,,,,,,,,,,,,,,,,,,
,,,,,,5e4545c5a8f19a01c0fc53bd,62b2ac7f852545e3169afe08,2022-06-22_07h46.24.134,Colour_Asymmetry_Pilot,2022.1.3,Win32,142.9592566,62b2a6a25f2ba72662469a01,,,,,,,,,,,,,,,,,,,,twoone,,3,1.6833,,,,,,,,,,,,,,,,,,,,,,,,,,,,,,,,,,"[0.05879999999999996,0.2784,0.5841999999999998]","[-0.09019999999999995,0.44300000000000006,0.5371999999999999]",82.40001267,45.59999424,1,0,0,response1disk,7.200011551,-8.000006557,1,0,0,rectangle,7.200011551,-8.000006557,1,0,0,,2,0.0004,0,7.200011551,-8.000006557,1,0,0,0,7,7,150,1,69,second,,,,,,,,,,,,,,,,,,,,,,,,,,,,,,,,,,,,,,,,,,,,,,,,,,,,,,,,,,,,,,,,,,,
,,,,,,5e4545c5a8f19a01c0fc53bd,62b2ac7f852545e3169afe08,2022-06-22_07h46.24.134,Colour_Asymmetry_Pilot,2022.1.3,Win32,142.9592566,62b2a6a25f2ba72662469a01,,,,,,,,,,,,,,,,,,,,onetwo,,-1,5.0489,,,,,,,,,,,,,,,,,,,,,,,,,,,,,,,,,,"[-0.26280000000000003,-0.2158,-0.3256]","[-0.9688,-0.7412000000000001,-0.4902000000000001]",-55.99998939,-95.20000786,1,0,0,response5disk,-7.999988675,-8.000006557,1,0,0,rectangle,-7.999988675,-8.000006557,1,0,0,,3,0.0006,0,-7.999988675,-8.000006557,1,0,0,0,8,8,85,1,4,second,,,,,,,,,,,,,,,,,,,,,,,,,,,,,,,,,,,,,,,,,,,,,,,,,,,,,,,,,,,,,,,,,,,
,,,,,,5e4545c5a8f19a01c0fc53bd,62b2ac7f852545e3169afe08,2022-06-22_07h46.24.134,Colour_Asymmetry_Pilot,2022.1.3,Win32,142.9592566,62b2a6a25f2ba72662469a01,,,,,,,,,,,,,,,,,,,,threeone,,4,1.1743,,,,,,,,,,,,,,,,,,,,,,,,,,,,,,,,,,"[0.37240000000000006,0.4980000000000002,-0.2864]","[0.7018,0.7802,-0.16079999999999994]",52.00001222,79.99999475,1,0,0,response1disk,2.40001148,1.599993587,1,0,0,rectangle,2.40001148,1.599993587,1,0,0,,3,0.0005,0,2.40001148,1.599993587,1,0,0,0,9,9,79,1,79,first,,,,,,,,,,,,,,,,,,,,,,,,,,,,,,,,,,,,,,,,,,,,,,,,,,,,,,,,,,,,,,,,,,,
,,,,,,5e4545c5a8f19a01c0fc53bd,62b2ac7f852545e3169afe08,2022-06-22_07h46.24.134,Colour_Asymmetry_Pilot,2022.1.3,Win32,142.9592566,62b2a6a25f2ba72662469a01,,,,,,,,,,,,,,,,,,,,twoone,,-2,2.1318,,,,,,,,,,,,,,,,,,,,,,,,,,,,,,,,,,"[-0.20799999999999996,-0.655,-0.01980000000000004]","[-0.050999999999999934,-0.6706000000000001,-0.804]",-75.99998969,-53.60000724,1,0,0,response5disk,-12.79998875,-13.60000664,1,0,0,rectangle,89.60001278,-48.00000715,1,0,0,2,2,2.6168,1,-7.999988675,-1.600006461,1,0,0,0,10,10,104,1,23,second,response3disk_3,rectangle,,,,,,,,,,,,,,,,,,,,,,,,,,,,,,,,,,,,,,,,,,,,,,,,,,,,,,,,,,,,,,,,,
,,,,,,5e4545c5a8f19a01c0fc53bd,62b2ac7f852545e3169afe08,2022-06-22_07h46.24.134,Colour_Asymmetry_Pilot,2022.1.3,Win32,142.9592566,62b2a6a25f2ba72662469a01,,,,,,,,,,,,,,,,,,,,threefour,,3,1.2846,,,,,,,,,,,,,,,,,,,,,,,,,,,,,,,,,,"[-0.09019999999999995,0.44300000000000006,0.5371999999999999]","[0.05879999999999996,0.2784,0.5841999999999998]",85.60001272,62.39999449,1,0,0,response1disk,1.600060296,-8.000006557,1,0,0,rectangle,1.600060296,-8.000006557,1,0,0,2,3,0.0009,0,1.600060296,-8.000006557,1,0,0,0,11,11,69,1,69,first,,,,,,,,,,,,,,,,,,,,,,,,,,,,,,,,,,,,,,,,,,,,,,,,,,,,,,,,,,,,,,,,,,,
,,,,,,5e4545c5a8f19a01c0fc53bd,62b2ac7f852545e3169afe08,2022-06-22_07h46.24.134,Colour_Asymmetry_Pilot,2022.1.3,Win32,142.9592566,62b2a6a25f2ba72662469a01,,,,,,,,,,,,,,,,,,,,onetwo,,2,1.6575,,,,,,,,,,,,,,,,,,,,,,,,,,,,,,,,,,"[-0.4746,-0.0354000000000001,0.5449999999999999]","[-0.5452,-0.608,0.2470000000000001]",88.80001277,-40.80000705,1,0,0,response3disk,0.800011456,-0.800006449,1,0,0,rectangle,0.800011456,-0.800006449,1,0,0,2,3,0.0003,0,0.800011456,-0.800006449,1,0,0,0,12,12,103,1,22,second,,,,,,,,,,,,,,,,,,,,,,,,,,,,,,,,,,,,,,,,,,,,,,,,,,,,,,,,,,,,,,,,,,,
,,,,,,5e4545c5a8f19a01c0fc53bd,62b2ac7f852545e3169afe08,2022-06-22_07h46.24.134,Colour_Asymmetry_Pilot,2022.1.3,Win32,142.9592566,62b2a6a25f2ba72662469a01,,,,,,,,,,,,,,,,,,,,twoone,,-3,2.2917,,,,,,,,,,,,,,,,,,,,,,,,,,,,,,,,,,"[-0.9688,-0.7412000000000001,-0.4902000000000001]","[-0.2942,-0.7648,-0.7492000000000001]",-96.79999,27.19996955,1,0,0,response7disk,-9.599988699,2.399993598,1,0,0,rectangle,-9.599988699,2.399993598,1,0,0,2,1,0.0013,0,-9.599988699,2.399993598,1,0,0,0,13,13,80,1,80,first,,,,,,,,,,,,,,,,,,,,,,,,,,,,,,,,,,,,,,,,,,,,,,,,,,,,,,,,,,,,,,,,,,,
,,,,,,5e4545c5a8f19a01c0fc53bd,62b2ac7f852545e3169afe08,2022-06-22_07h46.24.134,Colour_Asymmetry_Pilot,2022.1.3,Win32,142.9592566,62b2a6a25f2ba72662469a01,,,,,,,,,,,,,,,,,,,,twofour,,-1,2.8401,,,,,,,,,,,,,,,,,,,,,,,,,,,,,,,,,,"[0.0351999999999999,0.41159999999999997,0.0038000000000000256]","[-0.17659999999999998,-0.2864,-0.8354]",-39.19998914,-115.2000082,1,0,0,response5disk,-4.799988627,-4.800006509,1,0,0,rectangle,-4.799988627,-4.800006509,1,0,0,2,1,0.0004,0,-4.799988627,-4.800006509,1,0,0,0,14,14,27,1,27,first,,,,,,,,,,,,,,,,,,,,,,,,,,,,,,,,,,,,,,,,,,,,,,,,,,,,,,,,,,,,,,,,,,,
,,,,,,5e4545c5a8f19a01c0fc53bd,62b2ac7f852545e3169afe08,2022-06-22_07h46.24.134,Colour_Asymmetry_Pilot,2022.1.3,Win32,142.9592566,62b2a6a25f2ba72662469a01,,,,,,,,,,,,,,,,,,,,twofour,,-4,0.7293,,,,,,,,,,,,,,,,,,,,,,,,,,,,,,,,,,"[-0.4668,-0.8746,-0.2942]","[0.9213999999999998,0.6391999999999998,-0.9922]",-43.1999892,88.79999489,1,0,0,response7disk,-1.59998858,4.799993634,1,0,0,rectangle,-1.59998858,4.799993634,1,0,0,2,2,0.0009,0,-1.59998858,4.799993634,1,0,0,0,15,15,78,1,78,first,,,,,,,,,,,,,,,,,,,,,,,,,,,,,,,,,,,,,,,,,,,,,,,,,,,,,,,,,,,,,,,,,,,
,,,,,,5e4545c5a8f19a01c0fc53bd,62b2ac7f852545e3169afe08,2022-06-22_07h46.24.134,Colour_Asymmetry_Pilot,2022.1.3,Win32,142.9592566,62b2a6a25f2ba72662469a01,,,,,,,,,,,,,,,,,,,,threefour,,1,1.6389,,,,,,,,,,,,,,,,,,,,,,,,,,,,,,,,,,"[-0.8198,-0.5138,-0.7492000000000001]","[0.0351999999999999,0.41159999999999997,0.0038000000000000256]",37.60006083,-71.2000075,1,0,0,response3disk,-3.199988604,-2.400006473,1,0,0,rectangle,-3.199988604,-2.400006473,1,0,0,2,1,0.0013,0,-3.199988604,-2.400006473,1,0,0,0,16,16,92,1,11,second,,,,,,,,,,,,,,,,,,,,,,,,,,,,,,,,,,,,,,,,,,,,,,,,,,,,,,,,,,,,,,,,,,,
