trials.thisRepN,trials.thisTrialN,trials.thisN,trials.thisIndex,trials.ran,Colourcodes,participant,session,date,expName,psychopyVersion,OS,frameRate,study_id,trials_4.thisRepN,trials_4.thisTrialN,trials_4.thisN,trials_4.thisIndex,trials_4.ran,StimulusPos,key_resp.keys,key_resp.rt,key_resp_2.keys,key_resp_2.rt,key_resp_15.keys,key_resp_15.rt,key_resp_17.keys,key_resp_17.rt,key_resp_9.keys,key_resp_9.rt,key_resp_10.keys,key_resp_10.rt,Circle1_col,Ecc,Circle2_col,similarity,response_time,mouse_5.x,mouse_5.y,mouse_5.leftButton,mouse_5.midButton,mouse_5.rightButton,mouse_5.clicked_name,mouse_10.x,mouse_10.y,mouse_10.leftButton,mouse_10.midButton,mouse_10.rightButton,mouse_10.clicked_name,mouse_7.x,mouse_7.y,mouse_7.leftButton,mouse_7.midButton,mouse_7.rightButton,mouse_7.clicked_name,catchprac,catchnumberprac,mouse_6.x,mouse_6.y,mouse_6.leftButton,mouse_6.midButton,mouse_6.rightButton,mouse_6.clicked_name,duringprac.thisRepN,duringprac.thisTrialN,duringprac.thisN,duringprac.thisIndex,duringprac.ran,key_resp_22.keys,key_resp_22.rt,Circle1_colour,Circle2_colour,mouse.x,mouse.y,mouse.leftButton,mouse.midButton,mouse.rightButton,mouse.clicked_name,mouse_2.x,mouse_2.y,mouse_2.leftButton,mouse_2.midButton,mouse_2.rightButton,mouse_2.clicked_name,mouse_3.x,mouse_3.y,mouse_3.leftButton,mouse_3.midButton,mouse_3.rightButton,catchresponse,catchnumber,response_time_catch,Catch,mouse_11.x,mouse_11.y,mouse_11.leftButton,mouse_11.midButton,mouse_11.rightButton,trials_2.thisRepN,trials_2.thisTrialN,trials_2.thisN,trials_2.thisIndex,trials_2.ran,Colourpair,Temporder,mouse_3.clicked_name,mouse_11.clicked_name,trials_3.thisRepN,trials_3.thisTrialN,trials_3.thisN,trials_3.thisIndex,trials_3.ran,key_resp_instr_Ishi.keys,key_resp_instr_Ishi.rt,Ishi_trial_keyresp.keys,Ishi_trial_keyresp.rt,Ishi_textbox.text,Ishi_loop.thisRepN,Ishi_loop.thisTrialN,Ishi_loop.thisN,Ishi_loop.thisIndex,Ishi_loop.ran,imageaddress,textbox.text,mouse_4.x,mouse_4.y,mouse_4.leftButton,mouse_4.midButton,mouse_4.rightButton,mouse_4.clicked_name,textbox_2.text,mouse_8.x,mouse_8.y,mouse_8.leftButton,mouse_8.midButton,mouse_8.rightButton,mouse_8.clicked_name,textbox_3.text,mouse_9.x,mouse_9.y,mouse_9.leftButton,mouse_9.midButton,mouse_9.rightButton,mouse_9.clicked_name,textbox_4.text,mouse_12.x,mouse_12.y,mouse_12.leftButton,mouse_12.midButton,mouse_12.rightButton,mouse_12.clicked_name,textbox_5.text,mouse_13.x,mouse_13.y,mouse_13.leftButton,mouse_13.midButton,mouse_13.rightButton,mouse_13.clicked_name,textbox_6.text,mouse_14.x,mouse_14.y,mouse_14.leftButton,mouse_14.midButton,mouse_14.rightButton,mouse_14.clicked_name,textbox_7.text,mouse_15.x,mouse_15.y,mouse_15.leftButton,mouse_15.midButton,mouse_15.rightButton,mouse_15.clicked_name
0,0,0,29,1,,614d7ee6c5fa454c4a6d3fa3,62bbfb3e119f06643ccab67e,2022-06-29_09h13.56.749,Colour_Asymmetry_Pilot,2022.1.3,Win32,59.80145916,62bbe60bf3d75ef465d3e404,,,,,,,,,,,,,,,,,,,,,,,,,,,,,,,,,,,,,,,,,,,,,,,,,,,,,,,,,,,,,,,,,,,,,,,,,,,,,,,,,,,,,,,,,,,,,,,,,,,,,,,,,,,,,,,,,,,,,,,,,,,,,,,,,,,,,,,,,,,,,,,,,,,,,,,,,,,,,,
0,1,1,44,1,,614d7ee6c5fa454c4a6d3fa3,62bbfb3e119f06643ccab67e,2022-06-29_09h13.56.749,Colour_Asymmetry_Pilot,2022.1.3,Win32,59.80145916,62bbe60bf3d75ef465d3e404,,,,,,,,,,,,,,,,,,,,,,,,,,,,,,,,,,,,,,,,,,,,,,,,,,,,,,,,,,,,,,,,,,,,,,,,,,,,,,,,,,,,,,,,,,,,,,,,,,,,,,,,,,,,,,,,,,,,,,,,,,,,,,,,,,,,,,,,,,,,,,,,,,,,,,,,,,,,,,
0,2,2,18,1,,614d7ee6c5fa454c4a6d3fa3,62bbfb3e119f06643ccab67e,2022-06-29_09h13.56.749,Colour_Asymmetry_Pilot,2022.1.3,Win32,59.80145916,62bbe60bf3d75ef465d3e404,,,,,,,,,,,,,,,,,,,,,,,,,,,,,,,,,,,,,,,,,,,,,,,,,,,,,,,,,,,,,,,,,,,,,,,,,,,,,,,,,,,,,,,,,,,,,,,,,,,,,,,,,,,,,,,,,,,,,,,,,,,,,,,,,,,,,,,,,,,,,,,,,,,,,,,,,,,,,,
0,3,3,30,1,,614d7ee6c5fa454c4a6d3fa3,62bbfb3e119f06643ccab67e,2022-06-29_09h13.56.749,Colour_Asymmetry_Pilot,2022.1.3,Win32,59.80145916,62bbe60bf3d75ef465d3e404,,,,,,,,,,,,,,,,,,,,,,,,,,,,,,,,,,,,,,,,,,,,,,,,,,,,,,,,,,,,,,,,,,,,,,,,,,,,,,,,,,,,,,,,,,,,,,,,,,,,,,,,,,,,,,,,,,,,,,,,,,,,,,,,,,,,,,,,,,,,,,,,,,,,,,,,,,,,,,
0,4,4,24,1,,614d7ee6c5fa454c4a6d3fa3,62bbfb3e119f06643ccab67e,2022-06-29_09h13.56.749,Colour_Asymmetry_Pilot,2022.1.3,Win32,59.80145916,62bbe60bf3d75ef465d3e404,,,,,,,,,,,,,,,,,,,,,,,,,,,,,,,,,,,,,,,,,,,,,,,,,,,,,,,,,,,,,,,,,,,,,,,,,,,,,,,,,,,,,,,,,,,,,,,,,,,,,,,,,,,,,,,,,,,,,,,,,,,,,,,,,,,,,,,,,,,,,,,,,,,,,,,,,,,,,,
0,5,5,70,1,,614d7ee6c5fa454c4a6d3fa3,62bbfb3e119f06643ccab67e,2022-06-29_09h13.56.749,Colour_Asymmetry_Pilot,2022.1.3,Win32,59.80145916,62bbe60bf3d75ef465d3e404,,,,,,,,,,,,,,,,,,,,,,,,,,,,,,,,,,,,,,,,,,,,,,,,,,,,,,,,,,,,,,,,,,,,,,,,,,,,,,,,,,,,,,,,,,,,,,,,,,,,,,,,,,,,,,,,,,,,,,,,,,,,,,,,,,,,,,,,,,,,,,,,,,,,,,,,,,,,,,
0,6,6,17,1,,614d7ee6c5fa454c4a6d3fa3,62bbfb3e119f06643ccab67e,2022-06-29_09h13.56.749,Colour_Asymmetry_Pilot,2022.1.3,Win32,59.80145916,62bbe60bf3d75ef465d3e404,,,,,,,,,,,,,,,,,,,,,,,,,,,,,,,,,,,,,,,,,,,,,,,,,,,,,,,,,,,,,,,,,,,,,,,,,,,,,,,,,,,,,,,,,,,,,,,,,,,,,,,,,,,,,,,,,,,,,,,,,,,,,,,,,,,,,,,,,,,,,,,,,,,,,,,,,,,,,,
0,7,7,23,1,,614d7ee6c5fa454c4a6d3fa3,62bbfb3e119f06643ccab67e,2022-06-29_09h13.56.749,Colour_Asymmetry_Pilot,2022.1.3,Win32,59.80145916,62bbe60bf3d75ef465d3e404,,,,,,,,,,,,,,,,,,,,,,,,,,,,,,,,,,,,,,,,,,,,,,,,,,,,,,,,,,,,,,,,,,,,,,,,,,,,,,,,,,,,,,,,,,,,,,,,,,,,,,,,,,,,,,,,,,,,,,,,,,,,,,,,,,,,,,,,,,,,,,,,,,,,,,,,,,,,,,
0,8,8,92,1,,614d7ee6c5fa454c4a6d3fa3,62bbfb3e119f06643ccab67e,2022-06-29_09h13.56.749,Colour_Asymmetry_Pilot,2022.1.3,Win32,59.80145916,62bbe60bf3d75ef465d3e404,,,,,,,,,,,,,,,,,,,,,,,,,,,,,,,,,,,,,,,,,,,,,,,,,,,,,,,,,,,,,,,,,,,,,,,,,,,,,,,,,,,,,,,,,,,,,,,,,,,,,,,,,,,,,,,,,,,,,,,,,,,,,,,,,,,,,,,,,,,,,,,,,,,,,,,,,,,,,,
0,9,9,22,1,,614d7ee6c5fa454c4a6d3fa3,62bbfb3e119f06643ccab67e,2022-06-29_09h13.56.749,Colour_Asymmetry_Pilot,2022.1.3,Win32,59.80145916,62bbe60bf3d75ef465d3e404,,,,,,,,,,,,,,,,,,,,,,,,,,,,,,,,,,,,,,,,,,,,,,,,,,,,,,,,,,,,,,,,,,,,,,,,,,,,,,,,,,,,,,,,,,,,,,,,,,,,,,,,,,,,,,,,,,,,,,,,,,,,,,,,,,,,,,,,,,,,,,,,,,,,,,,,,,,,,,
0,10,10,55,1,,614d7ee6c5fa454c4a6d3fa3,62bbfb3e119f06643ccab67e,2022-06-29_09h13.56.749,Colour_Asymmetry_Pilot,2022.1.3,Win32,59.80145916,62bbe60bf3d75ef465d3e404,,,,,,,,,,,,,,,,,,,,,,,,,,,,,,,,,,,,,,,,,,,,,,,,,,,,,,,,,,,,,,,,,,,,,,,,,,,,,,,,,,,,,,,,,,,,,,,,,,,,,,,,,,,,,,,,,,,,,,,,,,,,,,,,,,,,,,,,,,,,,,,,,,,,,,,,,,,,,,
0,11,11,46,1,,614d7ee6c5fa454c4a6d3fa3,62bbfb3e119f06643ccab67e,2022-06-29_09h13.56.749,Colour_Asymmetry_Pilot,2022.1.3,Win32,59.80145916,62bbe60bf3d75ef465d3e404,,,,,,,,,,,,,,,,,,,,,,,,,,,,,,,,,,,,,,,,,,,,,,,,,,,,,,,,,,,,,,,,,,,,,,,,,,,,,,,,,,,,,,,,,,,,,,,,,,,,,,,,,,,,,,,,,,,,,,,,,,,,,,,,,,,,,,,,,,,,,,,,,,,,,,,,,,,,,,
0,12,12,65,1,,614d7ee6c5fa454c4a6d3fa3,62bbfb3e119f06643ccab67e,2022-06-29_09h13.56.749,Colour_Asymmetry_Pilot,2022.1.3,Win32,59.80145916,62bbe60bf3d75ef465d3e404,,,,,,,,,,,,,,,,,,,,,,,,,,,,,,,,,,,,,,,,,,,,,,,,,,,,,,,,,,,,,,,,,,,,,,,,,,,,,,,,,,,,,,,,,,,,,,,,,,,,,,,,,,,,,,,,,,,,,,,,,,,,,,,,,,,,,,,,,,,,,,,,,,,,,,,,,,,,,,
0,13,13,77,1,,614d7ee6c5fa454c4a6d3fa3,62bbfb3e119f06643ccab67e,2022-06-29_09h13.56.749,Colour_Asymmetry_Pilot,2022.1.3,Win32,59.80145916,62bbe60bf3d75ef465d3e404,,,,,,,,,,,,,,,,,,,,,,,,,,,,,,,,,,,,,,,,,,,,,,,,,,,,,,,,,,,,,,,,,,,,,,,,,,,,,,,,,,,,,,,,,,,,,,,,,,,,,,,,,,,,,,,,,,,,,,,,,,,,,,,,,,,,,,,,,,,,,,,,,,,,,,,,,,,,,,
0,14,14,51,1,,614d7ee6c5fa454c4a6d3fa3,62bbfb3e119f06643ccab67e,2022-06-29_09h13.56.749,Colour_Asymmetry_Pilot,2022.1.3,Win32,59.80145916,62bbe60bf3d75ef465d3e404,,,,,,,,,,,,,,,,,,,,,,,,,,,,,,,,,,,,,,,,,,,,,,,,,,,,,,,,,,,,,,,,,,,,,,,,,,,,,,,,,,,,,,,,,,,,,,,,,,,,,,,,,,,,,,,,,,,,,,,,,,,,,,,,,,,,,,,,,,,,,,,,,,,,,,,,,,,,,,
0,15,15,34,1,,614d7ee6c5fa454c4a6d3fa3,62bbfb3e119f06643ccab67e,2022-06-29_09h13.56.749,Colour_Asymmetry_Pilot,2022.1.3,Win32,59.80145916,62bbe60bf3d75ef465d3e404,,,,,,,,,,,,,,,,,,,,,,,,,,,,,,,,,,,,,,,,,,,,,,,,,,,,,,,,,,,,,,,,,,,,,,,,,,,,,,,,,,,,,,,,,,,,,,,,,,,,,,,,,,,,,,,,,,,,,,,,,,,,,,,,,,,,,,,,,,,,,,,,,,,,,,,,,,,,,,
0,16,16,52,1,,614d7ee6c5fa454c4a6d3fa3,62bbfb3e119f06643ccab67e,2022-06-29_09h13.56.749,Colour_Asymmetry_Pilot,2022.1.3,Win32,59.80145916,62bbe60bf3d75ef465d3e404,,,,,,,,,,,,,,,,,,,,,,,,,,,,,,,,,,,,,,,,,,,,,,,,,,,,,,,,,,,,,,,,,,,,,,,,,,,,,,,,,,,,,,,,,,,,,,,,,,,,,,,,,,,,,,,,,,,,,,,,,,,,,,,,,,,,,,,,,,,,,,,,,,,,,,,,,,,,,,
0,17,17,75,1,,614d7ee6c5fa454c4a6d3fa3,62bbfb3e119f06643ccab67e,2022-06-29_09h13.56.749,Colour_Asymmetry_Pilot,2022.1.3,Win32,59.80145916,62bbe60bf3d75ef465d3e404,,,,,,,,,,,,,,,,,,,,,,,,,,,,,,,,,,,,,,,,,,,,,,,,,,,,,,,,,,,,,,,,,,,,,,,,,,,,,,,,,,,,,,,,,,,,,,,,,,,,,,,,,,,,,,,,,,,,,,,,,,,,,,,,,,,,,,,,,,,,,,,,,,,,,,,,,,,,,,
0,18,18,91,1,,614d7ee6c5fa454c4a6d3fa3,62bbfb3e119f06643ccab67e,2022-06-29_09h13.56.749,Colour_Asymmetry_Pilot,2022.1.3,Win32,59.80145916,62bbe60bf3d75ef465d3e404,,,,,,,,,,,,,,,,,,,,,,,,,,,,,,,,,,,,,,,,,,,,,,,,,,,,,,,,,,,,,,,,,,,,,,,,,,,,,,,,,,,,,,,,,,,,,,,,,,,,,,,,,,,,,,,,,,,,,,,,,,,,,,,,,,,,,,,,,,,,,,,,,,,,,,,,,,,,,,
0,19,19,64,1,,614d7ee6c5fa454c4a6d3fa3,62bbfb3e119f06643ccab67e,2022-06-29_09h13.56.749,Colour_Asymmetry_Pilot,2022.1.3,Win32,59.80145916,62bbe60bf3d75ef465d3e404,,,,,,,,,,,,,,,,,,,,,,,,,,,,,,,,,,,,,,,,,,,,,,,,,,,,,,,,,,,,,,,,,,,,,,,,,,,,,,,,,,,,,,,,,,,,,,,,,,,,,,,,,,,,,,,,,,,,,,,,,,,,,,,,,,,,,,,,,,,,,,,,,,,,,,,,,,,,,,
0,20,20,2,1,,614d7ee6c5fa454c4a6d3fa3,62bbfb3e119f06643ccab67e,2022-06-29_09h13.56.749,Colour_Asymmetry_Pilot,2022.1.3,Win32,59.80145916,62bbe60bf3d75ef465d3e404,,,,,,,,,,,,,,,,,,,,,,,,,,,,,,,,,,,,,,,,,,,,,,,,,,,,,,,,,,,,,,,,,,,,,,,,,,,,,,,,,,,,,,,,,,,,,,,,,,,,,,,,,,,,,,,,,,,,,,,,,,,,,,,,,,,,,,,,,,,,,,,,,,,,,,,,,,,,,,
0,21,21,19,1,,614d7ee6c5fa454c4a6d3fa3,62bbfb3e119f06643ccab67e,2022-06-29_09h13.56.749,Colour_Asymmetry_Pilot,2022.1.3,Win32,59.80145916,62bbe60bf3d75ef465d3e404,,,,,,,,,,,,,,,,,,,,,,,,,,,,,,,,,,,,,,,,,,,,,,,,,,,,,,,,,,,,,,,,,,,,,,,,,,,,,,,,,,,,,,,,,,,,,,,,,,,,,,,,,,,,,,,,,,,,,,,,,,,,,,,,,,,,,,,,,,,,,,,,,,,,,,,,,,,,,,
0,22,22,84,1,,614d7ee6c5fa454c4a6d3fa3,62bbfb3e119f06643ccab67e,2022-06-29_09h13.56.749,Colour_Asymmetry_Pilot,2022.1.3,Win32,59.80145916,62bbe60bf3d75ef465d3e404,,,,,,,,,,,,,,,,,,,,,,,,,,,,,,,,,,,,,,,,,,,,,,,,,,,,,,,,,,,,,,,,,,,,,,,,,,,,,,,,,,,,,,,,,,,,,,,,,,,,,,,,,,,,,,,,,,,,,,,,,,,,,,,,,,,,,,,,,,,,,,,,,,,,,,,,,,,,,,
0,23,23,4,1,,614d7ee6c5fa454c4a6d3fa3,62bbfb3e119f06643ccab67e,2022-06-29_09h13.56.749,Colour_Asymmetry_Pilot,2022.1.3,Win32,59.80145916,62bbe60bf3d75ef465d3e404,,,,,,,,,,,,,,,,,,,,,,,,,,,,,,,,,,,,,,,,,,,,,,,,,,,,,,,,,,,,,,,,,,,,,,,,,,,,,,,,,,,,,,,,,,,,,,,,,,,,,,,,,,,,,,,,,,,,,,,,,,,,,,,,,,,,,,,,,,,,,,,,,,,,,,,,,,,,,,
0,24,24,81,1,,614d7ee6c5fa454c4a6d3fa3,62bbfb3e119f06643ccab67e,2022-06-29_09h13.56.749,Colour_Asymmetry_Pilot,2022.1.3,Win32,59.80145916,62bbe60bf3d75ef465d3e404,,,,,,,,,,,,,,,,,,,,,,,,,,,,,,,,,,,,,,,,,,,,,,,,,,,,,,,,,,,,,,,,,,,,,,,,,,,,,,,,,,,,,,,,,,,,,,,,,,,,,,,,,,,,,,,,,,,,,,,,,,,,,,,,,,,,,,,,,,,,,,,,,,,,,,,,,,,,,,
0,25,25,74,1,,614d7ee6c5fa454c4a6d3fa3,62bbfb3e119f06643ccab67e,2022-06-29_09h13.56.749,Colour_Asymmetry_Pilot,2022.1.3,Win32,59.80145916,62bbe60bf3d75ef465d3e404,,,,,,,,,,,,,,,,,,,,,,,,,,,,,,,,,,,,,,,,,,,,,,,,,,,,,,,,,,,,,,,,,,,,,,,,,,,,,,,,,,,,,,,,,,,,,,,,,,,,,,,,,,,,,,,,,,,,,,,,,,,,,,,,,,,,,,,,,,,,,,,,,,,,,,,,,,,,,,
0,26,26,28,1,,614d7ee6c5fa454c4a6d3fa3,62bbfb3e119f06643ccab67e,2022-06-29_09h13.56.749,Colour_Asymmetry_Pilot,2022.1.3,Win32,59.80145916,62bbe60bf3d75ef465d3e404,,,,,,,,,,,,,,,,,,,,,,,,,,,,,,,,,,,,,,,,,,,,,,,,,,,,,,,,,,,,,,,,,,,,,,,,,,,,,,,,,,,,,,,,,,,,,,,,,,,,,,,,,,,,,,,,,,,,,,,,,,,,,,,,,,,,,,,,,,,,,,,,,,,,,,,,,,,,,,
0,27,27,48,1,,614d7ee6c5fa454c4a6d3fa3,62bbfb3e119f06643ccab67e,2022-06-29_09h13.56.749,Colour_Asymmetry_Pilot,2022.1.3,Win32,59.80145916,62bbe60bf3d75ef465d3e404,,,,,,,,,,,,,,,,,,,,,,,,,,,,,,,,,,,,,,,,,,,,,,,,,,,,,,,,,,,,,,,,,,,,,,,,,,,,,,,,,,,,,,,,,,,,,,,,,,,,,,,,,,,,,,,,,,,,,,,,,,,,,,,,,,,,,,,,,,,,,,,,,,,,,,,,,,,,,,
0,28,28,20,1,,614d7ee6c5fa454c4a6d3fa3,62bbfb3e119f06643ccab67e,2022-06-29_09h13.56.749,Colour_Asymmetry_Pilot,2022.1.3,Win32,59.80145916,62bbe60bf3d75ef465d3e404,,,,,,,,,,,,,,,,,,,,,,,,,,,,,,,,,,,,,,,,,,,,,,,,,,,,,,,,,,,,,,,,,,,,,,,,,,,,,,,,,,,,,,,,,,,,,,,,,,,,,,,,,,,,,,,,,,,,,,,,,,,,,,,,,,,,,,,,,,,,,,,,,,,,,,,,,,,,,,
0,29,29,66,1,,614d7ee6c5fa454c4a6d3fa3,62bbfb3e119f06643ccab67e,2022-06-29_09h13.56.749,Colour_Asymmetry_Pilot,2022.1.3,Win32,59.80145916,62bbe60bf3d75ef465d3e404,,,,,,,,,,,,,,,,,,,,,,,,,,,,,,,,,,,,,,,,,,,,,,,,,,,,,,,,,,,,,,,,,,,,,,,,,,,,,,,,,,,,,,,,,,,,,,,,,,,,,,,,,,,,,,,,,,,,,,,,,,,,,,,,,,,,,,,,,,,,,,,,,,,,,,,,,,,,,,
0,30,30,89,1,,614d7ee6c5fa454c4a6d3fa3,62bbfb3e119f06643ccab67e,2022-06-29_09h13.56.749,Colour_Asymmetry_Pilot,2022.1.3,Win32,59.80145916,62bbe60bf3d75ef465d3e404,,,,,,,,,,,,,,,,,,,,,,,,,,,,,,,,,,,,,,,,,,,,,,,,,,,,,,,,,,,,,,,,,,,,,,,,,,,,,,,,,,,,,,,,,,,,,,,,,,,,,,,,,,,,,,,,,,,,,,,,,,,,,,,,,,,,,,,,,,,,,,,,,,,,,,,,,,,,,,
0,31,31,87,1,,614d7ee6c5fa454c4a6d3fa3,62bbfb3e119f06643ccab67e,2022-06-29_09h13.56.749,Colour_Asymmetry_Pilot,2022.1.3,Win32,59.80145916,62bbe60bf3d75ef465d3e404,,,,,,,,,,,,,,,,,,,,,,,,,,,,,,,,,,,,,,,,,,,,,,,,,,,,,,,,,,,,,,,,,,,,,,,,,,,,,,,,,,,,,,,,,,,,,,,,,,,,,,,,,,,,,,,,,,,,,,,,,,,,,,,,,,,,,,,,,,,,,,,,,,,,,,,,,,,,,,
0,32,32,69,1,,614d7ee6c5fa454c4a6d3fa3,62bbfb3e119f06643ccab67e,2022-06-29_09h13.56.749,Colour_Asymmetry_Pilot,2022.1.3,Win32,59.80145916,62bbe60bf3d75ef465d3e404,,,,,,,,,,,,,,,,,,,,,,,,,,,,,,,,,,,,,,,,,,,,,,,,,,,,,,,,,,,,,,,,,,,,,,,,,,,,,,,,,,,,,,,,,,,,,,,,,,,,,,,,,,,,,,,,,,,,,,,,,,,,,,,,,,,,,,,,,,,,,,,,,,,,,,,,,,,,,,
0,33,33,63,1,,614d7ee6c5fa454c4a6d3fa3,62bbfb3e119f06643ccab67e,2022-06-29_09h13.56.749,Colour_Asymmetry_Pilot,2022.1.3,Win32,59.80145916,62bbe60bf3d75ef465d3e404,,,,,,,,,,,,,,,,,,,,,,,,,,,,,,,,,,,,,,,,,,,,,,,,,,,,,,,,,,,,,,,,,,,,,,,,,,,,,,,,,,,,,,,,,,,,,,,,,,,,,,,,,,,,,,,,,,,,,,,,,,,,,,,,,,,,,,,,,,,,,,,,,,,,,,,,,,,,,,
0,34,34,76,1,,614d7ee6c5fa454c4a6d3fa3,62bbfb3e119f06643ccab67e,2022-06-29_09h13.56.749,Colour_Asymmetry_Pilot,2022.1.3,Win32,59.80145916,62bbe60bf3d75ef465d3e404,,,,,,,,,,,,,,,,,,,,,,,,,,,,,,,,,,,,,,,,,,,,,,,,,,,,,,,,,,,,,,,,,,,,,,,,,,,,,,,,,,,,,,,,,,,,,,,,,,,,,,,,,,,,,,,,,,,,,,,,,,,,,,,,,,,,,,,,,,,,,,,,,,,,,,,,,,,,,,
0,35,35,8,1,,614d7ee6c5fa454c4a6d3fa3,62bbfb3e119f06643ccab67e,2022-06-29_09h13.56.749,Colour_Asymmetry_Pilot,2022.1.3,Win32,59.80145916,62bbe60bf3d75ef465d3e404,,,,,,,,,,,,,,,,,,,,,,,,,,,,,,,,,,,,,,,,,,,,,,,,,,,,,,,,,,,,,,,,,,,,,,,,,,,,,,,,,,,,,,,,,,,,,,,,,,,,,,,,,,,,,,,,,,,,,,,,,,,,,,,,,,,,,,,,,,,,,,,,,,,,,,,,,,,,,,
0,36,36,47,1,,614d7ee6c5fa454c4a6d3fa3,62bbfb3e119f06643ccab67e,2022-06-29_09h13.56.749,Colour_Asymmetry_Pilot,2022.1.3,Win32,59.80145916,62bbe60bf3d75ef465d3e404,,,,,,,,,,,,,,,,,,,,,,,,,,,,,,,,,,,,,,,,,,,,,,,,,,,,,,,,,,,,,,,,,,,,,,,,,,,,,,,,,,,,,,,,,,,,,,,,,,,,,,,,,,,,,,,,,,,,,,,,,,,,,,,,,,,,,,,,,,,,,,,,,,,,,,,,,,,,,,
0,37,37,26,1,,614d7ee6c5fa454c4a6d3fa3,62bbfb3e119f06643ccab67e,2022-06-29_09h13.56.749,Colour_Asymmetry_Pilot,2022.1.3,Win32,59.80145916,62bbe60bf3d75ef465d3e404,,,,,,,,,,,,,,,,,,,,,,,,,,,,,,,,,,,,,,,,,,,,,,,,,,,,,,,,,,,,,,,,,,,,,,,,,,,,,,,,,,,,,,,,,,,,,,,,,,,,,,,,,,,,,,,,,,,,,,,,,,,,,,,,,,,,,,,,,,,,,,,,,,,,,,,,,,,,,,
0,38,38,10,1,,614d7ee6c5fa454c4a6d3fa3,62bbfb3e119f06643ccab67e,2022-06-29_09h13.56.749,Colour_Asymmetry_Pilot,2022.1.3,Win32,59.80145916,62bbe60bf3d75ef465d3e404,,,,,,,,,,,,,,,,,,,,,,,,,,,,,,,,,,,,,,,,,,,,,,,,,,,,,,,,,,,,,,,,,,,,,,,,,,,,,,,,,,,,,,,,,,,,,,,,,,,,,,,,,,,,,,,,,,,,,,,,,,,,,,,,,,,,,,,,,,,,,,,,,,,,,,,,,,,,,,
0,39,39,27,1,,614d7ee6c5fa454c4a6d3fa3,62bbfb3e119f06643ccab67e,2022-06-29_09h13.56.749,Colour_Asymmetry_Pilot,2022.1.3,Win32,59.80145916,62bbe60bf3d75ef465d3e404,,,,,,,,,,,,,,,,,,,,,,,,,,,,,,,,,,,,,,,,,,,,,,,,,,,,,,,,,,,,,,,,,,,,,,,,,,,,,,,,,,,,,,,,,,,,,,,,,,,,,,,,,,,,,,,,,,,,,,,,,,,,,,,,,,,,,,,,,,,,,,,,,,,,,,,,,,,,,,
0,40,40,36,1,,614d7ee6c5fa454c4a6d3fa3,62bbfb3e119f06643ccab67e,2022-06-29_09h13.56.749,Colour_Asymmetry_Pilot,2022.1.3,Win32,59.80145916,62bbe60bf3d75ef465d3e404,,,,,,,,,,,,,,,,,,,,,,,,,,,,,,,,,,,,,,,,,,,,,,,,,,,,,,,,,,,,,,,,,,,,,,,,,,,,,,,,,,,,,,,,,,,,,,,,,,,,,,,,,,,,,,,,,,,,,,,,,,,,,,,,,,,,,,,,,,,,,,,,,,,,,,,,,,,,,,
0,41,41,59,1,,614d7ee6c5fa454c4a6d3fa3,62bbfb3e119f06643ccab67e,2022-06-29_09h13.56.749,Colour_Asymmetry_Pilot,2022.1.3,Win32,59.80145916,62bbe60bf3d75ef465d3e404,,,,,,,,,,,,,,,,,,,,,,,,,,,,,,,,,,,,,,,,,,,,,,,,,,,,,,,,,,,,,,,,,,,,,,,,,,,,,,,,,,,,,,,,,,,,,,,,,,,,,,,,,,,,,,,,,,,,,,,,,,,,,,,,,,,,,,,,,,,,,,,,,,,,,,,,,,,,,,
0,42,42,80,1,,614d7ee6c5fa454c4a6d3fa3,62bbfb3e119f06643ccab67e,2022-06-29_09h13.56.749,Colour_Asymmetry_Pilot,2022.1.3,Win32,59.80145916,62bbe60bf3d75ef465d3e404,,,,,,,,,,,,,,,,,,,,,,,,,,,,,,,,,,,,,,,,,,,,,,,,,,,,,,,,,,,,,,,,,,,,,,,,,,,,,,,,,,,,,,,,,,,,,,,,,,,,,,,,,,,,,,,,,,,,,,,,,,,,,,,,,,,,,,,,,,,,,,,,,,,,,,,,,,,,,,
0,43,43,33,1,,614d7ee6c5fa454c4a6d3fa3,62bbfb3e119f06643ccab67e,2022-06-29_09h13.56.749,Colour_Asymmetry_Pilot,2022.1.3,Win32,59.80145916,62bbe60bf3d75ef465d3e404,,,,,,,,,,,,,,,,,,,,,,,,,,,,,,,,,,,,,,,,,,,,,,,,,,,,,,,,,,,,,,,,,,,,,,,,,,,,,,,,,,,,,,,,,,,,,,,,,,,,,,,,,,,,,,,,,,,,,,,,,,,,,,,,,,,,,,,,,,,,,,,,,,,,,,,,,,,,,,
0,44,44,73,1,,614d7ee6c5fa454c4a6d3fa3,62bbfb3e119f06643ccab67e,2022-06-29_09h13.56.749,Colour_Asymmetry_Pilot,2022.1.3,Win32,59.80145916,62bbe60bf3d75ef465d3e404,,,,,,,,,,,,,,,,,,,,,,,,,,,,,,,,,,,,,,,,,,,,,,,,,,,,,,,,,,,,,,,,,,,,,,,,,,,,,,,,,,,,,,,,,,,,,,,,,,,,,,,,,,,,,,,,,,,,,,,,,,,,,,,,,,,,,,,,,,,,,,,,,,,,,,,,,,,,,,
0,45,45,9,1,,614d7ee6c5fa454c4a6d3fa3,62bbfb3e119f06643ccab67e,2022-06-29_09h13.56.749,Colour_Asymmetry_Pilot,2022.1.3,Win32,59.80145916,62bbe60bf3d75ef465d3e404,,,,,,,,,,,,,,,,,,,,,,,,,,,,,,,,,,,,,,,,,,,,,,,,,,,,,,,,,,,,,,,,,,,,,,,,,,,,,,,,,,,,,,,,,,,,,,,,,,,,,,,,,,,,,,,,,,,,,,,,,,,,,,,,,,,,,,,,,,,,,,,,,,,,,,,,,,,,,,
0,46,46,78,1,,614d7ee6c5fa454c4a6d3fa3,62bbfb3e119f06643ccab67e,2022-06-29_09h13.56.749,Colour_Asymmetry_Pilot,2022.1.3,Win32,59.80145916,62bbe60bf3d75ef465d3e404,,,,,,,,,,,,,,,,,,,,,,,,,,,,,,,,,,,,,,,,,,,,,,,,,,,,,,,,,,,,,,,,,,,,,,,,,,,,,,,,,,,,,,,,,,,,,,,,,,,,,,,,,,,,,,,,,,,,,,,,,,,,,,,,,,,,,,,,,,,,,,,,,,,,,,,,,,,,,,
0,47,47,31,1,,614d7ee6c5fa454c4a6d3fa3,62bbfb3e119f06643ccab67e,2022-06-29_09h13.56.749,Colour_Asymmetry_Pilot,2022.1.3,Win32,59.80145916,62bbe60bf3d75ef465d3e404,,,,,,,,,,,,,,,,,,,,,,,,,,,,,,,,,,,,,,,,,,,,,,,,,,,,,,,,,,,,,,,,,,,,,,,,,,,,,,,,,,,,,,,,,,,,,,,,,,,,,,,,,,,,,,,,,,,,,,,,,,,,,,,,,,,,,,,,,,,,,,,,,,,,,,,,,,,,,,
0,48,48,71,1,,614d7ee6c5fa454c4a6d3fa3,62bbfb3e119f06643ccab67e,2022-06-29_09h13.56.749,Colour_Asymmetry_Pilot,2022.1.3,Win32,59.80145916,62bbe60bf3d75ef465d3e404,,,,,,,,,,,,,,,,,,,,,,,,,,,,,,,,,,,,,,,,,,,,,,,,,,,,,,,,,,,,,,,,,,,,,,,,,,,,,,,,,,,,,,,,,,,,,,,,,,,,,,,,,,,,,,,,,,,,,,,,,,,,,,,,,,,,,,,,,,,,,,,,,,,,,,,,,,,,,,
0,49,49,3,1,,614d7ee6c5fa454c4a6d3fa3,62bbfb3e119f06643ccab67e,2022-06-29_09h13.56.749,Colour_Asymmetry_Pilot,2022.1.3,Win32,59.80145916,62bbe60bf3d75ef465d3e404,,,,,,,,,,,,,,,,,,,,,,,,,,,,,,,,,,,,,,,,,,,,,,,,,,,,,,,,,,,,,,,,,,,,,,,,,,,,,,,,,,,,,,,,,,,,,,,,,,,,,,,,,,,,,,,,,,,,,,,,,,,,,,,,,,,,,,,,,,,,,,,,,,,,,,,,,,,,,,
0,50,50,35,1,,614d7ee6c5fa454c4a6d3fa3,62bbfb3e119f06643ccab67e,2022-06-29_09h13.56.749,Colour_Asymmetry_Pilot,2022.1.3,Win32,59.80145916,62bbe60bf3d75ef465d3e404,,,,,,,,,,,,,,,,,,,,,,,,,,,,,,,,,,,,,,,,,,,,,,,,,,,,,,,,,,,,,,,,,,,,,,,,,,,,,,,,,,,,,,,,,,,,,,,,,,,,,,,,,,,,,,,,,,,,,,,,,,,,,,,,,,,,,,,,,,,,,,,,,,,,,,,,,,,,,,
0,51,51,72,1,,614d7ee6c5fa454c4a6d3fa3,62bbfb3e119f06643ccab67e,2022-06-29_09h13.56.749,Colour_Asymmetry_Pilot,2022.1.3,Win32,59.80145916,62bbe60bf3d75ef465d3e404,,,,,,,,,,,,,,,,,,,,,,,,,,,,,,,,,,,,,,,,,,,,,,,,,,,,,,,,,,,,,,,,,,,,,,,,,,,,,,,,,,,,,,,,,,,,,,,,,,,,,,,,,,,,,,,,,,,,,,,,,,,,,,,,,,,,,,,,,,,,,,,,,,,,,,,,,,,,,,
0,52,52,85,1,,614d7ee6c5fa454c4a6d3fa3,62bbfb3e119f06643ccab67e,2022-06-29_09h13.56.749,Colour_Asymmetry_Pilot,2022.1.3,Win32,59.80145916,62bbe60bf3d75ef465d3e404,,,,,,,,,,,,,,,,,,,,,,,,,,,,,,,,,,,,,,,,,,,,,,,,,,,,,,,,,,,,,,,,,,,,,,,,,,,,,,,,,,,,,,,,,,,,,,,,,,,,,,,,,,,,,,,,,,,,,,,,,,,,,,,,,,,,,,,,,,,,,,,,,,,,,,,,,,,,,,
0,53,53,49,1,,614d7ee6c5fa454c4a6d3fa3,62bbfb3e119f06643ccab67e,2022-06-29_09h13.56.749,Colour_Asymmetry_Pilot,2022.1.3,Win32,59.80145916,62bbe60bf3d75ef465d3e404,,,,,,,,,,,,,,,,,,,,,,,,,,,,,,,,,,,,,,,,,,,,,,,,,,,,,,,,,,,,,,,,,,,,,,,,,,,,,,,,,,,,,,,,,,,,,,,,,,,,,,,,,,,,,,,,,,,,,,,,,,,,,,,,,,,,,,,,,,,,,,,,,,,,,,,,,,,,,,
0,54,54,43,1,,614d7ee6c5fa454c4a6d3fa3,62bbfb3e119f06643ccab67e,2022-06-29_09h13.56.749,Colour_Asymmetry_Pilot,2022.1.3,Win32,59.80145916,62bbe60bf3d75ef465d3e404,,,,,,,,,,,,,,,,,,,,,,,,,,,,,,,,,,,,,,,,,,,,,,,,,,,,,,,,,,,,,,,,,,,,,,,,,,,,,,,,,,,,,,,,,,,,,,,,,,,,,,,,,,,,,,,,,,,,,,,,,,,,,,,,,,,,,,,,,,,,,,,,,,,,,,,,,,,,,,
0,55,55,45,1,,614d7ee6c5fa454c4a6d3fa3,62bbfb3e119f06643ccab67e,2022-06-29_09h13.56.749,Colour_Asymmetry_Pilot,2022.1.3,Win32,59.80145916,62bbe60bf3d75ef465d3e404,,,,,,,,,,,,,,,,,,,,,,,,,,,,,,,,,,,,,,,,,,,,,,,,,,,,,,,,,,,,,,,,,,,,,,,,,,,,,,,,,,,,,,,,,,,,,,,,,,,,,,,,,,,,,,,,,,,,,,,,,,,,,,,,,,,,,,,,,,,,,,,,,,,,,,,,,,,,,,
0,56,56,50,1,,614d7ee6c5fa454c4a6d3fa3,62bbfb3e119f06643ccab67e,2022-06-29_09h13.56.749,Colour_Asymmetry_Pilot,2022.1.3,Win32,59.80145916,62bbe60bf3d75ef465d3e404,,,,,,,,,,,,,,,,,,,,,,,,,,,,,,,,,,,,,,,,,,,,,,,,,,,,,,,,,,,,,,,,,,,,,,,,,,,,,,,,,,,,,,,,,,,,,,,,,,,,,,,,,,,,,,,,,,,,,,,,,,,,,,,,,,,,,,,,,,,,,,,,,,,,,,,,,,,,,,
0,57,57,40,1,,614d7ee6c5fa454c4a6d3fa3,62bbfb3e119f06643ccab67e,2022-06-29_09h13.56.749,Colour_Asymmetry_Pilot,2022.1.3,Win32,59.80145916,62bbe60bf3d75ef465d3e404,,,,,,,,,,,,,,,,,,,,,,,,,,,,,,,,,,,,,,,,,,,,,,,,,,,,,,,,,,,,,,,,,,,,,,,,,,,,,,,,,,,,,,,,,,,,,,,,,,,,,,,,,,,,,,,,,,,,,,,,,,,,,,,,,,,,,,,,,,,,,,,,,,,,,,,,,,,,,,
0,58,58,62,1,,614d7ee6c5fa454c4a6d3fa3,62bbfb3e119f06643ccab67e,2022-06-29_09h13.56.749,Colour_Asymmetry_Pilot,2022.1.3,Win32,59.80145916,62bbe60bf3d75ef465d3e404,,,,,,,,,,,,,,,,,,,,,,,,,,,,,,,,,,,,,,,,,,,,,,,,,,,,,,,,,,,,,,,,,,,,,,,,,,,,,,,,,,,,,,,,,,,,,,,,,,,,,,,,,,,,,,,,,,,,,,,,,,,,,,,,,,,,,,,,,,,,,,,,,,,,,,,,,,,,,,
0,59,59,83,1,,614d7ee6c5fa454c4a6d3fa3,62bbfb3e119f06643ccab67e,2022-06-29_09h13.56.749,Colour_Asymmetry_Pilot,2022.1.3,Win32,59.80145916,62bbe60bf3d75ef465d3e404,,,,,,,,,,,,,,,,,,,,,,,,,,,,,,,,,,,,,,,,,,,,,,,,,,,,,,,,,,,,,,,,,,,,,,,,,,,,,,,,,,,,,,,,,,,,,,,,,,,,,,,,,,,,,,,,,,,,,,,,,,,,,,,,,,,,,,,,,,,,,,,,,,,,,,,,,,,,,,
0,60,60,11,1,,614d7ee6c5fa454c4a6d3fa3,62bbfb3e119f06643ccab67e,2022-06-29_09h13.56.749,Colour_Asymmetry_Pilot,2022.1.3,Win32,59.80145916,62bbe60bf3d75ef465d3e404,,,,,,,,,,,,,,,,,,,,,,,,,,,,,,,,,,,,,,,,,,,,,,,,,,,,,,,,,,,,,,,,,,,,,,,,,,,,,,,,,,,,,,,,,,,,,,,,,,,,,,,,,,,,,,,,,,,,,,,,,,,,,,,,,,,,,,,,,,,,,,,,,,,,,,,,,,,,,,
0,61,61,7,1,,614d7ee6c5fa454c4a6d3fa3,62bbfb3e119f06643ccab67e,2022-06-29_09h13.56.749,Colour_Asymmetry_Pilot,2022.1.3,Win32,59.80145916,62bbe60bf3d75ef465d3e404,,,,,,,,,,,,,,,,,,,,,,,,,,,,,,,,,,,,,,,,,,,,,,,,,,,,,,,,,,,,,,,,,,,,,,,,,,,,,,,,,,,,,,,,,,,,,,,,,,,,,,,,,,,,,,,,,,,,,,,,,,,,,,,,,,,,,,,,,,,,,,,,,,,,,,,,,,,,,,
0,62,62,53,1,,614d7ee6c5fa454c4a6d3fa3,62bbfb3e119f06643ccab67e,2022-06-29_09h13.56.749,Colour_Asymmetry_Pilot,2022.1.3,Win32,59.80145916,62bbe60bf3d75ef465d3e404,,,,,,,,,,,,,,,,,,,,,,,,,,,,,,,,,,,,,,,,,,,,,,,,,,,,,,,,,,,,,,,,,,,,,,,,,,,,,,,,,,,,,,,,,,,,,,,,,,,,,,,,,,,,,,,,,,,,,,,,,,,,,,,,,,,,,,,,,,,,,,,,,,,,,,,,,,,,,,
0,63,63,57,1,,614d7ee6c5fa454c4a6d3fa3,62bbfb3e119f06643ccab67e,2022-06-29_09h13.56.749,Colour_Asymmetry_Pilot,2022.1.3,Win32,59.80145916,62bbe60bf3d75ef465d3e404,,,,,,,,,,,,,,,,,,,,,,,,,,,,,,,,,,,,,,,,,,,,,,,,,,,,,,,,,,,,,,,,,,,,,,,,,,,,,,,,,,,,,,,,,,,,,,,,,,,,,,,,,,,,,,,,,,,,,,,,,,,,,,,,,,,,,,,,,,,,,,,,,,,,,,,,,,,,,,
0,64,64,15,1,,614d7ee6c5fa454c4a6d3fa3,62bbfb3e119f06643ccab67e,2022-06-29_09h13.56.749,Colour_Asymmetry_Pilot,2022.1.3,Win32,59.80145916,62bbe60bf3d75ef465d3e404,,,,,,,,,,,,,,,,,,,,,,,,,,,,,,,,,,,,,,,,,,,,,,,,,,,,,,,,,,,,,,,,,,,,,,,,,,,,,,,,,,,,,,,,,,,,,,,,,,,,,,,,,,,,,,,,,,,,,,,,,,,,,,,,,,,,,,,,,,,,,,,,,,,,,,,,,,,,,,
0,65,65,68,1,,614d7ee6c5fa454c4a6d3fa3,62bbfb3e119f06643ccab67e,2022-06-29_09h13.56.749,Colour_Asymmetry_Pilot,2022.1.3,Win32,59.80145916,62bbe60bf3d75ef465d3e404,,,,,,,,,,,,,,,,,,,,,,,,,,,,,,,,,,,,,,,,,,,,,,,,,,,,,,,,,,,,,,,,,,,,,,,,,,,,,,,,,,,,,,,,,,,,,,,,,,,,,,,,,,,,,,,,,,,,,,,,,,,,,,,,,,,,,,,,,,,,,,,,,,,,,,,,,,,,,,
0,66,66,42,1,,614d7ee6c5fa454c4a6d3fa3,62bbfb3e119f06643ccab67e,2022-06-29_09h13.56.749,Colour_Asymmetry_Pilot,2022.1.3,Win32,59.80145916,62bbe60bf3d75ef465d3e404,,,,,,,,,,,,,,,,,,,,,,,,,,,,,,,,,,,,,,,,,,,,,,,,,,,,,,,,,,,,,,,,,,,,,,,,,,,,,,,,,,,,,,,,,,,,,,,,,,,,,,,,,,,,,,,,,,,,,,,,,,,,,,,,,,,,,,,,,,,,,,,,,,,,,,,,,,,,,,
0,67,67,32,1,,614d7ee6c5fa454c4a6d3fa3,62bbfb3e119f06643ccab67e,2022-06-29_09h13.56.749,Colour_Asymmetry_Pilot,2022.1.3,Win32,59.80145916,62bbe60bf3d75ef465d3e404,,,,,,,,,,,,,,,,,,,,,,,,,,,,,,,,,,,,,,,,,,,,,,,,,,,,,,,,,,,,,,,,,,,,,,,,,,,,,,,,,,,,,,,,,,,,,,,,,,,,,,,,,,,,,,,,,,,,,,,,,,,,,,,,,,,,,,,,,,,,,,,,,,,,,,,,,,,,,,
0,68,68,39,1,,614d7ee6c5fa454c4a6d3fa3,62bbfb3e119f06643ccab67e,2022-06-29_09h13.56.749,Colour_Asymmetry_Pilot,2022.1.3,Win32,59.80145916,62bbe60bf3d75ef465d3e404,,,,,,,,,,,,,,,,,,,,,,,,,,,,,,,,,,,,,,,,,,,,,,,,,,,,,,,,,,,,,,,,,,,,,,,,,,,,,,,,,,,,,,,,,,,,,,,,,,,,,,,,,,,,,,,,,,,,,,,,,,,,,,,,,,,,,,,,,,,,,,,,,,,,,,,,,,,,,,
0,69,69,79,1,,614d7ee6c5fa454c4a6d3fa3,62bbfb3e119f06643ccab67e,2022-06-29_09h13.56.749,Colour_Asymmetry_Pilot,2022.1.3,Win32,59.80145916,62bbe60bf3d75ef465d3e404,,,,,,,,,,,,,,,,,,,,,,,,,,,,,,,,,,,,,,,,,,,,,,,,,,,,,,,,,,,,,,,,,,,,,,,,,,,,,,,,,,,,,,,,,,,,,,,,,,,,,,,,,,,,,,,,,,,,,,,,,,,,,,,,,,,,,,,,,,,,,,,,,,,,,,,,,,,,,,
0,70,70,14,1,,614d7ee6c5fa454c4a6d3fa3,62bbfb3e119f06643ccab67e,2022-06-29_09h13.56.749,Colour_Asymmetry_Pilot,2022.1.3,Win32,59.80145916,62bbe60bf3d75ef465d3e404,,,,,,,,,,,,,,,,,,,,,,,,,,,,,,,,,,,,,,,,,,,,,,,,,,,,,,,,,,,,,,,,,,,,,,,,,,,,,,,,,,,,,,,,,,,,,,,,,,,,,,,,,,,,,,,,,,,,,,,,,,,,,,,,,,,,,,,,,,,,,,,,,,,,,,,,,,,,,,
0,71,71,38,1,,614d7ee6c5fa454c4a6d3fa3,62bbfb3e119f06643ccab67e,2022-06-29_09h13.56.749,Colour_Asymmetry_Pilot,2022.1.3,Win32,59.80145916,62bbe60bf3d75ef465d3e404,,,,,,,,,,,,,,,,,,,,,,,,,,,,,,,,,,,,,,,,,,,,,,,,,,,,,,,,,,,,,,,,,,,,,,,,,,,,,,,,,,,,,,,,,,,,,,,,,,,,,,,,,,,,,,,,,,,,,,,,,,,,,,,,,,,,,,,,,,,,,,,,,,,,,,,,,,,,,,
0,72,72,60,1,,614d7ee6c5fa454c4a6d3fa3,62bbfb3e119f06643ccab67e,2022-06-29_09h13.56.749,Colour_Asymmetry_Pilot,2022.1.3,Win32,59.80145916,62bbe60bf3d75ef465d3e404,,,,,,,,,,,,,,,,,,,,,,,,,,,,,,,,,,,,,,,,,,,,,,,,,,,,,,,,,,,,,,,,,,,,,,,,,,,,,,,,,,,,,,,,,,,,,,,,,,,,,,,,,,,,,,,,,,,,,,,,,,,,,,,,,,,,,,,,,,,,,,,,,,,,,,,,,,,,,,
0,73,73,12,1,,614d7ee6c5fa454c4a6d3fa3,62bbfb3e119f06643ccab67e,2022-06-29_09h13.56.749,Colour_Asymmetry_Pilot,2022.1.3,Win32,59.80145916,62bbe60bf3d75ef465d3e404,,,,,,,,,,,,,,,,,,,,,,,,,,,,,,,,,,,,,,,,,,,,,,,,,,,,,,,,,,,,,,,,,,,,,,,,,,,,,,,,,,,,,,,,,,,,,,,,,,,,,,,,,,,,,,,,,,,,,,,,,,,,,,,,,,,,,,,,,,,,,,,,,,,,,,,,,,,,,,
0,74,74,5,1,,614d7ee6c5fa454c4a6d3fa3,62bbfb3e119f06643ccab67e,2022-06-29_09h13.56.749,Colour_Asymmetry_Pilot,2022.1.3,Win32,59.80145916,62bbe60bf3d75ef465d3e404,,,,,,,,,,,,,,,,,,,,,,,,,,,,,,,,,,,,,,,,,,,,,,,,,,,,,,,,,,,,,,,,,,,,,,,,,,,,,,,,,,,,,,,,,,,,,,,,,,,,,,,,,,,,,,,,,,,,,,,,,,,,,,,,,,,,,,,,,,,,,,,,,,,,,,,,,,,,,,
0,75,75,86,1,,614d7ee6c5fa454c4a6d3fa3,62bbfb3e119f06643ccab67e,2022-06-29_09h13.56.749,Colour_Asymmetry_Pilot,2022.1.3,Win32,59.80145916,62bbe60bf3d75ef465d3e404,,,,,,,,,,,,,,,,,,,,,,,,,,,,,,,,,,,,,,,,,,,,,,,,,,,,,,,,,,,,,,,,,,,,,,,,,,,,,,,,,,,,,,,,,,,,,,,,,,,,,,,,,,,,,,,,,,,,,,,,,,,,,,,,,,,,,,,,,,,,,,,,,,,,,,,,,,,,,,
0,76,76,54,1,,614d7ee6c5fa454c4a6d3fa3,62bbfb3e119f06643ccab67e,2022-06-29_09h13.56.749,Colour_Asymmetry_Pilot,2022.1.3,Win32,59.80145916,62bbe60bf3d75ef465d3e404,,,,,,,,,,,,,,,,,,,,,,,,,,,,,,,,,,,,,,,,,,,,,,,,,,,,,,,,,,,,,,,,,,,,,,,,,,,,,,,,,,,,,,,,,,,,,,,,,,,,,,,,,,,,,,,,,,,,,,,,,,,,,,,,,,,,,,,,,,,,,,,,,,,,,,,,,,,,,,
0,77,77,88,1,,614d7ee6c5fa454c4a6d3fa3,62bbfb3e119f06643ccab67e,2022-06-29_09h13.56.749,Colour_Asymmetry_Pilot,2022.1.3,Win32,59.80145916,62bbe60bf3d75ef465d3e404,,,,,,,,,,,,,,,,,,,,,,,,,,,,,,,,,,,,,,,,,,,,,,,,,,,,,,,,,,,,,,,,,,,,,,,,,,,,,,,,,,,,,,,,,,,,,,,,,,,,,,,,,,,,,,,,,,,,,,,,,,,,,,,,,,,,,,,,,,,,,,,,,,,,,,,,,,,,,,
0,78,78,16,1,,614d7ee6c5fa454c4a6d3fa3,62bbfb3e119f06643ccab67e,2022-06-29_09h13.56.749,Colour_Asymmetry_Pilot,2022.1.3,Win32,59.80145916,62bbe60bf3d75ef465d3e404,,,,,,,,,,,,,,,,,,,,,,,,,,,,,,,,,,,,,,,,,,,,,,,,,,,,,,,,,,,,,,,,,,,,,,,,,,,,,,,,,,,,,,,,,,,,,,,,,,,,,,,,,,,,,,,,,,,,,,,,,,,,,,,,,,,,,,,,,,,,,,,,,,,,,,,,,,,,,,
0,79,79,56,1,,614d7ee6c5fa454c4a6d3fa3,62bbfb3e119f06643ccab67e,2022-06-29_09h13.56.749,Colour_Asymmetry_Pilot,2022.1.3,Win32,59.80145916,62bbe60bf3d75ef465d3e404,,,,,,,,,,,,,,,,,,,,,,,,,,,,,,,,,,,,,,,,,,,,,,,,,,,,,,,,,,,,,,,,,,,,,,,,,,,,,,,,,,,,,,,,,,,,,,,,,,,,,,,,,,,,,,,,,,,,,,,,,,,,,,,,,,,,,,,,,,,,,,,,,,,,,,,,,,,,,,
0,80,80,90,1,,614d7ee6c5fa454c4a6d3fa3,62bbfb3e119f06643ccab67e,2022-06-29_09h13.56.749,Colour_Asymmetry_Pilot,2022.1.3,Win32,59.80145916,62bbe60bf3d75ef465d3e404,,,,,,,,,,,,,,,,,,,,,,,,,,,,,,,,,,,,,,,,,,,,,,,,,,,,,,,,,,,,,,,,,,,,,,,,,,,,,,,,,,,,,,,,,,,,,,,,,,,,,,,,,,,,,,,,,,,,,,,,,,,,,,,,,,,,,,,,,,,,,,,,,,,,,,,,,,,,,,
0,81,81,13,1,,614d7ee6c5fa454c4a6d3fa3,62bbfb3e119f06643ccab67e,2022-06-29_09h13.56.749,Colour_Asymmetry_Pilot,2022.1.3,Win32,59.80145916,62bbe60bf3d75ef465d3e404,,,,,,,,,,,,,,,,,,,,,,,,,,,,,,,,,,,,,,,,,,,,,,,,,,,,,,,,,,,,,,,,,,,,,,,,,,,,,,,,,,,,,,,,,,,,,,,,,,,,,,,,,,,,,,,,,,,,,,,,,,,,,,,,,,,,,,,,,,,,,,,,,,,,,,,,,,,,,,
0,82,82,61,1,,614d7ee6c5fa454c4a6d3fa3,62bbfb3e119f06643ccab67e,2022-06-29_09h13.56.749,Colour_Asymmetry_Pilot,2022.1.3,Win32,59.80145916,62bbe60bf3d75ef465d3e404,,,,,,,,,,,,,,,,,,,,,,,,,,,,,,,,,,,,,,,,,,,,,,,,,,,,,,,,,,,,,,,,,,,,,,,,,,,,,,,,,,,,,,,,,,,,,,,,,,,,,,,,,,,,,,,,,,,,,,,,,,,,,,,,,,,,,,,,,,,,,,,,,,,,,,,,,,,,,,
0,83,83,82,1,,614d7ee6c5fa454c4a6d3fa3,62bbfb3e119f06643ccab67e,2022-06-29_09h13.56.749,Colour_Asymmetry_Pilot,2022.1.3,Win32,59.80145916,62bbe60bf3d75ef465d3e404,,,,,,,,,,,,,,,,,,,,,,,,,,,,,,,,,,,,,,,,,,,,,,,,,,,,,,,,,,,,,,,,,,,,,,,,,,,,,,,,,,,,,,,,,,,,,,,,,,,,,,,,,,,,,,,,,,,,,,,,,,,,,,,,,,,,,,,,,,,,,,,,,,,,,,,,,,,,,,
0,84,84,0,1,,614d7ee6c5fa454c4a6d3fa3,62bbfb3e119f06643ccab67e,2022-06-29_09h13.56.749,Colour_Asymmetry_Pilot,2022.1.3,Win32,59.80145916,62bbe60bf3d75ef465d3e404,,,,,,,,,,,,,,,,,,,,,,,,,,,,,,,,,,,,,,,,,,,,,,,,,,,,,,,,,,,,,,,,,,,,,,,,,,,,,,,,,,,,,,,,,,,,,,,,,,,,,,,,,,,,,,,,,,,,,,,,,,,,,,,,,,,,,,,,,,,,,,,,,,,,,,,,,,,,,,
0,85,85,58,1,,614d7ee6c5fa454c4a6d3fa3,62bbfb3e119f06643ccab67e,2022-06-29_09h13.56.749,Colour_Asymmetry_Pilot,2022.1.3,Win32,59.80145916,62bbe60bf3d75ef465d3e404,,,,,,,,,,,,,,,,,,,,,,,,,,,,,,,,,,,,,,,,,,,,,,,,,,,,,,,,,,,,,,,,,,,,,,,,,,,,,,,,,,,,,,,,,,,,,,,,,,,,,,,,,,,,,,,,,,,,,,,,,,,,,,,,,,,,,,,,,,,,,,,,,,,,,,,,,,,,,,
0,86,86,67,1,,614d7ee6c5fa454c4a6d3fa3,62bbfb3e119f06643ccab67e,2022-06-29_09h13.56.749,Colour_Asymmetry_Pilot,2022.1.3,Win32,59.80145916,62bbe60bf3d75ef465d3e404,,,,,,,,,,,,,,,,,,,,,,,,,,,,,,,,,,,,,,,,,,,,,,,,,,,,,,,,,,,,,,,,,,,,,,,,,,,,,,,,,,,,,,,,,,,,,,,,,,,,,,,,,,,,,,,,,,,,,,,,,,,,,,,,,,,,,,,,,,,,,,,,,,,,,,,,,,,,,,
0,87,87,25,1,,614d7ee6c5fa454c4a6d3fa3,62bbfb3e119f06643ccab67e,2022-06-29_09h13.56.749,Colour_Asymmetry_Pilot,2022.1.3,Win32,59.80145916,62bbe60bf3d75ef465d3e404,,,,,,,,,,,,,,,,,,,,,,,,,,,,,,,,,,,,,,,,,,,,,,,,,,,,,,,,,,,,,,,,,,,,,,,,,,,,,,,,,,,,,,,,,,,,,,,,,,,,,,,,,,,,,,,,,,,,,,,,,,,,,,,,,,,,,,,,,,,,,,,,,,,,,,,,,,,,,,
0,88,88,1,1,,614d7ee6c5fa454c4a6d3fa3,62bbfb3e119f06643ccab67e,2022-06-29_09h13.56.749,Colour_Asymmetry_Pilot,2022.1.3,Win32,59.80145916,62bbe60bf3d75ef465d3e404,,,,,,,,,,,,,,,,,,,,,,,,,,,,,,,,,,,,,,,,,,,,,,,,,,,,,,,,,,,,,,,,,,,,,,,,,,,,,,,,,,,,,,,,,,,,,,,,,,,,,,,,,,,,,,,,,,,,,,,,,,,,,,,,,,,,,,,,,,,,,,,,,,,,,,,,,,,,,,
0,89,89,6,1,,614d7ee6c5fa454c4a6d3fa3,62bbfb3e119f06643ccab67e,2022-06-29_09h13.56.749,Colour_Asymmetry_Pilot,2022.1.3,Win32,59.80145916,62bbe60bf3d75ef465d3e404,,,,,,,,,,,,,,,,,,,,,,,,,,,,,,,,,,,,,,,,,,,,,,,,,,,,,,,,,,,,,,,,,,,,,,,,,,,,,,,,,,,,,,,,,,,,,,,,,,,,,,,,,,,,,,,,,,,,,,,,,,,,,,,,,,,,,,,,,,,,,,,,,,,,,,,,,,,,,,
0,90,90,21,1,,614d7ee6c5fa454c4a6d3fa3,62bbfb3e119f06643ccab67e,2022-06-29_09h13.56.749,Colour_Asymmetry_Pilot,2022.1.3,Win32,59.80145916,62bbe60bf3d75ef465d3e404,,,,,,,,,,,,,,,,,,,,,,,,,,,,,,,,,,,,,,,,,,,,,,,,,,,,,,,,,,,,,,,,,,,,,,,,,,,,,,,,,,,,,,,,,,,,,,,,,,,,,,,,,,,,,,,,,,,,,,,,,,,,,,,,,,,,,,,,,,,,,,,,,,,,,,,,,,,,,,
0,91,91,37,1,,614d7ee6c5fa454c4a6d3fa3,62bbfb3e119f06643ccab67e,2022-06-29_09h13.56.749,Colour_Asymmetry_Pilot,2022.1.3,Win32,59.80145916,62bbe60bf3d75ef465d3e404,,,,,,,,,,,,,,,,,,,,,,,,,,,,,,,,,,,,,,,,,,,,,,,,,,,,,,,,,,,,,,,,,,,,,,,,,,,,,,,,,,,,,,,,,,,,,,,,,,,,,,,,,,,,,,,,,,,,,,,,,,,,,,,,,,,,,,,,,,,,,,,,,,,,,,,,,,,,,,
0,92,92,41,1,,614d7ee6c5fa454c4a6d3fa3,62bbfb3e119f06643ccab67e,2022-06-29_09h13.56.749,Colour_Asymmetry_Pilot,2022.1.3,Win32,59.80145916,62bbe60bf3d75ef465d3e404,,,,,,,,,,,,,,,,,,,,,,,,,,,,,,,,,,,,,,,,,,,,,,,,,,,,,,,,,,,,,,,,,,,,,,,,,,,,,,,,,,,,,,,,,,,,,,,,,,,,,,,,,,,,,,,,,,,,,,,,,,,,,,,,,,,,,,,,,,,,,,,,,,,,,,,,,,,,,,
,,,,,,614d7ee6c5fa454c4a6d3fa3,62bbfb3e119f06643ccab67e,2022-06-29_09h13.56.749,Colour_Asymmetry_Pilot,2022.1.3,Win32,59.80145916,62bbe60bf3d75ef465d3e404,0,0,0,85,1,threefour,,,,,,,,,,,,,,,,,,,,,,,,,,,,,,,,,,,,,,,,,,,,,,,,,,,,,,,,,,,,,,,,,,,,,,,,,,,,,,,,,,,,,,,,,,,,,,,,,,,,,,,,,,,,,,,,,,,,,,,,,,,,,,,,,,,,,,,,,,,,,,,,,,,,,,,,
,,,,,,614d7ee6c5fa454c4a6d3fa3,62bbfb3e119f06643ccab67e,2022-06-29_09h13.56.749,Colour_Asymmetry_Pilot,2022.1.3,Win32,59.80145916,62bbe60bf3d75ef465d3e404,0,1,1,34,1,twoone,,,,,,,,,,,,,,,,,,,,,,,,,,,,,,,,,,,,,,,,,,,,,,,,,,,,,,,,,,,,,,,,,,,,,,,,,,,,,,,,,,,,,,,,,,,,,,,,,,,,,,,,,,,,,,,,,,,,,,,,,,,,,,,,,,,,,,,,,,,,,,,,,,,,,,,,
,,,,,,614d7ee6c5fa454c4a6d3fa3,62bbfb3e119f06643ccab67e,2022-06-29_09h13.56.749,Colour_Asymmetry_Pilot,2022.1.3,Win32,59.80145916,62bbe60bf3d75ef465d3e404,0,2,2,152,1,onetwo,,,,,,,,,,,,,,,,,,,,,,,,,,,,,,,,,,,,,,,,,,,,,,,,,,,,,,,,,,,,,,,,,,,,,,,,,,,,,,,,,,,,,,,,,,,,,,,,,,,,,,,,,,,,,,,,,,,,,,,,,,,,,,,,,,,,,,,,,,,,,,,,,,,,,,,,
,,,,,,614d7ee6c5fa454c4a6d3fa3,62bbfb3e119f06643ccab67e,2022-06-29_09h13.56.749,Colour_Asymmetry_Pilot,2022.1.3,Win32,59.80145916,62bbe60bf3d75ef465d3e404,0,3,3,52,1,threeone,,,,,,,,,,,,,,,,,,,,,,,,,,,,,,,,,,,,,,,,,,,,,,,,,,,,,,,,,,,,,,,,,,,,,,,,,,,,,,,,,,,,,,,,,,,,,,,,,,,,,,,,,,,,,,,,,,,,,,,,,,,,,,,,,,,,,,,,,,,,,,,,,,,,,,,,
,,,,,,614d7ee6c5fa454c4a6d3fa3,62bbfb3e119f06643ccab67e,2022-06-29_09h13.56.749,Colour_Asymmetry_Pilot,2022.1.3,Win32,59.80145916,62bbe60bf3d75ef465d3e404,0,4,4,147,1,twofour,,,,,,,,,,,,,,,,,,,,,,,,,,,,,,,,,,,,,,,,,,,,,,,,,,,,,,,,,,,,,,,,,,,,,,,,,,,,,,,,,,,,,,,,,,,,,,,,,,,,,,,,,,,,,,,,,,,,,,,,,,,,,,,,,,,,,,,,,,,,,,,,,,,,,,,,
,,,,,,614d7ee6c5fa454c4a6d3fa3,62bbfb3e119f06643ccab67e,2022-06-29_09h13.56.749,Colour_Asymmetry_Pilot,2022.1.3,Win32,59.80145916,62bbe60bf3d75ef465d3e404,0,5,5,111,1,fourthree,,,,,,,,,,,,,,,,,,,,,,,,,,,,,,,,,,,,,,,,,,,,,,,,,,,,,,,,,,,,,,,,,,,,,,,,,,,,,,,,,,,,,,,,,,,,,,,,,,,,,,,,,,,,,,,,,,,,,,,,,,,,,,,,,,,,,,,,,,,,,,,,,,,,,,,,
,,,,,,614d7ee6c5fa454c4a6d3fa3,62bbfb3e119f06643ccab67e,2022-06-29_09h13.56.749,Colour_Asymmetry_Pilot,2022.1.3,Win32,59.80145916,62bbe60bf3d75ef465d3e404,0,6,6,30,1,fourtwo,,,,,,,,,,,,,,,,,,,,,,,,,,,,,,,,,,,,,,,,,,,,,,,,,,,,,,,,,,,,,,,,,,,,,,,,,,,,,,,,,,,,,,,,,,,,,,,,,,,,,,,,,,,,,,,,,,,,,,,,,,,,,,,,,,,,,,,,,,,,,,,,,,,,,,,,
,,,,,,614d7ee6c5fa454c4a6d3fa3,62bbfb3e119f06643ccab67e,2022-06-29_09h13.56.749,Colour_Asymmetry_Pilot,2022.1.3,Win32,59.80145916,62bbe60bf3d75ef465d3e404,0,7,7,66,1,twoone,,,,,,,,,,,,,,,,,,,,,,,,,,,,,,,,,,,,,,,,,,,,,,,,,,,,,,,,,,,,,,,,,,,,,,,,,,,,,,,,,,,,,,,,,,,,,,,,,,,,,,,,,,,,,,,,,,,,,,,,,,,,,,,,,,,,,,,,,,,,,,,,,,,,,,,,
,,,,,,614d7ee6c5fa454c4a6d3fa3,62bbfb3e119f06643ccab67e,2022-06-29_09h13.56.749,Colour_Asymmetry_Pilot,2022.1.3,Win32,59.80145916,62bbe60bf3d75ef465d3e404,0,8,8,12,1,threeone,,,,,,,,,,,,,,,,,,,,,,,,,,,,,,,,,,,,,,,,,,,,,,,,,,,,,,,,,,,,,,,,,,,,,,,,,,,,,,,,,,,,,,,,,,,,,,,,,,,,,,,,,,,,,,,,,,,,,,,,,,,,,,,,,,,,,,,,,,,,,,,,,,,,,,,,
,,,,,,614d7ee6c5fa454c4a6d3fa3,62bbfb3e119f06643ccab67e,2022-06-29_09h13.56.749,Colour_Asymmetry_Pilot,2022.1.3,Win32,59.80145916,62bbe60bf3d75ef465d3e404,0,9,9,65,1,onethree,,,,,,,,,,,,,,,,,,,,,,,,,,,,,,,,,,,,,,,,,,,,,,,,,,,,,,,,,,,,,,,,,,,,,,,,,,,,,,,,,,,,,,,,,,,,,,,,,,,,,,,,,,,,,,,,,,,,,,,,,,,,,,,,,,,,,,,,,,,,,,,,,,,,,,,,
,,,,,,614d7ee6c5fa454c4a6d3fa3,62bbfb3e119f06643ccab67e,2022-06-29_09h13.56.749,Colour_Asymmetry_Pilot,2022.1.3,Win32,59.80145916,62bbe60bf3d75ef465d3e404,0,10,10,112,1,onetwo,,,,,,,,,,,,,,,,,,,,,,,,,,,,,,,,,,,,,,,,,,,,,,,,,,,,,,,,,,,,,,,,,,,,,,,,,,,,,,,,,,,,,,,,,,,,,,,,,,,,,,,,,,,,,,,,,,,,,,,,,,,,,,,,,,,,,,,,,,,,,,,,,,,,,,,,
,,,,,,614d7ee6c5fa454c4a6d3fa3,62bbfb3e119f06643ccab67e,2022-06-29_09h13.56.749,Colour_Asymmetry_Pilot,2022.1.3,Win32,59.80145916,62bbe60bf3d75ef465d3e404,0,11,11,142,1,fourtwo,,,,,,,,,,,,,,,,,,,,,,,,,,,,,,,,,,,,,,,,,,,,,,,,,,,,,,,,,,,,,,,,,,,,,,,,,,,,,,,,,,,,,,,,,,,,,,,,,,,,,,,,,,,,,,,,,,,,,,,,,,,,,,,,,,,,,,,,,,,,,,,,,,,,,,,,
,,,,,,614d7ee6c5fa454c4a6d3fa3,62bbfb3e119f06643ccab67e,2022-06-29_09h13.56.749,Colour_Asymmetry_Pilot,2022.1.3,Win32,59.80145916,62bbe60bf3d75ef465d3e404,0,12,12,93,1,threefour,,,,,,,,,,,,,,,,,,,,,,,,,,,,,,,,,,,,,,,,,,,,,,,,,,,,,,,,,,,,,,,,,,,,,,,,,,,,,,,,,,,,,,,,,,,,,,,,,,,,,,,,,,,,,,,,,,,,,,,,,,,,,,,,,,,,,,,,,,,,,,,,,,,,,,,,
,,,,,,614d7ee6c5fa454c4a6d3fa3,62bbfb3e119f06643ccab67e,2022-06-29_09h13.56.749,Colour_Asymmetry_Pilot,2022.1.3,Win32,59.80145916,62bbe60bf3d75ef465d3e404,0,13,13,158,1,fourtwo,,,,,,,,,,,,,,,,,,,,,,,,,,,,,,,,,,,,,,,,,,,,,,,,,,,,,,,,,,,,,,,,,,,,,,,,,,,,,,,,,,,,,,,,,,,,,,,,,,,,,,,,,,,,,,,,,,,,,,,,,,,,,,,,,,,,,,,,,,,,,,,,,,,,,,,,
,,,,,,614d7ee6c5fa454c4a6d3fa3,62bbfb3e119f06643ccab67e,2022-06-29_09h13.56.749,Colour_Asymmetry_Pilot,2022.1.3,Win32,59.80145916,62bbe60bf3d75ef465d3e404,0,14,14,81,1,onethree,,,,,,,,,,,,,,,,,,,,,,,,,,,,,,,,,,,,,,,,,,,,,,,,,,,,,,,,,,,,,,,,,,,,,,,,,,,,,,,,,,,,,,,,,,,,,,,,,,,,,,,,,,,,,,,,,,,,,,,,,,,,,,,,,,,,,,,,,,,,,,,,,,,,,,,,
,,,,,,614d7ee6c5fa454c4a6d3fa3,62bbfb3e119f06643ccab67e,2022-06-29_09h13.56.749,Colour_Asymmetry_Pilot,2022.1.3,Win32,59.80145916,62bbe60bf3d75ef465d3e404,0,15,15,77,1,threefour,,,,,,,,,,,,,,,,,,,,,,,,,,,,,,,,,,,,,,,,,,,,,,,,,,,,,,,,,,,,,,,,,,,,,,,,,,,,,,,,,,,,,,,,,,,,,,,,,,,,,,,,,,,,,,,,,,,,,,,,,,,,,,,,,,,,,,,,,,,,,,,,,,,,,,,,
,,,,,,614d7ee6c5fa454c4a6d3fa3,62bbfb3e119f06643ccab67e,2022-06-29_09h13.56.749,Colour_Asymmetry_Pilot,2022.1.3,Win32,59.80145916,62bbe60bf3d75ef465d3e404,0,16,16,89,1,onethree,,,,,,,,,,,,,,,,,,,,,,,,,,,,,,,,,,,,,,,,,,,,,,,,,,,,,,,,,,,,,,,,,,,,,,,,,,,,,,,,,,,,,,,,,,,,,,,,,,,,,,,,,,,,,,,,,,,,,,,,,,,,,,,,,,,,,,,,,,,,,,,,,,,,,,,,
,,,,,,614d7ee6c5fa454c4a6d3fa3,62bbfb3e119f06643ccab67e,2022-06-29_09h13.56.749,Colour_Asymmetry_Pilot,2022.1.3,Win32,59.80145916,62bbe60bf3d75ef465d3e404,0,17,17,23,1,fourthree,,,,,,,,,,,,,,,,,,,,,,,,,,,,,,,,,,,,,,,,,,,,,,,,,,,,,,,,,,,,,,,,,,,,,,,,,,,,,,,,,,,,,,,,,,,,,,,,,,,,,,,,,,,,,,,,,,,,,,,,,,,,,,,,,,,,,,,,,,,,,,,,,,,,,,,,
,,,,,,614d7ee6c5fa454c4a6d3fa3,62bbfb3e119f06643ccab67e,2022-06-29_09h13.56.749,Colour_Asymmetry_Pilot,2022.1.3,Win32,59.80145916,62bbe60bf3d75ef465d3e404,0,18,18,98,1,twoone,,,,,,,,,,,,,,,,,,,,,,,,,,,,,,,,,,,,,,,,,,,,,,,,,,,,,,,,,,,,,,,,,,,,,,,,,,,,,,,,,,,,,,,,,,,,,,,,,,,,,,,,,,,,,,,,,,,,,,,,,,,,,,,,,,,,,,,,,,,,,,,,,,,,,,,,
,,,,,,614d7ee6c5fa454c4a6d3fa3,62bbfb3e119f06643ccab67e,2022-06-29_09h13.56.749,Colour_Asymmetry_Pilot,2022.1.3,Win32,59.80145916,62bbe60bf3d75ef465d3e404,0,19,19,116,1,threeone,,,,,,,,,,,,,,,,,,,,,,,,,,,,,,,,,,,,,,,,,,,,,,,,,,,,,,,,,,,,,,,,,,,,,,,,,,,,,,,,,,,,,,,,,,,,,,,,,,,,,,,,,,,,,,,,,,,,,,,,,,,,,,,,,,,,,,,,,,,,,,,,,,,,,,,,
,,,,,,614d7ee6c5fa454c4a6d3fa3,62bbfb3e119f06643ccab67e,2022-06-29_09h13.56.749,Colour_Asymmetry_Pilot,2022.1.3,Win32,59.80145916,62bbe60bf3d75ef465d3e404,0,20,20,94,1,fourtwo,,,,,,,,,,,,,,,,,,,,,,,,,,,,,,,,,,,,,,,,,,,,,,,,,,,,,,,,,,,,,,,,,,,,,,,,,,,,,,,,,,,,,,,,,,,,,,,,,,,,,,,,,,,,,,,,,,,,,,,,,,,,,,,,,,,,,,,,,,,,,,,,,,,,,,,,
,,,,,,614d7ee6c5fa454c4a6d3fa3,62bbfb3e119f06643ccab67e,2022-06-29_09h13.56.749,Colour_Asymmetry_Pilot,2022.1.3,Win32,59.80145916,62bbe60bf3d75ef465d3e404,0,21,21,70,1,fourtwo,,,,,,,,,,,,,,,,,,,,,,,,,,,,,,,,,,,,,,,,,,,,,,,,,,,,,,,,,,,,,,,,,,,,,,,,,,,,,,,,,,,,,,,,,,,,,,,,,,,,,,,,,,,,,,,,,,,,,,,,,,,,,,,,,,,,,,,,,,,,,,,,,,,,,,,,
,,,,,,614d7ee6c5fa454c4a6d3fa3,62bbfb3e119f06643ccab67e,2022-06-29_09h13.56.749,Colour_Asymmetry_Pilot,2022.1.3,Win32,59.80145916,62bbe60bf3d75ef465d3e404,0,22,22,67,1,twofour,,,,,,,,,,,,,,,,,,,,,,,,,,,,,,,,,,,,,,,,,,,,,,,,,,,,,,,,,,,,,,,,,,,,,,,,,,,,,,,,,,,,,,,,,,,,,,,,,,,,,,,,,,,,,,,,,,,,,,,,,,,,,,,,,,,,,,,,,,,,,,,,,,,,,,,,
,,,,,,614d7ee6c5fa454c4a6d3fa3,62bbfb3e119f06643ccab67e,2022-06-29_09h13.56.749,Colour_Asymmetry_Pilot,2022.1.3,Win32,59.80145916,62bbe60bf3d75ef465d3e404,0,23,23,138,1,twoone,,,,,,,,,,,,,,,,,,,,,,,,,,,,,,,,,,,,,,,,,,,,,,,,,,,,,,,,,,,,,,,,,,,,,,,,,,,,,,,,,,,,,,,,,,,,,,,,,,,,,,,,,,,,,,,,,,,,,,,,,,,,,,,,,,,,,,,,,,,,,,,,,,,,,,,,
,,,,,,614d7ee6c5fa454c4a6d3fa3,62bbfb3e119f06643ccab67e,2022-06-29_09h13.56.749,Colour_Asymmetry_Pilot,2022.1.3,Win32,59.80145916,62bbe60bf3d75ef465d3e404,0,24,24,151,1,fourthree,,,,,,,,,,,,,,,,,,,,,,,,,,,,,,,,,,,,,,,,,,,,,,,,,,,,,,,,,,,,,,,,,,,,,,,,,,,,,,,,,,,,,,,,,,,,,,,,,,,,,,,,,,,,,,,,,,,,,,,,,,,,,,,,,,,,,,,,,,,,,,,,,,,,,,,,
,,,,,,614d7ee6c5fa454c4a6d3fa3,62bbfb3e119f06643ccab67e,2022-06-29_09h13.56.749,Colour_Asymmetry_Pilot,2022.1.3,Win32,59.80145916,62bbe60bf3d75ef465d3e404,0,25,25,135,1,fourthree,,,,,,,,,,,,,,,,,,,,,,,,,,,,,,,,,,,,,,,,,,,,,,,,,,,,,,,,,,,,,,,,,,,,,,,,,,,,,,,,,,,,,,,,,,,,,,,,,,,,,,,,,,,,,,,,,,,,,,,,,,,,,,,,,,,,,,,,,,,,,,,,,,,,,,,,
,,,,,,614d7ee6c5fa454c4a6d3fa3,62bbfb3e119f06643ccab67e,2022-06-29_09h13.56.749,Colour_Asymmetry_Pilot,2022.1.3,Win32,59.80145916,62bbe60bf3d75ef465d3e404,0,26,26,46,1,fourtwo,,,,,,,,,,,,,,,,,,,,,,,,,,,,,,,,,,,,,,,,,,,,,,,,,,,,,,,,,,,,,,,,,,,,,,,,,,,,,,,,,,,,,,,,,,,,,,,,,,,,,,,,,,,,,,,,,,,,,,,,,,,,,,,,,,,,,,,,,,,,,,,,,,,,,,,,
,,,,,,614d7ee6c5fa454c4a6d3fa3,62bbfb3e119f06643ccab67e,2022-06-29_09h13.56.749,Colour_Asymmetry_Pilot,2022.1.3,Win32,59.80145916,62bbe60bf3d75ef465d3e404,0,27,27,127,1,fourthree,,,,,,,,,,,,,,,,,,,,,,,,,,,,,,,,,,,,,,,,,,,,,,,,,,,,,,,,,,,,,,,,,,,,,,,,,,,,,,,,,,,,,,,,,,,,,,,,,,,,,,,,,,,,,,,,,,,,,,,,,,,,,,,,,,,,,,,,,,,,,,,,,,,,,,,,
,,,,,,614d7ee6c5fa454c4a6d3fa3,62bbfb3e119f06643ccab67e,2022-06-29_09h13.56.749,Colour_Asymmetry_Pilot,2022.1.3,Win32,59.80145916,62bbe60bf3d75ef465d3e404,0,28,28,124,1,threeone,,,,,,,,,,,,,,,,,,,,,,,,,,,,,,,,,,,,,,,,,,,,,,,,,,,,,,,,,,,,,,,,,,,,,,,,,,,,,,,,,,,,,,,,,,,,,,,,,,,,,,,,,,,,,,,,,,,,,,,,,,,,,,,,,,,,,,,,,,,,,,,,,,,,,,,,
,,,,,,614d7ee6c5fa454c4a6d3fa3,62bbfb3e119f06643ccab67e,2022-06-29_09h13.56.749,Colour_Asymmetry_Pilot,2022.1.3,Win32,59.80145916,62bbe60bf3d75ef465d3e404,0,29,29,141,1,threefour,,,,,,,,,,,,,,,,,,,,,,,,,,,,,,,,,,,,,,,,,,,,,,,,,,,,,,,,,,,,,,,,,,,,,,,,,,,,,,,,,,,,,,,,,,,,,,,,,,,,,,,,,,,,,,,,,,,,,,,,,,,,,,,,,,,,,,,,,,,,,,,,,,,,,,,,
,,,,,,614d7ee6c5fa454c4a6d3fa3,62bbfb3e119f06643ccab67e,2022-06-29_09h13.56.749,Colour_Asymmetry_Pilot,2022.1.3,Win32,59.80145916,62bbe60bf3d75ef465d3e404,0,30,30,38,1,fourtwo,,,,,,,,,,,,,,,,,,,,,,,,,,,,,,,,,,,,,,,,,,,,,,,,,,,,,,,,,,,,,,,,,,,,,,,,,,,,,,,,,,,,,,,,,,,,,,,,,,,,,,,,,,,,,,,,,,,,,,,,,,,,,,,,,,,,,,,,,,,,,,,,,,,,,,,,
,,,,,,614d7ee6c5fa454c4a6d3fa3,62bbfb3e119f06643ccab67e,2022-06-29_09h13.56.749,Colour_Asymmetry_Pilot,2022.1.3,Win32,59.80145916,62bbe60bf3d75ef465d3e404,0,31,31,31,1,fourthree,,,,,,,,,,,,,,,,,,,,,,,,,,,,,,,,,,,,,,,,,,,,,,,,,,,,,,,,,,,,,,,,,,,,,,,,,,,,,,,,,,,,,,,,,,,,,,,,,,,,,,,,,,,,,,,,,,,,,,,,,,,,,,,,,,,,,,,,,,,,,,,,,,,,,,,,
,,,,,,614d7ee6c5fa454c4a6d3fa3,62bbfb3e119f06643ccab67e,2022-06-29_09h13.56.749,Colour_Asymmetry_Pilot,2022.1.3,Win32,59.80145916,62bbe60bf3d75ef465d3e404,0,32,32,146,1,twoone,,,,,,,,,,,,,,,,,,,,,,,,,,,,,,,,,,,,,,,,,,,,,,,,,,,,,,,,,,,,,,,,,,,,,,,,,,,,,,,,,,,,,,,,,,,,,,,,,,,,,,,,,,,,,,,,,,,,,,,,,,,,,,,,,,,,,,,,,,,,,,,,,,,,,,,,
,,,,,,614d7ee6c5fa454c4a6d3fa3,62bbfb3e119f06643ccab67e,2022-06-29_09h13.56.749,Colour_Asymmetry_Pilot,2022.1.3,Win32,59.80145916,62bbe60bf3d75ef465d3e404,0,33,33,102,1,fourtwo,,,,,,,,,,,,,,,,,,,,,,,,,,,,,,,,,,,,,,,,,,,,,,,,,,,,,,,,,,,,,,,,,,,,,,,,,,,,,,,,,,,,,,,,,,,,,,,,,,,,,,,,,,,,,,,,,,,,,,,,,,,,,,,,,,,,,,,,,,,,,,,,,,,,,,,,
,,,,,,614d7ee6c5fa454c4a6d3fa3,62bbfb3e119f06643ccab67e,2022-06-29_09h13.56.749,Colour_Asymmetry_Pilot,2022.1.3,Win32,59.80145916,62bbe60bf3d75ef465d3e404,0,34,34,97,1,onethree,,,,,,,,,,,,,,,,,,,,,,,,,,,,,,,,,,,,,,,,,,,,,,,,,,,,,,,,,,,,,,,,,,,,,,,,,,,,,,,,,,,,,,,,,,,,,,,,,,,,,,,,,,,,,,,,,,,,,,,,,,,,,,,,,,,,,,,,,,,,,,,,,,,,,,,,
,,,,,,614d7ee6c5fa454c4a6d3fa3,62bbfb3e119f06643ccab67e,2022-06-29_09h13.56.749,Colour_Asymmetry_Pilot,2022.1.3,Win32,59.80145916,62bbe60bf3d75ef465d3e404,0,35,35,25,1,onethree,,,,,,,,,,,,,,,,,,,,,,,,,,,,,,,,,,,,,,,,,,,,,,,,,,,,,,,,,,,,,,,,,,,,,,,,,,,,,,,,,,,,,,,,,,,,,,,,,,,,,,,,,,,,,,,,,,,,,,,,,,,,,,,,,,,,,,,,,,,,,,,,,,,,,,,,
,,,,,,614d7ee6c5fa454c4a6d3fa3,62bbfb3e119f06643ccab67e,2022-06-29_09h13.56.749,Colour_Asymmetry_Pilot,2022.1.3,Win32,59.80145916,62bbe60bf3d75ef465d3e404,0,36,36,4,1,threeone,,,,,,,,,,,,,,,,,,,,,,,,,,,,,,,,,,,,,,,,,,,,,,,,,,,,,,,,,,,,,,,,,,,,,,,,,,,,,,,,,,,,,,,,,,,,,,,,,,,,,,,,,,,,,,,,,,,,,,,,,,,,,,,,,,,,,,,,,,,,,,,,,,,,,,,,
,,,,,,614d7ee6c5fa454c4a6d3fa3,62bbfb3e119f06643ccab67e,2022-06-29_09h13.56.749,Colour_Asymmetry_Pilot,2022.1.3,Win32,59.80145916,62bbe60bf3d75ef465d3e404,0,37,37,83,1,twofour,,,,,,,,,,,,,,,,,,,,,,,,,,,,,,,,,,,,,,,,,,,,,,,,,,,,,,,,,,,,,,,,,,,,,,,,,,,,,,,,,,,,,,,,,,,,,,,,,,,,,,,,,,,,,,,,,,,,,,,,,,,,,,,,,,,,,,,,,,,,,,,,,,,,,,,,
,,,,,,614d7ee6c5fa454c4a6d3fa3,62bbfb3e119f06643ccab67e,2022-06-29_09h13.56.749,Colour_Asymmetry_Pilot,2022.1.3,Win32,59.80145916,62bbe60bf3d75ef465d3e404,0,38,38,136,1,onetwo,,,,,,,,,,,,,,,,,,,,,,,,,,,,,,,,,,,,,,,,,,,,,,,,,,,,,,,,,,,,,,,,,,,,,,,,,,,,,,,,,,,,,,,,,,,,,,,,,,,,,,,,,,,,,,,,,,,,,,,,,,,,,,,,,,,,,,,,,,,,,,,,,,,,,,,,
,,,,,,614d7ee6c5fa454c4a6d3fa3,62bbfb3e119f06643ccab67e,2022-06-29_09h13.56.749,Colour_Asymmetry_Pilot,2022.1.3,Win32,59.80145916,62bbe60bf3d75ef465d3e404,0,39,39,148,1,threeone,,,,,,,,,,,,,,,,,,,,,,,,,,,,,,,,,,,,,,,,,,,,,,,,,,,,,,,,,,,,,,,,,,,,,,,,,,,,,,,,,,,,,,,,,,,,,,,,,,,,,,,,,,,,,,,,,,,,,,,,,,,,,,,,,,,,,,,,,,,,,,,,,,,,,,,,
,,,,,,614d7ee6c5fa454c4a6d3fa3,62bbfb3e119f06643ccab67e,2022-06-29_09h13.56.749,Colour_Asymmetry_Pilot,2022.1.3,Win32,59.80145916,62bbe60bf3d75ef465d3e404,0,40,40,7,1,fourthree,,,,,,,,,,,,,,,,,,,,,,,,,,,,,,,,,,,,,,,,,,,,,,,,,,,,,,,,,,,,,,,,,,,,,,,,,,,,,,,,,,,,,,,,,,,,,,,,,,,,,,,,,,,,,,,,,,,,,,,,,,,,,,,,,,,,,,,,,,,,,,,,,,,,,,,,
,,,,,,614d7ee6c5fa454c4a6d3fa3,62bbfb3e119f06643ccab67e,2022-06-29_09h13.56.749,Colour_Asymmetry_Pilot,2022.1.3,Win32,59.80145916,62bbe60bf3d75ef465d3e404,0,41,41,21,1,threefour,,,,,,,,,,,,,,,,,,,,,,,,,,,,,,,,,,,,,,,,,,,,,,,,,,,,,,,,,,,,,,,,,,,,,,,,,,,,,,,,,,,,,,,,,,,,,,,,,,,,,,,,,,,,,,,,,,,,,,,,,,,,,,,,,,,,,,,,,,,,,,,,,,,,,,,,
,,,,,,614d7ee6c5fa454c4a6d3fa3,62bbfb3e119f06643ccab67e,2022-06-29_09h13.56.749,Colour_Asymmetry_Pilot,2022.1.3,Win32,59.80145916,62bbe60bf3d75ef465d3e404,0,42,42,53,1,threefour,,,,,,,,,,,,,,,,,,,,,,,,,,,,,,,,,,,,,,,,,,,,,,,,,,,,,,,,,,,,,,,,,,,,,,,,,,,,,,,,,,,,,,,,,,,,,,,,,,,,,,,,,,,,,,,,,,,,,,,,,,,,,,,,,,,,,,,,,,,,,,,,,,,,,,,,
,,,,,,614d7ee6c5fa454c4a6d3fa3,62bbfb3e119f06643ccab67e,2022-06-29_09h13.56.749,Colour_Asymmetry_Pilot,2022.1.3,Win32,59.80145916,62bbe60bf3d75ef465d3e404,0,43,43,160,1,onetwo,,,,,,,,,,,,,,,,,,,,,,,,,,,,,,,,,,,,,,,,,,,,,,,,,,,,,,,,,,,,,,,,,,,,,,,,,,,,,,,,,,,,,,,,,,,,,,,,,,,,,,,,,,,,,,,,,,,,,,,,,,,,,,,,,,,,,,,,,,,,,,,,,,,,,,,,
,,,,,,614d7ee6c5fa454c4a6d3fa3,62bbfb3e119f06643ccab67e,2022-06-29_09h13.56.749,Colour_Asymmetry_Pilot,2022.1.3,Win32,59.80145916,62bbe60bf3d75ef465d3e404,0,44,44,55,1,fourthree,,,,,,,,,,,,,,,,,,,,,,,,,,,,,,,,,,,,,,,,,,,,,,,,,,,,,,,,,,,,,,,,,,,,,,,,,,,,,,,,,,,,,,,,,,,,,,,,,,,,,,,,,,,,,,,,,,,,,,,,,,,,,,,,,,,,,,,,,,,,,,,,,,,,,,,,
,,,,,,614d7ee6c5fa454c4a6d3fa3,62bbfb3e119f06643ccab67e,2022-06-29_09h13.56.749,Colour_Asymmetry_Pilot,2022.1.3,Win32,59.80145916,62bbe60bf3d75ef465d3e404,0,45,45,90,1,twoone,,,,,,,,,,,,,,,,,,,,,,,,,,,,,,,,,,,,,,,,,,,,,,,,,,,,,,,,,,,,,,,,,,,,,,,,,,,,,,,,,,,,,,,,,,,,,,,,,,,,,,,,,,,,,,,,,,,,,,,,,,,,,,,,,,,,,,,,,,,,,,,,,,,,,,,,
,,,,,,614d7ee6c5fa454c4a6d3fa3,62bbfb3e119f06643ccab67e,2022-06-29_09h13.56.749,Colour_Asymmetry_Pilot,2022.1.3,Win32,59.80145916,62bbe60bf3d75ef465d3e404,0,46,46,115,1,twofour,,,,,,,,,,,,,,,,,,,,,,,,,,,,,,,,,,,,,,,,,,,,,,,,,,,,,,,,,,,,,,,,,,,,,,,,,,,,,,,,,,,,,,,,,,,,,,,,,,,,,,,,,,,,,,,,,,,,,,,,,,,,,,,,,,,,,,,,,,,,,,,,,,,,,,,,
,,,,,,614d7ee6c5fa454c4a6d3fa3,62bbfb3e119f06643ccab67e,2022-06-29_09h13.56.749,Colour_Asymmetry_Pilot,2022.1.3,Win32,59.80145916,62bbe60bf3d75ef465d3e404,0,47,47,139,1,twofour,,,,,,,,,,,,,,,,,,,,,,,,,,,,,,,,,,,,,,,,,,,,,,,,,,,,,,,,,,,,,,,,,,,,,,,,,,,,,,,,,,,,,,,,,,,,,,,,,,,,,,,,,,,,,,,,,,,,,,,,,,,,,,,,,,,,,,,,,,,,,,,,,,,,,,,,
,,,,,,614d7ee6c5fa454c4a6d3fa3,62bbfb3e119f06643ccab67e,2022-06-29_09h13.56.749,Colour_Asymmetry_Pilot,2022.1.3,Win32,59.80145916,62bbe60bf3d75ef465d3e404,0,48,48,131,1,twofour,,,,,,,,,,,,,,,,,,,,,,,,,,,,,,,,,,,,,,,,,,,,,,,,,,,,,,,,,,,,,,,,,,,,,,,,,,,,,,,,,,,,,,,,,,,,,,,,,,,,,,,,,,,,,,,,,,,,,,,,,,,,,,,,,,,,,,,,,,,,,,,,,,,,,,,,
,,,,,,614d7ee6c5fa454c4a6d3fa3,62bbfb3e119f06643ccab67e,2022-06-29_09h13.56.749,Colour_Asymmetry_Pilot,2022.1.3,Win32,59.80145916,62bbe60bf3d75ef465d3e404,0,49,49,157,1,threefour,,,,,,,,,,,,,,,,,,,,,,,,,,,,,,,,,,,,,,,,,,,,,,,,,,,,,,,,,,,,,,,,,,,,,,,,,,,,,,,,,,,,,,,,,,,,,,,,,,,,,,,,,,,,,,,,,,,,,,,,,,,,,,,,,,,,,,,,,,,,,,,,,,,,,,,,
,,,,,,614d7ee6c5fa454c4a6d3fa3,62bbfb3e119f06643ccab67e,2022-06-29_09h13.56.749,Colour_Asymmetry_Pilot,2022.1.3,Win32,59.80145916,62bbe60bf3d75ef465d3e404,0,50,50,33,1,onethree,,,,,,,,,,,,,,,,,,,,,,,,,,,,,,,,,,,,,,,,,,,,,,,,,,,,,,,,,,,,,,,,,,,,,,,,,,,,,,,,,,,,,,,,,,,,,,,,,,,,,,,,,,,,,,,,,,,,,,,,,,,,,,,,,,,,,,,,,,,,,,,,,,,,,,,,
,,,,,,614d7ee6c5fa454c4a6d3fa3,62bbfb3e119f06643ccab67e,2022-06-29_09h13.56.749,Colour_Asymmetry_Pilot,2022.1.3,Win32,59.80145916,62bbe60bf3d75ef465d3e404,0,51,51,19,1,twofour,,,,,,,,,,,,,,,,,,,,,,,,,,,,,,,,,,,,,,,,,,,,,,,,,,,,,,,,,,,,,,,,,,,,,,,,,,,,,,,,,,,,,,,,,,,,,,,,,,,,,,,,,,,,,,,,,,,,,,,,,,,,,,,,,,,,,,,,,,,,,,,,,,,,,,,,
,,,,,,614d7ee6c5fa454c4a6d3fa3,62bbfb3e119f06643ccab67e,2022-06-29_09h13.56.749,Colour_Asymmetry_Pilot,2022.1.3,Win32,59.80145916,62bbe60bf3d75ef465d3e404,0,52,52,103,1,fourthree,,,,,,,,,,,,,,,,,,,,,,,,,,,,,,,,,,,,,,,,,,,,,,,,,,,,,,,,,,,,,,,,,,,,,,,,,,,,,,,,,,,,,,,,,,,,,,,,,,,,,,,,,,,,,,,,,,,,,,,,,,,,,,,,,,,,,,,,,,,,,,,,,,,,,,,,
,,,,,,614d7ee6c5fa454c4a6d3fa3,62bbfb3e119f06643ccab67e,2022-06-29_09h13.56.749,Colour_Asymmetry_Pilot,2022.1.3,Win32,59.80145916,62bbe60bf3d75ef465d3e404,0,53,53,108,1,threeone,,,,,,,,,,,,,,,,,,,,,,,,,,,,,,,,,,,,,,,,,,,,,,,,,,,,,,,,,,,,,,,,,,,,,,,,,,,,,,,,,,,,,,,,,,,,,,,,,,,,,,,,,,,,,,,,,,,,,,,,,,,,,,,,,,,,,,,,,,,,,,,,,,,,,,,,
,,,,,,614d7ee6c5fa454c4a6d3fa3,62bbfb3e119f06643ccab67e,2022-06-29_09h13.56.749,Colour_Asymmetry_Pilot,2022.1.3,Win32,59.80145916,62bbe60bf3d75ef465d3e404,0,54,54,58,1,twoone,,,,,,,,,,,,,,,,,,,,,,,,,,,,,,,,,,,,,,,,,,,,,,,,,,,,,,,,,,,,,,,,,,,,,,,,,,,,,,,,,,,,,,,,,,,,,,,,,,,,,,,,,,,,,,,,,,,,,,,,,,,,,,,,,,,,,,,,,,,,,,,,,,,,,,,,
,,,,,,614d7ee6c5fa454c4a6d3fa3,62bbfb3e119f06643ccab67e,2022-06-29_09h13.56.749,Colour_Asymmetry_Pilot,2022.1.3,Win32,59.80145916,62bbe60bf3d75ef465d3e404,0,55,55,82,1,twoone,,,,,,,,,,,,,,,,,,,,,,,,,,,,,,,,,,,,,,,,,,,,,,,,,,,,,,,,,,,,,,,,,,,,,,,,,,,,,,,,,,,,,,,,,,,,,,,,,,,,,,,,,,,,,,,,,,,,,,,,,,,,,,,,,,,,,,,,,,,,,,,,,,,,,,,,
,,,,,,614d7ee6c5fa454c4a6d3fa3,62bbfb3e119f06643ccab67e,2022-06-29_09h13.56.749,Colour_Asymmetry_Pilot,2022.1.3,Win32,59.80145916,62bbe60bf3d75ef465d3e404,0,56,56,6,1,fourtwo,,,,,,,,,,,,,,,,,,,,,,,,,,,,,,,,,,,,,,,,,,,,,,,,,,,,,,,,,,,,,,,,,,,,,,,,,,,,,,,,,,,,,,,,,,,,,,,,,,,,,,,,,,,,,,,,,,,,,,,,,,,,,,,,,,,,,,,,,,,,,,,,,,,,,,,,
,,,,,,614d7ee6c5fa454c4a6d3fa3,62bbfb3e119f06643ccab67e,2022-06-29_09h13.56.749,Colour_Asymmetry_Pilot,2022.1.3,Win32,59.80145916,62bbe60bf3d75ef465d3e404,0,57,57,68,1,threeone,,,,,,,,,,,,,,,,,,,,,,,,,,,,,,,,,,,,,,,,,,,,,,,,,,,,,,,,,,,,,,,,,,,,,,,,,,,,,,,,,,,,,,,,,,,,,,,,,,,,,,,,,,,,,,,,,,,,,,,,,,,,,,,,,,,,,,,,,,,,,,,,,,,,,,,,
,,,,,,614d7ee6c5fa454c4a6d3fa3,62bbfb3e119f06643ccab67e,2022-06-29_09h13.56.749,Colour_Asymmetry_Pilot,2022.1.3,Win32,59.80145916,62bbe60bf3d75ef465d3e404,0,58,58,49,1,onethree,,,,,,,,,,,,,,,,,,,,,,,,,,,,,,,,,,,,,,,,,,,,,,,,,,,,,,,,,,,,,,,,,,,,,,,,,,,,,,,,,,,,,,,,,,,,,,,,,,,,,,,,,,,,,,,,,,,,,,,,,,,,,,,,,,,,,,,,,,,,,,,,,,,,,,,,
,,,,,,614d7ee6c5fa454c4a6d3fa3,62bbfb3e119f06643ccab67e,2022-06-29_09h13.56.749,Colour_Asymmetry_Pilot,2022.1.3,Win32,59.80145916,62bbe60bf3d75ef465d3e404,0,59,59,41,1,onethree,,,,,,,,,,,,,,,,,,,,,,,,,,,,,,,,,,,,,,,,,,,,,,,,,,,,,,,,,,,,,,,,,,,,,,,,,,,,,,,,,,,,,,,,,,,,,,,,,,,,,,,,,,,,,,,,,,,,,,,,,,,,,,,,,,,,,,,,,,,,,,,,,,,,,,,,
,,,,,,614d7ee6c5fa454c4a6d3fa3,62bbfb3e119f06643ccab67e,2022-06-29_09h13.56.749,Colour_Asymmetry_Pilot,2022.1.3,Win32,59.80145916,62bbe60bf3d75ef465d3e404,0,60,60,17,1,onethree,,,,,,,,,,,,,,,,,,,,,,,,,,,,,,,,,,,,,,,,,,,,,,,,,,,,,,,,,,,,,,,,,,,,,,,,,,,,,,,,,,,,,,,,,,,,,,,,,,,,,,,,,,,,,,,,,,,,,,,,,,,,,,,,,,,,,,,,,,,,,,,,,,,,,,,,
,,,,,,614d7ee6c5fa454c4a6d3fa3,62bbfb3e119f06643ccab67e,2022-06-29_09h13.56.749,Colour_Asymmetry_Pilot,2022.1.3,Win32,59.80145916,62bbe60bf3d75ef465d3e404,0,61,61,39,1,fourthree,,,,,,,,,,,,,,,,,,,,,,,,,,,,,,,,,,,,,,,,,,,,,,,,,,,,,,,,,,,,,,,,,,,,,,,,,,,,,,,,,,,,,,,,,,,,,,,,,,,,,,,,,,,,,,,,,,,,,,,,,,,,,,,,,,,,,,,,,,,,,,,,,,,,,,,,
,,,,,,614d7ee6c5fa454c4a6d3fa3,62bbfb3e119f06643ccab67e,2022-06-29_09h13.56.749,Colour_Asymmetry_Pilot,2022.1.3,Win32,59.80145916,62bbe60bf3d75ef465d3e404,0,62,62,2,1,twoone,,,,,,,,,,,,,,,,,,,,,,,,,,,,,,,,,,,,,,,,,,,,,,,,,,,,,,,,,,,,,,,,,,,,,,,,,,,,,,,,,,,,,,,,,,,,,,,,,,,,,,,,,,,,,,,,,,,,,,,,,,,,,,,,,,,,,,,,,,,,,,,,,,,,,,,,
,,,,,,614d7ee6c5fa454c4a6d3fa3,62bbfb3e119f06643ccab67e,2022-06-29_09h13.56.749,Colour_Asymmetry_Pilot,2022.1.3,Win32,59.80145916,62bbe60bf3d75ef465d3e404,0,63,63,106,1,twoone,,,,,,,,,,,,,,,,,,,,,,,,,,,,,,,,,,,,,,,,,,,,,,,,,,,,,,,,,,,,,,,,,,,,,,,,,,,,,,,,,,,,,,,,,,,,,,,,,,,,,,,,,,,,,,,,,,,,,,,,,,,,,,,,,,,,,,,,,,,,,,,,,,,,,,,,
,,,,,,614d7ee6c5fa454c4a6d3fa3,62bbfb3e119f06643ccab67e,2022-06-29_09h13.56.749,Colour_Asymmetry_Pilot,2022.1.3,Win32,59.80145916,62bbe60bf3d75ef465d3e404,0,64,64,117,1,threefour,,,,,,,,,,,,,,,,,,,,,,,,,,,,,,,,,,,,,,,,,,,,,,,,,,,,,,,,,,,,,,,,,,,,,,,,,,,,,,,,,,,,,,,,,,,,,,,,,,,,,,,,,,,,,,,,,,,,,,,,,,,,,,,,,,,,,,,,,,,,,,,,,,,,,,,,
,,,,,,614d7ee6c5fa454c4a6d3fa3,62bbfb3e119f06643ccab67e,2022-06-29_09h13.56.749,Colour_Asymmetry_Pilot,2022.1.3,Win32,59.80145916,62bbe60bf3d75ef465d3e404,0,65,65,109,1,threefour,,,,,,,,,,,,,,,,,,,,,,,,,,,,,,,,,,,,,,,,,,,,,,,,,,,,,,,,,,,,,,,,,,,,,,,,,,,,,,,,,,,,,,,,,,,,,,,,,,,,,,,,,,,,,,,,,,,,,,,,,,,,,,,,,,,,,,,,,,,,,,,,,,,,,,,,
,,,,,,614d7ee6c5fa454c4a6d3fa3,62bbfb3e119f06643ccab67e,2022-06-29_09h13.56.749,Colour_Asymmetry_Pilot,2022.1.3,Win32,59.80145916,62bbe60bf3d75ef465d3e404,0,66,66,113,1,onethree,,,,,,,,,,,,,,,,,,,,,,,,,,,,,,,,,,,,,,,,,,,,,,,,,,,,,,,,,,,,,,,,,,,,,,,,,,,,,,,,,,,,,,,,,,,,,,,,,,,,,,,,,,,,,,,,,,,,,,,,,,,,,,,,,,,,,,,,,,,,,,,,,,,,,,,,
,,,,,,614d7ee6c5fa454c4a6d3fa3,62bbfb3e119f06643ccab67e,2022-06-29_09h13.56.749,Colour_Asymmetry_Pilot,2022.1.3,Win32,59.80145916,62bbe60bf3d75ef465d3e404,0,67,67,143,1,fourthree,,,,,,,,,,,,,,,,,,,,,,,,,,,,,,,,,,,,,,,,,,,,,,,,,,,,,,,,,,,,,,,,,,,,,,,,,,,,,,,,,,,,,,,,,,,,,,,,,,,,,,,,,,,,,,,,,,,,,,,,,,,,,,,,,,,,,,,,,,,,,,,,,,,,,,,,
,,,,,,614d7ee6c5fa454c4a6d3fa3,62bbfb3e119f06643ccab67e,2022-06-29_09h13.56.749,Colour_Asymmetry_Pilot,2022.1.3,Win32,59.80145916,62bbe60bf3d75ef465d3e404,0,68,68,150,1,fourtwo,,,,,,,,,,,,,,,,,,,,,,,,,,,,,,,,,,,,,,,,,,,,,,,,,,,,,,,,,,,,,,,,,,,,,,,,,,,,,,,,,,,,,,,,,,,,,,,,,,,,,,,,,,,,,,,,,,,,,,,,,,,,,,,,,,,,,,,,,,,,,,,,,,,,,,,,
,,,,,,614d7ee6c5fa454c4a6d3fa3,62bbfb3e119f06643ccab67e,2022-06-29_09h13.56.749,Colour_Asymmetry_Pilot,2022.1.3,Win32,59.80145916,62bbe60bf3d75ef465d3e404,0,69,69,61,1,threefour,,,,,,,,,,,,,,,,,,,,,,,,,,,,,,,,,,,,,,,,,,,,,,,,,,,,,,,,,,,,,,,,,,,,,,,,,,,,,,,,,,,,,,,,,,,,,,,,,,,,,,,,,,,,,,,,,,,,,,,,,,,,,,,,,,,,,,,,,,,,,,,,,,,,,,,,
,,,,,,614d7ee6c5fa454c4a6d3fa3,62bbfb3e119f06643ccab67e,2022-06-29_09h13.56.749,Colour_Asymmetry_Pilot,2022.1.3,Win32,59.80145916,62bbe60bf3d75ef465d3e404,0,70,70,114,1,twoone,,,,,,,,,,,,,,,,,,,,,,,,,,,,,,,,,,,,,,,,,,,,,,,,,,,,,,,,,,,,,,,,,,,,,,,,,,,,,,,,,,,,,,,,,,,,,,,,,,,,,,,,,,,,,,,,,,,,,,,,,,,,,,,,,,,,,,,,,,,,,,,,,,,,,,,,
,,,,,,614d7ee6c5fa454c4a6d3fa3,62bbfb3e119f06643ccab67e,2022-06-29_09h13.56.749,Colour_Asymmetry_Pilot,2022.1.3,Win32,59.80145916,62bbe60bf3d75ef465d3e404,0,71,71,42,1,twoone,,,,,,,,,,,,,,,,,,,,,,,,,,,,,,,,,,,,,,,,,,,,,,,,,,,,,,,,,,,,,,,,,,,,,,,,,,,,,,,,,,,,,,,,,,,,,,,,,,,,,,,,,,,,,,,,,,,,,,,,,,,,,,,,,,,,,,,,,,,,,,,,,,,,,,,,
,,,,,,614d7ee6c5fa454c4a6d3fa3,62bbfb3e119f06643ccab67e,2022-06-29_09h13.56.749,Colour_Asymmetry_Pilot,2022.1.3,Win32,59.80145916,62bbe60bf3d75ef465d3e404,0,72,72,57,1,onethree,,,,,,,,,,,,,,,,,,,,,,,,,,,,,,,,,,,,,,,,,,,,,,,,,,,,,,,,,,,,,,,,,,,,,,,,,,,,,,,,,,,,,,,,,,,,,,,,,,,,,,,,,,,,,,,,,,,,,,,,,,,,,,,,,,,,,,,,,,,,,,,,,,,,,,,,
,,,,,,614d7ee6c5fa454c4a6d3fa3,62bbfb3e119f06643ccab67e,2022-06-29_09h13.56.749,Colour_Asymmetry_Pilot,2022.1.3,Win32,59.80145916,62bbe60bf3d75ef465d3e404,0,73,73,9,1,onethree,,,,,,,,,,,,,,,,,,,,,,,,,,,,,,,,,,,,,,,,,,,,,,,,,,,,,,,,,,,,,,,,,,,,,,,,,,,,,,,,,,,,,,,,,,,,,,,,,,,,,,,,,,,,,,,,,,,,,,,,,,,,,,,,,,,,,,,,,,,,,,,,,,,,,,,,
,,,,,,614d7ee6c5fa454c4a6d3fa3,62bbfb3e119f06643ccab67e,2022-06-29_09h13.56.749,Colour_Asymmetry_Pilot,2022.1.3,Win32,59.80145916,62bbe60bf3d75ef465d3e404,0,74,74,78,1,fourtwo,,,,,,,,,,,,,,,,,,,,,,,,,,,,,,,,,,,,,,,,,,,,,,,,,,,,,,,,,,,,,,,,,,,,,,,,,,,,,,,,,,,,,,,,,,,,,,,,,,,,,,,,,,,,,,,,,,,,,,,,,,,,,,,,,,,,,,,,,,,,,,,,,,,,,,,,
,,,,,,614d7ee6c5fa454c4a6d3fa3,62bbfb3e119f06643ccab67e,2022-06-29_09h13.56.749,Colour_Asymmetry_Pilot,2022.1.3,Win32,59.80145916,62bbe60bf3d75ef465d3e404,0,75,75,104,1,onetwo,,,,,,,,,,,,,,,,,,,,,,,,,,,,,,,,,,,,,,,,,,,,,,,,,,,,,,,,,,,,,,,,,,,,,,,,,,,,,,,,,,,,,,,,,,,,,,,,,,,,,,,,,,,,,,,,,,,,,,,,,,,,,,,,,,,,,,,,,,,,,,,,,,,,,,,,
,,,,,,614d7ee6c5fa454c4a6d3fa3,62bbfb3e119f06643ccab67e,2022-06-29_09h13.56.749,Colour_Asymmetry_Pilot,2022.1.3,Win32,59.80145916,62bbe60bf3d75ef465d3e404,0,76,76,107,1,twofour,,,,,,,,,,,,,,,,,,,,,,,,,,,,,,,,,,,,,,,,,,,,,,,,,,,,,,,,,,,,,,,,,,,,,,,,,,,,,,,,,,,,,,,,,,,,,,,,,,,,,,,,,,,,,,,,,,,,,,,,,,,,,,,,,,,,,,,,,,,,,,,,,,,,,,,,
,,,,,,614d7ee6c5fa454c4a6d3fa3,62bbfb3e119f06643ccab67e,2022-06-29_09h13.56.749,Colour_Asymmetry_Pilot,2022.1.3,Win32,59.80145916,62bbe60bf3d75ef465d3e404,0,77,77,145,1,onethree,,,,,,,,,,,,,,,,,,,,,,,,,,,,,,,,,,,,,,,,,,,,,,,,,,,,,,,,,,,,,,,,,,,,,,,,,,,,,,,,,,,,,,,,,,,,,,,,,,,,,,,,,,,,,,,,,,,,,,,,,,,,,,,,,,,,,,,,,,,,,,,,,,,,,,,,
,,,,,,614d7ee6c5fa454c4a6d3fa3,62bbfb3e119f06643ccab67e,2022-06-29_09h13.56.749,Colour_Asymmetry_Pilot,2022.1.3,Win32,59.80145916,62bbe60bf3d75ef465d3e404,0,78,78,72,1,onetwo,,,,,,,,,,,,,,,,,,,,,,,,,,,,,,,,,,,,,,,,,,,,,,,,,,,,,,,,,,,,,,,,,,,,,,,,,,,,,,,,,,,,,,,,,,,,,,,,,,,,,,,,,,,,,,,,,,,,,,,,,,,,,,,,,,,,,,,,,,,,,,,,,,,,,,,,
,,,,,,614d7ee6c5fa454c4a6d3fa3,62bbfb3e119f06643ccab67e,2022-06-29_09h13.56.749,Colour_Asymmetry_Pilot,2022.1.3,Win32,59.80145916,62bbe60bf3d75ef465d3e404,0,79,79,62,1,fourtwo,,,,,,,,,,,,,,,,,,,,,,,,,,,,,,,,,,,,,,,,,,,,,,,,,,,,,,,,,,,,,,,,,,,,,,,,,,,,,,,,,,,,,,,,,,,,,,,,,,,,,,,,,,,,,,,,,,,,,,,,,,,,,,,,,,,,,,,,,,,,,,,,,,,,,,,,
,,,,,,614d7ee6c5fa454c4a6d3fa3,62bbfb3e119f06643ccab67e,2022-06-29_09h13.56.749,Colour_Asymmetry_Pilot,2022.1.3,Win32,59.80145916,62bbe60bf3d75ef465d3e404,0,80,80,137,1,onethree,,,,,,,,,,,,,,,,,,,,,,,,,,,,,,,,,,,,,,,,,,,,,,,,,,,,,,,,,,,,,,,,,,,,,,,,,,,,,,,,,,,,,,,,,,,,,,,,,,,,,,,,,,,,,,,,,,,,,,,,,,,,,,,,,,,,,,,,,,,,,,,,,,,,,,,,
,,,,,,614d7ee6c5fa454c4a6d3fa3,62bbfb3e119f06643ccab67e,2022-06-29_09h13.56.749,Colour_Asymmetry_Pilot,2022.1.3,Win32,59.80145916,62bbe60bf3d75ef465d3e404,0,81,81,91,1,twofour,,,,,,,,,,,,,,,,,,,,,,,,,,,,,,,,,,,,,,,,,,,,,,,,,,,,,,,,,,,,,,,,,,,,,,,,,,,,,,,,,,,,,,,,,,,,,,,,,,,,,,,,,,,,,,,,,,,,,,,,,,,,,,,,,,,,,,,,,,,,,,,,,,,,,,,,
,,,,,,614d7ee6c5fa454c4a6d3fa3,62bbfb3e119f06643ccab67e,2022-06-29_09h13.56.749,Colour_Asymmetry_Pilot,2022.1.3,Win32,59.80145916,62bbe60bf3d75ef465d3e404,0,82,82,74,1,twoone,,,,,,,,,,,,,,,,,,,,,,,,,,,,,,,,,,,,,,,,,,,,,,,,,,,,,,,,,,,,,,,,,,,,,,,,,,,,,,,,,,,,,,,,,,,,,,,,,,,,,,,,,,,,,,,,,,,,,,,,,,,,,,,,,,,,,,,,,,,,,,,,,,,,,,,,
,,,,,,614d7ee6c5fa454c4a6d3fa3,62bbfb3e119f06643ccab67e,2022-06-29_09h13.56.749,Colour_Asymmetry_Pilot,2022.1.3,Win32,59.80145916,62bbe60bf3d75ef465d3e404,0,83,83,133,1,threefour,,,,,,,,,,,,,,,,,,,,,,,,,,,,,,,,,,,,,,,,,,,,,,,,,,,,,,,,,,,,,,,,,,,,,,,,,,,,,,,,,,,,,,,,,,,,,,,,,,,,,,,,,,,,,,,,,,,,,,,,,,,,,,,,,,,,,,,,,,,,,,,,,,,,,,,,
,,,,,,614d7ee6c5fa454c4a6d3fa3,62bbfb3e119f06643ccab67e,2022-06-29_09h13.56.749,Colour_Asymmetry_Pilot,2022.1.3,Win32,59.80145916,62bbe60bf3d75ef465d3e404,0,84,84,5,1,threefour,,,,,,,,,,,,,,,,,,,,,,,,,,,,,,,,,,,,,,,,,,,,,,,,,,,,,,,,,,,,,,,,,,,,,,,,,,,,,,,,,,,,,,,,,,,,,,,,,,,,,,,,,,,,,,,,,,,,,,,,,,,,,,,,,,,,,,,,,,,,,,,,,,,,,,,,
,,,,,,614d7ee6c5fa454c4a6d3fa3,62bbfb3e119f06643ccab67e,2022-06-29_09h13.56.749,Colour_Asymmetry_Pilot,2022.1.3,Win32,59.80145916,62bbe60bf3d75ef465d3e404,0,85,85,79,1,fourthree,,,,,,,,,,,,,,,,,,,,,,,,,,,,,,,,,,,,,,,,,,,,,,,,,,,,,,,,,,,,,,,,,,,,,,,,,,,,,,,,,,,,,,,,,,,,,,,,,,,,,,,,,,,,,,,,,,,,,,,,,,,,,,,,,,,,,,,,,,,,,,,,,,,,,,,,
,,,,,,614d7ee6c5fa454c4a6d3fa3,62bbfb3e119f06643ccab67e,2022-06-29_09h13.56.749,Colour_Asymmetry_Pilot,2022.1.3,Win32,59.80145916,62bbe60bf3d75ef465d3e404,0,86,86,80,1,onetwo,,,,,,,,,,,,,,,,,,,,,,,,,,,,,,,,,,,,,,,,,,,,,,,,,,,,,,,,,,,,,,,,,,,,,,,,,,,,,,,,,,,,,,,,,,,,,,,,,,,,,,,,,,,,,,,,,,,,,,,,,,,,,,,,,,,,,,,,,,,,,,,,,,,,,,,,
,,,,,,614d7ee6c5fa454c4a6d3fa3,62bbfb3e119f06643ccab67e,2022-06-29_09h13.56.749,Colour_Asymmetry_Pilot,2022.1.3,Win32,59.80145916,62bbe60bf3d75ef465d3e404,0,87,87,29,1,threefour,,,,,,,,,,,,,,,,,,,,,,,,,,,,,,,,,,,,,,,,,,,,,,,,,,,,,,,,,,,,,,,,,,,,,,,,,,,,,,,,,,,,,,,,,,,,,,,,,,,,,,,,,,,,,,,,,,,,,,,,,,,,,,,,,,,,,,,,,,,,,,,,,,,,,,,,
,,,,,,614d7ee6c5fa454c4a6d3fa3,62bbfb3e119f06643ccab67e,2022-06-29_09h13.56.749,Colour_Asymmetry_Pilot,2022.1.3,Win32,59.80145916,62bbe60bf3d75ef465d3e404,0,88,88,126,1,fourtwo,,,,,,,,,,,,,,,,,,,,,,,,,,,,,,,,,,,,,,,,,,,,,,,,,,,,,,,,,,,,,,,,,,,,,,,,,,,,,,,,,,,,,,,,,,,,,,,,,,,,,,,,,,,,,,,,,,,,,,,,,,,,,,,,,,,,,,,,,,,,,,,,,,,,,,,,
,,,,,,614d7ee6c5fa454c4a6d3fa3,62bbfb3e119f06643ccab67e,2022-06-29_09h13.56.749,Colour_Asymmetry_Pilot,2022.1.3,Win32,59.80145916,62bbe60bf3d75ef465d3e404,0,89,89,156,1,threeone,,,,,,,,,,,,,,,,,,,,,,,,,,,,,,,,,,,,,,,,,,,,,,,,,,,,,,,,,,,,,,,,,,,,,,,,,,,,,,,,,,,,,,,,,,,,,,,,,,,,,,,,,,,,,,,,,,,,,,,,,,,,,,,,,,,,,,,,,,,,,,,,,,,,,,,,
,,,,,,614d7ee6c5fa454c4a6d3fa3,62bbfb3e119f06643ccab67e,2022-06-29_09h13.56.749,Colour_Asymmetry_Pilot,2022.1.3,Win32,59.80145916,62bbe60bf3d75ef465d3e404,0,90,90,11,1,twofour,,,,,,,,,,,,,,,,,,,,,,,,,,,,,,,,,,,,,,,,,,,,,,,,,,,,,,,,,,,,,,,,,,,,,,,,,,,,,,,,,,,,,,,,,,,,,,,,,,,,,,,,,,,,,,,,,,,,,,,,,,,,,,,,,,,,,,,,,,,,,,,,,,,,,,,,
,,,,,,614d7ee6c5fa454c4a6d3fa3,62bbfb3e119f06643ccab67e,2022-06-29_09h13.56.749,Colour_Asymmetry_Pilot,2022.1.3,Win32,59.80145916,62bbe60bf3d75ef465d3e404,0,91,91,105,1,onethree,,,,,,,,,,,,,,,,,,,,,,,,,,,,,,,,,,,,,,,,,,,,,,,,,,,,,,,,,,,,,,,,,,,,,,,,,,,,,,,,,,,,,,,,,,,,,,,,,,,,,,,,,,,,,,,,,,,,,,,,,,,,,,,,,,,,,,,,,,,,,,,,,,,,,,,,
,,,,,,614d7ee6c5fa454c4a6d3fa3,62bbfb3e119f06643ccab67e,2022-06-29_09h13.56.749,Colour_Asymmetry_Pilot,2022.1.3,Win32,59.80145916,62bbe60bf3d75ef465d3e404,0,92,92,45,1,threefour,,,,,,,,,,,,,,,,,,,,,,,,,,,,,,,,,,,,,,,,,,,,,,,,,,,,,,,,,,,,,,,,,,,,,,,,,,,,,,,,,,,,,,,,,,,,,,,,,,,,,,,,,,,,,,,,,,,,,,,,,,,,,,,,,,,,,,,,,,,,,,,,,,,,,,,,
,,,,,,614d7ee6c5fa454c4a6d3fa3,62bbfb3e119f06643ccab67e,2022-06-29_09h13.56.749,Colour_Asymmetry_Pilot,2022.1.3,Win32,59.80145916,62bbe60bf3d75ef465d3e404,0,93,93,56,1,onetwo,,,,,,,,,,,,,,,,,,,,,,,,,,,,,,,,,,,,,,,,,,,,,,,,,,,,,,,,,,,,,,,,,,,,,,,,,,,,,,,,,,,,,,,,,,,,,,,,,,,,,,,,,,,,,,,,,,,,,,,,,,,,,,,,,,,,,,,,,,,,,,,,,,,,,,,,
,,,,,,614d7ee6c5fa454c4a6d3fa3,62bbfb3e119f06643ccab67e,2022-06-29_09h13.56.749,Colour_Asymmetry_Pilot,2022.1.3,Win32,59.80145916,62bbe60bf3d75ef465d3e404,0,94,94,120,1,onetwo,,,,,,,,,,,,,,,,,,,,,,,,,,,,,,,,,,,,,,,,,,,,,,,,,,,,,,,,,,,,,,,,,,,,,,,,,,,,,,,,,,,,,,,,,,,,,,,,,,,,,,,,,,,,,,,,,,,,,,,,,,,,,,,,,,,,,,,,,,,,,,,,,,,,,,,,
,,,,,,614d7ee6c5fa454c4a6d3fa3,62bbfb3e119f06643ccab67e,2022-06-29_09h13.56.749,Colour_Asymmetry_Pilot,2022.1.3,Win32,59.80145916,62bbe60bf3d75ef465d3e404,0,95,95,159,1,fourthree,,,,,,,,,,,,,,,,,,,,,,,,,,,,,,,,,,,,,,,,,,,,,,,,,,,,,,,,,,,,,,,,,,,,,,,,,,,,,,,,,,,,,,,,,,,,,,,,,,,,,,,,,,,,,,,,,,,,,,,,,,,,,,,,,,,,,,,,,,,,,,,,,,,,,,,,
,,,,,,614d7ee6c5fa454c4a6d3fa3,62bbfb3e119f06643ccab67e,2022-06-29_09h13.56.749,Colour_Asymmetry_Pilot,2022.1.3,Win32,59.80145916,62bbe60bf3d75ef465d3e404,0,96,96,59,1,twofour,,,,,,,,,,,,,,,,,,,,,,,,,,,,,,,,,,,,,,,,,,,,,,,,,,,,,,,,,,,,,,,,,,,,,,,,,,,,,,,,,,,,,,,,,,,,,,,,,,,,,,,,,,,,,,,,,,,,,,,,,,,,,,,,,,,,,,,,,,,,,,,,,,,,,,,,
,,,,,,614d7ee6c5fa454c4a6d3fa3,62bbfb3e119f06643ccab67e,2022-06-29_09h13.56.749,Colour_Asymmetry_Pilot,2022.1.3,Win32,59.80145916,62bbe60bf3d75ef465d3e404,0,97,97,88,1,onetwo,,,,,,,,,,,,,,,,,,,,,,,,,,,,,,,,,,,,,,,,,,,,,,,,,,,,,,,,,,,,,,,,,,,,,,,,,,,,,,,,,,,,,,,,,,,,,,,,,,,,,,,,,,,,,,,,,,,,,,,,,,,,,,,,,,,,,,,,,,,,,,,,,,,,,,,,
,,,,,,614d7ee6c5fa454c4a6d3fa3,62bbfb3e119f06643ccab67e,2022-06-29_09h13.56.749,Colour_Asymmetry_Pilot,2022.1.3,Win32,59.80145916,62bbe60bf3d75ef465d3e404,0,98,98,35,1,twofour,,,,,,,,,,,,,,,,,,,,,,,,,,,,,,,,,,,,,,,,,,,,,,,,,,,,,,,,,,,,,,,,,,,,,,,,,,,,,,,,,,,,,,,,,,,,,,,,,,,,,,,,,,,,,,,,,,,,,,,,,,,,,,,,,,,,,,,,,,,,,,,,,,,,,,,,
,,,,,,614d7ee6c5fa454c4a6d3fa3,62bbfb3e119f06643ccab67e,2022-06-29_09h13.56.749,Colour_Asymmetry_Pilot,2022.1.3,Win32,59.80145916,62bbe60bf3d75ef465d3e404,0,99,99,26,1,twoone,,,,,,,,,,,,,,,,,,,,,,,,,,,,,,,,,,,,,,,,,,,,,,,,,,,,,,,,,,,,,,,,,,,,,,,,,,,,,,,,,,,,,,,,,,,,,,,,,,,,,,,,,,,,,,,,,,,,,,,,,,,,,,,,,,,,,,,,,,,,,,,,,,,,,,,,
,,,,,,614d7ee6c5fa454c4a6d3fa3,62bbfb3e119f06643ccab67e,2022-06-29_09h13.56.749,Colour_Asymmetry_Pilot,2022.1.3,Win32,59.80145916,62bbe60bf3d75ef465d3e404,0,100,100,48,1,onetwo,,,,,,,,,,,,,,,,,,,,,,,,,,,,,,,,,,,,,,,,,,,,,,,,,,,,,,,,,,,,,,,,,,,,,,,,,,,,,,,,,,,,,,,,,,,,,,,,,,,,,,,,,,,,,,,,,,,,,,,,,,,,,,,,,,,,,,,,,,,,,,,,,,,,,,,,
,,,,,,614d7ee6c5fa454c4a6d3fa3,62bbfb3e119f06643ccab67e,2022-06-29_09h13.56.749,Colour_Asymmetry_Pilot,2022.1.3,Win32,59.80145916,62bbe60bf3d75ef465d3e404,0,101,101,99,1,twofour,,,,,,,,,,,,,,,,,,,,,,,,,,,,,,,,,,,,,,,,,,,,,,,,,,,,,,,,,,,,,,,,,,,,,,,,,,,,,,,,,,,,,,,,,,,,,,,,,,,,,,,,,,,,,,,,,,,,,,,,,,,,,,,,,,,,,,,,,,,,,,,,,,,,,,,,
,,,,,,614d7ee6c5fa454c4a6d3fa3,62bbfb3e119f06643ccab67e,2022-06-29_09h13.56.749,Colour_Asymmetry_Pilot,2022.1.3,Win32,59.80145916,62bbe60bf3d75ef465d3e404,0,102,102,60,1,threeone,,,,,,,,,,,,,,,,,,,,,,,,,,,,,,,,,,,,,,,,,,,,,,,,,,,,,,,,,,,,,,,,,,,,,,,,,,,,,,,,,,,,,,,,,,,,,,,,,,,,,,,,,,,,,,,,,,,,,,,,,,,,,,,,,,,,,,,,,,,,,,,,,,,,,,,,
,,,,,,614d7ee6c5fa454c4a6d3fa3,62bbfb3e119f06643ccab67e,2022-06-29_09h13.56.749,Colour_Asymmetry_Pilot,2022.1.3,Win32,59.80145916,62bbe60bf3d75ef465d3e404,0,103,103,76,1,threeone,,,,,,,,,,,,,,,,,,,,,,,,,,,,,,,,,,,,,,,,,,,,,,,,,,,,,,,,,,,,,,,,,,,,,,,,,,,,,,,,,,,,,,,,,,,,,,,,,,,,,,,,,,,,,,,,,,,,,,,,,,,,,,,,,,,,,,,,,,,,,,,,,,,,,,,,
,,,,,,614d7ee6c5fa454c4a6d3fa3,62bbfb3e119f06643ccab67e,2022-06-29_09h13.56.749,Colour_Asymmetry_Pilot,2022.1.3,Win32,59.80145916,62bbe60bf3d75ef465d3e404,0,104,104,37,1,threefour,,,,,,,,,,,,,,,,,,,,,,,,,,,,,,,,,,,,,,,,,,,,,,,,,,,,,,,,,,,,,,,,,,,,,,,,,,,,,,,,,,,,,,,,,,,,,,,,,,,,,,,,,,,,,,,,,,,,,,,,,,,,,,,,,,,,,,,,,,,,,,,,,,,,,,,,
,,,,,,614d7ee6c5fa454c4a6d3fa3,62bbfb3e119f06643ccab67e,2022-06-29_09h13.56.749,Colour_Asymmetry_Pilot,2022.1.3,Win32,59.80145916,62bbe60bf3d75ef465d3e404,0,105,105,15,1,fourthree,,,,,,,,,,,,,,,,,,,,,,,,,,,,,,,,,,,,,,,,,,,,,,,,,,,,,,,,,,,,,,,,,,,,,,,,,,,,,,,,,,,,,,,,,,,,,,,,,,,,,,,,,,,,,,,,,,,,,,,,,,,,,,,,,,,,,,,,,,,,,,,,,,,,,,,,
,,,,,,614d7ee6c5fa454c4a6d3fa3,62bbfb3e119f06643ccab67e,2022-06-29_09h13.56.749,Colour_Asymmetry_Pilot,2022.1.3,Win32,59.80145916,62bbe60bf3d75ef465d3e404,0,106,106,32,1,onetwo,,,,,,,,,,,,,,,,,,,,,,,,,,,,,,,,,,,,,,,,,,,,,,,,,,,,,,,,,,,,,,,,,,,,,,,,,,,,,,,,,,,,,,,,,,,,,,,,,,,,,,,,,,,,,,,,,,,,,,,,,,,,,,,,,,,,,,,,,,,,,,,,,,,,,,,,
,,,,,,614d7ee6c5fa454c4a6d3fa3,62bbfb3e119f06643ccab67e,2022-06-29_09h13.56.749,Colour_Asymmetry_Pilot,2022.1.3,Win32,59.80145916,62bbe60bf3d75ef465d3e404,0,107,107,0,1,onetwo,,,,,,,,,,,,,,,,,,,,,,,,,,,,,,,,,,,,,,,,,,,,,,,,,,,,,,,,,,,,,,,,,,,,,,,,,,,,,,,,,,,,,,,,,,,,,,,,,,,,,,,,,,,,,,,,,,,,,,,,,,,,,,,,,,,,,,,,,,,,,,,,,,,,,,,,
,,,,,,614d7ee6c5fa454c4a6d3fa3,62bbfb3e119f06643ccab67e,2022-06-29_09h13.56.749,Colour_Asymmetry_Pilot,2022.1.3,Win32,59.80145916,62bbe60bf3d75ef465d3e404,0,108,108,18,1,twoone,,,,,,,,,,,,,,,,,,,,,,,,,,,,,,,,,,,,,,,,,,,,,,,,,,,,,,,,,,,,,,,,,,,,,,,,,,,,,,,,,,,,,,,,,,,,,,,,,,,,,,,,,,,,,,,,,,,,,,,,,,,,,,,,,,,,,,,,,,,,,,,,,,,,,,,,
,,,,,,614d7ee6c5fa454c4a6d3fa3,62bbfb3e119f06643ccab67e,2022-06-29_09h13.56.749,Colour_Asymmetry_Pilot,2022.1.3,Win32,59.80145916,62bbe60bf3d75ef465d3e404,0,109,109,161,1,onethree,,,,,,,,,,,,,,,,,,,,,,,,,,,,,,,,,,,,,,,,,,,,,,,,,,,,,,,,,,,,,,,,,,,,,,,,,,,,,,,,,,,,,,,,,,,,,,,,,,,,,,,,,,,,,,,,,,,,,,,,,,,,,,,,,,,,,,,,,,,,,,,,,,,,,,,,
,,,,,,614d7ee6c5fa454c4a6d3fa3,62bbfb3e119f06643ccab67e,2022-06-29_09h13.56.749,Colour_Asymmetry_Pilot,2022.1.3,Win32,59.80145916,62bbe60bf3d75ef465d3e404,0,110,110,13,1,threefour,,,,,,,,,,,,,,,,,,,,,,,,,,,,,,,,,,,,,,,,,,,,,,,,,,,,,,,,,,,,,,,,,,,,,,,,,,,,,,,,,,,,,,,,,,,,,,,,,,,,,,,,,,,,,,,,,,,,,,,,,,,,,,,,,,,,,,,,,,,,,,,,,,,,,,,,
,,,,,,614d7ee6c5fa454c4a6d3fa3,62bbfb3e119f06643ccab67e,2022-06-29_09h13.56.749,Colour_Asymmetry_Pilot,2022.1.3,Win32,59.80145916,62bbe60bf3d75ef465d3e404,0,111,111,100,1,threeone,,,,,,,,,,,,,,,,,,,,,,,,,,,,,,,,,,,,,,,,,,,,,,,,,,,,,,,,,,,,,,,,,,,,,,,,,,,,,,,,,,,,,,,,,,,,,,,,,,,,,,,,,,,,,,,,,,,,,,,,,,,,,,,,,,,,,,,,,,,,,,,,,,,,,,,,
,,,,,,614d7ee6c5fa454c4a6d3fa3,62bbfb3e119f06643ccab67e,2022-06-29_09h13.56.749,Colour_Asymmetry_Pilot,2022.1.3,Win32,59.80145916,62bbe60bf3d75ef465d3e404,0,112,112,14,1,fourtwo,,,,,,,,,,,,,,,,,,,,,,,,,,,,,,,,,,,,,,,,,,,,,,,,,,,,,,,,,,,,,,,,,,,,,,,,,,,,,,,,,,,,,,,,,,,,,,,,,,,,,,,,,,,,,,,,,,,,,,,,,,,,,,,,,,,,,,,,,,,,,,,,,,,,,,,,
,,,,,,614d7ee6c5fa454c4a6d3fa3,62bbfb3e119f06643ccab67e,2022-06-29_09h13.56.749,Colour_Asymmetry_Pilot,2022.1.3,Win32,59.80145916,62bbe60bf3d75ef465d3e404,0,113,113,87,1,fourthree,,,,,,,,,,,,,,,,,,,,,,,,,,,,,,,,,,,,,,,,,,,,,,,,,,,,,,,,,,,,,,,,,,,,,,,,,,,,,,,,,,,,,,,,,,,,,,,,,,,,,,,,,,,,,,,,,,,,,,,,,,,,,,,,,,,,,,,,,,,,,,,,,,,,,,,,
,,,,,,614d7ee6c5fa454c4a6d3fa3,62bbfb3e119f06643ccab67e,2022-06-29_09h13.56.749,Colour_Asymmetry_Pilot,2022.1.3,Win32,59.80145916,62bbe60bf3d75ef465d3e404,0,114,114,10,1,twoone,,,,,,,,,,,,,,,,,,,,,,,,,,,,,,,,,,,,,,,,,,,,,,,,,,,,,,,,,,,,,,,,,,,,,,,,,,,,,,,,,,,,,,,,,,,,,,,,,,,,,,,,,,,,,,,,,,,,,,,,,,,,,,,,,,,,,,,,,,,,,,,,,,,,,,,,
,,,,,,614d7ee6c5fa454c4a6d3fa3,62bbfb3e119f06643ccab67e,2022-06-29_09h13.56.749,Colour_Asymmetry_Pilot,2022.1.3,Win32,59.80145916,62bbe60bf3d75ef465d3e404,0,115,115,119,1,fourthree,,,,,,,,,,,,,,,,,,,,,,,,,,,,,,,,,,,,,,,,,,,,,,,,,,,,,,,,,,,,,,,,,,,,,,,,,,,,,,,,,,,,,,,,,,,,,,,,,,,,,,,,,,,,,,,,,,,,,,,,,,,,,,,,,,,,,,,,,,,,,,,,,,,,,,,,
,,,,,,614d7ee6c5fa454c4a6d3fa3,62bbfb3e119f06643ccab67e,2022-06-29_09h13.56.749,Colour_Asymmetry_Pilot,2022.1.3,Win32,59.80145916,62bbe60bf3d75ef465d3e404,0,116,116,129,1,onethree,,,,,,,,,,,,,,,,,,,,,,,,,,,,,,,,,,,,,,,,,,,,,,,,,,,,,,,,,,,,,,,,,,,,,,,,,,,,,,,,,,,,,,,,,,,,,,,,,,,,,,,,,,,,,,,,,,,,,,,,,,,,,,,,,,,,,,,,,,,,,,,,,,,,,,,,
,,,,,,614d7ee6c5fa454c4a6d3fa3,62bbfb3e119f06643ccab67e,2022-06-29_09h13.56.749,Colour_Asymmetry_Pilot,2022.1.3,Win32,59.80145916,62bbe60bf3d75ef465d3e404,0,117,117,36,1,threeone,,,,,,,,,,,,,,,,,,,,,,,,,,,,,,,,,,,,,,,,,,,,,,,,,,,,,,,,,,,,,,,,,,,,,,,,,,,,,,,,,,,,,,,,,,,,,,,,,,,,,,,,,,,,,,,,,,,,,,,,,,,,,,,,,,,,,,,,,,,,,,,,,,,,,,,,
,,,,,,614d7ee6c5fa454c4a6d3fa3,62bbfb3e119f06643ccab67e,2022-06-29_09h13.56.749,Colour_Asymmetry_Pilot,2022.1.3,Win32,59.80145916,62bbe60bf3d75ef465d3e404,0,118,118,153,1,onethree,,,,,,,,,,,,,,,,,,,,,,,,,,,,,,,,,,,,,,,,,,,,,,,,,,,,,,,,,,,,,,,,,,,,,,,,,,,,,,,,,,,,,,,,,,,,,,,,,,,,,,,,,,,,,,,,,,,,,,,,,,,,,,,,,,,,,,,,,,,,,,,,,,,,,,,,
,,,,,,614d7ee6c5fa454c4a6d3fa3,62bbfb3e119f06643ccab67e,2022-06-29_09h13.56.749,Colour_Asymmetry_Pilot,2022.1.3,Win32,59.80145916,62bbe60bf3d75ef465d3e404,0,119,119,71,1,fourthree,,,,,,,,,,,,,,,,,,,,,,,,,,,,,,,,,,,,,,,,,,,,,,,,,,,,,,,,,,,,,,,,,,,,,,,,,,,,,,,,,,,,,,,,,,,,,,,,,,,,,,,,,,,,,,,,,,,,,,,,,,,,,,,,,,,,,,,,,,,,,,,,,,,,,,,,
,,,,,,614d7ee6c5fa454c4a6d3fa3,62bbfb3e119f06643ccab67e,2022-06-29_09h13.56.749,Colour_Asymmetry_Pilot,2022.1.3,Win32,59.80145916,62bbe60bf3d75ef465d3e404,0,120,120,125,1,threefour,,,,,,,,,,,,,,,,,,,,,,,,,,,,,,,,,,,,,,,,,,,,,,,,,,,,,,,,,,,,,,,,,,,,,,,,,,,,,,,,,,,,,,,,,,,,,,,,,,,,,,,,,,,,,,,,,,,,,,,,,,,,,,,,,,,,,,,,,,,,,,,,,,,,,,,,
,,,,,,614d7ee6c5fa454c4a6d3fa3,62bbfb3e119f06643ccab67e,2022-06-29_09h13.56.749,Colour_Asymmetry_Pilot,2022.1.3,Win32,59.80145916,62bbe60bf3d75ef465d3e404,0,121,121,27,1,twofour,,,,,,,,,,,,,,,,,,,,,,,,,,,,,,,,,,,,,,,,,,,,,,,,,,,,,,,,,,,,,,,,,,,,,,,,,,,,,,,,,,,,,,,,,,,,,,,,,,,,,,,,,,,,,,,,,,,,,,,,,,,,,,,,,,,,,,,,,,,,,,,,,,,,,,,,
,,,,,,614d7ee6c5fa454c4a6d3fa3,62bbfb3e119f06643ccab67e,2022-06-29_09h13.56.749,Colour_Asymmetry_Pilot,2022.1.3,Win32,59.80145916,62bbe60bf3d75ef465d3e404,0,122,122,51,1,twofour,,,,,,,,,,,,,,,,,,,,,,,,,,,,,,,,,,,,,,,,,,,,,,,,,,,,,,,,,,,,,,,,,,,,,,,,,,,,,,,,,,,,,,,,,,,,,,,,,,,,,,,,,,,,,,,,,,,,,,,,,,,,,,,,,,,,,,,,,,,,,,,,,,,,,,,,
,,,,,,614d7ee6c5fa454c4a6d3fa3,62bbfb3e119f06643ccab67e,2022-06-29_09h13.56.749,Colour_Asymmetry_Pilot,2022.1.3,Win32,59.80145916,62bbe60bf3d75ef465d3e404,0,123,123,140,1,threeone,,,,,,,,,,,,,,,,,,,,,,,,,,,,,,,,,,,,,,,,,,,,,,,,,,,,,,,,,,,,,,,,,,,,,,,,,,,,,,,,,,,,,,,,,,,,,,,,,,,,,,,,,,,,,,,,,,,,,,,,,,,,,,,,,,,,,,,,,,,,,,,,,,,,,,,,
,,,,,,614d7ee6c5fa454c4a6d3fa3,62bbfb3e119f06643ccab67e,2022-06-29_09h13.56.749,Colour_Asymmetry_Pilot,2022.1.3,Win32,59.80145916,62bbe60bf3d75ef465d3e404,0,124,124,132,1,threeone,,,,,,,,,,,,,,,,,,,,,,,,,,,,,,,,,,,,,,,,,,,,,,,,,,,,,,,,,,,,,,,,,,,,,,,,,,,,,,,,,,,,,,,,,,,,,,,,,,,,,,,,,,,,,,,,,,,,,,,,,,,,,,,,,,,,,,,,,,,,,,,,,,,,,,,,
,,,,,,614d7ee6c5fa454c4a6d3fa3,62bbfb3e119f06643ccab67e,2022-06-29_09h13.56.749,Colour_Asymmetry_Pilot,2022.1.3,Win32,59.80145916,62bbe60bf3d75ef465d3e404,0,125,125,20,1,threeone,,,,,,,,,,,,,,,,,,,,,,,,,,,,,,,,,,,,,,,,,,,,,,,,,,,,,,,,,,,,,,,,,,,,,,,,,,,,,,,,,,,,,,,,,,,,,,,,,,,,,,,,,,,,,,,,,,,,,,,,,,,,,,,,,,,,,,,,,,,,,,,,,,,,,,,,
,,,,,,614d7ee6c5fa454c4a6d3fa3,62bbfb3e119f06643ccab67e,2022-06-29_09h13.56.749,Colour_Asymmetry_Pilot,2022.1.3,Win32,59.80145916,62bbe60bf3d75ef465d3e404,0,126,126,44,1,threeone,,,,,,,,,,,,,,,,,,,,,,,,,,,,,,,,,,,,,,,,,,,,,,,,,,,,,,,,,,,,,,,,,,,,,,,,,,,,,,,,,,,,,,,,,,,,,,,,,,,,,,,,,,,,,,,,,,,,,,,,,,,,,,,,,,,,,,,,,,,,,,,,,,,,,,,,
,,,,,,614d7ee6c5fa454c4a6d3fa3,62bbfb3e119f06643ccab67e,2022-06-29_09h13.56.749,Colour_Asymmetry_Pilot,2022.1.3,Win32,59.80145916,62bbe60bf3d75ef465d3e404,0,127,127,123,1,twofour,,,,,,,,,,,,,,,,,,,,,,,,,,,,,,,,,,,,,,,,,,,,,,,,,,,,,,,,,,,,,,,,,,,,,,,,,,,,,,,,,,,,,,,,,,,,,,,,,,,,,,,,,,,,,,,,,,,,,,,,,,,,,,,,,,,,,,,,,,,,,,,,,,,,,,,,
,,,,,,614d7ee6c5fa454c4a6d3fa3,62bbfb3e119f06643ccab67e,2022-06-29_09h13.56.749,Colour_Asymmetry_Pilot,2022.1.3,Win32,59.80145916,62bbe60bf3d75ef465d3e404,0,128,128,154,1,twoone,,,,,,,,,,,,,,,,,,,,,,,,,,,,,,,,,,,,,,,,,,,,,,,,,,,,,,,,,,,,,,,,,,,,,,,,,,,,,,,,,,,,,,,,,,,,,,,,,,,,,,,,,,,,,,,,,,,,,,,,,,,,,,,,,,,,,,,,,,,,,,,,,,,,,,,,
,,,,,,614d7ee6c5fa454c4a6d3fa3,62bbfb3e119f06643ccab67e,2022-06-29_09h13.56.749,Colour_Asymmetry_Pilot,2022.1.3,Win32,59.80145916,62bbe60bf3d75ef465d3e404,0,129,129,144,1,onetwo,,,,,,,,,,,,,,,,,,,,,,,,,,,,,,,,,,,,,,,,,,,,,,,,,,,,,,,,,,,,,,,,,,,,,,,,,,,,,,,,,,,,,,,,,,,,,,,,,,,,,,,,,,,,,,,,,,,,,,,,,,,,,,,,,,,,,,,,,,,,,,,,,,,,,,,,
,,,,,,614d7ee6c5fa454c4a6d3fa3,62bbfb3e119f06643ccab67e,2022-06-29_09h13.56.749,Colour_Asymmetry_Pilot,2022.1.3,Win32,59.80145916,62bbe60bf3d75ef465d3e404,0,130,130,8,1,onetwo,,,,,,,,,,,,,,,,,,,,,,,,,,,,,,,,,,,,,,,,,,,,,,,,,,,,,,,,,,,,,,,,,,,,,,,,,,,,,,,,,,,,,,,,,,,,,,,,,,,,,,,,,,,,,,,,,,,,,,,,,,,,,,,,,,,,,,,,,,,,,,,,,,,,,,,,
,,,,,,614d7ee6c5fa454c4a6d3fa3,62bbfb3e119f06643ccab67e,2022-06-29_09h13.56.749,Colour_Asymmetry_Pilot,2022.1.3,Win32,59.80145916,62bbe60bf3d75ef465d3e404,0,131,131,24,1,onetwo,,,,,,,,,,,,,,,,,,,,,,,,,,,,,,,,,,,,,,,,,,,,,,,,,,,,,,,,,,,,,,,,,,,,,,,,,,,,,,,,,,,,,,,,,,,,,,,,,,,,,,,,,,,,,,,,,,,,,,,,,,,,,,,,,,,,,,,,,,,,,,,,,,,,,,,,
,,,,,,614d7ee6c5fa454c4a6d3fa3,62bbfb3e119f06643ccab67e,2022-06-29_09h13.56.749,Colour_Asymmetry_Pilot,2022.1.3,Win32,59.80145916,62bbe60bf3d75ef465d3e404,0,132,132,73,1,onethree,,,,,,,,,,,,,,,,,,,,,,,,,,,,,,,,,,,,,,,,,,,,,,,,,,,,,,,,,,,,,,,,,,,,,,,,,,,,,,,,,,,,,,,,,,,,,,,,,,,,,,,,,,,,,,,,,,,,,,,,,,,,,,,,,,,,,,,,,,,,,,,,,,,,,,,,
,,,,,,614d7ee6c5fa454c4a6d3fa3,62bbfb3e119f06643ccab67e,2022-06-29_09h13.56.749,Colour_Asymmetry_Pilot,2022.1.3,Win32,59.80145916,62bbe60bf3d75ef465d3e404,0,133,133,3,1,twofour,,,,,,,,,,,,,,,,,,,,,,,,,,,,,,,,,,,,,,,,,,,,,,,,,,,,,,,,,,,,,,,,,,,,,,,,,,,,,,,,,,,,,,,,,,,,,,,,,,,,,,,,,,,,,,,,,,,,,,,,,,,,,,,,,,,,,,,,,,,,,,,,,,,,,,,,
,,,,,,614d7ee6c5fa454c4a6d3fa3,62bbfb3e119f06643ccab67e,2022-06-29_09h13.56.749,Colour_Asymmetry_Pilot,2022.1.3,Win32,59.80145916,62bbe60bf3d75ef465d3e404,0,134,134,149,1,threefour,,,,,,,,,,,,,,,,,,,,,,,,,,,,,,,,,,,,,,,,,,,,,,,,,,,,,,,,,,,,,,,,,,,,,,,,,,,,,,,,,,,,,,,,,,,,,,,,,,,,,,,,,,,,,,,,,,,,,,,,,,,,,,,,,,,,,,,,,,,,,,,,,,,,,,,,
,,,,,,614d7ee6c5fa454c4a6d3fa3,62bbfb3e119f06643ccab67e,2022-06-29_09h13.56.749,Colour_Asymmetry_Pilot,2022.1.3,Win32,59.80145916,62bbe60bf3d75ef465d3e404,0,135,135,75,1,twofour,,,,,,,,,,,,,,,,,,,,,,,,,,,,,,,,,,,,,,,,,,,,,,,,,,,,,,,,,,,,,,,,,,,,,,,,,,,,,,,,,,,,,,,,,,,,,,,,,,,,,,,,,,,,,,,,,,,,,,,,,,,,,,,,,,,,,,,,,,,,,,,,,,,,,,,,
,,,,,,614d7ee6c5fa454c4a6d3fa3,62bbfb3e119f06643ccab67e,2022-06-29_09h13.56.749,Colour_Asymmetry_Pilot,2022.1.3,Win32,59.80145916,62bbe60bf3d75ef465d3e404,0,136,136,50,1,twoone,,,,,,,,,,,,,,,,,,,,,,,,,,,,,,,,,,,,,,,,,,,,,,,,,,,,,,,,,,,,,,,,,,,,,,,,,,,,,,,,,,,,,,,,,,,,,,,,,,,,,,,,,,,,,,,,,,,,,,,,,,,,,,,,,,,,,,,,,,,,,,,,,,,,,,,,
,,,,,,614d7ee6c5fa454c4a6d3fa3,62bbfb3e119f06643ccab67e,2022-06-29_09h13.56.749,Colour_Asymmetry_Pilot,2022.1.3,Win32,59.80145916,62bbe60bf3d75ef465d3e404,0,137,137,63,1,fourthree,,,,,,,,,,,,,,,,,,,,,,,,,,,,,,,,,,,,,,,,,,,,,,,,,,,,,,,,,,,,,,,,,,,,,,,,,,,,,,,,,,,,,,,,,,,,,,,,,,,,,,,,,,,,,,,,,,,,,,,,,,,,,,,,,,,,,,,,,,,,,,,,,,,,,,,,
,,,,,,614d7ee6c5fa454c4a6d3fa3,62bbfb3e119f06643ccab67e,2022-06-29_09h13.56.749,Colour_Asymmetry_Pilot,2022.1.3,Win32,59.80145916,62bbe60bf3d75ef465d3e404,0,138,138,43,1,twofour,,,,,,,,,,,,,,,,,,,,,,,,,,,,,,,,,,,,,,,,,,,,,,,,,,,,,,,,,,,,,,,,,,,,,,,,,,,,,,,,,,,,,,,,,,,,,,,,,,,,,,,,,,,,,,,,,,,,,,,,,,,,,,,,,,,,,,,,,,,,,,,,,,,,,,,,
,,,,,,614d7ee6c5fa454c4a6d3fa3,62bbfb3e119f06643ccab67e,2022-06-29_09h13.56.749,Colour_Asymmetry_Pilot,2022.1.3,Win32,59.80145916,62bbe60bf3d75ef465d3e404,0,139,139,128,1,onetwo,,,,,,,,,,,,,,,,,,,,,,,,,,,,,,,,,,,,,,,,,,,,,,,,,,,,,,,,,,,,,,,,,,,,,,,,,,,,,,,,,,,,,,,,,,,,,,,,,,,,,,,,,,,,,,,,,,,,,,,,,,,,,,,,,,,,,,,,,,,,,,,,,,,,,,,,
,,,,,,614d7ee6c5fa454c4a6d3fa3,62bbfb3e119f06643ccab67e,2022-06-29_09h13.56.749,Colour_Asymmetry_Pilot,2022.1.3,Win32,59.80145916,62bbe60bf3d75ef465d3e404,0,140,140,28,1,threeone,,,,,,,,,,,,,,,,,,,,,,,,,,,,,,,,,,,,,,,,,,,,,,,,,,,,,,,,,,,,,,,,,,,,,,,,,,,,,,,,,,,,,,,,,,,,,,,,,,,,,,,,,,,,,,,,,,,,,,,,,,,,,,,,,,,,,,,,,,,,,,,,,,,,,,,,
,,,,,,614d7ee6c5fa454c4a6d3fa3,62bbfb3e119f06643ccab67e,2022-06-29_09h13.56.749,Colour_Asymmetry_Pilot,2022.1.3,Win32,59.80145916,62bbe60bf3d75ef465d3e404,0,141,141,134,1,fourtwo,,,,,,,,,,,,,,,,,,,,,,,,,,,,,,,,,,,,,,,,,,,,,,,,,,,,,,,,,,,,,,,,,,,,,,,,,,,,,,,,,,,,,,,,,,,,,,,,,,,,,,,,,,,,,,,,,,,,,,,,,,,,,,,,,,,,,,,,,,,,,,,,,,,,,,,,
,,,,,,614d7ee6c5fa454c4a6d3fa3,62bbfb3e119f06643ccab67e,2022-06-29_09h13.56.749,Colour_Asymmetry_Pilot,2022.1.3,Win32,59.80145916,62bbe60bf3d75ef465d3e404,0,142,142,121,1,onethree,,,,,,,,,,,,,,,,,,,,,,,,,,,,,,,,,,,,,,,,,,,,,,,,,,,,,,,,,,,,,,,,,,,,,,,,,,,,,,,,,,,,,,,,,,,,,,,,,,,,,,,,,,,,,,,,,,,,,,,,,,,,,,,,,,,,,,,,,,,,,,,,,,,,,,,,
,,,,,,614d7ee6c5fa454c4a6d3fa3,62bbfb3e119f06643ccab67e,2022-06-29_09h13.56.749,Colour_Asymmetry_Pilot,2022.1.3,Win32,59.80145916,62bbe60bf3d75ef465d3e404,0,143,143,1,1,onethree,,,,,,,,,,,,,,,,,,,,,,,,,,,,,,,,,,,,,,,,,,,,,,,,,,,,,,,,,,,,,,,,,,,,,,,,,,,,,,,,,,,,,,,,,,,,,,,,,,,,,,,,,,,,,,,,,,,,,,,,,,,,,,,,,,,,,,,,,,,,,,,,,,,,,,,,
,,,,,,614d7ee6c5fa454c4a6d3fa3,62bbfb3e119f06643ccab67e,2022-06-29_09h13.56.749,Colour_Asymmetry_Pilot,2022.1.3,Win32,59.80145916,62bbe60bf3d75ef465d3e404,0,144,144,122,1,twoone,,,,,,,,,,,,,,,,,,,,,,,,,,,,,,,,,,,,,,,,,,,,,,,,,,,,,,,,,,,,,,,,,,,,,,,,,,,,,,,,,,,,,,,,,,,,,,,,,,,,,,,,,,,,,,,,,,,,,,,,,,,,,,,,,,,,,,,,,,,,,,,,,,,,,,,,
,,,,,,614d7ee6c5fa454c4a6d3fa3,62bbfb3e119f06643ccab67e,2022-06-29_09h13.56.749,Colour_Asymmetry_Pilot,2022.1.3,Win32,59.80145916,62bbe60bf3d75ef465d3e404,0,145,145,22,1,fourtwo,,,,,,,,,,,,,,,,,,,,,,,,,,,,,,,,,,,,,,,,,,,,,,,,,,,,,,,,,,,,,,,,,,,,,,,,,,,,,,,,,,,,,,,,,,,,,,,,,,,,,,,,,,,,,,,,,,,,,,,,,,,,,,,,,,,,,,,,,,,,,,,,,,,,,,,,
,,,,,,614d7ee6c5fa454c4a6d3fa3,62bbfb3e119f06643ccab67e,2022-06-29_09h13.56.749,Colour_Asymmetry_Pilot,2022.1.3,Win32,59.80145916,62bbe60bf3d75ef465d3e404,0,146,146,86,1,fourtwo,,,,,,,,,,,,,,,,,,,,,,,,,,,,,,,,,,,,,,,,,,,,,,,,,,,,,,,,,,,,,,,,,,,,,,,,,,,,,,,,,,,,,,,,,,,,,,,,,,,,,,,,,,,,,,,,,,,,,,,,,,,,,,,,,,,,,,,,,,,,,,,,,,,,,,,,
,,,,,,614d7ee6c5fa454c4a6d3fa3,62bbfb3e119f06643ccab67e,2022-06-29_09h13.56.749,Colour_Asymmetry_Pilot,2022.1.3,Win32,59.80145916,62bbe60bf3d75ef465d3e404,0,147,147,101,1,threefour,,,,,,,,,,,,,,,,,,,,,,,,,,,,,,,,,,,,,,,,,,,,,,,,,,,,,,,,,,,,,,,,,,,,,,,,,,,,,,,,,,,,,,,,,,,,,,,,,,,,,,,,,,,,,,,,,,,,,,,,,,,,,,,,,,,,,,,,,,,,,,,,,,,,,,,,
,,,,,,614d7ee6c5fa454c4a6d3fa3,62bbfb3e119f06643ccab67e,2022-06-29_09h13.56.749,Colour_Asymmetry_Pilot,2022.1.3,Win32,59.80145916,62bbe60bf3d75ef465d3e404,0,148,148,92,1,threeone,,,,,,,,,,,,,,,,,,,,,,,,,,,,,,,,,,,,,,,,,,,,,,,,,,,,,,,,,,,,,,,,,,,,,,,,,,,,,,,,,,,,,,,,,,,,,,,,,,,,,,,,,,,,,,,,,,,,,,,,,,,,,,,,,,,,,,,,,,,,,,,,,,,,,,,,
,,,,,,614d7ee6c5fa454c4a6d3fa3,62bbfb3e119f06643ccab67e,2022-06-29_09h13.56.749,Colour_Asymmetry_Pilot,2022.1.3,Win32,59.80145916,62bbe60bf3d75ef465d3e404,0,149,149,64,1,onetwo,,,,,,,,,,,,,,,,,,,,,,,,,,,,,,,,,,,,,,,,,,,,,,,,,,,,,,,,,,,,,,,,,,,,,,,,,,,,,,,,,,,,,,,,,,,,,,,,,,,,,,,,,,,,,,,,,,,,,,,,,,,,,,,,,,,,,,,,,,,,,,,,,,,,,,,,
,,,,,,614d7ee6c5fa454c4a6d3fa3,62bbfb3e119f06643ccab67e,2022-06-29_09h13.56.749,Colour_Asymmetry_Pilot,2022.1.3,Win32,59.80145916,62bbe60bf3d75ef465d3e404,0,150,150,96,1,onetwo,,,,,,,,,,,,,,,,,,,,,,,,,,,,,,,,,,,,,,,,,,,,,,,,,,,,,,,,,,,,,,,,,,,,,,,,,,,,,,,,,,,,,,,,,,,,,,,,,,,,,,,,,,,,,,,,,,,,,,,,,,,,,,,,,,,,,,,,,,,,,,,,,,,,,,,,
,,,,,,614d7ee6c5fa454c4a6d3fa3,62bbfb3e119f06643ccab67e,2022-06-29_09h13.56.749,Colour_Asymmetry_Pilot,2022.1.3,Win32,59.80145916,62bbe60bf3d75ef465d3e404,0,151,151,40,1,onetwo,,,,,,,,,,,,,,,,,,,,,,,,,,,,,,,,,,,,,,,,,,,,,,,,,,,,,,,,,,,,,,,,,,,,,,,,,,,,,,,,,,,,,,,,,,,,,,,,,,,,,,,,,,,,,,,,,,,,,,,,,,,,,,,,,,,,,,,,,,,,,,,,,,,,,,,,
,,,,,,614d7ee6c5fa454c4a6d3fa3,62bbfb3e119f06643ccab67e,2022-06-29_09h13.56.749,Colour_Asymmetry_Pilot,2022.1.3,Win32,59.80145916,62bbe60bf3d75ef465d3e404,0,152,152,95,1,fourthree,,,,,,,,,,,,,,,,,,,,,,,,,,,,,,,,,,,,,,,,,,,,,,,,,,,,,,,,,,,,,,,,,,,,,,,,,,,,,,,,,,,,,,,,,,,,,,,,,,,,,,,,,,,,,,,,,,,,,,,,,,,,,,,,,,,,,,,,,,,,,,,,,,,,,,,,
,,,,,,614d7ee6c5fa454c4a6d3fa3,62bbfb3e119f06643ccab67e,2022-06-29_09h13.56.749,Colour_Asymmetry_Pilot,2022.1.3,Win32,59.80145916,62bbe60bf3d75ef465d3e404,0,153,153,69,1,threefour,,,,,,,,,,,,,,,,,,,,,,,,,,,,,,,,,,,,,,,,,,,,,,,,,,,,,,,,,,,,,,,,,,,,,,,,,,,,,,,,,,,,,,,,,,,,,,,,,,,,,,,,,,,,,,,,,,,,,,,,,,,,,,,,,,,,,,,,,,,,,,,,,,,,,,,,
,,,,,,614d7ee6c5fa454c4a6d3fa3,62bbfb3e119f06643ccab67e,2022-06-29_09h13.56.749,Colour_Asymmetry_Pilot,2022.1.3,Win32,59.80145916,62bbe60bf3d75ef465d3e404,0,154,154,47,1,fourthree,,,,,,,,,,,,,,,,,,,,,,,,,,,,,,,,,,,,,,,,,,,,,,,,,,,,,,,,,,,,,,,,,,,,,,,,,,,,,,,,,,,,,,,,,,,,,,,,,,,,,,,,,,,,,,,,,,,,,,,,,,,,,,,,,,,,,,,,,,,,,,,,,,,,,,,,
,,,,,,614d7ee6c5fa454c4a6d3fa3,62bbfb3e119f06643ccab67e,2022-06-29_09h13.56.749,Colour_Asymmetry_Pilot,2022.1.3,Win32,59.80145916,62bbe60bf3d75ef465d3e404,0,155,155,84,1,threeone,,,,,,,,,,,,,,,,,,,,,,,,,,,,,,,,,,,,,,,,,,,,,,,,,,,,,,,,,,,,,,,,,,,,,,,,,,,,,,,,,,,,,,,,,,,,,,,,,,,,,,,,,,,,,,,,,,,,,,,,,,,,,,,,,,,,,,,,,,,,,,,,,,,,,,,,
,,,,,,614d7ee6c5fa454c4a6d3fa3,62bbfb3e119f06643ccab67e,2022-06-29_09h13.56.749,Colour_Asymmetry_Pilot,2022.1.3,Win32,59.80145916,62bbe60bf3d75ef465d3e404,0,156,156,16,1,onetwo,,,,,,,,,,,,,,,,,,,,,,,,,,,,,,,,,,,,,,,,,,,,,,,,,,,,,,,,,,,,,,,,,,,,,,,,,,,,,,,,,,,,,,,,,,,,,,,,,,,,,,,,,,,,,,,,,,,,,,,,,,,,,,,,,,,,,,,,,,,,,,,,,,,,,,,,
,,,,,,614d7ee6c5fa454c4a6d3fa3,62bbfb3e119f06643ccab67e,2022-06-29_09h13.56.749,Colour_Asymmetry_Pilot,2022.1.3,Win32,59.80145916,62bbe60bf3d75ef465d3e404,0,157,157,110,1,fourtwo,,,,,,,,,,,,,,,,,,,,,,,,,,,,,,,,,,,,,,,,,,,,,,,,,,,,,,,,,,,,,,,,,,,,,,,,,,,,,,,,,,,,,,,,,,,,,,,,,,,,,,,,,,,,,,,,,,,,,,,,,,,,,,,,,,,,,,,,,,,,,,,,,,,,,,,,
,,,,,,614d7ee6c5fa454c4a6d3fa3,62bbfb3e119f06643ccab67e,2022-06-29_09h13.56.749,Colour_Asymmetry_Pilot,2022.1.3,Win32,59.80145916,62bbe60bf3d75ef465d3e404,0,158,158,155,1,twofour,,,,,,,,,,,,,,,,,,,,,,,,,,,,,,,,,,,,,,,,,,,,,,,,,,,,,,,,,,,,,,,,,,,,,,,,,,,,,,,,,,,,,,,,,,,,,,,,,,,,,,,,,,,,,,,,,,,,,,,,,,,,,,,,,,,,,,,,,,,,,,,,,,,,,,,,
,,,,,,614d7ee6c5fa454c4a6d3fa3,62bbfb3e119f06643ccab67e,2022-06-29_09h13.56.749,Colour_Asymmetry_Pilot,2022.1.3,Win32,59.80145916,62bbe60bf3d75ef465d3e404,0,159,159,118,1,fourtwo,,,,,,,,,,,,,,,,,,,,,,,,,,,,,,,,,,,,,,,,,,,,,,,,,,,,,,,,,,,,,,,,,,,,,,,,,,,,,,,,,,,,,,,,,,,,,,,,,,,,,,,,,,,,,,,,,,,,,,,,,,,,,,,,,,,,,,,,,,,,,,,,,,,,,,,,
,,,,,,614d7ee6c5fa454c4a6d3fa3,62bbfb3e119f06643ccab67e,2022-06-29_09h13.56.749,Colour_Asymmetry_Pilot,2022.1.3,Win32,59.80145916,62bbe60bf3d75ef465d3e404,0,160,160,54,1,fourtwo,,,,,,,,,,,,,,,,,,,,,,,,,,,,,,,,,,,,,,,,,,,,,,,,,,,,,,,,,,,,,,,,,,,,,,,,,,,,,,,,,,,,,,,,,,,,,,,,,,,,,,,,,,,,,,,,,,,,,,,,,,,,,,,,,,,,,,,,,,,,,,,,,,,,,,,,
,,,,,,614d7ee6c5fa454c4a6d3fa3,62bbfb3e119f06643ccab67e,2022-06-29_09h13.56.749,Colour_Asymmetry_Pilot,2022.1.3,Win32,59.80145916,62bbe60bf3d75ef465d3e404,0,161,161,130,1,twoone,,,,,,,,,,,,,,,,,,,,,,,,,,,,,,,,,,,,,,,,,,,,,,,,,,,,,,,,,,,,,,,,,,,,,,,,,,,,,,,,,,,,,,,,,,,,,,,,,,,,,,,,,,,,,,,,,,,,,,,,,,,,,,,,,,,,,,,,,,,,,,,,,,,,,,,,
,,,,,,614d7ee6c5fa454c4a6d3fa3,62bbfb3e119f06643ccab67e,2022-06-29_09h13.56.749,Colour_Asymmetry_Pilot,2022.1.3,Win32,59.80145916,62bbe60bf3d75ef465d3e404,,,,,,,space,12.1711,space,222.8401,space,66.2172,space,12.2667,space,6.5666,space,8.4927,"[-0.8982,-0.37259999999999993,0.2784]",twofour,"[-0.24719999999999998,0.5213999999999999,-0.12959999999999994]",-4,16.235,-54,99,1,0,0,response7disk_5,7,0,1,0,0,rectangle_8,30,-92,1,0,0,response3disk_7,4,1,-1,1,1,0,0,rectangle_4,0,0,0,0,1,,,,,,,,,,,,,,,,,,,,,,,,,,,,,,,,,,,,,,,,,,,,,,,,,,,,,,,,,,,,,,,,,,,,,,,,,,,,,,,,,,,,,,,,,,,,,,,,,,,,,,,,
,,,,,,614d7ee6c5fa454c4a6d3fa3,62bbfb3e119f06643ccab67e,2022-06-29_09h13.56.749,Colour_Asymmetry_Pilot,2022.1.3,Win32,59.80145916,62bbe60bf3d75ef465d3e404,,,,,,,,,,,,,,,,,,,"[-0.34920000000000007,-0.702,-0.5216]",fourtwo,"[-0.4668,-0.8746,-0.2942]",-4,18.0349,-25,84,1,0,0,response7disk_5,4,7,1,0,0,rectangle_8,4,7,1,0,0,,,1,4,7,1,0,0,,1,0,1,0,1,,,,,,,,,,,,,,,,,,,,,,,,,,,,,,,,,,,,,,,,,,,,,,,,,,,,,,,,,,,,,,,,,,,,,,,,,,,,,,,,,,,,,,,,,,,,,,,,,,,,,,,,
,,,,,,614d7ee6c5fa454c4a6d3fa3,62bbfb3e119f06643ccab67e,2022-06-29_09h13.56.749,Colour_Asymmetry_Pilot,2022.1.3,Win32,59.80145916,62bbe60bf3d75ef465d3e404,,,,,,,,,,,,,,,,,,,"[0.9686000000000001,0.5763999999999998,0.11359999999999992]",twofour,"[-0.6,0.16860000000000008,0.44300000000000006]",-4,3.1671,-35,77,1,0,0,response7disk_5,-13,-3,1,0,0,rectangle_8,-13,-3,1,0,0,,,1,-13,-3,1,0,0,,2,0,2,0,1,,,,,,,,,,,,,,,,,,,,,,,,,,,,,,,,,,,,,,,,,,,,,,,,,,,,,,,,,,,,,,,,,,,,,,,,,,,,,,,,,,,,,,,,,,,,,,,,,,,,,,,,
,,,,,,614d7ee6c5fa454c4a6d3fa3,62bbfb3e119f06643ccab67e,2022-06-29_09h13.56.749,Colour_Asymmetry_Pilot,2022.1.3,Win32,59.80145916,62bbe60bf3d75ef465d3e404,,,,,,,,,,,,,,,,,,,"[-0.7412000000000001,-0.08239999999999992,-0.6864]",fourthree,"[0.19199999999999995,0.18419999999999992,0.5136000000000001]",-4,5.9835,-40,68,1,0,0,response7disk_5,-4,12,1,0,0,rectangle_8,-4,12,1,0,0,,,1,-4,12,1,0,0,,3,0,3,0,1,,,,,,,,,,,,,,,,,,,,,,,,,,,,,,,,,,,,,,,,,,,,,,,,,,,,,,,,,,,,,,,,,,,,,,,,,,,,,,,,,,,,,,,,,,,,,,,,,,,,,,,,
,,,,,,614d7ee6c5fa454c4a6d3fa3,62bbfb3e119f06643ccab67e,2022-06-29_09h13.56.749,Colour_Asymmetry_Pilot,2022.1.3,Win32,59.80145916,62bbe60bf3d75ef465d3e404,,,,,,,,,,,,,,,,,,,"[0.9763999999999999,0.30979999999999985,-0.6786]",threefour,"[0.12939999999999996,-0.2864,0.3253999999999999]",-4,2.3001,-35,68,1,0,0,response7disk_5,-3,-3,1,0,0,rectangle_8,-3,-3,1,0,0,,,1,-3,-3,1,0,0,,4,0,4,0,1,,,,,,,,,,,,,,,,,,,,,,,,,,,,,,,,,,,,,,,,,,,,,,,,,,,,,,,,,,,,,,,,,,,,,,,,,,,,,,,,,,,,,,,,,,,,,,,,,,,,,,,,
,,,,,,614d7ee6c5fa454c4a6d3fa3,62bbfb3e119f06643ccab67e,2022-06-29_09h13.56.749,Colour_Asymmetry_Pilot,2022.1.3,Win32,59.80145916,62bbe60bf3d75ef465d3e404,,,,,,,,,,,,,,,,,,,"[0.30180000000000007,-0.7884,-0.9844]",fourtwo,"[-0.30200000000000005,0.14500000000000002,0.2784]",-4,4.3322,-33,90,1,0,0,response7disk_5,9,-5,1,0,0,rectangle_8,44,-77,1,0,0,response3disk_7,4,1,-1,8,1,0,0,rectangle_4,5,0,5,0,1,,,,,,,,,,,,,,,,,,,,,,,,,,,,,,,,,,,,,,,,,,,,,,,,,,,,,,,,,,,,,,,,,,,,,,,,,,,,,,,,,,,,,,,,,,,,,,,,,,,,,,,,
,,,,,,614d7ee6c5fa454c4a6d3fa3,62bbfb3e119f06643ccab67e,2022-06-29_09h13.56.749,Colour_Asymmetry_Pilot,2022.1.3,Win32,59.80145916,62bbe60bf3d75ef465d3e404,,,,,,,,,,,,,,,,,,,"[0.23120000000000007,-0.7726,-0.34120000000000006]",twofour,"[0.37240000000000006,-0.050999999999999934,-0.5216]",4,4.7838,54,98,1,0,0,response1disk_5,7,9,1,0,0,rectangle_8,7,9,1,0,0,,,1,7,9,1,0,0,,6,0,6,0,1,,,,,,,,,,,,,,,,,,,,,,,,,,,,,,,,,,,,,,,,,,,,,,,,,,,,,,,,,,,,,,,,,,,,,,,,,,,,,,,,,,,,,,,,,,,,,,,,,,,,,,,,
,,,,,,614d7ee6c5fa454c4a6d3fa3,62bbfb3e119f06643ccab67e,2022-06-29_09h13.56.749,Colour_Asymmetry_Pilot,2022.1.3,Win32,59.80145916,62bbe60bf3d75ef465d3e404,,,,,,,,,,,,,,,,,,,,threefour,,4,2.4018,,,,,,,,,,,,,,,,,,,,,,,,,,,,,,,,space,7.4598,"[0.23120000000000007,-0.7726,-0.34120000000000006]","[0.3881999999999999,-0.23939999999999995,-0.05040000000000011]",35,74,1,0,0,response1disk,3,11,1,0,0,rectangle,3,11,1,0,0,,3,0.002,0,3,11,1,0,0,0,0,0,113,1,32,second,,,,,,,,,,,,,,,,,,,,,,,,,,,,,,,,,,,,,,,,,,,,,,,,,,,,,,,,,,,,,,,,,,,
,,,,,,614d7ee6c5fa454c4a6d3fa3,62bbfb3e119f06643ccab67e,2022-06-29_09h13.56.749,Colour_Asymmetry_Pilot,2022.1.3,Win32,59.80145916,62bbe60bf3d75ef465d3e404,,,,,,,,,,,,,,,,,,,,twoone,,-4,1.3004,,,,,,,,,,,,,,,,,,,,,,,,,,,,,,,,,,"[-0.06680000000000008,-0.45100000000000007,-0.906]","[-0.24719999999999998,-0.0354000000000001,0.3175999999999999]",-41,99,1,0,0,response7disk,3,-5,1,0,0,rectangle,3,-5,1,0,0,,3,0.0002,0,3,-5,1,0,0,0,1,1,56,1,56,first,,,,,,,,,,,,,,,,,,,,,,,,,,,,,,,,,,,,,,,,,,,,,,,,,,,,,,,,,,,,,,,,,,,
,,,,,,614d7ee6c5fa454c4a6d3fa3,62bbfb3e119f06643ccab67e,2022-06-29_09h13.56.749,Colour_Asymmetry_Pilot,2022.1.3,Win32,59.80145916,62bbe60bf3d75ef465d3e404,,,,,,,,,,,,,,,,,,,,onetwo,,-4,1.532,,,,,,,,,,,,,,,,,,,,,,,,,,,,,,,,,,"[-0.20799999999999996,-0.655,-0.01980000000000004]","[0.796,0.2156,-0.27859999999999996]",-34,70,1,0,0,response7disk,-6,3,1,0,0,rectangle,-6,3,1,0,0,,2,0.002,0,-6,3,1,0,0,0,2,2,142,1,61,second,,,,,,,,,,,,,,,,,,,,,,,,,,,,,,,,,,,,,,,,,,,,,,,,,,,,,,,,,,,,,,,,,,,
,,,,,,614d7ee6c5fa454c4a6d3fa3,62bbfb3e119f06643ccab67e,2022-06-29_09h13.56.749,Colour_Asymmetry_Pilot,2022.1.3,Win32,59.80145916,62bbe60bf3d75ef465d3e404,,,,,,,,,,,,,,,,,,,,threeone,,4,1.5999,,,,,,,,,,,,,,,,,,,,,,,,,,,,,,,,,,"[0.3568,-0.20799999999999996,-0.9844]","[0.6547999999999998,-0.043199999999999905,-0.011800000000000033]",30,62,1,0,0,response1disk,-6,-3,1,0,0,rectangle,-6,-3,1,0,0,,2,0.0002,0,-6,-3,1,0,0,0,3,3,17,1,17,first,,,,,,,,,,,,,,,,,,,,,,,,,,,,,,,,,,,,,,,,,,,,,,,,,,,,,,,,,,,,,,,,,,,
,,,,,,614d7ee6c5fa454c4a6d3fa3,62bbfb3e119f06643ccab67e,2022-06-29_09h13.56.749,Colour_Asymmetry_Pilot,2022.1.3,Win32,59.80145916,62bbe60bf3d75ef465d3e404,,,,,,,,,,,,,,,,,,,,twofour,,-4,3.8169,,,,,,,,,,,,,,,,,,,,,,,,,,,,,,,,,,"[-0.4746,-0.0354000000000001,0.5449999999999999]","[0.37240000000000006,0.4980000000000002,-0.2864]",-39,100,1,0,0,response7disk,14,-11,1,0,0,rectangle,14,-11,1,0,0,,2,0.0003,0,14,-11,1,0,0,0,4,4,143,1,62,second,,,,,,,,,,,,,,,,,,,,,,,,,,,,,,,,,,,,,,,,,,,,,,,,,,,,,,,,,,,,,,,,,,,
,,,,,,614d7ee6c5fa454c4a6d3fa3,62bbfb3e119f06643ccab67e,2022-06-29_09h13.56.749,Colour_Asymmetry_Pilot,2022.1.3,Win32,59.80145916,62bbe60bf3d75ef465d3e404,,,,,,,,,,,,,,,,,,,,fourthree,,-4,2.7684,,,,,,,,,,,,,,,,,,,,,,,,,,,,,,,,,,"[0.7018,0.7802,-0.16079999999999994]","[-0.2942,-0.7648,-0.7492000000000001]",-21,71,1,0,0,response7disk,0,4,1,0,0,rectangle,71,-48,1,0,0,2,2,3.9684,1,2,15,1,0,0,0,5,5,55,1,55,first,response3disk_3,rectangle,,,,,,,,,,,,,,,,,,,,,,,,,,,,,,,,,,,,,,,,,,,,,,,,,,,,,,,,,,,,,,,,,
,,,,,,614d7ee6c5fa454c4a6d3fa3,62bbfb3e119f06643ccab67e,2022-06-29_09h13.56.749,Colour_Asymmetry_Pilot,2022.1.3,Win32,59.80145916,62bbe60bf3d75ef465d3e404,,,,,,,,,,,,,,,,,,,,fourtwo,,-4,2.734,,,,,,,,,,,,,,,,,,,,,,,,,,,,,,,,,,"[0.9686000000000001,0.5763999999999998,0.11359999999999992]","[0.2784,-0.31000000000000005,-0.5452]",-42,74,1,0,0,response7disk,10,7,1,0,0,rectangle,10,7,1,0,0,2,3,0.0028,0,10,7,1,0,0,0,6,6,54,1,54,first,,,,,,,,,,,,,,,,,,,,,,,,,,,,,,,,,,,,,,,,,,,,,,,,,,,,,,,,,,,,,,,,,,,
,,,,,,614d7ee6c5fa454c4a6d3fa3,62bbfb3e119f06643ccab67e,2022-06-29_09h13.56.749,Colour_Asymmetry_Pilot,2022.1.3,Win32,59.80145916,62bbe60bf3d75ef465d3e404,,,,,,,,,,,,,,,,,,,,twoone,,-4,3.6336,,,,,,,,,,,,,,,,,,,,,,,,,,,,,,,,,,"[-0.4902000000000001,0.2704,-0.45899999999999996]","[-0.38039999999999996,-0.4276,-0.1452]",-34,77,1,0,0,response7disk,-9,1,1,0,0,rectangle,-9,1,1,0,0,2,1,0.0027,0,-9,1,1,0,0,0,7,7,147,1,66,second,,,,,,,,,,,,,,,,,,,,,,,,,,,,,,,,,,,,,,,,,,,,,,,,,,,,,,,,,,,,,,,,,,,
,,,,,,614d7ee6c5fa454c4a6d3fa3,62bbfb3e119f06643ccab67e,2022-06-29_09h13.56.749,Colour_Asymmetry_Pilot,2022.1.3,Win32,59.80145916,62bbe60bf3d75ef465d3e404,,,,,,,,,,,,,,,,,,,,threeone,,4,1.9999,,,,,,,,,,,,,,,,,,,,,,,,,,,,,,,,,,"[0.05879999999999996,0.2784,0.5841999999999998]","[-0.2942,-0.24719999999999998,-0.357]",39,94,1,0,0,response1disk,-6,-8,1,0,0,rectangle,-6,-8,1,0,0,2,1,0.0002,0,-6,-8,1,0,0,0,8,8,106,1,25,second,,,,,,,,,,,,,,,,,,,,,,,,,,,,,,,,,,,,,,,,,,,,,,,,,,,,,,,,,,,,,,,,,,,
,,,,,,614d7ee6c5fa454c4a6d3fa3,62bbfb3e119f06643ccab67e,2022-06-29_09h13.56.749,Colour_Asymmetry_Pilot,2022.1.3,Win32,59.80145916,62bbe60bf3d75ef465d3e404,,,,,,,,,,,,,,,,,,,,onethree,,-4,1.7829,,,,,,,,,,,,,,,,,,,,,,,,,,,,,,,,,,"[0.8115999999999999,-0.0040000000000000036,-0.09819999999999995]","[-0.24719999999999998,-0.0354000000000001,0.3175999999999999]",-39,89,1,0,0,response7disk,-9,2,1,0,0,rectangle,-9,2,1,0,0,2,2,0.0026,0,-9,2,1,0,0,0,9,9,120,1,39,second,,,,,,,,,,,,,,,,,,,,,,,,,,,,,,,,,,,,,,,,,,,,,,,,,,,,,,,,,,,,,,,,,,,
,,,,,,614d7ee6c5fa454c4a6d3fa3,62bbfb3e119f06643ccab67e,2022-06-29_09h13.56.749,Colour_Asymmetry_Pilot,2022.1.3,Win32,59.80145916,62bbe60bf3d75ef465d3e404,,,,,,,,,,,,,,,,,,,,onetwo,,4,1.5515,,,,,,,,,,,,,,,,,,,,,,,,,,,,,,,,,,"[-0.9688,-0.4902000000000001,-0.12159999999999993]","[-0.4982,-0.2942,-0.0354000000000001]",48,85,1,0,0,response1disk,0,12,1,0,0,rectangle,0,12,1,0,0,2,1,0.0026,0,0,12,1,0,0,0,10,10,27,1,27,first,,,,,,,,,,,,,,,,,,,,,,,,,,,,,,,,,,,,,,,,,,,,,,,,,,,,,,,,,,,,,,,,,,,
,,,,,,614d7ee6c5fa454c4a6d3fa3,62bbfb3e119f06643ccab67e,2022-06-29_09h13.56.749,Colour_Asymmetry_Pilot,2022.1.3,Win32,59.80145916,62bbe60bf3d75ef465d3e404,,,,,,,,,,,,,,,,,,,,fourtwo,,-4,0.937,,,,,,,,,,,,,,,,,,,,,,,,,,,,,,,,,,"[0.7018,0.7176,0.6155999999999999]","[0.7176,-0.906,-0.6864]",-53,82,1,0,0,response7disk,-2,8,1,0,0,rectangle,-2,8,1,0,0,2,1,0.0002,0,-2,8,1,0,0,0,11,11,33,1,33,first,,,,,,,,,,,,,,,,,,,,,,,,,,,,,,,,,,,,,,,,,,,,,,,,,,,,,,,,,,,,,,,,,,,
,,,,,,614d7ee6c5fa454c4a6d3fa3,62bbfb3e119f06643ccab67e,2022-06-29_09h13.56.749,Colour_Asymmetry_Pilot,2022.1.3,Win32,59.80145916,62bbe60bf3d75ef465d3e404,,,,,,,,,,,,,,,,,,,,threefour,,-4,1.6676,,,,,,,,,,,,,,,,,,,,,,,,,,,,,,,,,,"[-0.9766,-0.6472,0.07440000000000002]","[-0.45899999999999996,-0.3256,-0.9374]",-25,68,1,0,0,response7disk,0,-7,1,0,0,rectangle,0,-7,1,0,0,2,2,0.0024,0,0,-7,1,0,0,0,12,12,12,1,12,first,,,,,,,,,,,,,,,,,,,,,,,,,,,,,,,,,,,,,,,,,,,,,,,,,,,,,,,,,,,,,,,,,,,
,,,,,,614d7ee6c5fa454c4a6d3fa3,62bbfb3e119f06643ccab67e,2022-06-29_09h13.56.749,Colour_Asymmetry_Pilot,2022.1.3,Win32,59.80145916,62bbe60bf3d75ef465d3e404,,,,,,,,,,,,,,,,,,,,fourtwo,,-4,0.8843,,,,,,,,,,,,,,,,,,,,,,,,,,,,,,,,,,"[-0.9688,-0.7412000000000001,-0.4902000000000001]","[0.7646000000000002,0.07440000000000002,0.2704]",-32,65,1,0,0,response7disk,-1,0,1,0,0,rectangle,-1,0,1,0,0,2,2,0.0002,0,-1,0,1,0,0,0,13,13,144,1,63,second,,,,,,,,,,,,,,,,,,,,,,,,,,,,,,,,,,,,,,,,,,,,,,,,,,,,,,,,,,,,,,,,,,,
,,,,,,614d7ee6c5fa454c4a6d3fa3,62bbfb3e119f06643ccab67e,2022-06-29_09h13.56.749,Colour_Asymmetry_Pilot,2022.1.3,Win32,59.80145916,62bbe60bf3d75ef465d3e404,,,,,,,,,,,,,,,,,,,,onethree,,-4,1.1508,,,,,,,,,,,,,,,,,,,,,,,,,,,,,,,,,,"[-0.8982,-0.37259999999999993,0.2784]","[1,0.12939999999999996,-1]",-37,88,1,0,0,response7disk,-3,4,1,0,0,rectangle,-3,4,1,0,0,2,2,0.0002,0,-3,4,1,0,0,0,14,14,72,1,72,first,,,,,,,,,,,,,,,,,,,,,,,,,,,,,,,,,,,,,,,,,,,,,,,,,,,,,,,,,,,,,,,,,,,
,,,,,,614d7ee6c5fa454c4a6d3fa3,62bbfb3e119f06643ccab67e,2022-06-29_09h13.56.749,Colour_Asymmetry_Pilot,2022.1.3,Win32,59.80145916,62bbe60bf3d75ef465d3e404,,,,,,,,,,,,,,,,,,,,threefour,,-4,1.6341,,,,,,,,,,,,,,,,,,,,,,,,,,,,,,,,,,"[-0.8118,-0.8198,-0.5452]","[0.40379999999999994,0.09000000000000008,0.44300000000000006]",-34,99,1,0,0,response7disk,4,5,1,0,0,rectangle,4,5,1,0,0,2,2,1E-04,0,4,5,1,0,0,0,15,15,38,1,38,first,,,,,,,,,,,,,,,,,,,,,,,,,,,,,,,,,,,,,,,,,,,,,,,,,,,,,,,,,,,,,,,,,,,
,,,,,,614d7ee6c5fa454c4a6d3fa3,62bbfb3e119f06643ccab67e,2022-06-29_09h13.56.749,Colour_Asymmetry_Pilot,2022.1.3,Win32,59.80145916,62bbe60bf3d75ef465d3e404,,,,,,,,,,,,,,,,,,,,onethree,,4,0.902,,,,,,,,,,,,,,,,,,,,,,,,,,,,,,,,,,"[-0.4276,0.0038000000000000256,-0.3256]","[-0.48240000000000005,0.3175999999999999,0.2156]",32,70,1,0,0,response1disk,7,7,1,0,0,rectangle,7,7,1,0,0,2,2,0.0002,0,7,7,1,0,0,0,16,16,0,1,0,first,,,,,,,,,,,,,,,,,,,,,,,,,,,,,,,,,,,,,,,,,,,,,,,,,,,,,,,,,,,,,,,,,,,
,,,,,,614d7ee6c5fa454c4a6d3fa3,62bbfb3e119f06643ccab67e,2022-06-29_09h13.56.749,Colour_Asymmetry_Pilot,2022.1.3,Win32,59.80145916,62bbe60bf3d75ef465d3e404,,,,,,,,,,,,,,,,,,,,fourthree,,-4,1.132,,,,,,,,,,,,,,,,,,,,,,,,,,,,,,,,,,"[0.40379999999999994,0.09000000000000008,0.44300000000000006]","[-0.8118,-0.8198,-0.5452]",-23,78,1,0,0,response7disk,-6,4,1,0,0,rectangle,-6,4,1,0,0,2,2,0.0003,0,-6,4,1,0,0,0,17,17,119,1,38,second,,,,,,,,,,,,,,,,,,,,,,,,,,,,,,,,,,,,,,,,,,,,,,,,,,,,,,,,,,,,,,,,,,,
,,,,,,614d7ee6c5fa454c4a6d3fa3,62bbfb3e119f06643ccab67e,2022-06-29_09h13.56.749,Colour_Asymmetry_Pilot,2022.1.3,Win32,59.80145916,62bbe60bf3d75ef465d3e404,,,,,,,,,,,,,,,,,,,,twoone,,-4,0.784,,,,,,,,,,,,,,,,,,,,,,,,,,,,,,,,,,"[-0.24719999999999998,0.5213999999999999,-0.12959999999999994]","[0.12939999999999996,-0.2864,0.3253999999999999]",-43,71,1,0,0,response7disk,-11,4,1,0,0,rectangle,-11,4,1,0,0,2,3,0.0025,0,-11,4,1,0,0,0,18,18,122,1,41,second,,,,,,,,,,,,,,,,,,,,,,,,,,,,,,,,,,,,,,,,,,,,,,,,,,,,,,,,,,,,,,,,,,,
,,,,,,614d7ee6c5fa454c4a6d3fa3,62bbfb3e119f06643ccab67e,2022-06-29_09h13.56.749,Colour_Asymmetry_Pilot,2022.1.3,Win32,59.80145916,62bbe60bf3d75ef465d3e404,,,,,,,,,,,,,,,,,,,,threeone,,4,0.9339,,,,,,,,,,,,,,,,,,,,,,,,,,,,,,,,,,"[-0.5922000000000001,-0.7492000000000001,-0.5296000000000001]","[-0.9688,-0.38039999999999996,-0.41979999999999995]",28,52,1,0,0,response1disk,9,8,1,0,0,rectangle,9,8,1,0,0,2,1,0.0026,0,9,8,1,0,0,0,19,19,71,1,71,first,,,,,,,,,,,,,,,,,,,,,,,,,,,,,,,,,,,,,,,,,,,,,,,,,,,,,,,,,,,,,,,,,,,
,,,,,,614d7ee6c5fa454c4a6d3fa3,62bbfb3e119f06643ccab67e,2022-06-29_09h13.56.749,Colour_Asymmetry_Pilot,2022.1.3,Win32,59.80145916,62bbe60bf3d75ef465d3e404,,,,,,,,,,,,,,,,,,,,fourtwo,,-4,0.917,,,,,,,,,,,,,,,,,,,,,,,,,,,,,,,,,,"[-0.9688,-0.7412000000000001,-0.4902000000000001]","[0.40379999999999994,0.09000000000000008,0.44300000000000006]",-35,79,1,0,0,response7disk,-9,7,1,0,0,rectangle,-9,7,1,0,0,2,3,0.0014,0,-9,7,1,0,0,0,20,20,22,1,22,first,,,,,,,,,,,,,,,,,,,,,,,,,,,,,,,,,,,,,,,,,,,,,,,,,,,,,,,,,,,,,,,,,,,
