trials.thisRepN,trials.thisTrialN,trials.thisN,trials.thisIndex,trials.ran,Colourcodes,participant,session,date,expName,psychopyVersion,OS,frameRate,study_id,trials_4.thisRepN,trials_4.thisTrialN,trials_4.thisN,trials_4.thisIndex,trials_4.ran,StimulusPos,key_resp.keys,key_resp.rt,key_resp_2.keys,key_resp_2.rt,key_resp_15.keys,key_resp_15.rt,key_resp_17.keys,key_resp_17.rt,key_resp_9.keys,key_resp_9.rt,key_resp_10.keys,key_resp_10.rt,Circle1_col,Ecc,Circle2_col,similarity,response_time,mouse_5.x,mouse_5.y,mouse_5.leftButton,mouse_5.midButton,mouse_5.rightButton,mouse_5.clicked_name,mouse_10.x,mouse_10.y,mouse_10.leftButton,mouse_10.midButton,mouse_10.rightButton,mouse_10.clicked_name,mouse_7.x,mouse_7.y,mouse_7.leftButton,mouse_7.midButton,mouse_7.rightButton,mouse_7.clicked_name,catchprac,catchnumberprac,mouse_6.x,mouse_6.y,mouse_6.leftButton,mouse_6.midButton,mouse_6.rightButton,mouse_6.clicked_name,duringprac.thisRepN,duringprac.thisTrialN,duringprac.thisN,duringprac.thisIndex,duringprac.ran,key_resp_22.keys,key_resp_22.rt,Circle1_colour,Circle2_colour,mouse.x,mouse.y,mouse.leftButton,mouse.midButton,mouse.rightButton,mouse.clicked_name,mouse_2.x,mouse_2.y,mouse_2.leftButton,mouse_2.midButton,mouse_2.rightButton,mouse_2.clicked_name,mouse_3.x,mouse_3.y,mouse_3.leftButton,mouse_3.midButton,mouse_3.rightButton,mouse_3.clicked_name,catchresponse,catchnumber,response_time_catch,Catch,mouse_11.x,mouse_11.y,mouse_11.leftButton,mouse_11.midButton,mouse_11.rightButton,mouse_11.clicked_name,trials_2.thisRepN,trials_2.thisTrialN,trials_2.thisN,trials_2.thisIndex,trials_2.ran,Colourpair,Temporder,trials_3.thisRepN,trials_3.thisTrialN,trials_3.thisN,trials_3.thisIndex,trials_3.ran,key_resp_instr_Ishi.keys,key_resp_instr_Ishi.rt,Ishi_trial_keyresp.keys,Ishi_trial_keyresp.rt,Ishi_textbox.text,Ishi_loop.thisRepN,Ishi_loop.thisTrialN,Ishi_loop.thisN,Ishi_loop.thisIndex,Ishi_loop.ran,imageaddress,textbox.text,mouse_4.x,mouse_4.y,mouse_4.leftButton,mouse_4.midButton,mouse_4.rightButton,mouse_4.clicked_name,textbox_2.text,mouse_8.x,mouse_8.y,mouse_8.leftButton,mouse_8.midButton,mouse_8.rightButton,mouse_8.clicked_name,textbox_3.text,mouse_9.x,mouse_9.y,mouse_9.leftButton,mouse_9.midButton,mouse_9.rightButton,mouse_9.clicked_name,textbox_4.text,mouse_12.x,mouse_12.y,mouse_12.leftButton,mouse_12.midButton,mouse_12.rightButton,mouse_12.clicked_name,textbox_5.text,mouse_13.x,mouse_13.y,mouse_13.leftButton,mouse_13.midButton,mouse_13.rightButton,mouse_13.clicked_name,textbox_6.text,mouse_14.x,mouse_14.y,mouse_14.leftButton,mouse_14.midButton,mouse_14.rightButton,textbox_7.text,mouse_15.x,mouse_15.y,mouse_15.leftButton,mouse_15.midButton,mouse_15.rightButton,mouse_15.clicked_name
0,0,0,39,1,,5f843d6c842a0b04ab2faedb,62b2ad6c1e2691638a7866f0,2022-06-22_07h49.56.985,Colour_Asymmetry_Pilot,2022.1.3,Win32,59.95203837,62b2a6a25f2ba72662469a01,,,,,,,,,,,,,,,,,,,,,,,,,,,,,,,,,,,,,,,,,,,,,,,,,,,,,,,,,,,,,,,,,,,,,,,,,,,,,,,,,,,,,,,,,,,,,,,,,,,,,,,,,,,,,,,,,,,,,,,,,,,,,,,,,,,,,,,,,,,,,,,,,,,,,,,,,,,,,
0,1,1,11,1,,5f843d6c842a0b04ab2faedb,62b2ad6c1e2691638a7866f0,2022-06-22_07h49.56.985,Colour_Asymmetry_Pilot,2022.1.3,Win32,59.95203837,62b2a6a25f2ba72662469a01,,,,,,,,,,,,,,,,,,,,,,,,,,,,,,,,,,,,,,,,,,,,,,,,,,,,,,,,,,,,,,,,,,,,,,,,,,,,,,,,,,,,,,,,,,,,,,,,,,,,,,,,,,,,,,,,,,,,,,,,,,,,,,,,,,,,,,,,,,,,,,,,,,,,,,,,,,,,,
0,2,2,44,1,,5f843d6c842a0b04ab2faedb,62b2ad6c1e2691638a7866f0,2022-06-22_07h49.56.985,Colour_Asymmetry_Pilot,2022.1.3,Win32,59.95203837,62b2a6a25f2ba72662469a01,,,,,,,,,,,,,,,,,,,,,,,,,,,,,,,,,,,,,,,,,,,,,,,,,,,,,,,,,,,,,,,,,,,,,,,,,,,,,,,,,,,,,,,,,,,,,,,,,,,,,,,,,,,,,,,,,,,,,,,,,,,,,,,,,,,,,,,,,,,,,,,,,,,,,,,,,,,,,
0,3,3,51,1,,5f843d6c842a0b04ab2faedb,62b2ad6c1e2691638a7866f0,2022-06-22_07h49.56.985,Colour_Asymmetry_Pilot,2022.1.3,Win32,59.95203837,62b2a6a25f2ba72662469a01,,,,,,,,,,,,,,,,,,,,,,,,,,,,,,,,,,,,,,,,,,,,,,,,,,,,,,,,,,,,,,,,,,,,,,,,,,,,,,,,,,,,,,,,,,,,,,,,,,,,,,,,,,,,,,,,,,,,,,,,,,,,,,,,,,,,,,,,,,,,,,,,,,,,,,,,,,,,,
0,4,4,78,1,,5f843d6c842a0b04ab2faedb,62b2ad6c1e2691638a7866f0,2022-06-22_07h49.56.985,Colour_Asymmetry_Pilot,2022.1.3,Win32,59.95203837,62b2a6a25f2ba72662469a01,,,,,,,,,,,,,,,,,,,,,,,,,,,,,,,,,,,,,,,,,,,,,,,,,,,,,,,,,,,,,,,,,,,,,,,,,,,,,,,,,,,,,,,,,,,,,,,,,,,,,,,,,,,,,,,,,,,,,,,,,,,,,,,,,,,,,,,,,,,,,,,,,,,,,,,,,,,,,
0,5,5,21,1,,5f843d6c842a0b04ab2faedb,62b2ad6c1e2691638a7866f0,2022-06-22_07h49.56.985,Colour_Asymmetry_Pilot,2022.1.3,Win32,59.95203837,62b2a6a25f2ba72662469a01,,,,,,,,,,,,,,,,,,,,,,,,,,,,,,,,,,,,,,,,,,,,,,,,,,,,,,,,,,,,,,,,,,,,,,,,,,,,,,,,,,,,,,,,,,,,,,,,,,,,,,,,,,,,,,,,,,,,,,,,,,,,,,,,,,,,,,,,,,,,,,,,,,,,,,,,,,,,,
0,6,6,67,1,,5f843d6c842a0b04ab2faedb,62b2ad6c1e2691638a7866f0,2022-06-22_07h49.56.985,Colour_Asymmetry_Pilot,2022.1.3,Win32,59.95203837,62b2a6a25f2ba72662469a01,,,,,,,,,,,,,,,,,,,,,,,,,,,,,,,,,,,,,,,,,,,,,,,,,,,,,,,,,,,,,,,,,,,,,,,,,,,,,,,,,,,,,,,,,,,,,,,,,,,,,,,,,,,,,,,,,,,,,,,,,,,,,,,,,,,,,,,,,,,,,,,,,,,,,,,,,,,,,
0,7,7,13,1,,5f843d6c842a0b04ab2faedb,62b2ad6c1e2691638a7866f0,2022-06-22_07h49.56.985,Colour_Asymmetry_Pilot,2022.1.3,Win32,59.95203837,62b2a6a25f2ba72662469a01,,,,,,,,,,,,,,,,,,,,,,,,,,,,,,,,,,,,,,,,,,,,,,,,,,,,,,,,,,,,,,,,,,,,,,,,,,,,,,,,,,,,,,,,,,,,,,,,,,,,,,,,,,,,,,,,,,,,,,,,,,,,,,,,,,,,,,,,,,,,,,,,,,,,,,,,,,,,,
0,8,8,82,1,,5f843d6c842a0b04ab2faedb,62b2ad6c1e2691638a7866f0,2022-06-22_07h49.56.985,Colour_Asymmetry_Pilot,2022.1.3,Win32,59.95203837,62b2a6a25f2ba72662469a01,,,,,,,,,,,,,,,,,,,,,,,,,,,,,,,,,,,,,,,,,,,,,,,,,,,,,,,,,,,,,,,,,,,,,,,,,,,,,,,,,,,,,,,,,,,,,,,,,,,,,,,,,,,,,,,,,,,,,,,,,,,,,,,,,,,,,,,,,,,,,,,,,,,,,,,,,,,,,
0,9,9,35,1,,5f843d6c842a0b04ab2faedb,62b2ad6c1e2691638a7866f0,2022-06-22_07h49.56.985,Colour_Asymmetry_Pilot,2022.1.3,Win32,59.95203837,62b2a6a25f2ba72662469a01,,,,,,,,,,,,,,,,,,,,,,,,,,,,,,,,,,,,,,,,,,,,,,,,,,,,,,,,,,,,,,,,,,,,,,,,,,,,,,,,,,,,,,,,,,,,,,,,,,,,,,,,,,,,,,,,,,,,,,,,,,,,,,,,,,,,,,,,,,,,,,,,,,,,,,,,,,,,,
0,10,10,68,1,,5f843d6c842a0b04ab2faedb,62b2ad6c1e2691638a7866f0,2022-06-22_07h49.56.985,Colour_Asymmetry_Pilot,2022.1.3,Win32,59.95203837,62b2a6a25f2ba72662469a01,,,,,,,,,,,,,,,,,,,,,,,,,,,,,,,,,,,,,,,,,,,,,,,,,,,,,,,,,,,,,,,,,,,,,,,,,,,,,,,,,,,,,,,,,,,,,,,,,,,,,,,,,,,,,,,,,,,,,,,,,,,,,,,,,,,,,,,,,,,,,,,,,,,,,,,,,,,,,
0,11,11,57,1,,5f843d6c842a0b04ab2faedb,62b2ad6c1e2691638a7866f0,2022-06-22_07h49.56.985,Colour_Asymmetry_Pilot,2022.1.3,Win32,59.95203837,62b2a6a25f2ba72662469a01,,,,,,,,,,,,,,,,,,,,,,,,,,,,,,,,,,,,,,,,,,,,,,,,,,,,,,,,,,,,,,,,,,,,,,,,,,,,,,,,,,,,,,,,,,,,,,,,,,,,,,,,,,,,,,,,,,,,,,,,,,,,,,,,,,,,,,,,,,,,,,,,,,,,,,,,,,,,,
0,12,12,31,1,,5f843d6c842a0b04ab2faedb,62b2ad6c1e2691638a7866f0,2022-06-22_07h49.56.985,Colour_Asymmetry_Pilot,2022.1.3,Win32,59.95203837,62b2a6a25f2ba72662469a01,,,,,,,,,,,,,,,,,,,,,,,,,,,,,,,,,,,,,,,,,,,,,,,,,,,,,,,,,,,,,,,,,,,,,,,,,,,,,,,,,,,,,,,,,,,,,,,,,,,,,,,,,,,,,,,,,,,,,,,,,,,,,,,,,,,,,,,,,,,,,,,,,,,,,,,,,,,,,
0,13,13,55,1,,5f843d6c842a0b04ab2faedb,62b2ad6c1e2691638a7866f0,2022-06-22_07h49.56.985,Colour_Asymmetry_Pilot,2022.1.3,Win32,59.95203837,62b2a6a25f2ba72662469a01,,,,,,,,,,,,,,,,,,,,,,,,,,,,,,,,,,,,,,,,,,,,,,,,,,,,,,,,,,,,,,,,,,,,,,,,,,,,,,,,,,,,,,,,,,,,,,,,,,,,,,,,,,,,,,,,,,,,,,,,,,,,,,,,,,,,,,,,,,,,,,,,,,,,,,,,,,,,,
0,14,14,75,1,,5f843d6c842a0b04ab2faedb,62b2ad6c1e2691638a7866f0,2022-06-22_07h49.56.985,Colour_Asymmetry_Pilot,2022.1.3,Win32,59.95203837,62b2a6a25f2ba72662469a01,,,,,,,,,,,,,,,,,,,,,,,,,,,,,,,,,,,,,,,,,,,,,,,,,,,,,,,,,,,,,,,,,,,,,,,,,,,,,,,,,,,,,,,,,,,,,,,,,,,,,,,,,,,,,,,,,,,,,,,,,,,,,,,,,,,,,,,,,,,,,,,,,,,,,,,,,,,,,
0,15,15,5,1,,5f843d6c842a0b04ab2faedb,62b2ad6c1e2691638a7866f0,2022-06-22_07h49.56.985,Colour_Asymmetry_Pilot,2022.1.3,Win32,59.95203837,62b2a6a25f2ba72662469a01,,,,,,,,,,,,,,,,,,,,,,,,,,,,,,,,,,,,,,,,,,,,,,,,,,,,,,,,,,,,,,,,,,,,,,,,,,,,,,,,,,,,,,,,,,,,,,,,,,,,,,,,,,,,,,,,,,,,,,,,,,,,,,,,,,,,,,,,,,,,,,,,,,,,,,,,,,,,,
0,16,16,89,1,,5f843d6c842a0b04ab2faedb,62b2ad6c1e2691638a7866f0,2022-06-22_07h49.56.985,Colour_Asymmetry_Pilot,2022.1.3,Win32,59.95203837,62b2a6a25f2ba72662469a01,,,,,,,,,,,,,,,,,,,,,,,,,,,,,,,,,,,,,,,,,,,,,,,,,,,,,,,,,,,,,,,,,,,,,,,,,,,,,,,,,,,,,,,,,,,,,,,,,,,,,,,,,,,,,,,,,,,,,,,,,,,,,,,,,,,,,,,,,,,,,,,,,,,,,,,,,,,,,
0,17,17,43,1,,5f843d6c842a0b04ab2faedb,62b2ad6c1e2691638a7866f0,2022-06-22_07h49.56.985,Colour_Asymmetry_Pilot,2022.1.3,Win32,59.95203837,62b2a6a25f2ba72662469a01,,,,,,,,,,,,,,,,,,,,,,,,,,,,,,,,,,,,,,,,,,,,,,,,,,,,,,,,,,,,,,,,,,,,,,,,,,,,,,,,,,,,,,,,,,,,,,,,,,,,,,,,,,,,,,,,,,,,,,,,,,,,,,,,,,,,,,,,,,,,,,,,,,,,,,,,,,,,,
0,18,18,42,1,,5f843d6c842a0b04ab2faedb,62b2ad6c1e2691638a7866f0,2022-06-22_07h49.56.985,Colour_Asymmetry_Pilot,2022.1.3,Win32,59.95203837,62b2a6a25f2ba72662469a01,,,,,,,,,,,,,,,,,,,,,,,,,,,,,,,,,,,,,,,,,,,,,,,,,,,,,,,,,,,,,,,,,,,,,,,,,,,,,,,,,,,,,,,,,,,,,,,,,,,,,,,,,,,,,,,,,,,,,,,,,,,,,,,,,,,,,,,,,,,,,,,,,,,,,,,,,,,,,
0,19,19,25,1,,5f843d6c842a0b04ab2faedb,62b2ad6c1e2691638a7866f0,2022-06-22_07h49.56.985,Colour_Asymmetry_Pilot,2022.1.3,Win32,59.95203837,62b2a6a25f2ba72662469a01,,,,,,,,,,,,,,,,,,,,,,,,,,,,,,,,,,,,,,,,,,,,,,,,,,,,,,,,,,,,,,,,,,,,,,,,,,,,,,,,,,,,,,,,,,,,,,,,,,,,,,,,,,,,,,,,,,,,,,,,,,,,,,,,,,,,,,,,,,,,,,,,,,,,,,,,,,,,,
0,20,20,4,1,,5f843d6c842a0b04ab2faedb,62b2ad6c1e2691638a7866f0,2022-06-22_07h49.56.985,Colour_Asymmetry_Pilot,2022.1.3,Win32,59.95203837,62b2a6a25f2ba72662469a01,,,,,,,,,,,,,,,,,,,,,,,,,,,,,,,,,,,,,,,,,,,,,,,,,,,,,,,,,,,,,,,,,,,,,,,,,,,,,,,,,,,,,,,,,,,,,,,,,,,,,,,,,,,,,,,,,,,,,,,,,,,,,,,,,,,,,,,,,,,,,,,,,,,,,,,,,,,,,
0,21,21,71,1,,5f843d6c842a0b04ab2faedb,62b2ad6c1e2691638a7866f0,2022-06-22_07h49.56.985,Colour_Asymmetry_Pilot,2022.1.3,Win32,59.95203837,62b2a6a25f2ba72662469a01,,,,,,,,,,,,,,,,,,,,,,,,,,,,,,,,,,,,,,,,,,,,,,,,,,,,,,,,,,,,,,,,,,,,,,,,,,,,,,,,,,,,,,,,,,,,,,,,,,,,,,,,,,,,,,,,,,,,,,,,,,,,,,,,,,,,,,,,,,,,,,,,,,,,,,,,,,,,,
0,22,22,70,1,,5f843d6c842a0b04ab2faedb,62b2ad6c1e2691638a7866f0,2022-06-22_07h49.56.985,Colour_Asymmetry_Pilot,2022.1.3,Win32,59.95203837,62b2a6a25f2ba72662469a01,,,,,,,,,,,,,,,,,,,,,,,,,,,,,,,,,,,,,,,,,,,,,,,,,,,,,,,,,,,,,,,,,,,,,,,,,,,,,,,,,,,,,,,,,,,,,,,,,,,,,,,,,,,,,,,,,,,,,,,,,,,,,,,,,,,,,,,,,,,,,,,,,,,,,,,,,,,,,
0,23,23,53,1,,5f843d6c842a0b04ab2faedb,62b2ad6c1e2691638a7866f0,2022-06-22_07h49.56.985,Colour_Asymmetry_Pilot,2022.1.3,Win32,59.95203837,62b2a6a25f2ba72662469a01,,,,,,,,,,,,,,,,,,,,,,,,,,,,,,,,,,,,,,,,,,,,,,,,,,,,,,,,,,,,,,,,,,,,,,,,,,,,,,,,,,,,,,,,,,,,,,,,,,,,,,,,,,,,,,,,,,,,,,,,,,,,,,,,,,,,,,,,,,,,,,,,,,,,,,,,,,,,,
0,24,24,56,1,,5f843d6c842a0b04ab2faedb,62b2ad6c1e2691638a7866f0,2022-06-22_07h49.56.985,Colour_Asymmetry_Pilot,2022.1.3,Win32,59.95203837,62b2a6a25f2ba72662469a01,,,,,,,,,,,,,,,,,,,,,,,,,,,,,,,,,,,,,,,,,,,,,,,,,,,,,,,,,,,,,,,,,,,,,,,,,,,,,,,,,,,,,,,,,,,,,,,,,,,,,,,,,,,,,,,,,,,,,,,,,,,,,,,,,,,,,,,,,,,,,,,,,,,,,,,,,,,,,
0,25,25,26,1,,5f843d6c842a0b04ab2faedb,62b2ad6c1e2691638a7866f0,2022-06-22_07h49.56.985,Colour_Asymmetry_Pilot,2022.1.3,Win32,59.95203837,62b2a6a25f2ba72662469a01,,,,,,,,,,,,,,,,,,,,,,,,,,,,,,,,,,,,,,,,,,,,,,,,,,,,,,,,,,,,,,,,,,,,,,,,,,,,,,,,,,,,,,,,,,,,,,,,,,,,,,,,,,,,,,,,,,,,,,,,,,,,,,,,,,,,,,,,,,,,,,,,,,,,,,,,,,,,,
0,26,26,41,1,,5f843d6c842a0b04ab2faedb,62b2ad6c1e2691638a7866f0,2022-06-22_07h49.56.985,Colour_Asymmetry_Pilot,2022.1.3,Win32,59.95203837,62b2a6a25f2ba72662469a01,,,,,,,,,,,,,,,,,,,,,,,,,,,,,,,,,,,,,,,,,,,,,,,,,,,,,,,,,,,,,,,,,,,,,,,,,,,,,,,,,,,,,,,,,,,,,,,,,,,,,,,,,,,,,,,,,,,,,,,,,,,,,,,,,,,,,,,,,,,,,,,,,,,,,,,,,,,,,
0,27,27,12,1,,5f843d6c842a0b04ab2faedb,62b2ad6c1e2691638a7866f0,2022-06-22_07h49.56.985,Colour_Asymmetry_Pilot,2022.1.3,Win32,59.95203837,62b2a6a25f2ba72662469a01,,,,,,,,,,,,,,,,,,,,,,,,,,,,,,,,,,,,,,,,,,,,,,,,,,,,,,,,,,,,,,,,,,,,,,,,,,,,,,,,,,,,,,,,,,,,,,,,,,,,,,,,,,,,,,,,,,,,,,,,,,,,,,,,,,,,,,,,,,,,,,,,,,,,,,,,,,,,,
0,28,28,38,1,,5f843d6c842a0b04ab2faedb,62b2ad6c1e2691638a7866f0,2022-06-22_07h49.56.985,Colour_Asymmetry_Pilot,2022.1.3,Win32,59.95203837,62b2a6a25f2ba72662469a01,,,,,,,,,,,,,,,,,,,,,,,,,,,,,,,,,,,,,,,,,,,,,,,,,,,,,,,,,,,,,,,,,,,,,,,,,,,,,,,,,,,,,,,,,,,,,,,,,,,,,,,,,,,,,,,,,,,,,,,,,,,,,,,,,,,,,,,,,,,,,,,,,,,,,,,,,,,,,
0,29,29,22,1,,5f843d6c842a0b04ab2faedb,62b2ad6c1e2691638a7866f0,2022-06-22_07h49.56.985,Colour_Asymmetry_Pilot,2022.1.3,Win32,59.95203837,62b2a6a25f2ba72662469a01,,,,,,,,,,,,,,,,,,,,,,,,,,,,,,,,,,,,,,,,,,,,,,,,,,,,,,,,,,,,,,,,,,,,,,,,,,,,,,,,,,,,,,,,,,,,,,,,,,,,,,,,,,,,,,,,,,,,,,,,,,,,,,,,,,,,,,,,,,,,,,,,,,,,,,,,,,,,,
0,30,30,59,1,,5f843d6c842a0b04ab2faedb,62b2ad6c1e2691638a7866f0,2022-06-22_07h49.56.985,Colour_Asymmetry_Pilot,2022.1.3,Win32,59.95203837,62b2a6a25f2ba72662469a01,,,,,,,,,,,,,,,,,,,,,,,,,,,,,,,,,,,,,,,,,,,,,,,,,,,,,,,,,,,,,,,,,,,,,,,,,,,,,,,,,,,,,,,,,,,,,,,,,,,,,,,,,,,,,,,,,,,,,,,,,,,,,,,,,,,,,,,,,,,,,,,,,,,,,,,,,,,,,
0,31,31,0,1,,5f843d6c842a0b04ab2faedb,62b2ad6c1e2691638a7866f0,2022-06-22_07h49.56.985,Colour_Asymmetry_Pilot,2022.1.3,Win32,59.95203837,62b2a6a25f2ba72662469a01,,,,,,,,,,,,,,,,,,,,,,,,,,,,,,,,,,,,,,,,,,,,,,,,,,,,,,,,,,,,,,,,,,,,,,,,,,,,,,,,,,,,,,,,,,,,,,,,,,,,,,,,,,,,,,,,,,,,,,,,,,,,,,,,,,,,,,,,,,,,,,,,,,,,,,,,,,,,,
0,32,32,46,1,,5f843d6c842a0b04ab2faedb,62b2ad6c1e2691638a7866f0,2022-06-22_07h49.56.985,Colour_Asymmetry_Pilot,2022.1.3,Win32,59.95203837,62b2a6a25f2ba72662469a01,,,,,,,,,,,,,,,,,,,,,,,,,,,,,,,,,,,,,,,,,,,,,,,,,,,,,,,,,,,,,,,,,,,,,,,,,,,,,,,,,,,,,,,,,,,,,,,,,,,,,,,,,,,,,,,,,,,,,,,,,,,,,,,,,,,,,,,,,,,,,,,,,,,,,,,,,,,,,
0,33,33,29,1,,5f843d6c842a0b04ab2faedb,62b2ad6c1e2691638a7866f0,2022-06-22_07h49.56.985,Colour_Asymmetry_Pilot,2022.1.3,Win32,59.95203837,62b2a6a25f2ba72662469a01,,,,,,,,,,,,,,,,,,,,,,,,,,,,,,,,,,,,,,,,,,,,,,,,,,,,,,,,,,,,,,,,,,,,,,,,,,,,,,,,,,,,,,,,,,,,,,,,,,,,,,,,,,,,,,,,,,,,,,,,,,,,,,,,,,,,,,,,,,,,,,,,,,,,,,,,,,,,,
0,34,34,50,1,,5f843d6c842a0b04ab2faedb,62b2ad6c1e2691638a7866f0,2022-06-22_07h49.56.985,Colour_Asymmetry_Pilot,2022.1.3,Win32,59.95203837,62b2a6a25f2ba72662469a01,,,,,,,,,,,,,,,,,,,,,,,,,,,,,,,,,,,,,,,,,,,,,,,,,,,,,,,,,,,,,,,,,,,,,,,,,,,,,,,,,,,,,,,,,,,,,,,,,,,,,,,,,,,,,,,,,,,,,,,,,,,,,,,,,,,,,,,,,,,,,,,,,,,,,,,,,,,,,
0,35,35,61,1,,5f843d6c842a0b04ab2faedb,62b2ad6c1e2691638a7866f0,2022-06-22_07h49.56.985,Colour_Asymmetry_Pilot,2022.1.3,Win32,59.95203837,62b2a6a25f2ba72662469a01,,,,,,,,,,,,,,,,,,,,,,,,,,,,,,,,,,,,,,,,,,,,,,,,,,,,,,,,,,,,,,,,,,,,,,,,,,,,,,,,,,,,,,,,,,,,,,,,,,,,,,,,,,,,,,,,,,,,,,,,,,,,,,,,,,,,,,,,,,,,,,,,,,,,,,,,,,,,,
0,36,36,37,1,,5f843d6c842a0b04ab2faedb,62b2ad6c1e2691638a7866f0,2022-06-22_07h49.56.985,Colour_Asymmetry_Pilot,2022.1.3,Win32,59.95203837,62b2a6a25f2ba72662469a01,,,,,,,,,,,,,,,,,,,,,,,,,,,,,,,,,,,,,,,,,,,,,,,,,,,,,,,,,,,,,,,,,,,,,,,,,,,,,,,,,,,,,,,,,,,,,,,,,,,,,,,,,,,,,,,,,,,,,,,,,,,,,,,,,,,,,,,,,,,,,,,,,,,,,,,,,,,,,
0,37,37,15,1,,5f843d6c842a0b04ab2faedb,62b2ad6c1e2691638a7866f0,2022-06-22_07h49.56.985,Colour_Asymmetry_Pilot,2022.1.3,Win32,59.95203837,62b2a6a25f2ba72662469a01,,,,,,,,,,,,,,,,,,,,,,,,,,,,,,,,,,,,,,,,,,,,,,,,,,,,,,,,,,,,,,,,,,,,,,,,,,,,,,,,,,,,,,,,,,,,,,,,,,,,,,,,,,,,,,,,,,,,,,,,,,,,,,,,,,,,,,,,,,,,,,,,,,,,,,,,,,,,,
0,38,38,52,1,,5f843d6c842a0b04ab2faedb,62b2ad6c1e2691638a7866f0,2022-06-22_07h49.56.985,Colour_Asymmetry_Pilot,2022.1.3,Win32,59.95203837,62b2a6a25f2ba72662469a01,,,,,,,,,,,,,,,,,,,,,,,,,,,,,,,,,,,,,,,,,,,,,,,,,,,,,,,,,,,,,,,,,,,,,,,,,,,,,,,,,,,,,,,,,,,,,,,,,,,,,,,,,,,,,,,,,,,,,,,,,,,,,,,,,,,,,,,,,,,,,,,,,,,,,,,,,,,,,
0,39,39,36,1,,5f843d6c842a0b04ab2faedb,62b2ad6c1e2691638a7866f0,2022-06-22_07h49.56.985,Colour_Asymmetry_Pilot,2022.1.3,Win32,59.95203837,62b2a6a25f2ba72662469a01,,,,,,,,,,,,,,,,,,,,,,,,,,,,,,,,,,,,,,,,,,,,,,,,,,,,,,,,,,,,,,,,,,,,,,,,,,,,,,,,,,,,,,,,,,,,,,,,,,,,,,,,,,,,,,,,,,,,,,,,,,,,,,,,,,,,,,,,,,,,,,,,,,,,,,,,,,,,,
0,40,40,45,1,,5f843d6c842a0b04ab2faedb,62b2ad6c1e2691638a7866f0,2022-06-22_07h49.56.985,Colour_Asymmetry_Pilot,2022.1.3,Win32,59.95203837,62b2a6a25f2ba72662469a01,,,,,,,,,,,,,,,,,,,,,,,,,,,,,,,,,,,,,,,,,,,,,,,,,,,,,,,,,,,,,,,,,,,,,,,,,,,,,,,,,,,,,,,,,,,,,,,,,,,,,,,,,,,,,,,,,,,,,,,,,,,,,,,,,,,,,,,,,,,,,,,,,,,,,,,,,,,,,
0,41,41,48,1,,5f843d6c842a0b04ab2faedb,62b2ad6c1e2691638a7866f0,2022-06-22_07h49.56.985,Colour_Asymmetry_Pilot,2022.1.3,Win32,59.95203837,62b2a6a25f2ba72662469a01,,,,,,,,,,,,,,,,,,,,,,,,,,,,,,,,,,,,,,,,,,,,,,,,,,,,,,,,,,,,,,,,,,,,,,,,,,,,,,,,,,,,,,,,,,,,,,,,,,,,,,,,,,,,,,,,,,,,,,,,,,,,,,,,,,,,,,,,,,,,,,,,,,,,,,,,,,,,,
0,42,42,86,1,,5f843d6c842a0b04ab2faedb,62b2ad6c1e2691638a7866f0,2022-06-22_07h49.56.985,Colour_Asymmetry_Pilot,2022.1.3,Win32,59.95203837,62b2a6a25f2ba72662469a01,,,,,,,,,,,,,,,,,,,,,,,,,,,,,,,,,,,,,,,,,,,,,,,,,,,,,,,,,,,,,,,,,,,,,,,,,,,,,,,,,,,,,,,,,,,,,,,,,,,,,,,,,,,,,,,,,,,,,,,,,,,,,,,,,,,,,,,,,,,,,,,,,,,,,,,,,,,,,
0,43,43,92,1,,5f843d6c842a0b04ab2faedb,62b2ad6c1e2691638a7866f0,2022-06-22_07h49.56.985,Colour_Asymmetry_Pilot,2022.1.3,Win32,59.95203837,62b2a6a25f2ba72662469a01,,,,,,,,,,,,,,,,,,,,,,,,,,,,,,,,,,,,,,,,,,,,,,,,,,,,,,,,,,,,,,,,,,,,,,,,,,,,,,,,,,,,,,,,,,,,,,,,,,,,,,,,,,,,,,,,,,,,,,,,,,,,,,,,,,,,,,,,,,,,,,,,,,,,,,,,,,,,,
0,44,44,81,1,,5f843d6c842a0b04ab2faedb,62b2ad6c1e2691638a7866f0,2022-06-22_07h49.56.985,Colour_Asymmetry_Pilot,2022.1.3,Win32,59.95203837,62b2a6a25f2ba72662469a01,,,,,,,,,,,,,,,,,,,,,,,,,,,,,,,,,,,,,,,,,,,,,,,,,,,,,,,,,,,,,,,,,,,,,,,,,,,,,,,,,,,,,,,,,,,,,,,,,,,,,,,,,,,,,,,,,,,,,,,,,,,,,,,,,,,,,,,,,,,,,,,,,,,,,,,,,,,,,
0,45,45,40,1,,5f843d6c842a0b04ab2faedb,62b2ad6c1e2691638a7866f0,2022-06-22_07h49.56.985,Colour_Asymmetry_Pilot,2022.1.3,Win32,59.95203837,62b2a6a25f2ba72662469a01,,,,,,,,,,,,,,,,,,,,,,,,,,,,,,,,,,,,,,,,,,,,,,,,,,,,,,,,,,,,,,,,,,,,,,,,,,,,,,,,,,,,,,,,,,,,,,,,,,,,,,,,,,,,,,,,,,,,,,,,,,,,,,,,,,,,,,,,,,,,,,,,,,,,,,,,,,,,,
0,46,46,64,1,,5f843d6c842a0b04ab2faedb,62b2ad6c1e2691638a7866f0,2022-06-22_07h49.56.985,Colour_Asymmetry_Pilot,2022.1.3,Win32,59.95203837,62b2a6a25f2ba72662469a01,,,,,,,,,,,,,,,,,,,,,,,,,,,,,,,,,,,,,,,,,,,,,,,,,,,,,,,,,,,,,,,,,,,,,,,,,,,,,,,,,,,,,,,,,,,,,,,,,,,,,,,,,,,,,,,,,,,,,,,,,,,,,,,,,,,,,,,,,,,,,,,,,,,,,,,,,,,,,
0,47,47,58,1,,5f843d6c842a0b04ab2faedb,62b2ad6c1e2691638a7866f0,2022-06-22_07h49.56.985,Colour_Asymmetry_Pilot,2022.1.3,Win32,59.95203837,62b2a6a25f2ba72662469a01,,,,,,,,,,,,,,,,,,,,,,,,,,,,,,,,,,,,,,,,,,,,,,,,,,,,,,,,,,,,,,,,,,,,,,,,,,,,,,,,,,,,,,,,,,,,,,,,,,,,,,,,,,,,,,,,,,,,,,,,,,,,,,,,,,,,,,,,,,,,,,,,,,,,,,,,,,,,,
0,48,48,69,1,,5f843d6c842a0b04ab2faedb,62b2ad6c1e2691638a7866f0,2022-06-22_07h49.56.985,Colour_Asymmetry_Pilot,2022.1.3,Win32,59.95203837,62b2a6a25f2ba72662469a01,,,,,,,,,,,,,,,,,,,,,,,,,,,,,,,,,,,,,,,,,,,,,,,,,,,,,,,,,,,,,,,,,,,,,,,,,,,,,,,,,,,,,,,,,,,,,,,,,,,,,,,,,,,,,,,,,,,,,,,,,,,,,,,,,,,,,,,,,,,,,,,,,,,,,,,,,,,,,
0,49,49,79,1,,5f843d6c842a0b04ab2faedb,62b2ad6c1e2691638a7866f0,2022-06-22_07h49.56.985,Colour_Asymmetry_Pilot,2022.1.3,Win32,59.95203837,62b2a6a25f2ba72662469a01,,,,,,,,,,,,,,,,,,,,,,,,,,,,,,,,,,,,,,,,,,,,,,,,,,,,,,,,,,,,,,,,,,,,,,,,,,,,,,,,,,,,,,,,,,,,,,,,,,,,,,,,,,,,,,,,,,,,,,,,,,,,,,,,,,,,,,,,,,,,,,,,,,,,,,,,,,,,,
0,50,50,6,1,,5f843d6c842a0b04ab2faedb,62b2ad6c1e2691638a7866f0,2022-06-22_07h49.56.985,Colour_Asymmetry_Pilot,2022.1.3,Win32,59.95203837,62b2a6a25f2ba72662469a01,,,,,,,,,,,,,,,,,,,,,,,,,,,,,,,,,,,,,,,,,,,,,,,,,,,,,,,,,,,,,,,,,,,,,,,,,,,,,,,,,,,,,,,,,,,,,,,,,,,,,,,,,,,,,,,,,,,,,,,,,,,,,,,,,,,,,,,,,,,,,,,,,,,,,,,,,,,,,
0,51,51,83,1,,5f843d6c842a0b04ab2faedb,62b2ad6c1e2691638a7866f0,2022-06-22_07h49.56.985,Colour_Asymmetry_Pilot,2022.1.3,Win32,59.95203837,62b2a6a25f2ba72662469a01,,,,,,,,,,,,,,,,,,,,,,,,,,,,,,,,,,,,,,,,,,,,,,,,,,,,,,,,,,,,,,,,,,,,,,,,,,,,,,,,,,,,,,,,,,,,,,,,,,,,,,,,,,,,,,,,,,,,,,,,,,,,,,,,,,,,,,,,,,,,,,,,,,,,,,,,,,,,,
0,52,52,18,1,,5f843d6c842a0b04ab2faedb,62b2ad6c1e2691638a7866f0,2022-06-22_07h49.56.985,Colour_Asymmetry_Pilot,2022.1.3,Win32,59.95203837,62b2a6a25f2ba72662469a01,,,,,,,,,,,,,,,,,,,,,,,,,,,,,,,,,,,,,,,,,,,,,,,,,,,,,,,,,,,,,,,,,,,,,,,,,,,,,,,,,,,,,,,,,,,,,,,,,,,,,,,,,,,,,,,,,,,,,,,,,,,,,,,,,,,,,,,,,,,,,,,,,,,,,,,,,,,,,
0,53,53,14,1,,5f843d6c842a0b04ab2faedb,62b2ad6c1e2691638a7866f0,2022-06-22_07h49.56.985,Colour_Asymmetry_Pilot,2022.1.3,Win32,59.95203837,62b2a6a25f2ba72662469a01,,,,,,,,,,,,,,,,,,,,,,,,,,,,,,,,,,,,,,,,,,,,,,,,,,,,,,,,,,,,,,,,,,,,,,,,,,,,,,,,,,,,,,,,,,,,,,,,,,,,,,,,,,,,,,,,,,,,,,,,,,,,,,,,,,,,,,,,,,,,,,,,,,,,,,,,,,,,,
0,54,54,87,1,,5f843d6c842a0b04ab2faedb,62b2ad6c1e2691638a7866f0,2022-06-22_07h49.56.985,Colour_Asymmetry_Pilot,2022.1.3,Win32,59.95203837,62b2a6a25f2ba72662469a01,,,,,,,,,,,,,,,,,,,,,,,,,,,,,,,,,,,,,,,,,,,,,,,,,,,,,,,,,,,,,,,,,,,,,,,,,,,,,,,,,,,,,,,,,,,,,,,,,,,,,,,,,,,,,,,,,,,,,,,,,,,,,,,,,,,,,,,,,,,,,,,,,,,,,,,,,,,,,
0,55,55,27,1,,5f843d6c842a0b04ab2faedb,62b2ad6c1e2691638a7866f0,2022-06-22_07h49.56.985,Colour_Asymmetry_Pilot,2022.1.3,Win32,59.95203837,62b2a6a25f2ba72662469a01,,,,,,,,,,,,,,,,,,,,,,,,,,,,,,,,,,,,,,,,,,,,,,,,,,,,,,,,,,,,,,,,,,,,,,,,,,,,,,,,,,,,,,,,,,,,,,,,,,,,,,,,,,,,,,,,,,,,,,,,,,,,,,,,,,,,,,,,,,,,,,,,,,,,,,,,,,,,,
0,56,56,49,1,,5f843d6c842a0b04ab2faedb,62b2ad6c1e2691638a7866f0,2022-06-22_07h49.56.985,Colour_Asymmetry_Pilot,2022.1.3,Win32,59.95203837,62b2a6a25f2ba72662469a01,,,,,,,,,,,,,,,,,,,,,,,,,,,,,,,,,,,,,,,,,,,,,,,,,,,,,,,,,,,,,,,,,,,,,,,,,,,,,,,,,,,,,,,,,,,,,,,,,,,,,,,,,,,,,,,,,,,,,,,,,,,,,,,,,,,,,,,,,,,,,,,,,,,,,,,,,,,,,
0,57,57,74,1,,5f843d6c842a0b04ab2faedb,62b2ad6c1e2691638a7866f0,2022-06-22_07h49.56.985,Colour_Asymmetry_Pilot,2022.1.3,Win32,59.95203837,62b2a6a25f2ba72662469a01,,,,,,,,,,,,,,,,,,,,,,,,,,,,,,,,,,,,,,,,,,,,,,,,,,,,,,,,,,,,,,,,,,,,,,,,,,,,,,,,,,,,,,,,,,,,,,,,,,,,,,,,,,,,,,,,,,,,,,,,,,,,,,,,,,,,,,,,,,,,,,,,,,,,,,,,,,,,,
0,58,58,23,1,,5f843d6c842a0b04ab2faedb,62b2ad6c1e2691638a7866f0,2022-06-22_07h49.56.985,Colour_Asymmetry_Pilot,2022.1.3,Win32,59.95203837,62b2a6a25f2ba72662469a01,,,,,,,,,,,,,,,,,,,,,,,,,,,,,,,,,,,,,,,,,,,,,,,,,,,,,,,,,,,,,,,,,,,,,,,,,,,,,,,,,,,,,,,,,,,,,,,,,,,,,,,,,,,,,,,,,,,,,,,,,,,,,,,,,,,,,,,,,,,,,,,,,,,,,,,,,,,,,
0,59,59,77,1,,5f843d6c842a0b04ab2faedb,62b2ad6c1e2691638a7866f0,2022-06-22_07h49.56.985,Colour_Asymmetry_Pilot,2022.1.3,Win32,59.95203837,62b2a6a25f2ba72662469a01,,,,,,,,,,,,,,,,,,,,,,,,,,,,,,,,,,,,,,,,,,,,,,,,,,,,,,,,,,,,,,,,,,,,,,,,,,,,,,,,,,,,,,,,,,,,,,,,,,,,,,,,,,,,,,,,,,,,,,,,,,,,,,,,,,,,,,,,,,,,,,,,,,,,,,,,,,,,,
0,60,60,80,1,,5f843d6c842a0b04ab2faedb,62b2ad6c1e2691638a7866f0,2022-06-22_07h49.56.985,Colour_Asymmetry_Pilot,2022.1.3,Win32,59.95203837,62b2a6a25f2ba72662469a01,,,,,,,,,,,,,,,,,,,,,,,,,,,,,,,,,,,,,,,,,,,,,,,,,,,,,,,,,,,,,,,,,,,,,,,,,,,,,,,,,,,,,,,,,,,,,,,,,,,,,,,,,,,,,,,,,,,,,,,,,,,,,,,,,,,,,,,,,,,,,,,,,,,,,,,,,,,,,
0,61,61,33,1,,5f843d6c842a0b04ab2faedb,62b2ad6c1e2691638a7866f0,2022-06-22_07h49.56.985,Colour_Asymmetry_Pilot,2022.1.3,Win32,59.95203837,62b2a6a25f2ba72662469a01,,,,,,,,,,,,,,,,,,,,,,,,,,,,,,,,,,,,,,,,,,,,,,,,,,,,,,,,,,,,,,,,,,,,,,,,,,,,,,,,,,,,,,,,,,,,,,,,,,,,,,,,,,,,,,,,,,,,,,,,,,,,,,,,,,,,,,,,,,,,,,,,,,,,,,,,,,,,,
0,62,62,66,1,,5f843d6c842a0b04ab2faedb,62b2ad6c1e2691638a7866f0,2022-06-22_07h49.56.985,Colour_Asymmetry_Pilot,2022.1.3,Win32,59.95203837,62b2a6a25f2ba72662469a01,,,,,,,,,,,,,,,,,,,,,,,,,,,,,,,,,,,,,,,,,,,,,,,,,,,,,,,,,,,,,,,,,,,,,,,,,,,,,,,,,,,,,,,,,,,,,,,,,,,,,,,,,,,,,,,,,,,,,,,,,,,,,,,,,,,,,,,,,,,,,,,,,,,,,,,,,,,,,
0,63,63,54,1,,5f843d6c842a0b04ab2faedb,62b2ad6c1e2691638a7866f0,2022-06-22_07h49.56.985,Colour_Asymmetry_Pilot,2022.1.3,Win32,59.95203837,62b2a6a25f2ba72662469a01,,,,,,,,,,,,,,,,,,,,,,,,,,,,,,,,,,,,,,,,,,,,,,,,,,,,,,,,,,,,,,,,,,,,,,,,,,,,,,,,,,,,,,,,,,,,,,,,,,,,,,,,,,,,,,,,,,,,,,,,,,,,,,,,,,,,,,,,,,,,,,,,,,,,,,,,,,,,,
0,64,64,60,1,,5f843d6c842a0b04ab2faedb,62b2ad6c1e2691638a7866f0,2022-06-22_07h49.56.985,Colour_Asymmetry_Pilot,2022.1.3,Win32,59.95203837,62b2a6a25f2ba72662469a01,,,,,,,,,,,,,,,,,,,,,,,,,,,,,,,,,,,,,,,,,,,,,,,,,,,,,,,,,,,,,,,,,,,,,,,,,,,,,,,,,,,,,,,,,,,,,,,,,,,,,,,,,,,,,,,,,,,,,,,,,,,,,,,,,,,,,,,,,,,,,,,,,,,,,,,,,,,,,
0,65,65,28,1,,5f843d6c842a0b04ab2faedb,62b2ad6c1e2691638a7866f0,2022-06-22_07h49.56.985,Colour_Asymmetry_Pilot,2022.1.3,Win32,59.95203837,62b2a6a25f2ba72662469a01,,,,,,,,,,,,,,,,,,,,,,,,,,,,,,,,,,,,,,,,,,,,,,,,,,,,,,,,,,,,,,,,,,,,,,,,,,,,,,,,,,,,,,,,,,,,,,,,,,,,,,,,,,,,,,,,,,,,,,,,,,,,,,,,,,,,,,,,,,,,,,,,,,,,,,,,,,,,,
0,66,66,85,1,,5f843d6c842a0b04ab2faedb,62b2ad6c1e2691638a7866f0,2022-06-22_07h49.56.985,Colour_Asymmetry_Pilot,2022.1.3,Win32,59.95203837,62b2a6a25f2ba72662469a01,,,,,,,,,,,,,,,,,,,,,,,,,,,,,,,,,,,,,,,,,,,,,,,,,,,,,,,,,,,,,,,,,,,,,,,,,,,,,,,,,,,,,,,,,,,,,,,,,,,,,,,,,,,,,,,,,,,,,,,,,,,,,,,,,,,,,,,,,,,,,,,,,,,,,,,,,,,,,
0,67,67,7,1,,5f843d6c842a0b04ab2faedb,62b2ad6c1e2691638a7866f0,2022-06-22_07h49.56.985,Colour_Asymmetry_Pilot,2022.1.3,Win32,59.95203837,62b2a6a25f2ba72662469a01,,,,,,,,,,,,,,,,,,,,,,,,,,,,,,,,,,,,,,,,,,,,,,,,,,,,,,,,,,,,,,,,,,,,,,,,,,,,,,,,,,,,,,,,,,,,,,,,,,,,,,,,,,,,,,,,,,,,,,,,,,,,,,,,,,,,,,,,,,,,,,,,,,,,,,,,,,,,,
0,68,68,1,1,,5f843d6c842a0b04ab2faedb,62b2ad6c1e2691638a7866f0,2022-06-22_07h49.56.985,Colour_Asymmetry_Pilot,2022.1.3,Win32,59.95203837,62b2a6a25f2ba72662469a01,,,,,,,,,,,,,,,,,,,,,,,,,,,,,,,,,,,,,,,,,,,,,,,,,,,,,,,,,,,,,,,,,,,,,,,,,,,,,,,,,,,,,,,,,,,,,,,,,,,,,,,,,,,,,,,,,,,,,,,,,,,,,,,,,,,,,,,,,,,,,,,,,,,,,,,,,,,,,
0,69,69,91,1,,5f843d6c842a0b04ab2faedb,62b2ad6c1e2691638a7866f0,2022-06-22_07h49.56.985,Colour_Asymmetry_Pilot,2022.1.3,Win32,59.95203837,62b2a6a25f2ba72662469a01,,,,,,,,,,,,,,,,,,,,,,,,,,,,,,,,,,,,,,,,,,,,,,,,,,,,,,,,,,,,,,,,,,,,,,,,,,,,,,,,,,,,,,,,,,,,,,,,,,,,,,,,,,,,,,,,,,,,,,,,,,,,,,,,,,,,,,,,,,,,,,,,,,,,,,,,,,,,,
0,70,70,16,1,,5f843d6c842a0b04ab2faedb,62b2ad6c1e2691638a7866f0,2022-06-22_07h49.56.985,Colour_Asymmetry_Pilot,2022.1.3,Win32,59.95203837,62b2a6a25f2ba72662469a01,,,,,,,,,,,,,,,,,,,,,,,,,,,,,,,,,,,,,,,,,,,,,,,,,,,,,,,,,,,,,,,,,,,,,,,,,,,,,,,,,,,,,,,,,,,,,,,,,,,,,,,,,,,,,,,,,,,,,,,,,,,,,,,,,,,,,,,,,,,,,,,,,,,,,,,,,,,,,
0,71,71,34,1,,5f843d6c842a0b04ab2faedb,62b2ad6c1e2691638a7866f0,2022-06-22_07h49.56.985,Colour_Asymmetry_Pilot,2022.1.3,Win32,59.95203837,62b2a6a25f2ba72662469a01,,,,,,,,,,,,,,,,,,,,,,,,,,,,,,,,,,,,,,,,,,,,,,,,,,,,,,,,,,,,,,,,,,,,,,,,,,,,,,,,,,,,,,,,,,,,,,,,,,,,,,,,,,,,,,,,,,,,,,,,,,,,,,,,,,,,,,,,,,,,,,,,,,,,,,,,,,,,,
0,72,72,62,1,,5f843d6c842a0b04ab2faedb,62b2ad6c1e2691638a7866f0,2022-06-22_07h49.56.985,Colour_Asymmetry_Pilot,2022.1.3,Win32,59.95203837,62b2a6a25f2ba72662469a01,,,,,,,,,,,,,,,,,,,,,,,,,,,,,,,,,,,,,,,,,,,,,,,,,,,,,,,,,,,,,,,,,,,,,,,,,,,,,,,,,,,,,,,,,,,,,,,,,,,,,,,,,,,,,,,,,,,,,,,,,,,,,,,,,,,,,,,,,,,,,,,,,,,,,,,,,,,,,
0,73,73,47,1,,5f843d6c842a0b04ab2faedb,62b2ad6c1e2691638a7866f0,2022-06-22_07h49.56.985,Colour_Asymmetry_Pilot,2022.1.3,Win32,59.95203837,62b2a6a25f2ba72662469a01,,,,,,,,,,,,,,,,,,,,,,,,,,,,,,,,,,,,,,,,,,,,,,,,,,,,,,,,,,,,,,,,,,,,,,,,,,,,,,,,,,,,,,,,,,,,,,,,,,,,,,,,,,,,,,,,,,,,,,,,,,,,,,,,,,,,,,,,,,,,,,,,,,,,,,,,,,,,,
0,74,74,8,1,,5f843d6c842a0b04ab2faedb,62b2ad6c1e2691638a7866f0,2022-06-22_07h49.56.985,Colour_Asymmetry_Pilot,2022.1.3,Win32,59.95203837,62b2a6a25f2ba72662469a01,,,,,,,,,,,,,,,,,,,,,,,,,,,,,,,,,,,,,,,,,,,,,,,,,,,,,,,,,,,,,,,,,,,,,,,,,,,,,,,,,,,,,,,,,,,,,,,,,,,,,,,,,,,,,,,,,,,,,,,,,,,,,,,,,,,,,,,,,,,,,,,,,,,,,,,,,,,,,
0,75,75,2,1,,5f843d6c842a0b04ab2faedb,62b2ad6c1e2691638a7866f0,2022-06-22_07h49.56.985,Colour_Asymmetry_Pilot,2022.1.3,Win32,59.95203837,62b2a6a25f2ba72662469a01,,,,,,,,,,,,,,,,,,,,,,,,,,,,,,,,,,,,,,,,,,,,,,,,,,,,,,,,,,,,,,,,,,,,,,,,,,,,,,,,,,,,,,,,,,,,,,,,,,,,,,,,,,,,,,,,,,,,,,,,,,,,,,,,,,,,,,,,,,,,,,,,,,,,,,,,,,,,,
0,76,76,10,1,,5f843d6c842a0b04ab2faedb,62b2ad6c1e2691638a7866f0,2022-06-22_07h49.56.985,Colour_Asymmetry_Pilot,2022.1.3,Win32,59.95203837,62b2a6a25f2ba72662469a01,,,,,,,,,,,,,,,,,,,,,,,,,,,,,,,,,,,,,,,,,,,,,,,,,,,,,,,,,,,,,,,,,,,,,,,,,,,,,,,,,,,,,,,,,,,,,,,,,,,,,,,,,,,,,,,,,,,,,,,,,,,,,,,,,,,,,,,,,,,,,,,,,,,,,,,,,,,,,
0,77,77,3,1,,5f843d6c842a0b04ab2faedb,62b2ad6c1e2691638a7866f0,2022-06-22_07h49.56.985,Colour_Asymmetry_Pilot,2022.1.3,Win32,59.95203837,62b2a6a25f2ba72662469a01,,,,,,,,,,,,,,,,,,,,,,,,,,,,,,,,,,,,,,,,,,,,,,,,,,,,,,,,,,,,,,,,,,,,,,,,,,,,,,,,,,,,,,,,,,,,,,,,,,,,,,,,,,,,,,,,,,,,,,,,,,,,,,,,,,,,,,,,,,,,,,,,,,,,,,,,,,,,,
0,78,78,88,1,,5f843d6c842a0b04ab2faedb,62b2ad6c1e2691638a7866f0,2022-06-22_07h49.56.985,Colour_Asymmetry_Pilot,2022.1.3,Win32,59.95203837,62b2a6a25f2ba72662469a01,,,,,,,,,,,,,,,,,,,,,,,,,,,,,,,,,,,,,,,,,,,,,,,,,,,,,,,,,,,,,,,,,,,,,,,,,,,,,,,,,,,,,,,,,,,,,,,,,,,,,,,,,,,,,,,,,,,,,,,,,,,,,,,,,,,,,,,,,,,,,,,,,,,,,,,,,,,,,
0,79,79,24,1,,5f843d6c842a0b04ab2faedb,62b2ad6c1e2691638a7866f0,2022-06-22_07h49.56.985,Colour_Asymmetry_Pilot,2022.1.3,Win32,59.95203837,62b2a6a25f2ba72662469a01,,,,,,,,,,,,,,,,,,,,,,,,,,,,,,,,,,,,,,,,,,,,,,,,,,,,,,,,,,,,,,,,,,,,,,,,,,,,,,,,,,,,,,,,,,,,,,,,,,,,,,,,,,,,,,,,,,,,,,,,,,,,,,,,,,,,,,,,,,,,,,,,,,,,,,,,,,,,,
0,80,80,73,1,,5f843d6c842a0b04ab2faedb,62b2ad6c1e2691638a7866f0,2022-06-22_07h49.56.985,Colour_Asymmetry_Pilot,2022.1.3,Win32,59.95203837,62b2a6a25f2ba72662469a01,,,,,,,,,,,,,,,,,,,,,,,,,,,,,,,,,,,,,,,,,,,,,,,,,,,,,,,,,,,,,,,,,,,,,,,,,,,,,,,,,,,,,,,,,,,,,,,,,,,,,,,,,,,,,,,,,,,,,,,,,,,,,,,,,,,,,,,,,,,,,,,,,,,,,,,,,,,,,
0,81,81,32,1,,5f843d6c842a0b04ab2faedb,62b2ad6c1e2691638a7866f0,2022-06-22_07h49.56.985,Colour_Asymmetry_Pilot,2022.1.3,Win32,59.95203837,62b2a6a25f2ba72662469a01,,,,,,,,,,,,,,,,,,,,,,,,,,,,,,,,,,,,,,,,,,,,,,,,,,,,,,,,,,,,,,,,,,,,,,,,,,,,,,,,,,,,,,,,,,,,,,,,,,,,,,,,,,,,,,,,,,,,,,,,,,,,,,,,,,,,,,,,,,,,,,,,,,,,,,,,,,,,,
0,82,82,76,1,,5f843d6c842a0b04ab2faedb,62b2ad6c1e2691638a7866f0,2022-06-22_07h49.56.985,Colour_Asymmetry_Pilot,2022.1.3,Win32,59.95203837,62b2a6a25f2ba72662469a01,,,,,,,,,,,,,,,,,,,,,,,,,,,,,,,,,,,,,,,,,,,,,,,,,,,,,,,,,,,,,,,,,,,,,,,,,,,,,,,,,,,,,,,,,,,,,,,,,,,,,,,,,,,,,,,,,,,,,,,,,,,,,,,,,,,,,,,,,,,,,,,,,,,,,,,,,,,,,
0,83,83,9,1,,5f843d6c842a0b04ab2faedb,62b2ad6c1e2691638a7866f0,2022-06-22_07h49.56.985,Colour_Asymmetry_Pilot,2022.1.3,Win32,59.95203837,62b2a6a25f2ba72662469a01,,,,,,,,,,,,,,,,,,,,,,,,,,,,,,,,,,,,,,,,,,,,,,,,,,,,,,,,,,,,,,,,,,,,,,,,,,,,,,,,,,,,,,,,,,,,,,,,,,,,,,,,,,,,,,,,,,,,,,,,,,,,,,,,,,,,,,,,,,,,,,,,,,,,,,,,,,,,,
0,84,84,17,1,,5f843d6c842a0b04ab2faedb,62b2ad6c1e2691638a7866f0,2022-06-22_07h49.56.985,Colour_Asymmetry_Pilot,2022.1.3,Win32,59.95203837,62b2a6a25f2ba72662469a01,,,,,,,,,,,,,,,,,,,,,,,,,,,,,,,,,,,,,,,,,,,,,,,,,,,,,,,,,,,,,,,,,,,,,,,,,,,,,,,,,,,,,,,,,,,,,,,,,,,,,,,,,,,,,,,,,,,,,,,,,,,,,,,,,,,,,,,,,,,,,,,,,,,,,,,,,,,,,
0,85,85,84,1,,5f843d6c842a0b04ab2faedb,62b2ad6c1e2691638a7866f0,2022-06-22_07h49.56.985,Colour_Asymmetry_Pilot,2022.1.3,Win32,59.95203837,62b2a6a25f2ba72662469a01,,,,,,,,,,,,,,,,,,,,,,,,,,,,,,,,,,,,,,,,,,,,,,,,,,,,,,,,,,,,,,,,,,,,,,,,,,,,,,,,,,,,,,,,,,,,,,,,,,,,,,,,,,,,,,,,,,,,,,,,,,,,,,,,,,,,,,,,,,,,,,,,,,,,,,,,,,,,,
0,86,86,30,1,,5f843d6c842a0b04ab2faedb,62b2ad6c1e2691638a7866f0,2022-06-22_07h49.56.985,Colour_Asymmetry_Pilot,2022.1.3,Win32,59.95203837,62b2a6a25f2ba72662469a01,,,,,,,,,,,,,,,,,,,,,,,,,,,,,,,,,,,,,,,,,,,,,,,,,,,,,,,,,,,,,,,,,,,,,,,,,,,,,,,,,,,,,,,,,,,,,,,,,,,,,,,,,,,,,,,,,,,,,,,,,,,,,,,,,,,,,,,,,,,,,,,,,,,,,,,,,,,,,
0,87,87,90,1,,5f843d6c842a0b04ab2faedb,62b2ad6c1e2691638a7866f0,2022-06-22_07h49.56.985,Colour_Asymmetry_Pilot,2022.1.3,Win32,59.95203837,62b2a6a25f2ba72662469a01,,,,,,,,,,,,,,,,,,,,,,,,,,,,,,,,,,,,,,,,,,,,,,,,,,,,,,,,,,,,,,,,,,,,,,,,,,,,,,,,,,,,,,,,,,,,,,,,,,,,,,,,,,,,,,,,,,,,,,,,,,,,,,,,,,,,,,,,,,,,,,,,,,,,,,,,,,,,,
0,88,88,72,1,,5f843d6c842a0b04ab2faedb,62b2ad6c1e2691638a7866f0,2022-06-22_07h49.56.985,Colour_Asymmetry_Pilot,2022.1.3,Win32,59.95203837,62b2a6a25f2ba72662469a01,,,,,,,,,,,,,,,,,,,,,,,,,,,,,,,,,,,,,,,,,,,,,,,,,,,,,,,,,,,,,,,,,,,,,,,,,,,,,,,,,,,,,,,,,,,,,,,,,,,,,,,,,,,,,,,,,,,,,,,,,,,,,,,,,,,,,,,,,,,,,,,,,,,,,,,,,,,,,
0,89,89,19,1,,5f843d6c842a0b04ab2faedb,62b2ad6c1e2691638a7866f0,2022-06-22_07h49.56.985,Colour_Asymmetry_Pilot,2022.1.3,Win32,59.95203837,62b2a6a25f2ba72662469a01,,,,,,,,,,,,,,,,,,,,,,,,,,,,,,,,,,,,,,,,,,,,,,,,,,,,,,,,,,,,,,,,,,,,,,,,,,,,,,,,,,,,,,,,,,,,,,,,,,,,,,,,,,,,,,,,,,,,,,,,,,,,,,,,,,,,,,,,,,,,,,,,,,,,,,,,,,,,,
0,90,90,20,1,,5f843d6c842a0b04ab2faedb,62b2ad6c1e2691638a7866f0,2022-06-22_07h49.56.985,Colour_Asymmetry_Pilot,2022.1.3,Win32,59.95203837,62b2a6a25f2ba72662469a01,,,,,,,,,,,,,,,,,,,,,,,,,,,,,,,,,,,,,,,,,,,,,,,,,,,,,,,,,,,,,,,,,,,,,,,,,,,,,,,,,,,,,,,,,,,,,,,,,,,,,,,,,,,,,,,,,,,,,,,,,,,,,,,,,,,,,,,,,,,,,,,,,,,,,,,,,,,,,
0,91,91,63,1,,5f843d6c842a0b04ab2faedb,62b2ad6c1e2691638a7866f0,2022-06-22_07h49.56.985,Colour_Asymmetry_Pilot,2022.1.3,Win32,59.95203837,62b2a6a25f2ba72662469a01,,,,,,,,,,,,,,,,,,,,,,,,,,,,,,,,,,,,,,,,,,,,,,,,,,,,,,,,,,,,,,,,,,,,,,,,,,,,,,,,,,,,,,,,,,,,,,,,,,,,,,,,,,,,,,,,,,,,,,,,,,,,,,,,,,,,,,,,,,,,,,,,,,,,,,,,,,,,,
0,92,92,65,1,,5f843d6c842a0b04ab2faedb,62b2ad6c1e2691638a7866f0,2022-06-22_07h49.56.985,Colour_Asymmetry_Pilot,2022.1.3,Win32,59.95203837,62b2a6a25f2ba72662469a01,,,,,,,,,,,,,,,,,,,,,,,,,,,,,,,,,,,,,,,,,,,,,,,,,,,,,,,,,,,,,,,,,,,,,,,,,,,,,,,,,,,,,,,,,,,,,,,,,,,,,,,,,,,,,,,,,,,,,,,,,,,,,,,,,,,,,,,,,,,,,,,,,,,,,,,,,,,,,
,,,,,,5f843d6c842a0b04ab2faedb,62b2ad6c1e2691638a7866f0,2022-06-22_07h49.56.985,Colour_Asymmetry_Pilot,2022.1.3,Win32,59.95203837,62b2a6a25f2ba72662469a01,0,0,0,123,1,twofour,,,,,,,,,,,,,,,,,,,,,,,,,,,,,,,,,,,,,,,,,,,,,,,,,,,,,,,,,,,,,,,,,,,,,,,,,,,,,,,,,,,,,,,,,,,,,,,,,,,,,,,,,,,,,,,,,,,,,,,,,,,,,,,,,,,,,,,,,,,,,,,,,,,,,,,
,,,,,,5f843d6c842a0b04ab2faedb,62b2ad6c1e2691638a7866f0,2022-06-22_07h49.56.985,Colour_Asymmetry_Pilot,2022.1.3,Win32,59.95203837,62b2a6a25f2ba72662469a01,0,1,1,117,1,threefour,,,,,,,,,,,,,,,,,,,,,,,,,,,,,,,,,,,,,,,,,,,,,,,,,,,,,,,,,,,,,,,,,,,,,,,,,,,,,,,,,,,,,,,,,,,,,,,,,,,,,,,,,,,,,,,,,,,,,,,,,,,,,,,,,,,,,,,,,,,,,,,,,,,,,,,
,,,,,,5f843d6c842a0b04ab2faedb,62b2ad6c1e2691638a7866f0,2022-06-22_07h49.56.985,Colour_Asymmetry_Pilot,2022.1.3,Win32,59.95203837,62b2a6a25f2ba72662469a01,0,2,2,9,1,onethree,,,,,,,,,,,,,,,,,,,,,,,,,,,,,,,,,,,,,,,,,,,,,,,,,,,,,,,,,,,,,,,,,,,,,,,,,,,,,,,,,,,,,,,,,,,,,,,,,,,,,,,,,,,,,,,,,,,,,,,,,,,,,,,,,,,,,,,,,,,,,,,,,,,,,,,
,,,,,,5f843d6c842a0b04ab2faedb,62b2ad6c1e2691638a7866f0,2022-06-22_07h49.56.985,Colour_Asymmetry_Pilot,2022.1.3,Win32,59.95203837,62b2a6a25f2ba72662469a01,0,3,3,52,1,threeone,,,,,,,,,,,,,,,,,,,,,,,,,,,,,,,,,,,,,,,,,,,,,,,,,,,,,,,,,,,,,,,,,,,,,,,,,,,,,,,,,,,,,,,,,,,,,,,,,,,,,,,,,,,,,,,,,,,,,,,,,,,,,,,,,,,,,,,,,,,,,,,,,,,,,,,
,,,,,,5f843d6c842a0b04ab2faedb,62b2ad6c1e2691638a7866f0,2022-06-22_07h49.56.985,Colour_Asymmetry_Pilot,2022.1.3,Win32,59.95203837,62b2a6a25f2ba72662469a01,0,4,4,129,1,onethree,,,,,,,,,,,,,,,,,,,,,,,,,,,,,,,,,,,,,,,,,,,,,,,,,,,,,,,,,,,,,,,,,,,,,,,,,,,,,,,,,,,,,,,,,,,,,,,,,,,,,,,,,,,,,,,,,,,,,,,,,,,,,,,,,,,,,,,,,,,,,,,,,,,,,,,
,,,,,,5f843d6c842a0b04ab2faedb,62b2ad6c1e2691638a7866f0,2022-06-22_07h49.56.985,Colour_Asymmetry_Pilot,2022.1.3,Win32,59.95203837,62b2a6a25f2ba72662469a01,0,5,5,138,1,twoone,,,,,,,,,,,,,,,,,,,,,,,,,,,,,,,,,,,,,,,,,,,,,,,,,,,,,,,,,,,,,,,,,,,,,,,,,,,,,,,,,,,,,,,,,,,,,,,,,,,,,,,,,,,,,,,,,,,,,,,,,,,,,,,,,,,,,,,,,,,,,,,,,,,,,,,
,,,,,,5f843d6c842a0b04ab2faedb,62b2ad6c1e2691638a7866f0,2022-06-22_07h49.56.985,Colour_Asymmetry_Pilot,2022.1.3,Win32,59.95203837,62b2a6a25f2ba72662469a01,0,6,6,155,1,twofour,,,,,,,,,,,,,,,,,,,,,,,,,,,,,,,,,,,,,,,,,,,,,,,,,,,,,,,,,,,,,,,,,,,,,,,,,,,,,,,,,,,,,,,,,,,,,,,,,,,,,,,,,,,,,,,,,,,,,,,,,,,,,,,,,,,,,,,,,,,,,,,,,,,,,,,
,,,,,,5f843d6c842a0b04ab2faedb,62b2ad6c1e2691638a7866f0,2022-06-22_07h49.56.985,Colour_Asymmetry_Pilot,2022.1.3,Win32,59.95203837,62b2a6a25f2ba72662469a01,0,7,7,48,1,onetwo,,,,,,,,,,,,,,,,,,,,,,,,,,,,,,,,,,,,,,,,,,,,,,,,,,,,,,,,,,,,,,,,,,,,,,,,,,,,,,,,,,,,,,,,,,,,,,,,,,,,,,,,,,,,,,,,,,,,,,,,,,,,,,,,,,,,,,,,,,,,,,,,,,,,,,,
,,,,,,5f843d6c842a0b04ab2faedb,62b2ad6c1e2691638a7866f0,2022-06-22_07h49.56.985,Colour_Asymmetry_Pilot,2022.1.3,Win32,59.95203837,62b2a6a25f2ba72662469a01,0,8,8,109,1,threefour,,,,,,,,,,,,,,,,,,,,,,,,,,,,,,,,,,,,,,,,,,,,,,,,,,,,,,,,,,,,,,,,,,,,,,,,,,,,,,,,,,,,,,,,,,,,,,,,,,,,,,,,,,,,,,,,,,,,,,,,,,,,,,,,,,,,,,,,,,,,,,,,,,,,,,,
,,,,,,5f843d6c842a0b04ab2faedb,62b2ad6c1e2691638a7866f0,2022-06-22_07h49.56.985,Colour_Asymmetry_Pilot,2022.1.3,Win32,59.95203837,62b2a6a25f2ba72662469a01,0,9,9,161,1,onethree,,,,,,,,,,,,,,,,,,,,,,,,,,,,,,,,,,,,,,,,,,,,,,,,,,,,,,,,,,,,,,,,,,,,,,,,,,,,,,,,,,,,,,,,,,,,,,,,,,,,,,,,,,,,,,,,,,,,,,,,,,,,,,,,,,,,,,,,,,,,,,,,,,,,,,,
,,,,,,5f843d6c842a0b04ab2faedb,62b2ad6c1e2691638a7866f0,2022-06-22_07h49.56.985,Colour_Asymmetry_Pilot,2022.1.3,Win32,59.95203837,62b2a6a25f2ba72662469a01,0,10,10,27,1,twofour,,,,,,,,,,,,,,,,,,,,,,,,,,,,,,,,,,,,,,,,,,,,,,,,,,,,,,,,,,,,,,,,,,,,,,,,,,,,,,,,,,,,,,,,,,,,,,,,,,,,,,,,,,,,,,,,,,,,,,,,,,,,,,,,,,,,,,,,,,,,,,,,,,,,,,,
,,,,,,5f843d6c842a0b04ab2faedb,62b2ad6c1e2691638a7866f0,2022-06-22_07h49.56.985,Colour_Asymmetry_Pilot,2022.1.3,Win32,59.95203837,62b2a6a25f2ba72662469a01,0,11,11,11,1,twofour,,,,,,,,,,,,,,,,,,,,,,,,,,,,,,,,,,,,,,,,,,,,,,,,,,,,,,,,,,,,,,,,,,,,,,,,,,,,,,,,,,,,,,,,,,,,,,,,,,,,,,,,,,,,,,,,,,,,,,,,,,,,,,,,,,,,,,,,,,,,,,,,,,,,,,,
,,,,,,5f843d6c842a0b04ab2faedb,62b2ad6c1e2691638a7866f0,2022-06-22_07h49.56.985,Colour_Asymmetry_Pilot,2022.1.3,Win32,59.95203837,62b2a6a25f2ba72662469a01,0,12,12,147,1,twofour,,,,,,,,,,,,,,,,,,,,,,,,,,,,,,,,,,,,,,,,,,,,,,,,,,,,,,,,,,,,,,,,,,,,,,,,,,,,,,,,,,,,,,,,,,,,,,,,,,,,,,,,,,,,,,,,,,,,,,,,,,,,,,,,,,,,,,,,,,,,,,,,,,,,,,,
,,,,,,5f843d6c842a0b04ab2faedb,62b2ad6c1e2691638a7866f0,2022-06-22_07h49.56.985,Colour_Asymmetry_Pilot,2022.1.3,Win32,59.95203837,62b2a6a25f2ba72662469a01,0,13,13,149,1,threefour,,,,,,,,,,,,,,,,,,,,,,,,,,,,,,,,,,,,,,,,,,,,,,,,,,,,,,,,,,,,,,,,,,,,,,,,,,,,,,,,,,,,,,,,,,,,,,,,,,,,,,,,,,,,,,,,,,,,,,,,,,,,,,,,,,,,,,,,,,,,,,,,,,,,,,,
,,,,,,5f843d6c842a0b04ab2faedb,62b2ad6c1e2691638a7866f0,2022-06-22_07h49.56.985,Colour_Asymmetry_Pilot,2022.1.3,Win32,59.95203837,62b2a6a25f2ba72662469a01,0,14,14,145,1,onethree,,,,,,,,,,,,,,,,,,,,,,,,,,,,,,,,,,,,,,,,,,,,,,,,,,,,,,,,,,,,,,,,,,,,,,,,,,,,,,,,,,,,,,,,,,,,,,,,,,,,,,,,,,,,,,,,,,,,,,,,,,,,,,,,,,,,,,,,,,,,,,,,,,,,,,,
,,,,,,5f843d6c842a0b04ab2faedb,62b2ad6c1e2691638a7866f0,2022-06-22_07h49.56.985,Colour_Asymmetry_Pilot,2022.1.3,Win32,59.95203837,62b2a6a25f2ba72662469a01,0,15,15,143,1,fourthree,,,,,,,,,,,,,,,,,,,,,,,,,,,,,,,,,,,,,,,,,,,,,,,,,,,,,,,,,,,,,,,,,,,,,,,,,,,,,,,,,,,,,,,,,,,,,,,,,,,,,,,,,,,,,,,,,,,,,,,,,,,,,,,,,,,,,,,,,,,,,,,,,,,,,,,
,,,,,,5f843d6c842a0b04ab2faedb,62b2ad6c1e2691638a7866f0,2022-06-22_07h49.56.985,Colour_Asymmetry_Pilot,2022.1.3,Win32,59.95203837,62b2a6a25f2ba72662469a01,0,16,16,156,1,threeone,,,,,,,,,,,,,,,,,,,,,,,,,,,,,,,,,,,,,,,,,,,,,,,,,,,,,,,,,,,,,,,,,,,,,,,,,,,,,,,,,,,,,,,,,,,,,,,,,,,,,,,,,,,,,,,,,,,,,,,,,,,,,,,,,,,,,,,,,,,,,,,,,,,,,,,
,,,,,,5f843d6c842a0b04ab2faedb,62b2ad6c1e2691638a7866f0,2022-06-22_07h49.56.985,Colour_Asymmetry_Pilot,2022.1.3,Win32,59.95203837,62b2a6a25f2ba72662469a01,0,17,17,121,1,onethree,,,,,,,,,,,,,,,,,,,,,,,,,,,,,,,,,,,,,,,,,,,,,,,,,,,,,,,,,,,,,,,,,,,,,,,,,,,,,,,,,,,,,,,,,,,,,,,,,,,,,,,,,,,,,,,,,,,,,,,,,,,,,,,,,,,,,,,,,,,,,,,,,,,,,,,
,,,,,,5f843d6c842a0b04ab2faedb,62b2ad6c1e2691638a7866f0,2022-06-22_07h49.56.985,Colour_Asymmetry_Pilot,2022.1.3,Win32,59.95203837,62b2a6a25f2ba72662469a01,0,18,18,151,1,fourthree,,,,,,,,,,,,,,,,,,,,,,,,,,,,,,,,,,,,,,,,,,,,,,,,,,,,,,,,,,,,,,,,,,,,,,,,,,,,,,,,,,,,,,,,,,,,,,,,,,,,,,,,,,,,,,,,,,,,,,,,,,,,,,,,,,,,,,,,,,,,,,,,,,,,,,,
,,,,,,5f843d6c842a0b04ab2faedb,62b2ad6c1e2691638a7866f0,2022-06-22_07h49.56.985,Colour_Asymmetry_Pilot,2022.1.3,Win32,59.95203837,62b2a6a25f2ba72662469a01,0,19,19,91,1,twofour,,,,,,,,,,,,,,,,,,,,,,,,,,,,,,,,,,,,,,,,,,,,,,,,,,,,,,,,,,,,,,,,,,,,,,,,,,,,,,,,,,,,,,,,,,,,,,,,,,,,,,,,,,,,,,,,,,,,,,,,,,,,,,,,,,,,,,,,,,,,,,,,,,,,,,,
,,,,,,5f843d6c842a0b04ab2faedb,62b2ad6c1e2691638a7866f0,2022-06-22_07h49.56.985,Colour_Asymmetry_Pilot,2022.1.3,Win32,59.95203837,62b2a6a25f2ba72662469a01,0,20,20,47,1,fourthree,,,,,,,,,,,,,,,,,,,,,,,,,,,,,,,,,,,,,,,,,,,,,,,,,,,,,,,,,,,,,,,,,,,,,,,,,,,,,,,,,,,,,,,,,,,,,,,,,,,,,,,,,,,,,,,,,,,,,,,,,,,,,,,,,,,,,,,,,,,,,,,,,,,,,,,
,,,,,,5f843d6c842a0b04ab2faedb,62b2ad6c1e2691638a7866f0,2022-06-22_07h49.56.985,Colour_Asymmetry_Pilot,2022.1.3,Win32,59.95203837,62b2a6a25f2ba72662469a01,0,21,21,70,1,fourtwo,,,,,,,,,,,,,,,,,,,,,,,,,,,,,,,,,,,,,,,,,,,,,,,,,,,,,,,,,,,,,,,,,,,,,,,,,,,,,,,,,,,,,,,,,,,,,,,,,,,,,,,,,,,,,,,,,,,,,,,,,,,,,,,,,,,,,,,,,,,,,,,,,,,,,,,
,,,,,,5f843d6c842a0b04ab2faedb,62b2ad6c1e2691638a7866f0,2022-06-22_07h49.56.985,Colour_Asymmetry_Pilot,2022.1.3,Win32,59.95203837,62b2a6a25f2ba72662469a01,0,22,22,93,1,threefour,,,,,,,,,,,,,,,,,,,,,,,,,,,,,,,,,,,,,,,,,,,,,,,,,,,,,,,,,,,,,,,,,,,,,,,,,,,,,,,,,,,,,,,,,,,,,,,,,,,,,,,,,,,,,,,,,,,,,,,,,,,,,,,,,,,,,,,,,,,,,,,,,,,,,,,
,,,,,,5f843d6c842a0b04ab2faedb,62b2ad6c1e2691638a7866f0,2022-06-22_07h49.56.985,Colour_Asymmetry_Pilot,2022.1.3,Win32,59.95203837,62b2a6a25f2ba72662469a01,0,23,23,35,1,twofour,,,,,,,,,,,,,,,,,,,,,,,,,,,,,,,,,,,,,,,,,,,,,,,,,,,,,,,,,,,,,,,,,,,,,,,,,,,,,,,,,,,,,,,,,,,,,,,,,,,,,,,,,,,,,,,,,,,,,,,,,,,,,,,,,,,,,,,,,,,,,,,,,,,,,,,
,,,,,,5f843d6c842a0b04ab2faedb,62b2ad6c1e2691638a7866f0,2022-06-22_07h49.56.985,Colour_Asymmetry_Pilot,2022.1.3,Win32,59.95203837,62b2a6a25f2ba72662469a01,0,24,24,65,1,onethree,,,,,,,,,,,,,,,,,,,,,,,,,,,,,,,,,,,,,,,,,,,,,,,,,,,,,,,,,,,,,,,,,,,,,,,,,,,,,,,,,,,,,,,,,,,,,,,,,,,,,,,,,,,,,,,,,,,,,,,,,,,,,,,,,,,,,,,,,,,,,,,,,,,,,,,
,,,,,,5f843d6c842a0b04ab2faedb,62b2ad6c1e2691638a7866f0,2022-06-22_07h49.56.985,Colour_Asymmetry_Pilot,2022.1.3,Win32,59.95203837,62b2a6a25f2ba72662469a01,0,25,25,32,1,onetwo,,,,,,,,,,,,,,,,,,,,,,,,,,,,,,,,,,,,,,,,,,,,,,,,,,,,,,,,,,,,,,,,,,,,,,,,,,,,,,,,,,,,,,,,,,,,,,,,,,,,,,,,,,,,,,,,,,,,,,,,,,,,,,,,,,,,,,,,,,,,,,,,,,,,,,,
,,,,,,5f843d6c842a0b04ab2faedb,62b2ad6c1e2691638a7866f0,2022-06-22_07h49.56.985,Colour_Asymmetry_Pilot,2022.1.3,Win32,59.95203837,62b2a6a25f2ba72662469a01,0,26,26,136,1,onetwo,,,,,,,,,,,,,,,,,,,,,,,,,,,,,,,,,,,,,,,,,,,,,,,,,,,,,,,,,,,,,,,,,,,,,,,,,,,,,,,,,,,,,,,,,,,,,,,,,,,,,,,,,,,,,,,,,,,,,,,,,,,,,,,,,,,,,,,,,,,,,,,,,,,,,,,
,,,,,,5f843d6c842a0b04ab2faedb,62b2ad6c1e2691638a7866f0,2022-06-22_07h49.56.985,Colour_Asymmetry_Pilot,2022.1.3,Win32,59.95203837,62b2a6a25f2ba72662469a01,0,27,27,94,1,fourtwo,,,,,,,,,,,,,,,,,,,,,,,,,,,,,,,,,,,,,,,,,,,,,,,,,,,,,,,,,,,,,,,,,,,,,,,,,,,,,,,,,,,,,,,,,,,,,,,,,,,,,,,,,,,,,,,,,,,,,,,,,,,,,,,,,,,,,,,,,,,,,,,,,,,,,,,
,,,,,,5f843d6c842a0b04ab2faedb,62b2ad6c1e2691638a7866f0,2022-06-22_07h49.56.985,Colour_Asymmetry_Pilot,2022.1.3,Win32,59.95203837,62b2a6a25f2ba72662469a01,0,28,28,42,1,twoone,,,,,,,,,,,,,,,,,,,,,,,,,,,,,,,,,,,,,,,,,,,,,,,,,,,,,,,,,,,,,,,,,,,,,,,,,,,,,,,,,,,,,,,,,,,,,,,,,,,,,,,,,,,,,,,,,,,,,,,,,,,,,,,,,,,,,,,,,,,,,,,,,,,,,,,
,,,,,,5f843d6c842a0b04ab2faedb,62b2ad6c1e2691638a7866f0,2022-06-22_07h49.56.985,Colour_Asymmetry_Pilot,2022.1.3,Win32,59.95203837,62b2a6a25f2ba72662469a01,0,29,29,81,1,onethree,,,,,,,,,,,,,,,,,,,,,,,,,,,,,,,,,,,,,,,,,,,,,,,,,,,,,,,,,,,,,,,,,,,,,,,,,,,,,,,,,,,,,,,,,,,,,,,,,,,,,,,,,,,,,,,,,,,,,,,,,,,,,,,,,,,,,,,,,,,,,,,,,,,,,,,
,,,,,,5f843d6c842a0b04ab2faedb,62b2ad6c1e2691638a7866f0,2022-06-22_07h49.56.985,Colour_Asymmetry_Pilot,2022.1.3,Win32,59.95203837,62b2a6a25f2ba72662469a01,0,30,30,59,1,twofour,,,,,,,,,,,,,,,,,,,,,,,,,,,,,,,,,,,,,,,,,,,,,,,,,,,,,,,,,,,,,,,,,,,,,,,,,,,,,,,,,,,,,,,,,,,,,,,,,,,,,,,,,,,,,,,,,,,,,,,,,,,,,,,,,,,,,,,,,,,,,,,,,,,,,,,
,,,,,,5f843d6c842a0b04ab2faedb,62b2ad6c1e2691638a7866f0,2022-06-22_07h49.56.985,Colour_Asymmetry_Pilot,2022.1.3,Win32,59.95203837,62b2a6a25f2ba72662469a01,0,31,31,15,1,fourthree,,,,,,,,,,,,,,,,,,,,,,,,,,,,,,,,,,,,,,,,,,,,,,,,,,,,,,,,,,,,,,,,,,,,,,,,,,,,,,,,,,,,,,,,,,,,,,,,,,,,,,,,,,,,,,,,,,,,,,,,,,,,,,,,,,,,,,,,,,,,,,,,,,,,,,,
,,,,,,5f843d6c842a0b04ab2faedb,62b2ad6c1e2691638a7866f0,2022-06-22_07h49.56.985,Colour_Asymmetry_Pilot,2022.1.3,Win32,59.95203837,62b2a6a25f2ba72662469a01,0,32,32,25,1,onethree,,,,,,,,,,,,,,,,,,,,,,,,,,,,,,,,,,,,,,,,,,,,,,,,,,,,,,,,,,,,,,,,,,,,,,,,,,,,,,,,,,,,,,,,,,,,,,,,,,,,,,,,,,,,,,,,,,,,,,,,,,,,,,,,,,,,,,,,,,,,,,,,,,,,,,,
,,,,,,5f843d6c842a0b04ab2faedb,62b2ad6c1e2691638a7866f0,2022-06-22_07h49.56.985,Colour_Asymmetry_Pilot,2022.1.3,Win32,59.95203837,62b2a6a25f2ba72662469a01,0,33,33,114,1,twoone,,,,,,,,,,,,,,,,,,,,,,,,,,,,,,,,,,,,,,,,,,,,,,,,,,,,,,,,,,,,,,,,,,,,,,,,,,,,,,,,,,,,,,,,,,,,,,,,,,,,,,,,,,,,,,,,,,,,,,,,,,,,,,,,,,,,,,,,,,,,,,,,,,,,,,,
,,,,,,5f843d6c842a0b04ab2faedb,62b2ad6c1e2691638a7866f0,2022-06-22_07h49.56.985,Colour_Asymmetry_Pilot,2022.1.3,Win32,59.95203837,62b2a6a25f2ba72662469a01,0,34,34,104,1,onetwo,,,,,,,,,,,,,,,,,,,,,,,,,,,,,,,,,,,,,,,,,,,,,,,,,,,,,,,,,,,,,,,,,,,,,,,,,,,,,,,,,,,,,,,,,,,,,,,,,,,,,,,,,,,,,,,,,,,,,,,,,,,,,,,,,,,,,,,,,,,,,,,,,,,,,,,
,,,,,,5f843d6c842a0b04ab2faedb,62b2ad6c1e2691638a7866f0,2022-06-22_07h49.56.985,Colour_Asymmetry_Pilot,2022.1.3,Win32,59.95203837,62b2a6a25f2ba72662469a01,0,35,35,140,1,threeone,,,,,,,,,,,,,,,,,,,,,,,,,,,,,,,,,,,,,,,,,,,,,,,,,,,,,,,,,,,,,,,,,,,,,,,,,,,,,,,,,,,,,,,,,,,,,,,,,,,,,,,,,,,,,,,,,,,,,,,,,,,,,,,,,,,,,,,,,,,,,,,,,,,,,,,
,,,,,,5f843d6c842a0b04ab2faedb,62b2ad6c1e2691638a7866f0,2022-06-22_07h49.56.985,Colour_Asymmetry_Pilot,2022.1.3,Win32,59.95203837,62b2a6a25f2ba72662469a01,0,36,36,124,1,threeone,,,,,,,,,,,,,,,,,,,,,,,,,,,,,,,,,,,,,,,,,,,,,,,,,,,,,,,,,,,,,,,,,,,,,,,,,,,,,,,,,,,,,,,,,,,,,,,,,,,,,,,,,,,,,,,,,,,,,,,,,,,,,,,,,,,,,,,,,,,,,,,,,,,,,,,
,,,,,,5f843d6c842a0b04ab2faedb,62b2ad6c1e2691638a7866f0,2022-06-22_07h49.56.985,Colour_Asymmetry_Pilot,2022.1.3,Win32,59.95203837,62b2a6a25f2ba72662469a01,0,37,37,133,1,threefour,,,,,,,,,,,,,,,,,,,,,,,,,,,,,,,,,,,,,,,,,,,,,,,,,,,,,,,,,,,,,,,,,,,,,,,,,,,,,,,,,,,,,,,,,,,,,,,,,,,,,,,,,,,,,,,,,,,,,,,,,,,,,,,,,,,,,,,,,,,,,,,,,,,,,,,
,,,,,,5f843d6c842a0b04ab2faedb,62b2ad6c1e2691638a7866f0,2022-06-22_07h49.56.985,Colour_Asymmetry_Pilot,2022.1.3,Win32,59.95203837,62b2a6a25f2ba72662469a01,0,38,38,119,1,fourthree,,,,,,,,,,,,,,,,,,,,,,,,,,,,,,,,,,,,,,,,,,,,,,,,,,,,,,,,,,,,,,,,,,,,,,,,,,,,,,,,,,,,,,,,,,,,,,,,,,,,,,,,,,,,,,,,,,,,,,,,,,,,,,,,,,,,,,,,,,,,,,,,,,,,,,,
,,,,,,5f843d6c842a0b04ab2faedb,62b2ad6c1e2691638a7866f0,2022-06-22_07h49.56.985,Colour_Asymmetry_Pilot,2022.1.3,Win32,59.95203837,62b2a6a25f2ba72662469a01,0,39,39,96,1,onetwo,,,,,,,,,,,,,,,,,,,,,,,,,,,,,,,,,,,,,,,,,,,,,,,,,,,,,,,,,,,,,,,,,,,,,,,,,,,,,,,,,,,,,,,,,,,,,,,,,,,,,,,,,,,,,,,,,,,,,,,,,,,,,,,,,,,,,,,,,,,,,,,,,,,,,,,
,,,,,,5f843d6c842a0b04ab2faedb,62b2ad6c1e2691638a7866f0,2022-06-22_07h49.56.985,Colour_Asymmetry_Pilot,2022.1.3,Win32,59.95203837,62b2a6a25f2ba72662469a01,0,40,40,92,1,threeone,,,,,,,,,,,,,,,,,,,,,,,,,,,,,,,,,,,,,,,,,,,,,,,,,,,,,,,,,,,,,,,,,,,,,,,,,,,,,,,,,,,,,,,,,,,,,,,,,,,,,,,,,,,,,,,,,,,,,,,,,,,,,,,,,,,,,,,,,,,,,,,,,,,,,,,
,,,,,,5f843d6c842a0b04ab2faedb,62b2ad6c1e2691638a7866f0,2022-06-22_07h49.56.985,Colour_Asymmetry_Pilot,2022.1.3,Win32,59.95203837,62b2a6a25f2ba72662469a01,0,41,41,142,1,fourtwo,,,,,,,,,,,,,,,,,,,,,,,,,,,,,,,,,,,,,,,,,,,,,,,,,,,,,,,,,,,,,,,,,,,,,,,,,,,,,,,,,,,,,,,,,,,,,,,,,,,,,,,,,,,,,,,,,,,,,,,,,,,,,,,,,,,,,,,,,,,,,,,,,,,,,,,
,,,,,,5f843d6c842a0b04ab2faedb,62b2ad6c1e2691638a7866f0,2022-06-22_07h49.56.985,Colour_Asymmetry_Pilot,2022.1.3,Win32,59.95203837,62b2a6a25f2ba72662469a01,0,42,42,102,1,fourtwo,,,,,,,,,,,,,,,,,,,,,,,,,,,,,,,,,,,,,,,,,,,,,,,,,,,,,,,,,,,,,,,,,,,,,,,,,,,,,,,,,,,,,,,,,,,,,,,,,,,,,,,,,,,,,,,,,,,,,,,,,,,,,,,,,,,,,,,,,,,,,,,,,,,,,,,
,,,,,,5f843d6c842a0b04ab2faedb,62b2ad6c1e2691638a7866f0,2022-06-22_07h49.56.985,Colour_Asymmetry_Pilot,2022.1.3,Win32,59.95203837,62b2a6a25f2ba72662469a01,0,43,43,108,1,threeone,,,,,,,,,,,,,,,,,,,,,,,,,,,,,,,,,,,,,,,,,,,,,,,,,,,,,,,,,,,,,,,,,,,,,,,,,,,,,,,,,,,,,,,,,,,,,,,,,,,,,,,,,,,,,,,,,,,,,,,,,,,,,,,,,,,,,,,,,,,,,,,,,,,,,,,
,,,,,,5f843d6c842a0b04ab2faedb,62b2ad6c1e2691638a7866f0,2022-06-22_07h49.56.985,Colour_Asymmetry_Pilot,2022.1.3,Win32,59.95203837,62b2a6a25f2ba72662469a01,0,44,44,29,1,threefour,,,,,,,,,,,,,,,,,,,,,,,,,,,,,,,,,,,,,,,,,,,,,,,,,,,,,,,,,,,,,,,,,,,,,,,,,,,,,,,,,,,,,,,,,,,,,,,,,,,,,,,,,,,,,,,,,,,,,,,,,,,,,,,,,,,,,,,,,,,,,,,,,,,,,,,
,,,,,,5f843d6c842a0b04ab2faedb,62b2ad6c1e2691638a7866f0,2022-06-22_07h49.56.985,Colour_Asymmetry_Pilot,2022.1.3,Win32,59.95203837,62b2a6a25f2ba72662469a01,0,45,45,16,1,onetwo,,,,,,,,,,,,,,,,,,,,,,,,,,,,,,,,,,,,,,,,,,,,,,,,,,,,,,,,,,,,,,,,,,,,,,,,,,,,,,,,,,,,,,,,,,,,,,,,,,,,,,,,,,,,,,,,,,,,,,,,,,,,,,,,,,,,,,,,,,,,,,,,,,,,,,,
,,,,,,5f843d6c842a0b04ab2faedb,62b2ad6c1e2691638a7866f0,2022-06-22_07h49.56.985,Colour_Asymmetry_Pilot,2022.1.3,Win32,59.95203837,62b2a6a25f2ba72662469a01,0,46,46,58,1,twoone,,,,,,,,,,,,,,,,,,,,,,,,,,,,,,,,,,,,,,,,,,,,,,,,,,,,,,,,,,,,,,,,,,,,,,,,,,,,,,,,,,,,,,,,,,,,,,,,,,,,,,,,,,,,,,,,,,,,,,,,,,,,,,,,,,,,,,,,,,,,,,,,,,,,,,,
,,,,,,5f843d6c842a0b04ab2faedb,62b2ad6c1e2691638a7866f0,2022-06-22_07h49.56.985,Colour_Asymmetry_Pilot,2022.1.3,Win32,59.95203837,62b2a6a25f2ba72662469a01,0,47,47,74,1,twoone,,,,,,,,,,,,,,,,,,,,,,,,,,,,,,,,,,,,,,,,,,,,,,,,,,,,,,,,,,,,,,,,,,,,,,,,,,,,,,,,,,,,,,,,,,,,,,,,,,,,,,,,,,,,,,,,,,,,,,,,,,,,,,,,,,,,,,,,,,,,,,,,,,,,,,,
,,,,,,5f843d6c842a0b04ab2faedb,62b2ad6c1e2691638a7866f0,2022-06-22_07h49.56.985,Colour_Asymmetry_Pilot,2022.1.3,Win32,59.95203837,62b2a6a25f2ba72662469a01,0,48,48,62,1,fourtwo,,,,,,,,,,,,,,,,,,,,,,,,,,,,,,,,,,,,,,,,,,,,,,,,,,,,,,,,,,,,,,,,,,,,,,,,,,,,,,,,,,,,,,,,,,,,,,,,,,,,,,,,,,,,,,,,,,,,,,,,,,,,,,,,,,,,,,,,,,,,,,,,,,,,,,,
,,,,,,5f843d6c842a0b04ab2faedb,62b2ad6c1e2691638a7866f0,2022-06-22_07h49.56.985,Colour_Asymmetry_Pilot,2022.1.3,Win32,59.95203837,62b2a6a25f2ba72662469a01,0,49,49,137,1,onethree,,,,,,,,,,,,,,,,,,,,,,,,,,,,,,,,,,,,,,,,,,,,,,,,,,,,,,,,,,,,,,,,,,,,,,,,,,,,,,,,,,,,,,,,,,,,,,,,,,,,,,,,,,,,,,,,,,,,,,,,,,,,,,,,,,,,,,,,,,,,,,,,,,,,,,,
,,,,,,5f843d6c842a0b04ab2faedb,62b2ad6c1e2691638a7866f0,2022-06-22_07h49.56.985,Colour_Asymmetry_Pilot,2022.1.3,Win32,59.95203837,62b2a6a25f2ba72662469a01,0,50,50,4,1,threeone,,,,,,,,,,,,,,,,,,,,,,,,,,,,,,,,,,,,,,,,,,,,,,,,,,,,,,,,,,,,,,,,,,,,,,,,,,,,,,,,,,,,,,,,,,,,,,,,,,,,,,,,,,,,,,,,,,,,,,,,,,,,,,,,,,,,,,,,,,,,,,,,,,,,,,,
,,,,,,5f843d6c842a0b04ab2faedb,62b2ad6c1e2691638a7866f0,2022-06-22_07h49.56.985,Colour_Asymmetry_Pilot,2022.1.3,Win32,59.95203837,62b2a6a25f2ba72662469a01,0,51,51,88,1,onetwo,,,,,,,,,,,,,,,,,,,,,,,,,,,,,,,,,,,,,,,,,,,,,,,,,,,,,,,,,,,,,,,,,,,,,,,,,,,,,,,,,,,,,,,,,,,,,,,,,,,,,,,,,,,,,,,,,,,,,,,,,,,,,,,,,,,,,,,,,,,,,,,,,,,,,,,
,,,,,,5f843d6c842a0b04ab2faedb,62b2ad6c1e2691638a7866f0,2022-06-22_07h49.56.985,Colour_Asymmetry_Pilot,2022.1.3,Win32,59.95203837,62b2a6a25f2ba72662469a01,0,52,52,68,1,threeone,,,,,,,,,,,,,,,,,,,,,,,,,,,,,,,,,,,,,,,,,,,,,,,,,,,,,,,,,,,,,,,,,,,,,,,,,,,,,,,,,,,,,,,,,,,,,,,,,,,,,,,,,,,,,,,,,,,,,,,,,,,,,,,,,,,,,,,,,,,,,,,,,,,,,,,
,,,,,,5f843d6c842a0b04ab2faedb,62b2ad6c1e2691638a7866f0,2022-06-22_07h49.56.985,Colour_Asymmetry_Pilot,2022.1.3,Win32,59.95203837,62b2a6a25f2ba72662469a01,0,53,53,150,1,fourtwo,,,,,,,,,,,,,,,,,,,,,,,,,,,,,,,,,,,,,,,,,,,,,,,,,,,,,,,,,,,,,,,,,,,,,,,,,,,,,,,,,,,,,,,,,,,,,,,,,,,,,,,,,,,,,,,,,,,,,,,,,,,,,,,,,,,,,,,,,,,,,,,,,,,,,,,
,,,,,,5f843d6c842a0b04ab2faedb,62b2ad6c1e2691638a7866f0,2022-06-22_07h49.56.985,Colour_Asymmetry_Pilot,2022.1.3,Win32,59.95203837,62b2a6a25f2ba72662469a01,0,54,54,34,1,twoone,,,,,,,,,,,,,,,,,,,,,,,,,,,,,,,,,,,,,,,,,,,,,,,,,,,,,,,,,,,,,,,,,,,,,,,,,,,,,,,,,,,,,,,,,,,,,,,,,,,,,,,,,,,,,,,,,,,,,,,,,,,,,,,,,,,,,,,,,,,,,,,,,,,,,,,
,,,,,,5f843d6c842a0b04ab2faedb,62b2ad6c1e2691638a7866f0,2022-06-22_07h49.56.985,Colour_Asymmetry_Pilot,2022.1.3,Win32,59.95203837,62b2a6a25f2ba72662469a01,0,55,55,67,1,twofour,,,,,,,,,,,,,,,,,,,,,,,,,,,,,,,,,,,,,,,,,,,,,,,,,,,,,,,,,,,,,,,,,,,,,,,,,,,,,,,,,,,,,,,,,,,,,,,,,,,,,,,,,,,,,,,,,,,,,,,,,,,,,,,,,,,,,,,,,,,,,,,,,,,,,,,
,,,,,,5f843d6c842a0b04ab2faedb,62b2ad6c1e2691638a7866f0,2022-06-22_07h49.56.985,Colour_Asymmetry_Pilot,2022.1.3,Win32,59.95203837,62b2a6a25f2ba72662469a01,0,56,56,134,1,fourtwo,,,,,,,,,,,,,,,,,,,,,,,,,,,,,,,,,,,,,,,,,,,,,,,,,,,,,,,,,,,,,,,,,,,,,,,,,,,,,,,,,,,,,,,,,,,,,,,,,,,,,,,,,,,,,,,,,,,,,,,,,,,,,,,,,,,,,,,,,,,,,,,,,,,,,,,
,,,,,,5f843d6c842a0b04ab2faedb,62b2ad6c1e2691638a7866f0,2022-06-22_07h49.56.985,Colour_Asymmetry_Pilot,2022.1.3,Win32,59.95203837,62b2a6a25f2ba72662469a01,0,57,57,78,1,fourtwo,,,,,,,,,,,,,,,,,,,,,,,,,,,,,,,,,,,,,,,,,,,,,,,,,,,,,,,,,,,,,,,,,,,,,,,,,,,,,,,,,,,,,,,,,,,,,,,,,,,,,,,,,,,,,,,,,,,,,,,,,,,,,,,,,,,,,,,,,,,,,,,,,,,,,,,
,,,,,,5f843d6c842a0b04ab2faedb,62b2ad6c1e2691638a7866f0,2022-06-22_07h49.56.985,Colour_Asymmetry_Pilot,2022.1.3,Win32,59.95203837,62b2a6a25f2ba72662469a01,0,58,58,8,1,onetwo,,,,,,,,,,,,,,,,,,,,,,,,,,,,,,,,,,,,,,,,,,,,,,,,,,,,,,,,,,,,,,,,,,,,,,,,,,,,,,,,,,,,,,,,,,,,,,,,,,,,,,,,,,,,,,,,,,,,,,,,,,,,,,,,,,,,,,,,,,,,,,,,,,,,,,,
,,,,,,5f843d6c842a0b04ab2faedb,62b2ad6c1e2691638a7866f0,2022-06-22_07h49.56.985,Colour_Asymmetry_Pilot,2022.1.3,Win32,59.95203837,62b2a6a25f2ba72662469a01,0,59,59,45,1,threefour,,,,,,,,,,,,,,,,,,,,,,,,,,,,,,,,,,,,,,,,,,,,,,,,,,,,,,,,,,,,,,,,,,,,,,,,,,,,,,,,,,,,,,,,,,,,,,,,,,,,,,,,,,,,,,,,,,,,,,,,,,,,,,,,,,,,,,,,,,,,,,,,,,,,,,,
,,,,,,5f843d6c842a0b04ab2faedb,62b2ad6c1e2691638a7866f0,2022-06-22_07h49.56.985,Colour_Asymmetry_Pilot,2022.1.3,Win32,59.95203837,62b2a6a25f2ba72662469a01,0,60,60,120,1,onetwo,,,,,,,,,,,,,,,,,,,,,,,,,,,,,,,,,,,,,,,,,,,,,,,,,,,,,,,,,,,,,,,,,,,,,,,,,,,,,,,,,,,,,,,,,,,,,,,,,,,,,,,,,,,,,,,,,,,,,,,,,,,,,,,,,,,,,,,,,,,,,,,,,,,,,,,
,,,,,,5f843d6c842a0b04ab2faedb,62b2ad6c1e2691638a7866f0,2022-06-22_07h49.56.985,Colour_Asymmetry_Pilot,2022.1.3,Win32,59.95203837,62b2a6a25f2ba72662469a01,0,61,61,28,1,threeone,,,,,,,,,,,,,,,,,,,,,,,,,,,,,,,,,,,,,,,,,,,,,,,,,,,,,,,,,,,,,,,,,,,,,,,,,,,,,,,,,,,,,,,,,,,,,,,,,,,,,,,,,,,,,,,,,,,,,,,,,,,,,,,,,,,,,,,,,,,,,,,,,,,,,,,
,,,,,,5f843d6c842a0b04ab2faedb,62b2ad6c1e2691638a7866f0,2022-06-22_07h49.56.985,Colour_Asymmetry_Pilot,2022.1.3,Win32,59.95203837,62b2a6a25f2ba72662469a01,0,62,62,148,1,threeone,,,,,,,,,,,,,,,,,,,,,,,,,,,,,,,,,,,,,,,,,,,,,,,,,,,,,,,,,,,,,,,,,,,,,,,,,,,,,,,,,,,,,,,,,,,,,,,,,,,,,,,,,,,,,,,,,,,,,,,,,,,,,,,,,,,,,,,,,,,,,,,,,,,,,,,
,,,,,,5f843d6c842a0b04ab2faedb,62b2ad6c1e2691638a7866f0,2022-06-22_07h49.56.985,Colour_Asymmetry_Pilot,2022.1.3,Win32,59.95203837,62b2a6a25f2ba72662469a01,0,63,63,18,1,twoone,,,,,,,,,,,,,,,,,,,,,,,,,,,,,,,,,,,,,,,,,,,,,,,,,,,,,,,,,,,,,,,,,,,,,,,,,,,,,,,,,,,,,,,,,,,,,,,,,,,,,,,,,,,,,,,,,,,,,,,,,,,,,,,,,,,,,,,,,,,,,,,,,,,,,,,
,,,,,,5f843d6c842a0b04ab2faedb,62b2ad6c1e2691638a7866f0,2022-06-22_07h49.56.985,Colour_Asymmetry_Pilot,2022.1.3,Win32,59.95203837,62b2a6a25f2ba72662469a01,0,64,64,76,1,threeone,,,,,,,,,,,,,,,,,,,,,,,,,,,,,,,,,,,,,,,,,,,,,,,,,,,,,,,,,,,,,,,,,,,,,,,,,,,,,,,,,,,,,,,,,,,,,,,,,,,,,,,,,,,,,,,,,,,,,,,,,,,,,,,,,,,,,,,,,,,,,,,,,,,,,,,
,,,,,,5f843d6c842a0b04ab2faedb,62b2ad6c1e2691638a7866f0,2022-06-22_07h49.56.985,Colour_Asymmetry_Pilot,2022.1.3,Win32,59.95203837,62b2a6a25f2ba72662469a01,0,65,65,84,1,threeone,,,,,,,,,,,,,,,,,,,,,,,,,,,,,,,,,,,,,,,,,,,,,,,,,,,,,,,,,,,,,,,,,,,,,,,,,,,,,,,,,,,,,,,,,,,,,,,,,,,,,,,,,,,,,,,,,,,,,,,,,,,,,,,,,,,,,,,,,,,,,,,,,,,,,,,
,,,,,,5f843d6c842a0b04ab2faedb,62b2ad6c1e2691638a7866f0,2022-06-22_07h49.56.985,Colour_Asymmetry_Pilot,2022.1.3,Win32,59.95203837,62b2a6a25f2ba72662469a01,0,66,66,55,1,fourthree,,,,,,,,,,,,,,,,,,,,,,,,,,,,,,,,,,,,,,,,,,,,,,,,,,,,,,,,,,,,,,,,,,,,,,,,,,,,,,,,,,,,,,,,,,,,,,,,,,,,,,,,,,,,,,,,,,,,,,,,,,,,,,,,,,,,,,,,,,,,,,,,,,,,,,,
,,,,,,5f843d6c842a0b04ab2faedb,62b2ad6c1e2691638a7866f0,2022-06-22_07h49.56.985,Colour_Asymmetry_Pilot,2022.1.3,Win32,59.95203837,62b2a6a25f2ba72662469a01,0,67,67,115,1,twofour,,,,,,,,,,,,,,,,,,,,,,,,,,,,,,,,,,,,,,,,,,,,,,,,,,,,,,,,,,,,,,,,,,,,,,,,,,,,,,,,,,,,,,,,,,,,,,,,,,,,,,,,,,,,,,,,,,,,,,,,,,,,,,,,,,,,,,,,,,,,,,,,,,,,,,,
,,,,,,5f843d6c842a0b04ab2faedb,62b2ad6c1e2691638a7866f0,2022-06-22_07h49.56.985,Colour_Asymmetry_Pilot,2022.1.3,Win32,59.95203837,62b2a6a25f2ba72662469a01,0,68,68,131,1,twofour,,,,,,,,,,,,,,,,,,,,,,,,,,,,,,,,,,,,,,,,,,,,,,,,,,,,,,,,,,,,,,,,,,,,,,,,,,,,,,,,,,,,,,,,,,,,,,,,,,,,,,,,,,,,,,,,,,,,,,,,,,,,,,,,,,,,,,,,,,,,,,,,,,,,,,,
,,,,,,5f843d6c842a0b04ab2faedb,62b2ad6c1e2691638a7866f0,2022-06-22_07h49.56.985,Colour_Asymmetry_Pilot,2022.1.3,Win32,59.95203837,62b2a6a25f2ba72662469a01,0,69,69,36,1,threeone,,,,,,,,,,,,,,,,,,,,,,,,,,,,,,,,,,,,,,,,,,,,,,,,,,,,,,,,,,,,,,,,,,,,,,,,,,,,,,,,,,,,,,,,,,,,,,,,,,,,,,,,,,,,,,,,,,,,,,,,,,,,,,,,,,,,,,,,,,,,,,,,,,,,,,,
,,,,,,5f843d6c842a0b04ab2faedb,62b2ad6c1e2691638a7866f0,2022-06-22_07h49.56.985,Colour_Asymmetry_Pilot,2022.1.3,Win32,59.95203837,62b2a6a25f2ba72662469a01,0,70,70,38,1,fourtwo,,,,,,,,,,,,,,,,,,,,,,,,,,,,,,,,,,,,,,,,,,,,,,,,,,,,,,,,,,,,,,,,,,,,,,,,,,,,,,,,,,,,,,,,,,,,,,,,,,,,,,,,,,,,,,,,,,,,,,,,,,,,,,,,,,,,,,,,,,,,,,,,,,,,,,,
,,,,,,5f843d6c842a0b04ab2faedb,62b2ad6c1e2691638a7866f0,2022-06-22_07h49.56.985,Colour_Asymmetry_Pilot,2022.1.3,Win32,59.95203837,62b2a6a25f2ba72662469a01,0,71,71,118,1,fourtwo,,,,,,,,,,,,,,,,,,,,,,,,,,,,,,,,,,,,,,,,,,,,,,,,,,,,,,,,,,,,,,,,,,,,,,,,,,,,,,,,,,,,,,,,,,,,,,,,,,,,,,,,,,,,,,,,,,,,,,,,,,,,,,,,,,,,,,,,,,,,,,,,,,,,,,,
,,,,,,5f843d6c842a0b04ab2faedb,62b2ad6c1e2691638a7866f0,2022-06-22_07h49.56.985,Colour_Asymmetry_Pilot,2022.1.3,Win32,59.95203837,62b2a6a25f2ba72662469a01,0,72,72,61,1,threefour,,,,,,,,,,,,,,,,,,,,,,,,,,,,,,,,,,,,,,,,,,,,,,,,,,,,,,,,,,,,,,,,,,,,,,,,,,,,,,,,,,,,,,,,,,,,,,,,,,,,,,,,,,,,,,,,,,,,,,,,,,,,,,,,,,,,,,,,,,,,,,,,,,,,,,,
,,,,,,5f843d6c842a0b04ab2faedb,62b2ad6c1e2691638a7866f0,2022-06-22_07h49.56.985,Colour_Asymmetry_Pilot,2022.1.3,Win32,59.95203837,62b2a6a25f2ba72662469a01,0,73,73,10,1,twoone,,,,,,,,,,,,,,,,,,,,,,,,,,,,,,,,,,,,,,,,,,,,,,,,,,,,,,,,,,,,,,,,,,,,,,,,,,,,,,,,,,,,,,,,,,,,,,,,,,,,,,,,,,,,,,,,,,,,,,,,,,,,,,,,,,,,,,,,,,,,,,,,,,,,,,,
,,,,,,5f843d6c842a0b04ab2faedb,62b2ad6c1e2691638a7866f0,2022-06-22_07h49.56.985,Colour_Asymmetry_Pilot,2022.1.3,Win32,59.95203837,62b2a6a25f2ba72662469a01,0,74,74,73,1,onethree,,,,,,,,,,,,,,,,,,,,,,,,,,,,,,,,,,,,,,,,,,,,,,,,,,,,,,,,,,,,,,,,,,,,,,,,,,,,,,,,,,,,,,,,,,,,,,,,,,,,,,,,,,,,,,,,,,,,,,,,,,,,,,,,,,,,,,,,,,,,,,,,,,,,,,,
,,,,,,5f843d6c842a0b04ab2faedb,62b2ad6c1e2691638a7866f0,2022-06-22_07h49.56.985,Colour_Asymmetry_Pilot,2022.1.3,Win32,59.95203837,62b2a6a25f2ba72662469a01,0,75,75,146,1,twoone,,,,,,,,,,,,,,,,,,,,,,,,,,,,,,,,,,,,,,,,,,,,,,,,,,,,,,,,,,,,,,,,,,,,,,,,,,,,,,,,,,,,,,,,,,,,,,,,,,,,,,,,,,,,,,,,,,,,,,,,,,,,,,,,,,,,,,,,,,,,,,,,,,,,,,,
,,,,,,5f843d6c842a0b04ab2faedb,62b2ad6c1e2691638a7866f0,2022-06-22_07h49.56.985,Colour_Asymmetry_Pilot,2022.1.3,Win32,59.95203837,62b2a6a25f2ba72662469a01,0,76,76,13,1,threefour,,,,,,,,,,,,,,,,,,,,,,,,,,,,,,,,,,,,,,,,,,,,,,,,,,,,,,,,,,,,,,,,,,,,,,,,,,,,,,,,,,,,,,,,,,,,,,,,,,,,,,,,,,,,,,,,,,,,,,,,,,,,,,,,,,,,,,,,,,,,,,,,,,,,,,,
,,,,,,5f843d6c842a0b04ab2faedb,62b2ad6c1e2691638a7866f0,2022-06-22_07h49.56.985,Colour_Asymmetry_Pilot,2022.1.3,Win32,59.95203837,62b2a6a25f2ba72662469a01,0,77,77,110,1,fourtwo,,,,,,,,,,,,,,,,,,,,,,,,,,,,,,,,,,,,,,,,,,,,,,,,,,,,,,,,,,,,,,,,,,,,,,,,,,,,,,,,,,,,,,,,,,,,,,,,,,,,,,,,,,,,,,,,,,,,,,,,,,,,,,,,,,,,,,,,,,,,,,,,,,,,,,,
,,,,,,5f843d6c842a0b04ab2faedb,62b2ad6c1e2691638a7866f0,2022-06-22_07h49.56.985,Colour_Asymmetry_Pilot,2022.1.3,Win32,59.95203837,62b2a6a25f2ba72662469a01,0,78,78,0,1,onetwo,,,,,,,,,,,,,,,,,,,,,,,,,,,,,,,,,,,,,,,,,,,,,,,,,,,,,,,,,,,,,,,,,,,,,,,,,,,,,,,,,,,,,,,,,,,,,,,,,,,,,,,,,,,,,,,,,,,,,,,,,,,,,,,,,,,,,,,,,,,,,,,,,,,,,,,
,,,,,,5f843d6c842a0b04ab2faedb,62b2ad6c1e2691638a7866f0,2022-06-22_07h49.56.985,Colour_Asymmetry_Pilot,2022.1.3,Win32,59.95203837,62b2a6a25f2ba72662469a01,0,79,79,31,1,fourthree,,,,,,,,,,,,,,,,,,,,,,,,,,,,,,,,,,,,,,,,,,,,,,,,,,,,,,,,,,,,,,,,,,,,,,,,,,,,,,,,,,,,,,,,,,,,,,,,,,,,,,,,,,,,,,,,,,,,,,,,,,,,,,,,,,,,,,,,,,,,,,,,,,,,,,,
,,,,,,5f843d6c842a0b04ab2faedb,62b2ad6c1e2691638a7866f0,2022-06-22_07h49.56.985,Colour_Asymmetry_Pilot,2022.1.3,Win32,59.95203837,62b2a6a25f2ba72662469a01,0,80,80,17,1,onethree,,,,,,,,,,,,,,,,,,,,,,,,,,,,,,,,,,,,,,,,,,,,,,,,,,,,,,,,,,,,,,,,,,,,,,,,,,,,,,,,,,,,,,,,,,,,,,,,,,,,,,,,,,,,,,,,,,,,,,,,,,,,,,,,,,,,,,,,,,,,,,,,,,,,,,,
,,,,,,5f843d6c842a0b04ab2faedb,62b2ad6c1e2691638a7866f0,2022-06-22_07h49.56.985,Colour_Asymmetry_Pilot,2022.1.3,Win32,59.95203837,62b2a6a25f2ba72662469a01,0,81,81,80,1,onetwo,,,,,,,,,,,,,,,,,,,,,,,,,,,,,,,,,,,,,,,,,,,,,,,,,,,,,,,,,,,,,,,,,,,,,,,,,,,,,,,,,,,,,,,,,,,,,,,,,,,,,,,,,,,,,,,,,,,,,,,,,,,,,,,,,,,,,,,,,,,,,,,,,,,,,,,
,,,,,,5f843d6c842a0b04ab2faedb,62b2ad6c1e2691638a7866f0,2022-06-22_07h49.56.985,Colour_Asymmetry_Pilot,2022.1.3,Win32,59.95203837,62b2a6a25f2ba72662469a01,0,82,82,49,1,onethree,,,,,,,,,,,,,,,,,,,,,,,,,,,,,,,,,,,,,,,,,,,,,,,,,,,,,,,,,,,,,,,,,,,,,,,,,,,,,,,,,,,,,,,,,,,,,,,,,,,,,,,,,,,,,,,,,,,,,,,,,,,,,,,,,,,,,,,,,,,,,,,,,,,,,,,
,,,,,,5f843d6c842a0b04ab2faedb,62b2ad6c1e2691638a7866f0,2022-06-22_07h49.56.985,Colour_Asymmetry_Pilot,2022.1.3,Win32,59.95203837,62b2a6a25f2ba72662469a01,0,83,83,157,1,threefour,,,,,,,,,,,,,,,,,,,,,,,,,,,,,,,,,,,,,,,,,,,,,,,,,,,,,,,,,,,,,,,,,,,,,,,,,,,,,,,,,,,,,,,,,,,,,,,,,,,,,,,,,,,,,,,,,,,,,,,,,,,,,,,,,,,,,,,,,,,,,,,,,,,,,,,
,,,,,,5f843d6c842a0b04ab2faedb,62b2ad6c1e2691638a7866f0,2022-06-22_07h49.56.985,Colour_Asymmetry_Pilot,2022.1.3,Win32,59.95203837,62b2a6a25f2ba72662469a01,0,84,84,53,1,threefour,,,,,,,,,,,,,,,,,,,,,,,,,,,,,,,,,,,,,,,,,,,,,,,,,,,,,,,,,,,,,,,,,,,,,,,,,,,,,,,,,,,,,,,,,,,,,,,,,,,,,,,,,,,,,,,,,,,,,,,,,,,,,,,,,,,,,,,,,,,,,,,,,,,,,,,
,,,,,,5f843d6c842a0b04ab2faedb,62b2ad6c1e2691638a7866f0,2022-06-22_07h49.56.985,Colour_Asymmetry_Pilot,2022.1.3,Win32,59.95203837,62b2a6a25f2ba72662469a01,0,85,85,14,1,fourtwo,,,,,,,,,,,,,,,,,,,,,,,,,,,,,,,,,,,,,,,,,,,,,,,,,,,,,,,,,,,,,,,,,,,,,,,,,,,,,,,,,,,,,,,,,,,,,,,,,,,,,,,,,,,,,,,,,,,,,,,,,,,,,,,,,,,,,,,,,,,,,,,,,,,,,,,
,,,,,,5f843d6c842a0b04ab2faedb,62b2ad6c1e2691638a7866f0,2022-06-22_07h49.56.985,Colour_Asymmetry_Pilot,2022.1.3,Win32,59.95203837,62b2a6a25f2ba72662469a01,0,86,86,86,1,fourtwo,,,,,,,,,,,,,,,,,,,,,,,,,,,,,,,,,,,,,,,,,,,,,,,,,,,,,,,,,,,,,,,,,,,,,,,,,,,,,,,,,,,,,,,,,,,,,,,,,,,,,,,,,,,,,,,,,,,,,,,,,,,,,,,,,,,,,,,,,,,,,,,,,,,,,,,
,,,,,,5f843d6c842a0b04ab2faedb,62b2ad6c1e2691638a7866f0,2022-06-22_07h49.56.985,Colour_Asymmetry_Pilot,2022.1.3,Win32,59.95203837,62b2a6a25f2ba72662469a01,0,87,87,56,1,onetwo,,,,,,,,,,,,,,,,,,,,,,,,,,,,,,,,,,,,,,,,,,,,,,,,,,,,,,,,,,,,,,,,,,,,,,,,,,,,,,,,,,,,,,,,,,,,,,,,,,,,,,,,,,,,,,,,,,,,,,,,,,,,,,,,,,,,,,,,,,,,,,,,,,,,,,,
,,,,,,5f843d6c842a0b04ab2faedb,62b2ad6c1e2691638a7866f0,2022-06-22_07h49.56.985,Colour_Asymmetry_Pilot,2022.1.3,Win32,59.95203837,62b2a6a25f2ba72662469a01,0,88,88,139,1,twofour,,,,,,,,,,,,,,,,,,,,,,,,,,,,,,,,,,,,,,,,,,,,,,,,,,,,,,,,,,,,,,,,,,,,,,,,,,,,,,,,,,,,,,,,,,,,,,,,,,,,,,,,,,,,,,,,,,,,,,,,,,,,,,,,,,,,,,,,,,,,,,,,,,,,,,,
,,,,,,5f843d6c842a0b04ab2faedb,62b2ad6c1e2691638a7866f0,2022-06-22_07h49.56.985,Colour_Asymmetry_Pilot,2022.1.3,Win32,59.95203837,62b2a6a25f2ba72662469a01,0,89,89,60,1,threeone,,,,,,,,,,,,,,,,,,,,,,,,,,,,,,,,,,,,,,,,,,,,,,,,,,,,,,,,,,,,,,,,,,,,,,,,,,,,,,,,,,,,,,,,,,,,,,,,,,,,,,,,,,,,,,,,,,,,,,,,,,,,,,,,,,,,,,,,,,,,,,,,,,,,,,,
,,,,,,5f843d6c842a0b04ab2faedb,62b2ad6c1e2691638a7866f0,2022-06-22_07h49.56.985,Colour_Asymmetry_Pilot,2022.1.3,Win32,59.95203837,62b2a6a25f2ba72662469a01,0,90,90,5,1,threefour,,,,,,,,,,,,,,,,,,,,,,,,,,,,,,,,,,,,,,,,,,,,,,,,,,,,,,,,,,,,,,,,,,,,,,,,,,,,,,,,,,,,,,,,,,,,,,,,,,,,,,,,,,,,,,,,,,,,,,,,,,,,,,,,,,,,,,,,,,,,,,,,,,,,,,,
,,,,,,5f843d6c842a0b04ab2faedb,62b2ad6c1e2691638a7866f0,2022-06-22_07h49.56.985,Colour_Asymmetry_Pilot,2022.1.3,Win32,59.95203837,62b2a6a25f2ba72662469a01,0,91,91,113,1,onethree,,,,,,,,,,,,,,,,,,,,,,,,,,,,,,,,,,,,,,,,,,,,,,,,,,,,,,,,,,,,,,,,,,,,,,,,,,,,,,,,,,,,,,,,,,,,,,,,,,,,,,,,,,,,,,,,,,,,,,,,,,,,,,,,,,,,,,,,,,,,,,,,,,,,,,,
,,,,,,5f843d6c842a0b04ab2faedb,62b2ad6c1e2691638a7866f0,2022-06-22_07h49.56.985,Colour_Asymmetry_Pilot,2022.1.3,Win32,59.95203837,62b2a6a25f2ba72662469a01,0,92,92,39,1,fourthree,,,,,,,,,,,,,,,,,,,,,,,,,,,,,,,,,,,,,,,,,,,,,,,,,,,,,,,,,,,,,,,,,,,,,,,,,,,,,,,,,,,,,,,,,,,,,,,,,,,,,,,,,,,,,,,,,,,,,,,,,,,,,,,,,,,,,,,,,,,,,,,,,,,,,,,
,,,,,,5f843d6c842a0b04ab2faedb,62b2ad6c1e2691638a7866f0,2022-06-22_07h49.56.985,Colour_Asymmetry_Pilot,2022.1.3,Win32,59.95203837,62b2a6a25f2ba72662469a01,0,93,93,126,1,fourtwo,,,,,,,,,,,,,,,,,,,,,,,,,,,,,,,,,,,,,,,,,,,,,,,,,,,,,,,,,,,,,,,,,,,,,,,,,,,,,,,,,,,,,,,,,,,,,,,,,,,,,,,,,,,,,,,,,,,,,,,,,,,,,,,,,,,,,,,,,,,,,,,,,,,,,,,
,,,,,,5f843d6c842a0b04ab2faedb,62b2ad6c1e2691638a7866f0,2022-06-22_07h49.56.985,Colour_Asymmetry_Pilot,2022.1.3,Win32,59.95203837,62b2a6a25f2ba72662469a01,0,94,94,160,1,onetwo,,,,,,,,,,,,,,,,,,,,,,,,,,,,,,,,,,,,,,,,,,,,,,,,,,,,,,,,,,,,,,,,,,,,,,,,,,,,,,,,,,,,,,,,,,,,,,,,,,,,,,,,,,,,,,,,,,,,,,,,,,,,,,,,,,,,,,,,,,,,,,,,,,,,,,,
,,,,,,5f843d6c842a0b04ab2faedb,62b2ad6c1e2691638a7866f0,2022-06-22_07h49.56.985,Colour_Asymmetry_Pilot,2022.1.3,Win32,59.95203837,62b2a6a25f2ba72662469a01,0,95,95,112,1,onetwo,,,,,,,,,,,,,,,,,,,,,,,,,,,,,,,,,,,,,,,,,,,,,,,,,,,,,,,,,,,,,,,,,,,,,,,,,,,,,,,,,,,,,,,,,,,,,,,,,,,,,,,,,,,,,,,,,,,,,,,,,,,,,,,,,,,,,,,,,,,,,,,,,,,,,,,
,,,,,,5f843d6c842a0b04ab2faedb,62b2ad6c1e2691638a7866f0,2022-06-22_07h49.56.985,Colour_Asymmetry_Pilot,2022.1.3,Win32,59.95203837,62b2a6a25f2ba72662469a01,0,96,96,82,1,twoone,,,,,,,,,,,,,,,,,,,,,,,,,,,,,,,,,,,,,,,,,,,,,,,,,,,,,,,,,,,,,,,,,,,,,,,,,,,,,,,,,,,,,,,,,,,,,,,,,,,,,,,,,,,,,,,,,,,,,,,,,,,,,,,,,,,,,,,,,,,,,,,,,,,,,,,
,,,,,,5f843d6c842a0b04ab2faedb,62b2ad6c1e2691638a7866f0,2022-06-22_07h49.56.985,Colour_Asymmetry_Pilot,2022.1.3,Win32,59.95203837,62b2a6a25f2ba72662469a01,0,97,97,30,1,fourtwo,,,,,,,,,,,,,,,,,,,,,,,,,,,,,,,,,,,,,,,,,,,,,,,,,,,,,,,,,,,,,,,,,,,,,,,,,,,,,,,,,,,,,,,,,,,,,,,,,,,,,,,,,,,,,,,,,,,,,,,,,,,,,,,,,,,,,,,,,,,,,,,,,,,,,,,
,,,,,,5f843d6c842a0b04ab2faedb,62b2ad6c1e2691638a7866f0,2022-06-22_07h49.56.985,Colour_Asymmetry_Pilot,2022.1.3,Win32,59.95203837,62b2a6a25f2ba72662469a01,0,98,98,106,1,twoone,,,,,,,,,,,,,,,,,,,,,,,,,,,,,,,,,,,,,,,,,,,,,,,,,,,,,,,,,,,,,,,,,,,,,,,,,,,,,,,,,,,,,,,,,,,,,,,,,,,,,,,,,,,,,,,,,,,,,,,,,,,,,,,,,,,,,,,,,,,,,,,,,,,,,,,
,,,,,,5f843d6c842a0b04ab2faedb,62b2ad6c1e2691638a7866f0,2022-06-22_07h49.56.985,Colour_Asymmetry_Pilot,2022.1.3,Win32,59.95203837,62b2a6a25f2ba72662469a01,0,99,99,89,1,onethree,,,,,,,,,,,,,,,,,,,,,,,,,,,,,,,,,,,,,,,,,,,,,,,,,,,,,,,,,,,,,,,,,,,,,,,,,,,,,,,,,,,,,,,,,,,,,,,,,,,,,,,,,,,,,,,,,,,,,,,,,,,,,,,,,,,,,,,,,,,,,,,,,,,,,,,
,,,,,,5f843d6c842a0b04ab2faedb,62b2ad6c1e2691638a7866f0,2022-06-22_07h49.56.985,Colour_Asymmetry_Pilot,2022.1.3,Win32,59.95203837,62b2a6a25f2ba72662469a01,0,100,100,6,1,fourtwo,,,,,,,,,,,,,,,,,,,,,,,,,,,,,,,,,,,,,,,,,,,,,,,,,,,,,,,,,,,,,,,,,,,,,,,,,,,,,,,,,,,,,,,,,,,,,,,,,,,,,,,,,,,,,,,,,,,,,,,,,,,,,,,,,,,,,,,,,,,,,,,,,,,,,,,
,,,,,,5f843d6c842a0b04ab2faedb,62b2ad6c1e2691638a7866f0,2022-06-22_07h49.56.985,Colour_Asymmetry_Pilot,2022.1.3,Win32,59.95203837,62b2a6a25f2ba72662469a01,0,101,101,41,1,onethree,,,,,,,,,,,,,,,,,,,,,,,,,,,,,,,,,,,,,,,,,,,,,,,,,,,,,,,,,,,,,,,,,,,,,,,,,,,,,,,,,,,,,,,,,,,,,,,,,,,,,,,,,,,,,,,,,,,,,,,,,,,,,,,,,,,,,,,,,,,,,,,,,,,,,,,
,,,,,,5f843d6c842a0b04ab2faedb,62b2ad6c1e2691638a7866f0,2022-06-22_07h49.56.985,Colour_Asymmetry_Pilot,2022.1.3,Win32,59.95203837,62b2a6a25f2ba72662469a01,0,102,102,2,1,twoone,,,,,,,,,,,,,,,,,,,,,,,,,,,,,,,,,,,,,,,,,,,,,,,,,,,,,,,,,,,,,,,,,,,,,,,,,,,,,,,,,,,,,,,,,,,,,,,,,,,,,,,,,,,,,,,,,,,,,,,,,,,,,,,,,,,,,,,,,,,,,,,,,,,,,,,
,,,,,,5f843d6c842a0b04ab2faedb,62b2ad6c1e2691638a7866f0,2022-06-22_07h49.56.985,Colour_Asymmetry_Pilot,2022.1.3,Win32,59.95203837,62b2a6a25f2ba72662469a01,0,103,103,158,1,fourtwo,,,,,,,,,,,,,,,,,,,,,,,,,,,,,,,,,,,,,,,,,,,,,,,,,,,,,,,,,,,,,,,,,,,,,,,,,,,,,,,,,,,,,,,,,,,,,,,,,,,,,,,,,,,,,,,,,,,,,,,,,,,,,,,,,,,,,,,,,,,,,,,,,,,,,,,
,,,,,,5f843d6c842a0b04ab2faedb,62b2ad6c1e2691638a7866f0,2022-06-22_07h49.56.985,Colour_Asymmetry_Pilot,2022.1.3,Win32,59.95203837,62b2a6a25f2ba72662469a01,0,104,104,99,1,twofour,,,,,,,,,,,,,,,,,,,,,,,,,,,,,,,,,,,,,,,,,,,,,,,,,,,,,,,,,,,,,,,,,,,,,,,,,,,,,,,,,,,,,,,,,,,,,,,,,,,,,,,,,,,,,,,,,,,,,,,,,,,,,,,,,,,,,,,,,,,,,,,,,,,,,,,
,,,,,,5f843d6c842a0b04ab2faedb,62b2ad6c1e2691638a7866f0,2022-06-22_07h49.56.985,Colour_Asymmetry_Pilot,2022.1.3,Win32,59.95203837,62b2a6a25f2ba72662469a01,0,105,105,21,1,threefour,,,,,,,,,,,,,,,,,,,,,,,,,,,,,,,,,,,,,,,,,,,,,,,,,,,,,,,,,,,,,,,,,,,,,,,,,,,,,,,,,,,,,,,,,,,,,,,,,,,,,,,,,,,,,,,,,,,,,,,,,,,,,,,,,,,,,,,,,,,,,,,,,,,,,,,
,,,,,,5f843d6c842a0b04ab2faedb,62b2ad6c1e2691638a7866f0,2022-06-22_07h49.56.985,Colour_Asymmetry_Pilot,2022.1.3,Win32,59.95203837,62b2a6a25f2ba72662469a01,0,106,106,154,1,twoone,,,,,,,,,,,,,,,,,,,,,,,,,,,,,,,,,,,,,,,,,,,,,,,,,,,,,,,,,,,,,,,,,,,,,,,,,,,,,,,,,,,,,,,,,,,,,,,,,,,,,,,,,,,,,,,,,,,,,,,,,,,,,,,,,,,,,,,,,,,,,,,,,,,,,,,
,,,,,,5f843d6c842a0b04ab2faedb,62b2ad6c1e2691638a7866f0,2022-06-22_07h49.56.985,Colour_Asymmetry_Pilot,2022.1.3,Win32,59.95203837,62b2a6a25f2ba72662469a01,0,107,107,127,1,fourthree,,,,,,,,,,,,,,,,,,,,,,,,,,,,,,,,,,,,,,,,,,,,,,,,,,,,,,,,,,,,,,,,,,,,,,,,,,,,,,,,,,,,,,,,,,,,,,,,,,,,,,,,,,,,,,,,,,,,,,,,,,,,,,,,,,,,,,,,,,,,,,,,,,,,,,,
,,,,,,5f843d6c842a0b04ab2faedb,62b2ad6c1e2691638a7866f0,2022-06-22_07h49.56.985,Colour_Asymmetry_Pilot,2022.1.3,Win32,59.95203837,62b2a6a25f2ba72662469a01,0,108,108,105,1,onethree,,,,,,,,,,,,,,,,,,,,,,,,,,,,,,,,,,,,,,,,,,,,,,,,,,,,,,,,,,,,,,,,,,,,,,,,,,,,,,,,,,,,,,,,,,,,,,,,,,,,,,,,,,,,,,,,,,,,,,,,,,,,,,,,,,,,,,,,,,,,,,,,,,,,,,,
,,,,,,5f843d6c842a0b04ab2faedb,62b2ad6c1e2691638a7866f0,2022-06-22_07h49.56.985,Colour_Asymmetry_Pilot,2022.1.3,Win32,59.95203837,62b2a6a25f2ba72662469a01,0,109,109,90,1,twoone,,,,,,,,,,,,,,,,,,,,,,,,,,,,,,,,,,,,,,,,,,,,,,,,,,,,,,,,,,,,,,,,,,,,,,,,,,,,,,,,,,,,,,,,,,,,,,,,,,,,,,,,,,,,,,,,,,,,,,,,,,,,,,,,,,,,,,,,,,,,,,,,,,,,,,,
,,,,,,5f843d6c842a0b04ab2faedb,62b2ad6c1e2691638a7866f0,2022-06-22_07h49.56.985,Colour_Asymmetry_Pilot,2022.1.3,Win32,59.95203837,62b2a6a25f2ba72662469a01,0,110,110,1,1,onethree,,,,,,,,,,,,,,,,,,,,,,,,,,,,,,,,,,,,,,,,,,,,,,,,,,,,,,,,,,,,,,,,,,,,,,,,,,,,,,,,,,,,,,,,,,,,,,,,,,,,,,,,,,,,,,,,,,,,,,,,,,,,,,,,,,,,,,,,,,,,,,,,,,,,,,,
,,,,,,5f843d6c842a0b04ab2faedb,62b2ad6c1e2691638a7866f0,2022-06-22_07h49.56.985,Colour_Asymmetry_Pilot,2022.1.3,Win32,59.95203837,62b2a6a25f2ba72662469a01,0,111,111,72,1,onetwo,,,,,,,,,,,,,,,,,,,,,,,,,,,,,,,,,,,,,,,,,,,,,,,,,,,,,,,,,,,,,,,,,,,,,,,,,,,,,,,,,,,,,,,,,,,,,,,,,,,,,,,,,,,,,,,,,,,,,,,,,,,,,,,,,,,,,,,,,,,,,,,,,,,,,,,
,,,,,,5f843d6c842a0b04ab2faedb,62b2ad6c1e2691638a7866f0,2022-06-22_07h49.56.985,Colour_Asymmetry_Pilot,2022.1.3,Win32,59.95203837,62b2a6a25f2ba72662469a01,0,112,112,37,1,threefour,,,,,,,,,,,,,,,,,,,,,,,,,,,,,,,,,,,,,,,,,,,,,,,,,,,,,,,,,,,,,,,,,,,,,,,,,,,,,,,,,,,,,,,,,,,,,,,,,,,,,,,,,,,,,,,,,,,,,,,,,,,,,,,,,,,,,,,,,,,,,,,,,,,,,,,
,,,,,,5f843d6c842a0b04ab2faedb,62b2ad6c1e2691638a7866f0,2022-06-22_07h49.56.985,Colour_Asymmetry_Pilot,2022.1.3,Win32,59.95203837,62b2a6a25f2ba72662469a01,0,113,113,57,1,onethree,,,,,,,,,,,,,,,,,,,,,,,,,,,,,,,,,,,,,,,,,,,,,,,,,,,,,,,,,,,,,,,,,,,,,,,,,,,,,,,,,,,,,,,,,,,,,,,,,,,,,,,,,,,,,,,,,,,,,,,,,,,,,,,,,,,,,,,,,,,,,,,,,,,,,,,
,,,,,,5f843d6c842a0b04ab2faedb,62b2ad6c1e2691638a7866f0,2022-06-22_07h49.56.985,Colour_Asymmetry_Pilot,2022.1.3,Win32,59.95203837,62b2a6a25f2ba72662469a01,0,114,114,144,1,onetwo,,,,,,,,,,,,,,,,,,,,,,,,,,,,,,,,,,,,,,,,,,,,,,,,,,,,,,,,,,,,,,,,,,,,,,,,,,,,,,,,,,,,,,,,,,,,,,,,,,,,,,,,,,,,,,,,,,,,,,,,,,,,,,,,,,,,,,,,,,,,,,,,,,,,,,,
,,,,,,5f843d6c842a0b04ab2faedb,62b2ad6c1e2691638a7866f0,2022-06-22_07h49.56.985,Colour_Asymmetry_Pilot,2022.1.3,Win32,59.95203837,62b2a6a25f2ba72662469a01,0,115,115,125,1,threefour,,,,,,,,,,,,,,,,,,,,,,,,,,,,,,,,,,,,,,,,,,,,,,,,,,,,,,,,,,,,,,,,,,,,,,,,,,,,,,,,,,,,,,,,,,,,,,,,,,,,,,,,,,,,,,,,,,,,,,,,,,,,,,,,,,,,,,,,,,,,,,,,,,,,,,,
,,,,,,5f843d6c842a0b04ab2faedb,62b2ad6c1e2691638a7866f0,2022-06-22_07h49.56.985,Colour_Asymmetry_Pilot,2022.1.3,Win32,59.95203837,62b2a6a25f2ba72662469a01,0,116,116,63,1,fourthree,,,,,,,,,,,,,,,,,,,,,,,,,,,,,,,,,,,,,,,,,,,,,,,,,,,,,,,,,,,,,,,,,,,,,,,,,,,,,,,,,,,,,,,,,,,,,,,,,,,,,,,,,,,,,,,,,,,,,,,,,,,,,,,,,,,,,,,,,,,,,,,,,,,,,,,
,,,,,,5f843d6c842a0b04ab2faedb,62b2ad6c1e2691638a7866f0,2022-06-22_07h49.56.985,Colour_Asymmetry_Pilot,2022.1.3,Win32,59.95203837,62b2a6a25f2ba72662469a01,0,117,117,51,1,twofour,,,,,,,,,,,,,,,,,,,,,,,,,,,,,,,,,,,,,,,,,,,,,,,,,,,,,,,,,,,,,,,,,,,,,,,,,,,,,,,,,,,,,,,,,,,,,,,,,,,,,,,,,,,,,,,,,,,,,,,,,,,,,,,,,,,,,,,,,,,,,,,,,,,,,,,
,,,,,,5f843d6c842a0b04ab2faedb,62b2ad6c1e2691638a7866f0,2022-06-22_07h49.56.985,Colour_Asymmetry_Pilot,2022.1.3,Win32,59.95203837,62b2a6a25f2ba72662469a01,0,118,118,54,1,fourtwo,,,,,,,,,,,,,,,,,,,,,,,,,,,,,,,,,,,,,,,,,,,,,,,,,,,,,,,,,,,,,,,,,,,,,,,,,,,,,,,,,,,,,,,,,,,,,,,,,,,,,,,,,,,,,,,,,,,,,,,,,,,,,,,,,,,,,,,,,,,,,,,,,,,,,,,
,,,,,,5f843d6c842a0b04ab2faedb,62b2ad6c1e2691638a7866f0,2022-06-22_07h49.56.985,Colour_Asymmetry_Pilot,2022.1.3,Win32,59.95203837,62b2a6a25f2ba72662469a01,0,119,119,44,1,threeone,,,,,,,,,,,,,,,,,,,,,,,,,,,,,,,,,,,,,,,,,,,,,,,,,,,,,,,,,,,,,,,,,,,,,,,,,,,,,,,,,,,,,,,,,,,,,,,,,,,,,,,,,,,,,,,,,,,,,,,,,,,,,,,,,,,,,,,,,,,,,,,,,,,,,,,
,,,,,,5f843d6c842a0b04ab2faedb,62b2ad6c1e2691638a7866f0,2022-06-22_07h49.56.985,Colour_Asymmetry_Pilot,2022.1.3,Win32,59.95203837,62b2a6a25f2ba72662469a01,0,120,120,50,1,twoone,,,,,,,,,,,,,,,,,,,,,,,,,,,,,,,,,,,,,,,,,,,,,,,,,,,,,,,,,,,,,,,,,,,,,,,,,,,,,,,,,,,,,,,,,,,,,,,,,,,,,,,,,,,,,,,,,,,,,,,,,,,,,,,,,,,,,,,,,,,,,,,,,,,,,,,
,,,,,,5f843d6c842a0b04ab2faedb,62b2ad6c1e2691638a7866f0,2022-06-22_07h49.56.985,Colour_Asymmetry_Pilot,2022.1.3,Win32,59.95203837,62b2a6a25f2ba72662469a01,0,121,121,46,1,fourtwo,,,,,,,,,,,,,,,,,,,,,,,,,,,,,,,,,,,,,,,,,,,,,,,,,,,,,,,,,,,,,,,,,,,,,,,,,,,,,,,,,,,,,,,,,,,,,,,,,,,,,,,,,,,,,,,,,,,,,,,,,,,,,,,,,,,,,,,,,,,,,,,,,,,,,,,
,,,,,,5f843d6c842a0b04ab2faedb,62b2ad6c1e2691638a7866f0,2022-06-22_07h49.56.985,Colour_Asymmetry_Pilot,2022.1.3,Win32,59.95203837,62b2a6a25f2ba72662469a01,0,122,122,66,1,twoone,,,,,,,,,,,,,,,,,,,,,,,,,,,,,,,,,,,,,,,,,,,,,,,,,,,,,,,,,,,,,,,,,,,,,,,,,,,,,,,,,,,,,,,,,,,,,,,,,,,,,,,,,,,,,,,,,,,,,,,,,,,,,,,,,,,,,,,,,,,,,,,,,,,,,,,
,,,,,,5f843d6c842a0b04ab2faedb,62b2ad6c1e2691638a7866f0,2022-06-22_07h49.56.985,Colour_Asymmetry_Pilot,2022.1.3,Win32,59.95203837,62b2a6a25f2ba72662469a01,0,123,123,77,1,threefour,,,,,,,,,,,,,,,,,,,,,,,,,,,,,,,,,,,,,,,,,,,,,,,,,,,,,,,,,,,,,,,,,,,,,,,,,,,,,,,,,,,,,,,,,,,,,,,,,,,,,,,,,,,,,,,,,,,,,,,,,,,,,,,,,,,,,,,,,,,,,,,,,,,,,,,
,,,,,,5f843d6c842a0b04ab2faedb,62b2ad6c1e2691638a7866f0,2022-06-22_07h49.56.985,Colour_Asymmetry_Pilot,2022.1.3,Win32,59.95203837,62b2a6a25f2ba72662469a01,0,124,124,40,1,onetwo,,,,,,,,,,,,,,,,,,,,,,,,,,,,,,,,,,,,,,,,,,,,,,,,,,,,,,,,,,,,,,,,,,,,,,,,,,,,,,,,,,,,,,,,,,,,,,,,,,,,,,,,,,,,,,,,,,,,,,,,,,,,,,,,,,,,,,,,,,,,,,,,,,,,,,,
,,,,,,5f843d6c842a0b04ab2faedb,62b2ad6c1e2691638a7866f0,2022-06-22_07h49.56.985,Colour_Asymmetry_Pilot,2022.1.3,Win32,59.95203837,62b2a6a25f2ba72662469a01,0,125,125,79,1,fourthree,,,,,,,,,,,,,,,,,,,,,,,,,,,,,,,,,,,,,,,,,,,,,,,,,,,,,,,,,,,,,,,,,,,,,,,,,,,,,,,,,,,,,,,,,,,,,,,,,,,,,,,,,,,,,,,,,,,,,,,,,,,,,,,,,,,,,,,,,,,,,,,,,,,,,,,
,,,,,,5f843d6c842a0b04ab2faedb,62b2ad6c1e2691638a7866f0,2022-06-22_07h49.56.985,Colour_Asymmetry_Pilot,2022.1.3,Win32,59.95203837,62b2a6a25f2ba72662469a01,0,126,126,107,1,twofour,,,,,,,,,,,,,,,,,,,,,,,,,,,,,,,,,,,,,,,,,,,,,,,,,,,,,,,,,,,,,,,,,,,,,,,,,,,,,,,,,,,,,,,,,,,,,,,,,,,,,,,,,,,,,,,,,,,,,,,,,,,,,,,,,,,,,,,,,,,,,,,,,,,,,,,
,,,,,,5f843d6c842a0b04ab2faedb,62b2ad6c1e2691638a7866f0,2022-06-22_07h49.56.985,Colour_Asymmetry_Pilot,2022.1.3,Win32,59.95203837,62b2a6a25f2ba72662469a01,0,127,127,87,1,fourthree,,,,,,,,,,,,,,,,,,,,,,,,,,,,,,,,,,,,,,,,,,,,,,,,,,,,,,,,,,,,,,,,,,,,,,,,,,,,,,,,,,,,,,,,,,,,,,,,,,,,,,,,,,,,,,,,,,,,,,,,,,,,,,,,,,,,,,,,,,,,,,,,,,,,,,,
,,,,,,5f843d6c842a0b04ab2faedb,62b2ad6c1e2691638a7866f0,2022-06-22_07h49.56.985,Colour_Asymmetry_Pilot,2022.1.3,Win32,59.95203837,62b2a6a25f2ba72662469a01,0,128,128,159,1,fourthree,,,,,,,,,,,,,,,,,,,,,,,,,,,,,,,,,,,,,,,,,,,,,,,,,,,,,,,,,,,,,,,,,,,,,,,,,,,,,,,,,,,,,,,,,,,,,,,,,,,,,,,,,,,,,,,,,,,,,,,,,,,,,,,,,,,,,,,,,,,,,,,,,,,,,,,
,,,,,,5f843d6c842a0b04ab2faedb,62b2ad6c1e2691638a7866f0,2022-06-22_07h49.56.985,Colour_Asymmetry_Pilot,2022.1.3,Win32,59.95203837,62b2a6a25f2ba72662469a01,0,129,129,33,1,onethree,,,,,,,,,,,,,,,,,,,,,,,,,,,,,,,,,,,,,,,,,,,,,,,,,,,,,,,,,,,,,,,,,,,,,,,,,,,,,,,,,,,,,,,,,,,,,,,,,,,,,,,,,,,,,,,,,,,,,,,,,,,,,,,,,,,,,,,,,,,,,,,,,,,,,,,
,,,,,,5f843d6c842a0b04ab2faedb,62b2ad6c1e2691638a7866f0,2022-06-22_07h49.56.985,Colour_Asymmetry_Pilot,2022.1.3,Win32,59.95203837,62b2a6a25f2ba72662469a01,0,130,130,100,1,threeone,,,,,,,,,,,,,,,,,,,,,,,,,,,,,,,,,,,,,,,,,,,,,,,,,,,,,,,,,,,,,,,,,,,,,,,,,,,,,,,,,,,,,,,,,,,,,,,,,,,,,,,,,,,,,,,,,,,,,,,,,,,,,,,,,,,,,,,,,,,,,,,,,,,,,,,
,,,,,,5f843d6c842a0b04ab2faedb,62b2ad6c1e2691638a7866f0,2022-06-22_07h49.56.985,Colour_Asymmetry_Pilot,2022.1.3,Win32,59.95203837,62b2a6a25f2ba72662469a01,0,131,131,26,1,twoone,,,,,,,,,,,,,,,,,,,,,,,,,,,,,,,,,,,,,,,,,,,,,,,,,,,,,,,,,,,,,,,,,,,,,,,,,,,,,,,,,,,,,,,,,,,,,,,,,,,,,,,,,,,,,,,,,,,,,,,,,,,,,,,,,,,,,,,,,,,,,,,,,,,,,,,
,,,,,,5f843d6c842a0b04ab2faedb,62b2ad6c1e2691638a7866f0,2022-06-22_07h49.56.985,Colour_Asymmetry_Pilot,2022.1.3,Win32,59.95203837,62b2a6a25f2ba72662469a01,0,132,132,23,1,fourthree,,,,,,,,,,,,,,,,,,,,,,,,,,,,,,,,,,,,,,,,,,,,,,,,,,,,,,,,,,,,,,,,,,,,,,,,,,,,,,,,,,,,,,,,,,,,,,,,,,,,,,,,,,,,,,,,,,,,,,,,,,,,,,,,,,,,,,,,,,,,,,,,,,,,,,,
,,,,,,5f843d6c842a0b04ab2faedb,62b2ad6c1e2691638a7866f0,2022-06-22_07h49.56.985,Colour_Asymmetry_Pilot,2022.1.3,Win32,59.95203837,62b2a6a25f2ba72662469a01,0,133,133,153,1,onethree,,,,,,,,,,,,,,,,,,,,,,,,,,,,,,,,,,,,,,,,,,,,,,,,,,,,,,,,,,,,,,,,,,,,,,,,,,,,,,,,,,,,,,,,,,,,,,,,,,,,,,,,,,,,,,,,,,,,,,,,,,,,,,,,,,,,,,,,,,,,,,,,,,,,,,,
,,,,,,5f843d6c842a0b04ab2faedb,62b2ad6c1e2691638a7866f0,2022-06-22_07h49.56.985,Colour_Asymmetry_Pilot,2022.1.3,Win32,59.95203837,62b2a6a25f2ba72662469a01,0,134,134,69,1,threefour,,,,,,,,,,,,,,,,,,,,,,,,,,,,,,,,,,,,,,,,,,,,,,,,,,,,,,,,,,,,,,,,,,,,,,,,,,,,,,,,,,,,,,,,,,,,,,,,,,,,,,,,,,,,,,,,,,,,,,,,,,,,,,,,,,,,,,,,,,,,,,,,,,,,,,,
,,,,,,5f843d6c842a0b04ab2faedb,62b2ad6c1e2691638a7866f0,2022-06-22_07h49.56.985,Colour_Asymmetry_Pilot,2022.1.3,Win32,59.95203837,62b2a6a25f2ba72662469a01,0,135,135,132,1,threeone,,,,,,,,,,,,,,,,,,,,,,,,,,,,,,,,,,,,,,,,,,,,,,,,,,,,,,,,,,,,,,,,,,,,,,,,,,,,,,,,,,,,,,,,,,,,,,,,,,,,,,,,,,,,,,,,,,,,,,,,,,,,,,,,,,,,,,,,,,,,,,,,,,,,,,,
,,,,,,5f843d6c842a0b04ab2faedb,62b2ad6c1e2691638a7866f0,2022-06-22_07h49.56.985,Colour_Asymmetry_Pilot,2022.1.3,Win32,59.95203837,62b2a6a25f2ba72662469a01,0,136,136,135,1,fourthree,,,,,,,,,,,,,,,,,,,,,,,,,,,,,,,,,,,,,,,,,,,,,,,,,,,,,,,,,,,,,,,,,,,,,,,,,,,,,,,,,,,,,,,,,,,,,,,,,,,,,,,,,,,,,,,,,,,,,,,,,,,,,,,,,,,,,,,,,,,,,,,,,,,,,,,
,,,,,,5f843d6c842a0b04ab2faedb,62b2ad6c1e2691638a7866f0,2022-06-22_07h49.56.985,Colour_Asymmetry_Pilot,2022.1.3,Win32,59.95203837,62b2a6a25f2ba72662469a01,0,137,137,101,1,threefour,,,,,,,,,,,,,,,,,,,,,,,,,,,,,,,,,,,,,,,,,,,,,,,,,,,,,,,,,,,,,,,,,,,,,,,,,,,,,,,,,,,,,,,,,,,,,,,,,,,,,,,,,,,,,,,,,,,,,,,,,,,,,,,,,,,,,,,,,,,,,,,,,,,,,,,
,,,,,,5f843d6c842a0b04ab2faedb,62b2ad6c1e2691638a7866f0,2022-06-22_07h49.56.985,Colour_Asymmetry_Pilot,2022.1.3,Win32,59.95203837,62b2a6a25f2ba72662469a01,0,138,138,103,1,fourthree,,,,,,,,,,,,,,,,,,,,,,,,,,,,,,,,,,,,,,,,,,,,,,,,,,,,,,,,,,,,,,,,,,,,,,,,,,,,,,,,,,,,,,,,,,,,,,,,,,,,,,,,,,,,,,,,,,,,,,,,,,,,,,,,,,,,,,,,,,,,,,,,,,,,,,,
,,,,,,5f843d6c842a0b04ab2faedb,62b2ad6c1e2691638a7866f0,2022-06-22_07h49.56.985,Colour_Asymmetry_Pilot,2022.1.3,Win32,59.95203837,62b2a6a25f2ba72662469a01,0,139,139,64,1,onetwo,,,,,,,,,,,,,,,,,,,,,,,,,,,,,,,,,,,,,,,,,,,,,,,,,,,,,,,,,,,,,,,,,,,,,,,,,,,,,,,,,,,,,,,,,,,,,,,,,,,,,,,,,,,,,,,,,,,,,,,,,,,,,,,,,,,,,,,,,,,,,,,,,,,,,,,
,,,,,,5f843d6c842a0b04ab2faedb,62b2ad6c1e2691638a7866f0,2022-06-22_07h49.56.985,Colour_Asymmetry_Pilot,2022.1.3,Win32,59.95203837,62b2a6a25f2ba72662469a01,0,140,140,75,1,twofour,,,,,,,,,,,,,,,,,,,,,,,,,,,,,,,,,,,,,,,,,,,,,,,,,,,,,,,,,,,,,,,,,,,,,,,,,,,,,,,,,,,,,,,,,,,,,,,,,,,,,,,,,,,,,,,,,,,,,,,,,,,,,,,,,,,,,,,,,,,,,,,,,,,,,,,
,,,,,,5f843d6c842a0b04ab2faedb,62b2ad6c1e2691638a7866f0,2022-06-22_07h49.56.985,Colour_Asymmetry_Pilot,2022.1.3,Win32,59.95203837,62b2a6a25f2ba72662469a01,0,141,141,22,1,fourtwo,,,,,,,,,,,,,,,,,,,,,,,,,,,,,,,,,,,,,,,,,,,,,,,,,,,,,,,,,,,,,,,,,,,,,,,,,,,,,,,,,,,,,,,,,,,,,,,,,,,,,,,,,,,,,,,,,,,,,,,,,,,,,,,,,,,,,,,,,,,,,,,,,,,,,,,
,,,,,,5f843d6c842a0b04ab2faedb,62b2ad6c1e2691638a7866f0,2022-06-22_07h49.56.985,Colour_Asymmetry_Pilot,2022.1.3,Win32,59.95203837,62b2a6a25f2ba72662469a01,0,142,142,141,1,threefour,,,,,,,,,,,,,,,,,,,,,,,,,,,,,,,,,,,,,,,,,,,,,,,,,,,,,,,,,,,,,,,,,,,,,,,,,,,,,,,,,,,,,,,,,,,,,,,,,,,,,,,,,,,,,,,,,,,,,,,,,,,,,,,,,,,,,,,,,,,,,,,,,,,,,,,
,,,,,,5f843d6c842a0b04ab2faedb,62b2ad6c1e2691638a7866f0,2022-06-22_07h49.56.985,Colour_Asymmetry_Pilot,2022.1.3,Win32,59.95203837,62b2a6a25f2ba72662469a01,0,143,143,152,1,onetwo,,,,,,,,,,,,,,,,,,,,,,,,,,,,,,,,,,,,,,,,,,,,,,,,,,,,,,,,,,,,,,,,,,,,,,,,,,,,,,,,,,,,,,,,,,,,,,,,,,,,,,,,,,,,,,,,,,,,,,,,,,,,,,,,,,,,,,,,,,,,,,,,,,,,,,,
,,,,,,5f843d6c842a0b04ab2faedb,62b2ad6c1e2691638a7866f0,2022-06-22_07h49.56.985,Colour_Asymmetry_Pilot,2022.1.3,Win32,59.95203837,62b2a6a25f2ba72662469a01,0,144,144,97,1,onethree,,,,,,,,,,,,,,,,,,,,,,,,,,,,,,,,,,,,,,,,,,,,,,,,,,,,,,,,,,,,,,,,,,,,,,,,,,,,,,,,,,,,,,,,,,,,,,,,,,,,,,,,,,,,,,,,,,,,,,,,,,,,,,,,,,,,,,,,,,,,,,,,,,,,,,,
,,,,,,5f843d6c842a0b04ab2faedb,62b2ad6c1e2691638a7866f0,2022-06-22_07h49.56.985,Colour_Asymmetry_Pilot,2022.1.3,Win32,59.95203837,62b2a6a25f2ba72662469a01,0,145,145,20,1,threeone,,,,,,,,,,,,,,,,,,,,,,,,,,,,,,,,,,,,,,,,,,,,,,,,,,,,,,,,,,,,,,,,,,,,,,,,,,,,,,,,,,,,,,,,,,,,,,,,,,,,,,,,,,,,,,,,,,,,,,,,,,,,,,,,,,,,,,,,,,,,,,,,,,,,,,,
,,,,,,5f843d6c842a0b04ab2faedb,62b2ad6c1e2691638a7866f0,2022-06-22_07h49.56.985,Colour_Asymmetry_Pilot,2022.1.3,Win32,59.95203837,62b2a6a25f2ba72662469a01,0,146,146,71,1,fourthree,,,,,,,,,,,,,,,,,,,,,,,,,,,,,,,,,,,,,,,,,,,,,,,,,,,,,,,,,,,,,,,,,,,,,,,,,,,,,,,,,,,,,,,,,,,,,,,,,,,,,,,,,,,,,,,,,,,,,,,,,,,,,,,,,,,,,,,,,,,,,,,,,,,,,,,
,,,,,,5f843d6c842a0b04ab2faedb,62b2ad6c1e2691638a7866f0,2022-06-22_07h49.56.985,Colour_Asymmetry_Pilot,2022.1.3,Win32,59.95203837,62b2a6a25f2ba72662469a01,0,147,147,83,1,twofour,,,,,,,,,,,,,,,,,,,,,,,,,,,,,,,,,,,,,,,,,,,,,,,,,,,,,,,,,,,,,,,,,,,,,,,,,,,,,,,,,,,,,,,,,,,,,,,,,,,,,,,,,,,,,,,,,,,,,,,,,,,,,,,,,,,,,,,,,,,,,,,,,,,,,,,
,,,,,,5f843d6c842a0b04ab2faedb,62b2ad6c1e2691638a7866f0,2022-06-22_07h49.56.985,Colour_Asymmetry_Pilot,2022.1.3,Win32,59.95203837,62b2a6a25f2ba72662469a01,0,148,148,43,1,twofour,,,,,,,,,,,,,,,,,,,,,,,,,,,,,,,,,,,,,,,,,,,,,,,,,,,,,,,,,,,,,,,,,,,,,,,,,,,,,,,,,,,,,,,,,,,,,,,,,,,,,,,,,,,,,,,,,,,,,,,,,,,,,,,,,,,,,,,,,,,,,,,,,,,,,,,
,,,,,,5f843d6c842a0b04ab2faedb,62b2ad6c1e2691638a7866f0,2022-06-22_07h49.56.985,Colour_Asymmetry_Pilot,2022.1.3,Win32,59.95203837,62b2a6a25f2ba72662469a01,0,149,149,19,1,twofour,,,,,,,,,,,,,,,,,,,,,,,,,,,,,,,,,,,,,,,,,,,,,,,,,,,,,,,,,,,,,,,,,,,,,,,,,,,,,,,,,,,,,,,,,,,,,,,,,,,,,,,,,,,,,,,,,,,,,,,,,,,,,,,,,,,,,,,,,,,,,,,,,,,,,,,
,,,,,,5f843d6c842a0b04ab2faedb,62b2ad6c1e2691638a7866f0,2022-06-22_07h49.56.985,Colour_Asymmetry_Pilot,2022.1.3,Win32,59.95203837,62b2a6a25f2ba72662469a01,0,150,150,24,1,onetwo,,,,,,,,,,,,,,,,,,,,,,,,,,,,,,,,,,,,,,,,,,,,,,,,,,,,,,,,,,,,,,,,,,,,,,,,,,,,,,,,,,,,,,,,,,,,,,,,,,,,,,,,,,,,,,,,,,,,,,,,,,,,,,,,,,,,,,,,,,,,,,,,,,,,,,,
,,,,,,5f843d6c842a0b04ab2faedb,62b2ad6c1e2691638a7866f0,2022-06-22_07h49.56.985,Colour_Asymmetry_Pilot,2022.1.3,Win32,59.95203837,62b2a6a25f2ba72662469a01,0,151,151,12,1,threeone,,,,,,,,,,,,,,,,,,,,,,,,,,,,,,,,,,,,,,,,,,,,,,,,,,,,,,,,,,,,,,,,,,,,,,,,,,,,,,,,,,,,,,,,,,,,,,,,,,,,,,,,,,,,,,,,,,,,,,,,,,,,,,,,,,,,,,,,,,,,,,,,,,,,,,,
,,,,,,5f843d6c842a0b04ab2faedb,62b2ad6c1e2691638a7866f0,2022-06-22_07h49.56.985,Colour_Asymmetry_Pilot,2022.1.3,Win32,59.95203837,62b2a6a25f2ba72662469a01,0,152,152,3,1,twofour,,,,,,,,,,,,,,,,,,,,,,,,,,,,,,,,,,,,,,,,,,,,,,,,,,,,,,,,,,,,,,,,,,,,,,,,,,,,,,,,,,,,,,,,,,,,,,,,,,,,,,,,,,,,,,,,,,,,,,,,,,,,,,,,,,,,,,,,,,,,,,,,,,,,,,,
,,,,,,5f843d6c842a0b04ab2faedb,62b2ad6c1e2691638a7866f0,2022-06-22_07h49.56.985,Colour_Asymmetry_Pilot,2022.1.3,Win32,59.95203837,62b2a6a25f2ba72662469a01,0,153,153,128,1,onetwo,,,,,,,,,,,,,,,,,,,,,,,,,,,,,,,,,,,,,,,,,,,,,,,,,,,,,,,,,,,,,,,,,,,,,,,,,,,,,,,,,,,,,,,,,,,,,,,,,,,,,,,,,,,,,,,,,,,,,,,,,,,,,,,,,,,,,,,,,,,,,,,,,,,,,,,
,,,,,,5f843d6c842a0b04ab2faedb,62b2ad6c1e2691638a7866f0,2022-06-22_07h49.56.985,Colour_Asymmetry_Pilot,2022.1.3,Win32,59.95203837,62b2a6a25f2ba72662469a01,0,154,154,95,1,fourthree,,,,,,,,,,,,,,,,,,,,,,,,,,,,,,,,,,,,,,,,,,,,,,,,,,,,,,,,,,,,,,,,,,,,,,,,,,,,,,,,,,,,,,,,,,,,,,,,,,,,,,,,,,,,,,,,,,,,,,,,,,,,,,,,,,,,,,,,,,,,,,,,,,,,,,,
,,,,,,5f843d6c842a0b04ab2faedb,62b2ad6c1e2691638a7866f0,2022-06-22_07h49.56.985,Colour_Asymmetry_Pilot,2022.1.3,Win32,59.95203837,62b2a6a25f2ba72662469a01,0,155,155,98,1,twoone,,,,,,,,,,,,,,,,,,,,,,,,,,,,,,,,,,,,,,,,,,,,,,,,,,,,,,,,,,,,,,,,,,,,,,,,,,,,,,,,,,,,,,,,,,,,,,,,,,,,,,,,,,,,,,,,,,,,,,,,,,,,,,,,,,,,,,,,,,,,,,,,,,,,,,,
,,,,,,5f843d6c842a0b04ab2faedb,62b2ad6c1e2691638a7866f0,2022-06-22_07h49.56.985,Colour_Asymmetry_Pilot,2022.1.3,Win32,59.95203837,62b2a6a25f2ba72662469a01,0,156,156,122,1,twoone,,,,,,,,,,,,,,,,,,,,,,,,,,,,,,,,,,,,,,,,,,,,,,,,,,,,,,,,,,,,,,,,,,,,,,,,,,,,,,,,,,,,,,,,,,,,,,,,,,,,,,,,,,,,,,,,,,,,,,,,,,,,,,,,,,,,,,,,,,,,,,,,,,,,,,,
,,,,,,5f843d6c842a0b04ab2faedb,62b2ad6c1e2691638a7866f0,2022-06-22_07h49.56.985,Colour_Asymmetry_Pilot,2022.1.3,Win32,59.95203837,62b2a6a25f2ba72662469a01,0,157,157,111,1,fourthree,,,,,,,,,,,,,,,,,,,,,,,,,,,,,,,,,,,,,,,,,,,,,,,,,,,,,,,,,,,,,,,,,,,,,,,,,,,,,,,,,,,,,,,,,,,,,,,,,,,,,,,,,,,,,,,,,,,,,,,,,,,,,,,,,,,,,,,,,,,,,,,,,,,,,,,
,,,,,,5f843d6c842a0b04ab2faedb,62b2ad6c1e2691638a7866f0,2022-06-22_07h49.56.985,Colour_Asymmetry_Pilot,2022.1.3,Win32,59.95203837,62b2a6a25f2ba72662469a01,0,158,158,130,1,twoone,,,,,,,,,,,,,,,,,,,,,,,,,,,,,,,,,,,,,,,,,,,,,,,,,,,,,,,,,,,,,,,,,,,,,,,,,,,,,,,,,,,,,,,,,,,,,,,,,,,,,,,,,,,,,,,,,,,,,,,,,,,,,,,,,,,,,,,,,,,,,,,,,,,,,,,
,,,,,,5f843d6c842a0b04ab2faedb,62b2ad6c1e2691638a7866f0,2022-06-22_07h49.56.985,Colour_Asymmetry_Pilot,2022.1.3,Win32,59.95203837,62b2a6a25f2ba72662469a01,0,159,159,7,1,fourthree,,,,,,,,,,,,,,,,,,,,,,,,,,,,,,,,,,,,,,,,,,,,,,,,,,,,,,,,,,,,,,,,,,,,,,,,,,,,,,,,,,,,,,,,,,,,,,,,,,,,,,,,,,,,,,,,,,,,,,,,,,,,,,,,,,,,,,,,,,,,,,,,,,,,,,,
,,,,,,5f843d6c842a0b04ab2faedb,62b2ad6c1e2691638a7866f0,2022-06-22_07h49.56.985,Colour_Asymmetry_Pilot,2022.1.3,Win32,59.95203837,62b2a6a25f2ba72662469a01,0,160,160,116,1,threeone,,,,,,,,,,,,,,,,,,,,,,,,,,,,,,,,,,,,,,,,,,,,,,,,,,,,,,,,,,,,,,,,,,,,,,,,,,,,,,,,,,,,,,,,,,,,,,,,,,,,,,,,,,,,,,,,,,,,,,,,,,,,,,,,,,,,,,,,,,,,,,,,,,,,,,,
,,,,,,5f843d6c842a0b04ab2faedb,62b2ad6c1e2691638a7866f0,2022-06-22_07h49.56.985,Colour_Asymmetry_Pilot,2022.1.3,Win32,59.95203837,62b2a6a25f2ba72662469a01,0,161,161,85,1,threefour,,,,,,,,,,,,,,,,,,,,,,,,,,,,,,,,,,,,,,,,,,,,,,,,,,,,,,,,,,,,,,,,,,,,,,,,,,,,,,,,,,,,,,,,,,,,,,,,,,,,,,,,,,,,,,,,,,,,,,,,,,,,,,,,,,,,,,,,,,,,,,,,,,,,,,,
,,,,,,5f843d6c842a0b04ab2faedb,62b2ad6c1e2691638a7866f0,2022-06-22_07h49.56.985,Colour_Asymmetry_Pilot,2022.1.3,Win32,59.95203837,62b2a6a25f2ba72662469a01,,,,,,,space,4.3911,space,12.1513,space,13.6006,space,7.3425,space,1.3307,space,2.2552,"[-0.5452,-0.608,0.2470000000000001]",threefour,"[0.12939999999999996,-0.2864,0.3253999999999999]",-1,10.3538,-52,-109,1,0,0,response5disk_5,0,9,1,0,0,rectangle_8,110,-56,1,0,0,response3disk_7,5,2,11,-8,1,0,0,rectangle_4,0,0,0,0,1,,,,,,,,,,,,,,,,,,,,,,,,,,,,,,,,,,,,,,,,,,,,,,,,,,,,,,,,,,,,,,,,,,,,,,,,,,,,,,,,,,,,,,,,,,,,,,,,,,,,,,,
,,,,,,5f843d6c842a0b04ab2faedb,62b2ad6c1e2691638a7866f0,2022-06-22_07h49.56.985,Colour_Asymmetry_Pilot,2022.1.3,Win32,59.95203837,62b2a6a25f2ba72662469a01,,,,,,,,,,,,,,,,,,,"[0.9686000000000001,0.3802000000000001,0.19999999999999996]",twofour,"[0.9842,0.7409999999999999,-0.6628000000000001]",-3,2.2846,-82,44,1,0,0,response7disk_5,-13,9,1,0,0,rectangle_8,148,-58,1,0,0,response3disk_7,5,2,-3,5,1,0,0,rectangle_4,1,0,1,0,1,,,,,,,,,,,,,,,,,,,,,,,,,,,,,,,,,,,,,,,,,,,,,,,,,,,,,,,,,,,,,,,,,,,,,,,,,,,,,,,,,,,,,,,,,,,,,,,,,,,,,,,
,,,,,,5f843d6c842a0b04ab2faedb,62b2ad6c1e2691638a7866f0,2022-06-22_07h49.56.985,Colour_Asymmetry_Pilot,2022.1.3,Win32,59.95203837,62b2a6a25f2ba72662469a01,,,,,,,,,,,,,,,,,,,"[0.12939999999999996,-0.2864,0.3253999999999999]",fourthree,"[0.18419999999999992,-0.4276,-0.404]",-2,3.055,-105,-81,1,0,0,response5disk_5,-2,2.5,1,0,0,rectangle_8,-2,2.5,1,0,0,,,2,-2,2.5,1,0,0,,2,0,2,0,1,,,,,,,,,,,,,,,,,,,,,,,,,,,,,,,,,,,,,,,,,,,,,,,,,,,,,,,,,,,,,,,,,,,,,,,,,,,,,,,,,,,,,,,,,,,,,,,,,,,,,,,
,,,,,,5f843d6c842a0b04ab2faedb,62b2ad6c1e2691638a7866f0,2022-06-22_07h49.56.985,Colour_Asymmetry_Pilot,2022.1.3,Win32,59.95203837,62b2a6a25f2ba72662469a01,,,,,,,,,,,,,,,,,,,"[0.7018,0.7176,0.6155999999999999]",threeone,"[0.9372,0.20779999999999998,0.2704]",-1,4.2012,-71,-107.5,1,0,0,response5disk_5,10,-8.5,1,0,0,rectangle_8,10,-8.5,1,0,0,,,2,10,-8.5,1,0,0,,3,0,3,0,1,,,,,,,,,,,,,,,,,,,,,,,,,,,,,,,,,,,,,,,,,,,,,,,,,,,,,,,,,,,,,,,,,,,,,,,,,,,,,,,,,,,,,,,,,,,,,,,,,,,,,,,
,,,,,,5f843d6c842a0b04ab2faedb,62b2ad6c1e2691638a7866f0,2022-06-22_07h49.56.985,Colour_Asymmetry_Pilot,2022.1.3,Win32,59.95203837,62b2a6a25f2ba72662469a01,,,,,,,,,,,,,,,,,,,"[0.9763999999999999,0.8588,-0.05900000000000005]",onetwo,"[0.9213999999999998,0.6391999999999998,-0.9922]",2,4.9428,90,-43.5,1,0,0,response3disk_5,25,-1.5,1,0,0,rectangle_8,25,-1.5,1,0,0,,,2,25,-1.5,1,0,0,,4,0,4,0,1,,,,,,,,,,,,,,,,,,,,,,,,,,,,,,,,,,,,,,,,,,,,,,,,,,,,,,,,,,,,,,,,,,,,,,,,,,,,,,,,,,,,,,,,,,,,,,,,,,,,,,,
,,,,,,5f843d6c842a0b04ab2faedb,62b2ad6c1e2691638a7866f0,2022-06-22_07h49.56.985,Colour_Asymmetry_Pilot,2022.1.3,Win32,59.95203837,62b2a6a25f2ba72662469a01,,,,,,,,,,,,,,,,,,,"[-0.10599999999999998,-0.15300000000000002,0.15280000000000005]",twofour,"[0.18419999999999992,-0.4276,-0.404]",-2,2.0073,-104,-63.5,1,0,0,response5disk_5,5,5.5,1,0,0,rectangle_8,5,5.5,1,0,0,,,2,5,5.5,1,0,0,,5,0,5,0,1,,,,,,,,,,,,,,,,,,,,,,,,,,,,,,,,,,,,,,,,,,,,,,,,,,,,,,,,,,,,,,,,,,,,,,,,,,,,,,,,,,,,,,,,,,,,,,,,,,,,,,,
,,,,,,5f843d6c842a0b04ab2faedb,62b2ad6c1e2691638a7866f0,2022-06-22_07h49.56.985,Colour_Asymmetry_Pilot,2022.1.3,Win32,59.95203837,62b2a6a25f2ba72662469a01,,,,,,,,,,,,,,,,,,,"[-0.4902000000000001,0.2704,-0.45899999999999996]",twoone,"[0.04299999999999993,0.16060000000000008,-0.6628000000000001]",2,1.8337,119,-32.5,1,0,0,response3disk_5,-5,8.5,1,0,0,rectangle_8,-5,8.5,1,0,0,,,2,-5,8.5,1,0,0,,6,0,6,0,1,,,,,,,,,,,,,,,,,,,,,,,,,,,,,,,,,,,,,,,,,,,,,,,,,,,,,,,,,,,,,,,,,,,,,,,,,,,,,,,,,,,,,,,,,,,,,,,,,,,,,,,
,,,,,,5f843d6c842a0b04ab2faedb,62b2ad6c1e2691638a7866f0,2022-06-22_07h49.56.985,Colour_Asymmetry_Pilot,2022.1.3,Win32,59.95203837,62b2a6a25f2ba72662469a01,,,,,,,,,,,,,,,,,,,,twofour,,-3,0.9654,,,,,,,,,,,,,,,,,,,,,,,,,,,,,,,,space,4.6126,"[-0.9138,-0.5296000000000001,-0.5529999999999999]","[0.9763999999999999,0.8588,-0.05900000000000005]",-141,53.5,1,0,0,response7disk,-13,10.5,1,0,0,rectangle,56,-122.5,1,0,0,response3disk_3,1,1,2.0777,1,0,2.5,1,0,0,rectangle,0,0,0,161,1,80,second,,,,,,,,,,,,,,,,,,,,,,,,,,,,,,,,,,,,,,,,,,,,,,,,,,,,,,,,,,,,,,,,
,,,,,,5f843d6c842a0b04ab2faedb,62b2ad6c1e2691638a7866f0,2022-06-22_07h49.56.985,Colour_Asymmetry_Pilot,2022.1.3,Win32,59.95203837,62b2a6a25f2ba72662469a01,,,,,,,,,,,,,,,,,,,,threefour,,-3,0.5157,,,,,,,,,,,,,,,,,,,,,,,,,,,,,,,,,,"[0.04299999999999993,0.16060000000000008,-0.6628000000000001]","[-0.2942,-0.7648,-0.7492000000000001]",-96,54.5,1,0,0,response7disk,-3,0.5,1,0,0,rectangle,-3,0.5,1,0,0,,1,3,0.0013,0,-3,0.5,1,0,0,,0,1,1,158,1,77,second,,,,,,,,,,,,,,,,,,,,,,,,,,,,,,,,,,,,,,,,,,,,,,,,,,,,,,,,,,,,,,,,
,,,,,,5f843d6c842a0b04ab2faedb,62b2ad6c1e2691638a7866f0,2022-06-22_07h49.56.985,Colour_Asymmetry_Pilot,2022.1.3,Win32,59.95203837,62b2a6a25f2ba72662469a01,,,,,,,,,,,,,,,,,,,,onethree,,-3,0.9045,,,,,,,,,,,,,,,,,,,,,,,,,,,,,,,,,,"[-0.45899999999999996,-0.3256,-0.9374]","[0.09799999999999986,-0.24719999999999998,0.15280000000000005]",-118,59.5,1,0,0,response7disk,-21,-5.5,1,0,0,rectangle,-21,-5.5,1,0,0,,1,2,0.0012,0,-21,-5.5,1,0,0,,0,2,2,89,1,8,second,,,,,,,,,,,,,,,,,,,,,,,,,,,,,,,,,,,,,,,,,,,,,,,,,,,,,,,,,,,,,,,,
,,,,,,5f843d6c842a0b04ab2faedb,62b2ad6c1e2691638a7866f0,2022-06-22_07h49.56.985,Colour_Asymmetry_Pilot,2022.1.3,Win32,59.95203837,62b2a6a25f2ba72662469a01,,,,,,,,,,,,,,,,,,,,threeone,,-2,0.648,,,,,,,,,,,,,,,,,,,,,,,,,,,,,,,,,,"[0.0351999999999999,0.41159999999999997,0.0038000000000000256]","[-0.10599999999999998,-0.15300000000000002,0.15280000000000005]",-117,-75.5,1,0,0,response5disk,-31,-6.5,1,0,0,rectangle,-31,-6.5,1,0,0,,1,2,0.0003,0,-31,-6.5,1,0,0,,0,3,3,121,1,40,second,,,,,,,,,,,,,,,,,,,,,,,,,,,,,,,,,,,,,,,,,,,,,,,,,,,,,,,,,,,,,,,,
,,,,,,5f843d6c842a0b04ab2faedb,62b2ad6c1e2691638a7866f0,2022-06-22_07h49.56.985,Colour_Asymmetry_Pilot,2022.1.3,Win32,59.95203837,62b2a6a25f2ba72662469a01,,,,,,,,,,,,,,,,,,,,onethree,,-4,0.432,,,,,,,,,,,,,,,,,,,,,,,,,,,,,,,,,,"[-0.7412000000000001,-0.08239999999999992,-0.6864]","[1,0.12939999999999996,-1]",-63,119.5,1,0,0,response7disk,-6,6.5,1,0,0,rectangle,-6,6.5,1,0,0,,1,1,0.0013,0,-6,6.5,1,0,0,,0,4,4,115,1,34,second,,,,,,,,,,,,,,,,,,,,,,,,,,,,,,,,,,,,,,,,,,,,,,,,,,,,,,,,,,,,,,,,
,,,,,,5f843d6c842a0b04ab2faedb,62b2ad6c1e2691638a7866f0,2022-06-22_07h49.56.985,Colour_Asymmetry_Pilot,2022.1.3,Win32,59.95203837,62b2a6a25f2ba72662469a01,,,,,,,,,,,,,,,,,,,,twoone,,-1,0.8978,,,,,,,,,,,,,,,,,,,,,,,,,,,,,,,,,,"[0.7018,0.7802,-0.16079999999999994]","[0.9686000000000001,0.5763999999999998,0.11359999999999992]",-64,-133.5,1,0,0,response5disk,-10,-5.5,1,0,0,rectangle,-10,-5.5,1,0,0,,1,1,0.0003,0,-10,-5.5,1,0,0,,0,5,5,72,1,72,first,,,,,,,,,,,,,,,,,,,,,,,,,,,,,,,,,,,,,,,,,,,,,,,,,,,,,,,,,,,,,,,,
,,,,,,5f843d6c842a0b04ab2faedb,62b2ad6c1e2691638a7866f0,2022-06-22_07h49.56.985,Colour_Asymmetry_Pilot,2022.1.3,Win32,59.95203837,62b2a6a25f2ba72662469a01,,,,,,,,,,,,,,,,,,,,twofour,,-3,0.4451,,,,,,,,,,,,,,,,,,,,,,,,,,,,,,,,,,"[-0.5688,-0.08239999999999992,-0.1844]","[0.5449999999999999,-0.31000000000000005,-0.0354000000000001]",-119,48.5,1,0,0,response7disk,10,1.5,1,0,0,rectangle,10,1.5,1,0,0,,1,2,0.0013,0,10,1.5,1,0,0,,0,6,6,83,1,2,second,,,,,,,,,,,,,,,,,,,,,,,,,,,,,,,,,,,,,,,,,,,,,,,,,,,,,,,,,,,,,,,,
,,,,,,5f843d6c842a0b04ab2faedb,62b2ad6c1e2691638a7866f0,2022-06-22_07h49.56.985,Colour_Asymmetry_Pilot,2022.1.3,Win32,59.95203837,62b2a6a25f2ba72662469a01,,,,,,,,,,,,,,,,,,,,onetwo,,1,0.8308,,,,,,,,,,,,,,,,,,,,,,,,,,,,,,,,,,"[0.19199999999999995,0.18419999999999992,0.5136000000000001]","[-0.26280000000000003,-0.4746,-0.2158]",73,-119.5,1,0,0,response3disk,-22,6.5,1,0,0,rectangle,-22,6.5,1,0,0,,1,1,0.0009,0,-22,6.5,1,0,0,,0,7,7,146,1,65,second,,,,,,,,,,,,,,,,,,,,,,,,,,,,,,,,,,,,,,,,,,,,,,,,,,,,,,,,,,,,,,,,
,,,,,,5f843d6c842a0b04ab2faedb,62b2ad6c1e2691638a7866f0,2022-06-22_07h49.56.985,Colour_Asymmetry_Pilot,2022.1.3,Win32,59.95203837,62b2a6a25f2ba72662469a01,,,,,,,,,,,,,,,,,,,,threefour,,3,0.8314,,,,,,,,,,,,,,,,,,,,,,,,,,,,,,,,,,"[0.22340000000000004,-0.9296,-0.7884]","[-0.01980000000000004,-0.5138,-0.38039999999999996]",123,34.5,1,0,0,response1disk,-29,2.5,1,0,0,rectangle,-29,2.5,1,0,0,,1,3,0.0014,0,-29,2.5,1,0,0,,0,8,8,23,1,23,first,,,,,,,,,,,,,,,,,,,,,,,,,,,,,,,,,,,,,,,,,,,,,,,,,,,,,,,,,,,,,,,,
,,,,,,5f843d6c842a0b04ab2faedb,62b2ad6c1e2691638a7866f0,2022-06-22_07h49.56.985,Colour_Asymmetry_Pilot,2022.1.3,Win32,59.95203837,62b2a6a25f2ba72662469a01,,,,,,,,,,,,,,,,,,,,onethree,,-3,0.876,,,,,,,,,,,,,,,,,,,,,,,,,,,,,,,,,,"[0.3881999999999999,-0.23939999999999995,-0.05040000000000011]","[0.04299999999999993,0.16060000000000008,-0.6628000000000001]",-122,38.5,1,0,0,response7disk,-21,-9.5,1,0,0,rectangle,128,-71.5,1,0,0,response3disk_3,2,2,1.4288,1,-20,5.5,1,0,0,rectangle,0,9,9,55,1,55,first,,,,,,,,,,,,,,,,,,,,,,,,,,,,,,,,,,,,,,,,,,,,,,,,,,,,,,,,,,,,,,,,
,,,,,,5f843d6c842a0b04ab2faedb,62b2ad6c1e2691638a7866f0,2022-06-22_07h49.56.985,Colour_Asymmetry_Pilot,2022.1.3,Win32,59.95203837,62b2a6a25f2ba72662469a01,,,,,,,,,,,,,,,,,,,,twofour,,-1,0.8165,,,,,,,,,,,,,,,,,,,,,,,,,,,,,,,,,,"[0.9686000000000001,0.5763999999999998,0.11359999999999992]","[0.23920000000000008,0.2704,0.16060000000000008]",-45,-104.5,1,0,0,response5disk,2,6.5,1,0,0,rectangle,2,6.5,1,0,0,,2,1,0.0013,0,2,6.5,1,0,0,,0,10,10,56,1,56,first,,,,,,,,,,,,,,,,,,,,,,,,,,,,,,,,,,,,,,,,,,,,,,,,,,,,,,,,,,,,,,,,
,,,,,,5f843d6c842a0b04ab2faedb,62b2ad6c1e2691638a7866f0,2022-06-22_07h49.56.985,Colour_Asymmetry_Pilot,2022.1.3,Win32,59.95203837,62b2a6a25f2ba72662469a01,,,,,,,,,,,,,,,,,,,,twofour,,1,0.6156,,,,,,,,,,,,,,,,,,,,,,,,,,,,,,,,,,"[-0.24719999999999998,-0.0354000000000001,0.3175999999999999]","[-0.4668,-0.8746,-0.2942]",48,-104.5,1,0,0,response3disk,-11,-4.5,1,0,0,rectangle,-11,-4.5,1,0,0,,2,3,0.0008,0,-11,-4.5,1,0,0,,0,11,11,120,1,39,second,,,,,,,,,,,,,,,,,,,,,,,,,,,,,,,,,,,,,,,,,,,,,,,,,,,,,,,,,,,,,,,,
,,,,,,5f843d6c842a0b04ab2faedb,62b2ad6c1e2691638a7866f0,2022-06-22_07h49.56.985,Colour_Asymmetry_Pilot,2022.1.3,Win32,59.95203837,62b2a6a25f2ba72662469a01,,,,,,,,,,,,,,,,,,,,twofour,,-1,0.6661,,,,,,,,,,,,,,,,,,,,,,,,,,,,,,,,,,"[-0.6942,-0.7648,-0.12959999999999994]","[0.3881999999999999,-0.23939999999999995,-0.05040000000000011]",-83,-116.5,1,0,0,response5disk,1,9.5,1,0,0,rectangle,1,9.5,1,0,0,,2,1,0.0012,0,1,9.5,1,0,0,,0,12,12,90,1,9,second,,,,,,,,,,,,,,,,,,,,,,,,,,,,,,,,,,,,,,,,,,,,,,,,,,,,,,,,,,,,,,,,
,,,,,,5f843d6c842a0b04ab2faedb,62b2ad6c1e2691638a7866f0,2022-06-22_07h49.56.985,Colour_Asymmetry_Pilot,2022.1.3,Win32,59.95203837,62b2a6a25f2ba72662469a01,,,,,,,,,,,,,,,,,,,,threefour,,3,0.4266,,,,,,,,,,,,,,,,,,,,,,,,,,,,,,,,,,"[-0.26280000000000003,-0.4746,-0.2158]","[0.19199999999999995,0.18419999999999992,0.5136000000000001]",93,42.5,1,0,0,response1disk,-11,4.5,1,0,0,rectangle,-11,4.5,1,0,0,,2,2,0.0011,0,-11,4.5,1,0,0,,0,13,13,65,1,65,first,,,,,,,,,,,,,,,,,,,,,,,,,,,,,,,,,,,,,,,,,,,,,,,,,,,,,,,,,,,,,,,,
,,,,,,5f843d6c842a0b04ab2faedb,62b2ad6c1e2691638a7866f0,2022-06-22_07h49.56.985,Colour_Asymmetry_Pilot,2022.1.3,Win32,59.95203837,62b2a6a25f2ba72662469a01,,,,,,,,,,,,,,,,,,,,onethree,,-3,0.5098,,,,,,,,,,,,,,,,,,,,,,,,,,,,,,,,,,"[0.0351999999999999,0.41159999999999997,0.0038000000000000256]","[0.23120000000000007,-0.7726,-0.34120000000000006]",-128,76.5,1,0,0,response7disk,-19,12.5,1,0,0,rectangle,-19,12.5,1,0,0,,2,1,0.0013,0,-19,12.5,1,0,0,,0,14,14,125,1,44,second,,,,,,,,,,,,,,,,,,,,,,,,,,,,,,,,,,,,,,,,,,,,,,,,,,,,,,,,,,,,,,,,
,,,,,,5f843d6c842a0b04ab2faedb,62b2ad6c1e2691638a7866f0,2022-06-22_07h49.56.985,Colour_Asymmetry_Pilot,2022.1.3,Win32,59.95203837,62b2a6a25f2ba72662469a01,,,,,,,,,,,,,,,,,,,,fourthree,,-1,2.4883,,,,,,,,,,,,,,,,,,,,,,,,,,,,,,,,,,"[0.3881999999999999,-0.23939999999999995,-0.05040000000000011]","[-0.6942,-0.7648,-0.12959999999999994]",-39,-134.5,1,0,0,response5disk,35,10.5,1,0,0,rectangle,35,10.5,1,0,0,,2,1,0.0004,0,35,10.5,1,0,0,,0,15,15,9,1,9,first,,,,,,,,,,,,,,,,,,,,,,,,,,,,,,,,,,,,,,,,,,,,,,,,,,,,,,,,,,,,,,,,
,,,,,,5f843d6c842a0b04ab2faedb,62b2ad6c1e2691638a7866f0,2022-06-22_07h49.56.985,Colour_Asymmetry_Pilot,2022.1.3,Win32,59.95203837,62b2a6a25f2ba72662469a01,,,,,,,,,,,,,,,,,,,,threeone,,2,0.7816,,,,,,,,,,,,,,,,,,,,,,,,,,,,,,,,,,"[0.9842,0.7409999999999999,-0.6628000000000001]","[1,0.12939999999999996,-1]",118,-58.5,1,0,0,response3disk,-2,-3.5,1,0,0,rectangle,-2,-3.5,1,0,0,,2,3,0.0015,0,-2,-3.5,1,0,0,,0,16,16,66,1,66,first,,,,,,,,,,,,,,,,,,,,,,,,,,,,,,,,,,,,,,,,,,,,,,,,,,,,,,,,,,,,,,,,
,,,,,,5f843d6c842a0b04ab2faedb,62b2ad6c1e2691638a7866f0,2022-06-22_07h49.56.985,Colour_Asymmetry_Pilot,2022.1.3,Win32,59.95203837,62b2a6a25f2ba72662469a01,,,,,,,,,,,,,,,,,,,,onethree,,-2,0.6714,,,,,,,,,,,,,,,,,,,,,,,,,,,,,,,,,,"[0.34099999999999997,0.5841999999999998,-0.9844]","[0.796,0.2156,-0.27859999999999996]",-98,-61.5,1,0,0,response5disk,11,18.5,1,0,0,rectangle,11,18.5,1,0,0,,2,2,0.0015,0,11,18.5,1,0,0,,0,17,17,116,1,35,second,,,,,,,,,,,,,,,,,,,,,,,,,,,,,,,,,,,,,,,,,,,,,,,,,,,,,,,,,,,,,,,,
,,,,,,5f843d6c842a0b04ab2faedb,62b2ad6c1e2691638a7866f0,2022-06-22_07h49.56.985,Colour_Asymmetry_Pilot,2022.1.3,Win32,59.95203837,62b2a6a25f2ba72662469a01,,,,,,,,,,,,,,,,,,,,fourthree,,-3,1.0311,,,,,,,,,,,,,,,,,,,,,,,,,,,,,,,,,,"[0.8274000000000001,-0.5844,-0.9452]","[0.37240000000000006,0.4980000000000002,-0.2864]",-115,65.5,1,0,0,response7disk,8,-0.5,1,0,0,rectangle,8,-0.5,1,0,0,,2,3,0.0013,0,8,-0.5,1,0,0,,0,18,18,28,1,28,first,,,,,,,,,,,,,,,,,,,,,,,,,,,,,,,,,,,,,,,,,,,,,,,,,,,,,,,,,,,,,,,,
,,,,,,5f843d6c842a0b04ab2faedb,62b2ad6c1e2691638a7866f0,2022-06-22_07h49.56.985,Colour_Asymmetry_Pilot,2022.1.3,Win32,59.95203837,62b2a6a25f2ba72662469a01,,,,,,,,,,,,,,,,,,,,twofour,,-4,0.3431,,,,,,,,,,,,,,,,,,,,,,,,,,,,,,,,,,"[-0.8982,-0.37259999999999993,0.2784]","[1,0.12939999999999996,-1]",-60,116.5,1,0,0,response7disk,2,-3.5,1,0,0,rectangle,2,-3.5,1,0,0,,2,2,0.001,0,2,-3.5,1,0,0,,0,19,19,113,1,32,second,,,,,,,,,,,,,,,,,,,,,,,,,,,,,,,,,,,,,,,,,,,,,,,,,,,,,,,,,,,,,,,,
,,,,,,5f843d6c842a0b04ab2faedb,62b2ad6c1e2691638a7866f0,2022-06-22_07h49.56.985,Colour_Asymmetry_Pilot,2022.1.3,Win32,59.95203837,62b2a6a25f2ba72662469a01,,,,,,,,,,,,,,,,,,,,fourthree,,-2,0.7924,,,,,,,,,,,,,,,,,,,,,,,,,,,,,,,,,,"[0.5528,0.7409999999999999,-0.71]","[0.9686000000000001,0.3802000000000001,0.19999999999999996]",-109,-71.5,1,0,0,response5disk,-8,-10.5,1,0,0,rectangle,-8,-10.5,1,0,0,,2,2,0.0005,0,-8,-10.5,1,0,0,,0,20,20,126,1,45,second,,,,,,,,,,,,,,,,,,,,,,,,,,,,,,,,,,,,,,,,,,,,,,,,,,,,,,,,,,,,,,,,
