trials.thisRepN,trials.thisTrialN,trials.thisN,trials.thisIndex,trials.ran,Colourcodes,participant,session,date,expName,psychopyVersion,OS,frameRate,study_id,trials_4.thisRepN,trials_4.thisTrialN,trials_4.thisN,trials_4.thisIndex,trials_4.ran,StimulusPos,key_resp.keys,key_resp.rt,key_resp_2.keys,key_resp_2.rt,key_resp_15.keys,key_resp_15.rt,key_resp_17.keys,key_resp_17.rt,key_resp_9.keys,key_resp_9.rt,key_resp_10.keys,key_resp_10.rt,Circle1_col,Ecc,Circle2_col,similarity,response_time,mouse_5.x,mouse_5.y,mouse_5.leftButton,mouse_5.midButton,mouse_5.rightButton,mouse_5.clicked_name,mouse_10.x,mouse_10.y,mouse_10.leftButton,mouse_10.midButton,mouse_10.rightButton,mouse_10.clicked_name,mouse_7.x,mouse_7.y,mouse_7.leftButton,mouse_7.midButton,mouse_7.rightButton,catchnumberprac,mouse_6.x,mouse_6.y,mouse_6.leftButton,mouse_6.midButton,mouse_6.rightButton,duringprac.thisRepN,duringprac.thisTrialN,duringprac.thisN,duringprac.thisIndex,duringprac.ran,mouse_7.clicked_name,catchprac,mouse_6.clicked_name,key_resp_22.keys,key_resp_22.rt,Circle1_colour,Circle2_colour,mouse.x,mouse.y,mouse.leftButton,mouse.midButton,mouse.rightButton,mouse.clicked_name,mouse_2.x,mouse_2.y,mouse_2.leftButton,mouse_2.midButton,mouse_2.rightButton,mouse_2.clicked_name,mouse_3.x,mouse_3.y,mouse_3.leftButton,mouse_3.midButton,mouse_3.rightButton,catchresponse,catchnumber,response_time_catch,Catch,mouse_11.x,mouse_11.y,mouse_11.leftButton,mouse_11.midButton,mouse_11.rightButton,trials_2.thisRepN,trials_2.thisTrialN,trials_2.thisN,trials_2.thisIndex,trials_2.ran,Colourpair,Temporder,mouse_3.clicked_name,mouse_11.clicked_name,trials_3.thisRepN,trials_3.thisTrialN,trials_3.thisN,trials_3.thisIndex,trials_3.ran,key_resp_instr_Ishi.keys,key_resp_instr_Ishi.rt,Ishi_trial_keyresp.keys,Ishi_trial_keyresp.rt,Ishi_textbox.text,Ishi_loop.thisRepN,Ishi_loop.thisTrialN,Ishi_loop.thisN,Ishi_loop.thisIndex,Ishi_loop.ran,imageaddress,textbox.text,mouse_4.x,mouse_4.y,mouse_4.leftButton,mouse_4.midButton,mouse_4.rightButton,mouse_4.clicked_name,textbox_2.text,mouse_8.x,mouse_8.y,mouse_8.leftButton,mouse_8.midButton,mouse_8.rightButton,mouse_8.clicked_name,textbox_3.text,mouse_9.x,mouse_9.y,mouse_9.leftButton,mouse_9.midButton,mouse_9.rightButton,mouse_9.clicked_name,textbox_4.text,mouse_12.x,mouse_12.y,mouse_12.leftButton,mouse_12.midButton,mouse_12.rightButton,mouse_12.clicked_name,textbox_5.text,mouse_13.x,mouse_13.y,mouse_13.leftButton,mouse_13.midButton,mouse_13.rightButton,mouse_13.clicked_name,textbox_6.text,mouse_14.x,mouse_14.y,mouse_14.leftButton,mouse_14.midButton,mouse_14.rightButton,mouse_14.clicked_name,textbox_7.text,mouse_15.x,mouse_15.y,mouse_15.leftButton,mouse_15.midButton,mouse_15.rightButton,mouse_15.clicked_name
0,0,0,89,1,,5d5ee4b5b3e1bf0001a46a7d,62bbfb4f7d44554892e31cac,2022-06-29_08h12.34.775,Colour_Asymmetry_Pilot,2022.1.3,Win32,60.08532116,62bbe60bf3d75ef465d3e404,,,,,,,,,,,,,,,,,,,,,,,,,,,,,,,,,,,,,,,,,,,,,,,,,,,,,,,,,,,,,,,,,,,,,,,,,,,,,,,,,,,,,,,,,,,,,,,,,,,,,,,,,,,,,,,,,,,,,,,,,,,,,,,,,,,,,,,,,,,,,,,,,,,,,,,,,,,,,,
0,1,1,85,1,,5d5ee4b5b3e1bf0001a46a7d,62bbfb4f7d44554892e31cac,2022-06-29_08h12.34.775,Colour_Asymmetry_Pilot,2022.1.3,Win32,60.08532116,62bbe60bf3d75ef465d3e404,,,,,,,,,,,,,,,,,,,,,,,,,,,,,,,,,,,,,,,,,,,,,,,,,,,,,,,,,,,,,,,,,,,,,,,,,,,,,,,,,,,,,,,,,,,,,,,,,,,,,,,,,,,,,,,,,,,,,,,,,,,,,,,,,,,,,,,,,,,,,,,,,,,,,,,,,,,,,,
0,2,2,13,1,,5d5ee4b5b3e1bf0001a46a7d,62bbfb4f7d44554892e31cac,2022-06-29_08h12.34.775,Colour_Asymmetry_Pilot,2022.1.3,Win32,60.08532116,62bbe60bf3d75ef465d3e404,,,,,,,,,,,,,,,,,,,,,,,,,,,,,,,,,,,,,,,,,,,,,,,,,,,,,,,,,,,,,,,,,,,,,,,,,,,,,,,,,,,,,,,,,,,,,,,,,,,,,,,,,,,,,,,,,,,,,,,,,,,,,,,,,,,,,,,,,,,,,,,,,,,,,,,,,,,,,,
0,3,3,6,1,,5d5ee4b5b3e1bf0001a46a7d,62bbfb4f7d44554892e31cac,2022-06-29_08h12.34.775,Colour_Asymmetry_Pilot,2022.1.3,Win32,60.08532116,62bbe60bf3d75ef465d3e404,,,,,,,,,,,,,,,,,,,,,,,,,,,,,,,,,,,,,,,,,,,,,,,,,,,,,,,,,,,,,,,,,,,,,,,,,,,,,,,,,,,,,,,,,,,,,,,,,,,,,,,,,,,,,,,,,,,,,,,,,,,,,,,,,,,,,,,,,,,,,,,,,,,,,,,,,,,,,,
0,4,4,40,1,,5d5ee4b5b3e1bf0001a46a7d,62bbfb4f7d44554892e31cac,2022-06-29_08h12.34.775,Colour_Asymmetry_Pilot,2022.1.3,Win32,60.08532116,62bbe60bf3d75ef465d3e404,,,,,,,,,,,,,,,,,,,,,,,,,,,,,,,,,,,,,,,,,,,,,,,,,,,,,,,,,,,,,,,,,,,,,,,,,,,,,,,,,,,,,,,,,,,,,,,,,,,,,,,,,,,,,,,,,,,,,,,,,,,,,,,,,,,,,,,,,,,,,,,,,,,,,,,,,,,,,,
0,5,5,39,1,,5d5ee4b5b3e1bf0001a46a7d,62bbfb4f7d44554892e31cac,2022-06-29_08h12.34.775,Colour_Asymmetry_Pilot,2022.1.3,Win32,60.08532116,62bbe60bf3d75ef465d3e404,,,,,,,,,,,,,,,,,,,,,,,,,,,,,,,,,,,,,,,,,,,,,,,,,,,,,,,,,,,,,,,,,,,,,,,,,,,,,,,,,,,,,,,,,,,,,,,,,,,,,,,,,,,,,,,,,,,,,,,,,,,,,,,,,,,,,,,,,,,,,,,,,,,,,,,,,,,,,,
0,6,6,34,1,,5d5ee4b5b3e1bf0001a46a7d,62bbfb4f7d44554892e31cac,2022-06-29_08h12.34.775,Colour_Asymmetry_Pilot,2022.1.3,Win32,60.08532116,62bbe60bf3d75ef465d3e404,,,,,,,,,,,,,,,,,,,,,,,,,,,,,,,,,,,,,,,,,,,,,,,,,,,,,,,,,,,,,,,,,,,,,,,,,,,,,,,,,,,,,,,,,,,,,,,,,,,,,,,,,,,,,,,,,,,,,,,,,,,,,,,,,,,,,,,,,,,,,,,,,,,,,,,,,,,,,,
0,7,7,22,1,,5d5ee4b5b3e1bf0001a46a7d,62bbfb4f7d44554892e31cac,2022-06-29_08h12.34.775,Colour_Asymmetry_Pilot,2022.1.3,Win32,60.08532116,62bbe60bf3d75ef465d3e404,,,,,,,,,,,,,,,,,,,,,,,,,,,,,,,,,,,,,,,,,,,,,,,,,,,,,,,,,,,,,,,,,,,,,,,,,,,,,,,,,,,,,,,,,,,,,,,,,,,,,,,,,,,,,,,,,,,,,,,,,,,,,,,,,,,,,,,,,,,,,,,,,,,,,,,,,,,,,,
0,8,8,70,1,,5d5ee4b5b3e1bf0001a46a7d,62bbfb4f7d44554892e31cac,2022-06-29_08h12.34.775,Colour_Asymmetry_Pilot,2022.1.3,Win32,60.08532116,62bbe60bf3d75ef465d3e404,,,,,,,,,,,,,,,,,,,,,,,,,,,,,,,,,,,,,,,,,,,,,,,,,,,,,,,,,,,,,,,,,,,,,,,,,,,,,,,,,,,,,,,,,,,,,,,,,,,,,,,,,,,,,,,,,,,,,,,,,,,,,,,,,,,,,,,,,,,,,,,,,,,,,,,,,,,,,,
0,9,9,21,1,,5d5ee4b5b3e1bf0001a46a7d,62bbfb4f7d44554892e31cac,2022-06-29_08h12.34.775,Colour_Asymmetry_Pilot,2022.1.3,Win32,60.08532116,62bbe60bf3d75ef465d3e404,,,,,,,,,,,,,,,,,,,,,,,,,,,,,,,,,,,,,,,,,,,,,,,,,,,,,,,,,,,,,,,,,,,,,,,,,,,,,,,,,,,,,,,,,,,,,,,,,,,,,,,,,,,,,,,,,,,,,,,,,,,,,,,,,,,,,,,,,,,,,,,,,,,,,,,,,,,,,,
0,10,10,92,1,,5d5ee4b5b3e1bf0001a46a7d,62bbfb4f7d44554892e31cac,2022-06-29_08h12.34.775,Colour_Asymmetry_Pilot,2022.1.3,Win32,60.08532116,62bbe60bf3d75ef465d3e404,,,,,,,,,,,,,,,,,,,,,,,,,,,,,,,,,,,,,,,,,,,,,,,,,,,,,,,,,,,,,,,,,,,,,,,,,,,,,,,,,,,,,,,,,,,,,,,,,,,,,,,,,,,,,,,,,,,,,,,,,,,,,,,,,,,,,,,,,,,,,,,,,,,,,,,,,,,,,,
0,11,11,64,1,,5d5ee4b5b3e1bf0001a46a7d,62bbfb4f7d44554892e31cac,2022-06-29_08h12.34.775,Colour_Asymmetry_Pilot,2022.1.3,Win32,60.08532116,62bbe60bf3d75ef465d3e404,,,,,,,,,,,,,,,,,,,,,,,,,,,,,,,,,,,,,,,,,,,,,,,,,,,,,,,,,,,,,,,,,,,,,,,,,,,,,,,,,,,,,,,,,,,,,,,,,,,,,,,,,,,,,,,,,,,,,,,,,,,,,,,,,,,,,,,,,,,,,,,,,,,,,,,,,,,,,,
0,12,12,80,1,,5d5ee4b5b3e1bf0001a46a7d,62bbfb4f7d44554892e31cac,2022-06-29_08h12.34.775,Colour_Asymmetry_Pilot,2022.1.3,Win32,60.08532116,62bbe60bf3d75ef465d3e404,,,,,,,,,,,,,,,,,,,,,,,,,,,,,,,,,,,,,,,,,,,,,,,,,,,,,,,,,,,,,,,,,,,,,,,,,,,,,,,,,,,,,,,,,,,,,,,,,,,,,,,,,,,,,,,,,,,,,,,,,,,,,,,,,,,,,,,,,,,,,,,,,,,,,,,,,,,,,,
0,13,13,33,1,,5d5ee4b5b3e1bf0001a46a7d,62bbfb4f7d44554892e31cac,2022-06-29_08h12.34.775,Colour_Asymmetry_Pilot,2022.1.3,Win32,60.08532116,62bbe60bf3d75ef465d3e404,,,,,,,,,,,,,,,,,,,,,,,,,,,,,,,,,,,,,,,,,,,,,,,,,,,,,,,,,,,,,,,,,,,,,,,,,,,,,,,,,,,,,,,,,,,,,,,,,,,,,,,,,,,,,,,,,,,,,,,,,,,,,,,,,,,,,,,,,,,,,,,,,,,,,,,,,,,,,,
0,14,14,68,1,,5d5ee4b5b3e1bf0001a46a7d,62bbfb4f7d44554892e31cac,2022-06-29_08h12.34.775,Colour_Asymmetry_Pilot,2022.1.3,Win32,60.08532116,62bbe60bf3d75ef465d3e404,,,,,,,,,,,,,,,,,,,,,,,,,,,,,,,,,,,,,,,,,,,,,,,,,,,,,,,,,,,,,,,,,,,,,,,,,,,,,,,,,,,,,,,,,,,,,,,,,,,,,,,,,,,,,,,,,,,,,,,,,,,,,,,,,,,,,,,,,,,,,,,,,,,,,,,,,,,,,,
0,15,15,7,1,,5d5ee4b5b3e1bf0001a46a7d,62bbfb4f7d44554892e31cac,2022-06-29_08h12.34.775,Colour_Asymmetry_Pilot,2022.1.3,Win32,60.08532116,62bbe60bf3d75ef465d3e404,,,,,,,,,,,,,,,,,,,,,,,,,,,,,,,,,,,,,,,,,,,,,,,,,,,,,,,,,,,,,,,,,,,,,,,,,,,,,,,,,,,,,,,,,,,,,,,,,,,,,,,,,,,,,,,,,,,,,,,,,,,,,,,,,,,,,,,,,,,,,,,,,,,,,,,,,,,,,,
0,16,16,60,1,,5d5ee4b5b3e1bf0001a46a7d,62bbfb4f7d44554892e31cac,2022-06-29_08h12.34.775,Colour_Asymmetry_Pilot,2022.1.3,Win32,60.08532116,62bbe60bf3d75ef465d3e404,,,,,,,,,,,,,,,,,,,,,,,,,,,,,,,,,,,,,,,,,,,,,,,,,,,,,,,,,,,,,,,,,,,,,,,,,,,,,,,,,,,,,,,,,,,,,,,,,,,,,,,,,,,,,,,,,,,,,,,,,,,,,,,,,,,,,,,,,,,,,,,,,,,,,,,,,,,,,,
0,17,17,35,1,,5d5ee4b5b3e1bf0001a46a7d,62bbfb4f7d44554892e31cac,2022-06-29_08h12.34.775,Colour_Asymmetry_Pilot,2022.1.3,Win32,60.08532116,62bbe60bf3d75ef465d3e404,,,,,,,,,,,,,,,,,,,,,,,,,,,,,,,,,,,,,,,,,,,,,,,,,,,,,,,,,,,,,,,,,,,,,,,,,,,,,,,,,,,,,,,,,,,,,,,,,,,,,,,,,,,,,,,,,,,,,,,,,,,,,,,,,,,,,,,,,,,,,,,,,,,,,,,,,,,,,,
0,18,18,81,1,,5d5ee4b5b3e1bf0001a46a7d,62bbfb4f7d44554892e31cac,2022-06-29_08h12.34.775,Colour_Asymmetry_Pilot,2022.1.3,Win32,60.08532116,62bbe60bf3d75ef465d3e404,,,,,,,,,,,,,,,,,,,,,,,,,,,,,,,,,,,,,,,,,,,,,,,,,,,,,,,,,,,,,,,,,,,,,,,,,,,,,,,,,,,,,,,,,,,,,,,,,,,,,,,,,,,,,,,,,,,,,,,,,,,,,,,,,,,,,,,,,,,,,,,,,,,,,,,,,,,,,,
0,19,19,59,1,,5d5ee4b5b3e1bf0001a46a7d,62bbfb4f7d44554892e31cac,2022-06-29_08h12.34.775,Colour_Asymmetry_Pilot,2022.1.3,Win32,60.08532116,62bbe60bf3d75ef465d3e404,,,,,,,,,,,,,,,,,,,,,,,,,,,,,,,,,,,,,,,,,,,,,,,,,,,,,,,,,,,,,,,,,,,,,,,,,,,,,,,,,,,,,,,,,,,,,,,,,,,,,,,,,,,,,,,,,,,,,,,,,,,,,,,,,,,,,,,,,,,,,,,,,,,,,,,,,,,,,,
0,20,20,8,1,,5d5ee4b5b3e1bf0001a46a7d,62bbfb4f7d44554892e31cac,2022-06-29_08h12.34.775,Colour_Asymmetry_Pilot,2022.1.3,Win32,60.08532116,62bbe60bf3d75ef465d3e404,,,,,,,,,,,,,,,,,,,,,,,,,,,,,,,,,,,,,,,,,,,,,,,,,,,,,,,,,,,,,,,,,,,,,,,,,,,,,,,,,,,,,,,,,,,,,,,,,,,,,,,,,,,,,,,,,,,,,,,,,,,,,,,,,,,,,,,,,,,,,,,,,,,,,,,,,,,,,,
0,21,21,4,1,,5d5ee4b5b3e1bf0001a46a7d,62bbfb4f7d44554892e31cac,2022-06-29_08h12.34.775,Colour_Asymmetry_Pilot,2022.1.3,Win32,60.08532116,62bbe60bf3d75ef465d3e404,,,,,,,,,,,,,,,,,,,,,,,,,,,,,,,,,,,,,,,,,,,,,,,,,,,,,,,,,,,,,,,,,,,,,,,,,,,,,,,,,,,,,,,,,,,,,,,,,,,,,,,,,,,,,,,,,,,,,,,,,,,,,,,,,,,,,,,,,,,,,,,,,,,,,,,,,,,,,,
0,22,22,43,1,,5d5ee4b5b3e1bf0001a46a7d,62bbfb4f7d44554892e31cac,2022-06-29_08h12.34.775,Colour_Asymmetry_Pilot,2022.1.3,Win32,60.08532116,62bbe60bf3d75ef465d3e404,,,,,,,,,,,,,,,,,,,,,,,,,,,,,,,,,,,,,,,,,,,,,,,,,,,,,,,,,,,,,,,,,,,,,,,,,,,,,,,,,,,,,,,,,,,,,,,,,,,,,,,,,,,,,,,,,,,,,,,,,,,,,,,,,,,,,,,,,,,,,,,,,,,,,,,,,,,,,,
0,23,23,86,1,,5d5ee4b5b3e1bf0001a46a7d,62bbfb4f7d44554892e31cac,2022-06-29_08h12.34.775,Colour_Asymmetry_Pilot,2022.1.3,Win32,60.08532116,62bbe60bf3d75ef465d3e404,,,,,,,,,,,,,,,,,,,,,,,,,,,,,,,,,,,,,,,,,,,,,,,,,,,,,,,,,,,,,,,,,,,,,,,,,,,,,,,,,,,,,,,,,,,,,,,,,,,,,,,,,,,,,,,,,,,,,,,,,,,,,,,,,,,,,,,,,,,,,,,,,,,,,,,,,,,,,,
0,24,24,46,1,,5d5ee4b5b3e1bf0001a46a7d,62bbfb4f7d44554892e31cac,2022-06-29_08h12.34.775,Colour_Asymmetry_Pilot,2022.1.3,Win32,60.08532116,62bbe60bf3d75ef465d3e404,,,,,,,,,,,,,,,,,,,,,,,,,,,,,,,,,,,,,,,,,,,,,,,,,,,,,,,,,,,,,,,,,,,,,,,,,,,,,,,,,,,,,,,,,,,,,,,,,,,,,,,,,,,,,,,,,,,,,,,,,,,,,,,,,,,,,,,,,,,,,,,,,,,,,,,,,,,,,,
0,25,25,48,1,,5d5ee4b5b3e1bf0001a46a7d,62bbfb4f7d44554892e31cac,2022-06-29_08h12.34.775,Colour_Asymmetry_Pilot,2022.1.3,Win32,60.08532116,62bbe60bf3d75ef465d3e404,,,,,,,,,,,,,,,,,,,,,,,,,,,,,,,,,,,,,,,,,,,,,,,,,,,,,,,,,,,,,,,,,,,,,,,,,,,,,,,,,,,,,,,,,,,,,,,,,,,,,,,,,,,,,,,,,,,,,,,,,,,,,,,,,,,,,,,,,,,,,,,,,,,,,,,,,,,,,,
0,26,26,61,1,,5d5ee4b5b3e1bf0001a46a7d,62bbfb4f7d44554892e31cac,2022-06-29_08h12.34.775,Colour_Asymmetry_Pilot,2022.1.3,Win32,60.08532116,62bbe60bf3d75ef465d3e404,,,,,,,,,,,,,,,,,,,,,,,,,,,,,,,,,,,,,,,,,,,,,,,,,,,,,,,,,,,,,,,,,,,,,,,,,,,,,,,,,,,,,,,,,,,,,,,,,,,,,,,,,,,,,,,,,,,,,,,,,,,,,,,,,,,,,,,,,,,,,,,,,,,,,,,,,,,,,,
0,27,27,90,1,,5d5ee4b5b3e1bf0001a46a7d,62bbfb4f7d44554892e31cac,2022-06-29_08h12.34.775,Colour_Asymmetry_Pilot,2022.1.3,Win32,60.08532116,62bbe60bf3d75ef465d3e404,,,,,,,,,,,,,,,,,,,,,,,,,,,,,,,,,,,,,,,,,,,,,,,,,,,,,,,,,,,,,,,,,,,,,,,,,,,,,,,,,,,,,,,,,,,,,,,,,,,,,,,,,,,,,,,,,,,,,,,,,,,,,,,,,,,,,,,,,,,,,,,,,,,,,,,,,,,,,,
0,28,28,57,1,,5d5ee4b5b3e1bf0001a46a7d,62bbfb4f7d44554892e31cac,2022-06-29_08h12.34.775,Colour_Asymmetry_Pilot,2022.1.3,Win32,60.08532116,62bbe60bf3d75ef465d3e404,,,,,,,,,,,,,,,,,,,,,,,,,,,,,,,,,,,,,,,,,,,,,,,,,,,,,,,,,,,,,,,,,,,,,,,,,,,,,,,,,,,,,,,,,,,,,,,,,,,,,,,,,,,,,,,,,,,,,,,,,,,,,,,,,,,,,,,,,,,,,,,,,,,,,,,,,,,,,,
0,29,29,9,1,,5d5ee4b5b3e1bf0001a46a7d,62bbfb4f7d44554892e31cac,2022-06-29_08h12.34.775,Colour_Asymmetry_Pilot,2022.1.3,Win32,60.08532116,62bbe60bf3d75ef465d3e404,,,,,,,,,,,,,,,,,,,,,,,,,,,,,,,,,,,,,,,,,,,,,,,,,,,,,,,,,,,,,,,,,,,,,,,,,,,,,,,,,,,,,,,,,,,,,,,,,,,,,,,,,,,,,,,,,,,,,,,,,,,,,,,,,,,,,,,,,,,,,,,,,,,,,,,,,,,,,,
0,30,30,82,1,,5d5ee4b5b3e1bf0001a46a7d,62bbfb4f7d44554892e31cac,2022-06-29_08h12.34.775,Colour_Asymmetry_Pilot,2022.1.3,Win32,60.08532116,62bbe60bf3d75ef465d3e404,,,,,,,,,,,,,,,,,,,,,,,,,,,,,,,,,,,,,,,,,,,,,,,,,,,,,,,,,,,,,,,,,,,,,,,,,,,,,,,,,,,,,,,,,,,,,,,,,,,,,,,,,,,,,,,,,,,,,,,,,,,,,,,,,,,,,,,,,,,,,,,,,,,,,,,,,,,,,,
0,31,31,38,1,,5d5ee4b5b3e1bf0001a46a7d,62bbfb4f7d44554892e31cac,2022-06-29_08h12.34.775,Colour_Asymmetry_Pilot,2022.1.3,Win32,60.08532116,62bbe60bf3d75ef465d3e404,,,,,,,,,,,,,,,,,,,,,,,,,,,,,,,,,,,,,,,,,,,,,,,,,,,,,,,,,,,,,,,,,,,,,,,,,,,,,,,,,,,,,,,,,,,,,,,,,,,,,,,,,,,,,,,,,,,,,,,,,,,,,,,,,,,,,,,,,,,,,,,,,,,,,,,,,,,,,,
0,32,32,76,1,,5d5ee4b5b3e1bf0001a46a7d,62bbfb4f7d44554892e31cac,2022-06-29_08h12.34.775,Colour_Asymmetry_Pilot,2022.1.3,Win32,60.08532116,62bbe60bf3d75ef465d3e404,,,,,,,,,,,,,,,,,,,,,,,,,,,,,,,,,,,,,,,,,,,,,,,,,,,,,,,,,,,,,,,,,,,,,,,,,,,,,,,,,,,,,,,,,,,,,,,,,,,,,,,,,,,,,,,,,,,,,,,,,,,,,,,,,,,,,,,,,,,,,,,,,,,,,,,,,,,,,,
0,33,33,56,1,,5d5ee4b5b3e1bf0001a46a7d,62bbfb4f7d44554892e31cac,2022-06-29_08h12.34.775,Colour_Asymmetry_Pilot,2022.1.3,Win32,60.08532116,62bbe60bf3d75ef465d3e404,,,,,,,,,,,,,,,,,,,,,,,,,,,,,,,,,,,,,,,,,,,,,,,,,,,,,,,,,,,,,,,,,,,,,,,,,,,,,,,,,,,,,,,,,,,,,,,,,,,,,,,,,,,,,,,,,,,,,,,,,,,,,,,,,,,,,,,,,,,,,,,,,,,,,,,,,,,,,,
0,34,34,5,1,,5d5ee4b5b3e1bf0001a46a7d,62bbfb4f7d44554892e31cac,2022-06-29_08h12.34.775,Colour_Asymmetry_Pilot,2022.1.3,Win32,60.08532116,62bbe60bf3d75ef465d3e404,,,,,,,,,,,,,,,,,,,,,,,,,,,,,,,,,,,,,,,,,,,,,,,,,,,,,,,,,,,,,,,,,,,,,,,,,,,,,,,,,,,,,,,,,,,,,,,,,,,,,,,,,,,,,,,,,,,,,,,,,,,,,,,,,,,,,,,,,,,,,,,,,,,,,,,,,,,,,,
0,35,35,62,1,,5d5ee4b5b3e1bf0001a46a7d,62bbfb4f7d44554892e31cac,2022-06-29_08h12.34.775,Colour_Asymmetry_Pilot,2022.1.3,Win32,60.08532116,62bbe60bf3d75ef465d3e404,,,,,,,,,,,,,,,,,,,,,,,,,,,,,,,,,,,,,,,,,,,,,,,,,,,,,,,,,,,,,,,,,,,,,,,,,,,,,,,,,,,,,,,,,,,,,,,,,,,,,,,,,,,,,,,,,,,,,,,,,,,,,,,,,,,,,,,,,,,,,,,,,,,,,,,,,,,,,,
0,36,36,19,1,,5d5ee4b5b3e1bf0001a46a7d,62bbfb4f7d44554892e31cac,2022-06-29_08h12.34.775,Colour_Asymmetry_Pilot,2022.1.3,Win32,60.08532116,62bbe60bf3d75ef465d3e404,,,,,,,,,,,,,,,,,,,,,,,,,,,,,,,,,,,,,,,,,,,,,,,,,,,,,,,,,,,,,,,,,,,,,,,,,,,,,,,,,,,,,,,,,,,,,,,,,,,,,,,,,,,,,,,,,,,,,,,,,,,,,,,,,,,,,,,,,,,,,,,,,,,,,,,,,,,,,,
0,37,37,12,1,,5d5ee4b5b3e1bf0001a46a7d,62bbfb4f7d44554892e31cac,2022-06-29_08h12.34.775,Colour_Asymmetry_Pilot,2022.1.3,Win32,60.08532116,62bbe60bf3d75ef465d3e404,,,,,,,,,,,,,,,,,,,,,,,,,,,,,,,,,,,,,,,,,,,,,,,,,,,,,,,,,,,,,,,,,,,,,,,,,,,,,,,,,,,,,,,,,,,,,,,,,,,,,,,,,,,,,,,,,,,,,,,,,,,,,,,,,,,,,,,,,,,,,,,,,,,,,,,,,,,,,,
0,38,38,73,1,,5d5ee4b5b3e1bf0001a46a7d,62bbfb4f7d44554892e31cac,2022-06-29_08h12.34.775,Colour_Asymmetry_Pilot,2022.1.3,Win32,60.08532116,62bbe60bf3d75ef465d3e404,,,,,,,,,,,,,,,,,,,,,,,,,,,,,,,,,,,,,,,,,,,,,,,,,,,,,,,,,,,,,,,,,,,,,,,,,,,,,,,,,,,,,,,,,,,,,,,,,,,,,,,,,,,,,,,,,,,,,,,,,,,,,,,,,,,,,,,,,,,,,,,,,,,,,,,,,,,,,,
0,39,39,11,1,,5d5ee4b5b3e1bf0001a46a7d,62bbfb4f7d44554892e31cac,2022-06-29_08h12.34.775,Colour_Asymmetry_Pilot,2022.1.3,Win32,60.08532116,62bbe60bf3d75ef465d3e404,,,,,,,,,,,,,,,,,,,,,,,,,,,,,,,,,,,,,,,,,,,,,,,,,,,,,,,,,,,,,,,,,,,,,,,,,,,,,,,,,,,,,,,,,,,,,,,,,,,,,,,,,,,,,,,,,,,,,,,,,,,,,,,,,,,,,,,,,,,,,,,,,,,,,,,,,,,,,,
0,40,40,54,1,,5d5ee4b5b3e1bf0001a46a7d,62bbfb4f7d44554892e31cac,2022-06-29_08h12.34.775,Colour_Asymmetry_Pilot,2022.1.3,Win32,60.08532116,62bbe60bf3d75ef465d3e404,,,,,,,,,,,,,,,,,,,,,,,,,,,,,,,,,,,,,,,,,,,,,,,,,,,,,,,,,,,,,,,,,,,,,,,,,,,,,,,,,,,,,,,,,,,,,,,,,,,,,,,,,,,,,,,,,,,,,,,,,,,,,,,,,,,,,,,,,,,,,,,,,,,,,,,,,,,,,,
0,41,41,17,1,,5d5ee4b5b3e1bf0001a46a7d,62bbfb4f7d44554892e31cac,2022-06-29_08h12.34.775,Colour_Asymmetry_Pilot,2022.1.3,Win32,60.08532116,62bbe60bf3d75ef465d3e404,,,,,,,,,,,,,,,,,,,,,,,,,,,,,,,,,,,,,,,,,,,,,,,,,,,,,,,,,,,,,,,,,,,,,,,,,,,,,,,,,,,,,,,,,,,,,,,,,,,,,,,,,,,,,,,,,,,,,,,,,,,,,,,,,,,,,,,,,,,,,,,,,,,,,,,,,,,,,,
0,42,42,37,1,,5d5ee4b5b3e1bf0001a46a7d,62bbfb4f7d44554892e31cac,2022-06-29_08h12.34.775,Colour_Asymmetry_Pilot,2022.1.3,Win32,60.08532116,62bbe60bf3d75ef465d3e404,,,,,,,,,,,,,,,,,,,,,,,,,,,,,,,,,,,,,,,,,,,,,,,,,,,,,,,,,,,,,,,,,,,,,,,,,,,,,,,,,,,,,,,,,,,,,,,,,,,,,,,,,,,,,,,,,,,,,,,,,,,,,,,,,,,,,,,,,,,,,,,,,,,,,,,,,,,,,,
0,43,43,26,1,,5d5ee4b5b3e1bf0001a46a7d,62bbfb4f7d44554892e31cac,2022-06-29_08h12.34.775,Colour_Asymmetry_Pilot,2022.1.3,Win32,60.08532116,62bbe60bf3d75ef465d3e404,,,,,,,,,,,,,,,,,,,,,,,,,,,,,,,,,,,,,,,,,,,,,,,,,,,,,,,,,,,,,,,,,,,,,,,,,,,,,,,,,,,,,,,,,,,,,,,,,,,,,,,,,,,,,,,,,,,,,,,,,,,,,,,,,,,,,,,,,,,,,,,,,,,,,,,,,,,,,,
0,44,44,42,1,,5d5ee4b5b3e1bf0001a46a7d,62bbfb4f7d44554892e31cac,2022-06-29_08h12.34.775,Colour_Asymmetry_Pilot,2022.1.3,Win32,60.08532116,62bbe60bf3d75ef465d3e404,,,,,,,,,,,,,,,,,,,,,,,,,,,,,,,,,,,,,,,,,,,,,,,,,,,,,,,,,,,,,,,,,,,,,,,,,,,,,,,,,,,,,,,,,,,,,,,,,,,,,,,,,,,,,,,,,,,,,,,,,,,,,,,,,,,,,,,,,,,,,,,,,,,,,,,,,,,,,,
0,45,45,28,1,,5d5ee4b5b3e1bf0001a46a7d,62bbfb4f7d44554892e31cac,2022-06-29_08h12.34.775,Colour_Asymmetry_Pilot,2022.1.3,Win32,60.08532116,62bbe60bf3d75ef465d3e404,,,,,,,,,,,,,,,,,,,,,,,,,,,,,,,,,,,,,,,,,,,,,,,,,,,,,,,,,,,,,,,,,,,,,,,,,,,,,,,,,,,,,,,,,,,,,,,,,,,,,,,,,,,,,,,,,,,,,,,,,,,,,,,,,,,,,,,,,,,,,,,,,,,,,,,,,,,,,,
0,46,46,32,1,,5d5ee4b5b3e1bf0001a46a7d,62bbfb4f7d44554892e31cac,2022-06-29_08h12.34.775,Colour_Asymmetry_Pilot,2022.1.3,Win32,60.08532116,62bbe60bf3d75ef465d3e404,,,,,,,,,,,,,,,,,,,,,,,,,,,,,,,,,,,,,,,,,,,,,,,,,,,,,,,,,,,,,,,,,,,,,,,,,,,,,,,,,,,,,,,,,,,,,,,,,,,,,,,,,,,,,,,,,,,,,,,,,,,,,,,,,,,,,,,,,,,,,,,,,,,,,,,,,,,,,,
0,47,47,53,1,,5d5ee4b5b3e1bf0001a46a7d,62bbfb4f7d44554892e31cac,2022-06-29_08h12.34.775,Colour_Asymmetry_Pilot,2022.1.3,Win32,60.08532116,62bbe60bf3d75ef465d3e404,,,,,,,,,,,,,,,,,,,,,,,,,,,,,,,,,,,,,,,,,,,,,,,,,,,,,,,,,,,,,,,,,,,,,,,,,,,,,,,,,,,,,,,,,,,,,,,,,,,,,,,,,,,,,,,,,,,,,,,,,,,,,,,,,,,,,,,,,,,,,,,,,,,,,,,,,,,,,,
0,48,48,63,1,,5d5ee4b5b3e1bf0001a46a7d,62bbfb4f7d44554892e31cac,2022-06-29_08h12.34.775,Colour_Asymmetry_Pilot,2022.1.3,Win32,60.08532116,62bbe60bf3d75ef465d3e404,,,,,,,,,,,,,,,,,,,,,,,,,,,,,,,,,,,,,,,,,,,,,,,,,,,,,,,,,,,,,,,,,,,,,,,,,,,,,,,,,,,,,,,,,,,,,,,,,,,,,,,,,,,,,,,,,,,,,,,,,,,,,,,,,,,,,,,,,,,,,,,,,,,,,,,,,,,,,,
0,49,49,65,1,,5d5ee4b5b3e1bf0001a46a7d,62bbfb4f7d44554892e31cac,2022-06-29_08h12.34.775,Colour_Asymmetry_Pilot,2022.1.3,Win32,60.08532116,62bbe60bf3d75ef465d3e404,,,,,,,,,,,,,,,,,,,,,,,,,,,,,,,,,,,,,,,,,,,,,,,,,,,,,,,,,,,,,,,,,,,,,,,,,,,,,,,,,,,,,,,,,,,,,,,,,,,,,,,,,,,,,,,,,,,,,,,,,,,,,,,,,,,,,,,,,,,,,,,,,,,,,,,,,,,,,,
0,50,50,0,1,,5d5ee4b5b3e1bf0001a46a7d,62bbfb4f7d44554892e31cac,2022-06-29_08h12.34.775,Colour_Asymmetry_Pilot,2022.1.3,Win32,60.08532116,62bbe60bf3d75ef465d3e404,,,,,,,,,,,,,,,,,,,,,,,,,,,,,,,,,,,,,,,,,,,,,,,,,,,,,,,,,,,,,,,,,,,,,,,,,,,,,,,,,,,,,,,,,,,,,,,,,,,,,,,,,,,,,,,,,,,,,,,,,,,,,,,,,,,,,,,,,,,,,,,,,,,,,,,,,,,,,,
0,51,51,2,1,,5d5ee4b5b3e1bf0001a46a7d,62bbfb4f7d44554892e31cac,2022-06-29_08h12.34.775,Colour_Asymmetry_Pilot,2022.1.3,Win32,60.08532116,62bbe60bf3d75ef465d3e404,,,,,,,,,,,,,,,,,,,,,,,,,,,,,,,,,,,,,,,,,,,,,,,,,,,,,,,,,,,,,,,,,,,,,,,,,,,,,,,,,,,,,,,,,,,,,,,,,,,,,,,,,,,,,,,,,,,,,,,,,,,,,,,,,,,,,,,,,,,,,,,,,,,,,,,,,,,,,,
0,52,52,69,1,,5d5ee4b5b3e1bf0001a46a7d,62bbfb4f7d44554892e31cac,2022-06-29_08h12.34.775,Colour_Asymmetry_Pilot,2022.1.3,Win32,60.08532116,62bbe60bf3d75ef465d3e404,,,,,,,,,,,,,,,,,,,,,,,,,,,,,,,,,,,,,,,,,,,,,,,,,,,,,,,,,,,,,,,,,,,,,,,,,,,,,,,,,,,,,,,,,,,,,,,,,,,,,,,,,,,,,,,,,,,,,,,,,,,,,,,,,,,,,,,,,,,,,,,,,,,,,,,,,,,,,,
0,53,53,31,1,,5d5ee4b5b3e1bf0001a46a7d,62bbfb4f7d44554892e31cac,2022-06-29_08h12.34.775,Colour_Asymmetry_Pilot,2022.1.3,Win32,60.08532116,62bbe60bf3d75ef465d3e404,,,,,,,,,,,,,,,,,,,,,,,,,,,,,,,,,,,,,,,,,,,,,,,,,,,,,,,,,,,,,,,,,,,,,,,,,,,,,,,,,,,,,,,,,,,,,,,,,,,,,,,,,,,,,,,,,,,,,,,,,,,,,,,,,,,,,,,,,,,,,,,,,,,,,,,,,,,,,,
0,54,54,71,1,,5d5ee4b5b3e1bf0001a46a7d,62bbfb4f7d44554892e31cac,2022-06-29_08h12.34.775,Colour_Asymmetry_Pilot,2022.1.3,Win32,60.08532116,62bbe60bf3d75ef465d3e404,,,,,,,,,,,,,,,,,,,,,,,,,,,,,,,,,,,,,,,,,,,,,,,,,,,,,,,,,,,,,,,,,,,,,,,,,,,,,,,,,,,,,,,,,,,,,,,,,,,,,,,,,,,,,,,,,,,,,,,,,,,,,,,,,,,,,,,,,,,,,,,,,,,,,,,,,,,,,,
0,55,55,47,1,,5d5ee4b5b3e1bf0001a46a7d,62bbfb4f7d44554892e31cac,2022-06-29_08h12.34.775,Colour_Asymmetry_Pilot,2022.1.3,Win32,60.08532116,62bbe60bf3d75ef465d3e404,,,,,,,,,,,,,,,,,,,,,,,,,,,,,,,,,,,,,,,,,,,,,,,,,,,,,,,,,,,,,,,,,,,,,,,,,,,,,,,,,,,,,,,,,,,,,,,,,,,,,,,,,,,,,,,,,,,,,,,,,,,,,,,,,,,,,,,,,,,,,,,,,,,,,,,,,,,,,,
0,56,56,84,1,,5d5ee4b5b3e1bf0001a46a7d,62bbfb4f7d44554892e31cac,2022-06-29_08h12.34.775,Colour_Asymmetry_Pilot,2022.1.3,Win32,60.08532116,62bbe60bf3d75ef465d3e404,,,,,,,,,,,,,,,,,,,,,,,,,,,,,,,,,,,,,,,,,,,,,,,,,,,,,,,,,,,,,,,,,,,,,,,,,,,,,,,,,,,,,,,,,,,,,,,,,,,,,,,,,,,,,,,,,,,,,,,,,,,,,,,,,,,,,,,,,,,,,,,,,,,,,,,,,,,,,,
0,57,57,24,1,,5d5ee4b5b3e1bf0001a46a7d,62bbfb4f7d44554892e31cac,2022-06-29_08h12.34.775,Colour_Asymmetry_Pilot,2022.1.3,Win32,60.08532116,62bbe60bf3d75ef465d3e404,,,,,,,,,,,,,,,,,,,,,,,,,,,,,,,,,,,,,,,,,,,,,,,,,,,,,,,,,,,,,,,,,,,,,,,,,,,,,,,,,,,,,,,,,,,,,,,,,,,,,,,,,,,,,,,,,,,,,,,,,,,,,,,,,,,,,,,,,,,,,,,,,,,,,,,,,,,,,,
0,58,58,16,1,,5d5ee4b5b3e1bf0001a46a7d,62bbfb4f7d44554892e31cac,2022-06-29_08h12.34.775,Colour_Asymmetry_Pilot,2022.1.3,Win32,60.08532116,62bbe60bf3d75ef465d3e404,,,,,,,,,,,,,,,,,,,,,,,,,,,,,,,,,,,,,,,,,,,,,,,,,,,,,,,,,,,,,,,,,,,,,,,,,,,,,,,,,,,,,,,,,,,,,,,,,,,,,,,,,,,,,,,,,,,,,,,,,,,,,,,,,,,,,,,,,,,,,,,,,,,,,,,,,,,,,,
0,59,59,66,1,,5d5ee4b5b3e1bf0001a46a7d,62bbfb4f7d44554892e31cac,2022-06-29_08h12.34.775,Colour_Asymmetry_Pilot,2022.1.3,Win32,60.08532116,62bbe60bf3d75ef465d3e404,,,,,,,,,,,,,,,,,,,,,,,,,,,,,,,,,,,,,,,,,,,,,,,,,,,,,,,,,,,,,,,,,,,,,,,,,,,,,,,,,,,,,,,,,,,,,,,,,,,,,,,,,,,,,,,,,,,,,,,,,,,,,,,,,,,,,,,,,,,,,,,,,,,,,,,,,,,,,,
0,60,60,10,1,,5d5ee4b5b3e1bf0001a46a7d,62bbfb4f7d44554892e31cac,2022-06-29_08h12.34.775,Colour_Asymmetry_Pilot,2022.1.3,Win32,60.08532116,62bbe60bf3d75ef465d3e404,,,,,,,,,,,,,,,,,,,,,,,,,,,,,,,,,,,,,,,,,,,,,,,,,,,,,,,,,,,,,,,,,,,,,,,,,,,,,,,,,,,,,,,,,,,,,,,,,,,,,,,,,,,,,,,,,,,,,,,,,,,,,,,,,,,,,,,,,,,,,,,,,,,,,,,,,,,,,,
0,61,61,44,1,,5d5ee4b5b3e1bf0001a46a7d,62bbfb4f7d44554892e31cac,2022-06-29_08h12.34.775,Colour_Asymmetry_Pilot,2022.1.3,Win32,60.08532116,62bbe60bf3d75ef465d3e404,,,,,,,,,,,,,,,,,,,,,,,,,,,,,,,,,,,,,,,,,,,,,,,,,,,,,,,,,,,,,,,,,,,,,,,,,,,,,,,,,,,,,,,,,,,,,,,,,,,,,,,,,,,,,,,,,,,,,,,,,,,,,,,,,,,,,,,,,,,,,,,,,,,,,,,,,,,,,,
0,62,62,14,1,,5d5ee4b5b3e1bf0001a46a7d,62bbfb4f7d44554892e31cac,2022-06-29_08h12.34.775,Colour_Asymmetry_Pilot,2022.1.3,Win32,60.08532116,62bbe60bf3d75ef465d3e404,,,,,,,,,,,,,,,,,,,,,,,,,,,,,,,,,,,,,,,,,,,,,,,,,,,,,,,,,,,,,,,,,,,,,,,,,,,,,,,,,,,,,,,,,,,,,,,,,,,,,,,,,,,,,,,,,,,,,,,,,,,,,,,,,,,,,,,,,,,,,,,,,,,,,,,,,,,,,,
0,63,63,27,1,,5d5ee4b5b3e1bf0001a46a7d,62bbfb4f7d44554892e31cac,2022-06-29_08h12.34.775,Colour_Asymmetry_Pilot,2022.1.3,Win32,60.08532116,62bbe60bf3d75ef465d3e404,,,,,,,,,,,,,,,,,,,,,,,,,,,,,,,,,,,,,,,,,,,,,,,,,,,,,,,,,,,,,,,,,,,,,,,,,,,,,,,,,,,,,,,,,,,,,,,,,,,,,,,,,,,,,,,,,,,,,,,,,,,,,,,,,,,,,,,,,,,,,,,,,,,,,,,,,,,,,,
0,64,64,75,1,,5d5ee4b5b3e1bf0001a46a7d,62bbfb4f7d44554892e31cac,2022-06-29_08h12.34.775,Colour_Asymmetry_Pilot,2022.1.3,Win32,60.08532116,62bbe60bf3d75ef465d3e404,,,,,,,,,,,,,,,,,,,,,,,,,,,,,,,,,,,,,,,,,,,,,,,,,,,,,,,,,,,,,,,,,,,,,,,,,,,,,,,,,,,,,,,,,,,,,,,,,,,,,,,,,,,,,,,,,,,,,,,,,,,,,,,,,,,,,,,,,,,,,,,,,,,,,,,,,,,,,,
0,65,65,88,1,,5d5ee4b5b3e1bf0001a46a7d,62bbfb4f7d44554892e31cac,2022-06-29_08h12.34.775,Colour_Asymmetry_Pilot,2022.1.3,Win32,60.08532116,62bbe60bf3d75ef465d3e404,,,,,,,,,,,,,,,,,,,,,,,,,,,,,,,,,,,,,,,,,,,,,,,,,,,,,,,,,,,,,,,,,,,,,,,,,,,,,,,,,,,,,,,,,,,,,,,,,,,,,,,,,,,,,,,,,,,,,,,,,,,,,,,,,,,,,,,,,,,,,,,,,,,,,,,,,,,,,,
0,66,66,18,1,,5d5ee4b5b3e1bf0001a46a7d,62bbfb4f7d44554892e31cac,2022-06-29_08h12.34.775,Colour_Asymmetry_Pilot,2022.1.3,Win32,60.08532116,62bbe60bf3d75ef465d3e404,,,,,,,,,,,,,,,,,,,,,,,,,,,,,,,,,,,,,,,,,,,,,,,,,,,,,,,,,,,,,,,,,,,,,,,,,,,,,,,,,,,,,,,,,,,,,,,,,,,,,,,,,,,,,,,,,,,,,,,,,,,,,,,,,,,,,,,,,,,,,,,,,,,,,,,,,,,,,,
0,67,67,50,1,,5d5ee4b5b3e1bf0001a46a7d,62bbfb4f7d44554892e31cac,2022-06-29_08h12.34.775,Colour_Asymmetry_Pilot,2022.1.3,Win32,60.08532116,62bbe60bf3d75ef465d3e404,,,,,,,,,,,,,,,,,,,,,,,,,,,,,,,,,,,,,,,,,,,,,,,,,,,,,,,,,,,,,,,,,,,,,,,,,,,,,,,,,,,,,,,,,,,,,,,,,,,,,,,,,,,,,,,,,,,,,,,,,,,,,,,,,,,,,,,,,,,,,,,,,,,,,,,,,,,,,,
0,68,68,77,1,,5d5ee4b5b3e1bf0001a46a7d,62bbfb4f7d44554892e31cac,2022-06-29_08h12.34.775,Colour_Asymmetry_Pilot,2022.1.3,Win32,60.08532116,62bbe60bf3d75ef465d3e404,,,,,,,,,,,,,,,,,,,,,,,,,,,,,,,,,,,,,,,,,,,,,,,,,,,,,,,,,,,,,,,,,,,,,,,,,,,,,,,,,,,,,,,,,,,,,,,,,,,,,,,,,,,,,,,,,,,,,,,,,,,,,,,,,,,,,,,,,,,,,,,,,,,,,,,,,,,,,,
0,69,69,20,1,,5d5ee4b5b3e1bf0001a46a7d,62bbfb4f7d44554892e31cac,2022-06-29_08h12.34.775,Colour_Asymmetry_Pilot,2022.1.3,Win32,60.08532116,62bbe60bf3d75ef465d3e404,,,,,,,,,,,,,,,,,,,,,,,,,,,,,,,,,,,,,,,,,,,,,,,,,,,,,,,,,,,,,,,,,,,,,,,,,,,,,,,,,,,,,,,,,,,,,,,,,,,,,,,,,,,,,,,,,,,,,,,,,,,,,,,,,,,,,,,,,,,,,,,,,,,,,,,,,,,,,,
0,70,70,45,1,,5d5ee4b5b3e1bf0001a46a7d,62bbfb4f7d44554892e31cac,2022-06-29_08h12.34.775,Colour_Asymmetry_Pilot,2022.1.3,Win32,60.08532116,62bbe60bf3d75ef465d3e404,,,,,,,,,,,,,,,,,,,,,,,,,,,,,,,,,,,,,,,,,,,,,,,,,,,,,,,,,,,,,,,,,,,,,,,,,,,,,,,,,,,,,,,,,,,,,,,,,,,,,,,,,,,,,,,,,,,,,,,,,,,,,,,,,,,,,,,,,,,,,,,,,,,,,,,,,,,,,,
0,71,71,49,1,,5d5ee4b5b3e1bf0001a46a7d,62bbfb4f7d44554892e31cac,2022-06-29_08h12.34.775,Colour_Asymmetry_Pilot,2022.1.3,Win32,60.08532116,62bbe60bf3d75ef465d3e404,,,,,,,,,,,,,,,,,,,,,,,,,,,,,,,,,,,,,,,,,,,,,,,,,,,,,,,,,,,,,,,,,,,,,,,,,,,,,,,,,,,,,,,,,,,,,,,,,,,,,,,,,,,,,,,,,,,,,,,,,,,,,,,,,,,,,,,,,,,,,,,,,,,,,,,,,,,,,,
0,72,72,87,1,,5d5ee4b5b3e1bf0001a46a7d,62bbfb4f7d44554892e31cac,2022-06-29_08h12.34.775,Colour_Asymmetry_Pilot,2022.1.3,Win32,60.08532116,62bbe60bf3d75ef465d3e404,,,,,,,,,,,,,,,,,,,,,,,,,,,,,,,,,,,,,,,,,,,,,,,,,,,,,,,,,,,,,,,,,,,,,,,,,,,,,,,,,,,,,,,,,,,,,,,,,,,,,,,,,,,,,,,,,,,,,,,,,,,,,,,,,,,,,,,,,,,,,,,,,,,,,,,,,,,,,,
0,73,73,91,1,,5d5ee4b5b3e1bf0001a46a7d,62bbfb4f7d44554892e31cac,2022-06-29_08h12.34.775,Colour_Asymmetry_Pilot,2022.1.3,Win32,60.08532116,62bbe60bf3d75ef465d3e404,,,,,,,,,,,,,,,,,,,,,,,,,,,,,,,,,,,,,,,,,,,,,,,,,,,,,,,,,,,,,,,,,,,,,,,,,,,,,,,,,,,,,,,,,,,,,,,,,,,,,,,,,,,,,,,,,,,,,,,,,,,,,,,,,,,,,,,,,,,,,,,,,,,,,,,,,,,,,,
0,74,74,58,1,,5d5ee4b5b3e1bf0001a46a7d,62bbfb4f7d44554892e31cac,2022-06-29_08h12.34.775,Colour_Asymmetry_Pilot,2022.1.3,Win32,60.08532116,62bbe60bf3d75ef465d3e404,,,,,,,,,,,,,,,,,,,,,,,,,,,,,,,,,,,,,,,,,,,,,,,,,,,,,,,,,,,,,,,,,,,,,,,,,,,,,,,,,,,,,,,,,,,,,,,,,,,,,,,,,,,,,,,,,,,,,,,,,,,,,,,,,,,,,,,,,,,,,,,,,,,,,,,,,,,,,,
0,75,75,74,1,,5d5ee4b5b3e1bf0001a46a7d,62bbfb4f7d44554892e31cac,2022-06-29_08h12.34.775,Colour_Asymmetry_Pilot,2022.1.3,Win32,60.08532116,62bbe60bf3d75ef465d3e404,,,,,,,,,,,,,,,,,,,,,,,,,,,,,,,,,,,,,,,,,,,,,,,,,,,,,,,,,,,,,,,,,,,,,,,,,,,,,,,,,,,,,,,,,,,,,,,,,,,,,,,,,,,,,,,,,,,,,,,,,,,,,,,,,,,,,,,,,,,,,,,,,,,,,,,,,,,,,,
0,76,76,41,1,,5d5ee4b5b3e1bf0001a46a7d,62bbfb4f7d44554892e31cac,2022-06-29_08h12.34.775,Colour_Asymmetry_Pilot,2022.1.3,Win32,60.08532116,62bbe60bf3d75ef465d3e404,,,,,,,,,,,,,,,,,,,,,,,,,,,,,,,,,,,,,,,,,,,,,,,,,,,,,,,,,,,,,,,,,,,,,,,,,,,,,,,,,,,,,,,,,,,,,,,,,,,,,,,,,,,,,,,,,,,,,,,,,,,,,,,,,,,,,,,,,,,,,,,,,,,,,,,,,,,,,,
0,77,77,30,1,,5d5ee4b5b3e1bf0001a46a7d,62bbfb4f7d44554892e31cac,2022-06-29_08h12.34.775,Colour_Asymmetry_Pilot,2022.1.3,Win32,60.08532116,62bbe60bf3d75ef465d3e404,,,,,,,,,,,,,,,,,,,,,,,,,,,,,,,,,,,,,,,,,,,,,,,,,,,,,,,,,,,,,,,,,,,,,,,,,,,,,,,,,,,,,,,,,,,,,,,,,,,,,,,,,,,,,,,,,,,,,,,,,,,,,,,,,,,,,,,,,,,,,,,,,,,,,,,,,,,,,,
0,78,78,55,1,,5d5ee4b5b3e1bf0001a46a7d,62bbfb4f7d44554892e31cac,2022-06-29_08h12.34.775,Colour_Asymmetry_Pilot,2022.1.3,Win32,60.08532116,62bbe60bf3d75ef465d3e404,,,,,,,,,,,,,,,,,,,,,,,,,,,,,,,,,,,,,,,,,,,,,,,,,,,,,,,,,,,,,,,,,,,,,,,,,,,,,,,,,,,,,,,,,,,,,,,,,,,,,,,,,,,,,,,,,,,,,,,,,,,,,,,,,,,,,,,,,,,,,,,,,,,,,,,,,,,,,,
0,79,79,72,1,,5d5ee4b5b3e1bf0001a46a7d,62bbfb4f7d44554892e31cac,2022-06-29_08h12.34.775,Colour_Asymmetry_Pilot,2022.1.3,Win32,60.08532116,62bbe60bf3d75ef465d3e404,,,,,,,,,,,,,,,,,,,,,,,,,,,,,,,,,,,,,,,,,,,,,,,,,,,,,,,,,,,,,,,,,,,,,,,,,,,,,,,,,,,,,,,,,,,,,,,,,,,,,,,,,,,,,,,,,,,,,,,,,,,,,,,,,,,,,,,,,,,,,,,,,,,,,,,,,,,,,,
0,80,80,15,1,,5d5ee4b5b3e1bf0001a46a7d,62bbfb4f7d44554892e31cac,2022-06-29_08h12.34.775,Colour_Asymmetry_Pilot,2022.1.3,Win32,60.08532116,62bbe60bf3d75ef465d3e404,,,,,,,,,,,,,,,,,,,,,,,,,,,,,,,,,,,,,,,,,,,,,,,,,,,,,,,,,,,,,,,,,,,,,,,,,,,,,,,,,,,,,,,,,,,,,,,,,,,,,,,,,,,,,,,,,,,,,,,,,,,,,,,,,,,,,,,,,,,,,,,,,,,,,,,,,,,,,,
0,81,81,67,1,,5d5ee4b5b3e1bf0001a46a7d,62bbfb4f7d44554892e31cac,2022-06-29_08h12.34.775,Colour_Asymmetry_Pilot,2022.1.3,Win32,60.08532116,62bbe60bf3d75ef465d3e404,,,,,,,,,,,,,,,,,,,,,,,,,,,,,,,,,,,,,,,,,,,,,,,,,,,,,,,,,,,,,,,,,,,,,,,,,,,,,,,,,,,,,,,,,,,,,,,,,,,,,,,,,,,,,,,,,,,,,,,,,,,,,,,,,,,,,,,,,,,,,,,,,,,,,,,,,,,,,,
0,82,82,3,1,,5d5ee4b5b3e1bf0001a46a7d,62bbfb4f7d44554892e31cac,2022-06-29_08h12.34.775,Colour_Asymmetry_Pilot,2022.1.3,Win32,60.08532116,62bbe60bf3d75ef465d3e404,,,,,,,,,,,,,,,,,,,,,,,,,,,,,,,,,,,,,,,,,,,,,,,,,,,,,,,,,,,,,,,,,,,,,,,,,,,,,,,,,,,,,,,,,,,,,,,,,,,,,,,,,,,,,,,,,,,,,,,,,,,,,,,,,,,,,,,,,,,,,,,,,,,,,,,,,,,,,,
0,83,83,25,1,,5d5ee4b5b3e1bf0001a46a7d,62bbfb4f7d44554892e31cac,2022-06-29_08h12.34.775,Colour_Asymmetry_Pilot,2022.1.3,Win32,60.08532116,62bbe60bf3d75ef465d3e404,,,,,,,,,,,,,,,,,,,,,,,,,,,,,,,,,,,,,,,,,,,,,,,,,,,,,,,,,,,,,,,,,,,,,,,,,,,,,,,,,,,,,,,,,,,,,,,,,,,,,,,,,,,,,,,,,,,,,,,,,,,,,,,,,,,,,,,,,,,,,,,,,,,,,,,,,,,,,,
0,84,84,83,1,,5d5ee4b5b3e1bf0001a46a7d,62bbfb4f7d44554892e31cac,2022-06-29_08h12.34.775,Colour_Asymmetry_Pilot,2022.1.3,Win32,60.08532116,62bbe60bf3d75ef465d3e404,,,,,,,,,,,,,,,,,,,,,,,,,,,,,,,,,,,,,,,,,,,,,,,,,,,,,,,,,,,,,,,,,,,,,,,,,,,,,,,,,,,,,,,,,,,,,,,,,,,,,,,,,,,,,,,,,,,,,,,,,,,,,,,,,,,,,,,,,,,,,,,,,,,,,,,,,,,,,,
0,85,85,51,1,,5d5ee4b5b3e1bf0001a46a7d,62bbfb4f7d44554892e31cac,2022-06-29_08h12.34.775,Colour_Asymmetry_Pilot,2022.1.3,Win32,60.08532116,62bbe60bf3d75ef465d3e404,,,,,,,,,,,,,,,,,,,,,,,,,,,,,,,,,,,,,,,,,,,,,,,,,,,,,,,,,,,,,,,,,,,,,,,,,,,,,,,,,,,,,,,,,,,,,,,,,,,,,,,,,,,,,,,,,,,,,,,,,,,,,,,,,,,,,,,,,,,,,,,,,,,,,,,,,,,,,,
0,86,86,29,1,,5d5ee4b5b3e1bf0001a46a7d,62bbfb4f7d44554892e31cac,2022-06-29_08h12.34.775,Colour_Asymmetry_Pilot,2022.1.3,Win32,60.08532116,62bbe60bf3d75ef465d3e404,,,,,,,,,,,,,,,,,,,,,,,,,,,,,,,,,,,,,,,,,,,,,,,,,,,,,,,,,,,,,,,,,,,,,,,,,,,,,,,,,,,,,,,,,,,,,,,,,,,,,,,,,,,,,,,,,,,,,,,,,,,,,,,,,,,,,,,,,,,,,,,,,,,,,,,,,,,,,,
0,87,87,36,1,,5d5ee4b5b3e1bf0001a46a7d,62bbfb4f7d44554892e31cac,2022-06-29_08h12.34.775,Colour_Asymmetry_Pilot,2022.1.3,Win32,60.08532116,62bbe60bf3d75ef465d3e404,,,,,,,,,,,,,,,,,,,,,,,,,,,,,,,,,,,,,,,,,,,,,,,,,,,,,,,,,,,,,,,,,,,,,,,,,,,,,,,,,,,,,,,,,,,,,,,,,,,,,,,,,,,,,,,,,,,,,,,,,,,,,,,,,,,,,,,,,,,,,,,,,,,,,,,,,,,,,,
0,88,88,23,1,,5d5ee4b5b3e1bf0001a46a7d,62bbfb4f7d44554892e31cac,2022-06-29_08h12.34.775,Colour_Asymmetry_Pilot,2022.1.3,Win32,60.08532116,62bbe60bf3d75ef465d3e404,,,,,,,,,,,,,,,,,,,,,,,,,,,,,,,,,,,,,,,,,,,,,,,,,,,,,,,,,,,,,,,,,,,,,,,,,,,,,,,,,,,,,,,,,,,,,,,,,,,,,,,,,,,,,,,,,,,,,,,,,,,,,,,,,,,,,,,,,,,,,,,,,,,,,,,,,,,,,,
0,89,89,52,1,,5d5ee4b5b3e1bf0001a46a7d,62bbfb4f7d44554892e31cac,2022-06-29_08h12.34.775,Colour_Asymmetry_Pilot,2022.1.3,Win32,60.08532116,62bbe60bf3d75ef465d3e404,,,,,,,,,,,,,,,,,,,,,,,,,,,,,,,,,,,,,,,,,,,,,,,,,,,,,,,,,,,,,,,,,,,,,,,,,,,,,,,,,,,,,,,,,,,,,,,,,,,,,,,,,,,,,,,,,,,,,,,,,,,,,,,,,,,,,,,,,,,,,,,,,,,,,,,,,,,,,,
0,90,90,1,1,,5d5ee4b5b3e1bf0001a46a7d,62bbfb4f7d44554892e31cac,2022-06-29_08h12.34.775,Colour_Asymmetry_Pilot,2022.1.3,Win32,60.08532116,62bbe60bf3d75ef465d3e404,,,,,,,,,,,,,,,,,,,,,,,,,,,,,,,,,,,,,,,,,,,,,,,,,,,,,,,,,,,,,,,,,,,,,,,,,,,,,,,,,,,,,,,,,,,,,,,,,,,,,,,,,,,,,,,,,,,,,,,,,,,,,,,,,,,,,,,,,,,,,,,,,,,,,,,,,,,,,,
0,91,91,78,1,,5d5ee4b5b3e1bf0001a46a7d,62bbfb4f7d44554892e31cac,2022-06-29_08h12.34.775,Colour_Asymmetry_Pilot,2022.1.3,Win32,60.08532116,62bbe60bf3d75ef465d3e404,,,,,,,,,,,,,,,,,,,,,,,,,,,,,,,,,,,,,,,,,,,,,,,,,,,,,,,,,,,,,,,,,,,,,,,,,,,,,,,,,,,,,,,,,,,,,,,,,,,,,,,,,,,,,,,,,,,,,,,,,,,,,,,,,,,,,,,,,,,,,,,,,,,,,,,,,,,,,,
0,92,92,79,1,,5d5ee4b5b3e1bf0001a46a7d,62bbfb4f7d44554892e31cac,2022-06-29_08h12.34.775,Colour_Asymmetry_Pilot,2022.1.3,Win32,60.08532116,62bbe60bf3d75ef465d3e404,,,,,,,,,,,,,,,,,,,,,,,,,,,,,,,,,,,,,,,,,,,,,,,,,,,,,,,,,,,,,,,,,,,,,,,,,,,,,,,,,,,,,,,,,,,,,,,,,,,,,,,,,,,,,,,,,,,,,,,,,,,,,,,,,,,,,,,,,,,,,,,,,,,,,,,,,,,,,,
,,,,,,5d5ee4b5b3e1bf0001a46a7d,62bbfb4f7d44554892e31cac,2022-06-29_08h12.34.775,Colour_Asymmetry_Pilot,2022.1.3,Win32,60.08532116,62bbe60bf3d75ef465d3e404,0,0,0,142,1,fourtwo,,,,,,,,,,,,,,,,,,,,,,,,,,,,,,,,,,,,,,,,,,,,,,,,,,,,,,,,,,,,,,,,,,,,,,,,,,,,,,,,,,,,,,,,,,,,,,,,,,,,,,,,,,,,,,,,,,,,,,,,,,,,,,,,,,,,,,,,,,,,,,,,,,,,,,,,
,,,,,,5d5ee4b5b3e1bf0001a46a7d,62bbfb4f7d44554892e31cac,2022-06-29_08h12.34.775,Colour_Asymmetry_Pilot,2022.1.3,Win32,60.08532116,62bbe60bf3d75ef465d3e404,0,1,1,57,1,onethree,,,,,,,,,,,,,,,,,,,,,,,,,,,,,,,,,,,,,,,,,,,,,,,,,,,,,,,,,,,,,,,,,,,,,,,,,,,,,,,,,,,,,,,,,,,,,,,,,,,,,,,,,,,,,,,,,,,,,,,,,,,,,,,,,,,,,,,,,,,,,,,,,,,,,,,,
,,,,,,5d5ee4b5b3e1bf0001a46a7d,62bbfb4f7d44554892e31cac,2022-06-29_08h12.34.775,Colour_Asymmetry_Pilot,2022.1.3,Win32,60.08532116,62bbe60bf3d75ef465d3e404,0,2,2,31,1,fourthree,,,,,,,,,,,,,,,,,,,,,,,,,,,,,,,,,,,,,,,,,,,,,,,,,,,,,,,,,,,,,,,,,,,,,,,,,,,,,,,,,,,,,,,,,,,,,,,,,,,,,,,,,,,,,,,,,,,,,,,,,,,,,,,,,,,,,,,,,,,,,,,,,,,,,,,,
,,,,,,5d5ee4b5b3e1bf0001a46a7d,62bbfb4f7d44554892e31cac,2022-06-29_08h12.34.775,Colour_Asymmetry_Pilot,2022.1.3,Win32,60.08532116,62bbe60bf3d75ef465d3e404,0,3,3,7,1,fourthree,,,,,,,,,,,,,,,,,,,,,,,,,,,,,,,,,,,,,,,,,,,,,,,,,,,,,,,,,,,,,,,,,,,,,,,,,,,,,,,,,,,,,,,,,,,,,,,,,,,,,,,,,,,,,,,,,,,,,,,,,,,,,,,,,,,,,,,,,,,,,,,,,,,,,,,,
,,,,,,5d5ee4b5b3e1bf0001a46a7d,62bbfb4f7d44554892e31cac,2022-06-29_08h12.34.775,Colour_Asymmetry_Pilot,2022.1.3,Win32,60.08532116,62bbe60bf3d75ef465d3e404,0,4,4,138,1,twoone,,,,,,,,,,,,,,,,,,,,,,,,,,,,,,,,,,,,,,,,,,,,,,,,,,,,,,,,,,,,,,,,,,,,,,,,,,,,,,,,,,,,,,,,,,,,,,,,,,,,,,,,,,,,,,,,,,,,,,,,,,,,,,,,,,,,,,,,,,,,,,,,,,,,,,,,
,,,,,,5d5ee4b5b3e1bf0001a46a7d,62bbfb4f7d44554892e31cac,2022-06-29_08h12.34.775,Colour_Asymmetry_Pilot,2022.1.3,Win32,60.08532116,62bbe60bf3d75ef465d3e404,0,5,5,28,1,threeone,,,,,,,,,,,,,,,,,,,,,,,,,,,,,,,,,,,,,,,,,,,,,,,,,,,,,,,,,,,,,,,,,,,,,,,,,,,,,,,,,,,,,,,,,,,,,,,,,,,,,,,,,,,,,,,,,,,,,,,,,,,,,,,,,,,,,,,,,,,,,,,,,,,,,,,,
,,,,,,5d5ee4b5b3e1bf0001a46a7d,62bbfb4f7d44554892e31cac,2022-06-29_08h12.34.775,Colour_Asymmetry_Pilot,2022.1.3,Win32,60.08532116,62bbe60bf3d75ef465d3e404,0,6,6,5,1,threefour,,,,,,,,,,,,,,,,,,,,,,,,,,,,,,,,,,,,,,,,,,,,,,,,,,,,,,,,,,,,,,,,,,,,,,,,,,,,,,,,,,,,,,,,,,,,,,,,,,,,,,,,,,,,,,,,,,,,,,,,,,,,,,,,,,,,,,,,,,,,,,,,,,,,,,,,
,,,,,,5d5ee4b5b3e1bf0001a46a7d,62bbfb4f7d44554892e31cac,2022-06-29_08h12.34.775,Colour_Asymmetry_Pilot,2022.1.3,Win32,60.08532116,62bbe60bf3d75ef465d3e404,0,7,7,113,1,onethree,,,,,,,,,,,,,,,,,,,,,,,,,,,,,,,,,,,,,,,,,,,,,,,,,,,,,,,,,,,,,,,,,,,,,,,,,,,,,,,,,,,,,,,,,,,,,,,,,,,,,,,,,,,,,,,,,,,,,,,,,,,,,,,,,,,,,,,,,,,,,,,,,,,,,,,,
,,,,,,5d5ee4b5b3e1bf0001a46a7d,62bbfb4f7d44554892e31cac,2022-06-29_08h12.34.775,Colour_Asymmetry_Pilot,2022.1.3,Win32,60.08532116,62bbe60bf3d75ef465d3e404,0,8,8,82,1,twoone,,,,,,,,,,,,,,,,,,,,,,,,,,,,,,,,,,,,,,,,,,,,,,,,,,,,,,,,,,,,,,,,,,,,,,,,,,,,,,,,,,,,,,,,,,,,,,,,,,,,,,,,,,,,,,,,,,,,,,,,,,,,,,,,,,,,,,,,,,,,,,,,,,,,,,,,
,,,,,,5d5ee4b5b3e1bf0001a46a7d,62bbfb4f7d44554892e31cac,2022-06-29_08h12.34.775,Colour_Asymmetry_Pilot,2022.1.3,Win32,60.08532116,62bbe60bf3d75ef465d3e404,0,9,9,137,1,onethree,,,,,,,,,,,,,,,,,,,,,,,,,,,,,,,,,,,,,,,,,,,,,,,,,,,,,,,,,,,,,,,,,,,,,,,,,,,,,,,,,,,,,,,,,,,,,,,,,,,,,,,,,,,,,,,,,,,,,,,,,,,,,,,,,,,,,,,,,,,,,,,,,,,,,,,,
,,,,,,5d5ee4b5b3e1bf0001a46a7d,62bbfb4f7d44554892e31cac,2022-06-29_08h12.34.775,Colour_Asymmetry_Pilot,2022.1.3,Win32,60.08532116,62bbe60bf3d75ef465d3e404,0,10,10,34,1,twoone,,,,,,,,,,,,,,,,,,,,,,,,,,,,,,,,,,,,,,,,,,,,,,,,,,,,,,,,,,,,,,,,,,,,,,,,,,,,,,,,,,,,,,,,,,,,,,,,,,,,,,,,,,,,,,,,,,,,,,,,,,,,,,,,,,,,,,,,,,,,,,,,,,,,,,,,
,,,,,,5d5ee4b5b3e1bf0001a46a7d,62bbfb4f7d44554892e31cac,2022-06-29_08h12.34.775,Colour_Asymmetry_Pilot,2022.1.3,Win32,60.08532116,62bbe60bf3d75ef465d3e404,0,11,11,10,1,twoone,,,,,,,,,,,,,,,,,,,,,,,,,,,,,,,,,,,,,,,,,,,,,,,,,,,,,,,,,,,,,,,,,,,,,,,,,,,,,,,,,,,,,,,,,,,,,,,,,,,,,,,,,,,,,,,,,,,,,,,,,,,,,,,,,,,,,,,,,,,,,,,,,,,,,,,,
,,,,,,5d5ee4b5b3e1bf0001a46a7d,62bbfb4f7d44554892e31cac,2022-06-29_08h12.34.775,Colour_Asymmetry_Pilot,2022.1.3,Win32,60.08532116,62bbe60bf3d75ef465d3e404,0,12,12,134,1,fourtwo,,,,,,,,,,,,,,,,,,,,,,,,,,,,,,,,,,,,,,,,,,,,,,,,,,,,,,,,,,,,,,,,,,,,,,,,,,,,,,,,,,,,,,,,,,,,,,,,,,,,,,,,,,,,,,,,,,,,,,,,,,,,,,,,,,,,,,,,,,,,,,,,,,,,,,,,
,,,,,,5d5ee4b5b3e1bf0001a46a7d,62bbfb4f7d44554892e31cac,2022-06-29_08h12.34.775,Colour_Asymmetry_Pilot,2022.1.3,Win32,60.08532116,62bbe60bf3d75ef465d3e404,0,13,13,41,1,onethree,,,,,,,,,,,,,,,,,,,,,,,,,,,,,,,,,,,,,,,,,,,,,,,,,,,,,,,,,,,,,,,,,,,,,,,,,,,,,,,,,,,,,,,,,,,,,,,,,,,,,,,,,,,,,,,,,,,,,,,,,,,,,,,,,,,,,,,,,,,,,,,,,,,,,,,,
,,,,,,5d5ee4b5b3e1bf0001a46a7d,62bbfb4f7d44554892e31cac,2022-06-29_08h12.34.775,Colour_Asymmetry_Pilot,2022.1.3,Win32,60.08532116,62bbe60bf3d75ef465d3e404,0,14,14,116,1,threeone,,,,,,,,,,,,,,,,,,,,,,,,,,,,,,,,,,,,,,,,,,,,,,,,,,,,,,,,,,,,,,,,,,,,,,,,,,,,,,,,,,,,,,,,,,,,,,,,,,,,,,,,,,,,,,,,,,,,,,,,,,,,,,,,,,,,,,,,,,,,,,,,,,,,,,,,
,,,,,,5d5ee4b5b3e1bf0001a46a7d,62bbfb4f7d44554892e31cac,2022-06-29_08h12.34.775,Colour_Asymmetry_Pilot,2022.1.3,Win32,60.08532116,62bbe60bf3d75ef465d3e404,0,15,15,39,1,fourthree,,,,,,,,,,,,,,,,,,,,,,,,,,,,,,,,,,,,,,,,,,,,,,,,,,,,,,,,,,,,,,,,,,,,,,,,,,,,,,,,,,,,,,,,,,,,,,,,,,,,,,,,,,,,,,,,,,,,,,,,,,,,,,,,,,,,,,,,,,,,,,,,,,,,,,,,
,,,,,,5d5ee4b5b3e1bf0001a46a7d,62bbfb4f7d44554892e31cac,2022-06-29_08h12.34.775,Colour_Asymmetry_Pilot,2022.1.3,Win32,60.08532116,62bbe60bf3d75ef465d3e404,0,16,16,95,1,fourthree,,,,,,,,,,,,,,,,,,,,,,,,,,,,,,,,,,,,,,,,,,,,,,,,,,,,,,,,,,,,,,,,,,,,,,,,,,,,,,,,,,,,,,,,,,,,,,,,,,,,,,,,,,,,,,,,,,,,,,,,,,,,,,,,,,,,,,,,,,,,,,,,,,,,,,,,
,,,,,,5d5ee4b5b3e1bf0001a46a7d,62bbfb4f7d44554892e31cac,2022-06-29_08h12.34.775,Colour_Asymmetry_Pilot,2022.1.3,Win32,60.08532116,62bbe60bf3d75ef465d3e404,0,17,17,48,1,onetwo,,,,,,,,,,,,,,,,,,,,,,,,,,,,,,,,,,,,,,,,,,,,,,,,,,,,,,,,,,,,,,,,,,,,,,,,,,,,,,,,,,,,,,,,,,,,,,,,,,,,,,,,,,,,,,,,,,,,,,,,,,,,,,,,,,,,,,,,,,,,,,,,,,,,,,,,
,,,,,,5d5ee4b5b3e1bf0001a46a7d,62bbfb4f7d44554892e31cac,2022-06-29_08h12.34.775,Colour_Asymmetry_Pilot,2022.1.3,Win32,60.08532116,62bbe60bf3d75ef465d3e404,0,18,18,91,1,twofour,,,,,,,,,,,,,,,,,,,,,,,,,,,,,,,,,,,,,,,,,,,,,,,,,,,,,,,,,,,,,,,,,,,,,,,,,,,,,,,,,,,,,,,,,,,,,,,,,,,,,,,,,,,,,,,,,,,,,,,,,,,,,,,,,,,,,,,,,,,,,,,,,,,,,,,,
,,,,,,5d5ee4b5b3e1bf0001a46a7d,62bbfb4f7d44554892e31cac,2022-06-29_08h12.34.775,Colour_Asymmetry_Pilot,2022.1.3,Win32,60.08532116,62bbe60bf3d75ef465d3e404,0,19,19,150,1,fourtwo,,,,,,,,,,,,,,,,,,,,,,,,,,,,,,,,,,,,,,,,,,,,,,,,,,,,,,,,,,,,,,,,,,,,,,,,,,,,,,,,,,,,,,,,,,,,,,,,,,,,,,,,,,,,,,,,,,,,,,,,,,,,,,,,,,,,,,,,,,,,,,,,,,,,,,,,
,,,,,,5d5ee4b5b3e1bf0001a46a7d,62bbfb4f7d44554892e31cac,2022-06-29_08h12.34.775,Colour_Asymmetry_Pilot,2022.1.3,Win32,60.08532116,62bbe60bf3d75ef465d3e404,0,20,20,148,1,threeone,,,,,,,,,,,,,,,,,,,,,,,,,,,,,,,,,,,,,,,,,,,,,,,,,,,,,,,,,,,,,,,,,,,,,,,,,,,,,,,,,,,,,,,,,,,,,,,,,,,,,,,,,,,,,,,,,,,,,,,,,,,,,,,,,,,,,,,,,,,,,,,,,,,,,,,,
,,,,,,5d5ee4b5b3e1bf0001a46a7d,62bbfb4f7d44554892e31cac,2022-06-29_08h12.34.775,Colour_Asymmetry_Pilot,2022.1.3,Win32,60.08532116,62bbe60bf3d75ef465d3e404,0,21,21,106,1,twoone,,,,,,,,,,,,,,,,,,,,,,,,,,,,,,,,,,,,,,,,,,,,,,,,,,,,,,,,,,,,,,,,,,,,,,,,,,,,,,,,,,,,,,,,,,,,,,,,,,,,,,,,,,,,,,,,,,,,,,,,,,,,,,,,,,,,,,,,,,,,,,,,,,,,,,,,
,,,,,,5d5ee4b5b3e1bf0001a46a7d,62bbfb4f7d44554892e31cac,2022-06-29_08h12.34.775,Colour_Asymmetry_Pilot,2022.1.3,Win32,60.08532116,62bbe60bf3d75ef465d3e404,0,22,22,81,1,onethree,,,,,,,,,,,,,,,,,,,,,,,,,,,,,,,,,,,,,,,,,,,,,,,,,,,,,,,,,,,,,,,,,,,,,,,,,,,,,,,,,,,,,,,,,,,,,,,,,,,,,,,,,,,,,,,,,,,,,,,,,,,,,,,,,,,,,,,,,,,,,,,,,,,,,,,,
,,,,,,5d5ee4b5b3e1bf0001a46a7d,62bbfb4f7d44554892e31cac,2022-06-29_08h12.34.775,Colour_Asymmetry_Pilot,2022.1.3,Win32,60.08532116,62bbe60bf3d75ef465d3e404,0,23,23,161,1,onethree,,,,,,,,,,,,,,,,,,,,,,,,,,,,,,,,,,,,,,,,,,,,,,,,,,,,,,,,,,,,,,,,,,,,,,,,,,,,,,,,,,,,,,,,,,,,,,,,,,,,,,,,,,,,,,,,,,,,,,,,,,,,,,,,,,,,,,,,,,,,,,,,,,,,,,,,
,,,,,,5d5ee4b5b3e1bf0001a46a7d,62bbfb4f7d44554892e31cac,2022-06-29_08h12.34.775,Colour_Asymmetry_Pilot,2022.1.3,Win32,60.08532116,62bbe60bf3d75ef465d3e404,0,24,24,69,1,threefour,,,,,,,,,,,,,,,,,,,,,,,,,,,,,,,,,,,,,,,,,,,,,,,,,,,,,,,,,,,,,,,,,,,,,,,,,,,,,,,,,,,,,,,,,,,,,,,,,,,,,,,,,,,,,,,,,,,,,,,,,,,,,,,,,,,,,,,,,,,,,,,,,,,,,,,,
,,,,,,5d5ee4b5b3e1bf0001a46a7d,62bbfb4f7d44554892e31cac,2022-06-29_08h12.34.775,Colour_Asymmetry_Pilot,2022.1.3,Win32,60.08532116,62bbe60bf3d75ef465d3e404,0,25,25,149,1,threefour,,,,,,,,,,,,,,,,,,,,,,,,,,,,,,,,,,,,,,,,,,,,,,,,,,,,,,,,,,,,,,,,,,,,,,,,,,,,,,,,,,,,,,,,,,,,,,,,,,,,,,,,,,,,,,,,,,,,,,,,,,,,,,,,,,,,,,,,,,,,,,,,,,,,,,,,
,,,,,,5d5ee4b5b3e1bf0001a46a7d,62bbfb4f7d44554892e31cac,2022-06-29_08h12.34.775,Colour_Asymmetry_Pilot,2022.1.3,Win32,60.08532116,62bbe60bf3d75ef465d3e404,0,26,26,98,1,twoone,,,,,,,,,,,,,,,,,,,,,,,,,,,,,,,,,,,,,,,,,,,,,,,,,,,,,,,,,,,,,,,,,,,,,,,,,,,,,,,,,,,,,,,,,,,,,,,,,,,,,,,,,,,,,,,,,,,,,,,,,,,,,,,,,,,,,,,,,,,,,,,,,,,,,,,,
,,,,,,5d5ee4b5b3e1bf0001a46a7d,62bbfb4f7d44554892e31cac,2022-06-29_08h12.34.775,Colour_Asymmetry_Pilot,2022.1.3,Win32,60.08532116,62bbe60bf3d75ef465d3e404,0,27,27,6,1,fourtwo,,,,,,,,,,,,,,,,,,,,,,,,,,,,,,,,,,,,,,,,,,,,,,,,,,,,,,,,,,,,,,,,,,,,,,,,,,,,,,,,,,,,,,,,,,,,,,,,,,,,,,,,,,,,,,,,,,,,,,,,,,,,,,,,,,,,,,,,,,,,,,,,,,,,,,,,
,,,,,,5d5ee4b5b3e1bf0001a46a7d,62bbfb4f7d44554892e31cac,2022-06-29_08h12.34.775,Colour_Asymmetry_Pilot,2022.1.3,Win32,60.08532116,62bbe60bf3d75ef465d3e404,0,28,28,36,1,threeone,,,,,,,,,,,,,,,,,,,,,,,,,,,,,,,,,,,,,,,,,,,,,,,,,,,,,,,,,,,,,,,,,,,,,,,,,,,,,,,,,,,,,,,,,,,,,,,,,,,,,,,,,,,,,,,,,,,,,,,,,,,,,,,,,,,,,,,,,,,,,,,,,,,,,,,,
,,,,,,5d5ee4b5b3e1bf0001a46a7d,62bbfb4f7d44554892e31cac,2022-06-29_08h12.34.775,Colour_Asymmetry_Pilot,2022.1.3,Win32,60.08532116,62bbe60bf3d75ef465d3e404,0,29,29,49,1,onethree,,,,,,,,,,,,,,,,,,,,,,,,,,,,,,,,,,,,,,,,,,,,,,,,,,,,,,,,,,,,,,,,,,,,,,,,,,,,,,,,,,,,,,,,,,,,,,,,,,,,,,,,,,,,,,,,,,,,,,,,,,,,,,,,,,,,,,,,,,,,,,,,,,,,,,,,
,,,,,,5d5ee4b5b3e1bf0001a46a7d,62bbfb4f7d44554892e31cac,2022-06-29_08h12.34.775,Colour_Asymmetry_Pilot,2022.1.3,Win32,60.08532116,62bbe60bf3d75ef465d3e404,0,30,30,43,1,twofour,,,,,,,,,,,,,,,,,,,,,,,,,,,,,,,,,,,,,,,,,,,,,,,,,,,,,,,,,,,,,,,,,,,,,,,,,,,,,,,,,,,,,,,,,,,,,,,,,,,,,,,,,,,,,,,,,,,,,,,,,,,,,,,,,,,,,,,,,,,,,,,,,,,,,,,,
,,,,,,5d5ee4b5b3e1bf0001a46a7d,62bbfb4f7d44554892e31cac,2022-06-29_08h12.34.775,Colour_Asymmetry_Pilot,2022.1.3,Win32,60.08532116,62bbe60bf3d75ef465d3e404,0,31,31,139,1,twofour,,,,,,,,,,,,,,,,,,,,,,,,,,,,,,,,,,,,,,,,,,,,,,,,,,,,,,,,,,,,,,,,,,,,,,,,,,,,,,,,,,,,,,,,,,,,,,,,,,,,,,,,,,,,,,,,,,,,,,,,,,,,,,,,,,,,,,,,,,,,,,,,,,,,,,,,
,,,,,,5d5ee4b5b3e1bf0001a46a7d,62bbfb4f7d44554892e31cac,2022-06-29_08h12.34.775,Colour_Asymmetry_Pilot,2022.1.3,Win32,60.08532116,62bbe60bf3d75ef465d3e404,0,32,32,51,1,twofour,,,,,,,,,,,,,,,,,,,,,,,,,,,,,,,,,,,,,,,,,,,,,,,,,,,,,,,,,,,,,,,,,,,,,,,,,,,,,,,,,,,,,,,,,,,,,,,,,,,,,,,,,,,,,,,,,,,,,,,,,,,,,,,,,,,,,,,,,,,,,,,,,,,,,,,,
,,,,,,5d5ee4b5b3e1bf0001a46a7d,62bbfb4f7d44554892e31cac,2022-06-29_08h12.34.775,Colour_Asymmetry_Pilot,2022.1.3,Win32,60.08532116,62bbe60bf3d75ef465d3e404,0,33,33,13,1,threefour,,,,,,,,,,,,,,,,,,,,,,,,,,,,,,,,,,,,,,,,,,,,,,,,,,,,,,,,,,,,,,,,,,,,,,,,,,,,,,,,,,,,,,,,,,,,,,,,,,,,,,,,,,,,,,,,,,,,,,,,,,,,,,,,,,,,,,,,,,,,,,,,,,,,,,,,
,,,,,,5d5ee4b5b3e1bf0001a46a7d,62bbfb4f7d44554892e31cac,2022-06-29_08h12.34.775,Colour_Asymmetry_Pilot,2022.1.3,Win32,60.08532116,62bbe60bf3d75ef465d3e404,0,34,34,89,1,onethree,,,,,,,,,,,,,,,,,,,,,,,,,,,,,,,,,,,,,,,,,,,,,,,,,,,,,,,,,,,,,,,,,,,,,,,,,,,,,,,,,,,,,,,,,,,,,,,,,,,,,,,,,,,,,,,,,,,,,,,,,,,,,,,,,,,,,,,,,,,,,,,,,,,,,,,,
,,,,,,5d5ee4b5b3e1bf0001a46a7d,62bbfb4f7d44554892e31cac,2022-06-29_08h12.34.775,Colour_Asymmetry_Pilot,2022.1.3,Win32,60.08532116,62bbe60bf3d75ef465d3e404,0,35,35,125,1,threefour,,,,,,,,,,,,,,,,,,,,,,,,,,,,,,,,,,,,,,,,,,,,,,,,,,,,,,,,,,,,,,,,,,,,,,,,,,,,,,,,,,,,,,,,,,,,,,,,,,,,,,,,,,,,,,,,,,,,,,,,,,,,,,,,,,,,,,,,,,,,,,,,,,,,,,,,
,,,,,,5d5ee4b5b3e1bf0001a46a7d,62bbfb4f7d44554892e31cac,2022-06-29_08h12.34.775,Colour_Asymmetry_Pilot,2022.1.3,Win32,60.08532116,62bbe60bf3d75ef465d3e404,0,36,36,29,1,threefour,,,,,,,,,,,,,,,,,,,,,,,,,,,,,,,,,,,,,,,,,,,,,,,,,,,,,,,,,,,,,,,,,,,,,,,,,,,,,,,,,,,,,,,,,,,,,,,,,,,,,,,,,,,,,,,,,,,,,,,,,,,,,,,,,,,,,,,,,,,,,,,,,,,,,,,,
,,,,,,5d5ee4b5b3e1bf0001a46a7d,62bbfb4f7d44554892e31cac,2022-06-29_08h12.34.775,Colour_Asymmetry_Pilot,2022.1.3,Win32,60.08532116,62bbe60bf3d75ef465d3e404,0,37,37,4,1,threeone,,,,,,,,,,,,,,,,,,,,,,,,,,,,,,,,,,,,,,,,,,,,,,,,,,,,,,,,,,,,,,,,,,,,,,,,,,,,,,,,,,,,,,,,,,,,,,,,,,,,,,,,,,,,,,,,,,,,,,,,,,,,,,,,,,,,,,,,,,,,,,,,,,,,,,,,
,,,,,,5d5ee4b5b3e1bf0001a46a7d,62bbfb4f7d44554892e31cac,2022-06-29_08h12.34.775,Colour_Asymmetry_Pilot,2022.1.3,Win32,60.08532116,62bbe60bf3d75ef465d3e404,0,38,38,88,1,onetwo,,,,,,,,,,,,,,,,,,,,,,,,,,,,,,,,,,,,,,,,,,,,,,,,,,,,,,,,,,,,,,,,,,,,,,,,,,,,,,,,,,,,,,,,,,,,,,,,,,,,,,,,,,,,,,,,,,,,,,,,,,,,,,,,,,,,,,,,,,,,,,,,,,,,,,,,
,,,,,,5d5ee4b5b3e1bf0001a46a7d,62bbfb4f7d44554892e31cac,2022-06-29_08h12.34.775,Colour_Asymmetry_Pilot,2022.1.3,Win32,60.08532116,62bbe60bf3d75ef465d3e404,0,39,39,55,1,fourthree,,,,,,,,,,,,,,,,,,,,,,,,,,,,,,,,,,,,,,,,,,,,,,,,,,,,,,,,,,,,,,,,,,,,,,,,,,,,,,,,,,,,,,,,,,,,,,,,,,,,,,,,,,,,,,,,,,,,,,,,,,,,,,,,,,,,,,,,,,,,,,,,,,,,,,,,
,,,,,,5d5ee4b5b3e1bf0001a46a7d,62bbfb4f7d44554892e31cac,2022-06-29_08h12.34.775,Colour_Asymmetry_Pilot,2022.1.3,Win32,60.08532116,62bbe60bf3d75ef465d3e404,0,40,40,131,1,twofour,,,,,,,,,,,,,,,,,,,,,,,,,,,,,,,,,,,,,,,,,,,,,,,,,,,,,,,,,,,,,,,,,,,,,,,,,,,,,,,,,,,,,,,,,,,,,,,,,,,,,,,,,,,,,,,,,,,,,,,,,,,,,,,,,,,,,,,,,,,,,,,,,,,,,,,,
,,,,,,5d5ee4b5b3e1bf0001a46a7d,62bbfb4f7d44554892e31cac,2022-06-29_08h12.34.775,Colour_Asymmetry_Pilot,2022.1.3,Win32,60.08532116,62bbe60bf3d75ef465d3e404,0,41,41,147,1,twofour,,,,,,,,,,,,,,,,,,,,,,,,,,,,,,,,,,,,,,,,,,,,,,,,,,,,,,,,,,,,,,,,,,,,,,,,,,,,,,,,,,,,,,,,,,,,,,,,,,,,,,,,,,,,,,,,,,,,,,,,,,,,,,,,,,,,,,,,,,,,,,,,,,,,,,,,
,,,,,,5d5ee4b5b3e1bf0001a46a7d,62bbfb4f7d44554892e31cac,2022-06-29_08h12.34.775,Colour_Asymmetry_Pilot,2022.1.3,Win32,60.08532116,62bbe60bf3d75ef465d3e404,0,42,42,25,1,onethree,,,,,,,,,,,,,,,,,,,,,,,,,,,,,,,,,,,,,,,,,,,,,,,,,,,,,,,,,,,,,,,,,,,,,,,,,,,,,,,,,,,,,,,,,,,,,,,,,,,,,,,,,,,,,,,,,,,,,,,,,,,,,,,,,,,,,,,,,,,,,,,,,,,,,,,,
,,,,,,5d5ee4b5b3e1bf0001a46a7d,62bbfb4f7d44554892e31cac,2022-06-29_08h12.34.775,Colour_Asymmetry_Pilot,2022.1.3,Win32,60.08532116,62bbe60bf3d75ef465d3e404,0,43,43,72,1,onetwo,,,,,,,,,,,,,,,,,,,,,,,,,,,,,,,,,,,,,,,,,,,,,,,,,,,,,,,,,,,,,,,,,,,,,,,,,,,,,,,,,,,,,,,,,,,,,,,,,,,,,,,,,,,,,,,,,,,,,,,,,,,,,,,,,,,,,,,,,,,,,,,,,,,,,,,,
,,,,,,5d5ee4b5b3e1bf0001a46a7d,62bbfb4f7d44554892e31cac,2022-06-29_08h12.34.775,Colour_Asymmetry_Pilot,2022.1.3,Win32,60.08532116,62bbe60bf3d75ef465d3e404,0,44,44,101,1,threefour,,,,,,,,,,,,,,,,,,,,,,,,,,,,,,,,,,,,,,,,,,,,,,,,,,,,,,,,,,,,,,,,,,,,,,,,,,,,,,,,,,,,,,,,,,,,,,,,,,,,,,,,,,,,,,,,,,,,,,,,,,,,,,,,,,,,,,,,,,,,,,,,,,,,,,,,
,,,,,,5d5ee4b5b3e1bf0001a46a7d,62bbfb4f7d44554892e31cac,2022-06-29_08h12.34.775,Colour_Asymmetry_Pilot,2022.1.3,Win32,60.08532116,62bbe60bf3d75ef465d3e404,0,45,45,122,1,twoone,,,,,,,,,,,,,,,,,,,,,,,,,,,,,,,,,,,,,,,,,,,,,,,,,,,,,,,,,,,,,,,,,,,,,,,,,,,,,,,,,,,,,,,,,,,,,,,,,,,,,,,,,,,,,,,,,,,,,,,,,,,,,,,,,,,,,,,,,,,,,,,,,,,,,,,,
,,,,,,5d5ee4b5b3e1bf0001a46a7d,62bbfb4f7d44554892e31cac,2022-06-29_08h12.34.775,Colour_Asymmetry_Pilot,2022.1.3,Win32,60.08532116,62bbe60bf3d75ef465d3e404,0,46,46,154,1,twoone,,,,,,,,,,,,,,,,,,,,,,,,,,,,,,,,,,,,,,,,,,,,,,,,,,,,,,,,,,,,,,,,,,,,,,,,,,,,,,,,,,,,,,,,,,,,,,,,,,,,,,,,,,,,,,,,,,,,,,,,,,,,,,,,,,,,,,,,,,,,,,,,,,,,,,,,
,,,,,,5d5ee4b5b3e1bf0001a46a7d,62bbfb4f7d44554892e31cac,2022-06-29_08h12.34.775,Colour_Asymmetry_Pilot,2022.1.3,Win32,60.08532116,62bbe60bf3d75ef465d3e404,0,47,47,30,1,fourtwo,,,,,,,,,,,,,,,,,,,,,,,,,,,,,,,,,,,,,,,,,,,,,,,,,,,,,,,,,,,,,,,,,,,,,,,,,,,,,,,,,,,,,,,,,,,,,,,,,,,,,,,,,,,,,,,,,,,,,,,,,,,,,,,,,,,,,,,,,,,,,,,,,,,,,,,,
,,,,,,5d5ee4b5b3e1bf0001a46a7d,62bbfb4f7d44554892e31cac,2022-06-29_08h12.34.775,Colour_Asymmetry_Pilot,2022.1.3,Win32,60.08532116,62bbe60bf3d75ef465d3e404,0,48,48,76,1,threeone,,,,,,,,,,,,,,,,,,,,,,,,,,,,,,,,,,,,,,,,,,,,,,,,,,,,,,,,,,,,,,,,,,,,,,,,,,,,,,,,,,,,,,,,,,,,,,,,,,,,,,,,,,,,,,,,,,,,,,,,,,,,,,,,,,,,,,,,,,,,,,,,,,,,,,,,
,,,,,,5d5ee4b5b3e1bf0001a46a7d,62bbfb4f7d44554892e31cac,2022-06-29_08h12.34.775,Colour_Asymmetry_Pilot,2022.1.3,Win32,60.08532116,62bbe60bf3d75ef465d3e404,0,49,49,42,1,twoone,,,,,,,,,,,,,,,,,,,,,,,,,,,,,,,,,,,,,,,,,,,,,,,,,,,,,,,,,,,,,,,,,,,,,,,,,,,,,,,,,,,,,,,,,,,,,,,,,,,,,,,,,,,,,,,,,,,,,,,,,,,,,,,,,,,,,,,,,,,,,,,,,,,,,,,,
,,,,,,5d5ee4b5b3e1bf0001a46a7d,62bbfb4f7d44554892e31cac,2022-06-29_08h12.34.775,Colour_Asymmetry_Pilot,2022.1.3,Win32,60.08532116,62bbe60bf3d75ef465d3e404,0,50,50,86,1,fourtwo,,,,,,,,,,,,,,,,,,,,,,,,,,,,,,,,,,,,,,,,,,,,,,,,,,,,,,,,,,,,,,,,,,,,,,,,,,,,,,,,,,,,,,,,,,,,,,,,,,,,,,,,,,,,,,,,,,,,,,,,,,,,,,,,,,,,,,,,,,,,,,,,,,,,,,,,
,,,,,,5d5ee4b5b3e1bf0001a46a7d,62bbfb4f7d44554892e31cac,2022-06-29_08h12.34.775,Colour_Asymmetry_Pilot,2022.1.3,Win32,60.08532116,62bbe60bf3d75ef465d3e404,0,51,51,146,1,twoone,,,,,,,,,,,,,,,,,,,,,,,,,,,,,,,,,,,,,,,,,,,,,,,,,,,,,,,,,,,,,,,,,,,,,,,,,,,,,,,,,,,,,,,,,,,,,,,,,,,,,,,,,,,,,,,,,,,,,,,,,,,,,,,,,,,,,,,,,,,,,,,,,,,,,,,,
,,,,,,5d5ee4b5b3e1bf0001a46a7d,62bbfb4f7d44554892e31cac,2022-06-29_08h12.34.775,Colour_Asymmetry_Pilot,2022.1.3,Win32,60.08532116,62bbe60bf3d75ef465d3e404,0,52,52,90,1,twoone,,,,,,,,,,,,,,,,,,,,,,,,,,,,,,,,,,,,,,,,,,,,,,,,,,,,,,,,,,,,,,,,,,,,,,,,,,,,,,,,,,,,,,,,,,,,,,,,,,,,,,,,,,,,,,,,,,,,,,,,,,,,,,,,,,,,,,,,,,,,,,,,,,,,,,,,
,,,,,,5d5ee4b5b3e1bf0001a46a7d,62bbfb4f7d44554892e31cac,2022-06-29_08h12.34.775,Colour_Asymmetry_Pilot,2022.1.3,Win32,60.08532116,62bbe60bf3d75ef465d3e404,0,53,53,100,1,threeone,,,,,,,,,,,,,,,,,,,,,,,,,,,,,,,,,,,,,,,,,,,,,,,,,,,,,,,,,,,,,,,,,,,,,,,,,,,,,,,,,,,,,,,,,,,,,,,,,,,,,,,,,,,,,,,,,,,,,,,,,,,,,,,,,,,,,,,,,,,,,,,,,,,,,,,,
,,,,,,5d5ee4b5b3e1bf0001a46a7d,62bbfb4f7d44554892e31cac,2022-06-29_08h12.34.775,Colour_Asymmetry_Pilot,2022.1.3,Win32,60.08532116,62bbe60bf3d75ef465d3e404,0,54,54,126,1,fourtwo,,,,,,,,,,,,,,,,,,,,,,,,,,,,,,,,,,,,,,,,,,,,,,,,,,,,,,,,,,,,,,,,,,,,,,,,,,,,,,,,,,,,,,,,,,,,,,,,,,,,,,,,,,,,,,,,,,,,,,,,,,,,,,,,,,,,,,,,,,,,,,,,,,,,,,,,
,,,,,,5d5ee4b5b3e1bf0001a46a7d,62bbfb4f7d44554892e31cac,2022-06-29_08h12.34.775,Colour_Asymmetry_Pilot,2022.1.3,Win32,60.08532116,62bbe60bf3d75ef465d3e404,0,55,55,128,1,onetwo,,,,,,,,,,,,,,,,,,,,,,,,,,,,,,,,,,,,,,,,,,,,,,,,,,,,,,,,,,,,,,,,,,,,,,,,,,,,,,,,,,,,,,,,,,,,,,,,,,,,,,,,,,,,,,,,,,,,,,,,,,,,,,,,,,,,,,,,,,,,,,,,,,,,,,,,
,,,,,,5d5ee4b5b3e1bf0001a46a7d,62bbfb4f7d44554892e31cac,2022-06-29_08h12.34.775,Colour_Asymmetry_Pilot,2022.1.3,Win32,60.08532116,62bbe60bf3d75ef465d3e404,0,56,56,85,1,threefour,,,,,,,,,,,,,,,,,,,,,,,,,,,,,,,,,,,,,,,,,,,,,,,,,,,,,,,,,,,,,,,,,,,,,,,,,,,,,,,,,,,,,,,,,,,,,,,,,,,,,,,,,,,,,,,,,,,,,,,,,,,,,,,,,,,,,,,,,,,,,,,,,,,,,,,,
,,,,,,5d5ee4b5b3e1bf0001a46a7d,62bbfb4f7d44554892e31cac,2022-06-29_08h12.34.775,Colour_Asymmetry_Pilot,2022.1.3,Win32,60.08532116,62bbe60bf3d75ef465d3e404,0,57,57,118,1,fourtwo,,,,,,,,,,,,,,,,,,,,,,,,,,,,,,,,,,,,,,,,,,,,,,,,,,,,,,,,,,,,,,,,,,,,,,,,,,,,,,,,,,,,,,,,,,,,,,,,,,,,,,,,,,,,,,,,,,,,,,,,,,,,,,,,,,,,,,,,,,,,,,,,,,,,,,,,
,,,,,,5d5ee4b5b3e1bf0001a46a7d,62bbfb4f7d44554892e31cac,2022-06-29_08h12.34.775,Colour_Asymmetry_Pilot,2022.1.3,Win32,60.08532116,62bbe60bf3d75ef465d3e404,0,58,58,109,1,threefour,,,,,,,,,,,,,,,,,,,,,,,,,,,,,,,,,,,,,,,,,,,,,,,,,,,,,,,,,,,,,,,,,,,,,,,,,,,,,,,,,,,,,,,,,,,,,,,,,,,,,,,,,,,,,,,,,,,,,,,,,,,,,,,,,,,,,,,,,,,,,,,,,,,,,,,,
,,,,,,5d5ee4b5b3e1bf0001a46a7d,62bbfb4f7d44554892e31cac,2022-06-29_08h12.34.775,Colour_Asymmetry_Pilot,2022.1.3,Win32,60.08532116,62bbe60bf3d75ef465d3e404,0,59,59,83,1,twofour,,,,,,,,,,,,,,,,,,,,,,,,,,,,,,,,,,,,,,,,,,,,,,,,,,,,,,,,,,,,,,,,,,,,,,,,,,,,,,,,,,,,,,,,,,,,,,,,,,,,,,,,,,,,,,,,,,,,,,,,,,,,,,,,,,,,,,,,,,,,,,,,,,,,,,,,
,,,,,,5d5ee4b5b3e1bf0001a46a7d,62bbfb4f7d44554892e31cac,2022-06-29_08h12.34.775,Colour_Asymmetry_Pilot,2022.1.3,Win32,60.08532116,62bbe60bf3d75ef465d3e404,0,60,60,62,1,fourtwo,,,,,,,,,,,,,,,,,,,,,,,,,,,,,,,,,,,,,,,,,,,,,,,,,,,,,,,,,,,,,,,,,,,,,,,,,,,,,,,,,,,,,,,,,,,,,,,,,,,,,,,,,,,,,,,,,,,,,,,,,,,,,,,,,,,,,,,,,,,,,,,,,,,,,,,,
,,,,,,5d5ee4b5b3e1bf0001a46a7d,62bbfb4f7d44554892e31cac,2022-06-29_08h12.34.775,Colour_Asymmetry_Pilot,2022.1.3,Win32,60.08532116,62bbe60bf3d75ef465d3e404,0,61,61,119,1,fourthree,,,,,,,,,,,,,,,,,,,,,,,,,,,,,,,,,,,,,,,,,,,,,,,,,,,,,,,,,,,,,,,,,,,,,,,,,,,,,,,,,,,,,,,,,,,,,,,,,,,,,,,,,,,,,,,,,,,,,,,,,,,,,,,,,,,,,,,,,,,,,,,,,,,,,,,,
,,,,,,5d5ee4b5b3e1bf0001a46a7d,62bbfb4f7d44554892e31cac,2022-06-29_08h12.34.775,Colour_Asymmetry_Pilot,2022.1.3,Win32,60.08532116,62bbe60bf3d75ef465d3e404,0,62,62,11,1,twofour,,,,,,,,,,,,,,,,,,,,,,,,,,,,,,,,,,,,,,,,,,,,,,,,,,,,,,,,,,,,,,,,,,,,,,,,,,,,,,,,,,,,,,,,,,,,,,,,,,,,,,,,,,,,,,,,,,,,,,,,,,,,,,,,,,,,,,,,,,,,,,,,,,,,,,,,
,,,,,,5d5ee4b5b3e1bf0001a46a7d,62bbfb4f7d44554892e31cac,2022-06-29_08h12.34.775,Colour_Asymmetry_Pilot,2022.1.3,Win32,60.08532116,62bbe60bf3d75ef465d3e404,0,63,63,14,1,fourtwo,,,,,,,,,,,,,,,,,,,,,,,,,,,,,,,,,,,,,,,,,,,,,,,,,,,,,,,,,,,,,,,,,,,,,,,,,,,,,,,,,,,,,,,,,,,,,,,,,,,,,,,,,,,,,,,,,,,,,,,,,,,,,,,,,,,,,,,,,,,,,,,,,,,,,,,,
,,,,,,5d5ee4b5b3e1bf0001a46a7d,62bbfb4f7d44554892e31cac,2022-06-29_08h12.34.775,Colour_Asymmetry_Pilot,2022.1.3,Win32,60.08532116,62bbe60bf3d75ef465d3e404,0,64,64,114,1,twoone,,,,,,,,,,,,,,,,,,,,,,,,,,,,,,,,,,,,,,,,,,,,,,,,,,,,,,,,,,,,,,,,,,,,,,,,,,,,,,,,,,,,,,,,,,,,,,,,,,,,,,,,,,,,,,,,,,,,,,,,,,,,,,,,,,,,,,,,,,,,,,,,,,,,,,,,
,,,,,,5d5ee4b5b3e1bf0001a46a7d,62bbfb4f7d44554892e31cac,2022-06-29_08h12.34.775,Colour_Asymmetry_Pilot,2022.1.3,Win32,60.08532116,62bbe60bf3d75ef465d3e404,0,65,65,59,1,twofour,,,,,,,,,,,,,,,,,,,,,,,,,,,,,,,,,,,,,,,,,,,,,,,,,,,,,,,,,,,,,,,,,,,,,,,,,,,,,,,,,,,,,,,,,,,,,,,,,,,,,,,,,,,,,,,,,,,,,,,,,,,,,,,,,,,,,,,,,,,,,,,,,,,,,,,,
,,,,,,5d5ee4b5b3e1bf0001a46a7d,62bbfb4f7d44554892e31cac,2022-06-29_08h12.34.775,Colour_Asymmetry_Pilot,2022.1.3,Win32,60.08532116,62bbe60bf3d75ef465d3e404,0,66,66,159,1,fourthree,,,,,,,,,,,,,,,,,,,,,,,,,,,,,,,,,,,,,,,,,,,,,,,,,,,,,,,,,,,,,,,,,,,,,,,,,,,,,,,,,,,,,,,,,,,,,,,,,,,,,,,,,,,,,,,,,,,,,,,,,,,,,,,,,,,,,,,,,,,,,,,,,,,,,,,,
,,,,,,5d5ee4b5b3e1bf0001a46a7d,62bbfb4f7d44554892e31cac,2022-06-29_08h12.34.775,Colour_Asymmetry_Pilot,2022.1.3,Win32,60.08532116,62bbe60bf3d75ef465d3e404,0,67,67,47,1,fourthree,,,,,,,,,,,,,,,,,,,,,,,,,,,,,,,,,,,,,,,,,,,,,,,,,,,,,,,,,,,,,,,,,,,,,,,,,,,,,,,,,,,,,,,,,,,,,,,,,,,,,,,,,,,,,,,,,,,,,,,,,,,,,,,,,,,,,,,,,,,,,,,,,,,,,,,,
,,,,,,5d5ee4b5b3e1bf0001a46a7d,62bbfb4f7d44554892e31cac,2022-06-29_08h12.34.775,Colour_Asymmetry_Pilot,2022.1.3,Win32,60.08532116,62bbe60bf3d75ef465d3e404,0,68,68,135,1,fourthree,,,,,,,,,,,,,,,,,,,,,,,,,,,,,,,,,,,,,,,,,,,,,,,,,,,,,,,,,,,,,,,,,,,,,,,,,,,,,,,,,,,,,,,,,,,,,,,,,,,,,,,,,,,,,,,,,,,,,,,,,,,,,,,,,,,,,,,,,,,,,,,,,,,,,,,,
,,,,,,5d5ee4b5b3e1bf0001a46a7d,62bbfb4f7d44554892e31cac,2022-06-29_08h12.34.775,Colour_Asymmetry_Pilot,2022.1.3,Win32,60.08532116,62bbe60bf3d75ef465d3e404,0,69,69,102,1,fourtwo,,,,,,,,,,,,,,,,,,,,,,,,,,,,,,,,,,,,,,,,,,,,,,,,,,,,,,,,,,,,,,,,,,,,,,,,,,,,,,,,,,,,,,,,,,,,,,,,,,,,,,,,,,,,,,,,,,,,,,,,,,,,,,,,,,,,,,,,,,,,,,,,,,,,,,,,
,,,,,,5d5ee4b5b3e1bf0001a46a7d,62bbfb4f7d44554892e31cac,2022-06-29_08h12.34.775,Colour_Asymmetry_Pilot,2022.1.3,Win32,60.08532116,62bbe60bf3d75ef465d3e404,0,70,70,133,1,threefour,,,,,,,,,,,,,,,,,,,,,,,,,,,,,,,,,,,,,,,,,,,,,,,,,,,,,,,,,,,,,,,,,,,,,,,,,,,,,,,,,,,,,,,,,,,,,,,,,,,,,,,,,,,,,,,,,,,,,,,,,,,,,,,,,,,,,,,,,,,,,,,,,,,,,,,,
,,,,,,5d5ee4b5b3e1bf0001a46a7d,62bbfb4f7d44554892e31cac,2022-06-29_08h12.34.775,Colour_Asymmetry_Pilot,2022.1.3,Win32,60.08532116,62bbe60bf3d75ef465d3e404,0,71,71,75,1,twofour,,,,,,,,,,,,,,,,,,,,,,,,,,,,,,,,,,,,,,,,,,,,,,,,,,,,,,,,,,,,,,,,,,,,,,,,,,,,,,,,,,,,,,,,,,,,,,,,,,,,,,,,,,,,,,,,,,,,,,,,,,,,,,,,,,,,,,,,,,,,,,,,,,,,,,,,
,,,,,,5d5ee4b5b3e1bf0001a46a7d,62bbfb4f7d44554892e31cac,2022-06-29_08h12.34.775,Colour_Asymmetry_Pilot,2022.1.3,Win32,60.08532116,62bbe60bf3d75ef465d3e404,0,72,72,21,1,threefour,,,,,,,,,,,,,,,,,,,,,,,,,,,,,,,,,,,,,,,,,,,,,,,,,,,,,,,,,,,,,,,,,,,,,,,,,,,,,,,,,,,,,,,,,,,,,,,,,,,,,,,,,,,,,,,,,,,,,,,,,,,,,,,,,,,,,,,,,,,,,,,,,,,,,,,,
,,,,,,5d5ee4b5b3e1bf0001a46a7d,62bbfb4f7d44554892e31cac,2022-06-29_08h12.34.775,Colour_Asymmetry_Pilot,2022.1.3,Win32,60.08532116,62bbe60bf3d75ef465d3e404,0,73,73,24,1,onetwo,,,,,,,,,,,,,,,,,,,,,,,,,,,,,,,,,,,,,,,,,,,,,,,,,,,,,,,,,,,,,,,,,,,,,,,,,,,,,,,,,,,,,,,,,,,,,,,,,,,,,,,,,,,,,,,,,,,,,,,,,,,,,,,,,,,,,,,,,,,,,,,,,,,,,,,,
,,,,,,5d5ee4b5b3e1bf0001a46a7d,62bbfb4f7d44554892e31cac,2022-06-29_08h12.34.775,Colour_Asymmetry_Pilot,2022.1.3,Win32,60.08532116,62bbe60bf3d75ef465d3e404,0,74,74,66,1,twoone,,,,,,,,,,,,,,,,,,,,,,,,,,,,,,,,,,,,,,,,,,,,,,,,,,,,,,,,,,,,,,,,,,,,,,,,,,,,,,,,,,,,,,,,,,,,,,,,,,,,,,,,,,,,,,,,,,,,,,,,,,,,,,,,,,,,,,,,,,,,,,,,,,,,,,,,
,,,,,,5d5ee4b5b3e1bf0001a46a7d,62bbfb4f7d44554892e31cac,2022-06-29_08h12.34.775,Colour_Asymmetry_Pilot,2022.1.3,Win32,60.08532116,62bbe60bf3d75ef465d3e404,0,75,75,156,1,threeone,,,,,,,,,,,,,,,,,,,,,,,,,,,,,,,,,,,,,,,,,,,,,,,,,,,,,,,,,,,,,,,,,,,,,,,,,,,,,,,,,,,,,,,,,,,,,,,,,,,,,,,,,,,,,,,,,,,,,,,,,,,,,,,,,,,,,,,,,,,,,,,,,,,,,,,,
,,,,,,5d5ee4b5b3e1bf0001a46a7d,62bbfb4f7d44554892e31cac,2022-06-29_08h12.34.775,Colour_Asymmetry_Pilot,2022.1.3,Win32,60.08532116,62bbe60bf3d75ef465d3e404,0,76,76,84,1,threeone,,,,,,,,,,,,,,,,,,,,,,,,,,,,,,,,,,,,,,,,,,,,,,,,,,,,,,,,,,,,,,,,,,,,,,,,,,,,,,,,,,,,,,,,,,,,,,,,,,,,,,,,,,,,,,,,,,,,,,,,,,,,,,,,,,,,,,,,,,,,,,,,,,,,,,,,
,,,,,,5d5ee4b5b3e1bf0001a46a7d,62bbfb4f7d44554892e31cac,2022-06-29_08h12.34.775,Colour_Asymmetry_Pilot,2022.1.3,Win32,60.08532116,62bbe60bf3d75ef465d3e404,0,77,77,33,1,onethree,,,,,,,,,,,,,,,,,,,,,,,,,,,,,,,,,,,,,,,,,,,,,,,,,,,,,,,,,,,,,,,,,,,,,,,,,,,,,,,,,,,,,,,,,,,,,,,,,,,,,,,,,,,,,,,,,,,,,,,,,,,,,,,,,,,,,,,,,,,,,,,,,,,,,,,,
,,,,,,5d5ee4b5b3e1bf0001a46a7d,62bbfb4f7d44554892e31cac,2022-06-29_08h12.34.775,Colour_Asymmetry_Pilot,2022.1.3,Win32,60.08532116,62bbe60bf3d75ef465d3e404,0,78,78,105,1,onethree,,,,,,,,,,,,,,,,,,,,,,,,,,,,,,,,,,,,,,,,,,,,,,,,,,,,,,,,,,,,,,,,,,,,,,,,,,,,,,,,,,,,,,,,,,,,,,,,,,,,,,,,,,,,,,,,,,,,,,,,,,,,,,,,,,,,,,,,,,,,,,,,,,,,,,,,
,,,,,,5d5ee4b5b3e1bf0001a46a7d,62bbfb4f7d44554892e31cac,2022-06-29_08h12.34.775,Colour_Asymmetry_Pilot,2022.1.3,Win32,60.08532116,62bbe60bf3d75ef465d3e404,0,79,79,140,1,threeone,,,,,,,,,,,,,,,,,,,,,,,,,,,,,,,,,,,,,,,,,,,,,,,,,,,,,,,,,,,,,,,,,,,,,,,,,,,,,,,,,,,,,,,,,,,,,,,,,,,,,,,,,,,,,,,,,,,,,,,,,,,,,,,,,,,,,,,,,,,,,,,,,,,,,,,,
,,,,,,5d5ee4b5b3e1bf0001a46a7d,62bbfb4f7d44554892e31cac,2022-06-29_08h12.34.775,Colour_Asymmetry_Pilot,2022.1.3,Win32,60.08532116,62bbe60bf3d75ef465d3e404,0,80,80,61,1,threefour,,,,,,,,,,,,,,,,,,,,,,,,,,,,,,,,,,,,,,,,,,,,,,,,,,,,,,,,,,,,,,,,,,,,,,,,,,,,,,,,,,,,,,,,,,,,,,,,,,,,,,,,,,,,,,,,,,,,,,,,,,,,,,,,,,,,,,,,,,,,,,,,,,,,,,,,
,,,,,,5d5ee4b5b3e1bf0001a46a7d,62bbfb4f7d44554892e31cac,2022-06-29_08h12.34.775,Colour_Asymmetry_Pilot,2022.1.3,Win32,60.08532116,62bbe60bf3d75ef465d3e404,0,81,81,32,1,onetwo,,,,,,,,,,,,,,,,,,,,,,,,,,,,,,,,,,,,,,,,,,,,,,,,,,,,,,,,,,,,,,,,,,,,,,,,,,,,,,,,,,,,,,,,,,,,,,,,,,,,,,,,,,,,,,,,,,,,,,,,,,,,,,,,,,,,,,,,,,,,,,,,,,,,,,,,
,,,,,,5d5ee4b5b3e1bf0001a46a7d,62bbfb4f7d44554892e31cac,2022-06-29_08h12.34.775,Colour_Asymmetry_Pilot,2022.1.3,Win32,60.08532116,62bbe60bf3d75ef465d3e404,0,82,82,87,1,fourthree,,,,,,,,,,,,,,,,,,,,,,,,,,,,,,,,,,,,,,,,,,,,,,,,,,,,,,,,,,,,,,,,,,,,,,,,,,,,,,,,,,,,,,,,,,,,,,,,,,,,,,,,,,,,,,,,,,,,,,,,,,,,,,,,,,,,,,,,,,,,,,,,,,,,,,,,
,,,,,,5d5ee4b5b3e1bf0001a46a7d,62bbfb4f7d44554892e31cac,2022-06-29_08h12.34.775,Colour_Asymmetry_Pilot,2022.1.3,Win32,60.08532116,62bbe60bf3d75ef465d3e404,0,83,83,19,1,twofour,,,,,,,,,,,,,,,,,,,,,,,,,,,,,,,,,,,,,,,,,,,,,,,,,,,,,,,,,,,,,,,,,,,,,,,,,,,,,,,,,,,,,,,,,,,,,,,,,,,,,,,,,,,,,,,,,,,,,,,,,,,,,,,,,,,,,,,,,,,,,,,,,,,,,,,,
,,,,,,5d5ee4b5b3e1bf0001a46a7d,62bbfb4f7d44554892e31cac,2022-06-29_08h12.34.775,Colour_Asymmetry_Pilot,2022.1.3,Win32,60.08532116,62bbe60bf3d75ef465d3e404,0,84,84,65,1,onethree,,,,,,,,,,,,,,,,,,,,,,,,,,,,,,,,,,,,,,,,,,,,,,,,,,,,,,,,,,,,,,,,,,,,,,,,,,,,,,,,,,,,,,,,,,,,,,,,,,,,,,,,,,,,,,,,,,,,,,,,,,,,,,,,,,,,,,,,,,,,,,,,,,,,,,,,
,,,,,,5d5ee4b5b3e1bf0001a46a7d,62bbfb4f7d44554892e31cac,2022-06-29_08h12.34.775,Colour_Asymmetry_Pilot,2022.1.3,Win32,60.08532116,62bbe60bf3d75ef465d3e404,0,85,85,0,1,onetwo,,,,,,,,,,,,,,,,,,,,,,,,,,,,,,,,,,,,,,,,,,,,,,,,,,,,,,,,,,,,,,,,,,,,,,,,,,,,,,,,,,,,,,,,,,,,,,,,,,,,,,,,,,,,,,,,,,,,,,,,,,,,,,,,,,,,,,,,,,,,,,,,,,,,,,,,
,,,,,,5d5ee4b5b3e1bf0001a46a7d,62bbfb4f7d44554892e31cac,2022-06-29_08h12.34.775,Colour_Asymmetry_Pilot,2022.1.3,Win32,60.08532116,62bbe60bf3d75ef465d3e404,0,86,86,68,1,threeone,,,,,,,,,,,,,,,,,,,,,,,,,,,,,,,,,,,,,,,,,,,,,,,,,,,,,,,,,,,,,,,,,,,,,,,,,,,,,,,,,,,,,,,,,,,,,,,,,,,,,,,,,,,,,,,,,,,,,,,,,,,,,,,,,,,,,,,,,,,,,,,,,,,,,,,,
,,,,,,5d5ee4b5b3e1bf0001a46a7d,62bbfb4f7d44554892e31cac,2022-06-29_08h12.34.775,Colour_Asymmetry_Pilot,2022.1.3,Win32,60.08532116,62bbe60bf3d75ef465d3e404,0,87,87,37,1,threefour,,,,,,,,,,,,,,,,,,,,,,,,,,,,,,,,,,,,,,,,,,,,,,,,,,,,,,,,,,,,,,,,,,,,,,,,,,,,,,,,,,,,,,,,,,,,,,,,,,,,,,,,,,,,,,,,,,,,,,,,,,,,,,,,,,,,,,,,,,,,,,,,,,,,,,,,
,,,,,,5d5ee4b5b3e1bf0001a46a7d,62bbfb4f7d44554892e31cac,2022-06-29_08h12.34.775,Colour_Asymmetry_Pilot,2022.1.3,Win32,60.08532116,62bbe60bf3d75ef465d3e404,0,88,88,103,1,fourthree,,,,,,,,,,,,,,,,,,,,,,,,,,,,,,,,,,,,,,,,,,,,,,,,,,,,,,,,,,,,,,,,,,,,,,,,,,,,,,,,,,,,,,,,,,,,,,,,,,,,,,,,,,,,,,,,,,,,,,,,,,,,,,,,,,,,,,,,,,,,,,,,,,,,,,,,
,,,,,,5d5ee4b5b3e1bf0001a46a7d,62bbfb4f7d44554892e31cac,2022-06-29_08h12.34.775,Colour_Asymmetry_Pilot,2022.1.3,Win32,60.08532116,62bbe60bf3d75ef465d3e404,0,89,89,12,1,threeone,,,,,,,,,,,,,,,,,,,,,,,,,,,,,,,,,,,,,,,,,,,,,,,,,,,,,,,,,,,,,,,,,,,,,,,,,,,,,,,,,,,,,,,,,,,,,,,,,,,,,,,,,,,,,,,,,,,,,,,,,,,,,,,,,,,,,,,,,,,,,,,,,,,,,,,,
,,,,,,5d5ee4b5b3e1bf0001a46a7d,62bbfb4f7d44554892e31cac,2022-06-29_08h12.34.775,Colour_Asymmetry_Pilot,2022.1.3,Win32,60.08532116,62bbe60bf3d75ef465d3e404,0,90,90,35,1,twofour,,,,,,,,,,,,,,,,,,,,,,,,,,,,,,,,,,,,,,,,,,,,,,,,,,,,,,,,,,,,,,,,,,,,,,,,,,,,,,,,,,,,,,,,,,,,,,,,,,,,,,,,,,,,,,,,,,,,,,,,,,,,,,,,,,,,,,,,,,,,,,,,,,,,,,,,
,,,,,,5d5ee4b5b3e1bf0001a46a7d,62bbfb4f7d44554892e31cac,2022-06-29_08h12.34.775,Colour_Asymmetry_Pilot,2022.1.3,Win32,60.08532116,62bbe60bf3d75ef465d3e404,0,91,91,79,1,fourthree,,,,,,,,,,,,,,,,,,,,,,,,,,,,,,,,,,,,,,,,,,,,,,,,,,,,,,,,,,,,,,,,,,,,,,,,,,,,,,,,,,,,,,,,,,,,,,,,,,,,,,,,,,,,,,,,,,,,,,,,,,,,,,,,,,,,,,,,,,,,,,,,,,,,,,,,
,,,,,,5d5ee4b5b3e1bf0001a46a7d,62bbfb4f7d44554892e31cac,2022-06-29_08h12.34.775,Colour_Asymmetry_Pilot,2022.1.3,Win32,60.08532116,62bbe60bf3d75ef465d3e404,0,92,92,160,1,onetwo,,,,,,,,,,,,,,,,,,,,,,,,,,,,,,,,,,,,,,,,,,,,,,,,,,,,,,,,,,,,,,,,,,,,,,,,,,,,,,,,,,,,,,,,,,,,,,,,,,,,,,,,,,,,,,,,,,,,,,,,,,,,,,,,,,,,,,,,,,,,,,,,,,,,,,,,
,,,,,,5d5ee4b5b3e1bf0001a46a7d,62bbfb4f7d44554892e31cac,2022-06-29_08h12.34.775,Colour_Asymmetry_Pilot,2022.1.3,Win32,60.08532116,62bbe60bf3d75ef465d3e404,0,93,93,127,1,fourthree,,,,,,,,,,,,,,,,,,,,,,,,,,,,,,,,,,,,,,,,,,,,,,,,,,,,,,,,,,,,,,,,,,,,,,,,,,,,,,,,,,,,,,,,,,,,,,,,,,,,,,,,,,,,,,,,,,,,,,,,,,,,,,,,,,,,,,,,,,,,,,,,,,,,,,,,
,,,,,,5d5ee4b5b3e1bf0001a46a7d,62bbfb4f7d44554892e31cac,2022-06-29_08h12.34.775,Colour_Asymmetry_Pilot,2022.1.3,Win32,60.08532116,62bbe60bf3d75ef465d3e404,0,94,94,70,1,fourtwo,,,,,,,,,,,,,,,,,,,,,,,,,,,,,,,,,,,,,,,,,,,,,,,,,,,,,,,,,,,,,,,,,,,,,,,,,,,,,,,,,,,,,,,,,,,,,,,,,,,,,,,,,,,,,,,,,,,,,,,,,,,,,,,,,,,,,,,,,,,,,,,,,,,,,,,,
,,,,,,5d5ee4b5b3e1bf0001a46a7d,62bbfb4f7d44554892e31cac,2022-06-29_08h12.34.775,Colour_Asymmetry_Pilot,2022.1.3,Win32,60.08532116,62bbe60bf3d75ef465d3e404,0,95,95,18,1,twoone,,,,,,,,,,,,,,,,,,,,,,,,,,,,,,,,,,,,,,,,,,,,,,,,,,,,,,,,,,,,,,,,,,,,,,,,,,,,,,,,,,,,,,,,,,,,,,,,,,,,,,,,,,,,,,,,,,,,,,,,,,,,,,,,,,,,,,,,,,,,,,,,,,,,,,,,
,,,,,,5d5ee4b5b3e1bf0001a46a7d,62bbfb4f7d44554892e31cac,2022-06-29_08h12.34.775,Colour_Asymmetry_Pilot,2022.1.3,Win32,60.08532116,62bbe60bf3d75ef465d3e404,0,96,96,132,1,threeone,,,,,,,,,,,,,,,,,,,,,,,,,,,,,,,,,,,,,,,,,,,,,,,,,,,,,,,,,,,,,,,,,,,,,,,,,,,,,,,,,,,,,,,,,,,,,,,,,,,,,,,,,,,,,,,,,,,,,,,,,,,,,,,,,,,,,,,,,,,,,,,,,,,,,,,,
,,,,,,5d5ee4b5b3e1bf0001a46a7d,62bbfb4f7d44554892e31cac,2022-06-29_08h12.34.775,Colour_Asymmetry_Pilot,2022.1.3,Win32,60.08532116,62bbe60bf3d75ef465d3e404,0,97,97,73,1,onethree,,,,,,,,,,,,,,,,,,,,,,,,,,,,,,,,,,,,,,,,,,,,,,,,,,,,,,,,,,,,,,,,,,,,,,,,,,,,,,,,,,,,,,,,,,,,,,,,,,,,,,,,,,,,,,,,,,,,,,,,,,,,,,,,,,,,,,,,,,,,,,,,,,,,,,,,
,,,,,,5d5ee4b5b3e1bf0001a46a7d,62bbfb4f7d44554892e31cac,2022-06-29_08h12.34.775,Colour_Asymmetry_Pilot,2022.1.3,Win32,60.08532116,62bbe60bf3d75ef465d3e404,0,98,98,44,1,threeone,,,,,,,,,,,,,,,,,,,,,,,,,,,,,,,,,,,,,,,,,,,,,,,,,,,,,,,,,,,,,,,,,,,,,,,,,,,,,,,,,,,,,,,,,,,,,,,,,,,,,,,,,,,,,,,,,,,,,,,,,,,,,,,,,,,,,,,,,,,,,,,,,,,,,,,,
,,,,,,5d5ee4b5b3e1bf0001a46a7d,62bbfb4f7d44554892e31cac,2022-06-29_08h12.34.775,Colour_Asymmetry_Pilot,2022.1.3,Win32,60.08532116,62bbe60bf3d75ef465d3e404,0,99,99,151,1,fourthree,,,,,,,,,,,,,,,,,,,,,,,,,,,,,,,,,,,,,,,,,,,,,,,,,,,,,,,,,,,,,,,,,,,,,,,,,,,,,,,,,,,,,,,,,,,,,,,,,,,,,,,,,,,,,,,,,,,,,,,,,,,,,,,,,,,,,,,,,,,,,,,,,,,,,,,,
,,,,,,5d5ee4b5b3e1bf0001a46a7d,62bbfb4f7d44554892e31cac,2022-06-29_08h12.34.775,Colour_Asymmetry_Pilot,2022.1.3,Win32,60.08532116,62bbe60bf3d75ef465d3e404,0,100,100,67,1,twofour,,,,,,,,,,,,,,,,,,,,,,,,,,,,,,,,,,,,,,,,,,,,,,,,,,,,,,,,,,,,,,,,,,,,,,,,,,,,,,,,,,,,,,,,,,,,,,,,,,,,,,,,,,,,,,,,,,,,,,,,,,,,,,,,,,,,,,,,,,,,,,,,,,,,,,,,
,,,,,,5d5ee4b5b3e1bf0001a46a7d,62bbfb4f7d44554892e31cac,2022-06-29_08h12.34.775,Colour_Asymmetry_Pilot,2022.1.3,Win32,60.08532116,62bbe60bf3d75ef465d3e404,0,101,101,2,1,twoone,,,,,,,,,,,,,,,,,,,,,,,,,,,,,,,,,,,,,,,,,,,,,,,,,,,,,,,,,,,,,,,,,,,,,,,,,,,,,,,,,,,,,,,,,,,,,,,,,,,,,,,,,,,,,,,,,,,,,,,,,,,,,,,,,,,,,,,,,,,,,,,,,,,,,,,,
,,,,,,5d5ee4b5b3e1bf0001a46a7d,62bbfb4f7d44554892e31cac,2022-06-29_08h12.34.775,Colour_Asymmetry_Pilot,2022.1.3,Win32,60.08532116,62bbe60bf3d75ef465d3e404,0,102,102,136,1,onetwo,,,,,,,,,,,,,,,,,,,,,,,,,,,,,,,,,,,,,,,,,,,,,,,,,,,,,,,,,,,,,,,,,,,,,,,,,,,,,,,,,,,,,,,,,,,,,,,,,,,,,,,,,,,,,,,,,,,,,,,,,,,,,,,,,,,,,,,,,,,,,,,,,,,,,,,,
,,,,,,5d5ee4b5b3e1bf0001a46a7d,62bbfb4f7d44554892e31cac,2022-06-29_08h12.34.775,Colour_Asymmetry_Pilot,2022.1.3,Win32,60.08532116,62bbe60bf3d75ef465d3e404,0,103,103,22,1,fourtwo,,,,,,,,,,,,,,,,,,,,,,,,,,,,,,,,,,,,,,,,,,,,,,,,,,,,,,,,,,,,,,,,,,,,,,,,,,,,,,,,,,,,,,,,,,,,,,,,,,,,,,,,,,,,,,,,,,,,,,,,,,,,,,,,,,,,,,,,,,,,,,,,,,,,,,,,
,,,,,,5d5ee4b5b3e1bf0001a46a7d,62bbfb4f7d44554892e31cac,2022-06-29_08h12.34.775,Colour_Asymmetry_Pilot,2022.1.3,Win32,60.08532116,62bbe60bf3d75ef465d3e404,0,104,104,58,1,twoone,,,,,,,,,,,,,,,,,,,,,,,,,,,,,,,,,,,,,,,,,,,,,,,,,,,,,,,,,,,,,,,,,,,,,,,,,,,,,,,,,,,,,,,,,,,,,,,,,,,,,,,,,,,,,,,,,,,,,,,,,,,,,,,,,,,,,,,,,,,,,,,,,,,,,,,,
,,,,,,5d5ee4b5b3e1bf0001a46a7d,62bbfb4f7d44554892e31cac,2022-06-29_08h12.34.775,Colour_Asymmetry_Pilot,2022.1.3,Win32,60.08532116,62bbe60bf3d75ef465d3e404,0,105,105,141,1,threefour,,,,,,,,,,,,,,,,,,,,,,,,,,,,,,,,,,,,,,,,,,,,,,,,,,,,,,,,,,,,,,,,,,,,,,,,,,,,,,,,,,,,,,,,,,,,,,,,,,,,,,,,,,,,,,,,,,,,,,,,,,,,,,,,,,,,,,,,,,,,,,,,,,,,,,,,
,,,,,,5d5ee4b5b3e1bf0001a46a7d,62bbfb4f7d44554892e31cac,2022-06-29_08h12.34.775,Colour_Asymmetry_Pilot,2022.1.3,Win32,60.08532116,62bbe60bf3d75ef465d3e404,0,106,106,129,1,onethree,,,,,,,,,,,,,,,,,,,,,,,,,,,,,,,,,,,,,,,,,,,,,,,,,,,,,,,,,,,,,,,,,,,,,,,,,,,,,,,,,,,,,,,,,,,,,,,,,,,,,,,,,,,,,,,,,,,,,,,,,,,,,,,,,,,,,,,,,,,,,,,,,,,,,,,,
,,,,,,5d5ee4b5b3e1bf0001a46a7d,62bbfb4f7d44554892e31cac,2022-06-29_08h12.34.775,Colour_Asymmetry_Pilot,2022.1.3,Win32,60.08532116,62bbe60bf3d75ef465d3e404,0,107,107,78,1,fourtwo,,,,,,,,,,,,,,,,,,,,,,,,,,,,,,,,,,,,,,,,,,,,,,,,,,,,,,,,,,,,,,,,,,,,,,,,,,,,,,,,,,,,,,,,,,,,,,,,,,,,,,,,,,,,,,,,,,,,,,,,,,,,,,,,,,,,,,,,,,,,,,,,,,,,,,,,
,,,,,,5d5ee4b5b3e1bf0001a46a7d,62bbfb4f7d44554892e31cac,2022-06-29_08h12.34.775,Colour_Asymmetry_Pilot,2022.1.3,Win32,60.08532116,62bbe60bf3d75ef465d3e404,0,108,108,40,1,onetwo,,,,,,,,,,,,,,,,,,,,,,,,,,,,,,,,,,,,,,,,,,,,,,,,,,,,,,,,,,,,,,,,,,,,,,,,,,,,,,,,,,,,,,,,,,,,,,,,,,,,,,,,,,,,,,,,,,,,,,,,,,,,,,,,,,,,,,,,,,,,,,,,,,,,,,,,
,,,,,,5d5ee4b5b3e1bf0001a46a7d,62bbfb4f7d44554892e31cac,2022-06-29_08h12.34.775,Colour_Asymmetry_Pilot,2022.1.3,Win32,60.08532116,62bbe60bf3d75ef465d3e404,0,109,109,121,1,onethree,,,,,,,,,,,,,,,,,,,,,,,,,,,,,,,,,,,,,,,,,,,,,,,,,,,,,,,,,,,,,,,,,,,,,,,,,,,,,,,,,,,,,,,,,,,,,,,,,,,,,,,,,,,,,,,,,,,,,,,,,,,,,,,,,,,,,,,,,,,,,,,,,,,,,,,,
,,,,,,5d5ee4b5b3e1bf0001a46a7d,62bbfb4f7d44554892e31cac,2022-06-29_08h12.34.775,Colour_Asymmetry_Pilot,2022.1.3,Win32,60.08532116,62bbe60bf3d75ef465d3e404,0,110,110,99,1,twofour,,,,,,,,,,,,,,,,,,,,,,,,,,,,,,,,,,,,,,,,,,,,,,,,,,,,,,,,,,,,,,,,,,,,,,,,,,,,,,,,,,,,,,,,,,,,,,,,,,,,,,,,,,,,,,,,,,,,,,,,,,,,,,,,,,,,,,,,,,,,,,,,,,,,,,,,
,,,,,,5d5ee4b5b3e1bf0001a46a7d,62bbfb4f7d44554892e31cac,2022-06-29_08h12.34.775,Colour_Asymmetry_Pilot,2022.1.3,Win32,60.08532116,62bbe60bf3d75ef465d3e404,0,111,111,158,1,fourtwo,,,,,,,,,,,,,,,,,,,,,,,,,,,,,,,,,,,,,,,,,,,,,,,,,,,,,,,,,,,,,,,,,,,,,,,,,,,,,,,,,,,,,,,,,,,,,,,,,,,,,,,,,,,,,,,,,,,,,,,,,,,,,,,,,,,,,,,,,,,,,,,,,,,,,,,,
,,,,,,5d5ee4b5b3e1bf0001a46a7d,62bbfb4f7d44554892e31cac,2022-06-29_08h12.34.775,Colour_Asymmetry_Pilot,2022.1.3,Win32,60.08532116,62bbe60bf3d75ef465d3e404,0,112,112,3,1,twofour,,,,,,,,,,,,,,,,,,,,,,,,,,,,,,,,,,,,,,,,,,,,,,,,,,,,,,,,,,,,,,,,,,,,,,,,,,,,,,,,,,,,,,,,,,,,,,,,,,,,,,,,,,,,,,,,,,,,,,,,,,,,,,,,,,,,,,,,,,,,,,,,,,,,,,,,
,,,,,,5d5ee4b5b3e1bf0001a46a7d,62bbfb4f7d44554892e31cac,2022-06-29_08h12.34.775,Colour_Asymmetry_Pilot,2022.1.3,Win32,60.08532116,62bbe60bf3d75ef465d3e404,0,113,113,143,1,fourthree,,,,,,,,,,,,,,,,,,,,,,,,,,,,,,,,,,,,,,,,,,,,,,,,,,,,,,,,,,,,,,,,,,,,,,,,,,,,,,,,,,,,,,,,,,,,,,,,,,,,,,,,,,,,,,,,,,,,,,,,,,,,,,,,,,,,,,,,,,,,,,,,,,,,,,,,
,,,,,,5d5ee4b5b3e1bf0001a46a7d,62bbfb4f7d44554892e31cac,2022-06-29_08h12.34.775,Colour_Asymmetry_Pilot,2022.1.3,Win32,60.08532116,62bbe60bf3d75ef465d3e404,0,114,114,124,1,threeone,,,,,,,,,,,,,,,,,,,,,,,,,,,,,,,,,,,,,,,,,,,,,,,,,,,,,,,,,,,,,,,,,,,,,,,,,,,,,,,,,,,,,,,,,,,,,,,,,,,,,,,,,,,,,,,,,,,,,,,,,,,,,,,,,,,,,,,,,,,,,,,,,,,,,,,,
,,,,,,5d5ee4b5b3e1bf0001a46a7d,62bbfb4f7d44554892e31cac,2022-06-29_08h12.34.775,Colour_Asymmetry_Pilot,2022.1.3,Win32,60.08532116,62bbe60bf3d75ef465d3e404,0,115,115,38,1,fourtwo,,,,,,,,,,,,,,,,,,,,,,,,,,,,,,,,,,,,,,,,,,,,,,,,,,,,,,,,,,,,,,,,,,,,,,,,,,,,,,,,,,,,,,,,,,,,,,,,,,,,,,,,,,,,,,,,,,,,,,,,,,,,,,,,,,,,,,,,,,,,,,,,,,,,,,,,
,,,,,,5d5ee4b5b3e1bf0001a46a7d,62bbfb4f7d44554892e31cac,2022-06-29_08h12.34.775,Colour_Asymmetry_Pilot,2022.1.3,Win32,60.08532116,62bbe60bf3d75ef465d3e404,0,116,116,15,1,fourthree,,,,,,,,,,,,,,,,,,,,,,,,,,,,,,,,,,,,,,,,,,,,,,,,,,,,,,,,,,,,,,,,,,,,,,,,,,,,,,,,,,,,,,,,,,,,,,,,,,,,,,,,,,,,,,,,,,,,,,,,,,,,,,,,,,,,,,,,,,,,,,,,,,,,,,,,
,,,,,,5d5ee4b5b3e1bf0001a46a7d,62bbfb4f7d44554892e31cac,2022-06-29_08h12.34.775,Colour_Asymmetry_Pilot,2022.1.3,Win32,60.08532116,62bbe60bf3d75ef465d3e404,0,117,117,16,1,onetwo,,,,,,,,,,,,,,,,,,,,,,,,,,,,,,,,,,,,,,,,,,,,,,,,,,,,,,,,,,,,,,,,,,,,,,,,,,,,,,,,,,,,,,,,,,,,,,,,,,,,,,,,,,,,,,,,,,,,,,,,,,,,,,,,,,,,,,,,,,,,,,,,,,,,,,,,
,,,,,,5d5ee4b5b3e1bf0001a46a7d,62bbfb4f7d44554892e31cac,2022-06-29_08h12.34.775,Colour_Asymmetry_Pilot,2022.1.3,Win32,60.08532116,62bbe60bf3d75ef465d3e404,0,118,118,104,1,onetwo,,,,,,,,,,,,,,,,,,,,,,,,,,,,,,,,,,,,,,,,,,,,,,,,,,,,,,,,,,,,,,,,,,,,,,,,,,,,,,,,,,,,,,,,,,,,,,,,,,,,,,,,,,,,,,,,,,,,,,,,,,,,,,,,,,,,,,,,,,,,,,,,,,,,,,,,
,,,,,,5d5ee4b5b3e1bf0001a46a7d,62bbfb4f7d44554892e31cac,2022-06-29_08h12.34.775,Colour_Asymmetry_Pilot,2022.1.3,Win32,60.08532116,62bbe60bf3d75ef465d3e404,0,119,119,97,1,onethree,,,,,,,,,,,,,,,,,,,,,,,,,,,,,,,,,,,,,,,,,,,,,,,,,,,,,,,,,,,,,,,,,,,,,,,,,,,,,,,,,,,,,,,,,,,,,,,,,,,,,,,,,,,,,,,,,,,,,,,,,,,,,,,,,,,,,,,,,,,,,,,,,,,,,,,,
,,,,,,5d5ee4b5b3e1bf0001a46a7d,62bbfb4f7d44554892e31cac,2022-06-29_08h12.34.775,Colour_Asymmetry_Pilot,2022.1.3,Win32,60.08532116,62bbe60bf3d75ef465d3e404,0,120,120,157,1,threefour,,,,,,,,,,,,,,,,,,,,,,,,,,,,,,,,,,,,,,,,,,,,,,,,,,,,,,,,,,,,,,,,,,,,,,,,,,,,,,,,,,,,,,,,,,,,,,,,,,,,,,,,,,,,,,,,,,,,,,,,,,,,,,,,,,,,,,,,,,,,,,,,,,,,,,,,
,,,,,,5d5ee4b5b3e1bf0001a46a7d,62bbfb4f7d44554892e31cac,2022-06-29_08h12.34.775,Colour_Asymmetry_Pilot,2022.1.3,Win32,60.08532116,62bbe60bf3d75ef465d3e404,0,121,121,115,1,twofour,,,,,,,,,,,,,,,,,,,,,,,,,,,,,,,,,,,,,,,,,,,,,,,,,,,,,,,,,,,,,,,,,,,,,,,,,,,,,,,,,,,,,,,,,,,,,,,,,,,,,,,,,,,,,,,,,,,,,,,,,,,,,,,,,,,,,,,,,,,,,,,,,,,,,,,,
,,,,,,5d5ee4b5b3e1bf0001a46a7d,62bbfb4f7d44554892e31cac,2022-06-29_08h12.34.775,Colour_Asymmetry_Pilot,2022.1.3,Win32,60.08532116,62bbe60bf3d75ef465d3e404,0,122,122,145,1,onethree,,,,,,,,,,,,,,,,,,,,,,,,,,,,,,,,,,,,,,,,,,,,,,,,,,,,,,,,,,,,,,,,,,,,,,,,,,,,,,,,,,,,,,,,,,,,,,,,,,,,,,,,,,,,,,,,,,,,,,,,,,,,,,,,,,,,,,,,,,,,,,,,,,,,,,,,
,,,,,,5d5ee4b5b3e1bf0001a46a7d,62bbfb4f7d44554892e31cac,2022-06-29_08h12.34.775,Colour_Asymmetry_Pilot,2022.1.3,Win32,60.08532116,62bbe60bf3d75ef465d3e404,0,123,123,144,1,onetwo,,,,,,,,,,,,,,,,,,,,,,,,,,,,,,,,,,,,,,,,,,,,,,,,,,,,,,,,,,,,,,,,,,,,,,,,,,,,,,,,,,,,,,,,,,,,,,,,,,,,,,,,,,,,,,,,,,,,,,,,,,,,,,,,,,,,,,,,,,,,,,,,,,,,,,,,
,,,,,,5d5ee4b5b3e1bf0001a46a7d,62bbfb4f7d44554892e31cac,2022-06-29_08h12.34.775,Colour_Asymmetry_Pilot,2022.1.3,Win32,60.08532116,62bbe60bf3d75ef465d3e404,0,124,124,94,1,fourtwo,,,,,,,,,,,,,,,,,,,,,,,,,,,,,,,,,,,,,,,,,,,,,,,,,,,,,,,,,,,,,,,,,,,,,,,,,,,,,,,,,,,,,,,,,,,,,,,,,,,,,,,,,,,,,,,,,,,,,,,,,,,,,,,,,,,,,,,,,,,,,,,,,,,,,,,,
,,,,,,5d5ee4b5b3e1bf0001a46a7d,62bbfb4f7d44554892e31cac,2022-06-29_08h12.34.775,Colour_Asymmetry_Pilot,2022.1.3,Win32,60.08532116,62bbe60bf3d75ef465d3e404,0,125,125,120,1,onetwo,,,,,,,,,,,,,,,,,,,,,,,,,,,,,,,,,,,,,,,,,,,,,,,,,,,,,,,,,,,,,,,,,,,,,,,,,,,,,,,,,,,,,,,,,,,,,,,,,,,,,,,,,,,,,,,,,,,,,,,,,,,,,,,,,,,,,,,,,,,,,,,,,,,,,,,,
,,,,,,5d5ee4b5b3e1bf0001a46a7d,62bbfb4f7d44554892e31cac,2022-06-29_08h12.34.775,Colour_Asymmetry_Pilot,2022.1.3,Win32,60.08532116,62bbe60bf3d75ef465d3e404,0,126,126,112,1,onetwo,,,,,,,,,,,,,,,,,,,,,,,,,,,,,,,,,,,,,,,,,,,,,,,,,,,,,,,,,,,,,,,,,,,,,,,,,,,,,,,,,,,,,,,,,,,,,,,,,,,,,,,,,,,,,,,,,,,,,,,,,,,,,,,,,,,,,,,,,,,,,,,,,,,,,,,,
,,,,,,5d5ee4b5b3e1bf0001a46a7d,62bbfb4f7d44554892e31cac,2022-06-29_08h12.34.775,Colour_Asymmetry_Pilot,2022.1.3,Win32,60.08532116,62bbe60bf3d75ef465d3e404,0,127,127,107,1,twofour,,,,,,,,,,,,,,,,,,,,,,,,,,,,,,,,,,,,,,,,,,,,,,,,,,,,,,,,,,,,,,,,,,,,,,,,,,,,,,,,,,,,,,,,,,,,,,,,,,,,,,,,,,,,,,,,,,,,,,,,,,,,,,,,,,,,,,,,,,,,,,,,,,,,,,,,
,,,,,,5d5ee4b5b3e1bf0001a46a7d,62bbfb4f7d44554892e31cac,2022-06-29_08h12.34.775,Colour_Asymmetry_Pilot,2022.1.3,Win32,60.08532116,62bbe60bf3d75ef465d3e404,0,128,128,1,1,onethree,,,,,,,,,,,,,,,,,,,,,,,,,,,,,,,,,,,,,,,,,,,,,,,,,,,,,,,,,,,,,,,,,,,,,,,,,,,,,,,,,,,,,,,,,,,,,,,,,,,,,,,,,,,,,,,,,,,,,,,,,,,,,,,,,,,,,,,,,,,,,,,,,,,,,,,,
,,,,,,5d5ee4b5b3e1bf0001a46a7d,62bbfb4f7d44554892e31cac,2022-06-29_08h12.34.775,Colour_Asymmetry_Pilot,2022.1.3,Win32,60.08532116,62bbe60bf3d75ef465d3e404,0,129,129,74,1,twoone,,,,,,,,,,,,,,,,,,,,,,,,,,,,,,,,,,,,,,,,,,,,,,,,,,,,,,,,,,,,,,,,,,,,,,,,,,,,,,,,,,,,,,,,,,,,,,,,,,,,,,,,,,,,,,,,,,,,,,,,,,,,,,,,,,,,,,,,,,,,,,,,,,,,,,,,
,,,,,,5d5ee4b5b3e1bf0001a46a7d,62bbfb4f7d44554892e31cac,2022-06-29_08h12.34.775,Colour_Asymmetry_Pilot,2022.1.3,Win32,60.08532116,62bbe60bf3d75ef465d3e404,0,130,130,63,1,fourthree,,,,,,,,,,,,,,,,,,,,,,,,,,,,,,,,,,,,,,,,,,,,,,,,,,,,,,,,,,,,,,,,,,,,,,,,,,,,,,,,,,,,,,,,,,,,,,,,,,,,,,,,,,,,,,,,,,,,,,,,,,,,,,,,,,,,,,,,,,,,,,,,,,,,,,,,
,,,,,,5d5ee4b5b3e1bf0001a46a7d,62bbfb4f7d44554892e31cac,2022-06-29_08h12.34.775,Colour_Asymmetry_Pilot,2022.1.3,Win32,60.08532116,62bbe60bf3d75ef465d3e404,0,131,131,152,1,onetwo,,,,,,,,,,,,,,,,,,,,,,,,,,,,,,,,,,,,,,,,,,,,,,,,,,,,,,,,,,,,,,,,,,,,,,,,,,,,,,,,,,,,,,,,,,,,,,,,,,,,,,,,,,,,,,,,,,,,,,,,,,,,,,,,,,,,,,,,,,,,,,,,,,,,,,,,
,,,,,,5d5ee4b5b3e1bf0001a46a7d,62bbfb4f7d44554892e31cac,2022-06-29_08h12.34.775,Colour_Asymmetry_Pilot,2022.1.3,Win32,60.08532116,62bbe60bf3d75ef465d3e404,0,132,132,54,1,fourtwo,,,,,,,,,,,,,,,,,,,,,,,,,,,,,,,,,,,,,,,,,,,,,,,,,,,,,,,,,,,,,,,,,,,,,,,,,,,,,,,,,,,,,,,,,,,,,,,,,,,,,,,,,,,,,,,,,,,,,,,,,,,,,,,,,,,,,,,,,,,,,,,,,,,,,,,,
,,,,,,5d5ee4b5b3e1bf0001a46a7d,62bbfb4f7d44554892e31cac,2022-06-29_08h12.34.775,Colour_Asymmetry_Pilot,2022.1.3,Win32,60.08532116,62bbe60bf3d75ef465d3e404,0,133,133,60,1,threeone,,,,,,,,,,,,,,,,,,,,,,,,,,,,,,,,,,,,,,,,,,,,,,,,,,,,,,,,,,,,,,,,,,,,,,,,,,,,,,,,,,,,,,,,,,,,,,,,,,,,,,,,,,,,,,,,,,,,,,,,,,,,,,,,,,,,,,,,,,,,,,,,,,,,,,,,
,,,,,,5d5ee4b5b3e1bf0001a46a7d,62bbfb4f7d44554892e31cac,2022-06-29_08h12.34.775,Colour_Asymmetry_Pilot,2022.1.3,Win32,60.08532116,62bbe60bf3d75ef465d3e404,0,134,134,20,1,threeone,,,,,,,,,,,,,,,,,,,,,,,,,,,,,,,,,,,,,,,,,,,,,,,,,,,,,,,,,,,,,,,,,,,,,,,,,,,,,,,,,,,,,,,,,,,,,,,,,,,,,,,,,,,,,,,,,,,,,,,,,,,,,,,,,,,,,,,,,,,,,,,,,,,,,,,,
,,,,,,5d5ee4b5b3e1bf0001a46a7d,62bbfb4f7d44554892e31cac,2022-06-29_08h12.34.775,Colour_Asymmetry_Pilot,2022.1.3,Win32,60.08532116,62bbe60bf3d75ef465d3e404,0,135,135,8,1,onetwo,,,,,,,,,,,,,,,,,,,,,,,,,,,,,,,,,,,,,,,,,,,,,,,,,,,,,,,,,,,,,,,,,,,,,,,,,,,,,,,,,,,,,,,,,,,,,,,,,,,,,,,,,,,,,,,,,,,,,,,,,,,,,,,,,,,,,,,,,,,,,,,,,,,,,,,,
,,,,,,5d5ee4b5b3e1bf0001a46a7d,62bbfb4f7d44554892e31cac,2022-06-29_08h12.34.775,Colour_Asymmetry_Pilot,2022.1.3,Win32,60.08532116,62bbe60bf3d75ef465d3e404,0,136,136,17,1,onethree,,,,,,,,,,,,,,,,,,,,,,,,,,,,,,,,,,,,,,,,,,,,,,,,,,,,,,,,,,,,,,,,,,,,,,,,,,,,,,,,,,,,,,,,,,,,,,,,,,,,,,,,,,,,,,,,,,,,,,,,,,,,,,,,,,,,,,,,,,,,,,,,,,,,,,,,
,,,,,,5d5ee4b5b3e1bf0001a46a7d,62bbfb4f7d44554892e31cac,2022-06-29_08h12.34.775,Colour_Asymmetry_Pilot,2022.1.3,Win32,60.08532116,62bbe60bf3d75ef465d3e404,0,137,137,111,1,fourthree,,,,,,,,,,,,,,,,,,,,,,,,,,,,,,,,,,,,,,,,,,,,,,,,,,,,,,,,,,,,,,,,,,,,,,,,,,,,,,,,,,,,,,,,,,,,,,,,,,,,,,,,,,,,,,,,,,,,,,,,,,,,,,,,,,,,,,,,,,,,,,,,,,,,,,,,
,,,,,,5d5ee4b5b3e1bf0001a46a7d,62bbfb4f7d44554892e31cac,2022-06-29_08h12.34.775,Colour_Asymmetry_Pilot,2022.1.3,Win32,60.08532116,62bbe60bf3d75ef465d3e404,0,138,138,92,1,threeone,,,,,,,,,,,,,,,,,,,,,,,,,,,,,,,,,,,,,,,,,,,,,,,,,,,,,,,,,,,,,,,,,,,,,,,,,,,,,,,,,,,,,,,,,,,,,,,,,,,,,,,,,,,,,,,,,,,,,,,,,,,,,,,,,,,,,,,,,,,,,,,,,,,,,,,,
,,,,,,5d5ee4b5b3e1bf0001a46a7d,62bbfb4f7d44554892e31cac,2022-06-29_08h12.34.775,Colour_Asymmetry_Pilot,2022.1.3,Win32,60.08532116,62bbe60bf3d75ef465d3e404,0,139,139,64,1,onetwo,,,,,,,,,,,,,,,,,,,,,,,,,,,,,,,,,,,,,,,,,,,,,,,,,,,,,,,,,,,,,,,,,,,,,,,,,,,,,,,,,,,,,,,,,,,,,,,,,,,,,,,,,,,,,,,,,,,,,,,,,,,,,,,,,,,,,,,,,,,,,,,,,,,,,,,,
,,,,,,5d5ee4b5b3e1bf0001a46a7d,62bbfb4f7d44554892e31cac,2022-06-29_08h12.34.775,Colour_Asymmetry_Pilot,2022.1.3,Win32,60.08532116,62bbe60bf3d75ef465d3e404,0,140,140,50,1,twoone,,,,,,,,,,,,,,,,,,,,,,,,,,,,,,,,,,,,,,,,,,,,,,,,,,,,,,,,,,,,,,,,,,,,,,,,,,,,,,,,,,,,,,,,,,,,,,,,,,,,,,,,,,,,,,,,,,,,,,,,,,,,,,,,,,,,,,,,,,,,,,,,,,,,,,,,
,,,,,,5d5ee4b5b3e1bf0001a46a7d,62bbfb4f7d44554892e31cac,2022-06-29_08h12.34.775,Colour_Asymmetry_Pilot,2022.1.3,Win32,60.08532116,62bbe60bf3d75ef465d3e404,0,141,141,108,1,threeone,,,,,,,,,,,,,,,,,,,,,,,,,,,,,,,,,,,,,,,,,,,,,,,,,,,,,,,,,,,,,,,,,,,,,,,,,,,,,,,,,,,,,,,,,,,,,,,,,,,,,,,,,,,,,,,,,,,,,,,,,,,,,,,,,,,,,,,,,,,,,,,,,,,,,,,,
,,,,,,5d5ee4b5b3e1bf0001a46a7d,62bbfb4f7d44554892e31cac,2022-06-29_08h12.34.775,Colour_Asymmetry_Pilot,2022.1.3,Win32,60.08532116,62bbe60bf3d75ef465d3e404,0,142,142,77,1,threefour,,,,,,,,,,,,,,,,,,,,,,,,,,,,,,,,,,,,,,,,,,,,,,,,,,,,,,,,,,,,,,,,,,,,,,,,,,,,,,,,,,,,,,,,,,,,,,,,,,,,,,,,,,,,,,,,,,,,,,,,,,,,,,,,,,,,,,,,,,,,,,,,,,,,,,,,
,,,,,,5d5ee4b5b3e1bf0001a46a7d,62bbfb4f7d44554892e31cac,2022-06-29_08h12.34.775,Colour_Asymmetry_Pilot,2022.1.3,Win32,60.08532116,62bbe60bf3d75ef465d3e404,0,143,143,53,1,threefour,,,,,,,,,,,,,,,,,,,,,,,,,,,,,,,,,,,,,,,,,,,,,,,,,,,,,,,,,,,,,,,,,,,,,,,,,,,,,,,,,,,,,,,,,,,,,,,,,,,,,,,,,,,,,,,,,,,,,,,,,,,,,,,,,,,,,,,,,,,,,,,,,,,,,,,,
,,,,,,5d5ee4b5b3e1bf0001a46a7d,62bbfb4f7d44554892e31cac,2022-06-29_08h12.34.775,Colour_Asymmetry_Pilot,2022.1.3,Win32,60.08532116,62bbe60bf3d75ef465d3e404,0,144,144,80,1,onetwo,,,,,,,,,,,,,,,,,,,,,,,,,,,,,,,,,,,,,,,,,,,,,,,,,,,,,,,,,,,,,,,,,,,,,,,,,,,,,,,,,,,,,,,,,,,,,,,,,,,,,,,,,,,,,,,,,,,,,,,,,,,,,,,,,,,,,,,,,,,,,,,,,,,,,,,,
,,,,,,5d5ee4b5b3e1bf0001a46a7d,62bbfb4f7d44554892e31cac,2022-06-29_08h12.34.775,Colour_Asymmetry_Pilot,2022.1.3,Win32,60.08532116,62bbe60bf3d75ef465d3e404,0,145,145,23,1,fourthree,,,,,,,,,,,,,,,,,,,,,,,,,,,,,,,,,,,,,,,,,,,,,,,,,,,,,,,,,,,,,,,,,,,,,,,,,,,,,,,,,,,,,,,,,,,,,,,,,,,,,,,,,,,,,,,,,,,,,,,,,,,,,,,,,,,,,,,,,,,,,,,,,,,,,,,,
,,,,,,5d5ee4b5b3e1bf0001a46a7d,62bbfb4f7d44554892e31cac,2022-06-29_08h12.34.775,Colour_Asymmetry_Pilot,2022.1.3,Win32,60.08532116,62bbe60bf3d75ef465d3e404,0,146,146,130,1,twoone,,,,,,,,,,,,,,,,,,,,,,,,,,,,,,,,,,,,,,,,,,,,,,,,,,,,,,,,,,,,,,,,,,,,,,,,,,,,,,,,,,,,,,,,,,,,,,,,,,,,,,,,,,,,,,,,,,,,,,,,,,,,,,,,,,,,,,,,,,,,,,,,,,,,,,,,
,,,,,,5d5ee4b5b3e1bf0001a46a7d,62bbfb4f7d44554892e31cac,2022-06-29_08h12.34.775,Colour_Asymmetry_Pilot,2022.1.3,Win32,60.08532116,62bbe60bf3d75ef465d3e404,0,147,147,117,1,threefour,,,,,,,,,,,,,,,,,,,,,,,,,,,,,,,,,,,,,,,,,,,,,,,,,,,,,,,,,,,,,,,,,,,,,,,,,,,,,,,,,,,,,,,,,,,,,,,,,,,,,,,,,,,,,,,,,,,,,,,,,,,,,,,,,,,,,,,,,,,,,,,,,,,,,,,,
,,,,,,5d5ee4b5b3e1bf0001a46a7d,62bbfb4f7d44554892e31cac,2022-06-29_08h12.34.775,Colour_Asymmetry_Pilot,2022.1.3,Win32,60.08532116,62bbe60bf3d75ef465d3e404,0,148,148,26,1,twoone,,,,,,,,,,,,,,,,,,,,,,,,,,,,,,,,,,,,,,,,,,,,,,,,,,,,,,,,,,,,,,,,,,,,,,,,,,,,,,,,,,,,,,,,,,,,,,,,,,,,,,,,,,,,,,,,,,,,,,,,,,,,,,,,,,,,,,,,,,,,,,,,,,,,,,,,
,,,,,,5d5ee4b5b3e1bf0001a46a7d,62bbfb4f7d44554892e31cac,2022-06-29_08h12.34.775,Colour_Asymmetry_Pilot,2022.1.3,Win32,60.08532116,62bbe60bf3d75ef465d3e404,0,149,149,93,1,threefour,,,,,,,,,,,,,,,,,,,,,,,,,,,,,,,,,,,,,,,,,,,,,,,,,,,,,,,,,,,,,,,,,,,,,,,,,,,,,,,,,,,,,,,,,,,,,,,,,,,,,,,,,,,,,,,,,,,,,,,,,,,,,,,,,,,,,,,,,,,,,,,,,,,,,,,,
,,,,,,5d5ee4b5b3e1bf0001a46a7d,62bbfb4f7d44554892e31cac,2022-06-29_08h12.34.775,Colour_Asymmetry_Pilot,2022.1.3,Win32,60.08532116,62bbe60bf3d75ef465d3e404,0,150,150,71,1,fourthree,,,,,,,,,,,,,,,,,,,,,,,,,,,,,,,,,,,,,,,,,,,,,,,,,,,,,,,,,,,,,,,,,,,,,,,,,,,,,,,,,,,,,,,,,,,,,,,,,,,,,,,,,,,,,,,,,,,,,,,,,,,,,,,,,,,,,,,,,,,,,,,,,,,,,,,,
,,,,,,5d5ee4b5b3e1bf0001a46a7d,62bbfb4f7d44554892e31cac,2022-06-29_08h12.34.775,Colour_Asymmetry_Pilot,2022.1.3,Win32,60.08532116,62bbe60bf3d75ef465d3e404,0,151,151,123,1,twofour,,,,,,,,,,,,,,,,,,,,,,,,,,,,,,,,,,,,,,,,,,,,,,,,,,,,,,,,,,,,,,,,,,,,,,,,,,,,,,,,,,,,,,,,,,,,,,,,,,,,,,,,,,,,,,,,,,,,,,,,,,,,,,,,,,,,,,,,,,,,,,,,,,,,,,,,
,,,,,,5d5ee4b5b3e1bf0001a46a7d,62bbfb4f7d44554892e31cac,2022-06-29_08h12.34.775,Colour_Asymmetry_Pilot,2022.1.3,Win32,60.08532116,62bbe60bf3d75ef465d3e404,0,152,152,155,1,twofour,,,,,,,,,,,,,,,,,,,,,,,,,,,,,,,,,,,,,,,,,,,,,,,,,,,,,,,,,,,,,,,,,,,,,,,,,,,,,,,,,,,,,,,,,,,,,,,,,,,,,,,,,,,,,,,,,,,,,,,,,,,,,,,,,,,,,,,,,,,,,,,,,,,,,,,,
,,,,,,5d5ee4b5b3e1bf0001a46a7d,62bbfb4f7d44554892e31cac,2022-06-29_08h12.34.775,Colour_Asymmetry_Pilot,2022.1.3,Win32,60.08532116,62bbe60bf3d75ef465d3e404,0,153,153,110,1,fourtwo,,,,,,,,,,,,,,,,,,,,,,,,,,,,,,,,,,,,,,,,,,,,,,,,,,,,,,,,,,,,,,,,,,,,,,,,,,,,,,,,,,,,,,,,,,,,,,,,,,,,,,,,,,,,,,,,,,,,,,,,,,,,,,,,,,,,,,,,,,,,,,,,,,,,,,,,
,,,,,,5d5ee4b5b3e1bf0001a46a7d,62bbfb4f7d44554892e31cac,2022-06-29_08h12.34.775,Colour_Asymmetry_Pilot,2022.1.3,Win32,60.08532116,62bbe60bf3d75ef465d3e404,0,154,154,153,1,onethree,,,,,,,,,,,,,,,,,,,,,,,,,,,,,,,,,,,,,,,,,,,,,,,,,,,,,,,,,,,,,,,,,,,,,,,,,,,,,,,,,,,,,,,,,,,,,,,,,,,,,,,,,,,,,,,,,,,,,,,,,,,,,,,,,,,,,,,,,,,,,,,,,,,,,,,,
,,,,,,5d5ee4b5b3e1bf0001a46a7d,62bbfb4f7d44554892e31cac,2022-06-29_08h12.34.775,Colour_Asymmetry_Pilot,2022.1.3,Win32,60.08532116,62bbe60bf3d75ef465d3e404,0,155,155,56,1,onetwo,,,,,,,,,,,,,,,,,,,,,,,,,,,,,,,,,,,,,,,,,,,,,,,,,,,,,,,,,,,,,,,,,,,,,,,,,,,,,,,,,,,,,,,,,,,,,,,,,,,,,,,,,,,,,,,,,,,,,,,,,,,,,,,,,,,,,,,,,,,,,,,,,,,,,,,,
,,,,,,5d5ee4b5b3e1bf0001a46a7d,62bbfb4f7d44554892e31cac,2022-06-29_08h12.34.775,Colour_Asymmetry_Pilot,2022.1.3,Win32,60.08532116,62bbe60bf3d75ef465d3e404,0,156,156,27,1,twofour,,,,,,,,,,,,,,,,,,,,,,,,,,,,,,,,,,,,,,,,,,,,,,,,,,,,,,,,,,,,,,,,,,,,,,,,,,,,,,,,,,,,,,,,,,,,,,,,,,,,,,,,,,,,,,,,,,,,,,,,,,,,,,,,,,,,,,,,,,,,,,,,,,,,,,,,
,,,,,,5d5ee4b5b3e1bf0001a46a7d,62bbfb4f7d44554892e31cac,2022-06-29_08h12.34.775,Colour_Asymmetry_Pilot,2022.1.3,Win32,60.08532116,62bbe60bf3d75ef465d3e404,0,157,157,45,1,threefour,,,,,,,,,,,,,,,,,,,,,,,,,,,,,,,,,,,,,,,,,,,,,,,,,,,,,,,,,,,,,,,,,,,,,,,,,,,,,,,,,,,,,,,,,,,,,,,,,,,,,,,,,,,,,,,,,,,,,,,,,,,,,,,,,,,,,,,,,,,,,,,,,,,,,,,,
,,,,,,5d5ee4b5b3e1bf0001a46a7d,62bbfb4f7d44554892e31cac,2022-06-29_08h12.34.775,Colour_Asymmetry_Pilot,2022.1.3,Win32,60.08532116,62bbe60bf3d75ef465d3e404,0,158,158,46,1,fourtwo,,,,,,,,,,,,,,,,,,,,,,,,,,,,,,,,,,,,,,,,,,,,,,,,,,,,,,,,,,,,,,,,,,,,,,,,,,,,,,,,,,,,,,,,,,,,,,,,,,,,,,,,,,,,,,,,,,,,,,,,,,,,,,,,,,,,,,,,,,,,,,,,,,,,,,,,
,,,,,,5d5ee4b5b3e1bf0001a46a7d,62bbfb4f7d44554892e31cac,2022-06-29_08h12.34.775,Colour_Asymmetry_Pilot,2022.1.3,Win32,60.08532116,62bbe60bf3d75ef465d3e404,0,159,159,52,1,threeone,,,,,,,,,,,,,,,,,,,,,,,,,,,,,,,,,,,,,,,,,,,,,,,,,,,,,,,,,,,,,,,,,,,,,,,,,,,,,,,,,,,,,,,,,,,,,,,,,,,,,,,,,,,,,,,,,,,,,,,,,,,,,,,,,,,,,,,,,,,,,,,,,,,,,,,,
,,,,,,5d5ee4b5b3e1bf0001a46a7d,62bbfb4f7d44554892e31cac,2022-06-29_08h12.34.775,Colour_Asymmetry_Pilot,2022.1.3,Win32,60.08532116,62bbe60bf3d75ef465d3e404,0,160,160,9,1,onethree,,,,,,,,,,,,,,,,,,,,,,,,,,,,,,,,,,,,,,,,,,,,,,,,,,,,,,,,,,,,,,,,,,,,,,,,,,,,,,,,,,,,,,,,,,,,,,,,,,,,,,,,,,,,,,,,,,,,,,,,,,,,,,,,,,,,,,,,,,,,,,,,,,,,,,,,
,,,,,,5d5ee4b5b3e1bf0001a46a7d,62bbfb4f7d44554892e31cac,2022-06-29_08h12.34.775,Colour_Asymmetry_Pilot,2022.1.3,Win32,60.08532116,62bbe60bf3d75ef465d3e404,0,161,161,96,1,onetwo,,,,,,,,,,,,,,,,,,,,,,,,,,,,,,,,,,,,,,,,,,,,,,,,,,,,,,,,,,,,,,,,,,,,,,,,,,,,,,,,,,,,,,,,,,,,,,,,,,,,,,,,,,,,,,,,,,,,,,,,,,,,,,,,,,,,,,,,,,,,,,,,,,,,,,,,
,,,,,,5d5ee4b5b3e1bf0001a46a7d,62bbfb4f7d44554892e31cac,2022-06-29_08h12.34.775,Colour_Asymmetry_Pilot,2022.1.3,Win32,60.08532116,62bbe60bf3d75ef465d3e404,,,,,,,space,20.6543,space,43.9446,space,128.4219,space,16.782,space,5.1698,space,5.7312,"[0.05879999999999996,0.2784,0.5841999999999998]",twoone,"[-0.4276,0.0038000000000000256,-0.3256]",2,15.708,101.6000366,-73.6000061,1,0,0,response3disk_5,4.799987793,1.600006104,1,0,0,rectangle_8,4.799987793,1.600006104,1,0,0,2,4.799987793,1.600006104,1,0,0,0,0,0,0,1,,,,,,,,,,,,,,,,,,,,,,,,,,,,,,,,,,,,,,,,,,,,,,,,,,,,,,,,,,,,,,,,,,,,,,,,,,,,,,,,,,,,,,,,,,,,,,,,,,,,,,,,,,,
,,,,,,5d5ee4b5b3e1bf0001a46a7d,62bbfb4f7d44554892e31cac,2022-06-29_08h12.34.775,Colour_Asymmetry_Pilot,2022.1.3,Win32,60.08532116,62bbe60bf3d75ef465d3e404,,,,,,,,,,,,,,,,,,,"[0.6625999999999999,0.4980000000000002,-0.357]",threeone,"[0.5449999999999999,-0.31000000000000005,-0.0354000000000001]",-1,7.6645,-74.39996338,-92.79998779,1,0,0,response5disk_5,4,7.199981689,1,0,0,rectangle_8,123.2000122,-64,1,0,0,2,-5.599975586,10.3999939,1,0,0,1,0,1,0,1,response3disk_7,5,rectangle_4,,,,,,,,,,,,,,,,,,,,,,,,,,,,,,,,,,,,,,,,,,,,,,,,,,,,,,,,,,,,,,,,,,,,,,,,,,,,,,,,,,,,,,,,,,,,,,,,,,,,,,,,
,,,,,,5d5ee4b5b3e1bf0001a46a7d,62bbfb4f7d44554892e31cac,2022-06-29_08h12.34.775,Colour_Asymmetry_Pilot,2022.1.3,Win32,60.08532116,62bbe60bf3d75ef465d3e404,,,,,,,,,,,,,,,,,,,"[-0.34920000000000007,-0.702,-0.5216]",onethree,"[0.23920000000000008,0.2704,0.16060000000000008]",-3,4.3983,-60.79998779,33.6000061,1,0,0,response7disk_5,8,-4.800018311,1,0,0,rectangle_8,8,-4.800018311,1,0,0,2,8,-4.800018311,1,0,0,2,0,2,0,1,,,,,,,,,,,,,,,,,,,,,,,,,,,,,,,,,,,,,,,,,,,,,,,,,,,,,,,,,,,,,,,,,,,,,,,,,,,,,,,,,,,,,,,,,,,,,,,,,,,,,,,,,,,
,,,,,,5d5ee4b5b3e1bf0001a46a7d,62bbfb4f7d44554892e31cac,2022-06-29_08h12.34.775,Colour_Asymmetry_Pilot,2022.1.3,Win32,60.08532116,62bbe60bf3d75ef465d3e404,,,,,,,,,,,,,,,,,,,"[-0.24719999999999998,0.5213999999999999,-0.12959999999999994]",fourthree,"[-0.050999999999999934,-0.6706000000000001,-0.804]",-3,6.2317,-79.20001221,39.19998169,1,0,0,response7disk_5,18.40002441,-1.600006104,1,0,0,rectangle_8,112,-65.6000061,1,0,0,2,7.200012207,0,1,0,0,3,0,3,0,1,response3disk_7,5,rectangle_4,,,,,,,,,,,,,,,,,,,,,,,,,,,,,,,,,,,,,,,,,,,,,,,,,,,,,,,,,,,,,,,,,,,,,,,,,,,,,,,,,,,,,,,,,,,,,,,,,,,,,,,,
,,,,,,5d5ee4b5b3e1bf0001a46a7d,62bbfb4f7d44554892e31cac,2022-06-29_08h12.34.775,Colour_Asymmetry_Pilot,2022.1.3,Win32,60.08532116,62bbe60bf3d75ef465d3e404,,,,,,,,,,,,,,,,,,,"[0.9842,0.7409999999999999,-0.6628000000000001]",twoone,"[-0.9296,-0.12959999999999994,-0.043199999999999905]",-4,3.3325,-44,96.79998779,1,0,0,response7disk_5,21.60003662,-4,1,0,0,rectangle_8,21.60003662,-4,1,0,0,2,21.60003662,-4,1,0,0,4,0,4,0,1,,,,,,,,,,,,,,,,,,,,,,,,,,,,,,,,,,,,,,,,,,,,,,,,,,,,,,,,,,,,,,,,,,,,,,,,,,,,,,,,,,,,,,,,,,,,,,,,,,,,,,,,,,,
,,,,,,5d5ee4b5b3e1bf0001a46a7d,62bbfb4f7d44554892e31cac,2022-06-29_08h12.34.775,Colour_Asymmetry_Pilot,2022.1.3,Win32,60.08532116,62bbe60bf3d75ef465d3e404,,,,,,,,,,,,,,,,,,,"[-0.26280000000000003,-0.2158,-0.3256]",twoone,"[0.37240000000000006,-0.050999999999999934,-0.5216]",-2,3.4648,-114.3999634,-63.20001221,1,0,0,response5disk_5,16,12,1,0,0,rectangle_8,16,12,1,0,0,2,16,12,1,0,0,5,0,5,0,1,,,,,,,,,,,,,,,,,,,,,,,,,,,,,,,,,,,,,,,,,,,,,,,,,,,,,,,,,,,,,,,,,,,,,,,,,,,,,,,,,,,,,,,,,,,,,,,,,,,,,,,,,,,
,,,,,,5d5ee4b5b3e1bf0001a46a7d,62bbfb4f7d44554892e31cac,2022-06-29_08h12.34.775,Colour_Asymmetry_Pilot,2022.1.3,Win32,60.08532116,62bbe60bf3d75ef465d3e404,,,,,,,,,,,,,,,,,,,"[0.30180000000000007,-0.7884,-0.9844]",threeone,"[-0.09019999999999995,0.44300000000000006,0.5371999999999999]",-4,3.8147,-35.20001221,103.1999817,1,0,0,response7disk_5,9.600036621,4,1,0,0,rectangle_8,9.600036621,4,1,0,0,2,9.600036621,4,1,0,0,6,0,6,0,1,,,,,,,,,,,,,,,,,,,,,,,,,,,,,,,,,,,,,,,,,,,,,,,,,,,,,,,,,,,,,,,,,,,,,,,,,,,,,,,,,,,,,,,,,,,,,,,,,,,,,,,,,,,
,,,,,,5d5ee4b5b3e1bf0001a46a7d,62bbfb4f7d44554892e31cac,2022-06-29_08h12.34.775,Colour_Asymmetry_Pilot,2022.1.3,Win32,60.08532116,62bbe60bf3d75ef465d3e404,,,,,,,,,,,,,,,,,,,,fourtwo,,-1,7.9335,,,,,,,,,,,,,,,,,,,,,,,,,,,,,,,,space,34.4196,"[-0.07459999999999989,0.12139999999999995,-0.9922]","[0.23120000000000007,-0.7726,-0.34120000000000006]",-54.39996338,-116,1,0,0,response5disk,-18.39996338,-1.600006104,1,0,0,rectangle,-18.39996338,-1.600006104,1,0,0,,2,0.0033,0,-18.39996338,-1.600006104,1,0,0,0,0,0,98,1,17,second,,,,,,,,,,,,,,,,,,,,,,,,,,,,,,,,,,,,,,,,,,,,,,,,,,,,,,,,,,,,,,,,,,,
,,,,,,5d5ee4b5b3e1bf0001a46a7d,62bbfb4f7d44554892e31cac,2022-06-29_08h12.34.775,Colour_Asymmetry_Pilot,2022.1.3,Win32,60.08532116,62bbe60bf3d75ef465d3e404,,,,,,,,,,,,,,,,,,,,onethree,,2,4.5818,,,,,,,,,,,,,,,,,,,,,,,,,,,,,,,,,,"[-0.2942,-0.7648,-0.7492000000000001]","[0.796,0.2156,-0.27859999999999996]",109.6000366,-41.6000061,1,0,0,response3disk,0.799987793,-0.800018311,1,0,0,rectangle,125.6000366,46.3999939,1,0,0,3,3,2.7509,1,-17.59997559,-3.200012207,1,0,0,0,1,1,159,1,78,second,response1disk_3,rectangle,,,,,,,,,,,,,,,,,,,,,,,,,,,,,,,,,,,,,,,,,,,,,,,,,,,,,,,,,,,,,,,,,
,,,,,,5d5ee4b5b3e1bf0001a46a7d,62bbfb4f7d44554892e31cac,2022-06-29_08h12.34.775,Colour_Asymmetry_Pilot,2022.1.3,Win32,60.08532116,62bbe60bf3d75ef465d3e404,,,,,,,,,,,,,,,,,,,,fourthree,,3,1.7498,,,,,,,,,,,,,,,,,,,,,,,,,,,,,,,,,,"[0.7018,0.7802,-0.16079999999999994]","[0.9842,0.7409999999999999,-0.6628000000000001]",96,54.3999939,1,0,0,response1disk,-15.20001221,0,1,0,0,rectangle,-15.20001221,0,1,0,0,3,1,0.002,0,-15.20001221,0,1,0,0,0,2,2,107,1,26,second,,,,,,,,,,,,,,,,,,,,,,,,,,,,,,,,,,,,,,,,,,,,,,,,,,,,,,,,,,,,,,,,,,,
,,,,,,5d5ee4b5b3e1bf0001a46a7d,62bbfb4f7d44554892e31cac,2022-06-29_08h12.34.775,Colour_Asymmetry_Pilot,2022.1.3,Win32,60.08532116,62bbe60bf3d75ef465d3e404,,,,,,,,,,,,,,,,,,,,fourthree,,-2,9.7309,,,,,,,,,,,,,,,,,,,,,,,,,,,,,,,,,,"[-0.2942,-0.24719999999999998,-0.357]","[0.5528,0.7409999999999999,-0.71]",-108,-32,1,0,0,response5disk,23.20001221,12.79998779,1,0,0,rectangle,23.20001221,12.79998779,1,0,0,3,1,0.0002,0,23.20001221,12.79998779,1,0,0,0,3,3,0,1,0,first,,,,,,,,,,,,,,,,,,,,,,,,,,,,,,,,,,,,,,,,,,,,,,,,,,,,,,,,,,,,,,,,,,,
,,,,,,5d5ee4b5b3e1bf0001a46a7d,62bbfb4f7d44554892e31cac,2022-06-29_08h12.34.775,Colour_Asymmetry_Pilot,2022.1.3,Win32,60.08532116,62bbe60bf3d75ef465d3e404,,,,,,,,,,,,,,,,,,,,twoone,,-3,1.7331,,,,,,,,,,,,,,,,,,,,,,,,,,,,,,,,,,"[0.12939999999999996,-0.2864,0.3253999999999999]","[0.22340000000000004,-0.9296,-0.7884]",-113.5999756,35.19998169,1,0,0,response7disk,1.600036621,3.199981689,1,0,0,rectangle,1.600036621,3.199981689,1,0,0,3,3,0.0018,0,1.600036621,3.199981689,1,0,0,0,4,4,61,1,61,first,,,,,,,,,,,,,,,,,,,,,,,,,,,,,,,,,,,,,,,,,,,,,,,,,,,,,,,,,,,,,,,,,,,
,,,,,,5d5ee4b5b3e1bf0001a46a7d,62bbfb4f7d44554892e31cac,2022-06-29_08h12.34.775,Colour_Asymmetry_Pilot,2022.1.3,Win32,60.08532116,62bbe60bf3d75ef465d3e404,,,,,,,,,,,,,,,,,,,,threeone,,-2,1.0989,,,,,,,,,,,,,,,,,,,,,,,,,,,,,,,,,,"[0.18419999999999992,-0.4276,-0.404]","[-0.4746,-0.0354000000000001,0.5449999999999999]",-125.5999756,-60.80001831,1,0,0,response5disk,13.60003662,0,1,0,0,rectangle,13.60003662,0,1,0,0,3,1,0.0019,0,13.60003662,0,1,0,0,0,5,5,16,1,16,first,,,,,,,,,,,,,,,,,,,,,,,,,,,,,,,,,,,,,,,,,,,,,,,,,,,,,,,,,,,,,,,,,,,
,,,,,,5d5ee4b5b3e1bf0001a46a7d,62bbfb4f7d44554892e31cac,2022-06-29_08h12.34.775,Colour_Asymmetry_Pilot,2022.1.3,Win32,60.08532116,62bbe60bf3d75ef465d3e404,,,,,,,,,,,,,,,,,,,,threefour,,-4,1.1326,,,,,,,,,,,,,,,,,,,,,,,,,,,,,,,,,,"[-0.34920000000000007,-0.702,-0.5216]","[0.37240000000000006,-0.050999999999999934,-0.5216]",-50.39996338,84,1,0,0,response7disk,0,1.600006104,1,0,0,rectangle,0,1.600006104,1,0,0,3,1,0.0003,0,0,1.600006104,1,0,0,0,6,6,58,1,58,first,,,,,,,,,,,,,,,,,,,,,,,,,,,,,,,,,,,,,,,,,,,,,,,,,,,,,,,,,,,,,,,,,,,
,,,,,,5d5ee4b5b3e1bf0001a46a7d,62bbfb4f7d44554892e31cac,2022-06-29_08h12.34.775,Colour_Asymmetry_Pilot,2022.1.3,Win32,60.08532116,62bbe60bf3d75ef465d3e404,,,,,,,,,,,,,,,,,,,,onethree,,-4,0.5997,,,,,,,,,,,,,,,,,,,,,,,,,,,,,,,,,,"[0.7176,-0.906,-0.6864]","[0.2862,0.7802,0.3568]",-59.20001221,108.7999878,1,0,0,response7disk,6.400024414,-2.399993896,1,0,0,rectangle,6.400024414,-2.399993896,1,0,0,3,2,0.003,0,6.400024414,-2.399993896,1,0,0,0,7,7,115,1,34,second,,,,,,,,,,,,,,,,,,,,,,,,,,,,,,,,,,,,,,,,,,,,,,,,,,,,,,,,,,,,,,,,,,,
,,,,,,5d5ee4b5b3e1bf0001a46a7d,62bbfb4f7d44554892e31cac,2022-06-29_08h12.34.775,Colour_Asymmetry_Pilot,2022.1.3,Win32,60.08532116,62bbe60bf3d75ef465d3e404,,,,,,,,,,,,,,,,,,,,twoone,,3,1.4496,,,,,,,,,,,,,,,,,,,,,,,,,,,,,,,,,,"[-0.9216,-0.5529999999999999,-0.3962]","[-0.9844,-0.9688,-0.9922]",87.20001221,52.79998779,1,0,0,response1disk,-7.200012207,6.399993896,1,0,0,rectangle,-7.200012207,6.399993896,1,0,0,3,2,0.0003,0,-7.200012207,6.399993896,1,0,0,0,8,8,137,1,56,second,,,,,,,,,,,,,,,,,,,,,,,,,,,,,,,,,,,,,,,,,,,,,,,,,,,,,,,,,,,,,,,,,,,
,,,,,,5d5ee4b5b3e1bf0001a46a7d,62bbfb4f7d44554892e31cac,2022-06-29_08h12.34.775,Colour_Asymmetry_Pilot,2022.1.3,Win32,60.08532116,62bbe60bf3d75ef465d3e404,,,,,,,,,,,,,,,,,,,,onethree,,-3,2.3827,,,,,,,,,,,,,,,,,,,,,,,,,,,,,,,,,,"[-0.9766,-0.34920000000000007,0.2156]","[0.8115999999999999,-0.0040000000000000036,-0.09819999999999995]",-95.20001221,65.6000061,1,0,0,response7disk,-8,4,1,0,0,rectangle,-8,4,1,0,0,3,1,0.0017,0,-8,4,1,0,0,0,9,9,53,1,53,first,,,,,,,,,,,,,,,,,,,,,,,,,,,,,,,,,,,,,,,,,,,,,,,,,,,,,,,,,,,,,,,,,,,
,,,,,,5d5ee4b5b3e1bf0001a46a7d,62bbfb4f7d44554892e31cac,2022-06-29_08h12.34.775,Colour_Asymmetry_Pilot,2022.1.3,Win32,60.08532116,62bbe60bf3d75ef465d3e404,,,,,,,,,,,,,,,,,,,,twoone,,-1,1.3996,,,,,,,,,,,,,,,,,,,,,,,,,,,,,,,,,,"[0.23120000000000007,-0.7726,-0.34120000000000006]","[0.8115999999999999,-0.0040000000000000036,-0.09819999999999995]",-60.79998779,-94.40002441,1,0,0,response5disk,9.600036621,2.399993896,1,0,0,rectangle,9.600036621,2.399993896,1,0,0,3,1,0.0003,0,9.600036621,2.399993896,1,0,0,0,10,10,103,1,22,second,,,,,,,,,,,,,,,,,,,,,,,,,,,,,,,,,,,,,,,,,,,,,,,,,,,,,,,,,,,,,,,,,,,
,,,,,,5d5ee4b5b3e1bf0001a46a7d,62bbfb4f7d44554892e31cac,2022-06-29_08h12.34.775,Colour_Asymmetry_Pilot,2022.1.3,Win32,60.08532116,62bbe60bf3d75ef465d3e404,,,,,,,,,,,,,,,,,,,,twoone,,-4,0.5274,,,,,,,,,,,,,,,,,,,,,,,,,,,,,,,,,,"[0.9763999999999999,-0.1137999999999999,-0.6314]","[-0.5922000000000001,-0.7492000000000001,-0.5296000000000001]",-55.20001221,68.79998779,1,0,0,response7disk,-4.799987793,-9.600006104,1,0,0,rectangle,-4.799987793,-9.600006104,1,0,0,3,3,0.0008,0,-4.799987793,-9.600006104,1,0,0,0,11,11,15,1,15,first,,,,,,,,,,,,,,,,,,,,,,,,,,,,,,,,,,,,,,,,,,,,,,,,,,,,,,,,,,,,,,,,,,,
,,,,,,5d5ee4b5b3e1bf0001a46a7d,62bbfb4f7d44554892e31cac,2022-06-29_08h12.34.775,Colour_Asymmetry_Pilot,2022.1.3,Win32,60.08532116,62bbe60bf3d75ef465d3e404,,,,,,,,,,,,,,,,,,,,fourtwo,,-4,0.5649,,,,,,,,,,,,,,,,,,,,,,,,,,,,,,,,,,"[-0.9766,-0.6472,0.07440000000000002]","[0.9213999999999998,0.6391999999999998,-0.9922]",-28,112,1,0,0,response7disk,9.600036621,-6.399993896,1,0,0,rectangle,9.600036621,-6.399993896,1,0,0,3,2,0.0018,0,9.600036621,-6.399993896,1,0,0,0,12,12,122,1,41,second,,,,,,,,,,,,,,,,,,,,,,,,,,,,,,,,,,,,,,,,,,,,,,,,,,,,,,,,,,,,,,,,,,,
,,,,,,5d5ee4b5b3e1bf0001a46a7d,62bbfb4f7d44554892e31cac,2022-06-29_08h12.34.775,Colour_Asymmetry_Pilot,2022.1.3,Win32,60.08532116,62bbe60bf3d75ef465d3e404,,,,,,,,,,,,,,,,,,,,onethree,,2,1.5164,,,,,,,,,,,,,,,,,,,,,,,,,,,,,,,,,,"[-0.9844,-0.9688,-0.9922]","[-0.9216,-0.5529999999999999,-0.3962]",104.7999878,-29.6000061,1,0,0,response3disk,-18.39996338,0.799987793,1,0,0,rectangle,-18.39996338,0.799987793,1,0,0,3,3,0.0041,0,-18.39996338,0.799987793,1,0,0,0,13,13,56,1,56,first,,,,,,,,,,,,,,,,,,,,,,,,,,,,,,,,,,,,,,,,,,,,,,,,,,,,,,,,,,,,,,,,,,,
,,,,,,5d5ee4b5b3e1bf0001a46a7d,62bbfb4f7d44554892e31cac,2022-06-29_08h12.34.775,Colour_Asymmetry_Pilot,2022.1.3,Win32,60.08532116,62bbe60bf3d75ef465d3e404,,,,,,,,,,,,,,,,,,,,threeone,,-3,1.4715,,,,,,,,,,,,,,,,,,,,,,,,,,,,,,,,,,"[0.8115999999999999,-0.0040000000000000036,-0.09819999999999995]","[-0.4982,-0.2942,-0.0354000000000001]",-98.39996338,41.6000061,1,0,0,response7disk,4,-0.800018311,1,0,0,rectangle,4,-0.800018311,1,0,0,3,3,0.0003,0,4,-0.800018311,1,0,0,0,14,14,105,1,24,second,,,,,,,,,,,,,,,,,,,,,,,,,,,,,,,,,,,,,,,,,,,,,,,,,,,,,,,,,,,,,,,,,,,
,,,,,,5d5ee4b5b3e1bf0001a46a7d,62bbfb4f7d44554892e31cac,2022-06-29_08h12.34.775,Colour_Asymmetry_Pilot,2022.1.3,Win32,60.08532116,62bbe60bf3d75ef465d3e404,,,,,,,,,,,,,,,,,,,,fourthree,,-3,0.5669,,,,,,,,,,,,,,,,,,,,,,,,,,,,,,,,,,"[-0.4982,-0.2942,-0.0354000000000001]","[0.6547999999999998,-0.043199999999999905,-0.011800000000000033]",-120,56,1,0,0,response7disk,-6.399963379,1.600006104,1,0,0,rectangle,-6.399963379,1.600006104,1,0,0,3,1,0.0017,0,-6.399963379,1.600006104,1,0,0,0,15,15,10,1,10,first,,,,,,,,,,,,,,,,,,,,,,,,,,,,,,,,,,,,,,,,,,,,,,,,,,,,,,,,,,,,,,,,,,,
,,,,,,5d5ee4b5b3e1bf0001a46a7d,62bbfb4f7d44554892e31cac,2022-06-29_08h12.34.775,Colour_Asymmetry_Pilot,2022.1.3,Win32,60.08532116,62bbe60bf3d75ef465d3e404,,,,,,,,,,,,,,,,,,,,fourthree,,-2,0.5324,,,,,,,,,,,,,,,,,,,,,,,,,,,,,,,,,,"[-0.2942,-0.7648,-0.7492000000000001]","[0.05879999999999996,0.2784,0.5841999999999998]",-100.7999878,-42.3999939,1,0,0,response5disk,-4.799987793,4,1,0,0,rectangle,-4.799987793,4,1,0,0,3,2,0.0009,0,-4.799987793,4,1,0,0,0,16,16,49,1,49,first,,,,,,,,,,,,,,,,,,,,,,,,,,,,,,,,,,,,,,,,,,,,,,,,,,,,,,,,,,,,,,,,,,,
,,,,,,5d5ee4b5b3e1bf0001a46a7d,62bbfb4f7d44554892e31cac,2022-06-29_08h12.34.775,Colour_Asymmetry_Pilot,2022.1.3,Win32,60.08532116,62bbe60bf3d75ef465d3e404,,,,,,,,,,,,,,,,,,,,onetwo,,4,4.1654,,,,,,,,,,,,,,,,,,,,,,,,,,,,,,,,,,"[0.4196,0.4665999999999999,0.3568]","[-0.30200000000000005,0.14500000000000002,0.2784]",30.40002441,108,1,0,0,response1disk,16,-2.399993896,1,0,0,rectangle,16,-2.399993896,1,0,0,3,3,0.0005,0,16,-2.399993896,1,0,0,0,17,17,75,1,75,first,,,,,,,,,,,,,,,,,,,,,,,,,,,,,,,,,,,,,,,,,,,,,,,,,,,,,,,,,,,,,,,,,,,
