trials.thisRepN,trials.thisTrialN,trials.thisN,trials.thisIndex,trials.ran,Colourcodes,participant,session,date,expName,psychopyVersion,OS,frameRate,study_id,trials_4.thisRepN,trials_4.thisTrialN,trials_4.thisN,trials_4.thisIndex,trials_4.ran,StimulusPos,key_resp.keys,key_resp.rt,key_resp_2.keys,key_resp_2.rt,key_resp_15.keys,key_resp_15.rt,key_resp_17.keys,key_resp_17.rt,key_resp_9.keys,key_resp_9.rt,key_resp_10.keys,key_resp_10.rt,Circle1_col,Ecc,Circle2_col,similarity,response_time,mouse_5.x,mouse_5.y,mouse_5.leftButton,mouse_5.midButton,mouse_5.rightButton,mouse_5.clicked_name,mouse_10.x,mouse_10.y,mouse_10.leftButton,mouse_10.midButton,mouse_10.rightButton,mouse_10.clicked_name,mouse_7.x,mouse_7.y,mouse_7.leftButton,mouse_7.midButton,mouse_7.rightButton,mouse_7.clicked_name,catchprac,catchnumberprac,mouse_6.x,mouse_6.y,mouse_6.leftButton,mouse_6.midButton,mouse_6.rightButton,mouse_6.clicked_name,duringprac.thisRepN,duringprac.thisTrialN,duringprac.thisN,duringprac.thisIndex,duringprac.ran,key_resp_22.keys,key_resp_22.rt,Circle1_colour,Circle2_colour,mouse.x,mouse.y,mouse.leftButton,mouse.midButton,mouse.rightButton,mouse.clicked_name,mouse_2.x,mouse_2.y,mouse_2.leftButton,mouse_2.midButton,mouse_2.rightButton,mouse_2.clicked_name,mouse_3.x,mouse_3.y,mouse_3.leftButton,mouse_3.midButton,mouse_3.rightButton,catchresponse,catchnumber,response_time_catch,Catch,mouse_11.x,mouse_11.y,mouse_11.leftButton,mouse_11.midButton,mouse_11.rightButton,trials_2.thisRepN,trials_2.thisTrialN,trials_2.thisN,trials_2.thisIndex,trials_2.ran,Colourpair,Temporder,mouse_3.clicked_name,mouse_11.clicked_name,trials_3.thisRepN,trials_3.thisTrialN,trials_3.thisN,trials_3.thisIndex,trials_3.ran,key_resp_instr_Ishi.keys,key_resp_instr_Ishi.rt,Ishi_trial_keyresp.keys,Ishi_trial_keyresp.rt,Ishi_textbox.text,Ishi_loop.thisRepN,Ishi_loop.thisTrialN,Ishi_loop.thisN,Ishi_loop.thisIndex,Ishi_loop.ran,imageaddress,textbox.text,mouse_4.x,mouse_4.y,mouse_4.leftButton,mouse_4.midButton,mouse_4.rightButton,mouse_4.clicked_name,textbox_2.text,mouse_8.x,mouse_8.y,mouse_8.leftButton,mouse_8.midButton,mouse_8.rightButton,mouse_8.clicked_name,textbox_3.text,mouse_9.x,mouse_9.y,mouse_9.leftButton,mouse_9.midButton,mouse_9.rightButton,mouse_9.clicked_name,textbox_4.text,mouse_12.x,mouse_12.y,mouse_12.leftButton,mouse_12.midButton,mouse_12.rightButton,mouse_12.clicked_name,textbox_5.text,mouse_13.x,mouse_13.y,mouse_13.leftButton,mouse_13.midButton,mouse_13.rightButton,mouse_13.clicked_name,textbox_6.text,mouse_14.x,mouse_14.y,mouse_14.leftButton,mouse_14.midButton,mouse_14.rightButton,mouse_14.clicked_name,textbox_7.text,mouse_15.x,mouse_15.y,mouse_15.leftButton,mouse_15.midButton,mouse_15.rightButton,mouse_15.clicked_name
0,0,0,78,1,,60da34669fd87bea96619e41,62bbfa2e4557526fa8e918a6,2022-06-29_09h11.26.058,Colour_Asymmetry_Pilot,2022.1.3,Win32,59.93766483,62bbe60bf3d75ef465d3e404,,,,,,,,,,,,,,,,,,,,,,,,,,,,,,,,,,,,,,,,,,,,,,,,,,,,,,,,,,,,,,,,,,,,,,,,,,,,,,,,,,,,,,,,,,,,,,,,,,,,,,,,,,,,,,,,,,,,,,,,,,,,,,,,,,,,,,,,,,,,,,,,,,,,,,,,,,,,,,
0,1,1,50,1,,60da34669fd87bea96619e41,62bbfa2e4557526fa8e918a6,2022-06-29_09h11.26.058,Colour_Asymmetry_Pilot,2022.1.3,Win32,59.93766483,62bbe60bf3d75ef465d3e404,,,,,,,,,,,,,,,,,,,,,,,,,,,,,,,,,,,,,,,,,,,,,,,,,,,,,,,,,,,,,,,,,,,,,,,,,,,,,,,,,,,,,,,,,,,,,,,,,,,,,,,,,,,,,,,,,,,,,,,,,,,,,,,,,,,,,,,,,,,,,,,,,,,,,,,,,,,,,,
0,2,2,42,1,,60da34669fd87bea96619e41,62bbfa2e4557526fa8e918a6,2022-06-29_09h11.26.058,Colour_Asymmetry_Pilot,2022.1.3,Win32,59.93766483,62bbe60bf3d75ef465d3e404,,,,,,,,,,,,,,,,,,,,,,,,,,,,,,,,,,,,,,,,,,,,,,,,,,,,,,,,,,,,,,,,,,,,,,,,,,,,,,,,,,,,,,,,,,,,,,,,,,,,,,,,,,,,,,,,,,,,,,,,,,,,,,,,,,,,,,,,,,,,,,,,,,,,,,,,,,,,,,
0,3,3,83,1,,60da34669fd87bea96619e41,62bbfa2e4557526fa8e918a6,2022-06-29_09h11.26.058,Colour_Asymmetry_Pilot,2022.1.3,Win32,59.93766483,62bbe60bf3d75ef465d3e404,,,,,,,,,,,,,,,,,,,,,,,,,,,,,,,,,,,,,,,,,,,,,,,,,,,,,,,,,,,,,,,,,,,,,,,,,,,,,,,,,,,,,,,,,,,,,,,,,,,,,,,,,,,,,,,,,,,,,,,,,,,,,,,,,,,,,,,,,,,,,,,,,,,,,,,,,,,,,,
0,4,4,11,1,,60da34669fd87bea96619e41,62bbfa2e4557526fa8e918a6,2022-06-29_09h11.26.058,Colour_Asymmetry_Pilot,2022.1.3,Win32,59.93766483,62bbe60bf3d75ef465d3e404,,,,,,,,,,,,,,,,,,,,,,,,,,,,,,,,,,,,,,,,,,,,,,,,,,,,,,,,,,,,,,,,,,,,,,,,,,,,,,,,,,,,,,,,,,,,,,,,,,,,,,,,,,,,,,,,,,,,,,,,,,,,,,,,,,,,,,,,,,,,,,,,,,,,,,,,,,,,,,
0,5,5,1,1,,60da34669fd87bea96619e41,62bbfa2e4557526fa8e918a6,2022-06-29_09h11.26.058,Colour_Asymmetry_Pilot,2022.1.3,Win32,59.93766483,62bbe60bf3d75ef465d3e404,,,,,,,,,,,,,,,,,,,,,,,,,,,,,,,,,,,,,,,,,,,,,,,,,,,,,,,,,,,,,,,,,,,,,,,,,,,,,,,,,,,,,,,,,,,,,,,,,,,,,,,,,,,,,,,,,,,,,,,,,,,,,,,,,,,,,,,,,,,,,,,,,,,,,,,,,,,,,,
0,6,6,53,1,,60da34669fd87bea96619e41,62bbfa2e4557526fa8e918a6,2022-06-29_09h11.26.058,Colour_Asymmetry_Pilot,2022.1.3,Win32,59.93766483,62bbe60bf3d75ef465d3e404,,,,,,,,,,,,,,,,,,,,,,,,,,,,,,,,,,,,,,,,,,,,,,,,,,,,,,,,,,,,,,,,,,,,,,,,,,,,,,,,,,,,,,,,,,,,,,,,,,,,,,,,,,,,,,,,,,,,,,,,,,,,,,,,,,,,,,,,,,,,,,,,,,,,,,,,,,,,,,
0,7,7,25,1,,60da34669fd87bea96619e41,62bbfa2e4557526fa8e918a6,2022-06-29_09h11.26.058,Colour_Asymmetry_Pilot,2022.1.3,Win32,59.93766483,62bbe60bf3d75ef465d3e404,,,,,,,,,,,,,,,,,,,,,,,,,,,,,,,,,,,,,,,,,,,,,,,,,,,,,,,,,,,,,,,,,,,,,,,,,,,,,,,,,,,,,,,,,,,,,,,,,,,,,,,,,,,,,,,,,,,,,,,,,,,,,,,,,,,,,,,,,,,,,,,,,,,,,,,,,,,,,,
0,8,8,74,1,,60da34669fd87bea96619e41,62bbfa2e4557526fa8e918a6,2022-06-29_09h11.26.058,Colour_Asymmetry_Pilot,2022.1.3,Win32,59.93766483,62bbe60bf3d75ef465d3e404,,,,,,,,,,,,,,,,,,,,,,,,,,,,,,,,,,,,,,,,,,,,,,,,,,,,,,,,,,,,,,,,,,,,,,,,,,,,,,,,,,,,,,,,,,,,,,,,,,,,,,,,,,,,,,,,,,,,,,,,,,,,,,,,,,,,,,,,,,,,,,,,,,,,,,,,,,,,,,
0,9,9,52,1,,60da34669fd87bea96619e41,62bbfa2e4557526fa8e918a6,2022-06-29_09h11.26.058,Colour_Asymmetry_Pilot,2022.1.3,Win32,59.93766483,62bbe60bf3d75ef465d3e404,,,,,,,,,,,,,,,,,,,,,,,,,,,,,,,,,,,,,,,,,,,,,,,,,,,,,,,,,,,,,,,,,,,,,,,,,,,,,,,,,,,,,,,,,,,,,,,,,,,,,,,,,,,,,,,,,,,,,,,,,,,,,,,,,,,,,,,,,,,,,,,,,,,,,,,,,,,,,,
0,10,10,8,1,,60da34669fd87bea96619e41,62bbfa2e4557526fa8e918a6,2022-06-29_09h11.26.058,Colour_Asymmetry_Pilot,2022.1.3,Win32,59.93766483,62bbe60bf3d75ef465d3e404,,,,,,,,,,,,,,,,,,,,,,,,,,,,,,,,,,,,,,,,,,,,,,,,,,,,,,,,,,,,,,,,,,,,,,,,,,,,,,,,,,,,,,,,,,,,,,,,,,,,,,,,,,,,,,,,,,,,,,,,,,,,,,,,,,,,,,,,,,,,,,,,,,,,,,,,,,,,,,
0,11,11,12,1,,60da34669fd87bea96619e41,62bbfa2e4557526fa8e918a6,2022-06-29_09h11.26.058,Colour_Asymmetry_Pilot,2022.1.3,Win32,59.93766483,62bbe60bf3d75ef465d3e404,,,,,,,,,,,,,,,,,,,,,,,,,,,,,,,,,,,,,,,,,,,,,,,,,,,,,,,,,,,,,,,,,,,,,,,,,,,,,,,,,,,,,,,,,,,,,,,,,,,,,,,,,,,,,,,,,,,,,,,,,,,,,,,,,,,,,,,,,,,,,,,,,,,,,,,,,,,,,,
0,12,12,9,1,,60da34669fd87bea96619e41,62bbfa2e4557526fa8e918a6,2022-06-29_09h11.26.058,Colour_Asymmetry_Pilot,2022.1.3,Win32,59.93766483,62bbe60bf3d75ef465d3e404,,,,,,,,,,,,,,,,,,,,,,,,,,,,,,,,,,,,,,,,,,,,,,,,,,,,,,,,,,,,,,,,,,,,,,,,,,,,,,,,,,,,,,,,,,,,,,,,,,,,,,,,,,,,,,,,,,,,,,,,,,,,,,,,,,,,,,,,,,,,,,,,,,,,,,,,,,,,,,
0,13,13,32,1,,60da34669fd87bea96619e41,62bbfa2e4557526fa8e918a6,2022-06-29_09h11.26.058,Colour_Asymmetry_Pilot,2022.1.3,Win32,59.93766483,62bbe60bf3d75ef465d3e404,,,,,,,,,,,,,,,,,,,,,,,,,,,,,,,,,,,,,,,,,,,,,,,,,,,,,,,,,,,,,,,,,,,,,,,,,,,,,,,,,,,,,,,,,,,,,,,,,,,,,,,,,,,,,,,,,,,,,,,,,,,,,,,,,,,,,,,,,,,,,,,,,,,,,,,,,,,,,,
0,14,14,76,1,,60da34669fd87bea96619e41,62bbfa2e4557526fa8e918a6,2022-06-29_09h11.26.058,Colour_Asymmetry_Pilot,2022.1.3,Win32,59.93766483,62bbe60bf3d75ef465d3e404,,,,,,,,,,,,,,,,,,,,,,,,,,,,,,,,,,,,,,,,,,,,,,,,,,,,,,,,,,,,,,,,,,,,,,,,,,,,,,,,,,,,,,,,,,,,,,,,,,,,,,,,,,,,,,,,,,,,,,,,,,,,,,,,,,,,,,,,,,,,,,,,,,,,,,,,,,,,,,
0,15,15,20,1,,60da34669fd87bea96619e41,62bbfa2e4557526fa8e918a6,2022-06-29_09h11.26.058,Colour_Asymmetry_Pilot,2022.1.3,Win32,59.93766483,62bbe60bf3d75ef465d3e404,,,,,,,,,,,,,,,,,,,,,,,,,,,,,,,,,,,,,,,,,,,,,,,,,,,,,,,,,,,,,,,,,,,,,,,,,,,,,,,,,,,,,,,,,,,,,,,,,,,,,,,,,,,,,,,,,,,,,,,,,,,,,,,,,,,,,,,,,,,,,,,,,,,,,,,,,,,,,,
0,16,16,69,1,,60da34669fd87bea96619e41,62bbfa2e4557526fa8e918a6,2022-06-29_09h11.26.058,Colour_Asymmetry_Pilot,2022.1.3,Win32,59.93766483,62bbe60bf3d75ef465d3e404,,,,,,,,,,,,,,,,,,,,,,,,,,,,,,,,,,,,,,,,,,,,,,,,,,,,,,,,,,,,,,,,,,,,,,,,,,,,,,,,,,,,,,,,,,,,,,,,,,,,,,,,,,,,,,,,,,,,,,,,,,,,,,,,,,,,,,,,,,,,,,,,,,,,,,,,,,,,,,
0,17,17,19,1,,60da34669fd87bea96619e41,62bbfa2e4557526fa8e918a6,2022-06-29_09h11.26.058,Colour_Asymmetry_Pilot,2022.1.3,Win32,59.93766483,62bbe60bf3d75ef465d3e404,,,,,,,,,,,,,,,,,,,,,,,,,,,,,,,,,,,,,,,,,,,,,,,,,,,,,,,,,,,,,,,,,,,,,,,,,,,,,,,,,,,,,,,,,,,,,,,,,,,,,,,,,,,,,,,,,,,,,,,,,,,,,,,,,,,,,,,,,,,,,,,,,,,,,,,,,,,,,,
0,18,18,5,1,,60da34669fd87bea96619e41,62bbfa2e4557526fa8e918a6,2022-06-29_09h11.26.058,Colour_Asymmetry_Pilot,2022.1.3,Win32,59.93766483,62bbe60bf3d75ef465d3e404,,,,,,,,,,,,,,,,,,,,,,,,,,,,,,,,,,,,,,,,,,,,,,,,,,,,,,,,,,,,,,,,,,,,,,,,,,,,,,,,,,,,,,,,,,,,,,,,,,,,,,,,,,,,,,,,,,,,,,,,,,,,,,,,,,,,,,,,,,,,,,,,,,,,,,,,,,,,,,
0,19,19,71,1,,60da34669fd87bea96619e41,62bbfa2e4557526fa8e918a6,2022-06-29_09h11.26.058,Colour_Asymmetry_Pilot,2022.1.3,Win32,59.93766483,62bbe60bf3d75ef465d3e404,,,,,,,,,,,,,,,,,,,,,,,,,,,,,,,,,,,,,,,,,,,,,,,,,,,,,,,,,,,,,,,,,,,,,,,,,,,,,,,,,,,,,,,,,,,,,,,,,,,,,,,,,,,,,,,,,,,,,,,,,,,,,,,,,,,,,,,,,,,,,,,,,,,,,,,,,,,,,,
0,20,20,57,1,,60da34669fd87bea96619e41,62bbfa2e4557526fa8e918a6,2022-06-29_09h11.26.058,Colour_Asymmetry_Pilot,2022.1.3,Win32,59.93766483,62bbe60bf3d75ef465d3e404,,,,,,,,,,,,,,,,,,,,,,,,,,,,,,,,,,,,,,,,,,,,,,,,,,,,,,,,,,,,,,,,,,,,,,,,,,,,,,,,,,,,,,,,,,,,,,,,,,,,,,,,,,,,,,,,,,,,,,,,,,,,,,,,,,,,,,,,,,,,,,,,,,,,,,,,,,,,,,
0,21,21,39,1,,60da34669fd87bea96619e41,62bbfa2e4557526fa8e918a6,2022-06-29_09h11.26.058,Colour_Asymmetry_Pilot,2022.1.3,Win32,59.93766483,62bbe60bf3d75ef465d3e404,,,,,,,,,,,,,,,,,,,,,,,,,,,,,,,,,,,,,,,,,,,,,,,,,,,,,,,,,,,,,,,,,,,,,,,,,,,,,,,,,,,,,,,,,,,,,,,,,,,,,,,,,,,,,,,,,,,,,,,,,,,,,,,,,,,,,,,,,,,,,,,,,,,,,,,,,,,,,,
0,22,22,64,1,,60da34669fd87bea96619e41,62bbfa2e4557526fa8e918a6,2022-06-29_09h11.26.058,Colour_Asymmetry_Pilot,2022.1.3,Win32,59.93766483,62bbe60bf3d75ef465d3e404,,,,,,,,,,,,,,,,,,,,,,,,,,,,,,,,,,,,,,,,,,,,,,,,,,,,,,,,,,,,,,,,,,,,,,,,,,,,,,,,,,,,,,,,,,,,,,,,,,,,,,,,,,,,,,,,,,,,,,,,,,,,,,,,,,,,,,,,,,,,,,,,,,,,,,,,,,,,,,
0,23,23,56,1,,60da34669fd87bea96619e41,62bbfa2e4557526fa8e918a6,2022-06-29_09h11.26.058,Colour_Asymmetry_Pilot,2022.1.3,Win32,59.93766483,62bbe60bf3d75ef465d3e404,,,,,,,,,,,,,,,,,,,,,,,,,,,,,,,,,,,,,,,,,,,,,,,,,,,,,,,,,,,,,,,,,,,,,,,,,,,,,,,,,,,,,,,,,,,,,,,,,,,,,,,,,,,,,,,,,,,,,,,,,,,,,,,,,,,,,,,,,,,,,,,,,,,,,,,,,,,,,,
0,24,24,2,1,,60da34669fd87bea96619e41,62bbfa2e4557526fa8e918a6,2022-06-29_09h11.26.058,Colour_Asymmetry_Pilot,2022.1.3,Win32,59.93766483,62bbe60bf3d75ef465d3e404,,,,,,,,,,,,,,,,,,,,,,,,,,,,,,,,,,,,,,,,,,,,,,,,,,,,,,,,,,,,,,,,,,,,,,,,,,,,,,,,,,,,,,,,,,,,,,,,,,,,,,,,,,,,,,,,,,,,,,,,,,,,,,,,,,,,,,,,,,,,,,,,,,,,,,,,,,,,,,
0,25,25,70,1,,60da34669fd87bea96619e41,62bbfa2e4557526fa8e918a6,2022-06-29_09h11.26.058,Colour_Asymmetry_Pilot,2022.1.3,Win32,59.93766483,62bbe60bf3d75ef465d3e404,,,,,,,,,,,,,,,,,,,,,,,,,,,,,,,,,,,,,,,,,,,,,,,,,,,,,,,,,,,,,,,,,,,,,,,,,,,,,,,,,,,,,,,,,,,,,,,,,,,,,,,,,,,,,,,,,,,,,,,,,,,,,,,,,,,,,,,,,,,,,,,,,,,,,,,,,,,,,,
0,26,26,34,1,,60da34669fd87bea96619e41,62bbfa2e4557526fa8e918a6,2022-06-29_09h11.26.058,Colour_Asymmetry_Pilot,2022.1.3,Win32,59.93766483,62bbe60bf3d75ef465d3e404,,,,,,,,,,,,,,,,,,,,,,,,,,,,,,,,,,,,,,,,,,,,,,,,,,,,,,,,,,,,,,,,,,,,,,,,,,,,,,,,,,,,,,,,,,,,,,,,,,,,,,,,,,,,,,,,,,,,,,,,,,,,,,,,,,,,,,,,,,,,,,,,,,,,,,,,,,,,,,
0,27,27,14,1,,60da34669fd87bea96619e41,62bbfa2e4557526fa8e918a6,2022-06-29_09h11.26.058,Colour_Asymmetry_Pilot,2022.1.3,Win32,59.93766483,62bbe60bf3d75ef465d3e404,,,,,,,,,,,,,,,,,,,,,,,,,,,,,,,,,,,,,,,,,,,,,,,,,,,,,,,,,,,,,,,,,,,,,,,,,,,,,,,,,,,,,,,,,,,,,,,,,,,,,,,,,,,,,,,,,,,,,,,,,,,,,,,,,,,,,,,,,,,,,,,,,,,,,,,,,,,,,,
0,28,28,37,1,,60da34669fd87bea96619e41,62bbfa2e4557526fa8e918a6,2022-06-29_09h11.26.058,Colour_Asymmetry_Pilot,2022.1.3,Win32,59.93766483,62bbe60bf3d75ef465d3e404,,,,,,,,,,,,,,,,,,,,,,,,,,,,,,,,,,,,,,,,,,,,,,,,,,,,,,,,,,,,,,,,,,,,,,,,,,,,,,,,,,,,,,,,,,,,,,,,,,,,,,,,,,,,,,,,,,,,,,,,,,,,,,,,,,,,,,,,,,,,,,,,,,,,,,,,,,,,,,
0,29,29,66,1,,60da34669fd87bea96619e41,62bbfa2e4557526fa8e918a6,2022-06-29_09h11.26.058,Colour_Asymmetry_Pilot,2022.1.3,Win32,59.93766483,62bbe60bf3d75ef465d3e404,,,,,,,,,,,,,,,,,,,,,,,,,,,,,,,,,,,,,,,,,,,,,,,,,,,,,,,,,,,,,,,,,,,,,,,,,,,,,,,,,,,,,,,,,,,,,,,,,,,,,,,,,,,,,,,,,,,,,,,,,,,,,,,,,,,,,,,,,,,,,,,,,,,,,,,,,,,,,,
0,30,30,63,1,,60da34669fd87bea96619e41,62bbfa2e4557526fa8e918a6,2022-06-29_09h11.26.058,Colour_Asymmetry_Pilot,2022.1.3,Win32,59.93766483,62bbe60bf3d75ef465d3e404,,,,,,,,,,,,,,,,,,,,,,,,,,,,,,,,,,,,,,,,,,,,,,,,,,,,,,,,,,,,,,,,,,,,,,,,,,,,,,,,,,,,,,,,,,,,,,,,,,,,,,,,,,,,,,,,,,,,,,,,,,,,,,,,,,,,,,,,,,,,,,,,,,,,,,,,,,,,,,
0,31,31,36,1,,60da34669fd87bea96619e41,62bbfa2e4557526fa8e918a6,2022-06-29_09h11.26.058,Colour_Asymmetry_Pilot,2022.1.3,Win32,59.93766483,62bbe60bf3d75ef465d3e404,,,,,,,,,,,,,,,,,,,,,,,,,,,,,,,,,,,,,,,,,,,,,,,,,,,,,,,,,,,,,,,,,,,,,,,,,,,,,,,,,,,,,,,,,,,,,,,,,,,,,,,,,,,,,,,,,,,,,,,,,,,,,,,,,,,,,,,,,,,,,,,,,,,,,,,,,,,,,,
0,32,32,77,1,,60da34669fd87bea96619e41,62bbfa2e4557526fa8e918a6,2022-06-29_09h11.26.058,Colour_Asymmetry_Pilot,2022.1.3,Win32,59.93766483,62bbe60bf3d75ef465d3e404,,,,,,,,,,,,,,,,,,,,,,,,,,,,,,,,,,,,,,,,,,,,,,,,,,,,,,,,,,,,,,,,,,,,,,,,,,,,,,,,,,,,,,,,,,,,,,,,,,,,,,,,,,,,,,,,,,,,,,,,,,,,,,,,,,,,,,,,,,,,,,,,,,,,,,,,,,,,,,
0,33,33,68,1,,60da34669fd87bea96619e41,62bbfa2e4557526fa8e918a6,2022-06-29_09h11.26.058,Colour_Asymmetry_Pilot,2022.1.3,Win32,59.93766483,62bbe60bf3d75ef465d3e404,,,,,,,,,,,,,,,,,,,,,,,,,,,,,,,,,,,,,,,,,,,,,,,,,,,,,,,,,,,,,,,,,,,,,,,,,,,,,,,,,,,,,,,,,,,,,,,,,,,,,,,,,,,,,,,,,,,,,,,,,,,,,,,,,,,,,,,,,,,,,,,,,,,,,,,,,,,,,,
0,34,34,81,1,,60da34669fd87bea96619e41,62bbfa2e4557526fa8e918a6,2022-06-29_09h11.26.058,Colour_Asymmetry_Pilot,2022.1.3,Win32,59.93766483,62bbe60bf3d75ef465d3e404,,,,,,,,,,,,,,,,,,,,,,,,,,,,,,,,,,,,,,,,,,,,,,,,,,,,,,,,,,,,,,,,,,,,,,,,,,,,,,,,,,,,,,,,,,,,,,,,,,,,,,,,,,,,,,,,,,,,,,,,,,,,,,,,,,,,,,,,,,,,,,,,,,,,,,,,,,,,,,
0,35,35,6,1,,60da34669fd87bea96619e41,62bbfa2e4557526fa8e918a6,2022-06-29_09h11.26.058,Colour_Asymmetry_Pilot,2022.1.3,Win32,59.93766483,62bbe60bf3d75ef465d3e404,,,,,,,,,,,,,,,,,,,,,,,,,,,,,,,,,,,,,,,,,,,,,,,,,,,,,,,,,,,,,,,,,,,,,,,,,,,,,,,,,,,,,,,,,,,,,,,,,,,,,,,,,,,,,,,,,,,,,,,,,,,,,,,,,,,,,,,,,,,,,,,,,,,,,,,,,,,,,,
0,36,36,26,1,,60da34669fd87bea96619e41,62bbfa2e4557526fa8e918a6,2022-06-29_09h11.26.058,Colour_Asymmetry_Pilot,2022.1.3,Win32,59.93766483,62bbe60bf3d75ef465d3e404,,,,,,,,,,,,,,,,,,,,,,,,,,,,,,,,,,,,,,,,,,,,,,,,,,,,,,,,,,,,,,,,,,,,,,,,,,,,,,,,,,,,,,,,,,,,,,,,,,,,,,,,,,,,,,,,,,,,,,,,,,,,,,,,,,,,,,,,,,,,,,,,,,,,,,,,,,,,,,
0,37,37,43,1,,60da34669fd87bea96619e41,62bbfa2e4557526fa8e918a6,2022-06-29_09h11.26.058,Colour_Asymmetry_Pilot,2022.1.3,Win32,59.93766483,62bbe60bf3d75ef465d3e404,,,,,,,,,,,,,,,,,,,,,,,,,,,,,,,,,,,,,,,,,,,,,,,,,,,,,,,,,,,,,,,,,,,,,,,,,,,,,,,,,,,,,,,,,,,,,,,,,,,,,,,,,,,,,,,,,,,,,,,,,,,,,,,,,,,,,,,,,,,,,,,,,,,,,,,,,,,,,,
0,38,38,40,1,,60da34669fd87bea96619e41,62bbfa2e4557526fa8e918a6,2022-06-29_09h11.26.058,Colour_Asymmetry_Pilot,2022.1.3,Win32,59.93766483,62bbe60bf3d75ef465d3e404,,,,,,,,,,,,,,,,,,,,,,,,,,,,,,,,,,,,,,,,,,,,,,,,,,,,,,,,,,,,,,,,,,,,,,,,,,,,,,,,,,,,,,,,,,,,,,,,,,,,,,,,,,,,,,,,,,,,,,,,,,,,,,,,,,,,,,,,,,,,,,,,,,,,,,,,,,,,,,
0,39,39,85,1,,60da34669fd87bea96619e41,62bbfa2e4557526fa8e918a6,2022-06-29_09h11.26.058,Colour_Asymmetry_Pilot,2022.1.3,Win32,59.93766483,62bbe60bf3d75ef465d3e404,,,,,,,,,,,,,,,,,,,,,,,,,,,,,,,,,,,,,,,,,,,,,,,,,,,,,,,,,,,,,,,,,,,,,,,,,,,,,,,,,,,,,,,,,,,,,,,,,,,,,,,,,,,,,,,,,,,,,,,,,,,,,,,,,,,,,,,,,,,,,,,,,,,,,,,,,,,,,,
0,40,40,87,1,,60da34669fd87bea96619e41,62bbfa2e4557526fa8e918a6,2022-06-29_09h11.26.058,Colour_Asymmetry_Pilot,2022.1.3,Win32,59.93766483,62bbe60bf3d75ef465d3e404,,,,,,,,,,,,,,,,,,,,,,,,,,,,,,,,,,,,,,,,,,,,,,,,,,,,,,,,,,,,,,,,,,,,,,,,,,,,,,,,,,,,,,,,,,,,,,,,,,,,,,,,,,,,,,,,,,,,,,,,,,,,,,,,,,,,,,,,,,,,,,,,,,,,,,,,,,,,,,
0,41,41,92,1,,60da34669fd87bea96619e41,62bbfa2e4557526fa8e918a6,2022-06-29_09h11.26.058,Colour_Asymmetry_Pilot,2022.1.3,Win32,59.93766483,62bbe60bf3d75ef465d3e404,,,,,,,,,,,,,,,,,,,,,,,,,,,,,,,,,,,,,,,,,,,,,,,,,,,,,,,,,,,,,,,,,,,,,,,,,,,,,,,,,,,,,,,,,,,,,,,,,,,,,,,,,,,,,,,,,,,,,,,,,,,,,,,,,,,,,,,,,,,,,,,,,,,,,,,,,,,,,,
0,42,42,33,1,,60da34669fd87bea96619e41,62bbfa2e4557526fa8e918a6,2022-06-29_09h11.26.058,Colour_Asymmetry_Pilot,2022.1.3,Win32,59.93766483,62bbe60bf3d75ef465d3e404,,,,,,,,,,,,,,,,,,,,,,,,,,,,,,,,,,,,,,,,,,,,,,,,,,,,,,,,,,,,,,,,,,,,,,,,,,,,,,,,,,,,,,,,,,,,,,,,,,,,,,,,,,,,,,,,,,,,,,,,,,,,,,,,,,,,,,,,,,,,,,,,,,,,,,,,,,,,,,
0,43,43,23,1,,60da34669fd87bea96619e41,62bbfa2e4557526fa8e918a6,2022-06-29_09h11.26.058,Colour_Asymmetry_Pilot,2022.1.3,Win32,59.93766483,62bbe60bf3d75ef465d3e404,,,,,,,,,,,,,,,,,,,,,,,,,,,,,,,,,,,,,,,,,,,,,,,,,,,,,,,,,,,,,,,,,,,,,,,,,,,,,,,,,,,,,,,,,,,,,,,,,,,,,,,,,,,,,,,,,,,,,,,,,,,,,,,,,,,,,,,,,,,,,,,,,,,,,,,,,,,,,,
0,44,44,48,1,,60da34669fd87bea96619e41,62bbfa2e4557526fa8e918a6,2022-06-29_09h11.26.058,Colour_Asymmetry_Pilot,2022.1.3,Win32,59.93766483,62bbe60bf3d75ef465d3e404,,,,,,,,,,,,,,,,,,,,,,,,,,,,,,,,,,,,,,,,,,,,,,,,,,,,,,,,,,,,,,,,,,,,,,,,,,,,,,,,,,,,,,,,,,,,,,,,,,,,,,,,,,,,,,,,,,,,,,,,,,,,,,,,,,,,,,,,,,,,,,,,,,,,,,,,,,,,,,
0,45,45,58,1,,60da34669fd87bea96619e41,62bbfa2e4557526fa8e918a6,2022-06-29_09h11.26.058,Colour_Asymmetry_Pilot,2022.1.3,Win32,59.93766483,62bbe60bf3d75ef465d3e404,,,,,,,,,,,,,,,,,,,,,,,,,,,,,,,,,,,,,,,,,,,,,,,,,,,,,,,,,,,,,,,,,,,,,,,,,,,,,,,,,,,,,,,,,,,,,,,,,,,,,,,,,,,,,,,,,,,,,,,,,,,,,,,,,,,,,,,,,,,,,,,,,,,,,,,,,,,,,,
0,46,46,4,1,,60da34669fd87bea96619e41,62bbfa2e4557526fa8e918a6,2022-06-29_09h11.26.058,Colour_Asymmetry_Pilot,2022.1.3,Win32,59.93766483,62bbe60bf3d75ef465d3e404,,,,,,,,,,,,,,,,,,,,,,,,,,,,,,,,,,,,,,,,,,,,,,,,,,,,,,,,,,,,,,,,,,,,,,,,,,,,,,,,,,,,,,,,,,,,,,,,,,,,,,,,,,,,,,,,,,,,,,,,,,,,,,,,,,,,,,,,,,,,,,,,,,,,,,,,,,,,,,
0,47,47,62,1,,60da34669fd87bea96619e41,62bbfa2e4557526fa8e918a6,2022-06-29_09h11.26.058,Colour_Asymmetry_Pilot,2022.1.3,Win32,59.93766483,62bbe60bf3d75ef465d3e404,,,,,,,,,,,,,,,,,,,,,,,,,,,,,,,,,,,,,,,,,,,,,,,,,,,,,,,,,,,,,,,,,,,,,,,,,,,,,,,,,,,,,,,,,,,,,,,,,,,,,,,,,,,,,,,,,,,,,,,,,,,,,,,,,,,,,,,,,,,,,,,,,,,,,,,,,,,,,,
0,48,48,15,1,,60da34669fd87bea96619e41,62bbfa2e4557526fa8e918a6,2022-06-29_09h11.26.058,Colour_Asymmetry_Pilot,2022.1.3,Win32,59.93766483,62bbe60bf3d75ef465d3e404,,,,,,,,,,,,,,,,,,,,,,,,,,,,,,,,,,,,,,,,,,,,,,,,,,,,,,,,,,,,,,,,,,,,,,,,,,,,,,,,,,,,,,,,,,,,,,,,,,,,,,,,,,,,,,,,,,,,,,,,,,,,,,,,,,,,,,,,,,,,,,,,,,,,,,,,,,,,,,
0,49,49,10,1,,60da34669fd87bea96619e41,62bbfa2e4557526fa8e918a6,2022-06-29_09h11.26.058,Colour_Asymmetry_Pilot,2022.1.3,Win32,59.93766483,62bbe60bf3d75ef465d3e404,,,,,,,,,,,,,,,,,,,,,,,,,,,,,,,,,,,,,,,,,,,,,,,,,,,,,,,,,,,,,,,,,,,,,,,,,,,,,,,,,,,,,,,,,,,,,,,,,,,,,,,,,,,,,,,,,,,,,,,,,,,,,,,,,,,,,,,,,,,,,,,,,,,,,,,,,,,,,,
0,50,50,38,1,,60da34669fd87bea96619e41,62bbfa2e4557526fa8e918a6,2022-06-29_09h11.26.058,Colour_Asymmetry_Pilot,2022.1.3,Win32,59.93766483,62bbe60bf3d75ef465d3e404,,,,,,,,,,,,,,,,,,,,,,,,,,,,,,,,,,,,,,,,,,,,,,,,,,,,,,,,,,,,,,,,,,,,,,,,,,,,,,,,,,,,,,,,,,,,,,,,,,,,,,,,,,,,,,,,,,,,,,,,,,,,,,,,,,,,,,,,,,,,,,,,,,,,,,,,,,,,,,
0,51,51,47,1,,60da34669fd87bea96619e41,62bbfa2e4557526fa8e918a6,2022-06-29_09h11.26.058,Colour_Asymmetry_Pilot,2022.1.3,Win32,59.93766483,62bbe60bf3d75ef465d3e404,,,,,,,,,,,,,,,,,,,,,,,,,,,,,,,,,,,,,,,,,,,,,,,,,,,,,,,,,,,,,,,,,,,,,,,,,,,,,,,,,,,,,,,,,,,,,,,,,,,,,,,,,,,,,,,,,,,,,,,,,,,,,,,,,,,,,,,,,,,,,,,,,,,,,,,,,,,,,,
0,52,52,75,1,,60da34669fd87bea96619e41,62bbfa2e4557526fa8e918a6,2022-06-29_09h11.26.058,Colour_Asymmetry_Pilot,2022.1.3,Win32,59.93766483,62bbe60bf3d75ef465d3e404,,,,,,,,,,,,,,,,,,,,,,,,,,,,,,,,,,,,,,,,,,,,,,,,,,,,,,,,,,,,,,,,,,,,,,,,,,,,,,,,,,,,,,,,,,,,,,,,,,,,,,,,,,,,,,,,,,,,,,,,,,,,,,,,,,,,,,,,,,,,,,,,,,,,,,,,,,,,,,
0,53,53,51,1,,60da34669fd87bea96619e41,62bbfa2e4557526fa8e918a6,2022-06-29_09h11.26.058,Colour_Asymmetry_Pilot,2022.1.3,Win32,59.93766483,62bbe60bf3d75ef465d3e404,,,,,,,,,,,,,,,,,,,,,,,,,,,,,,,,,,,,,,,,,,,,,,,,,,,,,,,,,,,,,,,,,,,,,,,,,,,,,,,,,,,,,,,,,,,,,,,,,,,,,,,,,,,,,,,,,,,,,,,,,,,,,,,,,,,,,,,,,,,,,,,,,,,,,,,,,,,,,,
0,54,54,16,1,,60da34669fd87bea96619e41,62bbfa2e4557526fa8e918a6,2022-06-29_09h11.26.058,Colour_Asymmetry_Pilot,2022.1.3,Win32,59.93766483,62bbe60bf3d75ef465d3e404,,,,,,,,,,,,,,,,,,,,,,,,,,,,,,,,,,,,,,,,,,,,,,,,,,,,,,,,,,,,,,,,,,,,,,,,,,,,,,,,,,,,,,,,,,,,,,,,,,,,,,,,,,,,,,,,,,,,,,,,,,,,,,,,,,,,,,,,,,,,,,,,,,,,,,,,,,,,,,
0,55,55,0,1,,60da34669fd87bea96619e41,62bbfa2e4557526fa8e918a6,2022-06-29_09h11.26.058,Colour_Asymmetry_Pilot,2022.1.3,Win32,59.93766483,62bbe60bf3d75ef465d3e404,,,,,,,,,,,,,,,,,,,,,,,,,,,,,,,,,,,,,,,,,,,,,,,,,,,,,,,,,,,,,,,,,,,,,,,,,,,,,,,,,,,,,,,,,,,,,,,,,,,,,,,,,,,,,,,,,,,,,,,,,,,,,,,,,,,,,,,,,,,,,,,,,,,,,,,,,,,,,,
0,56,56,84,1,,60da34669fd87bea96619e41,62bbfa2e4557526fa8e918a6,2022-06-29_09h11.26.058,Colour_Asymmetry_Pilot,2022.1.3,Win32,59.93766483,62bbe60bf3d75ef465d3e404,,,,,,,,,,,,,,,,,,,,,,,,,,,,,,,,,,,,,,,,,,,,,,,,,,,,,,,,,,,,,,,,,,,,,,,,,,,,,,,,,,,,,,,,,,,,,,,,,,,,,,,,,,,,,,,,,,,,,,,,,,,,,,,,,,,,,,,,,,,,,,,,,,,,,,,,,,,,,,
0,57,57,89,1,,60da34669fd87bea96619e41,62bbfa2e4557526fa8e918a6,2022-06-29_09h11.26.058,Colour_Asymmetry_Pilot,2022.1.3,Win32,59.93766483,62bbe60bf3d75ef465d3e404,,,,,,,,,,,,,,,,,,,,,,,,,,,,,,,,,,,,,,,,,,,,,,,,,,,,,,,,,,,,,,,,,,,,,,,,,,,,,,,,,,,,,,,,,,,,,,,,,,,,,,,,,,,,,,,,,,,,,,,,,,,,,,,,,,,,,,,,,,,,,,,,,,,,,,,,,,,,,,
0,58,58,7,1,,60da34669fd87bea96619e41,62bbfa2e4557526fa8e918a6,2022-06-29_09h11.26.058,Colour_Asymmetry_Pilot,2022.1.3,Win32,59.93766483,62bbe60bf3d75ef465d3e404,,,,,,,,,,,,,,,,,,,,,,,,,,,,,,,,,,,,,,,,,,,,,,,,,,,,,,,,,,,,,,,,,,,,,,,,,,,,,,,,,,,,,,,,,,,,,,,,,,,,,,,,,,,,,,,,,,,,,,,,,,,,,,,,,,,,,,,,,,,,,,,,,,,,,,,,,,,,,,
0,59,59,21,1,,60da34669fd87bea96619e41,62bbfa2e4557526fa8e918a6,2022-06-29_09h11.26.058,Colour_Asymmetry_Pilot,2022.1.3,Win32,59.93766483,62bbe60bf3d75ef465d3e404,,,,,,,,,,,,,,,,,,,,,,,,,,,,,,,,,,,,,,,,,,,,,,,,,,,,,,,,,,,,,,,,,,,,,,,,,,,,,,,,,,,,,,,,,,,,,,,,,,,,,,,,,,,,,,,,,,,,,,,,,,,,,,,,,,,,,,,,,,,,,,,,,,,,,,,,,,,,,,
0,60,60,54,1,,60da34669fd87bea96619e41,62bbfa2e4557526fa8e918a6,2022-06-29_09h11.26.058,Colour_Asymmetry_Pilot,2022.1.3,Win32,59.93766483,62bbe60bf3d75ef465d3e404,,,,,,,,,,,,,,,,,,,,,,,,,,,,,,,,,,,,,,,,,,,,,,,,,,,,,,,,,,,,,,,,,,,,,,,,,,,,,,,,,,,,,,,,,,,,,,,,,,,,,,,,,,,,,,,,,,,,,,,,,,,,,,,,,,,,,,,,,,,,,,,,,,,,,,,,,,,,,,
0,61,61,82,1,,60da34669fd87bea96619e41,62bbfa2e4557526fa8e918a6,2022-06-29_09h11.26.058,Colour_Asymmetry_Pilot,2022.1.3,Win32,59.93766483,62bbe60bf3d75ef465d3e404,,,,,,,,,,,,,,,,,,,,,,,,,,,,,,,,,,,,,,,,,,,,,,,,,,,,,,,,,,,,,,,,,,,,,,,,,,,,,,,,,,,,,,,,,,,,,,,,,,,,,,,,,,,,,,,,,,,,,,,,,,,,,,,,,,,,,,,,,,,,,,,,,,,,,,,,,,,,,,
0,62,62,3,1,,60da34669fd87bea96619e41,62bbfa2e4557526fa8e918a6,2022-06-29_09h11.26.058,Colour_Asymmetry_Pilot,2022.1.3,Win32,59.93766483,62bbe60bf3d75ef465d3e404,,,,,,,,,,,,,,,,,,,,,,,,,,,,,,,,,,,,,,,,,,,,,,,,,,,,,,,,,,,,,,,,,,,,,,,,,,,,,,,,,,,,,,,,,,,,,,,,,,,,,,,,,,,,,,,,,,,,,,,,,,,,,,,,,,,,,,,,,,,,,,,,,,,,,,,,,,,,,,
0,63,63,29,1,,60da34669fd87bea96619e41,62bbfa2e4557526fa8e918a6,2022-06-29_09h11.26.058,Colour_Asymmetry_Pilot,2022.1.3,Win32,59.93766483,62bbe60bf3d75ef465d3e404,,,,,,,,,,,,,,,,,,,,,,,,,,,,,,,,,,,,,,,,,,,,,,,,,,,,,,,,,,,,,,,,,,,,,,,,,,,,,,,,,,,,,,,,,,,,,,,,,,,,,,,,,,,,,,,,,,,,,,,,,,,,,,,,,,,,,,,,,,,,,,,,,,,,,,,,,,,,,,
0,64,64,91,1,,60da34669fd87bea96619e41,62bbfa2e4557526fa8e918a6,2022-06-29_09h11.26.058,Colour_Asymmetry_Pilot,2022.1.3,Win32,59.93766483,62bbe60bf3d75ef465d3e404,,,,,,,,,,,,,,,,,,,,,,,,,,,,,,,,,,,,,,,,,,,,,,,,,,,,,,,,,,,,,,,,,,,,,,,,,,,,,,,,,,,,,,,,,,,,,,,,,,,,,,,,,,,,,,,,,,,,,,,,,,,,,,,,,,,,,,,,,,,,,,,,,,,,,,,,,,,,,,
0,65,65,28,1,,60da34669fd87bea96619e41,62bbfa2e4557526fa8e918a6,2022-06-29_09h11.26.058,Colour_Asymmetry_Pilot,2022.1.3,Win32,59.93766483,62bbe60bf3d75ef465d3e404,,,,,,,,,,,,,,,,,,,,,,,,,,,,,,,,,,,,,,,,,,,,,,,,,,,,,,,,,,,,,,,,,,,,,,,,,,,,,,,,,,,,,,,,,,,,,,,,,,,,,,,,,,,,,,,,,,,,,,,,,,,,,,,,,,,,,,,,,,,,,,,,,,,,,,,,,,,,,,
0,66,66,60,1,,60da34669fd87bea96619e41,62bbfa2e4557526fa8e918a6,2022-06-29_09h11.26.058,Colour_Asymmetry_Pilot,2022.1.3,Win32,59.93766483,62bbe60bf3d75ef465d3e404,,,,,,,,,,,,,,,,,,,,,,,,,,,,,,,,,,,,,,,,,,,,,,,,,,,,,,,,,,,,,,,,,,,,,,,,,,,,,,,,,,,,,,,,,,,,,,,,,,,,,,,,,,,,,,,,,,,,,,,,,,,,,,,,,,,,,,,,,,,,,,,,,,,,,,,,,,,,,,
0,67,67,86,1,,60da34669fd87bea96619e41,62bbfa2e4557526fa8e918a6,2022-06-29_09h11.26.058,Colour_Asymmetry_Pilot,2022.1.3,Win32,59.93766483,62bbe60bf3d75ef465d3e404,,,,,,,,,,,,,,,,,,,,,,,,,,,,,,,,,,,,,,,,,,,,,,,,,,,,,,,,,,,,,,,,,,,,,,,,,,,,,,,,,,,,,,,,,,,,,,,,,,,,,,,,,,,,,,,,,,,,,,,,,,,,,,,,,,,,,,,,,,,,,,,,,,,,,,,,,,,,,,
0,68,68,61,1,,60da34669fd87bea96619e41,62bbfa2e4557526fa8e918a6,2022-06-29_09h11.26.058,Colour_Asymmetry_Pilot,2022.1.3,Win32,59.93766483,62bbe60bf3d75ef465d3e404,,,,,,,,,,,,,,,,,,,,,,,,,,,,,,,,,,,,,,,,,,,,,,,,,,,,,,,,,,,,,,,,,,,,,,,,,,,,,,,,,,,,,,,,,,,,,,,,,,,,,,,,,,,,,,,,,,,,,,,,,,,,,,,,,,,,,,,,,,,,,,,,,,,,,,,,,,,,,,
0,69,69,72,1,,60da34669fd87bea96619e41,62bbfa2e4557526fa8e918a6,2022-06-29_09h11.26.058,Colour_Asymmetry_Pilot,2022.1.3,Win32,59.93766483,62bbe60bf3d75ef465d3e404,,,,,,,,,,,,,,,,,,,,,,,,,,,,,,,,,,,,,,,,,,,,,,,,,,,,,,,,,,,,,,,,,,,,,,,,,,,,,,,,,,,,,,,,,,,,,,,,,,,,,,,,,,,,,,,,,,,,,,,,,,,,,,,,,,,,,,,,,,,,,,,,,,,,,,,,,,,,,,
0,70,70,65,1,,60da34669fd87bea96619e41,62bbfa2e4557526fa8e918a6,2022-06-29_09h11.26.058,Colour_Asymmetry_Pilot,2022.1.3,Win32,59.93766483,62bbe60bf3d75ef465d3e404,,,,,,,,,,,,,,,,,,,,,,,,,,,,,,,,,,,,,,,,,,,,,,,,,,,,,,,,,,,,,,,,,,,,,,,,,,,,,,,,,,,,,,,,,,,,,,,,,,,,,,,,,,,,,,,,,,,,,,,,,,,,,,,,,,,,,,,,,,,,,,,,,,,,,,,,,,,,,,
0,71,71,88,1,,60da34669fd87bea96619e41,62bbfa2e4557526fa8e918a6,2022-06-29_09h11.26.058,Colour_Asymmetry_Pilot,2022.1.3,Win32,59.93766483,62bbe60bf3d75ef465d3e404,,,,,,,,,,,,,,,,,,,,,,,,,,,,,,,,,,,,,,,,,,,,,,,,,,,,,,,,,,,,,,,,,,,,,,,,,,,,,,,,,,,,,,,,,,,,,,,,,,,,,,,,,,,,,,,,,,,,,,,,,,,,,,,,,,,,,,,,,,,,,,,,,,,,,,,,,,,,,,
0,72,72,35,1,,60da34669fd87bea96619e41,62bbfa2e4557526fa8e918a6,2022-06-29_09h11.26.058,Colour_Asymmetry_Pilot,2022.1.3,Win32,59.93766483,62bbe60bf3d75ef465d3e404,,,,,,,,,,,,,,,,,,,,,,,,,,,,,,,,,,,,,,,,,,,,,,,,,,,,,,,,,,,,,,,,,,,,,,,,,,,,,,,,,,,,,,,,,,,,,,,,,,,,,,,,,,,,,,,,,,,,,,,,,,,,,,,,,,,,,,,,,,,,,,,,,,,,,,,,,,,,,,
0,73,73,30,1,,60da34669fd87bea96619e41,62bbfa2e4557526fa8e918a6,2022-06-29_09h11.26.058,Colour_Asymmetry_Pilot,2022.1.3,Win32,59.93766483,62bbe60bf3d75ef465d3e404,,,,,,,,,,,,,,,,,,,,,,,,,,,,,,,,,,,,,,,,,,,,,,,,,,,,,,,,,,,,,,,,,,,,,,,,,,,,,,,,,,,,,,,,,,,,,,,,,,,,,,,,,,,,,,,,,,,,,,,,,,,,,,,,,,,,,,,,,,,,,,,,,,,,,,,,,,,,,,
0,74,74,67,1,,60da34669fd87bea96619e41,62bbfa2e4557526fa8e918a6,2022-06-29_09h11.26.058,Colour_Asymmetry_Pilot,2022.1.3,Win32,59.93766483,62bbe60bf3d75ef465d3e404,,,,,,,,,,,,,,,,,,,,,,,,,,,,,,,,,,,,,,,,,,,,,,,,,,,,,,,,,,,,,,,,,,,,,,,,,,,,,,,,,,,,,,,,,,,,,,,,,,,,,,,,,,,,,,,,,,,,,,,,,,,,,,,,,,,,,,,,,,,,,,,,,,,,,,,,,,,,,,
0,75,75,79,1,,60da34669fd87bea96619e41,62bbfa2e4557526fa8e918a6,2022-06-29_09h11.26.058,Colour_Asymmetry_Pilot,2022.1.3,Win32,59.93766483,62bbe60bf3d75ef465d3e404,,,,,,,,,,,,,,,,,,,,,,,,,,,,,,,,,,,,,,,,,,,,,,,,,,,,,,,,,,,,,,,,,,,,,,,,,,,,,,,,,,,,,,,,,,,,,,,,,,,,,,,,,,,,,,,,,,,,,,,,,,,,,,,,,,,,,,,,,,,,,,,,,,,,,,,,,,,,,,
0,76,76,31,1,,60da34669fd87bea96619e41,62bbfa2e4557526fa8e918a6,2022-06-29_09h11.26.058,Colour_Asymmetry_Pilot,2022.1.3,Win32,59.93766483,62bbe60bf3d75ef465d3e404,,,,,,,,,,,,,,,,,,,,,,,,,,,,,,,,,,,,,,,,,,,,,,,,,,,,,,,,,,,,,,,,,,,,,,,,,,,,,,,,,,,,,,,,,,,,,,,,,,,,,,,,,,,,,,,,,,,,,,,,,,,,,,,,,,,,,,,,,,,,,,,,,,,,,,,,,,,,,,
0,77,77,27,1,,60da34669fd87bea96619e41,62bbfa2e4557526fa8e918a6,2022-06-29_09h11.26.058,Colour_Asymmetry_Pilot,2022.1.3,Win32,59.93766483,62bbe60bf3d75ef465d3e404,,,,,,,,,,,,,,,,,,,,,,,,,,,,,,,,,,,,,,,,,,,,,,,,,,,,,,,,,,,,,,,,,,,,,,,,,,,,,,,,,,,,,,,,,,,,,,,,,,,,,,,,,,,,,,,,,,,,,,,,,,,,,,,,,,,,,,,,,,,,,,,,,,,,,,,,,,,,,,
0,78,78,17,1,,60da34669fd87bea96619e41,62bbfa2e4557526fa8e918a6,2022-06-29_09h11.26.058,Colour_Asymmetry_Pilot,2022.1.3,Win32,59.93766483,62bbe60bf3d75ef465d3e404,,,,,,,,,,,,,,,,,,,,,,,,,,,,,,,,,,,,,,,,,,,,,,,,,,,,,,,,,,,,,,,,,,,,,,,,,,,,,,,,,,,,,,,,,,,,,,,,,,,,,,,,,,,,,,,,,,,,,,,,,,,,,,,,,,,,,,,,,,,,,,,,,,,,,,,,,,,,,,
0,79,79,80,1,,60da34669fd87bea96619e41,62bbfa2e4557526fa8e918a6,2022-06-29_09h11.26.058,Colour_Asymmetry_Pilot,2022.1.3,Win32,59.93766483,62bbe60bf3d75ef465d3e404,,,,,,,,,,,,,,,,,,,,,,,,,,,,,,,,,,,,,,,,,,,,,,,,,,,,,,,,,,,,,,,,,,,,,,,,,,,,,,,,,,,,,,,,,,,,,,,,,,,,,,,,,,,,,,,,,,,,,,,,,,,,,,,,,,,,,,,,,,,,,,,,,,,,,,,,,,,,,,
0,80,80,24,1,,60da34669fd87bea96619e41,62bbfa2e4557526fa8e918a6,2022-06-29_09h11.26.058,Colour_Asymmetry_Pilot,2022.1.3,Win32,59.93766483,62bbe60bf3d75ef465d3e404,,,,,,,,,,,,,,,,,,,,,,,,,,,,,,,,,,,,,,,,,,,,,,,,,,,,,,,,,,,,,,,,,,,,,,,,,,,,,,,,,,,,,,,,,,,,,,,,,,,,,,,,,,,,,,,,,,,,,,,,,,,,,,,,,,,,,,,,,,,,,,,,,,,,,,,,,,,,,,
0,81,81,46,1,,60da34669fd87bea96619e41,62bbfa2e4557526fa8e918a6,2022-06-29_09h11.26.058,Colour_Asymmetry_Pilot,2022.1.3,Win32,59.93766483,62bbe60bf3d75ef465d3e404,,,,,,,,,,,,,,,,,,,,,,,,,,,,,,,,,,,,,,,,,,,,,,,,,,,,,,,,,,,,,,,,,,,,,,,,,,,,,,,,,,,,,,,,,,,,,,,,,,,,,,,,,,,,,,,,,,,,,,,,,,,,,,,,,,,,,,,,,,,,,,,,,,,,,,,,,,,,,,
0,82,82,13,1,,60da34669fd87bea96619e41,62bbfa2e4557526fa8e918a6,2022-06-29_09h11.26.058,Colour_Asymmetry_Pilot,2022.1.3,Win32,59.93766483,62bbe60bf3d75ef465d3e404,,,,,,,,,,,,,,,,,,,,,,,,,,,,,,,,,,,,,,,,,,,,,,,,,,,,,,,,,,,,,,,,,,,,,,,,,,,,,,,,,,,,,,,,,,,,,,,,,,,,,,,,,,,,,,,,,,,,,,,,,,,,,,,,,,,,,,,,,,,,,,,,,,,,,,,,,,,,,,
0,83,83,22,1,,60da34669fd87bea96619e41,62bbfa2e4557526fa8e918a6,2022-06-29_09h11.26.058,Colour_Asymmetry_Pilot,2022.1.3,Win32,59.93766483,62bbe60bf3d75ef465d3e404,,,,,,,,,,,,,,,,,,,,,,,,,,,,,,,,,,,,,,,,,,,,,,,,,,,,,,,,,,,,,,,,,,,,,,,,,,,,,,,,,,,,,,,,,,,,,,,,,,,,,,,,,,,,,,,,,,,,,,,,,,,,,,,,,,,,,,,,,,,,,,,,,,,,,,,,,,,,,,
0,84,84,18,1,,60da34669fd87bea96619e41,62bbfa2e4557526fa8e918a6,2022-06-29_09h11.26.058,Colour_Asymmetry_Pilot,2022.1.3,Win32,59.93766483,62bbe60bf3d75ef465d3e404,,,,,,,,,,,,,,,,,,,,,,,,,,,,,,,,,,,,,,,,,,,,,,,,,,,,,,,,,,,,,,,,,,,,,,,,,,,,,,,,,,,,,,,,,,,,,,,,,,,,,,,,,,,,,,,,,,,,,,,,,,,,,,,,,,,,,,,,,,,,,,,,,,,,,,,,,,,,,,
0,85,85,44,1,,60da34669fd87bea96619e41,62bbfa2e4557526fa8e918a6,2022-06-29_09h11.26.058,Colour_Asymmetry_Pilot,2022.1.3,Win32,59.93766483,62bbe60bf3d75ef465d3e404,,,,,,,,,,,,,,,,,,,,,,,,,,,,,,,,,,,,,,,,,,,,,,,,,,,,,,,,,,,,,,,,,,,,,,,,,,,,,,,,,,,,,,,,,,,,,,,,,,,,,,,,,,,,,,,,,,,,,,,,,,,,,,,,,,,,,,,,,,,,,,,,,,,,,,,,,,,,,,
0,86,86,45,1,,60da34669fd87bea96619e41,62bbfa2e4557526fa8e918a6,2022-06-29_09h11.26.058,Colour_Asymmetry_Pilot,2022.1.3,Win32,59.93766483,62bbe60bf3d75ef465d3e404,,,,,,,,,,,,,,,,,,,,,,,,,,,,,,,,,,,,,,,,,,,,,,,,,,,,,,,,,,,,,,,,,,,,,,,,,,,,,,,,,,,,,,,,,,,,,,,,,,,,,,,,,,,,,,,,,,,,,,,,,,,,,,,,,,,,,,,,,,,,,,,,,,,,,,,,,,,,,,
0,87,87,55,1,,60da34669fd87bea96619e41,62bbfa2e4557526fa8e918a6,2022-06-29_09h11.26.058,Colour_Asymmetry_Pilot,2022.1.3,Win32,59.93766483,62bbe60bf3d75ef465d3e404,,,,,,,,,,,,,,,,,,,,,,,,,,,,,,,,,,,,,,,,,,,,,,,,,,,,,,,,,,,,,,,,,,,,,,,,,,,,,,,,,,,,,,,,,,,,,,,,,,,,,,,,,,,,,,,,,,,,,,,,,,,,,,,,,,,,,,,,,,,,,,,,,,,,,,,,,,,,,,
0,88,88,59,1,,60da34669fd87bea96619e41,62bbfa2e4557526fa8e918a6,2022-06-29_09h11.26.058,Colour_Asymmetry_Pilot,2022.1.3,Win32,59.93766483,62bbe60bf3d75ef465d3e404,,,,,,,,,,,,,,,,,,,,,,,,,,,,,,,,,,,,,,,,,,,,,,,,,,,,,,,,,,,,,,,,,,,,,,,,,,,,,,,,,,,,,,,,,,,,,,,,,,,,,,,,,,,,,,,,,,,,,,,,,,,,,,,,,,,,,,,,,,,,,,,,,,,,,,,,,,,,,,
0,89,89,41,1,,60da34669fd87bea96619e41,62bbfa2e4557526fa8e918a6,2022-06-29_09h11.26.058,Colour_Asymmetry_Pilot,2022.1.3,Win32,59.93766483,62bbe60bf3d75ef465d3e404,,,,,,,,,,,,,,,,,,,,,,,,,,,,,,,,,,,,,,,,,,,,,,,,,,,,,,,,,,,,,,,,,,,,,,,,,,,,,,,,,,,,,,,,,,,,,,,,,,,,,,,,,,,,,,,,,,,,,,,,,,,,,,,,,,,,,,,,,,,,,,,,,,,,,,,,,,,,,,
0,90,90,49,1,,60da34669fd87bea96619e41,62bbfa2e4557526fa8e918a6,2022-06-29_09h11.26.058,Colour_Asymmetry_Pilot,2022.1.3,Win32,59.93766483,62bbe60bf3d75ef465d3e404,,,,,,,,,,,,,,,,,,,,,,,,,,,,,,,,,,,,,,,,,,,,,,,,,,,,,,,,,,,,,,,,,,,,,,,,,,,,,,,,,,,,,,,,,,,,,,,,,,,,,,,,,,,,,,,,,,,,,,,,,,,,,,,,,,,,,,,,,,,,,,,,,,,,,,,,,,,,,,
0,91,91,90,1,,60da34669fd87bea96619e41,62bbfa2e4557526fa8e918a6,2022-06-29_09h11.26.058,Colour_Asymmetry_Pilot,2022.1.3,Win32,59.93766483,62bbe60bf3d75ef465d3e404,,,,,,,,,,,,,,,,,,,,,,,,,,,,,,,,,,,,,,,,,,,,,,,,,,,,,,,,,,,,,,,,,,,,,,,,,,,,,,,,,,,,,,,,,,,,,,,,,,,,,,,,,,,,,,,,,,,,,,,,,,,,,,,,,,,,,,,,,,,,,,,,,,,,,,,,,,,,,,
0,92,92,73,1,,60da34669fd87bea96619e41,62bbfa2e4557526fa8e918a6,2022-06-29_09h11.26.058,Colour_Asymmetry_Pilot,2022.1.3,Win32,59.93766483,62bbe60bf3d75ef465d3e404,,,,,,,,,,,,,,,,,,,,,,,,,,,,,,,,,,,,,,,,,,,,,,,,,,,,,,,,,,,,,,,,,,,,,,,,,,,,,,,,,,,,,,,,,,,,,,,,,,,,,,,,,,,,,,,,,,,,,,,,,,,,,,,,,,,,,,,,,,,,,,,,,,,,,,,,,,,,,,
,,,,,,60da34669fd87bea96619e41,62bbfa2e4557526fa8e918a6,2022-06-29_09h11.26.058,Colour_Asymmetry_Pilot,2022.1.3,Win32,59.93766483,62bbe60bf3d75ef465d3e404,0,0,0,109,1,threefour,,,,,,,,,,,,,,,,,,,,,,,,,,,,,,,,,,,,,,,,,,,,,,,,,,,,,,,,,,,,,,,,,,,,,,,,,,,,,,,,,,,,,,,,,,,,,,,,,,,,,,,,,,,,,,,,,,,,,,,,,,,,,,,,,,,,,,,,,,,,,,,,,,,,,,,,
,,,,,,60da34669fd87bea96619e41,62bbfa2e4557526fa8e918a6,2022-06-29_09h11.26.058,Colour_Asymmetry_Pilot,2022.1.3,Win32,59.93766483,62bbe60bf3d75ef465d3e404,0,1,1,107,1,twofour,,,,,,,,,,,,,,,,,,,,,,,,,,,,,,,,,,,,,,,,,,,,,,,,,,,,,,,,,,,,,,,,,,,,,,,,,,,,,,,,,,,,,,,,,,,,,,,,,,,,,,,,,,,,,,,,,,,,,,,,,,,,,,,,,,,,,,,,,,,,,,,,,,,,,,,,
,,,,,,60da34669fd87bea96619e41,62bbfa2e4557526fa8e918a6,2022-06-29_09h11.26.058,Colour_Asymmetry_Pilot,2022.1.3,Win32,59.93766483,62bbe60bf3d75ef465d3e404,0,2,2,39,1,fourthree,,,,,,,,,,,,,,,,,,,,,,,,,,,,,,,,,,,,,,,,,,,,,,,,,,,,,,,,,,,,,,,,,,,,,,,,,,,,,,,,,,,,,,,,,,,,,,,,,,,,,,,,,,,,,,,,,,,,,,,,,,,,,,,,,,,,,,,,,,,,,,,,,,,,,,,,
,,,,,,60da34669fd87bea96619e41,62bbfa2e4557526fa8e918a6,2022-06-29_09h11.26.058,Colour_Asymmetry_Pilot,2022.1.3,Win32,59.93766483,62bbe60bf3d75ef465d3e404,0,3,3,147,1,twofour,,,,,,,,,,,,,,,,,,,,,,,,,,,,,,,,,,,,,,,,,,,,,,,,,,,,,,,,,,,,,,,,,,,,,,,,,,,,,,,,,,,,,,,,,,,,,,,,,,,,,,,,,,,,,,,,,,,,,,,,,,,,,,,,,,,,,,,,,,,,,,,,,,,,,,,,
,,,,,,60da34669fd87bea96619e41,62bbfa2e4557526fa8e918a6,2022-06-29_09h11.26.058,Colour_Asymmetry_Pilot,2022.1.3,Win32,59.93766483,62bbe60bf3d75ef465d3e404,0,4,4,145,1,onethree,,,,,,,,,,,,,,,,,,,,,,,,,,,,,,,,,,,,,,,,,,,,,,,,,,,,,,,,,,,,,,,,,,,,,,,,,,,,,,,,,,,,,,,,,,,,,,,,,,,,,,,,,,,,,,,,,,,,,,,,,,,,,,,,,,,,,,,,,,,,,,,,,,,,,,,,
,,,,,,60da34669fd87bea96619e41,62bbfa2e4557526fa8e918a6,2022-06-29_09h11.26.058,Colour_Asymmetry_Pilot,2022.1.3,Win32,59.93766483,62bbe60bf3d75ef465d3e404,0,5,5,5,1,threefour,,,,,,,,,,,,,,,,,,,,,,,,,,,,,,,,,,,,,,,,,,,,,,,,,,,,,,,,,,,,,,,,,,,,,,,,,,,,,,,,,,,,,,,,,,,,,,,,,,,,,,,,,,,,,,,,,,,,,,,,,,,,,,,,,,,,,,,,,,,,,,,,,,,,,,,,
,,,,,,60da34669fd87bea96619e41,62bbfa2e4557526fa8e918a6,2022-06-29_09h11.26.058,Colour_Asymmetry_Pilot,2022.1.3,Win32,59.93766483,62bbe60bf3d75ef465d3e404,0,6,6,24,1,onetwo,,,,,,,,,,,,,,,,,,,,,,,,,,,,,,,,,,,,,,,,,,,,,,,,,,,,,,,,,,,,,,,,,,,,,,,,,,,,,,,,,,,,,,,,,,,,,,,,,,,,,,,,,,,,,,,,,,,,,,,,,,,,,,,,,,,,,,,,,,,,,,,,,,,,,,,,
,,,,,,60da34669fd87bea96619e41,62bbfa2e4557526fa8e918a6,2022-06-29_09h11.26.058,Colour_Asymmetry_Pilot,2022.1.3,Win32,59.93766483,62bbe60bf3d75ef465d3e404,0,7,7,160,1,onetwo,,,,,,,,,,,,,,,,,,,,,,,,,,,,,,,,,,,,,,,,,,,,,,,,,,,,,,,,,,,,,,,,,,,,,,,,,,,,,,,,,,,,,,,,,,,,,,,,,,,,,,,,,,,,,,,,,,,,,,,,,,,,,,,,,,,,,,,,,,,,,,,,,,,,,,,,
,,,,,,60da34669fd87bea96619e41,62bbfa2e4557526fa8e918a6,2022-06-29_09h11.26.058,Colour_Asymmetry_Pilot,2022.1.3,Win32,59.93766483,62bbe60bf3d75ef465d3e404,0,8,8,80,1,onetwo,,,,,,,,,,,,,,,,,,,,,,,,,,,,,,,,,,,,,,,,,,,,,,,,,,,,,,,,,,,,,,,,,,,,,,,,,,,,,,,,,,,,,,,,,,,,,,,,,,,,,,,,,,,,,,,,,,,,,,,,,,,,,,,,,,,,,,,,,,,,,,,,,,,,,,,,
,,,,,,60da34669fd87bea96619e41,62bbfa2e4557526fa8e918a6,2022-06-29_09h11.26.058,Colour_Asymmetry_Pilot,2022.1.3,Win32,59.93766483,62bbe60bf3d75ef465d3e404,0,9,9,90,1,twoone,,,,,,,,,,,,,,,,,,,,,,,,,,,,,,,,,,,,,,,,,,,,,,,,,,,,,,,,,,,,,,,,,,,,,,,,,,,,,,,,,,,,,,,,,,,,,,,,,,,,,,,,,,,,,,,,,,,,,,,,,,,,,,,,,,,,,,,,,,,,,,,,,,,,,,,,
,,,,,,60da34669fd87bea96619e41,62bbfa2e4557526fa8e918a6,2022-06-29_09h11.26.058,Colour_Asymmetry_Pilot,2022.1.3,Win32,59.93766483,62bbe60bf3d75ef465d3e404,0,10,10,31,1,fourthree,,,,,,,,,,,,,,,,,,,,,,,,,,,,,,,,,,,,,,,,,,,,,,,,,,,,,,,,,,,,,,,,,,,,,,,,,,,,,,,,,,,,,,,,,,,,,,,,,,,,,,,,,,,,,,,,,,,,,,,,,,,,,,,,,,,,,,,,,,,,,,,,,,,,,,,,
,,,,,,60da34669fd87bea96619e41,62bbfa2e4557526fa8e918a6,2022-06-29_09h11.26.058,Colour_Asymmetry_Pilot,2022.1.3,Win32,59.93766483,62bbe60bf3d75ef465d3e404,0,11,11,32,1,onetwo,,,,,,,,,,,,,,,,,,,,,,,,,,,,,,,,,,,,,,,,,,,,,,,,,,,,,,,,,,,,,,,,,,,,,,,,,,,,,,,,,,,,,,,,,,,,,,,,,,,,,,,,,,,,,,,,,,,,,,,,,,,,,,,,,,,,,,,,,,,,,,,,,,,,,,,,
,,,,,,60da34669fd87bea96619e41,62bbfa2e4557526fa8e918a6,2022-06-29_09h11.26.058,Colour_Asymmetry_Pilot,2022.1.3,Win32,59.93766483,62bbe60bf3d75ef465d3e404,0,12,12,51,1,twofour,,,,,,,,,,,,,,,,,,,,,,,,,,,,,,,,,,,,,,,,,,,,,,,,,,,,,,,,,,,,,,,,,,,,,,,,,,,,,,,,,,,,,,,,,,,,,,,,,,,,,,,,,,,,,,,,,,,,,,,,,,,,,,,,,,,,,,,,,,,,,,,,,,,,,,,,
,,,,,,60da34669fd87bea96619e41,62bbfa2e4557526fa8e918a6,2022-06-29_09h11.26.058,Colour_Asymmetry_Pilot,2022.1.3,Win32,59.93766483,62bbe60bf3d75ef465d3e404,0,13,13,139,1,twofour,,,,,,,,,,,,,,,,,,,,,,,,,,,,,,,,,,,,,,,,,,,,,,,,,,,,,,,,,,,,,,,,,,,,,,,,,,,,,,,,,,,,,,,,,,,,,,,,,,,,,,,,,,,,,,,,,,,,,,,,,,,,,,,,,,,,,,,,,,,,,,,,,,,,,,,,
,,,,,,60da34669fd87bea96619e41,62bbfa2e4557526fa8e918a6,2022-06-29_09h11.26.058,Colour_Asymmetry_Pilot,2022.1.3,Win32,59.93766483,62bbe60bf3d75ef465d3e404,0,14,14,144,1,onetwo,,,,,,,,,,,,,,,,,,,,,,,,,,,,,,,,,,,,,,,,,,,,,,,,,,,,,,,,,,,,,,,,,,,,,,,,,,,,,,,,,,,,,,,,,,,,,,,,,,,,,,,,,,,,,,,,,,,,,,,,,,,,,,,,,,,,,,,,,,,,,,,,,,,,,,,,
,,,,,,60da34669fd87bea96619e41,62bbfa2e4557526fa8e918a6,2022-06-29_09h11.26.058,Colour_Asymmetry_Pilot,2022.1.3,Win32,59.93766483,62bbe60bf3d75ef465d3e404,0,15,15,3,1,twofour,,,,,,,,,,,,,,,,,,,,,,,,,,,,,,,,,,,,,,,,,,,,,,,,,,,,,,,,,,,,,,,,,,,,,,,,,,,,,,,,,,,,,,,,,,,,,,,,,,,,,,,,,,,,,,,,,,,,,,,,,,,,,,,,,,,,,,,,,,,,,,,,,,,,,,,,
,,,,,,60da34669fd87bea96619e41,62bbfa2e4557526fa8e918a6,2022-06-29_09h11.26.058,Colour_Asymmetry_Pilot,2022.1.3,Win32,59.93766483,62bbe60bf3d75ef465d3e404,0,16,16,158,1,fourtwo,,,,,,,,,,,,,,,,,,,,,,,,,,,,,,,,,,,,,,,,,,,,,,,,,,,,,,,,,,,,,,,,,,,,,,,,,,,,,,,,,,,,,,,,,,,,,,,,,,,,,,,,,,,,,,,,,,,,,,,,,,,,,,,,,,,,,,,,,,,,,,,,,,,,,,,,
,,,,,,60da34669fd87bea96619e41,62bbfa2e4557526fa8e918a6,2022-06-29_09h11.26.058,Colour_Asymmetry_Pilot,2022.1.3,Win32,59.93766483,62bbe60bf3d75ef465d3e404,0,17,17,131,1,twofour,,,,,,,,,,,,,,,,,,,,,,,,,,,,,,,,,,,,,,,,,,,,,,,,,,,,,,,,,,,,,,,,,,,,,,,,,,,,,,,,,,,,,,,,,,,,,,,,,,,,,,,,,,,,,,,,,,,,,,,,,,,,,,,,,,,,,,,,,,,,,,,,,,,,,,,,
,,,,,,60da34669fd87bea96619e41,62bbfa2e4557526fa8e918a6,2022-06-29_09h11.26.058,Colour_Asymmetry_Pilot,2022.1.3,Win32,59.93766483,62bbe60bf3d75ef465d3e404,0,18,18,30,1,fourtwo,,,,,,,,,,,,,,,,,,,,,,,,,,,,,,,,,,,,,,,,,,,,,,,,,,,,,,,,,,,,,,,,,,,,,,,,,,,,,,,,,,,,,,,,,,,,,,,,,,,,,,,,,,,,,,,,,,,,,,,,,,,,,,,,,,,,,,,,,,,,,,,,,,,,,,,,
,,,,,,60da34669fd87bea96619e41,62bbfa2e4557526fa8e918a6,2022-06-29_09h11.26.058,Colour_Asymmetry_Pilot,2022.1.3,Win32,59.93766483,62bbe60bf3d75ef465d3e404,0,19,19,106,1,twoone,,,,,,,,,,,,,,,,,,,,,,,,,,,,,,,,,,,,,,,,,,,,,,,,,,,,,,,,,,,,,,,,,,,,,,,,,,,,,,,,,,,,,,,,,,,,,,,,,,,,,,,,,,,,,,,,,,,,,,,,,,,,,,,,,,,,,,,,,,,,,,,,,,,,,,,,
,,,,,,60da34669fd87bea96619e41,62bbfa2e4557526fa8e918a6,2022-06-29_09h11.26.058,Colour_Asymmetry_Pilot,2022.1.3,Win32,59.93766483,62bbe60bf3d75ef465d3e404,0,20,20,74,1,twoone,,,,,,,,,,,,,,,,,,,,,,,,,,,,,,,,,,,,,,,,,,,,,,,,,,,,,,,,,,,,,,,,,,,,,,,,,,,,,,,,,,,,,,,,,,,,,,,,,,,,,,,,,,,,,,,,,,,,,,,,,,,,,,,,,,,,,,,,,,,,,,,,,,,,,,,,
,,,,,,60da34669fd87bea96619e41,62bbfa2e4557526fa8e918a6,2022-06-29_09h11.26.058,Colour_Asymmetry_Pilot,2022.1.3,Win32,59.93766483,62bbe60bf3d75ef465d3e404,0,21,21,133,1,threefour,,,,,,,,,,,,,,,,,,,,,,,,,,,,,,,,,,,,,,,,,,,,,,,,,,,,,,,,,,,,,,,,,,,,,,,,,,,,,,,,,,,,,,,,,,,,,,,,,,,,,,,,,,,,,,,,,,,,,,,,,,,,,,,,,,,,,,,,,,,,,,,,,,,,,,,,
,,,,,,60da34669fd87bea96619e41,62bbfa2e4557526fa8e918a6,2022-06-29_09h11.26.058,Colour_Asymmetry_Pilot,2022.1.3,Win32,59.93766483,62bbe60bf3d75ef465d3e404,0,22,22,36,1,threeone,,,,,,,,,,,,,,,,,,,,,,,,,,,,,,,,,,,,,,,,,,,,,,,,,,,,,,,,,,,,,,,,,,,,,,,,,,,,,,,,,,,,,,,,,,,,,,,,,,,,,,,,,,,,,,,,,,,,,,,,,,,,,,,,,,,,,,,,,,,,,,,,,,,,,,,,
,,,,,,60da34669fd87bea96619e41,62bbfa2e4557526fa8e918a6,2022-06-29_09h11.26.058,Colour_Asymmetry_Pilot,2022.1.3,Win32,59.93766483,62bbe60bf3d75ef465d3e404,0,23,23,137,1,onethree,,,,,,,,,,,,,,,,,,,,,,,,,,,,,,,,,,,,,,,,,,,,,,,,,,,,,,,,,,,,,,,,,,,,,,,,,,,,,,,,,,,,,,,,,,,,,,,,,,,,,,,,,,,,,,,,,,,,,,,,,,,,,,,,,,,,,,,,,,,,,,,,,,,,,,,,
,,,,,,60da34669fd87bea96619e41,62bbfa2e4557526fa8e918a6,2022-06-29_09h11.26.058,Colour_Asymmetry_Pilot,2022.1.3,Win32,59.93766483,62bbe60bf3d75ef465d3e404,0,24,24,86,1,fourtwo,,,,,,,,,,,,,,,,,,,,,,,,,,,,,,,,,,,,,,,,,,,,,,,,,,,,,,,,,,,,,,,,,,,,,,,,,,,,,,,,,,,,,,,,,,,,,,,,,,,,,,,,,,,,,,,,,,,,,,,,,,,,,,,,,,,,,,,,,,,,,,,,,,,,,,,,
,,,,,,60da34669fd87bea96619e41,62bbfa2e4557526fa8e918a6,2022-06-29_09h11.26.058,Colour_Asymmetry_Pilot,2022.1.3,Win32,59.93766483,62bbe60bf3d75ef465d3e404,0,25,25,14,1,fourtwo,,,,,,,,,,,,,,,,,,,,,,,,,,,,,,,,,,,,,,,,,,,,,,,,,,,,,,,,,,,,,,,,,,,,,,,,,,,,,,,,,,,,,,,,,,,,,,,,,,,,,,,,,,,,,,,,,,,,,,,,,,,,,,,,,,,,,,,,,,,,,,,,,,,,,,,,
,,,,,,60da34669fd87bea96619e41,62bbfa2e4557526fa8e918a6,2022-06-29_09h11.26.058,Colour_Asymmetry_Pilot,2022.1.3,Win32,59.93766483,62bbe60bf3d75ef465d3e404,0,26,26,1,1,onethree,,,,,,,,,,,,,,,,,,,,,,,,,,,,,,,,,,,,,,,,,,,,,,,,,,,,,,,,,,,,,,,,,,,,,,,,,,,,,,,,,,,,,,,,,,,,,,,,,,,,,,,,,,,,,,,,,,,,,,,,,,,,,,,,,,,,,,,,,,,,,,,,,,,,,,,,
,,,,,,60da34669fd87bea96619e41,62bbfa2e4557526fa8e918a6,2022-06-29_09h11.26.058,Colour_Asymmetry_Pilot,2022.1.3,Win32,59.93766483,62bbe60bf3d75ef465d3e404,0,27,27,41,1,onethree,,,,,,,,,,,,,,,,,,,,,,,,,,,,,,,,,,,,,,,,,,,,,,,,,,,,,,,,,,,,,,,,,,,,,,,,,,,,,,,,,,,,,,,,,,,,,,,,,,,,,,,,,,,,,,,,,,,,,,,,,,,,,,,,,,,,,,,,,,,,,,,,,,,,,,,,
,,,,,,60da34669fd87bea96619e41,62bbfa2e4557526fa8e918a6,2022-06-29_09h11.26.058,Colour_Asymmetry_Pilot,2022.1.3,Win32,59.93766483,62bbe60bf3d75ef465d3e404,0,28,28,161,1,onethree,,,,,,,,,,,,,,,,,,,,,,,,,,,,,,,,,,,,,,,,,,,,,,,,,,,,,,,,,,,,,,,,,,,,,,,,,,,,,,,,,,,,,,,,,,,,,,,,,,,,,,,,,,,,,,,,,,,,,,,,,,,,,,,,,,,,,,,,,,,,,,,,,,,,,,,,
,,,,,,60da34669fd87bea96619e41,62bbfa2e4557526fa8e918a6,2022-06-29_09h11.26.058,Colour_Asymmetry_Pilot,2022.1.3,Win32,59.93766483,62bbe60bf3d75ef465d3e404,0,29,29,60,1,threeone,,,,,,,,,,,,,,,,,,,,,,,,,,,,,,,,,,,,,,,,,,,,,,,,,,,,,,,,,,,,,,,,,,,,,,,,,,,,,,,,,,,,,,,,,,,,,,,,,,,,,,,,,,,,,,,,,,,,,,,,,,,,,,,,,,,,,,,,,,,,,,,,,,,,,,,,
,,,,,,60da34669fd87bea96619e41,62bbfa2e4557526fa8e918a6,2022-06-29_09h11.26.058,Colour_Asymmetry_Pilot,2022.1.3,Win32,59.93766483,62bbe60bf3d75ef465d3e404,0,30,30,97,1,onethree,,,,,,,,,,,,,,,,,,,,,,,,,,,,,,,,,,,,,,,,,,,,,,,,,,,,,,,,,,,,,,,,,,,,,,,,,,,,,,,,,,,,,,,,,,,,,,,,,,,,,,,,,,,,,,,,,,,,,,,,,,,,,,,,,,,,,,,,,,,,,,,,,,,,,,,,
,,,,,,60da34669fd87bea96619e41,62bbfa2e4557526fa8e918a6,2022-06-29_09h11.26.058,Colour_Asymmetry_Pilot,2022.1.3,Win32,59.93766483,62bbe60bf3d75ef465d3e404,0,31,31,25,1,onethree,,,,,,,,,,,,,,,,,,,,,,,,,,,,,,,,,,,,,,,,,,,,,,,,,,,,,,,,,,,,,,,,,,,,,,,,,,,,,,,,,,,,,,,,,,,,,,,,,,,,,,,,,,,,,,,,,,,,,,,,,,,,,,,,,,,,,,,,,,,,,,,,,,,,,,,,
,,,,,,60da34669fd87bea96619e41,62bbfa2e4557526fa8e918a6,2022-06-29_09h11.26.058,Colour_Asymmetry_Pilot,2022.1.3,Win32,59.93766483,62bbe60bf3d75ef465d3e404,0,32,32,2,1,twoone,,,,,,,,,,,,,,,,,,,,,,,,,,,,,,,,,,,,,,,,,,,,,,,,,,,,,,,,,,,,,,,,,,,,,,,,,,,,,,,,,,,,,,,,,,,,,,,,,,,,,,,,,,,,,,,,,,,,,,,,,,,,,,,,,,,,,,,,,,,,,,,,,,,,,,,,
,,,,,,60da34669fd87bea96619e41,62bbfa2e4557526fa8e918a6,2022-06-29_09h11.26.058,Colour_Asymmetry_Pilot,2022.1.3,Win32,59.93766483,62bbe60bf3d75ef465d3e404,0,33,33,79,1,fourthree,,,,,,,,,,,,,,,,,,,,,,,,,,,,,,,,,,,,,,,,,,,,,,,,,,,,,,,,,,,,,,,,,,,,,,,,,,,,,,,,,,,,,,,,,,,,,,,,,,,,,,,,,,,,,,,,,,,,,,,,,,,,,,,,,,,,,,,,,,,,,,,,,,,,,,,,
,,,,,,60da34669fd87bea96619e41,62bbfa2e4557526fa8e918a6,2022-06-29_09h11.26.058,Colour_Asymmetry_Pilot,2022.1.3,Win32,59.93766483,62bbe60bf3d75ef465d3e404,0,34,34,122,1,twoone,,,,,,,,,,,,,,,,,,,,,,,,,,,,,,,,,,,,,,,,,,,,,,,,,,,,,,,,,,,,,,,,,,,,,,,,,,,,,,,,,,,,,,,,,,,,,,,,,,,,,,,,,,,,,,,,,,,,,,,,,,,,,,,,,,,,,,,,,,,,,,,,,,,,,,,,
,,,,,,60da34669fd87bea96619e41,62bbfa2e4557526fa8e918a6,2022-06-29_09h11.26.058,Colour_Asymmetry_Pilot,2022.1.3,Win32,59.93766483,62bbe60bf3d75ef465d3e404,0,35,35,59,1,twofour,,,,,,,,,,,,,,,,,,,,,,,,,,,,,,,,,,,,,,,,,,,,,,,,,,,,,,,,,,,,,,,,,,,,,,,,,,,,,,,,,,,,,,,,,,,,,,,,,,,,,,,,,,,,,,,,,,,,,,,,,,,,,,,,,,,,,,,,,,,,,,,,,,,,,,,,
,,,,,,60da34669fd87bea96619e41,62bbfa2e4557526fa8e918a6,2022-06-29_09h11.26.058,Colour_Asymmetry_Pilot,2022.1.3,Win32,59.93766483,62bbe60bf3d75ef465d3e404,0,36,36,149,1,threefour,,,,,,,,,,,,,,,,,,,,,,,,,,,,,,,,,,,,,,,,,,,,,,,,,,,,,,,,,,,,,,,,,,,,,,,,,,,,,,,,,,,,,,,,,,,,,,,,,,,,,,,,,,,,,,,,,,,,,,,,,,,,,,,,,,,,,,,,,,,,,,,,,,,,,,,,
,,,,,,60da34669fd87bea96619e41,62bbfa2e4557526fa8e918a6,2022-06-29_09h11.26.058,Colour_Asymmetry_Pilot,2022.1.3,Win32,59.93766483,62bbe60bf3d75ef465d3e404,0,37,37,56,1,onetwo,,,,,,,,,,,,,,,,,,,,,,,,,,,,,,,,,,,,,,,,,,,,,,,,,,,,,,,,,,,,,,,,,,,,,,,,,,,,,,,,,,,,,,,,,,,,,,,,,,,,,,,,,,,,,,,,,,,,,,,,,,,,,,,,,,,,,,,,,,,,,,,,,,,,,,,,
,,,,,,60da34669fd87bea96619e41,62bbfa2e4557526fa8e918a6,2022-06-29_09h11.26.058,Colour_Asymmetry_Pilot,2022.1.3,Win32,59.93766483,62bbe60bf3d75ef465d3e404,0,38,38,118,1,fourtwo,,,,,,,,,,,,,,,,,,,,,,,,,,,,,,,,,,,,,,,,,,,,,,,,,,,,,,,,,,,,,,,,,,,,,,,,,,,,,,,,,,,,,,,,,,,,,,,,,,,,,,,,,,,,,,,,,,,,,,,,,,,,,,,,,,,,,,,,,,,,,,,,,,,,,,,,
,,,,,,60da34669fd87bea96619e41,62bbfa2e4557526fa8e918a6,2022-06-29_09h11.26.058,Colour_Asymmetry_Pilot,2022.1.3,Win32,59.93766483,62bbe60bf3d75ef465d3e404,0,39,39,83,1,twofour,,,,,,,,,,,,,,,,,,,,,,,,,,,,,,,,,,,,,,,,,,,,,,,,,,,,,,,,,,,,,,,,,,,,,,,,,,,,,,,,,,,,,,,,,,,,,,,,,,,,,,,,,,,,,,,,,,,,,,,,,,,,,,,,,,,,,,,,,,,,,,,,,,,,,,,,
,,,,,,60da34669fd87bea96619e41,62bbfa2e4557526fa8e918a6,2022-06-29_09h11.26.058,Colour_Asymmetry_Pilot,2022.1.3,Win32,59.93766483,62bbe60bf3d75ef465d3e404,0,40,40,34,1,twoone,,,,,,,,,,,,,,,,,,,,,,,,,,,,,,,,,,,,,,,,,,,,,,,,,,,,,,,,,,,,,,,,,,,,,,,,,,,,,,,,,,,,,,,,,,,,,,,,,,,,,,,,,,,,,,,,,,,,,,,,,,,,,,,,,,,,,,,,,,,,,,,,,,,,,,,,
,,,,,,60da34669fd87bea96619e41,62bbfa2e4557526fa8e918a6,2022-06-29_09h11.26.058,Colour_Asymmetry_Pilot,2022.1.3,Win32,59.93766483,62bbe60bf3d75ef465d3e404,0,41,41,54,1,fourtwo,,,,,,,,,,,,,,,,,,,,,,,,,,,,,,,,,,,,,,,,,,,,,,,,,,,,,,,,,,,,,,,,,,,,,,,,,,,,,,,,,,,,,,,,,,,,,,,,,,,,,,,,,,,,,,,,,,,,,,,,,,,,,,,,,,,,,,,,,,,,,,,,,,,,,,,,
,,,,,,60da34669fd87bea96619e41,62bbfa2e4557526fa8e918a6,2022-06-29_09h11.26.058,Colour_Asymmetry_Pilot,2022.1.3,Win32,59.93766483,62bbe60bf3d75ef465d3e404,0,42,42,26,1,twoone,,,,,,,,,,,,,,,,,,,,,,,,,,,,,,,,,,,,,,,,,,,,,,,,,,,,,,,,,,,,,,,,,,,,,,,,,,,,,,,,,,,,,,,,,,,,,,,,,,,,,,,,,,,,,,,,,,,,,,,,,,,,,,,,,,,,,,,,,,,,,,,,,,,,,,,,
,,,,,,60da34669fd87bea96619e41,62bbfa2e4557526fa8e918a6,2022-06-29_09h11.26.058,Colour_Asymmetry_Pilot,2022.1.3,Win32,59.93766483,62bbe60bf3d75ef465d3e404,0,43,43,57,1,onethree,,,,,,,,,,,,,,,,,,,,,,,,,,,,,,,,,,,,,,,,,,,,,,,,,,,,,,,,,,,,,,,,,,,,,,,,,,,,,,,,,,,,,,,,,,,,,,,,,,,,,,,,,,,,,,,,,,,,,,,,,,,,,,,,,,,,,,,,,,,,,,,,,,,,,,,,
,,,,,,60da34669fd87bea96619e41,62bbfa2e4557526fa8e918a6,2022-06-29_09h11.26.058,Colour_Asymmetry_Pilot,2022.1.3,Win32,59.93766483,62bbe60bf3d75ef465d3e404,0,44,44,98,1,twoone,,,,,,,,,,,,,,,,,,,,,,,,,,,,,,,,,,,,,,,,,,,,,,,,,,,,,,,,,,,,,,,,,,,,,,,,,,,,,,,,,,,,,,,,,,,,,,,,,,,,,,,,,,,,,,,,,,,,,,,,,,,,,,,,,,,,,,,,,,,,,,,,,,,,,,,,
,,,,,,60da34669fd87bea96619e41,62bbfa2e4557526fa8e918a6,2022-06-29_09h11.26.058,Colour_Asymmetry_Pilot,2022.1.3,Win32,59.93766483,62bbe60bf3d75ef465d3e404,0,45,45,121,1,onethree,,,,,,,,,,,,,,,,,,,,,,,,,,,,,,,,,,,,,,,,,,,,,,,,,,,,,,,,,,,,,,,,,,,,,,,,,,,,,,,,,,,,,,,,,,,,,,,,,,,,,,,,,,,,,,,,,,,,,,,,,,,,,,,,,,,,,,,,,,,,,,,,,,,,,,,,
,,,,,,60da34669fd87bea96619e41,62bbfa2e4557526fa8e918a6,2022-06-29_09h11.26.058,Colour_Asymmetry_Pilot,2022.1.3,Win32,59.93766483,62bbe60bf3d75ef465d3e404,0,46,46,116,1,threeone,,,,,,,,,,,,,,,,,,,,,,,,,,,,,,,,,,,,,,,,,,,,,,,,,,,,,,,,,,,,,,,,,,,,,,,,,,,,,,,,,,,,,,,,,,,,,,,,,,,,,,,,,,,,,,,,,,,,,,,,,,,,,,,,,,,,,,,,,,,,,,,,,,,,,,,,
,,,,,,60da34669fd87bea96619e41,62bbfa2e4557526fa8e918a6,2022-06-29_09h11.26.058,Colour_Asymmetry_Pilot,2022.1.3,Win32,59.93766483,62bbe60bf3d75ef465d3e404,0,47,47,19,1,twofour,,,,,,,,,,,,,,,,,,,,,,,,,,,,,,,,,,,,,,,,,,,,,,,,,,,,,,,,,,,,,,,,,,,,,,,,,,,,,,,,,,,,,,,,,,,,,,,,,,,,,,,,,,,,,,,,,,,,,,,,,,,,,,,,,,,,,,,,,,,,,,,,,,,,,,,,
,,,,,,60da34669fd87bea96619e41,62bbfa2e4557526fa8e918a6,2022-06-29_09h11.26.058,Colour_Asymmetry_Pilot,2022.1.3,Win32,59.93766483,62bbe60bf3d75ef465d3e404,0,48,48,157,1,threefour,,,,,,,,,,,,,,,,,,,,,,,,,,,,,,,,,,,,,,,,,,,,,,,,,,,,,,,,,,,,,,,,,,,,,,,,,,,,,,,,,,,,,,,,,,,,,,,,,,,,,,,,,,,,,,,,,,,,,,,,,,,,,,,,,,,,,,,,,,,,,,,,,,,,,,,,
,,,,,,60da34669fd87bea96619e41,62bbfa2e4557526fa8e918a6,2022-06-29_09h11.26.058,Colour_Asymmetry_Pilot,2022.1.3,Win32,59.93766483,62bbe60bf3d75ef465d3e404,0,49,49,138,1,twoone,,,,,,,,,,,,,,,,,,,,,,,,,,,,,,,,,,,,,,,,,,,,,,,,,,,,,,,,,,,,,,,,,,,,,,,,,,,,,,,,,,,,,,,,,,,,,,,,,,,,,,,,,,,,,,,,,,,,,,,,,,,,,,,,,,,,,,,,,,,,,,,,,,,,,,,,
,,,,,,60da34669fd87bea96619e41,62bbfa2e4557526fa8e918a6,2022-06-29_09h11.26.058,Colour_Asymmetry_Pilot,2022.1.3,Win32,59.93766483,62bbe60bf3d75ef465d3e404,0,50,50,95,1,fourthree,,,,,,,,,,,,,,,,,,,,,,,,,,,,,,,,,,,,,,,,,,,,,,,,,,,,,,,,,,,,,,,,,,,,,,,,,,,,,,,,,,,,,,,,,,,,,,,,,,,,,,,,,,,,,,,,,,,,,,,,,,,,,,,,,,,,,,,,,,,,,,,,,,,,,,,,
,,,,,,60da34669fd87bea96619e41,62bbfa2e4557526fa8e918a6,2022-06-29_09h11.26.058,Colour_Asymmetry_Pilot,2022.1.3,Win32,59.93766483,62bbe60bf3d75ef465d3e404,0,51,51,111,1,fourthree,,,,,,,,,,,,,,,,,,,,,,,,,,,,,,,,,,,,,,,,,,,,,,,,,,,,,,,,,,,,,,,,,,,,,,,,,,,,,,,,,,,,,,,,,,,,,,,,,,,,,,,,,,,,,,,,,,,,,,,,,,,,,,,,,,,,,,,,,,,,,,,,,,,,,,,,
,,,,,,60da34669fd87bea96619e41,62bbfa2e4557526fa8e918a6,2022-06-29_09h11.26.058,Colour_Asymmetry_Pilot,2022.1.3,Win32,59.93766483,62bbe60bf3d75ef465d3e404,0,52,52,9,1,onethree,,,,,,,,,,,,,,,,,,,,,,,,,,,,,,,,,,,,,,,,,,,,,,,,,,,,,,,,,,,,,,,,,,,,,,,,,,,,,,,,,,,,,,,,,,,,,,,,,,,,,,,,,,,,,,,,,,,,,,,,,,,,,,,,,,,,,,,,,,,,,,,,,,,,,,,,
,,,,,,60da34669fd87bea96619e41,62bbfa2e4557526fa8e918a6,2022-06-29_09h11.26.058,Colour_Asymmetry_Pilot,2022.1.3,Win32,59.93766483,62bbe60bf3d75ef465d3e404,0,53,53,52,1,threeone,,,,,,,,,,,,,,,,,,,,,,,,,,,,,,,,,,,,,,,,,,,,,,,,,,,,,,,,,,,,,,,,,,,,,,,,,,,,,,,,,,,,,,,,,,,,,,,,,,,,,,,,,,,,,,,,,,,,,,,,,,,,,,,,,,,,,,,,,,,,,,,,,,,,,,,,
,,,,,,60da34669fd87bea96619e41,62bbfa2e4557526fa8e918a6,2022-06-29_09h11.26.058,Colour_Asymmetry_Pilot,2022.1.3,Win32,59.93766483,62bbe60bf3d75ef465d3e404,0,54,54,6,1,fourtwo,,,,,,,,,,,,,,,,,,,,,,,,,,,,,,,,,,,,,,,,,,,,,,,,,,,,,,,,,,,,,,,,,,,,,,,,,,,,,,,,,,,,,,,,,,,,,,,,,,,,,,,,,,,,,,,,,,,,,,,,,,,,,,,,,,,,,,,,,,,,,,,,,,,,,,,,
,,,,,,60da34669fd87bea96619e41,62bbfa2e4557526fa8e918a6,2022-06-29_09h11.26.058,Colour_Asymmetry_Pilot,2022.1.3,Win32,59.93766483,62bbe60bf3d75ef465d3e404,0,55,55,46,1,fourtwo,,,,,,,,,,,,,,,,,,,,,,,,,,,,,,,,,,,,,,,,,,,,,,,,,,,,,,,,,,,,,,,,,,,,,,,,,,,,,,,,,,,,,,,,,,,,,,,,,,,,,,,,,,,,,,,,,,,,,,,,,,,,,,,,,,,,,,,,,,,,,,,,,,,,,,,,
,,,,,,60da34669fd87bea96619e41,62bbfa2e4557526fa8e918a6,2022-06-29_09h11.26.058,Colour_Asymmetry_Pilot,2022.1.3,Win32,59.93766483,62bbe60bf3d75ef465d3e404,0,56,56,44,1,threeone,,,,,,,,,,,,,,,,,,,,,,,,,,,,,,,,,,,,,,,,,,,,,,,,,,,,,,,,,,,,,,,,,,,,,,,,,,,,,,,,,,,,,,,,,,,,,,,,,,,,,,,,,,,,,,,,,,,,,,,,,,,,,,,,,,,,,,,,,,,,,,,,,,,,,,,,
,,,,,,60da34669fd87bea96619e41,62bbfa2e4557526fa8e918a6,2022-06-29_09h11.26.058,Colour_Asymmetry_Pilot,2022.1.3,Win32,59.93766483,62bbe60bf3d75ef465d3e404,0,57,57,75,1,twofour,,,,,,,,,,,,,,,,,,,,,,,,,,,,,,,,,,,,,,,,,,,,,,,,,,,,,,,,,,,,,,,,,,,,,,,,,,,,,,,,,,,,,,,,,,,,,,,,,,,,,,,,,,,,,,,,,,,,,,,,,,,,,,,,,,,,,,,,,,,,,,,,,,,,,,,,
,,,,,,60da34669fd87bea96619e41,62bbfa2e4557526fa8e918a6,2022-06-29_09h11.26.058,Colour_Asymmetry_Pilot,2022.1.3,Win32,59.93766483,62bbe60bf3d75ef465d3e404,0,58,58,68,1,threeone,,,,,,,,,,,,,,,,,,,,,,,,,,,,,,,,,,,,,,,,,,,,,,,,,,,,,,,,,,,,,,,,,,,,,,,,,,,,,,,,,,,,,,,,,,,,,,,,,,,,,,,,,,,,,,,,,,,,,,,,,,,,,,,,,,,,,,,,,,,,,,,,,,,,,,,,
,,,,,,60da34669fd87bea96619e41,62bbfa2e4557526fa8e918a6,2022-06-29_09h11.26.058,Colour_Asymmetry_Pilot,2022.1.3,Win32,59.93766483,62bbe60bf3d75ef465d3e404,0,59,59,42,1,twoone,,,,,,,,,,,,,,,,,,,,,,,,,,,,,,,,,,,,,,,,,,,,,,,,,,,,,,,,,,,,,,,,,,,,,,,,,,,,,,,,,,,,,,,,,,,,,,,,,,,,,,,,,,,,,,,,,,,,,,,,,,,,,,,,,,,,,,,,,,,,,,,,,,,,,,,,
,,,,,,60da34669fd87bea96619e41,62bbfa2e4557526fa8e918a6,2022-06-29_09h11.26.058,Colour_Asymmetry_Pilot,2022.1.3,Win32,59.93766483,62bbe60bf3d75ef465d3e404,0,60,60,127,1,fourthree,,,,,,,,,,,,,,,,,,,,,,,,,,,,,,,,,,,,,,,,,,,,,,,,,,,,,,,,,,,,,,,,,,,,,,,,,,,,,,,,,,,,,,,,,,,,,,,,,,,,,,,,,,,,,,,,,,,,,,,,,,,,,,,,,,,,,,,,,,,,,,,,,,,,,,,,
,,,,,,60da34669fd87bea96619e41,62bbfa2e4557526fa8e918a6,2022-06-29_09h11.26.058,Colour_Asymmetry_Pilot,2022.1.3,Win32,59.93766483,62bbe60bf3d75ef465d3e404,0,61,61,100,1,threeone,,,,,,,,,,,,,,,,,,,,,,,,,,,,,,,,,,,,,,,,,,,,,,,,,,,,,,,,,,,,,,,,,,,,,,,,,,,,,,,,,,,,,,,,,,,,,,,,,,,,,,,,,,,,,,,,,,,,,,,,,,,,,,,,,,,,,,,,,,,,,,,,,,,,,,,,
,,,,,,60da34669fd87bea96619e41,62bbfa2e4557526fa8e918a6,2022-06-29_09h11.26.058,Colour_Asymmetry_Pilot,2022.1.3,Win32,59.93766483,62bbe60bf3d75ef465d3e404,0,62,62,72,1,onetwo,,,,,,,,,,,,,,,,,,,,,,,,,,,,,,,,,,,,,,,,,,,,,,,,,,,,,,,,,,,,,,,,,,,,,,,,,,,,,,,,,,,,,,,,,,,,,,,,,,,,,,,,,,,,,,,,,,,,,,,,,,,,,,,,,,,,,,,,,,,,,,,,,,,,,,,,
,,,,,,60da34669fd87bea96619e41,62bbfa2e4557526fa8e918a6,2022-06-29_09h11.26.058,Colour_Asymmetry_Pilot,2022.1.3,Win32,59.93766483,62bbe60bf3d75ef465d3e404,0,63,63,130,1,twoone,,,,,,,,,,,,,,,,,,,,,,,,,,,,,,,,,,,,,,,,,,,,,,,,,,,,,,,,,,,,,,,,,,,,,,,,,,,,,,,,,,,,,,,,,,,,,,,,,,,,,,,,,,,,,,,,,,,,,,,,,,,,,,,,,,,,,,,,,,,,,,,,,,,,,,,,
,,,,,,60da34669fd87bea96619e41,62bbfa2e4557526fa8e918a6,2022-06-29_09h11.26.058,Colour_Asymmetry_Pilot,2022.1.3,Win32,59.93766483,62bbe60bf3d75ef465d3e404,0,64,64,96,1,onetwo,,,,,,,,,,,,,,,,,,,,,,,,,,,,,,,,,,,,,,,,,,,,,,,,,,,,,,,,,,,,,,,,,,,,,,,,,,,,,,,,,,,,,,,,,,,,,,,,,,,,,,,,,,,,,,,,,,,,,,,,,,,,,,,,,,,,,,,,,,,,,,,,,,,,,,,,
,,,,,,60da34669fd87bea96619e41,62bbfa2e4557526fa8e918a6,2022-06-29_09h11.26.058,Colour_Asymmetry_Pilot,2022.1.3,Win32,59.93766483,62bbe60bf3d75ef465d3e404,0,65,65,129,1,onethree,,,,,,,,,,,,,,,,,,,,,,,,,,,,,,,,,,,,,,,,,,,,,,,,,,,,,,,,,,,,,,,,,,,,,,,,,,,,,,,,,,,,,,,,,,,,,,,,,,,,,,,,,,,,,,,,,,,,,,,,,,,,,,,,,,,,,,,,,,,,,,,,,,,,,,,,
,,,,,,60da34669fd87bea96619e41,62bbfa2e4557526fa8e918a6,2022-06-29_09h11.26.058,Colour_Asymmetry_Pilot,2022.1.3,Win32,59.93766483,62bbe60bf3d75ef465d3e404,0,66,66,115,1,twofour,,,,,,,,,,,,,,,,,,,,,,,,,,,,,,,,,,,,,,,,,,,,,,,,,,,,,,,,,,,,,,,,,,,,,,,,,,,,,,,,,,,,,,,,,,,,,,,,,,,,,,,,,,,,,,,,,,,,,,,,,,,,,,,,,,,,,,,,,,,,,,,,,,,,,,,,
,,,,,,60da34669fd87bea96619e41,62bbfa2e4557526fa8e918a6,2022-06-29_09h11.26.058,Colour_Asymmetry_Pilot,2022.1.3,Win32,59.93766483,62bbe60bf3d75ef465d3e404,0,67,67,28,1,threeone,,,,,,,,,,,,,,,,,,,,,,,,,,,,,,,,,,,,,,,,,,,,,,,,,,,,,,,,,,,,,,,,,,,,,,,,,,,,,,,,,,,,,,,,,,,,,,,,,,,,,,,,,,,,,,,,,,,,,,,,,,,,,,,,,,,,,,,,,,,,,,,,,,,,,,,,
,,,,,,60da34669fd87bea96619e41,62bbfa2e4557526fa8e918a6,2022-06-29_09h11.26.058,Colour_Asymmetry_Pilot,2022.1.3,Win32,59.93766483,62bbe60bf3d75ef465d3e404,0,68,68,29,1,threefour,,,,,,,,,,,,,,,,,,,,,,,,,,,,,,,,,,,,,,,,,,,,,,,,,,,,,,,,,,,,,,,,,,,,,,,,,,,,,,,,,,,,,,,,,,,,,,,,,,,,,,,,,,,,,,,,,,,,,,,,,,,,,,,,,,,,,,,,,,,,,,,,,,,,,,,,
,,,,,,60da34669fd87bea96619e41,62bbfa2e4557526fa8e918a6,2022-06-29_09h11.26.058,Colour_Asymmetry_Pilot,2022.1.3,Win32,59.93766483,62bbe60bf3d75ef465d3e404,0,69,69,77,1,threefour,,,,,,,,,,,,,,,,,,,,,,,,,,,,,,,,,,,,,,,,,,,,,,,,,,,,,,,,,,,,,,,,,,,,,,,,,,,,,,,,,,,,,,,,,,,,,,,,,,,,,,,,,,,,,,,,,,,,,,,,,,,,,,,,,,,,,,,,,,,,,,,,,,,,,,,,
,,,,,,60da34669fd87bea96619e41,62bbfa2e4557526fa8e918a6,2022-06-29_09h11.26.058,Colour_Asymmetry_Pilot,2022.1.3,Win32,59.93766483,62bbe60bf3d75ef465d3e404,0,70,70,22,1,fourtwo,,,,,,,,,,,,,,,,,,,,,,,,,,,,,,,,,,,,,,,,,,,,,,,,,,,,,,,,,,,,,,,,,,,,,,,,,,,,,,,,,,,,,,,,,,,,,,,,,,,,,,,,,,,,,,,,,,,,,,,,,,,,,,,,,,,,,,,,,,,,,,,,,,,,,,,,
,,,,,,60da34669fd87bea96619e41,62bbfa2e4557526fa8e918a6,2022-06-29_09h11.26.058,Colour_Asymmetry_Pilot,2022.1.3,Win32,59.93766483,62bbe60bf3d75ef465d3e404,0,71,71,102,1,fourtwo,,,,,,,,,,,,,,,,,,,,,,,,,,,,,,,,,,,,,,,,,,,,,,,,,,,,,,,,,,,,,,,,,,,,,,,,,,,,,,,,,,,,,,,,,,,,,,,,,,,,,,,,,,,,,,,,,,,,,,,,,,,,,,,,,,,,,,,,,,,,,,,,,,,,,,,,
,,,,,,60da34669fd87bea96619e41,62bbfa2e4557526fa8e918a6,2022-06-29_09h11.26.058,Colour_Asymmetry_Pilot,2022.1.3,Win32,59.93766483,62bbe60bf3d75ef465d3e404,0,72,72,4,1,threeone,,,,,,,,,,,,,,,,,,,,,,,,,,,,,,,,,,,,,,,,,,,,,,,,,,,,,,,,,,,,,,,,,,,,,,,,,,,,,,,,,,,,,,,,,,,,,,,,,,,,,,,,,,,,,,,,,,,,,,,,,,,,,,,,,,,,,,,,,,,,,,,,,,,,,,,,
,,,,,,60da34669fd87bea96619e41,62bbfa2e4557526fa8e918a6,2022-06-29_09h11.26.058,Colour_Asymmetry_Pilot,2022.1.3,Win32,59.93766483,62bbe60bf3d75ef465d3e404,0,73,73,33,1,onethree,,,,,,,,,,,,,,,,,,,,,,,,,,,,,,,,,,,,,,,,,,,,,,,,,,,,,,,,,,,,,,,,,,,,,,,,,,,,,,,,,,,,,,,,,,,,,,,,,,,,,,,,,,,,,,,,,,,,,,,,,,,,,,,,,,,,,,,,,,,,,,,,,,,,,,,,
,,,,,,60da34669fd87bea96619e41,62bbfa2e4557526fa8e918a6,2022-06-29_09h11.26.058,Colour_Asymmetry_Pilot,2022.1.3,Win32,59.93766483,62bbe60bf3d75ef465d3e404,0,74,74,94,1,fourtwo,,,,,,,,,,,,,,,,,,,,,,,,,,,,,,,,,,,,,,,,,,,,,,,,,,,,,,,,,,,,,,,,,,,,,,,,,,,,,,,,,,,,,,,,,,,,,,,,,,,,,,,,,,,,,,,,,,,,,,,,,,,,,,,,,,,,,,,,,,,,,,,,,,,,,,,,
,,,,,,60da34669fd87bea96619e41,62bbfa2e4557526fa8e918a6,2022-06-29_09h11.26.058,Colour_Asymmetry_Pilot,2022.1.3,Win32,59.93766483,62bbe60bf3d75ef465d3e404,0,75,75,104,1,onetwo,,,,,,,,,,,,,,,,,,,,,,,,,,,,,,,,,,,,,,,,,,,,,,,,,,,,,,,,,,,,,,,,,,,,,,,,,,,,,,,,,,,,,,,,,,,,,,,,,,,,,,,,,,,,,,,,,,,,,,,,,,,,,,,,,,,,,,,,,,,,,,,,,,,,,,,,
,,,,,,60da34669fd87bea96619e41,62bbfa2e4557526fa8e918a6,2022-06-29_09h11.26.058,Colour_Asymmetry_Pilot,2022.1.3,Win32,59.93766483,62bbe60bf3d75ef465d3e404,0,76,76,140,1,threeone,,,,,,,,,,,,,,,,,,,,,,,,,,,,,,,,,,,,,,,,,,,,,,,,,,,,,,,,,,,,,,,,,,,,,,,,,,,,,,,,,,,,,,,,,,,,,,,,,,,,,,,,,,,,,,,,,,,,,,,,,,,,,,,,,,,,,,,,,,,,,,,,,,,,,,,,
,,,,,,60da34669fd87bea96619e41,62bbfa2e4557526fa8e918a6,2022-06-29_09h11.26.058,Colour_Asymmetry_Pilot,2022.1.3,Win32,59.93766483,62bbe60bf3d75ef465d3e404,0,77,77,88,1,onetwo,,,,,,,,,,,,,,,,,,,,,,,,,,,,,,,,,,,,,,,,,,,,,,,,,,,,,,,,,,,,,,,,,,,,,,,,,,,,,,,,,,,,,,,,,,,,,,,,,,,,,,,,,,,,,,,,,,,,,,,,,,,,,,,,,,,,,,,,,,,,,,,,,,,,,,,,
,,,,,,60da34669fd87bea96619e41,62bbfa2e4557526fa8e918a6,2022-06-29_09h11.26.058,Colour_Asymmetry_Pilot,2022.1.3,Win32,59.93766483,62bbe60bf3d75ef465d3e404,0,78,78,134,1,fourtwo,,,,,,,,,,,,,,,,,,,,,,,,,,,,,,,,,,,,,,,,,,,,,,,,,,,,,,,,,,,,,,,,,,,,,,,,,,,,,,,,,,,,,,,,,,,,,,,,,,,,,,,,,,,,,,,,,,,,,,,,,,,,,,,,,,,,,,,,,,,,,,,,,,,,,,,,
,,,,,,60da34669fd87bea96619e41,62bbfa2e4557526fa8e918a6,2022-06-29_09h11.26.058,Colour_Asymmetry_Pilot,2022.1.3,Win32,59.93766483,62bbe60bf3d75ef465d3e404,0,79,79,105,1,onethree,,,,,,,,,,,,,,,,,,,,,,,,,,,,,,,,,,,,,,,,,,,,,,,,,,,,,,,,,,,,,,,,,,,,,,,,,,,,,,,,,,,,,,,,,,,,,,,,,,,,,,,,,,,,,,,,,,,,,,,,,,,,,,,,,,,,,,,,,,,,,,,,,,,,,,,,
,,,,,,60da34669fd87bea96619e41,62bbfa2e4557526fa8e918a6,2022-06-29_09h11.26.058,Colour_Asymmetry_Pilot,2022.1.3,Win32,59.93766483,62bbe60bf3d75ef465d3e404,0,80,80,154,1,twoone,,,,,,,,,,,,,,,,,,,,,,,,,,,,,,,,,,,,,,,,,,,,,,,,,,,,,,,,,,,,,,,,,,,,,,,,,,,,,,,,,,,,,,,,,,,,,,,,,,,,,,,,,,,,,,,,,,,,,,,,,,,,,,,,,,,,,,,,,,,,,,,,,,,,,,,,
,,,,,,60da34669fd87bea96619e41,62bbfa2e4557526fa8e918a6,2022-06-29_09h11.26.058,Colour_Asymmetry_Pilot,2022.1.3,Win32,59.93766483,62bbe60bf3d75ef465d3e404,0,81,81,10,1,twoone,,,,,,,,,,,,,,,,,,,,,,,,,,,,,,,,,,,,,,,,,,,,,,,,,,,,,,,,,,,,,,,,,,,,,,,,,,,,,,,,,,,,,,,,,,,,,,,,,,,,,,,,,,,,,,,,,,,,,,,,,,,,,,,,,,,,,,,,,,,,,,,,,,,,,,,,
,,,,,,60da34669fd87bea96619e41,62bbfa2e4557526fa8e918a6,2022-06-29_09h11.26.058,Colour_Asymmetry_Pilot,2022.1.3,Win32,59.93766483,62bbe60bf3d75ef465d3e404,0,82,82,50,1,twoone,,,,,,,,,,,,,,,,,,,,,,,,,,,,,,,,,,,,,,,,,,,,,,,,,,,,,,,,,,,,,,,,,,,,,,,,,,,,,,,,,,,,,,,,,,,,,,,,,,,,,,,,,,,,,,,,,,,,,,,,,,,,,,,,,,,,,,,,,,,,,,,,,,,,,,,,
,,,,,,60da34669fd87bea96619e41,62bbfa2e4557526fa8e918a6,2022-06-29_09h11.26.058,Colour_Asymmetry_Pilot,2022.1.3,Win32,59.93766483,62bbe60bf3d75ef465d3e404,0,83,83,155,1,twofour,,,,,,,,,,,,,,,,,,,,,,,,,,,,,,,,,,,,,,,,,,,,,,,,,,,,,,,,,,,,,,,,,,,,,,,,,,,,,,,,,,,,,,,,,,,,,,,,,,,,,,,,,,,,,,,,,,,,,,,,,,,,,,,,,,,,,,,,,,,,,,,,,,,,,,,,
,,,,,,60da34669fd87bea96619e41,62bbfa2e4557526fa8e918a6,2022-06-29_09h11.26.058,Colour_Asymmetry_Pilot,2022.1.3,Win32,59.93766483,62bbe60bf3d75ef465d3e404,0,84,84,93,1,threefour,,,,,,,,,,,,,,,,,,,,,,,,,,,,,,,,,,,,,,,,,,,,,,,,,,,,,,,,,,,,,,,,,,,,,,,,,,,,,,,,,,,,,,,,,,,,,,,,,,,,,,,,,,,,,,,,,,,,,,,,,,,,,,,,,,,,,,,,,,,,,,,,,,,,,,,,
,,,,,,60da34669fd87bea96619e41,62bbfa2e4557526fa8e918a6,2022-06-29_09h11.26.058,Colour_Asymmetry_Pilot,2022.1.3,Win32,59.93766483,62bbe60bf3d75ef465d3e404,0,85,85,113,1,onethree,,,,,,,,,,,,,,,,,,,,,,,,,,,,,,,,,,,,,,,,,,,,,,,,,,,,,,,,,,,,,,,,,,,,,,,,,,,,,,,,,,,,,,,,,,,,,,,,,,,,,,,,,,,,,,,,,,,,,,,,,,,,,,,,,,,,,,,,,,,,,,,,,,,,,,,,
,,,,,,60da34669fd87bea96619e41,62bbfa2e4557526fa8e918a6,2022-06-29_09h11.26.058,Colour_Asymmetry_Pilot,2022.1.3,Win32,59.93766483,62bbe60bf3d75ef465d3e404,0,86,86,126,1,fourtwo,,,,,,,,,,,,,,,,,,,,,,,,,,,,,,,,,,,,,,,,,,,,,,,,,,,,,,,,,,,,,,,,,,,,,,,,,,,,,,,,,,,,,,,,,,,,,,,,,,,,,,,,,,,,,,,,,,,,,,,,,,,,,,,,,,,,,,,,,,,,,,,,,,,,,,,,
,,,,,,60da34669fd87bea96619e41,62bbfa2e4557526fa8e918a6,2022-06-29_09h11.26.058,Colour_Asymmetry_Pilot,2022.1.3,Win32,59.93766483,62bbe60bf3d75ef465d3e404,0,87,87,23,1,fourthree,,,,,,,,,,,,,,,,,,,,,,,,,,,,,,,,,,,,,,,,,,,,,,,,,,,,,,,,,,,,,,,,,,,,,,,,,,,,,,,,,,,,,,,,,,,,,,,,,,,,,,,,,,,,,,,,,,,,,,,,,,,,,,,,,,,,,,,,,,,,,,,,,,,,,,,,
,,,,,,60da34669fd87bea96619e41,62bbfa2e4557526fa8e918a6,2022-06-29_09h11.26.058,Colour_Asymmetry_Pilot,2022.1.3,Win32,59.93766483,62bbe60bf3d75ef465d3e404,0,88,88,114,1,twoone,,,,,,,,,,,,,,,,,,,,,,,,,,,,,,,,,,,,,,,,,,,,,,,,,,,,,,,,,,,,,,,,,,,,,,,,,,,,,,,,,,,,,,,,,,,,,,,,,,,,,,,,,,,,,,,,,,,,,,,,,,,,,,,,,,,,,,,,,,,,,,,,,,,,,,,,
,,,,,,60da34669fd87bea96619e41,62bbfa2e4557526fa8e918a6,2022-06-29_09h11.26.058,Colour_Asymmetry_Pilot,2022.1.3,Win32,59.93766483,62bbe60bf3d75ef465d3e404,0,89,89,141,1,threefour,,,,,,,,,,,,,,,,,,,,,,,,,,,,,,,,,,,,,,,,,,,,,,,,,,,,,,,,,,,,,,,,,,,,,,,,,,,,,,,,,,,,,,,,,,,,,,,,,,,,,,,,,,,,,,,,,,,,,,,,,,,,,,,,,,,,,,,,,,,,,,,,,,,,,,,,
,,,,,,60da34669fd87bea96619e41,62bbfa2e4557526fa8e918a6,2022-06-29_09h11.26.058,Colour_Asymmetry_Pilot,2022.1.3,Win32,59.93766483,62bbe60bf3d75ef465d3e404,0,90,90,61,1,threefour,,,,,,,,,,,,,,,,,,,,,,,,,,,,,,,,,,,,,,,,,,,,,,,,,,,,,,,,,,,,,,,,,,,,,,,,,,,,,,,,,,,,,,,,,,,,,,,,,,,,,,,,,,,,,,,,,,,,,,,,,,,,,,,,,,,,,,,,,,,,,,,,,,,,,,,,
,,,,,,60da34669fd87bea96619e41,62bbfa2e4557526fa8e918a6,2022-06-29_09h11.26.058,Colour_Asymmetry_Pilot,2022.1.3,Win32,59.93766483,62bbe60bf3d75ef465d3e404,0,91,91,7,1,fourthree,,,,,,,,,,,,,,,,,,,,,,,,,,,,,,,,,,,,,,,,,,,,,,,,,,,,,,,,,,,,,,,,,,,,,,,,,,,,,,,,,,,,,,,,,,,,,,,,,,,,,,,,,,,,,,,,,,,,,,,,,,,,,,,,,,,,,,,,,,,,,,,,,,,,,,,,
,,,,,,60da34669fd87bea96619e41,62bbfa2e4557526fa8e918a6,2022-06-29_09h11.26.058,Colour_Asymmetry_Pilot,2022.1.3,Win32,59.93766483,62bbe60bf3d75ef465d3e404,0,92,92,58,1,twoone,,,,,,,,,,,,,,,,,,,,,,,,,,,,,,,,,,,,,,,,,,,,,,,,,,,,,,,,,,,,,,,,,,,,,,,,,,,,,,,,,,,,,,,,,,,,,,,,,,,,,,,,,,,,,,,,,,,,,,,,,,,,,,,,,,,,,,,,,,,,,,,,,,,,,,,,
,,,,,,60da34669fd87bea96619e41,62bbfa2e4557526fa8e918a6,2022-06-29_09h11.26.058,Colour_Asymmetry_Pilot,2022.1.3,Win32,59.93766483,62bbe60bf3d75ef465d3e404,0,93,93,112,1,onetwo,,,,,,,,,,,,,,,,,,,,,,,,,,,,,,,,,,,,,,,,,,,,,,,,,,,,,,,,,,,,,,,,,,,,,,,,,,,,,,,,,,,,,,,,,,,,,,,,,,,,,,,,,,,,,,,,,,,,,,,,,,,,,,,,,,,,,,,,,,,,,,,,,,,,,,,,
,,,,,,60da34669fd87bea96619e41,62bbfa2e4557526fa8e918a6,2022-06-29_09h11.26.058,Colour_Asymmetry_Pilot,2022.1.3,Win32,59.93766483,62bbe60bf3d75ef465d3e404,0,94,94,143,1,fourthree,,,,,,,,,,,,,,,,,,,,,,,,,,,,,,,,,,,,,,,,,,,,,,,,,,,,,,,,,,,,,,,,,,,,,,,,,,,,,,,,,,,,,,,,,,,,,,,,,,,,,,,,,,,,,,,,,,,,,,,,,,,,,,,,,,,,,,,,,,,,,,,,,,,,,,,,
,,,,,,60da34669fd87bea96619e41,62bbfa2e4557526fa8e918a6,2022-06-29_09h11.26.058,Colour_Asymmetry_Pilot,2022.1.3,Win32,59.93766483,62bbe60bf3d75ef465d3e404,0,95,95,66,1,twoone,,,,,,,,,,,,,,,,,,,,,,,,,,,,,,,,,,,,,,,,,,,,,,,,,,,,,,,,,,,,,,,,,,,,,,,,,,,,,,,,,,,,,,,,,,,,,,,,,,,,,,,,,,,,,,,,,,,,,,,,,,,,,,,,,,,,,,,,,,,,,,,,,,,,,,,,
,,,,,,60da34669fd87bea96619e41,62bbfa2e4557526fa8e918a6,2022-06-29_09h11.26.058,Colour_Asymmetry_Pilot,2022.1.3,Win32,59.93766483,62bbe60bf3d75ef465d3e404,0,96,96,20,1,threeone,,,,,,,,,,,,,,,,,,,,,,,,,,,,,,,,,,,,,,,,,,,,,,,,,,,,,,,,,,,,,,,,,,,,,,,,,,,,,,,,,,,,,,,,,,,,,,,,,,,,,,,,,,,,,,,,,,,,,,,,,,,,,,,,,,,,,,,,,,,,,,,,,,,,,,,,
,,,,,,60da34669fd87bea96619e41,62bbfa2e4557526fa8e918a6,2022-06-29_09h11.26.058,Colour_Asymmetry_Pilot,2022.1.3,Win32,59.93766483,62bbe60bf3d75ef465d3e404,0,97,97,21,1,threefour,,,,,,,,,,,,,,,,,,,,,,,,,,,,,,,,,,,,,,,,,,,,,,,,,,,,,,,,,,,,,,,,,,,,,,,,,,,,,,,,,,,,,,,,,,,,,,,,,,,,,,,,,,,,,,,,,,,,,,,,,,,,,,,,,,,,,,,,,,,,,,,,,,,,,,,,
,,,,,,60da34669fd87bea96619e41,62bbfa2e4557526fa8e918a6,2022-06-29_09h11.26.058,Colour_Asymmetry_Pilot,2022.1.3,Win32,59.93766483,62bbe60bf3d75ef465d3e404,0,98,98,110,1,fourtwo,,,,,,,,,,,,,,,,,,,,,,,,,,,,,,,,,,,,,,,,,,,,,,,,,,,,,,,,,,,,,,,,,,,,,,,,,,,,,,,,,,,,,,,,,,,,,,,,,,,,,,,,,,,,,,,,,,,,,,,,,,,,,,,,,,,,,,,,,,,,,,,,,,,,,,,,
,,,,,,60da34669fd87bea96619e41,62bbfa2e4557526fa8e918a6,2022-06-29_09h11.26.058,Colour_Asymmetry_Pilot,2022.1.3,Win32,59.93766483,62bbe60bf3d75ef465d3e404,0,99,99,151,1,fourthree,,,,,,,,,,,,,,,,,,,,,,,,,,,,,,,,,,,,,,,,,,,,,,,,,,,,,,,,,,,,,,,,,,,,,,,,,,,,,,,,,,,,,,,,,,,,,,,,,,,,,,,,,,,,,,,,,,,,,,,,,,,,,,,,,,,,,,,,,,,,,,,,,,,,,,,,
,,,,,,60da34669fd87bea96619e41,62bbfa2e4557526fa8e918a6,2022-06-29_09h11.26.058,Colour_Asymmetry_Pilot,2022.1.3,Win32,59.93766483,62bbe60bf3d75ef465d3e404,0,100,100,47,1,fourthree,,,,,,,,,,,,,,,,,,,,,,,,,,,,,,,,,,,,,,,,,,,,,,,,,,,,,,,,,,,,,,,,,,,,,,,,,,,,,,,,,,,,,,,,,,,,,,,,,,,,,,,,,,,,,,,,,,,,,,,,,,,,,,,,,,,,,,,,,,,,,,,,,,,,,,,,
,,,,,,60da34669fd87bea96619e41,62bbfa2e4557526fa8e918a6,2022-06-29_09h11.26.058,Colour_Asymmetry_Pilot,2022.1.3,Win32,59.93766483,62bbe60bf3d75ef465d3e404,0,101,101,119,1,fourthree,,,,,,,,,,,,,,,,,,,,,,,,,,,,,,,,,,,,,,,,,,,,,,,,,,,,,,,,,,,,,,,,,,,,,,,,,,,,,,,,,,,,,,,,,,,,,,,,,,,,,,,,,,,,,,,,,,,,,,,,,,,,,,,,,,,,,,,,,,,,,,,,,,,,,,,,
,,,,,,60da34669fd87bea96619e41,62bbfa2e4557526fa8e918a6,2022-06-29_09h11.26.058,Colour_Asymmetry_Pilot,2022.1.3,Win32,59.93766483,62bbe60bf3d75ef465d3e404,0,102,102,123,1,twofour,,,,,,,,,,,,,,,,,,,,,,,,,,,,,,,,,,,,,,,,,,,,,,,,,,,,,,,,,,,,,,,,,,,,,,,,,,,,,,,,,,,,,,,,,,,,,,,,,,,,,,,,,,,,,,,,,,,,,,,,,,,,,,,,,,,,,,,,,,,,,,,,,,,,,,,,
,,,,,,60da34669fd87bea96619e41,62bbfa2e4557526fa8e918a6,2022-06-29_09h11.26.058,Colour_Asymmetry_Pilot,2022.1.3,Win32,59.93766483,62bbe60bf3d75ef465d3e404,0,103,103,82,1,twoone,,,,,,,,,,,,,,,,,,,,,,,,,,,,,,,,,,,,,,,,,,,,,,,,,,,,,,,,,,,,,,,,,,,,,,,,,,,,,,,,,,,,,,,,,,,,,,,,,,,,,,,,,,,,,,,,,,,,,,,,,,,,,,,,,,,,,,,,,,,,,,,,,,,,,,,,
,,,,,,60da34669fd87bea96619e41,62bbfa2e4557526fa8e918a6,2022-06-29_09h11.26.058,Colour_Asymmetry_Pilot,2022.1.3,Win32,59.93766483,62bbe60bf3d75ef465d3e404,0,104,104,153,1,onethree,,,,,,,,,,,,,,,,,,,,,,,,,,,,,,,,,,,,,,,,,,,,,,,,,,,,,,,,,,,,,,,,,,,,,,,,,,,,,,,,,,,,,,,,,,,,,,,,,,,,,,,,,,,,,,,,,,,,,,,,,,,,,,,,,,,,,,,,,,,,,,,,,,,,,,,,
,,,,,,60da34669fd87bea96619e41,62bbfa2e4557526fa8e918a6,2022-06-29_09h11.26.058,Colour_Asymmetry_Pilot,2022.1.3,Win32,59.93766483,62bbe60bf3d75ef465d3e404,0,105,105,55,1,fourthree,,,,,,,,,,,,,,,,,,,,,,,,,,,,,,,,,,,,,,,,,,,,,,,,,,,,,,,,,,,,,,,,,,,,,,,,,,,,,,,,,,,,,,,,,,,,,,,,,,,,,,,,,,,,,,,,,,,,,,,,,,,,,,,,,,,,,,,,,,,,,,,,,,,,,,,,
,,,,,,60da34669fd87bea96619e41,62bbfa2e4557526fa8e918a6,2022-06-29_09h11.26.058,Colour_Asymmetry_Pilot,2022.1.3,Win32,59.93766483,62bbe60bf3d75ef465d3e404,0,106,106,69,1,threefour,,,,,,,,,,,,,,,,,,,,,,,,,,,,,,,,,,,,,,,,,,,,,,,,,,,,,,,,,,,,,,,,,,,,,,,,,,,,,,,,,,,,,,,,,,,,,,,,,,,,,,,,,,,,,,,,,,,,,,,,,,,,,,,,,,,,,,,,,,,,,,,,,,,,,,,,
,,,,,,60da34669fd87bea96619e41,62bbfa2e4557526fa8e918a6,2022-06-29_09h11.26.058,Colour_Asymmetry_Pilot,2022.1.3,Win32,59.93766483,62bbe60bf3d75ef465d3e404,0,107,107,13,1,threefour,,,,,,,,,,,,,,,,,,,,,,,,,,,,,,,,,,,,,,,,,,,,,,,,,,,,,,,,,,,,,,,,,,,,,,,,,,,,,,,,,,,,,,,,,,,,,,,,,,,,,,,,,,,,,,,,,,,,,,,,,,,,,,,,,,,,,,,,,,,,,,,,,,,,,,,,
,,,,,,60da34669fd87bea96619e41,62bbfa2e4557526fa8e918a6,2022-06-29_09h11.26.058,Colour_Asymmetry_Pilot,2022.1.3,Win32,59.93766483,62bbe60bf3d75ef465d3e404,0,108,108,45,1,threefour,,,,,,,,,,,,,,,,,,,,,,,,,,,,,,,,,,,,,,,,,,,,,,,,,,,,,,,,,,,,,,,,,,,,,,,,,,,,,,,,,,,,,,,,,,,,,,,,,,,,,,,,,,,,,,,,,,,,,,,,,,,,,,,,,,,,,,,,,,,,,,,,,,,,,,,,
,,,,,,60da34669fd87bea96619e41,62bbfa2e4557526fa8e918a6,2022-06-29_09h11.26.058,Colour_Asymmetry_Pilot,2022.1.3,Win32,59.93766483,62bbe60bf3d75ef465d3e404,0,109,109,135,1,fourthree,,,,,,,,,,,,,,,,,,,,,,,,,,,,,,,,,,,,,,,,,,,,,,,,,,,,,,,,,,,,,,,,,,,,,,,,,,,,,,,,,,,,,,,,,,,,,,,,,,,,,,,,,,,,,,,,,,,,,,,,,,,,,,,,,,,,,,,,,,,,,,,,,,,,,,,,
,,,,,,60da34669fd87bea96619e41,62bbfa2e4557526fa8e918a6,2022-06-29_09h11.26.058,Colour_Asymmetry_Pilot,2022.1.3,Win32,59.93766483,62bbe60bf3d75ef465d3e404,0,110,110,125,1,threefour,,,,,,,,,,,,,,,,,,,,,,,,,,,,,,,,,,,,,,,,,,,,,,,,,,,,,,,,,,,,,,,,,,,,,,,,,,,,,,,,,,,,,,,,,,,,,,,,,,,,,,,,,,,,,,,,,,,,,,,,,,,,,,,,,,,,,,,,,,,,,,,,,,,,,,,,
,,,,,,60da34669fd87bea96619e41,62bbfa2e4557526fa8e918a6,2022-06-29_09h11.26.058,Colour_Asymmetry_Pilot,2022.1.3,Win32,59.93766483,62bbe60bf3d75ef465d3e404,0,111,111,62,1,fourtwo,,,,,,,,,,,,,,,,,,,,,,,,,,,,,,,,,,,,,,,,,,,,,,,,,,,,,,,,,,,,,,,,,,,,,,,,,,,,,,,,,,,,,,,,,,,,,,,,,,,,,,,,,,,,,,,,,,,,,,,,,,,,,,,,,,,,,,,,,,,,,,,,,,,,,,,,
,,,,,,60da34669fd87bea96619e41,62bbfa2e4557526fa8e918a6,2022-06-29_09h11.26.058,Colour_Asymmetry_Pilot,2022.1.3,Win32,59.93766483,62bbe60bf3d75ef465d3e404,0,112,112,92,1,threeone,,,,,,,,,,,,,,,,,,,,,,,,,,,,,,,,,,,,,,,,,,,,,,,,,,,,,,,,,,,,,,,,,,,,,,,,,,,,,,,,,,,,,,,,,,,,,,,,,,,,,,,,,,,,,,,,,,,,,,,,,,,,,,,,,,,,,,,,,,,,,,,,,,,,,,,,
,,,,,,60da34669fd87bea96619e41,62bbfa2e4557526fa8e918a6,2022-06-29_09h11.26.058,Colour_Asymmetry_Pilot,2022.1.3,Win32,59.93766483,62bbe60bf3d75ef465d3e404,0,113,113,101,1,threefour,,,,,,,,,,,,,,,,,,,,,,,,,,,,,,,,,,,,,,,,,,,,,,,,,,,,,,,,,,,,,,,,,,,,,,,,,,,,,,,,,,,,,,,,,,,,,,,,,,,,,,,,,,,,,,,,,,,,,,,,,,,,,,,,,,,,,,,,,,,,,,,,,,,,,,,,
,,,,,,60da34669fd87bea96619e41,62bbfa2e4557526fa8e918a6,2022-06-29_09h11.26.058,Colour_Asymmetry_Pilot,2022.1.3,Win32,59.93766483,62bbe60bf3d75ef465d3e404,0,114,114,71,1,fourthree,,,,,,,,,,,,,,,,,,,,,,,,,,,,,,,,,,,,,,,,,,,,,,,,,,,,,,,,,,,,,,,,,,,,,,,,,,,,,,,,,,,,,,,,,,,,,,,,,,,,,,,,,,,,,,,,,,,,,,,,,,,,,,,,,,,,,,,,,,,,,,,,,,,,,,,,
,,,,,,60da34669fd87bea96619e41,62bbfa2e4557526fa8e918a6,2022-06-29_09h11.26.058,Colour_Asymmetry_Pilot,2022.1.3,Win32,59.93766483,62bbe60bf3d75ef465d3e404,0,115,115,70,1,fourtwo,,,,,,,,,,,,,,,,,,,,,,,,,,,,,,,,,,,,,,,,,,,,,,,,,,,,,,,,,,,,,,,,,,,,,,,,,,,,,,,,,,,,,,,,,,,,,,,,,,,,,,,,,,,,,,,,,,,,,,,,,,,,,,,,,,,,,,,,,,,,,,,,,,,,,,,,
,,,,,,60da34669fd87bea96619e41,62bbfa2e4557526fa8e918a6,2022-06-29_09h11.26.058,Colour_Asymmetry_Pilot,2022.1.3,Win32,59.93766483,62bbe60bf3d75ef465d3e404,0,116,116,73,1,onethree,,,,,,,,,,,,,,,,,,,,,,,,,,,,,,,,,,,,,,,,,,,,,,,,,,,,,,,,,,,,,,,,,,,,,,,,,,,,,,,,,,,,,,,,,,,,,,,,,,,,,,,,,,,,,,,,,,,,,,,,,,,,,,,,,,,,,,,,,,,,,,,,,,,,,,,,
,,,,,,60da34669fd87bea96619e41,62bbfa2e4557526fa8e918a6,2022-06-29_09h11.26.058,Colour_Asymmetry_Pilot,2022.1.3,Win32,59.93766483,62bbe60bf3d75ef465d3e404,0,117,117,103,1,fourthree,,,,,,,,,,,,,,,,,,,,,,,,,,,,,,,,,,,,,,,,,,,,,,,,,,,,,,,,,,,,,,,,,,,,,,,,,,,,,,,,,,,,,,,,,,,,,,,,,,,,,,,,,,,,,,,,,,,,,,,,,,,,,,,,,,,,,,,,,,,,,,,,,,,,,,,,
,,,,,,60da34669fd87bea96619e41,62bbfa2e4557526fa8e918a6,2022-06-29_09h11.26.058,Colour_Asymmetry_Pilot,2022.1.3,Win32,59.93766483,62bbe60bf3d75ef465d3e404,0,118,118,85,1,threefour,,,,,,,,,,,,,,,,,,,,,,,,,,,,,,,,,,,,,,,,,,,,,,,,,,,,,,,,,,,,,,,,,,,,,,,,,,,,,,,,,,,,,,,,,,,,,,,,,,,,,,,,,,,,,,,,,,,,,,,,,,,,,,,,,,,,,,,,,,,,,,,,,,,,,,,,
,,,,,,60da34669fd87bea96619e41,62bbfa2e4557526fa8e918a6,2022-06-29_09h11.26.058,Colour_Asymmetry_Pilot,2022.1.3,Win32,59.93766483,62bbe60bf3d75ef465d3e404,0,119,119,67,1,twofour,,,,,,,,,,,,,,,,,,,,,,,,,,,,,,,,,,,,,,,,,,,,,,,,,,,,,,,,,,,,,,,,,,,,,,,,,,,,,,,,,,,,,,,,,,,,,,,,,,,,,,,,,,,,,,,,,,,,,,,,,,,,,,,,,,,,,,,,,,,,,,,,,,,,,,,,
,,,,,,60da34669fd87bea96619e41,62bbfa2e4557526fa8e918a6,2022-06-29_09h11.26.058,Colour_Asymmetry_Pilot,2022.1.3,Win32,59.93766483,62bbe60bf3d75ef465d3e404,0,120,120,63,1,fourthree,,,,,,,,,,,,,,,,,,,,,,,,,,,,,,,,,,,,,,,,,,,,,,,,,,,,,,,,,,,,,,,,,,,,,,,,,,,,,,,,,,,,,,,,,,,,,,,,,,,,,,,,,,,,,,,,,,,,,,,,,,,,,,,,,,,,,,,,,,,,,,,,,,,,,,,,
,,,,,,60da34669fd87bea96619e41,62bbfa2e4557526fa8e918a6,2022-06-29_09h11.26.058,Colour_Asymmetry_Pilot,2022.1.3,Win32,59.93766483,62bbe60bf3d75ef465d3e404,0,121,121,18,1,twoone,,,,,,,,,,,,,,,,,,,,,,,,,,,,,,,,,,,,,,,,,,,,,,,,,,,,,,,,,,,,,,,,,,,,,,,,,,,,,,,,,,,,,,,,,,,,,,,,,,,,,,,,,,,,,,,,,,,,,,,,,,,,,,,,,,,,,,,,,,,,,,,,,,,,,,,,
,,,,,,60da34669fd87bea96619e41,62bbfa2e4557526fa8e918a6,2022-06-29_09h11.26.058,Colour_Asymmetry_Pilot,2022.1.3,Win32,59.93766483,62bbe60bf3d75ef465d3e404,0,122,122,64,1,onetwo,,,,,,,,,,,,,,,,,,,,,,,,,,,,,,,,,,,,,,,,,,,,,,,,,,,,,,,,,,,,,,,,,,,,,,,,,,,,,,,,,,,,,,,,,,,,,,,,,,,,,,,,,,,,,,,,,,,,,,,,,,,,,,,,,,,,,,,,,,,,,,,,,,,,,,,,
,,,,,,60da34669fd87bea96619e41,62bbfa2e4557526fa8e918a6,2022-06-29_09h11.26.058,Colour_Asymmetry_Pilot,2022.1.3,Win32,59.93766483,62bbe60bf3d75ef465d3e404,0,123,123,142,1,fourtwo,,,,,,,,,,,,,,,,,,,,,,,,,,,,,,,,,,,,,,,,,,,,,,,,,,,,,,,,,,,,,,,,,,,,,,,,,,,,,,,,,,,,,,,,,,,,,,,,,,,,,,,,,,,,,,,,,,,,,,,,,,,,,,,,,,,,,,,,,,,,,,,,,,,,,,,,
,,,,,,60da34669fd87bea96619e41,62bbfa2e4557526fa8e918a6,2022-06-29_09h11.26.058,Colour_Asymmetry_Pilot,2022.1.3,Win32,59.93766483,62bbe60bf3d75ef465d3e404,0,124,124,128,1,onetwo,,,,,,,,,,,,,,,,,,,,,,,,,,,,,,,,,,,,,,,,,,,,,,,,,,,,,,,,,,,,,,,,,,,,,,,,,,,,,,,,,,,,,,,,,,,,,,,,,,,,,,,,,,,,,,,,,,,,,,,,,,,,,,,,,,,,,,,,,,,,,,,,,,,,,,,,
,,,,,,60da34669fd87bea96619e41,62bbfa2e4557526fa8e918a6,2022-06-29_09h11.26.058,Colour_Asymmetry_Pilot,2022.1.3,Win32,59.93766483,62bbe60bf3d75ef465d3e404,0,125,125,84,1,threeone,,,,,,,,,,,,,,,,,,,,,,,,,,,,,,,,,,,,,,,,,,,,,,,,,,,,,,,,,,,,,,,,,,,,,,,,,,,,,,,,,,,,,,,,,,,,,,,,,,,,,,,,,,,,,,,,,,,,,,,,,,,,,,,,,,,,,,,,,,,,,,,,,,,,,,,,
,,,,,,60da34669fd87bea96619e41,62bbfa2e4557526fa8e918a6,2022-06-29_09h11.26.058,Colour_Asymmetry_Pilot,2022.1.3,Win32,59.93766483,62bbe60bf3d75ef465d3e404,0,126,126,136,1,onetwo,,,,,,,,,,,,,,,,,,,,,,,,,,,,,,,,,,,,,,,,,,,,,,,,,,,,,,,,,,,,,,,,,,,,,,,,,,,,,,,,,,,,,,,,,,,,,,,,,,,,,,,,,,,,,,,,,,,,,,,,,,,,,,,,,,,,,,,,,,,,,,,,,,,,,,,,
,,,,,,60da34669fd87bea96619e41,62bbfa2e4557526fa8e918a6,2022-06-29_09h11.26.058,Colour_Asymmetry_Pilot,2022.1.3,Win32,59.93766483,62bbe60bf3d75ef465d3e404,0,127,127,132,1,threeone,,,,,,,,,,,,,,,,,,,,,,,,,,,,,,,,,,,,,,,,,,,,,,,,,,,,,,,,,,,,,,,,,,,,,,,,,,,,,,,,,,,,,,,,,,,,,,,,,,,,,,,,,,,,,,,,,,,,,,,,,,,,,,,,,,,,,,,,,,,,,,,,,,,,,,,,
,,,,,,60da34669fd87bea96619e41,62bbfa2e4557526fa8e918a6,2022-06-29_09h11.26.058,Colour_Asymmetry_Pilot,2022.1.3,Win32,59.93766483,62bbe60bf3d75ef465d3e404,0,128,128,15,1,fourthree,,,,,,,,,,,,,,,,,,,,,,,,,,,,,,,,,,,,,,,,,,,,,,,,,,,,,,,,,,,,,,,,,,,,,,,,,,,,,,,,,,,,,,,,,,,,,,,,,,,,,,,,,,,,,,,,,,,,,,,,,,,,,,,,,,,,,,,,,,,,,,,,,,,,,,,,
,,,,,,60da34669fd87bea96619e41,62bbfa2e4557526fa8e918a6,2022-06-29_09h11.26.058,Colour_Asymmetry_Pilot,2022.1.3,Win32,59.93766483,62bbe60bf3d75ef465d3e404,0,129,129,76,1,threeone,,,,,,,,,,,,,,,,,,,,,,,,,,,,,,,,,,,,,,,,,,,,,,,,,,,,,,,,,,,,,,,,,,,,,,,,,,,,,,,,,,,,,,,,,,,,,,,,,,,,,,,,,,,,,,,,,,,,,,,,,,,,,,,,,,,,,,,,,,,,,,,,,,,,,,,,
,,,,,,60da34669fd87bea96619e41,62bbfa2e4557526fa8e918a6,2022-06-29_09h11.26.058,Colour_Asymmetry_Pilot,2022.1.3,Win32,59.93766483,62bbe60bf3d75ef465d3e404,0,130,130,120,1,onetwo,,,,,,,,,,,,,,,,,,,,,,,,,,,,,,,,,,,,,,,,,,,,,,,,,,,,,,,,,,,,,,,,,,,,,,,,,,,,,,,,,,,,,,,,,,,,,,,,,,,,,,,,,,,,,,,,,,,,,,,,,,,,,,,,,,,,,,,,,,,,,,,,,,,,,,,,
,,,,,,60da34669fd87bea96619e41,62bbfa2e4557526fa8e918a6,2022-06-29_09h11.26.058,Colour_Asymmetry_Pilot,2022.1.3,Win32,59.93766483,62bbe60bf3d75ef465d3e404,0,131,131,81,1,onethree,,,,,,,,,,,,,,,,,,,,,,,,,,,,,,,,,,,,,,,,,,,,,,,,,,,,,,,,,,,,,,,,,,,,,,,,,,,,,,,,,,,,,,,,,,,,,,,,,,,,,,,,,,,,,,,,,,,,,,,,,,,,,,,,,,,,,,,,,,,,,,,,,,,,,,,,
,,,,,,60da34669fd87bea96619e41,62bbfa2e4557526fa8e918a6,2022-06-29_09h11.26.058,Colour_Asymmetry_Pilot,2022.1.3,Win32,59.93766483,62bbe60bf3d75ef465d3e404,0,132,132,49,1,onethree,,,,,,,,,,,,,,,,,,,,,,,,,,,,,,,,,,,,,,,,,,,,,,,,,,,,,,,,,,,,,,,,,,,,,,,,,,,,,,,,,,,,,,,,,,,,,,,,,,,,,,,,,,,,,,,,,,,,,,,,,,,,,,,,,,,,,,,,,,,,,,,,,,,,,,,,
,,,,,,60da34669fd87bea96619e41,62bbfa2e4557526fa8e918a6,2022-06-29_09h11.26.058,Colour_Asymmetry_Pilot,2022.1.3,Win32,59.93766483,62bbe60bf3d75ef465d3e404,0,133,133,17,1,onethree,,,,,,,,,,,,,,,,,,,,,,,,,,,,,,,,,,,,,,,,,,,,,,,,,,,,,,,,,,,,,,,,,,,,,,,,,,,,,,,,,,,,,,,,,,,,,,,,,,,,,,,,,,,,,,,,,,,,,,,,,,,,,,,,,,,,,,,,,,,,,,,,,,,,,,,,
,,,,,,60da34669fd87bea96619e41,62bbfa2e4557526fa8e918a6,2022-06-29_09h11.26.058,Colour_Asymmetry_Pilot,2022.1.3,Win32,59.93766483,62bbe60bf3d75ef465d3e404,0,134,134,37,1,threefour,,,,,,,,,,,,,,,,,,,,,,,,,,,,,,,,,,,,,,,,,,,,,,,,,,,,,,,,,,,,,,,,,,,,,,,,,,,,,,,,,,,,,,,,,,,,,,,,,,,,,,,,,,,,,,,,,,,,,,,,,,,,,,,,,,,,,,,,,,,,,,,,,,,,,,,,
,,,,,,60da34669fd87bea96619e41,62bbfa2e4557526fa8e918a6,2022-06-29_09h11.26.058,Colour_Asymmetry_Pilot,2022.1.3,Win32,59.93766483,62bbe60bf3d75ef465d3e404,0,135,135,48,1,onetwo,,,,,,,,,,,,,,,,,,,,,,,,,,,,,,,,,,,,,,,,,,,,,,,,,,,,,,,,,,,,,,,,,,,,,,,,,,,,,,,,,,,,,,,,,,,,,,,,,,,,,,,,,,,,,,,,,,,,,,,,,,,,,,,,,,,,,,,,,,,,,,,,,,,,,,,,
,,,,,,60da34669fd87bea96619e41,62bbfa2e4557526fa8e918a6,2022-06-29_09h11.26.058,Colour_Asymmetry_Pilot,2022.1.3,Win32,59.93766483,62bbe60bf3d75ef465d3e404,0,136,136,78,1,fourtwo,,,,,,,,,,,,,,,,,,,,,,,,,,,,,,,,,,,,,,,,,,,,,,,,,,,,,,,,,,,,,,,,,,,,,,,,,,,,,,,,,,,,,,,,,,,,,,,,,,,,,,,,,,,,,,,,,,,,,,,,,,,,,,,,,,,,,,,,,,,,,,,,,,,,,,,,
,,,,,,60da34669fd87bea96619e41,62bbfa2e4557526fa8e918a6,2022-06-29_09h11.26.058,Colour_Asymmetry_Pilot,2022.1.3,Win32,59.93766483,62bbe60bf3d75ef465d3e404,0,137,137,87,1,fourthree,,,,,,,,,,,,,,,,,,,,,,,,,,,,,,,,,,,,,,,,,,,,,,,,,,,,,,,,,,,,,,,,,,,,,,,,,,,,,,,,,,,,,,,,,,,,,,,,,,,,,,,,,,,,,,,,,,,,,,,,,,,,,,,,,,,,,,,,,,,,,,,,,,,,,,,,
,,,,,,60da34669fd87bea96619e41,62bbfa2e4557526fa8e918a6,2022-06-29_09h11.26.058,Colour_Asymmetry_Pilot,2022.1.3,Win32,59.93766483,62bbe60bf3d75ef465d3e404,0,138,138,91,1,twofour,,,,,,,,,,,,,,,,,,,,,,,,,,,,,,,,,,,,,,,,,,,,,,,,,,,,,,,,,,,,,,,,,,,,,,,,,,,,,,,,,,,,,,,,,,,,,,,,,,,,,,,,,,,,,,,,,,,,,,,,,,,,,,,,,,,,,,,,,,,,,,,,,,,,,,,,
,,,,,,60da34669fd87bea96619e41,62bbfa2e4557526fa8e918a6,2022-06-29_09h11.26.058,Colour_Asymmetry_Pilot,2022.1.3,Win32,59.93766483,62bbe60bf3d75ef465d3e404,0,139,139,152,1,onetwo,,,,,,,,,,,,,,,,,,,,,,,,,,,,,,,,,,,,,,,,,,,,,,,,,,,,,,,,,,,,,,,,,,,,,,,,,,,,,,,,,,,,,,,,,,,,,,,,,,,,,,,,,,,,,,,,,,,,,,,,,,,,,,,,,,,,,,,,,,,,,,,,,,,,,,,,
,,,,,,60da34669fd87bea96619e41,62bbfa2e4557526fa8e918a6,2022-06-29_09h11.26.058,Colour_Asymmetry_Pilot,2022.1.3,Win32,59.93766483,62bbe60bf3d75ef465d3e404,0,140,140,43,1,twofour,,,,,,,,,,,,,,,,,,,,,,,,,,,,,,,,,,,,,,,,,,,,,,,,,,,,,,,,,,,,,,,,,,,,,,,,,,,,,,,,,,,,,,,,,,,,,,,,,,,,,,,,,,,,,,,,,,,,,,,,,,,,,,,,,,,,,,,,,,,,,,,,,,,,,,,,
,,,,,,60da34669fd87bea96619e41,62bbfa2e4557526fa8e918a6,2022-06-29_09h11.26.058,Colour_Asymmetry_Pilot,2022.1.3,Win32,59.93766483,62bbe60bf3d75ef465d3e404,0,141,141,8,1,onetwo,,,,,,,,,,,,,,,,,,,,,,,,,,,,,,,,,,,,,,,,,,,,,,,,,,,,,,,,,,,,,,,,,,,,,,,,,,,,,,,,,,,,,,,,,,,,,,,,,,,,,,,,,,,,,,,,,,,,,,,,,,,,,,,,,,,,,,,,,,,,,,,,,,,,,,,,
,,,,,,60da34669fd87bea96619e41,62bbfa2e4557526fa8e918a6,2022-06-29_09h11.26.058,Colour_Asymmetry_Pilot,2022.1.3,Win32,59.93766483,62bbe60bf3d75ef465d3e404,0,142,142,117,1,threefour,,,,,,,,,,,,,,,,,,,,,,,,,,,,,,,,,,,,,,,,,,,,,,,,,,,,,,,,,,,,,,,,,,,,,,,,,,,,,,,,,,,,,,,,,,,,,,,,,,,,,,,,,,,,,,,,,,,,,,,,,,,,,,,,,,,,,,,,,,,,,,,,,,,,,,,,
,,,,,,60da34669fd87bea96619e41,62bbfa2e4557526fa8e918a6,2022-06-29_09h11.26.058,Colour_Asymmetry_Pilot,2022.1.3,Win32,59.93766483,62bbe60bf3d75ef465d3e404,0,143,143,159,1,fourthree,,,,,,,,,,,,,,,,,,,,,,,,,,,,,,,,,,,,,,,,,,,,,,,,,,,,,,,,,,,,,,,,,,,,,,,,,,,,,,,,,,,,,,,,,,,,,,,,,,,,,,,,,,,,,,,,,,,,,,,,,,,,,,,,,,,,,,,,,,,,,,,,,,,,,,,,
,,,,,,60da34669fd87bea96619e41,62bbfa2e4557526fa8e918a6,2022-06-29_09h11.26.058,Colour_Asymmetry_Pilot,2022.1.3,Win32,59.93766483,62bbe60bf3d75ef465d3e404,0,144,144,40,1,onetwo,,,,,,,,,,,,,,,,,,,,,,,,,,,,,,,,,,,,,,,,,,,,,,,,,,,,,,,,,,,,,,,,,,,,,,,,,,,,,,,,,,,,,,,,,,,,,,,,,,,,,,,,,,,,,,,,,,,,,,,,,,,,,,,,,,,,,,,,,,,,,,,,,,,,,,,,
,,,,,,60da34669fd87bea96619e41,62bbfa2e4557526fa8e918a6,2022-06-29_09h11.26.058,Colour_Asymmetry_Pilot,2022.1.3,Win32,59.93766483,62bbe60bf3d75ef465d3e404,0,145,145,0,1,onetwo,,,,,,,,,,,,,,,,,,,,,,,,,,,,,,,,,,,,,,,,,,,,,,,,,,,,,,,,,,,,,,,,,,,,,,,,,,,,,,,,,,,,,,,,,,,,,,,,,,,,,,,,,,,,,,,,,,,,,,,,,,,,,,,,,,,,,,,,,,,,,,,,,,,,,,,,
,,,,,,60da34669fd87bea96619e41,62bbfa2e4557526fa8e918a6,2022-06-29_09h11.26.058,Colour_Asymmetry_Pilot,2022.1.3,Win32,59.93766483,62bbe60bf3d75ef465d3e404,0,146,146,150,1,fourtwo,,,,,,,,,,,,,,,,,,,,,,,,,,,,,,,,,,,,,,,,,,,,,,,,,,,,,,,,,,,,,,,,,,,,,,,,,,,,,,,,,,,,,,,,,,,,,,,,,,,,,,,,,,,,,,,,,,,,,,,,,,,,,,,,,,,,,,,,,,,,,,,,,,,,,,,,
,,,,,,60da34669fd87bea96619e41,62bbfa2e4557526fa8e918a6,2022-06-29_09h11.26.058,Colour_Asymmetry_Pilot,2022.1.3,Win32,59.93766483,62bbe60bf3d75ef465d3e404,0,147,147,89,1,onethree,,,,,,,,,,,,,,,,,,,,,,,,,,,,,,,,,,,,,,,,,,,,,,,,,,,,,,,,,,,,,,,,,,,,,,,,,,,,,,,,,,,,,,,,,,,,,,,,,,,,,,,,,,,,,,,,,,,,,,,,,,,,,,,,,,,,,,,,,,,,,,,,,,,,,,,,
,,,,,,60da34669fd87bea96619e41,62bbfa2e4557526fa8e918a6,2022-06-29_09h11.26.058,Colour_Asymmetry_Pilot,2022.1.3,Win32,59.93766483,62bbe60bf3d75ef465d3e404,0,148,148,12,1,threeone,,,,,,,,,,,,,,,,,,,,,,,,,,,,,,,,,,,,,,,,,,,,,,,,,,,,,,,,,,,,,,,,,,,,,,,,,,,,,,,,,,,,,,,,,,,,,,,,,,,,,,,,,,,,,,,,,,,,,,,,,,,,,,,,,,,,,,,,,,,,,,,,,,,,,,,,
,,,,,,60da34669fd87bea96619e41,62bbfa2e4557526fa8e918a6,2022-06-29_09h11.26.058,Colour_Asymmetry_Pilot,2022.1.3,Win32,59.93766483,62bbe60bf3d75ef465d3e404,0,149,149,35,1,twofour,,,,,,,,,,,,,,,,,,,,,,,,,,,,,,,,,,,,,,,,,,,,,,,,,,,,,,,,,,,,,,,,,,,,,,,,,,,,,,,,,,,,,,,,,,,,,,,,,,,,,,,,,,,,,,,,,,,,,,,,,,,,,,,,,,,,,,,,,,,,,,,,,,,,,,,,
,,,,,,60da34669fd87bea96619e41,62bbfa2e4557526fa8e918a6,2022-06-29_09h11.26.058,Colour_Asymmetry_Pilot,2022.1.3,Win32,59.93766483,62bbe60bf3d75ef465d3e404,0,150,150,99,1,twofour,,,,,,,,,,,,,,,,,,,,,,,,,,,,,,,,,,,,,,,,,,,,,,,,,,,,,,,,,,,,,,,,,,,,,,,,,,,,,,,,,,,,,,,,,,,,,,,,,,,,,,,,,,,,,,,,,,,,,,,,,,,,,,,,,,,,,,,,,,,,,,,,,,,,,,,,
,,,,,,60da34669fd87bea96619e41,62bbfa2e4557526fa8e918a6,2022-06-29_09h11.26.058,Colour_Asymmetry_Pilot,2022.1.3,Win32,59.93766483,62bbe60bf3d75ef465d3e404,0,151,151,146,1,twoone,,,,,,,,,,,,,,,,,,,,,,,,,,,,,,,,,,,,,,,,,,,,,,,,,,,,,,,,,,,,,,,,,,,,,,,,,,,,,,,,,,,,,,,,,,,,,,,,,,,,,,,,,,,,,,,,,,,,,,,,,,,,,,,,,,,,,,,,,,,,,,,,,,,,,,,,
,,,,,,60da34669fd87bea96619e41,62bbfa2e4557526fa8e918a6,2022-06-29_09h11.26.058,Colour_Asymmetry_Pilot,2022.1.3,Win32,59.93766483,62bbe60bf3d75ef465d3e404,0,152,152,16,1,onetwo,,,,,,,,,,,,,,,,,,,,,,,,,,,,,,,,,,,,,,,,,,,,,,,,,,,,,,,,,,,,,,,,,,,,,,,,,,,,,,,,,,,,,,,,,,,,,,,,,,,,,,,,,,,,,,,,,,,,,,,,,,,,,,,,,,,,,,,,,,,,,,,,,,,,,,,,
,,,,,,60da34669fd87bea96619e41,62bbfa2e4557526fa8e918a6,2022-06-29_09h11.26.058,Colour_Asymmetry_Pilot,2022.1.3,Win32,59.93766483,62bbe60bf3d75ef465d3e404,0,153,153,108,1,threeone,,,,,,,,,,,,,,,,,,,,,,,,,,,,,,,,,,,,,,,,,,,,,,,,,,,,,,,,,,,,,,,,,,,,,,,,,,,,,,,,,,,,,,,,,,,,,,,,,,,,,,,,,,,,,,,,,,,,,,,,,,,,,,,,,,,,,,,,,,,,,,,,,,,,,,,,
,,,,,,60da34669fd87bea96619e41,62bbfa2e4557526fa8e918a6,2022-06-29_09h11.26.058,Colour_Asymmetry_Pilot,2022.1.3,Win32,59.93766483,62bbe60bf3d75ef465d3e404,0,154,154,124,1,threeone,,,,,,,,,,,,,,,,,,,,,,,,,,,,,,,,,,,,,,,,,,,,,,,,,,,,,,,,,,,,,,,,,,,,,,,,,,,,,,,,,,,,,,,,,,,,,,,,,,,,,,,,,,,,,,,,,,,,,,,,,,,,,,,,,,,,,,,,,,,,,,,,,,,,,,,,
,,,,,,60da34669fd87bea96619e41,62bbfa2e4557526fa8e918a6,2022-06-29_09h11.26.058,Colour_Asymmetry_Pilot,2022.1.3,Win32,59.93766483,62bbe60bf3d75ef465d3e404,0,155,155,53,1,threefour,,,,,,,,,,,,,,,,,,,,,,,,,,,,,,,,,,,,,,,,,,,,,,,,,,,,,,,,,,,,,,,,,,,,,,,,,,,,,,,,,,,,,,,,,,,,,,,,,,,,,,,,,,,,,,,,,,,,,,,,,,,,,,,,,,,,,,,,,,,,,,,,,,,,,,,,
,,,,,,60da34669fd87bea96619e41,62bbfa2e4557526fa8e918a6,2022-06-29_09h11.26.058,Colour_Asymmetry_Pilot,2022.1.3,Win32,59.93766483,62bbe60bf3d75ef465d3e404,0,156,156,148,1,threeone,,,,,,,,,,,,,,,,,,,,,,,,,,,,,,,,,,,,,,,,,,,,,,,,,,,,,,,,,,,,,,,,,,,,,,,,,,,,,,,,,,,,,,,,,,,,,,,,,,,,,,,,,,,,,,,,,,,,,,,,,,,,,,,,,,,,,,,,,,,,,,,,,,,,,,,,
,,,,,,60da34669fd87bea96619e41,62bbfa2e4557526fa8e918a6,2022-06-29_09h11.26.058,Colour_Asymmetry_Pilot,2022.1.3,Win32,59.93766483,62bbe60bf3d75ef465d3e404,0,157,157,38,1,fourtwo,,,,,,,,,,,,,,,,,,,,,,,,,,,,,,,,,,,,,,,,,,,,,,,,,,,,,,,,,,,,,,,,,,,,,,,,,,,,,,,,,,,,,,,,,,,,,,,,,,,,,,,,,,,,,,,,,,,,,,,,,,,,,,,,,,,,,,,,,,,,,,,,,,,,,,,,
,,,,,,60da34669fd87bea96619e41,62bbfa2e4557526fa8e918a6,2022-06-29_09h11.26.058,Colour_Asymmetry_Pilot,2022.1.3,Win32,59.93766483,62bbe60bf3d75ef465d3e404,0,158,158,156,1,threeone,,,,,,,,,,,,,,,,,,,,,,,,,,,,,,,,,,,,,,,,,,,,,,,,,,,,,,,,,,,,,,,,,,,,,,,,,,,,,,,,,,,,,,,,,,,,,,,,,,,,,,,,,,,,,,,,,,,,,,,,,,,,,,,,,,,,,,,,,,,,,,,,,,,,,,,,
,,,,,,60da34669fd87bea96619e41,62bbfa2e4557526fa8e918a6,2022-06-29_09h11.26.058,Colour_Asymmetry_Pilot,2022.1.3,Win32,59.93766483,62bbe60bf3d75ef465d3e404,0,159,159,11,1,twofour,,,,,,,,,,,,,,,,,,,,,,,,,,,,,,,,,,,,,,,,,,,,,,,,,,,,,,,,,,,,,,,,,,,,,,,,,,,,,,,,,,,,,,,,,,,,,,,,,,,,,,,,,,,,,,,,,,,,,,,,,,,,,,,,,,,,,,,,,,,,,,,,,,,,,,,,
,,,,,,60da34669fd87bea96619e41,62bbfa2e4557526fa8e918a6,2022-06-29_09h11.26.058,Colour_Asymmetry_Pilot,2022.1.3,Win32,59.93766483,62bbe60bf3d75ef465d3e404,0,160,160,65,1,onethree,,,,,,,,,,,,,,,,,,,,,,,,,,,,,,,,,,,,,,,,,,,,,,,,,,,,,,,,,,,,,,,,,,,,,,,,,,,,,,,,,,,,,,,,,,,,,,,,,,,,,,,,,,,,,,,,,,,,,,,,,,,,,,,,,,,,,,,,,,,,,,,,,,,,,,,,
,,,,,,60da34669fd87bea96619e41,62bbfa2e4557526fa8e918a6,2022-06-29_09h11.26.058,Colour_Asymmetry_Pilot,2022.1.3,Win32,59.93766483,62bbe60bf3d75ef465d3e404,0,161,161,27,1,twofour,,,,,,,,,,,,,,,,,,,,,,,,,,,,,,,,,,,,,,,,,,,,,,,,,,,,,,,,,,,,,,,,,,,,,,,,,,,,,,,,,,,,,,,,,,,,,,,,,,,,,,,,,,,,,,,,,,,,,,,,,,,,,,,,,,,,,,,,,,,,,,,,,,,,,,,,
,,,,,,60da34669fd87bea96619e41,62bbfa2e4557526fa8e918a6,2022-06-29_09h11.26.058,Colour_Asymmetry_Pilot,2022.1.3,Win32,59.93766483,62bbe60bf3d75ef465d3e404,,,,,,,space,43.2036,space,19.2452,space,82.5461,space,9.2366,space,6.7004,space,44.9992,"[-0.050999999999999934,-0.6706000000000001,-0.804]",twoone,"[-0.30200000000000005,0.14500000000000002,0.2784]",-4,27.4413,-48.79998928,115.9999953,1,0,0,response7disk_5,-4.799988627,2.399993598,1,0,0,rectangle_8,49.60006101,-126.4000083,1,0,0,response3disk_7,4,1,4.800011516,-6.4373E-06,1,0,0,rectangle_4,0,0,0,0,1,,,,,,,,,,,,,,,,,,,,,,,,,,,,,,,,,,,,,,,,,,,,,,,,,,,,,,,,,,,,,,,,,,,,,,,,,,,,,,,,,,,,,,,,,,,,,,,,,,,,,,,,
,,,,,,60da34669fd87bea96619e41,62bbfa2e4557526fa8e918a6,2022-06-29_09h11.26.058,Colour_Asymmetry_Pilot,2022.1.3,Win32,59.93766483,62bbe60bf3d75ef465d3e404,,,,,,,,,,,,,,,,,,,"[0.37240000000000006,-0.050999999999999934,-0.5216]",onethree,"[-0.9844,-0.9688,-0.9922]",-4,2.1995,-43.99998921,92.79999495,1,0,0,response7disk_5,10.4000116,-1.600006461,1,0,0,rectangle_8,10.4000116,-1.600006461,1,0,0,,,1,10.4000116,-1.600006461,1,0,0,,1,0,1,0,1,,,,,,,,,,,,,,,,,,,,,,,,,,,,,,,,,,,,,,,,,,,,,,,,,,,,,,,,,,,,,,,,,,,,,,,,,,,,,,,,,,,,,,,,,,,,,,,,,,,,,,,,
,,,,,,60da34669fd87bea96619e41,62bbfa2e4557526fa8e918a6,2022-06-29_09h11.26.058,Colour_Asymmetry_Pilot,2022.1.3,Win32,59.93766483,62bbe60bf3d75ef465d3e404,,,,,,,,,,,,,,,,,,,"[-0.24719999999999998,0.5213999999999999,-0.12959999999999994]",twoone,"[0.3881999999999999,-0.23939999999999995,-0.05040000000000011]",-4,1.9011,-41.59998918,103.9999951,1,0,0,response7disk_5,4.800011516,-2.400006473,1,0,0,rectangle_8,4.800011516,-2.400006473,1,0,0,,,1,4.800011516,-2.400006473,1,0,0,,2,0,2,0,1,,,,,,,,,,,,,,,,,,,,,,,,,,,,,,,,,,,,,,,,,,,,,,,,,,,,,,,,,,,,,,,,,,,,,,,,,,,,,,,,,,,,,,,,,,,,,,,,,,,,,,,,
,,,,,,60da34669fd87bea96619e41,62bbfa2e4557526fa8e918a6,2022-06-29_09h11.26.058,Colour_Asymmetry_Pilot,2022.1.3,Win32,59.93766483,62bbe60bf3d75ef465d3e404,,,,,,,,,,,,,,,,,,,"[0.22340000000000004,-0.9296,-0.7884]",twofour,"[-0.45899999999999996,-0.3256,-0.9374]",-4,1.2333,-47.19998926,109.5999952,1,0,0,response7disk_5,-2.399939764,4.799993634,1,0,0,rectangle_8,-2.399939764,4.799993634,1,0,0,,,1,-2.399939764,4.799993634,1,0,0,,3,0,3,0,1,,,,,,,,,,,,,,,,,,,,,,,,,,,,,,,,,,,,,,,,,,,,,,,,,,,,,,,,,,,,,,,,,,,,,,,,,,,,,,,,,,,,,,,,,,,,,,,,,,,,,,,,
,,,,,,60da34669fd87bea96619e41,62bbfa2e4557526fa8e918a6,2022-06-29_09h11.26.058,Colour_Asymmetry_Pilot,2022.1.3,Win32,59.93766483,62bbe60bf3d75ef465d3e404,,,,,,,,,,,,,,,,,,,"[-0.8982,-0.37259999999999993,0.2784]",onethree,"[0.34099999999999997,0.12939999999999996,-0.9766]",-4,0.9064,-37.59998912,85.59999484,1,0,0,response7disk_5,-1.59998858,-0.800006449,1,0,0,rectangle_8,-1.59998858,-0.800006449,1,0,0,,,1,-1.59998858,-0.800006449,1,0,0,,4,0,4,0,1,,,,,,,,,,,,,,,,,,,,,,,,,,,,,,,,,,,,,,,,,,,,,,,,,,,,,,,,,,,,,,,,,,,,,,,,,,,,,,,,,,,,,,,,,,,,,,,,,,,,,,,,
,,,,,,60da34669fd87bea96619e41,62bbfa2e4557526fa8e918a6,2022-06-29_09h11.26.058,Colour_Asymmetry_Pilot,2022.1.3,Win32,59.93766483,62bbe60bf3d75ef465d3e404,,,,,,,,,,,,,,,,,,,"[0.9763999999999999,-0.1137999999999999,-0.6314]",twoone,"[0.2784,-0.31000000000000005,-0.5452]",-4,6.9166,-59.99998945,119.9999954,1,0,0,response7disk_5,-14.39993994,3.19999361,1,0,0,rectangle_8,-14.39993994,3.19999361,1,0,0,,,1,-14.39993994,3.19999361,1,0,0,,5,0,5,0,1,,,,,,,,,,,,,,,,,,,,,,,,,,,,,,,,,,,,,,,,,,,,,,,,,,,,,,,,,,,,,,,,,,,,,,,,,,,,,,,,,,,,,,,,,,,,,,,,,,,,,,,,
,,,,,,60da34669fd87bea96619e41,62bbfa2e4557526fa8e918a6,2022-06-29_09h11.26.058,Colour_Asymmetry_Pilot,2022.1.3,Win32,59.93766483,62bbe60bf3d75ef465d3e404,,,,,,,,,,,,,,,,,,,"[-0.2942,-0.7648,-0.7492000000000001]",onethree,"[-0.8118,-0.8198,-0.5452]",-4,1.2499,-52.79998934,100.7999951,1,0,0,response7disk_5,6.400011539,-3.200006485,1,0,0,rectangle_8,6.400011539,-3.200006485,1,0,0,,,1,6.400011539,-3.200006485,1,0,0,,6,0,6,0,1,,,,,,,,,,,,,,,,,,,,,,,,,,,,,,,,,,,,,,,,,,,,,,,,,,,,,,,,,,,,,,,,,,,,,,,,,,,,,,,,,,,,,,,,,,,,,,,,,,,,,,,,
,,,,,,60da34669fd87bea96619e41,62bbfa2e4557526fa8e918a6,2022-06-29_09h11.26.058,Colour_Asymmetry_Pilot,2022.1.3,Win32,59.93766483,62bbe60bf3d75ef465d3e404,,,,,,,,,,,,,,,,,,,,threefour,,-4,0.627,,,,,,,,,,,,,,,,,,,,,,,,,,,,,,,,space,5.7378,"[0.34099999999999997,0.5841999999999998,-0.9844]","[0.9686000000000001,0.5763999999999998,0.11359999999999992]",-45.59998924,127.199971,1,0,0,response7disk,4.800011516,-2.400006473,1,0,0,rectangle,4.800011516,-2.400006473,1,0,0,,1,0.0009,0,4.800011516,-2.400006473,1,0,0,0,0,0,17,1,17,first,,,,,,,,,,,,,,,,,,,,,,,,,,,,,,,,,,,,,,,,,,,,,,,,,,,,,,,,,,,,,,,,,,,
,,,,,,60da34669fd87bea96619e41,62bbfa2e4557526fa8e918a6,2022-06-29_09h11.26.058,Colour_Asymmetry_Pilot,2022.1.3,Win32,59.93766483,62bbe60bf3d75ef465d3e404,,,,,,,,,,,,,,,,,,,,twofour,,-4,0.4922,,,,,,,,,,,,,,,,,,,,,,,,,,,,,,,,,,"[-0.09019999999999995,0.44300000000000006,0.5371999999999999]","[-0.24719999999999998,0.5213999999999999,-0.12959999999999994]",-42.39994036,75.19997027,1,0,0,response7disk,-7.199988663,-0.800006449,1,0,0,rectangle,-7.199988663,-0.800006449,1,0,0,,1,0.0004,0,-7.199988663,-0.800006449,1,0,0,0,1,1,66,1,66,first,,,,,,,,,,,,,,,,,,,,,,,,,,,,,,,,,,,,,,,,,,,,,,,,,,,,,,,,,,,,,,,,,,,
,,,,,,60da34669fd87bea96619e41,62bbfa2e4557526fa8e918a6,2022-06-29_09h11.26.058,Colour_Asymmetry_Pilot,2022.1.3,Win32,59.93766483,62bbe60bf3d75ef465d3e404,,,,,,,,,,,,,,,,,,,,fourthree,,4,5.2337,,,,,,,,,,,,,,,,,,,,,,,,,,,,,,,,,,"[-0.8982,-0.37259999999999993,0.2784]","[-0.45899999999999996,-0.3256,-0.9374]",34.40001196,100.7999951,1,0,0,response1disk,-4.799988627,-6.4373E-06,1,0,0,rectangle,-4.799988627,-6.4373E-06,1,0,0,,2,0.0005,0,-4.799988627,-6.4373E-06,1,0,0,0,2,2,140,1,59,second,,,,,,,,,,,,,,,,,,,,,,,,,,,,,,,,,,,,,,,,,,,,,,,,,,,,,,,,,,,,,,,,,,,
,,,,,,60da34669fd87bea96619e41,62bbfa2e4557526fa8e918a6,2022-06-29_09h11.26.058,Colour_Asymmetry_Pilot,2022.1.3,Win32,59.93766483,62bbe60bf3d75ef465d3e404,,,,,,,,,,,,,,,,,,,,twofour,,-4,0.5833,,,,,,,,,,,,,,,,,,,,,,,,,,,,,,,,,,"[0.18419999999999992,-0.4276,-0.404]","[0.23920000000000008,0.2704,0.16060000000000008]",-55.19998938,77.59999472,1,0,0,response7disk,-17.59998882,10.39999372,1,0,0,rectangle,-17.59998882,10.39999372,1,0,0,,1,0.0006,0,-17.59998882,10.39999372,1,0,0,0,3,3,50,1,50,first,,,,,,,,,,,,,,,,,,,,,,,,,,,,,,,,,,,,,,,,,,,,,,,,,,,,,,,,,,,,,,,,,,,
,,,,,,60da34669fd87bea96619e41,62bbfa2e4557526fa8e918a6,2022-06-29_09h11.26.058,Colour_Asymmetry_Pilot,2022.1.3,Win32,59.93766483,62bbe60bf3d75ef465d3e404,,,,,,,,,,,,,,,,,,,,onethree,,-4,0.4288,,,,,,,,,,,,,,,,,,,,,,,,,,,,,,,,,,"[-0.20799999999999996,-0.655,-0.01980000000000004]","[0.9763999999999999,0.8588,-0.05900000000000005]",-57.59998941,98.39999503,1,0,0,response7disk,-0.799988568,14.39999378,1,0,0,rectangle,-0.799988568,14.39999378,1,0,0,,1,0.0002,0,-0.799988568,14.39999378,1,0,0,0,4,4,12,1,12,first,,,,,,,,,,,,,,,,,,,,,,,,,,,,,,,,,,,,,,,,,,,,,,,,,,,,,,,,,,,,,,,,,,,
,,,,,,60da34669fd87bea96619e41,62bbfa2e4557526fa8e918a6,2022-06-29_09h11.26.058,Colour_Asymmetry_Pilot,2022.1.3,Win32,59.93766483,62bbe60bf3d75ef465d3e404,,,,,,,,,,,,,,,,,,,,threefour,,4,1.4428,,,,,,,,,,,,,,,,,,,,,,,,,,,,,,,,,,"[0.5528,0.7409999999999999,-0.71]","[0.5528,0.7409999999999999,-0.71]",45.60006095,106.3999951,1,0,0,response1disk,24.80001181,-6.400006533,1,0,0,rectangle,24.80001181,-6.400006533,1,0,0,,3,0.0006,0,24.80001181,-6.400006533,1,0,0,0,5,5,96,1,15,second,,,,,,,,,,,,,,,,,,,,,,,,,,,,,,,,,,,,,,,,,,,,,,,,,,,,,,,,,,,,,,,,,,,
,,,,,,60da34669fd87bea96619e41,62bbfa2e4557526fa8e918a6,2022-06-29_09h11.26.058,Colour_Asymmetry_Pilot,2022.1.3,Win32,59.93766483,62bbe60bf3d75ef465d3e404,,,,,,,,,,,,,,,,,,,,onetwo,,-4,0.4837,,,,,,,,,,,,,,,,,,,,,,,,,,,,,,,,,,"[-0.06680000000000008,-0.45100000000000007,-0.906]","[-0.9296,-0.12959999999999994,-0.043199999999999905]",-31.19998902,72.79999465,1,0,0,response7disk,8.000011563,4.799993634,1,0,0,rectangle,8.000011563,4.799993634,1,0,0,,2,0.0005,0,8.000011563,4.799993634,1,0,0,0,6,6,89,1,8,second,,,,,,,,,,,,,,,,,,,,,,,,,,,,,,,,,,,,,,,,,,,,,,,,,,,,,,,,,,,,,,,,,,,
,,,,,,60da34669fd87bea96619e41,62bbfa2e4557526fa8e918a6,2022-06-29_09h11.26.058,Colour_Asymmetry_Pilot,2022.1.3,Win32,59.93766483,62bbe60bf3d75ef465d3e404,,,,,,,,,,,,,,,,,,,,onetwo,,-4,0.5662,,,,,,,,,,,,,,,,,,,,,,,,,,,,,,,,,,"[-0.48240000000000005,0.3175999999999999,0.2156]","[-0.9216,-0.5529999999999999,-0.3962]",-44.79998922,87.19997045,1,0,0,response7disk,15.20001167,-9.60000658,1,0,0,rectangle,15.20001167,-9.60000658,1,0,0,,2,0.0004,0,15.20001167,-9.60000658,1,0,0,0,7,7,1,1,1,first,,,,,,,,,,,,,,,,,,,,,,,,,,,,,,,,,,,,,,,,,,,,,,,,,,,,,,,,,,,,,,,,,,,
,,,,,,60da34669fd87bea96619e41,62bbfa2e4557526fa8e918a6,2022-06-29_09h11.26.058,Colour_Asymmetry_Pilot,2022.1.3,Win32,59.93766483,62bbe60bf3d75ef465d3e404,,,,,,,,,,,,,,,,,,,,onetwo,,-4,0.4436,,,,,,,,,,,,,,,,,,,,,,,,,,,,,,,,,,"[0.12939999999999996,-0.2864,0.3253999999999999]","[-0.30200000000000005,0.14500000000000002,0.2784]",-47.19998926,91.99999493,1,0,0,response7disk,8.000011563,9.599993706,1,0,0,rectangle,8.000011563,9.599993706,1,0,0,,3,0.0007,0,8.000011563,9.599993706,1,0,0,0,8,8,151,1,70,second,,,,,,,,,,,,,,,,,,,,,,,,,,,,,,,,,,,,,,,,,,,,,,,,,,,,,,,,,,,,,,,,,,,
,,,,,,60da34669fd87bea96619e41,62bbfa2e4557526fa8e918a6,2022-06-29_09h11.26.058,Colour_Asymmetry_Pilot,2022.1.3,Win32,59.93766483,62bbe60bf3d75ef465d3e404,,,,,,,,,,,,,,,,,,,,twoone,,4,1.0172,,,,,,,,,,,,,,,,,,,,,,,,,,,,,,,,,,"[-0.0040000000000000036,0.02739999999999987,-0.08239999999999992]","[0.3802000000000001,0.19199999999999995,-0.6394]",33.60006077,115.1999709,1,0,0,response1disk,20.80001175,7.999993682,1,0,0,rectangle,20.80001175,7.999993682,1,0,0,,2,0.0007,0,20.80001175,7.999993682,1,0,0,0,9,9,110,1,29,second,,,,,,,,,,,,,,,,,,,,,,,,,,,,,,,,,,,,,,,,,,,,,,,,,,,,,,,,,,,,,,,,,,,
,,,,,,60da34669fd87bea96619e41,62bbfa2e4557526fa8e918a6,2022-06-29_09h11.26.058,Colour_Asymmetry_Pilot,2022.1.3,Win32,59.93766483,62bbe60bf3d75ef465d3e404,,,,,,,,,,,,,,,,,,,,fourthree,,4,0.6819,,,,,,,,,,,,,,,,,,,,,,,,,,,,,,,,,,"[0.37240000000000006,-0.050999999999999934,-0.5216]","[-0.7412000000000001,-0.08239999999999992,-0.6864]",28.80001187,96.79999501,1,0,0,response1disk,11.20001161,-3.200006485,1,0,0,rectangle,11.20001161,-3.200006485,1,0,0,,1,0.0011,0,11.20001161,-3.200006485,1,0,0,0,10,10,19,1,19,first,,,,,,,,,,,,,,,,,,,,,,,,,,,,,,,,,,,,,,,,,,,,,,,,,,,,,,,,,,,,,,,,,,,
,,,,,,60da34669fd87bea96619e41,62bbfa2e4557526fa8e918a6,2022-06-29_09h11.26.058,Colour_Asymmetry_Pilot,2022.1.3,Win32,59.93766483,62bbe60bf3d75ef465d3e404,,,,,,,,,,,,,,,,,,,,onetwo,,-4,0.493,,,,,,,,,,,,,,,,,,,,,,,,,,,,,,,,,,"[0.3568,-0.20799999999999996,-0.9844]","[-0.6235999999999999,-0.6786,-0.08239999999999992]",-48.79998928,81.59999478,1,0,0,response7disk,2.40001148,-1.600006461,1,0,0,rectangle,2.40001148,-1.600006461,1,0,0,,1,0.0005,0,2.40001148,-1.600006461,1,0,0,0,11,11,67,1,67,first,,,,,,,,,,,,,,,,,,,,,,,,,,,,,,,,,,,,,,,,,,,,,,,,,,,,,,,,,,,,,,,,,,,
,,,,,,60da34669fd87bea96619e41,62bbfa2e4557526fa8e918a6,2022-06-29_09h11.26.058,Colour_Asymmetry_Pilot,2022.1.3,Win32,59.93766483,62bbe60bf3d75ef465d3e404,,,,,,,,,,,,,,,,,,,,twofour,,4,0.8016,,,,,,,,,,,,,,,,,,,,,,,,,,,,,,,,,,"[-0.0040000000000000036,0.02739999999999987,-0.08239999999999992]","[0.9686000000000001,0.5763999999999998,0.11359999999999992]",40.80001205,104.7999951,1,0,0,response1disk,32.00001192,-6.4373E-06,1,0,0,rectangle,32.00001192,-6.4373E-06,1,0,0,,2,0.0008,0,32.00001192,-6.4373E-06,1,0,0,0,12,12,106,1,25,second,,,,,,,,,,,,,,,,,,,,,,,,,,,,,,,,,,,,,,,,,,,,,,,,,,,,,,,,,,,,,,,,,,,
,,,,,,60da34669fd87bea96619e41,62bbfa2e4557526fa8e918a6,2022-06-29_09h11.26.058,Colour_Asymmetry_Pilot,2022.1.3,Win32,59.93766483,62bbe60bf3d75ef465d3e404,,,,,,,,,,,,,,,,,,,,twofour,,-4,0.716,,,,,,,,,,,,,,,,,,,,,,,,,,,,,,,,,,"[0.3802000000000001,0.19199999999999995,-0.6394]","[-0.0040000000000000036,0.02739999999999987,-0.08239999999999992]",-50.39994048,101.5999951,1,0,0,response7disk,-3.999988616,11.19999373,1,0,0,rectangle,-3.999988616,11.19999373,1,0,0,,3,0.0009,0,-3.999988616,11.19999373,1,0,0,0,13,13,29,1,29,first,,,,,,,,,,,,,,,,,,,,,,,,,,,,,,,,,,,,,,,,,,,,,,,,,,,,,,,,,,,,,,,,,,,
,,,,,,60da34669fd87bea96619e41,62bbfa2e4557526fa8e918a6,2022-06-29_09h11.26.058,Colour_Asymmetry_Pilot,2022.1.3,Win32,59.93766483,62bbe60bf3d75ef465d3e404,,,,,,,,,,,,,,,,,,,,onetwo,,-4,0.5652,,,,,,,,,,,,,,,,,,,,,,,,,,,,,,,,,,"[0.19199999999999995,0.18419999999999992,0.5136000000000001]","[-0.26280000000000003,-0.4746,-0.2158]",-50.39994048,95.19997057,1,0,0,response7disk,14.40001166,0.799993575,1,0,0,rectangle,14.40001166,0.799993575,1,0,0,,3,0.0004,0,14.40001166,0.799993575,1,0,0,0,14,14,34,1,34,first,,,,,,,,,,,,,,,,,,,,,,,,,,,,,,,,,,,,,,,,,,,,,,,,,,,,,,,,,,,,,,,,,,,
,,,,,,60da34669fd87bea96619e41,62bbfa2e4557526fa8e918a6,2022-06-29_09h11.26.058,Colour_Asymmetry_Pilot,2022.1.3,Win32,59.93766483,62bbe60bf3d75ef465d3e404,,,,,,,,,,,,,,,,,,,,twofour,,-4,0.6564,,,,,,,,,,,,,,,,,,,,,,,,,,,,,,,,,,"[-0.17659999999999998,0.3253999999999999,0.19999999999999996]","[0.7018,0.7176,0.6155999999999999]",-52.79998934,96.79999501,1,0,0,response7disk,8.800011575,9.599993706,1,0,0,rectangle,8.800011575,9.599993706,1,0,0,,2,0.0004,0,8.800011575,9.599993706,1,0,0,0,15,15,5,1,5,first,,,,,,,,,,,,,,,,,,,,,,,,,,,,,,,,,,,,,,,,,,,,,,,,,,,,,,,,,,,,,,,,,,,
,,,,,,60da34669fd87bea96619e41,62bbfa2e4557526fa8e918a6,2022-06-29_09h11.26.058,Colour_Asymmetry_Pilot,2022.1.3,Win32,59.93766483,62bbe60bf3d75ef465d3e404,,,,,,,,,,,,,,,,,,,,fourtwo,,-4,0.4705,,,,,,,,,,,,,,,,,,,,,,,,,,,,,,,,,,"[-0.17659999999999998,-0.2864,-0.8354]","[0.2862,0.7802,0.3568]",-37.59998912,86.39999485,1,0,0,response7disk,12.80001163,2.399993598,1,0,0,rectangle,12.80001163,2.399993598,1,0,0,,3,0.0007,0,12.80001163,2.399993598,1,0,0,0,16,16,52,1,52,first,,,,,,,,,,,,,,,,,,,,,,,,,,,,,,,,,,,,,,,,,,,,,,,,,,,,,,,,,,,,,,,,,,,
