trials.thisRepN,trials.thisTrialN,trials.thisN,trials.thisIndex,trials.ran,Colourcodes,participant,session,date,expName,psychopyVersion,OS,frameRate,study_id,trials_4.thisRepN,trials_4.thisTrialN,trials_4.thisN,trials_4.thisIndex,trials_4.ran,StimulusPos,key_resp.keys,key_resp.rt,key_resp_2.keys,key_resp_2.rt,key_resp_15.keys,key_resp_15.rt,key_resp_17.keys,key_resp_17.rt,key_resp_9.keys,key_resp_9.rt,key_resp_10.keys,key_resp_10.rt,Circle1_col,Ecc,Circle2_col,similarity,response_time,mouse_5.x,mouse_5.y,mouse_5.leftButton,mouse_5.midButton,mouse_5.rightButton,mouse_5.clicked_name,mouse_10.x,mouse_10.y,mouse_10.leftButton,mouse_10.midButton,mouse_10.rightButton,mouse_10.clicked_name,mouse_7.x,mouse_7.y,mouse_7.leftButton,mouse_7.midButton,mouse_7.rightButton,catchnumberprac,mouse_6.x,mouse_6.y,mouse_6.leftButton,mouse_6.midButton,mouse_6.rightButton,duringprac.thisRepN,duringprac.thisTrialN,duringprac.thisN,duringprac.thisIndex,duringprac.ran,mouse_7.clicked_name,catchprac,mouse_6.clicked_name,key_resp_22.keys,key_resp_22.rt,Circle1_colour,Circle2_colour,mouse.x,mouse.y,mouse.leftButton,mouse.midButton,mouse.rightButton,mouse.clicked_name,mouse_2.x,mouse_2.y,mouse_2.leftButton,mouse_2.midButton,mouse_2.rightButton,mouse_2.clicked_name,mouse_3.x,mouse_3.y,mouse_3.leftButton,mouse_3.midButton,mouse_3.rightButton,catchresponse,catchnumber,response_time_catch,Catch,mouse_11.x,mouse_11.y,mouse_11.leftButton,mouse_11.midButton,mouse_11.rightButton,trials_2.thisRepN,trials_2.thisTrialN,trials_2.thisN,trials_2.thisIndex,trials_2.ran,Colourpair,Temporder,mouse_3.clicked_name,mouse_11.clicked_name,trials_3.thisRepN,trials_3.thisTrialN,trials_3.thisN,trials_3.thisIndex,trials_3.ran,key_resp_instr_Ishi.keys,key_resp_instr_Ishi.rt,Ishi_trial_keyresp.keys,Ishi_trial_keyresp.rt,Ishi_textbox.text,Ishi_loop.thisRepN,Ishi_loop.thisTrialN,Ishi_loop.thisN,Ishi_loop.thisIndex,Ishi_loop.ran,imageaddress,textbox.text,mouse_4.x,mouse_4.y,mouse_4.leftButton,mouse_4.midButton,mouse_4.rightButton,mouse_4.clicked_name,textbox_2.text,mouse_8.x,mouse_8.y,mouse_8.leftButton,mouse_8.midButton,mouse_8.rightButton,mouse_8.clicked_name,textbox_3.text,mouse_9.x,mouse_9.y,mouse_9.leftButton,mouse_9.midButton,mouse_9.rightButton,mouse_9.clicked_name,textbox_4.text,mouse_12.x,mouse_12.y,mouse_12.leftButton,mouse_12.midButton,mouse_12.rightButton,mouse_12.clicked_name,textbox_5.text,mouse_13.x,mouse_13.y,mouse_13.leftButton,mouse_13.midButton,mouse_13.rightButton,mouse_13.clicked_name,textbox_6.text,mouse_14.x,mouse_14.y,mouse_14.leftButton,mouse_14.midButton,mouse_14.rightButton,mouse_14.clicked_name,textbox_7.text,mouse_15.x,mouse_15.y,mouse_15.leftButton,mouse_15.midButton,mouse_15.rightButton,mouse_15.clicked_name
0,0,0,2,1,,60fd3c9c198705ab72aa3b68,62bbfafa7a2115799921b550,2022-06-29_19h11.12.697,Colour_Asymmetry_Pilot,2022.1.3,Win32,60.04924038,62bbe60bf3d75ef465d3e404,,,,,,,,,,,,,,,,,,,,,,,,,,,,,,,,,,,,,,,,,,,,,,,,,,,,,,,,,,,,,,,,,,,,,,,,,,,,,,,,,,,,,,,,,,,,,,,,,,,,,,,,,,,,,,,,,,,,,,,,,,,,,,,,,,,,,,,,,,,,,,,,,,,,,,,,,,,,,,
0,1,1,87,1,,60fd3c9c198705ab72aa3b68,62bbfafa7a2115799921b550,2022-06-29_19h11.12.697,Colour_Asymmetry_Pilot,2022.1.3,Win32,60.04924038,62bbe60bf3d75ef465d3e404,,,,,,,,,,,,,,,,,,,,,,,,,,,,,,,,,,,,,,,,,,,,,,,,,,,,,,,,,,,,,,,,,,,,,,,,,,,,,,,,,,,,,,,,,,,,,,,,,,,,,,,,,,,,,,,,,,,,,,,,,,,,,,,,,,,,,,,,,,,,,,,,,,,,,,,,,,,,,,
0,2,2,63,1,,60fd3c9c198705ab72aa3b68,62bbfafa7a2115799921b550,2022-06-29_19h11.12.697,Colour_Asymmetry_Pilot,2022.1.3,Win32,60.04924038,62bbe60bf3d75ef465d3e404,,,,,,,,,,,,,,,,,,,,,,,,,,,,,,,,,,,,,,,,,,,,,,,,,,,,,,,,,,,,,,,,,,,,,,,,,,,,,,,,,,,,,,,,,,,,,,,,,,,,,,,,,,,,,,,,,,,,,,,,,,,,,,,,,,,,,,,,,,,,,,,,,,,,,,,,,,,,,,
0,3,3,84,1,,60fd3c9c198705ab72aa3b68,62bbfafa7a2115799921b550,2022-06-29_19h11.12.697,Colour_Asymmetry_Pilot,2022.1.3,Win32,60.04924038,62bbe60bf3d75ef465d3e404,,,,,,,,,,,,,,,,,,,,,,,,,,,,,,,,,,,,,,,,,,,,,,,,,,,,,,,,,,,,,,,,,,,,,,,,,,,,,,,,,,,,,,,,,,,,,,,,,,,,,,,,,,,,,,,,,,,,,,,,,,,,,,,,,,,,,,,,,,,,,,,,,,,,,,,,,,,,,,
0,4,4,35,1,,60fd3c9c198705ab72aa3b68,62bbfafa7a2115799921b550,2022-06-29_19h11.12.697,Colour_Asymmetry_Pilot,2022.1.3,Win32,60.04924038,62bbe60bf3d75ef465d3e404,,,,,,,,,,,,,,,,,,,,,,,,,,,,,,,,,,,,,,,,,,,,,,,,,,,,,,,,,,,,,,,,,,,,,,,,,,,,,,,,,,,,,,,,,,,,,,,,,,,,,,,,,,,,,,,,,,,,,,,,,,,,,,,,,,,,,,,,,,,,,,,,,,,,,,,,,,,,,,
0,5,5,5,1,,60fd3c9c198705ab72aa3b68,62bbfafa7a2115799921b550,2022-06-29_19h11.12.697,Colour_Asymmetry_Pilot,2022.1.3,Win32,60.04924038,62bbe60bf3d75ef465d3e404,,,,,,,,,,,,,,,,,,,,,,,,,,,,,,,,,,,,,,,,,,,,,,,,,,,,,,,,,,,,,,,,,,,,,,,,,,,,,,,,,,,,,,,,,,,,,,,,,,,,,,,,,,,,,,,,,,,,,,,,,,,,,,,,,,,,,,,,,,,,,,,,,,,,,,,,,,,,,,
0,6,6,11,1,,60fd3c9c198705ab72aa3b68,62bbfafa7a2115799921b550,2022-06-29_19h11.12.697,Colour_Asymmetry_Pilot,2022.1.3,Win32,60.04924038,62bbe60bf3d75ef465d3e404,,,,,,,,,,,,,,,,,,,,,,,,,,,,,,,,,,,,,,,,,,,,,,,,,,,,,,,,,,,,,,,,,,,,,,,,,,,,,,,,,,,,,,,,,,,,,,,,,,,,,,,,,,,,,,,,,,,,,,,,,,,,,,,,,,,,,,,,,,,,,,,,,,,,,,,,,,,,,,
0,7,7,88,1,,60fd3c9c198705ab72aa3b68,62bbfafa7a2115799921b550,2022-06-29_19h11.12.697,Colour_Asymmetry_Pilot,2022.1.3,Win32,60.04924038,62bbe60bf3d75ef465d3e404,,,,,,,,,,,,,,,,,,,,,,,,,,,,,,,,,,,,,,,,,,,,,,,,,,,,,,,,,,,,,,,,,,,,,,,,,,,,,,,,,,,,,,,,,,,,,,,,,,,,,,,,,,,,,,,,,,,,,,,,,,,,,,,,,,,,,,,,,,,,,,,,,,,,,,,,,,,,,,
0,8,8,16,1,,60fd3c9c198705ab72aa3b68,62bbfafa7a2115799921b550,2022-06-29_19h11.12.697,Colour_Asymmetry_Pilot,2022.1.3,Win32,60.04924038,62bbe60bf3d75ef465d3e404,,,,,,,,,,,,,,,,,,,,,,,,,,,,,,,,,,,,,,,,,,,,,,,,,,,,,,,,,,,,,,,,,,,,,,,,,,,,,,,,,,,,,,,,,,,,,,,,,,,,,,,,,,,,,,,,,,,,,,,,,,,,,,,,,,,,,,,,,,,,,,,,,,,,,,,,,,,,,,
0,9,9,82,1,,60fd3c9c198705ab72aa3b68,62bbfafa7a2115799921b550,2022-06-29_19h11.12.697,Colour_Asymmetry_Pilot,2022.1.3,Win32,60.04924038,62bbe60bf3d75ef465d3e404,,,,,,,,,,,,,,,,,,,,,,,,,,,,,,,,,,,,,,,,,,,,,,,,,,,,,,,,,,,,,,,,,,,,,,,,,,,,,,,,,,,,,,,,,,,,,,,,,,,,,,,,,,,,,,,,,,,,,,,,,,,,,,,,,,,,,,,,,,,,,,,,,,,,,,,,,,,,,,
0,10,10,50,1,,60fd3c9c198705ab72aa3b68,62bbfafa7a2115799921b550,2022-06-29_19h11.12.697,Colour_Asymmetry_Pilot,2022.1.3,Win32,60.04924038,62bbe60bf3d75ef465d3e404,,,,,,,,,,,,,,,,,,,,,,,,,,,,,,,,,,,,,,,,,,,,,,,,,,,,,,,,,,,,,,,,,,,,,,,,,,,,,,,,,,,,,,,,,,,,,,,,,,,,,,,,,,,,,,,,,,,,,,,,,,,,,,,,,,,,,,,,,,,,,,,,,,,,,,,,,,,,,,
0,11,11,24,1,,60fd3c9c198705ab72aa3b68,62bbfafa7a2115799921b550,2022-06-29_19h11.12.697,Colour_Asymmetry_Pilot,2022.1.3,Win32,60.04924038,62bbe60bf3d75ef465d3e404,,,,,,,,,,,,,,,,,,,,,,,,,,,,,,,,,,,,,,,,,,,,,,,,,,,,,,,,,,,,,,,,,,,,,,,,,,,,,,,,,,,,,,,,,,,,,,,,,,,,,,,,,,,,,,,,,,,,,,,,,,,,,,,,,,,,,,,,,,,,,,,,,,,,,,,,,,,,,,
0,12,12,85,1,,60fd3c9c198705ab72aa3b68,62bbfafa7a2115799921b550,2022-06-29_19h11.12.697,Colour_Asymmetry_Pilot,2022.1.3,Win32,60.04924038,62bbe60bf3d75ef465d3e404,,,,,,,,,,,,,,,,,,,,,,,,,,,,,,,,,,,,,,,,,,,,,,,,,,,,,,,,,,,,,,,,,,,,,,,,,,,,,,,,,,,,,,,,,,,,,,,,,,,,,,,,,,,,,,,,,,,,,,,,,,,,,,,,,,,,,,,,,,,,,,,,,,,,,,,,,,,,,,
0,13,13,47,1,,60fd3c9c198705ab72aa3b68,62bbfafa7a2115799921b550,2022-06-29_19h11.12.697,Colour_Asymmetry_Pilot,2022.1.3,Win32,60.04924038,62bbe60bf3d75ef465d3e404,,,,,,,,,,,,,,,,,,,,,,,,,,,,,,,,,,,,,,,,,,,,,,,,,,,,,,,,,,,,,,,,,,,,,,,,,,,,,,,,,,,,,,,,,,,,,,,,,,,,,,,,,,,,,,,,,,,,,,,,,,,,,,,,,,,,,,,,,,,,,,,,,,,,,,,,,,,,,,
0,14,14,74,1,,60fd3c9c198705ab72aa3b68,62bbfafa7a2115799921b550,2022-06-29_19h11.12.697,Colour_Asymmetry_Pilot,2022.1.3,Win32,60.04924038,62bbe60bf3d75ef465d3e404,,,,,,,,,,,,,,,,,,,,,,,,,,,,,,,,,,,,,,,,,,,,,,,,,,,,,,,,,,,,,,,,,,,,,,,,,,,,,,,,,,,,,,,,,,,,,,,,,,,,,,,,,,,,,,,,,,,,,,,,,,,,,,,,,,,,,,,,,,,,,,,,,,,,,,,,,,,,,,
0,15,15,43,1,,60fd3c9c198705ab72aa3b68,62bbfafa7a2115799921b550,2022-06-29_19h11.12.697,Colour_Asymmetry_Pilot,2022.1.3,Win32,60.04924038,62bbe60bf3d75ef465d3e404,,,,,,,,,,,,,,,,,,,,,,,,,,,,,,,,,,,,,,,,,,,,,,,,,,,,,,,,,,,,,,,,,,,,,,,,,,,,,,,,,,,,,,,,,,,,,,,,,,,,,,,,,,,,,,,,,,,,,,,,,,,,,,,,,,,,,,,,,,,,,,,,,,,,,,,,,,,,,,
0,16,16,45,1,,60fd3c9c198705ab72aa3b68,62bbfafa7a2115799921b550,2022-06-29_19h11.12.697,Colour_Asymmetry_Pilot,2022.1.3,Win32,60.04924038,62bbe60bf3d75ef465d3e404,,,,,,,,,,,,,,,,,,,,,,,,,,,,,,,,,,,,,,,,,,,,,,,,,,,,,,,,,,,,,,,,,,,,,,,,,,,,,,,,,,,,,,,,,,,,,,,,,,,,,,,,,,,,,,,,,,,,,,,,,,,,,,,,,,,,,,,,,,,,,,,,,,,,,,,,,,,,,,
0,17,17,92,1,,60fd3c9c198705ab72aa3b68,62bbfafa7a2115799921b550,2022-06-29_19h11.12.697,Colour_Asymmetry_Pilot,2022.1.3,Win32,60.04924038,62bbe60bf3d75ef465d3e404,,,,,,,,,,,,,,,,,,,,,,,,,,,,,,,,,,,,,,,,,,,,,,,,,,,,,,,,,,,,,,,,,,,,,,,,,,,,,,,,,,,,,,,,,,,,,,,,,,,,,,,,,,,,,,,,,,,,,,,,,,,,,,,,,,,,,,,,,,,,,,,,,,,,,,,,,,,,,,
0,18,18,3,1,,60fd3c9c198705ab72aa3b68,62bbfafa7a2115799921b550,2022-06-29_19h11.12.697,Colour_Asymmetry_Pilot,2022.1.3,Win32,60.04924038,62bbe60bf3d75ef465d3e404,,,,,,,,,,,,,,,,,,,,,,,,,,,,,,,,,,,,,,,,,,,,,,,,,,,,,,,,,,,,,,,,,,,,,,,,,,,,,,,,,,,,,,,,,,,,,,,,,,,,,,,,,,,,,,,,,,,,,,,,,,,,,,,,,,,,,,,,,,,,,,,,,,,,,,,,,,,,,,
0,19,19,39,1,,60fd3c9c198705ab72aa3b68,62bbfafa7a2115799921b550,2022-06-29_19h11.12.697,Colour_Asymmetry_Pilot,2022.1.3,Win32,60.04924038,62bbe60bf3d75ef465d3e404,,,,,,,,,,,,,,,,,,,,,,,,,,,,,,,,,,,,,,,,,,,,,,,,,,,,,,,,,,,,,,,,,,,,,,,,,,,,,,,,,,,,,,,,,,,,,,,,,,,,,,,,,,,,,,,,,,,,,,,,,,,,,,,,,,,,,,,,,,,,,,,,,,,,,,,,,,,,,,
0,20,20,55,1,,60fd3c9c198705ab72aa3b68,62bbfafa7a2115799921b550,2022-06-29_19h11.12.697,Colour_Asymmetry_Pilot,2022.1.3,Win32,60.04924038,62bbe60bf3d75ef465d3e404,,,,,,,,,,,,,,,,,,,,,,,,,,,,,,,,,,,,,,,,,,,,,,,,,,,,,,,,,,,,,,,,,,,,,,,,,,,,,,,,,,,,,,,,,,,,,,,,,,,,,,,,,,,,,,,,,,,,,,,,,,,,,,,,,,,,,,,,,,,,,,,,,,,,,,,,,,,,,,
0,21,21,33,1,,60fd3c9c198705ab72aa3b68,62bbfafa7a2115799921b550,2022-06-29_19h11.12.697,Colour_Asymmetry_Pilot,2022.1.3,Win32,60.04924038,62bbe60bf3d75ef465d3e404,,,,,,,,,,,,,,,,,,,,,,,,,,,,,,,,,,,,,,,,,,,,,,,,,,,,,,,,,,,,,,,,,,,,,,,,,,,,,,,,,,,,,,,,,,,,,,,,,,,,,,,,,,,,,,,,,,,,,,,,,,,,,,,,,,,,,,,,,,,,,,,,,,,,,,,,,,,,,,
0,22,22,61,1,,60fd3c9c198705ab72aa3b68,62bbfafa7a2115799921b550,2022-06-29_19h11.12.697,Colour_Asymmetry_Pilot,2022.1.3,Win32,60.04924038,62bbe60bf3d75ef465d3e404,,,,,,,,,,,,,,,,,,,,,,,,,,,,,,,,,,,,,,,,,,,,,,,,,,,,,,,,,,,,,,,,,,,,,,,,,,,,,,,,,,,,,,,,,,,,,,,,,,,,,,,,,,,,,,,,,,,,,,,,,,,,,,,,,,,,,,,,,,,,,,,,,,,,,,,,,,,,,,
0,23,23,77,1,,60fd3c9c198705ab72aa3b68,62bbfafa7a2115799921b550,2022-06-29_19h11.12.697,Colour_Asymmetry_Pilot,2022.1.3,Win32,60.04924038,62bbe60bf3d75ef465d3e404,,,,,,,,,,,,,,,,,,,,,,,,,,,,,,,,,,,,,,,,,,,,,,,,,,,,,,,,,,,,,,,,,,,,,,,,,,,,,,,,,,,,,,,,,,,,,,,,,,,,,,,,,,,,,,,,,,,,,,,,,,,,,,,,,,,,,,,,,,,,,,,,,,,,,,,,,,,,,,
0,24,24,8,1,,60fd3c9c198705ab72aa3b68,62bbfafa7a2115799921b550,2022-06-29_19h11.12.697,Colour_Asymmetry_Pilot,2022.1.3,Win32,60.04924038,62bbe60bf3d75ef465d3e404,,,,,,,,,,,,,,,,,,,,,,,,,,,,,,,,,,,,,,,,,,,,,,,,,,,,,,,,,,,,,,,,,,,,,,,,,,,,,,,,,,,,,,,,,,,,,,,,,,,,,,,,,,,,,,,,,,,,,,,,,,,,,,,,,,,,,,,,,,,,,,,,,,,,,,,,,,,,,,
0,25,25,7,1,,60fd3c9c198705ab72aa3b68,62bbfafa7a2115799921b550,2022-06-29_19h11.12.697,Colour_Asymmetry_Pilot,2022.1.3,Win32,60.04924038,62bbe60bf3d75ef465d3e404,,,,,,,,,,,,,,,,,,,,,,,,,,,,,,,,,,,,,,,,,,,,,,,,,,,,,,,,,,,,,,,,,,,,,,,,,,,,,,,,,,,,,,,,,,,,,,,,,,,,,,,,,,,,,,,,,,,,,,,,,,,,,,,,,,,,,,,,,,,,,,,,,,,,,,,,,,,,,,
0,26,26,21,1,,60fd3c9c198705ab72aa3b68,62bbfafa7a2115799921b550,2022-06-29_19h11.12.697,Colour_Asymmetry_Pilot,2022.1.3,Win32,60.04924038,62bbe60bf3d75ef465d3e404,,,,,,,,,,,,,,,,,,,,,,,,,,,,,,,,,,,,,,,,,,,,,,,,,,,,,,,,,,,,,,,,,,,,,,,,,,,,,,,,,,,,,,,,,,,,,,,,,,,,,,,,,,,,,,,,,,,,,,,,,,,,,,,,,,,,,,,,,,,,,,,,,,,,,,,,,,,,,,
0,27,27,54,1,,60fd3c9c198705ab72aa3b68,62bbfafa7a2115799921b550,2022-06-29_19h11.12.697,Colour_Asymmetry_Pilot,2022.1.3,Win32,60.04924038,62bbe60bf3d75ef465d3e404,,,,,,,,,,,,,,,,,,,,,,,,,,,,,,,,,,,,,,,,,,,,,,,,,,,,,,,,,,,,,,,,,,,,,,,,,,,,,,,,,,,,,,,,,,,,,,,,,,,,,,,,,,,,,,,,,,,,,,,,,,,,,,,,,,,,,,,,,,,,,,,,,,,,,,,,,,,,,,
0,28,28,30,1,,60fd3c9c198705ab72aa3b68,62bbfafa7a2115799921b550,2022-06-29_19h11.12.697,Colour_Asymmetry_Pilot,2022.1.3,Win32,60.04924038,62bbe60bf3d75ef465d3e404,,,,,,,,,,,,,,,,,,,,,,,,,,,,,,,,,,,,,,,,,,,,,,,,,,,,,,,,,,,,,,,,,,,,,,,,,,,,,,,,,,,,,,,,,,,,,,,,,,,,,,,,,,,,,,,,,,,,,,,,,,,,,,,,,,,,,,,,,,,,,,,,,,,,,,,,,,,,,,
0,29,29,13,1,,60fd3c9c198705ab72aa3b68,62bbfafa7a2115799921b550,2022-06-29_19h11.12.697,Colour_Asymmetry_Pilot,2022.1.3,Win32,60.04924038,62bbe60bf3d75ef465d3e404,,,,,,,,,,,,,,,,,,,,,,,,,,,,,,,,,,,,,,,,,,,,,,,,,,,,,,,,,,,,,,,,,,,,,,,,,,,,,,,,,,,,,,,,,,,,,,,,,,,,,,,,,,,,,,,,,,,,,,,,,,,,,,,,,,,,,,,,,,,,,,,,,,,,,,,,,,,,,,
0,30,30,44,1,,60fd3c9c198705ab72aa3b68,62bbfafa7a2115799921b550,2022-06-29_19h11.12.697,Colour_Asymmetry_Pilot,2022.1.3,Win32,60.04924038,62bbe60bf3d75ef465d3e404,,,,,,,,,,,,,,,,,,,,,,,,,,,,,,,,,,,,,,,,,,,,,,,,,,,,,,,,,,,,,,,,,,,,,,,,,,,,,,,,,,,,,,,,,,,,,,,,,,,,,,,,,,,,,,,,,,,,,,,,,,,,,,,,,,,,,,,,,,,,,,,,,,,,,,,,,,,,,,
0,31,31,53,1,,60fd3c9c198705ab72aa3b68,62bbfafa7a2115799921b550,2022-06-29_19h11.12.697,Colour_Asymmetry_Pilot,2022.1.3,Win32,60.04924038,62bbe60bf3d75ef465d3e404,,,,,,,,,,,,,,,,,,,,,,,,,,,,,,,,,,,,,,,,,,,,,,,,,,,,,,,,,,,,,,,,,,,,,,,,,,,,,,,,,,,,,,,,,,,,,,,,,,,,,,,,,,,,,,,,,,,,,,,,,,,,,,,,,,,,,,,,,,,,,,,,,,,,,,,,,,,,,,
0,32,32,28,1,,60fd3c9c198705ab72aa3b68,62bbfafa7a2115799921b550,2022-06-29_19h11.12.697,Colour_Asymmetry_Pilot,2022.1.3,Win32,60.04924038,62bbe60bf3d75ef465d3e404,,,,,,,,,,,,,,,,,,,,,,,,,,,,,,,,,,,,,,,,,,,,,,,,,,,,,,,,,,,,,,,,,,,,,,,,,,,,,,,,,,,,,,,,,,,,,,,,,,,,,,,,,,,,,,,,,,,,,,,,,,,,,,,,,,,,,,,,,,,,,,,,,,,,,,,,,,,,,,
0,33,33,81,1,,60fd3c9c198705ab72aa3b68,62bbfafa7a2115799921b550,2022-06-29_19h11.12.697,Colour_Asymmetry_Pilot,2022.1.3,Win32,60.04924038,62bbe60bf3d75ef465d3e404,,,,,,,,,,,,,,,,,,,,,,,,,,,,,,,,,,,,,,,,,,,,,,,,,,,,,,,,,,,,,,,,,,,,,,,,,,,,,,,,,,,,,,,,,,,,,,,,,,,,,,,,,,,,,,,,,,,,,,,,,,,,,,,,,,,,,,,,,,,,,,,,,,,,,,,,,,,,,,
0,34,34,9,1,,60fd3c9c198705ab72aa3b68,62bbfafa7a2115799921b550,2022-06-29_19h11.12.697,Colour_Asymmetry_Pilot,2022.1.3,Win32,60.04924038,62bbe60bf3d75ef465d3e404,,,,,,,,,,,,,,,,,,,,,,,,,,,,,,,,,,,,,,,,,,,,,,,,,,,,,,,,,,,,,,,,,,,,,,,,,,,,,,,,,,,,,,,,,,,,,,,,,,,,,,,,,,,,,,,,,,,,,,,,,,,,,,,,,,,,,,,,,,,,,,,,,,,,,,,,,,,,,,
0,35,35,70,1,,60fd3c9c198705ab72aa3b68,62bbfafa7a2115799921b550,2022-06-29_19h11.12.697,Colour_Asymmetry_Pilot,2022.1.3,Win32,60.04924038,62bbe60bf3d75ef465d3e404,,,,,,,,,,,,,,,,,,,,,,,,,,,,,,,,,,,,,,,,,,,,,,,,,,,,,,,,,,,,,,,,,,,,,,,,,,,,,,,,,,,,,,,,,,,,,,,,,,,,,,,,,,,,,,,,,,,,,,,,,,,,,,,,,,,,,,,,,,,,,,,,,,,,,,,,,,,,,,
0,36,36,46,1,,60fd3c9c198705ab72aa3b68,62bbfafa7a2115799921b550,2022-06-29_19h11.12.697,Colour_Asymmetry_Pilot,2022.1.3,Win32,60.04924038,62bbe60bf3d75ef465d3e404,,,,,,,,,,,,,,,,,,,,,,,,,,,,,,,,,,,,,,,,,,,,,,,,,,,,,,,,,,,,,,,,,,,,,,,,,,,,,,,,,,,,,,,,,,,,,,,,,,,,,,,,,,,,,,,,,,,,,,,,,,,,,,,,,,,,,,,,,,,,,,,,,,,,,,,,,,,,,,
0,37,37,1,1,,60fd3c9c198705ab72aa3b68,62bbfafa7a2115799921b550,2022-06-29_19h11.12.697,Colour_Asymmetry_Pilot,2022.1.3,Win32,60.04924038,62bbe60bf3d75ef465d3e404,,,,,,,,,,,,,,,,,,,,,,,,,,,,,,,,,,,,,,,,,,,,,,,,,,,,,,,,,,,,,,,,,,,,,,,,,,,,,,,,,,,,,,,,,,,,,,,,,,,,,,,,,,,,,,,,,,,,,,,,,,,,,,,,,,,,,,,,,,,,,,,,,,,,,,,,,,,,,,
0,38,38,76,1,,60fd3c9c198705ab72aa3b68,62bbfafa7a2115799921b550,2022-06-29_19h11.12.697,Colour_Asymmetry_Pilot,2022.1.3,Win32,60.04924038,62bbe60bf3d75ef465d3e404,,,,,,,,,,,,,,,,,,,,,,,,,,,,,,,,,,,,,,,,,,,,,,,,,,,,,,,,,,,,,,,,,,,,,,,,,,,,,,,,,,,,,,,,,,,,,,,,,,,,,,,,,,,,,,,,,,,,,,,,,,,,,,,,,,,,,,,,,,,,,,,,,,,,,,,,,,,,,,
0,39,39,65,1,,60fd3c9c198705ab72aa3b68,62bbfafa7a2115799921b550,2022-06-29_19h11.12.697,Colour_Asymmetry_Pilot,2022.1.3,Win32,60.04924038,62bbe60bf3d75ef465d3e404,,,,,,,,,,,,,,,,,,,,,,,,,,,,,,,,,,,,,,,,,,,,,,,,,,,,,,,,,,,,,,,,,,,,,,,,,,,,,,,,,,,,,,,,,,,,,,,,,,,,,,,,,,,,,,,,,,,,,,,,,,,,,,,,,,,,,,,,,,,,,,,,,,,,,,,,,,,,,,
0,40,40,51,1,,60fd3c9c198705ab72aa3b68,62bbfafa7a2115799921b550,2022-06-29_19h11.12.697,Colour_Asymmetry_Pilot,2022.1.3,Win32,60.04924038,62bbe60bf3d75ef465d3e404,,,,,,,,,,,,,,,,,,,,,,,,,,,,,,,,,,,,,,,,,,,,,,,,,,,,,,,,,,,,,,,,,,,,,,,,,,,,,,,,,,,,,,,,,,,,,,,,,,,,,,,,,,,,,,,,,,,,,,,,,,,,,,,,,,,,,,,,,,,,,,,,,,,,,,,,,,,,,,
0,41,41,10,1,,60fd3c9c198705ab72aa3b68,62bbfafa7a2115799921b550,2022-06-29_19h11.12.697,Colour_Asymmetry_Pilot,2022.1.3,Win32,60.04924038,62bbe60bf3d75ef465d3e404,,,,,,,,,,,,,,,,,,,,,,,,,,,,,,,,,,,,,,,,,,,,,,,,,,,,,,,,,,,,,,,,,,,,,,,,,,,,,,,,,,,,,,,,,,,,,,,,,,,,,,,,,,,,,,,,,,,,,,,,,,,,,,,,,,,,,,,,,,,,,,,,,,,,,,,,,,,,,,
0,42,42,75,1,,60fd3c9c198705ab72aa3b68,62bbfafa7a2115799921b550,2022-06-29_19h11.12.697,Colour_Asymmetry_Pilot,2022.1.3,Win32,60.04924038,62bbe60bf3d75ef465d3e404,,,,,,,,,,,,,,,,,,,,,,,,,,,,,,,,,,,,,,,,,,,,,,,,,,,,,,,,,,,,,,,,,,,,,,,,,,,,,,,,,,,,,,,,,,,,,,,,,,,,,,,,,,,,,,,,,,,,,,,,,,,,,,,,,,,,,,,,,,,,,,,,,,,,,,,,,,,,,,
0,43,43,26,1,,60fd3c9c198705ab72aa3b68,62bbfafa7a2115799921b550,2022-06-29_19h11.12.697,Colour_Asymmetry_Pilot,2022.1.3,Win32,60.04924038,62bbe60bf3d75ef465d3e404,,,,,,,,,,,,,,,,,,,,,,,,,,,,,,,,,,,,,,,,,,,,,,,,,,,,,,,,,,,,,,,,,,,,,,,,,,,,,,,,,,,,,,,,,,,,,,,,,,,,,,,,,,,,,,,,,,,,,,,,,,,,,,,,,,,,,,,,,,,,,,,,,,,,,,,,,,,,,,
0,44,44,83,1,,60fd3c9c198705ab72aa3b68,62bbfafa7a2115799921b550,2022-06-29_19h11.12.697,Colour_Asymmetry_Pilot,2022.1.3,Win32,60.04924038,62bbe60bf3d75ef465d3e404,,,,,,,,,,,,,,,,,,,,,,,,,,,,,,,,,,,,,,,,,,,,,,,,,,,,,,,,,,,,,,,,,,,,,,,,,,,,,,,,,,,,,,,,,,,,,,,,,,,,,,,,,,,,,,,,,,,,,,,,,,,,,,,,,,,,,,,,,,,,,,,,,,,,,,,,,,,,,,
0,45,45,6,1,,60fd3c9c198705ab72aa3b68,62bbfafa7a2115799921b550,2022-06-29_19h11.12.697,Colour_Asymmetry_Pilot,2022.1.3,Win32,60.04924038,62bbe60bf3d75ef465d3e404,,,,,,,,,,,,,,,,,,,,,,,,,,,,,,,,,,,,,,,,,,,,,,,,,,,,,,,,,,,,,,,,,,,,,,,,,,,,,,,,,,,,,,,,,,,,,,,,,,,,,,,,,,,,,,,,,,,,,,,,,,,,,,,,,,,,,,,,,,,,,,,,,,,,,,,,,,,,,,
0,46,46,67,1,,60fd3c9c198705ab72aa3b68,62bbfafa7a2115799921b550,2022-06-29_19h11.12.697,Colour_Asymmetry_Pilot,2022.1.3,Win32,60.04924038,62bbe60bf3d75ef465d3e404,,,,,,,,,,,,,,,,,,,,,,,,,,,,,,,,,,,,,,,,,,,,,,,,,,,,,,,,,,,,,,,,,,,,,,,,,,,,,,,,,,,,,,,,,,,,,,,,,,,,,,,,,,,,,,,,,,,,,,,,,,,,,,,,,,,,,,,,,,,,,,,,,,,,,,,,,,,,,,
0,47,47,48,1,,60fd3c9c198705ab72aa3b68,62bbfafa7a2115799921b550,2022-06-29_19h11.12.697,Colour_Asymmetry_Pilot,2022.1.3,Win32,60.04924038,62bbe60bf3d75ef465d3e404,,,,,,,,,,,,,,,,,,,,,,,,,,,,,,,,,,,,,,,,,,,,,,,,,,,,,,,,,,,,,,,,,,,,,,,,,,,,,,,,,,,,,,,,,,,,,,,,,,,,,,,,,,,,,,,,,,,,,,,,,,,,,,,,,,,,,,,,,,,,,,,,,,,,,,,,,,,,,,
0,48,48,91,1,,60fd3c9c198705ab72aa3b68,62bbfafa7a2115799921b550,2022-06-29_19h11.12.697,Colour_Asymmetry_Pilot,2022.1.3,Win32,60.04924038,62bbe60bf3d75ef465d3e404,,,,,,,,,,,,,,,,,,,,,,,,,,,,,,,,,,,,,,,,,,,,,,,,,,,,,,,,,,,,,,,,,,,,,,,,,,,,,,,,,,,,,,,,,,,,,,,,,,,,,,,,,,,,,,,,,,,,,,,,,,,,,,,,,,,,,,,,,,,,,,,,,,,,,,,,,,,,,,
0,49,49,22,1,,60fd3c9c198705ab72aa3b68,62bbfafa7a2115799921b550,2022-06-29_19h11.12.697,Colour_Asymmetry_Pilot,2022.1.3,Win32,60.04924038,62bbe60bf3d75ef465d3e404,,,,,,,,,,,,,,,,,,,,,,,,,,,,,,,,,,,,,,,,,,,,,,,,,,,,,,,,,,,,,,,,,,,,,,,,,,,,,,,,,,,,,,,,,,,,,,,,,,,,,,,,,,,,,,,,,,,,,,,,,,,,,,,,,,,,,,,,,,,,,,,,,,,,,,,,,,,,,,
0,50,50,25,1,,60fd3c9c198705ab72aa3b68,62bbfafa7a2115799921b550,2022-06-29_19h11.12.697,Colour_Asymmetry_Pilot,2022.1.3,Win32,60.04924038,62bbe60bf3d75ef465d3e404,,,,,,,,,,,,,,,,,,,,,,,,,,,,,,,,,,,,,,,,,,,,,,,,,,,,,,,,,,,,,,,,,,,,,,,,,,,,,,,,,,,,,,,,,,,,,,,,,,,,,,,,,,,,,,,,,,,,,,,,,,,,,,,,,,,,,,,,,,,,,,,,,,,,,,,,,,,,,,
0,51,51,49,1,,60fd3c9c198705ab72aa3b68,62bbfafa7a2115799921b550,2022-06-29_19h11.12.697,Colour_Asymmetry_Pilot,2022.1.3,Win32,60.04924038,62bbe60bf3d75ef465d3e404,,,,,,,,,,,,,,,,,,,,,,,,,,,,,,,,,,,,,,,,,,,,,,,,,,,,,,,,,,,,,,,,,,,,,,,,,,,,,,,,,,,,,,,,,,,,,,,,,,,,,,,,,,,,,,,,,,,,,,,,,,,,,,,,,,,,,,,,,,,,,,,,,,,,,,,,,,,,,,
0,52,52,73,1,,60fd3c9c198705ab72aa3b68,62bbfafa7a2115799921b550,2022-06-29_19h11.12.697,Colour_Asymmetry_Pilot,2022.1.3,Win32,60.04924038,62bbe60bf3d75ef465d3e404,,,,,,,,,,,,,,,,,,,,,,,,,,,,,,,,,,,,,,,,,,,,,,,,,,,,,,,,,,,,,,,,,,,,,,,,,,,,,,,,,,,,,,,,,,,,,,,,,,,,,,,,,,,,,,,,,,,,,,,,,,,,,,,,,,,,,,,,,,,,,,,,,,,,,,,,,,,,,,
0,53,53,31,1,,60fd3c9c198705ab72aa3b68,62bbfafa7a2115799921b550,2022-06-29_19h11.12.697,Colour_Asymmetry_Pilot,2022.1.3,Win32,60.04924038,62bbe60bf3d75ef465d3e404,,,,,,,,,,,,,,,,,,,,,,,,,,,,,,,,,,,,,,,,,,,,,,,,,,,,,,,,,,,,,,,,,,,,,,,,,,,,,,,,,,,,,,,,,,,,,,,,,,,,,,,,,,,,,,,,,,,,,,,,,,,,,,,,,,,,,,,,,,,,,,,,,,,,,,,,,,,,,,
0,54,54,14,1,,60fd3c9c198705ab72aa3b68,62bbfafa7a2115799921b550,2022-06-29_19h11.12.697,Colour_Asymmetry_Pilot,2022.1.3,Win32,60.04924038,62bbe60bf3d75ef465d3e404,,,,,,,,,,,,,,,,,,,,,,,,,,,,,,,,,,,,,,,,,,,,,,,,,,,,,,,,,,,,,,,,,,,,,,,,,,,,,,,,,,,,,,,,,,,,,,,,,,,,,,,,,,,,,,,,,,,,,,,,,,,,,,,,,,,,,,,,,,,,,,,,,,,,,,,,,,,,,,
0,55,55,29,1,,60fd3c9c198705ab72aa3b68,62bbfafa7a2115799921b550,2022-06-29_19h11.12.697,Colour_Asymmetry_Pilot,2022.1.3,Win32,60.04924038,62bbe60bf3d75ef465d3e404,,,,,,,,,,,,,,,,,,,,,,,,,,,,,,,,,,,,,,,,,,,,,,,,,,,,,,,,,,,,,,,,,,,,,,,,,,,,,,,,,,,,,,,,,,,,,,,,,,,,,,,,,,,,,,,,,,,,,,,,,,,,,,,,,,,,,,,,,,,,,,,,,,,,,,,,,,,,,,
0,56,56,17,1,,60fd3c9c198705ab72aa3b68,62bbfafa7a2115799921b550,2022-06-29_19h11.12.697,Colour_Asymmetry_Pilot,2022.1.3,Win32,60.04924038,62bbe60bf3d75ef465d3e404,,,,,,,,,,,,,,,,,,,,,,,,,,,,,,,,,,,,,,,,,,,,,,,,,,,,,,,,,,,,,,,,,,,,,,,,,,,,,,,,,,,,,,,,,,,,,,,,,,,,,,,,,,,,,,,,,,,,,,,,,,,,,,,,,,,,,,,,,,,,,,,,,,,,,,,,,,,,,,
0,57,57,19,1,,60fd3c9c198705ab72aa3b68,62bbfafa7a2115799921b550,2022-06-29_19h11.12.697,Colour_Asymmetry_Pilot,2022.1.3,Win32,60.04924038,62bbe60bf3d75ef465d3e404,,,,,,,,,,,,,,,,,,,,,,,,,,,,,,,,,,,,,,,,,,,,,,,,,,,,,,,,,,,,,,,,,,,,,,,,,,,,,,,,,,,,,,,,,,,,,,,,,,,,,,,,,,,,,,,,,,,,,,,,,,,,,,,,,,,,,,,,,,,,,,,,,,,,,,,,,,,,,,
0,58,58,34,1,,60fd3c9c198705ab72aa3b68,62bbfafa7a2115799921b550,2022-06-29_19h11.12.697,Colour_Asymmetry_Pilot,2022.1.3,Win32,60.04924038,62bbe60bf3d75ef465d3e404,,,,,,,,,,,,,,,,,,,,,,,,,,,,,,,,,,,,,,,,,,,,,,,,,,,,,,,,,,,,,,,,,,,,,,,,,,,,,,,,,,,,,,,,,,,,,,,,,,,,,,,,,,,,,,,,,,,,,,,,,,,,,,,,,,,,,,,,,,,,,,,,,,,,,,,,,,,,,,
0,59,59,0,1,,60fd3c9c198705ab72aa3b68,62bbfafa7a2115799921b550,2022-06-29_19h11.12.697,Colour_Asymmetry_Pilot,2022.1.3,Win32,60.04924038,62bbe60bf3d75ef465d3e404,,,,,,,,,,,,,,,,,,,,,,,,,,,,,,,,,,,,,,,,,,,,,,,,,,,,,,,,,,,,,,,,,,,,,,,,,,,,,,,,,,,,,,,,,,,,,,,,,,,,,,,,,,,,,,,,,,,,,,,,,,,,,,,,,,,,,,,,,,,,,,,,,,,,,,,,,,,,,,
0,60,60,15,1,,60fd3c9c198705ab72aa3b68,62bbfafa7a2115799921b550,2022-06-29_19h11.12.697,Colour_Asymmetry_Pilot,2022.1.3,Win32,60.04924038,62bbe60bf3d75ef465d3e404,,,,,,,,,,,,,,,,,,,,,,,,,,,,,,,,,,,,,,,,,,,,,,,,,,,,,,,,,,,,,,,,,,,,,,,,,,,,,,,,,,,,,,,,,,,,,,,,,,,,,,,,,,,,,,,,,,,,,,,,,,,,,,,,,,,,,,,,,,,,,,,,,,,,,,,,,,,,,,
0,61,61,80,1,,60fd3c9c198705ab72aa3b68,62bbfafa7a2115799921b550,2022-06-29_19h11.12.697,Colour_Asymmetry_Pilot,2022.1.3,Win32,60.04924038,62bbe60bf3d75ef465d3e404,,,,,,,,,,,,,,,,,,,,,,,,,,,,,,,,,,,,,,,,,,,,,,,,,,,,,,,,,,,,,,,,,,,,,,,,,,,,,,,,,,,,,,,,,,,,,,,,,,,,,,,,,,,,,,,,,,,,,,,,,,,,,,,,,,,,,,,,,,,,,,,,,,,,,,,,,,,,,,
0,62,62,79,1,,60fd3c9c198705ab72aa3b68,62bbfafa7a2115799921b550,2022-06-29_19h11.12.697,Colour_Asymmetry_Pilot,2022.1.3,Win32,60.04924038,62bbe60bf3d75ef465d3e404,,,,,,,,,,,,,,,,,,,,,,,,,,,,,,,,,,,,,,,,,,,,,,,,,,,,,,,,,,,,,,,,,,,,,,,,,,,,,,,,,,,,,,,,,,,,,,,,,,,,,,,,,,,,,,,,,,,,,,,,,,,,,,,,,,,,,,,,,,,,,,,,,,,,,,,,,,,,,,
0,63,63,89,1,,60fd3c9c198705ab72aa3b68,62bbfafa7a2115799921b550,2022-06-29_19h11.12.697,Colour_Asymmetry_Pilot,2022.1.3,Win32,60.04924038,62bbe60bf3d75ef465d3e404,,,,,,,,,,,,,,,,,,,,,,,,,,,,,,,,,,,,,,,,,,,,,,,,,,,,,,,,,,,,,,,,,,,,,,,,,,,,,,,,,,,,,,,,,,,,,,,,,,,,,,,,,,,,,,,,,,,,,,,,,,,,,,,,,,,,,,,,,,,,,,,,,,,,,,,,,,,,,,
0,64,64,58,1,,60fd3c9c198705ab72aa3b68,62bbfafa7a2115799921b550,2022-06-29_19h11.12.697,Colour_Asymmetry_Pilot,2022.1.3,Win32,60.04924038,62bbe60bf3d75ef465d3e404,,,,,,,,,,,,,,,,,,,,,,,,,,,,,,,,,,,,,,,,,,,,,,,,,,,,,,,,,,,,,,,,,,,,,,,,,,,,,,,,,,,,,,,,,,,,,,,,,,,,,,,,,,,,,,,,,,,,,,,,,,,,,,,,,,,,,,,,,,,,,,,,,,,,,,,,,,,,,,
0,65,65,86,1,,60fd3c9c198705ab72aa3b68,62bbfafa7a2115799921b550,2022-06-29_19h11.12.697,Colour_Asymmetry_Pilot,2022.1.3,Win32,60.04924038,62bbe60bf3d75ef465d3e404,,,,,,,,,,,,,,,,,,,,,,,,,,,,,,,,,,,,,,,,,,,,,,,,,,,,,,,,,,,,,,,,,,,,,,,,,,,,,,,,,,,,,,,,,,,,,,,,,,,,,,,,,,,,,,,,,,,,,,,,,,,,,,,,,,,,,,,,,,,,,,,,,,,,,,,,,,,,,,
0,66,66,62,1,,60fd3c9c198705ab72aa3b68,62bbfafa7a2115799921b550,2022-06-29_19h11.12.697,Colour_Asymmetry_Pilot,2022.1.3,Win32,60.04924038,62bbe60bf3d75ef465d3e404,,,,,,,,,,,,,,,,,,,,,,,,,,,,,,,,,,,,,,,,,,,,,,,,,,,,,,,,,,,,,,,,,,,,,,,,,,,,,,,,,,,,,,,,,,,,,,,,,,,,,,,,,,,,,,,,,,,,,,,,,,,,,,,,,,,,,,,,,,,,,,,,,,,,,,,,,,,,,,
0,67,67,78,1,,60fd3c9c198705ab72aa3b68,62bbfafa7a2115799921b550,2022-06-29_19h11.12.697,Colour_Asymmetry_Pilot,2022.1.3,Win32,60.04924038,62bbe60bf3d75ef465d3e404,,,,,,,,,,,,,,,,,,,,,,,,,,,,,,,,,,,,,,,,,,,,,,,,,,,,,,,,,,,,,,,,,,,,,,,,,,,,,,,,,,,,,,,,,,,,,,,,,,,,,,,,,,,,,,,,,,,,,,,,,,,,,,,,,,,,,,,,,,,,,,,,,,,,,,,,,,,,,,
0,68,68,18,1,,60fd3c9c198705ab72aa3b68,62bbfafa7a2115799921b550,2022-06-29_19h11.12.697,Colour_Asymmetry_Pilot,2022.1.3,Win32,60.04924038,62bbe60bf3d75ef465d3e404,,,,,,,,,,,,,,,,,,,,,,,,,,,,,,,,,,,,,,,,,,,,,,,,,,,,,,,,,,,,,,,,,,,,,,,,,,,,,,,,,,,,,,,,,,,,,,,,,,,,,,,,,,,,,,,,,,,,,,,,,,,,,,,,,,,,,,,,,,,,,,,,,,,,,,,,,,,,,,
0,69,69,68,1,,60fd3c9c198705ab72aa3b68,62bbfafa7a2115799921b550,2022-06-29_19h11.12.697,Colour_Asymmetry_Pilot,2022.1.3,Win32,60.04924038,62bbe60bf3d75ef465d3e404,,,,,,,,,,,,,,,,,,,,,,,,,,,,,,,,,,,,,,,,,,,,,,,,,,,,,,,,,,,,,,,,,,,,,,,,,,,,,,,,,,,,,,,,,,,,,,,,,,,,,,,,,,,,,,,,,,,,,,,,,,,,,,,,,,,,,,,,,,,,,,,,,,,,,,,,,,,,,,
0,70,70,20,1,,60fd3c9c198705ab72aa3b68,62bbfafa7a2115799921b550,2022-06-29_19h11.12.697,Colour_Asymmetry_Pilot,2022.1.3,Win32,60.04924038,62bbe60bf3d75ef465d3e404,,,,,,,,,,,,,,,,,,,,,,,,,,,,,,,,,,,,,,,,,,,,,,,,,,,,,,,,,,,,,,,,,,,,,,,,,,,,,,,,,,,,,,,,,,,,,,,,,,,,,,,,,,,,,,,,,,,,,,,,,,,,,,,,,,,,,,,,,,,,,,,,,,,,,,,,,,,,,,
0,71,71,37,1,,60fd3c9c198705ab72aa3b68,62bbfafa7a2115799921b550,2022-06-29_19h11.12.697,Colour_Asymmetry_Pilot,2022.1.3,Win32,60.04924038,62bbe60bf3d75ef465d3e404,,,,,,,,,,,,,,,,,,,,,,,,,,,,,,,,,,,,,,,,,,,,,,,,,,,,,,,,,,,,,,,,,,,,,,,,,,,,,,,,,,,,,,,,,,,,,,,,,,,,,,,,,,,,,,,,,,,,,,,,,,,,,,,,,,,,,,,,,,,,,,,,,,,,,,,,,,,,,,
0,72,72,4,1,,60fd3c9c198705ab72aa3b68,62bbfafa7a2115799921b550,2022-06-29_19h11.12.697,Colour_Asymmetry_Pilot,2022.1.3,Win32,60.04924038,62bbe60bf3d75ef465d3e404,,,,,,,,,,,,,,,,,,,,,,,,,,,,,,,,,,,,,,,,,,,,,,,,,,,,,,,,,,,,,,,,,,,,,,,,,,,,,,,,,,,,,,,,,,,,,,,,,,,,,,,,,,,,,,,,,,,,,,,,,,,,,,,,,,,,,,,,,,,,,,,,,,,,,,,,,,,,,,
0,73,73,57,1,,60fd3c9c198705ab72aa3b68,62bbfafa7a2115799921b550,2022-06-29_19h11.12.697,Colour_Asymmetry_Pilot,2022.1.3,Win32,60.04924038,62bbe60bf3d75ef465d3e404,,,,,,,,,,,,,,,,,,,,,,,,,,,,,,,,,,,,,,,,,,,,,,,,,,,,,,,,,,,,,,,,,,,,,,,,,,,,,,,,,,,,,,,,,,,,,,,,,,,,,,,,,,,,,,,,,,,,,,,,,,,,,,,,,,,,,,,,,,,,,,,,,,,,,,,,,,,,,,
0,74,74,56,1,,60fd3c9c198705ab72aa3b68,62bbfafa7a2115799921b550,2022-06-29_19h11.12.697,Colour_Asymmetry_Pilot,2022.1.3,Win32,60.04924038,62bbe60bf3d75ef465d3e404,,,,,,,,,,,,,,,,,,,,,,,,,,,,,,,,,,,,,,,,,,,,,,,,,,,,,,,,,,,,,,,,,,,,,,,,,,,,,,,,,,,,,,,,,,,,,,,,,,,,,,,,,,,,,,,,,,,,,,,,,,,,,,,,,,,,,,,,,,,,,,,,,,,,,,,,,,,,,,
0,75,75,90,1,,60fd3c9c198705ab72aa3b68,62bbfafa7a2115799921b550,2022-06-29_19h11.12.697,Colour_Asymmetry_Pilot,2022.1.3,Win32,60.04924038,62bbe60bf3d75ef465d3e404,,,,,,,,,,,,,,,,,,,,,,,,,,,,,,,,,,,,,,,,,,,,,,,,,,,,,,,,,,,,,,,,,,,,,,,,,,,,,,,,,,,,,,,,,,,,,,,,,,,,,,,,,,,,,,,,,,,,,,,,,,,,,,,,,,,,,,,,,,,,,,,,,,,,,,,,,,,,,,
0,76,76,23,1,,60fd3c9c198705ab72aa3b68,62bbfafa7a2115799921b550,2022-06-29_19h11.12.697,Colour_Asymmetry_Pilot,2022.1.3,Win32,60.04924038,62bbe60bf3d75ef465d3e404,,,,,,,,,,,,,,,,,,,,,,,,,,,,,,,,,,,,,,,,,,,,,,,,,,,,,,,,,,,,,,,,,,,,,,,,,,,,,,,,,,,,,,,,,,,,,,,,,,,,,,,,,,,,,,,,,,,,,,,,,,,,,,,,,,,,,,,,,,,,,,,,,,,,,,,,,,,,,,
0,77,77,38,1,,60fd3c9c198705ab72aa3b68,62bbfafa7a2115799921b550,2022-06-29_19h11.12.697,Colour_Asymmetry_Pilot,2022.1.3,Win32,60.04924038,62bbe60bf3d75ef465d3e404,,,,,,,,,,,,,,,,,,,,,,,,,,,,,,,,,,,,,,,,,,,,,,,,,,,,,,,,,,,,,,,,,,,,,,,,,,,,,,,,,,,,,,,,,,,,,,,,,,,,,,,,,,,,,,,,,,,,,,,,,,,,,,,,,,,,,,,,,,,,,,,,,,,,,,,,,,,,,,
0,78,78,41,1,,60fd3c9c198705ab72aa3b68,62bbfafa7a2115799921b550,2022-06-29_19h11.12.697,Colour_Asymmetry_Pilot,2022.1.3,Win32,60.04924038,62bbe60bf3d75ef465d3e404,,,,,,,,,,,,,,,,,,,,,,,,,,,,,,,,,,,,,,,,,,,,,,,,,,,,,,,,,,,,,,,,,,,,,,,,,,,,,,,,,,,,,,,,,,,,,,,,,,,,,,,,,,,,,,,,,,,,,,,,,,,,,,,,,,,,,,,,,,,,,,,,,,,,,,,,,,,,,,
0,79,79,59,1,,60fd3c9c198705ab72aa3b68,62bbfafa7a2115799921b550,2022-06-29_19h11.12.697,Colour_Asymmetry_Pilot,2022.1.3,Win32,60.04924038,62bbe60bf3d75ef465d3e404,,,,,,,,,,,,,,,,,,,,,,,,,,,,,,,,,,,,,,,,,,,,,,,,,,,,,,,,,,,,,,,,,,,,,,,,,,,,,,,,,,,,,,,,,,,,,,,,,,,,,,,,,,,,,,,,,,,,,,,,,,,,,,,,,,,,,,,,,,,,,,,,,,,,,,,,,,,,,,
0,80,80,72,1,,60fd3c9c198705ab72aa3b68,62bbfafa7a2115799921b550,2022-06-29_19h11.12.697,Colour_Asymmetry_Pilot,2022.1.3,Win32,60.04924038,62bbe60bf3d75ef465d3e404,,,,,,,,,,,,,,,,,,,,,,,,,,,,,,,,,,,,,,,,,,,,,,,,,,,,,,,,,,,,,,,,,,,,,,,,,,,,,,,,,,,,,,,,,,,,,,,,,,,,,,,,,,,,,,,,,,,,,,,,,,,,,,,,,,,,,,,,,,,,,,,,,,,,,,,,,,,,,,
0,81,81,71,1,,60fd3c9c198705ab72aa3b68,62bbfafa7a2115799921b550,2022-06-29_19h11.12.697,Colour_Asymmetry_Pilot,2022.1.3,Win32,60.04924038,62bbe60bf3d75ef465d3e404,,,,,,,,,,,,,,,,,,,,,,,,,,,,,,,,,,,,,,,,,,,,,,,,,,,,,,,,,,,,,,,,,,,,,,,,,,,,,,,,,,,,,,,,,,,,,,,,,,,,,,,,,,,,,,,,,,,,,,,,,,,,,,,,,,,,,,,,,,,,,,,,,,,,,,,,,,,,,,
0,82,82,66,1,,60fd3c9c198705ab72aa3b68,62bbfafa7a2115799921b550,2022-06-29_19h11.12.697,Colour_Asymmetry_Pilot,2022.1.3,Win32,60.04924038,62bbe60bf3d75ef465d3e404,,,,,,,,,,,,,,,,,,,,,,,,,,,,,,,,,,,,,,,,,,,,,,,,,,,,,,,,,,,,,,,,,,,,,,,,,,,,,,,,,,,,,,,,,,,,,,,,,,,,,,,,,,,,,,,,,,,,,,,,,,,,,,,,,,,,,,,,,,,,,,,,,,,,,,,,,,,,,,
0,83,83,42,1,,60fd3c9c198705ab72aa3b68,62bbfafa7a2115799921b550,2022-06-29_19h11.12.697,Colour_Asymmetry_Pilot,2022.1.3,Win32,60.04924038,62bbe60bf3d75ef465d3e404,,,,,,,,,,,,,,,,,,,,,,,,,,,,,,,,,,,,,,,,,,,,,,,,,,,,,,,,,,,,,,,,,,,,,,,,,,,,,,,,,,,,,,,,,,,,,,,,,,,,,,,,,,,,,,,,,,,,,,,,,,,,,,,,,,,,,,,,,,,,,,,,,,,,,,,,,,,,,,
0,84,84,40,1,,60fd3c9c198705ab72aa3b68,62bbfafa7a2115799921b550,2022-06-29_19h11.12.697,Colour_Asymmetry_Pilot,2022.1.3,Win32,60.04924038,62bbe60bf3d75ef465d3e404,,,,,,,,,,,,,,,,,,,,,,,,,,,,,,,,,,,,,,,,,,,,,,,,,,,,,,,,,,,,,,,,,,,,,,,,,,,,,,,,,,,,,,,,,,,,,,,,,,,,,,,,,,,,,,,,,,,,,,,,,,,,,,,,,,,,,,,,,,,,,,,,,,,,,,,,,,,,,,
0,85,85,64,1,,60fd3c9c198705ab72aa3b68,62bbfafa7a2115799921b550,2022-06-29_19h11.12.697,Colour_Asymmetry_Pilot,2022.1.3,Win32,60.04924038,62bbe60bf3d75ef465d3e404,,,,,,,,,,,,,,,,,,,,,,,,,,,,,,,,,,,,,,,,,,,,,,,,,,,,,,,,,,,,,,,,,,,,,,,,,,,,,,,,,,,,,,,,,,,,,,,,,,,,,,,,,,,,,,,,,,,,,,,,,,,,,,,,,,,,,,,,,,,,,,,,,,,,,,,,,,,,,,
0,86,86,36,1,,60fd3c9c198705ab72aa3b68,62bbfafa7a2115799921b550,2022-06-29_19h11.12.697,Colour_Asymmetry_Pilot,2022.1.3,Win32,60.04924038,62bbe60bf3d75ef465d3e404,,,,,,,,,,,,,,,,,,,,,,,,,,,,,,,,,,,,,,,,,,,,,,,,,,,,,,,,,,,,,,,,,,,,,,,,,,,,,,,,,,,,,,,,,,,,,,,,,,,,,,,,,,,,,,,,,,,,,,,,,,,,,,,,,,,,,,,,,,,,,,,,,,,,,,,,,,,,,,
0,87,87,32,1,,60fd3c9c198705ab72aa3b68,62bbfafa7a2115799921b550,2022-06-29_19h11.12.697,Colour_Asymmetry_Pilot,2022.1.3,Win32,60.04924038,62bbe60bf3d75ef465d3e404,,,,,,,,,,,,,,,,,,,,,,,,,,,,,,,,,,,,,,,,,,,,,,,,,,,,,,,,,,,,,,,,,,,,,,,,,,,,,,,,,,,,,,,,,,,,,,,,,,,,,,,,,,,,,,,,,,,,,,,,,,,,,,,,,,,,,,,,,,,,,,,,,,,,,,,,,,,,,,
0,88,88,12,1,,60fd3c9c198705ab72aa3b68,62bbfafa7a2115799921b550,2022-06-29_19h11.12.697,Colour_Asymmetry_Pilot,2022.1.3,Win32,60.04924038,62bbe60bf3d75ef465d3e404,,,,,,,,,,,,,,,,,,,,,,,,,,,,,,,,,,,,,,,,,,,,,,,,,,,,,,,,,,,,,,,,,,,,,,,,,,,,,,,,,,,,,,,,,,,,,,,,,,,,,,,,,,,,,,,,,,,,,,,,,,,,,,,,,,,,,,,,,,,,,,,,,,,,,,,,,,,,,,
0,89,89,69,1,,60fd3c9c198705ab72aa3b68,62bbfafa7a2115799921b550,2022-06-29_19h11.12.697,Colour_Asymmetry_Pilot,2022.1.3,Win32,60.04924038,62bbe60bf3d75ef465d3e404,,,,,,,,,,,,,,,,,,,,,,,,,,,,,,,,,,,,,,,,,,,,,,,,,,,,,,,,,,,,,,,,,,,,,,,,,,,,,,,,,,,,,,,,,,,,,,,,,,,,,,,,,,,,,,,,,,,,,,,,,,,,,,,,,,,,,,,,,,,,,,,,,,,,,,,,,,,,,,
0,90,90,27,1,,60fd3c9c198705ab72aa3b68,62bbfafa7a2115799921b550,2022-06-29_19h11.12.697,Colour_Asymmetry_Pilot,2022.1.3,Win32,60.04924038,62bbe60bf3d75ef465d3e404,,,,,,,,,,,,,,,,,,,,,,,,,,,,,,,,,,,,,,,,,,,,,,,,,,,,,,,,,,,,,,,,,,,,,,,,,,,,,,,,,,,,,,,,,,,,,,,,,,,,,,,,,,,,,,,,,,,,,,,,,,,,,,,,,,,,,,,,,,,,,,,,,,,,,,,,,,,,,,
0,91,91,60,1,,60fd3c9c198705ab72aa3b68,62bbfafa7a2115799921b550,2022-06-29_19h11.12.697,Colour_Asymmetry_Pilot,2022.1.3,Win32,60.04924038,62bbe60bf3d75ef465d3e404,,,,,,,,,,,,,,,,,,,,,,,,,,,,,,,,,,,,,,,,,,,,,,,,,,,,,,,,,,,,,,,,,,,,,,,,,,,,,,,,,,,,,,,,,,,,,,,,,,,,,,,,,,,,,,,,,,,,,,,,,,,,,,,,,,,,,,,,,,,,,,,,,,,,,,,,,,,,,,
0,92,92,52,1,,60fd3c9c198705ab72aa3b68,62bbfafa7a2115799921b550,2022-06-29_19h11.12.697,Colour_Asymmetry_Pilot,2022.1.3,Win32,60.04924038,62bbe60bf3d75ef465d3e404,,,,,,,,,,,,,,,,,,,,,,,,,,,,,,,,,,,,,,,,,,,,,,,,,,,,,,,,,,,,,,,,,,,,,,,,,,,,,,,,,,,,,,,,,,,,,,,,,,,,,,,,,,,,,,,,,,,,,,,,,,,,,,,,,,,,,,,,,,,,,,,,,,,,,,,,,,,,,,
,,,,,,60fd3c9c198705ab72aa3b68,62bbfafa7a2115799921b550,2022-06-29_19h11.12.697,Colour_Asymmetry_Pilot,2022.1.3,Win32,60.04924038,62bbe60bf3d75ef465d3e404,0,0,0,130,1,twoone,,,,,,,,,,,,,,,,,,,,,,,,,,,,,,,,,,,,,,,,,,,,,,,,,,,,,,,,,,,,,,,,,,,,,,,,,,,,,,,,,,,,,,,,,,,,,,,,,,,,,,,,,,,,,,,,,,,,,,,,,,,,,,,,,,,,,,,,,,,,,,,,,,,,,,,,
,,,,,,60fd3c9c198705ab72aa3b68,62bbfafa7a2115799921b550,2022-06-29_19h11.12.697,Colour_Asymmetry_Pilot,2022.1.3,Win32,60.04924038,62bbe60bf3d75ef465d3e404,0,1,1,155,1,twofour,,,,,,,,,,,,,,,,,,,,,,,,,,,,,,,,,,,,,,,,,,,,,,,,,,,,,,,,,,,,,,,,,,,,,,,,,,,,,,,,,,,,,,,,,,,,,,,,,,,,,,,,,,,,,,,,,,,,,,,,,,,,,,,,,,,,,,,,,,,,,,,,,,,,,,,,
,,,,,,60fd3c9c198705ab72aa3b68,62bbfafa7a2115799921b550,2022-06-29_19h11.12.697,Colour_Asymmetry_Pilot,2022.1.3,Win32,60.04924038,62bbe60bf3d75ef465d3e404,0,2,2,40,1,onetwo,,,,,,,,,,,,,,,,,,,,,,,,,,,,,,,,,,,,,,,,,,,,,,,,,,,,,,,,,,,,,,,,,,,,,,,,,,,,,,,,,,,,,,,,,,,,,,,,,,,,,,,,,,,,,,,,,,,,,,,,,,,,,,,,,,,,,,,,,,,,,,,,,,,,,,,,
,,,,,,60fd3c9c198705ab72aa3b68,62bbfafa7a2115799921b550,2022-06-29_19h11.12.697,Colour_Asymmetry_Pilot,2022.1.3,Win32,60.04924038,62bbe60bf3d75ef465d3e404,0,3,3,23,1,fourthree,,,,,,,,,,,,,,,,,,,,,,,,,,,,,,,,,,,,,,,,,,,,,,,,,,,,,,,,,,,,,,,,,,,,,,,,,,,,,,,,,,,,,,,,,,,,,,,,,,,,,,,,,,,,,,,,,,,,,,,,,,,,,,,,,,,,,,,,,,,,,,,,,,,,,,,,
,,,,,,60fd3c9c198705ab72aa3b68,62bbfafa7a2115799921b550,2022-06-29_19h11.12.697,Colour_Asymmetry_Pilot,2022.1.3,Win32,60.04924038,62bbe60bf3d75ef465d3e404,0,4,4,161,1,onethree,,,,,,,,,,,,,,,,,,,,,,,,,,,,,,,,,,,,,,,,,,,,,,,,,,,,,,,,,,,,,,,,,,,,,,,,,,,,,,,,,,,,,,,,,,,,,,,,,,,,,,,,,,,,,,,,,,,,,,,,,,,,,,,,,,,,,,,,,,,,,,,,,,,,,,,,
,,,,,,60fd3c9c198705ab72aa3b68,62bbfafa7a2115799921b550,2022-06-29_19h11.12.697,Colour_Asymmetry_Pilot,2022.1.3,Win32,60.04924038,62bbe60bf3d75ef465d3e404,0,5,5,156,1,threeone,,,,,,,,,,,,,,,,,,,,,,,,,,,,,,,,,,,,,,,,,,,,,,,,,,,,,,,,,,,,,,,,,,,,,,,,,,,,,,,,,,,,,,,,,,,,,,,,,,,,,,,,,,,,,,,,,,,,,,,,,,,,,,,,,,,,,,,,,,,,,,,,,,,,,,,,
,,,,,,60fd3c9c198705ab72aa3b68,62bbfafa7a2115799921b550,2022-06-29_19h11.12.697,Colour_Asymmetry_Pilot,2022.1.3,Win32,60.04924038,62bbe60bf3d75ef465d3e404,0,6,6,51,1,twofour,,,,,,,,,,,,,,,,,,,,,,,,,,,,,,,,,,,,,,,,,,,,,,,,,,,,,,,,,,,,,,,,,,,,,,,,,,,,,,,,,,,,,,,,,,,,,,,,,,,,,,,,,,,,,,,,,,,,,,,,,,,,,,,,,,,,,,,,,,,,,,,,,,,,,,,,
,,,,,,60fd3c9c198705ab72aa3b68,62bbfafa7a2115799921b550,2022-06-29_19h11.12.697,Colour_Asymmetry_Pilot,2022.1.3,Win32,60.04924038,62bbe60bf3d75ef465d3e404,0,7,7,62,1,fourtwo,,,,,,,,,,,,,,,,,,,,,,,,,,,,,,,,,,,,,,,,,,,,,,,,,,,,,,,,,,,,,,,,,,,,,,,,,,,,,,,,,,,,,,,,,,,,,,,,,,,,,,,,,,,,,,,,,,,,,,,,,,,,,,,,,,,,,,,,,,,,,,,,,,,,,,,,
,,,,,,60fd3c9c198705ab72aa3b68,62bbfafa7a2115799921b550,2022-06-29_19h11.12.697,Colour_Asymmetry_Pilot,2022.1.3,Win32,60.04924038,62bbe60bf3d75ef465d3e404,0,8,8,54,1,fourtwo,,,,,,,,,,,,,,,,,,,,,,,,,,,,,,,,,,,,,,,,,,,,,,,,,,,,,,,,,,,,,,,,,,,,,,,,,,,,,,,,,,,,,,,,,,,,,,,,,,,,,,,,,,,,,,,,,,,,,,,,,,,,,,,,,,,,,,,,,,,,,,,,,,,,,,,,
,,,,,,60fd3c9c198705ab72aa3b68,62bbfafa7a2115799921b550,2022-06-29_19h11.12.697,Colour_Asymmetry_Pilot,2022.1.3,Win32,60.04924038,62bbe60bf3d75ef465d3e404,0,9,9,0,1,onetwo,,,,,,,,,,,,,,,,,,,,,,,,,,,,,,,,,,,,,,,,,,,,,,,,,,,,,,,,,,,,,,,,,,,,,,,,,,,,,,,,,,,,,,,,,,,,,,,,,,,,,,,,,,,,,,,,,,,,,,,,,,,,,,,,,,,,,,,,,,,,,,,,,,,,,,,,
,,,,,,60fd3c9c198705ab72aa3b68,62bbfafa7a2115799921b550,2022-06-29_19h11.12.697,Colour_Asymmetry_Pilot,2022.1.3,Win32,60.04924038,62bbe60bf3d75ef465d3e404,0,10,10,76,1,threeone,,,,,,,,,,,,,,,,,,,,,,,,,,,,,,,,,,,,,,,,,,,,,,,,,,,,,,,,,,,,,,,,,,,,,,,,,,,,,,,,,,,,,,,,,,,,,,,,,,,,,,,,,,,,,,,,,,,,,,,,,,,,,,,,,,,,,,,,,,,,,,,,,,,,,,,,
,,,,,,60fd3c9c198705ab72aa3b68,62bbfafa7a2115799921b550,2022-06-29_19h11.12.697,Colour_Asymmetry_Pilot,2022.1.3,Win32,60.04924038,62bbe60bf3d75ef465d3e404,0,11,11,47,1,fourthree,,,,,,,,,,,,,,,,,,,,,,,,,,,,,,,,,,,,,,,,,,,,,,,,,,,,,,,,,,,,,,,,,,,,,,,,,,,,,,,,,,,,,,,,,,,,,,,,,,,,,,,,,,,,,,,,,,,,,,,,,,,,,,,,,,,,,,,,,,,,,,,,,,,,,,,,
,,,,,,60fd3c9c198705ab72aa3b68,62bbfafa7a2115799921b550,2022-06-29_19h11.12.697,Colour_Asymmetry_Pilot,2022.1.3,Win32,60.04924038,62bbe60bf3d75ef465d3e404,0,12,12,42,1,twoone,,,,,,,,,,,,,,,,,,,,,,,,,,,,,,,,,,,,,,,,,,,,,,,,,,,,,,,,,,,,,,,,,,,,,,,,,,,,,,,,,,,,,,,,,,,,,,,,,,,,,,,,,,,,,,,,,,,,,,,,,,,,,,,,,,,,,,,,,,,,,,,,,,,,,,,,
,,,,,,60fd3c9c198705ab72aa3b68,62bbfafa7a2115799921b550,2022-06-29_19h11.12.697,Colour_Asymmetry_Pilot,2022.1.3,Win32,60.04924038,62bbe60bf3d75ef465d3e404,0,13,13,35,1,twofour,,,,,,,,,,,,,,,,,,,,,,,,,,,,,,,,,,,,,,,,,,,,,,,,,,,,,,,,,,,,,,,,,,,,,,,,,,,,,,,,,,,,,,,,,,,,,,,,,,,,,,,,,,,,,,,,,,,,,,,,,,,,,,,,,,,,,,,,,,,,,,,,,,,,,,,,
,,,,,,60fd3c9c198705ab72aa3b68,62bbfafa7a2115799921b550,2022-06-29_19h11.12.697,Colour_Asymmetry_Pilot,2022.1.3,Win32,60.04924038,62bbe60bf3d75ef465d3e404,0,14,14,98,1,twoone,,,,,,,,,,,,,,,,,,,,,,,,,,,,,,,,,,,,,,,,,,,,,,,,,,,,,,,,,,,,,,,,,,,,,,,,,,,,,,,,,,,,,,,,,,,,,,,,,,,,,,,,,,,,,,,,,,,,,,,,,,,,,,,,,,,,,,,,,,,,,,,,,,,,,,,,
,,,,,,60fd3c9c198705ab72aa3b68,62bbfafa7a2115799921b550,2022-06-29_19h11.12.697,Colour_Asymmetry_Pilot,2022.1.3,Win32,60.04924038,62bbe60bf3d75ef465d3e404,0,15,15,24,1,onetwo,,,,,,,,,,,,,,,,,,,,,,,,,,,,,,,,,,,,,,,,,,,,,,,,,,,,,,,,,,,,,,,,,,,,,,,,,,,,,,,,,,,,,,,,,,,,,,,,,,,,,,,,,,,,,,,,,,,,,,,,,,,,,,,,,,,,,,,,,,,,,,,,,,,,,,,,
,,,,,,60fd3c9c198705ab72aa3b68,62bbfafa7a2115799921b550,2022-06-29_19h11.12.697,Colour_Asymmetry_Pilot,2022.1.3,Win32,60.04924038,62bbe60bf3d75ef465d3e404,0,16,16,12,1,threeone,,,,,,,,,,,,,,,,,,,,,,,,,,,,,,,,,,,,,,,,,,,,,,,,,,,,,,,,,,,,,,,,,,,,,,,,,,,,,,,,,,,,,,,,,,,,,,,,,,,,,,,,,,,,,,,,,,,,,,,,,,,,,,,,,,,,,,,,,,,,,,,,,,,,,,,,
,,,,,,60fd3c9c198705ab72aa3b68,62bbfafa7a2115799921b550,2022-06-29_19h11.12.697,Colour_Asymmetry_Pilot,2022.1.3,Win32,60.04924038,62bbe60bf3d75ef465d3e404,0,17,17,116,1,threeone,,,,,,,,,,,,,,,,,,,,,,,,,,,,,,,,,,,,,,,,,,,,,,,,,,,,,,,,,,,,,,,,,,,,,,,,,,,,,,,,,,,,,,,,,,,,,,,,,,,,,,,,,,,,,,,,,,,,,,,,,,,,,,,,,,,,,,,,,,,,,,,,,,,,,,,,
,,,,,,60fd3c9c198705ab72aa3b68,62bbfafa7a2115799921b550,2022-06-29_19h11.12.697,Colour_Asymmetry_Pilot,2022.1.3,Win32,60.04924038,62bbe60bf3d75ef465d3e404,0,18,18,86,1,fourtwo,,,,,,,,,,,,,,,,,,,,,,,,,,,,,,,,,,,,,,,,,,,,,,,,,,,,,,,,,,,,,,,,,,,,,,,,,,,,,,,,,,,,,,,,,,,,,,,,,,,,,,,,,,,,,,,,,,,,,,,,,,,,,,,,,,,,,,,,,,,,,,,,,,,,,,,,
,,,,,,60fd3c9c198705ab72aa3b68,62bbfafa7a2115799921b550,2022-06-29_19h11.12.697,Colour_Asymmetry_Pilot,2022.1.3,Win32,60.04924038,62bbe60bf3d75ef465d3e404,0,19,19,110,1,fourtwo,,,,,,,,,,,,,,,,,,,,,,,,,,,,,,,,,,,,,,,,,,,,,,,,,,,,,,,,,,,,,,,,,,,,,,,,,,,,,,,,,,,,,,,,,,,,,,,,,,,,,,,,,,,,,,,,,,,,,,,,,,,,,,,,,,,,,,,,,,,,,,,,,,,,,,,,
,,,,,,60fd3c9c198705ab72aa3b68,62bbfafa7a2115799921b550,2022-06-29_19h11.12.697,Colour_Asymmetry_Pilot,2022.1.3,Win32,60.04924038,62bbe60bf3d75ef465d3e404,0,20,20,111,1,fourthree,,,,,,,,,,,,,,,,,,,,,,,,,,,,,,,,,,,,,,,,,,,,,,,,,,,,,,,,,,,,,,,,,,,,,,,,,,,,,,,,,,,,,,,,,,,,,,,,,,,,,,,,,,,,,,,,,,,,,,,,,,,,,,,,,,,,,,,,,,,,,,,,,,,,,,,,
,,,,,,60fd3c9c198705ab72aa3b68,62bbfafa7a2115799921b550,2022-06-29_19h11.12.697,Colour_Asymmetry_Pilot,2022.1.3,Win32,60.04924038,62bbe60bf3d75ef465d3e404,0,21,21,88,1,onetwo,,,,,,,,,,,,,,,,,,,,,,,,,,,,,,,,,,,,,,,,,,,,,,,,,,,,,,,,,,,,,,,,,,,,,,,,,,,,,,,,,,,,,,,,,,,,,,,,,,,,,,,,,,,,,,,,,,,,,,,,,,,,,,,,,,,,,,,,,,,,,,,,,,,,,,,,
,,,,,,60fd3c9c198705ab72aa3b68,62bbfafa7a2115799921b550,2022-06-29_19h11.12.697,Colour_Asymmetry_Pilot,2022.1.3,Win32,60.04924038,62bbe60bf3d75ef465d3e404,0,22,22,30,1,fourtwo,,,,,,,,,,,,,,,,,,,,,,,,,,,,,,,,,,,,,,,,,,,,,,,,,,,,,,,,,,,,,,,,,,,,,,,,,,,,,,,,,,,,,,,,,,,,,,,,,,,,,,,,,,,,,,,,,,,,,,,,,,,,,,,,,,,,,,,,,,,,,,,,,,,,,,,,
,,,,,,60fd3c9c198705ab72aa3b68,62bbfafa7a2115799921b550,2022-06-29_19h11.12.697,Colour_Asymmetry_Pilot,2022.1.3,Win32,60.04924038,62bbe60bf3d75ef465d3e404,0,23,23,96,1,onetwo,,,,,,,,,,,,,,,,,,,,,,,,,,,,,,,,,,,,,,,,,,,,,,,,,,,,,,,,,,,,,,,,,,,,,,,,,,,,,,,,,,,,,,,,,,,,,,,,,,,,,,,,,,,,,,,,,,,,,,,,,,,,,,,,,,,,,,,,,,,,,,,,,,,,,,,,
,,,,,,60fd3c9c198705ab72aa3b68,62bbfafa7a2115799921b550,2022-06-29_19h11.12.697,Colour_Asymmetry_Pilot,2022.1.3,Win32,60.04924038,62bbe60bf3d75ef465d3e404,0,24,24,33,1,onethree,,,,,,,,,,,,,,,,,,,,,,,,,,,,,,,,,,,,,,,,,,,,,,,,,,,,,,,,,,,,,,,,,,,,,,,,,,,,,,,,,,,,,,,,,,,,,,,,,,,,,,,,,,,,,,,,,,,,,,,,,,,,,,,,,,,,,,,,,,,,,,,,,,,,,,,,
,,,,,,60fd3c9c198705ab72aa3b68,62bbfafa7a2115799921b550,2022-06-29_19h11.12.697,Colour_Asymmetry_Pilot,2022.1.3,Win32,60.04924038,62bbe60bf3d75ef465d3e404,0,25,25,114,1,twoone,,,,,,,,,,,,,,,,,,,,,,,,,,,,,,,,,,,,,,,,,,,,,,,,,,,,,,,,,,,,,,,,,,,,,,,,,,,,,,,,,,,,,,,,,,,,,,,,,,,,,,,,,,,,,,,,,,,,,,,,,,,,,,,,,,,,,,,,,,,,,,,,,,,,,,,,
,,,,,,60fd3c9c198705ab72aa3b68,62bbfafa7a2115799921b550,2022-06-29_19h11.12.697,Colour_Asymmetry_Pilot,2022.1.3,Win32,60.04924038,62bbe60bf3d75ef465d3e404,0,26,26,50,1,twoone,,,,,,,,,,,,,,,,,,,,,,,,,,,,,,,,,,,,,,,,,,,,,,,,,,,,,,,,,,,,,,,,,,,,,,,,,,,,,,,,,,,,,,,,,,,,,,,,,,,,,,,,,,,,,,,,,,,,,,,,,,,,,,,,,,,,,,,,,,,,,,,,,,,,,,,,
,,,,,,60fd3c9c198705ab72aa3b68,62bbfafa7a2115799921b550,2022-06-29_19h11.12.697,Colour_Asymmetry_Pilot,2022.1.3,Win32,60.04924038,62bbe60bf3d75ef465d3e404,0,27,27,64,1,onetwo,,,,,,,,,,,,,,,,,,,,,,,,,,,,,,,,,,,,,,,,,,,,,,,,,,,,,,,,,,,,,,,,,,,,,,,,,,,,,,,,,,,,,,,,,,,,,,,,,,,,,,,,,,,,,,,,,,,,,,,,,,,,,,,,,,,,,,,,,,,,,,,,,,,,,,,,
,,,,,,60fd3c9c198705ab72aa3b68,62bbfafa7a2115799921b550,2022-06-29_19h11.12.697,Colour_Asymmetry_Pilot,2022.1.3,Win32,60.04924038,62bbe60bf3d75ef465d3e404,0,28,28,141,1,threefour,,,,,,,,,,,,,,,,,,,,,,,,,,,,,,,,,,,,,,,,,,,,,,,,,,,,,,,,,,,,,,,,,,,,,,,,,,,,,,,,,,,,,,,,,,,,,,,,,,,,,,,,,,,,,,,,,,,,,,,,,,,,,,,,,,,,,,,,,,,,,,,,,,,,,,,,
,,,,,,60fd3c9c198705ab72aa3b68,62bbfafa7a2115799921b550,2022-06-29_19h11.12.697,Colour_Asymmetry_Pilot,2022.1.3,Win32,60.04924038,62bbe60bf3d75ef465d3e404,0,29,29,100,1,threeone,,,,,,,,,,,,,,,,,,,,,,,,,,,,,,,,,,,,,,,,,,,,,,,,,,,,,,,,,,,,,,,,,,,,,,,,,,,,,,,,,,,,,,,,,,,,,,,,,,,,,,,,,,,,,,,,,,,,,,,,,,,,,,,,,,,,,,,,,,,,,,,,,,,,,,,,
,,,,,,60fd3c9c198705ab72aa3b68,62bbfafa7a2115799921b550,2022-06-29_19h11.12.697,Colour_Asymmetry_Pilot,2022.1.3,Win32,60.04924038,62bbe60bf3d75ef465d3e404,0,30,30,16,1,onetwo,,,,,,,,,,,,,,,,,,,,,,,,,,,,,,,,,,,,,,,,,,,,,,,,,,,,,,,,,,,,,,,,,,,,,,,,,,,,,,,,,,,,,,,,,,,,,,,,,,,,,,,,,,,,,,,,,,,,,,,,,,,,,,,,,,,,,,,,,,,,,,,,,,,,,,,,
,,,,,,60fd3c9c198705ab72aa3b68,62bbfafa7a2115799921b550,2022-06-29_19h11.12.697,Colour_Asymmetry_Pilot,2022.1.3,Win32,60.04924038,62bbe60bf3d75ef465d3e404,0,31,31,89,1,onethree,,,,,,,,,,,,,,,,,,,,,,,,,,,,,,,,,,,,,,,,,,,,,,,,,,,,,,,,,,,,,,,,,,,,,,,,,,,,,,,,,,,,,,,,,,,,,,,,,,,,,,,,,,,,,,,,,,,,,,,,,,,,,,,,,,,,,,,,,,,,,,,,,,,,,,,,
,,,,,,60fd3c9c198705ab72aa3b68,62bbfafa7a2115799921b550,2022-06-29_19h11.12.697,Colour_Asymmetry_Pilot,2022.1.3,Win32,60.04924038,62bbe60bf3d75ef465d3e404,0,32,32,45,1,threefour,,,,,,,,,,,,,,,,,,,,,,,,,,,,,,,,,,,,,,,,,,,,,,,,,,,,,,,,,,,,,,,,,,,,,,,,,,,,,,,,,,,,,,,,,,,,,,,,,,,,,,,,,,,,,,,,,,,,,,,,,,,,,,,,,,,,,,,,,,,,,,,,,,,,,,,,
,,,,,,60fd3c9c198705ab72aa3b68,62bbfafa7a2115799921b550,2022-06-29_19h11.12.697,Colour_Asymmetry_Pilot,2022.1.3,Win32,60.04924038,62bbe60bf3d75ef465d3e404,0,33,33,124,1,threeone,,,,,,,,,,,,,,,,,,,,,,,,,,,,,,,,,,,,,,,,,,,,,,,,,,,,,,,,,,,,,,,,,,,,,,,,,,,,,,,,,,,,,,,,,,,,,,,,,,,,,,,,,,,,,,,,,,,,,,,,,,,,,,,,,,,,,,,,,,,,,,,,,,,,,,,,
,,,,,,60fd3c9c198705ab72aa3b68,62bbfafa7a2115799921b550,2022-06-29_19h11.12.697,Colour_Asymmetry_Pilot,2022.1.3,Win32,60.04924038,62bbe60bf3d75ef465d3e404,0,34,34,149,1,threefour,,,,,,,,,,,,,,,,,,,,,,,,,,,,,,,,,,,,,,,,,,,,,,,,,,,,,,,,,,,,,,,,,,,,,,,,,,,,,,,,,,,,,,,,,,,,,,,,,,,,,,,,,,,,,,,,,,,,,,,,,,,,,,,,,,,,,,,,,,,,,,,,,,,,,,,,
,,,,,,60fd3c9c198705ab72aa3b68,62bbfafa7a2115799921b550,2022-06-29_19h11.12.697,Colour_Asymmetry_Pilot,2022.1.3,Win32,60.04924038,62bbe60bf3d75ef465d3e404,0,35,35,18,1,twoone,,,,,,,,,,,,,,,,,,,,,,,,,,,,,,,,,,,,,,,,,,,,,,,,,,,,,,,,,,,,,,,,,,,,,,,,,,,,,,,,,,,,,,,,,,,,,,,,,,,,,,,,,,,,,,,,,,,,,,,,,,,,,,,,,,,,,,,,,,,,,,,,,,,,,,,,
,,,,,,60fd3c9c198705ab72aa3b68,62bbfafa7a2115799921b550,2022-06-29_19h11.12.697,Colour_Asymmetry_Pilot,2022.1.3,Win32,60.04924038,62bbe60bf3d75ef465d3e404,0,36,36,37,1,threefour,,,,,,,,,,,,,,,,,,,,,,,,,,,,,,,,,,,,,,,,,,,,,,,,,,,,,,,,,,,,,,,,,,,,,,,,,,,,,,,,,,,,,,,,,,,,,,,,,,,,,,,,,,,,,,,,,,,,,,,,,,,,,,,,,,,,,,,,,,,,,,,,,,,,,,,,
,,,,,,60fd3c9c198705ab72aa3b68,62bbfafa7a2115799921b550,2022-06-29_19h11.12.697,Colour_Asymmetry_Pilot,2022.1.3,Win32,60.04924038,62bbe60bf3d75ef465d3e404,0,37,37,4,1,threeone,,,,,,,,,,,,,,,,,,,,,,,,,,,,,,,,,,,,,,,,,,,,,,,,,,,,,,,,,,,,,,,,,,,,,,,,,,,,,,,,,,,,,,,,,,,,,,,,,,,,,,,,,,,,,,,,,,,,,,,,,,,,,,,,,,,,,,,,,,,,,,,,,,,,,,,,
,,,,,,60fd3c9c198705ab72aa3b68,62bbfafa7a2115799921b550,2022-06-29_19h11.12.697,Colour_Asymmetry_Pilot,2022.1.3,Win32,60.04924038,62bbe60bf3d75ef465d3e404,0,38,38,11,1,twofour,,,,,,,,,,,,,,,,,,,,,,,,,,,,,,,,,,,,,,,,,,,,,,,,,,,,,,,,,,,,,,,,,,,,,,,,,,,,,,,,,,,,,,,,,,,,,,,,,,,,,,,,,,,,,,,,,,,,,,,,,,,,,,,,,,,,,,,,,,,,,,,,,,,,,,,,
,,,,,,60fd3c9c198705ab72aa3b68,62bbfafa7a2115799921b550,2022-06-29_19h11.12.697,Colour_Asymmetry_Pilot,2022.1.3,Win32,60.04924038,62bbe60bf3d75ef465d3e404,0,39,39,95,1,fourthree,,,,,,,,,,,,,,,,,,,,,,,,,,,,,,,,,,,,,,,,,,,,,,,,,,,,,,,,,,,,,,,,,,,,,,,,,,,,,,,,,,,,,,,,,,,,,,,,,,,,,,,,,,,,,,,,,,,,,,,,,,,,,,,,,,,,,,,,,,,,,,,,,,,,,,,,
,,,,,,60fd3c9c198705ab72aa3b68,62bbfafa7a2115799921b550,2022-06-29_19h11.12.697,Colour_Asymmetry_Pilot,2022.1.3,Win32,60.04924038,62bbe60bf3d75ef465d3e404,0,40,40,6,1,fourtwo,,,,,,,,,,,,,,,,,,,,,,,,,,,,,,,,,,,,,,,,,,,,,,,,,,,,,,,,,,,,,,,,,,,,,,,,,,,,,,,,,,,,,,,,,,,,,,,,,,,,,,,,,,,,,,,,,,,,,,,,,,,,,,,,,,,,,,,,,,,,,,,,,,,,,,,,
,,,,,,60fd3c9c198705ab72aa3b68,62bbfafa7a2115799921b550,2022-06-29_19h11.12.697,Colour_Asymmetry_Pilot,2022.1.3,Win32,60.04924038,62bbe60bf3d75ef465d3e404,0,41,41,1,1,onethree,,,,,,,,,,,,,,,,,,,,,,,,,,,,,,,,,,,,,,,,,,,,,,,,,,,,,,,,,,,,,,,,,,,,,,,,,,,,,,,,,,,,,,,,,,,,,,,,,,,,,,,,,,,,,,,,,,,,,,,,,,,,,,,,,,,,,,,,,,,,,,,,,,,,,,,,
,,,,,,60fd3c9c198705ab72aa3b68,62bbfafa7a2115799921b550,2022-06-29_19h11.12.697,Colour_Asymmetry_Pilot,2022.1.3,Win32,60.04924038,62bbe60bf3d75ef465d3e404,0,42,42,121,1,onethree,,,,,,,,,,,,,,,,,,,,,,,,,,,,,,,,,,,,,,,,,,,,,,,,,,,,,,,,,,,,,,,,,,,,,,,,,,,,,,,,,,,,,,,,,,,,,,,,,,,,,,,,,,,,,,,,,,,,,,,,,,,,,,,,,,,,,,,,,,,,,,,,,,,,,,,,
,,,,,,60fd3c9c198705ab72aa3b68,62bbfafa7a2115799921b550,2022-06-29_19h11.12.697,Colour_Asymmetry_Pilot,2022.1.3,Win32,60.04924038,62bbe60bf3d75ef465d3e404,0,43,43,118,1,fourtwo,,,,,,,,,,,,,,,,,,,,,,,,,,,,,,,,,,,,,,,,,,,,,,,,,,,,,,,,,,,,,,,,,,,,,,,,,,,,,,,,,,,,,,,,,,,,,,,,,,,,,,,,,,,,,,,,,,,,,,,,,,,,,,,,,,,,,,,,,,,,,,,,,,,,,,,,
,,,,,,60fd3c9c198705ab72aa3b68,62bbfafa7a2115799921b550,2022-06-29_19h11.12.697,Colour_Asymmetry_Pilot,2022.1.3,Win32,60.04924038,62bbe60bf3d75ef465d3e404,0,44,44,80,1,onetwo,,,,,,,,,,,,,,,,,,,,,,,,,,,,,,,,,,,,,,,,,,,,,,,,,,,,,,,,,,,,,,,,,,,,,,,,,,,,,,,,,,,,,,,,,,,,,,,,,,,,,,,,,,,,,,,,,,,,,,,,,,,,,,,,,,,,,,,,,,,,,,,,,,,,,,,,
,,,,,,60fd3c9c198705ab72aa3b68,62bbfafa7a2115799921b550,2022-06-29_19h11.12.697,Colour_Asymmetry_Pilot,2022.1.3,Win32,60.04924038,62bbe60bf3d75ef465d3e404,0,45,45,104,1,onetwo,,,,,,,,,,,,,,,,,,,,,,,,,,,,,,,,,,,,,,,,,,,,,,,,,,,,,,,,,,,,,,,,,,,,,,,,,,,,,,,,,,,,,,,,,,,,,,,,,,,,,,,,,,,,,,,,,,,,,,,,,,,,,,,,,,,,,,,,,,,,,,,,,,,,,,,,
,,,,,,60fd3c9c198705ab72aa3b68,62bbfafa7a2115799921b550,2022-06-29_19h11.12.697,Colour_Asymmetry_Pilot,2022.1.3,Win32,60.04924038,62bbe60bf3d75ef465d3e404,0,46,46,138,1,twoone,,,,,,,,,,,,,,,,,,,,,,,,,,,,,,,,,,,,,,,,,,,,,,,,,,,,,,,,,,,,,,,,,,,,,,,,,,,,,,,,,,,,,,,,,,,,,,,,,,,,,,,,,,,,,,,,,,,,,,,,,,,,,,,,,,,,,,,,,,,,,,,,,,,,,,,,
,,,,,,60fd3c9c198705ab72aa3b68,62bbfafa7a2115799921b550,2022-06-29_19h11.12.697,Colour_Asymmetry_Pilot,2022.1.3,Win32,60.04924038,62bbe60bf3d75ef465d3e404,0,47,47,27,1,twofour,,,,,,,,,,,,,,,,,,,,,,,,,,,,,,,,,,,,,,,,,,,,,,,,,,,,,,,,,,,,,,,,,,,,,,,,,,,,,,,,,,,,,,,,,,,,,,,,,,,,,,,,,,,,,,,,,,,,,,,,,,,,,,,,,,,,,,,,,,,,,,,,,,,,,,,,
,,,,,,60fd3c9c198705ab72aa3b68,62bbfafa7a2115799921b550,2022-06-29_19h11.12.697,Colour_Asymmetry_Pilot,2022.1.3,Win32,60.04924038,62bbe60bf3d75ef465d3e404,0,48,48,143,1,fourthree,,,,,,,,,,,,,,,,,,,,,,,,,,,,,,,,,,,,,,,,,,,,,,,,,,,,,,,,,,,,,,,,,,,,,,,,,,,,,,,,,,,,,,,,,,,,,,,,,,,,,,,,,,,,,,,,,,,,,,,,,,,,,,,,,,,,,,,,,,,,,,,,,,,,,,,,
,,,,,,60fd3c9c198705ab72aa3b68,62bbfafa7a2115799921b550,2022-06-29_19h11.12.697,Colour_Asymmetry_Pilot,2022.1.3,Win32,60.04924038,62bbe60bf3d75ef465d3e404,0,49,49,20,1,threeone,,,,,,,,,,,,,,,,,,,,,,,,,,,,,,,,,,,,,,,,,,,,,,,,,,,,,,,,,,,,,,,,,,,,,,,,,,,,,,,,,,,,,,,,,,,,,,,,,,,,,,,,,,,,,,,,,,,,,,,,,,,,,,,,,,,,,,,,,,,,,,,,,,,,,,,,
,,,,,,60fd3c9c198705ab72aa3b68,62bbfafa7a2115799921b550,2022-06-29_19h11.12.697,Colour_Asymmetry_Pilot,2022.1.3,Win32,60.04924038,62bbe60bf3d75ef465d3e404,0,50,50,134,1,fourtwo,,,,,,,,,,,,,,,,,,,,,,,,,,,,,,,,,,,,,,,,,,,,,,,,,,,,,,,,,,,,,,,,,,,,,,,,,,,,,,,,,,,,,,,,,,,,,,,,,,,,,,,,,,,,,,,,,,,,,,,,,,,,,,,,,,,,,,,,,,,,,,,,,,,,,,,,
,,,,,,60fd3c9c198705ab72aa3b68,62bbfafa7a2115799921b550,2022-06-29_19h11.12.697,Colour_Asymmetry_Pilot,2022.1.3,Win32,60.04924038,62bbe60bf3d75ef465d3e404,0,51,51,69,1,threefour,,,,,,,,,,,,,,,,,,,,,,,,,,,,,,,,,,,,,,,,,,,,,,,,,,,,,,,,,,,,,,,,,,,,,,,,,,,,,,,,,,,,,,,,,,,,,,,,,,,,,,,,,,,,,,,,,,,,,,,,,,,,,,,,,,,,,,,,,,,,,,,,,,,,,,,,
,,,,,,60fd3c9c198705ab72aa3b68,62bbfafa7a2115799921b550,2022-06-29_19h11.12.697,Colour_Asymmetry_Pilot,2022.1.3,Win32,60.04924038,62bbe60bf3d75ef465d3e404,0,52,52,68,1,threeone,,,,,,,,,,,,,,,,,,,,,,,,,,,,,,,,,,,,,,,,,,,,,,,,,,,,,,,,,,,,,,,,,,,,,,,,,,,,,,,,,,,,,,,,,,,,,,,,,,,,,,,,,,,,,,,,,,,,,,,,,,,,,,,,,,,,,,,,,,,,,,,,,,,,,,,,
,,,,,,60fd3c9c198705ab72aa3b68,62bbfafa7a2115799921b550,2022-06-29_19h11.12.697,Colour_Asymmetry_Pilot,2022.1.3,Win32,60.04924038,62bbe60bf3d75ef465d3e404,0,53,53,115,1,twofour,,,,,,,,,,,,,,,,,,,,,,,,,,,,,,,,,,,,,,,,,,,,,,,,,,,,,,,,,,,,,,,,,,,,,,,,,,,,,,,,,,,,,,,,,,,,,,,,,,,,,,,,,,,,,,,,,,,,,,,,,,,,,,,,,,,,,,,,,,,,,,,,,,,,,,,,
,,,,,,60fd3c9c198705ab72aa3b68,62bbfafa7a2115799921b550,2022-06-29_19h11.12.697,Colour_Asymmetry_Pilot,2022.1.3,Win32,60.04924038,62bbe60bf3d75ef465d3e404,0,54,54,137,1,onethree,,,,,,,,,,,,,,,,,,,,,,,,,,,,,,,,,,,,,,,,,,,,,,,,,,,,,,,,,,,,,,,,,,,,,,,,,,,,,,,,,,,,,,,,,,,,,,,,,,,,,,,,,,,,,,,,,,,,,,,,,,,,,,,,,,,,,,,,,,,,,,,,,,,,,,,,
,,,,,,60fd3c9c198705ab72aa3b68,62bbfafa7a2115799921b550,2022-06-29_19h11.12.697,Colour_Asymmetry_Pilot,2022.1.3,Win32,60.04924038,62bbe60bf3d75ef465d3e404,0,55,55,160,1,onetwo,,,,,,,,,,,,,,,,,,,,,,,,,,,,,,,,,,,,,,,,,,,,,,,,,,,,,,,,,,,,,,,,,,,,,,,,,,,,,,,,,,,,,,,,,,,,,,,,,,,,,,,,,,,,,,,,,,,,,,,,,,,,,,,,,,,,,,,,,,,,,,,,,,,,,,,,
,,,,,,60fd3c9c198705ab72aa3b68,62bbfafa7a2115799921b550,2022-06-29_19h11.12.697,Colour_Asymmetry_Pilot,2022.1.3,Win32,60.04924038,62bbe60bf3d75ef465d3e404,0,56,56,152,1,onetwo,,,,,,,,,,,,,,,,,,,,,,,,,,,,,,,,,,,,,,,,,,,,,,,,,,,,,,,,,,,,,,,,,,,,,,,,,,,,,,,,,,,,,,,,,,,,,,,,,,,,,,,,,,,,,,,,,,,,,,,,,,,,,,,,,,,,,,,,,,,,,,,,,,,,,,,,
,,,,,,60fd3c9c198705ab72aa3b68,62bbfafa7a2115799921b550,2022-06-29_19h11.12.697,Colour_Asymmetry_Pilot,2022.1.3,Win32,60.04924038,62bbe60bf3d75ef465d3e404,0,57,57,39,1,fourthree,,,,,,,,,,,,,,,,,,,,,,,,,,,,,,,,,,,,,,,,,,,,,,,,,,,,,,,,,,,,,,,,,,,,,,,,,,,,,,,,,,,,,,,,,,,,,,,,,,,,,,,,,,,,,,,,,,,,,,,,,,,,,,,,,,,,,,,,,,,,,,,,,,,,,,,,
,,,,,,60fd3c9c198705ab72aa3b68,62bbfafa7a2115799921b550,2022-06-29_19h11.12.697,Colour_Asymmetry_Pilot,2022.1.3,Win32,60.04924038,62bbe60bf3d75ef465d3e404,0,58,58,109,1,threefour,,,,,,,,,,,,,,,,,,,,,,,,,,,,,,,,,,,,,,,,,,,,,,,,,,,,,,,,,,,,,,,,,,,,,,,,,,,,,,,,,,,,,,,,,,,,,,,,,,,,,,,,,,,,,,,,,,,,,,,,,,,,,,,,,,,,,,,,,,,,,,,,,,,,,,,,
,,,,,,60fd3c9c198705ab72aa3b68,62bbfafa7a2115799921b550,2022-06-29_19h11.12.697,Colour_Asymmetry_Pilot,2022.1.3,Win32,60.04924038,62bbe60bf3d75ef465d3e404,0,59,59,19,1,twofour,,,,,,,,,,,,,,,,,,,,,,,,,,,,,,,,,,,,,,,,,,,,,,,,,,,,,,,,,,,,,,,,,,,,,,,,,,,,,,,,,,,,,,,,,,,,,,,,,,,,,,,,,,,,,,,,,,,,,,,,,,,,,,,,,,,,,,,,,,,,,,,,,,,,,,,,
,,,,,,60fd3c9c198705ab72aa3b68,62bbfafa7a2115799921b550,2022-06-29_19h11.12.697,Colour_Asymmetry_Pilot,2022.1.3,Win32,60.04924038,62bbe60bf3d75ef465d3e404,0,60,60,123,1,twofour,,,,,,,,,,,,,,,,,,,,,,,,,,,,,,,,,,,,,,,,,,,,,,,,,,,,,,,,,,,,,,,,,,,,,,,,,,,,,,,,,,,,,,,,,,,,,,,,,,,,,,,,,,,,,,,,,,,,,,,,,,,,,,,,,,,,,,,,,,,,,,,,,,,,,,,,
,,,,,,60fd3c9c198705ab72aa3b68,62bbfafa7a2115799921b550,2022-06-29_19h11.12.697,Colour_Asymmetry_Pilot,2022.1.3,Win32,60.04924038,62bbe60bf3d75ef465d3e404,0,61,61,127,1,fourthree,,,,,,,,,,,,,,,,,,,,,,,,,,,,,,,,,,,,,,,,,,,,,,,,,,,,,,,,,,,,,,,,,,,,,,,,,,,,,,,,,,,,,,,,,,,,,,,,,,,,,,,,,,,,,,,,,,,,,,,,,,,,,,,,,,,,,,,,,,,,,,,,,,,,,,,,
,,,,,,60fd3c9c198705ab72aa3b68,62bbfafa7a2115799921b550,2022-06-29_19h11.12.697,Colour_Asymmetry_Pilot,2022.1.3,Win32,60.04924038,62bbe60bf3d75ef465d3e404,0,62,62,145,1,onethree,,,,,,,,,,,,,,,,,,,,,,,,,,,,,,,,,,,,,,,,,,,,,,,,,,,,,,,,,,,,,,,,,,,,,,,,,,,,,,,,,,,,,,,,,,,,,,,,,,,,,,,,,,,,,,,,,,,,,,,,,,,,,,,,,,,,,,,,,,,,,,,,,,,,,,,,
,,,,,,60fd3c9c198705ab72aa3b68,62bbfafa7a2115799921b550,2022-06-29_19h11.12.697,Colour_Asymmetry_Pilot,2022.1.3,Win32,60.04924038,62bbe60bf3d75ef465d3e404,0,63,63,150,1,fourtwo,,,,,,,,,,,,,,,,,,,,,,,,,,,,,,,,,,,,,,,,,,,,,,,,,,,,,,,,,,,,,,,,,,,,,,,,,,,,,,,,,,,,,,,,,,,,,,,,,,,,,,,,,,,,,,,,,,,,,,,,,,,,,,,,,,,,,,,,,,,,,,,,,,,,,,,,
,,,,,,60fd3c9c198705ab72aa3b68,62bbfafa7a2115799921b550,2022-06-29_19h11.12.697,Colour_Asymmetry_Pilot,2022.1.3,Win32,60.04924038,62bbe60bf3d75ef465d3e404,0,64,64,36,1,threeone,,,,,,,,,,,,,,,,,,,,,,,,,,,,,,,,,,,,,,,,,,,,,,,,,,,,,,,,,,,,,,,,,,,,,,,,,,,,,,,,,,,,,,,,,,,,,,,,,,,,,,,,,,,,,,,,,,,,,,,,,,,,,,,,,,,,,,,,,,,,,,,,,,,,,,,,
,,,,,,60fd3c9c198705ab72aa3b68,62bbfafa7a2115799921b550,2022-06-29_19h11.12.697,Colour_Asymmetry_Pilot,2022.1.3,Win32,60.04924038,62bbe60bf3d75ef465d3e404,0,65,65,92,1,threeone,,,,,,,,,,,,,,,,,,,,,,,,,,,,,,,,,,,,,,,,,,,,,,,,,,,,,,,,,,,,,,,,,,,,,,,,,,,,,,,,,,,,,,,,,,,,,,,,,,,,,,,,,,,,,,,,,,,,,,,,,,,,,,,,,,,,,,,,,,,,,,,,,,,,,,,,
,,,,,,60fd3c9c198705ab72aa3b68,62bbfafa7a2115799921b550,2022-06-29_19h11.12.697,Colour_Asymmetry_Pilot,2022.1.3,Win32,60.04924038,62bbe60bf3d75ef465d3e404,0,66,66,63,1,fourthree,,,,,,,,,,,,,,,,,,,,,,,,,,,,,,,,,,,,,,,,,,,,,,,,,,,,,,,,,,,,,,,,,,,,,,,,,,,,,,,,,,,,,,,,,,,,,,,,,,,,,,,,,,,,,,,,,,,,,,,,,,,,,,,,,,,,,,,,,,,,,,,,,,,,,,,,
,,,,,,60fd3c9c198705ab72aa3b68,62bbfafa7a2115799921b550,2022-06-29_19h11.12.697,Colour_Asymmetry_Pilot,2022.1.3,Win32,60.04924038,62bbe60bf3d75ef465d3e404,0,67,67,129,1,onethree,,,,,,,,,,,,,,,,,,,,,,,,,,,,,,,,,,,,,,,,,,,,,,,,,,,,,,,,,,,,,,,,,,,,,,,,,,,,,,,,,,,,,,,,,,,,,,,,,,,,,,,,,,,,,,,,,,,,,,,,,,,,,,,,,,,,,,,,,,,,,,,,,,,,,,,,
,,,,,,60fd3c9c198705ab72aa3b68,62bbfafa7a2115799921b550,2022-06-29_19h11.12.697,Colour_Asymmetry_Pilot,2022.1.3,Win32,60.04924038,62bbe60bf3d75ef465d3e404,0,68,68,49,1,onethree,,,,,,,,,,,,,,,,,,,,,,,,,,,,,,,,,,,,,,,,,,,,,,,,,,,,,,,,,,,,,,,,,,,,,,,,,,,,,,,,,,,,,,,,,,,,,,,,,,,,,,,,,,,,,,,,,,,,,,,,,,,,,,,,,,,,,,,,,,,,,,,,,,,,,,,,
,,,,,,60fd3c9c198705ab72aa3b68,62bbfafa7a2115799921b550,2022-06-29_19h11.12.697,Colour_Asymmetry_Pilot,2022.1.3,Win32,60.04924038,62bbe60bf3d75ef465d3e404,0,69,69,71,1,fourthree,,,,,,,,,,,,,,,,,,,,,,,,,,,,,,,,,,,,,,,,,,,,,,,,,,,,,,,,,,,,,,,,,,,,,,,,,,,,,,,,,,,,,,,,,,,,,,,,,,,,,,,,,,,,,,,,,,,,,,,,,,,,,,,,,,,,,,,,,,,,,,,,,,,,,,,,
,,,,,,60fd3c9c198705ab72aa3b68,62bbfafa7a2115799921b550,2022-06-29_19h11.12.697,Colour_Asymmetry_Pilot,2022.1.3,Win32,60.04924038,62bbe60bf3d75ef465d3e404,0,70,70,128,1,onetwo,,,,,,,,,,,,,,,,,,,,,,,,,,,,,,,,,,,,,,,,,,,,,,,,,,,,,,,,,,,,,,,,,,,,,,,,,,,,,,,,,,,,,,,,,,,,,,,,,,,,,,,,,,,,,,,,,,,,,,,,,,,,,,,,,,,,,,,,,,,,,,,,,,,,,,,,
,,,,,,60fd3c9c198705ab72aa3b68,62bbfafa7a2115799921b550,2022-06-29_19h11.12.697,Colour_Asymmetry_Pilot,2022.1.3,Win32,60.04924038,62bbe60bf3d75ef465d3e404,0,71,71,13,1,threefour,,,,,,,,,,,,,,,,,,,,,,,,,,,,,,,,,,,,,,,,,,,,,,,,,,,,,,,,,,,,,,,,,,,,,,,,,,,,,,,,,,,,,,,,,,,,,,,,,,,,,,,,,,,,,,,,,,,,,,,,,,,,,,,,,,,,,,,,,,,,,,,,,,,,,,,,
,,,,,,60fd3c9c198705ab72aa3b68,62bbfafa7a2115799921b550,2022-06-29_19h11.12.697,Colour_Asymmetry_Pilot,2022.1.3,Win32,60.04924038,62bbe60bf3d75ef465d3e404,0,72,72,26,1,twoone,,,,,,,,,,,,,,,,,,,,,,,,,,,,,,,,,,,,,,,,,,,,,,,,,,,,,,,,,,,,,,,,,,,,,,,,,,,,,,,,,,,,,,,,,,,,,,,,,,,,,,,,,,,,,,,,,,,,,,,,,,,,,,,,,,,,,,,,,,,,,,,,,,,,,,,,
,,,,,,60fd3c9c198705ab72aa3b68,62bbfafa7a2115799921b550,2022-06-29_19h11.12.697,Colour_Asymmetry_Pilot,2022.1.3,Win32,60.04924038,62bbe60bf3d75ef465d3e404,0,73,73,5,1,threefour,,,,,,,,,,,,,,,,,,,,,,,,,,,,,,,,,,,,,,,,,,,,,,,,,,,,,,,,,,,,,,,,,,,,,,,,,,,,,,,,,,,,,,,,,,,,,,,,,,,,,,,,,,,,,,,,,,,,,,,,,,,,,,,,,,,,,,,,,,,,,,,,,,,,,,,,
,,,,,,60fd3c9c198705ab72aa3b68,62bbfafa7a2115799921b550,2022-06-29_19h11.12.697,Colour_Asymmetry_Pilot,2022.1.3,Win32,60.04924038,62bbe60bf3d75ef465d3e404,0,74,74,73,1,onethree,,,,,,,,,,,,,,,,,,,,,,,,,,,,,,,,,,,,,,,,,,,,,,,,,,,,,,,,,,,,,,,,,,,,,,,,,,,,,,,,,,,,,,,,,,,,,,,,,,,,,,,,,,,,,,,,,,,,,,,,,,,,,,,,,,,,,,,,,,,,,,,,,,,,,,,,
,,,,,,60fd3c9c198705ab72aa3b68,62bbfafa7a2115799921b550,2022-06-29_19h11.12.697,Colour_Asymmetry_Pilot,2022.1.3,Win32,60.04924038,62bbe60bf3d75ef465d3e404,0,75,75,159,1,fourthree,,,,,,,,,,,,,,,,,,,,,,,,,,,,,,,,,,,,,,,,,,,,,,,,,,,,,,,,,,,,,,,,,,,,,,,,,,,,,,,,,,,,,,,,,,,,,,,,,,,,,,,,,,,,,,,,,,,,,,,,,,,,,,,,,,,,,,,,,,,,,,,,,,,,,,,,
,,,,,,60fd3c9c198705ab72aa3b68,62bbfafa7a2115799921b550,2022-06-29_19h11.12.697,Colour_Asymmetry_Pilot,2022.1.3,Win32,60.04924038,62bbe60bf3d75ef465d3e404,0,76,76,78,1,fourtwo,,,,,,,,,,,,,,,,,,,,,,,,,,,,,,,,,,,,,,,,,,,,,,,,,,,,,,,,,,,,,,,,,,,,,,,,,,,,,,,,,,,,,,,,,,,,,,,,,,,,,,,,,,,,,,,,,,,,,,,,,,,,,,,,,,,,,,,,,,,,,,,,,,,,,,,,
,,,,,,60fd3c9c198705ab72aa3b68,62bbfafa7a2115799921b550,2022-06-29_19h11.12.697,Colour_Asymmetry_Pilot,2022.1.3,Win32,60.04924038,62bbe60bf3d75ef465d3e404,0,77,77,136,1,onetwo,,,,,,,,,,,,,,,,,,,,,,,,,,,,,,,,,,,,,,,,,,,,,,,,,,,,,,,,,,,,,,,,,,,,,,,,,,,,,,,,,,,,,,,,,,,,,,,,,,,,,,,,,,,,,,,,,,,,,,,,,,,,,,,,,,,,,,,,,,,,,,,,,,,,,,,,
,,,,,,60fd3c9c198705ab72aa3b68,62bbfafa7a2115799921b550,2022-06-29_19h11.12.697,Colour_Asymmetry_Pilot,2022.1.3,Win32,60.04924038,62bbe60bf3d75ef465d3e404,0,78,78,82,1,twoone,,,,,,,,,,,,,,,,,,,,,,,,,,,,,,,,,,,,,,,,,,,,,,,,,,,,,,,,,,,,,,,,,,,,,,,,,,,,,,,,,,,,,,,,,,,,,,,,,,,,,,,,,,,,,,,,,,,,,,,,,,,,,,,,,,,,,,,,,,,,,,,,,,,,,,,,
,,,,,,60fd3c9c198705ab72aa3b68,62bbfafa7a2115799921b550,2022-06-29_19h11.12.697,Colour_Asymmetry_Pilot,2022.1.3,Win32,60.04924038,62bbe60bf3d75ef465d3e404,0,79,79,122,1,twoone,,,,,,,,,,,,,,,,,,,,,,,,,,,,,,,,,,,,,,,,,,,,,,,,,,,,,,,,,,,,,,,,,,,,,,,,,,,,,,,,,,,,,,,,,,,,,,,,,,,,,,,,,,,,,,,,,,,,,,,,,,,,,,,,,,,,,,,,,,,,,,,,,,,,,,,,
,,,,,,60fd3c9c198705ab72aa3b68,62bbfafa7a2115799921b550,2022-06-29_19h11.12.697,Colour_Asymmetry_Pilot,2022.1.3,Win32,60.04924038,62bbe60bf3d75ef465d3e404,0,80,80,139,1,twofour,,,,,,,,,,,,,,,,,,,,,,,,,,,,,,,,,,,,,,,,,,,,,,,,,,,,,,,,,,,,,,,,,,,,,,,,,,,,,,,,,,,,,,,,,,,,,,,,,,,,,,,,,,,,,,,,,,,,,,,,,,,,,,,,,,,,,,,,,,,,,,,,,,,,,,,,
,,,,,,60fd3c9c198705ab72aa3b68,62bbfafa7a2115799921b550,2022-06-29_19h11.12.697,Colour_Asymmetry_Pilot,2022.1.3,Win32,60.04924038,62bbe60bf3d75ef465d3e404,0,81,81,113,1,onethree,,,,,,,,,,,,,,,,,,,,,,,,,,,,,,,,,,,,,,,,,,,,,,,,,,,,,,,,,,,,,,,,,,,,,,,,,,,,,,,,,,,,,,,,,,,,,,,,,,,,,,,,,,,,,,,,,,,,,,,,,,,,,,,,,,,,,,,,,,,,,,,,,,,,,,,,
,,,,,,60fd3c9c198705ab72aa3b68,62bbfafa7a2115799921b550,2022-06-29_19h11.12.697,Colour_Asymmetry_Pilot,2022.1.3,Win32,60.04924038,62bbe60bf3d75ef465d3e404,0,82,82,97,1,onethree,,,,,,,,,,,,,,,,,,,,,,,,,,,,,,,,,,,,,,,,,,,,,,,,,,,,,,,,,,,,,,,,,,,,,,,,,,,,,,,,,,,,,,,,,,,,,,,,,,,,,,,,,,,,,,,,,,,,,,,,,,,,,,,,,,,,,,,,,,,,,,,,,,,,,,,,
,,,,,,60fd3c9c198705ab72aa3b68,62bbfafa7a2115799921b550,2022-06-29_19h11.12.697,Colour_Asymmetry_Pilot,2022.1.3,Win32,60.04924038,62bbe60bf3d75ef465d3e404,0,83,83,56,1,onetwo,,,,,,,,,,,,,,,,,,,,,,,,,,,,,,,,,,,,,,,,,,,,,,,,,,,,,,,,,,,,,,,,,,,,,,,,,,,,,,,,,,,,,,,,,,,,,,,,,,,,,,,,,,,,,,,,,,,,,,,,,,,,,,,,,,,,,,,,,,,,,,,,,,,,,,,,
,,,,,,60fd3c9c198705ab72aa3b68,62bbfafa7a2115799921b550,2022-06-29_19h11.12.697,Colour_Asymmetry_Pilot,2022.1.3,Win32,60.04924038,62bbe60bf3d75ef465d3e404,0,84,84,3,1,twofour,,,,,,,,,,,,,,,,,,,,,,,,,,,,,,,,,,,,,,,,,,,,,,,,,,,,,,,,,,,,,,,,,,,,,,,,,,,,,,,,,,,,,,,,,,,,,,,,,,,,,,,,,,,,,,,,,,,,,,,,,,,,,,,,,,,,,,,,,,,,,,,,,,,,,,,,
,,,,,,60fd3c9c198705ab72aa3b68,62bbfafa7a2115799921b550,2022-06-29_19h11.12.697,Colour_Asymmetry_Pilot,2022.1.3,Win32,60.04924038,62bbe60bf3d75ef465d3e404,0,85,85,90,1,twoone,,,,,,,,,,,,,,,,,,,,,,,,,,,,,,,,,,,,,,,,,,,,,,,,,,,,,,,,,,,,,,,,,,,,,,,,,,,,,,,,,,,,,,,,,,,,,,,,,,,,,,,,,,,,,,,,,,,,,,,,,,,,,,,,,,,,,,,,,,,,,,,,,,,,,,,,
,,,,,,60fd3c9c198705ab72aa3b68,62bbfafa7a2115799921b550,2022-06-29_19h11.12.697,Colour_Asymmetry_Pilot,2022.1.3,Win32,60.04924038,62bbe60bf3d75ef465d3e404,0,86,86,32,1,onetwo,,,,,,,,,,,,,,,,,,,,,,,,,,,,,,,,,,,,,,,,,,,,,,,,,,,,,,,,,,,,,,,,,,,,,,,,,,,,,,,,,,,,,,,,,,,,,,,,,,,,,,,,,,,,,,,,,,,,,,,,,,,,,,,,,,,,,,,,,,,,,,,,,,,,,,,,
,,,,,,60fd3c9c198705ab72aa3b68,62bbfafa7a2115799921b550,2022-06-29_19h11.12.697,Colour_Asymmetry_Pilot,2022.1.3,Win32,60.04924038,62bbe60bf3d75ef465d3e404,0,87,87,105,1,onethree,,,,,,,,,,,,,,,,,,,,,,,,,,,,,,,,,,,,,,,,,,,,,,,,,,,,,,,,,,,,,,,,,,,,,,,,,,,,,,,,,,,,,,,,,,,,,,,,,,,,,,,,,,,,,,,,,,,,,,,,,,,,,,,,,,,,,,,,,,,,,,,,,,,,,,,,
,,,,,,60fd3c9c198705ab72aa3b68,62bbfafa7a2115799921b550,2022-06-29_19h11.12.697,Colour_Asymmetry_Pilot,2022.1.3,Win32,60.04924038,62bbe60bf3d75ef465d3e404,0,88,88,14,1,fourtwo,,,,,,,,,,,,,,,,,,,,,,,,,,,,,,,,,,,,,,,,,,,,,,,,,,,,,,,,,,,,,,,,,,,,,,,,,,,,,,,,,,,,,,,,,,,,,,,,,,,,,,,,,,,,,,,,,,,,,,,,,,,,,,,,,,,,,,,,,,,,,,,,,,,,,,,,
,,,,,,60fd3c9c198705ab72aa3b68,62bbfafa7a2115799921b550,2022-06-29_19h11.12.697,Colour_Asymmetry_Pilot,2022.1.3,Win32,60.04924038,62bbe60bf3d75ef465d3e404,0,89,89,65,1,onethree,,,,,,,,,,,,,,,,,,,,,,,,,,,,,,,,,,,,,,,,,,,,,,,,,,,,,,,,,,,,,,,,,,,,,,,,,,,,,,,,,,,,,,,,,,,,,,,,,,,,,,,,,,,,,,,,,,,,,,,,,,,,,,,,,,,,,,,,,,,,,,,,,,,,,,,,
,,,,,,60fd3c9c198705ab72aa3b68,62bbfafa7a2115799921b550,2022-06-29_19h11.12.697,Colour_Asymmetry_Pilot,2022.1.3,Win32,60.04924038,62bbe60bf3d75ef465d3e404,0,90,90,66,1,twoone,,,,,,,,,,,,,,,,,,,,,,,,,,,,,,,,,,,,,,,,,,,,,,,,,,,,,,,,,,,,,,,,,,,,,,,,,,,,,,,,,,,,,,,,,,,,,,,,,,,,,,,,,,,,,,,,,,,,,,,,,,,,,,,,,,,,,,,,,,,,,,,,,,,,,,,,
,,,,,,60fd3c9c198705ab72aa3b68,62bbfafa7a2115799921b550,2022-06-29_19h11.12.697,Colour_Asymmetry_Pilot,2022.1.3,Win32,60.04924038,62bbe60bf3d75ef465d3e404,0,91,91,94,1,fourtwo,,,,,,,,,,,,,,,,,,,,,,,,,,,,,,,,,,,,,,,,,,,,,,,,,,,,,,,,,,,,,,,,,,,,,,,,,,,,,,,,,,,,,,,,,,,,,,,,,,,,,,,,,,,,,,,,,,,,,,,,,,,,,,,,,,,,,,,,,,,,,,,,,,,,,,,,
,,,,,,60fd3c9c198705ab72aa3b68,62bbfafa7a2115799921b550,2022-06-29_19h11.12.697,Colour_Asymmetry_Pilot,2022.1.3,Win32,60.04924038,62bbe60bf3d75ef465d3e404,0,92,92,17,1,onethree,,,,,,,,,,,,,,,,,,,,,,,,,,,,,,,,,,,,,,,,,,,,,,,,,,,,,,,,,,,,,,,,,,,,,,,,,,,,,,,,,,,,,,,,,,,,,,,,,,,,,,,,,,,,,,,,,,,,,,,,,,,,,,,,,,,,,,,,,,,,,,,,,,,,,,,,
,,,,,,60fd3c9c198705ab72aa3b68,62bbfafa7a2115799921b550,2022-06-29_19h11.12.697,Colour_Asymmetry_Pilot,2022.1.3,Win32,60.04924038,62bbe60bf3d75ef465d3e404,0,93,93,7,1,fourthree,,,,,,,,,,,,,,,,,,,,,,,,,,,,,,,,,,,,,,,,,,,,,,,,,,,,,,,,,,,,,,,,,,,,,,,,,,,,,,,,,,,,,,,,,,,,,,,,,,,,,,,,,,,,,,,,,,,,,,,,,,,,,,,,,,,,,,,,,,,,,,,,,,,,,,,,
,,,,,,60fd3c9c198705ab72aa3b68,62bbfafa7a2115799921b550,2022-06-29_19h11.12.697,Colour_Asymmetry_Pilot,2022.1.3,Win32,60.04924038,62bbe60bf3d75ef465d3e404,0,94,94,126,1,fourtwo,,,,,,,,,,,,,,,,,,,,,,,,,,,,,,,,,,,,,,,,,,,,,,,,,,,,,,,,,,,,,,,,,,,,,,,,,,,,,,,,,,,,,,,,,,,,,,,,,,,,,,,,,,,,,,,,,,,,,,,,,,,,,,,,,,,,,,,,,,,,,,,,,,,,,,,,
,,,,,,60fd3c9c198705ab72aa3b68,62bbfafa7a2115799921b550,2022-06-29_19h11.12.697,Colour_Asymmetry_Pilot,2022.1.3,Win32,60.04924038,62bbe60bf3d75ef465d3e404,0,95,95,58,1,twoone,,,,,,,,,,,,,,,,,,,,,,,,,,,,,,,,,,,,,,,,,,,,,,,,,,,,,,,,,,,,,,,,,,,,,,,,,,,,,,,,,,,,,,,,,,,,,,,,,,,,,,,,,,,,,,,,,,,,,,,,,,,,,,,,,,,,,,,,,,,,,,,,,,,,,,,,
,,,,,,60fd3c9c198705ab72aa3b68,62bbfafa7a2115799921b550,2022-06-29_19h11.12.697,Colour_Asymmetry_Pilot,2022.1.3,Win32,60.04924038,62bbe60bf3d75ef465d3e404,0,96,96,53,1,threefour,,,,,,,,,,,,,,,,,,,,,,,,,,,,,,,,,,,,,,,,,,,,,,,,,,,,,,,,,,,,,,,,,,,,,,,,,,,,,,,,,,,,,,,,,,,,,,,,,,,,,,,,,,,,,,,,,,,,,,,,,,,,,,,,,,,,,,,,,,,,,,,,,,,,,,,,
,,,,,,60fd3c9c198705ab72aa3b68,62bbfafa7a2115799921b550,2022-06-29_19h11.12.697,Colour_Asymmetry_Pilot,2022.1.3,Win32,60.04924038,62bbe60bf3d75ef465d3e404,0,97,97,70,1,fourtwo,,,,,,,,,,,,,,,,,,,,,,,,,,,,,,,,,,,,,,,,,,,,,,,,,,,,,,,,,,,,,,,,,,,,,,,,,,,,,,,,,,,,,,,,,,,,,,,,,,,,,,,,,,,,,,,,,,,,,,,,,,,,,,,,,,,,,,,,,,,,,,,,,,,,,,,,
,,,,,,60fd3c9c198705ab72aa3b68,62bbfafa7a2115799921b550,2022-06-29_19h11.12.697,Colour_Asymmetry_Pilot,2022.1.3,Win32,60.04924038,62bbe60bf3d75ef465d3e404,0,98,98,29,1,threefour,,,,,,,,,,,,,,,,,,,,,,,,,,,,,,,,,,,,,,,,,,,,,,,,,,,,,,,,,,,,,,,,,,,,,,,,,,,,,,,,,,,,,,,,,,,,,,,,,,,,,,,,,,,,,,,,,,,,,,,,,,,,,,,,,,,,,,,,,,,,,,,,,,,,,,,,
,,,,,,60fd3c9c198705ab72aa3b68,62bbfafa7a2115799921b550,2022-06-29_19h11.12.697,Colour_Asymmetry_Pilot,2022.1.3,Win32,60.04924038,62bbe60bf3d75ef465d3e404,0,99,99,41,1,onethree,,,,,,,,,,,,,,,,,,,,,,,,,,,,,,,,,,,,,,,,,,,,,,,,,,,,,,,,,,,,,,,,,,,,,,,,,,,,,,,,,,,,,,,,,,,,,,,,,,,,,,,,,,,,,,,,,,,,,,,,,,,,,,,,,,,,,,,,,,,,,,,,,,,,,,,,
,,,,,,60fd3c9c198705ab72aa3b68,62bbfafa7a2115799921b550,2022-06-29_19h11.12.697,Colour_Asymmetry_Pilot,2022.1.3,Win32,60.04924038,62bbe60bf3d75ef465d3e404,0,100,100,74,1,twoone,,,,,,,,,,,,,,,,,,,,,,,,,,,,,,,,,,,,,,,,,,,,,,,,,,,,,,,,,,,,,,,,,,,,,,,,,,,,,,,,,,,,,,,,,,,,,,,,,,,,,,,,,,,,,,,,,,,,,,,,,,,,,,,,,,,,,,,,,,,,,,,,,,,,,,,,
,,,,,,60fd3c9c198705ab72aa3b68,62bbfafa7a2115799921b550,2022-06-29_19h11.12.697,Colour_Asymmetry_Pilot,2022.1.3,Win32,60.04924038,62bbe60bf3d75ef465d3e404,0,101,101,120,1,onetwo,,,,,,,,,,,,,,,,,,,,,,,,,,,,,,,,,,,,,,,,,,,,,,,,,,,,,,,,,,,,,,,,,,,,,,,,,,,,,,,,,,,,,,,,,,,,,,,,,,,,,,,,,,,,,,,,,,,,,,,,,,,,,,,,,,,,,,,,,,,,,,,,,,,,,,,,
,,,,,,60fd3c9c198705ab72aa3b68,62bbfafa7a2115799921b550,2022-06-29_19h11.12.697,Colour_Asymmetry_Pilot,2022.1.3,Win32,60.04924038,62bbe60bf3d75ef465d3e404,0,102,102,55,1,fourthree,,,,,,,,,,,,,,,,,,,,,,,,,,,,,,,,,,,,,,,,,,,,,,,,,,,,,,,,,,,,,,,,,,,,,,,,,,,,,,,,,,,,,,,,,,,,,,,,,,,,,,,,,,,,,,,,,,,,,,,,,,,,,,,,,,,,,,,,,,,,,,,,,,,,,,,,
,,,,,,60fd3c9c198705ab72aa3b68,62bbfafa7a2115799921b550,2022-06-29_19h11.12.697,Colour_Asymmetry_Pilot,2022.1.3,Win32,60.04924038,62bbe60bf3d75ef465d3e404,0,103,103,10,1,twoone,,,,,,,,,,,,,,,,,,,,,,,,,,,,,,,,,,,,,,,,,,,,,,,,,,,,,,,,,,,,,,,,,,,,,,,,,,,,,,,,,,,,,,,,,,,,,,,,,,,,,,,,,,,,,,,,,,,,,,,,,,,,,,,,,,,,,,,,,,,,,,,,,,,,,,,,
,,,,,,60fd3c9c198705ab72aa3b68,62bbfafa7a2115799921b550,2022-06-29_19h11.12.697,Colour_Asymmetry_Pilot,2022.1.3,Win32,60.04924038,62bbe60bf3d75ef465d3e404,0,104,104,61,1,threefour,,,,,,,,,,,,,,,,,,,,,,,,,,,,,,,,,,,,,,,,,,,,,,,,,,,,,,,,,,,,,,,,,,,,,,,,,,,,,,,,,,,,,,,,,,,,,,,,,,,,,,,,,,,,,,,,,,,,,,,,,,,,,,,,,,,,,,,,,,,,,,,,,,,,,,,,
,,,,,,60fd3c9c198705ab72aa3b68,62bbfafa7a2115799921b550,2022-06-29_19h11.12.697,Colour_Asymmetry_Pilot,2022.1.3,Win32,60.04924038,62bbe60bf3d75ef465d3e404,0,105,105,75,1,twofour,,,,,,,,,,,,,,,,,,,,,,,,,,,,,,,,,,,,,,,,,,,,,,,,,,,,,,,,,,,,,,,,,,,,,,,,,,,,,,,,,,,,,,,,,,,,,,,,,,,,,,,,,,,,,,,,,,,,,,,,,,,,,,,,,,,,,,,,,,,,,,,,,,,,,,,,
,,,,,,60fd3c9c198705ab72aa3b68,62bbfafa7a2115799921b550,2022-06-29_19h11.12.697,Colour_Asymmetry_Pilot,2022.1.3,Win32,60.04924038,62bbe60bf3d75ef465d3e404,0,106,106,72,1,onetwo,,,,,,,,,,,,,,,,,,,,,,,,,,,,,,,,,,,,,,,,,,,,,,,,,,,,,,,,,,,,,,,,,,,,,,,,,,,,,,,,,,,,,,,,,,,,,,,,,,,,,,,,,,,,,,,,,,,,,,,,,,,,,,,,,,,,,,,,,,,,,,,,,,,,,,,,
,,,,,,60fd3c9c198705ab72aa3b68,62bbfafa7a2115799921b550,2022-06-29_19h11.12.697,Colour_Asymmetry_Pilot,2022.1.3,Win32,60.04924038,62bbe60bf3d75ef465d3e404,0,107,107,144,1,onetwo,,,,,,,,,,,,,,,,,,,,,,,,,,,,,,,,,,,,,,,,,,,,,,,,,,,,,,,,,,,,,,,,,,,,,,,,,,,,,,,,,,,,,,,,,,,,,,,,,,,,,,,,,,,,,,,,,,,,,,,,,,,,,,,,,,,,,,,,,,,,,,,,,,,,,,,,
,,,,,,60fd3c9c198705ab72aa3b68,62bbfafa7a2115799921b550,2022-06-29_19h11.12.697,Colour_Asymmetry_Pilot,2022.1.3,Win32,60.04924038,62bbe60bf3d75ef465d3e404,0,108,108,151,1,fourthree,,,,,,,,,,,,,,,,,,,,,,,,,,,,,,,,,,,,,,,,,,,,,,,,,,,,,,,,,,,,,,,,,,,,,,,,,,,,,,,,,,,,,,,,,,,,,,,,,,,,,,,,,,,,,,,,,,,,,,,,,,,,,,,,,,,,,,,,,,,,,,,,,,,,,,,,
,,,,,,60fd3c9c198705ab72aa3b68,62bbfafa7a2115799921b550,2022-06-29_19h11.12.697,Colour_Asymmetry_Pilot,2022.1.3,Win32,60.04924038,62bbe60bf3d75ef465d3e404,0,109,109,108,1,threeone,,,,,,,,,,,,,,,,,,,,,,,,,,,,,,,,,,,,,,,,,,,,,,,,,,,,,,,,,,,,,,,,,,,,,,,,,,,,,,,,,,,,,,,,,,,,,,,,,,,,,,,,,,,,,,,,,,,,,,,,,,,,,,,,,,,,,,,,,,,,,,,,,,,,,,,,
,,,,,,60fd3c9c198705ab72aa3b68,62bbfafa7a2115799921b550,2022-06-29_19h11.12.697,Colour_Asymmetry_Pilot,2022.1.3,Win32,60.04924038,62bbe60bf3d75ef465d3e404,0,110,110,9,1,onethree,,,,,,,,,,,,,,,,,,,,,,,,,,,,,,,,,,,,,,,,,,,,,,,,,,,,,,,,,,,,,,,,,,,,,,,,,,,,,,,,,,,,,,,,,,,,,,,,,,,,,,,,,,,,,,,,,,,,,,,,,,,,,,,,,,,,,,,,,,,,,,,,,,,,,,,,
,,,,,,60fd3c9c198705ab72aa3b68,62bbfafa7a2115799921b550,2022-06-29_19h11.12.697,Colour_Asymmetry_Pilot,2022.1.3,Win32,60.04924038,62bbe60bf3d75ef465d3e404,0,111,111,22,1,fourtwo,,,,,,,,,,,,,,,,,,,,,,,,,,,,,,,,,,,,,,,,,,,,,,,,,,,,,,,,,,,,,,,,,,,,,,,,,,,,,,,,,,,,,,,,,,,,,,,,,,,,,,,,,,,,,,,,,,,,,,,,,,,,,,,,,,,,,,,,,,,,,,,,,,,,,,,,
,,,,,,60fd3c9c198705ab72aa3b68,62bbfafa7a2115799921b550,2022-06-29_19h11.12.697,Colour_Asymmetry_Pilot,2022.1.3,Win32,60.04924038,62bbe60bf3d75ef465d3e404,0,112,112,142,1,fourtwo,,,,,,,,,,,,,,,,,,,,,,,,,,,,,,,,,,,,,,,,,,,,,,,,,,,,,,,,,,,,,,,,,,,,,,,,,,,,,,,,,,,,,,,,,,,,,,,,,,,,,,,,,,,,,,,,,,,,,,,,,,,,,,,,,,,,,,,,,,,,,,,,,,,,,,,,
,,,,,,60fd3c9c198705ab72aa3b68,62bbfafa7a2115799921b550,2022-06-29_19h11.12.697,Colour_Asymmetry_Pilot,2022.1.3,Win32,60.04924038,62bbe60bf3d75ef465d3e404,0,113,113,48,1,onetwo,,,,,,,,,,,,,,,,,,,,,,,,,,,,,,,,,,,,,,,,,,,,,,,,,,,,,,,,,,,,,,,,,,,,,,,,,,,,,,,,,,,,,,,,,,,,,,,,,,,,,,,,,,,,,,,,,,,,,,,,,,,,,,,,,,,,,,,,,,,,,,,,,,,,,,,,
,,,,,,60fd3c9c198705ab72aa3b68,62bbfafa7a2115799921b550,2022-06-29_19h11.12.697,Colour_Asymmetry_Pilot,2022.1.3,Win32,60.04924038,62bbe60bf3d75ef465d3e404,0,114,114,31,1,fourthree,,,,,,,,,,,,,,,,,,,,,,,,,,,,,,,,,,,,,,,,,,,,,,,,,,,,,,,,,,,,,,,,,,,,,,,,,,,,,,,,,,,,,,,,,,,,,,,,,,,,,,,,,,,,,,,,,,,,,,,,,,,,,,,,,,,,,,,,,,,,,,,,,,,,,,,,
,,,,,,60fd3c9c198705ab72aa3b68,62bbfafa7a2115799921b550,2022-06-29_19h11.12.697,Colour_Asymmetry_Pilot,2022.1.3,Win32,60.04924038,62bbe60bf3d75ef465d3e404,0,115,115,112,1,onetwo,,,,,,,,,,,,,,,,,,,,,,,,,,,,,,,,,,,,,,,,,,,,,,,,,,,,,,,,,,,,,,,,,,,,,,,,,,,,,,,,,,,,,,,,,,,,,,,,,,,,,,,,,,,,,,,,,,,,,,,,,,,,,,,,,,,,,,,,,,,,,,,,,,,,,,,,
,,,,,,60fd3c9c198705ab72aa3b68,62bbfafa7a2115799921b550,2022-06-29_19h11.12.697,Colour_Asymmetry_Pilot,2022.1.3,Win32,60.04924038,62bbe60bf3d75ef465d3e404,0,116,116,103,1,fourthree,,,,,,,,,,,,,,,,,,,,,,,,,,,,,,,,,,,,,,,,,,,,,,,,,,,,,,,,,,,,,,,,,,,,,,,,,,,,,,,,,,,,,,,,,,,,,,,,,,,,,,,,,,,,,,,,,,,,,,,,,,,,,,,,,,,,,,,,,,,,,,,,,,,,,,,,
,,,,,,60fd3c9c198705ab72aa3b68,62bbfafa7a2115799921b550,2022-06-29_19h11.12.697,Colour_Asymmetry_Pilot,2022.1.3,Win32,60.04924038,62bbe60bf3d75ef465d3e404,0,117,117,59,1,twofour,,,,,,,,,,,,,,,,,,,,,,,,,,,,,,,,,,,,,,,,,,,,,,,,,,,,,,,,,,,,,,,,,,,,,,,,,,,,,,,,,,,,,,,,,,,,,,,,,,,,,,,,,,,,,,,,,,,,,,,,,,,,,,,,,,,,,,,,,,,,,,,,,,,,,,,,
,,,,,,60fd3c9c198705ab72aa3b68,62bbfafa7a2115799921b550,2022-06-29_19h11.12.697,Colour_Asymmetry_Pilot,2022.1.3,Win32,60.04924038,62bbe60bf3d75ef465d3e404,0,118,118,81,1,onethree,,,,,,,,,,,,,,,,,,,,,,,,,,,,,,,,,,,,,,,,,,,,,,,,,,,,,,,,,,,,,,,,,,,,,,,,,,,,,,,,,,,,,,,,,,,,,,,,,,,,,,,,,,,,,,,,,,,,,,,,,,,,,,,,,,,,,,,,,,,,,,,,,,,,,,,,
,,,,,,60fd3c9c198705ab72aa3b68,62bbfafa7a2115799921b550,2022-06-29_19h11.12.697,Colour_Asymmetry_Pilot,2022.1.3,Win32,60.04924038,62bbe60bf3d75ef465d3e404,0,119,119,147,1,twofour,,,,,,,,,,,,,,,,,,,,,,,,,,,,,,,,,,,,,,,,,,,,,,,,,,,,,,,,,,,,,,,,,,,,,,,,,,,,,,,,,,,,,,,,,,,,,,,,,,,,,,,,,,,,,,,,,,,,,,,,,,,,,,,,,,,,,,,,,,,,,,,,,,,,,,,,
,,,,,,60fd3c9c198705ab72aa3b68,62bbfafa7a2115799921b550,2022-06-29_19h11.12.697,Colour_Asymmetry_Pilot,2022.1.3,Win32,60.04924038,62bbe60bf3d75ef465d3e404,0,120,120,60,1,threeone,,,,,,,,,,,,,,,,,,,,,,,,,,,,,,,,,,,,,,,,,,,,,,,,,,,,,,,,,,,,,,,,,,,,,,,,,,,,,,,,,,,,,,,,,,,,,,,,,,,,,,,,,,,,,,,,,,,,,,,,,,,,,,,,,,,,,,,,,,,,,,,,,,,,,,,,
,,,,,,60fd3c9c198705ab72aa3b68,62bbfafa7a2115799921b550,2022-06-29_19h11.12.697,Colour_Asymmetry_Pilot,2022.1.3,Win32,60.04924038,62bbe60bf3d75ef465d3e404,0,121,121,148,1,threeone,,,,,,,,,,,,,,,,,,,,,,,,,,,,,,,,,,,,,,,,,,,,,,,,,,,,,,,,,,,,,,,,,,,,,,,,,,,,,,,,,,,,,,,,,,,,,,,,,,,,,,,,,,,,,,,,,,,,,,,,,,,,,,,,,,,,,,,,,,,,,,,,,,,,,,,,
,,,,,,60fd3c9c198705ab72aa3b68,62bbfafa7a2115799921b550,2022-06-29_19h11.12.697,Colour_Asymmetry_Pilot,2022.1.3,Win32,60.04924038,62bbe60bf3d75ef465d3e404,0,122,122,15,1,fourthree,,,,,,,,,,,,,,,,,,,,,,,,,,,,,,,,,,,,,,,,,,,,,,,,,,,,,,,,,,,,,,,,,,,,,,,,,,,,,,,,,,,,,,,,,,,,,,,,,,,,,,,,,,,,,,,,,,,,,,,,,,,,,,,,,,,,,,,,,,,,,,,,,,,,,,,,
,,,,,,60fd3c9c198705ab72aa3b68,62bbfafa7a2115799921b550,2022-06-29_19h11.12.697,Colour_Asymmetry_Pilot,2022.1.3,Win32,60.04924038,62bbe60bf3d75ef465d3e404,0,123,123,158,1,fourtwo,,,,,,,,,,,,,,,,,,,,,,,,,,,,,,,,,,,,,,,,,,,,,,,,,,,,,,,,,,,,,,,,,,,,,,,,,,,,,,,,,,,,,,,,,,,,,,,,,,,,,,,,,,,,,,,,,,,,,,,,,,,,,,,,,,,,,,,,,,,,,,,,,,,,,,,,
,,,,,,60fd3c9c198705ab72aa3b68,62bbfafa7a2115799921b550,2022-06-29_19h11.12.697,Colour_Asymmetry_Pilot,2022.1.3,Win32,60.04924038,62bbe60bf3d75ef465d3e404,0,124,124,101,1,threefour,,,,,,,,,,,,,,,,,,,,,,,,,,,,,,,,,,,,,,,,,,,,,,,,,,,,,,,,,,,,,,,,,,,,,,,,,,,,,,,,,,,,,,,,,,,,,,,,,,,,,,,,,,,,,,,,,,,,,,,,,,,,,,,,,,,,,,,,,,,,,,,,,,,,,,,,
,,,,,,60fd3c9c198705ab72aa3b68,62bbfafa7a2115799921b550,2022-06-29_19h11.12.697,Colour_Asymmetry_Pilot,2022.1.3,Win32,60.04924038,62bbe60bf3d75ef465d3e404,0,125,125,52,1,threeone,,,,,,,,,,,,,,,,,,,,,,,,,,,,,,,,,,,,,,,,,,,,,,,,,,,,,,,,,,,,,,,,,,,,,,,,,,,,,,,,,,,,,,,,,,,,,,,,,,,,,,,,,,,,,,,,,,,,,,,,,,,,,,,,,,,,,,,,,,,,,,,,,,,,,,,,
,,,,,,60fd3c9c198705ab72aa3b68,62bbfafa7a2115799921b550,2022-06-29_19h11.12.697,Colour_Asymmetry_Pilot,2022.1.3,Win32,60.04924038,62bbe60bf3d75ef465d3e404,0,126,126,132,1,threeone,,,,,,,,,,,,,,,,,,,,,,,,,,,,,,,,,,,,,,,,,,,,,,,,,,,,,,,,,,,,,,,,,,,,,,,,,,,,,,,,,,,,,,,,,,,,,,,,,,,,,,,,,,,,,,,,,,,,,,,,,,,,,,,,,,,,,,,,,,,,,,,,,,,,,,,,
,,,,,,60fd3c9c198705ab72aa3b68,62bbfafa7a2115799921b550,2022-06-29_19h11.12.697,Colour_Asymmetry_Pilot,2022.1.3,Win32,60.04924038,62bbe60bf3d75ef465d3e404,0,127,127,91,1,twofour,,,,,,,,,,,,,,,,,,,,,,,,,,,,,,,,,,,,,,,,,,,,,,,,,,,,,,,,,,,,,,,,,,,,,,,,,,,,,,,,,,,,,,,,,,,,,,,,,,,,,,,,,,,,,,,,,,,,,,,,,,,,,,,,,,,,,,,,,,,,,,,,,,,,,,,,
,,,,,,60fd3c9c198705ab72aa3b68,62bbfafa7a2115799921b550,2022-06-29_19h11.12.697,Colour_Asymmetry_Pilot,2022.1.3,Win32,60.04924038,62bbe60bf3d75ef465d3e404,0,128,128,85,1,threefour,,,,,,,,,,,,,,,,,,,,,,,,,,,,,,,,,,,,,,,,,,,,,,,,,,,,,,,,,,,,,,,,,,,,,,,,,,,,,,,,,,,,,,,,,,,,,,,,,,,,,,,,,,,,,,,,,,,,,,,,,,,,,,,,,,,,,,,,,,,,,,,,,,,,,,,,
,,,,,,60fd3c9c198705ab72aa3b68,62bbfafa7a2115799921b550,2022-06-29_19h11.12.697,Colour_Asymmetry_Pilot,2022.1.3,Win32,60.04924038,62bbe60bf3d75ef465d3e404,0,129,129,99,1,twofour,,,,,,,,,,,,,,,,,,,,,,,,,,,,,,,,,,,,,,,,,,,,,,,,,,,,,,,,,,,,,,,,,,,,,,,,,,,,,,,,,,,,,,,,,,,,,,,,,,,,,,,,,,,,,,,,,,,,,,,,,,,,,,,,,,,,,,,,,,,,,,,,,,,,,,,,
,,,,,,60fd3c9c198705ab72aa3b68,62bbfafa7a2115799921b550,2022-06-29_19h11.12.697,Colour_Asymmetry_Pilot,2022.1.3,Win32,60.04924038,62bbe60bf3d75ef465d3e404,0,130,130,8,1,onetwo,,,,,,,,,,,,,,,,,,,,,,,,,,,,,,,,,,,,,,,,,,,,,,,,,,,,,,,,,,,,,,,,,,,,,,,,,,,,,,,,,,,,,,,,,,,,,,,,,,,,,,,,,,,,,,,,,,,,,,,,,,,,,,,,,,,,,,,,,,,,,,,,,,,,,,,,
,,,,,,60fd3c9c198705ab72aa3b68,62bbfafa7a2115799921b550,2022-06-29_19h11.12.697,Colour_Asymmetry_Pilot,2022.1.3,Win32,60.04924038,62bbe60bf3d75ef465d3e404,0,131,131,119,1,fourthree,,,,,,,,,,,,,,,,,,,,,,,,,,,,,,,,,,,,,,,,,,,,,,,,,,,,,,,,,,,,,,,,,,,,,,,,,,,,,,,,,,,,,,,,,,,,,,,,,,,,,,,,,,,,,,,,,,,,,,,,,,,,,,,,,,,,,,,,,,,,,,,,,,,,,,,,
,,,,,,60fd3c9c198705ab72aa3b68,62bbfafa7a2115799921b550,2022-06-29_19h11.12.697,Colour_Asymmetry_Pilot,2022.1.3,Win32,60.04924038,62bbe60bf3d75ef465d3e404,0,132,132,125,1,threefour,,,,,,,,,,,,,,,,,,,,,,,,,,,,,,,,,,,,,,,,,,,,,,,,,,,,,,,,,,,,,,,,,,,,,,,,,,,,,,,,,,,,,,,,,,,,,,,,,,,,,,,,,,,,,,,,,,,,,,,,,,,,,,,,,,,,,,,,,,,,,,,,,,,,,,,,
,,,,,,60fd3c9c198705ab72aa3b68,62bbfafa7a2115799921b550,2022-06-29_19h11.12.697,Colour_Asymmetry_Pilot,2022.1.3,Win32,60.04924038,62bbe60bf3d75ef465d3e404,0,133,133,46,1,fourtwo,,,,,,,,,,,,,,,,,,,,,,,,,,,,,,,,,,,,,,,,,,,,,,,,,,,,,,,,,,,,,,,,,,,,,,,,,,,,,,,,,,,,,,,,,,,,,,,,,,,,,,,,,,,,,,,,,,,,,,,,,,,,,,,,,,,,,,,,,,,,,,,,,,,,,,,,
,,,,,,60fd3c9c198705ab72aa3b68,62bbfafa7a2115799921b550,2022-06-29_19h11.12.697,Colour_Asymmetry_Pilot,2022.1.3,Win32,60.04924038,62bbe60bf3d75ef465d3e404,0,134,134,107,1,twofour,,,,,,,,,,,,,,,,,,,,,,,,,,,,,,,,,,,,,,,,,,,,,,,,,,,,,,,,,,,,,,,,,,,,,,,,,,,,,,,,,,,,,,,,,,,,,,,,,,,,,,,,,,,,,,,,,,,,,,,,,,,,,,,,,,,,,,,,,,,,,,,,,,,,,,,,
,,,,,,60fd3c9c198705ab72aa3b68,62bbfafa7a2115799921b550,2022-06-29_19h11.12.697,Colour_Asymmetry_Pilot,2022.1.3,Win32,60.04924038,62bbe60bf3d75ef465d3e404,0,135,135,87,1,fourthree,,,,,,,,,,,,,,,,,,,,,,,,,,,,,,,,,,,,,,,,,,,,,,,,,,,,,,,,,,,,,,,,,,,,,,,,,,,,,,,,,,,,,,,,,,,,,,,,,,,,,,,,,,,,,,,,,,,,,,,,,,,,,,,,,,,,,,,,,,,,,,,,,,,,,,,,
,,,,,,60fd3c9c198705ab72aa3b68,62bbfafa7a2115799921b550,2022-06-29_19h11.12.697,Colour_Asymmetry_Pilot,2022.1.3,Win32,60.04924038,62bbe60bf3d75ef465d3e404,0,136,136,34,1,twoone,,,,,,,,,,,,,,,,,,,,,,,,,,,,,,,,,,,,,,,,,,,,,,,,,,,,,,,,,,,,,,,,,,,,,,,,,,,,,,,,,,,,,,,,,,,,,,,,,,,,,,,,,,,,,,,,,,,,,,,,,,,,,,,,,,,,,,,,,,,,,,,,,,,,,,,,
,,,,,,60fd3c9c198705ab72aa3b68,62bbfafa7a2115799921b550,2022-06-29_19h11.12.697,Colour_Asymmetry_Pilot,2022.1.3,Win32,60.04924038,62bbe60bf3d75ef465d3e404,0,137,137,154,1,twoone,,,,,,,,,,,,,,,,,,,,,,,,,,,,,,,,,,,,,,,,,,,,,,,,,,,,,,,,,,,,,,,,,,,,,,,,,,,,,,,,,,,,,,,,,,,,,,,,,,,,,,,,,,,,,,,,,,,,,,,,,,,,,,,,,,,,,,,,,,,,,,,,,,,,,,,,
,,,,,,60fd3c9c198705ab72aa3b68,62bbfafa7a2115799921b550,2022-06-29_19h11.12.697,Colour_Asymmetry_Pilot,2022.1.3,Win32,60.04924038,62bbe60bf3d75ef465d3e404,0,138,138,146,1,twoone,,,,,,,,,,,,,,,,,,,,,,,,,,,,,,,,,,,,,,,,,,,,,,,,,,,,,,,,,,,,,,,,,,,,,,,,,,,,,,,,,,,,,,,,,,,,,,,,,,,,,,,,,,,,,,,,,,,,,,,,,,,,,,,,,,,,,,,,,,,,,,,,,,,,,,,,
,,,,,,60fd3c9c198705ab72aa3b68,62bbfafa7a2115799921b550,2022-06-29_19h11.12.697,Colour_Asymmetry_Pilot,2022.1.3,Win32,60.04924038,62bbe60bf3d75ef465d3e404,0,139,139,38,1,fourtwo,,,,,,,,,,,,,,,,,,,,,,,,,,,,,,,,,,,,,,,,,,,,,,,,,,,,,,,,,,,,,,,,,,,,,,,,,,,,,,,,,,,,,,,,,,,,,,,,,,,,,,,,,,,,,,,,,,,,,,,,,,,,,,,,,,,,,,,,,,,,,,,,,,,,,,,,
,,,,,,60fd3c9c198705ab72aa3b68,62bbfafa7a2115799921b550,2022-06-29_19h11.12.697,Colour_Asymmetry_Pilot,2022.1.3,Win32,60.04924038,62bbe60bf3d75ef465d3e404,0,140,140,84,1,threeone,,,,,,,,,,,,,,,,,,,,,,,,,,,,,,,,,,,,,,,,,,,,,,,,,,,,,,,,,,,,,,,,,,,,,,,,,,,,,,,,,,,,,,,,,,,,,,,,,,,,,,,,,,,,,,,,,,,,,,,,,,,,,,,,,,,,,,,,,,,,,,,,,,,,,,,,
,,,,,,60fd3c9c198705ab72aa3b68,62bbfafa7a2115799921b550,2022-06-29_19h11.12.697,Colour_Asymmetry_Pilot,2022.1.3,Win32,60.04924038,62bbe60bf3d75ef465d3e404,0,141,141,140,1,threeone,,,,,,,,,,,,,,,,,,,,,,,,,,,,,,,,,,,,,,,,,,,,,,,,,,,,,,,,,,,,,,,,,,,,,,,,,,,,,,,,,,,,,,,,,,,,,,,,,,,,,,,,,,,,,,,,,,,,,,,,,,,,,,,,,,,,,,,,,,,,,,,,,,,,,,,,
,,,,,,60fd3c9c198705ab72aa3b68,62bbfafa7a2115799921b550,2022-06-29_19h11.12.697,Colour_Asymmetry_Pilot,2022.1.3,Win32,60.04924038,62bbe60bf3d75ef465d3e404,0,142,142,67,1,twofour,,,,,,,,,,,,,,,,,,,,,,,,,,,,,,,,,,,,,,,,,,,,,,,,,,,,,,,,,,,,,,,,,,,,,,,,,,,,,,,,,,,,,,,,,,,,,,,,,,,,,,,,,,,,,,,,,,,,,,,,,,,,,,,,,,,,,,,,,,,,,,,,,,,,,,,,
,,,,,,60fd3c9c198705ab72aa3b68,62bbfafa7a2115799921b550,2022-06-29_19h11.12.697,Colour_Asymmetry_Pilot,2022.1.3,Win32,60.04924038,62bbe60bf3d75ef465d3e404,0,143,143,102,1,fourtwo,,,,,,,,,,,,,,,,,,,,,,,,,,,,,,,,,,,,,,,,,,,,,,,,,,,,,,,,,,,,,,,,,,,,,,,,,,,,,,,,,,,,,,,,,,,,,,,,,,,,,,,,,,,,,,,,,,,,,,,,,,,,,,,,,,,,,,,,,,,,,,,,,,,,,,,,
,,,,,,60fd3c9c198705ab72aa3b68,62bbfafa7a2115799921b550,2022-06-29_19h11.12.697,Colour_Asymmetry_Pilot,2022.1.3,Win32,60.04924038,62bbe60bf3d75ef465d3e404,0,144,144,131,1,twofour,,,,,,,,,,,,,,,,,,,,,,,,,,,,,,,,,,,,,,,,,,,,,,,,,,,,,,,,,,,,,,,,,,,,,,,,,,,,,,,,,,,,,,,,,,,,,,,,,,,,,,,,,,,,,,,,,,,,,,,,,,,,,,,,,,,,,,,,,,,,,,,,,,,,,,,,
,,,,,,60fd3c9c198705ab72aa3b68,62bbfafa7a2115799921b550,2022-06-29_19h11.12.697,Colour_Asymmetry_Pilot,2022.1.3,Win32,60.04924038,62bbe60bf3d75ef465d3e404,0,145,145,28,1,threeone,,,,,,,,,,,,,,,,,,,,,,,,,,,,,,,,,,,,,,,,,,,,,,,,,,,,,,,,,,,,,,,,,,,,,,,,,,,,,,,,,,,,,,,,,,,,,,,,,,,,,,,,,,,,,,,,,,,,,,,,,,,,,,,,,,,,,,,,,,,,,,,,,,,,,,,,
,,,,,,60fd3c9c198705ab72aa3b68,62bbfafa7a2115799921b550,2022-06-29_19h11.12.697,Colour_Asymmetry_Pilot,2022.1.3,Win32,60.04924038,62bbe60bf3d75ef465d3e404,0,146,146,117,1,threefour,,,,,,,,,,,,,,,,,,,,,,,,,,,,,,,,,,,,,,,,,,,,,,,,,,,,,,,,,,,,,,,,,,,,,,,,,,,,,,,,,,,,,,,,,,,,,,,,,,,,,,,,,,,,,,,,,,,,,,,,,,,,,,,,,,,,,,,,,,,,,,,,,,,,,,,,
,,,,,,60fd3c9c198705ab72aa3b68,62bbfafa7a2115799921b550,2022-06-29_19h11.12.697,Colour_Asymmetry_Pilot,2022.1.3,Win32,60.04924038,62bbe60bf3d75ef465d3e404,0,147,147,21,1,threefour,,,,,,,,,,,,,,,,,,,,,,,,,,,,,,,,,,,,,,,,,,,,,,,,,,,,,,,,,,,,,,,,,,,,,,,,,,,,,,,,,,,,,,,,,,,,,,,,,,,,,,,,,,,,,,,,,,,,,,,,,,,,,,,,,,,,,,,,,,,,,,,,,,,,,,,,
,,,,,,60fd3c9c198705ab72aa3b68,62bbfafa7a2115799921b550,2022-06-29_19h11.12.697,Colour_Asymmetry_Pilot,2022.1.3,Win32,60.04924038,62bbe60bf3d75ef465d3e404,0,148,148,43,1,twofour,,,,,,,,,,,,,,,,,,,,,,,,,,,,,,,,,,,,,,,,,,,,,,,,,,,,,,,,,,,,,,,,,,,,,,,,,,,,,,,,,,,,,,,,,,,,,,,,,,,,,,,,,,,,,,,,,,,,,,,,,,,,,,,,,,,,,,,,,,,,,,,,,,,,,,,,
,,,,,,60fd3c9c198705ab72aa3b68,62bbfafa7a2115799921b550,2022-06-29_19h11.12.697,Colour_Asymmetry_Pilot,2022.1.3,Win32,60.04924038,62bbe60bf3d75ef465d3e404,0,149,149,106,1,twoone,,,,,,,,,,,,,,,,,,,,,,,,,,,,,,,,,,,,,,,,,,,,,,,,,,,,,,,,,,,,,,,,,,,,,,,,,,,,,,,,,,,,,,,,,,,,,,,,,,,,,,,,,,,,,,,,,,,,,,,,,,,,,,,,,,,,,,,,,,,,,,,,,,,,,,,,
,,,,,,60fd3c9c198705ab72aa3b68,62bbfafa7a2115799921b550,2022-06-29_19h11.12.697,Colour_Asymmetry_Pilot,2022.1.3,Win32,60.04924038,62bbe60bf3d75ef465d3e404,0,150,150,157,1,threefour,,,,,,,,,,,,,,,,,,,,,,,,,,,,,,,,,,,,,,,,,,,,,,,,,,,,,,,,,,,,,,,,,,,,,,,,,,,,,,,,,,,,,,,,,,,,,,,,,,,,,,,,,,,,,,,,,,,,,,,,,,,,,,,,,,,,,,,,,,,,,,,,,,,,,,,,
,,,,,,60fd3c9c198705ab72aa3b68,62bbfafa7a2115799921b550,2022-06-29_19h11.12.697,Colour_Asymmetry_Pilot,2022.1.3,Win32,60.04924038,62bbe60bf3d75ef465d3e404,0,151,151,83,1,twofour,,,,,,,,,,,,,,,,,,,,,,,,,,,,,,,,,,,,,,,,,,,,,,,,,,,,,,,,,,,,,,,,,,,,,,,,,,,,,,,,,,,,,,,,,,,,,,,,,,,,,,,,,,,,,,,,,,,,,,,,,,,,,,,,,,,,,,,,,,,,,,,,,,,,,,,,
,,,,,,60fd3c9c198705ab72aa3b68,62bbfafa7a2115799921b550,2022-06-29_19h11.12.697,Colour_Asymmetry_Pilot,2022.1.3,Win32,60.04924038,62bbe60bf3d75ef465d3e404,0,152,152,77,1,threefour,,,,,,,,,,,,,,,,,,,,,,,,,,,,,,,,,,,,,,,,,,,,,,,,,,,,,,,,,,,,,,,,,,,,,,,,,,,,,,,,,,,,,,,,,,,,,,,,,,,,,,,,,,,,,,,,,,,,,,,,,,,,,,,,,,,,,,,,,,,,,,,,,,,,,,,,
,,,,,,60fd3c9c198705ab72aa3b68,62bbfafa7a2115799921b550,2022-06-29_19h11.12.697,Colour_Asymmetry_Pilot,2022.1.3,Win32,60.04924038,62bbe60bf3d75ef465d3e404,0,153,153,25,1,onethree,,,,,,,,,,,,,,,,,,,,,,,,,,,,,,,,,,,,,,,,,,,,,,,,,,,,,,,,,,,,,,,,,,,,,,,,,,,,,,,,,,,,,,,,,,,,,,,,,,,,,,,,,,,,,,,,,,,,,,,,,,,,,,,,,,,,,,,,,,,,,,,,,,,,,,,,
,,,,,,60fd3c9c198705ab72aa3b68,62bbfafa7a2115799921b550,2022-06-29_19h11.12.697,Colour_Asymmetry_Pilot,2022.1.3,Win32,60.04924038,62bbe60bf3d75ef465d3e404,0,154,154,153,1,onethree,,,,,,,,,,,,,,,,,,,,,,,,,,,,,,,,,,,,,,,,,,,,,,,,,,,,,,,,,,,,,,,,,,,,,,,,,,,,,,,,,,,,,,,,,,,,,,,,,,,,,,,,,,,,,,,,,,,,,,,,,,,,,,,,,,,,,,,,,,,,,,,,,,,,,,,,
,,,,,,60fd3c9c198705ab72aa3b68,62bbfafa7a2115799921b550,2022-06-29_19h11.12.697,Colour_Asymmetry_Pilot,2022.1.3,Win32,60.04924038,62bbe60bf3d75ef465d3e404,0,155,155,79,1,fourthree,,,,,,,,,,,,,,,,,,,,,,,,,,,,,,,,,,,,,,,,,,,,,,,,,,,,,,,,,,,,,,,,,,,,,,,,,,,,,,,,,,,,,,,,,,,,,,,,,,,,,,,,,,,,,,,,,,,,,,,,,,,,,,,,,,,,,,,,,,,,,,,,,,,,,,,,
,,,,,,60fd3c9c198705ab72aa3b68,62bbfafa7a2115799921b550,2022-06-29_19h11.12.697,Colour_Asymmetry_Pilot,2022.1.3,Win32,60.04924038,62bbe60bf3d75ef465d3e404,0,156,156,133,1,threefour,,,,,,,,,,,,,,,,,,,,,,,,,,,,,,,,,,,,,,,,,,,,,,,,,,,,,,,,,,,,,,,,,,,,,,,,,,,,,,,,,,,,,,,,,,,,,,,,,,,,,,,,,,,,,,,,,,,,,,,,,,,,,,,,,,,,,,,,,,,,,,,,,,,,,,,,
,,,,,,60fd3c9c198705ab72aa3b68,62bbfafa7a2115799921b550,2022-06-29_19h11.12.697,Colour_Asymmetry_Pilot,2022.1.3,Win32,60.04924038,62bbe60bf3d75ef465d3e404,0,157,157,2,1,twoone,,,,,,,,,,,,,,,,,,,,,,,,,,,,,,,,,,,,,,,,,,,,,,,,,,,,,,,,,,,,,,,,,,,,,,,,,,,,,,,,,,,,,,,,,,,,,,,,,,,,,,,,,,,,,,,,,,,,,,,,,,,,,,,,,,,,,,,,,,,,,,,,,,,,,,,,
,,,,,,60fd3c9c198705ab72aa3b68,62bbfafa7a2115799921b550,2022-06-29_19h11.12.697,Colour_Asymmetry_Pilot,2022.1.3,Win32,60.04924038,62bbe60bf3d75ef465d3e404,0,158,158,93,1,threefour,,,,,,,,,,,,,,,,,,,,,,,,,,,,,,,,,,,,,,,,,,,,,,,,,,,,,,,,,,,,,,,,,,,,,,,,,,,,,,,,,,,,,,,,,,,,,,,,,,,,,,,,,,,,,,,,,,,,,,,,,,,,,,,,,,,,,,,,,,,,,,,,,,,,,,,,
,,,,,,60fd3c9c198705ab72aa3b68,62bbfafa7a2115799921b550,2022-06-29_19h11.12.697,Colour_Asymmetry_Pilot,2022.1.3,Win32,60.04924038,62bbe60bf3d75ef465d3e404,0,159,159,135,1,fourthree,,,,,,,,,,,,,,,,,,,,,,,,,,,,,,,,,,,,,,,,,,,,,,,,,,,,,,,,,,,,,,,,,,,,,,,,,,,,,,,,,,,,,,,,,,,,,,,,,,,,,,,,,,,,,,,,,,,,,,,,,,,,,,,,,,,,,,,,,,,,,,,,,,,,,,,,
,,,,,,60fd3c9c198705ab72aa3b68,62bbfafa7a2115799921b550,2022-06-29_19h11.12.697,Colour_Asymmetry_Pilot,2022.1.3,Win32,60.04924038,62bbe60bf3d75ef465d3e404,0,160,160,44,1,threeone,,,,,,,,,,,,,,,,,,,,,,,,,,,,,,,,,,,,,,,,,,,,,,,,,,,,,,,,,,,,,,,,,,,,,,,,,,,,,,,,,,,,,,,,,,,,,,,,,,,,,,,,,,,,,,,,,,,,,,,,,,,,,,,,,,,,,,,,,,,,,,,,,,,,,,,,
,,,,,,60fd3c9c198705ab72aa3b68,62bbfafa7a2115799921b550,2022-06-29_19h11.12.697,Colour_Asymmetry_Pilot,2022.1.3,Win32,60.04924038,62bbe60bf3d75ef465d3e404,0,161,161,57,1,onethree,,,,,,,,,,,,,,,,,,,,,,,,,,,,,,,,,,,,,,,,,,,,,,,,,,,,,,,,,,,,,,,,,,,,,,,,,,,,,,,,,,,,,,,,,,,,,,,,,,,,,,,,,,,,,,,,,,,,,,,,,,,,,,,,,,,,,,,,,,,,,,,,,,,,,,,,
,,,,,,60fd3c9c198705ab72aa3b68,62bbfafa7a2115799921b550,2022-06-29_19h11.12.697,Colour_Asymmetry_Pilot,2022.1.3,Win32,60.04924038,62bbe60bf3d75ef465d3e404,,,,,,,space,3.5968,space,8.0726,space,26.0853,space,8.9152,space,4.2637,space,3.8629,"[0.2862,0.7802,0.3568]",threeone,"[0.9842,0.7409999999999999,-0.6628000000000001]",-2,10.6723,-119,-78,1,0,0,response5disk_5,-3,0,1,0,0,rectangle_8,-3,0,1,0,0,3,-3,0,1,0,0,0,0,0,0,1,,,,,,,,,,,,,,,,,,,,,,,,,,,,,,,,,,,,,,,,,,,,,,,,,,,,,,,,,,,,,,,,,,,,,,,,,,,,,,,,,,,,,,,,,,,,,,,,,,,,,,,,,,,
,,,,,,60fd3c9c198705ab72aa3b68,62bbfafa7a2115799921b550,2022-06-29_19h11.12.697,Colour_Asymmetry_Pilot,2022.1.3,Win32,60.04924038,62bbe60bf3d75ef465d3e404,,,,,,,,,,,,,,,,,,,"[-0.9138,-0.5296000000000001,-0.5529999999999999]",fourthree,"[-0.10599999999999998,-0.15300000000000002,0.15280000000000005]",-2,2.8835,-123,-82,1,0,0,response5disk_5,-4,-6,1,0,0,rectangle_8,102,55,1,0,0,3,-4,-1,1,0,0,1,0,1,0,1,response1disk_7,6,rectangle_4,,,,,,,,,,,,,,,,,,,,,,,,,,,,,,,,,,,,,,,,,,,,,,,,,,,,,,,,,,,,,,,,,,,,,,,,,,,,,,,,,,,,,,,,,,,,,,,,,,,,,,,,
,,,,,,60fd3c9c198705ab72aa3b68,62bbfafa7a2115799921b550,2022-06-29_19h11.12.697,Colour_Asymmetry_Pilot,2022.1.3,Win32,60.04924038,62bbe60bf3d75ef465d3e404,,,,,,,,,,,,,,,,,,,"[-0.6942,-0.7648,-0.12959999999999994]",twoone,"[0.6547999999999998,-0.043199999999999905,-0.011800000000000033]",-2,1.0005,-101,-64,1,0,0,response5disk_5,4,4,1,0,0,rectangle_8,4,4,1,0,0,3,4,4,1,0,0,2,0,2,0,1,,,,,,,,,,,,,,,,,,,,,,,,,,,,,,,,,,,,,,,,,,,,,,,,,,,,,,,,,,,,,,,,,,,,,,,,,,,,,,,,,,,,,,,,,,,,,,,,,,,,,,,,,,,
,,,,,,60fd3c9c198705ab72aa3b68,62bbfafa7a2115799921b550,2022-06-29_19h11.12.697,Colour_Asymmetry_Pilot,2022.1.3,Win32,60.04924038,62bbe60bf3d75ef465d3e404,,,,,,,,,,,,,,,,,,,"[-0.17659999999999998,0.3253999999999999,0.19999999999999996]",fourtwo,"[-0.2942,-0.24719999999999998,-0.357]",1,3.233,26,-92,1,0,0,response3disk_5,-3,-1,1,0,0,rectangle_8,105,45,1,0,0,3,-2,-1,1,0,0,3,0,3,0,1,response1disk_7,6,rectangle_4,,,,,,,,,,,,,,,,,,,,,,,,,,,,,,,,,,,,,,,,,,,,,,,,,,,,,,,,,,,,,,,,,,,,,,,,,,,,,,,,,,,,,,,,,,,,,,,,,,,,,,,,
,,,,,,60fd3c9c198705ab72aa3b68,62bbfafa7a2115799921b550,2022-06-29_19h11.12.697,Colour_Asymmetry_Pilot,2022.1.3,Win32,60.04924038,62bbe60bf3d75ef465d3e404,,,,,,,,,,,,,,,,,,,"[0.7802,-0.23140000000000005,-0.20799999999999996]",onethree,"[0.12939999999999996,-0.2864,0.3253999999999999]",-1,1.184,-58,-86,1,0,0,response5disk_5,-4,-4,1,0,0,rectangle_8,-4,-4,1,0,0,3,-4,-4,1,0,0,4,0,4,0,1,,,,,,,,,,,,,,,,,,,,,,,,,,,,,,,,,,,,,,,,,,,,,,,,,,,,,,,,,,,,,,,,,,,,,,,,,,,,,,,,,,,,,,,,,,,,,,,,,,,,,,,,,,,
,,,,,,60fd3c9c198705ab72aa3b68,62bbfafa7a2115799921b550,2022-06-29_19h11.12.697,Colour_Asymmetry_Pilot,2022.1.3,Win32,60.04924038,62bbe60bf3d75ef465d3e404,,,,,,,,,,,,,,,,,,,"[0.34099999999999997,0.12939999999999996,-0.9766]",onethree,"[0.3568,-0.20799999999999996,-0.9844]",2,2.3666,95,-37,1,0,0,response3disk_5,-5,-3,1,0,0,rectangle_8,-5,-3,1,0,0,3,-5,-3,1,0,0,5,0,5,0,1,,,,,,,,,,,,,,,,,,,,,,,,,,,,,,,,,,,,,,,,,,,,,,,,,,,,,,,,,,,,,,,,,,,,,,,,,,,,,,,,,,,,,,,,,,,,,,,,,,,,,,,,,,,
,,,,,,60fd3c9c198705ab72aa3b68,62bbfafa7a2115799921b550,2022-06-29_19h11.12.697,Colour_Asymmetry_Pilot,2022.1.3,Win32,60.04924038,62bbe60bf3d75ef465d3e404,,,,,,,,,,,,,,,,,,,"[0.9842,0.7409999999999999,-0.6628000000000001]",fourtwo,"[-0.01980000000000004,-0.5138,-0.38039999999999996]",-4,1.6169,-59,80,1,0,0,response7disk_5,1,-5,1,0,0,rectangle_8,1,-5,1,0,0,3,1,-5,1,0,0,6,0,6,0,1,,,,,,,,,,,,,,,,,,,,,,,,,,,,,,,,,,,,,,,,,,,,,,,,,,,,,,,,,,,,,,,,,,,,,,,,,,,,,,,,,,,,,,,,,,,,,,,,,,,,,,,,,,,
,,,,,,60fd3c9c198705ab72aa3b68,62bbfafa7a2115799921b550,2022-06-29_19h11.12.697,Colour_Asymmetry_Pilot,2022.1.3,Win32,60.04924038,62bbe60bf3d75ef465d3e404,,,,,,,,,,,,,,,,,,,,twoone,,-3,0.8176,,,,,,,,,,,,,,,,,,,,,,,,,,,,,,,,space,3.2929,"[0.3802000000000001,0.19199999999999995,-0.6394]","[-0.050999999999999934,-0.6706000000000001,-0.804]",-85,46,1,0,0,response7disk,-6,-2,1,0,0,rectangle,-6,-2,1,0,0,,1,0.0038,0,-6,-2,1,0,0,0,0,0,151,1,70,second,,,,,,,,,,,,,,,,,,,,,,,,,,,,,,,,,,,,,,,,,,,,,,,,,,,,,,,,,,,,,,,,,,,
,,,,,,60fd3c9c198705ab72aa3b68,62bbfafa7a2115799921b550,2022-06-29_19h11.12.697,Colour_Asymmetry_Pilot,2022.1.3,Win32,60.04924038,62bbe60bf3d75ef465d3e404,,,,,,,,,,,,,,,,,,,,twofour,,-4,0.5497,,,,,,,,,,,,,,,,,,,,,,,,,,,,,,,,,,"[0.19199999999999995,0.18419999999999992,0.5136000000000001]","[0.22340000000000004,-0.9296,-0.7884]",-58,81,1,0,0,response7disk,-2,-7,1,0,0,rectangle,-2,-7,1,0,0,,3,0.0021,0,-2,-7,1,0,0,0,1,1,60,1,60,first,,,,,,,,,,,,,,,,,,,,,,,,,,,,,,,,,,,,,,,,,,,,,,,,,,,,,,,,,,,,,,,,,,,
,,,,,,60fd3c9c198705ab72aa3b68,62bbfafa7a2115799921b550,2022-06-29_19h11.12.697,Colour_Asymmetry_Pilot,2022.1.3,Win32,60.04924038,62bbe60bf3d75ef465d3e404,,,,,,,,,,,,,,,,,,,,onetwo,,-3,0.5167,,,,,,,,,,,,,,,,,,,,,,,,,,,,,,,,,,"[-0.011800000000000033,-0.906,-0.45100000000000007]","[-0.8982,-0.37259999999999993,0.2784]",-88,50,1,0,0,response7disk,-2,-4,1,0,0,rectangle,-2,-4,1,0,0,,3,0.0005,0,-2,-4,1,0,0,0,2,2,77,1,77,first,,,,,,,,,,,,,,,,,,,,,,,,,,,,,,,,,,,,,,,,,,,,,,,,,,,,,,,,,,,,,,,,,,,
,,,,,,60fd3c9c198705ab72aa3b68,62bbfafa7a2115799921b550,2022-06-29_19h11.12.697,Colour_Asymmetry_Pilot,2022.1.3,Win32,60.04924038,62bbe60bf3d75ef465d3e404,,,,,,,,,,,,,,,,,,,,fourthree,,-4,0.3679,,,,,,,,,,,,,,,,,,,,,,,,,,,,,,,,,,"[0.34099999999999997,0.5841999999999998,-0.9844]","[0.7176,-0.906,-0.6864]",-47,73,1,0,0,response7disk,-1,-8,1,0,0,rectangle,43,-100,1,0,0,1,1,2.065,1,-3,-1,1,0,0,0,3,3,76,1,76,first,response3disk_3,rectangle,,,,,,,,,,,,,,,,,,,,,,,,,,,,,,,,,,,,,,,,,,,,,,,,,,,,,,,,,,,,,,,,,
,,,,,,60fd3c9c198705ab72aa3b68,62bbfafa7a2115799921b550,2022-06-29_19h11.12.697,Colour_Asymmetry_Pilot,2022.1.3,Win32,60.04924038,62bbe60bf3d75ef465d3e404,,,,,,,,,,,,,,,,,,,,onethree,,-1,1.1002,,,,,,,,,,,,,,,,,,,,,,,,,,,,,,,,,,"[-0.4746,-0.0354000000000001,0.5449999999999999]","[0.12939999999999996,-0.2864,0.3253999999999999]",-50,-85,1,0,0,response5disk,-1,2,1,0,0,rectangle,-1,2,1,0,0,1,3,0.0021,0,-1,2,1,0,0,0,4,4,100,1,19,second,,,,,,,,,,,,,,,,,,,,,,,,,,,,,,,,,,,,,,,,,,,,,,,,,,,,,,,,,,,,,,,,,,,
,,,,,,60fd3c9c198705ab72aa3b68,62bbfafa7a2115799921b550,2022-06-29_19h11.12.697,Colour_Asymmetry_Pilot,2022.1.3,Win32,60.04924038,62bbe60bf3d75ef465d3e404,,,,,,,,,,,,,,,,,,,,threeone,,-1,0.4998,,,,,,,,,,,,,,,,,,,,,,,,,,,,,,,,,,"[-0.34920000000000007,-0.702,-0.5216]","[-0.6235999999999999,-0.6786,-0.08239999999999992]",-50,-87,1,0,0,response5disk,-1,6,1,0,0,rectangle,-1,6,1,0,0,1,3,0.0006,0,-1,6,1,0,0,0,5,5,20,1,20,first,,,,,,,,,,,,,,,,,,,,,,,,,,,,,,,,,,,,,,,,,,,,,,,,,,,,,,,,,,,,,,,,,,,
,,,,,,60fd3c9c198705ab72aa3b68,62bbfafa7a2115799921b550,2022-06-29_19h11.12.697,Colour_Asymmetry_Pilot,2022.1.3,Win32,60.04924038,62bbe60bf3d75ef465d3e404,,,,,,,,,,,,,,,,,,,,twofour,,-1,0.5009,,,,,,,,,,,,,,,,,,,,,,,,,,,,,,,,,,"[0.40379999999999994,0.09000000000000008,0.44300000000000006]","[0.8115999999999999,-0.0040000000000000036,-0.09819999999999995]",-59,-86,1,0,0,response5disk,-1,-4,1,0,0,rectangle,-1,-4,1,0,0,1,2,0.0012,0,-1,-4,1,0,0,0,6,6,6,1,6,first,,,,,,,,,,,,,,,,,,,,,,,,,,,,,,,,,,,,,,,,,,,,,,,,,,,,,,,,,,,,,,,,,,,
,,,,,,60fd3c9c198705ab72aa3b68,62bbfafa7a2115799921b550,2022-06-29_19h11.12.697,Colour_Asymmetry_Pilot,2022.1.3,Win32,60.04924038,62bbe60bf3d75ef465d3e404,,,,,,,,,,,,,,,,,,,,fourtwo,,-4,0.3672,,,,,,,,,,,,,,,,,,,,,,,,,,,,,,,,,,"[-0.8198,-0.5138,-0.7492000000000001]","[0.9372,0.20779999999999998,0.2704]",-43,66,1,0,0,response7disk,1,0,1,0,0,rectangle,1,0,1,0,0,1,1,0.0015,0,1,0,1,0,0,0,7,7,155,1,74,second,,,,,,,,,,,,,,,,,,,,,,,,,,,,,,,,,,,,,,,,,,,,,,,,,,,,,,,,,,,,,,,,,,,
,,,,,,60fd3c9c198705ab72aa3b68,62bbfafa7a2115799921b550,2022-06-29_19h11.12.697,Colour_Asymmetry_Pilot,2022.1.3,Win32,60.04924038,62bbe60bf3d75ef465d3e404,,,,,,,,,,,,,,,,,,,,fourtwo,,-4,0.3488,,,,,,,,,,,,,,,,,,,,,,,,,,,,,,,,,,"[-0.4668,-0.8746,-0.2942]","[0.34099999999999997,0.5841999999999998,-0.9844]",-35,76,1,0,0,response7disk,0,-2,1,0,0,rectangle,0,-2,1,0,0,1,3,0.0038,0,0,-2,1,0,0,0,8,8,110,1,29,second,,,,,,,,,,,,,,,,,,,,,,,,,,,,,,,,,,,,,,,,,,,,,,,,,,,,,,,,,,,,,,,,,,,
,,,,,,60fd3c9c198705ab72aa3b68,62bbfafa7a2115799921b550,2022-06-29_19h11.12.697,Colour_Asymmetry_Pilot,2022.1.3,Win32,60.04924038,62bbe60bf3d75ef465d3e404,,,,,,,,,,,,,,,,,,,,onetwo,,1,1.0834,,,,,,,,,,,,,,,,,,,,,,,,,,,,,,,,,,"[0.37240000000000006,-0.050999999999999934,-0.5216]","[0.9763999999999999,-0.1137999999999999,-0.6314]",33,-106,1,0,0,response3disk,5,1,1,0,0,rectangle,5,1,1,0,0,1,2,0.0018,0,5,1,1,0,0,0,9,9,14,1,14,first,,,,,,,,,,,,,,,,,,,,,,,,,,,,,,,,,,,,,,,,,,,,,,,,,,,,,,,,,,,,,,,,,,,
,,,,,,60fd3c9c198705ab72aa3b68,62bbfafa7a2115799921b550,2022-06-29_19h11.12.697,Colour_Asymmetry_Pilot,2022.1.3,Win32,60.04924038,62bbe60bf3d75ef465d3e404,,,,,,,,,,,,,,,,,,,,threeone,,-4,0.3487,,,,,,,,,,,,,,,,,,,,,,,,,,,,,,,,,,"[0.30180000000000007,-0.7884,-0.9844]","[-0.4902000000000001,0.2704,-0.45899999999999996]",-38,84,1,0,0,response7disk,3,5,1,0,0,rectangle,3,5,1,0,0,1,1,0.0016,0,3,5,1,0,0,0,10,10,41,1,41,first,,,,,,,,,,,,,,,,,,,,,,,,,,,,,,,,,,,,,,,,,,,,,,,,,,,,,,,,,,,,,,,,,,,
,,,,,,60fd3c9c198705ab72aa3b68,62bbfafa7a2115799921b550,2022-06-29_19h11.12.697,Colour_Asymmetry_Pilot,2022.1.3,Win32,60.04924038,62bbe60bf3d75ef465d3e404,,,,,,,,,,,,,,,,,,,,fourthree,,-3,0.7002,,,,,,,,,,,,,,,,,,,,,,,,,,,,,,,,,,"[0.7176,-0.906,-0.6864]","[-0.2942,-0.24719999999999998,-0.357]",-84,39,1,0,0,response7disk,2,-3,1,0,0,rectangle,2,-3,1,0,0,1,3,0.0022,0,2,-3,1,0,0,0,11,11,93,1,12,second,,,,,,,,,,,,,,,,,,,,,,,,,,,,,,,,,,,,,,,,,,,,,,,,,,,,,,,,,,,,,,,,,,,
,,,,,,60fd3c9c198705ab72aa3b68,62bbfafa7a2115799921b550,2022-06-29_19h11.12.697,Colour_Asymmetry_Pilot,2022.1.3,Win32,60.04924038,62bbe60bf3d75ef465d3e404,,,,,,,,,,,,,,,,,,,,twoone,,-2,0.5834,,,,,,,,,,,,,,,,,,,,,,,,,,,,,,,,,,"[0.37240000000000006,-0.050999999999999934,-0.5216]","[0.34099999999999997,0.5841999999999998,-0.9844]",-68,-50,1,0,0,response5disk,2,-6,1,0,0,rectangle,2,-6,1,0,0,1,2,0.001,0,2,-6,1,0,0,0,12,12,96,1,15,second,,,,,,,,,,,,,,,,,,,,,,,,,,,,,,,,,,,,,,,,,,,,,,,,,,,,,,,,,,,,,,,,,,,
,,,,,,60fd3c9c198705ab72aa3b68,62bbfafa7a2115799921b550,2022-06-29_19h11.12.697,Colour_Asymmetry_Pilot,2022.1.3,Win32,60.04924038,62bbe60bf3d75ef465d3e404,,,,,,,,,,,,,,,,,,,,twofour,,-2,0.8833,,,,,,,,,,,,,,,,,,,,,,,,,,,,,,,,,,"[-0.4902000000000001,0.2704,-0.45899999999999996]","[-0.9138,-0.5296000000000001,-0.5529999999999999]",-88,-35,1,0,0,response5disk,1,3,1,0,0,rectangle,1,3,1,0,0,1,2,0.0004,0,1,3,1,0,0,0,13,13,0,1,0,first,,,,,,,,,,,,,,,,,,,,,,,,,,,,,,,,,,,,,,,,,,,,,,,,,,,,,,,,,,,,,,,,,,,
,,,,,,60fd3c9c198705ab72aa3b68,62bbfafa7a2115799921b550,2022-06-29_19h11.12.697,Colour_Asymmetry_Pilot,2022.1.3,Win32,60.04924038,62bbe60bf3d75ef465d3e404,,,,,,,,,,,,,,,,,,,,twoone,,-1,0.9831,,,,,,,,,,,,,,,,,,,,,,,,,,,,,,,,,,"[0.3881999999999999,-0.23939999999999995,-0.05040000000000011]","[-0.0040000000000000036,0.02739999999999987,-0.08239999999999992]",-43,-94,1,0,0,response5disk,0,-7,1,0,0,rectangle,0,-7,1,0,0,1,2,0.0004,0,0,-7,1,0,0,0,14,14,98,1,17,second,,,,,,,,,,,,,,,,,,,,,,,,,,,,,,,,,,,,,,,,,,,,,,,,,,,,,,,,,,,,,,,,,,,
,,,,,,60fd3c9c198705ab72aa3b68,62bbfafa7a2115799921b550,2022-06-29_19h11.12.697,Colour_Asymmetry_Pilot,2022.1.3,Win32,60.04924038,62bbe60bf3d75ef465d3e404,,,,,,,,,,,,,,,,,,,,onetwo,,-2,0.5335,,,,,,,,,,,,,,,,,,,,,,,,,,,,,,,,,,"[0.40379999999999994,0.09000000000000008,0.44300000000000006]","[-0.2942,-0.24719999999999998,-0.357]",-92,-44,1,0,0,response5disk,-3,0,1,0,0,rectangle,-3,0,1,0,0,1,3,0.0017,0,-3,0,1,0,0,0,15,15,65,1,65,first,,,,,,,,,,,,,,,,,,,,,,,,,,,,,,,,,,,,,,,,,,,,,,,,,,,,,,,,,,,,,,,,,,,
,,,,,,60fd3c9c198705ab72aa3b68,62bbfafa7a2115799921b550,2022-06-29_19h11.12.697,Colour_Asymmetry_Pilot,2022.1.3,Win32,60.04924038,62bbe60bf3d75ef465d3e404,,,,,,,,,,,,,,,,,,,,threeone,,-1,0.4667,,,,,,,,,,,,,,,,,,,,,,,,,,,,,,,,,,"[0.40379999999999994,0.09000000000000008,0.44300000000000006]","[-0.6,0.16860000000000008,0.44300000000000006]",-52,-80,1,0,0,response5disk,-6,-10,1,0,0,rectangle,-6,-10,1,0,0,1,1,0.0012,0,-6,-10,1,0,0,0,16,16,10,1,10,first,,,,,,,,,,,,,,,,,,,,,,,,,,,,,,,,,,,,,,,,,,,,,,,,,,,,,,,,,,,,,,,,,,,
,,,,,,60fd3c9c198705ab72aa3b68,62bbfafa7a2115799921b550,2022-06-29_19h11.12.697,Colour_Asymmetry_Pilot,2022.1.3,Win32,60.04924038,62bbe60bf3d75ef465d3e404,,,,,,,,,,,,,,,,,,,,threeone,,-1,0.7164,,,,,,,,,,,,,,,,,,,,,,,,,,,,,,,,,,"[0.37240000000000006,0.4980000000000002,-0.2864]","[0.9763999999999999,0.30979999999999985,-0.6786]",-62,-121,1,0,0,response5disk,-5,-16,1,0,0,rectangle,-5,-16,1,0,0,1,2,0.0012,0,-5,-16,1,0,0,0,17,17,27,1,27,first,,,,,,,,,,,,,,,,,,,,,,,,,,,,,,,,,,,,,,,,,,,,,,,,,,,,,,,,,,,,,,,,,,,
,,,,,,60fd3c9c198705ab72aa3b68,62bbfafa7a2115799921b550,2022-06-29_19h11.12.697,Colour_Asymmetry_Pilot,2022.1.3,Win32,60.04924038,62bbe60bf3d75ef465d3e404,,,,,,,,,,,,,,,,,,,,fourtwo,,-4,0.4333,,,,,,,,,,,,,,,,,,,,,,,,,,,,,,,,,,"[-0.01980000000000004,-0.5138,-0.38039999999999996]","[1,0.12939999999999996,-1]",-50,51,1,0,0,response7disk,-15,-17,1,0,0,rectangle,-15,-17,1,0,0,1,1,0.0017,0,-15,-17,1,0,0,0,18,18,140,1,59,second,,,,,,,,,,,,,,,,,,,,,,,,,,,,,,,,,,,,,,,,,,,,,,,,,,,,,,,,,,,,,,,,,,,
,,,,,,60fd3c9c198705ab72aa3b68,62bbfafa7a2115799921b550,2022-06-29_19h11.12.697,Colour_Asymmetry_Pilot,2022.1.3,Win32,60.04924038,62bbe60bf3d75ef465d3e404,,,,,,,,,,,,,,,,,,,,fourtwo,,-1,0.4165,,,,,,,,,,,,,,,,,,,,,,,,,,,,,,,,,,"[-0.8982,-0.37259999999999993,0.2784]","[-0.9216,-0.5529999999999999,-0.3962]",-63,-83,1,0,0,response5disk,-8,1,1,0,0,rectangle,-8,1,1,0,0,1,1,0.0003,0,-8,1,1,0,0,0,19,19,3,1,3,first,,,,,,,,,,,,,,,,,,,,,,,,,,,,,,,,,,,,,,,,,,,,,,,,,,,,,,,,,,,,,,,,,,,
,,,,,,60fd3c9c198705ab72aa3b68,62bbfafa7a2115799921b550,2022-06-29_19h11.12.697,Colour_Asymmetry_Pilot,2022.1.3,Win32,60.04924038,62bbe60bf3d75ef465d3e404,,,,,,,,,,,,,,,,,,,,fourthree,,-1,0.6168,,,,,,,,,,,,,,,,,,,,,,,,,,,,,,,,,,"[-0.2942,-0.24719999999999998,-0.357]","[0.9686000000000001,0.5763999999999998,0.11359999999999992]",-31,-86,1,0,0,response5disk,2,-5,1,0,0,rectangle,2,-5,1,0,0,1,1,0.0003,0,2,-5,1,0,0,0,20,20,120,1,39,second,,,,,,,,,,,,,,,,,,,,,,,,,,,,,,,,,,,,,,,,,,,,,,,,,,,,,,,,,,,,,,,,,,,
