trials.thisRepN,trials.thisTrialN,trials.thisN,trials.thisIndex,trials.ran,Colourcodes,participant,session,date,expName,psychopyVersion,OS,frameRate,study_id,trials_4.thisRepN,trials_4.thisTrialN,trials_4.thisN,trials_4.thisIndex,trials_4.ran,StimulusPos,key_resp.keys,key_resp.rt,key_resp_2.keys,key_resp_2.rt,key_resp_15.keys,key_resp_15.rt,key_resp_17.keys,key_resp_17.rt,key_resp_9.keys,key_resp_9.rt,key_resp_10.keys,key_resp_10.rt,Circle1_col,Ecc,Circle2_col,similarity,response_time,mouse_5.x,mouse_5.y,mouse_5.leftButton,mouse_5.midButton,mouse_5.rightButton,mouse_5.clicked_name,mouse_10.x,mouse_10.y,mouse_10.leftButton,mouse_10.midButton,mouse_10.rightButton,mouse_10.clicked_name,mouse_7.x,mouse_7.y,mouse_7.leftButton,mouse_7.midButton,mouse_7.rightButton,mouse_7.clicked_name,catchprac,catchnumberprac,mouse_6.x,mouse_6.y,mouse_6.leftButton,mouse_6.midButton,mouse_6.rightButton,mouse_6.clicked_name,duringprac.thisRepN,duringprac.thisTrialN,duringprac.thisN,duringprac.thisIndex,duringprac.ran,key_resp_22.keys,key_resp_22.rt,Circle1_colour,Circle2_colour,mouse.x,mouse.y,mouse.leftButton,mouse.midButton,mouse.rightButton,mouse.clicked_name,mouse_2.x,mouse_2.y,mouse_2.leftButton,mouse_2.midButton,mouse_2.rightButton,mouse_2.clicked_name,mouse_3.x,mouse_3.y,mouse_3.leftButton,mouse_3.midButton,mouse_3.rightButton,catchresponse,catchnumber,response_time_catch,Catch,mouse_11.x,mouse_11.y,mouse_11.leftButton,mouse_11.midButton,mouse_11.rightButton,trials_2.thisRepN,trials_2.thisTrialN,trials_2.thisN,trials_2.thisIndex,trials_2.ran,Colourpair,Temporder,mouse_3.clicked_name,mouse_11.clicked_name,trials_3.thisRepN,trials_3.thisTrialN,trials_3.thisN,trials_3.thisIndex,trials_3.ran,key_resp_instr_Ishi.keys,key_resp_instr_Ishi.rt,Ishi_trial_keyresp.keys,Ishi_trial_keyresp.rt,Ishi_textbox.text,Ishi_loop.thisRepN,Ishi_loop.thisTrialN,Ishi_loop.thisN,Ishi_loop.thisIndex,Ishi_loop.ran,imageaddress,textbox.text,mouse_4.x,mouse_4.y,mouse_4.leftButton,mouse_4.midButton,mouse_4.rightButton,mouse_4.clicked_name,textbox_2.text,mouse_8.x,mouse_8.y,mouse_8.leftButton,mouse_8.midButton,mouse_8.rightButton,mouse_8.clicked_name,textbox_3.text,mouse_9.x,mouse_9.y,mouse_9.leftButton,mouse_9.midButton,mouse_9.rightButton,mouse_9.clicked_name,textbox_4.text,mouse_12.x,mouse_12.y,mouse_12.leftButton,mouse_12.midButton,mouse_12.rightButton,mouse_12.clicked_name,textbox_5.text,mouse_13.x,mouse_13.y,mouse_13.leftButton,mouse_13.midButton,mouse_13.rightButton,mouse_13.clicked_name,textbox_6.text,mouse_14.x,mouse_14.y,mouse_14.leftButton,mouse_14.midButton,mouse_14.rightButton,mouse_14.clicked_name,textbox_7.text,mouse_15.x,mouse_15.y,mouse_15.leftButton,mouse_15.midButton,mouse_15.rightButton,mouse_15.clicked_name
0,0,0,57,1,,615b38fbee37c31346d21b1c,62bbf953bb9736d56fd3e424,2022-06-29_09h08.01.218,Colour_Asymmetry_Pilot,2022.1.3,Win32,59.95203837,62bbe60bf3d75ef465d3e404,,,,,,,,,,,,,,,,,,,,,,,,,,,,,,,,,,,,,,,,,,,,,,,,,,,,,,,,,,,,,,,,,,,,,,,,,,,,,,,,,,,,,,,,,,,,,,,,,,,,,,,,,,,,,,,,,,,,,,,,,,,,,,,,,,,,,,,,,,,,,,,,,,,,,,,,,,,,,,
0,1,1,12,1,,615b38fbee37c31346d21b1c,62bbf953bb9736d56fd3e424,2022-06-29_09h08.01.218,Colour_Asymmetry_Pilot,2022.1.3,Win32,59.95203837,62bbe60bf3d75ef465d3e404,,,,,,,,,,,,,,,,,,,,,,,,,,,,,,,,,,,,,,,,,,,,,,,,,,,,,,,,,,,,,,,,,,,,,,,,,,,,,,,,,,,,,,,,,,,,,,,,,,,,,,,,,,,,,,,,,,,,,,,,,,,,,,,,,,,,,,,,,,,,,,,,,,,,,,,,,,,,,,
0,2,2,81,1,,615b38fbee37c31346d21b1c,62bbf953bb9736d56fd3e424,2022-06-29_09h08.01.218,Colour_Asymmetry_Pilot,2022.1.3,Win32,59.95203837,62bbe60bf3d75ef465d3e404,,,,,,,,,,,,,,,,,,,,,,,,,,,,,,,,,,,,,,,,,,,,,,,,,,,,,,,,,,,,,,,,,,,,,,,,,,,,,,,,,,,,,,,,,,,,,,,,,,,,,,,,,,,,,,,,,,,,,,,,,,,,,,,,,,,,,,,,,,,,,,,,,,,,,,,,,,,,,,
0,3,3,62,1,,615b38fbee37c31346d21b1c,62bbf953bb9736d56fd3e424,2022-06-29_09h08.01.218,Colour_Asymmetry_Pilot,2022.1.3,Win32,59.95203837,62bbe60bf3d75ef465d3e404,,,,,,,,,,,,,,,,,,,,,,,,,,,,,,,,,,,,,,,,,,,,,,,,,,,,,,,,,,,,,,,,,,,,,,,,,,,,,,,,,,,,,,,,,,,,,,,,,,,,,,,,,,,,,,,,,,,,,,,,,,,,,,,,,,,,,,,,,,,,,,,,,,,,,,,,,,,,,,
0,4,4,76,1,,615b38fbee37c31346d21b1c,62bbf953bb9736d56fd3e424,2022-06-29_09h08.01.218,Colour_Asymmetry_Pilot,2022.1.3,Win32,59.95203837,62bbe60bf3d75ef465d3e404,,,,,,,,,,,,,,,,,,,,,,,,,,,,,,,,,,,,,,,,,,,,,,,,,,,,,,,,,,,,,,,,,,,,,,,,,,,,,,,,,,,,,,,,,,,,,,,,,,,,,,,,,,,,,,,,,,,,,,,,,,,,,,,,,,,,,,,,,,,,,,,,,,,,,,,,,,,,,,
0,5,5,87,1,,615b38fbee37c31346d21b1c,62bbf953bb9736d56fd3e424,2022-06-29_09h08.01.218,Colour_Asymmetry_Pilot,2022.1.3,Win32,59.95203837,62bbe60bf3d75ef465d3e404,,,,,,,,,,,,,,,,,,,,,,,,,,,,,,,,,,,,,,,,,,,,,,,,,,,,,,,,,,,,,,,,,,,,,,,,,,,,,,,,,,,,,,,,,,,,,,,,,,,,,,,,,,,,,,,,,,,,,,,,,,,,,,,,,,,,,,,,,,,,,,,,,,,,,,,,,,,,,,
0,6,6,16,1,,615b38fbee37c31346d21b1c,62bbf953bb9736d56fd3e424,2022-06-29_09h08.01.218,Colour_Asymmetry_Pilot,2022.1.3,Win32,59.95203837,62bbe60bf3d75ef465d3e404,,,,,,,,,,,,,,,,,,,,,,,,,,,,,,,,,,,,,,,,,,,,,,,,,,,,,,,,,,,,,,,,,,,,,,,,,,,,,,,,,,,,,,,,,,,,,,,,,,,,,,,,,,,,,,,,,,,,,,,,,,,,,,,,,,,,,,,,,,,,,,,,,,,,,,,,,,,,,,
0,7,7,37,1,,615b38fbee37c31346d21b1c,62bbf953bb9736d56fd3e424,2022-06-29_09h08.01.218,Colour_Asymmetry_Pilot,2022.1.3,Win32,59.95203837,62bbe60bf3d75ef465d3e404,,,,,,,,,,,,,,,,,,,,,,,,,,,,,,,,,,,,,,,,,,,,,,,,,,,,,,,,,,,,,,,,,,,,,,,,,,,,,,,,,,,,,,,,,,,,,,,,,,,,,,,,,,,,,,,,,,,,,,,,,,,,,,,,,,,,,,,,,,,,,,,,,,,,,,,,,,,,,,
0,8,8,40,1,,615b38fbee37c31346d21b1c,62bbf953bb9736d56fd3e424,2022-06-29_09h08.01.218,Colour_Asymmetry_Pilot,2022.1.3,Win32,59.95203837,62bbe60bf3d75ef465d3e404,,,,,,,,,,,,,,,,,,,,,,,,,,,,,,,,,,,,,,,,,,,,,,,,,,,,,,,,,,,,,,,,,,,,,,,,,,,,,,,,,,,,,,,,,,,,,,,,,,,,,,,,,,,,,,,,,,,,,,,,,,,,,,,,,,,,,,,,,,,,,,,,,,,,,,,,,,,,,,
0,9,9,27,1,,615b38fbee37c31346d21b1c,62bbf953bb9736d56fd3e424,2022-06-29_09h08.01.218,Colour_Asymmetry_Pilot,2022.1.3,Win32,59.95203837,62bbe60bf3d75ef465d3e404,,,,,,,,,,,,,,,,,,,,,,,,,,,,,,,,,,,,,,,,,,,,,,,,,,,,,,,,,,,,,,,,,,,,,,,,,,,,,,,,,,,,,,,,,,,,,,,,,,,,,,,,,,,,,,,,,,,,,,,,,,,,,,,,,,,,,,,,,,,,,,,,,,,,,,,,,,,,,,
0,10,10,88,1,,615b38fbee37c31346d21b1c,62bbf953bb9736d56fd3e424,2022-06-29_09h08.01.218,Colour_Asymmetry_Pilot,2022.1.3,Win32,59.95203837,62bbe60bf3d75ef465d3e404,,,,,,,,,,,,,,,,,,,,,,,,,,,,,,,,,,,,,,,,,,,,,,,,,,,,,,,,,,,,,,,,,,,,,,,,,,,,,,,,,,,,,,,,,,,,,,,,,,,,,,,,,,,,,,,,,,,,,,,,,,,,,,,,,,,,,,,,,,,,,,,,,,,,,,,,,,,,,,
0,11,11,84,1,,615b38fbee37c31346d21b1c,62bbf953bb9736d56fd3e424,2022-06-29_09h08.01.218,Colour_Asymmetry_Pilot,2022.1.3,Win32,59.95203837,62bbe60bf3d75ef465d3e404,,,,,,,,,,,,,,,,,,,,,,,,,,,,,,,,,,,,,,,,,,,,,,,,,,,,,,,,,,,,,,,,,,,,,,,,,,,,,,,,,,,,,,,,,,,,,,,,,,,,,,,,,,,,,,,,,,,,,,,,,,,,,,,,,,,,,,,,,,,,,,,,,,,,,,,,,,,,,,
0,12,12,25,1,,615b38fbee37c31346d21b1c,62bbf953bb9736d56fd3e424,2022-06-29_09h08.01.218,Colour_Asymmetry_Pilot,2022.1.3,Win32,59.95203837,62bbe60bf3d75ef465d3e404,,,,,,,,,,,,,,,,,,,,,,,,,,,,,,,,,,,,,,,,,,,,,,,,,,,,,,,,,,,,,,,,,,,,,,,,,,,,,,,,,,,,,,,,,,,,,,,,,,,,,,,,,,,,,,,,,,,,,,,,,,,,,,,,,,,,,,,,,,,,,,,,,,,,,,,,,,,,,,
0,13,13,85,1,,615b38fbee37c31346d21b1c,62bbf953bb9736d56fd3e424,2022-06-29_09h08.01.218,Colour_Asymmetry_Pilot,2022.1.3,Win32,59.95203837,62bbe60bf3d75ef465d3e404,,,,,,,,,,,,,,,,,,,,,,,,,,,,,,,,,,,,,,,,,,,,,,,,,,,,,,,,,,,,,,,,,,,,,,,,,,,,,,,,,,,,,,,,,,,,,,,,,,,,,,,,,,,,,,,,,,,,,,,,,,,,,,,,,,,,,,,,,,,,,,,,,,,,,,,,,,,,,,
0,14,14,58,1,,615b38fbee37c31346d21b1c,62bbf953bb9736d56fd3e424,2022-06-29_09h08.01.218,Colour_Asymmetry_Pilot,2022.1.3,Win32,59.95203837,62bbe60bf3d75ef465d3e404,,,,,,,,,,,,,,,,,,,,,,,,,,,,,,,,,,,,,,,,,,,,,,,,,,,,,,,,,,,,,,,,,,,,,,,,,,,,,,,,,,,,,,,,,,,,,,,,,,,,,,,,,,,,,,,,,,,,,,,,,,,,,,,,,,,,,,,,,,,,,,,,,,,,,,,,,,,,,,
0,15,15,10,1,,615b38fbee37c31346d21b1c,62bbf953bb9736d56fd3e424,2022-06-29_09h08.01.218,Colour_Asymmetry_Pilot,2022.1.3,Win32,59.95203837,62bbe60bf3d75ef465d3e404,,,,,,,,,,,,,,,,,,,,,,,,,,,,,,,,,,,,,,,,,,,,,,,,,,,,,,,,,,,,,,,,,,,,,,,,,,,,,,,,,,,,,,,,,,,,,,,,,,,,,,,,,,,,,,,,,,,,,,,,,,,,,,,,,,,,,,,,,,,,,,,,,,,,,,,,,,,,,,
0,16,16,55,1,,615b38fbee37c31346d21b1c,62bbf953bb9736d56fd3e424,2022-06-29_09h08.01.218,Colour_Asymmetry_Pilot,2022.1.3,Win32,59.95203837,62bbe60bf3d75ef465d3e404,,,,,,,,,,,,,,,,,,,,,,,,,,,,,,,,,,,,,,,,,,,,,,,,,,,,,,,,,,,,,,,,,,,,,,,,,,,,,,,,,,,,,,,,,,,,,,,,,,,,,,,,,,,,,,,,,,,,,,,,,,,,,,,,,,,,,,,,,,,,,,,,,,,,,,,,,,,,,,
0,17,17,49,1,,615b38fbee37c31346d21b1c,62bbf953bb9736d56fd3e424,2022-06-29_09h08.01.218,Colour_Asymmetry_Pilot,2022.1.3,Win32,59.95203837,62bbe60bf3d75ef465d3e404,,,,,,,,,,,,,,,,,,,,,,,,,,,,,,,,,,,,,,,,,,,,,,,,,,,,,,,,,,,,,,,,,,,,,,,,,,,,,,,,,,,,,,,,,,,,,,,,,,,,,,,,,,,,,,,,,,,,,,,,,,,,,,,,,,,,,,,,,,,,,,,,,,,,,,,,,,,,,,
0,18,18,35,1,,615b38fbee37c31346d21b1c,62bbf953bb9736d56fd3e424,2022-06-29_09h08.01.218,Colour_Asymmetry_Pilot,2022.1.3,Win32,59.95203837,62bbe60bf3d75ef465d3e404,,,,,,,,,,,,,,,,,,,,,,,,,,,,,,,,,,,,,,,,,,,,,,,,,,,,,,,,,,,,,,,,,,,,,,,,,,,,,,,,,,,,,,,,,,,,,,,,,,,,,,,,,,,,,,,,,,,,,,,,,,,,,,,,,,,,,,,,,,,,,,,,,,,,,,,,,,,,,,
0,19,19,51,1,,615b38fbee37c31346d21b1c,62bbf953bb9736d56fd3e424,2022-06-29_09h08.01.218,Colour_Asymmetry_Pilot,2022.1.3,Win32,59.95203837,62bbe60bf3d75ef465d3e404,,,,,,,,,,,,,,,,,,,,,,,,,,,,,,,,,,,,,,,,,,,,,,,,,,,,,,,,,,,,,,,,,,,,,,,,,,,,,,,,,,,,,,,,,,,,,,,,,,,,,,,,,,,,,,,,,,,,,,,,,,,,,,,,,,,,,,,,,,,,,,,,,,,,,,,,,,,,,,
0,20,20,6,1,,615b38fbee37c31346d21b1c,62bbf953bb9736d56fd3e424,2022-06-29_09h08.01.218,Colour_Asymmetry_Pilot,2022.1.3,Win32,59.95203837,62bbe60bf3d75ef465d3e404,,,,,,,,,,,,,,,,,,,,,,,,,,,,,,,,,,,,,,,,,,,,,,,,,,,,,,,,,,,,,,,,,,,,,,,,,,,,,,,,,,,,,,,,,,,,,,,,,,,,,,,,,,,,,,,,,,,,,,,,,,,,,,,,,,,,,,,,,,,,,,,,,,,,,,,,,,,,,,
0,21,21,69,1,,615b38fbee37c31346d21b1c,62bbf953bb9736d56fd3e424,2022-06-29_09h08.01.218,Colour_Asymmetry_Pilot,2022.1.3,Win32,59.95203837,62bbe60bf3d75ef465d3e404,,,,,,,,,,,,,,,,,,,,,,,,,,,,,,,,,,,,,,,,,,,,,,,,,,,,,,,,,,,,,,,,,,,,,,,,,,,,,,,,,,,,,,,,,,,,,,,,,,,,,,,,,,,,,,,,,,,,,,,,,,,,,,,,,,,,,,,,,,,,,,,,,,,,,,,,,,,,,,
0,22,22,17,1,,615b38fbee37c31346d21b1c,62bbf953bb9736d56fd3e424,2022-06-29_09h08.01.218,Colour_Asymmetry_Pilot,2022.1.3,Win32,59.95203837,62bbe60bf3d75ef465d3e404,,,,,,,,,,,,,,,,,,,,,,,,,,,,,,,,,,,,,,,,,,,,,,,,,,,,,,,,,,,,,,,,,,,,,,,,,,,,,,,,,,,,,,,,,,,,,,,,,,,,,,,,,,,,,,,,,,,,,,,,,,,,,,,,,,,,,,,,,,,,,,,,,,,,,,,,,,,,,,
0,23,23,61,1,,615b38fbee37c31346d21b1c,62bbf953bb9736d56fd3e424,2022-06-29_09h08.01.218,Colour_Asymmetry_Pilot,2022.1.3,Win32,59.95203837,62bbe60bf3d75ef465d3e404,,,,,,,,,,,,,,,,,,,,,,,,,,,,,,,,,,,,,,,,,,,,,,,,,,,,,,,,,,,,,,,,,,,,,,,,,,,,,,,,,,,,,,,,,,,,,,,,,,,,,,,,,,,,,,,,,,,,,,,,,,,,,,,,,,,,,,,,,,,,,,,,,,,,,,,,,,,,,,
0,24,24,1,1,,615b38fbee37c31346d21b1c,62bbf953bb9736d56fd3e424,2022-06-29_09h08.01.218,Colour_Asymmetry_Pilot,2022.1.3,Win32,59.95203837,62bbe60bf3d75ef465d3e404,,,,,,,,,,,,,,,,,,,,,,,,,,,,,,,,,,,,,,,,,,,,,,,,,,,,,,,,,,,,,,,,,,,,,,,,,,,,,,,,,,,,,,,,,,,,,,,,,,,,,,,,,,,,,,,,,,,,,,,,,,,,,,,,,,,,,,,,,,,,,,,,,,,,,,,,,,,,,,
0,25,25,83,1,,615b38fbee37c31346d21b1c,62bbf953bb9736d56fd3e424,2022-06-29_09h08.01.218,Colour_Asymmetry_Pilot,2022.1.3,Win32,59.95203837,62bbe60bf3d75ef465d3e404,,,,,,,,,,,,,,,,,,,,,,,,,,,,,,,,,,,,,,,,,,,,,,,,,,,,,,,,,,,,,,,,,,,,,,,,,,,,,,,,,,,,,,,,,,,,,,,,,,,,,,,,,,,,,,,,,,,,,,,,,,,,,,,,,,,,,,,,,,,,,,,,,,,,,,,,,,,,,,
0,26,26,30,1,,615b38fbee37c31346d21b1c,62bbf953bb9736d56fd3e424,2022-06-29_09h08.01.218,Colour_Asymmetry_Pilot,2022.1.3,Win32,59.95203837,62bbe60bf3d75ef465d3e404,,,,,,,,,,,,,,,,,,,,,,,,,,,,,,,,,,,,,,,,,,,,,,,,,,,,,,,,,,,,,,,,,,,,,,,,,,,,,,,,,,,,,,,,,,,,,,,,,,,,,,,,,,,,,,,,,,,,,,,,,,,,,,,,,,,,,,,,,,,,,,,,,,,,,,,,,,,,,,
0,27,27,70,1,,615b38fbee37c31346d21b1c,62bbf953bb9736d56fd3e424,2022-06-29_09h08.01.218,Colour_Asymmetry_Pilot,2022.1.3,Win32,59.95203837,62bbe60bf3d75ef465d3e404,,,,,,,,,,,,,,,,,,,,,,,,,,,,,,,,,,,,,,,,,,,,,,,,,,,,,,,,,,,,,,,,,,,,,,,,,,,,,,,,,,,,,,,,,,,,,,,,,,,,,,,,,,,,,,,,,,,,,,,,,,,,,,,,,,,,,,,,,,,,,,,,,,,,,,,,,,,,,,
0,28,28,72,1,,615b38fbee37c31346d21b1c,62bbf953bb9736d56fd3e424,2022-06-29_09h08.01.218,Colour_Asymmetry_Pilot,2022.1.3,Win32,59.95203837,62bbe60bf3d75ef465d3e404,,,,,,,,,,,,,,,,,,,,,,,,,,,,,,,,,,,,,,,,,,,,,,,,,,,,,,,,,,,,,,,,,,,,,,,,,,,,,,,,,,,,,,,,,,,,,,,,,,,,,,,,,,,,,,,,,,,,,,,,,,,,,,,,,,,,,,,,,,,,,,,,,,,,,,,,,,,,,,
0,29,29,29,1,,615b38fbee37c31346d21b1c,62bbf953bb9736d56fd3e424,2022-06-29_09h08.01.218,Colour_Asymmetry_Pilot,2022.1.3,Win32,59.95203837,62bbe60bf3d75ef465d3e404,,,,,,,,,,,,,,,,,,,,,,,,,,,,,,,,,,,,,,,,,,,,,,,,,,,,,,,,,,,,,,,,,,,,,,,,,,,,,,,,,,,,,,,,,,,,,,,,,,,,,,,,,,,,,,,,,,,,,,,,,,,,,,,,,,,,,,,,,,,,,,,,,,,,,,,,,,,,,,
0,30,30,5,1,,615b38fbee37c31346d21b1c,62bbf953bb9736d56fd3e424,2022-06-29_09h08.01.218,Colour_Asymmetry_Pilot,2022.1.3,Win32,59.95203837,62bbe60bf3d75ef465d3e404,,,,,,,,,,,,,,,,,,,,,,,,,,,,,,,,,,,,,,,,,,,,,,,,,,,,,,,,,,,,,,,,,,,,,,,,,,,,,,,,,,,,,,,,,,,,,,,,,,,,,,,,,,,,,,,,,,,,,,,,,,,,,,,,,,,,,,,,,,,,,,,,,,,,,,,,,,,,,,
0,31,31,48,1,,615b38fbee37c31346d21b1c,62bbf953bb9736d56fd3e424,2022-06-29_09h08.01.218,Colour_Asymmetry_Pilot,2022.1.3,Win32,59.95203837,62bbe60bf3d75ef465d3e404,,,,,,,,,,,,,,,,,,,,,,,,,,,,,,,,,,,,,,,,,,,,,,,,,,,,,,,,,,,,,,,,,,,,,,,,,,,,,,,,,,,,,,,,,,,,,,,,,,,,,,,,,,,,,,,,,,,,,,,,,,,,,,,,,,,,,,,,,,,,,,,,,,,,,,,,,,,,,,
0,32,32,59,1,,615b38fbee37c31346d21b1c,62bbf953bb9736d56fd3e424,2022-06-29_09h08.01.218,Colour_Asymmetry_Pilot,2022.1.3,Win32,59.95203837,62bbe60bf3d75ef465d3e404,,,,,,,,,,,,,,,,,,,,,,,,,,,,,,,,,,,,,,,,,,,,,,,,,,,,,,,,,,,,,,,,,,,,,,,,,,,,,,,,,,,,,,,,,,,,,,,,,,,,,,,,,,,,,,,,,,,,,,,,,,,,,,,,,,,,,,,,,,,,,,,,,,,,,,,,,,,,,,
0,33,33,78,1,,615b38fbee37c31346d21b1c,62bbf953bb9736d56fd3e424,2022-06-29_09h08.01.218,Colour_Asymmetry_Pilot,2022.1.3,Win32,59.95203837,62bbe60bf3d75ef465d3e404,,,,,,,,,,,,,,,,,,,,,,,,,,,,,,,,,,,,,,,,,,,,,,,,,,,,,,,,,,,,,,,,,,,,,,,,,,,,,,,,,,,,,,,,,,,,,,,,,,,,,,,,,,,,,,,,,,,,,,,,,,,,,,,,,,,,,,,,,,,,,,,,,,,,,,,,,,,,,,
0,34,34,89,1,,615b38fbee37c31346d21b1c,62bbf953bb9736d56fd3e424,2022-06-29_09h08.01.218,Colour_Asymmetry_Pilot,2022.1.3,Win32,59.95203837,62bbe60bf3d75ef465d3e404,,,,,,,,,,,,,,,,,,,,,,,,,,,,,,,,,,,,,,,,,,,,,,,,,,,,,,,,,,,,,,,,,,,,,,,,,,,,,,,,,,,,,,,,,,,,,,,,,,,,,,,,,,,,,,,,,,,,,,,,,,,,,,,,,,,,,,,,,,,,,,,,,,,,,,,,,,,,,,
0,35,35,18,1,,615b38fbee37c31346d21b1c,62bbf953bb9736d56fd3e424,2022-06-29_09h08.01.218,Colour_Asymmetry_Pilot,2022.1.3,Win32,59.95203837,62bbe60bf3d75ef465d3e404,,,,,,,,,,,,,,,,,,,,,,,,,,,,,,,,,,,,,,,,,,,,,,,,,,,,,,,,,,,,,,,,,,,,,,,,,,,,,,,,,,,,,,,,,,,,,,,,,,,,,,,,,,,,,,,,,,,,,,,,,,,,,,,,,,,,,,,,,,,,,,,,,,,,,,,,,,,,,,
0,36,36,56,1,,615b38fbee37c31346d21b1c,62bbf953bb9736d56fd3e424,2022-06-29_09h08.01.218,Colour_Asymmetry_Pilot,2022.1.3,Win32,59.95203837,62bbe60bf3d75ef465d3e404,,,,,,,,,,,,,,,,,,,,,,,,,,,,,,,,,,,,,,,,,,,,,,,,,,,,,,,,,,,,,,,,,,,,,,,,,,,,,,,,,,,,,,,,,,,,,,,,,,,,,,,,,,,,,,,,,,,,,,,,,,,,,,,,,,,,,,,,,,,,,,,,,,,,,,,,,,,,,,
0,37,37,2,1,,615b38fbee37c31346d21b1c,62bbf953bb9736d56fd3e424,2022-06-29_09h08.01.218,Colour_Asymmetry_Pilot,2022.1.3,Win32,59.95203837,62bbe60bf3d75ef465d3e404,,,,,,,,,,,,,,,,,,,,,,,,,,,,,,,,,,,,,,,,,,,,,,,,,,,,,,,,,,,,,,,,,,,,,,,,,,,,,,,,,,,,,,,,,,,,,,,,,,,,,,,,,,,,,,,,,,,,,,,,,,,,,,,,,,,,,,,,,,,,,,,,,,,,,,,,,,,,,,
0,38,38,0,1,,615b38fbee37c31346d21b1c,62bbf953bb9736d56fd3e424,2022-06-29_09h08.01.218,Colour_Asymmetry_Pilot,2022.1.3,Win32,59.95203837,62bbe60bf3d75ef465d3e404,,,,,,,,,,,,,,,,,,,,,,,,,,,,,,,,,,,,,,,,,,,,,,,,,,,,,,,,,,,,,,,,,,,,,,,,,,,,,,,,,,,,,,,,,,,,,,,,,,,,,,,,,,,,,,,,,,,,,,,,,,,,,,,,,,,,,,,,,,,,,,,,,,,,,,,,,,,,,,
0,39,39,8,1,,615b38fbee37c31346d21b1c,62bbf953bb9736d56fd3e424,2022-06-29_09h08.01.218,Colour_Asymmetry_Pilot,2022.1.3,Win32,59.95203837,62bbe60bf3d75ef465d3e404,,,,,,,,,,,,,,,,,,,,,,,,,,,,,,,,,,,,,,,,,,,,,,,,,,,,,,,,,,,,,,,,,,,,,,,,,,,,,,,,,,,,,,,,,,,,,,,,,,,,,,,,,,,,,,,,,,,,,,,,,,,,,,,,,,,,,,,,,,,,,,,,,,,,,,,,,,,,,,
0,40,40,67,1,,615b38fbee37c31346d21b1c,62bbf953bb9736d56fd3e424,2022-06-29_09h08.01.218,Colour_Asymmetry_Pilot,2022.1.3,Win32,59.95203837,62bbe60bf3d75ef465d3e404,,,,,,,,,,,,,,,,,,,,,,,,,,,,,,,,,,,,,,,,,,,,,,,,,,,,,,,,,,,,,,,,,,,,,,,,,,,,,,,,,,,,,,,,,,,,,,,,,,,,,,,,,,,,,,,,,,,,,,,,,,,,,,,,,,,,,,,,,,,,,,,,,,,,,,,,,,,,,,
0,41,41,66,1,,615b38fbee37c31346d21b1c,62bbf953bb9736d56fd3e424,2022-06-29_09h08.01.218,Colour_Asymmetry_Pilot,2022.1.3,Win32,59.95203837,62bbe60bf3d75ef465d3e404,,,,,,,,,,,,,,,,,,,,,,,,,,,,,,,,,,,,,,,,,,,,,,,,,,,,,,,,,,,,,,,,,,,,,,,,,,,,,,,,,,,,,,,,,,,,,,,,,,,,,,,,,,,,,,,,,,,,,,,,,,,,,,,,,,,,,,,,,,,,,,,,,,,,,,,,,,,,,,
0,42,42,39,1,,615b38fbee37c31346d21b1c,62bbf953bb9736d56fd3e424,2022-06-29_09h08.01.218,Colour_Asymmetry_Pilot,2022.1.3,Win32,59.95203837,62bbe60bf3d75ef465d3e404,,,,,,,,,,,,,,,,,,,,,,,,,,,,,,,,,,,,,,,,,,,,,,,,,,,,,,,,,,,,,,,,,,,,,,,,,,,,,,,,,,,,,,,,,,,,,,,,,,,,,,,,,,,,,,,,,,,,,,,,,,,,,,,,,,,,,,,,,,,,,,,,,,,,,,,,,,,,,,
0,43,43,54,1,,615b38fbee37c31346d21b1c,62bbf953bb9736d56fd3e424,2022-06-29_09h08.01.218,Colour_Asymmetry_Pilot,2022.1.3,Win32,59.95203837,62bbe60bf3d75ef465d3e404,,,,,,,,,,,,,,,,,,,,,,,,,,,,,,,,,,,,,,,,,,,,,,,,,,,,,,,,,,,,,,,,,,,,,,,,,,,,,,,,,,,,,,,,,,,,,,,,,,,,,,,,,,,,,,,,,,,,,,,,,,,,,,,,,,,,,,,,,,,,,,,,,,,,,,,,,,,,,,
0,44,44,11,1,,615b38fbee37c31346d21b1c,62bbf953bb9736d56fd3e424,2022-06-29_09h08.01.218,Colour_Asymmetry_Pilot,2022.1.3,Win32,59.95203837,62bbe60bf3d75ef465d3e404,,,,,,,,,,,,,,,,,,,,,,,,,,,,,,,,,,,,,,,,,,,,,,,,,,,,,,,,,,,,,,,,,,,,,,,,,,,,,,,,,,,,,,,,,,,,,,,,,,,,,,,,,,,,,,,,,,,,,,,,,,,,,,,,,,,,,,,,,,,,,,,,,,,,,,,,,,,,,,
0,45,45,3,1,,615b38fbee37c31346d21b1c,62bbf953bb9736d56fd3e424,2022-06-29_09h08.01.218,Colour_Asymmetry_Pilot,2022.1.3,Win32,59.95203837,62bbe60bf3d75ef465d3e404,,,,,,,,,,,,,,,,,,,,,,,,,,,,,,,,,,,,,,,,,,,,,,,,,,,,,,,,,,,,,,,,,,,,,,,,,,,,,,,,,,,,,,,,,,,,,,,,,,,,,,,,,,,,,,,,,,,,,,,,,,,,,,,,,,,,,,,,,,,,,,,,,,,,,,,,,,,,,,
0,46,46,47,1,,615b38fbee37c31346d21b1c,62bbf953bb9736d56fd3e424,2022-06-29_09h08.01.218,Colour_Asymmetry_Pilot,2022.1.3,Win32,59.95203837,62bbe60bf3d75ef465d3e404,,,,,,,,,,,,,,,,,,,,,,,,,,,,,,,,,,,,,,,,,,,,,,,,,,,,,,,,,,,,,,,,,,,,,,,,,,,,,,,,,,,,,,,,,,,,,,,,,,,,,,,,,,,,,,,,,,,,,,,,,,,,,,,,,,,,,,,,,,,,,,,,,,,,,,,,,,,,,,
0,47,47,60,1,,615b38fbee37c31346d21b1c,62bbf953bb9736d56fd3e424,2022-06-29_09h08.01.218,Colour_Asymmetry_Pilot,2022.1.3,Win32,59.95203837,62bbe60bf3d75ef465d3e404,,,,,,,,,,,,,,,,,,,,,,,,,,,,,,,,,,,,,,,,,,,,,,,,,,,,,,,,,,,,,,,,,,,,,,,,,,,,,,,,,,,,,,,,,,,,,,,,,,,,,,,,,,,,,,,,,,,,,,,,,,,,,,,,,,,,,,,,,,,,,,,,,,,,,,,,,,,,,,
0,48,48,64,1,,615b38fbee37c31346d21b1c,62bbf953bb9736d56fd3e424,2022-06-29_09h08.01.218,Colour_Asymmetry_Pilot,2022.1.3,Win32,59.95203837,62bbe60bf3d75ef465d3e404,,,,,,,,,,,,,,,,,,,,,,,,,,,,,,,,,,,,,,,,,,,,,,,,,,,,,,,,,,,,,,,,,,,,,,,,,,,,,,,,,,,,,,,,,,,,,,,,,,,,,,,,,,,,,,,,,,,,,,,,,,,,,,,,,,,,,,,,,,,,,,,,,,,,,,,,,,,,,,
0,49,49,43,1,,615b38fbee37c31346d21b1c,62bbf953bb9736d56fd3e424,2022-06-29_09h08.01.218,Colour_Asymmetry_Pilot,2022.1.3,Win32,59.95203837,62bbe60bf3d75ef465d3e404,,,,,,,,,,,,,,,,,,,,,,,,,,,,,,,,,,,,,,,,,,,,,,,,,,,,,,,,,,,,,,,,,,,,,,,,,,,,,,,,,,,,,,,,,,,,,,,,,,,,,,,,,,,,,,,,,,,,,,,,,,,,,,,,,,,,,,,,,,,,,,,,,,,,,,,,,,,,,,
0,50,50,14,1,,615b38fbee37c31346d21b1c,62bbf953bb9736d56fd3e424,2022-06-29_09h08.01.218,Colour_Asymmetry_Pilot,2022.1.3,Win32,59.95203837,62bbe60bf3d75ef465d3e404,,,,,,,,,,,,,,,,,,,,,,,,,,,,,,,,,,,,,,,,,,,,,,,,,,,,,,,,,,,,,,,,,,,,,,,,,,,,,,,,,,,,,,,,,,,,,,,,,,,,,,,,,,,,,,,,,,,,,,,,,,,,,,,,,,,,,,,,,,,,,,,,,,,,,,,,,,,,,,
0,51,51,45,1,,615b38fbee37c31346d21b1c,62bbf953bb9736d56fd3e424,2022-06-29_09h08.01.218,Colour_Asymmetry_Pilot,2022.1.3,Win32,59.95203837,62bbe60bf3d75ef465d3e404,,,,,,,,,,,,,,,,,,,,,,,,,,,,,,,,,,,,,,,,,,,,,,,,,,,,,,,,,,,,,,,,,,,,,,,,,,,,,,,,,,,,,,,,,,,,,,,,,,,,,,,,,,,,,,,,,,,,,,,,,,,,,,,,,,,,,,,,,,,,,,,,,,,,,,,,,,,,,,
0,52,52,52,1,,615b38fbee37c31346d21b1c,62bbf953bb9736d56fd3e424,2022-06-29_09h08.01.218,Colour_Asymmetry_Pilot,2022.1.3,Win32,59.95203837,62bbe60bf3d75ef465d3e404,,,,,,,,,,,,,,,,,,,,,,,,,,,,,,,,,,,,,,,,,,,,,,,,,,,,,,,,,,,,,,,,,,,,,,,,,,,,,,,,,,,,,,,,,,,,,,,,,,,,,,,,,,,,,,,,,,,,,,,,,,,,,,,,,,,,,,,,,,,,,,,,,,,,,,,,,,,,,,
0,53,53,15,1,,615b38fbee37c31346d21b1c,62bbf953bb9736d56fd3e424,2022-06-29_09h08.01.218,Colour_Asymmetry_Pilot,2022.1.3,Win32,59.95203837,62bbe60bf3d75ef465d3e404,,,,,,,,,,,,,,,,,,,,,,,,,,,,,,,,,,,,,,,,,,,,,,,,,,,,,,,,,,,,,,,,,,,,,,,,,,,,,,,,,,,,,,,,,,,,,,,,,,,,,,,,,,,,,,,,,,,,,,,,,,,,,,,,,,,,,,,,,,,,,,,,,,,,,,,,,,,,,,
0,54,54,91,1,,615b38fbee37c31346d21b1c,62bbf953bb9736d56fd3e424,2022-06-29_09h08.01.218,Colour_Asymmetry_Pilot,2022.1.3,Win32,59.95203837,62bbe60bf3d75ef465d3e404,,,,,,,,,,,,,,,,,,,,,,,,,,,,,,,,,,,,,,,,,,,,,,,,,,,,,,,,,,,,,,,,,,,,,,,,,,,,,,,,,,,,,,,,,,,,,,,,,,,,,,,,,,,,,,,,,,,,,,,,,,,,,,,,,,,,,,,,,,,,,,,,,,,,,,,,,,,,,,
0,55,55,68,1,,615b38fbee37c31346d21b1c,62bbf953bb9736d56fd3e424,2022-06-29_09h08.01.218,Colour_Asymmetry_Pilot,2022.1.3,Win32,59.95203837,62bbe60bf3d75ef465d3e404,,,,,,,,,,,,,,,,,,,,,,,,,,,,,,,,,,,,,,,,,,,,,,,,,,,,,,,,,,,,,,,,,,,,,,,,,,,,,,,,,,,,,,,,,,,,,,,,,,,,,,,,,,,,,,,,,,,,,,,,,,,,,,,,,,,,,,,,,,,,,,,,,,,,,,,,,,,,,,
0,56,56,9,1,,615b38fbee37c31346d21b1c,62bbf953bb9736d56fd3e424,2022-06-29_09h08.01.218,Colour_Asymmetry_Pilot,2022.1.3,Win32,59.95203837,62bbe60bf3d75ef465d3e404,,,,,,,,,,,,,,,,,,,,,,,,,,,,,,,,,,,,,,,,,,,,,,,,,,,,,,,,,,,,,,,,,,,,,,,,,,,,,,,,,,,,,,,,,,,,,,,,,,,,,,,,,,,,,,,,,,,,,,,,,,,,,,,,,,,,,,,,,,,,,,,,,,,,,,,,,,,,,,
0,57,57,22,1,,615b38fbee37c31346d21b1c,62bbf953bb9736d56fd3e424,2022-06-29_09h08.01.218,Colour_Asymmetry_Pilot,2022.1.3,Win32,59.95203837,62bbe60bf3d75ef465d3e404,,,,,,,,,,,,,,,,,,,,,,,,,,,,,,,,,,,,,,,,,,,,,,,,,,,,,,,,,,,,,,,,,,,,,,,,,,,,,,,,,,,,,,,,,,,,,,,,,,,,,,,,,,,,,,,,,,,,,,,,,,,,,,,,,,,,,,,,,,,,,,,,,,,,,,,,,,,,,,
0,58,58,74,1,,615b38fbee37c31346d21b1c,62bbf953bb9736d56fd3e424,2022-06-29_09h08.01.218,Colour_Asymmetry_Pilot,2022.1.3,Win32,59.95203837,62bbe60bf3d75ef465d3e404,,,,,,,,,,,,,,,,,,,,,,,,,,,,,,,,,,,,,,,,,,,,,,,,,,,,,,,,,,,,,,,,,,,,,,,,,,,,,,,,,,,,,,,,,,,,,,,,,,,,,,,,,,,,,,,,,,,,,,,,,,,,,,,,,,,,,,,,,,,,,,,,,,,,,,,,,,,,,,
0,59,59,75,1,,615b38fbee37c31346d21b1c,62bbf953bb9736d56fd3e424,2022-06-29_09h08.01.218,Colour_Asymmetry_Pilot,2022.1.3,Win32,59.95203837,62bbe60bf3d75ef465d3e404,,,,,,,,,,,,,,,,,,,,,,,,,,,,,,,,,,,,,,,,,,,,,,,,,,,,,,,,,,,,,,,,,,,,,,,,,,,,,,,,,,,,,,,,,,,,,,,,,,,,,,,,,,,,,,,,,,,,,,,,,,,,,,,,,,,,,,,,,,,,,,,,,,,,,,,,,,,,,,
0,60,60,23,1,,615b38fbee37c31346d21b1c,62bbf953bb9736d56fd3e424,2022-06-29_09h08.01.218,Colour_Asymmetry_Pilot,2022.1.3,Win32,59.95203837,62bbe60bf3d75ef465d3e404,,,,,,,,,,,,,,,,,,,,,,,,,,,,,,,,,,,,,,,,,,,,,,,,,,,,,,,,,,,,,,,,,,,,,,,,,,,,,,,,,,,,,,,,,,,,,,,,,,,,,,,,,,,,,,,,,,,,,,,,,,,,,,,,,,,,,,,,,,,,,,,,,,,,,,,,,,,,,,
0,61,61,90,1,,615b38fbee37c31346d21b1c,62bbf953bb9736d56fd3e424,2022-06-29_09h08.01.218,Colour_Asymmetry_Pilot,2022.1.3,Win32,59.95203837,62bbe60bf3d75ef465d3e404,,,,,,,,,,,,,,,,,,,,,,,,,,,,,,,,,,,,,,,,,,,,,,,,,,,,,,,,,,,,,,,,,,,,,,,,,,,,,,,,,,,,,,,,,,,,,,,,,,,,,,,,,,,,,,,,,,,,,,,,,,,,,,,,,,,,,,,,,,,,,,,,,,,,,,,,,,,,,,
0,62,62,44,1,,615b38fbee37c31346d21b1c,62bbf953bb9736d56fd3e424,2022-06-29_09h08.01.218,Colour_Asymmetry_Pilot,2022.1.3,Win32,59.95203837,62bbe60bf3d75ef465d3e404,,,,,,,,,,,,,,,,,,,,,,,,,,,,,,,,,,,,,,,,,,,,,,,,,,,,,,,,,,,,,,,,,,,,,,,,,,,,,,,,,,,,,,,,,,,,,,,,,,,,,,,,,,,,,,,,,,,,,,,,,,,,,,,,,,,,,,,,,,,,,,,,,,,,,,,,,,,,,,
0,63,63,33,1,,615b38fbee37c31346d21b1c,62bbf953bb9736d56fd3e424,2022-06-29_09h08.01.218,Colour_Asymmetry_Pilot,2022.1.3,Win32,59.95203837,62bbe60bf3d75ef465d3e404,,,,,,,,,,,,,,,,,,,,,,,,,,,,,,,,,,,,,,,,,,,,,,,,,,,,,,,,,,,,,,,,,,,,,,,,,,,,,,,,,,,,,,,,,,,,,,,,,,,,,,,,,,,,,,,,,,,,,,,,,,,,,,,,,,,,,,,,,,,,,,,,,,,,,,,,,,,,,,
0,64,64,31,1,,615b38fbee37c31346d21b1c,62bbf953bb9736d56fd3e424,2022-06-29_09h08.01.218,Colour_Asymmetry_Pilot,2022.1.3,Win32,59.95203837,62bbe60bf3d75ef465d3e404,,,,,,,,,,,,,,,,,,,,,,,,,,,,,,,,,,,,,,,,,,,,,,,,,,,,,,,,,,,,,,,,,,,,,,,,,,,,,,,,,,,,,,,,,,,,,,,,,,,,,,,,,,,,,,,,,,,,,,,,,,,,,,,,,,,,,,,,,,,,,,,,,,,,,,,,,,,,,,
0,65,65,80,1,,615b38fbee37c31346d21b1c,62bbf953bb9736d56fd3e424,2022-06-29_09h08.01.218,Colour_Asymmetry_Pilot,2022.1.3,Win32,59.95203837,62bbe60bf3d75ef465d3e404,,,,,,,,,,,,,,,,,,,,,,,,,,,,,,,,,,,,,,,,,,,,,,,,,,,,,,,,,,,,,,,,,,,,,,,,,,,,,,,,,,,,,,,,,,,,,,,,,,,,,,,,,,,,,,,,,,,,,,,,,,,,,,,,,,,,,,,,,,,,,,,,,,,,,,,,,,,,,,
0,66,66,71,1,,615b38fbee37c31346d21b1c,62bbf953bb9736d56fd3e424,2022-06-29_09h08.01.218,Colour_Asymmetry_Pilot,2022.1.3,Win32,59.95203837,62bbe60bf3d75ef465d3e404,,,,,,,,,,,,,,,,,,,,,,,,,,,,,,,,,,,,,,,,,,,,,,,,,,,,,,,,,,,,,,,,,,,,,,,,,,,,,,,,,,,,,,,,,,,,,,,,,,,,,,,,,,,,,,,,,,,,,,,,,,,,,,,,,,,,,,,,,,,,,,,,,,,,,,,,,,,,,,
0,67,67,42,1,,615b38fbee37c31346d21b1c,62bbf953bb9736d56fd3e424,2022-06-29_09h08.01.218,Colour_Asymmetry_Pilot,2022.1.3,Win32,59.95203837,62bbe60bf3d75ef465d3e404,,,,,,,,,,,,,,,,,,,,,,,,,,,,,,,,,,,,,,,,,,,,,,,,,,,,,,,,,,,,,,,,,,,,,,,,,,,,,,,,,,,,,,,,,,,,,,,,,,,,,,,,,,,,,,,,,,,,,,,,,,,,,,,,,,,,,,,,,,,,,,,,,,,,,,,,,,,,,,
0,68,68,73,1,,615b38fbee37c31346d21b1c,62bbf953bb9736d56fd3e424,2022-06-29_09h08.01.218,Colour_Asymmetry_Pilot,2022.1.3,Win32,59.95203837,62bbe60bf3d75ef465d3e404,,,,,,,,,,,,,,,,,,,,,,,,,,,,,,,,,,,,,,,,,,,,,,,,,,,,,,,,,,,,,,,,,,,,,,,,,,,,,,,,,,,,,,,,,,,,,,,,,,,,,,,,,,,,,,,,,,,,,,,,,,,,,,,,,,,,,,,,,,,,,,,,,,,,,,,,,,,,,,
0,69,69,38,1,,615b38fbee37c31346d21b1c,62bbf953bb9736d56fd3e424,2022-06-29_09h08.01.218,Colour_Asymmetry_Pilot,2022.1.3,Win32,59.95203837,62bbe60bf3d75ef465d3e404,,,,,,,,,,,,,,,,,,,,,,,,,,,,,,,,,,,,,,,,,,,,,,,,,,,,,,,,,,,,,,,,,,,,,,,,,,,,,,,,,,,,,,,,,,,,,,,,,,,,,,,,,,,,,,,,,,,,,,,,,,,,,,,,,,,,,,,,,,,,,,,,,,,,,,,,,,,,,,
0,70,70,63,1,,615b38fbee37c31346d21b1c,62bbf953bb9736d56fd3e424,2022-06-29_09h08.01.218,Colour_Asymmetry_Pilot,2022.1.3,Win32,59.95203837,62bbe60bf3d75ef465d3e404,,,,,,,,,,,,,,,,,,,,,,,,,,,,,,,,,,,,,,,,,,,,,,,,,,,,,,,,,,,,,,,,,,,,,,,,,,,,,,,,,,,,,,,,,,,,,,,,,,,,,,,,,,,,,,,,,,,,,,,,,,,,,,,,,,,,,,,,,,,,,,,,,,,,,,,,,,,,,,
0,71,71,32,1,,615b38fbee37c31346d21b1c,62bbf953bb9736d56fd3e424,2022-06-29_09h08.01.218,Colour_Asymmetry_Pilot,2022.1.3,Win32,59.95203837,62bbe60bf3d75ef465d3e404,,,,,,,,,,,,,,,,,,,,,,,,,,,,,,,,,,,,,,,,,,,,,,,,,,,,,,,,,,,,,,,,,,,,,,,,,,,,,,,,,,,,,,,,,,,,,,,,,,,,,,,,,,,,,,,,,,,,,,,,,,,,,,,,,,,,,,,,,,,,,,,,,,,,,,,,,,,,,,
0,72,72,79,1,,615b38fbee37c31346d21b1c,62bbf953bb9736d56fd3e424,2022-06-29_09h08.01.218,Colour_Asymmetry_Pilot,2022.1.3,Win32,59.95203837,62bbe60bf3d75ef465d3e404,,,,,,,,,,,,,,,,,,,,,,,,,,,,,,,,,,,,,,,,,,,,,,,,,,,,,,,,,,,,,,,,,,,,,,,,,,,,,,,,,,,,,,,,,,,,,,,,,,,,,,,,,,,,,,,,,,,,,,,,,,,,,,,,,,,,,,,,,,,,,,,,,,,,,,,,,,,,,,
0,73,73,82,1,,615b38fbee37c31346d21b1c,62bbf953bb9736d56fd3e424,2022-06-29_09h08.01.218,Colour_Asymmetry_Pilot,2022.1.3,Win32,59.95203837,62bbe60bf3d75ef465d3e404,,,,,,,,,,,,,,,,,,,,,,,,,,,,,,,,,,,,,,,,,,,,,,,,,,,,,,,,,,,,,,,,,,,,,,,,,,,,,,,,,,,,,,,,,,,,,,,,,,,,,,,,,,,,,,,,,,,,,,,,,,,,,,,,,,,,,,,,,,,,,,,,,,,,,,,,,,,,,,
0,74,74,53,1,,615b38fbee37c31346d21b1c,62bbf953bb9736d56fd3e424,2022-06-29_09h08.01.218,Colour_Asymmetry_Pilot,2022.1.3,Win32,59.95203837,62bbe60bf3d75ef465d3e404,,,,,,,,,,,,,,,,,,,,,,,,,,,,,,,,,,,,,,,,,,,,,,,,,,,,,,,,,,,,,,,,,,,,,,,,,,,,,,,,,,,,,,,,,,,,,,,,,,,,,,,,,,,,,,,,,,,,,,,,,,,,,,,,,,,,,,,,,,,,,,,,,,,,,,,,,,,,,,
0,75,75,13,1,,615b38fbee37c31346d21b1c,62bbf953bb9736d56fd3e424,2022-06-29_09h08.01.218,Colour_Asymmetry_Pilot,2022.1.3,Win32,59.95203837,62bbe60bf3d75ef465d3e404,,,,,,,,,,,,,,,,,,,,,,,,,,,,,,,,,,,,,,,,,,,,,,,,,,,,,,,,,,,,,,,,,,,,,,,,,,,,,,,,,,,,,,,,,,,,,,,,,,,,,,,,,,,,,,,,,,,,,,,,,,,,,,,,,,,,,,,,,,,,,,,,,,,,,,,,,,,,,,
0,76,76,46,1,,615b38fbee37c31346d21b1c,62bbf953bb9736d56fd3e424,2022-06-29_09h08.01.218,Colour_Asymmetry_Pilot,2022.1.3,Win32,59.95203837,62bbe60bf3d75ef465d3e404,,,,,,,,,,,,,,,,,,,,,,,,,,,,,,,,,,,,,,,,,,,,,,,,,,,,,,,,,,,,,,,,,,,,,,,,,,,,,,,,,,,,,,,,,,,,,,,,,,,,,,,,,,,,,,,,,,,,,,,,,,,,,,,,,,,,,,,,,,,,,,,,,,,,,,,,,,,,,,
0,77,77,28,1,,615b38fbee37c31346d21b1c,62bbf953bb9736d56fd3e424,2022-06-29_09h08.01.218,Colour_Asymmetry_Pilot,2022.1.3,Win32,59.95203837,62bbe60bf3d75ef465d3e404,,,,,,,,,,,,,,,,,,,,,,,,,,,,,,,,,,,,,,,,,,,,,,,,,,,,,,,,,,,,,,,,,,,,,,,,,,,,,,,,,,,,,,,,,,,,,,,,,,,,,,,,,,,,,,,,,,,,,,,,,,,,,,,,,,,,,,,,,,,,,,,,,,,,,,,,,,,,,,
0,78,78,26,1,,615b38fbee37c31346d21b1c,62bbf953bb9736d56fd3e424,2022-06-29_09h08.01.218,Colour_Asymmetry_Pilot,2022.1.3,Win32,59.95203837,62bbe60bf3d75ef465d3e404,,,,,,,,,,,,,,,,,,,,,,,,,,,,,,,,,,,,,,,,,,,,,,,,,,,,,,,,,,,,,,,,,,,,,,,,,,,,,,,,,,,,,,,,,,,,,,,,,,,,,,,,,,,,,,,,,,,,,,,,,,,,,,,,,,,,,,,,,,,,,,,,,,,,,,,,,,,,,,
0,79,79,36,1,,615b38fbee37c31346d21b1c,62bbf953bb9736d56fd3e424,2022-06-29_09h08.01.218,Colour_Asymmetry_Pilot,2022.1.3,Win32,59.95203837,62bbe60bf3d75ef465d3e404,,,,,,,,,,,,,,,,,,,,,,,,,,,,,,,,,,,,,,,,,,,,,,,,,,,,,,,,,,,,,,,,,,,,,,,,,,,,,,,,,,,,,,,,,,,,,,,,,,,,,,,,,,,,,,,,,,,,,,,,,,,,,,,,,,,,,,,,,,,,,,,,,,,,,,,,,,,,,,
0,80,80,19,1,,615b38fbee37c31346d21b1c,62bbf953bb9736d56fd3e424,2022-06-29_09h08.01.218,Colour_Asymmetry_Pilot,2022.1.3,Win32,59.95203837,62bbe60bf3d75ef465d3e404,,,,,,,,,,,,,,,,,,,,,,,,,,,,,,,,,,,,,,,,,,,,,,,,,,,,,,,,,,,,,,,,,,,,,,,,,,,,,,,,,,,,,,,,,,,,,,,,,,,,,,,,,,,,,,,,,,,,,,,,,,,,,,,,,,,,,,,,,,,,,,,,,,,,,,,,,,,,,,
0,81,81,21,1,,615b38fbee37c31346d21b1c,62bbf953bb9736d56fd3e424,2022-06-29_09h08.01.218,Colour_Asymmetry_Pilot,2022.1.3,Win32,59.95203837,62bbe60bf3d75ef465d3e404,,,,,,,,,,,,,,,,,,,,,,,,,,,,,,,,,,,,,,,,,,,,,,,,,,,,,,,,,,,,,,,,,,,,,,,,,,,,,,,,,,,,,,,,,,,,,,,,,,,,,,,,,,,,,,,,,,,,,,,,,,,,,,,,,,,,,,,,,,,,,,,,,,,,,,,,,,,,,,
0,82,82,7,1,,615b38fbee37c31346d21b1c,62bbf953bb9736d56fd3e424,2022-06-29_09h08.01.218,Colour_Asymmetry_Pilot,2022.1.3,Win32,59.95203837,62bbe60bf3d75ef465d3e404,,,,,,,,,,,,,,,,,,,,,,,,,,,,,,,,,,,,,,,,,,,,,,,,,,,,,,,,,,,,,,,,,,,,,,,,,,,,,,,,,,,,,,,,,,,,,,,,,,,,,,,,,,,,,,,,,,,,,,,,,,,,,,,,,,,,,,,,,,,,,,,,,,,,,,,,,,,,,,
0,83,83,34,1,,615b38fbee37c31346d21b1c,62bbf953bb9736d56fd3e424,2022-06-29_09h08.01.218,Colour_Asymmetry_Pilot,2022.1.3,Win32,59.95203837,62bbe60bf3d75ef465d3e404,,,,,,,,,,,,,,,,,,,,,,,,,,,,,,,,,,,,,,,,,,,,,,,,,,,,,,,,,,,,,,,,,,,,,,,,,,,,,,,,,,,,,,,,,,,,,,,,,,,,,,,,,,,,,,,,,,,,,,,,,,,,,,,,,,,,,,,,,,,,,,,,,,,,,,,,,,,,,,
0,84,84,24,1,,615b38fbee37c31346d21b1c,62bbf953bb9736d56fd3e424,2022-06-29_09h08.01.218,Colour_Asymmetry_Pilot,2022.1.3,Win32,59.95203837,62bbe60bf3d75ef465d3e404,,,,,,,,,,,,,,,,,,,,,,,,,,,,,,,,,,,,,,,,,,,,,,,,,,,,,,,,,,,,,,,,,,,,,,,,,,,,,,,,,,,,,,,,,,,,,,,,,,,,,,,,,,,,,,,,,,,,,,,,,,,,,,,,,,,,,,,,,,,,,,,,,,,,,,,,,,,,,,
0,85,85,20,1,,615b38fbee37c31346d21b1c,62bbf953bb9736d56fd3e424,2022-06-29_09h08.01.218,Colour_Asymmetry_Pilot,2022.1.3,Win32,59.95203837,62bbe60bf3d75ef465d3e404,,,,,,,,,,,,,,,,,,,,,,,,,,,,,,,,,,,,,,,,,,,,,,,,,,,,,,,,,,,,,,,,,,,,,,,,,,,,,,,,,,,,,,,,,,,,,,,,,,,,,,,,,,,,,,,,,,,,,,,,,,,,,,,,,,,,,,,,,,,,,,,,,,,,,,,,,,,,,,
0,86,86,86,1,,615b38fbee37c31346d21b1c,62bbf953bb9736d56fd3e424,2022-06-29_09h08.01.218,Colour_Asymmetry_Pilot,2022.1.3,Win32,59.95203837,62bbe60bf3d75ef465d3e404,,,,,,,,,,,,,,,,,,,,,,,,,,,,,,,,,,,,,,,,,,,,,,,,,,,,,,,,,,,,,,,,,,,,,,,,,,,,,,,,,,,,,,,,,,,,,,,,,,,,,,,,,,,,,,,,,,,,,,,,,,,,,,,,,,,,,,,,,,,,,,,,,,,,,,,,,,,,,,
0,87,87,41,1,,615b38fbee37c31346d21b1c,62bbf953bb9736d56fd3e424,2022-06-29_09h08.01.218,Colour_Asymmetry_Pilot,2022.1.3,Win32,59.95203837,62bbe60bf3d75ef465d3e404,,,,,,,,,,,,,,,,,,,,,,,,,,,,,,,,,,,,,,,,,,,,,,,,,,,,,,,,,,,,,,,,,,,,,,,,,,,,,,,,,,,,,,,,,,,,,,,,,,,,,,,,,,,,,,,,,,,,,,,,,,,,,,,,,,,,,,,,,,,,,,,,,,,,,,,,,,,,,,
0,88,88,77,1,,615b38fbee37c31346d21b1c,62bbf953bb9736d56fd3e424,2022-06-29_09h08.01.218,Colour_Asymmetry_Pilot,2022.1.3,Win32,59.95203837,62bbe60bf3d75ef465d3e404,,,,,,,,,,,,,,,,,,,,,,,,,,,,,,,,,,,,,,,,,,,,,,,,,,,,,,,,,,,,,,,,,,,,,,,,,,,,,,,,,,,,,,,,,,,,,,,,,,,,,,,,,,,,,,,,,,,,,,,,,,,,,,,,,,,,,,,,,,,,,,,,,,,,,,,,,,,,,,
0,89,89,4,1,,615b38fbee37c31346d21b1c,62bbf953bb9736d56fd3e424,2022-06-29_09h08.01.218,Colour_Asymmetry_Pilot,2022.1.3,Win32,59.95203837,62bbe60bf3d75ef465d3e404,,,,,,,,,,,,,,,,,,,,,,,,,,,,,,,,,,,,,,,,,,,,,,,,,,,,,,,,,,,,,,,,,,,,,,,,,,,,,,,,,,,,,,,,,,,,,,,,,,,,,,,,,,,,,,,,,,,,,,,,,,,,,,,,,,,,,,,,,,,,,,,,,,,,,,,,,,,,,,
0,90,90,50,1,,615b38fbee37c31346d21b1c,62bbf953bb9736d56fd3e424,2022-06-29_09h08.01.218,Colour_Asymmetry_Pilot,2022.1.3,Win32,59.95203837,62bbe60bf3d75ef465d3e404,,,,,,,,,,,,,,,,,,,,,,,,,,,,,,,,,,,,,,,,,,,,,,,,,,,,,,,,,,,,,,,,,,,,,,,,,,,,,,,,,,,,,,,,,,,,,,,,,,,,,,,,,,,,,,,,,,,,,,,,,,,,,,,,,,,,,,,,,,,,,,,,,,,,,,,,,,,,,,
0,91,91,92,1,,615b38fbee37c31346d21b1c,62bbf953bb9736d56fd3e424,2022-06-29_09h08.01.218,Colour_Asymmetry_Pilot,2022.1.3,Win32,59.95203837,62bbe60bf3d75ef465d3e404,,,,,,,,,,,,,,,,,,,,,,,,,,,,,,,,,,,,,,,,,,,,,,,,,,,,,,,,,,,,,,,,,,,,,,,,,,,,,,,,,,,,,,,,,,,,,,,,,,,,,,,,,,,,,,,,,,,,,,,,,,,,,,,,,,,,,,,,,,,,,,,,,,,,,,,,,,,,,,
0,92,92,65,1,,615b38fbee37c31346d21b1c,62bbf953bb9736d56fd3e424,2022-06-29_09h08.01.218,Colour_Asymmetry_Pilot,2022.1.3,Win32,59.95203837,62bbe60bf3d75ef465d3e404,,,,,,,,,,,,,,,,,,,,,,,,,,,,,,,,,,,,,,,,,,,,,,,,,,,,,,,,,,,,,,,,,,,,,,,,,,,,,,,,,,,,,,,,,,,,,,,,,,,,,,,,,,,,,,,,,,,,,,,,,,,,,,,,,,,,,,,,,,,,,,,,,,,,,,,,,,,,,,
,,,,,,615b38fbee37c31346d21b1c,62bbf953bb9736d56fd3e424,2022-06-29_09h08.01.218,Colour_Asymmetry_Pilot,2022.1.3,Win32,59.95203837,62bbe60bf3d75ef465d3e404,0,0,0,118,1,fourtwo,,,,,,,,,,,,,,,,,,,,,,,,,,,,,,,,,,,,,,,,,,,,,,,,,,,,,,,,,,,,,,,,,,,,,,,,,,,,,,,,,,,,,,,,,,,,,,,,,,,,,,,,,,,,,,,,,,,,,,,,,,,,,,,,,,,,,,,,,,,,,,,,,,,,,,,,
,,,,,,615b38fbee37c31346d21b1c,62bbf953bb9736d56fd3e424,2022-06-29_09h08.01.218,Colour_Asymmetry_Pilot,2022.1.3,Win32,59.95203837,62bbe60bf3d75ef465d3e404,0,1,1,87,1,fourthree,,,,,,,,,,,,,,,,,,,,,,,,,,,,,,,,,,,,,,,,,,,,,,,,,,,,,,,,,,,,,,,,,,,,,,,,,,,,,,,,,,,,,,,,,,,,,,,,,,,,,,,,,,,,,,,,,,,,,,,,,,,,,,,,,,,,,,,,,,,,,,,,,,,,,,,,
,,,,,,615b38fbee37c31346d21b1c,62bbf953bb9736d56fd3e424,2022-06-29_09h08.01.218,Colour_Asymmetry_Pilot,2022.1.3,Win32,59.95203837,62bbe60bf3d75ef465d3e404,0,2,2,76,1,threeone,,,,,,,,,,,,,,,,,,,,,,,,,,,,,,,,,,,,,,,,,,,,,,,,,,,,,,,,,,,,,,,,,,,,,,,,,,,,,,,,,,,,,,,,,,,,,,,,,,,,,,,,,,,,,,,,,,,,,,,,,,,,,,,,,,,,,,,,,,,,,,,,,,,,,,,,
,,,,,,615b38fbee37c31346d21b1c,62bbf953bb9736d56fd3e424,2022-06-29_09h08.01.218,Colour_Asymmetry_Pilot,2022.1.3,Win32,59.95203837,62bbe60bf3d75ef465d3e404,0,3,3,3,1,twofour,,,,,,,,,,,,,,,,,,,,,,,,,,,,,,,,,,,,,,,,,,,,,,,,,,,,,,,,,,,,,,,,,,,,,,,,,,,,,,,,,,,,,,,,,,,,,,,,,,,,,,,,,,,,,,,,,,,,,,,,,,,,,,,,,,,,,,,,,,,,,,,,,,,,,,,,
,,,,,,615b38fbee37c31346d21b1c,62bbf953bb9736d56fd3e424,2022-06-29_09h08.01.218,Colour_Asymmetry_Pilot,2022.1.3,Win32,59.95203837,62bbe60bf3d75ef465d3e404,0,4,4,0,1,onetwo,,,,,,,,,,,,,,,,,,,,,,,,,,,,,,,,,,,,,,,,,,,,,,,,,,,,,,,,,,,,,,,,,,,,,,,,,,,,,,,,,,,,,,,,,,,,,,,,,,,,,,,,,,,,,,,,,,,,,,,,,,,,,,,,,,,,,,,,,,,,,,,,,,,,,,,,
,,,,,,615b38fbee37c31346d21b1c,62bbf953bb9736d56fd3e424,2022-06-29_09h08.01.218,Colour_Asymmetry_Pilot,2022.1.3,Win32,59.95203837,62bbe60bf3d75ef465d3e404,0,5,5,62,1,fourtwo,,,,,,,,,,,,,,,,,,,,,,,,,,,,,,,,,,,,,,,,,,,,,,,,,,,,,,,,,,,,,,,,,,,,,,,,,,,,,,,,,,,,,,,,,,,,,,,,,,,,,,,,,,,,,,,,,,,,,,,,,,,,,,,,,,,,,,,,,,,,,,,,,,,,,,,,
,,,,,,615b38fbee37c31346d21b1c,62bbf953bb9736d56fd3e424,2022-06-29_09h08.01.218,Colour_Asymmetry_Pilot,2022.1.3,Win32,59.95203837,62bbe60bf3d75ef465d3e404,0,6,6,16,1,onetwo,,,,,,,,,,,,,,,,,,,,,,,,,,,,,,,,,,,,,,,,,,,,,,,,,,,,,,,,,,,,,,,,,,,,,,,,,,,,,,,,,,,,,,,,,,,,,,,,,,,,,,,,,,,,,,,,,,,,,,,,,,,,,,,,,,,,,,,,,,,,,,,,,,,,,,,,
,,,,,,615b38fbee37c31346d21b1c,62bbf953bb9736d56fd3e424,2022-06-29_09h08.01.218,Colour_Asymmetry_Pilot,2022.1.3,Win32,59.95203837,62bbe60bf3d75ef465d3e404,0,7,7,141,1,threefour,,,,,,,,,,,,,,,,,,,,,,,,,,,,,,,,,,,,,,,,,,,,,,,,,,,,,,,,,,,,,,,,,,,,,,,,,,,,,,,,,,,,,,,,,,,,,,,,,,,,,,,,,,,,,,,,,,,,,,,,,,,,,,,,,,,,,,,,,,,,,,,,,,,,,,,,
,,,,,,615b38fbee37c31346d21b1c,62bbf953bb9736d56fd3e424,2022-06-29_09h08.01.218,Colour_Asymmetry_Pilot,2022.1.3,Win32,59.95203837,62bbe60bf3d75ef465d3e404,0,8,8,149,1,threefour,,,,,,,,,,,,,,,,,,,,,,,,,,,,,,,,,,,,,,,,,,,,,,,,,,,,,,,,,,,,,,,,,,,,,,,,,,,,,,,,,,,,,,,,,,,,,,,,,,,,,,,,,,,,,,,,,,,,,,,,,,,,,,,,,,,,,,,,,,,,,,,,,,,,,,,,
,,,,,,615b38fbee37c31346d21b1c,62bbf953bb9736d56fd3e424,2022-06-29_09h08.01.218,Colour_Asymmetry_Pilot,2022.1.3,Win32,59.95203837,62bbe60bf3d75ef465d3e404,0,9,9,100,1,threeone,,,,,,,,,,,,,,,,,,,,,,,,,,,,,,,,,,,,,,,,,,,,,,,,,,,,,,,,,,,,,,,,,,,,,,,,,,,,,,,,,,,,,,,,,,,,,,,,,,,,,,,,,,,,,,,,,,,,,,,,,,,,,,,,,,,,,,,,,,,,,,,,,,,,,,,,
,,,,,,615b38fbee37c31346d21b1c,62bbf953bb9736d56fd3e424,2022-06-29_09h08.01.218,Colour_Asymmetry_Pilot,2022.1.3,Win32,59.95203837,62bbe60bf3d75ef465d3e404,0,10,10,80,1,onetwo,,,,,,,,,,,,,,,,,,,,,,,,,,,,,,,,,,,,,,,,,,,,,,,,,,,,,,,,,,,,,,,,,,,,,,,,,,,,,,,,,,,,,,,,,,,,,,,,,,,,,,,,,,,,,,,,,,,,,,,,,,,,,,,,,,,,,,,,,,,,,,,,,,,,,,,,
,,,,,,615b38fbee37c31346d21b1c,62bbf953bb9736d56fd3e424,2022-06-29_09h08.01.218,Colour_Asymmetry_Pilot,2022.1.3,Win32,59.95203837,62bbe60bf3d75ef465d3e404,0,11,11,154,1,twoone,,,,,,,,,,,,,,,,,,,,,,,,,,,,,,,,,,,,,,,,,,,,,,,,,,,,,,,,,,,,,,,,,,,,,,,,,,,,,,,,,,,,,,,,,,,,,,,,,,,,,,,,,,,,,,,,,,,,,,,,,,,,,,,,,,,,,,,,,,,,,,,,,,,,,,,,
,,,,,,615b38fbee37c31346d21b1c,62bbf953bb9736d56fd3e424,2022-06-29_09h08.01.218,Colour_Asymmetry_Pilot,2022.1.3,Win32,59.95203837,62bbe60bf3d75ef465d3e404,0,12,12,114,1,twoone,,,,,,,,,,,,,,,,,,,,,,,,,,,,,,,,,,,,,,,,,,,,,,,,,,,,,,,,,,,,,,,,,,,,,,,,,,,,,,,,,,,,,,,,,,,,,,,,,,,,,,,,,,,,,,,,,,,,,,,,,,,,,,,,,,,,,,,,,,,,,,,,,,,,,,,,
,,,,,,615b38fbee37c31346d21b1c,62bbf953bb9736d56fd3e424,2022-06-29_09h08.01.218,Colour_Asymmetry_Pilot,2022.1.3,Win32,59.95203837,62bbe60bf3d75ef465d3e404,0,13,13,142,1,fourtwo,,,,,,,,,,,,,,,,,,,,,,,,,,,,,,,,,,,,,,,,,,,,,,,,,,,,,,,,,,,,,,,,,,,,,,,,,,,,,,,,,,,,,,,,,,,,,,,,,,,,,,,,,,,,,,,,,,,,,,,,,,,,,,,,,,,,,,,,,,,,,,,,,,,,,,,,
,,,,,,615b38fbee37c31346d21b1c,62bbf953bb9736d56fd3e424,2022-06-29_09h08.01.218,Colour_Asymmetry_Pilot,2022.1.3,Win32,59.95203837,62bbe60bf3d75ef465d3e404,0,14,14,48,1,onetwo,,,,,,,,,,,,,,,,,,,,,,,,,,,,,,,,,,,,,,,,,,,,,,,,,,,,,,,,,,,,,,,,,,,,,,,,,,,,,,,,,,,,,,,,,,,,,,,,,,,,,,,,,,,,,,,,,,,,,,,,,,,,,,,,,,,,,,,,,,,,,,,,,,,,,,,,
,,,,,,615b38fbee37c31346d21b1c,62bbf953bb9736d56fd3e424,2022-06-29_09h08.01.218,Colour_Asymmetry_Pilot,2022.1.3,Win32,59.95203837,62bbe60bf3d75ef465d3e404,0,15,15,113,1,onethree,,,,,,,,,,,,,,,,,,,,,,,,,,,,,,,,,,,,,,,,,,,,,,,,,,,,,,,,,,,,,,,,,,,,,,,,,,,,,,,,,,,,,,,,,,,,,,,,,,,,,,,,,,,,,,,,,,,,,,,,,,,,,,,,,,,,,,,,,,,,,,,,,,,,,,,,
,,,,,,615b38fbee37c31346d21b1c,62bbf953bb9736d56fd3e424,2022-06-29_09h08.01.218,Colour_Asymmetry_Pilot,2022.1.3,Win32,59.95203837,62bbe60bf3d75ef465d3e404,0,16,16,56,1,onetwo,,,,,,,,,,,,,,,,,,,,,,,,,,,,,,,,,,,,,,,,,,,,,,,,,,,,,,,,,,,,,,,,,,,,,,,,,,,,,,,,,,,,,,,,,,,,,,,,,,,,,,,,,,,,,,,,,,,,,,,,,,,,,,,,,,,,,,,,,,,,,,,,,,,,,,,,
,,,,,,615b38fbee37c31346d21b1c,62bbf953bb9736d56fd3e424,2022-06-29_09h08.01.218,Colour_Asymmetry_Pilot,2022.1.3,Win32,59.95203837,62bbe60bf3d75ef465d3e404,0,17,17,45,1,threefour,,,,,,,,,,,,,,,,,,,,,,,,,,,,,,,,,,,,,,,,,,,,,,,,,,,,,,,,,,,,,,,,,,,,,,,,,,,,,,,,,,,,,,,,,,,,,,,,,,,,,,,,,,,,,,,,,,,,,,,,,,,,,,,,,,,,,,,,,,,,,,,,,,,,,,,,
,,,,,,615b38fbee37c31346d21b1c,62bbf953bb9736d56fd3e424,2022-06-29_09h08.01.218,Colour_Asymmetry_Pilot,2022.1.3,Win32,59.95203837,62bbe60bf3d75ef465d3e404,0,18,18,132,1,threeone,,,,,,,,,,,,,,,,,,,,,,,,,,,,,,,,,,,,,,,,,,,,,,,,,,,,,,,,,,,,,,,,,,,,,,,,,,,,,,,,,,,,,,,,,,,,,,,,,,,,,,,,,,,,,,,,,,,,,,,,,,,,,,,,,,,,,,,,,,,,,,,,,,,,,,,,
,,,,,,615b38fbee37c31346d21b1c,62bbf953bb9736d56fd3e424,2022-06-29_09h08.01.218,Colour_Asymmetry_Pilot,2022.1.3,Win32,59.95203837,62bbe60bf3d75ef465d3e404,0,19,19,21,1,threefour,,,,,,,,,,,,,,,,,,,,,,,,,,,,,,,,,,,,,,,,,,,,,,,,,,,,,,,,,,,,,,,,,,,,,,,,,,,,,,,,,,,,,,,,,,,,,,,,,,,,,,,,,,,,,,,,,,,,,,,,,,,,,,,,,,,,,,,,,,,,,,,,,,,,,,,,
,,,,,,615b38fbee37c31346d21b1c,62bbf953bb9736d56fd3e424,2022-06-29_09h08.01.218,Colour_Asymmetry_Pilot,2022.1.3,Win32,59.95203837,62bbe60bf3d75ef465d3e404,0,20,20,148,1,threeone,,,,,,,,,,,,,,,,,,,,,,,,,,,,,,,,,,,,,,,,,,,,,,,,,,,,,,,,,,,,,,,,,,,,,,,,,,,,,,,,,,,,,,,,,,,,,,,,,,,,,,,,,,,,,,,,,,,,,,,,,,,,,,,,,,,,,,,,,,,,,,,,,,,,,,,,
,,,,,,615b38fbee37c31346d21b1c,62bbf953bb9736d56fd3e424,2022-06-29_09h08.01.218,Colour_Asymmetry_Pilot,2022.1.3,Win32,59.95203837,62bbe60bf3d75ef465d3e404,0,21,21,55,1,fourthree,,,,,,,,,,,,,,,,,,,,,,,,,,,,,,,,,,,,,,,,,,,,,,,,,,,,,,,,,,,,,,,,,,,,,,,,,,,,,,,,,,,,,,,,,,,,,,,,,,,,,,,,,,,,,,,,,,,,,,,,,,,,,,,,,,,,,,,,,,,,,,,,,,,,,,,,
,,,,,,615b38fbee37c31346d21b1c,62bbf953bb9736d56fd3e424,2022-06-29_09h08.01.218,Colour_Asymmetry_Pilot,2022.1.3,Win32,59.95203837,62bbe60bf3d75ef465d3e404,0,22,22,159,1,fourthree,,,,,,,,,,,,,,,,,,,,,,,,,,,,,,,,,,,,,,,,,,,,,,,,,,,,,,,,,,,,,,,,,,,,,,,,,,,,,,,,,,,,,,,,,,,,,,,,,,,,,,,,,,,,,,,,,,,,,,,,,,,,,,,,,,,,,,,,,,,,,,,,,,,,,,,,
,,,,,,615b38fbee37c31346d21b1c,62bbf953bb9736d56fd3e424,2022-06-29_09h08.01.218,Colour_Asymmetry_Pilot,2022.1.3,Win32,59.95203837,62bbe60bf3d75ef465d3e404,0,23,23,6,1,fourtwo,,,,,,,,,,,,,,,,,,,,,,,,,,,,,,,,,,,,,,,,,,,,,,,,,,,,,,,,,,,,,,,,,,,,,,,,,,,,,,,,,,,,,,,,,,,,,,,,,,,,,,,,,,,,,,,,,,,,,,,,,,,,,,,,,,,,,,,,,,,,,,,,,,,,,,,,
,,,,,,615b38fbee37c31346d21b1c,62bbf953bb9736d56fd3e424,2022-06-29_09h08.01.218,Colour_Asymmetry_Pilot,2022.1.3,Win32,59.95203837,62bbe60bf3d75ef465d3e404,0,24,24,116,1,threeone,,,,,,,,,,,,,,,,,,,,,,,,,,,,,,,,,,,,,,,,,,,,,,,,,,,,,,,,,,,,,,,,,,,,,,,,,,,,,,,,,,,,,,,,,,,,,,,,,,,,,,,,,,,,,,,,,,,,,,,,,,,,,,,,,,,,,,,,,,,,,,,,,,,,,,,,
,,,,,,615b38fbee37c31346d21b1c,62bbf953bb9736d56fd3e424,2022-06-29_09h08.01.218,Colour_Asymmetry_Pilot,2022.1.3,Win32,59.95203837,62bbe60bf3d75ef465d3e404,0,25,25,84,1,threeone,,,,,,,,,,,,,,,,,,,,,,,,,,,,,,,,,,,,,,,,,,,,,,,,,,,,,,,,,,,,,,,,,,,,,,,,,,,,,,,,,,,,,,,,,,,,,,,,,,,,,,,,,,,,,,,,,,,,,,,,,,,,,,,,,,,,,,,,,,,,,,,,,,,,,,,,
,,,,,,615b38fbee37c31346d21b1c,62bbf953bb9736d56fd3e424,2022-06-29_09h08.01.218,Colour_Asymmetry_Pilot,2022.1.3,Win32,59.95203837,62bbe60bf3d75ef465d3e404,0,26,26,33,1,onethree,,,,,,,,,,,,,,,,,,,,,,,,,,,,,,,,,,,,,,,,,,,,,,,,,,,,,,,,,,,,,,,,,,,,,,,,,,,,,,,,,,,,,,,,,,,,,,,,,,,,,,,,,,,,,,,,,,,,,,,,,,,,,,,,,,,,,,,,,,,,,,,,,,,,,,,,
,,,,,,615b38fbee37c31346d21b1c,62bbf953bb9736d56fd3e424,2022-06-29_09h08.01.218,Colour_Asymmetry_Pilot,2022.1.3,Win32,59.95203837,62bbe60bf3d75ef465d3e404,0,27,27,106,1,twoone,,,,,,,,,,,,,,,,,,,,,,,,,,,,,,,,,,,,,,,,,,,,,,,,,,,,,,,,,,,,,,,,,,,,,,,,,,,,,,,,,,,,,,,,,,,,,,,,,,,,,,,,,,,,,,,,,,,,,,,,,,,,,,,,,,,,,,,,,,,,,,,,,,,,,,,,
,,,,,,615b38fbee37c31346d21b1c,62bbf953bb9736d56fd3e424,2022-06-29_09h08.01.218,Colour_Asymmetry_Pilot,2022.1.3,Win32,59.95203837,62bbe60bf3d75ef465d3e404,0,28,28,111,1,fourthree,,,,,,,,,,,,,,,,,,,,,,,,,,,,,,,,,,,,,,,,,,,,,,,,,,,,,,,,,,,,,,,,,,,,,,,,,,,,,,,,,,,,,,,,,,,,,,,,,,,,,,,,,,,,,,,,,,,,,,,,,,,,,,,,,,,,,,,,,,,,,,,,,,,,,,,,
,,,,,,615b38fbee37c31346d21b1c,62bbf953bb9736d56fd3e424,2022-06-29_09h08.01.218,Colour_Asymmetry_Pilot,2022.1.3,Win32,59.95203837,62bbe60bf3d75ef465d3e404,0,29,29,67,1,twofour,,,,,,,,,,,,,,,,,,,,,,,,,,,,,,,,,,,,,,,,,,,,,,,,,,,,,,,,,,,,,,,,,,,,,,,,,,,,,,,,,,,,,,,,,,,,,,,,,,,,,,,,,,,,,,,,,,,,,,,,,,,,,,,,,,,,,,,,,,,,,,,,,,,,,,,,
,,,,,,615b38fbee37c31346d21b1c,62bbf953bb9736d56fd3e424,2022-06-29_09h08.01.218,Colour_Asymmetry_Pilot,2022.1.3,Win32,59.95203837,62bbe60bf3d75ef465d3e404,0,30,30,43,1,twofour,,,,,,,,,,,,,,,,,,,,,,,,,,,,,,,,,,,,,,,,,,,,,,,,,,,,,,,,,,,,,,,,,,,,,,,,,,,,,,,,,,,,,,,,,,,,,,,,,,,,,,,,,,,,,,,,,,,,,,,,,,,,,,,,,,,,,,,,,,,,,,,,,,,,,,,,
,,,,,,615b38fbee37c31346d21b1c,62bbf953bb9736d56fd3e424,2022-06-29_09h08.01.218,Colour_Asymmetry_Pilot,2022.1.3,Win32,59.95203837,62bbe60bf3d75ef465d3e404,0,31,31,68,1,threeone,,,,,,,,,,,,,,,,,,,,,,,,,,,,,,,,,,,,,,,,,,,,,,,,,,,,,,,,,,,,,,,,,,,,,,,,,,,,,,,,,,,,,,,,,,,,,,,,,,,,,,,,,,,,,,,,,,,,,,,,,,,,,,,,,,,,,,,,,,,,,,,,,,,,,,,,
,,,,,,615b38fbee37c31346d21b1c,62bbf953bb9736d56fd3e424,2022-06-29_09h08.01.218,Colour_Asymmetry_Pilot,2022.1.3,Win32,59.95203837,62bbe60bf3d75ef465d3e404,0,32,32,36,1,threeone,,,,,,,,,,,,,,,,,,,,,,,,,,,,,,,,,,,,,,,,,,,,,,,,,,,,,,,,,,,,,,,,,,,,,,,,,,,,,,,,,,,,,,,,,,,,,,,,,,,,,,,,,,,,,,,,,,,,,,,,,,,,,,,,,,,,,,,,,,,,,,,,,,,,,,,,
,,,,,,615b38fbee37c31346d21b1c,62bbf953bb9736d56fd3e424,2022-06-29_09h08.01.218,Colour_Asymmetry_Pilot,2022.1.3,Win32,59.95203837,62bbe60bf3d75ef465d3e404,0,33,33,23,1,fourthree,,,,,,,,,,,,,,,,,,,,,,,,,,,,,,,,,,,,,,,,,,,,,,,,,,,,,,,,,,,,,,,,,,,,,,,,,,,,,,,,,,,,,,,,,,,,,,,,,,,,,,,,,,,,,,,,,,,,,,,,,,,,,,,,,,,,,,,,,,,,,,,,,,,,,,,,
,,,,,,615b38fbee37c31346d21b1c,62bbf953bb9736d56fd3e424,2022-06-29_09h08.01.218,Colour_Asymmetry_Pilot,2022.1.3,Win32,59.95203837,62bbe60bf3d75ef465d3e404,0,34,34,125,1,threefour,,,,,,,,,,,,,,,,,,,,,,,,,,,,,,,,,,,,,,,,,,,,,,,,,,,,,,,,,,,,,,,,,,,,,,,,,,,,,,,,,,,,,,,,,,,,,,,,,,,,,,,,,,,,,,,,,,,,,,,,,,,,,,,,,,,,,,,,,,,,,,,,,,,,,,,,
,,,,,,615b38fbee37c31346d21b1c,62bbf953bb9736d56fd3e424,2022-06-29_09h08.01.218,Colour_Asymmetry_Pilot,2022.1.3,Win32,59.95203837,62bbe60bf3d75ef465d3e404,0,35,35,19,1,twofour,,,,,,,,,,,,,,,,,,,,,,,,,,,,,,,,,,,,,,,,,,,,,,,,,,,,,,,,,,,,,,,,,,,,,,,,,,,,,,,,,,,,,,,,,,,,,,,,,,,,,,,,,,,,,,,,,,,,,,,,,,,,,,,,,,,,,,,,,,,,,,,,,,,,,,,,
,,,,,,615b38fbee37c31346d21b1c,62bbf953bb9736d56fd3e424,2022-06-29_09h08.01.218,Colour_Asymmetry_Pilot,2022.1.3,Win32,59.95203837,62bbe60bf3d75ef465d3e404,0,36,36,70,1,fourtwo,,,,,,,,,,,,,,,,,,,,,,,,,,,,,,,,,,,,,,,,,,,,,,,,,,,,,,,,,,,,,,,,,,,,,,,,,,,,,,,,,,,,,,,,,,,,,,,,,,,,,,,,,,,,,,,,,,,,,,,,,,,,,,,,,,,,,,,,,,,,,,,,,,,,,,,,
,,,,,,615b38fbee37c31346d21b1c,62bbf953bb9736d56fd3e424,2022-06-29_09h08.01.218,Colour_Asymmetry_Pilot,2022.1.3,Win32,59.95203837,62bbe60bf3d75ef465d3e404,0,37,37,122,1,twoone,,,,,,,,,,,,,,,,,,,,,,,,,,,,,,,,,,,,,,,,,,,,,,,,,,,,,,,,,,,,,,,,,,,,,,,,,,,,,,,,,,,,,,,,,,,,,,,,,,,,,,,,,,,,,,,,,,,,,,,,,,,,,,,,,,,,,,,,,,,,,,,,,,,,,,,,
,,,,,,615b38fbee37c31346d21b1c,62bbf953bb9736d56fd3e424,2022-06-29_09h08.01.218,Colour_Asymmetry_Pilot,2022.1.3,Win32,59.95203837,62bbe60bf3d75ef465d3e404,0,38,38,25,1,onethree,,,,,,,,,,,,,,,,,,,,,,,,,,,,,,,,,,,,,,,,,,,,,,,,,,,,,,,,,,,,,,,,,,,,,,,,,,,,,,,,,,,,,,,,,,,,,,,,,,,,,,,,,,,,,,,,,,,,,,,,,,,,,,,,,,,,,,,,,,,,,,,,,,,,,,,,
,,,,,,615b38fbee37c31346d21b1c,62bbf953bb9736d56fd3e424,2022-06-29_09h08.01.218,Colour_Asymmetry_Pilot,2022.1.3,Win32,59.95203837,62bbe60bf3d75ef465d3e404,0,39,39,143,1,fourthree,,,,,,,,,,,,,,,,,,,,,,,,,,,,,,,,,,,,,,,,,,,,,,,,,,,,,,,,,,,,,,,,,,,,,,,,,,,,,,,,,,,,,,,,,,,,,,,,,,,,,,,,,,,,,,,,,,,,,,,,,,,,,,,,,,,,,,,,,,,,,,,,,,,,,,,,
,,,,,,615b38fbee37c31346d21b1c,62bbf953bb9736d56fd3e424,2022-06-29_09h08.01.218,Colour_Asymmetry_Pilot,2022.1.3,Win32,59.95203837,62bbe60bf3d75ef465d3e404,0,40,40,28,1,threeone,,,,,,,,,,,,,,,,,,,,,,,,,,,,,,,,,,,,,,,,,,,,,,,,,,,,,,,,,,,,,,,,,,,,,,,,,,,,,,,,,,,,,,,,,,,,,,,,,,,,,,,,,,,,,,,,,,,,,,,,,,,,,,,,,,,,,,,,,,,,,,,,,,,,,,,,
,,,,,,615b38fbee37c31346d21b1c,62bbf953bb9736d56fd3e424,2022-06-29_09h08.01.218,Colour_Asymmetry_Pilot,2022.1.3,Win32,59.95203837,62bbe60bf3d75ef465d3e404,0,41,41,9,1,onethree,,,,,,,,,,,,,,,,,,,,,,,,,,,,,,,,,,,,,,,,,,,,,,,,,,,,,,,,,,,,,,,,,,,,,,,,,,,,,,,,,,,,,,,,,,,,,,,,,,,,,,,,,,,,,,,,,,,,,,,,,,,,,,,,,,,,,,,,,,,,,,,,,,,,,,,,
,,,,,,615b38fbee37c31346d21b1c,62bbf953bb9736d56fd3e424,2022-06-29_09h08.01.218,Colour_Asymmetry_Pilot,2022.1.3,Win32,59.95203837,62bbe60bf3d75ef465d3e404,0,42,42,73,1,onethree,,,,,,,,,,,,,,,,,,,,,,,,,,,,,,,,,,,,,,,,,,,,,,,,,,,,,,,,,,,,,,,,,,,,,,,,,,,,,,,,,,,,,,,,,,,,,,,,,,,,,,,,,,,,,,,,,,,,,,,,,,,,,,,,,,,,,,,,,,,,,,,,,,,,,,,,
,,,,,,615b38fbee37c31346d21b1c,62bbf953bb9736d56fd3e424,2022-06-29_09h08.01.218,Colour_Asymmetry_Pilot,2022.1.3,Win32,59.95203837,62bbe60bf3d75ef465d3e404,0,43,43,135,1,fourthree,,,,,,,,,,,,,,,,,,,,,,,,,,,,,,,,,,,,,,,,,,,,,,,,,,,,,,,,,,,,,,,,,,,,,,,,,,,,,,,,,,,,,,,,,,,,,,,,,,,,,,,,,,,,,,,,,,,,,,,,,,,,,,,,,,,,,,,,,,,,,,,,,,,,,,,,
,,,,,,615b38fbee37c31346d21b1c,62bbf953bb9736d56fd3e424,2022-06-29_09h08.01.218,Colour_Asymmetry_Pilot,2022.1.3,Win32,59.95203837,62bbe60bf3d75ef465d3e404,0,44,44,95,1,fourthree,,,,,,,,,,,,,,,,,,,,,,,,,,,,,,,,,,,,,,,,,,,,,,,,,,,,,,,,,,,,,,,,,,,,,,,,,,,,,,,,,,,,,,,,,,,,,,,,,,,,,,,,,,,,,,,,,,,,,,,,,,,,,,,,,,,,,,,,,,,,,,,,,,,,,,,,
,,,,,,615b38fbee37c31346d21b1c,62bbf953bb9736d56fd3e424,2022-06-29_09h08.01.218,Colour_Asymmetry_Pilot,2022.1.3,Win32,59.95203837,62bbe60bf3d75ef465d3e404,0,45,45,7,1,fourthree,,,,,,,,,,,,,,,,,,,,,,,,,,,,,,,,,,,,,,,,,,,,,,,,,,,,,,,,,,,,,,,,,,,,,,,,,,,,,,,,,,,,,,,,,,,,,,,,,,,,,,,,,,,,,,,,,,,,,,,,,,,,,,,,,,,,,,,,,,,,,,,,,,,,,,,,
,,,,,,615b38fbee37c31346d21b1c,62bbf953bb9736d56fd3e424,2022-06-29_09h08.01.218,Colour_Asymmetry_Pilot,2022.1.3,Win32,59.95203837,62bbe60bf3d75ef465d3e404,0,46,46,144,1,onetwo,,,,,,,,,,,,,,,,,,,,,,,,,,,,,,,,,,,,,,,,,,,,,,,,,,,,,,,,,,,,,,,,,,,,,,,,,,,,,,,,,,,,,,,,,,,,,,,,,,,,,,,,,,,,,,,,,,,,,,,,,,,,,,,,,,,,,,,,,,,,,,,,,,,,,,,,
,,,,,,615b38fbee37c31346d21b1c,62bbf953bb9736d56fd3e424,2022-06-29_09h08.01.218,Colour_Asymmetry_Pilot,2022.1.3,Win32,59.95203837,62bbe60bf3d75ef465d3e404,0,47,47,63,1,fourthree,,,,,,,,,,,,,,,,,,,,,,,,,,,,,,,,,,,,,,,,,,,,,,,,,,,,,,,,,,,,,,,,,,,,,,,,,,,,,,,,,,,,,,,,,,,,,,,,,,,,,,,,,,,,,,,,,,,,,,,,,,,,,,,,,,,,,,,,,,,,,,,,,,,,,,,,
,,,,,,615b38fbee37c31346d21b1c,62bbf953bb9736d56fd3e424,2022-06-29_09h08.01.218,Colour_Asymmetry_Pilot,2022.1.3,Win32,59.95203837,62bbe60bf3d75ef465d3e404,0,48,48,112,1,onetwo,,,,,,,,,,,,,,,,,,,,,,,,,,,,,,,,,,,,,,,,,,,,,,,,,,,,,,,,,,,,,,,,,,,,,,,,,,,,,,,,,,,,,,,,,,,,,,,,,,,,,,,,,,,,,,,,,,,,,,,,,,,,,,,,,,,,,,,,,,,,,,,,,,,,,,,,
,,,,,,615b38fbee37c31346d21b1c,62bbf953bb9736d56fd3e424,2022-06-29_09h08.01.218,Colour_Asymmetry_Pilot,2022.1.3,Win32,59.95203837,62bbe60bf3d75ef465d3e404,0,49,49,129,1,onethree,,,,,,,,,,,,,,,,,,,,,,,,,,,,,,,,,,,,,,,,,,,,,,,,,,,,,,,,,,,,,,,,,,,,,,,,,,,,,,,,,,,,,,,,,,,,,,,,,,,,,,,,,,,,,,,,,,,,,,,,,,,,,,,,,,,,,,,,,,,,,,,,,,,,,,,,
,,,,,,615b38fbee37c31346d21b1c,62bbf953bb9736d56fd3e424,2022-06-29_09h08.01.218,Colour_Asymmetry_Pilot,2022.1.3,Win32,59.95203837,62bbe60bf3d75ef465d3e404,0,50,50,127,1,fourthree,,,,,,,,,,,,,,,,,,,,,,,,,,,,,,,,,,,,,,,,,,,,,,,,,,,,,,,,,,,,,,,,,,,,,,,,,,,,,,,,,,,,,,,,,,,,,,,,,,,,,,,,,,,,,,,,,,,,,,,,,,,,,,,,,,,,,,,,,,,,,,,,,,,,,,,,
,,,,,,615b38fbee37c31346d21b1c,62bbf953bb9736d56fd3e424,2022-06-29_09h08.01.218,Colour_Asymmetry_Pilot,2022.1.3,Win32,59.95203837,62bbe60bf3d75ef465d3e404,0,51,51,152,1,onetwo,,,,,,,,,,,,,,,,,,,,,,,,,,,,,,,,,,,,,,,,,,,,,,,,,,,,,,,,,,,,,,,,,,,,,,,,,,,,,,,,,,,,,,,,,,,,,,,,,,,,,,,,,,,,,,,,,,,,,,,,,,,,,,,,,,,,,,,,,,,,,,,,,,,,,,,,
,,,,,,615b38fbee37c31346d21b1c,62bbf953bb9736d56fd3e424,2022-06-29_09h08.01.218,Colour_Asymmetry_Pilot,2022.1.3,Win32,59.95203837,62bbe60bf3d75ef465d3e404,0,52,52,124,1,threeone,,,,,,,,,,,,,,,,,,,,,,,,,,,,,,,,,,,,,,,,,,,,,,,,,,,,,,,,,,,,,,,,,,,,,,,,,,,,,,,,,,,,,,,,,,,,,,,,,,,,,,,,,,,,,,,,,,,,,,,,,,,,,,,,,,,,,,,,,,,,,,,,,,,,,,,,
,,,,,,615b38fbee37c31346d21b1c,62bbf953bb9736d56fd3e424,2022-06-29_09h08.01.218,Colour_Asymmetry_Pilot,2022.1.3,Win32,59.95203837,62bbe60bf3d75ef465d3e404,0,53,53,20,1,threeone,,,,,,,,,,,,,,,,,,,,,,,,,,,,,,,,,,,,,,,,,,,,,,,,,,,,,,,,,,,,,,,,,,,,,,,,,,,,,,,,,,,,,,,,,,,,,,,,,,,,,,,,,,,,,,,,,,,,,,,,,,,,,,,,,,,,,,,,,,,,,,,,,,,,,,,,
,,,,,,615b38fbee37c31346d21b1c,62bbf953bb9736d56fd3e424,2022-06-29_09h08.01.218,Colour_Asymmetry_Pilot,2022.1.3,Win32,59.95203837,62bbe60bf3d75ef465d3e404,0,54,54,30,1,fourtwo,,,,,,,,,,,,,,,,,,,,,,,,,,,,,,,,,,,,,,,,,,,,,,,,,,,,,,,,,,,,,,,,,,,,,,,,,,,,,,,,,,,,,,,,,,,,,,,,,,,,,,,,,,,,,,,,,,,,,,,,,,,,,,,,,,,,,,,,,,,,,,,,,,,,,,,,
,,,,,,615b38fbee37c31346d21b1c,62bbf953bb9736d56fd3e424,2022-06-29_09h08.01.218,Colour_Asymmetry_Pilot,2022.1.3,Win32,59.95203837,62bbe60bf3d75ef465d3e404,0,55,55,40,1,onetwo,,,,,,,,,,,,,,,,,,,,,,,,,,,,,,,,,,,,,,,,,,,,,,,,,,,,,,,,,,,,,,,,,,,,,,,,,,,,,,,,,,,,,,,,,,,,,,,,,,,,,,,,,,,,,,,,,,,,,,,,,,,,,,,,,,,,,,,,,,,,,,,,,,,,,,,,
,,,,,,615b38fbee37c31346d21b1c,62bbf953bb9736d56fd3e424,2022-06-29_09h08.01.218,Colour_Asymmetry_Pilot,2022.1.3,Win32,59.95203837,62bbe60bf3d75ef465d3e404,0,56,56,81,1,onethree,,,,,,,,,,,,,,,,,,,,,,,,,,,,,,,,,,,,,,,,,,,,,,,,,,,,,,,,,,,,,,,,,,,,,,,,,,,,,,,,,,,,,,,,,,,,,,,,,,,,,,,,,,,,,,,,,,,,,,,,,,,,,,,,,,,,,,,,,,,,,,,,,,,,,,,,
,,,,,,615b38fbee37c31346d21b1c,62bbf953bb9736d56fd3e424,2022-06-29_09h08.01.218,Colour_Asymmetry_Pilot,2022.1.3,Win32,59.95203837,62bbe60bf3d75ef465d3e404,0,57,57,158,1,fourtwo,,,,,,,,,,,,,,,,,,,,,,,,,,,,,,,,,,,,,,,,,,,,,,,,,,,,,,,,,,,,,,,,,,,,,,,,,,,,,,,,,,,,,,,,,,,,,,,,,,,,,,,,,,,,,,,,,,,,,,,,,,,,,,,,,,,,,,,,,,,,,,,,,,,,,,,,
,,,,,,615b38fbee37c31346d21b1c,62bbf953bb9736d56fd3e424,2022-06-29_09h08.01.218,Colour_Asymmetry_Pilot,2022.1.3,Win32,59.95203837,62bbe60bf3d75ef465d3e404,0,58,58,39,1,fourthree,,,,,,,,,,,,,,,,,,,,,,,,,,,,,,,,,,,,,,,,,,,,,,,,,,,,,,,,,,,,,,,,,,,,,,,,,,,,,,,,,,,,,,,,,,,,,,,,,,,,,,,,,,,,,,,,,,,,,,,,,,,,,,,,,,,,,,,,,,,,,,,,,,,,,,,,
,,,,,,615b38fbee37c31346d21b1c,62bbf953bb9736d56fd3e424,2022-06-29_09h08.01.218,Colour_Asymmetry_Pilot,2022.1.3,Win32,59.95203837,62bbe60bf3d75ef465d3e404,0,59,59,66,1,twoone,,,,,,,,,,,,,,,,,,,,,,,,,,,,,,,,,,,,,,,,,,,,,,,,,,,,,,,,,,,,,,,,,,,,,,,,,,,,,,,,,,,,,,,,,,,,,,,,,,,,,,,,,,,,,,,,,,,,,,,,,,,,,,,,,,,,,,,,,,,,,,,,,,,,,,,,
,,,,,,615b38fbee37c31346d21b1c,62bbf953bb9736d56fd3e424,2022-06-29_09h08.01.218,Colour_Asymmetry_Pilot,2022.1.3,Win32,59.95203837,62bbe60bf3d75ef465d3e404,0,60,60,131,1,twofour,,,,,,,,,,,,,,,,,,,,,,,,,,,,,,,,,,,,,,,,,,,,,,,,,,,,,,,,,,,,,,,,,,,,,,,,,,,,,,,,,,,,,,,,,,,,,,,,,,,,,,,,,,,,,,,,,,,,,,,,,,,,,,,,,,,,,,,,,,,,,,,,,,,,,,,,
,,,,,,615b38fbee37c31346d21b1c,62bbf953bb9736d56fd3e424,2022-06-29_09h08.01.218,Colour_Asymmetry_Pilot,2022.1.3,Win32,59.95203837,62bbe60bf3d75ef465d3e404,0,61,61,86,1,fourtwo,,,,,,,,,,,,,,,,,,,,,,,,,,,,,,,,,,,,,,,,,,,,,,,,,,,,,,,,,,,,,,,,,,,,,,,,,,,,,,,,,,,,,,,,,,,,,,,,,,,,,,,,,,,,,,,,,,,,,,,,,,,,,,,,,,,,,,,,,,,,,,,,,,,,,,,,
,,,,,,615b38fbee37c31346d21b1c,62bbf953bb9736d56fd3e424,2022-06-29_09h08.01.218,Colour_Asymmetry_Pilot,2022.1.3,Win32,59.95203837,62bbe60bf3d75ef465d3e404,0,62,62,54,1,fourtwo,,,,,,,,,,,,,,,,,,,,,,,,,,,,,,,,,,,,,,,,,,,,,,,,,,,,,,,,,,,,,,,,,,,,,,,,,,,,,,,,,,,,,,,,,,,,,,,,,,,,,,,,,,,,,,,,,,,,,,,,,,,,,,,,,,,,,,,,,,,,,,,,,,,,,,,,
,,,,,,615b38fbee37c31346d21b1c,62bbf953bb9736d56fd3e424,2022-06-29_09h08.01.218,Colour_Asymmetry_Pilot,2022.1.3,Win32,59.95203837,62bbe60bf3d75ef465d3e404,0,63,63,10,1,twoone,,,,,,,,,,,,,,,,,,,,,,,,,,,,,,,,,,,,,,,,,,,,,,,,,,,,,,,,,,,,,,,,,,,,,,,,,,,,,,,,,,,,,,,,,,,,,,,,,,,,,,,,,,,,,,,,,,,,,,,,,,,,,,,,,,,,,,,,,,,,,,,,,,,,,,,,
,,,,,,615b38fbee37c31346d21b1c,62bbf953bb9736d56fd3e424,2022-06-29_09h08.01.218,Colour_Asymmetry_Pilot,2022.1.3,Win32,59.95203837,62bbe60bf3d75ef465d3e404,0,64,64,59,1,twofour,,,,,,,,,,,,,,,,,,,,,,,,,,,,,,,,,,,,,,,,,,,,,,,,,,,,,,,,,,,,,,,,,,,,,,,,,,,,,,,,,,,,,,,,,,,,,,,,,,,,,,,,,,,,,,,,,,,,,,,,,,,,,,,,,,,,,,,,,,,,,,,,,,,,,,,,
,,,,,,615b38fbee37c31346d21b1c,62bbf953bb9736d56fd3e424,2022-06-29_09h08.01.218,Colour_Asymmetry_Pilot,2022.1.3,Win32,59.95203837,62bbe60bf3d75ef465d3e404,0,65,65,69,1,threefour,,,,,,,,,,,,,,,,,,,,,,,,,,,,,,,,,,,,,,,,,,,,,,,,,,,,,,,,,,,,,,,,,,,,,,,,,,,,,,,,,,,,,,,,,,,,,,,,,,,,,,,,,,,,,,,,,,,,,,,,,,,,,,,,,,,,,,,,,,,,,,,,,,,,,,,,
,,,,,,615b38fbee37c31346d21b1c,62bbf953bb9736d56fd3e424,2022-06-29_09h08.01.218,Colour_Asymmetry_Pilot,2022.1.3,Win32,59.95203837,62bbe60bf3d75ef465d3e404,0,66,66,14,1,fourtwo,,,,,,,,,,,,,,,,,,,,,,,,,,,,,,,,,,,,,,,,,,,,,,,,,,,,,,,,,,,,,,,,,,,,,,,,,,,,,,,,,,,,,,,,,,,,,,,,,,,,,,,,,,,,,,,,,,,,,,,,,,,,,,,,,,,,,,,,,,,,,,,,,,,,,,,,
,,,,,,615b38fbee37c31346d21b1c,62bbf953bb9736d56fd3e424,2022-06-29_09h08.01.218,Colour_Asymmetry_Pilot,2022.1.3,Win32,59.95203837,62bbe60bf3d75ef465d3e404,0,67,67,26,1,twoone,,,,,,,,,,,,,,,,,,,,,,,,,,,,,,,,,,,,,,,,,,,,,,,,,,,,,,,,,,,,,,,,,,,,,,,,,,,,,,,,,,,,,,,,,,,,,,,,,,,,,,,,,,,,,,,,,,,,,,,,,,,,,,,,,,,,,,,,,,,,,,,,,,,,,,,,
,,,,,,615b38fbee37c31346d21b1c,62bbf953bb9736d56fd3e424,2022-06-29_09h08.01.218,Colour_Asymmetry_Pilot,2022.1.3,Win32,59.95203837,62bbe60bf3d75ef465d3e404,0,68,68,79,1,fourthree,,,,,,,,,,,,,,,,,,,,,,,,,,,,,,,,,,,,,,,,,,,,,,,,,,,,,,,,,,,,,,,,,,,,,,,,,,,,,,,,,,,,,,,,,,,,,,,,,,,,,,,,,,,,,,,,,,,,,,,,,,,,,,,,,,,,,,,,,,,,,,,,,,,,,,,,
,,,,,,615b38fbee37c31346d21b1c,62bbf953bb9736d56fd3e424,2022-06-29_09h08.01.218,Colour_Asymmetry_Pilot,2022.1.3,Win32,59.95203837,62bbe60bf3d75ef465d3e404,0,69,69,138,1,twoone,,,,,,,,,,,,,,,,,,,,,,,,,,,,,,,,,,,,,,,,,,,,,,,,,,,,,,,,,,,,,,,,,,,,,,,,,,,,,,,,,,,,,,,,,,,,,,,,,,,,,,,,,,,,,,,,,,,,,,,,,,,,,,,,,,,,,,,,,,,,,,,,,,,,,,,,
,,,,,,615b38fbee37c31346d21b1c,62bbf953bb9736d56fd3e424,2022-06-29_09h08.01.218,Colour_Asymmetry_Pilot,2022.1.3,Win32,59.95203837,62bbe60bf3d75ef465d3e404,0,70,70,15,1,fourthree,,,,,,,,,,,,,,,,,,,,,,,,,,,,,,,,,,,,,,,,,,,,,,,,,,,,,,,,,,,,,,,,,,,,,,,,,,,,,,,,,,,,,,,,,,,,,,,,,,,,,,,,,,,,,,,,,,,,,,,,,,,,,,,,,,,,,,,,,,,,,,,,,,,,,,,,
,,,,,,615b38fbee37c31346d21b1c,62bbf953bb9736d56fd3e424,2022-06-29_09h08.01.218,Colour_Asymmetry_Pilot,2022.1.3,Win32,59.95203837,62bbe60bf3d75ef465d3e404,0,71,71,88,1,onetwo,,,,,,,,,,,,,,,,,,,,,,,,,,,,,,,,,,,,,,,,,,,,,,,,,,,,,,,,,,,,,,,,,,,,,,,,,,,,,,,,,,,,,,,,,,,,,,,,,,,,,,,,,,,,,,,,,,,,,,,,,,,,,,,,,,,,,,,,,,,,,,,,,,,,,,,,
,,,,,,615b38fbee37c31346d21b1c,62bbf953bb9736d56fd3e424,2022-06-29_09h08.01.218,Colour_Asymmetry_Pilot,2022.1.3,Win32,59.95203837,62bbe60bf3d75ef465d3e404,0,72,72,133,1,threefour,,,,,,,,,,,,,,,,,,,,,,,,,,,,,,,,,,,,,,,,,,,,,,,,,,,,,,,,,,,,,,,,,,,,,,,,,,,,,,,,,,,,,,,,,,,,,,,,,,,,,,,,,,,,,,,,,,,,,,,,,,,,,,,,,,,,,,,,,,,,,,,,,,,,,,,,
,,,,,,615b38fbee37c31346d21b1c,62bbf953bb9736d56fd3e424,2022-06-29_09h08.01.218,Colour_Asymmetry_Pilot,2022.1.3,Win32,59.95203837,62bbe60bf3d75ef465d3e404,0,73,73,94,1,fourtwo,,,,,,,,,,,,,,,,,,,,,,,,,,,,,,,,,,,,,,,,,,,,,,,,,,,,,,,,,,,,,,,,,,,,,,,,,,,,,,,,,,,,,,,,,,,,,,,,,,,,,,,,,,,,,,,,,,,,,,,,,,,,,,,,,,,,,,,,,,,,,,,,,,,,,,,,
,,,,,,615b38fbee37c31346d21b1c,62bbf953bb9736d56fd3e424,2022-06-29_09h08.01.218,Colour_Asymmetry_Pilot,2022.1.3,Win32,59.95203837,62bbe60bf3d75ef465d3e404,0,74,74,117,1,threefour,,,,,,,,,,,,,,,,,,,,,,,,,,,,,,,,,,,,,,,,,,,,,,,,,,,,,,,,,,,,,,,,,,,,,,,,,,,,,,,,,,,,,,,,,,,,,,,,,,,,,,,,,,,,,,,,,,,,,,,,,,,,,,,,,,,,,,,,,,,,,,,,,,,,,,,,
,,,,,,615b38fbee37c31346d21b1c,62bbf953bb9736d56fd3e424,2022-06-29_09h08.01.218,Colour_Asymmetry_Pilot,2022.1.3,Win32,59.95203837,62bbe60bf3d75ef465d3e404,0,75,75,98,1,twoone,,,,,,,,,,,,,,,,,,,,,,,,,,,,,,,,,,,,,,,,,,,,,,,,,,,,,,,,,,,,,,,,,,,,,,,,,,,,,,,,,,,,,,,,,,,,,,,,,,,,,,,,,,,,,,,,,,,,,,,,,,,,,,,,,,,,,,,,,,,,,,,,,,,,,,,,
,,,,,,615b38fbee37c31346d21b1c,62bbf953bb9736d56fd3e424,2022-06-29_09h08.01.218,Colour_Asymmetry_Pilot,2022.1.3,Win32,59.95203837,62bbe60bf3d75ef465d3e404,0,76,76,42,1,twoone,,,,,,,,,,,,,,,,,,,,,,,,,,,,,,,,,,,,,,,,,,,,,,,,,,,,,,,,,,,,,,,,,,,,,,,,,,,,,,,,,,,,,,,,,,,,,,,,,,,,,,,,,,,,,,,,,,,,,,,,,,,,,,,,,,,,,,,,,,,,,,,,,,,,,,,,
,,,,,,615b38fbee37c31346d21b1c,62bbf953bb9736d56fd3e424,2022-06-29_09h08.01.218,Colour_Asymmetry_Pilot,2022.1.3,Win32,59.95203837,62bbe60bf3d75ef465d3e404,0,77,77,97,1,onethree,,,,,,,,,,,,,,,,,,,,,,,,,,,,,,,,,,,,,,,,,,,,,,,,,,,,,,,,,,,,,,,,,,,,,,,,,,,,,,,,,,,,,,,,,,,,,,,,,,,,,,,,,,,,,,,,,,,,,,,,,,,,,,,,,,,,,,,,,,,,,,,,,,,,,,,,
,,,,,,615b38fbee37c31346d21b1c,62bbf953bb9736d56fd3e424,2022-06-29_09h08.01.218,Colour_Asymmetry_Pilot,2022.1.3,Win32,59.95203837,62bbe60bf3d75ef465d3e404,0,78,78,145,1,onethree,,,,,,,,,,,,,,,,,,,,,,,,,,,,,,,,,,,,,,,,,,,,,,,,,,,,,,,,,,,,,,,,,,,,,,,,,,,,,,,,,,,,,,,,,,,,,,,,,,,,,,,,,,,,,,,,,,,,,,,,,,,,,,,,,,,,,,,,,,,,,,,,,,,,,,,,
,,,,,,615b38fbee37c31346d21b1c,62bbf953bb9736d56fd3e424,2022-06-29_09h08.01.218,Colour_Asymmetry_Pilot,2022.1.3,Win32,59.95203837,62bbe60bf3d75ef465d3e404,0,79,79,34,1,twoone,,,,,,,,,,,,,,,,,,,,,,,,,,,,,,,,,,,,,,,,,,,,,,,,,,,,,,,,,,,,,,,,,,,,,,,,,,,,,,,,,,,,,,,,,,,,,,,,,,,,,,,,,,,,,,,,,,,,,,,,,,,,,,,,,,,,,,,,,,,,,,,,,,,,,,,,
,,,,,,615b38fbee37c31346d21b1c,62bbf953bb9736d56fd3e424,2022-06-29_09h08.01.218,Colour_Asymmetry_Pilot,2022.1.3,Win32,59.95203837,62bbe60bf3d75ef465d3e404,0,80,80,151,1,fourthree,,,,,,,,,,,,,,,,,,,,,,,,,,,,,,,,,,,,,,,,,,,,,,,,,,,,,,,,,,,,,,,,,,,,,,,,,,,,,,,,,,,,,,,,,,,,,,,,,,,,,,,,,,,,,,,,,,,,,,,,,,,,,,,,,,,,,,,,,,,,,,,,,,,,,,,,
,,,,,,615b38fbee37c31346d21b1c,62bbf953bb9736d56fd3e424,2022-06-29_09h08.01.218,Colour_Asymmetry_Pilot,2022.1.3,Win32,59.95203837,62bbe60bf3d75ef465d3e404,0,81,81,161,1,onethree,,,,,,,,,,,,,,,,,,,,,,,,,,,,,,,,,,,,,,,,,,,,,,,,,,,,,,,,,,,,,,,,,,,,,,,,,,,,,,,,,,,,,,,,,,,,,,,,,,,,,,,,,,,,,,,,,,,,,,,,,,,,,,,,,,,,,,,,,,,,,,,,,,,,,,,,
,,,,,,615b38fbee37c31346d21b1c,62bbf953bb9736d56fd3e424,2022-06-29_09h08.01.218,Colour_Asymmetry_Pilot,2022.1.3,Win32,59.95203837,62bbe60bf3d75ef465d3e404,0,82,82,101,1,threefour,,,,,,,,,,,,,,,,,,,,,,,,,,,,,,,,,,,,,,,,,,,,,,,,,,,,,,,,,,,,,,,,,,,,,,,,,,,,,,,,,,,,,,,,,,,,,,,,,,,,,,,,,,,,,,,,,,,,,,,,,,,,,,,,,,,,,,,,,,,,,,,,,,,,,,,,
,,,,,,615b38fbee37c31346d21b1c,62bbf953bb9736d56fd3e424,2022-06-29_09h08.01.218,Colour_Asymmetry_Pilot,2022.1.3,Win32,59.95203837,62bbe60bf3d75ef465d3e404,0,83,83,160,1,onetwo,,,,,,,,,,,,,,,,,,,,,,,,,,,,,,,,,,,,,,,,,,,,,,,,,,,,,,,,,,,,,,,,,,,,,,,,,,,,,,,,,,,,,,,,,,,,,,,,,,,,,,,,,,,,,,,,,,,,,,,,,,,,,,,,,,,,,,,,,,,,,,,,,,,,,,,,
,,,,,,615b38fbee37c31346d21b1c,62bbf953bb9736d56fd3e424,2022-06-29_09h08.01.218,Colour_Asymmetry_Pilot,2022.1.3,Win32,59.95203837,62bbe60bf3d75ef465d3e404,0,84,84,96,1,onetwo,,,,,,,,,,,,,,,,,,,,,,,,,,,,,,,,,,,,,,,,,,,,,,,,,,,,,,,,,,,,,,,,,,,,,,,,,,,,,,,,,,,,,,,,,,,,,,,,,,,,,,,,,,,,,,,,,,,,,,,,,,,,,,,,,,,,,,,,,,,,,,,,,,,,,,,,
,,,,,,615b38fbee37c31346d21b1c,62bbf953bb9736d56fd3e424,2022-06-29_09h08.01.218,Colour_Asymmetry_Pilot,2022.1.3,Win32,59.95203837,62bbe60bf3d75ef465d3e404,0,85,85,91,1,twofour,,,,,,,,,,,,,,,,,,,,,,,,,,,,,,,,,,,,,,,,,,,,,,,,,,,,,,,,,,,,,,,,,,,,,,,,,,,,,,,,,,,,,,,,,,,,,,,,,,,,,,,,,,,,,,,,,,,,,,,,,,,,,,,,,,,,,,,,,,,,,,,,,,,,,,,,
,,,,,,615b38fbee37c31346d21b1c,62bbf953bb9736d56fd3e424,2022-06-29_09h08.01.218,Colour_Asymmetry_Pilot,2022.1.3,Win32,59.95203837,62bbe60bf3d75ef465d3e404,0,86,86,17,1,onethree,,,,,,,,,,,,,,,,,,,,,,,,,,,,,,,,,,,,,,,,,,,,,,,,,,,,,,,,,,,,,,,,,,,,,,,,,,,,,,,,,,,,,,,,,,,,,,,,,,,,,,,,,,,,,,,,,,,,,,,,,,,,,,,,,,,,,,,,,,,,,,,,,,,,,,,,
,,,,,,615b38fbee37c31346d21b1c,62bbf953bb9736d56fd3e424,2022-06-29_09h08.01.218,Colour_Asymmetry_Pilot,2022.1.3,Win32,59.95203837,62bbe60bf3d75ef465d3e404,0,87,87,57,1,onethree,,,,,,,,,,,,,,,,,,,,,,,,,,,,,,,,,,,,,,,,,,,,,,,,,,,,,,,,,,,,,,,,,,,,,,,,,,,,,,,,,,,,,,,,,,,,,,,,,,,,,,,,,,,,,,,,,,,,,,,,,,,,,,,,,,,,,,,,,,,,,,,,,,,,,,,,
,,,,,,615b38fbee37c31346d21b1c,62bbf953bb9736d56fd3e424,2022-06-29_09h08.01.218,Colour_Asymmetry_Pilot,2022.1.3,Win32,59.95203837,62bbe60bf3d75ef465d3e404,0,88,88,126,1,fourtwo,,,,,,,,,,,,,,,,,,,,,,,,,,,,,,,,,,,,,,,,,,,,,,,,,,,,,,,,,,,,,,,,,,,,,,,,,,,,,,,,,,,,,,,,,,,,,,,,,,,,,,,,,,,,,,,,,,,,,,,,,,,,,,,,,,,,,,,,,,,,,,,,,,,,,,,,
,,,,,,615b38fbee37c31346d21b1c,62bbf953bb9736d56fd3e424,2022-06-29_09h08.01.218,Colour_Asymmetry_Pilot,2022.1.3,Win32,59.95203837,62bbe60bf3d75ef465d3e404,0,89,89,47,1,fourthree,,,,,,,,,,,,,,,,,,,,,,,,,,,,,,,,,,,,,,,,,,,,,,,,,,,,,,,,,,,,,,,,,,,,,,,,,,,,,,,,,,,,,,,,,,,,,,,,,,,,,,,,,,,,,,,,,,,,,,,,,,,,,,,,,,,,,,,,,,,,,,,,,,,,,,,,
,,,,,,615b38fbee37c31346d21b1c,62bbf953bb9736d56fd3e424,2022-06-29_09h08.01.218,Colour_Asymmetry_Pilot,2022.1.3,Win32,59.95203837,62bbe60bf3d75ef465d3e404,0,90,90,155,1,twofour,,,,,,,,,,,,,,,,,,,,,,,,,,,,,,,,,,,,,,,,,,,,,,,,,,,,,,,,,,,,,,,,,,,,,,,,,,,,,,,,,,,,,,,,,,,,,,,,,,,,,,,,,,,,,,,,,,,,,,,,,,,,,,,,,,,,,,,,,,,,,,,,,,,,,,,,
,,,,,,615b38fbee37c31346d21b1c,62bbf953bb9736d56fd3e424,2022-06-29_09h08.01.218,Colour_Asymmetry_Pilot,2022.1.3,Win32,59.95203837,62bbe60bf3d75ef465d3e404,0,91,91,92,1,threeone,,,,,,,,,,,,,,,,,,,,,,,,,,,,,,,,,,,,,,,,,,,,,,,,,,,,,,,,,,,,,,,,,,,,,,,,,,,,,,,,,,,,,,,,,,,,,,,,,,,,,,,,,,,,,,,,,,,,,,,,,,,,,,,,,,,,,,,,,,,,,,,,,,,,,,,,
,,,,,,615b38fbee37c31346d21b1c,62bbf953bb9736d56fd3e424,2022-06-29_09h08.01.218,Colour_Asymmetry_Pilot,2022.1.3,Win32,59.95203837,62bbe60bf3d75ef465d3e404,0,92,92,13,1,threefour,,,,,,,,,,,,,,,,,,,,,,,,,,,,,,,,,,,,,,,,,,,,,,,,,,,,,,,,,,,,,,,,,,,,,,,,,,,,,,,,,,,,,,,,,,,,,,,,,,,,,,,,,,,,,,,,,,,,,,,,,,,,,,,,,,,,,,,,,,,,,,,,,,,,,,,,
,,,,,,615b38fbee37c31346d21b1c,62bbf953bb9736d56fd3e424,2022-06-29_09h08.01.218,Colour_Asymmetry_Pilot,2022.1.3,Win32,59.95203837,62bbe60bf3d75ef465d3e404,0,93,93,83,1,twofour,,,,,,,,,,,,,,,,,,,,,,,,,,,,,,,,,,,,,,,,,,,,,,,,,,,,,,,,,,,,,,,,,,,,,,,,,,,,,,,,,,,,,,,,,,,,,,,,,,,,,,,,,,,,,,,,,,,,,,,,,,,,,,,,,,,,,,,,,,,,,,,,,,,,,,,,
,,,,,,615b38fbee37c31346d21b1c,62bbf953bb9736d56fd3e424,2022-06-29_09h08.01.218,Colour_Asymmetry_Pilot,2022.1.3,Win32,59.95203837,62bbe60bf3d75ef465d3e404,0,94,94,139,1,twofour,,,,,,,,,,,,,,,,,,,,,,,,,,,,,,,,,,,,,,,,,,,,,,,,,,,,,,,,,,,,,,,,,,,,,,,,,,,,,,,,,,,,,,,,,,,,,,,,,,,,,,,,,,,,,,,,,,,,,,,,,,,,,,,,,,,,,,,,,,,,,,,,,,,,,,,,
,,,,,,615b38fbee37c31346d21b1c,62bbf953bb9736d56fd3e424,2022-06-29_09h08.01.218,Colour_Asymmetry_Pilot,2022.1.3,Win32,59.95203837,62bbe60bf3d75ef465d3e404,0,95,95,58,1,twoone,,,,,,,,,,,,,,,,,,,,,,,,,,,,,,,,,,,,,,,,,,,,,,,,,,,,,,,,,,,,,,,,,,,,,,,,,,,,,,,,,,,,,,,,,,,,,,,,,,,,,,,,,,,,,,,,,,,,,,,,,,,,,,,,,,,,,,,,,,,,,,,,,,,,,,,,
,,,,,,615b38fbee37c31346d21b1c,62bbf953bb9736d56fd3e424,2022-06-29_09h08.01.218,Colour_Asymmetry_Pilot,2022.1.3,Win32,59.95203837,62bbe60bf3d75ef465d3e404,0,96,96,134,1,fourtwo,,,,,,,,,,,,,,,,,,,,,,,,,,,,,,,,,,,,,,,,,,,,,,,,,,,,,,,,,,,,,,,,,,,,,,,,,,,,,,,,,,,,,,,,,,,,,,,,,,,,,,,,,,,,,,,,,,,,,,,,,,,,,,,,,,,,,,,,,,,,,,,,,,,,,,,,
,,,,,,615b38fbee37c31346d21b1c,62bbf953bb9736d56fd3e424,2022-06-29_09h08.01.218,Colour_Asymmetry_Pilot,2022.1.3,Win32,59.95203837,62bbe60bf3d75ef465d3e404,0,97,97,140,1,threeone,,,,,,,,,,,,,,,,,,,,,,,,,,,,,,,,,,,,,,,,,,,,,,,,,,,,,,,,,,,,,,,,,,,,,,,,,,,,,,,,,,,,,,,,,,,,,,,,,,,,,,,,,,,,,,,,,,,,,,,,,,,,,,,,,,,,,,,,,,,,,,,,,,,,,,,,
,,,,,,615b38fbee37c31346d21b1c,62bbf953bb9736d56fd3e424,2022-06-29_09h08.01.218,Colour_Asymmetry_Pilot,2022.1.3,Win32,59.95203837,62bbe60bf3d75ef465d3e404,0,98,98,2,1,twoone,,,,,,,,,,,,,,,,,,,,,,,,,,,,,,,,,,,,,,,,,,,,,,,,,,,,,,,,,,,,,,,,,,,,,,,,,,,,,,,,,,,,,,,,,,,,,,,,,,,,,,,,,,,,,,,,,,,,,,,,,,,,,,,,,,,,,,,,,,,,,,,,,,,,,,,,
,,,,,,615b38fbee37c31346d21b1c,62bbf953bb9736d56fd3e424,2022-06-29_09h08.01.218,Colour_Asymmetry_Pilot,2022.1.3,Win32,59.95203837,62bbe60bf3d75ef465d3e404,0,99,99,46,1,fourtwo,,,,,,,,,,,,,,,,,,,,,,,,,,,,,,,,,,,,,,,,,,,,,,,,,,,,,,,,,,,,,,,,,,,,,,,,,,,,,,,,,,,,,,,,,,,,,,,,,,,,,,,,,,,,,,,,,,,,,,,,,,,,,,,,,,,,,,,,,,,,,,,,,,,,,,,,
,,,,,,615b38fbee37c31346d21b1c,62bbf953bb9736d56fd3e424,2022-06-29_09h08.01.218,Colour_Asymmetry_Pilot,2022.1.3,Win32,59.95203837,62bbe60bf3d75ef465d3e404,0,100,100,11,1,twofour,,,,,,,,,,,,,,,,,,,,,,,,,,,,,,,,,,,,,,,,,,,,,,,,,,,,,,,,,,,,,,,,,,,,,,,,,,,,,,,,,,,,,,,,,,,,,,,,,,,,,,,,,,,,,,,,,,,,,,,,,,,,,,,,,,,,,,,,,,,,,,,,,,,,,,,,
,,,,,,615b38fbee37c31346d21b1c,62bbf953bb9736d56fd3e424,2022-06-29_09h08.01.218,Colour_Asymmetry_Pilot,2022.1.3,Win32,59.95203837,62bbe60bf3d75ef465d3e404,0,101,101,22,1,fourtwo,,,,,,,,,,,,,,,,,,,,,,,,,,,,,,,,,,,,,,,,,,,,,,,,,,,,,,,,,,,,,,,,,,,,,,,,,,,,,,,,,,,,,,,,,,,,,,,,,,,,,,,,,,,,,,,,,,,,,,,,,,,,,,,,,,,,,,,,,,,,,,,,,,,,,,,,
,,,,,,615b38fbee37c31346d21b1c,62bbf953bb9736d56fd3e424,2022-06-29_09h08.01.218,Colour_Asymmetry_Pilot,2022.1.3,Win32,59.95203837,62bbe60bf3d75ef465d3e404,0,102,102,130,1,twoone,,,,,,,,,,,,,,,,,,,,,,,,,,,,,,,,,,,,,,,,,,,,,,,,,,,,,,,,,,,,,,,,,,,,,,,,,,,,,,,,,,,,,,,,,,,,,,,,,,,,,,,,,,,,,,,,,,,,,,,,,,,,,,,,,,,,,,,,,,,,,,,,,,,,,,,,
,,,,,,615b38fbee37c31346d21b1c,62bbf953bb9736d56fd3e424,2022-06-29_09h08.01.218,Colour_Asymmetry_Pilot,2022.1.3,Win32,59.95203837,62bbe60bf3d75ef465d3e404,0,103,103,90,1,twoone,,,,,,,,,,,,,,,,,,,,,,,,,,,,,,,,,,,,,,,,,,,,,,,,,,,,,,,,,,,,,,,,,,,,,,,,,,,,,,,,,,,,,,,,,,,,,,,,,,,,,,,,,,,,,,,,,,,,,,,,,,,,,,,,,,,,,,,,,,,,,,,,,,,,,,,,
,,,,,,615b38fbee37c31346d21b1c,62bbf953bb9736d56fd3e424,2022-06-29_09h08.01.218,Colour_Asymmetry_Pilot,2022.1.3,Win32,59.95203837,62bbe60bf3d75ef465d3e404,0,104,104,89,1,onethree,,,,,,,,,,,,,,,,,,,,,,,,,,,,,,,,,,,,,,,,,,,,,,,,,,,,,,,,,,,,,,,,,,,,,,,,,,,,,,,,,,,,,,,,,,,,,,,,,,,,,,,,,,,,,,,,,,,,,,,,,,,,,,,,,,,,,,,,,,,,,,,,,,,,,,,,
,,,,,,615b38fbee37c31346d21b1c,62bbf953bb9736d56fd3e424,2022-06-29_09h08.01.218,Colour_Asymmetry_Pilot,2022.1.3,Win32,59.95203837,62bbe60bf3d75ef465d3e404,0,105,105,105,1,onethree,,,,,,,,,,,,,,,,,,,,,,,,,,,,,,,,,,,,,,,,,,,,,,,,,,,,,,,,,,,,,,,,,,,,,,,,,,,,,,,,,,,,,,,,,,,,,,,,,,,,,,,,,,,,,,,,,,,,,,,,,,,,,,,,,,,,,,,,,,,,,,,,,,,,,,,,
,,,,,,615b38fbee37c31346d21b1c,62bbf953bb9736d56fd3e424,2022-06-29_09h08.01.218,Colour_Asymmetry_Pilot,2022.1.3,Win32,59.95203837,62bbe60bf3d75ef465d3e404,0,106,106,102,1,fourtwo,,,,,,,,,,,,,,,,,,,,,,,,,,,,,,,,,,,,,,,,,,,,,,,,,,,,,,,,,,,,,,,,,,,,,,,,,,,,,,,,,,,,,,,,,,,,,,,,,,,,,,,,,,,,,,,,,,,,,,,,,,,,,,,,,,,,,,,,,,,,,,,,,,,,,,,,
,,,,,,615b38fbee37c31346d21b1c,62bbf953bb9736d56fd3e424,2022-06-29_09h08.01.218,Colour_Asymmetry_Pilot,2022.1.3,Win32,59.95203837,62bbe60bf3d75ef465d3e404,0,107,107,77,1,threefour,,,,,,,,,,,,,,,,,,,,,,,,,,,,,,,,,,,,,,,,,,,,,,,,,,,,,,,,,,,,,,,,,,,,,,,,,,,,,,,,,,,,,,,,,,,,,,,,,,,,,,,,,,,,,,,,,,,,,,,,,,,,,,,,,,,,,,,,,,,,,,,,,,,,,,,,
,,,,,,615b38fbee37c31346d21b1c,62bbf953bb9736d56fd3e424,2022-06-29_09h08.01.218,Colour_Asymmetry_Pilot,2022.1.3,Win32,59.95203837,62bbe60bf3d75ef465d3e404,0,108,108,71,1,fourthree,,,,,,,,,,,,,,,,,,,,,,,,,,,,,,,,,,,,,,,,,,,,,,,,,,,,,,,,,,,,,,,,,,,,,,,,,,,,,,,,,,,,,,,,,,,,,,,,,,,,,,,,,,,,,,,,,,,,,,,,,,,,,,,,,,,,,,,,,,,,,,,,,,,,,,,,
,,,,,,615b38fbee37c31346d21b1c,62bbf953bb9736d56fd3e424,2022-06-29_09h08.01.218,Colour_Asymmetry_Pilot,2022.1.3,Win32,59.95203837,62bbe60bf3d75ef465d3e404,0,109,109,119,1,fourthree,,,,,,,,,,,,,,,,,,,,,,,,,,,,,,,,,,,,,,,,,,,,,,,,,,,,,,,,,,,,,,,,,,,,,,,,,,,,,,,,,,,,,,,,,,,,,,,,,,,,,,,,,,,,,,,,,,,,,,,,,,,,,,,,,,,,,,,,,,,,,,,,,,,,,,,,
,,,,,,615b38fbee37c31346d21b1c,62bbf953bb9736d56fd3e424,2022-06-29_09h08.01.218,Colour_Asymmetry_Pilot,2022.1.3,Win32,59.95203837,62bbe60bf3d75ef465d3e404,0,110,110,29,1,threefour,,,,,,,,,,,,,,,,,,,,,,,,,,,,,,,,,,,,,,,,,,,,,,,,,,,,,,,,,,,,,,,,,,,,,,,,,,,,,,,,,,,,,,,,,,,,,,,,,,,,,,,,,,,,,,,,,,,,,,,,,,,,,,,,,,,,,,,,,,,,,,,,,,,,,,,,
,,,,,,615b38fbee37c31346d21b1c,62bbf953bb9736d56fd3e424,2022-06-29_09h08.01.218,Colour_Asymmetry_Pilot,2022.1.3,Win32,59.95203837,62bbe60bf3d75ef465d3e404,0,111,111,52,1,threeone,,,,,,,,,,,,,,,,,,,,,,,,,,,,,,,,,,,,,,,,,,,,,,,,,,,,,,,,,,,,,,,,,,,,,,,,,,,,,,,,,,,,,,,,,,,,,,,,,,,,,,,,,,,,,,,,,,,,,,,,,,,,,,,,,,,,,,,,,,,,,,,,,,,,,,,,
,,,,,,615b38fbee37c31346d21b1c,62bbf953bb9736d56fd3e424,2022-06-29_09h08.01.218,Colour_Asymmetry_Pilot,2022.1.3,Win32,59.95203837,62bbe60bf3d75ef465d3e404,0,112,112,65,1,onethree,,,,,,,,,,,,,,,,,,,,,,,,,,,,,,,,,,,,,,,,,,,,,,,,,,,,,,,,,,,,,,,,,,,,,,,,,,,,,,,,,,,,,,,,,,,,,,,,,,,,,,,,,,,,,,,,,,,,,,,,,,,,,,,,,,,,,,,,,,,,,,,,,,,,,,,,
,,,,,,615b38fbee37c31346d21b1c,62bbf953bb9736d56fd3e424,2022-06-29_09h08.01.218,Colour_Asymmetry_Pilot,2022.1.3,Win32,59.95203837,62bbe60bf3d75ef465d3e404,0,113,113,120,1,onetwo,,,,,,,,,,,,,,,,,,,,,,,,,,,,,,,,,,,,,,,,,,,,,,,,,,,,,,,,,,,,,,,,,,,,,,,,,,,,,,,,,,,,,,,,,,,,,,,,,,,,,,,,,,,,,,,,,,,,,,,,,,,,,,,,,,,,,,,,,,,,,,,,,,,,,,,,
,,,,,,615b38fbee37c31346d21b1c,62bbf953bb9736d56fd3e424,2022-06-29_09h08.01.218,Colour_Asymmetry_Pilot,2022.1.3,Win32,59.95203837,62bbe60bf3d75ef465d3e404,0,114,114,27,1,twofour,,,,,,,,,,,,,,,,,,,,,,,,,,,,,,,,,,,,,,,,,,,,,,,,,,,,,,,,,,,,,,,,,,,,,,,,,,,,,,,,,,,,,,,,,,,,,,,,,,,,,,,,,,,,,,,,,,,,,,,,,,,,,,,,,,,,,,,,,,,,,,,,,,,,,,,,
,,,,,,615b38fbee37c31346d21b1c,62bbf953bb9736d56fd3e424,2022-06-29_09h08.01.218,Colour_Asymmetry_Pilot,2022.1.3,Win32,59.95203837,62bbe60bf3d75ef465d3e404,0,115,115,121,1,onethree,,,,,,,,,,,,,,,,,,,,,,,,,,,,,,,,,,,,,,,,,,,,,,,,,,,,,,,,,,,,,,,,,,,,,,,,,,,,,,,,,,,,,,,,,,,,,,,,,,,,,,,,,,,,,,,,,,,,,,,,,,,,,,,,,,,,,,,,,,,,,,,,,,,,,,,,
,,,,,,615b38fbee37c31346d21b1c,62bbf953bb9736d56fd3e424,2022-06-29_09h08.01.218,Colour_Asymmetry_Pilot,2022.1.3,Win32,59.95203837,62bbe60bf3d75ef465d3e404,0,116,116,38,1,fourtwo,,,,,,,,,,,,,,,,,,,,,,,,,,,,,,,,,,,,,,,,,,,,,,,,,,,,,,,,,,,,,,,,,,,,,,,,,,,,,,,,,,,,,,,,,,,,,,,,,,,,,,,,,,,,,,,,,,,,,,,,,,,,,,,,,,,,,,,,,,,,,,,,,,,,,,,,
,,,,,,615b38fbee37c31346d21b1c,62bbf953bb9736d56fd3e424,2022-06-29_09h08.01.218,Colour_Asymmetry_Pilot,2022.1.3,Win32,59.95203837,62bbe60bf3d75ef465d3e404,0,117,117,35,1,twofour,,,,,,,,,,,,,,,,,,,,,,,,,,,,,,,,,,,,,,,,,,,,,,,,,,,,,,,,,,,,,,,,,,,,,,,,,,,,,,,,,,,,,,,,,,,,,,,,,,,,,,,,,,,,,,,,,,,,,,,,,,,,,,,,,,,,,,,,,,,,,,,,,,,,,,,,
,,,,,,615b38fbee37c31346d21b1c,62bbf953bb9736d56fd3e424,2022-06-29_09h08.01.218,Colour_Asymmetry_Pilot,2022.1.3,Win32,59.95203837,62bbe60bf3d75ef465d3e404,0,118,118,103,1,fourthree,,,,,,,,,,,,,,,,,,,,,,,,,,,,,,,,,,,,,,,,,,,,,,,,,,,,,,,,,,,,,,,,,,,,,,,,,,,,,,,,,,,,,,,,,,,,,,,,,,,,,,,,,,,,,,,,,,,,,,,,,,,,,,,,,,,,,,,,,,,,,,,,,,,,,,,,
,,,,,,615b38fbee37c31346d21b1c,62bbf953bb9736d56fd3e424,2022-06-29_09h08.01.218,Colour_Asymmetry_Pilot,2022.1.3,Win32,59.95203837,62bbe60bf3d75ef465d3e404,0,119,119,93,1,threefour,,,,,,,,,,,,,,,,,,,,,,,,,,,,,,,,,,,,,,,,,,,,,,,,,,,,,,,,,,,,,,,,,,,,,,,,,,,,,,,,,,,,,,,,,,,,,,,,,,,,,,,,,,,,,,,,,,,,,,,,,,,,,,,,,,,,,,,,,,,,,,,,,,,,,,,,
,,,,,,615b38fbee37c31346d21b1c,62bbf953bb9736d56fd3e424,2022-06-29_09h08.01.218,Colour_Asymmetry_Pilot,2022.1.3,Win32,59.95203837,62bbe60bf3d75ef465d3e404,0,120,120,157,1,threefour,,,,,,,,,,,,,,,,,,,,,,,,,,,,,,,,,,,,,,,,,,,,,,,,,,,,,,,,,,,,,,,,,,,,,,,,,,,,,,,,,,,,,,,,,,,,,,,,,,,,,,,,,,,,,,,,,,,,,,,,,,,,,,,,,,,,,,,,,,,,,,,,,,,,,,,,
,,,,,,615b38fbee37c31346d21b1c,62bbf953bb9736d56fd3e424,2022-06-29_09h08.01.218,Colour_Asymmetry_Pilot,2022.1.3,Win32,59.95203837,62bbe60bf3d75ef465d3e404,0,121,121,128,1,onetwo,,,,,,,,,,,,,,,,,,,,,,,,,,,,,,,,,,,,,,,,,,,,,,,,,,,,,,,,,,,,,,,,,,,,,,,,,,,,,,,,,,,,,,,,,,,,,,,,,,,,,,,,,,,,,,,,,,,,,,,,,,,,,,,,,,,,,,,,,,,,,,,,,,,,,,,,
,,,,,,615b38fbee37c31346d21b1c,62bbf953bb9736d56fd3e424,2022-06-29_09h08.01.218,Colour_Asymmetry_Pilot,2022.1.3,Win32,59.95203837,62bbe60bf3d75ef465d3e404,0,122,122,147,1,twofour,,,,,,,,,,,,,,,,,,,,,,,,,,,,,,,,,,,,,,,,,,,,,,,,,,,,,,,,,,,,,,,,,,,,,,,,,,,,,,,,,,,,,,,,,,,,,,,,,,,,,,,,,,,,,,,,,,,,,,,,,,,,,,,,,,,,,,,,,,,,,,,,,,,,,,,,
,,,,,,615b38fbee37c31346d21b1c,62bbf953bb9736d56fd3e424,2022-06-29_09h08.01.218,Colour_Asymmetry_Pilot,2022.1.3,Win32,59.95203837,62bbe60bf3d75ef465d3e404,0,123,123,61,1,threefour,,,,,,,,,,,,,,,,,,,,,,,,,,,,,,,,,,,,,,,,,,,,,,,,,,,,,,,,,,,,,,,,,,,,,,,,,,,,,,,,,,,,,,,,,,,,,,,,,,,,,,,,,,,,,,,,,,,,,,,,,,,,,,,,,,,,,,,,,,,,,,,,,,,,,,,,
,,,,,,615b38fbee37c31346d21b1c,62bbf953bb9736d56fd3e424,2022-06-29_09h08.01.218,Colour_Asymmetry_Pilot,2022.1.3,Win32,59.95203837,62bbe60bf3d75ef465d3e404,0,124,124,123,1,twofour,,,,,,,,,,,,,,,,,,,,,,,,,,,,,,,,,,,,,,,,,,,,,,,,,,,,,,,,,,,,,,,,,,,,,,,,,,,,,,,,,,,,,,,,,,,,,,,,,,,,,,,,,,,,,,,,,,,,,,,,,,,,,,,,,,,,,,,,,,,,,,,,,,,,,,,,
,,,,,,615b38fbee37c31346d21b1c,62bbf953bb9736d56fd3e424,2022-06-29_09h08.01.218,Colour_Asymmetry_Pilot,2022.1.3,Win32,59.95203837,62bbe60bf3d75ef465d3e404,0,125,125,104,1,onetwo,,,,,,,,,,,,,,,,,,,,,,,,,,,,,,,,,,,,,,,,,,,,,,,,,,,,,,,,,,,,,,,,,,,,,,,,,,,,,,,,,,,,,,,,,,,,,,,,,,,,,,,,,,,,,,,,,,,,,,,,,,,,,,,,,,,,,,,,,,,,,,,,,,,,,,,,
,,,,,,615b38fbee37c31346d21b1c,62bbf953bb9736d56fd3e424,2022-06-29_09h08.01.218,Colour_Asymmetry_Pilot,2022.1.3,Win32,59.95203837,62bbe60bf3d75ef465d3e404,0,126,126,32,1,onetwo,,,,,,,,,,,,,,,,,,,,,,,,,,,,,,,,,,,,,,,,,,,,,,,,,,,,,,,,,,,,,,,,,,,,,,,,,,,,,,,,,,,,,,,,,,,,,,,,,,,,,,,,,,,,,,,,,,,,,,,,,,,,,,,,,,,,,,,,,,,,,,,,,,,,,,,,
,,,,,,615b38fbee37c31346d21b1c,62bbf953bb9736d56fd3e424,2022-06-29_09h08.01.218,Colour_Asymmetry_Pilot,2022.1.3,Win32,59.95203837,62bbe60bf3d75ef465d3e404,0,127,127,44,1,threeone,,,,,,,,,,,,,,,,,,,,,,,,,,,,,,,,,,,,,,,,,,,,,,,,,,,,,,,,,,,,,,,,,,,,,,,,,,,,,,,,,,,,,,,,,,,,,,,,,,,,,,,,,,,,,,,,,,,,,,,,,,,,,,,,,,,,,,,,,,,,,,,,,,,,,,,,
,,,,,,615b38fbee37c31346d21b1c,62bbf953bb9736d56fd3e424,2022-06-29_09h08.01.218,Colour_Asymmetry_Pilot,2022.1.3,Win32,59.95203837,62bbe60bf3d75ef465d3e404,0,128,128,110,1,fourtwo,,,,,,,,,,,,,,,,,,,,,,,,,,,,,,,,,,,,,,,,,,,,,,,,,,,,,,,,,,,,,,,,,,,,,,,,,,,,,,,,,,,,,,,,,,,,,,,,,,,,,,,,,,,,,,,,,,,,,,,,,,,,,,,,,,,,,,,,,,,,,,,,,,,,,,,,
,,,,,,615b38fbee37c31346d21b1c,62bbf953bb9736d56fd3e424,2022-06-29_09h08.01.218,Colour_Asymmetry_Pilot,2022.1.3,Win32,59.95203837,62bbe60bf3d75ef465d3e404,0,129,129,115,1,twofour,,,,,,,,,,,,,,,,,,,,,,,,,,,,,,,,,,,,,,,,,,,,,,,,,,,,,,,,,,,,,,,,,,,,,,,,,,,,,,,,,,,,,,,,,,,,,,,,,,,,,,,,,,,,,,,,,,,,,,,,,,,,,,,,,,,,,,,,,,,,,,,,,,,,,,,,
,,,,,,615b38fbee37c31346d21b1c,62bbf953bb9736d56fd3e424,2022-06-29_09h08.01.218,Colour_Asymmetry_Pilot,2022.1.3,Win32,59.95203837,62bbe60bf3d75ef465d3e404,0,130,130,37,1,threefour,,,,,,,,,,,,,,,,,,,,,,,,,,,,,,,,,,,,,,,,,,,,,,,,,,,,,,,,,,,,,,,,,,,,,,,,,,,,,,,,,,,,,,,,,,,,,,,,,,,,,,,,,,,,,,,,,,,,,,,,,,,,,,,,,,,,,,,,,,,,,,,,,,,,,,,,
,,,,,,615b38fbee37c31346d21b1c,62bbf953bb9736d56fd3e424,2022-06-29_09h08.01.218,Colour_Asymmetry_Pilot,2022.1.3,Win32,59.95203837,62bbe60bf3d75ef465d3e404,0,131,131,156,1,threeone,,,,,,,,,,,,,,,,,,,,,,,,,,,,,,,,,,,,,,,,,,,,,,,,,,,,,,,,,,,,,,,,,,,,,,,,,,,,,,,,,,,,,,,,,,,,,,,,,,,,,,,,,,,,,,,,,,,,,,,,,,,,,,,,,,,,,,,,,,,,,,,,,,,,,,,,
,,,,,,615b38fbee37c31346d21b1c,62bbf953bb9736d56fd3e424,2022-06-29_09h08.01.218,Colour_Asymmetry_Pilot,2022.1.3,Win32,59.95203837,62bbe60bf3d75ef465d3e404,0,132,132,136,1,onetwo,,,,,,,,,,,,,,,,,,,,,,,,,,,,,,,,,,,,,,,,,,,,,,,,,,,,,,,,,,,,,,,,,,,,,,,,,,,,,,,,,,,,,,,,,,,,,,,,,,,,,,,,,,,,,,,,,,,,,,,,,,,,,,,,,,,,,,,,,,,,,,,,,,,,,,,,
,,,,,,615b38fbee37c31346d21b1c,62bbf953bb9736d56fd3e424,2022-06-29_09h08.01.218,Colour_Asymmetry_Pilot,2022.1.3,Win32,59.95203837,62bbe60bf3d75ef465d3e404,0,133,133,109,1,threefour,,,,,,,,,,,,,,,,,,,,,,,,,,,,,,,,,,,,,,,,,,,,,,,,,,,,,,,,,,,,,,,,,,,,,,,,,,,,,,,,,,,,,,,,,,,,,,,,,,,,,,,,,,,,,,,,,,,,,,,,,,,,,,,,,,,,,,,,,,,,,,,,,,,,,,,,
,,,,,,615b38fbee37c31346d21b1c,62bbf953bb9736d56fd3e424,2022-06-29_09h08.01.218,Colour_Asymmetry_Pilot,2022.1.3,Win32,59.95203837,62bbe60bf3d75ef465d3e404,0,134,134,24,1,onetwo,,,,,,,,,,,,,,,,,,,,,,,,,,,,,,,,,,,,,,,,,,,,,,,,,,,,,,,,,,,,,,,,,,,,,,,,,,,,,,,,,,,,,,,,,,,,,,,,,,,,,,,,,,,,,,,,,,,,,,,,,,,,,,,,,,,,,,,,,,,,,,,,,,,,,,,,
,,,,,,615b38fbee37c31346d21b1c,62bbf953bb9736d56fd3e424,2022-06-29_09h08.01.218,Colour_Asymmetry_Pilot,2022.1.3,Win32,59.95203837,62bbe60bf3d75ef465d3e404,0,135,135,51,1,twofour,,,,,,,,,,,,,,,,,,,,,,,,,,,,,,,,,,,,,,,,,,,,,,,,,,,,,,,,,,,,,,,,,,,,,,,,,,,,,,,,,,,,,,,,,,,,,,,,,,,,,,,,,,,,,,,,,,,,,,,,,,,,,,,,,,,,,,,,,,,,,,,,,,,,,,,,
,,,,,,615b38fbee37c31346d21b1c,62bbf953bb9736d56fd3e424,2022-06-29_09h08.01.218,Colour_Asymmetry_Pilot,2022.1.3,Win32,59.95203837,62bbe60bf3d75ef465d3e404,0,136,136,107,1,twofour,,,,,,,,,,,,,,,,,,,,,,,,,,,,,,,,,,,,,,,,,,,,,,,,,,,,,,,,,,,,,,,,,,,,,,,,,,,,,,,,,,,,,,,,,,,,,,,,,,,,,,,,,,,,,,,,,,,,,,,,,,,,,,,,,,,,,,,,,,,,,,,,,,,,,,,,
,,,,,,615b38fbee37c31346d21b1c,62bbf953bb9736d56fd3e424,2022-06-29_09h08.01.218,Colour_Asymmetry_Pilot,2022.1.3,Win32,59.95203837,62bbe60bf3d75ef465d3e404,0,137,137,72,1,onetwo,,,,,,,,,,,,,,,,,,,,,,,,,,,,,,,,,,,,,,,,,,,,,,,,,,,,,,,,,,,,,,,,,,,,,,,,,,,,,,,,,,,,,,,,,,,,,,,,,,,,,,,,,,,,,,,,,,,,,,,,,,,,,,,,,,,,,,,,,,,,,,,,,,,,,,,,
,,,,,,615b38fbee37c31346d21b1c,62bbf953bb9736d56fd3e424,2022-06-29_09h08.01.218,Colour_Asymmetry_Pilot,2022.1.3,Win32,59.95203837,62bbe60bf3d75ef465d3e404,0,138,138,146,1,twoone,,,,,,,,,,,,,,,,,,,,,,,,,,,,,,,,,,,,,,,,,,,,,,,,,,,,,,,,,,,,,,,,,,,,,,,,,,,,,,,,,,,,,,,,,,,,,,,,,,,,,,,,,,,,,,,,,,,,,,,,,,,,,,,,,,,,,,,,,,,,,,,,,,,,,,,,
,,,,,,615b38fbee37c31346d21b1c,62bbf953bb9736d56fd3e424,2022-06-29_09h08.01.218,Colour_Asymmetry_Pilot,2022.1.3,Win32,59.95203837,62bbe60bf3d75ef465d3e404,0,139,139,85,1,threefour,,,,,,,,,,,,,,,,,,,,,,,,,,,,,,,,,,,,,,,,,,,,,,,,,,,,,,,,,,,,,,,,,,,,,,,,,,,,,,,,,,,,,,,,,,,,,,,,,,,,,,,,,,,,,,,,,,,,,,,,,,,,,,,,,,,,,,,,,,,,,,,,,,,,,,,,
,,,,,,615b38fbee37c31346d21b1c,62bbf953bb9736d56fd3e424,2022-06-29_09h08.01.218,Colour_Asymmetry_Pilot,2022.1.3,Win32,59.95203837,62bbe60bf3d75ef465d3e404,0,140,140,31,1,fourthree,,,,,,,,,,,,,,,,,,,,,,,,,,,,,,,,,,,,,,,,,,,,,,,,,,,,,,,,,,,,,,,,,,,,,,,,,,,,,,,,,,,,,,,,,,,,,,,,,,,,,,,,,,,,,,,,,,,,,,,,,,,,,,,,,,,,,,,,,,,,,,,,,,,,,,,,
,,,,,,615b38fbee37c31346d21b1c,62bbf953bb9736d56fd3e424,2022-06-29_09h08.01.218,Colour_Asymmetry_Pilot,2022.1.3,Win32,59.95203837,62bbe60bf3d75ef465d3e404,0,141,141,74,1,twoone,,,,,,,,,,,,,,,,,,,,,,,,,,,,,,,,,,,,,,,,,,,,,,,,,,,,,,,,,,,,,,,,,,,,,,,,,,,,,,,,,,,,,,,,,,,,,,,,,,,,,,,,,,,,,,,,,,,,,,,,,,,,,,,,,,,,,,,,,,,,,,,,,,,,,,,,
,,,,,,615b38fbee37c31346d21b1c,62bbf953bb9736d56fd3e424,2022-06-29_09h08.01.218,Colour_Asymmetry_Pilot,2022.1.3,Win32,59.95203837,62bbe60bf3d75ef465d3e404,0,142,142,82,1,twoone,,,,,,,,,,,,,,,,,,,,,,,,,,,,,,,,,,,,,,,,,,,,,,,,,,,,,,,,,,,,,,,,,,,,,,,,,,,,,,,,,,,,,,,,,,,,,,,,,,,,,,,,,,,,,,,,,,,,,,,,,,,,,,,,,,,,,,,,,,,,,,,,,,,,,,,,
,,,,,,615b38fbee37c31346d21b1c,62bbf953bb9736d56fd3e424,2022-06-29_09h08.01.218,Colour_Asymmetry_Pilot,2022.1.3,Win32,59.95203837,62bbe60bf3d75ef465d3e404,0,143,143,49,1,onethree,,,,,,,,,,,,,,,,,,,,,,,,,,,,,,,,,,,,,,,,,,,,,,,,,,,,,,,,,,,,,,,,,,,,,,,,,,,,,,,,,,,,,,,,,,,,,,,,,,,,,,,,,,,,,,,,,,,,,,,,,,,,,,,,,,,,,,,,,,,,,,,,,,,,,,,,
,,,,,,615b38fbee37c31346d21b1c,62bbf953bb9736d56fd3e424,2022-06-29_09h08.01.218,Colour_Asymmetry_Pilot,2022.1.3,Win32,59.95203837,62bbe60bf3d75ef465d3e404,0,144,144,150,1,fourtwo,,,,,,,,,,,,,,,,,,,,,,,,,,,,,,,,,,,,,,,,,,,,,,,,,,,,,,,,,,,,,,,,,,,,,,,,,,,,,,,,,,,,,,,,,,,,,,,,,,,,,,,,,,,,,,,,,,,,,,,,,,,,,,,,,,,,,,,,,,,,,,,,,,,,,,,,
,,,,,,615b38fbee37c31346d21b1c,62bbf953bb9736d56fd3e424,2022-06-29_09h08.01.218,Colour_Asymmetry_Pilot,2022.1.3,Win32,59.95203837,62bbe60bf3d75ef465d3e404,0,145,145,8,1,onetwo,,,,,,,,,,,,,,,,,,,,,,,,,,,,,,,,,,,,,,,,,,,,,,,,,,,,,,,,,,,,,,,,,,,,,,,,,,,,,,,,,,,,,,,,,,,,,,,,,,,,,,,,,,,,,,,,,,,,,,,,,,,,,,,,,,,,,,,,,,,,,,,,,,,,,,,,
,,,,,,615b38fbee37c31346d21b1c,62bbf953bb9736d56fd3e424,2022-06-29_09h08.01.218,Colour_Asymmetry_Pilot,2022.1.3,Win32,59.95203837,62bbe60bf3d75ef465d3e404,0,146,146,53,1,threefour,,,,,,,,,,,,,,,,,,,,,,,,,,,,,,,,,,,,,,,,,,,,,,,,,,,,,,,,,,,,,,,,,,,,,,,,,,,,,,,,,,,,,,,,,,,,,,,,,,,,,,,,,,,,,,,,,,,,,,,,,,,,,,,,,,,,,,,,,,,,,,,,,,,,,,,,
,,,,,,615b38fbee37c31346d21b1c,62bbf953bb9736d56fd3e424,2022-06-29_09h08.01.218,Colour_Asymmetry_Pilot,2022.1.3,Win32,59.95203837,62bbe60bf3d75ef465d3e404,0,147,147,108,1,threeone,,,,,,,,,,,,,,,,,,,,,,,,,,,,,,,,,,,,,,,,,,,,,,,,,,,,,,,,,,,,,,,,,,,,,,,,,,,,,,,,,,,,,,,,,,,,,,,,,,,,,,,,,,,,,,,,,,,,,,,,,,,,,,,,,,,,,,,,,,,,,,,,,,,,,,,,
,,,,,,615b38fbee37c31346d21b1c,62bbf953bb9736d56fd3e424,2022-06-29_09h08.01.218,Colour_Asymmetry_Pilot,2022.1.3,Win32,59.95203837,62bbe60bf3d75ef465d3e404,0,148,148,75,1,twofour,,,,,,,,,,,,,,,,,,,,,,,,,,,,,,,,,,,,,,,,,,,,,,,,,,,,,,,,,,,,,,,,,,,,,,,,,,,,,,,,,,,,,,,,,,,,,,,,,,,,,,,,,,,,,,,,,,,,,,,,,,,,,,,,,,,,,,,,,,,,,,,,,,,,,,,,
,,,,,,615b38fbee37c31346d21b1c,62bbf953bb9736d56fd3e424,2022-06-29_09h08.01.218,Colour_Asymmetry_Pilot,2022.1.3,Win32,59.95203837,62bbe60bf3d75ef465d3e404,0,149,149,99,1,twofour,,,,,,,,,,,,,,,,,,,,,,,,,,,,,,,,,,,,,,,,,,,,,,,,,,,,,,,,,,,,,,,,,,,,,,,,,,,,,,,,,,,,,,,,,,,,,,,,,,,,,,,,,,,,,,,,,,,,,,,,,,,,,,,,,,,,,,,,,,,,,,,,,,,,,,,,
,,,,,,615b38fbee37c31346d21b1c,62bbf953bb9736d56fd3e424,2022-06-29_09h08.01.218,Colour_Asymmetry_Pilot,2022.1.3,Win32,59.95203837,62bbe60bf3d75ef465d3e404,0,150,150,153,1,onethree,,,,,,,,,,,,,,,,,,,,,,,,,,,,,,,,,,,,,,,,,,,,,,,,,,,,,,,,,,,,,,,,,,,,,,,,,,,,,,,,,,,,,,,,,,,,,,,,,,,,,,,,,,,,,,,,,,,,,,,,,,,,,,,,,,,,,,,,,,,,,,,,,,,,,,,,
,,,,,,615b38fbee37c31346d21b1c,62bbf953bb9736d56fd3e424,2022-06-29_09h08.01.218,Colour_Asymmetry_Pilot,2022.1.3,Win32,59.95203837,62bbe60bf3d75ef465d3e404,0,151,151,5,1,threefour,,,,,,,,,,,,,,,,,,,,,,,,,,,,,,,,,,,,,,,,,,,,,,,,,,,,,,,,,,,,,,,,,,,,,,,,,,,,,,,,,,,,,,,,,,,,,,,,,,,,,,,,,,,,,,,,,,,,,,,,,,,,,,,,,,,,,,,,,,,,,,,,,,,,,,,,
,,,,,,615b38fbee37c31346d21b1c,62bbf953bb9736d56fd3e424,2022-06-29_09h08.01.218,Colour_Asymmetry_Pilot,2022.1.3,Win32,59.95203837,62bbe60bf3d75ef465d3e404,0,152,152,41,1,onethree,,,,,,,,,,,,,,,,,,,,,,,,,,,,,,,,,,,,,,,,,,,,,,,,,,,,,,,,,,,,,,,,,,,,,,,,,,,,,,,,,,,,,,,,,,,,,,,,,,,,,,,,,,,,,,,,,,,,,,,,,,,,,,,,,,,,,,,,,,,,,,,,,,,,,,,,
,,,,,,615b38fbee37c31346d21b1c,62bbf953bb9736d56fd3e424,2022-06-29_09h08.01.218,Colour_Asymmetry_Pilot,2022.1.3,Win32,59.95203837,62bbe60bf3d75ef465d3e404,0,153,153,4,1,threeone,,,,,,,,,,,,,,,,,,,,,,,,,,,,,,,,,,,,,,,,,,,,,,,,,,,,,,,,,,,,,,,,,,,,,,,,,,,,,,,,,,,,,,,,,,,,,,,,,,,,,,,,,,,,,,,,,,,,,,,,,,,,,,,,,,,,,,,,,,,,,,,,,,,,,,,,
,,,,,,615b38fbee37c31346d21b1c,62bbf953bb9736d56fd3e424,2022-06-29_09h08.01.218,Colour_Asymmetry_Pilot,2022.1.3,Win32,59.95203837,62bbe60bf3d75ef465d3e404,0,154,154,64,1,onetwo,,,,,,,,,,,,,,,,,,,,,,,,,,,,,,,,,,,,,,,,,,,,,,,,,,,,,,,,,,,,,,,,,,,,,,,,,,,,,,,,,,,,,,,,,,,,,,,,,,,,,,,,,,,,,,,,,,,,,,,,,,,,,,,,,,,,,,,,,,,,,,,,,,,,,,,,
,,,,,,615b38fbee37c31346d21b1c,62bbf953bb9736d56fd3e424,2022-06-29_09h08.01.218,Colour_Asymmetry_Pilot,2022.1.3,Win32,59.95203837,62bbe60bf3d75ef465d3e404,0,155,155,60,1,threeone,,,,,,,,,,,,,,,,,,,,,,,,,,,,,,,,,,,,,,,,,,,,,,,,,,,,,,,,,,,,,,,,,,,,,,,,,,,,,,,,,,,,,,,,,,,,,,,,,,,,,,,,,,,,,,,,,,,,,,,,,,,,,,,,,,,,,,,,,,,,,,,,,,,,,,,,
,,,,,,615b38fbee37c31346d21b1c,62bbf953bb9736d56fd3e424,2022-06-29_09h08.01.218,Colour_Asymmetry_Pilot,2022.1.3,Win32,59.95203837,62bbe60bf3d75ef465d3e404,0,156,156,137,1,onethree,,,,,,,,,,,,,,,,,,,,,,,,,,,,,,,,,,,,,,,,,,,,,,,,,,,,,,,,,,,,,,,,,,,,,,,,,,,,,,,,,,,,,,,,,,,,,,,,,,,,,,,,,,,,,,,,,,,,,,,,,,,,,,,,,,,,,,,,,,,,,,,,,,,,,,,,
,,,,,,615b38fbee37c31346d21b1c,62bbf953bb9736d56fd3e424,2022-06-29_09h08.01.218,Colour_Asymmetry_Pilot,2022.1.3,Win32,59.95203837,62bbe60bf3d75ef465d3e404,0,157,157,1,1,onethree,,,,,,,,,,,,,,,,,,,,,,,,,,,,,,,,,,,,,,,,,,,,,,,,,,,,,,,,,,,,,,,,,,,,,,,,,,,,,,,,,,,,,,,,,,,,,,,,,,,,,,,,,,,,,,,,,,,,,,,,,,,,,,,,,,,,,,,,,,,,,,,,,,,,,,,,
,,,,,,615b38fbee37c31346d21b1c,62bbf953bb9736d56fd3e424,2022-06-29_09h08.01.218,Colour_Asymmetry_Pilot,2022.1.3,Win32,59.95203837,62bbe60bf3d75ef465d3e404,0,158,158,12,1,threeone,,,,,,,,,,,,,,,,,,,,,,,,,,,,,,,,,,,,,,,,,,,,,,,,,,,,,,,,,,,,,,,,,,,,,,,,,,,,,,,,,,,,,,,,,,,,,,,,,,,,,,,,,,,,,,,,,,,,,,,,,,,,,,,,,,,,,,,,,,,,,,,,,,,,,,,,
,,,,,,615b38fbee37c31346d21b1c,62bbf953bb9736d56fd3e424,2022-06-29_09h08.01.218,Colour_Asymmetry_Pilot,2022.1.3,Win32,59.95203837,62bbe60bf3d75ef465d3e404,0,159,159,18,1,twoone,,,,,,,,,,,,,,,,,,,,,,,,,,,,,,,,,,,,,,,,,,,,,,,,,,,,,,,,,,,,,,,,,,,,,,,,,,,,,,,,,,,,,,,,,,,,,,,,,,,,,,,,,,,,,,,,,,,,,,,,,,,,,,,,,,,,,,,,,,,,,,,,,,,,,,,,
,,,,,,615b38fbee37c31346d21b1c,62bbf953bb9736d56fd3e424,2022-06-29_09h08.01.218,Colour_Asymmetry_Pilot,2022.1.3,Win32,59.95203837,62bbe60bf3d75ef465d3e404,0,160,160,50,1,twoone,,,,,,,,,,,,,,,,,,,,,,,,,,,,,,,,,,,,,,,,,,,,,,,,,,,,,,,,,,,,,,,,,,,,,,,,,,,,,,,,,,,,,,,,,,,,,,,,,,,,,,,,,,,,,,,,,,,,,,,,,,,,,,,,,,,,,,,,,,,,,,,,,,,,,,,,
,,,,,,615b38fbee37c31346d21b1c,62bbf953bb9736d56fd3e424,2022-06-29_09h08.01.218,Colour_Asymmetry_Pilot,2022.1.3,Win32,59.95203837,62bbe60bf3d75ef465d3e404,0,161,161,78,1,fourtwo,,,,,,,,,,,,,,,,,,,,,,,,,,,,,,,,,,,,,,,,,,,,,,,,,,,,,,,,,,,,,,,,,,,,,,,,,,,,,,,,,,,,,,,,,,,,,,,,,,,,,,,,,,,,,,,,,,,,,,,,,,,,,,,,,,,,,,,,,,,,,,,,,,,,,,,,
,,,,,,615b38fbee37c31346d21b1c,62bbf953bb9736d56fd3e424,2022-06-29_09h08.01.218,Colour_Asymmetry_Pilot,2022.1.3,Win32,59.95203837,62bbe60bf3d75ef465d3e404,,,,,,,space,103.2329,space,3390.8766,space,93.3026,space,43.4515,space,60.9098,space,7.3675,"[-0.4668,-0.8746,-0.2942]",onethree,"[-0.26280000000000003,-0.2158,-0.3256]",-4,17.6044,-36,79,1,0,0,response7disk_5,-1,1,1,0,0,rectangle_8,27,93,1,0,0,response1disk_7,7,4,2,-9,1,0,0,rectangle_4,0,0,0,0,1,,,,,,,,,,,,,,,,,,,,,,,,,,,,,,,,,,,,,,,,,,,,,,,,,,,,,,,,,,,,,,,,,,,,,,,,,,,,,,,,,,,,,,,,,,,,,,,,,,,,,,,,
,,,,,,615b38fbee37c31346d21b1c,62bbf953bb9736d56fd3e424,2022-06-29_09h08.01.218,Colour_Asymmetry_Pilot,2022.1.3,Win32,59.95203837,62bbe60bf3d75ef465d3e404,,,,,,,,,,,,,,,,,,,"[-0.0040000000000000036,0.02739999999999987,-0.08239999999999992]",threefour,"[0.19199999999999995,0.18419999999999992,0.5136000000000001]",4,10.2668,41,72,1,0,0,response1disk_5,-7,-3,1,0,0,rectangle_8,-7,-3,1,0,0,,,4,-7,-3,1,0,0,,1,0,1,0,1,,,,,,,,,,,,,,,,,,,,,,,,,,,,,,,,,,,,,,,,,,,,,,,,,,,,,,,,,,,,,,,,,,,,,,,,,,,,,,,,,,,,,,,,,,,,,,,,,,,,,,,,
,,,,,,615b38fbee37c31346d21b1c,62bbf953bb9736d56fd3e424,2022-06-29_09h08.01.218,Colour_Asymmetry_Pilot,2022.1.3,Win32,59.95203837,62bbe60bf3d75ef465d3e404,,,,,,,,,,,,,,,,,,,"[-0.9688,-0.4902000000000001,-0.12159999999999993]",onethree,"[-0.45899999999999996,-0.3256,-0.9374]",-4,3.8672,-52,79,1,0,0,response7disk_5,-12,-2,1,0,0,rectangle_8,-12,-2,1,0,0,,,4,-12,-2,1,0,0,,2,0,2,0,1,,,,,,,,,,,,,,,,,,,,,,,,,,,,,,,,,,,,,,,,,,,,,,,,,,,,,,,,,,,,,,,,,,,,,,,,,,,,,,,,,,,,,,,,,,,,,,,,,,,,,,,,
,,,,,,615b38fbee37c31346d21b1c,62bbf953bb9736d56fd3e424,2022-06-29_09h08.01.218,Colour_Asymmetry_Pilot,2022.1.3,Win32,59.95203837,62bbe60bf3d75ef465d3e404,,,,,,,,,,,,,,,,,,,"[-0.6942,-0.7648,-0.12959999999999994]",fourtwo,"[0.37240000000000006,-0.050999999999999934,-0.5216]",-4,3.0028,-55,59,1,0,0,response7disk_5,1,-8,1,0,0,rectangle_8,1,-8,1,0,0,,,4,1,-8,1,0,0,,3,0,3,0,1,,,,,,,,,,,,,,,,,,,,,,,,,,,,,,,,,,,,,,,,,,,,,,,,,,,,,,,,,,,,,,,,,,,,,,,,,,,,,,,,,,,,,,,,,,,,,,,,,,,,,,,,
,,,,,,615b38fbee37c31346d21b1c,62bbf953bb9736d56fd3e424,2022-06-29_09h08.01.218,Colour_Asymmetry_Pilot,2022.1.3,Win32,59.95203837,62bbe60bf3d75ef465d3e404,,,,,,,,,,,,,,,,,,,"[-0.9766,-0.34920000000000007,0.2156]",onethree,"[0.9213999999999998,0.6391999999999998,-0.9922]",-4,3.7671,-42,69,1,0,0,response7disk_5,18,3,1,0,0,rectangle_8,18,3,1,0,0,,,4,18,3,1,0,0,,4,0,4,0,1,,,,,,,,,,,,,,,,,,,,,,,,,,,,,,,,,,,,,,,,,,,,,,,,,,,,,,,,,,,,,,,,,,,,,,,,,,,,,,,,,,,,,,,,,,,,,,,,,,,,,,,,
,,,,,,615b38fbee37c31346d21b1c,62bbf953bb9736d56fd3e424,2022-06-29_09h08.01.218,Colour_Asymmetry_Pilot,2022.1.3,Win32,59.95203837,62bbe60bf3d75ef465d3e404,,,,,,,,,,,,,,,,,,,"[-0.30200000000000005,0.14500000000000002,0.2784]",twoone,"[-0.30200000000000005,0.14500000000000002,0.2784]",4,2.7851,50,83,1,0,0,response1disk_5,10,9,1,0,0,rectangle_8,10,9,1,0,0,,,4,10,9,1,0,0,,5,0,5,0,1,,,,,,,,,,,,,,,,,,,,,,,,,,,,,,,,,,,,,,,,,,,,,,,,,,,,,,,,,,,,,,,,,,,,,,,,,,,,,,,,,,,,,,,,,,,,,,,,,,,,,,,,
,,,,,,615b38fbee37c31346d21b1c,62bbf953bb9736d56fd3e424,2022-06-29_09h08.01.218,Colour_Asymmetry_Pilot,2022.1.3,Win32,59.95203837,62bbe60bf3d75ef465d3e404,,,,,,,,,,,,,,,,,,,"[-0.17659999999999998,0.3253999999999999,0.19999999999999996]",twoone,"[-0.20799999999999996,-0.655,-0.01980000000000004]",-4,1.2197,-27,46,1,0,0,response7disk_5,-13,-7,1,0,0,rectangle_8,-13,-7,1,0,0,,,4,-13,-7,1,0,0,,6,0,6,0,1,,,,,,,,,,,,,,,,,,,,,,,,,,,,,,,,,,,,,,,,,,,,,,,,,,,,,,,,,,,,,,,,,,,,,,,,,,,,,,,,,,,,,,,,,,,,,,,,,,,,,,,,
,,,,,,615b38fbee37c31346d21b1c,62bbf953bb9736d56fd3e424,2022-06-29_09h08.01.218,Colour_Asymmetry_Pilot,2022.1.3,Win32,59.95203837,62bbe60bf3d75ef465d3e404,,,,,,,,,,,,,,,,,,,,fourtwo,,-4,2.3331,,,,,,,,,,,,,,,,,,,,,,,,,,,,,,,,space,5.8272,"[-0.4982,-0.2942,-0.0354000000000001]","[0.7176,-0.906,-0.6864]",-48,63,1,0,0,response7disk,6,-5,1,0,0,rectangle,6,-5,1,0,0,,2,0.0056,0,6,-5,1,0,0,0,0,0,56,1,56,first,,,,,,,,,,,,,,,,,,,,,,,,,,,,,,,,,,,,,,,,,,,,,,,,,,,,,,,,,,,,,,,,,,,
,,,,,,615b38fbee37c31346d21b1c,62bbf953bb9736d56fd3e424,2022-06-29_09h08.01.218,Colour_Asymmetry_Pilot,2022.1.3,Win32,59.95203837,62bbe60bf3d75ef465d3e404,,,,,,,,,,,,,,,,,,,,fourthree,,-4,1.8731,,,,,,,,,,,,,,,,,,,,,,,,,,,,,,,,,,"[0.7176,-0.906,-0.6864]","[0.0351999999999999,0.41159999999999997,0.0038000000000000256]",-51,59,1,0,0,response7disk,5,-8,1,0,0,rectangle,5,-8,1,0,0,,1,0.0021,0,5,-8,1,0,0,0,1,1,147,1,66,second,,,,,,,,,,,,,,,,,,,,,,,,,,,,,,,,,,,,,,,,,,,,,,,,,,,,,,,,,,,,,,,,,,,
,,,,,,615b38fbee37c31346d21b1c,62bbf953bb9736d56fd3e424,2022-06-29_09h08.01.218,Colour_Asymmetry_Pilot,2022.1.3,Win32,59.95203837,62bbe60bf3d75ef465d3e404,,,,,,,,,,,,,,,,,,,,threeone,,-4,1.4163,,,,,,,,,,,,,,,,,,,,,,,,,,,,,,,,,,"[0.05879999999999996,0.2784,0.5841999999999998]","[-0.5922000000000001,-0.7492000000000001,-0.5296000000000001]",-45,58,1,0,0,response7disk,2,4,1,0,0,rectangle,2,4,1,0,0,,1,0.0005,0,2,4,1,0,0,0,2,2,23,1,23,first,,,,,,,,,,,,,,,,,,,,,,,,,,,,,,,,,,,,,,,,,,,,,,,,,,,,,,,,,,,,,,,,,,,
,,,,,,615b38fbee37c31346d21b1c,62bbf953bb9736d56fd3e424,2022-06-29_09h08.01.218,Colour_Asymmetry_Pilot,2022.1.3,Win32,59.95203837,62bbe60bf3d75ef465d3e404,,,,,,,,,,,,,,,,,,,,twofour,,-4,0.7175,,,,,,,,,,,,,,,,,,,,,,,,,,,,,,,,,,"[0.22340000000000004,-0.9296,-0.7884]","[-0.4746,-0.0354000000000001,0.5449999999999999]",-41,56,1,0,0,response7disk,14,9,1,0,0,rectangle,14,9,1,0,0,,2,0.0022,0,14,9,1,0,0,0,3,3,124,1,43,second,,,,,,,,,,,,,,,,,,,,,,,,,,,,,,,,,,,,,,,,,,,,,,,,,,,,,,,,,,,,,,,,,,,
,,,,,,615b38fbee37c31346d21b1c,62bbf953bb9736d56fd3e424,2022-06-29_09h08.01.218,Colour_Asymmetry_Pilot,2022.1.3,Win32,59.95203837,62bbe60bf3d75ef465d3e404,,,,,,,,,,,,,,,,,,,,onetwo,,-4,0.7651,,,,,,,,,,,,,,,,,,,,,,,,,,,,,,,,,,"[0.7646000000000002,0.07440000000000002,0.2704]","[0.9763999999999999,0.30979999999999985,-0.6786]",-28,51,1,0,0,response7disk,-3,7,1,0,0,rectangle,-3,7,1,0,0,,2,0.0006,0,-3,7,1,0,0,0,4,4,110,1,29,second,,,,,,,,,,,,,,,,,,,,,,,,,,,,,,,,,,,,,,,,,,,,,,,,,,,,,,,,,,,,,,,,,,,
,,,,,,615b38fbee37c31346d21b1c,62bbf953bb9736d56fd3e424,2022-06-29_09h08.01.218,Colour_Asymmetry_Pilot,2022.1.3,Win32,59.95203837,62bbe60bf3d75ef465d3e404,,,,,,,,,,,,,,,,,,,,fourtwo,,4,0.8354,,,,,,,,,,,,,,,,,,,,,,,,,,,,,,,,,,"[-0.20799999999999996,-0.655,-0.01980000000000004]","[-0.4668,-0.8746,-0.2942]",27,57,1,0,0,response1disk,18,13,1,0,0,rectangle,18,13,1,0,0,,3,0.0023,0,18,13,1,0,0,0,5,5,157,1,76,second,,,,,,,,,,,,,,,,,,,,,,,,,,,,,,,,,,,,,,,,,,,,,,,,,,,,,,,,,,,,,,,,,,,
,,,,,,615b38fbee37c31346d21b1c,62bbf953bb9736d56fd3e424,2022-06-29_09h08.01.218,Colour_Asymmetry_Pilot,2022.1.3,Win32,59.95203837,62bbe60bf3d75ef465d3e404,,,,,,,,,,,,,,,,,,,,onetwo,,-4,1.3177,,,,,,,,,,,,,,,,,,,,,,,,,,,,,,,,,,"[-0.2942,-0.24719999999999998,-0.357]","[-0.10599999999999998,-0.15300000000000002,0.15280000000000005]",-28,76,1,0,0,response7disk,2,8,1,0,0,rectangle,2,8,1,0,0,,3,0.0009,0,2,8,1,0,0,0,6,6,121,1,40,second,,,,,,,,,,,,,,,,,,,,,,,,,,,,,,,,,,,,,,,,,,,,,,,,,,,,,,,,,,,,,,,,,,,
,,,,,,615b38fbee37c31346d21b1c,62bbf953bb9736d56fd3e424,2022-06-29_09h08.01.218,Colour_Asymmetry_Pilot,2022.1.3,Win32,59.95203837,62bbe60bf3d75ef465d3e404,,,,,,,,,,,,,,,,,,,,threefour,,4,1.6321,,,,,,,,,,,,,,,,,,,,,,,,,,,,,,,,,,"[0.11359999999999992,0.6312,0.5213999999999999]","[-0.24719999999999998,0.5213999999999999,-0.12959999999999994]",50,70,1,0,0,response1disk,16,-11,1,0,0,rectangle,16,-11,1,0,0,,2,0.0023,0,16,-11,1,0,0,0,7,7,67,1,67,first,,,,,,,,,,,,,,,,,,,,,,,,,,,,,,,,,,,,,,,,,,,,,,,,,,,,,,,,,,,,,,,,,,,
,,,,,,615b38fbee37c31346d21b1c,62bbf953bb9736d56fd3e424,2022-06-29_09h08.01.218,Colour_Asymmetry_Pilot,2022.1.3,Win32,59.95203837,62bbe60bf3d75ef465d3e404,,,,,,,,,,,,,,,,,,,,threefour,,-4,0.8499,,,,,,,,,,,,,,,,,,,,,,,,,,,,,,,,,,"[0.30180000000000007,-0.7884,-0.9844]","[0.5449999999999999,-0.31000000000000005,-0.0354000000000001]",-36,64,1,0,0,response7disk,6,11,1,0,0,rectangle,6,11,1,0,0,,3,0.0025,0,6,11,1,0,0,0,8,8,7,1,7,first,,,,,,,,,,,,,,,,,,,,,,,,,,,,,,,,,,,,,,,,,,,,,,,,,,,,,,,,,,,,,,,,,,,
,,,,,,615b38fbee37c31346d21b1c,62bbf953bb9736d56fd3e424,2022-06-29_09h08.01.218,Colour_Asymmetry_Pilot,2022.1.3,Win32,59.95203837,62bbe60bf3d75ef465d3e404,,,,,,,,,,,,,,,,,,,,threeone,,-4,0.6304,,,,,,,,,,,,,,,,,,,,,,,,,,,,,,,,,,"[-0.4746,-0.0354000000000001,0.5449999999999999]","[0.4196,0.4665999999999999,0.3568]",-31,51,1,0,0,response7disk,3,10,1,0,0,rectangle,3,10,1,0,0,,2,0.002,0,3,10,1,0,0,0,9,9,127,1,46,second,,,,,,,,,,,,,,,,,,,,,,,,,,,,,,,,,,,,,,,,,,,,,,,,,,,,,,,,,,,,,,,,,,,
,,,,,,615b38fbee37c31346d21b1c,62bbf953bb9736d56fd3e424,2022-06-29_09h08.01.218,Colour_Asymmetry_Pilot,2022.1.3,Win32,59.95203837,62bbe60bf3d75ef465d3e404,,,,,,,,,,,,,,,,,,,,onetwo,,-4,0.6679,,,,,,,,,,,,,,,,,,,,,,,,,,,,,,,,,,"[-0.9766,-0.34920000000000007,0.2156]","[0.04299999999999993,0.16060000000000008,-0.6628000000000001]",-28,46,1,0,0,response7disk,3,9,1,0,0,rectangle,3,9,1,0,0,,2,0.0011,0,3,9,1,0,0,0,10,10,48,1,48,first,,,,,,,,,,,,,,,,,,,,,,,,,,,,,,,,,,,,,,,,,,,,,,,,,,,,,,,,,,,,,,,,,,,
,,,,,,615b38fbee37c31346d21b1c,62bbf953bb9736d56fd3e424,2022-06-29_09h08.01.218,Colour_Asymmetry_Pilot,2022.1.3,Win32,59.95203837,62bbe60bf3d75ef465d3e404,,,,,,,,,,,,,,,,,,,,twoone,,-4,1.85,,,,,,,,,,,,,,,,,,,,,,,,,,,,,,,,,,"[-0.38039999999999996,-0.4276,-0.1452]","[0.7646000000000002,0.07440000000000002,0.2704]",-47,57,1,0,0,response7disk,-7,11,1,0,0,rectangle,-7,11,1,0,0,,1,0.0024,0,-7,11,1,0,0,0,11,11,38,1,38,first,,,,,,,,,,,,,,,,,,,,,,,,,,,,,,,,,,,,,,,,,,,,,,,,,,,,,,,,,,,,,,,,,,,
,,,,,,615b38fbee37c31346d21b1c,62bbf953bb9736d56fd3e424,2022-06-29_09h08.01.218,Colour_Asymmetry_Pilot,2022.1.3,Win32,59.95203837,62bbe60bf3d75ef465d3e404,,,,,,,,,,,,,,,,,,,,twoone,,-4,0.5012,,,,,,,,,,,,,,,,,,,,,,,,,,,,,,,,,,"[0.34099999999999997,0.12939999999999996,-0.9766]","[-0.4668,-0.8746,-0.2942]",-35,47,1,0,0,response7disk,0,12,1,0,0,rectangle,0,12,1,0,0,,2,0.0013,0,0,12,1,0,0,0,12,12,35,1,35,first,,,,,,,,,,,,,,,,,,,,,,,,,,,,,,,,,,,,,,,,,,,,,,,,,,,,,,,,,,,,,,,,,,,
,,,,,,615b38fbee37c31346d21b1c,62bbf953bb9736d56fd3e424,2022-06-29_09h08.01.218,Colour_Asymmetry_Pilot,2022.1.3,Win32,59.95203837,62bbe60bf3d75ef465d3e404,,,,,,,,,,,,,,,,,,,,fourtwo,,4,0.4981,,,,,,,,,,,,,,,,,,,,,,,,,,,,,,,,,,"[-0.38039999999999996,-0.4276,-0.1452]","[-0.10599999999999998,-0.15300000000000002,0.15280000000000005]",32,50,1,0,0,response1disk,17,2,1,0,0,rectangle,17,2,1,0,0,,1,0.0034,0,17,2,1,0,0,0,13,13,133,1,52,second,,,,,,,,,,,,,,,,,,,,,,,,,,,,,,,,,,,,,,,,,,,,,,,,,,,,,,,,,,,,,,,,,,,
,,,,,,615b38fbee37c31346d21b1c,62bbf953bb9736d56fd3e424,2022-06-29_09h08.01.218,Colour_Asymmetry_Pilot,2022.1.3,Win32,59.95203837,62bbe60bf3d75ef465d3e404,,,,,,,,,,,,,,,,,,,,onetwo,,-4,1.933,,,,,,,,,,,,,,,,,,,,,,,,,,,,,,,,,,"[0.2862,0.7802,0.3568]","[-0.9766,-0.6472,0.07440000000000002]",-28,39,1,0,0,response7disk,-8,-3,1,0,0,rectangle,-8,-3,1,0,0,,1,0.0053,0,-8,-3,1,0,0,0,14,14,77,1,77,first,,,,,,,,,,,,,,,,,,,,,,,,,,,,,,,,,,,,,,,,,,,,,,,,,,,,,,,,,,,,,,,,,,,
,,,,,,615b38fbee37c31346d21b1c,62bbf953bb9736d56fd3e424,2022-06-29_09h08.01.218,Colour_Asymmetry_Pilot,2022.1.3,Win32,59.95203837,62bbe60bf3d75ef465d3e404,,,,,,,,,,,,,,,,,,,,onethree,,-4,0.5673,,,,,,,,,,,,,,,,,,,,,,,,,,,,,,,,,,"[0.6625999999999999,0.4980000000000002,-0.357]","[-0.8982,-0.37259999999999993,0.2784]",-39,50,1,0,0,response7disk,-13,11,1,0,0,rectangle,-13,11,1,0,0,,3,0.002,0,-13,11,1,0,0,0,15,15,90,1,9,second,,,,,,,,,,,,,,,,,,,,,,,,,,,,,,,,,,,,,,,,,,,,,,,,,,,,,,,,,,,,,,,,,,,
,,,,,,615b38fbee37c31346d21b1c,62bbf953bb9736d56fd3e424,2022-06-29_09h08.01.218,Colour_Asymmetry_Pilot,2022.1.3,Win32,59.95203837,62bbe60bf3d75ef465d3e404,,,,,,,,,,,,,,,,,,,,onetwo,,-4,0.566,,,,,,,,,,,,,,,,,,,,,,,,,,,,,,,,,,"[-0.2942,-0.7648,-0.7492000000000001]","[0.7802,-0.23140000000000005,-0.20799999999999996]",-27,44,1,0,0,response7disk,-3,-1,1,0,0,rectangle,-3,-1,1,0,0,,1,0.0015,0,-3,-1,1,0,0,0,16,16,126,1,45,second,,,,,,,,,,,,,,,,,,,,,,,,,,,,,,,,,,,,,,,,,,,,,,,,,,,,,,,,,,,,,,,,,,,
,,,,,,615b38fbee37c31346d21b1c,62bbf953bb9736d56fd3e424,2022-06-29_09h08.01.218,Colour_Asymmetry_Pilot,2022.1.3,Win32,59.95203837,62bbe60bf3d75ef465d3e404,,,,,,,,,,,,,,,,,,,,threefour,,-4,0.4996,,,,,,,,,,,,,,,,,,,,,,,,,,,,,,,,,,"[0.11359999999999992,0.6312,0.5213999999999999]","[0.3881999999999999,-0.23939999999999995,-0.05040000000000011]",-24,37,1,0,0,response7disk,-6,5,1,0,0,rectangle,-6,5,1,0,0,,1,0.0002,0,-6,5,1,0,0,0,17,17,128,1,47,second,,,,,,,,,,,,,,,,,,,,,,,,,,,,,,,,,,,,,,,,,,,,,,,,,,,,,,,,,,,,,,,,,,,
,,,,,,615b38fbee37c31346d21b1c,62bbf953bb9736d56fd3e424,2022-06-29_09h08.01.218,Colour_Asymmetry_Pilot,2022.1.3,Win32,59.95203837,62bbe60bf3d75ef465d3e404,,,,,,,,,,,,,,,,,,,,threeone,,-4,0.5187,,,,,,,,,,,,,,,,,,,,,,,,,,,,,,,,,,"[0.7018,0.7176,0.6155999999999999]","[-0.4276,0.0038000000000000256,-0.3256]",-30,57,1,0,0,response7disk,-10,5,1,0,0,rectangle,-10,5,1,0,0,,1,0.0008,0,-10,5,1,0,0,0,18,18,15,1,15,first,,,,,,,,,,,,,,,,,,,,,,,,,,,,,,,,,,,,,,,,,,,,,,,,,,,,,,,,,,,,,,,,,,,
,,,,,,615b38fbee37c31346d21b1c,62bbf953bb9736d56fd3e424,2022-06-29_09h08.01.218,Colour_Asymmetry_Pilot,2022.1.3,Win32,59.95203837,62bbe60bf3d75ef465d3e404,,,,,,,,,,,,,,,,,,,,threefour,,-4,3.4839,,,,,,,,,,,,,,,,,,,,,,,,,,,,,,,,,,"[0.7018,0.7802,-0.16079999999999994]","[0.9372,0.9450000000000001,0.8980000000000001]",-24,67,1,0,0,response7disk,7,11,1,0,0,rectangle,7,11,1,0,0,,1,0.0006,0,7,11,1,0,0,0,19,19,53,1,53,first,,,,,,,,,,,,,,,,,,,,,,,,,,,,,,,,,,,,,,,,,,,,,,,,,,,,,,,,,,,,,,,,,,,
,,,,,,615b38fbee37c31346d21b1c,62bbf953bb9736d56fd3e424,2022-06-29_09h08.01.218,Colour_Asymmetry_Pilot,2022.1.3,Win32,59.95203837,62bbe60bf3d75ef465d3e404,,,,,,,,,,,,,,,,,,,,threeone,,4,0.855,,,,,,,,,,,,,,,,,,,,,,,,,,,,,,,,,,"[0.5449999999999999,-0.31000000000000005,-0.0354000000000001]","[0.30180000000000007,-0.7884,-0.9844]",30,60,1,0,0,response1disk,15,13,1,0,0,rectangle,15,13,1,0,0,,2,0.0025,0,15,13,1,0,0,0,20,20,88,1,7,second,,,,,,,,,,,,,,,,,,,,,,,,,,,,,,,,,,,,,,,,,,,,,,,,,,,,,,,,,,,,,,,,,,,
