trials.thisRepN,trials.thisTrialN,trials.thisN,trials.thisIndex,trials.ran,Colourcodes,participant,session,date,expName,psychopyVersion,OS,frameRate,study_id,trials_4.thisRepN,trials_4.thisTrialN,trials_4.thisN,trials_4.thisIndex,trials_4.ran,StimulusPos,key_resp.keys,key_resp.rt,key_resp_2.keys,key_resp_2.rt,key_resp_15.keys,key_resp_15.rt,key_resp_17.keys,key_resp_17.rt,key_resp_9.keys,key_resp_9.rt,key_resp_10.keys,key_resp_10.rt,Circle1_col,Ecc,Circle2_col,similarity,response_time,mouse_5.x,mouse_5.y,mouse_5.leftButton,mouse_5.midButton,mouse_5.rightButton,mouse_5.clicked_name,mouse_10.x,mouse_10.y,mouse_10.leftButton,mouse_10.midButton,mouse_10.rightButton,mouse_10.clicked_name,mouse_7.x,mouse_7.y,mouse_7.leftButton,mouse_7.midButton,mouse_7.rightButton,mouse_7.clicked_name,catchprac,catchnumberprac,mouse_6.x,mouse_6.y,mouse_6.leftButton,mouse_6.midButton,mouse_6.rightButton,mouse_6.clicked_name,duringprac.thisRepN,duringprac.thisTrialN,duringprac.thisN,duringprac.thisIndex,duringprac.ran,key_resp_22.keys,key_resp_22.rt,Circle1_colour,Circle2_colour,mouse.x,mouse.y,mouse.leftButton,mouse.midButton,mouse.rightButton,mouse.clicked_name,mouse_2.x,mouse_2.y,mouse_2.leftButton,mouse_2.midButton,mouse_2.rightButton,mouse_2.clicked_name,mouse_3.x,mouse_3.y,mouse_3.leftButton,mouse_3.midButton,mouse_3.rightButton,mouse_3.clicked_name,catchresponse,catchnumber,response_time_catch,Catch,mouse_11.x,mouse_11.y,mouse_11.leftButton,mouse_11.midButton,mouse_11.rightButton,mouse_11.clicked_name,trials_2.thisRepN,trials_2.thisTrialN,trials_2.thisN,trials_2.thisIndex,trials_2.ran,Colourpair,Temporder,trials_3.thisRepN,trials_3.thisTrialN,trials_3.thisN,trials_3.thisIndex,trials_3.ran,key_resp_instr_Ishi.keys,key_resp_instr_Ishi.rt,Ishi_trial_keyresp.keys,Ishi_trial_keyresp.rt,Ishi_textbox.text,Ishi_loop.thisRepN,Ishi_loop.thisTrialN,Ishi_loop.thisN,Ishi_loop.thisIndex,Ishi_loop.ran,imageaddress,textbox.text,mouse_4.x,mouse_4.y,mouse_4.leftButton,mouse_4.midButton,mouse_4.rightButton,mouse_4.clicked_name,textbox_2.text,mouse_8.x,mouse_8.y,mouse_8.leftButton,mouse_8.midButton,mouse_8.rightButton,mouse_8.clicked_name,textbox_3.text,mouse_9.x,mouse_9.y,mouse_9.leftButton,mouse_9.midButton,mouse_9.rightButton,mouse_9.clicked_name,textbox_4.text,mouse_12.x,mouse_12.y,mouse_12.leftButton,mouse_12.midButton,mouse_12.rightButton,mouse_12.clicked_name,textbox_5.text,mouse_13.x,mouse_13.y,mouse_13.leftButton,mouse_13.midButton,mouse_13.rightButton,mouse_13.clicked_name,textbox_6.text,mouse_14.x,mouse_14.y,mouse_14.leftButton,mouse_14.midButton,mouse_14.rightButton,mouse_14.clicked_name,textbox_7.text,mouse_15.x,mouse_15.y,mouse_15.leftButton,mouse_15.midButton,mouse_15.rightButton,mouse_15.clicked_name
0,0,0,54,1,,5e80b4893b435a0009ea44e6,62bbfb1ff9b1e90a41468300,2022-06-29_09h20.30.484,Colour_Asymmetry_Pilot,2022.1.3,Win32,60.06006006,62bbe60bf3d75ef465d3e404,,,,,,,,,,,,,,,,,,,,,,,,,,,,,,,,,,,,,,,,,,,,,,,,,,,,,,,,,,,,,,,,,,,,,,,,,,,,,,,,,,,,,,,,,,,,,,,,,,,,,,,,,,,,,,,,,,,,,,,,,,,,,,,,,,,,,,,,,,,,,,,,,,,,,,,,,,,,,,
0,1,1,18,1,,5e80b4893b435a0009ea44e6,62bbfb1ff9b1e90a41468300,2022-06-29_09h20.30.484,Colour_Asymmetry_Pilot,2022.1.3,Win32,60.06006006,62bbe60bf3d75ef465d3e404,,,,,,,,,,,,,,,,,,,,,,,,,,,,,,,,,,,,,,,,,,,,,,,,,,,,,,,,,,,,,,,,,,,,,,,,,,,,,,,,,,,,,,,,,,,,,,,,,,,,,,,,,,,,,,,,,,,,,,,,,,,,,,,,,,,,,,,,,,,,,,,,,,,,,,,,,,,,,,
0,2,2,10,1,,5e80b4893b435a0009ea44e6,62bbfb1ff9b1e90a41468300,2022-06-29_09h20.30.484,Colour_Asymmetry_Pilot,2022.1.3,Win32,60.06006006,62bbe60bf3d75ef465d3e404,,,,,,,,,,,,,,,,,,,,,,,,,,,,,,,,,,,,,,,,,,,,,,,,,,,,,,,,,,,,,,,,,,,,,,,,,,,,,,,,,,,,,,,,,,,,,,,,,,,,,,,,,,,,,,,,,,,,,,,,,,,,,,,,,,,,,,,,,,,,,,,,,,,,,,,,,,,,,,
0,3,3,88,1,,5e80b4893b435a0009ea44e6,62bbfb1ff9b1e90a41468300,2022-06-29_09h20.30.484,Colour_Asymmetry_Pilot,2022.1.3,Win32,60.06006006,62bbe60bf3d75ef465d3e404,,,,,,,,,,,,,,,,,,,,,,,,,,,,,,,,,,,,,,,,,,,,,,,,,,,,,,,,,,,,,,,,,,,,,,,,,,,,,,,,,,,,,,,,,,,,,,,,,,,,,,,,,,,,,,,,,,,,,,,,,,,,,,,,,,,,,,,,,,,,,,,,,,,,,,,,,,,,,,
0,4,4,43,1,,5e80b4893b435a0009ea44e6,62bbfb1ff9b1e90a41468300,2022-06-29_09h20.30.484,Colour_Asymmetry_Pilot,2022.1.3,Win32,60.06006006,62bbe60bf3d75ef465d3e404,,,,,,,,,,,,,,,,,,,,,,,,,,,,,,,,,,,,,,,,,,,,,,,,,,,,,,,,,,,,,,,,,,,,,,,,,,,,,,,,,,,,,,,,,,,,,,,,,,,,,,,,,,,,,,,,,,,,,,,,,,,,,,,,,,,,,,,,,,,,,,,,,,,,,,,,,,,,,,
0,5,5,41,1,,5e80b4893b435a0009ea44e6,62bbfb1ff9b1e90a41468300,2022-06-29_09h20.30.484,Colour_Asymmetry_Pilot,2022.1.3,Win32,60.06006006,62bbe60bf3d75ef465d3e404,,,,,,,,,,,,,,,,,,,,,,,,,,,,,,,,,,,,,,,,,,,,,,,,,,,,,,,,,,,,,,,,,,,,,,,,,,,,,,,,,,,,,,,,,,,,,,,,,,,,,,,,,,,,,,,,,,,,,,,,,,,,,,,,,,,,,,,,,,,,,,,,,,,,,,,,,,,,,,
0,6,6,66,1,,5e80b4893b435a0009ea44e6,62bbfb1ff9b1e90a41468300,2022-06-29_09h20.30.484,Colour_Asymmetry_Pilot,2022.1.3,Win32,60.06006006,62bbe60bf3d75ef465d3e404,,,,,,,,,,,,,,,,,,,,,,,,,,,,,,,,,,,,,,,,,,,,,,,,,,,,,,,,,,,,,,,,,,,,,,,,,,,,,,,,,,,,,,,,,,,,,,,,,,,,,,,,,,,,,,,,,,,,,,,,,,,,,,,,,,,,,,,,,,,,,,,,,,,,,,,,,,,,,,
0,7,7,17,1,,5e80b4893b435a0009ea44e6,62bbfb1ff9b1e90a41468300,2022-06-29_09h20.30.484,Colour_Asymmetry_Pilot,2022.1.3,Win32,60.06006006,62bbe60bf3d75ef465d3e404,,,,,,,,,,,,,,,,,,,,,,,,,,,,,,,,,,,,,,,,,,,,,,,,,,,,,,,,,,,,,,,,,,,,,,,,,,,,,,,,,,,,,,,,,,,,,,,,,,,,,,,,,,,,,,,,,,,,,,,,,,,,,,,,,,,,,,,,,,,,,,,,,,,,,,,,,,,,,,
0,8,8,35,1,,5e80b4893b435a0009ea44e6,62bbfb1ff9b1e90a41468300,2022-06-29_09h20.30.484,Colour_Asymmetry_Pilot,2022.1.3,Win32,60.06006006,62bbe60bf3d75ef465d3e404,,,,,,,,,,,,,,,,,,,,,,,,,,,,,,,,,,,,,,,,,,,,,,,,,,,,,,,,,,,,,,,,,,,,,,,,,,,,,,,,,,,,,,,,,,,,,,,,,,,,,,,,,,,,,,,,,,,,,,,,,,,,,,,,,,,,,,,,,,,,,,,,,,,,,,,,,,,,,,
0,9,9,7,1,,5e80b4893b435a0009ea44e6,62bbfb1ff9b1e90a41468300,2022-06-29_09h20.30.484,Colour_Asymmetry_Pilot,2022.1.3,Win32,60.06006006,62bbe60bf3d75ef465d3e404,,,,,,,,,,,,,,,,,,,,,,,,,,,,,,,,,,,,,,,,,,,,,,,,,,,,,,,,,,,,,,,,,,,,,,,,,,,,,,,,,,,,,,,,,,,,,,,,,,,,,,,,,,,,,,,,,,,,,,,,,,,,,,,,,,,,,,,,,,,,,,,,,,,,,,,,,,,,,,
0,10,10,25,1,,5e80b4893b435a0009ea44e6,62bbfb1ff9b1e90a41468300,2022-06-29_09h20.30.484,Colour_Asymmetry_Pilot,2022.1.3,Win32,60.06006006,62bbe60bf3d75ef465d3e404,,,,,,,,,,,,,,,,,,,,,,,,,,,,,,,,,,,,,,,,,,,,,,,,,,,,,,,,,,,,,,,,,,,,,,,,,,,,,,,,,,,,,,,,,,,,,,,,,,,,,,,,,,,,,,,,,,,,,,,,,,,,,,,,,,,,,,,,,,,,,,,,,,,,,,,,,,,,,,
0,11,11,16,1,,5e80b4893b435a0009ea44e6,62bbfb1ff9b1e90a41468300,2022-06-29_09h20.30.484,Colour_Asymmetry_Pilot,2022.1.3,Win32,60.06006006,62bbe60bf3d75ef465d3e404,,,,,,,,,,,,,,,,,,,,,,,,,,,,,,,,,,,,,,,,,,,,,,,,,,,,,,,,,,,,,,,,,,,,,,,,,,,,,,,,,,,,,,,,,,,,,,,,,,,,,,,,,,,,,,,,,,,,,,,,,,,,,,,,,,,,,,,,,,,,,,,,,,,,,,,,,,,,,,
0,12,12,68,1,,5e80b4893b435a0009ea44e6,62bbfb1ff9b1e90a41468300,2022-06-29_09h20.30.484,Colour_Asymmetry_Pilot,2022.1.3,Win32,60.06006006,62bbe60bf3d75ef465d3e404,,,,,,,,,,,,,,,,,,,,,,,,,,,,,,,,,,,,,,,,,,,,,,,,,,,,,,,,,,,,,,,,,,,,,,,,,,,,,,,,,,,,,,,,,,,,,,,,,,,,,,,,,,,,,,,,,,,,,,,,,,,,,,,,,,,,,,,,,,,,,,,,,,,,,,,,,,,,,,
0,13,13,85,1,,5e80b4893b435a0009ea44e6,62bbfb1ff9b1e90a41468300,2022-06-29_09h20.30.484,Colour_Asymmetry_Pilot,2022.1.3,Win32,60.06006006,62bbe60bf3d75ef465d3e404,,,,,,,,,,,,,,,,,,,,,,,,,,,,,,,,,,,,,,,,,,,,,,,,,,,,,,,,,,,,,,,,,,,,,,,,,,,,,,,,,,,,,,,,,,,,,,,,,,,,,,,,,,,,,,,,,,,,,,,,,,,,,,,,,,,,,,,,,,,,,,,,,,,,,,,,,,,,,,
0,14,14,56,1,,5e80b4893b435a0009ea44e6,62bbfb1ff9b1e90a41468300,2022-06-29_09h20.30.484,Colour_Asymmetry_Pilot,2022.1.3,Win32,60.06006006,62bbe60bf3d75ef465d3e404,,,,,,,,,,,,,,,,,,,,,,,,,,,,,,,,,,,,,,,,,,,,,,,,,,,,,,,,,,,,,,,,,,,,,,,,,,,,,,,,,,,,,,,,,,,,,,,,,,,,,,,,,,,,,,,,,,,,,,,,,,,,,,,,,,,,,,,,,,,,,,,,,,,,,,,,,,,,,,
0,15,15,2,1,,5e80b4893b435a0009ea44e6,62bbfb1ff9b1e90a41468300,2022-06-29_09h20.30.484,Colour_Asymmetry_Pilot,2022.1.3,Win32,60.06006006,62bbe60bf3d75ef465d3e404,,,,,,,,,,,,,,,,,,,,,,,,,,,,,,,,,,,,,,,,,,,,,,,,,,,,,,,,,,,,,,,,,,,,,,,,,,,,,,,,,,,,,,,,,,,,,,,,,,,,,,,,,,,,,,,,,,,,,,,,,,,,,,,,,,,,,,,,,,,,,,,,,,,,,,,,,,,,,,
0,16,16,62,1,,5e80b4893b435a0009ea44e6,62bbfb1ff9b1e90a41468300,2022-06-29_09h20.30.484,Colour_Asymmetry_Pilot,2022.1.3,Win32,60.06006006,62bbe60bf3d75ef465d3e404,,,,,,,,,,,,,,,,,,,,,,,,,,,,,,,,,,,,,,,,,,,,,,,,,,,,,,,,,,,,,,,,,,,,,,,,,,,,,,,,,,,,,,,,,,,,,,,,,,,,,,,,,,,,,,,,,,,,,,,,,,,,,,,,,,,,,,,,,,,,,,,,,,,,,,,,,,,,,,
0,17,17,28,1,,5e80b4893b435a0009ea44e6,62bbfb1ff9b1e90a41468300,2022-06-29_09h20.30.484,Colour_Asymmetry_Pilot,2022.1.3,Win32,60.06006006,62bbe60bf3d75ef465d3e404,,,,,,,,,,,,,,,,,,,,,,,,,,,,,,,,,,,,,,,,,,,,,,,,,,,,,,,,,,,,,,,,,,,,,,,,,,,,,,,,,,,,,,,,,,,,,,,,,,,,,,,,,,,,,,,,,,,,,,,,,,,,,,,,,,,,,,,,,,,,,,,,,,,,,,,,,,,,,,
0,18,18,90,1,,5e80b4893b435a0009ea44e6,62bbfb1ff9b1e90a41468300,2022-06-29_09h20.30.484,Colour_Asymmetry_Pilot,2022.1.3,Win32,60.06006006,62bbe60bf3d75ef465d3e404,,,,,,,,,,,,,,,,,,,,,,,,,,,,,,,,,,,,,,,,,,,,,,,,,,,,,,,,,,,,,,,,,,,,,,,,,,,,,,,,,,,,,,,,,,,,,,,,,,,,,,,,,,,,,,,,,,,,,,,,,,,,,,,,,,,,,,,,,,,,,,,,,,,,,,,,,,,,,,
0,19,19,60,1,,5e80b4893b435a0009ea44e6,62bbfb1ff9b1e90a41468300,2022-06-29_09h20.30.484,Colour_Asymmetry_Pilot,2022.1.3,Win32,60.06006006,62bbe60bf3d75ef465d3e404,,,,,,,,,,,,,,,,,,,,,,,,,,,,,,,,,,,,,,,,,,,,,,,,,,,,,,,,,,,,,,,,,,,,,,,,,,,,,,,,,,,,,,,,,,,,,,,,,,,,,,,,,,,,,,,,,,,,,,,,,,,,,,,,,,,,,,,,,,,,,,,,,,,,,,,,,,,,,,
0,20,20,74,1,,5e80b4893b435a0009ea44e6,62bbfb1ff9b1e90a41468300,2022-06-29_09h20.30.484,Colour_Asymmetry_Pilot,2022.1.3,Win32,60.06006006,62bbe60bf3d75ef465d3e404,,,,,,,,,,,,,,,,,,,,,,,,,,,,,,,,,,,,,,,,,,,,,,,,,,,,,,,,,,,,,,,,,,,,,,,,,,,,,,,,,,,,,,,,,,,,,,,,,,,,,,,,,,,,,,,,,,,,,,,,,,,,,,,,,,,,,,,,,,,,,,,,,,,,,,,,,,,,,,
0,21,21,9,1,,5e80b4893b435a0009ea44e6,62bbfb1ff9b1e90a41468300,2022-06-29_09h20.30.484,Colour_Asymmetry_Pilot,2022.1.3,Win32,60.06006006,62bbe60bf3d75ef465d3e404,,,,,,,,,,,,,,,,,,,,,,,,,,,,,,,,,,,,,,,,,,,,,,,,,,,,,,,,,,,,,,,,,,,,,,,,,,,,,,,,,,,,,,,,,,,,,,,,,,,,,,,,,,,,,,,,,,,,,,,,,,,,,,,,,,,,,,,,,,,,,,,,,,,,,,,,,,,,,,
0,22,22,64,1,,5e80b4893b435a0009ea44e6,62bbfb1ff9b1e90a41468300,2022-06-29_09h20.30.484,Colour_Asymmetry_Pilot,2022.1.3,Win32,60.06006006,62bbe60bf3d75ef465d3e404,,,,,,,,,,,,,,,,,,,,,,,,,,,,,,,,,,,,,,,,,,,,,,,,,,,,,,,,,,,,,,,,,,,,,,,,,,,,,,,,,,,,,,,,,,,,,,,,,,,,,,,,,,,,,,,,,,,,,,,,,,,,,,,,,,,,,,,,,,,,,,,,,,,,,,,,,,,,,,
0,23,23,77,1,,5e80b4893b435a0009ea44e6,62bbfb1ff9b1e90a41468300,2022-06-29_09h20.30.484,Colour_Asymmetry_Pilot,2022.1.3,Win32,60.06006006,62bbe60bf3d75ef465d3e404,,,,,,,,,,,,,,,,,,,,,,,,,,,,,,,,,,,,,,,,,,,,,,,,,,,,,,,,,,,,,,,,,,,,,,,,,,,,,,,,,,,,,,,,,,,,,,,,,,,,,,,,,,,,,,,,,,,,,,,,,,,,,,,,,,,,,,,,,,,,,,,,,,,,,,,,,,,,,,
0,24,24,22,1,,5e80b4893b435a0009ea44e6,62bbfb1ff9b1e90a41468300,2022-06-29_09h20.30.484,Colour_Asymmetry_Pilot,2022.1.3,Win32,60.06006006,62bbe60bf3d75ef465d3e404,,,,,,,,,,,,,,,,,,,,,,,,,,,,,,,,,,,,,,,,,,,,,,,,,,,,,,,,,,,,,,,,,,,,,,,,,,,,,,,,,,,,,,,,,,,,,,,,,,,,,,,,,,,,,,,,,,,,,,,,,,,,,,,,,,,,,,,,,,,,,,,,,,,,,,,,,,,,,,
0,25,25,46,1,,5e80b4893b435a0009ea44e6,62bbfb1ff9b1e90a41468300,2022-06-29_09h20.30.484,Colour_Asymmetry_Pilot,2022.1.3,Win32,60.06006006,62bbe60bf3d75ef465d3e404,,,,,,,,,,,,,,,,,,,,,,,,,,,,,,,,,,,,,,,,,,,,,,,,,,,,,,,,,,,,,,,,,,,,,,,,,,,,,,,,,,,,,,,,,,,,,,,,,,,,,,,,,,,,,,,,,,,,,,,,,,,,,,,,,,,,,,,,,,,,,,,,,,,,,,,,,,,,,,
0,26,26,34,1,,5e80b4893b435a0009ea44e6,62bbfb1ff9b1e90a41468300,2022-06-29_09h20.30.484,Colour_Asymmetry_Pilot,2022.1.3,Win32,60.06006006,62bbe60bf3d75ef465d3e404,,,,,,,,,,,,,,,,,,,,,,,,,,,,,,,,,,,,,,,,,,,,,,,,,,,,,,,,,,,,,,,,,,,,,,,,,,,,,,,,,,,,,,,,,,,,,,,,,,,,,,,,,,,,,,,,,,,,,,,,,,,,,,,,,,,,,,,,,,,,,,,,,,,,,,,,,,,,,,
0,27,27,83,1,,5e80b4893b435a0009ea44e6,62bbfb1ff9b1e90a41468300,2022-06-29_09h20.30.484,Colour_Asymmetry_Pilot,2022.1.3,Win32,60.06006006,62bbe60bf3d75ef465d3e404,,,,,,,,,,,,,,,,,,,,,,,,,,,,,,,,,,,,,,,,,,,,,,,,,,,,,,,,,,,,,,,,,,,,,,,,,,,,,,,,,,,,,,,,,,,,,,,,,,,,,,,,,,,,,,,,,,,,,,,,,,,,,,,,,,,,,,,,,,,,,,,,,,,,,,,,,,,,,,
0,28,28,61,1,,5e80b4893b435a0009ea44e6,62bbfb1ff9b1e90a41468300,2022-06-29_09h20.30.484,Colour_Asymmetry_Pilot,2022.1.3,Win32,60.06006006,62bbe60bf3d75ef465d3e404,,,,,,,,,,,,,,,,,,,,,,,,,,,,,,,,,,,,,,,,,,,,,,,,,,,,,,,,,,,,,,,,,,,,,,,,,,,,,,,,,,,,,,,,,,,,,,,,,,,,,,,,,,,,,,,,,,,,,,,,,,,,,,,,,,,,,,,,,,,,,,,,,,,,,,,,,,,,,,
0,29,29,31,1,,5e80b4893b435a0009ea44e6,62bbfb1ff9b1e90a41468300,2022-06-29_09h20.30.484,Colour_Asymmetry_Pilot,2022.1.3,Win32,60.06006006,62bbe60bf3d75ef465d3e404,,,,,,,,,,,,,,,,,,,,,,,,,,,,,,,,,,,,,,,,,,,,,,,,,,,,,,,,,,,,,,,,,,,,,,,,,,,,,,,,,,,,,,,,,,,,,,,,,,,,,,,,,,,,,,,,,,,,,,,,,,,,,,,,,,,,,,,,,,,,,,,,,,,,,,,,,,,,,,
0,30,30,23,1,,5e80b4893b435a0009ea44e6,62bbfb1ff9b1e90a41468300,2022-06-29_09h20.30.484,Colour_Asymmetry_Pilot,2022.1.3,Win32,60.06006006,62bbe60bf3d75ef465d3e404,,,,,,,,,,,,,,,,,,,,,,,,,,,,,,,,,,,,,,,,,,,,,,,,,,,,,,,,,,,,,,,,,,,,,,,,,,,,,,,,,,,,,,,,,,,,,,,,,,,,,,,,,,,,,,,,,,,,,,,,,,,,,,,,,,,,,,,,,,,,,,,,,,,,,,,,,,,,,,
0,31,31,45,1,,5e80b4893b435a0009ea44e6,62bbfb1ff9b1e90a41468300,2022-06-29_09h20.30.484,Colour_Asymmetry_Pilot,2022.1.3,Win32,60.06006006,62bbe60bf3d75ef465d3e404,,,,,,,,,,,,,,,,,,,,,,,,,,,,,,,,,,,,,,,,,,,,,,,,,,,,,,,,,,,,,,,,,,,,,,,,,,,,,,,,,,,,,,,,,,,,,,,,,,,,,,,,,,,,,,,,,,,,,,,,,,,,,,,,,,,,,,,,,,,,,,,,,,,,,,,,,,,,,,
0,32,32,78,1,,5e80b4893b435a0009ea44e6,62bbfb1ff9b1e90a41468300,2022-06-29_09h20.30.484,Colour_Asymmetry_Pilot,2022.1.3,Win32,60.06006006,62bbe60bf3d75ef465d3e404,,,,,,,,,,,,,,,,,,,,,,,,,,,,,,,,,,,,,,,,,,,,,,,,,,,,,,,,,,,,,,,,,,,,,,,,,,,,,,,,,,,,,,,,,,,,,,,,,,,,,,,,,,,,,,,,,,,,,,,,,,,,,,,,,,,,,,,,,,,,,,,,,,,,,,,,,,,,,,
0,33,33,52,1,,5e80b4893b435a0009ea44e6,62bbfb1ff9b1e90a41468300,2022-06-29_09h20.30.484,Colour_Asymmetry_Pilot,2022.1.3,Win32,60.06006006,62bbe60bf3d75ef465d3e404,,,,,,,,,,,,,,,,,,,,,,,,,,,,,,,,,,,,,,,,,,,,,,,,,,,,,,,,,,,,,,,,,,,,,,,,,,,,,,,,,,,,,,,,,,,,,,,,,,,,,,,,,,,,,,,,,,,,,,,,,,,,,,,,,,,,,,,,,,,,,,,,,,,,,,,,,,,,,,
0,34,34,58,1,,5e80b4893b435a0009ea44e6,62bbfb1ff9b1e90a41468300,2022-06-29_09h20.30.484,Colour_Asymmetry_Pilot,2022.1.3,Win32,60.06006006,62bbe60bf3d75ef465d3e404,,,,,,,,,,,,,,,,,,,,,,,,,,,,,,,,,,,,,,,,,,,,,,,,,,,,,,,,,,,,,,,,,,,,,,,,,,,,,,,,,,,,,,,,,,,,,,,,,,,,,,,,,,,,,,,,,,,,,,,,,,,,,,,,,,,,,,,,,,,,,,,,,,,,,,,,,,,,,,
0,35,35,8,1,,5e80b4893b435a0009ea44e6,62bbfb1ff9b1e90a41468300,2022-06-29_09h20.30.484,Colour_Asymmetry_Pilot,2022.1.3,Win32,60.06006006,62bbe60bf3d75ef465d3e404,,,,,,,,,,,,,,,,,,,,,,,,,,,,,,,,,,,,,,,,,,,,,,,,,,,,,,,,,,,,,,,,,,,,,,,,,,,,,,,,,,,,,,,,,,,,,,,,,,,,,,,,,,,,,,,,,,,,,,,,,,,,,,,,,,,,,,,,,,,,,,,,,,,,,,,,,,,,,,
0,36,36,47,1,,5e80b4893b435a0009ea44e6,62bbfb1ff9b1e90a41468300,2022-06-29_09h20.30.484,Colour_Asymmetry_Pilot,2022.1.3,Win32,60.06006006,62bbe60bf3d75ef465d3e404,,,,,,,,,,,,,,,,,,,,,,,,,,,,,,,,,,,,,,,,,,,,,,,,,,,,,,,,,,,,,,,,,,,,,,,,,,,,,,,,,,,,,,,,,,,,,,,,,,,,,,,,,,,,,,,,,,,,,,,,,,,,,,,,,,,,,,,,,,,,,,,,,,,,,,,,,,,,,,
0,37,37,12,1,,5e80b4893b435a0009ea44e6,62bbfb1ff9b1e90a41468300,2022-06-29_09h20.30.484,Colour_Asymmetry_Pilot,2022.1.3,Win32,60.06006006,62bbe60bf3d75ef465d3e404,,,,,,,,,,,,,,,,,,,,,,,,,,,,,,,,,,,,,,,,,,,,,,,,,,,,,,,,,,,,,,,,,,,,,,,,,,,,,,,,,,,,,,,,,,,,,,,,,,,,,,,,,,,,,,,,,,,,,,,,,,,,,,,,,,,,,,,,,,,,,,,,,,,,,,,,,,,,,,
0,38,38,73,1,,5e80b4893b435a0009ea44e6,62bbfb1ff9b1e90a41468300,2022-06-29_09h20.30.484,Colour_Asymmetry_Pilot,2022.1.3,Win32,60.06006006,62bbe60bf3d75ef465d3e404,,,,,,,,,,,,,,,,,,,,,,,,,,,,,,,,,,,,,,,,,,,,,,,,,,,,,,,,,,,,,,,,,,,,,,,,,,,,,,,,,,,,,,,,,,,,,,,,,,,,,,,,,,,,,,,,,,,,,,,,,,,,,,,,,,,,,,,,,,,,,,,,,,,,,,,,,,,,,,
0,39,39,4,1,,5e80b4893b435a0009ea44e6,62bbfb1ff9b1e90a41468300,2022-06-29_09h20.30.484,Colour_Asymmetry_Pilot,2022.1.3,Win32,60.06006006,62bbe60bf3d75ef465d3e404,,,,,,,,,,,,,,,,,,,,,,,,,,,,,,,,,,,,,,,,,,,,,,,,,,,,,,,,,,,,,,,,,,,,,,,,,,,,,,,,,,,,,,,,,,,,,,,,,,,,,,,,,,,,,,,,,,,,,,,,,,,,,,,,,,,,,,,,,,,,,,,,,,,,,,,,,,,,,,
0,40,40,92,1,,5e80b4893b435a0009ea44e6,62bbfb1ff9b1e90a41468300,2022-06-29_09h20.30.484,Colour_Asymmetry_Pilot,2022.1.3,Win32,60.06006006,62bbe60bf3d75ef465d3e404,,,,,,,,,,,,,,,,,,,,,,,,,,,,,,,,,,,,,,,,,,,,,,,,,,,,,,,,,,,,,,,,,,,,,,,,,,,,,,,,,,,,,,,,,,,,,,,,,,,,,,,,,,,,,,,,,,,,,,,,,,,,,,,,,,,,,,,,,,,,,,,,,,,,,,,,,,,,,,
0,41,41,69,1,,5e80b4893b435a0009ea44e6,62bbfb1ff9b1e90a41468300,2022-06-29_09h20.30.484,Colour_Asymmetry_Pilot,2022.1.3,Win32,60.06006006,62bbe60bf3d75ef465d3e404,,,,,,,,,,,,,,,,,,,,,,,,,,,,,,,,,,,,,,,,,,,,,,,,,,,,,,,,,,,,,,,,,,,,,,,,,,,,,,,,,,,,,,,,,,,,,,,,,,,,,,,,,,,,,,,,,,,,,,,,,,,,,,,,,,,,,,,,,,,,,,,,,,,,,,,,,,,,,,
0,42,42,84,1,,5e80b4893b435a0009ea44e6,62bbfb1ff9b1e90a41468300,2022-06-29_09h20.30.484,Colour_Asymmetry_Pilot,2022.1.3,Win32,60.06006006,62bbe60bf3d75ef465d3e404,,,,,,,,,,,,,,,,,,,,,,,,,,,,,,,,,,,,,,,,,,,,,,,,,,,,,,,,,,,,,,,,,,,,,,,,,,,,,,,,,,,,,,,,,,,,,,,,,,,,,,,,,,,,,,,,,,,,,,,,,,,,,,,,,,,,,,,,,,,,,,,,,,,,,,,,,,,,,,
0,43,43,91,1,,5e80b4893b435a0009ea44e6,62bbfb1ff9b1e90a41468300,2022-06-29_09h20.30.484,Colour_Asymmetry_Pilot,2022.1.3,Win32,60.06006006,62bbe60bf3d75ef465d3e404,,,,,,,,,,,,,,,,,,,,,,,,,,,,,,,,,,,,,,,,,,,,,,,,,,,,,,,,,,,,,,,,,,,,,,,,,,,,,,,,,,,,,,,,,,,,,,,,,,,,,,,,,,,,,,,,,,,,,,,,,,,,,,,,,,,,,,,,,,,,,,,,,,,,,,,,,,,,,,
0,44,44,87,1,,5e80b4893b435a0009ea44e6,62bbfb1ff9b1e90a41468300,2022-06-29_09h20.30.484,Colour_Asymmetry_Pilot,2022.1.3,Win32,60.06006006,62bbe60bf3d75ef465d3e404,,,,,,,,,,,,,,,,,,,,,,,,,,,,,,,,,,,,,,,,,,,,,,,,,,,,,,,,,,,,,,,,,,,,,,,,,,,,,,,,,,,,,,,,,,,,,,,,,,,,,,,,,,,,,,,,,,,,,,,,,,,,,,,,,,,,,,,,,,,,,,,,,,,,,,,,,,,,,,
0,45,45,15,1,,5e80b4893b435a0009ea44e6,62bbfb1ff9b1e90a41468300,2022-06-29_09h20.30.484,Colour_Asymmetry_Pilot,2022.1.3,Win32,60.06006006,62bbe60bf3d75ef465d3e404,,,,,,,,,,,,,,,,,,,,,,,,,,,,,,,,,,,,,,,,,,,,,,,,,,,,,,,,,,,,,,,,,,,,,,,,,,,,,,,,,,,,,,,,,,,,,,,,,,,,,,,,,,,,,,,,,,,,,,,,,,,,,,,,,,,,,,,,,,,,,,,,,,,,,,,,,,,,,,
0,46,46,63,1,,5e80b4893b435a0009ea44e6,62bbfb1ff9b1e90a41468300,2022-06-29_09h20.30.484,Colour_Asymmetry_Pilot,2022.1.3,Win32,60.06006006,62bbe60bf3d75ef465d3e404,,,,,,,,,,,,,,,,,,,,,,,,,,,,,,,,,,,,,,,,,,,,,,,,,,,,,,,,,,,,,,,,,,,,,,,,,,,,,,,,,,,,,,,,,,,,,,,,,,,,,,,,,,,,,,,,,,,,,,,,,,,,,,,,,,,,,,,,,,,,,,,,,,,,,,,,,,,,,,
0,47,47,33,1,,5e80b4893b435a0009ea44e6,62bbfb1ff9b1e90a41468300,2022-06-29_09h20.30.484,Colour_Asymmetry_Pilot,2022.1.3,Win32,60.06006006,62bbe60bf3d75ef465d3e404,,,,,,,,,,,,,,,,,,,,,,,,,,,,,,,,,,,,,,,,,,,,,,,,,,,,,,,,,,,,,,,,,,,,,,,,,,,,,,,,,,,,,,,,,,,,,,,,,,,,,,,,,,,,,,,,,,,,,,,,,,,,,,,,,,,,,,,,,,,,,,,,,,,,,,,,,,,,,,
0,48,48,67,1,,5e80b4893b435a0009ea44e6,62bbfb1ff9b1e90a41468300,2022-06-29_09h20.30.484,Colour_Asymmetry_Pilot,2022.1.3,Win32,60.06006006,62bbe60bf3d75ef465d3e404,,,,,,,,,,,,,,,,,,,,,,,,,,,,,,,,,,,,,,,,,,,,,,,,,,,,,,,,,,,,,,,,,,,,,,,,,,,,,,,,,,,,,,,,,,,,,,,,,,,,,,,,,,,,,,,,,,,,,,,,,,,,,,,,,,,,,,,,,,,,,,,,,,,,,,,,,,,,,,
0,49,49,0,1,,5e80b4893b435a0009ea44e6,62bbfb1ff9b1e90a41468300,2022-06-29_09h20.30.484,Colour_Asymmetry_Pilot,2022.1.3,Win32,60.06006006,62bbe60bf3d75ef465d3e404,,,,,,,,,,,,,,,,,,,,,,,,,,,,,,,,,,,,,,,,,,,,,,,,,,,,,,,,,,,,,,,,,,,,,,,,,,,,,,,,,,,,,,,,,,,,,,,,,,,,,,,,,,,,,,,,,,,,,,,,,,,,,,,,,,,,,,,,,,,,,,,,,,,,,,,,,,,,,,
0,50,50,59,1,,5e80b4893b435a0009ea44e6,62bbfb1ff9b1e90a41468300,2022-06-29_09h20.30.484,Colour_Asymmetry_Pilot,2022.1.3,Win32,60.06006006,62bbe60bf3d75ef465d3e404,,,,,,,,,,,,,,,,,,,,,,,,,,,,,,,,,,,,,,,,,,,,,,,,,,,,,,,,,,,,,,,,,,,,,,,,,,,,,,,,,,,,,,,,,,,,,,,,,,,,,,,,,,,,,,,,,,,,,,,,,,,,,,,,,,,,,,,,,,,,,,,,,,,,,,,,,,,,,,
0,51,51,3,1,,5e80b4893b435a0009ea44e6,62bbfb1ff9b1e90a41468300,2022-06-29_09h20.30.484,Colour_Asymmetry_Pilot,2022.1.3,Win32,60.06006006,62bbe60bf3d75ef465d3e404,,,,,,,,,,,,,,,,,,,,,,,,,,,,,,,,,,,,,,,,,,,,,,,,,,,,,,,,,,,,,,,,,,,,,,,,,,,,,,,,,,,,,,,,,,,,,,,,,,,,,,,,,,,,,,,,,,,,,,,,,,,,,,,,,,,,,,,,,,,,,,,,,,,,,,,,,,,,,,
0,52,52,27,1,,5e80b4893b435a0009ea44e6,62bbfb1ff9b1e90a41468300,2022-06-29_09h20.30.484,Colour_Asymmetry_Pilot,2022.1.3,Win32,60.06006006,62bbe60bf3d75ef465d3e404,,,,,,,,,,,,,,,,,,,,,,,,,,,,,,,,,,,,,,,,,,,,,,,,,,,,,,,,,,,,,,,,,,,,,,,,,,,,,,,,,,,,,,,,,,,,,,,,,,,,,,,,,,,,,,,,,,,,,,,,,,,,,,,,,,,,,,,,,,,,,,,,,,,,,,,,,,,,,,
0,53,53,36,1,,5e80b4893b435a0009ea44e6,62bbfb1ff9b1e90a41468300,2022-06-29_09h20.30.484,Colour_Asymmetry_Pilot,2022.1.3,Win32,60.06006006,62bbe60bf3d75ef465d3e404,,,,,,,,,,,,,,,,,,,,,,,,,,,,,,,,,,,,,,,,,,,,,,,,,,,,,,,,,,,,,,,,,,,,,,,,,,,,,,,,,,,,,,,,,,,,,,,,,,,,,,,,,,,,,,,,,,,,,,,,,,,,,,,,,,,,,,,,,,,,,,,,,,,,,,,,,,,,,,
0,54,54,20,1,,5e80b4893b435a0009ea44e6,62bbfb1ff9b1e90a41468300,2022-06-29_09h20.30.484,Colour_Asymmetry_Pilot,2022.1.3,Win32,60.06006006,62bbe60bf3d75ef465d3e404,,,,,,,,,,,,,,,,,,,,,,,,,,,,,,,,,,,,,,,,,,,,,,,,,,,,,,,,,,,,,,,,,,,,,,,,,,,,,,,,,,,,,,,,,,,,,,,,,,,,,,,,,,,,,,,,,,,,,,,,,,,,,,,,,,,,,,,,,,,,,,,,,,,,,,,,,,,,,,
0,55,55,75,1,,5e80b4893b435a0009ea44e6,62bbfb1ff9b1e90a41468300,2022-06-29_09h20.30.484,Colour_Asymmetry_Pilot,2022.1.3,Win32,60.06006006,62bbe60bf3d75ef465d3e404,,,,,,,,,,,,,,,,,,,,,,,,,,,,,,,,,,,,,,,,,,,,,,,,,,,,,,,,,,,,,,,,,,,,,,,,,,,,,,,,,,,,,,,,,,,,,,,,,,,,,,,,,,,,,,,,,,,,,,,,,,,,,,,,,,,,,,,,,,,,,,,,,,,,,,,,,,,,,,
0,56,56,82,1,,5e80b4893b435a0009ea44e6,62bbfb1ff9b1e90a41468300,2022-06-29_09h20.30.484,Colour_Asymmetry_Pilot,2022.1.3,Win32,60.06006006,62bbe60bf3d75ef465d3e404,,,,,,,,,,,,,,,,,,,,,,,,,,,,,,,,,,,,,,,,,,,,,,,,,,,,,,,,,,,,,,,,,,,,,,,,,,,,,,,,,,,,,,,,,,,,,,,,,,,,,,,,,,,,,,,,,,,,,,,,,,,,,,,,,,,,,,,,,,,,,,,,,,,,,,,,,,,,,,
0,57,57,81,1,,5e80b4893b435a0009ea44e6,62bbfb1ff9b1e90a41468300,2022-06-29_09h20.30.484,Colour_Asymmetry_Pilot,2022.1.3,Win32,60.06006006,62bbe60bf3d75ef465d3e404,,,,,,,,,,,,,,,,,,,,,,,,,,,,,,,,,,,,,,,,,,,,,,,,,,,,,,,,,,,,,,,,,,,,,,,,,,,,,,,,,,,,,,,,,,,,,,,,,,,,,,,,,,,,,,,,,,,,,,,,,,,,,,,,,,,,,,,,,,,,,,,,,,,,,,,,,,,,,,
0,58,58,53,1,,5e80b4893b435a0009ea44e6,62bbfb1ff9b1e90a41468300,2022-06-29_09h20.30.484,Colour_Asymmetry_Pilot,2022.1.3,Win32,60.06006006,62bbe60bf3d75ef465d3e404,,,,,,,,,,,,,,,,,,,,,,,,,,,,,,,,,,,,,,,,,,,,,,,,,,,,,,,,,,,,,,,,,,,,,,,,,,,,,,,,,,,,,,,,,,,,,,,,,,,,,,,,,,,,,,,,,,,,,,,,,,,,,,,,,,,,,,,,,,,,,,,,,,,,,,,,,,,,,,
0,59,59,44,1,,5e80b4893b435a0009ea44e6,62bbfb1ff9b1e90a41468300,2022-06-29_09h20.30.484,Colour_Asymmetry_Pilot,2022.1.3,Win32,60.06006006,62bbe60bf3d75ef465d3e404,,,,,,,,,,,,,,,,,,,,,,,,,,,,,,,,,,,,,,,,,,,,,,,,,,,,,,,,,,,,,,,,,,,,,,,,,,,,,,,,,,,,,,,,,,,,,,,,,,,,,,,,,,,,,,,,,,,,,,,,,,,,,,,,,,,,,,,,,,,,,,,,,,,,,,,,,,,,,,
0,60,60,14,1,,5e80b4893b435a0009ea44e6,62bbfb1ff9b1e90a41468300,2022-06-29_09h20.30.484,Colour_Asymmetry_Pilot,2022.1.3,Win32,60.06006006,62bbe60bf3d75ef465d3e404,,,,,,,,,,,,,,,,,,,,,,,,,,,,,,,,,,,,,,,,,,,,,,,,,,,,,,,,,,,,,,,,,,,,,,,,,,,,,,,,,,,,,,,,,,,,,,,,,,,,,,,,,,,,,,,,,,,,,,,,,,,,,,,,,,,,,,,,,,,,,,,,,,,,,,,,,,,,,,
0,61,61,32,1,,5e80b4893b435a0009ea44e6,62bbfb1ff9b1e90a41468300,2022-06-29_09h20.30.484,Colour_Asymmetry_Pilot,2022.1.3,Win32,60.06006006,62bbe60bf3d75ef465d3e404,,,,,,,,,,,,,,,,,,,,,,,,,,,,,,,,,,,,,,,,,,,,,,,,,,,,,,,,,,,,,,,,,,,,,,,,,,,,,,,,,,,,,,,,,,,,,,,,,,,,,,,,,,,,,,,,,,,,,,,,,,,,,,,,,,,,,,,,,,,,,,,,,,,,,,,,,,,,,,
0,62,62,6,1,,5e80b4893b435a0009ea44e6,62bbfb1ff9b1e90a41468300,2022-06-29_09h20.30.484,Colour_Asymmetry_Pilot,2022.1.3,Win32,60.06006006,62bbe60bf3d75ef465d3e404,,,,,,,,,,,,,,,,,,,,,,,,,,,,,,,,,,,,,,,,,,,,,,,,,,,,,,,,,,,,,,,,,,,,,,,,,,,,,,,,,,,,,,,,,,,,,,,,,,,,,,,,,,,,,,,,,,,,,,,,,,,,,,,,,,,,,,,,,,,,,,,,,,,,,,,,,,,,,,
0,63,63,80,1,,5e80b4893b435a0009ea44e6,62bbfb1ff9b1e90a41468300,2022-06-29_09h20.30.484,Colour_Asymmetry_Pilot,2022.1.3,Win32,60.06006006,62bbe60bf3d75ef465d3e404,,,,,,,,,,,,,,,,,,,,,,,,,,,,,,,,,,,,,,,,,,,,,,,,,,,,,,,,,,,,,,,,,,,,,,,,,,,,,,,,,,,,,,,,,,,,,,,,,,,,,,,,,,,,,,,,,,,,,,,,,,,,,,,,,,,,,,,,,,,,,,,,,,,,,,,,,,,,,,
0,64,64,13,1,,5e80b4893b435a0009ea44e6,62bbfb1ff9b1e90a41468300,2022-06-29_09h20.30.484,Colour_Asymmetry_Pilot,2022.1.3,Win32,60.06006006,62bbe60bf3d75ef465d3e404,,,,,,,,,,,,,,,,,,,,,,,,,,,,,,,,,,,,,,,,,,,,,,,,,,,,,,,,,,,,,,,,,,,,,,,,,,,,,,,,,,,,,,,,,,,,,,,,,,,,,,,,,,,,,,,,,,,,,,,,,,,,,,,,,,,,,,,,,,,,,,,,,,,,,,,,,,,,,,
0,65,65,71,1,,5e80b4893b435a0009ea44e6,62bbfb1ff9b1e90a41468300,2022-06-29_09h20.30.484,Colour_Asymmetry_Pilot,2022.1.3,Win32,60.06006006,62bbe60bf3d75ef465d3e404,,,,,,,,,,,,,,,,,,,,,,,,,,,,,,,,,,,,,,,,,,,,,,,,,,,,,,,,,,,,,,,,,,,,,,,,,,,,,,,,,,,,,,,,,,,,,,,,,,,,,,,,,,,,,,,,,,,,,,,,,,,,,,,,,,,,,,,,,,,,,,,,,,,,,,,,,,,,,,
0,66,66,48,1,,5e80b4893b435a0009ea44e6,62bbfb1ff9b1e90a41468300,2022-06-29_09h20.30.484,Colour_Asymmetry_Pilot,2022.1.3,Win32,60.06006006,62bbe60bf3d75ef465d3e404,,,,,,,,,,,,,,,,,,,,,,,,,,,,,,,,,,,,,,,,,,,,,,,,,,,,,,,,,,,,,,,,,,,,,,,,,,,,,,,,,,,,,,,,,,,,,,,,,,,,,,,,,,,,,,,,,,,,,,,,,,,,,,,,,,,,,,,,,,,,,,,,,,,,,,,,,,,,,,
0,67,67,26,1,,5e80b4893b435a0009ea44e6,62bbfb1ff9b1e90a41468300,2022-06-29_09h20.30.484,Colour_Asymmetry_Pilot,2022.1.3,Win32,60.06006006,62bbe60bf3d75ef465d3e404,,,,,,,,,,,,,,,,,,,,,,,,,,,,,,,,,,,,,,,,,,,,,,,,,,,,,,,,,,,,,,,,,,,,,,,,,,,,,,,,,,,,,,,,,,,,,,,,,,,,,,,,,,,,,,,,,,,,,,,,,,,,,,,,,,,,,,,,,,,,,,,,,,,,,,,,,,,,,,
0,68,68,30,1,,5e80b4893b435a0009ea44e6,62bbfb1ff9b1e90a41468300,2022-06-29_09h20.30.484,Colour_Asymmetry_Pilot,2022.1.3,Win32,60.06006006,62bbe60bf3d75ef465d3e404,,,,,,,,,,,,,,,,,,,,,,,,,,,,,,,,,,,,,,,,,,,,,,,,,,,,,,,,,,,,,,,,,,,,,,,,,,,,,,,,,,,,,,,,,,,,,,,,,,,,,,,,,,,,,,,,,,,,,,,,,,,,,,,,,,,,,,,,,,,,,,,,,,,,,,,,,,,,,,
0,69,69,42,1,,5e80b4893b435a0009ea44e6,62bbfb1ff9b1e90a41468300,2022-06-29_09h20.30.484,Colour_Asymmetry_Pilot,2022.1.3,Win32,60.06006006,62bbe60bf3d75ef465d3e404,,,,,,,,,,,,,,,,,,,,,,,,,,,,,,,,,,,,,,,,,,,,,,,,,,,,,,,,,,,,,,,,,,,,,,,,,,,,,,,,,,,,,,,,,,,,,,,,,,,,,,,,,,,,,,,,,,,,,,,,,,,,,,,,,,,,,,,,,,,,,,,,,,,,,,,,,,,,,,
0,70,70,55,1,,5e80b4893b435a0009ea44e6,62bbfb1ff9b1e90a41468300,2022-06-29_09h20.30.484,Colour_Asymmetry_Pilot,2022.1.3,Win32,60.06006006,62bbe60bf3d75ef465d3e404,,,,,,,,,,,,,,,,,,,,,,,,,,,,,,,,,,,,,,,,,,,,,,,,,,,,,,,,,,,,,,,,,,,,,,,,,,,,,,,,,,,,,,,,,,,,,,,,,,,,,,,,,,,,,,,,,,,,,,,,,,,,,,,,,,,,,,,,,,,,,,,,,,,,,,,,,,,,,,
0,71,71,76,1,,5e80b4893b435a0009ea44e6,62bbfb1ff9b1e90a41468300,2022-06-29_09h20.30.484,Colour_Asymmetry_Pilot,2022.1.3,Win32,60.06006006,62bbe60bf3d75ef465d3e404,,,,,,,,,,,,,,,,,,,,,,,,,,,,,,,,,,,,,,,,,,,,,,,,,,,,,,,,,,,,,,,,,,,,,,,,,,,,,,,,,,,,,,,,,,,,,,,,,,,,,,,,,,,,,,,,,,,,,,,,,,,,,,,,,,,,,,,,,,,,,,,,,,,,,,,,,,,,,,
0,72,72,51,1,,5e80b4893b435a0009ea44e6,62bbfb1ff9b1e90a41468300,2022-06-29_09h20.30.484,Colour_Asymmetry_Pilot,2022.1.3,Win32,60.06006006,62bbe60bf3d75ef465d3e404,,,,,,,,,,,,,,,,,,,,,,,,,,,,,,,,,,,,,,,,,,,,,,,,,,,,,,,,,,,,,,,,,,,,,,,,,,,,,,,,,,,,,,,,,,,,,,,,,,,,,,,,,,,,,,,,,,,,,,,,,,,,,,,,,,,,,,,,,,,,,,,,,,,,,,,,,,,,,,
0,73,73,24,1,,5e80b4893b435a0009ea44e6,62bbfb1ff9b1e90a41468300,2022-06-29_09h20.30.484,Colour_Asymmetry_Pilot,2022.1.3,Win32,60.06006006,62bbe60bf3d75ef465d3e404,,,,,,,,,,,,,,,,,,,,,,,,,,,,,,,,,,,,,,,,,,,,,,,,,,,,,,,,,,,,,,,,,,,,,,,,,,,,,,,,,,,,,,,,,,,,,,,,,,,,,,,,,,,,,,,,,,,,,,,,,,,,,,,,,,,,,,,,,,,,,,,,,,,,,,,,,,,,,,
0,74,74,70,1,,5e80b4893b435a0009ea44e6,62bbfb1ff9b1e90a41468300,2022-06-29_09h20.30.484,Colour_Asymmetry_Pilot,2022.1.3,Win32,60.06006006,62bbe60bf3d75ef465d3e404,,,,,,,,,,,,,,,,,,,,,,,,,,,,,,,,,,,,,,,,,,,,,,,,,,,,,,,,,,,,,,,,,,,,,,,,,,,,,,,,,,,,,,,,,,,,,,,,,,,,,,,,,,,,,,,,,,,,,,,,,,,,,,,,,,,,,,,,,,,,,,,,,,,,,,,,,,,,,,
0,75,75,1,1,,5e80b4893b435a0009ea44e6,62bbfb1ff9b1e90a41468300,2022-06-29_09h20.30.484,Colour_Asymmetry_Pilot,2022.1.3,Win32,60.06006006,62bbe60bf3d75ef465d3e404,,,,,,,,,,,,,,,,,,,,,,,,,,,,,,,,,,,,,,,,,,,,,,,,,,,,,,,,,,,,,,,,,,,,,,,,,,,,,,,,,,,,,,,,,,,,,,,,,,,,,,,,,,,,,,,,,,,,,,,,,,,,,,,,,,,,,,,,,,,,,,,,,,,,,,,,,,,,,,
0,76,76,65,1,,5e80b4893b435a0009ea44e6,62bbfb1ff9b1e90a41468300,2022-06-29_09h20.30.484,Colour_Asymmetry_Pilot,2022.1.3,Win32,60.06006006,62bbe60bf3d75ef465d3e404,,,,,,,,,,,,,,,,,,,,,,,,,,,,,,,,,,,,,,,,,,,,,,,,,,,,,,,,,,,,,,,,,,,,,,,,,,,,,,,,,,,,,,,,,,,,,,,,,,,,,,,,,,,,,,,,,,,,,,,,,,,,,,,,,,,,,,,,,,,,,,,,,,,,,,,,,,,,,,
0,77,77,19,1,,5e80b4893b435a0009ea44e6,62bbfb1ff9b1e90a41468300,2022-06-29_09h20.30.484,Colour_Asymmetry_Pilot,2022.1.3,Win32,60.06006006,62bbe60bf3d75ef465d3e404,,,,,,,,,,,,,,,,,,,,,,,,,,,,,,,,,,,,,,,,,,,,,,,,,,,,,,,,,,,,,,,,,,,,,,,,,,,,,,,,,,,,,,,,,,,,,,,,,,,,,,,,,,,,,,,,,,,,,,,,,,,,,,,,,,,,,,,,,,,,,,,,,,,,,,,,,,,,,,
0,78,78,86,1,,5e80b4893b435a0009ea44e6,62bbfb1ff9b1e90a41468300,2022-06-29_09h20.30.484,Colour_Asymmetry_Pilot,2022.1.3,Win32,60.06006006,62bbe60bf3d75ef465d3e404,,,,,,,,,,,,,,,,,,,,,,,,,,,,,,,,,,,,,,,,,,,,,,,,,,,,,,,,,,,,,,,,,,,,,,,,,,,,,,,,,,,,,,,,,,,,,,,,,,,,,,,,,,,,,,,,,,,,,,,,,,,,,,,,,,,,,,,,,,,,,,,,,,,,,,,,,,,,,,
0,79,79,11,1,,5e80b4893b435a0009ea44e6,62bbfb1ff9b1e90a41468300,2022-06-29_09h20.30.484,Colour_Asymmetry_Pilot,2022.1.3,Win32,60.06006006,62bbe60bf3d75ef465d3e404,,,,,,,,,,,,,,,,,,,,,,,,,,,,,,,,,,,,,,,,,,,,,,,,,,,,,,,,,,,,,,,,,,,,,,,,,,,,,,,,,,,,,,,,,,,,,,,,,,,,,,,,,,,,,,,,,,,,,,,,,,,,,,,,,,,,,,,,,,,,,,,,,,,,,,,,,,,,,,
0,80,80,21,1,,5e80b4893b435a0009ea44e6,62bbfb1ff9b1e90a41468300,2022-06-29_09h20.30.484,Colour_Asymmetry_Pilot,2022.1.3,Win32,60.06006006,62bbe60bf3d75ef465d3e404,,,,,,,,,,,,,,,,,,,,,,,,,,,,,,,,,,,,,,,,,,,,,,,,,,,,,,,,,,,,,,,,,,,,,,,,,,,,,,,,,,,,,,,,,,,,,,,,,,,,,,,,,,,,,,,,,,,,,,,,,,,,,,,,,,,,,,,,,,,,,,,,,,,,,,,,,,,,,,
0,81,81,57,1,,5e80b4893b435a0009ea44e6,62bbfb1ff9b1e90a41468300,2022-06-29_09h20.30.484,Colour_Asymmetry_Pilot,2022.1.3,Win32,60.06006006,62bbe60bf3d75ef465d3e404,,,,,,,,,,,,,,,,,,,,,,,,,,,,,,,,,,,,,,,,,,,,,,,,,,,,,,,,,,,,,,,,,,,,,,,,,,,,,,,,,,,,,,,,,,,,,,,,,,,,,,,,,,,,,,,,,,,,,,,,,,,,,,,,,,,,,,,,,,,,,,,,,,,,,,,,,,,,,,
0,82,82,79,1,,5e80b4893b435a0009ea44e6,62bbfb1ff9b1e90a41468300,2022-06-29_09h20.30.484,Colour_Asymmetry_Pilot,2022.1.3,Win32,60.06006006,62bbe60bf3d75ef465d3e404,,,,,,,,,,,,,,,,,,,,,,,,,,,,,,,,,,,,,,,,,,,,,,,,,,,,,,,,,,,,,,,,,,,,,,,,,,,,,,,,,,,,,,,,,,,,,,,,,,,,,,,,,,,,,,,,,,,,,,,,,,,,,,,,,,,,,,,,,,,,,,,,,,,,,,,,,,,,,,
0,83,83,50,1,,5e80b4893b435a0009ea44e6,62bbfb1ff9b1e90a41468300,2022-06-29_09h20.30.484,Colour_Asymmetry_Pilot,2022.1.3,Win32,60.06006006,62bbe60bf3d75ef465d3e404,,,,,,,,,,,,,,,,,,,,,,,,,,,,,,,,,,,,,,,,,,,,,,,,,,,,,,,,,,,,,,,,,,,,,,,,,,,,,,,,,,,,,,,,,,,,,,,,,,,,,,,,,,,,,,,,,,,,,,,,,,,,,,,,,,,,,,,,,,,,,,,,,,,,,,,,,,,,,,
0,84,84,29,1,,5e80b4893b435a0009ea44e6,62bbfb1ff9b1e90a41468300,2022-06-29_09h20.30.484,Colour_Asymmetry_Pilot,2022.1.3,Win32,60.06006006,62bbe60bf3d75ef465d3e404,,,,,,,,,,,,,,,,,,,,,,,,,,,,,,,,,,,,,,,,,,,,,,,,,,,,,,,,,,,,,,,,,,,,,,,,,,,,,,,,,,,,,,,,,,,,,,,,,,,,,,,,,,,,,,,,,,,,,,,,,,,,,,,,,,,,,,,,,,,,,,,,,,,,,,,,,,,,,,
0,85,85,37,1,,5e80b4893b435a0009ea44e6,62bbfb1ff9b1e90a41468300,2022-06-29_09h20.30.484,Colour_Asymmetry_Pilot,2022.1.3,Win32,60.06006006,62bbe60bf3d75ef465d3e404,,,,,,,,,,,,,,,,,,,,,,,,,,,,,,,,,,,,,,,,,,,,,,,,,,,,,,,,,,,,,,,,,,,,,,,,,,,,,,,,,,,,,,,,,,,,,,,,,,,,,,,,,,,,,,,,,,,,,,,,,,,,,,,,,,,,,,,,,,,,,,,,,,,,,,,,,,,,,,
0,86,86,39,1,,5e80b4893b435a0009ea44e6,62bbfb1ff9b1e90a41468300,2022-06-29_09h20.30.484,Colour_Asymmetry_Pilot,2022.1.3,Win32,60.06006006,62bbe60bf3d75ef465d3e404,,,,,,,,,,,,,,,,,,,,,,,,,,,,,,,,,,,,,,,,,,,,,,,,,,,,,,,,,,,,,,,,,,,,,,,,,,,,,,,,,,,,,,,,,,,,,,,,,,,,,,,,,,,,,,,,,,,,,,,,,,,,,,,,,,,,,,,,,,,,,,,,,,,,,,,,,,,,,,
0,87,87,40,1,,5e80b4893b435a0009ea44e6,62bbfb1ff9b1e90a41468300,2022-06-29_09h20.30.484,Colour_Asymmetry_Pilot,2022.1.3,Win32,60.06006006,62bbe60bf3d75ef465d3e404,,,,,,,,,,,,,,,,,,,,,,,,,,,,,,,,,,,,,,,,,,,,,,,,,,,,,,,,,,,,,,,,,,,,,,,,,,,,,,,,,,,,,,,,,,,,,,,,,,,,,,,,,,,,,,,,,,,,,,,,,,,,,,,,,,,,,,,,,,,,,,,,,,,,,,,,,,,,,,
0,88,88,5,1,,5e80b4893b435a0009ea44e6,62bbfb1ff9b1e90a41468300,2022-06-29_09h20.30.484,Colour_Asymmetry_Pilot,2022.1.3,Win32,60.06006006,62bbe60bf3d75ef465d3e404,,,,,,,,,,,,,,,,,,,,,,,,,,,,,,,,,,,,,,,,,,,,,,,,,,,,,,,,,,,,,,,,,,,,,,,,,,,,,,,,,,,,,,,,,,,,,,,,,,,,,,,,,,,,,,,,,,,,,,,,,,,,,,,,,,,,,,,,,,,,,,,,,,,,,,,,,,,,,,
0,89,89,89,1,,5e80b4893b435a0009ea44e6,62bbfb1ff9b1e90a41468300,2022-06-29_09h20.30.484,Colour_Asymmetry_Pilot,2022.1.3,Win32,60.06006006,62bbe60bf3d75ef465d3e404,,,,,,,,,,,,,,,,,,,,,,,,,,,,,,,,,,,,,,,,,,,,,,,,,,,,,,,,,,,,,,,,,,,,,,,,,,,,,,,,,,,,,,,,,,,,,,,,,,,,,,,,,,,,,,,,,,,,,,,,,,,,,,,,,,,,,,,,,,,,,,,,,,,,,,,,,,,,,,
0,90,90,38,1,,5e80b4893b435a0009ea44e6,62bbfb1ff9b1e90a41468300,2022-06-29_09h20.30.484,Colour_Asymmetry_Pilot,2022.1.3,Win32,60.06006006,62bbe60bf3d75ef465d3e404,,,,,,,,,,,,,,,,,,,,,,,,,,,,,,,,,,,,,,,,,,,,,,,,,,,,,,,,,,,,,,,,,,,,,,,,,,,,,,,,,,,,,,,,,,,,,,,,,,,,,,,,,,,,,,,,,,,,,,,,,,,,,,,,,,,,,,,,,,,,,,,,,,,,,,,,,,,,,,
0,91,91,49,1,,5e80b4893b435a0009ea44e6,62bbfb1ff9b1e90a41468300,2022-06-29_09h20.30.484,Colour_Asymmetry_Pilot,2022.1.3,Win32,60.06006006,62bbe60bf3d75ef465d3e404,,,,,,,,,,,,,,,,,,,,,,,,,,,,,,,,,,,,,,,,,,,,,,,,,,,,,,,,,,,,,,,,,,,,,,,,,,,,,,,,,,,,,,,,,,,,,,,,,,,,,,,,,,,,,,,,,,,,,,,,,,,,,,,,,,,,,,,,,,,,,,,,,,,,,,,,,,,,,,
0,92,92,72,1,,5e80b4893b435a0009ea44e6,62bbfb1ff9b1e90a41468300,2022-06-29_09h20.30.484,Colour_Asymmetry_Pilot,2022.1.3,Win32,60.06006006,62bbe60bf3d75ef465d3e404,,,,,,,,,,,,,,,,,,,,,,,,,,,,,,,,,,,,,,,,,,,,,,,,,,,,,,,,,,,,,,,,,,,,,,,,,,,,,,,,,,,,,,,,,,,,,,,,,,,,,,,,,,,,,,,,,,,,,,,,,,,,,,,,,,,,,,,,,,,,,,,,,,,,,,,,,,,,,,
,,,,,,5e80b4893b435a0009ea44e6,62bbfb1ff9b1e90a41468300,2022-06-29_09h20.30.484,Colour_Asymmetry_Pilot,2022.1.3,Win32,60.06006006,62bbe60bf3d75ef465d3e404,0,0,0,23,1,fourthree,,,,,,,,,,,,,,,,,,,,,,,,,,,,,,,,,,,,,,,,,,,,,,,,,,,,,,,,,,,,,,,,,,,,,,,,,,,,,,,,,,,,,,,,,,,,,,,,,,,,,,,,,,,,,,,,,,,,,,,,,,,,,,,,,,,,,,,,,,,,,,,,,,,,,,,,
,,,,,,5e80b4893b435a0009ea44e6,62bbfb1ff9b1e90a41468300,2022-06-29_09h20.30.484,Colour_Asymmetry_Pilot,2022.1.3,Win32,60.06006006,62bbe60bf3d75ef465d3e404,0,1,1,122,1,twoone,,,,,,,,,,,,,,,,,,,,,,,,,,,,,,,,,,,,,,,,,,,,,,,,,,,,,,,,,,,,,,,,,,,,,,,,,,,,,,,,,,,,,,,,,,,,,,,,,,,,,,,,,,,,,,,,,,,,,,,,,,,,,,,,,,,,,,,,,,,,,,,,,,,,,,,,
,,,,,,5e80b4893b435a0009ea44e6,62bbfb1ff9b1e90a41468300,2022-06-29_09h20.30.484,Colour_Asymmetry_Pilot,2022.1.3,Win32,60.06006006,62bbe60bf3d75ef465d3e404,0,2,2,64,1,onetwo,,,,,,,,,,,,,,,,,,,,,,,,,,,,,,,,,,,,,,,,,,,,,,,,,,,,,,,,,,,,,,,,,,,,,,,,,,,,,,,,,,,,,,,,,,,,,,,,,,,,,,,,,,,,,,,,,,,,,,,,,,,,,,,,,,,,,,,,,,,,,,,,,,,,,,,,
,,,,,,5e80b4893b435a0009ea44e6,62bbfb1ff9b1e90a41468300,2022-06-29_09h20.30.484,Colour_Asymmetry_Pilot,2022.1.3,Win32,60.06006006,62bbe60bf3d75ef465d3e404,0,3,3,123,1,twofour,,,,,,,,,,,,,,,,,,,,,,,,,,,,,,,,,,,,,,,,,,,,,,,,,,,,,,,,,,,,,,,,,,,,,,,,,,,,,,,,,,,,,,,,,,,,,,,,,,,,,,,,,,,,,,,,,,,,,,,,,,,,,,,,,,,,,,,,,,,,,,,,,,,,,,,,
,,,,,,5e80b4893b435a0009ea44e6,62bbfb1ff9b1e90a41468300,2022-06-29_09h20.30.484,Colour_Asymmetry_Pilot,2022.1.3,Win32,60.06006006,62bbe60bf3d75ef465d3e404,0,4,4,45,1,threefour,,,,,,,,,,,,,,,,,,,,,,,,,,,,,,,,,,,,,,,,,,,,,,,,,,,,,,,,,,,,,,,,,,,,,,,,,,,,,,,,,,,,,,,,,,,,,,,,,,,,,,,,,,,,,,,,,,,,,,,,,,,,,,,,,,,,,,,,,,,,,,,,,,,,,,,,
,,,,,,5e80b4893b435a0009ea44e6,62bbfb1ff9b1e90a41468300,2022-06-29_09h20.30.484,Colour_Asymmetry_Pilot,2022.1.3,Win32,60.06006006,62bbe60bf3d75ef465d3e404,0,5,5,106,1,twoone,,,,,,,,,,,,,,,,,,,,,,,,,,,,,,,,,,,,,,,,,,,,,,,,,,,,,,,,,,,,,,,,,,,,,,,,,,,,,,,,,,,,,,,,,,,,,,,,,,,,,,,,,,,,,,,,,,,,,,,,,,,,,,,,,,,,,,,,,,,,,,,,,,,,,,,,
,,,,,,5e80b4893b435a0009ea44e6,62bbfb1ff9b1e90a41468300,2022-06-29_09h20.30.484,Colour_Asymmetry_Pilot,2022.1.3,Win32,60.06006006,62bbe60bf3d75ef465d3e404,0,6,6,85,1,threefour,,,,,,,,,,,,,,,,,,,,,,,,,,,,,,,,,,,,,,,,,,,,,,,,,,,,,,,,,,,,,,,,,,,,,,,,,,,,,,,,,,,,,,,,,,,,,,,,,,,,,,,,,,,,,,,,,,,,,,,,,,,,,,,,,,,,,,,,,,,,,,,,,,,,,,,,
,,,,,,5e80b4893b435a0009ea44e6,62bbfb1ff9b1e90a41468300,2022-06-29_09h20.30.484,Colour_Asymmetry_Pilot,2022.1.3,Win32,60.06006006,62bbe60bf3d75ef465d3e404,0,7,7,80,1,onetwo,,,,,,,,,,,,,,,,,,,,,,,,,,,,,,,,,,,,,,,,,,,,,,,,,,,,,,,,,,,,,,,,,,,,,,,,,,,,,,,,,,,,,,,,,,,,,,,,,,,,,,,,,,,,,,,,,,,,,,,,,,,,,,,,,,,,,,,,,,,,,,,,,,,,,,,,
,,,,,,5e80b4893b435a0009ea44e6,62bbfb1ff9b1e90a41468300,2022-06-29_09h20.30.484,Colour_Asymmetry_Pilot,2022.1.3,Win32,60.06006006,62bbe60bf3d75ef465d3e404,0,8,8,24,1,onetwo,,,,,,,,,,,,,,,,,,,,,,,,,,,,,,,,,,,,,,,,,,,,,,,,,,,,,,,,,,,,,,,,,,,,,,,,,,,,,,,,,,,,,,,,,,,,,,,,,,,,,,,,,,,,,,,,,,,,,,,,,,,,,,,,,,,,,,,,,,,,,,,,,,,,,,,,
,,,,,,5e80b4893b435a0009ea44e6,62bbfb1ff9b1e90a41468300,2022-06-29_09h20.30.484,Colour_Asymmetry_Pilot,2022.1.3,Win32,60.06006006,62bbe60bf3d75ef465d3e404,0,9,9,20,1,threeone,,,,,,,,,,,,,,,,,,,,,,,,,,,,,,,,,,,,,,,,,,,,,,,,,,,,,,,,,,,,,,,,,,,,,,,,,,,,,,,,,,,,,,,,,,,,,,,,,,,,,,,,,,,,,,,,,,,,,,,,,,,,,,,,,,,,,,,,,,,,,,,,,,,,,,,,
,,,,,,5e80b4893b435a0009ea44e6,62bbfb1ff9b1e90a41468300,2022-06-29_09h20.30.484,Colour_Asymmetry_Pilot,2022.1.3,Win32,60.06006006,62bbe60bf3d75ef465d3e404,0,10,10,59,1,twofour,,,,,,,,,,,,,,,,,,,,,,,,,,,,,,,,,,,,,,,,,,,,,,,,,,,,,,,,,,,,,,,,,,,,,,,,,,,,,,,,,,,,,,,,,,,,,,,,,,,,,,,,,,,,,,,,,,,,,,,,,,,,,,,,,,,,,,,,,,,,,,,,,,,,,,,,
,,,,,,5e80b4893b435a0009ea44e6,62bbfb1ff9b1e90a41468300,2022-06-29_09h20.30.484,Colour_Asymmetry_Pilot,2022.1.3,Win32,60.06006006,62bbe60bf3d75ef465d3e404,0,11,11,50,1,twoone,,,,,,,,,,,,,,,,,,,,,,,,,,,,,,,,,,,,,,,,,,,,,,,,,,,,,,,,,,,,,,,,,,,,,,,,,,,,,,,,,,,,,,,,,,,,,,,,,,,,,,,,,,,,,,,,,,,,,,,,,,,,,,,,,,,,,,,,,,,,,,,,,,,,,,,,
,,,,,,5e80b4893b435a0009ea44e6,62bbfb1ff9b1e90a41468300,2022-06-29_09h20.30.484,Colour_Asymmetry_Pilot,2022.1.3,Win32,60.06006006,62bbe60bf3d75ef465d3e404,0,12,12,3,1,twofour,,,,,,,,,,,,,,,,,,,,,,,,,,,,,,,,,,,,,,,,,,,,,,,,,,,,,,,,,,,,,,,,,,,,,,,,,,,,,,,,,,,,,,,,,,,,,,,,,,,,,,,,,,,,,,,,,,,,,,,,,,,,,,,,,,,,,,,,,,,,,,,,,,,,,,,,
,,,,,,5e80b4893b435a0009ea44e6,62bbfb1ff9b1e90a41468300,2022-06-29_09h20.30.484,Colour_Asymmetry_Pilot,2022.1.3,Win32,60.06006006,62bbe60bf3d75ef465d3e404,0,13,13,21,1,threefour,,,,,,,,,,,,,,,,,,,,,,,,,,,,,,,,,,,,,,,,,,,,,,,,,,,,,,,,,,,,,,,,,,,,,,,,,,,,,,,,,,,,,,,,,,,,,,,,,,,,,,,,,,,,,,,,,,,,,,,,,,,,,,,,,,,,,,,,,,,,,,,,,,,,,,,,
,,,,,,5e80b4893b435a0009ea44e6,62bbfb1ff9b1e90a41468300,2022-06-29_09h20.30.484,Colour_Asymmetry_Pilot,2022.1.3,Win32,60.06006006,62bbe60bf3d75ef465d3e404,0,14,14,25,1,onethree,,,,,,,,,,,,,,,,,,,,,,,,,,,,,,,,,,,,,,,,,,,,,,,,,,,,,,,,,,,,,,,,,,,,,,,,,,,,,,,,,,,,,,,,,,,,,,,,,,,,,,,,,,,,,,,,,,,,,,,,,,,,,,,,,,,,,,,,,,,,,,,,,,,,,,,,
,,,,,,5e80b4893b435a0009ea44e6,62bbfb1ff9b1e90a41468300,2022-06-29_09h20.30.484,Colour_Asymmetry_Pilot,2022.1.3,Win32,60.06006006,62bbe60bf3d75ef465d3e404,0,15,15,87,1,fourthree,,,,,,,,,,,,,,,,,,,,,,,,,,,,,,,,,,,,,,,,,,,,,,,,,,,,,,,,,,,,,,,,,,,,,,,,,,,,,,,,,,,,,,,,,,,,,,,,,,,,,,,,,,,,,,,,,,,,,,,,,,,,,,,,,,,,,,,,,,,,,,,,,,,,,,,,
,,,,,,5e80b4893b435a0009ea44e6,62bbfb1ff9b1e90a41468300,2022-06-29_09h20.30.484,Colour_Asymmetry_Pilot,2022.1.3,Win32,60.06006006,62bbe60bf3d75ef465d3e404,0,16,16,15,1,fourthree,,,,,,,,,,,,,,,,,,,,,,,,,,,,,,,,,,,,,,,,,,,,,,,,,,,,,,,,,,,,,,,,,,,,,,,,,,,,,,,,,,,,,,,,,,,,,,,,,,,,,,,,,,,,,,,,,,,,,,,,,,,,,,,,,,,,,,,,,,,,,,,,,,,,,,,,
,,,,,,5e80b4893b435a0009ea44e6,62bbfb1ff9b1e90a41468300,2022-06-29_09h20.30.484,Colour_Asymmetry_Pilot,2022.1.3,Win32,60.06006006,62bbe60bf3d75ef465d3e404,0,17,17,30,1,fourtwo,,,,,,,,,,,,,,,,,,,,,,,,,,,,,,,,,,,,,,,,,,,,,,,,,,,,,,,,,,,,,,,,,,,,,,,,,,,,,,,,,,,,,,,,,,,,,,,,,,,,,,,,,,,,,,,,,,,,,,,,,,,,,,,,,,,,,,,,,,,,,,,,,,,,,,,,
,,,,,,5e80b4893b435a0009ea44e6,62bbfb1ff9b1e90a41468300,2022-06-29_09h20.30.484,Colour_Asymmetry_Pilot,2022.1.3,Win32,60.06006006,62bbe60bf3d75ef465d3e404,0,18,18,33,1,onethree,,,,,,,,,,,,,,,,,,,,,,,,,,,,,,,,,,,,,,,,,,,,,,,,,,,,,,,,,,,,,,,,,,,,,,,,,,,,,,,,,,,,,,,,,,,,,,,,,,,,,,,,,,,,,,,,,,,,,,,,,,,,,,,,,,,,,,,,,,,,,,,,,,,,,,,,
,,,,,,5e80b4893b435a0009ea44e6,62bbfb1ff9b1e90a41468300,2022-06-29_09h20.30.484,Colour_Asymmetry_Pilot,2022.1.3,Win32,60.06006006,62bbe60bf3d75ef465d3e404,0,19,19,136,1,onetwo,,,,,,,,,,,,,,,,,,,,,,,,,,,,,,,,,,,,,,,,,,,,,,,,,,,,,,,,,,,,,,,,,,,,,,,,,,,,,,,,,,,,,,,,,,,,,,,,,,,,,,,,,,,,,,,,,,,,,,,,,,,,,,,,,,,,,,,,,,,,,,,,,,,,,,,,
,,,,,,5e80b4893b435a0009ea44e6,62bbfb1ff9b1e90a41468300,2022-06-29_09h20.30.484,Colour_Asymmetry_Pilot,2022.1.3,Win32,60.06006006,62bbe60bf3d75ef465d3e404,0,20,20,145,1,onethree,,,,,,,,,,,,,,,,,,,,,,,,,,,,,,,,,,,,,,,,,,,,,,,,,,,,,,,,,,,,,,,,,,,,,,,,,,,,,,,,,,,,,,,,,,,,,,,,,,,,,,,,,,,,,,,,,,,,,,,,,,,,,,,,,,,,,,,,,,,,,,,,,,,,,,,,
,,,,,,5e80b4893b435a0009ea44e6,62bbfb1ff9b1e90a41468300,2022-06-29_09h20.30.484,Colour_Asymmetry_Pilot,2022.1.3,Win32,60.06006006,62bbe60bf3d75ef465d3e404,0,21,21,58,1,twoone,,,,,,,,,,,,,,,,,,,,,,,,,,,,,,,,,,,,,,,,,,,,,,,,,,,,,,,,,,,,,,,,,,,,,,,,,,,,,,,,,,,,,,,,,,,,,,,,,,,,,,,,,,,,,,,,,,,,,,,,,,,,,,,,,,,,,,,,,,,,,,,,,,,,,,,,
,,,,,,5e80b4893b435a0009ea44e6,62bbfb1ff9b1e90a41468300,2022-06-29_09h20.30.484,Colour_Asymmetry_Pilot,2022.1.3,Win32,60.06006006,62bbe60bf3d75ef465d3e404,0,22,22,135,1,fourthree,,,,,,,,,,,,,,,,,,,,,,,,,,,,,,,,,,,,,,,,,,,,,,,,,,,,,,,,,,,,,,,,,,,,,,,,,,,,,,,,,,,,,,,,,,,,,,,,,,,,,,,,,,,,,,,,,,,,,,,,,,,,,,,,,,,,,,,,,,,,,,,,,,,,,,,,
,,,,,,5e80b4893b435a0009ea44e6,62bbfb1ff9b1e90a41468300,2022-06-29_09h20.30.484,Colour_Asymmetry_Pilot,2022.1.3,Win32,60.06006006,62bbe60bf3d75ef465d3e404,0,23,23,13,1,threefour,,,,,,,,,,,,,,,,,,,,,,,,,,,,,,,,,,,,,,,,,,,,,,,,,,,,,,,,,,,,,,,,,,,,,,,,,,,,,,,,,,,,,,,,,,,,,,,,,,,,,,,,,,,,,,,,,,,,,,,,,,,,,,,,,,,,,,,,,,,,,,,,,,,,,,,,
,,,,,,5e80b4893b435a0009ea44e6,62bbfb1ff9b1e90a41468300,2022-06-29_09h20.30.484,Colour_Asymmetry_Pilot,2022.1.3,Win32,60.06006006,62bbe60bf3d75ef465d3e404,0,24,24,29,1,threefour,,,,,,,,,,,,,,,,,,,,,,,,,,,,,,,,,,,,,,,,,,,,,,,,,,,,,,,,,,,,,,,,,,,,,,,,,,,,,,,,,,,,,,,,,,,,,,,,,,,,,,,,,,,,,,,,,,,,,,,,,,,,,,,,,,,,,,,,,,,,,,,,,,,,,,,,
,,,,,,5e80b4893b435a0009ea44e6,62bbfb1ff9b1e90a41468300,2022-06-29_09h20.30.484,Colour_Asymmetry_Pilot,2022.1.3,Win32,60.06006006,62bbe60bf3d75ef465d3e404,0,25,25,86,1,fourtwo,,,,,,,,,,,,,,,,,,,,,,,,,,,,,,,,,,,,,,,,,,,,,,,,,,,,,,,,,,,,,,,,,,,,,,,,,,,,,,,,,,,,,,,,,,,,,,,,,,,,,,,,,,,,,,,,,,,,,,,,,,,,,,,,,,,,,,,,,,,,,,,,,,,,,,,,
,,,,,,5e80b4893b435a0009ea44e6,62bbfb1ff9b1e90a41468300,2022-06-29_09h20.30.484,Colour_Asymmetry_Pilot,2022.1.3,Win32,60.06006006,62bbe60bf3d75ef465d3e404,0,26,26,132,1,threeone,,,,,,,,,,,,,,,,,,,,,,,,,,,,,,,,,,,,,,,,,,,,,,,,,,,,,,,,,,,,,,,,,,,,,,,,,,,,,,,,,,,,,,,,,,,,,,,,,,,,,,,,,,,,,,,,,,,,,,,,,,,,,,,,,,,,,,,,,,,,,,,,,,,,,,,,
,,,,,,5e80b4893b435a0009ea44e6,62bbfb1ff9b1e90a41468300,2022-06-29_09h20.30.484,Colour_Asymmetry_Pilot,2022.1.3,Win32,60.06006006,62bbe60bf3d75ef465d3e404,0,27,27,66,1,twoone,,,,,,,,,,,,,,,,,,,,,,,,,,,,,,,,,,,,,,,,,,,,,,,,,,,,,,,,,,,,,,,,,,,,,,,,,,,,,,,,,,,,,,,,,,,,,,,,,,,,,,,,,,,,,,,,,,,,,,,,,,,,,,,,,,,,,,,,,,,,,,,,,,,,,,,,
,,,,,,5e80b4893b435a0009ea44e6,62bbfb1ff9b1e90a41468300,2022-06-29_09h20.30.484,Colour_Asymmetry_Pilot,2022.1.3,Win32,60.06006006,62bbe60bf3d75ef465d3e404,0,28,28,75,1,twofour,,,,,,,,,,,,,,,,,,,,,,,,,,,,,,,,,,,,,,,,,,,,,,,,,,,,,,,,,,,,,,,,,,,,,,,,,,,,,,,,,,,,,,,,,,,,,,,,,,,,,,,,,,,,,,,,,,,,,,,,,,,,,,,,,,,,,,,,,,,,,,,,,,,,,,,,
,,,,,,5e80b4893b435a0009ea44e6,62bbfb1ff9b1e90a41468300,2022-06-29_09h20.30.484,Colour_Asymmetry_Pilot,2022.1.3,Win32,60.06006006,62bbe60bf3d75ef465d3e404,0,29,29,157,1,threefour,,,,,,,,,,,,,,,,,,,,,,,,,,,,,,,,,,,,,,,,,,,,,,,,,,,,,,,,,,,,,,,,,,,,,,,,,,,,,,,,,,,,,,,,,,,,,,,,,,,,,,,,,,,,,,,,,,,,,,,,,,,,,,,,,,,,,,,,,,,,,,,,,,,,,,,,
,,,,,,5e80b4893b435a0009ea44e6,62bbfb1ff9b1e90a41468300,2022-06-29_09h20.30.484,Colour_Asymmetry_Pilot,2022.1.3,Win32,60.06006006,62bbe60bf3d75ef465d3e404,0,30,30,78,1,fourtwo,,,,,,,,,,,,,,,,,,,,,,,,,,,,,,,,,,,,,,,,,,,,,,,,,,,,,,,,,,,,,,,,,,,,,,,,,,,,,,,,,,,,,,,,,,,,,,,,,,,,,,,,,,,,,,,,,,,,,,,,,,,,,,,,,,,,,,,,,,,,,,,,,,,,,,,,
,,,,,,5e80b4893b435a0009ea44e6,62bbfb1ff9b1e90a41468300,2022-06-29_09h20.30.484,Colour_Asymmetry_Pilot,2022.1.3,Win32,60.06006006,62bbe60bf3d75ef465d3e404,0,31,31,12,1,threeone,,,,,,,,,,,,,,,,,,,,,,,,,,,,,,,,,,,,,,,,,,,,,,,,,,,,,,,,,,,,,,,,,,,,,,,,,,,,,,,,,,,,,,,,,,,,,,,,,,,,,,,,,,,,,,,,,,,,,,,,,,,,,,,,,,,,,,,,,,,,,,,,,,,,,,,,
,,,,,,5e80b4893b435a0009ea44e6,62bbfb1ff9b1e90a41468300,2022-06-29_09h20.30.484,Colour_Asymmetry_Pilot,2022.1.3,Win32,60.06006006,62bbe60bf3d75ef465d3e404,0,32,32,137,1,onethree,,,,,,,,,,,,,,,,,,,,,,,,,,,,,,,,,,,,,,,,,,,,,,,,,,,,,,,,,,,,,,,,,,,,,,,,,,,,,,,,,,,,,,,,,,,,,,,,,,,,,,,,,,,,,,,,,,,,,,,,,,,,,,,,,,,,,,,,,,,,,,,,,,,,,,,,
,,,,,,5e80b4893b435a0009ea44e6,62bbfb1ff9b1e90a41468300,2022-06-29_09h20.30.484,Colour_Asymmetry_Pilot,2022.1.3,Win32,60.06006006,62bbe60bf3d75ef465d3e404,0,33,33,39,1,fourthree,,,,,,,,,,,,,,,,,,,,,,,,,,,,,,,,,,,,,,,,,,,,,,,,,,,,,,,,,,,,,,,,,,,,,,,,,,,,,,,,,,,,,,,,,,,,,,,,,,,,,,,,,,,,,,,,,,,,,,,,,,,,,,,,,,,,,,,,,,,,,,,,,,,,,,,,
,,,,,,5e80b4893b435a0009ea44e6,62bbfb1ff9b1e90a41468300,2022-06-29_09h20.30.484,Colour_Asymmetry_Pilot,2022.1.3,Win32,60.06006006,62bbe60bf3d75ef465d3e404,0,34,34,153,1,onethree,,,,,,,,,,,,,,,,,,,,,,,,,,,,,,,,,,,,,,,,,,,,,,,,,,,,,,,,,,,,,,,,,,,,,,,,,,,,,,,,,,,,,,,,,,,,,,,,,,,,,,,,,,,,,,,,,,,,,,,,,,,,,,,,,,,,,,,,,,,,,,,,,,,,,,,,
,,,,,,5e80b4893b435a0009ea44e6,62bbfb1ff9b1e90a41468300,2022-06-29_09h20.30.484,Colour_Asymmetry_Pilot,2022.1.3,Win32,60.06006006,62bbe60bf3d75ef465d3e404,0,35,35,32,1,onetwo,,,,,,,,,,,,,,,,,,,,,,,,,,,,,,,,,,,,,,,,,,,,,,,,,,,,,,,,,,,,,,,,,,,,,,,,,,,,,,,,,,,,,,,,,,,,,,,,,,,,,,,,,,,,,,,,,,,,,,,,,,,,,,,,,,,,,,,,,,,,,,,,,,,,,,,,
,,,,,,5e80b4893b435a0009ea44e6,62bbfb1ff9b1e90a41468300,2022-06-29_09h20.30.484,Colour_Asymmetry_Pilot,2022.1.3,Win32,60.06006006,62bbe60bf3d75ef465d3e404,0,36,36,126,1,fourtwo,,,,,,,,,,,,,,,,,,,,,,,,,,,,,,,,,,,,,,,,,,,,,,,,,,,,,,,,,,,,,,,,,,,,,,,,,,,,,,,,,,,,,,,,,,,,,,,,,,,,,,,,,,,,,,,,,,,,,,,,,,,,,,,,,,,,,,,,,,,,,,,,,,,,,,,,
,,,,,,5e80b4893b435a0009ea44e6,62bbfb1ff9b1e90a41468300,2022-06-29_09h20.30.484,Colour_Asymmetry_Pilot,2022.1.3,Win32,60.06006006,62bbe60bf3d75ef465d3e404,0,37,37,112,1,onetwo,,,,,,,,,,,,,,,,,,,,,,,,,,,,,,,,,,,,,,,,,,,,,,,,,,,,,,,,,,,,,,,,,,,,,,,,,,,,,,,,,,,,,,,,,,,,,,,,,,,,,,,,,,,,,,,,,,,,,,,,,,,,,,,,,,,,,,,,,,,,,,,,,,,,,,,,
,,,,,,5e80b4893b435a0009ea44e6,62bbfb1ff9b1e90a41468300,2022-06-29_09h20.30.484,Colour_Asymmetry_Pilot,2022.1.3,Win32,60.06006006,62bbe60bf3d75ef465d3e404,0,38,38,146,1,twoone,,,,,,,,,,,,,,,,,,,,,,,,,,,,,,,,,,,,,,,,,,,,,,,,,,,,,,,,,,,,,,,,,,,,,,,,,,,,,,,,,,,,,,,,,,,,,,,,,,,,,,,,,,,,,,,,,,,,,,,,,,,,,,,,,,,,,,,,,,,,,,,,,,,,,,,,
,,,,,,5e80b4893b435a0009ea44e6,62bbfb1ff9b1e90a41468300,2022-06-29_09h20.30.484,Colour_Asymmetry_Pilot,2022.1.3,Win32,60.06006006,62bbe60bf3d75ef465d3e404,0,39,39,88,1,onetwo,,,,,,,,,,,,,,,,,,,,,,,,,,,,,,,,,,,,,,,,,,,,,,,,,,,,,,,,,,,,,,,,,,,,,,,,,,,,,,,,,,,,,,,,,,,,,,,,,,,,,,,,,,,,,,,,,,,,,,,,,,,,,,,,,,,,,,,,,,,,,,,,,,,,,,,,
,,,,,,5e80b4893b435a0009ea44e6,62bbfb1ff9b1e90a41468300,2022-06-29_09h20.30.484,Colour_Asymmetry_Pilot,2022.1.3,Win32,60.06006006,62bbe60bf3d75ef465d3e404,0,40,40,5,1,threefour,,,,,,,,,,,,,,,,,,,,,,,,,,,,,,,,,,,,,,,,,,,,,,,,,,,,,,,,,,,,,,,,,,,,,,,,,,,,,,,,,,,,,,,,,,,,,,,,,,,,,,,,,,,,,,,,,,,,,,,,,,,,,,,,,,,,,,,,,,,,,,,,,,,,,,,,
,,,,,,5e80b4893b435a0009ea44e6,62bbfb1ff9b1e90a41468300,2022-06-29_09h20.30.484,Colour_Asymmetry_Pilot,2022.1.3,Win32,60.06006006,62bbe60bf3d75ef465d3e404,0,41,41,67,1,twofour,,,,,,,,,,,,,,,,,,,,,,,,,,,,,,,,,,,,,,,,,,,,,,,,,,,,,,,,,,,,,,,,,,,,,,,,,,,,,,,,,,,,,,,,,,,,,,,,,,,,,,,,,,,,,,,,,,,,,,,,,,,,,,,,,,,,,,,,,,,,,,,,,,,,,,,,
,,,,,,5e80b4893b435a0009ea44e6,62bbfb1ff9b1e90a41468300,2022-06-29_09h20.30.484,Colour_Asymmetry_Pilot,2022.1.3,Win32,60.06006006,62bbe60bf3d75ef465d3e404,0,42,42,100,1,threeone,,,,,,,,,,,,,,,,,,,,,,,,,,,,,,,,,,,,,,,,,,,,,,,,,,,,,,,,,,,,,,,,,,,,,,,,,,,,,,,,,,,,,,,,,,,,,,,,,,,,,,,,,,,,,,,,,,,,,,,,,,,,,,,,,,,,,,,,,,,,,,,,,,,,,,,,
,,,,,,5e80b4893b435a0009ea44e6,62bbfb1ff9b1e90a41468300,2022-06-29_09h20.30.484,Colour_Asymmetry_Pilot,2022.1.3,Win32,60.06006006,62bbe60bf3d75ef465d3e404,0,43,43,18,1,twoone,,,,,,,,,,,,,,,,,,,,,,,,,,,,,,,,,,,,,,,,,,,,,,,,,,,,,,,,,,,,,,,,,,,,,,,,,,,,,,,,,,,,,,,,,,,,,,,,,,,,,,,,,,,,,,,,,,,,,,,,,,,,,,,,,,,,,,,,,,,,,,,,,,,,,,,,
,,,,,,5e80b4893b435a0009ea44e6,62bbfb1ff9b1e90a41468300,2022-06-29_09h20.30.484,Colour_Asymmetry_Pilot,2022.1.3,Win32,60.06006006,62bbe60bf3d75ef465d3e404,0,44,44,98,1,twoone,,,,,,,,,,,,,,,,,,,,,,,,,,,,,,,,,,,,,,,,,,,,,,,,,,,,,,,,,,,,,,,,,,,,,,,,,,,,,,,,,,,,,,,,,,,,,,,,,,,,,,,,,,,,,,,,,,,,,,,,,,,,,,,,,,,,,,,,,,,,,,,,,,,,,,,,
,,,,,,5e80b4893b435a0009ea44e6,62bbfb1ff9b1e90a41468300,2022-06-29_09h20.30.484,Colour_Asymmetry_Pilot,2022.1.3,Win32,60.06006006,62bbe60bf3d75ef465d3e404,0,45,45,147,1,twofour,,,,,,,,,,,,,,,,,,,,,,,,,,,,,,,,,,,,,,,,,,,,,,,,,,,,,,,,,,,,,,,,,,,,,,,,,,,,,,,,,,,,,,,,,,,,,,,,,,,,,,,,,,,,,,,,,,,,,,,,,,,,,,,,,,,,,,,,,,,,,,,,,,,,,,,,
,,,,,,5e80b4893b435a0009ea44e6,62bbfb1ff9b1e90a41468300,2022-06-29_09h20.30.484,Colour_Asymmetry_Pilot,2022.1.3,Win32,60.06006006,62bbe60bf3d75ef465d3e404,0,46,46,63,1,fourthree,,,,,,,,,,,,,,,,,,,,,,,,,,,,,,,,,,,,,,,,,,,,,,,,,,,,,,,,,,,,,,,,,,,,,,,,,,,,,,,,,,,,,,,,,,,,,,,,,,,,,,,,,,,,,,,,,,,,,,,,,,,,,,,,,,,,,,,,,,,,,,,,,,,,,,,,
,,,,,,5e80b4893b435a0009ea44e6,62bbfb1ff9b1e90a41468300,2022-06-29_09h20.30.484,Colour_Asymmetry_Pilot,2022.1.3,Win32,60.06006006,62bbe60bf3d75ef465d3e404,0,47,47,128,1,onetwo,,,,,,,,,,,,,,,,,,,,,,,,,,,,,,,,,,,,,,,,,,,,,,,,,,,,,,,,,,,,,,,,,,,,,,,,,,,,,,,,,,,,,,,,,,,,,,,,,,,,,,,,,,,,,,,,,,,,,,,,,,,,,,,,,,,,,,,,,,,,,,,,,,,,,,,,
,,,,,,5e80b4893b435a0009ea44e6,62bbfb1ff9b1e90a41468300,2022-06-29_09h20.30.484,Colour_Asymmetry_Pilot,2022.1.3,Win32,60.06006006,62bbe60bf3d75ef465d3e404,0,48,48,127,1,fourthree,,,,,,,,,,,,,,,,,,,,,,,,,,,,,,,,,,,,,,,,,,,,,,,,,,,,,,,,,,,,,,,,,,,,,,,,,,,,,,,,,,,,,,,,,,,,,,,,,,,,,,,,,,,,,,,,,,,,,,,,,,,,,,,,,,,,,,,,,,,,,,,,,,,,,,,,
,,,,,,5e80b4893b435a0009ea44e6,62bbfb1ff9b1e90a41468300,2022-06-29_09h20.30.484,Colour_Asymmetry_Pilot,2022.1.3,Win32,60.06006006,62bbe60bf3d75ef465d3e404,0,49,49,71,1,fourthree,,,,,,,,,,,,,,,,,,,,,,,,,,,,,,,,,,,,,,,,,,,,,,,,,,,,,,,,,,,,,,,,,,,,,,,,,,,,,,,,,,,,,,,,,,,,,,,,,,,,,,,,,,,,,,,,,,,,,,,,,,,,,,,,,,,,,,,,,,,,,,,,,,,,,,,,
,,,,,,5e80b4893b435a0009ea44e6,62bbfb1ff9b1e90a41468300,2022-06-29_09h20.30.484,Colour_Asymmetry_Pilot,2022.1.3,Win32,60.06006006,62bbe60bf3d75ef465d3e404,0,50,50,11,1,twofour,,,,,,,,,,,,,,,,,,,,,,,,,,,,,,,,,,,,,,,,,,,,,,,,,,,,,,,,,,,,,,,,,,,,,,,,,,,,,,,,,,,,,,,,,,,,,,,,,,,,,,,,,,,,,,,,,,,,,,,,,,,,,,,,,,,,,,,,,,,,,,,,,,,,,,,,
,,,,,,5e80b4893b435a0009ea44e6,62bbfb1ff9b1e90a41468300,2022-06-29_09h20.30.484,Colour_Asymmetry_Pilot,2022.1.3,Win32,60.06006006,62bbe60bf3d75ef465d3e404,0,51,51,96,1,onetwo,,,,,,,,,,,,,,,,,,,,,,,,,,,,,,,,,,,,,,,,,,,,,,,,,,,,,,,,,,,,,,,,,,,,,,,,,,,,,,,,,,,,,,,,,,,,,,,,,,,,,,,,,,,,,,,,,,,,,,,,,,,,,,,,,,,,,,,,,,,,,,,,,,,,,,,,
,,,,,,5e80b4893b435a0009ea44e6,62bbfb1ff9b1e90a41468300,2022-06-29_09h20.30.484,Colour_Asymmetry_Pilot,2022.1.3,Win32,60.06006006,62bbe60bf3d75ef465d3e404,0,52,52,83,1,twofour,,,,,,,,,,,,,,,,,,,,,,,,,,,,,,,,,,,,,,,,,,,,,,,,,,,,,,,,,,,,,,,,,,,,,,,,,,,,,,,,,,,,,,,,,,,,,,,,,,,,,,,,,,,,,,,,,,,,,,,,,,,,,,,,,,,,,,,,,,,,,,,,,,,,,,,,
,,,,,,5e80b4893b435a0009ea44e6,62bbfb1ff9b1e90a41468300,2022-06-29_09h20.30.484,Colour_Asymmetry_Pilot,2022.1.3,Win32,60.06006006,62bbe60bf3d75ef465d3e404,0,53,53,27,1,twofour,,,,,,,,,,,,,,,,,,,,,,,,,,,,,,,,,,,,,,,,,,,,,,,,,,,,,,,,,,,,,,,,,,,,,,,,,,,,,,,,,,,,,,,,,,,,,,,,,,,,,,,,,,,,,,,,,,,,,,,,,,,,,,,,,,,,,,,,,,,,,,,,,,,,,,,,
,,,,,,5e80b4893b435a0009ea44e6,62bbfb1ff9b1e90a41468300,2022-06-29_09h20.30.484,Colour_Asymmetry_Pilot,2022.1.3,Win32,60.06006006,62bbe60bf3d75ef465d3e404,0,54,54,149,1,threefour,,,,,,,,,,,,,,,,,,,,,,,,,,,,,,,,,,,,,,,,,,,,,,,,,,,,,,,,,,,,,,,,,,,,,,,,,,,,,,,,,,,,,,,,,,,,,,,,,,,,,,,,,,,,,,,,,,,,,,,,,,,,,,,,,,,,,,,,,,,,,,,,,,,,,,,,
,,,,,,5e80b4893b435a0009ea44e6,62bbfb1ff9b1e90a41468300,2022-06-29_09h20.30.484,Colour_Asymmetry_Pilot,2022.1.3,Win32,60.06006006,62bbe60bf3d75ef465d3e404,0,55,55,76,1,threeone,,,,,,,,,,,,,,,,,,,,,,,,,,,,,,,,,,,,,,,,,,,,,,,,,,,,,,,,,,,,,,,,,,,,,,,,,,,,,,,,,,,,,,,,,,,,,,,,,,,,,,,,,,,,,,,,,,,,,,,,,,,,,,,,,,,,,,,,,,,,,,,,,,,,,,,,
,,,,,,5e80b4893b435a0009ea44e6,62bbfb1ff9b1e90a41468300,2022-06-29_09h20.30.484,Colour_Asymmetry_Pilot,2022.1.3,Win32,60.06006006,62bbe60bf3d75ef465d3e404,0,56,56,56,1,onetwo,,,,,,,,,,,,,,,,,,,,,,,,,,,,,,,,,,,,,,,,,,,,,,,,,,,,,,,,,,,,,,,,,,,,,,,,,,,,,,,,,,,,,,,,,,,,,,,,,,,,,,,,,,,,,,,,,,,,,,,,,,,,,,,,,,,,,,,,,,,,,,,,,,,,,,,,
,,,,,,5e80b4893b435a0009ea44e6,62bbfb1ff9b1e90a41468300,2022-06-29_09h20.30.484,Colour_Asymmetry_Pilot,2022.1.3,Win32,60.06006006,62bbe60bf3d75ef465d3e404,0,57,57,4,1,threeone,,,,,,,,,,,,,,,,,,,,,,,,,,,,,,,,,,,,,,,,,,,,,,,,,,,,,,,,,,,,,,,,,,,,,,,,,,,,,,,,,,,,,,,,,,,,,,,,,,,,,,,,,,,,,,,,,,,,,,,,,,,,,,,,,,,,,,,,,,,,,,,,,,,,,,,,
,,,,,,5e80b4893b435a0009ea44e6,62bbfb1ff9b1e90a41468300,2022-06-29_09h20.30.484,Colour_Asymmetry_Pilot,2022.1.3,Win32,60.06006006,62bbe60bf3d75ef465d3e404,0,58,58,119,1,fourthree,,,,,,,,,,,,,,,,,,,,,,,,,,,,,,,,,,,,,,,,,,,,,,,,,,,,,,,,,,,,,,,,,,,,,,,,,,,,,,,,,,,,,,,,,,,,,,,,,,,,,,,,,,,,,,,,,,,,,,,,,,,,,,,,,,,,,,,,,,,,,,,,,,,,,,,,
,,,,,,5e80b4893b435a0009ea44e6,62bbfb1ff9b1e90a41468300,2022-06-29_09h20.30.484,Colour_Asymmetry_Pilot,2022.1.3,Win32,60.06006006,62bbe60bf3d75ef465d3e404,0,59,59,138,1,twoone,,,,,,,,,,,,,,,,,,,,,,,,,,,,,,,,,,,,,,,,,,,,,,,,,,,,,,,,,,,,,,,,,,,,,,,,,,,,,,,,,,,,,,,,,,,,,,,,,,,,,,,,,,,,,,,,,,,,,,,,,,,,,,,,,,,,,,,,,,,,,,,,,,,,,,,,
,,,,,,5e80b4893b435a0009ea44e6,62bbfb1ff9b1e90a41468300,2022-06-29_09h20.30.484,Colour_Asymmetry_Pilot,2022.1.3,Win32,60.06006006,62bbe60bf3d75ef465d3e404,0,60,60,7,1,fourthree,,,,,,,,,,,,,,,,,,,,,,,,,,,,,,,,,,,,,,,,,,,,,,,,,,,,,,,,,,,,,,,,,,,,,,,,,,,,,,,,,,,,,,,,,,,,,,,,,,,,,,,,,,,,,,,,,,,,,,,,,,,,,,,,,,,,,,,,,,,,,,,,,,,,,,,,
,,,,,,5e80b4893b435a0009ea44e6,62bbfb1ff9b1e90a41468300,2022-06-29_09h20.30.484,Colour_Asymmetry_Pilot,2022.1.3,Win32,60.06006006,62bbe60bf3d75ef465d3e404,0,61,61,155,1,twofour,,,,,,,,,,,,,,,,,,,,,,,,,,,,,,,,,,,,,,,,,,,,,,,,,,,,,,,,,,,,,,,,,,,,,,,,,,,,,,,,,,,,,,,,,,,,,,,,,,,,,,,,,,,,,,,,,,,,,,,,,,,,,,,,,,,,,,,,,,,,,,,,,,,,,,,,
,,,,,,5e80b4893b435a0009ea44e6,62bbfb1ff9b1e90a41468300,2022-06-29_09h20.30.484,Colour_Asymmetry_Pilot,2022.1.3,Win32,60.06006006,62bbe60bf3d75ef465d3e404,0,62,62,6,1,fourtwo,,,,,,,,,,,,,,,,,,,,,,,,,,,,,,,,,,,,,,,,,,,,,,,,,,,,,,,,,,,,,,,,,,,,,,,,,,,,,,,,,,,,,,,,,,,,,,,,,,,,,,,,,,,,,,,,,,,,,,,,,,,,,,,,,,,,,,,,,,,,,,,,,,,,,,,,
,,,,,,5e80b4893b435a0009ea44e6,62bbfb1ff9b1e90a41468300,2022-06-29_09h20.30.484,Colour_Asymmetry_Pilot,2022.1.3,Win32,60.06006006,62bbe60bf3d75ef465d3e404,0,63,63,55,1,fourthree,,,,,,,,,,,,,,,,,,,,,,,,,,,,,,,,,,,,,,,,,,,,,,,,,,,,,,,,,,,,,,,,,,,,,,,,,,,,,,,,,,,,,,,,,,,,,,,,,,,,,,,,,,,,,,,,,,,,,,,,,,,,,,,,,,,,,,,,,,,,,,,,,,,,,,,,
,,,,,,5e80b4893b435a0009ea44e6,62bbfb1ff9b1e90a41468300,2022-06-29_09h20.30.484,Colour_Asymmetry_Pilot,2022.1.3,Win32,60.06006006,62bbe60bf3d75ef465d3e404,0,64,64,82,1,twoone,,,,,,,,,,,,,,,,,,,,,,,,,,,,,,,,,,,,,,,,,,,,,,,,,,,,,,,,,,,,,,,,,,,,,,,,,,,,,,,,,,,,,,,,,,,,,,,,,,,,,,,,,,,,,,,,,,,,,,,,,,,,,,,,,,,,,,,,,,,,,,,,,,,,,,,,
,,,,,,5e80b4893b435a0009ea44e6,62bbfb1ff9b1e90a41468300,2022-06-29_09h20.30.484,Colour_Asymmetry_Pilot,2022.1.3,Win32,60.06006006,62bbe60bf3d75ef465d3e404,0,65,65,114,1,twoone,,,,,,,,,,,,,,,,,,,,,,,,,,,,,,,,,,,,,,,,,,,,,,,,,,,,,,,,,,,,,,,,,,,,,,,,,,,,,,,,,,,,,,,,,,,,,,,,,,,,,,,,,,,,,,,,,,,,,,,,,,,,,,,,,,,,,,,,,,,,,,,,,,,,,,,,
,,,,,,5e80b4893b435a0009ea44e6,62bbfb1ff9b1e90a41468300,2022-06-29_09h20.30.484,Colour_Asymmetry_Pilot,2022.1.3,Win32,60.06006006,62bbe60bf3d75ef465d3e404,0,66,66,73,1,onethree,,,,,,,,,,,,,,,,,,,,,,,,,,,,,,,,,,,,,,,,,,,,,,,,,,,,,,,,,,,,,,,,,,,,,,,,,,,,,,,,,,,,,,,,,,,,,,,,,,,,,,,,,,,,,,,,,,,,,,,,,,,,,,,,,,,,,,,,,,,,,,,,,,,,,,,,
,,,,,,5e80b4893b435a0009ea44e6,62bbfb1ff9b1e90a41468300,2022-06-29_09h20.30.484,Colour_Asymmetry_Pilot,2022.1.3,Win32,60.06006006,62bbe60bf3d75ef465d3e404,0,67,67,141,1,threefour,,,,,,,,,,,,,,,,,,,,,,,,,,,,,,,,,,,,,,,,,,,,,,,,,,,,,,,,,,,,,,,,,,,,,,,,,,,,,,,,,,,,,,,,,,,,,,,,,,,,,,,,,,,,,,,,,,,,,,,,,,,,,,,,,,,,,,,,,,,,,,,,,,,,,,,,
,,,,,,5e80b4893b435a0009ea44e6,62bbfb1ff9b1e90a41468300,2022-06-29_09h20.30.484,Colour_Asymmetry_Pilot,2022.1.3,Win32,60.06006006,62bbe60bf3d75ef465d3e404,0,68,68,143,1,fourthree,,,,,,,,,,,,,,,,,,,,,,,,,,,,,,,,,,,,,,,,,,,,,,,,,,,,,,,,,,,,,,,,,,,,,,,,,,,,,,,,,,,,,,,,,,,,,,,,,,,,,,,,,,,,,,,,,,,,,,,,,,,,,,,,,,,,,,,,,,,,,,,,,,,,,,,,
,,,,,,5e80b4893b435a0009ea44e6,62bbfb1ff9b1e90a41468300,2022-06-29_09h20.30.484,Colour_Asymmetry_Pilot,2022.1.3,Win32,60.06006006,62bbe60bf3d75ef465d3e404,0,69,69,139,1,twofour,,,,,,,,,,,,,,,,,,,,,,,,,,,,,,,,,,,,,,,,,,,,,,,,,,,,,,,,,,,,,,,,,,,,,,,,,,,,,,,,,,,,,,,,,,,,,,,,,,,,,,,,,,,,,,,,,,,,,,,,,,,,,,,,,,,,,,,,,,,,,,,,,,,,,,,,
,,,,,,5e80b4893b435a0009ea44e6,62bbfb1ff9b1e90a41468300,2022-06-29_09h20.30.484,Colour_Asymmetry_Pilot,2022.1.3,Win32,60.06006006,62bbe60bf3d75ef465d3e404,0,70,70,90,1,twoone,,,,,,,,,,,,,,,,,,,,,,,,,,,,,,,,,,,,,,,,,,,,,,,,,,,,,,,,,,,,,,,,,,,,,,,,,,,,,,,,,,,,,,,,,,,,,,,,,,,,,,,,,,,,,,,,,,,,,,,,,,,,,,,,,,,,,,,,,,,,,,,,,,,,,,,,
,,,,,,5e80b4893b435a0009ea44e6,62bbfb1ff9b1e90a41468300,2022-06-29_09h20.30.484,Colour_Asymmetry_Pilot,2022.1.3,Win32,60.06006006,62bbe60bf3d75ef465d3e404,0,71,71,77,1,threefour,,,,,,,,,,,,,,,,,,,,,,,,,,,,,,,,,,,,,,,,,,,,,,,,,,,,,,,,,,,,,,,,,,,,,,,,,,,,,,,,,,,,,,,,,,,,,,,,,,,,,,,,,,,,,,,,,,,,,,,,,,,,,,,,,,,,,,,,,,,,,,,,,,,,,,,,
,,,,,,5e80b4893b435a0009ea44e6,62bbfb1ff9b1e90a41468300,2022-06-29_09h20.30.484,Colour_Asymmetry_Pilot,2022.1.3,Win32,60.06006006,62bbe60bf3d75ef465d3e404,0,72,72,31,1,fourthree,,,,,,,,,,,,,,,,,,,,,,,,,,,,,,,,,,,,,,,,,,,,,,,,,,,,,,,,,,,,,,,,,,,,,,,,,,,,,,,,,,,,,,,,,,,,,,,,,,,,,,,,,,,,,,,,,,,,,,,,,,,,,,,,,,,,,,,,,,,,,,,,,,,,,,,,
,,,,,,5e80b4893b435a0009ea44e6,62bbfb1ff9b1e90a41468300,2022-06-29_09h20.30.484,Colour_Asymmetry_Pilot,2022.1.3,Win32,60.06006006,62bbe60bf3d75ef465d3e404,0,73,73,62,1,fourtwo,,,,,,,,,,,,,,,,,,,,,,,,,,,,,,,,,,,,,,,,,,,,,,,,,,,,,,,,,,,,,,,,,,,,,,,,,,,,,,,,,,,,,,,,,,,,,,,,,,,,,,,,,,,,,,,,,,,,,,,,,,,,,,,,,,,,,,,,,,,,,,,,,,,,,,,,
,,,,,,5e80b4893b435a0009ea44e6,62bbfb1ff9b1e90a41468300,2022-06-29_09h20.30.484,Colour_Asymmetry_Pilot,2022.1.3,Win32,60.06006006,62bbe60bf3d75ef465d3e404,0,74,74,70,1,fourtwo,,,,,,,,,,,,,,,,,,,,,,,,,,,,,,,,,,,,,,,,,,,,,,,,,,,,,,,,,,,,,,,,,,,,,,,,,,,,,,,,,,,,,,,,,,,,,,,,,,,,,,,,,,,,,,,,,,,,,,,,,,,,,,,,,,,,,,,,,,,,,,,,,,,,,,,,
,,,,,,5e80b4893b435a0009ea44e6,62bbfb1ff9b1e90a41468300,2022-06-29_09h20.30.484,Colour_Asymmetry_Pilot,2022.1.3,Win32,60.06006006,62bbe60bf3d75ef465d3e404,0,75,75,107,1,twofour,,,,,,,,,,,,,,,,,,,,,,,,,,,,,,,,,,,,,,,,,,,,,,,,,,,,,,,,,,,,,,,,,,,,,,,,,,,,,,,,,,,,,,,,,,,,,,,,,,,,,,,,,,,,,,,,,,,,,,,,,,,,,,,,,,,,,,,,,,,,,,,,,,,,,,,,
,,,,,,5e80b4893b435a0009ea44e6,62bbfb1ff9b1e90a41468300,2022-06-29_09h20.30.484,Colour_Asymmetry_Pilot,2022.1.3,Win32,60.06006006,62bbe60bf3d75ef465d3e404,0,76,76,99,1,twofour,,,,,,,,,,,,,,,,,,,,,,,,,,,,,,,,,,,,,,,,,,,,,,,,,,,,,,,,,,,,,,,,,,,,,,,,,,,,,,,,,,,,,,,,,,,,,,,,,,,,,,,,,,,,,,,,,,,,,,,,,,,,,,,,,,,,,,,,,,,,,,,,,,,,,,,,
,,,,,,5e80b4893b435a0009ea44e6,62bbfb1ff9b1e90a41468300,2022-06-29_09h20.30.484,Colour_Asymmetry_Pilot,2022.1.3,Win32,60.06006006,62bbe60bf3d75ef465d3e404,0,77,77,1,1,onethree,,,,,,,,,,,,,,,,,,,,,,,,,,,,,,,,,,,,,,,,,,,,,,,,,,,,,,,,,,,,,,,,,,,,,,,,,,,,,,,,,,,,,,,,,,,,,,,,,,,,,,,,,,,,,,,,,,,,,,,,,,,,,,,,,,,,,,,,,,,,,,,,,,,,,,,,
,,,,,,5e80b4893b435a0009ea44e6,62bbfb1ff9b1e90a41468300,2022-06-29_09h20.30.484,Colour_Asymmetry_Pilot,2022.1.3,Win32,60.06006006,62bbe60bf3d75ef465d3e404,0,78,78,104,1,onetwo,,,,,,,,,,,,,,,,,,,,,,,,,,,,,,,,,,,,,,,,,,,,,,,,,,,,,,,,,,,,,,,,,,,,,,,,,,,,,,,,,,,,,,,,,,,,,,,,,,,,,,,,,,,,,,,,,,,,,,,,,,,,,,,,,,,,,,,,,,,,,,,,,,,,,,,,
,,,,,,5e80b4893b435a0009ea44e6,62bbfb1ff9b1e90a41468300,2022-06-29_09h20.30.484,Colour_Asymmetry_Pilot,2022.1.3,Win32,60.06006006,62bbe60bf3d75ef465d3e404,0,79,79,133,1,threefour,,,,,,,,,,,,,,,,,,,,,,,,,,,,,,,,,,,,,,,,,,,,,,,,,,,,,,,,,,,,,,,,,,,,,,,,,,,,,,,,,,,,,,,,,,,,,,,,,,,,,,,,,,,,,,,,,,,,,,,,,,,,,,,,,,,,,,,,,,,,,,,,,,,,,,,,
,,,,,,5e80b4893b435a0009ea44e6,62bbfb1ff9b1e90a41468300,2022-06-29_09h20.30.484,Colour_Asymmetry_Pilot,2022.1.3,Win32,60.06006006,62bbe60bf3d75ef465d3e404,0,80,80,57,1,onethree,,,,,,,,,,,,,,,,,,,,,,,,,,,,,,,,,,,,,,,,,,,,,,,,,,,,,,,,,,,,,,,,,,,,,,,,,,,,,,,,,,,,,,,,,,,,,,,,,,,,,,,,,,,,,,,,,,,,,,,,,,,,,,,,,,,,,,,,,,,,,,,,,,,,,,,,
,,,,,,5e80b4893b435a0009ea44e6,62bbfb1ff9b1e90a41468300,2022-06-29_09h20.30.484,Colour_Asymmetry_Pilot,2022.1.3,Win32,60.06006006,62bbe60bf3d75ef465d3e404,0,81,81,102,1,fourtwo,,,,,,,,,,,,,,,,,,,,,,,,,,,,,,,,,,,,,,,,,,,,,,,,,,,,,,,,,,,,,,,,,,,,,,,,,,,,,,,,,,,,,,,,,,,,,,,,,,,,,,,,,,,,,,,,,,,,,,,,,,,,,,,,,,,,,,,,,,,,,,,,,,,,,,,,
,,,,,,5e80b4893b435a0009ea44e6,62bbfb1ff9b1e90a41468300,2022-06-29_09h20.30.484,Colour_Asymmetry_Pilot,2022.1.3,Win32,60.06006006,62bbe60bf3d75ef465d3e404,0,82,82,44,1,threeone,,,,,,,,,,,,,,,,,,,,,,,,,,,,,,,,,,,,,,,,,,,,,,,,,,,,,,,,,,,,,,,,,,,,,,,,,,,,,,,,,,,,,,,,,,,,,,,,,,,,,,,,,,,,,,,,,,,,,,,,,,,,,,,,,,,,,,,,,,,,,,,,,,,,,,,,
,,,,,,5e80b4893b435a0009ea44e6,62bbfb1ff9b1e90a41468300,2022-06-29_09h20.30.484,Colour_Asymmetry_Pilot,2022.1.3,Win32,60.06006006,62bbe60bf3d75ef465d3e404,0,83,83,14,1,fourtwo,,,,,,,,,,,,,,,,,,,,,,,,,,,,,,,,,,,,,,,,,,,,,,,,,,,,,,,,,,,,,,,,,,,,,,,,,,,,,,,,,,,,,,,,,,,,,,,,,,,,,,,,,,,,,,,,,,,,,,,,,,,,,,,,,,,,,,,,,,,,,,,,,,,,,,,,
,,,,,,5e80b4893b435a0009ea44e6,62bbfb1ff9b1e90a41468300,2022-06-29_09h20.30.484,Colour_Asymmetry_Pilot,2022.1.3,Win32,60.06006006,62bbe60bf3d75ef465d3e404,0,84,84,110,1,fourtwo,,,,,,,,,,,,,,,,,,,,,,,,,,,,,,,,,,,,,,,,,,,,,,,,,,,,,,,,,,,,,,,,,,,,,,,,,,,,,,,,,,,,,,,,,,,,,,,,,,,,,,,,,,,,,,,,,,,,,,,,,,,,,,,,,,,,,,,,,,,,,,,,,,,,,,,,
,,,,,,5e80b4893b435a0009ea44e6,62bbfb1ff9b1e90a41468300,2022-06-29_09h20.30.484,Colour_Asymmetry_Pilot,2022.1.3,Win32,60.06006006,62bbe60bf3d75ef465d3e404,0,85,85,38,1,fourtwo,,,,,,,,,,,,,,,,,,,,,,,,,,,,,,,,,,,,,,,,,,,,,,,,,,,,,,,,,,,,,,,,,,,,,,,,,,,,,,,,,,,,,,,,,,,,,,,,,,,,,,,,,,,,,,,,,,,,,,,,,,,,,,,,,,,,,,,,,,,,,,,,,,,,,,,,
,,,,,,5e80b4893b435a0009ea44e6,62bbfb1ff9b1e90a41468300,2022-06-29_09h20.30.484,Colour_Asymmetry_Pilot,2022.1.3,Win32,60.06006006,62bbe60bf3d75ef465d3e404,0,86,86,52,1,threeone,,,,,,,,,,,,,,,,,,,,,,,,,,,,,,,,,,,,,,,,,,,,,,,,,,,,,,,,,,,,,,,,,,,,,,,,,,,,,,,,,,,,,,,,,,,,,,,,,,,,,,,,,,,,,,,,,,,,,,,,,,,,,,,,,,,,,,,,,,,,,,,,,,,,,,,,
,,,,,,5e80b4893b435a0009ea44e6,62bbfb1ff9b1e90a41468300,2022-06-29_09h20.30.484,Colour_Asymmetry_Pilot,2022.1.3,Win32,60.06006006,62bbe60bf3d75ef465d3e404,0,87,87,54,1,fourtwo,,,,,,,,,,,,,,,,,,,,,,,,,,,,,,,,,,,,,,,,,,,,,,,,,,,,,,,,,,,,,,,,,,,,,,,,,,,,,,,,,,,,,,,,,,,,,,,,,,,,,,,,,,,,,,,,,,,,,,,,,,,,,,,,,,,,,,,,,,,,,,,,,,,,,,,,
,,,,,,5e80b4893b435a0009ea44e6,62bbfb1ff9b1e90a41468300,2022-06-29_09h20.30.484,Colour_Asymmetry_Pilot,2022.1.3,Win32,60.06006006,62bbe60bf3d75ef465d3e404,0,88,88,158,1,fourtwo,,,,,,,,,,,,,,,,,,,,,,,,,,,,,,,,,,,,,,,,,,,,,,,,,,,,,,,,,,,,,,,,,,,,,,,,,,,,,,,,,,,,,,,,,,,,,,,,,,,,,,,,,,,,,,,,,,,,,,,,,,,,,,,,,,,,,,,,,,,,,,,,,,,,,,,,
,,,,,,5e80b4893b435a0009ea44e6,62bbfb1ff9b1e90a41468300,2022-06-29_09h20.30.484,Colour_Asymmetry_Pilot,2022.1.3,Win32,60.06006006,62bbe60bf3d75ef465d3e404,0,89,89,65,1,onethree,,,,,,,,,,,,,,,,,,,,,,,,,,,,,,,,,,,,,,,,,,,,,,,,,,,,,,,,,,,,,,,,,,,,,,,,,,,,,,,,,,,,,,,,,,,,,,,,,,,,,,,,,,,,,,,,,,,,,,,,,,,,,,,,,,,,,,,,,,,,,,,,,,,,,,,,
,,,,,,5e80b4893b435a0009ea44e6,62bbfb1ff9b1e90a41468300,2022-06-29_09h20.30.484,Colour_Asymmetry_Pilot,2022.1.3,Win32,60.06006006,62bbe60bf3d75ef465d3e404,0,90,90,118,1,fourtwo,,,,,,,,,,,,,,,,,,,,,,,,,,,,,,,,,,,,,,,,,,,,,,,,,,,,,,,,,,,,,,,,,,,,,,,,,,,,,,,,,,,,,,,,,,,,,,,,,,,,,,,,,,,,,,,,,,,,,,,,,,,,,,,,,,,,,,,,,,,,,,,,,,,,,,,,
,,,,,,5e80b4893b435a0009ea44e6,62bbfb1ff9b1e90a41468300,2022-06-29_09h20.30.484,Colour_Asymmetry_Pilot,2022.1.3,Win32,60.06006006,62bbe60bf3d75ef465d3e404,0,91,91,129,1,onethree,,,,,,,,,,,,,,,,,,,,,,,,,,,,,,,,,,,,,,,,,,,,,,,,,,,,,,,,,,,,,,,,,,,,,,,,,,,,,,,,,,,,,,,,,,,,,,,,,,,,,,,,,,,,,,,,,,,,,,,,,,,,,,,,,,,,,,,,,,,,,,,,,,,,,,,,
,,,,,,5e80b4893b435a0009ea44e6,62bbfb1ff9b1e90a41468300,2022-06-29_09h20.30.484,Colour_Asymmetry_Pilot,2022.1.3,Win32,60.06006006,62bbe60bf3d75ef465d3e404,0,92,92,95,1,fourthree,,,,,,,,,,,,,,,,,,,,,,,,,,,,,,,,,,,,,,,,,,,,,,,,,,,,,,,,,,,,,,,,,,,,,,,,,,,,,,,,,,,,,,,,,,,,,,,,,,,,,,,,,,,,,,,,,,,,,,,,,,,,,,,,,,,,,,,,,,,,,,,,,,,,,,,,
,,,,,,5e80b4893b435a0009ea44e6,62bbfb1ff9b1e90a41468300,2022-06-29_09h20.30.484,Colour_Asymmetry_Pilot,2022.1.3,Win32,60.06006006,62bbe60bf3d75ef465d3e404,0,93,93,152,1,onetwo,,,,,,,,,,,,,,,,,,,,,,,,,,,,,,,,,,,,,,,,,,,,,,,,,,,,,,,,,,,,,,,,,,,,,,,,,,,,,,,,,,,,,,,,,,,,,,,,,,,,,,,,,,,,,,,,,,,,,,,,,,,,,,,,,,,,,,,,,,,,,,,,,,,,,,,,
,,,,,,5e80b4893b435a0009ea44e6,62bbfb1ff9b1e90a41468300,2022-06-29_09h20.30.484,Colour_Asymmetry_Pilot,2022.1.3,Win32,60.06006006,62bbe60bf3d75ef465d3e404,0,94,94,148,1,threeone,,,,,,,,,,,,,,,,,,,,,,,,,,,,,,,,,,,,,,,,,,,,,,,,,,,,,,,,,,,,,,,,,,,,,,,,,,,,,,,,,,,,,,,,,,,,,,,,,,,,,,,,,,,,,,,,,,,,,,,,,,,,,,,,,,,,,,,,,,,,,,,,,,,,,,,,
,,,,,,5e80b4893b435a0009ea44e6,62bbfb1ff9b1e90a41468300,2022-06-29_09h20.30.484,Colour_Asymmetry_Pilot,2022.1.3,Win32,60.06006006,62bbe60bf3d75ef465d3e404,0,95,95,144,1,onetwo,,,,,,,,,,,,,,,,,,,,,,,,,,,,,,,,,,,,,,,,,,,,,,,,,,,,,,,,,,,,,,,,,,,,,,,,,,,,,,,,,,,,,,,,,,,,,,,,,,,,,,,,,,,,,,,,,,,,,,,,,,,,,,,,,,,,,,,,,,,,,,,,,,,,,,,,
,,,,,,5e80b4893b435a0009ea44e6,62bbfb1ff9b1e90a41468300,2022-06-29_09h20.30.484,Colour_Asymmetry_Pilot,2022.1.3,Win32,60.06006006,62bbe60bf3d75ef465d3e404,0,96,96,0,1,onetwo,,,,,,,,,,,,,,,,,,,,,,,,,,,,,,,,,,,,,,,,,,,,,,,,,,,,,,,,,,,,,,,,,,,,,,,,,,,,,,,,,,,,,,,,,,,,,,,,,,,,,,,,,,,,,,,,,,,,,,,,,,,,,,,,,,,,,,,,,,,,,,,,,,,,,,,,
,,,,,,5e80b4893b435a0009ea44e6,62bbfb1ff9b1e90a41468300,2022-06-29_09h20.30.484,Colour_Asymmetry_Pilot,2022.1.3,Win32,60.06006006,62bbe60bf3d75ef465d3e404,0,97,97,140,1,threeone,,,,,,,,,,,,,,,,,,,,,,,,,,,,,,,,,,,,,,,,,,,,,,,,,,,,,,,,,,,,,,,,,,,,,,,,,,,,,,,,,,,,,,,,,,,,,,,,,,,,,,,,,,,,,,,,,,,,,,,,,,,,,,,,,,,,,,,,,,,,,,,,,,,,,,,,
,,,,,,5e80b4893b435a0009ea44e6,62bbfb1ff9b1e90a41468300,2022-06-29_09h20.30.484,Colour_Asymmetry_Pilot,2022.1.3,Win32,60.06006006,62bbe60bf3d75ef465d3e404,0,98,98,105,1,onethree,,,,,,,,,,,,,,,,,,,,,,,,,,,,,,,,,,,,,,,,,,,,,,,,,,,,,,,,,,,,,,,,,,,,,,,,,,,,,,,,,,,,,,,,,,,,,,,,,,,,,,,,,,,,,,,,,,,,,,,,,,,,,,,,,,,,,,,,,,,,,,,,,,,,,,,,
,,,,,,5e80b4893b435a0009ea44e6,62bbfb1ff9b1e90a41468300,2022-06-29_09h20.30.484,Colour_Asymmetry_Pilot,2022.1.3,Win32,60.06006006,62bbe60bf3d75ef465d3e404,0,99,99,156,1,threeone,,,,,,,,,,,,,,,,,,,,,,,,,,,,,,,,,,,,,,,,,,,,,,,,,,,,,,,,,,,,,,,,,,,,,,,,,,,,,,,,,,,,,,,,,,,,,,,,,,,,,,,,,,,,,,,,,,,,,,,,,,,,,,,,,,,,,,,,,,,,,,,,,,,,,,,,
,,,,,,5e80b4893b435a0009ea44e6,62bbfb1ff9b1e90a41468300,2022-06-29_09h20.30.484,Colour_Asymmetry_Pilot,2022.1.3,Win32,60.06006006,62bbe60bf3d75ef465d3e404,0,100,100,109,1,threefour,,,,,,,,,,,,,,,,,,,,,,,,,,,,,,,,,,,,,,,,,,,,,,,,,,,,,,,,,,,,,,,,,,,,,,,,,,,,,,,,,,,,,,,,,,,,,,,,,,,,,,,,,,,,,,,,,,,,,,,,,,,,,,,,,,,,,,,,,,,,,,,,,,,,,,,,
,,,,,,5e80b4893b435a0009ea44e6,62bbfb1ff9b1e90a41468300,2022-06-29_09h20.30.484,Colour_Asymmetry_Pilot,2022.1.3,Win32,60.06006006,62bbe60bf3d75ef465d3e404,0,101,101,154,1,twoone,,,,,,,,,,,,,,,,,,,,,,,,,,,,,,,,,,,,,,,,,,,,,,,,,,,,,,,,,,,,,,,,,,,,,,,,,,,,,,,,,,,,,,,,,,,,,,,,,,,,,,,,,,,,,,,,,,,,,,,,,,,,,,,,,,,,,,,,,,,,,,,,,,,,,,,,
,,,,,,5e80b4893b435a0009ea44e6,62bbfb1ff9b1e90a41468300,2022-06-29_09h20.30.484,Colour_Asymmetry_Pilot,2022.1.3,Win32,60.06006006,62bbe60bf3d75ef465d3e404,0,102,102,108,1,threeone,,,,,,,,,,,,,,,,,,,,,,,,,,,,,,,,,,,,,,,,,,,,,,,,,,,,,,,,,,,,,,,,,,,,,,,,,,,,,,,,,,,,,,,,,,,,,,,,,,,,,,,,,,,,,,,,,,,,,,,,,,,,,,,,,,,,,,,,,,,,,,,,,,,,,,,,
,,,,,,5e80b4893b435a0009ea44e6,62bbfb1ff9b1e90a41468300,2022-06-29_09h20.30.484,Colour_Asymmetry_Pilot,2022.1.3,Win32,60.06006006,62bbe60bf3d75ef465d3e404,0,103,103,93,1,threefour,,,,,,,,,,,,,,,,,,,,,,,,,,,,,,,,,,,,,,,,,,,,,,,,,,,,,,,,,,,,,,,,,,,,,,,,,,,,,,,,,,,,,,,,,,,,,,,,,,,,,,,,,,,,,,,,,,,,,,,,,,,,,,,,,,,,,,,,,,,,,,,,,,,,,,,,
,,,,,,5e80b4893b435a0009ea44e6,62bbfb1ff9b1e90a41468300,2022-06-29_09h20.30.484,Colour_Asymmetry_Pilot,2022.1.3,Win32,60.06006006,62bbe60bf3d75ef465d3e404,0,104,104,79,1,fourthree,,,,,,,,,,,,,,,,,,,,,,,,,,,,,,,,,,,,,,,,,,,,,,,,,,,,,,,,,,,,,,,,,,,,,,,,,,,,,,,,,,,,,,,,,,,,,,,,,,,,,,,,,,,,,,,,,,,,,,,,,,,,,,,,,,,,,,,,,,,,,,,,,,,,,,,,
,,,,,,5e80b4893b435a0009ea44e6,62bbfb1ff9b1e90a41468300,2022-06-29_09h20.30.484,Colour_Asymmetry_Pilot,2022.1.3,Win32,60.06006006,62bbe60bf3d75ef465d3e404,0,105,105,116,1,threeone,,,,,,,,,,,,,,,,,,,,,,,,,,,,,,,,,,,,,,,,,,,,,,,,,,,,,,,,,,,,,,,,,,,,,,,,,,,,,,,,,,,,,,,,,,,,,,,,,,,,,,,,,,,,,,,,,,,,,,,,,,,,,,,,,,,,,,,,,,,,,,,,,,,,,,,,
,,,,,,5e80b4893b435a0009ea44e6,62bbfb1ff9b1e90a41468300,2022-06-29_09h20.30.484,Colour_Asymmetry_Pilot,2022.1.3,Win32,60.06006006,62bbe60bf3d75ef465d3e404,0,106,106,97,1,onethree,,,,,,,,,,,,,,,,,,,,,,,,,,,,,,,,,,,,,,,,,,,,,,,,,,,,,,,,,,,,,,,,,,,,,,,,,,,,,,,,,,,,,,,,,,,,,,,,,,,,,,,,,,,,,,,,,,,,,,,,,,,,,,,,,,,,,,,,,,,,,,,,,,,,,,,,
,,,,,,5e80b4893b435a0009ea44e6,62bbfb1ff9b1e90a41468300,2022-06-29_09h20.30.484,Colour_Asymmetry_Pilot,2022.1.3,Win32,60.06006006,62bbe60bf3d75ef465d3e404,0,107,107,2,1,twoone,,,,,,,,,,,,,,,,,,,,,,,,,,,,,,,,,,,,,,,,,,,,,,,,,,,,,,,,,,,,,,,,,,,,,,,,,,,,,,,,,,,,,,,,,,,,,,,,,,,,,,,,,,,,,,,,,,,,,,,,,,,,,,,,,,,,,,,,,,,,,,,,,,,,,,,,
,,,,,,5e80b4893b435a0009ea44e6,62bbfb1ff9b1e90a41468300,2022-06-29_09h20.30.484,Colour_Asymmetry_Pilot,2022.1.3,Win32,60.06006006,62bbe60bf3d75ef465d3e404,0,108,108,131,1,twofour,,,,,,,,,,,,,,,,,,,,,,,,,,,,,,,,,,,,,,,,,,,,,,,,,,,,,,,,,,,,,,,,,,,,,,,,,,,,,,,,,,,,,,,,,,,,,,,,,,,,,,,,,,,,,,,,,,,,,,,,,,,,,,,,,,,,,,,,,,,,,,,,,,,,,,,,
,,,,,,5e80b4893b435a0009ea44e6,62bbfb1ff9b1e90a41468300,2022-06-29_09h20.30.484,Colour_Asymmetry_Pilot,2022.1.3,Win32,60.06006006,62bbe60bf3d75ef465d3e404,0,109,109,22,1,fourtwo,,,,,,,,,,,,,,,,,,,,,,,,,,,,,,,,,,,,,,,,,,,,,,,,,,,,,,,,,,,,,,,,,,,,,,,,,,,,,,,,,,,,,,,,,,,,,,,,,,,,,,,,,,,,,,,,,,,,,,,,,,,,,,,,,,,,,,,,,,,,,,,,,,,,,,,,
,,,,,,5e80b4893b435a0009ea44e6,62bbfb1ff9b1e90a41468300,2022-06-29_09h20.30.484,Colour_Asymmetry_Pilot,2022.1.3,Win32,60.06006006,62bbe60bf3d75ef465d3e404,0,110,110,42,1,twoone,,,,,,,,,,,,,,,,,,,,,,,,,,,,,,,,,,,,,,,,,,,,,,,,,,,,,,,,,,,,,,,,,,,,,,,,,,,,,,,,,,,,,,,,,,,,,,,,,,,,,,,,,,,,,,,,,,,,,,,,,,,,,,,,,,,,,,,,,,,,,,,,,,,,,,,,
,,,,,,5e80b4893b435a0009ea44e6,62bbfb1ff9b1e90a41468300,2022-06-29_09h20.30.484,Colour_Asymmetry_Pilot,2022.1.3,Win32,60.06006006,62bbe60bf3d75ef465d3e404,0,111,111,84,1,threeone,,,,,,,,,,,,,,,,,,,,,,,,,,,,,,,,,,,,,,,,,,,,,,,,,,,,,,,,,,,,,,,,,,,,,,,,,,,,,,,,,,,,,,,,,,,,,,,,,,,,,,,,,,,,,,,,,,,,,,,,,,,,,,,,,,,,,,,,,,,,,,,,,,,,,,,,
,,,,,,5e80b4893b435a0009ea44e6,62bbfb1ff9b1e90a41468300,2022-06-29_09h20.30.484,Colour_Asymmetry_Pilot,2022.1.3,Win32,60.06006006,62bbe60bf3d75ef465d3e404,0,112,112,60,1,threeone,,,,,,,,,,,,,,,,,,,,,,,,,,,,,,,,,,,,,,,,,,,,,,,,,,,,,,,,,,,,,,,,,,,,,,,,,,,,,,,,,,,,,,,,,,,,,,,,,,,,,,,,,,,,,,,,,,,,,,,,,,,,,,,,,,,,,,,,,,,,,,,,,,,,,,,,
,,,,,,5e80b4893b435a0009ea44e6,62bbfb1ff9b1e90a41468300,2022-06-29_09h20.30.484,Colour_Asymmetry_Pilot,2022.1.3,Win32,60.06006006,62bbe60bf3d75ef465d3e404,0,113,113,48,1,onetwo,,,,,,,,,,,,,,,,,,,,,,,,,,,,,,,,,,,,,,,,,,,,,,,,,,,,,,,,,,,,,,,,,,,,,,,,,,,,,,,,,,,,,,,,,,,,,,,,,,,,,,,,,,,,,,,,,,,,,,,,,,,,,,,,,,,,,,,,,,,,,,,,,,,,,,,,
,,,,,,5e80b4893b435a0009ea44e6,62bbfb1ff9b1e90a41468300,2022-06-29_09h20.30.484,Colour_Asymmetry_Pilot,2022.1.3,Win32,60.06006006,62bbe60bf3d75ef465d3e404,0,114,114,103,1,fourthree,,,,,,,,,,,,,,,,,,,,,,,,,,,,,,,,,,,,,,,,,,,,,,,,,,,,,,,,,,,,,,,,,,,,,,,,,,,,,,,,,,,,,,,,,,,,,,,,,,,,,,,,,,,,,,,,,,,,,,,,,,,,,,,,,,,,,,,,,,,,,,,,,,,,,,,,
,,,,,,5e80b4893b435a0009ea44e6,62bbfb1ff9b1e90a41468300,2022-06-29_09h20.30.484,Colour_Asymmetry_Pilot,2022.1.3,Win32,60.06006006,62bbe60bf3d75ef465d3e404,0,115,115,113,1,onethree,,,,,,,,,,,,,,,,,,,,,,,,,,,,,,,,,,,,,,,,,,,,,,,,,,,,,,,,,,,,,,,,,,,,,,,,,,,,,,,,,,,,,,,,,,,,,,,,,,,,,,,,,,,,,,,,,,,,,,,,,,,,,,,,,,,,,,,,,,,,,,,,,,,,,,,,
,,,,,,5e80b4893b435a0009ea44e6,62bbfb1ff9b1e90a41468300,2022-06-29_09h20.30.484,Colour_Asymmetry_Pilot,2022.1.3,Win32,60.06006006,62bbe60bf3d75ef465d3e404,0,116,116,134,1,fourtwo,,,,,,,,,,,,,,,,,,,,,,,,,,,,,,,,,,,,,,,,,,,,,,,,,,,,,,,,,,,,,,,,,,,,,,,,,,,,,,,,,,,,,,,,,,,,,,,,,,,,,,,,,,,,,,,,,,,,,,,,,,,,,,,,,,,,,,,,,,,,,,,,,,,,,,,,
,,,,,,5e80b4893b435a0009ea44e6,62bbfb1ff9b1e90a41468300,2022-06-29_09h20.30.484,Colour_Asymmetry_Pilot,2022.1.3,Win32,60.06006006,62bbe60bf3d75ef465d3e404,0,117,117,40,1,onetwo,,,,,,,,,,,,,,,,,,,,,,,,,,,,,,,,,,,,,,,,,,,,,,,,,,,,,,,,,,,,,,,,,,,,,,,,,,,,,,,,,,,,,,,,,,,,,,,,,,,,,,,,,,,,,,,,,,,,,,,,,,,,,,,,,,,,,,,,,,,,,,,,,,,,,,,,
,,,,,,5e80b4893b435a0009ea44e6,62bbfb1ff9b1e90a41468300,2022-06-29_09h20.30.484,Colour_Asymmetry_Pilot,2022.1.3,Win32,60.06006006,62bbe60bf3d75ef465d3e404,0,118,118,72,1,onetwo,,,,,,,,,,,,,,,,,,,,,,,,,,,,,,,,,,,,,,,,,,,,,,,,,,,,,,,,,,,,,,,,,,,,,,,,,,,,,,,,,,,,,,,,,,,,,,,,,,,,,,,,,,,,,,,,,,,,,,,,,,,,,,,,,,,,,,,,,,,,,,,,,,,,,,,,
,,,,,,5e80b4893b435a0009ea44e6,62bbfb1ff9b1e90a41468300,2022-06-29_09h20.30.484,Colour_Asymmetry_Pilot,2022.1.3,Win32,60.06006006,62bbe60bf3d75ef465d3e404,0,119,119,89,1,onethree,,,,,,,,,,,,,,,,,,,,,,,,,,,,,,,,,,,,,,,,,,,,,,,,,,,,,,,,,,,,,,,,,,,,,,,,,,,,,,,,,,,,,,,,,,,,,,,,,,,,,,,,,,,,,,,,,,,,,,,,,,,,,,,,,,,,,,,,,,,,,,,,,,,,,,,,
,,,,,,5e80b4893b435a0009ea44e6,62bbfb1ff9b1e90a41468300,2022-06-29_09h20.30.484,Colour_Asymmetry_Pilot,2022.1.3,Win32,60.06006006,62bbe60bf3d75ef465d3e404,0,120,120,49,1,onethree,,,,,,,,,,,,,,,,,,,,,,,,,,,,,,,,,,,,,,,,,,,,,,,,,,,,,,,,,,,,,,,,,,,,,,,,,,,,,,,,,,,,,,,,,,,,,,,,,,,,,,,,,,,,,,,,,,,,,,,,,,,,,,,,,,,,,,,,,,,,,,,,,,,,,,,,
,,,,,,5e80b4893b435a0009ea44e6,62bbfb1ff9b1e90a41468300,2022-06-29_09h20.30.484,Colour_Asymmetry_Pilot,2022.1.3,Win32,60.06006006,62bbe60bf3d75ef465d3e404,0,121,121,150,1,fourtwo,,,,,,,,,,,,,,,,,,,,,,,,,,,,,,,,,,,,,,,,,,,,,,,,,,,,,,,,,,,,,,,,,,,,,,,,,,,,,,,,,,,,,,,,,,,,,,,,,,,,,,,,,,,,,,,,,,,,,,,,,,,,,,,,,,,,,,,,,,,,,,,,,,,,,,,,
,,,,,,5e80b4893b435a0009ea44e6,62bbfb1ff9b1e90a41468300,2022-06-29_09h20.30.484,Colour_Asymmetry_Pilot,2022.1.3,Win32,60.06006006,62bbe60bf3d75ef465d3e404,0,122,122,41,1,onethree,,,,,,,,,,,,,,,,,,,,,,,,,,,,,,,,,,,,,,,,,,,,,,,,,,,,,,,,,,,,,,,,,,,,,,,,,,,,,,,,,,,,,,,,,,,,,,,,,,,,,,,,,,,,,,,,,,,,,,,,,,,,,,,,,,,,,,,,,,,,,,,,,,,,,,,,
,,,,,,5e80b4893b435a0009ea44e6,62bbfb1ff9b1e90a41468300,2022-06-29_09h20.30.484,Colour_Asymmetry_Pilot,2022.1.3,Win32,60.06006006,62bbe60bf3d75ef465d3e404,0,123,123,26,1,twoone,,,,,,,,,,,,,,,,,,,,,,,,,,,,,,,,,,,,,,,,,,,,,,,,,,,,,,,,,,,,,,,,,,,,,,,,,,,,,,,,,,,,,,,,,,,,,,,,,,,,,,,,,,,,,,,,,,,,,,,,,,,,,,,,,,,,,,,,,,,,,,,,,,,,,,,,
,,,,,,5e80b4893b435a0009ea44e6,62bbfb1ff9b1e90a41468300,2022-06-29_09h20.30.484,Colour_Asymmetry_Pilot,2022.1.3,Win32,60.06006006,62bbe60bf3d75ef465d3e404,0,124,124,46,1,fourtwo,,,,,,,,,,,,,,,,,,,,,,,,,,,,,,,,,,,,,,,,,,,,,,,,,,,,,,,,,,,,,,,,,,,,,,,,,,,,,,,,,,,,,,,,,,,,,,,,,,,,,,,,,,,,,,,,,,,,,,,,,,,,,,,,,,,,,,,,,,,,,,,,,,,,,,,,
,,,,,,5e80b4893b435a0009ea44e6,62bbfb1ff9b1e90a41468300,2022-06-29_09h20.30.484,Colour_Asymmetry_Pilot,2022.1.3,Win32,60.06006006,62bbe60bf3d75ef465d3e404,0,125,125,81,1,onethree,,,,,,,,,,,,,,,,,,,,,,,,,,,,,,,,,,,,,,,,,,,,,,,,,,,,,,,,,,,,,,,,,,,,,,,,,,,,,,,,,,,,,,,,,,,,,,,,,,,,,,,,,,,,,,,,,,,,,,,,,,,,,,,,,,,,,,,,,,,,,,,,,,,,,,,,
,,,,,,5e80b4893b435a0009ea44e6,62bbfb1ff9b1e90a41468300,2022-06-29_09h20.30.484,Colour_Asymmetry_Pilot,2022.1.3,Win32,60.06006006,62bbe60bf3d75ef465d3e404,0,126,126,8,1,onetwo,,,,,,,,,,,,,,,,,,,,,,,,,,,,,,,,,,,,,,,,,,,,,,,,,,,,,,,,,,,,,,,,,,,,,,,,,,,,,,,,,,,,,,,,,,,,,,,,,,,,,,,,,,,,,,,,,,,,,,,,,,,,,,,,,,,,,,,,,,,,,,,,,,,,,,,,
,,,,,,5e80b4893b435a0009ea44e6,62bbfb1ff9b1e90a41468300,2022-06-29_09h20.30.484,Colour_Asymmetry_Pilot,2022.1.3,Win32,60.06006006,62bbe60bf3d75ef465d3e404,0,127,127,130,1,twoone,,,,,,,,,,,,,,,,,,,,,,,,,,,,,,,,,,,,,,,,,,,,,,,,,,,,,,,,,,,,,,,,,,,,,,,,,,,,,,,,,,,,,,,,,,,,,,,,,,,,,,,,,,,,,,,,,,,,,,,,,,,,,,,,,,,,,,,,,,,,,,,,,,,,,,,,
,,,,,,5e80b4893b435a0009ea44e6,62bbfb1ff9b1e90a41468300,2022-06-29_09h20.30.484,Colour_Asymmetry_Pilot,2022.1.3,Win32,60.06006006,62bbe60bf3d75ef465d3e404,0,128,128,68,1,threeone,,,,,,,,,,,,,,,,,,,,,,,,,,,,,,,,,,,,,,,,,,,,,,,,,,,,,,,,,,,,,,,,,,,,,,,,,,,,,,,,,,,,,,,,,,,,,,,,,,,,,,,,,,,,,,,,,,,,,,,,,,,,,,,,,,,,,,,,,,,,,,,,,,,,,,,,
,,,,,,5e80b4893b435a0009ea44e6,62bbfb1ff9b1e90a41468300,2022-06-29_09h20.30.484,Colour_Asymmetry_Pilot,2022.1.3,Win32,60.06006006,62bbe60bf3d75ef465d3e404,0,129,129,36,1,threeone,,,,,,,,,,,,,,,,,,,,,,,,,,,,,,,,,,,,,,,,,,,,,,,,,,,,,,,,,,,,,,,,,,,,,,,,,,,,,,,,,,,,,,,,,,,,,,,,,,,,,,,,,,,,,,,,,,,,,,,,,,,,,,,,,,,,,,,,,,,,,,,,,,,,,,,,
,,,,,,5e80b4893b435a0009ea44e6,62bbfb1ff9b1e90a41468300,2022-06-29_09h20.30.484,Colour_Asymmetry_Pilot,2022.1.3,Win32,60.06006006,62bbe60bf3d75ef465d3e404,0,130,130,111,1,fourthree,,,,,,,,,,,,,,,,,,,,,,,,,,,,,,,,,,,,,,,,,,,,,,,,,,,,,,,,,,,,,,,,,,,,,,,,,,,,,,,,,,,,,,,,,,,,,,,,,,,,,,,,,,,,,,,,,,,,,,,,,,,,,,,,,,,,,,,,,,,,,,,,,,,,,,,,
,,,,,,5e80b4893b435a0009ea44e6,62bbfb1ff9b1e90a41468300,2022-06-29_09h20.30.484,Colour_Asymmetry_Pilot,2022.1.3,Win32,60.06006006,62bbe60bf3d75ef465d3e404,0,131,131,151,1,fourthree,,,,,,,,,,,,,,,,,,,,,,,,,,,,,,,,,,,,,,,,,,,,,,,,,,,,,,,,,,,,,,,,,,,,,,,,,,,,,,,,,,,,,,,,,,,,,,,,,,,,,,,,,,,,,,,,,,,,,,,,,,,,,,,,,,,,,,,,,,,,,,,,,,,,,,,,
,,,,,,5e80b4893b435a0009ea44e6,62bbfb1ff9b1e90a41468300,2022-06-29_09h20.30.484,Colour_Asymmetry_Pilot,2022.1.3,Win32,60.06006006,62bbe60bf3d75ef465d3e404,0,132,132,115,1,twofour,,,,,,,,,,,,,,,,,,,,,,,,,,,,,,,,,,,,,,,,,,,,,,,,,,,,,,,,,,,,,,,,,,,,,,,,,,,,,,,,,,,,,,,,,,,,,,,,,,,,,,,,,,,,,,,,,,,,,,,,,,,,,,,,,,,,,,,,,,,,,,,,,,,,,,,,
,,,,,,5e80b4893b435a0009ea44e6,62bbfb1ff9b1e90a41468300,2022-06-29_09h20.30.484,Colour_Asymmetry_Pilot,2022.1.3,Win32,60.06006006,62bbe60bf3d75ef465d3e404,0,133,133,160,1,onetwo,,,,,,,,,,,,,,,,,,,,,,,,,,,,,,,,,,,,,,,,,,,,,,,,,,,,,,,,,,,,,,,,,,,,,,,,,,,,,,,,,,,,,,,,,,,,,,,,,,,,,,,,,,,,,,,,,,,,,,,,,,,,,,,,,,,,,,,,,,,,,,,,,,,,,,,,
,,,,,,5e80b4893b435a0009ea44e6,62bbfb1ff9b1e90a41468300,2022-06-29_09h20.30.484,Colour_Asymmetry_Pilot,2022.1.3,Win32,60.06006006,62bbe60bf3d75ef465d3e404,0,134,134,92,1,threeone,,,,,,,,,,,,,,,,,,,,,,,,,,,,,,,,,,,,,,,,,,,,,,,,,,,,,,,,,,,,,,,,,,,,,,,,,,,,,,,,,,,,,,,,,,,,,,,,,,,,,,,,,,,,,,,,,,,,,,,,,,,,,,,,,,,,,,,,,,,,,,,,,,,,,,,,
,,,,,,5e80b4893b435a0009ea44e6,62bbfb1ff9b1e90a41468300,2022-06-29_09h20.30.484,Colour_Asymmetry_Pilot,2022.1.3,Win32,60.06006006,62bbe60bf3d75ef465d3e404,0,135,135,74,1,twoone,,,,,,,,,,,,,,,,,,,,,,,,,,,,,,,,,,,,,,,,,,,,,,,,,,,,,,,,,,,,,,,,,,,,,,,,,,,,,,,,,,,,,,,,,,,,,,,,,,,,,,,,,,,,,,,,,,,,,,,,,,,,,,,,,,,,,,,,,,,,,,,,,,,,,,,,
,,,,,,5e80b4893b435a0009ea44e6,62bbfb1ff9b1e90a41468300,2022-06-29_09h20.30.484,Colour_Asymmetry_Pilot,2022.1.3,Win32,60.06006006,62bbe60bf3d75ef465d3e404,0,136,136,47,1,fourthree,,,,,,,,,,,,,,,,,,,,,,,,,,,,,,,,,,,,,,,,,,,,,,,,,,,,,,,,,,,,,,,,,,,,,,,,,,,,,,,,,,,,,,,,,,,,,,,,,,,,,,,,,,,,,,,,,,,,,,,,,,,,,,,,,,,,,,,,,,,,,,,,,,,,,,,,
,,,,,,5e80b4893b435a0009ea44e6,62bbfb1ff9b1e90a41468300,2022-06-29_09h20.30.484,Colour_Asymmetry_Pilot,2022.1.3,Win32,60.06006006,62bbe60bf3d75ef465d3e404,0,137,137,121,1,onethree,,,,,,,,,,,,,,,,,,,,,,,,,,,,,,,,,,,,,,,,,,,,,,,,,,,,,,,,,,,,,,,,,,,,,,,,,,,,,,,,,,,,,,,,,,,,,,,,,,,,,,,,,,,,,,,,,,,,,,,,,,,,,,,,,,,,,,,,,,,,,,,,,,,,,,,,
,,,,,,5e80b4893b435a0009ea44e6,62bbfb1ff9b1e90a41468300,2022-06-29_09h20.30.484,Colour_Asymmetry_Pilot,2022.1.3,Win32,60.06006006,62bbe60bf3d75ef465d3e404,0,138,138,125,1,threefour,,,,,,,,,,,,,,,,,,,,,,,,,,,,,,,,,,,,,,,,,,,,,,,,,,,,,,,,,,,,,,,,,,,,,,,,,,,,,,,,,,,,,,,,,,,,,,,,,,,,,,,,,,,,,,,,,,,,,,,,,,,,,,,,,,,,,,,,,,,,,,,,,,,,,,,,
,,,,,,5e80b4893b435a0009ea44e6,62bbfb1ff9b1e90a41468300,2022-06-29_09h20.30.484,Colour_Asymmetry_Pilot,2022.1.3,Win32,60.06006006,62bbe60bf3d75ef465d3e404,0,139,139,10,1,twoone,,,,,,,,,,,,,,,,,,,,,,,,,,,,,,,,,,,,,,,,,,,,,,,,,,,,,,,,,,,,,,,,,,,,,,,,,,,,,,,,,,,,,,,,,,,,,,,,,,,,,,,,,,,,,,,,,,,,,,,,,,,,,,,,,,,,,,,,,,,,,,,,,,,,,,,,
,,,,,,5e80b4893b435a0009ea44e6,62bbfb1ff9b1e90a41468300,2022-06-29_09h20.30.484,Colour_Asymmetry_Pilot,2022.1.3,Win32,60.06006006,62bbe60bf3d75ef465d3e404,0,140,140,94,1,fourtwo,,,,,,,,,,,,,,,,,,,,,,,,,,,,,,,,,,,,,,,,,,,,,,,,,,,,,,,,,,,,,,,,,,,,,,,,,,,,,,,,,,,,,,,,,,,,,,,,,,,,,,,,,,,,,,,,,,,,,,,,,,,,,,,,,,,,,,,,,,,,,,,,,,,,,,,,
,,,,,,5e80b4893b435a0009ea44e6,62bbfb1ff9b1e90a41468300,2022-06-29_09h20.30.484,Colour_Asymmetry_Pilot,2022.1.3,Win32,60.06006006,62bbe60bf3d75ef465d3e404,0,141,141,142,1,fourtwo,,,,,,,,,,,,,,,,,,,,,,,,,,,,,,,,,,,,,,,,,,,,,,,,,,,,,,,,,,,,,,,,,,,,,,,,,,,,,,,,,,,,,,,,,,,,,,,,,,,,,,,,,,,,,,,,,,,,,,,,,,,,,,,,,,,,,,,,,,,,,,,,,,,,,,,,
,,,,,,5e80b4893b435a0009ea44e6,62bbfb1ff9b1e90a41468300,2022-06-29_09h20.30.484,Colour_Asymmetry_Pilot,2022.1.3,Win32,60.06006006,62bbe60bf3d75ef465d3e404,0,142,142,35,1,twofour,,,,,,,,,,,,,,,,,,,,,,,,,,,,,,,,,,,,,,,,,,,,,,,,,,,,,,,,,,,,,,,,,,,,,,,,,,,,,,,,,,,,,,,,,,,,,,,,,,,,,,,,,,,,,,,,,,,,,,,,,,,,,,,,,,,,,,,,,,,,,,,,,,,,,,,,
,,,,,,5e80b4893b435a0009ea44e6,62bbfb1ff9b1e90a41468300,2022-06-29_09h20.30.484,Colour_Asymmetry_Pilot,2022.1.3,Win32,60.06006006,62bbe60bf3d75ef465d3e404,0,143,143,69,1,threefour,,,,,,,,,,,,,,,,,,,,,,,,,,,,,,,,,,,,,,,,,,,,,,,,,,,,,,,,,,,,,,,,,,,,,,,,,,,,,,,,,,,,,,,,,,,,,,,,,,,,,,,,,,,,,,,,,,,,,,,,,,,,,,,,,,,,,,,,,,,,,,,,,,,,,,,,
,,,,,,5e80b4893b435a0009ea44e6,62bbfb1ff9b1e90a41468300,2022-06-29_09h20.30.484,Colour_Asymmetry_Pilot,2022.1.3,Win32,60.06006006,62bbe60bf3d75ef465d3e404,0,144,144,117,1,threefour,,,,,,,,,,,,,,,,,,,,,,,,,,,,,,,,,,,,,,,,,,,,,,,,,,,,,,,,,,,,,,,,,,,,,,,,,,,,,,,,,,,,,,,,,,,,,,,,,,,,,,,,,,,,,,,,,,,,,,,,,,,,,,,,,,,,,,,,,,,,,,,,,,,,,,,,
,,,,,,5e80b4893b435a0009ea44e6,62bbfb1ff9b1e90a41468300,2022-06-29_09h20.30.484,Colour_Asymmetry_Pilot,2022.1.3,Win32,60.06006006,62bbe60bf3d75ef465d3e404,0,145,145,16,1,onetwo,,,,,,,,,,,,,,,,,,,,,,,,,,,,,,,,,,,,,,,,,,,,,,,,,,,,,,,,,,,,,,,,,,,,,,,,,,,,,,,,,,,,,,,,,,,,,,,,,,,,,,,,,,,,,,,,,,,,,,,,,,,,,,,,,,,,,,,,,,,,,,,,,,,,,,,,
,,,,,,5e80b4893b435a0009ea44e6,62bbfb1ff9b1e90a41468300,2022-06-29_09h20.30.484,Colour_Asymmetry_Pilot,2022.1.3,Win32,60.06006006,62bbe60bf3d75ef465d3e404,0,146,146,51,1,twofour,,,,,,,,,,,,,,,,,,,,,,,,,,,,,,,,,,,,,,,,,,,,,,,,,,,,,,,,,,,,,,,,,,,,,,,,,,,,,,,,,,,,,,,,,,,,,,,,,,,,,,,,,,,,,,,,,,,,,,,,,,,,,,,,,,,,,,,,,,,,,,,,,,,,,,,,
,,,,,,5e80b4893b435a0009ea44e6,62bbfb1ff9b1e90a41468300,2022-06-29_09h20.30.484,Colour_Asymmetry_Pilot,2022.1.3,Win32,60.06006006,62bbe60bf3d75ef465d3e404,0,147,147,61,1,threefour,,,,,,,,,,,,,,,,,,,,,,,,,,,,,,,,,,,,,,,,,,,,,,,,,,,,,,,,,,,,,,,,,,,,,,,,,,,,,,,,,,,,,,,,,,,,,,,,,,,,,,,,,,,,,,,,,,,,,,,,,,,,,,,,,,,,,,,,,,,,,,,,,,,,,,,,
,,,,,,5e80b4893b435a0009ea44e6,62bbfb1ff9b1e90a41468300,2022-06-29_09h20.30.484,Colour_Asymmetry_Pilot,2022.1.3,Win32,60.06006006,62bbe60bf3d75ef465d3e404,0,148,148,159,1,fourthree,,,,,,,,,,,,,,,,,,,,,,,,,,,,,,,,,,,,,,,,,,,,,,,,,,,,,,,,,,,,,,,,,,,,,,,,,,,,,,,,,,,,,,,,,,,,,,,,,,,,,,,,,,,,,,,,,,,,,,,,,,,,,,,,,,,,,,,,,,,,,,,,,,,,,,,,
,,,,,,5e80b4893b435a0009ea44e6,62bbfb1ff9b1e90a41468300,2022-06-29_09h20.30.484,Colour_Asymmetry_Pilot,2022.1.3,Win32,60.06006006,62bbe60bf3d75ef465d3e404,0,149,149,43,1,twofour,,,,,,,,,,,,,,,,,,,,,,,,,,,,,,,,,,,,,,,,,,,,,,,,,,,,,,,,,,,,,,,,,,,,,,,,,,,,,,,,,,,,,,,,,,,,,,,,,,,,,,,,,,,,,,,,,,,,,,,,,,,,,,,,,,,,,,,,,,,,,,,,,,,,,,,,
,,,,,,5e80b4893b435a0009ea44e6,62bbfb1ff9b1e90a41468300,2022-06-29_09h20.30.484,Colour_Asymmetry_Pilot,2022.1.3,Win32,60.06006006,62bbe60bf3d75ef465d3e404,0,150,150,9,1,onethree,,,,,,,,,,,,,,,,,,,,,,,,,,,,,,,,,,,,,,,,,,,,,,,,,,,,,,,,,,,,,,,,,,,,,,,,,,,,,,,,,,,,,,,,,,,,,,,,,,,,,,,,,,,,,,,,,,,,,,,,,,,,,,,,,,,,,,,,,,,,,,,,,,,,,,,,
,,,,,,5e80b4893b435a0009ea44e6,62bbfb1ff9b1e90a41468300,2022-06-29_09h20.30.484,Colour_Asymmetry_Pilot,2022.1.3,Win32,60.06006006,62bbe60bf3d75ef465d3e404,0,151,151,120,1,onetwo,,,,,,,,,,,,,,,,,,,,,,,,,,,,,,,,,,,,,,,,,,,,,,,,,,,,,,,,,,,,,,,,,,,,,,,,,,,,,,,,,,,,,,,,,,,,,,,,,,,,,,,,,,,,,,,,,,,,,,,,,,,,,,,,,,,,,,,,,,,,,,,,,,,,,,,,
,,,,,,5e80b4893b435a0009ea44e6,62bbfb1ff9b1e90a41468300,2022-06-29_09h20.30.484,Colour_Asymmetry_Pilot,2022.1.3,Win32,60.06006006,62bbe60bf3d75ef465d3e404,0,152,152,28,1,threeone,,,,,,,,,,,,,,,,,,,,,,,,,,,,,,,,,,,,,,,,,,,,,,,,,,,,,,,,,,,,,,,,,,,,,,,,,,,,,,,,,,,,,,,,,,,,,,,,,,,,,,,,,,,,,,,,,,,,,,,,,,,,,,,,,,,,,,,,,,,,,,,,,,,,,,,,
,,,,,,5e80b4893b435a0009ea44e6,62bbfb1ff9b1e90a41468300,2022-06-29_09h20.30.484,Colour_Asymmetry_Pilot,2022.1.3,Win32,60.06006006,62bbe60bf3d75ef465d3e404,0,153,153,19,1,twofour,,,,,,,,,,,,,,,,,,,,,,,,,,,,,,,,,,,,,,,,,,,,,,,,,,,,,,,,,,,,,,,,,,,,,,,,,,,,,,,,,,,,,,,,,,,,,,,,,,,,,,,,,,,,,,,,,,,,,,,,,,,,,,,,,,,,,,,,,,,,,,,,,,,,,,,,
,,,,,,5e80b4893b435a0009ea44e6,62bbfb1ff9b1e90a41468300,2022-06-29_09h20.30.484,Colour_Asymmetry_Pilot,2022.1.3,Win32,60.06006006,62bbe60bf3d75ef465d3e404,0,154,154,37,1,threefour,,,,,,,,,,,,,,,,,,,,,,,,,,,,,,,,,,,,,,,,,,,,,,,,,,,,,,,,,,,,,,,,,,,,,,,,,,,,,,,,,,,,,,,,,,,,,,,,,,,,,,,,,,,,,,,,,,,,,,,,,,,,,,,,,,,,,,,,,,,,,,,,,,,,,,,,
,,,,,,5e80b4893b435a0009ea44e6,62bbfb1ff9b1e90a41468300,2022-06-29_09h20.30.484,Colour_Asymmetry_Pilot,2022.1.3,Win32,60.06006006,62bbe60bf3d75ef465d3e404,0,155,155,53,1,threefour,,,,,,,,,,,,,,,,,,,,,,,,,,,,,,,,,,,,,,,,,,,,,,,,,,,,,,,,,,,,,,,,,,,,,,,,,,,,,,,,,,,,,,,,,,,,,,,,,,,,,,,,,,,,,,,,,,,,,,,,,,,,,,,,,,,,,,,,,,,,,,,,,,,,,,,,
,,,,,,5e80b4893b435a0009ea44e6,62bbfb1ff9b1e90a41468300,2022-06-29_09h20.30.484,Colour_Asymmetry_Pilot,2022.1.3,Win32,60.06006006,62bbe60bf3d75ef465d3e404,0,156,156,34,1,twoone,,,,,,,,,,,,,,,,,,,,,,,,,,,,,,,,,,,,,,,,,,,,,,,,,,,,,,,,,,,,,,,,,,,,,,,,,,,,,,,,,,,,,,,,,,,,,,,,,,,,,,,,,,,,,,,,,,,,,,,,,,,,,,,,,,,,,,,,,,,,,,,,,,,,,,,,
,,,,,,5e80b4893b435a0009ea44e6,62bbfb1ff9b1e90a41468300,2022-06-29_09h20.30.484,Colour_Asymmetry_Pilot,2022.1.3,Win32,60.06006006,62bbe60bf3d75ef465d3e404,0,157,157,161,1,onethree,,,,,,,,,,,,,,,,,,,,,,,,,,,,,,,,,,,,,,,,,,,,,,,,,,,,,,,,,,,,,,,,,,,,,,,,,,,,,,,,,,,,,,,,,,,,,,,,,,,,,,,,,,,,,,,,,,,,,,,,,,,,,,,,,,,,,,,,,,,,,,,,,,,,,,,,
,,,,,,5e80b4893b435a0009ea44e6,62bbfb1ff9b1e90a41468300,2022-06-29_09h20.30.484,Colour_Asymmetry_Pilot,2022.1.3,Win32,60.06006006,62bbe60bf3d75ef465d3e404,0,158,158,91,1,twofour,,,,,,,,,,,,,,,,,,,,,,,,,,,,,,,,,,,,,,,,,,,,,,,,,,,,,,,,,,,,,,,,,,,,,,,,,,,,,,,,,,,,,,,,,,,,,,,,,,,,,,,,,,,,,,,,,,,,,,,,,,,,,,,,,,,,,,,,,,,,,,,,,,,,,,,,
,,,,,,5e80b4893b435a0009ea44e6,62bbfb1ff9b1e90a41468300,2022-06-29_09h20.30.484,Colour_Asymmetry_Pilot,2022.1.3,Win32,60.06006006,62bbe60bf3d75ef465d3e404,0,159,159,101,1,threefour,,,,,,,,,,,,,,,,,,,,,,,,,,,,,,,,,,,,,,,,,,,,,,,,,,,,,,,,,,,,,,,,,,,,,,,,,,,,,,,,,,,,,,,,,,,,,,,,,,,,,,,,,,,,,,,,,,,,,,,,,,,,,,,,,,,,,,,,,,,,,,,,,,,,,,,,
,,,,,,5e80b4893b435a0009ea44e6,62bbfb1ff9b1e90a41468300,2022-06-29_09h20.30.484,Colour_Asymmetry_Pilot,2022.1.3,Win32,60.06006006,62bbe60bf3d75ef465d3e404,0,160,160,17,1,onethree,,,,,,,,,,,,,,,,,,,,,,,,,,,,,,,,,,,,,,,,,,,,,,,,,,,,,,,,,,,,,,,,,,,,,,,,,,,,,,,,,,,,,,,,,,,,,,,,,,,,,,,,,,,,,,,,,,,,,,,,,,,,,,,,,,,,,,,,,,,,,,,,,,,,,,,,
,,,,,,5e80b4893b435a0009ea44e6,62bbfb1ff9b1e90a41468300,2022-06-29_09h20.30.484,Colour_Asymmetry_Pilot,2022.1.3,Win32,60.06006006,62bbe60bf3d75ef465d3e404,0,161,161,124,1,threeone,,,,,,,,,,,,,,,,,,,,,,,,,,,,,,,,,,,,,,,,,,,,,,,,,,,,,,,,,,,,,,,,,,,,,,,,,,,,,,,,,,,,,,,,,,,,,,,,,,,,,,,,,,,,,,,,,,,,,,,,,,,,,,,,,,,,,,,,,,,,,,,,,,,,,,,,
,,,,,,5e80b4893b435a0009ea44e6,62bbfb1ff9b1e90a41468300,2022-06-29_09h20.30.484,Colour_Asymmetry_Pilot,2022.1.3,Win32,60.06006006,62bbe60bf3d75ef465d3e404,,,,,,,space,1.7463,space,3.8504,space,15.7038,space,6.4889,space,0.8977,space,1241.394,"[0.9763999999999999,-0.1137999999999999,-0.6314]",fourthree,"[0.05879999999999996,0.2784,0.5841999999999998]",-3,6.6136,-83.66665649,39.33331299,1,0,0,response7disk_5,7.666687012,2.666656494,1,0,0,rectangle_8,44.33337402,26.66665649,1,0,0,response1disk_7,6,3,5.666687012,0,1,0,0,rectangle_4,0,0,0,0,1,,,,,,,,,,,,,,,,,,,,,,,,,,,,,,,,,,,,,,,,,,,,,,,,,,,,,,,,,,,,,,,,,,,,,,,,,,,,,,,,,,,,,,,,,,,,,,,,,,,,,,,,
,,,,,,5e80b4893b435a0009ea44e6,62bbfb1ff9b1e90a41468300,2022-06-29_09h20.30.484,Colour_Asymmetry_Pilot,2022.1.3,Win32,60.06006006,62bbe60bf3d75ef465d3e404,,,,,,,,,,,,,,,,,,,"[-0.6706000000000001,-0.6157999999999999,-0.6786]",onethree,"[-0.06680000000000008,-0.45100000000000007,-0.906]",-1,2.9032,-34.33331299,-54,1,0,0,response5disk_5,4.333343506,0,1,0,0,rectangle_8,59,30,1,0,0,response1disk_7,6,3,15,0.666656494,1,0,0,rectangle_4,1,0,1,0,1,,,,,,,,,,,,,,,,,,,,,,,,,,,,,,,,,,,,,,,,,,,,,,,,,,,,,,,,,,,,,,,,,,,,,,,,,,,,,,,,,,,,,,,,,,,,,,,,,,,,,,,,
,,,,,,5e80b4893b435a0009ea44e6,62bbfb1ff9b1e90a41468300,2022-06-29_09h20.30.484,Colour_Asymmetry_Pilot,2022.1.3,Win32,60.06006006,62bbe60bf3d75ef465d3e404,,,,,,,,,,,,,,,,,,,"[-0.5452,-0.608,0.2470000000000001]",fourtwo,"[0.9372,0.9450000000000001,0.8980000000000001]",-3,3.7373,-48.33331299,14,1,0,0,response7disk_5,14.33334351,4.666656494,1,0,0,rectangle_8,14.33334351,4.666656494,1,0,0,,,3,14.33334351,4.666656494,1,0,0,,2,0,2,0,1,,,,,,,,,,,,,,,,,,,,,,,,,,,,,,,,,,,,,,,,,,,,,,,,,,,,,,,,,,,,,,,,,,,,,,,,,,,,,,,,,,,,,,,,,,,,,,,,,,,,,,,,
,,,,,,5e80b4893b435a0009ea44e6,62bbfb1ff9b1e90a41468300,2022-06-29_09h20.30.484,Colour_Asymmetry_Pilot,2022.1.3,Win32,60.06006006,62bbe60bf3d75ef465d3e404,,,,,,,,,,,,,,,,,,,"[-0.9844,-0.9688,-0.9922]",threefour,"[-0.20799999999999996,-0.655,-0.01980000000000004]",-2,1.3653,-53,-28,1,0,0,response5disk_5,-2.333312988,-1.333343506,1,0,0,rectangle_8,-2.333312988,-1.333343506,1,0,0,,,3,-2.333312988,-1.333343506,1,0,0,,3,0,3,0,1,,,,,,,,,,,,,,,,,,,,,,,,,,,,,,,,,,,,,,,,,,,,,,,,,,,,,,,,,,,,,,,,,,,,,,,,,,,,,,,,,,,,,,,,,,,,,,,,,,,,,,,,
,,,,,,5e80b4893b435a0009ea44e6,62bbfb1ff9b1e90a41468300,2022-06-29_09h20.30.484,Colour_Asymmetry_Pilot,2022.1.3,Win32,60.06006006,62bbe60bf3d75ef465d3e404,,,,,,,,,,,,,,,,,,,"[0.9213999999999998,0.6391999999999998,-0.9922]",threefour,"[0.40379999999999994,0.09000000000000008,0.44300000000000006]",-2,0.8825,-32.33331299,-14.66668701,1,0,0,response5disk_5,15.66668701,-4,1,0,0,rectangle_8,15.66668701,-4,1,0,0,,,3,15.66668701,-4,1,0,0,,4,0,4,0,1,,,,,,,,,,,,,,,,,,,,,,,,,,,,,,,,,,,,,,,,,,,,,,,,,,,,,,,,,,,,,,,,,,,,,,,,,,,,,,,,,,,,,,,,,,,,,,,,,,,,,,,,
,,,,,,5e80b4893b435a0009ea44e6,62bbfb1ff9b1e90a41468300,2022-06-29_09h20.30.484,Colour_Asymmetry_Pilot,2022.1.3,Win32,60.06006006,62bbe60bf3d75ef465d3e404,,,,,,,,,,,,,,,,,,,"[0.4196,0.4665999999999999,0.3568]",twofour,"[-0.9138,-0.5296000000000001,-0.5529999999999999]",-2,1.1179,-66.33331299,-30.66668701,1,0,0,response5disk_5,-13.66665649,1.333312988,1,0,0,rectangle_8,-13.66665649,1.333312988,1,0,0,,,3,-13.66665649,1.333312988,1,0,0,,5,0,5,0,1,,,,,,,,,,,,,,,,,,,,,,,,,,,,,,,,,,,,,,,,,,,,,,,,,,,,,,,,,,,,,,,,,,,,,,,,,,,,,,,,,,,,,,,,,,,,,,,,,,,,,,,,
,,,,,,5e80b4893b435a0009ea44e6,62bbfb1ff9b1e90a41468300,2022-06-29_09h20.30.484,Colour_Asymmetry_Pilot,2022.1.3,Win32,60.06006006,62bbe60bf3d75ef465d3e404,,,,,,,,,,,,,,,,,,,"[-0.45899999999999996,-0.3256,-0.9374]",fourthree,"[0.34099999999999997,0.5841999999999998,-0.9844]",1,1.0515,25.66668701,-51.33334351,1,0,0,response3disk_5,12.33334351,5.333312988,1,0,0,rectangle_8,12.33334351,5.333312988,1,0,0,,,3,12.33334351,5.333312988,1,0,0,,6,0,6,0,1,,,,,,,,,,,,,,,,,,,,,,,,,,,,,,,,,,,,,,,,,,,,,,,,,,,,,,,,,,,,,,,,,,,,,,,,,,,,,,,,,,,,,,,,,,,,,,,,,,,,,,,,
,,,,,,5e80b4893b435a0009ea44e6,62bbfb1ff9b1e90a41468300,2022-06-29_09h20.30.484,Colour_Asymmetry_Pilot,2022.1.3,Win32,60.06006006,62bbe60bf3d75ef465d3e404,,,,,,,,,,,,,,,,,,,,fourthree,,-2,2.0191,,,,,,,,,,,,,,,,,,,,,,,,,,,,,,,,space,3.582,"[0.0351999999999999,0.41159999999999997,0.0038000000000000256]","[-0.2942,-0.7648,-0.7492000000000001]",-50.33331299,-24.66668701,1,0,0,response5disk,-7.666656494,0.666656494,1,0,0,rectangle,35.66668701,-26.66668701,1,0,0,response3disk_3,2,2,3.2042,1,3.666687012,4.666656494,1,0,0,rectangle,0,0,0,55,1,55,first,,,,,,,,,,,,,,,,,,,,,,,,,,,,,,,,,,,,,,,,,,,,,,,,,,,,,,,,,,,,,,,,,
,,,,,,5e80b4893b435a0009ea44e6,62bbfb1ff9b1e90a41468300,2022-06-29_09h20.30.484,Colour_Asymmetry_Pilot,2022.1.3,Win32,60.06006006,62bbe60bf3d75ef465d3e404,,,,,,,,,,,,,,,,,,,,twoone,,-3,1.318,,,,,,,,,,,,,,,,,,,,,,,,,,,,,,,,,,"[-0.10599999999999998,-0.10599999999999998,0.5841999999999998]","[0.23120000000000007,-0.7726,-0.34120000000000006]",-29,13.33331299,1,0,0,response7disk,-4.333312988,-6,1,0,0,rectangle,43.66668701,-26.66668701,1,0,0,response3disk_3,2,2,1.7183,1,3,-2.666687012,1,0,0,rectangle,0,1,1,159,1,78,second,,,,,,,,,,,,,,,,,,,,,,,,,,,,,,,,,,,,,,,,,,,,,,,,,,,,,,,,,,,,,,,,,
,,,,,,5e80b4893b435a0009ea44e6,62bbfb1ff9b1e90a41468300,2022-06-29_09h20.30.484,Colour_Asymmetry_Pilot,2022.1.3,Win32,60.06006006,62bbe60bf3d75ef465d3e404,,,,,,,,,,,,,,,,,,,,onetwo,,-3,1.135,,,,,,,,,,,,,,,,,,,,,,,,,,,,,,,,,,"[-0.9688,-0.4902000000000001,-0.12159999999999993]","[0.7646000000000002,0.07440000000000002,0.2704]",-66.33331299,21.33331299,1,0,0,response7disk,-19,-6.666687012,1,0,0,rectangle,-19,-6.666687012,1,0,0,,2,3,0.0006,0,-19,-6.666687012,1,0,0,,0,2,2,63,1,63,first,,,,,,,,,,,,,,,,,,,,,,,,,,,,,,,,,,,,,,,,,,,,,,,,,,,,,,,,,,,,,,,,,
,,,,,,5e80b4893b435a0009ea44e6,62bbfb1ff9b1e90a41468300,2022-06-29_09h20.30.484,Colour_Asymmetry_Pilot,2022.1.3,Win32,60.06006006,62bbe60bf3d75ef465d3e404,,,,,,,,,,,,,,,,,,,,twofour,,-3,3.2055,,,,,,,,,,,,,,,,,,,,,,,,,,,,,,,,,,"[0.30180000000000007,-0.7884,-0.9844]","[-0.8198,-0.5138,-0.7492000000000001]",-68.33331299,19.33331299,1,0,0,response7disk,-1.666656494,0.666656494,1,0,0,rectangle,51,-20.66668701,1,0,0,response3disk_3,2,2,2.4521,1,-6.333312988,-2.666687012,1,0,0,rectangle,0,3,3,160,1,79,second,,,,,,,,,,,,,,,,,,,,,,,,,,,,,,,,,,,,,,,,,,,,,,,,,,,,,,,,,,,,,,,,,
,,,,,,5e80b4893b435a0009ea44e6,62bbfb1ff9b1e90a41468300,2022-06-29_09h20.30.484,Colour_Asymmetry_Pilot,2022.1.3,Win32,60.06006006,62bbe60bf3d75ef465d3e404,,,,,,,,,,,,,,,,,,,,threefour,,3,0.8681,,,,,,,,,,,,,,,,,,,,,,,,,,,,,,,,,,"[0.9372,0.9450000000000001,0.8980000000000001]","[0.4196,0.4665999999999999,0.3568]",44.33337402,25.33331299,1,0,0,response1disk,-3.666656494,2.666656494,1,0,0,rectangle,-3.666656494,2.666656494,1,0,0,,2,1,0.0006,0,-3.666656494,2.666656494,1,0,0,,0,4,4,12,1,12,first,,,,,,,,,,,,,,,,,,,,,,,,,,,,,,,,,,,,,,,,,,,,,,,,,,,,,,,,,,,,,,,,,
,,,,,,5e80b4893b435a0009ea44e6,62bbfb1ff9b1e90a41468300,2022-06-29_09h20.30.484,Colour_Asymmetry_Pilot,2022.1.3,Win32,60.06006006,62bbe60bf3d75ef465d3e404,,,,,,,,,,,,,,,,,,,,twoone,,2,1.7545,,,,,,,,,,,,,,,,,,,,,,,,,,,,,,,,,,"[-0.6,0.16860000000000008,0.44300000000000006]","[-0.38039999999999996,-0.4276,-0.1452]",40.33337402,-14,1,0,0,response3disk,-9,0,1,0,0,rectangle,-9,0,1,0,0,,2,2,0.0006,0,-9,0,1,0,0,,0,5,5,133,1,52,second,,,,,,,,,,,,,,,,,,,,,,,,,,,,,,,,,,,,,,,,,,,,,,,,,,,,,,,,,,,,,,,,,
,,,,,,5e80b4893b435a0009ea44e6,62bbfb1ff9b1e90a41468300,2022-06-29_09h20.30.484,Colour_Asymmetry_Pilot,2022.1.3,Win32,60.06006006,62bbe60bf3d75ef465d3e404,,,,,,,,,,,,,,,,,,,,threefour,,-2,1.2016,,,,,,,,,,,,,,,,,,,,,,,,,,,,,,,,,,"[0.3802000000000001,0.19199999999999995,-0.6394]","[-0.8982,-0.37259999999999993,0.2784]",-34.33331299,-21.33334351,1,0,0,response5disk,3.666687012,-8.666687012,1,0,0,rectangle,3.666687012,-8.666687012,1,0,0,,2,1,0.0006,0,3.666687012,-8.666687012,1,0,0,,0,6,6,71,1,71,first,,,,,,,,,,,,,,,,,,,,,,,,,,,,,,,,,,,,,,,,,,,,,,,,,,,,,,,,,,,,,,,,,
,,,,,,5e80b4893b435a0009ea44e6,62bbfb1ff9b1e90a41468300,2022-06-29_09h20.30.484,Colour_Asymmetry_Pilot,2022.1.3,Win32,60.06006006,62bbe60bf3d75ef465d3e404,,,,,,,,,,,,,,,,,,,,onetwo,,-3,1.2338,,,,,,,,,,,,,,,,,,,,,,,,,,,,,,,,,,"[-0.8118,-0.8198,-0.5452]","[0.37240000000000006,0.4980000000000002,-0.2864]",-49,10.66665649,1,0,0,response7disk,-9.666656494,-5.333343506,1,0,0,rectangle,-9.666656494,-5.333343506,1,0,0,,2,3,0.0007,0,-9.666656494,-5.333343506,1,0,0,,0,7,7,156,1,75,second,,,,,,,,,,,,,,,,,,,,,,,,,,,,,,,,,,,,,,,,,,,,,,,,,,,,,,,,,,,,,,,,,
,,,,,,5e80b4893b435a0009ea44e6,62bbfb1ff9b1e90a41468300,2022-06-29_09h20.30.484,Colour_Asymmetry_Pilot,2022.1.3,Win32,60.06006006,62bbe60bf3d75ef465d3e404,,,,,,,,,,,,,,,,,,,,onetwo,,-2,0.7175,,,,,,,,,,,,,,,,,,,,,,,,,,,,,,,,,,"[0.18419999999999992,-0.4276,-0.404]","[0.34099999999999997,0.5841999999999998,-0.9844]",-41.66665649,-27.33334351,1,0,0,response5disk,11.66668701,2,1,0,0,rectangle,11.66668701,2,1,0,0,,2,1,0.0005,0,11.66668701,2,1,0,0,,0,8,8,111,1,30,second,,,,,,,,,,,,,,,,,,,,,,,,,,,,,,,,,,,,,,,,,,,,,,,,,,,,,,,,,,,,,,,,,
,,,,,,5e80b4893b435a0009ea44e6,62bbfb1ff9b1e90a41468300,2022-06-29_09h20.30.484,Colour_Asymmetry_Pilot,2022.1.3,Win32,60.06006006,62bbe60bf3d75ef465d3e404,,,,,,,,,,,,,,,,,,,,threeone,,2,0.8175,,,,,,,,,,,,,,,,,,,,,,,,,,,,,,,,,,"[0.37240000000000006,-0.050999999999999934,-0.5216]","[0.8274000000000001,-0.5844,-0.9452]",49,-27.33334351,1,0,0,response3disk,3.666687012,-6,1,0,0,rectangle,3.666687012,-6,1,0,0,,2,3,0.0006,0,3.666687012,-6,1,0,0,,0,9,9,67,1,67,first,,,,,,,,,,,,,,,,,,,,,,,,,,,,,,,,,,,,,,,,,,,,,,,,,,,,,,,,,,,,,,,,,
,,,,,,5e80b4893b435a0009ea44e6,62bbfb1ff9b1e90a41468300,2022-06-29_09h20.30.484,Colour_Asymmetry_Pilot,2022.1.3,Win32,60.06006006,62bbe60bf3d75ef465d3e404,,,,,,,,,,,,,,,,,,,,twofour,,-3,1.6028,,,,,,,,,,,,,,,,,,,,,,,,,,,,,,,,,,"[0.05879999999999996,0.2784,0.5841999999999998]","[0.8274000000000001,-0.5844,-0.9452]",-35,14.66665649,1,0,0,response7disk,-1.666656494,-8,1,0,0,rectangle,-1.666656494,-8,1,0,0,,2,1,0.0008,0,-1.666656494,-8,1,0,0,,0,10,10,99,1,18,second,,,,,,,,,,,,,,,,,,,,,,,,,,,,,,,,,,,,,,,,,,,,,,,,,,,,,,,,,,,,,,,,,
,,,,,,5e80b4893b435a0009ea44e6,62bbfb1ff9b1e90a41468300,2022-06-29_09h20.30.484,Colour_Asymmetry_Pilot,2022.1.3,Win32,60.06006006,62bbe60bf3d75ef465d3e404,,,,,,,,,,,,,,,,,,,,twoone,,1,1.6356,,,,,,,,,,,,,,,,,,,,,,,,,,,,,,,,,,"[0.6547999999999998,-0.043199999999999905,-0.011800000000000033]","[0.796,0.2156,-0.27859999999999996]",20.33334351,-54.66668701,1,0,0,response3disk,11.66668701,6,1,0,0,rectangle,11.66668701,6,1,0,0,,2,3,0.0007,0,11.66668701,6,1,0,0,,0,11,11,107,1,26,second,,,,,,,,,,,,,,,,,,,,,,,,,,,,,,,,,,,,,,,,,,,,,,,,,,,,,,,,,,,,,,,,,
,,,,,,5e80b4893b435a0009ea44e6,62bbfb1ff9b1e90a41468300,2022-06-29_09h20.30.484,Colour_Asymmetry_Pilot,2022.1.3,Win32,60.06006006,62bbe60bf3d75ef465d3e404,,,,,,,,,,,,,,,,,,,,twofour,,1,1.1677,,,,,,,,,,,,,,,,,,,,,,,,,,,,,,,,,,"[-0.17659999999999998,0.3253999999999999,0.19999999999999996]","[-0.6235999999999999,-0.6786,-0.08239999999999992]",20.33334351,-56,1,0,0,response3disk,7,4,1,0,0,rectangle,7,4,1,0,0,,2,3,0.0002,0,7,4,1,0,0,,0,12,12,157,1,76,second,,,,,,,,,,,,,,,,,,,,,,,,,,,,,,,,,,,,,,,,,,,,,,,,,,,,,,,,,,,,,,,,,
,,,,,,5e80b4893b435a0009ea44e6,62bbfb1ff9b1e90a41468300,2022-06-29_09h20.30.484,Colour_Asymmetry_Pilot,2022.1.3,Win32,60.06006006,62bbe60bf3d75ef465d3e404,,,,,,,,,,,,,,,,,,,,threefour,,3,0.7005,,,,,,,,,,,,,,,,,,,,,,,,,,,,,,,,,,"[-0.38039999999999996,-0.4276,-0.1452]","[-0.9688,-0.7412000000000001,-0.4902000000000001]",32.33334351,19.33331299,1,0,0,response1disk,5,-6.666687012,1,0,0,rectangle,5,-6.666687012,1,0,0,,2,2,0.0007,0,5,-6.666687012,1,0,0,,0,13,13,138,1,57,second,,,,,,,,,,,,,,,,,,,,,,,,,,,,,,,,,,,,,,,,,,,,,,,,,,,,,,,,,,,,,,,,,
,,,,,,5e80b4893b435a0009ea44e6,62bbfb1ff9b1e90a41468300,2022-06-29_09h20.30.484,Colour_Asymmetry_Pilot,2022.1.3,Win32,60.06006006,62bbe60bf3d75ef465d3e404,,,,,,,,,,,,,,,,,,,,onethree,,3,0.7682,,,,,,,,,,,,,,,,,,,,,,,,,,,,,,,,,,"[0.9763999999999999,0.30979999999999985,-0.6786]","[1,0.12939999999999996,-1]",25,20,1,0,0,response1disk,-2.333312988,-4,1,0,0,rectangle,-2.333312988,-4,1,0,0,,2,1,0.0006,0,-2.333312988,-4,1,0,0,,0,14,14,118,1,37,second,,,,,,,,,,,,,,,,,,,,,,,,,,,,,,,,,,,,,,,,,,,,,,,,,,,,,,,,,,,,,,,,,
,,,,,,5e80b4893b435a0009ea44e6,62bbfb1ff9b1e90a41468300,2022-06-29_09h20.30.484,Colour_Asymmetry_Pilot,2022.1.3,Win32,60.06006006,62bbe60bf3d75ef465d3e404,,,,,,,,,,,,,,,,,,,,fourthree,,-1,1.2674,,,,,,,,,,,,,,,,,,,,,,,,,,,,,,,,,,"[-0.6235999999999999,-0.6786,-0.08239999999999992]","[-0.45899999999999996,-0.3256,-0.9374]",-22.33331299,-22.66668701,1,0,0,response5disk,-11.66665649,-2,1,0,0,rectangle,-11.66665649,-2,1,0,0,,2,2,0.0007,0,-11.66665649,-2,1,0,0,,0,15,15,127,1,46,second,,,,,,,,,,,,,,,,,,,,,,,,,,,,,,,,,,,,,,,,,,,,,,,,,,,,,,,,,,,,,,,,,
,,,,,,5e80b4893b435a0009ea44e6,62bbfb1ff9b1e90a41468300,2022-06-29_09h20.30.484,Colour_Asymmetry_Pilot,2022.1.3,Win32,60.06006006,62bbe60bf3d75ef465d3e404,,,,,,,,,,,,,,,,,,,,fourthree,,-3,1.3018,,,,,,,,,,,,,,,,,,,,,,,,,,,,,,,,,,"[0.7646000000000002,0.07440000000000002,0.2704]","[-0.9688,-0.4902000000000001,-0.12159999999999993]",-22.33331299,14,1,0,0,response7disk,7.666687012,2.666656494,1,0,0,rectangle,7.666687012,2.666656494,1,0,0,,2,3,0.0006,0,7.666687012,2.666656494,1,0,0,,0,16,16,144,1,63,second,,,,,,,,,,,,,,,,,,,,,,,,,,,,,,,,,,,,,,,,,,,,,,,,,,,,,,,,,,,,,,,,,
,,,,,,5e80b4893b435a0009ea44e6,62bbfb1ff9b1e90a41468300,2022-06-29_09h20.30.484,Colour_Asymmetry_Pilot,2022.1.3,Win32,60.06006006,62bbe60bf3d75ef465d3e404,,,,,,,,,,,,,,,,,,,,fourtwo,,-3,1.6167,,,,,,,,,,,,,,,,,,,,,,,,,,,,,,,,,,"[0.9842,0.7409999999999999,-0.6628000000000001]","[-0.09019999999999995,0.44300000000000006,0.5371999999999999]",-77.66665649,25.33331299,1,0,0,response7disk,-9,-3.333343506,1,0,0,rectangle,-9,-3.333343506,1,0,0,,2,1,0.0009,0,-9,-3.333343506,1,0,0,,0,17,17,145,1,64,second,,,,,,,,,,,,,,,,,,,,,,,,,,,,,,,,,,,,,,,,,,,,,,,,,,,,,,,,,,,,,,,,,
