trials.thisRepN,trials.thisTrialN,trials.thisN,trials.thisIndex,trials.ran,Colourcodes,participant,session,date,expName,psychopyVersion,OS,frameRate,study_id,trials_4.thisRepN,trials_4.thisTrialN,trials_4.thisN,trials_4.thisIndex,trials_4.ran,StimulusPos,key_resp.keys,key_resp.rt,key_resp_2.keys,key_resp_2.rt,key_resp_15.keys,key_resp_15.rt,key_resp_17.keys,key_resp_17.rt,key_resp_9.keys,key_resp_9.rt,key_resp_10.keys,key_resp_10.rt,Circle1_col,Ecc,Circle2_col,similarity,response_time,mouse_5.x,mouse_5.y,mouse_5.leftButton,mouse_5.midButton,mouse_5.rightButton,mouse_5.clicked_name,mouse_10.x,mouse_10.y,mouse_10.leftButton,mouse_10.midButton,mouse_10.rightButton,mouse_10.clicked_name,mouse_7.x,mouse_7.y,mouse_7.leftButton,mouse_7.midButton,mouse_7.rightButton,mouse_7.clicked_name,catchprac,catchnumberprac,mouse_6.x,mouse_6.y,mouse_6.leftButton,mouse_6.midButton,mouse_6.rightButton,mouse_6.clicked_name,duringprac.thisRepN,duringprac.thisTrialN,duringprac.thisN,duringprac.thisIndex,duringprac.ran,key_resp_22.keys,key_resp_22.rt,Circle1_colour,Circle2_colour,mouse.x,mouse.y,mouse.leftButton,mouse.midButton,mouse.rightButton,mouse.clicked_name,mouse_2.x,mouse_2.y,mouse_2.leftButton,mouse_2.midButton,mouse_2.rightButton,mouse_2.clicked_name,mouse_3.x,mouse_3.y,mouse_3.leftButton,mouse_3.midButton,mouse_3.rightButton,catchresponse,catchnumber,response_time_catch,Catch,mouse_11.x,mouse_11.y,mouse_11.leftButton,mouse_11.midButton,mouse_11.rightButton,trials_2.thisRepN,trials_2.thisTrialN,trials_2.thisN,trials_2.thisIndex,trials_2.ran,Colourpair,Temporder,mouse_3.clicked_name,mouse_11.clicked_name,trials_3.thisRepN,trials_3.thisTrialN,trials_3.thisN,trials_3.thisIndex,trials_3.ran,key_resp_instr_Ishi.keys,key_resp_instr_Ishi.rt,Ishi_trial_keyresp.keys,Ishi_trial_keyresp.rt,Ishi_textbox.text,Ishi_loop.thisRepN,Ishi_loop.thisTrialN,Ishi_loop.thisN,Ishi_loop.thisIndex,Ishi_loop.ran,imageaddress,textbox.text,mouse_4.x,mouse_4.y,mouse_4.leftButton,mouse_4.midButton,mouse_4.rightButton,mouse_4.clicked_name,textbox_2.text,mouse_8.x,mouse_8.y,mouse_8.leftButton,mouse_8.midButton,mouse_8.rightButton,mouse_8.clicked_name,textbox_3.text,mouse_9.x,mouse_9.y,mouse_9.leftButton,mouse_9.midButton,mouse_9.rightButton,mouse_9.clicked_name,textbox_4.text,mouse_12.x,mouse_12.y,mouse_12.leftButton,mouse_12.midButton,mouse_12.rightButton,mouse_12.clicked_name,textbox_5.text,mouse_13.x,mouse_13.y,mouse_13.leftButton,mouse_13.midButton,mouse_13.rightButton,mouse_13.clicked_name,textbox_6.text,mouse_14.x,mouse_14.y,mouse_14.leftButton,mouse_14.midButton,mouse_14.rightButton,mouse_14.clicked_name,textbox_7.text,mouse_15.x,mouse_15.y,mouse_15.leftButton,mouse_15.midButton,mouse_15.rightButton,mouse_15.clicked_name
0,0,0,47,1,,615df4022ce7fddd8e00e31d,62bbf95fd535a3dab3668cf8,2022-06-29_09h08.26.570,Colour_Asymmetry_Pilot,2022.1.3,Win32,60.09615385,62bbe60bf3d75ef465d3e404,,,,,,,,,,,,,,,,,,,,,,,,,,,,,,,,,,,,,,,,,,,,,,,,,,,,,,,,,,,,,,,,,,,,,,,,,,,,,,,,,,,,,,,,,,,,,,,,,,,,,,,,,,,,,,,,,,,,,,,,,,,,,,,,,,,,,,,,,,,,,,,,,,,,,,,,,,,,,,
0,1,1,60,1,,615df4022ce7fddd8e00e31d,62bbf95fd535a3dab3668cf8,2022-06-29_09h08.26.570,Colour_Asymmetry_Pilot,2022.1.3,Win32,60.09615385,62bbe60bf3d75ef465d3e404,,,,,,,,,,,,,,,,,,,,,,,,,,,,,,,,,,,,,,,,,,,,,,,,,,,,,,,,,,,,,,,,,,,,,,,,,,,,,,,,,,,,,,,,,,,,,,,,,,,,,,,,,,,,,,,,,,,,,,,,,,,,,,,,,,,,,,,,,,,,,,,,,,,,,,,,,,,,,,
0,2,2,72,1,,615df4022ce7fddd8e00e31d,62bbf95fd535a3dab3668cf8,2022-06-29_09h08.26.570,Colour_Asymmetry_Pilot,2022.1.3,Win32,60.09615385,62bbe60bf3d75ef465d3e404,,,,,,,,,,,,,,,,,,,,,,,,,,,,,,,,,,,,,,,,,,,,,,,,,,,,,,,,,,,,,,,,,,,,,,,,,,,,,,,,,,,,,,,,,,,,,,,,,,,,,,,,,,,,,,,,,,,,,,,,,,,,,,,,,,,,,,,,,,,,,,,,,,,,,,,,,,,,,,
0,3,3,17,1,,615df4022ce7fddd8e00e31d,62bbf95fd535a3dab3668cf8,2022-06-29_09h08.26.570,Colour_Asymmetry_Pilot,2022.1.3,Win32,60.09615385,62bbe60bf3d75ef465d3e404,,,,,,,,,,,,,,,,,,,,,,,,,,,,,,,,,,,,,,,,,,,,,,,,,,,,,,,,,,,,,,,,,,,,,,,,,,,,,,,,,,,,,,,,,,,,,,,,,,,,,,,,,,,,,,,,,,,,,,,,,,,,,,,,,,,,,,,,,,,,,,,,,,,,,,,,,,,,,,
0,4,4,61,1,,615df4022ce7fddd8e00e31d,62bbf95fd535a3dab3668cf8,2022-06-29_09h08.26.570,Colour_Asymmetry_Pilot,2022.1.3,Win32,60.09615385,62bbe60bf3d75ef465d3e404,,,,,,,,,,,,,,,,,,,,,,,,,,,,,,,,,,,,,,,,,,,,,,,,,,,,,,,,,,,,,,,,,,,,,,,,,,,,,,,,,,,,,,,,,,,,,,,,,,,,,,,,,,,,,,,,,,,,,,,,,,,,,,,,,,,,,,,,,,,,,,,,,,,,,,,,,,,,,,
0,5,5,48,1,,615df4022ce7fddd8e00e31d,62bbf95fd535a3dab3668cf8,2022-06-29_09h08.26.570,Colour_Asymmetry_Pilot,2022.1.3,Win32,60.09615385,62bbe60bf3d75ef465d3e404,,,,,,,,,,,,,,,,,,,,,,,,,,,,,,,,,,,,,,,,,,,,,,,,,,,,,,,,,,,,,,,,,,,,,,,,,,,,,,,,,,,,,,,,,,,,,,,,,,,,,,,,,,,,,,,,,,,,,,,,,,,,,,,,,,,,,,,,,,,,,,,,,,,,,,,,,,,,,,
0,6,6,26,1,,615df4022ce7fddd8e00e31d,62bbf95fd535a3dab3668cf8,2022-06-29_09h08.26.570,Colour_Asymmetry_Pilot,2022.1.3,Win32,60.09615385,62bbe60bf3d75ef465d3e404,,,,,,,,,,,,,,,,,,,,,,,,,,,,,,,,,,,,,,,,,,,,,,,,,,,,,,,,,,,,,,,,,,,,,,,,,,,,,,,,,,,,,,,,,,,,,,,,,,,,,,,,,,,,,,,,,,,,,,,,,,,,,,,,,,,,,,,,,,,,,,,,,,,,,,,,,,,,,,
0,7,7,8,1,,615df4022ce7fddd8e00e31d,62bbf95fd535a3dab3668cf8,2022-06-29_09h08.26.570,Colour_Asymmetry_Pilot,2022.1.3,Win32,60.09615385,62bbe60bf3d75ef465d3e404,,,,,,,,,,,,,,,,,,,,,,,,,,,,,,,,,,,,,,,,,,,,,,,,,,,,,,,,,,,,,,,,,,,,,,,,,,,,,,,,,,,,,,,,,,,,,,,,,,,,,,,,,,,,,,,,,,,,,,,,,,,,,,,,,,,,,,,,,,,,,,,,,,,,,,,,,,,,,,
0,8,8,21,1,,615df4022ce7fddd8e00e31d,62bbf95fd535a3dab3668cf8,2022-06-29_09h08.26.570,Colour_Asymmetry_Pilot,2022.1.3,Win32,60.09615385,62bbe60bf3d75ef465d3e404,,,,,,,,,,,,,,,,,,,,,,,,,,,,,,,,,,,,,,,,,,,,,,,,,,,,,,,,,,,,,,,,,,,,,,,,,,,,,,,,,,,,,,,,,,,,,,,,,,,,,,,,,,,,,,,,,,,,,,,,,,,,,,,,,,,,,,,,,,,,,,,,,,,,,,,,,,,,,,
0,9,9,29,1,,615df4022ce7fddd8e00e31d,62bbf95fd535a3dab3668cf8,2022-06-29_09h08.26.570,Colour_Asymmetry_Pilot,2022.1.3,Win32,60.09615385,62bbe60bf3d75ef465d3e404,,,,,,,,,,,,,,,,,,,,,,,,,,,,,,,,,,,,,,,,,,,,,,,,,,,,,,,,,,,,,,,,,,,,,,,,,,,,,,,,,,,,,,,,,,,,,,,,,,,,,,,,,,,,,,,,,,,,,,,,,,,,,,,,,,,,,,,,,,,,,,,,,,,,,,,,,,,,,,
0,10,10,32,1,,615df4022ce7fddd8e00e31d,62bbf95fd535a3dab3668cf8,2022-06-29_09h08.26.570,Colour_Asymmetry_Pilot,2022.1.3,Win32,60.09615385,62bbe60bf3d75ef465d3e404,,,,,,,,,,,,,,,,,,,,,,,,,,,,,,,,,,,,,,,,,,,,,,,,,,,,,,,,,,,,,,,,,,,,,,,,,,,,,,,,,,,,,,,,,,,,,,,,,,,,,,,,,,,,,,,,,,,,,,,,,,,,,,,,,,,,,,,,,,,,,,,,,,,,,,,,,,,,,,
0,11,11,56,1,,615df4022ce7fddd8e00e31d,62bbf95fd535a3dab3668cf8,2022-06-29_09h08.26.570,Colour_Asymmetry_Pilot,2022.1.3,Win32,60.09615385,62bbe60bf3d75ef465d3e404,,,,,,,,,,,,,,,,,,,,,,,,,,,,,,,,,,,,,,,,,,,,,,,,,,,,,,,,,,,,,,,,,,,,,,,,,,,,,,,,,,,,,,,,,,,,,,,,,,,,,,,,,,,,,,,,,,,,,,,,,,,,,,,,,,,,,,,,,,,,,,,,,,,,,,,,,,,,,,
0,12,12,23,1,,615df4022ce7fddd8e00e31d,62bbf95fd535a3dab3668cf8,2022-06-29_09h08.26.570,Colour_Asymmetry_Pilot,2022.1.3,Win32,60.09615385,62bbe60bf3d75ef465d3e404,,,,,,,,,,,,,,,,,,,,,,,,,,,,,,,,,,,,,,,,,,,,,,,,,,,,,,,,,,,,,,,,,,,,,,,,,,,,,,,,,,,,,,,,,,,,,,,,,,,,,,,,,,,,,,,,,,,,,,,,,,,,,,,,,,,,,,,,,,,,,,,,,,,,,,,,,,,,,,
0,13,13,19,1,,615df4022ce7fddd8e00e31d,62bbf95fd535a3dab3668cf8,2022-06-29_09h08.26.570,Colour_Asymmetry_Pilot,2022.1.3,Win32,60.09615385,62bbe60bf3d75ef465d3e404,,,,,,,,,,,,,,,,,,,,,,,,,,,,,,,,,,,,,,,,,,,,,,,,,,,,,,,,,,,,,,,,,,,,,,,,,,,,,,,,,,,,,,,,,,,,,,,,,,,,,,,,,,,,,,,,,,,,,,,,,,,,,,,,,,,,,,,,,,,,,,,,,,,,,,,,,,,,,,
0,14,14,50,1,,615df4022ce7fddd8e00e31d,62bbf95fd535a3dab3668cf8,2022-06-29_09h08.26.570,Colour_Asymmetry_Pilot,2022.1.3,Win32,60.09615385,62bbe60bf3d75ef465d3e404,,,,,,,,,,,,,,,,,,,,,,,,,,,,,,,,,,,,,,,,,,,,,,,,,,,,,,,,,,,,,,,,,,,,,,,,,,,,,,,,,,,,,,,,,,,,,,,,,,,,,,,,,,,,,,,,,,,,,,,,,,,,,,,,,,,,,,,,,,,,,,,,,,,,,,,,,,,,,,
0,15,15,10,1,,615df4022ce7fddd8e00e31d,62bbf95fd535a3dab3668cf8,2022-06-29_09h08.26.570,Colour_Asymmetry_Pilot,2022.1.3,Win32,60.09615385,62bbe60bf3d75ef465d3e404,,,,,,,,,,,,,,,,,,,,,,,,,,,,,,,,,,,,,,,,,,,,,,,,,,,,,,,,,,,,,,,,,,,,,,,,,,,,,,,,,,,,,,,,,,,,,,,,,,,,,,,,,,,,,,,,,,,,,,,,,,,,,,,,,,,,,,,,,,,,,,,,,,,,,,,,,,,,,,
0,16,16,80,1,,615df4022ce7fddd8e00e31d,62bbf95fd535a3dab3668cf8,2022-06-29_09h08.26.570,Colour_Asymmetry_Pilot,2022.1.3,Win32,60.09615385,62bbe60bf3d75ef465d3e404,,,,,,,,,,,,,,,,,,,,,,,,,,,,,,,,,,,,,,,,,,,,,,,,,,,,,,,,,,,,,,,,,,,,,,,,,,,,,,,,,,,,,,,,,,,,,,,,,,,,,,,,,,,,,,,,,,,,,,,,,,,,,,,,,,,,,,,,,,,,,,,,,,,,,,,,,,,,,,
0,17,17,81,1,,615df4022ce7fddd8e00e31d,62bbf95fd535a3dab3668cf8,2022-06-29_09h08.26.570,Colour_Asymmetry_Pilot,2022.1.3,Win32,60.09615385,62bbe60bf3d75ef465d3e404,,,,,,,,,,,,,,,,,,,,,,,,,,,,,,,,,,,,,,,,,,,,,,,,,,,,,,,,,,,,,,,,,,,,,,,,,,,,,,,,,,,,,,,,,,,,,,,,,,,,,,,,,,,,,,,,,,,,,,,,,,,,,,,,,,,,,,,,,,,,,,,,,,,,,,,,,,,,,,
0,18,18,4,1,,615df4022ce7fddd8e00e31d,62bbf95fd535a3dab3668cf8,2022-06-29_09h08.26.570,Colour_Asymmetry_Pilot,2022.1.3,Win32,60.09615385,62bbe60bf3d75ef465d3e404,,,,,,,,,,,,,,,,,,,,,,,,,,,,,,,,,,,,,,,,,,,,,,,,,,,,,,,,,,,,,,,,,,,,,,,,,,,,,,,,,,,,,,,,,,,,,,,,,,,,,,,,,,,,,,,,,,,,,,,,,,,,,,,,,,,,,,,,,,,,,,,,,,,,,,,,,,,,,,
0,19,19,40,1,,615df4022ce7fddd8e00e31d,62bbf95fd535a3dab3668cf8,2022-06-29_09h08.26.570,Colour_Asymmetry_Pilot,2022.1.3,Win32,60.09615385,62bbe60bf3d75ef465d3e404,,,,,,,,,,,,,,,,,,,,,,,,,,,,,,,,,,,,,,,,,,,,,,,,,,,,,,,,,,,,,,,,,,,,,,,,,,,,,,,,,,,,,,,,,,,,,,,,,,,,,,,,,,,,,,,,,,,,,,,,,,,,,,,,,,,,,,,,,,,,,,,,,,,,,,,,,,,,,,
0,20,20,44,1,,615df4022ce7fddd8e00e31d,62bbf95fd535a3dab3668cf8,2022-06-29_09h08.26.570,Colour_Asymmetry_Pilot,2022.1.3,Win32,60.09615385,62bbe60bf3d75ef465d3e404,,,,,,,,,,,,,,,,,,,,,,,,,,,,,,,,,,,,,,,,,,,,,,,,,,,,,,,,,,,,,,,,,,,,,,,,,,,,,,,,,,,,,,,,,,,,,,,,,,,,,,,,,,,,,,,,,,,,,,,,,,,,,,,,,,,,,,,,,,,,,,,,,,,,,,,,,,,,,,
0,21,21,63,1,,615df4022ce7fddd8e00e31d,62bbf95fd535a3dab3668cf8,2022-06-29_09h08.26.570,Colour_Asymmetry_Pilot,2022.1.3,Win32,60.09615385,62bbe60bf3d75ef465d3e404,,,,,,,,,,,,,,,,,,,,,,,,,,,,,,,,,,,,,,,,,,,,,,,,,,,,,,,,,,,,,,,,,,,,,,,,,,,,,,,,,,,,,,,,,,,,,,,,,,,,,,,,,,,,,,,,,,,,,,,,,,,,,,,,,,,,,,,,,,,,,,,,,,,,,,,,,,,,,,
0,22,22,76,1,,615df4022ce7fddd8e00e31d,62bbf95fd535a3dab3668cf8,2022-06-29_09h08.26.570,Colour_Asymmetry_Pilot,2022.1.3,Win32,60.09615385,62bbe60bf3d75ef465d3e404,,,,,,,,,,,,,,,,,,,,,,,,,,,,,,,,,,,,,,,,,,,,,,,,,,,,,,,,,,,,,,,,,,,,,,,,,,,,,,,,,,,,,,,,,,,,,,,,,,,,,,,,,,,,,,,,,,,,,,,,,,,,,,,,,,,,,,,,,,,,,,,,,,,,,,,,,,,,,,
0,23,23,59,1,,615df4022ce7fddd8e00e31d,62bbf95fd535a3dab3668cf8,2022-06-29_09h08.26.570,Colour_Asymmetry_Pilot,2022.1.3,Win32,60.09615385,62bbe60bf3d75ef465d3e404,,,,,,,,,,,,,,,,,,,,,,,,,,,,,,,,,,,,,,,,,,,,,,,,,,,,,,,,,,,,,,,,,,,,,,,,,,,,,,,,,,,,,,,,,,,,,,,,,,,,,,,,,,,,,,,,,,,,,,,,,,,,,,,,,,,,,,,,,,,,,,,,,,,,,,,,,,,,,,
0,24,24,1,1,,615df4022ce7fddd8e00e31d,62bbf95fd535a3dab3668cf8,2022-06-29_09h08.26.570,Colour_Asymmetry_Pilot,2022.1.3,Win32,60.09615385,62bbe60bf3d75ef465d3e404,,,,,,,,,,,,,,,,,,,,,,,,,,,,,,,,,,,,,,,,,,,,,,,,,,,,,,,,,,,,,,,,,,,,,,,,,,,,,,,,,,,,,,,,,,,,,,,,,,,,,,,,,,,,,,,,,,,,,,,,,,,,,,,,,,,,,,,,,,,,,,,,,,,,,,,,,,,,,,
0,25,25,16,1,,615df4022ce7fddd8e00e31d,62bbf95fd535a3dab3668cf8,2022-06-29_09h08.26.570,Colour_Asymmetry_Pilot,2022.1.3,Win32,60.09615385,62bbe60bf3d75ef465d3e404,,,,,,,,,,,,,,,,,,,,,,,,,,,,,,,,,,,,,,,,,,,,,,,,,,,,,,,,,,,,,,,,,,,,,,,,,,,,,,,,,,,,,,,,,,,,,,,,,,,,,,,,,,,,,,,,,,,,,,,,,,,,,,,,,,,,,,,,,,,,,,,,,,,,,,,,,,,,,,
0,26,26,27,1,,615df4022ce7fddd8e00e31d,62bbf95fd535a3dab3668cf8,2022-06-29_09h08.26.570,Colour_Asymmetry_Pilot,2022.1.3,Win32,60.09615385,62bbe60bf3d75ef465d3e404,,,,,,,,,,,,,,,,,,,,,,,,,,,,,,,,,,,,,,,,,,,,,,,,,,,,,,,,,,,,,,,,,,,,,,,,,,,,,,,,,,,,,,,,,,,,,,,,,,,,,,,,,,,,,,,,,,,,,,,,,,,,,,,,,,,,,,,,,,,,,,,,,,,,,,,,,,,,,,
0,27,27,68,1,,615df4022ce7fddd8e00e31d,62bbf95fd535a3dab3668cf8,2022-06-29_09h08.26.570,Colour_Asymmetry_Pilot,2022.1.3,Win32,60.09615385,62bbe60bf3d75ef465d3e404,,,,,,,,,,,,,,,,,,,,,,,,,,,,,,,,,,,,,,,,,,,,,,,,,,,,,,,,,,,,,,,,,,,,,,,,,,,,,,,,,,,,,,,,,,,,,,,,,,,,,,,,,,,,,,,,,,,,,,,,,,,,,,,,,,,,,,,,,,,,,,,,,,,,,,,,,,,,,,
0,28,28,3,1,,615df4022ce7fddd8e00e31d,62bbf95fd535a3dab3668cf8,2022-06-29_09h08.26.570,Colour_Asymmetry_Pilot,2022.1.3,Win32,60.09615385,62bbe60bf3d75ef465d3e404,,,,,,,,,,,,,,,,,,,,,,,,,,,,,,,,,,,,,,,,,,,,,,,,,,,,,,,,,,,,,,,,,,,,,,,,,,,,,,,,,,,,,,,,,,,,,,,,,,,,,,,,,,,,,,,,,,,,,,,,,,,,,,,,,,,,,,,,,,,,,,,,,,,,,,,,,,,,,,
0,29,29,78,1,,615df4022ce7fddd8e00e31d,62bbf95fd535a3dab3668cf8,2022-06-29_09h08.26.570,Colour_Asymmetry_Pilot,2022.1.3,Win32,60.09615385,62bbe60bf3d75ef465d3e404,,,,,,,,,,,,,,,,,,,,,,,,,,,,,,,,,,,,,,,,,,,,,,,,,,,,,,,,,,,,,,,,,,,,,,,,,,,,,,,,,,,,,,,,,,,,,,,,,,,,,,,,,,,,,,,,,,,,,,,,,,,,,,,,,,,,,,,,,,,,,,,,,,,,,,,,,,,,,,
0,30,30,64,1,,615df4022ce7fddd8e00e31d,62bbf95fd535a3dab3668cf8,2022-06-29_09h08.26.570,Colour_Asymmetry_Pilot,2022.1.3,Win32,60.09615385,62bbe60bf3d75ef465d3e404,,,,,,,,,,,,,,,,,,,,,,,,,,,,,,,,,,,,,,,,,,,,,,,,,,,,,,,,,,,,,,,,,,,,,,,,,,,,,,,,,,,,,,,,,,,,,,,,,,,,,,,,,,,,,,,,,,,,,,,,,,,,,,,,,,,,,,,,,,,,,,,,,,,,,,,,,,,,,,
0,31,31,79,1,,615df4022ce7fddd8e00e31d,62bbf95fd535a3dab3668cf8,2022-06-29_09h08.26.570,Colour_Asymmetry_Pilot,2022.1.3,Win32,60.09615385,62bbe60bf3d75ef465d3e404,,,,,,,,,,,,,,,,,,,,,,,,,,,,,,,,,,,,,,,,,,,,,,,,,,,,,,,,,,,,,,,,,,,,,,,,,,,,,,,,,,,,,,,,,,,,,,,,,,,,,,,,,,,,,,,,,,,,,,,,,,,,,,,,,,,,,,,,,,,,,,,,,,,,,,,,,,,,,,
0,32,32,31,1,,615df4022ce7fddd8e00e31d,62bbf95fd535a3dab3668cf8,2022-06-29_09h08.26.570,Colour_Asymmetry_Pilot,2022.1.3,Win32,60.09615385,62bbe60bf3d75ef465d3e404,,,,,,,,,,,,,,,,,,,,,,,,,,,,,,,,,,,,,,,,,,,,,,,,,,,,,,,,,,,,,,,,,,,,,,,,,,,,,,,,,,,,,,,,,,,,,,,,,,,,,,,,,,,,,,,,,,,,,,,,,,,,,,,,,,,,,,,,,,,,,,,,,,,,,,,,,,,,,,
0,33,33,51,1,,615df4022ce7fddd8e00e31d,62bbf95fd535a3dab3668cf8,2022-06-29_09h08.26.570,Colour_Asymmetry_Pilot,2022.1.3,Win32,60.09615385,62bbe60bf3d75ef465d3e404,,,,,,,,,,,,,,,,,,,,,,,,,,,,,,,,,,,,,,,,,,,,,,,,,,,,,,,,,,,,,,,,,,,,,,,,,,,,,,,,,,,,,,,,,,,,,,,,,,,,,,,,,,,,,,,,,,,,,,,,,,,,,,,,,,,,,,,,,,,,,,,,,,,,,,,,,,,,,,
0,34,34,41,1,,615df4022ce7fddd8e00e31d,62bbf95fd535a3dab3668cf8,2022-06-29_09h08.26.570,Colour_Asymmetry_Pilot,2022.1.3,Win32,60.09615385,62bbe60bf3d75ef465d3e404,,,,,,,,,,,,,,,,,,,,,,,,,,,,,,,,,,,,,,,,,,,,,,,,,,,,,,,,,,,,,,,,,,,,,,,,,,,,,,,,,,,,,,,,,,,,,,,,,,,,,,,,,,,,,,,,,,,,,,,,,,,,,,,,,,,,,,,,,,,,,,,,,,,,,,,,,,,,,,
0,35,35,85,1,,615df4022ce7fddd8e00e31d,62bbf95fd535a3dab3668cf8,2022-06-29_09h08.26.570,Colour_Asymmetry_Pilot,2022.1.3,Win32,60.09615385,62bbe60bf3d75ef465d3e404,,,,,,,,,,,,,,,,,,,,,,,,,,,,,,,,,,,,,,,,,,,,,,,,,,,,,,,,,,,,,,,,,,,,,,,,,,,,,,,,,,,,,,,,,,,,,,,,,,,,,,,,,,,,,,,,,,,,,,,,,,,,,,,,,,,,,,,,,,,,,,,,,,,,,,,,,,,,,,
0,36,36,88,1,,615df4022ce7fddd8e00e31d,62bbf95fd535a3dab3668cf8,2022-06-29_09h08.26.570,Colour_Asymmetry_Pilot,2022.1.3,Win32,60.09615385,62bbe60bf3d75ef465d3e404,,,,,,,,,,,,,,,,,,,,,,,,,,,,,,,,,,,,,,,,,,,,,,,,,,,,,,,,,,,,,,,,,,,,,,,,,,,,,,,,,,,,,,,,,,,,,,,,,,,,,,,,,,,,,,,,,,,,,,,,,,,,,,,,,,,,,,,,,,,,,,,,,,,,,,,,,,,,,,
0,37,37,58,1,,615df4022ce7fddd8e00e31d,62bbf95fd535a3dab3668cf8,2022-06-29_09h08.26.570,Colour_Asymmetry_Pilot,2022.1.3,Win32,60.09615385,62bbe60bf3d75ef465d3e404,,,,,,,,,,,,,,,,,,,,,,,,,,,,,,,,,,,,,,,,,,,,,,,,,,,,,,,,,,,,,,,,,,,,,,,,,,,,,,,,,,,,,,,,,,,,,,,,,,,,,,,,,,,,,,,,,,,,,,,,,,,,,,,,,,,,,,,,,,,,,,,,,,,,,,,,,,,,,,
0,38,38,49,1,,615df4022ce7fddd8e00e31d,62bbf95fd535a3dab3668cf8,2022-06-29_09h08.26.570,Colour_Asymmetry_Pilot,2022.1.3,Win32,60.09615385,62bbe60bf3d75ef465d3e404,,,,,,,,,,,,,,,,,,,,,,,,,,,,,,,,,,,,,,,,,,,,,,,,,,,,,,,,,,,,,,,,,,,,,,,,,,,,,,,,,,,,,,,,,,,,,,,,,,,,,,,,,,,,,,,,,,,,,,,,,,,,,,,,,,,,,,,,,,,,,,,,,,,,,,,,,,,,,,
0,39,39,53,1,,615df4022ce7fddd8e00e31d,62bbf95fd535a3dab3668cf8,2022-06-29_09h08.26.570,Colour_Asymmetry_Pilot,2022.1.3,Win32,60.09615385,62bbe60bf3d75ef465d3e404,,,,,,,,,,,,,,,,,,,,,,,,,,,,,,,,,,,,,,,,,,,,,,,,,,,,,,,,,,,,,,,,,,,,,,,,,,,,,,,,,,,,,,,,,,,,,,,,,,,,,,,,,,,,,,,,,,,,,,,,,,,,,,,,,,,,,,,,,,,,,,,,,,,,,,,,,,,,,,
0,40,40,90,1,,615df4022ce7fddd8e00e31d,62bbf95fd535a3dab3668cf8,2022-06-29_09h08.26.570,Colour_Asymmetry_Pilot,2022.1.3,Win32,60.09615385,62bbe60bf3d75ef465d3e404,,,,,,,,,,,,,,,,,,,,,,,,,,,,,,,,,,,,,,,,,,,,,,,,,,,,,,,,,,,,,,,,,,,,,,,,,,,,,,,,,,,,,,,,,,,,,,,,,,,,,,,,,,,,,,,,,,,,,,,,,,,,,,,,,,,,,,,,,,,,,,,,,,,,,,,,,,,,,,
0,41,41,37,1,,615df4022ce7fddd8e00e31d,62bbf95fd535a3dab3668cf8,2022-06-29_09h08.26.570,Colour_Asymmetry_Pilot,2022.1.3,Win32,60.09615385,62bbe60bf3d75ef465d3e404,,,,,,,,,,,,,,,,,,,,,,,,,,,,,,,,,,,,,,,,,,,,,,,,,,,,,,,,,,,,,,,,,,,,,,,,,,,,,,,,,,,,,,,,,,,,,,,,,,,,,,,,,,,,,,,,,,,,,,,,,,,,,,,,,,,,,,,,,,,,,,,,,,,,,,,,,,,,,,
0,42,42,92,1,,615df4022ce7fddd8e00e31d,62bbf95fd535a3dab3668cf8,2022-06-29_09h08.26.570,Colour_Asymmetry_Pilot,2022.1.3,Win32,60.09615385,62bbe60bf3d75ef465d3e404,,,,,,,,,,,,,,,,,,,,,,,,,,,,,,,,,,,,,,,,,,,,,,,,,,,,,,,,,,,,,,,,,,,,,,,,,,,,,,,,,,,,,,,,,,,,,,,,,,,,,,,,,,,,,,,,,,,,,,,,,,,,,,,,,,,,,,,,,,,,,,,,,,,,,,,,,,,,,,
0,43,43,35,1,,615df4022ce7fddd8e00e31d,62bbf95fd535a3dab3668cf8,2022-06-29_09h08.26.570,Colour_Asymmetry_Pilot,2022.1.3,Win32,60.09615385,62bbe60bf3d75ef465d3e404,,,,,,,,,,,,,,,,,,,,,,,,,,,,,,,,,,,,,,,,,,,,,,,,,,,,,,,,,,,,,,,,,,,,,,,,,,,,,,,,,,,,,,,,,,,,,,,,,,,,,,,,,,,,,,,,,,,,,,,,,,,,,,,,,,,,,,,,,,,,,,,,,,,,,,,,,,,,,,
0,44,44,52,1,,615df4022ce7fddd8e00e31d,62bbf95fd535a3dab3668cf8,2022-06-29_09h08.26.570,Colour_Asymmetry_Pilot,2022.1.3,Win32,60.09615385,62bbe60bf3d75ef465d3e404,,,,,,,,,,,,,,,,,,,,,,,,,,,,,,,,,,,,,,,,,,,,,,,,,,,,,,,,,,,,,,,,,,,,,,,,,,,,,,,,,,,,,,,,,,,,,,,,,,,,,,,,,,,,,,,,,,,,,,,,,,,,,,,,,,,,,,,,,,,,,,,,,,,,,,,,,,,,,,
0,45,45,69,1,,615df4022ce7fddd8e00e31d,62bbf95fd535a3dab3668cf8,2022-06-29_09h08.26.570,Colour_Asymmetry_Pilot,2022.1.3,Win32,60.09615385,62bbe60bf3d75ef465d3e404,,,,,,,,,,,,,,,,,,,,,,,,,,,,,,,,,,,,,,,,,,,,,,,,,,,,,,,,,,,,,,,,,,,,,,,,,,,,,,,,,,,,,,,,,,,,,,,,,,,,,,,,,,,,,,,,,,,,,,,,,,,,,,,,,,,,,,,,,,,,,,,,,,,,,,,,,,,,,,
0,46,46,33,1,,615df4022ce7fddd8e00e31d,62bbf95fd535a3dab3668cf8,2022-06-29_09h08.26.570,Colour_Asymmetry_Pilot,2022.1.3,Win32,60.09615385,62bbe60bf3d75ef465d3e404,,,,,,,,,,,,,,,,,,,,,,,,,,,,,,,,,,,,,,,,,,,,,,,,,,,,,,,,,,,,,,,,,,,,,,,,,,,,,,,,,,,,,,,,,,,,,,,,,,,,,,,,,,,,,,,,,,,,,,,,,,,,,,,,,,,,,,,,,,,,,,,,,,,,,,,,,,,,,,
0,47,47,77,1,,615df4022ce7fddd8e00e31d,62bbf95fd535a3dab3668cf8,2022-06-29_09h08.26.570,Colour_Asymmetry_Pilot,2022.1.3,Win32,60.09615385,62bbe60bf3d75ef465d3e404,,,,,,,,,,,,,,,,,,,,,,,,,,,,,,,,,,,,,,,,,,,,,,,,,,,,,,,,,,,,,,,,,,,,,,,,,,,,,,,,,,,,,,,,,,,,,,,,,,,,,,,,,,,,,,,,,,,,,,,,,,,,,,,,,,,,,,,,,,,,,,,,,,,,,,,,,,,,,,
0,48,48,65,1,,615df4022ce7fddd8e00e31d,62bbf95fd535a3dab3668cf8,2022-06-29_09h08.26.570,Colour_Asymmetry_Pilot,2022.1.3,Win32,60.09615385,62bbe60bf3d75ef465d3e404,,,,,,,,,,,,,,,,,,,,,,,,,,,,,,,,,,,,,,,,,,,,,,,,,,,,,,,,,,,,,,,,,,,,,,,,,,,,,,,,,,,,,,,,,,,,,,,,,,,,,,,,,,,,,,,,,,,,,,,,,,,,,,,,,,,,,,,,,,,,,,,,,,,,,,,,,,,,,,
0,49,49,91,1,,615df4022ce7fddd8e00e31d,62bbf95fd535a3dab3668cf8,2022-06-29_09h08.26.570,Colour_Asymmetry_Pilot,2022.1.3,Win32,60.09615385,62bbe60bf3d75ef465d3e404,,,,,,,,,,,,,,,,,,,,,,,,,,,,,,,,,,,,,,,,,,,,,,,,,,,,,,,,,,,,,,,,,,,,,,,,,,,,,,,,,,,,,,,,,,,,,,,,,,,,,,,,,,,,,,,,,,,,,,,,,,,,,,,,,,,,,,,,,,,,,,,,,,,,,,,,,,,,,,
0,50,50,28,1,,615df4022ce7fddd8e00e31d,62bbf95fd535a3dab3668cf8,2022-06-29_09h08.26.570,Colour_Asymmetry_Pilot,2022.1.3,Win32,60.09615385,62bbe60bf3d75ef465d3e404,,,,,,,,,,,,,,,,,,,,,,,,,,,,,,,,,,,,,,,,,,,,,,,,,,,,,,,,,,,,,,,,,,,,,,,,,,,,,,,,,,,,,,,,,,,,,,,,,,,,,,,,,,,,,,,,,,,,,,,,,,,,,,,,,,,,,,,,,,,,,,,,,,,,,,,,,,,,,,
0,51,51,34,1,,615df4022ce7fddd8e00e31d,62bbf95fd535a3dab3668cf8,2022-06-29_09h08.26.570,Colour_Asymmetry_Pilot,2022.1.3,Win32,60.09615385,62bbe60bf3d75ef465d3e404,,,,,,,,,,,,,,,,,,,,,,,,,,,,,,,,,,,,,,,,,,,,,,,,,,,,,,,,,,,,,,,,,,,,,,,,,,,,,,,,,,,,,,,,,,,,,,,,,,,,,,,,,,,,,,,,,,,,,,,,,,,,,,,,,,,,,,,,,,,,,,,,,,,,,,,,,,,,,,
0,52,52,15,1,,615df4022ce7fddd8e00e31d,62bbf95fd535a3dab3668cf8,2022-06-29_09h08.26.570,Colour_Asymmetry_Pilot,2022.1.3,Win32,60.09615385,62bbe60bf3d75ef465d3e404,,,,,,,,,,,,,,,,,,,,,,,,,,,,,,,,,,,,,,,,,,,,,,,,,,,,,,,,,,,,,,,,,,,,,,,,,,,,,,,,,,,,,,,,,,,,,,,,,,,,,,,,,,,,,,,,,,,,,,,,,,,,,,,,,,,,,,,,,,,,,,,,,,,,,,,,,,,,,,
0,53,53,70,1,,615df4022ce7fddd8e00e31d,62bbf95fd535a3dab3668cf8,2022-06-29_09h08.26.570,Colour_Asymmetry_Pilot,2022.1.3,Win32,60.09615385,62bbe60bf3d75ef465d3e404,,,,,,,,,,,,,,,,,,,,,,,,,,,,,,,,,,,,,,,,,,,,,,,,,,,,,,,,,,,,,,,,,,,,,,,,,,,,,,,,,,,,,,,,,,,,,,,,,,,,,,,,,,,,,,,,,,,,,,,,,,,,,,,,,,,,,,,,,,,,,,,,,,,,,,,,,,,,,,
0,54,54,54,1,,615df4022ce7fddd8e00e31d,62bbf95fd535a3dab3668cf8,2022-06-29_09h08.26.570,Colour_Asymmetry_Pilot,2022.1.3,Win32,60.09615385,62bbe60bf3d75ef465d3e404,,,,,,,,,,,,,,,,,,,,,,,,,,,,,,,,,,,,,,,,,,,,,,,,,,,,,,,,,,,,,,,,,,,,,,,,,,,,,,,,,,,,,,,,,,,,,,,,,,,,,,,,,,,,,,,,,,,,,,,,,,,,,,,,,,,,,,,,,,,,,,,,,,,,,,,,,,,,,,
0,55,55,73,1,,615df4022ce7fddd8e00e31d,62bbf95fd535a3dab3668cf8,2022-06-29_09h08.26.570,Colour_Asymmetry_Pilot,2022.1.3,Win32,60.09615385,62bbe60bf3d75ef465d3e404,,,,,,,,,,,,,,,,,,,,,,,,,,,,,,,,,,,,,,,,,,,,,,,,,,,,,,,,,,,,,,,,,,,,,,,,,,,,,,,,,,,,,,,,,,,,,,,,,,,,,,,,,,,,,,,,,,,,,,,,,,,,,,,,,,,,,,,,,,,,,,,,,,,,,,,,,,,,,,
0,56,56,46,1,,615df4022ce7fddd8e00e31d,62bbf95fd535a3dab3668cf8,2022-06-29_09h08.26.570,Colour_Asymmetry_Pilot,2022.1.3,Win32,60.09615385,62bbe60bf3d75ef465d3e404,,,,,,,,,,,,,,,,,,,,,,,,,,,,,,,,,,,,,,,,,,,,,,,,,,,,,,,,,,,,,,,,,,,,,,,,,,,,,,,,,,,,,,,,,,,,,,,,,,,,,,,,,,,,,,,,,,,,,,,,,,,,,,,,,,,,,,,,,,,,,,,,,,,,,,,,,,,,,,
0,57,57,2,1,,615df4022ce7fddd8e00e31d,62bbf95fd535a3dab3668cf8,2022-06-29_09h08.26.570,Colour_Asymmetry_Pilot,2022.1.3,Win32,60.09615385,62bbe60bf3d75ef465d3e404,,,,,,,,,,,,,,,,,,,,,,,,,,,,,,,,,,,,,,,,,,,,,,,,,,,,,,,,,,,,,,,,,,,,,,,,,,,,,,,,,,,,,,,,,,,,,,,,,,,,,,,,,,,,,,,,,,,,,,,,,,,,,,,,,,,,,,,,,,,,,,,,,,,,,,,,,,,,,,
0,58,58,24,1,,615df4022ce7fddd8e00e31d,62bbf95fd535a3dab3668cf8,2022-06-29_09h08.26.570,Colour_Asymmetry_Pilot,2022.1.3,Win32,60.09615385,62bbe60bf3d75ef465d3e404,,,,,,,,,,,,,,,,,,,,,,,,,,,,,,,,,,,,,,,,,,,,,,,,,,,,,,,,,,,,,,,,,,,,,,,,,,,,,,,,,,,,,,,,,,,,,,,,,,,,,,,,,,,,,,,,,,,,,,,,,,,,,,,,,,,,,,,,,,,,,,,,,,,,,,,,,,,,,,
0,59,59,66,1,,615df4022ce7fddd8e00e31d,62bbf95fd535a3dab3668cf8,2022-06-29_09h08.26.570,Colour_Asymmetry_Pilot,2022.1.3,Win32,60.09615385,62bbe60bf3d75ef465d3e404,,,,,,,,,,,,,,,,,,,,,,,,,,,,,,,,,,,,,,,,,,,,,,,,,,,,,,,,,,,,,,,,,,,,,,,,,,,,,,,,,,,,,,,,,,,,,,,,,,,,,,,,,,,,,,,,,,,,,,,,,,,,,,,,,,,,,,,,,,,,,,,,,,,,,,,,,,,,,,
0,60,60,6,1,,615df4022ce7fddd8e00e31d,62bbf95fd535a3dab3668cf8,2022-06-29_09h08.26.570,Colour_Asymmetry_Pilot,2022.1.3,Win32,60.09615385,62bbe60bf3d75ef465d3e404,,,,,,,,,,,,,,,,,,,,,,,,,,,,,,,,,,,,,,,,,,,,,,,,,,,,,,,,,,,,,,,,,,,,,,,,,,,,,,,,,,,,,,,,,,,,,,,,,,,,,,,,,,,,,,,,,,,,,,,,,,,,,,,,,,,,,,,,,,,,,,,,,,,,,,,,,,,,,,
0,61,61,57,1,,615df4022ce7fddd8e00e31d,62bbf95fd535a3dab3668cf8,2022-06-29_09h08.26.570,Colour_Asymmetry_Pilot,2022.1.3,Win32,60.09615385,62bbe60bf3d75ef465d3e404,,,,,,,,,,,,,,,,,,,,,,,,,,,,,,,,,,,,,,,,,,,,,,,,,,,,,,,,,,,,,,,,,,,,,,,,,,,,,,,,,,,,,,,,,,,,,,,,,,,,,,,,,,,,,,,,,,,,,,,,,,,,,,,,,,,,,,,,,,,,,,,,,,,,,,,,,,,,,,
0,62,62,55,1,,615df4022ce7fddd8e00e31d,62bbf95fd535a3dab3668cf8,2022-06-29_09h08.26.570,Colour_Asymmetry_Pilot,2022.1.3,Win32,60.09615385,62bbe60bf3d75ef465d3e404,,,,,,,,,,,,,,,,,,,,,,,,,,,,,,,,,,,,,,,,,,,,,,,,,,,,,,,,,,,,,,,,,,,,,,,,,,,,,,,,,,,,,,,,,,,,,,,,,,,,,,,,,,,,,,,,,,,,,,,,,,,,,,,,,,,,,,,,,,,,,,,,,,,,,,,,,,,,,,
0,63,63,0,1,,615df4022ce7fddd8e00e31d,62bbf95fd535a3dab3668cf8,2022-06-29_09h08.26.570,Colour_Asymmetry_Pilot,2022.1.3,Win32,60.09615385,62bbe60bf3d75ef465d3e404,,,,,,,,,,,,,,,,,,,,,,,,,,,,,,,,,,,,,,,,,,,,,,,,,,,,,,,,,,,,,,,,,,,,,,,,,,,,,,,,,,,,,,,,,,,,,,,,,,,,,,,,,,,,,,,,,,,,,,,,,,,,,,,,,,,,,,,,,,,,,,,,,,,,,,,,,,,,,,
0,64,64,43,1,,615df4022ce7fddd8e00e31d,62bbf95fd535a3dab3668cf8,2022-06-29_09h08.26.570,Colour_Asymmetry_Pilot,2022.1.3,Win32,60.09615385,62bbe60bf3d75ef465d3e404,,,,,,,,,,,,,,,,,,,,,,,,,,,,,,,,,,,,,,,,,,,,,,,,,,,,,,,,,,,,,,,,,,,,,,,,,,,,,,,,,,,,,,,,,,,,,,,,,,,,,,,,,,,,,,,,,,,,,,,,,,,,,,,,,,,,,,,,,,,,,,,,,,,,,,,,,,,,,,
0,65,65,87,1,,615df4022ce7fddd8e00e31d,62bbf95fd535a3dab3668cf8,2022-06-29_09h08.26.570,Colour_Asymmetry_Pilot,2022.1.3,Win32,60.09615385,62bbe60bf3d75ef465d3e404,,,,,,,,,,,,,,,,,,,,,,,,,,,,,,,,,,,,,,,,,,,,,,,,,,,,,,,,,,,,,,,,,,,,,,,,,,,,,,,,,,,,,,,,,,,,,,,,,,,,,,,,,,,,,,,,,,,,,,,,,,,,,,,,,,,,,,,,,,,,,,,,,,,,,,,,,,,,,,
0,66,66,45,1,,615df4022ce7fddd8e00e31d,62bbf95fd535a3dab3668cf8,2022-06-29_09h08.26.570,Colour_Asymmetry_Pilot,2022.1.3,Win32,60.09615385,62bbe60bf3d75ef465d3e404,,,,,,,,,,,,,,,,,,,,,,,,,,,,,,,,,,,,,,,,,,,,,,,,,,,,,,,,,,,,,,,,,,,,,,,,,,,,,,,,,,,,,,,,,,,,,,,,,,,,,,,,,,,,,,,,,,,,,,,,,,,,,,,,,,,,,,,,,,,,,,,,,,,,,,,,,,,,,,
0,67,67,11,1,,615df4022ce7fddd8e00e31d,62bbf95fd535a3dab3668cf8,2022-06-29_09h08.26.570,Colour_Asymmetry_Pilot,2022.1.3,Win32,60.09615385,62bbe60bf3d75ef465d3e404,,,,,,,,,,,,,,,,,,,,,,,,,,,,,,,,,,,,,,,,,,,,,,,,,,,,,,,,,,,,,,,,,,,,,,,,,,,,,,,,,,,,,,,,,,,,,,,,,,,,,,,,,,,,,,,,,,,,,,,,,,,,,,,,,,,,,,,,,,,,,,,,,,,,,,,,,,,,,,
0,68,68,25,1,,615df4022ce7fddd8e00e31d,62bbf95fd535a3dab3668cf8,2022-06-29_09h08.26.570,Colour_Asymmetry_Pilot,2022.1.3,Win32,60.09615385,62bbe60bf3d75ef465d3e404,,,,,,,,,,,,,,,,,,,,,,,,,,,,,,,,,,,,,,,,,,,,,,,,,,,,,,,,,,,,,,,,,,,,,,,,,,,,,,,,,,,,,,,,,,,,,,,,,,,,,,,,,,,,,,,,,,,,,,,,,,,,,,,,,,,,,,,,,,,,,,,,,,,,,,,,,,,,,,
0,69,69,13,1,,615df4022ce7fddd8e00e31d,62bbf95fd535a3dab3668cf8,2022-06-29_09h08.26.570,Colour_Asymmetry_Pilot,2022.1.3,Win32,60.09615385,62bbe60bf3d75ef465d3e404,,,,,,,,,,,,,,,,,,,,,,,,,,,,,,,,,,,,,,,,,,,,,,,,,,,,,,,,,,,,,,,,,,,,,,,,,,,,,,,,,,,,,,,,,,,,,,,,,,,,,,,,,,,,,,,,,,,,,,,,,,,,,,,,,,,,,,,,,,,,,,,,,,,,,,,,,,,,,,
0,70,70,39,1,,615df4022ce7fddd8e00e31d,62bbf95fd535a3dab3668cf8,2022-06-29_09h08.26.570,Colour_Asymmetry_Pilot,2022.1.3,Win32,60.09615385,62bbe60bf3d75ef465d3e404,,,,,,,,,,,,,,,,,,,,,,,,,,,,,,,,,,,,,,,,,,,,,,,,,,,,,,,,,,,,,,,,,,,,,,,,,,,,,,,,,,,,,,,,,,,,,,,,,,,,,,,,,,,,,,,,,,,,,,,,,,,,,,,,,,,,,,,,,,,,,,,,,,,,,,,,,,,,,,
0,71,71,12,1,,615df4022ce7fddd8e00e31d,62bbf95fd535a3dab3668cf8,2022-06-29_09h08.26.570,Colour_Asymmetry_Pilot,2022.1.3,Win32,60.09615385,62bbe60bf3d75ef465d3e404,,,,,,,,,,,,,,,,,,,,,,,,,,,,,,,,,,,,,,,,,,,,,,,,,,,,,,,,,,,,,,,,,,,,,,,,,,,,,,,,,,,,,,,,,,,,,,,,,,,,,,,,,,,,,,,,,,,,,,,,,,,,,,,,,,,,,,,,,,,,,,,,,,,,,,,,,,,,,,
0,72,72,7,1,,615df4022ce7fddd8e00e31d,62bbf95fd535a3dab3668cf8,2022-06-29_09h08.26.570,Colour_Asymmetry_Pilot,2022.1.3,Win32,60.09615385,62bbe60bf3d75ef465d3e404,,,,,,,,,,,,,,,,,,,,,,,,,,,,,,,,,,,,,,,,,,,,,,,,,,,,,,,,,,,,,,,,,,,,,,,,,,,,,,,,,,,,,,,,,,,,,,,,,,,,,,,,,,,,,,,,,,,,,,,,,,,,,,,,,,,,,,,,,,,,,,,,,,,,,,,,,,,,,,
0,73,73,5,1,,615df4022ce7fddd8e00e31d,62bbf95fd535a3dab3668cf8,2022-06-29_09h08.26.570,Colour_Asymmetry_Pilot,2022.1.3,Win32,60.09615385,62bbe60bf3d75ef465d3e404,,,,,,,,,,,,,,,,,,,,,,,,,,,,,,,,,,,,,,,,,,,,,,,,,,,,,,,,,,,,,,,,,,,,,,,,,,,,,,,,,,,,,,,,,,,,,,,,,,,,,,,,,,,,,,,,,,,,,,,,,,,,,,,,,,,,,,,,,,,,,,,,,,,,,,,,,,,,,,
0,74,74,36,1,,615df4022ce7fddd8e00e31d,62bbf95fd535a3dab3668cf8,2022-06-29_09h08.26.570,Colour_Asymmetry_Pilot,2022.1.3,Win32,60.09615385,62bbe60bf3d75ef465d3e404,,,,,,,,,,,,,,,,,,,,,,,,,,,,,,,,,,,,,,,,,,,,,,,,,,,,,,,,,,,,,,,,,,,,,,,,,,,,,,,,,,,,,,,,,,,,,,,,,,,,,,,,,,,,,,,,,,,,,,,,,,,,,,,,,,,,,,,,,,,,,,,,,,,,,,,,,,,,,,
0,75,75,71,1,,615df4022ce7fddd8e00e31d,62bbf95fd535a3dab3668cf8,2022-06-29_09h08.26.570,Colour_Asymmetry_Pilot,2022.1.3,Win32,60.09615385,62bbe60bf3d75ef465d3e404,,,,,,,,,,,,,,,,,,,,,,,,,,,,,,,,,,,,,,,,,,,,,,,,,,,,,,,,,,,,,,,,,,,,,,,,,,,,,,,,,,,,,,,,,,,,,,,,,,,,,,,,,,,,,,,,,,,,,,,,,,,,,,,,,,,,,,,,,,,,,,,,,,,,,,,,,,,,,,
0,76,76,75,1,,615df4022ce7fddd8e00e31d,62bbf95fd535a3dab3668cf8,2022-06-29_09h08.26.570,Colour_Asymmetry_Pilot,2022.1.3,Win32,60.09615385,62bbe60bf3d75ef465d3e404,,,,,,,,,,,,,,,,,,,,,,,,,,,,,,,,,,,,,,,,,,,,,,,,,,,,,,,,,,,,,,,,,,,,,,,,,,,,,,,,,,,,,,,,,,,,,,,,,,,,,,,,,,,,,,,,,,,,,,,,,,,,,,,,,,,,,,,,,,,,,,,,,,,,,,,,,,,,,,
0,77,77,9,1,,615df4022ce7fddd8e00e31d,62bbf95fd535a3dab3668cf8,2022-06-29_09h08.26.570,Colour_Asymmetry_Pilot,2022.1.3,Win32,60.09615385,62bbe60bf3d75ef465d3e404,,,,,,,,,,,,,,,,,,,,,,,,,,,,,,,,,,,,,,,,,,,,,,,,,,,,,,,,,,,,,,,,,,,,,,,,,,,,,,,,,,,,,,,,,,,,,,,,,,,,,,,,,,,,,,,,,,,,,,,,,,,,,,,,,,,,,,,,,,,,,,,,,,,,,,,,,,,,,,
0,78,78,22,1,,615df4022ce7fddd8e00e31d,62bbf95fd535a3dab3668cf8,2022-06-29_09h08.26.570,Colour_Asymmetry_Pilot,2022.1.3,Win32,60.09615385,62bbe60bf3d75ef465d3e404,,,,,,,,,,,,,,,,,,,,,,,,,,,,,,,,,,,,,,,,,,,,,,,,,,,,,,,,,,,,,,,,,,,,,,,,,,,,,,,,,,,,,,,,,,,,,,,,,,,,,,,,,,,,,,,,,,,,,,,,,,,,,,,,,,,,,,,,,,,,,,,,,,,,,,,,,,,,,,
0,79,79,83,1,,615df4022ce7fddd8e00e31d,62bbf95fd535a3dab3668cf8,2022-06-29_09h08.26.570,Colour_Asymmetry_Pilot,2022.1.3,Win32,60.09615385,62bbe60bf3d75ef465d3e404,,,,,,,,,,,,,,,,,,,,,,,,,,,,,,,,,,,,,,,,,,,,,,,,,,,,,,,,,,,,,,,,,,,,,,,,,,,,,,,,,,,,,,,,,,,,,,,,,,,,,,,,,,,,,,,,,,,,,,,,,,,,,,,,,,,,,,,,,,,,,,,,,,,,,,,,,,,,,,
0,80,80,67,1,,615df4022ce7fddd8e00e31d,62bbf95fd535a3dab3668cf8,2022-06-29_09h08.26.570,Colour_Asymmetry_Pilot,2022.1.3,Win32,60.09615385,62bbe60bf3d75ef465d3e404,,,,,,,,,,,,,,,,,,,,,,,,,,,,,,,,,,,,,,,,,,,,,,,,,,,,,,,,,,,,,,,,,,,,,,,,,,,,,,,,,,,,,,,,,,,,,,,,,,,,,,,,,,,,,,,,,,,,,,,,,,,,,,,,,,,,,,,,,,,,,,,,,,,,,,,,,,,,,,
0,81,81,20,1,,615df4022ce7fddd8e00e31d,62bbf95fd535a3dab3668cf8,2022-06-29_09h08.26.570,Colour_Asymmetry_Pilot,2022.1.3,Win32,60.09615385,62bbe60bf3d75ef465d3e404,,,,,,,,,,,,,,,,,,,,,,,,,,,,,,,,,,,,,,,,,,,,,,,,,,,,,,,,,,,,,,,,,,,,,,,,,,,,,,,,,,,,,,,,,,,,,,,,,,,,,,,,,,,,,,,,,,,,,,,,,,,,,,,,,,,,,,,,,,,,,,,,,,,,,,,,,,,,,,
0,82,82,14,1,,615df4022ce7fddd8e00e31d,62bbf95fd535a3dab3668cf8,2022-06-29_09h08.26.570,Colour_Asymmetry_Pilot,2022.1.3,Win32,60.09615385,62bbe60bf3d75ef465d3e404,,,,,,,,,,,,,,,,,,,,,,,,,,,,,,,,,,,,,,,,,,,,,,,,,,,,,,,,,,,,,,,,,,,,,,,,,,,,,,,,,,,,,,,,,,,,,,,,,,,,,,,,,,,,,,,,,,,,,,,,,,,,,,,,,,,,,,,,,,,,,,,,,,,,,,,,,,,,,,
0,83,83,18,1,,615df4022ce7fddd8e00e31d,62bbf95fd535a3dab3668cf8,2022-06-29_09h08.26.570,Colour_Asymmetry_Pilot,2022.1.3,Win32,60.09615385,62bbe60bf3d75ef465d3e404,,,,,,,,,,,,,,,,,,,,,,,,,,,,,,,,,,,,,,,,,,,,,,,,,,,,,,,,,,,,,,,,,,,,,,,,,,,,,,,,,,,,,,,,,,,,,,,,,,,,,,,,,,,,,,,,,,,,,,,,,,,,,,,,,,,,,,,,,,,,,,,,,,,,,,,,,,,,,,
0,84,84,74,1,,615df4022ce7fddd8e00e31d,62bbf95fd535a3dab3668cf8,2022-06-29_09h08.26.570,Colour_Asymmetry_Pilot,2022.1.3,Win32,60.09615385,62bbe60bf3d75ef465d3e404,,,,,,,,,,,,,,,,,,,,,,,,,,,,,,,,,,,,,,,,,,,,,,,,,,,,,,,,,,,,,,,,,,,,,,,,,,,,,,,,,,,,,,,,,,,,,,,,,,,,,,,,,,,,,,,,,,,,,,,,,,,,,,,,,,,,,,,,,,,,,,,,,,,,,,,,,,,,,,
0,85,85,82,1,,615df4022ce7fddd8e00e31d,62bbf95fd535a3dab3668cf8,2022-06-29_09h08.26.570,Colour_Asymmetry_Pilot,2022.1.3,Win32,60.09615385,62bbe60bf3d75ef465d3e404,,,,,,,,,,,,,,,,,,,,,,,,,,,,,,,,,,,,,,,,,,,,,,,,,,,,,,,,,,,,,,,,,,,,,,,,,,,,,,,,,,,,,,,,,,,,,,,,,,,,,,,,,,,,,,,,,,,,,,,,,,,,,,,,,,,,,,,,,,,,,,,,,,,,,,,,,,,,,,
0,86,86,86,1,,615df4022ce7fddd8e00e31d,62bbf95fd535a3dab3668cf8,2022-06-29_09h08.26.570,Colour_Asymmetry_Pilot,2022.1.3,Win32,60.09615385,62bbe60bf3d75ef465d3e404,,,,,,,,,,,,,,,,,,,,,,,,,,,,,,,,,,,,,,,,,,,,,,,,,,,,,,,,,,,,,,,,,,,,,,,,,,,,,,,,,,,,,,,,,,,,,,,,,,,,,,,,,,,,,,,,,,,,,,,,,,,,,,,,,,,,,,,,,,,,,,,,,,,,,,,,,,,,,,
0,87,87,42,1,,615df4022ce7fddd8e00e31d,62bbf95fd535a3dab3668cf8,2022-06-29_09h08.26.570,Colour_Asymmetry_Pilot,2022.1.3,Win32,60.09615385,62bbe60bf3d75ef465d3e404,,,,,,,,,,,,,,,,,,,,,,,,,,,,,,,,,,,,,,,,,,,,,,,,,,,,,,,,,,,,,,,,,,,,,,,,,,,,,,,,,,,,,,,,,,,,,,,,,,,,,,,,,,,,,,,,,,,,,,,,,,,,,,,,,,,,,,,,,,,,,,,,,,,,,,,,,,,,,,
0,88,88,84,1,,615df4022ce7fddd8e00e31d,62bbf95fd535a3dab3668cf8,2022-06-29_09h08.26.570,Colour_Asymmetry_Pilot,2022.1.3,Win32,60.09615385,62bbe60bf3d75ef465d3e404,,,,,,,,,,,,,,,,,,,,,,,,,,,,,,,,,,,,,,,,,,,,,,,,,,,,,,,,,,,,,,,,,,,,,,,,,,,,,,,,,,,,,,,,,,,,,,,,,,,,,,,,,,,,,,,,,,,,,,,,,,,,,,,,,,,,,,,,,,,,,,,,,,,,,,,,,,,,,,
0,89,89,38,1,,615df4022ce7fddd8e00e31d,62bbf95fd535a3dab3668cf8,2022-06-29_09h08.26.570,Colour_Asymmetry_Pilot,2022.1.3,Win32,60.09615385,62bbe60bf3d75ef465d3e404,,,,,,,,,,,,,,,,,,,,,,,,,,,,,,,,,,,,,,,,,,,,,,,,,,,,,,,,,,,,,,,,,,,,,,,,,,,,,,,,,,,,,,,,,,,,,,,,,,,,,,,,,,,,,,,,,,,,,,,,,,,,,,,,,,,,,,,,,,,,,,,,,,,,,,,,,,,,,,
0,90,90,89,1,,615df4022ce7fddd8e00e31d,62bbf95fd535a3dab3668cf8,2022-06-29_09h08.26.570,Colour_Asymmetry_Pilot,2022.1.3,Win32,60.09615385,62bbe60bf3d75ef465d3e404,,,,,,,,,,,,,,,,,,,,,,,,,,,,,,,,,,,,,,,,,,,,,,,,,,,,,,,,,,,,,,,,,,,,,,,,,,,,,,,,,,,,,,,,,,,,,,,,,,,,,,,,,,,,,,,,,,,,,,,,,,,,,,,,,,,,,,,,,,,,,,,,,,,,,,,,,,,,,,
0,91,91,30,1,,615df4022ce7fddd8e00e31d,62bbf95fd535a3dab3668cf8,2022-06-29_09h08.26.570,Colour_Asymmetry_Pilot,2022.1.3,Win32,60.09615385,62bbe60bf3d75ef465d3e404,,,,,,,,,,,,,,,,,,,,,,,,,,,,,,,,,,,,,,,,,,,,,,,,,,,,,,,,,,,,,,,,,,,,,,,,,,,,,,,,,,,,,,,,,,,,,,,,,,,,,,,,,,,,,,,,,,,,,,,,,,,,,,,,,,,,,,,,,,,,,,,,,,,,,,,,,,,,,,
0,92,92,62,1,,615df4022ce7fddd8e00e31d,62bbf95fd535a3dab3668cf8,2022-06-29_09h08.26.570,Colour_Asymmetry_Pilot,2022.1.3,Win32,60.09615385,62bbe60bf3d75ef465d3e404,,,,,,,,,,,,,,,,,,,,,,,,,,,,,,,,,,,,,,,,,,,,,,,,,,,,,,,,,,,,,,,,,,,,,,,,,,,,,,,,,,,,,,,,,,,,,,,,,,,,,,,,,,,,,,,,,,,,,,,,,,,,,,,,,,,,,,,,,,,,,,,,,,,,,,,,,,,,,,
,,,,,,615df4022ce7fddd8e00e31d,62bbf95fd535a3dab3668cf8,2022-06-29_09h08.26.570,Colour_Asymmetry_Pilot,2022.1.3,Win32,60.09615385,62bbe60bf3d75ef465d3e404,0,0,0,53,1,threefour,,,,,,,,,,,,,,,,,,,,,,,,,,,,,,,,,,,,,,,,,,,,,,,,,,,,,,,,,,,,,,,,,,,,,,,,,,,,,,,,,,,,,,,,,,,,,,,,,,,,,,,,,,,,,,,,,,,,,,,,,,,,,,,,,,,,,,,,,,,,,,,,,,,,,,,,
,,,,,,615df4022ce7fddd8e00e31d,62bbf95fd535a3dab3668cf8,2022-06-29_09h08.26.570,Colour_Asymmetry_Pilot,2022.1.3,Win32,60.09615385,62bbe60bf3d75ef465d3e404,0,1,1,104,1,onetwo,,,,,,,,,,,,,,,,,,,,,,,,,,,,,,,,,,,,,,,,,,,,,,,,,,,,,,,,,,,,,,,,,,,,,,,,,,,,,,,,,,,,,,,,,,,,,,,,,,,,,,,,,,,,,,,,,,,,,,,,,,,,,,,,,,,,,,,,,,,,,,,,,,,,,,,,
,,,,,,615df4022ce7fddd8e00e31d,62bbf95fd535a3dab3668cf8,2022-06-29_09h08.26.570,Colour_Asymmetry_Pilot,2022.1.3,Win32,60.09615385,62bbe60bf3d75ef465d3e404,0,2,2,74,1,twoone,,,,,,,,,,,,,,,,,,,,,,,,,,,,,,,,,,,,,,,,,,,,,,,,,,,,,,,,,,,,,,,,,,,,,,,,,,,,,,,,,,,,,,,,,,,,,,,,,,,,,,,,,,,,,,,,,,,,,,,,,,,,,,,,,,,,,,,,,,,,,,,,,,,,,,,,
,,,,,,615df4022ce7fddd8e00e31d,62bbf95fd535a3dab3668cf8,2022-06-29_09h08.26.570,Colour_Asymmetry_Pilot,2022.1.3,Win32,60.09615385,62bbe60bf3d75ef465d3e404,0,3,3,84,1,threeone,,,,,,,,,,,,,,,,,,,,,,,,,,,,,,,,,,,,,,,,,,,,,,,,,,,,,,,,,,,,,,,,,,,,,,,,,,,,,,,,,,,,,,,,,,,,,,,,,,,,,,,,,,,,,,,,,,,,,,,,,,,,,,,,,,,,,,,,,,,,,,,,,,,,,,,,
,,,,,,615df4022ce7fddd8e00e31d,62bbf95fd535a3dab3668cf8,2022-06-29_09h08.26.570,Colour_Asymmetry_Pilot,2022.1.3,Win32,60.09615385,62bbe60bf3d75ef465d3e404,0,4,4,37,1,threefour,,,,,,,,,,,,,,,,,,,,,,,,,,,,,,,,,,,,,,,,,,,,,,,,,,,,,,,,,,,,,,,,,,,,,,,,,,,,,,,,,,,,,,,,,,,,,,,,,,,,,,,,,,,,,,,,,,,,,,,,,,,,,,,,,,,,,,,,,,,,,,,,,,,,,,,,
,,,,,,615df4022ce7fddd8e00e31d,62bbf95fd535a3dab3668cf8,2022-06-29_09h08.26.570,Colour_Asymmetry_Pilot,2022.1.3,Win32,60.09615385,62bbe60bf3d75ef465d3e404,0,5,5,14,1,fourtwo,,,,,,,,,,,,,,,,,,,,,,,,,,,,,,,,,,,,,,,,,,,,,,,,,,,,,,,,,,,,,,,,,,,,,,,,,,,,,,,,,,,,,,,,,,,,,,,,,,,,,,,,,,,,,,,,,,,,,,,,,,,,,,,,,,,,,,,,,,,,,,,,,,,,,,,,
,,,,,,615df4022ce7fddd8e00e31d,62bbf95fd535a3dab3668cf8,2022-06-29_09h08.26.570,Colour_Asymmetry_Pilot,2022.1.3,Win32,60.09615385,62bbe60bf3d75ef465d3e404,0,6,6,0,1,onetwo,,,,,,,,,,,,,,,,,,,,,,,,,,,,,,,,,,,,,,,,,,,,,,,,,,,,,,,,,,,,,,,,,,,,,,,,,,,,,,,,,,,,,,,,,,,,,,,,,,,,,,,,,,,,,,,,,,,,,,,,,,,,,,,,,,,,,,,,,,,,,,,,,,,,,,,,
,,,,,,615df4022ce7fddd8e00e31d,62bbf95fd535a3dab3668cf8,2022-06-29_09h08.26.570,Colour_Asymmetry_Pilot,2022.1.3,Win32,60.09615385,62bbe60bf3d75ef465d3e404,0,7,7,77,1,threefour,,,,,,,,,,,,,,,,,,,,,,,,,,,,,,,,,,,,,,,,,,,,,,,,,,,,,,,,,,,,,,,,,,,,,,,,,,,,,,,,,,,,,,,,,,,,,,,,,,,,,,,,,,,,,,,,,,,,,,,,,,,,,,,,,,,,,,,,,,,,,,,,,,,,,,,,
,,,,,,615df4022ce7fddd8e00e31d,62bbf95fd535a3dab3668cf8,2022-06-29_09h08.26.570,Colour_Asymmetry_Pilot,2022.1.3,Win32,60.09615385,62bbe60bf3d75ef465d3e404,0,8,8,97,1,onethree,,,,,,,,,,,,,,,,,,,,,,,,,,,,,,,,,,,,,,,,,,,,,,,,,,,,,,,,,,,,,,,,,,,,,,,,,,,,,,,,,,,,,,,,,,,,,,,,,,,,,,,,,,,,,,,,,,,,,,,,,,,,,,,,,,,,,,,,,,,,,,,,,,,,,,,,
,,,,,,615df4022ce7fddd8e00e31d,62bbf95fd535a3dab3668cf8,2022-06-29_09h08.26.570,Colour_Asymmetry_Pilot,2022.1.3,Win32,60.09615385,62bbe60bf3d75ef465d3e404,0,9,9,39,1,fourthree,,,,,,,,,,,,,,,,,,,,,,,,,,,,,,,,,,,,,,,,,,,,,,,,,,,,,,,,,,,,,,,,,,,,,,,,,,,,,,,,,,,,,,,,,,,,,,,,,,,,,,,,,,,,,,,,,,,,,,,,,,,,,,,,,,,,,,,,,,,,,,,,,,,,,,,,
,,,,,,615df4022ce7fddd8e00e31d,62bbf95fd535a3dab3668cf8,2022-06-29_09h08.26.570,Colour_Asymmetry_Pilot,2022.1.3,Win32,60.09615385,62bbe60bf3d75ef465d3e404,0,10,10,52,1,threeone,,,,,,,,,,,,,,,,,,,,,,,,,,,,,,,,,,,,,,,,,,,,,,,,,,,,,,,,,,,,,,,,,,,,,,,,,,,,,,,,,,,,,,,,,,,,,,,,,,,,,,,,,,,,,,,,,,,,,,,,,,,,,,,,,,,,,,,,,,,,,,,,,,,,,,,,
,,,,,,615df4022ce7fddd8e00e31d,62bbf95fd535a3dab3668cf8,2022-06-29_09h08.26.570,Colour_Asymmetry_Pilot,2022.1.3,Win32,60.09615385,62bbe60bf3d75ef465d3e404,0,11,11,19,1,twofour,,,,,,,,,,,,,,,,,,,,,,,,,,,,,,,,,,,,,,,,,,,,,,,,,,,,,,,,,,,,,,,,,,,,,,,,,,,,,,,,,,,,,,,,,,,,,,,,,,,,,,,,,,,,,,,,,,,,,,,,,,,,,,,,,,,,,,,,,,,,,,,,,,,,,,,,
,,,,,,615df4022ce7fddd8e00e31d,62bbf95fd535a3dab3668cf8,2022-06-29_09h08.26.570,Colour_Asymmetry_Pilot,2022.1.3,Win32,60.09615385,62bbe60bf3d75ef465d3e404,0,12,12,142,1,fourtwo,,,,,,,,,,,,,,,,,,,,,,,,,,,,,,,,,,,,,,,,,,,,,,,,,,,,,,,,,,,,,,,,,,,,,,,,,,,,,,,,,,,,,,,,,,,,,,,,,,,,,,,,,,,,,,,,,,,,,,,,,,,,,,,,,,,,,,,,,,,,,,,,,,,,,,,,
,,,,,,615df4022ce7fddd8e00e31d,62bbf95fd535a3dab3668cf8,2022-06-29_09h08.26.570,Colour_Asymmetry_Pilot,2022.1.3,Win32,60.09615385,62bbe60bf3d75ef465d3e404,0,13,13,85,1,threefour,,,,,,,,,,,,,,,,,,,,,,,,,,,,,,,,,,,,,,,,,,,,,,,,,,,,,,,,,,,,,,,,,,,,,,,,,,,,,,,,,,,,,,,,,,,,,,,,,,,,,,,,,,,,,,,,,,,,,,,,,,,,,,,,,,,,,,,,,,,,,,,,,,,,,,,,
,,,,,,615df4022ce7fddd8e00e31d,62bbf95fd535a3dab3668cf8,2022-06-29_09h08.26.570,Colour_Asymmetry_Pilot,2022.1.3,Win32,60.09615385,62bbe60bf3d75ef465d3e404,0,14,14,127,1,fourthree,,,,,,,,,,,,,,,,,,,,,,,,,,,,,,,,,,,,,,,,,,,,,,,,,,,,,,,,,,,,,,,,,,,,,,,,,,,,,,,,,,,,,,,,,,,,,,,,,,,,,,,,,,,,,,,,,,,,,,,,,,,,,,,,,,,,,,,,,,,,,,,,,,,,,,,,
,,,,,,615df4022ce7fddd8e00e31d,62bbf95fd535a3dab3668cf8,2022-06-29_09h08.26.570,Colour_Asymmetry_Pilot,2022.1.3,Win32,60.09615385,62bbe60bf3d75ef465d3e404,0,15,15,80,1,onetwo,,,,,,,,,,,,,,,,,,,,,,,,,,,,,,,,,,,,,,,,,,,,,,,,,,,,,,,,,,,,,,,,,,,,,,,,,,,,,,,,,,,,,,,,,,,,,,,,,,,,,,,,,,,,,,,,,,,,,,,,,,,,,,,,,,,,,,,,,,,,,,,,,,,,,,,,
,,,,,,615df4022ce7fddd8e00e31d,62bbf95fd535a3dab3668cf8,2022-06-29_09h08.26.570,Colour_Asymmetry_Pilot,2022.1.3,Win32,60.09615385,62bbe60bf3d75ef465d3e404,0,16,16,1,1,onethree,,,,,,,,,,,,,,,,,,,,,,,,,,,,,,,,,,,,,,,,,,,,,,,,,,,,,,,,,,,,,,,,,,,,,,,,,,,,,,,,,,,,,,,,,,,,,,,,,,,,,,,,,,,,,,,,,,,,,,,,,,,,,,,,,,,,,,,,,,,,,,,,,,,,,,,,
,,,,,,615df4022ce7fddd8e00e31d,62bbf95fd535a3dab3668cf8,2022-06-29_09h08.26.570,Colour_Asymmetry_Pilot,2022.1.3,Win32,60.09615385,62bbe60bf3d75ef465d3e404,0,17,17,38,1,fourtwo,,,,,,,,,,,,,,,,,,,,,,,,,,,,,,,,,,,,,,,,,,,,,,,,,,,,,,,,,,,,,,,,,,,,,,,,,,,,,,,,,,,,,,,,,,,,,,,,,,,,,,,,,,,,,,,,,,,,,,,,,,,,,,,,,,,,,,,,,,,,,,,,,,,,,,,,
,,,,,,615df4022ce7fddd8e00e31d,62bbf95fd535a3dab3668cf8,2022-06-29_09h08.26.570,Colour_Asymmetry_Pilot,2022.1.3,Win32,60.09615385,62bbe60bf3d75ef465d3e404,0,18,18,32,1,onetwo,,,,,,,,,,,,,,,,,,,,,,,,,,,,,,,,,,,,,,,,,,,,,,,,,,,,,,,,,,,,,,,,,,,,,,,,,,,,,,,,,,,,,,,,,,,,,,,,,,,,,,,,,,,,,,,,,,,,,,,,,,,,,,,,,,,,,,,,,,,,,,,,,,,,,,,,
,,,,,,615df4022ce7fddd8e00e31d,62bbf95fd535a3dab3668cf8,2022-06-29_09h08.26.570,Colour_Asymmetry_Pilot,2022.1.3,Win32,60.09615385,62bbe60bf3d75ef465d3e404,0,19,19,24,1,onetwo,,,,,,,,,,,,,,,,,,,,,,,,,,,,,,,,,,,,,,,,,,,,,,,,,,,,,,,,,,,,,,,,,,,,,,,,,,,,,,,,,,,,,,,,,,,,,,,,,,,,,,,,,,,,,,,,,,,,,,,,,,,,,,,,,,,,,,,,,,,,,,,,,,,,,,,,
,,,,,,615df4022ce7fddd8e00e31d,62bbf95fd535a3dab3668cf8,2022-06-29_09h08.26.570,Colour_Asymmetry_Pilot,2022.1.3,Win32,60.09615385,62bbe60bf3d75ef465d3e404,0,20,20,83,1,twofour,,,,,,,,,,,,,,,,,,,,,,,,,,,,,,,,,,,,,,,,,,,,,,,,,,,,,,,,,,,,,,,,,,,,,,,,,,,,,,,,,,,,,,,,,,,,,,,,,,,,,,,,,,,,,,,,,,,,,,,,,,,,,,,,,,,,,,,,,,,,,,,,,,,,,,,,
,,,,,,615df4022ce7fddd8e00e31d,62bbf95fd535a3dab3668cf8,2022-06-29_09h08.26.570,Colour_Asymmetry_Pilot,2022.1.3,Win32,60.09615385,62bbe60bf3d75ef465d3e404,0,21,21,63,1,fourthree,,,,,,,,,,,,,,,,,,,,,,,,,,,,,,,,,,,,,,,,,,,,,,,,,,,,,,,,,,,,,,,,,,,,,,,,,,,,,,,,,,,,,,,,,,,,,,,,,,,,,,,,,,,,,,,,,,,,,,,,,,,,,,,,,,,,,,,,,,,,,,,,,,,,,,,,
,,,,,,615df4022ce7fddd8e00e31d,62bbf95fd535a3dab3668cf8,2022-06-29_09h08.26.570,Colour_Asymmetry_Pilot,2022.1.3,Win32,60.09615385,62bbe60bf3d75ef465d3e404,0,22,22,62,1,fourtwo,,,,,,,,,,,,,,,,,,,,,,,,,,,,,,,,,,,,,,,,,,,,,,,,,,,,,,,,,,,,,,,,,,,,,,,,,,,,,,,,,,,,,,,,,,,,,,,,,,,,,,,,,,,,,,,,,,,,,,,,,,,,,,,,,,,,,,,,,,,,,,,,,,,,,,,,
,,,,,,615df4022ce7fddd8e00e31d,62bbf95fd535a3dab3668cf8,2022-06-29_09h08.26.570,Colour_Asymmetry_Pilot,2022.1.3,Win32,60.09615385,62bbe60bf3d75ef465d3e404,0,23,23,100,1,threeone,,,,,,,,,,,,,,,,,,,,,,,,,,,,,,,,,,,,,,,,,,,,,,,,,,,,,,,,,,,,,,,,,,,,,,,,,,,,,,,,,,,,,,,,,,,,,,,,,,,,,,,,,,,,,,,,,,,,,,,,,,,,,,,,,,,,,,,,,,,,,,,,,,,,,,,,
,,,,,,615df4022ce7fddd8e00e31d,62bbf95fd535a3dab3668cf8,2022-06-29_09h08.26.570,Colour_Asymmetry_Pilot,2022.1.3,Win32,60.09615385,62bbe60bf3d75ef465d3e404,0,24,24,147,1,twofour,,,,,,,,,,,,,,,,,,,,,,,,,,,,,,,,,,,,,,,,,,,,,,,,,,,,,,,,,,,,,,,,,,,,,,,,,,,,,,,,,,,,,,,,,,,,,,,,,,,,,,,,,,,,,,,,,,,,,,,,,,,,,,,,,,,,,,,,,,,,,,,,,,,,,,,,
,,,,,,615df4022ce7fddd8e00e31d,62bbf95fd535a3dab3668cf8,2022-06-29_09h08.26.570,Colour_Asymmetry_Pilot,2022.1.3,Win32,60.09615385,62bbe60bf3d75ef465d3e404,0,25,25,151,1,fourthree,,,,,,,,,,,,,,,,,,,,,,,,,,,,,,,,,,,,,,,,,,,,,,,,,,,,,,,,,,,,,,,,,,,,,,,,,,,,,,,,,,,,,,,,,,,,,,,,,,,,,,,,,,,,,,,,,,,,,,,,,,,,,,,,,,,,,,,,,,,,,,,,,,,,,,,,
,,,,,,615df4022ce7fddd8e00e31d,62bbf95fd535a3dab3668cf8,2022-06-29_09h08.26.570,Colour_Asymmetry_Pilot,2022.1.3,Win32,60.09615385,62bbe60bf3d75ef465d3e404,0,26,26,148,1,threeone,,,,,,,,,,,,,,,,,,,,,,,,,,,,,,,,,,,,,,,,,,,,,,,,,,,,,,,,,,,,,,,,,,,,,,,,,,,,,,,,,,,,,,,,,,,,,,,,,,,,,,,,,,,,,,,,,,,,,,,,,,,,,,,,,,,,,,,,,,,,,,,,,,,,,,,,
,,,,,,615df4022ce7fddd8e00e31d,62bbf95fd535a3dab3668cf8,2022-06-29_09h08.26.570,Colour_Asymmetry_Pilot,2022.1.3,Win32,60.09615385,62bbe60bf3d75ef465d3e404,0,27,27,48,1,onetwo,,,,,,,,,,,,,,,,,,,,,,,,,,,,,,,,,,,,,,,,,,,,,,,,,,,,,,,,,,,,,,,,,,,,,,,,,,,,,,,,,,,,,,,,,,,,,,,,,,,,,,,,,,,,,,,,,,,,,,,,,,,,,,,,,,,,,,,,,,,,,,,,,,,,,,,,
,,,,,,615df4022ce7fddd8e00e31d,62bbf95fd535a3dab3668cf8,2022-06-29_09h08.26.570,Colour_Asymmetry_Pilot,2022.1.3,Win32,60.09615385,62bbe60bf3d75ef465d3e404,0,28,28,44,1,threeone,,,,,,,,,,,,,,,,,,,,,,,,,,,,,,,,,,,,,,,,,,,,,,,,,,,,,,,,,,,,,,,,,,,,,,,,,,,,,,,,,,,,,,,,,,,,,,,,,,,,,,,,,,,,,,,,,,,,,,,,,,,,,,,,,,,,,,,,,,,,,,,,,,,,,,,,
,,,,,,615df4022ce7fddd8e00e31d,62bbf95fd535a3dab3668cf8,2022-06-29_09h08.26.570,Colour_Asymmetry_Pilot,2022.1.3,Win32,60.09615385,62bbe60bf3d75ef465d3e404,0,29,29,3,1,twofour,,,,,,,,,,,,,,,,,,,,,,,,,,,,,,,,,,,,,,,,,,,,,,,,,,,,,,,,,,,,,,,,,,,,,,,,,,,,,,,,,,,,,,,,,,,,,,,,,,,,,,,,,,,,,,,,,,,,,,,,,,,,,,,,,,,,,,,,,,,,,,,,,,,,,,,,
,,,,,,615df4022ce7fddd8e00e31d,62bbf95fd535a3dab3668cf8,2022-06-29_09h08.26.570,Colour_Asymmetry_Pilot,2022.1.3,Win32,60.09615385,62bbe60bf3d75ef465d3e404,0,30,30,11,1,twofour,,,,,,,,,,,,,,,,,,,,,,,,,,,,,,,,,,,,,,,,,,,,,,,,,,,,,,,,,,,,,,,,,,,,,,,,,,,,,,,,,,,,,,,,,,,,,,,,,,,,,,,,,,,,,,,,,,,,,,,,,,,,,,,,,,,,,,,,,,,,,,,,,,,,,,,,
,,,,,,615df4022ce7fddd8e00e31d,62bbf95fd535a3dab3668cf8,2022-06-29_09h08.26.570,Colour_Asymmetry_Pilot,2022.1.3,Win32,60.09615385,62bbe60bf3d75ef465d3e404,0,31,31,102,1,fourtwo,,,,,,,,,,,,,,,,,,,,,,,,,,,,,,,,,,,,,,,,,,,,,,,,,,,,,,,,,,,,,,,,,,,,,,,,,,,,,,,,,,,,,,,,,,,,,,,,,,,,,,,,,,,,,,,,,,,,,,,,,,,,,,,,,,,,,,,,,,,,,,,,,,,,,,,,
,,,,,,615df4022ce7fddd8e00e31d,62bbf95fd535a3dab3668cf8,2022-06-29_09h08.26.570,Colour_Asymmetry_Pilot,2022.1.3,Win32,60.09615385,62bbe60bf3d75ef465d3e404,0,32,32,154,1,twoone,,,,,,,,,,,,,,,,,,,,,,,,,,,,,,,,,,,,,,,,,,,,,,,,,,,,,,,,,,,,,,,,,,,,,,,,,,,,,,,,,,,,,,,,,,,,,,,,,,,,,,,,,,,,,,,,,,,,,,,,,,,,,,,,,,,,,,,,,,,,,,,,,,,,,,,,
,,,,,,615df4022ce7fddd8e00e31d,62bbf95fd535a3dab3668cf8,2022-06-29_09h08.26.570,Colour_Asymmetry_Pilot,2022.1.3,Win32,60.09615385,62bbe60bf3d75ef465d3e404,0,33,33,31,1,fourthree,,,,,,,,,,,,,,,,,,,,,,,,,,,,,,,,,,,,,,,,,,,,,,,,,,,,,,,,,,,,,,,,,,,,,,,,,,,,,,,,,,,,,,,,,,,,,,,,,,,,,,,,,,,,,,,,,,,,,,,,,,,,,,,,,,,,,,,,,,,,,,,,,,,,,,,,
,,,,,,615df4022ce7fddd8e00e31d,62bbf95fd535a3dab3668cf8,2022-06-29_09h08.26.570,Colour_Asymmetry_Pilot,2022.1.3,Win32,60.09615385,62bbe60bf3d75ef465d3e404,0,34,34,9,1,onethree,,,,,,,,,,,,,,,,,,,,,,,,,,,,,,,,,,,,,,,,,,,,,,,,,,,,,,,,,,,,,,,,,,,,,,,,,,,,,,,,,,,,,,,,,,,,,,,,,,,,,,,,,,,,,,,,,,,,,,,,,,,,,,,,,,,,,,,,,,,,,,,,,,,,,,,,
,,,,,,615df4022ce7fddd8e00e31d,62bbf95fd535a3dab3668cf8,2022-06-29_09h08.26.570,Colour_Asymmetry_Pilot,2022.1.3,Win32,60.09615385,62bbe60bf3d75ef465d3e404,0,35,35,91,1,twofour,,,,,,,,,,,,,,,,,,,,,,,,,,,,,,,,,,,,,,,,,,,,,,,,,,,,,,,,,,,,,,,,,,,,,,,,,,,,,,,,,,,,,,,,,,,,,,,,,,,,,,,,,,,,,,,,,,,,,,,,,,,,,,,,,,,,,,,,,,,,,,,,,,,,,,,,
,,,,,,615df4022ce7fddd8e00e31d,62bbf95fd535a3dab3668cf8,2022-06-29_09h08.26.570,Colour_Asymmetry_Pilot,2022.1.3,Win32,60.09615385,62bbe60bf3d75ef465d3e404,0,36,36,67,1,twofour,,,,,,,,,,,,,,,,,,,,,,,,,,,,,,,,,,,,,,,,,,,,,,,,,,,,,,,,,,,,,,,,,,,,,,,,,,,,,,,,,,,,,,,,,,,,,,,,,,,,,,,,,,,,,,,,,,,,,,,,,,,,,,,,,,,,,,,,,,,,,,,,,,,,,,,,
,,,,,,615df4022ce7fddd8e00e31d,62bbf95fd535a3dab3668cf8,2022-06-29_09h08.26.570,Colour_Asymmetry_Pilot,2022.1.3,Win32,60.09615385,62bbe60bf3d75ef465d3e404,0,37,37,54,1,fourtwo,,,,,,,,,,,,,,,,,,,,,,,,,,,,,,,,,,,,,,,,,,,,,,,,,,,,,,,,,,,,,,,,,,,,,,,,,,,,,,,,,,,,,,,,,,,,,,,,,,,,,,,,,,,,,,,,,,,,,,,,,,,,,,,,,,,,,,,,,,,,,,,,,,,,,,,,
,,,,,,615df4022ce7fddd8e00e31d,62bbf95fd535a3dab3668cf8,2022-06-29_09h08.26.570,Colour_Asymmetry_Pilot,2022.1.3,Win32,60.09615385,62bbe60bf3d75ef465d3e404,0,38,38,138,1,twoone,,,,,,,,,,,,,,,,,,,,,,,,,,,,,,,,,,,,,,,,,,,,,,,,,,,,,,,,,,,,,,,,,,,,,,,,,,,,,,,,,,,,,,,,,,,,,,,,,,,,,,,,,,,,,,,,,,,,,,,,,,,,,,,,,,,,,,,,,,,,,,,,,,,,,,,,
,,,,,,615df4022ce7fddd8e00e31d,62bbf95fd535a3dab3668cf8,2022-06-29_09h08.26.570,Colour_Asymmetry_Pilot,2022.1.3,Win32,60.09615385,62bbe60bf3d75ef465d3e404,0,39,39,124,1,threeone,,,,,,,,,,,,,,,,,,,,,,,,,,,,,,,,,,,,,,,,,,,,,,,,,,,,,,,,,,,,,,,,,,,,,,,,,,,,,,,,,,,,,,,,,,,,,,,,,,,,,,,,,,,,,,,,,,,,,,,,,,,,,,,,,,,,,,,,,,,,,,,,,,,,,,,,
,,,,,,615df4022ce7fddd8e00e31d,62bbf95fd535a3dab3668cf8,2022-06-29_09h08.26.570,Colour_Asymmetry_Pilot,2022.1.3,Win32,60.09615385,62bbe60bf3d75ef465d3e404,0,40,40,17,1,onethree,,,,,,,,,,,,,,,,,,,,,,,,,,,,,,,,,,,,,,,,,,,,,,,,,,,,,,,,,,,,,,,,,,,,,,,,,,,,,,,,,,,,,,,,,,,,,,,,,,,,,,,,,,,,,,,,,,,,,,,,,,,,,,,,,,,,,,,,,,,,,,,,,,,,,,,,
,,,,,,615df4022ce7fddd8e00e31d,62bbf95fd535a3dab3668cf8,2022-06-29_09h08.26.570,Colour_Asymmetry_Pilot,2022.1.3,Win32,60.09615385,62bbe60bf3d75ef465d3e404,0,41,41,110,1,fourtwo,,,,,,,,,,,,,,,,,,,,,,,,,,,,,,,,,,,,,,,,,,,,,,,,,,,,,,,,,,,,,,,,,,,,,,,,,,,,,,,,,,,,,,,,,,,,,,,,,,,,,,,,,,,,,,,,,,,,,,,,,,,,,,,,,,,,,,,,,,,,,,,,,,,,,,,,
,,,,,,615df4022ce7fddd8e00e31d,62bbf95fd535a3dab3668cf8,2022-06-29_09h08.26.570,Colour_Asymmetry_Pilot,2022.1.3,Win32,60.09615385,62bbe60bf3d75ef465d3e404,0,42,42,22,1,fourtwo,,,,,,,,,,,,,,,,,,,,,,,,,,,,,,,,,,,,,,,,,,,,,,,,,,,,,,,,,,,,,,,,,,,,,,,,,,,,,,,,,,,,,,,,,,,,,,,,,,,,,,,,,,,,,,,,,,,,,,,,,,,,,,,,,,,,,,,,,,,,,,,,,,,,,,,,
,,,,,,615df4022ce7fddd8e00e31d,62bbf95fd535a3dab3668cf8,2022-06-29_09h08.26.570,Colour_Asymmetry_Pilot,2022.1.3,Win32,60.09615385,62bbe60bf3d75ef465d3e404,0,43,43,116,1,threeone,,,,,,,,,,,,,,,,,,,,,,,,,,,,,,,,,,,,,,,,,,,,,,,,,,,,,,,,,,,,,,,,,,,,,,,,,,,,,,,,,,,,,,,,,,,,,,,,,,,,,,,,,,,,,,,,,,,,,,,,,,,,,,,,,,,,,,,,,,,,,,,,,,,,,,,,
,,,,,,615df4022ce7fddd8e00e31d,62bbf95fd535a3dab3668cf8,2022-06-29_09h08.26.570,Colour_Asymmetry_Pilot,2022.1.3,Win32,60.09615385,62bbe60bf3d75ef465d3e404,0,44,44,25,1,onethree,,,,,,,,,,,,,,,,,,,,,,,,,,,,,,,,,,,,,,,,,,,,,,,,,,,,,,,,,,,,,,,,,,,,,,,,,,,,,,,,,,,,,,,,,,,,,,,,,,,,,,,,,,,,,,,,,,,,,,,,,,,,,,,,,,,,,,,,,,,,,,,,,,,,,,,,
,,,,,,615df4022ce7fddd8e00e31d,62bbf95fd535a3dab3668cf8,2022-06-29_09h08.26.570,Colour_Asymmetry_Pilot,2022.1.3,Win32,60.09615385,62bbe60bf3d75ef465d3e404,0,45,45,86,1,fourtwo,,,,,,,,,,,,,,,,,,,,,,,,,,,,,,,,,,,,,,,,,,,,,,,,,,,,,,,,,,,,,,,,,,,,,,,,,,,,,,,,,,,,,,,,,,,,,,,,,,,,,,,,,,,,,,,,,,,,,,,,,,,,,,,,,,,,,,,,,,,,,,,,,,,,,,,,
,,,,,,615df4022ce7fddd8e00e31d,62bbf95fd535a3dab3668cf8,2022-06-29_09h08.26.570,Colour_Asymmetry_Pilot,2022.1.3,Win32,60.09615385,62bbe60bf3d75ef465d3e404,0,46,46,45,1,threefour,,,,,,,,,,,,,,,,,,,,,,,,,,,,,,,,,,,,,,,,,,,,,,,,,,,,,,,,,,,,,,,,,,,,,,,,,,,,,,,,,,,,,,,,,,,,,,,,,,,,,,,,,,,,,,,,,,,,,,,,,,,,,,,,,,,,,,,,,,,,,,,,,,,,,,,,
,,,,,,615df4022ce7fddd8e00e31d,62bbf95fd535a3dab3668cf8,2022-06-29_09h08.26.570,Colour_Asymmetry_Pilot,2022.1.3,Win32,60.09615385,62bbe60bf3d75ef465d3e404,0,47,47,112,1,onetwo,,,,,,,,,,,,,,,,,,,,,,,,,,,,,,,,,,,,,,,,,,,,,,,,,,,,,,,,,,,,,,,,,,,,,,,,,,,,,,,,,,,,,,,,,,,,,,,,,,,,,,,,,,,,,,,,,,,,,,,,,,,,,,,,,,,,,,,,,,,,,,,,,,,,,,,,
,,,,,,615df4022ce7fddd8e00e31d,62bbf95fd535a3dab3668cf8,2022-06-29_09h08.26.570,Colour_Asymmetry_Pilot,2022.1.3,Win32,60.09615385,62bbe60bf3d75ef465d3e404,0,48,48,137,1,onethree,,,,,,,,,,,,,,,,,,,,,,,,,,,,,,,,,,,,,,,,,,,,,,,,,,,,,,,,,,,,,,,,,,,,,,,,,,,,,,,,,,,,,,,,,,,,,,,,,,,,,,,,,,,,,,,,,,,,,,,,,,,,,,,,,,,,,,,,,,,,,,,,,,,,,,,,
,,,,,,615df4022ce7fddd8e00e31d,62bbf95fd535a3dab3668cf8,2022-06-29_09h08.26.570,Colour_Asymmetry_Pilot,2022.1.3,Win32,60.09615385,62bbe60bf3d75ef465d3e404,0,49,49,28,1,threeone,,,,,,,,,,,,,,,,,,,,,,,,,,,,,,,,,,,,,,,,,,,,,,,,,,,,,,,,,,,,,,,,,,,,,,,,,,,,,,,,,,,,,,,,,,,,,,,,,,,,,,,,,,,,,,,,,,,,,,,,,,,,,,,,,,,,,,,,,,,,,,,,,,,,,,,,
,,,,,,615df4022ce7fddd8e00e31d,62bbf95fd535a3dab3668cf8,2022-06-29_09h08.26.570,Colour_Asymmetry_Pilot,2022.1.3,Win32,60.09615385,62bbe60bf3d75ef465d3e404,0,50,50,130,1,twoone,,,,,,,,,,,,,,,,,,,,,,,,,,,,,,,,,,,,,,,,,,,,,,,,,,,,,,,,,,,,,,,,,,,,,,,,,,,,,,,,,,,,,,,,,,,,,,,,,,,,,,,,,,,,,,,,,,,,,,,,,,,,,,,,,,,,,,,,,,,,,,,,,,,,,,,,
,,,,,,615df4022ce7fddd8e00e31d,62bbf95fd535a3dab3668cf8,2022-06-29_09h08.26.570,Colour_Asymmetry_Pilot,2022.1.3,Win32,60.09615385,62bbe60bf3d75ef465d3e404,0,51,51,26,1,twoone,,,,,,,,,,,,,,,,,,,,,,,,,,,,,,,,,,,,,,,,,,,,,,,,,,,,,,,,,,,,,,,,,,,,,,,,,,,,,,,,,,,,,,,,,,,,,,,,,,,,,,,,,,,,,,,,,,,,,,,,,,,,,,,,,,,,,,,,,,,,,,,,,,,,,,,,
,,,,,,615df4022ce7fddd8e00e31d,62bbf95fd535a3dab3668cf8,2022-06-29_09h08.26.570,Colour_Asymmetry_Pilot,2022.1.3,Win32,60.09615385,62bbe60bf3d75ef465d3e404,0,52,52,79,1,fourthree,,,,,,,,,,,,,,,,,,,,,,,,,,,,,,,,,,,,,,,,,,,,,,,,,,,,,,,,,,,,,,,,,,,,,,,,,,,,,,,,,,,,,,,,,,,,,,,,,,,,,,,,,,,,,,,,,,,,,,,,,,,,,,,,,,,,,,,,,,,,,,,,,,,,,,,,
,,,,,,615df4022ce7fddd8e00e31d,62bbf95fd535a3dab3668cf8,2022-06-29_09h08.26.570,Colour_Asymmetry_Pilot,2022.1.3,Win32,60.09615385,62bbe60bf3d75ef465d3e404,0,53,53,16,1,onetwo,,,,,,,,,,,,,,,,,,,,,,,,,,,,,,,,,,,,,,,,,,,,,,,,,,,,,,,,,,,,,,,,,,,,,,,,,,,,,,,,,,,,,,,,,,,,,,,,,,,,,,,,,,,,,,,,,,,,,,,,,,,,,,,,,,,,,,,,,,,,,,,,,,,,,,,,
,,,,,,615df4022ce7fddd8e00e31d,62bbf95fd535a3dab3668cf8,2022-06-29_09h08.26.570,Colour_Asymmetry_Pilot,2022.1.3,Win32,60.09615385,62bbe60bf3d75ef465d3e404,0,54,54,95,1,fourthree,,,,,,,,,,,,,,,,,,,,,,,,,,,,,,,,,,,,,,,,,,,,,,,,,,,,,,,,,,,,,,,,,,,,,,,,,,,,,,,,,,,,,,,,,,,,,,,,,,,,,,,,,,,,,,,,,,,,,,,,,,,,,,,,,,,,,,,,,,,,,,,,,,,,,,,,
,,,,,,615df4022ce7fddd8e00e31d,62bbf95fd535a3dab3668cf8,2022-06-29_09h08.26.570,Colour_Asymmetry_Pilot,2022.1.3,Win32,60.09615385,62bbe60bf3d75ef465d3e404,0,55,55,43,1,twofour,,,,,,,,,,,,,,,,,,,,,,,,,,,,,,,,,,,,,,,,,,,,,,,,,,,,,,,,,,,,,,,,,,,,,,,,,,,,,,,,,,,,,,,,,,,,,,,,,,,,,,,,,,,,,,,,,,,,,,,,,,,,,,,,,,,,,,,,,,,,,,,,,,,,,,,,
,,,,,,615df4022ce7fddd8e00e31d,62bbf95fd535a3dab3668cf8,2022-06-29_09h08.26.570,Colour_Asymmetry_Pilot,2022.1.3,Win32,60.09615385,62bbe60bf3d75ef465d3e404,0,56,56,56,1,onetwo,,,,,,,,,,,,,,,,,,,,,,,,,,,,,,,,,,,,,,,,,,,,,,,,,,,,,,,,,,,,,,,,,,,,,,,,,,,,,,,,,,,,,,,,,,,,,,,,,,,,,,,,,,,,,,,,,,,,,,,,,,,,,,,,,,,,,,,,,,,,,,,,,,,,,,,,
,,,,,,615df4022ce7fddd8e00e31d,62bbf95fd535a3dab3668cf8,2022-06-29_09h08.26.570,Colour_Asymmetry_Pilot,2022.1.3,Win32,60.09615385,62bbe60bf3d75ef465d3e404,0,57,57,30,1,fourtwo,,,,,,,,,,,,,,,,,,,,,,,,,,,,,,,,,,,,,,,,,,,,,,,,,,,,,,,,,,,,,,,,,,,,,,,,,,,,,,,,,,,,,,,,,,,,,,,,,,,,,,,,,,,,,,,,,,,,,,,,,,,,,,,,,,,,,,,,,,,,,,,,,,,,,,,,
,,,,,,615df4022ce7fddd8e00e31d,62bbf95fd535a3dab3668cf8,2022-06-29_09h08.26.570,Colour_Asymmetry_Pilot,2022.1.3,Win32,60.09615385,62bbe60bf3d75ef465d3e404,0,58,58,141,1,threefour,,,,,,,,,,,,,,,,,,,,,,,,,,,,,,,,,,,,,,,,,,,,,,,,,,,,,,,,,,,,,,,,,,,,,,,,,,,,,,,,,,,,,,,,,,,,,,,,,,,,,,,,,,,,,,,,,,,,,,,,,,,,,,,,,,,,,,,,,,,,,,,,,,,,,,,,
,,,,,,615df4022ce7fddd8e00e31d,62bbf95fd535a3dab3668cf8,2022-06-29_09h08.26.570,Colour_Asymmetry_Pilot,2022.1.3,Win32,60.09615385,62bbe60bf3d75ef465d3e404,0,59,59,71,1,fourthree,,,,,,,,,,,,,,,,,,,,,,,,,,,,,,,,,,,,,,,,,,,,,,,,,,,,,,,,,,,,,,,,,,,,,,,,,,,,,,,,,,,,,,,,,,,,,,,,,,,,,,,,,,,,,,,,,,,,,,,,,,,,,,,,,,,,,,,,,,,,,,,,,,,,,,,,
,,,,,,615df4022ce7fddd8e00e31d,62bbf95fd535a3dab3668cf8,2022-06-29_09h08.26.570,Colour_Asymmetry_Pilot,2022.1.3,Win32,60.09615385,62bbe60bf3d75ef465d3e404,0,60,60,78,1,fourtwo,,,,,,,,,,,,,,,,,,,,,,,,,,,,,,,,,,,,,,,,,,,,,,,,,,,,,,,,,,,,,,,,,,,,,,,,,,,,,,,,,,,,,,,,,,,,,,,,,,,,,,,,,,,,,,,,,,,,,,,,,,,,,,,,,,,,,,,,,,,,,,,,,,,,,,,,
,,,,,,615df4022ce7fddd8e00e31d,62bbf95fd535a3dab3668cf8,2022-06-29_09h08.26.570,Colour_Asymmetry_Pilot,2022.1.3,Win32,60.09615385,62bbe60bf3d75ef465d3e404,0,61,61,10,1,twoone,,,,,,,,,,,,,,,,,,,,,,,,,,,,,,,,,,,,,,,,,,,,,,,,,,,,,,,,,,,,,,,,,,,,,,,,,,,,,,,,,,,,,,,,,,,,,,,,,,,,,,,,,,,,,,,,,,,,,,,,,,,,,,,,,,,,,,,,,,,,,,,,,,,,,,,,
,,,,,,615df4022ce7fddd8e00e31d,62bbf95fd535a3dab3668cf8,2022-06-29_09h08.26.570,Colour_Asymmetry_Pilot,2022.1.3,Win32,60.09615385,62bbe60bf3d75ef465d3e404,0,62,62,98,1,twoone,,,,,,,,,,,,,,,,,,,,,,,,,,,,,,,,,,,,,,,,,,,,,,,,,,,,,,,,,,,,,,,,,,,,,,,,,,,,,,,,,,,,,,,,,,,,,,,,,,,,,,,,,,,,,,,,,,,,,,,,,,,,,,,,,,,,,,,,,,,,,,,,,,,,,,,,
,,,,,,615df4022ce7fddd8e00e31d,62bbf95fd535a3dab3668cf8,2022-06-29_09h08.26.570,Colour_Asymmetry_Pilot,2022.1.3,Win32,60.09615385,62bbe60bf3d75ef465d3e404,0,63,63,121,1,onethree,,,,,,,,,,,,,,,,,,,,,,,,,,,,,,,,,,,,,,,,,,,,,,,,,,,,,,,,,,,,,,,,,,,,,,,,,,,,,,,,,,,,,,,,,,,,,,,,,,,,,,,,,,,,,,,,,,,,,,,,,,,,,,,,,,,,,,,,,,,,,,,,,,,,,,,,
,,,,,,615df4022ce7fddd8e00e31d,62bbf95fd535a3dab3668cf8,2022-06-29_09h08.26.570,Colour_Asymmetry_Pilot,2022.1.3,Win32,60.09615385,62bbe60bf3d75ef465d3e404,0,64,64,146,1,twoone,,,,,,,,,,,,,,,,,,,,,,,,,,,,,,,,,,,,,,,,,,,,,,,,,,,,,,,,,,,,,,,,,,,,,,,,,,,,,,,,,,,,,,,,,,,,,,,,,,,,,,,,,,,,,,,,,,,,,,,,,,,,,,,,,,,,,,,,,,,,,,,,,,,,,,,,
,,,,,,615df4022ce7fddd8e00e31d,62bbf95fd535a3dab3668cf8,2022-06-29_09h08.26.570,Colour_Asymmetry_Pilot,2022.1.3,Win32,60.09615385,62bbe60bf3d75ef465d3e404,0,65,65,123,1,twofour,,,,,,,,,,,,,,,,,,,,,,,,,,,,,,,,,,,,,,,,,,,,,,,,,,,,,,,,,,,,,,,,,,,,,,,,,,,,,,,,,,,,,,,,,,,,,,,,,,,,,,,,,,,,,,,,,,,,,,,,,,,,,,,,,,,,,,,,,,,,,,,,,,,,,,,,
,,,,,,615df4022ce7fddd8e00e31d,62bbf95fd535a3dab3668cf8,2022-06-29_09h08.26.570,Colour_Asymmetry_Pilot,2022.1.3,Win32,60.09615385,62bbe60bf3d75ef465d3e404,0,66,66,133,1,threefour,,,,,,,,,,,,,,,,,,,,,,,,,,,,,,,,,,,,,,,,,,,,,,,,,,,,,,,,,,,,,,,,,,,,,,,,,,,,,,,,,,,,,,,,,,,,,,,,,,,,,,,,,,,,,,,,,,,,,,,,,,,,,,,,,,,,,,,,,,,,,,,,,,,,,,,,
,,,,,,615df4022ce7fddd8e00e31d,62bbf95fd535a3dab3668cf8,2022-06-29_09h08.26.570,Colour_Asymmetry_Pilot,2022.1.3,Win32,60.09615385,62bbe60bf3d75ef465d3e404,0,67,67,15,1,fourthree,,,,,,,,,,,,,,,,,,,,,,,,,,,,,,,,,,,,,,,,,,,,,,,,,,,,,,,,,,,,,,,,,,,,,,,,,,,,,,,,,,,,,,,,,,,,,,,,,,,,,,,,,,,,,,,,,,,,,,,,,,,,,,,,,,,,,,,,,,,,,,,,,,,,,,,,
,,,,,,615df4022ce7fddd8e00e31d,62bbf95fd535a3dab3668cf8,2022-06-29_09h08.26.570,Colour_Asymmetry_Pilot,2022.1.3,Win32,60.09615385,62bbe60bf3d75ef465d3e404,0,68,68,34,1,twoone,,,,,,,,,,,,,,,,,,,,,,,,,,,,,,,,,,,,,,,,,,,,,,,,,,,,,,,,,,,,,,,,,,,,,,,,,,,,,,,,,,,,,,,,,,,,,,,,,,,,,,,,,,,,,,,,,,,,,,,,,,,,,,,,,,,,,,,,,,,,,,,,,,,,,,,,
,,,,,,615df4022ce7fddd8e00e31d,62bbf95fd535a3dab3668cf8,2022-06-29_09h08.26.570,Colour_Asymmetry_Pilot,2022.1.3,Win32,60.09615385,62bbe60bf3d75ef465d3e404,0,69,69,51,1,twofour,,,,,,,,,,,,,,,,,,,,,,,,,,,,,,,,,,,,,,,,,,,,,,,,,,,,,,,,,,,,,,,,,,,,,,,,,,,,,,,,,,,,,,,,,,,,,,,,,,,,,,,,,,,,,,,,,,,,,,,,,,,,,,,,,,,,,,,,,,,,,,,,,,,,,,,,
,,,,,,615df4022ce7fddd8e00e31d,62bbf95fd535a3dab3668cf8,2022-06-29_09h08.26.570,Colour_Asymmetry_Pilot,2022.1.3,Win32,60.09615385,62bbe60bf3d75ef465d3e404,0,70,70,105,1,onethree,,,,,,,,,,,,,,,,,,,,,,,,,,,,,,,,,,,,,,,,,,,,,,,,,,,,,,,,,,,,,,,,,,,,,,,,,,,,,,,,,,,,,,,,,,,,,,,,,,,,,,,,,,,,,,,,,,,,,,,,,,,,,,,,,,,,,,,,,,,,,,,,,,,,,,,,
,,,,,,615df4022ce7fddd8e00e31d,62bbf95fd535a3dab3668cf8,2022-06-29_09h08.26.570,Colour_Asymmetry_Pilot,2022.1.3,Win32,60.09615385,62bbe60bf3d75ef465d3e404,0,71,71,89,1,onethree,,,,,,,,,,,,,,,,,,,,,,,,,,,,,,,,,,,,,,,,,,,,,,,,,,,,,,,,,,,,,,,,,,,,,,,,,,,,,,,,,,,,,,,,,,,,,,,,,,,,,,,,,,,,,,,,,,,,,,,,,,,,,,,,,,,,,,,,,,,,,,,,,,,,,,,,
,,,,,,615df4022ce7fddd8e00e31d,62bbf95fd535a3dab3668cf8,2022-06-29_09h08.26.570,Colour_Asymmetry_Pilot,2022.1.3,Win32,60.09615385,62bbe60bf3d75ef465d3e404,0,72,72,155,1,twofour,,,,,,,,,,,,,,,,,,,,,,,,,,,,,,,,,,,,,,,,,,,,,,,,,,,,,,,,,,,,,,,,,,,,,,,,,,,,,,,,,,,,,,,,,,,,,,,,,,,,,,,,,,,,,,,,,,,,,,,,,,,,,,,,,,,,,,,,,,,,,,,,,,,,,,,,
,,,,,,615df4022ce7fddd8e00e31d,62bbf95fd535a3dab3668cf8,2022-06-29_09h08.26.570,Colour_Asymmetry_Pilot,2022.1.3,Win32,60.09615385,62bbe60bf3d75ef465d3e404,0,73,73,88,1,onetwo,,,,,,,,,,,,,,,,,,,,,,,,,,,,,,,,,,,,,,,,,,,,,,,,,,,,,,,,,,,,,,,,,,,,,,,,,,,,,,,,,,,,,,,,,,,,,,,,,,,,,,,,,,,,,,,,,,,,,,,,,,,,,,,,,,,,,,,,,,,,,,,,,,,,,,,,
,,,,,,615df4022ce7fddd8e00e31d,62bbf95fd535a3dab3668cf8,2022-06-29_09h08.26.570,Colour_Asymmetry_Pilot,2022.1.3,Win32,60.09615385,62bbe60bf3d75ef465d3e404,0,74,74,41,1,onethree,,,,,,,,,,,,,,,,,,,,,,,,,,,,,,,,,,,,,,,,,,,,,,,,,,,,,,,,,,,,,,,,,,,,,,,,,,,,,,,,,,,,,,,,,,,,,,,,,,,,,,,,,,,,,,,,,,,,,,,,,,,,,,,,,,,,,,,,,,,,,,,,,,,,,,,,
,,,,,,615df4022ce7fddd8e00e31d,62bbf95fd535a3dab3668cf8,2022-06-29_09h08.26.570,Colour_Asymmetry_Pilot,2022.1.3,Win32,60.09615385,62bbe60bf3d75ef465d3e404,0,75,75,132,1,threeone,,,,,,,,,,,,,,,,,,,,,,,,,,,,,,,,,,,,,,,,,,,,,,,,,,,,,,,,,,,,,,,,,,,,,,,,,,,,,,,,,,,,,,,,,,,,,,,,,,,,,,,,,,,,,,,,,,,,,,,,,,,,,,,,,,,,,,,,,,,,,,,,,,,,,,,,
,,,,,,615df4022ce7fddd8e00e31d,62bbf95fd535a3dab3668cf8,2022-06-29_09h08.26.570,Colour_Asymmetry_Pilot,2022.1.3,Win32,60.09615385,62bbe60bf3d75ef465d3e404,0,76,76,117,1,threefour,,,,,,,,,,,,,,,,,,,,,,,,,,,,,,,,,,,,,,,,,,,,,,,,,,,,,,,,,,,,,,,,,,,,,,,,,,,,,,,,,,,,,,,,,,,,,,,,,,,,,,,,,,,,,,,,,,,,,,,,,,,,,,,,,,,,,,,,,,,,,,,,,,,,,,,,
,,,,,,615df4022ce7fddd8e00e31d,62bbf95fd535a3dab3668cf8,2022-06-29_09h08.26.570,Colour_Asymmetry_Pilot,2022.1.3,Win32,60.09615385,62bbe60bf3d75ef465d3e404,0,77,77,94,1,fourtwo,,,,,,,,,,,,,,,,,,,,,,,,,,,,,,,,,,,,,,,,,,,,,,,,,,,,,,,,,,,,,,,,,,,,,,,,,,,,,,,,,,,,,,,,,,,,,,,,,,,,,,,,,,,,,,,,,,,,,,,,,,,,,,,,,,,,,,,,,,,,,,,,,,,,,,,,
,,,,,,615df4022ce7fddd8e00e31d,62bbf95fd535a3dab3668cf8,2022-06-29_09h08.26.570,Colour_Asymmetry_Pilot,2022.1.3,Win32,60.09615385,62bbe60bf3d75ef465d3e404,0,78,78,75,1,twofour,,,,,,,,,,,,,,,,,,,,,,,,,,,,,,,,,,,,,,,,,,,,,,,,,,,,,,,,,,,,,,,,,,,,,,,,,,,,,,,,,,,,,,,,,,,,,,,,,,,,,,,,,,,,,,,,,,,,,,,,,,,,,,,,,,,,,,,,,,,,,,,,,,,,,,,,
,,,,,,615df4022ce7fddd8e00e31d,62bbf95fd535a3dab3668cf8,2022-06-29_09h08.26.570,Colour_Asymmetry_Pilot,2022.1.3,Win32,60.09615385,62bbe60bf3d75ef465d3e404,0,79,79,49,1,onethree,,,,,,,,,,,,,,,,,,,,,,,,,,,,,,,,,,,,,,,,,,,,,,,,,,,,,,,,,,,,,,,,,,,,,,,,,,,,,,,,,,,,,,,,,,,,,,,,,,,,,,,,,,,,,,,,,,,,,,,,,,,,,,,,,,,,,,,,,,,,,,,,,,,,,,,,
,,,,,,615df4022ce7fddd8e00e31d,62bbf95fd535a3dab3668cf8,2022-06-29_09h08.26.570,Colour_Asymmetry_Pilot,2022.1.3,Win32,60.09615385,62bbe60bf3d75ef465d3e404,0,80,80,139,1,twofour,,,,,,,,,,,,,,,,,,,,,,,,,,,,,,,,,,,,,,,,,,,,,,,,,,,,,,,,,,,,,,,,,,,,,,,,,,,,,,,,,,,,,,,,,,,,,,,,,,,,,,,,,,,,,,,,,,,,,,,,,,,,,,,,,,,,,,,,,,,,,,,,,,,,,,,,
,,,,,,615df4022ce7fddd8e00e31d,62bbf95fd535a3dab3668cf8,2022-06-29_09h08.26.570,Colour_Asymmetry_Pilot,2022.1.3,Win32,60.09615385,62bbe60bf3d75ef465d3e404,0,81,81,143,1,fourthree,,,,,,,,,,,,,,,,,,,,,,,,,,,,,,,,,,,,,,,,,,,,,,,,,,,,,,,,,,,,,,,,,,,,,,,,,,,,,,,,,,,,,,,,,,,,,,,,,,,,,,,,,,,,,,,,,,,,,,,,,,,,,,,,,,,,,,,,,,,,,,,,,,,,,,,,
,,,,,,615df4022ce7fddd8e00e31d,62bbf95fd535a3dab3668cf8,2022-06-29_09h08.26.570,Colour_Asymmetry_Pilot,2022.1.3,Win32,60.09615385,62bbe60bf3d75ef465d3e404,0,82,82,150,1,fourtwo,,,,,,,,,,,,,,,,,,,,,,,,,,,,,,,,,,,,,,,,,,,,,,,,,,,,,,,,,,,,,,,,,,,,,,,,,,,,,,,,,,,,,,,,,,,,,,,,,,,,,,,,,,,,,,,,,,,,,,,,,,,,,,,,,,,,,,,,,,,,,,,,,,,,,,,,
,,,,,,615df4022ce7fddd8e00e31d,62bbf95fd535a3dab3668cf8,2022-06-29_09h08.26.570,Colour_Asymmetry_Pilot,2022.1.3,Win32,60.09615385,62bbe60bf3d75ef465d3e404,0,83,83,21,1,threefour,,,,,,,,,,,,,,,,,,,,,,,,,,,,,,,,,,,,,,,,,,,,,,,,,,,,,,,,,,,,,,,,,,,,,,,,,,,,,,,,,,,,,,,,,,,,,,,,,,,,,,,,,,,,,,,,,,,,,,,,,,,,,,,,,,,,,,,,,,,,,,,,,,,,,,,,
,,,,,,615df4022ce7fddd8e00e31d,62bbf95fd535a3dab3668cf8,2022-06-29_09h08.26.570,Colour_Asymmetry_Pilot,2022.1.3,Win32,60.09615385,62bbe60bf3d75ef465d3e404,0,84,84,27,1,twofour,,,,,,,,,,,,,,,,,,,,,,,,,,,,,,,,,,,,,,,,,,,,,,,,,,,,,,,,,,,,,,,,,,,,,,,,,,,,,,,,,,,,,,,,,,,,,,,,,,,,,,,,,,,,,,,,,,,,,,,,,,,,,,,,,,,,,,,,,,,,,,,,,,,,,,,,
,,,,,,615df4022ce7fddd8e00e31d,62bbf95fd535a3dab3668cf8,2022-06-29_09h08.26.570,Colour_Asymmetry_Pilot,2022.1.3,Win32,60.09615385,62bbe60bf3d75ef465d3e404,0,85,85,68,1,threeone,,,,,,,,,,,,,,,,,,,,,,,,,,,,,,,,,,,,,,,,,,,,,,,,,,,,,,,,,,,,,,,,,,,,,,,,,,,,,,,,,,,,,,,,,,,,,,,,,,,,,,,,,,,,,,,,,,,,,,,,,,,,,,,,,,,,,,,,,,,,,,,,,,,,,,,,
,,,,,,615df4022ce7fddd8e00e31d,62bbf95fd535a3dab3668cf8,2022-06-29_09h08.26.570,Colour_Asymmetry_Pilot,2022.1.3,Win32,60.09615385,62bbe60bf3d75ef465d3e404,0,86,86,144,1,onetwo,,,,,,,,,,,,,,,,,,,,,,,,,,,,,,,,,,,,,,,,,,,,,,,,,,,,,,,,,,,,,,,,,,,,,,,,,,,,,,,,,,,,,,,,,,,,,,,,,,,,,,,,,,,,,,,,,,,,,,,,,,,,,,,,,,,,,,,,,,,,,,,,,,,,,,,,
,,,,,,615df4022ce7fddd8e00e31d,62bbf95fd535a3dab3668cf8,2022-06-29_09h08.26.570,Colour_Asymmetry_Pilot,2022.1.3,Win32,60.09615385,62bbe60bf3d75ef465d3e404,0,87,87,57,1,onethree,,,,,,,,,,,,,,,,,,,,,,,,,,,,,,,,,,,,,,,,,,,,,,,,,,,,,,,,,,,,,,,,,,,,,,,,,,,,,,,,,,,,,,,,,,,,,,,,,,,,,,,,,,,,,,,,,,,,,,,,,,,,,,,,,,,,,,,,,,,,,,,,,,,,,,,,
,,,,,,615df4022ce7fddd8e00e31d,62bbf95fd535a3dab3668cf8,2022-06-29_09h08.26.570,Colour_Asymmetry_Pilot,2022.1.3,Win32,60.09615385,62bbe60bf3d75ef465d3e404,0,88,88,115,1,twofour,,,,,,,,,,,,,,,,,,,,,,,,,,,,,,,,,,,,,,,,,,,,,,,,,,,,,,,,,,,,,,,,,,,,,,,,,,,,,,,,,,,,,,,,,,,,,,,,,,,,,,,,,,,,,,,,,,,,,,,,,,,,,,,,,,,,,,,,,,,,,,,,,,,,,,,,
,,,,,,615df4022ce7fddd8e00e31d,62bbf95fd535a3dab3668cf8,2022-06-29_09h08.26.570,Colour_Asymmetry_Pilot,2022.1.3,Win32,60.09615385,62bbe60bf3d75ef465d3e404,0,89,89,59,1,twofour,,,,,,,,,,,,,,,,,,,,,,,,,,,,,,,,,,,,,,,,,,,,,,,,,,,,,,,,,,,,,,,,,,,,,,,,,,,,,,,,,,,,,,,,,,,,,,,,,,,,,,,,,,,,,,,,,,,,,,,,,,,,,,,,,,,,,,,,,,,,,,,,,,,,,,,,
,,,,,,615df4022ce7fddd8e00e31d,62bbf95fd535a3dab3668cf8,2022-06-29_09h08.26.570,Colour_Asymmetry_Pilot,2022.1.3,Win32,60.09615385,62bbe60bf3d75ef465d3e404,0,90,90,61,1,threefour,,,,,,,,,,,,,,,,,,,,,,,,,,,,,,,,,,,,,,,,,,,,,,,,,,,,,,,,,,,,,,,,,,,,,,,,,,,,,,,,,,,,,,,,,,,,,,,,,,,,,,,,,,,,,,,,,,,,,,,,,,,,,,,,,,,,,,,,,,,,,,,,,,,,,,,,
,,,,,,615df4022ce7fddd8e00e31d,62bbf95fd535a3dab3668cf8,2022-06-29_09h08.26.570,Colour_Asymmetry_Pilot,2022.1.3,Win32,60.09615385,62bbe60bf3d75ef465d3e404,0,91,91,4,1,threeone,,,,,,,,,,,,,,,,,,,,,,,,,,,,,,,,,,,,,,,,,,,,,,,,,,,,,,,,,,,,,,,,,,,,,,,,,,,,,,,,,,,,,,,,,,,,,,,,,,,,,,,,,,,,,,,,,,,,,,,,,,,,,,,,,,,,,,,,,,,,,,,,,,,,,,,,
,,,,,,615df4022ce7fddd8e00e31d,62bbf95fd535a3dab3668cf8,2022-06-29_09h08.26.570,Colour_Asymmetry_Pilot,2022.1.3,Win32,60.09615385,62bbe60bf3d75ef465d3e404,0,92,92,35,1,twofour,,,,,,,,,,,,,,,,,,,,,,,,,,,,,,,,,,,,,,,,,,,,,,,,,,,,,,,,,,,,,,,,,,,,,,,,,,,,,,,,,,,,,,,,,,,,,,,,,,,,,,,,,,,,,,,,,,,,,,,,,,,,,,,,,,,,,,,,,,,,,,,,,,,,,,,,
,,,,,,615df4022ce7fddd8e00e31d,62bbf95fd535a3dab3668cf8,2022-06-29_09h08.26.570,Colour_Asymmetry_Pilot,2022.1.3,Win32,60.09615385,62bbe60bf3d75ef465d3e404,0,93,93,140,1,threeone,,,,,,,,,,,,,,,,,,,,,,,,,,,,,,,,,,,,,,,,,,,,,,,,,,,,,,,,,,,,,,,,,,,,,,,,,,,,,,,,,,,,,,,,,,,,,,,,,,,,,,,,,,,,,,,,,,,,,,,,,,,,,,,,,,,,,,,,,,,,,,,,,,,,,,,,
,,,,,,615df4022ce7fddd8e00e31d,62bbf95fd535a3dab3668cf8,2022-06-29_09h08.26.570,Colour_Asymmetry_Pilot,2022.1.3,Win32,60.09615385,62bbe60bf3d75ef465d3e404,0,94,94,20,1,threeone,,,,,,,,,,,,,,,,,,,,,,,,,,,,,,,,,,,,,,,,,,,,,,,,,,,,,,,,,,,,,,,,,,,,,,,,,,,,,,,,,,,,,,,,,,,,,,,,,,,,,,,,,,,,,,,,,,,,,,,,,,,,,,,,,,,,,,,,,,,,,,,,,,,,,,,,
,,,,,,615df4022ce7fddd8e00e31d,62bbf95fd535a3dab3668cf8,2022-06-29_09h08.26.570,Colour_Asymmetry_Pilot,2022.1.3,Win32,60.09615385,62bbe60bf3d75ef465d3e404,0,95,95,82,1,twoone,,,,,,,,,,,,,,,,,,,,,,,,,,,,,,,,,,,,,,,,,,,,,,,,,,,,,,,,,,,,,,,,,,,,,,,,,,,,,,,,,,,,,,,,,,,,,,,,,,,,,,,,,,,,,,,,,,,,,,,,,,,,,,,,,,,,,,,,,,,,,,,,,,,,,,,,
,,,,,,615df4022ce7fddd8e00e31d,62bbf95fd535a3dab3668cf8,2022-06-29_09h08.26.570,Colour_Asymmetry_Pilot,2022.1.3,Win32,60.09615385,62bbe60bf3d75ef465d3e404,0,96,96,109,1,threefour,,,,,,,,,,,,,,,,,,,,,,,,,,,,,,,,,,,,,,,,,,,,,,,,,,,,,,,,,,,,,,,,,,,,,,,,,,,,,,,,,,,,,,,,,,,,,,,,,,,,,,,,,,,,,,,,,,,,,,,,,,,,,,,,,,,,,,,,,,,,,,,,,,,,,,,,
,,,,,,615df4022ce7fddd8e00e31d,62bbf95fd535a3dab3668cf8,2022-06-29_09h08.26.570,Colour_Asymmetry_Pilot,2022.1.3,Win32,60.09615385,62bbe60bf3d75ef465d3e404,0,97,97,103,1,fourthree,,,,,,,,,,,,,,,,,,,,,,,,,,,,,,,,,,,,,,,,,,,,,,,,,,,,,,,,,,,,,,,,,,,,,,,,,,,,,,,,,,,,,,,,,,,,,,,,,,,,,,,,,,,,,,,,,,,,,,,,,,,,,,,,,,,,,,,,,,,,,,,,,,,,,,,,
,,,,,,615df4022ce7fddd8e00e31d,62bbf95fd535a3dab3668cf8,2022-06-29_09h08.26.570,Colour_Asymmetry_Pilot,2022.1.3,Win32,60.09615385,62bbe60bf3d75ef465d3e404,0,98,98,90,1,twoone,,,,,,,,,,,,,,,,,,,,,,,,,,,,,,,,,,,,,,,,,,,,,,,,,,,,,,,,,,,,,,,,,,,,,,,,,,,,,,,,,,,,,,,,,,,,,,,,,,,,,,,,,,,,,,,,,,,,,,,,,,,,,,,,,,,,,,,,,,,,,,,,,,,,,,,,
,,,,,,615df4022ce7fddd8e00e31d,62bbf95fd535a3dab3668cf8,2022-06-29_09h08.26.570,Colour_Asymmetry_Pilot,2022.1.3,Win32,60.09615385,62bbe60bf3d75ef465d3e404,0,99,99,8,1,onetwo,,,,,,,,,,,,,,,,,,,,,,,,,,,,,,,,,,,,,,,,,,,,,,,,,,,,,,,,,,,,,,,,,,,,,,,,,,,,,,,,,,,,,,,,,,,,,,,,,,,,,,,,,,,,,,,,,,,,,,,,,,,,,,,,,,,,,,,,,,,,,,,,,,,,,,,,
,,,,,,615df4022ce7fddd8e00e31d,62bbf95fd535a3dab3668cf8,2022-06-29_09h08.26.570,Colour_Asymmetry_Pilot,2022.1.3,Win32,60.09615385,62bbe60bf3d75ef465d3e404,0,100,100,58,1,twoone,,,,,,,,,,,,,,,,,,,,,,,,,,,,,,,,,,,,,,,,,,,,,,,,,,,,,,,,,,,,,,,,,,,,,,,,,,,,,,,,,,,,,,,,,,,,,,,,,,,,,,,,,,,,,,,,,,,,,,,,,,,,,,,,,,,,,,,,,,,,,,,,,,,,,,,,
,,,,,,615df4022ce7fddd8e00e31d,62bbf95fd535a3dab3668cf8,2022-06-29_09h08.26.570,Colour_Asymmetry_Pilot,2022.1.3,Win32,60.09615385,62bbe60bf3d75ef465d3e404,0,101,101,12,1,threeone,,,,,,,,,,,,,,,,,,,,,,,,,,,,,,,,,,,,,,,,,,,,,,,,,,,,,,,,,,,,,,,,,,,,,,,,,,,,,,,,,,,,,,,,,,,,,,,,,,,,,,,,,,,,,,,,,,,,,,,,,,,,,,,,,,,,,,,,,,,,,,,,,,,,,,,,
,,,,,,615df4022ce7fddd8e00e31d,62bbf95fd535a3dab3668cf8,2022-06-29_09h08.26.570,Colour_Asymmetry_Pilot,2022.1.3,Win32,60.09615385,62bbe60bf3d75ef465d3e404,0,102,102,92,1,threeone,,,,,,,,,,,,,,,,,,,,,,,,,,,,,,,,,,,,,,,,,,,,,,,,,,,,,,,,,,,,,,,,,,,,,,,,,,,,,,,,,,,,,,,,,,,,,,,,,,,,,,,,,,,,,,,,,,,,,,,,,,,,,,,,,,,,,,,,,,,,,,,,,,,,,,,,
,,,,,,615df4022ce7fddd8e00e31d,62bbf95fd535a3dab3668cf8,2022-06-29_09h08.26.570,Colour_Asymmetry_Pilot,2022.1.3,Win32,60.09615385,62bbe60bf3d75ef465d3e404,0,103,103,136,1,onetwo,,,,,,,,,,,,,,,,,,,,,,,,,,,,,,,,,,,,,,,,,,,,,,,,,,,,,,,,,,,,,,,,,,,,,,,,,,,,,,,,,,,,,,,,,,,,,,,,,,,,,,,,,,,,,,,,,,,,,,,,,,,,,,,,,,,,,,,,,,,,,,,,,,,,,,,,
,,,,,,615df4022ce7fddd8e00e31d,62bbf95fd535a3dab3668cf8,2022-06-29_09h08.26.570,Colour_Asymmetry_Pilot,2022.1.3,Win32,60.09615385,62bbe60bf3d75ef465d3e404,0,104,104,50,1,twoone,,,,,,,,,,,,,,,,,,,,,,,,,,,,,,,,,,,,,,,,,,,,,,,,,,,,,,,,,,,,,,,,,,,,,,,,,,,,,,,,,,,,,,,,,,,,,,,,,,,,,,,,,,,,,,,,,,,,,,,,,,,,,,,,,,,,,,,,,,,,,,,,,,,,,,,,
,,,,,,615df4022ce7fddd8e00e31d,62bbf95fd535a3dab3668cf8,2022-06-29_09h08.26.570,Colour_Asymmetry_Pilot,2022.1.3,Win32,60.09615385,62bbe60bf3d75ef465d3e404,0,105,105,33,1,onethree,,,,,,,,,,,,,,,,,,,,,,,,,,,,,,,,,,,,,,,,,,,,,,,,,,,,,,,,,,,,,,,,,,,,,,,,,,,,,,,,,,,,,,,,,,,,,,,,,,,,,,,,,,,,,,,,,,,,,,,,,,,,,,,,,,,,,,,,,,,,,,,,,,,,,,,,
,,,,,,615df4022ce7fddd8e00e31d,62bbf95fd535a3dab3668cf8,2022-06-29_09h08.26.570,Colour_Asymmetry_Pilot,2022.1.3,Win32,60.09615385,62bbe60bf3d75ef465d3e404,0,106,106,126,1,fourtwo,,,,,,,,,,,,,,,,,,,,,,,,,,,,,,,,,,,,,,,,,,,,,,,,,,,,,,,,,,,,,,,,,,,,,,,,,,,,,,,,,,,,,,,,,,,,,,,,,,,,,,,,,,,,,,,,,,,,,,,,,,,,,,,,,,,,,,,,,,,,,,,,,,,,,,,,
,,,,,,615df4022ce7fddd8e00e31d,62bbf95fd535a3dab3668cf8,2022-06-29_09h08.26.570,Colour_Asymmetry_Pilot,2022.1.3,Win32,60.09615385,62bbe60bf3d75ef465d3e404,0,107,107,128,1,onetwo,,,,,,,,,,,,,,,,,,,,,,,,,,,,,,,,,,,,,,,,,,,,,,,,,,,,,,,,,,,,,,,,,,,,,,,,,,,,,,,,,,,,,,,,,,,,,,,,,,,,,,,,,,,,,,,,,,,,,,,,,,,,,,,,,,,,,,,,,,,,,,,,,,,,,,,,
,,,,,,615df4022ce7fddd8e00e31d,62bbf95fd535a3dab3668cf8,2022-06-29_09h08.26.570,Colour_Asymmetry_Pilot,2022.1.3,Win32,60.09615385,62bbe60bf3d75ef465d3e404,0,108,108,122,1,twoone,,,,,,,,,,,,,,,,,,,,,,,,,,,,,,,,,,,,,,,,,,,,,,,,,,,,,,,,,,,,,,,,,,,,,,,,,,,,,,,,,,,,,,,,,,,,,,,,,,,,,,,,,,,,,,,,,,,,,,,,,,,,,,,,,,,,,,,,,,,,,,,,,,,,,,,,
,,,,,,615df4022ce7fddd8e00e31d,62bbf95fd535a3dab3668cf8,2022-06-29_09h08.26.570,Colour_Asymmetry_Pilot,2022.1.3,Win32,60.09615385,62bbe60bf3d75ef465d3e404,0,109,109,93,1,threefour,,,,,,,,,,,,,,,,,,,,,,,,,,,,,,,,,,,,,,,,,,,,,,,,,,,,,,,,,,,,,,,,,,,,,,,,,,,,,,,,,,,,,,,,,,,,,,,,,,,,,,,,,,,,,,,,,,,,,,,,,,,,,,,,,,,,,,,,,,,,,,,,,,,,,,,,
,,,,,,615df4022ce7fddd8e00e31d,62bbf95fd535a3dab3668cf8,2022-06-29_09h08.26.570,Colour_Asymmetry_Pilot,2022.1.3,Win32,60.09615385,62bbe60bf3d75ef465d3e404,0,110,110,96,1,onetwo,,,,,,,,,,,,,,,,,,,,,,,,,,,,,,,,,,,,,,,,,,,,,,,,,,,,,,,,,,,,,,,,,,,,,,,,,,,,,,,,,,,,,,,,,,,,,,,,,,,,,,,,,,,,,,,,,,,,,,,,,,,,,,,,,,,,,,,,,,,,,,,,,,,,,,,,
,,,,,,615df4022ce7fddd8e00e31d,62bbf95fd535a3dab3668cf8,2022-06-29_09h08.26.570,Colour_Asymmetry_Pilot,2022.1.3,Win32,60.09615385,62bbe60bf3d75ef465d3e404,0,111,111,158,1,fourtwo,,,,,,,,,,,,,,,,,,,,,,,,,,,,,,,,,,,,,,,,,,,,,,,,,,,,,,,,,,,,,,,,,,,,,,,,,,,,,,,,,,,,,,,,,,,,,,,,,,,,,,,,,,,,,,,,,,,,,,,,,,,,,,,,,,,,,,,,,,,,,,,,,,,,,,,,
,,,,,,615df4022ce7fddd8e00e31d,62bbf95fd535a3dab3668cf8,2022-06-29_09h08.26.570,Colour_Asymmetry_Pilot,2022.1.3,Win32,60.09615385,62bbe60bf3d75ef465d3e404,0,112,112,157,1,threefour,,,,,,,,,,,,,,,,,,,,,,,,,,,,,,,,,,,,,,,,,,,,,,,,,,,,,,,,,,,,,,,,,,,,,,,,,,,,,,,,,,,,,,,,,,,,,,,,,,,,,,,,,,,,,,,,,,,,,,,,,,,,,,,,,,,,,,,,,,,,,,,,,,,,,,,,
,,,,,,615df4022ce7fddd8e00e31d,62bbf95fd535a3dab3668cf8,2022-06-29_09h08.26.570,Colour_Asymmetry_Pilot,2022.1.3,Win32,60.09615385,62bbe60bf3d75ef465d3e404,0,113,113,149,1,threefour,,,,,,,,,,,,,,,,,,,,,,,,,,,,,,,,,,,,,,,,,,,,,,,,,,,,,,,,,,,,,,,,,,,,,,,,,,,,,,,,,,,,,,,,,,,,,,,,,,,,,,,,,,,,,,,,,,,,,,,,,,,,,,,,,,,,,,,,,,,,,,,,,,,,,,,,
,,,,,,615df4022ce7fddd8e00e31d,62bbf95fd535a3dab3668cf8,2022-06-29_09h08.26.570,Colour_Asymmetry_Pilot,2022.1.3,Win32,60.09615385,62bbe60bf3d75ef465d3e404,0,114,114,69,1,threefour,,,,,,,,,,,,,,,,,,,,,,,,,,,,,,,,,,,,,,,,,,,,,,,,,,,,,,,,,,,,,,,,,,,,,,,,,,,,,,,,,,,,,,,,,,,,,,,,,,,,,,,,,,,,,,,,,,,,,,,,,,,,,,,,,,,,,,,,,,,,,,,,,,,,,,,,
,,,,,,615df4022ce7fddd8e00e31d,62bbf95fd535a3dab3668cf8,2022-06-29_09h08.26.570,Colour_Asymmetry_Pilot,2022.1.3,Win32,60.09615385,62bbe60bf3d75ef465d3e404,0,115,115,42,1,twoone,,,,,,,,,,,,,,,,,,,,,,,,,,,,,,,,,,,,,,,,,,,,,,,,,,,,,,,,,,,,,,,,,,,,,,,,,,,,,,,,,,,,,,,,,,,,,,,,,,,,,,,,,,,,,,,,,,,,,,,,,,,,,,,,,,,,,,,,,,,,,,,,,,,,,,,,
,,,,,,615df4022ce7fddd8e00e31d,62bbf95fd535a3dab3668cf8,2022-06-29_09h08.26.570,Colour_Asymmetry_Pilot,2022.1.3,Win32,60.09615385,62bbe60bf3d75ef465d3e404,0,116,116,2,1,twoone,,,,,,,,,,,,,,,,,,,,,,,,,,,,,,,,,,,,,,,,,,,,,,,,,,,,,,,,,,,,,,,,,,,,,,,,,,,,,,,,,,,,,,,,,,,,,,,,,,,,,,,,,,,,,,,,,,,,,,,,,,,,,,,,,,,,,,,,,,,,,,,,,,,,,,,,
,,,,,,615df4022ce7fddd8e00e31d,62bbf95fd535a3dab3668cf8,2022-06-29_09h08.26.570,Colour_Asymmetry_Pilot,2022.1.3,Win32,60.09615385,62bbe60bf3d75ef465d3e404,0,117,117,81,1,onethree,,,,,,,,,,,,,,,,,,,,,,,,,,,,,,,,,,,,,,,,,,,,,,,,,,,,,,,,,,,,,,,,,,,,,,,,,,,,,,,,,,,,,,,,,,,,,,,,,,,,,,,,,,,,,,,,,,,,,,,,,,,,,,,,,,,,,,,,,,,,,,,,,,,,,,,,
,,,,,,615df4022ce7fddd8e00e31d,62bbf95fd535a3dab3668cf8,2022-06-29_09h08.26.570,Colour_Asymmetry_Pilot,2022.1.3,Win32,60.09615385,62bbe60bf3d75ef465d3e404,0,118,118,107,1,twofour,,,,,,,,,,,,,,,,,,,,,,,,,,,,,,,,,,,,,,,,,,,,,,,,,,,,,,,,,,,,,,,,,,,,,,,,,,,,,,,,,,,,,,,,,,,,,,,,,,,,,,,,,,,,,,,,,,,,,,,,,,,,,,,,,,,,,,,,,,,,,,,,,,,,,,,,
,,,,,,615df4022ce7fddd8e00e31d,62bbf95fd535a3dab3668cf8,2022-06-29_09h08.26.570,Colour_Asymmetry_Pilot,2022.1.3,Win32,60.09615385,62bbe60bf3d75ef465d3e404,0,119,119,159,1,fourthree,,,,,,,,,,,,,,,,,,,,,,,,,,,,,,,,,,,,,,,,,,,,,,,,,,,,,,,,,,,,,,,,,,,,,,,,,,,,,,,,,,,,,,,,,,,,,,,,,,,,,,,,,,,,,,,,,,,,,,,,,,,,,,,,,,,,,,,,,,,,,,,,,,,,,,,,
,,,,,,615df4022ce7fddd8e00e31d,62bbf95fd535a3dab3668cf8,2022-06-29_09h08.26.570,Colour_Asymmetry_Pilot,2022.1.3,Win32,60.09615385,62bbe60bf3d75ef465d3e404,0,120,120,153,1,onethree,,,,,,,,,,,,,,,,,,,,,,,,,,,,,,,,,,,,,,,,,,,,,,,,,,,,,,,,,,,,,,,,,,,,,,,,,,,,,,,,,,,,,,,,,,,,,,,,,,,,,,,,,,,,,,,,,,,,,,,,,,,,,,,,,,,,,,,,,,,,,,,,,,,,,,,,
,,,,,,615df4022ce7fddd8e00e31d,62bbf95fd535a3dab3668cf8,2022-06-29_09h08.26.570,Colour_Asymmetry_Pilot,2022.1.3,Win32,60.09615385,62bbe60bf3d75ef465d3e404,0,121,121,66,1,twoone,,,,,,,,,,,,,,,,,,,,,,,,,,,,,,,,,,,,,,,,,,,,,,,,,,,,,,,,,,,,,,,,,,,,,,,,,,,,,,,,,,,,,,,,,,,,,,,,,,,,,,,,,,,,,,,,,,,,,,,,,,,,,,,,,,,,,,,,,,,,,,,,,,,,,,,,
,,,,,,615df4022ce7fddd8e00e31d,62bbf95fd535a3dab3668cf8,2022-06-29_09h08.26.570,Colour_Asymmetry_Pilot,2022.1.3,Win32,60.09615385,62bbe60bf3d75ef465d3e404,0,122,122,106,1,twoone,,,,,,,,,,,,,,,,,,,,,,,,,,,,,,,,,,,,,,,,,,,,,,,,,,,,,,,,,,,,,,,,,,,,,,,,,,,,,,,,,,,,,,,,,,,,,,,,,,,,,,,,,,,,,,,,,,,,,,,,,,,,,,,,,,,,,,,,,,,,,,,,,,,,,,,,
,,,,,,615df4022ce7fddd8e00e31d,62bbf95fd535a3dab3668cf8,2022-06-29_09h08.26.570,Colour_Asymmetry_Pilot,2022.1.3,Win32,60.09615385,62bbe60bf3d75ef465d3e404,0,123,123,64,1,onetwo,,,,,,,,,,,,,,,,,,,,,,,,,,,,,,,,,,,,,,,,,,,,,,,,,,,,,,,,,,,,,,,,,,,,,,,,,,,,,,,,,,,,,,,,,,,,,,,,,,,,,,,,,,,,,,,,,,,,,,,,,,,,,,,,,,,,,,,,,,,,,,,,,,,,,,,,
,,,,,,615df4022ce7fddd8e00e31d,62bbf95fd535a3dab3668cf8,2022-06-29_09h08.26.570,Colour_Asymmetry_Pilot,2022.1.3,Win32,60.09615385,62bbe60bf3d75ef465d3e404,0,124,124,87,1,fourthree,,,,,,,,,,,,,,,,,,,,,,,,,,,,,,,,,,,,,,,,,,,,,,,,,,,,,,,,,,,,,,,,,,,,,,,,,,,,,,,,,,,,,,,,,,,,,,,,,,,,,,,,,,,,,,,,,,,,,,,,,,,,,,,,,,,,,,,,,,,,,,,,,,,,,,,,
,,,,,,615df4022ce7fddd8e00e31d,62bbf95fd535a3dab3668cf8,2022-06-29_09h08.26.570,Colour_Asymmetry_Pilot,2022.1.3,Win32,60.09615385,62bbe60bf3d75ef465d3e404,0,125,125,36,1,threeone,,,,,,,,,,,,,,,,,,,,,,,,,,,,,,,,,,,,,,,,,,,,,,,,,,,,,,,,,,,,,,,,,,,,,,,,,,,,,,,,,,,,,,,,,,,,,,,,,,,,,,,,,,,,,,,,,,,,,,,,,,,,,,,,,,,,,,,,,,,,,,,,,,,,,,,,
,,,,,,615df4022ce7fddd8e00e31d,62bbf95fd535a3dab3668cf8,2022-06-29_09h08.26.570,Colour_Asymmetry_Pilot,2022.1.3,Win32,60.09615385,62bbe60bf3d75ef465d3e404,0,126,126,134,1,fourtwo,,,,,,,,,,,,,,,,,,,,,,,,,,,,,,,,,,,,,,,,,,,,,,,,,,,,,,,,,,,,,,,,,,,,,,,,,,,,,,,,,,,,,,,,,,,,,,,,,,,,,,,,,,,,,,,,,,,,,,,,,,,,,,,,,,,,,,,,,,,,,,,,,,,,,,,,
,,,,,,615df4022ce7fddd8e00e31d,62bbf95fd535a3dab3668cf8,2022-06-29_09h08.26.570,Colour_Asymmetry_Pilot,2022.1.3,Win32,60.09615385,62bbe60bf3d75ef465d3e404,0,127,127,29,1,threefour,,,,,,,,,,,,,,,,,,,,,,,,,,,,,,,,,,,,,,,,,,,,,,,,,,,,,,,,,,,,,,,,,,,,,,,,,,,,,,,,,,,,,,,,,,,,,,,,,,,,,,,,,,,,,,,,,,,,,,,,,,,,,,,,,,,,,,,,,,,,,,,,,,,,,,,,
,,,,,,615df4022ce7fddd8e00e31d,62bbf95fd535a3dab3668cf8,2022-06-29_09h08.26.570,Colour_Asymmetry_Pilot,2022.1.3,Win32,60.09615385,62bbe60bf3d75ef465d3e404,0,128,128,18,1,twoone,,,,,,,,,,,,,,,,,,,,,,,,,,,,,,,,,,,,,,,,,,,,,,,,,,,,,,,,,,,,,,,,,,,,,,,,,,,,,,,,,,,,,,,,,,,,,,,,,,,,,,,,,,,,,,,,,,,,,,,,,,,,,,,,,,,,,,,,,,,,,,,,,,,,,,,,
,,,,,,615df4022ce7fddd8e00e31d,62bbf95fd535a3dab3668cf8,2022-06-29_09h08.26.570,Colour_Asymmetry_Pilot,2022.1.3,Win32,60.09615385,62bbe60bf3d75ef465d3e404,0,129,129,55,1,fourthree,,,,,,,,,,,,,,,,,,,,,,,,,,,,,,,,,,,,,,,,,,,,,,,,,,,,,,,,,,,,,,,,,,,,,,,,,,,,,,,,,,,,,,,,,,,,,,,,,,,,,,,,,,,,,,,,,,,,,,,,,,,,,,,,,,,,,,,,,,,,,,,,,,,,,,,,
,,,,,,615df4022ce7fddd8e00e31d,62bbf95fd535a3dab3668cf8,2022-06-29_09h08.26.570,Colour_Asymmetry_Pilot,2022.1.3,Win32,60.09615385,62bbe60bf3d75ef465d3e404,0,130,130,120,1,onetwo,,,,,,,,,,,,,,,,,,,,,,,,,,,,,,,,,,,,,,,,,,,,,,,,,,,,,,,,,,,,,,,,,,,,,,,,,,,,,,,,,,,,,,,,,,,,,,,,,,,,,,,,,,,,,,,,,,,,,,,,,,,,,,,,,,,,,,,,,,,,,,,,,,,,,,,,
,,,,,,615df4022ce7fddd8e00e31d,62bbf95fd535a3dab3668cf8,2022-06-29_09h08.26.570,Colour_Asymmetry_Pilot,2022.1.3,Win32,60.09615385,62bbe60bf3d75ef465d3e404,0,131,131,114,1,twoone,,,,,,,,,,,,,,,,,,,,,,,,,,,,,,,,,,,,,,,,,,,,,,,,,,,,,,,,,,,,,,,,,,,,,,,,,,,,,,,,,,,,,,,,,,,,,,,,,,,,,,,,,,,,,,,,,,,,,,,,,,,,,,,,,,,,,,,,,,,,,,,,,,,,,,,,
,,,,,,615df4022ce7fddd8e00e31d,62bbf95fd535a3dab3668cf8,2022-06-29_09h08.26.570,Colour_Asymmetry_Pilot,2022.1.3,Win32,60.09615385,62bbe60bf3d75ef465d3e404,0,132,132,118,1,fourtwo,,,,,,,,,,,,,,,,,,,,,,,,,,,,,,,,,,,,,,,,,,,,,,,,,,,,,,,,,,,,,,,,,,,,,,,,,,,,,,,,,,,,,,,,,,,,,,,,,,,,,,,,,,,,,,,,,,,,,,,,,,,,,,,,,,,,,,,,,,,,,,,,,,,,,,,,
,,,,,,615df4022ce7fddd8e00e31d,62bbf95fd535a3dab3668cf8,2022-06-29_09h08.26.570,Colour_Asymmetry_Pilot,2022.1.3,Win32,60.09615385,62bbe60bf3d75ef465d3e404,0,133,133,113,1,onethree,,,,,,,,,,,,,,,,,,,,,,,,,,,,,,,,,,,,,,,,,,,,,,,,,,,,,,,,,,,,,,,,,,,,,,,,,,,,,,,,,,,,,,,,,,,,,,,,,,,,,,,,,,,,,,,,,,,,,,,,,,,,,,,,,,,,,,,,,,,,,,,,,,,,,,,,
,,,,,,615df4022ce7fddd8e00e31d,62bbf95fd535a3dab3668cf8,2022-06-29_09h08.26.570,Colour_Asymmetry_Pilot,2022.1.3,Win32,60.09615385,62bbe60bf3d75ef465d3e404,0,134,134,60,1,threeone,,,,,,,,,,,,,,,,,,,,,,,,,,,,,,,,,,,,,,,,,,,,,,,,,,,,,,,,,,,,,,,,,,,,,,,,,,,,,,,,,,,,,,,,,,,,,,,,,,,,,,,,,,,,,,,,,,,,,,,,,,,,,,,,,,,,,,,,,,,,,,,,,,,,,,,,
,,,,,,615df4022ce7fddd8e00e31d,62bbf95fd535a3dab3668cf8,2022-06-29_09h08.26.570,Colour_Asymmetry_Pilot,2022.1.3,Win32,60.09615385,62bbe60bf3d75ef465d3e404,0,135,135,108,1,threeone,,,,,,,,,,,,,,,,,,,,,,,,,,,,,,,,,,,,,,,,,,,,,,,,,,,,,,,,,,,,,,,,,,,,,,,,,,,,,,,,,,,,,,,,,,,,,,,,,,,,,,,,,,,,,,,,,,,,,,,,,,,,,,,,,,,,,,,,,,,,,,,,,,,,,,,,
,,,,,,615df4022ce7fddd8e00e31d,62bbf95fd535a3dab3668cf8,2022-06-29_09h08.26.570,Colour_Asymmetry_Pilot,2022.1.3,Win32,60.09615385,62bbe60bf3d75ef465d3e404,0,136,136,160,1,onetwo,,,,,,,,,,,,,,,,,,,,,,,,,,,,,,,,,,,,,,,,,,,,,,,,,,,,,,,,,,,,,,,,,,,,,,,,,,,,,,,,,,,,,,,,,,,,,,,,,,,,,,,,,,,,,,,,,,,,,,,,,,,,,,,,,,,,,,,,,,,,,,,,,,,,,,,,
,,,,,,615df4022ce7fddd8e00e31d,62bbf95fd535a3dab3668cf8,2022-06-29_09h08.26.570,Colour_Asymmetry_Pilot,2022.1.3,Win32,60.09615385,62bbe60bf3d75ef465d3e404,0,137,137,7,1,fourthree,,,,,,,,,,,,,,,,,,,,,,,,,,,,,,,,,,,,,,,,,,,,,,,,,,,,,,,,,,,,,,,,,,,,,,,,,,,,,,,,,,,,,,,,,,,,,,,,,,,,,,,,,,,,,,,,,,,,,,,,,,,,,,,,,,,,,,,,,,,,,,,,,,,,,,,,
,,,,,,615df4022ce7fddd8e00e31d,62bbf95fd535a3dab3668cf8,2022-06-29_09h08.26.570,Colour_Asymmetry_Pilot,2022.1.3,Win32,60.09615385,62bbe60bf3d75ef465d3e404,0,138,138,6,1,fourtwo,,,,,,,,,,,,,,,,,,,,,,,,,,,,,,,,,,,,,,,,,,,,,,,,,,,,,,,,,,,,,,,,,,,,,,,,,,,,,,,,,,,,,,,,,,,,,,,,,,,,,,,,,,,,,,,,,,,,,,,,,,,,,,,,,,,,,,,,,,,,,,,,,,,,,,,,
,,,,,,615df4022ce7fddd8e00e31d,62bbf95fd535a3dab3668cf8,2022-06-29_09h08.26.570,Colour_Asymmetry_Pilot,2022.1.3,Win32,60.09615385,62bbe60bf3d75ef465d3e404,0,139,139,76,1,threeone,,,,,,,,,,,,,,,,,,,,,,,,,,,,,,,,,,,,,,,,,,,,,,,,,,,,,,,,,,,,,,,,,,,,,,,,,,,,,,,,,,,,,,,,,,,,,,,,,,,,,,,,,,,,,,,,,,,,,,,,,,,,,,,,,,,,,,,,,,,,,,,,,,,,,,,,
,,,,,,615df4022ce7fddd8e00e31d,62bbf95fd535a3dab3668cf8,2022-06-29_09h08.26.570,Colour_Asymmetry_Pilot,2022.1.3,Win32,60.09615385,62bbe60bf3d75ef465d3e404,0,140,140,129,1,onethree,,,,,,,,,,,,,,,,,,,,,,,,,,,,,,,,,,,,,,,,,,,,,,,,,,,,,,,,,,,,,,,,,,,,,,,,,,,,,,,,,,,,,,,,,,,,,,,,,,,,,,,,,,,,,,,,,,,,,,,,,,,,,,,,,,,,,,,,,,,,,,,,,,,,,,,,
,,,,,,615df4022ce7fddd8e00e31d,62bbf95fd535a3dab3668cf8,2022-06-29_09h08.26.570,Colour_Asymmetry_Pilot,2022.1.3,Win32,60.09615385,62bbe60bf3d75ef465d3e404,0,141,141,65,1,onethree,,,,,,,,,,,,,,,,,,,,,,,,,,,,,,,,,,,,,,,,,,,,,,,,,,,,,,,,,,,,,,,,,,,,,,,,,,,,,,,,,,,,,,,,,,,,,,,,,,,,,,,,,,,,,,,,,,,,,,,,,,,,,,,,,,,,,,,,,,,,,,,,,,,,,,,,
,,,,,,615df4022ce7fddd8e00e31d,62bbf95fd535a3dab3668cf8,2022-06-29_09h08.26.570,Colour_Asymmetry_Pilot,2022.1.3,Win32,60.09615385,62bbe60bf3d75ef465d3e404,0,142,142,119,1,fourthree,,,,,,,,,,,,,,,,,,,,,,,,,,,,,,,,,,,,,,,,,,,,,,,,,,,,,,,,,,,,,,,,,,,,,,,,,,,,,,,,,,,,,,,,,,,,,,,,,,,,,,,,,,,,,,,,,,,,,,,,,,,,,,,,,,,,,,,,,,,,,,,,,,,,,,,,
,,,,,,615df4022ce7fddd8e00e31d,62bbf95fd535a3dab3668cf8,2022-06-29_09h08.26.570,Colour_Asymmetry_Pilot,2022.1.3,Win32,60.09615385,62bbe60bf3d75ef465d3e404,0,143,143,72,1,onetwo,,,,,,,,,,,,,,,,,,,,,,,,,,,,,,,,,,,,,,,,,,,,,,,,,,,,,,,,,,,,,,,,,,,,,,,,,,,,,,,,,,,,,,,,,,,,,,,,,,,,,,,,,,,,,,,,,,,,,,,,,,,,,,,,,,,,,,,,,,,,,,,,,,,,,,,,
,,,,,,615df4022ce7fddd8e00e31d,62bbf95fd535a3dab3668cf8,2022-06-29_09h08.26.570,Colour_Asymmetry_Pilot,2022.1.3,Win32,60.09615385,62bbe60bf3d75ef465d3e404,0,144,144,5,1,threefour,,,,,,,,,,,,,,,,,,,,,,,,,,,,,,,,,,,,,,,,,,,,,,,,,,,,,,,,,,,,,,,,,,,,,,,,,,,,,,,,,,,,,,,,,,,,,,,,,,,,,,,,,,,,,,,,,,,,,,,,,,,,,,,,,,,,,,,,,,,,,,,,,,,,,,,,
,,,,,,615df4022ce7fddd8e00e31d,62bbf95fd535a3dab3668cf8,2022-06-29_09h08.26.570,Colour_Asymmetry_Pilot,2022.1.3,Win32,60.09615385,62bbe60bf3d75ef465d3e404,0,145,145,145,1,onethree,,,,,,,,,,,,,,,,,,,,,,,,,,,,,,,,,,,,,,,,,,,,,,,,,,,,,,,,,,,,,,,,,,,,,,,,,,,,,,,,,,,,,,,,,,,,,,,,,,,,,,,,,,,,,,,,,,,,,,,,,,,,,,,,,,,,,,,,,,,,,,,,,,,,,,,,
,,,,,,615df4022ce7fddd8e00e31d,62bbf95fd535a3dab3668cf8,2022-06-29_09h08.26.570,Colour_Asymmetry_Pilot,2022.1.3,Win32,60.09615385,62bbe60bf3d75ef465d3e404,0,146,146,46,1,fourtwo,,,,,,,,,,,,,,,,,,,,,,,,,,,,,,,,,,,,,,,,,,,,,,,,,,,,,,,,,,,,,,,,,,,,,,,,,,,,,,,,,,,,,,,,,,,,,,,,,,,,,,,,,,,,,,,,,,,,,,,,,,,,,,,,,,,,,,,,,,,,,,,,,,,,,,,,
,,,,,,615df4022ce7fddd8e00e31d,62bbf95fd535a3dab3668cf8,2022-06-29_09h08.26.570,Colour_Asymmetry_Pilot,2022.1.3,Win32,60.09615385,62bbe60bf3d75ef465d3e404,0,147,147,152,1,onetwo,,,,,,,,,,,,,,,,,,,,,,,,,,,,,,,,,,,,,,,,,,,,,,,,,,,,,,,,,,,,,,,,,,,,,,,,,,,,,,,,,,,,,,,,,,,,,,,,,,,,,,,,,,,,,,,,,,,,,,,,,,,,,,,,,,,,,,,,,,,,,,,,,,,,,,,,
,,,,,,615df4022ce7fddd8e00e31d,62bbf95fd535a3dab3668cf8,2022-06-29_09h08.26.570,Colour_Asymmetry_Pilot,2022.1.3,Win32,60.09615385,62bbe60bf3d75ef465d3e404,0,148,148,131,1,twofour,,,,,,,,,,,,,,,,,,,,,,,,,,,,,,,,,,,,,,,,,,,,,,,,,,,,,,,,,,,,,,,,,,,,,,,,,,,,,,,,,,,,,,,,,,,,,,,,,,,,,,,,,,,,,,,,,,,,,,,,,,,,,,,,,,,,,,,,,,,,,,,,,,,,,,,,
,,,,,,615df4022ce7fddd8e00e31d,62bbf95fd535a3dab3668cf8,2022-06-29_09h08.26.570,Colour_Asymmetry_Pilot,2022.1.3,Win32,60.09615385,62bbe60bf3d75ef465d3e404,0,149,149,111,1,fourthree,,,,,,,,,,,,,,,,,,,,,,,,,,,,,,,,,,,,,,,,,,,,,,,,,,,,,,,,,,,,,,,,,,,,,,,,,,,,,,,,,,,,,,,,,,,,,,,,,,,,,,,,,,,,,,,,,,,,,,,,,,,,,,,,,,,,,,,,,,,,,,,,,,,,,,,,
,,,,,,615df4022ce7fddd8e00e31d,62bbf95fd535a3dab3668cf8,2022-06-29_09h08.26.570,Colour_Asymmetry_Pilot,2022.1.3,Win32,60.09615385,62bbe60bf3d75ef465d3e404,0,150,150,13,1,threefour,,,,,,,,,,,,,,,,,,,,,,,,,,,,,,,,,,,,,,,,,,,,,,,,,,,,,,,,,,,,,,,,,,,,,,,,,,,,,,,,,,,,,,,,,,,,,,,,,,,,,,,,,,,,,,,,,,,,,,,,,,,,,,,,,,,,,,,,,,,,,,,,,,,,,,,,
,,,,,,615df4022ce7fddd8e00e31d,62bbf95fd535a3dab3668cf8,2022-06-29_09h08.26.570,Colour_Asymmetry_Pilot,2022.1.3,Win32,60.09615385,62bbe60bf3d75ef465d3e404,0,151,151,125,1,threefour,,,,,,,,,,,,,,,,,,,,,,,,,,,,,,,,,,,,,,,,,,,,,,,,,,,,,,,,,,,,,,,,,,,,,,,,,,,,,,,,,,,,,,,,,,,,,,,,,,,,,,,,,,,,,,,,,,,,,,,,,,,,,,,,,,,,,,,,,,,,,,,,,,,,,,,,
,,,,,,615df4022ce7fddd8e00e31d,62bbf95fd535a3dab3668cf8,2022-06-29_09h08.26.570,Colour_Asymmetry_Pilot,2022.1.3,Win32,60.09615385,62bbe60bf3d75ef465d3e404,0,152,152,101,1,threefour,,,,,,,,,,,,,,,,,,,,,,,,,,,,,,,,,,,,,,,,,,,,,,,,,,,,,,,,,,,,,,,,,,,,,,,,,,,,,,,,,,,,,,,,,,,,,,,,,,,,,,,,,,,,,,,,,,,,,,,,,,,,,,,,,,,,,,,,,,,,,,,,,,,,,,,,
,,,,,,615df4022ce7fddd8e00e31d,62bbf95fd535a3dab3668cf8,2022-06-29_09h08.26.570,Colour_Asymmetry_Pilot,2022.1.3,Win32,60.09615385,62bbe60bf3d75ef465d3e404,0,153,153,161,1,onethree,,,,,,,,,,,,,,,,,,,,,,,,,,,,,,,,,,,,,,,,,,,,,,,,,,,,,,,,,,,,,,,,,,,,,,,,,,,,,,,,,,,,,,,,,,,,,,,,,,,,,,,,,,,,,,,,,,,,,,,,,,,,,,,,,,,,,,,,,,,,,,,,,,,,,,,,
,,,,,,615df4022ce7fddd8e00e31d,62bbf95fd535a3dab3668cf8,2022-06-29_09h08.26.570,Colour_Asymmetry_Pilot,2022.1.3,Win32,60.09615385,62bbe60bf3d75ef465d3e404,0,154,154,99,1,twofour,,,,,,,,,,,,,,,,,,,,,,,,,,,,,,,,,,,,,,,,,,,,,,,,,,,,,,,,,,,,,,,,,,,,,,,,,,,,,,,,,,,,,,,,,,,,,,,,,,,,,,,,,,,,,,,,,,,,,,,,,,,,,,,,,,,,,,,,,,,,,,,,,,,,,,,,
,,,,,,615df4022ce7fddd8e00e31d,62bbf95fd535a3dab3668cf8,2022-06-29_09h08.26.570,Colour_Asymmetry_Pilot,2022.1.3,Win32,60.09615385,62bbe60bf3d75ef465d3e404,0,155,155,70,1,fourtwo,,,,,,,,,,,,,,,,,,,,,,,,,,,,,,,,,,,,,,,,,,,,,,,,,,,,,,,,,,,,,,,,,,,,,,,,,,,,,,,,,,,,,,,,,,,,,,,,,,,,,,,,,,,,,,,,,,,,,,,,,,,,,,,,,,,,,,,,,,,,,,,,,,,,,,,,
,,,,,,615df4022ce7fddd8e00e31d,62bbf95fd535a3dab3668cf8,2022-06-29_09h08.26.570,Colour_Asymmetry_Pilot,2022.1.3,Win32,60.09615385,62bbe60bf3d75ef465d3e404,0,156,156,40,1,onetwo,,,,,,,,,,,,,,,,,,,,,,,,,,,,,,,,,,,,,,,,,,,,,,,,,,,,,,,,,,,,,,,,,,,,,,,,,,,,,,,,,,,,,,,,,,,,,,,,,,,,,,,,,,,,,,,,,,,,,,,,,,,,,,,,,,,,,,,,,,,,,,,,,,,,,,,,
,,,,,,615df4022ce7fddd8e00e31d,62bbf95fd535a3dab3668cf8,2022-06-29_09h08.26.570,Colour_Asymmetry_Pilot,2022.1.3,Win32,60.09615385,62bbe60bf3d75ef465d3e404,0,157,157,23,1,fourthree,,,,,,,,,,,,,,,,,,,,,,,,,,,,,,,,,,,,,,,,,,,,,,,,,,,,,,,,,,,,,,,,,,,,,,,,,,,,,,,,,,,,,,,,,,,,,,,,,,,,,,,,,,,,,,,,,,,,,,,,,,,,,,,,,,,,,,,,,,,,,,,,,,,,,,,,
,,,,,,615df4022ce7fddd8e00e31d,62bbf95fd535a3dab3668cf8,2022-06-29_09h08.26.570,Colour_Asymmetry_Pilot,2022.1.3,Win32,60.09615385,62bbe60bf3d75ef465d3e404,0,158,158,156,1,threeone,,,,,,,,,,,,,,,,,,,,,,,,,,,,,,,,,,,,,,,,,,,,,,,,,,,,,,,,,,,,,,,,,,,,,,,,,,,,,,,,,,,,,,,,,,,,,,,,,,,,,,,,,,,,,,,,,,,,,,,,,,,,,,,,,,,,,,,,,,,,,,,,,,,,,,,,
,,,,,,615df4022ce7fddd8e00e31d,62bbf95fd535a3dab3668cf8,2022-06-29_09h08.26.570,Colour_Asymmetry_Pilot,2022.1.3,Win32,60.09615385,62bbe60bf3d75ef465d3e404,0,159,159,73,1,onethree,,,,,,,,,,,,,,,,,,,,,,,,,,,,,,,,,,,,,,,,,,,,,,,,,,,,,,,,,,,,,,,,,,,,,,,,,,,,,,,,,,,,,,,,,,,,,,,,,,,,,,,,,,,,,,,,,,,,,,,,,,,,,,,,,,,,,,,,,,,,,,,,,,,,,,,,
,,,,,,615df4022ce7fddd8e00e31d,62bbf95fd535a3dab3668cf8,2022-06-29_09h08.26.570,Colour_Asymmetry_Pilot,2022.1.3,Win32,60.09615385,62bbe60bf3d75ef465d3e404,0,160,160,47,1,fourthree,,,,,,,,,,,,,,,,,,,,,,,,,,,,,,,,,,,,,,,,,,,,,,,,,,,,,,,,,,,,,,,,,,,,,,,,,,,,,,,,,,,,,,,,,,,,,,,,,,,,,,,,,,,,,,,,,,,,,,,,,,,,,,,,,,,,,,,,,,,,,,,,,,,,,,,,
,,,,,,615df4022ce7fddd8e00e31d,62bbf95fd535a3dab3668cf8,2022-06-29_09h08.26.570,Colour_Asymmetry_Pilot,2022.1.3,Win32,60.09615385,62bbe60bf3d75ef465d3e404,0,161,161,135,1,fourthree,,,,,,,,,,,,,,,,,,,,,,,,,,,,,,,,,,,,,,,,,,,,,,,,,,,,,,,,,,,,,,,,,,,,,,,,,,,,,,,,,,,,,,,,,,,,,,,,,,,,,,,,,,,,,,,,,,,,,,,,,,,,,,,,,,,,,,,,,,,,,,,,,,,,,,,,
,,,,,,615df4022ce7fddd8e00e31d,62bbf95fd535a3dab3668cf8,2022-06-29_09h08.26.570,Colour_Asymmetry_Pilot,2022.1.3,Win32,60.09615385,62bbe60bf3d75ef465d3e404,,,,,,,space,1.5848,space,28.4718,space,47.8813,space,19.3423,space,12.0489,space,5.9792,"[-0.24719999999999998,-0.0354000000000001,0.3175999999999999]",fourthree,"[0.40379999999999994,0.09000000000000008,0.44300000000000006]",3,9.9033,84,39.33331299,1,0,0,response1disk_5,0.666687012,0.666656494,1,0,0,rectangle_8,70,98,1,0,0,response1disk_7,7,4,-6.666625977,-3.333343506,1,0,0,rectangle_4,0,0,0,0,1,,,,,,,,,,,,,,,,,,,,,,,,,,,,,,,,,,,,,,,,,,,,,,,,,,,,,,,,,,,,,,,,,,,,,,,,,,,,,,,,,,,,,,,,,,,,,,,,,,,,,,,,
,,,,,,615df4022ce7fddd8e00e31d,62bbf95fd535a3dab3668cf8,2022-06-29_09h08.26.570,Colour_Asymmetry_Pilot,2022.1.3,Win32,60.09615385,62bbe60bf3d75ef465d3e404,,,,,,,,,,,,,,,,,,,"[0.5449999999999999,-0.31000000000000005,-0.0354000000000001]",onetwo,"[-0.10599999999999998,-0.10599999999999998,0.5841999999999998]",-4,3.7151,-44.66662598,74,1,0,0,response7disk_5,0.666687012,2.666656494,1,0,0,rectangle_8,41.33337402,71.33331299,1,0,0,response1disk_7,7,4,-2,0,1,0,0,rectangle_4,1,0,1,0,1,,,,,,,,,,,,,,,,,,,,,,,,,,,,,,,,,,,,,,,,,,,,,,,,,,,,,,,,,,,,,,,,,,,,,,,,,,,,,,,,,,,,,,,,,,,,,,,,,,,,,,,,
,,,,,,615df4022ce7fddd8e00e31d,62bbf95fd535a3dab3668cf8,2022-06-29_09h08.26.570,Colour_Asymmetry_Pilot,2022.1.3,Win32,60.09615385,62bbe60bf3d75ef465d3e404,,,,,,,,,,,,,,,,,,,"[-0.26280000000000003,-0.4746,-0.2158]",fourtwo,"[-0.45899999999999996,-0.3256,-0.9374]",-4,2.6321,-32,80,1,0,0,response7disk_5,2,-6,1,0,0,rectangle_8,2,-6,1,0,0,,,4,2,-6,1,0,0,,2,0,2,0,1,,,,,,,,,,,,,,,,,,,,,,,,,,,,,,,,,,,,,,,,,,,,,,,,,,,,,,,,,,,,,,,,,,,,,,,,,,,,,,,,,,,,,,,,,,,,,,,,,,,,,,,,
,,,,,,615df4022ce7fddd8e00e31d,62bbf95fd535a3dab3668cf8,2022-06-29_09h08.26.570,Colour_Asymmetry_Pilot,2022.1.3,Win32,60.09615385,62bbe60bf3d75ef465d3e404,,,,,,,,,,,,,,,,,,,"[0.6625999999999999,0.4980000000000002,-0.357]",twoone,"[0.2784,-0.31000000000000005,-0.5452]",2,4.1816,80,-54,1,0,0,response3disk_5,-4.666625977,2.666656494,1,0,0,rectangle_8,-4.666625977,2.666656494,1,0,0,,,4,-4.666625977,2.666656494,1,0,0,,3,0,3,0,1,,,,,,,,,,,,,,,,,,,,,,,,,,,,,,,,,,,,,,,,,,,,,,,,,,,,,,,,,,,,,,,,,,,,,,,,,,,,,,,,,,,,,,,,,,,,,,,,,,,,,,,,
,,,,,,615df4022ce7fddd8e00e31d,62bbf95fd535a3dab3668cf8,2022-06-29_09h08.26.570,Colour_Asymmetry_Pilot,2022.1.3,Win32,60.09615385,62bbe60bf3d75ef465d3e404,,,,,,,,,,,,,,,,,,,"[0.30180000000000007,-0.7884,-0.9844]",twofour,"[0.9686000000000001,0.3802000000000001,0.19999999999999996]",-4,2.2487,-40,68.66665649,1,0,0,response7disk_5,-3.333312988,0.666656494,1,0,0,rectangle_8,-3.333312988,0.666656494,1,0,0,,,4,-3.333312988,0.666656494,1,0,0,,4,0,4,0,1,,,,,,,,,,,,,,,,,,,,,,,,,,,,,,,,,,,,,,,,,,,,,,,,,,,,,,,,,,,,,,,,,,,,,,,,,,,,,,,,,,,,,,,,,,,,,,,,,,,,,,,,
,,,,,,615df4022ce7fddd8e00e31d,62bbf95fd535a3dab3668cf8,2022-06-29_09h08.26.570,Colour_Asymmetry_Pilot,2022.1.3,Win32,60.09615385,62bbe60bf3d75ef465d3e404,,,,,,,,,,,,,,,,,,,"[0.30180000000000007,-0.7884,-0.9844]",twoone,"[-0.9844,-0.9688,-0.9922]",-4,1.5329,-34,53.33331299,1,0,0,response7disk_5,-13.33331299,-2.666687012,1,0,0,rectangle_8,-13.33331299,-2.666687012,1,0,0,,,4,-13.33331299,-2.666687012,1,0,0,,5,0,5,0,1,,,,,,,,,,,,,,,,,,,,,,,,,,,,,,,,,,,,,,,,,,,,,,,,,,,,,,,,,,,,,,,,,,,,,,,,,,,,,,,,,,,,,,,,,,,,,,,,,,,,,,,,
,,,,,,615df4022ce7fddd8e00e31d,62bbf95fd535a3dab3668cf8,2022-06-29_09h08.26.570,Colour_Asymmetry_Pilot,2022.1.3,Win32,60.09615385,62bbe60bf3d75ef465d3e404,,,,,,,,,,,,,,,,,,,"[0.37240000000000006,-0.050999999999999934,-0.5216]",onethree,"[-0.38039999999999996,-0.4276,-0.1452]",-4,2.1743,-36,61.33331299,1,0,0,response7disk_5,-2.666625977,2.666656494,1,0,0,rectangle_8,-2.666625977,2.666656494,1,0,0,,,4,-2.666625977,2.666656494,1,0,0,,6,0,6,0,1,,,,,,,,,,,,,,,,,,,,,,,,,,,,,,,,,,,,,,,,,,,,,,,,,,,,,,,,,,,,,,,,,,,,,,,,,,,,,,,,,,,,,,,,,,,,,,,,,,,,,,,,
,,,,,,615df4022ce7fddd8e00e31d,62bbf95fd535a3dab3668cf8,2022-06-29_09h08.26.570,Colour_Asymmetry_Pilot,2022.1.3,Win32,60.09615385,62bbe60bf3d75ef465d3e404,,,,,,,,,,,,,,,,,,,,threefour,,-4,1.2524,,,,,,,,,,,,,,,,,,,,,,,,,,,,,,,,space,3.2978,"[-0.9688,-0.4902000000000001,-0.12159999999999993]","[0.40379999999999994,0.09000000000000008,0.44300000000000006]",-41.33331299,74,1,0,0,response7disk,5.333374023,-0.666687012,1,0,0,rectangle,5.333374023,-0.666687012,1,0,0,,2,0.0043,0,5.333374023,-0.666687012,1,0,0,0,0,0,31,1,31,first,,,,,,,,,,,,,,,,,,,,,,,,,,,,,,,,,,,,,,,,,,,,,,,,,,,,,,,,,,,,,,,,,,,
,,,,,,615df4022ce7fddd8e00e31d,62bbf95fd535a3dab3668cf8,2022-06-29_09h08.26.570,Colour_Asymmetry_Pilot,2022.1.3,Win32,60.09615385,62bbe60bf3d75ef465d3e404,,,,,,,,,,,,,,,,,,,,onetwo,,-4,0.8509,,,,,,,,,,,,,,,,,,,,,,,,,,,,,,,,,,"[-0.6942,-0.7648,-0.12959999999999994]","[0.9213999999999998,0.6391999999999998,-0.9922]",-38.66662598,72,1,0,0,response7disk,2.666687012,-9.333343506,1,0,0,rectangle,2.666687012,-9.333343506,1,0,0,,2,0.0017,0,2.666687012,-9.333343506,1,0,0,0,1,1,110,1,29,second,,,,,,,,,,,,,,,,,,,,,,,,,,,,,,,,,,,,,,,,,,,,,,,,,,,,,,,,,,,,,,,,,,,
,,,,,,615df4022ce7fddd8e00e31d,62bbf95fd535a3dab3668cf8,2022-06-29_09h08.26.570,Colour_Asymmetry_Pilot,2022.1.3,Win32,60.09615385,62bbe60bf3d75ef465d3e404,,,,,,,,,,,,,,,,,,,,twoone,,-4,1.1173,,,,,,,,,,,,,,,,,,,,,,,,,,,,,,,,,,"[-0.8198,-0.5138,-0.7492000000000001]","[0.6547999999999998,-0.043199999999999905,-0.011800000000000033]",-49.33331299,92,1,0,0,response7disk,14.66668701,2,1,0,0,rectangle,14.66668701,2,1,0,0,,3,0.0029,0,14.66668701,2,1,0,0,0,2,2,39,1,39,first,,,,,,,,,,,,,,,,,,,,,,,,,,,,,,,,,,,,,,,,,,,,,,,,,,,,,,,,,,,,,,,,,,,
,,,,,,615df4022ce7fddd8e00e31d,62bbf95fd535a3dab3668cf8,2022-06-29_09h08.26.570,Colour_Asymmetry_Pilot,2022.1.3,Win32,60.09615385,62bbe60bf3d75ef465d3e404,,,,,,,,,,,,,,,,,,,,threeone,,-4,0.6679,,,,,,,,,,,,,,,,,,,,,,,,,,,,,,,,,,"[0.9763999999999999,-0.1137999999999999,-0.6314]","[-0.7412000000000001,-0.08239999999999992,-0.6864]",-40.66662598,85.33331299,1,0,0,response7disk,6.666687012,9.333312988,1,0,0,rectangle,6.666687012,9.333312988,1,0,0,,2,0.0034,0,6.666687012,9.333312988,1,0,0,0,3,3,20,1,20,first,,,,,,,,,,,,,,,,,,,,,,,,,,,,,,,,,,,,,,,,,,,,,,,,,,,,,,,,,,,,,,,,,,,
,,,,,,615df4022ce7fddd8e00e31d,62bbf95fd535a3dab3668cf8,2022-06-29_09h08.26.570,Colour_Asymmetry_Pilot,2022.1.3,Win32,60.09615385,62bbe60bf3d75ef465d3e404,,,,,,,,,,,,,,,,,,,,threefour,,4,0.9163,,,,,,,,,,,,,,,,,,,,,,,,,,,,,,,,,,"[-0.4746,-0.0354000000000001,0.5449999999999999]","[-0.4982,-0.2942,-0.0354000000000001]",43.33337402,80.66665649,1,0,0,response1disk,5.333374023,-5.333343506,1,0,0,rectangle,5.333374023,-5.333343506,1,0,0,,2,0.0008,0,5.333374023,-5.333343506,1,0,0,0,4,4,14,1,14,first,,,,,,,,,,,,,,,,,,,,,,,,,,,,,,,,,,,,,,,,,,,,,,,,,,,,,,,,,,,,,,,,,,,
,,,,,,615df4022ce7fddd8e00e31d,62bbf95fd535a3dab3668cf8,2022-06-29_09h08.26.570,Colour_Asymmetry_Pilot,2022.1.3,Win32,60.09615385,62bbe60bf3d75ef465d3e404,,,,,,,,,,,,,,,,,,,,fourtwo,,4,0.949,,,,,,,,,,,,,,,,,,,,,,,,,,,,,,,,,,"[-0.9688,-0.7412000000000001,-0.4902000000000001]","[-0.9216,-0.5529999999999999,-0.3962]",46,76.66665649,1,0,0,response1disk,2.666687012,-8,1,0,0,rectangle,2.666687012,-8,1,0,0,,1,0.003,0,2.666687012,-8,1,0,0,0,5,5,153,1,72,second,,,,,,,,,,,,,,,,,,,,,,,,,,,,,,,,,,,,,,,,,,,,,,,,,,,,,,,,,,,,,,,,,,,
,,,,,,615df4022ce7fddd8e00e31d,62bbf95fd535a3dab3668cf8,2022-06-29_09h08.26.570,Colour_Asymmetry_Pilot,2022.1.3,Win32,60.09615385,62bbe60bf3d75ef465d3e404,,,,,,,,,,,,,,,,,,,,onetwo,,-4,1.0429,,,,,,,,,,,,,,,,,,,,,,,,,,,,,,,,,,"[0.19199999999999995,0.18419999999999992,0.5136000000000001]","[-0.07459999999999989,0.12139999999999995,-0.9922]",-42,57.33331299,1,0,0,response7disk,0.666687012,-12.66668701,1,0,0,rectangle,0.666687012,-12.66668701,1,0,0,,1,0.001,0,0.666687012,-12.66668701,1,0,0,0,6,6,109,1,28,second,,,,,,,,,,,,,,,,,,,,,,,,,,,,,,,,,,,,,,,,,,,,,,,,,,,,,,,,,,,,,,,,,,,
,,,,,,615df4022ce7fddd8e00e31d,62bbf95fd535a3dab3668cf8,2022-06-29_09h08.26.570,Colour_Asymmetry_Pilot,2022.1.3,Win32,60.09615385,62bbe60bf3d75ef465d3e404,,,,,,,,,,,,,,,,,,,,threefour,,-4,1.6657,,,,,,,,,,,,,,,,,,,,,,,,,,,,,,,,,,"[0.6547999999999998,-0.043199999999999905,-0.011800000000000033]","[0.5449999999999999,-0.31000000000000005,-0.0354000000000001]",-39.33331299,74,1,0,0,response7disk,-0.666625977,0.666656494,1,0,0,rectangle,-0.666625977,0.666656494,1,0,0,,1,0.0013,0,-0.666625977,0.666656494,1,0,0,0,7,7,13,1,13,first,,,,,,,,,,,,,,,,,,,,,,,,,,,,,,,,,,,,,,,,,,,,,,,,,,,,,,,,,,,,,,,,,,,
,,,,,,615df4022ce7fddd8e00e31d,62bbf95fd535a3dab3668cf8,2022-06-29_09h08.26.570,Colour_Asymmetry_Pilot,2022.1.3,Win32,60.09615385,62bbe60bf3d75ef465d3e404,,,,,,,,,,,,,,,,,,,,onethree,,-4,2.4997,,,,,,,,,,,,,,,,,,,,,,,,,,,,,,,,,,"[0.09799999999999986,-0.24719999999999998,0.15280000000000005]","[0.5528,0.7409999999999999,-0.71]",-40,74.66665649,1,0,0,response7disk,6,2,1,0,0,rectangle,6,2,1,0,0,,2,0.0032,0,6,2,1,0,0,0,8,8,114,1,33,second,,,,,,,,,,,,,,,,,,,,,,,,,,,,,,,,,,,,,,,,,,,,,,,,,,,,,,,,,,,,,,,,,,,
,,,,,,615df4022ce7fddd8e00e31d,62bbf95fd535a3dab3668cf8,2022-06-29_09h08.26.570,Colour_Asymmetry_Pilot,2022.1.3,Win32,60.09615385,62bbe60bf3d75ef465d3e404,,,,,,,,,,,,,,,,,,,,fourthree,,-4,0.686,,,,,,,,,,,,,,,,,,,,,,,,,,,,,,,,,,"[0.34099999999999997,0.5841999999999998,-0.9844]","[0.23120000000000007,-0.7726,-0.34120000000000006]",-28.66662598,83.33331299,1,0,0,response7disk,0.666687012,-2.666687012,1,0,0,rectangle,0.666687012,-2.666687012,1,0,0,,2,0.0003,0,0.666687012,-2.666687012,1,0,0,0,9,9,154,1,73,second,,,,,,,,,,,,,,,,,,,,,,,,,,,,,,,,,,,,,,,,,,,,,,,,,,,,,,,,,,,,,,,,,,,
,,,,,,615df4022ce7fddd8e00e31d,62bbf95fd535a3dab3668cf8,2022-06-29_09h08.26.570,Colour_Asymmetry_Pilot,2022.1.3,Win32,60.09615385,62bbe60bf3d75ef465d3e404,,,,,,,,,,,,,,,,,,,,threeone,,-4,2.0521,,,,,,,,,,,,,,,,,,,,,,,,,,,,,,,,,,"[-0.10599999999999998,-0.10599999999999998,0.5841999999999998]","[0.23920000000000008,0.2704,0.16060000000000008]",-43.33331299,79.33331299,1,0,0,response7disk,-2,-12,1,0,0,rectangle,-2,-12,1,0,0,,2,0.0004,0,-2,-12,1,0,0,0,10,10,67,1,67,first,,,,,,,,,,,,,,,,,,,,,,,,,,,,,,,,,,,,,,,,,,,,,,,,,,,,,,,,,,,,,,,,,,,
,,,,,,615df4022ce7fddd8e00e31d,62bbf95fd535a3dab3668cf8,2022-06-29_09h08.26.570,Colour_Asymmetry_Pilot,2022.1.3,Win32,60.09615385,62bbe60bf3d75ef465d3e404,,,,,,,,,,,,,,,,,,,,twofour,,4,0.7338,,,,,,,,,,,,,,,,,,,,,,,,,,,,,,,,,,"[-0.2942,-0.7648,-0.7492000000000001]","[0.30180000000000007,-0.7884,-0.9844]",34.66668701,70.66665649,1,0,0,response1disk,6.666687012,2,1,0,0,rectangle,6.666687012,2,1,0,0,,3,0.0019,0,6.666687012,2,1,0,0,0,11,11,57,1,57,first,,,,,,,,,,,,,,,,,,,,,,,,,,,,,,,,,,,,,,,,,,,,,,,,,,,,,,,,,,,,,,,,,,,
,,,,,,615df4022ce7fddd8e00e31d,62bbf95fd535a3dab3668cf8,2022-06-29_09h08.26.570,Colour_Asymmetry_Pilot,2022.1.3,Win32,60.09615385,62bbe60bf3d75ef465d3e404,,,,,,,,,,,,,,,,,,,,fourtwo,,2,0.9997,,,,,,,,,,,,,,,,,,,,,,,,,,,,,,,,,,"[0.11359999999999992,0.6312,0.5213999999999999]","[-0.9688,-0.38039999999999996,-0.41979999999999995]",70.66668701,-41.33334351,1,0,0,response3disk,12,-4.666687012,1,0,0,rectangle,12,-4.666687012,1,0,0,,3,0.0007,0,12,-4.666687012,1,0,0,0,12,12,158,1,77,second,,,,,,,,,,,,,,,,,,,,,,,,,,,,,,,,,,,,,,,,,,,,,,,,,,,,,,,,,,,,,,,,,,,
,,,,,,615df4022ce7fddd8e00e31d,62bbf95fd535a3dab3668cf8,2022-06-29_09h08.26.570,Colour_Asymmetry_Pilot,2022.1.3,Win32,60.09615385,62bbe60bf3d75ef465d3e404,,,,,,,,,,,,,,,,,,,,threefour,,-4,0.7337,,,,,,,,,,,,,,,,,,,,,,,,,,,,,,,,,,"[-0.9296,-0.12959999999999994,-0.043199999999999905]","[0.9686000000000001,0.3802000000000001,0.19999999999999996]",-44.66662598,68.66665649,1,0,0,response7disk,0,6.666656494,1,0,0,rectangle,0,6.666656494,1,0,0,,1,0.0037,0,0,6.666656494,1,0,0,0,13,13,146,1,65,second,,,,,,,,,,,,,,,,,,,,,,,,,,,,,,,,,,,,,,,,,,,,,,,,,,,,,,,,,,,,,,,,,,,
,,,,,,615df4022ce7fddd8e00e31d,62bbf95fd535a3dab3668cf8,2022-06-29_09h08.26.570,Colour_Asymmetry_Pilot,2022.1.3,Win32,60.09615385,62bbe60bf3d75ef465d3e404,,,,,,,,,,,,,,,,,,,,fourthree,,3,1.632,,,,,,,,,,,,,,,,,,,,,,,,,,,,,,,,,,"[-0.9688,-0.38039999999999996,-0.41979999999999995]","[0.11359999999999992,0.6312,0.5213999999999999]",80,28.66665649,1,0,0,response1disk,-6,-0.666687012,1,0,0,rectangle,-6,-0.666687012,1,0,0,,3,0.0019,0,-6,-0.666687012,1,0,0,0,14,14,77,1,77,first,,,,,,,,,,,,,,,,,,,,,,,,,,,,,,,,,,,,,,,,,,,,,,,,,,,,,,,,,,,,,,,,,,,
,,,,,,615df4022ce7fddd8e00e31d,62bbf95fd535a3dab3668cf8,2022-06-29_09h08.26.570,Colour_Asymmetry_Pilot,2022.1.3,Win32,60.09615385,62bbe60bf3d75ef465d3e404,,,,,,,,,,,,,,,,,,,,onetwo,,-4,0.6589,,,,,,,,,,,,,,,,,,,,,,,,,,,,,,,,,,"[0.22340000000000004,-0.9296,-0.7884]","[0.11359999999999992,0.6312,0.5213999999999999]",-42.66662598,74,1,0,0,response7disk,-3.333312988,8.666656494,1,0,0,rectangle,-3.333312988,8.666656494,1,0,0,,1,0.0028,0,-3.333312988,8.666656494,1,0,0,0,15,15,18,1,18,first,,,,,,,,,,,,,,,,,,,,,,,,,,,,,,,,,,,,,,,,,,,,,,,,,,,,,,,,,,,,,,,,,,,
,,,,,,615df4022ce7fddd8e00e31d,62bbf95fd535a3dab3668cf8,2022-06-29_09h08.26.570,Colour_Asymmetry_Pilot,2022.1.3,Win32,60.09615385,62bbe60bf3d75ef465d3e404,,,,,,,,,,,,,,,,,,,,onethree,,4,0.7915,,,,,,,,,,,,,,,,,,,,,,,,,,,,,,,,,,"[-0.9216,-0.5529999999999999,-0.3962]","[-0.9688,-0.7412000000000001,-0.4902000000000001]",49.33337402,84.66665649,1,0,0,response1disk,6,2.666656494,1,0,0,rectangle,6,2.666656494,1,0,0,,1,0.0009,0,6,2.666656494,1,0,0,0,16,16,72,1,72,first,,,,,,,,,,,,,,,,,,,,,,,,,,,,,,,,,,,,,,,,,,,,,,,,,,,,,,,,,,,,,,,,,,,
,,,,,,615df4022ce7fddd8e00e31d,62bbf95fd535a3dab3668cf8,2022-06-29_09h08.26.570,Colour_Asymmetry_Pilot,2022.1.3,Win32,60.09615385,62bbe60bf3d75ef465d3e404,,,,,,,,,,,,,,,,,,,,fourtwo,,-4,0.7512,,,,,,,,,,,,,,,,,,,,,,,,,,,,,,,,,,"[0.9213999999999998,0.6391999999999998,-0.9922]","[-0.6942,-0.7648,-0.12959999999999994]",-26.66662598,51.33331299,1,0,0,response7disk,1.333374023,-8.666687012,1,0,0,rectangle,1.333374023,-8.666687012,1,0,0,,2,0.002,0,1.333374023,-8.666687012,1,0,0,0,17,17,29,1,29,first,,,,,,,,,,,,,,,,,,,,,,,,,,,,,,,,,,,,,,,,,,,,,,,,,,,,,,,,,,,,,,,,,,,
