trials.thisRepN,trials.thisTrialN,trials.thisN,trials.thisIndex,trials.ran,Colourcodes,participant,session,date,expName,psychopyVersion,OS,frameRate,study_id,trials_4.thisRepN,trials_4.thisTrialN,trials_4.thisN,trials_4.thisIndex,trials_4.ran,StimulusPos,key_resp.keys,key_resp.rt,key_resp_2.keys,key_resp_2.rt,key_resp_15.keys,key_resp_15.rt,key_resp_17.keys,key_resp_17.rt,key_resp_9.keys,key_resp_9.rt,key_resp_10.keys,key_resp_10.rt,Circle1_col,Ecc,Circle2_col,similarity,response_time,mouse_5.x,mouse_5.y,mouse_5.leftButton,mouse_5.midButton,mouse_5.rightButton,mouse_5.clicked_name,mouse_10.x,mouse_10.y,mouse_10.leftButton,mouse_10.midButton,mouse_10.rightButton,mouse_10.clicked_name,mouse_7.x,mouse_7.y,mouse_7.leftButton,mouse_7.midButton,mouse_7.rightButton,catchnumberprac,mouse_6.x,mouse_6.y,mouse_6.leftButton,mouse_6.midButton,mouse_6.rightButton,duringprac.thisRepN,duringprac.thisTrialN,duringprac.thisN,duringprac.thisIndex,duringprac.ran,mouse_7.clicked_name,catchprac,mouse_6.clicked_name,key_resp_22.keys,key_resp_22.rt,Circle1_colour,Circle2_colour,mouse.x,mouse.y,mouse.leftButton,mouse.midButton,mouse.rightButton,mouse.clicked_name,mouse_2.x,mouse_2.y,mouse_2.leftButton,mouse_2.midButton,mouse_2.rightButton,mouse_2.clicked_name,mouse_3.x,mouse_3.y,mouse_3.leftButton,mouse_3.midButton,mouse_3.rightButton,catchresponse,catchnumber,response_time_catch,Catch,mouse_11.x,mouse_11.y,mouse_11.leftButton,mouse_11.midButton,mouse_11.rightButton,trials_2.thisRepN,trials_2.thisTrialN,trials_2.thisN,trials_2.thisIndex,trials_2.ran,Colourpair,Temporder,mouse_3.clicked_name,mouse_11.clicked_name,trials_3.thisRepN,trials_3.thisTrialN,trials_3.thisN,trials_3.thisIndex,trials_3.ran,key_resp_instr_Ishi.keys,key_resp_instr_Ishi.rt,Ishi_trial_keyresp.keys,Ishi_trial_keyresp.rt,Ishi_textbox.text,Ishi_loop.thisRepN,Ishi_loop.thisTrialN,Ishi_loop.thisN,Ishi_loop.thisIndex,Ishi_loop.ran,imageaddress,textbox.text,mouse_4.x,mouse_4.y,mouse_4.leftButton,mouse_4.midButton,mouse_4.rightButton,mouse_4.clicked_name,textbox_2.text,mouse_8.x,mouse_8.y,mouse_8.leftButton,mouse_8.midButton,mouse_8.rightButton,mouse_8.clicked_name,textbox_3.text,mouse_9.x,mouse_9.y,mouse_9.leftButton,mouse_9.midButton,mouse_9.rightButton,mouse_9.clicked_name,textbox_4.text,mouse_12.x,mouse_12.y,mouse_12.leftButton,mouse_12.midButton,mouse_12.rightButton,mouse_12.clicked_name,textbox_5.text,mouse_13.x,mouse_13.y,mouse_13.leftButton,mouse_13.midButton,mouse_13.rightButton,mouse_13.clicked_name,textbox_6.text,mouse_14.x,mouse_14.y,mouse_14.leftButton,mouse_14.midButton,mouse_14.rightButton,mouse_14.clicked_name,textbox_7.text,mouse_15.x,mouse_15.y,mouse_15.leftButton,mouse_15.midButton,mouse_15.rightButton,mouse_15.clicked_name
0,0,0,59,1,,5e722b4bcf526a0119aee64f,62bbf9ddfbfe27eb2ca148b2,2022-06-29_09h06.43.239,Colour_Asymmetry_Pilot,2022.1.3,Win32,60.0060006,62bbe60bf3d75ef465d3e404,,,,,,,,,,,,,,,,,,,,,,,,,,,,,,,,,,,,,,,,,,,,,,,,,,,,,,,,,,,,,,,,,,,,,,,,,,,,,,,,,,,,,,,,,,,,,,,,,,,,,,,,,,,,,,,,,,,,,,,,,,,,,,,,,,,,,,,,,,,,,,,,,,,,,,,,,,,,,,
0,1,1,42,1,,5e722b4bcf526a0119aee64f,62bbf9ddfbfe27eb2ca148b2,2022-06-29_09h06.43.239,Colour_Asymmetry_Pilot,2022.1.3,Win32,60.0060006,62bbe60bf3d75ef465d3e404,,,,,,,,,,,,,,,,,,,,,,,,,,,,,,,,,,,,,,,,,,,,,,,,,,,,,,,,,,,,,,,,,,,,,,,,,,,,,,,,,,,,,,,,,,,,,,,,,,,,,,,,,,,,,,,,,,,,,,,,,,,,,,,,,,,,,,,,,,,,,,,,,,,,,,,,,,,,,,
0,2,2,20,1,,5e722b4bcf526a0119aee64f,62bbf9ddfbfe27eb2ca148b2,2022-06-29_09h06.43.239,Colour_Asymmetry_Pilot,2022.1.3,Win32,60.0060006,62bbe60bf3d75ef465d3e404,,,,,,,,,,,,,,,,,,,,,,,,,,,,,,,,,,,,,,,,,,,,,,,,,,,,,,,,,,,,,,,,,,,,,,,,,,,,,,,,,,,,,,,,,,,,,,,,,,,,,,,,,,,,,,,,,,,,,,,,,,,,,,,,,,,,,,,,,,,,,,,,,,,,,,,,,,,,,,
0,3,3,39,1,,5e722b4bcf526a0119aee64f,62bbf9ddfbfe27eb2ca148b2,2022-06-29_09h06.43.239,Colour_Asymmetry_Pilot,2022.1.3,Win32,60.0060006,62bbe60bf3d75ef465d3e404,,,,,,,,,,,,,,,,,,,,,,,,,,,,,,,,,,,,,,,,,,,,,,,,,,,,,,,,,,,,,,,,,,,,,,,,,,,,,,,,,,,,,,,,,,,,,,,,,,,,,,,,,,,,,,,,,,,,,,,,,,,,,,,,,,,,,,,,,,,,,,,,,,,,,,,,,,,,,,
0,4,4,48,1,,5e722b4bcf526a0119aee64f,62bbf9ddfbfe27eb2ca148b2,2022-06-29_09h06.43.239,Colour_Asymmetry_Pilot,2022.1.3,Win32,60.0060006,62bbe60bf3d75ef465d3e404,,,,,,,,,,,,,,,,,,,,,,,,,,,,,,,,,,,,,,,,,,,,,,,,,,,,,,,,,,,,,,,,,,,,,,,,,,,,,,,,,,,,,,,,,,,,,,,,,,,,,,,,,,,,,,,,,,,,,,,,,,,,,,,,,,,,,,,,,,,,,,,,,,,,,,,,,,,,,,
0,5,5,55,1,,5e722b4bcf526a0119aee64f,62bbf9ddfbfe27eb2ca148b2,2022-06-29_09h06.43.239,Colour_Asymmetry_Pilot,2022.1.3,Win32,60.0060006,62bbe60bf3d75ef465d3e404,,,,,,,,,,,,,,,,,,,,,,,,,,,,,,,,,,,,,,,,,,,,,,,,,,,,,,,,,,,,,,,,,,,,,,,,,,,,,,,,,,,,,,,,,,,,,,,,,,,,,,,,,,,,,,,,,,,,,,,,,,,,,,,,,,,,,,,,,,,,,,,,,,,,,,,,,,,,,,
0,6,6,35,1,,5e722b4bcf526a0119aee64f,62bbf9ddfbfe27eb2ca148b2,2022-06-29_09h06.43.239,Colour_Asymmetry_Pilot,2022.1.3,Win32,60.0060006,62bbe60bf3d75ef465d3e404,,,,,,,,,,,,,,,,,,,,,,,,,,,,,,,,,,,,,,,,,,,,,,,,,,,,,,,,,,,,,,,,,,,,,,,,,,,,,,,,,,,,,,,,,,,,,,,,,,,,,,,,,,,,,,,,,,,,,,,,,,,,,,,,,,,,,,,,,,,,,,,,,,,,,,,,,,,,,,
0,7,7,89,1,,5e722b4bcf526a0119aee64f,62bbf9ddfbfe27eb2ca148b2,2022-06-29_09h06.43.239,Colour_Asymmetry_Pilot,2022.1.3,Win32,60.0060006,62bbe60bf3d75ef465d3e404,,,,,,,,,,,,,,,,,,,,,,,,,,,,,,,,,,,,,,,,,,,,,,,,,,,,,,,,,,,,,,,,,,,,,,,,,,,,,,,,,,,,,,,,,,,,,,,,,,,,,,,,,,,,,,,,,,,,,,,,,,,,,,,,,,,,,,,,,,,,,,,,,,,,,,,,,,,,,,
0,8,8,50,1,,5e722b4bcf526a0119aee64f,62bbf9ddfbfe27eb2ca148b2,2022-06-29_09h06.43.239,Colour_Asymmetry_Pilot,2022.1.3,Win32,60.0060006,62bbe60bf3d75ef465d3e404,,,,,,,,,,,,,,,,,,,,,,,,,,,,,,,,,,,,,,,,,,,,,,,,,,,,,,,,,,,,,,,,,,,,,,,,,,,,,,,,,,,,,,,,,,,,,,,,,,,,,,,,,,,,,,,,,,,,,,,,,,,,,,,,,,,,,,,,,,,,,,,,,,,,,,,,,,,,,,
0,9,9,12,1,,5e722b4bcf526a0119aee64f,62bbf9ddfbfe27eb2ca148b2,2022-06-29_09h06.43.239,Colour_Asymmetry_Pilot,2022.1.3,Win32,60.0060006,62bbe60bf3d75ef465d3e404,,,,,,,,,,,,,,,,,,,,,,,,,,,,,,,,,,,,,,,,,,,,,,,,,,,,,,,,,,,,,,,,,,,,,,,,,,,,,,,,,,,,,,,,,,,,,,,,,,,,,,,,,,,,,,,,,,,,,,,,,,,,,,,,,,,,,,,,,,,,,,,,,,,,,,,,,,,,,,
0,10,10,52,1,,5e722b4bcf526a0119aee64f,62bbf9ddfbfe27eb2ca148b2,2022-06-29_09h06.43.239,Colour_Asymmetry_Pilot,2022.1.3,Win32,60.0060006,62bbe60bf3d75ef465d3e404,,,,,,,,,,,,,,,,,,,,,,,,,,,,,,,,,,,,,,,,,,,,,,,,,,,,,,,,,,,,,,,,,,,,,,,,,,,,,,,,,,,,,,,,,,,,,,,,,,,,,,,,,,,,,,,,,,,,,,,,,,,,,,,,,,,,,,,,,,,,,,,,,,,,,,,,,,,,,,
0,11,11,1,1,,5e722b4bcf526a0119aee64f,62bbf9ddfbfe27eb2ca148b2,2022-06-29_09h06.43.239,Colour_Asymmetry_Pilot,2022.1.3,Win32,60.0060006,62bbe60bf3d75ef465d3e404,,,,,,,,,,,,,,,,,,,,,,,,,,,,,,,,,,,,,,,,,,,,,,,,,,,,,,,,,,,,,,,,,,,,,,,,,,,,,,,,,,,,,,,,,,,,,,,,,,,,,,,,,,,,,,,,,,,,,,,,,,,,,,,,,,,,,,,,,,,,,,,,,,,,,,,,,,,,,,
0,12,12,69,1,,5e722b4bcf526a0119aee64f,62bbf9ddfbfe27eb2ca148b2,2022-06-29_09h06.43.239,Colour_Asymmetry_Pilot,2022.1.3,Win32,60.0060006,62bbe60bf3d75ef465d3e404,,,,,,,,,,,,,,,,,,,,,,,,,,,,,,,,,,,,,,,,,,,,,,,,,,,,,,,,,,,,,,,,,,,,,,,,,,,,,,,,,,,,,,,,,,,,,,,,,,,,,,,,,,,,,,,,,,,,,,,,,,,,,,,,,,,,,,,,,,,,,,,,,,,,,,,,,,,,,,
0,13,13,56,1,,5e722b4bcf526a0119aee64f,62bbf9ddfbfe27eb2ca148b2,2022-06-29_09h06.43.239,Colour_Asymmetry_Pilot,2022.1.3,Win32,60.0060006,62bbe60bf3d75ef465d3e404,,,,,,,,,,,,,,,,,,,,,,,,,,,,,,,,,,,,,,,,,,,,,,,,,,,,,,,,,,,,,,,,,,,,,,,,,,,,,,,,,,,,,,,,,,,,,,,,,,,,,,,,,,,,,,,,,,,,,,,,,,,,,,,,,,,,,,,,,,,,,,,,,,,,,,,,,,,,,,
0,14,14,73,1,,5e722b4bcf526a0119aee64f,62bbf9ddfbfe27eb2ca148b2,2022-06-29_09h06.43.239,Colour_Asymmetry_Pilot,2022.1.3,Win32,60.0060006,62bbe60bf3d75ef465d3e404,,,,,,,,,,,,,,,,,,,,,,,,,,,,,,,,,,,,,,,,,,,,,,,,,,,,,,,,,,,,,,,,,,,,,,,,,,,,,,,,,,,,,,,,,,,,,,,,,,,,,,,,,,,,,,,,,,,,,,,,,,,,,,,,,,,,,,,,,,,,,,,,,,,,,,,,,,,,,,
0,15,15,58,1,,5e722b4bcf526a0119aee64f,62bbf9ddfbfe27eb2ca148b2,2022-06-29_09h06.43.239,Colour_Asymmetry_Pilot,2022.1.3,Win32,60.0060006,62bbe60bf3d75ef465d3e404,,,,,,,,,,,,,,,,,,,,,,,,,,,,,,,,,,,,,,,,,,,,,,,,,,,,,,,,,,,,,,,,,,,,,,,,,,,,,,,,,,,,,,,,,,,,,,,,,,,,,,,,,,,,,,,,,,,,,,,,,,,,,,,,,,,,,,,,,,,,,,,,,,,,,,,,,,,,,,
0,16,16,67,1,,5e722b4bcf526a0119aee64f,62bbf9ddfbfe27eb2ca148b2,2022-06-29_09h06.43.239,Colour_Asymmetry_Pilot,2022.1.3,Win32,60.0060006,62bbe60bf3d75ef465d3e404,,,,,,,,,,,,,,,,,,,,,,,,,,,,,,,,,,,,,,,,,,,,,,,,,,,,,,,,,,,,,,,,,,,,,,,,,,,,,,,,,,,,,,,,,,,,,,,,,,,,,,,,,,,,,,,,,,,,,,,,,,,,,,,,,,,,,,,,,,,,,,,,,,,,,,,,,,,,,,
0,17,17,61,1,,5e722b4bcf526a0119aee64f,62bbf9ddfbfe27eb2ca148b2,2022-06-29_09h06.43.239,Colour_Asymmetry_Pilot,2022.1.3,Win32,60.0060006,62bbe60bf3d75ef465d3e404,,,,,,,,,,,,,,,,,,,,,,,,,,,,,,,,,,,,,,,,,,,,,,,,,,,,,,,,,,,,,,,,,,,,,,,,,,,,,,,,,,,,,,,,,,,,,,,,,,,,,,,,,,,,,,,,,,,,,,,,,,,,,,,,,,,,,,,,,,,,,,,,,,,,,,,,,,,,,,
0,18,18,65,1,,5e722b4bcf526a0119aee64f,62bbf9ddfbfe27eb2ca148b2,2022-06-29_09h06.43.239,Colour_Asymmetry_Pilot,2022.1.3,Win32,60.0060006,62bbe60bf3d75ef465d3e404,,,,,,,,,,,,,,,,,,,,,,,,,,,,,,,,,,,,,,,,,,,,,,,,,,,,,,,,,,,,,,,,,,,,,,,,,,,,,,,,,,,,,,,,,,,,,,,,,,,,,,,,,,,,,,,,,,,,,,,,,,,,,,,,,,,,,,,,,,,,,,,,,,,,,,,,,,,,,,
0,19,19,33,1,,5e722b4bcf526a0119aee64f,62bbf9ddfbfe27eb2ca148b2,2022-06-29_09h06.43.239,Colour_Asymmetry_Pilot,2022.1.3,Win32,60.0060006,62bbe60bf3d75ef465d3e404,,,,,,,,,,,,,,,,,,,,,,,,,,,,,,,,,,,,,,,,,,,,,,,,,,,,,,,,,,,,,,,,,,,,,,,,,,,,,,,,,,,,,,,,,,,,,,,,,,,,,,,,,,,,,,,,,,,,,,,,,,,,,,,,,,,,,,,,,,,,,,,,,,,,,,,,,,,,,,
0,20,20,32,1,,5e722b4bcf526a0119aee64f,62bbf9ddfbfe27eb2ca148b2,2022-06-29_09h06.43.239,Colour_Asymmetry_Pilot,2022.1.3,Win32,60.0060006,62bbe60bf3d75ef465d3e404,,,,,,,,,,,,,,,,,,,,,,,,,,,,,,,,,,,,,,,,,,,,,,,,,,,,,,,,,,,,,,,,,,,,,,,,,,,,,,,,,,,,,,,,,,,,,,,,,,,,,,,,,,,,,,,,,,,,,,,,,,,,,,,,,,,,,,,,,,,,,,,,,,,,,,,,,,,,,,
0,21,21,78,1,,5e722b4bcf526a0119aee64f,62bbf9ddfbfe27eb2ca148b2,2022-06-29_09h06.43.239,Colour_Asymmetry_Pilot,2022.1.3,Win32,60.0060006,62bbe60bf3d75ef465d3e404,,,,,,,,,,,,,,,,,,,,,,,,,,,,,,,,,,,,,,,,,,,,,,,,,,,,,,,,,,,,,,,,,,,,,,,,,,,,,,,,,,,,,,,,,,,,,,,,,,,,,,,,,,,,,,,,,,,,,,,,,,,,,,,,,,,,,,,,,,,,,,,,,,,,,,,,,,,,,,
0,22,22,83,1,,5e722b4bcf526a0119aee64f,62bbf9ddfbfe27eb2ca148b2,2022-06-29_09h06.43.239,Colour_Asymmetry_Pilot,2022.1.3,Win32,60.0060006,62bbe60bf3d75ef465d3e404,,,,,,,,,,,,,,,,,,,,,,,,,,,,,,,,,,,,,,,,,,,,,,,,,,,,,,,,,,,,,,,,,,,,,,,,,,,,,,,,,,,,,,,,,,,,,,,,,,,,,,,,,,,,,,,,,,,,,,,,,,,,,,,,,,,,,,,,,,,,,,,,,,,,,,,,,,,,,,
0,23,23,2,1,,5e722b4bcf526a0119aee64f,62bbf9ddfbfe27eb2ca148b2,2022-06-29_09h06.43.239,Colour_Asymmetry_Pilot,2022.1.3,Win32,60.0060006,62bbe60bf3d75ef465d3e404,,,,,,,,,,,,,,,,,,,,,,,,,,,,,,,,,,,,,,,,,,,,,,,,,,,,,,,,,,,,,,,,,,,,,,,,,,,,,,,,,,,,,,,,,,,,,,,,,,,,,,,,,,,,,,,,,,,,,,,,,,,,,,,,,,,,,,,,,,,,,,,,,,,,,,,,,,,,,,
0,24,24,47,1,,5e722b4bcf526a0119aee64f,62bbf9ddfbfe27eb2ca148b2,2022-06-29_09h06.43.239,Colour_Asymmetry_Pilot,2022.1.3,Win32,60.0060006,62bbe60bf3d75ef465d3e404,,,,,,,,,,,,,,,,,,,,,,,,,,,,,,,,,,,,,,,,,,,,,,,,,,,,,,,,,,,,,,,,,,,,,,,,,,,,,,,,,,,,,,,,,,,,,,,,,,,,,,,,,,,,,,,,,,,,,,,,,,,,,,,,,,,,,,,,,,,,,,,,,,,,,,,,,,,,,,
0,25,25,11,1,,5e722b4bcf526a0119aee64f,62bbf9ddfbfe27eb2ca148b2,2022-06-29_09h06.43.239,Colour_Asymmetry_Pilot,2022.1.3,Win32,60.0060006,62bbe60bf3d75ef465d3e404,,,,,,,,,,,,,,,,,,,,,,,,,,,,,,,,,,,,,,,,,,,,,,,,,,,,,,,,,,,,,,,,,,,,,,,,,,,,,,,,,,,,,,,,,,,,,,,,,,,,,,,,,,,,,,,,,,,,,,,,,,,,,,,,,,,,,,,,,,,,,,,,,,,,,,,,,,,,,,
0,26,26,22,1,,5e722b4bcf526a0119aee64f,62bbf9ddfbfe27eb2ca148b2,2022-06-29_09h06.43.239,Colour_Asymmetry_Pilot,2022.1.3,Win32,60.0060006,62bbe60bf3d75ef465d3e404,,,,,,,,,,,,,,,,,,,,,,,,,,,,,,,,,,,,,,,,,,,,,,,,,,,,,,,,,,,,,,,,,,,,,,,,,,,,,,,,,,,,,,,,,,,,,,,,,,,,,,,,,,,,,,,,,,,,,,,,,,,,,,,,,,,,,,,,,,,,,,,,,,,,,,,,,,,,,,
0,27,27,51,1,,5e722b4bcf526a0119aee64f,62bbf9ddfbfe27eb2ca148b2,2022-06-29_09h06.43.239,Colour_Asymmetry_Pilot,2022.1.3,Win32,60.0060006,62bbe60bf3d75ef465d3e404,,,,,,,,,,,,,,,,,,,,,,,,,,,,,,,,,,,,,,,,,,,,,,,,,,,,,,,,,,,,,,,,,,,,,,,,,,,,,,,,,,,,,,,,,,,,,,,,,,,,,,,,,,,,,,,,,,,,,,,,,,,,,,,,,,,,,,,,,,,,,,,,,,,,,,,,,,,,,,
0,28,28,15,1,,5e722b4bcf526a0119aee64f,62bbf9ddfbfe27eb2ca148b2,2022-06-29_09h06.43.239,Colour_Asymmetry_Pilot,2022.1.3,Win32,60.0060006,62bbe60bf3d75ef465d3e404,,,,,,,,,,,,,,,,,,,,,,,,,,,,,,,,,,,,,,,,,,,,,,,,,,,,,,,,,,,,,,,,,,,,,,,,,,,,,,,,,,,,,,,,,,,,,,,,,,,,,,,,,,,,,,,,,,,,,,,,,,,,,,,,,,,,,,,,,,,,,,,,,,,,,,,,,,,,,,
0,29,29,10,1,,5e722b4bcf526a0119aee64f,62bbf9ddfbfe27eb2ca148b2,2022-06-29_09h06.43.239,Colour_Asymmetry_Pilot,2022.1.3,Win32,60.0060006,62bbe60bf3d75ef465d3e404,,,,,,,,,,,,,,,,,,,,,,,,,,,,,,,,,,,,,,,,,,,,,,,,,,,,,,,,,,,,,,,,,,,,,,,,,,,,,,,,,,,,,,,,,,,,,,,,,,,,,,,,,,,,,,,,,,,,,,,,,,,,,,,,,,,,,,,,,,,,,,,,,,,,,,,,,,,,,,
0,30,30,0,1,,5e722b4bcf526a0119aee64f,62bbf9ddfbfe27eb2ca148b2,2022-06-29_09h06.43.239,Colour_Asymmetry_Pilot,2022.1.3,Win32,60.0060006,62bbe60bf3d75ef465d3e404,,,,,,,,,,,,,,,,,,,,,,,,,,,,,,,,,,,,,,,,,,,,,,,,,,,,,,,,,,,,,,,,,,,,,,,,,,,,,,,,,,,,,,,,,,,,,,,,,,,,,,,,,,,,,,,,,,,,,,,,,,,,,,,,,,,,,,,,,,,,,,,,,,,,,,,,,,,,,,
0,31,31,40,1,,5e722b4bcf526a0119aee64f,62bbf9ddfbfe27eb2ca148b2,2022-06-29_09h06.43.239,Colour_Asymmetry_Pilot,2022.1.3,Win32,60.0060006,62bbe60bf3d75ef465d3e404,,,,,,,,,,,,,,,,,,,,,,,,,,,,,,,,,,,,,,,,,,,,,,,,,,,,,,,,,,,,,,,,,,,,,,,,,,,,,,,,,,,,,,,,,,,,,,,,,,,,,,,,,,,,,,,,,,,,,,,,,,,,,,,,,,,,,,,,,,,,,,,,,,,,,,,,,,,,,,
0,32,32,21,1,,5e722b4bcf526a0119aee64f,62bbf9ddfbfe27eb2ca148b2,2022-06-29_09h06.43.239,Colour_Asymmetry_Pilot,2022.1.3,Win32,60.0060006,62bbe60bf3d75ef465d3e404,,,,,,,,,,,,,,,,,,,,,,,,,,,,,,,,,,,,,,,,,,,,,,,,,,,,,,,,,,,,,,,,,,,,,,,,,,,,,,,,,,,,,,,,,,,,,,,,,,,,,,,,,,,,,,,,,,,,,,,,,,,,,,,,,,,,,,,,,,,,,,,,,,,,,,,,,,,,,,
0,33,33,25,1,,5e722b4bcf526a0119aee64f,62bbf9ddfbfe27eb2ca148b2,2022-06-29_09h06.43.239,Colour_Asymmetry_Pilot,2022.1.3,Win32,60.0060006,62bbe60bf3d75ef465d3e404,,,,,,,,,,,,,,,,,,,,,,,,,,,,,,,,,,,,,,,,,,,,,,,,,,,,,,,,,,,,,,,,,,,,,,,,,,,,,,,,,,,,,,,,,,,,,,,,,,,,,,,,,,,,,,,,,,,,,,,,,,,,,,,,,,,,,,,,,,,,,,,,,,,,,,,,,,,,,,
0,34,34,34,1,,5e722b4bcf526a0119aee64f,62bbf9ddfbfe27eb2ca148b2,2022-06-29_09h06.43.239,Colour_Asymmetry_Pilot,2022.1.3,Win32,60.0060006,62bbe60bf3d75ef465d3e404,,,,,,,,,,,,,,,,,,,,,,,,,,,,,,,,,,,,,,,,,,,,,,,,,,,,,,,,,,,,,,,,,,,,,,,,,,,,,,,,,,,,,,,,,,,,,,,,,,,,,,,,,,,,,,,,,,,,,,,,,,,,,,,,,,,,,,,,,,,,,,,,,,,,,,,,,,,,,,
0,35,35,3,1,,5e722b4bcf526a0119aee64f,62bbf9ddfbfe27eb2ca148b2,2022-06-29_09h06.43.239,Colour_Asymmetry_Pilot,2022.1.3,Win32,60.0060006,62bbe60bf3d75ef465d3e404,,,,,,,,,,,,,,,,,,,,,,,,,,,,,,,,,,,,,,,,,,,,,,,,,,,,,,,,,,,,,,,,,,,,,,,,,,,,,,,,,,,,,,,,,,,,,,,,,,,,,,,,,,,,,,,,,,,,,,,,,,,,,,,,,,,,,,,,,,,,,,,,,,,,,,,,,,,,,,
0,36,36,91,1,,5e722b4bcf526a0119aee64f,62bbf9ddfbfe27eb2ca148b2,2022-06-29_09h06.43.239,Colour_Asymmetry_Pilot,2022.1.3,Win32,60.0060006,62bbe60bf3d75ef465d3e404,,,,,,,,,,,,,,,,,,,,,,,,,,,,,,,,,,,,,,,,,,,,,,,,,,,,,,,,,,,,,,,,,,,,,,,,,,,,,,,,,,,,,,,,,,,,,,,,,,,,,,,,,,,,,,,,,,,,,,,,,,,,,,,,,,,,,,,,,,,,,,,,,,,,,,,,,,,,,,
0,37,37,68,1,,5e722b4bcf526a0119aee64f,62bbf9ddfbfe27eb2ca148b2,2022-06-29_09h06.43.239,Colour_Asymmetry_Pilot,2022.1.3,Win32,60.0060006,62bbe60bf3d75ef465d3e404,,,,,,,,,,,,,,,,,,,,,,,,,,,,,,,,,,,,,,,,,,,,,,,,,,,,,,,,,,,,,,,,,,,,,,,,,,,,,,,,,,,,,,,,,,,,,,,,,,,,,,,,,,,,,,,,,,,,,,,,,,,,,,,,,,,,,,,,,,,,,,,,,,,,,,,,,,,,,,
0,38,38,27,1,,5e722b4bcf526a0119aee64f,62bbf9ddfbfe27eb2ca148b2,2022-06-29_09h06.43.239,Colour_Asymmetry_Pilot,2022.1.3,Win32,60.0060006,62bbe60bf3d75ef465d3e404,,,,,,,,,,,,,,,,,,,,,,,,,,,,,,,,,,,,,,,,,,,,,,,,,,,,,,,,,,,,,,,,,,,,,,,,,,,,,,,,,,,,,,,,,,,,,,,,,,,,,,,,,,,,,,,,,,,,,,,,,,,,,,,,,,,,,,,,,,,,,,,,,,,,,,,,,,,,,,
0,39,39,8,1,,5e722b4bcf526a0119aee64f,62bbf9ddfbfe27eb2ca148b2,2022-06-29_09h06.43.239,Colour_Asymmetry_Pilot,2022.1.3,Win32,60.0060006,62bbe60bf3d75ef465d3e404,,,,,,,,,,,,,,,,,,,,,,,,,,,,,,,,,,,,,,,,,,,,,,,,,,,,,,,,,,,,,,,,,,,,,,,,,,,,,,,,,,,,,,,,,,,,,,,,,,,,,,,,,,,,,,,,,,,,,,,,,,,,,,,,,,,,,,,,,,,,,,,,,,,,,,,,,,,,,,
0,40,40,45,1,,5e722b4bcf526a0119aee64f,62bbf9ddfbfe27eb2ca148b2,2022-06-29_09h06.43.239,Colour_Asymmetry_Pilot,2022.1.3,Win32,60.0060006,62bbe60bf3d75ef465d3e404,,,,,,,,,,,,,,,,,,,,,,,,,,,,,,,,,,,,,,,,,,,,,,,,,,,,,,,,,,,,,,,,,,,,,,,,,,,,,,,,,,,,,,,,,,,,,,,,,,,,,,,,,,,,,,,,,,,,,,,,,,,,,,,,,,,,,,,,,,,,,,,,,,,,,,,,,,,,,,
0,41,41,41,1,,5e722b4bcf526a0119aee64f,62bbf9ddfbfe27eb2ca148b2,2022-06-29_09h06.43.239,Colour_Asymmetry_Pilot,2022.1.3,Win32,60.0060006,62bbe60bf3d75ef465d3e404,,,,,,,,,,,,,,,,,,,,,,,,,,,,,,,,,,,,,,,,,,,,,,,,,,,,,,,,,,,,,,,,,,,,,,,,,,,,,,,,,,,,,,,,,,,,,,,,,,,,,,,,,,,,,,,,,,,,,,,,,,,,,,,,,,,,,,,,,,,,,,,,,,,,,,,,,,,,,,
0,42,42,74,1,,5e722b4bcf526a0119aee64f,62bbf9ddfbfe27eb2ca148b2,2022-06-29_09h06.43.239,Colour_Asymmetry_Pilot,2022.1.3,Win32,60.0060006,62bbe60bf3d75ef465d3e404,,,,,,,,,,,,,,,,,,,,,,,,,,,,,,,,,,,,,,,,,,,,,,,,,,,,,,,,,,,,,,,,,,,,,,,,,,,,,,,,,,,,,,,,,,,,,,,,,,,,,,,,,,,,,,,,,,,,,,,,,,,,,,,,,,,,,,,,,,,,,,,,,,,,,,,,,,,,,,
0,43,43,63,1,,5e722b4bcf526a0119aee64f,62bbf9ddfbfe27eb2ca148b2,2022-06-29_09h06.43.239,Colour_Asymmetry_Pilot,2022.1.3,Win32,60.0060006,62bbe60bf3d75ef465d3e404,,,,,,,,,,,,,,,,,,,,,,,,,,,,,,,,,,,,,,,,,,,,,,,,,,,,,,,,,,,,,,,,,,,,,,,,,,,,,,,,,,,,,,,,,,,,,,,,,,,,,,,,,,,,,,,,,,,,,,,,,,,,,,,,,,,,,,,,,,,,,,,,,,,,,,,,,,,,,,
0,44,44,66,1,,5e722b4bcf526a0119aee64f,62bbf9ddfbfe27eb2ca148b2,2022-06-29_09h06.43.239,Colour_Asymmetry_Pilot,2022.1.3,Win32,60.0060006,62bbe60bf3d75ef465d3e404,,,,,,,,,,,,,,,,,,,,,,,,,,,,,,,,,,,,,,,,,,,,,,,,,,,,,,,,,,,,,,,,,,,,,,,,,,,,,,,,,,,,,,,,,,,,,,,,,,,,,,,,,,,,,,,,,,,,,,,,,,,,,,,,,,,,,,,,,,,,,,,,,,,,,,,,,,,,,,
0,45,45,60,1,,5e722b4bcf526a0119aee64f,62bbf9ddfbfe27eb2ca148b2,2022-06-29_09h06.43.239,Colour_Asymmetry_Pilot,2022.1.3,Win32,60.0060006,62bbe60bf3d75ef465d3e404,,,,,,,,,,,,,,,,,,,,,,,,,,,,,,,,,,,,,,,,,,,,,,,,,,,,,,,,,,,,,,,,,,,,,,,,,,,,,,,,,,,,,,,,,,,,,,,,,,,,,,,,,,,,,,,,,,,,,,,,,,,,,,,,,,,,,,,,,,,,,,,,,,,,,,,,,,,,,,
0,46,46,75,1,,5e722b4bcf526a0119aee64f,62bbf9ddfbfe27eb2ca148b2,2022-06-29_09h06.43.239,Colour_Asymmetry_Pilot,2022.1.3,Win32,60.0060006,62bbe60bf3d75ef465d3e404,,,,,,,,,,,,,,,,,,,,,,,,,,,,,,,,,,,,,,,,,,,,,,,,,,,,,,,,,,,,,,,,,,,,,,,,,,,,,,,,,,,,,,,,,,,,,,,,,,,,,,,,,,,,,,,,,,,,,,,,,,,,,,,,,,,,,,,,,,,,,,,,,,,,,,,,,,,,,,
0,47,47,5,1,,5e722b4bcf526a0119aee64f,62bbf9ddfbfe27eb2ca148b2,2022-06-29_09h06.43.239,Colour_Asymmetry_Pilot,2022.1.3,Win32,60.0060006,62bbe60bf3d75ef465d3e404,,,,,,,,,,,,,,,,,,,,,,,,,,,,,,,,,,,,,,,,,,,,,,,,,,,,,,,,,,,,,,,,,,,,,,,,,,,,,,,,,,,,,,,,,,,,,,,,,,,,,,,,,,,,,,,,,,,,,,,,,,,,,,,,,,,,,,,,,,,,,,,,,,,,,,,,,,,,,,
0,48,48,7,1,,5e722b4bcf526a0119aee64f,62bbf9ddfbfe27eb2ca148b2,2022-06-29_09h06.43.239,Colour_Asymmetry_Pilot,2022.1.3,Win32,60.0060006,62bbe60bf3d75ef465d3e404,,,,,,,,,,,,,,,,,,,,,,,,,,,,,,,,,,,,,,,,,,,,,,,,,,,,,,,,,,,,,,,,,,,,,,,,,,,,,,,,,,,,,,,,,,,,,,,,,,,,,,,,,,,,,,,,,,,,,,,,,,,,,,,,,,,,,,,,,,,,,,,,,,,,,,,,,,,,,,
0,49,49,18,1,,5e722b4bcf526a0119aee64f,62bbf9ddfbfe27eb2ca148b2,2022-06-29_09h06.43.239,Colour_Asymmetry_Pilot,2022.1.3,Win32,60.0060006,62bbe60bf3d75ef465d3e404,,,,,,,,,,,,,,,,,,,,,,,,,,,,,,,,,,,,,,,,,,,,,,,,,,,,,,,,,,,,,,,,,,,,,,,,,,,,,,,,,,,,,,,,,,,,,,,,,,,,,,,,,,,,,,,,,,,,,,,,,,,,,,,,,,,,,,,,,,,,,,,,,,,,,,,,,,,,,,
0,50,50,81,1,,5e722b4bcf526a0119aee64f,62bbf9ddfbfe27eb2ca148b2,2022-06-29_09h06.43.239,Colour_Asymmetry_Pilot,2022.1.3,Win32,60.0060006,62bbe60bf3d75ef465d3e404,,,,,,,,,,,,,,,,,,,,,,,,,,,,,,,,,,,,,,,,,,,,,,,,,,,,,,,,,,,,,,,,,,,,,,,,,,,,,,,,,,,,,,,,,,,,,,,,,,,,,,,,,,,,,,,,,,,,,,,,,,,,,,,,,,,,,,,,,,,,,,,,,,,,,,,,,,,,,,
0,51,51,17,1,,5e722b4bcf526a0119aee64f,62bbf9ddfbfe27eb2ca148b2,2022-06-29_09h06.43.239,Colour_Asymmetry_Pilot,2022.1.3,Win32,60.0060006,62bbe60bf3d75ef465d3e404,,,,,,,,,,,,,,,,,,,,,,,,,,,,,,,,,,,,,,,,,,,,,,,,,,,,,,,,,,,,,,,,,,,,,,,,,,,,,,,,,,,,,,,,,,,,,,,,,,,,,,,,,,,,,,,,,,,,,,,,,,,,,,,,,,,,,,,,,,,,,,,,,,,,,,,,,,,,,,
0,52,52,9,1,,5e722b4bcf526a0119aee64f,62bbf9ddfbfe27eb2ca148b2,2022-06-29_09h06.43.239,Colour_Asymmetry_Pilot,2022.1.3,Win32,60.0060006,62bbe60bf3d75ef465d3e404,,,,,,,,,,,,,,,,,,,,,,,,,,,,,,,,,,,,,,,,,,,,,,,,,,,,,,,,,,,,,,,,,,,,,,,,,,,,,,,,,,,,,,,,,,,,,,,,,,,,,,,,,,,,,,,,,,,,,,,,,,,,,,,,,,,,,,,,,,,,,,,,,,,,,,,,,,,,,,
0,53,53,88,1,,5e722b4bcf526a0119aee64f,62bbf9ddfbfe27eb2ca148b2,2022-06-29_09h06.43.239,Colour_Asymmetry_Pilot,2022.1.3,Win32,60.0060006,62bbe60bf3d75ef465d3e404,,,,,,,,,,,,,,,,,,,,,,,,,,,,,,,,,,,,,,,,,,,,,,,,,,,,,,,,,,,,,,,,,,,,,,,,,,,,,,,,,,,,,,,,,,,,,,,,,,,,,,,,,,,,,,,,,,,,,,,,,,,,,,,,,,,,,,,,,,,,,,,,,,,,,,,,,,,,,,
0,54,54,53,1,,5e722b4bcf526a0119aee64f,62bbf9ddfbfe27eb2ca148b2,2022-06-29_09h06.43.239,Colour_Asymmetry_Pilot,2022.1.3,Win32,60.0060006,62bbe60bf3d75ef465d3e404,,,,,,,,,,,,,,,,,,,,,,,,,,,,,,,,,,,,,,,,,,,,,,,,,,,,,,,,,,,,,,,,,,,,,,,,,,,,,,,,,,,,,,,,,,,,,,,,,,,,,,,,,,,,,,,,,,,,,,,,,,,,,,,,,,,,,,,,,,,,,,,,,,,,,,,,,,,,,,
0,55,55,82,1,,5e722b4bcf526a0119aee64f,62bbf9ddfbfe27eb2ca148b2,2022-06-29_09h06.43.239,Colour_Asymmetry_Pilot,2022.1.3,Win32,60.0060006,62bbe60bf3d75ef465d3e404,,,,,,,,,,,,,,,,,,,,,,,,,,,,,,,,,,,,,,,,,,,,,,,,,,,,,,,,,,,,,,,,,,,,,,,,,,,,,,,,,,,,,,,,,,,,,,,,,,,,,,,,,,,,,,,,,,,,,,,,,,,,,,,,,,,,,,,,,,,,,,,,,,,,,,,,,,,,,,
0,56,56,23,1,,5e722b4bcf526a0119aee64f,62bbf9ddfbfe27eb2ca148b2,2022-06-29_09h06.43.239,Colour_Asymmetry_Pilot,2022.1.3,Win32,60.0060006,62bbe60bf3d75ef465d3e404,,,,,,,,,,,,,,,,,,,,,,,,,,,,,,,,,,,,,,,,,,,,,,,,,,,,,,,,,,,,,,,,,,,,,,,,,,,,,,,,,,,,,,,,,,,,,,,,,,,,,,,,,,,,,,,,,,,,,,,,,,,,,,,,,,,,,,,,,,,,,,,,,,,,,,,,,,,,,,
0,57,57,77,1,,5e722b4bcf526a0119aee64f,62bbf9ddfbfe27eb2ca148b2,2022-06-29_09h06.43.239,Colour_Asymmetry_Pilot,2022.1.3,Win32,60.0060006,62bbe60bf3d75ef465d3e404,,,,,,,,,,,,,,,,,,,,,,,,,,,,,,,,,,,,,,,,,,,,,,,,,,,,,,,,,,,,,,,,,,,,,,,,,,,,,,,,,,,,,,,,,,,,,,,,,,,,,,,,,,,,,,,,,,,,,,,,,,,,,,,,,,,,,,,,,,,,,,,,,,,,,,,,,,,,,,
0,58,58,28,1,,5e722b4bcf526a0119aee64f,62bbf9ddfbfe27eb2ca148b2,2022-06-29_09h06.43.239,Colour_Asymmetry_Pilot,2022.1.3,Win32,60.0060006,62bbe60bf3d75ef465d3e404,,,,,,,,,,,,,,,,,,,,,,,,,,,,,,,,,,,,,,,,,,,,,,,,,,,,,,,,,,,,,,,,,,,,,,,,,,,,,,,,,,,,,,,,,,,,,,,,,,,,,,,,,,,,,,,,,,,,,,,,,,,,,,,,,,,,,,,,,,,,,,,,,,,,,,,,,,,,,,
0,59,59,30,1,,5e722b4bcf526a0119aee64f,62bbf9ddfbfe27eb2ca148b2,2022-06-29_09h06.43.239,Colour_Asymmetry_Pilot,2022.1.3,Win32,60.0060006,62bbe60bf3d75ef465d3e404,,,,,,,,,,,,,,,,,,,,,,,,,,,,,,,,,,,,,,,,,,,,,,,,,,,,,,,,,,,,,,,,,,,,,,,,,,,,,,,,,,,,,,,,,,,,,,,,,,,,,,,,,,,,,,,,,,,,,,,,,,,,,,,,,,,,,,,,,,,,,,,,,,,,,,,,,,,,,,
0,60,60,44,1,,5e722b4bcf526a0119aee64f,62bbf9ddfbfe27eb2ca148b2,2022-06-29_09h06.43.239,Colour_Asymmetry_Pilot,2022.1.3,Win32,60.0060006,62bbe60bf3d75ef465d3e404,,,,,,,,,,,,,,,,,,,,,,,,,,,,,,,,,,,,,,,,,,,,,,,,,,,,,,,,,,,,,,,,,,,,,,,,,,,,,,,,,,,,,,,,,,,,,,,,,,,,,,,,,,,,,,,,,,,,,,,,,,,,,,,,,,,,,,,,,,,,,,,,,,,,,,,,,,,,,,
0,61,61,62,1,,5e722b4bcf526a0119aee64f,62bbf9ddfbfe27eb2ca148b2,2022-06-29_09h06.43.239,Colour_Asymmetry_Pilot,2022.1.3,Win32,60.0060006,62bbe60bf3d75ef465d3e404,,,,,,,,,,,,,,,,,,,,,,,,,,,,,,,,,,,,,,,,,,,,,,,,,,,,,,,,,,,,,,,,,,,,,,,,,,,,,,,,,,,,,,,,,,,,,,,,,,,,,,,,,,,,,,,,,,,,,,,,,,,,,,,,,,,,,,,,,,,,,,,,,,,,,,,,,,,,,,
0,62,62,29,1,,5e722b4bcf526a0119aee64f,62bbf9ddfbfe27eb2ca148b2,2022-06-29_09h06.43.239,Colour_Asymmetry_Pilot,2022.1.3,Win32,60.0060006,62bbe60bf3d75ef465d3e404,,,,,,,,,,,,,,,,,,,,,,,,,,,,,,,,,,,,,,,,,,,,,,,,,,,,,,,,,,,,,,,,,,,,,,,,,,,,,,,,,,,,,,,,,,,,,,,,,,,,,,,,,,,,,,,,,,,,,,,,,,,,,,,,,,,,,,,,,,,,,,,,,,,,,,,,,,,,,,
0,63,63,54,1,,5e722b4bcf526a0119aee64f,62bbf9ddfbfe27eb2ca148b2,2022-06-29_09h06.43.239,Colour_Asymmetry_Pilot,2022.1.3,Win32,60.0060006,62bbe60bf3d75ef465d3e404,,,,,,,,,,,,,,,,,,,,,,,,,,,,,,,,,,,,,,,,,,,,,,,,,,,,,,,,,,,,,,,,,,,,,,,,,,,,,,,,,,,,,,,,,,,,,,,,,,,,,,,,,,,,,,,,,,,,,,,,,,,,,,,,,,,,,,,,,,,,,,,,,,,,,,,,,,,,,,
0,64,64,71,1,,5e722b4bcf526a0119aee64f,62bbf9ddfbfe27eb2ca148b2,2022-06-29_09h06.43.239,Colour_Asymmetry_Pilot,2022.1.3,Win32,60.0060006,62bbe60bf3d75ef465d3e404,,,,,,,,,,,,,,,,,,,,,,,,,,,,,,,,,,,,,,,,,,,,,,,,,,,,,,,,,,,,,,,,,,,,,,,,,,,,,,,,,,,,,,,,,,,,,,,,,,,,,,,,,,,,,,,,,,,,,,,,,,,,,,,,,,,,,,,,,,,,,,,,,,,,,,,,,,,,,,
0,65,65,87,1,,5e722b4bcf526a0119aee64f,62bbf9ddfbfe27eb2ca148b2,2022-06-29_09h06.43.239,Colour_Asymmetry_Pilot,2022.1.3,Win32,60.0060006,62bbe60bf3d75ef465d3e404,,,,,,,,,,,,,,,,,,,,,,,,,,,,,,,,,,,,,,,,,,,,,,,,,,,,,,,,,,,,,,,,,,,,,,,,,,,,,,,,,,,,,,,,,,,,,,,,,,,,,,,,,,,,,,,,,,,,,,,,,,,,,,,,,,,,,,,,,,,,,,,,,,,,,,,,,,,,,,
0,66,66,80,1,,5e722b4bcf526a0119aee64f,62bbf9ddfbfe27eb2ca148b2,2022-06-29_09h06.43.239,Colour_Asymmetry_Pilot,2022.1.3,Win32,60.0060006,62bbe60bf3d75ef465d3e404,,,,,,,,,,,,,,,,,,,,,,,,,,,,,,,,,,,,,,,,,,,,,,,,,,,,,,,,,,,,,,,,,,,,,,,,,,,,,,,,,,,,,,,,,,,,,,,,,,,,,,,,,,,,,,,,,,,,,,,,,,,,,,,,,,,,,,,,,,,,,,,,,,,,,,,,,,,,,,
0,67,67,14,1,,5e722b4bcf526a0119aee64f,62bbf9ddfbfe27eb2ca148b2,2022-06-29_09h06.43.239,Colour_Asymmetry_Pilot,2022.1.3,Win32,60.0060006,62bbe60bf3d75ef465d3e404,,,,,,,,,,,,,,,,,,,,,,,,,,,,,,,,,,,,,,,,,,,,,,,,,,,,,,,,,,,,,,,,,,,,,,,,,,,,,,,,,,,,,,,,,,,,,,,,,,,,,,,,,,,,,,,,,,,,,,,,,,,,,,,,,,,,,,,,,,,,,,,,,,,,,,,,,,,,,,
0,68,68,86,1,,5e722b4bcf526a0119aee64f,62bbf9ddfbfe27eb2ca148b2,2022-06-29_09h06.43.239,Colour_Asymmetry_Pilot,2022.1.3,Win32,60.0060006,62bbe60bf3d75ef465d3e404,,,,,,,,,,,,,,,,,,,,,,,,,,,,,,,,,,,,,,,,,,,,,,,,,,,,,,,,,,,,,,,,,,,,,,,,,,,,,,,,,,,,,,,,,,,,,,,,,,,,,,,,,,,,,,,,,,,,,,,,,,,,,,,,,,,,,,,,,,,,,,,,,,,,,,,,,,,,,,
0,69,69,13,1,,5e722b4bcf526a0119aee64f,62bbf9ddfbfe27eb2ca148b2,2022-06-29_09h06.43.239,Colour_Asymmetry_Pilot,2022.1.3,Win32,60.0060006,62bbe60bf3d75ef465d3e404,,,,,,,,,,,,,,,,,,,,,,,,,,,,,,,,,,,,,,,,,,,,,,,,,,,,,,,,,,,,,,,,,,,,,,,,,,,,,,,,,,,,,,,,,,,,,,,,,,,,,,,,,,,,,,,,,,,,,,,,,,,,,,,,,,,,,,,,,,,,,,,,,,,,,,,,,,,,,,
0,70,70,43,1,,5e722b4bcf526a0119aee64f,62bbf9ddfbfe27eb2ca148b2,2022-06-29_09h06.43.239,Colour_Asymmetry_Pilot,2022.1.3,Win32,60.0060006,62bbe60bf3d75ef465d3e404,,,,,,,,,,,,,,,,,,,,,,,,,,,,,,,,,,,,,,,,,,,,,,,,,,,,,,,,,,,,,,,,,,,,,,,,,,,,,,,,,,,,,,,,,,,,,,,,,,,,,,,,,,,,,,,,,,,,,,,,,,,,,,,,,,,,,,,,,,,,,,,,,,,,,,,,,,,,,,
0,71,71,36,1,,5e722b4bcf526a0119aee64f,62bbf9ddfbfe27eb2ca148b2,2022-06-29_09h06.43.239,Colour_Asymmetry_Pilot,2022.1.3,Win32,60.0060006,62bbe60bf3d75ef465d3e404,,,,,,,,,,,,,,,,,,,,,,,,,,,,,,,,,,,,,,,,,,,,,,,,,,,,,,,,,,,,,,,,,,,,,,,,,,,,,,,,,,,,,,,,,,,,,,,,,,,,,,,,,,,,,,,,,,,,,,,,,,,,,,,,,,,,,,,,,,,,,,,,,,,,,,,,,,,,,,
0,72,72,4,1,,5e722b4bcf526a0119aee64f,62bbf9ddfbfe27eb2ca148b2,2022-06-29_09h06.43.239,Colour_Asymmetry_Pilot,2022.1.3,Win32,60.0060006,62bbe60bf3d75ef465d3e404,,,,,,,,,,,,,,,,,,,,,,,,,,,,,,,,,,,,,,,,,,,,,,,,,,,,,,,,,,,,,,,,,,,,,,,,,,,,,,,,,,,,,,,,,,,,,,,,,,,,,,,,,,,,,,,,,,,,,,,,,,,,,,,,,,,,,,,,,,,,,,,,,,,,,,,,,,,,,,
0,73,73,31,1,,5e722b4bcf526a0119aee64f,62bbf9ddfbfe27eb2ca148b2,2022-06-29_09h06.43.239,Colour_Asymmetry_Pilot,2022.1.3,Win32,60.0060006,62bbe60bf3d75ef465d3e404,,,,,,,,,,,,,,,,,,,,,,,,,,,,,,,,,,,,,,,,,,,,,,,,,,,,,,,,,,,,,,,,,,,,,,,,,,,,,,,,,,,,,,,,,,,,,,,,,,,,,,,,,,,,,,,,,,,,,,,,,,,,,,,,,,,,,,,,,,,,,,,,,,,,,,,,,,,,,,
0,74,74,6,1,,5e722b4bcf526a0119aee64f,62bbf9ddfbfe27eb2ca148b2,2022-06-29_09h06.43.239,Colour_Asymmetry_Pilot,2022.1.3,Win32,60.0060006,62bbe60bf3d75ef465d3e404,,,,,,,,,,,,,,,,,,,,,,,,,,,,,,,,,,,,,,,,,,,,,,,,,,,,,,,,,,,,,,,,,,,,,,,,,,,,,,,,,,,,,,,,,,,,,,,,,,,,,,,,,,,,,,,,,,,,,,,,,,,,,,,,,,,,,,,,,,,,,,,,,,,,,,,,,,,,,,
0,75,75,19,1,,5e722b4bcf526a0119aee64f,62bbf9ddfbfe27eb2ca148b2,2022-06-29_09h06.43.239,Colour_Asymmetry_Pilot,2022.1.3,Win32,60.0060006,62bbe60bf3d75ef465d3e404,,,,,,,,,,,,,,,,,,,,,,,,,,,,,,,,,,,,,,,,,,,,,,,,,,,,,,,,,,,,,,,,,,,,,,,,,,,,,,,,,,,,,,,,,,,,,,,,,,,,,,,,,,,,,,,,,,,,,,,,,,,,,,,,,,,,,,,,,,,,,,,,,,,,,,,,,,,,,,
0,76,76,70,1,,5e722b4bcf526a0119aee64f,62bbf9ddfbfe27eb2ca148b2,2022-06-29_09h06.43.239,Colour_Asymmetry_Pilot,2022.1.3,Win32,60.0060006,62bbe60bf3d75ef465d3e404,,,,,,,,,,,,,,,,,,,,,,,,,,,,,,,,,,,,,,,,,,,,,,,,,,,,,,,,,,,,,,,,,,,,,,,,,,,,,,,,,,,,,,,,,,,,,,,,,,,,,,,,,,,,,,,,,,,,,,,,,,,,,,,,,,,,,,,,,,,,,,,,,,,,,,,,,,,,,,
0,77,77,72,1,,5e722b4bcf526a0119aee64f,62bbf9ddfbfe27eb2ca148b2,2022-06-29_09h06.43.239,Colour_Asymmetry_Pilot,2022.1.3,Win32,60.0060006,62bbe60bf3d75ef465d3e404,,,,,,,,,,,,,,,,,,,,,,,,,,,,,,,,,,,,,,,,,,,,,,,,,,,,,,,,,,,,,,,,,,,,,,,,,,,,,,,,,,,,,,,,,,,,,,,,,,,,,,,,,,,,,,,,,,,,,,,,,,,,,,,,,,,,,,,,,,,,,,,,,,,,,,,,,,,,,,
0,78,78,49,1,,5e722b4bcf526a0119aee64f,62bbf9ddfbfe27eb2ca148b2,2022-06-29_09h06.43.239,Colour_Asymmetry_Pilot,2022.1.3,Win32,60.0060006,62bbe60bf3d75ef465d3e404,,,,,,,,,,,,,,,,,,,,,,,,,,,,,,,,,,,,,,,,,,,,,,,,,,,,,,,,,,,,,,,,,,,,,,,,,,,,,,,,,,,,,,,,,,,,,,,,,,,,,,,,,,,,,,,,,,,,,,,,,,,,,,,,,,,,,,,,,,,,,,,,,,,,,,,,,,,,,,
0,79,79,79,1,,5e722b4bcf526a0119aee64f,62bbf9ddfbfe27eb2ca148b2,2022-06-29_09h06.43.239,Colour_Asymmetry_Pilot,2022.1.3,Win32,60.0060006,62bbe60bf3d75ef465d3e404,,,,,,,,,,,,,,,,,,,,,,,,,,,,,,,,,,,,,,,,,,,,,,,,,,,,,,,,,,,,,,,,,,,,,,,,,,,,,,,,,,,,,,,,,,,,,,,,,,,,,,,,,,,,,,,,,,,,,,,,,,,,,,,,,,,,,,,,,,,,,,,,,,,,,,,,,,,,,,
0,80,80,37,1,,5e722b4bcf526a0119aee64f,62bbf9ddfbfe27eb2ca148b2,2022-06-29_09h06.43.239,Colour_Asymmetry_Pilot,2022.1.3,Win32,60.0060006,62bbe60bf3d75ef465d3e404,,,,,,,,,,,,,,,,,,,,,,,,,,,,,,,,,,,,,,,,,,,,,,,,,,,,,,,,,,,,,,,,,,,,,,,,,,,,,,,,,,,,,,,,,,,,,,,,,,,,,,,,,,,,,,,,,,,,,,,,,,,,,,,,,,,,,,,,,,,,,,,,,,,,,,,,,,,,,,
0,81,81,85,1,,5e722b4bcf526a0119aee64f,62bbf9ddfbfe27eb2ca148b2,2022-06-29_09h06.43.239,Colour_Asymmetry_Pilot,2022.1.3,Win32,60.0060006,62bbe60bf3d75ef465d3e404,,,,,,,,,,,,,,,,,,,,,,,,,,,,,,,,,,,,,,,,,,,,,,,,,,,,,,,,,,,,,,,,,,,,,,,,,,,,,,,,,,,,,,,,,,,,,,,,,,,,,,,,,,,,,,,,,,,,,,,,,,,,,,,,,,,,,,,,,,,,,,,,,,,,,,,,,,,,,,
0,82,82,76,1,,5e722b4bcf526a0119aee64f,62bbf9ddfbfe27eb2ca148b2,2022-06-29_09h06.43.239,Colour_Asymmetry_Pilot,2022.1.3,Win32,60.0060006,62bbe60bf3d75ef465d3e404,,,,,,,,,,,,,,,,,,,,,,,,,,,,,,,,,,,,,,,,,,,,,,,,,,,,,,,,,,,,,,,,,,,,,,,,,,,,,,,,,,,,,,,,,,,,,,,,,,,,,,,,,,,,,,,,,,,,,,,,,,,,,,,,,,,,,,,,,,,,,,,,,,,,,,,,,,,,,,
0,83,83,92,1,,5e722b4bcf526a0119aee64f,62bbf9ddfbfe27eb2ca148b2,2022-06-29_09h06.43.239,Colour_Asymmetry_Pilot,2022.1.3,Win32,60.0060006,62bbe60bf3d75ef465d3e404,,,,,,,,,,,,,,,,,,,,,,,,,,,,,,,,,,,,,,,,,,,,,,,,,,,,,,,,,,,,,,,,,,,,,,,,,,,,,,,,,,,,,,,,,,,,,,,,,,,,,,,,,,,,,,,,,,,,,,,,,,,,,,,,,,,,,,,,,,,,,,,,,,,,,,,,,,,,,,
0,84,84,24,1,,5e722b4bcf526a0119aee64f,62bbf9ddfbfe27eb2ca148b2,2022-06-29_09h06.43.239,Colour_Asymmetry_Pilot,2022.1.3,Win32,60.0060006,62bbe60bf3d75ef465d3e404,,,,,,,,,,,,,,,,,,,,,,,,,,,,,,,,,,,,,,,,,,,,,,,,,,,,,,,,,,,,,,,,,,,,,,,,,,,,,,,,,,,,,,,,,,,,,,,,,,,,,,,,,,,,,,,,,,,,,,,,,,,,,,,,,,,,,,,,,,,,,,,,,,,,,,,,,,,,,,
0,85,85,64,1,,5e722b4bcf526a0119aee64f,62bbf9ddfbfe27eb2ca148b2,2022-06-29_09h06.43.239,Colour_Asymmetry_Pilot,2022.1.3,Win32,60.0060006,62bbe60bf3d75ef465d3e404,,,,,,,,,,,,,,,,,,,,,,,,,,,,,,,,,,,,,,,,,,,,,,,,,,,,,,,,,,,,,,,,,,,,,,,,,,,,,,,,,,,,,,,,,,,,,,,,,,,,,,,,,,,,,,,,,,,,,,,,,,,,,,,,,,,,,,,,,,,,,,,,,,,,,,,,,,,,,,
0,86,86,57,1,,5e722b4bcf526a0119aee64f,62bbf9ddfbfe27eb2ca148b2,2022-06-29_09h06.43.239,Colour_Asymmetry_Pilot,2022.1.3,Win32,60.0060006,62bbe60bf3d75ef465d3e404,,,,,,,,,,,,,,,,,,,,,,,,,,,,,,,,,,,,,,,,,,,,,,,,,,,,,,,,,,,,,,,,,,,,,,,,,,,,,,,,,,,,,,,,,,,,,,,,,,,,,,,,,,,,,,,,,,,,,,,,,,,,,,,,,,,,,,,,,,,,,,,,,,,,,,,,,,,,,,
0,87,87,90,1,,5e722b4bcf526a0119aee64f,62bbf9ddfbfe27eb2ca148b2,2022-06-29_09h06.43.239,Colour_Asymmetry_Pilot,2022.1.3,Win32,60.0060006,62bbe60bf3d75ef465d3e404,,,,,,,,,,,,,,,,,,,,,,,,,,,,,,,,,,,,,,,,,,,,,,,,,,,,,,,,,,,,,,,,,,,,,,,,,,,,,,,,,,,,,,,,,,,,,,,,,,,,,,,,,,,,,,,,,,,,,,,,,,,,,,,,,,,,,,,,,,,,,,,,,,,,,,,,,,,,,,
0,88,88,46,1,,5e722b4bcf526a0119aee64f,62bbf9ddfbfe27eb2ca148b2,2022-06-29_09h06.43.239,Colour_Asymmetry_Pilot,2022.1.3,Win32,60.0060006,62bbe60bf3d75ef465d3e404,,,,,,,,,,,,,,,,,,,,,,,,,,,,,,,,,,,,,,,,,,,,,,,,,,,,,,,,,,,,,,,,,,,,,,,,,,,,,,,,,,,,,,,,,,,,,,,,,,,,,,,,,,,,,,,,,,,,,,,,,,,,,,,,,,,,,,,,,,,,,,,,,,,,,,,,,,,,,,
0,89,89,26,1,,5e722b4bcf526a0119aee64f,62bbf9ddfbfe27eb2ca148b2,2022-06-29_09h06.43.239,Colour_Asymmetry_Pilot,2022.1.3,Win32,60.0060006,62bbe60bf3d75ef465d3e404,,,,,,,,,,,,,,,,,,,,,,,,,,,,,,,,,,,,,,,,,,,,,,,,,,,,,,,,,,,,,,,,,,,,,,,,,,,,,,,,,,,,,,,,,,,,,,,,,,,,,,,,,,,,,,,,,,,,,,,,,,,,,,,,,,,,,,,,,,,,,,,,,,,,,,,,,,,,,,
0,90,90,84,1,,5e722b4bcf526a0119aee64f,62bbf9ddfbfe27eb2ca148b2,2022-06-29_09h06.43.239,Colour_Asymmetry_Pilot,2022.1.3,Win32,60.0060006,62bbe60bf3d75ef465d3e404,,,,,,,,,,,,,,,,,,,,,,,,,,,,,,,,,,,,,,,,,,,,,,,,,,,,,,,,,,,,,,,,,,,,,,,,,,,,,,,,,,,,,,,,,,,,,,,,,,,,,,,,,,,,,,,,,,,,,,,,,,,,,,,,,,,,,,,,,,,,,,,,,,,,,,,,,,,,,,
0,91,91,38,1,,5e722b4bcf526a0119aee64f,62bbf9ddfbfe27eb2ca148b2,2022-06-29_09h06.43.239,Colour_Asymmetry_Pilot,2022.1.3,Win32,60.0060006,62bbe60bf3d75ef465d3e404,,,,,,,,,,,,,,,,,,,,,,,,,,,,,,,,,,,,,,,,,,,,,,,,,,,,,,,,,,,,,,,,,,,,,,,,,,,,,,,,,,,,,,,,,,,,,,,,,,,,,,,,,,,,,,,,,,,,,,,,,,,,,,,,,,,,,,,,,,,,,,,,,,,,,,,,,,,,,,
0,92,92,16,1,,5e722b4bcf526a0119aee64f,62bbf9ddfbfe27eb2ca148b2,2022-06-29_09h06.43.239,Colour_Asymmetry_Pilot,2022.1.3,Win32,60.0060006,62bbe60bf3d75ef465d3e404,,,,,,,,,,,,,,,,,,,,,,,,,,,,,,,,,,,,,,,,,,,,,,,,,,,,,,,,,,,,,,,,,,,,,,,,,,,,,,,,,,,,,,,,,,,,,,,,,,,,,,,,,,,,,,,,,,,,,,,,,,,,,,,,,,,,,,,,,,,,,,,,,,,,,,,,,,,,,,
,,,,,,5e722b4bcf526a0119aee64f,62bbf9ddfbfe27eb2ca148b2,2022-06-29_09h06.43.239,Colour_Asymmetry_Pilot,2022.1.3,Win32,60.0060006,62bbe60bf3d75ef465d3e404,0,0,0,39,1,fourthree,,,,,,,,,,,,,,,,,,,,,,,,,,,,,,,,,,,,,,,,,,,,,,,,,,,,,,,,,,,,,,,,,,,,,,,,,,,,,,,,,,,,,,,,,,,,,,,,,,,,,,,,,,,,,,,,,,,,,,,,,,,,,,,,,,,,,,,,,,,,,,,,,,,,,,,,
,,,,,,5e722b4bcf526a0119aee64f,62bbf9ddfbfe27eb2ca148b2,2022-06-29_09h06.43.239,Colour_Asymmetry_Pilot,2022.1.3,Win32,60.0060006,62bbe60bf3d75ef465d3e404,0,1,1,55,1,fourthree,,,,,,,,,,,,,,,,,,,,,,,,,,,,,,,,,,,,,,,,,,,,,,,,,,,,,,,,,,,,,,,,,,,,,,,,,,,,,,,,,,,,,,,,,,,,,,,,,,,,,,,,,,,,,,,,,,,,,,,,,,,,,,,,,,,,,,,,,,,,,,,,,,,,,,,,
,,,,,,5e722b4bcf526a0119aee64f,62bbf9ddfbfe27eb2ca148b2,2022-06-29_09h06.43.239,Colour_Asymmetry_Pilot,2022.1.3,Win32,60.0060006,62bbe60bf3d75ef465d3e404,0,2,2,84,1,threeone,,,,,,,,,,,,,,,,,,,,,,,,,,,,,,,,,,,,,,,,,,,,,,,,,,,,,,,,,,,,,,,,,,,,,,,,,,,,,,,,,,,,,,,,,,,,,,,,,,,,,,,,,,,,,,,,,,,,,,,,,,,,,,,,,,,,,,,,,,,,,,,,,,,,,,,,
,,,,,,5e722b4bcf526a0119aee64f,62bbf9ddfbfe27eb2ca148b2,2022-06-29_09h06.43.239,Colour_Asymmetry_Pilot,2022.1.3,Win32,60.0060006,62bbe60bf3d75ef465d3e404,0,3,3,82,1,twoone,,,,,,,,,,,,,,,,,,,,,,,,,,,,,,,,,,,,,,,,,,,,,,,,,,,,,,,,,,,,,,,,,,,,,,,,,,,,,,,,,,,,,,,,,,,,,,,,,,,,,,,,,,,,,,,,,,,,,,,,,,,,,,,,,,,,,,,,,,,,,,,,,,,,,,,,
,,,,,,5e722b4bcf526a0119aee64f,62bbf9ddfbfe27eb2ca148b2,2022-06-29_09h06.43.239,Colour_Asymmetry_Pilot,2022.1.3,Win32,60.0060006,62bbe60bf3d75ef465d3e404,0,4,4,40,1,onetwo,,,,,,,,,,,,,,,,,,,,,,,,,,,,,,,,,,,,,,,,,,,,,,,,,,,,,,,,,,,,,,,,,,,,,,,,,,,,,,,,,,,,,,,,,,,,,,,,,,,,,,,,,,,,,,,,,,,,,,,,,,,,,,,,,,,,,,,,,,,,,,,,,,,,,,,,
,,,,,,5e722b4bcf526a0119aee64f,62bbf9ddfbfe27eb2ca148b2,2022-06-29_09h06.43.239,Colour_Asymmetry_Pilot,2022.1.3,Win32,60.0060006,62bbe60bf3d75ef465d3e404,0,5,5,101,1,threefour,,,,,,,,,,,,,,,,,,,,,,,,,,,,,,,,,,,,,,,,,,,,,,,,,,,,,,,,,,,,,,,,,,,,,,,,,,,,,,,,,,,,,,,,,,,,,,,,,,,,,,,,,,,,,,,,,,,,,,,,,,,,,,,,,,,,,,,,,,,,,,,,,,,,,,,,
,,,,,,5e722b4bcf526a0119aee64f,62bbf9ddfbfe27eb2ca148b2,2022-06-29_09h06.43.239,Colour_Asymmetry_Pilot,2022.1.3,Win32,60.0060006,62bbe60bf3d75ef465d3e404,0,6,6,103,1,fourthree,,,,,,,,,,,,,,,,,,,,,,,,,,,,,,,,,,,,,,,,,,,,,,,,,,,,,,,,,,,,,,,,,,,,,,,,,,,,,,,,,,,,,,,,,,,,,,,,,,,,,,,,,,,,,,,,,,,,,,,,,,,,,,,,,,,,,,,,,,,,,,,,,,,,,,,,
,,,,,,5e722b4bcf526a0119aee64f,62bbf9ddfbfe27eb2ca148b2,2022-06-29_09h06.43.239,Colour_Asymmetry_Pilot,2022.1.3,Win32,60.0060006,62bbe60bf3d75ef465d3e404,0,7,7,60,1,threeone,,,,,,,,,,,,,,,,,,,,,,,,,,,,,,,,,,,,,,,,,,,,,,,,,,,,,,,,,,,,,,,,,,,,,,,,,,,,,,,,,,,,,,,,,,,,,,,,,,,,,,,,,,,,,,,,,,,,,,,,,,,,,,,,,,,,,,,,,,,,,,,,,,,,,,,,
,,,,,,5e722b4bcf526a0119aee64f,62bbf9ddfbfe27eb2ca148b2,2022-06-29_09h06.43.239,Colour_Asymmetry_Pilot,2022.1.3,Win32,60.0060006,62bbe60bf3d75ef465d3e404,0,8,8,148,1,threeone,,,,,,,,,,,,,,,,,,,,,,,,,,,,,,,,,,,,,,,,,,,,,,,,,,,,,,,,,,,,,,,,,,,,,,,,,,,,,,,,,,,,,,,,,,,,,,,,,,,,,,,,,,,,,,,,,,,,,,,,,,,,,,,,,,,,,,,,,,,,,,,,,,,,,,,,
,,,,,,5e722b4bcf526a0119aee64f,62bbf9ddfbfe27eb2ca148b2,2022-06-29_09h06.43.239,Colour_Asymmetry_Pilot,2022.1.3,Win32,60.0060006,62bbe60bf3d75ef465d3e404,0,9,9,95,1,fourthree,,,,,,,,,,,,,,,,,,,,,,,,,,,,,,,,,,,,,,,,,,,,,,,,,,,,,,,,,,,,,,,,,,,,,,,,,,,,,,,,,,,,,,,,,,,,,,,,,,,,,,,,,,,,,,,,,,,,,,,,,,,,,,,,,,,,,,,,,,,,,,,,,,,,,,,,
,,,,,,5e722b4bcf526a0119aee64f,62bbf9ddfbfe27eb2ca148b2,2022-06-29_09h06.43.239,Colour_Asymmetry_Pilot,2022.1.3,Win32,60.0060006,62bbe60bf3d75ef465d3e404,0,10,10,8,1,onetwo,,,,,,,,,,,,,,,,,,,,,,,,,,,,,,,,,,,,,,,,,,,,,,,,,,,,,,,,,,,,,,,,,,,,,,,,,,,,,,,,,,,,,,,,,,,,,,,,,,,,,,,,,,,,,,,,,,,,,,,,,,,,,,,,,,,,,,,,,,,,,,,,,,,,,,,,
,,,,,,5e722b4bcf526a0119aee64f,62bbf9ddfbfe27eb2ca148b2,2022-06-29_09h06.43.239,Colour_Asymmetry_Pilot,2022.1.3,Win32,60.0060006,62bbe60bf3d75ef465d3e404,0,11,11,32,1,onetwo,,,,,,,,,,,,,,,,,,,,,,,,,,,,,,,,,,,,,,,,,,,,,,,,,,,,,,,,,,,,,,,,,,,,,,,,,,,,,,,,,,,,,,,,,,,,,,,,,,,,,,,,,,,,,,,,,,,,,,,,,,,,,,,,,,,,,,,,,,,,,,,,,,,,,,,,
,,,,,,5e722b4bcf526a0119aee64f,62bbf9ddfbfe27eb2ca148b2,2022-06-29_09h06.43.239,Colour_Asymmetry_Pilot,2022.1.3,Win32,60.0060006,62bbe60bf3d75ef465d3e404,0,12,12,142,1,fourtwo,,,,,,,,,,,,,,,,,,,,,,,,,,,,,,,,,,,,,,,,,,,,,,,,,,,,,,,,,,,,,,,,,,,,,,,,,,,,,,,,,,,,,,,,,,,,,,,,,,,,,,,,,,,,,,,,,,,,,,,,,,,,,,,,,,,,,,,,,,,,,,,,,,,,,,,,
,,,,,,5e722b4bcf526a0119aee64f,62bbf9ddfbfe27eb2ca148b2,2022-06-29_09h06.43.239,Colour_Asymmetry_Pilot,2022.1.3,Win32,60.0060006,62bbe60bf3d75ef465d3e404,0,13,13,20,1,threeone,,,,,,,,,,,,,,,,,,,,,,,,,,,,,,,,,,,,,,,,,,,,,,,,,,,,,,,,,,,,,,,,,,,,,,,,,,,,,,,,,,,,,,,,,,,,,,,,,,,,,,,,,,,,,,,,,,,,,,,,,,,,,,,,,,,,,,,,,,,,,,,,,,,,,,,,
,,,,,,5e722b4bcf526a0119aee64f,62bbf9ddfbfe27eb2ca148b2,2022-06-29_09h06.43.239,Colour_Asymmetry_Pilot,2022.1.3,Win32,60.0060006,62bbe60bf3d75ef465d3e404,0,14,14,151,1,fourthree,,,,,,,,,,,,,,,,,,,,,,,,,,,,,,,,,,,,,,,,,,,,,,,,,,,,,,,,,,,,,,,,,,,,,,,,,,,,,,,,,,,,,,,,,,,,,,,,,,,,,,,,,,,,,,,,,,,,,,,,,,,,,,,,,,,,,,,,,,,,,,,,,,,,,,,,
,,,,,,5e722b4bcf526a0119aee64f,62bbf9ddfbfe27eb2ca148b2,2022-06-29_09h06.43.239,Colour_Asymmetry_Pilot,2022.1.3,Win32,60.0060006,62bbe60bf3d75ef465d3e404,0,15,15,158,1,fourtwo,,,,,,,,,,,,,,,,,,,,,,,,,,,,,,,,,,,,,,,,,,,,,,,,,,,,,,,,,,,,,,,,,,,,,,,,,,,,,,,,,,,,,,,,,,,,,,,,,,,,,,,,,,,,,,,,,,,,,,,,,,,,,,,,,,,,,,,,,,,,,,,,,,,,,,,,
,,,,,,5e722b4bcf526a0119aee64f,62bbf9ddfbfe27eb2ca148b2,2022-06-29_09h06.43.239,Colour_Asymmetry_Pilot,2022.1.3,Win32,60.0060006,62bbe60bf3d75ef465d3e404,0,16,16,93,1,threefour,,,,,,,,,,,,,,,,,,,,,,,,,,,,,,,,,,,,,,,,,,,,,,,,,,,,,,,,,,,,,,,,,,,,,,,,,,,,,,,,,,,,,,,,,,,,,,,,,,,,,,,,,,,,,,,,,,,,,,,,,,,,,,,,,,,,,,,,,,,,,,,,,,,,,,,,
,,,,,,5e722b4bcf526a0119aee64f,62bbf9ddfbfe27eb2ca148b2,2022-06-29_09h06.43.239,Colour_Asymmetry_Pilot,2022.1.3,Win32,60.0060006,62bbe60bf3d75ef465d3e404,0,17,17,5,1,threefour,,,,,,,,,,,,,,,,,,,,,,,,,,,,,,,,,,,,,,,,,,,,,,,,,,,,,,,,,,,,,,,,,,,,,,,,,,,,,,,,,,,,,,,,,,,,,,,,,,,,,,,,,,,,,,,,,,,,,,,,,,,,,,,,,,,,,,,,,,,,,,,,,,,,,,,,
,,,,,,5e722b4bcf526a0119aee64f,62bbf9ddfbfe27eb2ca148b2,2022-06-29_09h06.43.239,Colour_Asymmetry_Pilot,2022.1.3,Win32,60.0060006,62bbe60bf3d75ef465d3e404,0,18,18,64,1,onetwo,,,,,,,,,,,,,,,,,,,,,,,,,,,,,,,,,,,,,,,,,,,,,,,,,,,,,,,,,,,,,,,,,,,,,,,,,,,,,,,,,,,,,,,,,,,,,,,,,,,,,,,,,,,,,,,,,,,,,,,,,,,,,,,,,,,,,,,,,,,,,,,,,,,,,,,,
,,,,,,5e722b4bcf526a0119aee64f,62bbf9ddfbfe27eb2ca148b2,2022-06-29_09h06.43.239,Colour_Asymmetry_Pilot,2022.1.3,Win32,60.0060006,62bbe60bf3d75ef465d3e404,0,19,19,107,1,twofour,,,,,,,,,,,,,,,,,,,,,,,,,,,,,,,,,,,,,,,,,,,,,,,,,,,,,,,,,,,,,,,,,,,,,,,,,,,,,,,,,,,,,,,,,,,,,,,,,,,,,,,,,,,,,,,,,,,,,,,,,,,,,,,,,,,,,,,,,,,,,,,,,,,,,,,,
,,,,,,5e722b4bcf526a0119aee64f,62bbf9ddfbfe27eb2ca148b2,2022-06-29_09h06.43.239,Colour_Asymmetry_Pilot,2022.1.3,Win32,60.0060006,62bbe60bf3d75ef465d3e404,0,20,20,56,1,onetwo,,,,,,,,,,,,,,,,,,,,,,,,,,,,,,,,,,,,,,,,,,,,,,,,,,,,,,,,,,,,,,,,,,,,,,,,,,,,,,,,,,,,,,,,,,,,,,,,,,,,,,,,,,,,,,,,,,,,,,,,,,,,,,,,,,,,,,,,,,,,,,,,,,,,,,,,
,,,,,,5e722b4bcf526a0119aee64f,62bbf9ddfbfe27eb2ca148b2,2022-06-29_09h06.43.239,Colour_Asymmetry_Pilot,2022.1.3,Win32,60.0060006,62bbe60bf3d75ef465d3e404,0,21,21,89,1,onethree,,,,,,,,,,,,,,,,,,,,,,,,,,,,,,,,,,,,,,,,,,,,,,,,,,,,,,,,,,,,,,,,,,,,,,,,,,,,,,,,,,,,,,,,,,,,,,,,,,,,,,,,,,,,,,,,,,,,,,,,,,,,,,,,,,,,,,,,,,,,,,,,,,,,,,,,
,,,,,,5e722b4bcf526a0119aee64f,62bbf9ddfbfe27eb2ca148b2,2022-06-29_09h06.43.239,Colour_Asymmetry_Pilot,2022.1.3,Win32,60.0060006,62bbe60bf3d75ef465d3e404,0,22,22,70,1,fourtwo,,,,,,,,,,,,,,,,,,,,,,,,,,,,,,,,,,,,,,,,,,,,,,,,,,,,,,,,,,,,,,,,,,,,,,,,,,,,,,,,,,,,,,,,,,,,,,,,,,,,,,,,,,,,,,,,,,,,,,,,,,,,,,,,,,,,,,,,,,,,,,,,,,,,,,,,
,,,,,,5e722b4bcf526a0119aee64f,62bbf9ddfbfe27eb2ca148b2,2022-06-29_09h06.43.239,Colour_Asymmetry_Pilot,2022.1.3,Win32,60.0060006,62bbe60bf3d75ef465d3e404,0,23,23,22,1,fourtwo,,,,,,,,,,,,,,,,,,,,,,,,,,,,,,,,,,,,,,,,,,,,,,,,,,,,,,,,,,,,,,,,,,,,,,,,,,,,,,,,,,,,,,,,,,,,,,,,,,,,,,,,,,,,,,,,,,,,,,,,,,,,,,,,,,,,,,,,,,,,,,,,,,,,,,,,
,,,,,,5e722b4bcf526a0119aee64f,62bbf9ddfbfe27eb2ca148b2,2022-06-29_09h06.43.239,Colour_Asymmetry_Pilot,2022.1.3,Win32,60.0060006,62bbe60bf3d75ef465d3e404,0,24,24,61,1,threefour,,,,,,,,,,,,,,,,,,,,,,,,,,,,,,,,,,,,,,,,,,,,,,,,,,,,,,,,,,,,,,,,,,,,,,,,,,,,,,,,,,,,,,,,,,,,,,,,,,,,,,,,,,,,,,,,,,,,,,,,,,,,,,,,,,,,,,,,,,,,,,,,,,,,,,,,
,,,,,,5e722b4bcf526a0119aee64f,62bbf9ddfbfe27eb2ca148b2,2022-06-29_09h06.43.239,Colour_Asymmetry_Pilot,2022.1.3,Win32,60.0060006,62bbe60bf3d75ef465d3e404,0,25,25,153,1,onethree,,,,,,,,,,,,,,,,,,,,,,,,,,,,,,,,,,,,,,,,,,,,,,,,,,,,,,,,,,,,,,,,,,,,,,,,,,,,,,,,,,,,,,,,,,,,,,,,,,,,,,,,,,,,,,,,,,,,,,,,,,,,,,,,,,,,,,,,,,,,,,,,,,,,,,,,
,,,,,,5e722b4bcf526a0119aee64f,62bbf9ddfbfe27eb2ca148b2,2022-06-29_09h06.43.239,Colour_Asymmetry_Pilot,2022.1.3,Win32,60.0060006,62bbe60bf3d75ef465d3e404,0,26,26,79,1,fourthree,,,,,,,,,,,,,,,,,,,,,,,,,,,,,,,,,,,,,,,,,,,,,,,,,,,,,,,,,,,,,,,,,,,,,,,,,,,,,,,,,,,,,,,,,,,,,,,,,,,,,,,,,,,,,,,,,,,,,,,,,,,,,,,,,,,,,,,,,,,,,,,,,,,,,,,,
,,,,,,5e722b4bcf526a0119aee64f,62bbf9ddfbfe27eb2ca148b2,2022-06-29_09h06.43.239,Colour_Asymmetry_Pilot,2022.1.3,Win32,60.0060006,62bbe60bf3d75ef465d3e404,0,27,27,126,1,fourtwo,,,,,,,,,,,,,,,,,,,,,,,,,,,,,,,,,,,,,,,,,,,,,,,,,,,,,,,,,,,,,,,,,,,,,,,,,,,,,,,,,,,,,,,,,,,,,,,,,,,,,,,,,,,,,,,,,,,,,,,,,,,,,,,,,,,,,,,,,,,,,,,,,,,,,,,,
,,,,,,5e722b4bcf526a0119aee64f,62bbf9ddfbfe27eb2ca148b2,2022-06-29_09h06.43.239,Colour_Asymmetry_Pilot,2022.1.3,Win32,60.0060006,62bbe60bf3d75ef465d3e404,0,28,28,139,1,twofour,,,,,,,,,,,,,,,,,,,,,,,,,,,,,,,,,,,,,,,,,,,,,,,,,,,,,,,,,,,,,,,,,,,,,,,,,,,,,,,,,,,,,,,,,,,,,,,,,,,,,,,,,,,,,,,,,,,,,,,,,,,,,,,,,,,,,,,,,,,,,,,,,,,,,,,,
,,,,,,5e722b4bcf526a0119aee64f,62bbf9ddfbfe27eb2ca148b2,2022-06-29_09h06.43.239,Colour_Asymmetry_Pilot,2022.1.3,Win32,60.0060006,62bbe60bf3d75ef465d3e404,0,29,29,159,1,fourthree,,,,,,,,,,,,,,,,,,,,,,,,,,,,,,,,,,,,,,,,,,,,,,,,,,,,,,,,,,,,,,,,,,,,,,,,,,,,,,,,,,,,,,,,,,,,,,,,,,,,,,,,,,,,,,,,,,,,,,,,,,,,,,,,,,,,,,,,,,,,,,,,,,,,,,,,
,,,,,,5e722b4bcf526a0119aee64f,62bbf9ddfbfe27eb2ca148b2,2022-06-29_09h06.43.239,Colour_Asymmetry_Pilot,2022.1.3,Win32,60.0060006,62bbe60bf3d75ef465d3e404,0,30,30,16,1,onetwo,,,,,,,,,,,,,,,,,,,,,,,,,,,,,,,,,,,,,,,,,,,,,,,,,,,,,,,,,,,,,,,,,,,,,,,,,,,,,,,,,,,,,,,,,,,,,,,,,,,,,,,,,,,,,,,,,,,,,,,,,,,,,,,,,,,,,,,,,,,,,,,,,,,,,,,,
,,,,,,5e722b4bcf526a0119aee64f,62bbf9ddfbfe27eb2ca148b2,2022-06-29_09h06.43.239,Colour_Asymmetry_Pilot,2022.1.3,Win32,60.0060006,62bbe60bf3d75ef465d3e404,0,31,31,149,1,threefour,,,,,,,,,,,,,,,,,,,,,,,,,,,,,,,,,,,,,,,,,,,,,,,,,,,,,,,,,,,,,,,,,,,,,,,,,,,,,,,,,,,,,,,,,,,,,,,,,,,,,,,,,,,,,,,,,,,,,,,,,,,,,,,,,,,,,,,,,,,,,,,,,,,,,,,,
,,,,,,5e722b4bcf526a0119aee64f,62bbf9ddfbfe27eb2ca148b2,2022-06-29_09h06.43.239,Colour_Asymmetry_Pilot,2022.1.3,Win32,60.0060006,62bbe60bf3d75ef465d3e404,0,32,32,105,1,onethree,,,,,,,,,,,,,,,,,,,,,,,,,,,,,,,,,,,,,,,,,,,,,,,,,,,,,,,,,,,,,,,,,,,,,,,,,,,,,,,,,,,,,,,,,,,,,,,,,,,,,,,,,,,,,,,,,,,,,,,,,,,,,,,,,,,,,,,,,,,,,,,,,,,,,,,,
,,,,,,5e722b4bcf526a0119aee64f,62bbf9ddfbfe27eb2ca148b2,2022-06-29_09h06.43.239,Colour_Asymmetry_Pilot,2022.1.3,Win32,60.0060006,62bbe60bf3d75ef465d3e404,0,33,33,65,1,onethree,,,,,,,,,,,,,,,,,,,,,,,,,,,,,,,,,,,,,,,,,,,,,,,,,,,,,,,,,,,,,,,,,,,,,,,,,,,,,,,,,,,,,,,,,,,,,,,,,,,,,,,,,,,,,,,,,,,,,,,,,,,,,,,,,,,,,,,,,,,,,,,,,,,,,,,,
,,,,,,5e722b4bcf526a0119aee64f,62bbf9ddfbfe27eb2ca148b2,2022-06-29_09h06.43.239,Colour_Asymmetry_Pilot,2022.1.3,Win32,60.0060006,62bbe60bf3d75ef465d3e404,0,34,34,145,1,onethree,,,,,,,,,,,,,,,,,,,,,,,,,,,,,,,,,,,,,,,,,,,,,,,,,,,,,,,,,,,,,,,,,,,,,,,,,,,,,,,,,,,,,,,,,,,,,,,,,,,,,,,,,,,,,,,,,,,,,,,,,,,,,,,,,,,,,,,,,,,,,,,,,,,,,,,,
,,,,,,5e722b4bcf526a0119aee64f,62bbf9ddfbfe27eb2ca148b2,2022-06-29_09h06.43.239,Colour_Asymmetry_Pilot,2022.1.3,Win32,60.0060006,62bbe60bf3d75ef465d3e404,0,35,35,99,1,twofour,,,,,,,,,,,,,,,,,,,,,,,,,,,,,,,,,,,,,,,,,,,,,,,,,,,,,,,,,,,,,,,,,,,,,,,,,,,,,,,,,,,,,,,,,,,,,,,,,,,,,,,,,,,,,,,,,,,,,,,,,,,,,,,,,,,,,,,,,,,,,,,,,,,,,,,,
,,,,,,5e722b4bcf526a0119aee64f,62bbf9ddfbfe27eb2ca148b2,2022-06-29_09h06.43.239,Colour_Asymmetry_Pilot,2022.1.3,Win32,60.0060006,62bbe60bf3d75ef465d3e404,0,36,36,96,1,onetwo,,,,,,,,,,,,,,,,,,,,,,,,,,,,,,,,,,,,,,,,,,,,,,,,,,,,,,,,,,,,,,,,,,,,,,,,,,,,,,,,,,,,,,,,,,,,,,,,,,,,,,,,,,,,,,,,,,,,,,,,,,,,,,,,,,,,,,,,,,,,,,,,,,,,,,,,
,,,,,,5e722b4bcf526a0119aee64f,62bbf9ddfbfe27eb2ca148b2,2022-06-29_09h06.43.239,Colour_Asymmetry_Pilot,2022.1.3,Win32,60.0060006,62bbe60bf3d75ef465d3e404,0,37,37,54,1,fourtwo,,,,,,,,,,,,,,,,,,,,,,,,,,,,,,,,,,,,,,,,,,,,,,,,,,,,,,,,,,,,,,,,,,,,,,,,,,,,,,,,,,,,,,,,,,,,,,,,,,,,,,,,,,,,,,,,,,,,,,,,,,,,,,,,,,,,,,,,,,,,,,,,,,,,,,,,
,,,,,,5e722b4bcf526a0119aee64f,62bbf9ddfbfe27eb2ca148b2,2022-06-29_09h06.43.239,Colour_Asymmetry_Pilot,2022.1.3,Win32,60.0060006,62bbe60bf3d75ef465d3e404,0,38,38,85,1,threefour,,,,,,,,,,,,,,,,,,,,,,,,,,,,,,,,,,,,,,,,,,,,,,,,,,,,,,,,,,,,,,,,,,,,,,,,,,,,,,,,,,,,,,,,,,,,,,,,,,,,,,,,,,,,,,,,,,,,,,,,,,,,,,,,,,,,,,,,,,,,,,,,,,,,,,,,
,,,,,,5e722b4bcf526a0119aee64f,62bbf9ddfbfe27eb2ca148b2,2022-06-29_09h06.43.239,Colour_Asymmetry_Pilot,2022.1.3,Win32,60.0060006,62bbe60bf3d75ef465d3e404,0,39,39,28,1,threeone,,,,,,,,,,,,,,,,,,,,,,,,,,,,,,,,,,,,,,,,,,,,,,,,,,,,,,,,,,,,,,,,,,,,,,,,,,,,,,,,,,,,,,,,,,,,,,,,,,,,,,,,,,,,,,,,,,,,,,,,,,,,,,,,,,,,,,,,,,,,,,,,,,,,,,,,
,,,,,,5e722b4bcf526a0119aee64f,62bbf9ddfbfe27eb2ca148b2,2022-06-29_09h06.43.239,Colour_Asymmetry_Pilot,2022.1.3,Win32,60.0060006,62bbe60bf3d75ef465d3e404,0,40,40,88,1,onetwo,,,,,,,,,,,,,,,,,,,,,,,,,,,,,,,,,,,,,,,,,,,,,,,,,,,,,,,,,,,,,,,,,,,,,,,,,,,,,,,,,,,,,,,,,,,,,,,,,,,,,,,,,,,,,,,,,,,,,,,,,,,,,,,,,,,,,,,,,,,,,,,,,,,,,,,,
,,,,,,5e722b4bcf526a0119aee64f,62bbf9ddfbfe27eb2ca148b2,2022-06-29_09h06.43.239,Colour_Asymmetry_Pilot,2022.1.3,Win32,60.0060006,62bbe60bf3d75ef465d3e404,0,41,41,73,1,onethree,,,,,,,,,,,,,,,,,,,,,,,,,,,,,,,,,,,,,,,,,,,,,,,,,,,,,,,,,,,,,,,,,,,,,,,,,,,,,,,,,,,,,,,,,,,,,,,,,,,,,,,,,,,,,,,,,,,,,,,,,,,,,,,,,,,,,,,,,,,,,,,,,,,,,,,,
,,,,,,5e722b4bcf526a0119aee64f,62bbf9ddfbfe27eb2ca148b2,2022-06-29_09h06.43.239,Colour_Asymmetry_Pilot,2022.1.3,Win32,60.0060006,62bbe60bf3d75ef465d3e404,0,42,42,62,1,fourtwo,,,,,,,,,,,,,,,,,,,,,,,,,,,,,,,,,,,,,,,,,,,,,,,,,,,,,,,,,,,,,,,,,,,,,,,,,,,,,,,,,,,,,,,,,,,,,,,,,,,,,,,,,,,,,,,,,,,,,,,,,,,,,,,,,,,,,,,,,,,,,,,,,,,,,,,,
,,,,,,5e722b4bcf526a0119aee64f,62bbf9ddfbfe27eb2ca148b2,2022-06-29_09h06.43.239,Colour_Asymmetry_Pilot,2022.1.3,Win32,60.0060006,62bbe60bf3d75ef465d3e404,0,43,43,108,1,threeone,,,,,,,,,,,,,,,,,,,,,,,,,,,,,,,,,,,,,,,,,,,,,,,,,,,,,,,,,,,,,,,,,,,,,,,,,,,,,,,,,,,,,,,,,,,,,,,,,,,,,,,,,,,,,,,,,,,,,,,,,,,,,,,,,,,,,,,,,,,,,,,,,,,,,,,,
,,,,,,5e722b4bcf526a0119aee64f,62bbf9ddfbfe27eb2ca148b2,2022-06-29_09h06.43.239,Colour_Asymmetry_Pilot,2022.1.3,Win32,60.0060006,62bbe60bf3d75ef465d3e404,0,44,44,30,1,fourtwo,,,,,,,,,,,,,,,,,,,,,,,,,,,,,,,,,,,,,,,,,,,,,,,,,,,,,,,,,,,,,,,,,,,,,,,,,,,,,,,,,,,,,,,,,,,,,,,,,,,,,,,,,,,,,,,,,,,,,,,,,,,,,,,,,,,,,,,,,,,,,,,,,,,,,,,,
,,,,,,5e722b4bcf526a0119aee64f,62bbf9ddfbfe27eb2ca148b2,2022-06-29_09h06.43.239,Colour_Asymmetry_Pilot,2022.1.3,Win32,60.0060006,62bbe60bf3d75ef465d3e404,0,45,45,134,1,fourtwo,,,,,,,,,,,,,,,,,,,,,,,,,,,,,,,,,,,,,,,,,,,,,,,,,,,,,,,,,,,,,,,,,,,,,,,,,,,,,,,,,,,,,,,,,,,,,,,,,,,,,,,,,,,,,,,,,,,,,,,,,,,,,,,,,,,,,,,,,,,,,,,,,,,,,,,,
,,,,,,5e722b4bcf526a0119aee64f,62bbf9ddfbfe27eb2ca148b2,2022-06-29_09h06.43.239,Colour_Asymmetry_Pilot,2022.1.3,Win32,60.0060006,62bbe60bf3d75ef465d3e404,0,46,46,77,1,threefour,,,,,,,,,,,,,,,,,,,,,,,,,,,,,,,,,,,,,,,,,,,,,,,,,,,,,,,,,,,,,,,,,,,,,,,,,,,,,,,,,,,,,,,,,,,,,,,,,,,,,,,,,,,,,,,,,,,,,,,,,,,,,,,,,,,,,,,,,,,,,,,,,,,,,,,,
,,,,,,5e722b4bcf526a0119aee64f,62bbf9ddfbfe27eb2ca148b2,2022-06-29_09h06.43.239,Colour_Asymmetry_Pilot,2022.1.3,Win32,60.0060006,62bbe60bf3d75ef465d3e404,0,47,47,37,1,threefour,,,,,,,,,,,,,,,,,,,,,,,,,,,,,,,,,,,,,,,,,,,,,,,,,,,,,,,,,,,,,,,,,,,,,,,,,,,,,,,,,,,,,,,,,,,,,,,,,,,,,,,,,,,,,,,,,,,,,,,,,,,,,,,,,,,,,,,,,,,,,,,,,,,,,,,,
,,,,,,5e722b4bcf526a0119aee64f,62bbf9ddfbfe27eb2ca148b2,2022-06-29_09h06.43.239,Colour_Asymmetry_Pilot,2022.1.3,Win32,60.0060006,62bbe60bf3d75ef465d3e404,0,48,48,110,1,fourtwo,,,,,,,,,,,,,,,,,,,,,,,,,,,,,,,,,,,,,,,,,,,,,,,,,,,,,,,,,,,,,,,,,,,,,,,,,,,,,,,,,,,,,,,,,,,,,,,,,,,,,,,,,,,,,,,,,,,,,,,,,,,,,,,,,,,,,,,,,,,,,,,,,,,,,,,,
,,,,,,5e722b4bcf526a0119aee64f,62bbf9ddfbfe27eb2ca148b2,2022-06-29_09h06.43.239,Colour_Asymmetry_Pilot,2022.1.3,Win32,60.0060006,62bbe60bf3d75ef465d3e404,0,49,49,87,1,fourthree,,,,,,,,,,,,,,,,,,,,,,,,,,,,,,,,,,,,,,,,,,,,,,,,,,,,,,,,,,,,,,,,,,,,,,,,,,,,,,,,,,,,,,,,,,,,,,,,,,,,,,,,,,,,,,,,,,,,,,,,,,,,,,,,,,,,,,,,,,,,,,,,,,,,,,,,
,,,,,,5e722b4bcf526a0119aee64f,62bbf9ddfbfe27eb2ca148b2,2022-06-29_09h06.43.239,Colour_Asymmetry_Pilot,2022.1.3,Win32,60.0060006,62bbe60bf3d75ef465d3e404,0,50,50,115,1,twofour,,,,,,,,,,,,,,,,,,,,,,,,,,,,,,,,,,,,,,,,,,,,,,,,,,,,,,,,,,,,,,,,,,,,,,,,,,,,,,,,,,,,,,,,,,,,,,,,,,,,,,,,,,,,,,,,,,,,,,,,,,,,,,,,,,,,,,,,,,,,,,,,,,,,,,,,
,,,,,,5e722b4bcf526a0119aee64f,62bbf9ddfbfe27eb2ca148b2,2022-06-29_09h06.43.239,Colour_Asymmetry_Pilot,2022.1.3,Win32,60.0060006,62bbe60bf3d75ef465d3e404,0,51,51,57,1,onethree,,,,,,,,,,,,,,,,,,,,,,,,,,,,,,,,,,,,,,,,,,,,,,,,,,,,,,,,,,,,,,,,,,,,,,,,,,,,,,,,,,,,,,,,,,,,,,,,,,,,,,,,,,,,,,,,,,,,,,,,,,,,,,,,,,,,,,,,,,,,,,,,,,,,,,,,
,,,,,,5e722b4bcf526a0119aee64f,62bbf9ddfbfe27eb2ca148b2,2022-06-29_09h06.43.239,Colour_Asymmetry_Pilot,2022.1.3,Win32,60.0060006,62bbe60bf3d75ef465d3e404,0,52,52,112,1,onetwo,,,,,,,,,,,,,,,,,,,,,,,,,,,,,,,,,,,,,,,,,,,,,,,,,,,,,,,,,,,,,,,,,,,,,,,,,,,,,,,,,,,,,,,,,,,,,,,,,,,,,,,,,,,,,,,,,,,,,,,,,,,,,,,,,,,,,,,,,,,,,,,,,,,,,,,,
,,,,,,5e722b4bcf526a0119aee64f,62bbf9ddfbfe27eb2ca148b2,2022-06-29_09h06.43.239,Colour_Asymmetry_Pilot,2022.1.3,Win32,60.0060006,62bbe60bf3d75ef465d3e404,0,53,53,147,1,twofour,,,,,,,,,,,,,,,,,,,,,,,,,,,,,,,,,,,,,,,,,,,,,,,,,,,,,,,,,,,,,,,,,,,,,,,,,,,,,,,,,,,,,,,,,,,,,,,,,,,,,,,,,,,,,,,,,,,,,,,,,,,,,,,,,,,,,,,,,,,,,,,,,,,,,,,,
,,,,,,5e722b4bcf526a0119aee64f,62bbf9ddfbfe27eb2ca148b2,2022-06-29_09h06.43.239,Colour_Asymmetry_Pilot,2022.1.3,Win32,60.0060006,62bbe60bf3d75ef465d3e404,0,54,54,25,1,onethree,,,,,,,,,,,,,,,,,,,,,,,,,,,,,,,,,,,,,,,,,,,,,,,,,,,,,,,,,,,,,,,,,,,,,,,,,,,,,,,,,,,,,,,,,,,,,,,,,,,,,,,,,,,,,,,,,,,,,,,,,,,,,,,,,,,,,,,,,,,,,,,,,,,,,,,,
,,,,,,5e722b4bcf526a0119aee64f,62bbf9ddfbfe27eb2ca148b2,2022-06-29_09h06.43.239,Colour_Asymmetry_Pilot,2022.1.3,Win32,60.0060006,62bbe60bf3d75ef465d3e404,0,55,55,13,1,threefour,,,,,,,,,,,,,,,,,,,,,,,,,,,,,,,,,,,,,,,,,,,,,,,,,,,,,,,,,,,,,,,,,,,,,,,,,,,,,,,,,,,,,,,,,,,,,,,,,,,,,,,,,,,,,,,,,,,,,,,,,,,,,,,,,,,,,,,,,,,,,,,,,,,,,,,,
,,,,,,5e722b4bcf526a0119aee64f,62bbf9ddfbfe27eb2ca148b2,2022-06-29_09h06.43.239,Colour_Asymmetry_Pilot,2022.1.3,Win32,60.0060006,62bbe60bf3d75ef465d3e404,0,56,56,33,1,onethree,,,,,,,,,,,,,,,,,,,,,,,,,,,,,,,,,,,,,,,,,,,,,,,,,,,,,,,,,,,,,,,,,,,,,,,,,,,,,,,,,,,,,,,,,,,,,,,,,,,,,,,,,,,,,,,,,,,,,,,,,,,,,,,,,,,,,,,,,,,,,,,,,,,,,,,,
,,,,,,5e722b4bcf526a0119aee64f,62bbf9ddfbfe27eb2ca148b2,2022-06-29_09h06.43.239,Colour_Asymmetry_Pilot,2022.1.3,Win32,60.0060006,62bbe60bf3d75ef465d3e404,0,57,57,127,1,fourthree,,,,,,,,,,,,,,,,,,,,,,,,,,,,,,,,,,,,,,,,,,,,,,,,,,,,,,,,,,,,,,,,,,,,,,,,,,,,,,,,,,,,,,,,,,,,,,,,,,,,,,,,,,,,,,,,,,,,,,,,,,,,,,,,,,,,,,,,,,,,,,,,,,,,,,,,
,,,,,,5e722b4bcf526a0119aee64f,62bbf9ddfbfe27eb2ca148b2,2022-06-29_09h06.43.239,Colour_Asymmetry_Pilot,2022.1.3,Win32,60.0060006,62bbe60bf3d75ef465d3e404,0,58,58,15,1,fourthree,,,,,,,,,,,,,,,,,,,,,,,,,,,,,,,,,,,,,,,,,,,,,,,,,,,,,,,,,,,,,,,,,,,,,,,,,,,,,,,,,,,,,,,,,,,,,,,,,,,,,,,,,,,,,,,,,,,,,,,,,,,,,,,,,,,,,,,,,,,,,,,,,,,,,,,,
,,,,,,5e722b4bcf526a0119aee64f,62bbf9ddfbfe27eb2ca148b2,2022-06-29_09h06.43.239,Colour_Asymmetry_Pilot,2022.1.3,Win32,60.0060006,62bbe60bf3d75ef465d3e404,0,59,59,68,1,threeone,,,,,,,,,,,,,,,,,,,,,,,,,,,,,,,,,,,,,,,,,,,,,,,,,,,,,,,,,,,,,,,,,,,,,,,,,,,,,,,,,,,,,,,,,,,,,,,,,,,,,,,,,,,,,,,,,,,,,,,,,,,,,,,,,,,,,,,,,,,,,,,,,,,,,,,,
,,,,,,5e722b4bcf526a0119aee64f,62bbf9ddfbfe27eb2ca148b2,2022-06-29_09h06.43.239,Colour_Asymmetry_Pilot,2022.1.3,Win32,60.0060006,62bbe60bf3d75ef465d3e404,0,60,60,150,1,fourtwo,,,,,,,,,,,,,,,,,,,,,,,,,,,,,,,,,,,,,,,,,,,,,,,,,,,,,,,,,,,,,,,,,,,,,,,,,,,,,,,,,,,,,,,,,,,,,,,,,,,,,,,,,,,,,,,,,,,,,,,,,,,,,,,,,,,,,,,,,,,,,,,,,,,,,,,,
,,,,,,5e722b4bcf526a0119aee64f,62bbf9ddfbfe27eb2ca148b2,2022-06-29_09h06.43.239,Colour_Asymmetry_Pilot,2022.1.3,Win32,60.0060006,62bbe60bf3d75ef465d3e404,0,61,61,66,1,twoone,,,,,,,,,,,,,,,,,,,,,,,,,,,,,,,,,,,,,,,,,,,,,,,,,,,,,,,,,,,,,,,,,,,,,,,,,,,,,,,,,,,,,,,,,,,,,,,,,,,,,,,,,,,,,,,,,,,,,,,,,,,,,,,,,,,,,,,,,,,,,,,,,,,,,,,,
,,,,,,5e722b4bcf526a0119aee64f,62bbf9ddfbfe27eb2ca148b2,2022-06-29_09h06.43.239,Colour_Asymmetry_Pilot,2022.1.3,Win32,60.0060006,62bbe60bf3d75ef465d3e404,0,62,62,118,1,fourtwo,,,,,,,,,,,,,,,,,,,,,,,,,,,,,,,,,,,,,,,,,,,,,,,,,,,,,,,,,,,,,,,,,,,,,,,,,,,,,,,,,,,,,,,,,,,,,,,,,,,,,,,,,,,,,,,,,,,,,,,,,,,,,,,,,,,,,,,,,,,,,,,,,,,,,,,,
,,,,,,5e722b4bcf526a0119aee64f,62bbf9ddfbfe27eb2ca148b2,2022-06-29_09h06.43.239,Colour_Asymmetry_Pilot,2022.1.3,Win32,60.0060006,62bbe60bf3d75ef465d3e404,0,63,63,14,1,fourtwo,,,,,,,,,,,,,,,,,,,,,,,,,,,,,,,,,,,,,,,,,,,,,,,,,,,,,,,,,,,,,,,,,,,,,,,,,,,,,,,,,,,,,,,,,,,,,,,,,,,,,,,,,,,,,,,,,,,,,,,,,,,,,,,,,,,,,,,,,,,,,,,,,,,,,,,,
,,,,,,5e722b4bcf526a0119aee64f,62bbf9ddfbfe27eb2ca148b2,2022-06-29_09h06.43.239,Colour_Asymmetry_Pilot,2022.1.3,Win32,60.0060006,62bbe60bf3d75ef465d3e404,0,64,64,41,1,onethree,,,,,,,,,,,,,,,,,,,,,,,,,,,,,,,,,,,,,,,,,,,,,,,,,,,,,,,,,,,,,,,,,,,,,,,,,,,,,,,,,,,,,,,,,,,,,,,,,,,,,,,,,,,,,,,,,,,,,,,,,,,,,,,,,,,,,,,,,,,,,,,,,,,,,,,,
,,,,,,5e722b4bcf526a0119aee64f,62bbf9ddfbfe27eb2ca148b2,2022-06-29_09h06.43.239,Colour_Asymmetry_Pilot,2022.1.3,Win32,60.0060006,62bbe60bf3d75ef465d3e404,0,65,65,58,1,twoone,,,,,,,,,,,,,,,,,,,,,,,,,,,,,,,,,,,,,,,,,,,,,,,,,,,,,,,,,,,,,,,,,,,,,,,,,,,,,,,,,,,,,,,,,,,,,,,,,,,,,,,,,,,,,,,,,,,,,,,,,,,,,,,,,,,,,,,,,,,,,,,,,,,,,,,,
,,,,,,5e722b4bcf526a0119aee64f,62bbf9ddfbfe27eb2ca148b2,2022-06-29_09h06.43.239,Colour_Asymmetry_Pilot,2022.1.3,Win32,60.0060006,62bbe60bf3d75ef465d3e404,0,66,66,155,1,twofour,,,,,,,,,,,,,,,,,,,,,,,,,,,,,,,,,,,,,,,,,,,,,,,,,,,,,,,,,,,,,,,,,,,,,,,,,,,,,,,,,,,,,,,,,,,,,,,,,,,,,,,,,,,,,,,,,,,,,,,,,,,,,,,,,,,,,,,,,,,,,,,,,,,,,,,,
,,,,,,5e722b4bcf526a0119aee64f,62bbf9ddfbfe27eb2ca148b2,2022-06-29_09h06.43.239,Colour_Asymmetry_Pilot,2022.1.3,Win32,60.0060006,62bbe60bf3d75ef465d3e404,0,67,67,17,1,onethree,,,,,,,,,,,,,,,,,,,,,,,,,,,,,,,,,,,,,,,,,,,,,,,,,,,,,,,,,,,,,,,,,,,,,,,,,,,,,,,,,,,,,,,,,,,,,,,,,,,,,,,,,,,,,,,,,,,,,,,,,,,,,,,,,,,,,,,,,,,,,,,,,,,,,,,,
,,,,,,5e722b4bcf526a0119aee64f,62bbf9ddfbfe27eb2ca148b2,2022-06-29_09h06.43.239,Colour_Asymmetry_Pilot,2022.1.3,Win32,60.0060006,62bbe60bf3d75ef465d3e404,0,68,68,42,1,twoone,,,,,,,,,,,,,,,,,,,,,,,,,,,,,,,,,,,,,,,,,,,,,,,,,,,,,,,,,,,,,,,,,,,,,,,,,,,,,,,,,,,,,,,,,,,,,,,,,,,,,,,,,,,,,,,,,,,,,,,,,,,,,,,,,,,,,,,,,,,,,,,,,,,,,,,,
,,,,,,5e722b4bcf526a0119aee64f,62bbf9ddfbfe27eb2ca148b2,2022-06-29_09h06.43.239,Colour_Asymmetry_Pilot,2022.1.3,Win32,60.0060006,62bbe60bf3d75ef465d3e404,0,69,69,157,1,threefour,,,,,,,,,,,,,,,,,,,,,,,,,,,,,,,,,,,,,,,,,,,,,,,,,,,,,,,,,,,,,,,,,,,,,,,,,,,,,,,,,,,,,,,,,,,,,,,,,,,,,,,,,,,,,,,,,,,,,,,,,,,,,,,,,,,,,,,,,,,,,,,,,,,,,,,,
,,,,,,5e722b4bcf526a0119aee64f,62bbf9ddfbfe27eb2ca148b2,2022-06-29_09h06.43.239,Colour_Asymmetry_Pilot,2022.1.3,Win32,60.0060006,62bbe60bf3d75ef465d3e404,0,70,70,130,1,twoone,,,,,,,,,,,,,,,,,,,,,,,,,,,,,,,,,,,,,,,,,,,,,,,,,,,,,,,,,,,,,,,,,,,,,,,,,,,,,,,,,,,,,,,,,,,,,,,,,,,,,,,,,,,,,,,,,,,,,,,,,,,,,,,,,,,,,,,,,,,,,,,,,,,,,,,,
,,,,,,5e722b4bcf526a0119aee64f,62bbf9ddfbfe27eb2ca148b2,2022-06-29_09h06.43.239,Colour_Asymmetry_Pilot,2022.1.3,Win32,60.0060006,62bbe60bf3d75ef465d3e404,0,71,71,109,1,threefour,,,,,,,,,,,,,,,,,,,,,,,,,,,,,,,,,,,,,,,,,,,,,,,,,,,,,,,,,,,,,,,,,,,,,,,,,,,,,,,,,,,,,,,,,,,,,,,,,,,,,,,,,,,,,,,,,,,,,,,,,,,,,,,,,,,,,,,,,,,,,,,,,,,,,,,,
,,,,,,5e722b4bcf526a0119aee64f,62bbf9ddfbfe27eb2ca148b2,2022-06-29_09h06.43.239,Colour_Asymmetry_Pilot,2022.1.3,Win32,60.0060006,62bbe60bf3d75ef465d3e404,0,72,72,114,1,twoone,,,,,,,,,,,,,,,,,,,,,,,,,,,,,,,,,,,,,,,,,,,,,,,,,,,,,,,,,,,,,,,,,,,,,,,,,,,,,,,,,,,,,,,,,,,,,,,,,,,,,,,,,,,,,,,,,,,,,,,,,,,,,,,,,,,,,,,,,,,,,,,,,,,,,,,,
,,,,,,5e722b4bcf526a0119aee64f,62bbf9ddfbfe27eb2ca148b2,2022-06-29_09h06.43.239,Colour_Asymmetry_Pilot,2022.1.3,Win32,60.0060006,62bbe60bf3d75ef465d3e404,0,73,73,75,1,twofour,,,,,,,,,,,,,,,,,,,,,,,,,,,,,,,,,,,,,,,,,,,,,,,,,,,,,,,,,,,,,,,,,,,,,,,,,,,,,,,,,,,,,,,,,,,,,,,,,,,,,,,,,,,,,,,,,,,,,,,,,,,,,,,,,,,,,,,,,,,,,,,,,,,,,,,,
,,,,,,5e722b4bcf526a0119aee64f,62bbf9ddfbfe27eb2ca148b2,2022-06-29_09h06.43.239,Colour_Asymmetry_Pilot,2022.1.3,Win32,60.0060006,62bbe60bf3d75ef465d3e404,0,74,74,94,1,fourtwo,,,,,,,,,,,,,,,,,,,,,,,,,,,,,,,,,,,,,,,,,,,,,,,,,,,,,,,,,,,,,,,,,,,,,,,,,,,,,,,,,,,,,,,,,,,,,,,,,,,,,,,,,,,,,,,,,,,,,,,,,,,,,,,,,,,,,,,,,,,,,,,,,,,,,,,,
,,,,,,5e722b4bcf526a0119aee64f,62bbf9ddfbfe27eb2ca148b2,2022-06-29_09h06.43.239,Colour_Asymmetry_Pilot,2022.1.3,Win32,60.0060006,62bbe60bf3d75ef465d3e404,0,75,75,156,1,threeone,,,,,,,,,,,,,,,,,,,,,,,,,,,,,,,,,,,,,,,,,,,,,,,,,,,,,,,,,,,,,,,,,,,,,,,,,,,,,,,,,,,,,,,,,,,,,,,,,,,,,,,,,,,,,,,,,,,,,,,,,,,,,,,,,,,,,,,,,,,,,,,,,,,,,,,,
,,,,,,5e722b4bcf526a0119aee64f,62bbf9ddfbfe27eb2ca148b2,2022-06-29_09h06.43.239,Colour_Asymmetry_Pilot,2022.1.3,Win32,60.0060006,62bbe60bf3d75ef465d3e404,0,76,76,24,1,onetwo,,,,,,,,,,,,,,,,,,,,,,,,,,,,,,,,,,,,,,,,,,,,,,,,,,,,,,,,,,,,,,,,,,,,,,,,,,,,,,,,,,,,,,,,,,,,,,,,,,,,,,,,,,,,,,,,,,,,,,,,,,,,,,,,,,,,,,,,,,,,,,,,,,,,,,,,
,,,,,,5e722b4bcf526a0119aee64f,62bbf9ddfbfe27eb2ca148b2,2022-06-29_09h06.43.239,Colour_Asymmetry_Pilot,2022.1.3,Win32,60.0060006,62bbe60bf3d75ef465d3e404,0,77,77,52,1,threeone,,,,,,,,,,,,,,,,,,,,,,,,,,,,,,,,,,,,,,,,,,,,,,,,,,,,,,,,,,,,,,,,,,,,,,,,,,,,,,,,,,,,,,,,,,,,,,,,,,,,,,,,,,,,,,,,,,,,,,,,,,,,,,,,,,,,,,,,,,,,,,,,,,,,,,,,
,,,,,,5e722b4bcf526a0119aee64f,62bbf9ddfbfe27eb2ca148b2,2022-06-29_09h06.43.239,Colour_Asymmetry_Pilot,2022.1.3,Win32,60.0060006,62bbe60bf3d75ef465d3e404,0,78,78,53,1,threefour,,,,,,,,,,,,,,,,,,,,,,,,,,,,,,,,,,,,,,,,,,,,,,,,,,,,,,,,,,,,,,,,,,,,,,,,,,,,,,,,,,,,,,,,,,,,,,,,,,,,,,,,,,,,,,,,,,,,,,,,,,,,,,,,,,,,,,,,,,,,,,,,,,,,,,,,
,,,,,,5e722b4bcf526a0119aee64f,62bbf9ddfbfe27eb2ca148b2,2022-06-29_09h06.43.239,Colour_Asymmetry_Pilot,2022.1.3,Win32,60.0060006,62bbe60bf3d75ef465d3e404,0,79,79,12,1,threeone,,,,,,,,,,,,,,,,,,,,,,,,,,,,,,,,,,,,,,,,,,,,,,,,,,,,,,,,,,,,,,,,,,,,,,,,,,,,,,,,,,,,,,,,,,,,,,,,,,,,,,,,,,,,,,,,,,,,,,,,,,,,,,,,,,,,,,,,,,,,,,,,,,,,,,,,
,,,,,,5e722b4bcf526a0119aee64f,62bbf9ddfbfe27eb2ca148b2,2022-06-29_09h06.43.239,Colour_Asymmetry_Pilot,2022.1.3,Win32,60.0060006,62bbe60bf3d75ef465d3e404,0,80,80,7,1,fourthree,,,,,,,,,,,,,,,,,,,,,,,,,,,,,,,,,,,,,,,,,,,,,,,,,,,,,,,,,,,,,,,,,,,,,,,,,,,,,,,,,,,,,,,,,,,,,,,,,,,,,,,,,,,,,,,,,,,,,,,,,,,,,,,,,,,,,,,,,,,,,,,,,,,,,,,,
,,,,,,5e722b4bcf526a0119aee64f,62bbf9ddfbfe27eb2ca148b2,2022-06-29_09h06.43.239,Colour_Asymmetry_Pilot,2022.1.3,Win32,60.0060006,62bbe60bf3d75ef465d3e404,0,81,81,36,1,threeone,,,,,,,,,,,,,,,,,,,,,,,,,,,,,,,,,,,,,,,,,,,,,,,,,,,,,,,,,,,,,,,,,,,,,,,,,,,,,,,,,,,,,,,,,,,,,,,,,,,,,,,,,,,,,,,,,,,,,,,,,,,,,,,,,,,,,,,,,,,,,,,,,,,,,,,,
,,,,,,5e722b4bcf526a0119aee64f,62bbf9ddfbfe27eb2ca148b2,2022-06-29_09h06.43.239,Colour_Asymmetry_Pilot,2022.1.3,Win32,60.0060006,62bbe60bf3d75ef465d3e404,0,82,82,111,1,fourthree,,,,,,,,,,,,,,,,,,,,,,,,,,,,,,,,,,,,,,,,,,,,,,,,,,,,,,,,,,,,,,,,,,,,,,,,,,,,,,,,,,,,,,,,,,,,,,,,,,,,,,,,,,,,,,,,,,,,,,,,,,,,,,,,,,,,,,,,,,,,,,,,,,,,,,,,
,,,,,,5e722b4bcf526a0119aee64f,62bbf9ddfbfe27eb2ca148b2,2022-06-29_09h06.43.239,Colour_Asymmetry_Pilot,2022.1.3,Win32,60.0060006,62bbe60bf3d75ef465d3e404,0,83,83,78,1,fourtwo,,,,,,,,,,,,,,,,,,,,,,,,,,,,,,,,,,,,,,,,,,,,,,,,,,,,,,,,,,,,,,,,,,,,,,,,,,,,,,,,,,,,,,,,,,,,,,,,,,,,,,,,,,,,,,,,,,,,,,,,,,,,,,,,,,,,,,,,,,,,,,,,,,,,,,,,
,,,,,,5e722b4bcf526a0119aee64f,62bbf9ddfbfe27eb2ca148b2,2022-06-29_09h06.43.239,Colour_Asymmetry_Pilot,2022.1.3,Win32,60.0060006,62bbe60bf3d75ef465d3e404,0,84,84,123,1,twofour,,,,,,,,,,,,,,,,,,,,,,,,,,,,,,,,,,,,,,,,,,,,,,,,,,,,,,,,,,,,,,,,,,,,,,,,,,,,,,,,,,,,,,,,,,,,,,,,,,,,,,,,,,,,,,,,,,,,,,,,,,,,,,,,,,,,,,,,,,,,,,,,,,,,,,,,
,,,,,,5e722b4bcf526a0119aee64f,62bbf9ddfbfe27eb2ca148b2,2022-06-29_09h06.43.239,Colour_Asymmetry_Pilot,2022.1.3,Win32,60.0060006,62bbe60bf3d75ef465d3e404,0,85,85,98,1,twoone,,,,,,,,,,,,,,,,,,,,,,,,,,,,,,,,,,,,,,,,,,,,,,,,,,,,,,,,,,,,,,,,,,,,,,,,,,,,,,,,,,,,,,,,,,,,,,,,,,,,,,,,,,,,,,,,,,,,,,,,,,,,,,,,,,,,,,,,,,,,,,,,,,,,,,,,
,,,,,,5e722b4bcf526a0119aee64f,62bbf9ddfbfe27eb2ca148b2,2022-06-29_09h06.43.239,Colour_Asymmetry_Pilot,2022.1.3,Win32,60.0060006,62bbe60bf3d75ef465d3e404,0,86,86,38,1,fourtwo,,,,,,,,,,,,,,,,,,,,,,,,,,,,,,,,,,,,,,,,,,,,,,,,,,,,,,,,,,,,,,,,,,,,,,,,,,,,,,,,,,,,,,,,,,,,,,,,,,,,,,,,,,,,,,,,,,,,,,,,,,,,,,,,,,,,,,,,,,,,,,,,,,,,,,,,
,,,,,,5e722b4bcf526a0119aee64f,62bbf9ddfbfe27eb2ca148b2,2022-06-29_09h06.43.239,Colour_Asymmetry_Pilot,2022.1.3,Win32,60.0060006,62bbe60bf3d75ef465d3e404,0,87,87,45,1,threefour,,,,,,,,,,,,,,,,,,,,,,,,,,,,,,,,,,,,,,,,,,,,,,,,,,,,,,,,,,,,,,,,,,,,,,,,,,,,,,,,,,,,,,,,,,,,,,,,,,,,,,,,,,,,,,,,,,,,,,,,,,,,,,,,,,,,,,,,,,,,,,,,,,,,,,,,
,,,,,,5e722b4bcf526a0119aee64f,62bbf9ddfbfe27eb2ca148b2,2022-06-29_09h06.43.239,Colour_Asymmetry_Pilot,2022.1.3,Win32,60.0060006,62bbe60bf3d75ef465d3e404,0,88,88,116,1,threeone,,,,,,,,,,,,,,,,,,,,,,,,,,,,,,,,,,,,,,,,,,,,,,,,,,,,,,,,,,,,,,,,,,,,,,,,,,,,,,,,,,,,,,,,,,,,,,,,,,,,,,,,,,,,,,,,,,,,,,,,,,,,,,,,,,,,,,,,,,,,,,,,,,,,,,,,
,,,,,,5e722b4bcf526a0119aee64f,62bbf9ddfbfe27eb2ca148b2,2022-06-29_09h06.43.239,Colour_Asymmetry_Pilot,2022.1.3,Win32,60.0060006,62bbe60bf3d75ef465d3e404,0,89,89,1,1,onethree,,,,,,,,,,,,,,,,,,,,,,,,,,,,,,,,,,,,,,,,,,,,,,,,,,,,,,,,,,,,,,,,,,,,,,,,,,,,,,,,,,,,,,,,,,,,,,,,,,,,,,,,,,,,,,,,,,,,,,,,,,,,,,,,,,,,,,,,,,,,,,,,,,,,,,,,
,,,,,,5e722b4bcf526a0119aee64f,62bbf9ddfbfe27eb2ca148b2,2022-06-29_09h06.43.239,Colour_Asymmetry_Pilot,2022.1.3,Win32,60.0060006,62bbe60bf3d75ef465d3e404,0,90,90,125,1,threefour,,,,,,,,,,,,,,,,,,,,,,,,,,,,,,,,,,,,,,,,,,,,,,,,,,,,,,,,,,,,,,,,,,,,,,,,,,,,,,,,,,,,,,,,,,,,,,,,,,,,,,,,,,,,,,,,,,,,,,,,,,,,,,,,,,,,,,,,,,,,,,,,,,,,,,,,
,,,,,,5e722b4bcf526a0119aee64f,62bbf9ddfbfe27eb2ca148b2,2022-06-29_09h06.43.239,Colour_Asymmetry_Pilot,2022.1.3,Win32,60.0060006,62bbe60bf3d75ef465d3e404,0,91,91,121,1,onethree,,,,,,,,,,,,,,,,,,,,,,,,,,,,,,,,,,,,,,,,,,,,,,,,,,,,,,,,,,,,,,,,,,,,,,,,,,,,,,,,,,,,,,,,,,,,,,,,,,,,,,,,,,,,,,,,,,,,,,,,,,,,,,,,,,,,,,,,,,,,,,,,,,,,,,,,
,,,,,,5e722b4bcf526a0119aee64f,62bbf9ddfbfe27eb2ca148b2,2022-06-29_09h06.43.239,Colour_Asymmetry_Pilot,2022.1.3,Win32,60.0060006,62bbe60bf3d75ef465d3e404,0,92,92,137,1,onethree,,,,,,,,,,,,,,,,,,,,,,,,,,,,,,,,,,,,,,,,,,,,,,,,,,,,,,,,,,,,,,,,,,,,,,,,,,,,,,,,,,,,,,,,,,,,,,,,,,,,,,,,,,,,,,,,,,,,,,,,,,,,,,,,,,,,,,,,,,,,,,,,,,,,,,,,
,,,,,,5e722b4bcf526a0119aee64f,62bbf9ddfbfe27eb2ca148b2,2022-06-29_09h06.43.239,Colour_Asymmetry_Pilot,2022.1.3,Win32,60.0060006,62bbe60bf3d75ef465d3e404,0,93,93,47,1,fourthree,,,,,,,,,,,,,,,,,,,,,,,,,,,,,,,,,,,,,,,,,,,,,,,,,,,,,,,,,,,,,,,,,,,,,,,,,,,,,,,,,,,,,,,,,,,,,,,,,,,,,,,,,,,,,,,,,,,,,,,,,,,,,,,,,,,,,,,,,,,,,,,,,,,,,,,,
,,,,,,5e722b4bcf526a0119aee64f,62bbf9ddfbfe27eb2ca148b2,2022-06-29_09h06.43.239,Colour_Asymmetry_Pilot,2022.1.3,Win32,60.0060006,62bbe60bf3d75ef465d3e404,0,94,94,76,1,threeone,,,,,,,,,,,,,,,,,,,,,,,,,,,,,,,,,,,,,,,,,,,,,,,,,,,,,,,,,,,,,,,,,,,,,,,,,,,,,,,,,,,,,,,,,,,,,,,,,,,,,,,,,,,,,,,,,,,,,,,,,,,,,,,,,,,,,,,,,,,,,,,,,,,,,,,,
,,,,,,5e722b4bcf526a0119aee64f,62bbf9ddfbfe27eb2ca148b2,2022-06-29_09h06.43.239,Colour_Asymmetry_Pilot,2022.1.3,Win32,60.0060006,62bbe60bf3d75ef465d3e404,0,95,95,21,1,threefour,,,,,,,,,,,,,,,,,,,,,,,,,,,,,,,,,,,,,,,,,,,,,,,,,,,,,,,,,,,,,,,,,,,,,,,,,,,,,,,,,,,,,,,,,,,,,,,,,,,,,,,,,,,,,,,,,,,,,,,,,,,,,,,,,,,,,,,,,,,,,,,,,,,,,,,,
,,,,,,5e722b4bcf526a0119aee64f,62bbf9ddfbfe27eb2ca148b2,2022-06-29_09h06.43.239,Colour_Asymmetry_Pilot,2022.1.3,Win32,60.0060006,62bbe60bf3d75ef465d3e404,0,96,96,97,1,onethree,,,,,,,,,,,,,,,,,,,,,,,,,,,,,,,,,,,,,,,,,,,,,,,,,,,,,,,,,,,,,,,,,,,,,,,,,,,,,,,,,,,,,,,,,,,,,,,,,,,,,,,,,,,,,,,,,,,,,,,,,,,,,,,,,,,,,,,,,,,,,,,,,,,,,,,,
,,,,,,5e722b4bcf526a0119aee64f,62bbf9ddfbfe27eb2ca148b2,2022-06-29_09h06.43.239,Colour_Asymmetry_Pilot,2022.1.3,Win32,60.0060006,62bbe60bf3d75ef465d3e404,0,97,97,2,1,twoone,,,,,,,,,,,,,,,,,,,,,,,,,,,,,,,,,,,,,,,,,,,,,,,,,,,,,,,,,,,,,,,,,,,,,,,,,,,,,,,,,,,,,,,,,,,,,,,,,,,,,,,,,,,,,,,,,,,,,,,,,,,,,,,,,,,,,,,,,,,,,,,,,,,,,,,,
,,,,,,5e722b4bcf526a0119aee64f,62bbf9ddfbfe27eb2ca148b2,2022-06-29_09h06.43.239,Colour_Asymmetry_Pilot,2022.1.3,Win32,60.0060006,62bbe60bf3d75ef465d3e404,0,98,98,46,1,fourtwo,,,,,,,,,,,,,,,,,,,,,,,,,,,,,,,,,,,,,,,,,,,,,,,,,,,,,,,,,,,,,,,,,,,,,,,,,,,,,,,,,,,,,,,,,,,,,,,,,,,,,,,,,,,,,,,,,,,,,,,,,,,,,,,,,,,,,,,,,,,,,,,,,,,,,,,,
,,,,,,5e722b4bcf526a0119aee64f,62bbf9ddfbfe27eb2ca148b2,2022-06-29_09h06.43.239,Colour_Asymmetry_Pilot,2022.1.3,Win32,60.0060006,62bbe60bf3d75ef465d3e404,0,99,99,140,1,threeone,,,,,,,,,,,,,,,,,,,,,,,,,,,,,,,,,,,,,,,,,,,,,,,,,,,,,,,,,,,,,,,,,,,,,,,,,,,,,,,,,,,,,,,,,,,,,,,,,,,,,,,,,,,,,,,,,,,,,,,,,,,,,,,,,,,,,,,,,,,,,,,,,,,,,,,,
,,,,,,5e722b4bcf526a0119aee64f,62bbf9ddfbfe27eb2ca148b2,2022-06-29_09h06.43.239,Colour_Asymmetry_Pilot,2022.1.3,Win32,60.0060006,62bbe60bf3d75ef465d3e404,0,100,100,69,1,threefour,,,,,,,,,,,,,,,,,,,,,,,,,,,,,,,,,,,,,,,,,,,,,,,,,,,,,,,,,,,,,,,,,,,,,,,,,,,,,,,,,,,,,,,,,,,,,,,,,,,,,,,,,,,,,,,,,,,,,,,,,,,,,,,,,,,,,,,,,,,,,,,,,,,,,,,,
,,,,,,5e722b4bcf526a0119aee64f,62bbf9ddfbfe27eb2ca148b2,2022-06-29_09h06.43.239,Colour_Asymmetry_Pilot,2022.1.3,Win32,60.0060006,62bbe60bf3d75ef465d3e404,0,101,101,133,1,threefour,,,,,,,,,,,,,,,,,,,,,,,,,,,,,,,,,,,,,,,,,,,,,,,,,,,,,,,,,,,,,,,,,,,,,,,,,,,,,,,,,,,,,,,,,,,,,,,,,,,,,,,,,,,,,,,,,,,,,,,,,,,,,,,,,,,,,,,,,,,,,,,,,,,,,,,,
,,,,,,5e722b4bcf526a0119aee64f,62bbf9ddfbfe27eb2ca148b2,2022-06-29_09h06.43.239,Colour_Asymmetry_Pilot,2022.1.3,Win32,60.0060006,62bbe60bf3d75ef465d3e404,0,102,102,91,1,twofour,,,,,,,,,,,,,,,,,,,,,,,,,,,,,,,,,,,,,,,,,,,,,,,,,,,,,,,,,,,,,,,,,,,,,,,,,,,,,,,,,,,,,,,,,,,,,,,,,,,,,,,,,,,,,,,,,,,,,,,,,,,,,,,,,,,,,,,,,,,,,,,,,,,,,,,,
,,,,,,5e722b4bcf526a0119aee64f,62bbf9ddfbfe27eb2ca148b2,2022-06-29_09h06.43.239,Colour_Asymmetry_Pilot,2022.1.3,Win32,60.0060006,62bbe60bf3d75ef465d3e404,0,103,103,154,1,twoone,,,,,,,,,,,,,,,,,,,,,,,,,,,,,,,,,,,,,,,,,,,,,,,,,,,,,,,,,,,,,,,,,,,,,,,,,,,,,,,,,,,,,,,,,,,,,,,,,,,,,,,,,,,,,,,,,,,,,,,,,,,,,,,,,,,,,,,,,,,,,,,,,,,,,,,,
,,,,,,5e722b4bcf526a0119aee64f,62bbf9ddfbfe27eb2ca148b2,2022-06-29_09h06.43.239,Colour_Asymmetry_Pilot,2022.1.3,Win32,60.0060006,62bbe60bf3d75ef465d3e404,0,104,104,49,1,onethree,,,,,,,,,,,,,,,,,,,,,,,,,,,,,,,,,,,,,,,,,,,,,,,,,,,,,,,,,,,,,,,,,,,,,,,,,,,,,,,,,,,,,,,,,,,,,,,,,,,,,,,,,,,,,,,,,,,,,,,,,,,,,,,,,,,,,,,,,,,,,,,,,,,,,,,,
,,,,,,5e722b4bcf526a0119aee64f,62bbf9ddfbfe27eb2ca148b2,2022-06-29_09h06.43.239,Colour_Asymmetry_Pilot,2022.1.3,Win32,60.0060006,62bbe60bf3d75ef465d3e404,0,105,105,160,1,onetwo,,,,,,,,,,,,,,,,,,,,,,,,,,,,,,,,,,,,,,,,,,,,,,,,,,,,,,,,,,,,,,,,,,,,,,,,,,,,,,,,,,,,,,,,,,,,,,,,,,,,,,,,,,,,,,,,,,,,,,,,,,,,,,,,,,,,,,,,,,,,,,,,,,,,,,,,
,,,,,,5e722b4bcf526a0119aee64f,62bbf9ddfbfe27eb2ca148b2,2022-06-29_09h06.43.239,Colour_Asymmetry_Pilot,2022.1.3,Win32,60.0060006,62bbe60bf3d75ef465d3e404,0,106,106,51,1,twofour,,,,,,,,,,,,,,,,,,,,,,,,,,,,,,,,,,,,,,,,,,,,,,,,,,,,,,,,,,,,,,,,,,,,,,,,,,,,,,,,,,,,,,,,,,,,,,,,,,,,,,,,,,,,,,,,,,,,,,,,,,,,,,,,,,,,,,,,,,,,,,,,,,,,,,,,
,,,,,,5e722b4bcf526a0119aee64f,62bbf9ddfbfe27eb2ca148b2,2022-06-29_09h06.43.239,Colour_Asymmetry_Pilot,2022.1.3,Win32,60.0060006,62bbe60bf3d75ef465d3e404,0,107,107,23,1,fourthree,,,,,,,,,,,,,,,,,,,,,,,,,,,,,,,,,,,,,,,,,,,,,,,,,,,,,,,,,,,,,,,,,,,,,,,,,,,,,,,,,,,,,,,,,,,,,,,,,,,,,,,,,,,,,,,,,,,,,,,,,,,,,,,,,,,,,,,,,,,,,,,,,,,,,,,,
,,,,,,5e722b4bcf526a0119aee64f,62bbf9ddfbfe27eb2ca148b2,2022-06-29_09h06.43.239,Colour_Asymmetry_Pilot,2022.1.3,Win32,60.0060006,62bbe60bf3d75ef465d3e404,0,108,108,83,1,twofour,,,,,,,,,,,,,,,,,,,,,,,,,,,,,,,,,,,,,,,,,,,,,,,,,,,,,,,,,,,,,,,,,,,,,,,,,,,,,,,,,,,,,,,,,,,,,,,,,,,,,,,,,,,,,,,,,,,,,,,,,,,,,,,,,,,,,,,,,,,,,,,,,,,,,,,,
,,,,,,5e722b4bcf526a0119aee64f,62bbf9ddfbfe27eb2ca148b2,2022-06-29_09h06.43.239,Colour_Asymmetry_Pilot,2022.1.3,Win32,60.0060006,62bbe60bf3d75ef465d3e404,0,109,109,81,1,onethree,,,,,,,,,,,,,,,,,,,,,,,,,,,,,,,,,,,,,,,,,,,,,,,,,,,,,,,,,,,,,,,,,,,,,,,,,,,,,,,,,,,,,,,,,,,,,,,,,,,,,,,,,,,,,,,,,,,,,,,,,,,,,,,,,,,,,,,,,,,,,,,,,,,,,,,,
,,,,,,5e722b4bcf526a0119aee64f,62bbf9ddfbfe27eb2ca148b2,2022-06-29_09h06.43.239,Colour_Asymmetry_Pilot,2022.1.3,Win32,60.0060006,62bbe60bf3d75ef465d3e404,0,110,110,35,1,twofour,,,,,,,,,,,,,,,,,,,,,,,,,,,,,,,,,,,,,,,,,,,,,,,,,,,,,,,,,,,,,,,,,,,,,,,,,,,,,,,,,,,,,,,,,,,,,,,,,,,,,,,,,,,,,,,,,,,,,,,,,,,,,,,,,,,,,,,,,,,,,,,,,,,,,,,,
,,,,,,5e722b4bcf526a0119aee64f,62bbf9ddfbfe27eb2ca148b2,2022-06-29_09h06.43.239,Colour_Asymmetry_Pilot,2022.1.3,Win32,60.0060006,62bbe60bf3d75ef465d3e404,0,111,111,135,1,fourthree,,,,,,,,,,,,,,,,,,,,,,,,,,,,,,,,,,,,,,,,,,,,,,,,,,,,,,,,,,,,,,,,,,,,,,,,,,,,,,,,,,,,,,,,,,,,,,,,,,,,,,,,,,,,,,,,,,,,,,,,,,,,,,,,,,,,,,,,,,,,,,,,,,,,,,,,
,,,,,,5e722b4bcf526a0119aee64f,62bbf9ddfbfe27eb2ca148b2,2022-06-29_09h06.43.239,Colour_Asymmetry_Pilot,2022.1.3,Win32,60.0060006,62bbe60bf3d75ef465d3e404,0,112,112,63,1,fourthree,,,,,,,,,,,,,,,,,,,,,,,,,,,,,,,,,,,,,,,,,,,,,,,,,,,,,,,,,,,,,,,,,,,,,,,,,,,,,,,,,,,,,,,,,,,,,,,,,,,,,,,,,,,,,,,,,,,,,,,,,,,,,,,,,,,,,,,,,,,,,,,,,,,,,,,,
,,,,,,5e722b4bcf526a0119aee64f,62bbf9ddfbfe27eb2ca148b2,2022-06-29_09h06.43.239,Colour_Asymmetry_Pilot,2022.1.3,Win32,60.0060006,62bbe60bf3d75ef465d3e404,0,113,113,120,1,onetwo,,,,,,,,,,,,,,,,,,,,,,,,,,,,,,,,,,,,,,,,,,,,,,,,,,,,,,,,,,,,,,,,,,,,,,,,,,,,,,,,,,,,,,,,,,,,,,,,,,,,,,,,,,,,,,,,,,,,,,,,,,,,,,,,,,,,,,,,,,,,,,,,,,,,,,,,
,,,,,,5e722b4bcf526a0119aee64f,62bbf9ddfbfe27eb2ca148b2,2022-06-29_09h06.43.239,Colour_Asymmetry_Pilot,2022.1.3,Win32,60.0060006,62bbe60bf3d75ef465d3e404,0,114,114,104,1,onetwo,,,,,,,,,,,,,,,,,,,,,,,,,,,,,,,,,,,,,,,,,,,,,,,,,,,,,,,,,,,,,,,,,,,,,,,,,,,,,,,,,,,,,,,,,,,,,,,,,,,,,,,,,,,,,,,,,,,,,,,,,,,,,,,,,,,,,,,,,,,,,,,,,,,,,,,,
,,,,,,5e722b4bcf526a0119aee64f,62bbf9ddfbfe27eb2ca148b2,2022-06-29_09h06.43.239,Colour_Asymmetry_Pilot,2022.1.3,Win32,60.0060006,62bbe60bf3d75ef465d3e404,0,115,115,141,1,threefour,,,,,,,,,,,,,,,,,,,,,,,,,,,,,,,,,,,,,,,,,,,,,,,,,,,,,,,,,,,,,,,,,,,,,,,,,,,,,,,,,,,,,,,,,,,,,,,,,,,,,,,,,,,,,,,,,,,,,,,,,,,,,,,,,,,,,,,,,,,,,,,,,,,,,,,,
,,,,,,5e722b4bcf526a0119aee64f,62bbf9ddfbfe27eb2ca148b2,2022-06-29_09h06.43.239,Colour_Asymmetry_Pilot,2022.1.3,Win32,60.0060006,62bbe60bf3d75ef465d3e404,0,116,116,92,1,threeone,,,,,,,,,,,,,,,,,,,,,,,,,,,,,,,,,,,,,,,,,,,,,,,,,,,,,,,,,,,,,,,,,,,,,,,,,,,,,,,,,,,,,,,,,,,,,,,,,,,,,,,,,,,,,,,,,,,,,,,,,,,,,,,,,,,,,,,,,,,,,,,,,,,,,,,,
,,,,,,5e722b4bcf526a0119aee64f,62bbf9ddfbfe27eb2ca148b2,2022-06-29_09h06.43.239,Colour_Asymmetry_Pilot,2022.1.3,Win32,60.0060006,62bbe60bf3d75ef465d3e404,0,117,117,119,1,fourthree,,,,,,,,,,,,,,,,,,,,,,,,,,,,,,,,,,,,,,,,,,,,,,,,,,,,,,,,,,,,,,,,,,,,,,,,,,,,,,,,,,,,,,,,,,,,,,,,,,,,,,,,,,,,,,,,,,,,,,,,,,,,,,,,,,,,,,,,,,,,,,,,,,,,,,,,
,,,,,,5e722b4bcf526a0119aee64f,62bbf9ddfbfe27eb2ca148b2,2022-06-29_09h06.43.239,Colour_Asymmetry_Pilot,2022.1.3,Win32,60.0060006,62bbe60bf3d75ef465d3e404,0,118,118,26,1,twoone,,,,,,,,,,,,,,,,,,,,,,,,,,,,,,,,,,,,,,,,,,,,,,,,,,,,,,,,,,,,,,,,,,,,,,,,,,,,,,,,,,,,,,,,,,,,,,,,,,,,,,,,,,,,,,,,,,,,,,,,,,,,,,,,,,,,,,,,,,,,,,,,,,,,,,,,
,,,,,,5e722b4bcf526a0119aee64f,62bbf9ddfbfe27eb2ca148b2,2022-06-29_09h06.43.239,Colour_Asymmetry_Pilot,2022.1.3,Win32,60.0060006,62bbe60bf3d75ef465d3e404,0,119,119,18,1,twoone,,,,,,,,,,,,,,,,,,,,,,,,,,,,,,,,,,,,,,,,,,,,,,,,,,,,,,,,,,,,,,,,,,,,,,,,,,,,,,,,,,,,,,,,,,,,,,,,,,,,,,,,,,,,,,,,,,,,,,,,,,,,,,,,,,,,,,,,,,,,,,,,,,,,,,,,
,,,,,,5e722b4bcf526a0119aee64f,62bbf9ddfbfe27eb2ca148b2,2022-06-29_09h06.43.239,Colour_Asymmetry_Pilot,2022.1.3,Win32,60.0060006,62bbe60bf3d75ef465d3e404,0,120,120,136,1,onetwo,,,,,,,,,,,,,,,,,,,,,,,,,,,,,,,,,,,,,,,,,,,,,,,,,,,,,,,,,,,,,,,,,,,,,,,,,,,,,,,,,,,,,,,,,,,,,,,,,,,,,,,,,,,,,,,,,,,,,,,,,,,,,,,,,,,,,,,,,,,,,,,,,,,,,,,,
,,,,,,5e722b4bcf526a0119aee64f,62bbf9ddfbfe27eb2ca148b2,2022-06-29_09h06.43.239,Colour_Asymmetry_Pilot,2022.1.3,Win32,60.0060006,62bbe60bf3d75ef465d3e404,0,121,121,106,1,twoone,,,,,,,,,,,,,,,,,,,,,,,,,,,,,,,,,,,,,,,,,,,,,,,,,,,,,,,,,,,,,,,,,,,,,,,,,,,,,,,,,,,,,,,,,,,,,,,,,,,,,,,,,,,,,,,,,,,,,,,,,,,,,,,,,,,,,,,,,,,,,,,,,,,,,,,,
,,,,,,5e722b4bcf526a0119aee64f,62bbf9ddfbfe27eb2ca148b2,2022-06-29_09h06.43.239,Colour_Asymmetry_Pilot,2022.1.3,Win32,60.0060006,62bbe60bf3d75ef465d3e404,0,122,122,129,1,onethree,,,,,,,,,,,,,,,,,,,,,,,,,,,,,,,,,,,,,,,,,,,,,,,,,,,,,,,,,,,,,,,,,,,,,,,,,,,,,,,,,,,,,,,,,,,,,,,,,,,,,,,,,,,,,,,,,,,,,,,,,,,,,,,,,,,,,,,,,,,,,,,,,,,,,,,,
,,,,,,5e722b4bcf526a0119aee64f,62bbf9ddfbfe27eb2ca148b2,2022-06-29_09h06.43.239,Colour_Asymmetry_Pilot,2022.1.3,Win32,60.0060006,62bbe60bf3d75ef465d3e404,0,123,123,10,1,twoone,,,,,,,,,,,,,,,,,,,,,,,,,,,,,,,,,,,,,,,,,,,,,,,,,,,,,,,,,,,,,,,,,,,,,,,,,,,,,,,,,,,,,,,,,,,,,,,,,,,,,,,,,,,,,,,,,,,,,,,,,,,,,,,,,,,,,,,,,,,,,,,,,,,,,,,,
,,,,,,5e722b4bcf526a0119aee64f,62bbf9ddfbfe27eb2ca148b2,2022-06-29_09h06.43.239,Colour_Asymmetry_Pilot,2022.1.3,Win32,60.0060006,62bbe60bf3d75ef465d3e404,0,124,124,132,1,threeone,,,,,,,,,,,,,,,,,,,,,,,,,,,,,,,,,,,,,,,,,,,,,,,,,,,,,,,,,,,,,,,,,,,,,,,,,,,,,,,,,,,,,,,,,,,,,,,,,,,,,,,,,,,,,,,,,,,,,,,,,,,,,,,,,,,,,,,,,,,,,,,,,,,,,,,,
,,,,,,5e722b4bcf526a0119aee64f,62bbf9ddfbfe27eb2ca148b2,2022-06-29_09h06.43.239,Colour_Asymmetry_Pilot,2022.1.3,Win32,60.0060006,62bbe60bf3d75ef465d3e404,0,125,125,3,1,twofour,,,,,,,,,,,,,,,,,,,,,,,,,,,,,,,,,,,,,,,,,,,,,,,,,,,,,,,,,,,,,,,,,,,,,,,,,,,,,,,,,,,,,,,,,,,,,,,,,,,,,,,,,,,,,,,,,,,,,,,,,,,,,,,,,,,,,,,,,,,,,,,,,,,,,,,,
,,,,,,5e722b4bcf526a0119aee64f,62bbf9ddfbfe27eb2ca148b2,2022-06-29_09h06.43.239,Colour_Asymmetry_Pilot,2022.1.3,Win32,60.0060006,62bbe60bf3d75ef465d3e404,0,126,126,9,1,onethree,,,,,,,,,,,,,,,,,,,,,,,,,,,,,,,,,,,,,,,,,,,,,,,,,,,,,,,,,,,,,,,,,,,,,,,,,,,,,,,,,,,,,,,,,,,,,,,,,,,,,,,,,,,,,,,,,,,,,,,,,,,,,,,,,,,,,,,,,,,,,,,,,,,,,,,,
,,,,,,5e722b4bcf526a0119aee64f,62bbf9ddfbfe27eb2ca148b2,2022-06-29_09h06.43.239,Colour_Asymmetry_Pilot,2022.1.3,Win32,60.0060006,62bbe60bf3d75ef465d3e404,0,127,127,113,1,onethree,,,,,,,,,,,,,,,,,,,,,,,,,,,,,,,,,,,,,,,,,,,,,,,,,,,,,,,,,,,,,,,,,,,,,,,,,,,,,,,,,,,,,,,,,,,,,,,,,,,,,,,,,,,,,,,,,,,,,,,,,,,,,,,,,,,,,,,,,,,,,,,,,,,,,,,,
,,,,,,5e722b4bcf526a0119aee64f,62bbf9ddfbfe27eb2ca148b2,2022-06-29_09h06.43.239,Colour_Asymmetry_Pilot,2022.1.3,Win32,60.0060006,62bbe60bf3d75ef465d3e404,0,128,128,4,1,threeone,,,,,,,,,,,,,,,,,,,,,,,,,,,,,,,,,,,,,,,,,,,,,,,,,,,,,,,,,,,,,,,,,,,,,,,,,,,,,,,,,,,,,,,,,,,,,,,,,,,,,,,,,,,,,,,,,,,,,,,,,,,,,,,,,,,,,,,,,,,,,,,,,,,,,,,,
,,,,,,5e722b4bcf526a0119aee64f,62bbf9ddfbfe27eb2ca148b2,2022-06-29_09h06.43.239,Colour_Asymmetry_Pilot,2022.1.3,Win32,60.0060006,62bbe60bf3d75ef465d3e404,0,129,129,80,1,onetwo,,,,,,,,,,,,,,,,,,,,,,,,,,,,,,,,,,,,,,,,,,,,,,,,,,,,,,,,,,,,,,,,,,,,,,,,,,,,,,,,,,,,,,,,,,,,,,,,,,,,,,,,,,,,,,,,,,,,,,,,,,,,,,,,,,,,,,,,,,,,,,,,,,,,,,,,
,,,,,,5e722b4bcf526a0119aee64f,62bbf9ddfbfe27eb2ca148b2,2022-06-29_09h06.43.239,Colour_Asymmetry_Pilot,2022.1.3,Win32,60.0060006,62bbe60bf3d75ef465d3e404,0,130,130,152,1,onetwo,,,,,,,,,,,,,,,,,,,,,,,,,,,,,,,,,,,,,,,,,,,,,,,,,,,,,,,,,,,,,,,,,,,,,,,,,,,,,,,,,,,,,,,,,,,,,,,,,,,,,,,,,,,,,,,,,,,,,,,,,,,,,,,,,,,,,,,,,,,,,,,,,,,,,,,,
,,,,,,5e722b4bcf526a0119aee64f,62bbf9ddfbfe27eb2ca148b2,2022-06-29_09h06.43.239,Colour_Asymmetry_Pilot,2022.1.3,Win32,60.0060006,62bbe60bf3d75ef465d3e404,0,131,131,11,1,twofour,,,,,,,,,,,,,,,,,,,,,,,,,,,,,,,,,,,,,,,,,,,,,,,,,,,,,,,,,,,,,,,,,,,,,,,,,,,,,,,,,,,,,,,,,,,,,,,,,,,,,,,,,,,,,,,,,,,,,,,,,,,,,,,,,,,,,,,,,,,,,,,,,,,,,,,,
,,,,,,5e722b4bcf526a0119aee64f,62bbf9ddfbfe27eb2ca148b2,2022-06-29_09h06.43.239,Colour_Asymmetry_Pilot,2022.1.3,Win32,60.0060006,62bbe60bf3d75ef465d3e404,0,132,132,138,1,twoone,,,,,,,,,,,,,,,,,,,,,,,,,,,,,,,,,,,,,,,,,,,,,,,,,,,,,,,,,,,,,,,,,,,,,,,,,,,,,,,,,,,,,,,,,,,,,,,,,,,,,,,,,,,,,,,,,,,,,,,,,,,,,,,,,,,,,,,,,,,,,,,,,,,,,,,,
,,,,,,5e722b4bcf526a0119aee64f,62bbf9ddfbfe27eb2ca148b2,2022-06-29_09h06.43.239,Colour_Asymmetry_Pilot,2022.1.3,Win32,60.0060006,62bbe60bf3d75ef465d3e404,0,133,133,102,1,fourtwo,,,,,,,,,,,,,,,,,,,,,,,,,,,,,,,,,,,,,,,,,,,,,,,,,,,,,,,,,,,,,,,,,,,,,,,,,,,,,,,,,,,,,,,,,,,,,,,,,,,,,,,,,,,,,,,,,,,,,,,,,,,,,,,,,,,,,,,,,,,,,,,,,,,,,,,,
,,,,,,5e722b4bcf526a0119aee64f,62bbf9ddfbfe27eb2ca148b2,2022-06-29_09h06.43.239,Colour_Asymmetry_Pilot,2022.1.3,Win32,60.0060006,62bbe60bf3d75ef465d3e404,0,134,134,0,1,onetwo,,,,,,,,,,,,,,,,,,,,,,,,,,,,,,,,,,,,,,,,,,,,,,,,,,,,,,,,,,,,,,,,,,,,,,,,,,,,,,,,,,,,,,,,,,,,,,,,,,,,,,,,,,,,,,,,,,,,,,,,,,,,,,,,,,,,,,,,,,,,,,,,,,,,,,,,
,,,,,,5e722b4bcf526a0119aee64f,62bbf9ddfbfe27eb2ca148b2,2022-06-29_09h06.43.239,Colour_Asymmetry_Pilot,2022.1.3,Win32,60.0060006,62bbe60bf3d75ef465d3e404,0,135,135,50,1,twoone,,,,,,,,,,,,,,,,,,,,,,,,,,,,,,,,,,,,,,,,,,,,,,,,,,,,,,,,,,,,,,,,,,,,,,,,,,,,,,,,,,,,,,,,,,,,,,,,,,,,,,,,,,,,,,,,,,,,,,,,,,,,,,,,,,,,,,,,,,,,,,,,,,,,,,,,
,,,,,,5e722b4bcf526a0119aee64f,62bbf9ddfbfe27eb2ca148b2,2022-06-29_09h06.43.239,Colour_Asymmetry_Pilot,2022.1.3,Win32,60.0060006,62bbe60bf3d75ef465d3e404,0,136,136,86,1,fourtwo,,,,,,,,,,,,,,,,,,,,,,,,,,,,,,,,,,,,,,,,,,,,,,,,,,,,,,,,,,,,,,,,,,,,,,,,,,,,,,,,,,,,,,,,,,,,,,,,,,,,,,,,,,,,,,,,,,,,,,,,,,,,,,,,,,,,,,,,,,,,,,,,,,,,,,,,
,,,,,,5e722b4bcf526a0119aee64f,62bbf9ddfbfe27eb2ca148b2,2022-06-29_09h06.43.239,Colour_Asymmetry_Pilot,2022.1.3,Win32,60.0060006,62bbe60bf3d75ef465d3e404,0,137,137,29,1,threefour,,,,,,,,,,,,,,,,,,,,,,,,,,,,,,,,,,,,,,,,,,,,,,,,,,,,,,,,,,,,,,,,,,,,,,,,,,,,,,,,,,,,,,,,,,,,,,,,,,,,,,,,,,,,,,,,,,,,,,,,,,,,,,,,,,,,,,,,,,,,,,,,,,,,,,,,
,,,,,,5e722b4bcf526a0119aee64f,62bbf9ddfbfe27eb2ca148b2,2022-06-29_09h06.43.239,Colour_Asymmetry_Pilot,2022.1.3,Win32,60.0060006,62bbe60bf3d75ef465d3e404,0,138,138,6,1,fourtwo,,,,,,,,,,,,,,,,,,,,,,,,,,,,,,,,,,,,,,,,,,,,,,,,,,,,,,,,,,,,,,,,,,,,,,,,,,,,,,,,,,,,,,,,,,,,,,,,,,,,,,,,,,,,,,,,,,,,,,,,,,,,,,,,,,,,,,,,,,,,,,,,,,,,,,,,
,,,,,,5e722b4bcf526a0119aee64f,62bbf9ddfbfe27eb2ca148b2,2022-06-29_09h06.43.239,Colour_Asymmetry_Pilot,2022.1.3,Win32,60.0060006,62bbe60bf3d75ef465d3e404,0,139,139,100,1,threeone,,,,,,,,,,,,,,,,,,,,,,,,,,,,,,,,,,,,,,,,,,,,,,,,,,,,,,,,,,,,,,,,,,,,,,,,,,,,,,,,,,,,,,,,,,,,,,,,,,,,,,,,,,,,,,,,,,,,,,,,,,,,,,,,,,,,,,,,,,,,,,,,,,,,,,,,
,,,,,,5e722b4bcf526a0119aee64f,62bbf9ddfbfe27eb2ca148b2,2022-06-29_09h06.43.239,Colour_Asymmetry_Pilot,2022.1.3,Win32,60.0060006,62bbe60bf3d75ef465d3e404,0,140,140,124,1,threeone,,,,,,,,,,,,,,,,,,,,,,,,,,,,,,,,,,,,,,,,,,,,,,,,,,,,,,,,,,,,,,,,,,,,,,,,,,,,,,,,,,,,,,,,,,,,,,,,,,,,,,,,,,,,,,,,,,,,,,,,,,,,,,,,,,,,,,,,,,,,,,,,,,,,,,,,
,,,,,,5e722b4bcf526a0119aee64f,62bbf9ddfbfe27eb2ca148b2,2022-06-29_09h06.43.239,Colour_Asymmetry_Pilot,2022.1.3,Win32,60.0060006,62bbe60bf3d75ef465d3e404,0,141,141,122,1,twoone,,,,,,,,,,,,,,,,,,,,,,,,,,,,,,,,,,,,,,,,,,,,,,,,,,,,,,,,,,,,,,,,,,,,,,,,,,,,,,,,,,,,,,,,,,,,,,,,,,,,,,,,,,,,,,,,,,,,,,,,,,,,,,,,,,,,,,,,,,,,,,,,,,,,,,,,
,,,,,,5e722b4bcf526a0119aee64f,62bbf9ddfbfe27eb2ca148b2,2022-06-29_09h06.43.239,Colour_Asymmetry_Pilot,2022.1.3,Win32,60.0060006,62bbe60bf3d75ef465d3e404,0,142,142,27,1,twofour,,,,,,,,,,,,,,,,,,,,,,,,,,,,,,,,,,,,,,,,,,,,,,,,,,,,,,,,,,,,,,,,,,,,,,,,,,,,,,,,,,,,,,,,,,,,,,,,,,,,,,,,,,,,,,,,,,,,,,,,,,,,,,,,,,,,,,,,,,,,,,,,,,,,,,,,
,,,,,,5e722b4bcf526a0119aee64f,62bbf9ddfbfe27eb2ca148b2,2022-06-29_09h06.43.239,Colour_Asymmetry_Pilot,2022.1.3,Win32,60.0060006,62bbe60bf3d75ef465d3e404,0,143,143,161,1,onethree,,,,,,,,,,,,,,,,,,,,,,,,,,,,,,,,,,,,,,,,,,,,,,,,,,,,,,,,,,,,,,,,,,,,,,,,,,,,,,,,,,,,,,,,,,,,,,,,,,,,,,,,,,,,,,,,,,,,,,,,,,,,,,,,,,,,,,,,,,,,,,,,,,,,,,,,
,,,,,,5e722b4bcf526a0119aee64f,62bbf9ddfbfe27eb2ca148b2,2022-06-29_09h06.43.239,Colour_Asymmetry_Pilot,2022.1.3,Win32,60.0060006,62bbe60bf3d75ef465d3e404,0,144,144,117,1,threefour,,,,,,,,,,,,,,,,,,,,,,,,,,,,,,,,,,,,,,,,,,,,,,,,,,,,,,,,,,,,,,,,,,,,,,,,,,,,,,,,,,,,,,,,,,,,,,,,,,,,,,,,,,,,,,,,,,,,,,,,,,,,,,,,,,,,,,,,,,,,,,,,,,,,,,,,
,,,,,,5e722b4bcf526a0119aee64f,62bbf9ddfbfe27eb2ca148b2,2022-06-29_09h06.43.239,Colour_Asymmetry_Pilot,2022.1.3,Win32,60.0060006,62bbe60bf3d75ef465d3e404,0,145,145,131,1,twofour,,,,,,,,,,,,,,,,,,,,,,,,,,,,,,,,,,,,,,,,,,,,,,,,,,,,,,,,,,,,,,,,,,,,,,,,,,,,,,,,,,,,,,,,,,,,,,,,,,,,,,,,,,,,,,,,,,,,,,,,,,,,,,,,,,,,,,,,,,,,,,,,,,,,,,,,
,,,,,,5e722b4bcf526a0119aee64f,62bbf9ddfbfe27eb2ca148b2,2022-06-29_09h06.43.239,Colour_Asymmetry_Pilot,2022.1.3,Win32,60.0060006,62bbe60bf3d75ef465d3e404,0,146,146,143,1,fourthree,,,,,,,,,,,,,,,,,,,,,,,,,,,,,,,,,,,,,,,,,,,,,,,,,,,,,,,,,,,,,,,,,,,,,,,,,,,,,,,,,,,,,,,,,,,,,,,,,,,,,,,,,,,,,,,,,,,,,,,,,,,,,,,,,,,,,,,,,,,,,,,,,,,,,,,,
,,,,,,5e722b4bcf526a0119aee64f,62bbf9ddfbfe27eb2ca148b2,2022-06-29_09h06.43.239,Colour_Asymmetry_Pilot,2022.1.3,Win32,60.0060006,62bbe60bf3d75ef465d3e404,0,147,147,43,1,twofour,,,,,,,,,,,,,,,,,,,,,,,,,,,,,,,,,,,,,,,,,,,,,,,,,,,,,,,,,,,,,,,,,,,,,,,,,,,,,,,,,,,,,,,,,,,,,,,,,,,,,,,,,,,,,,,,,,,,,,,,,,,,,,,,,,,,,,,,,,,,,,,,,,,,,,,,
,,,,,,5e722b4bcf526a0119aee64f,62bbf9ddfbfe27eb2ca148b2,2022-06-29_09h06.43.239,Colour_Asymmetry_Pilot,2022.1.3,Win32,60.0060006,62bbe60bf3d75ef465d3e404,0,148,148,59,1,twofour,,,,,,,,,,,,,,,,,,,,,,,,,,,,,,,,,,,,,,,,,,,,,,,,,,,,,,,,,,,,,,,,,,,,,,,,,,,,,,,,,,,,,,,,,,,,,,,,,,,,,,,,,,,,,,,,,,,,,,,,,,,,,,,,,,,,,,,,,,,,,,,,,,,,,,,,
,,,,,,5e722b4bcf526a0119aee64f,62bbf9ddfbfe27eb2ca148b2,2022-06-29_09h06.43.239,Colour_Asymmetry_Pilot,2022.1.3,Win32,60.0060006,62bbe60bf3d75ef465d3e404,0,149,149,67,1,twofour,,,,,,,,,,,,,,,,,,,,,,,,,,,,,,,,,,,,,,,,,,,,,,,,,,,,,,,,,,,,,,,,,,,,,,,,,,,,,,,,,,,,,,,,,,,,,,,,,,,,,,,,,,,,,,,,,,,,,,,,,,,,,,,,,,,,,,,,,,,,,,,,,,,,,,,,
,,,,,,5e722b4bcf526a0119aee64f,62bbf9ddfbfe27eb2ca148b2,2022-06-29_09h06.43.239,Colour_Asymmetry_Pilot,2022.1.3,Win32,60.0060006,62bbe60bf3d75ef465d3e404,0,150,150,31,1,fourthree,,,,,,,,,,,,,,,,,,,,,,,,,,,,,,,,,,,,,,,,,,,,,,,,,,,,,,,,,,,,,,,,,,,,,,,,,,,,,,,,,,,,,,,,,,,,,,,,,,,,,,,,,,,,,,,,,,,,,,,,,,,,,,,,,,,,,,,,,,,,,,,,,,,,,,,,
,,,,,,5e722b4bcf526a0119aee64f,62bbf9ddfbfe27eb2ca148b2,2022-06-29_09h06.43.239,Colour_Asymmetry_Pilot,2022.1.3,Win32,60.0060006,62bbe60bf3d75ef465d3e404,0,151,151,44,1,threeone,,,,,,,,,,,,,,,,,,,,,,,,,,,,,,,,,,,,,,,,,,,,,,,,,,,,,,,,,,,,,,,,,,,,,,,,,,,,,,,,,,,,,,,,,,,,,,,,,,,,,,,,,,,,,,,,,,,,,,,,,,,,,,,,,,,,,,,,,,,,,,,,,,,,,,,,
,,,,,,5e722b4bcf526a0119aee64f,62bbf9ddfbfe27eb2ca148b2,2022-06-29_09h06.43.239,Colour_Asymmetry_Pilot,2022.1.3,Win32,60.0060006,62bbe60bf3d75ef465d3e404,0,152,152,48,1,onetwo,,,,,,,,,,,,,,,,,,,,,,,,,,,,,,,,,,,,,,,,,,,,,,,,,,,,,,,,,,,,,,,,,,,,,,,,,,,,,,,,,,,,,,,,,,,,,,,,,,,,,,,,,,,,,,,,,,,,,,,,,,,,,,,,,,,,,,,,,,,,,,,,,,,,,,,,
,,,,,,5e722b4bcf526a0119aee64f,62bbf9ddfbfe27eb2ca148b2,2022-06-29_09h06.43.239,Colour_Asymmetry_Pilot,2022.1.3,Win32,60.0060006,62bbe60bf3d75ef465d3e404,0,153,153,90,1,twoone,,,,,,,,,,,,,,,,,,,,,,,,,,,,,,,,,,,,,,,,,,,,,,,,,,,,,,,,,,,,,,,,,,,,,,,,,,,,,,,,,,,,,,,,,,,,,,,,,,,,,,,,,,,,,,,,,,,,,,,,,,,,,,,,,,,,,,,,,,,,,,,,,,,,,,,,
,,,,,,5e722b4bcf526a0119aee64f,62bbf9ddfbfe27eb2ca148b2,2022-06-29_09h06.43.239,Colour_Asymmetry_Pilot,2022.1.3,Win32,60.0060006,62bbe60bf3d75ef465d3e404,0,154,154,34,1,twoone,,,,,,,,,,,,,,,,,,,,,,,,,,,,,,,,,,,,,,,,,,,,,,,,,,,,,,,,,,,,,,,,,,,,,,,,,,,,,,,,,,,,,,,,,,,,,,,,,,,,,,,,,,,,,,,,,,,,,,,,,,,,,,,,,,,,,,,,,,,,,,,,,,,,,,,,
,,,,,,5e722b4bcf526a0119aee64f,62bbf9ddfbfe27eb2ca148b2,2022-06-29_09h06.43.239,Colour_Asymmetry_Pilot,2022.1.3,Win32,60.0060006,62bbe60bf3d75ef465d3e404,0,155,155,19,1,twofour,,,,,,,,,,,,,,,,,,,,,,,,,,,,,,,,,,,,,,,,,,,,,,,,,,,,,,,,,,,,,,,,,,,,,,,,,,,,,,,,,,,,,,,,,,,,,,,,,,,,,,,,,,,,,,,,,,,,,,,,,,,,,,,,,,,,,,,,,,,,,,,,,,,,,,,,
,,,,,,5e722b4bcf526a0119aee64f,62bbf9ddfbfe27eb2ca148b2,2022-06-29_09h06.43.239,Colour_Asymmetry_Pilot,2022.1.3,Win32,60.0060006,62bbe60bf3d75ef465d3e404,0,156,156,74,1,twoone,,,,,,,,,,,,,,,,,,,,,,,,,,,,,,,,,,,,,,,,,,,,,,,,,,,,,,,,,,,,,,,,,,,,,,,,,,,,,,,,,,,,,,,,,,,,,,,,,,,,,,,,,,,,,,,,,,,,,,,,,,,,,,,,,,,,,,,,,,,,,,,,,,,,,,,,
,,,,,,5e722b4bcf526a0119aee64f,62bbf9ddfbfe27eb2ca148b2,2022-06-29_09h06.43.239,Colour_Asymmetry_Pilot,2022.1.3,Win32,60.0060006,62bbe60bf3d75ef465d3e404,0,157,157,144,1,onetwo,,,,,,,,,,,,,,,,,,,,,,,,,,,,,,,,,,,,,,,,,,,,,,,,,,,,,,,,,,,,,,,,,,,,,,,,,,,,,,,,,,,,,,,,,,,,,,,,,,,,,,,,,,,,,,,,,,,,,,,,,,,,,,,,,,,,,,,,,,,,,,,,,,,,,,,,
,,,,,,5e722b4bcf526a0119aee64f,62bbf9ddfbfe27eb2ca148b2,2022-06-29_09h06.43.239,Colour_Asymmetry_Pilot,2022.1.3,Win32,60.0060006,62bbe60bf3d75ef465d3e404,0,158,158,128,1,onetwo,,,,,,,,,,,,,,,,,,,,,,,,,,,,,,,,,,,,,,,,,,,,,,,,,,,,,,,,,,,,,,,,,,,,,,,,,,,,,,,,,,,,,,,,,,,,,,,,,,,,,,,,,,,,,,,,,,,,,,,,,,,,,,,,,,,,,,,,,,,,,,,,,,,,,,,,
,,,,,,5e722b4bcf526a0119aee64f,62bbf9ddfbfe27eb2ca148b2,2022-06-29_09h06.43.239,Colour_Asymmetry_Pilot,2022.1.3,Win32,60.0060006,62bbe60bf3d75ef465d3e404,0,159,159,146,1,twoone,,,,,,,,,,,,,,,,,,,,,,,,,,,,,,,,,,,,,,,,,,,,,,,,,,,,,,,,,,,,,,,,,,,,,,,,,,,,,,,,,,,,,,,,,,,,,,,,,,,,,,,,,,,,,,,,,,,,,,,,,,,,,,,,,,,,,,,,,,,,,,,,,,,,,,,,
,,,,,,5e722b4bcf526a0119aee64f,62bbf9ddfbfe27eb2ca148b2,2022-06-29_09h06.43.239,Colour_Asymmetry_Pilot,2022.1.3,Win32,60.0060006,62bbe60bf3d75ef465d3e404,0,160,160,72,1,onetwo,,,,,,,,,,,,,,,,,,,,,,,,,,,,,,,,,,,,,,,,,,,,,,,,,,,,,,,,,,,,,,,,,,,,,,,,,,,,,,,,,,,,,,,,,,,,,,,,,,,,,,,,,,,,,,,,,,,,,,,,,,,,,,,,,,,,,,,,,,,,,,,,,,,,,,,,
,,,,,,5e722b4bcf526a0119aee64f,62bbf9ddfbfe27eb2ca148b2,2022-06-29_09h06.43.239,Colour_Asymmetry_Pilot,2022.1.3,Win32,60.0060006,62bbe60bf3d75ef465d3e404,0,161,161,71,1,fourthree,,,,,,,,,,,,,,,,,,,,,,,,,,,,,,,,,,,,,,,,,,,,,,,,,,,,,,,,,,,,,,,,,,,,,,,,,,,,,,,,,,,,,,,,,,,,,,,,,,,,,,,,,,,,,,,,,,,,,,,,,,,,,,,,,,,,,,,,,,,,,,,,,,,,,,,,
,,,,,,5e722b4bcf526a0119aee64f,62bbf9ddfbfe27eb2ca148b2,2022-06-29_09h06.43.239,Colour_Asymmetry_Pilot,2022.1.3,Win32,60.0060006,62bbe60bf3d75ef465d3e404,,,,,,,space,71.6011,space,12.6253,space,59.3409,space,74.62,space,5.2,space,3.4514,"[0.18419999999999992,-0.4276,-0.404]",fourtwo,"[-0.10599999999999998,-0.10599999999999998,0.5841999999999998]",-3,17.0082,-36,24,1,0,0,response7disk_5,-1,0,1,0,0,rectangle_8,-1,0,1,0,0,2,-1,0,1,0,0,0,0,0,0,1,,,,,,,,,,,,,,,,,,,,,,,,,,,,,,,,,,,,,,,,,,,,,,,,,,,,,,,,,,,,,,,,,,,,,,,,,,,,,,,,,,,,,,,,,,,,,,,,,,,,,,,,,,,
,,,,,,5e722b4bcf526a0119aee64f,62bbf9ddfbfe27eb2ca148b2,2022-06-29_09h06.43.239,Colour_Asymmetry_Pilot,2022.1.3,Win32,60.0060006,62bbe60bf3d75ef465d3e404,,,,,,,,,,,,,,,,,,,"[-0.4276,0.0038000000000000256,-0.3256]",fourthree,"[-0.9844,-0.9688,-0.9922]",-4,6.72,-38,60,1,0,0,response7disk_5,5,8,1,0,0,rectangle_8,5,8,1,0,0,2,5,8,1,0,0,1,0,1,0,1,,,,,,,,,,,,,,,,,,,,,,,,,,,,,,,,,,,,,,,,,,,,,,,,,,,,,,,,,,,,,,,,,,,,,,,,,,,,,,,,,,,,,,,,,,,,,,,,,,,,,,,,,,,
,,,,,,5e722b4bcf526a0119aee64f,62bbf9ddfbfe27eb2ca148b2,2022-06-29_09h06.43.239,Colour_Asymmetry_Pilot,2022.1.3,Win32,60.0060006,62bbe60bf3d75ef465d3e404,,,,,,,,,,,,,,,,,,,"[0.5449999999999999,-0.31000000000000005,-0.0354000000000001]",onethree,"[-0.24719999999999998,0.5213999999999999,-0.12959999999999994]",-3,2.406,-63,40,1,0,0,response7disk_5,-10,8,1,0,0,rectangle_8,-10,8,1,0,0,2,-10,8,1,0,0,2,0,2,0,1,,,,,,,,,,,,,,,,,,,,,,,,,,,,,,,,,,,,,,,,,,,,,,,,,,,,,,,,,,,,,,,,,,,,,,,,,,,,,,,,,,,,,,,,,,,,,,,,,,,,,,,,,,,
,,,,,,5e722b4bcf526a0119aee64f,62bbf9ddfbfe27eb2ca148b2,2022-06-29_09h06.43.239,Colour_Asymmetry_Pilot,2022.1.3,Win32,60.0060006,62bbe60bf3d75ef465d3e404,,,,,,,,,,,,,,,,,,,"[0.2784,-0.31000000000000005,-0.5452]",twoone,"[-0.01980000000000004,-0.5138,-0.38039999999999996]",-1,3.7856,-36,-77,1,0,0,response5disk_5,6,2,1,0,0,rectangle_8,6,2,1,0,0,2,6,2,1,0,0,3,0,3,0,1,,,,,,,,,,,,,,,,,,,,,,,,,,,,,,,,,,,,,,,,,,,,,,,,,,,,,,,,,,,,,,,,,,,,,,,,,,,,,,,,,,,,,,,,,,,,,,,,,,,,,,,,,,,
,,,,,,5e722b4bcf526a0119aee64f,62bbf9ddfbfe27eb2ca148b2,2022-06-29_09h06.43.239,Colour_Asymmetry_Pilot,2022.1.3,Win32,60.0060006,62bbe60bf3d75ef465d3e404,,,,,,,,,,,,,,,,,,,"[-0.45899999999999996,-0.3256,-0.9374]",twofour,"[0.6547999999999998,-0.043199999999999905,-0.011800000000000033]",-3,1.8013,-58,37,1,0,0,response7disk_5,4,-1,1,0,0,rectangle_8,4,-1,1,0,0,2,4,-1,1,0,0,4,0,4,0,1,,,,,,,,,,,,,,,,,,,,,,,,,,,,,,,,,,,,,,,,,,,,,,,,,,,,,,,,,,,,,,,,,,,,,,,,,,,,,,,,,,,,,,,,,,,,,,,,,,,,,,,,,,,
,,,,,,5e722b4bcf526a0119aee64f,62bbf9ddfbfe27eb2ca148b2,2022-06-29_09h06.43.239,Colour_Asymmetry_Pilot,2022.1.3,Win32,60.0060006,62bbe60bf3d75ef465d3e404,,,,,,,,,,,,,,,,,,,"[-0.011800000000000033,-0.906,-0.45100000000000007]",threefour,"[-0.2942,-0.7648,-0.7492000000000001]",-1,1.7833,-43,-48,1,0,0,response5disk_5,22,-4,1,0,0,rectangle_8,79,-44,1,0,0,2,3,1,1,0,0,5,0,5,0,1,response3disk_7,5,rectangle_4,,,,,,,,,,,,,,,,,,,,,,,,,,,,,,,,,,,,,,,,,,,,,,,,,,,,,,,,,,,,,,,,,,,,,,,,,,,,,,,,,,,,,,,,,,,,,,,,,,,,,,,,
,,,,,,5e722b4bcf526a0119aee64f,62bbf9ddfbfe27eb2ca148b2,2022-06-29_09h06.43.239,Colour_Asymmetry_Pilot,2022.1.3,Win32,60.0060006,62bbe60bf3d75ef465d3e404,,,,,,,,,,,,,,,,,,,"[0.7018,0.7802,-0.16079999999999994]",onethree,"[-0.0040000000000000036,0.02739999999999987,-0.08239999999999992]",3,5.0029,55,34,1,0,0,response1disk_5,4,4,1,0,0,rectangle_8,4,4,1,0,0,2,4,4,1,0,0,6,0,6,0,1,,,,,,,,,,,,,,,,,,,,,,,,,,,,,,,,,,,,,,,,,,,,,,,,,,,,,,,,,,,,,,,,,,,,,,,,,,,,,,,,,,,,,,,,,,,,,,,,,,,,,,,,,,,
,,,,,,5e722b4bcf526a0119aee64f,62bbf9ddfbfe27eb2ca148b2,2022-06-29_09h06.43.239,Colour_Asymmetry_Pilot,2022.1.3,Win32,60.0060006,62bbe60bf3d75ef465d3e404,,,,,,,,,,,,,,,,,,,,fourthree,,-1,2.8018,,,,,,,,,,,,,,,,,,,,,,,,,,,,,,,,space,3.7033,"[0.04299999999999993,0.16060000000000008,-0.6628000000000001]","[-0.06680000000000008,-0.45100000000000007,-0.906]",-48,-70,1,0,0,response5disk,6,0,1,0,0,rectangle,6,0,1,0,0,,1,0.0028,0,6,0,1,0,0,0,0,0,151,1,70,second,,,,,,,,,,,,,,,,,,,,,,,,,,,,,,,,,,,,,,,,,,,,,,,,,,,,,,,,,,,,,,,,,,,
,,,,,,5e722b4bcf526a0119aee64f,62bbf9ddfbfe27eb2ca148b2,2022-06-29_09h06.43.239,Colour_Asymmetry_Pilot,2022.1.3,Win32,60.0060006,62bbe60bf3d75ef465d3e404,,,,,,,,,,,,,,,,,,,,fourthree,,-1,0.9792,,,,,,,,,,,,,,,,,,,,,,,,,,,,,,,,,,"[-0.30200000000000005,0.14500000000000002,0.2784]","[-0.2942,-0.24719999999999998,-0.357]",-37,-81,1,0,0,response5disk,8,3,1,0,0,rectangle,8,3,1,0,0,,3,0.0016,0,8,3,1,0,0,0,1,1,152,1,71,second,,,,,,,,,,,,,,,,,,,,,,,,,,,,,,,,,,,,,,,,,,,,,,,,,,,,,,,,,,,,,,,,,,,
,,,,,,5e722b4bcf526a0119aee64f,62bbf9ddfbfe27eb2ca148b2,2022-06-29_09h06.43.239,Colour_Asymmetry_Pilot,2022.1.3,Win32,60.0060006,62bbe60bf3d75ef465d3e404,,,,,,,,,,,,,,,,,,,,threeone,,1,1.0661,,,,,,,,,,,,,,,,,,,,,,,,,,,,,,,,,,"[-0.10599999999999998,-0.15300000000000002,0.15280000000000005]","[-0.10599999999999998,-0.10599999999999998,0.5841999999999998]",72,-77,1,0,0,response3disk,0,8,1,0,0,rectangle,100,37,1,0,0,3,3,2.6207,1,0,-3,1,0,0,0,2,2,55,1,55,first,response1disk_3,rectangle,,,,,,,,,,,,,,,,,,,,,,,,,,,,,,,,,,,,,,,,,,,,,,,,,,,,,,,,,,,,,,,,,
,,,,,,5e722b4bcf526a0119aee64f,62bbf9ddfbfe27eb2ca148b2,2022-06-29_09h06.43.239,Colour_Asymmetry_Pilot,2022.1.3,Win32,60.0060006,62bbe60bf3d75ef465d3e404,,,,,,,,,,,,,,,,,,,,twoone,,-3,0.7499,,,,,,,,,,,,,,,,,,,,,,,,,,,,,,,,,,"[-0.5452,-0.608,0.2470000000000001]","[0.22340000000000004,-0.9296,-0.7884]",-81,39,1,0,0,response7disk,16,5,1,0,0,rectangle,16,5,1,0,0,3,3,0.001,0,16,5,1,0,0,0,3,3,48,1,48,first,,,,,,,,,,,,,,,,,,,,,,,,,,,,,,,,,,,,,,,,,,,,,,,,,,,,,,,,,,,,,,,,,,,
,,,,,,5e722b4bcf526a0119aee64f,62bbf9ddfbfe27eb2ca148b2,2022-06-29_09h06.43.239,Colour_Asymmetry_Pilot,2022.1.3,Win32,60.0060006,62bbe60bf3d75ef465d3e404,,,,,,,,,,,,,,,,,,,,onetwo,,-1,1.5545,,,,,,,,,,,,,,,,,,,,,,,,,,,,,,,,,,"[0.12939999999999996,-0.2864,0.3253999999999999]","[-0.01980000000000004,-0.5138,-0.38039999999999996]",-33,-75,1,0,0,response5disk,9,2,1,0,0,rectangle,9,2,1,0,0,3,3,0.0016,0,9,2,1,0,0,0,4,4,112,1,31,second,,,,,,,,,,,,,,,,,,,,,,,,,,,,,,,,,,,,,,,,,,,,,,,,,,,,,,,,,,,,,,,,,,,
,,,,,,5e722b4bcf526a0119aee64f,62bbf9ddfbfe27eb2ca148b2,2022-06-29_09h06.43.239,Colour_Asymmetry_Pilot,2022.1.3,Win32,60.0060006,62bbe60bf3d75ef465d3e404,,,,,,,,,,,,,,,,,,,,threefour,,-4,2.1643,,,,,,,,,,,,,,,,,,,,,,,,,,,,,,,,,,"[-0.17659999999999998,0.3253999999999999,0.19999999999999996]","[-0.9844,-0.9688,-0.9922]",-46,50,1,0,0,response7disk,16,-10,1,0,0,rectangle,16,-10,1,0,0,3,1,0.0015,0,16,-10,1,0,0,0,5,5,116,1,35,second,,,,,,,,,,,,,,,,,,,,,,,,,,,,,,,,,,,,,,,,,,,,,,,,,,,,,,,,,,,,,,,,,,,
,,,,,,5e722b4bcf526a0119aee64f,62bbf9ddfbfe27eb2ca148b2,2022-06-29_09h06.43.239,Colour_Asymmetry_Pilot,2022.1.3,Win32,60.0060006,62bbe60bf3d75ef465d3e404,,,,,,,,,,,,,,,,,,,,fourthree,,-1,0.6838,,,,,,,,,,,,,,,,,,,,,,,,,,,,,,,,,,"[-0.9688,-0.7412000000000001,-0.4902000000000001]","[-0.6706000000000001,-0.6157999999999999,-0.6786]",-55,-59,1,0,0,response5disk,0,2,1,0,0,rectangle,0,2,1,0,0,3,2,0.0017,0,0,2,1,0,0,0,6,6,140,1,59,second,,,,,,,,,,,,,,,,,,,,,,,,,,,,,,,,,,,,,,,,,,,,,,,,,,,,,,,,,,,,,,,,,,,
,,,,,,5e722b4bcf526a0119aee64f,62bbf9ddfbfe27eb2ca148b2,2022-06-29_09h06.43.239,Colour_Asymmetry_Pilot,2022.1.3,Win32,60.0060006,62bbe60bf3d75ef465d3e404,,,,,,,,,,,,,,,,,,,,threeone,,-3,0.6033,,,,,,,,,,,,,,,,,,,,,,,,,,,,,,,,,,"[-0.01980000000000004,-0.5138,-0.38039999999999996]","[-0.9216,-0.5529999999999999,-0.3962]",-58,49,1,0,0,response7disk,-10,-11,1,0,0,rectangle,-10,-11,1,0,0,3,2,0.0012,0,-10,-11,1,0,0,0,7,7,87,1,6,second,,,,,,,,,,,,,,,,,,,,,,,,,,,,,,,,,,,,,,,,,,,,,,,,,,,,,,,,,,,,,,,,,,,
,,,,,,5e722b4bcf526a0119aee64f,62bbf9ddfbfe27eb2ca148b2,2022-06-29_09h06.43.239,Colour_Asymmetry_Pilot,2022.1.3,Win32,60.0060006,62bbe60bf3d75ef465d3e404,,,,,,,,,,,,,,,,,,,,threeone,,-1,3.4018,,,,,,,,,,,,,,,,,,,,,,,,,,,,,,,,,,"[0.4196,0.4665999999999999,0.3568]","[-0.5452,-0.608,0.2470000000000001]",-28,-74,1,0,0,response5disk,13,0,1,0,0,rectangle,13,0,1,0,0,3,3,0.0015,0,13,0,1,0,0,0,8,8,18,1,18,first,,,,,,,,,,,,,,,,,,,,,,,,,,,,,,,,,,,,,,,,,,,,,,,,,,,,,,,,,,,,,,,,,,,
,,,,,,5e722b4bcf526a0119aee64f,62bbf9ddfbfe27eb2ca148b2,2022-06-29_09h06.43.239,Colour_Asymmetry_Pilot,2022.1.3,Win32,60.0060006,62bbe60bf3d75ef465d3e404,,,,,,,,,,,,,,,,,,,,fourthree,,-1,1.073,,,,,,,,,,,,,,,,,,,,,,,,,,,,,,,,,,"[-0.6942,-0.7648,-0.12959999999999994]","[-0.9844,-0.9688,-0.9922]",-49,-57,1,0,0,response5disk,-10,3,1,0,0,rectangle,-10,3,1,0,0,3,2,0.0015,0,-10,3,1,0,0,0,9,9,5,1,5,first,,,,,,,,,,,,,,,,,,,,,,,,,,,,,,,,,,,,,,,,,,,,,,,,,,,,,,,,,,,,,,,,,,,
,,,,,,5e722b4bcf526a0119aee64f,62bbf9ddfbfe27eb2ca148b2,2022-06-29_09h06.43.239,Colour_Asymmetry_Pilot,2022.1.3,Win32,60.0060006,62bbe60bf3d75ef465d3e404,,,,,,,,,,,,,,,,,,,,onetwo,,-1,0.7855,,,,,,,,,,,,,,,,,,,,,,,,,,,,,,,,,,"[0.7018,0.7176,0.6155999999999999]","[0.0351999999999999,0.41159999999999997,0.0038000000000000256]",-46,-58,1,0,0,response5disk,-7,-5,1,0,0,rectangle,-7,-5,1,0,0,3,2,0.0004,0,-7,-5,1,0,0,0,10,10,43,1,43,first,,,,,,,,,,,,,,,,,,,,,,,,,,,,,,,,,,,,,,,,,,,,,,,,,,,,,,,,,,,,,,,,,,,
,,,,,,5e722b4bcf526a0119aee64f,62bbf9ddfbfe27eb2ca148b2,2022-06-29_09h06.43.239,Colour_Asymmetry_Pilot,2022.1.3,Win32,60.0060006,62bbe60bf3d75ef465d3e404,,,,,,,,,,,,,,,,,,,,onetwo,,-4,0.651,,,,,,,,,,,,,,,,,,,,,,,,,,,,,,,,,,"[-0.4746,-0.0354000000000001,0.5449999999999999]","[0.9842,0.7409999999999999,-0.6628000000000001]",-37,39,1,0,0,response7disk,-6,-7,1,0,0,rectangle,-6,-7,1,0,0,3,1,0.0015,0,-6,-7,1,0,0,0,11,11,72,1,72,first,,,,,,,,,,,,,,,,,,,,,,,,,,,,,,,,,,,,,,,,,,,,,,,,,,,,,,,,,,,,,,,,,,,
,,,,,,5e722b4bcf526a0119aee64f,62bbf9ddfbfe27eb2ca148b2,2022-06-29_09h06.43.239,Colour_Asymmetry_Pilot,2022.1.3,Win32,60.0060006,62bbe60bf3d75ef465d3e404,,,,,,,,,,,,,,,,,,,,fourtwo,,-1,0.501,,,,,,,,,,,,,,,,,,,,,,,,,,,,,,,,,,"[-0.7412000000000001,-0.08239999999999992,-0.6864]","[-0.09019999999999995,0.44300000000000006,0.5371999999999999]",-49,-66,1,0,0,response5disk,5,-2,1,0,0,rectangle,5,-2,1,0,0,3,2,0.0014,0,5,-2,1,0,0,0,12,12,158,1,77,second,,,,,,,,,,,,,,,,,,,,,,,,,,,,,,,,,,,,,,,,,,,,,,,,,,,,,,,,,,,,,,,,,,,
,,,,,,5e722b4bcf526a0119aee64f,62bbf9ddfbfe27eb2ca148b2,2022-06-29_09h06.43.239,Colour_Asymmetry_Pilot,2022.1.3,Win32,60.0060006,62bbe60bf3d75ef465d3e404,,,,,,,,,,,,,,,,,,,,threeone,,4,1.5161,,,,,,,,,,,,,,,,,,,,,,,,,,,,,,,,,,"[0.19199999999999995,0.18419999999999992,0.5136000000000001]","[0.19199999999999995,0.18419999999999992,0.5136000000000001]",47,63,1,0,0,response1disk,1,2,1,0,0,rectangle,1,2,1,0,0,3,3,0.0022,0,1,2,1,0,0,0,13,13,12,1,12,first,,,,,,,,,,,,,,,,,,,,,,,,,,,,,,,,,,,,,,,,,,,,,,,,,,,,,,,,,,,,,,,,,,,
,,,,,,5e722b4bcf526a0119aee64f,62bbf9ddfbfe27eb2ca148b2,2022-06-29_09h06.43.239,Colour_Asymmetry_Pilot,2022.1.3,Win32,60.0060006,62bbe60bf3d75ef465d3e404,,,,,,,,,,,,,,,,,,,,fourthree,,-1,0.5117,,,,,,,,,,,,,,,,,,,,,,,,,,,,,,,,,,"[0.19199999999999995,0.18419999999999992,0.5136000000000001]","[0.0351999999999999,0.41159999999999997,0.0038000000000000256]",-60,-68,1,0,0,response5disk,-5,6,1,0,0,rectangle,-5,6,1,0,0,3,2,0.0031,0,-5,6,1,0,0,0,14,14,29,1,29,first,,,,,,,,,,,,,,,,,,,,,,,,,,,,,,,,,,,,,,,,,,,,,,,,,,,,,,,,,,,,,,,,,,,
,,,,,,5e722b4bcf526a0119aee64f,62bbf9ddfbfe27eb2ca148b2,2022-06-29_09h06.43.239,Colour_Asymmetry_Pilot,2022.1.3,Win32,60.0060006,62bbe60bf3d75ef465d3e404,,,,,,,,,,,,,,,,,,,,fourtwo,,-4,0.5841,,,,,,,,,,,,,,,,,,,,,,,,,,,,,,,,,,"[0.8274000000000001,-0.5844,-0.9452]","[-0.9688,-0.4902000000000001,-0.12159999999999993]",-57,60,1,0,0,response7disk,-2,-2,1,0,0,rectangle,-2,-2,1,0,0,3,1,0.002,0,-2,-2,1,0,0,0,15,15,109,1,28,second,,,,,,,,,,,,,,,,,,,,,,,,,,,,,,,,,,,,,,,,,,,,,,,,,,,,,,,,,,,,,,,,,,,
,,,,,,5e722b4bcf526a0119aee64f,62bbf9ddfbfe27eb2ca148b2,2022-06-29_09h06.43.239,Colour_Asymmetry_Pilot,2022.1.3,Win32,60.0060006,62bbe60bf3d75ef465d3e404,,,,,,,,,,,,,,,,,,,,threefour,,-4,1.7151,,,,,,,,,,,,,,,,,,,,,,,,,,,,,,,,,,"[0.2784,-0.31000000000000005,-0.5452]","[-0.26280000000000003,-0.2158,-0.3256]",-47,62,1,0,0,response7disk,-6,6,1,0,0,rectangle,-6,6,1,0,0,3,3,0.0017,0,-6,6,1,0,0,0,16,16,39,1,39,first,,,,,,,,,,,,,,,,,,,,,,,,,,,,,,,,,,,,,,,,,,,,,,,,,,,,,,,,,,,,,,,,,,,
,,,,,,5e722b4bcf526a0119aee64f,62bbf9ddfbfe27eb2ca148b2,2022-06-29_09h06.43.239,Colour_Asymmetry_Pilot,2022.1.3,Win32,60.0060006,62bbe60bf3d75ef465d3e404,,,,,,,,,,,,,,,,,,,,threefour,,-3,0.7558,,,,,,,,,,,,,,,,,,,,,,,,,,,,,,,,,,"[-0.26280000000000003,-0.2158,-0.3256]","[0.2784,-0.31000000000000005,-0.5452]",-69,52,1,0,0,response7disk,-12,-2,1,0,0,rectangle,-12,-2,1,0,0,3,2,0.0014,0,-12,-2,1,0,0,0,17,17,120,1,39,second,,,,,,,,,,,,,,,,,,,,,,,,,,,,,,,,,,,,,,,,,,,,,,,,,,,,,,,,,,,,,,,,,,,
,,,,,,5e722b4bcf526a0119aee64f,62bbf9ddfbfe27eb2ca148b2,2022-06-29_09h06.43.239,Colour_Asymmetry_Pilot,2022.1.3,Win32,60.0060006,62bbe60bf3d75ef465d3e404,,,,,,,,,,,,,,,,,,,,onetwo,,-2,0.4959,,,,,,,,,,,,,,,,,,,,,,,,,,,,,,,,,,"[0.5528,0.7409999999999999,-0.71]","[0.9686000000000001,0.5763999999999998,0.11359999999999992]",-67,-65,1,0,0,response5disk,-3,-12,1,0,0,rectangle,96,33,1,0,0,3,3,2.2199,1,-4,-10,1,0,0,0,18,18,104,1,23,second,response1disk_3,rectangle,,,,,,,,,,,,,,,,,,,,,,,,,,,,,,,,,,,,,,,,,,,,,,,,,,,,,,,,,,,,,,,,,
,,,,,,5e722b4bcf526a0119aee64f,62bbf9ddfbfe27eb2ca148b2,2022-06-29_09h06.43.239,Colour_Asymmetry_Pilot,2022.1.3,Win32,60.0060006,62bbe60bf3d75ef465d3e404,,,,,,,,,,,,,,,,,,,,twofour,,-2,0.5838,,,,,,,,,,,,,,,,,,,,,,,,,,,,,,,,,,"[0.4196,0.4665999999999999,0.3568]","[0.40379999999999994,0.09000000000000008,0.44300000000000006]",-73,-59,1,0,0,response5disk,-16,3,1,0,0,rectangle,-16,3,1,0,0,3,1,0.002,0,-16,3,1,0,0,0,19,19,68,1,68,first,,,,,,,,,,,,,,,,,,,,,,,,,,,,,,,,,,,,,,,,,,,,,,,,,,,,,,,,,,,,,,,,,,,
,,,,,,5e722b4bcf526a0119aee64f,62bbf9ddfbfe27eb2ca148b2,2022-06-29_09h06.43.239,Colour_Asymmetry_Pilot,2022.1.3,Win32,60.0060006,62bbe60bf3d75ef465d3e404,,,,,,,,,,,,,,,,,,,,onetwo,,-4,0.5172,,,,,,,,,,,,,,,,,,,,,,,,,,,,,,,,,,"[-0.10599999999999998,-0.10599999999999998,0.5841999999999998]","[-0.011800000000000033,-0.906,-0.45100000000000007]",-58,61,1,0,0,response7disk,-10,4,1,0,0,rectangle,-10,4,1,0,0,3,2,0.0023,0,-10,4,1,0,0,0,20,20,133,1,52,second,,,,,,,,,,,,,,,,,,,,,,,,,,,,,,,,,,,,,,,,,,,,,,,,,,,,,,,,,,,,,,,,,,,
