trials.thisRepN,trials.thisTrialN,trials.thisN,trials.thisIndex,trials.ran,Colourcodes,participant,session,date,expName,psychopyVersion,OS,frameRate,study_id,trials_4.thisRepN,trials_4.thisTrialN,trials_4.thisN,trials_4.thisIndex,trials_4.ran,StimulusPos,key_resp.keys,key_resp.rt,key_resp_2.keys,key_resp_2.rt,key_resp_15.keys,key_resp_15.rt,key_resp_17.keys,key_resp_17.rt,key_resp_9.keys,key_resp_9.rt,key_resp_10.keys,key_resp_10.rt,Circle1_col,Ecc,Circle2_col,similarity,response_time,mouse_5.x,mouse_5.y,mouse_5.leftButton,mouse_5.midButton,mouse_5.rightButton,mouse_5.clicked_name,mouse_10.x,mouse_10.y,mouse_10.leftButton,mouse_10.midButton,mouse_10.rightButton,mouse_10.clicked_name,mouse_7.x,mouse_7.y,mouse_7.leftButton,mouse_7.midButton,mouse_7.rightButton,catchnumberprac,mouse_6.x,mouse_6.y,mouse_6.leftButton,mouse_6.midButton,mouse_6.rightButton,duringprac.thisRepN,duringprac.thisTrialN,duringprac.thisN,duringprac.thisIndex,duringprac.ran,mouse_7.clicked_name,catchprac,mouse_6.clicked_name,key_resp_22.keys,key_resp_22.rt,Circle1_colour,Circle2_colour,mouse.x,mouse.y,mouse.leftButton,mouse.midButton,mouse.rightButton,mouse.clicked_name,mouse_2.x,mouse_2.y,mouse_2.leftButton,mouse_2.midButton,mouse_2.rightButton,mouse_2.clicked_name,mouse_3.x,mouse_3.y,mouse_3.leftButton,mouse_3.midButton,mouse_3.rightButton,catchresponse,catchnumber,response_time_catch,Catch,mouse_11.x,mouse_11.y,mouse_11.leftButton,mouse_11.midButton,mouse_11.rightButton,trials_2.thisRepN,trials_2.thisTrialN,trials_2.thisN,trials_2.thisIndex,trials_2.ran,Colourpair,Temporder,mouse_3.clicked_name,mouse_11.clicked_name,trials_3.thisRepN,trials_3.thisTrialN,trials_3.thisN,trials_3.thisIndex,trials_3.ran,key_resp_instr_Ishi.keys,key_resp_instr_Ishi.rt,Ishi_trial_keyresp.keys,Ishi_trial_keyresp.rt,Ishi_textbox.text,Ishi_loop.thisRepN,Ishi_loop.thisTrialN,Ishi_loop.thisN,Ishi_loop.thisIndex,Ishi_loop.ran,imageaddress,textbox.text,mouse_4.x,mouse_4.y,mouse_4.leftButton,mouse_4.midButton,mouse_4.rightButton,mouse_4.clicked_name,textbox_2.text,mouse_8.x,mouse_8.y,mouse_8.leftButton,mouse_8.midButton,mouse_8.rightButton,mouse_8.clicked_name,textbox_3.text,mouse_9.x,mouse_9.y,mouse_9.leftButton,mouse_9.midButton,mouse_9.rightButton,mouse_9.clicked_name,textbox_4.text,mouse_12.x,mouse_12.y,mouse_12.leftButton,mouse_12.midButton,mouse_12.rightButton,mouse_12.clicked_name,textbox_5.text,mouse_13.x,mouse_13.y,mouse_13.leftButton,mouse_13.midButton,mouse_13.rightButton,mouse_13.clicked_name,textbox_6.text,mouse_14.x,mouse_14.y,mouse_14.leftButton,mouse_14.midButton,mouse_14.rightButton,textbox_7.text,mouse_15.x,mouse_15.y,mouse_15.leftButton,mouse_15.midButton,mouse_15.rightButton,mouse_15.clicked_name
0,0,0,19,1,,611cde82784f11c1e17fe12b,62bbfa1d65911f18c84cfe18,2022-06-29_09h09.06.431,Colour_Asymmetry_Pilot,2022.1.3,MacIntel,60.0024001,62bbe60bf3d75ef465d3e404,,,,,,,,,,,,,,,,,,,,,,,,,,,,,,,,,,,,,,,,,,,,,,,,,,,,,,,,,,,,,,,,,,,,,,,,,,,,,,,,,,,,,,,,,,,,,,,,,,,,,,,,,,,,,,,,,,,,,,,,,,,,,,,,,,,,,,,,,,,,,,,,,,,,,,,,,,,,,
0,1,1,49,1,,611cde82784f11c1e17fe12b,62bbfa1d65911f18c84cfe18,2022-06-29_09h09.06.431,Colour_Asymmetry_Pilot,2022.1.3,MacIntel,60.0024001,62bbe60bf3d75ef465d3e404,,,,,,,,,,,,,,,,,,,,,,,,,,,,,,,,,,,,,,,,,,,,,,,,,,,,,,,,,,,,,,,,,,,,,,,,,,,,,,,,,,,,,,,,,,,,,,,,,,,,,,,,,,,,,,,,,,,,,,,,,,,,,,,,,,,,,,,,,,,,,,,,,,,,,,,,,,,,,
0,2,2,15,1,,611cde82784f11c1e17fe12b,62bbfa1d65911f18c84cfe18,2022-06-29_09h09.06.431,Colour_Asymmetry_Pilot,2022.1.3,MacIntel,60.0024001,62bbe60bf3d75ef465d3e404,,,,,,,,,,,,,,,,,,,,,,,,,,,,,,,,,,,,,,,,,,,,,,,,,,,,,,,,,,,,,,,,,,,,,,,,,,,,,,,,,,,,,,,,,,,,,,,,,,,,,,,,,,,,,,,,,,,,,,,,,,,,,,,,,,,,,,,,,,,,,,,,,,,,,,,,,,,,,
0,3,3,71,1,,611cde82784f11c1e17fe12b,62bbfa1d65911f18c84cfe18,2022-06-29_09h09.06.431,Colour_Asymmetry_Pilot,2022.1.3,MacIntel,60.0024001,62bbe60bf3d75ef465d3e404,,,,,,,,,,,,,,,,,,,,,,,,,,,,,,,,,,,,,,,,,,,,,,,,,,,,,,,,,,,,,,,,,,,,,,,,,,,,,,,,,,,,,,,,,,,,,,,,,,,,,,,,,,,,,,,,,,,,,,,,,,,,,,,,,,,,,,,,,,,,,,,,,,,,,,,,,,,,,
0,4,4,17,1,,611cde82784f11c1e17fe12b,62bbfa1d65911f18c84cfe18,2022-06-29_09h09.06.431,Colour_Asymmetry_Pilot,2022.1.3,MacIntel,60.0024001,62bbe60bf3d75ef465d3e404,,,,,,,,,,,,,,,,,,,,,,,,,,,,,,,,,,,,,,,,,,,,,,,,,,,,,,,,,,,,,,,,,,,,,,,,,,,,,,,,,,,,,,,,,,,,,,,,,,,,,,,,,,,,,,,,,,,,,,,,,,,,,,,,,,,,,,,,,,,,,,,,,,,,,,,,,,,,,
0,5,5,74,1,,611cde82784f11c1e17fe12b,62bbfa1d65911f18c84cfe18,2022-06-29_09h09.06.431,Colour_Asymmetry_Pilot,2022.1.3,MacIntel,60.0024001,62bbe60bf3d75ef465d3e404,,,,,,,,,,,,,,,,,,,,,,,,,,,,,,,,,,,,,,,,,,,,,,,,,,,,,,,,,,,,,,,,,,,,,,,,,,,,,,,,,,,,,,,,,,,,,,,,,,,,,,,,,,,,,,,,,,,,,,,,,,,,,,,,,,,,,,,,,,,,,,,,,,,,,,,,,,,,,
0,6,6,40,1,,611cde82784f11c1e17fe12b,62bbfa1d65911f18c84cfe18,2022-06-29_09h09.06.431,Colour_Asymmetry_Pilot,2022.1.3,MacIntel,60.0024001,62bbe60bf3d75ef465d3e404,,,,,,,,,,,,,,,,,,,,,,,,,,,,,,,,,,,,,,,,,,,,,,,,,,,,,,,,,,,,,,,,,,,,,,,,,,,,,,,,,,,,,,,,,,,,,,,,,,,,,,,,,,,,,,,,,,,,,,,,,,,,,,,,,,,,,,,,,,,,,,,,,,,,,,,,,,,,,
0,7,7,25,1,,611cde82784f11c1e17fe12b,62bbfa1d65911f18c84cfe18,2022-06-29_09h09.06.431,Colour_Asymmetry_Pilot,2022.1.3,MacIntel,60.0024001,62bbe60bf3d75ef465d3e404,,,,,,,,,,,,,,,,,,,,,,,,,,,,,,,,,,,,,,,,,,,,,,,,,,,,,,,,,,,,,,,,,,,,,,,,,,,,,,,,,,,,,,,,,,,,,,,,,,,,,,,,,,,,,,,,,,,,,,,,,,,,,,,,,,,,,,,,,,,,,,,,,,,,,,,,,,,,,
0,8,8,0,1,,611cde82784f11c1e17fe12b,62bbfa1d65911f18c84cfe18,2022-06-29_09h09.06.431,Colour_Asymmetry_Pilot,2022.1.3,MacIntel,60.0024001,62bbe60bf3d75ef465d3e404,,,,,,,,,,,,,,,,,,,,,,,,,,,,,,,,,,,,,,,,,,,,,,,,,,,,,,,,,,,,,,,,,,,,,,,,,,,,,,,,,,,,,,,,,,,,,,,,,,,,,,,,,,,,,,,,,,,,,,,,,,,,,,,,,,,,,,,,,,,,,,,,,,,,,,,,,,,,,
0,9,9,62,1,,611cde82784f11c1e17fe12b,62bbfa1d65911f18c84cfe18,2022-06-29_09h09.06.431,Colour_Asymmetry_Pilot,2022.1.3,MacIntel,60.0024001,62bbe60bf3d75ef465d3e404,,,,,,,,,,,,,,,,,,,,,,,,,,,,,,,,,,,,,,,,,,,,,,,,,,,,,,,,,,,,,,,,,,,,,,,,,,,,,,,,,,,,,,,,,,,,,,,,,,,,,,,,,,,,,,,,,,,,,,,,,,,,,,,,,,,,,,,,,,,,,,,,,,,,,,,,,,,,,
0,10,10,3,1,,611cde82784f11c1e17fe12b,62bbfa1d65911f18c84cfe18,2022-06-29_09h09.06.431,Colour_Asymmetry_Pilot,2022.1.3,MacIntel,60.0024001,62bbe60bf3d75ef465d3e404,,,,,,,,,,,,,,,,,,,,,,,,,,,,,,,,,,,,,,,,,,,,,,,,,,,,,,,,,,,,,,,,,,,,,,,,,,,,,,,,,,,,,,,,,,,,,,,,,,,,,,,,,,,,,,,,,,,,,,,,,,,,,,,,,,,,,,,,,,,,,,,,,,,,,,,,,,,,,
0,11,11,64,1,,611cde82784f11c1e17fe12b,62bbfa1d65911f18c84cfe18,2022-06-29_09h09.06.431,Colour_Asymmetry_Pilot,2022.1.3,MacIntel,60.0024001,62bbe60bf3d75ef465d3e404,,,,,,,,,,,,,,,,,,,,,,,,,,,,,,,,,,,,,,,,,,,,,,,,,,,,,,,,,,,,,,,,,,,,,,,,,,,,,,,,,,,,,,,,,,,,,,,,,,,,,,,,,,,,,,,,,,,,,,,,,,,,,,,,,,,,,,,,,,,,,,,,,,,,,,,,,,,,,
0,12,12,37,1,,611cde82784f11c1e17fe12b,62bbfa1d65911f18c84cfe18,2022-06-29_09h09.06.431,Colour_Asymmetry_Pilot,2022.1.3,MacIntel,60.0024001,62bbe60bf3d75ef465d3e404,,,,,,,,,,,,,,,,,,,,,,,,,,,,,,,,,,,,,,,,,,,,,,,,,,,,,,,,,,,,,,,,,,,,,,,,,,,,,,,,,,,,,,,,,,,,,,,,,,,,,,,,,,,,,,,,,,,,,,,,,,,,,,,,,,,,,,,,,,,,,,,,,,,,,,,,,,,,,
0,13,13,88,1,,611cde82784f11c1e17fe12b,62bbfa1d65911f18c84cfe18,2022-06-29_09h09.06.431,Colour_Asymmetry_Pilot,2022.1.3,MacIntel,60.0024001,62bbe60bf3d75ef465d3e404,,,,,,,,,,,,,,,,,,,,,,,,,,,,,,,,,,,,,,,,,,,,,,,,,,,,,,,,,,,,,,,,,,,,,,,,,,,,,,,,,,,,,,,,,,,,,,,,,,,,,,,,,,,,,,,,,,,,,,,,,,,,,,,,,,,,,,,,,,,,,,,,,,,,,,,,,,,,,
0,14,14,18,1,,611cde82784f11c1e17fe12b,62bbfa1d65911f18c84cfe18,2022-06-29_09h09.06.431,Colour_Asymmetry_Pilot,2022.1.3,MacIntel,60.0024001,62bbe60bf3d75ef465d3e404,,,,,,,,,,,,,,,,,,,,,,,,,,,,,,,,,,,,,,,,,,,,,,,,,,,,,,,,,,,,,,,,,,,,,,,,,,,,,,,,,,,,,,,,,,,,,,,,,,,,,,,,,,,,,,,,,,,,,,,,,,,,,,,,,,,,,,,,,,,,,,,,,,,,,,,,,,,,,
0,15,15,34,1,,611cde82784f11c1e17fe12b,62bbfa1d65911f18c84cfe18,2022-06-29_09h09.06.431,Colour_Asymmetry_Pilot,2022.1.3,MacIntel,60.0024001,62bbe60bf3d75ef465d3e404,,,,,,,,,,,,,,,,,,,,,,,,,,,,,,,,,,,,,,,,,,,,,,,,,,,,,,,,,,,,,,,,,,,,,,,,,,,,,,,,,,,,,,,,,,,,,,,,,,,,,,,,,,,,,,,,,,,,,,,,,,,,,,,,,,,,,,,,,,,,,,,,,,,,,,,,,,,,,
0,16,16,55,1,,611cde82784f11c1e17fe12b,62bbfa1d65911f18c84cfe18,2022-06-29_09h09.06.431,Colour_Asymmetry_Pilot,2022.1.3,MacIntel,60.0024001,62bbe60bf3d75ef465d3e404,,,,,,,,,,,,,,,,,,,,,,,,,,,,,,,,,,,,,,,,,,,,,,,,,,,,,,,,,,,,,,,,,,,,,,,,,,,,,,,,,,,,,,,,,,,,,,,,,,,,,,,,,,,,,,,,,,,,,,,,,,,,,,,,,,,,,,,,,,,,,,,,,,,,,,,,,,,,,
0,17,17,22,1,,611cde82784f11c1e17fe12b,62bbfa1d65911f18c84cfe18,2022-06-29_09h09.06.431,Colour_Asymmetry_Pilot,2022.1.3,MacIntel,60.0024001,62bbe60bf3d75ef465d3e404,,,,,,,,,,,,,,,,,,,,,,,,,,,,,,,,,,,,,,,,,,,,,,,,,,,,,,,,,,,,,,,,,,,,,,,,,,,,,,,,,,,,,,,,,,,,,,,,,,,,,,,,,,,,,,,,,,,,,,,,,,,,,,,,,,,,,,,,,,,,,,,,,,,,,,,,,,,,,
0,18,18,54,1,,611cde82784f11c1e17fe12b,62bbfa1d65911f18c84cfe18,2022-06-29_09h09.06.431,Colour_Asymmetry_Pilot,2022.1.3,MacIntel,60.0024001,62bbe60bf3d75ef465d3e404,,,,,,,,,,,,,,,,,,,,,,,,,,,,,,,,,,,,,,,,,,,,,,,,,,,,,,,,,,,,,,,,,,,,,,,,,,,,,,,,,,,,,,,,,,,,,,,,,,,,,,,,,,,,,,,,,,,,,,,,,,,,,,,,,,,,,,,,,,,,,,,,,,,,,,,,,,,,,
0,19,19,14,1,,611cde82784f11c1e17fe12b,62bbfa1d65911f18c84cfe18,2022-06-29_09h09.06.431,Colour_Asymmetry_Pilot,2022.1.3,MacIntel,60.0024001,62bbe60bf3d75ef465d3e404,,,,,,,,,,,,,,,,,,,,,,,,,,,,,,,,,,,,,,,,,,,,,,,,,,,,,,,,,,,,,,,,,,,,,,,,,,,,,,,,,,,,,,,,,,,,,,,,,,,,,,,,,,,,,,,,,,,,,,,,,,,,,,,,,,,,,,,,,,,,,,,,,,,,,,,,,,,,,
0,20,20,75,1,,611cde82784f11c1e17fe12b,62bbfa1d65911f18c84cfe18,2022-06-29_09h09.06.431,Colour_Asymmetry_Pilot,2022.1.3,MacIntel,60.0024001,62bbe60bf3d75ef465d3e404,,,,,,,,,,,,,,,,,,,,,,,,,,,,,,,,,,,,,,,,,,,,,,,,,,,,,,,,,,,,,,,,,,,,,,,,,,,,,,,,,,,,,,,,,,,,,,,,,,,,,,,,,,,,,,,,,,,,,,,,,,,,,,,,,,,,,,,,,,,,,,,,,,,,,,,,,,,,,
0,21,21,52,1,,611cde82784f11c1e17fe12b,62bbfa1d65911f18c84cfe18,2022-06-29_09h09.06.431,Colour_Asymmetry_Pilot,2022.1.3,MacIntel,60.0024001,62bbe60bf3d75ef465d3e404,,,,,,,,,,,,,,,,,,,,,,,,,,,,,,,,,,,,,,,,,,,,,,,,,,,,,,,,,,,,,,,,,,,,,,,,,,,,,,,,,,,,,,,,,,,,,,,,,,,,,,,,,,,,,,,,,,,,,,,,,,,,,,,,,,,,,,,,,,,,,,,,,,,,,,,,,,,,,
0,22,22,11,1,,611cde82784f11c1e17fe12b,62bbfa1d65911f18c84cfe18,2022-06-29_09h09.06.431,Colour_Asymmetry_Pilot,2022.1.3,MacIntel,60.0024001,62bbe60bf3d75ef465d3e404,,,,,,,,,,,,,,,,,,,,,,,,,,,,,,,,,,,,,,,,,,,,,,,,,,,,,,,,,,,,,,,,,,,,,,,,,,,,,,,,,,,,,,,,,,,,,,,,,,,,,,,,,,,,,,,,,,,,,,,,,,,,,,,,,,,,,,,,,,,,,,,,,,,,,,,,,,,,,
0,23,23,69,1,,611cde82784f11c1e17fe12b,62bbfa1d65911f18c84cfe18,2022-06-29_09h09.06.431,Colour_Asymmetry_Pilot,2022.1.3,MacIntel,60.0024001,62bbe60bf3d75ef465d3e404,,,,,,,,,,,,,,,,,,,,,,,,,,,,,,,,,,,,,,,,,,,,,,,,,,,,,,,,,,,,,,,,,,,,,,,,,,,,,,,,,,,,,,,,,,,,,,,,,,,,,,,,,,,,,,,,,,,,,,,,,,,,,,,,,,,,,,,,,,,,,,,,,,,,,,,,,,,,,
0,24,24,29,1,,611cde82784f11c1e17fe12b,62bbfa1d65911f18c84cfe18,2022-06-29_09h09.06.431,Colour_Asymmetry_Pilot,2022.1.3,MacIntel,60.0024001,62bbe60bf3d75ef465d3e404,,,,,,,,,,,,,,,,,,,,,,,,,,,,,,,,,,,,,,,,,,,,,,,,,,,,,,,,,,,,,,,,,,,,,,,,,,,,,,,,,,,,,,,,,,,,,,,,,,,,,,,,,,,,,,,,,,,,,,,,,,,,,,,,,,,,,,,,,,,,,,,,,,,,,,,,,,,,,
0,25,25,45,1,,611cde82784f11c1e17fe12b,62bbfa1d65911f18c84cfe18,2022-06-29_09h09.06.431,Colour_Asymmetry_Pilot,2022.1.3,MacIntel,60.0024001,62bbe60bf3d75ef465d3e404,,,,,,,,,,,,,,,,,,,,,,,,,,,,,,,,,,,,,,,,,,,,,,,,,,,,,,,,,,,,,,,,,,,,,,,,,,,,,,,,,,,,,,,,,,,,,,,,,,,,,,,,,,,,,,,,,,,,,,,,,,,,,,,,,,,,,,,,,,,,,,,,,,,,,,,,,,,,,
0,26,26,92,1,,611cde82784f11c1e17fe12b,62bbfa1d65911f18c84cfe18,2022-06-29_09h09.06.431,Colour_Asymmetry_Pilot,2022.1.3,MacIntel,60.0024001,62bbe60bf3d75ef465d3e404,,,,,,,,,,,,,,,,,,,,,,,,,,,,,,,,,,,,,,,,,,,,,,,,,,,,,,,,,,,,,,,,,,,,,,,,,,,,,,,,,,,,,,,,,,,,,,,,,,,,,,,,,,,,,,,,,,,,,,,,,,,,,,,,,,,,,,,,,,,,,,,,,,,,,,,,,,,,,
0,27,27,44,1,,611cde82784f11c1e17fe12b,62bbfa1d65911f18c84cfe18,2022-06-29_09h09.06.431,Colour_Asymmetry_Pilot,2022.1.3,MacIntel,60.0024001,62bbe60bf3d75ef465d3e404,,,,,,,,,,,,,,,,,,,,,,,,,,,,,,,,,,,,,,,,,,,,,,,,,,,,,,,,,,,,,,,,,,,,,,,,,,,,,,,,,,,,,,,,,,,,,,,,,,,,,,,,,,,,,,,,,,,,,,,,,,,,,,,,,,,,,,,,,,,,,,,,,,,,,,,,,,,,,
0,28,28,86,1,,611cde82784f11c1e17fe12b,62bbfa1d65911f18c84cfe18,2022-06-29_09h09.06.431,Colour_Asymmetry_Pilot,2022.1.3,MacIntel,60.0024001,62bbe60bf3d75ef465d3e404,,,,,,,,,,,,,,,,,,,,,,,,,,,,,,,,,,,,,,,,,,,,,,,,,,,,,,,,,,,,,,,,,,,,,,,,,,,,,,,,,,,,,,,,,,,,,,,,,,,,,,,,,,,,,,,,,,,,,,,,,,,,,,,,,,,,,,,,,,,,,,,,,,,,,,,,,,,,,
0,29,29,2,1,,611cde82784f11c1e17fe12b,62bbfa1d65911f18c84cfe18,2022-06-29_09h09.06.431,Colour_Asymmetry_Pilot,2022.1.3,MacIntel,60.0024001,62bbe60bf3d75ef465d3e404,,,,,,,,,,,,,,,,,,,,,,,,,,,,,,,,,,,,,,,,,,,,,,,,,,,,,,,,,,,,,,,,,,,,,,,,,,,,,,,,,,,,,,,,,,,,,,,,,,,,,,,,,,,,,,,,,,,,,,,,,,,,,,,,,,,,,,,,,,,,,,,,,,,,,,,,,,,,,
0,30,30,42,1,,611cde82784f11c1e17fe12b,62bbfa1d65911f18c84cfe18,2022-06-29_09h09.06.431,Colour_Asymmetry_Pilot,2022.1.3,MacIntel,60.0024001,62bbe60bf3d75ef465d3e404,,,,,,,,,,,,,,,,,,,,,,,,,,,,,,,,,,,,,,,,,,,,,,,,,,,,,,,,,,,,,,,,,,,,,,,,,,,,,,,,,,,,,,,,,,,,,,,,,,,,,,,,,,,,,,,,,,,,,,,,,,,,,,,,,,,,,,,,,,,,,,,,,,,,,,,,,,,,,
0,31,31,39,1,,611cde82784f11c1e17fe12b,62bbfa1d65911f18c84cfe18,2022-06-29_09h09.06.431,Colour_Asymmetry_Pilot,2022.1.3,MacIntel,60.0024001,62bbe60bf3d75ef465d3e404,,,,,,,,,,,,,,,,,,,,,,,,,,,,,,,,,,,,,,,,,,,,,,,,,,,,,,,,,,,,,,,,,,,,,,,,,,,,,,,,,,,,,,,,,,,,,,,,,,,,,,,,,,,,,,,,,,,,,,,,,,,,,,,,,,,,,,,,,,,,,,,,,,,,,,,,,,,,,
0,32,32,79,1,,611cde82784f11c1e17fe12b,62bbfa1d65911f18c84cfe18,2022-06-29_09h09.06.431,Colour_Asymmetry_Pilot,2022.1.3,MacIntel,60.0024001,62bbe60bf3d75ef465d3e404,,,,,,,,,,,,,,,,,,,,,,,,,,,,,,,,,,,,,,,,,,,,,,,,,,,,,,,,,,,,,,,,,,,,,,,,,,,,,,,,,,,,,,,,,,,,,,,,,,,,,,,,,,,,,,,,,,,,,,,,,,,,,,,,,,,,,,,,,,,,,,,,,,,,,,,,,,,,,
0,33,33,89,1,,611cde82784f11c1e17fe12b,62bbfa1d65911f18c84cfe18,2022-06-29_09h09.06.431,Colour_Asymmetry_Pilot,2022.1.3,MacIntel,60.0024001,62bbe60bf3d75ef465d3e404,,,,,,,,,,,,,,,,,,,,,,,,,,,,,,,,,,,,,,,,,,,,,,,,,,,,,,,,,,,,,,,,,,,,,,,,,,,,,,,,,,,,,,,,,,,,,,,,,,,,,,,,,,,,,,,,,,,,,,,,,,,,,,,,,,,,,,,,,,,,,,,,,,,,,,,,,,,,,
0,34,34,73,1,,611cde82784f11c1e17fe12b,62bbfa1d65911f18c84cfe18,2022-06-29_09h09.06.431,Colour_Asymmetry_Pilot,2022.1.3,MacIntel,60.0024001,62bbe60bf3d75ef465d3e404,,,,,,,,,,,,,,,,,,,,,,,,,,,,,,,,,,,,,,,,,,,,,,,,,,,,,,,,,,,,,,,,,,,,,,,,,,,,,,,,,,,,,,,,,,,,,,,,,,,,,,,,,,,,,,,,,,,,,,,,,,,,,,,,,,,,,,,,,,,,,,,,,,,,,,,,,,,,,
0,35,35,65,1,,611cde82784f11c1e17fe12b,62bbfa1d65911f18c84cfe18,2022-06-29_09h09.06.431,Colour_Asymmetry_Pilot,2022.1.3,MacIntel,60.0024001,62bbe60bf3d75ef465d3e404,,,,,,,,,,,,,,,,,,,,,,,,,,,,,,,,,,,,,,,,,,,,,,,,,,,,,,,,,,,,,,,,,,,,,,,,,,,,,,,,,,,,,,,,,,,,,,,,,,,,,,,,,,,,,,,,,,,,,,,,,,,,,,,,,,,,,,,,,,,,,,,,,,,,,,,,,,,,,
0,36,36,68,1,,611cde82784f11c1e17fe12b,62bbfa1d65911f18c84cfe18,2022-06-29_09h09.06.431,Colour_Asymmetry_Pilot,2022.1.3,MacIntel,60.0024001,62bbe60bf3d75ef465d3e404,,,,,,,,,,,,,,,,,,,,,,,,,,,,,,,,,,,,,,,,,,,,,,,,,,,,,,,,,,,,,,,,,,,,,,,,,,,,,,,,,,,,,,,,,,,,,,,,,,,,,,,,,,,,,,,,,,,,,,,,,,,,,,,,,,,,,,,,,,,,,,,,,,,,,,,,,,,,,
0,37,37,53,1,,611cde82784f11c1e17fe12b,62bbfa1d65911f18c84cfe18,2022-06-29_09h09.06.431,Colour_Asymmetry_Pilot,2022.1.3,MacIntel,60.0024001,62bbe60bf3d75ef465d3e404,,,,,,,,,,,,,,,,,,,,,,,,,,,,,,,,,,,,,,,,,,,,,,,,,,,,,,,,,,,,,,,,,,,,,,,,,,,,,,,,,,,,,,,,,,,,,,,,,,,,,,,,,,,,,,,,,,,,,,,,,,,,,,,,,,,,,,,,,,,,,,,,,,,,,,,,,,,,,
0,38,38,16,1,,611cde82784f11c1e17fe12b,62bbfa1d65911f18c84cfe18,2022-06-29_09h09.06.431,Colour_Asymmetry_Pilot,2022.1.3,MacIntel,60.0024001,62bbe60bf3d75ef465d3e404,,,,,,,,,,,,,,,,,,,,,,,,,,,,,,,,,,,,,,,,,,,,,,,,,,,,,,,,,,,,,,,,,,,,,,,,,,,,,,,,,,,,,,,,,,,,,,,,,,,,,,,,,,,,,,,,,,,,,,,,,,,,,,,,,,,,,,,,,,,,,,,,,,,,,,,,,,,,,
0,39,39,12,1,,611cde82784f11c1e17fe12b,62bbfa1d65911f18c84cfe18,2022-06-29_09h09.06.431,Colour_Asymmetry_Pilot,2022.1.3,MacIntel,60.0024001,62bbe60bf3d75ef465d3e404,,,,,,,,,,,,,,,,,,,,,,,,,,,,,,,,,,,,,,,,,,,,,,,,,,,,,,,,,,,,,,,,,,,,,,,,,,,,,,,,,,,,,,,,,,,,,,,,,,,,,,,,,,,,,,,,,,,,,,,,,,,,,,,,,,,,,,,,,,,,,,,,,,,,,,,,,,,,,
0,40,40,70,1,,611cde82784f11c1e17fe12b,62bbfa1d65911f18c84cfe18,2022-06-29_09h09.06.431,Colour_Asymmetry_Pilot,2022.1.3,MacIntel,60.0024001,62bbe60bf3d75ef465d3e404,,,,,,,,,,,,,,,,,,,,,,,,,,,,,,,,,,,,,,,,,,,,,,,,,,,,,,,,,,,,,,,,,,,,,,,,,,,,,,,,,,,,,,,,,,,,,,,,,,,,,,,,,,,,,,,,,,,,,,,,,,,,,,,,,,,,,,,,,,,,,,,,,,,,,,,,,,,,,
0,41,41,61,1,,611cde82784f11c1e17fe12b,62bbfa1d65911f18c84cfe18,2022-06-29_09h09.06.431,Colour_Asymmetry_Pilot,2022.1.3,MacIntel,60.0024001,62bbe60bf3d75ef465d3e404,,,,,,,,,,,,,,,,,,,,,,,,,,,,,,,,,,,,,,,,,,,,,,,,,,,,,,,,,,,,,,,,,,,,,,,,,,,,,,,,,,,,,,,,,,,,,,,,,,,,,,,,,,,,,,,,,,,,,,,,,,,,,,,,,,,,,,,,,,,,,,,,,,,,,,,,,,,,,
0,42,42,84,1,,611cde82784f11c1e17fe12b,62bbfa1d65911f18c84cfe18,2022-06-29_09h09.06.431,Colour_Asymmetry_Pilot,2022.1.3,MacIntel,60.0024001,62bbe60bf3d75ef465d3e404,,,,,,,,,,,,,,,,,,,,,,,,,,,,,,,,,,,,,,,,,,,,,,,,,,,,,,,,,,,,,,,,,,,,,,,,,,,,,,,,,,,,,,,,,,,,,,,,,,,,,,,,,,,,,,,,,,,,,,,,,,,,,,,,,,,,,,,,,,,,,,,,,,,,,,,,,,,,,
0,43,43,90,1,,611cde82784f11c1e17fe12b,62bbfa1d65911f18c84cfe18,2022-06-29_09h09.06.431,Colour_Asymmetry_Pilot,2022.1.3,MacIntel,60.0024001,62bbe60bf3d75ef465d3e404,,,,,,,,,,,,,,,,,,,,,,,,,,,,,,,,,,,,,,,,,,,,,,,,,,,,,,,,,,,,,,,,,,,,,,,,,,,,,,,,,,,,,,,,,,,,,,,,,,,,,,,,,,,,,,,,,,,,,,,,,,,,,,,,,,,,,,,,,,,,,,,,,,,,,,,,,,,,,
0,44,44,32,1,,611cde82784f11c1e17fe12b,62bbfa1d65911f18c84cfe18,2022-06-29_09h09.06.431,Colour_Asymmetry_Pilot,2022.1.3,MacIntel,60.0024001,62bbe60bf3d75ef465d3e404,,,,,,,,,,,,,,,,,,,,,,,,,,,,,,,,,,,,,,,,,,,,,,,,,,,,,,,,,,,,,,,,,,,,,,,,,,,,,,,,,,,,,,,,,,,,,,,,,,,,,,,,,,,,,,,,,,,,,,,,,,,,,,,,,,,,,,,,,,,,,,,,,,,,,,,,,,,,,
0,45,45,58,1,,611cde82784f11c1e17fe12b,62bbfa1d65911f18c84cfe18,2022-06-29_09h09.06.431,Colour_Asymmetry_Pilot,2022.1.3,MacIntel,60.0024001,62bbe60bf3d75ef465d3e404,,,,,,,,,,,,,,,,,,,,,,,,,,,,,,,,,,,,,,,,,,,,,,,,,,,,,,,,,,,,,,,,,,,,,,,,,,,,,,,,,,,,,,,,,,,,,,,,,,,,,,,,,,,,,,,,,,,,,,,,,,,,,,,,,,,,,,,,,,,,,,,,,,,,,,,,,,,,,
0,46,46,91,1,,611cde82784f11c1e17fe12b,62bbfa1d65911f18c84cfe18,2022-06-29_09h09.06.431,Colour_Asymmetry_Pilot,2022.1.3,MacIntel,60.0024001,62bbe60bf3d75ef465d3e404,,,,,,,,,,,,,,,,,,,,,,,,,,,,,,,,,,,,,,,,,,,,,,,,,,,,,,,,,,,,,,,,,,,,,,,,,,,,,,,,,,,,,,,,,,,,,,,,,,,,,,,,,,,,,,,,,,,,,,,,,,,,,,,,,,,,,,,,,,,,,,,,,,,,,,,,,,,,,
0,47,47,72,1,,611cde82784f11c1e17fe12b,62bbfa1d65911f18c84cfe18,2022-06-29_09h09.06.431,Colour_Asymmetry_Pilot,2022.1.3,MacIntel,60.0024001,62bbe60bf3d75ef465d3e404,,,,,,,,,,,,,,,,,,,,,,,,,,,,,,,,,,,,,,,,,,,,,,,,,,,,,,,,,,,,,,,,,,,,,,,,,,,,,,,,,,,,,,,,,,,,,,,,,,,,,,,,,,,,,,,,,,,,,,,,,,,,,,,,,,,,,,,,,,,,,,,,,,,,,,,,,,,,,
0,48,48,33,1,,611cde82784f11c1e17fe12b,62bbfa1d65911f18c84cfe18,2022-06-29_09h09.06.431,Colour_Asymmetry_Pilot,2022.1.3,MacIntel,60.0024001,62bbe60bf3d75ef465d3e404,,,,,,,,,,,,,,,,,,,,,,,,,,,,,,,,,,,,,,,,,,,,,,,,,,,,,,,,,,,,,,,,,,,,,,,,,,,,,,,,,,,,,,,,,,,,,,,,,,,,,,,,,,,,,,,,,,,,,,,,,,,,,,,,,,,,,,,,,,,,,,,,,,,,,,,,,,,,,
0,49,49,24,1,,611cde82784f11c1e17fe12b,62bbfa1d65911f18c84cfe18,2022-06-29_09h09.06.431,Colour_Asymmetry_Pilot,2022.1.3,MacIntel,60.0024001,62bbe60bf3d75ef465d3e404,,,,,,,,,,,,,,,,,,,,,,,,,,,,,,,,,,,,,,,,,,,,,,,,,,,,,,,,,,,,,,,,,,,,,,,,,,,,,,,,,,,,,,,,,,,,,,,,,,,,,,,,,,,,,,,,,,,,,,,,,,,,,,,,,,,,,,,,,,,,,,,,,,,,,,,,,,,,,
0,50,50,31,1,,611cde82784f11c1e17fe12b,62bbfa1d65911f18c84cfe18,2022-06-29_09h09.06.431,Colour_Asymmetry_Pilot,2022.1.3,MacIntel,60.0024001,62bbe60bf3d75ef465d3e404,,,,,,,,,,,,,,,,,,,,,,,,,,,,,,,,,,,,,,,,,,,,,,,,,,,,,,,,,,,,,,,,,,,,,,,,,,,,,,,,,,,,,,,,,,,,,,,,,,,,,,,,,,,,,,,,,,,,,,,,,,,,,,,,,,,,,,,,,,,,,,,,,,,,,,,,,,,,,
0,51,51,20,1,,611cde82784f11c1e17fe12b,62bbfa1d65911f18c84cfe18,2022-06-29_09h09.06.431,Colour_Asymmetry_Pilot,2022.1.3,MacIntel,60.0024001,62bbe60bf3d75ef465d3e404,,,,,,,,,,,,,,,,,,,,,,,,,,,,,,,,,,,,,,,,,,,,,,,,,,,,,,,,,,,,,,,,,,,,,,,,,,,,,,,,,,,,,,,,,,,,,,,,,,,,,,,,,,,,,,,,,,,,,,,,,,,,,,,,,,,,,,,,,,,,,,,,,,,,,,,,,,,,,
0,52,52,1,1,,611cde82784f11c1e17fe12b,62bbfa1d65911f18c84cfe18,2022-06-29_09h09.06.431,Colour_Asymmetry_Pilot,2022.1.3,MacIntel,60.0024001,62bbe60bf3d75ef465d3e404,,,,,,,,,,,,,,,,,,,,,,,,,,,,,,,,,,,,,,,,,,,,,,,,,,,,,,,,,,,,,,,,,,,,,,,,,,,,,,,,,,,,,,,,,,,,,,,,,,,,,,,,,,,,,,,,,,,,,,,,,,,,,,,,,,,,,,,,,,,,,,,,,,,,,,,,,,,,,
0,53,53,7,1,,611cde82784f11c1e17fe12b,62bbfa1d65911f18c84cfe18,2022-06-29_09h09.06.431,Colour_Asymmetry_Pilot,2022.1.3,MacIntel,60.0024001,62bbe60bf3d75ef465d3e404,,,,,,,,,,,,,,,,,,,,,,,,,,,,,,,,,,,,,,,,,,,,,,,,,,,,,,,,,,,,,,,,,,,,,,,,,,,,,,,,,,,,,,,,,,,,,,,,,,,,,,,,,,,,,,,,,,,,,,,,,,,,,,,,,,,,,,,,,,,,,,,,,,,,,,,,,,,,,
0,54,54,78,1,,611cde82784f11c1e17fe12b,62bbfa1d65911f18c84cfe18,2022-06-29_09h09.06.431,Colour_Asymmetry_Pilot,2022.1.3,MacIntel,60.0024001,62bbe60bf3d75ef465d3e404,,,,,,,,,,,,,,,,,,,,,,,,,,,,,,,,,,,,,,,,,,,,,,,,,,,,,,,,,,,,,,,,,,,,,,,,,,,,,,,,,,,,,,,,,,,,,,,,,,,,,,,,,,,,,,,,,,,,,,,,,,,,,,,,,,,,,,,,,,,,,,,,,,,,,,,,,,,,,
0,55,55,48,1,,611cde82784f11c1e17fe12b,62bbfa1d65911f18c84cfe18,2022-06-29_09h09.06.431,Colour_Asymmetry_Pilot,2022.1.3,MacIntel,60.0024001,62bbe60bf3d75ef465d3e404,,,,,,,,,,,,,,,,,,,,,,,,,,,,,,,,,,,,,,,,,,,,,,,,,,,,,,,,,,,,,,,,,,,,,,,,,,,,,,,,,,,,,,,,,,,,,,,,,,,,,,,,,,,,,,,,,,,,,,,,,,,,,,,,,,,,,,,,,,,,,,,,,,,,,,,,,,,,,
0,56,56,26,1,,611cde82784f11c1e17fe12b,62bbfa1d65911f18c84cfe18,2022-06-29_09h09.06.431,Colour_Asymmetry_Pilot,2022.1.3,MacIntel,60.0024001,62bbe60bf3d75ef465d3e404,,,,,,,,,,,,,,,,,,,,,,,,,,,,,,,,,,,,,,,,,,,,,,,,,,,,,,,,,,,,,,,,,,,,,,,,,,,,,,,,,,,,,,,,,,,,,,,,,,,,,,,,,,,,,,,,,,,,,,,,,,,,,,,,,,,,,,,,,,,,,,,,,,,,,,,,,,,,,
0,57,57,66,1,,611cde82784f11c1e17fe12b,62bbfa1d65911f18c84cfe18,2022-06-29_09h09.06.431,Colour_Asymmetry_Pilot,2022.1.3,MacIntel,60.0024001,62bbe60bf3d75ef465d3e404,,,,,,,,,,,,,,,,,,,,,,,,,,,,,,,,,,,,,,,,,,,,,,,,,,,,,,,,,,,,,,,,,,,,,,,,,,,,,,,,,,,,,,,,,,,,,,,,,,,,,,,,,,,,,,,,,,,,,,,,,,,,,,,,,,,,,,,,,,,,,,,,,,,,,,,,,,,,,
0,58,58,38,1,,611cde82784f11c1e17fe12b,62bbfa1d65911f18c84cfe18,2022-06-29_09h09.06.431,Colour_Asymmetry_Pilot,2022.1.3,MacIntel,60.0024001,62bbe60bf3d75ef465d3e404,,,,,,,,,,,,,,,,,,,,,,,,,,,,,,,,,,,,,,,,,,,,,,,,,,,,,,,,,,,,,,,,,,,,,,,,,,,,,,,,,,,,,,,,,,,,,,,,,,,,,,,,,,,,,,,,,,,,,,,,,,,,,,,,,,,,,,,,,,,,,,,,,,,,,,,,,,,,,
0,59,59,41,1,,611cde82784f11c1e17fe12b,62bbfa1d65911f18c84cfe18,2022-06-29_09h09.06.431,Colour_Asymmetry_Pilot,2022.1.3,MacIntel,60.0024001,62bbe60bf3d75ef465d3e404,,,,,,,,,,,,,,,,,,,,,,,,,,,,,,,,,,,,,,,,,,,,,,,,,,,,,,,,,,,,,,,,,,,,,,,,,,,,,,,,,,,,,,,,,,,,,,,,,,,,,,,,,,,,,,,,,,,,,,,,,,,,,,,,,,,,,,,,,,,,,,,,,,,,,,,,,,,,,
0,60,60,81,1,,611cde82784f11c1e17fe12b,62bbfa1d65911f18c84cfe18,2022-06-29_09h09.06.431,Colour_Asymmetry_Pilot,2022.1.3,MacIntel,60.0024001,62bbe60bf3d75ef465d3e404,,,,,,,,,,,,,,,,,,,,,,,,,,,,,,,,,,,,,,,,,,,,,,,,,,,,,,,,,,,,,,,,,,,,,,,,,,,,,,,,,,,,,,,,,,,,,,,,,,,,,,,,,,,,,,,,,,,,,,,,,,,,,,,,,,,,,,,,,,,,,,,,,,,,,,,,,,,,,
0,61,61,56,1,,611cde82784f11c1e17fe12b,62bbfa1d65911f18c84cfe18,2022-06-29_09h09.06.431,Colour_Asymmetry_Pilot,2022.1.3,MacIntel,60.0024001,62bbe60bf3d75ef465d3e404,,,,,,,,,,,,,,,,,,,,,,,,,,,,,,,,,,,,,,,,,,,,,,,,,,,,,,,,,,,,,,,,,,,,,,,,,,,,,,,,,,,,,,,,,,,,,,,,,,,,,,,,,,,,,,,,,,,,,,,,,,,,,,,,,,,,,,,,,,,,,,,,,,,,,,,,,,,,,
0,62,62,27,1,,611cde82784f11c1e17fe12b,62bbfa1d65911f18c84cfe18,2022-06-29_09h09.06.431,Colour_Asymmetry_Pilot,2022.1.3,MacIntel,60.0024001,62bbe60bf3d75ef465d3e404,,,,,,,,,,,,,,,,,,,,,,,,,,,,,,,,,,,,,,,,,,,,,,,,,,,,,,,,,,,,,,,,,,,,,,,,,,,,,,,,,,,,,,,,,,,,,,,,,,,,,,,,,,,,,,,,,,,,,,,,,,,,,,,,,,,,,,,,,,,,,,,,,,,,,,,,,,,,,
0,63,63,83,1,,611cde82784f11c1e17fe12b,62bbfa1d65911f18c84cfe18,2022-06-29_09h09.06.431,Colour_Asymmetry_Pilot,2022.1.3,MacIntel,60.0024001,62bbe60bf3d75ef465d3e404,,,,,,,,,,,,,,,,,,,,,,,,,,,,,,,,,,,,,,,,,,,,,,,,,,,,,,,,,,,,,,,,,,,,,,,,,,,,,,,,,,,,,,,,,,,,,,,,,,,,,,,,,,,,,,,,,,,,,,,,,,,,,,,,,,,,,,,,,,,,,,,,,,,,,,,,,,,,,
0,64,64,43,1,,611cde82784f11c1e17fe12b,62bbfa1d65911f18c84cfe18,2022-06-29_09h09.06.431,Colour_Asymmetry_Pilot,2022.1.3,MacIntel,60.0024001,62bbe60bf3d75ef465d3e404,,,,,,,,,,,,,,,,,,,,,,,,,,,,,,,,,,,,,,,,,,,,,,,,,,,,,,,,,,,,,,,,,,,,,,,,,,,,,,,,,,,,,,,,,,,,,,,,,,,,,,,,,,,,,,,,,,,,,,,,,,,,,,,,,,,,,,,,,,,,,,,,,,,,,,,,,,,,,
0,65,65,51,1,,611cde82784f11c1e17fe12b,62bbfa1d65911f18c84cfe18,2022-06-29_09h09.06.431,Colour_Asymmetry_Pilot,2022.1.3,MacIntel,60.0024001,62bbe60bf3d75ef465d3e404,,,,,,,,,,,,,,,,,,,,,,,,,,,,,,,,,,,,,,,,,,,,,,,,,,,,,,,,,,,,,,,,,,,,,,,,,,,,,,,,,,,,,,,,,,,,,,,,,,,,,,,,,,,,,,,,,,,,,,,,,,,,,,,,,,,,,,,,,,,,,,,,,,,,,,,,,,,,,
0,66,66,63,1,,611cde82784f11c1e17fe12b,62bbfa1d65911f18c84cfe18,2022-06-29_09h09.06.431,Colour_Asymmetry_Pilot,2022.1.3,MacIntel,60.0024001,62bbe60bf3d75ef465d3e404,,,,,,,,,,,,,,,,,,,,,,,,,,,,,,,,,,,,,,,,,,,,,,,,,,,,,,,,,,,,,,,,,,,,,,,,,,,,,,,,,,,,,,,,,,,,,,,,,,,,,,,,,,,,,,,,,,,,,,,,,,,,,,,,,,,,,,,,,,,,,,,,,,,,,,,,,,,,,
0,67,67,10,1,,611cde82784f11c1e17fe12b,62bbfa1d65911f18c84cfe18,2022-06-29_09h09.06.431,Colour_Asymmetry_Pilot,2022.1.3,MacIntel,60.0024001,62bbe60bf3d75ef465d3e404,,,,,,,,,,,,,,,,,,,,,,,,,,,,,,,,,,,,,,,,,,,,,,,,,,,,,,,,,,,,,,,,,,,,,,,,,,,,,,,,,,,,,,,,,,,,,,,,,,,,,,,,,,,,,,,,,,,,,,,,,,,,,,,,,,,,,,,,,,,,,,,,,,,,,,,,,,,,,
0,68,68,46,1,,611cde82784f11c1e17fe12b,62bbfa1d65911f18c84cfe18,2022-06-29_09h09.06.431,Colour_Asymmetry_Pilot,2022.1.3,MacIntel,60.0024001,62bbe60bf3d75ef465d3e404,,,,,,,,,,,,,,,,,,,,,,,,,,,,,,,,,,,,,,,,,,,,,,,,,,,,,,,,,,,,,,,,,,,,,,,,,,,,,,,,,,,,,,,,,,,,,,,,,,,,,,,,,,,,,,,,,,,,,,,,,,,,,,,,,,,,,,,,,,,,,,,,,,,,,,,,,,,,,
0,69,69,67,1,,611cde82784f11c1e17fe12b,62bbfa1d65911f18c84cfe18,2022-06-29_09h09.06.431,Colour_Asymmetry_Pilot,2022.1.3,MacIntel,60.0024001,62bbe60bf3d75ef465d3e404,,,,,,,,,,,,,,,,,,,,,,,,,,,,,,,,,,,,,,,,,,,,,,,,,,,,,,,,,,,,,,,,,,,,,,,,,,,,,,,,,,,,,,,,,,,,,,,,,,,,,,,,,,,,,,,,,,,,,,,,,,,,,,,,,,,,,,,,,,,,,,,,,,,,,,,,,,,,,
0,70,70,30,1,,611cde82784f11c1e17fe12b,62bbfa1d65911f18c84cfe18,2022-06-29_09h09.06.431,Colour_Asymmetry_Pilot,2022.1.3,MacIntel,60.0024001,62bbe60bf3d75ef465d3e404,,,,,,,,,,,,,,,,,,,,,,,,,,,,,,,,,,,,,,,,,,,,,,,,,,,,,,,,,,,,,,,,,,,,,,,,,,,,,,,,,,,,,,,,,,,,,,,,,,,,,,,,,,,,,,,,,,,,,,,,,,,,,,,,,,,,,,,,,,,,,,,,,,,,,,,,,,,,,
0,71,71,36,1,,611cde82784f11c1e17fe12b,62bbfa1d65911f18c84cfe18,2022-06-29_09h09.06.431,Colour_Asymmetry_Pilot,2022.1.3,MacIntel,60.0024001,62bbe60bf3d75ef465d3e404,,,,,,,,,,,,,,,,,,,,,,,,,,,,,,,,,,,,,,,,,,,,,,,,,,,,,,,,,,,,,,,,,,,,,,,,,,,,,,,,,,,,,,,,,,,,,,,,,,,,,,,,,,,,,,,,,,,,,,,,,,,,,,,,,,,,,,,,,,,,,,,,,,,,,,,,,,,,,
0,72,72,57,1,,611cde82784f11c1e17fe12b,62bbfa1d65911f18c84cfe18,2022-06-29_09h09.06.431,Colour_Asymmetry_Pilot,2022.1.3,MacIntel,60.0024001,62bbe60bf3d75ef465d3e404,,,,,,,,,,,,,,,,,,,,,,,,,,,,,,,,,,,,,,,,,,,,,,,,,,,,,,,,,,,,,,,,,,,,,,,,,,,,,,,,,,,,,,,,,,,,,,,,,,,,,,,,,,,,,,,,,,,,,,,,,,,,,,,,,,,,,,,,,,,,,,,,,,,,,,,,,,,,,
0,73,73,8,1,,611cde82784f11c1e17fe12b,62bbfa1d65911f18c84cfe18,2022-06-29_09h09.06.431,Colour_Asymmetry_Pilot,2022.1.3,MacIntel,60.0024001,62bbe60bf3d75ef465d3e404,,,,,,,,,,,,,,,,,,,,,,,,,,,,,,,,,,,,,,,,,,,,,,,,,,,,,,,,,,,,,,,,,,,,,,,,,,,,,,,,,,,,,,,,,,,,,,,,,,,,,,,,,,,,,,,,,,,,,,,,,,,,,,,,,,,,,,,,,,,,,,,,,,,,,,,,,,,,,
0,74,74,13,1,,611cde82784f11c1e17fe12b,62bbfa1d65911f18c84cfe18,2022-06-29_09h09.06.431,Colour_Asymmetry_Pilot,2022.1.3,MacIntel,60.0024001,62bbe60bf3d75ef465d3e404,,,,,,,,,,,,,,,,,,,,,,,,,,,,,,,,,,,,,,,,,,,,,,,,,,,,,,,,,,,,,,,,,,,,,,,,,,,,,,,,,,,,,,,,,,,,,,,,,,,,,,,,,,,,,,,,,,,,,,,,,,,,,,,,,,,,,,,,,,,,,,,,,,,,,,,,,,,,,
0,75,75,4,1,,611cde82784f11c1e17fe12b,62bbfa1d65911f18c84cfe18,2022-06-29_09h09.06.431,Colour_Asymmetry_Pilot,2022.1.3,MacIntel,60.0024001,62bbe60bf3d75ef465d3e404,,,,,,,,,,,,,,,,,,,,,,,,,,,,,,,,,,,,,,,,,,,,,,,,,,,,,,,,,,,,,,,,,,,,,,,,,,,,,,,,,,,,,,,,,,,,,,,,,,,,,,,,,,,,,,,,,,,,,,,,,,,,,,,,,,,,,,,,,,,,,,,,,,,,,,,,,,,,,
0,76,76,87,1,,611cde82784f11c1e17fe12b,62bbfa1d65911f18c84cfe18,2022-06-29_09h09.06.431,Colour_Asymmetry_Pilot,2022.1.3,MacIntel,60.0024001,62bbe60bf3d75ef465d3e404,,,,,,,,,,,,,,,,,,,,,,,,,,,,,,,,,,,,,,,,,,,,,,,,,,,,,,,,,,,,,,,,,,,,,,,,,,,,,,,,,,,,,,,,,,,,,,,,,,,,,,,,,,,,,,,,,,,,,,,,,,,,,,,,,,,,,,,,,,,,,,,,,,,,,,,,,,,,,
0,77,77,9,1,,611cde82784f11c1e17fe12b,62bbfa1d65911f18c84cfe18,2022-06-29_09h09.06.431,Colour_Asymmetry_Pilot,2022.1.3,MacIntel,60.0024001,62bbe60bf3d75ef465d3e404,,,,,,,,,,,,,,,,,,,,,,,,,,,,,,,,,,,,,,,,,,,,,,,,,,,,,,,,,,,,,,,,,,,,,,,,,,,,,,,,,,,,,,,,,,,,,,,,,,,,,,,,,,,,,,,,,,,,,,,,,,,,,,,,,,,,,,,,,,,,,,,,,,,,,,,,,,,,,
0,78,78,60,1,,611cde82784f11c1e17fe12b,62bbfa1d65911f18c84cfe18,2022-06-29_09h09.06.431,Colour_Asymmetry_Pilot,2022.1.3,MacIntel,60.0024001,62bbe60bf3d75ef465d3e404,,,,,,,,,,,,,,,,,,,,,,,,,,,,,,,,,,,,,,,,,,,,,,,,,,,,,,,,,,,,,,,,,,,,,,,,,,,,,,,,,,,,,,,,,,,,,,,,,,,,,,,,,,,,,,,,,,,,,,,,,,,,,,,,,,,,,,,,,,,,,,,,,,,,,,,,,,,,,
0,79,79,76,1,,611cde82784f11c1e17fe12b,62bbfa1d65911f18c84cfe18,2022-06-29_09h09.06.431,Colour_Asymmetry_Pilot,2022.1.3,MacIntel,60.0024001,62bbe60bf3d75ef465d3e404,,,,,,,,,,,,,,,,,,,,,,,,,,,,,,,,,,,,,,,,,,,,,,,,,,,,,,,,,,,,,,,,,,,,,,,,,,,,,,,,,,,,,,,,,,,,,,,,,,,,,,,,,,,,,,,,,,,,,,,,,,,,,,,,,,,,,,,,,,,,,,,,,,,,,,,,,,,,,
0,80,80,28,1,,611cde82784f11c1e17fe12b,62bbfa1d65911f18c84cfe18,2022-06-29_09h09.06.431,Colour_Asymmetry_Pilot,2022.1.3,MacIntel,60.0024001,62bbe60bf3d75ef465d3e404,,,,,,,,,,,,,,,,,,,,,,,,,,,,,,,,,,,,,,,,,,,,,,,,,,,,,,,,,,,,,,,,,,,,,,,,,,,,,,,,,,,,,,,,,,,,,,,,,,,,,,,,,,,,,,,,,,,,,,,,,,,,,,,,,,,,,,,,,,,,,,,,,,,,,,,,,,,,,
0,81,81,85,1,,611cde82784f11c1e17fe12b,62bbfa1d65911f18c84cfe18,2022-06-29_09h09.06.431,Colour_Asymmetry_Pilot,2022.1.3,MacIntel,60.0024001,62bbe60bf3d75ef465d3e404,,,,,,,,,,,,,,,,,,,,,,,,,,,,,,,,,,,,,,,,,,,,,,,,,,,,,,,,,,,,,,,,,,,,,,,,,,,,,,,,,,,,,,,,,,,,,,,,,,,,,,,,,,,,,,,,,,,,,,,,,,,,,,,,,,,,,,,,,,,,,,,,,,,,,,,,,,,,,
0,82,82,23,1,,611cde82784f11c1e17fe12b,62bbfa1d65911f18c84cfe18,2022-06-29_09h09.06.431,Colour_Asymmetry_Pilot,2022.1.3,MacIntel,60.0024001,62bbe60bf3d75ef465d3e404,,,,,,,,,,,,,,,,,,,,,,,,,,,,,,,,,,,,,,,,,,,,,,,,,,,,,,,,,,,,,,,,,,,,,,,,,,,,,,,,,,,,,,,,,,,,,,,,,,,,,,,,,,,,,,,,,,,,,,,,,,,,,,,,,,,,,,,,,,,,,,,,,,,,,,,,,,,,,
0,83,83,80,1,,611cde82784f11c1e17fe12b,62bbfa1d65911f18c84cfe18,2022-06-29_09h09.06.431,Colour_Asymmetry_Pilot,2022.1.3,MacIntel,60.0024001,62bbe60bf3d75ef465d3e404,,,,,,,,,,,,,,,,,,,,,,,,,,,,,,,,,,,,,,,,,,,,,,,,,,,,,,,,,,,,,,,,,,,,,,,,,,,,,,,,,,,,,,,,,,,,,,,,,,,,,,,,,,,,,,,,,,,,,,,,,,,,,,,,,,,,,,,,,,,,,,,,,,,,,,,,,,,,,
0,84,84,35,1,,611cde82784f11c1e17fe12b,62bbfa1d65911f18c84cfe18,2022-06-29_09h09.06.431,Colour_Asymmetry_Pilot,2022.1.3,MacIntel,60.0024001,62bbe60bf3d75ef465d3e404,,,,,,,,,,,,,,,,,,,,,,,,,,,,,,,,,,,,,,,,,,,,,,,,,,,,,,,,,,,,,,,,,,,,,,,,,,,,,,,,,,,,,,,,,,,,,,,,,,,,,,,,,,,,,,,,,,,,,,,,,,,,,,,,,,,,,,,,,,,,,,,,,,,,,,,,,,,,,
0,85,85,77,1,,611cde82784f11c1e17fe12b,62bbfa1d65911f18c84cfe18,2022-06-29_09h09.06.431,Colour_Asymmetry_Pilot,2022.1.3,MacIntel,60.0024001,62bbe60bf3d75ef465d3e404,,,,,,,,,,,,,,,,,,,,,,,,,,,,,,,,,,,,,,,,,,,,,,,,,,,,,,,,,,,,,,,,,,,,,,,,,,,,,,,,,,,,,,,,,,,,,,,,,,,,,,,,,,,,,,,,,,,,,,,,,,,,,,,,,,,,,,,,,,,,,,,,,,,,,,,,,,,,,
0,86,86,5,1,,611cde82784f11c1e17fe12b,62bbfa1d65911f18c84cfe18,2022-06-29_09h09.06.431,Colour_Asymmetry_Pilot,2022.1.3,MacIntel,60.0024001,62bbe60bf3d75ef465d3e404,,,,,,,,,,,,,,,,,,,,,,,,,,,,,,,,,,,,,,,,,,,,,,,,,,,,,,,,,,,,,,,,,,,,,,,,,,,,,,,,,,,,,,,,,,,,,,,,,,,,,,,,,,,,,,,,,,,,,,,,,,,,,,,,,,,,,,,,,,,,,,,,,,,,,,,,,,,,,
0,87,87,50,1,,611cde82784f11c1e17fe12b,62bbfa1d65911f18c84cfe18,2022-06-29_09h09.06.431,Colour_Asymmetry_Pilot,2022.1.3,MacIntel,60.0024001,62bbe60bf3d75ef465d3e404,,,,,,,,,,,,,,,,,,,,,,,,,,,,,,,,,,,,,,,,,,,,,,,,,,,,,,,,,,,,,,,,,,,,,,,,,,,,,,,,,,,,,,,,,,,,,,,,,,,,,,,,,,,,,,,,,,,,,,,,,,,,,,,,,,,,,,,,,,,,,,,,,,,,,,,,,,,,,
0,88,88,82,1,,611cde82784f11c1e17fe12b,62bbfa1d65911f18c84cfe18,2022-06-29_09h09.06.431,Colour_Asymmetry_Pilot,2022.1.3,MacIntel,60.0024001,62bbe60bf3d75ef465d3e404,,,,,,,,,,,,,,,,,,,,,,,,,,,,,,,,,,,,,,,,,,,,,,,,,,,,,,,,,,,,,,,,,,,,,,,,,,,,,,,,,,,,,,,,,,,,,,,,,,,,,,,,,,,,,,,,,,,,,,,,,,,,,,,,,,,,,,,,,,,,,,,,,,,,,,,,,,,,,
0,89,89,47,1,,611cde82784f11c1e17fe12b,62bbfa1d65911f18c84cfe18,2022-06-29_09h09.06.431,Colour_Asymmetry_Pilot,2022.1.3,MacIntel,60.0024001,62bbe60bf3d75ef465d3e404,,,,,,,,,,,,,,,,,,,,,,,,,,,,,,,,,,,,,,,,,,,,,,,,,,,,,,,,,,,,,,,,,,,,,,,,,,,,,,,,,,,,,,,,,,,,,,,,,,,,,,,,,,,,,,,,,,,,,,,,,,,,,,,,,,,,,,,,,,,,,,,,,,,,,,,,,,,,,
0,90,90,6,1,,611cde82784f11c1e17fe12b,62bbfa1d65911f18c84cfe18,2022-06-29_09h09.06.431,Colour_Asymmetry_Pilot,2022.1.3,MacIntel,60.0024001,62bbe60bf3d75ef465d3e404,,,,,,,,,,,,,,,,,,,,,,,,,,,,,,,,,,,,,,,,,,,,,,,,,,,,,,,,,,,,,,,,,,,,,,,,,,,,,,,,,,,,,,,,,,,,,,,,,,,,,,,,,,,,,,,,,,,,,,,,,,,,,,,,,,,,,,,,,,,,,,,,,,,,,,,,,,,,,
0,91,91,59,1,,611cde82784f11c1e17fe12b,62bbfa1d65911f18c84cfe18,2022-06-29_09h09.06.431,Colour_Asymmetry_Pilot,2022.1.3,MacIntel,60.0024001,62bbe60bf3d75ef465d3e404,,,,,,,,,,,,,,,,,,,,,,,,,,,,,,,,,,,,,,,,,,,,,,,,,,,,,,,,,,,,,,,,,,,,,,,,,,,,,,,,,,,,,,,,,,,,,,,,,,,,,,,,,,,,,,,,,,,,,,,,,,,,,,,,,,,,,,,,,,,,,,,,,,,,,,,,,,,,,
0,92,92,21,1,,611cde82784f11c1e17fe12b,62bbfa1d65911f18c84cfe18,2022-06-29_09h09.06.431,Colour_Asymmetry_Pilot,2022.1.3,MacIntel,60.0024001,62bbe60bf3d75ef465d3e404,,,,,,,,,,,,,,,,,,,,,,,,,,,,,,,,,,,,,,,,,,,,,,,,,,,,,,,,,,,,,,,,,,,,,,,,,,,,,,,,,,,,,,,,,,,,,,,,,,,,,,,,,,,,,,,,,,,,,,,,,,,,,,,,,,,,,,,,,,,,,,,,,,,,,,,,,,,,,
,,,,,,611cde82784f11c1e17fe12b,62bbfa1d65911f18c84cfe18,2022-06-29_09h09.06.431,Colour_Asymmetry_Pilot,2022.1.3,MacIntel,60.0024001,62bbe60bf3d75ef465d3e404,0,0,0,7,1,fourthree,,,,,,,,,,,,,,,,,,,,,,,,,,,,,,,,,,,,,,,,,,,,,,,,,,,,,,,,,,,,,,,,,,,,,,,,,,,,,,,,,,,,,,,,,,,,,,,,,,,,,,,,,,,,,,,,,,,,,,,,,,,,,,,,,,,,,,,,,,,,,,,,,,,,,,,
,,,,,,611cde82784f11c1e17fe12b,62bbfa1d65911f18c84cfe18,2022-06-29_09h09.06.431,Colour_Asymmetry_Pilot,2022.1.3,MacIntel,60.0024001,62bbe60bf3d75ef465d3e404,0,1,1,141,1,threefour,,,,,,,,,,,,,,,,,,,,,,,,,,,,,,,,,,,,,,,,,,,,,,,,,,,,,,,,,,,,,,,,,,,,,,,,,,,,,,,,,,,,,,,,,,,,,,,,,,,,,,,,,,,,,,,,,,,,,,,,,,,,,,,,,,,,,,,,,,,,,,,,,,,,,,,
,,,,,,611cde82784f11c1e17fe12b,62bbfa1d65911f18c84cfe18,2022-06-29_09h09.06.431,Colour_Asymmetry_Pilot,2022.1.3,MacIntel,60.0024001,62bbe60bf3d75ef465d3e404,0,2,2,49,1,onethree,,,,,,,,,,,,,,,,,,,,,,,,,,,,,,,,,,,,,,,,,,,,,,,,,,,,,,,,,,,,,,,,,,,,,,,,,,,,,,,,,,,,,,,,,,,,,,,,,,,,,,,,,,,,,,,,,,,,,,,,,,,,,,,,,,,,,,,,,,,,,,,,,,,,,,,
,,,,,,611cde82784f11c1e17fe12b,62bbfa1d65911f18c84cfe18,2022-06-29_09h09.06.431,Colour_Asymmetry_Pilot,2022.1.3,MacIntel,60.0024001,62bbe60bf3d75ef465d3e404,0,3,3,156,1,threeone,,,,,,,,,,,,,,,,,,,,,,,,,,,,,,,,,,,,,,,,,,,,,,,,,,,,,,,,,,,,,,,,,,,,,,,,,,,,,,,,,,,,,,,,,,,,,,,,,,,,,,,,,,,,,,,,,,,,,,,,,,,,,,,,,,,,,,,,,,,,,,,,,,,,,,,
,,,,,,611cde82784f11c1e17fe12b,62bbfa1d65911f18c84cfe18,2022-06-29_09h09.06.431,Colour_Asymmetry_Pilot,2022.1.3,MacIntel,60.0024001,62bbe60bf3d75ef465d3e404,0,4,4,108,1,threeone,,,,,,,,,,,,,,,,,,,,,,,,,,,,,,,,,,,,,,,,,,,,,,,,,,,,,,,,,,,,,,,,,,,,,,,,,,,,,,,,,,,,,,,,,,,,,,,,,,,,,,,,,,,,,,,,,,,,,,,,,,,,,,,,,,,,,,,,,,,,,,,,,,,,,,,
,,,,,,611cde82784f11c1e17fe12b,62bbfa1d65911f18c84cfe18,2022-06-29_09h09.06.431,Colour_Asymmetry_Pilot,2022.1.3,MacIntel,60.0024001,62bbe60bf3d75ef465d3e404,0,5,5,112,1,onetwo,,,,,,,,,,,,,,,,,,,,,,,,,,,,,,,,,,,,,,,,,,,,,,,,,,,,,,,,,,,,,,,,,,,,,,,,,,,,,,,,,,,,,,,,,,,,,,,,,,,,,,,,,,,,,,,,,,,,,,,,,,,,,,,,,,,,,,,,,,,,,,,,,,,,,,,
,,,,,,611cde82784f11c1e17fe12b,62bbfa1d65911f18c84cfe18,2022-06-29_09h09.06.431,Colour_Asymmetry_Pilot,2022.1.3,MacIntel,60.0024001,62bbe60bf3d75ef465d3e404,0,6,6,51,1,twofour,,,,,,,,,,,,,,,,,,,,,,,,,,,,,,,,,,,,,,,,,,,,,,,,,,,,,,,,,,,,,,,,,,,,,,,,,,,,,,,,,,,,,,,,,,,,,,,,,,,,,,,,,,,,,,,,,,,,,,,,,,,,,,,,,,,,,,,,,,,,,,,,,,,,,,,
,,,,,,611cde82784f11c1e17fe12b,62bbfa1d65911f18c84cfe18,2022-06-29_09h09.06.431,Colour_Asymmetry_Pilot,2022.1.3,MacIntel,60.0024001,62bbe60bf3d75ef465d3e404,0,7,7,47,1,fourthree,,,,,,,,,,,,,,,,,,,,,,,,,,,,,,,,,,,,,,,,,,,,,,,,,,,,,,,,,,,,,,,,,,,,,,,,,,,,,,,,,,,,,,,,,,,,,,,,,,,,,,,,,,,,,,,,,,,,,,,,,,,,,,,,,,,,,,,,,,,,,,,,,,,,,,,
,,,,,,611cde82784f11c1e17fe12b,62bbfa1d65911f18c84cfe18,2022-06-29_09h09.06.431,Colour_Asymmetry_Pilot,2022.1.3,MacIntel,60.0024001,62bbe60bf3d75ef465d3e404,0,8,8,90,1,twoone,,,,,,,,,,,,,,,,,,,,,,,,,,,,,,,,,,,,,,,,,,,,,,,,,,,,,,,,,,,,,,,,,,,,,,,,,,,,,,,,,,,,,,,,,,,,,,,,,,,,,,,,,,,,,,,,,,,,,,,,,,,,,,,,,,,,,,,,,,,,,,,,,,,,,,,
,,,,,,611cde82784f11c1e17fe12b,62bbfa1d65911f18c84cfe18,2022-06-29_09h09.06.431,Colour_Asymmetry_Pilot,2022.1.3,MacIntel,60.0024001,62bbe60bf3d75ef465d3e404,0,9,9,92,1,threeone,,,,,,,,,,,,,,,,,,,,,,,,,,,,,,,,,,,,,,,,,,,,,,,,,,,,,,,,,,,,,,,,,,,,,,,,,,,,,,,,,,,,,,,,,,,,,,,,,,,,,,,,,,,,,,,,,,,,,,,,,,,,,,,,,,,,,,,,,,,,,,,,,,,,,,,
,,,,,,611cde82784f11c1e17fe12b,62bbfa1d65911f18c84cfe18,2022-06-29_09h09.06.431,Colour_Asymmetry_Pilot,2022.1.3,MacIntel,60.0024001,62bbe60bf3d75ef465d3e404,0,10,10,161,1,onethree,,,,,,,,,,,,,,,,,,,,,,,,,,,,,,,,,,,,,,,,,,,,,,,,,,,,,,,,,,,,,,,,,,,,,,,,,,,,,,,,,,,,,,,,,,,,,,,,,,,,,,,,,,,,,,,,,,,,,,,,,,,,,,,,,,,,,,,,,,,,,,,,,,,,,,,
,,,,,,611cde82784f11c1e17fe12b,62bbfa1d65911f18c84cfe18,2022-06-29_09h09.06.431,Colour_Asymmetry_Pilot,2022.1.3,MacIntel,60.0024001,62bbe60bf3d75ef465d3e404,0,11,11,118,1,fourtwo,,,,,,,,,,,,,,,,,,,,,,,,,,,,,,,,,,,,,,,,,,,,,,,,,,,,,,,,,,,,,,,,,,,,,,,,,,,,,,,,,,,,,,,,,,,,,,,,,,,,,,,,,,,,,,,,,,,,,,,,,,,,,,,,,,,,,,,,,,,,,,,,,,,,,,,
,,,,,,611cde82784f11c1e17fe12b,62bbfa1d65911f18c84cfe18,2022-06-29_09h09.06.431,Colour_Asymmetry_Pilot,2022.1.3,MacIntel,60.0024001,62bbe60bf3d75ef465d3e404,0,12,12,14,1,fourtwo,,,,,,,,,,,,,,,,,,,,,,,,,,,,,,,,,,,,,,,,,,,,,,,,,,,,,,,,,,,,,,,,,,,,,,,,,,,,,,,,,,,,,,,,,,,,,,,,,,,,,,,,,,,,,,,,,,,,,,,,,,,,,,,,,,,,,,,,,,,,,,,,,,,,,,,
,,,,,,611cde82784f11c1e17fe12b,62bbfa1d65911f18c84cfe18,2022-06-29_09h09.06.431,Colour_Asymmetry_Pilot,2022.1.3,MacIntel,60.0024001,62bbe60bf3d75ef465d3e404,0,13,13,148,1,threeone,,,,,,,,,,,,,,,,,,,,,,,,,,,,,,,,,,,,,,,,,,,,,,,,,,,,,,,,,,,,,,,,,,,,,,,,,,,,,,,,,,,,,,,,,,,,,,,,,,,,,,,,,,,,,,,,,,,,,,,,,,,,,,,,,,,,,,,,,,,,,,,,,,,,,,,
,,,,,,611cde82784f11c1e17fe12b,62bbfa1d65911f18c84cfe18,2022-06-29_09h09.06.431,Colour_Asymmetry_Pilot,2022.1.3,MacIntel,60.0024001,62bbe60bf3d75ef465d3e404,0,14,14,83,1,twofour,,,,,,,,,,,,,,,,,,,,,,,,,,,,,,,,,,,,,,,,,,,,,,,,,,,,,,,,,,,,,,,,,,,,,,,,,,,,,,,,,,,,,,,,,,,,,,,,,,,,,,,,,,,,,,,,,,,,,,,,,,,,,,,,,,,,,,,,,,,,,,,,,,,,,,,
,,,,,,611cde82784f11c1e17fe12b,62bbfa1d65911f18c84cfe18,2022-06-29_09h09.06.431,Colour_Asymmetry_Pilot,2022.1.3,MacIntel,60.0024001,62bbe60bf3d75ef465d3e404,0,15,15,30,1,fourtwo,,,,,,,,,,,,,,,,,,,,,,,,,,,,,,,,,,,,,,,,,,,,,,,,,,,,,,,,,,,,,,,,,,,,,,,,,,,,,,,,,,,,,,,,,,,,,,,,,,,,,,,,,,,,,,,,,,,,,,,,,,,,,,,,,,,,,,,,,,,,,,,,,,,,,,,
,,,,,,611cde82784f11c1e17fe12b,62bbfa1d65911f18c84cfe18,2022-06-29_09h09.06.431,Colour_Asymmetry_Pilot,2022.1.3,MacIntel,60.0024001,62bbe60bf3d75ef465d3e404,0,16,16,91,1,twofour,,,,,,,,,,,,,,,,,,,,,,,,,,,,,,,,,,,,,,,,,,,,,,,,,,,,,,,,,,,,,,,,,,,,,,,,,,,,,,,,,,,,,,,,,,,,,,,,,,,,,,,,,,,,,,,,,,,,,,,,,,,,,,,,,,,,,,,,,,,,,,,,,,,,,,,
,,,,,,611cde82784f11c1e17fe12b,62bbfa1d65911f18c84cfe18,2022-06-29_09h09.06.431,Colour_Asymmetry_Pilot,2022.1.3,MacIntel,60.0024001,62bbe60bf3d75ef465d3e404,0,17,17,21,1,threefour,,,,,,,,,,,,,,,,,,,,,,,,,,,,,,,,,,,,,,,,,,,,,,,,,,,,,,,,,,,,,,,,,,,,,,,,,,,,,,,,,,,,,,,,,,,,,,,,,,,,,,,,,,,,,,,,,,,,,,,,,,,,,,,,,,,,,,,,,,,,,,,,,,,,,,,
,,,,,,611cde82784f11c1e17fe12b,62bbfa1d65911f18c84cfe18,2022-06-29_09h09.06.431,Colour_Asymmetry_Pilot,2022.1.3,MacIntel,60.0024001,62bbe60bf3d75ef465d3e404,0,18,18,55,1,fourthree,,,,,,,,,,,,,,,,,,,,,,,,,,,,,,,,,,,,,,,,,,,,,,,,,,,,,,,,,,,,,,,,,,,,,,,,,,,,,,,,,,,,,,,,,,,,,,,,,,,,,,,,,,,,,,,,,,,,,,,,,,,,,,,,,,,,,,,,,,,,,,,,,,,,,,,
,,,,,,611cde82784f11c1e17fe12b,62bbfa1d65911f18c84cfe18,2022-06-29_09h09.06.431,Colour_Asymmetry_Pilot,2022.1.3,MacIntel,60.0024001,62bbe60bf3d75ef465d3e404,0,19,19,72,1,onetwo,,,,,,,,,,,,,,,,,,,,,,,,,,,,,,,,,,,,,,,,,,,,,,,,,,,,,,,,,,,,,,,,,,,,,,,,,,,,,,,,,,,,,,,,,,,,,,,,,,,,,,,,,,,,,,,,,,,,,,,,,,,,,,,,,,,,,,,,,,,,,,,,,,,,,,,
,,,,,,611cde82784f11c1e17fe12b,62bbfa1d65911f18c84cfe18,2022-06-29_09h09.06.431,Colour_Asymmetry_Pilot,2022.1.3,MacIntel,60.0024001,62bbe60bf3d75ef465d3e404,0,20,20,69,1,threefour,,,,,,,,,,,,,,,,,,,,,,,,,,,,,,,,,,,,,,,,,,,,,,,,,,,,,,,,,,,,,,,,,,,,,,,,,,,,,,,,,,,,,,,,,,,,,,,,,,,,,,,,,,,,,,,,,,,,,,,,,,,,,,,,,,,,,,,,,,,,,,,,,,,,,,,
,,,,,,611cde82784f11c1e17fe12b,62bbfa1d65911f18c84cfe18,2022-06-29_09h09.06.431,Colour_Asymmetry_Pilot,2022.1.3,MacIntel,60.0024001,62bbe60bf3d75ef465d3e404,0,21,21,133,1,threefour,,,,,,,,,,,,,,,,,,,,,,,,,,,,,,,,,,,,,,,,,,,,,,,,,,,,,,,,,,,,,,,,,,,,,,,,,,,,,,,,,,,,,,,,,,,,,,,,,,,,,,,,,,,,,,,,,,,,,,,,,,,,,,,,,,,,,,,,,,,,,,,,,,,,,,,
,,,,,,611cde82784f11c1e17fe12b,62bbfa1d65911f18c84cfe18,2022-06-29_09h09.06.431,Colour_Asymmetry_Pilot,2022.1.3,MacIntel,60.0024001,62bbe60bf3d75ef465d3e404,0,22,22,120,1,onetwo,,,,,,,,,,,,,,,,,,,,,,,,,,,,,,,,,,,,,,,,,,,,,,,,,,,,,,,,,,,,,,,,,,,,,,,,,,,,,,,,,,,,,,,,,,,,,,,,,,,,,,,,,,,,,,,,,,,,,,,,,,,,,,,,,,,,,,,,,,,,,,,,,,,,,,,
,,,,,,611cde82784f11c1e17fe12b,62bbfa1d65911f18c84cfe18,2022-06-29_09h09.06.431,Colour_Asymmetry_Pilot,2022.1.3,MacIntel,60.0024001,62bbe60bf3d75ef465d3e404,0,23,23,3,1,twofour,,,,,,,,,,,,,,,,,,,,,,,,,,,,,,,,,,,,,,,,,,,,,,,,,,,,,,,,,,,,,,,,,,,,,,,,,,,,,,,,,,,,,,,,,,,,,,,,,,,,,,,,,,,,,,,,,,,,,,,,,,,,,,,,,,,,,,,,,,,,,,,,,,,,,,,
,,,,,,611cde82784f11c1e17fe12b,62bbfa1d65911f18c84cfe18,2022-06-29_09h09.06.431,Colour_Asymmetry_Pilot,2022.1.3,MacIntel,60.0024001,62bbe60bf3d75ef465d3e404,0,24,24,17,1,onethree,,,,,,,,,,,,,,,,,,,,,,,,,,,,,,,,,,,,,,,,,,,,,,,,,,,,,,,,,,,,,,,,,,,,,,,,,,,,,,,,,,,,,,,,,,,,,,,,,,,,,,,,,,,,,,,,,,,,,,,,,,,,,,,,,,,,,,,,,,,,,,,,,,,,,,,
,,,,,,611cde82784f11c1e17fe12b,62bbfa1d65911f18c84cfe18,2022-06-29_09h09.06.431,Colour_Asymmetry_Pilot,2022.1.3,MacIntel,60.0024001,62bbe60bf3d75ef465d3e404,0,25,25,33,1,onethree,,,,,,,,,,,,,,,,,,,,,,,,,,,,,,,,,,,,,,,,,,,,,,,,,,,,,,,,,,,,,,,,,,,,,,,,,,,,,,,,,,,,,,,,,,,,,,,,,,,,,,,,,,,,,,,,,,,,,,,,,,,,,,,,,,,,,,,,,,,,,,,,,,,,,,,
,,,,,,611cde82784f11c1e17fe12b,62bbfa1d65911f18c84cfe18,2022-06-29_09h09.06.431,Colour_Asymmetry_Pilot,2022.1.3,MacIntel,60.0024001,62bbe60bf3d75ef465d3e404,0,26,26,153,1,onethree,,,,,,,,,,,,,,,,,,,,,,,,,,,,,,,,,,,,,,,,,,,,,,,,,,,,,,,,,,,,,,,,,,,,,,,,,,,,,,,,,,,,,,,,,,,,,,,,,,,,,,,,,,,,,,,,,,,,,,,,,,,,,,,,,,,,,,,,,,,,,,,,,,,,,,,
,,,,,,611cde82784f11c1e17fe12b,62bbfa1d65911f18c84cfe18,2022-06-29_09h09.06.431,Colour_Asymmetry_Pilot,2022.1.3,MacIntel,60.0024001,62bbe60bf3d75ef465d3e404,0,27,27,32,1,onetwo,,,,,,,,,,,,,,,,,,,,,,,,,,,,,,,,,,,,,,,,,,,,,,,,,,,,,,,,,,,,,,,,,,,,,,,,,,,,,,,,,,,,,,,,,,,,,,,,,,,,,,,,,,,,,,,,,,,,,,,,,,,,,,,,,,,,,,,,,,,,,,,,,,,,,,,
,,,,,,611cde82784f11c1e17fe12b,62bbfa1d65911f18c84cfe18,2022-06-29_09h09.06.431,Colour_Asymmetry_Pilot,2022.1.3,MacIntel,60.0024001,62bbe60bf3d75ef465d3e404,0,28,28,2,1,twoone,,,,,,,,,,,,,,,,,,,,,,,,,,,,,,,,,,,,,,,,,,,,,,,,,,,,,,,,,,,,,,,,,,,,,,,,,,,,,,,,,,,,,,,,,,,,,,,,,,,,,,,,,,,,,,,,,,,,,,,,,,,,,,,,,,,,,,,,,,,,,,,,,,,,,,,
,,,,,,611cde82784f11c1e17fe12b,62bbfa1d65911f18c84cfe18,2022-06-29_09h09.06.431,Colour_Asymmetry_Pilot,2022.1.3,MacIntel,60.0024001,62bbe60bf3d75ef465d3e404,0,29,29,15,1,fourthree,,,,,,,,,,,,,,,,,,,,,,,,,,,,,,,,,,,,,,,,,,,,,,,,,,,,,,,,,,,,,,,,,,,,,,,,,,,,,,,,,,,,,,,,,,,,,,,,,,,,,,,,,,,,,,,,,,,,,,,,,,,,,,,,,,,,,,,,,,,,,,,,,,,,,,,
,,,,,,611cde82784f11c1e17fe12b,62bbfa1d65911f18c84cfe18,2022-06-29_09h09.06.431,Colour_Asymmetry_Pilot,2022.1.3,MacIntel,60.0024001,62bbe60bf3d75ef465d3e404,0,30,30,31,1,fourthree,,,,,,,,,,,,,,,,,,,,,,,,,,,,,,,,,,,,,,,,,,,,,,,,,,,,,,,,,,,,,,,,,,,,,,,,,,,,,,,,,,,,,,,,,,,,,,,,,,,,,,,,,,,,,,,,,,,,,,,,,,,,,,,,,,,,,,,,,,,,,,,,,,,,,,,
,,,,,,611cde82784f11c1e17fe12b,62bbfa1d65911f18c84cfe18,2022-06-29_09h09.06.431,Colour_Asymmetry_Pilot,2022.1.3,MacIntel,60.0024001,62bbe60bf3d75ef465d3e404,0,31,31,146,1,twoone,,,,,,,,,,,,,,,,,,,,,,,,,,,,,,,,,,,,,,,,,,,,,,,,,,,,,,,,,,,,,,,,,,,,,,,,,,,,,,,,,,,,,,,,,,,,,,,,,,,,,,,,,,,,,,,,,,,,,,,,,,,,,,,,,,,,,,,,,,,,,,,,,,,,,,,
,,,,,,611cde82784f11c1e17fe12b,62bbfa1d65911f18c84cfe18,2022-06-29_09h09.06.431,Colour_Asymmetry_Pilot,2022.1.3,MacIntel,60.0024001,62bbe60bf3d75ef465d3e404,0,32,32,9,1,onethree,,,,,,,,,,,,,,,,,,,,,,,,,,,,,,,,,,,,,,,,,,,,,,,,,,,,,,,,,,,,,,,,,,,,,,,,,,,,,,,,,,,,,,,,,,,,,,,,,,,,,,,,,,,,,,,,,,,,,,,,,,,,,,,,,,,,,,,,,,,,,,,,,,,,,,,
,,,,,,611cde82784f11c1e17fe12b,62bbfa1d65911f18c84cfe18,2022-06-29_09h09.06.431,Colour_Asymmetry_Pilot,2022.1.3,MacIntel,60.0024001,62bbe60bf3d75ef465d3e404,0,33,33,136,1,onetwo,,,,,,,,,,,,,,,,,,,,,,,,,,,,,,,,,,,,,,,,,,,,,,,,,,,,,,,,,,,,,,,,,,,,,,,,,,,,,,,,,,,,,,,,,,,,,,,,,,,,,,,,,,,,,,,,,,,,,,,,,,,,,,,,,,,,,,,,,,,,,,,,,,,,,,,
,,,,,,611cde82784f11c1e17fe12b,62bbfa1d65911f18c84cfe18,2022-06-29_09h09.06.431,Colour_Asymmetry_Pilot,2022.1.3,MacIntel,60.0024001,62bbe60bf3d75ef465d3e404,0,34,34,87,1,fourthree,,,,,,,,,,,,,,,,,,,,,,,,,,,,,,,,,,,,,,,,,,,,,,,,,,,,,,,,,,,,,,,,,,,,,,,,,,,,,,,,,,,,,,,,,,,,,,,,,,,,,,,,,,,,,,,,,,,,,,,,,,,,,,,,,,,,,,,,,,,,,,,,,,,,,,,
,,,,,,611cde82784f11c1e17fe12b,62bbfa1d65911f18c84cfe18,2022-06-29_09h09.06.431,Colour_Asymmetry_Pilot,2022.1.3,MacIntel,60.0024001,62bbe60bf3d75ef465d3e404,0,35,35,24,1,onetwo,,,,,,,,,,,,,,,,,,,,,,,,,,,,,,,,,,,,,,,,,,,,,,,,,,,,,,,,,,,,,,,,,,,,,,,,,,,,,,,,,,,,,,,,,,,,,,,,,,,,,,,,,,,,,,,,,,,,,,,,,,,,,,,,,,,,,,,,,,,,,,,,,,,,,,,
,,,,,,611cde82784f11c1e17fe12b,62bbfa1d65911f18c84cfe18,2022-06-29_09h09.06.431,Colour_Asymmetry_Pilot,2022.1.3,MacIntel,60.0024001,62bbe60bf3d75ef465d3e404,0,36,36,100,1,threeone,,,,,,,,,,,,,,,,,,,,,,,,,,,,,,,,,,,,,,,,,,,,,,,,,,,,,,,,,,,,,,,,,,,,,,,,,,,,,,,,,,,,,,,,,,,,,,,,,,,,,,,,,,,,,,,,,,,,,,,,,,,,,,,,,,,,,,,,,,,,,,,,,,,,,,,
,,,,,,611cde82784f11c1e17fe12b,62bbfa1d65911f18c84cfe18,2022-06-29_09h09.06.431,Colour_Asymmetry_Pilot,2022.1.3,MacIntel,60.0024001,62bbe60bf3d75ef465d3e404,0,37,37,117,1,threefour,,,,,,,,,,,,,,,,,,,,,,,,,,,,,,,,,,,,,,,,,,,,,,,,,,,,,,,,,,,,,,,,,,,,,,,,,,,,,,,,,,,,,,,,,,,,,,,,,,,,,,,,,,,,,,,,,,,,,,,,,,,,,,,,,,,,,,,,,,,,,,,,,,,,,,,
,,,,,,611cde82784f11c1e17fe12b,62bbfa1d65911f18c84cfe18,2022-06-29_09h09.06.431,Colour_Asymmetry_Pilot,2022.1.3,MacIntel,60.0024001,62bbe60bf3d75ef465d3e404,0,38,38,54,1,fourtwo,,,,,,,,,,,,,,,,,,,,,,,,,,,,,,,,,,,,,,,,,,,,,,,,,,,,,,,,,,,,,,,,,,,,,,,,,,,,,,,,,,,,,,,,,,,,,,,,,,,,,,,,,,,,,,,,,,,,,,,,,,,,,,,,,,,,,,,,,,,,,,,,,,,,,,,
,,,,,,611cde82784f11c1e17fe12b,62bbfa1d65911f18c84cfe18,2022-06-29_09h09.06.431,Colour_Asymmetry_Pilot,2022.1.3,MacIntel,60.0024001,62bbe60bf3d75ef465d3e404,0,39,39,48,1,onetwo,,,,,,,,,,,,,,,,,,,,,,,,,,,,,,,,,,,,,,,,,,,,,,,,,,,,,,,,,,,,,,,,,,,,,,,,,,,,,,,,,,,,,,,,,,,,,,,,,,,,,,,,,,,,,,,,,,,,,,,,,,,,,,,,,,,,,,,,,,,,,,,,,,,,,,,
,,,,,,611cde82784f11c1e17fe12b,62bbfa1d65911f18c84cfe18,2022-06-29_09h09.06.431,Colour_Asymmetry_Pilot,2022.1.3,MacIntel,60.0024001,62bbe60bf3d75ef465d3e404,0,40,40,152,1,onetwo,,,,,,,,,,,,,,,,,,,,,,,,,,,,,,,,,,,,,,,,,,,,,,,,,,,,,,,,,,,,,,,,,,,,,,,,,,,,,,,,,,,,,,,,,,,,,,,,,,,,,,,,,,,,,,,,,,,,,,,,,,,,,,,,,,,,,,,,,,,,,,,,,,,,,,,
,,,,,,611cde82784f11c1e17fe12b,62bbfa1d65911f18c84cfe18,2022-06-29_09h09.06.431,Colour_Asymmetry_Pilot,2022.1.3,MacIntel,60.0024001,62bbe60bf3d75ef465d3e404,0,41,41,81,1,onethree,,,,,,,,,,,,,,,,,,,,,,,,,,,,,,,,,,,,,,,,,,,,,,,,,,,,,,,,,,,,,,,,,,,,,,,,,,,,,,,,,,,,,,,,,,,,,,,,,,,,,,,,,,,,,,,,,,,,,,,,,,,,,,,,,,,,,,,,,,,,,,,,,,,,,,,
,,,,,,611cde82784f11c1e17fe12b,62bbfa1d65911f18c84cfe18,2022-06-29_09h09.06.431,Colour_Asymmetry_Pilot,2022.1.3,MacIntel,60.0024001,62bbe60bf3d75ef465d3e404,0,42,42,0,1,onetwo,,,,,,,,,,,,,,,,,,,,,,,,,,,,,,,,,,,,,,,,,,,,,,,,,,,,,,,,,,,,,,,,,,,,,,,,,,,,,,,,,,,,,,,,,,,,,,,,,,,,,,,,,,,,,,,,,,,,,,,,,,,,,,,,,,,,,,,,,,,,,,,,,,,,,,,
,,,,,,611cde82784f11c1e17fe12b,62bbfa1d65911f18c84cfe18,2022-06-29_09h09.06.431,Colour_Asymmetry_Pilot,2022.1.3,MacIntel,60.0024001,62bbe60bf3d75ef465d3e404,0,43,43,144,1,onetwo,,,,,,,,,,,,,,,,,,,,,,,,,,,,,,,,,,,,,,,,,,,,,,,,,,,,,,,,,,,,,,,,,,,,,,,,,,,,,,,,,,,,,,,,,,,,,,,,,,,,,,,,,,,,,,,,,,,,,,,,,,,,,,,,,,,,,,,,,,,,,,,,,,,,,,,
,,,,,,611cde82784f11c1e17fe12b,62bbfa1d65911f18c84cfe18,2022-06-29_09h09.06.431,Colour_Asymmetry_Pilot,2022.1.3,MacIntel,60.0024001,62bbe60bf3d75ef465d3e404,0,44,44,77,1,threefour,,,,,,,,,,,,,,,,,,,,,,,,,,,,,,,,,,,,,,,,,,,,,,,,,,,,,,,,,,,,,,,,,,,,,,,,,,,,,,,,,,,,,,,,,,,,,,,,,,,,,,,,,,,,,,,,,,,,,,,,,,,,,,,,,,,,,,,,,,,,,,,,,,,,,,,
,,,,,,611cde82784f11c1e17fe12b,62bbfa1d65911f18c84cfe18,2022-06-29_09h09.06.431,Colour_Asymmetry_Pilot,2022.1.3,MacIntel,60.0024001,62bbe60bf3d75ef465d3e404,0,45,45,58,1,twoone,,,,,,,,,,,,,,,,,,,,,,,,,,,,,,,,,,,,,,,,,,,,,,,,,,,,,,,,,,,,,,,,,,,,,,,,,,,,,,,,,,,,,,,,,,,,,,,,,,,,,,,,,,,,,,,,,,,,,,,,,,,,,,,,,,,,,,,,,,,,,,,,,,,,,,,
,,,,,,611cde82784f11c1e17fe12b,62bbfa1d65911f18c84cfe18,2022-06-29_09h09.06.431,Colour_Asymmetry_Pilot,2022.1.3,MacIntel,60.0024001,62bbe60bf3d75ef465d3e404,0,46,46,111,1,fourthree,,,,,,,,,,,,,,,,,,,,,,,,,,,,,,,,,,,,,,,,,,,,,,,,,,,,,,,,,,,,,,,,,,,,,,,,,,,,,,,,,,,,,,,,,,,,,,,,,,,,,,,,,,,,,,,,,,,,,,,,,,,,,,,,,,,,,,,,,,,,,,,,,,,,,,,
,,,,,,611cde82784f11c1e17fe12b,62bbfa1d65911f18c84cfe18,2022-06-29_09h09.06.431,Colour_Asymmetry_Pilot,2022.1.3,MacIntel,60.0024001,62bbe60bf3d75ef465d3e404,0,47,47,121,1,onethree,,,,,,,,,,,,,,,,,,,,,,,,,,,,,,,,,,,,,,,,,,,,,,,,,,,,,,,,,,,,,,,,,,,,,,,,,,,,,,,,,,,,,,,,,,,,,,,,,,,,,,,,,,,,,,,,,,,,,,,,,,,,,,,,,,,,,,,,,,,,,,,,,,,,,,,
,,,,,,611cde82784f11c1e17fe12b,62bbfa1d65911f18c84cfe18,2022-06-29_09h09.06.431,Colour_Asymmetry_Pilot,2022.1.3,MacIntel,60.0024001,62bbe60bf3d75ef465d3e404,0,48,48,129,1,onethree,,,,,,,,,,,,,,,,,,,,,,,,,,,,,,,,,,,,,,,,,,,,,,,,,,,,,,,,,,,,,,,,,,,,,,,,,,,,,,,,,,,,,,,,,,,,,,,,,,,,,,,,,,,,,,,,,,,,,,,,,,,,,,,,,,,,,,,,,,,,,,,,,,,,,,,
,,,,,,611cde82784f11c1e17fe12b,62bbfa1d65911f18c84cfe18,2022-06-29_09h09.06.431,Colour_Asymmetry_Pilot,2022.1.3,MacIntel,60.0024001,62bbe60bf3d75ef465d3e404,0,49,49,8,1,onetwo,,,,,,,,,,,,,,,,,,,,,,,,,,,,,,,,,,,,,,,,,,,,,,,,,,,,,,,,,,,,,,,,,,,,,,,,,,,,,,,,,,,,,,,,,,,,,,,,,,,,,,,,,,,,,,,,,,,,,,,,,,,,,,,,,,,,,,,,,,,,,,,,,,,,,,,
,,,,,,611cde82784f11c1e17fe12b,62bbfa1d65911f18c84cfe18,2022-06-29_09h09.06.431,Colour_Asymmetry_Pilot,2022.1.3,MacIntel,60.0024001,62bbe60bf3d75ef465d3e404,0,50,50,38,1,fourtwo,,,,,,,,,,,,,,,,,,,,,,,,,,,,,,,,,,,,,,,,,,,,,,,,,,,,,,,,,,,,,,,,,,,,,,,,,,,,,,,,,,,,,,,,,,,,,,,,,,,,,,,,,,,,,,,,,,,,,,,,,,,,,,,,,,,,,,,,,,,,,,,,,,,,,,,
,,,,,,611cde82784f11c1e17fe12b,62bbfa1d65911f18c84cfe18,2022-06-29_09h09.06.431,Colour_Asymmetry_Pilot,2022.1.3,MacIntel,60.0024001,62bbe60bf3d75ef465d3e404,0,51,51,5,1,threefour,,,,,,,,,,,,,,,,,,,,,,,,,,,,,,,,,,,,,,,,,,,,,,,,,,,,,,,,,,,,,,,,,,,,,,,,,,,,,,,,,,,,,,,,,,,,,,,,,,,,,,,,,,,,,,,,,,,,,,,,,,,,,,,,,,,,,,,,,,,,,,,,,,,,,,,
,,,,,,611cde82784f11c1e17fe12b,62bbfa1d65911f18c84cfe18,2022-06-29_09h09.06.431,Colour_Asymmetry_Pilot,2022.1.3,MacIntel,60.0024001,62bbe60bf3d75ef465d3e404,0,52,52,99,1,twofour,,,,,,,,,,,,,,,,,,,,,,,,,,,,,,,,,,,,,,,,,,,,,,,,,,,,,,,,,,,,,,,,,,,,,,,,,,,,,,,,,,,,,,,,,,,,,,,,,,,,,,,,,,,,,,,,,,,,,,,,,,,,,,,,,,,,,,,,,,,,,,,,,,,,,,,
,,,,,,611cde82784f11c1e17fe12b,62bbfa1d65911f18c84cfe18,2022-06-29_09h09.06.431,Colour_Asymmetry_Pilot,2022.1.3,MacIntel,60.0024001,62bbe60bf3d75ef465d3e404,0,53,53,116,1,threeone,,,,,,,,,,,,,,,,,,,,,,,,,,,,,,,,,,,,,,,,,,,,,,,,,,,,,,,,,,,,,,,,,,,,,,,,,,,,,,,,,,,,,,,,,,,,,,,,,,,,,,,,,,,,,,,,,,,,,,,,,,,,,,,,,,,,,,,,,,,,,,,,,,,,,,,
,,,,,,611cde82784f11c1e17fe12b,62bbfa1d65911f18c84cfe18,2022-06-29_09h09.06.431,Colour_Asymmetry_Pilot,2022.1.3,MacIntel,60.0024001,62bbe60bf3d75ef465d3e404,0,54,54,85,1,threefour,,,,,,,,,,,,,,,,,,,,,,,,,,,,,,,,,,,,,,,,,,,,,,,,,,,,,,,,,,,,,,,,,,,,,,,,,,,,,,,,,,,,,,,,,,,,,,,,,,,,,,,,,,,,,,,,,,,,,,,,,,,,,,,,,,,,,,,,,,,,,,,,,,,,,,,
,,,,,,611cde82784f11c1e17fe12b,62bbfa1d65911f18c84cfe18,2022-06-29_09h09.06.431,Colour_Asymmetry_Pilot,2022.1.3,MacIntel,60.0024001,62bbe60bf3d75ef465d3e404,0,55,55,43,1,twofour,,,,,,,,,,,,,,,,,,,,,,,,,,,,,,,,,,,,,,,,,,,,,,,,,,,,,,,,,,,,,,,,,,,,,,,,,,,,,,,,,,,,,,,,,,,,,,,,,,,,,,,,,,,,,,,,,,,,,,,,,,,,,,,,,,,,,,,,,,,,,,,,,,,,,,,
,,,,,,611cde82784f11c1e17fe12b,62bbfa1d65911f18c84cfe18,2022-06-29_09h09.06.431,Colour_Asymmetry_Pilot,2022.1.3,MacIntel,60.0024001,62bbe60bf3d75ef465d3e404,0,56,56,134,1,fourtwo,,,,,,,,,,,,,,,,,,,,,,,,,,,,,,,,,,,,,,,,,,,,,,,,,,,,,,,,,,,,,,,,,,,,,,,,,,,,,,,,,,,,,,,,,,,,,,,,,,,,,,,,,,,,,,,,,,,,,,,,,,,,,,,,,,,,,,,,,,,,,,,,,,,,,,,
,,,,,,611cde82784f11c1e17fe12b,62bbfa1d65911f18c84cfe18,2022-06-29_09h09.06.431,Colour_Asymmetry_Pilot,2022.1.3,MacIntel,60.0024001,62bbe60bf3d75ef465d3e404,0,57,57,61,1,threefour,,,,,,,,,,,,,,,,,,,,,,,,,,,,,,,,,,,,,,,,,,,,,,,,,,,,,,,,,,,,,,,,,,,,,,,,,,,,,,,,,,,,,,,,,,,,,,,,,,,,,,,,,,,,,,,,,,,,,,,,,,,,,,,,,,,,,,,,,,,,,,,,,,,,,,,
,,,,,,611cde82784f11c1e17fe12b,62bbfa1d65911f18c84cfe18,2022-06-29_09h09.06.431,Colour_Asymmetry_Pilot,2022.1.3,MacIntel,60.0024001,62bbe60bf3d75ef465d3e404,0,58,58,64,1,onetwo,,,,,,,,,,,,,,,,,,,,,,,,,,,,,,,,,,,,,,,,,,,,,,,,,,,,,,,,,,,,,,,,,,,,,,,,,,,,,,,,,,,,,,,,,,,,,,,,,,,,,,,,,,,,,,,,,,,,,,,,,,,,,,,,,,,,,,,,,,,,,,,,,,,,,,,
,,,,,,611cde82784f11c1e17fe12b,62bbfa1d65911f18c84cfe18,2022-06-29_09h09.06.431,Colour_Asymmetry_Pilot,2022.1.3,MacIntel,60.0024001,62bbe60bf3d75ef465d3e404,0,59,59,28,1,threeone,,,,,,,,,,,,,,,,,,,,,,,,,,,,,,,,,,,,,,,,,,,,,,,,,,,,,,,,,,,,,,,,,,,,,,,,,,,,,,,,,,,,,,,,,,,,,,,,,,,,,,,,,,,,,,,,,,,,,,,,,,,,,,,,,,,,,,,,,,,,,,,,,,,,,,,
,,,,,,611cde82784f11c1e17fe12b,62bbfa1d65911f18c84cfe18,2022-06-29_09h09.06.431,Colour_Asymmetry_Pilot,2022.1.3,MacIntel,60.0024001,62bbe60bf3d75ef465d3e404,0,60,60,26,1,twoone,,,,,,,,,,,,,,,,,,,,,,,,,,,,,,,,,,,,,,,,,,,,,,,,,,,,,,,,,,,,,,,,,,,,,,,,,,,,,,,,,,,,,,,,,,,,,,,,,,,,,,,,,,,,,,,,,,,,,,,,,,,,,,,,,,,,,,,,,,,,,,,,,,,,,,,
,,,,,,611cde82784f11c1e17fe12b,62bbfa1d65911f18c84cfe18,2022-06-29_09h09.06.431,Colour_Asymmetry_Pilot,2022.1.3,MacIntel,60.0024001,62bbe60bf3d75ef465d3e404,0,61,61,78,1,fourtwo,,,,,,,,,,,,,,,,,,,,,,,,,,,,,,,,,,,,,,,,,,,,,,,,,,,,,,,,,,,,,,,,,,,,,,,,,,,,,,,,,,,,,,,,,,,,,,,,,,,,,,,,,,,,,,,,,,,,,,,,,,,,,,,,,,,,,,,,,,,,,,,,,,,,,,,
,,,,,,611cde82784f11c1e17fe12b,62bbfa1d65911f18c84cfe18,2022-06-29_09h09.06.431,Colour_Asymmetry_Pilot,2022.1.3,MacIntel,60.0024001,62bbe60bf3d75ef465d3e404,0,62,62,41,1,onethree,,,,,,,,,,,,,,,,,,,,,,,,,,,,,,,,,,,,,,,,,,,,,,,,,,,,,,,,,,,,,,,,,,,,,,,,,,,,,,,,,,,,,,,,,,,,,,,,,,,,,,,,,,,,,,,,,,,,,,,,,,,,,,,,,,,,,,,,,,,,,,,,,,,,,,,
,,,,,,611cde82784f11c1e17fe12b,62bbfa1d65911f18c84cfe18,2022-06-29_09h09.06.431,Colour_Asymmetry_Pilot,2022.1.3,MacIntel,60.0024001,62bbe60bf3d75ef465d3e404,0,63,63,35,1,twofour,,,,,,,,,,,,,,,,,,,,,,,,,,,,,,,,,,,,,,,,,,,,,,,,,,,,,,,,,,,,,,,,,,,,,,,,,,,,,,,,,,,,,,,,,,,,,,,,,,,,,,,,,,,,,,,,,,,,,,,,,,,,,,,,,,,,,,,,,,,,,,,,,,,,,,,
,,,,,,611cde82784f11c1e17fe12b,62bbfa1d65911f18c84cfe18,2022-06-29_09h09.06.431,Colour_Asymmetry_Pilot,2022.1.3,MacIntel,60.0024001,62bbe60bf3d75ef465d3e404,0,64,64,138,1,twoone,,,,,,,,,,,,,,,,,,,,,,,,,,,,,,,,,,,,,,,,,,,,,,,,,,,,,,,,,,,,,,,,,,,,,,,,,,,,,,,,,,,,,,,,,,,,,,,,,,,,,,,,,,,,,,,,,,,,,,,,,,,,,,,,,,,,,,,,,,,,,,,,,,,,,,,
,,,,,,611cde82784f11c1e17fe12b,62bbfa1d65911f18c84cfe18,2022-06-29_09h09.06.431,Colour_Asymmetry_Pilot,2022.1.3,MacIntel,60.0024001,62bbe60bf3d75ef465d3e404,0,65,65,16,1,onetwo,,,,,,,,,,,,,,,,,,,,,,,,,,,,,,,,,,,,,,,,,,,,,,,,,,,,,,,,,,,,,,,,,,,,,,,,,,,,,,,,,,,,,,,,,,,,,,,,,,,,,,,,,,,,,,,,,,,,,,,,,,,,,,,,,,,,,,,,,,,,,,,,,,,,,,,
,,,,,,611cde82784f11c1e17fe12b,62bbfa1d65911f18c84cfe18,2022-06-29_09h09.06.431,Colour_Asymmetry_Pilot,2022.1.3,MacIntel,60.0024001,62bbe60bf3d75ef465d3e404,0,66,66,127,1,fourthree,,,,,,,,,,,,,,,,,,,,,,,,,,,,,,,,,,,,,,,,,,,,,,,,,,,,,,,,,,,,,,,,,,,,,,,,,,,,,,,,,,,,,,,,,,,,,,,,,,,,,,,,,,,,,,,,,,,,,,,,,,,,,,,,,,,,,,,,,,,,,,,,,,,,,,,
,,,,,,611cde82784f11c1e17fe12b,62bbfa1d65911f18c84cfe18,2022-06-29_09h09.06.431,Colour_Asymmetry_Pilot,2022.1.3,MacIntel,60.0024001,62bbe60bf3d75ef465d3e404,0,67,67,126,1,fourtwo,,,,,,,,,,,,,,,,,,,,,,,,,,,,,,,,,,,,,,,,,,,,,,,,,,,,,,,,,,,,,,,,,,,,,,,,,,,,,,,,,,,,,,,,,,,,,,,,,,,,,,,,,,,,,,,,,,,,,,,,,,,,,,,,,,,,,,,,,,,,,,,,,,,,,,,
,,,,,,611cde82784f11c1e17fe12b,62bbfa1d65911f18c84cfe18,2022-06-29_09h09.06.431,Colour_Asymmetry_Pilot,2022.1.3,MacIntel,60.0024001,62bbe60bf3d75ef465d3e404,0,68,68,62,1,fourtwo,,,,,,,,,,,,,,,,,,,,,,,,,,,,,,,,,,,,,,,,,,,,,,,,,,,,,,,,,,,,,,,,,,,,,,,,,,,,,,,,,,,,,,,,,,,,,,,,,,,,,,,,,,,,,,,,,,,,,,,,,,,,,,,,,,,,,,,,,,,,,,,,,,,,,,,
,,,,,,611cde82784f11c1e17fe12b,62bbfa1d65911f18c84cfe18,2022-06-29_09h09.06.431,Colour_Asymmetry_Pilot,2022.1.3,MacIntel,60.0024001,62bbe60bf3d75ef465d3e404,0,69,69,110,1,fourtwo,,,,,,,,,,,,,,,,,,,,,,,,,,,,,,,,,,,,,,,,,,,,,,,,,,,,,,,,,,,,,,,,,,,,,,,,,,,,,,,,,,,,,,,,,,,,,,,,,,,,,,,,,,,,,,,,,,,,,,,,,,,,,,,,,,,,,,,,,,,,,,,,,,,,,,,
,,,,,,611cde82784f11c1e17fe12b,62bbfa1d65911f18c84cfe18,2022-06-29_09h09.06.431,Colour_Asymmetry_Pilot,2022.1.3,MacIntel,60.0024001,62bbe60bf3d75ef465d3e404,0,70,70,79,1,fourthree,,,,,,,,,,,,,,,,,,,,,,,,,,,,,,,,,,,,,,,,,,,,,,,,,,,,,,,,,,,,,,,,,,,,,,,,,,,,,,,,,,,,,,,,,,,,,,,,,,,,,,,,,,,,,,,,,,,,,,,,,,,,,,,,,,,,,,,,,,,,,,,,,,,,,,,
,,,,,,611cde82784f11c1e17fe12b,62bbfa1d65911f18c84cfe18,2022-06-29_09h09.06.431,Colour_Asymmetry_Pilot,2022.1.3,MacIntel,60.0024001,62bbe60bf3d75ef465d3e404,0,71,71,139,1,twofour,,,,,,,,,,,,,,,,,,,,,,,,,,,,,,,,,,,,,,,,,,,,,,,,,,,,,,,,,,,,,,,,,,,,,,,,,,,,,,,,,,,,,,,,,,,,,,,,,,,,,,,,,,,,,,,,,,,,,,,,,,,,,,,,,,,,,,,,,,,,,,,,,,,,,,,
,,,,,,611cde82784f11c1e17fe12b,62bbfa1d65911f18c84cfe18,2022-06-29_09h09.06.431,Colour_Asymmetry_Pilot,2022.1.3,MacIntel,60.0024001,62bbe60bf3d75ef465d3e404,0,72,72,95,1,fourthree,,,,,,,,,,,,,,,,,,,,,,,,,,,,,,,,,,,,,,,,,,,,,,,,,,,,,,,,,,,,,,,,,,,,,,,,,,,,,,,,,,,,,,,,,,,,,,,,,,,,,,,,,,,,,,,,,,,,,,,,,,,,,,,,,,,,,,,,,,,,,,,,,,,,,,,
,,,,,,611cde82784f11c1e17fe12b,62bbfa1d65911f18c84cfe18,2022-06-29_09h09.06.431,Colour_Asymmetry_Pilot,2022.1.3,MacIntel,60.0024001,62bbe60bf3d75ef465d3e404,0,73,73,1,1,onethree,,,,,,,,,,,,,,,,,,,,,,,,,,,,,,,,,,,,,,,,,,,,,,,,,,,,,,,,,,,,,,,,,,,,,,,,,,,,,,,,,,,,,,,,,,,,,,,,,,,,,,,,,,,,,,,,,,,,,,,,,,,,,,,,,,,,,,,,,,,,,,,,,,,,,,,
,,,,,,611cde82784f11c1e17fe12b,62bbfa1d65911f18c84cfe18,2022-06-29_09h09.06.431,Colour_Asymmetry_Pilot,2022.1.3,MacIntel,60.0024001,62bbe60bf3d75ef465d3e404,0,74,74,94,1,fourtwo,,,,,,,,,,,,,,,,,,,,,,,,,,,,,,,,,,,,,,,,,,,,,,,,,,,,,,,,,,,,,,,,,,,,,,,,,,,,,,,,,,,,,,,,,,,,,,,,,,,,,,,,,,,,,,,,,,,,,,,,,,,,,,,,,,,,,,,,,,,,,,,,,,,,,,,
,,,,,,611cde82784f11c1e17fe12b,62bbfa1d65911f18c84cfe18,2022-06-29_09h09.06.431,Colour_Asymmetry_Pilot,2022.1.3,MacIntel,60.0024001,62bbe60bf3d75ef465d3e404,0,75,75,52,1,threeone,,,,,,,,,,,,,,,,,,,,,,,,,,,,,,,,,,,,,,,,,,,,,,,,,,,,,,,,,,,,,,,,,,,,,,,,,,,,,,,,,,,,,,,,,,,,,,,,,,,,,,,,,,,,,,,,,,,,,,,,,,,,,,,,,,,,,,,,,,,,,,,,,,,,,,,
,,,,,,611cde82784f11c1e17fe12b,62bbfa1d65911f18c84cfe18,2022-06-29_09h09.06.431,Colour_Asymmetry_Pilot,2022.1.3,MacIntel,60.0024001,62bbe60bf3d75ef465d3e404,0,76,76,65,1,onethree,,,,,,,,,,,,,,,,,,,,,,,,,,,,,,,,,,,,,,,,,,,,,,,,,,,,,,,,,,,,,,,,,,,,,,,,,,,,,,,,,,,,,,,,,,,,,,,,,,,,,,,,,,,,,,,,,,,,,,,,,,,,,,,,,,,,,,,,,,,,,,,,,,,,,,,
,,,,,,611cde82784f11c1e17fe12b,62bbfa1d65911f18c84cfe18,2022-06-29_09h09.06.431,Colour_Asymmetry_Pilot,2022.1.3,MacIntel,60.0024001,62bbe60bf3d75ef465d3e404,0,77,77,135,1,fourthree,,,,,,,,,,,,,,,,,,,,,,,,,,,,,,,,,,,,,,,,,,,,,,,,,,,,,,,,,,,,,,,,,,,,,,,,,,,,,,,,,,,,,,,,,,,,,,,,,,,,,,,,,,,,,,,,,,,,,,,,,,,,,,,,,,,,,,,,,,,,,,,,,,,,,,,
,,,,,,611cde82784f11c1e17fe12b,62bbfa1d65911f18c84cfe18,2022-06-29_09h09.06.431,Colour_Asymmetry_Pilot,2022.1.3,MacIntel,60.0024001,62bbe60bf3d75ef465d3e404,0,78,78,131,1,twofour,,,,,,,,,,,,,,,,,,,,,,,,,,,,,,,,,,,,,,,,,,,,,,,,,,,,,,,,,,,,,,,,,,,,,,,,,,,,,,,,,,,,,,,,,,,,,,,,,,,,,,,,,,,,,,,,,,,,,,,,,,,,,,,,,,,,,,,,,,,,,,,,,,,,,,,
,,,,,,611cde82784f11c1e17fe12b,62bbfa1d65911f18c84cfe18,2022-06-29_09h09.06.431,Colour_Asymmetry_Pilot,2022.1.3,MacIntel,60.0024001,62bbe60bf3d75ef465d3e404,0,79,79,40,1,onetwo,,,,,,,,,,,,,,,,,,,,,,,,,,,,,,,,,,,,,,,,,,,,,,,,,,,,,,,,,,,,,,,,,,,,,,,,,,,,,,,,,,,,,,,,,,,,,,,,,,,,,,,,,,,,,,,,,,,,,,,,,,,,,,,,,,,,,,,,,,,,,,,,,,,,,,,
,,,,,,611cde82784f11c1e17fe12b,62bbfa1d65911f18c84cfe18,2022-06-29_09h09.06.431,Colour_Asymmetry_Pilot,2022.1.3,MacIntel,60.0024001,62bbe60bf3d75ef465d3e404,0,80,80,114,1,twoone,,,,,,,,,,,,,,,,,,,,,,,,,,,,,,,,,,,,,,,,,,,,,,,,,,,,,,,,,,,,,,,,,,,,,,,,,,,,,,,,,,,,,,,,,,,,,,,,,,,,,,,,,,,,,,,,,,,,,,,,,,,,,,,,,,,,,,,,,,,,,,,,,,,,,,,
,,,,,,611cde82784f11c1e17fe12b,62bbfa1d65911f18c84cfe18,2022-06-29_09h09.06.431,Colour_Asymmetry_Pilot,2022.1.3,MacIntel,60.0024001,62bbe60bf3d75ef465d3e404,0,81,81,140,1,threeone,,,,,,,,,,,,,,,,,,,,,,,,,,,,,,,,,,,,,,,,,,,,,,,,,,,,,,,,,,,,,,,,,,,,,,,,,,,,,,,,,,,,,,,,,,,,,,,,,,,,,,,,,,,,,,,,,,,,,,,,,,,,,,,,,,,,,,,,,,,,,,,,,,,,,,,
,,,,,,611cde82784f11c1e17fe12b,62bbfa1d65911f18c84cfe18,2022-06-29_09h09.06.431,Colour_Asymmetry_Pilot,2022.1.3,MacIntel,60.0024001,62bbe60bf3d75ef465d3e404,0,82,82,18,1,twoone,,,,,,,,,,,,,,,,,,,,,,,,,,,,,,,,,,,,,,,,,,,,,,,,,,,,,,,,,,,,,,,,,,,,,,,,,,,,,,,,,,,,,,,,,,,,,,,,,,,,,,,,,,,,,,,,,,,,,,,,,,,,,,,,,,,,,,,,,,,,,,,,,,,,,,,
,,,,,,611cde82784f11c1e17fe12b,62bbfa1d65911f18c84cfe18,2022-06-29_09h09.06.431,Colour_Asymmetry_Pilot,2022.1.3,MacIntel,60.0024001,62bbe60bf3d75ef465d3e404,0,83,83,20,1,threeone,,,,,,,,,,,,,,,,,,,,,,,,,,,,,,,,,,,,,,,,,,,,,,,,,,,,,,,,,,,,,,,,,,,,,,,,,,,,,,,,,,,,,,,,,,,,,,,,,,,,,,,,,,,,,,,,,,,,,,,,,,,,,,,,,,,,,,,,,,,,,,,,,,,,,,,
,,,,,,611cde82784f11c1e17fe12b,62bbfa1d65911f18c84cfe18,2022-06-29_09h09.06.431,Colour_Asymmetry_Pilot,2022.1.3,MacIntel,60.0024001,62bbe60bf3d75ef465d3e404,0,84,84,93,1,threefour,,,,,,,,,,,,,,,,,,,,,,,,,,,,,,,,,,,,,,,,,,,,,,,,,,,,,,,,,,,,,,,,,,,,,,,,,,,,,,,,,,,,,,,,,,,,,,,,,,,,,,,,,,,,,,,,,,,,,,,,,,,,,,,,,,,,,,,,,,,,,,,,,,,,,,,
,,,,,,611cde82784f11c1e17fe12b,62bbfa1d65911f18c84cfe18,2022-06-29_09h09.06.431,Colour_Asymmetry_Pilot,2022.1.3,MacIntel,60.0024001,62bbe60bf3d75ef465d3e404,0,85,85,13,1,threefour,,,,,,,,,,,,,,,,,,,,,,,,,,,,,,,,,,,,,,,,,,,,,,,,,,,,,,,,,,,,,,,,,,,,,,,,,,,,,,,,,,,,,,,,,,,,,,,,,,,,,,,,,,,,,,,,,,,,,,,,,,,,,,,,,,,,,,,,,,,,,,,,,,,,,,,
,,,,,,611cde82784f11c1e17fe12b,62bbfa1d65911f18c84cfe18,2022-06-29_09h09.06.431,Colour_Asymmetry_Pilot,2022.1.3,MacIntel,60.0024001,62bbe60bf3d75ef465d3e404,0,86,86,60,1,threeone,,,,,,,,,,,,,,,,,,,,,,,,,,,,,,,,,,,,,,,,,,,,,,,,,,,,,,,,,,,,,,,,,,,,,,,,,,,,,,,,,,,,,,,,,,,,,,,,,,,,,,,,,,,,,,,,,,,,,,,,,,,,,,,,,,,,,,,,,,,,,,,,,,,,,,,
,,,,,,611cde82784f11c1e17fe12b,62bbfa1d65911f18c84cfe18,2022-06-29_09h09.06.431,Colour_Asymmetry_Pilot,2022.1.3,MacIntel,60.0024001,62bbe60bf3d75ef465d3e404,0,87,87,36,1,threeone,,,,,,,,,,,,,,,,,,,,,,,,,,,,,,,,,,,,,,,,,,,,,,,,,,,,,,,,,,,,,,,,,,,,,,,,,,,,,,,,,,,,,,,,,,,,,,,,,,,,,,,,,,,,,,,,,,,,,,,,,,,,,,,,,,,,,,,,,,,,,,,,,,,,,,,
,,,,,,611cde82784f11c1e17fe12b,62bbfa1d65911f18c84cfe18,2022-06-29_09h09.06.431,Colour_Asymmetry_Pilot,2022.1.3,MacIntel,60.0024001,62bbe60bf3d75ef465d3e404,0,88,88,66,1,twoone,,,,,,,,,,,,,,,,,,,,,,,,,,,,,,,,,,,,,,,,,,,,,,,,,,,,,,,,,,,,,,,,,,,,,,,,,,,,,,,,,,,,,,,,,,,,,,,,,,,,,,,,,,,,,,,,,,,,,,,,,,,,,,,,,,,,,,,,,,,,,,,,,,,,,,,
,,,,,,611cde82784f11c1e17fe12b,62bbfa1d65911f18c84cfe18,2022-06-29_09h09.06.431,Colour_Asymmetry_Pilot,2022.1.3,MacIntel,60.0024001,62bbe60bf3d75ef465d3e404,0,89,89,6,1,fourtwo,,,,,,,,,,,,,,,,,,,,,,,,,,,,,,,,,,,,,,,,,,,,,,,,,,,,,,,,,,,,,,,,,,,,,,,,,,,,,,,,,,,,,,,,,,,,,,,,,,,,,,,,,,,,,,,,,,,,,,,,,,,,,,,,,,,,,,,,,,,,,,,,,,,,,,,
,,,,,,611cde82784f11c1e17fe12b,62bbfa1d65911f18c84cfe18,2022-06-29_09h09.06.431,Colour_Asymmetry_Pilot,2022.1.3,MacIntel,60.0024001,62bbe60bf3d75ef465d3e404,0,90,90,75,1,twofour,,,,,,,,,,,,,,,,,,,,,,,,,,,,,,,,,,,,,,,,,,,,,,,,,,,,,,,,,,,,,,,,,,,,,,,,,,,,,,,,,,,,,,,,,,,,,,,,,,,,,,,,,,,,,,,,,,,,,,,,,,,,,,,,,,,,,,,,,,,,,,,,,,,,,,,
,,,,,,611cde82784f11c1e17fe12b,62bbfa1d65911f18c84cfe18,2022-06-29_09h09.06.431,Colour_Asymmetry_Pilot,2022.1.3,MacIntel,60.0024001,62bbe60bf3d75ef465d3e404,0,91,91,4,1,threeone,,,,,,,,,,,,,,,,,,,,,,,,,,,,,,,,,,,,,,,,,,,,,,,,,,,,,,,,,,,,,,,,,,,,,,,,,,,,,,,,,,,,,,,,,,,,,,,,,,,,,,,,,,,,,,,,,,,,,,,,,,,,,,,,,,,,,,,,,,,,,,,,,,,,,,,
,,,,,,611cde82784f11c1e17fe12b,62bbfa1d65911f18c84cfe18,2022-06-29_09h09.06.431,Colour_Asymmetry_Pilot,2022.1.3,MacIntel,60.0024001,62bbe60bf3d75ef465d3e404,0,92,92,22,1,fourtwo,,,,,,,,,,,,,,,,,,,,,,,,,,,,,,,,,,,,,,,,,,,,,,,,,,,,,,,,,,,,,,,,,,,,,,,,,,,,,,,,,,,,,,,,,,,,,,,,,,,,,,,,,,,,,,,,,,,,,,,,,,,,,,,,,,,,,,,,,,,,,,,,,,,,,,,
,,,,,,611cde82784f11c1e17fe12b,62bbfa1d65911f18c84cfe18,2022-06-29_09h09.06.431,Colour_Asymmetry_Pilot,2022.1.3,MacIntel,60.0024001,62bbe60bf3d75ef465d3e404,0,93,93,125,1,threefour,,,,,,,,,,,,,,,,,,,,,,,,,,,,,,,,,,,,,,,,,,,,,,,,,,,,,,,,,,,,,,,,,,,,,,,,,,,,,,,,,,,,,,,,,,,,,,,,,,,,,,,,,,,,,,,,,,,,,,,,,,,,,,,,,,,,,,,,,,,,,,,,,,,,,,,
,,,,,,611cde82784f11c1e17fe12b,62bbfa1d65911f18c84cfe18,2022-06-29_09h09.06.431,Colour_Asymmetry_Pilot,2022.1.3,MacIntel,60.0024001,62bbe60bf3d75ef465d3e404,0,94,94,130,1,twoone,,,,,,,,,,,,,,,,,,,,,,,,,,,,,,,,,,,,,,,,,,,,,,,,,,,,,,,,,,,,,,,,,,,,,,,,,,,,,,,,,,,,,,,,,,,,,,,,,,,,,,,,,,,,,,,,,,,,,,,,,,,,,,,,,,,,,,,,,,,,,,,,,,,,,,,
,,,,,,611cde82784f11c1e17fe12b,62bbfa1d65911f18c84cfe18,2022-06-29_09h09.06.431,Colour_Asymmetry_Pilot,2022.1.3,MacIntel,60.0024001,62bbe60bf3d75ef465d3e404,0,95,95,101,1,threefour,,,,,,,,,,,,,,,,,,,,,,,,,,,,,,,,,,,,,,,,,,,,,,,,,,,,,,,,,,,,,,,,,,,,,,,,,,,,,,,,,,,,,,,,,,,,,,,,,,,,,,,,,,,,,,,,,,,,,,,,,,,,,,,,,,,,,,,,,,,,,,,,,,,,,,,
,,,,,,611cde82784f11c1e17fe12b,62bbfa1d65911f18c84cfe18,2022-06-29_09h09.06.431,Colour_Asymmetry_Pilot,2022.1.3,MacIntel,60.0024001,62bbe60bf3d75ef465d3e404,0,96,96,70,1,fourtwo,,,,,,,,,,,,,,,,,,,,,,,,,,,,,,,,,,,,,,,,,,,,,,,,,,,,,,,,,,,,,,,,,,,,,,,,,,,,,,,,,,,,,,,,,,,,,,,,,,,,,,,,,,,,,,,,,,,,,,,,,,,,,,,,,,,,,,,,,,,,,,,,,,,,,,,
,,,,,,611cde82784f11c1e17fe12b,62bbfa1d65911f18c84cfe18,2022-06-29_09h09.06.431,Colour_Asymmetry_Pilot,2022.1.3,MacIntel,60.0024001,62bbe60bf3d75ef465d3e404,0,97,97,137,1,onethree,,,,,,,,,,,,,,,,,,,,,,,,,,,,,,,,,,,,,,,,,,,,,,,,,,,,,,,,,,,,,,,,,,,,,,,,,,,,,,,,,,,,,,,,,,,,,,,,,,,,,,,,,,,,,,,,,,,,,,,,,,,,,,,,,,,,,,,,,,,,,,,,,,,,,,,
,,,,,,611cde82784f11c1e17fe12b,62bbfa1d65911f18c84cfe18,2022-06-29_09h09.06.431,Colour_Asymmetry_Pilot,2022.1.3,MacIntel,60.0024001,62bbe60bf3d75ef465d3e404,0,98,98,86,1,fourtwo,,,,,,,,,,,,,,,,,,,,,,,,,,,,,,,,,,,,,,,,,,,,,,,,,,,,,,,,,,,,,,,,,,,,,,,,,,,,,,,,,,,,,,,,,,,,,,,,,,,,,,,,,,,,,,,,,,,,,,,,,,,,,,,,,,,,,,,,,,,,,,,,,,,,,,,
,,,,,,611cde82784f11c1e17fe12b,62bbfa1d65911f18c84cfe18,2022-06-29_09h09.06.431,Colour_Asymmetry_Pilot,2022.1.3,MacIntel,60.0024001,62bbe60bf3d75ef465d3e404,0,99,99,11,1,twofour,,,,,,,,,,,,,,,,,,,,,,,,,,,,,,,,,,,,,,,,,,,,,,,,,,,,,,,,,,,,,,,,,,,,,,,,,,,,,,,,,,,,,,,,,,,,,,,,,,,,,,,,,,,,,,,,,,,,,,,,,,,,,,,,,,,,,,,,,,,,,,,,,,,,,,,
,,,,,,611cde82784f11c1e17fe12b,62bbfa1d65911f18c84cfe18,2022-06-29_09h09.06.431,Colour_Asymmetry_Pilot,2022.1.3,MacIntel,60.0024001,62bbe60bf3d75ef465d3e404,0,100,100,103,1,fourthree,,,,,,,,,,,,,,,,,,,,,,,,,,,,,,,,,,,,,,,,,,,,,,,,,,,,,,,,,,,,,,,,,,,,,,,,,,,,,,,,,,,,,,,,,,,,,,,,,,,,,,,,,,,,,,,,,,,,,,,,,,,,,,,,,,,,,,,,,,,,,,,,,,,,,,,
,,,,,,611cde82784f11c1e17fe12b,62bbfa1d65911f18c84cfe18,2022-06-29_09h09.06.431,Colour_Asymmetry_Pilot,2022.1.3,MacIntel,60.0024001,62bbe60bf3d75ef465d3e404,0,101,101,119,1,fourthree,,,,,,,,,,,,,,,,,,,,,,,,,,,,,,,,,,,,,,,,,,,,,,,,,,,,,,,,,,,,,,,,,,,,,,,,,,,,,,,,,,,,,,,,,,,,,,,,,,,,,,,,,,,,,,,,,,,,,,,,,,,,,,,,,,,,,,,,,,,,,,,,,,,,,,,
,,,,,,611cde82784f11c1e17fe12b,62bbfa1d65911f18c84cfe18,2022-06-29_09h09.06.431,Colour_Asymmetry_Pilot,2022.1.3,MacIntel,60.0024001,62bbe60bf3d75ef465d3e404,0,102,102,158,1,fourtwo,,,,,,,,,,,,,,,,,,,,,,,,,,,,,,,,,,,,,,,,,,,,,,,,,,,,,,,,,,,,,,,,,,,,,,,,,,,,,,,,,,,,,,,,,,,,,,,,,,,,,,,,,,,,,,,,,,,,,,,,,,,,,,,,,,,,,,,,,,,,,,,,,,,,,,,
,,,,,,611cde82784f11c1e17fe12b,62bbfa1d65911f18c84cfe18,2022-06-29_09h09.06.431,Colour_Asymmetry_Pilot,2022.1.3,MacIntel,60.0024001,62bbe60bf3d75ef465d3e404,0,103,103,107,1,twofour,,,,,,,,,,,,,,,,,,,,,,,,,,,,,,,,,,,,,,,,,,,,,,,,,,,,,,,,,,,,,,,,,,,,,,,,,,,,,,,,,,,,,,,,,,,,,,,,,,,,,,,,,,,,,,,,,,,,,,,,,,,,,,,,,,,,,,,,,,,,,,,,,,,,,,,
,,,,,,611cde82784f11c1e17fe12b,62bbfa1d65911f18c84cfe18,2022-06-29_09h09.06.431,Colour_Asymmetry_Pilot,2022.1.3,MacIntel,60.0024001,62bbe60bf3d75ef465d3e404,0,104,104,23,1,fourthree,,,,,,,,,,,,,,,,,,,,,,,,,,,,,,,,,,,,,,,,,,,,,,,,,,,,,,,,,,,,,,,,,,,,,,,,,,,,,,,,,,,,,,,,,,,,,,,,,,,,,,,,,,,,,,,,,,,,,,,,,,,,,,,,,,,,,,,,,,,,,,,,,,,,,,,
,,,,,,611cde82784f11c1e17fe12b,62bbfa1d65911f18c84cfe18,2022-06-29_09h09.06.431,Colour_Asymmetry_Pilot,2022.1.3,MacIntel,60.0024001,62bbe60bf3d75ef465d3e404,0,105,105,115,1,twofour,,,,,,,,,,,,,,,,,,,,,,,,,,,,,,,,,,,,,,,,,,,,,,,,,,,,,,,,,,,,,,,,,,,,,,,,,,,,,,,,,,,,,,,,,,,,,,,,,,,,,,,,,,,,,,,,,,,,,,,,,,,,,,,,,,,,,,,,,,,,,,,,,,,,,,,
,,,,,,611cde82784f11c1e17fe12b,62bbfa1d65911f18c84cfe18,2022-06-29_09h09.06.431,Colour_Asymmetry_Pilot,2022.1.3,MacIntel,60.0024001,62bbe60bf3d75ef465d3e404,0,106,106,98,1,twoone,,,,,,,,,,,,,,,,,,,,,,,,,,,,,,,,,,,,,,,,,,,,,,,,,,,,,,,,,,,,,,,,,,,,,,,,,,,,,,,,,,,,,,,,,,,,,,,,,,,,,,,,,,,,,,,,,,,,,,,,,,,,,,,,,,,,,,,,,,,,,,,,,,,,,,,
,,,,,,611cde82784f11c1e17fe12b,62bbfa1d65911f18c84cfe18,2022-06-29_09h09.06.431,Colour_Asymmetry_Pilot,2022.1.3,MacIntel,60.0024001,62bbe60bf3d75ef465d3e404,0,107,107,50,1,twoone,,,,,,,,,,,,,,,,,,,,,,,,,,,,,,,,,,,,,,,,,,,,,,,,,,,,,,,,,,,,,,,,,,,,,,,,,,,,,,,,,,,,,,,,,,,,,,,,,,,,,,,,,,,,,,,,,,,,,,,,,,,,,,,,,,,,,,,,,,,,,,,,,,,,,,,
,,,,,,611cde82784f11c1e17fe12b,62bbfa1d65911f18c84cfe18,2022-06-29_09h09.06.431,Colour_Asymmetry_Pilot,2022.1.3,MacIntel,60.0024001,62bbe60bf3d75ef465d3e404,0,108,108,97,1,onethree,,,,,,,,,,,,,,,,,,,,,,,,,,,,,,,,,,,,,,,,,,,,,,,,,,,,,,,,,,,,,,,,,,,,,,,,,,,,,,,,,,,,,,,,,,,,,,,,,,,,,,,,,,,,,,,,,,,,,,,,,,,,,,,,,,,,,,,,,,,,,,,,,,,,,,,
,,,,,,611cde82784f11c1e17fe12b,62bbfa1d65911f18c84cfe18,2022-06-29_09h09.06.431,Colour_Asymmetry_Pilot,2022.1.3,MacIntel,60.0024001,62bbe60bf3d75ef465d3e404,0,109,109,82,1,twoone,,,,,,,,,,,,,,,,,,,,,,,,,,,,,,,,,,,,,,,,,,,,,,,,,,,,,,,,,,,,,,,,,,,,,,,,,,,,,,,,,,,,,,,,,,,,,,,,,,,,,,,,,,,,,,,,,,,,,,,,,,,,,,,,,,,,,,,,,,,,,,,,,,,,,,,
,,,,,,611cde82784f11c1e17fe12b,62bbfa1d65911f18c84cfe18,2022-06-29_09h09.06.431,Colour_Asymmetry_Pilot,2022.1.3,MacIntel,60.0024001,62bbe60bf3d75ef465d3e404,0,110,110,63,1,fourthree,,,,,,,,,,,,,,,,,,,,,,,,,,,,,,,,,,,,,,,,,,,,,,,,,,,,,,,,,,,,,,,,,,,,,,,,,,,,,,,,,,,,,,,,,,,,,,,,,,,,,,,,,,,,,,,,,,,,,,,,,,,,,,,,,,,,,,,,,,,,,,,,,,,,,,,
,,,,,,611cde82784f11c1e17fe12b,62bbfa1d65911f18c84cfe18,2022-06-29_09h09.06.431,Colour_Asymmetry_Pilot,2022.1.3,MacIntel,60.0024001,62bbe60bf3d75ef465d3e404,0,111,111,149,1,threefour,,,,,,,,,,,,,,,,,,,,,,,,,,,,,,,,,,,,,,,,,,,,,,,,,,,,,,,,,,,,,,,,,,,,,,,,,,,,,,,,,,,,,,,,,,,,,,,,,,,,,,,,,,,,,,,,,,,,,,,,,,,,,,,,,,,,,,,,,,,,,,,,,,,,,,,
,,,,,,611cde82784f11c1e17fe12b,62bbfa1d65911f18c84cfe18,2022-06-29_09h09.06.431,Colour_Asymmetry_Pilot,2022.1.3,MacIntel,60.0024001,62bbe60bf3d75ef465d3e404,0,112,112,37,1,threefour,,,,,,,,,,,,,,,,,,,,,,,,,,,,,,,,,,,,,,,,,,,,,,,,,,,,,,,,,,,,,,,,,,,,,,,,,,,,,,,,,,,,,,,,,,,,,,,,,,,,,,,,,,,,,,,,,,,,,,,,,,,,,,,,,,,,,,,,,,,,,,,,,,,,,,,
,,,,,,611cde82784f11c1e17fe12b,62bbfa1d65911f18c84cfe18,2022-06-29_09h09.06.431,Colour_Asymmetry_Pilot,2022.1.3,MacIntel,60.0024001,62bbe60bf3d75ef465d3e404,0,113,113,89,1,onethree,,,,,,,,,,,,,,,,,,,,,,,,,,,,,,,,,,,,,,,,,,,,,,,,,,,,,,,,,,,,,,,,,,,,,,,,,,,,,,,,,,,,,,,,,,,,,,,,,,,,,,,,,,,,,,,,,,,,,,,,,,,,,,,,,,,,,,,,,,,,,,,,,,,,,,,
,,,,,,611cde82784f11c1e17fe12b,62bbfa1d65911f18c84cfe18,2022-06-29_09h09.06.431,Colour_Asymmetry_Pilot,2022.1.3,MacIntel,60.0024001,62bbe60bf3d75ef465d3e404,0,114,114,44,1,threeone,,,,,,,,,,,,,,,,,,,,,,,,,,,,,,,,,,,,,,,,,,,,,,,,,,,,,,,,,,,,,,,,,,,,,,,,,,,,,,,,,,,,,,,,,,,,,,,,,,,,,,,,,,,,,,,,,,,,,,,,,,,,,,,,,,,,,,,,,,,,,,,,,,,,,,,
,,,,,,611cde82784f11c1e17fe12b,62bbfa1d65911f18c84cfe18,2022-06-29_09h09.06.431,Colour_Asymmetry_Pilot,2022.1.3,MacIntel,60.0024001,62bbe60bf3d75ef465d3e404,0,115,115,132,1,threeone,,,,,,,,,,,,,,,,,,,,,,,,,,,,,,,,,,,,,,,,,,,,,,,,,,,,,,,,,,,,,,,,,,,,,,,,,,,,,,,,,,,,,,,,,,,,,,,,,,,,,,,,,,,,,,,,,,,,,,,,,,,,,,,,,,,,,,,,,,,,,,,,,,,,,,,
,,,,,,611cde82784f11c1e17fe12b,62bbfa1d65911f18c84cfe18,2022-06-29_09h09.06.431,Colour_Asymmetry_Pilot,2022.1.3,MacIntel,60.0024001,62bbe60bf3d75ef465d3e404,0,116,116,46,1,fourtwo,,,,,,,,,,,,,,,,,,,,,,,,,,,,,,,,,,,,,,,,,,,,,,,,,,,,,,,,,,,,,,,,,,,,,,,,,,,,,,,,,,,,,,,,,,,,,,,,,,,,,,,,,,,,,,,,,,,,,,,,,,,,,,,,,,,,,,,,,,,,,,,,,,,,,,,
,,,,,,611cde82784f11c1e17fe12b,62bbfa1d65911f18c84cfe18,2022-06-29_09h09.06.431,Colour_Asymmetry_Pilot,2022.1.3,MacIntel,60.0024001,62bbe60bf3d75ef465d3e404,0,117,117,80,1,onetwo,,,,,,,,,,,,,,,,,,,,,,,,,,,,,,,,,,,,,,,,,,,,,,,,,,,,,,,,,,,,,,,,,,,,,,,,,,,,,,,,,,,,,,,,,,,,,,,,,,,,,,,,,,,,,,,,,,,,,,,,,,,,,,,,,,,,,,,,,,,,,,,,,,,,,,,
,,,,,,611cde82784f11c1e17fe12b,62bbfa1d65911f18c84cfe18,2022-06-29_09h09.06.431,Colour_Asymmetry_Pilot,2022.1.3,MacIntel,60.0024001,62bbe60bf3d75ef465d3e404,0,118,118,123,1,twofour,,,,,,,,,,,,,,,,,,,,,,,,,,,,,,,,,,,,,,,,,,,,,,,,,,,,,,,,,,,,,,,,,,,,,,,,,,,,,,,,,,,,,,,,,,,,,,,,,,,,,,,,,,,,,,,,,,,,,,,,,,,,,,,,,,,,,,,,,,,,,,,,,,,,,,,
,,,,,,611cde82784f11c1e17fe12b,62bbfa1d65911f18c84cfe18,2022-06-29_09h09.06.431,Colour_Asymmetry_Pilot,2022.1.3,MacIntel,60.0024001,62bbe60bf3d75ef465d3e404,0,119,119,128,1,onetwo,,,,,,,,,,,,,,,,,,,,,,,,,,,,,,,,,,,,,,,,,,,,,,,,,,,,,,,,,,,,,,,,,,,,,,,,,,,,,,,,,,,,,,,,,,,,,,,,,,,,,,,,,,,,,,,,,,,,,,,,,,,,,,,,,,,,,,,,,,,,,,,,,,,,,,,
,,,,,,611cde82784f11c1e17fe12b,62bbfa1d65911f18c84cfe18,2022-06-29_09h09.06.431,Colour_Asymmetry_Pilot,2022.1.3,MacIntel,60.0024001,62bbe60bf3d75ef465d3e404,0,120,120,76,1,threeone,,,,,,,,,,,,,,,,,,,,,,,,,,,,,,,,,,,,,,,,,,,,,,,,,,,,,,,,,,,,,,,,,,,,,,,,,,,,,,,,,,,,,,,,,,,,,,,,,,,,,,,,,,,,,,,,,,,,,,,,,,,,,,,,,,,,,,,,,,,,,,,,,,,,,,,
,,,,,,611cde82784f11c1e17fe12b,62bbfa1d65911f18c84cfe18,2022-06-29_09h09.06.431,Colour_Asymmetry_Pilot,2022.1.3,MacIntel,60.0024001,62bbe60bf3d75ef465d3e404,0,121,121,157,1,threefour,,,,,,,,,,,,,,,,,,,,,,,,,,,,,,,,,,,,,,,,,,,,,,,,,,,,,,,,,,,,,,,,,,,,,,,,,,,,,,,,,,,,,,,,,,,,,,,,,,,,,,,,,,,,,,,,,,,,,,,,,,,,,,,,,,,,,,,,,,,,,,,,,,,,,,,
,,,,,,611cde82784f11c1e17fe12b,62bbfa1d65911f18c84cfe18,2022-06-29_09h09.06.431,Colour_Asymmetry_Pilot,2022.1.3,MacIntel,60.0024001,62bbe60bf3d75ef465d3e404,0,122,122,53,1,threefour,,,,,,,,,,,,,,,,,,,,,,,,,,,,,,,,,,,,,,,,,,,,,,,,,,,,,,,,,,,,,,,,,,,,,,,,,,,,,,,,,,,,,,,,,,,,,,,,,,,,,,,,,,,,,,,,,,,,,,,,,,,,,,,,,,,,,,,,,,,,,,,,,,,,,,,
,,,,,,611cde82784f11c1e17fe12b,62bbfa1d65911f18c84cfe18,2022-06-29_09h09.06.431,Colour_Asymmetry_Pilot,2022.1.3,MacIntel,60.0024001,62bbe60bf3d75ef465d3e404,0,123,123,12,1,threeone,,,,,,,,,,,,,,,,,,,,,,,,,,,,,,,,,,,,,,,,,,,,,,,,,,,,,,,,,,,,,,,,,,,,,,,,,,,,,,,,,,,,,,,,,,,,,,,,,,,,,,,,,,,,,,,,,,,,,,,,,,,,,,,,,,,,,,,,,,,,,,,,,,,,,,,
,,,,,,611cde82784f11c1e17fe12b,62bbfa1d65911f18c84cfe18,2022-06-29_09h09.06.431,Colour_Asymmetry_Pilot,2022.1.3,MacIntel,60.0024001,62bbe60bf3d75ef465d3e404,0,124,124,84,1,threeone,,,,,,,,,,,,,,,,,,,,,,,,,,,,,,,,,,,,,,,,,,,,,,,,,,,,,,,,,,,,,,,,,,,,,,,,,,,,,,,,,,,,,,,,,,,,,,,,,,,,,,,,,,,,,,,,,,,,,,,,,,,,,,,,,,,,,,,,,,,,,,,,,,,,,,,
,,,,,,611cde82784f11c1e17fe12b,62bbfa1d65911f18c84cfe18,2022-06-29_09h09.06.431,Colour_Asymmetry_Pilot,2022.1.3,MacIntel,60.0024001,62bbe60bf3d75ef465d3e404,0,125,125,124,1,threeone,,,,,,,,,,,,,,,,,,,,,,,,,,,,,,,,,,,,,,,,,,,,,,,,,,,,,,,,,,,,,,,,,,,,,,,,,,,,,,,,,,,,,,,,,,,,,,,,,,,,,,,,,,,,,,,,,,,,,,,,,,,,,,,,,,,,,,,,,,,,,,,,,,,,,,,
,,,,,,611cde82784f11c1e17fe12b,62bbfa1d65911f18c84cfe18,2022-06-29_09h09.06.431,Colour_Asymmetry_Pilot,2022.1.3,MacIntel,60.0024001,62bbe60bf3d75ef465d3e404,0,126,126,57,1,onethree,,,,,,,,,,,,,,,,,,,,,,,,,,,,,,,,,,,,,,,,,,,,,,,,,,,,,,,,,,,,,,,,,,,,,,,,,,,,,,,,,,,,,,,,,,,,,,,,,,,,,,,,,,,,,,,,,,,,,,,,,,,,,,,,,,,,,,,,,,,,,,,,,,,,,,,
,,,,,,611cde82784f11c1e17fe12b,62bbfa1d65911f18c84cfe18,2022-06-29_09h09.06.431,Colour_Asymmetry_Pilot,2022.1.3,MacIntel,60.0024001,62bbe60bf3d75ef465d3e404,0,127,127,42,1,twoone,,,,,,,,,,,,,,,,,,,,,,,,,,,,,,,,,,,,,,,,,,,,,,,,,,,,,,,,,,,,,,,,,,,,,,,,,,,,,,,,,,,,,,,,,,,,,,,,,,,,,,,,,,,,,,,,,,,,,,,,,,,,,,,,,,,,,,,,,,,,,,,,,,,,,,,
,,,,,,611cde82784f11c1e17fe12b,62bbfa1d65911f18c84cfe18,2022-06-29_09h09.06.431,Colour_Asymmetry_Pilot,2022.1.3,MacIntel,60.0024001,62bbe60bf3d75ef465d3e404,0,128,128,142,1,fourtwo,,,,,,,,,,,,,,,,,,,,,,,,,,,,,,,,,,,,,,,,,,,,,,,,,,,,,,,,,,,,,,,,,,,,,,,,,,,,,,,,,,,,,,,,,,,,,,,,,,,,,,,,,,,,,,,,,,,,,,,,,,,,,,,,,,,,,,,,,,,,,,,,,,,,,,,
,,,,,,611cde82784f11c1e17fe12b,62bbfa1d65911f18c84cfe18,2022-06-29_09h09.06.431,Colour_Asymmetry_Pilot,2022.1.3,MacIntel,60.0024001,62bbe60bf3d75ef465d3e404,0,129,129,96,1,onetwo,,,,,,,,,,,,,,,,,,,,,,,,,,,,,,,,,,,,,,,,,,,,,,,,,,,,,,,,,,,,,,,,,,,,,,,,,,,,,,,,,,,,,,,,,,,,,,,,,,,,,,,,,,,,,,,,,,,,,,,,,,,,,,,,,,,,,,,,,,,,,,,,,,,,,,,
,,,,,,611cde82784f11c1e17fe12b,62bbfa1d65911f18c84cfe18,2022-06-29_09h09.06.431,Colour_Asymmetry_Pilot,2022.1.3,MacIntel,60.0024001,62bbe60bf3d75ef465d3e404,0,130,130,150,1,fourtwo,,,,,,,,,,,,,,,,,,,,,,,,,,,,,,,,,,,,,,,,,,,,,,,,,,,,,,,,,,,,,,,,,,,,,,,,,,,,,,,,,,,,,,,,,,,,,,,,,,,,,,,,,,,,,,,,,,,,,,,,,,,,,,,,,,,,,,,,,,,,,,,,,,,,,,,
,,,,,,611cde82784f11c1e17fe12b,62bbfa1d65911f18c84cfe18,2022-06-29_09h09.06.431,Colour_Asymmetry_Pilot,2022.1.3,MacIntel,60.0024001,62bbe60bf3d75ef465d3e404,0,131,131,29,1,threefour,,,,,,,,,,,,,,,,,,,,,,,,,,,,,,,,,,,,,,,,,,,,,,,,,,,,,,,,,,,,,,,,,,,,,,,,,,,,,,,,,,,,,,,,,,,,,,,,,,,,,,,,,,,,,,,,,,,,,,,,,,,,,,,,,,,,,,,,,,,,,,,,,,,,,,,
,,,,,,611cde82784f11c1e17fe12b,62bbfa1d65911f18c84cfe18,2022-06-29_09h09.06.431,Colour_Asymmetry_Pilot,2022.1.3,MacIntel,60.0024001,62bbe60bf3d75ef465d3e404,0,132,132,151,1,fourthree,,,,,,,,,,,,,,,,,,,,,,,,,,,,,,,,,,,,,,,,,,,,,,,,,,,,,,,,,,,,,,,,,,,,,,,,,,,,,,,,,,,,,,,,,,,,,,,,,,,,,,,,,,,,,,,,,,,,,,,,,,,,,,,,,,,,,,,,,,,,,,,,,,,,,,,
,,,,,,611cde82784f11c1e17fe12b,62bbfa1d65911f18c84cfe18,2022-06-29_09h09.06.431,Colour_Asymmetry_Pilot,2022.1.3,MacIntel,60.0024001,62bbe60bf3d75ef465d3e404,0,133,133,155,1,twofour,,,,,,,,,,,,,,,,,,,,,,,,,,,,,,,,,,,,,,,,,,,,,,,,,,,,,,,,,,,,,,,,,,,,,,,,,,,,,,,,,,,,,,,,,,,,,,,,,,,,,,,,,,,,,,,,,,,,,,,,,,,,,,,,,,,,,,,,,,,,,,,,,,,,,,,
,,,,,,611cde82784f11c1e17fe12b,62bbfa1d65911f18c84cfe18,2022-06-29_09h09.06.431,Colour_Asymmetry_Pilot,2022.1.3,MacIntel,60.0024001,62bbe60bf3d75ef465d3e404,0,134,134,104,1,onetwo,,,,,,,,,,,,,,,,,,,,,,,,,,,,,,,,,,,,,,,,,,,,,,,,,,,,,,,,,,,,,,,,,,,,,,,,,,,,,,,,,,,,,,,,,,,,,,,,,,,,,,,,,,,,,,,,,,,,,,,,,,,,,,,,,,,,,,,,,,,,,,,,,,,,,,,
,,,,,,611cde82784f11c1e17fe12b,62bbfa1d65911f18c84cfe18,2022-06-29_09h09.06.431,Colour_Asymmetry_Pilot,2022.1.3,MacIntel,60.0024001,62bbe60bf3d75ef465d3e404,0,135,135,27,1,twofour,,,,,,,,,,,,,,,,,,,,,,,,,,,,,,,,,,,,,,,,,,,,,,,,,,,,,,,,,,,,,,,,,,,,,,,,,,,,,,,,,,,,,,,,,,,,,,,,,,,,,,,,,,,,,,,,,,,,,,,,,,,,,,,,,,,,,,,,,,,,,,,,,,,,,,,
,,,,,,611cde82784f11c1e17fe12b,62bbfa1d65911f18c84cfe18,2022-06-29_09h09.06.431,Colour_Asymmetry_Pilot,2022.1.3,MacIntel,60.0024001,62bbe60bf3d75ef465d3e404,0,136,136,68,1,threeone,,,,,,,,,,,,,,,,,,,,,,,,,,,,,,,,,,,,,,,,,,,,,,,,,,,,,,,,,,,,,,,,,,,,,,,,,,,,,,,,,,,,,,,,,,,,,,,,,,,,,,,,,,,,,,,,,,,,,,,,,,,,,,,,,,,,,,,,,,,,,,,,,,,,,,,
,,,,,,611cde82784f11c1e17fe12b,62bbfa1d65911f18c84cfe18,2022-06-29_09h09.06.431,Colour_Asymmetry_Pilot,2022.1.3,MacIntel,60.0024001,62bbe60bf3d75ef465d3e404,0,137,137,59,1,twofour,,,,,,,,,,,,,,,,,,,,,,,,,,,,,,,,,,,,,,,,,,,,,,,,,,,,,,,,,,,,,,,,,,,,,,,,,,,,,,,,,,,,,,,,,,,,,,,,,,,,,,,,,,,,,,,,,,,,,,,,,,,,,,,,,,,,,,,,,,,,,,,,,,,,,,,
,,,,,,611cde82784f11c1e17fe12b,62bbfa1d65911f18c84cfe18,2022-06-29_09h09.06.431,Colour_Asymmetry_Pilot,2022.1.3,MacIntel,60.0024001,62bbe60bf3d75ef465d3e404,0,138,138,73,1,onethree,,,,,,,,,,,,,,,,,,,,,,,,,,,,,,,,,,,,,,,,,,,,,,,,,,,,,,,,,,,,,,,,,,,,,,,,,,,,,,,,,,,,,,,,,,,,,,,,,,,,,,,,,,,,,,,,,,,,,,,,,,,,,,,,,,,,,,,,,,,,,,,,,,,,,,,
,,,,,,611cde82784f11c1e17fe12b,62bbfa1d65911f18c84cfe18,2022-06-29_09h09.06.431,Colour_Asymmetry_Pilot,2022.1.3,MacIntel,60.0024001,62bbe60bf3d75ef465d3e404,0,139,139,25,1,onethree,,,,,,,,,,,,,,,,,,,,,,,,,,,,,,,,,,,,,,,,,,,,,,,,,,,,,,,,,,,,,,,,,,,,,,,,,,,,,,,,,,,,,,,,,,,,,,,,,,,,,,,,,,,,,,,,,,,,,,,,,,,,,,,,,,,,,,,,,,,,,,,,,,,,,,,
,,,,,,611cde82784f11c1e17fe12b,62bbfa1d65911f18c84cfe18,2022-06-29_09h09.06.431,Colour_Asymmetry_Pilot,2022.1.3,MacIntel,60.0024001,62bbe60bf3d75ef465d3e404,0,140,140,34,1,twoone,,,,,,,,,,,,,,,,,,,,,,,,,,,,,,,,,,,,,,,,,,,,,,,,,,,,,,,,,,,,,,,,,,,,,,,,,,,,,,,,,,,,,,,,,,,,,,,,,,,,,,,,,,,,,,,,,,,,,,,,,,,,,,,,,,,,,,,,,,,,,,,,,,,,,,,
,,,,,,611cde82784f11c1e17fe12b,62bbfa1d65911f18c84cfe18,2022-06-29_09h09.06.431,Colour_Asymmetry_Pilot,2022.1.3,MacIntel,60.0024001,62bbe60bf3d75ef465d3e404,0,141,141,154,1,twoone,,,,,,,,,,,,,,,,,,,,,,,,,,,,,,,,,,,,,,,,,,,,,,,,,,,,,,,,,,,,,,,,,,,,,,,,,,,,,,,,,,,,,,,,,,,,,,,,,,,,,,,,,,,,,,,,,,,,,,,,,,,,,,,,,,,,,,,,,,,,,,,,,,,,,,,
,,,,,,611cde82784f11c1e17fe12b,62bbfa1d65911f18c84cfe18,2022-06-29_09h09.06.431,Colour_Asymmetry_Pilot,2022.1.3,MacIntel,60.0024001,62bbe60bf3d75ef465d3e404,0,142,142,145,1,onethree,,,,,,,,,,,,,,,,,,,,,,,,,,,,,,,,,,,,,,,,,,,,,,,,,,,,,,,,,,,,,,,,,,,,,,,,,,,,,,,,,,,,,,,,,,,,,,,,,,,,,,,,,,,,,,,,,,,,,,,,,,,,,,,,,,,,,,,,,,,,,,,,,,,,,,,
,,,,,,611cde82784f11c1e17fe12b,62bbfa1d65911f18c84cfe18,2022-06-29_09h09.06.431,Colour_Asymmetry_Pilot,2022.1.3,MacIntel,60.0024001,62bbe60bf3d75ef465d3e404,0,143,143,71,1,fourthree,,,,,,,,,,,,,,,,,,,,,,,,,,,,,,,,,,,,,,,,,,,,,,,,,,,,,,,,,,,,,,,,,,,,,,,,,,,,,,,,,,,,,,,,,,,,,,,,,,,,,,,,,,,,,,,,,,,,,,,,,,,,,,,,,,,,,,,,,,,,,,,,,,,,,,,
,,,,,,611cde82784f11c1e17fe12b,62bbfa1d65911f18c84cfe18,2022-06-29_09h09.06.431,Colour_Asymmetry_Pilot,2022.1.3,MacIntel,60.0024001,62bbe60bf3d75ef465d3e404,0,144,144,122,1,twoone,,,,,,,,,,,,,,,,,,,,,,,,,,,,,,,,,,,,,,,,,,,,,,,,,,,,,,,,,,,,,,,,,,,,,,,,,,,,,,,,,,,,,,,,,,,,,,,,,,,,,,,,,,,,,,,,,,,,,,,,,,,,,,,,,,,,,,,,,,,,,,,,,,,,,,,
,,,,,,611cde82784f11c1e17fe12b,62bbfa1d65911f18c84cfe18,2022-06-29_09h09.06.431,Colour_Asymmetry_Pilot,2022.1.3,MacIntel,60.0024001,62bbe60bf3d75ef465d3e404,0,145,145,143,1,fourthree,,,,,,,,,,,,,,,,,,,,,,,,,,,,,,,,,,,,,,,,,,,,,,,,,,,,,,,,,,,,,,,,,,,,,,,,,,,,,,,,,,,,,,,,,,,,,,,,,,,,,,,,,,,,,,,,,,,,,,,,,,,,,,,,,,,,,,,,,,,,,,,,,,,,,,,
,,,,,,611cde82784f11c1e17fe12b,62bbfa1d65911f18c84cfe18,2022-06-29_09h09.06.431,Colour_Asymmetry_Pilot,2022.1.3,MacIntel,60.0024001,62bbe60bf3d75ef465d3e404,0,146,146,45,1,threefour,,,,,,,,,,,,,,,,,,,,,,,,,,,,,,,,,,,,,,,,,,,,,,,,,,,,,,,,,,,,,,,,,,,,,,,,,,,,,,,,,,,,,,,,,,,,,,,,,,,,,,,,,,,,,,,,,,,,,,,,,,,,,,,,,,,,,,,,,,,,,,,,,,,,,,,
,,,,,,611cde82784f11c1e17fe12b,62bbfa1d65911f18c84cfe18,2022-06-29_09h09.06.431,Colour_Asymmetry_Pilot,2022.1.3,MacIntel,60.0024001,62bbe60bf3d75ef465d3e404,0,147,147,19,1,twofour,,,,,,,,,,,,,,,,,,,,,,,,,,,,,,,,,,,,,,,,,,,,,,,,,,,,,,,,,,,,,,,,,,,,,,,,,,,,,,,,,,,,,,,,,,,,,,,,,,,,,,,,,,,,,,,,,,,,,,,,,,,,,,,,,,,,,,,,,,,,,,,,,,,,,,,
,,,,,,611cde82784f11c1e17fe12b,62bbfa1d65911f18c84cfe18,2022-06-29_09h09.06.431,Colour_Asymmetry_Pilot,2022.1.3,MacIntel,60.0024001,62bbe60bf3d75ef465d3e404,0,148,148,67,1,twofour,,,,,,,,,,,,,,,,,,,,,,,,,,,,,,,,,,,,,,,,,,,,,,,,,,,,,,,,,,,,,,,,,,,,,,,,,,,,,,,,,,,,,,,,,,,,,,,,,,,,,,,,,,,,,,,,,,,,,,,,,,,,,,,,,,,,,,,,,,,,,,,,,,,,,,,
,,,,,,611cde82784f11c1e17fe12b,62bbfa1d65911f18c84cfe18,2022-06-29_09h09.06.431,Colour_Asymmetry_Pilot,2022.1.3,MacIntel,60.0024001,62bbe60bf3d75ef465d3e404,0,149,149,109,1,threefour,,,,,,,,,,,,,,,,,,,,,,,,,,,,,,,,,,,,,,,,,,,,,,,,,,,,,,,,,,,,,,,,,,,,,,,,,,,,,,,,,,,,,,,,,,,,,,,,,,,,,,,,,,,,,,,,,,,,,,,,,,,,,,,,,,,,,,,,,,,,,,,,,,,,,,,
,,,,,,611cde82784f11c1e17fe12b,62bbfa1d65911f18c84cfe18,2022-06-29_09h09.06.431,Colour_Asymmetry_Pilot,2022.1.3,MacIntel,60.0024001,62bbe60bf3d75ef465d3e404,0,150,150,159,1,fourthree,,,,,,,,,,,,,,,,,,,,,,,,,,,,,,,,,,,,,,,,,,,,,,,,,,,,,,,,,,,,,,,,,,,,,,,,,,,,,,,,,,,,,,,,,,,,,,,,,,,,,,,,,,,,,,,,,,,,,,,,,,,,,,,,,,,,,,,,,,,,,,,,,,,,,,,
,,,,,,611cde82784f11c1e17fe12b,62bbfa1d65911f18c84cfe18,2022-06-29_09h09.06.431,Colour_Asymmetry_Pilot,2022.1.3,MacIntel,60.0024001,62bbe60bf3d75ef465d3e404,0,151,151,113,1,onethree,,,,,,,,,,,,,,,,,,,,,,,,,,,,,,,,,,,,,,,,,,,,,,,,,,,,,,,,,,,,,,,,,,,,,,,,,,,,,,,,,,,,,,,,,,,,,,,,,,,,,,,,,,,,,,,,,,,,,,,,,,,,,,,,,,,,,,,,,,,,,,,,,,,,,,,
,,,,,,611cde82784f11c1e17fe12b,62bbfa1d65911f18c84cfe18,2022-06-29_09h09.06.431,Colour_Asymmetry_Pilot,2022.1.3,MacIntel,60.0024001,62bbe60bf3d75ef465d3e404,0,152,152,160,1,onetwo,,,,,,,,,,,,,,,,,,,,,,,,,,,,,,,,,,,,,,,,,,,,,,,,,,,,,,,,,,,,,,,,,,,,,,,,,,,,,,,,,,,,,,,,,,,,,,,,,,,,,,,,,,,,,,,,,,,,,,,,,,,,,,,,,,,,,,,,,,,,,,,,,,,,,,,
,,,,,,611cde82784f11c1e17fe12b,62bbfa1d65911f18c84cfe18,2022-06-29_09h09.06.431,Colour_Asymmetry_Pilot,2022.1.3,MacIntel,60.0024001,62bbe60bf3d75ef465d3e404,0,153,153,102,1,fourtwo,,,,,,,,,,,,,,,,,,,,,,,,,,,,,,,,,,,,,,,,,,,,,,,,,,,,,,,,,,,,,,,,,,,,,,,,,,,,,,,,,,,,,,,,,,,,,,,,,,,,,,,,,,,,,,,,,,,,,,,,,,,,,,,,,,,,,,,,,,,,,,,,,,,,,,,
,,,,,,611cde82784f11c1e17fe12b,62bbfa1d65911f18c84cfe18,2022-06-29_09h09.06.431,Colour_Asymmetry_Pilot,2022.1.3,MacIntel,60.0024001,62bbe60bf3d75ef465d3e404,0,154,154,106,1,twoone,,,,,,,,,,,,,,,,,,,,,,,,,,,,,,,,,,,,,,,,,,,,,,,,,,,,,,,,,,,,,,,,,,,,,,,,,,,,,,,,,,,,,,,,,,,,,,,,,,,,,,,,,,,,,,,,,,,,,,,,,,,,,,,,,,,,,,,,,,,,,,,,,,,,,,,
,,,,,,611cde82784f11c1e17fe12b,62bbfa1d65911f18c84cfe18,2022-06-29_09h09.06.431,Colour_Asymmetry_Pilot,2022.1.3,MacIntel,60.0024001,62bbe60bf3d75ef465d3e404,0,155,155,88,1,onetwo,,,,,,,,,,,,,,,,,,,,,,,,,,,,,,,,,,,,,,,,,,,,,,,,,,,,,,,,,,,,,,,,,,,,,,,,,,,,,,,,,,,,,,,,,,,,,,,,,,,,,,,,,,,,,,,,,,,,,,,,,,,,,,,,,,,,,,,,,,,,,,,,,,,,,,,
,,,,,,611cde82784f11c1e17fe12b,62bbfa1d65911f18c84cfe18,2022-06-29_09h09.06.431,Colour_Asymmetry_Pilot,2022.1.3,MacIntel,60.0024001,62bbe60bf3d75ef465d3e404,0,156,156,105,1,onethree,,,,,,,,,,,,,,,,,,,,,,,,,,,,,,,,,,,,,,,,,,,,,,,,,,,,,,,,,,,,,,,,,,,,,,,,,,,,,,,,,,,,,,,,,,,,,,,,,,,,,,,,,,,,,,,,,,,,,,,,,,,,,,,,,,,,,,,,,,,,,,,,,,,,,,,
,,,,,,611cde82784f11c1e17fe12b,62bbfa1d65911f18c84cfe18,2022-06-29_09h09.06.431,Colour_Asymmetry_Pilot,2022.1.3,MacIntel,60.0024001,62bbe60bf3d75ef465d3e404,0,157,157,56,1,onetwo,,,,,,,,,,,,,,,,,,,,,,,,,,,,,,,,,,,,,,,,,,,,,,,,,,,,,,,,,,,,,,,,,,,,,,,,,,,,,,,,,,,,,,,,,,,,,,,,,,,,,,,,,,,,,,,,,,,,,,,,,,,,,,,,,,,,,,,,,,,,,,,,,,,,,,,
,,,,,,611cde82784f11c1e17fe12b,62bbfa1d65911f18c84cfe18,2022-06-29_09h09.06.431,Colour_Asymmetry_Pilot,2022.1.3,MacIntel,60.0024001,62bbe60bf3d75ef465d3e404,0,158,158,147,1,twofour,,,,,,,,,,,,,,,,,,,,,,,,,,,,,,,,,,,,,,,,,,,,,,,,,,,,,,,,,,,,,,,,,,,,,,,,,,,,,,,,,,,,,,,,,,,,,,,,,,,,,,,,,,,,,,,,,,,,,,,,,,,,,,,,,,,,,,,,,,,,,,,,,,,,,,,
,,,,,,611cde82784f11c1e17fe12b,62bbfa1d65911f18c84cfe18,2022-06-29_09h09.06.431,Colour_Asymmetry_Pilot,2022.1.3,MacIntel,60.0024001,62bbe60bf3d75ef465d3e404,0,159,159,10,1,twoone,,,,,,,,,,,,,,,,,,,,,,,,,,,,,,,,,,,,,,,,,,,,,,,,,,,,,,,,,,,,,,,,,,,,,,,,,,,,,,,,,,,,,,,,,,,,,,,,,,,,,,,,,,,,,,,,,,,,,,,,,,,,,,,,,,,,,,,,,,,,,,,,,,,,,,,
,,,,,,611cde82784f11c1e17fe12b,62bbfa1d65911f18c84cfe18,2022-06-29_09h09.06.431,Colour_Asymmetry_Pilot,2022.1.3,MacIntel,60.0024001,62bbe60bf3d75ef465d3e404,0,160,160,74,1,twoone,,,,,,,,,,,,,,,,,,,,,,,,,,,,,,,,,,,,,,,,,,,,,,,,,,,,,,,,,,,,,,,,,,,,,,,,,,,,,,,,,,,,,,,,,,,,,,,,,,,,,,,,,,,,,,,,,,,,,,,,,,,,,,,,,,,,,,,,,,,,,,,,,,,,,,,
,,,,,,611cde82784f11c1e17fe12b,62bbfa1d65911f18c84cfe18,2022-06-29_09h09.06.431,Colour_Asymmetry_Pilot,2022.1.3,MacIntel,60.0024001,62bbe60bf3d75ef465d3e404,0,161,161,39,1,fourthree,,,,,,,,,,,,,,,,,,,,,,,,,,,,,,,,,,,,,,,,,,,,,,,,,,,,,,,,,,,,,,,,,,,,,,,,,,,,,,,,,,,,,,,,,,,,,,,,,,,,,,,,,,,,,,,,,,,,,,,,,,,,,,,,,,,,,,,,,,,,,,,,,,,,,,,
,,,,,,611cde82784f11c1e17fe12b,62bbfa1d65911f18c84cfe18,2022-06-29_09h09.06.431,Colour_Asymmetry_Pilot,2022.1.3,MacIntel,60.0024001,62bbe60bf3d75ef465d3e404,,,,,,,space,1979.2055,space,15.9997,space,45.0978,space,20.398,space,17.4463,space,5.0694,"[0.3881999999999999,-0.23939999999999995,-0.05040000000000011]",threefour,"[-0.9766,-0.34920000000000007,0.2156]",-1,3.2659,-28.7088623,-81.16790771,1,0,0,response5disk_5,12.51806641,-11.42321777,1,0,0,rectangle_8,12.51806641,-11.42321777,1,0,0,4,12.51806641,-11.42321777,1,0,0,0,0,0,0,1,,,,,,,,,,,,,,,,,,,,,,,,,,,,,,,,,,,,,,,,,,,,,,,,,,,,,,,,,,,,,,,,,,,,,,,,,,,,,,,,,,,,,,,,,,,,,,,,,,,,,,,,,,
,,,,,,611cde82784f11c1e17fe12b,62bbfa1d65911f18c84cfe18,2022-06-29_09h09.06.431,Colour_Asymmetry_Pilot,2022.1.3,MacIntel,60.0024001,62bbe60bf3d75ef465d3e404,,,,,,,,,,,,,,,,,,,"[0.2784,-0.31000000000000005,-0.5452]",onethree,"[0.5449999999999999,-0.31000000000000005,-0.0354000000000001]",1,7.7167,35.34313965,-84.19128418,1,0,0,response3disk_5,-10.9175415,-3.720947266,1,0,0,rectangle_8,-10.9175415,-3.720947266,1,0,0,4,-10.9175415,-3.720947266,1,0,0,1,0,1,0,1,,,,,,,,,,,,,,,,,,,,,,,,,,,,,,,,,,,,,,,,,,,,,,,,,,,,,,,,,,,,,,,,,,,,,,,,,,,,,,,,,,,,,,,,,,,,,,,,,,,,,,,,,,
,,,,,,611cde82784f11c1e17fe12b,62bbfa1d65911f18c84cfe18,2022-06-29_09h09.06.431,Colour_Asymmetry_Pilot,2022.1.3,MacIntel,60.0024001,62bbe60bf3d75ef465d3e404,,,,,,,,,,,,,,,,,,,"[-0.26280000000000003,-0.4746,-0.2158]",fourtwo,"[-0.050999999999999934,-0.6706000000000001,-0.804]",2,5.3004,66.17401123,-44.55194092,1,0,0,response3disk_5,-6.705505371,-6.988952637,1,0,0,rectangle_8,34.48620605,81.32794189,1,0,0,4,8.938720703,1.532226563,1,0,0,2,0,2,0,1,response1disk_7,7,rectangle_4,,,,,,,,,,,,,,,,,,,,,,,,,,,,,,,,,,,,,,,,,,,,,,,,,,,,,,,,,,,,,,,,,,,,,,,,,,,,,,,,,,,,,,,,,,,,,,,,,,,,,,,
,,,,,,611cde82784f11c1e17fe12b,62bbfa1d65911f18c84cfe18,2022-06-29_09h09.06.431,Colour_Asymmetry_Pilot,2022.1.3,MacIntel,60.0024001,62bbe60bf3d75ef465d3e404,,,,,,,,,,,,,,,,,,,"[0.9213999999999998,0.6391999999999998,-0.9922]",fourthree,"[0.6547999999999998,-0.043199999999999905,-0.011800000000000033]",1,3.0669,27.2701416,-62.79058838,1,0,0,response3disk_5,13.77215576,-0.002319336,1,0,0,rectangle_8,13.77215576,-0.002319336,1,0,0,4,13.77215576,-0.002319336,1,0,0,3,0,3,0,1,,,,,,,,,,,,,,,,,,,,,,,,,,,,,,,,,,,,,,,,,,,,,,,,,,,,,,,,,,,,,,,,,,,,,,,,,,,,,,,,,,,,,,,,,,,,,,,,,,,,,,,,,,
,,,,,,611cde82784f11c1e17fe12b,62bbfa1d65911f18c84cfe18,2022-06-29_09h09.06.431,Colour_Asymmetry_Pilot,2022.1.3,MacIntel,60.0024001,62bbe60bf3d75ef465d3e404,,,,,,,,,,,,,,,,,,,"[-0.2942,-0.24719999999999998,-0.357]",threefour,"[0.23920000000000008,0.2704,0.16060000000000008]",3,1.2508,59.67889404,31.67016602,1,0,0,response1disk_5,-6.473876953,-6.517150879,1,0,0,rectangle_8,-6.473876953,-6.517150879,1,0,0,4,-6.473876953,-6.517150879,1,0,0,4,0,4,0,1,,,,,,,,,,,,,,,,,,,,,,,,,,,,,,,,,,,,,,,,,,,,,,,,,,,,,,,,,,,,,,,,,,,,,,,,,,,,,,,,,,,,,,,,,,,,,,,,,,,,,,,,,,
,,,,,,611cde82784f11c1e17fe12b,62bbfa1d65911f18c84cfe18,2022-06-29_09h09.06.431,Colour_Asymmetry_Pilot,2022.1.3,MacIntel,60.0024001,62bbe60bf3d75ef465d3e404,,,,,,,,,,,,,,,,,,,"[0.9372,0.20779999999999998,0.2704]",onethree,"[0.19199999999999995,0.18419999999999992,0.5136000000000001]",1,1.7659,40.44903564,-70.32818604,1,0,0,response3disk_5,2.730773926,-9.875366211,1,0,0,rectangle_8,2.730773926,-9.875366211,1,0,0,4,2.730773926,-9.875366211,1,0,0,5,0,5,0,1,,,,,,,,,,,,,,,,,,,,,,,,,,,,,,,,,,,,,,,,,,,,,,,,,,,,,,,,,,,,,,,,,,,,,,,,,,,,,,,,,,,,,,,,,,,,,,,,,,,,,,,,,,
,,,,,,611cde82784f11c1e17fe12b,62bbfa1d65911f18c84cfe18,2022-06-29_09h09.06.431,Colour_Asymmetry_Pilot,2022.1.3,MacIntel,60.0024001,62bbe60bf3d75ef465d3e404,,,,,,,,,,,,,,,,,,,"[-0.4982,-0.2942,-0.0354000000000001]",twofour,"[-0.0040000000000000036,0.02739999999999987,-0.08239999999999992]",-1,2.4174,-30.97210693,-55.35101318,1,0,0,response5disk_5,3.121826172,-12.02130127,1,0,0,rectangle_8,3.121826172,-12.02130127,1,0,0,4,3.121826172,-12.02130127,1,0,0,6,0,6,0,1,,,,,,,,,,,,,,,,,,,,,,,,,,,,,,,,,,,,,,,,,,,,,,,,,,,,,,,,,,,,,,,,,,,,,,,,,,,,,,,,,,,,,,,,,,,,,,,,,,,,,,,,,,
,,,,,,611cde82784f11c1e17fe12b,62bbfa1d65911f18c84cfe18,2022-06-29_09h09.06.431,Colour_Asymmetry_Pilot,2022.1.3,MacIntel,60.0024001,62bbe60bf3d75ef465d3e404,,,,,,,,,,,,,,,,,,,,fourthree,,-2,0.9824,,,,,,,,,,,,,,,,,,,,,,,,,,,,,,,,space,4.9083,"[-0.8198,-0.5138,-0.7492000000000001]","[0.22340000000000004,-0.9296,-0.7884]",-67.56610107,-40.5546875,1,0,0,response5disk,5.10949707,-14.76275635,1,0,0,rectangle,5.10949707,-14.76275635,1,0,0,,1,0.0022,0,5.10949707,-14.76275635,1,0,0,0,0,0,103,1,22,second,,,,,,,,,,,,,,,,,,,,,,,,,,,,,,,,,,,,,,,,,,,,,,,,,,,,,,,,,,,,,,,,,,
,,,,,,611cde82784f11c1e17fe12b,62bbfa1d65911f18c84cfe18,2022-06-29_09h09.06.431,Colour_Asymmetry_Pilot,2022.1.3,MacIntel,60.0024001,62bbe60bf3d75ef465d3e404,,,,,,,,,,,,,,,,,,,,threefour,,-2,1.066,,,,,,,,,,,,,,,,,,,,,,,,,,,,,,,,,,"[-0.8982,-0.37259999999999993,0.2784]","[0.40379999999999994,0.09000000000000008,0.44300000000000006]",-71.83068848,-45.48431396,1,0,0,response5disk,-7.268615723,-3.734863281,1,0,0,rectangle,-7.268615723,-3.734863281,1,0,0,,2,0.0018,0,-7.268615723,-3.734863281,1,0,0,0,1,1,138,1,57,second,,,,,,,,,,,,,,,,,,,,,,,,,,,,,,,,,,,,,,,,,,,,,,,,,,,,,,,,,,,,,,,,,,
,,,,,,611cde82784f11c1e17fe12b,62bbfa1d65911f18c84cfe18,2022-06-29_09h09.06.431,Colour_Asymmetry_Pilot,2022.1.3,MacIntel,60.0024001,62bbe60bf3d75ef465d3e404,,,,,,,,,,,,,,,,,,,,onethree,,-3,0.7836,,,,,,,,,,,,,,,,,,,,,,,,,,,,,,,,,,"[0.22340000000000004,-0.9296,-0.7884]","[0.37240000000000006,0.4980000000000002,-0.2864]",-57.68615723,42.31304932,1,0,0,response7disk,31.35388184,-13.06091309,1,0,0,rectangle,31.35388184,-13.06091309,1,0,0,2,3,0.0009,0,31.35388184,-13.06091309,1,0,0,0,2,2,157,1,76,second,,,,,,,,,,,,,,,,,,,,,,,,,,,,,,,,,,,,,,,,,,,,,,,,,,,,,,,,,,,,,,,,,,
,,,,,,611cde82784f11c1e17fe12b,62bbfa1d65911f18c84cfe18,2022-06-29_09h09.06.431,Colour_Asymmetry_Pilot,2022.1.3,MacIntel,60.0024001,62bbe60bf3d75ef465d3e404,,,,,,,,,,,,,,,,,,,,threeone,,-1,0.783,,,,,,,,,,,,,,,,,,,,,,,,,,,,,,,,,,"[-0.48240000000000005,0.3175999999999999,0.2156]","[-0.06680000000000008,-0.45100000000000007,-0.906]",-24.06304932,-59.62890625,1,0,0,response5disk,0.866210938,-8.889160156,1,0,0,rectangle,0.866210938,-8.889160156,1,0,0,2,1,0.0011,0,0.866210938,-8.889160156,1,0,0,0,3,3,110,1,29,second,,,,,,,,,,,,,,,,,,,,,,,,,,,,,,,,,,,,,,,,,,,,,,,,,,,,,,,,,,,,,,,,,,
,,,,,,611cde82784f11c1e17fe12b,62bbfa1d65911f18c84cfe18,2022-06-29_09h09.06.431,Colour_Asymmetry_Pilot,2022.1.3,MacIntel,60.0024001,62bbe60bf3d75ef465d3e404,,,,,,,,,,,,,,,,,,,,threeone,,2,1.0333,,,,,,,,,,,,,,,,,,,,,,,,,,,,,,,,,,"[-0.17659999999999998,-0.2864,-0.8354]","[-0.0040000000000000036,0.02739999999999987,-0.08239999999999992]",50.18383789,-40.5869751,1,0,0,response3disk,18.56866455,-7.788208008,1,0,0,rectangle,18.56866455,-7.788208008,1,0,0,2,1,1E-04,0,18.56866455,-7.788208008,1,0,0,0,4,4,115,1,34,second,,,,,,,,,,,,,,,,,,,,,,,,,,,,,,,,,,,,,,,,,,,,,,,,,,,,,,,,,,,,,,,,,,
,,,,,,611cde82784f11c1e17fe12b,62bbfa1d65911f18c84cfe18,2022-06-29_09h09.06.431,Colour_Asymmetry_Pilot,2022.1.3,MacIntel,60.0024001,62bbe60bf3d75ef465d3e404,,,,,,,,,,,,,,,,,,,,onetwo,,-2,0.8659,,,,,,,,,,,,,,,,,,,,,,,,,,,,,,,,,,"[-0.24719999999999998,0.5213999999999999,-0.12959999999999994]","[0.09799999999999986,-0.24719999999999998,0.15280000000000005]",-51.54107666,-26.22827148,1,0,0,response5disk,-6.145324707,-9.977111816,1,0,0,rectangle,-6.145324707,-9.977111816,1,0,0,2,2,0.0016,0,-6.145324707,-9.977111816,1,0,0,0,5,5,23,1,23,first,,,,,,,,,,,,,,,,,,,,,,,,,,,,,,,,,,,,,,,,,,,,,,,,,,,,,,,,,,,,,,,,,,
,,,,,,611cde82784f11c1e17fe12b,62bbfa1d65911f18c84cfe18,2022-06-29_09h09.06.431,Colour_Asymmetry_Pilot,2022.1.3,MacIntel,60.0024001,62bbe60bf3d75ef465d3e404,,,,,,,,,,,,,,,,,,,,twofour,,3,1.0172,,,,,,,,,,,,,,,,,,,,,,,,,,,,,,,,,,"[0.5449999999999999,-0.31000000000000005,-0.0354000000000001]","[0.5449999999999999,-0.31000000000000005,-0.0354000000000001]",68.97137451,45.7376709,1,0,0,response1disk,-26.62750244,-4.729980469,1,0,0,rectangle,-26.62750244,-4.729980469,1,0,0,2,2,1E-04,0,-26.62750244,-4.729980469,1,0,0,0,6,6,7,1,7,first,,,,,,,,,,,,,,,,,,,,,,,,,,,,,,,,,,,,,,,,,,,,,,,,,,,,,,,,,,,,,,,,,,
,,,,,,611cde82784f11c1e17fe12b,62bbfa1d65911f18c84cfe18,2022-06-29_09h09.06.431,Colour_Asymmetry_Pilot,2022.1.3,MacIntel,60.0024001,62bbe60bf3d75ef465d3e404,,,,,,,,,,,,,,,,,,,,fourthree,,2,0.6993,,,,,,,,,,,,,,,,,,,,,,,,,,,,,,,,,,"[0.9763999999999999,0.8588,-0.05900000000000005]","[1,0.12939999999999996,-1]",73.6362915,-40.98406982,1,0,0,response3disk,36.62457275,-6.670288086,1,0,0,rectangle,36.62457275,-6.670288086,1,0,0,2,2,0.0002,0,36.62457275,-6.670288086,1,0,0,0,7,7,13,1,13,first,,,,,,,,,,,,,,,,,,,,,,,,,,,,,,,,,,,,,,,,,,,,,,,,,,,,,,,,,,,,,,,,,,
,,,,,,611cde82784f11c1e17fe12b,62bbfa1d65911f18c84cfe18,2022-06-29_09h09.06.431,Colour_Asymmetry_Pilot,2022.1.3,MacIntel,60.0024001,62bbe60bf3d75ef465d3e404,,,,,,,,,,,,,,,,,,,,twoone,,-2,1.3667,,,,,,,,,,,,,,,,,,,,,,,,,,,,,,,,,,"[-0.26280000000000003,-0.2158,-0.3256]","[-0.9766,-0.34920000000000007,0.2156]",-49.78393555,-39.16741943,1,0,0,response5disk,21.2598877,-9.463989258,1,0,0,rectangle,21.2598877,-9.463989258,1,0,0,2,3,0.0019,0,21.2598877,-9.463989258,1,0,0,0,8,8,44,1,44,first,,,,,,,,,,,,,,,,,,,,,,,,,,,,,,,,,,,,,,,,,,,,,,,,,,,,,,,,,,,,,,,,,,
,,,,,,611cde82784f11c1e17fe12b,62bbfa1d65911f18c84cfe18,2022-06-29_09h09.06.431,Colour_Asymmetry_Pilot,2022.1.3,MacIntel,60.0024001,62bbe60bf3d75ef465d3e404,,,,,,,,,,,,,,,,,,,,threeone,,3,1.4504,,,,,,,,,,,,,,,,,,,,,,,,,,,,,,,,,,"[0.37240000000000006,0.4980000000000002,-0.2864]","[0.5528,0.7409999999999999,-0.71]",70.87597656,56.13037109,1,0,0,response1disk,12.66888428,-3.987426758,1,0,0,rectangle,12.66888428,-3.987426758,1,0,0,2,3,0.0005,0,12.66888428,-3.987426758,1,0,0,0,9,9,47,1,47,first,,,,,,,,,,,,,,,,,,,,,,,,,,,,,,,,,,,,,,,,,,,,,,,,,,,,,,,,,,,,,,,,,,
,,,,,,611cde82784f11c1e17fe12b,62bbfa1d65911f18c84cfe18,2022-06-29_09h09.06.431,Colour_Asymmetry_Pilot,2022.1.3,MacIntel,60.0024001,62bbe60bf3d75ef465d3e404,,,,,,,,,,,,,,,,,,,,onethree,,3,0.5666,,,,,,,,,,,,,,,,,,,,,,,,,,,,,,,,,,"[-0.0040000000000000036,0.02739999999999987,-0.08239999999999992]","[0.4196,0.4665999999999999,0.3568]",65.25708008,53.840271,1,0,0,response1disk,15.71289063,-3.990539551,1,0,0,rectangle,15.71289063,-3.990539551,1,0,0,2,1,0.002,0,15.71289063,-3.990539551,1,0,0,0,10,10,48,1,48,first,,,,,,,,,,,,,,,,,,,,,,,,,,,,,,,,,,,,,,,,,,,,,,,,,,,,,,,,,,,,,,,,,,
,,,,,,611cde82784f11c1e17fe12b,62bbfa1d65911f18c84cfe18,2022-06-29_09h09.06.431,Colour_Asymmetry_Pilot,2022.1.3,MacIntel,60.0024001,62bbe60bf3d75ef465d3e404,,,,,,,,,,,,,,,,,,,,fourtwo,,-1,0.6667,,,,,,,,,,,,,,,,,,,,,,,,,,,,,,,,,,"[-0.5452,-0.608,0.2470000000000001]","[-0.2942,-0.24719999999999998,-0.357]",-26.51678467,-74.29064941,1,0,0,response5disk,4.594726563,3.098754883,1,0,0,rectangle,4.594726563,3.098754883,1,0,0,2,1,0.0003,0,4.594726563,3.098754883,1,0,0,0,11,11,141,1,60,second,,,,,,,,,,,,,,,,,,,,,,,,,,,,,,,,,,,,,,,,,,,,,,,,,,,,,,,,,,,,,,,,,,
,,,,,,611cde82784f11c1e17fe12b,62bbfa1d65911f18c84cfe18,2022-06-29_09h09.06.431,Colour_Asymmetry_Pilot,2022.1.3,MacIntel,60.0024001,62bbe60bf3d75ef465d3e404,,,,,,,,,,,,,,,,,,,,fourtwo,,1,1.3501,,,,,,,,,,,,,,,,,,,,,,,,,,,,,,,,,,"[-0.8118,-0.8198,-0.5452]","[-0.6706000000000001,-0.6157999999999999,-0.6786]",39.17327881,-67.35144043,1,0,0,response3disk,7.437988281,-4.132080078,1,0,0,rectangle,7.437988281,-4.132080078,1,0,0,2,2,0.002,0,7.437988281,-4.132080078,1,0,0,0,12,12,67,1,67,first,,,,,,,,,,,,,,,,,,,,,,,,,,,,,,,,,,,,,,,,,,,,,,,,,,,,,,,,,,,,,,,,,,
,,,,,,611cde82784f11c1e17fe12b,62bbfa1d65911f18c84cfe18,2022-06-29_09h09.06.431,Colour_Asymmetry_Pilot,2022.1.3,MacIntel,60.0024001,62bbe60bf3d75ef465d3e404,,,,,,,,,,,,,,,,,,,,threeone,,-3,1.5995,,,,,,,,,,,,,,,,,,,,,,,,,,,,,,,,,,"[0.34099999999999997,0.5841999999999998,-0.9844]","[-0.48240000000000005,0.3175999999999999,0.2156]",-68.44042969,30.89880371,1,0,0,response7disk,15.92492676,-1.818908691,1,0,0,rectangle,15.92492676,-1.818908691,1,0,0,2,3,0.0026,0,15.92492676,-1.818908691,1,0,0,0,13,13,49,1,49,first,,,,,,,,,,,,,,,,,,,,,,,,,,,,,,,,,,,,,,,,,,,,,,,,,,,,,,,,,,,,,,,,,,
,,,,,,611cde82784f11c1e17fe12b,62bbfa1d65911f18c84cfe18,2022-06-29_09h09.06.431,Colour_Asymmetry_Pilot,2022.1.3,MacIntel,60.0024001,62bbe60bf3d75ef465d3e404,,,,,,,,,,,,,,,,,,,,twofour,,4,0.6829,,,,,,,,,,,,,,,,,,,,,,,,,,,,,,,,,,"[-0.24719999999999998,-0.0354000000000001,0.3175999999999999]","[0.05879999999999996,0.2784,0.5841999999999998]",59.07745361,67.35473633,1,0,0,response1disk,26.99169922,0.741760254,1,0,0,rectangle,26.99169922,0.741760254,1,0,0,2,3,0.0002,0,26.99169922,0.741760254,1,0,0,0,14,14,45,1,45,first,,,,,,,,,,,,,,,,,,,,,,,,,,,,,,,,,,,,,,,,,,,,,,,,,,,,,,,,,,,,,,,,,,
,,,,,,611cde82784f11c1e17fe12b,62bbfa1d65911f18c84cfe18,2022-06-29_09h09.06.431,Colour_Asymmetry_Pilot,2022.1.3,MacIntel,60.0024001,62bbe60bf3d75ef465d3e404,,,,,,,,,,,,,,,,,,,,fourtwo,,1,0.8994,,,,,,,,,,,,,,,,,,,,,,,,,,,,,,,,,,"[0.9842,0.7409999999999999,-0.6628000000000001]","[0.7802,-0.23140000000000005,-0.20799999999999996]",53.13677979,-60.17584229,1,0,0,response3disk,19.73730469,7.537719727,1,0,0,rectangle,19.73730469,7.537719727,1,0,0,2,1,0.0006,0,19.73730469,7.537719727,1,0,0,0,15,15,82,1,1,second,,,,,,,,,,,,,,,,,,,,,,,,,,,,,,,,,,,,,,,,,,,,,,,,,,,,,,,,,,,,,,,,,,
,,,,,,611cde82784f11c1e17fe12b,62bbfa1d65911f18c84cfe18,2022-06-29_09h09.06.431,Colour_Asymmetry_Pilot,2022.1.3,MacIntel,60.0024001,62bbe60bf3d75ef465d3e404,,,,,,,,,,,,,,,,,,,,twofour,,3,0.716,,,,,,,,,,,,,,,,,,,,,,,,,,,,,,,,,,"[-0.6706000000000001,-0.6157999999999999,-0.6786]","[-0.8118,-0.8198,-0.5452]",50.86120605,26.93927002,1,0,0,response1disk,8.462463379,5.160522461,1,0,0,rectangle,8.462463379,5.160522461,1,0,0,2,1,0.0004,0,8.462463379,5.160522461,1,0,0,0,16,16,148,1,67,second,,,,,,,,,,,,,,,,,,,,,,,,,,,,,,,,,,,,,,,,,,,,,,,,,,,,,,,,,,,,,,,,,,
