trials.thisRepN,trials.thisTrialN,trials.thisN,trials.thisIndex,trials.ran,Colourcodes,participant,session,date,expName,psychopyVersion,OS,frameRate,study_id,trials_4.thisRepN,trials_4.thisTrialN,trials_4.thisN,trials_4.thisIndex,trials_4.ran,StimulusPos,key_resp.keys,key_resp.rt,key_resp_2.keys,key_resp_2.rt,key_resp_15.keys,key_resp_15.rt,key_resp_17.keys,key_resp_17.rt,key_resp_9.keys,key_resp_9.rt,key_resp_10.keys,key_resp_10.rt,Circle1_col,Ecc,Circle2_col,similarity,response_time,mouse_5.x,mouse_5.y,mouse_5.leftButton,mouse_5.midButton,mouse_5.rightButton,mouse_5.clicked_name,mouse_10.x,mouse_10.y,mouse_10.leftButton,mouse_10.midButton,mouse_10.rightButton,mouse_10.clicked_name,mouse_7.x,mouse_7.y,mouse_7.leftButton,mouse_7.midButton,mouse_7.rightButton,catchnumberprac,mouse_6.x,mouse_6.y,mouse_6.leftButton,mouse_6.midButton,mouse_6.rightButton,duringprac.thisRepN,duringprac.thisTrialN,duringprac.thisN,duringprac.thisIndex,duringprac.ran,key_resp_22.keys,key_resp_22.rt,Circle1_colour,Circle2_colour,mouse.x,mouse.y,mouse.leftButton,mouse.midButton,mouse.rightButton,mouse.clicked_name,mouse_2.x,mouse_2.y,mouse_2.leftButton,mouse_2.midButton,mouse_2.rightButton,mouse_2.clicked_name,mouse_3.x,mouse_3.y,mouse_3.leftButton,mouse_3.midButton,mouse_3.rightButton,catchresponse,catchnumber,response_time_catch,Catch,mouse_11.x,mouse_11.y,mouse_11.leftButton,mouse_11.midButton,mouse_11.rightButton,trials_2.thisRepN,trials_2.thisTrialN,trials_2.thisN,trials_2.thisIndex,trials_2.ran,Colourpair,Temporder,mouse_3.clicked_name,mouse_11.clicked_name,trials_3.thisRepN,trials_3.thisTrialN,trials_3.thisN,trials_3.thisIndex,trials_3.ran,key_resp_instr_Ishi.keys,key_resp_instr_Ishi.rt,Ishi_trial_keyresp.keys,Ishi_trial_keyresp.rt,Ishi_textbox.text,Ishi_loop.thisRepN,Ishi_loop.thisTrialN,Ishi_loop.thisN,Ishi_loop.thisIndex,Ishi_loop.ran,imageaddress,textbox.text,mouse_4.x,mouse_4.y,mouse_4.leftButton,mouse_4.midButton,mouse_4.rightButton,mouse_4.clicked_name,textbox_2.text,mouse_8.x,mouse_8.y,mouse_8.leftButton,mouse_8.midButton,mouse_8.rightButton,mouse_8.clicked_name,textbox_3.text,mouse_9.x,mouse_9.y,mouse_9.leftButton,mouse_9.midButton,mouse_9.rightButton,mouse_9.clicked_name,textbox_4.text,mouse_12.x,mouse_12.y,mouse_12.leftButton,mouse_12.midButton,mouse_12.rightButton,mouse_12.clicked_name,textbox_5.text,mouse_13.x,mouse_13.y,mouse_13.leftButton,mouse_13.midButton,mouse_13.rightButton,mouse_13.clicked_name,textbox_6.text,mouse_14.x,mouse_14.y,mouse_14.leftButton,mouse_14.midButton,mouse_14.rightButton,mouse_14.clicked_name,textbox_7.text,mouse_15.x,mouse_15.y,mouse_15.leftButton,mouse_15.midButton,mouse_15.rightButton,mouse_15.clicked_name
0,0,0,86,1,,612b47fce0d4f1a36ff8a758,62bbf970b31a1339db62ec9b,2022-06-29_09h04.59.783,Colour_Asymmetry_Pilot,2022.1.3,Win32,59.81934558,62bbe60bf3d75ef465d3e404,,,,,,,,,,,,,,,,,,,,,,,,,,,,,,,,,,,,,,,,,,,,,,,,,,,,,,,,,,,,,,,,,,,,,,,,,,,,,,,,,,,,,,,,,,,,,,,,,,,,,,,,,,,,,,,,,,,,,,,,,,,,,,,,,,,,,,,,,,,,,,,,,,,,,,,,,,,
0,1,1,14,1,,612b47fce0d4f1a36ff8a758,62bbf970b31a1339db62ec9b,2022-06-29_09h04.59.783,Colour_Asymmetry_Pilot,2022.1.3,Win32,59.81934558,62bbe60bf3d75ef465d3e404,,,,,,,,,,,,,,,,,,,,,,,,,,,,,,,,,,,,,,,,,,,,,,,,,,,,,,,,,,,,,,,,,,,,,,,,,,,,,,,,,,,,,,,,,,,,,,,,,,,,,,,,,,,,,,,,,,,,,,,,,,,,,,,,,,,,,,,,,,,,,,,,,,,,,,,,,,,
0,2,2,69,1,,612b47fce0d4f1a36ff8a758,62bbf970b31a1339db62ec9b,2022-06-29_09h04.59.783,Colour_Asymmetry_Pilot,2022.1.3,Win32,59.81934558,62bbe60bf3d75ef465d3e404,,,,,,,,,,,,,,,,,,,,,,,,,,,,,,,,,,,,,,,,,,,,,,,,,,,,,,,,,,,,,,,,,,,,,,,,,,,,,,,,,,,,,,,,,,,,,,,,,,,,,,,,,,,,,,,,,,,,,,,,,,,,,,,,,,,,,,,,,,,,,,,,,,,,,,,,,,,
0,3,3,79,1,,612b47fce0d4f1a36ff8a758,62bbf970b31a1339db62ec9b,2022-06-29_09h04.59.783,Colour_Asymmetry_Pilot,2022.1.3,Win32,59.81934558,62bbe60bf3d75ef465d3e404,,,,,,,,,,,,,,,,,,,,,,,,,,,,,,,,,,,,,,,,,,,,,,,,,,,,,,,,,,,,,,,,,,,,,,,,,,,,,,,,,,,,,,,,,,,,,,,,,,,,,,,,,,,,,,,,,,,,,,,,,,,,,,,,,,,,,,,,,,,,,,,,,,,,,,,,,,,
0,4,4,83,1,,612b47fce0d4f1a36ff8a758,62bbf970b31a1339db62ec9b,2022-06-29_09h04.59.783,Colour_Asymmetry_Pilot,2022.1.3,Win32,59.81934558,62bbe60bf3d75ef465d3e404,,,,,,,,,,,,,,,,,,,,,,,,,,,,,,,,,,,,,,,,,,,,,,,,,,,,,,,,,,,,,,,,,,,,,,,,,,,,,,,,,,,,,,,,,,,,,,,,,,,,,,,,,,,,,,,,,,,,,,,,,,,,,,,,,,,,,,,,,,,,,,,,,,,,,,,,,,,
0,5,5,18,1,,612b47fce0d4f1a36ff8a758,62bbf970b31a1339db62ec9b,2022-06-29_09h04.59.783,Colour_Asymmetry_Pilot,2022.1.3,Win32,59.81934558,62bbe60bf3d75ef465d3e404,,,,,,,,,,,,,,,,,,,,,,,,,,,,,,,,,,,,,,,,,,,,,,,,,,,,,,,,,,,,,,,,,,,,,,,,,,,,,,,,,,,,,,,,,,,,,,,,,,,,,,,,,,,,,,,,,,,,,,,,,,,,,,,,,,,,,,,,,,,,,,,,,,,,,,,,,,,
0,6,6,74,1,,612b47fce0d4f1a36ff8a758,62bbf970b31a1339db62ec9b,2022-06-29_09h04.59.783,Colour_Asymmetry_Pilot,2022.1.3,Win32,59.81934558,62bbe60bf3d75ef465d3e404,,,,,,,,,,,,,,,,,,,,,,,,,,,,,,,,,,,,,,,,,,,,,,,,,,,,,,,,,,,,,,,,,,,,,,,,,,,,,,,,,,,,,,,,,,,,,,,,,,,,,,,,,,,,,,,,,,,,,,,,,,,,,,,,,,,,,,,,,,,,,,,,,,,,,,,,,,,
0,7,7,60,1,,612b47fce0d4f1a36ff8a758,62bbf970b31a1339db62ec9b,2022-06-29_09h04.59.783,Colour_Asymmetry_Pilot,2022.1.3,Win32,59.81934558,62bbe60bf3d75ef465d3e404,,,,,,,,,,,,,,,,,,,,,,,,,,,,,,,,,,,,,,,,,,,,,,,,,,,,,,,,,,,,,,,,,,,,,,,,,,,,,,,,,,,,,,,,,,,,,,,,,,,,,,,,,,,,,,,,,,,,,,,,,,,,,,,,,,,,,,,,,,,,,,,,,,,,,,,,,,,
0,8,8,39,1,,612b47fce0d4f1a36ff8a758,62bbf970b31a1339db62ec9b,2022-06-29_09h04.59.783,Colour_Asymmetry_Pilot,2022.1.3,Win32,59.81934558,62bbe60bf3d75ef465d3e404,,,,,,,,,,,,,,,,,,,,,,,,,,,,,,,,,,,,,,,,,,,,,,,,,,,,,,,,,,,,,,,,,,,,,,,,,,,,,,,,,,,,,,,,,,,,,,,,,,,,,,,,,,,,,,,,,,,,,,,,,,,,,,,,,,,,,,,,,,,,,,,,,,,,,,,,,,,
0,9,9,24,1,,612b47fce0d4f1a36ff8a758,62bbf970b31a1339db62ec9b,2022-06-29_09h04.59.783,Colour_Asymmetry_Pilot,2022.1.3,Win32,59.81934558,62bbe60bf3d75ef465d3e404,,,,,,,,,,,,,,,,,,,,,,,,,,,,,,,,,,,,,,,,,,,,,,,,,,,,,,,,,,,,,,,,,,,,,,,,,,,,,,,,,,,,,,,,,,,,,,,,,,,,,,,,,,,,,,,,,,,,,,,,,,,,,,,,,,,,,,,,,,,,,,,,,,,,,,,,,,,
0,10,10,7,1,,612b47fce0d4f1a36ff8a758,62bbf970b31a1339db62ec9b,2022-06-29_09h04.59.783,Colour_Asymmetry_Pilot,2022.1.3,Win32,59.81934558,62bbe60bf3d75ef465d3e404,,,,,,,,,,,,,,,,,,,,,,,,,,,,,,,,,,,,,,,,,,,,,,,,,,,,,,,,,,,,,,,,,,,,,,,,,,,,,,,,,,,,,,,,,,,,,,,,,,,,,,,,,,,,,,,,,,,,,,,,,,,,,,,,,,,,,,,,,,,,,,,,,,,,,,,,,,,
0,11,11,54,1,,612b47fce0d4f1a36ff8a758,62bbf970b31a1339db62ec9b,2022-06-29_09h04.59.783,Colour_Asymmetry_Pilot,2022.1.3,Win32,59.81934558,62bbe60bf3d75ef465d3e404,,,,,,,,,,,,,,,,,,,,,,,,,,,,,,,,,,,,,,,,,,,,,,,,,,,,,,,,,,,,,,,,,,,,,,,,,,,,,,,,,,,,,,,,,,,,,,,,,,,,,,,,,,,,,,,,,,,,,,,,,,,,,,,,,,,,,,,,,,,,,,,,,,,,,,,,,,,
0,12,12,27,1,,612b47fce0d4f1a36ff8a758,62bbf970b31a1339db62ec9b,2022-06-29_09h04.59.783,Colour_Asymmetry_Pilot,2022.1.3,Win32,59.81934558,62bbe60bf3d75ef465d3e404,,,,,,,,,,,,,,,,,,,,,,,,,,,,,,,,,,,,,,,,,,,,,,,,,,,,,,,,,,,,,,,,,,,,,,,,,,,,,,,,,,,,,,,,,,,,,,,,,,,,,,,,,,,,,,,,,,,,,,,,,,,,,,,,,,,,,,,,,,,,,,,,,,,,,,,,,,,
0,13,13,71,1,,612b47fce0d4f1a36ff8a758,62bbf970b31a1339db62ec9b,2022-06-29_09h04.59.783,Colour_Asymmetry_Pilot,2022.1.3,Win32,59.81934558,62bbe60bf3d75ef465d3e404,,,,,,,,,,,,,,,,,,,,,,,,,,,,,,,,,,,,,,,,,,,,,,,,,,,,,,,,,,,,,,,,,,,,,,,,,,,,,,,,,,,,,,,,,,,,,,,,,,,,,,,,,,,,,,,,,,,,,,,,,,,,,,,,,,,,,,,,,,,,,,,,,,,,,,,,,,,
0,14,14,32,1,,612b47fce0d4f1a36ff8a758,62bbf970b31a1339db62ec9b,2022-06-29_09h04.59.783,Colour_Asymmetry_Pilot,2022.1.3,Win32,59.81934558,62bbe60bf3d75ef465d3e404,,,,,,,,,,,,,,,,,,,,,,,,,,,,,,,,,,,,,,,,,,,,,,,,,,,,,,,,,,,,,,,,,,,,,,,,,,,,,,,,,,,,,,,,,,,,,,,,,,,,,,,,,,,,,,,,,,,,,,,,,,,,,,,,,,,,,,,,,,,,,,,,,,,,,,,,,,,
0,15,15,29,1,,612b47fce0d4f1a36ff8a758,62bbf970b31a1339db62ec9b,2022-06-29_09h04.59.783,Colour_Asymmetry_Pilot,2022.1.3,Win32,59.81934558,62bbe60bf3d75ef465d3e404,,,,,,,,,,,,,,,,,,,,,,,,,,,,,,,,,,,,,,,,,,,,,,,,,,,,,,,,,,,,,,,,,,,,,,,,,,,,,,,,,,,,,,,,,,,,,,,,,,,,,,,,,,,,,,,,,,,,,,,,,,,,,,,,,,,,,,,,,,,,,,,,,,,,,,,,,,,
0,16,16,55,1,,612b47fce0d4f1a36ff8a758,62bbf970b31a1339db62ec9b,2022-06-29_09h04.59.783,Colour_Asymmetry_Pilot,2022.1.3,Win32,59.81934558,62bbe60bf3d75ef465d3e404,,,,,,,,,,,,,,,,,,,,,,,,,,,,,,,,,,,,,,,,,,,,,,,,,,,,,,,,,,,,,,,,,,,,,,,,,,,,,,,,,,,,,,,,,,,,,,,,,,,,,,,,,,,,,,,,,,,,,,,,,,,,,,,,,,,,,,,,,,,,,,,,,,,,,,,,,,,
0,17,17,38,1,,612b47fce0d4f1a36ff8a758,62bbf970b31a1339db62ec9b,2022-06-29_09h04.59.783,Colour_Asymmetry_Pilot,2022.1.3,Win32,59.81934558,62bbe60bf3d75ef465d3e404,,,,,,,,,,,,,,,,,,,,,,,,,,,,,,,,,,,,,,,,,,,,,,,,,,,,,,,,,,,,,,,,,,,,,,,,,,,,,,,,,,,,,,,,,,,,,,,,,,,,,,,,,,,,,,,,,,,,,,,,,,,,,,,,,,,,,,,,,,,,,,,,,,,,,,,,,,,
0,18,18,42,1,,612b47fce0d4f1a36ff8a758,62bbf970b31a1339db62ec9b,2022-06-29_09h04.59.783,Colour_Asymmetry_Pilot,2022.1.3,Win32,59.81934558,62bbe60bf3d75ef465d3e404,,,,,,,,,,,,,,,,,,,,,,,,,,,,,,,,,,,,,,,,,,,,,,,,,,,,,,,,,,,,,,,,,,,,,,,,,,,,,,,,,,,,,,,,,,,,,,,,,,,,,,,,,,,,,,,,,,,,,,,,,,,,,,,,,,,,,,,,,,,,,,,,,,,,,,,,,,,
0,19,19,16,1,,612b47fce0d4f1a36ff8a758,62bbf970b31a1339db62ec9b,2022-06-29_09h04.59.783,Colour_Asymmetry_Pilot,2022.1.3,Win32,59.81934558,62bbe60bf3d75ef465d3e404,,,,,,,,,,,,,,,,,,,,,,,,,,,,,,,,,,,,,,,,,,,,,,,,,,,,,,,,,,,,,,,,,,,,,,,,,,,,,,,,,,,,,,,,,,,,,,,,,,,,,,,,,,,,,,,,,,,,,,,,,,,,,,,,,,,,,,,,,,,,,,,,,,,,,,,,,,,
0,20,20,51,1,,612b47fce0d4f1a36ff8a758,62bbf970b31a1339db62ec9b,2022-06-29_09h04.59.783,Colour_Asymmetry_Pilot,2022.1.3,Win32,59.81934558,62bbe60bf3d75ef465d3e404,,,,,,,,,,,,,,,,,,,,,,,,,,,,,,,,,,,,,,,,,,,,,,,,,,,,,,,,,,,,,,,,,,,,,,,,,,,,,,,,,,,,,,,,,,,,,,,,,,,,,,,,,,,,,,,,,,,,,,,,,,,,,,,,,,,,,,,,,,,,,,,,,,,,,,,,,,,
0,21,21,63,1,,612b47fce0d4f1a36ff8a758,62bbf970b31a1339db62ec9b,2022-06-29_09h04.59.783,Colour_Asymmetry_Pilot,2022.1.3,Win32,59.81934558,62bbe60bf3d75ef465d3e404,,,,,,,,,,,,,,,,,,,,,,,,,,,,,,,,,,,,,,,,,,,,,,,,,,,,,,,,,,,,,,,,,,,,,,,,,,,,,,,,,,,,,,,,,,,,,,,,,,,,,,,,,,,,,,,,,,,,,,,,,,,,,,,,,,,,,,,,,,,,,,,,,,,,,,,,,,,
0,22,22,81,1,,612b47fce0d4f1a36ff8a758,62bbf970b31a1339db62ec9b,2022-06-29_09h04.59.783,Colour_Asymmetry_Pilot,2022.1.3,Win32,59.81934558,62bbe60bf3d75ef465d3e404,,,,,,,,,,,,,,,,,,,,,,,,,,,,,,,,,,,,,,,,,,,,,,,,,,,,,,,,,,,,,,,,,,,,,,,,,,,,,,,,,,,,,,,,,,,,,,,,,,,,,,,,,,,,,,,,,,,,,,,,,,,,,,,,,,,,,,,,,,,,,,,,,,,,,,,,,,,
0,23,23,37,1,,612b47fce0d4f1a36ff8a758,62bbf970b31a1339db62ec9b,2022-06-29_09h04.59.783,Colour_Asymmetry_Pilot,2022.1.3,Win32,59.81934558,62bbe60bf3d75ef465d3e404,,,,,,,,,,,,,,,,,,,,,,,,,,,,,,,,,,,,,,,,,,,,,,,,,,,,,,,,,,,,,,,,,,,,,,,,,,,,,,,,,,,,,,,,,,,,,,,,,,,,,,,,,,,,,,,,,,,,,,,,,,,,,,,,,,,,,,,,,,,,,,,,,,,,,,,,,,,
0,24,24,17,1,,612b47fce0d4f1a36ff8a758,62bbf970b31a1339db62ec9b,2022-06-29_09h04.59.783,Colour_Asymmetry_Pilot,2022.1.3,Win32,59.81934558,62bbe60bf3d75ef465d3e404,,,,,,,,,,,,,,,,,,,,,,,,,,,,,,,,,,,,,,,,,,,,,,,,,,,,,,,,,,,,,,,,,,,,,,,,,,,,,,,,,,,,,,,,,,,,,,,,,,,,,,,,,,,,,,,,,,,,,,,,,,,,,,,,,,,,,,,,,,,,,,,,,,,,,,,,,,,
0,25,25,44,1,,612b47fce0d4f1a36ff8a758,62bbf970b31a1339db62ec9b,2022-06-29_09h04.59.783,Colour_Asymmetry_Pilot,2022.1.3,Win32,59.81934558,62bbe60bf3d75ef465d3e404,,,,,,,,,,,,,,,,,,,,,,,,,,,,,,,,,,,,,,,,,,,,,,,,,,,,,,,,,,,,,,,,,,,,,,,,,,,,,,,,,,,,,,,,,,,,,,,,,,,,,,,,,,,,,,,,,,,,,,,,,,,,,,,,,,,,,,,,,,,,,,,,,,,,,,,,,,,
0,26,26,10,1,,612b47fce0d4f1a36ff8a758,62bbf970b31a1339db62ec9b,2022-06-29_09h04.59.783,Colour_Asymmetry_Pilot,2022.1.3,Win32,59.81934558,62bbe60bf3d75ef465d3e404,,,,,,,,,,,,,,,,,,,,,,,,,,,,,,,,,,,,,,,,,,,,,,,,,,,,,,,,,,,,,,,,,,,,,,,,,,,,,,,,,,,,,,,,,,,,,,,,,,,,,,,,,,,,,,,,,,,,,,,,,,,,,,,,,,,,,,,,,,,,,,,,,,,,,,,,,,,
0,27,27,22,1,,612b47fce0d4f1a36ff8a758,62bbf970b31a1339db62ec9b,2022-06-29_09h04.59.783,Colour_Asymmetry_Pilot,2022.1.3,Win32,59.81934558,62bbe60bf3d75ef465d3e404,,,,,,,,,,,,,,,,,,,,,,,,,,,,,,,,,,,,,,,,,,,,,,,,,,,,,,,,,,,,,,,,,,,,,,,,,,,,,,,,,,,,,,,,,,,,,,,,,,,,,,,,,,,,,,,,,,,,,,,,,,,,,,,,,,,,,,,,,,,,,,,,,,,,,,,,,,,
0,28,28,66,1,,612b47fce0d4f1a36ff8a758,62bbf970b31a1339db62ec9b,2022-06-29_09h04.59.783,Colour_Asymmetry_Pilot,2022.1.3,Win32,59.81934558,62bbe60bf3d75ef465d3e404,,,,,,,,,,,,,,,,,,,,,,,,,,,,,,,,,,,,,,,,,,,,,,,,,,,,,,,,,,,,,,,,,,,,,,,,,,,,,,,,,,,,,,,,,,,,,,,,,,,,,,,,,,,,,,,,,,,,,,,,,,,,,,,,,,,,,,,,,,,,,,,,,,,,,,,,,,,
0,29,29,50,1,,612b47fce0d4f1a36ff8a758,62bbf970b31a1339db62ec9b,2022-06-29_09h04.59.783,Colour_Asymmetry_Pilot,2022.1.3,Win32,59.81934558,62bbe60bf3d75ef465d3e404,,,,,,,,,,,,,,,,,,,,,,,,,,,,,,,,,,,,,,,,,,,,,,,,,,,,,,,,,,,,,,,,,,,,,,,,,,,,,,,,,,,,,,,,,,,,,,,,,,,,,,,,,,,,,,,,,,,,,,,,,,,,,,,,,,,,,,,,,,,,,,,,,,,,,,,,,,,
0,30,30,72,1,,612b47fce0d4f1a36ff8a758,62bbf970b31a1339db62ec9b,2022-06-29_09h04.59.783,Colour_Asymmetry_Pilot,2022.1.3,Win32,59.81934558,62bbe60bf3d75ef465d3e404,,,,,,,,,,,,,,,,,,,,,,,,,,,,,,,,,,,,,,,,,,,,,,,,,,,,,,,,,,,,,,,,,,,,,,,,,,,,,,,,,,,,,,,,,,,,,,,,,,,,,,,,,,,,,,,,,,,,,,,,,,,,,,,,,,,,,,,,,,,,,,,,,,,,,,,,,,,
0,31,31,30,1,,612b47fce0d4f1a36ff8a758,62bbf970b31a1339db62ec9b,2022-06-29_09h04.59.783,Colour_Asymmetry_Pilot,2022.1.3,Win32,59.81934558,62bbe60bf3d75ef465d3e404,,,,,,,,,,,,,,,,,,,,,,,,,,,,,,,,,,,,,,,,,,,,,,,,,,,,,,,,,,,,,,,,,,,,,,,,,,,,,,,,,,,,,,,,,,,,,,,,,,,,,,,,,,,,,,,,,,,,,,,,,,,,,,,,,,,,,,,,,,,,,,,,,,,,,,,,,,,
0,32,32,5,1,,612b47fce0d4f1a36ff8a758,62bbf970b31a1339db62ec9b,2022-06-29_09h04.59.783,Colour_Asymmetry_Pilot,2022.1.3,Win32,59.81934558,62bbe60bf3d75ef465d3e404,,,,,,,,,,,,,,,,,,,,,,,,,,,,,,,,,,,,,,,,,,,,,,,,,,,,,,,,,,,,,,,,,,,,,,,,,,,,,,,,,,,,,,,,,,,,,,,,,,,,,,,,,,,,,,,,,,,,,,,,,,,,,,,,,,,,,,,,,,,,,,,,,,,,,,,,,,,
0,33,33,11,1,,612b47fce0d4f1a36ff8a758,62bbf970b31a1339db62ec9b,2022-06-29_09h04.59.783,Colour_Asymmetry_Pilot,2022.1.3,Win32,59.81934558,62bbe60bf3d75ef465d3e404,,,,,,,,,,,,,,,,,,,,,,,,,,,,,,,,,,,,,,,,,,,,,,,,,,,,,,,,,,,,,,,,,,,,,,,,,,,,,,,,,,,,,,,,,,,,,,,,,,,,,,,,,,,,,,,,,,,,,,,,,,,,,,,,,,,,,,,,,,,,,,,,,,,,,,,,,,,
0,34,34,89,1,,612b47fce0d4f1a36ff8a758,62bbf970b31a1339db62ec9b,2022-06-29_09h04.59.783,Colour_Asymmetry_Pilot,2022.1.3,Win32,59.81934558,62bbe60bf3d75ef465d3e404,,,,,,,,,,,,,,,,,,,,,,,,,,,,,,,,,,,,,,,,,,,,,,,,,,,,,,,,,,,,,,,,,,,,,,,,,,,,,,,,,,,,,,,,,,,,,,,,,,,,,,,,,,,,,,,,,,,,,,,,,,,,,,,,,,,,,,,,,,,,,,,,,,,,,,,,,,,
0,35,35,34,1,,612b47fce0d4f1a36ff8a758,62bbf970b31a1339db62ec9b,2022-06-29_09h04.59.783,Colour_Asymmetry_Pilot,2022.1.3,Win32,59.81934558,62bbe60bf3d75ef465d3e404,,,,,,,,,,,,,,,,,,,,,,,,,,,,,,,,,,,,,,,,,,,,,,,,,,,,,,,,,,,,,,,,,,,,,,,,,,,,,,,,,,,,,,,,,,,,,,,,,,,,,,,,,,,,,,,,,,,,,,,,,,,,,,,,,,,,,,,,,,,,,,,,,,,,,,,,,,,
0,36,36,52,1,,612b47fce0d4f1a36ff8a758,62bbf970b31a1339db62ec9b,2022-06-29_09h04.59.783,Colour_Asymmetry_Pilot,2022.1.3,Win32,59.81934558,62bbe60bf3d75ef465d3e404,,,,,,,,,,,,,,,,,,,,,,,,,,,,,,,,,,,,,,,,,,,,,,,,,,,,,,,,,,,,,,,,,,,,,,,,,,,,,,,,,,,,,,,,,,,,,,,,,,,,,,,,,,,,,,,,,,,,,,,,,,,,,,,,,,,,,,,,,,,,,,,,,,,,,,,,,,,
0,37,37,80,1,,612b47fce0d4f1a36ff8a758,62bbf970b31a1339db62ec9b,2022-06-29_09h04.59.783,Colour_Asymmetry_Pilot,2022.1.3,Win32,59.81934558,62bbe60bf3d75ef465d3e404,,,,,,,,,,,,,,,,,,,,,,,,,,,,,,,,,,,,,,,,,,,,,,,,,,,,,,,,,,,,,,,,,,,,,,,,,,,,,,,,,,,,,,,,,,,,,,,,,,,,,,,,,,,,,,,,,,,,,,,,,,,,,,,,,,,,,,,,,,,,,,,,,,,,,,,,,,,
0,38,38,31,1,,612b47fce0d4f1a36ff8a758,62bbf970b31a1339db62ec9b,2022-06-29_09h04.59.783,Colour_Asymmetry_Pilot,2022.1.3,Win32,59.81934558,62bbe60bf3d75ef465d3e404,,,,,,,,,,,,,,,,,,,,,,,,,,,,,,,,,,,,,,,,,,,,,,,,,,,,,,,,,,,,,,,,,,,,,,,,,,,,,,,,,,,,,,,,,,,,,,,,,,,,,,,,,,,,,,,,,,,,,,,,,,,,,,,,,,,,,,,,,,,,,,,,,,,,,,,,,,,
0,39,39,23,1,,612b47fce0d4f1a36ff8a758,62bbf970b31a1339db62ec9b,2022-06-29_09h04.59.783,Colour_Asymmetry_Pilot,2022.1.3,Win32,59.81934558,62bbe60bf3d75ef465d3e404,,,,,,,,,,,,,,,,,,,,,,,,,,,,,,,,,,,,,,,,,,,,,,,,,,,,,,,,,,,,,,,,,,,,,,,,,,,,,,,,,,,,,,,,,,,,,,,,,,,,,,,,,,,,,,,,,,,,,,,,,,,,,,,,,,,,,,,,,,,,,,,,,,,,,,,,,,,
0,40,40,36,1,,612b47fce0d4f1a36ff8a758,62bbf970b31a1339db62ec9b,2022-06-29_09h04.59.783,Colour_Asymmetry_Pilot,2022.1.3,Win32,59.81934558,62bbe60bf3d75ef465d3e404,,,,,,,,,,,,,,,,,,,,,,,,,,,,,,,,,,,,,,,,,,,,,,,,,,,,,,,,,,,,,,,,,,,,,,,,,,,,,,,,,,,,,,,,,,,,,,,,,,,,,,,,,,,,,,,,,,,,,,,,,,,,,,,,,,,,,,,,,,,,,,,,,,,,,,,,,,,
0,41,41,49,1,,612b47fce0d4f1a36ff8a758,62bbf970b31a1339db62ec9b,2022-06-29_09h04.59.783,Colour_Asymmetry_Pilot,2022.1.3,Win32,59.81934558,62bbe60bf3d75ef465d3e404,,,,,,,,,,,,,,,,,,,,,,,,,,,,,,,,,,,,,,,,,,,,,,,,,,,,,,,,,,,,,,,,,,,,,,,,,,,,,,,,,,,,,,,,,,,,,,,,,,,,,,,,,,,,,,,,,,,,,,,,,,,,,,,,,,,,,,,,,,,,,,,,,,,,,,,,,,,
0,42,42,28,1,,612b47fce0d4f1a36ff8a758,62bbf970b31a1339db62ec9b,2022-06-29_09h04.59.783,Colour_Asymmetry_Pilot,2022.1.3,Win32,59.81934558,62bbe60bf3d75ef465d3e404,,,,,,,,,,,,,,,,,,,,,,,,,,,,,,,,,,,,,,,,,,,,,,,,,,,,,,,,,,,,,,,,,,,,,,,,,,,,,,,,,,,,,,,,,,,,,,,,,,,,,,,,,,,,,,,,,,,,,,,,,,,,,,,,,,,,,,,,,,,,,,,,,,,,,,,,,,,
0,43,43,26,1,,612b47fce0d4f1a36ff8a758,62bbf970b31a1339db62ec9b,2022-06-29_09h04.59.783,Colour_Asymmetry_Pilot,2022.1.3,Win32,59.81934558,62bbe60bf3d75ef465d3e404,,,,,,,,,,,,,,,,,,,,,,,,,,,,,,,,,,,,,,,,,,,,,,,,,,,,,,,,,,,,,,,,,,,,,,,,,,,,,,,,,,,,,,,,,,,,,,,,,,,,,,,,,,,,,,,,,,,,,,,,,,,,,,,,,,,,,,,,,,,,,,,,,,,,,,,,,,,
0,44,44,62,1,,612b47fce0d4f1a36ff8a758,62bbf970b31a1339db62ec9b,2022-06-29_09h04.59.783,Colour_Asymmetry_Pilot,2022.1.3,Win32,59.81934558,62bbe60bf3d75ef465d3e404,,,,,,,,,,,,,,,,,,,,,,,,,,,,,,,,,,,,,,,,,,,,,,,,,,,,,,,,,,,,,,,,,,,,,,,,,,,,,,,,,,,,,,,,,,,,,,,,,,,,,,,,,,,,,,,,,,,,,,,,,,,,,,,,,,,,,,,,,,,,,,,,,,,,,,,,,,,
0,45,45,3,1,,612b47fce0d4f1a36ff8a758,62bbf970b31a1339db62ec9b,2022-06-29_09h04.59.783,Colour_Asymmetry_Pilot,2022.1.3,Win32,59.81934558,62bbe60bf3d75ef465d3e404,,,,,,,,,,,,,,,,,,,,,,,,,,,,,,,,,,,,,,,,,,,,,,,,,,,,,,,,,,,,,,,,,,,,,,,,,,,,,,,,,,,,,,,,,,,,,,,,,,,,,,,,,,,,,,,,,,,,,,,,,,,,,,,,,,,,,,,,,,,,,,,,,,,,,,,,,,,
0,46,46,68,1,,612b47fce0d4f1a36ff8a758,62bbf970b31a1339db62ec9b,2022-06-29_09h04.59.783,Colour_Asymmetry_Pilot,2022.1.3,Win32,59.81934558,62bbe60bf3d75ef465d3e404,,,,,,,,,,,,,,,,,,,,,,,,,,,,,,,,,,,,,,,,,,,,,,,,,,,,,,,,,,,,,,,,,,,,,,,,,,,,,,,,,,,,,,,,,,,,,,,,,,,,,,,,,,,,,,,,,,,,,,,,,,,,,,,,,,,,,,,,,,,,,,,,,,,,,,,,,,,
0,47,47,1,1,,612b47fce0d4f1a36ff8a758,62bbf970b31a1339db62ec9b,2022-06-29_09h04.59.783,Colour_Asymmetry_Pilot,2022.1.3,Win32,59.81934558,62bbe60bf3d75ef465d3e404,,,,,,,,,,,,,,,,,,,,,,,,,,,,,,,,,,,,,,,,,,,,,,,,,,,,,,,,,,,,,,,,,,,,,,,,,,,,,,,,,,,,,,,,,,,,,,,,,,,,,,,,,,,,,,,,,,,,,,,,,,,,,,,,,,,,,,,,,,,,,,,,,,,,,,,,,,,
0,48,48,40,1,,612b47fce0d4f1a36ff8a758,62bbf970b31a1339db62ec9b,2022-06-29_09h04.59.783,Colour_Asymmetry_Pilot,2022.1.3,Win32,59.81934558,62bbe60bf3d75ef465d3e404,,,,,,,,,,,,,,,,,,,,,,,,,,,,,,,,,,,,,,,,,,,,,,,,,,,,,,,,,,,,,,,,,,,,,,,,,,,,,,,,,,,,,,,,,,,,,,,,,,,,,,,,,,,,,,,,,,,,,,,,,,,,,,,,,,,,,,,,,,,,,,,,,,,,,,,,,,,
0,49,49,67,1,,612b47fce0d4f1a36ff8a758,62bbf970b31a1339db62ec9b,2022-06-29_09h04.59.783,Colour_Asymmetry_Pilot,2022.1.3,Win32,59.81934558,62bbe60bf3d75ef465d3e404,,,,,,,,,,,,,,,,,,,,,,,,,,,,,,,,,,,,,,,,,,,,,,,,,,,,,,,,,,,,,,,,,,,,,,,,,,,,,,,,,,,,,,,,,,,,,,,,,,,,,,,,,,,,,,,,,,,,,,,,,,,,,,,,,,,,,,,,,,,,,,,,,,,,,,,,,,,
0,50,50,0,1,,612b47fce0d4f1a36ff8a758,62bbf970b31a1339db62ec9b,2022-06-29_09h04.59.783,Colour_Asymmetry_Pilot,2022.1.3,Win32,59.81934558,62bbe60bf3d75ef465d3e404,,,,,,,,,,,,,,,,,,,,,,,,,,,,,,,,,,,,,,,,,,,,,,,,,,,,,,,,,,,,,,,,,,,,,,,,,,,,,,,,,,,,,,,,,,,,,,,,,,,,,,,,,,,,,,,,,,,,,,,,,,,,,,,,,,,,,,,,,,,,,,,,,,,,,,,,,,,
0,51,51,53,1,,612b47fce0d4f1a36ff8a758,62bbf970b31a1339db62ec9b,2022-06-29_09h04.59.783,Colour_Asymmetry_Pilot,2022.1.3,Win32,59.81934558,62bbe60bf3d75ef465d3e404,,,,,,,,,,,,,,,,,,,,,,,,,,,,,,,,,,,,,,,,,,,,,,,,,,,,,,,,,,,,,,,,,,,,,,,,,,,,,,,,,,,,,,,,,,,,,,,,,,,,,,,,,,,,,,,,,,,,,,,,,,,,,,,,,,,,,,,,,,,,,,,,,,,,,,,,,,,
0,52,52,8,1,,612b47fce0d4f1a36ff8a758,62bbf970b31a1339db62ec9b,2022-06-29_09h04.59.783,Colour_Asymmetry_Pilot,2022.1.3,Win32,59.81934558,62bbe60bf3d75ef465d3e404,,,,,,,,,,,,,,,,,,,,,,,,,,,,,,,,,,,,,,,,,,,,,,,,,,,,,,,,,,,,,,,,,,,,,,,,,,,,,,,,,,,,,,,,,,,,,,,,,,,,,,,,,,,,,,,,,,,,,,,,,,,,,,,,,,,,,,,,,,,,,,,,,,,,,,,,,,,
0,53,53,57,1,,612b47fce0d4f1a36ff8a758,62bbf970b31a1339db62ec9b,2022-06-29_09h04.59.783,Colour_Asymmetry_Pilot,2022.1.3,Win32,59.81934558,62bbe60bf3d75ef465d3e404,,,,,,,,,,,,,,,,,,,,,,,,,,,,,,,,,,,,,,,,,,,,,,,,,,,,,,,,,,,,,,,,,,,,,,,,,,,,,,,,,,,,,,,,,,,,,,,,,,,,,,,,,,,,,,,,,,,,,,,,,,,,,,,,,,,,,,,,,,,,,,,,,,,,,,,,,,,
0,54,54,61,1,,612b47fce0d4f1a36ff8a758,62bbf970b31a1339db62ec9b,2022-06-29_09h04.59.783,Colour_Asymmetry_Pilot,2022.1.3,Win32,59.81934558,62bbe60bf3d75ef465d3e404,,,,,,,,,,,,,,,,,,,,,,,,,,,,,,,,,,,,,,,,,,,,,,,,,,,,,,,,,,,,,,,,,,,,,,,,,,,,,,,,,,,,,,,,,,,,,,,,,,,,,,,,,,,,,,,,,,,,,,,,,,,,,,,,,,,,,,,,,,,,,,,,,,,,,,,,,,,
0,55,55,35,1,,612b47fce0d4f1a36ff8a758,62bbf970b31a1339db62ec9b,2022-06-29_09h04.59.783,Colour_Asymmetry_Pilot,2022.1.3,Win32,59.81934558,62bbe60bf3d75ef465d3e404,,,,,,,,,,,,,,,,,,,,,,,,,,,,,,,,,,,,,,,,,,,,,,,,,,,,,,,,,,,,,,,,,,,,,,,,,,,,,,,,,,,,,,,,,,,,,,,,,,,,,,,,,,,,,,,,,,,,,,,,,,,,,,,,,,,,,,,,,,,,,,,,,,,,,,,,,,,
0,56,56,25,1,,612b47fce0d4f1a36ff8a758,62bbf970b31a1339db62ec9b,2022-06-29_09h04.59.783,Colour_Asymmetry_Pilot,2022.1.3,Win32,59.81934558,62bbe60bf3d75ef465d3e404,,,,,,,,,,,,,,,,,,,,,,,,,,,,,,,,,,,,,,,,,,,,,,,,,,,,,,,,,,,,,,,,,,,,,,,,,,,,,,,,,,,,,,,,,,,,,,,,,,,,,,,,,,,,,,,,,,,,,,,,,,,,,,,,,,,,,,,,,,,,,,,,,,,,,,,,,,,
0,57,57,33,1,,612b47fce0d4f1a36ff8a758,62bbf970b31a1339db62ec9b,2022-06-29_09h04.59.783,Colour_Asymmetry_Pilot,2022.1.3,Win32,59.81934558,62bbe60bf3d75ef465d3e404,,,,,,,,,,,,,,,,,,,,,,,,,,,,,,,,,,,,,,,,,,,,,,,,,,,,,,,,,,,,,,,,,,,,,,,,,,,,,,,,,,,,,,,,,,,,,,,,,,,,,,,,,,,,,,,,,,,,,,,,,,,,,,,,,,,,,,,,,,,,,,,,,,,,,,,,,,,
0,58,58,48,1,,612b47fce0d4f1a36ff8a758,62bbf970b31a1339db62ec9b,2022-06-29_09h04.59.783,Colour_Asymmetry_Pilot,2022.1.3,Win32,59.81934558,62bbe60bf3d75ef465d3e404,,,,,,,,,,,,,,,,,,,,,,,,,,,,,,,,,,,,,,,,,,,,,,,,,,,,,,,,,,,,,,,,,,,,,,,,,,,,,,,,,,,,,,,,,,,,,,,,,,,,,,,,,,,,,,,,,,,,,,,,,,,,,,,,,,,,,,,,,,,,,,,,,,,,,,,,,,,
0,59,59,82,1,,612b47fce0d4f1a36ff8a758,62bbf970b31a1339db62ec9b,2022-06-29_09h04.59.783,Colour_Asymmetry_Pilot,2022.1.3,Win32,59.81934558,62bbe60bf3d75ef465d3e404,,,,,,,,,,,,,,,,,,,,,,,,,,,,,,,,,,,,,,,,,,,,,,,,,,,,,,,,,,,,,,,,,,,,,,,,,,,,,,,,,,,,,,,,,,,,,,,,,,,,,,,,,,,,,,,,,,,,,,,,,,,,,,,,,,,,,,,,,,,,,,,,,,,,,,,,,,,
0,60,60,64,1,,612b47fce0d4f1a36ff8a758,62bbf970b31a1339db62ec9b,2022-06-29_09h04.59.783,Colour_Asymmetry_Pilot,2022.1.3,Win32,59.81934558,62bbe60bf3d75ef465d3e404,,,,,,,,,,,,,,,,,,,,,,,,,,,,,,,,,,,,,,,,,,,,,,,,,,,,,,,,,,,,,,,,,,,,,,,,,,,,,,,,,,,,,,,,,,,,,,,,,,,,,,,,,,,,,,,,,,,,,,,,,,,,,,,,,,,,,,,,,,,,,,,,,,,,,,,,,,,
0,61,61,77,1,,612b47fce0d4f1a36ff8a758,62bbf970b31a1339db62ec9b,2022-06-29_09h04.59.783,Colour_Asymmetry_Pilot,2022.1.3,Win32,59.81934558,62bbe60bf3d75ef465d3e404,,,,,,,,,,,,,,,,,,,,,,,,,,,,,,,,,,,,,,,,,,,,,,,,,,,,,,,,,,,,,,,,,,,,,,,,,,,,,,,,,,,,,,,,,,,,,,,,,,,,,,,,,,,,,,,,,,,,,,,,,,,,,,,,,,,,,,,,,,,,,,,,,,,,,,,,,,,
0,62,62,85,1,,612b47fce0d4f1a36ff8a758,62bbf970b31a1339db62ec9b,2022-06-29_09h04.59.783,Colour_Asymmetry_Pilot,2022.1.3,Win32,59.81934558,62bbe60bf3d75ef465d3e404,,,,,,,,,,,,,,,,,,,,,,,,,,,,,,,,,,,,,,,,,,,,,,,,,,,,,,,,,,,,,,,,,,,,,,,,,,,,,,,,,,,,,,,,,,,,,,,,,,,,,,,,,,,,,,,,,,,,,,,,,,,,,,,,,,,,,,,,,,,,,,,,,,,,,,,,,,,
0,63,63,65,1,,612b47fce0d4f1a36ff8a758,62bbf970b31a1339db62ec9b,2022-06-29_09h04.59.783,Colour_Asymmetry_Pilot,2022.1.3,Win32,59.81934558,62bbe60bf3d75ef465d3e404,,,,,,,,,,,,,,,,,,,,,,,,,,,,,,,,,,,,,,,,,,,,,,,,,,,,,,,,,,,,,,,,,,,,,,,,,,,,,,,,,,,,,,,,,,,,,,,,,,,,,,,,,,,,,,,,,,,,,,,,,,,,,,,,,,,,,,,,,,,,,,,,,,,,,,,,,,,
0,64,64,21,1,,612b47fce0d4f1a36ff8a758,62bbf970b31a1339db62ec9b,2022-06-29_09h04.59.783,Colour_Asymmetry_Pilot,2022.1.3,Win32,59.81934558,62bbe60bf3d75ef465d3e404,,,,,,,,,,,,,,,,,,,,,,,,,,,,,,,,,,,,,,,,,,,,,,,,,,,,,,,,,,,,,,,,,,,,,,,,,,,,,,,,,,,,,,,,,,,,,,,,,,,,,,,,,,,,,,,,,,,,,,,,,,,,,,,,,,,,,,,,,,,,,,,,,,,,,,,,,,,
0,65,65,58,1,,612b47fce0d4f1a36ff8a758,62bbf970b31a1339db62ec9b,2022-06-29_09h04.59.783,Colour_Asymmetry_Pilot,2022.1.3,Win32,59.81934558,62bbe60bf3d75ef465d3e404,,,,,,,,,,,,,,,,,,,,,,,,,,,,,,,,,,,,,,,,,,,,,,,,,,,,,,,,,,,,,,,,,,,,,,,,,,,,,,,,,,,,,,,,,,,,,,,,,,,,,,,,,,,,,,,,,,,,,,,,,,,,,,,,,,,,,,,,,,,,,,,,,,,,,,,,,,,
0,66,66,4,1,,612b47fce0d4f1a36ff8a758,62bbf970b31a1339db62ec9b,2022-06-29_09h04.59.783,Colour_Asymmetry_Pilot,2022.1.3,Win32,59.81934558,62bbe60bf3d75ef465d3e404,,,,,,,,,,,,,,,,,,,,,,,,,,,,,,,,,,,,,,,,,,,,,,,,,,,,,,,,,,,,,,,,,,,,,,,,,,,,,,,,,,,,,,,,,,,,,,,,,,,,,,,,,,,,,,,,,,,,,,,,,,,,,,,,,,,,,,,,,,,,,,,,,,,,,,,,,,,
0,67,67,88,1,,612b47fce0d4f1a36ff8a758,62bbf970b31a1339db62ec9b,2022-06-29_09h04.59.783,Colour_Asymmetry_Pilot,2022.1.3,Win32,59.81934558,62bbe60bf3d75ef465d3e404,,,,,,,,,,,,,,,,,,,,,,,,,,,,,,,,,,,,,,,,,,,,,,,,,,,,,,,,,,,,,,,,,,,,,,,,,,,,,,,,,,,,,,,,,,,,,,,,,,,,,,,,,,,,,,,,,,,,,,,,,,,,,,,,,,,,,,,,,,,,,,,,,,,,,,,,,,,
0,68,68,90,1,,612b47fce0d4f1a36ff8a758,62bbf970b31a1339db62ec9b,2022-06-29_09h04.59.783,Colour_Asymmetry_Pilot,2022.1.3,Win32,59.81934558,62bbe60bf3d75ef465d3e404,,,,,,,,,,,,,,,,,,,,,,,,,,,,,,,,,,,,,,,,,,,,,,,,,,,,,,,,,,,,,,,,,,,,,,,,,,,,,,,,,,,,,,,,,,,,,,,,,,,,,,,,,,,,,,,,,,,,,,,,,,,,,,,,,,,,,,,,,,,,,,,,,,,,,,,,,,,
0,69,69,59,1,,612b47fce0d4f1a36ff8a758,62bbf970b31a1339db62ec9b,2022-06-29_09h04.59.783,Colour_Asymmetry_Pilot,2022.1.3,Win32,59.81934558,62bbe60bf3d75ef465d3e404,,,,,,,,,,,,,,,,,,,,,,,,,,,,,,,,,,,,,,,,,,,,,,,,,,,,,,,,,,,,,,,,,,,,,,,,,,,,,,,,,,,,,,,,,,,,,,,,,,,,,,,,,,,,,,,,,,,,,,,,,,,,,,,,,,,,,,,,,,,,,,,,,,,,,,,,,,,
0,70,70,13,1,,612b47fce0d4f1a36ff8a758,62bbf970b31a1339db62ec9b,2022-06-29_09h04.59.783,Colour_Asymmetry_Pilot,2022.1.3,Win32,59.81934558,62bbe60bf3d75ef465d3e404,,,,,,,,,,,,,,,,,,,,,,,,,,,,,,,,,,,,,,,,,,,,,,,,,,,,,,,,,,,,,,,,,,,,,,,,,,,,,,,,,,,,,,,,,,,,,,,,,,,,,,,,,,,,,,,,,,,,,,,,,,,,,,,,,,,,,,,,,,,,,,,,,,,,,,,,,,,
0,71,71,9,1,,612b47fce0d4f1a36ff8a758,62bbf970b31a1339db62ec9b,2022-06-29_09h04.59.783,Colour_Asymmetry_Pilot,2022.1.3,Win32,59.81934558,62bbe60bf3d75ef465d3e404,,,,,,,,,,,,,,,,,,,,,,,,,,,,,,,,,,,,,,,,,,,,,,,,,,,,,,,,,,,,,,,,,,,,,,,,,,,,,,,,,,,,,,,,,,,,,,,,,,,,,,,,,,,,,,,,,,,,,,,,,,,,,,,,,,,,,,,,,,,,,,,,,,,,,,,,,,,
0,72,72,41,1,,612b47fce0d4f1a36ff8a758,62bbf970b31a1339db62ec9b,2022-06-29_09h04.59.783,Colour_Asymmetry_Pilot,2022.1.3,Win32,59.81934558,62bbe60bf3d75ef465d3e404,,,,,,,,,,,,,,,,,,,,,,,,,,,,,,,,,,,,,,,,,,,,,,,,,,,,,,,,,,,,,,,,,,,,,,,,,,,,,,,,,,,,,,,,,,,,,,,,,,,,,,,,,,,,,,,,,,,,,,,,,,,,,,,,,,,,,,,,,,,,,,,,,,,,,,,,,,,
0,73,73,84,1,,612b47fce0d4f1a36ff8a758,62bbf970b31a1339db62ec9b,2022-06-29_09h04.59.783,Colour_Asymmetry_Pilot,2022.1.3,Win32,59.81934558,62bbe60bf3d75ef465d3e404,,,,,,,,,,,,,,,,,,,,,,,,,,,,,,,,,,,,,,,,,,,,,,,,,,,,,,,,,,,,,,,,,,,,,,,,,,,,,,,,,,,,,,,,,,,,,,,,,,,,,,,,,,,,,,,,,,,,,,,,,,,,,,,,,,,,,,,,,,,,,,,,,,,,,,,,,,,
0,74,74,70,1,,612b47fce0d4f1a36ff8a758,62bbf970b31a1339db62ec9b,2022-06-29_09h04.59.783,Colour_Asymmetry_Pilot,2022.1.3,Win32,59.81934558,62bbe60bf3d75ef465d3e404,,,,,,,,,,,,,,,,,,,,,,,,,,,,,,,,,,,,,,,,,,,,,,,,,,,,,,,,,,,,,,,,,,,,,,,,,,,,,,,,,,,,,,,,,,,,,,,,,,,,,,,,,,,,,,,,,,,,,,,,,,,,,,,,,,,,,,,,,,,,,,,,,,,,,,,,,,,
0,75,75,45,1,,612b47fce0d4f1a36ff8a758,62bbf970b31a1339db62ec9b,2022-06-29_09h04.59.783,Colour_Asymmetry_Pilot,2022.1.3,Win32,59.81934558,62bbe60bf3d75ef465d3e404,,,,,,,,,,,,,,,,,,,,,,,,,,,,,,,,,,,,,,,,,,,,,,,,,,,,,,,,,,,,,,,,,,,,,,,,,,,,,,,,,,,,,,,,,,,,,,,,,,,,,,,,,,,,,,,,,,,,,,,,,,,,,,,,,,,,,,,,,,,,,,,,,,,,,,,,,,,
0,76,76,20,1,,612b47fce0d4f1a36ff8a758,62bbf970b31a1339db62ec9b,2022-06-29_09h04.59.783,Colour_Asymmetry_Pilot,2022.1.3,Win32,59.81934558,62bbe60bf3d75ef465d3e404,,,,,,,,,,,,,,,,,,,,,,,,,,,,,,,,,,,,,,,,,,,,,,,,,,,,,,,,,,,,,,,,,,,,,,,,,,,,,,,,,,,,,,,,,,,,,,,,,,,,,,,,,,,,,,,,,,,,,,,,,,,,,,,,,,,,,,,,,,,,,,,,,,,,,,,,,,,
0,77,77,46,1,,612b47fce0d4f1a36ff8a758,62bbf970b31a1339db62ec9b,2022-06-29_09h04.59.783,Colour_Asymmetry_Pilot,2022.1.3,Win32,59.81934558,62bbe60bf3d75ef465d3e404,,,,,,,,,,,,,,,,,,,,,,,,,,,,,,,,,,,,,,,,,,,,,,,,,,,,,,,,,,,,,,,,,,,,,,,,,,,,,,,,,,,,,,,,,,,,,,,,,,,,,,,,,,,,,,,,,,,,,,,,,,,,,,,,,,,,,,,,,,,,,,,,,,,,,,,,,,,
0,78,78,76,1,,612b47fce0d4f1a36ff8a758,62bbf970b31a1339db62ec9b,2022-06-29_09h04.59.783,Colour_Asymmetry_Pilot,2022.1.3,Win32,59.81934558,62bbe60bf3d75ef465d3e404,,,,,,,,,,,,,,,,,,,,,,,,,,,,,,,,,,,,,,,,,,,,,,,,,,,,,,,,,,,,,,,,,,,,,,,,,,,,,,,,,,,,,,,,,,,,,,,,,,,,,,,,,,,,,,,,,,,,,,,,,,,,,,,,,,,,,,,,,,,,,,,,,,,,,,,,,,,
0,79,79,47,1,,612b47fce0d4f1a36ff8a758,62bbf970b31a1339db62ec9b,2022-06-29_09h04.59.783,Colour_Asymmetry_Pilot,2022.1.3,Win32,59.81934558,62bbe60bf3d75ef465d3e404,,,,,,,,,,,,,,,,,,,,,,,,,,,,,,,,,,,,,,,,,,,,,,,,,,,,,,,,,,,,,,,,,,,,,,,,,,,,,,,,,,,,,,,,,,,,,,,,,,,,,,,,,,,,,,,,,,,,,,,,,,,,,,,,,,,,,,,,,,,,,,,,,,,,,,,,,,,
0,80,80,78,1,,612b47fce0d4f1a36ff8a758,62bbf970b31a1339db62ec9b,2022-06-29_09h04.59.783,Colour_Asymmetry_Pilot,2022.1.3,Win32,59.81934558,62bbe60bf3d75ef465d3e404,,,,,,,,,,,,,,,,,,,,,,,,,,,,,,,,,,,,,,,,,,,,,,,,,,,,,,,,,,,,,,,,,,,,,,,,,,,,,,,,,,,,,,,,,,,,,,,,,,,,,,,,,,,,,,,,,,,,,,,,,,,,,,,,,,,,,,,,,,,,,,,,,,,,,,,,,,,
0,81,81,73,1,,612b47fce0d4f1a36ff8a758,62bbf970b31a1339db62ec9b,2022-06-29_09h04.59.783,Colour_Asymmetry_Pilot,2022.1.3,Win32,59.81934558,62bbe60bf3d75ef465d3e404,,,,,,,,,,,,,,,,,,,,,,,,,,,,,,,,,,,,,,,,,,,,,,,,,,,,,,,,,,,,,,,,,,,,,,,,,,,,,,,,,,,,,,,,,,,,,,,,,,,,,,,,,,,,,,,,,,,,,,,,,,,,,,,,,,,,,,,,,,,,,,,,,,,,,,,,,,,
0,82,82,12,1,,612b47fce0d4f1a36ff8a758,62bbf970b31a1339db62ec9b,2022-06-29_09h04.59.783,Colour_Asymmetry_Pilot,2022.1.3,Win32,59.81934558,62bbe60bf3d75ef465d3e404,,,,,,,,,,,,,,,,,,,,,,,,,,,,,,,,,,,,,,,,,,,,,,,,,,,,,,,,,,,,,,,,,,,,,,,,,,,,,,,,,,,,,,,,,,,,,,,,,,,,,,,,,,,,,,,,,,,,,,,,,,,,,,,,,,,,,,,,,,,,,,,,,,,,,,,,,,,
0,83,83,2,1,,612b47fce0d4f1a36ff8a758,62bbf970b31a1339db62ec9b,2022-06-29_09h04.59.783,Colour_Asymmetry_Pilot,2022.1.3,Win32,59.81934558,62bbe60bf3d75ef465d3e404,,,,,,,,,,,,,,,,,,,,,,,,,,,,,,,,,,,,,,,,,,,,,,,,,,,,,,,,,,,,,,,,,,,,,,,,,,,,,,,,,,,,,,,,,,,,,,,,,,,,,,,,,,,,,,,,,,,,,,,,,,,,,,,,,,,,,,,,,,,,,,,,,,,,,,,,,,,
0,84,84,87,1,,612b47fce0d4f1a36ff8a758,62bbf970b31a1339db62ec9b,2022-06-29_09h04.59.783,Colour_Asymmetry_Pilot,2022.1.3,Win32,59.81934558,62bbe60bf3d75ef465d3e404,,,,,,,,,,,,,,,,,,,,,,,,,,,,,,,,,,,,,,,,,,,,,,,,,,,,,,,,,,,,,,,,,,,,,,,,,,,,,,,,,,,,,,,,,,,,,,,,,,,,,,,,,,,,,,,,,,,,,,,,,,,,,,,,,,,,,,,,,,,,,,,,,,,,,,,,,,,
0,85,85,91,1,,612b47fce0d4f1a36ff8a758,62bbf970b31a1339db62ec9b,2022-06-29_09h04.59.783,Colour_Asymmetry_Pilot,2022.1.3,Win32,59.81934558,62bbe60bf3d75ef465d3e404,,,,,,,,,,,,,,,,,,,,,,,,,,,,,,,,,,,,,,,,,,,,,,,,,,,,,,,,,,,,,,,,,,,,,,,,,,,,,,,,,,,,,,,,,,,,,,,,,,,,,,,,,,,,,,,,,,,,,,,,,,,,,,,,,,,,,,,,,,,,,,,,,,,,,,,,,,,
0,86,86,15,1,,612b47fce0d4f1a36ff8a758,62bbf970b31a1339db62ec9b,2022-06-29_09h04.59.783,Colour_Asymmetry_Pilot,2022.1.3,Win32,59.81934558,62bbe60bf3d75ef465d3e404,,,,,,,,,,,,,,,,,,,,,,,,,,,,,,,,,,,,,,,,,,,,,,,,,,,,,,,,,,,,,,,,,,,,,,,,,,,,,,,,,,,,,,,,,,,,,,,,,,,,,,,,,,,,,,,,,,,,,,,,,,,,,,,,,,,,,,,,,,,,,,,,,,,,,,,,,,,
0,87,87,19,1,,612b47fce0d4f1a36ff8a758,62bbf970b31a1339db62ec9b,2022-06-29_09h04.59.783,Colour_Asymmetry_Pilot,2022.1.3,Win32,59.81934558,62bbe60bf3d75ef465d3e404,,,,,,,,,,,,,,,,,,,,,,,,,,,,,,,,,,,,,,,,,,,,,,,,,,,,,,,,,,,,,,,,,,,,,,,,,,,,,,,,,,,,,,,,,,,,,,,,,,,,,,,,,,,,,,,,,,,,,,,,,,,,,,,,,,,,,,,,,,,,,,,,,,,,,,,,,,,
0,88,88,56,1,,612b47fce0d4f1a36ff8a758,62bbf970b31a1339db62ec9b,2022-06-29_09h04.59.783,Colour_Asymmetry_Pilot,2022.1.3,Win32,59.81934558,62bbe60bf3d75ef465d3e404,,,,,,,,,,,,,,,,,,,,,,,,,,,,,,,,,,,,,,,,,,,,,,,,,,,,,,,,,,,,,,,,,,,,,,,,,,,,,,,,,,,,,,,,,,,,,,,,,,,,,,,,,,,,,,,,,,,,,,,,,,,,,,,,,,,,,,,,,,,,,,,,,,,,,,,,,,,
0,89,89,6,1,,612b47fce0d4f1a36ff8a758,62bbf970b31a1339db62ec9b,2022-06-29_09h04.59.783,Colour_Asymmetry_Pilot,2022.1.3,Win32,59.81934558,62bbe60bf3d75ef465d3e404,,,,,,,,,,,,,,,,,,,,,,,,,,,,,,,,,,,,,,,,,,,,,,,,,,,,,,,,,,,,,,,,,,,,,,,,,,,,,,,,,,,,,,,,,,,,,,,,,,,,,,,,,,,,,,,,,,,,,,,,,,,,,,,,,,,,,,,,,,,,,,,,,,,,,,,,,,,
0,90,90,92,1,,612b47fce0d4f1a36ff8a758,62bbf970b31a1339db62ec9b,2022-06-29_09h04.59.783,Colour_Asymmetry_Pilot,2022.1.3,Win32,59.81934558,62bbe60bf3d75ef465d3e404,,,,,,,,,,,,,,,,,,,,,,,,,,,,,,,,,,,,,,,,,,,,,,,,,,,,,,,,,,,,,,,,,,,,,,,,,,,,,,,,,,,,,,,,,,,,,,,,,,,,,,,,,,,,,,,,,,,,,,,,,,,,,,,,,,,,,,,,,,,,,,,,,,,,,,,,,,,
0,91,91,43,1,,612b47fce0d4f1a36ff8a758,62bbf970b31a1339db62ec9b,2022-06-29_09h04.59.783,Colour_Asymmetry_Pilot,2022.1.3,Win32,59.81934558,62bbe60bf3d75ef465d3e404,,,,,,,,,,,,,,,,,,,,,,,,,,,,,,,,,,,,,,,,,,,,,,,,,,,,,,,,,,,,,,,,,,,,,,,,,,,,,,,,,,,,,,,,,,,,,,,,,,,,,,,,,,,,,,,,,,,,,,,,,,,,,,,,,,,,,,,,,,,,,,,,,,,,,,,,,,,
0,92,92,75,1,,612b47fce0d4f1a36ff8a758,62bbf970b31a1339db62ec9b,2022-06-29_09h04.59.783,Colour_Asymmetry_Pilot,2022.1.3,Win32,59.81934558,62bbe60bf3d75ef465d3e404,,,,,,,,,,,,,,,,,,,,,,,,,,,,,,,,,,,,,,,,,,,,,,,,,,,,,,,,,,,,,,,,,,,,,,,,,,,,,,,,,,,,,,,,,,,,,,,,,,,,,,,,,,,,,,,,,,,,,,,,,,,,,,,,,,,,,,,,,,,,,,,,,,,,,,,,,,,
,,,,,,612b47fce0d4f1a36ff8a758,62bbf970b31a1339db62ec9b,2022-06-29_09h04.59.783,Colour_Asymmetry_Pilot,2022.1.3,Win32,59.81934558,62bbe60bf3d75ef465d3e404,0,0,0,20,1,threeone,,,,,,,,,,,,,,,,,,,,,,,,,,,,,,,,,,,,,,,,,,,,,,,,,,,,,,,,,,,,,,,,,,,,,,,,,,,,,,,,,,,,,,,,,,,,,,,,,,,,,,,,,,,,,,,,,,,,,,,,,,,,,,,,,,,,,,,,,,,,,,,,,,,,,
,,,,,,612b47fce0d4f1a36ff8a758,62bbf970b31a1339db62ec9b,2022-06-29_09h04.59.783,Colour_Asymmetry_Pilot,2022.1.3,Win32,59.81934558,62bbe60bf3d75ef465d3e404,0,1,1,47,1,fourthree,,,,,,,,,,,,,,,,,,,,,,,,,,,,,,,,,,,,,,,,,,,,,,,,,,,,,,,,,,,,,,,,,,,,,,,,,,,,,,,,,,,,,,,,,,,,,,,,,,,,,,,,,,,,,,,,,,,,,,,,,,,,,,,,,,,,,,,,,,,,,,,,,,,,,
,,,,,,612b47fce0d4f1a36ff8a758,62bbf970b31a1339db62ec9b,2022-06-29_09h04.59.783,Colour_Asymmetry_Pilot,2022.1.3,Win32,59.81934558,62bbe60bf3d75ef465d3e404,0,2,2,125,1,threefour,,,,,,,,,,,,,,,,,,,,,,,,,,,,,,,,,,,,,,,,,,,,,,,,,,,,,,,,,,,,,,,,,,,,,,,,,,,,,,,,,,,,,,,,,,,,,,,,,,,,,,,,,,,,,,,,,,,,,,,,,,,,,,,,,,,,,,,,,,,,,,,,,,,,,
,,,,,,612b47fce0d4f1a36ff8a758,62bbf970b31a1339db62ec9b,2022-06-29_09h04.59.783,Colour_Asymmetry_Pilot,2022.1.3,Win32,59.81934558,62bbe60bf3d75ef465d3e404,0,3,3,103,1,fourthree,,,,,,,,,,,,,,,,,,,,,,,,,,,,,,,,,,,,,,,,,,,,,,,,,,,,,,,,,,,,,,,,,,,,,,,,,,,,,,,,,,,,,,,,,,,,,,,,,,,,,,,,,,,,,,,,,,,,,,,,,,,,,,,,,,,,,,,,,,,,,,,,,,,,,
,,,,,,612b47fce0d4f1a36ff8a758,62bbf970b31a1339db62ec9b,2022-06-29_09h04.59.783,Colour_Asymmetry_Pilot,2022.1.3,Win32,59.81934558,62bbe60bf3d75ef465d3e404,0,4,4,117,1,threefour,,,,,,,,,,,,,,,,,,,,,,,,,,,,,,,,,,,,,,,,,,,,,,,,,,,,,,,,,,,,,,,,,,,,,,,,,,,,,,,,,,,,,,,,,,,,,,,,,,,,,,,,,,,,,,,,,,,,,,,,,,,,,,,,,,,,,,,,,,,,,,,,,,,,,
,,,,,,612b47fce0d4f1a36ff8a758,62bbf970b31a1339db62ec9b,2022-06-29_09h04.59.783,Colour_Asymmetry_Pilot,2022.1.3,Win32,59.81934558,62bbe60bf3d75ef465d3e404,0,5,5,65,1,onethree,,,,,,,,,,,,,,,,,,,,,,,,,,,,,,,,,,,,,,,,,,,,,,,,,,,,,,,,,,,,,,,,,,,,,,,,,,,,,,,,,,,,,,,,,,,,,,,,,,,,,,,,,,,,,,,,,,,,,,,,,,,,,,,,,,,,,,,,,,,,,,,,,,,,,
,,,,,,612b47fce0d4f1a36ff8a758,62bbf970b31a1339db62ec9b,2022-06-29_09h04.59.783,Colour_Asymmetry_Pilot,2022.1.3,Win32,59.81934558,62bbe60bf3d75ef465d3e404,0,6,6,138,1,twoone,,,,,,,,,,,,,,,,,,,,,,,,,,,,,,,,,,,,,,,,,,,,,,,,,,,,,,,,,,,,,,,,,,,,,,,,,,,,,,,,,,,,,,,,,,,,,,,,,,,,,,,,,,,,,,,,,,,,,,,,,,,,,,,,,,,,,,,,,,,,,,,,,,,,,
,,,,,,612b47fce0d4f1a36ff8a758,62bbf970b31a1339db62ec9b,2022-06-29_09h04.59.783,Colour_Asymmetry_Pilot,2022.1.3,Win32,59.81934558,62bbe60bf3d75ef465d3e404,0,7,7,25,1,onethree,,,,,,,,,,,,,,,,,,,,,,,,,,,,,,,,,,,,,,,,,,,,,,,,,,,,,,,,,,,,,,,,,,,,,,,,,,,,,,,,,,,,,,,,,,,,,,,,,,,,,,,,,,,,,,,,,,,,,,,,,,,,,,,,,,,,,,,,,,,,,,,,,,,,,
,,,,,,612b47fce0d4f1a36ff8a758,62bbf970b31a1339db62ec9b,2022-06-29_09h04.59.783,Colour_Asymmetry_Pilot,2022.1.3,Win32,59.81934558,62bbe60bf3d75ef465d3e404,0,8,8,77,1,threefour,,,,,,,,,,,,,,,,,,,,,,,,,,,,,,,,,,,,,,,,,,,,,,,,,,,,,,,,,,,,,,,,,,,,,,,,,,,,,,,,,,,,,,,,,,,,,,,,,,,,,,,,,,,,,,,,,,,,,,,,,,,,,,,,,,,,,,,,,,,,,,,,,,,,,
,,,,,,612b47fce0d4f1a36ff8a758,62bbf970b31a1339db62ec9b,2022-06-29_09h04.59.783,Colour_Asymmetry_Pilot,2022.1.3,Win32,59.81934558,62bbe60bf3d75ef465d3e404,0,9,9,146,1,twoone,,,,,,,,,,,,,,,,,,,,,,,,,,,,,,,,,,,,,,,,,,,,,,,,,,,,,,,,,,,,,,,,,,,,,,,,,,,,,,,,,,,,,,,,,,,,,,,,,,,,,,,,,,,,,,,,,,,,,,,,,,,,,,,,,,,,,,,,,,,,,,,,,,,,,
,,,,,,612b47fce0d4f1a36ff8a758,62bbf970b31a1339db62ec9b,2022-06-29_09h04.59.783,Colour_Asymmetry_Pilot,2022.1.3,Win32,59.81934558,62bbe60bf3d75ef465d3e404,0,10,10,119,1,fourthree,,,,,,,,,,,,,,,,,,,,,,,,,,,,,,,,,,,,,,,,,,,,,,,,,,,,,,,,,,,,,,,,,,,,,,,,,,,,,,,,,,,,,,,,,,,,,,,,,,,,,,,,,,,,,,,,,,,,,,,,,,,,,,,,,,,,,,,,,,,,,,,,,,,,,
,,,,,,612b47fce0d4f1a36ff8a758,62bbf970b31a1339db62ec9b,2022-06-29_09h04.59.783,Colour_Asymmetry_Pilot,2022.1.3,Win32,59.81934558,62bbe60bf3d75ef465d3e404,0,11,11,11,1,twofour,,,,,,,,,,,,,,,,,,,,,,,,,,,,,,,,,,,,,,,,,,,,,,,,,,,,,,,,,,,,,,,,,,,,,,,,,,,,,,,,,,,,,,,,,,,,,,,,,,,,,,,,,,,,,,,,,,,,,,,,,,,,,,,,,,,,,,,,,,,,,,,,,,,,,
,,,,,,612b47fce0d4f1a36ff8a758,62bbf970b31a1339db62ec9b,2022-06-29_09h04.59.783,Colour_Asymmetry_Pilot,2022.1.3,Win32,59.81934558,62bbe60bf3d75ef465d3e404,0,12,12,123,1,twofour,,,,,,,,,,,,,,,,,,,,,,,,,,,,,,,,,,,,,,,,,,,,,,,,,,,,,,,,,,,,,,,,,,,,,,,,,,,,,,,,,,,,,,,,,,,,,,,,,,,,,,,,,,,,,,,,,,,,,,,,,,,,,,,,,,,,,,,,,,,,,,,,,,,,,
,,,,,,612b47fce0d4f1a36ff8a758,62bbf970b31a1339db62ec9b,2022-06-29_09h04.59.783,Colour_Asymmetry_Pilot,2022.1.3,Win32,59.81934558,62bbe60bf3d75ef465d3e404,0,13,13,158,1,fourtwo,,,,,,,,,,,,,,,,,,,,,,,,,,,,,,,,,,,,,,,,,,,,,,,,,,,,,,,,,,,,,,,,,,,,,,,,,,,,,,,,,,,,,,,,,,,,,,,,,,,,,,,,,,,,,,,,,,,,,,,,,,,,,,,,,,,,,,,,,,,,,,,,,,,,,
,,,,,,612b47fce0d4f1a36ff8a758,62bbf970b31a1339db62ec9b,2022-06-29_09h04.59.783,Colour_Asymmetry_Pilot,2022.1.3,Win32,59.81934558,62bbe60bf3d75ef465d3e404,0,14,14,51,1,twofour,,,,,,,,,,,,,,,,,,,,,,,,,,,,,,,,,,,,,,,,,,,,,,,,,,,,,,,,,,,,,,,,,,,,,,,,,,,,,,,,,,,,,,,,,,,,,,,,,,,,,,,,,,,,,,,,,,,,,,,,,,,,,,,,,,,,,,,,,,,,,,,,,,,,,
,,,,,,612b47fce0d4f1a36ff8a758,62bbf970b31a1339db62ec9b,2022-06-29_09h04.59.783,Colour_Asymmetry_Pilot,2022.1.3,Win32,59.81934558,62bbe60bf3d75ef465d3e404,0,15,15,106,1,twoone,,,,,,,,,,,,,,,,,,,,,,,,,,,,,,,,,,,,,,,,,,,,,,,,,,,,,,,,,,,,,,,,,,,,,,,,,,,,,,,,,,,,,,,,,,,,,,,,,,,,,,,,,,,,,,,,,,,,,,,,,,,,,,,,,,,,,,,,,,,,,,,,,,,,,
,,,,,,612b47fce0d4f1a36ff8a758,62bbf970b31a1339db62ec9b,2022-06-29_09h04.59.783,Colour_Asymmetry_Pilot,2022.1.3,Win32,59.81934558,62bbe60bf3d75ef465d3e404,0,16,16,83,1,twofour,,,,,,,,,,,,,,,,,,,,,,,,,,,,,,,,,,,,,,,,,,,,,,,,,,,,,,,,,,,,,,,,,,,,,,,,,,,,,,,,,,,,,,,,,,,,,,,,,,,,,,,,,,,,,,,,,,,,,,,,,,,,,,,,,,,,,,,,,,,,,,,,,,,,,
,,,,,,612b47fce0d4f1a36ff8a758,62bbf970b31a1339db62ec9b,2022-06-29_09h04.59.783,Colour_Asymmetry_Pilot,2022.1.3,Win32,59.81934558,62bbe60bf3d75ef465d3e404,0,17,17,96,1,onetwo,,,,,,,,,,,,,,,,,,,,,,,,,,,,,,,,,,,,,,,,,,,,,,,,,,,,,,,,,,,,,,,,,,,,,,,,,,,,,,,,,,,,,,,,,,,,,,,,,,,,,,,,,,,,,,,,,,,,,,,,,,,,,,,,,,,,,,,,,,,,,,,,,,,,,
,,,,,,612b47fce0d4f1a36ff8a758,62bbf970b31a1339db62ec9b,2022-06-29_09h04.59.783,Colour_Asymmetry_Pilot,2022.1.3,Win32,59.81934558,62bbe60bf3d75ef465d3e404,0,18,18,50,1,twoone,,,,,,,,,,,,,,,,,,,,,,,,,,,,,,,,,,,,,,,,,,,,,,,,,,,,,,,,,,,,,,,,,,,,,,,,,,,,,,,,,,,,,,,,,,,,,,,,,,,,,,,,,,,,,,,,,,,,,,,,,,,,,,,,,,,,,,,,,,,,,,,,,,,,,
,,,,,,612b47fce0d4f1a36ff8a758,62bbf970b31a1339db62ec9b,2022-06-29_09h04.59.783,Colour_Asymmetry_Pilot,2022.1.3,Win32,59.81934558,62bbe60bf3d75ef465d3e404,0,19,19,41,1,onethree,,,,,,,,,,,,,,,,,,,,,,,,,,,,,,,,,,,,,,,,,,,,,,,,,,,,,,,,,,,,,,,,,,,,,,,,,,,,,,,,,,,,,,,,,,,,,,,,,,,,,,,,,,,,,,,,,,,,,,,,,,,,,,,,,,,,,,,,,,,,,,,,,,,,,
,,,,,,612b47fce0d4f1a36ff8a758,62bbf970b31a1339db62ec9b,2022-06-29_09h04.59.783,Colour_Asymmetry_Pilot,2022.1.3,Win32,59.81934558,62bbe60bf3d75ef465d3e404,0,20,20,134,1,fourtwo,,,,,,,,,,,,,,,,,,,,,,,,,,,,,,,,,,,,,,,,,,,,,,,,,,,,,,,,,,,,,,,,,,,,,,,,,,,,,,,,,,,,,,,,,,,,,,,,,,,,,,,,,,,,,,,,,,,,,,,,,,,,,,,,,,,,,,,,,,,,,,,,,,,,,
,,,,,,612b47fce0d4f1a36ff8a758,62bbf970b31a1339db62ec9b,2022-06-29_09h04.59.783,Colour_Asymmetry_Pilot,2022.1.3,Win32,59.81934558,62bbe60bf3d75ef465d3e404,0,21,21,26,1,twoone,,,,,,,,,,,,,,,,,,,,,,,,,,,,,,,,,,,,,,,,,,,,,,,,,,,,,,,,,,,,,,,,,,,,,,,,,,,,,,,,,,,,,,,,,,,,,,,,,,,,,,,,,,,,,,,,,,,,,,,,,,,,,,,,,,,,,,,,,,,,,,,,,,,,,
,,,,,,612b47fce0d4f1a36ff8a758,62bbf970b31a1339db62ec9b,2022-06-29_09h04.59.783,Colour_Asymmetry_Pilot,2022.1.3,Win32,59.81934558,62bbe60bf3d75ef465d3e404,0,22,22,68,1,threeone,,,,,,,,,,,,,,,,,,,,,,,,,,,,,,,,,,,,,,,,,,,,,,,,,,,,,,,,,,,,,,,,,,,,,,,,,,,,,,,,,,,,,,,,,,,,,,,,,,,,,,,,,,,,,,,,,,,,,,,,,,,,,,,,,,,,,,,,,,,,,,,,,,,,,
,,,,,,612b47fce0d4f1a36ff8a758,62bbf970b31a1339db62ec9b,2022-06-29_09h04.59.783,Colour_Asymmetry_Pilot,2022.1.3,Win32,59.81934558,62bbe60bf3d75ef465d3e404,0,23,23,22,1,fourtwo,,,,,,,,,,,,,,,,,,,,,,,,,,,,,,,,,,,,,,,,,,,,,,,,,,,,,,,,,,,,,,,,,,,,,,,,,,,,,,,,,,,,,,,,,,,,,,,,,,,,,,,,,,,,,,,,,,,,,,,,,,,,,,,,,,,,,,,,,,,,,,,,,,,,,
,,,,,,612b47fce0d4f1a36ff8a758,62bbf970b31a1339db62ec9b,2022-06-29_09h04.59.783,Colour_Asymmetry_Pilot,2022.1.3,Win32,59.81934558,62bbe60bf3d75ef465d3e404,0,24,24,142,1,fourtwo,,,,,,,,,,,,,,,,,,,,,,,,,,,,,,,,,,,,,,,,,,,,,,,,,,,,,,,,,,,,,,,,,,,,,,,,,,,,,,,,,,,,,,,,,,,,,,,,,,,,,,,,,,,,,,,,,,,,,,,,,,,,,,,,,,,,,,,,,,,,,,,,,,,,,
,,,,,,612b47fce0d4f1a36ff8a758,62bbf970b31a1339db62ec9b,2022-06-29_09h04.59.783,Colour_Asymmetry_Pilot,2022.1.3,Win32,59.81934558,62bbe60bf3d75ef465d3e404,0,25,25,72,1,onetwo,,,,,,,,,,,,,,,,,,,,,,,,,,,,,,,,,,,,,,,,,,,,,,,,,,,,,,,,,,,,,,,,,,,,,,,,,,,,,,,,,,,,,,,,,,,,,,,,,,,,,,,,,,,,,,,,,,,,,,,,,,,,,,,,,,,,,,,,,,,,,,,,,,,,,
,,,,,,612b47fce0d4f1a36ff8a758,62bbf970b31a1339db62ec9b,2022-06-29_09h04.59.783,Colour_Asymmetry_Pilot,2022.1.3,Win32,59.81934558,62bbe60bf3d75ef465d3e404,0,26,26,45,1,threefour,,,,,,,,,,,,,,,,,,,,,,,,,,,,,,,,,,,,,,,,,,,,,,,,,,,,,,,,,,,,,,,,,,,,,,,,,,,,,,,,,,,,,,,,,,,,,,,,,,,,,,,,,,,,,,,,,,,,,,,,,,,,,,,,,,,,,,,,,,,,,,,,,,,,,
,,,,,,612b47fce0d4f1a36ff8a758,62bbf970b31a1339db62ec9b,2022-06-29_09h04.59.783,Colour_Asymmetry_Pilot,2022.1.3,Win32,59.81934558,62bbe60bf3d75ef465d3e404,0,27,27,76,1,threeone,,,,,,,,,,,,,,,,,,,,,,,,,,,,,,,,,,,,,,,,,,,,,,,,,,,,,,,,,,,,,,,,,,,,,,,,,,,,,,,,,,,,,,,,,,,,,,,,,,,,,,,,,,,,,,,,,,,,,,,,,,,,,,,,,,,,,,,,,,,,,,,,,,,,,
,,,,,,612b47fce0d4f1a36ff8a758,62bbf970b31a1339db62ec9b,2022-06-29_09h04.59.783,Colour_Asymmetry_Pilot,2022.1.3,Win32,59.81934558,62bbe60bf3d75ef465d3e404,0,28,28,42,1,twoone,,,,,,,,,,,,,,,,,,,,,,,,,,,,,,,,,,,,,,,,,,,,,,,,,,,,,,,,,,,,,,,,,,,,,,,,,,,,,,,,,,,,,,,,,,,,,,,,,,,,,,,,,,,,,,,,,,,,,,,,,,,,,,,,,,,,,,,,,,,,,,,,,,,,,
,,,,,,612b47fce0d4f1a36ff8a758,62bbf970b31a1339db62ec9b,2022-06-29_09h04.59.783,Colour_Asymmetry_Pilot,2022.1.3,Win32,59.81934558,62bbe60bf3d75ef465d3e404,0,29,29,135,1,fourthree,,,,,,,,,,,,,,,,,,,,,,,,,,,,,,,,,,,,,,,,,,,,,,,,,,,,,,,,,,,,,,,,,,,,,,,,,,,,,,,,,,,,,,,,,,,,,,,,,,,,,,,,,,,,,,,,,,,,,,,,,,,,,,,,,,,,,,,,,,,,,,,,,,,,,
,,,,,,612b47fce0d4f1a36ff8a758,62bbf970b31a1339db62ec9b,2022-06-29_09h04.59.783,Colour_Asymmetry_Pilot,2022.1.3,Win32,59.81934558,62bbe60bf3d75ef465d3e404,0,30,30,56,1,onetwo,,,,,,,,,,,,,,,,,,,,,,,,,,,,,,,,,,,,,,,,,,,,,,,,,,,,,,,,,,,,,,,,,,,,,,,,,,,,,,,,,,,,,,,,,,,,,,,,,,,,,,,,,,,,,,,,,,,,,,,,,,,,,,,,,,,,,,,,,,,,,,,,,,,,,
,,,,,,612b47fce0d4f1a36ff8a758,62bbf970b31a1339db62ec9b,2022-06-29_09h04.59.783,Colour_Asymmetry_Pilot,2022.1.3,Win32,59.81934558,62bbe60bf3d75ef465d3e404,0,31,31,91,1,twofour,,,,,,,,,,,,,,,,,,,,,,,,,,,,,,,,,,,,,,,,,,,,,,,,,,,,,,,,,,,,,,,,,,,,,,,,,,,,,,,,,,,,,,,,,,,,,,,,,,,,,,,,,,,,,,,,,,,,,,,,,,,,,,,,,,,,,,,,,,,,,,,,,,,,,
,,,,,,612b47fce0d4f1a36ff8a758,62bbf970b31a1339db62ec9b,2022-06-29_09h04.59.783,Colour_Asymmetry_Pilot,2022.1.3,Win32,59.81934558,62bbe60bf3d75ef465d3e404,0,32,32,66,1,twoone,,,,,,,,,,,,,,,,,,,,,,,,,,,,,,,,,,,,,,,,,,,,,,,,,,,,,,,,,,,,,,,,,,,,,,,,,,,,,,,,,,,,,,,,,,,,,,,,,,,,,,,,,,,,,,,,,,,,,,,,,,,,,,,,,,,,,,,,,,,,,,,,,,,,,
,,,,,,612b47fce0d4f1a36ff8a758,62bbf970b31a1339db62ec9b,2022-06-29_09h04.59.783,Colour_Asymmetry_Pilot,2022.1.3,Win32,59.81934558,62bbe60bf3d75ef465d3e404,0,33,33,40,1,onetwo,,,,,,,,,,,,,,,,,,,,,,,,,,,,,,,,,,,,,,,,,,,,,,,,,,,,,,,,,,,,,,,,,,,,,,,,,,,,,,,,,,,,,,,,,,,,,,,,,,,,,,,,,,,,,,,,,,,,,,,,,,,,,,,,,,,,,,,,,,,,,,,,,,,,,
,,,,,,612b47fce0d4f1a36ff8a758,62bbf970b31a1339db62ec9b,2022-06-29_09h04.59.783,Colour_Asymmetry_Pilot,2022.1.3,Win32,59.81934558,62bbe60bf3d75ef465d3e404,0,34,34,95,1,fourthree,,,,,,,,,,,,,,,,,,,,,,,,,,,,,,,,,,,,,,,,,,,,,,,,,,,,,,,,,,,,,,,,,,,,,,,,,,,,,,,,,,,,,,,,,,,,,,,,,,,,,,,,,,,,,,,,,,,,,,,,,,,,,,,,,,,,,,,,,,,,,,,,,,,,,
,,,,,,612b47fce0d4f1a36ff8a758,62bbf970b31a1339db62ec9b,2022-06-29_09h04.59.783,Colour_Asymmetry_Pilot,2022.1.3,Win32,59.81934558,62bbe60bf3d75ef465d3e404,0,35,35,19,1,twofour,,,,,,,,,,,,,,,,,,,,,,,,,,,,,,,,,,,,,,,,,,,,,,,,,,,,,,,,,,,,,,,,,,,,,,,,,,,,,,,,,,,,,,,,,,,,,,,,,,,,,,,,,,,,,,,,,,,,,,,,,,,,,,,,,,,,,,,,,,,,,,,,,,,,,
,,,,,,612b47fce0d4f1a36ff8a758,62bbf970b31a1339db62ec9b,2022-06-29_09h04.59.783,Colour_Asymmetry_Pilot,2022.1.3,Win32,59.81934558,62bbe60bf3d75ef465d3e404,0,36,36,79,1,fourthree,,,,,,,,,,,,,,,,,,,,,,,,,,,,,,,,,,,,,,,,,,,,,,,,,,,,,,,,,,,,,,,,,,,,,,,,,,,,,,,,,,,,,,,,,,,,,,,,,,,,,,,,,,,,,,,,,,,,,,,,,,,,,,,,,,,,,,,,,,,,,,,,,,,,,
,,,,,,612b47fce0d4f1a36ff8a758,62bbf970b31a1339db62ec9b,2022-06-29_09h04.59.783,Colour_Asymmetry_Pilot,2022.1.3,Win32,59.81934558,62bbe60bf3d75ef465d3e404,0,37,37,102,1,fourtwo,,,,,,,,,,,,,,,,,,,,,,,,,,,,,,,,,,,,,,,,,,,,,,,,,,,,,,,,,,,,,,,,,,,,,,,,,,,,,,,,,,,,,,,,,,,,,,,,,,,,,,,,,,,,,,,,,,,,,,,,,,,,,,,,,,,,,,,,,,,,,,,,,,,,,
,,,,,,612b47fce0d4f1a36ff8a758,62bbf970b31a1339db62ec9b,2022-06-29_09h04.59.783,Colour_Asymmetry_Pilot,2022.1.3,Win32,59.81934558,62bbe60bf3d75ef465d3e404,0,38,38,144,1,onetwo,,,,,,,,,,,,,,,,,,,,,,,,,,,,,,,,,,,,,,,,,,,,,,,,,,,,,,,,,,,,,,,,,,,,,,,,,,,,,,,,,,,,,,,,,,,,,,,,,,,,,,,,,,,,,,,,,,,,,,,,,,,,,,,,,,,,,,,,,,,,,,,,,,,,,
,,,,,,612b47fce0d4f1a36ff8a758,62bbf970b31a1339db62ec9b,2022-06-29_09h04.59.783,Colour_Asymmetry_Pilot,2022.1.3,Win32,59.81934558,62bbe60bf3d75ef465d3e404,0,39,39,101,1,threefour,,,,,,,,,,,,,,,,,,,,,,,,,,,,,,,,,,,,,,,,,,,,,,,,,,,,,,,,,,,,,,,,,,,,,,,,,,,,,,,,,,,,,,,,,,,,,,,,,,,,,,,,,,,,,,,,,,,,,,,,,,,,,,,,,,,,,,,,,,,,,,,,,,,,,
,,,,,,612b47fce0d4f1a36ff8a758,62bbf970b31a1339db62ec9b,2022-06-29_09h04.59.783,Colour_Asymmetry_Pilot,2022.1.3,Win32,59.81934558,62bbe60bf3d75ef465d3e404,0,40,40,104,1,onetwo,,,,,,,,,,,,,,,,,,,,,,,,,,,,,,,,,,,,,,,,,,,,,,,,,,,,,,,,,,,,,,,,,,,,,,,,,,,,,,,,,,,,,,,,,,,,,,,,,,,,,,,,,,,,,,,,,,,,,,,,,,,,,,,,,,,,,,,,,,,,,,,,,,,,,
,,,,,,612b47fce0d4f1a36ff8a758,62bbf970b31a1339db62ec9b,2022-06-29_09h04.59.783,Colour_Asymmetry_Pilot,2022.1.3,Win32,59.81934558,62bbe60bf3d75ef465d3e404,0,41,41,113,1,onethree,,,,,,,,,,,,,,,,,,,,,,,,,,,,,,,,,,,,,,,,,,,,,,,,,,,,,,,,,,,,,,,,,,,,,,,,,,,,,,,,,,,,,,,,,,,,,,,,,,,,,,,,,,,,,,,,,,,,,,,,,,,,,,,,,,,,,,,,,,,,,,,,,,,,,
,,,,,,612b47fce0d4f1a36ff8a758,62bbf970b31a1339db62ec9b,2022-06-29_09h04.59.783,Colour_Asymmetry_Pilot,2022.1.3,Win32,59.81934558,62bbe60bf3d75ef465d3e404,0,42,42,0,1,onetwo,,,,,,,,,,,,,,,,,,,,,,,,,,,,,,,,,,,,,,,,,,,,,,,,,,,,,,,,,,,,,,,,,,,,,,,,,,,,,,,,,,,,,,,,,,,,,,,,,,,,,,,,,,,,,,,,,,,,,,,,,,,,,,,,,,,,,,,,,,,,,,,,,,,,,
,,,,,,612b47fce0d4f1a36ff8a758,62bbf970b31a1339db62ec9b,2022-06-29_09h04.59.783,Colour_Asymmetry_Pilot,2022.1.3,Win32,59.81934558,62bbe60bf3d75ef465d3e404,0,43,43,15,1,fourthree,,,,,,,,,,,,,,,,,,,,,,,,,,,,,,,,,,,,,,,,,,,,,,,,,,,,,,,,,,,,,,,,,,,,,,,,,,,,,,,,,,,,,,,,,,,,,,,,,,,,,,,,,,,,,,,,,,,,,,,,,,,,,,,,,,,,,,,,,,,,,,,,,,,,,
,,,,,,612b47fce0d4f1a36ff8a758,62bbf970b31a1339db62ec9b,2022-06-29_09h04.59.783,Colour_Asymmetry_Pilot,2022.1.3,Win32,59.81934558,62bbe60bf3d75ef465d3e404,0,44,44,92,1,threeone,,,,,,,,,,,,,,,,,,,,,,,,,,,,,,,,,,,,,,,,,,,,,,,,,,,,,,,,,,,,,,,,,,,,,,,,,,,,,,,,,,,,,,,,,,,,,,,,,,,,,,,,,,,,,,,,,,,,,,,,,,,,,,,,,,,,,,,,,,,,,,,,,,,,,
,,,,,,612b47fce0d4f1a36ff8a758,62bbf970b31a1339db62ec9b,2022-06-29_09h04.59.783,Colour_Asymmetry_Pilot,2022.1.3,Win32,59.81934558,62bbe60bf3d75ef465d3e404,0,45,45,54,1,fourtwo,,,,,,,,,,,,,,,,,,,,,,,,,,,,,,,,,,,,,,,,,,,,,,,,,,,,,,,,,,,,,,,,,,,,,,,,,,,,,,,,,,,,,,,,,,,,,,,,,,,,,,,,,,,,,,,,,,,,,,,,,,,,,,,,,,,,,,,,,,,,,,,,,,,,,
,,,,,,612b47fce0d4f1a36ff8a758,62bbf970b31a1339db62ec9b,2022-06-29_09h04.59.783,Colour_Asymmetry_Pilot,2022.1.3,Win32,59.81934558,62bbe60bf3d75ef465d3e404,0,46,46,13,1,threefour,,,,,,,,,,,,,,,,,,,,,,,,,,,,,,,,,,,,,,,,,,,,,,,,,,,,,,,,,,,,,,,,,,,,,,,,,,,,,,,,,,,,,,,,,,,,,,,,,,,,,,,,,,,,,,,,,,,,,,,,,,,,,,,,,,,,,,,,,,,,,,,,,,,,,
,,,,,,612b47fce0d4f1a36ff8a758,62bbf970b31a1339db62ec9b,2022-06-29_09h04.59.783,Colour_Asymmetry_Pilot,2022.1.3,Win32,59.81934558,62bbe60bf3d75ef465d3e404,0,47,47,53,1,threefour,,,,,,,,,,,,,,,,,,,,,,,,,,,,,,,,,,,,,,,,,,,,,,,,,,,,,,,,,,,,,,,,,,,,,,,,,,,,,,,,,,,,,,,,,,,,,,,,,,,,,,,,,,,,,,,,,,,,,,,,,,,,,,,,,,,,,,,,,,,,,,,,,,,,,
,,,,,,612b47fce0d4f1a36ff8a758,62bbf970b31a1339db62ec9b,2022-06-29_09h04.59.783,Colour_Asymmetry_Pilot,2022.1.3,Win32,59.81934558,62bbe60bf3d75ef465d3e404,0,48,48,28,1,threeone,,,,,,,,,,,,,,,,,,,,,,,,,,,,,,,,,,,,,,,,,,,,,,,,,,,,,,,,,,,,,,,,,,,,,,,,,,,,,,,,,,,,,,,,,,,,,,,,,,,,,,,,,,,,,,,,,,,,,,,,,,,,,,,,,,,,,,,,,,,,,,,,,,,,,
,,,,,,612b47fce0d4f1a36ff8a758,62bbf970b31a1339db62ec9b,2022-06-29_09h04.59.783,Colour_Asymmetry_Pilot,2022.1.3,Win32,59.81934558,62bbe60bf3d75ef465d3e404,0,49,49,137,1,onethree,,,,,,,,,,,,,,,,,,,,,,,,,,,,,,,,,,,,,,,,,,,,,,,,,,,,,,,,,,,,,,,,,,,,,,,,,,,,,,,,,,,,,,,,,,,,,,,,,,,,,,,,,,,,,,,,,,,,,,,,,,,,,,,,,,,,,,,,,,,,,,,,,,,,,
,,,,,,612b47fce0d4f1a36ff8a758,62bbf970b31a1339db62ec9b,2022-06-29_09h04.59.783,Colour_Asymmetry_Pilot,2022.1.3,Win32,59.81934558,62bbe60bf3d75ef465d3e404,0,50,50,100,1,threeone,,,,,,,,,,,,,,,,,,,,,,,,,,,,,,,,,,,,,,,,,,,,,,,,,,,,,,,,,,,,,,,,,,,,,,,,,,,,,,,,,,,,,,,,,,,,,,,,,,,,,,,,,,,,,,,,,,,,,,,,,,,,,,,,,,,,,,,,,,,,,,,,,,,,,
,,,,,,612b47fce0d4f1a36ff8a758,62bbf970b31a1339db62ec9b,2022-06-29_09h04.59.783,Colour_Asymmetry_Pilot,2022.1.3,Win32,59.81934558,62bbe60bf3d75ef465d3e404,0,51,51,116,1,threeone,,,,,,,,,,,,,,,,,,,,,,,,,,,,,,,,,,,,,,,,,,,,,,,,,,,,,,,,,,,,,,,,,,,,,,,,,,,,,,,,,,,,,,,,,,,,,,,,,,,,,,,,,,,,,,,,,,,,,,,,,,,,,,,,,,,,,,,,,,,,,,,,,,,,,
,,,,,,612b47fce0d4f1a36ff8a758,62bbf970b31a1339db62ec9b,2022-06-29_09h04.59.783,Colour_Asymmetry_Pilot,2022.1.3,Win32,59.81934558,62bbe60bf3d75ef465d3e404,0,52,52,136,1,onetwo,,,,,,,,,,,,,,,,,,,,,,,,,,,,,,,,,,,,,,,,,,,,,,,,,,,,,,,,,,,,,,,,,,,,,,,,,,,,,,,,,,,,,,,,,,,,,,,,,,,,,,,,,,,,,,,,,,,,,,,,,,,,,,,,,,,,,,,,,,,,,,,,,,,,,
,,,,,,612b47fce0d4f1a36ff8a758,62bbf970b31a1339db62ec9b,2022-06-29_09h04.59.783,Colour_Asymmetry_Pilot,2022.1.3,Win32,59.81934558,62bbe60bf3d75ef465d3e404,0,53,53,132,1,threeone,,,,,,,,,,,,,,,,,,,,,,,,,,,,,,,,,,,,,,,,,,,,,,,,,,,,,,,,,,,,,,,,,,,,,,,,,,,,,,,,,,,,,,,,,,,,,,,,,,,,,,,,,,,,,,,,,,,,,,,,,,,,,,,,,,,,,,,,,,,,,,,,,,,,,
,,,,,,612b47fce0d4f1a36ff8a758,62bbf970b31a1339db62ec9b,2022-06-29_09h04.59.783,Colour_Asymmetry_Pilot,2022.1.3,Win32,59.81934558,62bbe60bf3d75ef465d3e404,0,54,54,151,1,fourthree,,,,,,,,,,,,,,,,,,,,,,,,,,,,,,,,,,,,,,,,,,,,,,,,,,,,,,,,,,,,,,,,,,,,,,,,,,,,,,,,,,,,,,,,,,,,,,,,,,,,,,,,,,,,,,,,,,,,,,,,,,,,,,,,,,,,,,,,,,,,,,,,,,,,,
,,,,,,612b47fce0d4f1a36ff8a758,62bbf970b31a1339db62ec9b,2022-06-29_09h04.59.783,Colour_Asymmetry_Pilot,2022.1.3,Win32,59.81934558,62bbe60bf3d75ef465d3e404,0,55,55,159,1,fourthree,,,,,,,,,,,,,,,,,,,,,,,,,,,,,,,,,,,,,,,,,,,,,,,,,,,,,,,,,,,,,,,,,,,,,,,,,,,,,,,,,,,,,,,,,,,,,,,,,,,,,,,,,,,,,,,,,,,,,,,,,,,,,,,,,,,,,,,,,,,,,,,,,,,,,
,,,,,,612b47fce0d4f1a36ff8a758,62bbf970b31a1339db62ec9b,2022-06-29_09h04.59.783,Colour_Asymmetry_Pilot,2022.1.3,Win32,59.81934558,62bbe60bf3d75ef465d3e404,0,56,56,73,1,onethree,,,,,,,,,,,,,,,,,,,,,,,,,,,,,,,,,,,,,,,,,,,,,,,,,,,,,,,,,,,,,,,,,,,,,,,,,,,,,,,,,,,,,,,,,,,,,,,,,,,,,,,,,,,,,,,,,,,,,,,,,,,,,,,,,,,,,,,,,,,,,,,,,,,,,
,,,,,,612b47fce0d4f1a36ff8a758,62bbf970b31a1339db62ec9b,2022-06-29_09h04.59.783,Colour_Asymmetry_Pilot,2022.1.3,Win32,59.81934558,62bbe60bf3d75ef465d3e404,0,57,57,8,1,onetwo,,,,,,,,,,,,,,,,,,,,,,,,,,,,,,,,,,,,,,,,,,,,,,,,,,,,,,,,,,,,,,,,,,,,,,,,,,,,,,,,,,,,,,,,,,,,,,,,,,,,,,,,,,,,,,,,,,,,,,,,,,,,,,,,,,,,,,,,,,,,,,,,,,,,,
,,,,,,612b47fce0d4f1a36ff8a758,62bbf970b31a1339db62ec9b,2022-06-29_09h04.59.783,Colour_Asymmetry_Pilot,2022.1.3,Win32,59.81934558,62bbe60bf3d75ef465d3e404,0,58,58,12,1,threeone,,,,,,,,,,,,,,,,,,,,,,,,,,,,,,,,,,,,,,,,,,,,,,,,,,,,,,,,,,,,,,,,,,,,,,,,,,,,,,,,,,,,,,,,,,,,,,,,,,,,,,,,,,,,,,,,,,,,,,,,,,,,,,,,,,,,,,,,,,,,,,,,,,,,,
,,,,,,612b47fce0d4f1a36ff8a758,62bbf970b31a1339db62ec9b,2022-06-29_09h04.59.783,Colour_Asymmetry_Pilot,2022.1.3,Win32,59.81934558,62bbe60bf3d75ef465d3e404,0,59,59,71,1,fourthree,,,,,,,,,,,,,,,,,,,,,,,,,,,,,,,,,,,,,,,,,,,,,,,,,,,,,,,,,,,,,,,,,,,,,,,,,,,,,,,,,,,,,,,,,,,,,,,,,,,,,,,,,,,,,,,,,,,,,,,,,,,,,,,,,,,,,,,,,,,,,,,,,,,,,
,,,,,,612b47fce0d4f1a36ff8a758,62bbf970b31a1339db62ec9b,2022-06-29_09h04.59.783,Colour_Asymmetry_Pilot,2022.1.3,Win32,59.81934558,62bbe60bf3d75ef465d3e404,0,60,60,112,1,onetwo,,,,,,,,,,,,,,,,,,,,,,,,,,,,,,,,,,,,,,,,,,,,,,,,,,,,,,,,,,,,,,,,,,,,,,,,,,,,,,,,,,,,,,,,,,,,,,,,,,,,,,,,,,,,,,,,,,,,,,,,,,,,,,,,,,,,,,,,,,,,,,,,,,,,,
,,,,,,612b47fce0d4f1a36ff8a758,62bbf970b31a1339db62ec9b,2022-06-29_09h04.59.783,Colour_Asymmetry_Pilot,2022.1.3,Win32,59.81934558,62bbe60bf3d75ef465d3e404,0,61,61,32,1,onetwo,,,,,,,,,,,,,,,,,,,,,,,,,,,,,,,,,,,,,,,,,,,,,,,,,,,,,,,,,,,,,,,,,,,,,,,,,,,,,,,,,,,,,,,,,,,,,,,,,,,,,,,,,,,,,,,,,,,,,,,,,,,,,,,,,,,,,,,,,,,,,,,,,,,,,
,,,,,,612b47fce0d4f1a36ff8a758,62bbf970b31a1339db62ec9b,2022-06-29_09h04.59.783,Colour_Asymmetry_Pilot,2022.1.3,Win32,59.81934558,62bbe60bf3d75ef465d3e404,0,62,62,154,1,twoone,,,,,,,,,,,,,,,,,,,,,,,,,,,,,,,,,,,,,,,,,,,,,,,,,,,,,,,,,,,,,,,,,,,,,,,,,,,,,,,,,,,,,,,,,,,,,,,,,,,,,,,,,,,,,,,,,,,,,,,,,,,,,,,,,,,,,,,,,,,,,,,,,,,,,
,,,,,,612b47fce0d4f1a36ff8a758,62bbf970b31a1339db62ec9b,2022-06-29_09h04.59.783,Colour_Asymmetry_Pilot,2022.1.3,Win32,59.81934558,62bbe60bf3d75ef465d3e404,0,63,63,57,1,onethree,,,,,,,,,,,,,,,,,,,,,,,,,,,,,,,,,,,,,,,,,,,,,,,,,,,,,,,,,,,,,,,,,,,,,,,,,,,,,,,,,,,,,,,,,,,,,,,,,,,,,,,,,,,,,,,,,,,,,,,,,,,,,,,,,,,,,,,,,,,,,,,,,,,,,
,,,,,,612b47fce0d4f1a36ff8a758,62bbf970b31a1339db62ec9b,2022-06-29_09h04.59.783,Colour_Asymmetry_Pilot,2022.1.3,Win32,59.81934558,62bbe60bf3d75ef465d3e404,0,64,64,64,1,onetwo,,,,,,,,,,,,,,,,,,,,,,,,,,,,,,,,,,,,,,,,,,,,,,,,,,,,,,,,,,,,,,,,,,,,,,,,,,,,,,,,,,,,,,,,,,,,,,,,,,,,,,,,,,,,,,,,,,,,,,,,,,,,,,,,,,,,,,,,,,,,,,,,,,,,,
,,,,,,612b47fce0d4f1a36ff8a758,62bbf970b31a1339db62ec9b,2022-06-29_09h04.59.783,Colour_Asymmetry_Pilot,2022.1.3,Win32,59.81934558,62bbe60bf3d75ef465d3e404,0,65,65,150,1,fourtwo,,,,,,,,,,,,,,,,,,,,,,,,,,,,,,,,,,,,,,,,,,,,,,,,,,,,,,,,,,,,,,,,,,,,,,,,,,,,,,,,,,,,,,,,,,,,,,,,,,,,,,,,,,,,,,,,,,,,,,,,,,,,,,,,,,,,,,,,,,,,,,,,,,,,,
,,,,,,612b47fce0d4f1a36ff8a758,62bbf970b31a1339db62ec9b,2022-06-29_09h04.59.783,Colour_Asymmetry_Pilot,2022.1.3,Win32,59.81934558,62bbe60bf3d75ef465d3e404,0,66,66,49,1,onethree,,,,,,,,,,,,,,,,,,,,,,,,,,,,,,,,,,,,,,,,,,,,,,,,,,,,,,,,,,,,,,,,,,,,,,,,,,,,,,,,,,,,,,,,,,,,,,,,,,,,,,,,,,,,,,,,,,,,,,,,,,,,,,,,,,,,,,,,,,,,,,,,,,,,,
,,,,,,612b47fce0d4f1a36ff8a758,62bbf970b31a1339db62ec9b,2022-06-29_09h04.59.783,Colour_Asymmetry_Pilot,2022.1.3,Win32,59.81934558,62bbe60bf3d75ef465d3e404,0,67,67,52,1,threeone,,,,,,,,,,,,,,,,,,,,,,,,,,,,,,,,,,,,,,,,,,,,,,,,,,,,,,,,,,,,,,,,,,,,,,,,,,,,,,,,,,,,,,,,,,,,,,,,,,,,,,,,,,,,,,,,,,,,,,,,,,,,,,,,,,,,,,,,,,,,,,,,,,,,,
,,,,,,612b47fce0d4f1a36ff8a758,62bbf970b31a1339db62ec9b,2022-06-29_09h04.59.783,Colour_Asymmetry_Pilot,2022.1.3,Win32,59.81934558,62bbe60bf3d75ef465d3e404,0,68,68,63,1,fourthree,,,,,,,,,,,,,,,,,,,,,,,,,,,,,,,,,,,,,,,,,,,,,,,,,,,,,,,,,,,,,,,,,,,,,,,,,,,,,,,,,,,,,,,,,,,,,,,,,,,,,,,,,,,,,,,,,,,,,,,,,,,,,,,,,,,,,,,,,,,,,,,,,,,,,
,,,,,,612b47fce0d4f1a36ff8a758,62bbf970b31a1339db62ec9b,2022-06-29_09h04.59.783,Colour_Asymmetry_Pilot,2022.1.3,Win32,59.81934558,62bbe60bf3d75ef465d3e404,0,69,69,88,1,onetwo,,,,,,,,,,,,,,,,,,,,,,,,,,,,,,,,,,,,,,,,,,,,,,,,,,,,,,,,,,,,,,,,,,,,,,,,,,,,,,,,,,,,,,,,,,,,,,,,,,,,,,,,,,,,,,,,,,,,,,,,,,,,,,,,,,,,,,,,,,,,,,,,,,,,,
,,,,,,612b47fce0d4f1a36ff8a758,62bbf970b31a1339db62ec9b,2022-06-29_09h04.59.783,Colour_Asymmetry_Pilot,2022.1.3,Win32,59.81934558,62bbe60bf3d75ef465d3e404,0,70,70,60,1,threeone,,,,,,,,,,,,,,,,,,,,,,,,,,,,,,,,,,,,,,,,,,,,,,,,,,,,,,,,,,,,,,,,,,,,,,,,,,,,,,,,,,,,,,,,,,,,,,,,,,,,,,,,,,,,,,,,,,,,,,,,,,,,,,,,,,,,,,,,,,,,,,,,,,,,,
,,,,,,612b47fce0d4f1a36ff8a758,62bbf970b31a1339db62ec9b,2022-06-29_09h04.59.783,Colour_Asymmetry_Pilot,2022.1.3,Win32,59.81934558,62bbe60bf3d75ef465d3e404,0,71,71,108,1,threeone,,,,,,,,,,,,,,,,,,,,,,,,,,,,,,,,,,,,,,,,,,,,,,,,,,,,,,,,,,,,,,,,,,,,,,,,,,,,,,,,,,,,,,,,,,,,,,,,,,,,,,,,,,,,,,,,,,,,,,,,,,,,,,,,,,,,,,,,,,,,,,,,,,,,,
,,,,,,612b47fce0d4f1a36ff8a758,62bbf970b31a1339db62ec9b,2022-06-29_09h04.59.783,Colour_Asymmetry_Pilot,2022.1.3,Win32,59.81934558,62bbe60bf3d75ef465d3e404,0,72,72,44,1,threeone,,,,,,,,,,,,,,,,,,,,,,,,,,,,,,,,,,,,,,,,,,,,,,,,,,,,,,,,,,,,,,,,,,,,,,,,,,,,,,,,,,,,,,,,,,,,,,,,,,,,,,,,,,,,,,,,,,,,,,,,,,,,,,,,,,,,,,,,,,,,,,,,,,,,,
,,,,,,612b47fce0d4f1a36ff8a758,62bbf970b31a1339db62ec9b,2022-06-29_09h04.59.783,Colour_Asymmetry_Pilot,2022.1.3,Win32,59.81934558,62bbe60bf3d75ef465d3e404,0,73,73,39,1,fourthree,,,,,,,,,,,,,,,,,,,,,,,,,,,,,,,,,,,,,,,,,,,,,,,,,,,,,,,,,,,,,,,,,,,,,,,,,,,,,,,,,,,,,,,,,,,,,,,,,,,,,,,,,,,,,,,,,,,,,,,,,,,,,,,,,,,,,,,,,,,,,,,,,,,,,
,,,,,,612b47fce0d4f1a36ff8a758,62bbf970b31a1339db62ec9b,2022-06-29_09h04.59.783,Colour_Asymmetry_Pilot,2022.1.3,Win32,59.81934558,62bbe60bf3d75ef465d3e404,0,74,74,24,1,onetwo,,,,,,,,,,,,,,,,,,,,,,,,,,,,,,,,,,,,,,,,,,,,,,,,,,,,,,,,,,,,,,,,,,,,,,,,,,,,,,,,,,,,,,,,,,,,,,,,,,,,,,,,,,,,,,,,,,,,,,,,,,,,,,,,,,,,,,,,,,,,,,,,,,,,,
,,,,,,612b47fce0d4f1a36ff8a758,62bbf970b31a1339db62ec9b,2022-06-29_09h04.59.783,Colour_Asymmetry_Pilot,2022.1.3,Win32,59.81934558,62bbe60bf3d75ef465d3e404,0,75,75,155,1,twofour,,,,,,,,,,,,,,,,,,,,,,,,,,,,,,,,,,,,,,,,,,,,,,,,,,,,,,,,,,,,,,,,,,,,,,,,,,,,,,,,,,,,,,,,,,,,,,,,,,,,,,,,,,,,,,,,,,,,,,,,,,,,,,,,,,,,,,,,,,,,,,,,,,,,,
,,,,,,612b47fce0d4f1a36ff8a758,62bbf970b31a1339db62ec9b,2022-06-29_09h04.59.783,Colour_Asymmetry_Pilot,2022.1.3,Win32,59.81934558,62bbe60bf3d75ef465d3e404,0,76,76,85,1,threefour,,,,,,,,,,,,,,,,,,,,,,,,,,,,,,,,,,,,,,,,,,,,,,,,,,,,,,,,,,,,,,,,,,,,,,,,,,,,,,,,,,,,,,,,,,,,,,,,,,,,,,,,,,,,,,,,,,,,,,,,,,,,,,,,,,,,,,,,,,,,,,,,,,,,,
,,,,,,612b47fce0d4f1a36ff8a758,62bbf970b31a1339db62ec9b,2022-06-29_09h04.59.783,Colour_Asymmetry_Pilot,2022.1.3,Win32,59.81934558,62bbe60bf3d75ef465d3e404,0,77,77,109,1,threefour,,,,,,,,,,,,,,,,,,,,,,,,,,,,,,,,,,,,,,,,,,,,,,,,,,,,,,,,,,,,,,,,,,,,,,,,,,,,,,,,,,,,,,,,,,,,,,,,,,,,,,,,,,,,,,,,,,,,,,,,,,,,,,,,,,,,,,,,,,,,,,,,,,,,,
,,,,,,612b47fce0d4f1a36ff8a758,62bbf970b31a1339db62ec9b,2022-06-29_09h04.59.783,Colour_Asymmetry_Pilot,2022.1.3,Win32,59.81934558,62bbe60bf3d75ef465d3e404,0,78,78,90,1,twoone,,,,,,,,,,,,,,,,,,,,,,,,,,,,,,,,,,,,,,,,,,,,,,,,,,,,,,,,,,,,,,,,,,,,,,,,,,,,,,,,,,,,,,,,,,,,,,,,,,,,,,,,,,,,,,,,,,,,,,,,,,,,,,,,,,,,,,,,,,,,,,,,,,,,,
,,,,,,612b47fce0d4f1a36ff8a758,62bbf970b31a1339db62ec9b,2022-06-29_09h04.59.783,Colour_Asymmetry_Pilot,2022.1.3,Win32,59.81934558,62bbe60bf3d75ef465d3e404,0,79,79,97,1,onethree,,,,,,,,,,,,,,,,,,,,,,,,,,,,,,,,,,,,,,,,,,,,,,,,,,,,,,,,,,,,,,,,,,,,,,,,,,,,,,,,,,,,,,,,,,,,,,,,,,,,,,,,,,,,,,,,,,,,,,,,,,,,,,,,,,,,,,,,,,,,,,,,,,,,,
,,,,,,612b47fce0d4f1a36ff8a758,62bbf970b31a1339db62ec9b,2022-06-29_09h04.59.783,Colour_Asymmetry_Pilot,2022.1.3,Win32,59.81934558,62bbe60bf3d75ef465d3e404,0,80,80,78,1,fourtwo,,,,,,,,,,,,,,,,,,,,,,,,,,,,,,,,,,,,,,,,,,,,,,,,,,,,,,,,,,,,,,,,,,,,,,,,,,,,,,,,,,,,,,,,,,,,,,,,,,,,,,,,,,,,,,,,,,,,,,,,,,,,,,,,,,,,,,,,,,,,,,,,,,,,,
,,,,,,612b47fce0d4f1a36ff8a758,62bbf970b31a1339db62ec9b,2022-06-29_09h04.59.783,Colour_Asymmetry_Pilot,2022.1.3,Win32,59.81934558,62bbe60bf3d75ef465d3e404,0,81,81,82,1,twoone,,,,,,,,,,,,,,,,,,,,,,,,,,,,,,,,,,,,,,,,,,,,,,,,,,,,,,,,,,,,,,,,,,,,,,,,,,,,,,,,,,,,,,,,,,,,,,,,,,,,,,,,,,,,,,,,,,,,,,,,,,,,,,,,,,,,,,,,,,,,,,,,,,,,,
,,,,,,612b47fce0d4f1a36ff8a758,62bbf970b31a1339db62ec9b,2022-06-29_09h04.59.783,Colour_Asymmetry_Pilot,2022.1.3,Win32,59.81934558,62bbe60bf3d75ef465d3e404,0,82,82,157,1,threefour,,,,,,,,,,,,,,,,,,,,,,,,,,,,,,,,,,,,,,,,,,,,,,,,,,,,,,,,,,,,,,,,,,,,,,,,,,,,,,,,,,,,,,,,,,,,,,,,,,,,,,,,,,,,,,,,,,,,,,,,,,,,,,,,,,,,,,,,,,,,,,,,,,,,,
,,,,,,612b47fce0d4f1a36ff8a758,62bbf970b31a1339db62ec9b,2022-06-29_09h04.59.783,Colour_Asymmetry_Pilot,2022.1.3,Win32,59.81934558,62bbe60bf3d75ef465d3e404,0,83,83,148,1,threeone,,,,,,,,,,,,,,,,,,,,,,,,,,,,,,,,,,,,,,,,,,,,,,,,,,,,,,,,,,,,,,,,,,,,,,,,,,,,,,,,,,,,,,,,,,,,,,,,,,,,,,,,,,,,,,,,,,,,,,,,,,,,,,,,,,,,,,,,,,,,,,,,,,,,,
,,,,,,612b47fce0d4f1a36ff8a758,62bbf970b31a1339db62ec9b,2022-06-29_09h04.59.783,Colour_Asymmetry_Pilot,2022.1.3,Win32,59.81934558,62bbe60bf3d75ef465d3e404,0,84,84,81,1,onethree,,,,,,,,,,,,,,,,,,,,,,,,,,,,,,,,,,,,,,,,,,,,,,,,,,,,,,,,,,,,,,,,,,,,,,,,,,,,,,,,,,,,,,,,,,,,,,,,,,,,,,,,,,,,,,,,,,,,,,,,,,,,,,,,,,,,,,,,,,,,,,,,,,,,,
,,,,,,612b47fce0d4f1a36ff8a758,62bbf970b31a1339db62ec9b,2022-06-29_09h04.59.783,Colour_Asymmetry_Pilot,2022.1.3,Win32,59.81934558,62bbe60bf3d75ef465d3e404,0,85,85,139,1,twofour,,,,,,,,,,,,,,,,,,,,,,,,,,,,,,,,,,,,,,,,,,,,,,,,,,,,,,,,,,,,,,,,,,,,,,,,,,,,,,,,,,,,,,,,,,,,,,,,,,,,,,,,,,,,,,,,,,,,,,,,,,,,,,,,,,,,,,,,,,,,,,,,,,,,,
,,,,,,612b47fce0d4f1a36ff8a758,62bbf970b31a1339db62ec9b,2022-06-29_09h04.59.783,Colour_Asymmetry_Pilot,2022.1.3,Win32,59.81934558,62bbe60bf3d75ef465d3e404,0,86,86,4,1,threeone,,,,,,,,,,,,,,,,,,,,,,,,,,,,,,,,,,,,,,,,,,,,,,,,,,,,,,,,,,,,,,,,,,,,,,,,,,,,,,,,,,,,,,,,,,,,,,,,,,,,,,,,,,,,,,,,,,,,,,,,,,,,,,,,,,,,,,,,,,,,,,,,,,,,,
,,,,,,612b47fce0d4f1a36ff8a758,62bbf970b31a1339db62ec9b,2022-06-29_09h04.59.783,Colour_Asymmetry_Pilot,2022.1.3,Win32,59.81934558,62bbe60bf3d75ef465d3e404,0,87,87,124,1,threeone,,,,,,,,,,,,,,,,,,,,,,,,,,,,,,,,,,,,,,,,,,,,,,,,,,,,,,,,,,,,,,,,,,,,,,,,,,,,,,,,,,,,,,,,,,,,,,,,,,,,,,,,,,,,,,,,,,,,,,,,,,,,,,,,,,,,,,,,,,,,,,,,,,,,,
,,,,,,612b47fce0d4f1a36ff8a758,62bbf970b31a1339db62ec9b,2022-06-29_09h04.59.783,Colour_Asymmetry_Pilot,2022.1.3,Win32,59.81934558,62bbe60bf3d75ef465d3e404,0,88,88,105,1,onethree,,,,,,,,,,,,,,,,,,,,,,,,,,,,,,,,,,,,,,,,,,,,,,,,,,,,,,,,,,,,,,,,,,,,,,,,,,,,,,,,,,,,,,,,,,,,,,,,,,,,,,,,,,,,,,,,,,,,,,,,,,,,,,,,,,,,,,,,,,,,,,,,,,,,,
,,,,,,612b47fce0d4f1a36ff8a758,62bbf970b31a1339db62ec9b,2022-06-29_09h04.59.783,Colour_Asymmetry_Pilot,2022.1.3,Win32,59.81934558,62bbe60bf3d75ef465d3e404,0,89,89,160,1,onetwo,,,,,,,,,,,,,,,,,,,,,,,,,,,,,,,,,,,,,,,,,,,,,,,,,,,,,,,,,,,,,,,,,,,,,,,,,,,,,,,,,,,,,,,,,,,,,,,,,,,,,,,,,,,,,,,,,,,,,,,,,,,,,,,,,,,,,,,,,,,,,,,,,,,,,
,,,,,,612b47fce0d4f1a36ff8a758,62bbf970b31a1339db62ec9b,2022-06-29_09h04.59.783,Colour_Asymmetry_Pilot,2022.1.3,Win32,59.81934558,62bbe60bf3d75ef465d3e404,0,90,90,127,1,fourthree,,,,,,,,,,,,,,,,,,,,,,,,,,,,,,,,,,,,,,,,,,,,,,,,,,,,,,,,,,,,,,,,,,,,,,,,,,,,,,,,,,,,,,,,,,,,,,,,,,,,,,,,,,,,,,,,,,,,,,,,,,,,,,,,,,,,,,,,,,,,,,,,,,,,,
,,,,,,612b47fce0d4f1a36ff8a758,62bbf970b31a1339db62ec9b,2022-06-29_09h04.59.783,Colour_Asymmetry_Pilot,2022.1.3,Win32,59.81934558,62bbe60bf3d75ef465d3e404,0,91,91,69,1,threefour,,,,,,,,,,,,,,,,,,,,,,,,,,,,,,,,,,,,,,,,,,,,,,,,,,,,,,,,,,,,,,,,,,,,,,,,,,,,,,,,,,,,,,,,,,,,,,,,,,,,,,,,,,,,,,,,,,,,,,,,,,,,,,,,,,,,,,,,,,,,,,,,,,,,,
,,,,,,612b47fce0d4f1a36ff8a758,62bbf970b31a1339db62ec9b,2022-06-29_09h04.59.783,Colour_Asymmetry_Pilot,2022.1.3,Win32,59.81934558,62bbe60bf3d75ef465d3e404,0,92,92,99,1,twofour,,,,,,,,,,,,,,,,,,,,,,,,,,,,,,,,,,,,,,,,,,,,,,,,,,,,,,,,,,,,,,,,,,,,,,,,,,,,,,,,,,,,,,,,,,,,,,,,,,,,,,,,,,,,,,,,,,,,,,,,,,,,,,,,,,,,,,,,,,,,,,,,,,,,,
,,,,,,612b47fce0d4f1a36ff8a758,62bbf970b31a1339db62ec9b,2022-06-29_09h04.59.783,Colour_Asymmetry_Pilot,2022.1.3,Win32,59.81934558,62bbe60bf3d75ef465d3e404,0,93,93,21,1,threefour,,,,,,,,,,,,,,,,,,,,,,,,,,,,,,,,,,,,,,,,,,,,,,,,,,,,,,,,,,,,,,,,,,,,,,,,,,,,,,,,,,,,,,,,,,,,,,,,,,,,,,,,,,,,,,,,,,,,,,,,,,,,,,,,,,,,,,,,,,,,,,,,,,,,,
,,,,,,612b47fce0d4f1a36ff8a758,62bbf970b31a1339db62ec9b,2022-06-29_09h04.59.783,Colour_Asymmetry_Pilot,2022.1.3,Win32,59.81934558,62bbe60bf3d75ef465d3e404,0,94,94,143,1,fourthree,,,,,,,,,,,,,,,,,,,,,,,,,,,,,,,,,,,,,,,,,,,,,,,,,,,,,,,,,,,,,,,,,,,,,,,,,,,,,,,,,,,,,,,,,,,,,,,,,,,,,,,,,,,,,,,,,,,,,,,,,,,,,,,,,,,,,,,,,,,,,,,,,,,,,
,,,,,,612b47fce0d4f1a36ff8a758,62bbf970b31a1339db62ec9b,2022-06-29_09h04.59.783,Colour_Asymmetry_Pilot,2022.1.3,Win32,59.81934558,62bbe60bf3d75ef465d3e404,0,95,95,152,1,onetwo,,,,,,,,,,,,,,,,,,,,,,,,,,,,,,,,,,,,,,,,,,,,,,,,,,,,,,,,,,,,,,,,,,,,,,,,,,,,,,,,,,,,,,,,,,,,,,,,,,,,,,,,,,,,,,,,,,,,,,,,,,,,,,,,,,,,,,,,,,,,,,,,,,,,,
,,,,,,612b47fce0d4f1a36ff8a758,62bbf970b31a1339db62ec9b,2022-06-29_09h04.59.783,Colour_Asymmetry_Pilot,2022.1.3,Win32,59.81934558,62bbe60bf3d75ef465d3e404,0,96,96,36,1,threeone,,,,,,,,,,,,,,,,,,,,,,,,,,,,,,,,,,,,,,,,,,,,,,,,,,,,,,,,,,,,,,,,,,,,,,,,,,,,,,,,,,,,,,,,,,,,,,,,,,,,,,,,,,,,,,,,,,,,,,,,,,,,,,,,,,,,,,,,,,,,,,,,,,,,,
,,,,,,612b47fce0d4f1a36ff8a758,62bbf970b31a1339db62ec9b,2022-06-29_09h04.59.783,Colour_Asymmetry_Pilot,2022.1.3,Win32,59.81934558,62bbe60bf3d75ef465d3e404,0,97,97,7,1,fourthree,,,,,,,,,,,,,,,,,,,,,,,,,,,,,,,,,,,,,,,,,,,,,,,,,,,,,,,,,,,,,,,,,,,,,,,,,,,,,,,,,,,,,,,,,,,,,,,,,,,,,,,,,,,,,,,,,,,,,,,,,,,,,,,,,,,,,,,,,,,,,,,,,,,,,
,,,,,,612b47fce0d4f1a36ff8a758,62bbf970b31a1339db62ec9b,2022-06-29_09h04.59.783,Colour_Asymmetry_Pilot,2022.1.3,Win32,59.81934558,62bbe60bf3d75ef465d3e404,0,98,98,89,1,onethree,,,,,,,,,,,,,,,,,,,,,,,,,,,,,,,,,,,,,,,,,,,,,,,,,,,,,,,,,,,,,,,,,,,,,,,,,,,,,,,,,,,,,,,,,,,,,,,,,,,,,,,,,,,,,,,,,,,,,,,,,,,,,,,,,,,,,,,,,,,,,,,,,,,,,
,,,,,,612b47fce0d4f1a36ff8a758,62bbf970b31a1339db62ec9b,2022-06-29_09h04.59.783,Colour_Asymmetry_Pilot,2022.1.3,Win32,59.81934558,62bbe60bf3d75ef465d3e404,0,99,99,141,1,threefour,,,,,,,,,,,,,,,,,,,,,,,,,,,,,,,,,,,,,,,,,,,,,,,,,,,,,,,,,,,,,,,,,,,,,,,,,,,,,,,,,,,,,,,,,,,,,,,,,,,,,,,,,,,,,,,,,,,,,,,,,,,,,,,,,,,,,,,,,,,,,,,,,,,,,
,,,,,,612b47fce0d4f1a36ff8a758,62bbf970b31a1339db62ec9b,2022-06-29_09h04.59.783,Colour_Asymmetry_Pilot,2022.1.3,Win32,59.81934558,62bbe60bf3d75ef465d3e404,0,100,100,114,1,twoone,,,,,,,,,,,,,,,,,,,,,,,,,,,,,,,,,,,,,,,,,,,,,,,,,,,,,,,,,,,,,,,,,,,,,,,,,,,,,,,,,,,,,,,,,,,,,,,,,,,,,,,,,,,,,,,,,,,,,,,,,,,,,,,,,,,,,,,,,,,,,,,,,,,,,
,,,,,,612b47fce0d4f1a36ff8a758,62bbf970b31a1339db62ec9b,2022-06-29_09h04.59.783,Colour_Asymmetry_Pilot,2022.1.3,Win32,59.81934558,62bbe60bf3d75ef465d3e404,0,101,101,87,1,fourthree,,,,,,,,,,,,,,,,,,,,,,,,,,,,,,,,,,,,,,,,,,,,,,,,,,,,,,,,,,,,,,,,,,,,,,,,,,,,,,,,,,,,,,,,,,,,,,,,,,,,,,,,,,,,,,,,,,,,,,,,,,,,,,,,,,,,,,,,,,,,,,,,,,,,,
,,,,,,612b47fce0d4f1a36ff8a758,62bbf970b31a1339db62ec9b,2022-06-29_09h04.59.783,Colour_Asymmetry_Pilot,2022.1.3,Win32,59.81934558,62bbe60bf3d75ef465d3e404,0,102,102,93,1,threefour,,,,,,,,,,,,,,,,,,,,,,,,,,,,,,,,,,,,,,,,,,,,,,,,,,,,,,,,,,,,,,,,,,,,,,,,,,,,,,,,,,,,,,,,,,,,,,,,,,,,,,,,,,,,,,,,,,,,,,,,,,,,,,,,,,,,,,,,,,,,,,,,,,,,,
,,,,,,612b47fce0d4f1a36ff8a758,62bbf970b31a1339db62ec9b,2022-06-29_09h04.59.783,Colour_Asymmetry_Pilot,2022.1.3,Win32,59.81934558,62bbe60bf3d75ef465d3e404,0,103,103,156,1,threeone,,,,,,,,,,,,,,,,,,,,,,,,,,,,,,,,,,,,,,,,,,,,,,,,,,,,,,,,,,,,,,,,,,,,,,,,,,,,,,,,,,,,,,,,,,,,,,,,,,,,,,,,,,,,,,,,,,,,,,,,,,,,,,,,,,,,,,,,,,,,,,,,,,,,,
,,,,,,612b47fce0d4f1a36ff8a758,62bbf970b31a1339db62ec9b,2022-06-29_09h04.59.783,Colour_Asymmetry_Pilot,2022.1.3,Win32,59.81934558,62bbe60bf3d75ef465d3e404,0,104,104,10,1,twoone,,,,,,,,,,,,,,,,,,,,,,,,,,,,,,,,,,,,,,,,,,,,,,,,,,,,,,,,,,,,,,,,,,,,,,,,,,,,,,,,,,,,,,,,,,,,,,,,,,,,,,,,,,,,,,,,,,,,,,,,,,,,,,,,,,,,,,,,,,,,,,,,,,,,,
,,,,,,612b47fce0d4f1a36ff8a758,62bbf970b31a1339db62ec9b,2022-06-29_09h04.59.783,Colour_Asymmetry_Pilot,2022.1.3,Win32,59.81934558,62bbe60bf3d75ef465d3e404,0,105,105,37,1,threefour,,,,,,,,,,,,,,,,,,,,,,,,,,,,,,,,,,,,,,,,,,,,,,,,,,,,,,,,,,,,,,,,,,,,,,,,,,,,,,,,,,,,,,,,,,,,,,,,,,,,,,,,,,,,,,,,,,,,,,,,,,,,,,,,,,,,,,,,,,,,,,,,,,,,,
,,,,,,612b47fce0d4f1a36ff8a758,62bbf970b31a1339db62ec9b,2022-06-29_09h04.59.783,Colour_Asymmetry_Pilot,2022.1.3,Win32,59.81934558,62bbe60bf3d75ef465d3e404,0,106,106,94,1,fourtwo,,,,,,,,,,,,,,,,,,,,,,,,,,,,,,,,,,,,,,,,,,,,,,,,,,,,,,,,,,,,,,,,,,,,,,,,,,,,,,,,,,,,,,,,,,,,,,,,,,,,,,,,,,,,,,,,,,,,,,,,,,,,,,,,,,,,,,,,,,,,,,,,,,,,,
,,,,,,612b47fce0d4f1a36ff8a758,62bbf970b31a1339db62ec9b,2022-06-29_09h04.59.783,Colour_Asymmetry_Pilot,2022.1.3,Win32,59.81934558,62bbe60bf3d75ef465d3e404,0,107,107,43,1,twofour,,,,,,,,,,,,,,,,,,,,,,,,,,,,,,,,,,,,,,,,,,,,,,,,,,,,,,,,,,,,,,,,,,,,,,,,,,,,,,,,,,,,,,,,,,,,,,,,,,,,,,,,,,,,,,,,,,,,,,,,,,,,,,,,,,,,,,,,,,,,,,,,,,,,,
,,,,,,612b47fce0d4f1a36ff8a758,62bbf970b31a1339db62ec9b,2022-06-29_09h04.59.783,Colour_Asymmetry_Pilot,2022.1.3,Win32,59.81934558,62bbe60bf3d75ef465d3e404,0,108,108,131,1,twofour,,,,,,,,,,,,,,,,,,,,,,,,,,,,,,,,,,,,,,,,,,,,,,,,,,,,,,,,,,,,,,,,,,,,,,,,,,,,,,,,,,,,,,,,,,,,,,,,,,,,,,,,,,,,,,,,,,,,,,,,,,,,,,,,,,,,,,,,,,,,,,,,,,,,,
,,,,,,612b47fce0d4f1a36ff8a758,62bbf970b31a1339db62ec9b,2022-06-29_09h04.59.783,Colour_Asymmetry_Pilot,2022.1.3,Win32,59.81934558,62bbe60bf3d75ef465d3e404,0,109,109,2,1,twoone,,,,,,,,,,,,,,,,,,,,,,,,,,,,,,,,,,,,,,,,,,,,,,,,,,,,,,,,,,,,,,,,,,,,,,,,,,,,,,,,,,,,,,,,,,,,,,,,,,,,,,,,,,,,,,,,,,,,,,,,,,,,,,,,,,,,,,,,,,,,,,,,,,,,,
,,,,,,612b47fce0d4f1a36ff8a758,62bbf970b31a1339db62ec9b,2022-06-29_09h04.59.783,Colour_Asymmetry_Pilot,2022.1.3,Win32,59.81934558,62bbe60bf3d75ef465d3e404,0,110,110,62,1,fourtwo,,,,,,,,,,,,,,,,,,,,,,,,,,,,,,,,,,,,,,,,,,,,,,,,,,,,,,,,,,,,,,,,,,,,,,,,,,,,,,,,,,,,,,,,,,,,,,,,,,,,,,,,,,,,,,,,,,,,,,,,,,,,,,,,,,,,,,,,,,,,,,,,,,,,,
,,,,,,612b47fce0d4f1a36ff8a758,62bbf970b31a1339db62ec9b,2022-06-29_09h04.59.783,Colour_Asymmetry_Pilot,2022.1.3,Win32,59.81934558,62bbe60bf3d75ef465d3e404,0,111,111,58,1,twoone,,,,,,,,,,,,,,,,,,,,,,,,,,,,,,,,,,,,,,,,,,,,,,,,,,,,,,,,,,,,,,,,,,,,,,,,,,,,,,,,,,,,,,,,,,,,,,,,,,,,,,,,,,,,,,,,,,,,,,,,,,,,,,,,,,,,,,,,,,,,,,,,,,,,,
,,,,,,612b47fce0d4f1a36ff8a758,62bbf970b31a1339db62ec9b,2022-06-29_09h04.59.783,Colour_Asymmetry_Pilot,2022.1.3,Win32,59.81934558,62bbe60bf3d75ef465d3e404,0,112,112,122,1,twoone,,,,,,,,,,,,,,,,,,,,,,,,,,,,,,,,,,,,,,,,,,,,,,,,,,,,,,,,,,,,,,,,,,,,,,,,,,,,,,,,,,,,,,,,,,,,,,,,,,,,,,,,,,,,,,,,,,,,,,,,,,,,,,,,,,,,,,,,,,,,,,,,,,,,,
,,,,,,612b47fce0d4f1a36ff8a758,62bbf970b31a1339db62ec9b,2022-06-29_09h04.59.783,Colour_Asymmetry_Pilot,2022.1.3,Win32,59.81934558,62bbe60bf3d75ef465d3e404,0,113,113,31,1,fourthree,,,,,,,,,,,,,,,,,,,,,,,,,,,,,,,,,,,,,,,,,,,,,,,,,,,,,,,,,,,,,,,,,,,,,,,,,,,,,,,,,,,,,,,,,,,,,,,,,,,,,,,,,,,,,,,,,,,,,,,,,,,,,,,,,,,,,,,,,,,,,,,,,,,,,
,,,,,,612b47fce0d4f1a36ff8a758,62bbf970b31a1339db62ec9b,2022-06-29_09h04.59.783,Colour_Asymmetry_Pilot,2022.1.3,Win32,59.81934558,62bbe60bf3d75ef465d3e404,0,114,114,126,1,fourtwo,,,,,,,,,,,,,,,,,,,,,,,,,,,,,,,,,,,,,,,,,,,,,,,,,,,,,,,,,,,,,,,,,,,,,,,,,,,,,,,,,,,,,,,,,,,,,,,,,,,,,,,,,,,,,,,,,,,,,,,,,,,,,,,,,,,,,,,,,,,,,,,,,,,,,
,,,,,,612b47fce0d4f1a36ff8a758,62bbf970b31a1339db62ec9b,2022-06-29_09h04.59.783,Colour_Asymmetry_Pilot,2022.1.3,Win32,59.81934558,62bbe60bf3d75ef465d3e404,0,115,115,115,1,twofour,,,,,,,,,,,,,,,,,,,,,,,,,,,,,,,,,,,,,,,,,,,,,,,,,,,,,,,,,,,,,,,,,,,,,,,,,,,,,,,,,,,,,,,,,,,,,,,,,,,,,,,,,,,,,,,,,,,,,,,,,,,,,,,,,,,,,,,,,,,,,,,,,,,,,
,,,,,,612b47fce0d4f1a36ff8a758,62bbf970b31a1339db62ec9b,2022-06-29_09h04.59.783,Colour_Asymmetry_Pilot,2022.1.3,Win32,59.81934558,62bbe60bf3d75ef465d3e404,0,116,116,128,1,onetwo,,,,,,,,,,,,,,,,,,,,,,,,,,,,,,,,,,,,,,,,,,,,,,,,,,,,,,,,,,,,,,,,,,,,,,,,,,,,,,,,,,,,,,,,,,,,,,,,,,,,,,,,,,,,,,,,,,,,,,,,,,,,,,,,,,,,,,,,,,,,,,,,,,,,,
,,,,,,612b47fce0d4f1a36ff8a758,62bbf970b31a1339db62ec9b,2022-06-29_09h04.59.783,Colour_Asymmetry_Pilot,2022.1.3,Win32,59.81934558,62bbe60bf3d75ef465d3e404,0,117,117,121,1,onethree,,,,,,,,,,,,,,,,,,,,,,,,,,,,,,,,,,,,,,,,,,,,,,,,,,,,,,,,,,,,,,,,,,,,,,,,,,,,,,,,,,,,,,,,,,,,,,,,,,,,,,,,,,,,,,,,,,,,,,,,,,,,,,,,,,,,,,,,,,,,,,,,,,,,,
,,,,,,612b47fce0d4f1a36ff8a758,62bbf970b31a1339db62ec9b,2022-06-29_09h04.59.783,Colour_Asymmetry_Pilot,2022.1.3,Win32,59.81934558,62bbe60bf3d75ef465d3e404,0,118,118,147,1,twofour,,,,,,,,,,,,,,,,,,,,,,,,,,,,,,,,,,,,,,,,,,,,,,,,,,,,,,,,,,,,,,,,,,,,,,,,,,,,,,,,,,,,,,,,,,,,,,,,,,,,,,,,,,,,,,,,,,,,,,,,,,,,,,,,,,,,,,,,,,,,,,,,,,,,,
,,,,,,612b47fce0d4f1a36ff8a758,62bbf970b31a1339db62ec9b,2022-06-29_09h04.59.783,Colour_Asymmetry_Pilot,2022.1.3,Win32,59.81934558,62bbe60bf3d75ef465d3e404,0,119,119,23,1,fourthree,,,,,,,,,,,,,,,,,,,,,,,,,,,,,,,,,,,,,,,,,,,,,,,,,,,,,,,,,,,,,,,,,,,,,,,,,,,,,,,,,,,,,,,,,,,,,,,,,,,,,,,,,,,,,,,,,,,,,,,,,,,,,,,,,,,,,,,,,,,,,,,,,,,,,
,,,,,,612b47fce0d4f1a36ff8a758,62bbf970b31a1339db62ec9b,2022-06-29_09h04.59.783,Colour_Asymmetry_Pilot,2022.1.3,Win32,59.81934558,62bbe60bf3d75ef465d3e404,0,120,120,59,1,twofour,,,,,,,,,,,,,,,,,,,,,,,,,,,,,,,,,,,,,,,,,,,,,,,,,,,,,,,,,,,,,,,,,,,,,,,,,,,,,,,,,,,,,,,,,,,,,,,,,,,,,,,,,,,,,,,,,,,,,,,,,,,,,,,,,,,,,,,,,,,,,,,,,,,,,
,,,,,,612b47fce0d4f1a36ff8a758,62bbf970b31a1339db62ec9b,2022-06-29_09h04.59.783,Colour_Asymmetry_Pilot,2022.1.3,Win32,59.81934558,62bbe60bf3d75ef465d3e404,0,121,121,140,1,threeone,,,,,,,,,,,,,,,,,,,,,,,,,,,,,,,,,,,,,,,,,,,,,,,,,,,,,,,,,,,,,,,,,,,,,,,,,,,,,,,,,,,,,,,,,,,,,,,,,,,,,,,,,,,,,,,,,,,,,,,,,,,,,,,,,,,,,,,,,,,,,,,,,,,,,
,,,,,,612b47fce0d4f1a36ff8a758,62bbf970b31a1339db62ec9b,2022-06-29_09h04.59.783,Colour_Asymmetry_Pilot,2022.1.3,Win32,59.81934558,62bbe60bf3d75ef465d3e404,0,122,122,29,1,threefour,,,,,,,,,,,,,,,,,,,,,,,,,,,,,,,,,,,,,,,,,,,,,,,,,,,,,,,,,,,,,,,,,,,,,,,,,,,,,,,,,,,,,,,,,,,,,,,,,,,,,,,,,,,,,,,,,,,,,,,,,,,,,,,,,,,,,,,,,,,,,,,,,,,,,
,,,,,,612b47fce0d4f1a36ff8a758,62bbf970b31a1339db62ec9b,2022-06-29_09h04.59.783,Colour_Asymmetry_Pilot,2022.1.3,Win32,59.81934558,62bbe60bf3d75ef465d3e404,0,123,123,17,1,onethree,,,,,,,,,,,,,,,,,,,,,,,,,,,,,,,,,,,,,,,,,,,,,,,,,,,,,,,,,,,,,,,,,,,,,,,,,,,,,,,,,,,,,,,,,,,,,,,,,,,,,,,,,,,,,,,,,,,,,,,,,,,,,,,,,,,,,,,,,,,,,,,,,,,,,
,,,,,,612b47fce0d4f1a36ff8a758,62bbf970b31a1339db62ec9b,2022-06-29_09h04.59.783,Colour_Asymmetry_Pilot,2022.1.3,Win32,59.81934558,62bbe60bf3d75ef465d3e404,0,124,124,74,1,twoone,,,,,,,,,,,,,,,,,,,,,,,,,,,,,,,,,,,,,,,,,,,,,,,,,,,,,,,,,,,,,,,,,,,,,,,,,,,,,,,,,,,,,,,,,,,,,,,,,,,,,,,,,,,,,,,,,,,,,,,,,,,,,,,,,,,,,,,,,,,,,,,,,,,,,
,,,,,,612b47fce0d4f1a36ff8a758,62bbf970b31a1339db62ec9b,2022-06-29_09h04.59.783,Colour_Asymmetry_Pilot,2022.1.3,Win32,59.81934558,62bbe60bf3d75ef465d3e404,0,125,125,18,1,twoone,,,,,,,,,,,,,,,,,,,,,,,,,,,,,,,,,,,,,,,,,,,,,,,,,,,,,,,,,,,,,,,,,,,,,,,,,,,,,,,,,,,,,,,,,,,,,,,,,,,,,,,,,,,,,,,,,,,,,,,,,,,,,,,,,,,,,,,,,,,,,,,,,,,,,
,,,,,,612b47fce0d4f1a36ff8a758,62bbf970b31a1339db62ec9b,2022-06-29_09h04.59.783,Colour_Asymmetry_Pilot,2022.1.3,Win32,59.81934558,62bbe60bf3d75ef465d3e404,0,126,126,120,1,onetwo,,,,,,,,,,,,,,,,,,,,,,,,,,,,,,,,,,,,,,,,,,,,,,,,,,,,,,,,,,,,,,,,,,,,,,,,,,,,,,,,,,,,,,,,,,,,,,,,,,,,,,,,,,,,,,,,,,,,,,,,,,,,,,,,,,,,,,,,,,,,,,,,,,,,,
,,,,,,612b47fce0d4f1a36ff8a758,62bbf970b31a1339db62ec9b,2022-06-29_09h04.59.783,Colour_Asymmetry_Pilot,2022.1.3,Win32,59.81934558,62bbe60bf3d75ef465d3e404,0,127,127,38,1,fourtwo,,,,,,,,,,,,,,,,,,,,,,,,,,,,,,,,,,,,,,,,,,,,,,,,,,,,,,,,,,,,,,,,,,,,,,,,,,,,,,,,,,,,,,,,,,,,,,,,,,,,,,,,,,,,,,,,,,,,,,,,,,,,,,,,,,,,,,,,,,,,,,,,,,,,,
,,,,,,612b47fce0d4f1a36ff8a758,62bbf970b31a1339db62ec9b,2022-06-29_09h04.59.783,Colour_Asymmetry_Pilot,2022.1.3,Win32,59.81934558,62bbe60bf3d75ef465d3e404,0,128,128,35,1,twofour,,,,,,,,,,,,,,,,,,,,,,,,,,,,,,,,,,,,,,,,,,,,,,,,,,,,,,,,,,,,,,,,,,,,,,,,,,,,,,,,,,,,,,,,,,,,,,,,,,,,,,,,,,,,,,,,,,,,,,,,,,,,,,,,,,,,,,,,,,,,,,,,,,,,,
,,,,,,612b47fce0d4f1a36ff8a758,62bbf970b31a1339db62ec9b,2022-06-29_09h04.59.783,Colour_Asymmetry_Pilot,2022.1.3,Win32,59.81934558,62bbe60bf3d75ef465d3e404,0,129,129,5,1,threefour,,,,,,,,,,,,,,,,,,,,,,,,,,,,,,,,,,,,,,,,,,,,,,,,,,,,,,,,,,,,,,,,,,,,,,,,,,,,,,,,,,,,,,,,,,,,,,,,,,,,,,,,,,,,,,,,,,,,,,,,,,,,,,,,,,,,,,,,,,,,,,,,,,,,,
,,,,,,612b47fce0d4f1a36ff8a758,62bbf970b31a1339db62ec9b,2022-06-29_09h04.59.783,Colour_Asymmetry_Pilot,2022.1.3,Win32,59.81934558,62bbe60bf3d75ef465d3e404,0,130,130,55,1,fourthree,,,,,,,,,,,,,,,,,,,,,,,,,,,,,,,,,,,,,,,,,,,,,,,,,,,,,,,,,,,,,,,,,,,,,,,,,,,,,,,,,,,,,,,,,,,,,,,,,,,,,,,,,,,,,,,,,,,,,,,,,,,,,,,,,,,,,,,,,,,,,,,,,,,,,
,,,,,,612b47fce0d4f1a36ff8a758,62bbf970b31a1339db62ec9b,2022-06-29_09h04.59.783,Colour_Asymmetry_Pilot,2022.1.3,Win32,59.81934558,62bbe60bf3d75ef465d3e404,0,131,131,6,1,fourtwo,,,,,,,,,,,,,,,,,,,,,,,,,,,,,,,,,,,,,,,,,,,,,,,,,,,,,,,,,,,,,,,,,,,,,,,,,,,,,,,,,,,,,,,,,,,,,,,,,,,,,,,,,,,,,,,,,,,,,,,,,,,,,,,,,,,,,,,,,,,,,,,,,,,,,
,,,,,,612b47fce0d4f1a36ff8a758,62bbf970b31a1339db62ec9b,2022-06-29_09h04.59.783,Colour_Asymmetry_Pilot,2022.1.3,Win32,59.81934558,62bbe60bf3d75ef465d3e404,0,132,132,118,1,fourtwo,,,,,,,,,,,,,,,,,,,,,,,,,,,,,,,,,,,,,,,,,,,,,,,,,,,,,,,,,,,,,,,,,,,,,,,,,,,,,,,,,,,,,,,,,,,,,,,,,,,,,,,,,,,,,,,,,,,,,,,,,,,,,,,,,,,,,,,,,,,,,,,,,,,,,
,,,,,,612b47fce0d4f1a36ff8a758,62bbf970b31a1339db62ec9b,2022-06-29_09h04.59.783,Colour_Asymmetry_Pilot,2022.1.3,Win32,59.81934558,62bbe60bf3d75ef465d3e404,0,133,133,16,1,onetwo,,,,,,,,,,,,,,,,,,,,,,,,,,,,,,,,,,,,,,,,,,,,,,,,,,,,,,,,,,,,,,,,,,,,,,,,,,,,,,,,,,,,,,,,,,,,,,,,,,,,,,,,,,,,,,,,,,,,,,,,,,,,,,,,,,,,,,,,,,,,,,,,,,,,,
,,,,,,612b47fce0d4f1a36ff8a758,62bbf970b31a1339db62ec9b,2022-06-29_09h04.59.783,Colour_Asymmetry_Pilot,2022.1.3,Win32,59.81934558,62bbe60bf3d75ef465d3e404,0,134,134,107,1,twofour,,,,,,,,,,,,,,,,,,,,,,,,,,,,,,,,,,,,,,,,,,,,,,,,,,,,,,,,,,,,,,,,,,,,,,,,,,,,,,,,,,,,,,,,,,,,,,,,,,,,,,,,,,,,,,,,,,,,,,,,,,,,,,,,,,,,,,,,,,,,,,,,,,,,,
,,,,,,612b47fce0d4f1a36ff8a758,62bbf970b31a1339db62ec9b,2022-06-29_09h04.59.783,Colour_Asymmetry_Pilot,2022.1.3,Win32,59.81934558,62bbe60bf3d75ef465d3e404,0,135,135,153,1,onethree,,,,,,,,,,,,,,,,,,,,,,,,,,,,,,,,,,,,,,,,,,,,,,,,,,,,,,,,,,,,,,,,,,,,,,,,,,,,,,,,,,,,,,,,,,,,,,,,,,,,,,,,,,,,,,,,,,,,,,,,,,,,,,,,,,,,,,,,,,,,,,,,,,,,,
,,,,,,612b47fce0d4f1a36ff8a758,62bbf970b31a1339db62ec9b,2022-06-29_09h04.59.783,Colour_Asymmetry_Pilot,2022.1.3,Win32,59.81934558,62bbe60bf3d75ef465d3e404,0,136,136,46,1,fourtwo,,,,,,,,,,,,,,,,,,,,,,,,,,,,,,,,,,,,,,,,,,,,,,,,,,,,,,,,,,,,,,,,,,,,,,,,,,,,,,,,,,,,,,,,,,,,,,,,,,,,,,,,,,,,,,,,,,,,,,,,,,,,,,,,,,,,,,,,,,,,,,,,,,,,,
,,,,,,612b47fce0d4f1a36ff8a758,62bbf970b31a1339db62ec9b,2022-06-29_09h04.59.783,Colour_Asymmetry_Pilot,2022.1.3,Win32,59.81934558,62bbe60bf3d75ef465d3e404,0,137,137,30,1,fourtwo,,,,,,,,,,,,,,,,,,,,,,,,,,,,,,,,,,,,,,,,,,,,,,,,,,,,,,,,,,,,,,,,,,,,,,,,,,,,,,,,,,,,,,,,,,,,,,,,,,,,,,,,,,,,,,,,,,,,,,,,,,,,,,,,,,,,,,,,,,,,,,,,,,,,,
,,,,,,612b47fce0d4f1a36ff8a758,62bbf970b31a1339db62ec9b,2022-06-29_09h04.59.783,Colour_Asymmetry_Pilot,2022.1.3,Win32,59.81934558,62bbe60bf3d75ef465d3e404,0,138,138,27,1,twofour,,,,,,,,,,,,,,,,,,,,,,,,,,,,,,,,,,,,,,,,,,,,,,,,,,,,,,,,,,,,,,,,,,,,,,,,,,,,,,,,,,,,,,,,,,,,,,,,,,,,,,,,,,,,,,,,,,,,,,,,,,,,,,,,,,,,,,,,,,,,,,,,,,,,,
,,,,,,612b47fce0d4f1a36ff8a758,62bbf970b31a1339db62ec9b,2022-06-29_09h04.59.783,Colour_Asymmetry_Pilot,2022.1.3,Win32,59.81934558,62bbe60bf3d75ef465d3e404,0,139,139,84,1,threeone,,,,,,,,,,,,,,,,,,,,,,,,,,,,,,,,,,,,,,,,,,,,,,,,,,,,,,,,,,,,,,,,,,,,,,,,,,,,,,,,,,,,,,,,,,,,,,,,,,,,,,,,,,,,,,,,,,,,,,,,,,,,,,,,,,,,,,,,,,,,,,,,,,,,,
,,,,,,612b47fce0d4f1a36ff8a758,62bbf970b31a1339db62ec9b,2022-06-29_09h04.59.783,Colour_Asymmetry_Pilot,2022.1.3,Win32,59.81934558,62bbe60bf3d75ef465d3e404,0,140,140,61,1,threefour,,,,,,,,,,,,,,,,,,,,,,,,,,,,,,,,,,,,,,,,,,,,,,,,,,,,,,,,,,,,,,,,,,,,,,,,,,,,,,,,,,,,,,,,,,,,,,,,,,,,,,,,,,,,,,,,,,,,,,,,,,,,,,,,,,,,,,,,,,,,,,,,,,,,,
,,,,,,612b47fce0d4f1a36ff8a758,62bbf970b31a1339db62ec9b,2022-06-29_09h04.59.783,Colour_Asymmetry_Pilot,2022.1.3,Win32,59.81934558,62bbe60bf3d75ef465d3e404,0,141,141,80,1,onetwo,,,,,,,,,,,,,,,,,,,,,,,,,,,,,,,,,,,,,,,,,,,,,,,,,,,,,,,,,,,,,,,,,,,,,,,,,,,,,,,,,,,,,,,,,,,,,,,,,,,,,,,,,,,,,,,,,,,,,,,,,,,,,,,,,,,,,,,,,,,,,,,,,,,,,
,,,,,,612b47fce0d4f1a36ff8a758,62bbf970b31a1339db62ec9b,2022-06-29_09h04.59.783,Colour_Asymmetry_Pilot,2022.1.3,Win32,59.81934558,62bbe60bf3d75ef465d3e404,0,142,142,70,1,fourtwo,,,,,,,,,,,,,,,,,,,,,,,,,,,,,,,,,,,,,,,,,,,,,,,,,,,,,,,,,,,,,,,,,,,,,,,,,,,,,,,,,,,,,,,,,,,,,,,,,,,,,,,,,,,,,,,,,,,,,,,,,,,,,,,,,,,,,,,,,,,,,,,,,,,,,
,,,,,,612b47fce0d4f1a36ff8a758,62bbf970b31a1339db62ec9b,2022-06-29_09h04.59.783,Colour_Asymmetry_Pilot,2022.1.3,Win32,59.81934558,62bbe60bf3d75ef465d3e404,0,143,143,3,1,twofour,,,,,,,,,,,,,,,,,,,,,,,,,,,,,,,,,,,,,,,,,,,,,,,,,,,,,,,,,,,,,,,,,,,,,,,,,,,,,,,,,,,,,,,,,,,,,,,,,,,,,,,,,,,,,,,,,,,,,,,,,,,,,,,,,,,,,,,,,,,,,,,,,,,,,
,,,,,,612b47fce0d4f1a36ff8a758,62bbf970b31a1339db62ec9b,2022-06-29_09h04.59.783,Colour_Asymmetry_Pilot,2022.1.3,Win32,59.81934558,62bbe60bf3d75ef465d3e404,0,144,144,14,1,fourtwo,,,,,,,,,,,,,,,,,,,,,,,,,,,,,,,,,,,,,,,,,,,,,,,,,,,,,,,,,,,,,,,,,,,,,,,,,,,,,,,,,,,,,,,,,,,,,,,,,,,,,,,,,,,,,,,,,,,,,,,,,,,,,,,,,,,,,,,,,,,,,,,,,,,,,
,,,,,,612b47fce0d4f1a36ff8a758,62bbf970b31a1339db62ec9b,2022-06-29_09h04.59.783,Colour_Asymmetry_Pilot,2022.1.3,Win32,59.81934558,62bbe60bf3d75ef465d3e404,0,145,145,129,1,onethree,,,,,,,,,,,,,,,,,,,,,,,,,,,,,,,,,,,,,,,,,,,,,,,,,,,,,,,,,,,,,,,,,,,,,,,,,,,,,,,,,,,,,,,,,,,,,,,,,,,,,,,,,,,,,,,,,,,,,,,,,,,,,,,,,,,,,,,,,,,,,,,,,,,,,
,,,,,,612b47fce0d4f1a36ff8a758,62bbf970b31a1339db62ec9b,2022-06-29_09h04.59.783,Colour_Asymmetry_Pilot,2022.1.3,Win32,59.81934558,62bbe60bf3d75ef465d3e404,0,146,146,145,1,onethree,,,,,,,,,,,,,,,,,,,,,,,,,,,,,,,,,,,,,,,,,,,,,,,,,,,,,,,,,,,,,,,,,,,,,,,,,,,,,,,,,,,,,,,,,,,,,,,,,,,,,,,,,,,,,,,,,,,,,,,,,,,,,,,,,,,,,,,,,,,,,,,,,,,,,
,,,,,,612b47fce0d4f1a36ff8a758,62bbf970b31a1339db62ec9b,2022-06-29_09h04.59.783,Colour_Asymmetry_Pilot,2022.1.3,Win32,59.81934558,62bbe60bf3d75ef465d3e404,0,147,147,110,1,fourtwo,,,,,,,,,,,,,,,,,,,,,,,,,,,,,,,,,,,,,,,,,,,,,,,,,,,,,,,,,,,,,,,,,,,,,,,,,,,,,,,,,,,,,,,,,,,,,,,,,,,,,,,,,,,,,,,,,,,,,,,,,,,,,,,,,,,,,,,,,,,,,,,,,,,,,
,,,,,,612b47fce0d4f1a36ff8a758,62bbf970b31a1339db62ec9b,2022-06-29_09h04.59.783,Colour_Asymmetry_Pilot,2022.1.3,Win32,59.81934558,62bbe60bf3d75ef465d3e404,0,148,148,48,1,onetwo,,,,,,,,,,,,,,,,,,,,,,,,,,,,,,,,,,,,,,,,,,,,,,,,,,,,,,,,,,,,,,,,,,,,,,,,,,,,,,,,,,,,,,,,,,,,,,,,,,,,,,,,,,,,,,,,,,,,,,,,,,,,,,,,,,,,,,,,,,,,,,,,,,,,,
,,,,,,612b47fce0d4f1a36ff8a758,62bbf970b31a1339db62ec9b,2022-06-29_09h04.59.783,Colour_Asymmetry_Pilot,2022.1.3,Win32,59.81934558,62bbe60bf3d75ef465d3e404,0,149,149,67,1,twofour,,,,,,,,,,,,,,,,,,,,,,,,,,,,,,,,,,,,,,,,,,,,,,,,,,,,,,,,,,,,,,,,,,,,,,,,,,,,,,,,,,,,,,,,,,,,,,,,,,,,,,,,,,,,,,,,,,,,,,,,,,,,,,,,,,,,,,,,,,,,,,,,,,,,,
,,,,,,612b47fce0d4f1a36ff8a758,62bbf970b31a1339db62ec9b,2022-06-29_09h04.59.783,Colour_Asymmetry_Pilot,2022.1.3,Win32,59.81934558,62bbe60bf3d75ef465d3e404,0,150,150,133,1,threefour,,,,,,,,,,,,,,,,,,,,,,,,,,,,,,,,,,,,,,,,,,,,,,,,,,,,,,,,,,,,,,,,,,,,,,,,,,,,,,,,,,,,,,,,,,,,,,,,,,,,,,,,,,,,,,,,,,,,,,,,,,,,,,,,,,,,,,,,,,,,,,,,,,,,,
,,,,,,612b47fce0d4f1a36ff8a758,62bbf970b31a1339db62ec9b,2022-06-29_09h04.59.783,Colour_Asymmetry_Pilot,2022.1.3,Win32,59.81934558,62bbe60bf3d75ef465d3e404,0,151,151,86,1,fourtwo,,,,,,,,,,,,,,,,,,,,,,,,,,,,,,,,,,,,,,,,,,,,,,,,,,,,,,,,,,,,,,,,,,,,,,,,,,,,,,,,,,,,,,,,,,,,,,,,,,,,,,,,,,,,,,,,,,,,,,,,,,,,,,,,,,,,,,,,,,,,,,,,,,,,,
,,,,,,612b47fce0d4f1a36ff8a758,62bbf970b31a1339db62ec9b,2022-06-29_09h04.59.783,Colour_Asymmetry_Pilot,2022.1.3,Win32,59.81934558,62bbe60bf3d75ef465d3e404,0,152,152,161,1,onethree,,,,,,,,,,,,,,,,,,,,,,,,,,,,,,,,,,,,,,,,,,,,,,,,,,,,,,,,,,,,,,,,,,,,,,,,,,,,,,,,,,,,,,,,,,,,,,,,,,,,,,,,,,,,,,,,,,,,,,,,,,,,,,,,,,,,,,,,,,,,,,,,,,,,,
,,,,,,612b47fce0d4f1a36ff8a758,62bbf970b31a1339db62ec9b,2022-06-29_09h04.59.783,Colour_Asymmetry_Pilot,2022.1.3,Win32,59.81934558,62bbe60bf3d75ef465d3e404,0,153,153,34,1,twoone,,,,,,,,,,,,,,,,,,,,,,,,,,,,,,,,,,,,,,,,,,,,,,,,,,,,,,,,,,,,,,,,,,,,,,,,,,,,,,,,,,,,,,,,,,,,,,,,,,,,,,,,,,,,,,,,,,,,,,,,,,,,,,,,,,,,,,,,,,,,,,,,,,,,,
,,,,,,612b47fce0d4f1a36ff8a758,62bbf970b31a1339db62ec9b,2022-06-29_09h04.59.783,Colour_Asymmetry_Pilot,2022.1.3,Win32,59.81934558,62bbe60bf3d75ef465d3e404,0,154,154,1,1,onethree,,,,,,,,,,,,,,,,,,,,,,,,,,,,,,,,,,,,,,,,,,,,,,,,,,,,,,,,,,,,,,,,,,,,,,,,,,,,,,,,,,,,,,,,,,,,,,,,,,,,,,,,,,,,,,,,,,,,,,,,,,,,,,,,,,,,,,,,,,,,,,,,,,,,,
,,,,,,612b47fce0d4f1a36ff8a758,62bbf970b31a1339db62ec9b,2022-06-29_09h04.59.783,Colour_Asymmetry_Pilot,2022.1.3,Win32,59.81934558,62bbe60bf3d75ef465d3e404,0,155,155,111,1,fourthree,,,,,,,,,,,,,,,,,,,,,,,,,,,,,,,,,,,,,,,,,,,,,,,,,,,,,,,,,,,,,,,,,,,,,,,,,,,,,,,,,,,,,,,,,,,,,,,,,,,,,,,,,,,,,,,,,,,,,,,,,,,,,,,,,,,,,,,,,,,,,,,,,,,,,
,,,,,,612b47fce0d4f1a36ff8a758,62bbf970b31a1339db62ec9b,2022-06-29_09h04.59.783,Colour_Asymmetry_Pilot,2022.1.3,Win32,59.81934558,62bbe60bf3d75ef465d3e404,0,156,156,149,1,threefour,,,,,,,,,,,,,,,,,,,,,,,,,,,,,,,,,,,,,,,,,,,,,,,,,,,,,,,,,,,,,,,,,,,,,,,,,,,,,,,,,,,,,,,,,,,,,,,,,,,,,,,,,,,,,,,,,,,,,,,,,,,,,,,,,,,,,,,,,,,,,,,,,,,,,
,,,,,,612b47fce0d4f1a36ff8a758,62bbf970b31a1339db62ec9b,2022-06-29_09h04.59.783,Colour_Asymmetry_Pilot,2022.1.3,Win32,59.81934558,62bbe60bf3d75ef465d3e404,0,157,157,9,1,onethree,,,,,,,,,,,,,,,,,,,,,,,,,,,,,,,,,,,,,,,,,,,,,,,,,,,,,,,,,,,,,,,,,,,,,,,,,,,,,,,,,,,,,,,,,,,,,,,,,,,,,,,,,,,,,,,,,,,,,,,,,,,,,,,,,,,,,,,,,,,,,,,,,,,,,
,,,,,,612b47fce0d4f1a36ff8a758,62bbf970b31a1339db62ec9b,2022-06-29_09h04.59.783,Colour_Asymmetry_Pilot,2022.1.3,Win32,59.81934558,62bbe60bf3d75ef465d3e404,0,158,158,75,1,twofour,,,,,,,,,,,,,,,,,,,,,,,,,,,,,,,,,,,,,,,,,,,,,,,,,,,,,,,,,,,,,,,,,,,,,,,,,,,,,,,,,,,,,,,,,,,,,,,,,,,,,,,,,,,,,,,,,,,,,,,,,,,,,,,,,,,,,,,,,,,,,,,,,,,,,
,,,,,,612b47fce0d4f1a36ff8a758,62bbf970b31a1339db62ec9b,2022-06-29_09h04.59.783,Colour_Asymmetry_Pilot,2022.1.3,Win32,59.81934558,62bbe60bf3d75ef465d3e404,0,159,159,130,1,twoone,,,,,,,,,,,,,,,,,,,,,,,,,,,,,,,,,,,,,,,,,,,,,,,,,,,,,,,,,,,,,,,,,,,,,,,,,,,,,,,,,,,,,,,,,,,,,,,,,,,,,,,,,,,,,,,,,,,,,,,,,,,,,,,,,,,,,,,,,,,,,,,,,,,,,
,,,,,,612b47fce0d4f1a36ff8a758,62bbf970b31a1339db62ec9b,2022-06-29_09h04.59.783,Colour_Asymmetry_Pilot,2022.1.3,Win32,59.81934558,62bbe60bf3d75ef465d3e404,0,160,160,98,1,twoone,,,,,,,,,,,,,,,,,,,,,,,,,,,,,,,,,,,,,,,,,,,,,,,,,,,,,,,,,,,,,,,,,,,,,,,,,,,,,,,,,,,,,,,,,,,,,,,,,,,,,,,,,,,,,,,,,,,,,,,,,,,,,,,,,,,,,,,,,,,,,,,,,,,,,
,,,,,,612b47fce0d4f1a36ff8a758,62bbf970b31a1339db62ec9b,2022-06-29_09h04.59.783,Colour_Asymmetry_Pilot,2022.1.3,Win32,59.81934558,62bbe60bf3d75ef465d3e404,0,161,161,33,1,onethree,,,,,,,,,,,,,,,,,,,,,,,,,,,,,,,,,,,,,,,,,,,,,,,,,,,,,,,,,,,,,,,,,,,,,,,,,,,,,,,,,,,,,,,,,,,,,,,,,,,,,,,,,,,,,,,,,,,,,,,,,,,,,,,,,,,,,,,,,,,,,,,,,,,,,
,,,,,,612b47fce0d4f1a36ff8a758,62bbf970b31a1339db62ec9b,2022-06-29_09h04.59.783,Colour_Asymmetry_Pilot,2022.1.3,Win32,59.81934558,62bbe60bf3d75ef465d3e404,,,,,,,space,8.1343,space,52.1504,space,3.7494,space,54.7677,space,2.1606,space,4.4463,"[-0.17659999999999998,-0.2864,-0.8354]",threeone,"[-0.7412000000000001,-0.08239999999999992,-0.6864]",-4,14.0749,-71,94.5,1,0,0,response7disk_5,7,-4.5,1,0,0,rectangle_8,7,-4.5,1,0,0,4,7,-4.5,1,0,0,0,0,0,0,1,,,,,,,,,,,,,,,,,,,,,,,,,,,,,,,,,,,,,,,,,,,,,,,,,,,,,,,,,,,,,,,,,,,,,,,,,,,,,,,,,,,,,,,,,,,,,,,,,,,,,,,,
,,,,,,612b47fce0d4f1a36ff8a758,62bbf970b31a1339db62ec9b,2022-06-29_09h04.59.783,Colour_Asymmetry_Pilot,2022.1.3,Win32,59.81934558,62bbe60bf3d75ef465d3e404,,,,,,,,,,,,,,,,,,,"[0.12939999999999996,-0.2864,0.3253999999999999]",twoone,"[0.0351999999999999,0.41159999999999997,0.0038000000000000256]",-4,3.5641,-50,106.5,1,0,0,response7disk_5,-3,0.5,1,0,0,rectangle_8,-3,0.5,1,0,0,4,-3,0.5,1,0,0,1,0,1,0,1,,,,,,,,,,,,,,,,,,,,,,,,,,,,,,,,,,,,,,,,,,,,,,,,,,,,,,,,,,,,,,,,,,,,,,,,,,,,,,,,,,,,,,,,,,,,,,,,,,,,,,,,
,,,,,,612b47fce0d4f1a36ff8a758,62bbf970b31a1339db62ec9b,2022-06-29_09h04.59.783,Colour_Asymmetry_Pilot,2022.1.3,Win32,59.81934558,62bbe60bf3d75ef465d3e404,,,,,,,,,,,,,,,,,,,"[-0.9138,-0.5296000000000001,-0.5529999999999999]",onethree,"[-0.26280000000000003,-0.4746,-0.2158]",-2,9,-83,-50.5,1,0,0,response5disk_5,-5,-0.5,1,0,0,rectangle_8,-5,-0.5,1,0,0,4,-5,-0.5,1,0,0,2,0,2,0,1,,,,,,,,,,,,,,,,,,,,,,,,,,,,,,,,,,,,,,,,,,,,,,,,,,,,,,,,,,,,,,,,,,,,,,,,,,,,,,,,,,,,,,,,,,,,,,,,,,,,,,,,
,,,,,,612b47fce0d4f1a36ff8a758,62bbf970b31a1339db62ec9b,2022-06-29_09h04.59.783,Colour_Asymmetry_Pilot,2022.1.3,Win32,59.81934558,62bbe60bf3d75ef465d3e404,,,,,,,,,,,,,,,,,,,"[0.9213999999999998,0.6391999999999998,-0.9922]",twofour,"[0.9686000000000001,0.3802000000000001,0.19999999999999996]",2,3.5176,94,-37.5,1,0,0,response3disk_5,2,-6.5,1,0,0,rectangle_8,2,-6.5,1,0,0,4,2,-6.5,1,0,0,3,0,3,0,1,,,,,,,,,,,,,,,,,,,,,,,,,,,,,,,,,,,,,,,,,,,,,,,,,,,,,,,,,,,,,,,,,,,,,,,,,,,,,,,,,,,,,,,,,,,,,,,,,,,,,,,,
,,,,,,612b47fce0d4f1a36ff8a758,62bbf970b31a1339db62ec9b,2022-06-29_09h04.59.783,Colour_Asymmetry_Pilot,2022.1.3,Win32,59.81934558,62bbe60bf3d75ef465d3e404,,,,,,,,,,,,,,,,,,,"[0.37240000000000006,-0.050999999999999934,-0.5216]",threefour,"[0.37240000000000006,-0.050999999999999934,-0.5216]",4,2.5666,54,109.5,1,0,0,response1disk_5,25,2.5,1,0,0,rectangle_8,25,2.5,1,0,0,4,25,2.5,1,0,0,4,0,4,0,1,,,,,,,,,,,,,,,,,,,,,,,,,,,,,,,,,,,,,,,,,,,,,,,,,,,,,,,,,,,,,,,,,,,,,,,,,,,,,,,,,,,,,,,,,,,,,,,,,,,,,,,,
,,,,,,612b47fce0d4f1a36ff8a758,62bbf970b31a1339db62ec9b,2022-06-29_09h04.59.783,Colour_Asymmetry_Pilot,2022.1.3,Win32,59.81934558,62bbe60bf3d75ef465d3e404,,,,,,,,,,,,,,,,,,,"[-0.09019999999999995,0.44300000000000006,0.5371999999999999]",twofour,"[-0.6,0.16860000000000008,0.44300000000000006]",2,3.9497,120,-40.5,1,0,0,response3disk_5,19,-6.5,1,0,0,rectangle_8,19,-6.5,1,0,0,4,19,-6.5,1,0,0,5,0,5,0,1,,,,,,,,,,,,,,,,,,,,,,,,,,,,,,,,,,,,,,,,,,,,,,,,,,,,,,,,,,,,,,,,,,,,,,,,,,,,,,,,,,,,,,,,,,,,,,,,,,,,,,,,
,,,,,,612b47fce0d4f1a36ff8a758,62bbf970b31a1339db62ec9b,2022-06-29_09h04.59.783,Colour_Asymmetry_Pilot,2022.1.3,Win32,59.81934558,62bbe60bf3d75ef465d3e404,,,,,,,,,,,,,,,,,,,"[0.23120000000000007,-0.7726,-0.34120000000000006]",onetwo,"[0.09799999999999986,-0.24719999999999998,0.15280000000000005]",1,2.75,64,-136.5,1,0,0,response3disk_5,11,3.5,1,0,0,rectangle_8,11,3.5,1,0,0,4,11,3.5,1,0,0,6,0,6,0,1,,,,,,,,,,,,,,,,,,,,,,,,,,,,,,,,,,,,,,,,,,,,,,,,,,,,,,,,,,,,,,,,,,,,,,,,,,,,,,,,,,,,,,,,,,,,,,,,,,,,,,,,
,,,,,,612b47fce0d4f1a36ff8a758,62bbf970b31a1339db62ec9b,2022-06-29_09h04.59.783,Colour_Asymmetry_Pilot,2022.1.3,Win32,59.81934558,62bbe60bf3d75ef465d3e404,,,,,,,,,,,,,,,,,,,,threeone,,-1,1.7167,,,,,,,,,,,,,,,,,,,,,,,,,,,,,space,5.4487,"[-0.17659999999999998,-0.2864,-0.8354]","[0.9372,0.9450000000000001,0.8980000000000001]",-44,-123.5,1,0,0,response5disk,-6,2.5,1,0,0,rectangle,-6,2.5,1,0,0,,1,0.0012,0,-6,2.5,1,0,0,0,0,0,79,1,79,first,,,,,,,,,,,,,,,,,,,,,,,,,,,,,,,,,,,,,,,,,,,,,,,,,,,,,,,,,,,,,,,,,,,
,,,,,,612b47fce0d4f1a36ff8a758,62bbf970b31a1339db62ec9b,2022-06-29_09h04.59.783,Colour_Asymmetry_Pilot,2022.1.3,Win32,59.81934558,62bbe60bf3d75ef465d3e404,,,,,,,,,,,,,,,,,,,,fourthree,,3,4.6662,,,,,,,,,,,,,,,,,,,,,,,,,,,,,,,"[0.2784,-0.31000000000000005,-0.5452]","[0.7176,-0.906,-0.6864]",97,35.5,1,0,0,response1disk,16,6.5,1,0,0,rectangle,16,6.5,1,0,0,,3,0.0008,0,16,6.5,1,0,0,0,1,1,144,1,63,second,,,,,,,,,,,,,,,,,,,,,,,,,,,,,,,,,,,,,,,,,,,,,,,,,,,,,,,,,,,,,,,,,,,
,,,,,,612b47fce0d4f1a36ff8a758,62bbf970b31a1339db62ec9b,2022-06-29_09h04.59.783,Colour_Asymmetry_Pilot,2022.1.3,Win32,59.81934558,62bbe60bf3d75ef465d3e404,,,,,,,,,,,,,,,,,,,,threefour,,-3,3.2841,,,,,,,,,,,,,,,,,,,,,,,,,,,,,,,"[0.9372,0.9450000000000001,0.8980000000000001]","[-0.17659999999999998,-0.2864,-0.8354]",-116,44.5,1,0,0,response7disk,2,-7.5,1,0,0,rectangle,38,-117.5,1,0,0,1,1,11.1648,1,11,-7.5,1,0,0,0,2,2,160,1,79,second,response3disk_3,rectangle,,,,,,,,,,,,,,,,,,,,,,,,,,,,,,,,,,,,,,,,,,,,,,,,,,,,,,,,,,,,,,,,,
,,,,,,612b47fce0d4f1a36ff8a758,62bbf970b31a1339db62ec9b,2022-06-29_09h04.59.783,Colour_Asymmetry_Pilot,2022.1.3,Win32,59.81934558,62bbe60bf3d75ef465d3e404,,,,,,,,,,,,,,,,,,,,fourthree,,-4,2.5459,,,,,,,,,,,,,,,,,,,,,,,,,,,,,,,"[-0.4902000000000001,0.2704,-0.45899999999999996]","[1,0.12939999999999996,-1]",-51,70.5,1,0,0,response7disk,-19,-3.5,1,0,0,rectangle,-19,-3.5,1,0,0,1,2,0.0007,0,-19,-3.5,1,0,0,0,3,3,73,1,73,first,,,,,,,,,,,,,,,,,,,,,,,,,,,,,,,,,,,,,,,,,,,,,,,,,,,,,,,,,,,,,,,,,,,
,,,,,,612b47fce0d4f1a36ff8a758,62bbf970b31a1339db62ec9b,2022-06-29_09h04.59.783,Colour_Asymmetry_Pilot,2022.1.3,Win32,59.81934558,62bbe60bf3d75ef465d3e404,,,,,,,,,,,,,,,,,,,,threefour,,3,1.7126,,,,,,,,,,,,,,,,,,,,,,,,,,,,,,,"[-0.24719999999999998,-0.0354000000000001,0.3175999999999999]","[-0.5452,-0.608,0.2470000000000001]",81,36.5,1,0,0,response1disk,4,-5.5,1,0,0,rectangle,4,-5.5,1,0,0,1,1,0.0014,0,4,-5.5,1,0,0,0,4,4,101,1,20,second,,,,,,,,,,,,,,,,,,,,,,,,,,,,,,,,,,,,,,,,,,,,,,,,,,,,,,,,,,,,,,,,,,,
,,,,,,612b47fce0d4f1a36ff8a758,62bbf970b31a1339db62ec9b,2022-06-29_09h04.59.783,Colour_Asymmetry_Pilot,2022.1.3,Win32,59.81934558,62bbe60bf3d75ef465d3e404,,,,,,,,,,,,,,,,,,,,onethree,,3,0.6487,,,,,,,,,,,,,,,,,,,,,,,,,,,,,,,"[-0.5452,-0.608,0.2470000000000001]","[-0.24719999999999998,-0.0354000000000001,0.3175999999999999]",97,40.5,1,0,0,response1disk,35,-3.5,1,0,0,rectangle,35,-3.5,1,0,0,1,3,0.001,0,35,-3.5,1,0,0,0,5,5,20,1,20,first,,,,,,,,,,,,,,,,,,,,,,,,,,,,,,,,,,,,,,,,,,,,,,,,,,,,,,,,,,,,,,,,,,,
,,,,,,612b47fce0d4f1a36ff8a758,62bbf970b31a1339db62ec9b,2022-06-29_09h04.59.783,Colour_Asymmetry_Pilot,2022.1.3,Win32,59.81934558,62bbe60bf3d75ef465d3e404,,,,,,,,,,,,,,,,,,,,twoone,,-3,4.0004,,,,,,,,,,,,,,,,,,,,,,,,,,,,,,,"[-0.9844,-0.9688,-0.9922]","[-0.38039999999999996,-0.4276,-0.1452]",-80,55.5,1,0,0,response7disk,17,-3.5,1,0,0,rectangle,91,-129.5,1,0,0,1,1,2.999,1,12,-0.5,1,0,0,0,6,6,161,1,80,second,response3disk_3,rectangle,,,,,,,,,,,,,,,,,,,,,,,,,,,,,,,,,,,,,,,,,,,,,,,,,,,,,,,,,,,,,,,,,
,,,,,,612b47fce0d4f1a36ff8a758,62bbf970b31a1339db62ec9b,2022-06-29_09h04.59.783,Colour_Asymmetry_Pilot,2022.1.3,Win32,59.81934558,62bbe60bf3d75ef465d3e404,,,,,,,,,,,,,,,,,,,,onethree,,-4,2.1348,,,,,,,,,,,,,,,,,,,,,,,,,,,,,,,"[0.9686000000000001,0.5763999999999998,0.11359999999999992]","[-0.20799999999999996,-0.655,-0.01980000000000004]",-77,96.5,1,0,0,response7disk,-14,-3.5,1,0,0,rectangle,-14,-3.5,1,0,0,1,1,0.0002,0,-14,-3.5,1,0,0,0,7,7,35,1,35,first,,,,,,,,,,,,,,,,,,,,,,,,,,,,,,,,,,,,,,,,,,,,,,,,,,,,,,,,,,,,,,,,,,,
,,,,,,612b47fce0d4f1a36ff8a758,62bbf970b31a1339db62ec9b,2022-06-29_09h04.59.783,Colour_Asymmetry_Pilot,2022.1.3,Win32,59.81934558,62bbe60bf3d75ef465d3e404,,,,,,,,,,,,,,,,,,,,threefour,,-4,1.1173,,,,,,,,,,,,,,,,,,,,,,,,,,,,,,,"[-0.0040000000000000036,0.02739999999999987,-0.08239999999999992]","[-0.5922000000000001,-0.7492000000000001,-0.5296000000000001]",-40,83.5,1,0,0,response7disk,-3,-9.5,1,0,0,rectangle,-3,-9.5,1,0,0,1,1,0.0002,0,-3,-9.5,1,0,0,0,8,8,120,1,39,second,,,,,,,,,,,,,,,,,,,,,,,,,,,,,,,,,,,,,,,,,,,,,,,,,,,,,,,,,,,,,,,,,,,
,,,,,,612b47fce0d4f1a36ff8a758,62bbf970b31a1339db62ec9b,2022-06-29_09h04.59.783,Colour_Asymmetry_Pilot,2022.1.3,Win32,59.81934558,62bbe60bf3d75ef465d3e404,,,,,,,,,,,,,,,,,,,,twoone,,4,2.55,,,,,,,,,,,,,,,,,,,,,,,,,,,,,,,"[-0.9688,-0.4902000000000001,-0.12159999999999993]","[-0.9216,-0.5529999999999999,-0.3962]",48,116.5,1,0,0,response1disk,5,9.5,1,0,0,rectangle,5,9.5,1,0,0,1,1,0.0003,0,5,9.5,1,0,0,0,9,9,37,1,37,first,,,,,,,,,,,,,,,,,,,,,,,,,,,,,,,,,,,,,,,,,,,,,,,,,,,,,,,,,,,,,,,,,,,
,,,,,,612b47fce0d4f1a36ff8a758,62bbf970b31a1339db62ec9b,2022-06-29_09h04.59.783,Colour_Asymmetry_Pilot,2022.1.3,Win32,59.81934558,62bbe60bf3d75ef465d3e404,,,,,,,,,,,,,,,,,,,,fourthree,,-2,3.9164,,,,,,,,,,,,,,,,,,,,,,,,,,,,,,,"[-0.20799999999999996,-0.655,-0.01980000000000004]","[0.9686000000000001,0.5763999999999998,0.11359999999999992]",-72,-32.5,1,0,0,response5disk,-20,2.5,1,0,0,rectangle,-20,2.5,1,0,0,1,1,0.0003,0,-20,2.5,1,0,0,0,10,10,116,1,35,second,,,,,,,,,,,,,,,,,,,,,,,,,,,,,,,,,,,,,,,,,,,,,,,,,,,,,,,,,,,,,,,,,,,
,,,,,,612b47fce0d4f1a36ff8a758,62bbf970b31a1339db62ec9b,2022-06-29_09h04.59.783,Colour_Asymmetry_Pilot,2022.1.3,Win32,59.81934558,62bbe60bf3d75ef465d3e404,,,,,,,,,,,,,,,,,,,,twofour,,-4,2.7504,,,,,,,,,,,,,,,,,,,,,,,,,,,,,,,"[0.9763999999999999,0.8588,-0.05900000000000005]","[-0.8982,-0.37259999999999993,0.2784]",-54,88.5,1,0,0,response7disk,-22,-2.5,1,0,0,rectangle,108,-49.5,1,0,0,2,2,2.4845,1,7,-0.5,1,0,0,0,11,11,36,1,36,first,response3disk_3,rectangle,,,,,,,,,,,,,,,,,,,,,,,,,,,,,,,,,,,,,,,,,,,,,,,,,,,,,,,,,,,,,,,,,
,,,,,,612b47fce0d4f1a36ff8a758,62bbf970b31a1339db62ec9b,2022-06-29_09h04.59.783,Colour_Asymmetry_Pilot,2022.1.3,Win32,59.81934558,62bbe60bf3d75ef465d3e404,,,,,,,,,,,,,,,,,,,,twofour,,-3,3.7499,,,,,,,,,,,,,,,,,,,,,,,,,,,,,,,"[-0.9688,-0.7412000000000001,-0.4902000000000001]","[0.18419999999999992,-0.4276,-0.404]",-83,32.5,1,0,0,response7disk,-6,-4.5,1,0,0,rectangle,-6,-4.5,1,0,0,2,2,0.0003,0,-6,-4.5,1,0,0,0,12,12,81,1,0,second,,,,,,,,,,,,,,,,,,,,,,,,,,,,,,,,,,,,,,,,,,,,,,,,,,,,,,,,,,,,,,,,,,,
,,,,,,612b47fce0d4f1a36ff8a758,62bbf970b31a1339db62ec9b,2022-06-29_09h04.59.783,Colour_Asymmetry_Pilot,2022.1.3,Win32,59.81934558,62bbe60bf3d75ef465d3e404,,,,,,,,,,,,,,,,,,,,fourtwo,,-4,2.4835,,,,,,,,,,,,,,,,,,,,,,,,,,,,,,,"[0.6625999999999999,0.4980000000000002,-0.357]","[0.9372,0.9450000000000001,0.8980000000000001]",-50,81.5,1,0,0,response7disk,7,11.5,1,0,0,rectangle,7,11.5,1,0,0,2,2,0.0002,0,7,11.5,1,0,0,0,13,13,95,1,14,second,,,,,,,,,,,,,,,,,,,,,,,,,,,,,,,,,,,,,,,,,,,,,,,,,,,,,,,,,,,,,,,,,,,
,,,,,,612b47fce0d4f1a36ff8a758,62bbf970b31a1339db62ec9b,2022-06-29_09h04.59.783,Colour_Asymmetry_Pilot,2022.1.3,Win32,59.81934558,62bbe60bf3d75ef465d3e404,,,,,,,,,,,,,,,,,,,,twofour,,-4,2.5844,,,,,,,,,,,,,,,,,,,,,,,,,,,,,,,"[0.9763999999999999,0.30979999999999985,-0.6786]","[-0.24719999999999998,-0.0354000000000001,0.3175999999999999]",-62,85.5,1,0,0,response7disk,-6,-7.5,1,0,0,rectangle,-6,-7.5,1,0,0,2,1,0.0014,0,-6,-7.5,1,0,0,0,14,14,122,1,41,second,,,,,,,,,,,,,,,,,,,,,,,,,,,,,,,,,,,,,,,,,,,,,,,,,,,,,,,,,,,,,,,,,,,
,,,,,,612b47fce0d4f1a36ff8a758,62bbf970b31a1339db62ec9b,2022-06-29_09h04.59.783,Colour_Asymmetry_Pilot,2022.1.3,Win32,59.81934558,62bbe60bf3d75ef465d3e404,,,,,,,,,,,,,,,,,,,,twoone,,-3,1.0838,,,,,,,,,,,,,,,,,,,,,,,,,,,,,,,"[1,0.12939999999999996,-1]","[-0.011800000000000033,-0.906,-0.45100000000000007]",-95,35.5,1,0,0,response7disk,-15,-2.5,1,0,0,rectangle,-15,-2.5,1,0,0,2,1,0.0002,0,-15,-2.5,1,0,0,0,15,15,130,1,49,second,,,,,,,,,,,,,,,,,,,,,,,,,,,,,,,,,,,,,,,,,,,,,,,,,,,,,,,,,,,,,,,,,,,
,,,,,,612b47fce0d4f1a36ff8a758,62bbf970b31a1339db62ec9b,2022-06-29_09h04.59.783,Colour_Asymmetry_Pilot,2022.1.3,Win32,59.81934558,62bbe60bf3d75ef465d3e404,,,,,,,,,,,,,,,,,,,,twofour,,2,1.9912,,,,,,,,,,,,,,,,,,,,,,,,,,,,,,,"[0.4196,0.4665999999999999,0.3568]","[0.9686000000000001,0.5763999999999998,0.11359999999999992]",134,-32.5,1,0,0,response3disk,23,-3.5,1,0,0,rectangle,23,-3.5,1,0,0,2,3,0.0015,0,23,-3.5,1,0,0,0,16,16,158,1,77,second,,,,,,,,,,,,,,,,,,,,,,,,,,,,,,,,,,,,,,,,,,,,,,,,,,,,,,,,,,,,,,,,,,,
,,,,,,612b47fce0d4f1a36ff8a758,62bbf970b31a1339db62ec9b,2022-06-29_09h04.59.783,Colour_Asymmetry_Pilot,2022.1.3,Win32,59.81934558,62bbe60bf3d75ef465d3e404,,,,,,,,,,,,,,,,,,,,onetwo,,3,0.954,,,,,,,,,,,,,,,,,,,,,,,,,,,,,,,"[0.9763999999999999,0.8588,-0.05900000000000005]","[0.3802000000000001,0.19199999999999995,-0.6394]",134,43.5,1,0,0,response1disk,9,1.5,1,0,0,rectangle,9,1.5,1,0,0,2,1,0.0015,0,9,1.5,1,0,0,0,17,17,126,1,45,second,,,,,,,,,,,,,,,,,,,,,,,,,,,,,,,,,,,,,,,,,,,,,,,,,,,,,,,,,,,,,,,,,,,
,,,,,,612b47fce0d4f1a36ff8a758,62bbf970b31a1339db62ec9b,2022-06-29_09h04.59.783,Colour_Asymmetry_Pilot,2022.1.3,Win32,59.81934558,62bbe60bf3d75ef465d3e404,,,,,,,,,,,,,,,,,,,,twoone,,-3,0.8238,,,,,,,,,,,,,,,,,,,,,,,,,,,,,,,"[0.9372,0.9450000000000001,0.8980000000000001]","[0.30180000000000007,-0.7884,-0.9844]",-106,48.5,1,0,0,response7disk,5,3.5,1,0,0,rectangle,5,3.5,1,0,0,2,3,0.0013,0,5,3.5,1,0,0,0,18,18,119,1,38,second,,,,,,,,,,,,,,,,,,,,,,,,,,,,,,,,,,,,,,,,,,,,,,,,,,,,,,,,,,,,,,,,,,,
,,,,,,612b47fce0d4f1a36ff8a758,62bbf970b31a1339db62ec9b,2022-06-29_09h04.59.783,Colour_Asymmetry_Pilot,2022.1.3,Win32,59.81934558,62bbe60bf3d75ef465d3e404,,,,,,,,,,,,,,,,,,,,onethree,,2,1.517,,,,,,,,,,,,,,,,,,,,,,,,,,,,,,,"[0.7646000000000002,0.07440000000000002,0.2704]","[0.09799999999999986,-0.24719999999999998,0.15280000000000005]",127,-56.5,1,0,0,response3disk,-7,-8.5,1,0,0,rectangle,-7,-8.5,1,0,0,2,1,0.0013,0,-7,-8.5,1,0,0,0,19,19,142,1,61,second,,,,,,,,,,,,,,,,,,,,,,,,,,,,,,,,,,,,,,,,,,,,,,,,,,,,,,,,,,,,,,,,,,,
,,,,,,612b47fce0d4f1a36ff8a758,62bbf970b31a1339db62ec9b,2022-06-29_09h04.59.783,Colour_Asymmetry_Pilot,2022.1.3,Win32,59.81934558,62bbe60bf3d75ef465d3e404,,,,,,,,,,,,,,,,,,,,fourtwo,,1,1.3664,,,,,,,,,,,,,,,,,,,,,,,,,,,,,,,"[-0.050999999999999934,-0.6706000000000001,-0.804]","[-0.4668,-0.8746,-0.2942]",67,-130.5,1,0,0,response3disk,23,2.5,1,0,0,rectangle,23,2.5,1,0,0,2,3,0.0012,0,23,2.5,1,0,0,0,20,20,124,1,43,second,,,,,,,,,,,,,,,,,,,,,,,,,,,,,,,,,,,,,,,,,,,,,,,,,,,,,,,,,,,,,,,,,,,
,,,,,,612b47fce0d4f1a36ff8a758,62bbf970b31a1339db62ec9b,2022-06-29_09h04.59.783,Colour_Asymmetry_Pilot,2022.1.3,Win32,59.81934558,62bbe60bf3d75ef465d3e404,,,,,,,,,,,,,,,,,,,,twoone,,-1,2.702,,,,,,,,,,,,,,,,,,,,,,,,,,,,,,,"[-0.9844,-0.9688,-0.9922]","[0.19199999999999995,0.18419999999999992,0.5136000000000001]",-45,-109.5,1,0,0,response5disk,-20,-0.5,1,0,0,rectangle,-20,-0.5,1,0,0,2,1,0.0012,0,-20,-0.5,1,0,0,0,21,21,150,1,69,second,,,,,,,,,,,,,,,,,,,,,,,,,,,,,,,,,,,,,,,,,,,,,,,,,,,,,,,,,,,,,,,,,,,
