trials.thisRepN,trials.thisTrialN,trials.thisN,trials.thisIndex,trials.ran,Colourcodes,participant,session,date,expName,psychopyVersion,OS,frameRate,study_id,trials_4.thisRepN,trials_4.thisTrialN,trials_4.thisN,trials_4.thisIndex,trials_4.ran,StimulusPos,key_resp.keys,key_resp.rt,key_resp_2.keys,key_resp_2.rt,key_resp_15.keys,key_resp_15.rt,key_resp_17.keys,key_resp_17.rt,key_resp_9.keys,key_resp_9.rt,key_resp_10.keys,key_resp_10.rt,Circle1_col,Ecc,Circle2_col,similarity,response_time,mouse_5.x,mouse_5.y,mouse_5.leftButton,mouse_5.midButton,mouse_5.rightButton,mouse_5.clicked_name,mouse_10.x,mouse_10.y,mouse_10.leftButton,mouse_10.midButton,mouse_10.rightButton,mouse_10.clicked_name,mouse_7.x,mouse_7.y,mouse_7.leftButton,mouse_7.midButton,mouse_7.rightButton,catchnumberprac,mouse_6.x,mouse_6.y,mouse_6.leftButton,mouse_6.midButton,mouse_6.rightButton,duringprac.thisRepN,duringprac.thisTrialN,duringprac.thisN,duringprac.thisIndex,duringprac.ran,mouse_7.clicked_name,catchprac,mouse_6.clicked_name,key_resp_22.keys,key_resp_22.rt,Circle1_colour,Circle2_colour,mouse.x,mouse.y,mouse.leftButton,mouse.midButton,mouse.rightButton,mouse.clicked_name,mouse_2.x,mouse_2.y,mouse_2.leftButton,mouse_2.midButton,mouse_2.rightButton,mouse_2.clicked_name,mouse_3.x,mouse_3.y,mouse_3.leftButton,mouse_3.midButton,mouse_3.rightButton,catchresponse,catchnumber,response_time_catch,Catch,mouse_11.x,mouse_11.y,mouse_11.leftButton,mouse_11.midButton,mouse_11.rightButton,trials_2.thisRepN,trials_2.thisTrialN,trials_2.thisN,trials_2.thisIndex,trials_2.ran,Colourpair,Temporder,mouse_3.clicked_name,mouse_11.clicked_name,trials_3.thisRepN,trials_3.thisTrialN,trials_3.thisN,trials_3.thisIndex,trials_3.ran,key_resp_instr_Ishi.keys,key_resp_instr_Ishi.rt,Ishi_trial_keyresp.keys,Ishi_trial_keyresp.rt,Ishi_textbox.text,Ishi_loop.thisRepN,Ishi_loop.thisTrialN,Ishi_loop.thisN,Ishi_loop.thisIndex,Ishi_loop.ran,imageaddress,textbox.text,mouse_4.x,mouse_4.y,mouse_4.leftButton,mouse_4.midButton,mouse_4.rightButton,mouse_4.clicked_name,textbox_2.text,mouse_8.x,mouse_8.y,mouse_8.leftButton,mouse_8.midButton,mouse_8.rightButton,mouse_8.clicked_name,textbox_3.text,mouse_9.x,mouse_9.y,mouse_9.leftButton,mouse_9.midButton,mouse_9.rightButton,mouse_9.clicked_name,textbox_4.text,mouse_12.x,mouse_12.y,mouse_12.leftButton,mouse_12.midButton,mouse_12.rightButton,mouse_12.clicked_name,textbox_5.text,mouse_13.x,mouse_13.y,mouse_13.leftButton,mouse_13.midButton,mouse_13.rightButton,mouse_13.clicked_name,textbox_6.text,mouse_14.x,mouse_14.y,mouse_14.leftButton,mouse_14.midButton,mouse_14.rightButton,mouse_14.clicked_name,textbox_7.text,mouse_15.x,mouse_15.y,mouse_15.leftButton,mouse_15.midButton,mouse_15.rightButton,mouse_15.clicked_name
0,0,0,43,1,,5d45afeb62ed9000197adbb8,62bbf94ea39084a135abfcd3,2022-06-29_09h05.15.087,Colour_Asymmetry_Pilot,2022.1.3,Win32,59.70149254,62bbe60bf3d75ef465d3e404,,,,,,,,,,,,,,,,,,,,,,,,,,,,,,,,,,,,,,,,,,,,,,,,,,,,,,,,,,,,,,,,,,,,,,,,,,,,,,,,,,,,,,,,,,,,,,,,,,,,,,,,,,,,,,,,,,,,,,,,,,,,,,,,,,,,,,,,,,,,,,,,,,,,,,,,,,,,,,
0,1,1,52,1,,5d45afeb62ed9000197adbb8,62bbf94ea39084a135abfcd3,2022-06-29_09h05.15.087,Colour_Asymmetry_Pilot,2022.1.3,Win32,59.70149254,62bbe60bf3d75ef465d3e404,,,,,,,,,,,,,,,,,,,,,,,,,,,,,,,,,,,,,,,,,,,,,,,,,,,,,,,,,,,,,,,,,,,,,,,,,,,,,,,,,,,,,,,,,,,,,,,,,,,,,,,,,,,,,,,,,,,,,,,,,,,,,,,,,,,,,,,,,,,,,,,,,,,,,,,,,,,,,,
0,2,2,29,1,,5d45afeb62ed9000197adbb8,62bbf94ea39084a135abfcd3,2022-06-29_09h05.15.087,Colour_Asymmetry_Pilot,2022.1.3,Win32,59.70149254,62bbe60bf3d75ef465d3e404,,,,,,,,,,,,,,,,,,,,,,,,,,,,,,,,,,,,,,,,,,,,,,,,,,,,,,,,,,,,,,,,,,,,,,,,,,,,,,,,,,,,,,,,,,,,,,,,,,,,,,,,,,,,,,,,,,,,,,,,,,,,,,,,,,,,,,,,,,,,,,,,,,,,,,,,,,,,,,
0,3,3,17,1,,5d45afeb62ed9000197adbb8,62bbf94ea39084a135abfcd3,2022-06-29_09h05.15.087,Colour_Asymmetry_Pilot,2022.1.3,Win32,59.70149254,62bbe60bf3d75ef465d3e404,,,,,,,,,,,,,,,,,,,,,,,,,,,,,,,,,,,,,,,,,,,,,,,,,,,,,,,,,,,,,,,,,,,,,,,,,,,,,,,,,,,,,,,,,,,,,,,,,,,,,,,,,,,,,,,,,,,,,,,,,,,,,,,,,,,,,,,,,,,,,,,,,,,,,,,,,,,,,,
0,4,4,45,1,,5d45afeb62ed9000197adbb8,62bbf94ea39084a135abfcd3,2022-06-29_09h05.15.087,Colour_Asymmetry_Pilot,2022.1.3,Win32,59.70149254,62bbe60bf3d75ef465d3e404,,,,,,,,,,,,,,,,,,,,,,,,,,,,,,,,,,,,,,,,,,,,,,,,,,,,,,,,,,,,,,,,,,,,,,,,,,,,,,,,,,,,,,,,,,,,,,,,,,,,,,,,,,,,,,,,,,,,,,,,,,,,,,,,,,,,,,,,,,,,,,,,,,,,,,,,,,,,,,
0,5,5,68,1,,5d45afeb62ed9000197adbb8,62bbf94ea39084a135abfcd3,2022-06-29_09h05.15.087,Colour_Asymmetry_Pilot,2022.1.3,Win32,59.70149254,62bbe60bf3d75ef465d3e404,,,,,,,,,,,,,,,,,,,,,,,,,,,,,,,,,,,,,,,,,,,,,,,,,,,,,,,,,,,,,,,,,,,,,,,,,,,,,,,,,,,,,,,,,,,,,,,,,,,,,,,,,,,,,,,,,,,,,,,,,,,,,,,,,,,,,,,,,,,,,,,,,,,,,,,,,,,,,,
0,6,6,72,1,,5d45afeb62ed9000197adbb8,62bbf94ea39084a135abfcd3,2022-06-29_09h05.15.087,Colour_Asymmetry_Pilot,2022.1.3,Win32,59.70149254,62bbe60bf3d75ef465d3e404,,,,,,,,,,,,,,,,,,,,,,,,,,,,,,,,,,,,,,,,,,,,,,,,,,,,,,,,,,,,,,,,,,,,,,,,,,,,,,,,,,,,,,,,,,,,,,,,,,,,,,,,,,,,,,,,,,,,,,,,,,,,,,,,,,,,,,,,,,,,,,,,,,,,,,,,,,,,,,
0,7,7,21,1,,5d45afeb62ed9000197adbb8,62bbf94ea39084a135abfcd3,2022-06-29_09h05.15.087,Colour_Asymmetry_Pilot,2022.1.3,Win32,59.70149254,62bbe60bf3d75ef465d3e404,,,,,,,,,,,,,,,,,,,,,,,,,,,,,,,,,,,,,,,,,,,,,,,,,,,,,,,,,,,,,,,,,,,,,,,,,,,,,,,,,,,,,,,,,,,,,,,,,,,,,,,,,,,,,,,,,,,,,,,,,,,,,,,,,,,,,,,,,,,,,,,,,,,,,,,,,,,,,,
0,8,8,78,1,,5d45afeb62ed9000197adbb8,62bbf94ea39084a135abfcd3,2022-06-29_09h05.15.087,Colour_Asymmetry_Pilot,2022.1.3,Win32,59.70149254,62bbe60bf3d75ef465d3e404,,,,,,,,,,,,,,,,,,,,,,,,,,,,,,,,,,,,,,,,,,,,,,,,,,,,,,,,,,,,,,,,,,,,,,,,,,,,,,,,,,,,,,,,,,,,,,,,,,,,,,,,,,,,,,,,,,,,,,,,,,,,,,,,,,,,,,,,,,,,,,,,,,,,,,,,,,,,,,
0,9,9,16,1,,5d45afeb62ed9000197adbb8,62bbf94ea39084a135abfcd3,2022-06-29_09h05.15.087,Colour_Asymmetry_Pilot,2022.1.3,Win32,59.70149254,62bbe60bf3d75ef465d3e404,,,,,,,,,,,,,,,,,,,,,,,,,,,,,,,,,,,,,,,,,,,,,,,,,,,,,,,,,,,,,,,,,,,,,,,,,,,,,,,,,,,,,,,,,,,,,,,,,,,,,,,,,,,,,,,,,,,,,,,,,,,,,,,,,,,,,,,,,,,,,,,,,,,,,,,,,,,,,,
0,10,10,49,1,,5d45afeb62ed9000197adbb8,62bbf94ea39084a135abfcd3,2022-06-29_09h05.15.087,Colour_Asymmetry_Pilot,2022.1.3,Win32,59.70149254,62bbe60bf3d75ef465d3e404,,,,,,,,,,,,,,,,,,,,,,,,,,,,,,,,,,,,,,,,,,,,,,,,,,,,,,,,,,,,,,,,,,,,,,,,,,,,,,,,,,,,,,,,,,,,,,,,,,,,,,,,,,,,,,,,,,,,,,,,,,,,,,,,,,,,,,,,,,,,,,,,,,,,,,,,,,,,,,
0,11,11,66,1,,5d45afeb62ed9000197adbb8,62bbf94ea39084a135abfcd3,2022-06-29_09h05.15.087,Colour_Asymmetry_Pilot,2022.1.3,Win32,59.70149254,62bbe60bf3d75ef465d3e404,,,,,,,,,,,,,,,,,,,,,,,,,,,,,,,,,,,,,,,,,,,,,,,,,,,,,,,,,,,,,,,,,,,,,,,,,,,,,,,,,,,,,,,,,,,,,,,,,,,,,,,,,,,,,,,,,,,,,,,,,,,,,,,,,,,,,,,,,,,,,,,,,,,,,,,,,,,,,,
0,12,12,88,1,,5d45afeb62ed9000197adbb8,62bbf94ea39084a135abfcd3,2022-06-29_09h05.15.087,Colour_Asymmetry_Pilot,2022.1.3,Win32,59.70149254,62bbe60bf3d75ef465d3e404,,,,,,,,,,,,,,,,,,,,,,,,,,,,,,,,,,,,,,,,,,,,,,,,,,,,,,,,,,,,,,,,,,,,,,,,,,,,,,,,,,,,,,,,,,,,,,,,,,,,,,,,,,,,,,,,,,,,,,,,,,,,,,,,,,,,,,,,,,,,,,,,,,,,,,,,,,,,,,
0,13,13,2,1,,5d45afeb62ed9000197adbb8,62bbf94ea39084a135abfcd3,2022-06-29_09h05.15.087,Colour_Asymmetry_Pilot,2022.1.3,Win32,59.70149254,62bbe60bf3d75ef465d3e404,,,,,,,,,,,,,,,,,,,,,,,,,,,,,,,,,,,,,,,,,,,,,,,,,,,,,,,,,,,,,,,,,,,,,,,,,,,,,,,,,,,,,,,,,,,,,,,,,,,,,,,,,,,,,,,,,,,,,,,,,,,,,,,,,,,,,,,,,,,,,,,,,,,,,,,,,,,,,,
0,14,14,62,1,,5d45afeb62ed9000197adbb8,62bbf94ea39084a135abfcd3,2022-06-29_09h05.15.087,Colour_Asymmetry_Pilot,2022.1.3,Win32,59.70149254,62bbe60bf3d75ef465d3e404,,,,,,,,,,,,,,,,,,,,,,,,,,,,,,,,,,,,,,,,,,,,,,,,,,,,,,,,,,,,,,,,,,,,,,,,,,,,,,,,,,,,,,,,,,,,,,,,,,,,,,,,,,,,,,,,,,,,,,,,,,,,,,,,,,,,,,,,,,,,,,,,,,,,,,,,,,,,,,
0,15,15,22,1,,5d45afeb62ed9000197adbb8,62bbf94ea39084a135abfcd3,2022-06-29_09h05.15.087,Colour_Asymmetry_Pilot,2022.1.3,Win32,59.70149254,62bbe60bf3d75ef465d3e404,,,,,,,,,,,,,,,,,,,,,,,,,,,,,,,,,,,,,,,,,,,,,,,,,,,,,,,,,,,,,,,,,,,,,,,,,,,,,,,,,,,,,,,,,,,,,,,,,,,,,,,,,,,,,,,,,,,,,,,,,,,,,,,,,,,,,,,,,,,,,,,,,,,,,,,,,,,,,,
0,16,16,47,1,,5d45afeb62ed9000197adbb8,62bbf94ea39084a135abfcd3,2022-06-29_09h05.15.087,Colour_Asymmetry_Pilot,2022.1.3,Win32,59.70149254,62bbe60bf3d75ef465d3e404,,,,,,,,,,,,,,,,,,,,,,,,,,,,,,,,,,,,,,,,,,,,,,,,,,,,,,,,,,,,,,,,,,,,,,,,,,,,,,,,,,,,,,,,,,,,,,,,,,,,,,,,,,,,,,,,,,,,,,,,,,,,,,,,,,,,,,,,,,,,,,,,,,,,,,,,,,,,,,
0,17,17,27,1,,5d45afeb62ed9000197adbb8,62bbf94ea39084a135abfcd3,2022-06-29_09h05.15.087,Colour_Asymmetry_Pilot,2022.1.3,Win32,59.70149254,62bbe60bf3d75ef465d3e404,,,,,,,,,,,,,,,,,,,,,,,,,,,,,,,,,,,,,,,,,,,,,,,,,,,,,,,,,,,,,,,,,,,,,,,,,,,,,,,,,,,,,,,,,,,,,,,,,,,,,,,,,,,,,,,,,,,,,,,,,,,,,,,,,,,,,,,,,,,,,,,,,,,,,,,,,,,,,,
0,18,18,0,1,,5d45afeb62ed9000197adbb8,62bbf94ea39084a135abfcd3,2022-06-29_09h05.15.087,Colour_Asymmetry_Pilot,2022.1.3,Win32,59.70149254,62bbe60bf3d75ef465d3e404,,,,,,,,,,,,,,,,,,,,,,,,,,,,,,,,,,,,,,,,,,,,,,,,,,,,,,,,,,,,,,,,,,,,,,,,,,,,,,,,,,,,,,,,,,,,,,,,,,,,,,,,,,,,,,,,,,,,,,,,,,,,,,,,,,,,,,,,,,,,,,,,,,,,,,,,,,,,,,
0,19,19,81,1,,5d45afeb62ed9000197adbb8,62bbf94ea39084a135abfcd3,2022-06-29_09h05.15.087,Colour_Asymmetry_Pilot,2022.1.3,Win32,59.70149254,62bbe60bf3d75ef465d3e404,,,,,,,,,,,,,,,,,,,,,,,,,,,,,,,,,,,,,,,,,,,,,,,,,,,,,,,,,,,,,,,,,,,,,,,,,,,,,,,,,,,,,,,,,,,,,,,,,,,,,,,,,,,,,,,,,,,,,,,,,,,,,,,,,,,,,,,,,,,,,,,,,,,,,,,,,,,,,,
0,20,20,79,1,,5d45afeb62ed9000197adbb8,62bbf94ea39084a135abfcd3,2022-06-29_09h05.15.087,Colour_Asymmetry_Pilot,2022.1.3,Win32,59.70149254,62bbe60bf3d75ef465d3e404,,,,,,,,,,,,,,,,,,,,,,,,,,,,,,,,,,,,,,,,,,,,,,,,,,,,,,,,,,,,,,,,,,,,,,,,,,,,,,,,,,,,,,,,,,,,,,,,,,,,,,,,,,,,,,,,,,,,,,,,,,,,,,,,,,,,,,,,,,,,,,,,,,,,,,,,,,,,,,
0,21,21,23,1,,5d45afeb62ed9000197adbb8,62bbf94ea39084a135abfcd3,2022-06-29_09h05.15.087,Colour_Asymmetry_Pilot,2022.1.3,Win32,59.70149254,62bbe60bf3d75ef465d3e404,,,,,,,,,,,,,,,,,,,,,,,,,,,,,,,,,,,,,,,,,,,,,,,,,,,,,,,,,,,,,,,,,,,,,,,,,,,,,,,,,,,,,,,,,,,,,,,,,,,,,,,,,,,,,,,,,,,,,,,,,,,,,,,,,,,,,,,,,,,,,,,,,,,,,,,,,,,,,,
0,22,22,57,1,,5d45afeb62ed9000197adbb8,62bbf94ea39084a135abfcd3,2022-06-29_09h05.15.087,Colour_Asymmetry_Pilot,2022.1.3,Win32,59.70149254,62bbe60bf3d75ef465d3e404,,,,,,,,,,,,,,,,,,,,,,,,,,,,,,,,,,,,,,,,,,,,,,,,,,,,,,,,,,,,,,,,,,,,,,,,,,,,,,,,,,,,,,,,,,,,,,,,,,,,,,,,,,,,,,,,,,,,,,,,,,,,,,,,,,,,,,,,,,,,,,,,,,,,,,,,,,,,,,
0,23,23,32,1,,5d45afeb62ed9000197adbb8,62bbf94ea39084a135abfcd3,2022-06-29_09h05.15.087,Colour_Asymmetry_Pilot,2022.1.3,Win32,59.70149254,62bbe60bf3d75ef465d3e404,,,,,,,,,,,,,,,,,,,,,,,,,,,,,,,,,,,,,,,,,,,,,,,,,,,,,,,,,,,,,,,,,,,,,,,,,,,,,,,,,,,,,,,,,,,,,,,,,,,,,,,,,,,,,,,,,,,,,,,,,,,,,,,,,,,,,,,,,,,,,,,,,,,,,,,,,,,,,,
0,24,24,80,1,,5d45afeb62ed9000197adbb8,62bbf94ea39084a135abfcd3,2022-06-29_09h05.15.087,Colour_Asymmetry_Pilot,2022.1.3,Win32,59.70149254,62bbe60bf3d75ef465d3e404,,,,,,,,,,,,,,,,,,,,,,,,,,,,,,,,,,,,,,,,,,,,,,,,,,,,,,,,,,,,,,,,,,,,,,,,,,,,,,,,,,,,,,,,,,,,,,,,,,,,,,,,,,,,,,,,,,,,,,,,,,,,,,,,,,,,,,,,,,,,,,,,,,,,,,,,,,,,,,
0,25,25,64,1,,5d45afeb62ed9000197adbb8,62bbf94ea39084a135abfcd3,2022-06-29_09h05.15.087,Colour_Asymmetry_Pilot,2022.1.3,Win32,59.70149254,62bbe60bf3d75ef465d3e404,,,,,,,,,,,,,,,,,,,,,,,,,,,,,,,,,,,,,,,,,,,,,,,,,,,,,,,,,,,,,,,,,,,,,,,,,,,,,,,,,,,,,,,,,,,,,,,,,,,,,,,,,,,,,,,,,,,,,,,,,,,,,,,,,,,,,,,,,,,,,,,,,,,,,,,,,,,,,,
0,26,26,86,1,,5d45afeb62ed9000197adbb8,62bbf94ea39084a135abfcd3,2022-06-29_09h05.15.087,Colour_Asymmetry_Pilot,2022.1.3,Win32,59.70149254,62bbe60bf3d75ef465d3e404,,,,,,,,,,,,,,,,,,,,,,,,,,,,,,,,,,,,,,,,,,,,,,,,,,,,,,,,,,,,,,,,,,,,,,,,,,,,,,,,,,,,,,,,,,,,,,,,,,,,,,,,,,,,,,,,,,,,,,,,,,,,,,,,,,,,,,,,,,,,,,,,,,,,,,,,,,,,,,
0,27,27,83,1,,5d45afeb62ed9000197adbb8,62bbf94ea39084a135abfcd3,2022-06-29_09h05.15.087,Colour_Asymmetry_Pilot,2022.1.3,Win32,59.70149254,62bbe60bf3d75ef465d3e404,,,,,,,,,,,,,,,,,,,,,,,,,,,,,,,,,,,,,,,,,,,,,,,,,,,,,,,,,,,,,,,,,,,,,,,,,,,,,,,,,,,,,,,,,,,,,,,,,,,,,,,,,,,,,,,,,,,,,,,,,,,,,,,,,,,,,,,,,,,,,,,,,,,,,,,,,,,,,,
0,28,28,6,1,,5d45afeb62ed9000197adbb8,62bbf94ea39084a135abfcd3,2022-06-29_09h05.15.087,Colour_Asymmetry_Pilot,2022.1.3,Win32,59.70149254,62bbe60bf3d75ef465d3e404,,,,,,,,,,,,,,,,,,,,,,,,,,,,,,,,,,,,,,,,,,,,,,,,,,,,,,,,,,,,,,,,,,,,,,,,,,,,,,,,,,,,,,,,,,,,,,,,,,,,,,,,,,,,,,,,,,,,,,,,,,,,,,,,,,,,,,,,,,,,,,,,,,,,,,,,,,,,,,
0,29,29,90,1,,5d45afeb62ed9000197adbb8,62bbf94ea39084a135abfcd3,2022-06-29_09h05.15.087,Colour_Asymmetry_Pilot,2022.1.3,Win32,59.70149254,62bbe60bf3d75ef465d3e404,,,,,,,,,,,,,,,,,,,,,,,,,,,,,,,,,,,,,,,,,,,,,,,,,,,,,,,,,,,,,,,,,,,,,,,,,,,,,,,,,,,,,,,,,,,,,,,,,,,,,,,,,,,,,,,,,,,,,,,,,,,,,,,,,,,,,,,,,,,,,,,,,,,,,,,,,,,,,,
0,30,30,18,1,,5d45afeb62ed9000197adbb8,62bbf94ea39084a135abfcd3,2022-06-29_09h05.15.087,Colour_Asymmetry_Pilot,2022.1.3,Win32,59.70149254,62bbe60bf3d75ef465d3e404,,,,,,,,,,,,,,,,,,,,,,,,,,,,,,,,,,,,,,,,,,,,,,,,,,,,,,,,,,,,,,,,,,,,,,,,,,,,,,,,,,,,,,,,,,,,,,,,,,,,,,,,,,,,,,,,,,,,,,,,,,,,,,,,,,,,,,,,,,,,,,,,,,,,,,,,,,,,,,
0,31,31,10,1,,5d45afeb62ed9000197adbb8,62bbf94ea39084a135abfcd3,2022-06-29_09h05.15.087,Colour_Asymmetry_Pilot,2022.1.3,Win32,59.70149254,62bbe60bf3d75ef465d3e404,,,,,,,,,,,,,,,,,,,,,,,,,,,,,,,,,,,,,,,,,,,,,,,,,,,,,,,,,,,,,,,,,,,,,,,,,,,,,,,,,,,,,,,,,,,,,,,,,,,,,,,,,,,,,,,,,,,,,,,,,,,,,,,,,,,,,,,,,,,,,,,,,,,,,,,,,,,,,,
0,32,32,51,1,,5d45afeb62ed9000197adbb8,62bbf94ea39084a135abfcd3,2022-06-29_09h05.15.087,Colour_Asymmetry_Pilot,2022.1.3,Win32,59.70149254,62bbe60bf3d75ef465d3e404,,,,,,,,,,,,,,,,,,,,,,,,,,,,,,,,,,,,,,,,,,,,,,,,,,,,,,,,,,,,,,,,,,,,,,,,,,,,,,,,,,,,,,,,,,,,,,,,,,,,,,,,,,,,,,,,,,,,,,,,,,,,,,,,,,,,,,,,,,,,,,,,,,,,,,,,,,,,,,
0,33,33,75,1,,5d45afeb62ed9000197adbb8,62bbf94ea39084a135abfcd3,2022-06-29_09h05.15.087,Colour_Asymmetry_Pilot,2022.1.3,Win32,59.70149254,62bbe60bf3d75ef465d3e404,,,,,,,,,,,,,,,,,,,,,,,,,,,,,,,,,,,,,,,,,,,,,,,,,,,,,,,,,,,,,,,,,,,,,,,,,,,,,,,,,,,,,,,,,,,,,,,,,,,,,,,,,,,,,,,,,,,,,,,,,,,,,,,,,,,,,,,,,,,,,,,,,,,,,,,,,,,,,,
0,34,34,69,1,,5d45afeb62ed9000197adbb8,62bbf94ea39084a135abfcd3,2022-06-29_09h05.15.087,Colour_Asymmetry_Pilot,2022.1.3,Win32,59.70149254,62bbe60bf3d75ef465d3e404,,,,,,,,,,,,,,,,,,,,,,,,,,,,,,,,,,,,,,,,,,,,,,,,,,,,,,,,,,,,,,,,,,,,,,,,,,,,,,,,,,,,,,,,,,,,,,,,,,,,,,,,,,,,,,,,,,,,,,,,,,,,,,,,,,,,,,,,,,,,,,,,,,,,,,,,,,,,,,
0,35,35,37,1,,5d45afeb62ed9000197adbb8,62bbf94ea39084a135abfcd3,2022-06-29_09h05.15.087,Colour_Asymmetry_Pilot,2022.1.3,Win32,59.70149254,62bbe60bf3d75ef465d3e404,,,,,,,,,,,,,,,,,,,,,,,,,,,,,,,,,,,,,,,,,,,,,,,,,,,,,,,,,,,,,,,,,,,,,,,,,,,,,,,,,,,,,,,,,,,,,,,,,,,,,,,,,,,,,,,,,,,,,,,,,,,,,,,,,,,,,,,,,,,,,,,,,,,,,,,,,,,,,,
0,36,36,56,1,,5d45afeb62ed9000197adbb8,62bbf94ea39084a135abfcd3,2022-06-29_09h05.15.087,Colour_Asymmetry_Pilot,2022.1.3,Win32,59.70149254,62bbe60bf3d75ef465d3e404,,,,,,,,,,,,,,,,,,,,,,,,,,,,,,,,,,,,,,,,,,,,,,,,,,,,,,,,,,,,,,,,,,,,,,,,,,,,,,,,,,,,,,,,,,,,,,,,,,,,,,,,,,,,,,,,,,,,,,,,,,,,,,,,,,,,,,,,,,,,,,,,,,,,,,,,,,,,,,
0,37,37,12,1,,5d45afeb62ed9000197adbb8,62bbf94ea39084a135abfcd3,2022-06-29_09h05.15.087,Colour_Asymmetry_Pilot,2022.1.3,Win32,59.70149254,62bbe60bf3d75ef465d3e404,,,,,,,,,,,,,,,,,,,,,,,,,,,,,,,,,,,,,,,,,,,,,,,,,,,,,,,,,,,,,,,,,,,,,,,,,,,,,,,,,,,,,,,,,,,,,,,,,,,,,,,,,,,,,,,,,,,,,,,,,,,,,,,,,,,,,,,,,,,,,,,,,,,,,,,,,,,,,,
0,38,38,73,1,,5d45afeb62ed9000197adbb8,62bbf94ea39084a135abfcd3,2022-06-29_09h05.15.087,Colour_Asymmetry_Pilot,2022.1.3,Win32,59.70149254,62bbe60bf3d75ef465d3e404,,,,,,,,,,,,,,,,,,,,,,,,,,,,,,,,,,,,,,,,,,,,,,,,,,,,,,,,,,,,,,,,,,,,,,,,,,,,,,,,,,,,,,,,,,,,,,,,,,,,,,,,,,,,,,,,,,,,,,,,,,,,,,,,,,,,,,,,,,,,,,,,,,,,,,,,,,,,,,
0,39,39,13,1,,5d45afeb62ed9000197adbb8,62bbf94ea39084a135abfcd3,2022-06-29_09h05.15.087,Colour_Asymmetry_Pilot,2022.1.3,Win32,59.70149254,62bbe60bf3d75ef465d3e404,,,,,,,,,,,,,,,,,,,,,,,,,,,,,,,,,,,,,,,,,,,,,,,,,,,,,,,,,,,,,,,,,,,,,,,,,,,,,,,,,,,,,,,,,,,,,,,,,,,,,,,,,,,,,,,,,,,,,,,,,,,,,,,,,,,,,,,,,,,,,,,,,,,,,,,,,,,,,,
0,40,40,44,1,,5d45afeb62ed9000197adbb8,62bbf94ea39084a135abfcd3,2022-06-29_09h05.15.087,Colour_Asymmetry_Pilot,2022.1.3,Win32,59.70149254,62bbe60bf3d75ef465d3e404,,,,,,,,,,,,,,,,,,,,,,,,,,,,,,,,,,,,,,,,,,,,,,,,,,,,,,,,,,,,,,,,,,,,,,,,,,,,,,,,,,,,,,,,,,,,,,,,,,,,,,,,,,,,,,,,,,,,,,,,,,,,,,,,,,,,,,,,,,,,,,,,,,,,,,,,,,,,,,
0,41,41,55,1,,5d45afeb62ed9000197adbb8,62bbf94ea39084a135abfcd3,2022-06-29_09h05.15.087,Colour_Asymmetry_Pilot,2022.1.3,Win32,59.70149254,62bbe60bf3d75ef465d3e404,,,,,,,,,,,,,,,,,,,,,,,,,,,,,,,,,,,,,,,,,,,,,,,,,,,,,,,,,,,,,,,,,,,,,,,,,,,,,,,,,,,,,,,,,,,,,,,,,,,,,,,,,,,,,,,,,,,,,,,,,,,,,,,,,,,,,,,,,,,,,,,,,,,,,,,,,,,,,,
0,42,42,3,1,,5d45afeb62ed9000197adbb8,62bbf94ea39084a135abfcd3,2022-06-29_09h05.15.087,Colour_Asymmetry_Pilot,2022.1.3,Win32,59.70149254,62bbe60bf3d75ef465d3e404,,,,,,,,,,,,,,,,,,,,,,,,,,,,,,,,,,,,,,,,,,,,,,,,,,,,,,,,,,,,,,,,,,,,,,,,,,,,,,,,,,,,,,,,,,,,,,,,,,,,,,,,,,,,,,,,,,,,,,,,,,,,,,,,,,,,,,,,,,,,,,,,,,,,,,,,,,,,,,
0,43,43,54,1,,5d45afeb62ed9000197adbb8,62bbf94ea39084a135abfcd3,2022-06-29_09h05.15.087,Colour_Asymmetry_Pilot,2022.1.3,Win32,59.70149254,62bbe60bf3d75ef465d3e404,,,,,,,,,,,,,,,,,,,,,,,,,,,,,,,,,,,,,,,,,,,,,,,,,,,,,,,,,,,,,,,,,,,,,,,,,,,,,,,,,,,,,,,,,,,,,,,,,,,,,,,,,,,,,,,,,,,,,,,,,,,,,,,,,,,,,,,,,,,,,,,,,,,,,,,,,,,,,,
0,44,44,42,1,,5d45afeb62ed9000197adbb8,62bbf94ea39084a135abfcd3,2022-06-29_09h05.15.087,Colour_Asymmetry_Pilot,2022.1.3,Win32,59.70149254,62bbe60bf3d75ef465d3e404,,,,,,,,,,,,,,,,,,,,,,,,,,,,,,,,,,,,,,,,,,,,,,,,,,,,,,,,,,,,,,,,,,,,,,,,,,,,,,,,,,,,,,,,,,,,,,,,,,,,,,,,,,,,,,,,,,,,,,,,,,,,,,,,,,,,,,,,,,,,,,,,,,,,,,,,,,,,,,
0,45,45,60,1,,5d45afeb62ed9000197adbb8,62bbf94ea39084a135abfcd3,2022-06-29_09h05.15.087,Colour_Asymmetry_Pilot,2022.1.3,Win32,59.70149254,62bbe60bf3d75ef465d3e404,,,,,,,,,,,,,,,,,,,,,,,,,,,,,,,,,,,,,,,,,,,,,,,,,,,,,,,,,,,,,,,,,,,,,,,,,,,,,,,,,,,,,,,,,,,,,,,,,,,,,,,,,,,,,,,,,,,,,,,,,,,,,,,,,,,,,,,,,,,,,,,,,,,,,,,,,,,,,,
0,46,46,87,1,,5d45afeb62ed9000197adbb8,62bbf94ea39084a135abfcd3,2022-06-29_09h05.15.087,Colour_Asymmetry_Pilot,2022.1.3,Win32,59.70149254,62bbe60bf3d75ef465d3e404,,,,,,,,,,,,,,,,,,,,,,,,,,,,,,,,,,,,,,,,,,,,,,,,,,,,,,,,,,,,,,,,,,,,,,,,,,,,,,,,,,,,,,,,,,,,,,,,,,,,,,,,,,,,,,,,,,,,,,,,,,,,,,,,,,,,,,,,,,,,,,,,,,,,,,,,,,,,,,
0,47,47,28,1,,5d45afeb62ed9000197adbb8,62bbf94ea39084a135abfcd3,2022-06-29_09h05.15.087,Colour_Asymmetry_Pilot,2022.1.3,Win32,59.70149254,62bbe60bf3d75ef465d3e404,,,,,,,,,,,,,,,,,,,,,,,,,,,,,,,,,,,,,,,,,,,,,,,,,,,,,,,,,,,,,,,,,,,,,,,,,,,,,,,,,,,,,,,,,,,,,,,,,,,,,,,,,,,,,,,,,,,,,,,,,,,,,,,,,,,,,,,,,,,,,,,,,,,,,,,,,,,,,,
0,48,48,41,1,,5d45afeb62ed9000197adbb8,62bbf94ea39084a135abfcd3,2022-06-29_09h05.15.087,Colour_Asymmetry_Pilot,2022.1.3,Win32,59.70149254,62bbe60bf3d75ef465d3e404,,,,,,,,,,,,,,,,,,,,,,,,,,,,,,,,,,,,,,,,,,,,,,,,,,,,,,,,,,,,,,,,,,,,,,,,,,,,,,,,,,,,,,,,,,,,,,,,,,,,,,,,,,,,,,,,,,,,,,,,,,,,,,,,,,,,,,,,,,,,,,,,,,,,,,,,,,,,,,
0,49,49,63,1,,5d45afeb62ed9000197adbb8,62bbf94ea39084a135abfcd3,2022-06-29_09h05.15.087,Colour_Asymmetry_Pilot,2022.1.3,Win32,59.70149254,62bbe60bf3d75ef465d3e404,,,,,,,,,,,,,,,,,,,,,,,,,,,,,,,,,,,,,,,,,,,,,,,,,,,,,,,,,,,,,,,,,,,,,,,,,,,,,,,,,,,,,,,,,,,,,,,,,,,,,,,,,,,,,,,,,,,,,,,,,,,,,,,,,,,,,,,,,,,,,,,,,,,,,,,,,,,,,,
0,50,50,53,1,,5d45afeb62ed9000197adbb8,62bbf94ea39084a135abfcd3,2022-06-29_09h05.15.087,Colour_Asymmetry_Pilot,2022.1.3,Win32,59.70149254,62bbe60bf3d75ef465d3e404,,,,,,,,,,,,,,,,,,,,,,,,,,,,,,,,,,,,,,,,,,,,,,,,,,,,,,,,,,,,,,,,,,,,,,,,,,,,,,,,,,,,,,,,,,,,,,,,,,,,,,,,,,,,,,,,,,,,,,,,,,,,,,,,,,,,,,,,,,,,,,,,,,,,,,,,,,,,,,
0,51,51,34,1,,5d45afeb62ed9000197adbb8,62bbf94ea39084a135abfcd3,2022-06-29_09h05.15.087,Colour_Asymmetry_Pilot,2022.1.3,Win32,59.70149254,62bbe60bf3d75ef465d3e404,,,,,,,,,,,,,,,,,,,,,,,,,,,,,,,,,,,,,,,,,,,,,,,,,,,,,,,,,,,,,,,,,,,,,,,,,,,,,,,,,,,,,,,,,,,,,,,,,,,,,,,,,,,,,,,,,,,,,,,,,,,,,,,,,,,,,,,,,,,,,,,,,,,,,,,,,,,,,,
0,52,52,9,1,,5d45afeb62ed9000197adbb8,62bbf94ea39084a135abfcd3,2022-06-29_09h05.15.087,Colour_Asymmetry_Pilot,2022.1.3,Win32,59.70149254,62bbe60bf3d75ef465d3e404,,,,,,,,,,,,,,,,,,,,,,,,,,,,,,,,,,,,,,,,,,,,,,,,,,,,,,,,,,,,,,,,,,,,,,,,,,,,,,,,,,,,,,,,,,,,,,,,,,,,,,,,,,,,,,,,,,,,,,,,,,,,,,,,,,,,,,,,,,,,,,,,,,,,,,,,,,,,,,
0,53,53,7,1,,5d45afeb62ed9000197adbb8,62bbf94ea39084a135abfcd3,2022-06-29_09h05.15.087,Colour_Asymmetry_Pilot,2022.1.3,Win32,59.70149254,62bbe60bf3d75ef465d3e404,,,,,,,,,,,,,,,,,,,,,,,,,,,,,,,,,,,,,,,,,,,,,,,,,,,,,,,,,,,,,,,,,,,,,,,,,,,,,,,,,,,,,,,,,,,,,,,,,,,,,,,,,,,,,,,,,,,,,,,,,,,,,,,,,,,,,,,,,,,,,,,,,,,,,,,,,,,,,,
0,54,54,15,1,,5d45afeb62ed9000197adbb8,62bbf94ea39084a135abfcd3,2022-06-29_09h05.15.087,Colour_Asymmetry_Pilot,2022.1.3,Win32,59.70149254,62bbe60bf3d75ef465d3e404,,,,,,,,,,,,,,,,,,,,,,,,,,,,,,,,,,,,,,,,,,,,,,,,,,,,,,,,,,,,,,,,,,,,,,,,,,,,,,,,,,,,,,,,,,,,,,,,,,,,,,,,,,,,,,,,,,,,,,,,,,,,,,,,,,,,,,,,,,,,,,,,,,,,,,,,,,,,,,
0,55,55,58,1,,5d45afeb62ed9000197adbb8,62bbf94ea39084a135abfcd3,2022-06-29_09h05.15.087,Colour_Asymmetry_Pilot,2022.1.3,Win32,59.70149254,62bbe60bf3d75ef465d3e404,,,,,,,,,,,,,,,,,,,,,,,,,,,,,,,,,,,,,,,,,,,,,,,,,,,,,,,,,,,,,,,,,,,,,,,,,,,,,,,,,,,,,,,,,,,,,,,,,,,,,,,,,,,,,,,,,,,,,,,,,,,,,,,,,,,,,,,,,,,,,,,,,,,,,,,,,,,,,,
0,56,56,8,1,,5d45afeb62ed9000197adbb8,62bbf94ea39084a135abfcd3,2022-06-29_09h05.15.087,Colour_Asymmetry_Pilot,2022.1.3,Win32,59.70149254,62bbe60bf3d75ef465d3e404,,,,,,,,,,,,,,,,,,,,,,,,,,,,,,,,,,,,,,,,,,,,,,,,,,,,,,,,,,,,,,,,,,,,,,,,,,,,,,,,,,,,,,,,,,,,,,,,,,,,,,,,,,,,,,,,,,,,,,,,,,,,,,,,,,,,,,,,,,,,,,,,,,,,,,,,,,,,,,
0,57,57,14,1,,5d45afeb62ed9000197adbb8,62bbf94ea39084a135abfcd3,2022-06-29_09h05.15.087,Colour_Asymmetry_Pilot,2022.1.3,Win32,59.70149254,62bbe60bf3d75ef465d3e404,,,,,,,,,,,,,,,,,,,,,,,,,,,,,,,,,,,,,,,,,,,,,,,,,,,,,,,,,,,,,,,,,,,,,,,,,,,,,,,,,,,,,,,,,,,,,,,,,,,,,,,,,,,,,,,,,,,,,,,,,,,,,,,,,,,,,,,,,,,,,,,,,,,,,,,,,,,,,,
0,58,58,46,1,,5d45afeb62ed9000197adbb8,62bbf94ea39084a135abfcd3,2022-06-29_09h05.15.087,Colour_Asymmetry_Pilot,2022.1.3,Win32,59.70149254,62bbe60bf3d75ef465d3e404,,,,,,,,,,,,,,,,,,,,,,,,,,,,,,,,,,,,,,,,,,,,,,,,,,,,,,,,,,,,,,,,,,,,,,,,,,,,,,,,,,,,,,,,,,,,,,,,,,,,,,,,,,,,,,,,,,,,,,,,,,,,,,,,,,,,,,,,,,,,,,,,,,,,,,,,,,,,,,
0,59,59,25,1,,5d45afeb62ed9000197adbb8,62bbf94ea39084a135abfcd3,2022-06-29_09h05.15.087,Colour_Asymmetry_Pilot,2022.1.3,Win32,59.70149254,62bbe60bf3d75ef465d3e404,,,,,,,,,,,,,,,,,,,,,,,,,,,,,,,,,,,,,,,,,,,,,,,,,,,,,,,,,,,,,,,,,,,,,,,,,,,,,,,,,,,,,,,,,,,,,,,,,,,,,,,,,,,,,,,,,,,,,,,,,,,,,,,,,,,,,,,,,,,,,,,,,,,,,,,,,,,,,,
0,60,60,85,1,,5d45afeb62ed9000197adbb8,62bbf94ea39084a135abfcd3,2022-06-29_09h05.15.087,Colour_Asymmetry_Pilot,2022.1.3,Win32,59.70149254,62bbe60bf3d75ef465d3e404,,,,,,,,,,,,,,,,,,,,,,,,,,,,,,,,,,,,,,,,,,,,,,,,,,,,,,,,,,,,,,,,,,,,,,,,,,,,,,,,,,,,,,,,,,,,,,,,,,,,,,,,,,,,,,,,,,,,,,,,,,,,,,,,,,,,,,,,,,,,,,,,,,,,,,,,,,,,,,
0,61,61,77,1,,5d45afeb62ed9000197adbb8,62bbf94ea39084a135abfcd3,2022-06-29_09h05.15.087,Colour_Asymmetry_Pilot,2022.1.3,Win32,59.70149254,62bbe60bf3d75ef465d3e404,,,,,,,,,,,,,,,,,,,,,,,,,,,,,,,,,,,,,,,,,,,,,,,,,,,,,,,,,,,,,,,,,,,,,,,,,,,,,,,,,,,,,,,,,,,,,,,,,,,,,,,,,,,,,,,,,,,,,,,,,,,,,,,,,,,,,,,,,,,,,,,,,,,,,,,,,,,,,,
0,62,62,38,1,,5d45afeb62ed9000197adbb8,62bbf94ea39084a135abfcd3,2022-06-29_09h05.15.087,Colour_Asymmetry_Pilot,2022.1.3,Win32,59.70149254,62bbe60bf3d75ef465d3e404,,,,,,,,,,,,,,,,,,,,,,,,,,,,,,,,,,,,,,,,,,,,,,,,,,,,,,,,,,,,,,,,,,,,,,,,,,,,,,,,,,,,,,,,,,,,,,,,,,,,,,,,,,,,,,,,,,,,,,,,,,,,,,,,,,,,,,,,,,,,,,,,,,,,,,,,,,,,,,
0,63,63,5,1,,5d45afeb62ed9000197adbb8,62bbf94ea39084a135abfcd3,2022-06-29_09h05.15.087,Colour_Asymmetry_Pilot,2022.1.3,Win32,59.70149254,62bbe60bf3d75ef465d3e404,,,,,,,,,,,,,,,,,,,,,,,,,,,,,,,,,,,,,,,,,,,,,,,,,,,,,,,,,,,,,,,,,,,,,,,,,,,,,,,,,,,,,,,,,,,,,,,,,,,,,,,,,,,,,,,,,,,,,,,,,,,,,,,,,,,,,,,,,,,,,,,,,,,,,,,,,,,,,,
0,64,64,91,1,,5d45afeb62ed9000197adbb8,62bbf94ea39084a135abfcd3,2022-06-29_09h05.15.087,Colour_Asymmetry_Pilot,2022.1.3,Win32,59.70149254,62bbe60bf3d75ef465d3e404,,,,,,,,,,,,,,,,,,,,,,,,,,,,,,,,,,,,,,,,,,,,,,,,,,,,,,,,,,,,,,,,,,,,,,,,,,,,,,,,,,,,,,,,,,,,,,,,,,,,,,,,,,,,,,,,,,,,,,,,,,,,,,,,,,,,,,,,,,,,,,,,,,,,,,,,,,,,,,
0,65,65,84,1,,5d45afeb62ed9000197adbb8,62bbf94ea39084a135abfcd3,2022-06-29_09h05.15.087,Colour_Asymmetry_Pilot,2022.1.3,Win32,59.70149254,62bbe60bf3d75ef465d3e404,,,,,,,,,,,,,,,,,,,,,,,,,,,,,,,,,,,,,,,,,,,,,,,,,,,,,,,,,,,,,,,,,,,,,,,,,,,,,,,,,,,,,,,,,,,,,,,,,,,,,,,,,,,,,,,,,,,,,,,,,,,,,,,,,,,,,,,,,,,,,,,,,,,,,,,,,,,,,,
0,66,66,19,1,,5d45afeb62ed9000197adbb8,62bbf94ea39084a135abfcd3,2022-06-29_09h05.15.087,Colour_Asymmetry_Pilot,2022.1.3,Win32,59.70149254,62bbe60bf3d75ef465d3e404,,,,,,,,,,,,,,,,,,,,,,,,,,,,,,,,,,,,,,,,,,,,,,,,,,,,,,,,,,,,,,,,,,,,,,,,,,,,,,,,,,,,,,,,,,,,,,,,,,,,,,,,,,,,,,,,,,,,,,,,,,,,,,,,,,,,,,,,,,,,,,,,,,,,,,,,,,,,,,
0,67,67,70,1,,5d45afeb62ed9000197adbb8,62bbf94ea39084a135abfcd3,2022-06-29_09h05.15.087,Colour_Asymmetry_Pilot,2022.1.3,Win32,59.70149254,62bbe60bf3d75ef465d3e404,,,,,,,,,,,,,,,,,,,,,,,,,,,,,,,,,,,,,,,,,,,,,,,,,,,,,,,,,,,,,,,,,,,,,,,,,,,,,,,,,,,,,,,,,,,,,,,,,,,,,,,,,,,,,,,,,,,,,,,,,,,,,,,,,,,,,,,,,,,,,,,,,,,,,,,,,,,,,,
0,68,68,74,1,,5d45afeb62ed9000197adbb8,62bbf94ea39084a135abfcd3,2022-06-29_09h05.15.087,Colour_Asymmetry_Pilot,2022.1.3,Win32,59.70149254,62bbe60bf3d75ef465d3e404,,,,,,,,,,,,,,,,,,,,,,,,,,,,,,,,,,,,,,,,,,,,,,,,,,,,,,,,,,,,,,,,,,,,,,,,,,,,,,,,,,,,,,,,,,,,,,,,,,,,,,,,,,,,,,,,,,,,,,,,,,,,,,,,,,,,,,,,,,,,,,,,,,,,,,,,,,,,,,
0,69,69,4,1,,5d45afeb62ed9000197adbb8,62bbf94ea39084a135abfcd3,2022-06-29_09h05.15.087,Colour_Asymmetry_Pilot,2022.1.3,Win32,59.70149254,62bbe60bf3d75ef465d3e404,,,,,,,,,,,,,,,,,,,,,,,,,,,,,,,,,,,,,,,,,,,,,,,,,,,,,,,,,,,,,,,,,,,,,,,,,,,,,,,,,,,,,,,,,,,,,,,,,,,,,,,,,,,,,,,,,,,,,,,,,,,,,,,,,,,,,,,,,,,,,,,,,,,,,,,,,,,,,,
0,70,70,31,1,,5d45afeb62ed9000197adbb8,62bbf94ea39084a135abfcd3,2022-06-29_09h05.15.087,Colour_Asymmetry_Pilot,2022.1.3,Win32,59.70149254,62bbe60bf3d75ef465d3e404,,,,,,,,,,,,,,,,,,,,,,,,,,,,,,,,,,,,,,,,,,,,,,,,,,,,,,,,,,,,,,,,,,,,,,,,,,,,,,,,,,,,,,,,,,,,,,,,,,,,,,,,,,,,,,,,,,,,,,,,,,,,,,,,,,,,,,,,,,,,,,,,,,,,,,,,,,,,,,
0,71,71,71,1,,5d45afeb62ed9000197adbb8,62bbf94ea39084a135abfcd3,2022-06-29_09h05.15.087,Colour_Asymmetry_Pilot,2022.1.3,Win32,59.70149254,62bbe60bf3d75ef465d3e404,,,,,,,,,,,,,,,,,,,,,,,,,,,,,,,,,,,,,,,,,,,,,,,,,,,,,,,,,,,,,,,,,,,,,,,,,,,,,,,,,,,,,,,,,,,,,,,,,,,,,,,,,,,,,,,,,,,,,,,,,,,,,,,,,,,,,,,,,,,,,,,,,,,,,,,,,,,,,,
0,72,72,36,1,,5d45afeb62ed9000197adbb8,62bbf94ea39084a135abfcd3,2022-06-29_09h05.15.087,Colour_Asymmetry_Pilot,2022.1.3,Win32,59.70149254,62bbe60bf3d75ef465d3e404,,,,,,,,,,,,,,,,,,,,,,,,,,,,,,,,,,,,,,,,,,,,,,,,,,,,,,,,,,,,,,,,,,,,,,,,,,,,,,,,,,,,,,,,,,,,,,,,,,,,,,,,,,,,,,,,,,,,,,,,,,,,,,,,,,,,,,,,,,,,,,,,,,,,,,,,,,,,,,
0,73,73,82,1,,5d45afeb62ed9000197adbb8,62bbf94ea39084a135abfcd3,2022-06-29_09h05.15.087,Colour_Asymmetry_Pilot,2022.1.3,Win32,59.70149254,62bbe60bf3d75ef465d3e404,,,,,,,,,,,,,,,,,,,,,,,,,,,,,,,,,,,,,,,,,,,,,,,,,,,,,,,,,,,,,,,,,,,,,,,,,,,,,,,,,,,,,,,,,,,,,,,,,,,,,,,,,,,,,,,,,,,,,,,,,,,,,,,,,,,,,,,,,,,,,,,,,,,,,,,,,,,,,,
0,74,74,11,1,,5d45afeb62ed9000197adbb8,62bbf94ea39084a135abfcd3,2022-06-29_09h05.15.087,Colour_Asymmetry_Pilot,2022.1.3,Win32,59.70149254,62bbe60bf3d75ef465d3e404,,,,,,,,,,,,,,,,,,,,,,,,,,,,,,,,,,,,,,,,,,,,,,,,,,,,,,,,,,,,,,,,,,,,,,,,,,,,,,,,,,,,,,,,,,,,,,,,,,,,,,,,,,,,,,,,,,,,,,,,,,,,,,,,,,,,,,,,,,,,,,,,,,,,,,,,,,,,,,
0,75,75,40,1,,5d45afeb62ed9000197adbb8,62bbf94ea39084a135abfcd3,2022-06-29_09h05.15.087,Colour_Asymmetry_Pilot,2022.1.3,Win32,59.70149254,62bbe60bf3d75ef465d3e404,,,,,,,,,,,,,,,,,,,,,,,,,,,,,,,,,,,,,,,,,,,,,,,,,,,,,,,,,,,,,,,,,,,,,,,,,,,,,,,,,,,,,,,,,,,,,,,,,,,,,,,,,,,,,,,,,,,,,,,,,,,,,,,,,,,,,,,,,,,,,,,,,,,,,,,,,,,,,,
0,76,76,48,1,,5d45afeb62ed9000197adbb8,62bbf94ea39084a135abfcd3,2022-06-29_09h05.15.087,Colour_Asymmetry_Pilot,2022.1.3,Win32,59.70149254,62bbe60bf3d75ef465d3e404,,,,,,,,,,,,,,,,,,,,,,,,,,,,,,,,,,,,,,,,,,,,,,,,,,,,,,,,,,,,,,,,,,,,,,,,,,,,,,,,,,,,,,,,,,,,,,,,,,,,,,,,,,,,,,,,,,,,,,,,,,,,,,,,,,,,,,,,,,,,,,,,,,,,,,,,,,,,,,
0,77,77,20,1,,5d45afeb62ed9000197adbb8,62bbf94ea39084a135abfcd3,2022-06-29_09h05.15.087,Colour_Asymmetry_Pilot,2022.1.3,Win32,59.70149254,62bbe60bf3d75ef465d3e404,,,,,,,,,,,,,,,,,,,,,,,,,,,,,,,,,,,,,,,,,,,,,,,,,,,,,,,,,,,,,,,,,,,,,,,,,,,,,,,,,,,,,,,,,,,,,,,,,,,,,,,,,,,,,,,,,,,,,,,,,,,,,,,,,,,,,,,,,,,,,,,,,,,,,,,,,,,,,,
0,78,78,61,1,,5d45afeb62ed9000197adbb8,62bbf94ea39084a135abfcd3,2022-06-29_09h05.15.087,Colour_Asymmetry_Pilot,2022.1.3,Win32,59.70149254,62bbe60bf3d75ef465d3e404,,,,,,,,,,,,,,,,,,,,,,,,,,,,,,,,,,,,,,,,,,,,,,,,,,,,,,,,,,,,,,,,,,,,,,,,,,,,,,,,,,,,,,,,,,,,,,,,,,,,,,,,,,,,,,,,,,,,,,,,,,,,,,,,,,,,,,,,,,,,,,,,,,,,,,,,,,,,,,
0,79,79,92,1,,5d45afeb62ed9000197adbb8,62bbf94ea39084a135abfcd3,2022-06-29_09h05.15.087,Colour_Asymmetry_Pilot,2022.1.3,Win32,59.70149254,62bbe60bf3d75ef465d3e404,,,,,,,,,,,,,,,,,,,,,,,,,,,,,,,,,,,,,,,,,,,,,,,,,,,,,,,,,,,,,,,,,,,,,,,,,,,,,,,,,,,,,,,,,,,,,,,,,,,,,,,,,,,,,,,,,,,,,,,,,,,,,,,,,,,,,,,,,,,,,,,,,,,,,,,,,,,,,,
0,80,80,26,1,,5d45afeb62ed9000197adbb8,62bbf94ea39084a135abfcd3,2022-06-29_09h05.15.087,Colour_Asymmetry_Pilot,2022.1.3,Win32,59.70149254,62bbe60bf3d75ef465d3e404,,,,,,,,,,,,,,,,,,,,,,,,,,,,,,,,,,,,,,,,,,,,,,,,,,,,,,,,,,,,,,,,,,,,,,,,,,,,,,,,,,,,,,,,,,,,,,,,,,,,,,,,,,,,,,,,,,,,,,,,,,,,,,,,,,,,,,,,,,,,,,,,,,,,,,,,,,,,,,
0,81,81,59,1,,5d45afeb62ed9000197adbb8,62bbf94ea39084a135abfcd3,2022-06-29_09h05.15.087,Colour_Asymmetry_Pilot,2022.1.3,Win32,59.70149254,62bbe60bf3d75ef465d3e404,,,,,,,,,,,,,,,,,,,,,,,,,,,,,,,,,,,,,,,,,,,,,,,,,,,,,,,,,,,,,,,,,,,,,,,,,,,,,,,,,,,,,,,,,,,,,,,,,,,,,,,,,,,,,,,,,,,,,,,,,,,,,,,,,,,,,,,,,,,,,,,,,,,,,,,,,,,,,,
0,82,82,30,1,,5d45afeb62ed9000197adbb8,62bbf94ea39084a135abfcd3,2022-06-29_09h05.15.087,Colour_Asymmetry_Pilot,2022.1.3,Win32,59.70149254,62bbe60bf3d75ef465d3e404,,,,,,,,,,,,,,,,,,,,,,,,,,,,,,,,,,,,,,,,,,,,,,,,,,,,,,,,,,,,,,,,,,,,,,,,,,,,,,,,,,,,,,,,,,,,,,,,,,,,,,,,,,,,,,,,,,,,,,,,,,,,,,,,,,,,,,,,,,,,,,,,,,,,,,,,,,,,,,
0,83,83,65,1,,5d45afeb62ed9000197adbb8,62bbf94ea39084a135abfcd3,2022-06-29_09h05.15.087,Colour_Asymmetry_Pilot,2022.1.3,Win32,59.70149254,62bbe60bf3d75ef465d3e404,,,,,,,,,,,,,,,,,,,,,,,,,,,,,,,,,,,,,,,,,,,,,,,,,,,,,,,,,,,,,,,,,,,,,,,,,,,,,,,,,,,,,,,,,,,,,,,,,,,,,,,,,,,,,,,,,,,,,,,,,,,,,,,,,,,,,,,,,,,,,,,,,,,,,,,,,,,,,,
0,84,84,24,1,,5d45afeb62ed9000197adbb8,62bbf94ea39084a135abfcd3,2022-06-29_09h05.15.087,Colour_Asymmetry_Pilot,2022.1.3,Win32,59.70149254,62bbe60bf3d75ef465d3e404,,,,,,,,,,,,,,,,,,,,,,,,,,,,,,,,,,,,,,,,,,,,,,,,,,,,,,,,,,,,,,,,,,,,,,,,,,,,,,,,,,,,,,,,,,,,,,,,,,,,,,,,,,,,,,,,,,,,,,,,,,,,,,,,,,,,,,,,,,,,,,,,,,,,,,,,,,,,,,
0,85,85,39,1,,5d45afeb62ed9000197adbb8,62bbf94ea39084a135abfcd3,2022-06-29_09h05.15.087,Colour_Asymmetry_Pilot,2022.1.3,Win32,59.70149254,62bbe60bf3d75ef465d3e404,,,,,,,,,,,,,,,,,,,,,,,,,,,,,,,,,,,,,,,,,,,,,,,,,,,,,,,,,,,,,,,,,,,,,,,,,,,,,,,,,,,,,,,,,,,,,,,,,,,,,,,,,,,,,,,,,,,,,,,,,,,,,,,,,,,,,,,,,,,,,,,,,,,,,,,,,,,,,,
0,86,86,35,1,,5d45afeb62ed9000197adbb8,62bbf94ea39084a135abfcd3,2022-06-29_09h05.15.087,Colour_Asymmetry_Pilot,2022.1.3,Win32,59.70149254,62bbe60bf3d75ef465d3e404,,,,,,,,,,,,,,,,,,,,,,,,,,,,,,,,,,,,,,,,,,,,,,,,,,,,,,,,,,,,,,,,,,,,,,,,,,,,,,,,,,,,,,,,,,,,,,,,,,,,,,,,,,,,,,,,,,,,,,,,,,,,,,,,,,,,,,,,,,,,,,,,,,,,,,,,,,,,,,
0,87,87,1,1,,5d45afeb62ed9000197adbb8,62bbf94ea39084a135abfcd3,2022-06-29_09h05.15.087,Colour_Asymmetry_Pilot,2022.1.3,Win32,59.70149254,62bbe60bf3d75ef465d3e404,,,,,,,,,,,,,,,,,,,,,,,,,,,,,,,,,,,,,,,,,,,,,,,,,,,,,,,,,,,,,,,,,,,,,,,,,,,,,,,,,,,,,,,,,,,,,,,,,,,,,,,,,,,,,,,,,,,,,,,,,,,,,,,,,,,,,,,,,,,,,,,,,,,,,,,,,,,,,,
0,88,88,67,1,,5d45afeb62ed9000197adbb8,62bbf94ea39084a135abfcd3,2022-06-29_09h05.15.087,Colour_Asymmetry_Pilot,2022.1.3,Win32,59.70149254,62bbe60bf3d75ef465d3e404,,,,,,,,,,,,,,,,,,,,,,,,,,,,,,,,,,,,,,,,,,,,,,,,,,,,,,,,,,,,,,,,,,,,,,,,,,,,,,,,,,,,,,,,,,,,,,,,,,,,,,,,,,,,,,,,,,,,,,,,,,,,,,,,,,,,,,,,,,,,,,,,,,,,,,,,,,,,,,
0,89,89,89,1,,5d45afeb62ed9000197adbb8,62bbf94ea39084a135abfcd3,2022-06-29_09h05.15.087,Colour_Asymmetry_Pilot,2022.1.3,Win32,59.70149254,62bbe60bf3d75ef465d3e404,,,,,,,,,,,,,,,,,,,,,,,,,,,,,,,,,,,,,,,,,,,,,,,,,,,,,,,,,,,,,,,,,,,,,,,,,,,,,,,,,,,,,,,,,,,,,,,,,,,,,,,,,,,,,,,,,,,,,,,,,,,,,,,,,,,,,,,,,,,,,,,,,,,,,,,,,,,,,,
0,90,90,76,1,,5d45afeb62ed9000197adbb8,62bbf94ea39084a135abfcd3,2022-06-29_09h05.15.087,Colour_Asymmetry_Pilot,2022.1.3,Win32,59.70149254,62bbe60bf3d75ef465d3e404,,,,,,,,,,,,,,,,,,,,,,,,,,,,,,,,,,,,,,,,,,,,,,,,,,,,,,,,,,,,,,,,,,,,,,,,,,,,,,,,,,,,,,,,,,,,,,,,,,,,,,,,,,,,,,,,,,,,,,,,,,,,,,,,,,,,,,,,,,,,,,,,,,,,,,,,,,,,,,
0,91,91,50,1,,5d45afeb62ed9000197adbb8,62bbf94ea39084a135abfcd3,2022-06-29_09h05.15.087,Colour_Asymmetry_Pilot,2022.1.3,Win32,59.70149254,62bbe60bf3d75ef465d3e404,,,,,,,,,,,,,,,,,,,,,,,,,,,,,,,,,,,,,,,,,,,,,,,,,,,,,,,,,,,,,,,,,,,,,,,,,,,,,,,,,,,,,,,,,,,,,,,,,,,,,,,,,,,,,,,,,,,,,,,,,,,,,,,,,,,,,,,,,,,,,,,,,,,,,,,,,,,,,,
0,92,92,33,1,,5d45afeb62ed9000197adbb8,62bbf94ea39084a135abfcd3,2022-06-29_09h05.15.087,Colour_Asymmetry_Pilot,2022.1.3,Win32,59.70149254,62bbe60bf3d75ef465d3e404,,,,,,,,,,,,,,,,,,,,,,,,,,,,,,,,,,,,,,,,,,,,,,,,,,,,,,,,,,,,,,,,,,,,,,,,,,,,,,,,,,,,,,,,,,,,,,,,,,,,,,,,,,,,,,,,,,,,,,,,,,,,,,,,,,,,,,,,,,,,,,,,,,,,,,,,,,,,,,
,,,,,,5d45afeb62ed9000197adbb8,62bbf94ea39084a135abfcd3,2022-06-29_09h05.15.087,Colour_Asymmetry_Pilot,2022.1.3,Win32,59.70149254,62bbe60bf3d75ef465d3e404,0,0,0,93,1,threefour,,,,,,,,,,,,,,,,,,,,,,,,,,,,,,,,,,,,,,,,,,,,,,,,,,,,,,,,,,,,,,,,,,,,,,,,,,,,,,,,,,,,,,,,,,,,,,,,,,,,,,,,,,,,,,,,,,,,,,,,,,,,,,,,,,,,,,,,,,,,,,,,,,,,,,,,
,,,,,,5d45afeb62ed9000197adbb8,62bbf94ea39084a135abfcd3,2022-06-29_09h05.15.087,Colour_Asymmetry_Pilot,2022.1.3,Win32,59.70149254,62bbe60bf3d75ef465d3e404,0,1,1,50,1,twoone,,,,,,,,,,,,,,,,,,,,,,,,,,,,,,,,,,,,,,,,,,,,,,,,,,,,,,,,,,,,,,,,,,,,,,,,,,,,,,,,,,,,,,,,,,,,,,,,,,,,,,,,,,,,,,,,,,,,,,,,,,,,,,,,,,,,,,,,,,,,,,,,,,,,,,,,
,,,,,,5d45afeb62ed9000197adbb8,62bbf94ea39084a135abfcd3,2022-06-29_09h05.15.087,Colour_Asymmetry_Pilot,2022.1.3,Win32,59.70149254,62bbe60bf3d75ef465d3e404,0,2,2,66,1,twoone,,,,,,,,,,,,,,,,,,,,,,,,,,,,,,,,,,,,,,,,,,,,,,,,,,,,,,,,,,,,,,,,,,,,,,,,,,,,,,,,,,,,,,,,,,,,,,,,,,,,,,,,,,,,,,,,,,,,,,,,,,,,,,,,,,,,,,,,,,,,,,,,,,,,,,,,
,,,,,,5d45afeb62ed9000197adbb8,62bbf94ea39084a135abfcd3,2022-06-29_09h05.15.087,Colour_Asymmetry_Pilot,2022.1.3,Win32,59.70149254,62bbe60bf3d75ef465d3e404,0,3,3,42,1,twoone,,,,,,,,,,,,,,,,,,,,,,,,,,,,,,,,,,,,,,,,,,,,,,,,,,,,,,,,,,,,,,,,,,,,,,,,,,,,,,,,,,,,,,,,,,,,,,,,,,,,,,,,,,,,,,,,,,,,,,,,,,,,,,,,,,,,,,,,,,,,,,,,,,,,,,,,
,,,,,,5d45afeb62ed9000197adbb8,62bbf94ea39084a135abfcd3,2022-06-29_09h05.15.087,Colour_Asymmetry_Pilot,2022.1.3,Win32,59.70149254,62bbe60bf3d75ef465d3e404,0,4,4,47,1,fourthree,,,,,,,,,,,,,,,,,,,,,,,,,,,,,,,,,,,,,,,,,,,,,,,,,,,,,,,,,,,,,,,,,,,,,,,,,,,,,,,,,,,,,,,,,,,,,,,,,,,,,,,,,,,,,,,,,,,,,,,,,,,,,,,,,,,,,,,,,,,,,,,,,,,,,,,,
,,,,,,5d45afeb62ed9000197adbb8,62bbf94ea39084a135abfcd3,2022-06-29_09h05.15.087,Colour_Asymmetry_Pilot,2022.1.3,Win32,59.70149254,62bbe60bf3d75ef465d3e404,0,5,5,88,1,onetwo,,,,,,,,,,,,,,,,,,,,,,,,,,,,,,,,,,,,,,,,,,,,,,,,,,,,,,,,,,,,,,,,,,,,,,,,,,,,,,,,,,,,,,,,,,,,,,,,,,,,,,,,,,,,,,,,,,,,,,,,,,,,,,,,,,,,,,,,,,,,,,,,,,,,,,,,
,,,,,,5d45afeb62ed9000197adbb8,62bbf94ea39084a135abfcd3,2022-06-29_09h05.15.087,Colour_Asymmetry_Pilot,2022.1.3,Win32,59.70149254,62bbe60bf3d75ef465d3e404,0,6,6,8,1,onetwo,,,,,,,,,,,,,,,,,,,,,,,,,,,,,,,,,,,,,,,,,,,,,,,,,,,,,,,,,,,,,,,,,,,,,,,,,,,,,,,,,,,,,,,,,,,,,,,,,,,,,,,,,,,,,,,,,,,,,,,,,,,,,,,,,,,,,,,,,,,,,,,,,,,,,,,,
,,,,,,5d45afeb62ed9000197adbb8,62bbf94ea39084a135abfcd3,2022-06-29_09h05.15.087,Colour_Asymmetry_Pilot,2022.1.3,Win32,59.70149254,62bbe60bf3d75ef465d3e404,0,7,7,18,1,twoone,,,,,,,,,,,,,,,,,,,,,,,,,,,,,,,,,,,,,,,,,,,,,,,,,,,,,,,,,,,,,,,,,,,,,,,,,,,,,,,,,,,,,,,,,,,,,,,,,,,,,,,,,,,,,,,,,,,,,,,,,,,,,,,,,,,,,,,,,,,,,,,,,,,,,,,,
,,,,,,5d45afeb62ed9000197adbb8,62bbf94ea39084a135abfcd3,2022-06-29_09h05.15.087,Colour_Asymmetry_Pilot,2022.1.3,Win32,59.70149254,62bbe60bf3d75ef465d3e404,0,8,8,53,1,threefour,,,,,,,,,,,,,,,,,,,,,,,,,,,,,,,,,,,,,,,,,,,,,,,,,,,,,,,,,,,,,,,,,,,,,,,,,,,,,,,,,,,,,,,,,,,,,,,,,,,,,,,,,,,,,,,,,,,,,,,,,,,,,,,,,,,,,,,,,,,,,,,,,,,,,,,,
,,,,,,5d45afeb62ed9000197adbb8,62bbf94ea39084a135abfcd3,2022-06-29_09h05.15.087,Colour_Asymmetry_Pilot,2022.1.3,Win32,59.70149254,62bbe60bf3d75ef465d3e404,0,9,9,64,1,onetwo,,,,,,,,,,,,,,,,,,,,,,,,,,,,,,,,,,,,,,,,,,,,,,,,,,,,,,,,,,,,,,,,,,,,,,,,,,,,,,,,,,,,,,,,,,,,,,,,,,,,,,,,,,,,,,,,,,,,,,,,,,,,,,,,,,,,,,,,,,,,,,,,,,,,,,,,
,,,,,,5d45afeb62ed9000197adbb8,62bbf94ea39084a135abfcd3,2022-06-29_09h05.15.087,Colour_Asymmetry_Pilot,2022.1.3,Win32,59.70149254,62bbe60bf3d75ef465d3e404,0,10,10,105,1,onethree,,,,,,,,,,,,,,,,,,,,,,,,,,,,,,,,,,,,,,,,,,,,,,,,,,,,,,,,,,,,,,,,,,,,,,,,,,,,,,,,,,,,,,,,,,,,,,,,,,,,,,,,,,,,,,,,,,,,,,,,,,,,,,,,,,,,,,,,,,,,,,,,,,,,,,,,
,,,,,,5d45afeb62ed9000197adbb8,62bbf94ea39084a135abfcd3,2022-06-29_09h05.15.087,Colour_Asymmetry_Pilot,2022.1.3,Win32,59.70149254,62bbe60bf3d75ef465d3e404,0,11,11,118,1,fourtwo,,,,,,,,,,,,,,,,,,,,,,,,,,,,,,,,,,,,,,,,,,,,,,,,,,,,,,,,,,,,,,,,,,,,,,,,,,,,,,,,,,,,,,,,,,,,,,,,,,,,,,,,,,,,,,,,,,,,,,,,,,,,,,,,,,,,,,,,,,,,,,,,,,,,,,,,
,,,,,,5d45afeb62ed9000197adbb8,62bbf94ea39084a135abfcd3,2022-06-29_09h05.15.087,Colour_Asymmetry_Pilot,2022.1.3,Win32,59.70149254,62bbe60bf3d75ef465d3e404,0,12,12,68,1,threeone,,,,,,,,,,,,,,,,,,,,,,,,,,,,,,,,,,,,,,,,,,,,,,,,,,,,,,,,,,,,,,,,,,,,,,,,,,,,,,,,,,,,,,,,,,,,,,,,,,,,,,,,,,,,,,,,,,,,,,,,,,,,,,,,,,,,,,,,,,,,,,,,,,,,,,,,
,,,,,,5d45afeb62ed9000197adbb8,62bbf94ea39084a135abfcd3,2022-06-29_09h05.15.087,Colour_Asymmetry_Pilot,2022.1.3,Win32,59.70149254,62bbe60bf3d75ef465d3e404,0,13,13,23,1,fourthree,,,,,,,,,,,,,,,,,,,,,,,,,,,,,,,,,,,,,,,,,,,,,,,,,,,,,,,,,,,,,,,,,,,,,,,,,,,,,,,,,,,,,,,,,,,,,,,,,,,,,,,,,,,,,,,,,,,,,,,,,,,,,,,,,,,,,,,,,,,,,,,,,,,,,,,,
,,,,,,5d45afeb62ed9000197adbb8,62bbf94ea39084a135abfcd3,2022-06-29_09h05.15.087,Colour_Asymmetry_Pilot,2022.1.3,Win32,59.70149254,62bbe60bf3d75ef465d3e404,0,14,14,144,1,onetwo,,,,,,,,,,,,,,,,,,,,,,,,,,,,,,,,,,,,,,,,,,,,,,,,,,,,,,,,,,,,,,,,,,,,,,,,,,,,,,,,,,,,,,,,,,,,,,,,,,,,,,,,,,,,,,,,,,,,,,,,,,,,,,,,,,,,,,,,,,,,,,,,,,,,,,,,
,,,,,,5d45afeb62ed9000197adbb8,62bbf94ea39084a135abfcd3,2022-06-29_09h05.15.087,Colour_Asymmetry_Pilot,2022.1.3,Win32,59.70149254,62bbe60bf3d75ef465d3e404,0,15,15,26,1,twoone,,,,,,,,,,,,,,,,,,,,,,,,,,,,,,,,,,,,,,,,,,,,,,,,,,,,,,,,,,,,,,,,,,,,,,,,,,,,,,,,,,,,,,,,,,,,,,,,,,,,,,,,,,,,,,,,,,,,,,,,,,,,,,,,,,,,,,,,,,,,,,,,,,,,,,,,
,,,,,,5d45afeb62ed9000197adbb8,62bbf94ea39084a135abfcd3,2022-06-29_09h05.15.087,Colour_Asymmetry_Pilot,2022.1.3,Win32,59.70149254,62bbe60bf3d75ef465d3e404,0,16,16,154,1,twoone,,,,,,,,,,,,,,,,,,,,,,,,,,,,,,,,,,,,,,,,,,,,,,,,,,,,,,,,,,,,,,,,,,,,,,,,,,,,,,,,,,,,,,,,,,,,,,,,,,,,,,,,,,,,,,,,,,,,,,,,,,,,,,,,,,,,,,,,,,,,,,,,,,,,,,,,
,,,,,,5d45afeb62ed9000197adbb8,62bbf94ea39084a135abfcd3,2022-06-29_09h05.15.087,Colour_Asymmetry_Pilot,2022.1.3,Win32,59.70149254,62bbe60bf3d75ef465d3e404,0,17,17,19,1,twofour,,,,,,,,,,,,,,,,,,,,,,,,,,,,,,,,,,,,,,,,,,,,,,,,,,,,,,,,,,,,,,,,,,,,,,,,,,,,,,,,,,,,,,,,,,,,,,,,,,,,,,,,,,,,,,,,,,,,,,,,,,,,,,,,,,,,,,,,,,,,,,,,,,,,,,,,
,,,,,,5d45afeb62ed9000197adbb8,62bbf94ea39084a135abfcd3,2022-06-29_09h05.15.087,Colour_Asymmetry_Pilot,2022.1.3,Win32,59.70149254,62bbe60bf3d75ef465d3e404,0,18,18,44,1,threeone,,,,,,,,,,,,,,,,,,,,,,,,,,,,,,,,,,,,,,,,,,,,,,,,,,,,,,,,,,,,,,,,,,,,,,,,,,,,,,,,,,,,,,,,,,,,,,,,,,,,,,,,,,,,,,,,,,,,,,,,,,,,,,,,,,,,,,,,,,,,,,,,,,,,,,,,
,,,,,,5d45afeb62ed9000197adbb8,62bbf94ea39084a135abfcd3,2022-06-29_09h05.15.087,Colour_Asymmetry_Pilot,2022.1.3,Win32,59.70149254,62bbe60bf3d75ef465d3e404,0,19,19,41,1,onethree,,,,,,,,,,,,,,,,,,,,,,,,,,,,,,,,,,,,,,,,,,,,,,,,,,,,,,,,,,,,,,,,,,,,,,,,,,,,,,,,,,,,,,,,,,,,,,,,,,,,,,,,,,,,,,,,,,,,,,,,,,,,,,,,,,,,,,,,,,,,,,,,,,,,,,,,
,,,,,,5d45afeb62ed9000197adbb8,62bbf94ea39084a135abfcd3,2022-06-29_09h05.15.087,Colour_Asymmetry_Pilot,2022.1.3,Win32,59.70149254,62bbe60bf3d75ef465d3e404,0,20,20,125,1,threefour,,,,,,,,,,,,,,,,,,,,,,,,,,,,,,,,,,,,,,,,,,,,,,,,,,,,,,,,,,,,,,,,,,,,,,,,,,,,,,,,,,,,,,,,,,,,,,,,,,,,,,,,,,,,,,,,,,,,,,,,,,,,,,,,,,,,,,,,,,,,,,,,,,,,,,,,
,,,,,,5d45afeb62ed9000197adbb8,62bbf94ea39084a135abfcd3,2022-06-29_09h05.15.087,Colour_Asymmetry_Pilot,2022.1.3,Win32,59.70149254,62bbe60bf3d75ef465d3e404,0,21,21,112,1,onetwo,,,,,,,,,,,,,,,,,,,,,,,,,,,,,,,,,,,,,,,,,,,,,,,,,,,,,,,,,,,,,,,,,,,,,,,,,,,,,,,,,,,,,,,,,,,,,,,,,,,,,,,,,,,,,,,,,,,,,,,,,,,,,,,,,,,,,,,,,,,,,,,,,,,,,,,,
,,,,,,5d45afeb62ed9000197adbb8,62bbf94ea39084a135abfcd3,2022-06-29_09h05.15.087,Colour_Asymmetry_Pilot,2022.1.3,Win32,59.70149254,62bbe60bf3d75ef465d3e404,0,22,22,16,1,onetwo,,,,,,,,,,,,,,,,,,,,,,,,,,,,,,,,,,,,,,,,,,,,,,,,,,,,,,,,,,,,,,,,,,,,,,,,,,,,,,,,,,,,,,,,,,,,,,,,,,,,,,,,,,,,,,,,,,,,,,,,,,,,,,,,,,,,,,,,,,,,,,,,,,,,,,,,
,,,,,,5d45afeb62ed9000197adbb8,62bbf94ea39084a135abfcd3,2022-06-29_09h05.15.087,Colour_Asymmetry_Pilot,2022.1.3,Win32,59.70149254,62bbe60bf3d75ef465d3e404,0,23,23,31,1,fourthree,,,,,,,,,,,,,,,,,,,,,,,,,,,,,,,,,,,,,,,,,,,,,,,,,,,,,,,,,,,,,,,,,,,,,,,,,,,,,,,,,,,,,,,,,,,,,,,,,,,,,,,,,,,,,,,,,,,,,,,,,,,,,,,,,,,,,,,,,,,,,,,,,,,,,,,,
,,,,,,5d45afeb62ed9000197adbb8,62bbf94ea39084a135abfcd3,2022-06-29_09h05.15.087,Colour_Asymmetry_Pilot,2022.1.3,Win32,59.70149254,62bbe60bf3d75ef465d3e404,0,24,24,131,1,twofour,,,,,,,,,,,,,,,,,,,,,,,,,,,,,,,,,,,,,,,,,,,,,,,,,,,,,,,,,,,,,,,,,,,,,,,,,,,,,,,,,,,,,,,,,,,,,,,,,,,,,,,,,,,,,,,,,,,,,,,,,,,,,,,,,,,,,,,,,,,,,,,,,,,,,,,,
,,,,,,5d45afeb62ed9000197adbb8,62bbf94ea39084a135abfcd3,2022-06-29_09h05.15.087,Colour_Asymmetry_Pilot,2022.1.3,Win32,59.70149254,62bbe60bf3d75ef465d3e404,0,25,25,40,1,onetwo,,,,,,,,,,,,,,,,,,,,,,,,,,,,,,,,,,,,,,,,,,,,,,,,,,,,,,,,,,,,,,,,,,,,,,,,,,,,,,,,,,,,,,,,,,,,,,,,,,,,,,,,,,,,,,,,,,,,,,,,,,,,,,,,,,,,,,,,,,,,,,,,,,,,,,,,
,,,,,,5d45afeb62ed9000197adbb8,62bbf94ea39084a135abfcd3,2022-06-29_09h05.15.087,Colour_Asymmetry_Pilot,2022.1.3,Win32,59.70149254,62bbe60bf3d75ef465d3e404,0,26,26,121,1,onethree,,,,,,,,,,,,,,,,,,,,,,,,,,,,,,,,,,,,,,,,,,,,,,,,,,,,,,,,,,,,,,,,,,,,,,,,,,,,,,,,,,,,,,,,,,,,,,,,,,,,,,,,,,,,,,,,,,,,,,,,,,,,,,,,,,,,,,,,,,,,,,,,,,,,,,,,
,,,,,,5d45afeb62ed9000197adbb8,62bbf94ea39084a135abfcd3,2022-06-29_09h05.15.087,Colour_Asymmetry_Pilot,2022.1.3,Win32,59.70149254,62bbe60bf3d75ef465d3e404,0,27,27,101,1,threefour,,,,,,,,,,,,,,,,,,,,,,,,,,,,,,,,,,,,,,,,,,,,,,,,,,,,,,,,,,,,,,,,,,,,,,,,,,,,,,,,,,,,,,,,,,,,,,,,,,,,,,,,,,,,,,,,,,,,,,,,,,,,,,,,,,,,,,,,,,,,,,,,,,,,,,,,
,,,,,,5d45afeb62ed9000197adbb8,62bbf94ea39084a135abfcd3,2022-06-29_09h05.15.087,Colour_Asymmetry_Pilot,2022.1.3,Win32,59.70149254,62bbe60bf3d75ef465d3e404,0,28,28,35,1,twofour,,,,,,,,,,,,,,,,,,,,,,,,,,,,,,,,,,,,,,,,,,,,,,,,,,,,,,,,,,,,,,,,,,,,,,,,,,,,,,,,,,,,,,,,,,,,,,,,,,,,,,,,,,,,,,,,,,,,,,,,,,,,,,,,,,,,,,,,,,,,,,,,,,,,,,,,
,,,,,,5d45afeb62ed9000197adbb8,62bbf94ea39084a135abfcd3,2022-06-29_09h05.15.087,Colour_Asymmetry_Pilot,2022.1.3,Win32,59.70149254,62bbe60bf3d75ef465d3e404,0,29,29,150,1,fourtwo,,,,,,,,,,,,,,,,,,,,,,,,,,,,,,,,,,,,,,,,,,,,,,,,,,,,,,,,,,,,,,,,,,,,,,,,,,,,,,,,,,,,,,,,,,,,,,,,,,,,,,,,,,,,,,,,,,,,,,,,,,,,,,,,,,,,,,,,,,,,,,,,,,,,,,,,
,,,,,,5d45afeb62ed9000197adbb8,62bbf94ea39084a135abfcd3,2022-06-29_09h05.15.087,Colour_Asymmetry_Pilot,2022.1.3,Win32,59.70149254,62bbe60bf3d75ef465d3e404,0,30,30,119,1,fourthree,,,,,,,,,,,,,,,,,,,,,,,,,,,,,,,,,,,,,,,,,,,,,,,,,,,,,,,,,,,,,,,,,,,,,,,,,,,,,,,,,,,,,,,,,,,,,,,,,,,,,,,,,,,,,,,,,,,,,,,,,,,,,,,,,,,,,,,,,,,,,,,,,,,,,,,,
,,,,,,5d45afeb62ed9000197adbb8,62bbf94ea39084a135abfcd3,2022-06-29_09h05.15.087,Colour_Asymmetry_Pilot,2022.1.3,Win32,59.70149254,62bbe60bf3d75ef465d3e404,0,31,31,136,1,onetwo,,,,,,,,,,,,,,,,,,,,,,,,,,,,,,,,,,,,,,,,,,,,,,,,,,,,,,,,,,,,,,,,,,,,,,,,,,,,,,,,,,,,,,,,,,,,,,,,,,,,,,,,,,,,,,,,,,,,,,,,,,,,,,,,,,,,,,,,,,,,,,,,,,,,,,,,
,,,,,,5d45afeb62ed9000197adbb8,62bbf94ea39084a135abfcd3,2022-06-29_09h05.15.087,Colour_Asymmetry_Pilot,2022.1.3,Win32,59.70149254,62bbe60bf3d75ef465d3e404,0,32,32,87,1,fourthree,,,,,,,,,,,,,,,,,,,,,,,,,,,,,,,,,,,,,,,,,,,,,,,,,,,,,,,,,,,,,,,,,,,,,,,,,,,,,,,,,,,,,,,,,,,,,,,,,,,,,,,,,,,,,,,,,,,,,,,,,,,,,,,,,,,,,,,,,,,,,,,,,,,,,,,,
,,,,,,5d45afeb62ed9000197adbb8,62bbf94ea39084a135abfcd3,2022-06-29_09h05.15.087,Colour_Asymmetry_Pilot,2022.1.3,Win32,59.70149254,62bbe60bf3d75ef465d3e404,0,33,33,39,1,fourthree,,,,,,,,,,,,,,,,,,,,,,,,,,,,,,,,,,,,,,,,,,,,,,,,,,,,,,,,,,,,,,,,,,,,,,,,,,,,,,,,,,,,,,,,,,,,,,,,,,,,,,,,,,,,,,,,,,,,,,,,,,,,,,,,,,,,,,,,,,,,,,,,,,,,,,,,
,,,,,,5d45afeb62ed9000197adbb8,62bbf94ea39084a135abfcd3,2022-06-29_09h05.15.087,Colour_Asymmetry_Pilot,2022.1.3,Win32,59.70149254,62bbe60bf3d75ef465d3e404,0,34,34,65,1,onethree,,,,,,,,,,,,,,,,,,,,,,,,,,,,,,,,,,,,,,,,,,,,,,,,,,,,,,,,,,,,,,,,,,,,,,,,,,,,,,,,,,,,,,,,,,,,,,,,,,,,,,,,,,,,,,,,,,,,,,,,,,,,,,,,,,,,,,,,,,,,,,,,,,,,,,,,
,,,,,,5d45afeb62ed9000197adbb8,62bbf94ea39084a135abfcd3,2022-06-29_09h05.15.087,Colour_Asymmetry_Pilot,2022.1.3,Win32,59.70149254,62bbe60bf3d75ef465d3e404,0,35,35,123,1,twofour,,,,,,,,,,,,,,,,,,,,,,,,,,,,,,,,,,,,,,,,,,,,,,,,,,,,,,,,,,,,,,,,,,,,,,,,,,,,,,,,,,,,,,,,,,,,,,,,,,,,,,,,,,,,,,,,,,,,,,,,,,,,,,,,,,,,,,,,,,,,,,,,,,,,,,,,
,,,,,,5d45afeb62ed9000197adbb8,62bbf94ea39084a135abfcd3,2022-06-29_09h05.15.087,Colour_Asymmetry_Pilot,2022.1.3,Win32,59.70149254,62bbe60bf3d75ef465d3e404,0,36,36,91,1,twofour,,,,,,,,,,,,,,,,,,,,,,,,,,,,,,,,,,,,,,,,,,,,,,,,,,,,,,,,,,,,,,,,,,,,,,,,,,,,,,,,,,,,,,,,,,,,,,,,,,,,,,,,,,,,,,,,,,,,,,,,,,,,,,,,,,,,,,,,,,,,,,,,,,,,,,,,
,,,,,,5d45afeb62ed9000197adbb8,62bbf94ea39084a135abfcd3,2022-06-29_09h05.15.087,Colour_Asymmetry_Pilot,2022.1.3,Win32,59.70149254,62bbe60bf3d75ef465d3e404,0,37,37,30,1,fourtwo,,,,,,,,,,,,,,,,,,,,,,,,,,,,,,,,,,,,,,,,,,,,,,,,,,,,,,,,,,,,,,,,,,,,,,,,,,,,,,,,,,,,,,,,,,,,,,,,,,,,,,,,,,,,,,,,,,,,,,,,,,,,,,,,,,,,,,,,,,,,,,,,,,,,,,,,
,,,,,,5d45afeb62ed9000197adbb8,62bbf94ea39084a135abfcd3,2022-06-29_09h05.15.087,Colour_Asymmetry_Pilot,2022.1.3,Win32,59.70149254,62bbe60bf3d75ef465d3e404,0,38,38,160,1,onetwo,,,,,,,,,,,,,,,,,,,,,,,,,,,,,,,,,,,,,,,,,,,,,,,,,,,,,,,,,,,,,,,,,,,,,,,,,,,,,,,,,,,,,,,,,,,,,,,,,,,,,,,,,,,,,,,,,,,,,,,,,,,,,,,,,,,,,,,,,,,,,,,,,,,,,,,,
,,,,,,5d45afeb62ed9000197adbb8,62bbf94ea39084a135abfcd3,2022-06-29_09h05.15.087,Colour_Asymmetry_Pilot,2022.1.3,Win32,59.70149254,62bbe60bf3d75ef465d3e404,0,39,39,114,1,twoone,,,,,,,,,,,,,,,,,,,,,,,,,,,,,,,,,,,,,,,,,,,,,,,,,,,,,,,,,,,,,,,,,,,,,,,,,,,,,,,,,,,,,,,,,,,,,,,,,,,,,,,,,,,,,,,,,,,,,,,,,,,,,,,,,,,,,,,,,,,,,,,,,,,,,,,,
,,,,,,5d45afeb62ed9000197adbb8,62bbf94ea39084a135abfcd3,2022-06-29_09h05.15.087,Colour_Asymmetry_Pilot,2022.1.3,Win32,59.70149254,62bbe60bf3d75ef465d3e404,0,40,40,78,1,fourtwo,,,,,,,,,,,,,,,,,,,,,,,,,,,,,,,,,,,,,,,,,,,,,,,,,,,,,,,,,,,,,,,,,,,,,,,,,,,,,,,,,,,,,,,,,,,,,,,,,,,,,,,,,,,,,,,,,,,,,,,,,,,,,,,,,,,,,,,,,,,,,,,,,,,,,,,,
,,,,,,5d45afeb62ed9000197adbb8,62bbf94ea39084a135abfcd3,2022-06-29_09h05.15.087,Colour_Asymmetry_Pilot,2022.1.3,Win32,59.70149254,62bbe60bf3d75ef465d3e404,0,41,41,36,1,threeone,,,,,,,,,,,,,,,,,,,,,,,,,,,,,,,,,,,,,,,,,,,,,,,,,,,,,,,,,,,,,,,,,,,,,,,,,,,,,,,,,,,,,,,,,,,,,,,,,,,,,,,,,,,,,,,,,,,,,,,,,,,,,,,,,,,,,,,,,,,,,,,,,,,,,,,,
,,,,,,5d45afeb62ed9000197adbb8,62bbf94ea39084a135abfcd3,2022-06-29_09h05.15.087,Colour_Asymmetry_Pilot,2022.1.3,Win32,59.70149254,62bbe60bf3d75ef465d3e404,0,42,42,51,1,twofour,,,,,,,,,,,,,,,,,,,,,,,,,,,,,,,,,,,,,,,,,,,,,,,,,,,,,,,,,,,,,,,,,,,,,,,,,,,,,,,,,,,,,,,,,,,,,,,,,,,,,,,,,,,,,,,,,,,,,,,,,,,,,,,,,,,,,,,,,,,,,,,,,,,,,,,,
,,,,,,5d45afeb62ed9000197adbb8,62bbf94ea39084a135abfcd3,2022-06-29_09h05.15.087,Colour_Asymmetry_Pilot,2022.1.3,Win32,59.70149254,62bbe60bf3d75ef465d3e404,0,43,43,152,1,onetwo,,,,,,,,,,,,,,,,,,,,,,,,,,,,,,,,,,,,,,,,,,,,,,,,,,,,,,,,,,,,,,,,,,,,,,,,,,,,,,,,,,,,,,,,,,,,,,,,,,,,,,,,,,,,,,,,,,,,,,,,,,,,,,,,,,,,,,,,,,,,,,,,,,,,,,,,
,,,,,,5d45afeb62ed9000197adbb8,62bbf94ea39084a135abfcd3,2022-06-29_09h05.15.087,Colour_Asymmetry_Pilot,2022.1.3,Win32,59.70149254,62bbe60bf3d75ef465d3e404,0,44,44,37,1,threefour,,,,,,,,,,,,,,,,,,,,,,,,,,,,,,,,,,,,,,,,,,,,,,,,,,,,,,,,,,,,,,,,,,,,,,,,,,,,,,,,,,,,,,,,,,,,,,,,,,,,,,,,,,,,,,,,,,,,,,,,,,,,,,,,,,,,,,,,,,,,,,,,,,,,,,,,
,,,,,,5d45afeb62ed9000197adbb8,62bbf94ea39084a135abfcd3,2022-06-29_09h05.15.087,Colour_Asymmetry_Pilot,2022.1.3,Win32,59.70149254,62bbe60bf3d75ef465d3e404,0,45,45,142,1,fourtwo,,,,,,,,,,,,,,,,,,,,,,,,,,,,,,,,,,,,,,,,,,,,,,,,,,,,,,,,,,,,,,,,,,,,,,,,,,,,,,,,,,,,,,,,,,,,,,,,,,,,,,,,,,,,,,,,,,,,,,,,,,,,,,,,,,,,,,,,,,,,,,,,,,,,,,,,
,,,,,,5d45afeb62ed9000197adbb8,62bbf94ea39084a135abfcd3,2022-06-29_09h05.15.087,Colour_Asymmetry_Pilot,2022.1.3,Win32,59.70149254,62bbe60bf3d75ef465d3e404,0,46,46,158,1,fourtwo,,,,,,,,,,,,,,,,,,,,,,,,,,,,,,,,,,,,,,,,,,,,,,,,,,,,,,,,,,,,,,,,,,,,,,,,,,,,,,,,,,,,,,,,,,,,,,,,,,,,,,,,,,,,,,,,,,,,,,,,,,,,,,,,,,,,,,,,,,,,,,,,,,,,,,,,
,,,,,,5d45afeb62ed9000197adbb8,62bbf94ea39084a135abfcd3,2022-06-29_09h05.15.087,Colour_Asymmetry_Pilot,2022.1.3,Win32,59.70149254,62bbe60bf3d75ef465d3e404,0,47,47,33,1,onethree,,,,,,,,,,,,,,,,,,,,,,,,,,,,,,,,,,,,,,,,,,,,,,,,,,,,,,,,,,,,,,,,,,,,,,,,,,,,,,,,,,,,,,,,,,,,,,,,,,,,,,,,,,,,,,,,,,,,,,,,,,,,,,,,,,,,,,,,,,,,,,,,,,,,,,,,
,,,,,,5d45afeb62ed9000197adbb8,62bbf94ea39084a135abfcd3,2022-06-29_09h05.15.087,Colour_Asymmetry_Pilot,2022.1.3,Win32,59.70149254,62bbe60bf3d75ef465d3e404,0,48,48,57,1,onethree,,,,,,,,,,,,,,,,,,,,,,,,,,,,,,,,,,,,,,,,,,,,,,,,,,,,,,,,,,,,,,,,,,,,,,,,,,,,,,,,,,,,,,,,,,,,,,,,,,,,,,,,,,,,,,,,,,,,,,,,,,,,,,,,,,,,,,,,,,,,,,,,,,,,,,,,
,,,,,,5d45afeb62ed9000197adbb8,62bbf94ea39084a135abfcd3,2022-06-29_09h05.15.087,Colour_Asymmetry_Pilot,2022.1.3,Win32,59.70149254,62bbe60bf3d75ef465d3e404,0,49,49,52,1,threeone,,,,,,,,,,,,,,,,,,,,,,,,,,,,,,,,,,,,,,,,,,,,,,,,,,,,,,,,,,,,,,,,,,,,,,,,,,,,,,,,,,,,,,,,,,,,,,,,,,,,,,,,,,,,,,,,,,,,,,,,,,,,,,,,,,,,,,,,,,,,,,,,,,,,,,,,
,,,,,,5d45afeb62ed9000197adbb8,62bbf94ea39084a135abfcd3,2022-06-29_09h05.15.087,Colour_Asymmetry_Pilot,2022.1.3,Win32,59.70149254,62bbe60bf3d75ef465d3e404,0,50,50,135,1,fourthree,,,,,,,,,,,,,,,,,,,,,,,,,,,,,,,,,,,,,,,,,,,,,,,,,,,,,,,,,,,,,,,,,,,,,,,,,,,,,,,,,,,,,,,,,,,,,,,,,,,,,,,,,,,,,,,,,,,,,,,,,,,,,,,,,,,,,,,,,,,,,,,,,,,,,,,,
,,,,,,5d45afeb62ed9000197adbb8,62bbf94ea39084a135abfcd3,2022-06-29_09h05.15.087,Colour_Asymmetry_Pilot,2022.1.3,Win32,59.70149254,62bbe60bf3d75ef465d3e404,0,51,51,56,1,onetwo,,,,,,,,,,,,,,,,,,,,,,,,,,,,,,,,,,,,,,,,,,,,,,,,,,,,,,,,,,,,,,,,,,,,,,,,,,,,,,,,,,,,,,,,,,,,,,,,,,,,,,,,,,,,,,,,,,,,,,,,,,,,,,,,,,,,,,,,,,,,,,,,,,,,,,,,
,,,,,,5d45afeb62ed9000197adbb8,62bbf94ea39084a135abfcd3,2022-06-29_09h05.15.087,Colour_Asymmetry_Pilot,2022.1.3,Win32,59.70149254,62bbe60bf3d75ef465d3e404,0,52,52,67,1,twofour,,,,,,,,,,,,,,,,,,,,,,,,,,,,,,,,,,,,,,,,,,,,,,,,,,,,,,,,,,,,,,,,,,,,,,,,,,,,,,,,,,,,,,,,,,,,,,,,,,,,,,,,,,,,,,,,,,,,,,,,,,,,,,,,,,,,,,,,,,,,,,,,,,,,,,,,
,,,,,,5d45afeb62ed9000197adbb8,62bbf94ea39084a135abfcd3,2022-06-29_09h05.15.087,Colour_Asymmetry_Pilot,2022.1.3,Win32,59.70149254,62bbe60bf3d75ef465d3e404,0,53,53,10,1,twoone,,,,,,,,,,,,,,,,,,,,,,,,,,,,,,,,,,,,,,,,,,,,,,,,,,,,,,,,,,,,,,,,,,,,,,,,,,,,,,,,,,,,,,,,,,,,,,,,,,,,,,,,,,,,,,,,,,,,,,,,,,,,,,,,,,,,,,,,,,,,,,,,,,,,,,,,
,,,,,,5d45afeb62ed9000197adbb8,62bbf94ea39084a135abfcd3,2022-06-29_09h05.15.087,Colour_Asymmetry_Pilot,2022.1.3,Win32,59.70149254,62bbe60bf3d75ef465d3e404,0,54,54,132,1,threeone,,,,,,,,,,,,,,,,,,,,,,,,,,,,,,,,,,,,,,,,,,,,,,,,,,,,,,,,,,,,,,,,,,,,,,,,,,,,,,,,,,,,,,,,,,,,,,,,,,,,,,,,,,,,,,,,,,,,,,,,,,,,,,,,,,,,,,,,,,,,,,,,,,,,,,,,
,,,,,,5d45afeb62ed9000197adbb8,62bbf94ea39084a135abfcd3,2022-06-29_09h05.15.087,Colour_Asymmetry_Pilot,2022.1.3,Win32,59.70149254,62bbe60bf3d75ef465d3e404,0,55,55,60,1,threeone,,,,,,,,,,,,,,,,,,,,,,,,,,,,,,,,,,,,,,,,,,,,,,,,,,,,,,,,,,,,,,,,,,,,,,,,,,,,,,,,,,,,,,,,,,,,,,,,,,,,,,,,,,,,,,,,,,,,,,,,,,,,,,,,,,,,,,,,,,,,,,,,,,,,,,,,
,,,,,,5d45afeb62ed9000197adbb8,62bbf94ea39084a135abfcd3,2022-06-29_09h05.15.087,Colour_Asymmetry_Pilot,2022.1.3,Win32,59.70149254,62bbe60bf3d75ef465d3e404,0,56,56,11,1,twofour,,,,,,,,,,,,,,,,,,,,,,,,,,,,,,,,,,,,,,,,,,,,,,,,,,,,,,,,,,,,,,,,,,,,,,,,,,,,,,,,,,,,,,,,,,,,,,,,,,,,,,,,,,,,,,,,,,,,,,,,,,,,,,,,,,,,,,,,,,,,,,,,,,,,,,,,
,,,,,,5d45afeb62ed9000197adbb8,62bbf94ea39084a135abfcd3,2022-06-29_09h05.15.087,Colour_Asymmetry_Pilot,2022.1.3,Win32,59.70149254,62bbe60bf3d75ef465d3e404,0,57,57,155,1,twofour,,,,,,,,,,,,,,,,,,,,,,,,,,,,,,,,,,,,,,,,,,,,,,,,,,,,,,,,,,,,,,,,,,,,,,,,,,,,,,,,,,,,,,,,,,,,,,,,,,,,,,,,,,,,,,,,,,,,,,,,,,,,,,,,,,,,,,,,,,,,,,,,,,,,,,,,
,,,,,,5d45afeb62ed9000197adbb8,62bbf94ea39084a135abfcd3,2022-06-29_09h05.15.087,Colour_Asymmetry_Pilot,2022.1.3,Win32,59.70149254,62bbe60bf3d75ef465d3e404,0,58,58,140,1,threeone,,,,,,,,,,,,,,,,,,,,,,,,,,,,,,,,,,,,,,,,,,,,,,,,,,,,,,,,,,,,,,,,,,,,,,,,,,,,,,,,,,,,,,,,,,,,,,,,,,,,,,,,,,,,,,,,,,,,,,,,,,,,,,,,,,,,,,,,,,,,,,,,,,,,,,,,
,,,,,,5d45afeb62ed9000197adbb8,62bbf94ea39084a135abfcd3,2022-06-29_09h05.15.087,Colour_Asymmetry_Pilot,2022.1.3,Win32,59.70149254,62bbe60bf3d75ef465d3e404,0,59,59,124,1,threeone,,,,,,,,,,,,,,,,,,,,,,,,,,,,,,,,,,,,,,,,,,,,,,,,,,,,,,,,,,,,,,,,,,,,,,,,,,,,,,,,,,,,,,,,,,,,,,,,,,,,,,,,,,,,,,,,,,,,,,,,,,,,,,,,,,,,,,,,,,,,,,,,,,,,,,,,
,,,,,,5d45afeb62ed9000197adbb8,62bbf94ea39084a135abfcd3,2022-06-29_09h05.15.087,Colour_Asymmetry_Pilot,2022.1.3,Win32,59.70149254,62bbe60bf3d75ef465d3e404,0,60,60,153,1,onethree,,,,,,,,,,,,,,,,,,,,,,,,,,,,,,,,,,,,,,,,,,,,,,,,,,,,,,,,,,,,,,,,,,,,,,,,,,,,,,,,,,,,,,,,,,,,,,,,,,,,,,,,,,,,,,,,,,,,,,,,,,,,,,,,,,,,,,,,,,,,,,,,,,,,,,,,
,,,,,,5d45afeb62ed9000197adbb8,62bbf94ea39084a135abfcd3,2022-06-29_09h05.15.087,Colour_Asymmetry_Pilot,2022.1.3,Win32,59.70149254,62bbe60bf3d75ef465d3e404,0,61,61,85,1,threefour,,,,,,,,,,,,,,,,,,,,,,,,,,,,,,,,,,,,,,,,,,,,,,,,,,,,,,,,,,,,,,,,,,,,,,,,,,,,,,,,,,,,,,,,,,,,,,,,,,,,,,,,,,,,,,,,,,,,,,,,,,,,,,,,,,,,,,,,,,,,,,,,,,,,,,,,
,,,,,,5d45afeb62ed9000197adbb8,62bbf94ea39084a135abfcd3,2022-06-29_09h05.15.087,Colour_Asymmetry_Pilot,2022.1.3,Win32,59.70149254,62bbe60bf3d75ef465d3e404,0,62,62,84,1,threeone,,,,,,,,,,,,,,,,,,,,,,,,,,,,,,,,,,,,,,,,,,,,,,,,,,,,,,,,,,,,,,,,,,,,,,,,,,,,,,,,,,,,,,,,,,,,,,,,,,,,,,,,,,,,,,,,,,,,,,,,,,,,,,,,,,,,,,,,,,,,,,,,,,,,,,,,
,,,,,,5d45afeb62ed9000197adbb8,62bbf94ea39084a135abfcd3,2022-06-29_09h05.15.087,Colour_Asymmetry_Pilot,2022.1.3,Win32,59.70149254,62bbe60bf3d75ef465d3e404,0,63,63,21,1,threefour,,,,,,,,,,,,,,,,,,,,,,,,,,,,,,,,,,,,,,,,,,,,,,,,,,,,,,,,,,,,,,,,,,,,,,,,,,,,,,,,,,,,,,,,,,,,,,,,,,,,,,,,,,,,,,,,,,,,,,,,,,,,,,,,,,,,,,,,,,,,,,,,,,,,,,,,
,,,,,,5d45afeb62ed9000197adbb8,62bbf94ea39084a135abfcd3,2022-06-29_09h05.15.087,Colour_Asymmetry_Pilot,2022.1.3,Win32,59.70149254,62bbe60bf3d75ef465d3e404,0,64,64,43,1,twofour,,,,,,,,,,,,,,,,,,,,,,,,,,,,,,,,,,,,,,,,,,,,,,,,,,,,,,,,,,,,,,,,,,,,,,,,,,,,,,,,,,,,,,,,,,,,,,,,,,,,,,,,,,,,,,,,,,,,,,,,,,,,,,,,,,,,,,,,,,,,,,,,,,,,,,,,
,,,,,,5d45afeb62ed9000197adbb8,62bbf94ea39084a135abfcd3,2022-06-29_09h05.15.087,Colour_Asymmetry_Pilot,2022.1.3,Win32,59.70149254,62bbe60bf3d75ef465d3e404,0,65,65,12,1,threeone,,,,,,,,,,,,,,,,,,,,,,,,,,,,,,,,,,,,,,,,,,,,,,,,,,,,,,,,,,,,,,,,,,,,,,,,,,,,,,,,,,,,,,,,,,,,,,,,,,,,,,,,,,,,,,,,,,,,,,,,,,,,,,,,,,,,,,,,,,,,,,,,,,,,,,,,
,,,,,,5d45afeb62ed9000197adbb8,62bbf94ea39084a135abfcd3,2022-06-29_09h05.15.087,Colour_Asymmetry_Pilot,2022.1.3,Win32,59.70149254,62bbe60bf3d75ef465d3e404,0,66,66,5,1,threefour,,,,,,,,,,,,,,,,,,,,,,,,,,,,,,,,,,,,,,,,,,,,,,,,,,,,,,,,,,,,,,,,,,,,,,,,,,,,,,,,,,,,,,,,,,,,,,,,,,,,,,,,,,,,,,,,,,,,,,,,,,,,,,,,,,,,,,,,,,,,,,,,,,,,,,,,
,,,,,,5d45afeb62ed9000197adbb8,62bbf94ea39084a135abfcd3,2022-06-29_09h05.15.087,Colour_Asymmetry_Pilot,2022.1.3,Win32,59.70149254,62bbe60bf3d75ef465d3e404,0,67,67,17,1,onethree,,,,,,,,,,,,,,,,,,,,,,,,,,,,,,,,,,,,,,,,,,,,,,,,,,,,,,,,,,,,,,,,,,,,,,,,,,,,,,,,,,,,,,,,,,,,,,,,,,,,,,,,,,,,,,,,,,,,,,,,,,,,,,,,,,,,,,,,,,,,,,,,,,,,,,,,
,,,,,,5d45afeb62ed9000197adbb8,62bbf94ea39084a135abfcd3,2022-06-29_09h05.15.087,Colour_Asymmetry_Pilot,2022.1.3,Win32,59.70149254,62bbe60bf3d75ef465d3e404,0,68,68,6,1,fourtwo,,,,,,,,,,,,,,,,,,,,,,,,,,,,,,,,,,,,,,,,,,,,,,,,,,,,,,,,,,,,,,,,,,,,,,,,,,,,,,,,,,,,,,,,,,,,,,,,,,,,,,,,,,,,,,,,,,,,,,,,,,,,,,,,,,,,,,,,,,,,,,,,,,,,,,,,
,,,,,,5d45afeb62ed9000197adbb8,62bbf94ea39084a135abfcd3,2022-06-29_09h05.15.087,Colour_Asymmetry_Pilot,2022.1.3,Win32,59.70149254,62bbe60bf3d75ef465d3e404,0,69,69,110,1,fourtwo,,,,,,,,,,,,,,,,,,,,,,,,,,,,,,,,,,,,,,,,,,,,,,,,,,,,,,,,,,,,,,,,,,,,,,,,,,,,,,,,,,,,,,,,,,,,,,,,,,,,,,,,,,,,,,,,,,,,,,,,,,,,,,,,,,,,,,,,,,,,,,,,,,,,,,,,
,,,,,,5d45afeb62ed9000197adbb8,62bbf94ea39084a135abfcd3,2022-06-29_09h05.15.087,Colour_Asymmetry_Pilot,2022.1.3,Win32,59.70149254,62bbe60bf3d75ef465d3e404,0,70,70,7,1,fourthree,,,,,,,,,,,,,,,,,,,,,,,,,,,,,,,,,,,,,,,,,,,,,,,,,,,,,,,,,,,,,,,,,,,,,,,,,,,,,,,,,,,,,,,,,,,,,,,,,,,,,,,,,,,,,,,,,,,,,,,,,,,,,,,,,,,,,,,,,,,,,,,,,,,,,,,,
,,,,,,5d45afeb62ed9000197adbb8,62bbf94ea39084a135abfcd3,2022-06-29_09h05.15.087,Colour_Asymmetry_Pilot,2022.1.3,Win32,59.70149254,62bbe60bf3d75ef465d3e404,0,71,71,29,1,threefour,,,,,,,,,,,,,,,,,,,,,,,,,,,,,,,,,,,,,,,,,,,,,,,,,,,,,,,,,,,,,,,,,,,,,,,,,,,,,,,,,,,,,,,,,,,,,,,,,,,,,,,,,,,,,,,,,,,,,,,,,,,,,,,,,,,,,,,,,,,,,,,,,,,,,,,,
,,,,,,5d45afeb62ed9000197adbb8,62bbf94ea39084a135abfcd3,2022-06-29_09h05.15.087,Colour_Asymmetry_Pilot,2022.1.3,Win32,59.70149254,62bbe60bf3d75ef465d3e404,0,72,72,46,1,fourtwo,,,,,,,,,,,,,,,,,,,,,,,,,,,,,,,,,,,,,,,,,,,,,,,,,,,,,,,,,,,,,,,,,,,,,,,,,,,,,,,,,,,,,,,,,,,,,,,,,,,,,,,,,,,,,,,,,,,,,,,,,,,,,,,,,,,,,,,,,,,,,,,,,,,,,,,,
,,,,,,5d45afeb62ed9000197adbb8,62bbf94ea39084a135abfcd3,2022-06-29_09h05.15.087,Colour_Asymmetry_Pilot,2022.1.3,Win32,59.70149254,62bbe60bf3d75ef465d3e404,0,73,73,103,1,fourthree,,,,,,,,,,,,,,,,,,,,,,,,,,,,,,,,,,,,,,,,,,,,,,,,,,,,,,,,,,,,,,,,,,,,,,,,,,,,,,,,,,,,,,,,,,,,,,,,,,,,,,,,,,,,,,,,,,,,,,,,,,,,,,,,,,,,,,,,,,,,,,,,,,,,,,,,
,,,,,,5d45afeb62ed9000197adbb8,62bbf94ea39084a135abfcd3,2022-06-29_09h05.15.087,Colour_Asymmetry_Pilot,2022.1.3,Win32,59.70149254,62bbe60bf3d75ef465d3e404,0,74,74,92,1,threeone,,,,,,,,,,,,,,,,,,,,,,,,,,,,,,,,,,,,,,,,,,,,,,,,,,,,,,,,,,,,,,,,,,,,,,,,,,,,,,,,,,,,,,,,,,,,,,,,,,,,,,,,,,,,,,,,,,,,,,,,,,,,,,,,,,,,,,,,,,,,,,,,,,,,,,,,
,,,,,,5d45afeb62ed9000197adbb8,62bbf94ea39084a135abfcd3,2022-06-29_09h05.15.087,Colour_Asymmetry_Pilot,2022.1.3,Win32,59.70149254,62bbe60bf3d75ef465d3e404,0,75,75,90,1,twoone,,,,,,,,,,,,,,,,,,,,,,,,,,,,,,,,,,,,,,,,,,,,,,,,,,,,,,,,,,,,,,,,,,,,,,,,,,,,,,,,,,,,,,,,,,,,,,,,,,,,,,,,,,,,,,,,,,,,,,,,,,,,,,,,,,,,,,,,,,,,,,,,,,,,,,,,
,,,,,,5d45afeb62ed9000197adbb8,62bbf94ea39084a135abfcd3,2022-06-29_09h05.15.087,Colour_Asymmetry_Pilot,2022.1.3,Win32,59.70149254,62bbe60bf3d75ef465d3e404,0,76,76,45,1,threefour,,,,,,,,,,,,,,,,,,,,,,,,,,,,,,,,,,,,,,,,,,,,,,,,,,,,,,,,,,,,,,,,,,,,,,,,,,,,,,,,,,,,,,,,,,,,,,,,,,,,,,,,,,,,,,,,,,,,,,,,,,,,,,,,,,,,,,,,,,,,,,,,,,,,,,,,
,,,,,,5d45afeb62ed9000197adbb8,62bbf94ea39084a135abfcd3,2022-06-29_09h05.15.087,Colour_Asymmetry_Pilot,2022.1.3,Win32,59.70149254,62bbe60bf3d75ef465d3e404,0,77,77,141,1,threefour,,,,,,,,,,,,,,,,,,,,,,,,,,,,,,,,,,,,,,,,,,,,,,,,,,,,,,,,,,,,,,,,,,,,,,,,,,,,,,,,,,,,,,,,,,,,,,,,,,,,,,,,,,,,,,,,,,,,,,,,,,,,,,,,,,,,,,,,,,,,,,,,,,,,,,,,
,,,,,,5d45afeb62ed9000197adbb8,62bbf94ea39084a135abfcd3,2022-06-29_09h05.15.087,Colour_Asymmetry_Pilot,2022.1.3,Win32,59.70149254,62bbe60bf3d75ef465d3e404,0,78,78,4,1,threeone,,,,,,,,,,,,,,,,,,,,,,,,,,,,,,,,,,,,,,,,,,,,,,,,,,,,,,,,,,,,,,,,,,,,,,,,,,,,,,,,,,,,,,,,,,,,,,,,,,,,,,,,,,,,,,,,,,,,,,,,,,,,,,,,,,,,,,,,,,,,,,,,,,,,,,,,
,,,,,,5d45afeb62ed9000197adbb8,62bbf94ea39084a135abfcd3,2022-06-29_09h05.15.087,Colour_Asymmetry_Pilot,2022.1.3,Win32,59.70149254,62bbe60bf3d75ef465d3e404,0,79,79,151,1,fourthree,,,,,,,,,,,,,,,,,,,,,,,,,,,,,,,,,,,,,,,,,,,,,,,,,,,,,,,,,,,,,,,,,,,,,,,,,,,,,,,,,,,,,,,,,,,,,,,,,,,,,,,,,,,,,,,,,,,,,,,,,,,,,,,,,,,,,,,,,,,,,,,,,,,,,,,,
,,,,,,5d45afeb62ed9000197adbb8,62bbf94ea39084a135abfcd3,2022-06-29_09h05.15.087,Colour_Asymmetry_Pilot,2022.1.3,Win32,59.70149254,62bbe60bf3d75ef465d3e404,0,80,80,109,1,threefour,,,,,,,,,,,,,,,,,,,,,,,,,,,,,,,,,,,,,,,,,,,,,,,,,,,,,,,,,,,,,,,,,,,,,,,,,,,,,,,,,,,,,,,,,,,,,,,,,,,,,,,,,,,,,,,,,,,,,,,,,,,,,,,,,,,,,,,,,,,,,,,,,,,,,,,,
,,,,,,5d45afeb62ed9000197adbb8,62bbf94ea39084a135abfcd3,2022-06-29_09h05.15.087,Colour_Asymmetry_Pilot,2022.1.3,Win32,59.70149254,62bbe60bf3d75ef465d3e404,0,81,81,139,1,twofour,,,,,,,,,,,,,,,,,,,,,,,,,,,,,,,,,,,,,,,,,,,,,,,,,,,,,,,,,,,,,,,,,,,,,,,,,,,,,,,,,,,,,,,,,,,,,,,,,,,,,,,,,,,,,,,,,,,,,,,,,,,,,,,,,,,,,,,,,,,,,,,,,,,,,,,,
,,,,,,5d45afeb62ed9000197adbb8,62bbf94ea39084a135abfcd3,2022-06-29_09h05.15.087,Colour_Asymmetry_Pilot,2022.1.3,Win32,59.70149254,62bbe60bf3d75ef465d3e404,0,82,82,138,1,twoone,,,,,,,,,,,,,,,,,,,,,,,,,,,,,,,,,,,,,,,,,,,,,,,,,,,,,,,,,,,,,,,,,,,,,,,,,,,,,,,,,,,,,,,,,,,,,,,,,,,,,,,,,,,,,,,,,,,,,,,,,,,,,,,,,,,,,,,,,,,,,,,,,,,,,,,,
,,,,,,5d45afeb62ed9000197adbb8,62bbf94ea39084a135abfcd3,2022-06-29_09h05.15.087,Colour_Asymmetry_Pilot,2022.1.3,Win32,59.70149254,62bbe60bf3d75ef465d3e404,0,83,83,129,1,onethree,,,,,,,,,,,,,,,,,,,,,,,,,,,,,,,,,,,,,,,,,,,,,,,,,,,,,,,,,,,,,,,,,,,,,,,,,,,,,,,,,,,,,,,,,,,,,,,,,,,,,,,,,,,,,,,,,,,,,,,,,,,,,,,,,,,,,,,,,,,,,,,,,,,,,,,,
,,,,,,5d45afeb62ed9000197adbb8,62bbf94ea39084a135abfcd3,2022-06-29_09h05.15.087,Colour_Asymmetry_Pilot,2022.1.3,Win32,59.70149254,62bbe60bf3d75ef465d3e404,0,84,84,130,1,twoone,,,,,,,,,,,,,,,,,,,,,,,,,,,,,,,,,,,,,,,,,,,,,,,,,,,,,,,,,,,,,,,,,,,,,,,,,,,,,,,,,,,,,,,,,,,,,,,,,,,,,,,,,,,,,,,,,,,,,,,,,,,,,,,,,,,,,,,,,,,,,,,,,,,,,,,,
,,,,,,5d45afeb62ed9000197adbb8,62bbf94ea39084a135abfcd3,2022-06-29_09h05.15.087,Colour_Asymmetry_Pilot,2022.1.3,Win32,59.70149254,62bbe60bf3d75ef465d3e404,0,85,85,126,1,fourtwo,,,,,,,,,,,,,,,,,,,,,,,,,,,,,,,,,,,,,,,,,,,,,,,,,,,,,,,,,,,,,,,,,,,,,,,,,,,,,,,,,,,,,,,,,,,,,,,,,,,,,,,,,,,,,,,,,,,,,,,,,,,,,,,,,,,,,,,,,,,,,,,,,,,,,,,,
,,,,,,5d45afeb62ed9000197adbb8,62bbf94ea39084a135abfcd3,2022-06-29_09h05.15.087,Colour_Asymmetry_Pilot,2022.1.3,Win32,59.70149254,62bbe60bf3d75ef465d3e404,0,86,86,137,1,onethree,,,,,,,,,,,,,,,,,,,,,,,,,,,,,,,,,,,,,,,,,,,,,,,,,,,,,,,,,,,,,,,,,,,,,,,,,,,,,,,,,,,,,,,,,,,,,,,,,,,,,,,,,,,,,,,,,,,,,,,,,,,,,,,,,,,,,,,,,,,,,,,,,,,,,,,,
,,,,,,5d45afeb62ed9000197adbb8,62bbf94ea39084a135abfcd3,2022-06-29_09h05.15.087,Colour_Asymmetry_Pilot,2022.1.3,Win32,59.70149254,62bbe60bf3d75ef465d3e404,0,87,87,22,1,fourtwo,,,,,,,,,,,,,,,,,,,,,,,,,,,,,,,,,,,,,,,,,,,,,,,,,,,,,,,,,,,,,,,,,,,,,,,,,,,,,,,,,,,,,,,,,,,,,,,,,,,,,,,,,,,,,,,,,,,,,,,,,,,,,,,,,,,,,,,,,,,,,,,,,,,,,,,,
,,,,,,5d45afeb62ed9000197adbb8,62bbf94ea39084a135abfcd3,2022-06-29_09h05.15.087,Colour_Asymmetry_Pilot,2022.1.3,Win32,59.70149254,62bbe60bf3d75ef465d3e404,0,88,88,120,1,onetwo,,,,,,,,,,,,,,,,,,,,,,,,,,,,,,,,,,,,,,,,,,,,,,,,,,,,,,,,,,,,,,,,,,,,,,,,,,,,,,,,,,,,,,,,,,,,,,,,,,,,,,,,,,,,,,,,,,,,,,,,,,,,,,,,,,,,,,,,,,,,,,,,,,,,,,,,
,,,,,,5d45afeb62ed9000197adbb8,62bbf94ea39084a135abfcd3,2022-06-29_09h05.15.087,Colour_Asymmetry_Pilot,2022.1.3,Win32,59.70149254,62bbe60bf3d75ef465d3e404,0,89,89,20,1,threeone,,,,,,,,,,,,,,,,,,,,,,,,,,,,,,,,,,,,,,,,,,,,,,,,,,,,,,,,,,,,,,,,,,,,,,,,,,,,,,,,,,,,,,,,,,,,,,,,,,,,,,,,,,,,,,,,,,,,,,,,,,,,,,,,,,,,,,,,,,,,,,,,,,,,,,,,
,,,,,,5d45afeb62ed9000197adbb8,62bbf94ea39084a135abfcd3,2022-06-29_09h05.15.087,Colour_Asymmetry_Pilot,2022.1.3,Win32,59.70149254,62bbe60bf3d75ef465d3e404,0,90,90,98,1,twoone,,,,,,,,,,,,,,,,,,,,,,,,,,,,,,,,,,,,,,,,,,,,,,,,,,,,,,,,,,,,,,,,,,,,,,,,,,,,,,,,,,,,,,,,,,,,,,,,,,,,,,,,,,,,,,,,,,,,,,,,,,,,,,,,,,,,,,,,,,,,,,,,,,,,,,,,
,,,,,,5d45afeb62ed9000197adbb8,62bbf94ea39084a135abfcd3,2022-06-29_09h05.15.087,Colour_Asymmetry_Pilot,2022.1.3,Win32,59.70149254,62bbe60bf3d75ef465d3e404,0,91,91,128,1,onetwo,,,,,,,,,,,,,,,,,,,,,,,,,,,,,,,,,,,,,,,,,,,,,,,,,,,,,,,,,,,,,,,,,,,,,,,,,,,,,,,,,,,,,,,,,,,,,,,,,,,,,,,,,,,,,,,,,,,,,,,,,,,,,,,,,,,,,,,,,,,,,,,,,,,,,,,,
,,,,,,5d45afeb62ed9000197adbb8,62bbf94ea39084a135abfcd3,2022-06-29_09h05.15.087,Colour_Asymmetry_Pilot,2022.1.3,Win32,59.70149254,62bbe60bf3d75ef465d3e404,0,92,92,38,1,fourtwo,,,,,,,,,,,,,,,,,,,,,,,,,,,,,,,,,,,,,,,,,,,,,,,,,,,,,,,,,,,,,,,,,,,,,,,,,,,,,,,,,,,,,,,,,,,,,,,,,,,,,,,,,,,,,,,,,,,,,,,,,,,,,,,,,,,,,,,,,,,,,,,,,,,,,,,,
,,,,,,5d45afeb62ed9000197adbb8,62bbf94ea39084a135abfcd3,2022-06-29_09h05.15.087,Colour_Asymmetry_Pilot,2022.1.3,Win32,59.70149254,62bbe60bf3d75ef465d3e404,0,93,93,127,1,fourthree,,,,,,,,,,,,,,,,,,,,,,,,,,,,,,,,,,,,,,,,,,,,,,,,,,,,,,,,,,,,,,,,,,,,,,,,,,,,,,,,,,,,,,,,,,,,,,,,,,,,,,,,,,,,,,,,,,,,,,,,,,,,,,,,,,,,,,,,,,,,,,,,,,,,,,,,
,,,,,,5d45afeb62ed9000197adbb8,62bbf94ea39084a135abfcd3,2022-06-29_09h05.15.087,Colour_Asymmetry_Pilot,2022.1.3,Win32,59.70149254,62bbe60bf3d75ef465d3e404,0,94,94,13,1,threefour,,,,,,,,,,,,,,,,,,,,,,,,,,,,,,,,,,,,,,,,,,,,,,,,,,,,,,,,,,,,,,,,,,,,,,,,,,,,,,,,,,,,,,,,,,,,,,,,,,,,,,,,,,,,,,,,,,,,,,,,,,,,,,,,,,,,,,,,,,,,,,,,,,,,,,,,
,,,,,,5d45afeb62ed9000197adbb8,62bbf94ea39084a135abfcd3,2022-06-29_09h05.15.087,Colour_Asymmetry_Pilot,2022.1.3,Win32,59.70149254,62bbe60bf3d75ef465d3e404,0,95,95,3,1,twofour,,,,,,,,,,,,,,,,,,,,,,,,,,,,,,,,,,,,,,,,,,,,,,,,,,,,,,,,,,,,,,,,,,,,,,,,,,,,,,,,,,,,,,,,,,,,,,,,,,,,,,,,,,,,,,,,,,,,,,,,,,,,,,,,,,,,,,,,,,,,,,,,,,,,,,,,
,,,,,,5d45afeb62ed9000197adbb8,62bbf94ea39084a135abfcd3,2022-06-29_09h05.15.087,Colour_Asymmetry_Pilot,2022.1.3,Win32,59.70149254,62bbe60bf3d75ef465d3e404,0,96,96,54,1,fourtwo,,,,,,,,,,,,,,,,,,,,,,,,,,,,,,,,,,,,,,,,,,,,,,,,,,,,,,,,,,,,,,,,,,,,,,,,,,,,,,,,,,,,,,,,,,,,,,,,,,,,,,,,,,,,,,,,,,,,,,,,,,,,,,,,,,,,,,,,,,,,,,,,,,,,,,,,
,,,,,,5d45afeb62ed9000197adbb8,62bbf94ea39084a135abfcd3,2022-06-29_09h05.15.087,Colour_Asymmetry_Pilot,2022.1.3,Win32,59.70149254,62bbe60bf3d75ef465d3e404,0,97,97,74,1,twoone,,,,,,,,,,,,,,,,,,,,,,,,,,,,,,,,,,,,,,,,,,,,,,,,,,,,,,,,,,,,,,,,,,,,,,,,,,,,,,,,,,,,,,,,,,,,,,,,,,,,,,,,,,,,,,,,,,,,,,,,,,,,,,,,,,,,,,,,,,,,,,,,,,,,,,,,
,,,,,,5d45afeb62ed9000197adbb8,62bbf94ea39084a135abfcd3,2022-06-29_09h05.15.087,Colour_Asymmetry_Pilot,2022.1.3,Win32,59.70149254,62bbe60bf3d75ef465d3e404,0,98,98,116,1,threeone,,,,,,,,,,,,,,,,,,,,,,,,,,,,,,,,,,,,,,,,,,,,,,,,,,,,,,,,,,,,,,,,,,,,,,,,,,,,,,,,,,,,,,,,,,,,,,,,,,,,,,,,,,,,,,,,,,,,,,,,,,,,,,,,,,,,,,,,,,,,,,,,,,,,,,,,
,,,,,,5d45afeb62ed9000197adbb8,62bbf94ea39084a135abfcd3,2022-06-29_09h05.15.087,Colour_Asymmetry_Pilot,2022.1.3,Win32,59.70149254,62bbe60bf3d75ef465d3e404,0,99,99,15,1,fourthree,,,,,,,,,,,,,,,,,,,,,,,,,,,,,,,,,,,,,,,,,,,,,,,,,,,,,,,,,,,,,,,,,,,,,,,,,,,,,,,,,,,,,,,,,,,,,,,,,,,,,,,,,,,,,,,,,,,,,,,,,,,,,,,,,,,,,,,,,,,,,,,,,,,,,,,,
,,,,,,5d45afeb62ed9000197adbb8,62bbf94ea39084a135abfcd3,2022-06-29_09h05.15.087,Colour_Asymmetry_Pilot,2022.1.3,Win32,59.70149254,62bbe60bf3d75ef465d3e404,0,100,100,106,1,twoone,,,,,,,,,,,,,,,,,,,,,,,,,,,,,,,,,,,,,,,,,,,,,,,,,,,,,,,,,,,,,,,,,,,,,,,,,,,,,,,,,,,,,,,,,,,,,,,,,,,,,,,,,,,,,,,,,,,,,,,,,,,,,,,,,,,,,,,,,,,,,,,,,,,,,,,,
,,,,,,5d45afeb62ed9000197adbb8,62bbf94ea39084a135abfcd3,2022-06-29_09h05.15.087,Colour_Asymmetry_Pilot,2022.1.3,Win32,59.70149254,62bbe60bf3d75ef465d3e404,0,101,101,14,1,fourtwo,,,,,,,,,,,,,,,,,,,,,,,,,,,,,,,,,,,,,,,,,,,,,,,,,,,,,,,,,,,,,,,,,,,,,,,,,,,,,,,,,,,,,,,,,,,,,,,,,,,,,,,,,,,,,,,,,,,,,,,,,,,,,,,,,,,,,,,,,,,,,,,,,,,,,,,,
,,,,,,5d45afeb62ed9000197adbb8,62bbf94ea39084a135abfcd3,2022-06-29_09h05.15.087,Colour_Asymmetry_Pilot,2022.1.3,Win32,59.70149254,62bbe60bf3d75ef465d3e404,0,102,102,148,1,threeone,,,,,,,,,,,,,,,,,,,,,,,,,,,,,,,,,,,,,,,,,,,,,,,,,,,,,,,,,,,,,,,,,,,,,,,,,,,,,,,,,,,,,,,,,,,,,,,,,,,,,,,,,,,,,,,,,,,,,,,,,,,,,,,,,,,,,,,,,,,,,,,,,,,,,,,,
,,,,,,5d45afeb62ed9000197adbb8,62bbf94ea39084a135abfcd3,2022-06-29_09h05.15.087,Colour_Asymmetry_Pilot,2022.1.3,Win32,59.70149254,62bbe60bf3d75ef465d3e404,0,103,103,145,1,onethree,,,,,,,,,,,,,,,,,,,,,,,,,,,,,,,,,,,,,,,,,,,,,,,,,,,,,,,,,,,,,,,,,,,,,,,,,,,,,,,,,,,,,,,,,,,,,,,,,,,,,,,,,,,,,,,,,,,,,,,,,,,,,,,,,,,,,,,,,,,,,,,,,,,,,,,,
,,,,,,5d45afeb62ed9000197adbb8,62bbf94ea39084a135abfcd3,2022-06-29_09h05.15.087,Colour_Asymmetry_Pilot,2022.1.3,Win32,59.70149254,62bbe60bf3d75ef465d3e404,0,104,104,97,1,onethree,,,,,,,,,,,,,,,,,,,,,,,,,,,,,,,,,,,,,,,,,,,,,,,,,,,,,,,,,,,,,,,,,,,,,,,,,,,,,,,,,,,,,,,,,,,,,,,,,,,,,,,,,,,,,,,,,,,,,,,,,,,,,,,,,,,,,,,,,,,,,,,,,,,,,,,,
,,,,,,5d45afeb62ed9000197adbb8,62bbf94ea39084a135abfcd3,2022-06-29_09h05.15.087,Colour_Asymmetry_Pilot,2022.1.3,Win32,59.70149254,62bbe60bf3d75ef465d3e404,0,105,105,80,1,onetwo,,,,,,,,,,,,,,,,,,,,,,,,,,,,,,,,,,,,,,,,,,,,,,,,,,,,,,,,,,,,,,,,,,,,,,,,,,,,,,,,,,,,,,,,,,,,,,,,,,,,,,,,,,,,,,,,,,,,,,,,,,,,,,,,,,,,,,,,,,,,,,,,,,,,,,,,
,,,,,,5d45afeb62ed9000197adbb8,62bbf94ea39084a135abfcd3,2022-06-29_09h05.15.087,Colour_Asymmetry_Pilot,2022.1.3,Win32,59.70149254,62bbe60bf3d75ef465d3e404,0,106,106,107,1,twofour,,,,,,,,,,,,,,,,,,,,,,,,,,,,,,,,,,,,,,,,,,,,,,,,,,,,,,,,,,,,,,,,,,,,,,,,,,,,,,,,,,,,,,,,,,,,,,,,,,,,,,,,,,,,,,,,,,,,,,,,,,,,,,,,,,,,,,,,,,,,,,,,,,,,,,,,
,,,,,,5d45afeb62ed9000197adbb8,62bbf94ea39084a135abfcd3,2022-06-29_09h05.15.087,Colour_Asymmetry_Pilot,2022.1.3,Win32,59.70149254,62bbe60bf3d75ef465d3e404,0,107,107,27,1,twofour,,,,,,,,,,,,,,,,,,,,,,,,,,,,,,,,,,,,,,,,,,,,,,,,,,,,,,,,,,,,,,,,,,,,,,,,,,,,,,,,,,,,,,,,,,,,,,,,,,,,,,,,,,,,,,,,,,,,,,,,,,,,,,,,,,,,,,,,,,,,,,,,,,,,,,,,
,,,,,,5d45afeb62ed9000197adbb8,62bbf94ea39084a135abfcd3,2022-06-29_09h05.15.087,Colour_Asymmetry_Pilot,2022.1.3,Win32,59.70149254,62bbe60bf3d75ef465d3e404,0,108,108,95,1,fourthree,,,,,,,,,,,,,,,,,,,,,,,,,,,,,,,,,,,,,,,,,,,,,,,,,,,,,,,,,,,,,,,,,,,,,,,,,,,,,,,,,,,,,,,,,,,,,,,,,,,,,,,,,,,,,,,,,,,,,,,,,,,,,,,,,,,,,,,,,,,,,,,,,,,,,,,,
,,,,,,5d45afeb62ed9000197adbb8,62bbf94ea39084a135abfcd3,2022-06-29_09h05.15.087,Colour_Asymmetry_Pilot,2022.1.3,Win32,59.70149254,62bbe60bf3d75ef465d3e404,0,109,109,81,1,onethree,,,,,,,,,,,,,,,,,,,,,,,,,,,,,,,,,,,,,,,,,,,,,,,,,,,,,,,,,,,,,,,,,,,,,,,,,,,,,,,,,,,,,,,,,,,,,,,,,,,,,,,,,,,,,,,,,,,,,,,,,,,,,,,,,,,,,,,,,,,,,,,,,,,,,,,,
,,,,,,5d45afeb62ed9000197adbb8,62bbf94ea39084a135abfcd3,2022-06-29_09h05.15.087,Colour_Asymmetry_Pilot,2022.1.3,Win32,59.70149254,62bbe60bf3d75ef465d3e404,0,110,110,32,1,onetwo,,,,,,,,,,,,,,,,,,,,,,,,,,,,,,,,,,,,,,,,,,,,,,,,,,,,,,,,,,,,,,,,,,,,,,,,,,,,,,,,,,,,,,,,,,,,,,,,,,,,,,,,,,,,,,,,,,,,,,,,,,,,,,,,,,,,,,,,,,,,,,,,,,,,,,,,
,,,,,,5d45afeb62ed9000197adbb8,62bbf94ea39084a135abfcd3,2022-06-29_09h05.15.087,Colour_Asymmetry_Pilot,2022.1.3,Win32,59.70149254,62bbe60bf3d75ef465d3e404,0,111,111,70,1,fourtwo,,,,,,,,,,,,,,,,,,,,,,,,,,,,,,,,,,,,,,,,,,,,,,,,,,,,,,,,,,,,,,,,,,,,,,,,,,,,,,,,,,,,,,,,,,,,,,,,,,,,,,,,,,,,,,,,,,,,,,,,,,,,,,,,,,,,,,,,,,,,,,,,,,,,,,,,
,,,,,,5d45afeb62ed9000197adbb8,62bbf94ea39084a135abfcd3,2022-06-29_09h05.15.087,Colour_Asymmetry_Pilot,2022.1.3,Win32,59.70149254,62bbe60bf3d75ef465d3e404,0,112,112,108,1,threeone,,,,,,,,,,,,,,,,,,,,,,,,,,,,,,,,,,,,,,,,,,,,,,,,,,,,,,,,,,,,,,,,,,,,,,,,,,,,,,,,,,,,,,,,,,,,,,,,,,,,,,,,,,,,,,,,,,,,,,,,,,,,,,,,,,,,,,,,,,,,,,,,,,,,,,,,
,,,,,,5d45afeb62ed9000197adbb8,62bbf94ea39084a135abfcd3,2022-06-29_09h05.15.087,Colour_Asymmetry_Pilot,2022.1.3,Win32,59.70149254,62bbe60bf3d75ef465d3e404,0,113,113,2,1,twoone,,,,,,,,,,,,,,,,,,,,,,,,,,,,,,,,,,,,,,,,,,,,,,,,,,,,,,,,,,,,,,,,,,,,,,,,,,,,,,,,,,,,,,,,,,,,,,,,,,,,,,,,,,,,,,,,,,,,,,,,,,,,,,,,,,,,,,,,,,,,,,,,,,,,,,,,
,,,,,,5d45afeb62ed9000197adbb8,62bbf94ea39084a135abfcd3,2022-06-29_09h05.15.087,Colour_Asymmetry_Pilot,2022.1.3,Win32,59.70149254,62bbe60bf3d75ef465d3e404,0,114,114,122,1,twoone,,,,,,,,,,,,,,,,,,,,,,,,,,,,,,,,,,,,,,,,,,,,,,,,,,,,,,,,,,,,,,,,,,,,,,,,,,,,,,,,,,,,,,,,,,,,,,,,,,,,,,,,,,,,,,,,,,,,,,,,,,,,,,,,,,,,,,,,,,,,,,,,,,,,,,,,
,,,,,,5d45afeb62ed9000197adbb8,62bbf94ea39084a135abfcd3,2022-06-29_09h05.15.087,Colour_Asymmetry_Pilot,2022.1.3,Win32,59.70149254,62bbe60bf3d75ef465d3e404,0,115,115,61,1,threefour,,,,,,,,,,,,,,,,,,,,,,,,,,,,,,,,,,,,,,,,,,,,,,,,,,,,,,,,,,,,,,,,,,,,,,,,,,,,,,,,,,,,,,,,,,,,,,,,,,,,,,,,,,,,,,,,,,,,,,,,,,,,,,,,,,,,,,,,,,,,,,,,,,,,,,,,
,,,,,,5d45afeb62ed9000197adbb8,62bbf94ea39084a135abfcd3,2022-06-29_09h05.15.087,Colour_Asymmetry_Pilot,2022.1.3,Win32,59.70149254,62bbe60bf3d75ef465d3e404,0,116,116,89,1,onethree,,,,,,,,,,,,,,,,,,,,,,,,,,,,,,,,,,,,,,,,,,,,,,,,,,,,,,,,,,,,,,,,,,,,,,,,,,,,,,,,,,,,,,,,,,,,,,,,,,,,,,,,,,,,,,,,,,,,,,,,,,,,,,,,,,,,,,,,,,,,,,,,,,,,,,,,
,,,,,,5d45afeb62ed9000197adbb8,62bbf94ea39084a135abfcd3,2022-06-29_09h05.15.087,Colour_Asymmetry_Pilot,2022.1.3,Win32,59.70149254,62bbe60bf3d75ef465d3e404,0,117,117,157,1,threefour,,,,,,,,,,,,,,,,,,,,,,,,,,,,,,,,,,,,,,,,,,,,,,,,,,,,,,,,,,,,,,,,,,,,,,,,,,,,,,,,,,,,,,,,,,,,,,,,,,,,,,,,,,,,,,,,,,,,,,,,,,,,,,,,,,,,,,,,,,,,,,,,,,,,,,,,
,,,,,,5d45afeb62ed9000197adbb8,62bbf94ea39084a135abfcd3,2022-06-29_09h05.15.087,Colour_Asymmetry_Pilot,2022.1.3,Win32,59.70149254,62bbe60bf3d75ef465d3e404,0,118,118,115,1,twofour,,,,,,,,,,,,,,,,,,,,,,,,,,,,,,,,,,,,,,,,,,,,,,,,,,,,,,,,,,,,,,,,,,,,,,,,,,,,,,,,,,,,,,,,,,,,,,,,,,,,,,,,,,,,,,,,,,,,,,,,,,,,,,,,,,,,,,,,,,,,,,,,,,,,,,,,
,,,,,,5d45afeb62ed9000197adbb8,62bbf94ea39084a135abfcd3,2022-06-29_09h05.15.087,Colour_Asymmetry_Pilot,2022.1.3,Win32,59.70149254,62bbe60bf3d75ef465d3e404,0,119,119,147,1,twofour,,,,,,,,,,,,,,,,,,,,,,,,,,,,,,,,,,,,,,,,,,,,,,,,,,,,,,,,,,,,,,,,,,,,,,,,,,,,,,,,,,,,,,,,,,,,,,,,,,,,,,,,,,,,,,,,,,,,,,,,,,,,,,,,,,,,,,,,,,,,,,,,,,,,,,,,
,,,,,,5d45afeb62ed9000197adbb8,62bbf94ea39084a135abfcd3,2022-06-29_09h05.15.087,Colour_Asymmetry_Pilot,2022.1.3,Win32,59.70149254,62bbe60bf3d75ef465d3e404,0,120,120,71,1,fourthree,,,,,,,,,,,,,,,,,,,,,,,,,,,,,,,,,,,,,,,,,,,,,,,,,,,,,,,,,,,,,,,,,,,,,,,,,,,,,,,,,,,,,,,,,,,,,,,,,,,,,,,,,,,,,,,,,,,,,,,,,,,,,,,,,,,,,,,,,,,,,,,,,,,,,,,,
,,,,,,5d45afeb62ed9000197adbb8,62bbf94ea39084a135abfcd3,2022-06-29_09h05.15.087,Colour_Asymmetry_Pilot,2022.1.3,Win32,59.70149254,62bbe60bf3d75ef465d3e404,0,121,121,104,1,onetwo,,,,,,,,,,,,,,,,,,,,,,,,,,,,,,,,,,,,,,,,,,,,,,,,,,,,,,,,,,,,,,,,,,,,,,,,,,,,,,,,,,,,,,,,,,,,,,,,,,,,,,,,,,,,,,,,,,,,,,,,,,,,,,,,,,,,,,,,,,,,,,,,,,,,,,,,
,,,,,,5d45afeb62ed9000197adbb8,62bbf94ea39084a135abfcd3,2022-06-29_09h05.15.087,Colour_Asymmetry_Pilot,2022.1.3,Win32,59.70149254,62bbe60bf3d75ef465d3e404,0,122,122,0,1,onetwo,,,,,,,,,,,,,,,,,,,,,,,,,,,,,,,,,,,,,,,,,,,,,,,,,,,,,,,,,,,,,,,,,,,,,,,,,,,,,,,,,,,,,,,,,,,,,,,,,,,,,,,,,,,,,,,,,,,,,,,,,,,,,,,,,,,,,,,,,,,,,,,,,,,,,,,,
,,,,,,5d45afeb62ed9000197adbb8,62bbf94ea39084a135abfcd3,2022-06-29_09h05.15.087,Colour_Asymmetry_Pilot,2022.1.3,Win32,59.70149254,62bbe60bf3d75ef465d3e404,0,123,123,113,1,onethree,,,,,,,,,,,,,,,,,,,,,,,,,,,,,,,,,,,,,,,,,,,,,,,,,,,,,,,,,,,,,,,,,,,,,,,,,,,,,,,,,,,,,,,,,,,,,,,,,,,,,,,,,,,,,,,,,,,,,,,,,,,,,,,,,,,,,,,,,,,,,,,,,,,,,,,,
,,,,,,5d45afeb62ed9000197adbb8,62bbf94ea39084a135abfcd3,2022-06-29_09h05.15.087,Colour_Asymmetry_Pilot,2022.1.3,Win32,59.70149254,62bbe60bf3d75ef465d3e404,0,124,124,25,1,onethree,,,,,,,,,,,,,,,,,,,,,,,,,,,,,,,,,,,,,,,,,,,,,,,,,,,,,,,,,,,,,,,,,,,,,,,,,,,,,,,,,,,,,,,,,,,,,,,,,,,,,,,,,,,,,,,,,,,,,,,,,,,,,,,,,,,,,,,,,,,,,,,,,,,,,,,,
,,,,,,5d45afeb62ed9000197adbb8,62bbf94ea39084a135abfcd3,2022-06-29_09h05.15.087,Colour_Asymmetry_Pilot,2022.1.3,Win32,59.70149254,62bbe60bf3d75ef465d3e404,0,125,125,146,1,twoone,,,,,,,,,,,,,,,,,,,,,,,,,,,,,,,,,,,,,,,,,,,,,,,,,,,,,,,,,,,,,,,,,,,,,,,,,,,,,,,,,,,,,,,,,,,,,,,,,,,,,,,,,,,,,,,,,,,,,,,,,,,,,,,,,,,,,,,,,,,,,,,,,,,,,,,,
,,,,,,5d45afeb62ed9000197adbb8,62bbf94ea39084a135abfcd3,2022-06-29_09h05.15.087,Colour_Asymmetry_Pilot,2022.1.3,Win32,59.70149254,62bbe60bf3d75ef465d3e404,0,126,126,55,1,fourthree,,,,,,,,,,,,,,,,,,,,,,,,,,,,,,,,,,,,,,,,,,,,,,,,,,,,,,,,,,,,,,,,,,,,,,,,,,,,,,,,,,,,,,,,,,,,,,,,,,,,,,,,,,,,,,,,,,,,,,,,,,,,,,,,,,,,,,,,,,,,,,,,,,,,,,,,
,,,,,,5d45afeb62ed9000197adbb8,62bbf94ea39084a135abfcd3,2022-06-29_09h05.15.087,Colour_Asymmetry_Pilot,2022.1.3,Win32,59.70149254,62bbe60bf3d75ef465d3e404,0,127,127,59,1,twofour,,,,,,,,,,,,,,,,,,,,,,,,,,,,,,,,,,,,,,,,,,,,,,,,,,,,,,,,,,,,,,,,,,,,,,,,,,,,,,,,,,,,,,,,,,,,,,,,,,,,,,,,,,,,,,,,,,,,,,,,,,,,,,,,,,,,,,,,,,,,,,,,,,,,,,,,
,,,,,,5d45afeb62ed9000197adbb8,62bbf94ea39084a135abfcd3,2022-06-29_09h05.15.087,Colour_Asymmetry_Pilot,2022.1.3,Win32,59.70149254,62bbe60bf3d75ef465d3e404,0,128,128,156,1,threeone,,,,,,,,,,,,,,,,,,,,,,,,,,,,,,,,,,,,,,,,,,,,,,,,,,,,,,,,,,,,,,,,,,,,,,,,,,,,,,,,,,,,,,,,,,,,,,,,,,,,,,,,,,,,,,,,,,,,,,,,,,,,,,,,,,,,,,,,,,,,,,,,,,,,,,,,
,,,,,,5d45afeb62ed9000197adbb8,62bbf94ea39084a135abfcd3,2022-06-29_09h05.15.087,Colour_Asymmetry_Pilot,2022.1.3,Win32,59.70149254,62bbe60bf3d75ef465d3e404,0,129,129,24,1,onetwo,,,,,,,,,,,,,,,,,,,,,,,,,,,,,,,,,,,,,,,,,,,,,,,,,,,,,,,,,,,,,,,,,,,,,,,,,,,,,,,,,,,,,,,,,,,,,,,,,,,,,,,,,,,,,,,,,,,,,,,,,,,,,,,,,,,,,,,,,,,,,,,,,,,,,,,,
,,,,,,5d45afeb62ed9000197adbb8,62bbf94ea39084a135abfcd3,2022-06-29_09h05.15.087,Colour_Asymmetry_Pilot,2022.1.3,Win32,59.70149254,62bbe60bf3d75ef465d3e404,0,130,130,133,1,threefour,,,,,,,,,,,,,,,,,,,,,,,,,,,,,,,,,,,,,,,,,,,,,,,,,,,,,,,,,,,,,,,,,,,,,,,,,,,,,,,,,,,,,,,,,,,,,,,,,,,,,,,,,,,,,,,,,,,,,,,,,,,,,,,,,,,,,,,,,,,,,,,,,,,,,,,,
,,,,,,5d45afeb62ed9000197adbb8,62bbf94ea39084a135abfcd3,2022-06-29_09h05.15.087,Colour_Asymmetry_Pilot,2022.1.3,Win32,59.70149254,62bbe60bf3d75ef465d3e404,0,131,131,48,1,onetwo,,,,,,,,,,,,,,,,,,,,,,,,,,,,,,,,,,,,,,,,,,,,,,,,,,,,,,,,,,,,,,,,,,,,,,,,,,,,,,,,,,,,,,,,,,,,,,,,,,,,,,,,,,,,,,,,,,,,,,,,,,,,,,,,,,,,,,,,,,,,,,,,,,,,,,,,
,,,,,,5d45afeb62ed9000197adbb8,62bbf94ea39084a135abfcd3,2022-06-29_09h05.15.087,Colour_Asymmetry_Pilot,2022.1.3,Win32,59.70149254,62bbe60bf3d75ef465d3e404,0,132,132,28,1,threeone,,,,,,,,,,,,,,,,,,,,,,,,,,,,,,,,,,,,,,,,,,,,,,,,,,,,,,,,,,,,,,,,,,,,,,,,,,,,,,,,,,,,,,,,,,,,,,,,,,,,,,,,,,,,,,,,,,,,,,,,,,,,,,,,,,,,,,,,,,,,,,,,,,,,,,,,
,,,,,,5d45afeb62ed9000197adbb8,62bbf94ea39084a135abfcd3,2022-06-29_09h05.15.087,Colour_Asymmetry_Pilot,2022.1.3,Win32,59.70149254,62bbe60bf3d75ef465d3e404,0,133,133,99,1,twofour,,,,,,,,,,,,,,,,,,,,,,,,,,,,,,,,,,,,,,,,,,,,,,,,,,,,,,,,,,,,,,,,,,,,,,,,,,,,,,,,,,,,,,,,,,,,,,,,,,,,,,,,,,,,,,,,,,,,,,,,,,,,,,,,,,,,,,,,,,,,,,,,,,,,,,,,
,,,,,,5d45afeb62ed9000197adbb8,62bbf94ea39084a135abfcd3,2022-06-29_09h05.15.087,Colour_Asymmetry_Pilot,2022.1.3,Win32,59.70149254,62bbe60bf3d75ef465d3e404,0,134,134,73,1,onethree,,,,,,,,,,,,,,,,,,,,,,,,,,,,,,,,,,,,,,,,,,,,,,,,,,,,,,,,,,,,,,,,,,,,,,,,,,,,,,,,,,,,,,,,,,,,,,,,,,,,,,,,,,,,,,,,,,,,,,,,,,,,,,,,,,,,,,,,,,,,,,,,,,,,,,,,
,,,,,,5d45afeb62ed9000197adbb8,62bbf94ea39084a135abfcd3,2022-06-29_09h05.15.087,Colour_Asymmetry_Pilot,2022.1.3,Win32,59.70149254,62bbe60bf3d75ef465d3e404,0,135,135,77,1,threefour,,,,,,,,,,,,,,,,,,,,,,,,,,,,,,,,,,,,,,,,,,,,,,,,,,,,,,,,,,,,,,,,,,,,,,,,,,,,,,,,,,,,,,,,,,,,,,,,,,,,,,,,,,,,,,,,,,,,,,,,,,,,,,,,,,,,,,,,,,,,,,,,,,,,,,,,
,,,,,,5d45afeb62ed9000197adbb8,62bbf94ea39084a135abfcd3,2022-06-29_09h05.15.087,Colour_Asymmetry_Pilot,2022.1.3,Win32,59.70149254,62bbe60bf3d75ef465d3e404,0,136,136,161,1,onethree,,,,,,,,,,,,,,,,,,,,,,,,,,,,,,,,,,,,,,,,,,,,,,,,,,,,,,,,,,,,,,,,,,,,,,,,,,,,,,,,,,,,,,,,,,,,,,,,,,,,,,,,,,,,,,,,,,,,,,,,,,,,,,,,,,,,,,,,,,,,,,,,,,,,,,,,
,,,,,,5d45afeb62ed9000197adbb8,62bbf94ea39084a135abfcd3,2022-06-29_09h05.15.087,Colour_Asymmetry_Pilot,2022.1.3,Win32,59.70149254,62bbe60bf3d75ef465d3e404,0,137,137,34,1,twoone,,,,,,,,,,,,,,,,,,,,,,,,,,,,,,,,,,,,,,,,,,,,,,,,,,,,,,,,,,,,,,,,,,,,,,,,,,,,,,,,,,,,,,,,,,,,,,,,,,,,,,,,,,,,,,,,,,,,,,,,,,,,,,,,,,,,,,,,,,,,,,,,,,,,,,,,
,,,,,,5d45afeb62ed9000197adbb8,62bbf94ea39084a135abfcd3,2022-06-29_09h05.15.087,Colour_Asymmetry_Pilot,2022.1.3,Win32,59.70149254,62bbe60bf3d75ef465d3e404,0,138,138,83,1,twofour,,,,,,,,,,,,,,,,,,,,,,,,,,,,,,,,,,,,,,,,,,,,,,,,,,,,,,,,,,,,,,,,,,,,,,,,,,,,,,,,,,,,,,,,,,,,,,,,,,,,,,,,,,,,,,,,,,,,,,,,,,,,,,,,,,,,,,,,,,,,,,,,,,,,,,,,
,,,,,,5d45afeb62ed9000197adbb8,62bbf94ea39084a135abfcd3,2022-06-29_09h05.15.087,Colour_Asymmetry_Pilot,2022.1.3,Win32,59.70149254,62bbe60bf3d75ef465d3e404,0,139,139,82,1,twoone,,,,,,,,,,,,,,,,,,,,,,,,,,,,,,,,,,,,,,,,,,,,,,,,,,,,,,,,,,,,,,,,,,,,,,,,,,,,,,,,,,,,,,,,,,,,,,,,,,,,,,,,,,,,,,,,,,,,,,,,,,,,,,,,,,,,,,,,,,,,,,,,,,,,,,,,
,,,,,,5d45afeb62ed9000197adbb8,62bbf94ea39084a135abfcd3,2022-06-29_09h05.15.087,Colour_Asymmetry_Pilot,2022.1.3,Win32,59.70149254,62bbe60bf3d75ef465d3e404,0,140,140,49,1,onethree,,,,,,,,,,,,,,,,,,,,,,,,,,,,,,,,,,,,,,,,,,,,,,,,,,,,,,,,,,,,,,,,,,,,,,,,,,,,,,,,,,,,,,,,,,,,,,,,,,,,,,,,,,,,,,,,,,,,,,,,,,,,,,,,,,,,,,,,,,,,,,,,,,,,,,,,
,,,,,,5d45afeb62ed9000197adbb8,62bbf94ea39084a135abfcd3,2022-06-29_09h05.15.087,Colour_Asymmetry_Pilot,2022.1.3,Win32,59.70149254,62bbe60bf3d75ef465d3e404,0,141,141,96,1,onetwo,,,,,,,,,,,,,,,,,,,,,,,,,,,,,,,,,,,,,,,,,,,,,,,,,,,,,,,,,,,,,,,,,,,,,,,,,,,,,,,,,,,,,,,,,,,,,,,,,,,,,,,,,,,,,,,,,,,,,,,,,,,,,,,,,,,,,,,,,,,,,,,,,,,,,,,,
,,,,,,5d45afeb62ed9000197adbb8,62bbf94ea39084a135abfcd3,2022-06-29_09h05.15.087,Colour_Asymmetry_Pilot,2022.1.3,Win32,59.70149254,62bbe60bf3d75ef465d3e404,0,142,142,149,1,threefour,,,,,,,,,,,,,,,,,,,,,,,,,,,,,,,,,,,,,,,,,,,,,,,,,,,,,,,,,,,,,,,,,,,,,,,,,,,,,,,,,,,,,,,,,,,,,,,,,,,,,,,,,,,,,,,,,,,,,,,,,,,,,,,,,,,,,,,,,,,,,,,,,,,,,,,,
,,,,,,5d45afeb62ed9000197adbb8,62bbf94ea39084a135abfcd3,2022-06-29_09h05.15.087,Colour_Asymmetry_Pilot,2022.1.3,Win32,59.70149254,62bbe60bf3d75ef465d3e404,0,143,143,69,1,threefour,,,,,,,,,,,,,,,,,,,,,,,,,,,,,,,,,,,,,,,,,,,,,,,,,,,,,,,,,,,,,,,,,,,,,,,,,,,,,,,,,,,,,,,,,,,,,,,,,,,,,,,,,,,,,,,,,,,,,,,,,,,,,,,,,,,,,,,,,,,,,,,,,,,,,,,,
,,,,,,5d45afeb62ed9000197adbb8,62bbf94ea39084a135abfcd3,2022-06-29_09h05.15.087,Colour_Asymmetry_Pilot,2022.1.3,Win32,59.70149254,62bbe60bf3d75ef465d3e404,0,144,144,102,1,fourtwo,,,,,,,,,,,,,,,,,,,,,,,,,,,,,,,,,,,,,,,,,,,,,,,,,,,,,,,,,,,,,,,,,,,,,,,,,,,,,,,,,,,,,,,,,,,,,,,,,,,,,,,,,,,,,,,,,,,,,,,,,,,,,,,,,,,,,,,,,,,,,,,,,,,,,,,,
,,,,,,5d45afeb62ed9000197adbb8,62bbf94ea39084a135abfcd3,2022-06-29_09h05.15.087,Colour_Asymmetry_Pilot,2022.1.3,Win32,59.70149254,62bbe60bf3d75ef465d3e404,0,145,145,79,1,fourthree,,,,,,,,,,,,,,,,,,,,,,,,,,,,,,,,,,,,,,,,,,,,,,,,,,,,,,,,,,,,,,,,,,,,,,,,,,,,,,,,,,,,,,,,,,,,,,,,,,,,,,,,,,,,,,,,,,,,,,,,,,,,,,,,,,,,,,,,,,,,,,,,,,,,,,,,
,,,,,,5d45afeb62ed9000197adbb8,62bbf94ea39084a135abfcd3,2022-06-29_09h05.15.087,Colour_Asymmetry_Pilot,2022.1.3,Win32,59.70149254,62bbe60bf3d75ef465d3e404,0,146,146,58,1,twoone,,,,,,,,,,,,,,,,,,,,,,,,,,,,,,,,,,,,,,,,,,,,,,,,,,,,,,,,,,,,,,,,,,,,,,,,,,,,,,,,,,,,,,,,,,,,,,,,,,,,,,,,,,,,,,,,,,,,,,,,,,,,,,,,,,,,,,,,,,,,,,,,,,,,,,,,
,,,,,,5d45afeb62ed9000197adbb8,62bbf94ea39084a135abfcd3,2022-06-29_09h05.15.087,Colour_Asymmetry_Pilot,2022.1.3,Win32,59.70149254,62bbe60bf3d75ef465d3e404,0,147,147,94,1,fourtwo,,,,,,,,,,,,,,,,,,,,,,,,,,,,,,,,,,,,,,,,,,,,,,,,,,,,,,,,,,,,,,,,,,,,,,,,,,,,,,,,,,,,,,,,,,,,,,,,,,,,,,,,,,,,,,,,,,,,,,,,,,,,,,,,,,,,,,,,,,,,,,,,,,,,,,,,
,,,,,,5d45afeb62ed9000197adbb8,62bbf94ea39084a135abfcd3,2022-06-29_09h05.15.087,Colour_Asymmetry_Pilot,2022.1.3,Win32,59.70149254,62bbe60bf3d75ef465d3e404,0,148,148,134,1,fourtwo,,,,,,,,,,,,,,,,,,,,,,,,,,,,,,,,,,,,,,,,,,,,,,,,,,,,,,,,,,,,,,,,,,,,,,,,,,,,,,,,,,,,,,,,,,,,,,,,,,,,,,,,,,,,,,,,,,,,,,,,,,,,,,,,,,,,,,,,,,,,,,,,,,,,,,,,
,,,,,,5d45afeb62ed9000197adbb8,62bbf94ea39084a135abfcd3,2022-06-29_09h05.15.087,Colour_Asymmetry_Pilot,2022.1.3,Win32,59.70149254,62bbe60bf3d75ef465d3e404,0,149,149,86,1,fourtwo,,,,,,,,,,,,,,,,,,,,,,,,,,,,,,,,,,,,,,,,,,,,,,,,,,,,,,,,,,,,,,,,,,,,,,,,,,,,,,,,,,,,,,,,,,,,,,,,,,,,,,,,,,,,,,,,,,,,,,,,,,,,,,,,,,,,,,,,,,,,,,,,,,,,,,,,
,,,,,,5d45afeb62ed9000197adbb8,62bbf94ea39084a135abfcd3,2022-06-29_09h05.15.087,Colour_Asymmetry_Pilot,2022.1.3,Win32,59.70149254,62bbe60bf3d75ef465d3e404,0,150,150,62,1,fourtwo,,,,,,,,,,,,,,,,,,,,,,,,,,,,,,,,,,,,,,,,,,,,,,,,,,,,,,,,,,,,,,,,,,,,,,,,,,,,,,,,,,,,,,,,,,,,,,,,,,,,,,,,,,,,,,,,,,,,,,,,,,,,,,,,,,,,,,,,,,,,,,,,,,,,,,,,
,,,,,,5d45afeb62ed9000197adbb8,62bbf94ea39084a135abfcd3,2022-06-29_09h05.15.087,Colour_Asymmetry_Pilot,2022.1.3,Win32,59.70149254,62bbe60bf3d75ef465d3e404,0,151,151,159,1,fourthree,,,,,,,,,,,,,,,,,,,,,,,,,,,,,,,,,,,,,,,,,,,,,,,,,,,,,,,,,,,,,,,,,,,,,,,,,,,,,,,,,,,,,,,,,,,,,,,,,,,,,,,,,,,,,,,,,,,,,,,,,,,,,,,,,,,,,,,,,,,,,,,,,,,,,,,,
,,,,,,5d45afeb62ed9000197adbb8,62bbf94ea39084a135abfcd3,2022-06-29_09h05.15.087,Colour_Asymmetry_Pilot,2022.1.3,Win32,59.70149254,62bbe60bf3d75ef465d3e404,0,152,152,63,1,fourthree,,,,,,,,,,,,,,,,,,,,,,,,,,,,,,,,,,,,,,,,,,,,,,,,,,,,,,,,,,,,,,,,,,,,,,,,,,,,,,,,,,,,,,,,,,,,,,,,,,,,,,,,,,,,,,,,,,,,,,,,,,,,,,,,,,,,,,,,,,,,,,,,,,,,,,,,
,,,,,,5d45afeb62ed9000197adbb8,62bbf94ea39084a135abfcd3,2022-06-29_09h05.15.087,Colour_Asymmetry_Pilot,2022.1.3,Win32,59.70149254,62bbe60bf3d75ef465d3e404,0,153,153,72,1,onetwo,,,,,,,,,,,,,,,,,,,,,,,,,,,,,,,,,,,,,,,,,,,,,,,,,,,,,,,,,,,,,,,,,,,,,,,,,,,,,,,,,,,,,,,,,,,,,,,,,,,,,,,,,,,,,,,,,,,,,,,,,,,,,,,,,,,,,,,,,,,,,,,,,,,,,,,,
,,,,,,5d45afeb62ed9000197adbb8,62bbf94ea39084a135abfcd3,2022-06-29_09h05.15.087,Colour_Asymmetry_Pilot,2022.1.3,Win32,59.70149254,62bbe60bf3d75ef465d3e404,0,154,154,100,1,threeone,,,,,,,,,,,,,,,,,,,,,,,,,,,,,,,,,,,,,,,,,,,,,,,,,,,,,,,,,,,,,,,,,,,,,,,,,,,,,,,,,,,,,,,,,,,,,,,,,,,,,,,,,,,,,,,,,,,,,,,,,,,,,,,,,,,,,,,,,,,,,,,,,,,,,,,,
,,,,,,5d45afeb62ed9000197adbb8,62bbf94ea39084a135abfcd3,2022-06-29_09h05.15.087,Colour_Asymmetry_Pilot,2022.1.3,Win32,59.70149254,62bbe60bf3d75ef465d3e404,0,155,155,117,1,threefour,,,,,,,,,,,,,,,,,,,,,,,,,,,,,,,,,,,,,,,,,,,,,,,,,,,,,,,,,,,,,,,,,,,,,,,,,,,,,,,,,,,,,,,,,,,,,,,,,,,,,,,,,,,,,,,,,,,,,,,,,,,,,,,,,,,,,,,,,,,,,,,,,,,,,,,,
,,,,,,5d45afeb62ed9000197adbb8,62bbf94ea39084a135abfcd3,2022-06-29_09h05.15.087,Colour_Asymmetry_Pilot,2022.1.3,Win32,59.70149254,62bbe60bf3d75ef465d3e404,0,156,156,76,1,threeone,,,,,,,,,,,,,,,,,,,,,,,,,,,,,,,,,,,,,,,,,,,,,,,,,,,,,,,,,,,,,,,,,,,,,,,,,,,,,,,,,,,,,,,,,,,,,,,,,,,,,,,,,,,,,,,,,,,,,,,,,,,,,,,,,,,,,,,,,,,,,,,,,,,,,,,,
,,,,,,5d45afeb62ed9000197adbb8,62bbf94ea39084a135abfcd3,2022-06-29_09h05.15.087,Colour_Asymmetry_Pilot,2022.1.3,Win32,59.70149254,62bbe60bf3d75ef465d3e404,0,157,157,143,1,fourthree,,,,,,,,,,,,,,,,,,,,,,,,,,,,,,,,,,,,,,,,,,,,,,,,,,,,,,,,,,,,,,,,,,,,,,,,,,,,,,,,,,,,,,,,,,,,,,,,,,,,,,,,,,,,,,,,,,,,,,,,,,,,,,,,,,,,,,,,,,,,,,,,,,,,,,,,
,,,,,,5d45afeb62ed9000197adbb8,62bbf94ea39084a135abfcd3,2022-06-29_09h05.15.087,Colour_Asymmetry_Pilot,2022.1.3,Win32,59.70149254,62bbe60bf3d75ef465d3e404,0,158,158,1,1,onethree,,,,,,,,,,,,,,,,,,,,,,,,,,,,,,,,,,,,,,,,,,,,,,,,,,,,,,,,,,,,,,,,,,,,,,,,,,,,,,,,,,,,,,,,,,,,,,,,,,,,,,,,,,,,,,,,,,,,,,,,,,,,,,,,,,,,,,,,,,,,,,,,,,,,,,,,
,,,,,,5d45afeb62ed9000197adbb8,62bbf94ea39084a135abfcd3,2022-06-29_09h05.15.087,Colour_Asymmetry_Pilot,2022.1.3,Win32,59.70149254,62bbe60bf3d75ef465d3e404,0,159,159,111,1,fourthree,,,,,,,,,,,,,,,,,,,,,,,,,,,,,,,,,,,,,,,,,,,,,,,,,,,,,,,,,,,,,,,,,,,,,,,,,,,,,,,,,,,,,,,,,,,,,,,,,,,,,,,,,,,,,,,,,,,,,,,,,,,,,,,,,,,,,,,,,,,,,,,,,,,,,,,,
,,,,,,5d45afeb62ed9000197adbb8,62bbf94ea39084a135abfcd3,2022-06-29_09h05.15.087,Colour_Asymmetry_Pilot,2022.1.3,Win32,59.70149254,62bbe60bf3d75ef465d3e404,0,160,160,75,1,twofour,,,,,,,,,,,,,,,,,,,,,,,,,,,,,,,,,,,,,,,,,,,,,,,,,,,,,,,,,,,,,,,,,,,,,,,,,,,,,,,,,,,,,,,,,,,,,,,,,,,,,,,,,,,,,,,,,,,,,,,,,,,,,,,,,,,,,,,,,,,,,,,,,,,,,,,,
,,,,,,5d45afeb62ed9000197adbb8,62bbf94ea39084a135abfcd3,2022-06-29_09h05.15.087,Colour_Asymmetry_Pilot,2022.1.3,Win32,59.70149254,62bbe60bf3d75ef465d3e404,0,161,161,9,1,onethree,,,,,,,,,,,,,,,,,,,,,,,,,,,,,,,,,,,,,,,,,,,,,,,,,,,,,,,,,,,,,,,,,,,,,,,,,,,,,,,,,,,,,,,,,,,,,,,,,,,,,,,,,,,,,,,,,,,,,,,,,,,,,,,,,,,,,,,,,,,,,,,,,,,,,,,,
,,,,,,5d45afeb62ed9000197adbb8,62bbf94ea39084a135abfcd3,2022-06-29_09h05.15.087,Colour_Asymmetry_Pilot,2022.1.3,Win32,59.70149254,62bbe60bf3d75ef465d3e404,,,,,,,space,3.655,space,7.9165,space,27.8511,space,18.7729,space,1.8854,space,6.0881,"[-0.9688,-0.7412000000000001,-0.4902000000000001]",threeone,"[0.04299999999999993,0.16060000000000008,-0.6628000000000001]",-4,5.317,-50,99,1,0,0,response7disk_5,5,-1,1,0,0,rectangle_8,5,-1,1,0,0,3,5,-1,1,0,0,0,0,0,0,1,,,,,,,,,,,,,,,,,,,,,,,,,,,,,,,,,,,,,,,,,,,,,,,,,,,,,,,,,,,,,,,,,,,,,,,,,,,,,,,,,,,,,,,,,,,,,,,,,,,,,,,,,,,
,,,,,,5d45afeb62ed9000197adbb8,62bbf94ea39084a135abfcd3,2022-06-29_09h05.15.087,Colour_Asymmetry_Pilot,2022.1.3,Win32,59.70149254,62bbe60bf3d75ef465d3e404,,,,,,,,,,,,,,,,,,,"[0.5528,0.7409999999999999,-0.71]",fourthree,"[-0.0040000000000000036,0.02739999999999987,-0.08239999999999992]",1,3.1844,41,-90,1,0,0,response3disk_5,9,5,1,0,0,rectangle_8,9,5,1,0,0,3,9,5,1,0,0,1,0,1,0,1,,,,,,,,,,,,,,,,,,,,,,,,,,,,,,,,,,,,,,,,,,,,,,,,,,,,,,,,,,,,,,,,,,,,,,,,,,,,,,,,,,,,,,,,,,,,,,,,,,,,,,,,,,,
,,,,,,5d45afeb62ed9000197adbb8,62bbf94ea39084a135abfcd3,2022-06-29_09h05.15.087,Colour_Asymmetry_Pilot,2022.1.3,Win32,59.70149254,62bbe60bf3d75ef465d3e404,,,,,,,,,,,,,,,,,,,"[-0.8118,-0.8198,-0.5452]",onetwo,"[-0.9296,-0.12959999999999994,-0.043199999999999905]",-1,3.6205,-47,-92,1,0,0,response5disk_5,-4,3,1,0,0,rectangle_8,-4,3,1,0,0,3,-4,3,1,0,0,2,0,2,0,1,,,,,,,,,,,,,,,,,,,,,,,,,,,,,,,,,,,,,,,,,,,,,,,,,,,,,,,,,,,,,,,,,,,,,,,,,,,,,,,,,,,,,,,,,,,,,,,,,,,,,,,,,,,
,,,,,,5d45afeb62ed9000197adbb8,62bbf94ea39084a135abfcd3,2022-06-29_09h05.15.087,Colour_Asymmetry_Pilot,2022.1.3,Win32,59.70149254,62bbe60bf3d75ef465d3e404,,,,,,,,,,,,,,,,,,,"[-0.45899999999999996,-0.3256,-0.9374]",twoone,"[0.8274000000000001,-0.5844,-0.9452]",-4,1.777,-50,78,1,0,0,response7disk_5,-5,3,1,0,0,rectangle_8,-5,3,1,0,0,3,-5,3,1,0,0,3,0,3,0,1,,,,,,,,,,,,,,,,,,,,,,,,,,,,,,,,,,,,,,,,,,,,,,,,,,,,,,,,,,,,,,,,,,,,,,,,,,,,,,,,,,,,,,,,,,,,,,,,,,,,,,,,,,,
,,,,,,5d45afeb62ed9000197adbb8,62bbf94ea39084a135abfcd3,2022-06-29_09h05.15.087,Colour_Asymmetry_Pilot,2022.1.3,Win32,59.70149254,62bbe60bf3d75ef465d3e404,,,,,,,,,,,,,,,,,,,"[0.34099999999999997,0.12939999999999996,-0.9766]",fourtwo,"[0.37240000000000006,-0.050999999999999934,-0.5216]",2,1.978,55,-36,1,0,0,response3disk_5,-4,-2,1,0,0,rectangle_8,-4,-2,1,0,0,3,-4,-2,1,0,0,4,0,4,0,1,,,,,,,,,,,,,,,,,,,,,,,,,,,,,,,,,,,,,,,,,,,,,,,,,,,,,,,,,,,,,,,,,,,,,,,,,,,,,,,,,,,,,,,,,,,,,,,,,,,,,,,,,,,
,,,,,,5d45afeb62ed9000197adbb8,62bbf94ea39084a135abfcd3,2022-06-29_09h05.15.087,Colour_Asymmetry_Pilot,2022.1.3,Win32,59.70149254,62bbe60bf3d75ef465d3e404,,,,,,,,,,,,,,,,,,,"[-0.7412000000000001,-0.08239999999999992,-0.6864]",twoone,"[0.18419999999999992,-0.4276,-0.404]",-4,1.8266,-53,76,1,0,0,response7disk_5,6,-9,1,0,0,rectangle_8,94,40,1,0,0,3,-3,4,1,0,0,5,0,5,0,1,response1disk_7,6,rectangle_4,,,,,,,,,,,,,,,,,,,,,,,,,,,,,,,,,,,,,,,,,,,,,,,,,,,,,,,,,,,,,,,,,,,,,,,,,,,,,,,,,,,,,,,,,,,,,,,,,,,,,,,,
,,,,,,5d45afeb62ed9000197adbb8,62bbf94ea39084a135abfcd3,2022-06-29_09h05.15.087,Colour_Asymmetry_Pilot,2022.1.3,Win32,59.70149254,62bbe60bf3d75ef465d3e404,,,,,,,,,,,,,,,,,,,"[-0.2942,-0.24719999999999998,-0.357]",twofour,"[0.11359999999999992,0.6312,0.5213999999999999]",-1,2.5147,-32,-87,1,0,0,response5disk_5,6,5,1,0,0,rectangle_8,6,5,1,0,0,3,6,5,1,0,0,6,0,6,0,1,,,,,,,,,,,,,,,,,,,,,,,,,,,,,,,,,,,,,,,,,,,,,,,,,,,,,,,,,,,,,,,,,,,,,,,,,,,,,,,,,,,,,,,,,,,,,,,,,,,,,,,,,,,
,,,,,,5d45afeb62ed9000197adbb8,62bbf94ea39084a135abfcd3,2022-06-29_09h05.15.087,Colour_Asymmetry_Pilot,2022.1.3,Win32,59.70149254,62bbe60bf3d75ef465d3e404,,,,,,,,,,,,,,,,,,,,threefour,,-1,0.9222,,,,,,,,,,,,,,,,,,,,,,,,,,,,,,,,space,6.743,"[-0.48240000000000005,0.3175999999999999,0.2156]","[0.7018,0.7802,-0.16079999999999994]",-45,-92,1,0,0,response5disk,11,-1,1,0,0,rectangle,11,-1,1,0,0,,2,0.0012,0,11,-1,1,0,0,0,0,0,25,1,25,first,,,,,,,,,,,,,,,,,,,,,,,,,,,,,,,,,,,,,,,,,,,,,,,,,,,,,,,,,,,,,,,,,,,
,,,,,,5d45afeb62ed9000197adbb8,62bbf94ea39084a135abfcd3,2022-06-29_09h05.15.087,Colour_Asymmetry_Pilot,2022.1.3,Win32,59.70149254,62bbe60bf3d75ef465d3e404,,,,,,,,,,,,,,,,,,,,twoone,,1,0.7207,,,,,,,,,,,,,,,,,,,,,,,,,,,,,,,,,,"[0.40379999999999994,0.09000000000000008,0.44300000000000006]","[0.6547999999999998,-0.043199999999999905,-0.011800000000000033]",37,-68,1,0,0,response3disk,12,-1,1,0,0,rectangle,12,-1,1,0,0,,1,0.0008,0,12,-1,1,0,0,0,1,1,147,1,66,second,,,,,,,,,,,,,,,,,,,,,,,,,,,,,,,,,,,,,,,,,,,,,,,,,,,,,,,,,,,,,,,,,,,
,,,,,,5d45afeb62ed9000197adbb8,62bbf94ea39084a135abfcd3,2022-06-29_09h05.15.087,Colour_Asymmetry_Pilot,2022.1.3,Win32,59.70149254,62bbe60bf3d75ef465d3e404,,,,,,,,,,,,,,,,,,,,twoone,,-3,1.5247,,,,,,,,,,,,,,,,,,,,,,,,,,,,,,,,,,"[-0.4902000000000001,0.2704,-0.45899999999999996]","[0.7646000000000002,0.07440000000000002,0.2704]",-97,33,1,0,0,response7disk,6,1,1,0,0,rectangle,6,1,1,0,0,,1,1E-04,0,6,1,1,0,0,0,2,2,31,1,31,first,,,,,,,,,,,,,,,,,,,,,,,,,,,,,,,,,,,,,,,,,,,,,,,,,,,,,,,,,,,,,,,,,,,
,,,,,,5d45afeb62ed9000197adbb8,62bbf94ea39084a135abfcd3,2022-06-29_09h05.15.087,Colour_Asymmetry_Pilot,2022.1.3,Win32,59.70149254,62bbe60bf3d75ef465d3e404,,,,,,,,,,,,,,,,,,,,twoone,,-3,0.6528,,,,,,,,,,,,,,,,,,,,,,,,,,,,,,,,,,"[0.9763999999999999,0.30979999999999985,-0.6786]","[-0.6235999999999999,-0.6786,-0.08239999999999992]",-79,34,1,0,0,response7disk,12,5,1,0,0,rectangle,93,-40,1,0,0,2,2,5.9169,1,9,-1,1,0,0,0,3,3,104,1,23,second,response3disk_3,rectangle,,,,,,,,,,,,,,,,,,,,,,,,,,,,,,,,,,,,,,,,,,,,,,,,,,,,,,,,,,,,,,,,,
,,,,,,5d45afeb62ed9000197adbb8,62bbf94ea39084a135abfcd3,2022-06-29_09h05.15.087,Colour_Asymmetry_Pilot,2022.1.3,Win32,59.70149254,62bbe60bf3d75ef465d3e404,,,,,,,,,,,,,,,,,,,,fourthree,,-2,1.2405,,,,,,,,,,,,,,,,,,,,,,,,,,,,,,,,,,"[-0.48240000000000005,0.3175999999999999,0.2156]","[-0.26280000000000003,-0.4746,-0.2158]",-75,-42,1,0,0,response5disk,23,6,1,0,0,rectangle,23,6,1,0,0,2,1,0.0006,0,23,6,1,0,0,0,4,4,144,1,63,second,,,,,,,,,,,,,,,,,,,,,,,,,,,,,,,,,,,,,,,,,,,,,,,,,,,,,,,,,,,,,,,,,,,
,,,,,,5d45afeb62ed9000197adbb8,62bbf94ea39084a135abfcd3,2022-06-29_09h05.15.087,Colour_Asymmetry_Pilot,2022.1.3,Win32,59.70149254,62bbe60bf3d75ef465d3e404,,,,,,,,,,,,,,,,,,,,onetwo,,-2,0.5862,,,,,,,,,,,,,,,,,,,,,,,,,,,,,,,,,,"[0.796,0.2156,-0.27859999999999996]","[-0.10599999999999998,-0.10599999999999998,0.5841999999999998]",-67,-34,1,0,0,response5disk,15,3,1,0,0,rectangle,15,3,1,0,0,2,3,0.0007,0,15,3,1,0,0,0,5,5,139,1,58,second,,,,,,,,,,,,,,,,,,,,,,,,,,,,,,,,,,,,,,,,,,,,,,,,,,,,,,,,,,,,,,,,,,,
,,,,,,5d45afeb62ed9000197adbb8,62bbf94ea39084a135abfcd3,2022-06-29_09h05.15.087,Colour_Asymmetry_Pilot,2022.1.3,Win32,59.70149254,62bbe60bf3d75ef465d3e404,,,,,,,,,,,,,,,,,,,,onetwo,,1,0.8046,,,,,,,,,,,,,,,,,,,,,,,,,,,,,,,,,,"[0.9372,0.9450000000000001,0.8980000000000001]","[0.05879999999999996,0.2784,0.5841999999999998]",32,-77,1,0,0,response3disk,19,-1,1,0,0,rectangle,19,-1,1,0,0,2,2,0.0006,0,19,-1,1,0,0,0,6,6,126,1,45,second,,,,,,,,,,,,,,,,,,,,,,,,,,,,,,,,,,,,,,,,,,,,,,,,,,,,,,,,,,,,,,,,,,,
,,,,,,5d45afeb62ed9000197adbb8,62bbf94ea39084a135abfcd3,2022-06-29_09h05.15.087,Colour_Asymmetry_Pilot,2022.1.3,Win32,59.70149254,62bbe60bf3d75ef465d3e404,,,,,,,,,,,,,,,,,,,,twoone,,-2,0.6701,,,,,,,,,,,,,,,,,,,,,,,,,,,,,,,,,,"[0.34099999999999997,0.5841999999999998,-0.9844]","[-0.5452,-0.608,0.2470000000000001]",-70,-26,1,0,0,response5disk,17,8,1,0,0,rectangle,17,8,1,0,0,2,2,0.0002,0,17,8,1,0,0,0,7,7,149,1,68,second,,,,,,,,,,,,,,,,,,,,,,,,,,,,,,,,,,,,,,,,,,,,,,,,,,,,,,,,,,,,,,,,,,,
,,,,,,5d45afeb62ed9000197adbb8,62bbf94ea39084a135abfcd3,2022-06-29_09h05.15.087,Colour_Asymmetry_Pilot,2022.1.3,Win32,59.70149254,62bbe60bf3d75ef465d3e404,,,,,,,,,,,,,,,,,,,,threefour,,-1,0.8382,,,,,,,,,,,,,,,,,,,,,,,,,,,,,,,,,,"[-0.2942,-0.7648,-0.7492000000000001]","[0.34099999999999997,0.12939999999999996,-0.9766]",-35,-74,1,0,0,response5disk,16,4,1,0,0,rectangle,16,4,1,0,0,2,3,0.0008,0,16,4,1,0,0,0,8,8,42,1,42,first,,,,,,,,,,,,,,,,,,,,,,,,,,,,,,,,,,,,,,,,,,,,,,,,,,,,,,,,,,,,,,,,,,,
,,,,,,5d45afeb62ed9000197adbb8,62bbf94ea39084a135abfcd3,2022-06-29_09h05.15.087,Colour_Asymmetry_Pilot,2022.1.3,Win32,59.70149254,62bbe60bf3d75ef465d3e404,,,,,,,,,,,,,,,,,,,,onetwo,,-1,0.5196,,,,,,,,,,,,,,,,,,,,,,,,,,,,,,,,,,"[-0.4982,-0.2942,-0.0354000000000001]","[0.23920000000000008,0.2704,0.16060000000000008]",-22,-64,1,0,0,response5disk,18,5,1,0,0,rectangle,18,5,1,0,0,2,1,0.0009,0,18,5,1,0,0,0,9,9,12,1,12,first,,,,,,,,,,,,,,,,,,,,,,,,,,,,,,,,,,,,,,,,,,,,,,,,,,,,,,,,,,,,,,,,,,,
,,,,,,5d45afeb62ed9000197adbb8,62bbf94ea39084a135abfcd3,2022-06-29_09h05.15.087,Colour_Asymmetry_Pilot,2022.1.3,Win32,59.70149254,62bbe60bf3d75ef465d3e404,,,,,,,,,,,,,,,,,,,,onethree,,-1,0.7036,,,,,,,,,,,,,,,,,,,,,,,,,,,,,,,,,,"[0.05879999999999996,0.2784,0.5841999999999998]","[0.9372,0.9450000000000001,0.8980000000000001]",-47,-69,1,0,0,response5disk,18,5,1,0,0,rectangle,18,5,1,0,0,2,1,1E-04,0,18,5,1,0,0,0,10,10,45,1,45,first,,,,,,,,,,,,,,,,,,,,,,,,,,,,,,,,,,,,,,,,,,,,,,,,,,,,,,,,,,,,,,,,,,,
,,,,,,5d45afeb62ed9000197adbb8,62bbf94ea39084a135abfcd3,2022-06-29_09h05.15.087,Colour_Asymmetry_Pilot,2022.1.3,Win32,59.70149254,62bbe60bf3d75ef465d3e404,,,,,,,,,,,,,,,,,,,,fourtwo,,-1,0.6034,,,,,,,,,,,,,,,,,,,,,,,,,,,,,,,,,,"[-0.24719999999999998,-0.0354000000000001,0.3175999999999999]","[0.3881999999999999,-0.23939999999999995,-0.05040000000000011]",-61,-78,1,0,0,response5disk,19,-1,1,0,0,rectangle,19,-1,1,0,0,2,3,0.0006,0,19,-1,1,0,0,0,11,11,71,1,71,first,,,,,,,,,,,,,,,,,,,,,,,,,,,,,,,,,,,,,,,,,,,,,,,,,,,,,,,,,,,,,,,,,,,
,,,,,,5d45afeb62ed9000197adbb8,62bbf94ea39084a135abfcd3,2022-06-29_09h05.15.087,Colour_Asymmetry_Pilot,2022.1.3,Win32,59.70149254,62bbe60bf3d75ef465d3e404,,,,,,,,,,,,,,,,,,,,threeone,,-2,0.7875,,,,,,,,,,,,,,,,,,,,,,,,,,,,,,,,,,"[0.05879999999999996,0.2784,0.5841999999999998]","[0.34099999999999997,0.5841999999999998,-0.9844]",-76,-38,1,0,0,response5disk,17,9,1,0,0,rectangle,17,9,1,0,0,2,2,0.0006,0,17,9,1,0,0,0,12,12,131,1,50,second,,,,,,,,,,,,,,,,,,,,,,,,,,,,,,,,,,,,,,,,,,,,,,,,,,,,,,,,,,,,,,,,,,,
,,,,,,5d45afeb62ed9000197adbb8,62bbf94ea39084a135abfcd3,2022-06-29_09h05.15.087,Colour_Asymmetry_Pilot,2022.1.3,Win32,59.70149254,62bbe60bf3d75ef465d3e404,,,,,,,,,,,,,,,,,,,,fourthree,,-2,0.6214,,,,,,,,,,,,,,,,,,,,,,,,,,,,,,,,,,"[-0.4982,-0.2942,-0.0354000000000001]","[0.18419999999999992,-0.4276,-0.404]",-62,-29,1,0,0,response5disk,17,6,1,0,0,rectangle,17,6,1,0,0,2,2,0.0002,0,17,6,1,0,0,0,13,13,109,1,28,second,,,,,,,,,,,,,,,,,,,,,,,,,,,,,,,,,,,,,,,,,,,,,,,,,,,,,,,,,,,,,,,,,,,
,,,,,,5d45afeb62ed9000197adbb8,62bbf94ea39084a135abfcd3,2022-06-29_09h05.15.087,Colour_Asymmetry_Pilot,2022.1.3,Win32,59.70149254,62bbe60bf3d75ef465d3e404,,,,,,,,,,,,,,,,,,,,onetwo,,-3,0.7875,,,,,,,,,,,,,,,,,,,,,,,,,,,,,,,,,,"[0.9842,0.7409999999999999,-0.6628000000000001]","[0.7176,-0.906,-0.6864]",-50,23,1,0,0,response7disk,20,9,1,0,0,rectangle,20,9,1,0,0,2,3,0.0007,0,20,9,1,0,0,0,14,14,150,1,69,second,,,,,,,,,,,,,,,,,,,,,,,,,,,,,,,,,,,,,,,,,,,,,,,,,,,,,,,,,,,,,,,,,,,
,,,,,,5d45afeb62ed9000197adbb8,62bbf94ea39084a135abfcd3,2022-06-29_09h05.15.087,Colour_Asymmetry_Pilot,2022.1.3,Win32,59.70149254,62bbe60bf3d75ef465d3e404,,,,,,,,,,,,,,,,,,,,twoone,,-1,1.3739,,,,,,,,,,,,,,,,,,,,,,,,,,,,,,,,,,"[-0.9216,-0.5529999999999999,-0.3962]","[-0.45899999999999996,-0.3256,-0.9374]",-25,-85,1,0,0,response5disk,15,0,1,0,0,rectangle,15,0,1,0,0,2,1,0.0008,0,15,0,1,0,0,0,15,15,100,1,19,second,,,,,,,,,,,,,,,,,,,,,,,,,,,,,,,,,,,,,,,,,,,,,,,,,,,,,,,,,,,,,,,,,,,
,,,,,,5d45afeb62ed9000197adbb8,62bbf94ea39084a135abfcd3,2022-06-29_09h05.15.087,Colour_Asymmetry_Pilot,2022.1.3,Win32,59.70149254,62bbe60bf3d75ef465d3e404,,,,,,,,,,,,,,,,,,,,twoone,,2,1.1393,,,,,,,,,,,,,,,,,,,,,,,,,,,,,,,,,,"[-0.4746,-0.0354000000000001,0.5449999999999999]","[-0.9766,-0.6472,0.07440000000000002]",73,-41,1,0,0,response3disk,17,2,1,0,0,rectangle,52,-86,1,0,0,1,1,2.8663,1,10,3,1,0,0,0,16,16,161,1,80,second,response3disk_3,rectangle,,,,,,,,,,,,,,,,,,,,,,,,,,,,,,,,,,,,,,,,,,,,,,,,,,,,,,,,,,,,,,,,,
,,,,,,5d45afeb62ed9000197adbb8,62bbf94ea39084a135abfcd3,2022-06-29_09h05.15.087,Colour_Asymmetry_Pilot,2022.1.3,Win32,59.70149254,62bbe60bf3d75ef465d3e404,,,,,,,,,,,,,,,,,,,,twofour,,-1,0.5361,,,,,,,,,,,,,,,,,,,,,,,,,,,,,,,,,,"[-0.34920000000000007,-0.702,-0.5216]","[0.3802000000000001,0.19199999999999995,-0.6394]",-32,-65,1,0,0,response5disk,17,6,1,0,0,rectangle,17,6,1,0,0,1,1,0.0002,0,17,6,1,0,0,0,17,17,49,1,49,first,,,,,,,,,,,,,,,,,,,,,,,,,,,,,,,,,,,,,,,,,,,,,,,,,,,,,,,,,,,,,,,,,,,
,,,,,,5d45afeb62ed9000197adbb8,62bbf94ea39084a135abfcd3,2022-06-29_09h05.15.087,Colour_Asymmetry_Pilot,2022.1.3,Win32,59.70149254,62bbe60bf3d75ef465d3e404,,,,,,,,,,,,,,,,,,,,threeone,,2,0.637,,,,,,,,,,,,,,,,,,,,,,,,,,,,,,,,,,"[0.6625999999999999,0.4980000000000002,-0.357]","[0.37240000000000006,0.4980000000000002,-0.2864]",71,-37,1,0,0,response3disk,11,0,1,0,0,rectangle,11,0,1,0,0,1,2,0.0006,0,11,0,1,0,0,0,18,18,128,1,47,second,,,,,,,,,,,,,,,,,,,,,,,,,,,,,,,,,,,,,,,,,,,,,,,,,,,,,,,,,,,,,,,,,,,
,,,,,,5d45afeb62ed9000197adbb8,62bbf94ea39084a135abfcd3,2022-06-29_09h05.15.087,Colour_Asymmetry_Pilot,2022.1.3,Win32,59.70149254,62bbe60bf3d75ef465d3e404,,,,,,,,,,,,,,,,,,,,onethree,,-2,0.5529,,,,,,,,,,,,,,,,,,,,,,,,,,,,,,,,,,"[0.12939999999999996,-0.2864,0.3253999999999999]","[0.7018,0.7802,-0.16079999999999994]",-65,-25,1,0,0,response5disk,4,2,1,0,0,rectangle,93,33,1,0,0,3,3,1.9773,1,20,-2,1,0,0,0,19,19,76,1,76,first,response1disk_3,rectangle,,,,,,,,,,,,,,,,,,,,,,,,,,,,,,,,,,,,,,,,,,,,,,,,,,,,,,,,,,,,,,,,,
,,,,,,5d45afeb62ed9000197adbb8,62bbf94ea39084a135abfcd3,2022-06-29_09h05.15.087,Colour_Asymmetry_Pilot,2022.1.3,Win32,59.70149254,62bbe60bf3d75ef465d3e404,,,,,,,,,,,,,,,,,,,,threefour,,-2,0.7539,,,,,,,,,,,,,,,,,,,,,,,,,,,,,,,,,,"[-0.09019999999999995,0.44300000000000006,0.5371999999999999]","[-0.6706000000000001,-0.6157999999999999,-0.6786]",-60,-40,1,0,0,response5disk,21,5,1,0,0,rectangle,21,5,1,0,0,3,3,0.0002,0,21,5,1,0,0,0,20,20,125,1,44,second,,,,,,,,,,,,,,,,,,,,,,,,,,,,,,,,,,,,,,,,,,,,,,,,,,,,,,,,,,,,,,,,,,,
