trials.thisRepN,trials.thisTrialN,trials.thisN,trials.thisIndex,trials.ran,Colourcodes,participant,session,date,expName,psychopyVersion,OS,frameRate,study_id,trials_4.thisRepN,trials_4.thisTrialN,trials_4.thisN,trials_4.thisIndex,trials_4.ran,StimulusPos,key_resp.keys,key_resp.rt,key_resp_2.keys,key_resp_2.rt,key_resp_15.keys,key_resp_15.rt,key_resp_17.keys,key_resp_17.rt,key_resp_9.keys,key_resp_9.rt,key_resp_10.keys,key_resp_10.rt,Circle1_col,Ecc,Circle2_col,similarity,response_time,mouse_5.x,mouse_5.y,mouse_5.leftButton,mouse_5.midButton,mouse_5.rightButton,mouse_5.clicked_name,mouse_10.x,mouse_10.y,mouse_10.leftButton,mouse_10.midButton,mouse_10.rightButton,mouse_10.clicked_name,mouse_7.x,mouse_7.y,mouse_7.leftButton,mouse_7.midButton,mouse_7.rightButton,catchnumberprac,mouse_6.x,mouse_6.y,mouse_6.leftButton,mouse_6.midButton,mouse_6.rightButton,duringprac.thisRepN,duringprac.thisTrialN,duringprac.thisN,duringprac.thisIndex,duringprac.ran,mouse_7.clicked_name,catchprac,mouse_6.clicked_name,key_resp_22.keys,key_resp_22.rt,Circle1_colour,Circle2_colour,mouse.x,mouse.y,mouse.leftButton,mouse.midButton,mouse.rightButton,mouse.clicked_name,mouse_2.x,mouse_2.y,mouse_2.leftButton,mouse_2.midButton,mouse_2.rightButton,mouse_2.clicked_name,mouse_3.x,mouse_3.y,mouse_3.leftButton,mouse_3.midButton,mouse_3.rightButton,mouse_3.clicked_name,catchresponse,catchnumber,response_time_catch,Catch,mouse_11.x,mouse_11.y,mouse_11.leftButton,mouse_11.midButton,mouse_11.rightButton,mouse_11.clicked_name,trials_2.thisRepN,trials_2.thisTrialN,trials_2.thisN,trials_2.thisIndex,trials_2.ran,Colourpair,Temporder,trials_3.thisRepN,trials_3.thisTrialN,trials_3.thisN,trials_3.thisIndex,trials_3.ran,key_resp_instr_Ishi.keys,key_resp_instr_Ishi.rt,Ishi_trial_keyresp.keys,Ishi_trial_keyresp.rt,Ishi_textbox.text,Ishi_loop.thisRepN,Ishi_loop.thisTrialN,Ishi_loop.thisN,Ishi_loop.thisIndex,Ishi_loop.ran,imageaddress,textbox.text,mouse_4.x,mouse_4.y,mouse_4.leftButton,mouse_4.midButton,mouse_4.rightButton,mouse_4.clicked_name,textbox_2.text,mouse_8.x,mouse_8.y,mouse_8.leftButton,mouse_8.midButton,mouse_8.rightButton,mouse_8.clicked_name,textbox_3.text,mouse_9.x,mouse_9.y,mouse_9.leftButton,mouse_9.midButton,mouse_9.rightButton,mouse_9.clicked_name,textbox_4.text,mouse_12.x,mouse_12.y,mouse_12.leftButton,mouse_12.midButton,mouse_12.rightButton,mouse_12.clicked_name,textbox_5.text,mouse_13.x,mouse_13.y,mouse_13.leftButton,mouse_13.midButton,mouse_13.rightButton,mouse_13.clicked_name,textbox_6.text,mouse_14.x,mouse_14.y,mouse_14.leftButton,mouse_14.midButton,mouse_14.rightButton,mouse_14.clicked_name,textbox_7.text,mouse_15.x,mouse_15.y,mouse_15.leftButton,mouse_15.midButton,mouse_15.rightButton,mouse_15.clicked_name
0,0,0,55,1,,60e223997949aa8e7632763d,62bbfb36fb546d5885e76815,2022-06-29_09h16.32.659,Colour_Asymmetry_Pilot,2022.1.3,Win32,61.48927012,62bbe60bf3d75ef465d3e404,,,,,,,,,,,,,,,,,,,,,,,,,,,,,,,,,,,,,,,,,,,,,,,,,,,,,,,,,,,,,,,,,,,,,,,,,,,,,,,,,,,,,,,,,,,,,,,,,,,,,,,,,,,,,,,,,,,,,,,,,,,,,,,,,,,,,,,,,,,,,,,,,,,,,,,,,,,,,,
0,1,1,51,1,,60e223997949aa8e7632763d,62bbfb36fb546d5885e76815,2022-06-29_09h16.32.659,Colour_Asymmetry_Pilot,2022.1.3,Win32,61.48927012,62bbe60bf3d75ef465d3e404,,,,,,,,,,,,,,,,,,,,,,,,,,,,,,,,,,,,,,,,,,,,,,,,,,,,,,,,,,,,,,,,,,,,,,,,,,,,,,,,,,,,,,,,,,,,,,,,,,,,,,,,,,,,,,,,,,,,,,,,,,,,,,,,,,,,,,,,,,,,,,,,,,,,,,,,,,,,,,
0,2,2,88,1,,60e223997949aa8e7632763d,62bbfb36fb546d5885e76815,2022-06-29_09h16.32.659,Colour_Asymmetry_Pilot,2022.1.3,Win32,61.48927012,62bbe60bf3d75ef465d3e404,,,,,,,,,,,,,,,,,,,,,,,,,,,,,,,,,,,,,,,,,,,,,,,,,,,,,,,,,,,,,,,,,,,,,,,,,,,,,,,,,,,,,,,,,,,,,,,,,,,,,,,,,,,,,,,,,,,,,,,,,,,,,,,,,,,,,,,,,,,,,,,,,,,,,,,,,,,,,,
0,3,3,45,1,,60e223997949aa8e7632763d,62bbfb36fb546d5885e76815,2022-06-29_09h16.32.659,Colour_Asymmetry_Pilot,2022.1.3,Win32,61.48927012,62bbe60bf3d75ef465d3e404,,,,,,,,,,,,,,,,,,,,,,,,,,,,,,,,,,,,,,,,,,,,,,,,,,,,,,,,,,,,,,,,,,,,,,,,,,,,,,,,,,,,,,,,,,,,,,,,,,,,,,,,,,,,,,,,,,,,,,,,,,,,,,,,,,,,,,,,,,,,,,,,,,,,,,,,,,,,,,
0,4,4,69,1,,60e223997949aa8e7632763d,62bbfb36fb546d5885e76815,2022-06-29_09h16.32.659,Colour_Asymmetry_Pilot,2022.1.3,Win32,61.48927012,62bbe60bf3d75ef465d3e404,,,,,,,,,,,,,,,,,,,,,,,,,,,,,,,,,,,,,,,,,,,,,,,,,,,,,,,,,,,,,,,,,,,,,,,,,,,,,,,,,,,,,,,,,,,,,,,,,,,,,,,,,,,,,,,,,,,,,,,,,,,,,,,,,,,,,,,,,,,,,,,,,,,,,,,,,,,,,,
0,5,5,38,1,,60e223997949aa8e7632763d,62bbfb36fb546d5885e76815,2022-06-29_09h16.32.659,Colour_Asymmetry_Pilot,2022.1.3,Win32,61.48927012,62bbe60bf3d75ef465d3e404,,,,,,,,,,,,,,,,,,,,,,,,,,,,,,,,,,,,,,,,,,,,,,,,,,,,,,,,,,,,,,,,,,,,,,,,,,,,,,,,,,,,,,,,,,,,,,,,,,,,,,,,,,,,,,,,,,,,,,,,,,,,,,,,,,,,,,,,,,,,,,,,,,,,,,,,,,,,,,
0,6,6,75,1,,60e223997949aa8e7632763d,62bbfb36fb546d5885e76815,2022-06-29_09h16.32.659,Colour_Asymmetry_Pilot,2022.1.3,Win32,61.48927012,62bbe60bf3d75ef465d3e404,,,,,,,,,,,,,,,,,,,,,,,,,,,,,,,,,,,,,,,,,,,,,,,,,,,,,,,,,,,,,,,,,,,,,,,,,,,,,,,,,,,,,,,,,,,,,,,,,,,,,,,,,,,,,,,,,,,,,,,,,,,,,,,,,,,,,,,,,,,,,,,,,,,,,,,,,,,,,,
0,7,7,18,1,,60e223997949aa8e7632763d,62bbfb36fb546d5885e76815,2022-06-29_09h16.32.659,Colour_Asymmetry_Pilot,2022.1.3,Win32,61.48927012,62bbe60bf3d75ef465d3e404,,,,,,,,,,,,,,,,,,,,,,,,,,,,,,,,,,,,,,,,,,,,,,,,,,,,,,,,,,,,,,,,,,,,,,,,,,,,,,,,,,,,,,,,,,,,,,,,,,,,,,,,,,,,,,,,,,,,,,,,,,,,,,,,,,,,,,,,,,,,,,,,,,,,,,,,,,,,,,
0,8,8,42,1,,60e223997949aa8e7632763d,62bbfb36fb546d5885e76815,2022-06-29_09h16.32.659,Colour_Asymmetry_Pilot,2022.1.3,Win32,61.48927012,62bbe60bf3d75ef465d3e404,,,,,,,,,,,,,,,,,,,,,,,,,,,,,,,,,,,,,,,,,,,,,,,,,,,,,,,,,,,,,,,,,,,,,,,,,,,,,,,,,,,,,,,,,,,,,,,,,,,,,,,,,,,,,,,,,,,,,,,,,,,,,,,,,,,,,,,,,,,,,,,,,,,,,,,,,,,,,,
0,9,9,14,1,,60e223997949aa8e7632763d,62bbfb36fb546d5885e76815,2022-06-29_09h16.32.659,Colour_Asymmetry_Pilot,2022.1.3,Win32,61.48927012,62bbe60bf3d75ef465d3e404,,,,,,,,,,,,,,,,,,,,,,,,,,,,,,,,,,,,,,,,,,,,,,,,,,,,,,,,,,,,,,,,,,,,,,,,,,,,,,,,,,,,,,,,,,,,,,,,,,,,,,,,,,,,,,,,,,,,,,,,,,,,,,,,,,,,,,,,,,,,,,,,,,,,,,,,,,,,,,
0,10,10,61,1,,60e223997949aa8e7632763d,62bbfb36fb546d5885e76815,2022-06-29_09h16.32.659,Colour_Asymmetry_Pilot,2022.1.3,Win32,61.48927012,62bbe60bf3d75ef465d3e404,,,,,,,,,,,,,,,,,,,,,,,,,,,,,,,,,,,,,,,,,,,,,,,,,,,,,,,,,,,,,,,,,,,,,,,,,,,,,,,,,,,,,,,,,,,,,,,,,,,,,,,,,,,,,,,,,,,,,,,,,,,,,,,,,,,,,,,,,,,,,,,,,,,,,,,,,,,,,,
0,11,11,57,1,,60e223997949aa8e7632763d,62bbfb36fb546d5885e76815,2022-06-29_09h16.32.659,Colour_Asymmetry_Pilot,2022.1.3,Win32,61.48927012,62bbe60bf3d75ef465d3e404,,,,,,,,,,,,,,,,,,,,,,,,,,,,,,,,,,,,,,,,,,,,,,,,,,,,,,,,,,,,,,,,,,,,,,,,,,,,,,,,,,,,,,,,,,,,,,,,,,,,,,,,,,,,,,,,,,,,,,,,,,,,,,,,,,,,,,,,,,,,,,,,,,,,,,,,,,,,,,
0,12,12,23,1,,60e223997949aa8e7632763d,62bbfb36fb546d5885e76815,2022-06-29_09h16.32.659,Colour_Asymmetry_Pilot,2022.1.3,Win32,61.48927012,62bbe60bf3d75ef465d3e404,,,,,,,,,,,,,,,,,,,,,,,,,,,,,,,,,,,,,,,,,,,,,,,,,,,,,,,,,,,,,,,,,,,,,,,,,,,,,,,,,,,,,,,,,,,,,,,,,,,,,,,,,,,,,,,,,,,,,,,,,,,,,,,,,,,,,,,,,,,,,,,,,,,,,,,,,,,,,,
0,13,13,90,1,,60e223997949aa8e7632763d,62bbfb36fb546d5885e76815,2022-06-29_09h16.32.659,Colour_Asymmetry_Pilot,2022.1.3,Win32,61.48927012,62bbe60bf3d75ef465d3e404,,,,,,,,,,,,,,,,,,,,,,,,,,,,,,,,,,,,,,,,,,,,,,,,,,,,,,,,,,,,,,,,,,,,,,,,,,,,,,,,,,,,,,,,,,,,,,,,,,,,,,,,,,,,,,,,,,,,,,,,,,,,,,,,,,,,,,,,,,,,,,,,,,,,,,,,,,,,,,
0,14,14,13,1,,60e223997949aa8e7632763d,62bbfb36fb546d5885e76815,2022-06-29_09h16.32.659,Colour_Asymmetry_Pilot,2022.1.3,Win32,61.48927012,62bbe60bf3d75ef465d3e404,,,,,,,,,,,,,,,,,,,,,,,,,,,,,,,,,,,,,,,,,,,,,,,,,,,,,,,,,,,,,,,,,,,,,,,,,,,,,,,,,,,,,,,,,,,,,,,,,,,,,,,,,,,,,,,,,,,,,,,,,,,,,,,,,,,,,,,,,,,,,,,,,,,,,,,,,,,,,,
0,15,15,72,1,,60e223997949aa8e7632763d,62bbfb36fb546d5885e76815,2022-06-29_09h16.32.659,Colour_Asymmetry_Pilot,2022.1.3,Win32,61.48927012,62bbe60bf3d75ef465d3e404,,,,,,,,,,,,,,,,,,,,,,,,,,,,,,,,,,,,,,,,,,,,,,,,,,,,,,,,,,,,,,,,,,,,,,,,,,,,,,,,,,,,,,,,,,,,,,,,,,,,,,,,,,,,,,,,,,,,,,,,,,,,,,,,,,,,,,,,,,,,,,,,,,,,,,,,,,,,,,
0,16,16,26,1,,60e223997949aa8e7632763d,62bbfb36fb546d5885e76815,2022-06-29_09h16.32.659,Colour_Asymmetry_Pilot,2022.1.3,Win32,61.48927012,62bbe60bf3d75ef465d3e404,,,,,,,,,,,,,,,,,,,,,,,,,,,,,,,,,,,,,,,,,,,,,,,,,,,,,,,,,,,,,,,,,,,,,,,,,,,,,,,,,,,,,,,,,,,,,,,,,,,,,,,,,,,,,,,,,,,,,,,,,,,,,,,,,,,,,,,,,,,,,,,,,,,,,,,,,,,,,,
0,17,17,60,1,,60e223997949aa8e7632763d,62bbfb36fb546d5885e76815,2022-06-29_09h16.32.659,Colour_Asymmetry_Pilot,2022.1.3,Win32,61.48927012,62bbe60bf3d75ef465d3e404,,,,,,,,,,,,,,,,,,,,,,,,,,,,,,,,,,,,,,,,,,,,,,,,,,,,,,,,,,,,,,,,,,,,,,,,,,,,,,,,,,,,,,,,,,,,,,,,,,,,,,,,,,,,,,,,,,,,,,,,,,,,,,,,,,,,,,,,,,,,,,,,,,,,,,,,,,,,,,
0,18,18,16,1,,60e223997949aa8e7632763d,62bbfb36fb546d5885e76815,2022-06-29_09h16.32.659,Colour_Asymmetry_Pilot,2022.1.3,Win32,61.48927012,62bbe60bf3d75ef465d3e404,,,,,,,,,,,,,,,,,,,,,,,,,,,,,,,,,,,,,,,,,,,,,,,,,,,,,,,,,,,,,,,,,,,,,,,,,,,,,,,,,,,,,,,,,,,,,,,,,,,,,,,,,,,,,,,,,,,,,,,,,,,,,,,,,,,,,,,,,,,,,,,,,,,,,,,,,,,,,,
0,19,19,89,1,,60e223997949aa8e7632763d,62bbfb36fb546d5885e76815,2022-06-29_09h16.32.659,Colour_Asymmetry_Pilot,2022.1.3,Win32,61.48927012,62bbe60bf3d75ef465d3e404,,,,,,,,,,,,,,,,,,,,,,,,,,,,,,,,,,,,,,,,,,,,,,,,,,,,,,,,,,,,,,,,,,,,,,,,,,,,,,,,,,,,,,,,,,,,,,,,,,,,,,,,,,,,,,,,,,,,,,,,,,,,,,,,,,,,,,,,,,,,,,,,,,,,,,,,,,,,,,
0,20,20,37,1,,60e223997949aa8e7632763d,62bbfb36fb546d5885e76815,2022-06-29_09h16.32.659,Colour_Asymmetry_Pilot,2022.1.3,Win32,61.48927012,62bbe60bf3d75ef465d3e404,,,,,,,,,,,,,,,,,,,,,,,,,,,,,,,,,,,,,,,,,,,,,,,,,,,,,,,,,,,,,,,,,,,,,,,,,,,,,,,,,,,,,,,,,,,,,,,,,,,,,,,,,,,,,,,,,,,,,,,,,,,,,,,,,,,,,,,,,,,,,,,,,,,,,,,,,,,,,,
0,21,21,80,1,,60e223997949aa8e7632763d,62bbfb36fb546d5885e76815,2022-06-29_09h16.32.659,Colour_Asymmetry_Pilot,2022.1.3,Win32,61.48927012,62bbe60bf3d75ef465d3e404,,,,,,,,,,,,,,,,,,,,,,,,,,,,,,,,,,,,,,,,,,,,,,,,,,,,,,,,,,,,,,,,,,,,,,,,,,,,,,,,,,,,,,,,,,,,,,,,,,,,,,,,,,,,,,,,,,,,,,,,,,,,,,,,,,,,,,,,,,,,,,,,,,,,,,,,,,,,,,
0,22,22,17,1,,60e223997949aa8e7632763d,62bbfb36fb546d5885e76815,2022-06-29_09h16.32.659,Colour_Asymmetry_Pilot,2022.1.3,Win32,61.48927012,62bbe60bf3d75ef465d3e404,,,,,,,,,,,,,,,,,,,,,,,,,,,,,,,,,,,,,,,,,,,,,,,,,,,,,,,,,,,,,,,,,,,,,,,,,,,,,,,,,,,,,,,,,,,,,,,,,,,,,,,,,,,,,,,,,,,,,,,,,,,,,,,,,,,,,,,,,,,,,,,,,,,,,,,,,,,,,,
0,23,23,85,1,,60e223997949aa8e7632763d,62bbfb36fb546d5885e76815,2022-06-29_09h16.32.659,Colour_Asymmetry_Pilot,2022.1.3,Win32,61.48927012,62bbe60bf3d75ef465d3e404,,,,,,,,,,,,,,,,,,,,,,,,,,,,,,,,,,,,,,,,,,,,,,,,,,,,,,,,,,,,,,,,,,,,,,,,,,,,,,,,,,,,,,,,,,,,,,,,,,,,,,,,,,,,,,,,,,,,,,,,,,,,,,,,,,,,,,,,,,,,,,,,,,,,,,,,,,,,,,
0,24,24,7,1,,60e223997949aa8e7632763d,62bbfb36fb546d5885e76815,2022-06-29_09h16.32.659,Colour_Asymmetry_Pilot,2022.1.3,Win32,61.48927012,62bbe60bf3d75ef465d3e404,,,,,,,,,,,,,,,,,,,,,,,,,,,,,,,,,,,,,,,,,,,,,,,,,,,,,,,,,,,,,,,,,,,,,,,,,,,,,,,,,,,,,,,,,,,,,,,,,,,,,,,,,,,,,,,,,,,,,,,,,,,,,,,,,,,,,,,,,,,,,,,,,,,,,,,,,,,,,,
0,25,25,64,1,,60e223997949aa8e7632763d,62bbfb36fb546d5885e76815,2022-06-29_09h16.32.659,Colour_Asymmetry_Pilot,2022.1.3,Win32,61.48927012,62bbe60bf3d75ef465d3e404,,,,,,,,,,,,,,,,,,,,,,,,,,,,,,,,,,,,,,,,,,,,,,,,,,,,,,,,,,,,,,,,,,,,,,,,,,,,,,,,,,,,,,,,,,,,,,,,,,,,,,,,,,,,,,,,,,,,,,,,,,,,,,,,,,,,,,,,,,,,,,,,,,,,,,,,,,,,,,
0,26,26,15,1,,60e223997949aa8e7632763d,62bbfb36fb546d5885e76815,2022-06-29_09h16.32.659,Colour_Asymmetry_Pilot,2022.1.3,Win32,61.48927012,62bbe60bf3d75ef465d3e404,,,,,,,,,,,,,,,,,,,,,,,,,,,,,,,,,,,,,,,,,,,,,,,,,,,,,,,,,,,,,,,,,,,,,,,,,,,,,,,,,,,,,,,,,,,,,,,,,,,,,,,,,,,,,,,,,,,,,,,,,,,,,,,,,,,,,,,,,,,,,,,,,,,,,,,,,,,,,,
0,27,27,46,1,,60e223997949aa8e7632763d,62bbfb36fb546d5885e76815,2022-06-29_09h16.32.659,Colour_Asymmetry_Pilot,2022.1.3,Win32,61.48927012,62bbe60bf3d75ef465d3e404,,,,,,,,,,,,,,,,,,,,,,,,,,,,,,,,,,,,,,,,,,,,,,,,,,,,,,,,,,,,,,,,,,,,,,,,,,,,,,,,,,,,,,,,,,,,,,,,,,,,,,,,,,,,,,,,,,,,,,,,,,,,,,,,,,,,,,,,,,,,,,,,,,,,,,,,,,,,,,
0,28,28,41,1,,60e223997949aa8e7632763d,62bbfb36fb546d5885e76815,2022-06-29_09h16.32.659,Colour_Asymmetry_Pilot,2022.1.3,Win32,61.48927012,62bbe60bf3d75ef465d3e404,,,,,,,,,,,,,,,,,,,,,,,,,,,,,,,,,,,,,,,,,,,,,,,,,,,,,,,,,,,,,,,,,,,,,,,,,,,,,,,,,,,,,,,,,,,,,,,,,,,,,,,,,,,,,,,,,,,,,,,,,,,,,,,,,,,,,,,,,,,,,,,,,,,,,,,,,,,,,,
0,29,29,70,1,,60e223997949aa8e7632763d,62bbfb36fb546d5885e76815,2022-06-29_09h16.32.659,Colour_Asymmetry_Pilot,2022.1.3,Win32,61.48927012,62bbe60bf3d75ef465d3e404,,,,,,,,,,,,,,,,,,,,,,,,,,,,,,,,,,,,,,,,,,,,,,,,,,,,,,,,,,,,,,,,,,,,,,,,,,,,,,,,,,,,,,,,,,,,,,,,,,,,,,,,,,,,,,,,,,,,,,,,,,,,,,,,,,,,,,,,,,,,,,,,,,,,,,,,,,,,,,
0,30,30,25,1,,60e223997949aa8e7632763d,62bbfb36fb546d5885e76815,2022-06-29_09h16.32.659,Colour_Asymmetry_Pilot,2022.1.3,Win32,61.48927012,62bbe60bf3d75ef465d3e404,,,,,,,,,,,,,,,,,,,,,,,,,,,,,,,,,,,,,,,,,,,,,,,,,,,,,,,,,,,,,,,,,,,,,,,,,,,,,,,,,,,,,,,,,,,,,,,,,,,,,,,,,,,,,,,,,,,,,,,,,,,,,,,,,,,,,,,,,,,,,,,,,,,,,,,,,,,,,,
0,31,31,87,1,,60e223997949aa8e7632763d,62bbfb36fb546d5885e76815,2022-06-29_09h16.32.659,Colour_Asymmetry_Pilot,2022.1.3,Win32,61.48927012,62bbe60bf3d75ef465d3e404,,,,,,,,,,,,,,,,,,,,,,,,,,,,,,,,,,,,,,,,,,,,,,,,,,,,,,,,,,,,,,,,,,,,,,,,,,,,,,,,,,,,,,,,,,,,,,,,,,,,,,,,,,,,,,,,,,,,,,,,,,,,,,,,,,,,,,,,,,,,,,,,,,,,,,,,,,,,,,
0,32,32,52,1,,60e223997949aa8e7632763d,62bbfb36fb546d5885e76815,2022-06-29_09h16.32.659,Colour_Asymmetry_Pilot,2022.1.3,Win32,61.48927012,62bbe60bf3d75ef465d3e404,,,,,,,,,,,,,,,,,,,,,,,,,,,,,,,,,,,,,,,,,,,,,,,,,,,,,,,,,,,,,,,,,,,,,,,,,,,,,,,,,,,,,,,,,,,,,,,,,,,,,,,,,,,,,,,,,,,,,,,,,,,,,,,,,,,,,,,,,,,,,,,,,,,,,,,,,,,,,,
0,33,33,3,1,,60e223997949aa8e7632763d,62bbfb36fb546d5885e76815,2022-06-29_09h16.32.659,Colour_Asymmetry_Pilot,2022.1.3,Win32,61.48927012,62bbe60bf3d75ef465d3e404,,,,,,,,,,,,,,,,,,,,,,,,,,,,,,,,,,,,,,,,,,,,,,,,,,,,,,,,,,,,,,,,,,,,,,,,,,,,,,,,,,,,,,,,,,,,,,,,,,,,,,,,,,,,,,,,,,,,,,,,,,,,,,,,,,,,,,,,,,,,,,,,,,,,,,,,,,,,,,
0,34,34,43,1,,60e223997949aa8e7632763d,62bbfb36fb546d5885e76815,2022-06-29_09h16.32.659,Colour_Asymmetry_Pilot,2022.1.3,Win32,61.48927012,62bbe60bf3d75ef465d3e404,,,,,,,,,,,,,,,,,,,,,,,,,,,,,,,,,,,,,,,,,,,,,,,,,,,,,,,,,,,,,,,,,,,,,,,,,,,,,,,,,,,,,,,,,,,,,,,,,,,,,,,,,,,,,,,,,,,,,,,,,,,,,,,,,,,,,,,,,,,,,,,,,,,,,,,,,,,,,,
0,35,35,35,1,,60e223997949aa8e7632763d,62bbfb36fb546d5885e76815,2022-06-29_09h16.32.659,Colour_Asymmetry_Pilot,2022.1.3,Win32,61.48927012,62bbe60bf3d75ef465d3e404,,,,,,,,,,,,,,,,,,,,,,,,,,,,,,,,,,,,,,,,,,,,,,,,,,,,,,,,,,,,,,,,,,,,,,,,,,,,,,,,,,,,,,,,,,,,,,,,,,,,,,,,,,,,,,,,,,,,,,,,,,,,,,,,,,,,,,,,,,,,,,,,,,,,,,,,,,,,,,
0,36,36,19,1,,60e223997949aa8e7632763d,62bbfb36fb546d5885e76815,2022-06-29_09h16.32.659,Colour_Asymmetry_Pilot,2022.1.3,Win32,61.48927012,62bbe60bf3d75ef465d3e404,,,,,,,,,,,,,,,,,,,,,,,,,,,,,,,,,,,,,,,,,,,,,,,,,,,,,,,,,,,,,,,,,,,,,,,,,,,,,,,,,,,,,,,,,,,,,,,,,,,,,,,,,,,,,,,,,,,,,,,,,,,,,,,,,,,,,,,,,,,,,,,,,,,,,,,,,,,,,,
0,37,37,12,1,,60e223997949aa8e7632763d,62bbfb36fb546d5885e76815,2022-06-29_09h16.32.659,Colour_Asymmetry_Pilot,2022.1.3,Win32,61.48927012,62bbe60bf3d75ef465d3e404,,,,,,,,,,,,,,,,,,,,,,,,,,,,,,,,,,,,,,,,,,,,,,,,,,,,,,,,,,,,,,,,,,,,,,,,,,,,,,,,,,,,,,,,,,,,,,,,,,,,,,,,,,,,,,,,,,,,,,,,,,,,,,,,,,,,,,,,,,,,,,,,,,,,,,,,,,,,,,
0,38,38,8,1,,60e223997949aa8e7632763d,62bbfb36fb546d5885e76815,2022-06-29_09h16.32.659,Colour_Asymmetry_Pilot,2022.1.3,Win32,61.48927012,62bbe60bf3d75ef465d3e404,,,,,,,,,,,,,,,,,,,,,,,,,,,,,,,,,,,,,,,,,,,,,,,,,,,,,,,,,,,,,,,,,,,,,,,,,,,,,,,,,,,,,,,,,,,,,,,,,,,,,,,,,,,,,,,,,,,,,,,,,,,,,,,,,,,,,,,,,,,,,,,,,,,,,,,,,,,,,,
0,39,39,0,1,,60e223997949aa8e7632763d,62bbfb36fb546d5885e76815,2022-06-29_09h16.32.659,Colour_Asymmetry_Pilot,2022.1.3,Win32,61.48927012,62bbe60bf3d75ef465d3e404,,,,,,,,,,,,,,,,,,,,,,,,,,,,,,,,,,,,,,,,,,,,,,,,,,,,,,,,,,,,,,,,,,,,,,,,,,,,,,,,,,,,,,,,,,,,,,,,,,,,,,,,,,,,,,,,,,,,,,,,,,,,,,,,,,,,,,,,,,,,,,,,,,,,,,,,,,,,,,
0,40,40,50,1,,60e223997949aa8e7632763d,62bbfb36fb546d5885e76815,2022-06-29_09h16.32.659,Colour_Asymmetry_Pilot,2022.1.3,Win32,61.48927012,62bbe60bf3d75ef465d3e404,,,,,,,,,,,,,,,,,,,,,,,,,,,,,,,,,,,,,,,,,,,,,,,,,,,,,,,,,,,,,,,,,,,,,,,,,,,,,,,,,,,,,,,,,,,,,,,,,,,,,,,,,,,,,,,,,,,,,,,,,,,,,,,,,,,,,,,,,,,,,,,,,,,,,,,,,,,,,,
0,41,41,6,1,,60e223997949aa8e7632763d,62bbfb36fb546d5885e76815,2022-06-29_09h16.32.659,Colour_Asymmetry_Pilot,2022.1.3,Win32,61.48927012,62bbe60bf3d75ef465d3e404,,,,,,,,,,,,,,,,,,,,,,,,,,,,,,,,,,,,,,,,,,,,,,,,,,,,,,,,,,,,,,,,,,,,,,,,,,,,,,,,,,,,,,,,,,,,,,,,,,,,,,,,,,,,,,,,,,,,,,,,,,,,,,,,,,,,,,,,,,,,,,,,,,,,,,,,,,,,,,
0,42,42,24,1,,60e223997949aa8e7632763d,62bbfb36fb546d5885e76815,2022-06-29_09h16.32.659,Colour_Asymmetry_Pilot,2022.1.3,Win32,61.48927012,62bbe60bf3d75ef465d3e404,,,,,,,,,,,,,,,,,,,,,,,,,,,,,,,,,,,,,,,,,,,,,,,,,,,,,,,,,,,,,,,,,,,,,,,,,,,,,,,,,,,,,,,,,,,,,,,,,,,,,,,,,,,,,,,,,,,,,,,,,,,,,,,,,,,,,,,,,,,,,,,,,,,,,,,,,,,,,,
0,43,43,32,1,,60e223997949aa8e7632763d,62bbfb36fb546d5885e76815,2022-06-29_09h16.32.659,Colour_Asymmetry_Pilot,2022.1.3,Win32,61.48927012,62bbe60bf3d75ef465d3e404,,,,,,,,,,,,,,,,,,,,,,,,,,,,,,,,,,,,,,,,,,,,,,,,,,,,,,,,,,,,,,,,,,,,,,,,,,,,,,,,,,,,,,,,,,,,,,,,,,,,,,,,,,,,,,,,,,,,,,,,,,,,,,,,,,,,,,,,,,,,,,,,,,,,,,,,,,,,,,
0,44,44,21,1,,60e223997949aa8e7632763d,62bbfb36fb546d5885e76815,2022-06-29_09h16.32.659,Colour_Asymmetry_Pilot,2022.1.3,Win32,61.48927012,62bbe60bf3d75ef465d3e404,,,,,,,,,,,,,,,,,,,,,,,,,,,,,,,,,,,,,,,,,,,,,,,,,,,,,,,,,,,,,,,,,,,,,,,,,,,,,,,,,,,,,,,,,,,,,,,,,,,,,,,,,,,,,,,,,,,,,,,,,,,,,,,,,,,,,,,,,,,,,,,,,,,,,,,,,,,,,,
0,45,45,29,1,,60e223997949aa8e7632763d,62bbfb36fb546d5885e76815,2022-06-29_09h16.32.659,Colour_Asymmetry_Pilot,2022.1.3,Win32,61.48927012,62bbe60bf3d75ef465d3e404,,,,,,,,,,,,,,,,,,,,,,,,,,,,,,,,,,,,,,,,,,,,,,,,,,,,,,,,,,,,,,,,,,,,,,,,,,,,,,,,,,,,,,,,,,,,,,,,,,,,,,,,,,,,,,,,,,,,,,,,,,,,,,,,,,,,,,,,,,,,,,,,,,,,,,,,,,,,,,
0,46,46,76,1,,60e223997949aa8e7632763d,62bbfb36fb546d5885e76815,2022-06-29_09h16.32.659,Colour_Asymmetry_Pilot,2022.1.3,Win32,61.48927012,62bbe60bf3d75ef465d3e404,,,,,,,,,,,,,,,,,,,,,,,,,,,,,,,,,,,,,,,,,,,,,,,,,,,,,,,,,,,,,,,,,,,,,,,,,,,,,,,,,,,,,,,,,,,,,,,,,,,,,,,,,,,,,,,,,,,,,,,,,,,,,,,,,,,,,,,,,,,,,,,,,,,,,,,,,,,,,,
0,47,47,10,1,,60e223997949aa8e7632763d,62bbfb36fb546d5885e76815,2022-06-29_09h16.32.659,Colour_Asymmetry_Pilot,2022.1.3,Win32,61.48927012,62bbe60bf3d75ef465d3e404,,,,,,,,,,,,,,,,,,,,,,,,,,,,,,,,,,,,,,,,,,,,,,,,,,,,,,,,,,,,,,,,,,,,,,,,,,,,,,,,,,,,,,,,,,,,,,,,,,,,,,,,,,,,,,,,,,,,,,,,,,,,,,,,,,,,,,,,,,,,,,,,,,,,,,,,,,,,,,
0,48,48,5,1,,60e223997949aa8e7632763d,62bbfb36fb546d5885e76815,2022-06-29_09h16.32.659,Colour_Asymmetry_Pilot,2022.1.3,Win32,61.48927012,62bbe60bf3d75ef465d3e404,,,,,,,,,,,,,,,,,,,,,,,,,,,,,,,,,,,,,,,,,,,,,,,,,,,,,,,,,,,,,,,,,,,,,,,,,,,,,,,,,,,,,,,,,,,,,,,,,,,,,,,,,,,,,,,,,,,,,,,,,,,,,,,,,,,,,,,,,,,,,,,,,,,,,,,,,,,,,,
0,49,49,11,1,,60e223997949aa8e7632763d,62bbfb36fb546d5885e76815,2022-06-29_09h16.32.659,Colour_Asymmetry_Pilot,2022.1.3,Win32,61.48927012,62bbe60bf3d75ef465d3e404,,,,,,,,,,,,,,,,,,,,,,,,,,,,,,,,,,,,,,,,,,,,,,,,,,,,,,,,,,,,,,,,,,,,,,,,,,,,,,,,,,,,,,,,,,,,,,,,,,,,,,,,,,,,,,,,,,,,,,,,,,,,,,,,,,,,,,,,,,,,,,,,,,,,,,,,,,,,,,
0,50,50,65,1,,60e223997949aa8e7632763d,62bbfb36fb546d5885e76815,2022-06-29_09h16.32.659,Colour_Asymmetry_Pilot,2022.1.3,Win32,61.48927012,62bbe60bf3d75ef465d3e404,,,,,,,,,,,,,,,,,,,,,,,,,,,,,,,,,,,,,,,,,,,,,,,,,,,,,,,,,,,,,,,,,,,,,,,,,,,,,,,,,,,,,,,,,,,,,,,,,,,,,,,,,,,,,,,,,,,,,,,,,,,,,,,,,,,,,,,,,,,,,,,,,,,,,,,,,,,,,,
0,51,51,74,1,,60e223997949aa8e7632763d,62bbfb36fb546d5885e76815,2022-06-29_09h16.32.659,Colour_Asymmetry_Pilot,2022.1.3,Win32,61.48927012,62bbe60bf3d75ef465d3e404,,,,,,,,,,,,,,,,,,,,,,,,,,,,,,,,,,,,,,,,,,,,,,,,,,,,,,,,,,,,,,,,,,,,,,,,,,,,,,,,,,,,,,,,,,,,,,,,,,,,,,,,,,,,,,,,,,,,,,,,,,,,,,,,,,,,,,,,,,,,,,,,,,,,,,,,,,,,,,
0,52,52,58,1,,60e223997949aa8e7632763d,62bbfb36fb546d5885e76815,2022-06-29_09h16.32.659,Colour_Asymmetry_Pilot,2022.1.3,Win32,61.48927012,62bbe60bf3d75ef465d3e404,,,,,,,,,,,,,,,,,,,,,,,,,,,,,,,,,,,,,,,,,,,,,,,,,,,,,,,,,,,,,,,,,,,,,,,,,,,,,,,,,,,,,,,,,,,,,,,,,,,,,,,,,,,,,,,,,,,,,,,,,,,,,,,,,,,,,,,,,,,,,,,,,,,,,,,,,,,,,,
0,53,53,28,1,,60e223997949aa8e7632763d,62bbfb36fb546d5885e76815,2022-06-29_09h16.32.659,Colour_Asymmetry_Pilot,2022.1.3,Win32,61.48927012,62bbe60bf3d75ef465d3e404,,,,,,,,,,,,,,,,,,,,,,,,,,,,,,,,,,,,,,,,,,,,,,,,,,,,,,,,,,,,,,,,,,,,,,,,,,,,,,,,,,,,,,,,,,,,,,,,,,,,,,,,,,,,,,,,,,,,,,,,,,,,,,,,,,,,,,,,,,,,,,,,,,,,,,,,,,,,,,
0,54,54,47,1,,60e223997949aa8e7632763d,62bbfb36fb546d5885e76815,2022-06-29_09h16.32.659,Colour_Asymmetry_Pilot,2022.1.3,Win32,61.48927012,62bbe60bf3d75ef465d3e404,,,,,,,,,,,,,,,,,,,,,,,,,,,,,,,,,,,,,,,,,,,,,,,,,,,,,,,,,,,,,,,,,,,,,,,,,,,,,,,,,,,,,,,,,,,,,,,,,,,,,,,,,,,,,,,,,,,,,,,,,,,,,,,,,,,,,,,,,,,,,,,,,,,,,,,,,,,,,,
0,55,55,59,1,,60e223997949aa8e7632763d,62bbfb36fb546d5885e76815,2022-06-29_09h16.32.659,Colour_Asymmetry_Pilot,2022.1.3,Win32,61.48927012,62bbe60bf3d75ef465d3e404,,,,,,,,,,,,,,,,,,,,,,,,,,,,,,,,,,,,,,,,,,,,,,,,,,,,,,,,,,,,,,,,,,,,,,,,,,,,,,,,,,,,,,,,,,,,,,,,,,,,,,,,,,,,,,,,,,,,,,,,,,,,,,,,,,,,,,,,,,,,,,,,,,,,,,,,,,,,,,
0,56,56,2,1,,60e223997949aa8e7632763d,62bbfb36fb546d5885e76815,2022-06-29_09h16.32.659,Colour_Asymmetry_Pilot,2022.1.3,Win32,61.48927012,62bbe60bf3d75ef465d3e404,,,,,,,,,,,,,,,,,,,,,,,,,,,,,,,,,,,,,,,,,,,,,,,,,,,,,,,,,,,,,,,,,,,,,,,,,,,,,,,,,,,,,,,,,,,,,,,,,,,,,,,,,,,,,,,,,,,,,,,,,,,,,,,,,,,,,,,,,,,,,,,,,,,,,,,,,,,,,,
0,57,57,83,1,,60e223997949aa8e7632763d,62bbfb36fb546d5885e76815,2022-06-29_09h16.32.659,Colour_Asymmetry_Pilot,2022.1.3,Win32,61.48927012,62bbe60bf3d75ef465d3e404,,,,,,,,,,,,,,,,,,,,,,,,,,,,,,,,,,,,,,,,,,,,,,,,,,,,,,,,,,,,,,,,,,,,,,,,,,,,,,,,,,,,,,,,,,,,,,,,,,,,,,,,,,,,,,,,,,,,,,,,,,,,,,,,,,,,,,,,,,,,,,,,,,,,,,,,,,,,,,
0,58,58,31,1,,60e223997949aa8e7632763d,62bbfb36fb546d5885e76815,2022-06-29_09h16.32.659,Colour_Asymmetry_Pilot,2022.1.3,Win32,61.48927012,62bbe60bf3d75ef465d3e404,,,,,,,,,,,,,,,,,,,,,,,,,,,,,,,,,,,,,,,,,,,,,,,,,,,,,,,,,,,,,,,,,,,,,,,,,,,,,,,,,,,,,,,,,,,,,,,,,,,,,,,,,,,,,,,,,,,,,,,,,,,,,,,,,,,,,,,,,,,,,,,,,,,,,,,,,,,,,,
0,59,59,77,1,,60e223997949aa8e7632763d,62bbfb36fb546d5885e76815,2022-06-29_09h16.32.659,Colour_Asymmetry_Pilot,2022.1.3,Win32,61.48927012,62bbe60bf3d75ef465d3e404,,,,,,,,,,,,,,,,,,,,,,,,,,,,,,,,,,,,,,,,,,,,,,,,,,,,,,,,,,,,,,,,,,,,,,,,,,,,,,,,,,,,,,,,,,,,,,,,,,,,,,,,,,,,,,,,,,,,,,,,,,,,,,,,,,,,,,,,,,,,,,,,,,,,,,,,,,,,,,
0,60,60,54,1,,60e223997949aa8e7632763d,62bbfb36fb546d5885e76815,2022-06-29_09h16.32.659,Colour_Asymmetry_Pilot,2022.1.3,Win32,61.48927012,62bbe60bf3d75ef465d3e404,,,,,,,,,,,,,,,,,,,,,,,,,,,,,,,,,,,,,,,,,,,,,,,,,,,,,,,,,,,,,,,,,,,,,,,,,,,,,,,,,,,,,,,,,,,,,,,,,,,,,,,,,,,,,,,,,,,,,,,,,,,,,,,,,,,,,,,,,,,,,,,,,,,,,,,,,,,,,,
0,61,61,68,1,,60e223997949aa8e7632763d,62bbfb36fb546d5885e76815,2022-06-29_09h16.32.659,Colour_Asymmetry_Pilot,2022.1.3,Win32,61.48927012,62bbe60bf3d75ef465d3e404,,,,,,,,,,,,,,,,,,,,,,,,,,,,,,,,,,,,,,,,,,,,,,,,,,,,,,,,,,,,,,,,,,,,,,,,,,,,,,,,,,,,,,,,,,,,,,,,,,,,,,,,,,,,,,,,,,,,,,,,,,,,,,,,,,,,,,,,,,,,,,,,,,,,,,,,,,,,,,
0,62,62,33,1,,60e223997949aa8e7632763d,62bbfb36fb546d5885e76815,2022-06-29_09h16.32.659,Colour_Asymmetry_Pilot,2022.1.3,Win32,61.48927012,62bbe60bf3d75ef465d3e404,,,,,,,,,,,,,,,,,,,,,,,,,,,,,,,,,,,,,,,,,,,,,,,,,,,,,,,,,,,,,,,,,,,,,,,,,,,,,,,,,,,,,,,,,,,,,,,,,,,,,,,,,,,,,,,,,,,,,,,,,,,,,,,,,,,,,,,,,,,,,,,,,,,,,,,,,,,,,,
0,63,63,49,1,,60e223997949aa8e7632763d,62bbfb36fb546d5885e76815,2022-06-29_09h16.32.659,Colour_Asymmetry_Pilot,2022.1.3,Win32,61.48927012,62bbe60bf3d75ef465d3e404,,,,,,,,,,,,,,,,,,,,,,,,,,,,,,,,,,,,,,,,,,,,,,,,,,,,,,,,,,,,,,,,,,,,,,,,,,,,,,,,,,,,,,,,,,,,,,,,,,,,,,,,,,,,,,,,,,,,,,,,,,,,,,,,,,,,,,,,,,,,,,,,,,,,,,,,,,,,,,
0,64,64,22,1,,60e223997949aa8e7632763d,62bbfb36fb546d5885e76815,2022-06-29_09h16.32.659,Colour_Asymmetry_Pilot,2022.1.3,Win32,61.48927012,62bbe60bf3d75ef465d3e404,,,,,,,,,,,,,,,,,,,,,,,,,,,,,,,,,,,,,,,,,,,,,,,,,,,,,,,,,,,,,,,,,,,,,,,,,,,,,,,,,,,,,,,,,,,,,,,,,,,,,,,,,,,,,,,,,,,,,,,,,,,,,,,,,,,,,,,,,,,,,,,,,,,,,,,,,,,,,,
0,65,65,62,1,,60e223997949aa8e7632763d,62bbfb36fb546d5885e76815,2022-06-29_09h16.32.659,Colour_Asymmetry_Pilot,2022.1.3,Win32,61.48927012,62bbe60bf3d75ef465d3e404,,,,,,,,,,,,,,,,,,,,,,,,,,,,,,,,,,,,,,,,,,,,,,,,,,,,,,,,,,,,,,,,,,,,,,,,,,,,,,,,,,,,,,,,,,,,,,,,,,,,,,,,,,,,,,,,,,,,,,,,,,,,,,,,,,,,,,,,,,,,,,,,,,,,,,,,,,,,,,
0,66,66,91,1,,60e223997949aa8e7632763d,62bbfb36fb546d5885e76815,2022-06-29_09h16.32.659,Colour_Asymmetry_Pilot,2022.1.3,Win32,61.48927012,62bbe60bf3d75ef465d3e404,,,,,,,,,,,,,,,,,,,,,,,,,,,,,,,,,,,,,,,,,,,,,,,,,,,,,,,,,,,,,,,,,,,,,,,,,,,,,,,,,,,,,,,,,,,,,,,,,,,,,,,,,,,,,,,,,,,,,,,,,,,,,,,,,,,,,,,,,,,,,,,,,,,,,,,,,,,,,,
0,67,67,66,1,,60e223997949aa8e7632763d,62bbfb36fb546d5885e76815,2022-06-29_09h16.32.659,Colour_Asymmetry_Pilot,2022.1.3,Win32,61.48927012,62bbe60bf3d75ef465d3e404,,,,,,,,,,,,,,,,,,,,,,,,,,,,,,,,,,,,,,,,,,,,,,,,,,,,,,,,,,,,,,,,,,,,,,,,,,,,,,,,,,,,,,,,,,,,,,,,,,,,,,,,,,,,,,,,,,,,,,,,,,,,,,,,,,,,,,,,,,,,,,,,,,,,,,,,,,,,,,
0,68,68,56,1,,60e223997949aa8e7632763d,62bbfb36fb546d5885e76815,2022-06-29_09h16.32.659,Colour_Asymmetry_Pilot,2022.1.3,Win32,61.48927012,62bbe60bf3d75ef465d3e404,,,,,,,,,,,,,,,,,,,,,,,,,,,,,,,,,,,,,,,,,,,,,,,,,,,,,,,,,,,,,,,,,,,,,,,,,,,,,,,,,,,,,,,,,,,,,,,,,,,,,,,,,,,,,,,,,,,,,,,,,,,,,,,,,,,,,,,,,,,,,,,,,,,,,,,,,,,,,,
0,69,69,81,1,,60e223997949aa8e7632763d,62bbfb36fb546d5885e76815,2022-06-29_09h16.32.659,Colour_Asymmetry_Pilot,2022.1.3,Win32,61.48927012,62bbe60bf3d75ef465d3e404,,,,,,,,,,,,,,,,,,,,,,,,,,,,,,,,,,,,,,,,,,,,,,,,,,,,,,,,,,,,,,,,,,,,,,,,,,,,,,,,,,,,,,,,,,,,,,,,,,,,,,,,,,,,,,,,,,,,,,,,,,,,,,,,,,,,,,,,,,,,,,,,,,,,,,,,,,,,,,
0,70,70,9,1,,60e223997949aa8e7632763d,62bbfb36fb546d5885e76815,2022-06-29_09h16.32.659,Colour_Asymmetry_Pilot,2022.1.3,Win32,61.48927012,62bbe60bf3d75ef465d3e404,,,,,,,,,,,,,,,,,,,,,,,,,,,,,,,,,,,,,,,,,,,,,,,,,,,,,,,,,,,,,,,,,,,,,,,,,,,,,,,,,,,,,,,,,,,,,,,,,,,,,,,,,,,,,,,,,,,,,,,,,,,,,,,,,,,,,,,,,,,,,,,,,,,,,,,,,,,,,,
0,71,71,73,1,,60e223997949aa8e7632763d,62bbfb36fb546d5885e76815,2022-06-29_09h16.32.659,Colour_Asymmetry_Pilot,2022.1.3,Win32,61.48927012,62bbe60bf3d75ef465d3e404,,,,,,,,,,,,,,,,,,,,,,,,,,,,,,,,,,,,,,,,,,,,,,,,,,,,,,,,,,,,,,,,,,,,,,,,,,,,,,,,,,,,,,,,,,,,,,,,,,,,,,,,,,,,,,,,,,,,,,,,,,,,,,,,,,,,,,,,,,,,,,,,,,,,,,,,,,,,,,
0,72,72,44,1,,60e223997949aa8e7632763d,62bbfb36fb546d5885e76815,2022-06-29_09h16.32.659,Colour_Asymmetry_Pilot,2022.1.3,Win32,61.48927012,62bbe60bf3d75ef465d3e404,,,,,,,,,,,,,,,,,,,,,,,,,,,,,,,,,,,,,,,,,,,,,,,,,,,,,,,,,,,,,,,,,,,,,,,,,,,,,,,,,,,,,,,,,,,,,,,,,,,,,,,,,,,,,,,,,,,,,,,,,,,,,,,,,,,,,,,,,,,,,,,,,,,,,,,,,,,,,,
0,73,73,86,1,,60e223997949aa8e7632763d,62bbfb36fb546d5885e76815,2022-06-29_09h16.32.659,Colour_Asymmetry_Pilot,2022.1.3,Win32,61.48927012,62bbe60bf3d75ef465d3e404,,,,,,,,,,,,,,,,,,,,,,,,,,,,,,,,,,,,,,,,,,,,,,,,,,,,,,,,,,,,,,,,,,,,,,,,,,,,,,,,,,,,,,,,,,,,,,,,,,,,,,,,,,,,,,,,,,,,,,,,,,,,,,,,,,,,,,,,,,,,,,,,,,,,,,,,,,,,,,
0,74,74,30,1,,60e223997949aa8e7632763d,62bbfb36fb546d5885e76815,2022-06-29_09h16.32.659,Colour_Asymmetry_Pilot,2022.1.3,Win32,61.48927012,62bbe60bf3d75ef465d3e404,,,,,,,,,,,,,,,,,,,,,,,,,,,,,,,,,,,,,,,,,,,,,,,,,,,,,,,,,,,,,,,,,,,,,,,,,,,,,,,,,,,,,,,,,,,,,,,,,,,,,,,,,,,,,,,,,,,,,,,,,,,,,,,,,,,,,,,,,,,,,,,,,,,,,,,,,,,,,,
0,75,75,27,1,,60e223997949aa8e7632763d,62bbfb36fb546d5885e76815,2022-06-29_09h16.32.659,Colour_Asymmetry_Pilot,2022.1.3,Win32,61.48927012,62bbe60bf3d75ef465d3e404,,,,,,,,,,,,,,,,,,,,,,,,,,,,,,,,,,,,,,,,,,,,,,,,,,,,,,,,,,,,,,,,,,,,,,,,,,,,,,,,,,,,,,,,,,,,,,,,,,,,,,,,,,,,,,,,,,,,,,,,,,,,,,,,,,,,,,,,,,,,,,,,,,,,,,,,,,,,,,
0,76,76,39,1,,60e223997949aa8e7632763d,62bbfb36fb546d5885e76815,2022-06-29_09h16.32.659,Colour_Asymmetry_Pilot,2022.1.3,Win32,61.48927012,62bbe60bf3d75ef465d3e404,,,,,,,,,,,,,,,,,,,,,,,,,,,,,,,,,,,,,,,,,,,,,,,,,,,,,,,,,,,,,,,,,,,,,,,,,,,,,,,,,,,,,,,,,,,,,,,,,,,,,,,,,,,,,,,,,,,,,,,,,,,,,,,,,,,,,,,,,,,,,,,,,,,,,,,,,,,,,,
0,77,77,67,1,,60e223997949aa8e7632763d,62bbfb36fb546d5885e76815,2022-06-29_09h16.32.659,Colour_Asymmetry_Pilot,2022.1.3,Win32,61.48927012,62bbe60bf3d75ef465d3e404,,,,,,,,,,,,,,,,,,,,,,,,,,,,,,,,,,,,,,,,,,,,,,,,,,,,,,,,,,,,,,,,,,,,,,,,,,,,,,,,,,,,,,,,,,,,,,,,,,,,,,,,,,,,,,,,,,,,,,,,,,,,,,,,,,,,,,,,,,,,,,,,,,,,,,,,,,,,,,
0,78,78,4,1,,60e223997949aa8e7632763d,62bbfb36fb546d5885e76815,2022-06-29_09h16.32.659,Colour_Asymmetry_Pilot,2022.1.3,Win32,61.48927012,62bbe60bf3d75ef465d3e404,,,,,,,,,,,,,,,,,,,,,,,,,,,,,,,,,,,,,,,,,,,,,,,,,,,,,,,,,,,,,,,,,,,,,,,,,,,,,,,,,,,,,,,,,,,,,,,,,,,,,,,,,,,,,,,,,,,,,,,,,,,,,,,,,,,,,,,,,,,,,,,,,,,,,,,,,,,,,,
0,79,79,78,1,,60e223997949aa8e7632763d,62bbfb36fb546d5885e76815,2022-06-29_09h16.32.659,Colour_Asymmetry_Pilot,2022.1.3,Win32,61.48927012,62bbe60bf3d75ef465d3e404,,,,,,,,,,,,,,,,,,,,,,,,,,,,,,,,,,,,,,,,,,,,,,,,,,,,,,,,,,,,,,,,,,,,,,,,,,,,,,,,,,,,,,,,,,,,,,,,,,,,,,,,,,,,,,,,,,,,,,,,,,,,,,,,,,,,,,,,,,,,,,,,,,,,,,,,,,,,,,
0,80,80,48,1,,60e223997949aa8e7632763d,62bbfb36fb546d5885e76815,2022-06-29_09h16.32.659,Colour_Asymmetry_Pilot,2022.1.3,Win32,61.48927012,62bbe60bf3d75ef465d3e404,,,,,,,,,,,,,,,,,,,,,,,,,,,,,,,,,,,,,,,,,,,,,,,,,,,,,,,,,,,,,,,,,,,,,,,,,,,,,,,,,,,,,,,,,,,,,,,,,,,,,,,,,,,,,,,,,,,,,,,,,,,,,,,,,,,,,,,,,,,,,,,,,,,,,,,,,,,,,,
0,81,81,1,1,,60e223997949aa8e7632763d,62bbfb36fb546d5885e76815,2022-06-29_09h16.32.659,Colour_Asymmetry_Pilot,2022.1.3,Win32,61.48927012,62bbe60bf3d75ef465d3e404,,,,,,,,,,,,,,,,,,,,,,,,,,,,,,,,,,,,,,,,,,,,,,,,,,,,,,,,,,,,,,,,,,,,,,,,,,,,,,,,,,,,,,,,,,,,,,,,,,,,,,,,,,,,,,,,,,,,,,,,,,,,,,,,,,,,,,,,,,,,,,,,,,,,,,,,,,,,,,
0,82,82,53,1,,60e223997949aa8e7632763d,62bbfb36fb546d5885e76815,2022-06-29_09h16.32.659,Colour_Asymmetry_Pilot,2022.1.3,Win32,61.48927012,62bbe60bf3d75ef465d3e404,,,,,,,,,,,,,,,,,,,,,,,,,,,,,,,,,,,,,,,,,,,,,,,,,,,,,,,,,,,,,,,,,,,,,,,,,,,,,,,,,,,,,,,,,,,,,,,,,,,,,,,,,,,,,,,,,,,,,,,,,,,,,,,,,,,,,,,,,,,,,,,,,,,,,,,,,,,,,,
0,83,83,92,1,,60e223997949aa8e7632763d,62bbfb36fb546d5885e76815,2022-06-29_09h16.32.659,Colour_Asymmetry_Pilot,2022.1.3,Win32,61.48927012,62bbe60bf3d75ef465d3e404,,,,,,,,,,,,,,,,,,,,,,,,,,,,,,,,,,,,,,,,,,,,,,,,,,,,,,,,,,,,,,,,,,,,,,,,,,,,,,,,,,,,,,,,,,,,,,,,,,,,,,,,,,,,,,,,,,,,,,,,,,,,,,,,,,,,,,,,,,,,,,,,,,,,,,,,,,,,,,
0,84,84,84,1,,60e223997949aa8e7632763d,62bbfb36fb546d5885e76815,2022-06-29_09h16.32.659,Colour_Asymmetry_Pilot,2022.1.3,Win32,61.48927012,62bbe60bf3d75ef465d3e404,,,,,,,,,,,,,,,,,,,,,,,,,,,,,,,,,,,,,,,,,,,,,,,,,,,,,,,,,,,,,,,,,,,,,,,,,,,,,,,,,,,,,,,,,,,,,,,,,,,,,,,,,,,,,,,,,,,,,,,,,,,,,,,,,,,,,,,,,,,,,,,,,,,,,,,,,,,,,,
0,85,85,20,1,,60e223997949aa8e7632763d,62bbfb36fb546d5885e76815,2022-06-29_09h16.32.659,Colour_Asymmetry_Pilot,2022.1.3,Win32,61.48927012,62bbe60bf3d75ef465d3e404,,,,,,,,,,,,,,,,,,,,,,,,,,,,,,,,,,,,,,,,,,,,,,,,,,,,,,,,,,,,,,,,,,,,,,,,,,,,,,,,,,,,,,,,,,,,,,,,,,,,,,,,,,,,,,,,,,,,,,,,,,,,,,,,,,,,,,,,,,,,,,,,,,,,,,,,,,,,,,
0,86,86,79,1,,60e223997949aa8e7632763d,62bbfb36fb546d5885e76815,2022-06-29_09h16.32.659,Colour_Asymmetry_Pilot,2022.1.3,Win32,61.48927012,62bbe60bf3d75ef465d3e404,,,,,,,,,,,,,,,,,,,,,,,,,,,,,,,,,,,,,,,,,,,,,,,,,,,,,,,,,,,,,,,,,,,,,,,,,,,,,,,,,,,,,,,,,,,,,,,,,,,,,,,,,,,,,,,,,,,,,,,,,,,,,,,,,,,,,,,,,,,,,,,,,,,,,,,,,,,,,,
0,87,87,82,1,,60e223997949aa8e7632763d,62bbfb36fb546d5885e76815,2022-06-29_09h16.32.659,Colour_Asymmetry_Pilot,2022.1.3,Win32,61.48927012,62bbe60bf3d75ef465d3e404,,,,,,,,,,,,,,,,,,,,,,,,,,,,,,,,,,,,,,,,,,,,,,,,,,,,,,,,,,,,,,,,,,,,,,,,,,,,,,,,,,,,,,,,,,,,,,,,,,,,,,,,,,,,,,,,,,,,,,,,,,,,,,,,,,,,,,,,,,,,,,,,,,,,,,,,,,,,,,
0,88,88,40,1,,60e223997949aa8e7632763d,62bbfb36fb546d5885e76815,2022-06-29_09h16.32.659,Colour_Asymmetry_Pilot,2022.1.3,Win32,61.48927012,62bbe60bf3d75ef465d3e404,,,,,,,,,,,,,,,,,,,,,,,,,,,,,,,,,,,,,,,,,,,,,,,,,,,,,,,,,,,,,,,,,,,,,,,,,,,,,,,,,,,,,,,,,,,,,,,,,,,,,,,,,,,,,,,,,,,,,,,,,,,,,,,,,,,,,,,,,,,,,,,,,,,,,,,,,,,,,,
0,89,89,63,1,,60e223997949aa8e7632763d,62bbfb36fb546d5885e76815,2022-06-29_09h16.32.659,Colour_Asymmetry_Pilot,2022.1.3,Win32,61.48927012,62bbe60bf3d75ef465d3e404,,,,,,,,,,,,,,,,,,,,,,,,,,,,,,,,,,,,,,,,,,,,,,,,,,,,,,,,,,,,,,,,,,,,,,,,,,,,,,,,,,,,,,,,,,,,,,,,,,,,,,,,,,,,,,,,,,,,,,,,,,,,,,,,,,,,,,,,,,,,,,,,,,,,,,,,,,,,,,
0,90,90,71,1,,60e223997949aa8e7632763d,62bbfb36fb546d5885e76815,2022-06-29_09h16.32.659,Colour_Asymmetry_Pilot,2022.1.3,Win32,61.48927012,62bbe60bf3d75ef465d3e404,,,,,,,,,,,,,,,,,,,,,,,,,,,,,,,,,,,,,,,,,,,,,,,,,,,,,,,,,,,,,,,,,,,,,,,,,,,,,,,,,,,,,,,,,,,,,,,,,,,,,,,,,,,,,,,,,,,,,,,,,,,,,,,,,,,,,,,,,,,,,,,,,,,,,,,,,,,,,,
0,91,91,34,1,,60e223997949aa8e7632763d,62bbfb36fb546d5885e76815,2022-06-29_09h16.32.659,Colour_Asymmetry_Pilot,2022.1.3,Win32,61.48927012,62bbe60bf3d75ef465d3e404,,,,,,,,,,,,,,,,,,,,,,,,,,,,,,,,,,,,,,,,,,,,,,,,,,,,,,,,,,,,,,,,,,,,,,,,,,,,,,,,,,,,,,,,,,,,,,,,,,,,,,,,,,,,,,,,,,,,,,,,,,,,,,,,,,,,,,,,,,,,,,,,,,,,,,,,,,,,,,
0,92,92,36,1,,60e223997949aa8e7632763d,62bbfb36fb546d5885e76815,2022-06-29_09h16.32.659,Colour_Asymmetry_Pilot,2022.1.3,Win32,61.48927012,62bbe60bf3d75ef465d3e404,,,,,,,,,,,,,,,,,,,,,,,,,,,,,,,,,,,,,,,,,,,,,,,,,,,,,,,,,,,,,,,,,,,,,,,,,,,,,,,,,,,,,,,,,,,,,,,,,,,,,,,,,,,,,,,,,,,,,,,,,,,,,,,,,,,,,,,,,,,,,,,,,,,,,,,,,,,,,,
,,,,,,60e223997949aa8e7632763d,62bbfb36fb546d5885e76815,2022-06-29_09h16.32.659,Colour_Asymmetry_Pilot,2022.1.3,Win32,61.48927012,62bbe60bf3d75ef465d3e404,0,0,0,52,1,threeone,,,,,,,,,,,,,,,,,,,,,,,,,,,,,,,,,,,,,,,,,,,,,,,,,,,,,,,,,,,,,,,,,,,,,,,,,,,,,,,,,,,,,,,,,,,,,,,,,,,,,,,,,,,,,,,,,,,,,,,,,,,,,,,,,,,,,,,,,,,,,,,,,,,,,,,,
,,,,,,60e223997949aa8e7632763d,62bbfb36fb546d5885e76815,2022-06-29_09h16.32.659,Colour_Asymmetry_Pilot,2022.1.3,Win32,61.48927012,62bbe60bf3d75ef465d3e404,0,1,1,80,1,onetwo,,,,,,,,,,,,,,,,,,,,,,,,,,,,,,,,,,,,,,,,,,,,,,,,,,,,,,,,,,,,,,,,,,,,,,,,,,,,,,,,,,,,,,,,,,,,,,,,,,,,,,,,,,,,,,,,,,,,,,,,,,,,,,,,,,,,,,,,,,,,,,,,,,,,,,,,
,,,,,,60e223997949aa8e7632763d,62bbfb36fb546d5885e76815,2022-06-29_09h16.32.659,Colour_Asymmetry_Pilot,2022.1.3,Win32,61.48927012,62bbe60bf3d75ef465d3e404,0,2,2,120,1,onetwo,,,,,,,,,,,,,,,,,,,,,,,,,,,,,,,,,,,,,,,,,,,,,,,,,,,,,,,,,,,,,,,,,,,,,,,,,,,,,,,,,,,,,,,,,,,,,,,,,,,,,,,,,,,,,,,,,,,,,,,,,,,,,,,,,,,,,,,,,,,,,,,,,,,,,,,,
,,,,,,60e223997949aa8e7632763d,62bbfb36fb546d5885e76815,2022-06-29_09h16.32.659,Colour_Asymmetry_Pilot,2022.1.3,Win32,61.48927012,62bbe60bf3d75ef465d3e404,0,3,3,136,1,onetwo,,,,,,,,,,,,,,,,,,,,,,,,,,,,,,,,,,,,,,,,,,,,,,,,,,,,,,,,,,,,,,,,,,,,,,,,,,,,,,,,,,,,,,,,,,,,,,,,,,,,,,,,,,,,,,,,,,,,,,,,,,,,,,,,,,,,,,,,,,,,,,,,,,,,,,,,
,,,,,,60e223997949aa8e7632763d,62bbfb36fb546d5885e76815,2022-06-29_09h16.32.659,Colour_Asymmetry_Pilot,2022.1.3,Win32,61.48927012,62bbe60bf3d75ef465d3e404,0,4,4,76,1,threeone,,,,,,,,,,,,,,,,,,,,,,,,,,,,,,,,,,,,,,,,,,,,,,,,,,,,,,,,,,,,,,,,,,,,,,,,,,,,,,,,,,,,,,,,,,,,,,,,,,,,,,,,,,,,,,,,,,,,,,,,,,,,,,,,,,,,,,,,,,,,,,,,,,,,,,,,
,,,,,,60e223997949aa8e7632763d,62bbfb36fb546d5885e76815,2022-06-29_09h16.32.659,Colour_Asymmetry_Pilot,2022.1.3,Win32,61.48927012,62bbe60bf3d75ef465d3e404,0,5,5,77,1,threefour,,,,,,,,,,,,,,,,,,,,,,,,,,,,,,,,,,,,,,,,,,,,,,,,,,,,,,,,,,,,,,,,,,,,,,,,,,,,,,,,,,,,,,,,,,,,,,,,,,,,,,,,,,,,,,,,,,,,,,,,,,,,,,,,,,,,,,,,,,,,,,,,,,,,,,,,
,,,,,,60e223997949aa8e7632763d,62bbfb36fb546d5885e76815,2022-06-29_09h16.32.659,Colour_Asymmetry_Pilot,2022.1.3,Win32,61.48927012,62bbe60bf3d75ef465d3e404,0,6,6,7,1,fourthree,,,,,,,,,,,,,,,,,,,,,,,,,,,,,,,,,,,,,,,,,,,,,,,,,,,,,,,,,,,,,,,,,,,,,,,,,,,,,,,,,,,,,,,,,,,,,,,,,,,,,,,,,,,,,,,,,,,,,,,,,,,,,,,,,,,,,,,,,,,,,,,,,,,,,,,,
,,,,,,60e223997949aa8e7632763d,62bbfb36fb546d5885e76815,2022-06-29_09h16.32.659,Colour_Asymmetry_Pilot,2022.1.3,Win32,61.48927012,62bbe60bf3d75ef465d3e404,0,7,7,60,1,threeone,,,,,,,,,,,,,,,,,,,,,,,,,,,,,,,,,,,,,,,,,,,,,,,,,,,,,,,,,,,,,,,,,,,,,,,,,,,,,,,,,,,,,,,,,,,,,,,,,,,,,,,,,,,,,,,,,,,,,,,,,,,,,,,,,,,,,,,,,,,,,,,,,,,,,,,,
,,,,,,60e223997949aa8e7632763d,62bbfb36fb546d5885e76815,2022-06-29_09h16.32.659,Colour_Asymmetry_Pilot,2022.1.3,Win32,61.48927012,62bbe60bf3d75ef465d3e404,0,8,8,160,1,onetwo,,,,,,,,,,,,,,,,,,,,,,,,,,,,,,,,,,,,,,,,,,,,,,,,,,,,,,,,,,,,,,,,,,,,,,,,,,,,,,,,,,,,,,,,,,,,,,,,,,,,,,,,,,,,,,,,,,,,,,,,,,,,,,,,,,,,,,,,,,,,,,,,,,,,,,,,
,,,,,,60e223997949aa8e7632763d,62bbfb36fb546d5885e76815,2022-06-29_09h16.32.659,Colour_Asymmetry_Pilot,2022.1.3,Win32,61.48927012,62bbe60bf3d75ef465d3e404,0,9,9,156,1,threeone,,,,,,,,,,,,,,,,,,,,,,,,,,,,,,,,,,,,,,,,,,,,,,,,,,,,,,,,,,,,,,,,,,,,,,,,,,,,,,,,,,,,,,,,,,,,,,,,,,,,,,,,,,,,,,,,,,,,,,,,,,,,,,,,,,,,,,,,,,,,,,,,,,,,,,,,
,,,,,,60e223997949aa8e7632763d,62bbfb36fb546d5885e76815,2022-06-29_09h16.32.659,Colour_Asymmetry_Pilot,2022.1.3,Win32,61.48927012,62bbe60bf3d75ef465d3e404,0,10,10,27,1,twofour,,,,,,,,,,,,,,,,,,,,,,,,,,,,,,,,,,,,,,,,,,,,,,,,,,,,,,,,,,,,,,,,,,,,,,,,,,,,,,,,,,,,,,,,,,,,,,,,,,,,,,,,,,,,,,,,,,,,,,,,,,,,,,,,,,,,,,,,,,,,,,,,,,,,,,,,
,,,,,,60e223997949aa8e7632763d,62bbfb36fb546d5885e76815,2022-06-29_09h16.32.659,Colour_Asymmetry_Pilot,2022.1.3,Win32,61.48927012,62bbe60bf3d75ef465d3e404,0,11,11,154,1,twoone,,,,,,,,,,,,,,,,,,,,,,,,,,,,,,,,,,,,,,,,,,,,,,,,,,,,,,,,,,,,,,,,,,,,,,,,,,,,,,,,,,,,,,,,,,,,,,,,,,,,,,,,,,,,,,,,,,,,,,,,,,,,,,,,,,,,,,,,,,,,,,,,,,,,,,,,
,,,,,,60e223997949aa8e7632763d,62bbfb36fb546d5885e76815,2022-06-29_09h16.32.659,Colour_Asymmetry_Pilot,2022.1.3,Win32,61.48927012,62bbe60bf3d75ef465d3e404,0,12,12,38,1,fourtwo,,,,,,,,,,,,,,,,,,,,,,,,,,,,,,,,,,,,,,,,,,,,,,,,,,,,,,,,,,,,,,,,,,,,,,,,,,,,,,,,,,,,,,,,,,,,,,,,,,,,,,,,,,,,,,,,,,,,,,,,,,,,,,,,,,,,,,,,,,,,,,,,,,,,,,,,
,,,,,,60e223997949aa8e7632763d,62bbfb36fb546d5885e76815,2022-06-29_09h16.32.659,Colour_Asymmetry_Pilot,2022.1.3,Win32,61.48927012,62bbe60bf3d75ef465d3e404,0,13,13,65,1,onethree,,,,,,,,,,,,,,,,,,,,,,,,,,,,,,,,,,,,,,,,,,,,,,,,,,,,,,,,,,,,,,,,,,,,,,,,,,,,,,,,,,,,,,,,,,,,,,,,,,,,,,,,,,,,,,,,,,,,,,,,,,,,,,,,,,,,,,,,,,,,,,,,,,,,,,,,
,,,,,,60e223997949aa8e7632763d,62bbfb36fb546d5885e76815,2022-06-29_09h16.32.659,Colour_Asymmetry_Pilot,2022.1.3,Win32,61.48927012,62bbe60bf3d75ef465d3e404,0,14,14,14,1,fourtwo,,,,,,,,,,,,,,,,,,,,,,,,,,,,,,,,,,,,,,,,,,,,,,,,,,,,,,,,,,,,,,,,,,,,,,,,,,,,,,,,,,,,,,,,,,,,,,,,,,,,,,,,,,,,,,,,,,,,,,,,,,,,,,,,,,,,,,,,,,,,,,,,,,,,,,,,
,,,,,,60e223997949aa8e7632763d,62bbfb36fb546d5885e76815,2022-06-29_09h16.32.659,Colour_Asymmetry_Pilot,2022.1.3,Win32,61.48927012,62bbe60bf3d75ef465d3e404,0,15,15,50,1,twoone,,,,,,,,,,,,,,,,,,,,,,,,,,,,,,,,,,,,,,,,,,,,,,,,,,,,,,,,,,,,,,,,,,,,,,,,,,,,,,,,,,,,,,,,,,,,,,,,,,,,,,,,,,,,,,,,,,,,,,,,,,,,,,,,,,,,,,,,,,,,,,,,,,,,,,,,
,,,,,,60e223997949aa8e7632763d,62bbfb36fb546d5885e76815,2022-06-29_09h16.32.659,Colour_Asymmetry_Pilot,2022.1.3,Win32,61.48927012,62bbe60bf3d75ef465d3e404,0,16,16,107,1,twofour,,,,,,,,,,,,,,,,,,,,,,,,,,,,,,,,,,,,,,,,,,,,,,,,,,,,,,,,,,,,,,,,,,,,,,,,,,,,,,,,,,,,,,,,,,,,,,,,,,,,,,,,,,,,,,,,,,,,,,,,,,,,,,,,,,,,,,,,,,,,,,,,,,,,,,,,
,,,,,,60e223997949aa8e7632763d,62bbfb36fb546d5885e76815,2022-06-29_09h16.32.659,Colour_Asymmetry_Pilot,2022.1.3,Win32,61.48927012,62bbe60bf3d75ef465d3e404,0,17,17,66,1,twoone,,,,,,,,,,,,,,,,,,,,,,,,,,,,,,,,,,,,,,,,,,,,,,,,,,,,,,,,,,,,,,,,,,,,,,,,,,,,,,,,,,,,,,,,,,,,,,,,,,,,,,,,,,,,,,,,,,,,,,,,,,,,,,,,,,,,,,,,,,,,,,,,,,,,,,,,
,,,,,,60e223997949aa8e7632763d,62bbfb36fb546d5885e76815,2022-06-29_09h16.32.659,Colour_Asymmetry_Pilot,2022.1.3,Win32,61.48927012,62bbe60bf3d75ef465d3e404,0,18,18,64,1,onetwo,,,,,,,,,,,,,,,,,,,,,,,,,,,,,,,,,,,,,,,,,,,,,,,,,,,,,,,,,,,,,,,,,,,,,,,,,,,,,,,,,,,,,,,,,,,,,,,,,,,,,,,,,,,,,,,,,,,,,,,,,,,,,,,,,,,,,,,,,,,,,,,,,,,,,,,,
,,,,,,60e223997949aa8e7632763d,62bbfb36fb546d5885e76815,2022-06-29_09h16.32.659,Colour_Asymmetry_Pilot,2022.1.3,Win32,61.48927012,62bbe60bf3d75ef465d3e404,0,19,19,135,1,fourthree,,,,,,,,,,,,,,,,,,,,,,,,,,,,,,,,,,,,,,,,,,,,,,,,,,,,,,,,,,,,,,,,,,,,,,,,,,,,,,,,,,,,,,,,,,,,,,,,,,,,,,,,,,,,,,,,,,,,,,,,,,,,,,,,,,,,,,,,,,,,,,,,,,,,,,,,
,,,,,,60e223997949aa8e7632763d,62bbfb36fb546d5885e76815,2022-06-29_09h16.32.659,Colour_Asymmetry_Pilot,2022.1.3,Win32,61.48927012,62bbe60bf3d75ef465d3e404,0,20,20,30,1,fourtwo,,,,,,,,,,,,,,,,,,,,,,,,,,,,,,,,,,,,,,,,,,,,,,,,,,,,,,,,,,,,,,,,,,,,,,,,,,,,,,,,,,,,,,,,,,,,,,,,,,,,,,,,,,,,,,,,,,,,,,,,,,,,,,,,,,,,,,,,,,,,,,,,,,,,,,,,
,,,,,,60e223997949aa8e7632763d,62bbfb36fb546d5885e76815,2022-06-29_09h16.32.659,Colour_Asymmetry_Pilot,2022.1.3,Win32,61.48927012,62bbe60bf3d75ef465d3e404,0,21,21,0,1,onetwo,,,,,,,,,,,,,,,,,,,,,,,,,,,,,,,,,,,,,,,,,,,,,,,,,,,,,,,,,,,,,,,,,,,,,,,,,,,,,,,,,,,,,,,,,,,,,,,,,,,,,,,,,,,,,,,,,,,,,,,,,,,,,,,,,,,,,,,,,,,,,,,,,,,,,,,,
,,,,,,60e223997949aa8e7632763d,62bbfb36fb546d5885e76815,2022-06-29_09h16.32.659,Colour_Asymmetry_Pilot,2022.1.3,Win32,61.48927012,62bbe60bf3d75ef465d3e404,0,22,22,100,1,threeone,,,,,,,,,,,,,,,,,,,,,,,,,,,,,,,,,,,,,,,,,,,,,,,,,,,,,,,,,,,,,,,,,,,,,,,,,,,,,,,,,,,,,,,,,,,,,,,,,,,,,,,,,,,,,,,,,,,,,,,,,,,,,,,,,,,,,,,,,,,,,,,,,,,,,,,,
,,,,,,60e223997949aa8e7632763d,62bbfb36fb546d5885e76815,2022-06-29_09h16.32.659,Colour_Asymmetry_Pilot,2022.1.3,Win32,61.48927012,62bbe60bf3d75ef465d3e404,0,23,23,16,1,onetwo,,,,,,,,,,,,,,,,,,,,,,,,,,,,,,,,,,,,,,,,,,,,,,,,,,,,,,,,,,,,,,,,,,,,,,,,,,,,,,,,,,,,,,,,,,,,,,,,,,,,,,,,,,,,,,,,,,,,,,,,,,,,,,,,,,,,,,,,,,,,,,,,,,,,,,,,
,,,,,,60e223997949aa8e7632763d,62bbfb36fb546d5885e76815,2022-06-29_09h16.32.659,Colour_Asymmetry_Pilot,2022.1.3,Win32,61.48927012,62bbe60bf3d75ef465d3e404,0,24,24,12,1,threeone,,,,,,,,,,,,,,,,,,,,,,,,,,,,,,,,,,,,,,,,,,,,,,,,,,,,,,,,,,,,,,,,,,,,,,,,,,,,,,,,,,,,,,,,,,,,,,,,,,,,,,,,,,,,,,,,,,,,,,,,,,,,,,,,,,,,,,,,,,,,,,,,,,,,,,,,
,,,,,,60e223997949aa8e7632763d,62bbfb36fb546d5885e76815,2022-06-29_09h16.32.659,Colour_Asymmetry_Pilot,2022.1.3,Win32,61.48927012,62bbe60bf3d75ef465d3e404,0,25,25,26,1,twoone,,,,,,,,,,,,,,,,,,,,,,,,,,,,,,,,,,,,,,,,,,,,,,,,,,,,,,,,,,,,,,,,,,,,,,,,,,,,,,,,,,,,,,,,,,,,,,,,,,,,,,,,,,,,,,,,,,,,,,,,,,,,,,,,,,,,,,,,,,,,,,,,,,,,,,,,
,,,,,,60e223997949aa8e7632763d,62bbfb36fb546d5885e76815,2022-06-29_09h16.32.659,Colour_Asymmetry_Pilot,2022.1.3,Win32,61.48927012,62bbe60bf3d75ef465d3e404,0,26,26,61,1,threefour,,,,,,,,,,,,,,,,,,,,,,,,,,,,,,,,,,,,,,,,,,,,,,,,,,,,,,,,,,,,,,,,,,,,,,,,,,,,,,,,,,,,,,,,,,,,,,,,,,,,,,,,,,,,,,,,,,,,,,,,,,,,,,,,,,,,,,,,,,,,,,,,,,,,,,,,
,,,,,,60e223997949aa8e7632763d,62bbfb36fb546d5885e76815,2022-06-29_09h16.32.659,Colour_Asymmetry_Pilot,2022.1.3,Win32,61.48927012,62bbe60bf3d75ef465d3e404,0,27,27,87,1,fourthree,,,,,,,,,,,,,,,,,,,,,,,,,,,,,,,,,,,,,,,,,,,,,,,,,,,,,,,,,,,,,,,,,,,,,,,,,,,,,,,,,,,,,,,,,,,,,,,,,,,,,,,,,,,,,,,,,,,,,,,,,,,,,,,,,,,,,,,,,,,,,,,,,,,,,,,,
,,,,,,60e223997949aa8e7632763d,62bbfb36fb546d5885e76815,2022-06-29_09h16.32.659,Colour_Asymmetry_Pilot,2022.1.3,Win32,61.48927012,62bbe60bf3d75ef465d3e404,0,28,28,157,1,threefour,,,,,,,,,,,,,,,,,,,,,,,,,,,,,,,,,,,,,,,,,,,,,,,,,,,,,,,,,,,,,,,,,,,,,,,,,,,,,,,,,,,,,,,,,,,,,,,,,,,,,,,,,,,,,,,,,,,,,,,,,,,,,,,,,,,,,,,,,,,,,,,,,,,,,,,,
,,,,,,60e223997949aa8e7632763d,62bbfb36fb546d5885e76815,2022-06-29_09h16.32.659,Colour_Asymmetry_Pilot,2022.1.3,Win32,61.48927012,62bbe60bf3d75ef465d3e404,0,29,29,83,1,twofour,,,,,,,,,,,,,,,,,,,,,,,,,,,,,,,,,,,,,,,,,,,,,,,,,,,,,,,,,,,,,,,,,,,,,,,,,,,,,,,,,,,,,,,,,,,,,,,,,,,,,,,,,,,,,,,,,,,,,,,,,,,,,,,,,,,,,,,,,,,,,,,,,,,,,,,,
,,,,,,60e223997949aa8e7632763d,62bbfb36fb546d5885e76815,2022-06-29_09h16.32.659,Colour_Asymmetry_Pilot,2022.1.3,Win32,61.48927012,62bbe60bf3d75ef465d3e404,0,30,30,53,1,threefour,,,,,,,,,,,,,,,,,,,,,,,,,,,,,,,,,,,,,,,,,,,,,,,,,,,,,,,,,,,,,,,,,,,,,,,,,,,,,,,,,,,,,,,,,,,,,,,,,,,,,,,,,,,,,,,,,,,,,,,,,,,,,,,,,,,,,,,,,,,,,,,,,,,,,,,,
,,,,,,60e223997949aa8e7632763d,62bbfb36fb546d5885e76815,2022-06-29_09h16.32.659,Colour_Asymmetry_Pilot,2022.1.3,Win32,61.48927012,62bbe60bf3d75ef465d3e404,0,31,31,29,1,threefour,,,,,,,,,,,,,,,,,,,,,,,,,,,,,,,,,,,,,,,,,,,,,,,,,,,,,,,,,,,,,,,,,,,,,,,,,,,,,,,,,,,,,,,,,,,,,,,,,,,,,,,,,,,,,,,,,,,,,,,,,,,,,,,,,,,,,,,,,,,,,,,,,,,,,,,,
,,,,,,60e223997949aa8e7632763d,62bbfb36fb546d5885e76815,2022-06-29_09h16.32.659,Colour_Asymmetry_Pilot,2022.1.3,Win32,61.48927012,62bbe60bf3d75ef465d3e404,0,32,32,32,1,onetwo,,,,,,,,,,,,,,,,,,,,,,,,,,,,,,,,,,,,,,,,,,,,,,,,,,,,,,,,,,,,,,,,,,,,,,,,,,,,,,,,,,,,,,,,,,,,,,,,,,,,,,,,,,,,,,,,,,,,,,,,,,,,,,,,,,,,,,,,,,,,,,,,,,,,,,,,
,,,,,,60e223997949aa8e7632763d,62bbfb36fb546d5885e76815,2022-06-29_09h16.32.659,Colour_Asymmetry_Pilot,2022.1.3,Win32,61.48927012,62bbe60bf3d75ef465d3e404,0,33,33,138,1,twoone,,,,,,,,,,,,,,,,,,,,,,,,,,,,,,,,,,,,,,,,,,,,,,,,,,,,,,,,,,,,,,,,,,,,,,,,,,,,,,,,,,,,,,,,,,,,,,,,,,,,,,,,,,,,,,,,,,,,,,,,,,,,,,,,,,,,,,,,,,,,,,,,,,,,,,,,
,,,,,,60e223997949aa8e7632763d,62bbfb36fb546d5885e76815,2022-06-29_09h16.32.659,Colour_Asymmetry_Pilot,2022.1.3,Win32,61.48927012,62bbe60bf3d75ef465d3e404,0,34,34,113,1,onethree,,,,,,,,,,,,,,,,,,,,,,,,,,,,,,,,,,,,,,,,,,,,,,,,,,,,,,,,,,,,,,,,,,,,,,,,,,,,,,,,,,,,,,,,,,,,,,,,,,,,,,,,,,,,,,,,,,,,,,,,,,,,,,,,,,,,,,,,,,,,,,,,,,,,,,,,
,,,,,,60e223997949aa8e7632763d,62bbfb36fb546d5885e76815,2022-06-29_09h16.32.659,Colour_Asymmetry_Pilot,2022.1.3,Win32,61.48927012,62bbe60bf3d75ef465d3e404,0,35,35,69,1,threefour,,,,,,,,,,,,,,,,,,,,,,,,,,,,,,,,,,,,,,,,,,,,,,,,,,,,,,,,,,,,,,,,,,,,,,,,,,,,,,,,,,,,,,,,,,,,,,,,,,,,,,,,,,,,,,,,,,,,,,,,,,,,,,,,,,,,,,,,,,,,,,,,,,,,,,,,
,,,,,,60e223997949aa8e7632763d,62bbfb36fb546d5885e76815,2022-06-29_09h16.32.659,Colour_Asymmetry_Pilot,2022.1.3,Win32,61.48927012,62bbe60bf3d75ef465d3e404,0,36,36,158,1,fourtwo,,,,,,,,,,,,,,,,,,,,,,,,,,,,,,,,,,,,,,,,,,,,,,,,,,,,,,,,,,,,,,,,,,,,,,,,,,,,,,,,,,,,,,,,,,,,,,,,,,,,,,,,,,,,,,,,,,,,,,,,,,,,,,,,,,,,,,,,,,,,,,,,,,,,,,,,
,,,,,,60e223997949aa8e7632763d,62bbfb36fb546d5885e76815,2022-06-29_09h16.32.659,Colour_Asymmetry_Pilot,2022.1.3,Win32,61.48927012,62bbe60bf3d75ef465d3e404,0,37,37,99,1,twofour,,,,,,,,,,,,,,,,,,,,,,,,,,,,,,,,,,,,,,,,,,,,,,,,,,,,,,,,,,,,,,,,,,,,,,,,,,,,,,,,,,,,,,,,,,,,,,,,,,,,,,,,,,,,,,,,,,,,,,,,,,,,,,,,,,,,,,,,,,,,,,,,,,,,,,,,
,,,,,,60e223997949aa8e7632763d,62bbfb36fb546d5885e76815,2022-06-29_09h16.32.659,Colour_Asymmetry_Pilot,2022.1.3,Win32,61.48927012,62bbe60bf3d75ef465d3e404,0,38,38,102,1,fourtwo,,,,,,,,,,,,,,,,,,,,,,,,,,,,,,,,,,,,,,,,,,,,,,,,,,,,,,,,,,,,,,,,,,,,,,,,,,,,,,,,,,,,,,,,,,,,,,,,,,,,,,,,,,,,,,,,,,,,,,,,,,,,,,,,,,,,,,,,,,,,,,,,,,,,,,,,
,,,,,,60e223997949aa8e7632763d,62bbfb36fb546d5885e76815,2022-06-29_09h16.32.659,Colour_Asymmetry_Pilot,2022.1.3,Win32,61.48927012,62bbe60bf3d75ef465d3e404,0,39,39,151,1,fourthree,,,,,,,,,,,,,,,,,,,,,,,,,,,,,,,,,,,,,,,,,,,,,,,,,,,,,,,,,,,,,,,,,,,,,,,,,,,,,,,,,,,,,,,,,,,,,,,,,,,,,,,,,,,,,,,,,,,,,,,,,,,,,,,,,,,,,,,,,,,,,,,,,,,,,,,,
,,,,,,60e223997949aa8e7632763d,62bbfb36fb546d5885e76815,2022-06-29_09h16.32.659,Colour_Asymmetry_Pilot,2022.1.3,Win32,61.48927012,62bbe60bf3d75ef465d3e404,0,40,40,103,1,fourthree,,,,,,,,,,,,,,,,,,,,,,,,,,,,,,,,,,,,,,,,,,,,,,,,,,,,,,,,,,,,,,,,,,,,,,,,,,,,,,,,,,,,,,,,,,,,,,,,,,,,,,,,,,,,,,,,,,,,,,,,,,,,,,,,,,,,,,,,,,,,,,,,,,,,,,,,
,,,,,,60e223997949aa8e7632763d,62bbfb36fb546d5885e76815,2022-06-29_09h16.32.659,Colour_Asymmetry_Pilot,2022.1.3,Win32,61.48927012,62bbe60bf3d75ef465d3e404,0,41,41,34,1,twoone,,,,,,,,,,,,,,,,,,,,,,,,,,,,,,,,,,,,,,,,,,,,,,,,,,,,,,,,,,,,,,,,,,,,,,,,,,,,,,,,,,,,,,,,,,,,,,,,,,,,,,,,,,,,,,,,,,,,,,,,,,,,,,,,,,,,,,,,,,,,,,,,,,,,,,,,
,,,,,,60e223997949aa8e7632763d,62bbfb36fb546d5885e76815,2022-06-29_09h16.32.659,Colour_Asymmetry_Pilot,2022.1.3,Win32,61.48927012,62bbe60bf3d75ef465d3e404,0,42,42,5,1,threefour,,,,,,,,,,,,,,,,,,,,,,,,,,,,,,,,,,,,,,,,,,,,,,,,,,,,,,,,,,,,,,,,,,,,,,,,,,,,,,,,,,,,,,,,,,,,,,,,,,,,,,,,,,,,,,,,,,,,,,,,,,,,,,,,,,,,,,,,,,,,,,,,,,,,,,,,
,,,,,,60e223997949aa8e7632763d,62bbfb36fb546d5885e76815,2022-06-29_09h16.32.659,Colour_Asymmetry_Pilot,2022.1.3,Win32,61.48927012,62bbe60bf3d75ef465d3e404,0,43,43,98,1,twoone,,,,,,,,,,,,,,,,,,,,,,,,,,,,,,,,,,,,,,,,,,,,,,,,,,,,,,,,,,,,,,,,,,,,,,,,,,,,,,,,,,,,,,,,,,,,,,,,,,,,,,,,,,,,,,,,,,,,,,,,,,,,,,,,,,,,,,,,,,,,,,,,,,,,,,,,
,,,,,,60e223997949aa8e7632763d,62bbfb36fb546d5885e76815,2022-06-29_09h16.32.659,Colour_Asymmetry_Pilot,2022.1.3,Win32,61.48927012,62bbe60bf3d75ef465d3e404,0,44,44,51,1,twofour,,,,,,,,,,,,,,,,,,,,,,,,,,,,,,,,,,,,,,,,,,,,,,,,,,,,,,,,,,,,,,,,,,,,,,,,,,,,,,,,,,,,,,,,,,,,,,,,,,,,,,,,,,,,,,,,,,,,,,,,,,,,,,,,,,,,,,,,,,,,,,,,,,,,,,,,
,,,,,,60e223997949aa8e7632763d,62bbfb36fb546d5885e76815,2022-06-29_09h16.32.659,Colour_Asymmetry_Pilot,2022.1.3,Win32,61.48927012,62bbe60bf3d75ef465d3e404,0,45,45,74,1,twoone,,,,,,,,,,,,,,,,,,,,,,,,,,,,,,,,,,,,,,,,,,,,,,,,,,,,,,,,,,,,,,,,,,,,,,,,,,,,,,,,,,,,,,,,,,,,,,,,,,,,,,,,,,,,,,,,,,,,,,,,,,,,,,,,,,,,,,,,,,,,,,,,,,,,,,,,
,,,,,,60e223997949aa8e7632763d,62bbfb36fb546d5885e76815,2022-06-29_09h16.32.659,Colour_Asymmetry_Pilot,2022.1.3,Win32,61.48927012,62bbe60bf3d75ef465d3e404,0,46,46,118,1,fourtwo,,,,,,,,,,,,,,,,,,,,,,,,,,,,,,,,,,,,,,,,,,,,,,,,,,,,,,,,,,,,,,,,,,,,,,,,,,,,,,,,,,,,,,,,,,,,,,,,,,,,,,,,,,,,,,,,,,,,,,,,,,,,,,,,,,,,,,,,,,,,,,,,,,,,,,,,
,,,,,,60e223997949aa8e7632763d,62bbfb36fb546d5885e76815,2022-06-29_09h16.32.659,Colour_Asymmetry_Pilot,2022.1.3,Win32,61.48927012,62bbe60bf3d75ef465d3e404,0,47,47,20,1,threeone,,,,,,,,,,,,,,,,,,,,,,,,,,,,,,,,,,,,,,,,,,,,,,,,,,,,,,,,,,,,,,,,,,,,,,,,,,,,,,,,,,,,,,,,,,,,,,,,,,,,,,,,,,,,,,,,,,,,,,,,,,,,,,,,,,,,,,,,,,,,,,,,,,,,,,,,
,,,,,,60e223997949aa8e7632763d,62bbfb36fb546d5885e76815,2022-06-29_09h16.32.659,Colour_Asymmetry_Pilot,2022.1.3,Win32,61.48927012,62bbe60bf3d75ef465d3e404,0,48,48,128,1,onetwo,,,,,,,,,,,,,,,,,,,,,,,,,,,,,,,,,,,,,,,,,,,,,,,,,,,,,,,,,,,,,,,,,,,,,,,,,,,,,,,,,,,,,,,,,,,,,,,,,,,,,,,,,,,,,,,,,,,,,,,,,,,,,,,,,,,,,,,,,,,,,,,,,,,,,,,,
,,,,,,60e223997949aa8e7632763d,62bbfb36fb546d5885e76815,2022-06-29_09h16.32.659,Colour_Asymmetry_Pilot,2022.1.3,Win32,61.48927012,62bbe60bf3d75ef465d3e404,0,49,49,131,1,twofour,,,,,,,,,,,,,,,,,,,,,,,,,,,,,,,,,,,,,,,,,,,,,,,,,,,,,,,,,,,,,,,,,,,,,,,,,,,,,,,,,,,,,,,,,,,,,,,,,,,,,,,,,,,,,,,,,,,,,,,,,,,,,,,,,,,,,,,,,,,,,,,,,,,,,,,,
,,,,,,60e223997949aa8e7632763d,62bbfb36fb546d5885e76815,2022-06-29_09h16.32.659,Colour_Asymmetry_Pilot,2022.1.3,Win32,61.48927012,62bbe60bf3d75ef465d3e404,0,50,50,79,1,fourthree,,,,,,,,,,,,,,,,,,,,,,,,,,,,,,,,,,,,,,,,,,,,,,,,,,,,,,,,,,,,,,,,,,,,,,,,,,,,,,,,,,,,,,,,,,,,,,,,,,,,,,,,,,,,,,,,,,,,,,,,,,,,,,,,,,,,,,,,,,,,,,,,,,,,,,,,
,,,,,,60e223997949aa8e7632763d,62bbfb36fb546d5885e76815,2022-06-29_09h16.32.659,Colour_Asymmetry_Pilot,2022.1.3,Win32,61.48927012,62bbe60bf3d75ef465d3e404,0,51,51,153,1,onethree,,,,,,,,,,,,,,,,,,,,,,,,,,,,,,,,,,,,,,,,,,,,,,,,,,,,,,,,,,,,,,,,,,,,,,,,,,,,,,,,,,,,,,,,,,,,,,,,,,,,,,,,,,,,,,,,,,,,,,,,,,,,,,,,,,,,,,,,,,,,,,,,,,,,,,,,
,,,,,,60e223997949aa8e7632763d,62bbfb36fb546d5885e76815,2022-06-29_09h16.32.659,Colour_Asymmetry_Pilot,2022.1.3,Win32,61.48927012,62bbe60bf3d75ef465d3e404,0,52,52,96,1,onetwo,,,,,,,,,,,,,,,,,,,,,,,,,,,,,,,,,,,,,,,,,,,,,,,,,,,,,,,,,,,,,,,,,,,,,,,,,,,,,,,,,,,,,,,,,,,,,,,,,,,,,,,,,,,,,,,,,,,,,,,,,,,,,,,,,,,,,,,,,,,,,,,,,,,,,,,,
,,,,,,60e223997949aa8e7632763d,62bbfb36fb546d5885e76815,2022-06-29_09h16.32.659,Colour_Asymmetry_Pilot,2022.1.3,Win32,61.48927012,62bbe60bf3d75ef465d3e404,0,53,53,54,1,fourtwo,,,,,,,,,,,,,,,,,,,,,,,,,,,,,,,,,,,,,,,,,,,,,,,,,,,,,,,,,,,,,,,,,,,,,,,,,,,,,,,,,,,,,,,,,,,,,,,,,,,,,,,,,,,,,,,,,,,,,,,,,,,,,,,,,,,,,,,,,,,,,,,,,,,,,,,,
,,,,,,60e223997949aa8e7632763d,62bbfb36fb546d5885e76815,2022-06-29_09h16.32.659,Colour_Asymmetry_Pilot,2022.1.3,Win32,61.48927012,62bbe60bf3d75ef465d3e404,0,54,54,4,1,threeone,,,,,,,,,,,,,,,,,,,,,,,,,,,,,,,,,,,,,,,,,,,,,,,,,,,,,,,,,,,,,,,,,,,,,,,,,,,,,,,,,,,,,,,,,,,,,,,,,,,,,,,,,,,,,,,,,,,,,,,,,,,,,,,,,,,,,,,,,,,,,,,,,,,,,,,,
,,,,,,60e223997949aa8e7632763d,62bbfb36fb546d5885e76815,2022-06-29_09h16.32.659,Colour_Asymmetry_Pilot,2022.1.3,Win32,61.48927012,62bbe60bf3d75ef465d3e404,0,55,55,145,1,onethree,,,,,,,,,,,,,,,,,,,,,,,,,,,,,,,,,,,,,,,,,,,,,,,,,,,,,,,,,,,,,,,,,,,,,,,,,,,,,,,,,,,,,,,,,,,,,,,,,,,,,,,,,,,,,,,,,,,,,,,,,,,,,,,,,,,,,,,,,,,,,,,,,,,,,,,,
,,,,,,60e223997949aa8e7632763d,62bbfb36fb546d5885e76815,2022-06-29_09h16.32.659,Colour_Asymmetry_Pilot,2022.1.3,Win32,61.48927012,62bbe60bf3d75ef465d3e404,0,56,56,104,1,onetwo,,,,,,,,,,,,,,,,,,,,,,,,,,,,,,,,,,,,,,,,,,,,,,,,,,,,,,,,,,,,,,,,,,,,,,,,,,,,,,,,,,,,,,,,,,,,,,,,,,,,,,,,,,,,,,,,,,,,,,,,,,,,,,,,,,,,,,,,,,,,,,,,,,,,,,,,
,,,,,,60e223997949aa8e7632763d,62bbfb36fb546d5885e76815,2022-06-29_09h16.32.659,Colour_Asymmetry_Pilot,2022.1.3,Win32,61.48927012,62bbe60bf3d75ef465d3e404,0,57,57,155,1,twofour,,,,,,,,,,,,,,,,,,,,,,,,,,,,,,,,,,,,,,,,,,,,,,,,,,,,,,,,,,,,,,,,,,,,,,,,,,,,,,,,,,,,,,,,,,,,,,,,,,,,,,,,,,,,,,,,,,,,,,,,,,,,,,,,,,,,,,,,,,,,,,,,,,,,,,,,
,,,,,,60e223997949aa8e7632763d,62bbfb36fb546d5885e76815,2022-06-29_09h16.32.659,Colour_Asymmetry_Pilot,2022.1.3,Win32,61.48927012,62bbe60bf3d75ef465d3e404,0,58,58,33,1,onethree,,,,,,,,,,,,,,,,,,,,,,,,,,,,,,,,,,,,,,,,,,,,,,,,,,,,,,,,,,,,,,,,,,,,,,,,,,,,,,,,,,,,,,,,,,,,,,,,,,,,,,,,,,,,,,,,,,,,,,,,,,,,,,,,,,,,,,,,,,,,,,,,,,,,,,,,
,,,,,,60e223997949aa8e7632763d,62bbfb36fb546d5885e76815,2022-06-29_09h16.32.659,Colour_Asymmetry_Pilot,2022.1.3,Win32,61.48927012,62bbe60bf3d75ef465d3e404,0,59,59,40,1,onetwo,,,,,,,,,,,,,,,,,,,,,,,,,,,,,,,,,,,,,,,,,,,,,,,,,,,,,,,,,,,,,,,,,,,,,,,,,,,,,,,,,,,,,,,,,,,,,,,,,,,,,,,,,,,,,,,,,,,,,,,,,,,,,,,,,,,,,,,,,,,,,,,,,,,,,,,,
,,,,,,60e223997949aa8e7632763d,62bbfb36fb546d5885e76815,2022-06-29_09h16.32.659,Colour_Asymmetry_Pilot,2022.1.3,Win32,61.48927012,62bbe60bf3d75ef465d3e404,0,60,60,36,1,threeone,,,,,,,,,,,,,,,,,,,,,,,,,,,,,,,,,,,,,,,,,,,,,,,,,,,,,,,,,,,,,,,,,,,,,,,,,,,,,,,,,,,,,,,,,,,,,,,,,,,,,,,,,,,,,,,,,,,,,,,,,,,,,,,,,,,,,,,,,,,,,,,,,,,,,,,,
,,,,,,60e223997949aa8e7632763d,62bbfb36fb546d5885e76815,2022-06-29_09h16.32.659,Colour_Asymmetry_Pilot,2022.1.3,Win32,61.48927012,62bbe60bf3d75ef465d3e404,0,61,61,147,1,twofour,,,,,,,,,,,,,,,,,,,,,,,,,,,,,,,,,,,,,,,,,,,,,,,,,,,,,,,,,,,,,,,,,,,,,,,,,,,,,,,,,,,,,,,,,,,,,,,,,,,,,,,,,,,,,,,,,,,,,,,,,,,,,,,,,,,,,,,,,,,,,,,,,,,,,,,,
,,,,,,60e223997949aa8e7632763d,62bbfb36fb546d5885e76815,2022-06-29_09h16.32.659,Colour_Asymmetry_Pilot,2022.1.3,Win32,61.48927012,62bbe60bf3d75ef465d3e404,0,62,62,75,1,twofour,,,,,,,,,,,,,,,,,,,,,,,,,,,,,,,,,,,,,,,,,,,,,,,,,,,,,,,,,,,,,,,,,,,,,,,,,,,,,,,,,,,,,,,,,,,,,,,,,,,,,,,,,,,,,,,,,,,,,,,,,,,,,,,,,,,,,,,,,,,,,,,,,,,,,,,,
,,,,,,60e223997949aa8e7632763d,62bbfb36fb546d5885e76815,2022-06-29_09h16.32.659,Colour_Asymmetry_Pilot,2022.1.3,Win32,61.48927012,62bbe60bf3d75ef465d3e404,0,63,63,15,1,fourthree,,,,,,,,,,,,,,,,,,,,,,,,,,,,,,,,,,,,,,,,,,,,,,,,,,,,,,,,,,,,,,,,,,,,,,,,,,,,,,,,,,,,,,,,,,,,,,,,,,,,,,,,,,,,,,,,,,,,,,,,,,,,,,,,,,,,,,,,,,,,,,,,,,,,,,,,
,,,,,,60e223997949aa8e7632763d,62bbfb36fb546d5885e76815,2022-06-29_09h16.32.659,Colour_Asymmetry_Pilot,2022.1.3,Win32,61.48927012,62bbe60bf3d75ef465d3e404,0,64,64,71,1,fourthree,,,,,,,,,,,,,,,,,,,,,,,,,,,,,,,,,,,,,,,,,,,,,,,,,,,,,,,,,,,,,,,,,,,,,,,,,,,,,,,,,,,,,,,,,,,,,,,,,,,,,,,,,,,,,,,,,,,,,,,,,,,,,,,,,,,,,,,,,,,,,,,,,,,,,,,,
,,,,,,60e223997949aa8e7632763d,62bbfb36fb546d5885e76815,2022-06-29_09h16.32.659,Colour_Asymmetry_Pilot,2022.1.3,Win32,61.48927012,62bbe60bf3d75ef465d3e404,0,65,65,111,1,fourthree,,,,,,,,,,,,,,,,,,,,,,,,,,,,,,,,,,,,,,,,,,,,,,,,,,,,,,,,,,,,,,,,,,,,,,,,,,,,,,,,,,,,,,,,,,,,,,,,,,,,,,,,,,,,,,,,,,,,,,,,,,,,,,,,,,,,,,,,,,,,,,,,,,,,,,,,
,,,,,,60e223997949aa8e7632763d,62bbfb36fb546d5885e76815,2022-06-29_09h16.32.659,Colour_Asymmetry_Pilot,2022.1.3,Win32,61.48927012,62bbe60bf3d75ef465d3e404,0,66,66,90,1,twoone,,,,,,,,,,,,,,,,,,,,,,,,,,,,,,,,,,,,,,,,,,,,,,,,,,,,,,,,,,,,,,,,,,,,,,,,,,,,,,,,,,,,,,,,,,,,,,,,,,,,,,,,,,,,,,,,,,,,,,,,,,,,,,,,,,,,,,,,,,,,,,,,,,,,,,,,
,,,,,,60e223997949aa8e7632763d,62bbfb36fb546d5885e76815,2022-06-29_09h16.32.659,Colour_Asymmetry_Pilot,2022.1.3,Win32,61.48927012,62bbe60bf3d75ef465d3e404,0,67,67,59,1,twofour,,,,,,,,,,,,,,,,,,,,,,,,,,,,,,,,,,,,,,,,,,,,,,,,,,,,,,,,,,,,,,,,,,,,,,,,,,,,,,,,,,,,,,,,,,,,,,,,,,,,,,,,,,,,,,,,,,,,,,,,,,,,,,,,,,,,,,,,,,,,,,,,,,,,,,,,
,,,,,,60e223997949aa8e7632763d,62bbfb36fb546d5885e76815,2022-06-29_09h16.32.659,Colour_Asymmetry_Pilot,2022.1.3,Win32,61.48927012,62bbe60bf3d75ef465d3e404,0,68,68,22,1,fourtwo,,,,,,,,,,,,,,,,,,,,,,,,,,,,,,,,,,,,,,,,,,,,,,,,,,,,,,,,,,,,,,,,,,,,,,,,,,,,,,,,,,,,,,,,,,,,,,,,,,,,,,,,,,,,,,,,,,,,,,,,,,,,,,,,,,,,,,,,,,,,,,,,,,,,,,,,
,,,,,,60e223997949aa8e7632763d,62bbfb36fb546d5885e76815,2022-06-29_09h16.32.659,Colour_Asymmetry_Pilot,2022.1.3,Win32,61.48927012,62bbe60bf3d75ef465d3e404,0,69,69,6,1,fourtwo,,,,,,,,,,,,,,,,,,,,,,,,,,,,,,,,,,,,,,,,,,,,,,,,,,,,,,,,,,,,,,,,,,,,,,,,,,,,,,,,,,,,,,,,,,,,,,,,,,,,,,,,,,,,,,,,,,,,,,,,,,,,,,,,,,,,,,,,,,,,,,,,,,,,,,,,
,,,,,,60e223997949aa8e7632763d,62bbfb36fb546d5885e76815,2022-06-29_09h16.32.659,Colour_Asymmetry_Pilot,2022.1.3,Win32,61.48927012,62bbe60bf3d75ef465d3e404,0,70,70,105,1,onethree,,,,,,,,,,,,,,,,,,,,,,,,,,,,,,,,,,,,,,,,,,,,,,,,,,,,,,,,,,,,,,,,,,,,,,,,,,,,,,,,,,,,,,,,,,,,,,,,,,,,,,,,,,,,,,,,,,,,,,,,,,,,,,,,,,,,,,,,,,,,,,,,,,,,,,,,
,,,,,,60e223997949aa8e7632763d,62bbfb36fb546d5885e76815,2022-06-29_09h16.32.659,Colour_Asymmetry_Pilot,2022.1.3,Win32,61.48927012,62bbe60bf3d75ef465d3e404,0,71,71,150,1,fourtwo,,,,,,,,,,,,,,,,,,,,,,,,,,,,,,,,,,,,,,,,,,,,,,,,,,,,,,,,,,,,,,,,,,,,,,,,,,,,,,,,,,,,,,,,,,,,,,,,,,,,,,,,,,,,,,,,,,,,,,,,,,,,,,,,,,,,,,,,,,,,,,,,,,,,,,,,
,,,,,,60e223997949aa8e7632763d,62bbfb36fb546d5885e76815,2022-06-29_09h16.32.659,Colour_Asymmetry_Pilot,2022.1.3,Win32,61.48927012,62bbe60bf3d75ef465d3e404,0,72,72,94,1,fourtwo,,,,,,,,,,,,,,,,,,,,,,,,,,,,,,,,,,,,,,,,,,,,,,,,,,,,,,,,,,,,,,,,,,,,,,,,,,,,,,,,,,,,,,,,,,,,,,,,,,,,,,,,,,,,,,,,,,,,,,,,,,,,,,,,,,,,,,,,,,,,,,,,,,,,,,,,
,,,,,,60e223997949aa8e7632763d,62bbfb36fb546d5885e76815,2022-06-29_09h16.32.659,Colour_Asymmetry_Pilot,2022.1.3,Win32,61.48927012,62bbe60bf3d75ef465d3e404,0,73,73,78,1,fourtwo,,,,,,,,,,,,,,,,,,,,,,,,,,,,,,,,,,,,,,,,,,,,,,,,,,,,,,,,,,,,,,,,,,,,,,,,,,,,,,,,,,,,,,,,,,,,,,,,,,,,,,,,,,,,,,,,,,,,,,,,,,,,,,,,,,,,,,,,,,,,,,,,,,,,,,,,
,,,,,,60e223997949aa8e7632763d,62bbfb36fb546d5885e76815,2022-06-29_09h16.32.659,Colour_Asymmetry_Pilot,2022.1.3,Win32,61.48927012,62bbe60bf3d75ef465d3e404,0,74,74,17,1,onethree,,,,,,,,,,,,,,,,,,,,,,,,,,,,,,,,,,,,,,,,,,,,,,,,,,,,,,,,,,,,,,,,,,,,,,,,,,,,,,,,,,,,,,,,,,,,,,,,,,,,,,,,,,,,,,,,,,,,,,,,,,,,,,,,,,,,,,,,,,,,,,,,,,,,,,,,
,,,,,,60e223997949aa8e7632763d,62bbfb36fb546d5885e76815,2022-06-29_09h16.32.659,Colour_Asymmetry_Pilot,2022.1.3,Win32,61.48927012,62bbe60bf3d75ef465d3e404,0,75,75,72,1,onetwo,,,,,,,,,,,,,,,,,,,,,,,,,,,,,,,,,,,,,,,,,,,,,,,,,,,,,,,,,,,,,,,,,,,,,,,,,,,,,,,,,,,,,,,,,,,,,,,,,,,,,,,,,,,,,,,,,,,,,,,,,,,,,,,,,,,,,,,,,,,,,,,,,,,,,,,,
,,,,,,60e223997949aa8e7632763d,62bbfb36fb546d5885e76815,2022-06-29_09h16.32.659,Colour_Asymmetry_Pilot,2022.1.3,Win32,61.48927012,62bbe60bf3d75ef465d3e404,0,76,76,44,1,threeone,,,,,,,,,,,,,,,,,,,,,,,,,,,,,,,,,,,,,,,,,,,,,,,,,,,,,,,,,,,,,,,,,,,,,,,,,,,,,,,,,,,,,,,,,,,,,,,,,,,,,,,,,,,,,,,,,,,,,,,,,,,,,,,,,,,,,,,,,,,,,,,,,,,,,,,,
,,,,,,60e223997949aa8e7632763d,62bbfb36fb546d5885e76815,2022-06-29_09h16.32.659,Colour_Asymmetry_Pilot,2022.1.3,Win32,61.48927012,62bbe60bf3d75ef465d3e404,0,77,77,124,1,threeone,,,,,,,,,,,,,,,,,,,,,,,,,,,,,,,,,,,,,,,,,,,,,,,,,,,,,,,,,,,,,,,,,,,,,,,,,,,,,,,,,,,,,,,,,,,,,,,,,,,,,,,,,,,,,,,,,,,,,,,,,,,,,,,,,,,,,,,,,,,,,,,,,,,,,,,,
,,,,,,60e223997949aa8e7632763d,62bbfb36fb546d5885e76815,2022-06-29_09h16.32.659,Colour_Asymmetry_Pilot,2022.1.3,Win32,61.48927012,62bbe60bf3d75ef465d3e404,0,78,78,25,1,onethree,,,,,,,,,,,,,,,,,,,,,,,,,,,,,,,,,,,,,,,,,,,,,,,,,,,,,,,,,,,,,,,,,,,,,,,,,,,,,,,,,,,,,,,,,,,,,,,,,,,,,,,,,,,,,,,,,,,,,,,,,,,,,,,,,,,,,,,,,,,,,,,,,,,,,,,,
,,,,,,60e223997949aa8e7632763d,62bbfb36fb546d5885e76815,2022-06-29_09h16.32.659,Colour_Asymmetry_Pilot,2022.1.3,Win32,61.48927012,62bbe60bf3d75ef465d3e404,0,79,79,101,1,threefour,,,,,,,,,,,,,,,,,,,,,,,,,,,,,,,,,,,,,,,,,,,,,,,,,,,,,,,,,,,,,,,,,,,,,,,,,,,,,,,,,,,,,,,,,,,,,,,,,,,,,,,,,,,,,,,,,,,,,,,,,,,,,,,,,,,,,,,,,,,,,,,,,,,,,,,,
,,,,,,60e223997949aa8e7632763d,62bbfb36fb546d5885e76815,2022-06-29_09h16.32.659,Colour_Asymmetry_Pilot,2022.1.3,Win32,61.48927012,62bbe60bf3d75ef465d3e404,0,80,80,143,1,fourthree,,,,,,,,,,,,,,,,,,,,,,,,,,,,,,,,,,,,,,,,,,,,,,,,,,,,,,,,,,,,,,,,,,,,,,,,,,,,,,,,,,,,,,,,,,,,,,,,,,,,,,,,,,,,,,,,,,,,,,,,,,,,,,,,,,,,,,,,,,,,,,,,,,,,,,,,
,,,,,,60e223997949aa8e7632763d,62bbfb36fb546d5885e76815,2022-06-29_09h16.32.659,Colour_Asymmetry_Pilot,2022.1.3,Win32,61.48927012,62bbe60bf3d75ef465d3e404,0,81,81,123,1,twofour,,,,,,,,,,,,,,,,,,,,,,,,,,,,,,,,,,,,,,,,,,,,,,,,,,,,,,,,,,,,,,,,,,,,,,,,,,,,,,,,,,,,,,,,,,,,,,,,,,,,,,,,,,,,,,,,,,,,,,,,,,,,,,,,,,,,,,,,,,,,,,,,,,,,,,,,
,,,,,,60e223997949aa8e7632763d,62bbfb36fb546d5885e76815,2022-06-29_09h16.32.659,Colour_Asymmetry_Pilot,2022.1.3,Win32,61.48927012,62bbe60bf3d75ef465d3e404,0,82,82,89,1,onethree,,,,,,,,,,,,,,,,,,,,,,,,,,,,,,,,,,,,,,,,,,,,,,,,,,,,,,,,,,,,,,,,,,,,,,,,,,,,,,,,,,,,,,,,,,,,,,,,,,,,,,,,,,,,,,,,,,,,,,,,,,,,,,,,,,,,,,,,,,,,,,,,,,,,,,,,
,,,,,,60e223997949aa8e7632763d,62bbfb36fb546d5885e76815,2022-06-29_09h16.32.659,Colour_Asymmetry_Pilot,2022.1.3,Win32,61.48927012,62bbe60bf3d75ef465d3e404,0,83,83,122,1,twoone,,,,,,,,,,,,,,,,,,,,,,,,,,,,,,,,,,,,,,,,,,,,,,,,,,,,,,,,,,,,,,,,,,,,,,,,,,,,,,,,,,,,,,,,,,,,,,,,,,,,,,,,,,,,,,,,,,,,,,,,,,,,,,,,,,,,,,,,,,,,,,,,,,,,,,,,
,,,,,,60e223997949aa8e7632763d,62bbfb36fb546d5885e76815,2022-06-29_09h16.32.659,Colour_Asymmetry_Pilot,2022.1.3,Win32,61.48927012,62bbe60bf3d75ef465d3e404,0,84,84,86,1,fourtwo,,,,,,,,,,,,,,,,,,,,,,,,,,,,,,,,,,,,,,,,,,,,,,,,,,,,,,,,,,,,,,,,,,,,,,,,,,,,,,,,,,,,,,,,,,,,,,,,,,,,,,,,,,,,,,,,,,,,,,,,,,,,,,,,,,,,,,,,,,,,,,,,,,,,,,,,
,,,,,,60e223997949aa8e7632763d,62bbfb36fb546d5885e76815,2022-06-29_09h16.32.659,Colour_Asymmetry_Pilot,2022.1.3,Win32,61.48927012,62bbe60bf3d75ef465d3e404,0,85,85,146,1,twoone,,,,,,,,,,,,,,,,,,,,,,,,,,,,,,,,,,,,,,,,,,,,,,,,,,,,,,,,,,,,,,,,,,,,,,,,,,,,,,,,,,,,,,,,,,,,,,,,,,,,,,,,,,,,,,,,,,,,,,,,,,,,,,,,,,,,,,,,,,,,,,,,,,,,,,,,
,,,,,,60e223997949aa8e7632763d,62bbfb36fb546d5885e76815,2022-06-29_09h16.32.659,Colour_Asymmetry_Pilot,2022.1.3,Win32,61.48927012,62bbe60bf3d75ef465d3e404,0,86,86,161,1,onethree,,,,,,,,,,,,,,,,,,,,,,,,,,,,,,,,,,,,,,,,,,,,,,,,,,,,,,,,,,,,,,,,,,,,,,,,,,,,,,,,,,,,,,,,,,,,,,,,,,,,,,,,,,,,,,,,,,,,,,,,,,,,,,,,,,,,,,,,,,,,,,,,,,,,,,,,
,,,,,,60e223997949aa8e7632763d,62bbfb36fb546d5885e76815,2022-06-29_09h16.32.659,Colour_Asymmetry_Pilot,2022.1.3,Win32,61.48927012,62bbe60bf3d75ef465d3e404,0,87,87,133,1,threefour,,,,,,,,,,,,,,,,,,,,,,,,,,,,,,,,,,,,,,,,,,,,,,,,,,,,,,,,,,,,,,,,,,,,,,,,,,,,,,,,,,,,,,,,,,,,,,,,,,,,,,,,,,,,,,,,,,,,,,,,,,,,,,,,,,,,,,,,,,,,,,,,,,,,,,,,
,,,,,,60e223997949aa8e7632763d,62bbfb36fb546d5885e76815,2022-06-29_09h16.32.659,Colour_Asymmetry_Pilot,2022.1.3,Win32,61.48927012,62bbe60bf3d75ef465d3e404,0,88,88,42,1,twoone,,,,,,,,,,,,,,,,,,,,,,,,,,,,,,,,,,,,,,,,,,,,,,,,,,,,,,,,,,,,,,,,,,,,,,,,,,,,,,,,,,,,,,,,,,,,,,,,,,,,,,,,,,,,,,,,,,,,,,,,,,,,,,,,,,,,,,,,,,,,,,,,,,,,,,,,
,,,,,,60e223997949aa8e7632763d,62bbfb36fb546d5885e76815,2022-06-29_09h16.32.659,Colour_Asymmetry_Pilot,2022.1.3,Win32,61.48927012,62bbe60bf3d75ef465d3e404,0,89,89,159,1,fourthree,,,,,,,,,,,,,,,,,,,,,,,,,,,,,,,,,,,,,,,,,,,,,,,,,,,,,,,,,,,,,,,,,,,,,,,,,,,,,,,,,,,,,,,,,,,,,,,,,,,,,,,,,,,,,,,,,,,,,,,,,,,,,,,,,,,,,,,,,,,,,,,,,,,,,,,,
,,,,,,60e223997949aa8e7632763d,62bbfb36fb546d5885e76815,2022-06-29_09h16.32.659,Colour_Asymmetry_Pilot,2022.1.3,Win32,61.48927012,62bbe60bf3d75ef465d3e404,0,90,90,47,1,fourthree,,,,,,,,,,,,,,,,,,,,,,,,,,,,,,,,,,,,,,,,,,,,,,,,,,,,,,,,,,,,,,,,,,,,,,,,,,,,,,,,,,,,,,,,,,,,,,,,,,,,,,,,,,,,,,,,,,,,,,,,,,,,,,,,,,,,,,,,,,,,,,,,,,,,,,,,
,,,,,,60e223997949aa8e7632763d,62bbfb36fb546d5885e76815,2022-06-29_09h16.32.659,Colour_Asymmetry_Pilot,2022.1.3,Win32,61.48927012,62bbe60bf3d75ef465d3e404,0,91,91,108,1,threeone,,,,,,,,,,,,,,,,,,,,,,,,,,,,,,,,,,,,,,,,,,,,,,,,,,,,,,,,,,,,,,,,,,,,,,,,,,,,,,,,,,,,,,,,,,,,,,,,,,,,,,,,,,,,,,,,,,,,,,,,,,,,,,,,,,,,,,,,,,,,,,,,,,,,,,,,
,,,,,,60e223997949aa8e7632763d,62bbfb36fb546d5885e76815,2022-06-29_09h16.32.659,Colour_Asymmetry_Pilot,2022.1.3,Win32,61.48927012,62bbe60bf3d75ef465d3e404,0,92,92,73,1,onethree,,,,,,,,,,,,,,,,,,,,,,,,,,,,,,,,,,,,,,,,,,,,,,,,,,,,,,,,,,,,,,,,,,,,,,,,,,,,,,,,,,,,,,,,,,,,,,,,,,,,,,,,,,,,,,,,,,,,,,,,,,,,,,,,,,,,,,,,,,,,,,,,,,,,,,,,
,,,,,,60e223997949aa8e7632763d,62bbfb36fb546d5885e76815,2022-06-29_09h16.32.659,Colour_Asymmetry_Pilot,2022.1.3,Win32,61.48927012,62bbe60bf3d75ef465d3e404,0,93,93,127,1,fourthree,,,,,,,,,,,,,,,,,,,,,,,,,,,,,,,,,,,,,,,,,,,,,,,,,,,,,,,,,,,,,,,,,,,,,,,,,,,,,,,,,,,,,,,,,,,,,,,,,,,,,,,,,,,,,,,,,,,,,,,,,,,,,,,,,,,,,,,,,,,,,,,,,,,,,,,,
,,,,,,60e223997949aa8e7632763d,62bbfb36fb546d5885e76815,2022-06-29_09h16.32.659,Colour_Asymmetry_Pilot,2022.1.3,Win32,61.48927012,62bbe60bf3d75ef465d3e404,0,94,94,140,1,threeone,,,,,,,,,,,,,,,,,,,,,,,,,,,,,,,,,,,,,,,,,,,,,,,,,,,,,,,,,,,,,,,,,,,,,,,,,,,,,,,,,,,,,,,,,,,,,,,,,,,,,,,,,,,,,,,,,,,,,,,,,,,,,,,,,,,,,,,,,,,,,,,,,,,,,,,,
,,,,,,60e223997949aa8e7632763d,62bbfb36fb546d5885e76815,2022-06-29_09h16.32.659,Colour_Asymmetry_Pilot,2022.1.3,Win32,61.48927012,62bbe60bf3d75ef465d3e404,0,95,95,148,1,threeone,,,,,,,,,,,,,,,,,,,,,,,,,,,,,,,,,,,,,,,,,,,,,,,,,,,,,,,,,,,,,,,,,,,,,,,,,,,,,,,,,,,,,,,,,,,,,,,,,,,,,,,,,,,,,,,,,,,,,,,,,,,,,,,,,,,,,,,,,,,,,,,,,,,,,,,,
,,,,,,60e223997949aa8e7632763d,62bbfb36fb546d5885e76815,2022-06-29_09h16.32.659,Colour_Asymmetry_Pilot,2022.1.3,Win32,61.48927012,62bbe60bf3d75ef465d3e404,0,96,96,68,1,threeone,,,,,,,,,,,,,,,,,,,,,,,,,,,,,,,,,,,,,,,,,,,,,,,,,,,,,,,,,,,,,,,,,,,,,,,,,,,,,,,,,,,,,,,,,,,,,,,,,,,,,,,,,,,,,,,,,,,,,,,,,,,,,,,,,,,,,,,,,,,,,,,,,,,,,,,,
,,,,,,60e223997949aa8e7632763d,62bbfb36fb546d5885e76815,2022-06-29_09h16.32.659,Colour_Asymmetry_Pilot,2022.1.3,Win32,61.48927012,62bbe60bf3d75ef465d3e404,0,97,97,149,1,threefour,,,,,,,,,,,,,,,,,,,,,,,,,,,,,,,,,,,,,,,,,,,,,,,,,,,,,,,,,,,,,,,,,,,,,,,,,,,,,,,,,,,,,,,,,,,,,,,,,,,,,,,,,,,,,,,,,,,,,,,,,,,,,,,,,,,,,,,,,,,,,,,,,,,,,,,,
,,,,,,60e223997949aa8e7632763d,62bbfb36fb546d5885e76815,2022-06-29_09h16.32.659,Colour_Asymmetry_Pilot,2022.1.3,Win32,61.48927012,62bbe60bf3d75ef465d3e404,0,98,98,132,1,threeone,,,,,,,,,,,,,,,,,,,,,,,,,,,,,,,,,,,,,,,,,,,,,,,,,,,,,,,,,,,,,,,,,,,,,,,,,,,,,,,,,,,,,,,,,,,,,,,,,,,,,,,,,,,,,,,,,,,,,,,,,,,,,,,,,,,,,,,,,,,,,,,,,,,,,,,,
,,,,,,60e223997949aa8e7632763d,62bbfb36fb546d5885e76815,2022-06-29_09h16.32.659,Colour_Asymmetry_Pilot,2022.1.3,Win32,61.48927012,62bbe60bf3d75ef465d3e404,0,99,99,82,1,twoone,,,,,,,,,,,,,,,,,,,,,,,,,,,,,,,,,,,,,,,,,,,,,,,,,,,,,,,,,,,,,,,,,,,,,,,,,,,,,,,,,,,,,,,,,,,,,,,,,,,,,,,,,,,,,,,,,,,,,,,,,,,,,,,,,,,,,,,,,,,,,,,,,,,,,,,,
,,,,,,60e223997949aa8e7632763d,62bbfb36fb546d5885e76815,2022-06-29_09h16.32.659,Colour_Asymmetry_Pilot,2022.1.3,Win32,61.48927012,62bbe60bf3d75ef465d3e404,0,100,100,112,1,onetwo,,,,,,,,,,,,,,,,,,,,,,,,,,,,,,,,,,,,,,,,,,,,,,,,,,,,,,,,,,,,,,,,,,,,,,,,,,,,,,,,,,,,,,,,,,,,,,,,,,,,,,,,,,,,,,,,,,,,,,,,,,,,,,,,,,,,,,,,,,,,,,,,,,,,,,,,
,,,,,,60e223997949aa8e7632763d,62bbfb36fb546d5885e76815,2022-06-29_09h16.32.659,Colour_Asymmetry_Pilot,2022.1.3,Win32,61.48927012,62bbe60bf3d75ef465d3e404,0,101,101,46,1,fourtwo,,,,,,,,,,,,,,,,,,,,,,,,,,,,,,,,,,,,,,,,,,,,,,,,,,,,,,,,,,,,,,,,,,,,,,,,,,,,,,,,,,,,,,,,,,,,,,,,,,,,,,,,,,,,,,,,,,,,,,,,,,,,,,,,,,,,,,,,,,,,,,,,,,,,,,,,
,,,,,,60e223997949aa8e7632763d,62bbfb36fb546d5885e76815,2022-06-29_09h16.32.659,Colour_Asymmetry_Pilot,2022.1.3,Win32,61.48927012,62bbe60bf3d75ef465d3e404,0,102,102,126,1,fourtwo,,,,,,,,,,,,,,,,,,,,,,,,,,,,,,,,,,,,,,,,,,,,,,,,,,,,,,,,,,,,,,,,,,,,,,,,,,,,,,,,,,,,,,,,,,,,,,,,,,,,,,,,,,,,,,,,,,,,,,,,,,,,,,,,,,,,,,,,,,,,,,,,,,,,,,,,
,,,,,,60e223997949aa8e7632763d,62bbfb36fb546d5885e76815,2022-06-29_09h16.32.659,Colour_Asymmetry_Pilot,2022.1.3,Win32,61.48927012,62bbe60bf3d75ef465d3e404,0,103,103,48,1,onetwo,,,,,,,,,,,,,,,,,,,,,,,,,,,,,,,,,,,,,,,,,,,,,,,,,,,,,,,,,,,,,,,,,,,,,,,,,,,,,,,,,,,,,,,,,,,,,,,,,,,,,,,,,,,,,,,,,,,,,,,,,,,,,,,,,,,,,,,,,,,,,,,,,,,,,,,,
,,,,,,60e223997949aa8e7632763d,62bbfb36fb546d5885e76815,2022-06-29_09h16.32.659,Colour_Asymmetry_Pilot,2022.1.3,Win32,61.48927012,62bbe60bf3d75ef465d3e404,0,104,104,134,1,fourtwo,,,,,,,,,,,,,,,,,,,,,,,,,,,,,,,,,,,,,,,,,,,,,,,,,,,,,,,,,,,,,,,,,,,,,,,,,,,,,,,,,,,,,,,,,,,,,,,,,,,,,,,,,,,,,,,,,,,,,,,,,,,,,,,,,,,,,,,,,,,,,,,,,,,,,,,,
,,,,,,60e223997949aa8e7632763d,62bbfb36fb546d5885e76815,2022-06-29_09h16.32.659,Colour_Asymmetry_Pilot,2022.1.3,Win32,61.48927012,62bbe60bf3d75ef465d3e404,0,105,105,11,1,twofour,,,,,,,,,,,,,,,,,,,,,,,,,,,,,,,,,,,,,,,,,,,,,,,,,,,,,,,,,,,,,,,,,,,,,,,,,,,,,,,,,,,,,,,,,,,,,,,,,,,,,,,,,,,,,,,,,,,,,,,,,,,,,,,,,,,,,,,,,,,,,,,,,,,,,,,,
,,,,,,60e223997949aa8e7632763d,62bbfb36fb546d5885e76815,2022-06-29_09h16.32.659,Colour_Asymmetry_Pilot,2022.1.3,Win32,61.48927012,62bbe60bf3d75ef465d3e404,0,106,106,2,1,twoone,,,,,,,,,,,,,,,,,,,,,,,,,,,,,,,,,,,,,,,,,,,,,,,,,,,,,,,,,,,,,,,,,,,,,,,,,,,,,,,,,,,,,,,,,,,,,,,,,,,,,,,,,,,,,,,,,,,,,,,,,,,,,,,,,,,,,,,,,,,,,,,,,,,,,,,,
,,,,,,60e223997949aa8e7632763d,62bbfb36fb546d5885e76815,2022-06-29_09h16.32.659,Colour_Asymmetry_Pilot,2022.1.3,Win32,61.48927012,62bbe60bf3d75ef465d3e404,0,107,107,63,1,fourthree,,,,,,,,,,,,,,,,,,,,,,,,,,,,,,,,,,,,,,,,,,,,,,,,,,,,,,,,,,,,,,,,,,,,,,,,,,,,,,,,,,,,,,,,,,,,,,,,,,,,,,,,,,,,,,,,,,,,,,,,,,,,,,,,,,,,,,,,,,,,,,,,,,,,,,,,
,,,,,,60e223997949aa8e7632763d,62bbfb36fb546d5885e76815,2022-06-29_09h16.32.659,Colour_Asymmetry_Pilot,2022.1.3,Win32,61.48927012,62bbe60bf3d75ef465d3e404,0,108,108,35,1,twofour,,,,,,,,,,,,,,,,,,,,,,,,,,,,,,,,,,,,,,,,,,,,,,,,,,,,,,,,,,,,,,,,,,,,,,,,,,,,,,,,,,,,,,,,,,,,,,,,,,,,,,,,,,,,,,,,,,,,,,,,,,,,,,,,,,,,,,,,,,,,,,,,,,,,,,,,
,,,,,,60e223997949aa8e7632763d,62bbfb36fb546d5885e76815,2022-06-29_09h16.32.659,Colour_Asymmetry_Pilot,2022.1.3,Win32,61.48927012,62bbe60bf3d75ef465d3e404,0,109,109,37,1,threefour,,,,,,,,,,,,,,,,,,,,,,,,,,,,,,,,,,,,,,,,,,,,,,,,,,,,,,,,,,,,,,,,,,,,,,,,,,,,,,,,,,,,,,,,,,,,,,,,,,,,,,,,,,,,,,,,,,,,,,,,,,,,,,,,,,,,,,,,,,,,,,,,,,,,,,,,
,,,,,,60e223997949aa8e7632763d,62bbfb36fb546d5885e76815,2022-06-29_09h16.32.659,Colour_Asymmetry_Pilot,2022.1.3,Win32,61.48927012,62bbe60bf3d75ef465d3e404,0,110,110,95,1,fourthree,,,,,,,,,,,,,,,,,,,,,,,,,,,,,,,,,,,,,,,,,,,,,,,,,,,,,,,,,,,,,,,,,,,,,,,,,,,,,,,,,,,,,,,,,,,,,,,,,,,,,,,,,,,,,,,,,,,,,,,,,,,,,,,,,,,,,,,,,,,,,,,,,,,,,,,,
,,,,,,60e223997949aa8e7632763d,62bbfb36fb546d5885e76815,2022-06-29_09h16.32.659,Colour_Asymmetry_Pilot,2022.1.3,Win32,61.48927012,62bbe60bf3d75ef465d3e404,0,111,111,119,1,fourthree,,,,,,,,,,,,,,,,,,,,,,,,,,,,,,,,,,,,,,,,,,,,,,,,,,,,,,,,,,,,,,,,,,,,,,,,,,,,,,,,,,,,,,,,,,,,,,,,,,,,,,,,,,,,,,,,,,,,,,,,,,,,,,,,,,,,,,,,,,,,,,,,,,,,,,,,
,,,,,,60e223997949aa8e7632763d,62bbfb36fb546d5885e76815,2022-06-29_09h16.32.659,Colour_Asymmetry_Pilot,2022.1.3,Win32,61.48927012,62bbe60bf3d75ef465d3e404,0,112,112,1,1,onethree,,,,,,,,,,,,,,,,,,,,,,,,,,,,,,,,,,,,,,,,,,,,,,,,,,,,,,,,,,,,,,,,,,,,,,,,,,,,,,,,,,,,,,,,,,,,,,,,,,,,,,,,,,,,,,,,,,,,,,,,,,,,,,,,,,,,,,,,,,,,,,,,,,,,,,,,
,,,,,,60e223997949aa8e7632763d,62bbfb36fb546d5885e76815,2022-06-29_09h16.32.659,Colour_Asymmetry_Pilot,2022.1.3,Win32,61.48927012,62bbe60bf3d75ef465d3e404,0,113,113,110,1,fourtwo,,,,,,,,,,,,,,,,,,,,,,,,,,,,,,,,,,,,,,,,,,,,,,,,,,,,,,,,,,,,,,,,,,,,,,,,,,,,,,,,,,,,,,,,,,,,,,,,,,,,,,,,,,,,,,,,,,,,,,,,,,,,,,,,,,,,,,,,,,,,,,,,,,,,,,,,
,,,,,,60e223997949aa8e7632763d,62bbfb36fb546d5885e76815,2022-06-29_09h16.32.659,Colour_Asymmetry_Pilot,2022.1.3,Win32,61.48927012,62bbe60bf3d75ef465d3e404,0,114,114,88,1,onetwo,,,,,,,,,,,,,,,,,,,,,,,,,,,,,,,,,,,,,,,,,,,,,,,,,,,,,,,,,,,,,,,,,,,,,,,,,,,,,,,,,,,,,,,,,,,,,,,,,,,,,,,,,,,,,,,,,,,,,,,,,,,,,,,,,,,,,,,,,,,,,,,,,,,,,,,,
,,,,,,60e223997949aa8e7632763d,62bbfb36fb546d5885e76815,2022-06-29_09h16.32.659,Colour_Asymmetry_Pilot,2022.1.3,Win32,61.48927012,62bbe60bf3d75ef465d3e404,0,115,115,84,1,threeone,,,,,,,,,,,,,,,,,,,,,,,,,,,,,,,,,,,,,,,,,,,,,,,,,,,,,,,,,,,,,,,,,,,,,,,,,,,,,,,,,,,,,,,,,,,,,,,,,,,,,,,,,,,,,,,,,,,,,,,,,,,,,,,,,,,,,,,,,,,,,,,,,,,,,,,,
,,,,,,60e223997949aa8e7632763d,62bbfb36fb546d5885e76815,2022-06-29_09h16.32.659,Colour_Asymmetry_Pilot,2022.1.3,Win32,61.48927012,62bbe60bf3d75ef465d3e404,0,116,116,92,1,threeone,,,,,,,,,,,,,,,,,,,,,,,,,,,,,,,,,,,,,,,,,,,,,,,,,,,,,,,,,,,,,,,,,,,,,,,,,,,,,,,,,,,,,,,,,,,,,,,,,,,,,,,,,,,,,,,,,,,,,,,,,,,,,,,,,,,,,,,,,,,,,,,,,,,,,,,,
,,,,,,60e223997949aa8e7632763d,62bbfb36fb546d5885e76815,2022-06-29_09h16.32.659,Colour_Asymmetry_Pilot,2022.1.3,Win32,61.48927012,62bbe60bf3d75ef465d3e404,0,117,117,109,1,threefour,,,,,,,,,,,,,,,,,,,,,,,,,,,,,,,,,,,,,,,,,,,,,,,,,,,,,,,,,,,,,,,,,,,,,,,,,,,,,,,,,,,,,,,,,,,,,,,,,,,,,,,,,,,,,,,,,,,,,,,,,,,,,,,,,,,,,,,,,,,,,,,,,,,,,,,,
,,,,,,60e223997949aa8e7632763d,62bbfb36fb546d5885e76815,2022-06-29_09h16.32.659,Colour_Asymmetry_Pilot,2022.1.3,Win32,61.48927012,62bbe60bf3d75ef465d3e404,0,118,118,70,1,fourtwo,,,,,,,,,,,,,,,,,,,,,,,,,,,,,,,,,,,,,,,,,,,,,,,,,,,,,,,,,,,,,,,,,,,,,,,,,,,,,,,,,,,,,,,,,,,,,,,,,,,,,,,,,,,,,,,,,,,,,,,,,,,,,,,,,,,,,,,,,,,,,,,,,,,,,,,,
,,,,,,60e223997949aa8e7632763d,62bbfb36fb546d5885e76815,2022-06-29_09h16.32.659,Colour_Asymmetry_Pilot,2022.1.3,Win32,61.48927012,62bbe60bf3d75ef465d3e404,0,119,119,49,1,onethree,,,,,,,,,,,,,,,,,,,,,,,,,,,,,,,,,,,,,,,,,,,,,,,,,,,,,,,,,,,,,,,,,,,,,,,,,,,,,,,,,,,,,,,,,,,,,,,,,,,,,,,,,,,,,,,,,,,,,,,,,,,,,,,,,,,,,,,,,,,,,,,,,,,,,,,,
,,,,,,60e223997949aa8e7632763d,62bbfb36fb546d5885e76815,2022-06-29_09h16.32.659,Colour_Asymmetry_Pilot,2022.1.3,Win32,61.48927012,62bbe60bf3d75ef465d3e404,0,120,120,21,1,threefour,,,,,,,,,,,,,,,,,,,,,,,,,,,,,,,,,,,,,,,,,,,,,,,,,,,,,,,,,,,,,,,,,,,,,,,,,,,,,,,,,,,,,,,,,,,,,,,,,,,,,,,,,,,,,,,,,,,,,,,,,,,,,,,,,,,,,,,,,,,,,,,,,,,,,,,,
,,,,,,60e223997949aa8e7632763d,62bbfb36fb546d5885e76815,2022-06-29_09h16.32.659,Colour_Asymmetry_Pilot,2022.1.3,Win32,61.48927012,62bbe60bf3d75ef465d3e404,0,121,121,24,1,onetwo,,,,,,,,,,,,,,,,,,,,,,,,,,,,,,,,,,,,,,,,,,,,,,,,,,,,,,,,,,,,,,,,,,,,,,,,,,,,,,,,,,,,,,,,,,,,,,,,,,,,,,,,,,,,,,,,,,,,,,,,,,,,,,,,,,,,,,,,,,,,,,,,,,,,,,,,
,,,,,,60e223997949aa8e7632763d,62bbfb36fb546d5885e76815,2022-06-29_09h16.32.659,Colour_Asymmetry_Pilot,2022.1.3,Win32,61.48927012,62bbe60bf3d75ef465d3e404,0,122,122,144,1,onetwo,,,,,,,,,,,,,,,,,,,,,,,,,,,,,,,,,,,,,,,,,,,,,,,,,,,,,,,,,,,,,,,,,,,,,,,,,,,,,,,,,,,,,,,,,,,,,,,,,,,,,,,,,,,,,,,,,,,,,,,,,,,,,,,,,,,,,,,,,,,,,,,,,,,,,,,,
,,,,,,60e223997949aa8e7632763d,62bbfb36fb546d5885e76815,2022-06-29_09h16.32.659,Colour_Asymmetry_Pilot,2022.1.3,Win32,61.48927012,62bbe60bf3d75ef465d3e404,0,123,123,56,1,onetwo,,,,,,,,,,,,,,,,,,,,,,,,,,,,,,,,,,,,,,,,,,,,,,,,,,,,,,,,,,,,,,,,,,,,,,,,,,,,,,,,,,,,,,,,,,,,,,,,,,,,,,,,,,,,,,,,,,,,,,,,,,,,,,,,,,,,,,,,,,,,,,,,,,,,,,,,
,,,,,,60e223997949aa8e7632763d,62bbfb36fb546d5885e76815,2022-06-29_09h16.32.659,Colour_Asymmetry_Pilot,2022.1.3,Win32,61.48927012,62bbe60bf3d75ef465d3e404,0,124,124,115,1,twofour,,,,,,,,,,,,,,,,,,,,,,,,,,,,,,,,,,,,,,,,,,,,,,,,,,,,,,,,,,,,,,,,,,,,,,,,,,,,,,,,,,,,,,,,,,,,,,,,,,,,,,,,,,,,,,,,,,,,,,,,,,,,,,,,,,,,,,,,,,,,,,,,,,,,,,,,
,,,,,,60e223997949aa8e7632763d,62bbfb36fb546d5885e76815,2022-06-29_09h16.32.659,Colour_Asymmetry_Pilot,2022.1.3,Win32,61.48927012,62bbe60bf3d75ef465d3e404,0,125,125,43,1,twofour,,,,,,,,,,,,,,,,,,,,,,,,,,,,,,,,,,,,,,,,,,,,,,,,,,,,,,,,,,,,,,,,,,,,,,,,,,,,,,,,,,,,,,,,,,,,,,,,,,,,,,,,,,,,,,,,,,,,,,,,,,,,,,,,,,,,,,,,,,,,,,,,,,,,,,,,
,,,,,,60e223997949aa8e7632763d,62bbfb36fb546d5885e76815,2022-06-29_09h16.32.659,Colour_Asymmetry_Pilot,2022.1.3,Win32,61.48927012,62bbe60bf3d75ef465d3e404,0,126,126,129,1,onethree,,,,,,,,,,,,,,,,,,,,,,,,,,,,,,,,,,,,,,,,,,,,,,,,,,,,,,,,,,,,,,,,,,,,,,,,,,,,,,,,,,,,,,,,,,,,,,,,,,,,,,,,,,,,,,,,,,,,,,,,,,,,,,,,,,,,,,,,,,,,,,,,,,,,,,,,
,,,,,,60e223997949aa8e7632763d,62bbfb36fb546d5885e76815,2022-06-29_09h16.32.659,Colour_Asymmetry_Pilot,2022.1.3,Win32,61.48927012,62bbe60bf3d75ef465d3e404,0,127,127,114,1,twoone,,,,,,,,,,,,,,,,,,,,,,,,,,,,,,,,,,,,,,,,,,,,,,,,,,,,,,,,,,,,,,,,,,,,,,,,,,,,,,,,,,,,,,,,,,,,,,,,,,,,,,,,,,,,,,,,,,,,,,,,,,,,,,,,,,,,,,,,,,,,,,,,,,,,,,,,
,,,,,,60e223997949aa8e7632763d,62bbfb36fb546d5885e76815,2022-06-29_09h16.32.659,Colour_Asymmetry_Pilot,2022.1.3,Win32,61.48927012,62bbe60bf3d75ef465d3e404,0,128,128,28,1,threeone,,,,,,,,,,,,,,,,,,,,,,,,,,,,,,,,,,,,,,,,,,,,,,,,,,,,,,,,,,,,,,,,,,,,,,,,,,,,,,,,,,,,,,,,,,,,,,,,,,,,,,,,,,,,,,,,,,,,,,,,,,,,,,,,,,,,,,,,,,,,,,,,,,,,,,,,
,,,,,,60e223997949aa8e7632763d,62bbfb36fb546d5885e76815,2022-06-29_09h16.32.659,Colour_Asymmetry_Pilot,2022.1.3,Win32,61.48927012,62bbe60bf3d75ef465d3e404,0,129,129,9,1,onethree,,,,,,,,,,,,,,,,,,,,,,,,,,,,,,,,,,,,,,,,,,,,,,,,,,,,,,,,,,,,,,,,,,,,,,,,,,,,,,,,,,,,,,,,,,,,,,,,,,,,,,,,,,,,,,,,,,,,,,,,,,,,,,,,,,,,,,,,,,,,,,,,,,,,,,,,
,,,,,,60e223997949aa8e7632763d,62bbfb36fb546d5885e76815,2022-06-29_09h16.32.659,Colour_Asymmetry_Pilot,2022.1.3,Win32,61.48927012,62bbe60bf3d75ef465d3e404,0,130,130,125,1,threefour,,,,,,,,,,,,,,,,,,,,,,,,,,,,,,,,,,,,,,,,,,,,,,,,,,,,,,,,,,,,,,,,,,,,,,,,,,,,,,,,,,,,,,,,,,,,,,,,,,,,,,,,,,,,,,,,,,,,,,,,,,,,,,,,,,,,,,,,,,,,,,,,,,,,,,,,
,,,,,,60e223997949aa8e7632763d,62bbfb36fb546d5885e76815,2022-06-29_09h16.32.659,Colour_Asymmetry_Pilot,2022.1.3,Win32,61.48927012,62bbe60bf3d75ef465d3e404,0,131,131,39,1,fourthree,,,,,,,,,,,,,,,,,,,,,,,,,,,,,,,,,,,,,,,,,,,,,,,,,,,,,,,,,,,,,,,,,,,,,,,,,,,,,,,,,,,,,,,,,,,,,,,,,,,,,,,,,,,,,,,,,,,,,,,,,,,,,,,,,,,,,,,,,,,,,,,,,,,,,,,,
,,,,,,60e223997949aa8e7632763d,62bbfb36fb546d5885e76815,2022-06-29_09h16.32.659,Colour_Asymmetry_Pilot,2022.1.3,Win32,61.48927012,62bbe60bf3d75ef465d3e404,0,132,132,41,1,onethree,,,,,,,,,,,,,,,,,,,,,,,,,,,,,,,,,,,,,,,,,,,,,,,,,,,,,,,,,,,,,,,,,,,,,,,,,,,,,,,,,,,,,,,,,,,,,,,,,,,,,,,,,,,,,,,,,,,,,,,,,,,,,,,,,,,,,,,,,,,,,,,,,,,,,,,,
,,,,,,60e223997949aa8e7632763d,62bbfb36fb546d5885e76815,2022-06-29_09h16.32.659,Colour_Asymmetry_Pilot,2022.1.3,Win32,61.48927012,62bbe60bf3d75ef465d3e404,0,133,133,97,1,onethree,,,,,,,,,,,,,,,,,,,,,,,,,,,,,,,,,,,,,,,,,,,,,,,,,,,,,,,,,,,,,,,,,,,,,,,,,,,,,,,,,,,,,,,,,,,,,,,,,,,,,,,,,,,,,,,,,,,,,,,,,,,,,,,,,,,,,,,,,,,,,,,,,,,,,,,,
,,,,,,60e223997949aa8e7632763d,62bbfb36fb546d5885e76815,2022-06-29_09h16.32.659,Colour_Asymmetry_Pilot,2022.1.3,Win32,61.48927012,62bbe60bf3d75ef465d3e404,0,134,134,121,1,onethree,,,,,,,,,,,,,,,,,,,,,,,,,,,,,,,,,,,,,,,,,,,,,,,,,,,,,,,,,,,,,,,,,,,,,,,,,,,,,,,,,,,,,,,,,,,,,,,,,,,,,,,,,,,,,,,,,,,,,,,,,,,,,,,,,,,,,,,,,,,,,,,,,,,,,,,,
,,,,,,60e223997949aa8e7632763d,62bbfb36fb546d5885e76815,2022-06-29_09h16.32.659,Colour_Asymmetry_Pilot,2022.1.3,Win32,61.48927012,62bbe60bf3d75ef465d3e404,0,135,135,13,1,threefour,,,,,,,,,,,,,,,,,,,,,,,,,,,,,,,,,,,,,,,,,,,,,,,,,,,,,,,,,,,,,,,,,,,,,,,,,,,,,,,,,,,,,,,,,,,,,,,,,,,,,,,,,,,,,,,,,,,,,,,,,,,,,,,,,,,,,,,,,,,,,,,,,,,,,,,,
,,,,,,60e223997949aa8e7632763d,62bbfb36fb546d5885e76815,2022-06-29_09h16.32.659,Colour_Asymmetry_Pilot,2022.1.3,Win32,61.48927012,62bbe60bf3d75ef465d3e404,0,136,136,10,1,twoone,,,,,,,,,,,,,,,,,,,,,,,,,,,,,,,,,,,,,,,,,,,,,,,,,,,,,,,,,,,,,,,,,,,,,,,,,,,,,,,,,,,,,,,,,,,,,,,,,,,,,,,,,,,,,,,,,,,,,,,,,,,,,,,,,,,,,,,,,,,,,,,,,,,,,,,,
,,,,,,60e223997949aa8e7632763d,62bbfb36fb546d5885e76815,2022-06-29_09h16.32.659,Colour_Asymmetry_Pilot,2022.1.3,Win32,61.48927012,62bbe60bf3d75ef465d3e404,0,137,137,152,1,onetwo,,,,,,,,,,,,,,,,,,,,,,,,,,,,,,,,,,,,,,,,,,,,,,,,,,,,,,,,,,,,,,,,,,,,,,,,,,,,,,,,,,,,,,,,,,,,,,,,,,,,,,,,,,,,,,,,,,,,,,,,,,,,,,,,,,,,,,,,,,,,,,,,,,,,,,,,
,,,,,,60e223997949aa8e7632763d,62bbfb36fb546d5885e76815,2022-06-29_09h16.32.659,Colour_Asymmetry_Pilot,2022.1.3,Win32,61.48927012,62bbe60bf3d75ef465d3e404,0,138,138,3,1,twofour,,,,,,,,,,,,,,,,,,,,,,,,,,,,,,,,,,,,,,,,,,,,,,,,,,,,,,,,,,,,,,,,,,,,,,,,,,,,,,,,,,,,,,,,,,,,,,,,,,,,,,,,,,,,,,,,,,,,,,,,,,,,,,,,,,,,,,,,,,,,,,,,,,,,,,,,
,,,,,,60e223997949aa8e7632763d,62bbfb36fb546d5885e76815,2022-06-29_09h16.32.659,Colour_Asymmetry_Pilot,2022.1.3,Win32,61.48927012,62bbe60bf3d75ef465d3e404,0,139,139,62,1,fourtwo,,,,,,,,,,,,,,,,,,,,,,,,,,,,,,,,,,,,,,,,,,,,,,,,,,,,,,,,,,,,,,,,,,,,,,,,,,,,,,,,,,,,,,,,,,,,,,,,,,,,,,,,,,,,,,,,,,,,,,,,,,,,,,,,,,,,,,,,,,,,,,,,,,,,,,,,
,,,,,,60e223997949aa8e7632763d,62bbfb36fb546d5885e76815,2022-06-29_09h16.32.659,Colour_Asymmetry_Pilot,2022.1.3,Win32,61.48927012,62bbe60bf3d75ef465d3e404,0,140,140,137,1,onethree,,,,,,,,,,,,,,,,,,,,,,,,,,,,,,,,,,,,,,,,,,,,,,,,,,,,,,,,,,,,,,,,,,,,,,,,,,,,,,,,,,,,,,,,,,,,,,,,,,,,,,,,,,,,,,,,,,,,,,,,,,,,,,,,,,,,,,,,,,,,,,,,,,,,,,,,
,,,,,,60e223997949aa8e7632763d,62bbfb36fb546d5885e76815,2022-06-29_09h16.32.659,Colour_Asymmetry_Pilot,2022.1.3,Win32,61.48927012,62bbe60bf3d75ef465d3e404,0,141,141,45,1,threefour,,,,,,,,,,,,,,,,,,,,,,,,,,,,,,,,,,,,,,,,,,,,,,,,,,,,,,,,,,,,,,,,,,,,,,,,,,,,,,,,,,,,,,,,,,,,,,,,,,,,,,,,,,,,,,,,,,,,,,,,,,,,,,,,,,,,,,,,,,,,,,,,,,,,,,,,
,,,,,,60e223997949aa8e7632763d,62bbfb36fb546d5885e76815,2022-06-29_09h16.32.659,Colour_Asymmetry_Pilot,2022.1.3,Win32,61.48927012,62bbe60bf3d75ef465d3e404,0,142,142,117,1,threefour,,,,,,,,,,,,,,,,,,,,,,,,,,,,,,,,,,,,,,,,,,,,,,,,,,,,,,,,,,,,,,,,,,,,,,,,,,,,,,,,,,,,,,,,,,,,,,,,,,,,,,,,,,,,,,,,,,,,,,,,,,,,,,,,,,,,,,,,,,,,,,,,,,,,,,,,
,,,,,,60e223997949aa8e7632763d,62bbfb36fb546d5885e76815,2022-06-29_09h16.32.659,Colour_Asymmetry_Pilot,2022.1.3,Win32,61.48927012,62bbe60bf3d75ef465d3e404,0,143,143,116,1,threeone,,,,,,,,,,,,,,,,,,,,,,,,,,,,,,,,,,,,,,,,,,,,,,,,,,,,,,,,,,,,,,,,,,,,,,,,,,,,,,,,,,,,,,,,,,,,,,,,,,,,,,,,,,,,,,,,,,,,,,,,,,,,,,,,,,,,,,,,,,,,,,,,,,,,,,,,
,,,,,,60e223997949aa8e7632763d,62bbfb36fb546d5885e76815,2022-06-29_09h16.32.659,Colour_Asymmetry_Pilot,2022.1.3,Win32,61.48927012,62bbe60bf3d75ef465d3e404,0,144,144,142,1,fourtwo,,,,,,,,,,,,,,,,,,,,,,,,,,,,,,,,,,,,,,,,,,,,,,,,,,,,,,,,,,,,,,,,,,,,,,,,,,,,,,,,,,,,,,,,,,,,,,,,,,,,,,,,,,,,,,,,,,,,,,,,,,,,,,,,,,,,,,,,,,,,,,,,,,,,,,,,
,,,,,,60e223997949aa8e7632763d,62bbfb36fb546d5885e76815,2022-06-29_09h16.32.659,Colour_Asymmetry_Pilot,2022.1.3,Win32,61.48927012,62bbe60bf3d75ef465d3e404,0,145,145,85,1,threefour,,,,,,,,,,,,,,,,,,,,,,,,,,,,,,,,,,,,,,,,,,,,,,,,,,,,,,,,,,,,,,,,,,,,,,,,,,,,,,,,,,,,,,,,,,,,,,,,,,,,,,,,,,,,,,,,,,,,,,,,,,,,,,,,,,,,,,,,,,,,,,,,,,,,,,,,
,,,,,,60e223997949aa8e7632763d,62bbfb36fb546d5885e76815,2022-06-29_09h16.32.659,Colour_Asymmetry_Pilot,2022.1.3,Win32,61.48927012,62bbe60bf3d75ef465d3e404,0,146,146,31,1,fourthree,,,,,,,,,,,,,,,,,,,,,,,,,,,,,,,,,,,,,,,,,,,,,,,,,,,,,,,,,,,,,,,,,,,,,,,,,,,,,,,,,,,,,,,,,,,,,,,,,,,,,,,,,,,,,,,,,,,,,,,,,,,,,,,,,,,,,,,,,,,,,,,,,,,,,,,,
,,,,,,60e223997949aa8e7632763d,62bbfb36fb546d5885e76815,2022-06-29_09h16.32.659,Colour_Asymmetry_Pilot,2022.1.3,Win32,61.48927012,62bbe60bf3d75ef465d3e404,0,147,147,81,1,onethree,,,,,,,,,,,,,,,,,,,,,,,,,,,,,,,,,,,,,,,,,,,,,,,,,,,,,,,,,,,,,,,,,,,,,,,,,,,,,,,,,,,,,,,,,,,,,,,,,,,,,,,,,,,,,,,,,,,,,,,,,,,,,,,,,,,,,,,,,,,,,,,,,,,,,,,,
,,,,,,60e223997949aa8e7632763d,62bbfb36fb546d5885e76815,2022-06-29_09h16.32.659,Colour_Asymmetry_Pilot,2022.1.3,Win32,61.48927012,62bbe60bf3d75ef465d3e404,0,148,148,93,1,threefour,,,,,,,,,,,,,,,,,,,,,,,,,,,,,,,,,,,,,,,,,,,,,,,,,,,,,,,,,,,,,,,,,,,,,,,,,,,,,,,,,,,,,,,,,,,,,,,,,,,,,,,,,,,,,,,,,,,,,,,,,,,,,,,,,,,,,,,,,,,,,,,,,,,,,,,,
,,,,,,60e223997949aa8e7632763d,62bbfb36fb546d5885e76815,2022-06-29_09h16.32.659,Colour_Asymmetry_Pilot,2022.1.3,Win32,61.48927012,62bbe60bf3d75ef465d3e404,0,149,149,55,1,fourthree,,,,,,,,,,,,,,,,,,,,,,,,,,,,,,,,,,,,,,,,,,,,,,,,,,,,,,,,,,,,,,,,,,,,,,,,,,,,,,,,,,,,,,,,,,,,,,,,,,,,,,,,,,,,,,,,,,,,,,,,,,,,,,,,,,,,,,,,,,,,,,,,,,,,,,,,
,,,,,,60e223997949aa8e7632763d,62bbfb36fb546d5885e76815,2022-06-29_09h16.32.659,Colour_Asymmetry_Pilot,2022.1.3,Win32,61.48927012,62bbe60bf3d75ef465d3e404,0,150,150,19,1,twofour,,,,,,,,,,,,,,,,,,,,,,,,,,,,,,,,,,,,,,,,,,,,,,,,,,,,,,,,,,,,,,,,,,,,,,,,,,,,,,,,,,,,,,,,,,,,,,,,,,,,,,,,,,,,,,,,,,,,,,,,,,,,,,,,,,,,,,,,,,,,,,,,,,,,,,,,
,,,,,,60e223997949aa8e7632763d,62bbfb36fb546d5885e76815,2022-06-29_09h16.32.659,Colour_Asymmetry_Pilot,2022.1.3,Win32,61.48927012,62bbe60bf3d75ef465d3e404,0,151,151,91,1,twofour,,,,,,,,,,,,,,,,,,,,,,,,,,,,,,,,,,,,,,,,,,,,,,,,,,,,,,,,,,,,,,,,,,,,,,,,,,,,,,,,,,,,,,,,,,,,,,,,,,,,,,,,,,,,,,,,,,,,,,,,,,,,,,,,,,,,,,,,,,,,,,,,,,,,,,,,
,,,,,,60e223997949aa8e7632763d,62bbfb36fb546d5885e76815,2022-06-29_09h16.32.659,Colour_Asymmetry_Pilot,2022.1.3,Win32,61.48927012,62bbe60bf3d75ef465d3e404,0,152,152,141,1,threefour,,,,,,,,,,,,,,,,,,,,,,,,,,,,,,,,,,,,,,,,,,,,,,,,,,,,,,,,,,,,,,,,,,,,,,,,,,,,,,,,,,,,,,,,,,,,,,,,,,,,,,,,,,,,,,,,,,,,,,,,,,,,,,,,,,,,,,,,,,,,,,,,,,,,,,,,
,,,,,,60e223997949aa8e7632763d,62bbfb36fb546d5885e76815,2022-06-29_09h16.32.659,Colour_Asymmetry_Pilot,2022.1.3,Win32,61.48927012,62bbe60bf3d75ef465d3e404,0,153,153,106,1,twoone,,,,,,,,,,,,,,,,,,,,,,,,,,,,,,,,,,,,,,,,,,,,,,,,,,,,,,,,,,,,,,,,,,,,,,,,,,,,,,,,,,,,,,,,,,,,,,,,,,,,,,,,,,,,,,,,,,,,,,,,,,,,,,,,,,,,,,,,,,,,,,,,,,,,,,,,
,,,,,,60e223997949aa8e7632763d,62bbfb36fb546d5885e76815,2022-06-29_09h16.32.659,Colour_Asymmetry_Pilot,2022.1.3,Win32,61.48927012,62bbe60bf3d75ef465d3e404,0,154,154,8,1,onetwo,,,,,,,,,,,,,,,,,,,,,,,,,,,,,,,,,,,,,,,,,,,,,,,,,,,,,,,,,,,,,,,,,,,,,,,,,,,,,,,,,,,,,,,,,,,,,,,,,,,,,,,,,,,,,,,,,,,,,,,,,,,,,,,,,,,,,,,,,,,,,,,,,,,,,,,,
,,,,,,60e223997949aa8e7632763d,62bbfb36fb546d5885e76815,2022-06-29_09h16.32.659,Colour_Asymmetry_Pilot,2022.1.3,Win32,61.48927012,62bbe60bf3d75ef465d3e404,0,155,155,139,1,twofour,,,,,,,,,,,,,,,,,,,,,,,,,,,,,,,,,,,,,,,,,,,,,,,,,,,,,,,,,,,,,,,,,,,,,,,,,,,,,,,,,,,,,,,,,,,,,,,,,,,,,,,,,,,,,,,,,,,,,,,,,,,,,,,,,,,,,,,,,,,,,,,,,,,,,,,,
,,,,,,60e223997949aa8e7632763d,62bbfb36fb546d5885e76815,2022-06-29_09h16.32.659,Colour_Asymmetry_Pilot,2022.1.3,Win32,61.48927012,62bbe60bf3d75ef465d3e404,0,156,156,18,1,twoone,,,,,,,,,,,,,,,,,,,,,,,,,,,,,,,,,,,,,,,,,,,,,,,,,,,,,,,,,,,,,,,,,,,,,,,,,,,,,,,,,,,,,,,,,,,,,,,,,,,,,,,,,,,,,,,,,,,,,,,,,,,,,,,,,,,,,,,,,,,,,,,,,,,,,,,,
,,,,,,60e223997949aa8e7632763d,62bbfb36fb546d5885e76815,2022-06-29_09h16.32.659,Colour_Asymmetry_Pilot,2022.1.3,Win32,61.48927012,62bbe60bf3d75ef465d3e404,0,157,157,58,1,twoone,,,,,,,,,,,,,,,,,,,,,,,,,,,,,,,,,,,,,,,,,,,,,,,,,,,,,,,,,,,,,,,,,,,,,,,,,,,,,,,,,,,,,,,,,,,,,,,,,,,,,,,,,,,,,,,,,,,,,,,,,,,,,,,,,,,,,,,,,,,,,,,,,,,,,,,,
,,,,,,60e223997949aa8e7632763d,62bbfb36fb546d5885e76815,2022-06-29_09h16.32.659,Colour_Asymmetry_Pilot,2022.1.3,Win32,61.48927012,62bbe60bf3d75ef465d3e404,0,158,158,130,1,twoone,,,,,,,,,,,,,,,,,,,,,,,,,,,,,,,,,,,,,,,,,,,,,,,,,,,,,,,,,,,,,,,,,,,,,,,,,,,,,,,,,,,,,,,,,,,,,,,,,,,,,,,,,,,,,,,,,,,,,,,,,,,,,,,,,,,,,,,,,,,,,,,,,,,,,,,,
,,,,,,60e223997949aa8e7632763d,62bbfb36fb546d5885e76815,2022-06-29_09h16.32.659,Colour_Asymmetry_Pilot,2022.1.3,Win32,61.48927012,62bbe60bf3d75ef465d3e404,0,159,159,67,1,twofour,,,,,,,,,,,,,,,,,,,,,,,,,,,,,,,,,,,,,,,,,,,,,,,,,,,,,,,,,,,,,,,,,,,,,,,,,,,,,,,,,,,,,,,,,,,,,,,,,,,,,,,,,,,,,,,,,,,,,,,,,,,,,,,,,,,,,,,,,,,,,,,,,,,,,,,,
,,,,,,60e223997949aa8e7632763d,62bbfb36fb546d5885e76815,2022-06-29_09h16.32.659,Colour_Asymmetry_Pilot,2022.1.3,Win32,61.48927012,62bbe60bf3d75ef465d3e404,0,160,160,23,1,fourthree,,,,,,,,,,,,,,,,,,,,,,,,,,,,,,,,,,,,,,,,,,,,,,,,,,,,,,,,,,,,,,,,,,,,,,,,,,,,,,,,,,,,,,,,,,,,,,,,,,,,,,,,,,,,,,,,,,,,,,,,,,,,,,,,,,,,,,,,,,,,,,,,,,,,,,,,
,,,,,,60e223997949aa8e7632763d,62bbfb36fb546d5885e76815,2022-06-29_09h16.32.659,Colour_Asymmetry_Pilot,2022.1.3,Win32,61.48927012,62bbe60bf3d75ef465d3e404,0,161,161,57,1,onethree,,,,,,,,,,,,,,,,,,,,,,,,,,,,,,,,,,,,,,,,,,,,,,,,,,,,,,,,,,,,,,,,,,,,,,,,,,,,,,,,,,,,,,,,,,,,,,,,,,,,,,,,,,,,,,,,,,,,,,,,,,,,,,,,,,,,,,,,,,,,,,,,,,,,,,,,
,,,,,,60e223997949aa8e7632763d,62bbfb36fb546d5885e76815,2022-06-29_09h16.32.659,Colour_Asymmetry_Pilot,2022.1.3,Win32,61.48927012,62bbe60bf3d75ef465d3e404,,,,,,,space,8.3558,space,37.4278,space,44.0857,space,37.5834,space,3.0751,space,6.003,"[-0.6235999999999999,-0.6786,-0.08239999999999992]",twoone,"[0.9372,0.9450000000000001,0.8980000000000001]",4,18.635,39,98,1,0,0,response1disk_5,10,0,1,0,0,rectangle_8,10,0,1,0,0,1,10,0,1,0,0,0,0,0,0,1,,,,,,,,,,,,,,,,,,,,,,,,,,,,,,,,,,,,,,,,,,,,,,,,,,,,,,,,,,,,,,,,,,,,,,,,,,,,,,,,,,,,,,,,,,,,,,,,,,,,,,,,,,,
,,,,,,60e223997949aa8e7632763d,62bbfb36fb546d5885e76815,2022-06-29_09h16.32.659,Colour_Asymmetry_Pilot,2022.1.3,Win32,61.48927012,62bbe60bf3d75ef465d3e404,,,,,,,,,,,,,,,,,,,"[0.40379999999999994,0.09000000000000008,0.44300000000000006]",threefour,"[0.6547999999999998,-0.043199999999999905,-0.011800000000000033]",-4,8.984,-37,72,1,0,0,response7disk_5,-21,-3,1,0,0,rectangle_8,-21,-3,1,0,0,1,-21,-3,1,0,0,1,0,1,0,1,,,,,,,,,,,,,,,,,,,,,,,,,,,,,,,,,,,,,,,,,,,,,,,,,,,,,,,,,,,,,,,,,,,,,,,,,,,,,,,,,,,,,,,,,,,,,,,,,,,,,,,,,,,
,,,,,,60e223997949aa8e7632763d,62bbfb36fb546d5885e76815,2022-06-29_09h16.32.659,Colour_Asymmetry_Pilot,2022.1.3,Win32,61.48927012,62bbe60bf3d75ef465d3e404,,,,,,,,,,,,,,,,,,,"[-0.6235999999999999,-0.6786,-0.08239999999999992]",onetwo,"[0.40379999999999994,0.09000000000000008,0.44300000000000006]",-4,12.1504,-40,79,1,0,0,response7disk_5,0,1,1,0,0,rectangle_8,43,-92,1,0,0,1,-1,-3,1,0,0,2,0,2,0,1,response3disk_7,4,rectangle_4,,,,,,,,,,,,,,,,,,,,,,,,,,,,,,,,,,,,,,,,,,,,,,,,,,,,,,,,,,,,,,,,,,,,,,,,,,,,,,,,,,,,,,,,,,,,,,,,,,,,,,,,
,,,,,,60e223997949aa8e7632763d,62bbfb36fb546d5885e76815,2022-06-29_09h16.32.659,Colour_Asymmetry_Pilot,2022.1.3,Win32,61.48927012,62bbe60bf3d75ef465d3e404,,,,,,,,,,,,,,,,,,,"[0.30180000000000007,-0.7884,-0.9844]",twoone,"[-0.24719999999999998,0.5213999999999999,-0.12959999999999994]",-4,3.1496,-26,93,1,0,0,response7disk_5,-9,4,1,0,0,rectangle_8,-9,4,1,0,0,1,-9,4,1,0,0,3,0,3,0,1,,,,,,,,,,,,,,,,,,,,,,,,,,,,,,,,,,,,,,,,,,,,,,,,,,,,,,,,,,,,,,,,,,,,,,,,,,,,,,,,,,,,,,,,,,,,,,,,,,,,,,,,,,,
,,,,,,60e223997949aa8e7632763d,62bbfb36fb546d5885e76815,2022-06-29_09h16.32.659,Colour_Asymmetry_Pilot,2022.1.3,Win32,61.48927012,62bbe60bf3d75ef465d3e404,,,,,,,,,,,,,,,,,,,"[0.23120000000000007,-0.7726,-0.34120000000000006]",threefour,"[-0.9688,-0.7412000000000001,-0.4902000000000001]",-4,2.0838,-40,91,1,0,0,response7disk_5,-8,2,1,0,0,rectangle_8,-8,2,1,0,0,1,-8,2,1,0,0,4,0,4,0,1,,,,,,,,,,,,,,,,,,,,,,,,,,,,,,,,,,,,,,,,,,,,,,,,,,,,,,,,,,,,,,,,,,,,,,,,,,,,,,,,,,,,,,,,,,,,,,,,,,,,,,,,,,,
,,,,,,60e223997949aa8e7632763d,62bbfb36fb546d5885e76815,2022-06-29_09h16.32.659,Colour_Asymmetry_Pilot,2022.1.3,Win32,61.48927012,62bbe60bf3d75ef465d3e404,,,,,,,,,,,,,,,,,,,"[0.3802000000000001,0.19199999999999995,-0.6394]",twofour,"[0.7176,-0.906,-0.6864]",-4,2.1005,-56,92,1,0,0,response7disk_5,11,-5,1,0,0,rectangle_8,11,-5,1,0,0,1,11,-5,1,0,0,5,0,5,0,1,,,,,,,,,,,,,,,,,,,,,,,,,,,,,,,,,,,,,,,,,,,,,,,,,,,,,,,,,,,,,,,,,,,,,,,,,,,,,,,,,,,,,,,,,,,,,,,,,,,,,,,,,,,
,,,,,,60e223997949aa8e7632763d,62bbfb36fb546d5885e76815,2022-06-29_09h16.32.659,Colour_Asymmetry_Pilot,2022.1.3,Win32,61.48927012,62bbe60bf3d75ef465d3e404,,,,,,,,,,,,,,,,,,,"[-0.9688,-0.38039999999999996,-0.41979999999999995]",fourtwo,"[0.18419999999999992,-0.4276,-0.404]",-4,1.75,-37,78,1,0,0,response7disk_5,-7,8,1,0,0,rectangle_8,-7,8,1,0,0,1,-7,8,1,0,0,6,0,6,0,1,,,,,,,,,,,,,,,,,,,,,,,,,,,,,,,,,,,,,,,,,,,,,,,,,,,,,,,,,,,,,,,,,,,,,,,,,,,,,,,,,,,,,,,,,,,,,,,,,,,,,,,,,,,
,,,,,,60e223997949aa8e7632763d,62bbfb36fb546d5885e76815,2022-06-29_09h16.32.659,Colour_Asymmetry_Pilot,2022.1.3,Win32,61.48927012,62bbe60bf3d75ef465d3e404,,,,,,,,,,,,,,,,,,,,threeone,,-4,3.3844,,,,,,,,,,,,,,,,,,,,,,,,,,,,,,,,space,5.1864,"[-0.9138,-0.5296000000000001,-0.5529999999999999]","[0.18419999999999992,-0.4276,-0.404]",-32,82,1,0,0,response7disk,3,5,1,0,0,rectangle,103,40,1,0,0,response1disk_3,3,3,6.1515,1,11,7,1,0,0,rectangle,0,0,0,55,1,55,first,,,,,,,,,,,,,,,,,,,,,,,,,,,,,,,,,,,,,,,,,,,,,,,,,,,,,,,,,,,,,,,,,
,,,,,,60e223997949aa8e7632763d,62bbfb36fb546d5885e76815,2022-06-29_09h16.32.659,Colour_Asymmetry_Pilot,2022.1.3,Win32,61.48927012,62bbe60bf3d75ef465d3e404,,,,,,,,,,,,,,,,,,,,onetwo,,-4,3.3496,,,,,,,,,,,,,,,,,,,,,,,,,,,,,,,,,,"[-0.24719999999999998,-0.0354000000000001,0.3175999999999999]","[0.6547999999999998,-0.043199999999999905,-0.011800000000000033]",-36,77,1,0,0,response7disk,2,0,1,0,0,rectangle,104,-34,1,0,0,response3disk_3,2,2,3.466,1,-3,3,1,0,0,rectangle,0,1,1,159,1,78,second,,,,,,,,,,,,,,,,,,,,,,,,,,,,,,,,,,,,,,,,,,,,,,,,,,,,,,,,,,,,,,,,,
,,,,,,60e223997949aa8e7632763d,62bbfb36fb546d5885e76815,2022-06-29_09h16.32.659,Colour_Asymmetry_Pilot,2022.1.3,Win32,61.48927012,62bbe60bf3d75ef465d3e404,,,,,,,,,,,,,,,,,,,,onetwo,,-4,3.7838,,,,,,,,,,,,,,,,,,,,,,,,,,,,,,,,,,"[-0.9216,-0.5529999999999999,-0.3962]","[0.37240000000000006,0.4980000000000002,-0.2864]",-48,94,1,0,0,response7disk,-5,-1,1,0,0,rectangle,-5,-1,1,0,0,,2,2,1E-04,0,-5,-1,1,0,0,,0,2,2,63,1,63,first,,,,,,,,,,,,,,,,,,,,,,,,,,,,,,,,,,,,,,,,,,,,,,,,,,,,,,,,,,,,,,,,,
,,,,,,60e223997949aa8e7632763d,62bbfb36fb546d5885e76815,2022-06-29_09h16.32.659,Colour_Asymmetry_Pilot,2022.1.3,Win32,61.48927012,62bbe60bf3d75ef465d3e404,,,,,,,,,,,,,,,,,,,,onetwo,,-4,1.2996,,,,,,,,,,,,,,,,,,,,,,,,,,,,,,,,,,"[-0.6706000000000001,-0.6157999999999999,-0.6786]","[-0.9296,-0.12959999999999994,-0.043199999999999905]",-52,86,1,0,0,response7disk,-4,-5,1,0,0,rectangle,104,47,1,0,0,response1disk_3,3,3,4.1477,1,16,-1,1,0,0,rectangle,0,3,3,160,1,79,second,,,,,,,,,,,,,,,,,,,,,,,,,,,,,,,,,,,,,,,,,,,,,,,,,,,,,,,,,,,,,,,,,
,,,,,,60e223997949aa8e7632763d,62bbfb36fb546d5885e76815,2022-06-29_09h16.32.659,Colour_Asymmetry_Pilot,2022.1.3,Win32,61.48927012,62bbe60bf3d75ef465d3e404,,,,,,,,,,,,,,,,,,,,threeone,,-4,1.4665,,,,,,,,,,,,,,,,,,,,,,,,,,,,,,,,,,"[0.23120000000000007,-0.7726,-0.34120000000000006]","[0.8274000000000001,-0.5844,-0.9452]",-29,78,1,0,0,response7disk,-1,-7,1,0,0,rectangle,-1,-7,1,0,0,,3,3,0.0002,0,-1,-7,1,0,0,,0,4,4,12,1,12,first,,,,,,,,,,,,,,,,,,,,,,,,,,,,,,,,,,,,,,,,,,,,,,,,,,,,,,,,,,,,,,,,,
,,,,,,60e223997949aa8e7632763d,62bbfb36fb546d5885e76815,2022-06-29_09h16.32.659,Colour_Asymmetry_Pilot,2022.1.3,Win32,61.48927012,62bbe60bf3d75ef465d3e404,,,,,,,,,,,,,,,,,,,,threefour,,-4,2.0333,,,,,,,,,,,,,,,,,,,,,,,,,,,,,,,,,,"[0.796,0.2156,-0.27859999999999996]","[-0.10599999999999998,-0.15300000000000002,0.15280000000000005]",-57,99,1,0,0,response7disk,-6,4,1,0,0,rectangle,-6,4,1,0,0,,3,3,0.0002,0,-6,4,1,0,0,,0,5,5,133,1,52,second,,,,,,,,,,,,,,,,,,,,,,,,,,,,,,,,,,,,,,,,,,,,,,,,,,,,,,,,,,,,,,,,,
,,,,,,60e223997949aa8e7632763d,62bbfb36fb546d5885e76815,2022-06-29_09h16.32.659,Colour_Asymmetry_Pilot,2022.1.3,Win32,61.48927012,62bbe60bf3d75ef465d3e404,,,,,,,,,,,,,,,,,,,,fourthree,,-4,1.5996,,,,,,,,,,,,,,,,,,,,,,,,,,,,,,,,,,"[-0.9688,-0.4902000000000001,-0.12159999999999993]","[0.37240000000000006,-0.050999999999999934,-0.5216]",-41,82,1,0,0,response7disk,9,-6,1,0,0,rectangle,9,-6,1,0,0,,3,3,0,0,9,-6,1,0,0,,0,6,6,71,1,71,first,,,,,,,,,,,,,,,,,,,,,,,,,,,,,,,,,,,,,,,,,,,,,,,,,,,,,,,,,,,,,,,,,
,,,,,,60e223997949aa8e7632763d,62bbfb36fb546d5885e76815,2022-06-29_09h16.32.659,Colour_Asymmetry_Pilot,2022.1.3,Win32,61.48927012,62bbe60bf3d75ef465d3e404,,,,,,,,,,,,,,,,,,,,threeone,,-4,0.9335,,,,,,,,,,,,,,,,,,,,,,,,,,,,,,,,,,"[0.9763999999999999,0.8588,-0.05900000000000005]","[0.7018,0.7176,0.6155999999999999]",-53,83,1,0,0,response7disk,-10,-4,1,0,0,rectangle,-10,-4,1,0,0,,3,2,0.0007,0,-10,-4,1,0,0,,0,7,7,156,1,75,second,,,,,,,,,,,,,,,,,,,,,,,,,,,,,,,,,,,,,,,,,,,,,,,,,,,,,,,,,,,,,,,,,
,,,,,,60e223997949aa8e7632763d,62bbfb36fb546d5885e76815,2022-06-29_09h16.32.659,Colour_Asymmetry_Pilot,2022.1.3,Win32,61.48927012,62bbe60bf3d75ef465d3e404,,,,,,,,,,,,,,,,,,,,onetwo,,-4,0.9502,,,,,,,,,,,,,,,,,,,,,,,,,,,,,,,,,,"[0.19199999999999995,0.18419999999999992,0.5136000000000001]","[-0.5452,-0.608,0.2470000000000001]",-43,84,1,0,0,response7disk,-19,13,1,0,0,rectangle,-19,13,1,0,0,,3,2,0.0001,0,-19,13,1,0,0,,0,8,8,111,1,30,second,,,,,,,,,,,,,,,,,,,,,,,,,,,,,,,,,,,,,,,,,,,,,,,,,,,,,,,,,,,,,,,,,
,,,,,,60e223997949aa8e7632763d,62bbfb36fb546d5885e76815,2022-06-29_09h16.32.659,Colour_Asymmetry_Pilot,2022.1.3,Win32,61.48927012,62bbe60bf3d75ef465d3e404,,,,,,,,,,,,,,,,,,,,threeone,,-4,5.1332,,,,,,,,,,,,,,,,,,,,,,,,,,,,,,,,,,"[-0.5452,-0.608,0.2470000000000001]","[-0.48240000000000005,0.3175999999999999,0.2156]",-36,83,1,0,0,response7disk,-3,4,1,0,0,rectangle,-3,4,1,0,0,,3,2,0.0002,0,-3,4,1,0,0,,0,9,9,67,1,67,first,,,,,,,,,,,,,,,,,,,,,,,,,,,,,,,,,,,,,,,,,,,,,,,,,,,,,,,,,,,,,,,,,
,,,,,,60e223997949aa8e7632763d,62bbfb36fb546d5885e76815,2022-06-29_09h16.32.659,Colour_Asymmetry_Pilot,2022.1.3,Win32,61.48927012,62bbe60bf3d75ef465d3e404,,,,,,,,,,,,,,,,,,,,twofour,,-4,3.6995,,,,,,,,,,,,,,,,,,,,,,,,,,,,,,,,,,"[-0.34920000000000007,-0.702,-0.5216]","[-0.0040000000000000036,0.02739999999999987,-0.08239999999999992]",-39,71,1,0,0,response7disk,-19,4,1,0,0,rectangle,-19,4,1,0,0,,3,1,0.0028,0,-19,4,1,0,0,,0,10,10,99,1,18,second,,,,,,,,,,,,,,,,,,,,,,,,,,,,,,,,,,,,,,,,,,,,,,,,,,,,,,,,,,,,,,,,,
,,,,,,60e223997949aa8e7632763d,62bbfb36fb546d5885e76815,2022-06-29_09h16.32.659,Colour_Asymmetry_Pilot,2022.1.3,Win32,61.48927012,62bbe60bf3d75ef465d3e404,,,,,,,,,,,,,,,,,,,,twoone,,-4,0.7331,,,,,,,,,,,,,,,,,,,,,,,,,,,,,,,,,,"[0.34099999999999997,0.12939999999999996,-0.9766]","[0.18419999999999992,-0.4276,-0.404]",-48,78,1,0,0,response7disk,-18,5,1,0,0,rectangle,-18,5,1,0,0,,3,1,0.0001,0,-18,5,1,0,0,,0,11,11,107,1,26,second,,,,,,,,,,,,,,,,,,,,,,,,,,,,,,,,,,,,,,,,,,,,,,,,,,,,,,,,,,,,,,,,,
,,,,,,60e223997949aa8e7632763d,62bbfb36fb546d5885e76815,2022-06-29_09h16.32.659,Colour_Asymmetry_Pilot,2022.1.3,Win32,61.48927012,62bbe60bf3d75ef465d3e404,,,,,,,,,,,,,,,,,,,,fourtwo,,-4,0.8,,,,,,,,,,,,,,,,,,,,,,,,,,,,,,,,,,"[0.3881999999999999,-0.23939999999999995,-0.05040000000000011]","[0.37240000000000006,0.4980000000000002,-0.2864]",-36,68,1,0,0,response7disk,-13,7,1,0,0,rectangle,-13,7,1,0,0,,3,2,0.0026,0,-13,7,1,0,0,,0,12,12,157,1,76,second,,,,,,,,,,,,,,,,,,,,,,,,,,,,,,,,,,,,,,,,,,,,,,,,,,,,,,,,,,,,,,,,,
,,,,,,60e223997949aa8e7632763d,62bbfb36fb546d5885e76815,2022-06-29_09h16.32.659,Colour_Asymmetry_Pilot,2022.1.3,Win32,61.48927012,62bbe60bf3d75ef465d3e404,,,,,,,,,,,,,,,,,,,,onethree,,-4,2.0671,,,,,,,,,,,,,,,,,,,,,,,,,,,,,,,,,,"[0.9763999999999999,0.8588,-0.05900000000000005]","[0.9763999999999999,-0.1137999999999999,-0.6314]",-49,101,1,0,0,response7disk,-11,5,1,0,0,rectangle,-11,5,1,0,0,,3,3,0.0028,0,-11,5,1,0,0,,0,13,13,138,1,57,second,,,,,,,,,,,,,,,,,,,,,,,,,,,,,,,,,,,,,,,,,,,,,,,,,,,,,,,,,,,,,,,,,
,,,,,,60e223997949aa8e7632763d,62bbfb36fb546d5885e76815,2022-06-29_09h16.32.659,Colour_Asymmetry_Pilot,2022.1.3,Win32,61.48927012,62bbe60bf3d75ef465d3e404,,,,,,,,,,,,,,,,,,,,fourtwo,,-4,1.1001,,,,,,,,,,,,,,,,,,,,,,,,,,,,,,,,,,"[-0.38039999999999996,-0.4276,-0.1452]","[-0.8118,-0.8198,-0.5452]",-41,65,1,0,0,response7disk,-16,3,1,0,0,rectangle,-16,3,1,0,0,,3,1,0.0034,0,-16,3,1,0,0,,0,14,14,118,1,37,second,,,,,,,,,,,,,,,,,,,,,,,,,,,,,,,,,,,,,,,,,,,,,,,,,,,,,,,,,,,,,,,,,
,,,,,,60e223997949aa8e7632763d,62bbfb36fb546d5885e76815,2022-06-29_09h16.32.659,Colour_Asymmetry_Pilot,2022.1.3,Win32,61.48927012,62bbe60bf3d75ef465d3e404,,,,,,,,,,,,,,,,,,,,twoone,,-4,12.7506,,,,,,,,,,,,,,,,,,,,,,,,,,,,,,,,,,"[0.9763999999999999,0.8588,-0.05900000000000005]","[0.9763999999999999,0.30979999999999985,-0.6786]",-47,77,1,0,0,response7disk,-11,4,1,0,0,rectangle,-11,4,1,0,0,,3,3,0.003,0,-11,4,1,0,0,,0,15,15,127,1,46,second,,,,,,,,,,,,,,,,,,,,,,,,,,,,,,,,,,,,,,,,,,,,,,,,,,,,,,,,,,,,,,,,,
,,,,,,60e223997949aa8e7632763d,62bbfb36fb546d5885e76815,2022-06-29_09h16.32.659,Colour_Asymmetry_Pilot,2022.1.3,Win32,61.48927012,62bbe60bf3d75ef465d3e404,,,,,,,,,,,,,,,,,,,,twofour,,-4,1.1826,,,,,,,,,,,,,,,,,,,,,,,,,,,,,,,,,,"[0.37240000000000006,0.4980000000000002,-0.2864]","[-0.9216,-0.5529999999999999,-0.3962]",-42,83,1,0,0,response7disk,-3,5,1,0,0,rectangle,-3,5,1,0,0,,3,3,0.0002,0,-3,5,1,0,0,,0,16,16,144,1,63,second,,,,,,,,,,,,,,,,,,,,,,,,,,,,,,,,,,,,,,,,,,,,,,,,,,,,,,,,,,,,,,,,,
,,,,,,60e223997949aa8e7632763d,62bbfb36fb546d5885e76815,2022-06-29_09h16.32.659,Colour_Asymmetry_Pilot,2022.1.3,Win32,61.48927012,62bbe60bf3d75ef465d3e404,,,,,,,,,,,,,,,,,,,,twoone,,-4,0.6835,,,,,,,,,,,,,,,,,,,,,,,,,,,,,,,,,,"[-0.20799999999999996,-0.655,-0.01980000000000004]","[0.34099999999999997,0.12939999999999996,-0.9766]",-40,75,1,0,0,response7disk,-6,-1,1,0,0,rectangle,-6,-1,1,0,0,,3,3,0.0002,0,-6,-1,1,0,0,,0,17,17,145,1,64,second,,,,,,,,,,,,,,,,,,,,,,,,,,,,,,,,,,,,,,,,,,,,,,,,,,,,,,,,,,,,,,,,,
,,,,,,60e223997949aa8e7632763d,62bbfb36fb546d5885e76815,2022-06-29_09h16.32.659,Colour_Asymmetry_Pilot,2022.1.3,Win32,61.48927012,62bbe60bf3d75ef465d3e404,,,,,,,,,,,,,,,,,,,,onetwo,,-4,0.6666,,,,,,,,,,,,,,,,,,,,,,,,,,,,,,,,,,"[0.8274000000000001,-0.5844,-0.9452]","[-0.38039999999999996,-0.4276,-0.1452]",-51,94,1,0,0,response7disk,-10,2,1,0,0,rectangle,-10,2,1,0,0,,3,3,0.0001,0,-10,2,1,0,0,,0,18,18,39,1,39,first,,,,,,,,,,,,,,,,,,,,,,,,,,,,,,,,,,,,,,,,,,,,,,,,,,,,,,,,,,,,,,,,,
,,,,,,60e223997949aa8e7632763d,62bbfb36fb546d5885e76815,2022-06-29_09h16.32.659,Colour_Asymmetry_Pilot,2022.1.3,Win32,61.48927012,62bbe60bf3d75ef465d3e404,,,,,,,,,,,,,,,,,,,,fourthree,,-4,0.6833,,,,,,,,,,,,,,,,,,,,,,,,,,,,,,,,,,"[0.40379999999999994,0.09000000000000008,0.44300000000000006]","[-0.09019999999999995,0.44300000000000006,0.5371999999999999]",-39,75,1,0,0,response7disk,-2,2,1,0,0,rectangle,-2,2,1,0,0,,3,1,0.0029,0,-2,2,1,0,0,,0,19,19,123,1,42,second,,,,,,,,,,,,,,,,,,,,,,,,,,,,,,,,,,,,,,,,,,,,,,,,,,,,,,,,,,,,,,,,,
,,,,,,60e223997949aa8e7632763d,62bbfb36fb546d5885e76815,2022-06-29_09h16.32.659,Colour_Asymmetry_Pilot,2022.1.3,Win32,61.48927012,62bbe60bf3d75ef465d3e404,,,,,,,,,,,,,,,,,,,,fourtwo,,4,0.8336,,,,,,,,,,,,,,,,,,,,,,,,,,,,,,,,,,"[-0.8118,-0.8198,-0.5452]","[-0.38039999999999996,-0.4276,-0.1452]",46,119,1,0,0,response1disk,9,-8,1,0,0,rectangle,9,-8,1,0,0,,3,3,0.0028,0,9,-8,1,0,0,,0,20,20,37,1,37,first,,,,,,,,,,,,,,,,,,,,,,,,,,,,,,,,,,,,,,,,,,,,,,,,,,,,,,,,,,,,,,,,,
