trials.thisRepN,trials.thisTrialN,trials.thisN,trials.thisIndex,trials.ran,Colourcodes,participant,session,date,expName,psychopyVersion,OS,frameRate,study_id,trials_4.thisRepN,trials_4.thisTrialN,trials_4.thisN,trials_4.thisIndex,trials_4.ran,StimulusPos,key_resp.keys,key_resp.rt,key_resp_2.keys,key_resp_2.rt,key_resp_15.keys,key_resp_15.rt,key_resp_17.keys,key_resp_17.rt,key_resp_9.keys,key_resp_9.rt,key_resp_10.keys,key_resp_10.rt,Circle1_col,Ecc,Circle2_col,similarity,response_time,mouse_5.x,mouse_5.y,mouse_5.leftButton,mouse_5.midButton,mouse_5.rightButton,mouse_5.clicked_name,mouse_10.x,mouse_10.y,mouse_10.leftButton,mouse_10.midButton,mouse_10.rightButton,mouse_10.clicked_name,mouse_7.x,mouse_7.y,mouse_7.leftButton,mouse_7.midButton,mouse_7.rightButton,catchnumberprac,mouse_6.x,mouse_6.y,mouse_6.leftButton,mouse_6.midButton,mouse_6.rightButton,duringprac.thisRepN,duringprac.thisTrialN,duringprac.thisN,duringprac.thisIndex,duringprac.ran,mouse_7.clicked_name,catchprac,mouse_6.clicked_name,key_resp_22.keys,key_resp_22.rt,Circle1_colour,Circle2_colour,mouse.x,mouse.y,mouse.leftButton,mouse.midButton,mouse.rightButton,mouse.clicked_name,mouse_2.x,mouse_2.y,mouse_2.leftButton,mouse_2.midButton,mouse_2.rightButton,mouse_2.clicked_name,mouse_3.x,mouse_3.y,mouse_3.leftButton,mouse_3.midButton,mouse_3.rightButton,catchresponse,catchnumber,response_time_catch,Catch,mouse_11.x,mouse_11.y,mouse_11.leftButton,mouse_11.midButton,mouse_11.rightButton,trials_2.thisRepN,trials_2.thisTrialN,trials_2.thisN,trials_2.thisIndex,trials_2.ran,Colourpair,Temporder,mouse_3.clicked_name,mouse_11.clicked_name,trials_3.thisRepN,trials_3.thisTrialN,trials_3.thisN,trials_3.thisIndex,trials_3.ran,key_resp_instr_Ishi.keys,key_resp_instr_Ishi.rt,Ishi_trial_keyresp.keys,Ishi_trial_keyresp.rt,Ishi_textbox.text,Ishi_loop.thisRepN,Ishi_loop.thisTrialN,Ishi_loop.thisN,Ishi_loop.thisIndex,Ishi_loop.ran,imageaddress,textbox.text,mouse_4.x,mouse_4.y,mouse_4.leftButton,mouse_4.midButton,mouse_4.rightButton,mouse_4.clicked_name,textbox_2.text,mouse_8.x,mouse_8.y,mouse_8.leftButton,mouse_8.midButton,mouse_8.rightButton,mouse_8.clicked_name,textbox_3.text,mouse_9.x,mouse_9.y,mouse_9.leftButton,mouse_9.midButton,mouse_9.rightButton,mouse_9.clicked_name,textbox_4.text,mouse_12.x,mouse_12.y,mouse_12.leftButton,mouse_12.midButton,mouse_12.rightButton,mouse_12.clicked_name,textbox_5.text,mouse_13.x,mouse_13.y,mouse_13.leftButton,mouse_13.midButton,mouse_13.rightButton,mouse_13.clicked_name,textbox_6.text,mouse_14.x,mouse_14.y,mouse_14.leftButton,mouse_14.midButton,mouse_14.rightButton,mouse_14.clicked_name,textbox_7.text,mouse_15.x,mouse_15.y,mouse_15.leftButton,mouse_15.midButton,mouse_15.rightButton,mouse_15.clicked_name
0,0,0,68,1,,613b0d65888b01ec158025d6,62bbfae8a1312631f49c517a,2022-06-29_09h14.08.671,Colour_Asymmetry_Pilot,2022.1.3,Win32,59.76929054,62bbe60bf3d75ef465d3e404,,,,,,,,,,,,,,,,,,,,,,,,,,,,,,,,,,,,,,,,,,,,,,,,,,,,,,,,,,,,,,,,,,,,,,,,,,,,,,,,,,,,,,,,,,,,,,,,,,,,,,,,,,,,,,,,,,,,,,,,,,,,,,,,,,,,,,,,,,,,,,,,,,,,,,,,,,,,,,
0,1,1,38,1,,613b0d65888b01ec158025d6,62bbfae8a1312631f49c517a,2022-06-29_09h14.08.671,Colour_Asymmetry_Pilot,2022.1.3,Win32,59.76929054,62bbe60bf3d75ef465d3e404,,,,,,,,,,,,,,,,,,,,,,,,,,,,,,,,,,,,,,,,,,,,,,,,,,,,,,,,,,,,,,,,,,,,,,,,,,,,,,,,,,,,,,,,,,,,,,,,,,,,,,,,,,,,,,,,,,,,,,,,,,,,,,,,,,,,,,,,,,,,,,,,,,,,,,,,,,,,,,
0,2,2,60,1,,613b0d65888b01ec158025d6,62bbfae8a1312631f49c517a,2022-06-29_09h14.08.671,Colour_Asymmetry_Pilot,2022.1.3,Win32,59.76929054,62bbe60bf3d75ef465d3e404,,,,,,,,,,,,,,,,,,,,,,,,,,,,,,,,,,,,,,,,,,,,,,,,,,,,,,,,,,,,,,,,,,,,,,,,,,,,,,,,,,,,,,,,,,,,,,,,,,,,,,,,,,,,,,,,,,,,,,,,,,,,,,,,,,,,,,,,,,,,,,,,,,,,,,,,,,,,,,
0,3,3,27,1,,613b0d65888b01ec158025d6,62bbfae8a1312631f49c517a,2022-06-29_09h14.08.671,Colour_Asymmetry_Pilot,2022.1.3,Win32,59.76929054,62bbe60bf3d75ef465d3e404,,,,,,,,,,,,,,,,,,,,,,,,,,,,,,,,,,,,,,,,,,,,,,,,,,,,,,,,,,,,,,,,,,,,,,,,,,,,,,,,,,,,,,,,,,,,,,,,,,,,,,,,,,,,,,,,,,,,,,,,,,,,,,,,,,,,,,,,,,,,,,,,,,,,,,,,,,,,,,
0,4,4,10,1,,613b0d65888b01ec158025d6,62bbfae8a1312631f49c517a,2022-06-29_09h14.08.671,Colour_Asymmetry_Pilot,2022.1.3,Win32,59.76929054,62bbe60bf3d75ef465d3e404,,,,,,,,,,,,,,,,,,,,,,,,,,,,,,,,,,,,,,,,,,,,,,,,,,,,,,,,,,,,,,,,,,,,,,,,,,,,,,,,,,,,,,,,,,,,,,,,,,,,,,,,,,,,,,,,,,,,,,,,,,,,,,,,,,,,,,,,,,,,,,,,,,,,,,,,,,,,,,
0,5,5,89,1,,613b0d65888b01ec158025d6,62bbfae8a1312631f49c517a,2022-06-29_09h14.08.671,Colour_Asymmetry_Pilot,2022.1.3,Win32,59.76929054,62bbe60bf3d75ef465d3e404,,,,,,,,,,,,,,,,,,,,,,,,,,,,,,,,,,,,,,,,,,,,,,,,,,,,,,,,,,,,,,,,,,,,,,,,,,,,,,,,,,,,,,,,,,,,,,,,,,,,,,,,,,,,,,,,,,,,,,,,,,,,,,,,,,,,,,,,,,,,,,,,,,,,,,,,,,,,,,
0,6,6,34,1,,613b0d65888b01ec158025d6,62bbfae8a1312631f49c517a,2022-06-29_09h14.08.671,Colour_Asymmetry_Pilot,2022.1.3,Win32,59.76929054,62bbe60bf3d75ef465d3e404,,,,,,,,,,,,,,,,,,,,,,,,,,,,,,,,,,,,,,,,,,,,,,,,,,,,,,,,,,,,,,,,,,,,,,,,,,,,,,,,,,,,,,,,,,,,,,,,,,,,,,,,,,,,,,,,,,,,,,,,,,,,,,,,,,,,,,,,,,,,,,,,,,,,,,,,,,,,,,
0,7,7,70,1,,613b0d65888b01ec158025d6,62bbfae8a1312631f49c517a,2022-06-29_09h14.08.671,Colour_Asymmetry_Pilot,2022.1.3,Win32,59.76929054,62bbe60bf3d75ef465d3e404,,,,,,,,,,,,,,,,,,,,,,,,,,,,,,,,,,,,,,,,,,,,,,,,,,,,,,,,,,,,,,,,,,,,,,,,,,,,,,,,,,,,,,,,,,,,,,,,,,,,,,,,,,,,,,,,,,,,,,,,,,,,,,,,,,,,,,,,,,,,,,,,,,,,,,,,,,,,,,
0,8,8,42,1,,613b0d65888b01ec158025d6,62bbfae8a1312631f49c517a,2022-06-29_09h14.08.671,Colour_Asymmetry_Pilot,2022.1.3,Win32,59.76929054,62bbe60bf3d75ef465d3e404,,,,,,,,,,,,,,,,,,,,,,,,,,,,,,,,,,,,,,,,,,,,,,,,,,,,,,,,,,,,,,,,,,,,,,,,,,,,,,,,,,,,,,,,,,,,,,,,,,,,,,,,,,,,,,,,,,,,,,,,,,,,,,,,,,,,,,,,,,,,,,,,,,,,,,,,,,,,,,
0,9,9,46,1,,613b0d65888b01ec158025d6,62bbfae8a1312631f49c517a,2022-06-29_09h14.08.671,Colour_Asymmetry_Pilot,2022.1.3,Win32,59.76929054,62bbe60bf3d75ef465d3e404,,,,,,,,,,,,,,,,,,,,,,,,,,,,,,,,,,,,,,,,,,,,,,,,,,,,,,,,,,,,,,,,,,,,,,,,,,,,,,,,,,,,,,,,,,,,,,,,,,,,,,,,,,,,,,,,,,,,,,,,,,,,,,,,,,,,,,,,,,,,,,,,,,,,,,,,,,,,,,
0,10,10,12,1,,613b0d65888b01ec158025d6,62bbfae8a1312631f49c517a,2022-06-29_09h14.08.671,Colour_Asymmetry_Pilot,2022.1.3,Win32,59.76929054,62bbe60bf3d75ef465d3e404,,,,,,,,,,,,,,,,,,,,,,,,,,,,,,,,,,,,,,,,,,,,,,,,,,,,,,,,,,,,,,,,,,,,,,,,,,,,,,,,,,,,,,,,,,,,,,,,,,,,,,,,,,,,,,,,,,,,,,,,,,,,,,,,,,,,,,,,,,,,,,,,,,,,,,,,,,,,,,
0,11,11,17,1,,613b0d65888b01ec158025d6,62bbfae8a1312631f49c517a,2022-06-29_09h14.08.671,Colour_Asymmetry_Pilot,2022.1.3,Win32,59.76929054,62bbe60bf3d75ef465d3e404,,,,,,,,,,,,,,,,,,,,,,,,,,,,,,,,,,,,,,,,,,,,,,,,,,,,,,,,,,,,,,,,,,,,,,,,,,,,,,,,,,,,,,,,,,,,,,,,,,,,,,,,,,,,,,,,,,,,,,,,,,,,,,,,,,,,,,,,,,,,,,,,,,,,,,,,,,,,,,
0,12,12,30,1,,613b0d65888b01ec158025d6,62bbfae8a1312631f49c517a,2022-06-29_09h14.08.671,Colour_Asymmetry_Pilot,2022.1.3,Win32,59.76929054,62bbe60bf3d75ef465d3e404,,,,,,,,,,,,,,,,,,,,,,,,,,,,,,,,,,,,,,,,,,,,,,,,,,,,,,,,,,,,,,,,,,,,,,,,,,,,,,,,,,,,,,,,,,,,,,,,,,,,,,,,,,,,,,,,,,,,,,,,,,,,,,,,,,,,,,,,,,,,,,,,,,,,,,,,,,,,,,
0,13,13,36,1,,613b0d65888b01ec158025d6,62bbfae8a1312631f49c517a,2022-06-29_09h14.08.671,Colour_Asymmetry_Pilot,2022.1.3,Win32,59.76929054,62bbe60bf3d75ef465d3e404,,,,,,,,,,,,,,,,,,,,,,,,,,,,,,,,,,,,,,,,,,,,,,,,,,,,,,,,,,,,,,,,,,,,,,,,,,,,,,,,,,,,,,,,,,,,,,,,,,,,,,,,,,,,,,,,,,,,,,,,,,,,,,,,,,,,,,,,,,,,,,,,,,,,,,,,,,,,,,
0,14,14,19,1,,613b0d65888b01ec158025d6,62bbfae8a1312631f49c517a,2022-06-29_09h14.08.671,Colour_Asymmetry_Pilot,2022.1.3,Win32,59.76929054,62bbe60bf3d75ef465d3e404,,,,,,,,,,,,,,,,,,,,,,,,,,,,,,,,,,,,,,,,,,,,,,,,,,,,,,,,,,,,,,,,,,,,,,,,,,,,,,,,,,,,,,,,,,,,,,,,,,,,,,,,,,,,,,,,,,,,,,,,,,,,,,,,,,,,,,,,,,,,,,,,,,,,,,,,,,,,,,
0,15,15,79,1,,613b0d65888b01ec158025d6,62bbfae8a1312631f49c517a,2022-06-29_09h14.08.671,Colour_Asymmetry_Pilot,2022.1.3,Win32,59.76929054,62bbe60bf3d75ef465d3e404,,,,,,,,,,,,,,,,,,,,,,,,,,,,,,,,,,,,,,,,,,,,,,,,,,,,,,,,,,,,,,,,,,,,,,,,,,,,,,,,,,,,,,,,,,,,,,,,,,,,,,,,,,,,,,,,,,,,,,,,,,,,,,,,,,,,,,,,,,,,,,,,,,,,,,,,,,,,,,
0,16,16,31,1,,613b0d65888b01ec158025d6,62bbfae8a1312631f49c517a,2022-06-29_09h14.08.671,Colour_Asymmetry_Pilot,2022.1.3,Win32,59.76929054,62bbe60bf3d75ef465d3e404,,,,,,,,,,,,,,,,,,,,,,,,,,,,,,,,,,,,,,,,,,,,,,,,,,,,,,,,,,,,,,,,,,,,,,,,,,,,,,,,,,,,,,,,,,,,,,,,,,,,,,,,,,,,,,,,,,,,,,,,,,,,,,,,,,,,,,,,,,,,,,,,,,,,,,,,,,,,,,
0,17,17,86,1,,613b0d65888b01ec158025d6,62bbfae8a1312631f49c517a,2022-06-29_09h14.08.671,Colour_Asymmetry_Pilot,2022.1.3,Win32,59.76929054,62bbe60bf3d75ef465d3e404,,,,,,,,,,,,,,,,,,,,,,,,,,,,,,,,,,,,,,,,,,,,,,,,,,,,,,,,,,,,,,,,,,,,,,,,,,,,,,,,,,,,,,,,,,,,,,,,,,,,,,,,,,,,,,,,,,,,,,,,,,,,,,,,,,,,,,,,,,,,,,,,,,,,,,,,,,,,,,
0,18,18,28,1,,613b0d65888b01ec158025d6,62bbfae8a1312631f49c517a,2022-06-29_09h14.08.671,Colour_Asymmetry_Pilot,2022.1.3,Win32,59.76929054,62bbe60bf3d75ef465d3e404,,,,,,,,,,,,,,,,,,,,,,,,,,,,,,,,,,,,,,,,,,,,,,,,,,,,,,,,,,,,,,,,,,,,,,,,,,,,,,,,,,,,,,,,,,,,,,,,,,,,,,,,,,,,,,,,,,,,,,,,,,,,,,,,,,,,,,,,,,,,,,,,,,,,,,,,,,,,,,
0,19,19,64,1,,613b0d65888b01ec158025d6,62bbfae8a1312631f49c517a,2022-06-29_09h14.08.671,Colour_Asymmetry_Pilot,2022.1.3,Win32,59.76929054,62bbe60bf3d75ef465d3e404,,,,,,,,,,,,,,,,,,,,,,,,,,,,,,,,,,,,,,,,,,,,,,,,,,,,,,,,,,,,,,,,,,,,,,,,,,,,,,,,,,,,,,,,,,,,,,,,,,,,,,,,,,,,,,,,,,,,,,,,,,,,,,,,,,,,,,,,,,,,,,,,,,,,,,,,,,,,,,
0,20,20,72,1,,613b0d65888b01ec158025d6,62bbfae8a1312631f49c517a,2022-06-29_09h14.08.671,Colour_Asymmetry_Pilot,2022.1.3,Win32,59.76929054,62bbe60bf3d75ef465d3e404,,,,,,,,,,,,,,,,,,,,,,,,,,,,,,,,,,,,,,,,,,,,,,,,,,,,,,,,,,,,,,,,,,,,,,,,,,,,,,,,,,,,,,,,,,,,,,,,,,,,,,,,,,,,,,,,,,,,,,,,,,,,,,,,,,,,,,,,,,,,,,,,,,,,,,,,,,,,,,
0,21,21,78,1,,613b0d65888b01ec158025d6,62bbfae8a1312631f49c517a,2022-06-29_09h14.08.671,Colour_Asymmetry_Pilot,2022.1.3,Win32,59.76929054,62bbe60bf3d75ef465d3e404,,,,,,,,,,,,,,,,,,,,,,,,,,,,,,,,,,,,,,,,,,,,,,,,,,,,,,,,,,,,,,,,,,,,,,,,,,,,,,,,,,,,,,,,,,,,,,,,,,,,,,,,,,,,,,,,,,,,,,,,,,,,,,,,,,,,,,,,,,,,,,,,,,,,,,,,,,,,,,
0,22,22,49,1,,613b0d65888b01ec158025d6,62bbfae8a1312631f49c517a,2022-06-29_09h14.08.671,Colour_Asymmetry_Pilot,2022.1.3,Win32,59.76929054,62bbe60bf3d75ef465d3e404,,,,,,,,,,,,,,,,,,,,,,,,,,,,,,,,,,,,,,,,,,,,,,,,,,,,,,,,,,,,,,,,,,,,,,,,,,,,,,,,,,,,,,,,,,,,,,,,,,,,,,,,,,,,,,,,,,,,,,,,,,,,,,,,,,,,,,,,,,,,,,,,,,,,,,,,,,,,,,
0,23,23,56,1,,613b0d65888b01ec158025d6,62bbfae8a1312631f49c517a,2022-06-29_09h14.08.671,Colour_Asymmetry_Pilot,2022.1.3,Win32,59.76929054,62bbe60bf3d75ef465d3e404,,,,,,,,,,,,,,,,,,,,,,,,,,,,,,,,,,,,,,,,,,,,,,,,,,,,,,,,,,,,,,,,,,,,,,,,,,,,,,,,,,,,,,,,,,,,,,,,,,,,,,,,,,,,,,,,,,,,,,,,,,,,,,,,,,,,,,,,,,,,,,,,,,,,,,,,,,,,,,
0,24,24,25,1,,613b0d65888b01ec158025d6,62bbfae8a1312631f49c517a,2022-06-29_09h14.08.671,Colour_Asymmetry_Pilot,2022.1.3,Win32,59.76929054,62bbe60bf3d75ef465d3e404,,,,,,,,,,,,,,,,,,,,,,,,,,,,,,,,,,,,,,,,,,,,,,,,,,,,,,,,,,,,,,,,,,,,,,,,,,,,,,,,,,,,,,,,,,,,,,,,,,,,,,,,,,,,,,,,,,,,,,,,,,,,,,,,,,,,,,,,,,,,,,,,,,,,,,,,,,,,,,
0,25,25,53,1,,613b0d65888b01ec158025d6,62bbfae8a1312631f49c517a,2022-06-29_09h14.08.671,Colour_Asymmetry_Pilot,2022.1.3,Win32,59.76929054,62bbe60bf3d75ef465d3e404,,,,,,,,,,,,,,,,,,,,,,,,,,,,,,,,,,,,,,,,,,,,,,,,,,,,,,,,,,,,,,,,,,,,,,,,,,,,,,,,,,,,,,,,,,,,,,,,,,,,,,,,,,,,,,,,,,,,,,,,,,,,,,,,,,,,,,,,,,,,,,,,,,,,,,,,,,,,,,
0,26,26,76,1,,613b0d65888b01ec158025d6,62bbfae8a1312631f49c517a,2022-06-29_09h14.08.671,Colour_Asymmetry_Pilot,2022.1.3,Win32,59.76929054,62bbe60bf3d75ef465d3e404,,,,,,,,,,,,,,,,,,,,,,,,,,,,,,,,,,,,,,,,,,,,,,,,,,,,,,,,,,,,,,,,,,,,,,,,,,,,,,,,,,,,,,,,,,,,,,,,,,,,,,,,,,,,,,,,,,,,,,,,,,,,,,,,,,,,,,,,,,,,,,,,,,,,,,,,,,,,,,
0,27,27,43,1,,613b0d65888b01ec158025d6,62bbfae8a1312631f49c517a,2022-06-29_09h14.08.671,Colour_Asymmetry_Pilot,2022.1.3,Win32,59.76929054,62bbe60bf3d75ef465d3e404,,,,,,,,,,,,,,,,,,,,,,,,,,,,,,,,,,,,,,,,,,,,,,,,,,,,,,,,,,,,,,,,,,,,,,,,,,,,,,,,,,,,,,,,,,,,,,,,,,,,,,,,,,,,,,,,,,,,,,,,,,,,,,,,,,,,,,,,,,,,,,,,,,,,,,,,,,,,,,
0,28,28,45,1,,613b0d65888b01ec158025d6,62bbfae8a1312631f49c517a,2022-06-29_09h14.08.671,Colour_Asymmetry_Pilot,2022.1.3,Win32,59.76929054,62bbe60bf3d75ef465d3e404,,,,,,,,,,,,,,,,,,,,,,,,,,,,,,,,,,,,,,,,,,,,,,,,,,,,,,,,,,,,,,,,,,,,,,,,,,,,,,,,,,,,,,,,,,,,,,,,,,,,,,,,,,,,,,,,,,,,,,,,,,,,,,,,,,,,,,,,,,,,,,,,,,,,,,,,,,,,,,
0,29,29,13,1,,613b0d65888b01ec158025d6,62bbfae8a1312631f49c517a,2022-06-29_09h14.08.671,Colour_Asymmetry_Pilot,2022.1.3,Win32,59.76929054,62bbe60bf3d75ef465d3e404,,,,,,,,,,,,,,,,,,,,,,,,,,,,,,,,,,,,,,,,,,,,,,,,,,,,,,,,,,,,,,,,,,,,,,,,,,,,,,,,,,,,,,,,,,,,,,,,,,,,,,,,,,,,,,,,,,,,,,,,,,,,,,,,,,,,,,,,,,,,,,,,,,,,,,,,,,,,,,
0,30,30,39,1,,613b0d65888b01ec158025d6,62bbfae8a1312631f49c517a,2022-06-29_09h14.08.671,Colour_Asymmetry_Pilot,2022.1.3,Win32,59.76929054,62bbe60bf3d75ef465d3e404,,,,,,,,,,,,,,,,,,,,,,,,,,,,,,,,,,,,,,,,,,,,,,,,,,,,,,,,,,,,,,,,,,,,,,,,,,,,,,,,,,,,,,,,,,,,,,,,,,,,,,,,,,,,,,,,,,,,,,,,,,,,,,,,,,,,,,,,,,,,,,,,,,,,,,,,,,,,,,
0,31,31,88,1,,613b0d65888b01ec158025d6,62bbfae8a1312631f49c517a,2022-06-29_09h14.08.671,Colour_Asymmetry_Pilot,2022.1.3,Win32,59.76929054,62bbe60bf3d75ef465d3e404,,,,,,,,,,,,,,,,,,,,,,,,,,,,,,,,,,,,,,,,,,,,,,,,,,,,,,,,,,,,,,,,,,,,,,,,,,,,,,,,,,,,,,,,,,,,,,,,,,,,,,,,,,,,,,,,,,,,,,,,,,,,,,,,,,,,,,,,,,,,,,,,,,,,,,,,,,,,,,
0,32,32,84,1,,613b0d65888b01ec158025d6,62bbfae8a1312631f49c517a,2022-06-29_09h14.08.671,Colour_Asymmetry_Pilot,2022.1.3,Win32,59.76929054,62bbe60bf3d75ef465d3e404,,,,,,,,,,,,,,,,,,,,,,,,,,,,,,,,,,,,,,,,,,,,,,,,,,,,,,,,,,,,,,,,,,,,,,,,,,,,,,,,,,,,,,,,,,,,,,,,,,,,,,,,,,,,,,,,,,,,,,,,,,,,,,,,,,,,,,,,,,,,,,,,,,,,,,,,,,,,,,
0,33,33,21,1,,613b0d65888b01ec158025d6,62bbfae8a1312631f49c517a,2022-06-29_09h14.08.671,Colour_Asymmetry_Pilot,2022.1.3,Win32,59.76929054,62bbe60bf3d75ef465d3e404,,,,,,,,,,,,,,,,,,,,,,,,,,,,,,,,,,,,,,,,,,,,,,,,,,,,,,,,,,,,,,,,,,,,,,,,,,,,,,,,,,,,,,,,,,,,,,,,,,,,,,,,,,,,,,,,,,,,,,,,,,,,,,,,,,,,,,,,,,,,,,,,,,,,,,,,,,,,,,
0,34,34,35,1,,613b0d65888b01ec158025d6,62bbfae8a1312631f49c517a,2022-06-29_09h14.08.671,Colour_Asymmetry_Pilot,2022.1.3,Win32,59.76929054,62bbe60bf3d75ef465d3e404,,,,,,,,,,,,,,,,,,,,,,,,,,,,,,,,,,,,,,,,,,,,,,,,,,,,,,,,,,,,,,,,,,,,,,,,,,,,,,,,,,,,,,,,,,,,,,,,,,,,,,,,,,,,,,,,,,,,,,,,,,,,,,,,,,,,,,,,,,,,,,,,,,,,,,,,,,,,,,
0,35,35,44,1,,613b0d65888b01ec158025d6,62bbfae8a1312631f49c517a,2022-06-29_09h14.08.671,Colour_Asymmetry_Pilot,2022.1.3,Win32,59.76929054,62bbe60bf3d75ef465d3e404,,,,,,,,,,,,,,,,,,,,,,,,,,,,,,,,,,,,,,,,,,,,,,,,,,,,,,,,,,,,,,,,,,,,,,,,,,,,,,,,,,,,,,,,,,,,,,,,,,,,,,,,,,,,,,,,,,,,,,,,,,,,,,,,,,,,,,,,,,,,,,,,,,,,,,,,,,,,,,
0,36,36,47,1,,613b0d65888b01ec158025d6,62bbfae8a1312631f49c517a,2022-06-29_09h14.08.671,Colour_Asymmetry_Pilot,2022.1.3,Win32,59.76929054,62bbe60bf3d75ef465d3e404,,,,,,,,,,,,,,,,,,,,,,,,,,,,,,,,,,,,,,,,,,,,,,,,,,,,,,,,,,,,,,,,,,,,,,,,,,,,,,,,,,,,,,,,,,,,,,,,,,,,,,,,,,,,,,,,,,,,,,,,,,,,,,,,,,,,,,,,,,,,,,,,,,,,,,,,,,,,,,
0,37,37,65,1,,613b0d65888b01ec158025d6,62bbfae8a1312631f49c517a,2022-06-29_09h14.08.671,Colour_Asymmetry_Pilot,2022.1.3,Win32,59.76929054,62bbe60bf3d75ef465d3e404,,,,,,,,,,,,,,,,,,,,,,,,,,,,,,,,,,,,,,,,,,,,,,,,,,,,,,,,,,,,,,,,,,,,,,,,,,,,,,,,,,,,,,,,,,,,,,,,,,,,,,,,,,,,,,,,,,,,,,,,,,,,,,,,,,,,,,,,,,,,,,,,,,,,,,,,,,,,,,
0,38,38,2,1,,613b0d65888b01ec158025d6,62bbfae8a1312631f49c517a,2022-06-29_09h14.08.671,Colour_Asymmetry_Pilot,2022.1.3,Win32,59.76929054,62bbe60bf3d75ef465d3e404,,,,,,,,,,,,,,,,,,,,,,,,,,,,,,,,,,,,,,,,,,,,,,,,,,,,,,,,,,,,,,,,,,,,,,,,,,,,,,,,,,,,,,,,,,,,,,,,,,,,,,,,,,,,,,,,,,,,,,,,,,,,,,,,,,,,,,,,,,,,,,,,,,,,,,,,,,,,,,
0,39,39,3,1,,613b0d65888b01ec158025d6,62bbfae8a1312631f49c517a,2022-06-29_09h14.08.671,Colour_Asymmetry_Pilot,2022.1.3,Win32,59.76929054,62bbe60bf3d75ef465d3e404,,,,,,,,,,,,,,,,,,,,,,,,,,,,,,,,,,,,,,,,,,,,,,,,,,,,,,,,,,,,,,,,,,,,,,,,,,,,,,,,,,,,,,,,,,,,,,,,,,,,,,,,,,,,,,,,,,,,,,,,,,,,,,,,,,,,,,,,,,,,,,,,,,,,,,,,,,,,,,
0,40,40,5,1,,613b0d65888b01ec158025d6,62bbfae8a1312631f49c517a,2022-06-29_09h14.08.671,Colour_Asymmetry_Pilot,2022.1.3,Win32,59.76929054,62bbe60bf3d75ef465d3e404,,,,,,,,,,,,,,,,,,,,,,,,,,,,,,,,,,,,,,,,,,,,,,,,,,,,,,,,,,,,,,,,,,,,,,,,,,,,,,,,,,,,,,,,,,,,,,,,,,,,,,,,,,,,,,,,,,,,,,,,,,,,,,,,,,,,,,,,,,,,,,,,,,,,,,,,,,,,,,
0,41,41,18,1,,613b0d65888b01ec158025d6,62bbfae8a1312631f49c517a,2022-06-29_09h14.08.671,Colour_Asymmetry_Pilot,2022.1.3,Win32,59.76929054,62bbe60bf3d75ef465d3e404,,,,,,,,,,,,,,,,,,,,,,,,,,,,,,,,,,,,,,,,,,,,,,,,,,,,,,,,,,,,,,,,,,,,,,,,,,,,,,,,,,,,,,,,,,,,,,,,,,,,,,,,,,,,,,,,,,,,,,,,,,,,,,,,,,,,,,,,,,,,,,,,,,,,,,,,,,,,,,
0,42,42,41,1,,613b0d65888b01ec158025d6,62bbfae8a1312631f49c517a,2022-06-29_09h14.08.671,Colour_Asymmetry_Pilot,2022.1.3,Win32,59.76929054,62bbe60bf3d75ef465d3e404,,,,,,,,,,,,,,,,,,,,,,,,,,,,,,,,,,,,,,,,,,,,,,,,,,,,,,,,,,,,,,,,,,,,,,,,,,,,,,,,,,,,,,,,,,,,,,,,,,,,,,,,,,,,,,,,,,,,,,,,,,,,,,,,,,,,,,,,,,,,,,,,,,,,,,,,,,,,,,
0,43,43,32,1,,613b0d65888b01ec158025d6,62bbfae8a1312631f49c517a,2022-06-29_09h14.08.671,Colour_Asymmetry_Pilot,2022.1.3,Win32,59.76929054,62bbe60bf3d75ef465d3e404,,,,,,,,,,,,,,,,,,,,,,,,,,,,,,,,,,,,,,,,,,,,,,,,,,,,,,,,,,,,,,,,,,,,,,,,,,,,,,,,,,,,,,,,,,,,,,,,,,,,,,,,,,,,,,,,,,,,,,,,,,,,,,,,,,,,,,,,,,,,,,,,,,,,,,,,,,,,,,
0,44,44,87,1,,613b0d65888b01ec158025d6,62bbfae8a1312631f49c517a,2022-06-29_09h14.08.671,Colour_Asymmetry_Pilot,2022.1.3,Win32,59.76929054,62bbe60bf3d75ef465d3e404,,,,,,,,,,,,,,,,,,,,,,,,,,,,,,,,,,,,,,,,,,,,,,,,,,,,,,,,,,,,,,,,,,,,,,,,,,,,,,,,,,,,,,,,,,,,,,,,,,,,,,,,,,,,,,,,,,,,,,,,,,,,,,,,,,,,,,,,,,,,,,,,,,,,,,,,,,,,,,
0,45,45,33,1,,613b0d65888b01ec158025d6,62bbfae8a1312631f49c517a,2022-06-29_09h14.08.671,Colour_Asymmetry_Pilot,2022.1.3,Win32,59.76929054,62bbe60bf3d75ef465d3e404,,,,,,,,,,,,,,,,,,,,,,,,,,,,,,,,,,,,,,,,,,,,,,,,,,,,,,,,,,,,,,,,,,,,,,,,,,,,,,,,,,,,,,,,,,,,,,,,,,,,,,,,,,,,,,,,,,,,,,,,,,,,,,,,,,,,,,,,,,,,,,,,,,,,,,,,,,,,,,
0,46,46,7,1,,613b0d65888b01ec158025d6,62bbfae8a1312631f49c517a,2022-06-29_09h14.08.671,Colour_Asymmetry_Pilot,2022.1.3,Win32,59.76929054,62bbe60bf3d75ef465d3e404,,,,,,,,,,,,,,,,,,,,,,,,,,,,,,,,,,,,,,,,,,,,,,,,,,,,,,,,,,,,,,,,,,,,,,,,,,,,,,,,,,,,,,,,,,,,,,,,,,,,,,,,,,,,,,,,,,,,,,,,,,,,,,,,,,,,,,,,,,,,,,,,,,,,,,,,,,,,,,
0,47,47,59,1,,613b0d65888b01ec158025d6,62bbfae8a1312631f49c517a,2022-06-29_09h14.08.671,Colour_Asymmetry_Pilot,2022.1.3,Win32,59.76929054,62bbe60bf3d75ef465d3e404,,,,,,,,,,,,,,,,,,,,,,,,,,,,,,,,,,,,,,,,,,,,,,,,,,,,,,,,,,,,,,,,,,,,,,,,,,,,,,,,,,,,,,,,,,,,,,,,,,,,,,,,,,,,,,,,,,,,,,,,,,,,,,,,,,,,,,,,,,,,,,,,,,,,,,,,,,,,,,
0,48,48,58,1,,613b0d65888b01ec158025d6,62bbfae8a1312631f49c517a,2022-06-29_09h14.08.671,Colour_Asymmetry_Pilot,2022.1.3,Win32,59.76929054,62bbe60bf3d75ef465d3e404,,,,,,,,,,,,,,,,,,,,,,,,,,,,,,,,,,,,,,,,,,,,,,,,,,,,,,,,,,,,,,,,,,,,,,,,,,,,,,,,,,,,,,,,,,,,,,,,,,,,,,,,,,,,,,,,,,,,,,,,,,,,,,,,,,,,,,,,,,,,,,,,,,,,,,,,,,,,,,
0,49,49,91,1,,613b0d65888b01ec158025d6,62bbfae8a1312631f49c517a,2022-06-29_09h14.08.671,Colour_Asymmetry_Pilot,2022.1.3,Win32,59.76929054,62bbe60bf3d75ef465d3e404,,,,,,,,,,,,,,,,,,,,,,,,,,,,,,,,,,,,,,,,,,,,,,,,,,,,,,,,,,,,,,,,,,,,,,,,,,,,,,,,,,,,,,,,,,,,,,,,,,,,,,,,,,,,,,,,,,,,,,,,,,,,,,,,,,,,,,,,,,,,,,,,,,,,,,,,,,,,,,
0,50,50,9,1,,613b0d65888b01ec158025d6,62bbfae8a1312631f49c517a,2022-06-29_09h14.08.671,Colour_Asymmetry_Pilot,2022.1.3,Win32,59.76929054,62bbe60bf3d75ef465d3e404,,,,,,,,,,,,,,,,,,,,,,,,,,,,,,,,,,,,,,,,,,,,,,,,,,,,,,,,,,,,,,,,,,,,,,,,,,,,,,,,,,,,,,,,,,,,,,,,,,,,,,,,,,,,,,,,,,,,,,,,,,,,,,,,,,,,,,,,,,,,,,,,,,,,,,,,,,,,,,
0,51,51,54,1,,613b0d65888b01ec158025d6,62bbfae8a1312631f49c517a,2022-06-29_09h14.08.671,Colour_Asymmetry_Pilot,2022.1.3,Win32,59.76929054,62bbe60bf3d75ef465d3e404,,,,,,,,,,,,,,,,,,,,,,,,,,,,,,,,,,,,,,,,,,,,,,,,,,,,,,,,,,,,,,,,,,,,,,,,,,,,,,,,,,,,,,,,,,,,,,,,,,,,,,,,,,,,,,,,,,,,,,,,,,,,,,,,,,,,,,,,,,,,,,,,,,,,,,,,,,,,,,
0,52,52,77,1,,613b0d65888b01ec158025d6,62bbfae8a1312631f49c517a,2022-06-29_09h14.08.671,Colour_Asymmetry_Pilot,2022.1.3,Win32,59.76929054,62bbe60bf3d75ef465d3e404,,,,,,,,,,,,,,,,,,,,,,,,,,,,,,,,,,,,,,,,,,,,,,,,,,,,,,,,,,,,,,,,,,,,,,,,,,,,,,,,,,,,,,,,,,,,,,,,,,,,,,,,,,,,,,,,,,,,,,,,,,,,,,,,,,,,,,,,,,,,,,,,,,,,,,,,,,,,,,
0,53,53,61,1,,613b0d65888b01ec158025d6,62bbfae8a1312631f49c517a,2022-06-29_09h14.08.671,Colour_Asymmetry_Pilot,2022.1.3,Win32,59.76929054,62bbe60bf3d75ef465d3e404,,,,,,,,,,,,,,,,,,,,,,,,,,,,,,,,,,,,,,,,,,,,,,,,,,,,,,,,,,,,,,,,,,,,,,,,,,,,,,,,,,,,,,,,,,,,,,,,,,,,,,,,,,,,,,,,,,,,,,,,,,,,,,,,,,,,,,,,,,,,,,,,,,,,,,,,,,,,,,
0,54,54,1,1,,613b0d65888b01ec158025d6,62bbfae8a1312631f49c517a,2022-06-29_09h14.08.671,Colour_Asymmetry_Pilot,2022.1.3,Win32,59.76929054,62bbe60bf3d75ef465d3e404,,,,,,,,,,,,,,,,,,,,,,,,,,,,,,,,,,,,,,,,,,,,,,,,,,,,,,,,,,,,,,,,,,,,,,,,,,,,,,,,,,,,,,,,,,,,,,,,,,,,,,,,,,,,,,,,,,,,,,,,,,,,,,,,,,,,,,,,,,,,,,,,,,,,,,,,,,,,,,
0,55,55,14,1,,613b0d65888b01ec158025d6,62bbfae8a1312631f49c517a,2022-06-29_09h14.08.671,Colour_Asymmetry_Pilot,2022.1.3,Win32,59.76929054,62bbe60bf3d75ef465d3e404,,,,,,,,,,,,,,,,,,,,,,,,,,,,,,,,,,,,,,,,,,,,,,,,,,,,,,,,,,,,,,,,,,,,,,,,,,,,,,,,,,,,,,,,,,,,,,,,,,,,,,,,,,,,,,,,,,,,,,,,,,,,,,,,,,,,,,,,,,,,,,,,,,,,,,,,,,,,,,
0,56,56,26,1,,613b0d65888b01ec158025d6,62bbfae8a1312631f49c517a,2022-06-29_09h14.08.671,Colour_Asymmetry_Pilot,2022.1.3,Win32,59.76929054,62bbe60bf3d75ef465d3e404,,,,,,,,,,,,,,,,,,,,,,,,,,,,,,,,,,,,,,,,,,,,,,,,,,,,,,,,,,,,,,,,,,,,,,,,,,,,,,,,,,,,,,,,,,,,,,,,,,,,,,,,,,,,,,,,,,,,,,,,,,,,,,,,,,,,,,,,,,,,,,,,,,,,,,,,,,,,,,
0,57,57,74,1,,613b0d65888b01ec158025d6,62bbfae8a1312631f49c517a,2022-06-29_09h14.08.671,Colour_Asymmetry_Pilot,2022.1.3,Win32,59.76929054,62bbe60bf3d75ef465d3e404,,,,,,,,,,,,,,,,,,,,,,,,,,,,,,,,,,,,,,,,,,,,,,,,,,,,,,,,,,,,,,,,,,,,,,,,,,,,,,,,,,,,,,,,,,,,,,,,,,,,,,,,,,,,,,,,,,,,,,,,,,,,,,,,,,,,,,,,,,,,,,,,,,,,,,,,,,,,,,
0,58,58,22,1,,613b0d65888b01ec158025d6,62bbfae8a1312631f49c517a,2022-06-29_09h14.08.671,Colour_Asymmetry_Pilot,2022.1.3,Win32,59.76929054,62bbe60bf3d75ef465d3e404,,,,,,,,,,,,,,,,,,,,,,,,,,,,,,,,,,,,,,,,,,,,,,,,,,,,,,,,,,,,,,,,,,,,,,,,,,,,,,,,,,,,,,,,,,,,,,,,,,,,,,,,,,,,,,,,,,,,,,,,,,,,,,,,,,,,,,,,,,,,,,,,,,,,,,,,,,,,,,
0,59,59,52,1,,613b0d65888b01ec158025d6,62bbfae8a1312631f49c517a,2022-06-29_09h14.08.671,Colour_Asymmetry_Pilot,2022.1.3,Win32,59.76929054,62bbe60bf3d75ef465d3e404,,,,,,,,,,,,,,,,,,,,,,,,,,,,,,,,,,,,,,,,,,,,,,,,,,,,,,,,,,,,,,,,,,,,,,,,,,,,,,,,,,,,,,,,,,,,,,,,,,,,,,,,,,,,,,,,,,,,,,,,,,,,,,,,,,,,,,,,,,,,,,,,,,,,,,,,,,,,,,
0,60,60,81,1,,613b0d65888b01ec158025d6,62bbfae8a1312631f49c517a,2022-06-29_09h14.08.671,Colour_Asymmetry_Pilot,2022.1.3,Win32,59.76929054,62bbe60bf3d75ef465d3e404,,,,,,,,,,,,,,,,,,,,,,,,,,,,,,,,,,,,,,,,,,,,,,,,,,,,,,,,,,,,,,,,,,,,,,,,,,,,,,,,,,,,,,,,,,,,,,,,,,,,,,,,,,,,,,,,,,,,,,,,,,,,,,,,,,,,,,,,,,,,,,,,,,,,,,,,,,,,,,
0,61,61,75,1,,613b0d65888b01ec158025d6,62bbfae8a1312631f49c517a,2022-06-29_09h14.08.671,Colour_Asymmetry_Pilot,2022.1.3,Win32,59.76929054,62bbe60bf3d75ef465d3e404,,,,,,,,,,,,,,,,,,,,,,,,,,,,,,,,,,,,,,,,,,,,,,,,,,,,,,,,,,,,,,,,,,,,,,,,,,,,,,,,,,,,,,,,,,,,,,,,,,,,,,,,,,,,,,,,,,,,,,,,,,,,,,,,,,,,,,,,,,,,,,,,,,,,,,,,,,,,,,
0,62,62,4,1,,613b0d65888b01ec158025d6,62bbfae8a1312631f49c517a,2022-06-29_09h14.08.671,Colour_Asymmetry_Pilot,2022.1.3,Win32,59.76929054,62bbe60bf3d75ef465d3e404,,,,,,,,,,,,,,,,,,,,,,,,,,,,,,,,,,,,,,,,,,,,,,,,,,,,,,,,,,,,,,,,,,,,,,,,,,,,,,,,,,,,,,,,,,,,,,,,,,,,,,,,,,,,,,,,,,,,,,,,,,,,,,,,,,,,,,,,,,,,,,,,,,,,,,,,,,,,,,
0,63,63,62,1,,613b0d65888b01ec158025d6,62bbfae8a1312631f49c517a,2022-06-29_09h14.08.671,Colour_Asymmetry_Pilot,2022.1.3,Win32,59.76929054,62bbe60bf3d75ef465d3e404,,,,,,,,,,,,,,,,,,,,,,,,,,,,,,,,,,,,,,,,,,,,,,,,,,,,,,,,,,,,,,,,,,,,,,,,,,,,,,,,,,,,,,,,,,,,,,,,,,,,,,,,,,,,,,,,,,,,,,,,,,,,,,,,,,,,,,,,,,,,,,,,,,,,,,,,,,,,,,
0,64,64,55,1,,613b0d65888b01ec158025d6,62bbfae8a1312631f49c517a,2022-06-29_09h14.08.671,Colour_Asymmetry_Pilot,2022.1.3,Win32,59.76929054,62bbe60bf3d75ef465d3e404,,,,,,,,,,,,,,,,,,,,,,,,,,,,,,,,,,,,,,,,,,,,,,,,,,,,,,,,,,,,,,,,,,,,,,,,,,,,,,,,,,,,,,,,,,,,,,,,,,,,,,,,,,,,,,,,,,,,,,,,,,,,,,,,,,,,,,,,,,,,,,,,,,,,,,,,,,,,,,
0,65,65,40,1,,613b0d65888b01ec158025d6,62bbfae8a1312631f49c517a,2022-06-29_09h14.08.671,Colour_Asymmetry_Pilot,2022.1.3,Win32,59.76929054,62bbe60bf3d75ef465d3e404,,,,,,,,,,,,,,,,,,,,,,,,,,,,,,,,,,,,,,,,,,,,,,,,,,,,,,,,,,,,,,,,,,,,,,,,,,,,,,,,,,,,,,,,,,,,,,,,,,,,,,,,,,,,,,,,,,,,,,,,,,,,,,,,,,,,,,,,,,,,,,,,,,,,,,,,,,,,,,
0,66,66,24,1,,613b0d65888b01ec158025d6,62bbfae8a1312631f49c517a,2022-06-29_09h14.08.671,Colour_Asymmetry_Pilot,2022.1.3,Win32,59.76929054,62bbe60bf3d75ef465d3e404,,,,,,,,,,,,,,,,,,,,,,,,,,,,,,,,,,,,,,,,,,,,,,,,,,,,,,,,,,,,,,,,,,,,,,,,,,,,,,,,,,,,,,,,,,,,,,,,,,,,,,,,,,,,,,,,,,,,,,,,,,,,,,,,,,,,,,,,,,,,,,,,,,,,,,,,,,,,,,
0,67,67,48,1,,613b0d65888b01ec158025d6,62bbfae8a1312631f49c517a,2022-06-29_09h14.08.671,Colour_Asymmetry_Pilot,2022.1.3,Win32,59.76929054,62bbe60bf3d75ef465d3e404,,,,,,,,,,,,,,,,,,,,,,,,,,,,,,,,,,,,,,,,,,,,,,,,,,,,,,,,,,,,,,,,,,,,,,,,,,,,,,,,,,,,,,,,,,,,,,,,,,,,,,,,,,,,,,,,,,,,,,,,,,,,,,,,,,,,,,,,,,,,,,,,,,,,,,,,,,,,,,
0,68,68,29,1,,613b0d65888b01ec158025d6,62bbfae8a1312631f49c517a,2022-06-29_09h14.08.671,Colour_Asymmetry_Pilot,2022.1.3,Win32,59.76929054,62bbe60bf3d75ef465d3e404,,,,,,,,,,,,,,,,,,,,,,,,,,,,,,,,,,,,,,,,,,,,,,,,,,,,,,,,,,,,,,,,,,,,,,,,,,,,,,,,,,,,,,,,,,,,,,,,,,,,,,,,,,,,,,,,,,,,,,,,,,,,,,,,,,,,,,,,,,,,,,,,,,,,,,,,,,,,,,
0,69,69,82,1,,613b0d65888b01ec158025d6,62bbfae8a1312631f49c517a,2022-06-29_09h14.08.671,Colour_Asymmetry_Pilot,2022.1.3,Win32,59.76929054,62bbe60bf3d75ef465d3e404,,,,,,,,,,,,,,,,,,,,,,,,,,,,,,,,,,,,,,,,,,,,,,,,,,,,,,,,,,,,,,,,,,,,,,,,,,,,,,,,,,,,,,,,,,,,,,,,,,,,,,,,,,,,,,,,,,,,,,,,,,,,,,,,,,,,,,,,,,,,,,,,,,,,,,,,,,,,,,
0,70,70,15,1,,613b0d65888b01ec158025d6,62bbfae8a1312631f49c517a,2022-06-29_09h14.08.671,Colour_Asymmetry_Pilot,2022.1.3,Win32,59.76929054,62bbe60bf3d75ef465d3e404,,,,,,,,,,,,,,,,,,,,,,,,,,,,,,,,,,,,,,,,,,,,,,,,,,,,,,,,,,,,,,,,,,,,,,,,,,,,,,,,,,,,,,,,,,,,,,,,,,,,,,,,,,,,,,,,,,,,,,,,,,,,,,,,,,,,,,,,,,,,,,,,,,,,,,,,,,,,,,
0,71,71,71,1,,613b0d65888b01ec158025d6,62bbfae8a1312631f49c517a,2022-06-29_09h14.08.671,Colour_Asymmetry_Pilot,2022.1.3,Win32,59.76929054,62bbe60bf3d75ef465d3e404,,,,,,,,,,,,,,,,,,,,,,,,,,,,,,,,,,,,,,,,,,,,,,,,,,,,,,,,,,,,,,,,,,,,,,,,,,,,,,,,,,,,,,,,,,,,,,,,,,,,,,,,,,,,,,,,,,,,,,,,,,,,,,,,,,,,,,,,,,,,,,,,,,,,,,,,,,,,,,
0,72,72,73,1,,613b0d65888b01ec158025d6,62bbfae8a1312631f49c517a,2022-06-29_09h14.08.671,Colour_Asymmetry_Pilot,2022.1.3,Win32,59.76929054,62bbe60bf3d75ef465d3e404,,,,,,,,,,,,,,,,,,,,,,,,,,,,,,,,,,,,,,,,,,,,,,,,,,,,,,,,,,,,,,,,,,,,,,,,,,,,,,,,,,,,,,,,,,,,,,,,,,,,,,,,,,,,,,,,,,,,,,,,,,,,,,,,,,,,,,,,,,,,,,,,,,,,,,,,,,,,,,
0,73,73,83,1,,613b0d65888b01ec158025d6,62bbfae8a1312631f49c517a,2022-06-29_09h14.08.671,Colour_Asymmetry_Pilot,2022.1.3,Win32,59.76929054,62bbe60bf3d75ef465d3e404,,,,,,,,,,,,,,,,,,,,,,,,,,,,,,,,,,,,,,,,,,,,,,,,,,,,,,,,,,,,,,,,,,,,,,,,,,,,,,,,,,,,,,,,,,,,,,,,,,,,,,,,,,,,,,,,,,,,,,,,,,,,,,,,,,,,,,,,,,,,,,,,,,,,,,,,,,,,,,
0,74,74,0,1,,613b0d65888b01ec158025d6,62bbfae8a1312631f49c517a,2022-06-29_09h14.08.671,Colour_Asymmetry_Pilot,2022.1.3,Win32,59.76929054,62bbe60bf3d75ef465d3e404,,,,,,,,,,,,,,,,,,,,,,,,,,,,,,,,,,,,,,,,,,,,,,,,,,,,,,,,,,,,,,,,,,,,,,,,,,,,,,,,,,,,,,,,,,,,,,,,,,,,,,,,,,,,,,,,,,,,,,,,,,,,,,,,,,,,,,,,,,,,,,,,,,,,,,,,,,,,,,
0,75,75,16,1,,613b0d65888b01ec158025d6,62bbfae8a1312631f49c517a,2022-06-29_09h14.08.671,Colour_Asymmetry_Pilot,2022.1.3,Win32,59.76929054,62bbe60bf3d75ef465d3e404,,,,,,,,,,,,,,,,,,,,,,,,,,,,,,,,,,,,,,,,,,,,,,,,,,,,,,,,,,,,,,,,,,,,,,,,,,,,,,,,,,,,,,,,,,,,,,,,,,,,,,,,,,,,,,,,,,,,,,,,,,,,,,,,,,,,,,,,,,,,,,,,,,,,,,,,,,,,,,
0,76,76,67,1,,613b0d65888b01ec158025d6,62bbfae8a1312631f49c517a,2022-06-29_09h14.08.671,Colour_Asymmetry_Pilot,2022.1.3,Win32,59.76929054,62bbe60bf3d75ef465d3e404,,,,,,,,,,,,,,,,,,,,,,,,,,,,,,,,,,,,,,,,,,,,,,,,,,,,,,,,,,,,,,,,,,,,,,,,,,,,,,,,,,,,,,,,,,,,,,,,,,,,,,,,,,,,,,,,,,,,,,,,,,,,,,,,,,,,,,,,,,,,,,,,,,,,,,,,,,,,,,
0,77,77,66,1,,613b0d65888b01ec158025d6,62bbfae8a1312631f49c517a,2022-06-29_09h14.08.671,Colour_Asymmetry_Pilot,2022.1.3,Win32,59.76929054,62bbe60bf3d75ef465d3e404,,,,,,,,,,,,,,,,,,,,,,,,,,,,,,,,,,,,,,,,,,,,,,,,,,,,,,,,,,,,,,,,,,,,,,,,,,,,,,,,,,,,,,,,,,,,,,,,,,,,,,,,,,,,,,,,,,,,,,,,,,,,,,,,,,,,,,,,,,,,,,,,,,,,,,,,,,,,,,
0,78,78,6,1,,613b0d65888b01ec158025d6,62bbfae8a1312631f49c517a,2022-06-29_09h14.08.671,Colour_Asymmetry_Pilot,2022.1.3,Win32,59.76929054,62bbe60bf3d75ef465d3e404,,,,,,,,,,,,,,,,,,,,,,,,,,,,,,,,,,,,,,,,,,,,,,,,,,,,,,,,,,,,,,,,,,,,,,,,,,,,,,,,,,,,,,,,,,,,,,,,,,,,,,,,,,,,,,,,,,,,,,,,,,,,,,,,,,,,,,,,,,,,,,,,,,,,,,,,,,,,,,
0,79,79,51,1,,613b0d65888b01ec158025d6,62bbfae8a1312631f49c517a,2022-06-29_09h14.08.671,Colour_Asymmetry_Pilot,2022.1.3,Win32,59.76929054,62bbe60bf3d75ef465d3e404,,,,,,,,,,,,,,,,,,,,,,,,,,,,,,,,,,,,,,,,,,,,,,,,,,,,,,,,,,,,,,,,,,,,,,,,,,,,,,,,,,,,,,,,,,,,,,,,,,,,,,,,,,,,,,,,,,,,,,,,,,,,,,,,,,,,,,,,,,,,,,,,,,,,,,,,,,,,,,
0,80,80,20,1,,613b0d65888b01ec158025d6,62bbfae8a1312631f49c517a,2022-06-29_09h14.08.671,Colour_Asymmetry_Pilot,2022.1.3,Win32,59.76929054,62bbe60bf3d75ef465d3e404,,,,,,,,,,,,,,,,,,,,,,,,,,,,,,,,,,,,,,,,,,,,,,,,,,,,,,,,,,,,,,,,,,,,,,,,,,,,,,,,,,,,,,,,,,,,,,,,,,,,,,,,,,,,,,,,,,,,,,,,,,,,,,,,,,,,,,,,,,,,,,,,,,,,,,,,,,,,,,
0,81,81,85,1,,613b0d65888b01ec158025d6,62bbfae8a1312631f49c517a,2022-06-29_09h14.08.671,Colour_Asymmetry_Pilot,2022.1.3,Win32,59.76929054,62bbe60bf3d75ef465d3e404,,,,,,,,,,,,,,,,,,,,,,,,,,,,,,,,,,,,,,,,,,,,,,,,,,,,,,,,,,,,,,,,,,,,,,,,,,,,,,,,,,,,,,,,,,,,,,,,,,,,,,,,,,,,,,,,,,,,,,,,,,,,,,,,,,,,,,,,,,,,,,,,,,,,,,,,,,,,,,
0,82,82,23,1,,613b0d65888b01ec158025d6,62bbfae8a1312631f49c517a,2022-06-29_09h14.08.671,Colour_Asymmetry_Pilot,2022.1.3,Win32,59.76929054,62bbe60bf3d75ef465d3e404,,,,,,,,,,,,,,,,,,,,,,,,,,,,,,,,,,,,,,,,,,,,,,,,,,,,,,,,,,,,,,,,,,,,,,,,,,,,,,,,,,,,,,,,,,,,,,,,,,,,,,,,,,,,,,,,,,,,,,,,,,,,,,,,,,,,,,,,,,,,,,,,,,,,,,,,,,,,,,
0,83,83,63,1,,613b0d65888b01ec158025d6,62bbfae8a1312631f49c517a,2022-06-29_09h14.08.671,Colour_Asymmetry_Pilot,2022.1.3,Win32,59.76929054,62bbe60bf3d75ef465d3e404,,,,,,,,,,,,,,,,,,,,,,,,,,,,,,,,,,,,,,,,,,,,,,,,,,,,,,,,,,,,,,,,,,,,,,,,,,,,,,,,,,,,,,,,,,,,,,,,,,,,,,,,,,,,,,,,,,,,,,,,,,,,,,,,,,,,,,,,,,,,,,,,,,,,,,,,,,,,,,
0,84,84,11,1,,613b0d65888b01ec158025d6,62bbfae8a1312631f49c517a,2022-06-29_09h14.08.671,Colour_Asymmetry_Pilot,2022.1.3,Win32,59.76929054,62bbe60bf3d75ef465d3e404,,,,,,,,,,,,,,,,,,,,,,,,,,,,,,,,,,,,,,,,,,,,,,,,,,,,,,,,,,,,,,,,,,,,,,,,,,,,,,,,,,,,,,,,,,,,,,,,,,,,,,,,,,,,,,,,,,,,,,,,,,,,,,,,,,,,,,,,,,,,,,,,,,,,,,,,,,,,,,
0,85,85,69,1,,613b0d65888b01ec158025d6,62bbfae8a1312631f49c517a,2022-06-29_09h14.08.671,Colour_Asymmetry_Pilot,2022.1.3,Win32,59.76929054,62bbe60bf3d75ef465d3e404,,,,,,,,,,,,,,,,,,,,,,,,,,,,,,,,,,,,,,,,,,,,,,,,,,,,,,,,,,,,,,,,,,,,,,,,,,,,,,,,,,,,,,,,,,,,,,,,,,,,,,,,,,,,,,,,,,,,,,,,,,,,,,,,,,,,,,,,,,,,,,,,,,,,,,,,,,,,,,
0,86,86,92,1,,613b0d65888b01ec158025d6,62bbfae8a1312631f49c517a,2022-06-29_09h14.08.671,Colour_Asymmetry_Pilot,2022.1.3,Win32,59.76929054,62bbe60bf3d75ef465d3e404,,,,,,,,,,,,,,,,,,,,,,,,,,,,,,,,,,,,,,,,,,,,,,,,,,,,,,,,,,,,,,,,,,,,,,,,,,,,,,,,,,,,,,,,,,,,,,,,,,,,,,,,,,,,,,,,,,,,,,,,,,,,,,,,,,,,,,,,,,,,,,,,,,,,,,,,,,,,,,
0,87,87,37,1,,613b0d65888b01ec158025d6,62bbfae8a1312631f49c517a,2022-06-29_09h14.08.671,Colour_Asymmetry_Pilot,2022.1.3,Win32,59.76929054,62bbe60bf3d75ef465d3e404,,,,,,,,,,,,,,,,,,,,,,,,,,,,,,,,,,,,,,,,,,,,,,,,,,,,,,,,,,,,,,,,,,,,,,,,,,,,,,,,,,,,,,,,,,,,,,,,,,,,,,,,,,,,,,,,,,,,,,,,,,,,,,,,,,,,,,,,,,,,,,,,,,,,,,,,,,,,,,
0,88,88,50,1,,613b0d65888b01ec158025d6,62bbfae8a1312631f49c517a,2022-06-29_09h14.08.671,Colour_Asymmetry_Pilot,2022.1.3,Win32,59.76929054,62bbe60bf3d75ef465d3e404,,,,,,,,,,,,,,,,,,,,,,,,,,,,,,,,,,,,,,,,,,,,,,,,,,,,,,,,,,,,,,,,,,,,,,,,,,,,,,,,,,,,,,,,,,,,,,,,,,,,,,,,,,,,,,,,,,,,,,,,,,,,,,,,,,,,,,,,,,,,,,,,,,,,,,,,,,,,,,
0,89,89,90,1,,613b0d65888b01ec158025d6,62bbfae8a1312631f49c517a,2022-06-29_09h14.08.671,Colour_Asymmetry_Pilot,2022.1.3,Win32,59.76929054,62bbe60bf3d75ef465d3e404,,,,,,,,,,,,,,,,,,,,,,,,,,,,,,,,,,,,,,,,,,,,,,,,,,,,,,,,,,,,,,,,,,,,,,,,,,,,,,,,,,,,,,,,,,,,,,,,,,,,,,,,,,,,,,,,,,,,,,,,,,,,,,,,,,,,,,,,,,,,,,,,,,,,,,,,,,,,,,
0,90,90,57,1,,613b0d65888b01ec158025d6,62bbfae8a1312631f49c517a,2022-06-29_09h14.08.671,Colour_Asymmetry_Pilot,2022.1.3,Win32,59.76929054,62bbe60bf3d75ef465d3e404,,,,,,,,,,,,,,,,,,,,,,,,,,,,,,,,,,,,,,,,,,,,,,,,,,,,,,,,,,,,,,,,,,,,,,,,,,,,,,,,,,,,,,,,,,,,,,,,,,,,,,,,,,,,,,,,,,,,,,,,,,,,,,,,,,,,,,,,,,,,,,,,,,,,,,,,,,,,,,
0,91,91,80,1,,613b0d65888b01ec158025d6,62bbfae8a1312631f49c517a,2022-06-29_09h14.08.671,Colour_Asymmetry_Pilot,2022.1.3,Win32,59.76929054,62bbe60bf3d75ef465d3e404,,,,,,,,,,,,,,,,,,,,,,,,,,,,,,,,,,,,,,,,,,,,,,,,,,,,,,,,,,,,,,,,,,,,,,,,,,,,,,,,,,,,,,,,,,,,,,,,,,,,,,,,,,,,,,,,,,,,,,,,,,,,,,,,,,,,,,,,,,,,,,,,,,,,,,,,,,,,,,
0,92,92,8,1,,613b0d65888b01ec158025d6,62bbfae8a1312631f49c517a,2022-06-29_09h14.08.671,Colour_Asymmetry_Pilot,2022.1.3,Win32,59.76929054,62bbe60bf3d75ef465d3e404,,,,,,,,,,,,,,,,,,,,,,,,,,,,,,,,,,,,,,,,,,,,,,,,,,,,,,,,,,,,,,,,,,,,,,,,,,,,,,,,,,,,,,,,,,,,,,,,,,,,,,,,,,,,,,,,,,,,,,,,,,,,,,,,,,,,,,,,,,,,,,,,,,,,,,,,,,,,,,
,,,,,,613b0d65888b01ec158025d6,62bbfae8a1312631f49c517a,2022-06-29_09h14.08.671,Colour_Asymmetry_Pilot,2022.1.3,Win32,59.76929054,62bbe60bf3d75ef465d3e404,0,0,0,25,1,onethree,,,,,,,,,,,,,,,,,,,,,,,,,,,,,,,,,,,,,,,,,,,,,,,,,,,,,,,,,,,,,,,,,,,,,,,,,,,,,,,,,,,,,,,,,,,,,,,,,,,,,,,,,,,,,,,,,,,,,,,,,,,,,,,,,,,,,,,,,,,,,,,,,,,,,,,,
,,,,,,613b0d65888b01ec158025d6,62bbfae8a1312631f49c517a,2022-06-29_09h14.08.671,Colour_Asymmetry_Pilot,2022.1.3,Win32,59.76929054,62bbe60bf3d75ef465d3e404,0,1,1,39,1,fourthree,,,,,,,,,,,,,,,,,,,,,,,,,,,,,,,,,,,,,,,,,,,,,,,,,,,,,,,,,,,,,,,,,,,,,,,,,,,,,,,,,,,,,,,,,,,,,,,,,,,,,,,,,,,,,,,,,,,,,,,,,,,,,,,,,,,,,,,,,,,,,,,,,,,,,,,,
,,,,,,613b0d65888b01ec158025d6,62bbfae8a1312631f49c517a,2022-06-29_09h14.08.671,Colour_Asymmetry_Pilot,2022.1.3,Win32,59.76929054,62bbe60bf3d75ef465d3e404,0,2,2,158,1,fourtwo,,,,,,,,,,,,,,,,,,,,,,,,,,,,,,,,,,,,,,,,,,,,,,,,,,,,,,,,,,,,,,,,,,,,,,,,,,,,,,,,,,,,,,,,,,,,,,,,,,,,,,,,,,,,,,,,,,,,,,,,,,,,,,,,,,,,,,,,,,,,,,,,,,,,,,,,
,,,,,,613b0d65888b01ec158025d6,62bbfae8a1312631f49c517a,2022-06-29_09h14.08.671,Colour_Asymmetry_Pilot,2022.1.3,Win32,59.76929054,62bbe60bf3d75ef465d3e404,0,3,3,45,1,threefour,,,,,,,,,,,,,,,,,,,,,,,,,,,,,,,,,,,,,,,,,,,,,,,,,,,,,,,,,,,,,,,,,,,,,,,,,,,,,,,,,,,,,,,,,,,,,,,,,,,,,,,,,,,,,,,,,,,,,,,,,,,,,,,,,,,,,,,,,,,,,,,,,,,,,,,,
,,,,,,613b0d65888b01ec158025d6,62bbfae8a1312631f49c517a,2022-06-29_09h14.08.671,Colour_Asymmetry_Pilot,2022.1.3,Win32,59.76929054,62bbe60bf3d75ef465d3e404,0,4,4,157,1,threefour,,,,,,,,,,,,,,,,,,,,,,,,,,,,,,,,,,,,,,,,,,,,,,,,,,,,,,,,,,,,,,,,,,,,,,,,,,,,,,,,,,,,,,,,,,,,,,,,,,,,,,,,,,,,,,,,,,,,,,,,,,,,,,,,,,,,,,,,,,,,,,,,,,,,,,,,
,,,,,,613b0d65888b01ec158025d6,62bbfae8a1312631f49c517a,2022-06-29_09h14.08.671,Colour_Asymmetry_Pilot,2022.1.3,Win32,59.76929054,62bbe60bf3d75ef465d3e404,0,5,5,150,1,fourtwo,,,,,,,,,,,,,,,,,,,,,,,,,,,,,,,,,,,,,,,,,,,,,,,,,,,,,,,,,,,,,,,,,,,,,,,,,,,,,,,,,,,,,,,,,,,,,,,,,,,,,,,,,,,,,,,,,,,,,,,,,,,,,,,,,,,,,,,,,,,,,,,,,,,,,,,,
,,,,,,613b0d65888b01ec158025d6,62bbfae8a1312631f49c517a,2022-06-29_09h14.08.671,Colour_Asymmetry_Pilot,2022.1.3,Win32,59.76929054,62bbe60bf3d75ef465d3e404,0,6,6,70,1,fourtwo,,,,,,,,,,,,,,,,,,,,,,,,,,,,,,,,,,,,,,,,,,,,,,,,,,,,,,,,,,,,,,,,,,,,,,,,,,,,,,,,,,,,,,,,,,,,,,,,,,,,,,,,,,,,,,,,,,,,,,,,,,,,,,,,,,,,,,,,,,,,,,,,,,,,,,,,
,,,,,,613b0d65888b01ec158025d6,62bbfae8a1312631f49c517a,2022-06-29_09h14.08.671,Colour_Asymmetry_Pilot,2022.1.3,Win32,59.76929054,62bbe60bf3d75ef465d3e404,0,7,7,69,1,threefour,,,,,,,,,,,,,,,,,,,,,,,,,,,,,,,,,,,,,,,,,,,,,,,,,,,,,,,,,,,,,,,,,,,,,,,,,,,,,,,,,,,,,,,,,,,,,,,,,,,,,,,,,,,,,,,,,,,,,,,,,,,,,,,,,,,,,,,,,,,,,,,,,,,,,,,,
,,,,,,613b0d65888b01ec158025d6,62bbfae8a1312631f49c517a,2022-06-29_09h14.08.671,Colour_Asymmetry_Pilot,2022.1.3,Win32,59.76929054,62bbe60bf3d75ef465d3e404,0,8,8,7,1,fourthree,,,,,,,,,,,,,,,,,,,,,,,,,,,,,,,,,,,,,,,,,,,,,,,,,,,,,,,,,,,,,,,,,,,,,,,,,,,,,,,,,,,,,,,,,,,,,,,,,,,,,,,,,,,,,,,,,,,,,,,,,,,,,,,,,,,,,,,,,,,,,,,,,,,,,,,,
,,,,,,613b0d65888b01ec158025d6,62bbfae8a1312631f49c517a,2022-06-29_09h14.08.671,Colour_Asymmetry_Pilot,2022.1.3,Win32,59.76929054,62bbe60bf3d75ef465d3e404,0,9,9,152,1,onetwo,,,,,,,,,,,,,,,,,,,,,,,,,,,,,,,,,,,,,,,,,,,,,,,,,,,,,,,,,,,,,,,,,,,,,,,,,,,,,,,,,,,,,,,,,,,,,,,,,,,,,,,,,,,,,,,,,,,,,,,,,,,,,,,,,,,,,,,,,,,,,,,,,,,,,,,,
,,,,,,613b0d65888b01ec158025d6,62bbfae8a1312631f49c517a,2022-06-29_09h14.08.671,Colour_Asymmetry_Pilot,2022.1.3,Win32,59.76929054,62bbe60bf3d75ef465d3e404,0,10,10,127,1,fourthree,,,,,,,,,,,,,,,,,,,,,,,,,,,,,,,,,,,,,,,,,,,,,,,,,,,,,,,,,,,,,,,,,,,,,,,,,,,,,,,,,,,,,,,,,,,,,,,,,,,,,,,,,,,,,,,,,,,,,,,,,,,,,,,,,,,,,,,,,,,,,,,,,,,,,,,,
,,,,,,613b0d65888b01ec158025d6,62bbfae8a1312631f49c517a,2022-06-29_09h14.08.671,Colour_Asymmetry_Pilot,2022.1.3,Win32,59.76929054,62bbe60bf3d75ef465d3e404,0,11,11,99,1,twofour,,,,,,,,,,,,,,,,,,,,,,,,,,,,,,,,,,,,,,,,,,,,,,,,,,,,,,,,,,,,,,,,,,,,,,,,,,,,,,,,,,,,,,,,,,,,,,,,,,,,,,,,,,,,,,,,,,,,,,,,,,,,,,,,,,,,,,,,,,,,,,,,,,,,,,,,
,,,,,,613b0d65888b01ec158025d6,62bbfae8a1312631f49c517a,2022-06-29_09h14.08.671,Colour_Asymmetry_Pilot,2022.1.3,Win32,59.76929054,62bbe60bf3d75ef465d3e404,0,12,12,113,1,onethree,,,,,,,,,,,,,,,,,,,,,,,,,,,,,,,,,,,,,,,,,,,,,,,,,,,,,,,,,,,,,,,,,,,,,,,,,,,,,,,,,,,,,,,,,,,,,,,,,,,,,,,,,,,,,,,,,,,,,,,,,,,,,,,,,,,,,,,,,,,,,,,,,,,,,,,,
,,,,,,613b0d65888b01ec158025d6,62bbfae8a1312631f49c517a,2022-06-29_09h14.08.671,Colour_Asymmetry_Pilot,2022.1.3,Win32,59.76929054,62bbe60bf3d75ef465d3e404,0,13,13,31,1,fourthree,,,,,,,,,,,,,,,,,,,,,,,,,,,,,,,,,,,,,,,,,,,,,,,,,,,,,,,,,,,,,,,,,,,,,,,,,,,,,,,,,,,,,,,,,,,,,,,,,,,,,,,,,,,,,,,,,,,,,,,,,,,,,,,,,,,,,,,,,,,,,,,,,,,,,,,,
,,,,,,613b0d65888b01ec158025d6,62bbfae8a1312631f49c517a,2022-06-29_09h14.08.671,Colour_Asymmetry_Pilot,2022.1.3,Win32,59.76929054,62bbe60bf3d75ef465d3e404,0,14,14,109,1,threefour,,,,,,,,,,,,,,,,,,,,,,,,,,,,,,,,,,,,,,,,,,,,,,,,,,,,,,,,,,,,,,,,,,,,,,,,,,,,,,,,,,,,,,,,,,,,,,,,,,,,,,,,,,,,,,,,,,,,,,,,,,,,,,,,,,,,,,,,,,,,,,,,,,,,,,,,
,,,,,,613b0d65888b01ec158025d6,62bbfae8a1312631f49c517a,2022-06-29_09h14.08.671,Colour_Asymmetry_Pilot,2022.1.3,Win32,59.76929054,62bbe60bf3d75ef465d3e404,0,15,15,12,1,threeone,,,,,,,,,,,,,,,,,,,,,,,,,,,,,,,,,,,,,,,,,,,,,,,,,,,,,,,,,,,,,,,,,,,,,,,,,,,,,,,,,,,,,,,,,,,,,,,,,,,,,,,,,,,,,,,,,,,,,,,,,,,,,,,,,,,,,,,,,,,,,,,,,,,,,,,,
,,,,,,613b0d65888b01ec158025d6,62bbfae8a1312631f49c517a,2022-06-29_09h14.08.671,Colour_Asymmetry_Pilot,2022.1.3,Win32,59.76929054,62bbe60bf3d75ef465d3e404,0,16,16,84,1,threeone,,,,,,,,,,,,,,,,,,,,,,,,,,,,,,,,,,,,,,,,,,,,,,,,,,,,,,,,,,,,,,,,,,,,,,,,,,,,,,,,,,,,,,,,,,,,,,,,,,,,,,,,,,,,,,,,,,,,,,,,,,,,,,,,,,,,,,,,,,,,,,,,,,,,,,,,
,,,,,,613b0d65888b01ec158025d6,62bbfae8a1312631f49c517a,2022-06-29_09h14.08.671,Colour_Asymmetry_Pilot,2022.1.3,Win32,59.76929054,62bbe60bf3d75ef465d3e404,0,17,17,138,1,twoone,,,,,,,,,,,,,,,,,,,,,,,,,,,,,,,,,,,,,,,,,,,,,,,,,,,,,,,,,,,,,,,,,,,,,,,,,,,,,,,,,,,,,,,,,,,,,,,,,,,,,,,,,,,,,,,,,,,,,,,,,,,,,,,,,,,,,,,,,,,,,,,,,,,,,,,,
,,,,,,613b0d65888b01ec158025d6,62bbfae8a1312631f49c517a,2022-06-29_09h14.08.671,Colour_Asymmetry_Pilot,2022.1.3,Win32,59.76929054,62bbe60bf3d75ef465d3e404,0,18,18,30,1,fourtwo,,,,,,,,,,,,,,,,,,,,,,,,,,,,,,,,,,,,,,,,,,,,,,,,,,,,,,,,,,,,,,,,,,,,,,,,,,,,,,,,,,,,,,,,,,,,,,,,,,,,,,,,,,,,,,,,,,,,,,,,,,,,,,,,,,,,,,,,,,,,,,,,,,,,,,,,
,,,,,,613b0d65888b01ec158025d6,62bbfae8a1312631f49c517a,2022-06-29_09h14.08.671,Colour_Asymmetry_Pilot,2022.1.3,Win32,59.76929054,62bbe60bf3d75ef465d3e404,0,19,19,106,1,twoone,,,,,,,,,,,,,,,,,,,,,,,,,,,,,,,,,,,,,,,,,,,,,,,,,,,,,,,,,,,,,,,,,,,,,,,,,,,,,,,,,,,,,,,,,,,,,,,,,,,,,,,,,,,,,,,,,,,,,,,,,,,,,,,,,,,,,,,,,,,,,,,,,,,,,,,,
,,,,,,613b0d65888b01ec158025d6,62bbfae8a1312631f49c517a,2022-06-29_09h14.08.671,Colour_Asymmetry_Pilot,2022.1.3,Win32,59.76929054,62bbe60bf3d75ef465d3e404,0,20,20,51,1,twofour,,,,,,,,,,,,,,,,,,,,,,,,,,,,,,,,,,,,,,,,,,,,,,,,,,,,,,,,,,,,,,,,,,,,,,,,,,,,,,,,,,,,,,,,,,,,,,,,,,,,,,,,,,,,,,,,,,,,,,,,,,,,,,,,,,,,,,,,,,,,,,,,,,,,,,,,
,,,,,,613b0d65888b01ec158025d6,62bbfae8a1312631f49c517a,2022-06-29_09h14.08.671,Colour_Asymmetry_Pilot,2022.1.3,Win32,59.76929054,62bbe60bf3d75ef465d3e404,0,21,21,21,1,threefour,,,,,,,,,,,,,,,,,,,,,,,,,,,,,,,,,,,,,,,,,,,,,,,,,,,,,,,,,,,,,,,,,,,,,,,,,,,,,,,,,,,,,,,,,,,,,,,,,,,,,,,,,,,,,,,,,,,,,,,,,,,,,,,,,,,,,,,,,,,,,,,,,,,,,,,,
,,,,,,613b0d65888b01ec158025d6,62bbfae8a1312631f49c517a,2022-06-29_09h14.08.671,Colour_Asymmetry_Pilot,2022.1.3,Win32,59.76929054,62bbe60bf3d75ef465d3e404,0,22,22,135,1,fourthree,,,,,,,,,,,,,,,,,,,,,,,,,,,,,,,,,,,,,,,,,,,,,,,,,,,,,,,,,,,,,,,,,,,,,,,,,,,,,,,,,,,,,,,,,,,,,,,,,,,,,,,,,,,,,,,,,,,,,,,,,,,,,,,,,,,,,,,,,,,,,,,,,,,,,,,,
,,,,,,613b0d65888b01ec158025d6,62bbfae8a1312631f49c517a,2022-06-29_09h14.08.671,Colour_Asymmetry_Pilot,2022.1.3,Win32,59.76929054,62bbe60bf3d75ef465d3e404,0,23,23,15,1,fourthree,,,,,,,,,,,,,,,,,,,,,,,,,,,,,,,,,,,,,,,,,,,,,,,,,,,,,,,,,,,,,,,,,,,,,,,,,,,,,,,,,,,,,,,,,,,,,,,,,,,,,,,,,,,,,,,,,,,,,,,,,,,,,,,,,,,,,,,,,,,,,,,,,,,,,,,,
,,,,,,613b0d65888b01ec158025d6,62bbfae8a1312631f49c517a,2022-06-29_09h14.08.671,Colour_Asymmetry_Pilot,2022.1.3,Win32,59.76929054,62bbe60bf3d75ef465d3e404,0,24,24,151,1,fourthree,,,,,,,,,,,,,,,,,,,,,,,,,,,,,,,,,,,,,,,,,,,,,,,,,,,,,,,,,,,,,,,,,,,,,,,,,,,,,,,,,,,,,,,,,,,,,,,,,,,,,,,,,,,,,,,,,,,,,,,,,,,,,,,,,,,,,,,,,,,,,,,,,,,,,,,,
,,,,,,613b0d65888b01ec158025d6,62bbfae8a1312631f49c517a,2022-06-29_09h14.08.671,Colour_Asymmetry_Pilot,2022.1.3,Win32,59.76929054,62bbe60bf3d75ef465d3e404,0,25,25,126,1,fourtwo,,,,,,,,,,,,,,,,,,,,,,,,,,,,,,,,,,,,,,,,,,,,,,,,,,,,,,,,,,,,,,,,,,,,,,,,,,,,,,,,,,,,,,,,,,,,,,,,,,,,,,,,,,,,,,,,,,,,,,,,,,,,,,,,,,,,,,,,,,,,,,,,,,,,,,,,
,,,,,,613b0d65888b01ec158025d6,62bbfae8a1312631f49c517a,2022-06-29_09h14.08.671,Colour_Asymmetry_Pilot,2022.1.3,Win32,59.76929054,62bbe60bf3d75ef465d3e404,0,26,26,17,1,onethree,,,,,,,,,,,,,,,,,,,,,,,,,,,,,,,,,,,,,,,,,,,,,,,,,,,,,,,,,,,,,,,,,,,,,,,,,,,,,,,,,,,,,,,,,,,,,,,,,,,,,,,,,,,,,,,,,,,,,,,,,,,,,,,,,,,,,,,,,,,,,,,,,,,,,,,,
,,,,,,613b0d65888b01ec158025d6,62bbfae8a1312631f49c517a,2022-06-29_09h14.08.671,Colour_Asymmetry_Pilot,2022.1.3,Win32,59.76929054,62bbe60bf3d75ef465d3e404,0,27,27,117,1,threefour,,,,,,,,,,,,,,,,,,,,,,,,,,,,,,,,,,,,,,,,,,,,,,,,,,,,,,,,,,,,,,,,,,,,,,,,,,,,,,,,,,,,,,,,,,,,,,,,,,,,,,,,,,,,,,,,,,,,,,,,,,,,,,,,,,,,,,,,,,,,,,,,,,,,,,,,
,,,,,,613b0d65888b01ec158025d6,62bbfae8a1312631f49c517a,2022-06-29_09h14.08.671,Colour_Asymmetry_Pilot,2022.1.3,Win32,59.76929054,62bbe60bf3d75ef465d3e404,0,28,28,37,1,threefour,,,,,,,,,,,,,,,,,,,,,,,,,,,,,,,,,,,,,,,,,,,,,,,,,,,,,,,,,,,,,,,,,,,,,,,,,,,,,,,,,,,,,,,,,,,,,,,,,,,,,,,,,,,,,,,,,,,,,,,,,,,,,,,,,,,,,,,,,,,,,,,,,,,,,,,,
,,,,,,613b0d65888b01ec158025d6,62bbfae8a1312631f49c517a,2022-06-29_09h14.08.671,Colour_Asymmetry_Pilot,2022.1.3,Win32,59.76929054,62bbe60bf3d75ef465d3e404,0,29,29,107,1,twofour,,,,,,,,,,,,,,,,,,,,,,,,,,,,,,,,,,,,,,,,,,,,,,,,,,,,,,,,,,,,,,,,,,,,,,,,,,,,,,,,,,,,,,,,,,,,,,,,,,,,,,,,,,,,,,,,,,,,,,,,,,,,,,,,,,,,,,,,,,,,,,,,,,,,,,,,
,,,,,,613b0d65888b01ec158025d6,62bbfae8a1312631f49c517a,2022-06-29_09h14.08.671,Colour_Asymmetry_Pilot,2022.1.3,Win32,59.76929054,62bbe60bf3d75ef465d3e404,0,30,30,142,1,fourtwo,,,,,,,,,,,,,,,,,,,,,,,,,,,,,,,,,,,,,,,,,,,,,,,,,,,,,,,,,,,,,,,,,,,,,,,,,,,,,,,,,,,,,,,,,,,,,,,,,,,,,,,,,,,,,,,,,,,,,,,,,,,,,,,,,,,,,,,,,,,,,,,,,,,,,,,,
,,,,,,613b0d65888b01ec158025d6,62bbfae8a1312631f49c517a,2022-06-29_09h14.08.671,Colour_Asymmetry_Pilot,2022.1.3,Win32,59.76929054,62bbe60bf3d75ef465d3e404,0,31,31,145,1,onethree,,,,,,,,,,,,,,,,,,,,,,,,,,,,,,,,,,,,,,,,,,,,,,,,,,,,,,,,,,,,,,,,,,,,,,,,,,,,,,,,,,,,,,,,,,,,,,,,,,,,,,,,,,,,,,,,,,,,,,,,,,,,,,,,,,,,,,,,,,,,,,,,,,,,,,,,
,,,,,,613b0d65888b01ec158025d6,62bbfae8a1312631f49c517a,2022-06-29_09h14.08.671,Colour_Asymmetry_Pilot,2022.1.3,Win32,59.76929054,62bbe60bf3d75ef465d3e404,0,32,32,5,1,threefour,,,,,,,,,,,,,,,,,,,,,,,,,,,,,,,,,,,,,,,,,,,,,,,,,,,,,,,,,,,,,,,,,,,,,,,,,,,,,,,,,,,,,,,,,,,,,,,,,,,,,,,,,,,,,,,,,,,,,,,,,,,,,,,,,,,,,,,,,,,,,,,,,,,,,,,,
,,,,,,613b0d65888b01ec158025d6,62bbfae8a1312631f49c517a,2022-06-29_09h14.08.671,Colour_Asymmetry_Pilot,2022.1.3,Win32,59.76929054,62bbe60bf3d75ef465d3e404,0,33,33,78,1,fourtwo,,,,,,,,,,,,,,,,,,,,,,,,,,,,,,,,,,,,,,,,,,,,,,,,,,,,,,,,,,,,,,,,,,,,,,,,,,,,,,,,,,,,,,,,,,,,,,,,,,,,,,,,,,,,,,,,,,,,,,,,,,,,,,,,,,,,,,,,,,,,,,,,,,,,,,,,
,,,,,,613b0d65888b01ec158025d6,62bbfae8a1312631f49c517a,2022-06-29_09h14.08.671,Colour_Asymmetry_Pilot,2022.1.3,Win32,59.76929054,62bbe60bf3d75ef465d3e404,0,34,34,129,1,onethree,,,,,,,,,,,,,,,,,,,,,,,,,,,,,,,,,,,,,,,,,,,,,,,,,,,,,,,,,,,,,,,,,,,,,,,,,,,,,,,,,,,,,,,,,,,,,,,,,,,,,,,,,,,,,,,,,,,,,,,,,,,,,,,,,,,,,,,,,,,,,,,,,,,,,,,,
,,,,,,613b0d65888b01ec158025d6,62bbfae8a1312631f49c517a,2022-06-29_09h14.08.671,Colour_Asymmetry_Pilot,2022.1.3,Win32,59.76929054,62bbe60bf3d75ef465d3e404,0,35,35,85,1,threefour,,,,,,,,,,,,,,,,,,,,,,,,,,,,,,,,,,,,,,,,,,,,,,,,,,,,,,,,,,,,,,,,,,,,,,,,,,,,,,,,,,,,,,,,,,,,,,,,,,,,,,,,,,,,,,,,,,,,,,,,,,,,,,,,,,,,,,,,,,,,,,,,,,,,,,,,
,,,,,,613b0d65888b01ec158025d6,62bbfae8a1312631f49c517a,2022-06-29_09h14.08.671,Colour_Asymmetry_Pilot,2022.1.3,Win32,59.76929054,62bbe60bf3d75ef465d3e404,0,36,36,133,1,threefour,,,,,,,,,,,,,,,,,,,,,,,,,,,,,,,,,,,,,,,,,,,,,,,,,,,,,,,,,,,,,,,,,,,,,,,,,,,,,,,,,,,,,,,,,,,,,,,,,,,,,,,,,,,,,,,,,,,,,,,,,,,,,,,,,,,,,,,,,,,,,,,,,,,,,,,,
,,,,,,613b0d65888b01ec158025d6,62bbfae8a1312631f49c517a,2022-06-29_09h14.08.671,Colour_Asymmetry_Pilot,2022.1.3,Win32,59.76929054,62bbe60bf3d75ef465d3e404,0,37,37,10,1,twoone,,,,,,,,,,,,,,,,,,,,,,,,,,,,,,,,,,,,,,,,,,,,,,,,,,,,,,,,,,,,,,,,,,,,,,,,,,,,,,,,,,,,,,,,,,,,,,,,,,,,,,,,,,,,,,,,,,,,,,,,,,,,,,,,,,,,,,,,,,,,,,,,,,,,,,,,
,,,,,,613b0d65888b01ec158025d6,62bbfae8a1312631f49c517a,2022-06-29_09h14.08.671,Colour_Asymmetry_Pilot,2022.1.3,Win32,59.76929054,62bbe60bf3d75ef465d3e404,0,38,38,0,1,onetwo,,,,,,,,,,,,,,,,,,,,,,,,,,,,,,,,,,,,,,,,,,,,,,,,,,,,,,,,,,,,,,,,,,,,,,,,,,,,,,,,,,,,,,,,,,,,,,,,,,,,,,,,,,,,,,,,,,,,,,,,,,,,,,,,,,,,,,,,,,,,,,,,,,,,,,,,
,,,,,,613b0d65888b01ec158025d6,62bbfae8a1312631f49c517a,2022-06-29_09h14.08.671,Colour_Asymmetry_Pilot,2022.1.3,Win32,59.76929054,62bbe60bf3d75ef465d3e404,0,39,39,111,1,fourthree,,,,,,,,,,,,,,,,,,,,,,,,,,,,,,,,,,,,,,,,,,,,,,,,,,,,,,,,,,,,,,,,,,,,,,,,,,,,,,,,,,,,,,,,,,,,,,,,,,,,,,,,,,,,,,,,,,,,,,,,,,,,,,,,,,,,,,,,,,,,,,,,,,,,,,,,
,,,,,,613b0d65888b01ec158025d6,62bbfae8a1312631f49c517a,2022-06-29_09h14.08.671,Colour_Asymmetry_Pilot,2022.1.3,Win32,59.76929054,62bbe60bf3d75ef465d3e404,0,40,40,26,1,twoone,,,,,,,,,,,,,,,,,,,,,,,,,,,,,,,,,,,,,,,,,,,,,,,,,,,,,,,,,,,,,,,,,,,,,,,,,,,,,,,,,,,,,,,,,,,,,,,,,,,,,,,,,,,,,,,,,,,,,,,,,,,,,,,,,,,,,,,,,,,,,,,,,,,,,,,,
,,,,,,613b0d65888b01ec158025d6,62bbfae8a1312631f49c517a,2022-06-29_09h14.08.671,Colour_Asymmetry_Pilot,2022.1.3,Win32,59.76929054,62bbe60bf3d75ef465d3e404,0,41,41,50,1,twoone,,,,,,,,,,,,,,,,,,,,,,,,,,,,,,,,,,,,,,,,,,,,,,,,,,,,,,,,,,,,,,,,,,,,,,,,,,,,,,,,,,,,,,,,,,,,,,,,,,,,,,,,,,,,,,,,,,,,,,,,,,,,,,,,,,,,,,,,,,,,,,,,,,,,,,,,
,,,,,,613b0d65888b01ec158025d6,62bbfae8a1312631f49c517a,2022-06-29_09h14.08.671,Colour_Asymmetry_Pilot,2022.1.3,Win32,59.76929054,62bbe60bf3d75ef465d3e404,0,42,42,79,1,fourthree,,,,,,,,,,,,,,,,,,,,,,,,,,,,,,,,,,,,,,,,,,,,,,,,,,,,,,,,,,,,,,,,,,,,,,,,,,,,,,,,,,,,,,,,,,,,,,,,,,,,,,,,,,,,,,,,,,,,,,,,,,,,,,,,,,,,,,,,,,,,,,,,,,,,,,,,
,,,,,,613b0d65888b01ec158025d6,62bbfae8a1312631f49c517a,2022-06-29_09h14.08.671,Colour_Asymmetry_Pilot,2022.1.3,Win32,59.76929054,62bbe60bf3d75ef465d3e404,0,43,43,60,1,threeone,,,,,,,,,,,,,,,,,,,,,,,,,,,,,,,,,,,,,,,,,,,,,,,,,,,,,,,,,,,,,,,,,,,,,,,,,,,,,,,,,,,,,,,,,,,,,,,,,,,,,,,,,,,,,,,,,,,,,,,,,,,,,,,,,,,,,,,,,,,,,,,,,,,,,,,,
,,,,,,613b0d65888b01ec158025d6,62bbfae8a1312631f49c517a,2022-06-29_09h14.08.671,Colour_Asymmetry_Pilot,2022.1.3,Win32,59.76929054,62bbe60bf3d75ef465d3e404,0,44,44,121,1,onethree,,,,,,,,,,,,,,,,,,,,,,,,,,,,,,,,,,,,,,,,,,,,,,,,,,,,,,,,,,,,,,,,,,,,,,,,,,,,,,,,,,,,,,,,,,,,,,,,,,,,,,,,,,,,,,,,,,,,,,,,,,,,,,,,,,,,,,,,,,,,,,,,,,,,,,,,
,,,,,,613b0d65888b01ec158025d6,62bbfae8a1312631f49c517a,2022-06-29_09h14.08.671,Colour_Asymmetry_Pilot,2022.1.3,Win32,59.76929054,62bbe60bf3d75ef465d3e404,0,45,45,90,1,twoone,,,,,,,,,,,,,,,,,,,,,,,,,,,,,,,,,,,,,,,,,,,,,,,,,,,,,,,,,,,,,,,,,,,,,,,,,,,,,,,,,,,,,,,,,,,,,,,,,,,,,,,,,,,,,,,,,,,,,,,,,,,,,,,,,,,,,,,,,,,,,,,,,,,,,,,,
,,,,,,613b0d65888b01ec158025d6,62bbfae8a1312631f49c517a,2022-06-29_09h14.08.671,Colour_Asymmetry_Pilot,2022.1.3,Win32,59.76929054,62bbe60bf3d75ef465d3e404,0,46,46,62,1,fourtwo,,,,,,,,,,,,,,,,,,,,,,,,,,,,,,,,,,,,,,,,,,,,,,,,,,,,,,,,,,,,,,,,,,,,,,,,,,,,,,,,,,,,,,,,,,,,,,,,,,,,,,,,,,,,,,,,,,,,,,,,,,,,,,,,,,,,,,,,,,,,,,,,,,,,,,,,
,,,,,,613b0d65888b01ec158025d6,62bbfae8a1312631f49c517a,2022-06-29_09h14.08.671,Colour_Asymmetry_Pilot,2022.1.3,Win32,59.76929054,62bbe60bf3d75ef465d3e404,0,47,47,137,1,onethree,,,,,,,,,,,,,,,,,,,,,,,,,,,,,,,,,,,,,,,,,,,,,,,,,,,,,,,,,,,,,,,,,,,,,,,,,,,,,,,,,,,,,,,,,,,,,,,,,,,,,,,,,,,,,,,,,,,,,,,,,,,,,,,,,,,,,,,,,,,,,,,,,,,,,,,,
,,,,,,613b0d65888b01ec158025d6,62bbfae8a1312631f49c517a,2022-06-29_09h14.08.671,Colour_Asymmetry_Pilot,2022.1.3,Win32,59.76929054,62bbe60bf3d75ef465d3e404,0,48,48,102,1,fourtwo,,,,,,,,,,,,,,,,,,,,,,,,,,,,,,,,,,,,,,,,,,,,,,,,,,,,,,,,,,,,,,,,,,,,,,,,,,,,,,,,,,,,,,,,,,,,,,,,,,,,,,,,,,,,,,,,,,,,,,,,,,,,,,,,,,,,,,,,,,,,,,,,,,,,,,,,
,,,,,,613b0d65888b01ec158025d6,62bbfae8a1312631f49c517a,2022-06-29_09h14.08.671,Colour_Asymmetry_Pilot,2022.1.3,Win32,59.76929054,62bbe60bf3d75ef465d3e404,0,49,49,160,1,onetwo,,,,,,,,,,,,,,,,,,,,,,,,,,,,,,,,,,,,,,,,,,,,,,,,,,,,,,,,,,,,,,,,,,,,,,,,,,,,,,,,,,,,,,,,,,,,,,,,,,,,,,,,,,,,,,,,,,,,,,,,,,,,,,,,,,,,,,,,,,,,,,,,,,,,,,,,
,,,,,,613b0d65888b01ec158025d6,62bbfae8a1312631f49c517a,2022-06-29_09h14.08.671,Colour_Asymmetry_Pilot,2022.1.3,Win32,59.76929054,62bbe60bf3d75ef465d3e404,0,50,50,132,1,threeone,,,,,,,,,,,,,,,,,,,,,,,,,,,,,,,,,,,,,,,,,,,,,,,,,,,,,,,,,,,,,,,,,,,,,,,,,,,,,,,,,,,,,,,,,,,,,,,,,,,,,,,,,,,,,,,,,,,,,,,,,,,,,,,,,,,,,,,,,,,,,,,,,,,,,,,,
,,,,,,613b0d65888b01ec158025d6,62bbfae8a1312631f49c517a,2022-06-29_09h14.08.671,Colour_Asymmetry_Pilot,2022.1.3,Win32,59.76929054,62bbe60bf3d75ef465d3e404,0,51,51,140,1,threeone,,,,,,,,,,,,,,,,,,,,,,,,,,,,,,,,,,,,,,,,,,,,,,,,,,,,,,,,,,,,,,,,,,,,,,,,,,,,,,,,,,,,,,,,,,,,,,,,,,,,,,,,,,,,,,,,,,,,,,,,,,,,,,,,,,,,,,,,,,,,,,,,,,,,,,,,
,,,,,,613b0d65888b01ec158025d6,62bbfae8a1312631f49c517a,2022-06-29_09h14.08.671,Colour_Asymmetry_Pilot,2022.1.3,Win32,59.76929054,62bbe60bf3d75ef465d3e404,0,52,52,128,1,onetwo,,,,,,,,,,,,,,,,,,,,,,,,,,,,,,,,,,,,,,,,,,,,,,,,,,,,,,,,,,,,,,,,,,,,,,,,,,,,,,,,,,,,,,,,,,,,,,,,,,,,,,,,,,,,,,,,,,,,,,,,,,,,,,,,,,,,,,,,,,,,,,,,,,,,,,,,
,,,,,,613b0d65888b01ec158025d6,62bbfae8a1312631f49c517a,2022-06-29_09h14.08.671,Colour_Asymmetry_Pilot,2022.1.3,Win32,59.76929054,62bbe60bf3d75ef465d3e404,0,53,53,80,1,onetwo,,,,,,,,,,,,,,,,,,,,,,,,,,,,,,,,,,,,,,,,,,,,,,,,,,,,,,,,,,,,,,,,,,,,,,,,,,,,,,,,,,,,,,,,,,,,,,,,,,,,,,,,,,,,,,,,,,,,,,,,,,,,,,,,,,,,,,,,,,,,,,,,,,,,,,,,
,,,,,,613b0d65888b01ec158025d6,62bbfae8a1312631f49c517a,2022-06-29_09h14.08.671,Colour_Asymmetry_Pilot,2022.1.3,Win32,59.76929054,62bbe60bf3d75ef465d3e404,0,54,54,72,1,onetwo,,,,,,,,,,,,,,,,,,,,,,,,,,,,,,,,,,,,,,,,,,,,,,,,,,,,,,,,,,,,,,,,,,,,,,,,,,,,,,,,,,,,,,,,,,,,,,,,,,,,,,,,,,,,,,,,,,,,,,,,,,,,,,,,,,,,,,,,,,,,,,,,,,,,,,,,
,,,,,,613b0d65888b01ec158025d6,62bbfae8a1312631f49c517a,2022-06-29_09h14.08.671,Colour_Asymmetry_Pilot,2022.1.3,Win32,59.76929054,62bbe60bf3d75ef465d3e404,0,55,55,57,1,onethree,,,,,,,,,,,,,,,,,,,,,,,,,,,,,,,,,,,,,,,,,,,,,,,,,,,,,,,,,,,,,,,,,,,,,,,,,,,,,,,,,,,,,,,,,,,,,,,,,,,,,,,,,,,,,,,,,,,,,,,,,,,,,,,,,,,,,,,,,,,,,,,,,,,,,,,,
,,,,,,613b0d65888b01ec158025d6,62bbfae8a1312631f49c517a,2022-06-29_09h14.08.671,Colour_Asymmetry_Pilot,2022.1.3,Win32,59.76929054,62bbe60bf3d75ef465d3e404,0,56,56,4,1,threeone,,,,,,,,,,,,,,,,,,,,,,,,,,,,,,,,,,,,,,,,,,,,,,,,,,,,,,,,,,,,,,,,,,,,,,,,,,,,,,,,,,,,,,,,,,,,,,,,,,,,,,,,,,,,,,,,,,,,,,,,,,,,,,,,,,,,,,,,,,,,,,,,,,,,,,,,
,,,,,,613b0d65888b01ec158025d6,62bbfae8a1312631f49c517a,2022-06-29_09h14.08.671,Colour_Asymmetry_Pilot,2022.1.3,Win32,59.76929054,62bbe60bf3d75ef465d3e404,0,57,57,16,1,onetwo,,,,,,,,,,,,,,,,,,,,,,,,,,,,,,,,,,,,,,,,,,,,,,,,,,,,,,,,,,,,,,,,,,,,,,,,,,,,,,,,,,,,,,,,,,,,,,,,,,,,,,,,,,,,,,,,,,,,,,,,,,,,,,,,,,,,,,,,,,,,,,,,,,,,,,,,
,,,,,,613b0d65888b01ec158025d6,62bbfae8a1312631f49c517a,2022-06-29_09h14.08.671,Colour_Asymmetry_Pilot,2022.1.3,Win32,59.76929054,62bbe60bf3d75ef465d3e404,0,58,58,56,1,onetwo,,,,,,,,,,,,,,,,,,,,,,,,,,,,,,,,,,,,,,,,,,,,,,,,,,,,,,,,,,,,,,,,,,,,,,,,,,,,,,,,,,,,,,,,,,,,,,,,,,,,,,,,,,,,,,,,,,,,,,,,,,,,,,,,,,,,,,,,,,,,,,,,,,,,,,,,
,,,,,,613b0d65888b01ec158025d6,62bbfae8a1312631f49c517a,2022-06-29_09h14.08.671,Colour_Asymmetry_Pilot,2022.1.3,Win32,59.76929054,62bbe60bf3d75ef465d3e404,0,59,59,98,1,twoone,,,,,,,,,,,,,,,,,,,,,,,,,,,,,,,,,,,,,,,,,,,,,,,,,,,,,,,,,,,,,,,,,,,,,,,,,,,,,,,,,,,,,,,,,,,,,,,,,,,,,,,,,,,,,,,,,,,,,,,,,,,,,,,,,,,,,,,,,,,,,,,,,,,,,,,,
,,,,,,613b0d65888b01ec158025d6,62bbfae8a1312631f49c517a,2022-06-29_09h14.08.671,Colour_Asymmetry_Pilot,2022.1.3,Win32,59.76929054,62bbe60bf3d75ef465d3e404,0,60,60,13,1,threefour,,,,,,,,,,,,,,,,,,,,,,,,,,,,,,,,,,,,,,,,,,,,,,,,,,,,,,,,,,,,,,,,,,,,,,,,,,,,,,,,,,,,,,,,,,,,,,,,,,,,,,,,,,,,,,,,,,,,,,,,,,,,,,,,,,,,,,,,,,,,,,,,,,,,,,,,
,,,,,,613b0d65888b01ec158025d6,62bbfae8a1312631f49c517a,2022-06-29_09h14.08.671,Colour_Asymmetry_Pilot,2022.1.3,Win32,59.76929054,62bbe60bf3d75ef465d3e404,0,61,61,75,1,twofour,,,,,,,,,,,,,,,,,,,,,,,,,,,,,,,,,,,,,,,,,,,,,,,,,,,,,,,,,,,,,,,,,,,,,,,,,,,,,,,,,,,,,,,,,,,,,,,,,,,,,,,,,,,,,,,,,,,,,,,,,,,,,,,,,,,,,,,,,,,,,,,,,,,,,,,,
,,,,,,613b0d65888b01ec158025d6,62bbfae8a1312631f49c517a,2022-06-29_09h14.08.671,Colour_Asymmetry_Pilot,2022.1.3,Win32,59.76929054,62bbe60bf3d75ef465d3e404,0,62,62,2,1,twoone,,,,,,,,,,,,,,,,,,,,,,,,,,,,,,,,,,,,,,,,,,,,,,,,,,,,,,,,,,,,,,,,,,,,,,,,,,,,,,,,,,,,,,,,,,,,,,,,,,,,,,,,,,,,,,,,,,,,,,,,,,,,,,,,,,,,,,,,,,,,,,,,,,,,,,,,
,,,,,,613b0d65888b01ec158025d6,62bbfae8a1312631f49c517a,2022-06-29_09h14.08.671,Colour_Asymmetry_Pilot,2022.1.3,Win32,59.76929054,62bbe60bf3d75ef465d3e404,0,63,63,41,1,onethree,,,,,,,,,,,,,,,,,,,,,,,,,,,,,,,,,,,,,,,,,,,,,,,,,,,,,,,,,,,,,,,,,,,,,,,,,,,,,,,,,,,,,,,,,,,,,,,,,,,,,,,,,,,,,,,,,,,,,,,,,,,,,,,,,,,,,,,,,,,,,,,,,,,,,,,,
,,,,,,613b0d65888b01ec158025d6,62bbfae8a1312631f49c517a,2022-06-29_09h14.08.671,Colour_Asymmetry_Pilot,2022.1.3,Win32,59.76929054,62bbe60bf3d75ef465d3e404,0,64,64,124,1,threeone,,,,,,,,,,,,,,,,,,,,,,,,,,,,,,,,,,,,,,,,,,,,,,,,,,,,,,,,,,,,,,,,,,,,,,,,,,,,,,,,,,,,,,,,,,,,,,,,,,,,,,,,,,,,,,,,,,,,,,,,,,,,,,,,,,,,,,,,,,,,,,,,,,,,,,,,
,,,,,,613b0d65888b01ec158025d6,62bbfae8a1312631f49c517a,2022-06-29_09h14.08.671,Colour_Asymmetry_Pilot,2022.1.3,Win32,59.76929054,62bbe60bf3d75ef465d3e404,0,65,65,119,1,fourthree,,,,,,,,,,,,,,,,,,,,,,,,,,,,,,,,,,,,,,,,,,,,,,,,,,,,,,,,,,,,,,,,,,,,,,,,,,,,,,,,,,,,,,,,,,,,,,,,,,,,,,,,,,,,,,,,,,,,,,,,,,,,,,,,,,,,,,,,,,,,,,,,,,,,,,,,
,,,,,,613b0d65888b01ec158025d6,62bbfae8a1312631f49c517a,2022-06-29_09h14.08.671,Colour_Asymmetry_Pilot,2022.1.3,Win32,59.76929054,62bbe60bf3d75ef465d3e404,0,66,66,59,1,twofour,,,,,,,,,,,,,,,,,,,,,,,,,,,,,,,,,,,,,,,,,,,,,,,,,,,,,,,,,,,,,,,,,,,,,,,,,,,,,,,,,,,,,,,,,,,,,,,,,,,,,,,,,,,,,,,,,,,,,,,,,,,,,,,,,,,,,,,,,,,,,,,,,,,,,,,,
,,,,,,613b0d65888b01ec158025d6,62bbfae8a1312631f49c517a,2022-06-29_09h14.08.671,Colour_Asymmetry_Pilot,2022.1.3,Win32,59.76929054,62bbe60bf3d75ef465d3e404,0,67,67,24,1,onetwo,,,,,,,,,,,,,,,,,,,,,,,,,,,,,,,,,,,,,,,,,,,,,,,,,,,,,,,,,,,,,,,,,,,,,,,,,,,,,,,,,,,,,,,,,,,,,,,,,,,,,,,,,,,,,,,,,,,,,,,,,,,,,,,,,,,,,,,,,,,,,,,,,,,,,,,,
,,,,,,613b0d65888b01ec158025d6,62bbfae8a1312631f49c517a,2022-06-29_09h14.08.671,Colour_Asymmetry_Pilot,2022.1.3,Win32,59.76929054,62bbe60bf3d75ef465d3e404,0,68,68,9,1,onethree,,,,,,,,,,,,,,,,,,,,,,,,,,,,,,,,,,,,,,,,,,,,,,,,,,,,,,,,,,,,,,,,,,,,,,,,,,,,,,,,,,,,,,,,,,,,,,,,,,,,,,,,,,,,,,,,,,,,,,,,,,,,,,,,,,,,,,,,,,,,,,,,,,,,,,,,
,,,,,,613b0d65888b01ec158025d6,62bbfae8a1312631f49c517a,2022-06-29_09h14.08.671,Colour_Asymmetry_Pilot,2022.1.3,Win32,59.76929054,62bbe60bf3d75ef465d3e404,0,69,69,115,1,twofour,,,,,,,,,,,,,,,,,,,,,,,,,,,,,,,,,,,,,,,,,,,,,,,,,,,,,,,,,,,,,,,,,,,,,,,,,,,,,,,,,,,,,,,,,,,,,,,,,,,,,,,,,,,,,,,,,,,,,,,,,,,,,,,,,,,,,,,,,,,,,,,,,,,,,,,,
,,,,,,613b0d65888b01ec158025d6,62bbfae8a1312631f49c517a,2022-06-29_09h14.08.671,Colour_Asymmetry_Pilot,2022.1.3,Win32,59.76929054,62bbe60bf3d75ef465d3e404,0,70,70,114,1,twoone,,,,,,,,,,,,,,,,,,,,,,,,,,,,,,,,,,,,,,,,,,,,,,,,,,,,,,,,,,,,,,,,,,,,,,,,,,,,,,,,,,,,,,,,,,,,,,,,,,,,,,,,,,,,,,,,,,,,,,,,,,,,,,,,,,,,,,,,,,,,,,,,,,,,,,,,
,,,,,,613b0d65888b01ec158025d6,62bbfae8a1312631f49c517a,2022-06-29_09h14.08.671,Colour_Asymmetry_Pilot,2022.1.3,Win32,59.76929054,62bbe60bf3d75ef465d3e404,0,71,71,148,1,threeone,,,,,,,,,,,,,,,,,,,,,,,,,,,,,,,,,,,,,,,,,,,,,,,,,,,,,,,,,,,,,,,,,,,,,,,,,,,,,,,,,,,,,,,,,,,,,,,,,,,,,,,,,,,,,,,,,,,,,,,,,,,,,,,,,,,,,,,,,,,,,,,,,,,,,,,,
,,,,,,613b0d65888b01ec158025d6,62bbfae8a1312631f49c517a,2022-06-29_09h14.08.671,Colour_Asymmetry_Pilot,2022.1.3,Win32,59.76929054,62bbe60bf3d75ef465d3e404,0,72,72,47,1,fourthree,,,,,,,,,,,,,,,,,,,,,,,,,,,,,,,,,,,,,,,,,,,,,,,,,,,,,,,,,,,,,,,,,,,,,,,,,,,,,,,,,,,,,,,,,,,,,,,,,,,,,,,,,,,,,,,,,,,,,,,,,,,,,,,,,,,,,,,,,,,,,,,,,,,,,,,,
,,,,,,613b0d65888b01ec158025d6,62bbfae8a1312631f49c517a,2022-06-29_09h14.08.671,Colour_Asymmetry_Pilot,2022.1.3,Win32,59.76929054,62bbe60bf3d75ef465d3e404,0,73,73,49,1,onethree,,,,,,,,,,,,,,,,,,,,,,,,,,,,,,,,,,,,,,,,,,,,,,,,,,,,,,,,,,,,,,,,,,,,,,,,,,,,,,,,,,,,,,,,,,,,,,,,,,,,,,,,,,,,,,,,,,,,,,,,,,,,,,,,,,,,,,,,,,,,,,,,,,,,,,,,
,,,,,,613b0d65888b01ec158025d6,62bbfae8a1312631f49c517a,2022-06-29_09h14.08.671,Colour_Asymmetry_Pilot,2022.1.3,Win32,59.76929054,62bbe60bf3d75ef465d3e404,0,74,74,3,1,twofour,,,,,,,,,,,,,,,,,,,,,,,,,,,,,,,,,,,,,,,,,,,,,,,,,,,,,,,,,,,,,,,,,,,,,,,,,,,,,,,,,,,,,,,,,,,,,,,,,,,,,,,,,,,,,,,,,,,,,,,,,,,,,,,,,,,,,,,,,,,,,,,,,,,,,,,,
,,,,,,613b0d65888b01ec158025d6,62bbfae8a1312631f49c517a,2022-06-29_09h14.08.671,Colour_Asymmetry_Pilot,2022.1.3,Win32,59.76929054,62bbe60bf3d75ef465d3e404,0,75,75,48,1,onetwo,,,,,,,,,,,,,,,,,,,,,,,,,,,,,,,,,,,,,,,,,,,,,,,,,,,,,,,,,,,,,,,,,,,,,,,,,,,,,,,,,,,,,,,,,,,,,,,,,,,,,,,,,,,,,,,,,,,,,,,,,,,,,,,,,,,,,,,,,,,,,,,,,,,,,,,,
,,,,,,613b0d65888b01ec158025d6,62bbfae8a1312631f49c517a,2022-06-29_09h14.08.671,Colour_Asymmetry_Pilot,2022.1.3,Win32,59.76929054,62bbe60bf3d75ef465d3e404,0,76,76,22,1,fourtwo,,,,,,,,,,,,,,,,,,,,,,,,,,,,,,,,,,,,,,,,,,,,,,,,,,,,,,,,,,,,,,,,,,,,,,,,,,,,,,,,,,,,,,,,,,,,,,,,,,,,,,,,,,,,,,,,,,,,,,,,,,,,,,,,,,,,,,,,,,,,,,,,,,,,,,,,
,,,,,,613b0d65888b01ec158025d6,62bbfae8a1312631f49c517a,2022-06-29_09h14.08.671,Colour_Asymmetry_Pilot,2022.1.3,Win32,59.76929054,62bbe60bf3d75ef465d3e404,0,77,77,136,1,onetwo,,,,,,,,,,,,,,,,,,,,,,,,,,,,,,,,,,,,,,,,,,,,,,,,,,,,,,,,,,,,,,,,,,,,,,,,,,,,,,,,,,,,,,,,,,,,,,,,,,,,,,,,,,,,,,,,,,,,,,,,,,,,,,,,,,,,,,,,,,,,,,,,,,,,,,,,
,,,,,,613b0d65888b01ec158025d6,62bbfae8a1312631f49c517a,2022-06-29_09h14.08.671,Colour_Asymmetry_Pilot,2022.1.3,Win32,59.76929054,62bbe60bf3d75ef465d3e404,0,78,78,64,1,onetwo,,,,,,,,,,,,,,,,,,,,,,,,,,,,,,,,,,,,,,,,,,,,,,,,,,,,,,,,,,,,,,,,,,,,,,,,,,,,,,,,,,,,,,,,,,,,,,,,,,,,,,,,,,,,,,,,,,,,,,,,,,,,,,,,,,,,,,,,,,,,,,,,,,,,,,,,
,,,,,,613b0d65888b01ec158025d6,62bbfae8a1312631f49c517a,2022-06-29_09h14.08.671,Colour_Asymmetry_Pilot,2022.1.3,Win32,59.76929054,62bbe60bf3d75ef465d3e404,0,79,79,161,1,onethree,,,,,,,,,,,,,,,,,,,,,,,,,,,,,,,,,,,,,,,,,,,,,,,,,,,,,,,,,,,,,,,,,,,,,,,,,,,,,,,,,,,,,,,,,,,,,,,,,,,,,,,,,,,,,,,,,,,,,,,,,,,,,,,,,,,,,,,,,,,,,,,,,,,,,,,,
,,,,,,613b0d65888b01ec158025d6,62bbfae8a1312631f49c517a,2022-06-29_09h14.08.671,Colour_Asymmetry_Pilot,2022.1.3,Win32,59.76929054,62bbe60bf3d75ef465d3e404,0,80,80,6,1,fourtwo,,,,,,,,,,,,,,,,,,,,,,,,,,,,,,,,,,,,,,,,,,,,,,,,,,,,,,,,,,,,,,,,,,,,,,,,,,,,,,,,,,,,,,,,,,,,,,,,,,,,,,,,,,,,,,,,,,,,,,,,,,,,,,,,,,,,,,,,,,,,,,,,,,,,,,,,
,,,,,,613b0d65888b01ec158025d6,62bbfae8a1312631f49c517a,2022-06-29_09h14.08.671,Colour_Asymmetry_Pilot,2022.1.3,Win32,59.76929054,62bbe60bf3d75ef465d3e404,0,81,81,33,1,onethree,,,,,,,,,,,,,,,,,,,,,,,,,,,,,,,,,,,,,,,,,,,,,,,,,,,,,,,,,,,,,,,,,,,,,,,,,,,,,,,,,,,,,,,,,,,,,,,,,,,,,,,,,,,,,,,,,,,,,,,,,,,,,,,,,,,,,,,,,,,,,,,,,,,,,,,,
,,,,,,613b0d65888b01ec158025d6,62bbfae8a1312631f49c517a,2022-06-29_09h14.08.671,Colour_Asymmetry_Pilot,2022.1.3,Win32,59.76929054,62bbe60bf3d75ef465d3e404,0,82,82,112,1,onetwo,,,,,,,,,,,,,,,,,,,,,,,,,,,,,,,,,,,,,,,,,,,,,,,,,,,,,,,,,,,,,,,,,,,,,,,,,,,,,,,,,,,,,,,,,,,,,,,,,,,,,,,,,,,,,,,,,,,,,,,,,,,,,,,,,,,,,,,,,,,,,,,,,,,,,,,,
,,,,,,613b0d65888b01ec158025d6,62bbfae8a1312631f49c517a,2022-06-29_09h14.08.671,Colour_Asymmetry_Pilot,2022.1.3,Win32,59.76929054,62bbe60bf3d75ef465d3e404,0,83,83,125,1,threefour,,,,,,,,,,,,,,,,,,,,,,,,,,,,,,,,,,,,,,,,,,,,,,,,,,,,,,,,,,,,,,,,,,,,,,,,,,,,,,,,,,,,,,,,,,,,,,,,,,,,,,,,,,,,,,,,,,,,,,,,,,,,,,,,,,,,,,,,,,,,,,,,,,,,,,,,
,,,,,,613b0d65888b01ec158025d6,62bbfae8a1312631f49c517a,2022-06-29_09h14.08.671,Colour_Asymmetry_Pilot,2022.1.3,Win32,59.76929054,62bbe60bf3d75ef465d3e404,0,84,84,18,1,twoone,,,,,,,,,,,,,,,,,,,,,,,,,,,,,,,,,,,,,,,,,,,,,,,,,,,,,,,,,,,,,,,,,,,,,,,,,,,,,,,,,,,,,,,,,,,,,,,,,,,,,,,,,,,,,,,,,,,,,,,,,,,,,,,,,,,,,,,,,,,,,,,,,,,,,,,,
,,,,,,613b0d65888b01ec158025d6,62bbfae8a1312631f49c517a,2022-06-29_09h14.08.671,Colour_Asymmetry_Pilot,2022.1.3,Win32,59.76929054,62bbe60bf3d75ef465d3e404,0,85,85,92,1,threeone,,,,,,,,,,,,,,,,,,,,,,,,,,,,,,,,,,,,,,,,,,,,,,,,,,,,,,,,,,,,,,,,,,,,,,,,,,,,,,,,,,,,,,,,,,,,,,,,,,,,,,,,,,,,,,,,,,,,,,,,,,,,,,,,,,,,,,,,,,,,,,,,,,,,,,,,
,,,,,,613b0d65888b01ec158025d6,62bbfae8a1312631f49c517a,2022-06-29_09h14.08.671,Colour_Asymmetry_Pilot,2022.1.3,Win32,59.76929054,62bbe60bf3d75ef465d3e404,0,86,86,68,1,threeone,,,,,,,,,,,,,,,,,,,,,,,,,,,,,,,,,,,,,,,,,,,,,,,,,,,,,,,,,,,,,,,,,,,,,,,,,,,,,,,,,,,,,,,,,,,,,,,,,,,,,,,,,,,,,,,,,,,,,,,,,,,,,,,,,,,,,,,,,,,,,,,,,,,,,,,,
,,,,,,613b0d65888b01ec158025d6,62bbfae8a1312631f49c517a,2022-06-29_09h14.08.671,Colour_Asymmetry_Pilot,2022.1.3,Win32,59.76929054,62bbe60bf3d75ef465d3e404,0,87,87,130,1,twoone,,,,,,,,,,,,,,,,,,,,,,,,,,,,,,,,,,,,,,,,,,,,,,,,,,,,,,,,,,,,,,,,,,,,,,,,,,,,,,,,,,,,,,,,,,,,,,,,,,,,,,,,,,,,,,,,,,,,,,,,,,,,,,,,,,,,,,,,,,,,,,,,,,,,,,,,
,,,,,,613b0d65888b01ec158025d6,62bbfae8a1312631f49c517a,2022-06-29_09h14.08.671,Colour_Asymmetry_Pilot,2022.1.3,Win32,59.76929054,62bbe60bf3d75ef465d3e404,0,88,88,52,1,threeone,,,,,,,,,,,,,,,,,,,,,,,,,,,,,,,,,,,,,,,,,,,,,,,,,,,,,,,,,,,,,,,,,,,,,,,,,,,,,,,,,,,,,,,,,,,,,,,,,,,,,,,,,,,,,,,,,,,,,,,,,,,,,,,,,,,,,,,,,,,,,,,,,,,,,,,,
,,,,,,613b0d65888b01ec158025d6,62bbfae8a1312631f49c517a,2022-06-29_09h14.08.671,Colour_Asymmetry_Pilot,2022.1.3,Win32,59.76929054,62bbe60bf3d75ef465d3e404,0,89,89,83,1,twofour,,,,,,,,,,,,,,,,,,,,,,,,,,,,,,,,,,,,,,,,,,,,,,,,,,,,,,,,,,,,,,,,,,,,,,,,,,,,,,,,,,,,,,,,,,,,,,,,,,,,,,,,,,,,,,,,,,,,,,,,,,,,,,,,,,,,,,,,,,,,,,,,,,,,,,,,
,,,,,,613b0d65888b01ec158025d6,62bbfae8a1312631f49c517a,2022-06-29_09h14.08.671,Colour_Asymmetry_Pilot,2022.1.3,Win32,59.76929054,62bbe60bf3d75ef465d3e404,0,90,90,38,1,fourtwo,,,,,,,,,,,,,,,,,,,,,,,,,,,,,,,,,,,,,,,,,,,,,,,,,,,,,,,,,,,,,,,,,,,,,,,,,,,,,,,,,,,,,,,,,,,,,,,,,,,,,,,,,,,,,,,,,,,,,,,,,,,,,,,,,,,,,,,,,,,,,,,,,,,,,,,,
,,,,,,613b0d65888b01ec158025d6,62bbfae8a1312631f49c517a,2022-06-29_09h14.08.671,Colour_Asymmetry_Pilot,2022.1.3,Win32,59.76929054,62bbe60bf3d75ef465d3e404,0,91,91,67,1,twofour,,,,,,,,,,,,,,,,,,,,,,,,,,,,,,,,,,,,,,,,,,,,,,,,,,,,,,,,,,,,,,,,,,,,,,,,,,,,,,,,,,,,,,,,,,,,,,,,,,,,,,,,,,,,,,,,,,,,,,,,,,,,,,,,,,,,,,,,,,,,,,,,,,,,,,,,
,,,,,,613b0d65888b01ec158025d6,62bbfae8a1312631f49c517a,2022-06-29_09h14.08.671,Colour_Asymmetry_Pilot,2022.1.3,Win32,59.76929054,62bbe60bf3d75ef465d3e404,0,92,92,71,1,fourthree,,,,,,,,,,,,,,,,,,,,,,,,,,,,,,,,,,,,,,,,,,,,,,,,,,,,,,,,,,,,,,,,,,,,,,,,,,,,,,,,,,,,,,,,,,,,,,,,,,,,,,,,,,,,,,,,,,,,,,,,,,,,,,,,,,,,,,,,,,,,,,,,,,,,,,,,
,,,,,,613b0d65888b01ec158025d6,62bbfae8a1312631f49c517a,2022-06-29_09h14.08.671,Colour_Asymmetry_Pilot,2022.1.3,Win32,59.76929054,62bbe60bf3d75ef465d3e404,0,93,93,156,1,threeone,,,,,,,,,,,,,,,,,,,,,,,,,,,,,,,,,,,,,,,,,,,,,,,,,,,,,,,,,,,,,,,,,,,,,,,,,,,,,,,,,,,,,,,,,,,,,,,,,,,,,,,,,,,,,,,,,,,,,,,,,,,,,,,,,,,,,,,,,,,,,,,,,,,,,,,,
,,,,,,613b0d65888b01ec158025d6,62bbfae8a1312631f49c517a,2022-06-29_09h14.08.671,Colour_Asymmetry_Pilot,2022.1.3,Win32,59.76929054,62bbe60bf3d75ef465d3e404,0,94,94,101,1,threefour,,,,,,,,,,,,,,,,,,,,,,,,,,,,,,,,,,,,,,,,,,,,,,,,,,,,,,,,,,,,,,,,,,,,,,,,,,,,,,,,,,,,,,,,,,,,,,,,,,,,,,,,,,,,,,,,,,,,,,,,,,,,,,,,,,,,,,,,,,,,,,,,,,,,,,,,
,,,,,,613b0d65888b01ec158025d6,62bbfae8a1312631f49c517a,2022-06-29_09h14.08.671,Colour_Asymmetry_Pilot,2022.1.3,Win32,59.76929054,62bbe60bf3d75ef465d3e404,0,95,95,77,1,threefour,,,,,,,,,,,,,,,,,,,,,,,,,,,,,,,,,,,,,,,,,,,,,,,,,,,,,,,,,,,,,,,,,,,,,,,,,,,,,,,,,,,,,,,,,,,,,,,,,,,,,,,,,,,,,,,,,,,,,,,,,,,,,,,,,,,,,,,,,,,,,,,,,,,,,,,,
,,,,,,613b0d65888b01ec158025d6,62bbfae8a1312631f49c517a,2022-06-29_09h14.08.671,Colour_Asymmetry_Pilot,2022.1.3,Win32,59.76929054,62bbe60bf3d75ef465d3e404,0,96,96,65,1,onethree,,,,,,,,,,,,,,,,,,,,,,,,,,,,,,,,,,,,,,,,,,,,,,,,,,,,,,,,,,,,,,,,,,,,,,,,,,,,,,,,,,,,,,,,,,,,,,,,,,,,,,,,,,,,,,,,,,,,,,,,,,,,,,,,,,,,,,,,,,,,,,,,,,,,,,,,
,,,,,,613b0d65888b01ec158025d6,62bbfae8a1312631f49c517a,2022-06-29_09h14.08.671,Colour_Asymmetry_Pilot,2022.1.3,Win32,59.76929054,62bbe60bf3d75ef465d3e404,0,97,97,55,1,fourthree,,,,,,,,,,,,,,,,,,,,,,,,,,,,,,,,,,,,,,,,,,,,,,,,,,,,,,,,,,,,,,,,,,,,,,,,,,,,,,,,,,,,,,,,,,,,,,,,,,,,,,,,,,,,,,,,,,,,,,,,,,,,,,,,,,,,,,,,,,,,,,,,,,,,,,,,
,,,,,,613b0d65888b01ec158025d6,62bbfae8a1312631f49c517a,2022-06-29_09h14.08.671,Colour_Asymmetry_Pilot,2022.1.3,Win32,59.76929054,62bbe60bf3d75ef465d3e404,0,98,98,11,1,twofour,,,,,,,,,,,,,,,,,,,,,,,,,,,,,,,,,,,,,,,,,,,,,,,,,,,,,,,,,,,,,,,,,,,,,,,,,,,,,,,,,,,,,,,,,,,,,,,,,,,,,,,,,,,,,,,,,,,,,,,,,,,,,,,,,,,,,,,,,,,,,,,,,,,,,,,,
,,,,,,613b0d65888b01ec158025d6,62bbfae8a1312631f49c517a,2022-06-29_09h14.08.671,Colour_Asymmetry_Pilot,2022.1.3,Win32,59.76929054,62bbe60bf3d75ef465d3e404,0,99,99,143,1,fourthree,,,,,,,,,,,,,,,,,,,,,,,,,,,,,,,,,,,,,,,,,,,,,,,,,,,,,,,,,,,,,,,,,,,,,,,,,,,,,,,,,,,,,,,,,,,,,,,,,,,,,,,,,,,,,,,,,,,,,,,,,,,,,,,,,,,,,,,,,,,,,,,,,,,,,,,,
,,,,,,613b0d65888b01ec158025d6,62bbfae8a1312631f49c517a,2022-06-29_09h14.08.671,Colour_Asymmetry_Pilot,2022.1.3,Win32,59.76929054,62bbe60bf3d75ef465d3e404,0,100,100,40,1,onetwo,,,,,,,,,,,,,,,,,,,,,,,,,,,,,,,,,,,,,,,,,,,,,,,,,,,,,,,,,,,,,,,,,,,,,,,,,,,,,,,,,,,,,,,,,,,,,,,,,,,,,,,,,,,,,,,,,,,,,,,,,,,,,,,,,,,,,,,,,,,,,,,,,,,,,,,,
,,,,,,613b0d65888b01ec158025d6,62bbfae8a1312631f49c517a,2022-06-29_09h14.08.671,Colour_Asymmetry_Pilot,2022.1.3,Win32,59.76929054,62bbe60bf3d75ef465d3e404,0,101,101,28,1,threeone,,,,,,,,,,,,,,,,,,,,,,,,,,,,,,,,,,,,,,,,,,,,,,,,,,,,,,,,,,,,,,,,,,,,,,,,,,,,,,,,,,,,,,,,,,,,,,,,,,,,,,,,,,,,,,,,,,,,,,,,,,,,,,,,,,,,,,,,,,,,,,,,,,,,,,,,
,,,,,,613b0d65888b01ec158025d6,62bbfae8a1312631f49c517a,2022-06-29_09h14.08.671,Colour_Asymmetry_Pilot,2022.1.3,Win32,59.76929054,62bbe60bf3d75ef465d3e404,0,102,102,97,1,onethree,,,,,,,,,,,,,,,,,,,,,,,,,,,,,,,,,,,,,,,,,,,,,,,,,,,,,,,,,,,,,,,,,,,,,,,,,,,,,,,,,,,,,,,,,,,,,,,,,,,,,,,,,,,,,,,,,,,,,,,,,,,,,,,,,,,,,,,,,,,,,,,,,,,,,,,,
,,,,,,613b0d65888b01ec158025d6,62bbfae8a1312631f49c517a,2022-06-29_09h14.08.671,Colour_Asymmetry_Pilot,2022.1.3,Win32,59.76929054,62bbe60bf3d75ef465d3e404,0,103,103,100,1,threeone,,,,,,,,,,,,,,,,,,,,,,,,,,,,,,,,,,,,,,,,,,,,,,,,,,,,,,,,,,,,,,,,,,,,,,,,,,,,,,,,,,,,,,,,,,,,,,,,,,,,,,,,,,,,,,,,,,,,,,,,,,,,,,,,,,,,,,,,,,,,,,,,,,,,,,,,
,,,,,,613b0d65888b01ec158025d6,62bbfae8a1312631f49c517a,2022-06-29_09h14.08.671,Colour_Asymmetry_Pilot,2022.1.3,Win32,59.76929054,62bbe60bf3d75ef465d3e404,0,104,104,73,1,onethree,,,,,,,,,,,,,,,,,,,,,,,,,,,,,,,,,,,,,,,,,,,,,,,,,,,,,,,,,,,,,,,,,,,,,,,,,,,,,,,,,,,,,,,,,,,,,,,,,,,,,,,,,,,,,,,,,,,,,,,,,,,,,,,,,,,,,,,,,,,,,,,,,,,,,,,,
,,,,,,613b0d65888b01ec158025d6,62bbfae8a1312631f49c517a,2022-06-29_09h14.08.671,Colour_Asymmetry_Pilot,2022.1.3,Win32,59.76929054,62bbe60bf3d75ef465d3e404,0,105,105,103,1,fourthree,,,,,,,,,,,,,,,,,,,,,,,,,,,,,,,,,,,,,,,,,,,,,,,,,,,,,,,,,,,,,,,,,,,,,,,,,,,,,,,,,,,,,,,,,,,,,,,,,,,,,,,,,,,,,,,,,,,,,,,,,,,,,,,,,,,,,,,,,,,,,,,,,,,,,,,,
,,,,,,613b0d65888b01ec158025d6,62bbfae8a1312631f49c517a,2022-06-29_09h14.08.671,Colour_Asymmetry_Pilot,2022.1.3,Win32,59.76929054,62bbe60bf3d75ef465d3e404,0,106,106,139,1,twofour,,,,,,,,,,,,,,,,,,,,,,,,,,,,,,,,,,,,,,,,,,,,,,,,,,,,,,,,,,,,,,,,,,,,,,,,,,,,,,,,,,,,,,,,,,,,,,,,,,,,,,,,,,,,,,,,,,,,,,,,,,,,,,,,,,,,,,,,,,,,,,,,,,,,,,,,
,,,,,,613b0d65888b01ec158025d6,62bbfae8a1312631f49c517a,2022-06-29_09h14.08.671,Colour_Asymmetry_Pilot,2022.1.3,Win32,59.76929054,62bbe60bf3d75ef465d3e404,0,107,107,86,1,fourtwo,,,,,,,,,,,,,,,,,,,,,,,,,,,,,,,,,,,,,,,,,,,,,,,,,,,,,,,,,,,,,,,,,,,,,,,,,,,,,,,,,,,,,,,,,,,,,,,,,,,,,,,,,,,,,,,,,,,,,,,,,,,,,,,,,,,,,,,,,,,,,,,,,,,,,,,,
,,,,,,613b0d65888b01ec158025d6,62bbfae8a1312631f49c517a,2022-06-29_09h14.08.671,Colour_Asymmetry_Pilot,2022.1.3,Win32,59.76929054,62bbe60bf3d75ef465d3e404,0,108,108,141,1,threefour,,,,,,,,,,,,,,,,,,,,,,,,,,,,,,,,,,,,,,,,,,,,,,,,,,,,,,,,,,,,,,,,,,,,,,,,,,,,,,,,,,,,,,,,,,,,,,,,,,,,,,,,,,,,,,,,,,,,,,,,,,,,,,,,,,,,,,,,,,,,,,,,,,,,,,,,
,,,,,,613b0d65888b01ec158025d6,62bbfae8a1312631f49c517a,2022-06-29_09h14.08.671,Colour_Asymmetry_Pilot,2022.1.3,Win32,59.76929054,62bbe60bf3d75ef465d3e404,0,109,109,54,1,fourtwo,,,,,,,,,,,,,,,,,,,,,,,,,,,,,,,,,,,,,,,,,,,,,,,,,,,,,,,,,,,,,,,,,,,,,,,,,,,,,,,,,,,,,,,,,,,,,,,,,,,,,,,,,,,,,,,,,,,,,,,,,,,,,,,,,,,,,,,,,,,,,,,,,,,,,,,,
,,,,,,613b0d65888b01ec158025d6,62bbfae8a1312631f49c517a,2022-06-29_09h14.08.671,Colour_Asymmetry_Pilot,2022.1.3,Win32,59.76929054,62bbe60bf3d75ef465d3e404,0,110,110,29,1,threefour,,,,,,,,,,,,,,,,,,,,,,,,,,,,,,,,,,,,,,,,,,,,,,,,,,,,,,,,,,,,,,,,,,,,,,,,,,,,,,,,,,,,,,,,,,,,,,,,,,,,,,,,,,,,,,,,,,,,,,,,,,,,,,,,,,,,,,,,,,,,,,,,,,,,,,,,
,,,,,,613b0d65888b01ec158025d6,62bbfae8a1312631f49c517a,2022-06-29_09h14.08.671,Colour_Asymmetry_Pilot,2022.1.3,Win32,59.76929054,62bbe60bf3d75ef465d3e404,0,111,111,23,1,fourthree,,,,,,,,,,,,,,,,,,,,,,,,,,,,,,,,,,,,,,,,,,,,,,,,,,,,,,,,,,,,,,,,,,,,,,,,,,,,,,,,,,,,,,,,,,,,,,,,,,,,,,,,,,,,,,,,,,,,,,,,,,,,,,,,,,,,,,,,,,,,,,,,,,,,,,,,
,,,,,,613b0d65888b01ec158025d6,62bbfae8a1312631f49c517a,2022-06-29_09h14.08.671,Colour_Asymmetry_Pilot,2022.1.3,Win32,59.76929054,62bbe60bf3d75ef465d3e404,0,112,112,116,1,threeone,,,,,,,,,,,,,,,,,,,,,,,,,,,,,,,,,,,,,,,,,,,,,,,,,,,,,,,,,,,,,,,,,,,,,,,,,,,,,,,,,,,,,,,,,,,,,,,,,,,,,,,,,,,,,,,,,,,,,,,,,,,,,,,,,,,,,,,,,,,,,,,,,,,,,,,,
,,,,,,613b0d65888b01ec158025d6,62bbfae8a1312631f49c517a,2022-06-29_09h14.08.671,Colour_Asymmetry_Pilot,2022.1.3,Win32,59.76929054,62bbe60bf3d75ef465d3e404,0,113,113,96,1,onetwo,,,,,,,,,,,,,,,,,,,,,,,,,,,,,,,,,,,,,,,,,,,,,,,,,,,,,,,,,,,,,,,,,,,,,,,,,,,,,,,,,,,,,,,,,,,,,,,,,,,,,,,,,,,,,,,,,,,,,,,,,,,,,,,,,,,,,,,,,,,,,,,,,,,,,,,,
,,,,,,613b0d65888b01ec158025d6,62bbfae8a1312631f49c517a,2022-06-29_09h14.08.671,Colour_Asymmetry_Pilot,2022.1.3,Win32,59.76929054,62bbe60bf3d75ef465d3e404,0,114,114,122,1,twoone,,,,,,,,,,,,,,,,,,,,,,,,,,,,,,,,,,,,,,,,,,,,,,,,,,,,,,,,,,,,,,,,,,,,,,,,,,,,,,,,,,,,,,,,,,,,,,,,,,,,,,,,,,,,,,,,,,,,,,,,,,,,,,,,,,,,,,,,,,,,,,,,,,,,,,,,
,,,,,,613b0d65888b01ec158025d6,62bbfae8a1312631f49c517a,2022-06-29_09h14.08.671,Colour_Asymmetry_Pilot,2022.1.3,Win32,59.76929054,62bbe60bf3d75ef465d3e404,0,115,115,53,1,threefour,,,,,,,,,,,,,,,,,,,,,,,,,,,,,,,,,,,,,,,,,,,,,,,,,,,,,,,,,,,,,,,,,,,,,,,,,,,,,,,,,,,,,,,,,,,,,,,,,,,,,,,,,,,,,,,,,,,,,,,,,,,,,,,,,,,,,,,,,,,,,,,,,,,,,,,,
,,,,,,613b0d65888b01ec158025d6,62bbfae8a1312631f49c517a,2022-06-29_09h14.08.671,Colour_Asymmetry_Pilot,2022.1.3,Win32,59.76929054,62bbe60bf3d75ef465d3e404,0,116,116,66,1,twoone,,,,,,,,,,,,,,,,,,,,,,,,,,,,,,,,,,,,,,,,,,,,,,,,,,,,,,,,,,,,,,,,,,,,,,,,,,,,,,,,,,,,,,,,,,,,,,,,,,,,,,,,,,,,,,,,,,,,,,,,,,,,,,,,,,,,,,,,,,,,,,,,,,,,,,,,
,,,,,,613b0d65888b01ec158025d6,62bbfae8a1312631f49c517a,2022-06-29_09h14.08.671,Colour_Asymmetry_Pilot,2022.1.3,Win32,59.76929054,62bbe60bf3d75ef465d3e404,0,117,117,105,1,onethree,,,,,,,,,,,,,,,,,,,,,,,,,,,,,,,,,,,,,,,,,,,,,,,,,,,,,,,,,,,,,,,,,,,,,,,,,,,,,,,,,,,,,,,,,,,,,,,,,,,,,,,,,,,,,,,,,,,,,,,,,,,,,,,,,,,,,,,,,,,,,,,,,,,,,,,,
,,,,,,613b0d65888b01ec158025d6,62bbfae8a1312631f49c517a,2022-06-29_09h14.08.671,Colour_Asymmetry_Pilot,2022.1.3,Win32,59.76929054,62bbe60bf3d75ef465d3e404,0,118,118,76,1,threeone,,,,,,,,,,,,,,,,,,,,,,,,,,,,,,,,,,,,,,,,,,,,,,,,,,,,,,,,,,,,,,,,,,,,,,,,,,,,,,,,,,,,,,,,,,,,,,,,,,,,,,,,,,,,,,,,,,,,,,,,,,,,,,,,,,,,,,,,,,,,,,,,,,,,,,,,
,,,,,,613b0d65888b01ec158025d6,62bbfae8a1312631f49c517a,2022-06-29_09h14.08.671,Colour_Asymmetry_Pilot,2022.1.3,Win32,59.76929054,62bbe60bf3d75ef465d3e404,0,119,119,94,1,fourtwo,,,,,,,,,,,,,,,,,,,,,,,,,,,,,,,,,,,,,,,,,,,,,,,,,,,,,,,,,,,,,,,,,,,,,,,,,,,,,,,,,,,,,,,,,,,,,,,,,,,,,,,,,,,,,,,,,,,,,,,,,,,,,,,,,,,,,,,,,,,,,,,,,,,,,,,,
,,,,,,613b0d65888b01ec158025d6,62bbfae8a1312631f49c517a,2022-06-29_09h14.08.671,Colour_Asymmetry_Pilot,2022.1.3,Win32,59.76929054,62bbe60bf3d75ef465d3e404,0,120,120,42,1,twoone,,,,,,,,,,,,,,,,,,,,,,,,,,,,,,,,,,,,,,,,,,,,,,,,,,,,,,,,,,,,,,,,,,,,,,,,,,,,,,,,,,,,,,,,,,,,,,,,,,,,,,,,,,,,,,,,,,,,,,,,,,,,,,,,,,,,,,,,,,,,,,,,,,,,,,,,
,,,,,,613b0d65888b01ec158025d6,62bbfae8a1312631f49c517a,2022-06-29_09h14.08.671,Colour_Asymmetry_Pilot,2022.1.3,Win32,59.76929054,62bbe60bf3d75ef465d3e404,0,121,121,144,1,onetwo,,,,,,,,,,,,,,,,,,,,,,,,,,,,,,,,,,,,,,,,,,,,,,,,,,,,,,,,,,,,,,,,,,,,,,,,,,,,,,,,,,,,,,,,,,,,,,,,,,,,,,,,,,,,,,,,,,,,,,,,,,,,,,,,,,,,,,,,,,,,,,,,,,,,,,,,
,,,,,,613b0d65888b01ec158025d6,62bbfae8a1312631f49c517a,2022-06-29_09h14.08.671,Colour_Asymmetry_Pilot,2022.1.3,Win32,59.76929054,62bbe60bf3d75ef465d3e404,0,122,122,131,1,twofour,,,,,,,,,,,,,,,,,,,,,,,,,,,,,,,,,,,,,,,,,,,,,,,,,,,,,,,,,,,,,,,,,,,,,,,,,,,,,,,,,,,,,,,,,,,,,,,,,,,,,,,,,,,,,,,,,,,,,,,,,,,,,,,,,,,,,,,,,,,,,,,,,,,,,,,,
,,,,,,613b0d65888b01ec158025d6,62bbfae8a1312631f49c517a,2022-06-29_09h14.08.671,Colour_Asymmetry_Pilot,2022.1.3,Win32,59.76929054,62bbe60bf3d75ef465d3e404,0,123,123,46,1,fourtwo,,,,,,,,,,,,,,,,,,,,,,,,,,,,,,,,,,,,,,,,,,,,,,,,,,,,,,,,,,,,,,,,,,,,,,,,,,,,,,,,,,,,,,,,,,,,,,,,,,,,,,,,,,,,,,,,,,,,,,,,,,,,,,,,,,,,,,,,,,,,,,,,,,,,,,,,
,,,,,,613b0d65888b01ec158025d6,62bbfae8a1312631f49c517a,2022-06-29_09h14.08.671,Colour_Asymmetry_Pilot,2022.1.3,Win32,59.76929054,62bbe60bf3d75ef465d3e404,0,124,124,120,1,onetwo,,,,,,,,,,,,,,,,,,,,,,,,,,,,,,,,,,,,,,,,,,,,,,,,,,,,,,,,,,,,,,,,,,,,,,,,,,,,,,,,,,,,,,,,,,,,,,,,,,,,,,,,,,,,,,,,,,,,,,,,,,,,,,,,,,,,,,,,,,,,,,,,,,,,,,,,
,,,,,,613b0d65888b01ec158025d6,62bbfae8a1312631f49c517a,2022-06-29_09h14.08.671,Colour_Asymmetry_Pilot,2022.1.3,Win32,59.76929054,62bbe60bf3d75ef465d3e404,0,125,125,108,1,threeone,,,,,,,,,,,,,,,,,,,,,,,,,,,,,,,,,,,,,,,,,,,,,,,,,,,,,,,,,,,,,,,,,,,,,,,,,,,,,,,,,,,,,,,,,,,,,,,,,,,,,,,,,,,,,,,,,,,,,,,,,,,,,,,,,,,,,,,,,,,,,,,,,,,,,,,,
,,,,,,613b0d65888b01ec158025d6,62bbfae8a1312631f49c517a,2022-06-29_09h14.08.671,Colour_Asymmetry_Pilot,2022.1.3,Win32,59.76929054,62bbe60bf3d75ef465d3e404,0,126,126,89,1,onethree,,,,,,,,,,,,,,,,,,,,,,,,,,,,,,,,,,,,,,,,,,,,,,,,,,,,,,,,,,,,,,,,,,,,,,,,,,,,,,,,,,,,,,,,,,,,,,,,,,,,,,,,,,,,,,,,,,,,,,,,,,,,,,,,,,,,,,,,,,,,,,,,,,,,,,,,
,,,,,,613b0d65888b01ec158025d6,62bbfae8a1312631f49c517a,2022-06-29_09h14.08.671,Colour_Asymmetry_Pilot,2022.1.3,Win32,59.76929054,62bbe60bf3d75ef465d3e404,0,127,127,1,1,onethree,,,,,,,,,,,,,,,,,,,,,,,,,,,,,,,,,,,,,,,,,,,,,,,,,,,,,,,,,,,,,,,,,,,,,,,,,,,,,,,,,,,,,,,,,,,,,,,,,,,,,,,,,,,,,,,,,,,,,,,,,,,,,,,,,,,,,,,,,,,,,,,,,,,,,,,,
,,,,,,613b0d65888b01ec158025d6,62bbfae8a1312631f49c517a,2022-06-29_09h14.08.671,Colour_Asymmetry_Pilot,2022.1.3,Win32,59.76929054,62bbe60bf3d75ef465d3e404,0,128,128,32,1,onetwo,,,,,,,,,,,,,,,,,,,,,,,,,,,,,,,,,,,,,,,,,,,,,,,,,,,,,,,,,,,,,,,,,,,,,,,,,,,,,,,,,,,,,,,,,,,,,,,,,,,,,,,,,,,,,,,,,,,,,,,,,,,,,,,,,,,,,,,,,,,,,,,,,,,,,,,,
,,,,,,613b0d65888b01ec158025d6,62bbfae8a1312631f49c517a,2022-06-29_09h14.08.671,Colour_Asymmetry_Pilot,2022.1.3,Win32,59.76929054,62bbe60bf3d75ef465d3e404,0,129,129,8,1,onetwo,,,,,,,,,,,,,,,,,,,,,,,,,,,,,,,,,,,,,,,,,,,,,,,,,,,,,,,,,,,,,,,,,,,,,,,,,,,,,,,,,,,,,,,,,,,,,,,,,,,,,,,,,,,,,,,,,,,,,,,,,,,,,,,,,,,,,,,,,,,,,,,,,,,,,,,,
,,,,,,613b0d65888b01ec158025d6,62bbfae8a1312631f49c517a,2022-06-29_09h14.08.671,Colour_Asymmetry_Pilot,2022.1.3,Win32,59.76929054,62bbe60bf3d75ef465d3e404,0,130,130,123,1,twofour,,,,,,,,,,,,,,,,,,,,,,,,,,,,,,,,,,,,,,,,,,,,,,,,,,,,,,,,,,,,,,,,,,,,,,,,,,,,,,,,,,,,,,,,,,,,,,,,,,,,,,,,,,,,,,,,,,,,,,,,,,,,,,,,,,,,,,,,,,,,,,,,,,,,,,,,
,,,,,,613b0d65888b01ec158025d6,62bbfae8a1312631f49c517a,2022-06-29_09h14.08.671,Colour_Asymmetry_Pilot,2022.1.3,Win32,59.76929054,62bbe60bf3d75ef465d3e404,0,131,131,88,1,onetwo,,,,,,,,,,,,,,,,,,,,,,,,,,,,,,,,,,,,,,,,,,,,,,,,,,,,,,,,,,,,,,,,,,,,,,,,,,,,,,,,,,,,,,,,,,,,,,,,,,,,,,,,,,,,,,,,,,,,,,,,,,,,,,,,,,,,,,,,,,,,,,,,,,,,,,,,
,,,,,,613b0d65888b01ec158025d6,62bbfae8a1312631f49c517a,2022-06-29_09h14.08.671,Colour_Asymmetry_Pilot,2022.1.3,Win32,59.76929054,62bbe60bf3d75ef465d3e404,0,132,132,104,1,onetwo,,,,,,,,,,,,,,,,,,,,,,,,,,,,,,,,,,,,,,,,,,,,,,,,,,,,,,,,,,,,,,,,,,,,,,,,,,,,,,,,,,,,,,,,,,,,,,,,,,,,,,,,,,,,,,,,,,,,,,,,,,,,,,,,,,,,,,,,,,,,,,,,,,,,,,,,
,,,,,,613b0d65888b01ec158025d6,62bbfae8a1312631f49c517a,2022-06-29_09h14.08.671,Colour_Asymmetry_Pilot,2022.1.3,Win32,59.76929054,62bbe60bf3d75ef465d3e404,0,133,133,44,1,threeone,,,,,,,,,,,,,,,,,,,,,,,,,,,,,,,,,,,,,,,,,,,,,,,,,,,,,,,,,,,,,,,,,,,,,,,,,,,,,,,,,,,,,,,,,,,,,,,,,,,,,,,,,,,,,,,,,,,,,,,,,,,,,,,,,,,,,,,,,,,,,,,,,,,,,,,,
,,,,,,613b0d65888b01ec158025d6,62bbfae8a1312631f49c517a,2022-06-29_09h14.08.671,Colour_Asymmetry_Pilot,2022.1.3,Win32,59.76929054,62bbe60bf3d75ef465d3e404,0,134,134,134,1,fourtwo,,,,,,,,,,,,,,,,,,,,,,,,,,,,,,,,,,,,,,,,,,,,,,,,,,,,,,,,,,,,,,,,,,,,,,,,,,,,,,,,,,,,,,,,,,,,,,,,,,,,,,,,,,,,,,,,,,,,,,,,,,,,,,,,,,,,,,,,,,,,,,,,,,,,,,,,
,,,,,,613b0d65888b01ec158025d6,62bbfae8a1312631f49c517a,2022-06-29_09h14.08.671,Colour_Asymmetry_Pilot,2022.1.3,Win32,59.76929054,62bbe60bf3d75ef465d3e404,0,135,135,19,1,twofour,,,,,,,,,,,,,,,,,,,,,,,,,,,,,,,,,,,,,,,,,,,,,,,,,,,,,,,,,,,,,,,,,,,,,,,,,,,,,,,,,,,,,,,,,,,,,,,,,,,,,,,,,,,,,,,,,,,,,,,,,,,,,,,,,,,,,,,,,,,,,,,,,,,,,,,,
,,,,,,613b0d65888b01ec158025d6,62bbfae8a1312631f49c517a,2022-06-29_09h14.08.671,Colour_Asymmetry_Pilot,2022.1.3,Win32,59.76929054,62bbe60bf3d75ef465d3e404,0,136,136,110,1,fourtwo,,,,,,,,,,,,,,,,,,,,,,,,,,,,,,,,,,,,,,,,,,,,,,,,,,,,,,,,,,,,,,,,,,,,,,,,,,,,,,,,,,,,,,,,,,,,,,,,,,,,,,,,,,,,,,,,,,,,,,,,,,,,,,,,,,,,,,,,,,,,,,,,,,,,,,,,
,,,,,,613b0d65888b01ec158025d6,62bbfae8a1312631f49c517a,2022-06-29_09h14.08.671,Colour_Asymmetry_Pilot,2022.1.3,Win32,59.76929054,62bbe60bf3d75ef465d3e404,0,137,137,149,1,threefour,,,,,,,,,,,,,,,,,,,,,,,,,,,,,,,,,,,,,,,,,,,,,,,,,,,,,,,,,,,,,,,,,,,,,,,,,,,,,,,,,,,,,,,,,,,,,,,,,,,,,,,,,,,,,,,,,,,,,,,,,,,,,,,,,,,,,,,,,,,,,,,,,,,,,,,,
,,,,,,613b0d65888b01ec158025d6,62bbfae8a1312631f49c517a,2022-06-29_09h14.08.671,Colour_Asymmetry_Pilot,2022.1.3,Win32,59.76929054,62bbe60bf3d75ef465d3e404,0,138,138,87,1,fourthree,,,,,,,,,,,,,,,,,,,,,,,,,,,,,,,,,,,,,,,,,,,,,,,,,,,,,,,,,,,,,,,,,,,,,,,,,,,,,,,,,,,,,,,,,,,,,,,,,,,,,,,,,,,,,,,,,,,,,,,,,,,,,,,,,,,,,,,,,,,,,,,,,,,,,,,,
,,,,,,613b0d65888b01ec158025d6,62bbfae8a1312631f49c517a,2022-06-29_09h14.08.671,Colour_Asymmetry_Pilot,2022.1.3,Win32,59.76929054,62bbe60bf3d75ef465d3e404,0,139,139,35,1,twofour,,,,,,,,,,,,,,,,,,,,,,,,,,,,,,,,,,,,,,,,,,,,,,,,,,,,,,,,,,,,,,,,,,,,,,,,,,,,,,,,,,,,,,,,,,,,,,,,,,,,,,,,,,,,,,,,,,,,,,,,,,,,,,,,,,,,,,,,,,,,,,,,,,,,,,,,
,,,,,,613b0d65888b01ec158025d6,62bbfae8a1312631f49c517a,2022-06-29_09h14.08.671,Colour_Asymmetry_Pilot,2022.1.3,Win32,59.76929054,62bbe60bf3d75ef465d3e404,0,140,140,155,1,twofour,,,,,,,,,,,,,,,,,,,,,,,,,,,,,,,,,,,,,,,,,,,,,,,,,,,,,,,,,,,,,,,,,,,,,,,,,,,,,,,,,,,,,,,,,,,,,,,,,,,,,,,,,,,,,,,,,,,,,,,,,,,,,,,,,,,,,,,,,,,,,,,,,,,,,,,,
,,,,,,613b0d65888b01ec158025d6,62bbfae8a1312631f49c517a,2022-06-29_09h14.08.671,Colour_Asymmetry_Pilot,2022.1.3,Win32,59.76929054,62bbe60bf3d75ef465d3e404,0,141,141,58,1,twoone,,,,,,,,,,,,,,,,,,,,,,,,,,,,,,,,,,,,,,,,,,,,,,,,,,,,,,,,,,,,,,,,,,,,,,,,,,,,,,,,,,,,,,,,,,,,,,,,,,,,,,,,,,,,,,,,,,,,,,,,,,,,,,,,,,,,,,,,,,,,,,,,,,,,,,,,
,,,,,,613b0d65888b01ec158025d6,62bbfae8a1312631f49c517a,2022-06-29_09h14.08.671,Colour_Asymmetry_Pilot,2022.1.3,Win32,59.76929054,62bbe60bf3d75ef465d3e404,0,142,142,34,1,twoone,,,,,,,,,,,,,,,,,,,,,,,,,,,,,,,,,,,,,,,,,,,,,,,,,,,,,,,,,,,,,,,,,,,,,,,,,,,,,,,,,,,,,,,,,,,,,,,,,,,,,,,,,,,,,,,,,,,,,,,,,,,,,,,,,,,,,,,,,,,,,,,,,,,,,,,,
,,,,,,613b0d65888b01ec158025d6,62bbfae8a1312631f49c517a,2022-06-29_09h14.08.671,Colour_Asymmetry_Pilot,2022.1.3,Win32,59.76929054,62bbe60bf3d75ef465d3e404,0,143,143,146,1,twoone,,,,,,,,,,,,,,,,,,,,,,,,,,,,,,,,,,,,,,,,,,,,,,,,,,,,,,,,,,,,,,,,,,,,,,,,,,,,,,,,,,,,,,,,,,,,,,,,,,,,,,,,,,,,,,,,,,,,,,,,,,,,,,,,,,,,,,,,,,,,,,,,,,,,,,,,
,,,,,,613b0d65888b01ec158025d6,62bbfae8a1312631f49c517a,2022-06-29_09h14.08.671,Colour_Asymmetry_Pilot,2022.1.3,Win32,59.76929054,62bbe60bf3d75ef465d3e404,0,144,144,153,1,onethree,,,,,,,,,,,,,,,,,,,,,,,,,,,,,,,,,,,,,,,,,,,,,,,,,,,,,,,,,,,,,,,,,,,,,,,,,,,,,,,,,,,,,,,,,,,,,,,,,,,,,,,,,,,,,,,,,,,,,,,,,,,,,,,,,,,,,,,,,,,,,,,,,,,,,,,,
,,,,,,613b0d65888b01ec158025d6,62bbfae8a1312631f49c517a,2022-06-29_09h14.08.671,Colour_Asymmetry_Pilot,2022.1.3,Win32,59.76929054,62bbe60bf3d75ef465d3e404,0,145,145,154,1,twoone,,,,,,,,,,,,,,,,,,,,,,,,,,,,,,,,,,,,,,,,,,,,,,,,,,,,,,,,,,,,,,,,,,,,,,,,,,,,,,,,,,,,,,,,,,,,,,,,,,,,,,,,,,,,,,,,,,,,,,,,,,,,,,,,,,,,,,,,,,,,,,,,,,,,,,,,
,,,,,,613b0d65888b01ec158025d6,62bbfae8a1312631f49c517a,2022-06-29_09h14.08.671,Colour_Asymmetry_Pilot,2022.1.3,Win32,59.76929054,62bbe60bf3d75ef465d3e404,0,146,146,82,1,twoone,,,,,,,,,,,,,,,,,,,,,,,,,,,,,,,,,,,,,,,,,,,,,,,,,,,,,,,,,,,,,,,,,,,,,,,,,,,,,,,,,,,,,,,,,,,,,,,,,,,,,,,,,,,,,,,,,,,,,,,,,,,,,,,,,,,,,,,,,,,,,,,,,,,,,,,,
,,,,,,613b0d65888b01ec158025d6,62bbfae8a1312631f49c517a,2022-06-29_09h14.08.671,Colour_Asymmetry_Pilot,2022.1.3,Win32,59.76929054,62bbe60bf3d75ef465d3e404,0,147,147,95,1,fourthree,,,,,,,,,,,,,,,,,,,,,,,,,,,,,,,,,,,,,,,,,,,,,,,,,,,,,,,,,,,,,,,,,,,,,,,,,,,,,,,,,,,,,,,,,,,,,,,,,,,,,,,,,,,,,,,,,,,,,,,,,,,,,,,,,,,,,,,,,,,,,,,,,,,,,,,,
,,,,,,613b0d65888b01ec158025d6,62bbfae8a1312631f49c517a,2022-06-29_09h14.08.671,Colour_Asymmetry_Pilot,2022.1.3,Win32,59.76929054,62bbe60bf3d75ef465d3e404,0,148,148,81,1,onethree,,,,,,,,,,,,,,,,,,,,,,,,,,,,,,,,,,,,,,,,,,,,,,,,,,,,,,,,,,,,,,,,,,,,,,,,,,,,,,,,,,,,,,,,,,,,,,,,,,,,,,,,,,,,,,,,,,,,,,,,,,,,,,,,,,,,,,,,,,,,,,,,,,,,,,,,
,,,,,,613b0d65888b01ec158025d6,62bbfae8a1312631f49c517a,2022-06-29_09h14.08.671,Colour_Asymmetry_Pilot,2022.1.3,Win32,59.76929054,62bbe60bf3d75ef465d3e404,0,149,149,91,1,twofour,,,,,,,,,,,,,,,,,,,,,,,,,,,,,,,,,,,,,,,,,,,,,,,,,,,,,,,,,,,,,,,,,,,,,,,,,,,,,,,,,,,,,,,,,,,,,,,,,,,,,,,,,,,,,,,,,,,,,,,,,,,,,,,,,,,,,,,,,,,,,,,,,,,,,,,,
,,,,,,613b0d65888b01ec158025d6,62bbfae8a1312631f49c517a,2022-06-29_09h14.08.671,Colour_Asymmetry_Pilot,2022.1.3,Win32,59.76929054,62bbe60bf3d75ef465d3e404,0,150,150,147,1,twofour,,,,,,,,,,,,,,,,,,,,,,,,,,,,,,,,,,,,,,,,,,,,,,,,,,,,,,,,,,,,,,,,,,,,,,,,,,,,,,,,,,,,,,,,,,,,,,,,,,,,,,,,,,,,,,,,,,,,,,,,,,,,,,,,,,,,,,,,,,,,,,,,,,,,,,,,
,,,,,,613b0d65888b01ec158025d6,62bbfae8a1312631f49c517a,2022-06-29_09h14.08.671,Colour_Asymmetry_Pilot,2022.1.3,Win32,59.76929054,62bbe60bf3d75ef465d3e404,0,151,151,27,1,twofour,,,,,,,,,,,,,,,,,,,,,,,,,,,,,,,,,,,,,,,,,,,,,,,,,,,,,,,,,,,,,,,,,,,,,,,,,,,,,,,,,,,,,,,,,,,,,,,,,,,,,,,,,,,,,,,,,,,,,,,,,,,,,,,,,,,,,,,,,,,,,,,,,,,,,,,,
,,,,,,613b0d65888b01ec158025d6,62bbfae8a1312631f49c517a,2022-06-29_09h14.08.671,Colour_Asymmetry_Pilot,2022.1.3,Win32,59.76929054,62bbe60bf3d75ef465d3e404,0,152,152,74,1,twoone,,,,,,,,,,,,,,,,,,,,,,,,,,,,,,,,,,,,,,,,,,,,,,,,,,,,,,,,,,,,,,,,,,,,,,,,,,,,,,,,,,,,,,,,,,,,,,,,,,,,,,,,,,,,,,,,,,,,,,,,,,,,,,,,,,,,,,,,,,,,,,,,,,,,,,,,
,,,,,,613b0d65888b01ec158025d6,62bbfae8a1312631f49c517a,2022-06-29_09h14.08.671,Colour_Asymmetry_Pilot,2022.1.3,Win32,59.76929054,62bbe60bf3d75ef465d3e404,0,153,153,63,1,fourthree,,,,,,,,,,,,,,,,,,,,,,,,,,,,,,,,,,,,,,,,,,,,,,,,,,,,,,,,,,,,,,,,,,,,,,,,,,,,,,,,,,,,,,,,,,,,,,,,,,,,,,,,,,,,,,,,,,,,,,,,,,,,,,,,,,,,,,,,,,,,,,,,,,,,,,,,
,,,,,,613b0d65888b01ec158025d6,62bbfae8a1312631f49c517a,2022-06-29_09h14.08.671,Colour_Asymmetry_Pilot,2022.1.3,Win32,59.76929054,62bbe60bf3d75ef465d3e404,0,154,154,61,1,threefour,,,,,,,,,,,,,,,,,,,,,,,,,,,,,,,,,,,,,,,,,,,,,,,,,,,,,,,,,,,,,,,,,,,,,,,,,,,,,,,,,,,,,,,,,,,,,,,,,,,,,,,,,,,,,,,,,,,,,,,,,,,,,,,,,,,,,,,,,,,,,,,,,,,,,,,,
,,,,,,613b0d65888b01ec158025d6,62bbfae8a1312631f49c517a,2022-06-29_09h14.08.671,Colour_Asymmetry_Pilot,2022.1.3,Win32,59.76929054,62bbe60bf3d75ef465d3e404,0,155,155,118,1,fourtwo,,,,,,,,,,,,,,,,,,,,,,,,,,,,,,,,,,,,,,,,,,,,,,,,,,,,,,,,,,,,,,,,,,,,,,,,,,,,,,,,,,,,,,,,,,,,,,,,,,,,,,,,,,,,,,,,,,,,,,,,,,,,,,,,,,,,,,,,,,,,,,,,,,,,,,,,
,,,,,,613b0d65888b01ec158025d6,62bbfae8a1312631f49c517a,2022-06-29_09h14.08.671,Colour_Asymmetry_Pilot,2022.1.3,Win32,59.76929054,62bbe60bf3d75ef465d3e404,0,156,156,36,1,threeone,,,,,,,,,,,,,,,,,,,,,,,,,,,,,,,,,,,,,,,,,,,,,,,,,,,,,,,,,,,,,,,,,,,,,,,,,,,,,,,,,,,,,,,,,,,,,,,,,,,,,,,,,,,,,,,,,,,,,,,,,,,,,,,,,,,,,,,,,,,,,,,,,,,,,,,,
,,,,,,613b0d65888b01ec158025d6,62bbfae8a1312631f49c517a,2022-06-29_09h14.08.671,Colour_Asymmetry_Pilot,2022.1.3,Win32,59.76929054,62bbe60bf3d75ef465d3e404,0,157,157,43,1,twofour,,,,,,,,,,,,,,,,,,,,,,,,,,,,,,,,,,,,,,,,,,,,,,,,,,,,,,,,,,,,,,,,,,,,,,,,,,,,,,,,,,,,,,,,,,,,,,,,,,,,,,,,,,,,,,,,,,,,,,,,,,,,,,,,,,,,,,,,,,,,,,,,,,,,,,,,
,,,,,,613b0d65888b01ec158025d6,62bbfae8a1312631f49c517a,2022-06-29_09h14.08.671,Colour_Asymmetry_Pilot,2022.1.3,Win32,59.76929054,62bbe60bf3d75ef465d3e404,0,158,158,93,1,threefour,,,,,,,,,,,,,,,,,,,,,,,,,,,,,,,,,,,,,,,,,,,,,,,,,,,,,,,,,,,,,,,,,,,,,,,,,,,,,,,,,,,,,,,,,,,,,,,,,,,,,,,,,,,,,,,,,,,,,,,,,,,,,,,,,,,,,,,,,,,,,,,,,,,,,,,,
,,,,,,613b0d65888b01ec158025d6,62bbfae8a1312631f49c517a,2022-06-29_09h14.08.671,Colour_Asymmetry_Pilot,2022.1.3,Win32,59.76929054,62bbe60bf3d75ef465d3e404,0,159,159,159,1,fourthree,,,,,,,,,,,,,,,,,,,,,,,,,,,,,,,,,,,,,,,,,,,,,,,,,,,,,,,,,,,,,,,,,,,,,,,,,,,,,,,,,,,,,,,,,,,,,,,,,,,,,,,,,,,,,,,,,,,,,,,,,,,,,,,,,,,,,,,,,,,,,,,,,,,,,,,,
,,,,,,613b0d65888b01ec158025d6,62bbfae8a1312631f49c517a,2022-06-29_09h14.08.671,Colour_Asymmetry_Pilot,2022.1.3,Win32,59.76929054,62bbe60bf3d75ef465d3e404,0,160,160,14,1,fourtwo,,,,,,,,,,,,,,,,,,,,,,,,,,,,,,,,,,,,,,,,,,,,,,,,,,,,,,,,,,,,,,,,,,,,,,,,,,,,,,,,,,,,,,,,,,,,,,,,,,,,,,,,,,,,,,,,,,,,,,,,,,,,,,,,,,,,,,,,,,,,,,,,,,,,,,,,
,,,,,,613b0d65888b01ec158025d6,62bbfae8a1312631f49c517a,2022-06-29_09h14.08.671,Colour_Asymmetry_Pilot,2022.1.3,Win32,59.76929054,62bbe60bf3d75ef465d3e404,0,161,161,20,1,threeone,,,,,,,,,,,,,,,,,,,,,,,,,,,,,,,,,,,,,,,,,,,,,,,,,,,,,,,,,,,,,,,,,,,,,,,,,,,,,,,,,,,,,,,,,,,,,,,,,,,,,,,,,,,,,,,,,,,,,,,,,,,,,,,,,,,,,,,,,,,,,,,,,,,,,,,,
,,,,,,613b0d65888b01ec158025d6,62bbfae8a1312631f49c517a,2022-06-29_09h14.08.671,Colour_Asymmetry_Pilot,2022.1.3,Win32,59.76929054,62bbe60bf3d75ef465d3e404,,,,,,,space,9.7771,space,70.7358,space,107.1059,space,40.8828,space,4.9164,space,6.7059,"[-0.5452,-0.608,0.2470000000000001]",fourtwo,"[-0.48240000000000005,0.3175999999999999,0.2156]",4,4.8783,37,81,1,0,0,response1disk_5,0,5,1,0,0,rectangle_8,0,5,1,0,0,2,0,5,1,0,0,0,0,0,0,1,,,,,,,,,,,,,,,,,,,,,,,,,,,,,,,,,,,,,,,,,,,,,,,,,,,,,,,,,,,,,,,,,,,,,,,,,,,,,,,,,,,,,,,,,,,,,,,,,,,,,,,,,,,
,,,,,,613b0d65888b01ec158025d6,62bbfae8a1312631f49c517a,2022-06-29_09h14.08.671,Colour_Asymmetry_Pilot,2022.1.3,Win32,59.76929054,62bbe60bf3d75ef465d3e404,,,,,,,,,,,,,,,,,,,"[-0.20799999999999996,-0.655,-0.01980000000000004]",fourtwo,"[-0.5922000000000001,-0.7492000000000001,-0.5296000000000001]",-2,2.8937,-90,-37,1,0,0,response5disk_5,1,4,1,0,0,rectangle_8,1,4,1,0,0,2,1,4,1,0,0,1,0,1,0,1,,,,,,,,,,,,,,,,,,,,,,,,,,,,,,,,,,,,,,,,,,,,,,,,,,,,,,,,,,,,,,,,,,,,,,,,,,,,,,,,,,,,,,,,,,,,,,,,,,,,,,,,,,,
,,,,,,613b0d65888b01ec158025d6,62bbfae8a1312631f49c517a,2022-06-29_09h14.08.671,Colour_Asymmetry_Pilot,2022.1.3,Win32,59.76929054,62bbe60bf3d75ef465d3e404,,,,,,,,,,,,,,,,,,,"[-0.9216,-0.5529999999999999,-0.3962]",onethree,"[0.9372,0.9450000000000001,0.8980000000000001]",-4,2.4265,-53,103,1,0,0,response7disk_5,9,10,1,0,0,rectangle_8,97,-61,1,0,0,2,-14,-4,1,0,0,2,0,2,0,1,response3disk_7,5,rectangle_4,,,,,,,,,,,,,,,,,,,,,,,,,,,,,,,,,,,,,,,,,,,,,,,,,,,,,,,,,,,,,,,,,,,,,,,,,,,,,,,,,,,,,,,,,,,,,,,,,,,,,,,,
,,,,,,613b0d65888b01ec158025d6,62bbfae8a1312631f49c517a,2022-06-29_09h14.08.671,Colour_Asymmetry_Pilot,2022.1.3,Win32,59.76929054,62bbe60bf3d75ef465d3e404,,,,,,,,,,,,,,,,,,,"[-0.24719999999999998,0.5213999999999999,-0.12959999999999994]",onetwo,"[-0.4668,-0.8746,-0.2942]",-4,2.81,-43,101,1,0,0,response7disk_5,-8,1,1,0,0,rectangle_8,-8,1,1,0,0,2,-8,1,1,0,0,3,0,3,0,1,,,,,,,,,,,,,,,,,,,,,,,,,,,,,,,,,,,,,,,,,,,,,,,,,,,,,,,,,,,,,,,,,,,,,,,,,,,,,,,,,,,,,,,,,,,,,,,,,,,,,,,,,,,
,,,,,,613b0d65888b01ec158025d6,62bbfae8a1312631f49c517a,2022-06-29_09h14.08.671,Colour_Asymmetry_Pilot,2022.1.3,Win32,59.76929054,62bbe60bf3d75ef465d3e404,,,,,,,,,,,,,,,,,,,"[-0.10599999999999998,-0.15300000000000002,0.15280000000000005]",fourtwo,"[-0.09019999999999995,0.44300000000000006,0.5371999999999999]",-4,2.2582,-46,87,1,0,0,response7disk_5,8,6,1,0,0,rectangle_8,8,6,1,0,0,2,8,6,1,0,0,4,0,4,0,1,,,,,,,,,,,,,,,,,,,,,,,,,,,,,,,,,,,,,,,,,,,,,,,,,,,,,,,,,,,,,,,,,,,,,,,,,,,,,,,,,,,,,,,,,,,,,,,,,,,,,,,,,,,
,,,,,,613b0d65888b01ec158025d6,62bbfae8a1312631f49c517a,2022-06-29_09h14.08.671,Colour_Asymmetry_Pilot,2022.1.3,Win32,59.76929054,62bbe60bf3d75ef465d3e404,,,,,,,,,,,,,,,,,,,"[-0.5688,-0.08239999999999992,-0.1844]",onethree,"[0.3802000000000001,0.19199999999999995,-0.6394]",-4,1.5724,-39,89,1,0,0,response7disk_5,8,-4,1,0,0,rectangle_8,93,-43,1,0,0,2,-3,-1,1,0,0,5,0,5,0,1,response3disk_7,5,rectangle_4,,,,,,,,,,,,,,,,,,,,,,,,,,,,,,,,,,,,,,,,,,,,,,,,,,,,,,,,,,,,,,,,,,,,,,,,,,,,,,,,,,,,,,,,,,,,,,,,,,,,,,,,
,,,,,,613b0d65888b01ec158025d6,62bbfae8a1312631f49c517a,2022-06-29_09h14.08.671,Colour_Asymmetry_Pilot,2022.1.3,Win32,59.76929054,62bbe60bf3d75ef465d3e404,,,,,,,,,,,,,,,,,,,"[0.9372,0.20779999999999998,0.2704]",twofour,"[0.7018,0.7176,0.6155999999999999]",-4,1.3048,-49,87,1,0,0,response7disk_5,-6,11,1,0,0,rectangle_8,-6,11,1,0,0,2,-6,11,1,0,0,6,0,6,0,1,,,,,,,,,,,,,,,,,,,,,,,,,,,,,,,,,,,,,,,,,,,,,,,,,,,,,,,,,,,,,,,,,,,,,,,,,,,,,,,,,,,,,,,,,,,,,,,,,,,,,,,,,,,
,,,,,,613b0d65888b01ec158025d6,62bbfae8a1312631f49c517a,2022-06-29_09h14.08.671,Colour_Asymmetry_Pilot,2022.1.3,Win32,59.76929054,62bbe60bf3d75ef465d3e404,,,,,,,,,,,,,,,,,,,,onethree,,-4,1.4503,,,,,,,,,,,,,,,,,,,,,,,,,,,,,,,,space,5.2032,"[0.23920000000000008,0.2704,0.16060000000000008]","[-0.9216,-0.5529999999999999,-0.3962]",-29,91,1,0,0,response7disk,-5,-5,1,0,0,rectangle,-5,-5,1,0,0,,1,0.0045,0,-5,-5,1,0,0,0,0,0,113,1,32,second,,,,,,,,,,,,,,,,,,,,,,,,,,,,,,,,,,,,,,,,,,,,,,,,,,,,,,,,,,,,,,,,,,,
,,,,,,613b0d65888b01ec158025d6,62bbfae8a1312631f49c517a,2022-06-29_09h14.08.671,Colour_Asymmetry_Pilot,2022.1.3,Win32,59.76929054,62bbe60bf3d75ef465d3e404,,,,,,,,,,,,,,,,,,,,fourthree,,4,2.2083,,,,,,,,,,,,,,,,,,,,,,,,,,,,,,,,,,"[-0.8118,-0.8198,-0.5452]","[-0.38039999999999996,-0.4276,-0.1452]",32,99,1,0,0,response1disk,-4,-1,1,0,0,rectangle,-4,-1,1,0,0,,2,0.0035,0,-4,-1,1,0,0,0,1,1,126,1,45,second,,,,,,,,,,,,,,,,,,,,,,,,,,,,,,,,,,,,,,,,,,,,,,,,,,,,,,,,,,,,,,,,,,,
,,,,,,613b0d65888b01ec158025d6,62bbfae8a1312631f49c517a,2022-06-29_09h14.08.671,Colour_Asymmetry_Pilot,2022.1.3,Win32,59.76929054,62bbe60bf3d75ef465d3e404,,,,,,,,,,,,,,,,,,,,fourtwo,,-4,0.9523,,,,,,,,,,,,,,,,,,,,,,,,,,,,,,,,,,"[0.37240000000000006,-0.050999999999999934,-0.5216]","[0.9213999999999998,0.6391999999999998,-0.9922]",-52,72,1,0,0,response7disk,5,-5,1,0,0,rectangle,5,-5,1,0,0,,1,0.0027,0,5,-5,1,0,0,0,2,2,144,1,63,second,,,,,,,,,,,,,,,,,,,,,,,,,,,,,,,,,,,,,,,,,,,,,,,,,,,,,,,,,,,,,,,,,,,
,,,,,,613b0d65888b01ec158025d6,62bbfae8a1312631f49c517a,2022-06-29_09h14.08.671,Colour_Asymmetry_Pilot,2022.1.3,Win32,59.76929054,62bbe60bf3d75ef465d3e404,,,,,,,,,,,,,,,,,,,,threefour,,3,1.7396,,,,,,,,,,,,,,,,,,,,,,,,,,,,,,,,,,"[-0.48240000000000005,0.3175999999999999,0.2156]","[-0.4276,0.0038000000000000256,-0.3256]",84,38,1,0,0,response1disk,-9,0,1,0,0,rectangle,-9,0,1,0,0,,3,0.0034,0,-9,0,1,0,0,0,3,3,44,1,44,first,,,,,,,,,,,,,,,,,,,,,,,,,,,,,,,,,,,,,,,,,,,,,,,,,,,,,,,,,,,,,,,,,,,
,,,,,,613b0d65888b01ec158025d6,62bbfae8a1312631f49c517a,2022-06-29_09h14.08.671,Colour_Asymmetry_Pilot,2022.1.3,Win32,59.76929054,62bbe60bf3d75ef465d3e404,,,,,,,,,,,,,,,,,,,,threefour,,-4,1.0708,,,,,,,,,,,,,,,,,,,,,,,,,,,,,,,,,,"[-0.24719999999999998,0.5213999999999999,-0.12959999999999994]","[-0.10599999999999998,-0.10599999999999998,0.5841999999999998]",-47,67,1,0,0,response7disk,-2,-4,1,0,0,rectangle,-2,-4,1,0,0,,1,0.004,0,-2,-4,1,0,0,0,4,4,22,1,22,first,,,,,,,,,,,,,,,,,,,,,,,,,,,,,,,,,,,,,,,,,,,,,,,,,,,,,,,,,,,,,,,,,,,
,,,,,,613b0d65888b01ec158025d6,62bbfae8a1312631f49c517a,2022-06-29_09h14.08.671,Colour_Asymmetry_Pilot,2022.1.3,Win32,59.76929054,62bbe60bf3d75ef465d3e404,,,,,,,,,,,,,,,,,,,,fourtwo,,-4,0.7519,,,,,,,,,,,,,,,,,,,,,,,,,,,,,,,,,,"[-0.38039999999999996,-0.4276,-0.1452]","[-0.07459999999999989,0.12139999999999995,-0.9922]",-35,69,1,0,0,response7disk,-3,-2,1,0,0,rectangle,-3,-2,1,0,0,,3,0.0035,0,-3,-2,1,0,0,0,5,5,92,1,11,second,,,,,,,,,,,,,,,,,,,,,,,,,,,,,,,,,,,,,,,,,,,,,,,,,,,,,,,,,,,,,,,,,,,
,,,,,,613b0d65888b01ec158025d6,62bbfae8a1312631f49c517a,2022-06-29_09h14.08.671,Colour_Asymmetry_Pilot,2022.1.3,Win32,59.76929054,62bbe60bf3d75ef465d3e404,,,,,,,,,,,,,,,,,,,,fourtwo,,-4,0.4686,,,,,,,,,,,,,,,,,,,,,,,,,,,,,,,,,,"[0.9763999999999999,-0.1137999999999999,-0.6314]","[-0.4982,-0.2942,-0.0354000000000001]",-29,71,1,0,0,response7disk,13,-2,1,0,0,rectangle,13,-2,1,0,0,,3,0.0006,0,13,-2,1,0,0,0,6,6,9,1,9,first,,,,,,,,,,,,,,,,,,,,,,,,,,,,,,,,,,,,,,,,,,,,,,,,,,,,,,,,,,,,,,,,,,,
,,,,,,613b0d65888b01ec158025d6,62bbfae8a1312631f49c517a,2022-06-29_09h14.08.671,Colour_Asymmetry_Pilot,2022.1.3,Win32,59.76929054,62bbe60bf3d75ef465d3e404,,,,,,,,,,,,,,,,,,,,threefour,,-4,1.0362,,,,,,,,,,,,,,,,,,,,,,,,,,,,,,,,,,"[-0.9688,-0.4902000000000001,-0.12159999999999993]","[0.3802000000000001,0.19199999999999995,-0.6394]",-48,64,1,0,0,response7disk,-25,3,1,0,0,rectangle,-25,3,1,0,0,,2,0.0026,0,-25,3,1,0,0,0,7,7,54,1,54,first,,,,,,,,,,,,,,,,,,,,,,,,,,,,,,,,,,,,,,,,,,,,,,,,,,,,,,,,,,,,,,,,,,,
,,,,,,613b0d65888b01ec158025d6,62bbfae8a1312631f49c517a,2022-06-29_09h14.08.671,Colour_Asymmetry_Pilot,2022.1.3,Win32,59.76929054,62bbe60bf3d75ef465d3e404,,,,,,,,,,,,,,,,,,,,fourthree,,-4,0.7527,,,,,,,,,,,,,,,,,,,,,,,,,,,,,,,,,,"[-0.4982,-0.2942,-0.0354000000000001]","[0.3881999999999999,-0.23939999999999995,-0.05040000000000011]",-35,72,1,0,0,response7disk,-18,4,1,0,0,rectangle,-18,4,1,0,0,,3,0.0037,0,-18,4,1,0,0,0,8,8,28,1,28,first,,,,,,,,,,,,,,,,,,,,,,,,,,,,,,,,,,,,,,,,,,,,,,,,,,,,,,,,,,,,,,,,,,,
,,,,,,613b0d65888b01ec158025d6,62bbfae8a1312631f49c517a,2022-06-29_09h14.08.671,Colour_Asymmetry_Pilot,2022.1.3,Win32,59.76929054,62bbe60bf3d75ef465d3e404,,,,,,,,,,,,,,,,,,,,onetwo,,-4,0.8368,,,,,,,,,,,,,,,,,,,,,,,,,,,,,,,,,,"[0.11359999999999992,0.6312,0.5213999999999999]","[0.4196,0.4665999999999999,0.3568]",-41,68,1,0,0,response7disk,5,-1,1,0,0,rectangle,5,-1,1,0,0,,3,0.0008,0,5,-1,1,0,0,0,9,9,137,1,56,second,,,,,,,,,,,,,,,,,,,,,,,,,,,,,,,,,,,,,,,,,,,,,,,,,,,,,,,,,,,,,,,,,,,
,,,,,,613b0d65888b01ec158025d6,62bbfae8a1312631f49c517a,2022-06-29_09h14.08.671,Colour_Asymmetry_Pilot,2022.1.3,Win32,59.76929054,62bbe60bf3d75ef465d3e404,,,,,,,,,,,,,,,,,,,,fourthree,,3,2.0242,,,,,,,,,,,,,,,,,,,,,,,,,,,,,,,,,,"[0.40379999999999994,0.09000000000000008,0.44300000000000006]","[0.37240000000000006,-0.050999999999999934,-0.5216]",75,37,1,0,0,response1disk,-12,3,1,0,0,rectangle,-12,3,1,0,0,,3,0.0005,0,-12,3,1,0,0,0,10,10,8,1,8,first,,,,,,,,,,,,,,,,,,,,,,,,,,,,,,,,,,,,,,,,,,,,,,,,,,,,,,,,,,,,,,,,,,,
,,,,,,613b0d65888b01ec158025d6,62bbfae8a1312631f49c517a,2022-06-29_09h14.08.671,Colour_Asymmetry_Pilot,2022.1.3,Win32,59.76929054,62bbe60bf3d75ef465d3e404,,,,,,,,,,,,,,,,,,,,twofour,,4,1.7396,,,,,,,,,,,,,,,,,,,,,,,,,,,,,,,,,,"[-0.38039999999999996,-0.4276,-0.1452]","[-0.8118,-0.8198,-0.5452]",51,86,1,0,0,response1disk,-3,3,1,0,0,rectangle,-3,3,1,0,0,,1,0.0037,0,-3,3,1,0,0,0,11,11,45,1,45,first,,,,,,,,,,,,,,,,,,,,,,,,,,,,,,,,,,,,,,,,,,,,,,,,,,,,,,,,,,,,,,,,,,,
,,,,,,613b0d65888b01ec158025d6,62bbfae8a1312631f49c517a,2022-06-29_09h14.08.671,Colour_Asymmetry_Pilot,2022.1.3,Win32,59.76929054,62bbe60bf3d75ef465d3e404,,,,,,,,,,,,,,,,,,,,onethree,,2,1.8569,,,,,,,,,,,,,,,,,,,,,,,,,,,,,,,,,,"[0.796,0.2156,-0.27859999999999996]","[0.3568,-0.20799999999999996,-0.9844]",86,-25,1,0,0,response3disk,-15,3,1,0,0,rectangle,-15,3,1,0,0,,1,0.0005,0,-15,3,1,0,0,0,12,12,27,1,27,first,,,,,,,,,,,,,,,,,,,,,,,,,,,,,,,,,,,,,,,,,,,,,,,,,,,,,,,,,,,,,,,,,,,
,,,,,,613b0d65888b01ec158025d6,62bbfae8a1312631f49c517a,2022-06-29_09h14.08.671,Colour_Asymmetry_Pilot,2022.1.3,Win32,59.76929054,62bbe60bf3d75ef465d3e404,,,,,,,,,,,,,,,,,,,,fourthree,,-4,1.0871,,,,,,,,,,,,,,,,,,,,,,,,,,,,,,,,,,"[-0.8982,-0.37259999999999993,0.2784]","[-0.24719999999999998,0.5213999999999999,-0.12959999999999994]",-28,93,1,0,0,response7disk,-12,4,1,0,0,rectangle,-12,4,1,0,0,,3,0.0037,0,-12,4,1,0,0,0,13,13,59,1,59,first,,,,,,,,,,,,,,,,,,,,,,,,,,,,,,,,,,,,,,,,,,,,,,,,,,,,,,,,,,,,,,,,,,,
,,,,,,613b0d65888b01ec158025d6,62bbfae8a1312631f49c517a,2022-06-29_09h14.08.671,Colour_Asymmetry_Pilot,2022.1.3,Win32,59.76929054,62bbe60bf3d75ef465d3e404,,,,,,,,,,,,,,,,,,,,threefour,,-4,1.2881,,,,,,,,,,,,,,,,,,,,,,,,,,,,,,,,,,"[0.05879999999999996,0.2784,0.5841999999999998]","[0.9842,0.7409999999999999,-0.6628000000000001]",-23,89,1,0,0,response7disk,-7,-2,1,0,0,rectangle,-7,-2,1,0,0,,1,0.0037,0,-7,-2,1,0,0,0,14,14,65,1,65,first,,,,,,,,,,,,,,,,,,,,,,,,,,,,,,,,,,,,,,,,,,,,,,,,,,,,,,,,,,,,,,,,,,,
,,,,,,613b0d65888b01ec158025d6,62bbfae8a1312631f49c517a,2022-06-29_09h14.08.671,Colour_Asymmetry_Pilot,2022.1.3,Win32,59.76929054,62bbe60bf3d75ef465d3e404,,,,,,,,,,,,,,,,,,,,threeone,,-4,0.9697,,,,,,,,,,,,,,,,,,,,,,,,,,,,,,,,,,"[-0.17659999999999998,-0.2864,-0.8354]","[0.40379999999999994,0.09000000000000008,0.44300000000000006]",-59,84,1,0,0,response7disk,1,-2,1,0,0,rectangle,1,-2,1,0,0,,3,0.0037,0,1,-2,1,0,0,0,15,15,153,1,72,second,,,,,,,,,,,,,,,,,,,,,,,,,,,,,,,,,,,,,,,,,,,,,,,,,,,,,,,,,,,,,,,,,,,
,,,,,,613b0d65888b01ec158025d6,62bbfae8a1312631f49c517a,2022-06-29_09h14.08.671,Colour_Asymmetry_Pilot,2022.1.3,Win32,59.76929054,62bbe60bf3d75ef465d3e404,,,,,,,,,,,,,,,,,,,,threeone,,2,1.0705,,,,,,,,,,,,,,,,,,,,,,,,,,,,,,,,,,"[-0.011800000000000033,-0.906,-0.45100000000000007]","[0.22340000000000004,-0.9296,-0.7884]",87,-42,1,0,0,response3disk,-15,1,1,0,0,rectangle,-15,1,1,0,0,,1,0.0034,0,-15,1,1,0,0,0,16,16,43,1,43,first,,,,,,,,,,,,,,,,,,,,,,,,,,,,,,,,,,,,,,,,,,,,,,,,,,,,,,,,,,,,,,,,,,,
,,,,,,613b0d65888b01ec158025d6,62bbfae8a1312631f49c517a,2022-06-29_09h14.08.671,Colour_Asymmetry_Pilot,2022.1.3,Win32,59.76929054,62bbe60bf3d75ef465d3e404,,,,,,,,,,,,,,,,,,,,twoone,,-3,2.0403,,,,,,,,,,,,,,,,,,,,,,,,,,,,,,,,,,"[-0.8118,-0.8198,-0.5452]","[-0.9138,-0.5296000000000001,-0.5529999999999999]",-82,33,1,0,0,response7disk,0,-4,1,0,0,rectangle,0,-4,1,0,0,,2,0.0017,0,0,-4,1,0,0,0,17,17,106,1,25,second,,,,,,,,,,,,,,,,,,,,,,,,,,,,,,,,,,,,,,,,,,,,,,,,,,,,,,,,,,,,,,,,,,,
,,,,,,613b0d65888b01ec158025d6,62bbfae8a1312631f49c517a,2022-06-29_09h14.08.671,Colour_Asymmetry_Pilot,2022.1.3,Win32,59.76929054,62bbe60bf3d75ef465d3e404,,,,,,,,,,,,,,,,,,,,fourtwo,,-4,1.8235,,,,,,,,,,,,,,,,,,,,,,,,,,,,,,,,,,"[0.23920000000000008,0.2704,0.16060000000000008]","[0.22340000000000004,-0.9296,-0.7884]",-49,87,1,0,0,response7disk,-11,11,1,0,0,rectangle,-11,11,1,0,0,,2,0.0007,0,-11,11,1,0,0,0,18,18,158,1,77,second,,,,,,,,,,,,,,,,,,,,,,,,,,,,,,,,,,,,,,,,,,,,,,,,,,,,,,,,,,,,,,,,,,,
,,,,,,613b0d65888b01ec158025d6,62bbfae8a1312631f49c517a,2022-06-29_09h14.08.671,Colour_Asymmetry_Pilot,2022.1.3,Win32,59.76929054,62bbe60bf3d75ef465d3e404,,,,,,,,,,,,,,,,,,,,twoone,,3,1.2044,,,,,,,,,,,,,,,,,,,,,,,,,,,,,,,,,,"[-0.2942,-0.7648,-0.7492000000000001]","[0.18419999999999992,-0.4276,-0.404]",77,47,1,0,0,response1disk,-29,-1,1,0,0,rectangle,-29,-1,1,0,0,,2,0.0004,0,-29,-1,1,0,0,0,19,19,81,1,0,second,,,,,,,,,,,,,,,,,,,,,,,,,,,,,,,,,,,,,,,,,,,,,,,,,,,,,,,,,,,,,,,,,,,
,,,,,,613b0d65888b01ec158025d6,62bbfae8a1312631f49c517a,2022-06-29_09h14.08.671,Colour_Asymmetry_Pilot,2022.1.3,Win32,59.76929054,62bbe60bf3d75ef465d3e404,,,,,,,,,,,,,,,,,,,,twofour,,-4,0.7362,,,,,,,,,,,,,,,,,,,,,,,,,,,,,,,,,,"[-0.24719999999999998,-0.0354000000000001,0.3175999999999999]","[0.6547999999999998,-0.043199999999999905,-0.011800000000000033]",-40,82,1,0,0,response7disk,15,-2,1,0,0,rectangle,15,-2,1,0,0,,3,0.0032,0,15,-2,1,0,0,0,20,20,93,1,12,second,,,,,,,,,,,,,,,,,,,,,,,,,,,,,,,,,,,,,,,,,,,,,,,,,,,,,,,,,,,,,,,,,,,
