trials.thisRepN,trials.thisTrialN,trials.thisN,trials.thisIndex,trials.ran,Colourcodes,participant,session,date,expName,psychopyVersion,OS,frameRate,study_id,trials_4.thisRepN,trials_4.thisTrialN,trials_4.thisN,trials_4.thisIndex,trials_4.ran,StimulusPos,key_resp.keys,key_resp.rt,key_resp_2.keys,key_resp_2.rt,key_resp_15.keys,key_resp_15.rt,key_resp_17.keys,key_resp_17.rt,key_resp_9.keys,key_resp_9.rt,key_resp_10.keys,key_resp_10.rt,Circle1_col,Ecc,Circle2_col,similarity,response_time,mouse_5.x,mouse_5.y,mouse_5.leftButton,mouse_5.midButton,mouse_5.rightButton,mouse_5.clicked_name,mouse_10.x,mouse_10.y,mouse_10.leftButton,mouse_10.midButton,mouse_10.rightButton,mouse_10.clicked_name,mouse_7.x,mouse_7.y,mouse_7.leftButton,mouse_7.midButton,mouse_7.rightButton,catchnumberprac,mouse_6.x,mouse_6.y,mouse_6.leftButton,mouse_6.midButton,mouse_6.rightButton,duringprac.thisRepN,duringprac.thisTrialN,duringprac.thisN,duringprac.thisIndex,duringprac.ran,mouse_7.clicked_name,catchprac,mouse_6.clicked_name,key_resp_22.keys,key_resp_22.rt,Circle1_colour,Circle2_colour,mouse.x,mouse.y,mouse.leftButton,mouse.midButton,mouse.rightButton,mouse.clicked_name,mouse_2.x,mouse_2.y,mouse_2.leftButton,mouse_2.midButton,mouse_2.rightButton,mouse_2.clicked_name,mouse_3.x,mouse_3.y,mouse_3.leftButton,mouse_3.midButton,mouse_3.rightButton,catchresponse,catchnumber,response_time_catch,Catch,mouse_11.x,mouse_11.y,mouse_11.leftButton,mouse_11.midButton,mouse_11.rightButton,trials_2.thisRepN,trials_2.thisTrialN,trials_2.thisN,trials_2.thisIndex,trials_2.ran,Colourpair,Temporder,mouse_3.clicked_name,mouse_11.clicked_name,trials_3.thisRepN,trials_3.thisTrialN,trials_3.thisN,trials_3.thisIndex,trials_3.ran,key_resp_instr_Ishi.keys,key_resp_instr_Ishi.rt,Ishi_trial_keyresp.keys,Ishi_trial_keyresp.rt,Ishi_textbox.text,Ishi_loop.thisRepN,Ishi_loop.thisTrialN,Ishi_loop.thisN,Ishi_loop.thisIndex,Ishi_loop.ran,imageaddress,textbox.text,mouse_4.x,mouse_4.y,mouse_4.leftButton,mouse_4.midButton,mouse_4.rightButton,mouse_4.clicked_name,textbox_2.text,mouse_8.x,mouse_8.y,mouse_8.leftButton,mouse_8.midButton,mouse_8.rightButton,mouse_8.clicked_name,textbox_3.text,mouse_9.x,mouse_9.y,mouse_9.leftButton,mouse_9.midButton,mouse_9.rightButton,mouse_9.clicked_name,textbox_4.text,mouse_12.x,mouse_12.y,mouse_12.leftButton,mouse_12.midButton,mouse_12.rightButton,mouse_12.clicked_name,textbox_5.text,mouse_13.x,mouse_13.y,mouse_13.leftButton,mouse_13.midButton,mouse_13.rightButton,mouse_13.clicked_name,textbox_6.text,mouse_14.x,mouse_14.y,mouse_14.leftButton,mouse_14.midButton,mouse_14.rightButton,mouse_14.clicked_name,textbox_7.text,mouse_15.x,mouse_15.y,mouse_15.leftButton,mouse_15.midButton,mouse_15.rightButton,mouse_15.clicked_name
0,0,0,85,1,,60d4477467e235cde30140a9,62bbfaf8d49be600f97778d6,2022-06-29_09h11.57.790,Colour_Asymmetry_Pilot,2022.1.3,Win32,60.03842459,62bbe60bf3d75ef465d3e404,,,,,,,,,,,,,,,,,,,,,,,,,,,,,,,,,,,,,,,,,,,,,,,,,,,,,,,,,,,,,,,,,,,,,,,,,,,,,,,,,,,,,,,,,,,,,,,,,,,,,,,,,,,,,,,,,,,,,,,,,,,,,,,,,,,,,,,,,,,,,,,,,,,,,,,,,,,,,,
0,1,1,70,1,,60d4477467e235cde30140a9,62bbfaf8d49be600f97778d6,2022-06-29_09h11.57.790,Colour_Asymmetry_Pilot,2022.1.3,Win32,60.03842459,62bbe60bf3d75ef465d3e404,,,,,,,,,,,,,,,,,,,,,,,,,,,,,,,,,,,,,,,,,,,,,,,,,,,,,,,,,,,,,,,,,,,,,,,,,,,,,,,,,,,,,,,,,,,,,,,,,,,,,,,,,,,,,,,,,,,,,,,,,,,,,,,,,,,,,,,,,,,,,,,,,,,,,,,,,,,,,,
0,2,2,21,1,,60d4477467e235cde30140a9,62bbfaf8d49be600f97778d6,2022-06-29_09h11.57.790,Colour_Asymmetry_Pilot,2022.1.3,Win32,60.03842459,62bbe60bf3d75ef465d3e404,,,,,,,,,,,,,,,,,,,,,,,,,,,,,,,,,,,,,,,,,,,,,,,,,,,,,,,,,,,,,,,,,,,,,,,,,,,,,,,,,,,,,,,,,,,,,,,,,,,,,,,,,,,,,,,,,,,,,,,,,,,,,,,,,,,,,,,,,,,,,,,,,,,,,,,,,,,,,,
0,3,3,46,1,,60d4477467e235cde30140a9,62bbfaf8d49be600f97778d6,2022-06-29_09h11.57.790,Colour_Asymmetry_Pilot,2022.1.3,Win32,60.03842459,62bbe60bf3d75ef465d3e404,,,,,,,,,,,,,,,,,,,,,,,,,,,,,,,,,,,,,,,,,,,,,,,,,,,,,,,,,,,,,,,,,,,,,,,,,,,,,,,,,,,,,,,,,,,,,,,,,,,,,,,,,,,,,,,,,,,,,,,,,,,,,,,,,,,,,,,,,,,,,,,,,,,,,,,,,,,,,,
0,4,4,47,1,,60d4477467e235cde30140a9,62bbfaf8d49be600f97778d6,2022-06-29_09h11.57.790,Colour_Asymmetry_Pilot,2022.1.3,Win32,60.03842459,62bbe60bf3d75ef465d3e404,,,,,,,,,,,,,,,,,,,,,,,,,,,,,,,,,,,,,,,,,,,,,,,,,,,,,,,,,,,,,,,,,,,,,,,,,,,,,,,,,,,,,,,,,,,,,,,,,,,,,,,,,,,,,,,,,,,,,,,,,,,,,,,,,,,,,,,,,,,,,,,,,,,,,,,,,,,,,,
0,5,5,6,1,,60d4477467e235cde30140a9,62bbfaf8d49be600f97778d6,2022-06-29_09h11.57.790,Colour_Asymmetry_Pilot,2022.1.3,Win32,60.03842459,62bbe60bf3d75ef465d3e404,,,,,,,,,,,,,,,,,,,,,,,,,,,,,,,,,,,,,,,,,,,,,,,,,,,,,,,,,,,,,,,,,,,,,,,,,,,,,,,,,,,,,,,,,,,,,,,,,,,,,,,,,,,,,,,,,,,,,,,,,,,,,,,,,,,,,,,,,,,,,,,,,,,,,,,,,,,,,,
0,6,6,67,1,,60d4477467e235cde30140a9,62bbfaf8d49be600f97778d6,2022-06-29_09h11.57.790,Colour_Asymmetry_Pilot,2022.1.3,Win32,60.03842459,62bbe60bf3d75ef465d3e404,,,,,,,,,,,,,,,,,,,,,,,,,,,,,,,,,,,,,,,,,,,,,,,,,,,,,,,,,,,,,,,,,,,,,,,,,,,,,,,,,,,,,,,,,,,,,,,,,,,,,,,,,,,,,,,,,,,,,,,,,,,,,,,,,,,,,,,,,,,,,,,,,,,,,,,,,,,,,,
0,7,7,9,1,,60d4477467e235cde30140a9,62bbfaf8d49be600f97778d6,2022-06-29_09h11.57.790,Colour_Asymmetry_Pilot,2022.1.3,Win32,60.03842459,62bbe60bf3d75ef465d3e404,,,,,,,,,,,,,,,,,,,,,,,,,,,,,,,,,,,,,,,,,,,,,,,,,,,,,,,,,,,,,,,,,,,,,,,,,,,,,,,,,,,,,,,,,,,,,,,,,,,,,,,,,,,,,,,,,,,,,,,,,,,,,,,,,,,,,,,,,,,,,,,,,,,,,,,,,,,,,,
0,8,8,91,1,,60d4477467e235cde30140a9,62bbfaf8d49be600f97778d6,2022-06-29_09h11.57.790,Colour_Asymmetry_Pilot,2022.1.3,Win32,60.03842459,62bbe60bf3d75ef465d3e404,,,,,,,,,,,,,,,,,,,,,,,,,,,,,,,,,,,,,,,,,,,,,,,,,,,,,,,,,,,,,,,,,,,,,,,,,,,,,,,,,,,,,,,,,,,,,,,,,,,,,,,,,,,,,,,,,,,,,,,,,,,,,,,,,,,,,,,,,,,,,,,,,,,,,,,,,,,,,,
0,9,9,19,1,,60d4477467e235cde30140a9,62bbfaf8d49be600f97778d6,2022-06-29_09h11.57.790,Colour_Asymmetry_Pilot,2022.1.3,Win32,60.03842459,62bbe60bf3d75ef465d3e404,,,,,,,,,,,,,,,,,,,,,,,,,,,,,,,,,,,,,,,,,,,,,,,,,,,,,,,,,,,,,,,,,,,,,,,,,,,,,,,,,,,,,,,,,,,,,,,,,,,,,,,,,,,,,,,,,,,,,,,,,,,,,,,,,,,,,,,,,,,,,,,,,,,,,,,,,,,,,,
0,10,10,88,1,,60d4477467e235cde30140a9,62bbfaf8d49be600f97778d6,2022-06-29_09h11.57.790,Colour_Asymmetry_Pilot,2022.1.3,Win32,60.03842459,62bbe60bf3d75ef465d3e404,,,,,,,,,,,,,,,,,,,,,,,,,,,,,,,,,,,,,,,,,,,,,,,,,,,,,,,,,,,,,,,,,,,,,,,,,,,,,,,,,,,,,,,,,,,,,,,,,,,,,,,,,,,,,,,,,,,,,,,,,,,,,,,,,,,,,,,,,,,,,,,,,,,,,,,,,,,,,,
0,11,11,49,1,,60d4477467e235cde30140a9,62bbfaf8d49be600f97778d6,2022-06-29_09h11.57.790,Colour_Asymmetry_Pilot,2022.1.3,Win32,60.03842459,62bbe60bf3d75ef465d3e404,,,,,,,,,,,,,,,,,,,,,,,,,,,,,,,,,,,,,,,,,,,,,,,,,,,,,,,,,,,,,,,,,,,,,,,,,,,,,,,,,,,,,,,,,,,,,,,,,,,,,,,,,,,,,,,,,,,,,,,,,,,,,,,,,,,,,,,,,,,,,,,,,,,,,,,,,,,,,,
0,12,12,10,1,,60d4477467e235cde30140a9,62bbfaf8d49be600f97778d6,2022-06-29_09h11.57.790,Colour_Asymmetry_Pilot,2022.1.3,Win32,60.03842459,62bbe60bf3d75ef465d3e404,,,,,,,,,,,,,,,,,,,,,,,,,,,,,,,,,,,,,,,,,,,,,,,,,,,,,,,,,,,,,,,,,,,,,,,,,,,,,,,,,,,,,,,,,,,,,,,,,,,,,,,,,,,,,,,,,,,,,,,,,,,,,,,,,,,,,,,,,,,,,,,,,,,,,,,,,,,,,,
0,13,13,37,1,,60d4477467e235cde30140a9,62bbfaf8d49be600f97778d6,2022-06-29_09h11.57.790,Colour_Asymmetry_Pilot,2022.1.3,Win32,60.03842459,62bbe60bf3d75ef465d3e404,,,,,,,,,,,,,,,,,,,,,,,,,,,,,,,,,,,,,,,,,,,,,,,,,,,,,,,,,,,,,,,,,,,,,,,,,,,,,,,,,,,,,,,,,,,,,,,,,,,,,,,,,,,,,,,,,,,,,,,,,,,,,,,,,,,,,,,,,,,,,,,,,,,,,,,,,,,,,,
0,14,14,84,1,,60d4477467e235cde30140a9,62bbfaf8d49be600f97778d6,2022-06-29_09h11.57.790,Colour_Asymmetry_Pilot,2022.1.3,Win32,60.03842459,62bbe60bf3d75ef465d3e404,,,,,,,,,,,,,,,,,,,,,,,,,,,,,,,,,,,,,,,,,,,,,,,,,,,,,,,,,,,,,,,,,,,,,,,,,,,,,,,,,,,,,,,,,,,,,,,,,,,,,,,,,,,,,,,,,,,,,,,,,,,,,,,,,,,,,,,,,,,,,,,,,,,,,,,,,,,,,,
0,15,15,54,1,,60d4477467e235cde30140a9,62bbfaf8d49be600f97778d6,2022-06-29_09h11.57.790,Colour_Asymmetry_Pilot,2022.1.3,Win32,60.03842459,62bbe60bf3d75ef465d3e404,,,,,,,,,,,,,,,,,,,,,,,,,,,,,,,,,,,,,,,,,,,,,,,,,,,,,,,,,,,,,,,,,,,,,,,,,,,,,,,,,,,,,,,,,,,,,,,,,,,,,,,,,,,,,,,,,,,,,,,,,,,,,,,,,,,,,,,,,,,,,,,,,,,,,,,,,,,,,,
0,16,16,77,1,,60d4477467e235cde30140a9,62bbfaf8d49be600f97778d6,2022-06-29_09h11.57.790,Colour_Asymmetry_Pilot,2022.1.3,Win32,60.03842459,62bbe60bf3d75ef465d3e404,,,,,,,,,,,,,,,,,,,,,,,,,,,,,,,,,,,,,,,,,,,,,,,,,,,,,,,,,,,,,,,,,,,,,,,,,,,,,,,,,,,,,,,,,,,,,,,,,,,,,,,,,,,,,,,,,,,,,,,,,,,,,,,,,,,,,,,,,,,,,,,,,,,,,,,,,,,,,,
0,17,17,33,1,,60d4477467e235cde30140a9,62bbfaf8d49be600f97778d6,2022-06-29_09h11.57.790,Colour_Asymmetry_Pilot,2022.1.3,Win32,60.03842459,62bbe60bf3d75ef465d3e404,,,,,,,,,,,,,,,,,,,,,,,,,,,,,,,,,,,,,,,,,,,,,,,,,,,,,,,,,,,,,,,,,,,,,,,,,,,,,,,,,,,,,,,,,,,,,,,,,,,,,,,,,,,,,,,,,,,,,,,,,,,,,,,,,,,,,,,,,,,,,,,,,,,,,,,,,,,,,,
0,18,18,76,1,,60d4477467e235cde30140a9,62bbfaf8d49be600f97778d6,2022-06-29_09h11.57.790,Colour_Asymmetry_Pilot,2022.1.3,Win32,60.03842459,62bbe60bf3d75ef465d3e404,,,,,,,,,,,,,,,,,,,,,,,,,,,,,,,,,,,,,,,,,,,,,,,,,,,,,,,,,,,,,,,,,,,,,,,,,,,,,,,,,,,,,,,,,,,,,,,,,,,,,,,,,,,,,,,,,,,,,,,,,,,,,,,,,,,,,,,,,,,,,,,,,,,,,,,,,,,,,,
0,19,19,79,1,,60d4477467e235cde30140a9,62bbfaf8d49be600f97778d6,2022-06-29_09h11.57.790,Colour_Asymmetry_Pilot,2022.1.3,Win32,60.03842459,62bbe60bf3d75ef465d3e404,,,,,,,,,,,,,,,,,,,,,,,,,,,,,,,,,,,,,,,,,,,,,,,,,,,,,,,,,,,,,,,,,,,,,,,,,,,,,,,,,,,,,,,,,,,,,,,,,,,,,,,,,,,,,,,,,,,,,,,,,,,,,,,,,,,,,,,,,,,,,,,,,,,,,,,,,,,,,,
0,20,20,45,1,,60d4477467e235cde30140a9,62bbfaf8d49be600f97778d6,2022-06-29_09h11.57.790,Colour_Asymmetry_Pilot,2022.1.3,Win32,60.03842459,62bbe60bf3d75ef465d3e404,,,,,,,,,,,,,,,,,,,,,,,,,,,,,,,,,,,,,,,,,,,,,,,,,,,,,,,,,,,,,,,,,,,,,,,,,,,,,,,,,,,,,,,,,,,,,,,,,,,,,,,,,,,,,,,,,,,,,,,,,,,,,,,,,,,,,,,,,,,,,,,,,,,,,,,,,,,,,,
0,21,21,18,1,,60d4477467e235cde30140a9,62bbfaf8d49be600f97778d6,2022-06-29_09h11.57.790,Colour_Asymmetry_Pilot,2022.1.3,Win32,60.03842459,62bbe60bf3d75ef465d3e404,,,,,,,,,,,,,,,,,,,,,,,,,,,,,,,,,,,,,,,,,,,,,,,,,,,,,,,,,,,,,,,,,,,,,,,,,,,,,,,,,,,,,,,,,,,,,,,,,,,,,,,,,,,,,,,,,,,,,,,,,,,,,,,,,,,,,,,,,,,,,,,,,,,,,,,,,,,,,,
0,22,22,81,1,,60d4477467e235cde30140a9,62bbfaf8d49be600f97778d6,2022-06-29_09h11.57.790,Colour_Asymmetry_Pilot,2022.1.3,Win32,60.03842459,62bbe60bf3d75ef465d3e404,,,,,,,,,,,,,,,,,,,,,,,,,,,,,,,,,,,,,,,,,,,,,,,,,,,,,,,,,,,,,,,,,,,,,,,,,,,,,,,,,,,,,,,,,,,,,,,,,,,,,,,,,,,,,,,,,,,,,,,,,,,,,,,,,,,,,,,,,,,,,,,,,,,,,,,,,,,,,,
0,23,23,29,1,,60d4477467e235cde30140a9,62bbfaf8d49be600f97778d6,2022-06-29_09h11.57.790,Colour_Asymmetry_Pilot,2022.1.3,Win32,60.03842459,62bbe60bf3d75ef465d3e404,,,,,,,,,,,,,,,,,,,,,,,,,,,,,,,,,,,,,,,,,,,,,,,,,,,,,,,,,,,,,,,,,,,,,,,,,,,,,,,,,,,,,,,,,,,,,,,,,,,,,,,,,,,,,,,,,,,,,,,,,,,,,,,,,,,,,,,,,,,,,,,,,,,,,,,,,,,,,,
0,24,24,34,1,,60d4477467e235cde30140a9,62bbfaf8d49be600f97778d6,2022-06-29_09h11.57.790,Colour_Asymmetry_Pilot,2022.1.3,Win32,60.03842459,62bbe60bf3d75ef465d3e404,,,,,,,,,,,,,,,,,,,,,,,,,,,,,,,,,,,,,,,,,,,,,,,,,,,,,,,,,,,,,,,,,,,,,,,,,,,,,,,,,,,,,,,,,,,,,,,,,,,,,,,,,,,,,,,,,,,,,,,,,,,,,,,,,,,,,,,,,,,,,,,,,,,,,,,,,,,,,,
0,25,25,62,1,,60d4477467e235cde30140a9,62bbfaf8d49be600f97778d6,2022-06-29_09h11.57.790,Colour_Asymmetry_Pilot,2022.1.3,Win32,60.03842459,62bbe60bf3d75ef465d3e404,,,,,,,,,,,,,,,,,,,,,,,,,,,,,,,,,,,,,,,,,,,,,,,,,,,,,,,,,,,,,,,,,,,,,,,,,,,,,,,,,,,,,,,,,,,,,,,,,,,,,,,,,,,,,,,,,,,,,,,,,,,,,,,,,,,,,,,,,,,,,,,,,,,,,,,,,,,,,,
0,26,26,73,1,,60d4477467e235cde30140a9,62bbfaf8d49be600f97778d6,2022-06-29_09h11.57.790,Colour_Asymmetry_Pilot,2022.1.3,Win32,60.03842459,62bbe60bf3d75ef465d3e404,,,,,,,,,,,,,,,,,,,,,,,,,,,,,,,,,,,,,,,,,,,,,,,,,,,,,,,,,,,,,,,,,,,,,,,,,,,,,,,,,,,,,,,,,,,,,,,,,,,,,,,,,,,,,,,,,,,,,,,,,,,,,,,,,,,,,,,,,,,,,,,,,,,,,,,,,,,,,,
0,27,27,4,1,,60d4477467e235cde30140a9,62bbfaf8d49be600f97778d6,2022-06-29_09h11.57.790,Colour_Asymmetry_Pilot,2022.1.3,Win32,60.03842459,62bbe60bf3d75ef465d3e404,,,,,,,,,,,,,,,,,,,,,,,,,,,,,,,,,,,,,,,,,,,,,,,,,,,,,,,,,,,,,,,,,,,,,,,,,,,,,,,,,,,,,,,,,,,,,,,,,,,,,,,,,,,,,,,,,,,,,,,,,,,,,,,,,,,,,,,,,,,,,,,,,,,,,,,,,,,,,,
0,28,28,60,1,,60d4477467e235cde30140a9,62bbfaf8d49be600f97778d6,2022-06-29_09h11.57.790,Colour_Asymmetry_Pilot,2022.1.3,Win32,60.03842459,62bbe60bf3d75ef465d3e404,,,,,,,,,,,,,,,,,,,,,,,,,,,,,,,,,,,,,,,,,,,,,,,,,,,,,,,,,,,,,,,,,,,,,,,,,,,,,,,,,,,,,,,,,,,,,,,,,,,,,,,,,,,,,,,,,,,,,,,,,,,,,,,,,,,,,,,,,,,,,,,,,,,,,,,,,,,,,,
0,29,29,58,1,,60d4477467e235cde30140a9,62bbfaf8d49be600f97778d6,2022-06-29_09h11.57.790,Colour_Asymmetry_Pilot,2022.1.3,Win32,60.03842459,62bbe60bf3d75ef465d3e404,,,,,,,,,,,,,,,,,,,,,,,,,,,,,,,,,,,,,,,,,,,,,,,,,,,,,,,,,,,,,,,,,,,,,,,,,,,,,,,,,,,,,,,,,,,,,,,,,,,,,,,,,,,,,,,,,,,,,,,,,,,,,,,,,,,,,,,,,,,,,,,,,,,,,,,,,,,,,,
0,30,30,82,1,,60d4477467e235cde30140a9,62bbfaf8d49be600f97778d6,2022-06-29_09h11.57.790,Colour_Asymmetry_Pilot,2022.1.3,Win32,60.03842459,62bbe60bf3d75ef465d3e404,,,,,,,,,,,,,,,,,,,,,,,,,,,,,,,,,,,,,,,,,,,,,,,,,,,,,,,,,,,,,,,,,,,,,,,,,,,,,,,,,,,,,,,,,,,,,,,,,,,,,,,,,,,,,,,,,,,,,,,,,,,,,,,,,,,,,,,,,,,,,,,,,,,,,,,,,,,,,,
0,31,31,65,1,,60d4477467e235cde30140a9,62bbfaf8d49be600f97778d6,2022-06-29_09h11.57.790,Colour_Asymmetry_Pilot,2022.1.3,Win32,60.03842459,62bbe60bf3d75ef465d3e404,,,,,,,,,,,,,,,,,,,,,,,,,,,,,,,,,,,,,,,,,,,,,,,,,,,,,,,,,,,,,,,,,,,,,,,,,,,,,,,,,,,,,,,,,,,,,,,,,,,,,,,,,,,,,,,,,,,,,,,,,,,,,,,,,,,,,,,,,,,,,,,,,,,,,,,,,,,,,,
0,32,32,42,1,,60d4477467e235cde30140a9,62bbfaf8d49be600f97778d6,2022-06-29_09h11.57.790,Colour_Asymmetry_Pilot,2022.1.3,Win32,60.03842459,62bbe60bf3d75ef465d3e404,,,,,,,,,,,,,,,,,,,,,,,,,,,,,,,,,,,,,,,,,,,,,,,,,,,,,,,,,,,,,,,,,,,,,,,,,,,,,,,,,,,,,,,,,,,,,,,,,,,,,,,,,,,,,,,,,,,,,,,,,,,,,,,,,,,,,,,,,,,,,,,,,,,,,,,,,,,,,,
0,33,33,22,1,,60d4477467e235cde30140a9,62bbfaf8d49be600f97778d6,2022-06-29_09h11.57.790,Colour_Asymmetry_Pilot,2022.1.3,Win32,60.03842459,62bbe60bf3d75ef465d3e404,,,,,,,,,,,,,,,,,,,,,,,,,,,,,,,,,,,,,,,,,,,,,,,,,,,,,,,,,,,,,,,,,,,,,,,,,,,,,,,,,,,,,,,,,,,,,,,,,,,,,,,,,,,,,,,,,,,,,,,,,,,,,,,,,,,,,,,,,,,,,,,,,,,,,,,,,,,,,,
0,34,34,43,1,,60d4477467e235cde30140a9,62bbfaf8d49be600f97778d6,2022-06-29_09h11.57.790,Colour_Asymmetry_Pilot,2022.1.3,Win32,60.03842459,62bbe60bf3d75ef465d3e404,,,,,,,,,,,,,,,,,,,,,,,,,,,,,,,,,,,,,,,,,,,,,,,,,,,,,,,,,,,,,,,,,,,,,,,,,,,,,,,,,,,,,,,,,,,,,,,,,,,,,,,,,,,,,,,,,,,,,,,,,,,,,,,,,,,,,,,,,,,,,,,,,,,,,,,,,,,,,,
0,35,35,92,1,,60d4477467e235cde30140a9,62bbfaf8d49be600f97778d6,2022-06-29_09h11.57.790,Colour_Asymmetry_Pilot,2022.1.3,Win32,60.03842459,62bbe60bf3d75ef465d3e404,,,,,,,,,,,,,,,,,,,,,,,,,,,,,,,,,,,,,,,,,,,,,,,,,,,,,,,,,,,,,,,,,,,,,,,,,,,,,,,,,,,,,,,,,,,,,,,,,,,,,,,,,,,,,,,,,,,,,,,,,,,,,,,,,,,,,,,,,,,,,,,,,,,,,,,,,,,,,,
0,36,36,55,1,,60d4477467e235cde30140a9,62bbfaf8d49be600f97778d6,2022-06-29_09h11.57.790,Colour_Asymmetry_Pilot,2022.1.3,Win32,60.03842459,62bbe60bf3d75ef465d3e404,,,,,,,,,,,,,,,,,,,,,,,,,,,,,,,,,,,,,,,,,,,,,,,,,,,,,,,,,,,,,,,,,,,,,,,,,,,,,,,,,,,,,,,,,,,,,,,,,,,,,,,,,,,,,,,,,,,,,,,,,,,,,,,,,,,,,,,,,,,,,,,,,,,,,,,,,,,,,,
0,37,37,36,1,,60d4477467e235cde30140a9,62bbfaf8d49be600f97778d6,2022-06-29_09h11.57.790,Colour_Asymmetry_Pilot,2022.1.3,Win32,60.03842459,62bbe60bf3d75ef465d3e404,,,,,,,,,,,,,,,,,,,,,,,,,,,,,,,,,,,,,,,,,,,,,,,,,,,,,,,,,,,,,,,,,,,,,,,,,,,,,,,,,,,,,,,,,,,,,,,,,,,,,,,,,,,,,,,,,,,,,,,,,,,,,,,,,,,,,,,,,,,,,,,,,,,,,,,,,,,,,,
0,38,38,51,1,,60d4477467e235cde30140a9,62bbfaf8d49be600f97778d6,2022-06-29_09h11.57.790,Colour_Asymmetry_Pilot,2022.1.3,Win32,60.03842459,62bbe60bf3d75ef465d3e404,,,,,,,,,,,,,,,,,,,,,,,,,,,,,,,,,,,,,,,,,,,,,,,,,,,,,,,,,,,,,,,,,,,,,,,,,,,,,,,,,,,,,,,,,,,,,,,,,,,,,,,,,,,,,,,,,,,,,,,,,,,,,,,,,,,,,,,,,,,,,,,,,,,,,,,,,,,,,,
0,39,39,15,1,,60d4477467e235cde30140a9,62bbfaf8d49be600f97778d6,2022-06-29_09h11.57.790,Colour_Asymmetry_Pilot,2022.1.3,Win32,60.03842459,62bbe60bf3d75ef465d3e404,,,,,,,,,,,,,,,,,,,,,,,,,,,,,,,,,,,,,,,,,,,,,,,,,,,,,,,,,,,,,,,,,,,,,,,,,,,,,,,,,,,,,,,,,,,,,,,,,,,,,,,,,,,,,,,,,,,,,,,,,,,,,,,,,,,,,,,,,,,,,,,,,,,,,,,,,,,,,,
0,40,40,31,1,,60d4477467e235cde30140a9,62bbfaf8d49be600f97778d6,2022-06-29_09h11.57.790,Colour_Asymmetry_Pilot,2022.1.3,Win32,60.03842459,62bbe60bf3d75ef465d3e404,,,,,,,,,,,,,,,,,,,,,,,,,,,,,,,,,,,,,,,,,,,,,,,,,,,,,,,,,,,,,,,,,,,,,,,,,,,,,,,,,,,,,,,,,,,,,,,,,,,,,,,,,,,,,,,,,,,,,,,,,,,,,,,,,,,,,,,,,,,,,,,,,,,,,,,,,,,,,,
0,41,41,16,1,,60d4477467e235cde30140a9,62bbfaf8d49be600f97778d6,2022-06-29_09h11.57.790,Colour_Asymmetry_Pilot,2022.1.3,Win32,60.03842459,62bbe60bf3d75ef465d3e404,,,,,,,,,,,,,,,,,,,,,,,,,,,,,,,,,,,,,,,,,,,,,,,,,,,,,,,,,,,,,,,,,,,,,,,,,,,,,,,,,,,,,,,,,,,,,,,,,,,,,,,,,,,,,,,,,,,,,,,,,,,,,,,,,,,,,,,,,,,,,,,,,,,,,,,,,,,,,,
0,42,42,8,1,,60d4477467e235cde30140a9,62bbfaf8d49be600f97778d6,2022-06-29_09h11.57.790,Colour_Asymmetry_Pilot,2022.1.3,Win32,60.03842459,62bbe60bf3d75ef465d3e404,,,,,,,,,,,,,,,,,,,,,,,,,,,,,,,,,,,,,,,,,,,,,,,,,,,,,,,,,,,,,,,,,,,,,,,,,,,,,,,,,,,,,,,,,,,,,,,,,,,,,,,,,,,,,,,,,,,,,,,,,,,,,,,,,,,,,,,,,,,,,,,,,,,,,,,,,,,,,,
0,43,43,59,1,,60d4477467e235cde30140a9,62bbfaf8d49be600f97778d6,2022-06-29_09h11.57.790,Colour_Asymmetry_Pilot,2022.1.3,Win32,60.03842459,62bbe60bf3d75ef465d3e404,,,,,,,,,,,,,,,,,,,,,,,,,,,,,,,,,,,,,,,,,,,,,,,,,,,,,,,,,,,,,,,,,,,,,,,,,,,,,,,,,,,,,,,,,,,,,,,,,,,,,,,,,,,,,,,,,,,,,,,,,,,,,,,,,,,,,,,,,,,,,,,,,,,,,,,,,,,,,,
0,44,44,69,1,,60d4477467e235cde30140a9,62bbfaf8d49be600f97778d6,2022-06-29_09h11.57.790,Colour_Asymmetry_Pilot,2022.1.3,Win32,60.03842459,62bbe60bf3d75ef465d3e404,,,,,,,,,,,,,,,,,,,,,,,,,,,,,,,,,,,,,,,,,,,,,,,,,,,,,,,,,,,,,,,,,,,,,,,,,,,,,,,,,,,,,,,,,,,,,,,,,,,,,,,,,,,,,,,,,,,,,,,,,,,,,,,,,,,,,,,,,,,,,,,,,,,,,,,,,,,,,,
0,45,45,7,1,,60d4477467e235cde30140a9,62bbfaf8d49be600f97778d6,2022-06-29_09h11.57.790,Colour_Asymmetry_Pilot,2022.1.3,Win32,60.03842459,62bbe60bf3d75ef465d3e404,,,,,,,,,,,,,,,,,,,,,,,,,,,,,,,,,,,,,,,,,,,,,,,,,,,,,,,,,,,,,,,,,,,,,,,,,,,,,,,,,,,,,,,,,,,,,,,,,,,,,,,,,,,,,,,,,,,,,,,,,,,,,,,,,,,,,,,,,,,,,,,,,,,,,,,,,,,,,,
0,46,46,2,1,,60d4477467e235cde30140a9,62bbfaf8d49be600f97778d6,2022-06-29_09h11.57.790,Colour_Asymmetry_Pilot,2022.1.3,Win32,60.03842459,62bbe60bf3d75ef465d3e404,,,,,,,,,,,,,,,,,,,,,,,,,,,,,,,,,,,,,,,,,,,,,,,,,,,,,,,,,,,,,,,,,,,,,,,,,,,,,,,,,,,,,,,,,,,,,,,,,,,,,,,,,,,,,,,,,,,,,,,,,,,,,,,,,,,,,,,,,,,,,,,,,,,,,,,,,,,,,,
0,47,47,17,1,,60d4477467e235cde30140a9,62bbfaf8d49be600f97778d6,2022-06-29_09h11.57.790,Colour_Asymmetry_Pilot,2022.1.3,Win32,60.03842459,62bbe60bf3d75ef465d3e404,,,,,,,,,,,,,,,,,,,,,,,,,,,,,,,,,,,,,,,,,,,,,,,,,,,,,,,,,,,,,,,,,,,,,,,,,,,,,,,,,,,,,,,,,,,,,,,,,,,,,,,,,,,,,,,,,,,,,,,,,,,,,,,,,,,,,,,,,,,,,,,,,,,,,,,,,,,,,,
0,48,48,35,1,,60d4477467e235cde30140a9,62bbfaf8d49be600f97778d6,2022-06-29_09h11.57.790,Colour_Asymmetry_Pilot,2022.1.3,Win32,60.03842459,62bbe60bf3d75ef465d3e404,,,,,,,,,,,,,,,,,,,,,,,,,,,,,,,,,,,,,,,,,,,,,,,,,,,,,,,,,,,,,,,,,,,,,,,,,,,,,,,,,,,,,,,,,,,,,,,,,,,,,,,,,,,,,,,,,,,,,,,,,,,,,,,,,,,,,,,,,,,,,,,,,,,,,,,,,,,,,,
0,49,49,13,1,,60d4477467e235cde30140a9,62bbfaf8d49be600f97778d6,2022-06-29_09h11.57.790,Colour_Asymmetry_Pilot,2022.1.3,Win32,60.03842459,62bbe60bf3d75ef465d3e404,,,,,,,,,,,,,,,,,,,,,,,,,,,,,,,,,,,,,,,,,,,,,,,,,,,,,,,,,,,,,,,,,,,,,,,,,,,,,,,,,,,,,,,,,,,,,,,,,,,,,,,,,,,,,,,,,,,,,,,,,,,,,,,,,,,,,,,,,,,,,,,,,,,,,,,,,,,,,,
0,50,50,0,1,,60d4477467e235cde30140a9,62bbfaf8d49be600f97778d6,2022-06-29_09h11.57.790,Colour_Asymmetry_Pilot,2022.1.3,Win32,60.03842459,62bbe60bf3d75ef465d3e404,,,,,,,,,,,,,,,,,,,,,,,,,,,,,,,,,,,,,,,,,,,,,,,,,,,,,,,,,,,,,,,,,,,,,,,,,,,,,,,,,,,,,,,,,,,,,,,,,,,,,,,,,,,,,,,,,,,,,,,,,,,,,,,,,,,,,,,,,,,,,,,,,,,,,,,,,,,,,,
0,51,51,28,1,,60d4477467e235cde30140a9,62bbfaf8d49be600f97778d6,2022-06-29_09h11.57.790,Colour_Asymmetry_Pilot,2022.1.3,Win32,60.03842459,62bbe60bf3d75ef465d3e404,,,,,,,,,,,,,,,,,,,,,,,,,,,,,,,,,,,,,,,,,,,,,,,,,,,,,,,,,,,,,,,,,,,,,,,,,,,,,,,,,,,,,,,,,,,,,,,,,,,,,,,,,,,,,,,,,,,,,,,,,,,,,,,,,,,,,,,,,,,,,,,,,,,,,,,,,,,,,,
0,52,52,66,1,,60d4477467e235cde30140a9,62bbfaf8d49be600f97778d6,2022-06-29_09h11.57.790,Colour_Asymmetry_Pilot,2022.1.3,Win32,60.03842459,62bbe60bf3d75ef465d3e404,,,,,,,,,,,,,,,,,,,,,,,,,,,,,,,,,,,,,,,,,,,,,,,,,,,,,,,,,,,,,,,,,,,,,,,,,,,,,,,,,,,,,,,,,,,,,,,,,,,,,,,,,,,,,,,,,,,,,,,,,,,,,,,,,,,,,,,,,,,,,,,,,,,,,,,,,,,,,,
0,53,53,23,1,,60d4477467e235cde30140a9,62bbfaf8d49be600f97778d6,2022-06-29_09h11.57.790,Colour_Asymmetry_Pilot,2022.1.3,Win32,60.03842459,62bbe60bf3d75ef465d3e404,,,,,,,,,,,,,,,,,,,,,,,,,,,,,,,,,,,,,,,,,,,,,,,,,,,,,,,,,,,,,,,,,,,,,,,,,,,,,,,,,,,,,,,,,,,,,,,,,,,,,,,,,,,,,,,,,,,,,,,,,,,,,,,,,,,,,,,,,,,,,,,,,,,,,,,,,,,,,,
0,54,54,68,1,,60d4477467e235cde30140a9,62bbfaf8d49be600f97778d6,2022-06-29_09h11.57.790,Colour_Asymmetry_Pilot,2022.1.3,Win32,60.03842459,62bbe60bf3d75ef465d3e404,,,,,,,,,,,,,,,,,,,,,,,,,,,,,,,,,,,,,,,,,,,,,,,,,,,,,,,,,,,,,,,,,,,,,,,,,,,,,,,,,,,,,,,,,,,,,,,,,,,,,,,,,,,,,,,,,,,,,,,,,,,,,,,,,,,,,,,,,,,,,,,,,,,,,,,,,,,,,,
0,55,55,89,1,,60d4477467e235cde30140a9,62bbfaf8d49be600f97778d6,2022-06-29_09h11.57.790,Colour_Asymmetry_Pilot,2022.1.3,Win32,60.03842459,62bbe60bf3d75ef465d3e404,,,,,,,,,,,,,,,,,,,,,,,,,,,,,,,,,,,,,,,,,,,,,,,,,,,,,,,,,,,,,,,,,,,,,,,,,,,,,,,,,,,,,,,,,,,,,,,,,,,,,,,,,,,,,,,,,,,,,,,,,,,,,,,,,,,,,,,,,,,,,,,,,,,,,,,,,,,,,,
0,56,56,48,1,,60d4477467e235cde30140a9,62bbfaf8d49be600f97778d6,2022-06-29_09h11.57.790,Colour_Asymmetry_Pilot,2022.1.3,Win32,60.03842459,62bbe60bf3d75ef465d3e404,,,,,,,,,,,,,,,,,,,,,,,,,,,,,,,,,,,,,,,,,,,,,,,,,,,,,,,,,,,,,,,,,,,,,,,,,,,,,,,,,,,,,,,,,,,,,,,,,,,,,,,,,,,,,,,,,,,,,,,,,,,,,,,,,,,,,,,,,,,,,,,,,,,,,,,,,,,,,,
0,57,57,63,1,,60d4477467e235cde30140a9,62bbfaf8d49be600f97778d6,2022-06-29_09h11.57.790,Colour_Asymmetry_Pilot,2022.1.3,Win32,60.03842459,62bbe60bf3d75ef465d3e404,,,,,,,,,,,,,,,,,,,,,,,,,,,,,,,,,,,,,,,,,,,,,,,,,,,,,,,,,,,,,,,,,,,,,,,,,,,,,,,,,,,,,,,,,,,,,,,,,,,,,,,,,,,,,,,,,,,,,,,,,,,,,,,,,,,,,,,,,,,,,,,,,,,,,,,,,,,,,,
0,58,58,3,1,,60d4477467e235cde30140a9,62bbfaf8d49be600f97778d6,2022-06-29_09h11.57.790,Colour_Asymmetry_Pilot,2022.1.3,Win32,60.03842459,62bbe60bf3d75ef465d3e404,,,,,,,,,,,,,,,,,,,,,,,,,,,,,,,,,,,,,,,,,,,,,,,,,,,,,,,,,,,,,,,,,,,,,,,,,,,,,,,,,,,,,,,,,,,,,,,,,,,,,,,,,,,,,,,,,,,,,,,,,,,,,,,,,,,,,,,,,,,,,,,,,,,,,,,,,,,,,,
0,59,59,56,1,,60d4477467e235cde30140a9,62bbfaf8d49be600f97778d6,2022-06-29_09h11.57.790,Colour_Asymmetry_Pilot,2022.1.3,Win32,60.03842459,62bbe60bf3d75ef465d3e404,,,,,,,,,,,,,,,,,,,,,,,,,,,,,,,,,,,,,,,,,,,,,,,,,,,,,,,,,,,,,,,,,,,,,,,,,,,,,,,,,,,,,,,,,,,,,,,,,,,,,,,,,,,,,,,,,,,,,,,,,,,,,,,,,,,,,,,,,,,,,,,,,,,,,,,,,,,,,,
0,60,60,5,1,,60d4477467e235cde30140a9,62bbfaf8d49be600f97778d6,2022-06-29_09h11.57.790,Colour_Asymmetry_Pilot,2022.1.3,Win32,60.03842459,62bbe60bf3d75ef465d3e404,,,,,,,,,,,,,,,,,,,,,,,,,,,,,,,,,,,,,,,,,,,,,,,,,,,,,,,,,,,,,,,,,,,,,,,,,,,,,,,,,,,,,,,,,,,,,,,,,,,,,,,,,,,,,,,,,,,,,,,,,,,,,,,,,,,,,,,,,,,,,,,,,,,,,,,,,,,,,,
0,61,61,80,1,,60d4477467e235cde30140a9,62bbfaf8d49be600f97778d6,2022-06-29_09h11.57.790,Colour_Asymmetry_Pilot,2022.1.3,Win32,60.03842459,62bbe60bf3d75ef465d3e404,,,,,,,,,,,,,,,,,,,,,,,,,,,,,,,,,,,,,,,,,,,,,,,,,,,,,,,,,,,,,,,,,,,,,,,,,,,,,,,,,,,,,,,,,,,,,,,,,,,,,,,,,,,,,,,,,,,,,,,,,,,,,,,,,,,,,,,,,,,,,,,,,,,,,,,,,,,,,,
0,62,62,57,1,,60d4477467e235cde30140a9,62bbfaf8d49be600f97778d6,2022-06-29_09h11.57.790,Colour_Asymmetry_Pilot,2022.1.3,Win32,60.03842459,62bbe60bf3d75ef465d3e404,,,,,,,,,,,,,,,,,,,,,,,,,,,,,,,,,,,,,,,,,,,,,,,,,,,,,,,,,,,,,,,,,,,,,,,,,,,,,,,,,,,,,,,,,,,,,,,,,,,,,,,,,,,,,,,,,,,,,,,,,,,,,,,,,,,,,,,,,,,,,,,,,,,,,,,,,,,,,,
0,63,63,20,1,,60d4477467e235cde30140a9,62bbfaf8d49be600f97778d6,2022-06-29_09h11.57.790,Colour_Asymmetry_Pilot,2022.1.3,Win32,60.03842459,62bbe60bf3d75ef465d3e404,,,,,,,,,,,,,,,,,,,,,,,,,,,,,,,,,,,,,,,,,,,,,,,,,,,,,,,,,,,,,,,,,,,,,,,,,,,,,,,,,,,,,,,,,,,,,,,,,,,,,,,,,,,,,,,,,,,,,,,,,,,,,,,,,,,,,,,,,,,,,,,,,,,,,,,,,,,,,,
0,64,64,24,1,,60d4477467e235cde30140a9,62bbfaf8d49be600f97778d6,2022-06-29_09h11.57.790,Colour_Asymmetry_Pilot,2022.1.3,Win32,60.03842459,62bbe60bf3d75ef465d3e404,,,,,,,,,,,,,,,,,,,,,,,,,,,,,,,,,,,,,,,,,,,,,,,,,,,,,,,,,,,,,,,,,,,,,,,,,,,,,,,,,,,,,,,,,,,,,,,,,,,,,,,,,,,,,,,,,,,,,,,,,,,,,,,,,,,,,,,,,,,,,,,,,,,,,,,,,,,,,,
0,65,65,30,1,,60d4477467e235cde30140a9,62bbfaf8d49be600f97778d6,2022-06-29_09h11.57.790,Colour_Asymmetry_Pilot,2022.1.3,Win32,60.03842459,62bbe60bf3d75ef465d3e404,,,,,,,,,,,,,,,,,,,,,,,,,,,,,,,,,,,,,,,,,,,,,,,,,,,,,,,,,,,,,,,,,,,,,,,,,,,,,,,,,,,,,,,,,,,,,,,,,,,,,,,,,,,,,,,,,,,,,,,,,,,,,,,,,,,,,,,,,,,,,,,,,,,,,,,,,,,,,,
0,66,66,26,1,,60d4477467e235cde30140a9,62bbfaf8d49be600f97778d6,2022-06-29_09h11.57.790,Colour_Asymmetry_Pilot,2022.1.3,Win32,60.03842459,62bbe60bf3d75ef465d3e404,,,,,,,,,,,,,,,,,,,,,,,,,,,,,,,,,,,,,,,,,,,,,,,,,,,,,,,,,,,,,,,,,,,,,,,,,,,,,,,,,,,,,,,,,,,,,,,,,,,,,,,,,,,,,,,,,,,,,,,,,,,,,,,,,,,,,,,,,,,,,,,,,,,,,,,,,,,,,,
0,67,67,27,1,,60d4477467e235cde30140a9,62bbfaf8d49be600f97778d6,2022-06-29_09h11.57.790,Colour_Asymmetry_Pilot,2022.1.3,Win32,60.03842459,62bbe60bf3d75ef465d3e404,,,,,,,,,,,,,,,,,,,,,,,,,,,,,,,,,,,,,,,,,,,,,,,,,,,,,,,,,,,,,,,,,,,,,,,,,,,,,,,,,,,,,,,,,,,,,,,,,,,,,,,,,,,,,,,,,,,,,,,,,,,,,,,,,,,,,,,,,,,,,,,,,,,,,,,,,,,,,,
0,68,68,64,1,,60d4477467e235cde30140a9,62bbfaf8d49be600f97778d6,2022-06-29_09h11.57.790,Colour_Asymmetry_Pilot,2022.1.3,Win32,60.03842459,62bbe60bf3d75ef465d3e404,,,,,,,,,,,,,,,,,,,,,,,,,,,,,,,,,,,,,,,,,,,,,,,,,,,,,,,,,,,,,,,,,,,,,,,,,,,,,,,,,,,,,,,,,,,,,,,,,,,,,,,,,,,,,,,,,,,,,,,,,,,,,,,,,,,,,,,,,,,,,,,,,,,,,,,,,,,,,,
0,69,69,86,1,,60d4477467e235cde30140a9,62bbfaf8d49be600f97778d6,2022-06-29_09h11.57.790,Colour_Asymmetry_Pilot,2022.1.3,Win32,60.03842459,62bbe60bf3d75ef465d3e404,,,,,,,,,,,,,,,,,,,,,,,,,,,,,,,,,,,,,,,,,,,,,,,,,,,,,,,,,,,,,,,,,,,,,,,,,,,,,,,,,,,,,,,,,,,,,,,,,,,,,,,,,,,,,,,,,,,,,,,,,,,,,,,,,,,,,,,,,,,,,,,,,,,,,,,,,,,,,,
0,70,70,61,1,,60d4477467e235cde30140a9,62bbfaf8d49be600f97778d6,2022-06-29_09h11.57.790,Colour_Asymmetry_Pilot,2022.1.3,Win32,60.03842459,62bbe60bf3d75ef465d3e404,,,,,,,,,,,,,,,,,,,,,,,,,,,,,,,,,,,,,,,,,,,,,,,,,,,,,,,,,,,,,,,,,,,,,,,,,,,,,,,,,,,,,,,,,,,,,,,,,,,,,,,,,,,,,,,,,,,,,,,,,,,,,,,,,,,,,,,,,,,,,,,,,,,,,,,,,,,,,,
0,71,71,38,1,,60d4477467e235cde30140a9,62bbfaf8d49be600f97778d6,2022-06-29_09h11.57.790,Colour_Asymmetry_Pilot,2022.1.3,Win32,60.03842459,62bbe60bf3d75ef465d3e404,,,,,,,,,,,,,,,,,,,,,,,,,,,,,,,,,,,,,,,,,,,,,,,,,,,,,,,,,,,,,,,,,,,,,,,,,,,,,,,,,,,,,,,,,,,,,,,,,,,,,,,,,,,,,,,,,,,,,,,,,,,,,,,,,,,,,,,,,,,,,,,,,,,,,,,,,,,,,,
0,72,72,41,1,,60d4477467e235cde30140a9,62bbfaf8d49be600f97778d6,2022-06-29_09h11.57.790,Colour_Asymmetry_Pilot,2022.1.3,Win32,60.03842459,62bbe60bf3d75ef465d3e404,,,,,,,,,,,,,,,,,,,,,,,,,,,,,,,,,,,,,,,,,,,,,,,,,,,,,,,,,,,,,,,,,,,,,,,,,,,,,,,,,,,,,,,,,,,,,,,,,,,,,,,,,,,,,,,,,,,,,,,,,,,,,,,,,,,,,,,,,,,,,,,,,,,,,,,,,,,,,,
0,73,73,74,1,,60d4477467e235cde30140a9,62bbfaf8d49be600f97778d6,2022-06-29_09h11.57.790,Colour_Asymmetry_Pilot,2022.1.3,Win32,60.03842459,62bbe60bf3d75ef465d3e404,,,,,,,,,,,,,,,,,,,,,,,,,,,,,,,,,,,,,,,,,,,,,,,,,,,,,,,,,,,,,,,,,,,,,,,,,,,,,,,,,,,,,,,,,,,,,,,,,,,,,,,,,,,,,,,,,,,,,,,,,,,,,,,,,,,,,,,,,,,,,,,,,,,,,,,,,,,,,,
0,74,74,32,1,,60d4477467e235cde30140a9,62bbfaf8d49be600f97778d6,2022-06-29_09h11.57.790,Colour_Asymmetry_Pilot,2022.1.3,Win32,60.03842459,62bbe60bf3d75ef465d3e404,,,,,,,,,,,,,,,,,,,,,,,,,,,,,,,,,,,,,,,,,,,,,,,,,,,,,,,,,,,,,,,,,,,,,,,,,,,,,,,,,,,,,,,,,,,,,,,,,,,,,,,,,,,,,,,,,,,,,,,,,,,,,,,,,,,,,,,,,,,,,,,,,,,,,,,,,,,,,,
0,75,75,75,1,,60d4477467e235cde30140a9,62bbfaf8d49be600f97778d6,2022-06-29_09h11.57.790,Colour_Asymmetry_Pilot,2022.1.3,Win32,60.03842459,62bbe60bf3d75ef465d3e404,,,,,,,,,,,,,,,,,,,,,,,,,,,,,,,,,,,,,,,,,,,,,,,,,,,,,,,,,,,,,,,,,,,,,,,,,,,,,,,,,,,,,,,,,,,,,,,,,,,,,,,,,,,,,,,,,,,,,,,,,,,,,,,,,,,,,,,,,,,,,,,,,,,,,,,,,,,,,,
0,76,76,83,1,,60d4477467e235cde30140a9,62bbfaf8d49be600f97778d6,2022-06-29_09h11.57.790,Colour_Asymmetry_Pilot,2022.1.3,Win32,60.03842459,62bbe60bf3d75ef465d3e404,,,,,,,,,,,,,,,,,,,,,,,,,,,,,,,,,,,,,,,,,,,,,,,,,,,,,,,,,,,,,,,,,,,,,,,,,,,,,,,,,,,,,,,,,,,,,,,,,,,,,,,,,,,,,,,,,,,,,,,,,,,,,,,,,,,,,,,,,,,,,,,,,,,,,,,,,,,,,,
0,77,77,1,1,,60d4477467e235cde30140a9,62bbfaf8d49be600f97778d6,2022-06-29_09h11.57.790,Colour_Asymmetry_Pilot,2022.1.3,Win32,60.03842459,62bbe60bf3d75ef465d3e404,,,,,,,,,,,,,,,,,,,,,,,,,,,,,,,,,,,,,,,,,,,,,,,,,,,,,,,,,,,,,,,,,,,,,,,,,,,,,,,,,,,,,,,,,,,,,,,,,,,,,,,,,,,,,,,,,,,,,,,,,,,,,,,,,,,,,,,,,,,,,,,,,,,,,,,,,,,,,,
0,78,78,11,1,,60d4477467e235cde30140a9,62bbfaf8d49be600f97778d6,2022-06-29_09h11.57.790,Colour_Asymmetry_Pilot,2022.1.3,Win32,60.03842459,62bbe60bf3d75ef465d3e404,,,,,,,,,,,,,,,,,,,,,,,,,,,,,,,,,,,,,,,,,,,,,,,,,,,,,,,,,,,,,,,,,,,,,,,,,,,,,,,,,,,,,,,,,,,,,,,,,,,,,,,,,,,,,,,,,,,,,,,,,,,,,,,,,,,,,,,,,,,,,,,,,,,,,,,,,,,,,,
0,79,79,44,1,,60d4477467e235cde30140a9,62bbfaf8d49be600f97778d6,2022-06-29_09h11.57.790,Colour_Asymmetry_Pilot,2022.1.3,Win32,60.03842459,62bbe60bf3d75ef465d3e404,,,,,,,,,,,,,,,,,,,,,,,,,,,,,,,,,,,,,,,,,,,,,,,,,,,,,,,,,,,,,,,,,,,,,,,,,,,,,,,,,,,,,,,,,,,,,,,,,,,,,,,,,,,,,,,,,,,,,,,,,,,,,,,,,,,,,,,,,,,,,,,,,,,,,,,,,,,,,,
0,80,80,39,1,,60d4477467e235cde30140a9,62bbfaf8d49be600f97778d6,2022-06-29_09h11.57.790,Colour_Asymmetry_Pilot,2022.1.3,Win32,60.03842459,62bbe60bf3d75ef465d3e404,,,,,,,,,,,,,,,,,,,,,,,,,,,,,,,,,,,,,,,,,,,,,,,,,,,,,,,,,,,,,,,,,,,,,,,,,,,,,,,,,,,,,,,,,,,,,,,,,,,,,,,,,,,,,,,,,,,,,,,,,,,,,,,,,,,,,,,,,,,,,,,,,,,,,,,,,,,,,,
0,81,81,14,1,,60d4477467e235cde30140a9,62bbfaf8d49be600f97778d6,2022-06-29_09h11.57.790,Colour_Asymmetry_Pilot,2022.1.3,Win32,60.03842459,62bbe60bf3d75ef465d3e404,,,,,,,,,,,,,,,,,,,,,,,,,,,,,,,,,,,,,,,,,,,,,,,,,,,,,,,,,,,,,,,,,,,,,,,,,,,,,,,,,,,,,,,,,,,,,,,,,,,,,,,,,,,,,,,,,,,,,,,,,,,,,,,,,,,,,,,,,,,,,,,,,,,,,,,,,,,,,,
0,82,82,90,1,,60d4477467e235cde30140a9,62bbfaf8d49be600f97778d6,2022-06-29_09h11.57.790,Colour_Asymmetry_Pilot,2022.1.3,Win32,60.03842459,62bbe60bf3d75ef465d3e404,,,,,,,,,,,,,,,,,,,,,,,,,,,,,,,,,,,,,,,,,,,,,,,,,,,,,,,,,,,,,,,,,,,,,,,,,,,,,,,,,,,,,,,,,,,,,,,,,,,,,,,,,,,,,,,,,,,,,,,,,,,,,,,,,,,,,,,,,,,,,,,,,,,,,,,,,,,,,,
0,83,83,78,1,,60d4477467e235cde30140a9,62bbfaf8d49be600f97778d6,2022-06-29_09h11.57.790,Colour_Asymmetry_Pilot,2022.1.3,Win32,60.03842459,62bbe60bf3d75ef465d3e404,,,,,,,,,,,,,,,,,,,,,,,,,,,,,,,,,,,,,,,,,,,,,,,,,,,,,,,,,,,,,,,,,,,,,,,,,,,,,,,,,,,,,,,,,,,,,,,,,,,,,,,,,,,,,,,,,,,,,,,,,,,,,,,,,,,,,,,,,,,,,,,,,,,,,,,,,,,,,,
0,84,84,72,1,,60d4477467e235cde30140a9,62bbfaf8d49be600f97778d6,2022-06-29_09h11.57.790,Colour_Asymmetry_Pilot,2022.1.3,Win32,60.03842459,62bbe60bf3d75ef465d3e404,,,,,,,,,,,,,,,,,,,,,,,,,,,,,,,,,,,,,,,,,,,,,,,,,,,,,,,,,,,,,,,,,,,,,,,,,,,,,,,,,,,,,,,,,,,,,,,,,,,,,,,,,,,,,,,,,,,,,,,,,,,,,,,,,,,,,,,,,,,,,,,,,,,,,,,,,,,,,,
0,85,85,50,1,,60d4477467e235cde30140a9,62bbfaf8d49be600f97778d6,2022-06-29_09h11.57.790,Colour_Asymmetry_Pilot,2022.1.3,Win32,60.03842459,62bbe60bf3d75ef465d3e404,,,,,,,,,,,,,,,,,,,,,,,,,,,,,,,,,,,,,,,,,,,,,,,,,,,,,,,,,,,,,,,,,,,,,,,,,,,,,,,,,,,,,,,,,,,,,,,,,,,,,,,,,,,,,,,,,,,,,,,,,,,,,,,,,,,,,,,,,,,,,,,,,,,,,,,,,,,,,,
0,86,86,53,1,,60d4477467e235cde30140a9,62bbfaf8d49be600f97778d6,2022-06-29_09h11.57.790,Colour_Asymmetry_Pilot,2022.1.3,Win32,60.03842459,62bbe60bf3d75ef465d3e404,,,,,,,,,,,,,,,,,,,,,,,,,,,,,,,,,,,,,,,,,,,,,,,,,,,,,,,,,,,,,,,,,,,,,,,,,,,,,,,,,,,,,,,,,,,,,,,,,,,,,,,,,,,,,,,,,,,,,,,,,,,,,,,,,,,,,,,,,,,,,,,,,,,,,,,,,,,,,,
0,87,87,25,1,,60d4477467e235cde30140a9,62bbfaf8d49be600f97778d6,2022-06-29_09h11.57.790,Colour_Asymmetry_Pilot,2022.1.3,Win32,60.03842459,62bbe60bf3d75ef465d3e404,,,,,,,,,,,,,,,,,,,,,,,,,,,,,,,,,,,,,,,,,,,,,,,,,,,,,,,,,,,,,,,,,,,,,,,,,,,,,,,,,,,,,,,,,,,,,,,,,,,,,,,,,,,,,,,,,,,,,,,,,,,,,,,,,,,,,,,,,,,,,,,,,,,,,,,,,,,,,,
0,88,88,52,1,,60d4477467e235cde30140a9,62bbfaf8d49be600f97778d6,2022-06-29_09h11.57.790,Colour_Asymmetry_Pilot,2022.1.3,Win32,60.03842459,62bbe60bf3d75ef465d3e404,,,,,,,,,,,,,,,,,,,,,,,,,,,,,,,,,,,,,,,,,,,,,,,,,,,,,,,,,,,,,,,,,,,,,,,,,,,,,,,,,,,,,,,,,,,,,,,,,,,,,,,,,,,,,,,,,,,,,,,,,,,,,,,,,,,,,,,,,,,,,,,,,,,,,,,,,,,,,,
0,89,89,87,1,,60d4477467e235cde30140a9,62bbfaf8d49be600f97778d6,2022-06-29_09h11.57.790,Colour_Asymmetry_Pilot,2022.1.3,Win32,60.03842459,62bbe60bf3d75ef465d3e404,,,,,,,,,,,,,,,,,,,,,,,,,,,,,,,,,,,,,,,,,,,,,,,,,,,,,,,,,,,,,,,,,,,,,,,,,,,,,,,,,,,,,,,,,,,,,,,,,,,,,,,,,,,,,,,,,,,,,,,,,,,,,,,,,,,,,,,,,,,,,,,,,,,,,,,,,,,,,,
0,90,90,40,1,,60d4477467e235cde30140a9,62bbfaf8d49be600f97778d6,2022-06-29_09h11.57.790,Colour_Asymmetry_Pilot,2022.1.3,Win32,60.03842459,62bbe60bf3d75ef465d3e404,,,,,,,,,,,,,,,,,,,,,,,,,,,,,,,,,,,,,,,,,,,,,,,,,,,,,,,,,,,,,,,,,,,,,,,,,,,,,,,,,,,,,,,,,,,,,,,,,,,,,,,,,,,,,,,,,,,,,,,,,,,,,,,,,,,,,,,,,,,,,,,,,,,,,,,,,,,,,,
0,91,91,12,1,,60d4477467e235cde30140a9,62bbfaf8d49be600f97778d6,2022-06-29_09h11.57.790,Colour_Asymmetry_Pilot,2022.1.3,Win32,60.03842459,62bbe60bf3d75ef465d3e404,,,,,,,,,,,,,,,,,,,,,,,,,,,,,,,,,,,,,,,,,,,,,,,,,,,,,,,,,,,,,,,,,,,,,,,,,,,,,,,,,,,,,,,,,,,,,,,,,,,,,,,,,,,,,,,,,,,,,,,,,,,,,,,,,,,,,,,,,,,,,,,,,,,,,,,,,,,,,,
0,92,92,71,1,,60d4477467e235cde30140a9,62bbfaf8d49be600f97778d6,2022-06-29_09h11.57.790,Colour_Asymmetry_Pilot,2022.1.3,Win32,60.03842459,62bbe60bf3d75ef465d3e404,,,,,,,,,,,,,,,,,,,,,,,,,,,,,,,,,,,,,,,,,,,,,,,,,,,,,,,,,,,,,,,,,,,,,,,,,,,,,,,,,,,,,,,,,,,,,,,,,,,,,,,,,,,,,,,,,,,,,,,,,,,,,,,,,,,,,,,,,,,,,,,,,,,,,,,,,,,,,,
,,,,,,60d4477467e235cde30140a9,62bbfaf8d49be600f97778d6,2022-06-29_09h11.57.790,Colour_Asymmetry_Pilot,2022.1.3,Win32,60.03842459,62bbe60bf3d75ef465d3e404,0,0,0,145,1,onethree,,,,,,,,,,,,,,,,,,,,,,,,,,,,,,,,,,,,,,,,,,,,,,,,,,,,,,,,,,,,,,,,,,,,,,,,,,,,,,,,,,,,,,,,,,,,,,,,,,,,,,,,,,,,,,,,,,,,,,,,,,,,,,,,,,,,,,,,,,,,,,,,,,,,,,,,
,,,,,,60d4477467e235cde30140a9,62bbfaf8d49be600f97778d6,2022-06-29_09h11.57.790,Colour_Asymmetry_Pilot,2022.1.3,Win32,60.03842459,62bbe60bf3d75ef465d3e404,0,1,1,141,1,threefour,,,,,,,,,,,,,,,,,,,,,,,,,,,,,,,,,,,,,,,,,,,,,,,,,,,,,,,,,,,,,,,,,,,,,,,,,,,,,,,,,,,,,,,,,,,,,,,,,,,,,,,,,,,,,,,,,,,,,,,,,,,,,,,,,,,,,,,,,,,,,,,,,,,,,,,,
,,,,,,60d4477467e235cde30140a9,62bbfaf8d49be600f97778d6,2022-06-29_09h11.57.790,Colour_Asymmetry_Pilot,2022.1.3,Win32,60.03842459,62bbe60bf3d75ef465d3e404,0,2,2,103,1,fourthree,,,,,,,,,,,,,,,,,,,,,,,,,,,,,,,,,,,,,,,,,,,,,,,,,,,,,,,,,,,,,,,,,,,,,,,,,,,,,,,,,,,,,,,,,,,,,,,,,,,,,,,,,,,,,,,,,,,,,,,,,,,,,,,,,,,,,,,,,,,,,,,,,,,,,,,,
,,,,,,60d4477467e235cde30140a9,62bbfaf8d49be600f97778d6,2022-06-29_09h11.57.790,Colour_Asymmetry_Pilot,2022.1.3,Win32,60.03842459,62bbe60bf3d75ef465d3e404,0,3,3,19,1,twofour,,,,,,,,,,,,,,,,,,,,,,,,,,,,,,,,,,,,,,,,,,,,,,,,,,,,,,,,,,,,,,,,,,,,,,,,,,,,,,,,,,,,,,,,,,,,,,,,,,,,,,,,,,,,,,,,,,,,,,,,,,,,,,,,,,,,,,,,,,,,,,,,,,,,,,,,
,,,,,,60d4477467e235cde30140a9,62bbfaf8d49be600f97778d6,2022-06-29_09h11.57.790,Colour_Asymmetry_Pilot,2022.1.3,Win32,60.03842459,62bbe60bf3d75ef465d3e404,0,4,4,80,1,onetwo,,,,,,,,,,,,,,,,,,,,,,,,,,,,,,,,,,,,,,,,,,,,,,,,,,,,,,,,,,,,,,,,,,,,,,,,,,,,,,,,,,,,,,,,,,,,,,,,,,,,,,,,,,,,,,,,,,,,,,,,,,,,,,,,,,,,,,,,,,,,,,,,,,,,,,,,
,,,,,,60d4477467e235cde30140a9,62bbfaf8d49be600f97778d6,2022-06-29_09h11.57.790,Colour_Asymmetry_Pilot,2022.1.3,Win32,60.03842459,62bbe60bf3d75ef465d3e404,0,5,5,148,1,threeone,,,,,,,,,,,,,,,,,,,,,,,,,,,,,,,,,,,,,,,,,,,,,,,,,,,,,,,,,,,,,,,,,,,,,,,,,,,,,,,,,,,,,,,,,,,,,,,,,,,,,,,,,,,,,,,,,,,,,,,,,,,,,,,,,,,,,,,,,,,,,,,,,,,,,,,,
,,,,,,60d4477467e235cde30140a9,62bbfaf8d49be600f97778d6,2022-06-29_09h11.57.790,Colour_Asymmetry_Pilot,2022.1.3,Win32,60.03842459,62bbe60bf3d75ef465d3e404,0,6,6,39,1,fourthree,,,,,,,,,,,,,,,,,,,,,,,,,,,,,,,,,,,,,,,,,,,,,,,,,,,,,,,,,,,,,,,,,,,,,,,,,,,,,,,,,,,,,,,,,,,,,,,,,,,,,,,,,,,,,,,,,,,,,,,,,,,,,,,,,,,,,,,,,,,,,,,,,,,,,,,,
,,,,,,60d4477467e235cde30140a9,62bbfaf8d49be600f97778d6,2022-06-29_09h11.57.790,Colour_Asymmetry_Pilot,2022.1.3,Win32,60.03842459,62bbe60bf3d75ef465d3e404,0,7,7,120,1,onetwo,,,,,,,,,,,,,,,,,,,,,,,,,,,,,,,,,,,,,,,,,,,,,,,,,,,,,,,,,,,,,,,,,,,,,,,,,,,,,,,,,,,,,,,,,,,,,,,,,,,,,,,,,,,,,,,,,,,,,,,,,,,,,,,,,,,,,,,,,,,,,,,,,,,,,,,,
,,,,,,60d4477467e235cde30140a9,62bbfaf8d49be600f97778d6,2022-06-29_09h11.57.790,Colour_Asymmetry_Pilot,2022.1.3,Win32,60.03842459,62bbe60bf3d75ef465d3e404,0,8,8,114,1,twoone,,,,,,,,,,,,,,,,,,,,,,,,,,,,,,,,,,,,,,,,,,,,,,,,,,,,,,,,,,,,,,,,,,,,,,,,,,,,,,,,,,,,,,,,,,,,,,,,,,,,,,,,,,,,,,,,,,,,,,,,,,,,,,,,,,,,,,,,,,,,,,,,,,,,,,,,
,,,,,,60d4477467e235cde30140a9,62bbfaf8d49be600f97778d6,2022-06-29_09h11.57.790,Colour_Asymmetry_Pilot,2022.1.3,Win32,60.03842459,62bbe60bf3d75ef465d3e404,0,9,9,137,1,onethree,,,,,,,,,,,,,,,,,,,,,,,,,,,,,,,,,,,,,,,,,,,,,,,,,,,,,,,,,,,,,,,,,,,,,,,,,,,,,,,,,,,,,,,,,,,,,,,,,,,,,,,,,,,,,,,,,,,,,,,,,,,,,,,,,,,,,,,,,,,,,,,,,,,,,,,,
,,,,,,60d4477467e235cde30140a9,62bbfaf8d49be600f97778d6,2022-06-29_09h11.57.790,Colour_Asymmetry_Pilot,2022.1.3,Win32,60.03842459,62bbe60bf3d75ef465d3e404,0,10,10,108,1,threeone,,,,,,,,,,,,,,,,,,,,,,,,,,,,,,,,,,,,,,,,,,,,,,,,,,,,,,,,,,,,,,,,,,,,,,,,,,,,,,,,,,,,,,,,,,,,,,,,,,,,,,,,,,,,,,,,,,,,,,,,,,,,,,,,,,,,,,,,,,,,,,,,,,,,,,,,
,,,,,,60d4477467e235cde30140a9,62bbfaf8d49be600f97778d6,2022-06-29_09h11.57.790,Colour_Asymmetry_Pilot,2022.1.3,Win32,60.03842459,62bbe60bf3d75ef465d3e404,0,11,11,49,1,onethree,,,,,,,,,,,,,,,,,,,,,,,,,,,,,,,,,,,,,,,,,,,,,,,,,,,,,,,,,,,,,,,,,,,,,,,,,,,,,,,,,,,,,,,,,,,,,,,,,,,,,,,,,,,,,,,,,,,,,,,,,,,,,,,,,,,,,,,,,,,,,,,,,,,,,,,,
,,,,,,60d4477467e235cde30140a9,62bbfaf8d49be600f97778d6,2022-06-29_09h11.57.790,Colour_Asymmetry_Pilot,2022.1.3,Win32,60.03842459,62bbe60bf3d75ef465d3e404,0,12,12,73,1,onethree,,,,,,,,,,,,,,,,,,,,,,,,,,,,,,,,,,,,,,,,,,,,,,,,,,,,,,,,,,,,,,,,,,,,,,,,,,,,,,,,,,,,,,,,,,,,,,,,,,,,,,,,,,,,,,,,,,,,,,,,,,,,,,,,,,,,,,,,,,,,,,,,,,,,,,,,
,,,,,,60d4477467e235cde30140a9,62bbfaf8d49be600f97778d6,2022-06-29_09h11.57.790,Colour_Asymmetry_Pilot,2022.1.3,Win32,60.03842459,62bbe60bf3d75ef465d3e404,0,13,13,75,1,twofour,,,,,,,,,,,,,,,,,,,,,,,,,,,,,,,,,,,,,,,,,,,,,,,,,,,,,,,,,,,,,,,,,,,,,,,,,,,,,,,,,,,,,,,,,,,,,,,,,,,,,,,,,,,,,,,,,,,,,,,,,,,,,,,,,,,,,,,,,,,,,,,,,,,,,,,,
,,,,,,60d4477467e235cde30140a9,62bbfaf8d49be600f97778d6,2022-06-29_09h11.57.790,Colour_Asymmetry_Pilot,2022.1.3,Win32,60.03842459,62bbe60bf3d75ef465d3e404,0,14,14,110,1,fourtwo,,,,,,,,,,,,,,,,,,,,,,,,,,,,,,,,,,,,,,,,,,,,,,,,,,,,,,,,,,,,,,,,,,,,,,,,,,,,,,,,,,,,,,,,,,,,,,,,,,,,,,,,,,,,,,,,,,,,,,,,,,,,,,,,,,,,,,,,,,,,,,,,,,,,,,,,
,,,,,,60d4477467e235cde30140a9,62bbfaf8d49be600f97778d6,2022-06-29_09h11.57.790,Colour_Asymmetry_Pilot,2022.1.3,Win32,60.03842459,62bbe60bf3d75ef465d3e404,0,15,15,76,1,threeone,,,,,,,,,,,,,,,,,,,,,,,,,,,,,,,,,,,,,,,,,,,,,,,,,,,,,,,,,,,,,,,,,,,,,,,,,,,,,,,,,,,,,,,,,,,,,,,,,,,,,,,,,,,,,,,,,,,,,,,,,,,,,,,,,,,,,,,,,,,,,,,,,,,,,,,,
,,,,,,60d4477467e235cde30140a9,62bbfaf8d49be600f97778d6,2022-06-29_09h11.57.790,Colour_Asymmetry_Pilot,2022.1.3,Win32,60.03842459,62bbe60bf3d75ef465d3e404,0,16,16,121,1,onethree,,,,,,,,,,,,,,,,,,,,,,,,,,,,,,,,,,,,,,,,,,,,,,,,,,,,,,,,,,,,,,,,,,,,,,,,,,,,,,,,,,,,,,,,,,,,,,,,,,,,,,,,,,,,,,,,,,,,,,,,,,,,,,,,,,,,,,,,,,,,,,,,,,,,,,,,
,,,,,,60d4477467e235cde30140a9,62bbfaf8d49be600f97778d6,2022-06-29_09h11.57.790,Colour_Asymmetry_Pilot,2022.1.3,Win32,60.03842459,62bbe60bf3d75ef465d3e404,0,17,17,142,1,fourtwo,,,,,,,,,,,,,,,,,,,,,,,,,,,,,,,,,,,,,,,,,,,,,,,,,,,,,,,,,,,,,,,,,,,,,,,,,,,,,,,,,,,,,,,,,,,,,,,,,,,,,,,,,,,,,,,,,,,,,,,,,,,,,,,,,,,,,,,,,,,,,,,,,,,,,,,,
,,,,,,60d4477467e235cde30140a9,62bbfaf8d49be600f97778d6,2022-06-29_09h11.57.790,Colour_Asymmetry_Pilot,2022.1.3,Win32,60.03842459,62bbe60bf3d75ef465d3e404,0,18,18,95,1,fourthree,,,,,,,,,,,,,,,,,,,,,,,,,,,,,,,,,,,,,,,,,,,,,,,,,,,,,,,,,,,,,,,,,,,,,,,,,,,,,,,,,,,,,,,,,,,,,,,,,,,,,,,,,,,,,,,,,,,,,,,,,,,,,,,,,,,,,,,,,,,,,,,,,,,,,,,,
,,,,,,60d4477467e235cde30140a9,62bbfaf8d49be600f97778d6,2022-06-29_09h11.57.790,Colour_Asymmetry_Pilot,2022.1.3,Win32,60.03842459,62bbe60bf3d75ef465d3e404,0,19,19,66,1,twoone,,,,,,,,,,,,,,,,,,,,,,,,,,,,,,,,,,,,,,,,,,,,,,,,,,,,,,,,,,,,,,,,,,,,,,,,,,,,,,,,,,,,,,,,,,,,,,,,,,,,,,,,,,,,,,,,,,,,,,,,,,,,,,,,,,,,,,,,,,,,,,,,,,,,,,,,
,,,,,,60d4477467e235cde30140a9,62bbfaf8d49be600f97778d6,2022-06-29_09h11.57.790,Colour_Asymmetry_Pilot,2022.1.3,Win32,60.03842459,62bbe60bf3d75ef465d3e404,0,20,20,67,1,twofour,,,,,,,,,,,,,,,,,,,,,,,,,,,,,,,,,,,,,,,,,,,,,,,,,,,,,,,,,,,,,,,,,,,,,,,,,,,,,,,,,,,,,,,,,,,,,,,,,,,,,,,,,,,,,,,,,,,,,,,,,,,,,,,,,,,,,,,,,,,,,,,,,,,,,,,,
,,,,,,60d4477467e235cde30140a9,62bbfaf8d49be600f97778d6,2022-06-29_09h11.57.790,Colour_Asymmetry_Pilot,2022.1.3,Win32,60.03842459,62bbe60bf3d75ef465d3e404,0,21,21,144,1,onetwo,,,,,,,,,,,,,,,,,,,,,,,,,,,,,,,,,,,,,,,,,,,,,,,,,,,,,,,,,,,,,,,,,,,,,,,,,,,,,,,,,,,,,,,,,,,,,,,,,,,,,,,,,,,,,,,,,,,,,,,,,,,,,,,,,,,,,,,,,,,,,,,,,,,,,,,,
,,,,,,60d4477467e235cde30140a9,62bbfaf8d49be600f97778d6,2022-06-29_09h11.57.790,Colour_Asymmetry_Pilot,2022.1.3,Win32,60.03842459,62bbe60bf3d75ef465d3e404,0,22,22,87,1,fourthree,,,,,,,,,,,,,,,,,,,,,,,,,,,,,,,,,,,,,,,,,,,,,,,,,,,,,,,,,,,,,,,,,,,,,,,,,,,,,,,,,,,,,,,,,,,,,,,,,,,,,,,,,,,,,,,,,,,,,,,,,,,,,,,,,,,,,,,,,,,,,,,,,,,,,,,,
,,,,,,60d4477467e235cde30140a9,62bbfaf8d49be600f97778d6,2022-06-29_09h11.57.790,Colour_Asymmetry_Pilot,2022.1.3,Win32,60.03842459,62bbe60bf3d75ef465d3e404,0,23,23,93,1,threefour,,,,,,,,,,,,,,,,,,,,,,,,,,,,,,,,,,,,,,,,,,,,,,,,,,,,,,,,,,,,,,,,,,,,,,,,,,,,,,,,,,,,,,,,,,,,,,,,,,,,,,,,,,,,,,,,,,,,,,,,,,,,,,,,,,,,,,,,,,,,,,,,,,,,,,,,
,,,,,,60d4477467e235cde30140a9,62bbfaf8d49be600f97778d6,2022-06-29_09h11.57.790,Colour_Asymmetry_Pilot,2022.1.3,Win32,60.03842459,62bbe60bf3d75ef465d3e404,0,24,24,125,1,threefour,,,,,,,,,,,,,,,,,,,,,,,,,,,,,,,,,,,,,,,,,,,,,,,,,,,,,,,,,,,,,,,,,,,,,,,,,,,,,,,,,,,,,,,,,,,,,,,,,,,,,,,,,,,,,,,,,,,,,,,,,,,,,,,,,,,,,,,,,,,,,,,,,,,,,,,,
,,,,,,60d4477467e235cde30140a9,62bbfaf8d49be600f97778d6,2022-06-29_09h11.57.790,Colour_Asymmetry_Pilot,2022.1.3,Win32,60.03842459,62bbe60bf3d75ef465d3e404,0,25,25,118,1,fourtwo,,,,,,,,,,,,,,,,,,,,,,,,,,,,,,,,,,,,,,,,,,,,,,,,,,,,,,,,,,,,,,,,,,,,,,,,,,,,,,,,,,,,,,,,,,,,,,,,,,,,,,,,,,,,,,,,,,,,,,,,,,,,,,,,,,,,,,,,,,,,,,,,,,,,,,,,
,,,,,,60d4477467e235cde30140a9,62bbfaf8d49be600f97778d6,2022-06-29_09h11.57.790,Colour_Asymmetry_Pilot,2022.1.3,Win32,60.03842459,62bbe60bf3d75ef465d3e404,0,26,26,155,1,twofour,,,,,,,,,,,,,,,,,,,,,,,,,,,,,,,,,,,,,,,,,,,,,,,,,,,,,,,,,,,,,,,,,,,,,,,,,,,,,,,,,,,,,,,,,,,,,,,,,,,,,,,,,,,,,,,,,,,,,,,,,,,,,,,,,,,,,,,,,,,,,,,,,,,,,,,,
,,,,,,60d4477467e235cde30140a9,62bbfaf8d49be600f97778d6,2022-06-29_09h11.57.790,Colour_Asymmetry_Pilot,2022.1.3,Win32,60.03842459,62bbe60bf3d75ef465d3e404,0,27,27,56,1,onetwo,,,,,,,,,,,,,,,,,,,,,,,,,,,,,,,,,,,,,,,,,,,,,,,,,,,,,,,,,,,,,,,,,,,,,,,,,,,,,,,,,,,,,,,,,,,,,,,,,,,,,,,,,,,,,,,,,,,,,,,,,,,,,,,,,,,,,,,,,,,,,,,,,,,,,,,,
,,,,,,60d4477467e235cde30140a9,62bbfaf8d49be600f97778d6,2022-06-29_09h11.57.790,Colour_Asymmetry_Pilot,2022.1.3,Win32,60.03842459,62bbe60bf3d75ef465d3e404,0,28,28,55,1,fourthree,,,,,,,,,,,,,,,,,,,,,,,,,,,,,,,,,,,,,,,,,,,,,,,,,,,,,,,,,,,,,,,,,,,,,,,,,,,,,,,,,,,,,,,,,,,,,,,,,,,,,,,,,,,,,,,,,,,,,,,,,,,,,,,,,,,,,,,,,,,,,,,,,,,,,,,,
,,,,,,60d4477467e235cde30140a9,62bbfaf8d49be600f97778d6,2022-06-29_09h11.57.790,Colour_Asymmetry_Pilot,2022.1.3,Win32,60.03842459,62bbe60bf3d75ef465d3e404,0,29,29,130,1,twoone,,,,,,,,,,,,,,,,,,,,,,,,,,,,,,,,,,,,,,,,,,,,,,,,,,,,,,,,,,,,,,,,,,,,,,,,,,,,,,,,,,,,,,,,,,,,,,,,,,,,,,,,,,,,,,,,,,,,,,,,,,,,,,,,,,,,,,,,,,,,,,,,,,,,,,,,
,,,,,,60d4477467e235cde30140a9,62bbfaf8d49be600f97778d6,2022-06-29_09h11.57.790,Colour_Asymmetry_Pilot,2022.1.3,Win32,60.03842459,62bbe60bf3d75ef465d3e404,0,30,30,53,1,threefour,,,,,,,,,,,,,,,,,,,,,,,,,,,,,,,,,,,,,,,,,,,,,,,,,,,,,,,,,,,,,,,,,,,,,,,,,,,,,,,,,,,,,,,,,,,,,,,,,,,,,,,,,,,,,,,,,,,,,,,,,,,,,,,,,,,,,,,,,,,,,,,,,,,,,,,,
,,,,,,60d4477467e235cde30140a9,62bbfaf8d49be600f97778d6,2022-06-29_09h11.57.790,Colour_Asymmetry_Pilot,2022.1.3,Win32,60.03842459,62bbe60bf3d75ef465d3e404,0,31,31,104,1,onetwo,,,,,,,,,,,,,,,,,,,,,,,,,,,,,,,,,,,,,,,,,,,,,,,,,,,,,,,,,,,,,,,,,,,,,,,,,,,,,,,,,,,,,,,,,,,,,,,,,,,,,,,,,,,,,,,,,,,,,,,,,,,,,,,,,,,,,,,,,,,,,,,,,,,,,,,,
,,,,,,60d4477467e235cde30140a9,62bbfaf8d49be600f97778d6,2022-06-29_09h11.57.790,Colour_Asymmetry_Pilot,2022.1.3,Win32,60.03842459,62bbe60bf3d75ef465d3e404,0,32,32,102,1,fourtwo,,,,,,,,,,,,,,,,,,,,,,,,,,,,,,,,,,,,,,,,,,,,,,,,,,,,,,,,,,,,,,,,,,,,,,,,,,,,,,,,,,,,,,,,,,,,,,,,,,,,,,,,,,,,,,,,,,,,,,,,,,,,,,,,,,,,,,,,,,,,,,,,,,,,,,,,
,,,,,,60d4477467e235cde30140a9,62bbfaf8d49be600f97778d6,2022-06-29_09h11.57.790,Colour_Asymmetry_Pilot,2022.1.3,Win32,60.03842459,62bbe60bf3d75ef465d3e404,0,33,33,59,1,twofour,,,,,,,,,,,,,,,,,,,,,,,,,,,,,,,,,,,,,,,,,,,,,,,,,,,,,,,,,,,,,,,,,,,,,,,,,,,,,,,,,,,,,,,,,,,,,,,,,,,,,,,,,,,,,,,,,,,,,,,,,,,,,,,,,,,,,,,,,,,,,,,,,,,,,,,,
,,,,,,60d4477467e235cde30140a9,62bbfaf8d49be600f97778d6,2022-06-29_09h11.57.790,Colour_Asymmetry_Pilot,2022.1.3,Win32,60.03842459,62bbe60bf3d75ef465d3e404,0,34,34,58,1,twoone,,,,,,,,,,,,,,,,,,,,,,,,,,,,,,,,,,,,,,,,,,,,,,,,,,,,,,,,,,,,,,,,,,,,,,,,,,,,,,,,,,,,,,,,,,,,,,,,,,,,,,,,,,,,,,,,,,,,,,,,,,,,,,,,,,,,,,,,,,,,,,,,,,,,,,,,
,,,,,,60d4477467e235cde30140a9,62bbfaf8d49be600f97778d6,2022-06-29_09h11.57.790,Colour_Asymmetry_Pilot,2022.1.3,Win32,60.03842459,62bbe60bf3d75ef465d3e404,0,35,35,112,1,onetwo,,,,,,,,,,,,,,,,,,,,,,,,,,,,,,,,,,,,,,,,,,,,,,,,,,,,,,,,,,,,,,,,,,,,,,,,,,,,,,,,,,,,,,,,,,,,,,,,,,,,,,,,,,,,,,,,,,,,,,,,,,,,,,,,,,,,,,,,,,,,,,,,,,,,,,,,
,,,,,,60d4477467e235cde30140a9,62bbfaf8d49be600f97778d6,2022-06-29_09h11.57.790,Colour_Asymmetry_Pilot,2022.1.3,Win32,60.03842459,62bbe60bf3d75ef465d3e404,0,36,36,30,1,fourtwo,,,,,,,,,,,,,,,,,,,,,,,,,,,,,,,,,,,,,,,,,,,,,,,,,,,,,,,,,,,,,,,,,,,,,,,,,,,,,,,,,,,,,,,,,,,,,,,,,,,,,,,,,,,,,,,,,,,,,,,,,,,,,,,,,,,,,,,,,,,,,,,,,,,,,,,,
,,,,,,60d4477467e235cde30140a9,62bbfaf8d49be600f97778d6,2022-06-29_09h11.57.790,Colour_Asymmetry_Pilot,2022.1.3,Win32,60.03842459,62bbe60bf3d75ef465d3e404,0,37,37,116,1,threeone,,,,,,,,,,,,,,,,,,,,,,,,,,,,,,,,,,,,,,,,,,,,,,,,,,,,,,,,,,,,,,,,,,,,,,,,,,,,,,,,,,,,,,,,,,,,,,,,,,,,,,,,,,,,,,,,,,,,,,,,,,,,,,,,,,,,,,,,,,,,,,,,,,,,,,,,
,,,,,,60d4477467e235cde30140a9,62bbfaf8d49be600f97778d6,2022-06-29_09h11.57.790,Colour_Asymmetry_Pilot,2022.1.3,Win32,60.03842459,62bbe60bf3d75ef465d3e404,0,38,38,70,1,fourtwo,,,,,,,,,,,,,,,,,,,,,,,,,,,,,,,,,,,,,,,,,,,,,,,,,,,,,,,,,,,,,,,,,,,,,,,,,,,,,,,,,,,,,,,,,,,,,,,,,,,,,,,,,,,,,,,,,,,,,,,,,,,,,,,,,,,,,,,,,,,,,,,,,,,,,,,,
,,,,,,60d4477467e235cde30140a9,62bbfaf8d49be600f97778d6,2022-06-29_09h11.57.790,Colour_Asymmetry_Pilot,2022.1.3,Win32,60.03842459,62bbe60bf3d75ef465d3e404,0,39,39,132,1,threeone,,,,,,,,,,,,,,,,,,,,,,,,,,,,,,,,,,,,,,,,,,,,,,,,,,,,,,,,,,,,,,,,,,,,,,,,,,,,,,,,,,,,,,,,,,,,,,,,,,,,,,,,,,,,,,,,,,,,,,,,,,,,,,,,,,,,,,,,,,,,,,,,,,,,,,,,
,,,,,,60d4477467e235cde30140a9,62bbfaf8d49be600f97778d6,2022-06-29_09h11.57.790,Colour_Asymmetry_Pilot,2022.1.3,Win32,60.03842459,62bbe60bf3d75ef465d3e404,0,40,40,90,1,twoone,,,,,,,,,,,,,,,,,,,,,,,,,,,,,,,,,,,,,,,,,,,,,,,,,,,,,,,,,,,,,,,,,,,,,,,,,,,,,,,,,,,,,,,,,,,,,,,,,,,,,,,,,,,,,,,,,,,,,,,,,,,,,,,,,,,,,,,,,,,,,,,,,,,,,,,,
,,,,,,60d4477467e235cde30140a9,62bbfaf8d49be600f97778d6,2022-06-29_09h11.57.790,Colour_Asymmetry_Pilot,2022.1.3,Win32,60.03842459,62bbe60bf3d75ef465d3e404,0,41,41,72,1,onetwo,,,,,,,,,,,,,,,,,,,,,,,,,,,,,,,,,,,,,,,,,,,,,,,,,,,,,,,,,,,,,,,,,,,,,,,,,,,,,,,,,,,,,,,,,,,,,,,,,,,,,,,,,,,,,,,,,,,,,,,,,,,,,,,,,,,,,,,,,,,,,,,,,,,,,,,,
,,,,,,60d4477467e235cde30140a9,62bbfaf8d49be600f97778d6,2022-06-29_09h11.57.790,Colour_Asymmetry_Pilot,2022.1.3,Win32,60.03842459,62bbe60bf3d75ef465d3e404,0,42,42,151,1,fourthree,,,,,,,,,,,,,,,,,,,,,,,,,,,,,,,,,,,,,,,,,,,,,,,,,,,,,,,,,,,,,,,,,,,,,,,,,,,,,,,,,,,,,,,,,,,,,,,,,,,,,,,,,,,,,,,,,,,,,,,,,,,,,,,,,,,,,,,,,,,,,,,,,,,,,,,,
,,,,,,60d4477467e235cde30140a9,62bbfaf8d49be600f97778d6,2022-06-29_09h11.57.790,Colour_Asymmetry_Pilot,2022.1.3,Win32,60.03842459,62bbe60bf3d75ef465d3e404,0,43,43,139,1,twofour,,,,,,,,,,,,,,,,,,,,,,,,,,,,,,,,,,,,,,,,,,,,,,,,,,,,,,,,,,,,,,,,,,,,,,,,,,,,,,,,,,,,,,,,,,,,,,,,,,,,,,,,,,,,,,,,,,,,,,,,,,,,,,,,,,,,,,,,,,,,,,,,,,,,,,,,
,,,,,,60d4477467e235cde30140a9,62bbfaf8d49be600f97778d6,2022-06-29_09h11.57.790,Colour_Asymmetry_Pilot,2022.1.3,Win32,60.03842459,62bbe60bf3d75ef465d3e404,0,44,44,134,1,fourtwo,,,,,,,,,,,,,,,,,,,,,,,,,,,,,,,,,,,,,,,,,,,,,,,,,,,,,,,,,,,,,,,,,,,,,,,,,,,,,,,,,,,,,,,,,,,,,,,,,,,,,,,,,,,,,,,,,,,,,,,,,,,,,,,,,,,,,,,,,,,,,,,,,,,,,,,,
,,,,,,60d4477467e235cde30140a9,62bbfaf8d49be600f97778d6,2022-06-29_09h11.57.790,Colour_Asymmetry_Pilot,2022.1.3,Win32,60.03842459,62bbe60bf3d75ef465d3e404,0,45,45,54,1,fourtwo,,,,,,,,,,,,,,,,,,,,,,,,,,,,,,,,,,,,,,,,,,,,,,,,,,,,,,,,,,,,,,,,,,,,,,,,,,,,,,,,,,,,,,,,,,,,,,,,,,,,,,,,,,,,,,,,,,,,,,,,,,,,,,,,,,,,,,,,,,,,,,,,,,,,,,,,
,,,,,,60d4477467e235cde30140a9,62bbfaf8d49be600f97778d6,2022-06-29_09h11.57.790,Colour_Asymmetry_Pilot,2022.1.3,Win32,60.03842459,62bbe60bf3d75ef465d3e404,0,46,46,32,1,onetwo,,,,,,,,,,,,,,,,,,,,,,,,,,,,,,,,,,,,,,,,,,,,,,,,,,,,,,,,,,,,,,,,,,,,,,,,,,,,,,,,,,,,,,,,,,,,,,,,,,,,,,,,,,,,,,,,,,,,,,,,,,,,,,,,,,,,,,,,,,,,,,,,,,,,,,,,
,,,,,,60d4477467e235cde30140a9,62bbfaf8d49be600f97778d6,2022-06-29_09h11.57.790,Colour_Asymmetry_Pilot,2022.1.3,Win32,60.03842459,62bbe60bf3d75ef465d3e404,0,47,47,140,1,threeone,,,,,,,,,,,,,,,,,,,,,,,,,,,,,,,,,,,,,,,,,,,,,,,,,,,,,,,,,,,,,,,,,,,,,,,,,,,,,,,,,,,,,,,,,,,,,,,,,,,,,,,,,,,,,,,,,,,,,,,,,,,,,,,,,,,,,,,,,,,,,,,,,,,,,,,,
,,,,,,60d4477467e235cde30140a9,62bbfaf8d49be600f97778d6,2022-06-29_09h11.57.790,Colour_Asymmetry_Pilot,2022.1.3,Win32,60.03842459,62bbe60bf3d75ef465d3e404,0,48,48,17,1,onethree,,,,,,,,,,,,,,,,,,,,,,,,,,,,,,,,,,,,,,,,,,,,,,,,,,,,,,,,,,,,,,,,,,,,,,,,,,,,,,,,,,,,,,,,,,,,,,,,,,,,,,,,,,,,,,,,,,,,,,,,,,,,,,,,,,,,,,,,,,,,,,,,,,,,,,,,
,,,,,,60d4477467e235cde30140a9,62bbfaf8d49be600f97778d6,2022-06-29_09h11.57.790,Colour_Asymmetry_Pilot,2022.1.3,Win32,60.03842459,62bbe60bf3d75ef465d3e404,0,49,49,21,1,threefour,,,,,,,,,,,,,,,,,,,,,,,,,,,,,,,,,,,,,,,,,,,,,,,,,,,,,,,,,,,,,,,,,,,,,,,,,,,,,,,,,,,,,,,,,,,,,,,,,,,,,,,,,,,,,,,,,,,,,,,,,,,,,,,,,,,,,,,,,,,,,,,,,,,,,,,,
,,,,,,60d4477467e235cde30140a9,62bbfaf8d49be600f97778d6,2022-06-29_09h11.57.790,Colour_Asymmetry_Pilot,2022.1.3,Win32,60.03842459,62bbe60bf3d75ef465d3e404,0,50,50,28,1,threeone,,,,,,,,,,,,,,,,,,,,,,,,,,,,,,,,,,,,,,,,,,,,,,,,,,,,,,,,,,,,,,,,,,,,,,,,,,,,,,,,,,,,,,,,,,,,,,,,,,,,,,,,,,,,,,,,,,,,,,,,,,,,,,,,,,,,,,,,,,,,,,,,,,,,,,,,
,,,,,,60d4477467e235cde30140a9,62bbfaf8d49be600f97778d6,2022-06-29_09h11.57.790,Colour_Asymmetry_Pilot,2022.1.3,Win32,60.03842459,62bbe60bf3d75ef465d3e404,0,51,51,127,1,fourthree,,,,,,,,,,,,,,,,,,,,,,,,,,,,,,,,,,,,,,,,,,,,,,,,,,,,,,,,,,,,,,,,,,,,,,,,,,,,,,,,,,,,,,,,,,,,,,,,,,,,,,,,,,,,,,,,,,,,,,,,,,,,,,,,,,,,,,,,,,,,,,,,,,,,,,,,
,,,,,,60d4477467e235cde30140a9,62bbfaf8d49be600f97778d6,2022-06-29_09h11.57.790,Colour_Asymmetry_Pilot,2022.1.3,Win32,60.03842459,62bbe60bf3d75ef465d3e404,0,52,52,106,1,twoone,,,,,,,,,,,,,,,,,,,,,,,,,,,,,,,,,,,,,,,,,,,,,,,,,,,,,,,,,,,,,,,,,,,,,,,,,,,,,,,,,,,,,,,,,,,,,,,,,,,,,,,,,,,,,,,,,,,,,,,,,,,,,,,,,,,,,,,,,,,,,,,,,,,,,,,,
,,,,,,60d4477467e235cde30140a9,62bbfaf8d49be600f97778d6,2022-06-29_09h11.57.790,Colour_Asymmetry_Pilot,2022.1.3,Win32,60.03842459,62bbe60bf3d75ef465d3e404,0,53,53,107,1,twofour,,,,,,,,,,,,,,,,,,,,,,,,,,,,,,,,,,,,,,,,,,,,,,,,,,,,,,,,,,,,,,,,,,,,,,,,,,,,,,,,,,,,,,,,,,,,,,,,,,,,,,,,,,,,,,,,,,,,,,,,,,,,,,,,,,,,,,,,,,,,,,,,,,,,,,,,
,,,,,,60d4477467e235cde30140a9,62bbfaf8d49be600f97778d6,2022-06-29_09h11.57.790,Colour_Asymmetry_Pilot,2022.1.3,Win32,60.03842459,62bbe60bf3d75ef465d3e404,0,54,54,146,1,twoone,,,,,,,,,,,,,,,,,,,,,,,,,,,,,,,,,,,,,,,,,,,,,,,,,,,,,,,,,,,,,,,,,,,,,,,,,,,,,,,,,,,,,,,,,,,,,,,,,,,,,,,,,,,,,,,,,,,,,,,,,,,,,,,,,,,,,,,,,,,,,,,,,,,,,,,,
,,,,,,60d4477467e235cde30140a9,62bbfaf8d49be600f97778d6,2022-06-29_09h11.57.790,Colour_Asymmetry_Pilot,2022.1.3,Win32,60.03842459,62bbe60bf3d75ef465d3e404,0,55,55,44,1,threeone,,,,,,,,,,,,,,,,,,,,,,,,,,,,,,,,,,,,,,,,,,,,,,,,,,,,,,,,,,,,,,,,,,,,,,,,,,,,,,,,,,,,,,,,,,,,,,,,,,,,,,,,,,,,,,,,,,,,,,,,,,,,,,,,,,,,,,,,,,,,,,,,,,,,,,,,
,,,,,,60d4477467e235cde30140a9,62bbfaf8d49be600f97778d6,2022-06-29_09h11.57.790,Colour_Asymmetry_Pilot,2022.1.3,Win32,60.03842459,62bbe60bf3d75ef465d3e404,0,56,56,12,1,threeone,,,,,,,,,,,,,,,,,,,,,,,,,,,,,,,,,,,,,,,,,,,,,,,,,,,,,,,,,,,,,,,,,,,,,,,,,,,,,,,,,,,,,,,,,,,,,,,,,,,,,,,,,,,,,,,,,,,,,,,,,,,,,,,,,,,,,,,,,,,,,,,,,,,,,,,,
,,,,,,60d4477467e235cde30140a9,62bbfaf8d49be600f97778d6,2022-06-29_09h11.57.790,Colour_Asymmetry_Pilot,2022.1.3,Win32,60.03842459,62bbe60bf3d75ef465d3e404,0,57,57,31,1,fourthree,,,,,,,,,,,,,,,,,,,,,,,,,,,,,,,,,,,,,,,,,,,,,,,,,,,,,,,,,,,,,,,,,,,,,,,,,,,,,,,,,,,,,,,,,,,,,,,,,,,,,,,,,,,,,,,,,,,,,,,,,,,,,,,,,,,,,,,,,,,,,,,,,,,,,,,,
,,,,,,60d4477467e235cde30140a9,62bbfaf8d49be600f97778d6,2022-06-29_09h11.57.790,Colour_Asymmetry_Pilot,2022.1.3,Win32,60.03842459,62bbe60bf3d75ef465d3e404,0,58,58,160,1,onetwo,,,,,,,,,,,,,,,,,,,,,,,,,,,,,,,,,,,,,,,,,,,,,,,,,,,,,,,,,,,,,,,,,,,,,,,,,,,,,,,,,,,,,,,,,,,,,,,,,,,,,,,,,,,,,,,,,,,,,,,,,,,,,,,,,,,,,,,,,,,,,,,,,,,,,,,,
,,,,,,60d4477467e235cde30140a9,62bbfaf8d49be600f97778d6,2022-06-29_09h11.57.790,Colour_Asymmetry_Pilot,2022.1.3,Win32,60.03842459,62bbe60bf3d75ef465d3e404,0,59,59,135,1,fourthree,,,,,,,,,,,,,,,,,,,,,,,,,,,,,,,,,,,,,,,,,,,,,,,,,,,,,,,,,,,,,,,,,,,,,,,,,,,,,,,,,,,,,,,,,,,,,,,,,,,,,,,,,,,,,,,,,,,,,,,,,,,,,,,,,,,,,,,,,,,,,,,,,,,,,,,,
,,,,,,60d4477467e235cde30140a9,62bbfaf8d49be600f97778d6,2022-06-29_09h11.57.790,Colour_Asymmetry_Pilot,2022.1.3,Win32,60.03842459,62bbe60bf3d75ef465d3e404,0,60,60,20,1,threeone,,,,,,,,,,,,,,,,,,,,,,,,,,,,,,,,,,,,,,,,,,,,,,,,,,,,,,,,,,,,,,,,,,,,,,,,,,,,,,,,,,,,,,,,,,,,,,,,,,,,,,,,,,,,,,,,,,,,,,,,,,,,,,,,,,,,,,,,,,,,,,,,,,,,,,,,
,,,,,,60d4477467e235cde30140a9,62bbfaf8d49be600f97778d6,2022-06-29_09h11.57.790,Colour_Asymmetry_Pilot,2022.1.3,Win32,60.03842459,62bbe60bf3d75ef465d3e404,0,61,61,26,1,twoone,,,,,,,,,,,,,,,,,,,,,,,,,,,,,,,,,,,,,,,,,,,,,,,,,,,,,,,,,,,,,,,,,,,,,,,,,,,,,,,,,,,,,,,,,,,,,,,,,,,,,,,,,,,,,,,,,,,,,,,,,,,,,,,,,,,,,,,,,,,,,,,,,,,,,,,,
,,,,,,60d4477467e235cde30140a9,62bbfaf8d49be600f97778d6,2022-06-29_09h11.57.790,Colour_Asymmetry_Pilot,2022.1.3,Win32,60.03842459,62bbe60bf3d75ef465d3e404,0,62,62,85,1,threefour,,,,,,,,,,,,,,,,,,,,,,,,,,,,,,,,,,,,,,,,,,,,,,,,,,,,,,,,,,,,,,,,,,,,,,,,,,,,,,,,,,,,,,,,,,,,,,,,,,,,,,,,,,,,,,,,,,,,,,,,,,,,,,,,,,,,,,,,,,,,,,,,,,,,,,,,
,,,,,,60d4477467e235cde30140a9,62bbfaf8d49be600f97778d6,2022-06-29_09h11.57.790,Colour_Asymmetry_Pilot,2022.1.3,Win32,60.03842459,62bbe60bf3d75ef465d3e404,0,63,63,36,1,threeone,,,,,,,,,,,,,,,,,,,,,,,,,,,,,,,,,,,,,,,,,,,,,,,,,,,,,,,,,,,,,,,,,,,,,,,,,,,,,,,,,,,,,,,,,,,,,,,,,,,,,,,,,,,,,,,,,,,,,,,,,,,,,,,,,,,,,,,,,,,,,,,,,,,,,,,,
,,,,,,60d4477467e235cde30140a9,62bbfaf8d49be600f97778d6,2022-06-29_09h11.57.790,Colour_Asymmetry_Pilot,2022.1.3,Win32,60.03842459,62bbe60bf3d75ef465d3e404,0,64,64,82,1,twoone,,,,,,,,,,,,,,,,,,,,,,,,,,,,,,,,,,,,,,,,,,,,,,,,,,,,,,,,,,,,,,,,,,,,,,,,,,,,,,,,,,,,,,,,,,,,,,,,,,,,,,,,,,,,,,,,,,,,,,,,,,,,,,,,,,,,,,,,,,,,,,,,,,,,,,,,
,,,,,,60d4477467e235cde30140a9,62bbfaf8d49be600f97778d6,2022-06-29_09h11.57.790,Colour_Asymmetry_Pilot,2022.1.3,Win32,60.03842459,62bbe60bf3d75ef465d3e404,0,65,65,150,1,fourtwo,,,,,,,,,,,,,,,,,,,,,,,,,,,,,,,,,,,,,,,,,,,,,,,,,,,,,,,,,,,,,,,,,,,,,,,,,,,,,,,,,,,,,,,,,,,,,,,,,,,,,,,,,,,,,,,,,,,,,,,,,,,,,,,,,,,,,,,,,,,,,,,,,,,,,,,,
,,,,,,60d4477467e235cde30140a9,62bbfaf8d49be600f97778d6,2022-06-29_09h11.57.790,Colour_Asymmetry_Pilot,2022.1.3,Win32,60.03842459,62bbe60bf3d75ef465d3e404,0,66,66,0,1,onetwo,,,,,,,,,,,,,,,,,,,,,,,,,,,,,,,,,,,,,,,,,,,,,,,,,,,,,,,,,,,,,,,,,,,,,,,,,,,,,,,,,,,,,,,,,,,,,,,,,,,,,,,,,,,,,,,,,,,,,,,,,,,,,,,,,,,,,,,,,,,,,,,,,,,,,,,,
,,,,,,60d4477467e235cde30140a9,62bbfaf8d49be600f97778d6,2022-06-29_09h11.57.790,Colour_Asymmetry_Pilot,2022.1.3,Win32,60.03842459,62bbe60bf3d75ef465d3e404,0,67,67,10,1,twoone,,,,,,,,,,,,,,,,,,,,,,,,,,,,,,,,,,,,,,,,,,,,,,,,,,,,,,,,,,,,,,,,,,,,,,,,,,,,,,,,,,,,,,,,,,,,,,,,,,,,,,,,,,,,,,,,,,,,,,,,,,,,,,,,,,,,,,,,,,,,,,,,,,,,,,,,
,,,,,,60d4477467e235cde30140a9,62bbfaf8d49be600f97778d6,2022-06-29_09h11.57.790,Colour_Asymmetry_Pilot,2022.1.3,Win32,60.03842459,62bbe60bf3d75ef465d3e404,0,68,68,128,1,onetwo,,,,,,,,,,,,,,,,,,,,,,,,,,,,,,,,,,,,,,,,,,,,,,,,,,,,,,,,,,,,,,,,,,,,,,,,,,,,,,,,,,,,,,,,,,,,,,,,,,,,,,,,,,,,,,,,,,,,,,,,,,,,,,,,,,,,,,,,,,,,,,,,,,,,,,,,
,,,,,,60d4477467e235cde30140a9,62bbfaf8d49be600f97778d6,2022-06-29_09h11.57.790,Colour_Asymmetry_Pilot,2022.1.3,Win32,60.03842459,62bbe60bf3d75ef465d3e404,0,69,69,119,1,fourthree,,,,,,,,,,,,,,,,,,,,,,,,,,,,,,,,,,,,,,,,,,,,,,,,,,,,,,,,,,,,,,,,,,,,,,,,,,,,,,,,,,,,,,,,,,,,,,,,,,,,,,,,,,,,,,,,,,,,,,,,,,,,,,,,,,,,,,,,,,,,,,,,,,,,,,,,
,,,,,,60d4477467e235cde30140a9,62bbfaf8d49be600f97778d6,2022-06-29_09h11.57.790,Colour_Asymmetry_Pilot,2022.1.3,Win32,60.03842459,62bbe60bf3d75ef465d3e404,0,70,70,154,1,twoone,,,,,,,,,,,,,,,,,,,,,,,,,,,,,,,,,,,,,,,,,,,,,,,,,,,,,,,,,,,,,,,,,,,,,,,,,,,,,,,,,,,,,,,,,,,,,,,,,,,,,,,,,,,,,,,,,,,,,,,,,,,,,,,,,,,,,,,,,,,,,,,,,,,,,,,,
,,,,,,60d4477467e235cde30140a9,62bbfaf8d49be600f97778d6,2022-06-29_09h11.57.790,Colour_Asymmetry_Pilot,2022.1.3,Win32,60.03842459,62bbe60bf3d75ef465d3e404,0,71,71,45,1,threefour,,,,,,,,,,,,,,,,,,,,,,,,,,,,,,,,,,,,,,,,,,,,,,,,,,,,,,,,,,,,,,,,,,,,,,,,,,,,,,,,,,,,,,,,,,,,,,,,,,,,,,,,,,,,,,,,,,,,,,,,,,,,,,,,,,,,,,,,,,,,,,,,,,,,,,,,
,,,,,,60d4477467e235cde30140a9,62bbfaf8d49be600f97778d6,2022-06-29_09h11.57.790,Colour_Asymmetry_Pilot,2022.1.3,Win32,60.03842459,62bbe60bf3d75ef465d3e404,0,72,72,147,1,twofour,,,,,,,,,,,,,,,,,,,,,,,,,,,,,,,,,,,,,,,,,,,,,,,,,,,,,,,,,,,,,,,,,,,,,,,,,,,,,,,,,,,,,,,,,,,,,,,,,,,,,,,,,,,,,,,,,,,,,,,,,,,,,,,,,,,,,,,,,,,,,,,,,,,,,,,,
,,,,,,60d4477467e235cde30140a9,62bbfaf8d49be600f97778d6,2022-06-29_09h11.57.790,Colour_Asymmetry_Pilot,2022.1.3,Win32,60.03842459,62bbe60bf3d75ef465d3e404,0,73,73,69,1,threefour,,,,,,,,,,,,,,,,,,,,,,,,,,,,,,,,,,,,,,,,,,,,,,,,,,,,,,,,,,,,,,,,,,,,,,,,,,,,,,,,,,,,,,,,,,,,,,,,,,,,,,,,,,,,,,,,,,,,,,,,,,,,,,,,,,,,,,,,,,,,,,,,,,,,,,,,
,,,,,,60d4477467e235cde30140a9,62bbfaf8d49be600f97778d6,2022-06-29_09h11.57.790,Colour_Asymmetry_Pilot,2022.1.3,Win32,60.03842459,62bbe60bf3d75ef465d3e404,0,74,74,156,1,threeone,,,,,,,,,,,,,,,,,,,,,,,,,,,,,,,,,,,,,,,,,,,,,,,,,,,,,,,,,,,,,,,,,,,,,,,,,,,,,,,,,,,,,,,,,,,,,,,,,,,,,,,,,,,,,,,,,,,,,,,,,,,,,,,,,,,,,,,,,,,,,,,,,,,,,,,,
,,,,,,60d4477467e235cde30140a9,62bbfaf8d49be600f97778d6,2022-06-29_09h11.57.790,Colour_Asymmetry_Pilot,2022.1.3,Win32,60.03842459,62bbe60bf3d75ef465d3e404,0,75,75,65,1,onethree,,,,,,,,,,,,,,,,,,,,,,,,,,,,,,,,,,,,,,,,,,,,,,,,,,,,,,,,,,,,,,,,,,,,,,,,,,,,,,,,,,,,,,,,,,,,,,,,,,,,,,,,,,,,,,,,,,,,,,,,,,,,,,,,,,,,,,,,,,,,,,,,,,,,,,,,
,,,,,,60d4477467e235cde30140a9,62bbfaf8d49be600f97778d6,2022-06-29_09h11.57.790,Colour_Asymmetry_Pilot,2022.1.3,Win32,60.03842459,62bbe60bf3d75ef465d3e404,0,76,76,77,1,threefour,,,,,,,,,,,,,,,,,,,,,,,,,,,,,,,,,,,,,,,,,,,,,,,,,,,,,,,,,,,,,,,,,,,,,,,,,,,,,,,,,,,,,,,,,,,,,,,,,,,,,,,,,,,,,,,,,,,,,,,,,,,,,,,,,,,,,,,,,,,,,,,,,,,,,,,,
,,,,,,60d4477467e235cde30140a9,62bbfaf8d49be600f97778d6,2022-06-29_09h11.57.790,Colour_Asymmetry_Pilot,2022.1.3,Win32,60.03842459,62bbe60bf3d75ef465d3e404,0,77,77,115,1,twofour,,,,,,,,,,,,,,,,,,,,,,,,,,,,,,,,,,,,,,,,,,,,,,,,,,,,,,,,,,,,,,,,,,,,,,,,,,,,,,,,,,,,,,,,,,,,,,,,,,,,,,,,,,,,,,,,,,,,,,,,,,,,,,,,,,,,,,,,,,,,,,,,,,,,,,,,
,,,,,,60d4477467e235cde30140a9,62bbfaf8d49be600f97778d6,2022-06-29_09h11.57.790,Colour_Asymmetry_Pilot,2022.1.3,Win32,60.03842459,62bbe60bf3d75ef465d3e404,0,78,78,86,1,fourtwo,,,,,,,,,,,,,,,,,,,,,,,,,,,,,,,,,,,,,,,,,,,,,,,,,,,,,,,,,,,,,,,,,,,,,,,,,,,,,,,,,,,,,,,,,,,,,,,,,,,,,,,,,,,,,,,,,,,,,,,,,,,,,,,,,,,,,,,,,,,,,,,,,,,,,,,,
,,,,,,60d4477467e235cde30140a9,62bbfaf8d49be600f97778d6,2022-06-29_09h11.57.790,Colour_Asymmetry_Pilot,2022.1.3,Win32,60.03842459,62bbe60bf3d75ef465d3e404,0,79,79,129,1,onethree,,,,,,,,,,,,,,,,,,,,,,,,,,,,,,,,,,,,,,,,,,,,,,,,,,,,,,,,,,,,,,,,,,,,,,,,,,,,,,,,,,,,,,,,,,,,,,,,,,,,,,,,,,,,,,,,,,,,,,,,,,,,,,,,,,,,,,,,,,,,,,,,,,,,,,,,
,,,,,,60d4477467e235cde30140a9,62bbfaf8d49be600f97778d6,2022-06-29_09h11.57.790,Colour_Asymmetry_Pilot,2022.1.3,Win32,60.03842459,62bbe60bf3d75ef465d3e404,0,80,80,57,1,onethree,,,,,,,,,,,,,,,,,,,,,,,,,,,,,,,,,,,,,,,,,,,,,,,,,,,,,,,,,,,,,,,,,,,,,,,,,,,,,,,,,,,,,,,,,,,,,,,,,,,,,,,,,,,,,,,,,,,,,,,,,,,,,,,,,,,,,,,,,,,,,,,,,,,,,,,,
,,,,,,60d4477467e235cde30140a9,62bbfaf8d49be600f97778d6,2022-06-29_09h11.57.790,Colour_Asymmetry_Pilot,2022.1.3,Win32,60.03842459,62bbe60bf3d75ef465d3e404,0,81,81,133,1,threefour,,,,,,,,,,,,,,,,,,,,,,,,,,,,,,,,,,,,,,,,,,,,,,,,,,,,,,,,,,,,,,,,,,,,,,,,,,,,,,,,,,,,,,,,,,,,,,,,,,,,,,,,,,,,,,,,,,,,,,,,,,,,,,,,,,,,,,,,,,,,,,,,,,,,,,,,
,,,,,,60d4477467e235cde30140a9,62bbfaf8d49be600f97778d6,2022-06-29_09h11.57.790,Colour_Asymmetry_Pilot,2022.1.3,Win32,60.03842459,62bbe60bf3d75ef465d3e404,0,82,82,62,1,fourtwo,,,,,,,,,,,,,,,,,,,,,,,,,,,,,,,,,,,,,,,,,,,,,,,,,,,,,,,,,,,,,,,,,,,,,,,,,,,,,,,,,,,,,,,,,,,,,,,,,,,,,,,,,,,,,,,,,,,,,,,,,,,,,,,,,,,,,,,,,,,,,,,,,,,,,,,,
,,,,,,60d4477467e235cde30140a9,62bbfaf8d49be600f97778d6,2022-06-29_09h11.57.790,Colour_Asymmetry_Pilot,2022.1.3,Win32,60.03842459,62bbe60bf3d75ef465d3e404,0,83,83,22,1,fourtwo,,,,,,,,,,,,,,,,,,,,,,,,,,,,,,,,,,,,,,,,,,,,,,,,,,,,,,,,,,,,,,,,,,,,,,,,,,,,,,,,,,,,,,,,,,,,,,,,,,,,,,,,,,,,,,,,,,,,,,,,,,,,,,,,,,,,,,,,,,,,,,,,,,,,,,,,
,,,,,,60d4477467e235cde30140a9,62bbfaf8d49be600f97778d6,2022-06-29_09h11.57.790,Colour_Asymmetry_Pilot,2022.1.3,Win32,60.03842459,62bbe60bf3d75ef465d3e404,0,84,84,2,1,twoone,,,,,,,,,,,,,,,,,,,,,,,,,,,,,,,,,,,,,,,,,,,,,,,,,,,,,,,,,,,,,,,,,,,,,,,,,,,,,,,,,,,,,,,,,,,,,,,,,,,,,,,,,,,,,,,,,,,,,,,,,,,,,,,,,,,,,,,,,,,,,,,,,,,,,,,,
,,,,,,60d4477467e235cde30140a9,62bbfaf8d49be600f97778d6,2022-06-29_09h11.57.790,Colour_Asymmetry_Pilot,2022.1.3,Win32,60.03842459,62bbe60bf3d75ef465d3e404,0,85,85,14,1,fourtwo,,,,,,,,,,,,,,,,,,,,,,,,,,,,,,,,,,,,,,,,,,,,,,,,,,,,,,,,,,,,,,,,,,,,,,,,,,,,,,,,,,,,,,,,,,,,,,,,,,,,,,,,,,,,,,,,,,,,,,,,,,,,,,,,,,,,,,,,,,,,,,,,,,,,,,,,
,,,,,,60d4477467e235cde30140a9,62bbfaf8d49be600f97778d6,2022-06-29_09h11.57.790,Colour_Asymmetry_Pilot,2022.1.3,Win32,60.03842459,62bbe60bf3d75ef465d3e404,0,86,86,96,1,onetwo,,,,,,,,,,,,,,,,,,,,,,,,,,,,,,,,,,,,,,,,,,,,,,,,,,,,,,,,,,,,,,,,,,,,,,,,,,,,,,,,,,,,,,,,,,,,,,,,,,,,,,,,,,,,,,,,,,,,,,,,,,,,,,,,,,,,,,,,,,,,,,,,,,,,,,,,
,,,,,,60d4477467e235cde30140a9,62bbfaf8d49be600f97778d6,2022-06-29_09h11.57.790,Colour_Asymmetry_Pilot,2022.1.3,Win32,60.03842459,62bbe60bf3d75ef465d3e404,0,87,87,99,1,twofour,,,,,,,,,,,,,,,,,,,,,,,,,,,,,,,,,,,,,,,,,,,,,,,,,,,,,,,,,,,,,,,,,,,,,,,,,,,,,,,,,,,,,,,,,,,,,,,,,,,,,,,,,,,,,,,,,,,,,,,,,,,,,,,,,,,,,,,,,,,,,,,,,,,,,,,,
,,,,,,60d4477467e235cde30140a9,62bbfaf8d49be600f97778d6,2022-06-29_09h11.57.790,Colour_Asymmetry_Pilot,2022.1.3,Win32,60.03842459,62bbe60bf3d75ef465d3e404,0,88,88,91,1,twofour,,,,,,,,,,,,,,,,,,,,,,,,,,,,,,,,,,,,,,,,,,,,,,,,,,,,,,,,,,,,,,,,,,,,,,,,,,,,,,,,,,,,,,,,,,,,,,,,,,,,,,,,,,,,,,,,,,,,,,,,,,,,,,,,,,,,,,,,,,,,,,,,,,,,,,,,
,,,,,,60d4477467e235cde30140a9,62bbfaf8d49be600f97778d6,2022-06-29_09h11.57.790,Colour_Asymmetry_Pilot,2022.1.3,Win32,60.03842459,62bbe60bf3d75ef465d3e404,0,89,89,42,1,twoone,,,,,,,,,,,,,,,,,,,,,,,,,,,,,,,,,,,,,,,,,,,,,,,,,,,,,,,,,,,,,,,,,,,,,,,,,,,,,,,,,,,,,,,,,,,,,,,,,,,,,,,,,,,,,,,,,,,,,,,,,,,,,,,,,,,,,,,,,,,,,,,,,,,,,,,,
,,,,,,60d4477467e235cde30140a9,62bbfaf8d49be600f97778d6,2022-06-29_09h11.57.790,Colour_Asymmetry_Pilot,2022.1.3,Win32,60.03842459,62bbe60bf3d75ef465d3e404,0,90,90,63,1,fourthree,,,,,,,,,,,,,,,,,,,,,,,,,,,,,,,,,,,,,,,,,,,,,,,,,,,,,,,,,,,,,,,,,,,,,,,,,,,,,,,,,,,,,,,,,,,,,,,,,,,,,,,,,,,,,,,,,,,,,,,,,,,,,,,,,,,,,,,,,,,,,,,,,,,,,,,,
,,,,,,60d4477467e235cde30140a9,62bbfaf8d49be600f97778d6,2022-06-29_09h11.57.790,Colour_Asymmetry_Pilot,2022.1.3,Win32,60.03842459,62bbe60bf3d75ef465d3e404,0,91,91,74,1,twoone,,,,,,,,,,,,,,,,,,,,,,,,,,,,,,,,,,,,,,,,,,,,,,,,,,,,,,,,,,,,,,,,,,,,,,,,,,,,,,,,,,,,,,,,,,,,,,,,,,,,,,,,,,,,,,,,,,,,,,,,,,,,,,,,,,,,,,,,,,,,,,,,,,,,,,,,
,,,,,,60d4477467e235cde30140a9,62bbfaf8d49be600f97778d6,2022-06-29_09h11.57.790,Colour_Asymmetry_Pilot,2022.1.3,Win32,60.03842459,62bbe60bf3d75ef465d3e404,0,92,92,5,1,threefour,,,,,,,,,,,,,,,,,,,,,,,,,,,,,,,,,,,,,,,,,,,,,,,,,,,,,,,,,,,,,,,,,,,,,,,,,,,,,,,,,,,,,,,,,,,,,,,,,,,,,,,,,,,,,,,,,,,,,,,,,,,,,,,,,,,,,,,,,,,,,,,,,,,,,,,,
,,,,,,60d4477467e235cde30140a9,62bbfaf8d49be600f97778d6,2022-06-29_09h11.57.790,Colour_Asymmetry_Pilot,2022.1.3,Win32,60.03842459,62bbe60bf3d75ef465d3e404,0,93,93,11,1,twofour,,,,,,,,,,,,,,,,,,,,,,,,,,,,,,,,,,,,,,,,,,,,,,,,,,,,,,,,,,,,,,,,,,,,,,,,,,,,,,,,,,,,,,,,,,,,,,,,,,,,,,,,,,,,,,,,,,,,,,,,,,,,,,,,,,,,,,,,,,,,,,,,,,,,,,,,
,,,,,,60d4477467e235cde30140a9,62bbfaf8d49be600f97778d6,2022-06-29_09h11.57.790,Colour_Asymmetry_Pilot,2022.1.3,Win32,60.03842459,62bbe60bf3d75ef465d3e404,0,94,94,81,1,onethree,,,,,,,,,,,,,,,,,,,,,,,,,,,,,,,,,,,,,,,,,,,,,,,,,,,,,,,,,,,,,,,,,,,,,,,,,,,,,,,,,,,,,,,,,,,,,,,,,,,,,,,,,,,,,,,,,,,,,,,,,,,,,,,,,,,,,,,,,,,,,,,,,,,,,,,,
,,,,,,60d4477467e235cde30140a9,62bbfaf8d49be600f97778d6,2022-06-29_09h11.57.790,Colour_Asymmetry_Pilot,2022.1.3,Win32,60.03842459,62bbe60bf3d75ef465d3e404,0,95,95,138,1,twoone,,,,,,,,,,,,,,,,,,,,,,,,,,,,,,,,,,,,,,,,,,,,,,,,,,,,,,,,,,,,,,,,,,,,,,,,,,,,,,,,,,,,,,,,,,,,,,,,,,,,,,,,,,,,,,,,,,,,,,,,,,,,,,,,,,,,,,,,,,,,,,,,,,,,,,,,
,,,,,,60d4477467e235cde30140a9,62bbfaf8d49be600f97778d6,2022-06-29_09h11.57.790,Colour_Asymmetry_Pilot,2022.1.3,Win32,60.03842459,62bbe60bf3d75ef465d3e404,0,96,96,8,1,onetwo,,,,,,,,,,,,,,,,,,,,,,,,,,,,,,,,,,,,,,,,,,,,,,,,,,,,,,,,,,,,,,,,,,,,,,,,,,,,,,,,,,,,,,,,,,,,,,,,,,,,,,,,,,,,,,,,,,,,,,,,,,,,,,,,,,,,,,,,,,,,,,,,,,,,,,,,
,,,,,,60d4477467e235cde30140a9,62bbfaf8d49be600f97778d6,2022-06-29_09h11.57.790,Colour_Asymmetry_Pilot,2022.1.3,Win32,60.03842459,62bbe60bf3d75ef465d3e404,0,97,97,23,1,fourthree,,,,,,,,,,,,,,,,,,,,,,,,,,,,,,,,,,,,,,,,,,,,,,,,,,,,,,,,,,,,,,,,,,,,,,,,,,,,,,,,,,,,,,,,,,,,,,,,,,,,,,,,,,,,,,,,,,,,,,,,,,,,,,,,,,,,,,,,,,,,,,,,,,,,,,,,
,,,,,,60d4477467e235cde30140a9,62bbfaf8d49be600f97778d6,2022-06-29_09h11.57.790,Colour_Asymmetry_Pilot,2022.1.3,Win32,60.03842459,62bbe60bf3d75ef465d3e404,0,98,98,16,1,onetwo,,,,,,,,,,,,,,,,,,,,,,,,,,,,,,,,,,,,,,,,,,,,,,,,,,,,,,,,,,,,,,,,,,,,,,,,,,,,,,,,,,,,,,,,,,,,,,,,,,,,,,,,,,,,,,,,,,,,,,,,,,,,,,,,,,,,,,,,,,,,,,,,,,,,,,,,
,,,,,,60d4477467e235cde30140a9,62bbfaf8d49be600f97778d6,2022-06-29_09h11.57.790,Colour_Asymmetry_Pilot,2022.1.3,Win32,60.03842459,62bbe60bf3d75ef465d3e404,0,99,99,18,1,twoone,,,,,,,,,,,,,,,,,,,,,,,,,,,,,,,,,,,,,,,,,,,,,,,,,,,,,,,,,,,,,,,,,,,,,,,,,,,,,,,,,,,,,,,,,,,,,,,,,,,,,,,,,,,,,,,,,,,,,,,,,,,,,,,,,,,,,,,,,,,,,,,,,,,,,,,,
,,,,,,60d4477467e235cde30140a9,62bbfaf8d49be600f97778d6,2022-06-29_09h11.57.790,Colour_Asymmetry_Pilot,2022.1.3,Win32,60.03842459,62bbe60bf3d75ef465d3e404,0,100,100,152,1,onetwo,,,,,,,,,,,,,,,,,,,,,,,,,,,,,,,,,,,,,,,,,,,,,,,,,,,,,,,,,,,,,,,,,,,,,,,,,,,,,,,,,,,,,,,,,,,,,,,,,,,,,,,,,,,,,,,,,,,,,,,,,,,,,,,,,,,,,,,,,,,,,,,,,,,,,,,,
,,,,,,60d4477467e235cde30140a9,62bbfaf8d49be600f97778d6,2022-06-29_09h11.57.790,Colour_Asymmetry_Pilot,2022.1.3,Win32,60.03842459,62bbe60bf3d75ef465d3e404,0,101,101,83,1,twofour,,,,,,,,,,,,,,,,,,,,,,,,,,,,,,,,,,,,,,,,,,,,,,,,,,,,,,,,,,,,,,,,,,,,,,,,,,,,,,,,,,,,,,,,,,,,,,,,,,,,,,,,,,,,,,,,,,,,,,,,,,,,,,,,,,,,,,,,,,,,,,,,,,,,,,,,
,,,,,,60d4477467e235cde30140a9,62bbfaf8d49be600f97778d6,2022-06-29_09h11.57.790,Colour_Asymmetry_Pilot,2022.1.3,Win32,60.03842459,62bbe60bf3d75ef465d3e404,0,102,102,43,1,twofour,,,,,,,,,,,,,,,,,,,,,,,,,,,,,,,,,,,,,,,,,,,,,,,,,,,,,,,,,,,,,,,,,,,,,,,,,,,,,,,,,,,,,,,,,,,,,,,,,,,,,,,,,,,,,,,,,,,,,,,,,,,,,,,,,,,,,,,,,,,,,,,,,,,,,,,,
,,,,,,60d4477467e235cde30140a9,62bbfaf8d49be600f97778d6,2022-06-29_09h11.57.790,Colour_Asymmetry_Pilot,2022.1.3,Win32,60.03842459,62bbe60bf3d75ef465d3e404,0,103,103,40,1,onetwo,,,,,,,,,,,,,,,,,,,,,,,,,,,,,,,,,,,,,,,,,,,,,,,,,,,,,,,,,,,,,,,,,,,,,,,,,,,,,,,,,,,,,,,,,,,,,,,,,,,,,,,,,,,,,,,,,,,,,,,,,,,,,,,,,,,,,,,,,,,,,,,,,,,,,,,,
,,,,,,60d4477467e235cde30140a9,62bbfaf8d49be600f97778d6,2022-06-29_09h11.57.790,Colour_Asymmetry_Pilot,2022.1.3,Win32,60.03842459,62bbe60bf3d75ef465d3e404,0,104,104,15,1,fourthree,,,,,,,,,,,,,,,,,,,,,,,,,,,,,,,,,,,,,,,,,,,,,,,,,,,,,,,,,,,,,,,,,,,,,,,,,,,,,,,,,,,,,,,,,,,,,,,,,,,,,,,,,,,,,,,,,,,,,,,,,,,,,,,,,,,,,,,,,,,,,,,,,,,,,,,,
,,,,,,60d4477467e235cde30140a9,62bbfaf8d49be600f97778d6,2022-06-29_09h11.57.790,Colour_Asymmetry_Pilot,2022.1.3,Win32,60.03842459,62bbe60bf3d75ef465d3e404,0,105,105,123,1,twofour,,,,,,,,,,,,,,,,,,,,,,,,,,,,,,,,,,,,,,,,,,,,,,,,,,,,,,,,,,,,,,,,,,,,,,,,,,,,,,,,,,,,,,,,,,,,,,,,,,,,,,,,,,,,,,,,,,,,,,,,,,,,,,,,,,,,,,,,,,,,,,,,,,,,,,,,
,,,,,,60d4477467e235cde30140a9,62bbfaf8d49be600f97778d6,2022-06-29_09h11.57.790,Colour_Asymmetry_Pilot,2022.1.3,Win32,60.03842459,62bbe60bf3d75ef465d3e404,0,106,106,7,1,fourthree,,,,,,,,,,,,,,,,,,,,,,,,,,,,,,,,,,,,,,,,,,,,,,,,,,,,,,,,,,,,,,,,,,,,,,,,,,,,,,,,,,,,,,,,,,,,,,,,,,,,,,,,,,,,,,,,,,,,,,,,,,,,,,,,,,,,,,,,,,,,,,,,,,,,,,,,
,,,,,,60d4477467e235cde30140a9,62bbfaf8d49be600f97778d6,2022-06-29_09h11.57.790,Colour_Asymmetry_Pilot,2022.1.3,Win32,60.03842459,62bbe60bf3d75ef465d3e404,0,107,107,84,1,threeone,,,,,,,,,,,,,,,,,,,,,,,,,,,,,,,,,,,,,,,,,,,,,,,,,,,,,,,,,,,,,,,,,,,,,,,,,,,,,,,,,,,,,,,,,,,,,,,,,,,,,,,,,,,,,,,,,,,,,,,,,,,,,,,,,,,,,,,,,,,,,,,,,,,,,,,,
,,,,,,60d4477467e235cde30140a9,62bbfaf8d49be600f97778d6,2022-06-29_09h11.57.790,Colour_Asymmetry_Pilot,2022.1.3,Win32,60.03842459,62bbe60bf3d75ef465d3e404,0,108,108,105,1,onethree,,,,,,,,,,,,,,,,,,,,,,,,,,,,,,,,,,,,,,,,,,,,,,,,,,,,,,,,,,,,,,,,,,,,,,,,,,,,,,,,,,,,,,,,,,,,,,,,,,,,,,,,,,,,,,,,,,,,,,,,,,,,,,,,,,,,,,,,,,,,,,,,,,,,,,,,
,,,,,,60d4477467e235cde30140a9,62bbfaf8d49be600f97778d6,2022-06-29_09h11.57.790,Colour_Asymmetry_Pilot,2022.1.3,Win32,60.03842459,62bbe60bf3d75ef465d3e404,0,109,109,100,1,threeone,,,,,,,,,,,,,,,,,,,,,,,,,,,,,,,,,,,,,,,,,,,,,,,,,,,,,,,,,,,,,,,,,,,,,,,,,,,,,,,,,,,,,,,,,,,,,,,,,,,,,,,,,,,,,,,,,,,,,,,,,,,,,,,,,,,,,,,,,,,,,,,,,,,,,,,,
,,,,,,60d4477467e235cde30140a9,62bbfaf8d49be600f97778d6,2022-06-29_09h11.57.790,Colour_Asymmetry_Pilot,2022.1.3,Win32,60.03842459,62bbe60bf3d75ef465d3e404,0,110,110,34,1,twoone,,,,,,,,,,,,,,,,,,,,,,,,,,,,,,,,,,,,,,,,,,,,,,,,,,,,,,,,,,,,,,,,,,,,,,,,,,,,,,,,,,,,,,,,,,,,,,,,,,,,,,,,,,,,,,,,,,,,,,,,,,,,,,,,,,,,,,,,,,,,,,,,,,,,,,,,
,,,,,,60d4477467e235cde30140a9,62bbfaf8d49be600f97778d6,2022-06-29_09h11.57.790,Colour_Asymmetry_Pilot,2022.1.3,Win32,60.03842459,62bbe60bf3d75ef465d3e404,0,111,111,126,1,fourtwo,,,,,,,,,,,,,,,,,,,,,,,,,,,,,,,,,,,,,,,,,,,,,,,,,,,,,,,,,,,,,,,,,,,,,,,,,,,,,,,,,,,,,,,,,,,,,,,,,,,,,,,,,,,,,,,,,,,,,,,,,,,,,,,,,,,,,,,,,,,,,,,,,,,,,,,,
,,,,,,60d4477467e235cde30140a9,62bbfaf8d49be600f97778d6,2022-06-29_09h11.57.790,Colour_Asymmetry_Pilot,2022.1.3,Win32,60.03842459,62bbe60bf3d75ef465d3e404,0,112,112,61,1,threefour,,,,,,,,,,,,,,,,,,,,,,,,,,,,,,,,,,,,,,,,,,,,,,,,,,,,,,,,,,,,,,,,,,,,,,,,,,,,,,,,,,,,,,,,,,,,,,,,,,,,,,,,,,,,,,,,,,,,,,,,,,,,,,,,,,,,,,,,,,,,,,,,,,,,,,,,
,,,,,,60d4477467e235cde30140a9,62bbfaf8d49be600f97778d6,2022-06-29_09h11.57.790,Colour_Asymmetry_Pilot,2022.1.3,Win32,60.03842459,62bbe60bf3d75ef465d3e404,0,113,113,35,1,twofour,,,,,,,,,,,,,,,,,,,,,,,,,,,,,,,,,,,,,,,,,,,,,,,,,,,,,,,,,,,,,,,,,,,,,,,,,,,,,,,,,,,,,,,,,,,,,,,,,,,,,,,,,,,,,,,,,,,,,,,,,,,,,,,,,,,,,,,,,,,,,,,,,,,,,,,,
,,,,,,60d4477467e235cde30140a9,62bbfaf8d49be600f97778d6,2022-06-29_09h11.57.790,Colour_Asymmetry_Pilot,2022.1.3,Win32,60.03842459,62bbe60bf3d75ef465d3e404,0,114,114,29,1,threefour,,,,,,,,,,,,,,,,,,,,,,,,,,,,,,,,,,,,,,,,,,,,,,,,,,,,,,,,,,,,,,,,,,,,,,,,,,,,,,,,,,,,,,,,,,,,,,,,,,,,,,,,,,,,,,,,,,,,,,,,,,,,,,,,,,,,,,,,,,,,,,,,,,,,,,,,
,,,,,,60d4477467e235cde30140a9,62bbfaf8d49be600f97778d6,2022-06-29_09h11.57.790,Colour_Asymmetry_Pilot,2022.1.3,Win32,60.03842459,62bbe60bf3d75ef465d3e404,0,115,115,41,1,onethree,,,,,,,,,,,,,,,,,,,,,,,,,,,,,,,,,,,,,,,,,,,,,,,,,,,,,,,,,,,,,,,,,,,,,,,,,,,,,,,,,,,,,,,,,,,,,,,,,,,,,,,,,,,,,,,,,,,,,,,,,,,,,,,,,,,,,,,,,,,,,,,,,,,,,,,,
,,,,,,60d4477467e235cde30140a9,62bbfaf8d49be600f97778d6,2022-06-29_09h11.57.790,Colour_Asymmetry_Pilot,2022.1.3,Win32,60.03842459,62bbe60bf3d75ef465d3e404,0,116,116,64,1,onetwo,,,,,,,,,,,,,,,,,,,,,,,,,,,,,,,,,,,,,,,,,,,,,,,,,,,,,,,,,,,,,,,,,,,,,,,,,,,,,,,,,,,,,,,,,,,,,,,,,,,,,,,,,,,,,,,,,,,,,,,,,,,,,,,,,,,,,,,,,,,,,,,,,,,,,,,,
,,,,,,60d4477467e235cde30140a9,62bbfaf8d49be600f97778d6,2022-06-29_09h11.57.790,Colour_Asymmetry_Pilot,2022.1.3,Win32,60.03842459,62bbe60bf3d75ef465d3e404,0,117,117,68,1,threeone,,,,,,,,,,,,,,,,,,,,,,,,,,,,,,,,,,,,,,,,,,,,,,,,,,,,,,,,,,,,,,,,,,,,,,,,,,,,,,,,,,,,,,,,,,,,,,,,,,,,,,,,,,,,,,,,,,,,,,,,,,,,,,,,,,,,,,,,,,,,,,,,,,,,,,,,
,,,,,,60d4477467e235cde30140a9,62bbfaf8d49be600f97778d6,2022-06-29_09h11.57.790,Colour_Asymmetry_Pilot,2022.1.3,Win32,60.03842459,62bbe60bf3d75ef465d3e404,0,118,118,157,1,threefour,,,,,,,,,,,,,,,,,,,,,,,,,,,,,,,,,,,,,,,,,,,,,,,,,,,,,,,,,,,,,,,,,,,,,,,,,,,,,,,,,,,,,,,,,,,,,,,,,,,,,,,,,,,,,,,,,,,,,,,,,,,,,,,,,,,,,,,,,,,,,,,,,,,,,,,,
,,,,,,60d4477467e235cde30140a9,62bbfaf8d49be600f97778d6,2022-06-29_09h11.57.790,Colour_Asymmetry_Pilot,2022.1.3,Win32,60.03842459,62bbe60bf3d75ef465d3e404,0,119,119,50,1,twoone,,,,,,,,,,,,,,,,,,,,,,,,,,,,,,,,,,,,,,,,,,,,,,,,,,,,,,,,,,,,,,,,,,,,,,,,,,,,,,,,,,,,,,,,,,,,,,,,,,,,,,,,,,,,,,,,,,,,,,,,,,,,,,,,,,,,,,,,,,,,,,,,,,,,,,,,
,,,,,,60d4477467e235cde30140a9,62bbfaf8d49be600f97778d6,2022-06-29_09h11.57.790,Colour_Asymmetry_Pilot,2022.1.3,Win32,60.03842459,62bbe60bf3d75ef465d3e404,0,120,120,158,1,fourtwo,,,,,,,,,,,,,,,,,,,,,,,,,,,,,,,,,,,,,,,,,,,,,,,,,,,,,,,,,,,,,,,,,,,,,,,,,,,,,,,,,,,,,,,,,,,,,,,,,,,,,,,,,,,,,,,,,,,,,,,,,,,,,,,,,,,,,,,,,,,,,,,,,,,,,,,,
,,,,,,60d4477467e235cde30140a9,62bbfaf8d49be600f97778d6,2022-06-29_09h11.57.790,Colour_Asymmetry_Pilot,2022.1.3,Win32,60.03842459,62bbe60bf3d75ef465d3e404,0,121,121,111,1,fourthree,,,,,,,,,,,,,,,,,,,,,,,,,,,,,,,,,,,,,,,,,,,,,,,,,,,,,,,,,,,,,,,,,,,,,,,,,,,,,,,,,,,,,,,,,,,,,,,,,,,,,,,,,,,,,,,,,,,,,,,,,,,,,,,,,,,,,,,,,,,,,,,,,,,,,,,,
,,,,,,60d4477467e235cde30140a9,62bbfaf8d49be600f97778d6,2022-06-29_09h11.57.790,Colour_Asymmetry_Pilot,2022.1.3,Win32,60.03842459,62bbe60bf3d75ef465d3e404,0,122,122,37,1,threefour,,,,,,,,,,,,,,,,,,,,,,,,,,,,,,,,,,,,,,,,,,,,,,,,,,,,,,,,,,,,,,,,,,,,,,,,,,,,,,,,,,,,,,,,,,,,,,,,,,,,,,,,,,,,,,,,,,,,,,,,,,,,,,,,,,,,,,,,,,,,,,,,,,,,,,,,
,,,,,,60d4477467e235cde30140a9,62bbfaf8d49be600f97778d6,2022-06-29_09h11.57.790,Colour_Asymmetry_Pilot,2022.1.3,Win32,60.03842459,62bbe60bf3d75ef465d3e404,0,123,123,51,1,twofour,,,,,,,,,,,,,,,,,,,,,,,,,,,,,,,,,,,,,,,,,,,,,,,,,,,,,,,,,,,,,,,,,,,,,,,,,,,,,,,,,,,,,,,,,,,,,,,,,,,,,,,,,,,,,,,,,,,,,,,,,,,,,,,,,,,,,,,,,,,,,,,,,,,,,,,,
,,,,,,60d4477467e235cde30140a9,62bbfaf8d49be600f97778d6,2022-06-29_09h11.57.790,Colour_Asymmetry_Pilot,2022.1.3,Win32,60.03842459,62bbe60bf3d75ef465d3e404,0,124,124,79,1,fourthree,,,,,,,,,,,,,,,,,,,,,,,,,,,,,,,,,,,,,,,,,,,,,,,,,,,,,,,,,,,,,,,,,,,,,,,,,,,,,,,,,,,,,,,,,,,,,,,,,,,,,,,,,,,,,,,,,,,,,,,,,,,,,,,,,,,,,,,,,,,,,,,,,,,,,,,,
,,,,,,60d4477467e235cde30140a9,62bbfaf8d49be600f97778d6,2022-06-29_09h11.57.790,Colour_Asymmetry_Pilot,2022.1.3,Win32,60.03842459,62bbe60bf3d75ef465d3e404,0,125,125,48,1,onetwo,,,,,,,,,,,,,,,,,,,,,,,,,,,,,,,,,,,,,,,,,,,,,,,,,,,,,,,,,,,,,,,,,,,,,,,,,,,,,,,,,,,,,,,,,,,,,,,,,,,,,,,,,,,,,,,,,,,,,,,,,,,,,,,,,,,,,,,,,,,,,,,,,,,,,,,,
,,,,,,60d4477467e235cde30140a9,62bbfaf8d49be600f97778d6,2022-06-29_09h11.57.790,Colour_Asymmetry_Pilot,2022.1.3,Win32,60.03842459,62bbe60bf3d75ef465d3e404,0,126,126,33,1,onethree,,,,,,,,,,,,,,,,,,,,,,,,,,,,,,,,,,,,,,,,,,,,,,,,,,,,,,,,,,,,,,,,,,,,,,,,,,,,,,,,,,,,,,,,,,,,,,,,,,,,,,,,,,,,,,,,,,,,,,,,,,,,,,,,,,,,,,,,,,,,,,,,,,,,,,,,
,,,,,,60d4477467e235cde30140a9,62bbfaf8d49be600f97778d6,2022-06-29_09h11.57.790,Colour_Asymmetry_Pilot,2022.1.3,Win32,60.03842459,62bbe60bf3d75ef465d3e404,0,127,127,47,1,fourthree,,,,,,,,,,,,,,,,,,,,,,,,,,,,,,,,,,,,,,,,,,,,,,,,,,,,,,,,,,,,,,,,,,,,,,,,,,,,,,,,,,,,,,,,,,,,,,,,,,,,,,,,,,,,,,,,,,,,,,,,,,,,,,,,,,,,,,,,,,,,,,,,,,,,,,,,
,,,,,,60d4477467e235cde30140a9,62bbfaf8d49be600f97778d6,2022-06-29_09h11.57.790,Colour_Asymmetry_Pilot,2022.1.3,Win32,60.03842459,62bbe60bf3d75ef465d3e404,0,128,128,122,1,twoone,,,,,,,,,,,,,,,,,,,,,,,,,,,,,,,,,,,,,,,,,,,,,,,,,,,,,,,,,,,,,,,,,,,,,,,,,,,,,,,,,,,,,,,,,,,,,,,,,,,,,,,,,,,,,,,,,,,,,,,,,,,,,,,,,,,,,,,,,,,,,,,,,,,,,,,,
,,,,,,60d4477467e235cde30140a9,62bbfaf8d49be600f97778d6,2022-06-29_09h11.57.790,Colour_Asymmetry_Pilot,2022.1.3,Win32,60.03842459,62bbe60bf3d75ef465d3e404,0,129,129,46,1,fourtwo,,,,,,,,,,,,,,,,,,,,,,,,,,,,,,,,,,,,,,,,,,,,,,,,,,,,,,,,,,,,,,,,,,,,,,,,,,,,,,,,,,,,,,,,,,,,,,,,,,,,,,,,,,,,,,,,,,,,,,,,,,,,,,,,,,,,,,,,,,,,,,,,,,,,,,,,
,,,,,,60d4477467e235cde30140a9,62bbfaf8d49be600f97778d6,2022-06-29_09h11.57.790,Colour_Asymmetry_Pilot,2022.1.3,Win32,60.03842459,62bbe60bf3d75ef465d3e404,0,130,130,9,1,onethree,,,,,,,,,,,,,,,,,,,,,,,,,,,,,,,,,,,,,,,,,,,,,,,,,,,,,,,,,,,,,,,,,,,,,,,,,,,,,,,,,,,,,,,,,,,,,,,,,,,,,,,,,,,,,,,,,,,,,,,,,,,,,,,,,,,,,,,,,,,,,,,,,,,,,,,,
,,,,,,60d4477467e235cde30140a9,62bbfaf8d49be600f97778d6,2022-06-29_09h11.57.790,Colour_Asymmetry_Pilot,2022.1.3,Win32,60.03842459,62bbe60bf3d75ef465d3e404,0,131,131,143,1,fourthree,,,,,,,,,,,,,,,,,,,,,,,,,,,,,,,,,,,,,,,,,,,,,,,,,,,,,,,,,,,,,,,,,,,,,,,,,,,,,,,,,,,,,,,,,,,,,,,,,,,,,,,,,,,,,,,,,,,,,,,,,,,,,,,,,,,,,,,,,,,,,,,,,,,,,,,,
,,,,,,60d4477467e235cde30140a9,62bbfaf8d49be600f97778d6,2022-06-29_09h11.57.790,Colour_Asymmetry_Pilot,2022.1.3,Win32,60.03842459,62bbe60bf3d75ef465d3e404,0,132,132,24,1,onetwo,,,,,,,,,,,,,,,,,,,,,,,,,,,,,,,,,,,,,,,,,,,,,,,,,,,,,,,,,,,,,,,,,,,,,,,,,,,,,,,,,,,,,,,,,,,,,,,,,,,,,,,,,,,,,,,,,,,,,,,,,,,,,,,,,,,,,,,,,,,,,,,,,,,,,,,,
,,,,,,60d4477467e235cde30140a9,62bbfaf8d49be600f97778d6,2022-06-29_09h11.57.790,Colour_Asymmetry_Pilot,2022.1.3,Win32,60.03842459,62bbe60bf3d75ef465d3e404,0,133,133,161,1,onethree,,,,,,,,,,,,,,,,,,,,,,,,,,,,,,,,,,,,,,,,,,,,,,,,,,,,,,,,,,,,,,,,,,,,,,,,,,,,,,,,,,,,,,,,,,,,,,,,,,,,,,,,,,,,,,,,,,,,,,,,,,,,,,,,,,,,,,,,,,,,,,,,,,,,,,,,
,,,,,,60d4477467e235cde30140a9,62bbfaf8d49be600f97778d6,2022-06-29_09h11.57.790,Colour_Asymmetry_Pilot,2022.1.3,Win32,60.03842459,62bbe60bf3d75ef465d3e404,0,134,134,159,1,fourthree,,,,,,,,,,,,,,,,,,,,,,,,,,,,,,,,,,,,,,,,,,,,,,,,,,,,,,,,,,,,,,,,,,,,,,,,,,,,,,,,,,,,,,,,,,,,,,,,,,,,,,,,,,,,,,,,,,,,,,,,,,,,,,,,,,,,,,,,,,,,,,,,,,,,,,,,
,,,,,,60d4477467e235cde30140a9,62bbfaf8d49be600f97778d6,2022-06-29_09h11.57.790,Colour_Asymmetry_Pilot,2022.1.3,Win32,60.03842459,62bbe60bf3d75ef465d3e404,0,135,135,60,1,threeone,,,,,,,,,,,,,,,,,,,,,,,,,,,,,,,,,,,,,,,,,,,,,,,,,,,,,,,,,,,,,,,,,,,,,,,,,,,,,,,,,,,,,,,,,,,,,,,,,,,,,,,,,,,,,,,,,,,,,,,,,,,,,,,,,,,,,,,,,,,,,,,,,,,,,,,,
,,,,,,60d4477467e235cde30140a9,62bbfaf8d49be600f97778d6,2022-06-29_09h11.57.790,Colour_Asymmetry_Pilot,2022.1.3,Win32,60.03842459,62bbe60bf3d75ef465d3e404,0,136,136,13,1,threefour,,,,,,,,,,,,,,,,,,,,,,,,,,,,,,,,,,,,,,,,,,,,,,,,,,,,,,,,,,,,,,,,,,,,,,,,,,,,,,,,,,,,,,,,,,,,,,,,,,,,,,,,,,,,,,,,,,,,,,,,,,,,,,,,,,,,,,,,,,,,,,,,,,,,,,,,
,,,,,,60d4477467e235cde30140a9,62bbfaf8d49be600f97778d6,2022-06-29_09h11.57.790,Colour_Asymmetry_Pilot,2022.1.3,Win32,60.03842459,62bbe60bf3d75ef465d3e404,0,137,137,88,1,onetwo,,,,,,,,,,,,,,,,,,,,,,,,,,,,,,,,,,,,,,,,,,,,,,,,,,,,,,,,,,,,,,,,,,,,,,,,,,,,,,,,,,,,,,,,,,,,,,,,,,,,,,,,,,,,,,,,,,,,,,,,,,,,,,,,,,,,,,,,,,,,,,,,,,,,,,,,
,,,,,,60d4477467e235cde30140a9,62bbfaf8d49be600f97778d6,2022-06-29_09h11.57.790,Colour_Asymmetry_Pilot,2022.1.3,Win32,60.03842459,62bbe60bf3d75ef465d3e404,0,138,138,149,1,threefour,,,,,,,,,,,,,,,,,,,,,,,,,,,,,,,,,,,,,,,,,,,,,,,,,,,,,,,,,,,,,,,,,,,,,,,,,,,,,,,,,,,,,,,,,,,,,,,,,,,,,,,,,,,,,,,,,,,,,,,,,,,,,,,,,,,,,,,,,,,,,,,,,,,,,,,,
,,,,,,60d4477467e235cde30140a9,62bbfaf8d49be600f97778d6,2022-06-29_09h11.57.790,Colour_Asymmetry_Pilot,2022.1.3,Win32,60.03842459,62bbe60bf3d75ef465d3e404,0,139,139,97,1,onethree,,,,,,,,,,,,,,,,,,,,,,,,,,,,,,,,,,,,,,,,,,,,,,,,,,,,,,,,,,,,,,,,,,,,,,,,,,,,,,,,,,,,,,,,,,,,,,,,,,,,,,,,,,,,,,,,,,,,,,,,,,,,,,,,,,,,,,,,,,,,,,,,,,,,,,,,
,,,,,,60d4477467e235cde30140a9,62bbfaf8d49be600f97778d6,2022-06-29_09h11.57.790,Colour_Asymmetry_Pilot,2022.1.3,Win32,60.03842459,62bbe60bf3d75ef465d3e404,0,140,140,6,1,fourtwo,,,,,,,,,,,,,,,,,,,,,,,,,,,,,,,,,,,,,,,,,,,,,,,,,,,,,,,,,,,,,,,,,,,,,,,,,,,,,,,,,,,,,,,,,,,,,,,,,,,,,,,,,,,,,,,,,,,,,,,,,,,,,,,,,,,,,,,,,,,,,,,,,,,,,,,,
,,,,,,60d4477467e235cde30140a9,62bbfaf8d49be600f97778d6,2022-06-29_09h11.57.790,Colour_Asymmetry_Pilot,2022.1.3,Win32,60.03842459,62bbe60bf3d75ef465d3e404,0,141,141,25,1,onethree,,,,,,,,,,,,,,,,,,,,,,,,,,,,,,,,,,,,,,,,,,,,,,,,,,,,,,,,,,,,,,,,,,,,,,,,,,,,,,,,,,,,,,,,,,,,,,,,,,,,,,,,,,,,,,,,,,,,,,,,,,,,,,,,,,,,,,,,,,,,,,,,,,,,,,,,
,,,,,,60d4477467e235cde30140a9,62bbfaf8d49be600f97778d6,2022-06-29_09h11.57.790,Colour_Asymmetry_Pilot,2022.1.3,Win32,60.03842459,62bbe60bf3d75ef465d3e404,0,142,142,153,1,onethree,,,,,,,,,,,,,,,,,,,,,,,,,,,,,,,,,,,,,,,,,,,,,,,,,,,,,,,,,,,,,,,,,,,,,,,,,,,,,,,,,,,,,,,,,,,,,,,,,,,,,,,,,,,,,,,,,,,,,,,,,,,,,,,,,,,,,,,,,,,,,,,,,,,,,,,,
,,,,,,60d4477467e235cde30140a9,62bbfaf8d49be600f97778d6,2022-06-29_09h11.57.790,Colour_Asymmetry_Pilot,2022.1.3,Win32,60.03842459,62bbe60bf3d75ef465d3e404,0,143,143,101,1,threefour,,,,,,,,,,,,,,,,,,,,,,,,,,,,,,,,,,,,,,,,,,,,,,,,,,,,,,,,,,,,,,,,,,,,,,,,,,,,,,,,,,,,,,,,,,,,,,,,,,,,,,,,,,,,,,,,,,,,,,,,,,,,,,,,,,,,,,,,,,,,,,,,,,,,,,,,
,,,,,,60d4477467e235cde30140a9,62bbfaf8d49be600f97778d6,2022-06-29_09h11.57.790,Colour_Asymmetry_Pilot,2022.1.3,Win32,60.03842459,62bbe60bf3d75ef465d3e404,0,144,144,131,1,twofour,,,,,,,,,,,,,,,,,,,,,,,,,,,,,,,,,,,,,,,,,,,,,,,,,,,,,,,,,,,,,,,,,,,,,,,,,,,,,,,,,,,,,,,,,,,,,,,,,,,,,,,,,,,,,,,,,,,,,,,,,,,,,,,,,,,,,,,,,,,,,,,,,,,,,,,,
,,,,,,60d4477467e235cde30140a9,62bbfaf8d49be600f97778d6,2022-06-29_09h11.57.790,Colour_Asymmetry_Pilot,2022.1.3,Win32,60.03842459,62bbe60bf3d75ef465d3e404,0,145,145,124,1,threeone,,,,,,,,,,,,,,,,,,,,,,,,,,,,,,,,,,,,,,,,,,,,,,,,,,,,,,,,,,,,,,,,,,,,,,,,,,,,,,,,,,,,,,,,,,,,,,,,,,,,,,,,,,,,,,,,,,,,,,,,,,,,,,,,,,,,,,,,,,,,,,,,,,,,,,,,
,,,,,,60d4477467e235cde30140a9,62bbfaf8d49be600f97778d6,2022-06-29_09h11.57.790,Colour_Asymmetry_Pilot,2022.1.3,Win32,60.03842459,62bbe60bf3d75ef465d3e404,0,146,146,52,1,threeone,,,,,,,,,,,,,,,,,,,,,,,,,,,,,,,,,,,,,,,,,,,,,,,,,,,,,,,,,,,,,,,,,,,,,,,,,,,,,,,,,,,,,,,,,,,,,,,,,,,,,,,,,,,,,,,,,,,,,,,,,,,,,,,,,,,,,,,,,,,,,,,,,,,,,,,,
,,,,,,60d4477467e235cde30140a9,62bbfaf8d49be600f97778d6,2022-06-29_09h11.57.790,Colour_Asymmetry_Pilot,2022.1.3,Win32,60.03842459,62bbe60bf3d75ef465d3e404,0,147,147,109,1,threefour,,,,,,,,,,,,,,,,,,,,,,,,,,,,,,,,,,,,,,,,,,,,,,,,,,,,,,,,,,,,,,,,,,,,,,,,,,,,,,,,,,,,,,,,,,,,,,,,,,,,,,,,,,,,,,,,,,,,,,,,,,,,,,,,,,,,,,,,,,,,,,,,,,,,,,,,
,,,,,,60d4477467e235cde30140a9,62bbfaf8d49be600f97778d6,2022-06-29_09h11.57.790,Colour_Asymmetry_Pilot,2022.1.3,Win32,60.03842459,62bbe60bf3d75ef465d3e404,0,148,148,98,1,twoone,,,,,,,,,,,,,,,,,,,,,,,,,,,,,,,,,,,,,,,,,,,,,,,,,,,,,,,,,,,,,,,,,,,,,,,,,,,,,,,,,,,,,,,,,,,,,,,,,,,,,,,,,,,,,,,,,,,,,,,,,,,,,,,,,,,,,,,,,,,,,,,,,,,,,,,,
,,,,,,60d4477467e235cde30140a9,62bbfaf8d49be600f97778d6,2022-06-29_09h11.57.790,Colour_Asymmetry_Pilot,2022.1.3,Win32,60.03842459,62bbe60bf3d75ef465d3e404,0,149,149,92,1,threeone,,,,,,,,,,,,,,,,,,,,,,,,,,,,,,,,,,,,,,,,,,,,,,,,,,,,,,,,,,,,,,,,,,,,,,,,,,,,,,,,,,,,,,,,,,,,,,,,,,,,,,,,,,,,,,,,,,,,,,,,,,,,,,,,,,,,,,,,,,,,,,,,,,,,,,,,
,,,,,,60d4477467e235cde30140a9,62bbfaf8d49be600f97778d6,2022-06-29_09h11.57.790,Colour_Asymmetry_Pilot,2022.1.3,Win32,60.03842459,62bbe60bf3d75ef465d3e404,0,150,150,1,1,onethree,,,,,,,,,,,,,,,,,,,,,,,,,,,,,,,,,,,,,,,,,,,,,,,,,,,,,,,,,,,,,,,,,,,,,,,,,,,,,,,,,,,,,,,,,,,,,,,,,,,,,,,,,,,,,,,,,,,,,,,,,,,,,,,,,,,,,,,,,,,,,,,,,,,,,,,,
,,,,,,60d4477467e235cde30140a9,62bbfaf8d49be600f97778d6,2022-06-29_09h11.57.790,Colour_Asymmetry_Pilot,2022.1.3,Win32,60.03842459,62bbe60bf3d75ef465d3e404,0,151,151,27,1,twofour,,,,,,,,,,,,,,,,,,,,,,,,,,,,,,,,,,,,,,,,,,,,,,,,,,,,,,,,,,,,,,,,,,,,,,,,,,,,,,,,,,,,,,,,,,,,,,,,,,,,,,,,,,,,,,,,,,,,,,,,,,,,,,,,,,,,,,,,,,,,,,,,,,,,,,,,
,,,,,,60d4477467e235cde30140a9,62bbfaf8d49be600f97778d6,2022-06-29_09h11.57.790,Colour_Asymmetry_Pilot,2022.1.3,Win32,60.03842459,62bbe60bf3d75ef465d3e404,0,152,152,38,1,fourtwo,,,,,,,,,,,,,,,,,,,,,,,,,,,,,,,,,,,,,,,,,,,,,,,,,,,,,,,,,,,,,,,,,,,,,,,,,,,,,,,,,,,,,,,,,,,,,,,,,,,,,,,,,,,,,,,,,,,,,,,,,,,,,,,,,,,,,,,,,,,,,,,,,,,,,,,,
,,,,,,60d4477467e235cde30140a9,62bbfaf8d49be600f97778d6,2022-06-29_09h11.57.790,Colour_Asymmetry_Pilot,2022.1.3,Win32,60.03842459,62bbe60bf3d75ef465d3e404,0,153,153,89,1,onethree,,,,,,,,,,,,,,,,,,,,,,,,,,,,,,,,,,,,,,,,,,,,,,,,,,,,,,,,,,,,,,,,,,,,,,,,,,,,,,,,,,,,,,,,,,,,,,,,,,,,,,,,,,,,,,,,,,,,,,,,,,,,,,,,,,,,,,,,,,,,,,,,,,,,,,,,
,,,,,,60d4477467e235cde30140a9,62bbfaf8d49be600f97778d6,2022-06-29_09h11.57.790,Colour_Asymmetry_Pilot,2022.1.3,Win32,60.03842459,62bbe60bf3d75ef465d3e404,0,154,154,3,1,twofour,,,,,,,,,,,,,,,,,,,,,,,,,,,,,,,,,,,,,,,,,,,,,,,,,,,,,,,,,,,,,,,,,,,,,,,,,,,,,,,,,,,,,,,,,,,,,,,,,,,,,,,,,,,,,,,,,,,,,,,,,,,,,,,,,,,,,,,,,,,,,,,,,,,,,,,,
,,,,,,60d4477467e235cde30140a9,62bbfaf8d49be600f97778d6,2022-06-29_09h11.57.790,Colour_Asymmetry_Pilot,2022.1.3,Win32,60.03842459,62bbe60bf3d75ef465d3e404,0,155,155,117,1,threefour,,,,,,,,,,,,,,,,,,,,,,,,,,,,,,,,,,,,,,,,,,,,,,,,,,,,,,,,,,,,,,,,,,,,,,,,,,,,,,,,,,,,,,,,,,,,,,,,,,,,,,,,,,,,,,,,,,,,,,,,,,,,,,,,,,,,,,,,,,,,,,,,,,,,,,,,
,,,,,,60d4477467e235cde30140a9,62bbfaf8d49be600f97778d6,2022-06-29_09h11.57.790,Colour_Asymmetry_Pilot,2022.1.3,Win32,60.03842459,62bbe60bf3d75ef465d3e404,0,156,156,4,1,threeone,,,,,,,,,,,,,,,,,,,,,,,,,,,,,,,,,,,,,,,,,,,,,,,,,,,,,,,,,,,,,,,,,,,,,,,,,,,,,,,,,,,,,,,,,,,,,,,,,,,,,,,,,,,,,,,,,,,,,,,,,,,,,,,,,,,,,,,,,,,,,,,,,,,,,,,,
,,,,,,60d4477467e235cde30140a9,62bbfaf8d49be600f97778d6,2022-06-29_09h11.57.790,Colour_Asymmetry_Pilot,2022.1.3,Win32,60.03842459,62bbe60bf3d75ef465d3e404,0,157,157,71,1,fourthree,,,,,,,,,,,,,,,,,,,,,,,,,,,,,,,,,,,,,,,,,,,,,,,,,,,,,,,,,,,,,,,,,,,,,,,,,,,,,,,,,,,,,,,,,,,,,,,,,,,,,,,,,,,,,,,,,,,,,,,,,,,,,,,,,,,,,,,,,,,,,,,,,,,,,,,,
,,,,,,60d4477467e235cde30140a9,62bbfaf8d49be600f97778d6,2022-06-29_09h11.57.790,Colour_Asymmetry_Pilot,2022.1.3,Win32,60.03842459,62bbe60bf3d75ef465d3e404,0,158,158,94,1,fourtwo,,,,,,,,,,,,,,,,,,,,,,,,,,,,,,,,,,,,,,,,,,,,,,,,,,,,,,,,,,,,,,,,,,,,,,,,,,,,,,,,,,,,,,,,,,,,,,,,,,,,,,,,,,,,,,,,,,,,,,,,,,,,,,,,,,,,,,,,,,,,,,,,,,,,,,,,
,,,,,,60d4477467e235cde30140a9,62bbfaf8d49be600f97778d6,2022-06-29_09h11.57.790,Colour_Asymmetry_Pilot,2022.1.3,Win32,60.03842459,62bbe60bf3d75ef465d3e404,0,159,159,136,1,onetwo,,,,,,,,,,,,,,,,,,,,,,,,,,,,,,,,,,,,,,,,,,,,,,,,,,,,,,,,,,,,,,,,,,,,,,,,,,,,,,,,,,,,,,,,,,,,,,,,,,,,,,,,,,,,,,,,,,,,,,,,,,,,,,,,,,,,,,,,,,,,,,,,,,,,,,,,
,,,,,,60d4477467e235cde30140a9,62bbfaf8d49be600f97778d6,2022-06-29_09h11.57.790,Colour_Asymmetry_Pilot,2022.1.3,Win32,60.03842459,62bbe60bf3d75ef465d3e404,0,160,160,113,1,onethree,,,,,,,,,,,,,,,,,,,,,,,,,,,,,,,,,,,,,,,,,,,,,,,,,,,,,,,,,,,,,,,,,,,,,,,,,,,,,,,,,,,,,,,,,,,,,,,,,,,,,,,,,,,,,,,,,,,,,,,,,,,,,,,,,,,,,,,,,,,,,,,,,,,,,,,,
,,,,,,60d4477467e235cde30140a9,62bbfaf8d49be600f97778d6,2022-06-29_09h11.57.790,Colour_Asymmetry_Pilot,2022.1.3,Win32,60.03842459,62bbe60bf3d75ef465d3e404,0,161,161,78,1,fourtwo,,,,,,,,,,,,,,,,,,,,,,,,,,,,,,,,,,,,,,,,,,,,,,,,,,,,,,,,,,,,,,,,,,,,,,,,,,,,,,,,,,,,,,,,,,,,,,,,,,,,,,,,,,,,,,,,,,,,,,,,,,,,,,,,,,,,,,,,,,,,,,,,,,,,,,,,
,,,,,,60d4477467e235cde30140a9,62bbfaf8d49be600f97778d6,2022-06-29_09h11.57.790,Colour_Asymmetry_Pilot,2022.1.3,Win32,60.03842459,62bbe60bf3d75ef465d3e404,,,,,,,space,2.8128,space,6.6998,space,45.3196,space,41.8496,space,3.8697,space,6.7803,"[-0.20799999999999996,-0.655,-0.01980000000000004]",threeone,"[0.4196,0.4665999999999999,0.3568]",-4,21.0366,-41,95,1,0,0,response7disk_5,19,-1,1,0,0,rectangle_8,19,-1,1,0,0,2,19,-1,1,0,0,0,0,0,0,1,,,,,,,,,,,,,,,,,,,,,,,,,,,,,,,,,,,,,,,,,,,,,,,,,,,,,,,,,,,,,,,,,,,,,,,,,,,,,,,,,,,,,,,,,,,,,,,,,,,,,,,,,,,
,,,,,,60d4477467e235cde30140a9,62bbfaf8d49be600f97778d6,2022-06-29_09h11.57.790,Colour_Asymmetry_Pilot,2022.1.3,Win32,60.03842459,62bbe60bf3d75ef465d3e404,,,,,,,,,,,,,,,,,,,"[-0.9296,-0.12959999999999994,-0.043199999999999905]",threefour,"[0.7646000000000002,0.07440000000000002,0.2704]",-4,4.2817,-50,84,1,0,0,response7disk_5,6,3,1,0,0,rectangle_8,6,3,1,0,0,2,6,3,1,0,0,1,0,1,0,1,,,,,,,,,,,,,,,,,,,,,,,,,,,,,,,,,,,,,,,,,,,,,,,,,,,,,,,,,,,,,,,,,,,,,,,,,,,,,,,,,,,,,,,,,,,,,,,,,,,,,,,,,,,
,,,,,,60d4477467e235cde30140a9,62bbfaf8d49be600f97778d6,2022-06-29_09h11.57.790,Colour_Asymmetry_Pilot,2022.1.3,Win32,60.03842459,62bbe60bf3d75ef465d3e404,,,,,,,,,,,,,,,,,,,"[0.5449999999999999,-0.31000000000000005,-0.0354000000000001]",fourtwo,"[0.23920000000000008,0.2704,0.16060000000000008]",-4,3.566,-45,101,1,0,0,response7disk_5,14,-1,1,0,0,rectangle_8,14,-1,1,0,0,2,14,-1,1,0,0,2,0,2,0,1,,,,,,,,,,,,,,,,,,,,,,,,,,,,,,,,,,,,,,,,,,,,,,,,,,,,,,,,,,,,,,,,,,,,,,,,,,,,,,,,,,,,,,,,,,,,,,,,,,,,,,,,,,,
,,,,,,60d4477467e235cde30140a9,62bbfaf8d49be600f97778d6,2022-06-29_09h11.57.790,Colour_Asymmetry_Pilot,2022.1.3,Win32,60.03842459,62bbe60bf3d75ef465d3e404,,,,,,,,,,,,,,,,,,,"[-0.24719999999999998,-0.0354000000000001,0.3175999999999999]",threeone,"[-0.45899999999999996,-0.3256,-0.9374]",-4,1.7155,-45,83,1,0,0,response7disk_5,5,-5,1,0,0,rectangle_8,5,-5,1,0,0,2,5,-5,1,0,0,3,0,3,0,1,,,,,,,,,,,,,,,,,,,,,,,,,,,,,,,,,,,,,,,,,,,,,,,,,,,,,,,,,,,,,,,,,,,,,,,,,,,,,,,,,,,,,,,,,,,,,,,,,,,,,,,,,,,
,,,,,,60d4477467e235cde30140a9,62bbfaf8d49be600f97778d6,2022-06-29_09h11.57.790,Colour_Asymmetry_Pilot,2022.1.3,Win32,60.03842459,62bbe60bf3d75ef465d3e404,,,,,,,,,,,,,,,,,,,"[0.8115999999999999,-0.0040000000000000036,-0.09819999999999995]",twoone,"[-0.5452,-0.608,0.2470000000000001]",-4,2.2815,-32,99,1,0,0,response7disk_5,21,0,1,0,0,rectangle_8,63,-45,1,0,0,2,12,-5,1,0,0,4,0,4,0,1,response3disk_7,5,rectangle_4,,,,,,,,,,,,,,,,,,,,,,,,,,,,,,,,,,,,,,,,,,,,,,,,,,,,,,,,,,,,,,,,,,,,,,,,,,,,,,,,,,,,,,,,,,,,,,,,,,,,,,,,
,,,,,,60d4477467e235cde30140a9,62bbfaf8d49be600f97778d6,2022-06-29_09h11.57.790,Colour_Asymmetry_Pilot,2022.1.3,Win32,60.03842459,62bbe60bf3d75ef465d3e404,,,,,,,,,,,,,,,,,,,"[-0.2942,-0.7648,-0.7492000000000001]",twoone,"[-0.6,0.16860000000000008,0.44300000000000006]",-4,4.0163,-46,86,1,0,0,response7disk_5,-11,-8,1,0,0,rectangle_8,-11,-8,1,0,0,2,-11,-8,1,0,0,5,0,5,0,1,,,,,,,,,,,,,,,,,,,,,,,,,,,,,,,,,,,,,,,,,,,,,,,,,,,,,,,,,,,,,,,,,,,,,,,,,,,,,,,,,,,,,,,,,,,,,,,,,,,,,,,,,,,
,,,,,,60d4477467e235cde30140a9,62bbfaf8d49be600f97778d6,2022-06-29_09h11.57.790,Colour_Asymmetry_Pilot,2022.1.3,Win32,60.03842459,62bbe60bf3d75ef465d3e404,,,,,,,,,,,,,,,,,,,"[-0.20799999999999996,-0.655,-0.01980000000000004]",fourtwo,"[-0.9296,-0.12959999999999994,-0.043199999999999905]",-4,1.3183,-45,70,1,0,0,response7disk_5,11,-9,1,0,0,rectangle_8,11,-9,1,0,0,2,11,-9,1,0,0,6,0,6,0,1,,,,,,,,,,,,,,,,,,,,,,,,,,,,,,,,,,,,,,,,,,,,,,,,,,,,,,,,,,,,,,,,,,,,,,,,,,,,,,,,,,,,,,,,,,,,,,,,,,,,,,,,,,,
,,,,,,60d4477467e235cde30140a9,62bbfaf8d49be600f97778d6,2022-06-29_09h11.57.790,Colour_Asymmetry_Pilot,2022.1.3,Win32,60.03842459,62bbe60bf3d75ef465d3e404,,,,,,,,,,,,,,,,,,,,onethree,,4,2.2345,,,,,,,,,,,,,,,,,,,,,,,,,,,,,,,,space,3.4076,"[-0.6235999999999999,-0.6786,-0.08239999999999992]","[-0.5452,-0.608,0.2470000000000001]",37,68,1,0,0,response1disk,-8,2,1,0,0,rectangle,-8,2,1,0,0,,3,0.0045,0,-8,2,1,0,0,0,0,0,75,1,75,first,,,,,,,,,,,,,,,,,,,,,,,,,,,,,,,,,,,,,,,,,,,,,,,,,,,,,,,,,,,,,,,,,,,
,,,,,,60d4477467e235cde30140a9,62bbfaf8d49be600f97778d6,2022-06-29_09h11.57.790,Colour_Asymmetry_Pilot,2022.1.3,Win32,60.03842459,62bbe60bf3d75ef465d3e404,,,,,,,,,,,,,,,,,,,,threefour,,-4,1.885,,,,,,,,,,,,,,,,,,,,,,,,,,,,,,,,,,"[0.22340000000000004,-0.9296,-0.7884]","[-0.9688,-0.7412000000000001,-0.4902000000000001]",-35,82,1,0,0,response7disk,-19,1,1,0,0,rectangle,-19,1,1,0,0,,1,0.0022,0,-19,1,1,0,0,0,1,1,115,1,34,second,,,,,,,,,,,,,,,,,,,,,,,,,,,,,,,,,,,,,,,,,,,,,,,,,,,,,,,,,,,,,,,,,,,
,,,,,,60d4477467e235cde30140a9,62bbfaf8d49be600f97778d6,2022-06-29_09h11.57.790,Colour_Asymmetry_Pilot,2022.1.3,Win32,60.03842459,62bbe60bf3d75ef465d3e404,,,,,,,,,,,,,,,,,,,,fourthree,,-4,1.566,,,,,,,,,,,,,,,,,,,,,,,,,,,,,,,,,,"[0.6625999999999999,0.4980000000000002,-0.357]","[-0.011800000000000033,-0.906,-0.45100000000000007]",-33,74,1,0,0,response7disk,-6,-12,1,0,0,rectangle,-6,-12,1,0,0,,1,0.0003,0,-6,-12,1,0,0,0,2,2,47,1,47,first,,,,,,,,,,,,,,,,,,,,,,,,,,,,,,,,,,,,,,,,,,,,,,,,,,,,,,,,,,,,,,,,,,,
,,,,,,60d4477467e235cde30140a9,62bbfaf8d49be600f97778d6,2022-06-29_09h11.57.790,Colour_Asymmetry_Pilot,2022.1.3,Win32,60.03842459,62bbe60bf3d75ef465d3e404,,,,,,,,,,,,,,,,,,,,twofour,,-4,0.7997,,,,,,,,,,,,,,,,,,,,,,,,,,,,,,,,,,"[0.7018,0.7176,0.6155999999999999]","[0.37240000000000006,-0.050999999999999934,-0.5216]",-42,72,1,0,0,response7disk,4,-4,1,0,0,rectangle,4,-4,1,0,0,,1,0.0009,0,4,-4,1,0,0,0,3,3,85,1,4,second,,,,,,,,,,,,,,,,,,,,,,,,,,,,,,,,,,,,,,,,,,,,,,,,,,,,,,,,,,,,,,,,,,,
,,,,,,60d4477467e235cde30140a9,62bbfaf8d49be600f97778d6,2022-06-29_09h11.57.790,Colour_Asymmetry_Pilot,2022.1.3,Win32,60.03842459,62bbe60bf3d75ef465d3e404,,,,,,,,,,,,,,,,,,,,onetwo,,-4,0.5387,,,,,,,,,,,,,,,,,,,,,,,,,,,,,,,,,,"[0.7018,0.7176,0.6155999999999999]","[-0.8118,-0.8198,-0.5452]",-41,73,1,0,0,response7disk,7,-5,1,0,0,rectangle,7,-5,1,0,0,,1,0.0009,0,7,-5,1,0,0,0,4,4,67,1,67,first,,,,,,,,,,,,,,,,,,,,,,,,,,,,,,,,,,,,,,,,,,,,,,,,,,,,,,,,,,,,,,,,,,,
,,,,,,60d4477467e235cde30140a9,62bbfaf8d49be600f97778d6,2022-06-29_09h11.57.790,Colour_Asymmetry_Pilot,2022.1.3,Win32,60.03842459,62bbe60bf3d75ef465d3e404,,,,,,,,,,,,,,,,,,,,threeone,,-4,0.4664,,,,,,,,,,,,,,,,,,,,,,,,,,,,,,,,,,"[-0.9216,-0.5529999999999999,-0.3962]","[-0.20799999999999996,-0.655,-0.01980000000000004]",-50,77,1,0,0,response7disk,-5,-2,1,0,0,rectangle,-5,-2,1,0,0,,2,0.0027,0,-5,-2,1,0,0,0,5,5,114,1,33,second,,,,,,,,,,,,,,,,,,,,,,,,,,,,,,,,,,,,,,,,,,,,,,,,,,,,,,,,,,,,,,,,,,,
,,,,,,60d4477467e235cde30140a9,62bbfaf8d49be600f97778d6,2022-06-29_09h11.57.790,Colour_Asymmetry_Pilot,2022.1.3,Win32,60.03842459,62bbe60bf3d75ef465d3e404,,,,,,,,,,,,,,,,,,,,fourthree,,-4,0.6182,,,,,,,,,,,,,,,,,,,,,,,,,,,,,,,,,,"[-0.011800000000000033,-0.906,-0.45100000000000007]","[0.6625999999999999,0.4980000000000002,-0.357]",-26,92,1,0,0,response7disk,-2,-1,1,0,0,rectangle,-2,-1,1,0,0,,1,0.0033,0,-2,-1,1,0,0,0,6,6,128,1,47,second,,,,,,,,,,,,,,,,,,,,,,,,,,,,,,,,,,,,,,,,,,,,,,,,,,,,,,,,,,,,,,,,,,,
,,,,,,60d4477467e235cde30140a9,62bbfaf8d49be600f97778d6,2022-06-29_09h11.57.790,Colour_Asymmetry_Pilot,2022.1.3,Win32,60.03842459,62bbe60bf3d75ef465d3e404,,,,,,,,,,,,,,,,,,,,onetwo,,-4,0.3634,,,,,,,,,,,,,,,,,,,,,,,,,,,,,,,,,,"[-0.48240000000000005,0.3175999999999999,0.2156]","[0.40379999999999994,0.09000000000000008,0.44300000000000006]",-66,90,1,0,0,response7disk,17,-6,1,0,0,rectangle,17,-6,1,0,0,,3,0.0023,0,17,-6,1,0,0,0,7,7,119,1,38,second,,,,,,,,,,,,,,,,,,,,,,,,,,,,,,,,,,,,,,,,,,,,,,,,,,,,,,,,,,,,,,,,,,,
,,,,,,60d4477467e235cde30140a9,62bbfaf8d49be600f97778d6,2022-06-29_09h11.57.790,Colour_Asymmetry_Pilot,2022.1.3,Win32,60.03842459,62bbe60bf3d75ef465d3e404,,,,,,,,,,,,,,,,,,,,twoone,,-4,4.7282,,,,,,,,,,,,,,,,,,,,,,,,,,,,,,,,,,"[0.0351999999999999,0.41159999999999997,0.0038000000000000256]","[-0.9766,-0.34920000000000007,0.2156]",-34,97,1,0,0,response7disk,-3,0,1,0,0,rectangle,-3,0,1,0,0,,1,0.0028,0,-3,0,1,0,0,0,8,8,27,1,27,first,,,,,,,,,,,,,,,,,,,,,,,,,,,,,,,,,,,,,,,,,,,,,,,,,,,,,,,,,,,,,,,,,,,
,,,,,,60d4477467e235cde30140a9,62bbfaf8d49be600f97778d6,2022-06-29_09h11.57.790,Colour_Asymmetry_Pilot,2022.1.3,Win32,60.03842459,62bbe60bf3d75ef465d3e404,,,,,,,,,,,,,,,,,,,,onethree,,-4,0.517,,,,,,,,,,,,,,,,,,,,,,,,,,,,,,,,,,"[0.18419999999999992,-0.4276,-0.404]","[0.0351999999999999,0.41159999999999997,0.0038000000000000256]",-56,81,1,0,0,response7disk,8,0,1,0,0,rectangle,8,0,1,0,0,,1,0.0008,0,8,0,1,0,0,0,9,9,35,1,35,first,,,,,,,,,,,,,,,,,,,,,,,,,,,,,,,,,,,,,,,,,,,,,,,,,,,,,,,,,,,,,,,,,,,
,,,,,,60d4477467e235cde30140a9,62bbfaf8d49be600f97778d6,2022-06-29_09h11.57.790,Colour_Asymmetry_Pilot,2022.1.3,Win32,60.03842459,62bbe60bf3d75ef465d3e404,,,,,,,,,,,,,,,,,,,,threeone,,-4,0.6003,,,,,,,,,,,,,,,,,,,,,,,,,,,,,,,,,,"[-0.10599999999999998,-0.10599999999999998,0.5841999999999998]","[-0.38039999999999996,-0.4276,-0.1452]",-62,101,1,0,0,response7disk,14,-5,1,0,0,rectangle,14,-5,1,0,0,,3,0.0029,0,14,-5,1,0,0,0,10,10,68,1,68,first,,,,,,,,,,,,,,,,,,,,,,,,,,,,,,,,,,,,,,,,,,,,,,,,,,,,,,,,,,,,,,,,,,,
,,,,,,60d4477467e235cde30140a9,62bbfaf8d49be600f97778d6,2022-06-29_09h11.57.790,Colour_Asymmetry_Pilot,2022.1.3,Win32,60.03842459,62bbe60bf3d75ef465d3e404,,,,,,,,,,,,,,,,,,,,onethree,,4,0.6155,,,,,,,,,,,,,,,,,,,,,,,,,,,,,,,,,,"[-0.17659999999999998,-0.2864,-0.8354]","[-0.06680000000000008,-0.45100000000000007,-0.906]",45,76,1,0,0,response1disk,8,12,1,0,0,rectangle,8,12,1,0,0,,2,0.0025,0,8,12,1,0,0,0,11,11,87,1,6,second,,,,,,,,,,,,,,,,,,,,,,,,,,,,,,,,,,,,,,,,,,,,,,,,,,,,,,,,,,,,,,,,,,,
,,,,,,60d4477467e235cde30140a9,62bbfaf8d49be600f97778d6,2022-06-29_09h11.57.790,Colour_Asymmetry_Pilot,2022.1.3,Win32,60.03842459,62bbe60bf3d75ef465d3e404,,,,,,,,,,,,,,,,,,,,onethree,,-4,0.5336,,,,,,,,,,,,,,,,,,,,,,,,,,,,,,,,,,"[-0.9138,-0.5296000000000001,-0.5529999999999999]","[0.9842,0.7409999999999999,-0.6628000000000001]",-63,85,1,0,0,response7disk,13,6,1,0,0,rectangle,13,6,1,0,0,,3,0.0024,0,13,6,1,0,0,0,12,12,95,1,14,second,,,,,,,,,,,,,,,,,,,,,,,,,,,,,,,,,,,,,,,,,,,,,,,,,,,,,,,,,,,,,,,,,,,
,,,,,,60d4477467e235cde30140a9,62bbfaf8d49be600f97778d6,2022-06-29_09h11.57.790,Colour_Asymmetry_Pilot,2022.1.3,Win32,60.03842459,62bbe60bf3d75ef465d3e404,,,,,,,,,,,,,,,,,,,,twofour,,4,0.4159,,,,,,,,,,,,,,,,,,,,,,,,,,,,,,,,,,"[-0.06680000000000008,-0.45100000000000007,-0.906]","[-0.17659999999999998,-0.2864,-0.8354]",41,78,1,0,0,response1disk,-2,1,1,0,0,rectangle,-2,1,1,0,0,,1,0.0024,0,-2,1,1,0,0,0,13,13,6,1,6,first,,,,,,,,,,,,,,,,,,,,,,,,,,,,,,,,,,,,,,,,,,,,,,,,,,,,,,,,,,,,,,,,,,,
,,,,,,60d4477467e235cde30140a9,62bbfaf8d49be600f97778d6,2022-06-29_09h11.57.790,Colour_Asymmetry_Pilot,2022.1.3,Win32,60.03842459,62bbe60bf3d75ef465d3e404,,,,,,,,,,,,,,,,,,,,fourtwo,,-4,0.3501,,,,,,,,,,,,,,,,,,,,,,,,,,,,,,,,,,"[-0.4902000000000001,0.2704,-0.45899999999999996]","[0.12939999999999996,-0.2864,0.3253999999999999]",-38,83,1,0,0,response7disk,2,5,1,0,0,rectangle,2,5,1,0,0,,3,0.0031,0,2,5,1,0,0,0,14,14,58,1,58,first,,,,,,,,,,,,,,,,,,,,,,,,,,,,,,,,,,,,,,,,,,,,,,,,,,,,,,,,,,,,,,,,,,,
,,,,,,60d4477467e235cde30140a9,62bbfaf8d49be600f97778d6,2022-06-29_09h11.57.790,Colour_Asymmetry_Pilot,2022.1.3,Win32,60.03842459,62bbe60bf3d75ef465d3e404,,,,,,,,,,,,,,,,,,,,threeone,,-4,0.35,,,,,,,,,,,,,,,,,,,,,,,,,,,,,,,,,,"[0.04299999999999993,0.16060000000000008,-0.6628000000000001]","[-0.20799999999999996,-0.655,-0.01980000000000004]",-41,83,1,0,0,response7disk,5,7,1,0,0,rectangle,5,7,1,0,0,,2,0.0021,0,5,7,1,0,0,0,15,15,48,1,48,first,,,,,,,,,,,,,,,,,,,,,,,,,,,,,,,,,,,,,,,,,,,,,,,,,,,,,,,,,,,,,,,,,,,
,,,,,,60d4477467e235cde30140a9,62bbfaf8d49be600f97778d6,2022-06-29_09h11.57.790,Colour_Asymmetry_Pilot,2022.1.3,Win32,60.03842459,62bbe60bf3d75ef465d3e404,,,,,,,,,,,,,,,,,,,,onethree,,-4,0.3338,,,,,,,,,,,,,,,,,,,,,,,,,,,,,,,,,,"[0.7018,0.7802,-0.16079999999999994]","[-0.26280000000000003,-0.4746,-0.2158]",-46,78,1,0,0,response7disk,-6,0,1,0,0,rectangle,-6,0,1,0,0,,3,0.002,0,-6,0,1,0,0,0,16,16,49,1,49,first,,,,,,,,,,,,,,,,,,,,,,,,,,,,,,,,,,,,,,,,,,,,,,,,,,,,,,,,,,,,,,,,,,,
,,,,,,60d4477467e235cde30140a9,62bbfaf8d49be600f97778d6,2022-06-29_09h11.57.790,Colour_Asymmetry_Pilot,2022.1.3,Win32,60.03842459,62bbe60bf3d75ef465d3e404,,,,,,,,,,,,,,,,,,,,fourtwo,,-4,0.3666,,,,,,,,,,,,,,,,,,,,,,,,,,,,,,,,,,"[0.9686000000000001,0.5763999999999998,0.11359999999999992]","[-0.10599999999999998,-0.10599999999999998,0.5841999999999998]",-38,81,1,0,0,response7disk,-5,-3,1,0,0,rectangle,-5,-3,1,0,0,,3,0.0008,0,-5,-3,1,0,0,0,17,17,121,1,40,second,,,,,,,,,,,,,,,,,,,,,,,,,,,,,,,,,,,,,,,,,,,,,,,,,,,,,,,,,,,,,,,,,,,
,,,,,,60d4477467e235cde30140a9,62bbfaf8d49be600f97778d6,2022-06-29_09h11.57.790,Colour_Asymmetry_Pilot,2022.1.3,Win32,60.03842459,62bbe60bf3d75ef465d3e404,,,,,,,,,,,,,,,,,,,,fourthree,,-4,0.5332,,,,,,,,,,,,,,,,,,,,,,,,,,,,,,,,,,"[0.30180000000000007,-0.7884,-0.9844]","[0.9842,0.7409999999999999,-0.6628000000000001]",-32,77,1,0,0,response7disk,-9,-6,1,0,0,rectangle,-9,-6,1,0,0,,2,0.0023,0,-9,-6,1,0,0,0,18,18,80,1,80,first,,,,,,,,,,,,,,,,,,,,,,,,,,,,,,,,,,,,,,,,,,,,,,,,,,,,,,,,,,,,,,,,,,,
,,,,,,60d4477467e235cde30140a9,62bbfaf8d49be600f97778d6,2022-06-29_09h11.57.790,Colour_Asymmetry_Pilot,2022.1.3,Win32,60.03842459,62bbe60bf3d75ef465d3e404,,,,,,,,,,,,,,,,,,,,twoone,,-4,0.3496,,,,,,,,,,,,,,,,,,,,,,,,,,,,,,,,,,"[-0.050999999999999934,-0.6706000000000001,-0.804]","[-0.9296,-0.12959999999999994,-0.043199999999999905]",-43,93,1,0,0,response7disk,-6,-5,1,0,0,rectangle,-6,-5,1,0,0,,2,0.0003,0,-6,-5,1,0,0,0,19,19,154,1,73,second,,,,,,,,,,,,,,,,,,,,,,,,,,,,,,,,,,,,,,,,,,,,,,,,,,,,,,,,,,,,,,,,,,,
,,,,,,60d4477467e235cde30140a9,62bbfaf8d49be600f97778d6,2022-06-29_09h11.57.790,Colour_Asymmetry_Pilot,2022.1.3,Win32,60.03842459,62bbe60bf3d75ef465d3e404,,,,,,,,,,,,,,,,,,,,twofour,,-4,0.3664,,,,,,,,,,,,,,,,,,,,,,,,,,,,,,,,,,"[0.22340000000000004,-0.9296,-0.7884]","[-0.4902000000000001,0.2704,-0.45899999999999996]",-54,82,1,0,0,response7disk,-13,3,1,0,0,rectangle,-13,3,1,0,0,,1,0.0018,0,-13,3,1,0,0,0,20,20,82,1,1,second,,,,,,,,,,,,,,,,,,,,,,,,,,,,,,,,,,,,,,,,,,,,,,,,,,,,,,,,,,,,,,,,,,,
