trials.thisRepN,trials.thisTrialN,trials.thisN,trials.thisIndex,trials.ran,Colourcodes,participant,session,date,expName,psychopyVersion,OS,frameRate,study_id,trials_4.thisRepN,trials_4.thisTrialN,trials_4.thisN,trials_4.thisIndex,trials_4.ran,StimulusPos,key_resp.keys,key_resp.rt,key_resp_2.keys,key_resp_2.rt,key_resp_15.keys,key_resp_15.rt,key_resp_17.keys,key_resp_17.rt,key_resp_9.keys,key_resp_9.rt,key_resp_10.keys,key_resp_10.rt,Circle1_col,Ecc,Circle2_col,similarity,response_time,mouse_5.x,mouse_5.y,mouse_5.leftButton,mouse_5.midButton,mouse_5.rightButton,mouse_5.clicked_name,mouse_10.x,mouse_10.y,mouse_10.leftButton,mouse_10.midButton,mouse_10.rightButton,mouse_10.clicked_name,mouse_7.x,mouse_7.y,mouse_7.leftButton,mouse_7.midButton,mouse_7.rightButton,catchnumberprac,mouse_6.x,mouse_6.y,mouse_6.leftButton,mouse_6.midButton,mouse_6.rightButton,duringprac.thisRepN,duringprac.thisTrialN,duringprac.thisN,duringprac.thisIndex,duringprac.ran,mouse_7.clicked_name,catchprac,mouse_6.clicked_name,key_resp_22.keys,key_resp_22.rt,Circle1_colour,Circle2_colour,mouse.x,mouse.y,mouse.leftButton,mouse.midButton,mouse.rightButton,mouse.clicked_name,mouse_2.x,mouse_2.y,mouse_2.leftButton,mouse_2.midButton,mouse_2.rightButton,mouse_2.clicked_name,mouse_3.x,mouse_3.y,mouse_3.leftButton,mouse_3.midButton,mouse_3.rightButton,catchresponse,catchnumber,response_time_catch,Catch,mouse_11.x,mouse_11.y,mouse_11.leftButton,mouse_11.midButton,mouse_11.rightButton,trials_2.thisRepN,trials_2.thisTrialN,trials_2.thisN,trials_2.thisIndex,trials_2.ran,Colourpair,Temporder,mouse_3.clicked_name,mouse_11.clicked_name,trials_3.thisRepN,trials_3.thisTrialN,trials_3.thisN,trials_3.thisIndex,trials_3.ran,key_resp_instr_Ishi.keys,key_resp_instr_Ishi.rt,Ishi_trial_keyresp.keys,Ishi_trial_keyresp.rt,Ishi_textbox.text,Ishi_loop.thisRepN,Ishi_loop.thisTrialN,Ishi_loop.thisN,Ishi_loop.thisIndex,Ishi_loop.ran,imageaddress,textbox.text,mouse_4.x,mouse_4.y,mouse_4.leftButton,mouse_4.midButton,mouse_4.rightButton,mouse_4.clicked_name,textbox_2.text,mouse_8.x,mouse_8.y,mouse_8.leftButton,mouse_8.midButton,mouse_8.rightButton,mouse_8.clicked_name,textbox_3.text,mouse_9.x,mouse_9.y,mouse_9.leftButton,mouse_9.midButton,mouse_9.rightButton,mouse_9.clicked_name,textbox_4.text,mouse_12.x,mouse_12.y,mouse_12.leftButton,mouse_12.midButton,mouse_12.rightButton,mouse_12.clicked_name,textbox_5.text,mouse_13.x,mouse_13.y,mouse_13.leftButton,mouse_13.midButton,mouse_13.rightButton,mouse_13.clicked_name,textbox_6.text,mouse_14.x,mouse_14.y,mouse_14.leftButton,mouse_14.midButton,mouse_14.rightButton,mouse_14.clicked_name,textbox_7.text,mouse_15.x,mouse_15.y,mouse_15.leftButton,mouse_15.midButton,mouse_15.rightButton,mouse_15.clicked_name
0,0,0,41,1,,5f338ba6ea047119dbd6e49e,62bbf9a95d8e00a17248ed1a,2022-06-29_09h05.46.616,Colour_Asymmetry_Pilot,2022.1.3,Win32,59.79788315,62bbe60bf3d75ef465d3e404,,,,,,,,,,,,,,,,,,,,,,,,,,,,,,,,,,,,,,,,,,,,,,,,,,,,,,,,,,,,,,,,,,,,,,,,,,,,,,,,,,,,,,,,,,,,,,,,,,,,,,,,,,,,,,,,,,,,,,,,,,,,,,,,,,,,,,,,,,,,,,,,,,,,,,,,,,,,,,
0,1,1,45,1,,5f338ba6ea047119dbd6e49e,62bbf9a95d8e00a17248ed1a,2022-06-29_09h05.46.616,Colour_Asymmetry_Pilot,2022.1.3,Win32,59.79788315,62bbe60bf3d75ef465d3e404,,,,,,,,,,,,,,,,,,,,,,,,,,,,,,,,,,,,,,,,,,,,,,,,,,,,,,,,,,,,,,,,,,,,,,,,,,,,,,,,,,,,,,,,,,,,,,,,,,,,,,,,,,,,,,,,,,,,,,,,,,,,,,,,,,,,,,,,,,,,,,,,,,,,,,,,,,,,,,
0,2,2,22,1,,5f338ba6ea047119dbd6e49e,62bbf9a95d8e00a17248ed1a,2022-06-29_09h05.46.616,Colour_Asymmetry_Pilot,2022.1.3,Win32,59.79788315,62bbe60bf3d75ef465d3e404,,,,,,,,,,,,,,,,,,,,,,,,,,,,,,,,,,,,,,,,,,,,,,,,,,,,,,,,,,,,,,,,,,,,,,,,,,,,,,,,,,,,,,,,,,,,,,,,,,,,,,,,,,,,,,,,,,,,,,,,,,,,,,,,,,,,,,,,,,,,,,,,,,,,,,,,,,,,,,
0,3,3,12,1,,5f338ba6ea047119dbd6e49e,62bbf9a95d8e00a17248ed1a,2022-06-29_09h05.46.616,Colour_Asymmetry_Pilot,2022.1.3,Win32,59.79788315,62bbe60bf3d75ef465d3e404,,,,,,,,,,,,,,,,,,,,,,,,,,,,,,,,,,,,,,,,,,,,,,,,,,,,,,,,,,,,,,,,,,,,,,,,,,,,,,,,,,,,,,,,,,,,,,,,,,,,,,,,,,,,,,,,,,,,,,,,,,,,,,,,,,,,,,,,,,,,,,,,,,,,,,,,,,,,,,
0,4,4,56,1,,5f338ba6ea047119dbd6e49e,62bbf9a95d8e00a17248ed1a,2022-06-29_09h05.46.616,Colour_Asymmetry_Pilot,2022.1.3,Win32,59.79788315,62bbe60bf3d75ef465d3e404,,,,,,,,,,,,,,,,,,,,,,,,,,,,,,,,,,,,,,,,,,,,,,,,,,,,,,,,,,,,,,,,,,,,,,,,,,,,,,,,,,,,,,,,,,,,,,,,,,,,,,,,,,,,,,,,,,,,,,,,,,,,,,,,,,,,,,,,,,,,,,,,,,,,,,,,,,,,,,
0,5,5,50,1,,5f338ba6ea047119dbd6e49e,62bbf9a95d8e00a17248ed1a,2022-06-29_09h05.46.616,Colour_Asymmetry_Pilot,2022.1.3,Win32,59.79788315,62bbe60bf3d75ef465d3e404,,,,,,,,,,,,,,,,,,,,,,,,,,,,,,,,,,,,,,,,,,,,,,,,,,,,,,,,,,,,,,,,,,,,,,,,,,,,,,,,,,,,,,,,,,,,,,,,,,,,,,,,,,,,,,,,,,,,,,,,,,,,,,,,,,,,,,,,,,,,,,,,,,,,,,,,,,,,,,
0,6,6,71,1,,5f338ba6ea047119dbd6e49e,62bbf9a95d8e00a17248ed1a,2022-06-29_09h05.46.616,Colour_Asymmetry_Pilot,2022.1.3,Win32,59.79788315,62bbe60bf3d75ef465d3e404,,,,,,,,,,,,,,,,,,,,,,,,,,,,,,,,,,,,,,,,,,,,,,,,,,,,,,,,,,,,,,,,,,,,,,,,,,,,,,,,,,,,,,,,,,,,,,,,,,,,,,,,,,,,,,,,,,,,,,,,,,,,,,,,,,,,,,,,,,,,,,,,,,,,,,,,,,,,,,
0,7,7,9,1,,5f338ba6ea047119dbd6e49e,62bbf9a95d8e00a17248ed1a,2022-06-29_09h05.46.616,Colour_Asymmetry_Pilot,2022.1.3,Win32,59.79788315,62bbe60bf3d75ef465d3e404,,,,,,,,,,,,,,,,,,,,,,,,,,,,,,,,,,,,,,,,,,,,,,,,,,,,,,,,,,,,,,,,,,,,,,,,,,,,,,,,,,,,,,,,,,,,,,,,,,,,,,,,,,,,,,,,,,,,,,,,,,,,,,,,,,,,,,,,,,,,,,,,,,,,,,,,,,,,,,
0,8,8,11,1,,5f338ba6ea047119dbd6e49e,62bbf9a95d8e00a17248ed1a,2022-06-29_09h05.46.616,Colour_Asymmetry_Pilot,2022.1.3,Win32,59.79788315,62bbe60bf3d75ef465d3e404,,,,,,,,,,,,,,,,,,,,,,,,,,,,,,,,,,,,,,,,,,,,,,,,,,,,,,,,,,,,,,,,,,,,,,,,,,,,,,,,,,,,,,,,,,,,,,,,,,,,,,,,,,,,,,,,,,,,,,,,,,,,,,,,,,,,,,,,,,,,,,,,,,,,,,,,,,,,,,
0,9,9,86,1,,5f338ba6ea047119dbd6e49e,62bbf9a95d8e00a17248ed1a,2022-06-29_09h05.46.616,Colour_Asymmetry_Pilot,2022.1.3,Win32,59.79788315,62bbe60bf3d75ef465d3e404,,,,,,,,,,,,,,,,,,,,,,,,,,,,,,,,,,,,,,,,,,,,,,,,,,,,,,,,,,,,,,,,,,,,,,,,,,,,,,,,,,,,,,,,,,,,,,,,,,,,,,,,,,,,,,,,,,,,,,,,,,,,,,,,,,,,,,,,,,,,,,,,,,,,,,,,,,,,,,
0,10,10,76,1,,5f338ba6ea047119dbd6e49e,62bbf9a95d8e00a17248ed1a,2022-06-29_09h05.46.616,Colour_Asymmetry_Pilot,2022.1.3,Win32,59.79788315,62bbe60bf3d75ef465d3e404,,,,,,,,,,,,,,,,,,,,,,,,,,,,,,,,,,,,,,,,,,,,,,,,,,,,,,,,,,,,,,,,,,,,,,,,,,,,,,,,,,,,,,,,,,,,,,,,,,,,,,,,,,,,,,,,,,,,,,,,,,,,,,,,,,,,,,,,,,,,,,,,,,,,,,,,,,,,,,
0,11,11,2,1,,5f338ba6ea047119dbd6e49e,62bbf9a95d8e00a17248ed1a,2022-06-29_09h05.46.616,Colour_Asymmetry_Pilot,2022.1.3,Win32,59.79788315,62bbe60bf3d75ef465d3e404,,,,,,,,,,,,,,,,,,,,,,,,,,,,,,,,,,,,,,,,,,,,,,,,,,,,,,,,,,,,,,,,,,,,,,,,,,,,,,,,,,,,,,,,,,,,,,,,,,,,,,,,,,,,,,,,,,,,,,,,,,,,,,,,,,,,,,,,,,,,,,,,,,,,,,,,,,,,,,
0,12,12,7,1,,5f338ba6ea047119dbd6e49e,62bbf9a95d8e00a17248ed1a,2022-06-29_09h05.46.616,Colour_Asymmetry_Pilot,2022.1.3,Win32,59.79788315,62bbe60bf3d75ef465d3e404,,,,,,,,,,,,,,,,,,,,,,,,,,,,,,,,,,,,,,,,,,,,,,,,,,,,,,,,,,,,,,,,,,,,,,,,,,,,,,,,,,,,,,,,,,,,,,,,,,,,,,,,,,,,,,,,,,,,,,,,,,,,,,,,,,,,,,,,,,,,,,,,,,,,,,,,,,,,,,
0,13,13,43,1,,5f338ba6ea047119dbd6e49e,62bbf9a95d8e00a17248ed1a,2022-06-29_09h05.46.616,Colour_Asymmetry_Pilot,2022.1.3,Win32,59.79788315,62bbe60bf3d75ef465d3e404,,,,,,,,,,,,,,,,,,,,,,,,,,,,,,,,,,,,,,,,,,,,,,,,,,,,,,,,,,,,,,,,,,,,,,,,,,,,,,,,,,,,,,,,,,,,,,,,,,,,,,,,,,,,,,,,,,,,,,,,,,,,,,,,,,,,,,,,,,,,,,,,,,,,,,,,,,,,,,
0,14,14,54,1,,5f338ba6ea047119dbd6e49e,62bbf9a95d8e00a17248ed1a,2022-06-29_09h05.46.616,Colour_Asymmetry_Pilot,2022.1.3,Win32,59.79788315,62bbe60bf3d75ef465d3e404,,,,,,,,,,,,,,,,,,,,,,,,,,,,,,,,,,,,,,,,,,,,,,,,,,,,,,,,,,,,,,,,,,,,,,,,,,,,,,,,,,,,,,,,,,,,,,,,,,,,,,,,,,,,,,,,,,,,,,,,,,,,,,,,,,,,,,,,,,,,,,,,,,,,,,,,,,,,,,
0,15,15,72,1,,5f338ba6ea047119dbd6e49e,62bbf9a95d8e00a17248ed1a,2022-06-29_09h05.46.616,Colour_Asymmetry_Pilot,2022.1.3,Win32,59.79788315,62bbe60bf3d75ef465d3e404,,,,,,,,,,,,,,,,,,,,,,,,,,,,,,,,,,,,,,,,,,,,,,,,,,,,,,,,,,,,,,,,,,,,,,,,,,,,,,,,,,,,,,,,,,,,,,,,,,,,,,,,,,,,,,,,,,,,,,,,,,,,,,,,,,,,,,,,,,,,,,,,,,,,,,,,,,,,,,
0,16,16,73,1,,5f338ba6ea047119dbd6e49e,62bbf9a95d8e00a17248ed1a,2022-06-29_09h05.46.616,Colour_Asymmetry_Pilot,2022.1.3,Win32,59.79788315,62bbe60bf3d75ef465d3e404,,,,,,,,,,,,,,,,,,,,,,,,,,,,,,,,,,,,,,,,,,,,,,,,,,,,,,,,,,,,,,,,,,,,,,,,,,,,,,,,,,,,,,,,,,,,,,,,,,,,,,,,,,,,,,,,,,,,,,,,,,,,,,,,,,,,,,,,,,,,,,,,,,,,,,,,,,,,,,
0,17,17,13,1,,5f338ba6ea047119dbd6e49e,62bbf9a95d8e00a17248ed1a,2022-06-29_09h05.46.616,Colour_Asymmetry_Pilot,2022.1.3,Win32,59.79788315,62bbe60bf3d75ef465d3e404,,,,,,,,,,,,,,,,,,,,,,,,,,,,,,,,,,,,,,,,,,,,,,,,,,,,,,,,,,,,,,,,,,,,,,,,,,,,,,,,,,,,,,,,,,,,,,,,,,,,,,,,,,,,,,,,,,,,,,,,,,,,,,,,,,,,,,,,,,,,,,,,,,,,,,,,,,,,,,
0,18,18,74,1,,5f338ba6ea047119dbd6e49e,62bbf9a95d8e00a17248ed1a,2022-06-29_09h05.46.616,Colour_Asymmetry_Pilot,2022.1.3,Win32,59.79788315,62bbe60bf3d75ef465d3e404,,,,,,,,,,,,,,,,,,,,,,,,,,,,,,,,,,,,,,,,,,,,,,,,,,,,,,,,,,,,,,,,,,,,,,,,,,,,,,,,,,,,,,,,,,,,,,,,,,,,,,,,,,,,,,,,,,,,,,,,,,,,,,,,,,,,,,,,,,,,,,,,,,,,,,,,,,,,,,
0,19,19,28,1,,5f338ba6ea047119dbd6e49e,62bbf9a95d8e00a17248ed1a,2022-06-29_09h05.46.616,Colour_Asymmetry_Pilot,2022.1.3,Win32,59.79788315,62bbe60bf3d75ef465d3e404,,,,,,,,,,,,,,,,,,,,,,,,,,,,,,,,,,,,,,,,,,,,,,,,,,,,,,,,,,,,,,,,,,,,,,,,,,,,,,,,,,,,,,,,,,,,,,,,,,,,,,,,,,,,,,,,,,,,,,,,,,,,,,,,,,,,,,,,,,,,,,,,,,,,,,,,,,,,,,
0,20,20,61,1,,5f338ba6ea047119dbd6e49e,62bbf9a95d8e00a17248ed1a,2022-06-29_09h05.46.616,Colour_Asymmetry_Pilot,2022.1.3,Win32,59.79788315,62bbe60bf3d75ef465d3e404,,,,,,,,,,,,,,,,,,,,,,,,,,,,,,,,,,,,,,,,,,,,,,,,,,,,,,,,,,,,,,,,,,,,,,,,,,,,,,,,,,,,,,,,,,,,,,,,,,,,,,,,,,,,,,,,,,,,,,,,,,,,,,,,,,,,,,,,,,,,,,,,,,,,,,,,,,,,,,
0,21,21,63,1,,5f338ba6ea047119dbd6e49e,62bbf9a95d8e00a17248ed1a,2022-06-29_09h05.46.616,Colour_Asymmetry_Pilot,2022.1.3,Win32,59.79788315,62bbe60bf3d75ef465d3e404,,,,,,,,,,,,,,,,,,,,,,,,,,,,,,,,,,,,,,,,,,,,,,,,,,,,,,,,,,,,,,,,,,,,,,,,,,,,,,,,,,,,,,,,,,,,,,,,,,,,,,,,,,,,,,,,,,,,,,,,,,,,,,,,,,,,,,,,,,,,,,,,,,,,,,,,,,,,,,
0,22,22,29,1,,5f338ba6ea047119dbd6e49e,62bbf9a95d8e00a17248ed1a,2022-06-29_09h05.46.616,Colour_Asymmetry_Pilot,2022.1.3,Win32,59.79788315,62bbe60bf3d75ef465d3e404,,,,,,,,,,,,,,,,,,,,,,,,,,,,,,,,,,,,,,,,,,,,,,,,,,,,,,,,,,,,,,,,,,,,,,,,,,,,,,,,,,,,,,,,,,,,,,,,,,,,,,,,,,,,,,,,,,,,,,,,,,,,,,,,,,,,,,,,,,,,,,,,,,,,,,,,,,,,,,
0,23,23,66,1,,5f338ba6ea047119dbd6e49e,62bbf9a95d8e00a17248ed1a,2022-06-29_09h05.46.616,Colour_Asymmetry_Pilot,2022.1.3,Win32,59.79788315,62bbe60bf3d75ef465d3e404,,,,,,,,,,,,,,,,,,,,,,,,,,,,,,,,,,,,,,,,,,,,,,,,,,,,,,,,,,,,,,,,,,,,,,,,,,,,,,,,,,,,,,,,,,,,,,,,,,,,,,,,,,,,,,,,,,,,,,,,,,,,,,,,,,,,,,,,,,,,,,,,,,,,,,,,,,,,,,
0,24,24,58,1,,5f338ba6ea047119dbd6e49e,62bbf9a95d8e00a17248ed1a,2022-06-29_09h05.46.616,Colour_Asymmetry_Pilot,2022.1.3,Win32,59.79788315,62bbe60bf3d75ef465d3e404,,,,,,,,,,,,,,,,,,,,,,,,,,,,,,,,,,,,,,,,,,,,,,,,,,,,,,,,,,,,,,,,,,,,,,,,,,,,,,,,,,,,,,,,,,,,,,,,,,,,,,,,,,,,,,,,,,,,,,,,,,,,,,,,,,,,,,,,,,,,,,,,,,,,,,,,,,,,,,
0,25,25,68,1,,5f338ba6ea047119dbd6e49e,62bbf9a95d8e00a17248ed1a,2022-06-29_09h05.46.616,Colour_Asymmetry_Pilot,2022.1.3,Win32,59.79788315,62bbe60bf3d75ef465d3e404,,,,,,,,,,,,,,,,,,,,,,,,,,,,,,,,,,,,,,,,,,,,,,,,,,,,,,,,,,,,,,,,,,,,,,,,,,,,,,,,,,,,,,,,,,,,,,,,,,,,,,,,,,,,,,,,,,,,,,,,,,,,,,,,,,,,,,,,,,,,,,,,,,,,,,,,,,,,,,
0,26,26,30,1,,5f338ba6ea047119dbd6e49e,62bbf9a95d8e00a17248ed1a,2022-06-29_09h05.46.616,Colour_Asymmetry_Pilot,2022.1.3,Win32,59.79788315,62bbe60bf3d75ef465d3e404,,,,,,,,,,,,,,,,,,,,,,,,,,,,,,,,,,,,,,,,,,,,,,,,,,,,,,,,,,,,,,,,,,,,,,,,,,,,,,,,,,,,,,,,,,,,,,,,,,,,,,,,,,,,,,,,,,,,,,,,,,,,,,,,,,,,,,,,,,,,,,,,,,,,,,,,,,,,,,
0,27,27,87,1,,5f338ba6ea047119dbd6e49e,62bbf9a95d8e00a17248ed1a,2022-06-29_09h05.46.616,Colour_Asymmetry_Pilot,2022.1.3,Win32,59.79788315,62bbe60bf3d75ef465d3e404,,,,,,,,,,,,,,,,,,,,,,,,,,,,,,,,,,,,,,,,,,,,,,,,,,,,,,,,,,,,,,,,,,,,,,,,,,,,,,,,,,,,,,,,,,,,,,,,,,,,,,,,,,,,,,,,,,,,,,,,,,,,,,,,,,,,,,,,,,,,,,,,,,,,,,,,,,,,,,
0,28,28,10,1,,5f338ba6ea047119dbd6e49e,62bbf9a95d8e00a17248ed1a,2022-06-29_09h05.46.616,Colour_Asymmetry_Pilot,2022.1.3,Win32,59.79788315,62bbe60bf3d75ef465d3e404,,,,,,,,,,,,,,,,,,,,,,,,,,,,,,,,,,,,,,,,,,,,,,,,,,,,,,,,,,,,,,,,,,,,,,,,,,,,,,,,,,,,,,,,,,,,,,,,,,,,,,,,,,,,,,,,,,,,,,,,,,,,,,,,,,,,,,,,,,,,,,,,,,,,,,,,,,,,,,
0,29,29,91,1,,5f338ba6ea047119dbd6e49e,62bbf9a95d8e00a17248ed1a,2022-06-29_09h05.46.616,Colour_Asymmetry_Pilot,2022.1.3,Win32,59.79788315,62bbe60bf3d75ef465d3e404,,,,,,,,,,,,,,,,,,,,,,,,,,,,,,,,,,,,,,,,,,,,,,,,,,,,,,,,,,,,,,,,,,,,,,,,,,,,,,,,,,,,,,,,,,,,,,,,,,,,,,,,,,,,,,,,,,,,,,,,,,,,,,,,,,,,,,,,,,,,,,,,,,,,,,,,,,,,,,
0,30,30,46,1,,5f338ba6ea047119dbd6e49e,62bbf9a95d8e00a17248ed1a,2022-06-29_09h05.46.616,Colour_Asymmetry_Pilot,2022.1.3,Win32,59.79788315,62bbe60bf3d75ef465d3e404,,,,,,,,,,,,,,,,,,,,,,,,,,,,,,,,,,,,,,,,,,,,,,,,,,,,,,,,,,,,,,,,,,,,,,,,,,,,,,,,,,,,,,,,,,,,,,,,,,,,,,,,,,,,,,,,,,,,,,,,,,,,,,,,,,,,,,,,,,,,,,,,,,,,,,,,,,,,,,
0,31,31,33,1,,5f338ba6ea047119dbd6e49e,62bbf9a95d8e00a17248ed1a,2022-06-29_09h05.46.616,Colour_Asymmetry_Pilot,2022.1.3,Win32,59.79788315,62bbe60bf3d75ef465d3e404,,,,,,,,,,,,,,,,,,,,,,,,,,,,,,,,,,,,,,,,,,,,,,,,,,,,,,,,,,,,,,,,,,,,,,,,,,,,,,,,,,,,,,,,,,,,,,,,,,,,,,,,,,,,,,,,,,,,,,,,,,,,,,,,,,,,,,,,,,,,,,,,,,,,,,,,,,,,,,
0,32,32,18,1,,5f338ba6ea047119dbd6e49e,62bbf9a95d8e00a17248ed1a,2022-06-29_09h05.46.616,Colour_Asymmetry_Pilot,2022.1.3,Win32,59.79788315,62bbe60bf3d75ef465d3e404,,,,,,,,,,,,,,,,,,,,,,,,,,,,,,,,,,,,,,,,,,,,,,,,,,,,,,,,,,,,,,,,,,,,,,,,,,,,,,,,,,,,,,,,,,,,,,,,,,,,,,,,,,,,,,,,,,,,,,,,,,,,,,,,,,,,,,,,,,,,,,,,,,,,,,,,,,,,,,
0,33,33,51,1,,5f338ba6ea047119dbd6e49e,62bbf9a95d8e00a17248ed1a,2022-06-29_09h05.46.616,Colour_Asymmetry_Pilot,2022.1.3,Win32,59.79788315,62bbe60bf3d75ef465d3e404,,,,,,,,,,,,,,,,,,,,,,,,,,,,,,,,,,,,,,,,,,,,,,,,,,,,,,,,,,,,,,,,,,,,,,,,,,,,,,,,,,,,,,,,,,,,,,,,,,,,,,,,,,,,,,,,,,,,,,,,,,,,,,,,,,,,,,,,,,,,,,,,,,,,,,,,,,,,,,
0,34,34,36,1,,5f338ba6ea047119dbd6e49e,62bbf9a95d8e00a17248ed1a,2022-06-29_09h05.46.616,Colour_Asymmetry_Pilot,2022.1.3,Win32,59.79788315,62bbe60bf3d75ef465d3e404,,,,,,,,,,,,,,,,,,,,,,,,,,,,,,,,,,,,,,,,,,,,,,,,,,,,,,,,,,,,,,,,,,,,,,,,,,,,,,,,,,,,,,,,,,,,,,,,,,,,,,,,,,,,,,,,,,,,,,,,,,,,,,,,,,,,,,,,,,,,,,,,,,,,,,,,,,,,,,
0,35,35,20,1,,5f338ba6ea047119dbd6e49e,62bbf9a95d8e00a17248ed1a,2022-06-29_09h05.46.616,Colour_Asymmetry_Pilot,2022.1.3,Win32,59.79788315,62bbe60bf3d75ef465d3e404,,,,,,,,,,,,,,,,,,,,,,,,,,,,,,,,,,,,,,,,,,,,,,,,,,,,,,,,,,,,,,,,,,,,,,,,,,,,,,,,,,,,,,,,,,,,,,,,,,,,,,,,,,,,,,,,,,,,,,,,,,,,,,,,,,,,,,,,,,,,,,,,,,,,,,,,,,,,,,
0,36,36,78,1,,5f338ba6ea047119dbd6e49e,62bbf9a95d8e00a17248ed1a,2022-06-29_09h05.46.616,Colour_Asymmetry_Pilot,2022.1.3,Win32,59.79788315,62bbe60bf3d75ef465d3e404,,,,,,,,,,,,,,,,,,,,,,,,,,,,,,,,,,,,,,,,,,,,,,,,,,,,,,,,,,,,,,,,,,,,,,,,,,,,,,,,,,,,,,,,,,,,,,,,,,,,,,,,,,,,,,,,,,,,,,,,,,,,,,,,,,,,,,,,,,,,,,,,,,,,,,,,,,,,,,
0,37,37,47,1,,5f338ba6ea047119dbd6e49e,62bbf9a95d8e00a17248ed1a,2022-06-29_09h05.46.616,Colour_Asymmetry_Pilot,2022.1.3,Win32,59.79788315,62bbe60bf3d75ef465d3e404,,,,,,,,,,,,,,,,,,,,,,,,,,,,,,,,,,,,,,,,,,,,,,,,,,,,,,,,,,,,,,,,,,,,,,,,,,,,,,,,,,,,,,,,,,,,,,,,,,,,,,,,,,,,,,,,,,,,,,,,,,,,,,,,,,,,,,,,,,,,,,,,,,,,,,,,,,,,,,
0,38,38,19,1,,5f338ba6ea047119dbd6e49e,62bbf9a95d8e00a17248ed1a,2022-06-29_09h05.46.616,Colour_Asymmetry_Pilot,2022.1.3,Win32,59.79788315,62bbe60bf3d75ef465d3e404,,,,,,,,,,,,,,,,,,,,,,,,,,,,,,,,,,,,,,,,,,,,,,,,,,,,,,,,,,,,,,,,,,,,,,,,,,,,,,,,,,,,,,,,,,,,,,,,,,,,,,,,,,,,,,,,,,,,,,,,,,,,,,,,,,,,,,,,,,,,,,,,,,,,,,,,,,,,,,
0,39,39,59,1,,5f338ba6ea047119dbd6e49e,62bbf9a95d8e00a17248ed1a,2022-06-29_09h05.46.616,Colour_Asymmetry_Pilot,2022.1.3,Win32,59.79788315,62bbe60bf3d75ef465d3e404,,,,,,,,,,,,,,,,,,,,,,,,,,,,,,,,,,,,,,,,,,,,,,,,,,,,,,,,,,,,,,,,,,,,,,,,,,,,,,,,,,,,,,,,,,,,,,,,,,,,,,,,,,,,,,,,,,,,,,,,,,,,,,,,,,,,,,,,,,,,,,,,,,,,,,,,,,,,,,
0,40,40,38,1,,5f338ba6ea047119dbd6e49e,62bbf9a95d8e00a17248ed1a,2022-06-29_09h05.46.616,Colour_Asymmetry_Pilot,2022.1.3,Win32,59.79788315,62bbe60bf3d75ef465d3e404,,,,,,,,,,,,,,,,,,,,,,,,,,,,,,,,,,,,,,,,,,,,,,,,,,,,,,,,,,,,,,,,,,,,,,,,,,,,,,,,,,,,,,,,,,,,,,,,,,,,,,,,,,,,,,,,,,,,,,,,,,,,,,,,,,,,,,,,,,,,,,,,,,,,,,,,,,,,,,
0,41,41,14,1,,5f338ba6ea047119dbd6e49e,62bbf9a95d8e00a17248ed1a,2022-06-29_09h05.46.616,Colour_Asymmetry_Pilot,2022.1.3,Win32,59.79788315,62bbe60bf3d75ef465d3e404,,,,,,,,,,,,,,,,,,,,,,,,,,,,,,,,,,,,,,,,,,,,,,,,,,,,,,,,,,,,,,,,,,,,,,,,,,,,,,,,,,,,,,,,,,,,,,,,,,,,,,,,,,,,,,,,,,,,,,,,,,,,,,,,,,,,,,,,,,,,,,,,,,,,,,,,,,,,,,
0,42,42,32,1,,5f338ba6ea047119dbd6e49e,62bbf9a95d8e00a17248ed1a,2022-06-29_09h05.46.616,Colour_Asymmetry_Pilot,2022.1.3,Win32,59.79788315,62bbe60bf3d75ef465d3e404,,,,,,,,,,,,,,,,,,,,,,,,,,,,,,,,,,,,,,,,,,,,,,,,,,,,,,,,,,,,,,,,,,,,,,,,,,,,,,,,,,,,,,,,,,,,,,,,,,,,,,,,,,,,,,,,,,,,,,,,,,,,,,,,,,,,,,,,,,,,,,,,,,,,,,,,,,,,,,
0,43,43,0,1,,5f338ba6ea047119dbd6e49e,62bbf9a95d8e00a17248ed1a,2022-06-29_09h05.46.616,Colour_Asymmetry_Pilot,2022.1.3,Win32,59.79788315,62bbe60bf3d75ef465d3e404,,,,,,,,,,,,,,,,,,,,,,,,,,,,,,,,,,,,,,,,,,,,,,,,,,,,,,,,,,,,,,,,,,,,,,,,,,,,,,,,,,,,,,,,,,,,,,,,,,,,,,,,,,,,,,,,,,,,,,,,,,,,,,,,,,,,,,,,,,,,,,,,,,,,,,,,,,,,,,
0,44,44,57,1,,5f338ba6ea047119dbd6e49e,62bbf9a95d8e00a17248ed1a,2022-06-29_09h05.46.616,Colour_Asymmetry_Pilot,2022.1.3,Win32,59.79788315,62bbe60bf3d75ef465d3e404,,,,,,,,,,,,,,,,,,,,,,,,,,,,,,,,,,,,,,,,,,,,,,,,,,,,,,,,,,,,,,,,,,,,,,,,,,,,,,,,,,,,,,,,,,,,,,,,,,,,,,,,,,,,,,,,,,,,,,,,,,,,,,,,,,,,,,,,,,,,,,,,,,,,,,,,,,,,,,
0,45,45,80,1,,5f338ba6ea047119dbd6e49e,62bbf9a95d8e00a17248ed1a,2022-06-29_09h05.46.616,Colour_Asymmetry_Pilot,2022.1.3,Win32,59.79788315,62bbe60bf3d75ef465d3e404,,,,,,,,,,,,,,,,,,,,,,,,,,,,,,,,,,,,,,,,,,,,,,,,,,,,,,,,,,,,,,,,,,,,,,,,,,,,,,,,,,,,,,,,,,,,,,,,,,,,,,,,,,,,,,,,,,,,,,,,,,,,,,,,,,,,,,,,,,,,,,,,,,,,,,,,,,,,,,
0,46,46,77,1,,5f338ba6ea047119dbd6e49e,62bbf9a95d8e00a17248ed1a,2022-06-29_09h05.46.616,Colour_Asymmetry_Pilot,2022.1.3,Win32,59.79788315,62bbe60bf3d75ef465d3e404,,,,,,,,,,,,,,,,,,,,,,,,,,,,,,,,,,,,,,,,,,,,,,,,,,,,,,,,,,,,,,,,,,,,,,,,,,,,,,,,,,,,,,,,,,,,,,,,,,,,,,,,,,,,,,,,,,,,,,,,,,,,,,,,,,,,,,,,,,,,,,,,,,,,,,,,,,,,,,
0,47,47,92,1,,5f338ba6ea047119dbd6e49e,62bbf9a95d8e00a17248ed1a,2022-06-29_09h05.46.616,Colour_Asymmetry_Pilot,2022.1.3,Win32,59.79788315,62bbe60bf3d75ef465d3e404,,,,,,,,,,,,,,,,,,,,,,,,,,,,,,,,,,,,,,,,,,,,,,,,,,,,,,,,,,,,,,,,,,,,,,,,,,,,,,,,,,,,,,,,,,,,,,,,,,,,,,,,,,,,,,,,,,,,,,,,,,,,,,,,,,,,,,,,,,,,,,,,,,,,,,,,,,,,,,
0,48,48,27,1,,5f338ba6ea047119dbd6e49e,62bbf9a95d8e00a17248ed1a,2022-06-29_09h05.46.616,Colour_Asymmetry_Pilot,2022.1.3,Win32,59.79788315,62bbe60bf3d75ef465d3e404,,,,,,,,,,,,,,,,,,,,,,,,,,,,,,,,,,,,,,,,,,,,,,,,,,,,,,,,,,,,,,,,,,,,,,,,,,,,,,,,,,,,,,,,,,,,,,,,,,,,,,,,,,,,,,,,,,,,,,,,,,,,,,,,,,,,,,,,,,,,,,,,,,,,,,,,,,,,,,
0,49,49,48,1,,5f338ba6ea047119dbd6e49e,62bbf9a95d8e00a17248ed1a,2022-06-29_09h05.46.616,Colour_Asymmetry_Pilot,2022.1.3,Win32,59.79788315,62bbe60bf3d75ef465d3e404,,,,,,,,,,,,,,,,,,,,,,,,,,,,,,,,,,,,,,,,,,,,,,,,,,,,,,,,,,,,,,,,,,,,,,,,,,,,,,,,,,,,,,,,,,,,,,,,,,,,,,,,,,,,,,,,,,,,,,,,,,,,,,,,,,,,,,,,,,,,,,,,,,,,,,,,,,,,,,
0,50,50,83,1,,5f338ba6ea047119dbd6e49e,62bbf9a95d8e00a17248ed1a,2022-06-29_09h05.46.616,Colour_Asymmetry_Pilot,2022.1.3,Win32,59.79788315,62bbe60bf3d75ef465d3e404,,,,,,,,,,,,,,,,,,,,,,,,,,,,,,,,,,,,,,,,,,,,,,,,,,,,,,,,,,,,,,,,,,,,,,,,,,,,,,,,,,,,,,,,,,,,,,,,,,,,,,,,,,,,,,,,,,,,,,,,,,,,,,,,,,,,,,,,,,,,,,,,,,,,,,,,,,,,,,
0,51,51,79,1,,5f338ba6ea047119dbd6e49e,62bbf9a95d8e00a17248ed1a,2022-06-29_09h05.46.616,Colour_Asymmetry_Pilot,2022.1.3,Win32,59.79788315,62bbe60bf3d75ef465d3e404,,,,,,,,,,,,,,,,,,,,,,,,,,,,,,,,,,,,,,,,,,,,,,,,,,,,,,,,,,,,,,,,,,,,,,,,,,,,,,,,,,,,,,,,,,,,,,,,,,,,,,,,,,,,,,,,,,,,,,,,,,,,,,,,,,,,,,,,,,,,,,,,,,,,,,,,,,,,,,
0,52,52,55,1,,5f338ba6ea047119dbd6e49e,62bbf9a95d8e00a17248ed1a,2022-06-29_09h05.46.616,Colour_Asymmetry_Pilot,2022.1.3,Win32,59.79788315,62bbe60bf3d75ef465d3e404,,,,,,,,,,,,,,,,,,,,,,,,,,,,,,,,,,,,,,,,,,,,,,,,,,,,,,,,,,,,,,,,,,,,,,,,,,,,,,,,,,,,,,,,,,,,,,,,,,,,,,,,,,,,,,,,,,,,,,,,,,,,,,,,,,,,,,,,,,,,,,,,,,,,,,,,,,,,,,
0,53,53,17,1,,5f338ba6ea047119dbd6e49e,62bbf9a95d8e00a17248ed1a,2022-06-29_09h05.46.616,Colour_Asymmetry_Pilot,2022.1.3,Win32,59.79788315,62bbe60bf3d75ef465d3e404,,,,,,,,,,,,,,,,,,,,,,,,,,,,,,,,,,,,,,,,,,,,,,,,,,,,,,,,,,,,,,,,,,,,,,,,,,,,,,,,,,,,,,,,,,,,,,,,,,,,,,,,,,,,,,,,,,,,,,,,,,,,,,,,,,,,,,,,,,,,,,,,,,,,,,,,,,,,,,
0,54,54,81,1,,5f338ba6ea047119dbd6e49e,62bbf9a95d8e00a17248ed1a,2022-06-29_09h05.46.616,Colour_Asymmetry_Pilot,2022.1.3,Win32,59.79788315,62bbe60bf3d75ef465d3e404,,,,,,,,,,,,,,,,,,,,,,,,,,,,,,,,,,,,,,,,,,,,,,,,,,,,,,,,,,,,,,,,,,,,,,,,,,,,,,,,,,,,,,,,,,,,,,,,,,,,,,,,,,,,,,,,,,,,,,,,,,,,,,,,,,,,,,,,,,,,,,,,,,,,,,,,,,,,,,
0,55,55,23,1,,5f338ba6ea047119dbd6e49e,62bbf9a95d8e00a17248ed1a,2022-06-29_09h05.46.616,Colour_Asymmetry_Pilot,2022.1.3,Win32,59.79788315,62bbe60bf3d75ef465d3e404,,,,,,,,,,,,,,,,,,,,,,,,,,,,,,,,,,,,,,,,,,,,,,,,,,,,,,,,,,,,,,,,,,,,,,,,,,,,,,,,,,,,,,,,,,,,,,,,,,,,,,,,,,,,,,,,,,,,,,,,,,,,,,,,,,,,,,,,,,,,,,,,,,,,,,,,,,,,,,
0,56,56,5,1,,5f338ba6ea047119dbd6e49e,62bbf9a95d8e00a17248ed1a,2022-06-29_09h05.46.616,Colour_Asymmetry_Pilot,2022.1.3,Win32,59.79788315,62bbe60bf3d75ef465d3e404,,,,,,,,,,,,,,,,,,,,,,,,,,,,,,,,,,,,,,,,,,,,,,,,,,,,,,,,,,,,,,,,,,,,,,,,,,,,,,,,,,,,,,,,,,,,,,,,,,,,,,,,,,,,,,,,,,,,,,,,,,,,,,,,,,,,,,,,,,,,,,,,,,,,,,,,,,,,,,
0,57,57,35,1,,5f338ba6ea047119dbd6e49e,62bbf9a95d8e00a17248ed1a,2022-06-29_09h05.46.616,Colour_Asymmetry_Pilot,2022.1.3,Win32,59.79788315,62bbe60bf3d75ef465d3e404,,,,,,,,,,,,,,,,,,,,,,,,,,,,,,,,,,,,,,,,,,,,,,,,,,,,,,,,,,,,,,,,,,,,,,,,,,,,,,,,,,,,,,,,,,,,,,,,,,,,,,,,,,,,,,,,,,,,,,,,,,,,,,,,,,,,,,,,,,,,,,,,,,,,,,,,,,,,,,
0,58,58,67,1,,5f338ba6ea047119dbd6e49e,62bbf9a95d8e00a17248ed1a,2022-06-29_09h05.46.616,Colour_Asymmetry_Pilot,2022.1.3,Win32,59.79788315,62bbe60bf3d75ef465d3e404,,,,,,,,,,,,,,,,,,,,,,,,,,,,,,,,,,,,,,,,,,,,,,,,,,,,,,,,,,,,,,,,,,,,,,,,,,,,,,,,,,,,,,,,,,,,,,,,,,,,,,,,,,,,,,,,,,,,,,,,,,,,,,,,,,,,,,,,,,,,,,,,,,,,,,,,,,,,,,
0,59,59,75,1,,5f338ba6ea047119dbd6e49e,62bbf9a95d8e00a17248ed1a,2022-06-29_09h05.46.616,Colour_Asymmetry_Pilot,2022.1.3,Win32,59.79788315,62bbe60bf3d75ef465d3e404,,,,,,,,,,,,,,,,,,,,,,,,,,,,,,,,,,,,,,,,,,,,,,,,,,,,,,,,,,,,,,,,,,,,,,,,,,,,,,,,,,,,,,,,,,,,,,,,,,,,,,,,,,,,,,,,,,,,,,,,,,,,,,,,,,,,,,,,,,,,,,,,,,,,,,,,,,,,,,
0,60,60,88,1,,5f338ba6ea047119dbd6e49e,62bbf9a95d8e00a17248ed1a,2022-06-29_09h05.46.616,Colour_Asymmetry_Pilot,2022.1.3,Win32,59.79788315,62bbe60bf3d75ef465d3e404,,,,,,,,,,,,,,,,,,,,,,,,,,,,,,,,,,,,,,,,,,,,,,,,,,,,,,,,,,,,,,,,,,,,,,,,,,,,,,,,,,,,,,,,,,,,,,,,,,,,,,,,,,,,,,,,,,,,,,,,,,,,,,,,,,,,,,,,,,,,,,,,,,,,,,,,,,,,,,
0,61,61,64,1,,5f338ba6ea047119dbd6e49e,62bbf9a95d8e00a17248ed1a,2022-06-29_09h05.46.616,Colour_Asymmetry_Pilot,2022.1.3,Win32,59.79788315,62bbe60bf3d75ef465d3e404,,,,,,,,,,,,,,,,,,,,,,,,,,,,,,,,,,,,,,,,,,,,,,,,,,,,,,,,,,,,,,,,,,,,,,,,,,,,,,,,,,,,,,,,,,,,,,,,,,,,,,,,,,,,,,,,,,,,,,,,,,,,,,,,,,,,,,,,,,,,,,,,,,,,,,,,,,,,,,
0,62,62,25,1,,5f338ba6ea047119dbd6e49e,62bbf9a95d8e00a17248ed1a,2022-06-29_09h05.46.616,Colour_Asymmetry_Pilot,2022.1.3,Win32,59.79788315,62bbe60bf3d75ef465d3e404,,,,,,,,,,,,,,,,,,,,,,,,,,,,,,,,,,,,,,,,,,,,,,,,,,,,,,,,,,,,,,,,,,,,,,,,,,,,,,,,,,,,,,,,,,,,,,,,,,,,,,,,,,,,,,,,,,,,,,,,,,,,,,,,,,,,,,,,,,,,,,,,,,,,,,,,,,,,,,
0,63,63,89,1,,5f338ba6ea047119dbd6e49e,62bbf9a95d8e00a17248ed1a,2022-06-29_09h05.46.616,Colour_Asymmetry_Pilot,2022.1.3,Win32,59.79788315,62bbe60bf3d75ef465d3e404,,,,,,,,,,,,,,,,,,,,,,,,,,,,,,,,,,,,,,,,,,,,,,,,,,,,,,,,,,,,,,,,,,,,,,,,,,,,,,,,,,,,,,,,,,,,,,,,,,,,,,,,,,,,,,,,,,,,,,,,,,,,,,,,,,,,,,,,,,,,,,,,,,,,,,,,,,,,,,
0,64,64,40,1,,5f338ba6ea047119dbd6e49e,62bbf9a95d8e00a17248ed1a,2022-06-29_09h05.46.616,Colour_Asymmetry_Pilot,2022.1.3,Win32,59.79788315,62bbe60bf3d75ef465d3e404,,,,,,,,,,,,,,,,,,,,,,,,,,,,,,,,,,,,,,,,,,,,,,,,,,,,,,,,,,,,,,,,,,,,,,,,,,,,,,,,,,,,,,,,,,,,,,,,,,,,,,,,,,,,,,,,,,,,,,,,,,,,,,,,,,,,,,,,,,,,,,,,,,,,,,,,,,,,,,
0,65,65,49,1,,5f338ba6ea047119dbd6e49e,62bbf9a95d8e00a17248ed1a,2022-06-29_09h05.46.616,Colour_Asymmetry_Pilot,2022.1.3,Win32,59.79788315,62bbe60bf3d75ef465d3e404,,,,,,,,,,,,,,,,,,,,,,,,,,,,,,,,,,,,,,,,,,,,,,,,,,,,,,,,,,,,,,,,,,,,,,,,,,,,,,,,,,,,,,,,,,,,,,,,,,,,,,,,,,,,,,,,,,,,,,,,,,,,,,,,,,,,,,,,,,,,,,,,,,,,,,,,,,,,,,
0,66,66,42,1,,5f338ba6ea047119dbd6e49e,62bbf9a95d8e00a17248ed1a,2022-06-29_09h05.46.616,Colour_Asymmetry_Pilot,2022.1.3,Win32,59.79788315,62bbe60bf3d75ef465d3e404,,,,,,,,,,,,,,,,,,,,,,,,,,,,,,,,,,,,,,,,,,,,,,,,,,,,,,,,,,,,,,,,,,,,,,,,,,,,,,,,,,,,,,,,,,,,,,,,,,,,,,,,,,,,,,,,,,,,,,,,,,,,,,,,,,,,,,,,,,,,,,,,,,,,,,,,,,,,,,
0,67,67,8,1,,5f338ba6ea047119dbd6e49e,62bbf9a95d8e00a17248ed1a,2022-06-29_09h05.46.616,Colour_Asymmetry_Pilot,2022.1.3,Win32,59.79788315,62bbe60bf3d75ef465d3e404,,,,,,,,,,,,,,,,,,,,,,,,,,,,,,,,,,,,,,,,,,,,,,,,,,,,,,,,,,,,,,,,,,,,,,,,,,,,,,,,,,,,,,,,,,,,,,,,,,,,,,,,,,,,,,,,,,,,,,,,,,,,,,,,,,,,,,,,,,,,,,,,,,,,,,,,,,,,,,
0,68,68,21,1,,5f338ba6ea047119dbd6e49e,62bbf9a95d8e00a17248ed1a,2022-06-29_09h05.46.616,Colour_Asymmetry_Pilot,2022.1.3,Win32,59.79788315,62bbe60bf3d75ef465d3e404,,,,,,,,,,,,,,,,,,,,,,,,,,,,,,,,,,,,,,,,,,,,,,,,,,,,,,,,,,,,,,,,,,,,,,,,,,,,,,,,,,,,,,,,,,,,,,,,,,,,,,,,,,,,,,,,,,,,,,,,,,,,,,,,,,,,,,,,,,,,,,,,,,,,,,,,,,,,,,
0,69,69,85,1,,5f338ba6ea047119dbd6e49e,62bbf9a95d8e00a17248ed1a,2022-06-29_09h05.46.616,Colour_Asymmetry_Pilot,2022.1.3,Win32,59.79788315,62bbe60bf3d75ef465d3e404,,,,,,,,,,,,,,,,,,,,,,,,,,,,,,,,,,,,,,,,,,,,,,,,,,,,,,,,,,,,,,,,,,,,,,,,,,,,,,,,,,,,,,,,,,,,,,,,,,,,,,,,,,,,,,,,,,,,,,,,,,,,,,,,,,,,,,,,,,,,,,,,,,,,,,,,,,,,,,
0,70,70,6,1,,5f338ba6ea047119dbd6e49e,62bbf9a95d8e00a17248ed1a,2022-06-29_09h05.46.616,Colour_Asymmetry_Pilot,2022.1.3,Win32,59.79788315,62bbe60bf3d75ef465d3e404,,,,,,,,,,,,,,,,,,,,,,,,,,,,,,,,,,,,,,,,,,,,,,,,,,,,,,,,,,,,,,,,,,,,,,,,,,,,,,,,,,,,,,,,,,,,,,,,,,,,,,,,,,,,,,,,,,,,,,,,,,,,,,,,,,,,,,,,,,,,,,,,,,,,,,,,,,,,,,
0,71,71,90,1,,5f338ba6ea047119dbd6e49e,62bbf9a95d8e00a17248ed1a,2022-06-29_09h05.46.616,Colour_Asymmetry_Pilot,2022.1.3,Win32,59.79788315,62bbe60bf3d75ef465d3e404,,,,,,,,,,,,,,,,,,,,,,,,,,,,,,,,,,,,,,,,,,,,,,,,,,,,,,,,,,,,,,,,,,,,,,,,,,,,,,,,,,,,,,,,,,,,,,,,,,,,,,,,,,,,,,,,,,,,,,,,,,,,,,,,,,,,,,,,,,,,,,,,,,,,,,,,,,,,,,
0,72,72,60,1,,5f338ba6ea047119dbd6e49e,62bbf9a95d8e00a17248ed1a,2022-06-29_09h05.46.616,Colour_Asymmetry_Pilot,2022.1.3,Win32,59.79788315,62bbe60bf3d75ef465d3e404,,,,,,,,,,,,,,,,,,,,,,,,,,,,,,,,,,,,,,,,,,,,,,,,,,,,,,,,,,,,,,,,,,,,,,,,,,,,,,,,,,,,,,,,,,,,,,,,,,,,,,,,,,,,,,,,,,,,,,,,,,,,,,,,,,,,,,,,,,,,,,,,,,,,,,,,,,,,,,
0,73,73,4,1,,5f338ba6ea047119dbd6e49e,62bbf9a95d8e00a17248ed1a,2022-06-29_09h05.46.616,Colour_Asymmetry_Pilot,2022.1.3,Win32,59.79788315,62bbe60bf3d75ef465d3e404,,,,,,,,,,,,,,,,,,,,,,,,,,,,,,,,,,,,,,,,,,,,,,,,,,,,,,,,,,,,,,,,,,,,,,,,,,,,,,,,,,,,,,,,,,,,,,,,,,,,,,,,,,,,,,,,,,,,,,,,,,,,,,,,,,,,,,,,,,,,,,,,,,,,,,,,,,,,,,
0,74,74,3,1,,5f338ba6ea047119dbd6e49e,62bbf9a95d8e00a17248ed1a,2022-06-29_09h05.46.616,Colour_Asymmetry_Pilot,2022.1.3,Win32,59.79788315,62bbe60bf3d75ef465d3e404,,,,,,,,,,,,,,,,,,,,,,,,,,,,,,,,,,,,,,,,,,,,,,,,,,,,,,,,,,,,,,,,,,,,,,,,,,,,,,,,,,,,,,,,,,,,,,,,,,,,,,,,,,,,,,,,,,,,,,,,,,,,,,,,,,,,,,,,,,,,,,,,,,,,,,,,,,,,,,
0,75,75,34,1,,5f338ba6ea047119dbd6e49e,62bbf9a95d8e00a17248ed1a,2022-06-29_09h05.46.616,Colour_Asymmetry_Pilot,2022.1.3,Win32,59.79788315,62bbe60bf3d75ef465d3e404,,,,,,,,,,,,,,,,,,,,,,,,,,,,,,,,,,,,,,,,,,,,,,,,,,,,,,,,,,,,,,,,,,,,,,,,,,,,,,,,,,,,,,,,,,,,,,,,,,,,,,,,,,,,,,,,,,,,,,,,,,,,,,,,,,,,,,,,,,,,,,,,,,,,,,,,,,,,,,
0,76,76,39,1,,5f338ba6ea047119dbd6e49e,62bbf9a95d8e00a17248ed1a,2022-06-29_09h05.46.616,Colour_Asymmetry_Pilot,2022.1.3,Win32,59.79788315,62bbe60bf3d75ef465d3e404,,,,,,,,,,,,,,,,,,,,,,,,,,,,,,,,,,,,,,,,,,,,,,,,,,,,,,,,,,,,,,,,,,,,,,,,,,,,,,,,,,,,,,,,,,,,,,,,,,,,,,,,,,,,,,,,,,,,,,,,,,,,,,,,,,,,,,,,,,,,,,,,,,,,,,,,,,,,,,
0,77,77,69,1,,5f338ba6ea047119dbd6e49e,62bbf9a95d8e00a17248ed1a,2022-06-29_09h05.46.616,Colour_Asymmetry_Pilot,2022.1.3,Win32,59.79788315,62bbe60bf3d75ef465d3e404,,,,,,,,,,,,,,,,,,,,,,,,,,,,,,,,,,,,,,,,,,,,,,,,,,,,,,,,,,,,,,,,,,,,,,,,,,,,,,,,,,,,,,,,,,,,,,,,,,,,,,,,,,,,,,,,,,,,,,,,,,,,,,,,,,,,,,,,,,,,,,,,,,,,,,,,,,,,,,
0,78,78,82,1,,5f338ba6ea047119dbd6e49e,62bbf9a95d8e00a17248ed1a,2022-06-29_09h05.46.616,Colour_Asymmetry_Pilot,2022.1.3,Win32,59.79788315,62bbe60bf3d75ef465d3e404,,,,,,,,,,,,,,,,,,,,,,,,,,,,,,,,,,,,,,,,,,,,,,,,,,,,,,,,,,,,,,,,,,,,,,,,,,,,,,,,,,,,,,,,,,,,,,,,,,,,,,,,,,,,,,,,,,,,,,,,,,,,,,,,,,,,,,,,,,,,,,,,,,,,,,,,,,,,,,
0,79,79,53,1,,5f338ba6ea047119dbd6e49e,62bbf9a95d8e00a17248ed1a,2022-06-29_09h05.46.616,Colour_Asymmetry_Pilot,2022.1.3,Win32,59.79788315,62bbe60bf3d75ef465d3e404,,,,,,,,,,,,,,,,,,,,,,,,,,,,,,,,,,,,,,,,,,,,,,,,,,,,,,,,,,,,,,,,,,,,,,,,,,,,,,,,,,,,,,,,,,,,,,,,,,,,,,,,,,,,,,,,,,,,,,,,,,,,,,,,,,,,,,,,,,,,,,,,,,,,,,,,,,,,,,
0,80,80,52,1,,5f338ba6ea047119dbd6e49e,62bbf9a95d8e00a17248ed1a,2022-06-29_09h05.46.616,Colour_Asymmetry_Pilot,2022.1.3,Win32,59.79788315,62bbe60bf3d75ef465d3e404,,,,,,,,,,,,,,,,,,,,,,,,,,,,,,,,,,,,,,,,,,,,,,,,,,,,,,,,,,,,,,,,,,,,,,,,,,,,,,,,,,,,,,,,,,,,,,,,,,,,,,,,,,,,,,,,,,,,,,,,,,,,,,,,,,,,,,,,,,,,,,,,,,,,,,,,,,,,,,
0,81,81,70,1,,5f338ba6ea047119dbd6e49e,62bbf9a95d8e00a17248ed1a,2022-06-29_09h05.46.616,Colour_Asymmetry_Pilot,2022.1.3,Win32,59.79788315,62bbe60bf3d75ef465d3e404,,,,,,,,,,,,,,,,,,,,,,,,,,,,,,,,,,,,,,,,,,,,,,,,,,,,,,,,,,,,,,,,,,,,,,,,,,,,,,,,,,,,,,,,,,,,,,,,,,,,,,,,,,,,,,,,,,,,,,,,,,,,,,,,,,,,,,,,,,,,,,,,,,,,,,,,,,,,,,
0,82,82,16,1,,5f338ba6ea047119dbd6e49e,62bbf9a95d8e00a17248ed1a,2022-06-29_09h05.46.616,Colour_Asymmetry_Pilot,2022.1.3,Win32,59.79788315,62bbe60bf3d75ef465d3e404,,,,,,,,,,,,,,,,,,,,,,,,,,,,,,,,,,,,,,,,,,,,,,,,,,,,,,,,,,,,,,,,,,,,,,,,,,,,,,,,,,,,,,,,,,,,,,,,,,,,,,,,,,,,,,,,,,,,,,,,,,,,,,,,,,,,,,,,,,,,,,,,,,,,,,,,,,,,,,
0,83,83,62,1,,5f338ba6ea047119dbd6e49e,62bbf9a95d8e00a17248ed1a,2022-06-29_09h05.46.616,Colour_Asymmetry_Pilot,2022.1.3,Win32,59.79788315,62bbe60bf3d75ef465d3e404,,,,,,,,,,,,,,,,,,,,,,,,,,,,,,,,,,,,,,,,,,,,,,,,,,,,,,,,,,,,,,,,,,,,,,,,,,,,,,,,,,,,,,,,,,,,,,,,,,,,,,,,,,,,,,,,,,,,,,,,,,,,,,,,,,,,,,,,,,,,,,,,,,,,,,,,,,,,,,
0,84,84,31,1,,5f338ba6ea047119dbd6e49e,62bbf9a95d8e00a17248ed1a,2022-06-29_09h05.46.616,Colour_Asymmetry_Pilot,2022.1.3,Win32,59.79788315,62bbe60bf3d75ef465d3e404,,,,,,,,,,,,,,,,,,,,,,,,,,,,,,,,,,,,,,,,,,,,,,,,,,,,,,,,,,,,,,,,,,,,,,,,,,,,,,,,,,,,,,,,,,,,,,,,,,,,,,,,,,,,,,,,,,,,,,,,,,,,,,,,,,,,,,,,,,,,,,,,,,,,,,,,,,,,,,
0,85,85,84,1,,5f338ba6ea047119dbd6e49e,62bbf9a95d8e00a17248ed1a,2022-06-29_09h05.46.616,Colour_Asymmetry_Pilot,2022.1.3,Win32,59.79788315,62bbe60bf3d75ef465d3e404,,,,,,,,,,,,,,,,,,,,,,,,,,,,,,,,,,,,,,,,,,,,,,,,,,,,,,,,,,,,,,,,,,,,,,,,,,,,,,,,,,,,,,,,,,,,,,,,,,,,,,,,,,,,,,,,,,,,,,,,,,,,,,,,,,,,,,,,,,,,,,,,,,,,,,,,,,,,,,
0,86,86,24,1,,5f338ba6ea047119dbd6e49e,62bbf9a95d8e00a17248ed1a,2022-06-29_09h05.46.616,Colour_Asymmetry_Pilot,2022.1.3,Win32,59.79788315,62bbe60bf3d75ef465d3e404,,,,,,,,,,,,,,,,,,,,,,,,,,,,,,,,,,,,,,,,,,,,,,,,,,,,,,,,,,,,,,,,,,,,,,,,,,,,,,,,,,,,,,,,,,,,,,,,,,,,,,,,,,,,,,,,,,,,,,,,,,,,,,,,,,,,,,,,,,,,,,,,,,,,,,,,,,,,,,
0,87,87,26,1,,5f338ba6ea047119dbd6e49e,62bbf9a95d8e00a17248ed1a,2022-06-29_09h05.46.616,Colour_Asymmetry_Pilot,2022.1.3,Win32,59.79788315,62bbe60bf3d75ef465d3e404,,,,,,,,,,,,,,,,,,,,,,,,,,,,,,,,,,,,,,,,,,,,,,,,,,,,,,,,,,,,,,,,,,,,,,,,,,,,,,,,,,,,,,,,,,,,,,,,,,,,,,,,,,,,,,,,,,,,,,,,,,,,,,,,,,,,,,,,,,,,,,,,,,,,,,,,,,,,,,
0,88,88,44,1,,5f338ba6ea047119dbd6e49e,62bbf9a95d8e00a17248ed1a,2022-06-29_09h05.46.616,Colour_Asymmetry_Pilot,2022.1.3,Win32,59.79788315,62bbe60bf3d75ef465d3e404,,,,,,,,,,,,,,,,,,,,,,,,,,,,,,,,,,,,,,,,,,,,,,,,,,,,,,,,,,,,,,,,,,,,,,,,,,,,,,,,,,,,,,,,,,,,,,,,,,,,,,,,,,,,,,,,,,,,,,,,,,,,,,,,,,,,,,,,,,,,,,,,,,,,,,,,,,,,,,
0,89,89,65,1,,5f338ba6ea047119dbd6e49e,62bbf9a95d8e00a17248ed1a,2022-06-29_09h05.46.616,Colour_Asymmetry_Pilot,2022.1.3,Win32,59.79788315,62bbe60bf3d75ef465d3e404,,,,,,,,,,,,,,,,,,,,,,,,,,,,,,,,,,,,,,,,,,,,,,,,,,,,,,,,,,,,,,,,,,,,,,,,,,,,,,,,,,,,,,,,,,,,,,,,,,,,,,,,,,,,,,,,,,,,,,,,,,,,,,,,,,,,,,,,,,,,,,,,,,,,,,,,,,,,,,
0,90,90,1,1,,5f338ba6ea047119dbd6e49e,62bbf9a95d8e00a17248ed1a,2022-06-29_09h05.46.616,Colour_Asymmetry_Pilot,2022.1.3,Win32,59.79788315,62bbe60bf3d75ef465d3e404,,,,,,,,,,,,,,,,,,,,,,,,,,,,,,,,,,,,,,,,,,,,,,,,,,,,,,,,,,,,,,,,,,,,,,,,,,,,,,,,,,,,,,,,,,,,,,,,,,,,,,,,,,,,,,,,,,,,,,,,,,,,,,,,,,,,,,,,,,,,,,,,,,,,,,,,,,,,,,
0,91,91,37,1,,5f338ba6ea047119dbd6e49e,62bbf9a95d8e00a17248ed1a,2022-06-29_09h05.46.616,Colour_Asymmetry_Pilot,2022.1.3,Win32,59.79788315,62bbe60bf3d75ef465d3e404,,,,,,,,,,,,,,,,,,,,,,,,,,,,,,,,,,,,,,,,,,,,,,,,,,,,,,,,,,,,,,,,,,,,,,,,,,,,,,,,,,,,,,,,,,,,,,,,,,,,,,,,,,,,,,,,,,,,,,,,,,,,,,,,,,,,,,,,,,,,,,,,,,,,,,,,,,,,,,
0,92,92,15,1,,5f338ba6ea047119dbd6e49e,62bbf9a95d8e00a17248ed1a,2022-06-29_09h05.46.616,Colour_Asymmetry_Pilot,2022.1.3,Win32,59.79788315,62bbe60bf3d75ef465d3e404,,,,,,,,,,,,,,,,,,,,,,,,,,,,,,,,,,,,,,,,,,,,,,,,,,,,,,,,,,,,,,,,,,,,,,,,,,,,,,,,,,,,,,,,,,,,,,,,,,,,,,,,,,,,,,,,,,,,,,,,,,,,,,,,,,,,,,,,,,,,,,,,,,,,,,,,,,,,,,
,,,,,,5f338ba6ea047119dbd6e49e,62bbf9a95d8e00a17248ed1a,2022-06-29_09h05.46.616,Colour_Asymmetry_Pilot,2022.1.3,Win32,59.79788315,62bbe60bf3d75ef465d3e404,0,0,0,6,1,fourtwo,,,,,,,,,,,,,,,,,,,,,,,,,,,,,,,,,,,,,,,,,,,,,,,,,,,,,,,,,,,,,,,,,,,,,,,,,,,,,,,,,,,,,,,,,,,,,,,,,,,,,,,,,,,,,,,,,,,,,,,,,,,,,,,,,,,,,,,,,,,,,,,,,,,,,,,,
,,,,,,5f338ba6ea047119dbd6e49e,62bbf9a95d8e00a17248ed1a,2022-06-29_09h05.46.616,Colour_Asymmetry_Pilot,2022.1.3,Win32,59.79788315,62bbe60bf3d75ef465d3e404,0,1,1,42,1,twoone,,,,,,,,,,,,,,,,,,,,,,,,,,,,,,,,,,,,,,,,,,,,,,,,,,,,,,,,,,,,,,,,,,,,,,,,,,,,,,,,,,,,,,,,,,,,,,,,,,,,,,,,,,,,,,,,,,,,,,,,,,,,,,,,,,,,,,,,,,,,,,,,,,,,,,,,
,,,,,,5f338ba6ea047119dbd6e49e,62bbf9a95d8e00a17248ed1a,2022-06-29_09h05.46.616,Colour_Asymmetry_Pilot,2022.1.3,Win32,59.79788315,62bbe60bf3d75ef465d3e404,0,2,2,110,1,fourtwo,,,,,,,,,,,,,,,,,,,,,,,,,,,,,,,,,,,,,,,,,,,,,,,,,,,,,,,,,,,,,,,,,,,,,,,,,,,,,,,,,,,,,,,,,,,,,,,,,,,,,,,,,,,,,,,,,,,,,,,,,,,,,,,,,,,,,,,,,,,,,,,,,,,,,,,,
,,,,,,5f338ba6ea047119dbd6e49e,62bbf9a95d8e00a17248ed1a,2022-06-29_09h05.46.616,Colour_Asymmetry_Pilot,2022.1.3,Win32,59.79788315,62bbe60bf3d75ef465d3e404,0,3,3,133,1,threefour,,,,,,,,,,,,,,,,,,,,,,,,,,,,,,,,,,,,,,,,,,,,,,,,,,,,,,,,,,,,,,,,,,,,,,,,,,,,,,,,,,,,,,,,,,,,,,,,,,,,,,,,,,,,,,,,,,,,,,,,,,,,,,,,,,,,,,,,,,,,,,,,,,,,,,,,
,,,,,,5f338ba6ea047119dbd6e49e,62bbf9a95d8e00a17248ed1a,2022-06-29_09h05.46.616,Colour_Asymmetry_Pilot,2022.1.3,Win32,59.79788315,62bbe60bf3d75ef465d3e404,0,4,4,24,1,onetwo,,,,,,,,,,,,,,,,,,,,,,,,,,,,,,,,,,,,,,,,,,,,,,,,,,,,,,,,,,,,,,,,,,,,,,,,,,,,,,,,,,,,,,,,,,,,,,,,,,,,,,,,,,,,,,,,,,,,,,,,,,,,,,,,,,,,,,,,,,,,,,,,,,,,,,,,
,,,,,,5f338ba6ea047119dbd6e49e,62bbf9a95d8e00a17248ed1a,2022-06-29_09h05.46.616,Colour_Asymmetry_Pilot,2022.1.3,Win32,59.79788315,62bbe60bf3d75ef465d3e404,0,5,5,68,1,threeone,,,,,,,,,,,,,,,,,,,,,,,,,,,,,,,,,,,,,,,,,,,,,,,,,,,,,,,,,,,,,,,,,,,,,,,,,,,,,,,,,,,,,,,,,,,,,,,,,,,,,,,,,,,,,,,,,,,,,,,,,,,,,,,,,,,,,,,,,,,,,,,,,,,,,,,,
,,,,,,5f338ba6ea047119dbd6e49e,62bbf9a95d8e00a17248ed1a,2022-06-29_09h05.46.616,Colour_Asymmetry_Pilot,2022.1.3,Win32,59.79788315,62bbe60bf3d75ef465d3e404,0,6,6,146,1,twoone,,,,,,,,,,,,,,,,,,,,,,,,,,,,,,,,,,,,,,,,,,,,,,,,,,,,,,,,,,,,,,,,,,,,,,,,,,,,,,,,,,,,,,,,,,,,,,,,,,,,,,,,,,,,,,,,,,,,,,,,,,,,,,,,,,,,,,,,,,,,,,,,,,,,,,,,
,,,,,,5f338ba6ea047119dbd6e49e,62bbf9a95d8e00a17248ed1a,2022-06-29_09h05.46.616,Colour_Asymmetry_Pilot,2022.1.3,Win32,59.79788315,62bbe60bf3d75ef465d3e404,0,7,7,122,1,twoone,,,,,,,,,,,,,,,,,,,,,,,,,,,,,,,,,,,,,,,,,,,,,,,,,,,,,,,,,,,,,,,,,,,,,,,,,,,,,,,,,,,,,,,,,,,,,,,,,,,,,,,,,,,,,,,,,,,,,,,,,,,,,,,,,,,,,,,,,,,,,,,,,,,,,,,,
,,,,,,5f338ba6ea047119dbd6e49e,62bbf9a95d8e00a17248ed1a,2022-06-29_09h05.46.616,Colour_Asymmetry_Pilot,2022.1.3,Win32,59.79788315,62bbe60bf3d75ef465d3e404,0,8,8,125,1,threefour,,,,,,,,,,,,,,,,,,,,,,,,,,,,,,,,,,,,,,,,,,,,,,,,,,,,,,,,,,,,,,,,,,,,,,,,,,,,,,,,,,,,,,,,,,,,,,,,,,,,,,,,,,,,,,,,,,,,,,,,,,,,,,,,,,,,,,,,,,,,,,,,,,,,,,,,
,,,,,,5f338ba6ea047119dbd6e49e,62bbf9a95d8e00a17248ed1a,2022-06-29_09h05.46.616,Colour_Asymmetry_Pilot,2022.1.3,Win32,59.79788315,62bbe60bf3d75ef465d3e404,0,9,9,129,1,onethree,,,,,,,,,,,,,,,,,,,,,,,,,,,,,,,,,,,,,,,,,,,,,,,,,,,,,,,,,,,,,,,,,,,,,,,,,,,,,,,,,,,,,,,,,,,,,,,,,,,,,,,,,,,,,,,,,,,,,,,,,,,,,,,,,,,,,,,,,,,,,,,,,,,,,,,,
,,,,,,5f338ba6ea047119dbd6e49e,62bbf9a95d8e00a17248ed1a,2022-06-29_09h05.46.616,Colour_Asymmetry_Pilot,2022.1.3,Win32,59.79788315,62bbe60bf3d75ef465d3e404,0,10,10,83,1,twofour,,,,,,,,,,,,,,,,,,,,,,,,,,,,,,,,,,,,,,,,,,,,,,,,,,,,,,,,,,,,,,,,,,,,,,,,,,,,,,,,,,,,,,,,,,,,,,,,,,,,,,,,,,,,,,,,,,,,,,,,,,,,,,,,,,,,,,,,,,,,,,,,,,,,,,,,
,,,,,,5f338ba6ea047119dbd6e49e,62bbf9a95d8e00a17248ed1a,2022-06-29_09h05.46.616,Colour_Asymmetry_Pilot,2022.1.3,Win32,59.79788315,62bbe60bf3d75ef465d3e404,0,11,11,17,1,onethree,,,,,,,,,,,,,,,,,,,,,,,,,,,,,,,,,,,,,,,,,,,,,,,,,,,,,,,,,,,,,,,,,,,,,,,,,,,,,,,,,,,,,,,,,,,,,,,,,,,,,,,,,,,,,,,,,,,,,,,,,,,,,,,,,,,,,,,,,,,,,,,,,,,,,,,,
,,,,,,5f338ba6ea047119dbd6e49e,62bbf9a95d8e00a17248ed1a,2022-06-29_09h05.46.616,Colour_Asymmetry_Pilot,2022.1.3,Win32,59.79788315,62bbe60bf3d75ef465d3e404,0,12,12,93,1,threefour,,,,,,,,,,,,,,,,,,,,,,,,,,,,,,,,,,,,,,,,,,,,,,,,,,,,,,,,,,,,,,,,,,,,,,,,,,,,,,,,,,,,,,,,,,,,,,,,,,,,,,,,,,,,,,,,,,,,,,,,,,,,,,,,,,,,,,,,,,,,,,,,,,,,,,,,
,,,,,,5f338ba6ea047119dbd6e49e,62bbf9a95d8e00a17248ed1a,2022-06-29_09h05.46.616,Colour_Asymmetry_Pilot,2022.1.3,Win32,59.79788315,62bbe60bf3d75ef465d3e404,0,13,13,130,1,twoone,,,,,,,,,,,,,,,,,,,,,,,,,,,,,,,,,,,,,,,,,,,,,,,,,,,,,,,,,,,,,,,,,,,,,,,,,,,,,,,,,,,,,,,,,,,,,,,,,,,,,,,,,,,,,,,,,,,,,,,,,,,,,,,,,,,,,,,,,,,,,,,,,,,,,,,,
,,,,,,5f338ba6ea047119dbd6e49e,62bbf9a95d8e00a17248ed1a,2022-06-29_09h05.46.616,Colour_Asymmetry_Pilot,2022.1.3,Win32,59.79788315,62bbe60bf3d75ef465d3e404,0,14,14,159,1,fourthree,,,,,,,,,,,,,,,,,,,,,,,,,,,,,,,,,,,,,,,,,,,,,,,,,,,,,,,,,,,,,,,,,,,,,,,,,,,,,,,,,,,,,,,,,,,,,,,,,,,,,,,,,,,,,,,,,,,,,,,,,,,,,,,,,,,,,,,,,,,,,,,,,,,,,,,,
,,,,,,5f338ba6ea047119dbd6e49e,62bbf9a95d8e00a17248ed1a,2022-06-29_09h05.46.616,Colour_Asymmetry_Pilot,2022.1.3,Win32,59.79788315,62bbe60bf3d75ef465d3e404,0,15,15,7,1,fourthree,,,,,,,,,,,,,,,,,,,,,,,,,,,,,,,,,,,,,,,,,,,,,,,,,,,,,,,,,,,,,,,,,,,,,,,,,,,,,,,,,,,,,,,,,,,,,,,,,,,,,,,,,,,,,,,,,,,,,,,,,,,,,,,,,,,,,,,,,,,,,,,,,,,,,,,,
,,,,,,5f338ba6ea047119dbd6e49e,62bbf9a95d8e00a17248ed1a,2022-06-29_09h05.46.616,Colour_Asymmetry_Pilot,2022.1.3,Win32,59.79788315,62bbe60bf3d75ef465d3e404,0,16,16,27,1,twofour,,,,,,,,,,,,,,,,,,,,,,,,,,,,,,,,,,,,,,,,,,,,,,,,,,,,,,,,,,,,,,,,,,,,,,,,,,,,,,,,,,,,,,,,,,,,,,,,,,,,,,,,,,,,,,,,,,,,,,,,,,,,,,,,,,,,,,,,,,,,,,,,,,,,,,,,
,,,,,,5f338ba6ea047119dbd6e49e,62bbf9a95d8e00a17248ed1a,2022-06-29_09h05.46.616,Colour_Asymmetry_Pilot,2022.1.3,Win32,59.79788315,62bbe60bf3d75ef465d3e404,0,17,17,150,1,fourtwo,,,,,,,,,,,,,,,,,,,,,,,,,,,,,,,,,,,,,,,,,,,,,,,,,,,,,,,,,,,,,,,,,,,,,,,,,,,,,,,,,,,,,,,,,,,,,,,,,,,,,,,,,,,,,,,,,,,,,,,,,,,,,,,,,,,,,,,,,,,,,,,,,,,,,,,,
,,,,,,5f338ba6ea047119dbd6e49e,62bbf9a95d8e00a17248ed1a,2022-06-29_09h05.46.616,Colour_Asymmetry_Pilot,2022.1.3,Win32,59.79788315,62bbe60bf3d75ef465d3e404,0,18,18,61,1,threefour,,,,,,,,,,,,,,,,,,,,,,,,,,,,,,,,,,,,,,,,,,,,,,,,,,,,,,,,,,,,,,,,,,,,,,,,,,,,,,,,,,,,,,,,,,,,,,,,,,,,,,,,,,,,,,,,,,,,,,,,,,,,,,,,,,,,,,,,,,,,,,,,,,,,,,,,
,,,,,,5f338ba6ea047119dbd6e49e,62bbf9a95d8e00a17248ed1a,2022-06-29_09h05.46.616,Colour_Asymmetry_Pilot,2022.1.3,Win32,59.79788315,62bbe60bf3d75ef465d3e404,0,19,19,50,1,twoone,,,,,,,,,,,,,,,,,,,,,,,,,,,,,,,,,,,,,,,,,,,,,,,,,,,,,,,,,,,,,,,,,,,,,,,,,,,,,,,,,,,,,,,,,,,,,,,,,,,,,,,,,,,,,,,,,,,,,,,,,,,,,,,,,,,,,,,,,,,,,,,,,,,,,,,,
,,,,,,5f338ba6ea047119dbd6e49e,62bbf9a95d8e00a17248ed1a,2022-06-29_09h05.46.616,Colour_Asymmetry_Pilot,2022.1.3,Win32,59.79788315,62bbe60bf3d75ef465d3e404,0,20,20,28,1,threeone,,,,,,,,,,,,,,,,,,,,,,,,,,,,,,,,,,,,,,,,,,,,,,,,,,,,,,,,,,,,,,,,,,,,,,,,,,,,,,,,,,,,,,,,,,,,,,,,,,,,,,,,,,,,,,,,,,,,,,,,,,,,,,,,,,,,,,,,,,,,,,,,,,,,,,,,
,,,,,,5f338ba6ea047119dbd6e49e,62bbf9a95d8e00a17248ed1a,2022-06-29_09h05.46.616,Colour_Asymmetry_Pilot,2022.1.3,Win32,59.79788315,62bbe60bf3d75ef465d3e404,0,21,21,77,1,threefour,,,,,,,,,,,,,,,,,,,,,,,,,,,,,,,,,,,,,,,,,,,,,,,,,,,,,,,,,,,,,,,,,,,,,,,,,,,,,,,,,,,,,,,,,,,,,,,,,,,,,,,,,,,,,,,,,,,,,,,,,,,,,,,,,,,,,,,,,,,,,,,,,,,,,,,,
,,,,,,5f338ba6ea047119dbd6e49e,62bbf9a95d8e00a17248ed1a,2022-06-29_09h05.46.616,Colour_Asymmetry_Pilot,2022.1.3,Win32,59.79788315,62bbe60bf3d75ef465d3e404,0,22,22,9,1,onethree,,,,,,,,,,,,,,,,,,,,,,,,,,,,,,,,,,,,,,,,,,,,,,,,,,,,,,,,,,,,,,,,,,,,,,,,,,,,,,,,,,,,,,,,,,,,,,,,,,,,,,,,,,,,,,,,,,,,,,,,,,,,,,,,,,,,,,,,,,,,,,,,,,,,,,,,
,,,,,,5f338ba6ea047119dbd6e49e,62bbf9a95d8e00a17248ed1a,2022-06-29_09h05.46.616,Colour_Asymmetry_Pilot,2022.1.3,Win32,59.79788315,62bbe60bf3d75ef465d3e404,0,23,23,148,1,threeone,,,,,,,,,,,,,,,,,,,,,,,,,,,,,,,,,,,,,,,,,,,,,,,,,,,,,,,,,,,,,,,,,,,,,,,,,,,,,,,,,,,,,,,,,,,,,,,,,,,,,,,,,,,,,,,,,,,,,,,,,,,,,,,,,,,,,,,,,,,,,,,,,,,,,,,,
,,,,,,5f338ba6ea047119dbd6e49e,62bbf9a95d8e00a17248ed1a,2022-06-29_09h05.46.616,Colour_Asymmetry_Pilot,2022.1.3,Win32,59.79788315,62bbe60bf3d75ef465d3e404,0,24,24,124,1,threeone,,,,,,,,,,,,,,,,,,,,,,,,,,,,,,,,,,,,,,,,,,,,,,,,,,,,,,,,,,,,,,,,,,,,,,,,,,,,,,,,,,,,,,,,,,,,,,,,,,,,,,,,,,,,,,,,,,,,,,,,,,,,,,,,,,,,,,,,,,,,,,,,,,,,,,,,
,,,,,,5f338ba6ea047119dbd6e49e,62bbf9a95d8e00a17248ed1a,2022-06-29_09h05.46.616,Colour_Asymmetry_Pilot,2022.1.3,Win32,59.79788315,62bbe60bf3d75ef465d3e404,0,25,25,80,1,onetwo,,,,,,,,,,,,,,,,,,,,,,,,,,,,,,,,,,,,,,,,,,,,,,,,,,,,,,,,,,,,,,,,,,,,,,,,,,,,,,,,,,,,,,,,,,,,,,,,,,,,,,,,,,,,,,,,,,,,,,,,,,,,,,,,,,,,,,,,,,,,,,,,,,,,,,,,
,,,,,,5f338ba6ea047119dbd6e49e,62bbf9a95d8e00a17248ed1a,2022-06-29_09h05.46.616,Colour_Asymmetry_Pilot,2022.1.3,Win32,59.79788315,62bbe60bf3d75ef465d3e404,0,26,26,8,1,onetwo,,,,,,,,,,,,,,,,,,,,,,,,,,,,,,,,,,,,,,,,,,,,,,,,,,,,,,,,,,,,,,,,,,,,,,,,,,,,,,,,,,,,,,,,,,,,,,,,,,,,,,,,,,,,,,,,,,,,,,,,,,,,,,,,,,,,,,,,,,,,,,,,,,,,,,,,
,,,,,,5f338ba6ea047119dbd6e49e,62bbf9a95d8e00a17248ed1a,2022-06-29_09h05.46.616,Colour_Asymmetry_Pilot,2022.1.3,Win32,59.79788315,62bbe60bf3d75ef465d3e404,0,27,27,131,1,twofour,,,,,,,,,,,,,,,,,,,,,,,,,,,,,,,,,,,,,,,,,,,,,,,,,,,,,,,,,,,,,,,,,,,,,,,,,,,,,,,,,,,,,,,,,,,,,,,,,,,,,,,,,,,,,,,,,,,,,,,,,,,,,,,,,,,,,,,,,,,,,,,,,,,,,,,,
,,,,,,5f338ba6ea047119dbd6e49e,62bbf9a95d8e00a17248ed1a,2022-06-29_09h05.46.616,Colour_Asymmetry_Pilot,2022.1.3,Win32,59.79788315,62bbe60bf3d75ef465d3e404,0,28,28,121,1,onethree,,,,,,,,,,,,,,,,,,,,,,,,,,,,,,,,,,,,,,,,,,,,,,,,,,,,,,,,,,,,,,,,,,,,,,,,,,,,,,,,,,,,,,,,,,,,,,,,,,,,,,,,,,,,,,,,,,,,,,,,,,,,,,,,,,,,,,,,,,,,,,,,,,,,,,,,
,,,,,,5f338ba6ea047119dbd6e49e,62bbf9a95d8e00a17248ed1a,2022-06-29_09h05.46.616,Colour_Asymmetry_Pilot,2022.1.3,Win32,59.79788315,62bbe60bf3d75ef465d3e404,0,29,29,31,1,fourthree,,,,,,,,,,,,,,,,,,,,,,,,,,,,,,,,,,,,,,,,,,,,,,,,,,,,,,,,,,,,,,,,,,,,,,,,,,,,,,,,,,,,,,,,,,,,,,,,,,,,,,,,,,,,,,,,,,,,,,,,,,,,,,,,,,,,,,,,,,,,,,,,,,,,,,,,
,,,,,,5f338ba6ea047119dbd6e49e,62bbf9a95d8e00a17248ed1a,2022-06-29_09h05.46.616,Colour_Asymmetry_Pilot,2022.1.3,Win32,59.79788315,62bbe60bf3d75ef465d3e404,0,30,30,15,1,fourthree,,,,,,,,,,,,,,,,,,,,,,,,,,,,,,,,,,,,,,,,,,,,,,,,,,,,,,,,,,,,,,,,,,,,,,,,,,,,,,,,,,,,,,,,,,,,,,,,,,,,,,,,,,,,,,,,,,,,,,,,,,,,,,,,,,,,,,,,,,,,,,,,,,,,,,,,
,,,,,,5f338ba6ea047119dbd6e49e,62bbf9a95d8e00a17248ed1a,2022-06-29_09h05.46.616,Colour_Asymmetry_Pilot,2022.1.3,Win32,59.79788315,62bbe60bf3d75ef465d3e404,0,31,31,157,1,threefour,,,,,,,,,,,,,,,,,,,,,,,,,,,,,,,,,,,,,,,,,,,,,,,,,,,,,,,,,,,,,,,,,,,,,,,,,,,,,,,,,,,,,,,,,,,,,,,,,,,,,,,,,,,,,,,,,,,,,,,,,,,,,,,,,,,,,,,,,,,,,,,,,,,,,,,,
,,,,,,5f338ba6ea047119dbd6e49e,62bbf9a95d8e00a17248ed1a,2022-06-29_09h05.46.616,Colour_Asymmetry_Pilot,2022.1.3,Win32,59.79788315,62bbe60bf3d75ef465d3e404,0,32,32,142,1,fourtwo,,,,,,,,,,,,,,,,,,,,,,,,,,,,,,,,,,,,,,,,,,,,,,,,,,,,,,,,,,,,,,,,,,,,,,,,,,,,,,,,,,,,,,,,,,,,,,,,,,,,,,,,,,,,,,,,,,,,,,,,,,,,,,,,,,,,,,,,,,,,,,,,,,,,,,,,
,,,,,,5f338ba6ea047119dbd6e49e,62bbf9a95d8e00a17248ed1a,2022-06-29_09h05.46.616,Colour_Asymmetry_Pilot,2022.1.3,Win32,59.79788315,62bbe60bf3d75ef465d3e404,0,33,33,98,1,twoone,,,,,,,,,,,,,,,,,,,,,,,,,,,,,,,,,,,,,,,,,,,,,,,,,,,,,,,,,,,,,,,,,,,,,,,,,,,,,,,,,,,,,,,,,,,,,,,,,,,,,,,,,,,,,,,,,,,,,,,,,,,,,,,,,,,,,,,,,,,,,,,,,,,,,,,,
,,,,,,5f338ba6ea047119dbd6e49e,62bbf9a95d8e00a17248ed1a,2022-06-29_09h05.46.616,Colour_Asymmetry_Pilot,2022.1.3,Win32,59.79788315,62bbe60bf3d75ef465d3e404,0,34,34,104,1,onetwo,,,,,,,,,,,,,,,,,,,,,,,,,,,,,,,,,,,,,,,,,,,,,,,,,,,,,,,,,,,,,,,,,,,,,,,,,,,,,,,,,,,,,,,,,,,,,,,,,,,,,,,,,,,,,,,,,,,,,,,,,,,,,,,,,,,,,,,,,,,,,,,,,,,,,,,,
,,,,,,5f338ba6ea047119dbd6e49e,62bbf9a95d8e00a17248ed1a,2022-06-29_09h05.46.616,Colour_Asymmetry_Pilot,2022.1.3,Win32,59.79788315,62bbe60bf3d75ef465d3e404,0,35,35,152,1,onetwo,,,,,,,,,,,,,,,,,,,,,,,,,,,,,,,,,,,,,,,,,,,,,,,,,,,,,,,,,,,,,,,,,,,,,,,,,,,,,,,,,,,,,,,,,,,,,,,,,,,,,,,,,,,,,,,,,,,,,,,,,,,,,,,,,,,,,,,,,,,,,,,,,,,,,,,,
,,,,,,5f338ba6ea047119dbd6e49e,62bbf9a95d8e00a17248ed1a,2022-06-29_09h05.46.616,Colour_Asymmetry_Pilot,2022.1.3,Win32,59.79788315,62bbe60bf3d75ef465d3e404,0,36,36,140,1,threeone,,,,,,,,,,,,,,,,,,,,,,,,,,,,,,,,,,,,,,,,,,,,,,,,,,,,,,,,,,,,,,,,,,,,,,,,,,,,,,,,,,,,,,,,,,,,,,,,,,,,,,,,,,,,,,,,,,,,,,,,,,,,,,,,,,,,,,,,,,,,,,,,,,,,,,,,
,,,,,,5f338ba6ea047119dbd6e49e,62bbf9a95d8e00a17248ed1a,2022-06-29_09h05.46.616,Colour_Asymmetry_Pilot,2022.1.3,Win32,59.79788315,62bbe60bf3d75ef465d3e404,0,37,37,54,1,fourtwo,,,,,,,,,,,,,,,,,,,,,,,,,,,,,,,,,,,,,,,,,,,,,,,,,,,,,,,,,,,,,,,,,,,,,,,,,,,,,,,,,,,,,,,,,,,,,,,,,,,,,,,,,,,,,,,,,,,,,,,,,,,,,,,,,,,,,,,,,,,,,,,,,,,,,,,,
,,,,,,5f338ba6ea047119dbd6e49e,62bbf9a95d8e00a17248ed1a,2022-06-29_09h05.46.616,Colour_Asymmetry_Pilot,2022.1.3,Win32,59.79788315,62bbe60bf3d75ef465d3e404,0,38,38,87,1,fourthree,,,,,,,,,,,,,,,,,,,,,,,,,,,,,,,,,,,,,,,,,,,,,,,,,,,,,,,,,,,,,,,,,,,,,,,,,,,,,,,,,,,,,,,,,,,,,,,,,,,,,,,,,,,,,,,,,,,,,,,,,,,,,,,,,,,,,,,,,,,,,,,,,,,,,,,,
,,,,,,5f338ba6ea047119dbd6e49e,62bbf9a95d8e00a17248ed1a,2022-06-29_09h05.46.616,Colour_Asymmetry_Pilot,2022.1.3,Win32,59.79788315,62bbe60bf3d75ef465d3e404,0,39,39,2,1,twoone,,,,,,,,,,,,,,,,,,,,,,,,,,,,,,,,,,,,,,,,,,,,,,,,,,,,,,,,,,,,,,,,,,,,,,,,,,,,,,,,,,,,,,,,,,,,,,,,,,,,,,,,,,,,,,,,,,,,,,,,,,,,,,,,,,,,,,,,,,,,,,,,,,,,,,,,
,,,,,,5f338ba6ea047119dbd6e49e,62bbf9a95d8e00a17248ed1a,2022-06-29_09h05.46.616,Colour_Asymmetry_Pilot,2022.1.3,Win32,59.79788315,62bbe60bf3d75ef465d3e404,0,40,40,144,1,onetwo,,,,,,,,,,,,,,,,,,,,,,,,,,,,,,,,,,,,,,,,,,,,,,,,,,,,,,,,,,,,,,,,,,,,,,,,,,,,,,,,,,,,,,,,,,,,,,,,,,,,,,,,,,,,,,,,,,,,,,,,,,,,,,,,,,,,,,,,,,,,,,,,,,,,,,,,
,,,,,,5f338ba6ea047119dbd6e49e,62bbf9a95d8e00a17248ed1a,2022-06-29_09h05.46.616,Colour_Asymmetry_Pilot,2022.1.3,Win32,59.79788315,62bbe60bf3d75ef465d3e404,0,41,41,74,1,twoone,,,,,,,,,,,,,,,,,,,,,,,,,,,,,,,,,,,,,,,,,,,,,,,,,,,,,,,,,,,,,,,,,,,,,,,,,,,,,,,,,,,,,,,,,,,,,,,,,,,,,,,,,,,,,,,,,,,,,,,,,,,,,,,,,,,,,,,,,,,,,,,,,,,,,,,,
,,,,,,5f338ba6ea047119dbd6e49e,62bbf9a95d8e00a17248ed1a,2022-06-29_09h05.46.616,Colour_Asymmetry_Pilot,2022.1.3,Win32,59.79788315,62bbe60bf3d75ef465d3e404,0,42,42,161,1,onethree,,,,,,,,,,,,,,,,,,,,,,,,,,,,,,,,,,,,,,,,,,,,,,,,,,,,,,,,,,,,,,,,,,,,,,,,,,,,,,,,,,,,,,,,,,,,,,,,,,,,,,,,,,,,,,,,,,,,,,,,,,,,,,,,,,,,,,,,,,,,,,,,,,,,,,,,
,,,,,,5f338ba6ea047119dbd6e49e,62bbf9a95d8e00a17248ed1a,2022-06-29_09h05.46.616,Colour_Asymmetry_Pilot,2022.1.3,Win32,59.79788315,62bbe60bf3d75ef465d3e404,0,43,43,106,1,twoone,,,,,,,,,,,,,,,,,,,,,,,,,,,,,,,,,,,,,,,,,,,,,,,,,,,,,,,,,,,,,,,,,,,,,,,,,,,,,,,,,,,,,,,,,,,,,,,,,,,,,,,,,,,,,,,,,,,,,,,,,,,,,,,,,,,,,,,,,,,,,,,,,,,,,,,,
,,,,,,5f338ba6ea047119dbd6e49e,62bbf9a95d8e00a17248ed1a,2022-06-29_09h05.46.616,Colour_Asymmetry_Pilot,2022.1.3,Win32,59.79788315,62bbe60bf3d75ef465d3e404,0,44,44,112,1,onetwo,,,,,,,,,,,,,,,,,,,,,,,,,,,,,,,,,,,,,,,,,,,,,,,,,,,,,,,,,,,,,,,,,,,,,,,,,,,,,,,,,,,,,,,,,,,,,,,,,,,,,,,,,,,,,,,,,,,,,,,,,,,,,,,,,,,,,,,,,,,,,,,,,,,,,,,,
,,,,,,5f338ba6ea047119dbd6e49e,62bbf9a95d8e00a17248ed1a,2022-06-29_09h05.46.616,Colour_Asymmetry_Pilot,2022.1.3,Win32,59.79788315,62bbe60bf3d75ef465d3e404,0,45,45,111,1,fourthree,,,,,,,,,,,,,,,,,,,,,,,,,,,,,,,,,,,,,,,,,,,,,,,,,,,,,,,,,,,,,,,,,,,,,,,,,,,,,,,,,,,,,,,,,,,,,,,,,,,,,,,,,,,,,,,,,,,,,,,,,,,,,,,,,,,,,,,,,,,,,,,,,,,,,,,,
,,,,,,5f338ba6ea047119dbd6e49e,62bbf9a95d8e00a17248ed1a,2022-06-29_09h05.46.616,Colour_Asymmetry_Pilot,2022.1.3,Win32,59.79788315,62bbe60bf3d75ef465d3e404,0,46,46,107,1,twofour,,,,,,,,,,,,,,,,,,,,,,,,,,,,,,,,,,,,,,,,,,,,,,,,,,,,,,,,,,,,,,,,,,,,,,,,,,,,,,,,,,,,,,,,,,,,,,,,,,,,,,,,,,,,,,,,,,,,,,,,,,,,,,,,,,,,,,,,,,,,,,,,,,,,,,,,
,,,,,,5f338ba6ea047119dbd6e49e,62bbf9a95d8e00a17248ed1a,2022-06-29_09h05.46.616,Colour_Asymmetry_Pilot,2022.1.3,Win32,59.79788315,62bbe60bf3d75ef465d3e404,0,47,47,34,1,twoone,,,,,,,,,,,,,,,,,,,,,,,,,,,,,,,,,,,,,,,,,,,,,,,,,,,,,,,,,,,,,,,,,,,,,,,,,,,,,,,,,,,,,,,,,,,,,,,,,,,,,,,,,,,,,,,,,,,,,,,,,,,,,,,,,,,,,,,,,,,,,,,,,,,,,,,,
,,,,,,5f338ba6ea047119dbd6e49e,62bbf9a95d8e00a17248ed1a,2022-06-29_09h05.46.616,Colour_Asymmetry_Pilot,2022.1.3,Win32,59.79788315,62bbe60bf3d75ef465d3e404,0,48,48,11,1,twofour,,,,,,,,,,,,,,,,,,,,,,,,,,,,,,,,,,,,,,,,,,,,,,,,,,,,,,,,,,,,,,,,,,,,,,,,,,,,,,,,,,,,,,,,,,,,,,,,,,,,,,,,,,,,,,,,,,,,,,,,,,,,,,,,,,,,,,,,,,,,,,,,,,,,,,,,
,,,,,,5f338ba6ea047119dbd6e49e,62bbf9a95d8e00a17248ed1a,2022-06-29_09h05.46.616,Colour_Asymmetry_Pilot,2022.1.3,Win32,59.79788315,62bbe60bf3d75ef465d3e404,0,49,49,119,1,fourthree,,,,,,,,,,,,,,,,,,,,,,,,,,,,,,,,,,,,,,,,,,,,,,,,,,,,,,,,,,,,,,,,,,,,,,,,,,,,,,,,,,,,,,,,,,,,,,,,,,,,,,,,,,,,,,,,,,,,,,,,,,,,,,,,,,,,,,,,,,,,,,,,,,,,,,,,
,,,,,,5f338ba6ea047119dbd6e49e,62bbf9a95d8e00a17248ed1a,2022-06-29_09h05.46.616,Colour_Asymmetry_Pilot,2022.1.3,Win32,59.79788315,62bbe60bf3d75ef465d3e404,0,50,50,37,1,threefour,,,,,,,,,,,,,,,,,,,,,,,,,,,,,,,,,,,,,,,,,,,,,,,,,,,,,,,,,,,,,,,,,,,,,,,,,,,,,,,,,,,,,,,,,,,,,,,,,,,,,,,,,,,,,,,,,,,,,,,,,,,,,,,,,,,,,,,,,,,,,,,,,,,,,,,,
,,,,,,5f338ba6ea047119dbd6e49e,62bbf9a95d8e00a17248ed1a,2022-06-29_09h05.46.616,Colour_Asymmetry_Pilot,2022.1.3,Win32,59.79788315,62bbe60bf3d75ef465d3e404,0,51,51,92,1,threeone,,,,,,,,,,,,,,,,,,,,,,,,,,,,,,,,,,,,,,,,,,,,,,,,,,,,,,,,,,,,,,,,,,,,,,,,,,,,,,,,,,,,,,,,,,,,,,,,,,,,,,,,,,,,,,,,,,,,,,,,,,,,,,,,,,,,,,,,,,,,,,,,,,,,,,,,
,,,,,,5f338ba6ea047119dbd6e49e,62bbf9a95d8e00a17248ed1a,2022-06-29_09h05.46.616,Colour_Asymmetry_Pilot,2022.1.3,Win32,59.79788315,62bbe60bf3d75ef465d3e404,0,52,52,158,1,fourtwo,,,,,,,,,,,,,,,,,,,,,,,,,,,,,,,,,,,,,,,,,,,,,,,,,,,,,,,,,,,,,,,,,,,,,,,,,,,,,,,,,,,,,,,,,,,,,,,,,,,,,,,,,,,,,,,,,,,,,,,,,,,,,,,,,,,,,,,,,,,,,,,,,,,,,,,,
,,,,,,5f338ba6ea047119dbd6e49e,62bbf9a95d8e00a17248ed1a,2022-06-29_09h05.46.616,Colour_Asymmetry_Pilot,2022.1.3,Win32,59.79788315,62bbe60bf3d75ef465d3e404,0,53,53,1,1,onethree,,,,,,,,,,,,,,,,,,,,,,,,,,,,,,,,,,,,,,,,,,,,,,,,,,,,,,,,,,,,,,,,,,,,,,,,,,,,,,,,,,,,,,,,,,,,,,,,,,,,,,,,,,,,,,,,,,,,,,,,,,,,,,,,,,,,,,,,,,,,,,,,,,,,,,,,
,,,,,,5f338ba6ea047119dbd6e49e,62bbf9a95d8e00a17248ed1a,2022-06-29_09h05.46.616,Colour_Asymmetry_Pilot,2022.1.3,Win32,59.79788315,62bbe60bf3d75ef465d3e404,0,54,54,49,1,onethree,,,,,,,,,,,,,,,,,,,,,,,,,,,,,,,,,,,,,,,,,,,,,,,,,,,,,,,,,,,,,,,,,,,,,,,,,,,,,,,,,,,,,,,,,,,,,,,,,,,,,,,,,,,,,,,,,,,,,,,,,,,,,,,,,,,,,,,,,,,,,,,,,,,,,,,,
,,,,,,5f338ba6ea047119dbd6e49e,62bbf9a95d8e00a17248ed1a,2022-06-29_09h05.46.616,Colour_Asymmetry_Pilot,2022.1.3,Win32,59.79788315,62bbe60bf3d75ef465d3e404,0,55,55,96,1,onetwo,,,,,,,,,,,,,,,,,,,,,,,,,,,,,,,,,,,,,,,,,,,,,,,,,,,,,,,,,,,,,,,,,,,,,,,,,,,,,,,,,,,,,,,,,,,,,,,,,,,,,,,,,,,,,,,,,,,,,,,,,,,,,,,,,,,,,,,,,,,,,,,,,,,,,,,,
,,,,,,5f338ba6ea047119dbd6e49e,62bbf9a95d8e00a17248ed1a,2022-06-29_09h05.46.616,Colour_Asymmetry_Pilot,2022.1.3,Win32,59.79788315,62bbe60bf3d75ef465d3e404,0,56,56,100,1,threeone,,,,,,,,,,,,,,,,,,,,,,,,,,,,,,,,,,,,,,,,,,,,,,,,,,,,,,,,,,,,,,,,,,,,,,,,,,,,,,,,,,,,,,,,,,,,,,,,,,,,,,,,,,,,,,,,,,,,,,,,,,,,,,,,,,,,,,,,,,,,,,,,,,,,,,,,
,,,,,,5f338ba6ea047119dbd6e49e,62bbf9a95d8e00a17248ed1a,2022-06-29_09h05.46.616,Colour_Asymmetry_Pilot,2022.1.3,Win32,59.79788315,62bbe60bf3d75ef465d3e404,0,57,57,47,1,fourthree,,,,,,,,,,,,,,,,,,,,,,,,,,,,,,,,,,,,,,,,,,,,,,,,,,,,,,,,,,,,,,,,,,,,,,,,,,,,,,,,,,,,,,,,,,,,,,,,,,,,,,,,,,,,,,,,,,,,,,,,,,,,,,,,,,,,,,,,,,,,,,,,,,,,,,,,
,,,,,,5f338ba6ea047119dbd6e49e,62bbf9a95d8e00a17248ed1a,2022-06-29_09h05.46.616,Colour_Asymmetry_Pilot,2022.1.3,Win32,59.79788315,62bbe60bf3d75ef465d3e404,0,58,58,115,1,twofour,,,,,,,,,,,,,,,,,,,,,,,,,,,,,,,,,,,,,,,,,,,,,,,,,,,,,,,,,,,,,,,,,,,,,,,,,,,,,,,,,,,,,,,,,,,,,,,,,,,,,,,,,,,,,,,,,,,,,,,,,,,,,,,,,,,,,,,,,,,,,,,,,,,,,,,,
,,,,,,5f338ba6ea047119dbd6e49e,62bbf9a95d8e00a17248ed1a,2022-06-29_09h05.46.616,Colour_Asymmetry_Pilot,2022.1.3,Win32,59.79788315,62bbe60bf3d75ef465d3e404,0,59,59,4,1,threeone,,,,,,,,,,,,,,,,,,,,,,,,,,,,,,,,,,,,,,,,,,,,,,,,,,,,,,,,,,,,,,,,,,,,,,,,,,,,,,,,,,,,,,,,,,,,,,,,,,,,,,,,,,,,,,,,,,,,,,,,,,,,,,,,,,,,,,,,,,,,,,,,,,,,,,,,
,,,,,,5f338ba6ea047119dbd6e49e,62bbf9a95d8e00a17248ed1a,2022-06-29_09h05.46.616,Colour_Asymmetry_Pilot,2022.1.3,Win32,59.79788315,62bbe60bf3d75ef465d3e404,0,60,60,147,1,twofour,,,,,,,,,,,,,,,,,,,,,,,,,,,,,,,,,,,,,,,,,,,,,,,,,,,,,,,,,,,,,,,,,,,,,,,,,,,,,,,,,,,,,,,,,,,,,,,,,,,,,,,,,,,,,,,,,,,,,,,,,,,,,,,,,,,,,,,,,,,,,,,,,,,,,,,,
,,,,,,5f338ba6ea047119dbd6e49e,62bbf9a95d8e00a17248ed1a,2022-06-29_09h05.46.616,Colour_Asymmetry_Pilot,2022.1.3,Win32,59.79788315,62bbe60bf3d75ef465d3e404,0,61,61,113,1,onethree,,,,,,,,,,,,,,,,,,,,,,,,,,,,,,,,,,,,,,,,,,,,,,,,,,,,,,,,,,,,,,,,,,,,,,,,,,,,,,,,,,,,,,,,,,,,,,,,,,,,,,,,,,,,,,,,,,,,,,,,,,,,,,,,,,,,,,,,,,,,,,,,,,,,,,,,
,,,,,,5f338ba6ea047119dbd6e49e,62bbf9a95d8e00a17248ed1a,2022-06-29_09h05.46.616,Colour_Asymmetry_Pilot,2022.1.3,Win32,59.79788315,62bbe60bf3d75ef465d3e404,0,62,62,134,1,fourtwo,,,,,,,,,,,,,,,,,,,,,,,,,,,,,,,,,,,,,,,,,,,,,,,,,,,,,,,,,,,,,,,,,,,,,,,,,,,,,,,,,,,,,,,,,,,,,,,,,,,,,,,,,,,,,,,,,,,,,,,,,,,,,,,,,,,,,,,,,,,,,,,,,,,,,,,,
,,,,,,5f338ba6ea047119dbd6e49e,62bbf9a95d8e00a17248ed1a,2022-06-29_09h05.46.616,Colour_Asymmetry_Pilot,2022.1.3,Win32,59.79788315,62bbe60bf3d75ef465d3e404,0,63,63,85,1,threefour,,,,,,,,,,,,,,,,,,,,,,,,,,,,,,,,,,,,,,,,,,,,,,,,,,,,,,,,,,,,,,,,,,,,,,,,,,,,,,,,,,,,,,,,,,,,,,,,,,,,,,,,,,,,,,,,,,,,,,,,,,,,,,,,,,,,,,,,,,,,,,,,,,,,,,,,
,,,,,,5f338ba6ea047119dbd6e49e,62bbf9a95d8e00a17248ed1a,2022-06-29_09h05.46.616,Colour_Asymmetry_Pilot,2022.1.3,Win32,59.79788315,62bbe60bf3d75ef465d3e404,0,64,64,118,1,fourtwo,,,,,,,,,,,,,,,,,,,,,,,,,,,,,,,,,,,,,,,,,,,,,,,,,,,,,,,,,,,,,,,,,,,,,,,,,,,,,,,,,,,,,,,,,,,,,,,,,,,,,,,,,,,,,,,,,,,,,,,,,,,,,,,,,,,,,,,,,,,,,,,,,,,,,,,,
,,,,,,5f338ba6ea047119dbd6e49e,62bbf9a95d8e00a17248ed1a,2022-06-29_09h05.46.616,Colour_Asymmetry_Pilot,2022.1.3,Win32,59.79788315,62bbe60bf3d75ef465d3e404,0,65,65,65,1,onethree,,,,,,,,,,,,,,,,,,,,,,,,,,,,,,,,,,,,,,,,,,,,,,,,,,,,,,,,,,,,,,,,,,,,,,,,,,,,,,,,,,,,,,,,,,,,,,,,,,,,,,,,,,,,,,,,,,,,,,,,,,,,,,,,,,,,,,,,,,,,,,,,,,,,,,,,
,,,,,,5f338ba6ea047119dbd6e49e,62bbf9a95d8e00a17248ed1a,2022-06-29_09h05.46.616,Colour_Asymmetry_Pilot,2022.1.3,Win32,59.79788315,62bbe60bf3d75ef465d3e404,0,66,66,22,1,fourtwo,,,,,,,,,,,,,,,,,,,,,,,,,,,,,,,,,,,,,,,,,,,,,,,,,,,,,,,,,,,,,,,,,,,,,,,,,,,,,,,,,,,,,,,,,,,,,,,,,,,,,,,,,,,,,,,,,,,,,,,,,,,,,,,,,,,,,,,,,,,,,,,,,,,,,,,,
,,,,,,5f338ba6ea047119dbd6e49e,62bbf9a95d8e00a17248ed1a,2022-06-29_09h05.46.616,Colour_Asymmetry_Pilot,2022.1.3,Win32,59.79788315,62bbe60bf3d75ef465d3e404,0,67,67,62,1,fourtwo,,,,,,,,,,,,,,,,,,,,,,,,,,,,,,,,,,,,,,,,,,,,,,,,,,,,,,,,,,,,,,,,,,,,,,,,,,,,,,,,,,,,,,,,,,,,,,,,,,,,,,,,,,,,,,,,,,,,,,,,,,,,,,,,,,,,,,,,,,,,,,,,,,,,,,,,
,,,,,,5f338ba6ea047119dbd6e49e,62bbf9a95d8e00a17248ed1a,2022-06-29_09h05.46.616,Colour_Asymmetry_Pilot,2022.1.3,Win32,59.79788315,62bbe60bf3d75ef465d3e404,0,68,68,90,1,twoone,,,,,,,,,,,,,,,,,,,,,,,,,,,,,,,,,,,,,,,,,,,,,,,,,,,,,,,,,,,,,,,,,,,,,,,,,,,,,,,,,,,,,,,,,,,,,,,,,,,,,,,,,,,,,,,,,,,,,,,,,,,,,,,,,,,,,,,,,,,,,,,,,,,,,,,,
,,,,,,5f338ba6ea047119dbd6e49e,62bbf9a95d8e00a17248ed1a,2022-06-29_09h05.46.616,Colour_Asymmetry_Pilot,2022.1.3,Win32,59.79788315,62bbe60bf3d75ef465d3e404,0,69,69,135,1,fourthree,,,,,,,,,,,,,,,,,,,,,,,,,,,,,,,,,,,,,,,,,,,,,,,,,,,,,,,,,,,,,,,,,,,,,,,,,,,,,,,,,,,,,,,,,,,,,,,,,,,,,,,,,,,,,,,,,,,,,,,,,,,,,,,,,,,,,,,,,,,,,,,,,,,,,,,,
,,,,,,5f338ba6ea047119dbd6e49e,62bbf9a95d8e00a17248ed1a,2022-06-29_09h05.46.616,Colour_Asymmetry_Pilot,2022.1.3,Win32,59.79788315,62bbe60bf3d75ef465d3e404,0,70,70,20,1,threeone,,,,,,,,,,,,,,,,,,,,,,,,,,,,,,,,,,,,,,,,,,,,,,,,,,,,,,,,,,,,,,,,,,,,,,,,,,,,,,,,,,,,,,,,,,,,,,,,,,,,,,,,,,,,,,,,,,,,,,,,,,,,,,,,,,,,,,,,,,,,,,,,,,,,,,,,
,,,,,,5f338ba6ea047119dbd6e49e,62bbf9a95d8e00a17248ed1a,2022-06-29_09h05.46.616,Colour_Asymmetry_Pilot,2022.1.3,Win32,59.79788315,62bbe60bf3d75ef465d3e404,0,71,71,154,1,twoone,,,,,,,,,,,,,,,,,,,,,,,,,,,,,,,,,,,,,,,,,,,,,,,,,,,,,,,,,,,,,,,,,,,,,,,,,,,,,,,,,,,,,,,,,,,,,,,,,,,,,,,,,,,,,,,,,,,,,,,,,,,,,,,,,,,,,,,,,,,,,,,,,,,,,,,,
,,,,,,5f338ba6ea047119dbd6e49e,62bbf9a95d8e00a17248ed1a,2022-06-29_09h05.46.616,Colour_Asymmetry_Pilot,2022.1.3,Win32,59.79788315,62bbe60bf3d75ef465d3e404,0,72,72,101,1,threefour,,,,,,,,,,,,,,,,,,,,,,,,,,,,,,,,,,,,,,,,,,,,,,,,,,,,,,,,,,,,,,,,,,,,,,,,,,,,,,,,,,,,,,,,,,,,,,,,,,,,,,,,,,,,,,,,,,,,,,,,,,,,,,,,,,,,,,,,,,,,,,,,,,,,,,,,
,,,,,,5f338ba6ea047119dbd6e49e,62bbf9a95d8e00a17248ed1a,2022-06-29_09h05.46.616,Colour_Asymmetry_Pilot,2022.1.3,Win32,59.79788315,62bbe60bf3d75ef465d3e404,0,73,73,141,1,threefour,,,,,,,,,,,,,,,,,,,,,,,,,,,,,,,,,,,,,,,,,,,,,,,,,,,,,,,,,,,,,,,,,,,,,,,,,,,,,,,,,,,,,,,,,,,,,,,,,,,,,,,,,,,,,,,,,,,,,,,,,,,,,,,,,,,,,,,,,,,,,,,,,,,,,,,,
,,,,,,5f338ba6ea047119dbd6e49e,62bbf9a95d8e00a17248ed1a,2022-06-29_09h05.46.616,Colour_Asymmetry_Pilot,2022.1.3,Win32,59.79788315,62bbe60bf3d75ef465d3e404,0,74,74,3,1,twofour,,,,,,,,,,,,,,,,,,,,,,,,,,,,,,,,,,,,,,,,,,,,,,,,,,,,,,,,,,,,,,,,,,,,,,,,,,,,,,,,,,,,,,,,,,,,,,,,,,,,,,,,,,,,,,,,,,,,,,,,,,,,,,,,,,,,,,,,,,,,,,,,,,,,,,,,
,,,,,,5f338ba6ea047119dbd6e49e,62bbf9a95d8e00a17248ed1a,2022-06-29_09h05.46.616,Colour_Asymmetry_Pilot,2022.1.3,Win32,59.79788315,62bbe60bf3d75ef465d3e404,0,75,75,73,1,onethree,,,,,,,,,,,,,,,,,,,,,,,,,,,,,,,,,,,,,,,,,,,,,,,,,,,,,,,,,,,,,,,,,,,,,,,,,,,,,,,,,,,,,,,,,,,,,,,,,,,,,,,,,,,,,,,,,,,,,,,,,,,,,,,,,,,,,,,,,,,,,,,,,,,,,,,,
,,,,,,5f338ba6ea047119dbd6e49e,62bbf9a95d8e00a17248ed1a,2022-06-29_09h05.46.616,Colour_Asymmetry_Pilot,2022.1.3,Win32,59.79788315,62bbe60bf3d75ef465d3e404,0,76,76,160,1,onetwo,,,,,,,,,,,,,,,,,,,,,,,,,,,,,,,,,,,,,,,,,,,,,,,,,,,,,,,,,,,,,,,,,,,,,,,,,,,,,,,,,,,,,,,,,,,,,,,,,,,,,,,,,,,,,,,,,,,,,,,,,,,,,,,,,,,,,,,,,,,,,,,,,,,,,,,,
,,,,,,5f338ba6ea047119dbd6e49e,62bbf9a95d8e00a17248ed1a,2022-06-29_09h05.46.616,Colour_Asymmetry_Pilot,2022.1.3,Win32,59.79788315,62bbe60bf3d75ef465d3e404,0,77,77,32,1,onetwo,,,,,,,,,,,,,,,,,,,,,,,,,,,,,,,,,,,,,,,,,,,,,,,,,,,,,,,,,,,,,,,,,,,,,,,,,,,,,,,,,,,,,,,,,,,,,,,,,,,,,,,,,,,,,,,,,,,,,,,,,,,,,,,,,,,,,,,,,,,,,,,,,,,,,,,,
,,,,,,5f338ba6ea047119dbd6e49e,62bbf9a95d8e00a17248ed1a,2022-06-29_09h05.46.616,Colour_Asymmetry_Pilot,2022.1.3,Win32,59.79788315,62bbe60bf3d75ef465d3e404,0,78,78,48,1,onetwo,,,,,,,,,,,,,,,,,,,,,,,,,,,,,,,,,,,,,,,,,,,,,,,,,,,,,,,,,,,,,,,,,,,,,,,,,,,,,,,,,,,,,,,,,,,,,,,,,,,,,,,,,,,,,,,,,,,,,,,,,,,,,,,,,,,,,,,,,,,,,,,,,,,,,,,,
,,,,,,5f338ba6ea047119dbd6e49e,62bbf9a95d8e00a17248ed1a,2022-06-29_09h05.46.616,Colour_Asymmetry_Pilot,2022.1.3,Win32,59.79788315,62bbe60bf3d75ef465d3e404,0,79,79,78,1,fourtwo,,,,,,,,,,,,,,,,,,,,,,,,,,,,,,,,,,,,,,,,,,,,,,,,,,,,,,,,,,,,,,,,,,,,,,,,,,,,,,,,,,,,,,,,,,,,,,,,,,,,,,,,,,,,,,,,,,,,,,,,,,,,,,,,,,,,,,,,,,,,,,,,,,,,,,,,
,,,,,,5f338ba6ea047119dbd6e49e,62bbf9a95d8e00a17248ed1a,2022-06-29_09h05.46.616,Colour_Asymmetry_Pilot,2022.1.3,Win32,59.79788315,62bbe60bf3d75ef465d3e404,0,80,80,117,1,threefour,,,,,,,,,,,,,,,,,,,,,,,,,,,,,,,,,,,,,,,,,,,,,,,,,,,,,,,,,,,,,,,,,,,,,,,,,,,,,,,,,,,,,,,,,,,,,,,,,,,,,,,,,,,,,,,,,,,,,,,,,,,,,,,,,,,,,,,,,,,,,,,,,,,,,,,,
,,,,,,5f338ba6ea047119dbd6e49e,62bbf9a95d8e00a17248ed1a,2022-06-29_09h05.46.616,Colour_Asymmetry_Pilot,2022.1.3,Win32,59.79788315,62bbe60bf3d75ef465d3e404,0,81,81,57,1,onethree,,,,,,,,,,,,,,,,,,,,,,,,,,,,,,,,,,,,,,,,,,,,,,,,,,,,,,,,,,,,,,,,,,,,,,,,,,,,,,,,,,,,,,,,,,,,,,,,,,,,,,,,,,,,,,,,,,,,,,,,,,,,,,,,,,,,,,,,,,,,,,,,,,,,,,,,
,,,,,,5f338ba6ea047119dbd6e49e,62bbf9a95d8e00a17248ed1a,2022-06-29_09h05.46.616,Colour_Asymmetry_Pilot,2022.1.3,Win32,59.79788315,62bbe60bf3d75ef465d3e404,0,82,82,109,1,threefour,,,,,,,,,,,,,,,,,,,,,,,,,,,,,,,,,,,,,,,,,,,,,,,,,,,,,,,,,,,,,,,,,,,,,,,,,,,,,,,,,,,,,,,,,,,,,,,,,,,,,,,,,,,,,,,,,,,,,,,,,,,,,,,,,,,,,,,,,,,,,,,,,,,,,,,,
,,,,,,5f338ba6ea047119dbd6e49e,62bbf9a95d8e00a17248ed1a,2022-06-29_09h05.46.616,Colour_Asymmetry_Pilot,2022.1.3,Win32,59.79788315,62bbe60bf3d75ef465d3e404,0,83,83,43,1,twofour,,,,,,,,,,,,,,,,,,,,,,,,,,,,,,,,,,,,,,,,,,,,,,,,,,,,,,,,,,,,,,,,,,,,,,,,,,,,,,,,,,,,,,,,,,,,,,,,,,,,,,,,,,,,,,,,,,,,,,,,,,,,,,,,,,,,,,,,,,,,,,,,,,,,,,,,
,,,,,,5f338ba6ea047119dbd6e49e,62bbf9a95d8e00a17248ed1a,2022-06-29_09h05.46.616,Colour_Asymmetry_Pilot,2022.1.3,Win32,59.79788315,62bbe60bf3d75ef465d3e404,0,84,84,30,1,fourtwo,,,,,,,,,,,,,,,,,,,,,,,,,,,,,,,,,,,,,,,,,,,,,,,,,,,,,,,,,,,,,,,,,,,,,,,,,,,,,,,,,,,,,,,,,,,,,,,,,,,,,,,,,,,,,,,,,,,,,,,,,,,,,,,,,,,,,,,,,,,,,,,,,,,,,,,,
,,,,,,5f338ba6ea047119dbd6e49e,62bbf9a95d8e00a17248ed1a,2022-06-29_09h05.46.616,Colour_Asymmetry_Pilot,2022.1.3,Win32,59.79788315,62bbe60bf3d75ef465d3e404,0,85,85,123,1,twofour,,,,,,,,,,,,,,,,,,,,,,,,,,,,,,,,,,,,,,,,,,,,,,,,,,,,,,,,,,,,,,,,,,,,,,,,,,,,,,,,,,,,,,,,,,,,,,,,,,,,,,,,,,,,,,,,,,,,,,,,,,,,,,,,,,,,,,,,,,,,,,,,,,,,,,,,
,,,,,,5f338ba6ea047119dbd6e49e,62bbf9a95d8e00a17248ed1a,2022-06-29_09h05.46.616,Colour_Asymmetry_Pilot,2022.1.3,Win32,59.79788315,62bbe60bf3d75ef465d3e404,0,86,86,91,1,twofour,,,,,,,,,,,,,,,,,,,,,,,,,,,,,,,,,,,,,,,,,,,,,,,,,,,,,,,,,,,,,,,,,,,,,,,,,,,,,,,,,,,,,,,,,,,,,,,,,,,,,,,,,,,,,,,,,,,,,,,,,,,,,,,,,,,,,,,,,,,,,,,,,,,,,,,,
,,,,,,5f338ba6ea047119dbd6e49e,62bbf9a95d8e00a17248ed1a,2022-06-29_09h05.46.616,Colour_Asymmetry_Pilot,2022.1.3,Win32,59.79788315,62bbe60bf3d75ef465d3e404,0,87,87,99,1,twofour,,,,,,,,,,,,,,,,,,,,,,,,,,,,,,,,,,,,,,,,,,,,,,,,,,,,,,,,,,,,,,,,,,,,,,,,,,,,,,,,,,,,,,,,,,,,,,,,,,,,,,,,,,,,,,,,,,,,,,,,,,,,,,,,,,,,,,,,,,,,,,,,,,,,,,,,
,,,,,,5f338ba6ea047119dbd6e49e,62bbf9a95d8e00a17248ed1a,2022-06-29_09h05.46.616,Colour_Asymmetry_Pilot,2022.1.3,Win32,59.79788315,62bbe60bf3d75ef465d3e404,0,88,88,13,1,threefour,,,,,,,,,,,,,,,,,,,,,,,,,,,,,,,,,,,,,,,,,,,,,,,,,,,,,,,,,,,,,,,,,,,,,,,,,,,,,,,,,,,,,,,,,,,,,,,,,,,,,,,,,,,,,,,,,,,,,,,,,,,,,,,,,,,,,,,,,,,,,,,,,,,,,,,,
,,,,,,5f338ba6ea047119dbd6e49e,62bbf9a95d8e00a17248ed1a,2022-06-29_09h05.46.616,Colour_Asymmetry_Pilot,2022.1.3,Win32,59.79788315,62bbe60bf3d75ef465d3e404,0,89,89,25,1,onethree,,,,,,,,,,,,,,,,,,,,,,,,,,,,,,,,,,,,,,,,,,,,,,,,,,,,,,,,,,,,,,,,,,,,,,,,,,,,,,,,,,,,,,,,,,,,,,,,,,,,,,,,,,,,,,,,,,,,,,,,,,,,,,,,,,,,,,,,,,,,,,,,,,,,,,,,
,,,,,,5f338ba6ea047119dbd6e49e,62bbf9a95d8e00a17248ed1a,2022-06-29_09h05.46.616,Colour_Asymmetry_Pilot,2022.1.3,Win32,59.79788315,62bbe60bf3d75ef465d3e404,0,90,90,58,1,twoone,,,,,,,,,,,,,,,,,,,,,,,,,,,,,,,,,,,,,,,,,,,,,,,,,,,,,,,,,,,,,,,,,,,,,,,,,,,,,,,,,,,,,,,,,,,,,,,,,,,,,,,,,,,,,,,,,,,,,,,,,,,,,,,,,,,,,,,,,,,,,,,,,,,,,,,,
,,,,,,5f338ba6ea047119dbd6e49e,62bbf9a95d8e00a17248ed1a,2022-06-29_09h05.46.616,Colour_Asymmetry_Pilot,2022.1.3,Win32,59.79788315,62bbe60bf3d75ef465d3e404,0,91,91,52,1,threeone,,,,,,,,,,,,,,,,,,,,,,,,,,,,,,,,,,,,,,,,,,,,,,,,,,,,,,,,,,,,,,,,,,,,,,,,,,,,,,,,,,,,,,,,,,,,,,,,,,,,,,,,,,,,,,,,,,,,,,,,,,,,,,,,,,,,,,,,,,,,,,,,,,,,,,,,
,,,,,,5f338ba6ea047119dbd6e49e,62bbf9a95d8e00a17248ed1a,2022-06-29_09h05.46.616,Colour_Asymmetry_Pilot,2022.1.3,Win32,59.79788315,62bbe60bf3d75ef465d3e404,0,92,92,94,1,fourtwo,,,,,,,,,,,,,,,,,,,,,,,,,,,,,,,,,,,,,,,,,,,,,,,,,,,,,,,,,,,,,,,,,,,,,,,,,,,,,,,,,,,,,,,,,,,,,,,,,,,,,,,,,,,,,,,,,,,,,,,,,,,,,,,,,,,,,,,,,,,,,,,,,,,,,,,,
,,,,,,5f338ba6ea047119dbd6e49e,62bbf9a95d8e00a17248ed1a,2022-06-29_09h05.46.616,Colour_Asymmetry_Pilot,2022.1.3,Win32,59.79788315,62bbe60bf3d75ef465d3e404,0,93,93,75,1,twofour,,,,,,,,,,,,,,,,,,,,,,,,,,,,,,,,,,,,,,,,,,,,,,,,,,,,,,,,,,,,,,,,,,,,,,,,,,,,,,,,,,,,,,,,,,,,,,,,,,,,,,,,,,,,,,,,,,,,,,,,,,,,,,,,,,,,,,,,,,,,,,,,,,,,,,,,
,,,,,,5f338ba6ea047119dbd6e49e,62bbf9a95d8e00a17248ed1a,2022-06-29_09h05.46.616,Colour_Asymmetry_Pilot,2022.1.3,Win32,59.79788315,62bbe60bf3d75ef465d3e404,0,94,94,29,1,threefour,,,,,,,,,,,,,,,,,,,,,,,,,,,,,,,,,,,,,,,,,,,,,,,,,,,,,,,,,,,,,,,,,,,,,,,,,,,,,,,,,,,,,,,,,,,,,,,,,,,,,,,,,,,,,,,,,,,,,,,,,,,,,,,,,,,,,,,,,,,,,,,,,,,,,,,,
,,,,,,5f338ba6ea047119dbd6e49e,62bbf9a95d8e00a17248ed1a,2022-06-29_09h05.46.616,Colour_Asymmetry_Pilot,2022.1.3,Win32,59.79788315,62bbe60bf3d75ef465d3e404,0,95,95,55,1,fourthree,,,,,,,,,,,,,,,,,,,,,,,,,,,,,,,,,,,,,,,,,,,,,,,,,,,,,,,,,,,,,,,,,,,,,,,,,,,,,,,,,,,,,,,,,,,,,,,,,,,,,,,,,,,,,,,,,,,,,,,,,,,,,,,,,,,,,,,,,,,,,,,,,,,,,,,,
,,,,,,5f338ba6ea047119dbd6e49e,62bbf9a95d8e00a17248ed1a,2022-06-29_09h05.46.616,Colour_Asymmetry_Pilot,2022.1.3,Win32,59.79788315,62bbe60bf3d75ef465d3e404,0,96,96,71,1,fourthree,,,,,,,,,,,,,,,,,,,,,,,,,,,,,,,,,,,,,,,,,,,,,,,,,,,,,,,,,,,,,,,,,,,,,,,,,,,,,,,,,,,,,,,,,,,,,,,,,,,,,,,,,,,,,,,,,,,,,,,,,,,,,,,,,,,,,,,,,,,,,,,,,,,,,,,,
,,,,,,5f338ba6ea047119dbd6e49e,62bbf9a95d8e00a17248ed1a,2022-06-29_09h05.46.616,Colour_Asymmetry_Pilot,2022.1.3,Win32,59.79788315,62bbe60bf3d75ef465d3e404,0,97,97,127,1,fourthree,,,,,,,,,,,,,,,,,,,,,,,,,,,,,,,,,,,,,,,,,,,,,,,,,,,,,,,,,,,,,,,,,,,,,,,,,,,,,,,,,,,,,,,,,,,,,,,,,,,,,,,,,,,,,,,,,,,,,,,,,,,,,,,,,,,,,,,,,,,,,,,,,,,,,,,,
,,,,,,5f338ba6ea047119dbd6e49e,62bbf9a95d8e00a17248ed1a,2022-06-29_09h05.46.616,Colour_Asymmetry_Pilot,2022.1.3,Win32,59.79788315,62bbe60bf3d75ef465d3e404,0,98,98,102,1,fourtwo,,,,,,,,,,,,,,,,,,,,,,,,,,,,,,,,,,,,,,,,,,,,,,,,,,,,,,,,,,,,,,,,,,,,,,,,,,,,,,,,,,,,,,,,,,,,,,,,,,,,,,,,,,,,,,,,,,,,,,,,,,,,,,,,,,,,,,,,,,,,,,,,,,,,,,,,
,,,,,,5f338ba6ea047119dbd6e49e,62bbf9a95d8e00a17248ed1a,2022-06-29_09h05.46.616,Colour_Asymmetry_Pilot,2022.1.3,Win32,59.79788315,62bbe60bf3d75ef465d3e404,0,99,99,10,1,twoone,,,,,,,,,,,,,,,,,,,,,,,,,,,,,,,,,,,,,,,,,,,,,,,,,,,,,,,,,,,,,,,,,,,,,,,,,,,,,,,,,,,,,,,,,,,,,,,,,,,,,,,,,,,,,,,,,,,,,,,,,,,,,,,,,,,,,,,,,,,,,,,,,,,,,,,,
,,,,,,5f338ba6ea047119dbd6e49e,62bbf9a95d8e00a17248ed1a,2022-06-29_09h05.46.616,Colour_Asymmetry_Pilot,2022.1.3,Win32,59.79788315,62bbe60bf3d75ef465d3e404,0,100,100,84,1,threeone,,,,,,,,,,,,,,,,,,,,,,,,,,,,,,,,,,,,,,,,,,,,,,,,,,,,,,,,,,,,,,,,,,,,,,,,,,,,,,,,,,,,,,,,,,,,,,,,,,,,,,,,,,,,,,,,,,,,,,,,,,,,,,,,,,,,,,,,,,,,,,,,,,,,,,,,
,,,,,,5f338ba6ea047119dbd6e49e,62bbf9a95d8e00a17248ed1a,2022-06-29_09h05.46.616,Colour_Asymmetry_Pilot,2022.1.3,Win32,59.79788315,62bbe60bf3d75ef465d3e404,0,101,101,53,1,threefour,,,,,,,,,,,,,,,,,,,,,,,,,,,,,,,,,,,,,,,,,,,,,,,,,,,,,,,,,,,,,,,,,,,,,,,,,,,,,,,,,,,,,,,,,,,,,,,,,,,,,,,,,,,,,,,,,,,,,,,,,,,,,,,,,,,,,,,,,,,,,,,,,,,,,,,,
,,,,,,5f338ba6ea047119dbd6e49e,62bbf9a95d8e00a17248ed1a,2022-06-29_09h05.46.616,Colour_Asymmetry_Pilot,2022.1.3,Win32,59.79788315,62bbe60bf3d75ef465d3e404,0,102,102,89,1,onethree,,,,,,,,,,,,,,,,,,,,,,,,,,,,,,,,,,,,,,,,,,,,,,,,,,,,,,,,,,,,,,,,,,,,,,,,,,,,,,,,,,,,,,,,,,,,,,,,,,,,,,,,,,,,,,,,,,,,,,,,,,,,,,,,,,,,,,,,,,,,,,,,,,,,,,,,
,,,,,,5f338ba6ea047119dbd6e49e,62bbf9a95d8e00a17248ed1a,2022-06-29_09h05.46.616,Colour_Asymmetry_Pilot,2022.1.3,Win32,59.79788315,62bbe60bf3d75ef465d3e404,0,103,103,16,1,onetwo,,,,,,,,,,,,,,,,,,,,,,,,,,,,,,,,,,,,,,,,,,,,,,,,,,,,,,,,,,,,,,,,,,,,,,,,,,,,,,,,,,,,,,,,,,,,,,,,,,,,,,,,,,,,,,,,,,,,,,,,,,,,,,,,,,,,,,,,,,,,,,,,,,,,,,,,
,,,,,,5f338ba6ea047119dbd6e49e,62bbf9a95d8e00a17248ed1a,2022-06-29_09h05.46.616,Colour_Asymmetry_Pilot,2022.1.3,Win32,59.79788315,62bbe60bf3d75ef465d3e404,0,104,104,108,1,threeone,,,,,,,,,,,,,,,,,,,,,,,,,,,,,,,,,,,,,,,,,,,,,,,,,,,,,,,,,,,,,,,,,,,,,,,,,,,,,,,,,,,,,,,,,,,,,,,,,,,,,,,,,,,,,,,,,,,,,,,,,,,,,,,,,,,,,,,,,,,,,,,,,,,,,,,,
,,,,,,5f338ba6ea047119dbd6e49e,62bbf9a95d8e00a17248ed1a,2022-06-29_09h05.46.616,Colour_Asymmetry_Pilot,2022.1.3,Win32,59.79788315,62bbe60bf3d75ef465d3e404,0,105,105,67,1,twofour,,,,,,,,,,,,,,,,,,,,,,,,,,,,,,,,,,,,,,,,,,,,,,,,,,,,,,,,,,,,,,,,,,,,,,,,,,,,,,,,,,,,,,,,,,,,,,,,,,,,,,,,,,,,,,,,,,,,,,,,,,,,,,,,,,,,,,,,,,,,,,,,,,,,,,,,
,,,,,,5f338ba6ea047119dbd6e49e,62bbf9a95d8e00a17248ed1a,2022-06-29_09h05.46.616,Colour_Asymmetry_Pilot,2022.1.3,Win32,59.79788315,62bbe60bf3d75ef465d3e404,0,106,106,51,1,twofour,,,,,,,,,,,,,,,,,,,,,,,,,,,,,,,,,,,,,,,,,,,,,,,,,,,,,,,,,,,,,,,,,,,,,,,,,,,,,,,,,,,,,,,,,,,,,,,,,,,,,,,,,,,,,,,,,,,,,,,,,,,,,,,,,,,,,,,,,,,,,,,,,,,,,,,,
,,,,,,5f338ba6ea047119dbd6e49e,62bbf9a95d8e00a17248ed1a,2022-06-29_09h05.46.616,Colour_Asymmetry_Pilot,2022.1.3,Win32,59.79788315,62bbe60bf3d75ef465d3e404,0,107,107,44,1,threeone,,,,,,,,,,,,,,,,,,,,,,,,,,,,,,,,,,,,,,,,,,,,,,,,,,,,,,,,,,,,,,,,,,,,,,,,,,,,,,,,,,,,,,,,,,,,,,,,,,,,,,,,,,,,,,,,,,,,,,,,,,,,,,,,,,,,,,,,,,,,,,,,,,,,,,,,
,,,,,,5f338ba6ea047119dbd6e49e,62bbf9a95d8e00a17248ed1a,2022-06-29_09h05.46.616,Colour_Asymmetry_Pilot,2022.1.3,Win32,59.79788315,62bbe60bf3d75ef465d3e404,0,108,108,14,1,fourtwo,,,,,,,,,,,,,,,,,,,,,,,,,,,,,,,,,,,,,,,,,,,,,,,,,,,,,,,,,,,,,,,,,,,,,,,,,,,,,,,,,,,,,,,,,,,,,,,,,,,,,,,,,,,,,,,,,,,,,,,,,,,,,,,,,,,,,,,,,,,,,,,,,,,,,,,,
,,,,,,5f338ba6ea047119dbd6e49e,62bbf9a95d8e00a17248ed1a,2022-06-29_09h05.46.616,Colour_Asymmetry_Pilot,2022.1.3,Win32,59.79788315,62bbe60bf3d75ef465d3e404,0,109,109,12,1,threeone,,,,,,,,,,,,,,,,,,,,,,,,,,,,,,,,,,,,,,,,,,,,,,,,,,,,,,,,,,,,,,,,,,,,,,,,,,,,,,,,,,,,,,,,,,,,,,,,,,,,,,,,,,,,,,,,,,,,,,,,,,,,,,,,,,,,,,,,,,,,,,,,,,,,,,,,
,,,,,,5f338ba6ea047119dbd6e49e,62bbf9a95d8e00a17248ed1a,2022-06-29_09h05.46.616,Colour_Asymmetry_Pilot,2022.1.3,Win32,59.79788315,62bbe60bf3d75ef465d3e404,0,110,110,95,1,fourthree,,,,,,,,,,,,,,,,,,,,,,,,,,,,,,,,,,,,,,,,,,,,,,,,,,,,,,,,,,,,,,,,,,,,,,,,,,,,,,,,,,,,,,,,,,,,,,,,,,,,,,,,,,,,,,,,,,,,,,,,,,,,,,,,,,,,,,,,,,,,,,,,,,,,,,,,
,,,,,,5f338ba6ea047119dbd6e49e,62bbf9a95d8e00a17248ed1a,2022-06-29_09h05.46.616,Colour_Asymmetry_Pilot,2022.1.3,Win32,59.79788315,62bbe60bf3d75ef465d3e404,0,111,111,39,1,fourthree,,,,,,,,,,,,,,,,,,,,,,,,,,,,,,,,,,,,,,,,,,,,,,,,,,,,,,,,,,,,,,,,,,,,,,,,,,,,,,,,,,,,,,,,,,,,,,,,,,,,,,,,,,,,,,,,,,,,,,,,,,,,,,,,,,,,,,,,,,,,,,,,,,,,,,,,
,,,,,,5f338ba6ea047119dbd6e49e,62bbf9a95d8e00a17248ed1a,2022-06-29_09h05.46.616,Colour_Asymmetry_Pilot,2022.1.3,Win32,59.79788315,62bbe60bf3d75ef465d3e404,0,112,112,81,1,onethree,,,,,,,,,,,,,,,,,,,,,,,,,,,,,,,,,,,,,,,,,,,,,,,,,,,,,,,,,,,,,,,,,,,,,,,,,,,,,,,,,,,,,,,,,,,,,,,,,,,,,,,,,,,,,,,,,,,,,,,,,,,,,,,,,,,,,,,,,,,,,,,,,,,,,,,,
,,,,,,5f338ba6ea047119dbd6e49e,62bbf9a95d8e00a17248ed1a,2022-06-29_09h05.46.616,Colour_Asymmetry_Pilot,2022.1.3,Win32,59.79788315,62bbe60bf3d75ef465d3e404,0,113,113,136,1,onetwo,,,,,,,,,,,,,,,,,,,,,,,,,,,,,,,,,,,,,,,,,,,,,,,,,,,,,,,,,,,,,,,,,,,,,,,,,,,,,,,,,,,,,,,,,,,,,,,,,,,,,,,,,,,,,,,,,,,,,,,,,,,,,,,,,,,,,,,,,,,,,,,,,,,,,,,,
,,,,,,5f338ba6ea047119dbd6e49e,62bbf9a95d8e00a17248ed1a,2022-06-29_09h05.46.616,Colour_Asymmetry_Pilot,2022.1.3,Win32,59.79788315,62bbe60bf3d75ef465d3e404,0,114,114,145,1,onethree,,,,,,,,,,,,,,,,,,,,,,,,,,,,,,,,,,,,,,,,,,,,,,,,,,,,,,,,,,,,,,,,,,,,,,,,,,,,,,,,,,,,,,,,,,,,,,,,,,,,,,,,,,,,,,,,,,,,,,,,,,,,,,,,,,,,,,,,,,,,,,,,,,,,,,,,
,,,,,,5f338ba6ea047119dbd6e49e,62bbf9a95d8e00a17248ed1a,2022-06-29_09h05.46.616,Colour_Asymmetry_Pilot,2022.1.3,Win32,59.79788315,62bbe60bf3d75ef465d3e404,0,115,115,60,1,threeone,,,,,,,,,,,,,,,,,,,,,,,,,,,,,,,,,,,,,,,,,,,,,,,,,,,,,,,,,,,,,,,,,,,,,,,,,,,,,,,,,,,,,,,,,,,,,,,,,,,,,,,,,,,,,,,,,,,,,,,,,,,,,,,,,,,,,,,,,,,,,,,,,,,,,,,,
,,,,,,5f338ba6ea047119dbd6e49e,62bbf9a95d8e00a17248ed1a,2022-06-29_09h05.46.616,Colour_Asymmetry_Pilot,2022.1.3,Win32,59.79788315,62bbe60bf3d75ef465d3e404,0,116,116,76,1,threeone,,,,,,,,,,,,,,,,,,,,,,,,,,,,,,,,,,,,,,,,,,,,,,,,,,,,,,,,,,,,,,,,,,,,,,,,,,,,,,,,,,,,,,,,,,,,,,,,,,,,,,,,,,,,,,,,,,,,,,,,,,,,,,,,,,,,,,,,,,,,,,,,,,,,,,,,
,,,,,,5f338ba6ea047119dbd6e49e,62bbf9a95d8e00a17248ed1a,2022-06-29_09h05.46.616,Colour_Asymmetry_Pilot,2022.1.3,Win32,59.79788315,62bbe60bf3d75ef465d3e404,0,117,117,156,1,threeone,,,,,,,,,,,,,,,,,,,,,,,,,,,,,,,,,,,,,,,,,,,,,,,,,,,,,,,,,,,,,,,,,,,,,,,,,,,,,,,,,,,,,,,,,,,,,,,,,,,,,,,,,,,,,,,,,,,,,,,,,,,,,,,,,,,,,,,,,,,,,,,,,,,,,,,,
,,,,,,5f338ba6ea047119dbd6e49e,62bbf9a95d8e00a17248ed1a,2022-06-29_09h05.46.616,Colour_Asymmetry_Pilot,2022.1.3,Win32,59.79788315,62bbe60bf3d75ef465d3e404,0,118,118,18,1,twoone,,,,,,,,,,,,,,,,,,,,,,,,,,,,,,,,,,,,,,,,,,,,,,,,,,,,,,,,,,,,,,,,,,,,,,,,,,,,,,,,,,,,,,,,,,,,,,,,,,,,,,,,,,,,,,,,,,,,,,,,,,,,,,,,,,,,,,,,,,,,,,,,,,,,,,,,
,,,,,,5f338ba6ea047119dbd6e49e,62bbf9a95d8e00a17248ed1a,2022-06-29_09h05.46.616,Colour_Asymmetry_Pilot,2022.1.3,Win32,59.79788315,62bbe60bf3d75ef465d3e404,0,119,119,66,1,twoone,,,,,,,,,,,,,,,,,,,,,,,,,,,,,,,,,,,,,,,,,,,,,,,,,,,,,,,,,,,,,,,,,,,,,,,,,,,,,,,,,,,,,,,,,,,,,,,,,,,,,,,,,,,,,,,,,,,,,,,,,,,,,,,,,,,,,,,,,,,,,,,,,,,,,,,,
,,,,,,5f338ba6ea047119dbd6e49e,62bbf9a95d8e00a17248ed1a,2022-06-29_09h05.46.616,Colour_Asymmetry_Pilot,2022.1.3,Win32,59.79788315,62bbe60bf3d75ef465d3e404,0,120,120,64,1,onetwo,,,,,,,,,,,,,,,,,,,,,,,,,,,,,,,,,,,,,,,,,,,,,,,,,,,,,,,,,,,,,,,,,,,,,,,,,,,,,,,,,,,,,,,,,,,,,,,,,,,,,,,,,,,,,,,,,,,,,,,,,,,,,,,,,,,,,,,,,,,,,,,,,,,,,,,,
,,,,,,5f338ba6ea047119dbd6e49e,62bbf9a95d8e00a17248ed1a,2022-06-29_09h05.46.616,Colour_Asymmetry_Pilot,2022.1.3,Win32,59.79788315,62bbe60bf3d75ef465d3e404,0,121,121,139,1,twofour,,,,,,,,,,,,,,,,,,,,,,,,,,,,,,,,,,,,,,,,,,,,,,,,,,,,,,,,,,,,,,,,,,,,,,,,,,,,,,,,,,,,,,,,,,,,,,,,,,,,,,,,,,,,,,,,,,,,,,,,,,,,,,,,,,,,,,,,,,,,,,,,,,,,,,,,
,,,,,,5f338ba6ea047119dbd6e49e,62bbf9a95d8e00a17248ed1a,2022-06-29_09h05.46.616,Colour_Asymmetry_Pilot,2022.1.3,Win32,59.79788315,62bbe60bf3d75ef465d3e404,0,122,122,46,1,fourtwo,,,,,,,,,,,,,,,,,,,,,,,,,,,,,,,,,,,,,,,,,,,,,,,,,,,,,,,,,,,,,,,,,,,,,,,,,,,,,,,,,,,,,,,,,,,,,,,,,,,,,,,,,,,,,,,,,,,,,,,,,,,,,,,,,,,,,,,,,,,,,,,,,,,,,,,,
,,,,,,5f338ba6ea047119dbd6e49e,62bbf9a95d8e00a17248ed1a,2022-06-29_09h05.46.616,Colour_Asymmetry_Pilot,2022.1.3,Win32,59.79788315,62bbe60bf3d75ef465d3e404,0,123,123,137,1,onethree,,,,,,,,,,,,,,,,,,,,,,,,,,,,,,,,,,,,,,,,,,,,,,,,,,,,,,,,,,,,,,,,,,,,,,,,,,,,,,,,,,,,,,,,,,,,,,,,,,,,,,,,,,,,,,,,,,,,,,,,,,,,,,,,,,,,,,,,,,,,,,,,,,,,,,,,
,,,,,,5f338ba6ea047119dbd6e49e,62bbf9a95d8e00a17248ed1a,2022-06-29_09h05.46.616,Colour_Asymmetry_Pilot,2022.1.3,Win32,59.79788315,62bbe60bf3d75ef465d3e404,0,124,124,79,1,fourthree,,,,,,,,,,,,,,,,,,,,,,,,,,,,,,,,,,,,,,,,,,,,,,,,,,,,,,,,,,,,,,,,,,,,,,,,,,,,,,,,,,,,,,,,,,,,,,,,,,,,,,,,,,,,,,,,,,,,,,,,,,,,,,,,,,,,,,,,,,,,,,,,,,,,,,,,
,,,,,,5f338ba6ea047119dbd6e49e,62bbf9a95d8e00a17248ed1a,2022-06-29_09h05.46.616,Colour_Asymmetry_Pilot,2022.1.3,Win32,59.79788315,62bbe60bf3d75ef465d3e404,0,125,125,88,1,onetwo,,,,,,,,,,,,,,,,,,,,,,,,,,,,,,,,,,,,,,,,,,,,,,,,,,,,,,,,,,,,,,,,,,,,,,,,,,,,,,,,,,,,,,,,,,,,,,,,,,,,,,,,,,,,,,,,,,,,,,,,,,,,,,,,,,,,,,,,,,,,,,,,,,,,,,,,
,,,,,,5f338ba6ea047119dbd6e49e,62bbf9a95d8e00a17248ed1a,2022-06-29_09h05.46.616,Colour_Asymmetry_Pilot,2022.1.3,Win32,59.79788315,62bbe60bf3d75ef465d3e404,0,126,126,155,1,twofour,,,,,,,,,,,,,,,,,,,,,,,,,,,,,,,,,,,,,,,,,,,,,,,,,,,,,,,,,,,,,,,,,,,,,,,,,,,,,,,,,,,,,,,,,,,,,,,,,,,,,,,,,,,,,,,,,,,,,,,,,,,,,,,,,,,,,,,,,,,,,,,,,,,,,,,,
,,,,,,5f338ba6ea047119dbd6e49e,62bbf9a95d8e00a17248ed1a,2022-06-29_09h05.46.616,Colour_Asymmetry_Pilot,2022.1.3,Win32,59.79788315,62bbe60bf3d75ef465d3e404,0,127,127,97,1,onethree,,,,,,,,,,,,,,,,,,,,,,,,,,,,,,,,,,,,,,,,,,,,,,,,,,,,,,,,,,,,,,,,,,,,,,,,,,,,,,,,,,,,,,,,,,,,,,,,,,,,,,,,,,,,,,,,,,,,,,,,,,,,,,,,,,,,,,,,,,,,,,,,,,,,,,,,
,,,,,,5f338ba6ea047119dbd6e49e,62bbf9a95d8e00a17248ed1a,2022-06-29_09h05.46.616,Colour_Asymmetry_Pilot,2022.1.3,Win32,59.79788315,62bbe60bf3d75ef465d3e404,0,128,128,56,1,onetwo,,,,,,,,,,,,,,,,,,,,,,,,,,,,,,,,,,,,,,,,,,,,,,,,,,,,,,,,,,,,,,,,,,,,,,,,,,,,,,,,,,,,,,,,,,,,,,,,,,,,,,,,,,,,,,,,,,,,,,,,,,,,,,,,,,,,,,,,,,,,,,,,,,,,,,,,
,,,,,,5f338ba6ea047119dbd6e49e,62bbf9a95d8e00a17248ed1a,2022-06-29_09h05.46.616,Colour_Asymmetry_Pilot,2022.1.3,Win32,59.79788315,62bbe60bf3d75ef465d3e404,0,129,129,138,1,twoone,,,,,,,,,,,,,,,,,,,,,,,,,,,,,,,,,,,,,,,,,,,,,,,,,,,,,,,,,,,,,,,,,,,,,,,,,,,,,,,,,,,,,,,,,,,,,,,,,,,,,,,,,,,,,,,,,,,,,,,,,,,,,,,,,,,,,,,,,,,,,,,,,,,,,,,,
,,,,,,5f338ba6ea047119dbd6e49e,62bbf9a95d8e00a17248ed1a,2022-06-29_09h05.46.616,Colour_Asymmetry_Pilot,2022.1.3,Win32,59.79788315,62bbe60bf3d75ef465d3e404,0,130,130,149,1,threefour,,,,,,,,,,,,,,,,,,,,,,,,,,,,,,,,,,,,,,,,,,,,,,,,,,,,,,,,,,,,,,,,,,,,,,,,,,,,,,,,,,,,,,,,,,,,,,,,,,,,,,,,,,,,,,,,,,,,,,,,,,,,,,,,,,,,,,,,,,,,,,,,,,,,,,,,
,,,,,,5f338ba6ea047119dbd6e49e,62bbf9a95d8e00a17248ed1a,2022-06-29_09h05.46.616,Colour_Asymmetry_Pilot,2022.1.3,Win32,59.79788315,62bbe60bf3d75ef465d3e404,0,131,131,36,1,threeone,,,,,,,,,,,,,,,,,,,,,,,,,,,,,,,,,,,,,,,,,,,,,,,,,,,,,,,,,,,,,,,,,,,,,,,,,,,,,,,,,,,,,,,,,,,,,,,,,,,,,,,,,,,,,,,,,,,,,,,,,,,,,,,,,,,,,,,,,,,,,,,,,,,,,,,,
,,,,,,5f338ba6ea047119dbd6e49e,62bbf9a95d8e00a17248ed1a,2022-06-29_09h05.46.616,Colour_Asymmetry_Pilot,2022.1.3,Win32,59.79788315,62bbe60bf3d75ef465d3e404,0,132,132,82,1,twoone,,,,,,,,,,,,,,,,,,,,,,,,,,,,,,,,,,,,,,,,,,,,,,,,,,,,,,,,,,,,,,,,,,,,,,,,,,,,,,,,,,,,,,,,,,,,,,,,,,,,,,,,,,,,,,,,,,,,,,,,,,,,,,,,,,,,,,,,,,,,,,,,,,,,,,,,
,,,,,,5f338ba6ea047119dbd6e49e,62bbf9a95d8e00a17248ed1a,2022-06-29_09h05.46.616,Colour_Asymmetry_Pilot,2022.1.3,Win32,59.79788315,62bbe60bf3d75ef465d3e404,0,133,133,116,1,threeone,,,,,,,,,,,,,,,,,,,,,,,,,,,,,,,,,,,,,,,,,,,,,,,,,,,,,,,,,,,,,,,,,,,,,,,,,,,,,,,,,,,,,,,,,,,,,,,,,,,,,,,,,,,,,,,,,,,,,,,,,,,,,,,,,,,,,,,,,,,,,,,,,,,,,,,,
,,,,,,5f338ba6ea047119dbd6e49e,62bbf9a95d8e00a17248ed1a,2022-06-29_09h05.46.616,Colour_Asymmetry_Pilot,2022.1.3,Win32,59.79788315,62bbe60bf3d75ef465d3e404,0,134,134,69,1,threefour,,,,,,,,,,,,,,,,,,,,,,,,,,,,,,,,,,,,,,,,,,,,,,,,,,,,,,,,,,,,,,,,,,,,,,,,,,,,,,,,,,,,,,,,,,,,,,,,,,,,,,,,,,,,,,,,,,,,,,,,,,,,,,,,,,,,,,,,,,,,,,,,,,,,,,,,
,,,,,,5f338ba6ea047119dbd6e49e,62bbf9a95d8e00a17248ed1a,2022-06-29_09h05.46.616,Colour_Asymmetry_Pilot,2022.1.3,Win32,59.79788315,62bbe60bf3d75ef465d3e404,0,135,135,59,1,twofour,,,,,,,,,,,,,,,,,,,,,,,,,,,,,,,,,,,,,,,,,,,,,,,,,,,,,,,,,,,,,,,,,,,,,,,,,,,,,,,,,,,,,,,,,,,,,,,,,,,,,,,,,,,,,,,,,,,,,,,,,,,,,,,,,,,,,,,,,,,,,,,,,,,,,,,,
,,,,,,5f338ba6ea047119dbd6e49e,62bbf9a95d8e00a17248ed1a,2022-06-29_09h05.46.616,Colour_Asymmetry_Pilot,2022.1.3,Win32,59.79788315,62bbe60bf3d75ef465d3e404,0,136,136,35,1,twofour,,,,,,,,,,,,,,,,,,,,,,,,,,,,,,,,,,,,,,,,,,,,,,,,,,,,,,,,,,,,,,,,,,,,,,,,,,,,,,,,,,,,,,,,,,,,,,,,,,,,,,,,,,,,,,,,,,,,,,,,,,,,,,,,,,,,,,,,,,,,,,,,,,,,,,,,
,,,,,,5f338ba6ea047119dbd6e49e,62bbf9a95d8e00a17248ed1a,2022-06-29_09h05.46.616,Colour_Asymmetry_Pilot,2022.1.3,Win32,59.79788315,62bbe60bf3d75ef465d3e404,0,137,137,40,1,onetwo,,,,,,,,,,,,,,,,,,,,,,,,,,,,,,,,,,,,,,,,,,,,,,,,,,,,,,,,,,,,,,,,,,,,,,,,,,,,,,,,,,,,,,,,,,,,,,,,,,,,,,,,,,,,,,,,,,,,,,,,,,,,,,,,,,,,,,,,,,,,,,,,,,,,,,,,
,,,,,,5f338ba6ea047119dbd6e49e,62bbf9a95d8e00a17248ed1a,2022-06-29_09h05.46.616,Colour_Asymmetry_Pilot,2022.1.3,Win32,59.79788315,62bbe60bf3d75ef465d3e404,0,138,138,126,1,fourtwo,,,,,,,,,,,,,,,,,,,,,,,,,,,,,,,,,,,,,,,,,,,,,,,,,,,,,,,,,,,,,,,,,,,,,,,,,,,,,,,,,,,,,,,,,,,,,,,,,,,,,,,,,,,,,,,,,,,,,,,,,,,,,,,,,,,,,,,,,,,,,,,,,,,,,,,,
,,,,,,5f338ba6ea047119dbd6e49e,62bbf9a95d8e00a17248ed1a,2022-06-29_09h05.46.616,Colour_Asymmetry_Pilot,2022.1.3,Win32,59.79788315,62bbe60bf3d75ef465d3e404,0,139,139,26,1,twoone,,,,,,,,,,,,,,,,,,,,,,,,,,,,,,,,,,,,,,,,,,,,,,,,,,,,,,,,,,,,,,,,,,,,,,,,,,,,,,,,,,,,,,,,,,,,,,,,,,,,,,,,,,,,,,,,,,,,,,,,,,,,,,,,,,,,,,,,,,,,,,,,,,,,,,,,
,,,,,,5f338ba6ea047119dbd6e49e,62bbf9a95d8e00a17248ed1a,2022-06-29_09h05.46.616,Colour_Asymmetry_Pilot,2022.1.3,Win32,59.79788315,62bbe60bf3d75ef465d3e404,0,140,140,0,1,onetwo,,,,,,,,,,,,,,,,,,,,,,,,,,,,,,,,,,,,,,,,,,,,,,,,,,,,,,,,,,,,,,,,,,,,,,,,,,,,,,,,,,,,,,,,,,,,,,,,,,,,,,,,,,,,,,,,,,,,,,,,,,,,,,,,,,,,,,,,,,,,,,,,,,,,,,,,
,,,,,,5f338ba6ea047119dbd6e49e,62bbf9a95d8e00a17248ed1a,2022-06-29_09h05.46.616,Colour_Asymmetry_Pilot,2022.1.3,Win32,59.79788315,62bbe60bf3d75ef465d3e404,0,141,141,19,1,twofour,,,,,,,,,,,,,,,,,,,,,,,,,,,,,,,,,,,,,,,,,,,,,,,,,,,,,,,,,,,,,,,,,,,,,,,,,,,,,,,,,,,,,,,,,,,,,,,,,,,,,,,,,,,,,,,,,,,,,,,,,,,,,,,,,,,,,,,,,,,,,,,,,,,,,,,,
,,,,,,5f338ba6ea047119dbd6e49e,62bbf9a95d8e00a17248ed1a,2022-06-29_09h05.46.616,Colour_Asymmetry_Pilot,2022.1.3,Win32,59.79788315,62bbe60bf3d75ef465d3e404,0,142,142,120,1,onetwo,,,,,,,,,,,,,,,,,,,,,,,,,,,,,,,,,,,,,,,,,,,,,,,,,,,,,,,,,,,,,,,,,,,,,,,,,,,,,,,,,,,,,,,,,,,,,,,,,,,,,,,,,,,,,,,,,,,,,,,,,,,,,,,,,,,,,,,,,,,,,,,,,,,,,,,,
,,,,,,5f338ba6ea047119dbd6e49e,62bbf9a95d8e00a17248ed1a,2022-06-29_09h05.46.616,Colour_Asymmetry_Pilot,2022.1.3,Win32,59.79788315,62bbe60bf3d75ef465d3e404,0,143,143,63,1,fourthree,,,,,,,,,,,,,,,,,,,,,,,,,,,,,,,,,,,,,,,,,,,,,,,,,,,,,,,,,,,,,,,,,,,,,,,,,,,,,,,,,,,,,,,,,,,,,,,,,,,,,,,,,,,,,,,,,,,,,,,,,,,,,,,,,,,,,,,,,,,,,,,,,,,,,,,,
,,,,,,5f338ba6ea047119dbd6e49e,62bbf9a95d8e00a17248ed1a,2022-06-29_09h05.46.616,Colour_Asymmetry_Pilot,2022.1.3,Win32,59.79788315,62bbe60bf3d75ef465d3e404,0,144,144,45,1,threefour,,,,,,,,,,,,,,,,,,,,,,,,,,,,,,,,,,,,,,,,,,,,,,,,,,,,,,,,,,,,,,,,,,,,,,,,,,,,,,,,,,,,,,,,,,,,,,,,,,,,,,,,,,,,,,,,,,,,,,,,,,,,,,,,,,,,,,,,,,,,,,,,,,,,,,,,
,,,,,,5f338ba6ea047119dbd6e49e,62bbf9a95d8e00a17248ed1a,2022-06-29_09h05.46.616,Colour_Asymmetry_Pilot,2022.1.3,Win32,59.79788315,62bbe60bf3d75ef465d3e404,0,145,145,105,1,onethree,,,,,,,,,,,,,,,,,,,,,,,,,,,,,,,,,,,,,,,,,,,,,,,,,,,,,,,,,,,,,,,,,,,,,,,,,,,,,,,,,,,,,,,,,,,,,,,,,,,,,,,,,,,,,,,,,,,,,,,,,,,,,,,,,,,,,,,,,,,,,,,,,,,,,,,,
,,,,,,5f338ba6ea047119dbd6e49e,62bbf9a95d8e00a17248ed1a,2022-06-29_09h05.46.616,Colour_Asymmetry_Pilot,2022.1.3,Win32,59.79788315,62bbe60bf3d75ef465d3e404,0,146,146,38,1,fourtwo,,,,,,,,,,,,,,,,,,,,,,,,,,,,,,,,,,,,,,,,,,,,,,,,,,,,,,,,,,,,,,,,,,,,,,,,,,,,,,,,,,,,,,,,,,,,,,,,,,,,,,,,,,,,,,,,,,,,,,,,,,,,,,,,,,,,,,,,,,,,,,,,,,,,,,,,
,,,,,,5f338ba6ea047119dbd6e49e,62bbf9a95d8e00a17248ed1a,2022-06-29_09h05.46.616,Colour_Asymmetry_Pilot,2022.1.3,Win32,59.79788315,62bbe60bf3d75ef465d3e404,0,147,147,128,1,onetwo,,,,,,,,,,,,,,,,,,,,,,,,,,,,,,,,,,,,,,,,,,,,,,,,,,,,,,,,,,,,,,,,,,,,,,,,,,,,,,,,,,,,,,,,,,,,,,,,,,,,,,,,,,,,,,,,,,,,,,,,,,,,,,,,,,,,,,,,,,,,,,,,,,,,,,,,
,,,,,,5f338ba6ea047119dbd6e49e,62bbf9a95d8e00a17248ed1a,2022-06-29_09h05.46.616,Colour_Asymmetry_Pilot,2022.1.3,Win32,59.79788315,62bbe60bf3d75ef465d3e404,0,148,148,72,1,onetwo,,,,,,,,,,,,,,,,,,,,,,,,,,,,,,,,,,,,,,,,,,,,,,,,,,,,,,,,,,,,,,,,,,,,,,,,,,,,,,,,,,,,,,,,,,,,,,,,,,,,,,,,,,,,,,,,,,,,,,,,,,,,,,,,,,,,,,,,,,,,,,,,,,,,,,,,
,,,,,,5f338ba6ea047119dbd6e49e,62bbf9a95d8e00a17248ed1a,2022-06-29_09h05.46.616,Colour_Asymmetry_Pilot,2022.1.3,Win32,59.79788315,62bbe60bf3d75ef465d3e404,0,149,149,70,1,fourtwo,,,,,,,,,,,,,,,,,,,,,,,,,,,,,,,,,,,,,,,,,,,,,,,,,,,,,,,,,,,,,,,,,,,,,,,,,,,,,,,,,,,,,,,,,,,,,,,,,,,,,,,,,,,,,,,,,,,,,,,,,,,,,,,,,,,,,,,,,,,,,,,,,,,,,,,,
,,,,,,5f338ba6ea047119dbd6e49e,62bbf9a95d8e00a17248ed1a,2022-06-29_09h05.46.616,Colour_Asymmetry_Pilot,2022.1.3,Win32,59.79788315,62bbe60bf3d75ef465d3e404,0,150,150,86,1,fourtwo,,,,,,,,,,,,,,,,,,,,,,,,,,,,,,,,,,,,,,,,,,,,,,,,,,,,,,,,,,,,,,,,,,,,,,,,,,,,,,,,,,,,,,,,,,,,,,,,,,,,,,,,,,,,,,,,,,,,,,,,,,,,,,,,,,,,,,,,,,,,,,,,,,,,,,,,
,,,,,,5f338ba6ea047119dbd6e49e,62bbf9a95d8e00a17248ed1a,2022-06-29_09h05.46.616,Colour_Asymmetry_Pilot,2022.1.3,Win32,59.79788315,62bbe60bf3d75ef465d3e404,0,151,151,103,1,fourthree,,,,,,,,,,,,,,,,,,,,,,,,,,,,,,,,,,,,,,,,,,,,,,,,,,,,,,,,,,,,,,,,,,,,,,,,,,,,,,,,,,,,,,,,,,,,,,,,,,,,,,,,,,,,,,,,,,,,,,,,,,,,,,,,,,,,,,,,,,,,,,,,,,,,,,,,
,,,,,,5f338ba6ea047119dbd6e49e,62bbf9a95d8e00a17248ed1a,2022-06-29_09h05.46.616,Colour_Asymmetry_Pilot,2022.1.3,Win32,59.79788315,62bbe60bf3d75ef465d3e404,0,152,152,21,1,threefour,,,,,,,,,,,,,,,,,,,,,,,,,,,,,,,,,,,,,,,,,,,,,,,,,,,,,,,,,,,,,,,,,,,,,,,,,,,,,,,,,,,,,,,,,,,,,,,,,,,,,,,,,,,,,,,,,,,,,,,,,,,,,,,,,,,,,,,,,,,,,,,,,,,,,,,,
,,,,,,5f338ba6ea047119dbd6e49e,62bbf9a95d8e00a17248ed1a,2022-06-29_09h05.46.616,Colour_Asymmetry_Pilot,2022.1.3,Win32,59.79788315,62bbe60bf3d75ef465d3e404,0,153,153,114,1,twoone,,,,,,,,,,,,,,,,,,,,,,,,,,,,,,,,,,,,,,,,,,,,,,,,,,,,,,,,,,,,,,,,,,,,,,,,,,,,,,,,,,,,,,,,,,,,,,,,,,,,,,,,,,,,,,,,,,,,,,,,,,,,,,,,,,,,,,,,,,,,,,,,,,,,,,,,
,,,,,,5f338ba6ea047119dbd6e49e,62bbf9a95d8e00a17248ed1a,2022-06-29_09h05.46.616,Colour_Asymmetry_Pilot,2022.1.3,Win32,59.79788315,62bbe60bf3d75ef465d3e404,0,154,154,41,1,onethree,,,,,,,,,,,,,,,,,,,,,,,,,,,,,,,,,,,,,,,,,,,,,,,,,,,,,,,,,,,,,,,,,,,,,,,,,,,,,,,,,,,,,,,,,,,,,,,,,,,,,,,,,,,,,,,,,,,,,,,,,,,,,,,,,,,,,,,,,,,,,,,,,,,,,,,,
,,,,,,5f338ba6ea047119dbd6e49e,62bbf9a95d8e00a17248ed1a,2022-06-29_09h05.46.616,Colour_Asymmetry_Pilot,2022.1.3,Win32,59.79788315,62bbe60bf3d75ef465d3e404,0,155,155,23,1,fourthree,,,,,,,,,,,,,,,,,,,,,,,,,,,,,,,,,,,,,,,,,,,,,,,,,,,,,,,,,,,,,,,,,,,,,,,,,,,,,,,,,,,,,,,,,,,,,,,,,,,,,,,,,,,,,,,,,,,,,,,,,,,,,,,,,,,,,,,,,,,,,,,,,,,,,,,,
,,,,,,5f338ba6ea047119dbd6e49e,62bbf9a95d8e00a17248ed1a,2022-06-29_09h05.46.616,Colour_Asymmetry_Pilot,2022.1.3,Win32,59.79788315,62bbe60bf3d75ef465d3e404,0,156,156,33,1,onethree,,,,,,,,,,,,,,,,,,,,,,,,,,,,,,,,,,,,,,,,,,,,,,,,,,,,,,,,,,,,,,,,,,,,,,,,,,,,,,,,,,,,,,,,,,,,,,,,,,,,,,,,,,,,,,,,,,,,,,,,,,,,,,,,,,,,,,,,,,,,,,,,,,,,,,,,
,,,,,,5f338ba6ea047119dbd6e49e,62bbf9a95d8e00a17248ed1a,2022-06-29_09h05.46.616,Colour_Asymmetry_Pilot,2022.1.3,Win32,59.79788315,62bbe60bf3d75ef465d3e404,0,157,157,5,1,threefour,,,,,,,,,,,,,,,,,,,,,,,,,,,,,,,,,,,,,,,,,,,,,,,,,,,,,,,,,,,,,,,,,,,,,,,,,,,,,,,,,,,,,,,,,,,,,,,,,,,,,,,,,,,,,,,,,,,,,,,,,,,,,,,,,,,,,,,,,,,,,,,,,,,,,,,,
,,,,,,5f338ba6ea047119dbd6e49e,62bbf9a95d8e00a17248ed1a,2022-06-29_09h05.46.616,Colour_Asymmetry_Pilot,2022.1.3,Win32,59.79788315,62bbe60bf3d75ef465d3e404,0,158,158,151,1,fourthree,,,,,,,,,,,,,,,,,,,,,,,,,,,,,,,,,,,,,,,,,,,,,,,,,,,,,,,,,,,,,,,,,,,,,,,,,,,,,,,,,,,,,,,,,,,,,,,,,,,,,,,,,,,,,,,,,,,,,,,,,,,,,,,,,,,,,,,,,,,,,,,,,,,,,,,,
,,,,,,5f338ba6ea047119dbd6e49e,62bbf9a95d8e00a17248ed1a,2022-06-29_09h05.46.616,Colour_Asymmetry_Pilot,2022.1.3,Win32,59.79788315,62bbe60bf3d75ef465d3e404,0,159,159,132,1,threeone,,,,,,,,,,,,,,,,,,,,,,,,,,,,,,,,,,,,,,,,,,,,,,,,,,,,,,,,,,,,,,,,,,,,,,,,,,,,,,,,,,,,,,,,,,,,,,,,,,,,,,,,,,,,,,,,,,,,,,,,,,,,,,,,,,,,,,,,,,,,,,,,,,,,,,,,
,,,,,,5f338ba6ea047119dbd6e49e,62bbf9a95d8e00a17248ed1a,2022-06-29_09h05.46.616,Colour_Asymmetry_Pilot,2022.1.3,Win32,59.79788315,62bbe60bf3d75ef465d3e404,0,160,160,153,1,onethree,,,,,,,,,,,,,,,,,,,,,,,,,,,,,,,,,,,,,,,,,,,,,,,,,,,,,,,,,,,,,,,,,,,,,,,,,,,,,,,,,,,,,,,,,,,,,,,,,,,,,,,,,,,,,,,,,,,,,,,,,,,,,,,,,,,,,,,,,,,,,,,,,,,,,,,,
,,,,,,5f338ba6ea047119dbd6e49e,62bbf9a95d8e00a17248ed1a,2022-06-29_09h05.46.616,Colour_Asymmetry_Pilot,2022.1.3,Win32,59.79788315,62bbe60bf3d75ef465d3e404,0,161,161,143,1,fourthree,,,,,,,,,,,,,,,,,,,,,,,,,,,,,,,,,,,,,,,,,,,,,,,,,,,,,,,,,,,,,,,,,,,,,,,,,,,,,,,,,,,,,,,,,,,,,,,,,,,,,,,,,,,,,,,,,,,,,,,,,,,,,,,,,,,,,,,,,,,,,,,,,,,,,,,,
,,,,,,5f338ba6ea047119dbd6e49e,62bbf9a95d8e00a17248ed1a,2022-06-29_09h05.46.616,Colour_Asymmetry_Pilot,2022.1.3,Win32,59.79788315,62bbe60bf3d75ef465d3e404,,,,,,,space,2.7037,space,9.2185,space,35.5099,space,32.7889,space,3.7039,space,4.0651,"[0.8274000000000001,-0.5844,-0.9452]",threefour,"[-0.10599999999999998,-0.15300000000000002,0.15280000000000005]",-1,2.902,-47,-98.5,1,0,0,response5disk_5,-7,3.5,1,0,0,rectangle_8,-7,3.5,1,0,0,3,-7,3.5,1,0,0,0,0,0,0,1,,,,,,,,,,,,,,,,,,,,,,,,,,,,,,,,,,,,,,,,,,,,,,,,,,,,,,,,,,,,,,,,,,,,,,,,,,,,,,,,,,,,,,,,,,,,,,,,,,,,,,,,,,,
,,,,,,5f338ba6ea047119dbd6e49e,62bbf9a95d8e00a17248ed1a,2022-06-29_09h05.46.616,Colour_Asymmetry_Pilot,2022.1.3,Win32,59.79788315,62bbe60bf3d75ef465d3e404,,,,,,,,,,,,,,,,,,,"[0.9213999999999998,0.6391999999999998,-0.9922]",onethree,"[0.37240000000000006,0.4980000000000002,-0.2864]",1,6.2176,27,-95.5,1,0,0,response3disk_5,-5,-0.5,1,0,0,rectangle_8,-5,-0.5,1,0,0,3,-5,-0.5,1,0,0,1,0,1,0,1,,,,,,,,,,,,,,,,,,,,,,,,,,,,,,,,,,,,,,,,,,,,,,,,,,,,,,,,,,,,,,,,,,,,,,,,,,,,,,,,,,,,,,,,,,,,,,,,,,,,,,,,,,,
,,,,,,5f338ba6ea047119dbd6e49e,62bbf9a95d8e00a17248ed1a,2022-06-29_09h05.46.616,Colour_Asymmetry_Pilot,2022.1.3,Win32,59.79788315,62bbe60bf3d75ef465d3e404,,,,,,,,,,,,,,,,,,,"[-0.4746,-0.0354000000000001,0.5449999999999999]",threefour,"[-0.26280000000000003,-0.4746,-0.2158]",-1,3.4672,-53,-83.5,1,0,0,response5disk_5,-7,-0.5,1,0,0,rectangle_8,-7,-0.5,1,0,0,3,-7,-0.5,1,0,0,2,0,2,0,1,,,,,,,,,,,,,,,,,,,,,,,,,,,,,,,,,,,,,,,,,,,,,,,,,,,,,,,,,,,,,,,,,,,,,,,,,,,,,,,,,,,,,,,,,,,,,,,,,,,,,,,,,,,
,,,,,,5f338ba6ea047119dbd6e49e,62bbf9a95d8e00a17248ed1a,2022-06-29_09h05.46.616,Colour_Asymmetry_Pilot,2022.1.3,Win32,59.79788315,62bbe60bf3d75ef465d3e404,,,,,,,,,,,,,,,,,,,"[-0.9688,-0.7412000000000001,-0.4902000000000001]",twofour,"[0.7802,-0.23140000000000005,-0.20799999999999996]",-4,2.1678,-50,87.5,1,0,0,response7disk_5,2,-1.5,1,0,0,rectangle_8,2,-1.5,1,0,0,3,2,-1.5,1,0,0,3,0,3,0,1,,,,,,,,,,,,,,,,,,,,,,,,,,,,,,,,,,,,,,,,,,,,,,,,,,,,,,,,,,,,,,,,,,,,,,,,,,,,,,,,,,,,,,,,,,,,,,,,,,,,,,,,,,,
,,,,,,5f338ba6ea047119dbd6e49e,62bbf9a95d8e00a17248ed1a,2022-06-29_09h05.46.616,Colour_Asymmetry_Pilot,2022.1.3,Win32,59.79788315,62bbe60bf3d75ef465d3e404,,,,,,,,,,,,,,,,,,,"[0.9686000000000001,0.5763999999999998,0.11359999999999992]",onethree,"[0.40379999999999994,0.09000000000000008,0.44300000000000006]",-1,1.3834,-49,-86.5,1,0,0,response5disk_5,-9,-3.5,1,0,0,rectangle_8,92,37.5,1,0,0,3,11,-2.5,1,0,0,4,0,4,0,1,response1disk_7,6,rectangle_4,,,,,,,,,,,,,,,,,,,,,,,,,,,,,,,,,,,,,,,,,,,,,,,,,,,,,,,,,,,,,,,,,,,,,,,,,,,,,,,,,,,,,,,,,,,,,,,,,,,,,,,,
,,,,,,5f338ba6ea047119dbd6e49e,62bbf9a95d8e00a17248ed1a,2022-06-29_09h05.46.616,Colour_Asymmetry_Pilot,2022.1.3,Win32,59.79788315,62bbe60bf3d75ef465d3e404,,,,,,,,,,,,,,,,,,,"[-0.9688,-0.38039999999999996,-0.41979999999999995]",onetwo,"[-0.4982,-0.2942,-0.0354000000000001]",3,3.071,76,29.5,1,0,0,response1disk_5,1,-8.5,1,0,0,rectangle_8,1,-8.5,1,0,0,3,1,-8.5,1,0,0,5,0,5,0,1,,,,,,,,,,,,,,,,,,,,,,,,,,,,,,,,,,,,,,,,,,,,,,,,,,,,,,,,,,,,,,,,,,,,,,,,,,,,,,,,,,,,,,,,,,,,,,,,,,,,,,,,,,,
,,,,,,5f338ba6ea047119dbd6e49e,62bbf9a95d8e00a17248ed1a,2022-06-29_09h05.46.616,Colour_Asymmetry_Pilot,2022.1.3,Win32,59.79788315,62bbe60bf3d75ef465d3e404,,,,,,,,,,,,,,,,,,,"[0.6625999999999999,0.4980000000000002,-0.357]",twofour,"[-0.2942,-0.24719999999999998,-0.357]",-3,1.4518,-71,19.5,1,0,0,response7disk_5,-5,1.5,1,0,0,rectangle_8,-5,1.5,1,0,0,3,-5,1.5,1,0,0,6,0,6,0,1,,,,,,,,,,,,,,,,,,,,,,,,,,,,,,,,,,,,,,,,,,,,,,,,,,,,,,,,,,,,,,,,,,,,,,,,,,,,,,,,,,,,,,,,,,,,,,,,,,,,,,,,,,,
,,,,,,5f338ba6ea047119dbd6e49e,62bbf9a95d8e00a17248ed1a,2022-06-29_09h05.46.616,Colour_Asymmetry_Pilot,2022.1.3,Win32,59.79788315,62bbe60bf3d75ef465d3e404,,,,,,,,,,,,,,,,,,,,fourtwo,,4,1.2518,,,,,,,,,,,,,,,,,,,,,,,,,,,,,,,,space,4.5874,"[-0.9138,-0.5296000000000001,-0.5529999999999999]","[-0.9138,-0.5296000000000001,-0.5529999999999999]",32,89.5,1,0,0,response1disk,1,0.5,1,0,0,rectangle,1,0.5,1,0,0,,1,0.0016,0,1,0.5,1,0,0,0,0,0,72,1,72,first,,,,,,,,,,,,,,,,,,,,,,,,,,,,,,,,,,,,,,,,,,,,,,,,,,,,,,,,,,,,,,,,,,,
,,,,,,5f338ba6ea047119dbd6e49e,62bbf9a95d8e00a17248ed1a,2022-06-29_09h05.46.616,Colour_Asymmetry_Pilot,2022.1.3,Win32,59.79788315,62bbe60bf3d75ef465d3e404,,,,,,,,,,,,,,,,,,,,twoone,,-3,2.3671,,,,,,,,,,,,,,,,,,,,,,,,,,,,,,,,,,"[0.9686000000000001,0.5763999999999998,0.11359999999999992]","[0.30180000000000007,-0.7884,-0.9844]",-85,30.5,1,0,0,response7disk,-2,-1.5,1,0,0,rectangle,-2,-1.5,1,0,0,,2,0.0015,0,-2,-1.5,1,0,0,0,1,1,128,1,47,second,,,,,,,,,,,,,,,,,,,,,,,,,,,,,,,,,,,,,,,,,,,,,,,,,,,,,,,,,,,,,,,,,,,
,,,,,,5f338ba6ea047119dbd6e49e,62bbf9a95d8e00a17248ed1a,2022-06-29_09h05.46.616,Colour_Asymmetry_Pilot,2022.1.3,Win32,59.79788315,62bbe60bf3d75ef465d3e404,,,,,,,,,,,,,,,,,,,,fourtwo,,4,0.6504,,,,,,,,,,,,,,,,,,,,,,,,,,,,,,,,,,"[0.8115999999999999,-0.0040000000000000036,-0.09819999999999995]","[0.8115999999999999,-0.0040000000000000036,-0.09819999999999995]",43,82.5,1,0,0,response1disk,-4,-2.5,1,0,0,rectangle,-4,-2.5,1,0,0,,2,0.0003,0,-4,-2.5,1,0,0,0,2,2,112,1,31,second,,,,,,,,,,,,,,,,,,,,,,,,,,,,,,,,,,,,,,,,,,,,,,,,,,,,,,,,,,,,,,,,,,,
,,,,,,5f338ba6ea047119dbd6e49e,62bbf9a95d8e00a17248ed1a,2022-06-29_09h05.46.616,Colour_Asymmetry_Pilot,2022.1.3,Win32,59.79788315,62bbe60bf3d75ef465d3e404,,,,,,,,,,,,,,,,,,,,threefour,,-4,0.9669,,,,,,,,,,,,,,,,,,,,,,,,,,,,,,,,,,"[-0.09019999999999995,0.44300000000000006,0.5371999999999999]","[0.9372,0.20779999999999998,0.2704]",-43,86.5,1,0,0,response7disk,4,-11.5,1,0,0,rectangle,4,-11.5,1,0,0,,3,0.0023,0,4,-11.5,1,0,0,0,3,3,64,1,64,first,,,,,,,,,,,,,,,,,,,,,,,,,,,,,,,,,,,,,,,,,,,,,,,,,,,,,,,,,,,,,,,,,,,
,,,,,,5f338ba6ea047119dbd6e49e,62bbf9a95d8e00a17248ed1a,2022-06-29_09h05.46.616,Colour_Asymmetry_Pilot,2022.1.3,Win32,59.79788315,62bbe60bf3d75ef465d3e404,,,,,,,,,,,,,,,,,,,,onetwo,,-4,0.6003,,,,,,,,,,,,,,,,,,,,,,,,,,,,,,,,,,"[-0.9296,-0.12959999999999994,-0.043199999999999905]","[0.9372,0.20779999999999998,0.2704]",-33,88.5,1,0,0,response7disk,0,1.5,1,0,0,rectangle,0,1.5,1,0,0,,3,0.0003,0,0,1.5,1,0,0,0,4,4,118,1,37,second,,,,,,,,,,,,,,,,,,,,,,,,,,,,,,,,,,,,,,,,,,,,,,,,,,,,,,,,,,,,,,,,,,,
,,,,,,5f338ba6ea047119dbd6e49e,62bbf9a95d8e00a17248ed1a,2022-06-29_09h05.46.616,Colour_Asymmetry_Pilot,2022.1.3,Win32,59.79788315,62bbe60bf3d75ef465d3e404,,,,,,,,,,,,,,,,,,,,threeone,,1,2.084,,,,,,,,,,,,,,,,,,,,,,,,,,,,,,,,,,"[0.6547999999999998,-0.043199999999999905,-0.011800000000000033]","[0.9686000000000001,0.5763999999999998,0.11359999999999992]",48,-73.5,1,0,0,response3disk,-13,-2.5,1,0,0,rectangle,-13,-2.5,1,0,0,,3,0.0002,0,-13,-2.5,1,0,0,0,5,5,63,1,63,first,,,,,,,,,,,,,,,,,,,,,,,,,,,,,,,,,,,,,,,,,,,,,,,,,,,,,,,,,,,,,,,,,,,
,,,,,,5f338ba6ea047119dbd6e49e,62bbf9a95d8e00a17248ed1a,2022-06-29_09h05.46.616,Colour_Asymmetry_Pilot,2022.1.3,Win32,59.79788315,62bbe60bf3d75ef465d3e404,,,,,,,,,,,,,,,,,,,,twoone,,-4,0.9671,,,,,,,,,,,,,,,,,,,,,,,,,,,,,,,,,,"[0.9686000000000001,0.3802000000000001,0.19999999999999996]","[-0.4746,-0.0354000000000001,0.5449999999999999]",-43,86.5,1,0,0,response7disk,-2,6.5,1,0,0,rectangle,-2,6.5,1,0,0,,3,0.0002,0,-2,6.5,1,0,0,0,6,6,21,1,21,first,,,,,,,,,,,,,,,,,,,,,,,,,,,,,,,,,,,,,,,,,,,,,,,,,,,,,,,,,,,,,,,,,,,
,,,,,,5f338ba6ea047119dbd6e49e,62bbf9a95d8e00a17248ed1a,2022-06-29_09h05.46.616,Colour_Asymmetry_Pilot,2022.1.3,Win32,59.79788315,62bbe60bf3d75ef465d3e404,,,,,,,,,,,,,,,,,,,,twoone,,3,6.0679,,,,,,,,,,,,,,,,,,,,,,,,,,,,,,,,,,"[-0.0040000000000000036,0.02739999999999987,-0.08239999999999992]","[0.9372,0.20779999999999998,0.2704]",78,26.5,1,0,0,response1disk,6,4.5,1,0,0,rectangle,6,4.5,1,0,0,,2,0.0044,0,6,4.5,1,0,0,0,7,7,30,1,30,first,,,,,,,,,,,,,,,,,,,,,,,,,,,,,,,,,,,,,,,,,,,,,,,,,,,,,,,,,,,,,,,,,,,
,,,,,,5f338ba6ea047119dbd6e49e,62bbf9a95d8e00a17248ed1a,2022-06-29_09h05.46.616,Colour_Asymmetry_Pilot,2022.1.3,Win32,59.79788315,62bbe60bf3d75ef465d3e404,,,,,,,,,,,,,,,,,,,,threefour,,-4,1.4504,,,,,,,,,,,,,,,,,,,,,,,,,,,,,,,,,,"[-0.6,0.16860000000000008,0.44300000000000006]","[0.3881999999999999,-0.23939999999999995,-0.05040000000000011]",-35,72.5,1,0,0,response7disk,-9,-2.5,1,0,0,rectangle,-9,-2.5,1,0,0,,3,0.0036,0,-9,-2.5,1,0,0,0,8,8,141,1,60,second,,,,,,,,,,,,,,,,,,,,,,,,,,,,,,,,,,,,,,,,,,,,,,,,,,,,,,,,,,,,,,,,,,,
,,,,,,5f338ba6ea047119dbd6e49e,62bbf9a95d8e00a17248ed1a,2022-06-29_09h05.46.616,Colour_Asymmetry_Pilot,2022.1.3,Win32,59.79788315,62bbe60bf3d75ef465d3e404,,,,,,,,,,,,,,,,,,,,onethree,,-4,0.7671,,,,,,,,,,,,,,,,,,,,,,,,,,,,,,,,,,"[0.23120000000000007,-0.7726,-0.34120000000000006]","[0.9842,0.7409999999999999,-0.6628000000000001]",-41,90.5,1,0,0,response7disk,-8,-3.5,1,0,0,rectangle,-8,-3.5,1,0,0,,1,0.0011,0,-8,-3.5,1,0,0,0,9,9,62,1,62,first,,,,,,,,,,,,,,,,,,,,,,,,,,,,,,,,,,,,,,,,,,,,,,,,,,,,,,,,,,,,,,,,,,,
,,,,,,5f338ba6ea047119dbd6e49e,62bbf9a95d8e00a17248ed1a,2022-06-29_09h05.46.616,Colour_Asymmetry_Pilot,2022.1.3,Win32,59.79788315,62bbe60bf3d75ef465d3e404,,,,,,,,,,,,,,,,,,,,twofour,,-3,1.2177,,,,,,,,,,,,,,,,,,,,,,,,,,,,,,,,,,"[0.40379999999999994,0.09000000000000008,0.44300000000000006]","[-0.2942,-0.7648,-0.7492000000000001]",-75,28.5,1,0,0,response7disk,15,-7.5,1,0,0,rectangle,15,-7.5,1,0,0,,1,0.0002,0,15,-7.5,1,0,0,0,10,10,90,1,9,second,,,,,,,,,,,,,,,,,,,,,,,,,,,,,,,,,,,,,,,,,,,,,,,,,,,,,,,,,,,,,,,,,,,
,,,,,,5f338ba6ea047119dbd6e49e,62bbf9a95d8e00a17248ed1a,2022-06-29_09h05.46.616,Colour_Asymmetry_Pilot,2022.1.3,Win32,59.79788315,62bbe60bf3d75ef465d3e404,,,,,,,,,,,,,,,,,,,,onethree,,-4,0.5667,,,,,,,,,,,,,,,,,,,,,,,,,,,,,,,,,,"[-0.17659999999999998,-0.2864,-0.8354]","[-0.9766,-0.6472,0.07440000000000002]",-55,88.5,1,0,0,response7disk,-14,8.5,1,0,0,rectangle,36,-68.5,1,0,0,1,1,3.7174,1,-3,-1.5,1,0,0,0,11,11,76,1,76,first,response3disk_3,rectangle,,,,,,,,,,,,,,,,,,,,,,,,,,,,,,,,,,,,,,,,,,,,,,,,,,,,,,,,,,,,,,,,,
,,,,,,5f338ba6ea047119dbd6e49e,62bbf9a95d8e00a17248ed1a,2022-06-29_09h05.46.616,Colour_Asymmetry_Pilot,2022.1.3,Win32,59.79788315,62bbe60bf3d75ef465d3e404,,,,,,,,,,,,,,,,,,,,threefour,,-4,0.7169,,,,,,,,,,,,,,,,,,,,,,,,,,,,,,,,,,"[0.37240000000000006,-0.050999999999999934,-0.5216]","[-0.4746,-0.0354000000000001,0.5449999999999999]",-52,95.5,1,0,0,response7disk,-9,6.5,1,0,0,rectangle,-9,6.5,1,0,0,1,1,0.0002,0,-9,6.5,1,0,0,0,12,12,96,1,15,second,,,,,,,,,,,,,,,,,,,,,,,,,,,,,,,,,,,,,,,,,,,,,,,,,,,,,,,,,,,,,,,,,,,
,,,,,,5f338ba6ea047119dbd6e49e,62bbf9a95d8e00a17248ed1a,2022-06-29_09h05.46.616,Colour_Asymmetry_Pilot,2022.1.3,Win32,59.79788315,62bbe60bf3d75ef465d3e404,,,,,,,,,,,,,,,,,,,,twoone,,-3,0.8668,,,,,,,,,,,,,,,,,,,,,,,,,,,,,,,,,,"[-0.2942,-0.7648,-0.7492000000000001]","[0.8115999999999999,-0.0040000000000000036,-0.09819999999999995]",-68,40.5,1,0,0,response7disk,8,-4.5,1,0,0,rectangle,8,-4.5,1,0,0,1,3,0.0027,0,8,-4.5,1,0,0,0,13,13,71,1,71,first,,,,,,,,,,,,,,,,,,,,,,,,,,,,,,,,,,,,,,,,,,,,,,,,,,,,,,,,,,,,,,,,,,,
,,,,,,5f338ba6ea047119dbd6e49e,62bbf9a95d8e00a17248ed1a,2022-06-29_09h05.46.616,Colour_Asymmetry_Pilot,2022.1.3,Win32,59.79788315,62bbe60bf3d75ef465d3e404,,,,,,,,,,,,,,,,,,,,fourthree,,-4,0.6171,,,,,,,,,,,,,,,,,,,,,,,,,,,,,,,,,,"[-0.2942,-0.7648,-0.7492000000000001]","[0.7018,0.7176,0.6155999999999999]",-42,88.5,1,0,0,response7disk,-5,-4.5,1,0,0,rectangle,-5,-4.5,1,0,0,1,2,0.0024,0,-5,-4.5,1,0,0,0,14,14,22,1,22,first,,,,,,,,,,,,,,,,,,,,,,,,,,,,,,,,,,,,,,,,,,,,,,,,,,,,,,,,,,,,,,,,,,,
,,,,,,5f338ba6ea047119dbd6e49e,62bbf9a95d8e00a17248ed1a,2022-06-29_09h05.46.616,Colour_Asymmetry_Pilot,2022.1.3,Win32,59.79788315,62bbe60bf3d75ef465d3e404,,,,,,,,,,,,,,,,,,,,fourthree,,-4,0.3994,,,,,,,,,,,,,,,,,,,,,,,,,,,,,,,,,,"[-0.9844,-0.9688,-0.9922]","[0.18419999999999992,-0.4276,-0.404]",-35,73.5,1,0,0,response7disk,-8,-3.5,1,0,0,rectangle,-8,-3.5,1,0,0,1,1,0.0019,0,-8,-3.5,1,0,0,0,15,15,87,1,6,second,,,,,,,,,,,,,,,,,,,,,,,,,,,,,,,,,,,,,,,,,,,,,,,,,,,,,,,,,,,,,,,,,,,
,,,,,,5f338ba6ea047119dbd6e49e,62bbf9a95d8e00a17248ed1a,2022-06-29_09h05.46.616,Colour_Asymmetry_Pilot,2022.1.3,Win32,59.79788315,62bbe60bf3d75ef465d3e404,,,,,,,,,,,,,,,,,,,,twofour,,-1,1.5013,,,,,,,,,,,,,,,,,,,,,,,,,,,,,,,,,,"[0.9213999999999998,0.6391999999999998,-0.9922]","[-0.17659999999999998,-0.2864,-0.8354]",-25,-66.5,1,0,0,response5disk,3,-6.5,1,0,0,rectangle,59,-85.5,1,0,0,1,1,1.9337,1,-6,-10.5,1,0,0,0,16,16,161,1,80,second,response3disk_3,rectangle,,,,,,,,,,,,,,,,,,,,,,,,,,,,,,,,,,,,,,,,,,,,,,,,,,,,,,,,,,,,,,,,,
,,,,,,5f338ba6ea047119dbd6e49e,62bbf9a95d8e00a17248ed1a,2022-06-29_09h05.46.616,Colour_Asymmetry_Pilot,2022.1.3,Win32,59.79788315,62bbe60bf3d75ef465d3e404,,,,,,,,,,,,,,,,,,,,fourtwo,,1,1.2004,,,,,,,,,,,,,,,,,,,,,,,,,,,,,,,,,,"[-0.9766,-0.6472,0.07440000000000002]","[-0.24719999999999998,-0.0354000000000001,0.3175999999999999]",35,-80.5,1,0,0,response3disk,-6,10.5,1,0,0,rectangle,-6,10.5,1,0,0,1,3,0.0029,0,-6,10.5,1,0,0,0,17,17,44,1,44,first,,,,,,,,,,,,,,,,,,,,,,,,,,,,,,,,,,,,,,,,,,,,,,,,,,,,,,,,,,,,,,,,,,,
,,,,,,5f338ba6ea047119dbd6e49e,62bbf9a95d8e00a17248ed1a,2022-06-29_09h05.46.616,Colour_Asymmetry_Pilot,2022.1.3,Win32,59.79788315,62bbe60bf3d75ef465d3e404,,,,,,,,,,,,,,,,,,,,threefour,,-4,0.4335,,,,,,,,,,,,,,,,,,,,,,,,,,,,,,,,,,"[0.23120000000000007,-0.7726,-0.34120000000000006]","[-0.9296,-0.12959999999999994,-0.043199999999999905]",-36,79.5,1,0,0,response7disk,-14,3.5,1,0,0,rectangle,-14,3.5,1,0,0,1,2,0.0027,0,-14,3.5,1,0,0,0,18,18,131,1,50,second,,,,,,,,,,,,,,,,,,,,,,,,,,,,,,,,,,,,,,,,,,,,,,,,,,,,,,,,,,,,,,,,,,,
,,,,,,5f338ba6ea047119dbd6e49e,62bbf9a95d8e00a17248ed1a,2022-06-29_09h05.46.616,Colour_Asymmetry_Pilot,2022.1.3,Win32,59.79788315,62bbe60bf3d75ef465d3e404,,,,,,,,,,,,,,,,,,,,twoone,,-4,0.5501,,,,,,,,,,,,,,,,,,,,,,,,,,,,,,,,,,"[-0.06680000000000008,-0.45100000000000007,-0.906]","[-0.6706000000000001,-0.6157999999999999,-0.6786]",-47,95.5,1,0,0,response7disk,-9,3.5,1,0,0,rectangle,-9,3.5,1,0,0,1,2,0.0011,0,-9,3.5,1,0,0,0,19,19,117,1,36,second,,,,,,,,,,,,,,,,,,,,,,,,,,,,,,,,,,,,,,,,,,,,,,,,,,,,,,,,,,,,,,,,,,,
