trials.thisRepN,trials.thisTrialN,trials.thisN,trials.thisIndex,trials.ran,Colourcodes,participant,session,date,expName,psychopyVersion,OS,frameRate,study_id,trials_4.thisRepN,trials_4.thisTrialN,trials_4.thisN,trials_4.thisIndex,trials_4.ran,StimulusPos,key_resp.keys,key_resp.rt,key_resp_2.keys,key_resp_2.rt,key_resp_15.keys,key_resp_15.rt,key_resp_17.keys,key_resp_17.rt,key_resp_9.keys,key_resp_9.rt,key_resp_10.keys,key_resp_10.rt,Circle1_col,Ecc,Circle2_col,similarity,response_time,mouse_5.x,mouse_5.y,mouse_5.leftButton,mouse_5.midButton,mouse_5.rightButton,mouse_5.clicked_name,mouse_10.x,mouse_10.y,mouse_10.leftButton,mouse_10.midButton,mouse_10.rightButton,mouse_10.clicked_name,mouse_7.x,mouse_7.y,mouse_7.leftButton,mouse_7.midButton,mouse_7.rightButton,mouse_7.clicked_name,catchprac,catchnumberprac,mouse_6.x,mouse_6.y,mouse_6.leftButton,mouse_6.midButton,mouse_6.rightButton,mouse_6.clicked_name,duringprac.thisRepN,duringprac.thisTrialN,duringprac.thisN,duringprac.thisIndex,duringprac.ran,key_resp_22.keys,key_resp_22.rt,Circle1_colour,Circle2_colour,mouse.x,mouse.y,mouse.leftButton,mouse.midButton,mouse.rightButton,mouse.clicked_name,mouse_2.x,mouse_2.y,mouse_2.leftButton,mouse_2.midButton,mouse_2.rightButton,mouse_2.clicked_name,mouse_3.x,mouse_3.y,mouse_3.leftButton,mouse_3.midButton,mouse_3.rightButton,catchresponse,catchnumber,response_time_catch,Catch,mouse_11.x,mouse_11.y,mouse_11.leftButton,mouse_11.midButton,mouse_11.rightButton,trials_2.thisRepN,trials_2.thisTrialN,trials_2.thisN,trials_2.thisIndex,trials_2.ran,Colourpair,Temporder,mouse_3.clicked_name,mouse_11.clicked_name,trials_3.thisRepN,trials_3.thisTrialN,trials_3.thisN,trials_3.thisIndex,trials_3.ran,key_resp_instr_Ishi.keys,key_resp_instr_Ishi.rt,Ishi_trial_keyresp.keys,Ishi_trial_keyresp.rt,Ishi_textbox.text,Ishi_loop.thisRepN,Ishi_loop.thisTrialN,Ishi_loop.thisN,Ishi_loop.thisIndex,Ishi_loop.ran,imageaddress,textbox.text,mouse_4.x,mouse_4.y,mouse_4.leftButton,mouse_4.midButton,mouse_4.rightButton,mouse_4.clicked_name,textbox_2.text,mouse_8.x,mouse_8.y,mouse_8.leftButton,mouse_8.midButton,mouse_8.rightButton,mouse_8.clicked_name,textbox_3.text,mouse_9.x,mouse_9.y,mouse_9.leftButton,mouse_9.midButton,mouse_9.rightButton,mouse_9.clicked_name,textbox_4.text,mouse_12.x,mouse_12.y,mouse_12.leftButton,mouse_12.midButton,mouse_12.rightButton,mouse_12.clicked_name,textbox_5.text,mouse_13.x,mouse_13.y,mouse_13.leftButton,mouse_13.midButton,mouse_13.rightButton,mouse_13.clicked_name,textbox_6.text,mouse_14.x,mouse_14.y,mouse_14.leftButton,mouse_14.midButton,mouse_14.rightButton,mouse_14.clicked_name,textbox_7.text,mouse_15.x,mouse_15.y,mouse_15.leftButton,mouse_15.midButton,mouse_15.rightButton,mouse_15.clicked_name
0,0,0,72,1,,614072e717f769e6280307d3,62bbf9180da4199b4b2f00da,2022-06-29_09h03.44.366,Colour_Asymmetry_Pilot,2022.1.3,MacIntel,60.0024001,62bbe60bf3d75ef465d3e404,,,,,,,,,,,,,,,,,,,,,,,,,,,,,,,,,,,,,,,,,,,,,,,,,,,,,,,,,,,,,,,,,,,,,,,,,,,,,,,,,,,,,,,,,,,,,,,,,,,,,,,,,,,,,,,,,,,,,,,,,,,,,,,,,,,,,,,,,,,,,,,,,,,,,,,,,,,,,,
0,1,1,80,1,,614072e717f769e6280307d3,62bbf9180da4199b4b2f00da,2022-06-29_09h03.44.366,Colour_Asymmetry_Pilot,2022.1.3,MacIntel,60.0024001,62bbe60bf3d75ef465d3e404,,,,,,,,,,,,,,,,,,,,,,,,,,,,,,,,,,,,,,,,,,,,,,,,,,,,,,,,,,,,,,,,,,,,,,,,,,,,,,,,,,,,,,,,,,,,,,,,,,,,,,,,,,,,,,,,,,,,,,,,,,,,,,,,,,,,,,,,,,,,,,,,,,,,,,,,,,,,,,
0,2,2,69,1,,614072e717f769e6280307d3,62bbf9180da4199b4b2f00da,2022-06-29_09h03.44.366,Colour_Asymmetry_Pilot,2022.1.3,MacIntel,60.0024001,62bbe60bf3d75ef465d3e404,,,,,,,,,,,,,,,,,,,,,,,,,,,,,,,,,,,,,,,,,,,,,,,,,,,,,,,,,,,,,,,,,,,,,,,,,,,,,,,,,,,,,,,,,,,,,,,,,,,,,,,,,,,,,,,,,,,,,,,,,,,,,,,,,,,,,,,,,,,,,,,,,,,,,,,,,,,,,,
0,3,3,3,1,,614072e717f769e6280307d3,62bbf9180da4199b4b2f00da,2022-06-29_09h03.44.366,Colour_Asymmetry_Pilot,2022.1.3,MacIntel,60.0024001,62bbe60bf3d75ef465d3e404,,,,,,,,,,,,,,,,,,,,,,,,,,,,,,,,,,,,,,,,,,,,,,,,,,,,,,,,,,,,,,,,,,,,,,,,,,,,,,,,,,,,,,,,,,,,,,,,,,,,,,,,,,,,,,,,,,,,,,,,,,,,,,,,,,,,,,,,,,,,,,,,,,,,,,,,,,,,,,
0,4,4,8,1,,614072e717f769e6280307d3,62bbf9180da4199b4b2f00da,2022-06-29_09h03.44.366,Colour_Asymmetry_Pilot,2022.1.3,MacIntel,60.0024001,62bbe60bf3d75ef465d3e404,,,,,,,,,,,,,,,,,,,,,,,,,,,,,,,,,,,,,,,,,,,,,,,,,,,,,,,,,,,,,,,,,,,,,,,,,,,,,,,,,,,,,,,,,,,,,,,,,,,,,,,,,,,,,,,,,,,,,,,,,,,,,,,,,,,,,,,,,,,,,,,,,,,,,,,,,,,,,,
0,5,5,83,1,,614072e717f769e6280307d3,62bbf9180da4199b4b2f00da,2022-06-29_09h03.44.366,Colour_Asymmetry_Pilot,2022.1.3,MacIntel,60.0024001,62bbe60bf3d75ef465d3e404,,,,,,,,,,,,,,,,,,,,,,,,,,,,,,,,,,,,,,,,,,,,,,,,,,,,,,,,,,,,,,,,,,,,,,,,,,,,,,,,,,,,,,,,,,,,,,,,,,,,,,,,,,,,,,,,,,,,,,,,,,,,,,,,,,,,,,,,,,,,,,,,,,,,,,,,,,,,,,
0,6,6,90,1,,614072e717f769e6280307d3,62bbf9180da4199b4b2f00da,2022-06-29_09h03.44.366,Colour_Asymmetry_Pilot,2022.1.3,MacIntel,60.0024001,62bbe60bf3d75ef465d3e404,,,,,,,,,,,,,,,,,,,,,,,,,,,,,,,,,,,,,,,,,,,,,,,,,,,,,,,,,,,,,,,,,,,,,,,,,,,,,,,,,,,,,,,,,,,,,,,,,,,,,,,,,,,,,,,,,,,,,,,,,,,,,,,,,,,,,,,,,,,,,,,,,,,,,,,,,,,,,,
0,7,7,60,1,,614072e717f769e6280307d3,62bbf9180da4199b4b2f00da,2022-06-29_09h03.44.366,Colour_Asymmetry_Pilot,2022.1.3,MacIntel,60.0024001,62bbe60bf3d75ef465d3e404,,,,,,,,,,,,,,,,,,,,,,,,,,,,,,,,,,,,,,,,,,,,,,,,,,,,,,,,,,,,,,,,,,,,,,,,,,,,,,,,,,,,,,,,,,,,,,,,,,,,,,,,,,,,,,,,,,,,,,,,,,,,,,,,,,,,,,,,,,,,,,,,,,,,,,,,,,,,,,
0,8,8,46,1,,614072e717f769e6280307d3,62bbf9180da4199b4b2f00da,2022-06-29_09h03.44.366,Colour_Asymmetry_Pilot,2022.1.3,MacIntel,60.0024001,62bbe60bf3d75ef465d3e404,,,,,,,,,,,,,,,,,,,,,,,,,,,,,,,,,,,,,,,,,,,,,,,,,,,,,,,,,,,,,,,,,,,,,,,,,,,,,,,,,,,,,,,,,,,,,,,,,,,,,,,,,,,,,,,,,,,,,,,,,,,,,,,,,,,,,,,,,,,,,,,,,,,,,,,,,,,,,,
0,9,9,25,1,,614072e717f769e6280307d3,62bbf9180da4199b4b2f00da,2022-06-29_09h03.44.366,Colour_Asymmetry_Pilot,2022.1.3,MacIntel,60.0024001,62bbe60bf3d75ef465d3e404,,,,,,,,,,,,,,,,,,,,,,,,,,,,,,,,,,,,,,,,,,,,,,,,,,,,,,,,,,,,,,,,,,,,,,,,,,,,,,,,,,,,,,,,,,,,,,,,,,,,,,,,,,,,,,,,,,,,,,,,,,,,,,,,,,,,,,,,,,,,,,,,,,,,,,,,,,,,,,
0,10,10,45,1,,614072e717f769e6280307d3,62bbf9180da4199b4b2f00da,2022-06-29_09h03.44.366,Colour_Asymmetry_Pilot,2022.1.3,MacIntel,60.0024001,62bbe60bf3d75ef465d3e404,,,,,,,,,,,,,,,,,,,,,,,,,,,,,,,,,,,,,,,,,,,,,,,,,,,,,,,,,,,,,,,,,,,,,,,,,,,,,,,,,,,,,,,,,,,,,,,,,,,,,,,,,,,,,,,,,,,,,,,,,,,,,,,,,,,,,,,,,,,,,,,,,,,,,,,,,,,,,,
0,11,11,29,1,,614072e717f769e6280307d3,62bbf9180da4199b4b2f00da,2022-06-29_09h03.44.366,Colour_Asymmetry_Pilot,2022.1.3,MacIntel,60.0024001,62bbe60bf3d75ef465d3e404,,,,,,,,,,,,,,,,,,,,,,,,,,,,,,,,,,,,,,,,,,,,,,,,,,,,,,,,,,,,,,,,,,,,,,,,,,,,,,,,,,,,,,,,,,,,,,,,,,,,,,,,,,,,,,,,,,,,,,,,,,,,,,,,,,,,,,,,,,,,,,,,,,,,,,,,,,,,,,
0,12,12,32,1,,614072e717f769e6280307d3,62bbf9180da4199b4b2f00da,2022-06-29_09h03.44.366,Colour_Asymmetry_Pilot,2022.1.3,MacIntel,60.0024001,62bbe60bf3d75ef465d3e404,,,,,,,,,,,,,,,,,,,,,,,,,,,,,,,,,,,,,,,,,,,,,,,,,,,,,,,,,,,,,,,,,,,,,,,,,,,,,,,,,,,,,,,,,,,,,,,,,,,,,,,,,,,,,,,,,,,,,,,,,,,,,,,,,,,,,,,,,,,,,,,,,,,,,,,,,,,,,,
0,13,13,43,1,,614072e717f769e6280307d3,62bbf9180da4199b4b2f00da,2022-06-29_09h03.44.366,Colour_Asymmetry_Pilot,2022.1.3,MacIntel,60.0024001,62bbe60bf3d75ef465d3e404,,,,,,,,,,,,,,,,,,,,,,,,,,,,,,,,,,,,,,,,,,,,,,,,,,,,,,,,,,,,,,,,,,,,,,,,,,,,,,,,,,,,,,,,,,,,,,,,,,,,,,,,,,,,,,,,,,,,,,,,,,,,,,,,,,,,,,,,,,,,,,,,,,,,,,,,,,,,,,
0,14,14,91,1,,614072e717f769e6280307d3,62bbf9180da4199b4b2f00da,2022-06-29_09h03.44.366,Colour_Asymmetry_Pilot,2022.1.3,MacIntel,60.0024001,62bbe60bf3d75ef465d3e404,,,,,,,,,,,,,,,,,,,,,,,,,,,,,,,,,,,,,,,,,,,,,,,,,,,,,,,,,,,,,,,,,,,,,,,,,,,,,,,,,,,,,,,,,,,,,,,,,,,,,,,,,,,,,,,,,,,,,,,,,,,,,,,,,,,,,,,,,,,,,,,,,,,,,,,,,,,,,,
0,15,15,35,1,,614072e717f769e6280307d3,62bbf9180da4199b4b2f00da,2022-06-29_09h03.44.366,Colour_Asymmetry_Pilot,2022.1.3,MacIntel,60.0024001,62bbe60bf3d75ef465d3e404,,,,,,,,,,,,,,,,,,,,,,,,,,,,,,,,,,,,,,,,,,,,,,,,,,,,,,,,,,,,,,,,,,,,,,,,,,,,,,,,,,,,,,,,,,,,,,,,,,,,,,,,,,,,,,,,,,,,,,,,,,,,,,,,,,,,,,,,,,,,,,,,,,,,,,,,,,,,,,
0,16,16,50,1,,614072e717f769e6280307d3,62bbf9180da4199b4b2f00da,2022-06-29_09h03.44.366,Colour_Asymmetry_Pilot,2022.1.3,MacIntel,60.0024001,62bbe60bf3d75ef465d3e404,,,,,,,,,,,,,,,,,,,,,,,,,,,,,,,,,,,,,,,,,,,,,,,,,,,,,,,,,,,,,,,,,,,,,,,,,,,,,,,,,,,,,,,,,,,,,,,,,,,,,,,,,,,,,,,,,,,,,,,,,,,,,,,,,,,,,,,,,,,,,,,,,,,,,,,,,,,,,,
0,17,17,11,1,,614072e717f769e6280307d3,62bbf9180da4199b4b2f00da,2022-06-29_09h03.44.366,Colour_Asymmetry_Pilot,2022.1.3,MacIntel,60.0024001,62bbe60bf3d75ef465d3e404,,,,,,,,,,,,,,,,,,,,,,,,,,,,,,,,,,,,,,,,,,,,,,,,,,,,,,,,,,,,,,,,,,,,,,,,,,,,,,,,,,,,,,,,,,,,,,,,,,,,,,,,,,,,,,,,,,,,,,,,,,,,,,,,,,,,,,,,,,,,,,,,,,,,,,,,,,,,,,
0,18,18,71,1,,614072e717f769e6280307d3,62bbf9180da4199b4b2f00da,2022-06-29_09h03.44.366,Colour_Asymmetry_Pilot,2022.1.3,MacIntel,60.0024001,62bbe60bf3d75ef465d3e404,,,,,,,,,,,,,,,,,,,,,,,,,,,,,,,,,,,,,,,,,,,,,,,,,,,,,,,,,,,,,,,,,,,,,,,,,,,,,,,,,,,,,,,,,,,,,,,,,,,,,,,,,,,,,,,,,,,,,,,,,,,,,,,,,,,,,,,,,,,,,,,,,,,,,,,,,,,,,,
0,19,19,84,1,,614072e717f769e6280307d3,62bbf9180da4199b4b2f00da,2022-06-29_09h03.44.366,Colour_Asymmetry_Pilot,2022.1.3,MacIntel,60.0024001,62bbe60bf3d75ef465d3e404,,,,,,,,,,,,,,,,,,,,,,,,,,,,,,,,,,,,,,,,,,,,,,,,,,,,,,,,,,,,,,,,,,,,,,,,,,,,,,,,,,,,,,,,,,,,,,,,,,,,,,,,,,,,,,,,,,,,,,,,,,,,,,,,,,,,,,,,,,,,,,,,,,,,,,,,,,,,,,
0,20,20,48,1,,614072e717f769e6280307d3,62bbf9180da4199b4b2f00da,2022-06-29_09h03.44.366,Colour_Asymmetry_Pilot,2022.1.3,MacIntel,60.0024001,62bbe60bf3d75ef465d3e404,,,,,,,,,,,,,,,,,,,,,,,,,,,,,,,,,,,,,,,,,,,,,,,,,,,,,,,,,,,,,,,,,,,,,,,,,,,,,,,,,,,,,,,,,,,,,,,,,,,,,,,,,,,,,,,,,,,,,,,,,,,,,,,,,,,,,,,,,,,,,,,,,,,,,,,,,,,,,,
0,21,21,24,1,,614072e717f769e6280307d3,62bbf9180da4199b4b2f00da,2022-06-29_09h03.44.366,Colour_Asymmetry_Pilot,2022.1.3,MacIntel,60.0024001,62bbe60bf3d75ef465d3e404,,,,,,,,,,,,,,,,,,,,,,,,,,,,,,,,,,,,,,,,,,,,,,,,,,,,,,,,,,,,,,,,,,,,,,,,,,,,,,,,,,,,,,,,,,,,,,,,,,,,,,,,,,,,,,,,,,,,,,,,,,,,,,,,,,,,,,,,,,,,,,,,,,,,,,,,,,,,,,
0,22,22,28,1,,614072e717f769e6280307d3,62bbf9180da4199b4b2f00da,2022-06-29_09h03.44.366,Colour_Asymmetry_Pilot,2022.1.3,MacIntel,60.0024001,62bbe60bf3d75ef465d3e404,,,,,,,,,,,,,,,,,,,,,,,,,,,,,,,,,,,,,,,,,,,,,,,,,,,,,,,,,,,,,,,,,,,,,,,,,,,,,,,,,,,,,,,,,,,,,,,,,,,,,,,,,,,,,,,,,,,,,,,,,,,,,,,,,,,,,,,,,,,,,,,,,,,,,,,,,,,,,,
0,23,23,59,1,,614072e717f769e6280307d3,62bbf9180da4199b4b2f00da,2022-06-29_09h03.44.366,Colour_Asymmetry_Pilot,2022.1.3,MacIntel,60.0024001,62bbe60bf3d75ef465d3e404,,,,,,,,,,,,,,,,,,,,,,,,,,,,,,,,,,,,,,,,,,,,,,,,,,,,,,,,,,,,,,,,,,,,,,,,,,,,,,,,,,,,,,,,,,,,,,,,,,,,,,,,,,,,,,,,,,,,,,,,,,,,,,,,,,,,,,,,,,,,,,,,,,,,,,,,,,,,,,
0,24,24,68,1,,614072e717f769e6280307d3,62bbf9180da4199b4b2f00da,2022-06-29_09h03.44.366,Colour_Asymmetry_Pilot,2022.1.3,MacIntel,60.0024001,62bbe60bf3d75ef465d3e404,,,,,,,,,,,,,,,,,,,,,,,,,,,,,,,,,,,,,,,,,,,,,,,,,,,,,,,,,,,,,,,,,,,,,,,,,,,,,,,,,,,,,,,,,,,,,,,,,,,,,,,,,,,,,,,,,,,,,,,,,,,,,,,,,,,,,,,,,,,,,,,,,,,,,,,,,,,,,,
0,25,25,16,1,,614072e717f769e6280307d3,62bbf9180da4199b4b2f00da,2022-06-29_09h03.44.366,Colour_Asymmetry_Pilot,2022.1.3,MacIntel,60.0024001,62bbe60bf3d75ef465d3e404,,,,,,,,,,,,,,,,,,,,,,,,,,,,,,,,,,,,,,,,,,,,,,,,,,,,,,,,,,,,,,,,,,,,,,,,,,,,,,,,,,,,,,,,,,,,,,,,,,,,,,,,,,,,,,,,,,,,,,,,,,,,,,,,,,,,,,,,,,,,,,,,,,,,,,,,,,,,,,
0,26,26,89,1,,614072e717f769e6280307d3,62bbf9180da4199b4b2f00da,2022-06-29_09h03.44.366,Colour_Asymmetry_Pilot,2022.1.3,MacIntel,60.0024001,62bbe60bf3d75ef465d3e404,,,,,,,,,,,,,,,,,,,,,,,,,,,,,,,,,,,,,,,,,,,,,,,,,,,,,,,,,,,,,,,,,,,,,,,,,,,,,,,,,,,,,,,,,,,,,,,,,,,,,,,,,,,,,,,,,,,,,,,,,,,,,,,,,,,,,,,,,,,,,,,,,,,,,,,,,,,,,,
0,27,27,23,1,,614072e717f769e6280307d3,62bbf9180da4199b4b2f00da,2022-06-29_09h03.44.366,Colour_Asymmetry_Pilot,2022.1.3,MacIntel,60.0024001,62bbe60bf3d75ef465d3e404,,,,,,,,,,,,,,,,,,,,,,,,,,,,,,,,,,,,,,,,,,,,,,,,,,,,,,,,,,,,,,,,,,,,,,,,,,,,,,,,,,,,,,,,,,,,,,,,,,,,,,,,,,,,,,,,,,,,,,,,,,,,,,,,,,,,,,,,,,,,,,,,,,,,,,,,,,,,,,
0,28,28,65,1,,614072e717f769e6280307d3,62bbf9180da4199b4b2f00da,2022-06-29_09h03.44.366,Colour_Asymmetry_Pilot,2022.1.3,MacIntel,60.0024001,62bbe60bf3d75ef465d3e404,,,,,,,,,,,,,,,,,,,,,,,,,,,,,,,,,,,,,,,,,,,,,,,,,,,,,,,,,,,,,,,,,,,,,,,,,,,,,,,,,,,,,,,,,,,,,,,,,,,,,,,,,,,,,,,,,,,,,,,,,,,,,,,,,,,,,,,,,,,,,,,,,,,,,,,,,,,,,,
0,29,29,67,1,,614072e717f769e6280307d3,62bbf9180da4199b4b2f00da,2022-06-29_09h03.44.366,Colour_Asymmetry_Pilot,2022.1.3,MacIntel,60.0024001,62bbe60bf3d75ef465d3e404,,,,,,,,,,,,,,,,,,,,,,,,,,,,,,,,,,,,,,,,,,,,,,,,,,,,,,,,,,,,,,,,,,,,,,,,,,,,,,,,,,,,,,,,,,,,,,,,,,,,,,,,,,,,,,,,,,,,,,,,,,,,,,,,,,,,,,,,,,,,,,,,,,,,,,,,,,,,,,
0,30,30,58,1,,614072e717f769e6280307d3,62bbf9180da4199b4b2f00da,2022-06-29_09h03.44.366,Colour_Asymmetry_Pilot,2022.1.3,MacIntel,60.0024001,62bbe60bf3d75ef465d3e404,,,,,,,,,,,,,,,,,,,,,,,,,,,,,,,,,,,,,,,,,,,,,,,,,,,,,,,,,,,,,,,,,,,,,,,,,,,,,,,,,,,,,,,,,,,,,,,,,,,,,,,,,,,,,,,,,,,,,,,,,,,,,,,,,,,,,,,,,,,,,,,,,,,,,,,,,,,,,,
0,31,31,51,1,,614072e717f769e6280307d3,62bbf9180da4199b4b2f00da,2022-06-29_09h03.44.366,Colour_Asymmetry_Pilot,2022.1.3,MacIntel,60.0024001,62bbe60bf3d75ef465d3e404,,,,,,,,,,,,,,,,,,,,,,,,,,,,,,,,,,,,,,,,,,,,,,,,,,,,,,,,,,,,,,,,,,,,,,,,,,,,,,,,,,,,,,,,,,,,,,,,,,,,,,,,,,,,,,,,,,,,,,,,,,,,,,,,,,,,,,,,,,,,,,,,,,,,,,,,,,,,,,
0,32,32,5,1,,614072e717f769e6280307d3,62bbf9180da4199b4b2f00da,2022-06-29_09h03.44.366,Colour_Asymmetry_Pilot,2022.1.3,MacIntel,60.0024001,62bbe60bf3d75ef465d3e404,,,,,,,,,,,,,,,,,,,,,,,,,,,,,,,,,,,,,,,,,,,,,,,,,,,,,,,,,,,,,,,,,,,,,,,,,,,,,,,,,,,,,,,,,,,,,,,,,,,,,,,,,,,,,,,,,,,,,,,,,,,,,,,,,,,,,,,,,,,,,,,,,,,,,,,,,,,,,,
0,33,33,66,1,,614072e717f769e6280307d3,62bbf9180da4199b4b2f00da,2022-06-29_09h03.44.366,Colour_Asymmetry_Pilot,2022.1.3,MacIntel,60.0024001,62bbe60bf3d75ef465d3e404,,,,,,,,,,,,,,,,,,,,,,,,,,,,,,,,,,,,,,,,,,,,,,,,,,,,,,,,,,,,,,,,,,,,,,,,,,,,,,,,,,,,,,,,,,,,,,,,,,,,,,,,,,,,,,,,,,,,,,,,,,,,,,,,,,,,,,,,,,,,,,,,,,,,,,,,,,,,,,
0,34,34,44,1,,614072e717f769e6280307d3,62bbf9180da4199b4b2f00da,2022-06-29_09h03.44.366,Colour_Asymmetry_Pilot,2022.1.3,MacIntel,60.0024001,62bbe60bf3d75ef465d3e404,,,,,,,,,,,,,,,,,,,,,,,,,,,,,,,,,,,,,,,,,,,,,,,,,,,,,,,,,,,,,,,,,,,,,,,,,,,,,,,,,,,,,,,,,,,,,,,,,,,,,,,,,,,,,,,,,,,,,,,,,,,,,,,,,,,,,,,,,,,,,,,,,,,,,,,,,,,,,,
0,35,35,38,1,,614072e717f769e6280307d3,62bbf9180da4199b4b2f00da,2022-06-29_09h03.44.366,Colour_Asymmetry_Pilot,2022.1.3,MacIntel,60.0024001,62bbe60bf3d75ef465d3e404,,,,,,,,,,,,,,,,,,,,,,,,,,,,,,,,,,,,,,,,,,,,,,,,,,,,,,,,,,,,,,,,,,,,,,,,,,,,,,,,,,,,,,,,,,,,,,,,,,,,,,,,,,,,,,,,,,,,,,,,,,,,,,,,,,,,,,,,,,,,,,,,,,,,,,,,,,,,,,
0,36,36,9,1,,614072e717f769e6280307d3,62bbf9180da4199b4b2f00da,2022-06-29_09h03.44.366,Colour_Asymmetry_Pilot,2022.1.3,MacIntel,60.0024001,62bbe60bf3d75ef465d3e404,,,,,,,,,,,,,,,,,,,,,,,,,,,,,,,,,,,,,,,,,,,,,,,,,,,,,,,,,,,,,,,,,,,,,,,,,,,,,,,,,,,,,,,,,,,,,,,,,,,,,,,,,,,,,,,,,,,,,,,,,,,,,,,,,,,,,,,,,,,,,,,,,,,,,,,,,,,,,,
0,37,37,92,1,,614072e717f769e6280307d3,62bbf9180da4199b4b2f00da,2022-06-29_09h03.44.366,Colour_Asymmetry_Pilot,2022.1.3,MacIntel,60.0024001,62bbe60bf3d75ef465d3e404,,,,,,,,,,,,,,,,,,,,,,,,,,,,,,,,,,,,,,,,,,,,,,,,,,,,,,,,,,,,,,,,,,,,,,,,,,,,,,,,,,,,,,,,,,,,,,,,,,,,,,,,,,,,,,,,,,,,,,,,,,,,,,,,,,,,,,,,,,,,,,,,,,,,,,,,,,,,,,
0,38,38,33,1,,614072e717f769e6280307d3,62bbf9180da4199b4b2f00da,2022-06-29_09h03.44.366,Colour_Asymmetry_Pilot,2022.1.3,MacIntel,60.0024001,62bbe60bf3d75ef465d3e404,,,,,,,,,,,,,,,,,,,,,,,,,,,,,,,,,,,,,,,,,,,,,,,,,,,,,,,,,,,,,,,,,,,,,,,,,,,,,,,,,,,,,,,,,,,,,,,,,,,,,,,,,,,,,,,,,,,,,,,,,,,,,,,,,,,,,,,,,,,,,,,,,,,,,,,,,,,,,,
0,39,39,57,1,,614072e717f769e6280307d3,62bbf9180da4199b4b2f00da,2022-06-29_09h03.44.366,Colour_Asymmetry_Pilot,2022.1.3,MacIntel,60.0024001,62bbe60bf3d75ef465d3e404,,,,,,,,,,,,,,,,,,,,,,,,,,,,,,,,,,,,,,,,,,,,,,,,,,,,,,,,,,,,,,,,,,,,,,,,,,,,,,,,,,,,,,,,,,,,,,,,,,,,,,,,,,,,,,,,,,,,,,,,,,,,,,,,,,,,,,,,,,,,,,,,,,,,,,,,,,,,,,
0,40,40,81,1,,614072e717f769e6280307d3,62bbf9180da4199b4b2f00da,2022-06-29_09h03.44.366,Colour_Asymmetry_Pilot,2022.1.3,MacIntel,60.0024001,62bbe60bf3d75ef465d3e404,,,,,,,,,,,,,,,,,,,,,,,,,,,,,,,,,,,,,,,,,,,,,,,,,,,,,,,,,,,,,,,,,,,,,,,,,,,,,,,,,,,,,,,,,,,,,,,,,,,,,,,,,,,,,,,,,,,,,,,,,,,,,,,,,,,,,,,,,,,,,,,,,,,,,,,,,,,,,,
0,41,41,49,1,,614072e717f769e6280307d3,62bbf9180da4199b4b2f00da,2022-06-29_09h03.44.366,Colour_Asymmetry_Pilot,2022.1.3,MacIntel,60.0024001,62bbe60bf3d75ef465d3e404,,,,,,,,,,,,,,,,,,,,,,,,,,,,,,,,,,,,,,,,,,,,,,,,,,,,,,,,,,,,,,,,,,,,,,,,,,,,,,,,,,,,,,,,,,,,,,,,,,,,,,,,,,,,,,,,,,,,,,,,,,,,,,,,,,,,,,,,,,,,,,,,,,,,,,,,,,,,,,
0,42,42,74,1,,614072e717f769e6280307d3,62bbf9180da4199b4b2f00da,2022-06-29_09h03.44.366,Colour_Asymmetry_Pilot,2022.1.3,MacIntel,60.0024001,62bbe60bf3d75ef465d3e404,,,,,,,,,,,,,,,,,,,,,,,,,,,,,,,,,,,,,,,,,,,,,,,,,,,,,,,,,,,,,,,,,,,,,,,,,,,,,,,,,,,,,,,,,,,,,,,,,,,,,,,,,,,,,,,,,,,,,,,,,,,,,,,,,,,,,,,,,,,,,,,,,,,,,,,,,,,,,,
0,43,43,27,1,,614072e717f769e6280307d3,62bbf9180da4199b4b2f00da,2022-06-29_09h03.44.366,Colour_Asymmetry_Pilot,2022.1.3,MacIntel,60.0024001,62bbe60bf3d75ef465d3e404,,,,,,,,,,,,,,,,,,,,,,,,,,,,,,,,,,,,,,,,,,,,,,,,,,,,,,,,,,,,,,,,,,,,,,,,,,,,,,,,,,,,,,,,,,,,,,,,,,,,,,,,,,,,,,,,,,,,,,,,,,,,,,,,,,,,,,,,,,,,,,,,,,,,,,,,,,,,,,
0,44,44,55,1,,614072e717f769e6280307d3,62bbf9180da4199b4b2f00da,2022-06-29_09h03.44.366,Colour_Asymmetry_Pilot,2022.1.3,MacIntel,60.0024001,62bbe60bf3d75ef465d3e404,,,,,,,,,,,,,,,,,,,,,,,,,,,,,,,,,,,,,,,,,,,,,,,,,,,,,,,,,,,,,,,,,,,,,,,,,,,,,,,,,,,,,,,,,,,,,,,,,,,,,,,,,,,,,,,,,,,,,,,,,,,,,,,,,,,,,,,,,,,,,,,,,,,,,,,,,,,,,,
0,45,45,47,1,,614072e717f769e6280307d3,62bbf9180da4199b4b2f00da,2022-06-29_09h03.44.366,Colour_Asymmetry_Pilot,2022.1.3,MacIntel,60.0024001,62bbe60bf3d75ef465d3e404,,,,,,,,,,,,,,,,,,,,,,,,,,,,,,,,,,,,,,,,,,,,,,,,,,,,,,,,,,,,,,,,,,,,,,,,,,,,,,,,,,,,,,,,,,,,,,,,,,,,,,,,,,,,,,,,,,,,,,,,,,,,,,,,,,,,,,,,,,,,,,,,,,,,,,,,,,,,,,
0,46,46,76,1,,614072e717f769e6280307d3,62bbf9180da4199b4b2f00da,2022-06-29_09h03.44.366,Colour_Asymmetry_Pilot,2022.1.3,MacIntel,60.0024001,62bbe60bf3d75ef465d3e404,,,,,,,,,,,,,,,,,,,,,,,,,,,,,,,,,,,,,,,,,,,,,,,,,,,,,,,,,,,,,,,,,,,,,,,,,,,,,,,,,,,,,,,,,,,,,,,,,,,,,,,,,,,,,,,,,,,,,,,,,,,,,,,,,,,,,,,,,,,,,,,,,,,,,,,,,,,,,,
0,47,47,0,1,,614072e717f769e6280307d3,62bbf9180da4199b4b2f00da,2022-06-29_09h03.44.366,Colour_Asymmetry_Pilot,2022.1.3,MacIntel,60.0024001,62bbe60bf3d75ef465d3e404,,,,,,,,,,,,,,,,,,,,,,,,,,,,,,,,,,,,,,,,,,,,,,,,,,,,,,,,,,,,,,,,,,,,,,,,,,,,,,,,,,,,,,,,,,,,,,,,,,,,,,,,,,,,,,,,,,,,,,,,,,,,,,,,,,,,,,,,,,,,,,,,,,,,,,,,,,,,,,
0,48,48,13,1,,614072e717f769e6280307d3,62bbf9180da4199b4b2f00da,2022-06-29_09h03.44.366,Colour_Asymmetry_Pilot,2022.1.3,MacIntel,60.0024001,62bbe60bf3d75ef465d3e404,,,,,,,,,,,,,,,,,,,,,,,,,,,,,,,,,,,,,,,,,,,,,,,,,,,,,,,,,,,,,,,,,,,,,,,,,,,,,,,,,,,,,,,,,,,,,,,,,,,,,,,,,,,,,,,,,,,,,,,,,,,,,,,,,,,,,,,,,,,,,,,,,,,,,,,,,,,,,,
0,49,49,30,1,,614072e717f769e6280307d3,62bbf9180da4199b4b2f00da,2022-06-29_09h03.44.366,Colour_Asymmetry_Pilot,2022.1.3,MacIntel,60.0024001,62bbe60bf3d75ef465d3e404,,,,,,,,,,,,,,,,,,,,,,,,,,,,,,,,,,,,,,,,,,,,,,,,,,,,,,,,,,,,,,,,,,,,,,,,,,,,,,,,,,,,,,,,,,,,,,,,,,,,,,,,,,,,,,,,,,,,,,,,,,,,,,,,,,,,,,,,,,,,,,,,,,,,,,,,,,,,,,
0,50,50,42,1,,614072e717f769e6280307d3,62bbf9180da4199b4b2f00da,2022-06-29_09h03.44.366,Colour_Asymmetry_Pilot,2022.1.3,MacIntel,60.0024001,62bbe60bf3d75ef465d3e404,,,,,,,,,,,,,,,,,,,,,,,,,,,,,,,,,,,,,,,,,,,,,,,,,,,,,,,,,,,,,,,,,,,,,,,,,,,,,,,,,,,,,,,,,,,,,,,,,,,,,,,,,,,,,,,,,,,,,,,,,,,,,,,,,,,,,,,,,,,,,,,,,,,,,,,,,,,,,,
0,51,51,2,1,,614072e717f769e6280307d3,62bbf9180da4199b4b2f00da,2022-06-29_09h03.44.366,Colour_Asymmetry_Pilot,2022.1.3,MacIntel,60.0024001,62bbe60bf3d75ef465d3e404,,,,,,,,,,,,,,,,,,,,,,,,,,,,,,,,,,,,,,,,,,,,,,,,,,,,,,,,,,,,,,,,,,,,,,,,,,,,,,,,,,,,,,,,,,,,,,,,,,,,,,,,,,,,,,,,,,,,,,,,,,,,,,,,,,,,,,,,,,,,,,,,,,,,,,,,,,,,,,
0,52,52,86,1,,614072e717f769e6280307d3,62bbf9180da4199b4b2f00da,2022-06-29_09h03.44.366,Colour_Asymmetry_Pilot,2022.1.3,MacIntel,60.0024001,62bbe60bf3d75ef465d3e404,,,,,,,,,,,,,,,,,,,,,,,,,,,,,,,,,,,,,,,,,,,,,,,,,,,,,,,,,,,,,,,,,,,,,,,,,,,,,,,,,,,,,,,,,,,,,,,,,,,,,,,,,,,,,,,,,,,,,,,,,,,,,,,,,,,,,,,,,,,,,,,,,,,,,,,,,,,,,,
0,53,53,77,1,,614072e717f769e6280307d3,62bbf9180da4199b4b2f00da,2022-06-29_09h03.44.366,Colour_Asymmetry_Pilot,2022.1.3,MacIntel,60.0024001,62bbe60bf3d75ef465d3e404,,,,,,,,,,,,,,,,,,,,,,,,,,,,,,,,,,,,,,,,,,,,,,,,,,,,,,,,,,,,,,,,,,,,,,,,,,,,,,,,,,,,,,,,,,,,,,,,,,,,,,,,,,,,,,,,,,,,,,,,,,,,,,,,,,,,,,,,,,,,,,,,,,,,,,,,,,,,,,
0,54,54,15,1,,614072e717f769e6280307d3,62bbf9180da4199b4b2f00da,2022-06-29_09h03.44.366,Colour_Asymmetry_Pilot,2022.1.3,MacIntel,60.0024001,62bbe60bf3d75ef465d3e404,,,,,,,,,,,,,,,,,,,,,,,,,,,,,,,,,,,,,,,,,,,,,,,,,,,,,,,,,,,,,,,,,,,,,,,,,,,,,,,,,,,,,,,,,,,,,,,,,,,,,,,,,,,,,,,,,,,,,,,,,,,,,,,,,,,,,,,,,,,,,,,,,,,,,,,,,,,,,,
0,55,55,22,1,,614072e717f769e6280307d3,62bbf9180da4199b4b2f00da,2022-06-29_09h03.44.366,Colour_Asymmetry_Pilot,2022.1.3,MacIntel,60.0024001,62bbe60bf3d75ef465d3e404,,,,,,,,,,,,,,,,,,,,,,,,,,,,,,,,,,,,,,,,,,,,,,,,,,,,,,,,,,,,,,,,,,,,,,,,,,,,,,,,,,,,,,,,,,,,,,,,,,,,,,,,,,,,,,,,,,,,,,,,,,,,,,,,,,,,,,,,,,,,,,,,,,,,,,,,,,,,,,
0,56,56,79,1,,614072e717f769e6280307d3,62bbf9180da4199b4b2f00da,2022-06-29_09h03.44.366,Colour_Asymmetry_Pilot,2022.1.3,MacIntel,60.0024001,62bbe60bf3d75ef465d3e404,,,,,,,,,,,,,,,,,,,,,,,,,,,,,,,,,,,,,,,,,,,,,,,,,,,,,,,,,,,,,,,,,,,,,,,,,,,,,,,,,,,,,,,,,,,,,,,,,,,,,,,,,,,,,,,,,,,,,,,,,,,,,,,,,,,,,,,,,,,,,,,,,,,,,,,,,,,,,,
0,57,57,85,1,,614072e717f769e6280307d3,62bbf9180da4199b4b2f00da,2022-06-29_09h03.44.366,Colour_Asymmetry_Pilot,2022.1.3,MacIntel,60.0024001,62bbe60bf3d75ef465d3e404,,,,,,,,,,,,,,,,,,,,,,,,,,,,,,,,,,,,,,,,,,,,,,,,,,,,,,,,,,,,,,,,,,,,,,,,,,,,,,,,,,,,,,,,,,,,,,,,,,,,,,,,,,,,,,,,,,,,,,,,,,,,,,,,,,,,,,,,,,,,,,,,,,,,,,,,,,,,,,
0,58,58,61,1,,614072e717f769e6280307d3,62bbf9180da4199b4b2f00da,2022-06-29_09h03.44.366,Colour_Asymmetry_Pilot,2022.1.3,MacIntel,60.0024001,62bbe60bf3d75ef465d3e404,,,,,,,,,,,,,,,,,,,,,,,,,,,,,,,,,,,,,,,,,,,,,,,,,,,,,,,,,,,,,,,,,,,,,,,,,,,,,,,,,,,,,,,,,,,,,,,,,,,,,,,,,,,,,,,,,,,,,,,,,,,,,,,,,,,,,,,,,,,,,,,,,,,,,,,,,,,,,,
0,59,59,14,1,,614072e717f769e6280307d3,62bbf9180da4199b4b2f00da,2022-06-29_09h03.44.366,Colour_Asymmetry_Pilot,2022.1.3,MacIntel,60.0024001,62bbe60bf3d75ef465d3e404,,,,,,,,,,,,,,,,,,,,,,,,,,,,,,,,,,,,,,,,,,,,,,,,,,,,,,,,,,,,,,,,,,,,,,,,,,,,,,,,,,,,,,,,,,,,,,,,,,,,,,,,,,,,,,,,,,,,,,,,,,,,,,,,,,,,,,,,,,,,,,,,,,,,,,,,,,,,,,
0,60,60,20,1,,614072e717f769e6280307d3,62bbf9180da4199b4b2f00da,2022-06-29_09h03.44.366,Colour_Asymmetry_Pilot,2022.1.3,MacIntel,60.0024001,62bbe60bf3d75ef465d3e404,,,,,,,,,,,,,,,,,,,,,,,,,,,,,,,,,,,,,,,,,,,,,,,,,,,,,,,,,,,,,,,,,,,,,,,,,,,,,,,,,,,,,,,,,,,,,,,,,,,,,,,,,,,,,,,,,,,,,,,,,,,,,,,,,,,,,,,,,,,,,,,,,,,,,,,,,,,,,,
0,61,61,12,1,,614072e717f769e6280307d3,62bbf9180da4199b4b2f00da,2022-06-29_09h03.44.366,Colour_Asymmetry_Pilot,2022.1.3,MacIntel,60.0024001,62bbe60bf3d75ef465d3e404,,,,,,,,,,,,,,,,,,,,,,,,,,,,,,,,,,,,,,,,,,,,,,,,,,,,,,,,,,,,,,,,,,,,,,,,,,,,,,,,,,,,,,,,,,,,,,,,,,,,,,,,,,,,,,,,,,,,,,,,,,,,,,,,,,,,,,,,,,,,,,,,,,,,,,,,,,,,,,
0,62,62,34,1,,614072e717f769e6280307d3,62bbf9180da4199b4b2f00da,2022-06-29_09h03.44.366,Colour_Asymmetry_Pilot,2022.1.3,MacIntel,60.0024001,62bbe60bf3d75ef465d3e404,,,,,,,,,,,,,,,,,,,,,,,,,,,,,,,,,,,,,,,,,,,,,,,,,,,,,,,,,,,,,,,,,,,,,,,,,,,,,,,,,,,,,,,,,,,,,,,,,,,,,,,,,,,,,,,,,,,,,,,,,,,,,,,,,,,,,,,,,,,,,,,,,,,,,,,,,,,,,,
0,63,63,6,1,,614072e717f769e6280307d3,62bbf9180da4199b4b2f00da,2022-06-29_09h03.44.366,Colour_Asymmetry_Pilot,2022.1.3,MacIntel,60.0024001,62bbe60bf3d75ef465d3e404,,,,,,,,,,,,,,,,,,,,,,,,,,,,,,,,,,,,,,,,,,,,,,,,,,,,,,,,,,,,,,,,,,,,,,,,,,,,,,,,,,,,,,,,,,,,,,,,,,,,,,,,,,,,,,,,,,,,,,,,,,,,,,,,,,,,,,,,,,,,,,,,,,,,,,,,,,,,,,
0,64,64,37,1,,614072e717f769e6280307d3,62bbf9180da4199b4b2f00da,2022-06-29_09h03.44.366,Colour_Asymmetry_Pilot,2022.1.3,MacIntel,60.0024001,62bbe60bf3d75ef465d3e404,,,,,,,,,,,,,,,,,,,,,,,,,,,,,,,,,,,,,,,,,,,,,,,,,,,,,,,,,,,,,,,,,,,,,,,,,,,,,,,,,,,,,,,,,,,,,,,,,,,,,,,,,,,,,,,,,,,,,,,,,,,,,,,,,,,,,,,,,,,,,,,,,,,,,,,,,,,,,,
0,65,65,82,1,,614072e717f769e6280307d3,62bbf9180da4199b4b2f00da,2022-06-29_09h03.44.366,Colour_Asymmetry_Pilot,2022.1.3,MacIntel,60.0024001,62bbe60bf3d75ef465d3e404,,,,,,,,,,,,,,,,,,,,,,,,,,,,,,,,,,,,,,,,,,,,,,,,,,,,,,,,,,,,,,,,,,,,,,,,,,,,,,,,,,,,,,,,,,,,,,,,,,,,,,,,,,,,,,,,,,,,,,,,,,,,,,,,,,,,,,,,,,,,,,,,,,,,,,,,,,,,,,
0,66,66,40,1,,614072e717f769e6280307d3,62bbf9180da4199b4b2f00da,2022-06-29_09h03.44.366,Colour_Asymmetry_Pilot,2022.1.3,MacIntel,60.0024001,62bbe60bf3d75ef465d3e404,,,,,,,,,,,,,,,,,,,,,,,,,,,,,,,,,,,,,,,,,,,,,,,,,,,,,,,,,,,,,,,,,,,,,,,,,,,,,,,,,,,,,,,,,,,,,,,,,,,,,,,,,,,,,,,,,,,,,,,,,,,,,,,,,,,,,,,,,,,,,,,,,,,,,,,,,,,,,,
0,67,67,7,1,,614072e717f769e6280307d3,62bbf9180da4199b4b2f00da,2022-06-29_09h03.44.366,Colour_Asymmetry_Pilot,2022.1.3,MacIntel,60.0024001,62bbe60bf3d75ef465d3e404,,,,,,,,,,,,,,,,,,,,,,,,,,,,,,,,,,,,,,,,,,,,,,,,,,,,,,,,,,,,,,,,,,,,,,,,,,,,,,,,,,,,,,,,,,,,,,,,,,,,,,,,,,,,,,,,,,,,,,,,,,,,,,,,,,,,,,,,,,,,,,,,,,,,,,,,,,,,,,
0,68,68,64,1,,614072e717f769e6280307d3,62bbf9180da4199b4b2f00da,2022-06-29_09h03.44.366,Colour_Asymmetry_Pilot,2022.1.3,MacIntel,60.0024001,62bbe60bf3d75ef465d3e404,,,,,,,,,,,,,,,,,,,,,,,,,,,,,,,,,,,,,,,,,,,,,,,,,,,,,,,,,,,,,,,,,,,,,,,,,,,,,,,,,,,,,,,,,,,,,,,,,,,,,,,,,,,,,,,,,,,,,,,,,,,,,,,,,,,,,,,,,,,,,,,,,,,,,,,,,,,,,,
0,69,69,17,1,,614072e717f769e6280307d3,62bbf9180da4199b4b2f00da,2022-06-29_09h03.44.366,Colour_Asymmetry_Pilot,2022.1.3,MacIntel,60.0024001,62bbe60bf3d75ef465d3e404,,,,,,,,,,,,,,,,,,,,,,,,,,,,,,,,,,,,,,,,,,,,,,,,,,,,,,,,,,,,,,,,,,,,,,,,,,,,,,,,,,,,,,,,,,,,,,,,,,,,,,,,,,,,,,,,,,,,,,,,,,,,,,,,,,,,,,,,,,,,,,,,,,,,,,,,,,,,,,
0,70,70,18,1,,614072e717f769e6280307d3,62bbf9180da4199b4b2f00da,2022-06-29_09h03.44.366,Colour_Asymmetry_Pilot,2022.1.3,MacIntel,60.0024001,62bbe60bf3d75ef465d3e404,,,,,,,,,,,,,,,,,,,,,,,,,,,,,,,,,,,,,,,,,,,,,,,,,,,,,,,,,,,,,,,,,,,,,,,,,,,,,,,,,,,,,,,,,,,,,,,,,,,,,,,,,,,,,,,,,,,,,,,,,,,,,,,,,,,,,,,,,,,,,,,,,,,,,,,,,,,,,,
0,71,71,63,1,,614072e717f769e6280307d3,62bbf9180da4199b4b2f00da,2022-06-29_09h03.44.366,Colour_Asymmetry_Pilot,2022.1.3,MacIntel,60.0024001,62bbe60bf3d75ef465d3e404,,,,,,,,,,,,,,,,,,,,,,,,,,,,,,,,,,,,,,,,,,,,,,,,,,,,,,,,,,,,,,,,,,,,,,,,,,,,,,,,,,,,,,,,,,,,,,,,,,,,,,,,,,,,,,,,,,,,,,,,,,,,,,,,,,,,,,,,,,,,,,,,,,,,,,,,,,,,,,
0,72,72,56,1,,614072e717f769e6280307d3,62bbf9180da4199b4b2f00da,2022-06-29_09h03.44.366,Colour_Asymmetry_Pilot,2022.1.3,MacIntel,60.0024001,62bbe60bf3d75ef465d3e404,,,,,,,,,,,,,,,,,,,,,,,,,,,,,,,,,,,,,,,,,,,,,,,,,,,,,,,,,,,,,,,,,,,,,,,,,,,,,,,,,,,,,,,,,,,,,,,,,,,,,,,,,,,,,,,,,,,,,,,,,,,,,,,,,,,,,,,,,,,,,,,,,,,,,,,,,,,,,,
0,73,73,36,1,,614072e717f769e6280307d3,62bbf9180da4199b4b2f00da,2022-06-29_09h03.44.366,Colour_Asymmetry_Pilot,2022.1.3,MacIntel,60.0024001,62bbe60bf3d75ef465d3e404,,,,,,,,,,,,,,,,,,,,,,,,,,,,,,,,,,,,,,,,,,,,,,,,,,,,,,,,,,,,,,,,,,,,,,,,,,,,,,,,,,,,,,,,,,,,,,,,,,,,,,,,,,,,,,,,,,,,,,,,,,,,,,,,,,,,,,,,,,,,,,,,,,,,,,,,,,,,,,
0,74,74,75,1,,614072e717f769e6280307d3,62bbf9180da4199b4b2f00da,2022-06-29_09h03.44.366,Colour_Asymmetry_Pilot,2022.1.3,MacIntel,60.0024001,62bbe60bf3d75ef465d3e404,,,,,,,,,,,,,,,,,,,,,,,,,,,,,,,,,,,,,,,,,,,,,,,,,,,,,,,,,,,,,,,,,,,,,,,,,,,,,,,,,,,,,,,,,,,,,,,,,,,,,,,,,,,,,,,,,,,,,,,,,,,,,,,,,,,,,,,,,,,,,,,,,,,,,,,,,,,,,,
0,75,75,21,1,,614072e717f769e6280307d3,62bbf9180da4199b4b2f00da,2022-06-29_09h03.44.366,Colour_Asymmetry_Pilot,2022.1.3,MacIntel,60.0024001,62bbe60bf3d75ef465d3e404,,,,,,,,,,,,,,,,,,,,,,,,,,,,,,,,,,,,,,,,,,,,,,,,,,,,,,,,,,,,,,,,,,,,,,,,,,,,,,,,,,,,,,,,,,,,,,,,,,,,,,,,,,,,,,,,,,,,,,,,,,,,,,,,,,,,,,,,,,,,,,,,,,,,,,,,,,,,,,
0,76,76,70,1,,614072e717f769e6280307d3,62bbf9180da4199b4b2f00da,2022-06-29_09h03.44.366,Colour_Asymmetry_Pilot,2022.1.3,MacIntel,60.0024001,62bbe60bf3d75ef465d3e404,,,,,,,,,,,,,,,,,,,,,,,,,,,,,,,,,,,,,,,,,,,,,,,,,,,,,,,,,,,,,,,,,,,,,,,,,,,,,,,,,,,,,,,,,,,,,,,,,,,,,,,,,,,,,,,,,,,,,,,,,,,,,,,,,,,,,,,,,,,,,,,,,,,,,,,,,,,,,,
0,77,77,10,1,,614072e717f769e6280307d3,62bbf9180da4199b4b2f00da,2022-06-29_09h03.44.366,Colour_Asymmetry_Pilot,2022.1.3,MacIntel,60.0024001,62bbe60bf3d75ef465d3e404,,,,,,,,,,,,,,,,,,,,,,,,,,,,,,,,,,,,,,,,,,,,,,,,,,,,,,,,,,,,,,,,,,,,,,,,,,,,,,,,,,,,,,,,,,,,,,,,,,,,,,,,,,,,,,,,,,,,,,,,,,,,,,,,,,,,,,,,,,,,,,,,,,,,,,,,,,,,,,
0,78,78,53,1,,614072e717f769e6280307d3,62bbf9180da4199b4b2f00da,2022-06-29_09h03.44.366,Colour_Asymmetry_Pilot,2022.1.3,MacIntel,60.0024001,62bbe60bf3d75ef465d3e404,,,,,,,,,,,,,,,,,,,,,,,,,,,,,,,,,,,,,,,,,,,,,,,,,,,,,,,,,,,,,,,,,,,,,,,,,,,,,,,,,,,,,,,,,,,,,,,,,,,,,,,,,,,,,,,,,,,,,,,,,,,,,,,,,,,,,,,,,,,,,,,,,,,,,,,,,,,,,,
0,79,79,1,1,,614072e717f769e6280307d3,62bbf9180da4199b4b2f00da,2022-06-29_09h03.44.366,Colour_Asymmetry_Pilot,2022.1.3,MacIntel,60.0024001,62bbe60bf3d75ef465d3e404,,,,,,,,,,,,,,,,,,,,,,,,,,,,,,,,,,,,,,,,,,,,,,,,,,,,,,,,,,,,,,,,,,,,,,,,,,,,,,,,,,,,,,,,,,,,,,,,,,,,,,,,,,,,,,,,,,,,,,,,,,,,,,,,,,,,,,,,,,,,,,,,,,,,,,,,,,,,,,
0,80,80,31,1,,614072e717f769e6280307d3,62bbf9180da4199b4b2f00da,2022-06-29_09h03.44.366,Colour_Asymmetry_Pilot,2022.1.3,MacIntel,60.0024001,62bbe60bf3d75ef465d3e404,,,,,,,,,,,,,,,,,,,,,,,,,,,,,,,,,,,,,,,,,,,,,,,,,,,,,,,,,,,,,,,,,,,,,,,,,,,,,,,,,,,,,,,,,,,,,,,,,,,,,,,,,,,,,,,,,,,,,,,,,,,,,,,,,,,,,,,,,,,,,,,,,,,,,,,,,,,,,,
0,81,81,26,1,,614072e717f769e6280307d3,62bbf9180da4199b4b2f00da,2022-06-29_09h03.44.366,Colour_Asymmetry_Pilot,2022.1.3,MacIntel,60.0024001,62bbe60bf3d75ef465d3e404,,,,,,,,,,,,,,,,,,,,,,,,,,,,,,,,,,,,,,,,,,,,,,,,,,,,,,,,,,,,,,,,,,,,,,,,,,,,,,,,,,,,,,,,,,,,,,,,,,,,,,,,,,,,,,,,,,,,,,,,,,,,,,,,,,,,,,,,,,,,,,,,,,,,,,,,,,,,,,
0,82,82,62,1,,614072e717f769e6280307d3,62bbf9180da4199b4b2f00da,2022-06-29_09h03.44.366,Colour_Asymmetry_Pilot,2022.1.3,MacIntel,60.0024001,62bbe60bf3d75ef465d3e404,,,,,,,,,,,,,,,,,,,,,,,,,,,,,,,,,,,,,,,,,,,,,,,,,,,,,,,,,,,,,,,,,,,,,,,,,,,,,,,,,,,,,,,,,,,,,,,,,,,,,,,,,,,,,,,,,,,,,,,,,,,,,,,,,,,,,,,,,,,,,,,,,,,,,,,,,,,,,,
0,83,83,73,1,,614072e717f769e6280307d3,62bbf9180da4199b4b2f00da,2022-06-29_09h03.44.366,Colour_Asymmetry_Pilot,2022.1.3,MacIntel,60.0024001,62bbe60bf3d75ef465d3e404,,,,,,,,,,,,,,,,,,,,,,,,,,,,,,,,,,,,,,,,,,,,,,,,,,,,,,,,,,,,,,,,,,,,,,,,,,,,,,,,,,,,,,,,,,,,,,,,,,,,,,,,,,,,,,,,,,,,,,,,,,,,,,,,,,,,,,,,,,,,,,,,,,,,,,,,,,,,,,
0,84,84,78,1,,614072e717f769e6280307d3,62bbf9180da4199b4b2f00da,2022-06-29_09h03.44.366,Colour_Asymmetry_Pilot,2022.1.3,MacIntel,60.0024001,62bbe60bf3d75ef465d3e404,,,,,,,,,,,,,,,,,,,,,,,,,,,,,,,,,,,,,,,,,,,,,,,,,,,,,,,,,,,,,,,,,,,,,,,,,,,,,,,,,,,,,,,,,,,,,,,,,,,,,,,,,,,,,,,,,,,,,,,,,,,,,,,,,,,,,,,,,,,,,,,,,,,,,,,,,,,,,,
0,85,85,4,1,,614072e717f769e6280307d3,62bbf9180da4199b4b2f00da,2022-06-29_09h03.44.366,Colour_Asymmetry_Pilot,2022.1.3,MacIntel,60.0024001,62bbe60bf3d75ef465d3e404,,,,,,,,,,,,,,,,,,,,,,,,,,,,,,,,,,,,,,,,,,,,,,,,,,,,,,,,,,,,,,,,,,,,,,,,,,,,,,,,,,,,,,,,,,,,,,,,,,,,,,,,,,,,,,,,,,,,,,,,,,,,,,,,,,,,,,,,,,,,,,,,,,,,,,,,,,,,,,
0,86,86,87,1,,614072e717f769e6280307d3,62bbf9180da4199b4b2f00da,2022-06-29_09h03.44.366,Colour_Asymmetry_Pilot,2022.1.3,MacIntel,60.0024001,62bbe60bf3d75ef465d3e404,,,,,,,,,,,,,,,,,,,,,,,,,,,,,,,,,,,,,,,,,,,,,,,,,,,,,,,,,,,,,,,,,,,,,,,,,,,,,,,,,,,,,,,,,,,,,,,,,,,,,,,,,,,,,,,,,,,,,,,,,,,,,,,,,,,,,,,,,,,,,,,,,,,,,,,,,,,,,,
0,87,87,88,1,,614072e717f769e6280307d3,62bbf9180da4199b4b2f00da,2022-06-29_09h03.44.366,Colour_Asymmetry_Pilot,2022.1.3,MacIntel,60.0024001,62bbe60bf3d75ef465d3e404,,,,,,,,,,,,,,,,,,,,,,,,,,,,,,,,,,,,,,,,,,,,,,,,,,,,,,,,,,,,,,,,,,,,,,,,,,,,,,,,,,,,,,,,,,,,,,,,,,,,,,,,,,,,,,,,,,,,,,,,,,,,,,,,,,,,,,,,,,,,,,,,,,,,,,,,,,,,,,
0,88,88,19,1,,614072e717f769e6280307d3,62bbf9180da4199b4b2f00da,2022-06-29_09h03.44.366,Colour_Asymmetry_Pilot,2022.1.3,MacIntel,60.0024001,62bbe60bf3d75ef465d3e404,,,,,,,,,,,,,,,,,,,,,,,,,,,,,,,,,,,,,,,,,,,,,,,,,,,,,,,,,,,,,,,,,,,,,,,,,,,,,,,,,,,,,,,,,,,,,,,,,,,,,,,,,,,,,,,,,,,,,,,,,,,,,,,,,,,,,,,,,,,,,,,,,,,,,,,,,,,,,,
0,89,89,41,1,,614072e717f769e6280307d3,62bbf9180da4199b4b2f00da,2022-06-29_09h03.44.366,Colour_Asymmetry_Pilot,2022.1.3,MacIntel,60.0024001,62bbe60bf3d75ef465d3e404,,,,,,,,,,,,,,,,,,,,,,,,,,,,,,,,,,,,,,,,,,,,,,,,,,,,,,,,,,,,,,,,,,,,,,,,,,,,,,,,,,,,,,,,,,,,,,,,,,,,,,,,,,,,,,,,,,,,,,,,,,,,,,,,,,,,,,,,,,,,,,,,,,,,,,,,,,,,,,
0,90,90,54,1,,614072e717f769e6280307d3,62bbf9180da4199b4b2f00da,2022-06-29_09h03.44.366,Colour_Asymmetry_Pilot,2022.1.3,MacIntel,60.0024001,62bbe60bf3d75ef465d3e404,,,,,,,,,,,,,,,,,,,,,,,,,,,,,,,,,,,,,,,,,,,,,,,,,,,,,,,,,,,,,,,,,,,,,,,,,,,,,,,,,,,,,,,,,,,,,,,,,,,,,,,,,,,,,,,,,,,,,,,,,,,,,,,,,,,,,,,,,,,,,,,,,,,,,,,,,,,,,,
0,91,91,39,1,,614072e717f769e6280307d3,62bbf9180da4199b4b2f00da,2022-06-29_09h03.44.366,Colour_Asymmetry_Pilot,2022.1.3,MacIntel,60.0024001,62bbe60bf3d75ef465d3e404,,,,,,,,,,,,,,,,,,,,,,,,,,,,,,,,,,,,,,,,,,,,,,,,,,,,,,,,,,,,,,,,,,,,,,,,,,,,,,,,,,,,,,,,,,,,,,,,,,,,,,,,,,,,,,,,,,,,,,,,,,,,,,,,,,,,,,,,,,,,,,,,,,,,,,,,,,,,,,
0,92,92,52,1,,614072e717f769e6280307d3,62bbf9180da4199b4b2f00da,2022-06-29_09h03.44.366,Colour_Asymmetry_Pilot,2022.1.3,MacIntel,60.0024001,62bbe60bf3d75ef465d3e404,,,,,,,,,,,,,,,,,,,,,,,,,,,,,,,,,,,,,,,,,,,,,,,,,,,,,,,,,,,,,,,,,,,,,,,,,,,,,,,,,,,,,,,,,,,,,,,,,,,,,,,,,,,,,,,,,,,,,,,,,,,,,,,,,,,,,,,,,,,,,,,,,,,,,,,,,,,,,,
,,,,,,614072e717f769e6280307d3,62bbf9180da4199b4b2f00da,2022-06-29_09h03.44.366,Colour_Asymmetry_Pilot,2022.1.3,MacIntel,60.0024001,62bbe60bf3d75ef465d3e404,0,0,0,158,1,fourtwo,,,,,,,,,,,,,,,,,,,,,,,,,,,,,,,,,,,,,,,,,,,,,,,,,,,,,,,,,,,,,,,,,,,,,,,,,,,,,,,,,,,,,,,,,,,,,,,,,,,,,,,,,,,,,,,,,,,,,,,,,,,,,,,,,,,,,,,,,,,,,,,,,,,,,,,,
,,,,,,614072e717f769e6280307d3,62bbf9180da4199b4b2f00da,2022-06-29_09h03.44.366,Colour_Asymmetry_Pilot,2022.1.3,MacIntel,60.0024001,62bbe60bf3d75ef465d3e404,0,1,1,58,1,twoone,,,,,,,,,,,,,,,,,,,,,,,,,,,,,,,,,,,,,,,,,,,,,,,,,,,,,,,,,,,,,,,,,,,,,,,,,,,,,,,,,,,,,,,,,,,,,,,,,,,,,,,,,,,,,,,,,,,,,,,,,,,,,,,,,,,,,,,,,,,,,,,,,,,,,,,,
,,,,,,614072e717f769e6280307d3,62bbf9180da4199b4b2f00da,2022-06-29_09h03.44.366,Colour_Asymmetry_Pilot,2022.1.3,MacIntel,60.0024001,62bbe60bf3d75ef465d3e404,0,2,2,22,1,fourtwo,,,,,,,,,,,,,,,,,,,,,,,,,,,,,,,,,,,,,,,,,,,,,,,,,,,,,,,,,,,,,,,,,,,,,,,,,,,,,,,,,,,,,,,,,,,,,,,,,,,,,,,,,,,,,,,,,,,,,,,,,,,,,,,,,,,,,,,,,,,,,,,,,,,,,,,,
,,,,,,614072e717f769e6280307d3,62bbf9180da4199b4b2f00da,2022-06-29_09h03.44.366,Colour_Asymmetry_Pilot,2022.1.3,MacIntel,60.0024001,62bbe60bf3d75ef465d3e404,0,3,3,128,1,onetwo,,,,,,,,,,,,,,,,,,,,,,,,,,,,,,,,,,,,,,,,,,,,,,,,,,,,,,,,,,,,,,,,,,,,,,,,,,,,,,,,,,,,,,,,,,,,,,,,,,,,,,,,,,,,,,,,,,,,,,,,,,,,,,,,,,,,,,,,,,,,,,,,,,,,,,,,
,,,,,,614072e717f769e6280307d3,62bbf9180da4199b4b2f00da,2022-06-29_09h03.44.366,Colour_Asymmetry_Pilot,2022.1.3,MacIntel,60.0024001,62bbe60bf3d75ef465d3e404,0,4,4,35,1,twofour,,,,,,,,,,,,,,,,,,,,,,,,,,,,,,,,,,,,,,,,,,,,,,,,,,,,,,,,,,,,,,,,,,,,,,,,,,,,,,,,,,,,,,,,,,,,,,,,,,,,,,,,,,,,,,,,,,,,,,,,,,,,,,,,,,,,,,,,,,,,,,,,,,,,,,,,
,,,,,,614072e717f769e6280307d3,62bbf9180da4199b4b2f00da,2022-06-29_09h03.44.366,Colour_Asymmetry_Pilot,2022.1.3,MacIntel,60.0024001,62bbe60bf3d75ef465d3e404,0,5,5,65,1,onethree,,,,,,,,,,,,,,,,,,,,,,,,,,,,,,,,,,,,,,,,,,,,,,,,,,,,,,,,,,,,,,,,,,,,,,,,,,,,,,,,,,,,,,,,,,,,,,,,,,,,,,,,,,,,,,,,,,,,,,,,,,,,,,,,,,,,,,,,,,,,,,,,,,,,,,,,
,,,,,,614072e717f769e6280307d3,62bbf9180da4199b4b2f00da,2022-06-29_09h03.44.366,Colour_Asymmetry_Pilot,2022.1.3,MacIntel,60.0024001,62bbe60bf3d75ef465d3e404,0,6,6,73,1,onethree,,,,,,,,,,,,,,,,,,,,,,,,,,,,,,,,,,,,,,,,,,,,,,,,,,,,,,,,,,,,,,,,,,,,,,,,,,,,,,,,,,,,,,,,,,,,,,,,,,,,,,,,,,,,,,,,,,,,,,,,,,,,,,,,,,,,,,,,,,,,,,,,,,,,,,,,
,,,,,,614072e717f769e6280307d3,62bbf9180da4199b4b2f00da,2022-06-29_09h03.44.366,Colour_Asymmetry_Pilot,2022.1.3,MacIntel,60.0024001,62bbe60bf3d75ef465d3e404,0,7,7,4,1,threeone,,,,,,,,,,,,,,,,,,,,,,,,,,,,,,,,,,,,,,,,,,,,,,,,,,,,,,,,,,,,,,,,,,,,,,,,,,,,,,,,,,,,,,,,,,,,,,,,,,,,,,,,,,,,,,,,,,,,,,,,,,,,,,,,,,,,,,,,,,,,,,,,,,,,,,,,
,,,,,,614072e717f769e6280307d3,62bbf9180da4199b4b2f00da,2022-06-29_09h03.44.366,Colour_Asymmetry_Pilot,2022.1.3,MacIntel,60.0024001,62bbe60bf3d75ef465d3e404,0,8,8,37,1,threefour,,,,,,,,,,,,,,,,,,,,,,,,,,,,,,,,,,,,,,,,,,,,,,,,,,,,,,,,,,,,,,,,,,,,,,,,,,,,,,,,,,,,,,,,,,,,,,,,,,,,,,,,,,,,,,,,,,,,,,,,,,,,,,,,,,,,,,,,,,,,,,,,,,,,,,,,
,,,,,,614072e717f769e6280307d3,62bbf9180da4199b4b2f00da,2022-06-29_09h03.44.366,Colour_Asymmetry_Pilot,2022.1.3,MacIntel,60.0024001,62bbe60bf3d75ef465d3e404,0,9,9,117,1,threefour,,,,,,,,,,,,,,,,,,,,,,,,,,,,,,,,,,,,,,,,,,,,,,,,,,,,,,,,,,,,,,,,,,,,,,,,,,,,,,,,,,,,,,,,,,,,,,,,,,,,,,,,,,,,,,,,,,,,,,,,,,,,,,,,,,,,,,,,,,,,,,,,,,,,,,,,
,,,,,,614072e717f769e6280307d3,62bbf9180da4199b4b2f00da,2022-06-29_09h03.44.366,Colour_Asymmetry_Pilot,2022.1.3,MacIntel,60.0024001,62bbe60bf3d75ef465d3e404,0,10,10,105,1,onethree,,,,,,,,,,,,,,,,,,,,,,,,,,,,,,,,,,,,,,,,,,,,,,,,,,,,,,,,,,,,,,,,,,,,,,,,,,,,,,,,,,,,,,,,,,,,,,,,,,,,,,,,,,,,,,,,,,,,,,,,,,,,,,,,,,,,,,,,,,,,,,,,,,,,,,,,
,,,,,,614072e717f769e6280307d3,62bbf9180da4199b4b2f00da,2022-06-29_09h03.44.366,Colour_Asymmetry_Pilot,2022.1.3,MacIntel,60.0024001,62bbe60bf3d75ef465d3e404,0,11,11,59,1,twofour,,,,,,,,,,,,,,,,,,,,,,,,,,,,,,,,,,,,,,,,,,,,,,,,,,,,,,,,,,,,,,,,,,,,,,,,,,,,,,,,,,,,,,,,,,,,,,,,,,,,,,,,,,,,,,,,,,,,,,,,,,,,,,,,,,,,,,,,,,,,,,,,,,,,,,,,
,,,,,,614072e717f769e6280307d3,62bbf9180da4199b4b2f00da,2022-06-29_09h03.44.366,Colour_Asymmetry_Pilot,2022.1.3,MacIntel,60.0024001,62bbe60bf3d75ef465d3e404,0,12,12,14,1,fourtwo,,,,,,,,,,,,,,,,,,,,,,,,,,,,,,,,,,,,,,,,,,,,,,,,,,,,,,,,,,,,,,,,,,,,,,,,,,,,,,,,,,,,,,,,,,,,,,,,,,,,,,,,,,,,,,,,,,,,,,,,,,,,,,,,,,,,,,,,,,,,,,,,,,,,,,,,
,,,,,,614072e717f769e6280307d3,62bbf9180da4199b4b2f00da,2022-06-29_09h03.44.366,Colour_Asymmetry_Pilot,2022.1.3,MacIntel,60.0024001,62bbe60bf3d75ef465d3e404,0,13,13,88,1,onetwo,,,,,,,,,,,,,,,,,,,,,,,,,,,,,,,,,,,,,,,,,,,,,,,,,,,,,,,,,,,,,,,,,,,,,,,,,,,,,,,,,,,,,,,,,,,,,,,,,,,,,,,,,,,,,,,,,,,,,,,,,,,,,,,,,,,,,,,,,,,,,,,,,,,,,,,,
,,,,,,614072e717f769e6280307d3,62bbf9180da4199b4b2f00da,2022-06-29_09h03.44.366,Colour_Asymmetry_Pilot,2022.1.3,MacIntel,60.0024001,62bbe60bf3d75ef465d3e404,0,14,14,96,1,onetwo,,,,,,,,,,,,,,,,,,,,,,,,,,,,,,,,,,,,,,,,,,,,,,,,,,,,,,,,,,,,,,,,,,,,,,,,,,,,,,,,,,,,,,,,,,,,,,,,,,,,,,,,,,,,,,,,,,,,,,,,,,,,,,,,,,,,,,,,,,,,,,,,,,,,,,,,
,,,,,,614072e717f769e6280307d3,62bbf9180da4199b4b2f00da,2022-06-29_09h03.44.366,Colour_Asymmetry_Pilot,2022.1.3,MacIntel,60.0024001,62bbe60bf3d75ef465d3e404,0,15,15,41,1,onethree,,,,,,,,,,,,,,,,,,,,,,,,,,,,,,,,,,,,,,,,,,,,,,,,,,,,,,,,,,,,,,,,,,,,,,,,,,,,,,,,,,,,,,,,,,,,,,,,,,,,,,,,,,,,,,,,,,,,,,,,,,,,,,,,,,,,,,,,,,,,,,,,,,,,,,,,
,,,,,,614072e717f769e6280307d3,62bbf9180da4199b4b2f00da,2022-06-29_09h03.44.366,Colour_Asymmetry_Pilot,2022.1.3,MacIntel,60.0024001,62bbe60bf3d75ef465d3e404,0,16,16,103,1,fourthree,,,,,,,,,,,,,,,,,,,,,,,,,,,,,,,,,,,,,,,,,,,,,,,,,,,,,,,,,,,,,,,,,,,,,,,,,,,,,,,,,,,,,,,,,,,,,,,,,,,,,,,,,,,,,,,,,,,,,,,,,,,,,,,,,,,,,,,,,,,,,,,,,,,,,,,,
,,,,,,614072e717f769e6280307d3,62bbf9180da4199b4b2f00da,2022-06-29_09h03.44.366,Colour_Asymmetry_Pilot,2022.1.3,MacIntel,60.0024001,62bbe60bf3d75ef465d3e404,0,17,17,24,1,onetwo,,,,,,,,,,,,,,,,,,,,,,,,,,,,,,,,,,,,,,,,,,,,,,,,,,,,,,,,,,,,,,,,,,,,,,,,,,,,,,,,,,,,,,,,,,,,,,,,,,,,,,,,,,,,,,,,,,,,,,,,,,,,,,,,,,,,,,,,,,,,,,,,,,,,,,,,
,,,,,,614072e717f769e6280307d3,62bbf9180da4199b4b2f00da,2022-06-29_09h03.44.366,Colour_Asymmetry_Pilot,2022.1.3,MacIntel,60.0024001,62bbe60bf3d75ef465d3e404,0,18,18,68,1,threeone,,,,,,,,,,,,,,,,,,,,,,,,,,,,,,,,,,,,,,,,,,,,,,,,,,,,,,,,,,,,,,,,,,,,,,,,,,,,,,,,,,,,,,,,,,,,,,,,,,,,,,,,,,,,,,,,,,,,,,,,,,,,,,,,,,,,,,,,,,,,,,,,,,,,,,,,
,,,,,,614072e717f769e6280307d3,62bbf9180da4199b4b2f00da,2022-06-29_09h03.44.366,Colour_Asymmetry_Pilot,2022.1.3,MacIntel,60.0024001,62bbe60bf3d75ef465d3e404,0,19,19,120,1,onetwo,,,,,,,,,,,,,,,,,,,,,,,,,,,,,,,,,,,,,,,,,,,,,,,,,,,,,,,,,,,,,,,,,,,,,,,,,,,,,,,,,,,,,,,,,,,,,,,,,,,,,,,,,,,,,,,,,,,,,,,,,,,,,,,,,,,,,,,,,,,,,,,,,,,,,,,,
,,,,,,614072e717f769e6280307d3,62bbf9180da4199b4b2f00da,2022-06-29_09h03.44.366,Colour_Asymmetry_Pilot,2022.1.3,MacIntel,60.0024001,62bbe60bf3d75ef465d3e404,0,20,20,75,1,twofour,,,,,,,,,,,,,,,,,,,,,,,,,,,,,,,,,,,,,,,,,,,,,,,,,,,,,,,,,,,,,,,,,,,,,,,,,,,,,,,,,,,,,,,,,,,,,,,,,,,,,,,,,,,,,,,,,,,,,,,,,,,,,,,,,,,,,,,,,,,,,,,,,,,,,,,,
,,,,,,614072e717f769e6280307d3,62bbf9180da4199b4b2f00da,2022-06-29_09h03.44.366,Colour_Asymmetry_Pilot,2022.1.3,MacIntel,60.0024001,62bbe60bf3d75ef465d3e404,0,21,21,16,1,onetwo,,,,,,,,,,,,,,,,,,,,,,,,,,,,,,,,,,,,,,,,,,,,,,,,,,,,,,,,,,,,,,,,,,,,,,,,,,,,,,,,,,,,,,,,,,,,,,,,,,,,,,,,,,,,,,,,,,,,,,,,,,,,,,,,,,,,,,,,,,,,,,,,,,,,,,,,
,,,,,,614072e717f769e6280307d3,62bbf9180da4199b4b2f00da,2022-06-29_09h03.44.366,Colour_Asymmetry_Pilot,2022.1.3,MacIntel,60.0024001,62bbe60bf3d75ef465d3e404,0,22,22,92,1,threeone,,,,,,,,,,,,,,,,,,,,,,,,,,,,,,,,,,,,,,,,,,,,,,,,,,,,,,,,,,,,,,,,,,,,,,,,,,,,,,,,,,,,,,,,,,,,,,,,,,,,,,,,,,,,,,,,,,,,,,,,,,,,,,,,,,,,,,,,,,,,,,,,,,,,,,,,
,,,,,,614072e717f769e6280307d3,62bbf9180da4199b4b2f00da,2022-06-29_09h03.44.366,Colour_Asymmetry_Pilot,2022.1.3,MacIntel,60.0024001,62bbe60bf3d75ef465d3e404,0,23,23,123,1,twofour,,,,,,,,,,,,,,,,,,,,,,,,,,,,,,,,,,,,,,,,,,,,,,,,,,,,,,,,,,,,,,,,,,,,,,,,,,,,,,,,,,,,,,,,,,,,,,,,,,,,,,,,,,,,,,,,,,,,,,,,,,,,,,,,,,,,,,,,,,,,,,,,,,,,,,,,
,,,,,,614072e717f769e6280307d3,62bbf9180da4199b4b2f00da,2022-06-29_09h03.44.366,Colour_Asymmetry_Pilot,2022.1.3,MacIntel,60.0024001,62bbe60bf3d75ef465d3e404,0,24,24,160,1,onetwo,,,,,,,,,,,,,,,,,,,,,,,,,,,,,,,,,,,,,,,,,,,,,,,,,,,,,,,,,,,,,,,,,,,,,,,,,,,,,,,,,,,,,,,,,,,,,,,,,,,,,,,,,,,,,,,,,,,,,,,,,,,,,,,,,,,,,,,,,,,,,,,,,,,,,,,,
,,,,,,614072e717f769e6280307d3,62bbf9180da4199b4b2f00da,2022-06-29_09h03.44.366,Colour_Asymmetry_Pilot,2022.1.3,MacIntel,60.0024001,62bbe60bf3d75ef465d3e404,0,25,25,18,1,twoone,,,,,,,,,,,,,,,,,,,,,,,,,,,,,,,,,,,,,,,,,,,,,,,,,,,,,,,,,,,,,,,,,,,,,,,,,,,,,,,,,,,,,,,,,,,,,,,,,,,,,,,,,,,,,,,,,,,,,,,,,,,,,,,,,,,,,,,,,,,,,,,,,,,,,,,,
,,,,,,614072e717f769e6280307d3,62bbf9180da4199b4b2f00da,2022-06-29_09h03.44.366,Colour_Asymmetry_Pilot,2022.1.3,MacIntel,60.0024001,62bbe60bf3d75ef465d3e404,0,26,26,133,1,threefour,,,,,,,,,,,,,,,,,,,,,,,,,,,,,,,,,,,,,,,,,,,,,,,,,,,,,,,,,,,,,,,,,,,,,,,,,,,,,,,,,,,,,,,,,,,,,,,,,,,,,,,,,,,,,,,,,,,,,,,,,,,,,,,,,,,,,,,,,,,,,,,,,,,,,,,,
,,,,,,614072e717f769e6280307d3,62bbf9180da4199b4b2f00da,2022-06-29_09h03.44.366,Colour_Asymmetry_Pilot,2022.1.3,MacIntel,60.0024001,62bbe60bf3d75ef465d3e404,0,27,27,56,1,onetwo,,,,,,,,,,,,,,,,,,,,,,,,,,,,,,,,,,,,,,,,,,,,,,,,,,,,,,,,,,,,,,,,,,,,,,,,,,,,,,,,,,,,,,,,,,,,,,,,,,,,,,,,,,,,,,,,,,,,,,,,,,,,,,,,,,,,,,,,,,,,,,,,,,,,,,,,
,,,,,,614072e717f769e6280307d3,62bbf9180da4199b4b2f00da,2022-06-29_09h03.44.366,Colour_Asymmetry_Pilot,2022.1.3,MacIntel,60.0024001,62bbe60bf3d75ef465d3e404,0,28,28,145,1,onethree,,,,,,,,,,,,,,,,,,,,,,,,,,,,,,,,,,,,,,,,,,,,,,,,,,,,,,,,,,,,,,,,,,,,,,,,,,,,,,,,,,,,,,,,,,,,,,,,,,,,,,,,,,,,,,,,,,,,,,,,,,,,,,,,,,,,,,,,,,,,,,,,,,,,,,,,
,,,,,,614072e717f769e6280307d3,62bbf9180da4199b4b2f00da,2022-06-29_09h03.44.366,Colour_Asymmetry_Pilot,2022.1.3,MacIntel,60.0024001,62bbe60bf3d75ef465d3e404,0,29,29,102,1,fourtwo,,,,,,,,,,,,,,,,,,,,,,,,,,,,,,,,,,,,,,,,,,,,,,,,,,,,,,,,,,,,,,,,,,,,,,,,,,,,,,,,,,,,,,,,,,,,,,,,,,,,,,,,,,,,,,,,,,,,,,,,,,,,,,,,,,,,,,,,,,,,,,,,,,,,,,,,
,,,,,,614072e717f769e6280307d3,62bbf9180da4199b4b2f00da,2022-06-29_09h03.44.366,Colour_Asymmetry_Pilot,2022.1.3,MacIntel,60.0024001,62bbe60bf3d75ef465d3e404,0,30,30,149,1,threefour,,,,,,,,,,,,,,,,,,,,,,,,,,,,,,,,,,,,,,,,,,,,,,,,,,,,,,,,,,,,,,,,,,,,,,,,,,,,,,,,,,,,,,,,,,,,,,,,,,,,,,,,,,,,,,,,,,,,,,,,,,,,,,,,,,,,,,,,,,,,,,,,,,,,,,,,
,,,,,,614072e717f769e6280307d3,62bbf9180da4199b4b2f00da,2022-06-29_09h03.44.366,Colour_Asymmetry_Pilot,2022.1.3,MacIntel,60.0024001,62bbe60bf3d75ef465d3e404,0,31,31,90,1,twoone,,,,,,,,,,,,,,,,,,,,,,,,,,,,,,,,,,,,,,,,,,,,,,,,,,,,,,,,,,,,,,,,,,,,,,,,,,,,,,,,,,,,,,,,,,,,,,,,,,,,,,,,,,,,,,,,,,,,,,,,,,,,,,,,,,,,,,,,,,,,,,,,,,,,,,,,
,,,,,,614072e717f769e6280307d3,62bbf9180da4199b4b2f00da,2022-06-29_09h03.44.366,Colour_Asymmetry_Pilot,2022.1.3,MacIntel,60.0024001,62bbe60bf3d75ef465d3e404,0,32,32,77,1,threefour,,,,,,,,,,,,,,,,,,,,,,,,,,,,,,,,,,,,,,,,,,,,,,,,,,,,,,,,,,,,,,,,,,,,,,,,,,,,,,,,,,,,,,,,,,,,,,,,,,,,,,,,,,,,,,,,,,,,,,,,,,,,,,,,,,,,,,,,,,,,,,,,,,,,,,,,
,,,,,,614072e717f769e6280307d3,62bbf9180da4199b4b2f00da,2022-06-29_09h03.44.366,Colour_Asymmetry_Pilot,2022.1.3,MacIntel,60.0024001,62bbe60bf3d75ef465d3e404,0,33,33,19,1,twofour,,,,,,,,,,,,,,,,,,,,,,,,,,,,,,,,,,,,,,,,,,,,,,,,,,,,,,,,,,,,,,,,,,,,,,,,,,,,,,,,,,,,,,,,,,,,,,,,,,,,,,,,,,,,,,,,,,,,,,,,,,,,,,,,,,,,,,,,,,,,,,,,,,,,,,,,
,,,,,,614072e717f769e6280307d3,62bbf9180da4199b4b2f00da,2022-06-29_09h03.44.366,Colour_Asymmetry_Pilot,2022.1.3,MacIntel,60.0024001,62bbe60bf3d75ef465d3e404,0,34,34,81,1,onethree,,,,,,,,,,,,,,,,,,,,,,,,,,,,,,,,,,,,,,,,,,,,,,,,,,,,,,,,,,,,,,,,,,,,,,,,,,,,,,,,,,,,,,,,,,,,,,,,,,,,,,,,,,,,,,,,,,,,,,,,,,,,,,,,,,,,,,,,,,,,,,,,,,,,,,,,
,,,,,,614072e717f769e6280307d3,62bbf9180da4199b4b2f00da,2022-06-29_09h03.44.366,Colour_Asymmetry_Pilot,2022.1.3,MacIntel,60.0024001,62bbe60bf3d75ef465d3e404,0,35,35,93,1,threefour,,,,,,,,,,,,,,,,,,,,,,,,,,,,,,,,,,,,,,,,,,,,,,,,,,,,,,,,,,,,,,,,,,,,,,,,,,,,,,,,,,,,,,,,,,,,,,,,,,,,,,,,,,,,,,,,,,,,,,,,,,,,,,,,,,,,,,,,,,,,,,,,,,,,,,,,
,,,,,,614072e717f769e6280307d3,62bbf9180da4199b4b2f00da,2022-06-29_09h03.44.366,Colour_Asymmetry_Pilot,2022.1.3,MacIntel,60.0024001,62bbe60bf3d75ef465d3e404,0,36,36,137,1,onethree,,,,,,,,,,,,,,,,,,,,,,,,,,,,,,,,,,,,,,,,,,,,,,,,,,,,,,,,,,,,,,,,,,,,,,,,,,,,,,,,,,,,,,,,,,,,,,,,,,,,,,,,,,,,,,,,,,,,,,,,,,,,,,,,,,,,,,,,,,,,,,,,,,,,,,,,
,,,,,,614072e717f769e6280307d3,62bbf9180da4199b4b2f00da,2022-06-29_09h03.44.366,Colour_Asymmetry_Pilot,2022.1.3,MacIntel,60.0024001,62bbe60bf3d75ef465d3e404,0,37,37,150,1,fourtwo,,,,,,,,,,,,,,,,,,,,,,,,,,,,,,,,,,,,,,,,,,,,,,,,,,,,,,,,,,,,,,,,,,,,,,,,,,,,,,,,,,,,,,,,,,,,,,,,,,,,,,,,,,,,,,,,,,,,,,,,,,,,,,,,,,,,,,,,,,,,,,,,,,,,,,,,
,,,,,,614072e717f769e6280307d3,62bbf9180da4199b4b2f00da,2022-06-29_09h03.44.366,Colour_Asymmetry_Pilot,2022.1.3,MacIntel,60.0024001,62bbe60bf3d75ef465d3e404,0,38,38,122,1,twoone,,,,,,,,,,,,,,,,,,,,,,,,,,,,,,,,,,,,,,,,,,,,,,,,,,,,,,,,,,,,,,,,,,,,,,,,,,,,,,,,,,,,,,,,,,,,,,,,,,,,,,,,,,,,,,,,,,,,,,,,,,,,,,,,,,,,,,,,,,,,,,,,,,,,,,,,
,,,,,,614072e717f769e6280307d3,62bbf9180da4199b4b2f00da,2022-06-29_09h03.44.366,Colour_Asymmetry_Pilot,2022.1.3,MacIntel,60.0024001,62bbe60bf3d75ef465d3e404,0,39,39,155,1,twofour,,,,,,,,,,,,,,,,,,,,,,,,,,,,,,,,,,,,,,,,,,,,,,,,,,,,,,,,,,,,,,,,,,,,,,,,,,,,,,,,,,,,,,,,,,,,,,,,,,,,,,,,,,,,,,,,,,,,,,,,,,,,,,,,,,,,,,,,,,,,,,,,,,,,,,,,
,,,,,,614072e717f769e6280307d3,62bbf9180da4199b4b2f00da,2022-06-29_09h03.44.366,Colour_Asymmetry_Pilot,2022.1.3,MacIntel,60.0024001,62bbe60bf3d75ef465d3e404,0,40,40,112,1,onetwo,,,,,,,,,,,,,,,,,,,,,,,,,,,,,,,,,,,,,,,,,,,,,,,,,,,,,,,,,,,,,,,,,,,,,,,,,,,,,,,,,,,,,,,,,,,,,,,,,,,,,,,,,,,,,,,,,,,,,,,,,,,,,,,,,,,,,,,,,,,,,,,,,,,,,,,,
,,,,,,614072e717f769e6280307d3,62bbf9180da4199b4b2f00da,2022-06-29_09h03.44.366,Colour_Asymmetry_Pilot,2022.1.3,MacIntel,60.0024001,62bbe60bf3d75ef465d3e404,0,41,41,116,1,threeone,,,,,,,,,,,,,,,,,,,,,,,,,,,,,,,,,,,,,,,,,,,,,,,,,,,,,,,,,,,,,,,,,,,,,,,,,,,,,,,,,,,,,,,,,,,,,,,,,,,,,,,,,,,,,,,,,,,,,,,,,,,,,,,,,,,,,,,,,,,,,,,,,,,,,,,,
,,,,,,614072e717f769e6280307d3,62bbf9180da4199b4b2f00da,2022-06-29_09h03.44.366,Colour_Asymmetry_Pilot,2022.1.3,MacIntel,60.0024001,62bbe60bf3d75ef465d3e404,0,42,42,54,1,fourtwo,,,,,,,,,,,,,,,,,,,,,,,,,,,,,,,,,,,,,,,,,,,,,,,,,,,,,,,,,,,,,,,,,,,,,,,,,,,,,,,,,,,,,,,,,,,,,,,,,,,,,,,,,,,,,,,,,,,,,,,,,,,,,,,,,,,,,,,,,,,,,,,,,,,,,,,,
,,,,,,614072e717f769e6280307d3,62bbf9180da4199b4b2f00da,2022-06-29_09h03.44.366,Colour_Asymmetry_Pilot,2022.1.3,MacIntel,60.0024001,62bbe60bf3d75ef465d3e404,0,43,43,47,1,fourthree,,,,,,,,,,,,,,,,,,,,,,,,,,,,,,,,,,,,,,,,,,,,,,,,,,,,,,,,,,,,,,,,,,,,,,,,,,,,,,,,,,,,,,,,,,,,,,,,,,,,,,,,,,,,,,,,,,,,,,,,,,,,,,,,,,,,,,,,,,,,,,,,,,,,,,,,
,,,,,,614072e717f769e6280307d3,62bbf9180da4199b4b2f00da,2022-06-29_09h03.44.366,Colour_Asymmetry_Pilot,2022.1.3,MacIntel,60.0024001,62bbe60bf3d75ef465d3e404,0,44,44,100,1,threeone,,,,,,,,,,,,,,,,,,,,,,,,,,,,,,,,,,,,,,,,,,,,,,,,,,,,,,,,,,,,,,,,,,,,,,,,,,,,,,,,,,,,,,,,,,,,,,,,,,,,,,,,,,,,,,,,,,,,,,,,,,,,,,,,,,,,,,,,,,,,,,,,,,,,,,,,
,,,,,,614072e717f769e6280307d3,62bbf9180da4199b4b2f00da,2022-06-29_09h03.44.366,Colour_Asymmetry_Pilot,2022.1.3,MacIntel,60.0024001,62bbe60bf3d75ef465d3e404,0,45,45,161,1,onethree,,,,,,,,,,,,,,,,,,,,,,,,,,,,,,,,,,,,,,,,,,,,,,,,,,,,,,,,,,,,,,,,,,,,,,,,,,,,,,,,,,,,,,,,,,,,,,,,,,,,,,,,,,,,,,,,,,,,,,,,,,,,,,,,,,,,,,,,,,,,,,,,,,,,,,,,
,,,,,,614072e717f769e6280307d3,62bbf9180da4199b4b2f00da,2022-06-29_09h03.44.366,Colour_Asymmetry_Pilot,2022.1.3,MacIntel,60.0024001,62bbe60bf3d75ef465d3e404,0,46,46,61,1,threefour,,,,,,,,,,,,,,,,,,,,,,,,,,,,,,,,,,,,,,,,,,,,,,,,,,,,,,,,,,,,,,,,,,,,,,,,,,,,,,,,,,,,,,,,,,,,,,,,,,,,,,,,,,,,,,,,,,,,,,,,,,,,,,,,,,,,,,,,,,,,,,,,,,,,,,,,
,,,,,,614072e717f769e6280307d3,62bbf9180da4199b4b2f00da,2022-06-29_09h03.44.366,Colour_Asymmetry_Pilot,2022.1.3,MacIntel,60.0024001,62bbe60bf3d75ef465d3e404,0,47,47,94,1,fourtwo,,,,,,,,,,,,,,,,,,,,,,,,,,,,,,,,,,,,,,,,,,,,,,,,,,,,,,,,,,,,,,,,,,,,,,,,,,,,,,,,,,,,,,,,,,,,,,,,,,,,,,,,,,,,,,,,,,,,,,,,,,,,,,,,,,,,,,,,,,,,,,,,,,,,,,,,
,,,,,,614072e717f769e6280307d3,62bbf9180da4199b4b2f00da,2022-06-29_09h03.44.366,Colour_Asymmetry_Pilot,2022.1.3,MacIntel,60.0024001,62bbe60bf3d75ef465d3e404,0,48,48,72,1,onetwo,,,,,,,,,,,,,,,,,,,,,,,,,,,,,,,,,,,,,,,,,,,,,,,,,,,,,,,,,,,,,,,,,,,,,,,,,,,,,,,,,,,,,,,,,,,,,,,,,,,,,,,,,,,,,,,,,,,,,,,,,,,,,,,,,,,,,,,,,,,,,,,,,,,,,,,,
,,,,,,614072e717f769e6280307d3,62bbf9180da4199b4b2f00da,2022-06-29_09h03.44.366,Colour_Asymmetry_Pilot,2022.1.3,MacIntel,60.0024001,62bbe60bf3d75ef465d3e404,0,49,49,114,1,twoone,,,,,,,,,,,,,,,,,,,,,,,,,,,,,,,,,,,,,,,,,,,,,,,,,,,,,,,,,,,,,,,,,,,,,,,,,,,,,,,,,,,,,,,,,,,,,,,,,,,,,,,,,,,,,,,,,,,,,,,,,,,,,,,,,,,,,,,,,,,,,,,,,,,,,,,,
,,,,,,614072e717f769e6280307d3,62bbf9180da4199b4b2f00da,2022-06-29_09h03.44.366,Colour_Asymmetry_Pilot,2022.1.3,MacIntel,60.0024001,62bbe60bf3d75ef465d3e404,0,50,50,131,1,twofour,,,,,,,,,,,,,,,,,,,,,,,,,,,,,,,,,,,,,,,,,,,,,,,,,,,,,,,,,,,,,,,,,,,,,,,,,,,,,,,,,,,,,,,,,,,,,,,,,,,,,,,,,,,,,,,,,,,,,,,,,,,,,,,,,,,,,,,,,,,,,,,,,,,,,,,,
,,,,,,614072e717f769e6280307d3,62bbf9180da4199b4b2f00da,2022-06-29_09h03.44.366,Colour_Asymmetry_Pilot,2022.1.3,MacIntel,60.0024001,62bbe60bf3d75ef465d3e404,0,51,51,21,1,threefour,,,,,,,,,,,,,,,,,,,,,,,,,,,,,,,,,,,,,,,,,,,,,,,,,,,,,,,,,,,,,,,,,,,,,,,,,,,,,,,,,,,,,,,,,,,,,,,,,,,,,,,,,,,,,,,,,,,,,,,,,,,,,,,,,,,,,,,,,,,,,,,,,,,,,,,,
,,,,,,614072e717f769e6280307d3,62bbf9180da4199b4b2f00da,2022-06-29_09h03.44.366,Colour_Asymmetry_Pilot,2022.1.3,MacIntel,60.0024001,62bbe60bf3d75ef465d3e404,0,52,52,29,1,threefour,,,,,,,,,,,,,,,,,,,,,,,,,,,,,,,,,,,,,,,,,,,,,,,,,,,,,,,,,,,,,,,,,,,,,,,,,,,,,,,,,,,,,,,,,,,,,,,,,,,,,,,,,,,,,,,,,,,,,,,,,,,,,,,,,,,,,,,,,,,,,,,,,,,,,,,,
,,,,,,614072e717f769e6280307d3,62bbf9180da4199b4b2f00da,2022-06-29_09h03.44.366,Colour_Asymmetry_Pilot,2022.1.3,MacIntel,60.0024001,62bbe60bf3d75ef465d3e404,0,53,53,51,1,twofour,,,,,,,,,,,,,,,,,,,,,,,,,,,,,,,,,,,,,,,,,,,,,,,,,,,,,,,,,,,,,,,,,,,,,,,,,,,,,,,,,,,,,,,,,,,,,,,,,,,,,,,,,,,,,,,,,,,,,,,,,,,,,,,,,,,,,,,,,,,,,,,,,,,,,,,,
,,,,,,614072e717f769e6280307d3,62bbf9180da4199b4b2f00da,2022-06-29_09h03.44.366,Colour_Asymmetry_Pilot,2022.1.3,MacIntel,60.0024001,62bbe60bf3d75ef465d3e404,0,54,54,144,1,onetwo,,,,,,,,,,,,,,,,,,,,,,,,,,,,,,,,,,,,,,,,,,,,,,,,,,,,,,,,,,,,,,,,,,,,,,,,,,,,,,,,,,,,,,,,,,,,,,,,,,,,,,,,,,,,,,,,,,,,,,,,,,,,,,,,,,,,,,,,,,,,,,,,,,,,,,,,
,,,,,,614072e717f769e6280307d3,62bbf9180da4199b4b2f00da,2022-06-29_09h03.44.366,Colour_Asymmetry_Pilot,2022.1.3,MacIntel,60.0024001,62bbe60bf3d75ef465d3e404,0,55,55,49,1,onethree,,,,,,,,,,,,,,,,,,,,,,,,,,,,,,,,,,,,,,,,,,,,,,,,,,,,,,,,,,,,,,,,,,,,,,,,,,,,,,,,,,,,,,,,,,,,,,,,,,,,,,,,,,,,,,,,,,,,,,,,,,,,,,,,,,,,,,,,,,,,,,,,,,,,,,,,
,,,,,,614072e717f769e6280307d3,62bbf9180da4199b4b2f00da,2022-06-29_09h03.44.366,Colour_Asymmetry_Pilot,2022.1.3,MacIntel,60.0024001,62bbe60bf3d75ef465d3e404,0,56,56,111,1,fourthree,,,,,,,,,,,,,,,,,,,,,,,,,,,,,,,,,,,,,,,,,,,,,,,,,,,,,,,,,,,,,,,,,,,,,,,,,,,,,,,,,,,,,,,,,,,,,,,,,,,,,,,,,,,,,,,,,,,,,,,,,,,,,,,,,,,,,,,,,,,,,,,,,,,,,,,,
,,,,,,614072e717f769e6280307d3,62bbf9180da4199b4b2f00da,2022-06-29_09h03.44.366,Colour_Asymmetry_Pilot,2022.1.3,MacIntel,60.0024001,62bbe60bf3d75ef465d3e404,0,57,57,109,1,threefour,,,,,,,,,,,,,,,,,,,,,,,,,,,,,,,,,,,,,,,,,,,,,,,,,,,,,,,,,,,,,,,,,,,,,,,,,,,,,,,,,,,,,,,,,,,,,,,,,,,,,,,,,,,,,,,,,,,,,,,,,,,,,,,,,,,,,,,,,,,,,,,,,,,,,,,,
,,,,,,614072e717f769e6280307d3,62bbf9180da4199b4b2f00da,2022-06-29_09h03.44.366,Colour_Asymmetry_Pilot,2022.1.3,MacIntel,60.0024001,62bbe60bf3d75ef465d3e404,0,58,58,157,1,threefour,,,,,,,,,,,,,,,,,,,,,,,,,,,,,,,,,,,,,,,,,,,,,,,,,,,,,,,,,,,,,,,,,,,,,,,,,,,,,,,,,,,,,,,,,,,,,,,,,,,,,,,,,,,,,,,,,,,,,,,,,,,,,,,,,,,,,,,,,,,,,,,,,,,,,,,,
,,,,,,614072e717f769e6280307d3,62bbf9180da4199b4b2f00da,2022-06-29_09h03.44.366,Colour_Asymmetry_Pilot,2022.1.3,MacIntel,60.0024001,62bbe60bf3d75ef465d3e404,0,59,59,5,1,threefour,,,,,,,,,,,,,,,,,,,,,,,,,,,,,,,,,,,,,,,,,,,,,,,,,,,,,,,,,,,,,,,,,,,,,,,,,,,,,,,,,,,,,,,,,,,,,,,,,,,,,,,,,,,,,,,,,,,,,,,,,,,,,,,,,,,,,,,,,,,,,,,,,,,,,,,,
,,,,,,614072e717f769e6280307d3,62bbf9180da4199b4b2f00da,2022-06-29_09h03.44.366,Colour_Asymmetry_Pilot,2022.1.3,MacIntel,60.0024001,62bbe60bf3d75ef465d3e404,0,60,60,71,1,fourthree,,,,,,,,,,,,,,,,,,,,,,,,,,,,,,,,,,,,,,,,,,,,,,,,,,,,,,,,,,,,,,,,,,,,,,,,,,,,,,,,,,,,,,,,,,,,,,,,,,,,,,,,,,,,,,,,,,,,,,,,,,,,,,,,,,,,,,,,,,,,,,,,,,,,,,,,
,,,,,,614072e717f769e6280307d3,62bbf9180da4199b4b2f00da,2022-06-29_09h03.44.366,Colour_Asymmetry_Pilot,2022.1.3,MacIntel,60.0024001,62bbe60bf3d75ef465d3e404,0,61,61,147,1,twofour,,,,,,,,,,,,,,,,,,,,,,,,,,,,,,,,,,,,,,,,,,,,,,,,,,,,,,,,,,,,,,,,,,,,,,,,,,,,,,,,,,,,,,,,,,,,,,,,,,,,,,,,,,,,,,,,,,,,,,,,,,,,,,,,,,,,,,,,,,,,,,,,,,,,,,,,
,,,,,,614072e717f769e6280307d3,62bbf9180da4199b4b2f00da,2022-06-29_09h03.44.366,Colour_Asymmetry_Pilot,2022.1.3,MacIntel,60.0024001,62bbe60bf3d75ef465d3e404,0,62,62,45,1,threefour,,,,,,,,,,,,,,,,,,,,,,,,,,,,,,,,,,,,,,,,,,,,,,,,,,,,,,,,,,,,,,,,,,,,,,,,,,,,,,,,,,,,,,,,,,,,,,,,,,,,,,,,,,,,,,,,,,,,,,,,,,,,,,,,,,,,,,,,,,,,,,,,,,,,,,,,
,,,,,,614072e717f769e6280307d3,62bbf9180da4199b4b2f00da,2022-06-29_09h03.44.366,Colour_Asymmetry_Pilot,2022.1.3,MacIntel,60.0024001,62bbe60bf3d75ef465d3e404,0,63,63,104,1,onetwo,,,,,,,,,,,,,,,,,,,,,,,,,,,,,,,,,,,,,,,,,,,,,,,,,,,,,,,,,,,,,,,,,,,,,,,,,,,,,,,,,,,,,,,,,,,,,,,,,,,,,,,,,,,,,,,,,,,,,,,,,,,,,,,,,,,,,,,,,,,,,,,,,,,,,,,,
,,,,,,614072e717f769e6280307d3,62bbf9180da4199b4b2f00da,2022-06-29_09h03.44.366,Colour_Asymmetry_Pilot,2022.1.3,MacIntel,60.0024001,62bbe60bf3d75ef465d3e404,0,64,64,43,1,twofour,,,,,,,,,,,,,,,,,,,,,,,,,,,,,,,,,,,,,,,,,,,,,,,,,,,,,,,,,,,,,,,,,,,,,,,,,,,,,,,,,,,,,,,,,,,,,,,,,,,,,,,,,,,,,,,,,,,,,,,,,,,,,,,,,,,,,,,,,,,,,,,,,,,,,,,,
,,,,,,614072e717f769e6280307d3,62bbf9180da4199b4b2f00da,2022-06-29_09h03.44.366,Colour_Asymmetry_Pilot,2022.1.3,MacIntel,60.0024001,62bbe60bf3d75ef465d3e404,0,65,65,20,1,threeone,,,,,,,,,,,,,,,,,,,,,,,,,,,,,,,,,,,,,,,,,,,,,,,,,,,,,,,,,,,,,,,,,,,,,,,,,,,,,,,,,,,,,,,,,,,,,,,,,,,,,,,,,,,,,,,,,,,,,,,,,,,,,,,,,,,,,,,,,,,,,,,,,,,,,,,,
,,,,,,614072e717f769e6280307d3,62bbf9180da4199b4b2f00da,2022-06-29_09h03.44.366,Colour_Asymmetry_Pilot,2022.1.3,MacIntel,60.0024001,62bbe60bf3d75ef465d3e404,0,66,66,119,1,fourthree,,,,,,,,,,,,,,,,,,,,,,,,,,,,,,,,,,,,,,,,,,,,,,,,,,,,,,,,,,,,,,,,,,,,,,,,,,,,,,,,,,,,,,,,,,,,,,,,,,,,,,,,,,,,,,,,,,,,,,,,,,,,,,,,,,,,,,,,,,,,,,,,,,,,,,,,
,,,,,,614072e717f769e6280307d3,62bbf9180da4199b4b2f00da,2022-06-29_09h03.44.366,Colour_Asymmetry_Pilot,2022.1.3,MacIntel,60.0024001,62bbe60bf3d75ef465d3e404,0,67,67,33,1,onethree,,,,,,,,,,,,,,,,,,,,,,,,,,,,,,,,,,,,,,,,,,,,,,,,,,,,,,,,,,,,,,,,,,,,,,,,,,,,,,,,,,,,,,,,,,,,,,,,,,,,,,,,,,,,,,,,,,,,,,,,,,,,,,,,,,,,,,,,,,,,,,,,,,,,,,,,
,,,,,,614072e717f769e6280307d3,62bbf9180da4199b4b2f00da,2022-06-29_09h03.44.366,Colour_Asymmetry_Pilot,2022.1.3,MacIntel,60.0024001,62bbe60bf3d75ef465d3e404,0,68,68,39,1,fourthree,,,,,,,,,,,,,,,,,,,,,,,,,,,,,,,,,,,,,,,,,,,,,,,,,,,,,,,,,,,,,,,,,,,,,,,,,,,,,,,,,,,,,,,,,,,,,,,,,,,,,,,,,,,,,,,,,,,,,,,,,,,,,,,,,,,,,,,,,,,,,,,,,,,,,,,,
,,,,,,614072e717f769e6280307d3,62bbf9180da4199b4b2f00da,2022-06-29_09h03.44.366,Colour_Asymmetry_Pilot,2022.1.3,MacIntel,60.0024001,62bbe60bf3d75ef465d3e404,0,69,69,95,1,fourthree,,,,,,,,,,,,,,,,,,,,,,,,,,,,,,,,,,,,,,,,,,,,,,,,,,,,,,,,,,,,,,,,,,,,,,,,,,,,,,,,,,,,,,,,,,,,,,,,,,,,,,,,,,,,,,,,,,,,,,,,,,,,,,,,,,,,,,,,,,,,,,,,,,,,,,,,
,,,,,,614072e717f769e6280307d3,62bbf9180da4199b4b2f00da,2022-06-29_09h03.44.366,Colour_Asymmetry_Pilot,2022.1.3,MacIntel,60.0024001,62bbe60bf3d75ef465d3e404,0,70,70,134,1,fourtwo,,,,,,,,,,,,,,,,,,,,,,,,,,,,,,,,,,,,,,,,,,,,,,,,,,,,,,,,,,,,,,,,,,,,,,,,,,,,,,,,,,,,,,,,,,,,,,,,,,,,,,,,,,,,,,,,,,,,,,,,,,,,,,,,,,,,,,,,,,,,,,,,,,,,,,,,
,,,,,,614072e717f769e6280307d3,62bbf9180da4199b4b2f00da,2022-06-29_09h03.44.366,Colour_Asymmetry_Pilot,2022.1.3,MacIntel,60.0024001,62bbe60bf3d75ef465d3e404,0,71,71,101,1,threefour,,,,,,,,,,,,,,,,,,,,,,,,,,,,,,,,,,,,,,,,,,,,,,,,,,,,,,,,,,,,,,,,,,,,,,,,,,,,,,,,,,,,,,,,,,,,,,,,,,,,,,,,,,,,,,,,,,,,,,,,,,,,,,,,,,,,,,,,,,,,,,,,,,,,,,,,
,,,,,,614072e717f769e6280307d3,62bbf9180da4199b4b2f00da,2022-06-29_09h03.44.366,Colour_Asymmetry_Pilot,2022.1.3,MacIntel,60.0024001,62bbe60bf3d75ef465d3e404,0,72,72,70,1,fourtwo,,,,,,,,,,,,,,,,,,,,,,,,,,,,,,,,,,,,,,,,,,,,,,,,,,,,,,,,,,,,,,,,,,,,,,,,,,,,,,,,,,,,,,,,,,,,,,,,,,,,,,,,,,,,,,,,,,,,,,,,,,,,,,,,,,,,,,,,,,,,,,,,,,,,,,,,
,,,,,,614072e717f769e6280307d3,62bbf9180da4199b4b2f00da,2022-06-29_09h03.44.366,Colour_Asymmetry_Pilot,2022.1.3,MacIntel,60.0024001,62bbe60bf3d75ef465d3e404,0,73,73,28,1,threeone,,,,,,,,,,,,,,,,,,,,,,,,,,,,,,,,,,,,,,,,,,,,,,,,,,,,,,,,,,,,,,,,,,,,,,,,,,,,,,,,,,,,,,,,,,,,,,,,,,,,,,,,,,,,,,,,,,,,,,,,,,,,,,,,,,,,,,,,,,,,,,,,,,,,,,,,
,,,,,,614072e717f769e6280307d3,62bbf9180da4199b4b2f00da,2022-06-29_09h03.44.366,Colour_Asymmetry_Pilot,2022.1.3,MacIntel,60.0024001,62bbe60bf3d75ef465d3e404,0,74,74,31,1,fourthree,,,,,,,,,,,,,,,,,,,,,,,,,,,,,,,,,,,,,,,,,,,,,,,,,,,,,,,,,,,,,,,,,,,,,,,,,,,,,,,,,,,,,,,,,,,,,,,,,,,,,,,,,,,,,,,,,,,,,,,,,,,,,,,,,,,,,,,,,,,,,,,,,,,,,,,,
,,,,,,614072e717f769e6280307d3,62bbf9180da4199b4b2f00da,2022-06-29_09h03.44.366,Colour_Asymmetry_Pilot,2022.1.3,MacIntel,60.0024001,62bbe60bf3d75ef465d3e404,0,75,75,153,1,onethree,,,,,,,,,,,,,,,,,,,,,,,,,,,,,,,,,,,,,,,,,,,,,,,,,,,,,,,,,,,,,,,,,,,,,,,,,,,,,,,,,,,,,,,,,,,,,,,,,,,,,,,,,,,,,,,,,,,,,,,,,,,,,,,,,,,,,,,,,,,,,,,,,,,,,,,,
,,,,,,614072e717f769e6280307d3,62bbf9180da4199b4b2f00da,2022-06-29_09h03.44.366,Colour_Asymmetry_Pilot,2022.1.3,MacIntel,60.0024001,62bbe60bf3d75ef465d3e404,0,76,76,110,1,fourtwo,,,,,,,,,,,,,,,,,,,,,,,,,,,,,,,,,,,,,,,,,,,,,,,,,,,,,,,,,,,,,,,,,,,,,,,,,,,,,,,,,,,,,,,,,,,,,,,,,,,,,,,,,,,,,,,,,,,,,,,,,,,,,,,,,,,,,,,,,,,,,,,,,,,,,,,,
,,,,,,614072e717f769e6280307d3,62bbf9180da4199b4b2f00da,2022-06-29_09h03.44.366,Colour_Asymmetry_Pilot,2022.1.3,MacIntel,60.0024001,62bbe60bf3d75ef465d3e404,0,77,77,129,1,onethree,,,,,,,,,,,,,,,,,,,,,,,,,,,,,,,,,,,,,,,,,,,,,,,,,,,,,,,,,,,,,,,,,,,,,,,,,,,,,,,,,,,,,,,,,,,,,,,,,,,,,,,,,,,,,,,,,,,,,,,,,,,,,,,,,,,,,,,,,,,,,,,,,,,,,,,,
,,,,,,614072e717f769e6280307d3,62bbf9180da4199b4b2f00da,2022-06-29_09h03.44.366,Colour_Asymmetry_Pilot,2022.1.3,MacIntel,60.0024001,62bbe60bf3d75ef465d3e404,0,78,78,130,1,twoone,,,,,,,,,,,,,,,,,,,,,,,,,,,,,,,,,,,,,,,,,,,,,,,,,,,,,,,,,,,,,,,,,,,,,,,,,,,,,,,,,,,,,,,,,,,,,,,,,,,,,,,,,,,,,,,,,,,,,,,,,,,,,,,,,,,,,,,,,,,,,,,,,,,,,,,,
,,,,,,614072e717f769e6280307d3,62bbf9180da4199b4b2f00da,2022-06-29_09h03.44.366,Colour_Asymmetry_Pilot,2022.1.3,MacIntel,60.0024001,62bbe60bf3d75ef465d3e404,0,79,79,141,1,threefour,,,,,,,,,,,,,,,,,,,,,,,,,,,,,,,,,,,,,,,,,,,,,,,,,,,,,,,,,,,,,,,,,,,,,,,,,,,,,,,,,,,,,,,,,,,,,,,,,,,,,,,,,,,,,,,,,,,,,,,,,,,,,,,,,,,,,,,,,,,,,,,,,,,,,,,,
,,,,,,614072e717f769e6280307d3,62bbf9180da4199b4b2f00da,2022-06-29_09h03.44.366,Colour_Asymmetry_Pilot,2022.1.3,MacIntel,60.0024001,62bbe60bf3d75ef465d3e404,0,80,80,143,1,fourthree,,,,,,,,,,,,,,,,,,,,,,,,,,,,,,,,,,,,,,,,,,,,,,,,,,,,,,,,,,,,,,,,,,,,,,,,,,,,,,,,,,,,,,,,,,,,,,,,,,,,,,,,,,,,,,,,,,,,,,,,,,,,,,,,,,,,,,,,,,,,,,,,,,,,,,,,
,,,,,,614072e717f769e6280307d3,62bbf9180da4199b4b2f00da,2022-06-29_09h03.44.366,Colour_Asymmetry_Pilot,2022.1.3,MacIntel,60.0024001,62bbe60bf3d75ef465d3e404,0,81,81,125,1,threefour,,,,,,,,,,,,,,,,,,,,,,,,,,,,,,,,,,,,,,,,,,,,,,,,,,,,,,,,,,,,,,,,,,,,,,,,,,,,,,,,,,,,,,,,,,,,,,,,,,,,,,,,,,,,,,,,,,,,,,,,,,,,,,,,,,,,,,,,,,,,,,,,,,,,,,,,
,,,,,,614072e717f769e6280307d3,62bbf9180da4199b4b2f00da,2022-06-29_09h03.44.366,Colour_Asymmetry_Pilot,2022.1.3,MacIntel,60.0024001,62bbe60bf3d75ef465d3e404,0,82,82,36,1,threeone,,,,,,,,,,,,,,,,,,,,,,,,,,,,,,,,,,,,,,,,,,,,,,,,,,,,,,,,,,,,,,,,,,,,,,,,,,,,,,,,,,,,,,,,,,,,,,,,,,,,,,,,,,,,,,,,,,,,,,,,,,,,,,,,,,,,,,,,,,,,,,,,,,,,,,,,
,,,,,,614072e717f769e6280307d3,62bbf9180da4199b4b2f00da,2022-06-29_09h03.44.366,Colour_Asymmetry_Pilot,2022.1.3,MacIntel,60.0024001,62bbe60bf3d75ef465d3e404,0,83,83,48,1,onetwo,,,,,,,,,,,,,,,,,,,,,,,,,,,,,,,,,,,,,,,,,,,,,,,,,,,,,,,,,,,,,,,,,,,,,,,,,,,,,,,,,,,,,,,,,,,,,,,,,,,,,,,,,,,,,,,,,,,,,,,,,,,,,,,,,,,,,,,,,,,,,,,,,,,,,,,,
,,,,,,614072e717f769e6280307d3,62bbf9180da4199b4b2f00da,2022-06-29_09h03.44.366,Colour_Asymmetry_Pilot,2022.1.3,MacIntel,60.0024001,62bbe60bf3d75ef465d3e404,0,84,84,97,1,onethree,,,,,,,,,,,,,,,,,,,,,,,,,,,,,,,,,,,,,,,,,,,,,,,,,,,,,,,,,,,,,,,,,,,,,,,,,,,,,,,,,,,,,,,,,,,,,,,,,,,,,,,,,,,,,,,,,,,,,,,,,,,,,,,,,,,,,,,,,,,,,,,,,,,,,,,,
,,,,,,614072e717f769e6280307d3,62bbf9180da4199b4b2f00da,2022-06-29_09h03.44.366,Colour_Asymmetry_Pilot,2022.1.3,MacIntel,60.0024001,62bbe60bf3d75ef465d3e404,0,85,85,67,1,twofour,,,,,,,,,,,,,,,,,,,,,,,,,,,,,,,,,,,,,,,,,,,,,,,,,,,,,,,,,,,,,,,,,,,,,,,,,,,,,,,,,,,,,,,,,,,,,,,,,,,,,,,,,,,,,,,,,,,,,,,,,,,,,,,,,,,,,,,,,,,,,,,,,,,,,,,,
,,,,,,614072e717f769e6280307d3,62bbf9180da4199b4b2f00da,2022-06-29_09h03.44.366,Colour_Asymmetry_Pilot,2022.1.3,MacIntel,60.0024001,62bbe60bf3d75ef465d3e404,0,86,86,142,1,fourtwo,,,,,,,,,,,,,,,,,,,,,,,,,,,,,,,,,,,,,,,,,,,,,,,,,,,,,,,,,,,,,,,,,,,,,,,,,,,,,,,,,,,,,,,,,,,,,,,,,,,,,,,,,,,,,,,,,,,,,,,,,,,,,,,,,,,,,,,,,,,,,,,,,,,,,,,,
,,,,,,614072e717f769e6280307d3,62bbf9180da4199b4b2f00da,2022-06-29_09h03.44.366,Colour_Asymmetry_Pilot,2022.1.3,MacIntel,60.0024001,62bbe60bf3d75ef465d3e404,0,87,87,1,1,onethree,,,,,,,,,,,,,,,,,,,,,,,,,,,,,,,,,,,,,,,,,,,,,,,,,,,,,,,,,,,,,,,,,,,,,,,,,,,,,,,,,,,,,,,,,,,,,,,,,,,,,,,,,,,,,,,,,,,,,,,,,,,,,,,,,,,,,,,,,,,,,,,,,,,,,,,,
,,,,,,614072e717f769e6280307d3,62bbf9180da4199b4b2f00da,2022-06-29_09h03.44.366,Colour_Asymmetry_Pilot,2022.1.3,MacIntel,60.0024001,62bbe60bf3d75ef465d3e404,0,88,88,99,1,twofour,,,,,,,,,,,,,,,,,,,,,,,,,,,,,,,,,,,,,,,,,,,,,,,,,,,,,,,,,,,,,,,,,,,,,,,,,,,,,,,,,,,,,,,,,,,,,,,,,,,,,,,,,,,,,,,,,,,,,,,,,,,,,,,,,,,,,,,,,,,,,,,,,,,,,,,,
,,,,,,614072e717f769e6280307d3,62bbf9180da4199b4b2f00da,2022-06-29_09h03.44.366,Colour_Asymmetry_Pilot,2022.1.3,MacIntel,60.0024001,62bbe60bf3d75ef465d3e404,0,89,89,9,1,onethree,,,,,,,,,,,,,,,,,,,,,,,,,,,,,,,,,,,,,,,,,,,,,,,,,,,,,,,,,,,,,,,,,,,,,,,,,,,,,,,,,,,,,,,,,,,,,,,,,,,,,,,,,,,,,,,,,,,,,,,,,,,,,,,,,,,,,,,,,,,,,,,,,,,,,,,,
,,,,,,614072e717f769e6280307d3,62bbf9180da4199b4b2f00da,2022-06-29_09h03.44.366,Colour_Asymmetry_Pilot,2022.1.3,MacIntel,60.0024001,62bbe60bf3d75ef465d3e404,0,90,90,107,1,twofour,,,,,,,,,,,,,,,,,,,,,,,,,,,,,,,,,,,,,,,,,,,,,,,,,,,,,,,,,,,,,,,,,,,,,,,,,,,,,,,,,,,,,,,,,,,,,,,,,,,,,,,,,,,,,,,,,,,,,,,,,,,,,,,,,,,,,,,,,,,,,,,,,,,,,,,,
,,,,,,614072e717f769e6280307d3,62bbf9180da4199b4b2f00da,2022-06-29_09h03.44.366,Colour_Asymmetry_Pilot,2022.1.3,MacIntel,60.0024001,62bbe60bf3d75ef465d3e404,0,91,91,124,1,threeone,,,,,,,,,,,,,,,,,,,,,,,,,,,,,,,,,,,,,,,,,,,,,,,,,,,,,,,,,,,,,,,,,,,,,,,,,,,,,,,,,,,,,,,,,,,,,,,,,,,,,,,,,,,,,,,,,,,,,,,,,,,,,,,,,,,,,,,,,,,,,,,,,,,,,,,,
,,,,,,614072e717f769e6280307d3,62bbf9180da4199b4b2f00da,2022-06-29_09h03.44.366,Colour_Asymmetry_Pilot,2022.1.3,MacIntel,60.0024001,62bbe60bf3d75ef465d3e404,0,92,92,12,1,threeone,,,,,,,,,,,,,,,,,,,,,,,,,,,,,,,,,,,,,,,,,,,,,,,,,,,,,,,,,,,,,,,,,,,,,,,,,,,,,,,,,,,,,,,,,,,,,,,,,,,,,,,,,,,,,,,,,,,,,,,,,,,,,,,,,,,,,,,,,,,,,,,,,,,,,,,,
,,,,,,614072e717f769e6280307d3,62bbf9180da4199b4b2f00da,2022-06-29_09h03.44.366,Colour_Asymmetry_Pilot,2022.1.3,MacIntel,60.0024001,62bbe60bf3d75ef465d3e404,0,93,93,63,1,fourthree,,,,,,,,,,,,,,,,,,,,,,,,,,,,,,,,,,,,,,,,,,,,,,,,,,,,,,,,,,,,,,,,,,,,,,,,,,,,,,,,,,,,,,,,,,,,,,,,,,,,,,,,,,,,,,,,,,,,,,,,,,,,,,,,,,,,,,,,,,,,,,,,,,,,,,,,
,,,,,,614072e717f769e6280307d3,62bbf9180da4199b4b2f00da,2022-06-29_09h03.44.366,Colour_Asymmetry_Pilot,2022.1.3,MacIntel,60.0024001,62bbe60bf3d75ef465d3e404,0,94,94,108,1,threeone,,,,,,,,,,,,,,,,,,,,,,,,,,,,,,,,,,,,,,,,,,,,,,,,,,,,,,,,,,,,,,,,,,,,,,,,,,,,,,,,,,,,,,,,,,,,,,,,,,,,,,,,,,,,,,,,,,,,,,,,,,,,,,,,,,,,,,,,,,,,,,,,,,,,,,,,
,,,,,,614072e717f769e6280307d3,62bbf9180da4199b4b2f00da,2022-06-29_09h03.44.366,Colour_Asymmetry_Pilot,2022.1.3,MacIntel,60.0024001,62bbe60bf3d75ef465d3e404,0,95,95,86,1,fourtwo,,,,,,,,,,,,,,,,,,,,,,,,,,,,,,,,,,,,,,,,,,,,,,,,,,,,,,,,,,,,,,,,,,,,,,,,,,,,,,,,,,,,,,,,,,,,,,,,,,,,,,,,,,,,,,,,,,,,,,,,,,,,,,,,,,,,,,,,,,,,,,,,,,,,,,,,
,,,,,,614072e717f769e6280307d3,62bbf9180da4199b4b2f00da,2022-06-29_09h03.44.366,Colour_Asymmetry_Pilot,2022.1.3,MacIntel,60.0024001,62bbe60bf3d75ef465d3e404,0,96,96,17,1,onethree,,,,,,,,,,,,,,,,,,,,,,,,,,,,,,,,,,,,,,,,,,,,,,,,,,,,,,,,,,,,,,,,,,,,,,,,,,,,,,,,,,,,,,,,,,,,,,,,,,,,,,,,,,,,,,,,,,,,,,,,,,,,,,,,,,,,,,,,,,,,,,,,,,,,,,,,
,,,,,,614072e717f769e6280307d3,62bbf9180da4199b4b2f00da,2022-06-29_09h03.44.366,Colour_Asymmetry_Pilot,2022.1.3,MacIntel,60.0024001,62bbe60bf3d75ef465d3e404,0,97,97,127,1,fourthree,,,,,,,,,,,,,,,,,,,,,,,,,,,,,,,,,,,,,,,,,,,,,,,,,,,,,,,,,,,,,,,,,,,,,,,,,,,,,,,,,,,,,,,,,,,,,,,,,,,,,,,,,,,,,,,,,,,,,,,,,,,,,,,,,,,,,,,,,,,,,,,,,,,,,,,,
,,,,,,614072e717f769e6280307d3,62bbf9180da4199b4b2f00da,2022-06-29_09h03.44.366,Colour_Asymmetry_Pilot,2022.1.3,MacIntel,60.0024001,62bbe60bf3d75ef465d3e404,0,98,98,79,1,fourthree,,,,,,,,,,,,,,,,,,,,,,,,,,,,,,,,,,,,,,,,,,,,,,,,,,,,,,,,,,,,,,,,,,,,,,,,,,,,,,,,,,,,,,,,,,,,,,,,,,,,,,,,,,,,,,,,,,,,,,,,,,,,,,,,,,,,,,,,,,,,,,,,,,,,,,,,
,,,,,,614072e717f769e6280307d3,62bbf9180da4199b4b2f00da,2022-06-29_09h03.44.366,Colour_Asymmetry_Pilot,2022.1.3,MacIntel,60.0024001,62bbe60bf3d75ef465d3e404,0,99,99,50,1,twoone,,,,,,,,,,,,,,,,,,,,,,,,,,,,,,,,,,,,,,,,,,,,,,,,,,,,,,,,,,,,,,,,,,,,,,,,,,,,,,,,,,,,,,,,,,,,,,,,,,,,,,,,,,,,,,,,,,,,,,,,,,,,,,,,,,,,,,,,,,,,,,,,,,,,,,,,
,,,,,,614072e717f769e6280307d3,62bbf9180da4199b4b2f00da,2022-06-29_09h03.44.366,Colour_Asymmetry_Pilot,2022.1.3,MacIntel,60.0024001,62bbe60bf3d75ef465d3e404,0,100,100,113,1,onethree,,,,,,,,,,,,,,,,,,,,,,,,,,,,,,,,,,,,,,,,,,,,,,,,,,,,,,,,,,,,,,,,,,,,,,,,,,,,,,,,,,,,,,,,,,,,,,,,,,,,,,,,,,,,,,,,,,,,,,,,,,,,,,,,,,,,,,,,,,,,,,,,,,,,,,,,
,,,,,,614072e717f769e6280307d3,62bbf9180da4199b4b2f00da,2022-06-29_09h03.44.366,Colour_Asymmetry_Pilot,2022.1.3,MacIntel,60.0024001,62bbe60bf3d75ef465d3e404,0,101,101,82,1,twoone,,,,,,,,,,,,,,,,,,,,,,,,,,,,,,,,,,,,,,,,,,,,,,,,,,,,,,,,,,,,,,,,,,,,,,,,,,,,,,,,,,,,,,,,,,,,,,,,,,,,,,,,,,,,,,,,,,,,,,,,,,,,,,,,,,,,,,,,,,,,,,,,,,,,,,,,
,,,,,,614072e717f769e6280307d3,62bbf9180da4199b4b2f00da,2022-06-29_09h03.44.366,Colour_Asymmetry_Pilot,2022.1.3,MacIntel,60.0024001,62bbe60bf3d75ef465d3e404,0,102,102,148,1,threeone,,,,,,,,,,,,,,,,,,,,,,,,,,,,,,,,,,,,,,,,,,,,,,,,,,,,,,,,,,,,,,,,,,,,,,,,,,,,,,,,,,,,,,,,,,,,,,,,,,,,,,,,,,,,,,,,,,,,,,,,,,,,,,,,,,,,,,,,,,,,,,,,,,,,,,,,
,,,,,,614072e717f769e6280307d3,62bbf9180da4199b4b2f00da,2022-06-29_09h03.44.366,Colour_Asymmetry_Pilot,2022.1.3,MacIntel,60.0024001,62bbe60bf3d75ef465d3e404,0,103,103,10,1,twoone,,,,,,,,,,,,,,,,,,,,,,,,,,,,,,,,,,,,,,,,,,,,,,,,,,,,,,,,,,,,,,,,,,,,,,,,,,,,,,,,,,,,,,,,,,,,,,,,,,,,,,,,,,,,,,,,,,,,,,,,,,,,,,,,,,,,,,,,,,,,,,,,,,,,,,,,
,,,,,,614072e717f769e6280307d3,62bbf9180da4199b4b2f00da,2022-06-29_09h03.44.366,Colour_Asymmetry_Pilot,2022.1.3,MacIntel,60.0024001,62bbe60bf3d75ef465d3e404,0,104,104,7,1,fourthree,,,,,,,,,,,,,,,,,,,,,,,,,,,,,,,,,,,,,,,,,,,,,,,,,,,,,,,,,,,,,,,,,,,,,,,,,,,,,,,,,,,,,,,,,,,,,,,,,,,,,,,,,,,,,,,,,,,,,,,,,,,,,,,,,,,,,,,,,,,,,,,,,,,,,,,,
,,,,,,614072e717f769e6280307d3,62bbf9180da4199b4b2f00da,2022-06-29_09h03.44.366,Colour_Asymmetry_Pilot,2022.1.3,MacIntel,60.0024001,62bbe60bf3d75ef465d3e404,0,105,105,26,1,twoone,,,,,,,,,,,,,,,,,,,,,,,,,,,,,,,,,,,,,,,,,,,,,,,,,,,,,,,,,,,,,,,,,,,,,,,,,,,,,,,,,,,,,,,,,,,,,,,,,,,,,,,,,,,,,,,,,,,,,,,,,,,,,,,,,,,,,,,,,,,,,,,,,,,,,,,,
,,,,,,614072e717f769e6280307d3,62bbf9180da4199b4b2f00da,2022-06-29_09h03.44.366,Colour_Asymmetry_Pilot,2022.1.3,MacIntel,60.0024001,62bbe60bf3d75ef465d3e404,0,106,106,152,1,onetwo,,,,,,,,,,,,,,,,,,,,,,,,,,,,,,,,,,,,,,,,,,,,,,,,,,,,,,,,,,,,,,,,,,,,,,,,,,,,,,,,,,,,,,,,,,,,,,,,,,,,,,,,,,,,,,,,,,,,,,,,,,,,,,,,,,,,,,,,,,,,,,,,,,,,,,,,
,,,,,,614072e717f769e6280307d3,62bbf9180da4199b4b2f00da,2022-06-29_09h03.44.366,Colour_Asymmetry_Pilot,2022.1.3,MacIntel,60.0024001,62bbe60bf3d75ef465d3e404,0,107,107,156,1,threeone,,,,,,,,,,,,,,,,,,,,,,,,,,,,,,,,,,,,,,,,,,,,,,,,,,,,,,,,,,,,,,,,,,,,,,,,,,,,,,,,,,,,,,,,,,,,,,,,,,,,,,,,,,,,,,,,,,,,,,,,,,,,,,,,,,,,,,,,,,,,,,,,,,,,,,,,
,,,,,,614072e717f769e6280307d3,62bbf9180da4199b4b2f00da,2022-06-29_09h03.44.366,Colour_Asymmetry_Pilot,2022.1.3,MacIntel,60.0024001,62bbe60bf3d75ef465d3e404,0,108,108,13,1,threefour,,,,,,,,,,,,,,,,,,,,,,,,,,,,,,,,,,,,,,,,,,,,,,,,,,,,,,,,,,,,,,,,,,,,,,,,,,,,,,,,,,,,,,,,,,,,,,,,,,,,,,,,,,,,,,,,,,,,,,,,,,,,,,,,,,,,,,,,,,,,,,,,,,,,,,,,
,,,,,,614072e717f769e6280307d3,62bbf9180da4199b4b2f00da,2022-06-29_09h03.44.366,Colour_Asymmetry_Pilot,2022.1.3,MacIntel,60.0024001,62bbe60bf3d75ef465d3e404,0,109,109,89,1,onethree,,,,,,,,,,,,,,,,,,,,,,,,,,,,,,,,,,,,,,,,,,,,,,,,,,,,,,,,,,,,,,,,,,,,,,,,,,,,,,,,,,,,,,,,,,,,,,,,,,,,,,,,,,,,,,,,,,,,,,,,,,,,,,,,,,,,,,,,,,,,,,,,,,,,,,,,
,,,,,,614072e717f769e6280307d3,62bbf9180da4199b4b2f00da,2022-06-29_09h03.44.366,Colour_Asymmetry_Pilot,2022.1.3,MacIntel,60.0024001,62bbe60bf3d75ef465d3e404,0,110,110,40,1,onetwo,,,,,,,,,,,,,,,,,,,,,,,,,,,,,,,,,,,,,,,,,,,,,,,,,,,,,,,,,,,,,,,,,,,,,,,,,,,,,,,,,,,,,,,,,,,,,,,,,,,,,,,,,,,,,,,,,,,,,,,,,,,,,,,,,,,,,,,,,,,,,,,,,,,,,,,,
,,,,,,614072e717f769e6280307d3,62bbf9180da4199b4b2f00da,2022-06-29_09h03.44.366,Colour_Asymmetry_Pilot,2022.1.3,MacIntel,60.0024001,62bbe60bf3d75ef465d3e404,0,111,111,74,1,twoone,,,,,,,,,,,,,,,,,,,,,,,,,,,,,,,,,,,,,,,,,,,,,,,,,,,,,,,,,,,,,,,,,,,,,,,,,,,,,,,,,,,,,,,,,,,,,,,,,,,,,,,,,,,,,,,,,,,,,,,,,,,,,,,,,,,,,,,,,,,,,,,,,,,,,,,,
,,,,,,614072e717f769e6280307d3,62bbf9180da4199b4b2f00da,2022-06-29_09h03.44.366,Colour_Asymmetry_Pilot,2022.1.3,MacIntel,60.0024001,62bbe60bf3d75ef465d3e404,0,112,112,60,1,threeone,,,,,,,,,,,,,,,,,,,,,,,,,,,,,,,,,,,,,,,,,,,,,,,,,,,,,,,,,,,,,,,,,,,,,,,,,,,,,,,,,,,,,,,,,,,,,,,,,,,,,,,,,,,,,,,,,,,,,,,,,,,,,,,,,,,,,,,,,,,,,,,,,,,,,,,,
,,,,,,614072e717f769e6280307d3,62bbf9180da4199b4b2f00da,2022-06-29_09h03.44.366,Colour_Asymmetry_Pilot,2022.1.3,MacIntel,60.0024001,62bbe60bf3d75ef465d3e404,0,113,113,136,1,onetwo,,,,,,,,,,,,,,,,,,,,,,,,,,,,,,,,,,,,,,,,,,,,,,,,,,,,,,,,,,,,,,,,,,,,,,,,,,,,,,,,,,,,,,,,,,,,,,,,,,,,,,,,,,,,,,,,,,,,,,,,,,,,,,,,,,,,,,,,,,,,,,,,,,,,,,,,
,,,,,,614072e717f769e6280307d3,62bbf9180da4199b4b2f00da,2022-06-29_09h03.44.366,Colour_Asymmetry_Pilot,2022.1.3,MacIntel,60.0024001,62bbe60bf3d75ef465d3e404,0,114,114,135,1,fourthree,,,,,,,,,,,,,,,,,,,,,,,,,,,,,,,,,,,,,,,,,,,,,,,,,,,,,,,,,,,,,,,,,,,,,,,,,,,,,,,,,,,,,,,,,,,,,,,,,,,,,,,,,,,,,,,,,,,,,,,,,,,,,,,,,,,,,,,,,,,,,,,,,,,,,,,,
,,,,,,614072e717f769e6280307d3,62bbf9180da4199b4b2f00da,2022-06-29_09h03.44.366,Colour_Asymmetry_Pilot,2022.1.3,MacIntel,60.0024001,62bbe60bf3d75ef465d3e404,0,115,115,138,1,twoone,,,,,,,,,,,,,,,,,,,,,,,,,,,,,,,,,,,,,,,,,,,,,,,,,,,,,,,,,,,,,,,,,,,,,,,,,,,,,,,,,,,,,,,,,,,,,,,,,,,,,,,,,,,,,,,,,,,,,,,,,,,,,,,,,,,,,,,,,,,,,,,,,,,,,,,,
,,,,,,614072e717f769e6280307d3,62bbf9180da4199b4b2f00da,2022-06-29_09h03.44.366,Colour_Asymmetry_Pilot,2022.1.3,MacIntel,60.0024001,62bbe60bf3d75ef465d3e404,0,116,116,91,1,twofour,,,,,,,,,,,,,,,,,,,,,,,,,,,,,,,,,,,,,,,,,,,,,,,,,,,,,,,,,,,,,,,,,,,,,,,,,,,,,,,,,,,,,,,,,,,,,,,,,,,,,,,,,,,,,,,,,,,,,,,,,,,,,,,,,,,,,,,,,,,,,,,,,,,,,,,,
,,,,,,614072e717f769e6280307d3,62bbf9180da4199b4b2f00da,2022-06-29_09h03.44.366,Colour_Asymmetry_Pilot,2022.1.3,MacIntel,60.0024001,62bbe60bf3d75ef465d3e404,0,117,117,159,1,fourthree,,,,,,,,,,,,,,,,,,,,,,,,,,,,,,,,,,,,,,,,,,,,,,,,,,,,,,,,,,,,,,,,,,,,,,,,,,,,,,,,,,,,,,,,,,,,,,,,,,,,,,,,,,,,,,,,,,,,,,,,,,,,,,,,,,,,,,,,,,,,,,,,,,,,,,,,
,,,,,,614072e717f769e6280307d3,62bbf9180da4199b4b2f00da,2022-06-29_09h03.44.366,Colour_Asymmetry_Pilot,2022.1.3,MacIntel,60.0024001,62bbe60bf3d75ef465d3e404,0,118,118,87,1,fourthree,,,,,,,,,,,,,,,,,,,,,,,,,,,,,,,,,,,,,,,,,,,,,,,,,,,,,,,,,,,,,,,,,,,,,,,,,,,,,,,,,,,,,,,,,,,,,,,,,,,,,,,,,,,,,,,,,,,,,,,,,,,,,,,,,,,,,,,,,,,,,,,,,,,,,,,,
,,,,,,614072e717f769e6280307d3,62bbf9180da4199b4b2f00da,2022-06-29_09h03.44.366,Colour_Asymmetry_Pilot,2022.1.3,MacIntel,60.0024001,62bbe60bf3d75ef465d3e404,0,119,119,146,1,twoone,,,,,,,,,,,,,,,,,,,,,,,,,,,,,,,,,,,,,,,,,,,,,,,,,,,,,,,,,,,,,,,,,,,,,,,,,,,,,,,,,,,,,,,,,,,,,,,,,,,,,,,,,,,,,,,,,,,,,,,,,,,,,,,,,,,,,,,,,,,,,,,,,,,,,,,,
,,,,,,614072e717f769e6280307d3,62bbf9180da4199b4b2f00da,2022-06-29_09h03.44.366,Colour_Asymmetry_Pilot,2022.1.3,MacIntel,60.0024001,62bbe60bf3d75ef465d3e404,0,120,120,69,1,threefour,,,,,,,,,,,,,,,,,,,,,,,,,,,,,,,,,,,,,,,,,,,,,,,,,,,,,,,,,,,,,,,,,,,,,,,,,,,,,,,,,,,,,,,,,,,,,,,,,,,,,,,,,,,,,,,,,,,,,,,,,,,,,,,,,,,,,,,,,,,,,,,,,,,,,,,,
,,,,,,614072e717f769e6280307d3,62bbf9180da4199b4b2f00da,2022-06-29_09h03.44.366,Colour_Asymmetry_Pilot,2022.1.3,MacIntel,60.0024001,62bbe60bf3d75ef465d3e404,0,121,121,106,1,twoone,,,,,,,,,,,,,,,,,,,,,,,,,,,,,,,,,,,,,,,,,,,,,,,,,,,,,,,,,,,,,,,,,,,,,,,,,,,,,,,,,,,,,,,,,,,,,,,,,,,,,,,,,,,,,,,,,,,,,,,,,,,,,,,,,,,,,,,,,,,,,,,,,,,,,,,,
,,,,,,614072e717f769e6280307d3,62bbf9180da4199b4b2f00da,2022-06-29_09h03.44.366,Colour_Asymmetry_Pilot,2022.1.3,MacIntel,60.0024001,62bbe60bf3d75ef465d3e404,0,122,122,55,1,fourthree,,,,,,,,,,,,,,,,,,,,,,,,,,,,,,,,,,,,,,,,,,,,,,,,,,,,,,,,,,,,,,,,,,,,,,,,,,,,,,,,,,,,,,,,,,,,,,,,,,,,,,,,,,,,,,,,,,,,,,,,,,,,,,,,,,,,,,,,,,,,,,,,,,,,,,,,
,,,,,,614072e717f769e6280307d3,62bbf9180da4199b4b2f00da,2022-06-29_09h03.44.366,Colour_Asymmetry_Pilot,2022.1.3,MacIntel,60.0024001,62bbe60bf3d75ef465d3e404,0,123,123,115,1,twofour,,,,,,,,,,,,,,,,,,,,,,,,,,,,,,,,,,,,,,,,,,,,,,,,,,,,,,,,,,,,,,,,,,,,,,,,,,,,,,,,,,,,,,,,,,,,,,,,,,,,,,,,,,,,,,,,,,,,,,,,,,,,,,,,,,,,,,,,,,,,,,,,,,,,,,,,
,,,,,,614072e717f769e6280307d3,62bbf9180da4199b4b2f00da,2022-06-29_09h03.44.366,Colour_Asymmetry_Pilot,2022.1.3,MacIntel,60.0024001,62bbe60bf3d75ef465d3e404,0,124,124,52,1,threeone,,,,,,,,,,,,,,,,,,,,,,,,,,,,,,,,,,,,,,,,,,,,,,,,,,,,,,,,,,,,,,,,,,,,,,,,,,,,,,,,,,,,,,,,,,,,,,,,,,,,,,,,,,,,,,,,,,,,,,,,,,,,,,,,,,,,,,,,,,,,,,,,,,,,,,,,
,,,,,,614072e717f769e6280307d3,62bbf9180da4199b4b2f00da,2022-06-29_09h03.44.366,Colour_Asymmetry_Pilot,2022.1.3,MacIntel,60.0024001,62bbe60bf3d75ef465d3e404,0,125,125,84,1,threeone,,,,,,,,,,,,,,,,,,,,,,,,,,,,,,,,,,,,,,,,,,,,,,,,,,,,,,,,,,,,,,,,,,,,,,,,,,,,,,,,,,,,,,,,,,,,,,,,,,,,,,,,,,,,,,,,,,,,,,,,,,,,,,,,,,,,,,,,,,,,,,,,,,,,,,,,
,,,,,,614072e717f769e6280307d3,62bbf9180da4199b4b2f00da,2022-06-29_09h03.44.366,Colour_Asymmetry_Pilot,2022.1.3,MacIntel,60.0024001,62bbe60bf3d75ef465d3e404,0,126,126,78,1,fourtwo,,,,,,,,,,,,,,,,,,,,,,,,,,,,,,,,,,,,,,,,,,,,,,,,,,,,,,,,,,,,,,,,,,,,,,,,,,,,,,,,,,,,,,,,,,,,,,,,,,,,,,,,,,,,,,,,,,,,,,,,,,,,,,,,,,,,,,,,,,,,,,,,,,,,,,,,
,,,,,,614072e717f769e6280307d3,62bbf9180da4199b4b2f00da,2022-06-29_09h03.44.366,Colour_Asymmetry_Pilot,2022.1.3,MacIntel,60.0024001,62bbe60bf3d75ef465d3e404,0,127,127,27,1,twofour,,,,,,,,,,,,,,,,,,,,,,,,,,,,,,,,,,,,,,,,,,,,,,,,,,,,,,,,,,,,,,,,,,,,,,,,,,,,,,,,,,,,,,,,,,,,,,,,,,,,,,,,,,,,,,,,,,,,,,,,,,,,,,,,,,,,,,,,,,,,,,,,,,,,,,,,
,,,,,,614072e717f769e6280307d3,62bbf9180da4199b4b2f00da,2022-06-29_09h03.44.366,Colour_Asymmetry_Pilot,2022.1.3,MacIntel,60.0024001,62bbe60bf3d75ef465d3e404,0,128,128,25,1,onethree,,,,,,,,,,,,,,,,,,,,,,,,,,,,,,,,,,,,,,,,,,,,,,,,,,,,,,,,,,,,,,,,,,,,,,,,,,,,,,,,,,,,,,,,,,,,,,,,,,,,,,,,,,,,,,,,,,,,,,,,,,,,,,,,,,,,,,,,,,,,,,,,,,,,,,,,
,,,,,,614072e717f769e6280307d3,62bbf9180da4199b4b2f00da,2022-06-29_09h03.44.366,Colour_Asymmetry_Pilot,2022.1.3,MacIntel,60.0024001,62bbe60bf3d75ef465d3e404,0,129,129,132,1,threeone,,,,,,,,,,,,,,,,,,,,,,,,,,,,,,,,,,,,,,,,,,,,,,,,,,,,,,,,,,,,,,,,,,,,,,,,,,,,,,,,,,,,,,,,,,,,,,,,,,,,,,,,,,,,,,,,,,,,,,,,,,,,,,,,,,,,,,,,,,,,,,,,,,,,,,,,
,,,,,,614072e717f769e6280307d3,62bbf9180da4199b4b2f00da,2022-06-29_09h03.44.366,Colour_Asymmetry_Pilot,2022.1.3,MacIntel,60.0024001,62bbe60bf3d75ef465d3e404,0,130,130,118,1,fourtwo,,,,,,,,,,,,,,,,,,,,,,,,,,,,,,,,,,,,,,,,,,,,,,,,,,,,,,,,,,,,,,,,,,,,,,,,,,,,,,,,,,,,,,,,,,,,,,,,,,,,,,,,,,,,,,,,,,,,,,,,,,,,,,,,,,,,,,,,,,,,,,,,,,,,,,,,
,,,,,,614072e717f769e6280307d3,62bbf9180da4199b4b2f00da,2022-06-29_09h03.44.366,Colour_Asymmetry_Pilot,2022.1.3,MacIntel,60.0024001,62bbe60bf3d75ef465d3e404,0,131,131,121,1,onethree,,,,,,,,,,,,,,,,,,,,,,,,,,,,,,,,,,,,,,,,,,,,,,,,,,,,,,,,,,,,,,,,,,,,,,,,,,,,,,,,,,,,,,,,,,,,,,,,,,,,,,,,,,,,,,,,,,,,,,,,,,,,,,,,,,,,,,,,,,,,,,,,,,,,,,,,
,,,,,,614072e717f769e6280307d3,62bbf9180da4199b4b2f00da,2022-06-29_09h03.44.366,Colour_Asymmetry_Pilot,2022.1.3,MacIntel,60.0024001,62bbe60bf3d75ef465d3e404,0,132,132,23,1,fourthree,,,,,,,,,,,,,,,,,,,,,,,,,,,,,,,,,,,,,,,,,,,,,,,,,,,,,,,,,,,,,,,,,,,,,,,,,,,,,,,,,,,,,,,,,,,,,,,,,,,,,,,,,,,,,,,,,,,,,,,,,,,,,,,,,,,,,,,,,,,,,,,,,,,,,,,,
,,,,,,614072e717f769e6280307d3,62bbf9180da4199b4b2f00da,2022-06-29_09h03.44.366,Colour_Asymmetry_Pilot,2022.1.3,MacIntel,60.0024001,62bbe60bf3d75ef465d3e404,0,133,133,80,1,onetwo,,,,,,,,,,,,,,,,,,,,,,,,,,,,,,,,,,,,,,,,,,,,,,,,,,,,,,,,,,,,,,,,,,,,,,,,,,,,,,,,,,,,,,,,,,,,,,,,,,,,,,,,,,,,,,,,,,,,,,,,,,,,,,,,,,,,,,,,,,,,,,,,,,,,,,,,
,,,,,,614072e717f769e6280307d3,62bbf9180da4199b4b2f00da,2022-06-29_09h03.44.366,Colour_Asymmetry_Pilot,2022.1.3,MacIntel,60.0024001,62bbe60bf3d75ef465d3e404,0,134,134,64,1,onetwo,,,,,,,,,,,,,,,,,,,,,,,,,,,,,,,,,,,,,,,,,,,,,,,,,,,,,,,,,,,,,,,,,,,,,,,,,,,,,,,,,,,,,,,,,,,,,,,,,,,,,,,,,,,,,,,,,,,,,,,,,,,,,,,,,,,,,,,,,,,,,,,,,,,,,,,,
,,,,,,614072e717f769e6280307d3,62bbf9180da4199b4b2f00da,2022-06-29_09h03.44.366,Colour_Asymmetry_Pilot,2022.1.3,MacIntel,60.0024001,62bbe60bf3d75ef465d3e404,0,135,135,85,1,threefour,,,,,,,,,,,,,,,,,,,,,,,,,,,,,,,,,,,,,,,,,,,,,,,,,,,,,,,,,,,,,,,,,,,,,,,,,,,,,,,,,,,,,,,,,,,,,,,,,,,,,,,,,,,,,,,,,,,,,,,,,,,,,,,,,,,,,,,,,,,,,,,,,,,,,,,,
,,,,,,614072e717f769e6280307d3,62bbf9180da4199b4b2f00da,2022-06-29_09h03.44.366,Colour_Asymmetry_Pilot,2022.1.3,MacIntel,60.0024001,62bbe60bf3d75ef465d3e404,0,136,136,38,1,fourtwo,,,,,,,,,,,,,,,,,,,,,,,,,,,,,,,,,,,,,,,,,,,,,,,,,,,,,,,,,,,,,,,,,,,,,,,,,,,,,,,,,,,,,,,,,,,,,,,,,,,,,,,,,,,,,,,,,,,,,,,,,,,,,,,,,,,,,,,,,,,,,,,,,,,,,,,,
,,,,,,614072e717f769e6280307d3,62bbf9180da4199b4b2f00da,2022-06-29_09h03.44.366,Colour_Asymmetry_Pilot,2022.1.3,MacIntel,60.0024001,62bbe60bf3d75ef465d3e404,0,137,137,3,1,twofour,,,,,,,,,,,,,,,,,,,,,,,,,,,,,,,,,,,,,,,,,,,,,,,,,,,,,,,,,,,,,,,,,,,,,,,,,,,,,,,,,,,,,,,,,,,,,,,,,,,,,,,,,,,,,,,,,,,,,,,,,,,,,,,,,,,,,,,,,,,,,,,,,,,,,,,,
,,,,,,614072e717f769e6280307d3,62bbf9180da4199b4b2f00da,2022-06-29_09h03.44.366,Colour_Asymmetry_Pilot,2022.1.3,MacIntel,60.0024001,62bbe60bf3d75ef465d3e404,0,138,138,34,1,twoone,,,,,,,,,,,,,,,,,,,,,,,,,,,,,,,,,,,,,,,,,,,,,,,,,,,,,,,,,,,,,,,,,,,,,,,,,,,,,,,,,,,,,,,,,,,,,,,,,,,,,,,,,,,,,,,,,,,,,,,,,,,,,,,,,,,,,,,,,,,,,,,,,,,,,,,,
,,,,,,614072e717f769e6280307d3,62bbf9180da4199b4b2f00da,2022-06-29_09h03.44.366,Colour_Asymmetry_Pilot,2022.1.3,MacIntel,60.0024001,62bbe60bf3d75ef465d3e404,0,139,139,98,1,twoone,,,,,,,,,,,,,,,,,,,,,,,,,,,,,,,,,,,,,,,,,,,,,,,,,,,,,,,,,,,,,,,,,,,,,,,,,,,,,,,,,,,,,,,,,,,,,,,,,,,,,,,,,,,,,,,,,,,,,,,,,,,,,,,,,,,,,,,,,,,,,,,,,,,,,,,,
,,,,,,614072e717f769e6280307d3,62bbf9180da4199b4b2f00da,2022-06-29_09h03.44.366,Colour_Asymmetry_Pilot,2022.1.3,MacIntel,60.0024001,62bbe60bf3d75ef465d3e404,0,140,140,53,1,threefour,,,,,,,,,,,,,,,,,,,,,,,,,,,,,,,,,,,,,,,,,,,,,,,,,,,,,,,,,,,,,,,,,,,,,,,,,,,,,,,,,,,,,,,,,,,,,,,,,,,,,,,,,,,,,,,,,,,,,,,,,,,,,,,,,,,,,,,,,,,,,,,,,,,,,,,,
,,,,,,614072e717f769e6280307d3,62bbf9180da4199b4b2f00da,2022-06-29_09h03.44.366,Colour_Asymmetry_Pilot,2022.1.3,MacIntel,60.0024001,62bbe60bf3d75ef465d3e404,0,141,141,30,1,fourtwo,,,,,,,,,,,,,,,,,,,,,,,,,,,,,,,,,,,,,,,,,,,,,,,,,,,,,,,,,,,,,,,,,,,,,,,,,,,,,,,,,,,,,,,,,,,,,,,,,,,,,,,,,,,,,,,,,,,,,,,,,,,,,,,,,,,,,,,,,,,,,,,,,,,,,,,,
,,,,,,614072e717f769e6280307d3,62bbf9180da4199b4b2f00da,2022-06-29_09h03.44.366,Colour_Asymmetry_Pilot,2022.1.3,MacIntel,60.0024001,62bbe60bf3d75ef465d3e404,0,142,142,57,1,onethree,,,,,,,,,,,,,,,,,,,,,,,,,,,,,,,,,,,,,,,,,,,,,,,,,,,,,,,,,,,,,,,,,,,,,,,,,,,,,,,,,,,,,,,,,,,,,,,,,,,,,,,,,,,,,,,,,,,,,,,,,,,,,,,,,,,,,,,,,,,,,,,,,,,,,,,,
,,,,,,614072e717f769e6280307d3,62bbf9180da4199b4b2f00da,2022-06-29_09h03.44.366,Colour_Asymmetry_Pilot,2022.1.3,MacIntel,60.0024001,62bbe60bf3d75ef465d3e404,0,143,143,44,1,threeone,,,,,,,,,,,,,,,,,,,,,,,,,,,,,,,,,,,,,,,,,,,,,,,,,,,,,,,,,,,,,,,,,,,,,,,,,,,,,,,,,,,,,,,,,,,,,,,,,,,,,,,,,,,,,,,,,,,,,,,,,,,,,,,,,,,,,,,,,,,,,,,,,,,,,,,,
,,,,,,614072e717f769e6280307d3,62bbf9180da4199b4b2f00da,2022-06-29_09h03.44.366,Colour_Asymmetry_Pilot,2022.1.3,MacIntel,60.0024001,62bbe60bf3d75ef465d3e404,0,144,144,139,1,twofour,,,,,,,,,,,,,,,,,,,,,,,,,,,,,,,,,,,,,,,,,,,,,,,,,,,,,,,,,,,,,,,,,,,,,,,,,,,,,,,,,,,,,,,,,,,,,,,,,,,,,,,,,,,,,,,,,,,,,,,,,,,,,,,,,,,,,,,,,,,,,,,,,,,,,,,,
,,,,,,614072e717f769e6280307d3,62bbf9180da4199b4b2f00da,2022-06-29_09h03.44.366,Colour_Asymmetry_Pilot,2022.1.3,MacIntel,60.0024001,62bbe60bf3d75ef465d3e404,0,145,145,66,1,twoone,,,,,,,,,,,,,,,,,,,,,,,,,,,,,,,,,,,,,,,,,,,,,,,,,,,,,,,,,,,,,,,,,,,,,,,,,,,,,,,,,,,,,,,,,,,,,,,,,,,,,,,,,,,,,,,,,,,,,,,,,,,,,,,,,,,,,,,,,,,,,,,,,,,,,,,,
,,,,,,614072e717f769e6280307d3,62bbf9180da4199b4b2f00da,2022-06-29_09h03.44.366,Colour_Asymmetry_Pilot,2022.1.3,MacIntel,60.0024001,62bbe60bf3d75ef465d3e404,0,146,146,42,1,twoone,,,,,,,,,,,,,,,,,,,,,,,,,,,,,,,,,,,,,,,,,,,,,,,,,,,,,,,,,,,,,,,,,,,,,,,,,,,,,,,,,,,,,,,,,,,,,,,,,,,,,,,,,,,,,,,,,,,,,,,,,,,,,,,,,,,,,,,,,,,,,,,,,,,,,,,,
,,,,,,614072e717f769e6280307d3,62bbf9180da4199b4b2f00da,2022-06-29_09h03.44.366,Colour_Asymmetry_Pilot,2022.1.3,MacIntel,60.0024001,62bbe60bf3d75ef465d3e404,0,147,147,2,1,twoone,,,,,,,,,,,,,,,,,,,,,,,,,,,,,,,,,,,,,,,,,,,,,,,,,,,,,,,,,,,,,,,,,,,,,,,,,,,,,,,,,,,,,,,,,,,,,,,,,,,,,,,,,,,,,,,,,,,,,,,,,,,,,,,,,,,,,,,,,,,,,,,,,,,,,,,,
,,,,,,614072e717f769e6280307d3,62bbf9180da4199b4b2f00da,2022-06-29_09h03.44.366,Colour_Asymmetry_Pilot,2022.1.3,MacIntel,60.0024001,62bbe60bf3d75ef465d3e404,0,148,148,76,1,threeone,,,,,,,,,,,,,,,,,,,,,,,,,,,,,,,,,,,,,,,,,,,,,,,,,,,,,,,,,,,,,,,,,,,,,,,,,,,,,,,,,,,,,,,,,,,,,,,,,,,,,,,,,,,,,,,,,,,,,,,,,,,,,,,,,,,,,,,,,,,,,,,,,,,,,,,,
,,,,,,614072e717f769e6280307d3,62bbf9180da4199b4b2f00da,2022-06-29_09h03.44.366,Colour_Asymmetry_Pilot,2022.1.3,MacIntel,60.0024001,62bbe60bf3d75ef465d3e404,0,149,149,6,1,fourtwo,,,,,,,,,,,,,,,,,,,,,,,,,,,,,,,,,,,,,,,,,,,,,,,,,,,,,,,,,,,,,,,,,,,,,,,,,,,,,,,,,,,,,,,,,,,,,,,,,,,,,,,,,,,,,,,,,,,,,,,,,,,,,,,,,,,,,,,,,,,,,,,,,,,,,,,,
,,,,,,614072e717f769e6280307d3,62bbf9180da4199b4b2f00da,2022-06-29_09h03.44.366,Colour_Asymmetry_Pilot,2022.1.3,MacIntel,60.0024001,62bbe60bf3d75ef465d3e404,0,150,150,62,1,fourtwo,,,,,,,,,,,,,,,,,,,,,,,,,,,,,,,,,,,,,,,,,,,,,,,,,,,,,,,,,,,,,,,,,,,,,,,,,,,,,,,,,,,,,,,,,,,,,,,,,,,,,,,,,,,,,,,,,,,,,,,,,,,,,,,,,,,,,,,,,,,,,,,,,,,,,,,,
,,,,,,614072e717f769e6280307d3,62bbf9180da4199b4b2f00da,2022-06-29_09h03.44.366,Colour_Asymmetry_Pilot,2022.1.3,MacIntel,60.0024001,62bbe60bf3d75ef465d3e404,0,151,151,126,1,fourtwo,,,,,,,,,,,,,,,,,,,,,,,,,,,,,,,,,,,,,,,,,,,,,,,,,,,,,,,,,,,,,,,,,,,,,,,,,,,,,,,,,,,,,,,,,,,,,,,,,,,,,,,,,,,,,,,,,,,,,,,,,,,,,,,,,,,,,,,,,,,,,,,,,,,,,,,,
,,,,,,614072e717f769e6280307d3,62bbf9180da4199b4b2f00da,2022-06-29_09h03.44.366,Colour_Asymmetry_Pilot,2022.1.3,MacIntel,60.0024001,62bbe60bf3d75ef465d3e404,0,152,152,11,1,twofour,,,,,,,,,,,,,,,,,,,,,,,,,,,,,,,,,,,,,,,,,,,,,,,,,,,,,,,,,,,,,,,,,,,,,,,,,,,,,,,,,,,,,,,,,,,,,,,,,,,,,,,,,,,,,,,,,,,,,,,,,,,,,,,,,,,,,,,,,,,,,,,,,,,,,,,,
,,,,,,614072e717f769e6280307d3,62bbf9180da4199b4b2f00da,2022-06-29_09h03.44.366,Colour_Asymmetry_Pilot,2022.1.3,MacIntel,60.0024001,62bbe60bf3d75ef465d3e404,0,153,153,83,1,twofour,,,,,,,,,,,,,,,,,,,,,,,,,,,,,,,,,,,,,,,,,,,,,,,,,,,,,,,,,,,,,,,,,,,,,,,,,,,,,,,,,,,,,,,,,,,,,,,,,,,,,,,,,,,,,,,,,,,,,,,,,,,,,,,,,,,,,,,,,,,,,,,,,,,,,,,,
,,,,,,614072e717f769e6280307d3,62bbf9180da4199b4b2f00da,2022-06-29_09h03.44.366,Colour_Asymmetry_Pilot,2022.1.3,MacIntel,60.0024001,62bbe60bf3d75ef465d3e404,0,154,154,154,1,twoone,,,,,,,,,,,,,,,,,,,,,,,,,,,,,,,,,,,,,,,,,,,,,,,,,,,,,,,,,,,,,,,,,,,,,,,,,,,,,,,,,,,,,,,,,,,,,,,,,,,,,,,,,,,,,,,,,,,,,,,,,,,,,,,,,,,,,,,,,,,,,,,,,,,,,,,,
,,,,,,614072e717f769e6280307d3,62bbf9180da4199b4b2f00da,2022-06-29_09h03.44.366,Colour_Asymmetry_Pilot,2022.1.3,MacIntel,60.0024001,62bbe60bf3d75ef465d3e404,0,155,155,151,1,fourthree,,,,,,,,,,,,,,,,,,,,,,,,,,,,,,,,,,,,,,,,,,,,,,,,,,,,,,,,,,,,,,,,,,,,,,,,,,,,,,,,,,,,,,,,,,,,,,,,,,,,,,,,,,,,,,,,,,,,,,,,,,,,,,,,,,,,,,,,,,,,,,,,,,,,,,,,
,,,,,,614072e717f769e6280307d3,62bbf9180da4199b4b2f00da,2022-06-29_09h03.44.366,Colour_Asymmetry_Pilot,2022.1.3,MacIntel,60.0024001,62bbe60bf3d75ef465d3e404,0,156,156,15,1,fourthree,,,,,,,,,,,,,,,,,,,,,,,,,,,,,,,,,,,,,,,,,,,,,,,,,,,,,,,,,,,,,,,,,,,,,,,,,,,,,,,,,,,,,,,,,,,,,,,,,,,,,,,,,,,,,,,,,,,,,,,,,,,,,,,,,,,,,,,,,,,,,,,,,,,,,,,,
,,,,,,614072e717f769e6280307d3,62bbf9180da4199b4b2f00da,2022-06-29_09h03.44.366,Colour_Asymmetry_Pilot,2022.1.3,MacIntel,60.0024001,62bbe60bf3d75ef465d3e404,0,157,157,8,1,onetwo,,,,,,,,,,,,,,,,,,,,,,,,,,,,,,,,,,,,,,,,,,,,,,,,,,,,,,,,,,,,,,,,,,,,,,,,,,,,,,,,,,,,,,,,,,,,,,,,,,,,,,,,,,,,,,,,,,,,,,,,,,,,,,,,,,,,,,,,,,,,,,,,,,,,,,,,
,,,,,,614072e717f769e6280307d3,62bbf9180da4199b4b2f00da,2022-06-29_09h03.44.366,Colour_Asymmetry_Pilot,2022.1.3,MacIntel,60.0024001,62bbe60bf3d75ef465d3e404,0,158,158,46,1,fourtwo,,,,,,,,,,,,,,,,,,,,,,,,,,,,,,,,,,,,,,,,,,,,,,,,,,,,,,,,,,,,,,,,,,,,,,,,,,,,,,,,,,,,,,,,,,,,,,,,,,,,,,,,,,,,,,,,,,,,,,,,,,,,,,,,,,,,,,,,,,,,,,,,,,,,,,,,
,,,,,,614072e717f769e6280307d3,62bbf9180da4199b4b2f00da,2022-06-29_09h03.44.366,Colour_Asymmetry_Pilot,2022.1.3,MacIntel,60.0024001,62bbe60bf3d75ef465d3e404,0,159,159,140,1,threeone,,,,,,,,,,,,,,,,,,,,,,,,,,,,,,,,,,,,,,,,,,,,,,,,,,,,,,,,,,,,,,,,,,,,,,,,,,,,,,,,,,,,,,,,,,,,,,,,,,,,,,,,,,,,,,,,,,,,,,,,,,,,,,,,,,,,,,,,,,,,,,,,,,,,,,,,
,,,,,,614072e717f769e6280307d3,62bbf9180da4199b4b2f00da,2022-06-29_09h03.44.366,Colour_Asymmetry_Pilot,2022.1.3,MacIntel,60.0024001,62bbe60bf3d75ef465d3e404,0,160,160,0,1,onetwo,,,,,,,,,,,,,,,,,,,,,,,,,,,,,,,,,,,,,,,,,,,,,,,,,,,,,,,,,,,,,,,,,,,,,,,,,,,,,,,,,,,,,,,,,,,,,,,,,,,,,,,,,,,,,,,,,,,,,,,,,,,,,,,,,,,,,,,,,,,,,,,,,,,,,,,,
,,,,,,614072e717f769e6280307d3,62bbf9180da4199b4b2f00da,2022-06-29_09h03.44.366,Colour_Asymmetry_Pilot,2022.1.3,MacIntel,60.0024001,62bbe60bf3d75ef465d3e404,0,161,161,32,1,onetwo,,,,,,,,,,,,,,,,,,,,,,,,,,,,,,,,,,,,,,,,,,,,,,,,,,,,,,,,,,,,,,,,,,,,,,,,,,,,,,,,,,,,,,,,,,,,,,,,,,,,,,,,,,,,,,,,,,,,,,,,,,,,,,,,,,,,,,,,,,,,,,,,,,,,,,,,
,,,,,,614072e717f769e6280307d3,62bbf9180da4199b4b2f00da,2022-06-29_09h03.44.366,Colour_Asymmetry_Pilot,2022.1.3,MacIntel,60.0024001,62bbe60bf3d75ef465d3e404,,,,,,,space,4.4749,space,1.4433,space,70.2985,space,1.2654,space,2.8666,space,3.4656,"[-0.0040000000000000036,0.02739999999999987,-0.08239999999999992]",twofour,"[-0.07459999999999989,0.12139999999999995,-0.9922]",4,28.7163,30.22253418,72.92321777,1,0,0,response1disk_5,5.638916016,1.125976563,1,0,0,rectangle_8,56.86767578,34.66162109,1,0,0,response1disk_7,6,3,-9.759277344,-1.58984375,1,0,0,rectangle_4,0,0,0,0,1,,,,,,,,,,,,,,,,,,,,,,,,,,,,,,,,,,,,,,,,,,,,,,,,,,,,,,,,,,,,,,,,,,,,,,,,,,,,,,,,,,,,,,,,,,,,,,,,,,,,,,,,
,,,,,,614072e717f769e6280307d3,62bbf9180da4199b4b2f00da,2022-06-29_09h03.44.366,Colour_Asymmetry_Pilot,2022.1.3,MacIntel,60.0024001,62bbe60bf3d75ef465d3e404,,,,,,,,,,,,,,,,,,,"[0.7646000000000002,0.07440000000000002,0.2704]",twofour,"[-0.26280000000000003,-0.2158,-0.3256]",3,1.5331,84.53381348,29.0072937,1,0,0,response1disk_5,-27.16326904,-4.017456055,1,0,0,rectangle_8,-27.16326904,-4.017456055,1,0,0,,,3,-27.16326904,-4.017456055,1,0,0,,1,0,1,0,1,,,,,,,,,,,,,,,,,,,,,,,,,,,,,,,,,,,,,,,,,,,,,,,,,,,,,,,,,,,,,,,,,,,,,,,,,,,,,,,,,,,,,,,,,,,,,,,,,,,,,,,,
,,,,,,614072e717f769e6280307d3,62bbf9180da4199b4b2f00da,2022-06-29_09h03.44.366,Colour_Asymmetry_Pilot,2022.1.3,MacIntel,60.0024001,62bbe60bf3d75ef465d3e404,,,,,,,,,,,,,,,,,,,"[-0.10599999999999998,-0.15300000000000002,0.15280000000000005]",fourtwo,"[0.12939999999999996,-0.2864,0.3253999999999999]",4,3.1852,38.47467041,74.57220459,1,0,0,response1disk_5,-15.46057129,-1.392456055,1,0,0,rectangle_8,-15.46057129,-1.392456055,1,0,0,,,3,-15.46057129,-1.392456055,1,0,0,,2,0,2,0,1,,,,,,,,,,,,,,,,,,,,,,,,,,,,,,,,,,,,,,,,,,,,,,,,,,,,,,,,,,,,,,,,,,,,,,,,,,,,,,,,,,,,,,,,,,,,,,,,,,,,,,,,
,,,,,,614072e717f769e6280307d3,62bbf9180da4199b4b2f00da,2022-06-29_09h03.44.366,Colour_Asymmetry_Pilot,2022.1.3,MacIntel,60.0024001,62bbe60bf3d75ef465d3e404,,,,,,,,,,,,,,,,,,,"[-0.6706000000000001,-0.6157999999999999,-0.6786]",twofour,"[-0.48240000000000005,0.3175999999999999,0.2156]",-4,1.3338,-47.77722168,76.70202637,1,0,0,response7disk_5,9.115722656,-5.806152344,1,0,0,rectangle_8,9.115722656,-5.806152344,1,0,0,,,3,9.115722656,-5.806152344,1,0,0,,3,0,3,0,1,,,,,,,,,,,,,,,,,,,,,,,,,,,,,,,,,,,,,,,,,,,,,,,,,,,,,,,,,,,,,,,,,,,,,,,,,,,,,,,,,,,,,,,,,,,,,,,,,,,,,,,,
,,,,,,614072e717f769e6280307d3,62bbf9180da4199b4b2f00da,2022-06-29_09h03.44.366,Colour_Asymmetry_Pilot,2022.1.3,MacIntel,60.0024001,62bbe60bf3d75ef465d3e404,,,,,,,,,,,,,,,,,,,"[0.9213999999999998,0.6391999999999998,-0.9922]",twofour,"[0.7018,0.7176,0.6155999999999999]",-3,4.715,-86.17370605,52.33096313,1,0,0,response7disk_5,7.275085449,-10.13330078,1,0,0,rectangle_8,-47.09460449,68.3538208,1,0,0,response7disk_7,0,3,-1.018188477,16.33218384,1,0,0,rectangle_4,4,0,4,0,1,,,,,,,,,,,,,,,,,,,,,,,,,,,,,,,,,,,,,,,,,,,,,,,,,,,,,,,,,,,,,,,,,,,,,,,,,,,,,,,,,,,,,,,,,,,,,,,,,,,,,,,,
,,,,,,614072e717f769e6280307d3,62bbf9180da4199b4b2f00da,2022-06-29_09h03.44.366,Colour_Asymmetry_Pilot,2022.1.3,MacIntel,60.0024001,62bbe60bf3d75ef465d3e404,,,,,,,,,,,,,,,,,,,"[-0.9766,-0.6472,0.07440000000000002]",fourtwo,"[0.796,0.2156,-0.27859999999999996]",-4,41.3477,-52.84326172,75.69573975,1,0,0,response7disk_5,8.814697266,-2.266967773,1,0,0,rectangle_8,8.814697266,-2.266967773,1,0,0,,,3,8.814697266,-2.266967773,1,0,0,,5,0,5,0,1,,,,,,,,,,,,,,,,,,,,,,,,,,,,,,,,,,,,,,,,,,,,,,,,,,,,,,,,,,,,,,,,,,,,,,,,,,,,,,,,,,,,,,,,,,,,,,,,,,,,,,,,
,,,,,,614072e717f769e6280307d3,62bbf9180da4199b4b2f00da,2022-06-29_09h03.44.366,Colour_Asymmetry_Pilot,2022.1.3,MacIntel,60.0024001,62bbe60bf3d75ef465d3e404,,,,,,,,,,,,,,,,,,,"[-0.5688,-0.08239999999999992,-0.1844]",fourthree,"[-0.26280000000000003,-0.2158,-0.3256]",2,0.5682,48.28155518,-38.36431885,1,0,0,response3disk_5,9.475097656,6.107421875,1,0,0,rectangle_8,9.475097656,6.107421875,1,0,0,,,3,9.475097656,6.107421875,1,0,0,,6,0,6,0,1,,,,,,,,,,,,,,,,,,,,,,,,,,,,,,,,,,,,,,,,,,,,,,,,,,,,,,,,,,,,,,,,,,,,,,,,,,,,,,,,,,,,,,,,,,,,,,,,,,,,,,,,
,,,,,,614072e717f769e6280307d3,62bbf9180da4199b4b2f00da,2022-06-29_09h03.44.366,Colour_Asymmetry_Pilot,2022.1.3,MacIntel,60.0024001,62bbe60bf3d75ef465d3e404,,,,,,,,,,,,,,,,,,,,fourtwo,,3,2.1016,,,,,,,,,,,,,,,,,,,,,,,,,,,,,,,,space,4.7182,"[-0.4746,-0.0354000000000001,0.5449999999999999]","[-0.8118,-0.8198,-0.5452]",87.65539551,59.46307373,1,0,0,response1disk,15.9519043,1.422912598,1,0,0,rectangle,15.9519043,1.422912598,1,0,0,,3,0.0016,0,15.9519043,1.422912598,1,0,0,0,0,0,106,1,25,second,,,,,,,,,,,,,,,,,,,,,,,,,,,,,,,,,,,,,,,,,,,,,,,,,,,,,,,,,,,,,,,,,,,
,,,,,,614072e717f769e6280307d3,62bbf9180da4199b4b2f00da,2022-06-29_09h03.44.366,Colour_Asymmetry_Pilot,2022.1.3,MacIntel,60.0024001,62bbe60bf3d75ef465d3e404,,,,,,,,,,,,,,,,,,,,twoone,,4,1.7993,,,,,,,,,,,,,,,,,,,,,,,,,,,,,,,,,,"[0.5528,0.7409999999999999,-0.71]","[-0.4982,-0.2942,-0.0354000000000001]",30.21203613,68.47357178,1,0,0,response1disk,8.428466797,17.76342773,1,0,0,rectangle,8.428466797,17.76342773,1,0,0,,1,0.0012,0,8.428466797,17.76342773,1,0,0,0,1,1,155,1,74,second,,,,,,,,,,,,,,,,,,,,,,,,,,,,,,,,,,,,,,,,,,,,,,,,,,,,,,,,,,,,,,,,,,,
,,,,,,614072e717f769e6280307d3,62bbf9180da4199b4b2f00da,2022-06-29_09h03.44.366,Colour_Asymmetry_Pilot,2022.1.3,MacIntel,60.0024001,62bbe60bf3d75ef465d3e404,,,,,,,,,,,,,,,,,,,,fourtwo,,-4,2.1498,,,,,,,,,,,,,,,,,,,,,,,,,,,,,,,,,,"[-0.2942,-0.24719999999999998,-0.357]","[-0.0040000000000000036,0.02739999999999987,-0.08239999999999992]",-35.51416016,82.32693481,1,0,0,response7disk,-16.01202393,14.4140625,1,0,0,rectangle,-16.01202393,14.4140625,1,0,0,-3,2,0.0011,0,-16.01202393,14.4140625,1,0,0,0,2,2,12,1,12,first,,,,,,,,,,,,,,,,,,,,,,,,,,,,,,,,,,,,,,,,,,,,,,,,,,,,,,,,,,,,,,,,,,,
,,,,,,614072e717f769e6280307d3,62bbf9180da4199b4b2f00da,2022-06-29_09h03.44.366,Colour_Asymmetry_Pilot,2022.1.3,MacIntel,60.0024001,62bbe60bf3d75ef465d3e404,,,,,,,,,,,,,,,,,,,,onetwo,,-4,1.4818,,,,,,,,,,,,,,,,,,,,,,,,,,,,,,,,,,"[-0.01980000000000004,-0.5138,-0.38039999999999996]","[0.11359999999999992,0.6312,0.5213999999999999]",-22.75994873,54.90490723,1,0,0,response7disk,-14.10247803,-10.59851074,1,0,0,rectangle,-14.10247803,-10.59851074,1,0,0,-3,1,0.001,0,-14.10247803,-10.59851074,1,0,0,0,3,3,110,1,29,second,,,,,,,,,,,,,,,,,,,,,,,,,,,,,,,,,,,,,,,,,,,,,,,,,,,,,,,,,,,,,,,,,,,
,,,,,,614072e717f769e6280307d3,62bbf9180da4199b4b2f00da,2022-06-29_09h03.44.366,Colour_Asymmetry_Pilot,2022.1.3,MacIntel,60.0024001,62bbe60bf3d75ef465d3e404,,,,,,,,,,,,,,,,,,,,twofour,,3,5.5318,,,,,,,,,,,,,,,,,,,,,,,,,,,,,,,,,,"[-0.011800000000000033,-0.906,-0.45100000000000007]","[-0.6706000000000001,-0.6157999999999999,-0.6786]",81.60687256,31.12762451,1,0,0,response1disk,-38.79730225,-5.296264648,1,0,0,rectangle,-38.79730225,-5.296264648,1,0,0,-3,3,0.0007,0,-38.79730225,-5.296264648,1,0,0,0,4,4,96,1,15,second,,,,,,,,,,,,,,,,,,,,,,,,,,,,,,,,,,,,,,,,,,,,,,,,,,,,,,,,,,,,,,,,,,,
,,,,,,614072e717f769e6280307d3,62bbf9180da4199b4b2f00da,2022-06-29_09h03.44.366,Colour_Asymmetry_Pilot,2022.1.3,MacIntel,60.0024001,62bbe60bf3d75ef465d3e404,,,,,,,,,,,,,,,,,,,,onethree,,4,3.3507,,,,,,,,,,,,,,,,,,,,,,,,,,,,,,,,,,"[0.7176,-0.906,-0.6864]","[0.8115999999999999,-0.0040000000000000036,-0.09819999999999995]",49.67999268,61.46929932,1,0,0,response1disk,13.543396,-13.9309082,1,0,0,rectangle,13.543396,-13.9309082,1,0,0,1,3,0.0002,0,13.543396,-13.9309082,1,0,0,0,5,5,45,1,45,first,,,,,,,,,,,,,,,,,,,,,,,,,,,,,,,,,,,,,,,,,,,,,,,,,,,,,,,,,,,,,,,,,,,
,,,,,,614072e717f769e6280307d3,62bbf9180da4199b4b2f00da,2022-06-29_09h03.44.366,Colour_Asymmetry_Pilot,2022.1.3,MacIntel,60.0024001,62bbe60bf3d75ef465d3e404,,,,,,,,,,,,,,,,,,,,onethree,,2,0.7498,,,,,,,,,,,,,,,,,,,,,,,,,,,,,,,,,,"[-0.9766,-0.6472,0.07440000000000002]","[-0.24719999999999998,-0.0354000000000001,0.3175999999999999]",67.41448975,-62.1751709,1,0,0,response3disk,1.538818359,0.112915039,1,0,0,rectangle,1.538818359,0.112915039,1,0,0,1,3,1E-04,0,1.538818359,0.112915039,1,0,0,0,6,6,24,1,24,first,,,,,,,,,,,,,,,,,,,,,,,,,,,,,,,,,,,,,,,,,,,,,,,,,,,,,,,,,,,,,,,,,,,
,,,,,,614072e717f769e6280307d3,62bbf9180da4199b4b2f00da,2022-06-29_09h03.44.366,Colour_Asymmetry_Pilot,2022.1.3,MacIntel,60.0024001,62bbe60bf3d75ef465d3e404,,,,,,,,,,,,,,,,,,,,threeone,,-4,0.5187,,,,,,,,,,,,,,,,,,,,,,,,,,,,,,,,,,"[-0.20799999999999996,-0.655,-0.01980000000000004]","[-0.4902000000000001,0.2704,-0.45899999999999996]",-24.02929688,63.84466553,1,0,0,response7disk,16.58764648,3.024536133,1,0,0,rectangle,57.74035645,57.95547485,1,0,0,4,2,0.7157,1,14.50622559,2.509643555,1,0,0,0,7,7,76,1,76,first,response1disk_3,rectangle,,,,,,,,,,,,,,,,,,,,,,,,,,,,,,,,,,,,,,,,,,,,,,,,,,,,,,,,,,,,,,,,,
,,,,,,614072e717f769e6280307d3,62bbf9180da4199b4b2f00da,2022-06-29_09h03.44.366,Colour_Asymmetry_Pilot,2022.1.3,MacIntel,60.0024001,62bbe60bf3d75ef465d3e404,,,,,,,,,,,,,,,,,,,,threefour,,3,0.4167,,,,,,,,,,,,,,,,,,,,,,,,,,,,,,,,,,"[0.09799999999999986,-0.24719999999999998,0.15280000000000005]","[0.34099999999999997,0.12939999999999996,-0.9766]",64.30322266,36.90835571,1,0,0,response1disk,-2.632263184,-0.681091309,1,0,0,rectangle,-2.632263184,-0.681091309,1,0,0,4,2,0.0002,0,-2.632263184,-0.681091309,1,0,0,0,8,8,58,1,58,first,,,,,,,,,,,,,,,,,,,,,,,,,,,,,,,,,,,,,,,,,,,,,,,,,,,,,,,,,,,,,,,,,,,
,,,,,,614072e717f769e6280307d3,62bbf9180da4199b4b2f00da,2022-06-29_09h03.44.366,Colour_Asymmetry_Pilot,2022.1.3,MacIntel,60.0024001,62bbe60bf3d75ef465d3e404,,,,,,,,,,,,,,,,,,,,threefour,,4,0.5315,,,,,,,,,,,,,,,,,,,,,,,,,,,,,,,,,,"[-0.6706000000000001,-0.6157999999999999,-0.6786]","[0.12939999999999996,-0.2864,0.3253999999999999]",35.80505371,68.78411865,1,0,0,response1disk,21.93548584,5.423278809,1,0,0,rectangle,21.93548584,5.423278809,1,0,0,4,3,0.001,0,21.93548584,5.423278809,1,0,0,0,9,9,128,1,47,second,,,,,,,,,,,,,,,,,,,,,,,,,,,,,,,,,,,,,,,,,,,,,,,,,,,,,,,,,,,,,,,,,,,
,,,,,,614072e717f769e6280307d3,62bbf9180da4199b4b2f00da,2022-06-29_09h03.44.366,Colour_Asymmetry_Pilot,2022.1.3,MacIntel,60.0024001,62bbe60bf3d75ef465d3e404,,,,,,,,,,,,,,,,,,,,onethree,,3,0.6164,,,,,,,,,,,,,,,,,,,,,,,,,,,,,,,,,,"[1,0.12939999999999996,-1]","[0.796,0.2156,-0.27859999999999996]",48.08563232,25.50457764,1,0,0,response1disk,9.538818359,-6.385498047,1,0,0,rectangle,9.538818359,-6.385498047,1,0,0,4,2,0.0009,0,9.538818359,-6.385498047,1,0,0,0,10,10,100,1,19,second,,,,,,,,,,,,,,,,,,,,,,,,,,,,,,,,,,,,,,,,,,,,,,,,,,,,,,,,,,,,,,,,,,,
,,,,,,614072e717f769e6280307d3,62bbf9180da4199b4b2f00da,2022-06-29_09h03.44.366,Colour_Asymmetry_Pilot,2022.1.3,MacIntel,60.0024001,62bbe60bf3d75ef465d3e404,,,,,,,,,,,,,,,,,,,,twofour,,4,0.5338,,,,,,,,,,,,,,,,,,,,,,,,,,,,,,,,,,"[0.30180000000000007,-0.7884,-0.9844]","[-0.48240000000000005,0.3175999999999999,0.2156]",26.7510376,66.02716064,1,0,0,response1disk,-4.260070801,-1.211975098,1,0,0,rectangle,-4.260070801,-1.211975098,1,0,0,4,2,0.0001,0,-4.260070801,-1.211975098,1,0,0,0,11,11,123,1,42,second,,,,,,,,,,,,,,,,,,,,,,,,,,,,,,,,,,,,,,,,,,,,,,,,,,,,,,,,,,,,,,,,,,,
,,,,,,614072e717f769e6280307d3,62bbf9180da4199b4b2f00da,2022-06-29_09h03.44.366,Colour_Asymmetry_Pilot,2022.1.3,MacIntel,60.0024001,62bbe60bf3d75ef465d3e404,,,,,,,,,,,,,,,,,,,,fourtwo,,4,0.7157,,,,,,,,,,,,,,,,,,,,,,,,,,,,,,,,,,"[-0.9296,-0.12959999999999994,-0.043199999999999905]","[0.8115999999999999,-0.0040000000000000036,-0.09819999999999995]",20.80114746,71.77398682,1,0,0,response1disk,1.416381836,4.039916992,1,0,0,rectangle,1.416381836,4.039916992,1,0,0,4,2,0.0002,0,1.416381836,4.039916992,1,0,0,0,12,12,20,1,20,first,,,,,,,,,,,,,,,,,,,,,,,,,,,,,,,,,,,,,,,,,,,,,,,,,,,,,,,,,,,,,,,,,,,
,,,,,,614072e717f769e6280307d3,62bbf9180da4199b4b2f00da,2022-06-29_09h03.44.366,Colour_Asymmetry_Pilot,2022.1.3,MacIntel,60.0024001,62bbe60bf3d75ef465d3e404,,,,,,,,,,,,,,,,,,,,onetwo,,-4,0.3994,,,,,,,,,,,,,,,,,,,,,,,,,,,,,,,,,,"[0.40379999999999994,0.09000000000000008,0.44300000000000006]","[-0.9688,-0.4902000000000001,-0.12159999999999993]",-18.61572266,68.9460144,1,0,0,response7disk,0.50402832,13.66937256,1,0,0,rectangle,0.50402832,13.66937256,1,0,0,4,1,0.0011,0,0.50402832,13.66937256,1,0,0,0,13,13,86,1,5,second,,,,,,,,,,,,,,,,,,,,,,,,,,,,,,,,,,,,,,,,,,,,,,,,,,,,,,,,,,,,,,,,,,,
,,,,,,614072e717f769e6280307d3,62bbf9180da4199b4b2f00da,2022-06-29_09h03.44.366,Colour_Asymmetry_Pilot,2022.1.3,MacIntel,60.0024001,62bbe60bf3d75ef465d3e404,,,,,,,,,,,,,,,,,,,,onetwo,,-4,0.3022,,,,,,,,,,,,,,,,,,,,,,,,,,,,,,,,,,"[-0.01980000000000004,-0.5138,-0.38039999999999996]","[-0.07459999999999989,0.12139999999999995,-0.9922]",-44.95318604,65.4543457,1,0,0,response7disk,-17.26702881,7.282470703,1,0,0,rectangle,-17.26702881,7.282470703,1,0,0,4,1,1E-04,0,-17.26702881,7.282470703,1,0,0,0,14,14,111,1,30,second,,,,,,,,,,,,,,,,,,,,,,,,,,,,,,,,,,,,,,,,,,,,,,,,,,,,,,,,,,,,,,,,,,,
,,,,,,614072e717f769e6280307d3,62bbf9180da4199b4b2f00da,2022-06-29_09h03.44.366,Colour_Asymmetry_Pilot,2022.1.3,MacIntel,60.0024001,62bbe60bf3d75ef465d3e404,,,,,,,,,,,,,,,,,,,,onethree,,4,0.6508,,,,,,,,,,,,,,,,,,,,,,,,,,,,,,,,,,"[-0.0040000000000000036,0.02739999999999987,-0.08239999999999992]","[-0.6942,-0.7648,-0.12959999999999994]",35.62908936,81.2444458,1,0,0,response1disk,9.363708496,15.0506897,1,0,0,rectangle,9.363708496,15.0506897,1,0,0,4,1,0,0,9.363708496,15.0506897,1,0,0,0,15,15,1,1,1,first,,,,,,,,,,,,,,,,,,,,,,,,,,,,,,,,,,,,,,,,,,,,,,,,,,,,,,,,,,,,,,,,,,,
